onset	duration	trial_type	trial_number	stroop_condition	stim_text(PL)	stim_text(eng)	stim_color(PL)	stim_color(eng)	response_type	response_color
0.0	n/a	RESPONSE	n/a	n/a	n/a	n/a	n/a	n/a	n/a	n/a
0.0293	1.0167	ITI	n/a	n/a	n/a	n/a	n/a	n/a	n/a	n/a
1.046	0.5	FIXCROSS	n/a	n/a	n/a	n/a	n/a	n/a	n/a	n/a
1.546	1.2	T_INK	1	Neutral	xxxxxxx	xxxxxxx	żółty	yellow	hit	n/a
2.7342	n/a	RESPONSE	n/a	n/a	n/a	n/a	n/a	n/a	n/a	yellow
2.7459	0.5	FEEDBACK	n/a	n/a	n/a	n/a	n/a	n/a	n/a	n/a
3.2459	1.0	ITI	n/a	n/a	n/a	n/a	n/a	n/a	n/a	n/a
4.2459	0.5	FIXCROSS	n/a	n/a	n/a	n/a	n/a	n/a	n/a	n/a
4.7459	1.1666	T_INK	2	Incongruent	zielony	green	czerwony	red	hit	n/a
5.9001	n/a	RESPONSE	n/a	n/a	n/a	n/a	n/a	n/a	n/a	red
5.9126	0.5	FEEDBACK	n/a	n/a	n/a	n/a	n/a	n/a	n/a	n/a
6.4125	1.0	ITI	n/a	n/a	n/a	n/a	n/a	n/a	n/a	n/a
7.4125	0.5	FIXCROSS	n/a	n/a	n/a	n/a	n/a	n/a	n/a	n/a
7.9125	0.75	T_INK	3	Neutral	xxxxxxxxx	xxxxxxxxx	czerwony	red	hit	n/a
8.6503	n/a	RESPONSE	n/a	n/a	n/a	n/a	n/a	n/a	n/a	red
8.6625	0.5	FEEDBACK	n/a	n/a	n/a	n/a	n/a	n/a	n/a	n/a
9.1625	1.0	ITI	n/a	n/a	n/a	n/a	n/a	n/a	n/a	n/a
10.1625	0.5	FIXCROSS	n/a	n/a	n/a	n/a	n/a	n/a	n/a	n/a
10.6625	0.9166	T_INK	4	Incongruent	niebieski	blue	zielony	green	hit	n/a
11.5603	n/a	RESPONSE	n/a	n/a	n/a	n/a	n/a	n/a	n/a	green
11.5791	0.5	FEEDBACK	n/a	n/a	n/a	n/a	n/a	n/a	n/a	n/a
12.0791	1.0167	ITI	n/a	n/a	n/a	n/a	n/a	n/a	n/a	n/a
13.0958	0.5	FIXCROSS	n/a	n/a	n/a	n/a	n/a	n/a	n/a	n/a
13.5958	1.0	T_INK	5	Incongruent	żółty	yellow	zielony	green	hit	n/a
14.5823	n/a	RESPONSE	n/a	n/a	n/a	n/a	n/a	n/a	n/a	green
14.5957	0.5	FEEDBACK	n/a	n/a	n/a	n/a	n/a	n/a	n/a	n/a
15.0957	1.0	ITI	n/a	n/a	n/a	n/a	n/a	n/a	n/a	n/a
16.0957	0.5	FIXCROSS	n/a	n/a	n/a	n/a	n/a	n/a	n/a	n/a
16.5957	0.95	T_INK	6	Incongruent	niebieski	blue	żółty	yellow	hit	n/a
17.5403	n/a	RESPONSE	n/a	n/a	n/a	n/a	n/a	n/a	n/a	yellow
17.5457	0.5	FEEDBACK	n/a	n/a	n/a	n/a	n/a	n/a	n/a	n/a
18.0457	1.0	ITI	n/a	n/a	n/a	n/a	n/a	n/a	n/a	n/a
19.0457	0.5	FIXCROSS	n/a	n/a	n/a	n/a	n/a	n/a	n/a	n/a
19.5456	0.75	T_INK	7	Neutral	xxxxxxxxx	xxxxxxxxx	zielony	green	hit	n/a
20.2905	n/a	RESPONSE	n/a	n/a	n/a	n/a	n/a	n/a	n/a	green
20.2956	0.5	FEEDBACK	n/a	n/a	n/a	n/a	n/a	n/a	n/a	n/a
20.7956	1.0	ITI	n/a	n/a	n/a	n/a	n/a	n/a	n/a	n/a
21.7956	0.5	FIXCROSS	n/a	n/a	n/a	n/a	n/a	n/a	n/a	n/a
22.2956	0.6667	T_INK	8	Incongruent	czerwony	red	zielony	green	hit	n/a
22.9447	n/a	RESPONSE	n/a	n/a	n/a	n/a	n/a	n/a	n/a	green
22.9623	0.5	FEEDBACK	n/a	n/a	n/a	n/a	n/a	n/a	n/a	n/a
23.4622	1.0	ITI	n/a	n/a	n/a	n/a	n/a	n/a	n/a	n/a
24.4622	0.5	FIXCROSS	n/a	n/a	n/a	n/a	n/a	n/a	n/a	n/a
24.9622	0.8	T_INK	9	Incongruent	żółty	yellow	niebieski	blue	hit	n/a
25.7429	n/a	RESPONSE	n/a	n/a	n/a	n/a	n/a	n/a	n/a	blue
25.7622	0.5	FEEDBACK	n/a	n/a	n/a	n/a	n/a	n/a	n/a	n/a
26.2622	1.0	ITI	n/a	n/a	n/a	n/a	n/a	n/a	n/a	n/a
27.2622	0.5	FIXCROSS	n/a	n/a	n/a	n/a	n/a	n/a	n/a	n/a
27.7622	0.6	T_INK	10	Neutral	xxxxx	xxxxx	czerwony	red	hit	n/a
28.3491	n/a	RESPONSE	n/a	n/a	n/a	n/a	n/a	n/a	n/a	red
28.3622	0.5	FEEDBACK	n/a	n/a	n/a	n/a	n/a	n/a	n/a	n/a
28.8622	1.0	ITI	n/a	n/a	n/a	n/a	n/a	n/a	n/a	n/a
29.8621	0.5	FIXCROSS	n/a	n/a	n/a	n/a	n/a	n/a	n/a	n/a
30.3621	0.6667	T_INK	11	Neutral	xxxxxxxxx	xxxxxxxxx	żółty	yellow	hit	n/a
31.0193	n/a	RESPONSE	n/a	n/a	n/a	n/a	n/a	n/a	n/a	yellow
31.0288	0.5	FEEDBACK	n/a	n/a	n/a	n/a	n/a	n/a	n/a	n/a
31.5288	1.0	ITI	n/a	n/a	n/a	n/a	n/a	n/a	n/a	n/a
32.5287	0.5	FIXCROSS	n/a	n/a	n/a	n/a	n/a	n/a	n/a	n/a
33.0287	0.7	T_INK	12	Incongruent	zielony	green	niebieski	blue	hit	n/a
33.7215	n/a	RESPONSE	n/a	n/a	n/a	n/a	n/a	n/a	n/a	blue
33.7287	0.5	FEEDBACK	n/a	n/a	n/a	n/a	n/a	n/a	n/a	n/a
34.2287	1.0	ITI	n/a	n/a	n/a	n/a	n/a	n/a	n/a	n/a
46.6728	n/a	RESPONSE	n/a	n/a	n/a	n/a	n/a	n/a	n/a	n/a
46.6952	1.0	ITI	n/a	n/a	n/a	n/a	n/a	n/a	n/a	n/a
47.6951	0.5	FIXCROSS	n/a	n/a	n/a	n/a	n/a	n/a	n/a	n/a
48.1951	0.8833	INK	1	Incongruent	zielony	green	czerwony	red	hit	n/a
49.0712	n/a	RESPONSE	n/a	n/a	n/a	n/a	n/a	n/a	n/a	red
49.0785	1.0	ITI	n/a	n/a	n/a	n/a	n/a	n/a	n/a	n/a
50.0784	0.5	FIXCROSS	n/a	n/a	n/a	n/a	n/a	n/a	n/a	n/a
50.5784	0.6333	INK	2	Neutral	xxxxxxxxx	xxxxxxxxx	czerwony	red	hit	n/a
51.1978	n/a	RESPONSE	n/a	n/a	n/a	n/a	n/a	n/a	n/a	red
51.2118	1.0	ITI	n/a	n/a	n/a	n/a	n/a	n/a	n/a	n/a
52.2117	0.5	FIXCROSS	n/a	n/a	n/a	n/a	n/a	n/a	n/a	n/a
52.7117	0.7333	INK	3	Neutral	xxxxx	xxxxx	zielony	green	hit	n/a
53.4363	n/a	RESPONSE	n/a	n/a	n/a	n/a	n/a	n/a	n/a	green
53.4451	1.0	ITI	n/a	n/a	n/a	n/a	n/a	n/a	n/a	n/a
54.445	0.5	FIXCROSS	n/a	n/a	n/a	n/a	n/a	n/a	n/a	n/a
54.945	0.6333	INK	4	Neutral	xxxxx	xxxxx	czerwony	red	hit	n/a
55.5628	n/a	RESPONSE	n/a	n/a	n/a	n/a	n/a	n/a	n/a	red
55.5783	1.0	ITI	n/a	n/a	n/a	n/a	n/a	n/a	n/a	n/a
56.5783	0.5	FIXCROSS	n/a	n/a	n/a	n/a	n/a	n/a	n/a	n/a
57.0783	0.95	INK	5	Incongruent	czerwony	red	zielony	green	hit	n/a
58.0252	n/a	RESPONSE	n/a	n/a	n/a	n/a	n/a	n/a	n/a	green
58.0283	1.0	ITI	n/a	n/a	n/a	n/a	n/a	n/a	n/a	n/a
59.0283	0.5	FIXCROSS	n/a	n/a	n/a	n/a	n/a	n/a	n/a	n/a
59.5283	0.6833	INK	6	Neutral	xxxxxxxxx	xxxxxxxxx	czerwony	red	hit	n/a
60.1996	n/a	RESPONSE	n/a	n/a	n/a	n/a	n/a	n/a	n/a	red
60.2116	1.0	ITI	n/a	n/a	n/a	n/a	n/a	n/a	n/a	n/a
61.2116	0.5	FIXCROSS	n/a	n/a	n/a	n/a	n/a	n/a	n/a	n/a
61.7116	1.0	INK	7	Neutral	xxxxxxxxx	xxxxxxxxx	zielony	green	hit	n/a
62.694	n/a	RESPONSE	n/a	n/a	n/a	n/a	n/a	n/a	n/a	green
62.7116	1.0	ITI	n/a	n/a	n/a	n/a	n/a	n/a	n/a	n/a
63.7115	0.5	FIXCROSS	n/a	n/a	n/a	n/a	n/a	n/a	n/a	n/a
64.2115	0.5833	INK	8	Incongruent	zielony	green	niebieski	blue	hit	n/a
64.7886	n/a	RESPONSE	n/a	n/a	n/a	n/a	n/a	n/a	n/a	blue
64.7949	1.0	ITI	n/a	n/a	n/a	n/a	n/a	n/a	n/a	n/a
65.7948	0.5	FIXCROSS	n/a	n/a	n/a	n/a	n/a	n/a	n/a	n/a
66.2948	0.6	INK	9	Neutral	xxxxxxx	xxxxxxx	niebieski	blue	hit	n/a
66.8832	n/a	RESPONSE	n/a	n/a	n/a	n/a	n/a	n/a	n/a	blue
66.8948	1.0	ITI	n/a	n/a	n/a	n/a	n/a	n/a	n/a	n/a
67.8948	0.5	FIXCROSS	n/a	n/a	n/a	n/a	n/a	n/a	n/a	n/a
68.3948	0.65	INK	10	Incongruent	żółty	yellow	niebieski	blue	hit	n/a
69.0417	n/a	RESPONSE	n/a	n/a	n/a	n/a	n/a	n/a	n/a	blue
69.0448	1.0	ITI	n/a	n/a	n/a	n/a	n/a	n/a	n/a	n/a
70.0448	0.5	FIXCROSS	n/a	n/a	n/a	n/a	n/a	n/a	n/a	n/a
70.5448	0.5167	INK	11	Incongruent	czerwony	red	niebieski	blue	hit	n/a
71.0564	n/a	RESPONSE	n/a	n/a	n/a	n/a	n/a	n/a	n/a	blue
71.0614	1.0	ITI	n/a	n/a	n/a	n/a	n/a	n/a	n/a	n/a
72.0614	0.5	FIXCROSS	n/a	n/a	n/a	n/a	n/a	n/a	n/a	n/a
72.5614	0.6	INK	12	Neutral	xxxxx	xxxxx	niebieski	blue	hit	n/a
73.1509	n/a	RESPONSE	n/a	n/a	n/a	n/a	n/a	n/a	n/a	blue
73.1614	1.0	ITI	n/a	n/a	n/a	n/a	n/a	n/a	n/a	n/a
74.1614	0.5	FIXCROSS	n/a	n/a	n/a	n/a	n/a	n/a	n/a	n/a
74.6613	0.6167	INK	13	Neutral	xxxxxxxxx	xxxxxxxxx	żółty	yellow	hit	n/a
75.2615	n/a	RESPONSE	n/a	n/a	n/a	n/a	n/a	n/a	n/a	yellow
75.278	1.0	ITI	n/a	n/a	n/a	n/a	n/a	n/a	n/a	n/a
76.278	0.5	FIXCROSS	n/a	n/a	n/a	n/a	n/a	n/a	n/a	n/a
76.778	0.65	INK	14	Incongruent	żółty	yellow	czerwony	red	hit	n/a
77.4201	n/a	RESPONSE	n/a	n/a	n/a	n/a	n/a	n/a	n/a	red
77.428	1.0	ITI	n/a	n/a	n/a	n/a	n/a	n/a	n/a	n/a
78.4279	0.5	FIXCROSS	n/a	n/a	n/a	n/a	n/a	n/a	n/a	n/a
78.9279	0.75	INK	15	Incongruent	czerwony	red	żółty	yellow	hit	n/a
79.6587	n/a	RESPONSE	n/a	n/a	n/a	n/a	n/a	n/a	n/a	yellow
79.6779	1.0	ITI	n/a	n/a	n/a	n/a	n/a	n/a	n/a	n/a
80.6779	0.5	FIXCROSS	n/a	n/a	n/a	n/a	n/a	n/a	n/a	n/a
81.1779	0.6666	INK	16	Incongruent	zielony	green	czerwony	red	hit	n/a
81.8333	n/a	RESPONSE	n/a	n/a	n/a	n/a	n/a	n/a	n/a	red
81.8446	1.0	ITI	n/a	n/a	n/a	n/a	n/a	n/a	n/a	n/a
82.8445	0.5	FIXCROSS	n/a	n/a	n/a	n/a	n/a	n/a	n/a	n/a
83.3445	0.5333	INK	17	Neutral	xxxxx	xxxxx	niebieski	blue	hit	n/a
83.8639	n/a	RESPONSE	n/a	n/a	n/a	n/a	n/a	n/a	n/a	blue
83.8779	1.0	ITI	n/a	n/a	n/a	n/a	n/a	n/a	n/a	n/a
84.8778	0.5	FIXCROSS	n/a	n/a	n/a	n/a	n/a	n/a	n/a	n/a
85.3778	0.6666	INK	18	Incongruent	zielony	green	niebieski	blue	hit	n/a
86.0383	n/a	RESPONSE	n/a	n/a	n/a	n/a	n/a	n/a	n/a	blue
86.0445	1.0	ITI	n/a	n/a	n/a	n/a	n/a	n/a	n/a	n/a
87.0445	0.5	FIXCROSS	n/a	n/a	n/a	n/a	n/a	n/a	n/a	n/a
87.5444	0.5167	INK	19	Neutral	xxxxxxxx	xxxxxxxx	niebieski	blue	hit	n/a
88.053	n/a	RESPONSE	n/a	n/a	n/a	n/a	n/a	n/a	n/a	blue
88.0611	1.0	ITI	n/a	n/a	n/a	n/a	n/a	n/a	n/a	n/a
89.0611	0.5	FIXCROSS	n/a	n/a	n/a	n/a	n/a	n/a	n/a	n/a
89.5611	0.6667	INK	20	Neutral	xxxxxxx	xxxxxxx	żółty	yellow	hit	n/a
90.2115	n/a	RESPONSE	n/a	n/a	n/a	n/a	n/a	n/a	n/a	yellow
90.2277	1.0	ITI	n/a	n/a	n/a	n/a	n/a	n/a	n/a	n/a
91.2277	0.5	FIXCROSS	n/a	n/a	n/a	n/a	n/a	n/a	n/a	n/a
91.7277	0.7	INK	21	Incongruent	niebieski	blue	zielony	green	hit	n/a
92.4178	n/a	RESPONSE	n/a	n/a	n/a	n/a	n/a	n/a	n/a	green
92.4277	1.0	ITI	n/a	n/a	n/a	n/a	n/a	n/a	n/a	n/a
93.4277	0.5	FIXCROSS	n/a	n/a	n/a	n/a	n/a	n/a	n/a	n/a
93.9277	0.5833	INK	22	Neutral	xxxxxxx	xxxxxxx	czerwony	red	hit	n/a
94.4965	n/a	RESPONSE	n/a	n/a	n/a	n/a	n/a	n/a	n/a	red
94.511	1.0	ITI	n/a	n/a	n/a	n/a	n/a	n/a	n/a	n/a
95.511	0.5	FIXCROSS	n/a	n/a	n/a	n/a	n/a	n/a	n/a	n/a
96.011	0.55	INK	23	Neutral	xxxxxxxx	xxxxxxxx	niebieski	blue	hit	n/a
96.5432	n/a	RESPONSE	n/a	n/a	n/a	n/a	n/a	n/a	n/a	blue
96.561	1.0	ITI	n/a	n/a	n/a	n/a	n/a	n/a	n/a	n/a
97.5609	0.5	FIXCROSS	n/a	n/a	n/a	n/a	n/a	n/a	n/a	n/a
98.0609	0.5666	INK	24	Incongruent	czerwony	red	niebieski	blue	hit	n/a
98.6216	n/a	RESPONSE	n/a	n/a	n/a	n/a	n/a	n/a	n/a	blue
98.6276	1.0	ITI	n/a	n/a	n/a	n/a	n/a	n/a	n/a	n/a
99.6276	0.5	FIXCROSS	n/a	n/a	n/a	n/a	n/a	n/a	n/a	n/a
100.1276	0.85	INK	25	Neutral	xxxxxxxxx	xxxxxxxxx	zielony	green	hit	n/a
100.9721	n/a	RESPONSE	n/a	n/a	n/a	n/a	n/a	n/a	n/a	green
100.9775	1.0	ITI	n/a	n/a	n/a	n/a	n/a	n/a	n/a	n/a
101.9775	0.5	FIXCROSS	n/a	n/a	n/a	n/a	n/a	n/a	n/a	n/a
102.4775	0.5333	INK	26	Incongruent	czerwony	red	niebieski	blue	hit	n/a
103.0028	n/a	RESPONSE	n/a	n/a	n/a	n/a	n/a	n/a	n/a	blue
103.0108	1.0	ITI	n/a	n/a	n/a	n/a	n/a	n/a	n/a	n/a
104.0108	0.5	FIXCROSS	n/a	n/a	n/a	n/a	n/a	n/a	n/a	n/a
104.5108	0.4833	INK	27	Incongruent	żółty	yellow	czerwony	red	hit	n/a
104.9854	n/a	RESPONSE	n/a	n/a	n/a	n/a	n/a	n/a	n/a	red
104.9942	1.0	ITI	n/a	n/a	n/a	n/a	n/a	n/a	n/a	n/a
105.9941	0.5	FIXCROSS	n/a	n/a	n/a	n/a	n/a	n/a	n/a	n/a
106.4941	0.5167	INK	28	Neutral	xxxxxxx	xxxxxxx	niebieski	blue	hit	n/a
107.0001	n/a	RESPONSE	n/a	n/a	n/a	n/a	n/a	n/a	n/a	blue
107.0108	1.0	ITI	n/a	n/a	n/a	n/a	n/a	n/a	n/a	n/a
108.0108	0.5	FIXCROSS	n/a	n/a	n/a	n/a	n/a	n/a	n/a	n/a
108.5108	0.7333	INK	29	Incongruent	niebieski	blue	czerwony	red	hit	n/a
109.2386	n/a	RESPONSE	n/a	n/a	n/a	n/a	n/a	n/a	n/a	red
109.2441	1.0	ITI	n/a	n/a	n/a	n/a	n/a	n/a	n/a	n/a
110.2441	0.5	FIXCROSS	n/a	n/a	n/a	n/a	n/a	n/a	n/a	n/a
110.744	0.65	INK	30	Incongruent	żółty	yellow	czerwony	red	hit	n/a
111.3812	n/a	RESPONSE	n/a	n/a	n/a	n/a	n/a	n/a	n/a	red
111.394	1.0	ITI	n/a	n/a	n/a	n/a	n/a	n/a	n/a	n/a
112.394	0.5	FIXCROSS	n/a	n/a	n/a	n/a	n/a	n/a	n/a	n/a
112.894	0.8666	INK	31	Incongruent	niebieski	blue	czerwony	red	hit	n/a
113.7475	n/a	RESPONSE	n/a	n/a	n/a	n/a	n/a	n/a	n/a	red
113.7607	1.0	ITI	n/a	n/a	n/a	n/a	n/a	n/a	n/a	n/a
114.7606	0.5	FIXCROSS	n/a	n/a	n/a	n/a	n/a	n/a	n/a	n/a
115.2606	0.55	INK	32	Incongruent	zielony	green	żółty	yellow	hit	n/a
115.7942	n/a	RESPONSE	n/a	n/a	n/a	n/a	n/a	n/a	n/a	yellow
115.8106	1.0	ITI	n/a	n/a	n/a	n/a	n/a	n/a	n/a	n/a
116.8106	0.5	FIXCROSS	n/a	n/a	n/a	n/a	n/a	n/a	n/a	n/a
117.3106	0.5333	INK	33	Incongruent	żółty	yellow	niebieski	blue	hit	n/a
117.8408	n/a	RESPONSE	n/a	n/a	n/a	n/a	n/a	n/a	n/a	blue
117.8439	1.0	ITI	n/a	n/a	n/a	n/a	n/a	n/a	n/a	n/a
118.8439	0.5	FIXCROSS	n/a	n/a	n/a	n/a	n/a	n/a	n/a	n/a
119.3439	0.85	INK	34	Neutral	xxxxxxxx	xxxxxxxx	zielony	green	hit	n/a
120.1753	n/a	RESPONSE	n/a	n/a	n/a	n/a	n/a	n/a	n/a	green
120.1939	1.0	ITI	n/a	n/a	n/a	n/a	n/a	n/a	n/a	n/a
121.1939	0.5	FIXCROSS	n/a	n/a	n/a	n/a	n/a	n/a	n/a	n/a
121.6939	0.7333	INK	35	Incongruent	żółty	yellow	zielony	green	hit	n/a
122.4138	n/a	RESPONSE	n/a	n/a	n/a	n/a	n/a	n/a	n/a	green
122.4272	1.0	ITI	n/a	n/a	n/a	n/a	n/a	n/a	n/a	n/a
123.4272	0.5	FIXCROSS	n/a	n/a	n/a	n/a	n/a	n/a	n/a	n/a
123.9271	0.65	INK	36	Incongruent	zielony	green	niebieski	blue	hit	n/a
124.5724	n/a	RESPONSE	n/a	n/a	n/a	n/a	n/a	n/a	n/a	blue
124.5771	1.0	ITI	n/a	n/a	n/a	n/a	n/a	n/a	n/a	n/a
125.5771	0.5	FIXCROSS	n/a	n/a	n/a	n/a	n/a	n/a	n/a	n/a
126.0771	0.5	INK	37	Neutral	xxxxx	xxxxx	zielony	green	hit	n/a
126.571	n/a	RESPONSE	n/a	n/a	n/a	n/a	n/a	n/a	n/a	green
126.5771	1.0	ITI	n/a	n/a	n/a	n/a	n/a	n/a	n/a	n/a
127.5771	0.5	FIXCROSS	n/a	n/a	n/a	n/a	n/a	n/a	n/a	n/a
128.0771	0.6333	INK	38	Neutral	xxxxxxxxx	xxxxxxxxx	zielony	green	hit	n/a
128.6976	n/a	RESPONSE	n/a	n/a	n/a	n/a	n/a	n/a	n/a	green
128.7104	1.0	ITI	n/a	n/a	n/a	n/a	n/a	n/a	n/a	n/a
129.7104	0.5	FIXCROSS	n/a	n/a	n/a	n/a	n/a	n/a	n/a	n/a
130.2104	0.4667	INK	39	Neutral	xxxxxxxx	xxxxxxxx	niebieski	blue	hit	n/a
130.6644	n/a	RESPONSE	n/a	n/a	n/a	n/a	n/a	n/a	n/a	blue
130.677	1.0	ITI	n/a	n/a	n/a	n/a	n/a	n/a	n/a	n/a
131.677	0.5	FIXCROSS	n/a	n/a	n/a	n/a	n/a	n/a	n/a	n/a
132.177	0.5667	INK	40	Incongruent	zielony	green	żółty	yellow	hit	n/a
132.727	n/a	RESPONSE	n/a	n/a	n/a	n/a	n/a	n/a	n/a	yellow
132.7437	1.0	ITI	n/a	n/a	n/a	n/a	n/a	n/a	n/a	n/a
133.7436	0.5	FIXCROSS	n/a	n/a	n/a	n/a	n/a	n/a	n/a	n/a
134.2436	0.5833	INK	41	Neutral	xxxxxxx	xxxxxxx	niebieski	blue	hit	n/a
134.8215	n/a	RESPONSE	n/a	n/a	n/a	n/a	n/a	n/a	n/a	blue
134.827	1.0	ITI	n/a	n/a	n/a	n/a	n/a	n/a	n/a	n/a
135.8269	0.5	FIXCROSS	n/a	n/a	n/a	n/a	n/a	n/a	n/a	n/a
136.3269	0.6167	INK	42	Incongruent	zielony	green	żółty	yellow	hit	n/a
136.9322	n/a	RESPONSE	n/a	n/a	n/a	n/a	n/a	n/a	n/a	yellow
136.9436	1.0	ITI	n/a	n/a	n/a	n/a	n/a	n/a	n/a	n/a
137.9436	0.5	FIXCROSS	n/a	n/a	n/a	n/a	n/a	n/a	n/a	n/a
138.4436	0.6333	INK	43	Neutral	xxxxxxxx	xxxxxxxx	zielony	green	hit	n/a
139.0587	n/a	RESPONSE	n/a	n/a	n/a	n/a	n/a	n/a	n/a	green
139.0769	1.0	ITI	n/a	n/a	n/a	n/a	n/a	n/a	n/a	n/a
140.0769	0.5	FIXCROSS	n/a	n/a	n/a	n/a	n/a	n/a	n/a	n/a
140.5769	0.6666	INK	44	Neutral	xxxxx	xxxxx	zielony	green	hit	n/a
141.2333	n/a	RESPONSE	n/a	n/a	n/a	n/a	n/a	n/a	n/a	green
141.2435	1.0	ITI	n/a	n/a	n/a	n/a	n/a	n/a	n/a	n/a
142.2435	0.5	FIXCROSS	n/a	n/a	n/a	n/a	n/a	n/a	n/a	n/a
142.7435	0.6	INK	45	Neutral	xxxxx	xxxxx	niebieski	blue	hit	n/a
143.3279	n/a	RESPONSE	n/a	n/a	n/a	n/a	n/a	n/a	n/a	blue
143.3435	1.0	ITI	n/a	n/a	n/a	n/a	n/a	n/a	n/a	n/a
144.3434	0.5	FIXCROSS	n/a	n/a	n/a	n/a	n/a	n/a	n/a	n/a
144.8434	0.5666	INK	46	Neutral	xxxxxxxxx	xxxxxxxxx	czerwony	red	hit	n/a
145.4065	n/a	RESPONSE	n/a	n/a	n/a	n/a	n/a	n/a	n/a	red
145.4101	1.0	ITI	n/a	n/a	n/a	n/a	n/a	n/a	n/a	n/a
146.4101	0.5	FIXCROSS	n/a	n/a	n/a	n/a	n/a	n/a	n/a	n/a
146.9101	0.7	INK	47	Neutral	xxxxxxxxx	xxxxxxxxx	żółty	yellow	hit	n/a
147.597	n/a	RESPONSE	n/a	n/a	n/a	n/a	n/a	n/a	n/a	yellow
147.6101	1.0	ITI	n/a	n/a	n/a	n/a	n/a	n/a	n/a	n/a
148.61	0.5	FIXCROSS	n/a	n/a	n/a	n/a	n/a	n/a	n/a	n/a
149.11	0.6667	INK	48	Neutral	xxxxxxxx	xxxxxxxx	żółty	yellow	hit	n/a
149.7714	n/a	RESPONSE	n/a	n/a	n/a	n/a	n/a	n/a	n/a	yellow
149.7767	1.0	ITI	n/a	n/a	n/a	n/a	n/a	n/a	n/a	n/a
150.7767	0.5	FIXCROSS	n/a	n/a	n/a	n/a	n/a	n/a	n/a	n/a
151.2767	0.75	INK	49	Incongruent	czerwony	red	zielony	green	hit	n/a
152.0099	n/a	RESPONSE	n/a	n/a	n/a	n/a	n/a	n/a	n/a	green
152.0266	1.0	ITI	n/a	n/a	n/a	n/a	n/a	n/a	n/a	n/a
153.0266	0.5	FIXCROSS	n/a	n/a	n/a	n/a	n/a	n/a	n/a	n/a
153.5266	0.7833	INK	50	Incongruent	czerwony	red	żółty	yellow	hit	n/a
154.2964	n/a	RESPONSE	n/a	n/a	n/a	n/a	n/a	n/a	n/a	yellow
154.3099	1.0	ITI	n/a	n/a	n/a	n/a	n/a	n/a	n/a	n/a
155.3099	0.5	FIXCROSS	n/a	n/a	n/a	n/a	n/a	n/a	n/a	n/a
155.8099	0.7	INK	51	Incongruent	żółty	yellow	zielony	green	hit	n/a
156.5031	n/a	RESPONSE	n/a	n/a	n/a	n/a	n/a	n/a	n/a	green
156.5099	1.0	ITI	n/a	n/a	n/a	n/a	n/a	n/a	n/a	n/a
157.5099	0.5	FIXCROSS	n/a	n/a	n/a	n/a	n/a	n/a	n/a	n/a
158.0099	0.6833	INK	52	Incongruent	czerwony	red	zielony	green	hit	n/a
158.6776	n/a	RESPONSE	n/a	n/a	n/a	n/a	n/a	n/a	n/a	green
158.6932	1.0	ITI	n/a	n/a	n/a	n/a	n/a	n/a	n/a	n/a
159.6932	0.5	FIXCROSS	n/a	n/a	n/a	n/a	n/a	n/a	n/a	n/a
160.1932	0.5667	INK	53	Incongruent	żółty	yellow	niebieski	blue	hit	n/a
160.7561	n/a	RESPONSE	n/a	n/a	n/a	n/a	n/a	n/a	n/a	blue
160.7598	1.0	ITI	n/a	n/a	n/a	n/a	n/a	n/a	n/a	n/a
161.7598	0.5	FIXCROSS	n/a	n/a	n/a	n/a	n/a	n/a	n/a	n/a
162.2598	0.5667	INK	54	Neutral	xxxxxxxx	xxxxxxxx	żółty	yellow	hit	n/a
162.8188	n/a	RESPONSE	n/a	n/a	n/a	n/a	n/a	n/a	n/a	yellow
162.8265	1.0	ITI	n/a	n/a	n/a	n/a	n/a	n/a	n/a	n/a
163.8264	0.5	FIXCROSS	n/a	n/a	n/a	n/a	n/a	n/a	n/a	n/a
164.3264	0.6833	INK	55	Incongruent	niebieski	blue	zielony	green	hit	n/a
164.9934	n/a	RESPONSE	n/a	n/a	n/a	n/a	n/a	n/a	n/a	green
165.0097	1.0	ITI	n/a	n/a	n/a	n/a	n/a	n/a	n/a	n/a
166.0097	0.5	FIXCROSS	n/a	n/a	n/a	n/a	n/a	n/a	n/a	n/a
166.5097	0.5333	INK	56	Neutral	xxxxxxxx	xxxxxxxx	zielony	green	hit	n/a
167.024	n/a	RESPONSE	n/a	n/a	n/a	n/a	n/a	n/a	n/a	green
167.0431	1.0	ITI	n/a	n/a	n/a	n/a	n/a	n/a	n/a	n/a
168.043	0.5	FIXCROSS	n/a	n/a	n/a	n/a	n/a	n/a	n/a	n/a
168.543	0.5167	INK	57	Incongruent	czerwony	red	żółty	yellow	hit	n/a
169.0547	n/a	RESPONSE	n/a	n/a	n/a	n/a	n/a	n/a	n/a	yellow
169.0597	1.0	ITI	n/a	n/a	n/a	n/a	n/a	n/a	n/a	n/a
170.0597	0.5	FIXCROSS	n/a	n/a	n/a	n/a	n/a	n/a	n/a	n/a
170.5597	0.7667	INK	58	Incongruent	niebieski	blue	żółty	yellow	hit	n/a
171.3091	n/a	RESPONSE	n/a	n/a	n/a	n/a	n/a	n/a	n/a	yellow
171.3263	1.0	ITI	n/a	n/a	n/a	n/a	n/a	n/a	n/a	n/a
172.3263	0.5	FIXCROSS	n/a	n/a	n/a	n/a	n/a	n/a	n/a	n/a
172.8263	0.45	INK	59	Neutral	xxxxxxx	xxxxxxx	żółty	yellow	hit	n/a
173.2598	n/a	RESPONSE	n/a	n/a	n/a	n/a	n/a	n/a	n/a	yellow
173.2763	1.0	ITI	n/a	n/a	n/a	n/a	n/a	n/a	n/a	n/a
174.2763	0.5	FIXCROSS	n/a	n/a	n/a	n/a	n/a	n/a	n/a	n/a
174.7763	1.0333	INK	60	Incongruent	żółty	yellow	zielony	green	hit	n/a
175.8021	n/a	RESPONSE	n/a	n/a	n/a	n/a	n/a	n/a	n/a	green
175.8096	1.0	ITI	n/a	n/a	n/a	n/a	n/a	n/a	n/a	n/a
176.8095	0.5	FIXCROSS	n/a	n/a	n/a	n/a	n/a	n/a	n/a	n/a
177.3095	0.55	INK	61	Neutral	xxxxxxxxx	xxxxxxxxx	żółty	yellow	hit	n/a
177.8488	n/a	RESPONSE	n/a	n/a	n/a	n/a	n/a	n/a	n/a	yellow
177.8595	1.0	ITI	n/a	n/a	n/a	n/a	n/a	n/a	n/a	n/a
178.8595	0.5	FIXCROSS	n/a	n/a	n/a	n/a	n/a	n/a	n/a	n/a
179.3595	0.6167	INK	62	Neutral	xxxxxxx	xxxxxxx	czerwony	red	incorrect	n/a
179.9594	n/a	RESPONSE	n/a	n/a	n/a	n/a	n/a	n/a	n/a	blue
179.9762	1.0	ITI	n/a	n/a	n/a	n/a	n/a	n/a	n/a	n/a
180.9761	0.5	FIXCROSS	n/a	n/a	n/a	n/a	n/a	n/a	n/a	n/a
181.4761	0.9	INK	63	Neutral	xxxxx	xxxxx	czerwony	red	hit	n/a
182.3577	n/a	RESPONSE	n/a	n/a	n/a	n/a	n/a	n/a	n/a	red
182.3761	1.0	ITI	n/a	n/a	n/a	n/a	n/a	n/a	n/a	n/a
183.3761	0.5	FIXCROSS	n/a	n/a	n/a	n/a	n/a	n/a	n/a	n/a
183.8761	0.4833	INK	64	Neutral	xxxxx	xxxxx	czerwony	red	hit	n/a
184.3404	n/a	RESPONSE	n/a	n/a	n/a	n/a	n/a	n/a	n/a	red
184.3594	1.0	ITI	n/a	n/a	n/a	n/a	n/a	n/a	n/a	n/a
185.3594	0.5	FIXCROSS	n/a	n/a	n/a	n/a	n/a	n/a	n/a	n/a
185.8594	0.7333	INK	65	Incongruent	niebieski	blue	żółty	yellow	hit	n/a
186.5789	n/a	RESPONSE	n/a	n/a	n/a	n/a	n/a	n/a	n/a	yellow
186.5927	1.0	ITI	n/a	n/a	n/a	n/a	n/a	n/a	n/a	n/a
187.5927	0.5	FIXCROSS	n/a	n/a	n/a	n/a	n/a	n/a	n/a	n/a
188.0927	0.45	INK	66	Incongruent	niebieski	blue	żółty	yellow	hit	n/a
188.5296	n/a	RESPONSE	n/a	n/a	n/a	n/a	n/a	n/a	n/a	yellow
188.5427	1.0	ITI	n/a	n/a	n/a	n/a	n/a	n/a	n/a	n/a
189.5426	0.5	FIXCROSS	n/a	n/a	n/a	n/a	n/a	n/a	n/a	n/a
190.0426	0.4333	INK	67	Neutral	xxxxxxx	xxxxxxx	żółty	yellow	hit	n/a
190.4643	n/a	RESPONSE	n/a	n/a	n/a	n/a	n/a	n/a	n/a	yellow
190.476	1.0	ITI	n/a	n/a	n/a	n/a	n/a	n/a	n/a	n/a
191.4759	0.5	FIXCROSS	n/a	n/a	n/a	n/a	n/a	n/a	n/a	n/a
191.9759	0.65	INK	68	Incongruent	niebieski	blue	czerwony	red	hit	n/a
192.607	n/a	RESPONSE	n/a	n/a	n/a	n/a	n/a	n/a	n/a	red
192.6259	1.0	ITI	n/a	n/a	n/a	n/a	n/a	n/a	n/a	n/a
193.6259	0.5	FIXCROSS	n/a	n/a	n/a	n/a	n/a	n/a	n/a	n/a
194.1259	0.3667	INK	69	Neutral	xxxxxxx	xxxxxxx	czerwony	red	hit	n/a
194.4777	n/a	RESPONSE	n/a	n/a	n/a	n/a	n/a	n/a	n/a	red
194.4926	1.0	ITI	n/a	n/a	n/a	n/a	n/a	n/a	n/a	n/a
195.4925	0.5	FIXCROSS	n/a	n/a	n/a	n/a	n/a	n/a	n/a	n/a
195.9925	0.6	INK	70	Incongruent	zielony	green	czerwony	red	hit	n/a
196.5882	n/a	RESPONSE	n/a	n/a	n/a	n/a	n/a	n/a	n/a	red
196.5925	1.0	ITI	n/a	n/a	n/a	n/a	n/a	n/a	n/a	n/a
197.5925	0.5	FIXCROSS	n/a	n/a	n/a	n/a	n/a	n/a	n/a	n/a
198.0925	0.7333	INK	71	Incongruent	niebieski	blue	zielony	green	hit	n/a
198.8106	n/a	RESPONSE	n/a	n/a	n/a	n/a	n/a	n/a	n/a	green
198.8258	1.0	ITI	n/a	n/a	n/a	n/a	n/a	n/a	n/a	n/a
199.8258	0.5	FIXCROSS	n/a	n/a	n/a	n/a	n/a	n/a	n/a	n/a
200.3258	0.4667	INK	72	Neutral	xxxxxxxx	xxxxxxxx	żółty	yellow	hit	n/a
200.7773	n/a	RESPONSE	n/a	n/a	n/a	n/a	n/a	n/a	n/a	yellow
200.7925	1.0333	ITI	n/a	n/a	n/a	n/a	n/a	n/a	n/a	n/a
211.0105	n/a	RESPONSE	n/a	n/a	n/a	n/a	n/a	n/a	n/a	n/a
211.0423	1.0	ITI	n/a	n/a	n/a	n/a	n/a	n/a	n/a	n/a
212.0423	0.5	FIXCROSS	n/a	n/a	n/a	n/a	n/a	n/a	n/a	n/a
212.5422	0.95	T_COLOR_NAME	1	Neutral	zielony	green	Neutral	Neutral	hit	n/a
213.4729	n/a	RESPONSE	n/a	n/a	n/a	n/a	n/a	n/a	n/a	green
213.4922	0.5	FEEDBACK	n/a	n/a	n/a	n/a	n/a	n/a	n/a	n/a
213.9922	1.0	ITI	n/a	n/a	n/a	n/a	n/a	n/a	n/a	n/a
214.9922	0.5	FIXCROSS	n/a	n/a	n/a	n/a	n/a	n/a	n/a	n/a
215.4922	1.0333	T_COLOR_NAME	2	Incongruent	niebieski	blue	zielony	green	hit	n/a
216.5107	n/a	RESPONSE	n/a	n/a	n/a	n/a	n/a	n/a	n/a	blue
216.5255	0.5	FEEDBACK	n/a	n/a	n/a	n/a	n/a	n/a	n/a	n/a
217.0255	1.0	ITI	n/a	n/a	n/a	n/a	n/a	n/a	n/a	n/a
218.0255	0.5	FIXCROSS	n/a	n/a	n/a	n/a	n/a	n/a	n/a	n/a
218.5255	0.5667	T_COLOR_NAME	3	Incongruent	żółty	yellow	zielony	green	hit	n/a
219.0851	n/a	RESPONSE	n/a	n/a	n/a	n/a	n/a	n/a	n/a	yellow
219.0921	0.5	FEEDBACK	n/a	n/a	n/a	n/a	n/a	n/a	n/a	n/a
219.5921	1.0	ITI	n/a	n/a	n/a	n/a	n/a	n/a	n/a	n/a
220.5921	0.5	FIXCROSS	n/a	n/a	n/a	n/a	n/a	n/a	n/a	n/a
221.0921	0.6333	T_COLOR_NAME	4	Neutral	niebieski	blue	Neutral	Neutral	hit	n/a
221.7074	n/a	RESPONSE	n/a	n/a	n/a	n/a	n/a	n/a	n/a	blue
221.7254	0.5	FEEDBACK	n/a	n/a	n/a	n/a	n/a	n/a	n/a	n/a
222.2254	1.0	ITI	n/a	n/a	n/a	n/a	n/a	n/a	n/a	n/a
223.2254	0.5	FIXCROSS	n/a	n/a	n/a	n/a	n/a	n/a	n/a	n/a
223.7254	0.75	T_COLOR_NAME	5	Incongruent	niebieski	blue	żółty	yellow	hit	n/a
224.4574	n/a	RESPONSE	n/a	n/a	n/a	n/a	n/a	n/a	n/a	blue
224.4754	0.5	FEEDBACK	n/a	n/a	n/a	n/a	n/a	n/a	n/a	n/a
224.9754	1.0	ITI	n/a	n/a	n/a	n/a	n/a	n/a	n/a	n/a
225.9753	0.5	FIXCROSS	n/a	n/a	n/a	n/a	n/a	n/a	n/a	n/a
226.4753	1.55	T_COLOR_NAME	6	Incongruent	czerwony	red	zielony	green	hit	n/a
228.007	n/a	RESPONSE	n/a	n/a	n/a	n/a	n/a	n/a	n/a	red
228.0253	0.5	FEEDBACK	n/a	n/a	n/a	n/a	n/a	n/a	n/a	n/a
228.5253	1.0	ITI	n/a	n/a	n/a	n/a	n/a	n/a	n/a	n/a
229.5253	0.5	FIXCROSS	n/a	n/a	n/a	n/a	n/a	n/a	n/a	n/a
230.0253	1.0333	T_COLOR_NAME	7	Incongruent	żółty	yellow	niebieski	blue	hit	n/a
231.0436	n/a	RESPONSE	n/a	n/a	n/a	n/a	n/a	n/a	n/a	yellow
231.0586	0.5	FEEDBACK	n/a	n/a	n/a	n/a	n/a	n/a	n/a	n/a
231.5586	1.0	ITI	n/a	n/a	n/a	n/a	n/a	n/a	n/a	n/a
232.5586	0.5	FIXCROSS	n/a	n/a	n/a	n/a	n/a	n/a	n/a	n/a
233.0585	0.5833	T_COLOR_NAME	8	Neutral	niebieski	blue	Neutral	Neutral	hit	n/a
233.6332	n/a	RESPONSE	n/a	n/a	n/a	n/a	n/a	n/a	n/a	blue
233.6419	0.5	FEEDBACK	n/a	n/a	n/a	n/a	n/a	n/a	n/a	n/a
234.1419	1.0	ITI	n/a	n/a	n/a	n/a	n/a	n/a	n/a	n/a
235.1418	0.5	FIXCROSS	n/a	n/a	n/a	n/a	n/a	n/a	n/a	n/a
235.6418	1.1167	T_COLOR_NAME	9	Incongruent	zielony	green	czerwony	red	hit	n/a
236.751	n/a	RESPONSE	n/a	n/a	n/a	n/a	n/a	n/a	n/a	green
236.7585	0.5	FEEDBACK	n/a	n/a	n/a	n/a	n/a	n/a	n/a	n/a
237.0067	n/a	RESPONSE	n/a	n/a	n/a	n/a	n/a	n/a	n/a	green
237.2585	1.0	ITI	n/a	n/a	n/a	n/a	n/a	n/a	n/a	n/a
238.2585	0.5	FIXCROSS	n/a	n/a	n/a	n/a	n/a	n/a	n/a	n/a
238.7584	0.9333	T_COLOR_NAME	10	Incongruent	zielony	green	niebieski	blue	hit	n/a
239.6766	n/a	RESPONSE	n/a	n/a	n/a	n/a	n/a	n/a	n/a	green
239.6918	0.5	FEEDBACK	n/a	n/a	n/a	n/a	n/a	n/a	n/a	n/a
240.1917	1.0	ITI	n/a	n/a	n/a	n/a	n/a	n/a	n/a	n/a
241.1917	0.5	FIXCROSS	n/a	n/a	n/a	n/a	n/a	n/a	n/a	n/a
241.6917	0.6333	T_COLOR_NAME	11	Neutral	niebieski	blue	Neutral	Neutral	hit	n/a
242.3147	n/a	RESPONSE	n/a	n/a	n/a	n/a	n/a	n/a	n/a	blue
242.3251	0.5	FEEDBACK	n/a	n/a	n/a	n/a	n/a	n/a	n/a	n/a
242.825	1.0	ITI	n/a	n/a	n/a	n/a	n/a	n/a	n/a	n/a
243.825	0.5	FIXCROSS	n/a	n/a	n/a	n/a	n/a	n/a	n/a	n/a
244.325	0.6833	T_COLOR_NAME	12	Neutral	żółty	yellow	Neutral	Neutral	hit	n/a
245.0008	n/a	RESPONSE	n/a	n/a	n/a	n/a	n/a	n/a	n/a	yellow
245.0083	0.5	FEEDBACK	n/a	n/a	n/a	n/a	n/a	n/a	n/a	n/a
245.5083	1.0	ITI	n/a	n/a	n/a	n/a	n/a	n/a	n/a	n/a
249.2699	n/a	RESPONSE	n/a	n/a	n/a	n/a	n/a	n/a	n/a	n/a
249.2916	1.0	ITI	n/a	n/a	n/a	n/a	n/a	n/a	n/a	n/a
250.2916	0.5	FIXCROSS	n/a	n/a	n/a	n/a	n/a	n/a	n/a	n/a
250.7916	0.9833	COLOR_NAME	1	Neutral	zielony	green	Neutral	Neutral	hit	n/a
251.7642	n/a	RESPONSE	n/a	n/a	n/a	n/a	n/a	n/a	n/a	green
251.7749	1.0	ITI	n/a	n/a	n/a	n/a	n/a	n/a	n/a	n/a
252.7749	0.5	FIXCROSS	n/a	n/a	n/a	n/a	n/a	n/a	n/a	n/a
253.2749	0.6	COLOR_NAME	2	Neutral	zielony	green	Neutral	Neutral	hit	n/a
253.8588	n/a	RESPONSE	n/a	n/a	n/a	n/a	n/a	n/a	n/a	green
253.8748	1.0	ITI	n/a	n/a	n/a	n/a	n/a	n/a	n/a	n/a
254.8748	0.5	FIXCROSS	n/a	n/a	n/a	n/a	n/a	n/a	n/a	n/a
255.3748	0.7333	COLOR_NAME	3	Incongruent	czerwony	red	zielony	green	hit	n/a
256.0973	n/a	RESPONSE	n/a	n/a	n/a	n/a	n/a	n/a	n/a	red
256.1081	1.0	ITI	n/a	n/a	n/a	n/a	n/a	n/a	n/a	n/a
257.1081	0.5	FIXCROSS	n/a	n/a	n/a	n/a	n/a	n/a	n/a	n/a
257.6081	0.55	COLOR_NAME	4	Neutral	czerwony	red	Neutral	Neutral	hit	n/a
258.1439	n/a	RESPONSE	n/a	n/a	n/a	n/a	n/a	n/a	n/a	red
258.1581	1.0	ITI	n/a	n/a	n/a	n/a	n/a	n/a	n/a	n/a
259.1581	0.5	FIXCROSS	n/a	n/a	n/a	n/a	n/a	n/a	n/a	n/a
259.6581	0.55	COLOR_NAME	5	Neutral	niebieski	blue	Neutral	Neutral	hit	n/a
260.1905	n/a	RESPONSE	n/a	n/a	n/a	n/a	n/a	n/a	n/a	blue
260.2081	1.0	ITI	n/a	n/a	n/a	n/a	n/a	n/a	n/a	n/a
261.2081	0.5	FIXCROSS	n/a	n/a	n/a	n/a	n/a	n/a	n/a	n/a
261.7081	0.7833	COLOR_NAME	6	Incongruent	zielony	green	niebieski	blue	incorrect	n/a
262.4771	n/a	RESPONSE	n/a	n/a	n/a	n/a	n/a	n/a	n/a	red
262.4914	1.0	ITI	n/a	n/a	n/a	n/a	n/a	n/a	n/a	n/a
263.4914	0.5	FIXCROSS	n/a	n/a	n/a	n/a	n/a	n/a	n/a	n/a
263.9913	1.35	COLOR_NAME	7	Incongruent	niebieski	blue	żółty	yellow	hit	n/a
265.3232	n/a	RESPONSE	n/a	n/a	n/a	n/a	n/a	n/a	n/a	blue
265.3413	1.0	ITI	n/a	n/a	n/a	n/a	n/a	n/a	n/a	n/a
266.3413	0.5	FIXCROSS	n/a	n/a	n/a	n/a	n/a	n/a	n/a	n/a
266.8413	0.7833	COLOR_NAME	8	Neutral	czerwony	red	Neutral	Neutral	hit	n/a
267.6095	n/a	RESPONSE	n/a	n/a	n/a	n/a	n/a	n/a	n/a	red
267.6246	1.0	ITI	n/a	n/a	n/a	n/a	n/a	n/a	n/a	n/a
268.6246	0.5	FIXCROSS	n/a	n/a	n/a	n/a	n/a	n/a	n/a	n/a
269.1246	0.8333	COLOR_NAME	9	Neutral	zielony	green	Neutral	Neutral	hit	n/a
269.944	n/a	RESPONSE	n/a	n/a	n/a	n/a	n/a	n/a	n/a	green
269.9579	1.0	ITI	n/a	n/a	n/a	n/a	n/a	n/a	n/a	n/a
270.9579	0.5	FIXCROSS	n/a	n/a	n/a	n/a	n/a	n/a	n/a	n/a
271.4579	0.5167	COLOR_NAME	10	Incongruent	zielony	green	żółty	yellow	hit	n/a
271.9586	n/a	RESPONSE	n/a	n/a	n/a	n/a	n/a	n/a	n/a	green
271.9745	1.0	ITI	n/a	n/a	n/a	n/a	n/a	n/a	n/a	n/a
272.9745	0.5	FIXCROSS	n/a	n/a	n/a	n/a	n/a	n/a	n/a	n/a
273.4745	0.9333	COLOR_NAME	11	Incongruent	czerwony	red	żółty	yellow	hit	n/a
274.3889	n/a	RESPONSE	n/a	n/a	n/a	n/a	n/a	n/a	n/a	red
274.4078	1.0	ITI	n/a	n/a	n/a	n/a	n/a	n/a	n/a	n/a
275.4078	0.5	FIXCROSS	n/a	n/a	n/a	n/a	n/a	n/a	n/a	n/a
275.9078	0.75	COLOR_NAME	12	Incongruent	żółty	yellow	czerwony	red	hit	n/a
276.6434	n/a	RESPONSE	n/a	n/a	n/a	n/a	n/a	n/a	n/a	yellow
276.6578	1.0	ITI	n/a	n/a	n/a	n/a	n/a	n/a	n/a	n/a
277.6578	0.5	FIXCROSS	n/a	n/a	n/a	n/a	n/a	n/a	n/a	n/a
278.1577	0.5833	COLOR_NAME	13	Incongruent	żółty	yellow	zielony	green	hit	n/a
278.722	n/a	RESPONSE	n/a	n/a	n/a	n/a	n/a	n/a	n/a	yellow
278.7411	1.0	ITI	n/a	n/a	n/a	n/a	n/a	n/a	n/a	n/a
279.7411	0.5	FIXCROSS	n/a	n/a	n/a	n/a	n/a	n/a	n/a	n/a
280.241	0.55	COLOR_NAME	14	Neutral	czerwony	red	Neutral	Neutral	hit	n/a
280.7847	n/a	RESPONSE	n/a	n/a	n/a	n/a	n/a	n/a	n/a	red
280.791	1.0	ITI	n/a	n/a	n/a	n/a	n/a	n/a	n/a	n/a
281.791	0.5	FIXCROSS	n/a	n/a	n/a	n/a	n/a	n/a	n/a	n/a
282.291	0.8167	COLOR_NAME	15	Neutral	żółty	yellow	Neutral	Neutral	hit	n/a
283.1031	n/a	RESPONSE	n/a	n/a	n/a	n/a	n/a	n/a	n/a	yellow
283.1077	1.0	ITI	n/a	n/a	n/a	n/a	n/a	n/a	n/a	n/a
284.1077	0.5	FIXCROSS	n/a	n/a	n/a	n/a	n/a	n/a	n/a	n/a
284.6076	0.65	COLOR_NAME	16	Incongruent	niebieski	blue	żółty	yellow	hit	n/a
285.2456	n/a	RESPONSE	n/a	n/a	n/a	n/a	n/a	n/a	n/a	blue
285.2576	1.0	ITI	n/a	n/a	n/a	n/a	n/a	n/a	n/a	n/a
286.2576	0.5	FIXCROSS	n/a	n/a	n/a	n/a	n/a	n/a	n/a	n/a
286.7576	0.6	COLOR_NAME	17	Neutral	żółty	yellow	Neutral	Neutral	hit	n/a
287.3401	n/a	RESPONSE	n/a	n/a	n/a	n/a	n/a	n/a	n/a	yellow
287.3576	1.0	ITI	n/a	n/a	n/a	n/a	n/a	n/a	n/a	n/a
288.3576	0.5	FIXCROSS	n/a	n/a	n/a	n/a	n/a	n/a	n/a	n/a
288.8576	0.8333	COLOR_NAME	18	Incongruent	żółty	yellow	niebieski	blue	hit	n/a
289.6746	n/a	RESPONSE	n/a	n/a	n/a	n/a	n/a	n/a	n/a	yellow
289.6909	1.0	ITI	n/a	n/a	n/a	n/a	n/a	n/a	n/a	n/a
290.6909	0.5	FIXCROSS	n/a	n/a	n/a	n/a	n/a	n/a	n/a	n/a
291.1909	0.5833	COLOR_NAME	19	Neutral	żółty	yellow	Neutral	Neutral	hit	n/a
291.7692	n/a	RESPONSE	n/a	n/a	n/a	n/a	n/a	n/a	n/a	yellow
291.7742	1.0	ITI	n/a	n/a	n/a	n/a	n/a	n/a	n/a	n/a
292.7742	0.5	FIXCROSS	n/a	n/a	n/a	n/a	n/a	n/a	n/a	n/a
293.2742	0.7	COLOR_NAME	20	Neutral	zielony	green	Neutral	Neutral	hit	n/a
293.9597	n/a	RESPONSE	n/a	n/a	n/a	n/a	n/a	n/a	n/a	green
293.9741	1.0	ITI	n/a	n/a	n/a	n/a	n/a	n/a	n/a	n/a
294.9741	0.5	FIXCROSS	n/a	n/a	n/a	n/a	n/a	n/a	n/a	n/a
295.4741	0.5833	COLOR_NAME	21	Neutral	niebieski	blue	Neutral	Neutral	hit	n/a
296.0543	n/a	RESPONSE	n/a	n/a	n/a	n/a	n/a	n/a	n/a	blue
296.0574	1.0	ITI	n/a	n/a	n/a	n/a	n/a	n/a	n/a	n/a
297.0574	0.5	FIXCROSS	n/a	n/a	n/a	n/a	n/a	n/a	n/a	n/a
297.5574	0.6167	COLOR_NAME	22	Neutral	niebieski	blue	Neutral	Neutral	hit	n/a
298.1649	n/a	RESPONSE	n/a	n/a	n/a	n/a	n/a	n/a	n/a	blue
298.1741	1.0	ITI	n/a	n/a	n/a	n/a	n/a	n/a	n/a	n/a
299.174	0.5	FIXCROSS	n/a	n/a	n/a	n/a	n/a	n/a	n/a	n/a
299.674	0.5333	COLOR_NAME	23	Neutral	zielony	green	Neutral	Neutral	hit	n/a
300.1955	n/a	RESPONSE	n/a	n/a	n/a	n/a	n/a	n/a	n/a	green
300.2074	1.0	ITI	n/a	n/a	n/a	n/a	n/a	n/a	n/a	n/a
301.2074	0.5	FIXCROSS	n/a	n/a	n/a	n/a	n/a	n/a	n/a	n/a
301.7073	0.6833	COLOR_NAME	24	Incongruent	niebieski	blue	zielony	green	hit	n/a
302.3861	n/a	RESPONSE	n/a	n/a	n/a	n/a	n/a	n/a	n/a	blue
302.3907	1.0	ITI	n/a	n/a	n/a	n/a	n/a	n/a	n/a	n/a
303.3906	0.5	FIXCROSS	n/a	n/a	n/a	n/a	n/a	n/a	n/a	n/a
303.8906	0.6	COLOR_NAME	25	Neutral	żółty	yellow	Neutral	Neutral	hit	n/a
304.4806	n/a	RESPONSE	n/a	n/a	n/a	n/a	n/a	n/a	n/a	yellow
304.4906	1.0	ITI	n/a	n/a	n/a	n/a	n/a	n/a	n/a	n/a
305.4906	0.5	FIXCROSS	n/a	n/a	n/a	n/a	n/a	n/a	n/a	n/a
305.9906	0.8	COLOR_NAME	26	Neutral	zielony	green	Neutral	Neutral	hit	n/a
306.7832	n/a	RESPONSE	n/a	n/a	n/a	n/a	n/a	n/a	n/a	green
306.7906	1.0	ITI	n/a	n/a	n/a	n/a	n/a	n/a	n/a	n/a
307.7906	0.5	FIXCROSS	n/a	n/a	n/a	n/a	n/a	n/a	n/a	n/a
308.2906	0.9	COLOR_NAME	27	Incongruent	zielony	green	żółty	yellow	hit	n/a
309.1816	n/a	RESPONSE	n/a	n/a	n/a	n/a	n/a	n/a	n/a	green
309.1905	1.0	ITI	n/a	n/a	n/a	n/a	n/a	n/a	n/a	n/a
310.1905	0.5	FIXCROSS	n/a	n/a	n/a	n/a	n/a	n/a	n/a	n/a
310.6905	0.5833	COLOR_NAME	28	Neutral	niebieski	blue	Neutral	Neutral	hit	n/a
311.2603	n/a	RESPONSE	n/a	n/a	n/a	n/a	n/a	n/a	n/a	blue
311.2738	1.0	ITI	n/a	n/a	n/a	n/a	n/a	n/a	n/a	n/a
312.2738	0.5	FIXCROSS	n/a	n/a	n/a	n/a	n/a	n/a	n/a	n/a
312.7738	0.75	COLOR_NAME	29	Neutral	zielony	green	Neutral	Neutral	hit	n/a
313.5146	n/a	RESPONSE	n/a	n/a	n/a	n/a	n/a	n/a	n/a	green
313.5238	1.0	ITI	n/a	n/a	n/a	n/a	n/a	n/a	n/a	n/a
314.5238	0.5	FIXCROSS	n/a	n/a	n/a	n/a	n/a	n/a	n/a	n/a
315.0238	0.7167	COLOR_NAME	30	Incongruent	zielony	green	żółty	yellow	hit	n/a
315.7211	n/a	RESPONSE	n/a	n/a	n/a	n/a	n/a	n/a	n/a	green
315.7404	1.0	ITI	n/a	n/a	n/a	n/a	n/a	n/a	n/a	n/a
316.7404	0.4998	FIXCROSS	n/a	n/a	n/a	n/a	n/a	n/a	n/a	n/a
317.2402	0.5502	COLOR_NAME	31	Neutral	niebieski	blue	Neutral	Neutral	hit	n/a
317.7837	n/a	RESPONSE	n/a	n/a	n/a	n/a	n/a	n/a	n/a	blue
317.7904	1.0	ITI	n/a	n/a	n/a	n/a	n/a	n/a	n/a	n/a
318.7904	0.5	FIXCROSS	n/a	n/a	n/a	n/a	n/a	n/a	n/a	n/a
319.2904	0.65	COLOR_NAME	32	Incongruent	czerwony	red	niebieski	blue	hit	n/a
319.9263	n/a	RESPONSE	n/a	n/a	n/a	n/a	n/a	n/a	n/a	red
319.9403	1.0	ITI	n/a	n/a	n/a	n/a	n/a	n/a	n/a	n/a
320.9403	0.5	FIXCROSS	n/a	n/a	n/a	n/a	n/a	n/a	n/a	n/a
321.4403	0.8333	COLOR_NAME	33	Incongruent	niebieski	blue	czerwony	red	hit	n/a
322.2608	n/a	RESPONSE	n/a	n/a	n/a	n/a	n/a	n/a	n/a	blue
322.2736	1.0	ITI	n/a	n/a	n/a	n/a	n/a	n/a	n/a	n/a
323.2736	0.5	FIXCROSS	n/a	n/a	n/a	n/a	n/a	n/a	n/a	n/a
323.7736	0.7167	COLOR_NAME	34	Incongruent	zielony	green	czerwony	red	hit	n/a
324.4833	n/a	RESPONSE	n/a	n/a	n/a	n/a	n/a	n/a	n/a	green
324.4903	1.0	ITI	n/a	n/a	n/a	n/a	n/a	n/a	n/a	n/a
325.4903	0.5	FIXCROSS	n/a	n/a	n/a	n/a	n/a	n/a	n/a	n/a
325.9902	0.8	COLOR_NAME	35	Incongruent	czerwony	red	niebieski	blue	hit	n/a
326.7857	n/a	RESPONSE	n/a	n/a	n/a	n/a	n/a	n/a	n/a	red
326.7902	1.0	ITI	n/a	n/a	n/a	n/a	n/a	n/a	n/a	n/a
327.7902	0.5	FIXCROSS	n/a	n/a	n/a	n/a	n/a	n/a	n/a	n/a
328.2902	0.6667	COLOR_NAME	36	Neutral	czerwony	red	Neutral	Neutral	hit	n/a
328.9443	n/a	RESPONSE	n/a	n/a	n/a	n/a	n/a	n/a	n/a	red
328.9569	1.0	ITI	n/a	n/a	n/a	n/a	n/a	n/a	n/a	n/a
329.9568	0.5	FIXCROSS	n/a	n/a	n/a	n/a	n/a	n/a	n/a	n/a
330.4568	0.4167	COLOR_NAME	37	Neutral	czerwony	red	Neutral	Neutral	hit	n/a
330.863	n/a	RESPONSE	n/a	n/a	n/a	n/a	n/a	n/a	n/a	red
330.8735	1.0	ITI	n/a	n/a	n/a	n/a	n/a	n/a	n/a	n/a
331.8735	0.5	FIXCROSS	n/a	n/a	n/a	n/a	n/a	n/a	n/a	n/a
332.3735	0.55	COLOR_NAME	38	Neutral	niebieski	blue	Neutral	Neutral	hit	n/a
332.9096	n/a	RESPONSE	n/a	n/a	n/a	n/a	n/a	n/a	n/a	blue
332.9235	1.0	ITI	n/a	n/a	n/a	n/a	n/a	n/a	n/a	n/a
333.9234	0.5	FIXCROSS	n/a	n/a	n/a	n/a	n/a	n/a	n/a	n/a
334.4234	0.6833	COLOR_NAME	39	Incongruent	czerwony	red	zielony	green	hit	n/a
335.1001	n/a	RESPONSE	n/a	n/a	n/a	n/a	n/a	n/a	n/a	red
335.1068	1.0	ITI	n/a	n/a	n/a	n/a	n/a	n/a	n/a	n/a
336.1067	0.5	FIXCROSS	n/a	n/a	n/a	n/a	n/a	n/a	n/a	n/a
336.6067	0.75	COLOR_NAME	40	Incongruent	czerwony	red	zielony	green	hit	n/a
337.3387	n/a	RESPONSE	n/a	n/a	n/a	n/a	n/a	n/a	n/a	red
337.3567	1.0	ITI	n/a	n/a	n/a	n/a	n/a	n/a	n/a	n/a
338.3567	0.5	FIXCROSS	n/a	n/a	n/a	n/a	n/a	n/a	n/a	n/a
338.8567	0.5333	COLOR_NAME	41	Incongruent	niebieski	blue	czerwony	red	hit	n/a
339.3852	n/a	RESPONSE	n/a	n/a	n/a	n/a	n/a	n/a	n/a	blue
339.39	1.0	ITI	n/a	n/a	n/a	n/a	n/a	n/a	n/a	n/a
340.39	0.5	FIXCROSS	n/a	n/a	n/a	n/a	n/a	n/a	n/a	n/a
340.89	0.8	COLOR_NAME	42	Incongruent	zielony	green	niebieski	blue	hit	n/a
341.6717	n/a	RESPONSE	n/a	n/a	n/a	n/a	n/a	n/a	n/a	green
341.69	1.0	ITI	n/a	n/a	n/a	n/a	n/a	n/a	n/a	n/a
342.69	0.5	FIXCROSS	n/a	n/a	n/a	n/a	n/a	n/a	n/a	n/a
343.1899	0.4833	COLOR_NAME	43	Incongruent	żółty	yellow	czerwony	red	hit	n/a
343.6543	n/a	RESPONSE	n/a	n/a	n/a	n/a	n/a	n/a	n/a	yellow
343.6733	1.0	ITI	n/a	n/a	n/a	n/a	n/a	n/a	n/a	n/a
344.6732	0.5	FIXCROSS	n/a	n/a	n/a	n/a	n/a	n/a	n/a	n/a
345.1732	0.9333	COLOR_NAME	44	Incongruent	zielony	green	czerwony	red	hit	n/a
346.1008	n/a	RESPONSE	n/a	n/a	n/a	n/a	n/a	n/a	n/a	green
346.1066	1.0	ITI	n/a	n/a	n/a	n/a	n/a	n/a	n/a	n/a
347.1065	0.5	FIXCROSS	n/a	n/a	n/a	n/a	n/a	n/a	n/a	n/a
347.6065	0.6833	COLOR_NAME	45	Neutral	czerwony	red	Neutral	Neutral	hit	n/a
348.2753	n/a	RESPONSE	n/a	n/a	n/a	n/a	n/a	n/a	n/a	red
348.2898	1.0	ITI	n/a	n/a	n/a	n/a	n/a	n/a	n/a	n/a
349.2898	0.5	FIXCROSS	n/a	n/a	n/a	n/a	n/a	n/a	n/a	n/a
349.7898	0.6333	COLOR_NAME	46	Incongruent	żółty	yellow	niebieski	blue	hit	n/a
350.4179	n/a	RESPONSE	n/a	n/a	n/a	n/a	n/a	n/a	n/a	yellow
350.4232	1.0	ITI	n/a	n/a	n/a	n/a	n/a	n/a	n/a	n/a
351.4231	0.5	FIXCROSS	n/a	n/a	n/a	n/a	n/a	n/a	n/a	n/a
351.9231	0.6833	COLOR_NAME	47	Incongruent	żółty	yellow	niebieski	blue	hit	n/a
352.5923	n/a	RESPONSE	n/a	n/a	n/a	n/a	n/a	n/a	n/a	yellow
352.6064	1.0	ITI	n/a	n/a	n/a	n/a	n/a	n/a	n/a	n/a
353.6064	0.5	FIXCROSS	n/a	n/a	n/a	n/a	n/a	n/a	n/a	n/a
354.1064	0.5	COLOR_NAME	48	Neutral	żółty	yellow	Neutral	Neutral	hit	n/a
354.5911	n/a	RESPONSE	n/a	n/a	n/a	n/a	n/a	n/a	n/a	yellow
354.6064	1.0	ITI	n/a	n/a	n/a	n/a	n/a	n/a	n/a	n/a
355.6064	0.5	FIXCROSS	n/a	n/a	n/a	n/a	n/a	n/a	n/a	n/a
356.1064	0.75	COLOR_NAME	49	Neutral	niebieski	blue	Neutral	Neutral	hit	n/a
356.8456	n/a	RESPONSE	n/a	n/a	n/a	n/a	n/a	n/a	n/a	blue
356.8564	1.0	ITI	n/a	n/a	n/a	n/a	n/a	n/a	n/a	n/a
357.8563	0.5	FIXCROSS	n/a	n/a	n/a	n/a	n/a	n/a	n/a	n/a
358.3563	0.7	COLOR_NAME	50	Neutral	niebieski	blue	Neutral	Neutral	hit	n/a
359.052	n/a	RESPONSE	n/a	n/a	n/a	n/a	n/a	n/a	n/a	blue
359.0563	1.0	ITI	n/a	n/a	n/a	n/a	n/a	n/a	n/a	n/a
360.0563	0.5	FIXCROSS	n/a	n/a	n/a	n/a	n/a	n/a	n/a	n/a
360.5563	0.7167	COLOR_NAME	51	Neutral	czerwony	red	Neutral	Neutral	hit	n/a
361.2586	n/a	RESPONSE	n/a	n/a	n/a	n/a	n/a	n/a	n/a	red
361.273	1.0	ITI	n/a	n/a	n/a	n/a	n/a	n/a	n/a	n/a
362.2729	0.5	FIXCROSS	n/a	n/a	n/a	n/a	n/a	n/a	n/a	n/a
362.7729	0.7666	COLOR_NAME	52	Neutral	zielony	green	Neutral	Neutral	hit	n/a
363.5291	n/a	RESPONSE	n/a	n/a	n/a	n/a	n/a	n/a	n/a	green
363.5396	1.0	ITI	n/a	n/a	n/a	n/a	n/a	n/a	n/a	n/a
364.5396	0.5	FIXCROSS	n/a	n/a	n/a	n/a	n/a	n/a	n/a	n/a
365.0396	0.7	COLOR_NAME	53	Incongruent	czerwony	red	żółty	yellow	hit	n/a
365.7356	n/a	RESPONSE	n/a	n/a	n/a	n/a	n/a	n/a	n/a	red
365.7395	1.0	ITI	n/a	n/a	n/a	n/a	n/a	n/a	n/a	n/a
366.7395	0.5	FIXCROSS	n/a	n/a	n/a	n/a	n/a	n/a	n/a	n/a
367.2395	0.6166	COLOR_NAME	54	Neutral	niebieski	blue	Neutral	Neutral	hit	n/a
367.8462	n/a	RESPONSE	n/a	n/a	n/a	n/a	n/a	n/a	n/a	blue
367.8562	1.0	ITI	n/a	n/a	n/a	n/a	n/a	n/a	n/a	n/a
368.8562	0.5	FIXCROSS	n/a	n/a	n/a	n/a	n/a	n/a	n/a	n/a
369.3561	0.7833	COLOR_NAME	55	Incongruent	niebieski	blue	zielony	green	hit	n/a
370.1327	n/a	RESPONSE	n/a	n/a	n/a	n/a	n/a	n/a	n/a	blue
370.1395	1.0	ITI	n/a	n/a	n/a	n/a	n/a	n/a	n/a	n/a
371.1394	0.5	FIXCROSS	n/a	n/a	n/a	n/a	n/a	n/a	n/a	n/a
371.6394	0.7333	COLOR_NAME	56	Incongruent	niebieski	blue	żółty	yellow	hit	n/a
372.3552	n/a	RESPONSE	n/a	n/a	n/a	n/a	n/a	n/a	n/a	blue
372.3728	1.0	ITI	n/a	n/a	n/a	n/a	n/a	n/a	n/a	n/a
373.3727	0.5	FIXCROSS	n/a	n/a	n/a	n/a	n/a	n/a	n/a	n/a
373.8727	0.6333	COLOR_NAME	57	Incongruent	żółty	yellow	zielony	green	hit	n/a
374.4977	n/a	RESPONSE	n/a	n/a	n/a	n/a	n/a	n/a	n/a	yellow
374.5061	1.0	ITI	n/a	n/a	n/a	n/a	n/a	n/a	n/a	n/a
375.506	0.5	FIXCROSS	n/a	n/a	n/a	n/a	n/a	n/a	n/a	n/a
376.006	0.5833	COLOR_NAME	58	Incongruent	niebieski	blue	zielony	green	hit	n/a
376.5764	n/a	RESPONSE	n/a	n/a	n/a	n/a	n/a	n/a	n/a	blue
376.5894	1.0	ITI	n/a	n/a	n/a	n/a	n/a	n/a	n/a	n/a
377.5893	0.5	FIXCROSS	n/a	n/a	n/a	n/a	n/a	n/a	n/a	n/a
378.0893	0.55	COLOR_NAME	59	Neutral	czerwony	red	Neutral	Neutral	hit	n/a
378.6229	n/a	RESPONSE	n/a	n/a	n/a	n/a	n/a	n/a	n/a	red
378.6393	1.0	ITI	n/a	n/a	n/a	n/a	n/a	n/a	n/a	n/a
379.6393	0.5	FIXCROSS	n/a	n/a	n/a	n/a	n/a	n/a	n/a	n/a
380.1393	0.6167	COLOR_NAME	60	Neutral	żółty	yellow	Neutral	Neutral	hit	n/a
380.7496	n/a	RESPONSE	n/a	n/a	n/a	n/a	n/a	n/a	n/a	yellow
380.7559	1.0	ITI	n/a	n/a	n/a	n/a	n/a	n/a	n/a	n/a
381.7559	0.5	FIXCROSS	n/a	n/a	n/a	n/a	n/a	n/a	n/a	n/a
382.2559	0.5667	COLOR_NAME	61	Neutral	żółty	yellow	Neutral	Neutral	hit	n/a
382.8122	n/a	RESPONSE	n/a	n/a	n/a	n/a	n/a	n/a	n/a	yellow
382.8226	1.0	ITI	n/a	n/a	n/a	n/a	n/a	n/a	n/a	n/a
383.8226	0.5	FIXCROSS	n/a	n/a	n/a	n/a	n/a	n/a	n/a	n/a
384.3225	0.5667	COLOR_NAME	62	Incongruent	niebieski	blue	czerwony	red	hit	n/a
384.8748	n/a	RESPONSE	n/a	n/a	n/a	n/a	n/a	n/a	n/a	blue
384.8892	1.0	ITI	n/a	n/a	n/a	n/a	n/a	n/a	n/a	n/a
385.8892	0.5	FIXCROSS	n/a	n/a	n/a	n/a	n/a	n/a	n/a	n/a
386.3892	0.4667	COLOR_NAME	63	Incongruent	zielony	green	niebieski	blue	hit	n/a
386.8415	n/a	RESPONSE	n/a	n/a	n/a	n/a	n/a	n/a	n/a	green
386.8558	1.0	ITI	n/a	n/a	n/a	n/a	n/a	n/a	n/a	n/a
387.8558	0.5	FIXCROSS	n/a	n/a	n/a	n/a	n/a	n/a	n/a	n/a
388.3558	0.6	COLOR_NAME	64	Incongruent	żółty	yellow	czerwony	red	hit	n/a
388.9522	n/a	RESPONSE	n/a	n/a	n/a	n/a	n/a	n/a	n/a	yellow
388.9558	1.0	ITI	n/a	n/a	n/a	n/a	n/a	n/a	n/a	n/a
389.9558	0.5	FIXCROSS	n/a	n/a	n/a	n/a	n/a	n/a	n/a	n/a
390.4558	0.8333	COLOR_NAME	65	Incongruent	zielony	green	czerwony	red	hit	n/a
391.2705	n/a	RESPONSE	n/a	n/a	n/a	n/a	n/a	n/a	n/a	green
391.2891	1.0	ITI	n/a	n/a	n/a	n/a	n/a	n/a	n/a	n/a
392.2891	0.5	FIXCROSS	n/a	n/a	n/a	n/a	n/a	n/a	n/a	n/a
392.7891	0.5667	COLOR_NAME	66	Incongruent	czerwony	red	żółty	yellow	hit	n/a
393.3491	n/a	RESPONSE	n/a	n/a	n/a	n/a	n/a	n/a	n/a	red
393.3557	1.0	ITI	n/a	n/a	n/a	n/a	n/a	n/a	n/a	n/a
394.3557	0.5	FIXCROSS	n/a	n/a	n/a	n/a	n/a	n/a	n/a	n/a
394.8557	0.7166	COLOR_NAME	67	Neutral	czerwony	red	Neutral	Neutral	hit	n/a
395.5557	n/a	RESPONSE	n/a	n/a	n/a	n/a	n/a	n/a	n/a	red
395.5723	1.0	ITI	n/a	n/a	n/a	n/a	n/a	n/a	n/a	n/a
396.5723	0.5	FIXCROSS	n/a	n/a	n/a	n/a	n/a	n/a	n/a	n/a
397.0723	0.6167	COLOR_NAME	68	Incongruent	czerwony	red	niebieski	blue	hit	n/a
397.6824	n/a	RESPONSE	n/a	n/a	n/a	n/a	n/a	n/a	n/a	red
397.689	1.0	ITI	n/a	n/a	n/a	n/a	n/a	n/a	n/a	n/a
398.689	0.5	FIXCROSS	n/a	n/a	n/a	n/a	n/a	n/a	n/a	n/a
399.189	0.6167	COLOR_NAME	69	Neutral	żółty	yellow	Neutral	Neutral	hit	n/a
399.7928	n/a	RESPONSE	n/a	n/a	n/a	n/a	n/a	n/a	n/a	yellow
399.8056	1.0	ITI	n/a	n/a	n/a	n/a	n/a	n/a	n/a	n/a
400.8056	0.5	FIXCROSS	n/a	n/a	n/a	n/a	n/a	n/a	n/a	n/a
401.3056	0.6833	COLOR_NAME	70	Incongruent	żółty	yellow	zielony	green	hit	n/a
401.9834	n/a	RESPONSE	n/a	n/a	n/a	n/a	n/a	n/a	n/a	yellow
401.9889	1.0	ITI	n/a	n/a	n/a	n/a	n/a	n/a	n/a	n/a
402.9889	0.5	FIXCROSS	n/a	n/a	n/a	n/a	n/a	n/a	n/a	n/a
403.4889	1.0333	COLOR_NAME	71	Neutral	zielony	green	Neutral	Neutral	hit	n/a
404.5096	n/a	RESPONSE	n/a	n/a	n/a	n/a	n/a	n/a	n/a	green
404.5222	1.0	ITI	n/a	n/a	n/a	n/a	n/a	n/a	n/a	n/a
405.5222	0.5	FIXCROSS	n/a	n/a	n/a	n/a	n/a	n/a	n/a	n/a
406.0222	0.7333	COLOR_NAME	72	Neutral	żółty	yellow	Neutral	Neutral	hit	n/a
406.748	n/a	RESPONSE	n/a	n/a	n/a	n/a	n/a	n/a	n/a	yellow
406.7555	1.0	ITI	n/a	n/a	n/a	n/a	n/a	n/a	n/a	n/a
410.3137	n/a	RESPONSE	n/a	n/a	n/a	n/a	n/a	n/a	n/a	n/a
