onset	duration	trial_type	trial_number	stroop_condition	stim_text(PL)	stim_text(eng)	stim_color(PL)	stim_color(eng)	response_type	response_color
0.0	n/a	RESPONSE	n/a	n/a	n/a	n/a	n/a	n/a	n/a	n/a
0.0693	1.0333	ITI	n/a	n/a	n/a	n/a	n/a	n/a	n/a	n/a
1.1026	0.5167	FIXCROSS	n/a	n/a	n/a	n/a	n/a	n/a	n/a	n/a
1.6194	1.4	T_INK	1	Incongruent	niebieski	blue	zielony	green	hit	n/a
2.9853	n/a	RESPONSE	n/a	n/a	n/a	n/a	n/a	n/a	n/a	green
3.0194	0.5167	FEEDBACK	n/a	n/a	n/a	n/a	n/a	n/a	n/a	n/a
3.536	1.0167	ITI	n/a	n/a	n/a	n/a	n/a	n/a	n/a	n/a
4.5527	0.5167	FIXCROSS	n/a	n/a	n/a	n/a	n/a	n/a	n/a	n/a
5.0694	0.8167	T_INK	2	Incongruent	czerwony	red	żółty	yellow	hit	n/a
5.8589	n/a	RESPONSE	n/a	n/a	n/a	n/a	n/a	n/a	n/a	yellow
5.8861	0.5167	FEEDBACK	n/a	n/a	n/a	n/a	n/a	n/a	n/a	n/a
6.4027	1.0167	ITI	n/a	n/a	n/a	n/a	n/a	n/a	n/a	n/a
7.4194	0.5167	FIXCROSS	n/a	n/a	n/a	n/a	n/a	n/a	n/a	n/a
7.9361	0.7333	T_INK	3	Incongruent	niebieski	blue	czerwony	red	hit	n/a
8.6367	n/a	RESPONSE	n/a	n/a	n/a	n/a	n/a	n/a	n/a	red
8.6694	0.5167	FEEDBACK	n/a	n/a	n/a	n/a	n/a	n/a	n/a	n/a
9.1861	1.0167	ITI	n/a	n/a	n/a	n/a	n/a	n/a	n/a	n/a
10.2028	0.5167	FIXCROSS	n/a	n/a	n/a	n/a	n/a	n/a	n/a	n/a
10.7194	0.95	T_INK	4	Incongruent	żółty	yellow	niebieski	blue	hit	n/a
11.638	n/a	RESPONSE	n/a	n/a	n/a	n/a	n/a	n/a	n/a	blue
11.6694	0.5167	FEEDBACK	n/a	n/a	n/a	n/a	n/a	n/a	n/a	n/a
12.1861	1.0167	ITI	n/a	n/a	n/a	n/a	n/a	n/a	n/a	n/a
13.2028	0.5167	FIXCROSS	n/a	n/a	n/a	n/a	n/a	n/a	n/a	n/a
13.7194	0.7333	T_INK	5	Neutral	xxxxxxxx	xxxxxxxx	żółty	yellow	hit	n/a
14.4317	n/a	RESPONSE	n/a	n/a	n/a	n/a	n/a	n/a	n/a	yellow
14.4528	0.5167	FEEDBACK	n/a	n/a	n/a	n/a	n/a	n/a	n/a	n/a
14.9694	1.0167	ITI	n/a	n/a	n/a	n/a	n/a	n/a	n/a	n/a
15.9861	0.5167	FIXCROSS	n/a	n/a	n/a	n/a	n/a	n/a	n/a	n/a
16.5028	0.3833	T_INK	6	Neutral	xxxxxxxx	xxxxxxxx	zielony	green	hit	n/a
16.8583	n/a	RESPONSE	n/a	n/a	n/a	n/a	n/a	n/a	n/a	green
16.8861	0.5167	FEEDBACK	n/a	n/a	n/a	n/a	n/a	n/a	n/a	n/a
17.4028	1.0167	ITI	n/a	n/a	n/a	n/a	n/a	n/a	n/a	n/a
18.4195	0.5167	FIXCROSS	n/a	n/a	n/a	n/a	n/a	n/a	n/a	n/a
18.9362	0.7333	T_INK	7	Incongruent	czerwony	red	zielony	green	hit	n/a
19.6361	n/a	RESPONSE	n/a	n/a	n/a	n/a	n/a	n/a	n/a	green
19.6695	0.5166	FEEDBACK	n/a	n/a	n/a	n/a	n/a	n/a	n/a	n/a
20.1861	1.0167	ITI	n/a	n/a	n/a	n/a	n/a	n/a	n/a	n/a
21.2028	0.5167	FIXCROSS	n/a	n/a	n/a	n/a	n/a	n/a	n/a	n/a
21.7195	0.65	T_INK	8	Incongruent	zielony	green	żółty	yellow	hit	n/a
22.3341	n/a	RESPONSE	n/a	n/a	n/a	n/a	n/a	n/a	n/a	yellow
22.3695	0.5167	FEEDBACK	n/a	n/a	n/a	n/a	n/a	n/a	n/a	n/a
22.8862	1.0167	ITI	n/a	n/a	n/a	n/a	n/a	n/a	n/a	n/a
23.9028	0.5167	FIXCROSS	n/a	n/a	n/a	n/a	n/a	n/a	n/a	n/a
24.4195	0.6167	T_INK	9	Neutral	xxxxx	xxxxx	czerwony	red	hit	n/a
25.0161	n/a	RESPONSE	n/a	n/a	n/a	n/a	n/a	n/a	n/a	red
25.0362	0.5167	FEEDBACK	n/a	n/a	n/a	n/a	n/a	n/a	n/a	n/a
25.5529	1.0167	ITI	n/a	n/a	n/a	n/a	n/a	n/a	n/a	n/a
26.5695	0.5167	FIXCROSS	n/a	n/a	n/a	n/a	n/a	n/a	n/a	n/a
27.0862	0.4167	T_INK	10	Neutral	xxxxx	xxxxx	niebieski	blue	hit	n/a
27.4745	n/a	RESPONSE	n/a	n/a	n/a	n/a	n/a	n/a	n/a	blue
27.5029	0.5166	FEEDBACK	n/a	n/a	n/a	n/a	n/a	n/a	n/a	n/a
28.0195	1.0167	ITI	n/a	n/a	n/a	n/a	n/a	n/a	n/a	n/a
29.0362	0.5167	FIXCROSS	n/a	n/a	n/a	n/a	n/a	n/a	n/a	n/a
29.5529	0.5166	T_INK	11	Neutral	xxxxxxxxx	xxxxxxxxx	zielony	green	hit	n/a
30.0448	n/a	RESPONSE	n/a	n/a	n/a	n/a	n/a	n/a	n/a	green
30.0695	0.5167	FEEDBACK	n/a	n/a	n/a	n/a	n/a	n/a	n/a	n/a
30.5862	1.0167	ITI	n/a	n/a	n/a	n/a	n/a	n/a	n/a	n/a
31.6029	0.5167	FIXCROSS	n/a	n/a	n/a	n/a	n/a	n/a	n/a	n/a
32.1196	0.45	T_INK	12	Incongruent	zielony	green	czerwony	red	hit	n/a
32.5352	n/a	RESPONSE	n/a	n/a	n/a	n/a	n/a	n/a	n/a	red
32.5696	0.5167	FEEDBACK	n/a	n/a	n/a	n/a	n/a	n/a	n/a	n/a
33.0862	1.0334	ITI	n/a	n/a	n/a	n/a	n/a	n/a	n/a	n/a
40.2619	n/a	RESPONSE	n/a	n/a	n/a	n/a	n/a	n/a	n/a	n/a
40.3196	1.0167	ITI	n/a	n/a	n/a	n/a	n/a	n/a	n/a	n/a
41.3363	0.5167	FIXCROSS	n/a	n/a	n/a	n/a	n/a	n/a	n/a	n/a
41.853	0.7833	INK	1	Incongruent	czerwony	red	zielony	green	hit	n/a
42.6087	n/a	RESPONSE	n/a	n/a	n/a	n/a	n/a	n/a	n/a	green
42.6363	1.0167	ITI	n/a	n/a	n/a	n/a	n/a	n/a	n/a	n/a
43.653	0.5166	FIXCROSS	n/a	n/a	n/a	n/a	n/a	n/a	n/a	n/a
44.1696	0.4667	INK	2	Neutral	xxxxx	xxxxx	czerwony	red	hit	n/a
44.6042	n/a	RESPONSE	n/a	n/a	n/a	n/a	n/a	n/a	n/a	red
44.6363	1.0167	ITI	n/a	n/a	n/a	n/a	n/a	n/a	n/a	n/a
45.653	0.5167	FIXCROSS	n/a	n/a	n/a	n/a	n/a	n/a	n/a	n/a
46.1697	0.35	INK	3	Incongruent	żółty	yellow	niebieski	blue	hit	n/a
46.488	n/a	RESPONSE	n/a	n/a	n/a	n/a	n/a	n/a	n/a	blue
46.5197	1.0167	ITI	n/a	n/a	n/a	n/a	n/a	n/a	n/a	n/a
47.5364	0.5166	FIXCROSS	n/a	n/a	n/a	n/a	n/a	n/a	n/a	n/a
48.053	0.45	INK	4	Incongruent	czerwony	red	niebieski	blue	hit	n/a
48.4835	n/a	RESPONSE	n/a	n/a	n/a	n/a	n/a	n/a	n/a	blue
48.503	1.0167	ITI	n/a	n/a	n/a	n/a	n/a	n/a	n/a	n/a
49.5197	0.5166	FIXCROSS	n/a	n/a	n/a	n/a	n/a	n/a	n/a	n/a
50.0363	0.4	INK	5	Neutral	xxxxxxx	xxxxxxx	czerwony	red	hit	n/a
50.4151	n/a	RESPONSE	n/a	n/a	n/a	n/a	n/a	n/a	n/a	red
50.4364	1.0167	ITI	n/a	n/a	n/a	n/a	n/a	n/a	n/a	n/a
51.4531	0.5167	FIXCROSS	n/a	n/a	n/a	n/a	n/a	n/a	n/a	n/a
51.9697	0.5	INK	6	Incongruent	żółty	yellow	czerwony	red	incorrect	n/a
52.4427	n/a	RESPONSE	n/a	n/a	n/a	n/a	n/a	n/a	n/a	blue
52.4697	1.0167	ITI	n/a	n/a	n/a	n/a	n/a	n/a	n/a	n/a
52.5225	n/a	RESPONSE	n/a	n/a	n/a	n/a	n/a	n/a	n/a	red
53.4864	0.5166	FIXCROSS	n/a	n/a	n/a	n/a	n/a	n/a	n/a	n/a
54.003	0.5	INK	7	Neutral	xxxxxxxxx	xxxxxxxxx	czerwony	red	hit	n/a
54.4701	n/a	RESPONSE	n/a	n/a	n/a	n/a	n/a	n/a	n/a	red
54.5031	1.0167	ITI	n/a	n/a	n/a	n/a	n/a	n/a	n/a	n/a
55.5198	0.5167	FIXCROSS	n/a	n/a	n/a	n/a	n/a	n/a	n/a	n/a
56.0364	0.4	INK	8	Neutral	xxxxxxxxx	xxxxxxxxx	żółty	yellow	hit	n/a
56.4178	n/a	RESPONSE	n/a	n/a	n/a	n/a	n/a	n/a	n/a	yellow
56.4364	1.0167	ITI	n/a	n/a	n/a	n/a	n/a	n/a	n/a	n/a
57.4531	0.5166	FIXCROSS	n/a	n/a	n/a	n/a	n/a	n/a	n/a	n/a
57.9697	0.6334	INK	9	Incongruent	niebieski	blue	żółty	yellow	hit	n/a
58.5729	n/a	RESPONSE	n/a	n/a	n/a	n/a	n/a	n/a	n/a	yellow
58.6031	1.0167	ITI	n/a	n/a	n/a	n/a	n/a	n/a	n/a	n/a
59.6198	0.5166	FIXCROSS	n/a	n/a	n/a	n/a	n/a	n/a	n/a	n/a
60.1364	0.5834	INK	10	Incongruent	żółty	yellow	niebieski	blue	hit	n/a
60.6962	n/a	RESPONSE	n/a	n/a	n/a	n/a	n/a	n/a	n/a	blue
60.7198	1.0167	ITI	n/a	n/a	n/a	n/a	n/a	n/a	n/a	n/a
61.7365	0.5167	FIXCROSS	n/a	n/a	n/a	n/a	n/a	n/a	n/a	n/a
62.2531	0.5167	INK	11	Neutral	xxxxxxxxx	xxxxxxxxx	żółty	yellow	incorrect	n/a
62.7396	n/a	RESPONSE	n/a	n/a	n/a	n/a	n/a	n/a	n/a	green
62.7698	1.0167	ITI	n/a	n/a	n/a	n/a	n/a	n/a	n/a	n/a
63.7865	0.5167	FIXCROSS	n/a	n/a	n/a	n/a	n/a	n/a	n/a	n/a
64.3031	0.4833	INK	12	Incongruent	niebieski	blue	zielony	green	hit	n/a
64.7671	n/a	RESPONSE	n/a	n/a	n/a	n/a	n/a	n/a	n/a	green
64.7865	1.0167	ITI	n/a	n/a	n/a	n/a	n/a	n/a	n/a	n/a
65.8032	0.5167	FIXCROSS	n/a	n/a	n/a	n/a	n/a	n/a	n/a	n/a
66.3198	0.5	INK	13	Incongruent	niebieski	blue	czerwony	red	hit	n/a
66.7945	n/a	RESPONSE	n/a	n/a	n/a	n/a	n/a	n/a	n/a	red
66.8198	1.0167	ITI	n/a	n/a	n/a	n/a	n/a	n/a	n/a	n/a
67.8365	0.5167	FIXCROSS	n/a	n/a	n/a	n/a	n/a	n/a	n/a	n/a
68.3532	0.6	INK	14	Neutral	xxxxxxxx	xxxxxxxx	niebieski	blue	hit	n/a
68.9338	n/a	RESPONSE	n/a	n/a	n/a	n/a	n/a	n/a	n/a	blue
68.9532	1.0167	ITI	n/a	n/a	n/a	n/a	n/a	n/a	n/a	n/a
69.9699	0.5167	FIXCROSS	n/a	n/a	n/a	n/a	n/a	n/a	n/a	n/a
70.4865	0.5167	INK	15	Neutral	xxxxxxxxx	xxxxxxxxx	czerwony	red	hit	n/a
70.9773	n/a	RESPONSE	n/a	n/a	n/a	n/a	n/a	n/a	n/a	red
71.0032	1.0167	ITI	n/a	n/a	n/a	n/a	n/a	n/a	n/a	n/a
72.0199	0.5167	FIXCROSS	n/a	n/a	n/a	n/a	n/a	n/a	n/a	n/a
72.5365	0.55	INK	16	Incongruent	żółty	yellow	niebieski	blue	hit	n/a
73.0686	n/a	RESPONSE	n/a	n/a	n/a	n/a	n/a	n/a	n/a	blue
73.0865	1.0166	ITI	n/a	n/a	n/a	n/a	n/a	n/a	n/a	n/a
74.1032	0.5167	FIXCROSS	n/a	n/a	n/a	n/a	n/a	n/a	n/a	n/a
74.6199	0.4333	INK	17	Incongruent	żółty	yellow	zielony	green	hit	n/a
75.0322	n/a	RESPONSE	n/a	n/a	n/a	n/a	n/a	n/a	n/a	green
75.0532	1.0166	ITI	n/a	n/a	n/a	n/a	n/a	n/a	n/a	n/a
76.0699	0.5167	FIXCROSS	n/a	n/a	n/a	n/a	n/a	n/a	n/a	n/a
76.5866	0.35	INK	18	Incongruent	niebieski	blue	żółty	yellow	hit	n/a
76.9159	n/a	RESPONSE	n/a	n/a	n/a	n/a	n/a	n/a	n/a	yellow
76.9365	1.0167	ITI	n/a	n/a	n/a	n/a	n/a	n/a	n/a	n/a
77.9533	0.5167	FIXCROSS	n/a	n/a	n/a	n/a	n/a	n/a	n/a	n/a
78.4699	0.4667	INK	19	Incongruent	czerwony	red	niebieski	blue	hit	n/a
78.9114	n/a	RESPONSE	n/a	n/a	n/a	n/a	n/a	n/a	n/a	blue
78.9366	1.0166	ITI	n/a	n/a	n/a	n/a	n/a	n/a	n/a	n/a
79.9532	0.5167	FIXCROSS	n/a	n/a	n/a	n/a	n/a	n/a	n/a	n/a
80.4699	0.4333	INK	20	Incongruent	niebieski	blue	zielony	green	hit	n/a
80.8751	n/a	RESPONSE	n/a	n/a	n/a	n/a	n/a	n/a	n/a	green
80.9033	1.0167	ITI	n/a	n/a	n/a	n/a	n/a	n/a	n/a	n/a
81.92	0.5167	FIXCROSS	n/a	n/a	n/a	n/a	n/a	n/a	n/a	n/a
82.4366	0.4333	INK	21	Incongruent	żółty	yellow	czerwony	red	hit	n/a
82.8386	n/a	RESPONSE	n/a	n/a	n/a	n/a	n/a	n/a	n/a	red
82.87	1.0167	ITI	n/a	n/a	n/a	n/a	n/a	n/a	n/a	n/a
83.8866	0.5167	FIXCROSS	n/a	n/a	n/a	n/a	n/a	n/a	n/a	n/a
84.4033	0.6333	INK	22	Neutral	xxxxxxxx	xxxxxxxx	zielony	green	hit	n/a
85.0098	n/a	RESPONSE	n/a	n/a	n/a	n/a	n/a	n/a	n/a	green
85.0366	1.0167	ITI	n/a	n/a	n/a	n/a	n/a	n/a	n/a	n/a
86.0533	0.5167	FIXCROSS	n/a	n/a	n/a	n/a	n/a	n/a	n/a	n/a
86.57	0.45	INK	23	Incongruent	czerwony	red	żółty	yellow	hit	n/a
86.9893	n/a	RESPONSE	n/a	n/a	n/a	n/a	n/a	n/a	n/a	yellow
87.02	1.0167	ITI	n/a	n/a	n/a	n/a	n/a	n/a	n/a	n/a
88.0367	0.5166	FIXCROSS	n/a	n/a	n/a	n/a	n/a	n/a	n/a	n/a
88.5533	0.5	INK	24	Incongruent	żółty	yellow	zielony	green	hit	n/a
89.0328	n/a	RESPONSE	n/a	n/a	n/a	n/a	n/a	n/a	n/a	green
89.0533	1.0167	ITI	n/a	n/a	n/a	n/a	n/a	n/a	n/a	n/a
90.07	0.5167	FIXCROSS	n/a	n/a	n/a	n/a	n/a	n/a	n/a	n/a
90.5867	0.4833	INK	25	Neutral	xxxxxxx	xxxxxxx	żółty	yellow	hit	n/a
91.0443	n/a	RESPONSE	n/a	n/a	n/a	n/a	n/a	n/a	n/a	yellow
91.07	1.0167	ITI	n/a	n/a	n/a	n/a	n/a	n/a	n/a	n/a
92.0867	0.5167	FIXCROSS	n/a	n/a	n/a	n/a	n/a	n/a	n/a	n/a
92.6034	0.55	INK	26	Neutral	xxxxxxxxx	xxxxxxxxx	zielony	green	hit	n/a
93.1356	n/a	RESPONSE	n/a	n/a	n/a	n/a	n/a	n/a	n/a	green
93.1534	1.0167	ITI	n/a	n/a	n/a	n/a	n/a	n/a	n/a	n/a
94.17	0.5167	FIXCROSS	n/a	n/a	n/a	n/a	n/a	n/a	n/a	n/a
94.6867	0.3666	INK	27	Neutral	xxxxxxx	xxxxxxx	niebieski	blue	hit	n/a
95.0353	n/a	RESPONSE	n/a	n/a	n/a	n/a	n/a	n/a	n/a	blue
95.0533	1.0167	ITI	n/a	n/a	n/a	n/a	n/a	n/a	n/a	n/a
96.07	0.5167	FIXCROSS	n/a	n/a	n/a	n/a	n/a	n/a	n/a	n/a
96.5867	0.4666	INK	28	Incongruent	czerwony	red	żółty	yellow	hit	n/a
97.031	n/a	RESPONSE	n/a	n/a	n/a	n/a	n/a	n/a	n/a	yellow
97.0534	1.0167	ITI	n/a	n/a	n/a	n/a	n/a	n/a	n/a	n/a
98.0701	0.5167	FIXCROSS	n/a	n/a	n/a	n/a	n/a	n/a	n/a	n/a
98.5867	0.6	INK	29	Incongruent	zielony	green	czerwony	red	hit	n/a
99.1542	n/a	RESPONSE	n/a	n/a	n/a	n/a	n/a	n/a	n/a	red
99.1867	1.0166	ITI	n/a	n/a	n/a	n/a	n/a	n/a	n/a	n/a
100.2034	0.5167	FIXCROSS	n/a	n/a	n/a	n/a	n/a	n/a	n/a	n/a
100.7201	0.7833	INK	30	Incongruent	niebieski	blue	czerwony	red	hit	n/a
101.4849	n/a	RESPONSE	n/a	n/a	n/a	n/a	n/a	n/a	n/a	red
101.5034	1.0167	ITI	n/a	n/a	n/a	n/a	n/a	n/a	n/a	n/a
102.5201	0.5167	FIXCROSS	n/a	n/a	n/a	n/a	n/a	n/a	n/a	n/a
103.0368	0.3667	INK	31	Neutral	xxxxxxxx	xxxxxxxx	żółty	yellow	hit	n/a
103.3846	n/a	RESPONSE	n/a	n/a	n/a	n/a	n/a	n/a	n/a	yellow
103.4034	1.0167	ITI	n/a	n/a	n/a	n/a	n/a	n/a	n/a	n/a
104.4201	0.5167	FIXCROSS	n/a	n/a	n/a	n/a	n/a	n/a	n/a	n/a
104.9368	0.3833	INK	32	Neutral	xxxxxxxx	xxxxxxxx	zielony	green	hit	n/a
105.3005	n/a	RESPONSE	n/a	n/a	n/a	n/a	n/a	n/a	n/a	green
105.3201	1.0167	ITI	n/a	n/a	n/a	n/a	n/a	n/a	n/a	n/a
106.3368	0.5167	FIXCROSS	n/a	n/a	n/a	n/a	n/a	n/a	n/a	n/a
106.8535	0.4	INK	33	Neutral	xxxxx	xxxxx	czerwony	red	incorrect	n/a
107.2321	n/a	RESPONSE	n/a	n/a	n/a	n/a	n/a	n/a	n/a	yellow
107.2535	1.0167	ITI	n/a	n/a	n/a	n/a	n/a	n/a	n/a	n/a
108.2701	0.5167	FIXCROSS	n/a	n/a	n/a	n/a	n/a	n/a	n/a	n/a
108.7868	0.4667	INK	34	Neutral	xxxxxxx	xxxxxxx	żółty	yellow	hit	n/a
109.2277	n/a	RESPONSE	n/a	n/a	n/a	n/a	n/a	n/a	n/a	yellow
109.2535	1.0167	ITI	n/a	n/a	n/a	n/a	n/a	n/a	n/a	n/a
110.2701	0.5167	FIXCROSS	n/a	n/a	n/a	n/a	n/a	n/a	n/a	n/a
110.7868	0.4833	INK	35	Neutral	xxxxx	xxxxx	zielony	green	hit	n/a
111.2392	n/a	RESPONSE	n/a	n/a	n/a	n/a	n/a	n/a	n/a	green
111.2702	1.0166	ITI	n/a	n/a	n/a	n/a	n/a	n/a	n/a	n/a
112.2868	0.5167	FIXCROSS	n/a	n/a	n/a	n/a	n/a	n/a	n/a	n/a
112.8035	0.5334	INK	36	Neutral	xxxxxxxxx	xxxxxxxxx	zielony	green	hit	n/a
113.3145	n/a	RESPONSE	n/a	n/a	n/a	n/a	n/a	n/a	n/a	green
113.3368	1.0167	ITI	n/a	n/a	n/a	n/a	n/a	n/a	n/a	n/a
114.3535	0.5167	FIXCROSS	n/a	n/a	n/a	n/a	n/a	n/a	n/a	n/a
114.8702	0.5	INK	37	Incongruent	zielony	green	czerwony	red	hit	n/a
115.342	n/a	RESPONSE	n/a	n/a	n/a	n/a	n/a	n/a	n/a	red
115.3702	1.0167	ITI	n/a	n/a	n/a	n/a	n/a	n/a	n/a	n/a
116.3868	0.5167	FIXCROSS	n/a	n/a	n/a	n/a	n/a	n/a	n/a	n/a
116.9035	0.8334	INK	38	Incongruent	czerwony	red	zielony	green	hit	n/a
117.7047	n/a	RESPONSE	n/a	n/a	n/a	n/a	n/a	n/a	n/a	green
117.7369	1.0166	ITI	n/a	n/a	n/a	n/a	n/a	n/a	n/a	n/a
118.7535	0.5167	FIXCROSS	n/a	n/a	n/a	n/a	n/a	n/a	n/a	n/a
119.2702	0.4	INK	39	Incongruent	czerwony	red	zielony	green	hit	n/a
119.6524	n/a	RESPONSE	n/a	n/a	n/a	n/a	n/a	n/a	n/a	green
119.6702	1.0167	ITI	n/a	n/a	n/a	n/a	n/a	n/a	n/a	n/a
120.6869	0.5166	FIXCROSS	n/a	n/a	n/a	n/a	n/a	n/a	n/a	n/a
121.2035	0.6167	INK	40	Neutral	xxxxxxx	xxxxxxx	niebieski	blue	hit	n/a
121.7917	n/a	RESPONSE	n/a	n/a	n/a	n/a	n/a	n/a	n/a	blue
121.8202	1.0167	ITI	n/a	n/a	n/a	n/a	n/a	n/a	n/a	n/a
122.8369	0.5167	FIXCROSS	n/a	n/a	n/a	n/a	n/a	n/a	n/a	n/a
123.3536	0.5167	INK	41	Incongruent	niebieski	blue	żółty	yellow	hit	n/a
123.851	n/a	RESPONSE	n/a	n/a	n/a	n/a	n/a	n/a	n/a	yellow
123.8703	1.0167	ITI	n/a	n/a	n/a	n/a	n/a	n/a	n/a	n/a
124.8869	0.5166	FIXCROSS	n/a	n/a	n/a	n/a	n/a	n/a	n/a	n/a
125.4036	0.4	INK	42	Neutral	xxxxx	xxxxx	zielony	green	hit	n/a
125.7827	n/a	RESPONSE	n/a	n/a	n/a	n/a	n/a	n/a	n/a	green
125.8036	1.0167	ITI	n/a	n/a	n/a	n/a	n/a	n/a	n/a	n/a
126.8203	0.5167	FIXCROSS	n/a	n/a	n/a	n/a	n/a	n/a	n/a	n/a
127.3369	0.4667	INK	43	Incongruent	zielony	green	niebieski	blue	hit	n/a
127.7783	n/a	RESPONSE	n/a	n/a	n/a	n/a	n/a	n/a	n/a	blue
127.8036	1.0167	ITI	n/a	n/a	n/a	n/a	n/a	n/a	n/a	n/a
128.8203	0.5167	FIXCROSS	n/a	n/a	n/a	n/a	n/a	n/a	n/a	n/a
129.337	0.5	INK	44	Incongruent	żółty	yellow	czerwony	red	hit	n/a
129.8058	n/a	RESPONSE	n/a	n/a	n/a	n/a	n/a	n/a	n/a	red
129.837	1.0167	ITI	n/a	n/a	n/a	n/a	n/a	n/a	n/a	n/a
130.8536	0.5167	FIXCROSS	n/a	n/a	n/a	n/a	n/a	n/a	n/a	n/a
131.3703	0.4	INK	45	Neutral	xxxxxxxxx	xxxxxxxxx	czerwony	red	hit	n/a
131.7374	n/a	RESPONSE	n/a	n/a	n/a	n/a	n/a	n/a	n/a	red
131.7703	1.0167	ITI	n/a	n/a	n/a	n/a	n/a	n/a	n/a	n/a
132.787	0.5167	FIXCROSS	n/a	n/a	n/a	n/a	n/a	n/a	n/a	n/a
133.3037	0.5	INK	46	Incongruent	czerwony	red	niebieski	blue	hit	n/a
133.7809	n/a	RESPONSE	n/a	n/a	n/a	n/a	n/a	n/a	n/a	blue
133.8036	1.0167	ITI	n/a	n/a	n/a	n/a	n/a	n/a	n/a	n/a
134.8203	0.5166	FIXCROSS	n/a	n/a	n/a	n/a	n/a	n/a	n/a	n/a
135.337	0.55	INK	47	Neutral	xxxxxxxx	xxxxxxxx	żółty	yellow	hit	n/a
135.8563	n/a	RESPONSE	n/a	n/a	n/a	n/a	n/a	n/a	n/a	yellow
135.887	1.0167	ITI	n/a	n/a	n/a	n/a	n/a	n/a	n/a	n/a
136.9037	0.5167	FIXCROSS	n/a	n/a	n/a	n/a	n/a	n/a	n/a	n/a
137.4204	0.4667	INK	48	Neutral	xxxxx	xxxxx	niebieski	blue	hit	n/a
137.8677	n/a	RESPONSE	n/a	n/a	n/a	n/a	n/a	n/a	n/a	blue
137.887	1.0167	ITI	n/a	n/a	n/a	n/a	n/a	n/a	n/a	n/a
138.9037	0.5167	FIXCROSS	n/a	n/a	n/a	n/a	n/a	n/a	n/a	n/a
139.4204	0.3833	INK	49	Neutral	xxxxxxx	xxxxxxx	niebieski	blue	hit	n/a
139.7834	n/a	RESPONSE	n/a	n/a	n/a	n/a	n/a	n/a	n/a	blue
139.8037	1.0167	ITI	n/a	n/a	n/a	n/a	n/a	n/a	n/a	n/a
140.8204	0.5167	FIXCROSS	n/a	n/a	n/a	n/a	n/a	n/a	n/a	n/a
141.337	0.5666	INK	50	Incongruent	zielony	green	żółty	yellow	hit	n/a
141.8748	n/a	RESPONSE	n/a	n/a	n/a	n/a	n/a	n/a	n/a	yellow
141.9037	1.0167	ITI	n/a	n/a	n/a	n/a	n/a	n/a	n/a	n/a
142.9204	0.5167	FIXCROSS	n/a	n/a	n/a	n/a	n/a	n/a	n/a	n/a
143.4371	0.4667	INK	51	Incongruent	zielony	green	żółty	yellow	incorrect	n/a
143.8864	n/a	RESPONSE	n/a	n/a	n/a	n/a	n/a	n/a	n/a	blue
143.9037	1.0167	ITI	n/a	n/a	n/a	n/a	n/a	n/a	n/a	n/a
144.9204	0.5167	FIXCROSS	n/a	n/a	n/a	n/a	n/a	n/a	n/a	n/a
145.4371	0.55	INK	52	Incongruent	niebieski	blue	zielony	green	hit	n/a
145.9618	n/a	RESPONSE	n/a	n/a	n/a	n/a	n/a	n/a	n/a	green
145.9871	1.0166	ITI	n/a	n/a	n/a	n/a	n/a	n/a	n/a	n/a
147.0037	0.5167	FIXCROSS	n/a	n/a	n/a	n/a	n/a	n/a	n/a	n/a
147.5204	0.55	INK	53	Neutral	xxxxx	xxxxx	niebieski	blue	hit	n/a
148.0529	n/a	RESPONSE	n/a	n/a	n/a	n/a	n/a	n/a	n/a	blue
148.0704	1.0167	ITI	n/a	n/a	n/a	n/a	n/a	n/a	n/a	n/a
149.0871	0.5167	FIXCROSS	n/a	n/a	n/a	n/a	n/a	n/a	n/a	n/a
149.6038	0.65	INK	54	Neutral	xxxxxxxxx	xxxxxxxxx	zielony	green	hit	n/a
150.2242	n/a	RESPONSE	n/a	n/a	n/a	n/a	n/a	n/a	n/a	green
150.2537	1.0167	ITI	n/a	n/a	n/a	n/a	n/a	n/a	n/a	n/a
151.2704	0.5167	FIXCROSS	n/a	n/a	n/a	n/a	n/a	n/a	n/a	n/a
151.7871	0.6667	INK	55	Neutral	xxxxx	xxxxx	czerwony	red	hit	n/a
152.4273	n/a	RESPONSE	n/a	n/a	n/a	n/a	n/a	n/a	n/a	red
152.4538	1.0167	ITI	n/a	n/a	n/a	n/a	n/a	n/a	n/a	n/a
153.4705	0.5167	FIXCROSS	n/a	n/a	n/a	n/a	n/a	n/a	n/a	n/a
153.9871	0.3667	INK	56	Neutral	xxxxx	xxxxx	niebieski	blue	hit	n/a
154.327	n/a	RESPONSE	n/a	n/a	n/a	n/a	n/a	n/a	n/a	blue
154.3538	1.0167	ITI	n/a	n/a	n/a	n/a	n/a	n/a	n/a	n/a
155.3705	0.5166	FIXCROSS	n/a	n/a	n/a	n/a	n/a	n/a	n/a	n/a
155.8871	0.6667	INK	57	Neutral	xxxxxxxx	xxxxxxxx	niebieski	blue	hit	n/a
156.5301	n/a	RESPONSE	n/a	n/a	n/a	n/a	n/a	n/a	n/a	blue
156.5538	1.0167	ITI	n/a	n/a	n/a	n/a	n/a	n/a	n/a	n/a
157.5705	0.5167	FIXCROSS	n/a	n/a	n/a	n/a	n/a	n/a	n/a	n/a
158.0872	0.5167	INK	58	Incongruent	zielony	green	niebieski	blue	hit	n/a
158.5736	n/a	RESPONSE	n/a	n/a	n/a	n/a	n/a	n/a	n/a	blue
158.6038	1.0167	ITI	n/a	n/a	n/a	n/a	n/a	n/a	n/a	n/a
159.6205	0.5167	FIXCROSS	n/a	n/a	n/a	n/a	n/a	n/a	n/a	n/a
160.1372	0.4833	INK	59	Neutral	xxxxxxxx	xxxxxxxx	żółty	yellow	hit	n/a
160.6009	n/a	RESPONSE	n/a	n/a	n/a	n/a	n/a	n/a	n/a	yellow
160.6205	1.0167	ITI	n/a	n/a	n/a	n/a	n/a	n/a	n/a	n/a
161.6372	0.5167	FIXCROSS	n/a	n/a	n/a	n/a	n/a	n/a	n/a	n/a
162.1538	0.5167	INK	60	Neutral	xxxxxxx	xxxxxxx	czerwony	red	hit	n/a
162.6444	n/a	RESPONSE	n/a	n/a	n/a	n/a	n/a	n/a	n/a	red
162.6705	1.0167	ITI	n/a	n/a	n/a	n/a	n/a	n/a	n/a	n/a
163.6872	0.5167	FIXCROSS	n/a	n/a	n/a	n/a	n/a	n/a	n/a	n/a
164.2039	0.4667	INK	61	Incongruent	niebieski	blue	czerwony	red	hit	n/a
164.64	n/a	RESPONSE	n/a	n/a	n/a	n/a	n/a	n/a	n/a	red
164.6706	1.0167	ITI	n/a	n/a	n/a	n/a	n/a	n/a	n/a	n/a
165.6872	0.5166	FIXCROSS	n/a	n/a	n/a	n/a	n/a	n/a	n/a	n/a
166.2039	0.45	INK	62	Incongruent	czerwony	red	żółty	yellow	incorrect	n/a
166.6196	n/a	RESPONSE	n/a	n/a	n/a	n/a	n/a	n/a	n/a	green
166.6539	1.0167	ITI	n/a	n/a	n/a	n/a	n/a	n/a	n/a	n/a
167.6706	0.5167	FIXCROSS	n/a	n/a	n/a	n/a	n/a	n/a	n/a	n/a
168.1872	0.5833	INK	63	Neutral	xxxxxxx	xxxxxxx	czerwony	red	hit	n/a
168.7429	n/a	RESPONSE	n/a	n/a	n/a	n/a	n/a	n/a	n/a	red
168.7705	1.0167	ITI	n/a	n/a	n/a	n/a	n/a	n/a	n/a	n/a
169.7872	0.5166	FIXCROSS	n/a	n/a	n/a	n/a	n/a	n/a	n/a	n/a
170.3039	0.5667	INK	64	Incongruent	zielony	green	czerwony	red	hit	n/a
170.8502	n/a	RESPONSE	n/a	n/a	n/a	n/a	n/a	n/a	n/a	red
170.8706	1.0167	ITI	n/a	n/a	n/a	n/a	n/a	n/a	n/a	n/a
171.8872	0.5167	FIXCROSS	n/a	n/a	n/a	n/a	n/a	n/a	n/a	n/a
172.4039	0.4833	INK	65	Neutral	xxxxxxxxx	xxxxxxxxx	żółty	yellow	hit	n/a
172.8647	n/a	RESPONSE	n/a	n/a	n/a	n/a	n/a	n/a	n/a	yellow
172.8873	1.0167	ITI	n/a	n/a	n/a	n/a	n/a	n/a	n/a	n/a
173.9039	0.5166	FIXCROSS	n/a	n/a	n/a	n/a	n/a	n/a	n/a	n/a
174.4206	0.45	INK	66	Neutral	xxxxxxx	xxxxxxx	żółty	yellow	hit	n/a
174.8413	n/a	RESPONSE	n/a	n/a	n/a	n/a	n/a	n/a	n/a	yellow
174.8706	1.0167	ITI	n/a	n/a	n/a	n/a	n/a	n/a	n/a	n/a
175.8873	0.5167	FIXCROSS	n/a	n/a	n/a	n/a	n/a	n/a	n/a	n/a
176.404	0.45	INK	67	Neutral	xxxxxxxx	xxxxxxxx	niebieski	blue	hit	n/a
176.8367	n/a	RESPONSE	n/a	n/a	n/a	n/a	n/a	n/a	n/a	blue
176.854	1.0167	ITI	n/a	n/a	n/a	n/a	n/a	n/a	n/a	n/a
177.8706	0.5167	FIXCROSS	n/a	n/a	n/a	n/a	n/a	n/a	n/a	n/a
178.3873	0.4166	INK	68	Neutral	xxxxxxxx	xxxxxxxx	zielony	green	incorrect	n/a
178.7845	n/a	RESPONSE	n/a	n/a	n/a	n/a	n/a	n/a	n/a	yellow
178.804	1.0167	ITI	n/a	n/a	n/a	n/a	n/a	n/a	n/a	n/a
179.8206	0.5167	FIXCROSS	n/a	n/a	n/a	n/a	n/a	n/a	n/a	n/a
180.3373	0.5834	INK	69	Incongruent	zielony	green	żółty	yellow	hit	n/a
180.8917	n/a	RESPONSE	n/a	n/a	n/a	n/a	n/a	n/a	n/a	yellow
180.9207	1.0167	ITI	n/a	n/a	n/a	n/a	n/a	n/a	n/a	n/a
181.9373	0.5167	FIXCROSS	n/a	n/a	n/a	n/a	n/a	n/a	n/a	n/a
182.454	0.4333	INK	70	Incongruent	żółty	yellow	zielony	green	hit	n/a
182.8553	n/a	RESPONSE	n/a	n/a	n/a	n/a	n/a	n/a	n/a	green
182.8873	1.0166	ITI	n/a	n/a	n/a	n/a	n/a	n/a	n/a	n/a
183.904	0.5167	FIXCROSS	n/a	n/a	n/a	n/a	n/a	n/a	n/a	n/a
184.4207	0.5334	INK	71	Incongruent	zielony	green	niebieski	blue	hit	n/a
184.9306	n/a	RESPONSE	n/a	n/a	n/a	n/a	n/a	n/a	n/a	blue
184.954	1.0167	ITI	n/a	n/a	n/a	n/a	n/a	n/a	n/a	n/a
185.9707	0.5167	FIXCROSS	n/a	n/a	n/a	n/a	n/a	n/a	n/a	n/a
186.4874	0.5833	INK	72	Neutral	xxxxx	xxxxx	zielony	green	hit	n/a
187.038	n/a	RESPONSE	n/a	n/a	n/a	n/a	n/a	n/a	n/a	green
187.0707	1.0833	ITI	n/a	n/a	n/a	n/a	n/a	n/a	n/a	n/a
221.1857	n/a	RESPONSE	n/a	n/a	n/a	n/a	n/a	n/a	n/a	n/a
221.2543	1.0167	ITI	n/a	n/a	n/a	n/a	n/a	n/a	n/a	n/a
222.271	0.5166	FIXCROSS	n/a	n/a	n/a	n/a	n/a	n/a	n/a	n/a
222.7876	0.6834	T_COLOR_NAME	1	Incongruent	żółty	yellow	niebieski	blue	hit	n/a
223.4367	n/a	RESPONSE	n/a	n/a	n/a	n/a	n/a	n/a	n/a	yellow
223.471	0.5167	FEEDBACK	n/a	n/a	n/a	n/a	n/a	n/a	n/a	n/a
223.9876	1.0167	ITI	n/a	n/a	n/a	n/a	n/a	n/a	n/a	n/a
225.0043	0.5167	FIXCROSS	n/a	n/a	n/a	n/a	n/a	n/a	n/a	n/a
225.521	0.6	T_COLOR_NAME	2	Neutral	żółty	yellow	Neutral	Neutral	hit	n/a
226.0868	n/a	RESPONSE	n/a	n/a	n/a	n/a	n/a	n/a	n/a	yellow
226.121	0.5166	FEEDBACK	n/a	n/a	n/a	n/a	n/a	n/a	n/a	n/a
226.6376	1.0167	ITI	n/a	n/a	n/a	n/a	n/a	n/a	n/a	n/a
227.6543	0.5167	FIXCROSS	n/a	n/a	n/a	n/a	n/a	n/a	n/a	n/a
228.171	0.6334	T_COLOR_NAME	3	Neutral	czerwony	red	Neutral	Neutral	hit	n/a
228.7847	n/a	RESPONSE	n/a	n/a	n/a	n/a	n/a	n/a	n/a	red
228.8043	0.5167	FEEDBACK	n/a	n/a	n/a	n/a	n/a	n/a	n/a	n/a
229.321	1.0167	ITI	n/a	n/a	n/a	n/a	n/a	n/a	n/a	n/a
230.3377	0.5166	FIXCROSS	n/a	n/a	n/a	n/a	n/a	n/a	n/a	n/a
230.8543	0.7	T_COLOR_NAME	4	Incongruent	niebieski	blue	zielony	green	hit	n/a
231.5306	n/a	RESPONSE	n/a	n/a	n/a	n/a	n/a	n/a	n/a	blue
231.5544	0.5166	FEEDBACK	n/a	n/a	n/a	n/a	n/a	n/a	n/a	n/a
232.071	1.0167	ITI	n/a	n/a	n/a	n/a	n/a	n/a	n/a	n/a
233.0877	0.5166	FIXCROSS	n/a	n/a	n/a	n/a	n/a	n/a	n/a	n/a
233.6043	0.5334	T_COLOR_NAME	5	Incongruent	zielony	green	żółty	yellow	hit	n/a
234.1168	n/a	RESPONSE	n/a	n/a	n/a	n/a	n/a	n/a	n/a	green
234.1377	0.5166	FEEDBACK	n/a	n/a	n/a	n/a	n/a	n/a	n/a	n/a
234.6544	1.0167	ITI	n/a	n/a	n/a	n/a	n/a	n/a	n/a	n/a
235.6711	0.5167	FIXCROSS	n/a	n/a	n/a	n/a	n/a	n/a	n/a	n/a
236.1877	0.4	T_COLOR_NAME	6	Neutral	żółty	yellow	Neutral	Neutral	hit	n/a
236.5594	n/a	RESPONSE	n/a	n/a	n/a	n/a	n/a	n/a	n/a	yellow
236.5877	0.5167	FEEDBACK	n/a	n/a	n/a	n/a	n/a	n/a	n/a	n/a
237.1044	1.0167	ITI	n/a	n/a	n/a	n/a	n/a	n/a	n/a	n/a
238.1211	0.5167	FIXCROSS	n/a	n/a	n/a	n/a	n/a	n/a	n/a	n/a
238.6377	0.5666	T_COLOR_NAME	7	Neutral	niebieski	blue	Neutral	Neutral	hit	n/a
239.1775	n/a	RESPONSE	n/a	n/a	n/a	n/a	n/a	n/a	n/a	blue
239.2044	0.5167	FEEDBACK	n/a	n/a	n/a	n/a	n/a	n/a	n/a	n/a
239.7211	1.0167	ITI	n/a	n/a	n/a	n/a	n/a	n/a	n/a	n/a
240.7378	0.5167	FIXCROSS	n/a	n/a	n/a	n/a	n/a	n/a	n/a	n/a
241.2544	0.5333	T_COLOR_NAME	8	Incongruent	niebieski	blue	czerwony	red	hit	n/a
241.7637	n/a	RESPONSE	n/a	n/a	n/a	n/a	n/a	n/a	n/a	blue
241.7878	0.5167	FEEDBACK	n/a	n/a	n/a	n/a	n/a	n/a	n/a	n/a
242.3044	1.0167	ITI	n/a	n/a	n/a	n/a	n/a	n/a	n/a	n/a
243.3211	0.5167	FIXCROSS	n/a	n/a	n/a	n/a	n/a	n/a	n/a	n/a
243.8378	0.6833	T_COLOR_NAME	9	Incongruent	czerwony	red	zielony	green	hit	n/a
244.4937	n/a	RESPONSE	n/a	n/a	n/a	n/a	n/a	n/a	n/a	red
244.5211	0.5167	FEEDBACK	n/a	n/a	n/a	n/a	n/a	n/a	n/a	n/a
245.0378	1.0166	ITI	n/a	n/a	n/a	n/a	n/a	n/a	n/a	n/a
246.0544	0.5167	FIXCROSS	n/a	n/a	n/a	n/a	n/a	n/a	n/a	n/a
246.5711	0.4833	T_COLOR_NAME	10	Incongruent	zielony	green	czerwony	red	hit	n/a
247.0319	n/a	RESPONSE	n/a	n/a	n/a	n/a	n/a	n/a	n/a	green
247.0545	0.5166	FEEDBACK	n/a	n/a	n/a	n/a	n/a	n/a	n/a	n/a
247.5711	1.0167	ITI	n/a	n/a	n/a	n/a	n/a	n/a	n/a	n/a
248.5878	0.5167	FIXCROSS	n/a	n/a	n/a	n/a	n/a	n/a	n/a	n/a
249.1045	0.6	T_COLOR_NAME	11	Neutral	czerwony	red	Neutral	Neutral	hit	n/a
249.682	n/a	RESPONSE	n/a	n/a	n/a	n/a	n/a	n/a	n/a	red
249.7045	0.5167	FEEDBACK	n/a	n/a	n/a	n/a	n/a	n/a	n/a	n/a
250.2212	1.0167	ITI	n/a	n/a	n/a	n/a	n/a	n/a	n/a	n/a
251.2378	0.5167	FIXCROSS	n/a	n/a	n/a	n/a	n/a	n/a	n/a	n/a
251.7545	0.5167	T_COLOR_NAME	12	Incongruent	czerwony	red	żółty	yellow	hit	n/a
252.2363	n/a	RESPONSE	n/a	n/a	n/a	n/a	n/a	n/a	n/a	red
252.2712	0.5167	FEEDBACK	n/a	n/a	n/a	n/a	n/a	n/a	n/a	n/a
252.7878	1.0333	ITI	n/a	n/a	n/a	n/a	n/a	n/a	n/a	n/a
255.5569	n/a	RESPONSE	n/a	n/a	n/a	n/a	n/a	n/a	n/a	n/a
255.6212	1.0167	ITI	n/a	n/a	n/a	n/a	n/a	n/a	n/a	n/a
256.6379	0.5167	FIXCROSS	n/a	n/a	n/a	n/a	n/a	n/a	n/a	n/a
257.1546	1.05	COLOR_NAME	1	Incongruent	zielony	green	niebieski	blue	hit	n/a
258.1751	n/a	RESPONSE	n/a	n/a	n/a	n/a	n/a	n/a	n/a	green
258.2046	1.0167	ITI	n/a	n/a	n/a	n/a	n/a	n/a	n/a	n/a
259.2212	0.5167	FIXCROSS	n/a	n/a	n/a	n/a	n/a	n/a	n/a	n/a
259.7379	0.4666	COLOR_NAME	2	Incongruent	zielony	green	niebieski	blue	hit	n/a
260.1706	n/a	RESPONSE	n/a	n/a	n/a	n/a	n/a	n/a	n/a	green
260.2045	1.0167	ITI	n/a	n/a	n/a	n/a	n/a	n/a	n/a	n/a
261.2212	0.5167	FIXCROSS	n/a	n/a	n/a	n/a	n/a	n/a	n/a	n/a
261.7379	0.5666	COLOR_NAME	3	Neutral	żółty	yellow	Neutral	Neutral	hit	n/a
262.278	n/a	RESPONSE	n/a	n/a	n/a	n/a	n/a	n/a	n/a	yellow
262.3046	1.0167	ITI	n/a	n/a	n/a	n/a	n/a	n/a	n/a	n/a
263.3213	0.5167	FIXCROSS	n/a	n/a	n/a	n/a	n/a	n/a	n/a	n/a
263.8379	0.5833	COLOR_NAME	4	Incongruent	czerwony	red	zielony	green	hit	n/a
264.4012	n/a	RESPONSE	n/a	n/a	n/a	n/a	n/a	n/a	n/a	red
264.4213	1.0167	ITI	n/a	n/a	n/a	n/a	n/a	n/a	n/a	n/a
265.438	0.5167	FIXCROSS	n/a	n/a	n/a	n/a	n/a	n/a	n/a	n/a
265.9546	0.6167	COLOR_NAME	5	Incongruent	żółty	yellow	niebieski	blue	hit	n/a
266.5404	n/a	RESPONSE	n/a	n/a	n/a	n/a	n/a	n/a	n/a	yellow
266.5713	1.0167	ITI	n/a	n/a	n/a	n/a	n/a	n/a	n/a	n/a
267.588	0.5166	FIXCROSS	n/a	n/a	n/a	n/a	n/a	n/a	n/a	n/a
268.1046	0.5167	COLOR_NAME	6	Incongruent	czerwony	red	żółty	yellow	hit	n/a
268.5999	n/a	RESPONSE	n/a	n/a	n/a	n/a	n/a	n/a	n/a	red
268.6213	1.0167	ITI	n/a	n/a	n/a	n/a	n/a	n/a	n/a	n/a
269.638	0.5167	FIXCROSS	n/a	n/a	n/a	n/a	n/a	n/a	n/a	n/a
270.1546	0.4167	COLOR_NAME	7	Neutral	niebieski	blue	Neutral	Neutral	hit	n/a
270.5475	n/a	RESPONSE	n/a	n/a	n/a	n/a	n/a	n/a	n/a	blue
270.5713	1.0167	ITI	n/a	n/a	n/a	n/a	n/a	n/a	n/a	n/a
271.588	0.5167	FIXCROSS	n/a	n/a	n/a	n/a	n/a	n/a	n/a	n/a
272.1047	0.6	COLOR_NAME	8	Neutral	żółty	yellow	Neutral	Neutral	hit	n/a
272.6867	n/a	RESPONSE	n/a	n/a	n/a	n/a	n/a	n/a	n/a	yellow
272.7047	1.0167	ITI	n/a	n/a	n/a	n/a	n/a	n/a	n/a	n/a
273.7213	0.5166	FIXCROSS	n/a	n/a	n/a	n/a	n/a	n/a	n/a	n/a
274.238	0.5834	COLOR_NAME	9	Neutral	żółty	yellow	Neutral	Neutral	hit	n/a
274.7941	n/a	RESPONSE	n/a	n/a	n/a	n/a	n/a	n/a	n/a	yellow
274.8214	1.0167	ITI	n/a	n/a	n/a	n/a	n/a	n/a	n/a	n/a
275.838	0.5167	FIXCROSS	n/a	n/a	n/a	n/a	n/a	n/a	n/a	n/a
276.3547	0.3833	COLOR_NAME	10	Neutral	zielony	green	Neutral	Neutral	hit	n/a
276.7098	n/a	RESPONSE	n/a	n/a	n/a	n/a	n/a	n/a	n/a	green
276.738	1.0166	ITI	n/a	n/a	n/a	n/a	n/a	n/a	n/a	n/a
277.7547	0.5167	FIXCROSS	n/a	n/a	n/a	n/a	n/a	n/a	n/a	n/a
278.2714	0.55	COLOR_NAME	11	Neutral	żółty	yellow	Neutral	Neutral	hit	n/a
278.8012	n/a	RESPONSE	n/a	n/a	n/a	n/a	n/a	n/a	n/a	yellow
278.8214	1.0167	ITI	n/a	n/a	n/a	n/a	n/a	n/a	n/a	n/a
279.8381	0.5167	FIXCROSS	n/a	n/a	n/a	n/a	n/a	n/a	n/a	n/a
280.3547	0.5166	COLOR_NAME	12	Incongruent	żółty	yellow	zielony	green	hit	n/a
280.8445	n/a	RESPONSE	n/a	n/a	n/a	n/a	n/a	n/a	n/a	yellow
280.8714	1.0167	ITI	n/a	n/a	n/a	n/a	n/a	n/a	n/a	n/a
281.8881	0.5167	FIXCROSS	n/a	n/a	n/a	n/a	n/a	n/a	n/a	n/a
282.4047	0.55	COLOR_NAME	13	Neutral	zielony	green	Neutral	Neutral	hit	n/a
282.92	n/a	RESPONSE	n/a	n/a	n/a	n/a	n/a	n/a	n/a	green
282.9547	1.0167	ITI	n/a	n/a	n/a	n/a	n/a	n/a	n/a	n/a
283.9714	0.5167	FIXCROSS	n/a	n/a	n/a	n/a	n/a	n/a	n/a	n/a
284.4881	0.4667	COLOR_NAME	14	Neutral	niebieski	blue	Neutral	Neutral	hit	n/a
284.9315	n/a	RESPONSE	n/a	n/a	n/a	n/a	n/a	n/a	n/a	blue
284.9547	1.0166	ITI	n/a	n/a	n/a	n/a	n/a	n/a	n/a	n/a
285.9714	0.5167	FIXCROSS	n/a	n/a	n/a	n/a	n/a	n/a	n/a	n/a
286.4881	0.5167	COLOR_NAME	15	Neutral	zielony	green	Neutral	Neutral	hit	n/a
286.9749	n/a	RESPONSE	n/a	n/a	n/a	n/a	n/a	n/a	n/a	green
287.0048	1.0167	ITI	n/a	n/a	n/a	n/a	n/a	n/a	n/a	n/a
288.0214	0.5167	FIXCROSS	n/a	n/a	n/a	n/a	n/a	n/a	n/a	n/a
288.5381	0.45	COLOR_NAME	16	Neutral	żółty	yellow	Neutral	Neutral	hit	n/a
288.9544	n/a	RESPONSE	n/a	n/a	n/a	n/a	n/a	n/a	n/a	yellow
288.9881	1.0167	ITI	n/a	n/a	n/a	n/a	n/a	n/a	n/a	n/a
290.0048	0.5167	FIXCROSS	n/a	n/a	n/a	n/a	n/a	n/a	n/a	n/a
290.5215	0.5833	COLOR_NAME	17	Neutral	czerwony	red	Neutral	Neutral	hit	n/a
291.0777	n/a	RESPONSE	n/a	n/a	n/a	n/a	n/a	n/a	n/a	red
291.1048	1.0167	ITI	n/a	n/a	n/a	n/a	n/a	n/a	n/a	n/a
292.1215	0.5167	FIXCROSS	n/a	n/a	n/a	n/a	n/a	n/a	n/a	n/a
292.6381	0.7833	COLOR_NAME	18	Incongruent	niebieski	blue	czerwony	red	hit	n/a
293.3925	n/a	RESPONSE	n/a	n/a	n/a	n/a	n/a	n/a	n/a	blue
293.4215	1.0167	ITI	n/a	n/a	n/a	n/a	n/a	n/a	n/a	n/a
294.4382	0.5167	FIXCROSS	n/a	n/a	n/a	n/a	n/a	n/a	n/a	n/a
294.9548	0.4833	COLOR_NAME	19	Incongruent	niebieski	blue	czerwony	red	hit	n/a
295.4039	n/a	RESPONSE	n/a	n/a	n/a	n/a	n/a	n/a	n/a	blue
295.4382	1.0167	ITI	n/a	n/a	n/a	n/a	n/a	n/a	n/a	n/a
296.4548	0.5167	FIXCROSS	n/a	n/a	n/a	n/a	n/a	n/a	n/a	n/a
296.9715	0.5	COLOR_NAME	20	Incongruent	żółty	yellow	zielony	green	hit	n/a
297.4474	n/a	RESPONSE	n/a	n/a	n/a	n/a	n/a	n/a	n/a	yellow
297.4715	1.0166	ITI	n/a	n/a	n/a	n/a	n/a	n/a	n/a	n/a
298.4882	0.5167	FIXCROSS	n/a	n/a	n/a	n/a	n/a	n/a	n/a	n/a
299.0049	0.4666	COLOR_NAME	21	Neutral	żółty	yellow	Neutral	Neutral	hit	n/a
299.443	n/a	RESPONSE	n/a	n/a	n/a	n/a	n/a	n/a	n/a	yellow
299.4715	1.0167	ITI	n/a	n/a	n/a	n/a	n/a	n/a	n/a	n/a
300.4882	0.5166	FIXCROSS	n/a	n/a	n/a	n/a	n/a	n/a	n/a	n/a
301.0048	0.7334	COLOR_NAME	22	Incongruent	żółty	yellow	czerwony	red	hit	n/a
301.7099	n/a	RESPONSE	n/a	n/a	n/a	n/a	n/a	n/a	n/a	yellow
301.7382	1.0167	ITI	n/a	n/a	n/a	n/a	n/a	n/a	n/a	n/a
302.7549	0.5166	FIXCROSS	n/a	n/a	n/a	n/a	n/a	n/a	n/a	n/a
303.2715	0.7334	COLOR_NAME	23	Neutral	zielony	green	Neutral	Neutral	hit	n/a
303.9768	n/a	RESPONSE	n/a	n/a	n/a	n/a	n/a	n/a	n/a	green
304.0049	1.0167	ITI	n/a	n/a	n/a	n/a	n/a	n/a	n/a	n/a
305.0216	0.5167	FIXCROSS	n/a	n/a	n/a	n/a	n/a	n/a	n/a	n/a
305.5382	0.4666	COLOR_NAME	24	Neutral	żółty	yellow	Neutral	Neutral	hit	n/a
305.9723	n/a	RESPONSE	n/a	n/a	n/a	n/a	n/a	n/a	n/a	yellow
306.0049	1.0167	ITI	n/a	n/a	n/a	n/a	n/a	n/a	n/a	n/a
307.0215	0.5167	FIXCROSS	n/a	n/a	n/a	n/a	n/a	n/a	n/a	n/a
307.5382	0.5833	COLOR_NAME	25	Incongruent	czerwony	red	żółty	yellow	hit	n/a
308.0956	n/a	RESPONSE	n/a	n/a	n/a	n/a	n/a	n/a	n/a	red
308.1216	1.0167	ITI	n/a	n/a	n/a	n/a	n/a	n/a	n/a	n/a
309.1383	0.5167	FIXCROSS	n/a	n/a	n/a	n/a	n/a	n/a	n/a	n/a
309.6549	0.55	COLOR_NAME	26	Neutral	żółty	yellow	Neutral	Neutral	hit	n/a
310.187	n/a	RESPONSE	n/a	n/a	n/a	n/a	n/a	n/a	n/a	yellow
310.2049	1.0166	ITI	n/a	n/a	n/a	n/a	n/a	n/a	n/a	n/a
311.2216	0.5167	FIXCROSS	n/a	n/a	n/a	n/a	n/a	n/a	n/a	n/a
311.7383	0.4167	COLOR_NAME	27	Incongruent	żółty	yellow	czerwony	red	incorrect	n/a
312.1346	n/a	RESPONSE	n/a	n/a	n/a	n/a	n/a	n/a	n/a	green
312.1549	1.0167	ITI	n/a	n/a	n/a	n/a	n/a	n/a	n/a	n/a
313.1716	0.5166	FIXCROSS	n/a	n/a	n/a	n/a	n/a	n/a	n/a	n/a
313.6883	0.5667	COLOR_NAME	28	Neutral	czerwony	red	Neutral	Neutral	hit	n/a
314.2259	n/a	RESPONSE	n/a	n/a	n/a	n/a	n/a	n/a	n/a	red
314.255	1.0167	ITI	n/a	n/a	n/a	n/a	n/a	n/a	n/a	n/a
315.2716	0.5166	FIXCROSS	n/a	n/a	n/a	n/a	n/a	n/a	n/a	n/a
315.7883	0.6667	COLOR_NAME	29	Neutral	zielony	green	Neutral	Neutral	hit	n/a
316.4291	n/a	RESPONSE	n/a	n/a	n/a	n/a	n/a	n/a	n/a	green
316.455	1.0167	ITI	n/a	n/a	n/a	n/a	n/a	n/a	n/a	n/a
317.4717	0.5167	FIXCROSS	n/a	n/a	n/a	n/a	n/a	n/a	n/a	n/a
317.9883	0.5333	COLOR_NAME	30	Incongruent	zielony	green	czerwony	red	hit	n/a
318.5044	n/a	RESPONSE	n/a	n/a	n/a	n/a	n/a	n/a	n/a	green
318.5217	1.0167	ITI	n/a	n/a	n/a	n/a	n/a	n/a	n/a	n/a
319.5383	0.5167	FIXCROSS	n/a	n/a	n/a	n/a	n/a	n/a	n/a	n/a
320.055	0.6166	COLOR_NAME	31	Incongruent	niebieski	blue	zielony	green	hit	n/a
320.6437	n/a	RESPONSE	n/a	n/a	n/a	n/a	n/a	n/a	n/a	blue
320.6716	1.0167	ITI	n/a	n/a	n/a	n/a	n/a	n/a	n/a	n/a
321.6883	0.5166	FIXCROSS	n/a	n/a	n/a	n/a	n/a	n/a	n/a	n/a
322.205	0.6834	COLOR_NAME	32	Incongruent	zielony	green	czerwony	red	hit	n/a
322.8628	n/a	RESPONSE	n/a	n/a	n/a	n/a	n/a	n/a	n/a	green
322.8884	1.0167	ITI	n/a	n/a	n/a	n/a	n/a	n/a	n/a	n/a
323.905	0.5167	FIXCROSS	n/a	n/a	n/a	n/a	n/a	n/a	n/a	n/a
324.4217	0.5833	COLOR_NAME	33	Incongruent	żółty	yellow	zielony	green	incorrect	n/a
324.986	n/a	RESPONSE	n/a	n/a	n/a	n/a	n/a	n/a	n/a	green
325.005	1.0167	ITI	n/a	n/a	n/a	n/a	n/a	n/a	n/a	n/a
326.0217	0.5167	FIXCROSS	n/a	n/a	n/a	n/a	n/a	n/a	n/a	n/a
326.5384	0.6167	COLOR_NAME	34	Neutral	czerwony	red	Neutral	Neutral	hit	n/a
327.1252	n/a	RESPONSE	n/a	n/a	n/a	n/a	n/a	n/a	n/a	red
327.1551	1.0167	ITI	n/a	n/a	n/a	n/a	n/a	n/a	n/a	n/a
328.1717	0.5167	FIXCROSS	n/a	n/a	n/a	n/a	n/a	n/a	n/a	n/a
328.6884	0.7833	COLOR_NAME	35	Neutral	zielony	green	Neutral	Neutral	hit	n/a
329.4401	n/a	RESPONSE	n/a	n/a	n/a	n/a	n/a	n/a	n/a	green
329.4717	1.0167	ITI	n/a	n/a	n/a	n/a	n/a	n/a	n/a	n/a
330.4884	0.5167	FIXCROSS	n/a	n/a	n/a	n/a	n/a	n/a	n/a	n/a
331.0051	0.5667	COLOR_NAME	36	Incongruent	zielony	green	niebieski	blue	hit	n/a
331.5474	n/a	RESPONSE	n/a	n/a	n/a	n/a	n/a	n/a	n/a	green
331.5718	1.0166	ITI	n/a	n/a	n/a	n/a	n/a	n/a	n/a	n/a
332.5884	0.5167	FIXCROSS	n/a	n/a	n/a	n/a	n/a	n/a	n/a	n/a
333.1051	0.6	COLOR_NAME	37	Neutral	niebieski	blue	Neutral	Neutral	hit	n/a
333.6865	n/a	RESPONSE	n/a	n/a	n/a	n/a	n/a	n/a	n/a	blue
333.7051	1.0167	ITI	n/a	n/a	n/a	n/a	n/a	n/a	n/a	n/a
334.7218	0.5167	FIXCROSS	n/a	n/a	n/a	n/a	n/a	n/a	n/a	n/a
335.2385	0.5666	COLOR_NAME	38	Neutral	niebieski	blue	Neutral	Neutral	hit	n/a
335.7779	n/a	RESPONSE	n/a	n/a	n/a	n/a	n/a	n/a	n/a	blue
335.8051	1.0167	ITI	n/a	n/a	n/a	n/a	n/a	n/a	n/a	n/a
336.8218	0.5166	FIXCROSS	n/a	n/a	n/a	n/a	n/a	n/a	n/a	n/a
337.3384	0.6167	COLOR_NAME	39	Neutral	czerwony	red	Neutral	Neutral	hit	n/a
337.9331	n/a	RESPONSE	n/a	n/a	n/a	n/a	n/a	n/a	n/a	red
337.9551	1.0167	ITI	n/a	n/a	n/a	n/a	n/a	n/a	n/a	n/a
338.9718	0.5167	FIXCROSS	n/a	n/a	n/a	n/a	n/a	n/a	n/a	n/a
339.4884	0.4834	COLOR_NAME	40	Neutral	czerwony	red	Neutral	Neutral	hit	n/a
339.9445	n/a	RESPONSE	n/a	n/a	n/a	n/a	n/a	n/a	n/a	red
339.9718	1.0167	ITI	n/a	n/a	n/a	n/a	n/a	n/a	n/a	n/a
340.9885	0.5167	FIXCROSS	n/a	n/a	n/a	n/a	n/a	n/a	n/a	n/a
341.5052	0.7	COLOR_NAME	41	Incongruent	niebieski	blue	czerwony	red	hit	n/a
342.1795	n/a	RESPONSE	n/a	n/a	n/a	n/a	n/a	n/a	n/a	blue
342.2052	1.0167	ITI	n/a	n/a	n/a	n/a	n/a	n/a	n/a	n/a
343.2218	0.5167	FIXCROSS	n/a	n/a	n/a	n/a	n/a	n/a	n/a	n/a
343.7385	0.65	COLOR_NAME	42	Incongruent	czerwony	red	niebieski	blue	hit	n/a
344.3666	n/a	RESPONSE	n/a	n/a	n/a	n/a	n/a	n/a	n/a	red
344.3885	1.0167	ITI	n/a	n/a	n/a	n/a	n/a	n/a	n/a	n/a
345.4052	0.5167	FIXCROSS	n/a	n/a	n/a	n/a	n/a	n/a	n/a	n/a
345.9219	0.5666	COLOR_NAME	43	Neutral	żółty	yellow	Neutral	Neutral	hit	n/a
346.458	n/a	RESPONSE	n/a	n/a	n/a	n/a	n/a	n/a	n/a	yellow
346.4885	1.0167	ITI	n/a	n/a	n/a	n/a	n/a	n/a	n/a	n/a
347.5052	0.5167	FIXCROSS	n/a	n/a	n/a	n/a	n/a	n/a	n/a	n/a
348.0219	0.55	COLOR_NAME	44	Incongruent	żółty	yellow	czerwony	red	hit	n/a
348.5493	n/a	RESPONSE	n/a	n/a	n/a	n/a	n/a	n/a	n/a	yellow
348.5719	1.0167	ITI	n/a	n/a	n/a	n/a	n/a	n/a	n/a	n/a
349.5885	0.5167	FIXCROSS	n/a	n/a	n/a	n/a	n/a	n/a	n/a	n/a
350.1052	0.6333	COLOR_NAME	45	Neutral	niebieski	blue	Neutral	Neutral	hit	n/a
350.7204	n/a	RESPONSE	n/a	n/a	n/a	n/a	n/a	n/a	n/a	blue
350.7386	1.0167	ITI	n/a	n/a	n/a	n/a	n/a	n/a	n/a	n/a
351.7552	0.5167	FIXCROSS	n/a	n/a	n/a	n/a	n/a	n/a	n/a	n/a
352.2719	0.5667	COLOR_NAME	46	Incongruent	niebieski	blue	zielony	green	hit	n/a
352.8117	n/a	RESPONSE	n/a	n/a	n/a	n/a	n/a	n/a	n/a	blue
352.8386	1.0167	ITI	n/a	n/a	n/a	n/a	n/a	n/a	n/a	n/a
353.8553	0.5166	FIXCROSS	n/a	n/a	n/a	n/a	n/a	n/a	n/a	n/a
354.3719	0.55	COLOR_NAME	47	Incongruent	niebieski	blue	żółty	yellow	hit	n/a
354.9031	n/a	RESPONSE	n/a	n/a	n/a	n/a	n/a	n/a	n/a	blue
354.9219	1.0167	ITI	n/a	n/a	n/a	n/a	n/a	n/a	n/a	n/a
355.9386	0.5167	FIXCROSS	n/a	n/a	n/a	n/a	n/a	n/a	n/a	n/a
356.4553	0.6167	COLOR_NAME	48	Neutral	zielony	green	Neutral	Neutral	hit	n/a
357.0423	n/a	RESPONSE	n/a	n/a	n/a	n/a	n/a	n/a	n/a	green
357.0719	1.0167	ITI	n/a	n/a	n/a	n/a	n/a	n/a	n/a	n/a
358.0886	0.5166	FIXCROSS	n/a	n/a	n/a	n/a	n/a	n/a	n/a	n/a
358.6052	0.5334	COLOR_NAME	49	Incongruent	zielony	green	żółty	yellow	hit	n/a
359.1177	n/a	RESPONSE	n/a	n/a	n/a	n/a	n/a	n/a	n/a	green
359.1386	1.0167	ITI	n/a	n/a	n/a	n/a	n/a	n/a	n/a	n/a
360.1553	0.5167	FIXCROSS	n/a	n/a	n/a	n/a	n/a	n/a	n/a	n/a
360.672	0.5333	COLOR_NAME	50	Incongruent	niebieski	blue	zielony	green	incorrect	n/a
361.1771	n/a	RESPONSE	n/a	n/a	n/a	n/a	n/a	n/a	n/a	green
361.2053	1.0167	ITI	n/a	n/a	n/a	n/a	n/a	n/a	n/a	n/a
362.222	0.5167	FIXCROSS	n/a	n/a	n/a	n/a	n/a	n/a	n/a	n/a
362.7386	0.7333	COLOR_NAME	51	Incongruent	czerwony	red	zielony	green	hit	n/a
363.444	n/a	RESPONSE	n/a	n/a	n/a	n/a	n/a	n/a	n/a	red
363.472	1.0166	ITI	n/a	n/a	n/a	n/a	n/a	n/a	n/a	n/a
364.4886	0.5167	FIXCROSS	n/a	n/a	n/a	n/a	n/a	n/a	n/a	n/a
365.0053	0.5167	COLOR_NAME	52	Neutral	czerwony	red	Neutral	Neutral	hit	n/a
365.5035	n/a	RESPONSE	n/a	n/a	n/a	n/a	n/a	n/a	n/a	red
365.522	1.0167	ITI	n/a	n/a	n/a	n/a	n/a	n/a	n/a	n/a
366.5387	0.5167	FIXCROSS	n/a	n/a	n/a	n/a	n/a	n/a	n/a	n/a
367.0553	0.6833	COLOR_NAME	53	Incongruent	zielony	green	żółty	yellow	incorrect	n/a
367.7065	n/a	RESPONSE	n/a	n/a	n/a	n/a	n/a	n/a	n/a	yellow
367.7387	1.0166	ITI	n/a	n/a	n/a	n/a	n/a	n/a	n/a	n/a
368.7553	0.5167	FIXCROSS	n/a	n/a	n/a	n/a	n/a	n/a	n/a	n/a
369.272	0.8667	COLOR_NAME	54	Incongruent	żółty	yellow	niebieski	blue	hit	n/a
370.1172	n/a	RESPONSE	n/a	n/a	n/a	n/a	n/a	n/a	n/a	yellow
370.1387	1.0167	ITI	n/a	n/a	n/a	n/a	n/a	n/a	n/a	n/a
371.1554	0.5167	FIXCROSS	n/a	n/a	n/a	n/a	n/a	n/a	n/a	n/a
371.672	0.6167	COLOR_NAME	55	Neutral	niebieski	blue	Neutral	Neutral	hit	n/a
372.2564	n/a	RESPONSE	n/a	n/a	n/a	n/a	n/a	n/a	n/a	blue
372.2887	1.0167	ITI	n/a	n/a	n/a	n/a	n/a	n/a	n/a	n/a
373.3054	0.5167	FIXCROSS	n/a	n/a	n/a	n/a	n/a	n/a	n/a	n/a
373.8221	0.5667	COLOR_NAME	56	Neutral	niebieski	blue	Neutral	Neutral	hit	n/a
374.3636	n/a	RESPONSE	n/a	n/a	n/a	n/a	n/a	n/a	n/a	blue
374.3887	1.0167	ITI	n/a	n/a	n/a	n/a	n/a	n/a	n/a	n/a
375.4054	0.5166	FIXCROSS	n/a	n/a	n/a	n/a	n/a	n/a	n/a	n/a
375.922	0.5	COLOR_NAME	57	Neutral	czerwony	red	Neutral	Neutral	hit	n/a
376.3911	n/a	RESPONSE	n/a	n/a	n/a	n/a	n/a	n/a	n/a	red
376.4221	1.0167	ITI	n/a	n/a	n/a	n/a	n/a	n/a	n/a	n/a
377.4388	0.5167	FIXCROSS	n/a	n/a	n/a	n/a	n/a	n/a	n/a	n/a
377.9554	0.65	COLOR_NAME	58	Neutral	zielony	green	Neutral	Neutral	hit	n/a
378.5782	n/a	RESPONSE	n/a	n/a	n/a	n/a	n/a	n/a	n/a	green
378.6054	1.0167	ITI	n/a	n/a	n/a	n/a	n/a	n/a	n/a	n/a
379.6221	0.5167	FIXCROSS	n/a	n/a	n/a	n/a	n/a	n/a	n/a	n/a
380.1388	0.6166	COLOR_NAME	59	Neutral	niebieski	blue	Neutral	Neutral	hit	n/a
380.7334	n/a	RESPONSE	n/a	n/a	n/a	n/a	n/a	n/a	n/a	blue
380.7554	1.0167	ITI	n/a	n/a	n/a	n/a	n/a	n/a	n/a	n/a
381.7721	0.5167	FIXCROSS	n/a	n/a	n/a	n/a	n/a	n/a	n/a	n/a
382.2888	0.7166	COLOR_NAME	60	Incongruent	zielony	green	żółty	yellow	hit	n/a
382.9844	n/a	RESPONSE	n/a	n/a	n/a	n/a	n/a	n/a	n/a	green
383.0054	1.0167	ITI	n/a	n/a	n/a	n/a	n/a	n/a	n/a	n/a
384.0221	0.5167	FIXCROSS	n/a	n/a	n/a	n/a	n/a	n/a	n/a	n/a
384.5388	0.6333	COLOR_NAME	61	Incongruent	niebieski	blue	żółty	yellow	hit	n/a
385.1396	n/a	RESPONSE	n/a	n/a	n/a	n/a	n/a	n/a	n/a	blue
385.1721	1.0167	ITI	n/a	n/a	n/a	n/a	n/a	n/a	n/a	n/a
386.1888	0.5167	FIXCROSS	n/a	n/a	n/a	n/a	n/a	n/a	n/a	n/a
386.7055	0.65	COLOR_NAME	62	Neutral	czerwony	red	Neutral	Neutral	hit	n/a
387.3267	n/a	RESPONSE	n/a	n/a	n/a	n/a	n/a	n/a	n/a	red
387.3555	1.0167	ITI	n/a	n/a	n/a	n/a	n/a	n/a	n/a	n/a
388.3722	0.5166	FIXCROSS	n/a	n/a	n/a	n/a	n/a	n/a	n/a	n/a
388.8888	0.6834	COLOR_NAME	63	Incongruent	zielony	green	czerwony	red	hit	n/a
389.5458	n/a	RESPONSE	n/a	n/a	n/a	n/a	n/a	n/a	n/a	green
389.5722	1.0167	ITI	n/a	n/a	n/a	n/a	n/a	n/a	n/a	n/a
390.5888	0.5166	FIXCROSS	n/a	n/a	n/a	n/a	n/a	n/a	n/a	n/a
391.1055	0.8667	COLOR_NAME	64	Incongruent	czerwony	red	niebieski	blue	hit	n/a
391.9404	n/a	RESPONSE	n/a	n/a	n/a	n/a	n/a	n/a	n/a	red
391.9722	1.0166	ITI	n/a	n/a	n/a	n/a	n/a	n/a	n/a	n/a
392.9888	0.5167	FIXCROSS	n/a	n/a	n/a	n/a	n/a	n/a	n/a	n/a
393.5055	0.5833	COLOR_NAME	65	Neutral	zielony	green	Neutral	Neutral	hit	n/a
394.0637	n/a	RESPONSE	n/a	n/a	n/a	n/a	n/a	n/a	n/a	green
394.0888	1.0167	ITI	n/a	n/a	n/a	n/a	n/a	n/a	n/a	n/a
395.1055	0.5167	FIXCROSS	n/a	n/a	n/a	n/a	n/a	n/a	n/a	n/a
395.6222	0.5833	COLOR_NAME	66	Neutral	czerwony	red	Neutral	Neutral	hit	n/a
396.187	n/a	RESPONSE	n/a	n/a	n/a	n/a	n/a	n/a	n/a	red
396.2055	1.0167	ITI	n/a	n/a	n/a	n/a	n/a	n/a	n/a	n/a
397.2222	0.5167	FIXCROSS	n/a	n/a	n/a	n/a	n/a	n/a	n/a	n/a
397.7389	0.5167	COLOR_NAME	67	Incongruent	żółty	yellow	niebieski	blue	hit	n/a
398.2304	n/a	RESPONSE	n/a	n/a	n/a	n/a	n/a	n/a	n/a	yellow
398.2556	1.0167	ITI	n/a	n/a	n/a	n/a	n/a	n/a	n/a	n/a
399.2722	0.5166	FIXCROSS	n/a	n/a	n/a	n/a	n/a	n/a	n/a	n/a
399.7889	0.5	COLOR_NAME	68	Incongruent	niebieski	blue	żółty	yellow	hit	n/a
400.2578	n/a	RESPONSE	n/a	n/a	n/a	n/a	n/a	n/a	n/a	blue
400.2889	1.0167	ITI	n/a	n/a	n/a	n/a	n/a	n/a	n/a	n/a
401.3056	0.5166	FIXCROSS	n/a	n/a	n/a	n/a	n/a	n/a	n/a	n/a
401.8222	0.6167	COLOR_NAME	69	Incongruent	czerwony	red	zielony	green	hit	n/a
402.4131	n/a	RESPONSE	n/a	n/a	n/a	n/a	n/a	n/a	n/a	red
402.4389	1.0167	ITI	n/a	n/a	n/a	n/a	n/a	n/a	n/a	n/a
403.4556	0.5167	FIXCROSS	n/a	n/a	n/a	n/a	n/a	n/a	n/a	n/a
403.9723	0.5833	COLOR_NAME	70	Neutral	niebieski	blue	Neutral	Neutral	hit	n/a
404.5362	n/a	RESPONSE	n/a	n/a	n/a	n/a	n/a	n/a	n/a	blue
404.5556	1.0167	ITI	n/a	n/a	n/a	n/a	n/a	n/a	n/a	n/a
405.5723	0.5167	FIXCROSS	n/a	n/a	n/a	n/a	n/a	n/a	n/a	n/a
406.089	0.55	COLOR_NAME	71	Incongruent	czerwony	red	niebieski	blue	hit	n/a
406.6116	n/a	RESPONSE	n/a	n/a	n/a	n/a	n/a	n/a	n/a	red
406.639	1.0167	ITI	n/a	n/a	n/a	n/a	n/a	n/a	n/a	n/a
407.6556	0.5167	FIXCROSS	n/a	n/a	n/a	n/a	n/a	n/a	n/a	n/a
408.1723	0.6834	COLOR_NAME	72	Incongruent	czerwony	red	żółty	yellow	hit	n/a
408.8307	n/a	RESPONSE	n/a	n/a	n/a	n/a	n/a	n/a	n/a	red
408.8557	1.0333	ITI	n/a	n/a	n/a	n/a	n/a	n/a	n/a	n/a
435.9221	n/a	RESPONSE	n/a	n/a	n/a	n/a	n/a	n/a	n/a	n/a
