onset	duration	trial_type	n_back_condition	trial_number	stimulus	response_type
0.0	n/a	RESPONSE	n/a	n/a	n/a	n/a
0.0314	1.0	ISI	n/a	n/a	n/a	n/a
1.0314	0.5	DISTRACTOR	1	1	D	Correct Rejection
1.5314	1.0	ISI	n/a	n/a	n/a	n/a
2.5314	0.5	DISTRACTOR	1	2	H	Correct Rejection
3.0314	1.0	ISI	n/a	n/a	n/a	n/a
4.0313	0.5	DISTRACTOR	1	3	A	Correct Rejection
4.5313	1.0	ISI	n/a	n/a	n/a	n/a
5.5313	0.5	DISTRACTOR	1	4	B	Correct Rejection
6.0313	1.0	ISI	n/a	n/a	n/a	n/a
7.0313	0.5	DISTRACTOR	1	5	C	Correct Rejection
7.5313	1.0	ISI	n/a	n/a	n/a	n/a
8.5313	0.5	DISTRACTOR	1	6	D	Correct Rejection
9.0313	1.0	ISI	n/a	n/a	n/a	n/a
10.0312	0.5	DISTRACTOR	1	7	G	Correct Rejection
10.5312	1.0	ISI	n/a	n/a	n/a	n/a
11.5312	0.5	DISTRACTOR	1	8	E	Correct Rejection
12.0312	1.0	ISI	n/a	n/a	n/a	n/a
13.0312	0.5	DISTRACTOR	1	9	G	Correct Rejection
13.5312	1.0	ISI	n/a	n/a	n/a	n/a
14.5312	0.5	TARGET	1	10	G	Hit
15.0312	1.0	ISI	n/a	n/a	n/a	n/a
15.0779	n/a	RESPONSE	n/a	n/a	n/a	n/a
16.0311	0.5	DISTRACTOR	1	11	A	Correct Rejection
16.5311	1.0	ISI	n/a	n/a	n/a	n/a
17.5311	0.5	DISTRACTOR	1	12	F	Correct Rejection
18.0311	1.0	ISI	n/a	n/a	n/a	n/a
19.0311	0.5	TARGET	1	13	F	Hit
19.379	n/a	RESPONSE	n/a	n/a	n/a	n/a
19.5311	1.0	ISI	n/a	n/a	n/a	n/a
20.5311	0.5	DISTRACTOR	1	14	G	Correct Rejection
21.031	1.0	ISI	n/a	n/a	n/a	n/a
22.031	0.5	DISTRACTOR	1	15	E	Correct Rejection
22.531	1.0	ISI	n/a	n/a	n/a	n/a
23.531	0.5	DISTRACTOR	1	16	F	Correct Rejection
24.031	1.0	ISI	n/a	n/a	n/a	n/a
25.031	0.5	TARGET	1	17	F	Hit
25.375	n/a	RESPONSE	n/a	n/a	n/a	n/a
25.531	1.0	ISI	n/a	n/a	n/a	n/a
26.531	0.5	DISTRACTOR	1	18	I	Correct Rejection
27.0309	1.0	ISI	n/a	n/a	n/a	n/a
28.0309	0.5	DISTRACTOR	1	19	E	Correct Rejection
28.5309	1.0	ISI	n/a	n/a	n/a	n/a
29.5309	0.5	DISTRACTOR	1	20	F	Correct Rejection
30.0309	1.0	ISI	n/a	n/a	n/a	n/a
31.0309	0.5	TARGET	1	21	F	Hit
31.3549	n/a	RESPONSE	n/a	n/a	n/a	n/a
31.5309	1.0	ISI	n/a	n/a	n/a	n/a
32.5308	0.5	DISTRACTOR	1	22	E	Correct Rejection
33.0308	1.0	ISI	n/a	n/a	n/a	n/a
34.0308	0.5	TARGET	1	23	E	Hit
34.3609	n/a	RESPONSE	n/a	n/a	n/a	n/a
34.5308	1.0	ISI	n/a	n/a	n/a	n/a
35.5308	0.5	DISTRACTOR	1	24	D	Correct Rejection
36.0308	1.0	ISI	n/a	n/a	n/a	n/a
37.0308	0.5	DISTRACTOR	1	25	F	Correct Rejection
37.5308	1.0	ISI	n/a	n/a	n/a	n/a
38.5307	0.5	DISTRACTOR	1	26	I	Correct Rejection
39.0307	1.0	ISI	n/a	n/a	n/a	n/a
40.0307	0.5	DISTRACTOR	1	27	F	Correct Rejection
40.5307	1.0	ISI	n/a	n/a	n/a	n/a
41.5307	0.5	DISTRACTOR	1	28	A	Correct Rejection
42.0307	1.0	ISI	n/a	n/a	n/a	n/a
43.0307	0.5	DISTRACTOR	1	29	H	Correct Rejection
43.5307	1.0	ISI	n/a	n/a	n/a	n/a
44.5306	0.5	DISTRACTOR	1	30	F	Correct Rejection
45.0306	1.0	ISI	n/a	n/a	n/a	n/a
46.0306	0.5	DISTRACTOR	1	31	B	Correct Rejection
46.5306	1.0	ISI	n/a	n/a	n/a	n/a
47.5306	0.5	DISTRACTOR	1	32	J	Correct Rejection
48.0306	1.0	ISI	n/a	n/a	n/a	n/a
49.0306	0.5	DISTRACTOR	1	33	F	Correct Rejection
49.5306	1.0	ISI	n/a	n/a	n/a	n/a
50.5305	0.5	DISTRACTOR	1	34	J	Correct Rejection
51.0305	1.0	ISI	n/a	n/a	n/a	n/a
52.0305	0.5	DISTRACTOR	1	35	E	Correct Rejection
52.5305	1.0	ISI	n/a	n/a	n/a	n/a
53.5305	0.5	DISTRACTOR	1	36	D	Correct Rejection
54.0305	1.0	ISI	n/a	n/a	n/a	n/a
55.0305	0.5	DISTRACTOR	1	37	I	Correct Rejection
55.5305	1.0	ISI	n/a	n/a	n/a	n/a
56.5304	0.5	DISTRACTOR	1	38	G	Correct Rejection
57.0304	1.0	ISI	n/a	n/a	n/a	n/a
58.0304	0.5	DISTRACTOR	1	39	E	Correct Rejection
58.5304	1.0	ISI	n/a	n/a	n/a	n/a
59.5304	0.5	TARGET	1	40	E	Hit
59.8637	n/a	RESPONSE	n/a	n/a	n/a	n/a
60.0304	1.0	ISI	n/a	n/a	n/a	n/a
61.0304	0.5	DISTRACTOR	1	41	D	Correct Rejection
61.5304	1.0	ISI	n/a	n/a	n/a	n/a
62.5303	0.5	DISTRACTOR	1	42	F	Correct Rejection
63.0303	1.0	ISI	n/a	n/a	n/a	n/a
64.0303	0.5	TARGET	1	43	F	Hit
64.3887	n/a	RESPONSE	n/a	n/a	n/a	n/a
64.5303	1.0	ISI	n/a	n/a	n/a	n/a
65.5303	0.5	TARGET	1	44	F	Hit
66.0303	1.0	ISI	n/a	n/a	n/a	n/a
66.1156	n/a	RESPONSE	n/a	n/a	n/a	n/a
67.0303	0.5	DISTRACTOR	1	45	I	Correct Rejection
67.5302	1.0	ISI	n/a	n/a	n/a	n/a
68.5302	0.5	DISTRACTOR	1	46	D	Correct Rejection
69.0302	1.0	ISI	n/a	n/a	n/a	n/a
70.0302	0.5	DISTRACTOR	1	47	H	Correct Rejection
70.5302	1.0	ISI	n/a	n/a	n/a	n/a
71.5302	0.5	DISTRACTOR	1	48	J	Correct Rejection
72.0302	1.0	ISI	n/a	n/a	n/a	n/a
73.0301	0.5	TARGET	1	49	J	Hit
73.3906	n/a	RESPONSE	n/a	n/a	n/a	n/a
73.5301	1.0	ISI	n/a	n/a	n/a	n/a
74.5301	0.5	TARGET	1	50	J	Hit
75.0215	n/a	RESPONSE	n/a	n/a	n/a	n/a
75.0301	1.0667	ISI	n/a	n/a	n/a	n/a
83.304	n/a	RESPONSE	n/a	n/a	n/a	n/a
83.33	1.0	ISI	n/a	n/a	n/a	n/a
84.33	0.5	DISTRACTOR	2	1	H	Correct Rejection
84.8299	1.0	ISI	n/a	n/a	n/a	n/a
85.8299	0.5	DISTRACTOR	2	2	I	Correct Rejection
86.3299	1.0	ISI	n/a	n/a	n/a	n/a
87.3299	0.5	DISTRACTOR	2	3	E	Correct Rejection
87.8299	1.0	ISI	n/a	n/a	n/a	n/a
88.8299	0.5	DISTRACTOR	2	4	B	Correct Rejection
89.3299	1.0	ISI	n/a	n/a	n/a	n/a
90.3298	0.5	DISTRACTOR	2	5	J	Correct Rejection
90.8298	1.0	ISI	n/a	n/a	n/a	n/a
91.8298	0.5	DISTRACTOR	2	6	D	Correct Rejection
92.3298	1.0	ISI	n/a	n/a	n/a	n/a
93.3298	0.5	DISTRACTOR	2	7	D	Correct Rejection
93.8298	1.0	ISI	n/a	n/a	n/a	n/a
94.8298	0.5	DISTRACTOR	2	8	J	False Alarm
95.3298	1.0	ISI	n/a	n/a	n/a	n/a
95.8555	n/a	RESPONSE	n/a	n/a	n/a	n/a
96.3297	0.5	DISTRACTOR	2	9	B	Correct Rejection
96.8297	1.0	ISI	n/a	n/a	n/a	n/a
97.8297	0.5	TARGET	2	10	J	Hit
98.27	n/a	RESPONSE	n/a	n/a	n/a	n/a
98.3297	1.0	ISI	n/a	n/a	n/a	n/a
99.3297	0.5	DISTRACTOR	2	11	J	Correct Rejection
99.8297	1.0	ISI	n/a	n/a	n/a	n/a
100.8297	0.5	TARGET	2	12	J	Hit
101.3296	1.0	ISI	n/a	n/a	n/a	n/a
101.4837	n/a	RESPONSE	n/a	n/a	n/a	n/a
102.3296	0.5	DISTRACTOR	2	13	G	Correct Rejection
102.8296	1.0	ISI	n/a	n/a	n/a	n/a
103.8296	0.5	DISTRACTOR	2	14	G	Correct Rejection
104.3296	1.0	ISI	n/a	n/a	n/a	n/a
105.3296	0.5	DISTRACTOR	2	15	F	Correct Rejection
105.8296	1.0	ISI	n/a	n/a	n/a	n/a
106.8296	0.5	DISTRACTOR	2	16	F	Correct Rejection
107.3295	1.0	ISI	n/a	n/a	n/a	n/a
108.3295	0.5	DISTRACTOR	2	17	G	False Alarm
108.8295	1.0	ISI	n/a	n/a	n/a	n/a
109.1427	n/a	RESPONSE	n/a	n/a	n/a	n/a
109.8295	0.5	DISTRACTOR	2	18	B	Correct Rejection
110.3295	1.0	ISI	n/a	n/a	n/a	n/a
111.3295	0.5	DISTRACTOR	2	19	J	Correct Rejection
111.8295	1.0	ISI	n/a	n/a	n/a	n/a
112.8294	0.5	DISTRACTOR	2	20	E	Correct Rejection
113.3294	1.0	ISI	n/a	n/a	n/a	n/a
114.3294	0.5	DISTRACTOR	2	21	G	Correct Rejection
114.8294	1.0	ISI	n/a	n/a	n/a	n/a
115.8294	0.5	DISTRACTOR	2	22	I	Correct Rejection
116.3294	1.0	ISI	n/a	n/a	n/a	n/a
117.3294	0.5	DISTRACTOR	2	23	I	Correct Rejection
117.8294	1.0	ISI	n/a	n/a	n/a	n/a
118.8294	0.5	TARGET	2	24	I	Hit
119.3293	1.0	ISI	n/a	n/a	n/a	n/a
119.6477	n/a	RESPONSE	n/a	n/a	n/a	n/a
120.3293	0.5	DISTRACTOR	2	25	J	Correct Rejection
120.8293	1.0	ISI	n/a	n/a	n/a	n/a
121.8293	0.5	DISTRACTOR	2	26	A	Correct Rejection
122.3293	1.0	ISI	n/a	n/a	n/a	n/a
123.3293	0.5	DISTRACTOR	2	27	A	Correct Rejection
123.8293	1.0	ISI	n/a	n/a	n/a	n/a
124.8292	0.5	DISTRACTOR	2	28	G	Correct Rejection
125.3292	1.0	ISI	n/a	n/a	n/a	n/a
126.3292	0.5	DISTRACTOR	2	29	B	Correct Rejection
126.8292	1.0	ISI	n/a	n/a	n/a	n/a
127.8292	0.5	TARGET	2	30	G	Hit
128.3292	1.0	ISI	n/a	n/a	n/a	n/a
128.9374	n/a	RESPONSE	n/a	n/a	n/a	n/a
129.3292	0.5	DISTRACTOR	2	31	F	Correct Rejection
129.8292	1.0	ISI	n/a	n/a	n/a	n/a
130.8291	0.5	DISTRACTOR	2	32	E	Correct Rejection
131.3291	1.0	ISI	n/a	n/a	n/a	n/a
132.3291	0.5	DISTRACTOR	2	33	H	Correct Rejection
132.8291	1.0	ISI	n/a	n/a	n/a	n/a
133.8291	0.5	TARGET	2	34	E	Hit
134.3291	1.0	ISI	n/a	n/a	n/a	n/a
134.8853	n/a	RESPONSE	n/a	n/a	n/a	n/a
135.3291	0.5	TARGET	2	35	H	Miss
135.829	1.0	ISI	n/a	n/a	n/a	n/a
136.829	0.5	DISTRACTOR	2	36	I	Correct Rejection
137.329	1.0	ISI	n/a	n/a	n/a	n/a
138.329	0.5	DISTRACTOR	2	37	B	Correct Rejection
138.829	1.0	ISI	n/a	n/a	n/a	n/a
139.829	0.5	TARGET	2	38	I	Hit
140.329	1.0	ISI	n/a	n/a	n/a	n/a
140.5775	n/a	RESPONSE	n/a	n/a	n/a	n/a
141.3289	0.5	DISTRACTOR	2	39	H	Correct Rejection
141.8289	1.0	ISI	n/a	n/a	n/a	n/a
142.8289	0.5	TARGET	2	40	I	Miss
143.3289	1.0	ISI	n/a	n/a	n/a	n/a
144.3289	0.5	DISTRACTOR	2	41	I	Correct Rejection
144.8289	1.0	ISI	n/a	n/a	n/a	n/a
145.8289	0.5	DISTRACTOR	2	42	B	Correct Rejection
146.3289	1.0	ISI	n/a	n/a	n/a	n/a
147.3289	0.5	TARGET	2	43	I	Hit
147.6607	n/a	RESPONSE	n/a	n/a	n/a	n/a
147.8288	1.0	ISI	n/a	n/a	n/a	n/a
148.8288	0.5	DISTRACTOR	2	44	C	Correct Rejection
149.3288	1.0	ISI	n/a	n/a	n/a	n/a
150.3288	0.5	DISTRACTOR	2	45	F	Correct Rejection
150.8288	1.0	ISI	n/a	n/a	n/a	n/a
151.8288	0.5	DISTRACTOR	2	46	D	Correct Rejection
152.3288	1.0	ISI	n/a	n/a	n/a	n/a
153.3287	0.5	TARGET	2	47	F	Hit
153.8287	1.0	ISI	n/a	n/a	n/a	n/a
154.2002	n/a	RESPONSE	n/a	n/a	n/a	n/a
154.8287	0.5	DISTRACTOR	2	48	G	Correct Rejection
155.3287	1.0	ISI	n/a	n/a	n/a	n/a
156.3287	0.5	DISTRACTOR	2	49	G	Correct Rejection
156.8287	1.0	ISI	n/a	n/a	n/a	n/a
157.8287	0.5	DISTRACTOR	2	50	C	Correct Rejection
158.3287	1.05	ISI	n/a	n/a	n/a	n/a
171.8045	n/a	RESPONSE	n/a	n/a	n/a	n/a
171.8284	1.0	ISI	n/a	n/a	n/a	n/a
172.8284	0.5	DISTRACTOR	3	1	A	Correct Rejection
173.3284	1.0	ISI	n/a	n/a	n/a	n/a
174.3284	0.5	DISTRACTOR	3	2	C	Correct Rejection
174.8284	1.0	ISI	n/a	n/a	n/a	n/a
175.8284	0.5	DISTRACTOR	3	3	E	Correct Rejection
176.3283	1.0	ISI	n/a	n/a	n/a	n/a
177.3283	0.5	TARGET	3	4	A	Hit
177.6566	n/a	RESPONSE	n/a	n/a	n/a	n/a
177.8283	1.0	ISI	n/a	n/a	n/a	n/a
178.8283	0.5	DISTRACTOR	3	5	I	Correct Rejection
179.3283	1.0	ISI	n/a	n/a	n/a	n/a
180.3283	0.5	DISTRACTOR	3	6	C	False Alarm
180.8283	1.0	ISI	n/a	n/a	n/a	n/a
181.2541	n/a	RESPONSE	n/a	n/a	n/a	n/a
181.8283	0.4999	DISTRACTOR	3	7	F	Correct Rejection
182.3281	1.0001	ISI	n/a	n/a	n/a	n/a
183.3282	0.5	DISTRACTOR	3	8	C	Correct Rejection
183.8282	1.0	ISI	n/a	n/a	n/a	n/a
184.8282	0.5	DISTRACTOR	3	9	D	Correct Rejection
185.3282	1.0	ISI	n/a	n/a	n/a	n/a
186.3282	0.5	DISTRACTOR	3	10	A	Correct Rejection
186.8282	1.0	ISI	n/a	n/a	n/a	n/a
187.8282	0.5	DISTRACTOR	3	11	I	Correct Rejection
188.3281	1.0	ISI	n/a	n/a	n/a	n/a
189.3281	0.5	TARGET	3	12	D	Hit
189.8281	1.0	ISI	n/a	n/a	n/a	n/a
190.1601	n/a	RESPONSE	n/a	n/a	n/a	n/a
190.8281	0.5	DISTRACTOR	3	13	C	Correct Rejection
191.3281	1.0	ISI	n/a	n/a	n/a	n/a
192.3281	0.5	DISTRACTOR	3	14	E	Correct Rejection
192.8281	1.0	ISI	n/a	n/a	n/a	n/a
193.828	0.5	TARGET	3	15	D	Miss
194.328	1.0	ISI	n/a	n/a	n/a	n/a
195.328	0.5	DISTRACTOR	3	16	H	Correct Rejection
195.828	1.0	ISI	n/a	n/a	n/a	n/a
196.828	0.5	DISTRACTOR	3	17	H	Correct Rejection
197.328	1.0	ISI	n/a	n/a	n/a	n/a
198.328	0.5	DISTRACTOR	3	18	E	Correct Rejection
198.828	1.0	ISI	n/a	n/a	n/a	n/a
199.8279	0.5	DISTRACTOR	3	19	C	Correct Rejection
200.3279	1.0	ISI	n/a	n/a	n/a	n/a
201.3279	0.5	DISTRACTOR	3	20	E	False Alarm
201.8279	1.0	ISI	n/a	n/a	n/a	n/a
202.6319	n/a	RESPONSE	n/a	n/a	n/a	n/a
202.8279	0.5	DISTRACTOR	3	21	H	False Alarm
203.3279	1.0	ISI	n/a	n/a	n/a	n/a
204.3108	n/a	RESPONSE	n/a	n/a	n/a	n/a
204.3279	0.5	DISTRACTOR	3	22	F	Correct Rejection
204.8279	1.0	ISI	n/a	n/a	n/a	n/a
205.8278	0.5	DISTRACTOR	3	23	H	Correct Rejection
206.3278	1.0	ISI	n/a	n/a	n/a	n/a
207.3278	0.5	DISTRACTOR	3	24	F	Correct Rejection
207.8278	1.0	ISI	n/a	n/a	n/a	n/a
208.8278	0.5	DISTRACTOR	3	25	J	Correct Rejection
209.3278	1.0	ISI	n/a	n/a	n/a	n/a
210.3278	0.5	DISTRACTOR	3	26	E	Correct Rejection
210.8277	1.0	ISI	n/a	n/a	n/a	n/a
211.8277	0.5	DISTRACTOR	3	27	A	Correct Rejection
212.3277	1.0	ISI	n/a	n/a	n/a	n/a
213.3277	0.5	TARGET	3	28	J	Hit
213.8277	1.0	ISI	n/a	n/a	n/a	n/a
214.144	n/a	RESPONSE	n/a	n/a	n/a	n/a
214.8277	0.5	DISTRACTOR	3	29	G	Correct Rejection
215.3277	1.0	ISI	n/a	n/a	n/a	n/a
216.3276	0.5	DISTRACTOR	3	30	D	Correct Rejection
216.8276	1.0	ISI	n/a	n/a	n/a	n/a
217.8276	0.5	DISTRACTOR	3	31	I	Correct Rejection
218.3276	1.0	ISI	n/a	n/a	n/a	n/a
219.3276	0.5	DISTRACTOR	3	32	H	Correct Rejection
219.8276	1.0	ISI	n/a	n/a	n/a	n/a
220.8276	0.5	DISTRACTOR	3	33	F	Correct Rejection
221.3276	1.0	ISI	n/a	n/a	n/a	n/a
222.3275	0.5	DISTRACTOR	3	34	J	Correct Rejection
222.8275	1.0	ISI	n/a	n/a	n/a	n/a
223.8275	0.5	DISTRACTOR	3	35	J	Correct Rejection
224.3275	1.0	ISI	n/a	n/a	n/a	n/a
225.3275	0.5	DISTRACTOR	3	36	G	Correct Rejection
225.8275	1.0	ISI	n/a	n/a	n/a	n/a
226.8275	0.5	DISTRACTOR	3	37	G	Correct Rejection
227.3274	1.0	ISI	n/a	n/a	n/a	n/a
228.3274	0.4998	DISTRACTOR	3	38	B	Correct Rejection
228.8273	1.0001	ISI	n/a	n/a	n/a	n/a
229.8274	0.5	DISTRACTOR	3	39	J	Correct Rejection
230.3274	1.0	ISI	n/a	n/a	n/a	n/a
231.3274	0.5	DISTRACTOR	3	40	H	Correct Rejection
231.8274	1.0	ISI	n/a	n/a	n/a	n/a
232.8274	0.5	TARGET	3	41	B	Miss
233.3274	1.0	ISI	n/a	n/a	n/a	n/a
234.3273	0.5	DISTRACTOR	3	42	I	Correct Rejection
234.8273	1.0	ISI	n/a	n/a	n/a	n/a
235.8273	0.5	DISTRACTOR	3	43	D	Correct Rejection
236.3273	1.0	ISI	n/a	n/a	n/a	n/a
237.3273	0.5	DISTRACTOR	3	44	I	Correct Rejection
237.8273	1.0	ISI	n/a	n/a	n/a	n/a
238.8273	0.5	DISTRACTOR	3	45	A	Correct Rejection
239.3272	1.0	ISI	n/a	n/a	n/a	n/a
240.3272	0.5	TARGET	3	46	D	Miss
240.8272	1.0	ISI	n/a	n/a	n/a	n/a
241.8272	0.5	TARGET	3	47	I	Miss
242.3272	1.0	ISI	n/a	n/a	n/a	n/a
243.3272	0.5	TARGET	3	48	A	Hit
243.8272	1.0	ISI	n/a	n/a	n/a	n/a
244.1238	n/a	RESPONSE	n/a	n/a	n/a	n/a
244.8271	0.5	TARGET	3	49	D	Hit
245.3271	1.0	ISI	n/a	n/a	n/a	n/a
245.5787	n/a	RESPONSE	n/a	n/a	n/a	n/a
246.3271	0.5	TARGET	3	50	I	Hit
246.8271	1.0	ISI	n/a	n/a	n/a	n/a
246.9218	n/a	RESPONSE	n/a	n/a	n/a	n/a
249.6561	n/a	RESPONSE	n/a	n/a	n/a	n/a
