onset	duration	trial_type	trial_number	stroop_condition	stim_text(PL)	stim_text(eng)	stim_color(PL)	stim_color(eng)	response_type	response_color
0.0	n/a	RESPONSE	n/a	n/a	n/a	n/a	n/a	n/a	n/a	n/a
0.0715	1.0333	ITI	n/a	n/a	n/a	n/a	n/a	n/a	n/a	n/a
1.1048	0.5167	FIXCROSS	n/a	n/a	n/a	n/a	n/a	n/a	n/a	n/a
1.6215	3.3	T_INK	1	Neutral	xxxxxxxxx	xxxxxxxxx	czerwony	red	hit	n/a
4.8947	n/a	RESPONSE	n/a	n/a	n/a	n/a	n/a	n/a	n/a	red
4.9215	0.5167	FEEDBACK	n/a	n/a	n/a	n/a	n/a	n/a	n/a	n/a
5.4382	1.0167	ITI	n/a	n/a	n/a	n/a	n/a	n/a	n/a	n/a
6.4549	0.5167	FIXCROSS	n/a	n/a	n/a	n/a	n/a	n/a	n/a	n/a
6.9716	0.9667	T_INK	2	Neutral	xxxxx	xxxxx	zielony	green	hit	n/a
7.902	n/a	RESPONSE	n/a	n/a	n/a	n/a	n/a	n/a	n/a	green
7.9382	0.5167	FEEDBACK	n/a	n/a	n/a	n/a	n/a	n/a	n/a	n/a
8.4549	1.0167	ITI	n/a	n/a	n/a	n/a	n/a	n/a	n/a	n/a
9.4716	0.5167	FIXCROSS	n/a	n/a	n/a	n/a	n/a	n/a	n/a	n/a
9.9882	5.0167	T_INK	3	Incongruent	zielony	green	żółty	yellow	hit	n/a
14.9722	n/a	RESPONSE	n/a	n/a	n/a	n/a	n/a	n/a	n/a	yellow
15.0049	0.5167	FEEDBACK	n/a	n/a	n/a	n/a	n/a	n/a	n/a	n/a
15.5216	1.0167	ITI	n/a	n/a	n/a	n/a	n/a	n/a	n/a	n/a
16.5383	0.5167	FIXCROSS	n/a	n/a	n/a	n/a	n/a	n/a	n/a	n/a
17.055	0.8667	T_INK	4	Neutral	xxxxx	xxxxx	czerwony	red	hit	n/a
17.8995	n/a	RESPONSE	n/a	n/a	n/a	n/a	n/a	n/a	n/a	red
17.9216	0.5167	FEEDBACK	n/a	n/a	n/a	n/a	n/a	n/a	n/a	n/a
18.4383	1.0167	ITI	n/a	n/a	n/a	n/a	n/a	n/a	n/a	n/a
19.455	0.5167	FIXCROSS	n/a	n/a	n/a	n/a	n/a	n/a	n/a	n/a
19.9716	0.8333	T_INK	5	Neutral	xxxxxxxx	xxxxxxxx	żółty	yellow	hit	n/a
20.7788	n/a	RESPONSE	n/a	n/a	n/a	n/a	n/a	n/a	n/a	yellow
20.805	0.5167	FEEDBACK	n/a	n/a	n/a	n/a	n/a	n/a	n/a	n/a
21.3217	1.0167	ITI	n/a	n/a	n/a	n/a	n/a	n/a	n/a	n/a
22.3383	0.5167	FIXCROSS	n/a	n/a	n/a	n/a	n/a	n/a	n/a	n/a
22.855	1.9333	T_INK	6	Incongruent	zielony	green	niebieski	blue	hit	n/a
24.7618	n/a	RESPONSE	n/a	n/a	n/a	n/a	n/a	n/a	n/a	blue
24.7883	0.5167	FEEDBACK	n/a	n/a	n/a	n/a	n/a	n/a	n/a	n/a
25.305	1.0167	ITI	n/a	n/a	n/a	n/a	n/a	n/a	n/a	n/a
26.3217	0.5167	FIXCROSS	n/a	n/a	n/a	n/a	n/a	n/a	n/a	n/a
26.8383	1.8834	T_INK	7	Incongruent	niebieski	blue	czerwony	red	hit	n/a
28.6969	n/a	RESPONSE	n/a	n/a	n/a	n/a	n/a	n/a	n/a	red
28.7217	0.5167	FEEDBACK	n/a	n/a	n/a	n/a	n/a	n/a	n/a	n/a
29.2384	1.0167	ITI	n/a	n/a	n/a	n/a	n/a	n/a	n/a	n/a
30.255	0.5167	FIXCROSS	n/a	n/a	n/a	n/a	n/a	n/a	n/a	n/a
30.7717	0.9167	T_INK	8	Neutral	xxxxxxxxx	xxxxxxxxx	żółty	yellow	hit	n/a
31.6561	n/a	RESPONSE	n/a	n/a	n/a	n/a	n/a	n/a	n/a	yellow
31.6884	0.5167	FEEDBACK	n/a	n/a	n/a	n/a	n/a	n/a	n/a	n/a
32.2051	1.0167	ITI	n/a	n/a	n/a	n/a	n/a	n/a	n/a	n/a
33.2217	0.5167	FIXCROSS	n/a	n/a	n/a	n/a	n/a	n/a	n/a	n/a
33.7384	1.8	T_INK	9	Incongruent	zielony	green	czerwony	red	hit	n/a
35.5112	n/a	RESPONSE	n/a	n/a	n/a	n/a	n/a	n/a	n/a	red
35.5384	0.5167	FEEDBACK	n/a	n/a	n/a	n/a	n/a	n/a	n/a	n/a
36.0551	1.0167	ITI	n/a	n/a	n/a	n/a	n/a	n/a	n/a	n/a
37.0718	0.5167	FIXCROSS	n/a	n/a	n/a	n/a	n/a	n/a	n/a	n/a
37.5884	1.0	T_INK	10	Incongruent	niebieski	blue	żółty	yellow	hit	n/a
38.5664	n/a	RESPONSE	n/a	n/a	n/a	n/a	n/a	n/a	n/a	yellow
38.5884	0.5167	FEEDBACK	n/a	n/a	n/a	n/a	n/a	n/a	n/a	n/a
39.1051	1.0167	ITI	n/a	n/a	n/a	n/a	n/a	n/a	n/a	n/a
40.1218	0.5167	FIXCROSS	n/a	n/a	n/a	n/a	n/a	n/a	n/a	n/a
40.6384	0.6667	T_INK	11	Neutral	xxxxxxxx	xxxxxxxx	niebieski	blue	hit	n/a
41.2857	n/a	RESPONSE	n/a	n/a	n/a	n/a	n/a	n/a	n/a	blue
41.3051	0.5167	FEEDBACK	n/a	n/a	n/a	n/a	n/a	n/a	n/a	n/a
41.8218	1.0167	ITI	n/a	n/a	n/a	n/a	n/a	n/a	n/a	n/a
42.8385	0.5167	FIXCROSS	n/a	n/a	n/a	n/a	n/a	n/a	n/a	n/a
43.3551	0.7167	T_INK	12	Neutral	xxxxxxxxx	xxxxxxxxx	zielony	green	incorrect	n/a
44.0371	n/a	RESPONSE	n/a	n/a	n/a	n/a	n/a	n/a	n/a	yellow
44.0718	0.5167	FEEDBACK	n/a	n/a	n/a	n/a	n/a	n/a	n/a	n/a
44.5885	1.0333	ITI	n/a	n/a	n/a	n/a	n/a	n/a	n/a	n/a
50.2915	n/a	RESPONSE	n/a	n/a	n/a	n/a	n/a	n/a	n/a	n/a
50.3552	1.0167	ITI	n/a	n/a	n/a	n/a	n/a	n/a	n/a	n/a
51.3719	0.5167	FIXCROSS	n/a	n/a	n/a	n/a	n/a	n/a	n/a	n/a
51.8885	0.9167	INK	1	Neutral	xxxxxxxx	xxxxxxxx	zielony	green	hit	n/a
52.7869	n/a	RESPONSE	n/a	n/a	n/a	n/a	n/a	n/a	n/a	green
52.8052	1.0167	ITI	n/a	n/a	n/a	n/a	n/a	n/a	n/a	n/a
53.8219	0.5167	FIXCROSS	n/a	n/a	n/a	n/a	n/a	n/a	n/a	n/a
54.3385	0.9833	INK	2	Incongruent	zielony	green	żółty	yellow	hit	n/a
55.2983	n/a	RESPONSE	n/a	n/a	n/a	n/a	n/a	n/a	n/a	yellow
55.3219	1.0167	ITI	n/a	n/a	n/a	n/a	n/a	n/a	n/a	n/a
56.3386	0.5167	FIXCROSS	n/a	n/a	n/a	n/a	n/a	n/a	n/a	n/a
56.8552	0.7333	INK	3	Neutral	xxxxxxx	xxxxxxx	czerwony	red	hit	n/a
57.5697	n/a	RESPONSE	n/a	n/a	n/a	n/a	n/a	n/a	n/a	red
57.5886	1.0167	ITI	n/a	n/a	n/a	n/a	n/a	n/a	n/a	n/a
58.6052	0.5167	FIXCROSS	n/a	n/a	n/a	n/a	n/a	n/a	n/a	n/a
59.1219	0.7	INK	4	Neutral	xxxxx	xxxxx	czerwony	red	hit	n/a
59.7932	n/a	RESPONSE	n/a	n/a	n/a	n/a	n/a	n/a	n/a	red
59.8219	1.0167	ITI	n/a	n/a	n/a	n/a	n/a	n/a	n/a	n/a
60.8386	0.5167	FIXCROSS	n/a	n/a	n/a	n/a	n/a	n/a	n/a	n/a
61.3553	1.1667	INK	5	Incongruent	czerwony	red	żółty	yellow	hit	n/a
62.4965	n/a	RESPONSE	n/a	n/a	n/a	n/a	n/a	n/a	n/a	yellow
62.5219	1.0167	ITI	n/a	n/a	n/a	n/a	n/a	n/a	n/a	n/a
63.5386	0.5167	FIXCROSS	n/a	n/a	n/a	n/a	n/a	n/a	n/a	n/a
64.0553	0.5667	INK	6	Neutral	xxxxxxxxx	xxxxxxxxx	żółty	yellow	hit	n/a
64.592	n/a	RESPONSE	n/a	n/a	n/a	n/a	n/a	n/a	n/a	yellow
64.6219	1.0167	ITI	n/a	n/a	n/a	n/a	n/a	n/a	n/a	n/a
65.6386	0.5167	FIXCROSS	n/a	n/a	n/a	n/a	n/a	n/a	n/a	n/a
66.1553	0.5667	INK	7	Incongruent	niebieski	blue	żółty	yellow	hit	n/a
66.7034	n/a	RESPONSE	n/a	n/a	n/a	n/a	n/a	n/a	n/a	yellow
66.722	1.0167	ITI	n/a	n/a	n/a	n/a	n/a	n/a	n/a	n/a
67.7386	0.5167	FIXCROSS	n/a	n/a	n/a	n/a	n/a	n/a	n/a	n/a
68.2553	0.7667	INK	8	Incongruent	czerwony	red	żółty	yellow	hit	n/a
68.9909	n/a	RESPONSE	n/a	n/a	n/a	n/a	n/a	n/a	n/a	yellow
69.022	1.0167	ITI	n/a	n/a	n/a	n/a	n/a	n/a	n/a	n/a
70.0387	0.5167	FIXCROSS	n/a	n/a	n/a	n/a	n/a	n/a	n/a	n/a
70.5553	0.8667	INK	9	Neutral	xxxxxxxxx	xxxxxxxxx	czerwony	red	hit	n/a
71.3903	n/a	RESPONSE	n/a	n/a	n/a	n/a	n/a	n/a	n/a	red
71.422	1.0167	ITI	n/a	n/a	n/a	n/a	n/a	n/a	n/a	n/a
71.5183	n/a	RESPONSE	n/a	n/a	n/a	n/a	n/a	n/a	n/a	red
72.4387	0.5167	FIXCROSS	n/a	n/a	n/a	n/a	n/a	n/a	n/a	n/a
72.9553	0.9	INK	10	Incongruent	żółty	yellow	zielony	green	hit	n/a
73.8377	n/a	RESPONSE	n/a	n/a	n/a	n/a	n/a	n/a	n/a	green
73.8553	1.0167	ITI	n/a	n/a	n/a	n/a	n/a	n/a	n/a	n/a
74.872	0.5167	FIXCROSS	n/a	n/a	n/a	n/a	n/a	n/a	n/a	n/a
75.3887	1.3834	INK	11	Incongruent	czerwony	red	żółty	yellow	hit	n/a
76.7489	n/a	RESPONSE	n/a	n/a	n/a	n/a	n/a	n/a	n/a	yellow
76.772	1.0167	ITI	n/a	n/a	n/a	n/a	n/a	n/a	n/a	n/a
77.7887	0.5167	FIXCROSS	n/a	n/a	n/a	n/a	n/a	n/a	n/a	n/a
78.3054	1.15	INK	12	Incongruent	niebieski	blue	zielony	green	hit	n/a
79.4363	n/a	RESPONSE	n/a	n/a	n/a	n/a	n/a	n/a	n/a	green
79.4554	1.0167	ITI	n/a	n/a	n/a	n/a	n/a	n/a	n/a	n/a
80.4721	0.5167	FIXCROSS	n/a	n/a	n/a	n/a	n/a	n/a	n/a	n/a
80.9887	0.6	INK	13	Neutral	xxxxxxx	xxxxxxx	niebieski	blue	hit	n/a
81.5638	n/a	RESPONSE	n/a	n/a	n/a	n/a	n/a	n/a	n/a	blue
81.5887	1.0167	ITI	n/a	n/a	n/a	n/a	n/a	n/a	n/a	n/a
82.6054	0.5167	FIXCROSS	n/a	n/a	n/a	n/a	n/a	n/a	n/a	n/a
83.1221	2.0	INK	14	Incongruent	zielony	green	niebieski	blue	hit	n/a
85.0989	n/a	RESPONSE	n/a	n/a	n/a	n/a	n/a	n/a	n/a	blue
85.1221	1.0167	ITI	n/a	n/a	n/a	n/a	n/a	n/a	n/a	n/a
86.1388	0.5167	FIXCROSS	n/a	n/a	n/a	n/a	n/a	n/a	n/a	n/a
86.6554	0.55	INK	15	Neutral	xxxxx	xxxxx	niebieski	blue	hit	n/a
87.1784	n/a	RESPONSE	n/a	n/a	n/a	n/a	n/a	n/a	n/a	blue
87.2054	1.0167	ITI	n/a	n/a	n/a	n/a	n/a	n/a	n/a	n/a
88.2221	0.5167	FIXCROSS	n/a	n/a	n/a	n/a	n/a	n/a	n/a	n/a
88.7388	0.8	INK	16	Neutral	xxxxxxxxx	xxxxxxxxx	czerwony	red	hit	n/a
89.5138	n/a	RESPONSE	n/a	n/a	n/a	n/a	n/a	n/a	n/a	red
89.5388	1.0167	ITI	n/a	n/a	n/a	n/a	n/a	n/a	n/a	n/a
90.5555	0.5167	FIXCROSS	n/a	n/a	n/a	n/a	n/a	n/a	n/a	n/a
91.0721	0.7833	INK	17	Neutral	xxxxxxxx	xxxxxxxx	zielony	green	hit	n/a
91.8332	n/a	RESPONSE	n/a	n/a	n/a	n/a	n/a	n/a	n/a	green
91.8555	1.0167	ITI	n/a	n/a	n/a	n/a	n/a	n/a	n/a	n/a
92.8721	0.5167	FIXCROSS	n/a	n/a	n/a	n/a	n/a	n/a	n/a	n/a
93.3888	0.8333	INK	18	Incongruent	niebieski	blue	czerwony	red	hit	n/a
94.2006	n/a	RESPONSE	n/a	n/a	n/a	n/a	n/a	n/a	n/a	red
94.2222	1.0167	ITI	n/a	n/a	n/a	n/a	n/a	n/a	n/a	n/a
95.2388	0.5167	FIXCROSS	n/a	n/a	n/a	n/a	n/a	n/a	n/a	n/a
95.7555	1.1834	INK	19	Incongruent	czerwony	red	zielony	green	hit	n/a
96.92	n/a	RESPONSE	n/a	n/a	n/a	n/a	n/a	n/a	n/a	green
96.9388	1.0167	ITI	n/a	n/a	n/a	n/a	n/a	n/a	n/a	n/a
97.9555	0.5167	FIXCROSS	n/a	n/a	n/a	n/a	n/a	n/a	n/a	n/a
98.4722	0.75	INK	20	Incongruent	niebieski	blue	zielony	green	hit	n/a
99.1914	n/a	RESPONSE	n/a	n/a	n/a	n/a	n/a	n/a	n/a	green
99.2222	1.0167	ITI	n/a	n/a	n/a	n/a	n/a	n/a	n/a	n/a
100.2389	0.5167	FIXCROSS	n/a	n/a	n/a	n/a	n/a	n/a	n/a	n/a
100.7555	0.8833	INK	21	Incongruent	niebieski	blue	czerwony	red	hit	n/a
101.6068	n/a	RESPONSE	n/a	n/a	n/a	n/a	n/a	n/a	n/a	red
101.6389	1.0167	ITI	n/a	n/a	n/a	n/a	n/a	n/a	n/a	n/a
102.6555	0.5167	FIXCROSS	n/a	n/a	n/a	n/a	n/a	n/a	n/a	n/a
103.1722	0.7	INK	22	Incongruent	zielony	green	czerwony	red	hit	n/a
103.8462	n/a	RESPONSE	n/a	n/a	n/a	n/a	n/a	n/a	n/a	red
103.8722	1.0167	ITI	n/a	n/a	n/a	n/a	n/a	n/a	n/a	n/a
104.8889	0.5167	FIXCROSS	n/a	n/a	n/a	n/a	n/a	n/a	n/a	n/a
105.4056	0.45	INK	23	Neutral	xxxxxxx	xxxxxxx	czerwony	red	hit	n/a
105.8298	n/a	RESPONSE	n/a	n/a	n/a	n/a	n/a	n/a	n/a	red
105.8556	1.0167	ITI	n/a	n/a	n/a	n/a	n/a	n/a	n/a	n/a
106.8722	0.5167	FIXCROSS	n/a	n/a	n/a	n/a	n/a	n/a	n/a	n/a
107.3889	0.8667	INK	24	Neutral	xxxxx	xxxxx	zielony	green	hit	n/a
108.2292	n/a	RESPONSE	n/a	n/a	n/a	n/a	n/a	n/a	n/a	green
108.2556	1.0167	ITI	n/a	n/a	n/a	n/a	n/a	n/a	n/a	n/a
109.2723	0.5167	FIXCROSS	n/a	n/a	n/a	n/a	n/a	n/a	n/a	n/a
109.7889	0.95	INK	25	Neutral	xxxxxxx	xxxxxxx	żółty	yellow	hit	n/a
110.7086	n/a	RESPONSE	n/a	n/a	n/a	n/a	n/a	n/a	n/a	yellow
110.7389	1.0167	ITI	n/a	n/a	n/a	n/a	n/a	n/a	n/a	n/a
111.7556	0.5167	FIXCROSS	n/a	n/a	n/a	n/a	n/a	n/a	n/a	n/a
112.2723	1.35	INK	26	Neutral	xxxxx	xxxxx	czerwony	red	hit	n/a
113.6038	n/a	RESPONSE	n/a	n/a	n/a	n/a	n/a	n/a	n/a	red
113.6223	1.0167	ITI	n/a	n/a	n/a	n/a	n/a	n/a	n/a	n/a
114.639	0.5167	FIXCROSS	n/a	n/a	n/a	n/a	n/a	n/a	n/a	n/a
115.1556	1.5167	INK	27	Neutral	xxxxx	xxxxx	zielony	green	hit	n/a
116.6431	n/a	RESPONSE	n/a	n/a	n/a	n/a	n/a	n/a	n/a	green
116.6723	1.0167	ITI	n/a	n/a	n/a	n/a	n/a	n/a	n/a	n/a
117.689	0.5167	FIXCROSS	n/a	n/a	n/a	n/a	n/a	n/a	n/a	n/a
118.2057	0.5833	INK	28	Incongruent	zielony	green	żółty	yellow	hit	n/a
118.7705	n/a	RESPONSE	n/a	n/a	n/a	n/a	n/a	n/a	n/a	yellow
118.789	1.0167	ITI	n/a	n/a	n/a	n/a	n/a	n/a	n/a	n/a
119.8057	0.5167	FIXCROSS	n/a	n/a	n/a	n/a	n/a	n/a	n/a	n/a
120.3223	0.55	INK	29	Incongruent	czerwony	red	niebieski	blue	hit	n/a
120.85	n/a	RESPONSE	n/a	n/a	n/a	n/a	n/a	n/a	n/a	blue
120.8723	1.0167	ITI	n/a	n/a	n/a	n/a	n/a	n/a	n/a	n/a
121.889	0.5167	FIXCROSS	n/a	n/a	n/a	n/a	n/a	n/a	n/a	n/a
122.4057	0.5	INK	30	Neutral	xxxxxxx	xxxxxxx	czerwony	red	hit	n/a
122.8815	n/a	RESPONSE	n/a	n/a	n/a	n/a	n/a	n/a	n/a	red
122.9057	1.0167	ITI	n/a	n/a	n/a	n/a	n/a	n/a	n/a	n/a
123.9224	0.5167	FIXCROSS	n/a	n/a	n/a	n/a	n/a	n/a	n/a	n/a
124.439	0.8667	INK	31	Neutral	xxxxxxxx	xxxxxxxx	zielony	green	hit	n/a
125.2809	n/a	RESPONSE	n/a	n/a	n/a	n/a	n/a	n/a	n/a	green
125.3057	1.0167	ITI	n/a	n/a	n/a	n/a	n/a	n/a	n/a	n/a
126.3224	0.5167	FIXCROSS	n/a	n/a	n/a	n/a	n/a	n/a	n/a	n/a
126.839	1.2833	INK	32	Neutral	xxxxxxx	xxxxxxx	niebieski	blue	hit	n/a
128.0962	n/a	RESPONSE	n/a	n/a	n/a	n/a	n/a	n/a	n/a	blue
128.1224	1.0167	ITI	n/a	n/a	n/a	n/a	n/a	n/a	n/a	n/a
129.1391	0.5167	FIXCROSS	n/a	n/a	n/a	n/a	n/a	n/a	n/a	n/a
129.6557	0.7	INK	33	Incongruent	zielony	green	czerwony	red	hit	n/a
130.3357	n/a	RESPONSE	n/a	n/a	n/a	n/a	n/a	n/a	n/a	red
130.3557	1.0167	ITI	n/a	n/a	n/a	n/a	n/a	n/a	n/a	n/a
131.3724	0.5167	FIXCROSS	n/a	n/a	n/a	n/a	n/a	n/a	n/a	n/a
131.8891	0.6833	INK	34	Neutral	xxxxxxxxx	xxxxxxxxx	żółty	yellow	hit	n/a
132.5431	n/a	RESPONSE	n/a	n/a	n/a	n/a	n/a	n/a	n/a	yellow
132.5724	1.0167	ITI	n/a	n/a	n/a	n/a	n/a	n/a	n/a	n/a
133.5891	0.5167	FIXCROSS	n/a	n/a	n/a	n/a	n/a	n/a	n/a	n/a
134.1058	0.6833	INK	35	Neutral	xxxxxxx	xxxxxxx	niebieski	blue	hit	n/a
134.7666	n/a	RESPONSE	n/a	n/a	n/a	n/a	n/a	n/a	n/a	blue
134.7891	1.0167	ITI	n/a	n/a	n/a	n/a	n/a	n/a	n/a	n/a
135.8058	0.5167	FIXCROSS	n/a	n/a	n/a	n/a	n/a	n/a	n/a	n/a
136.3224	0.6833	INK	36	Neutral	xxxxxxxxx	xxxxxxxxx	zielony	green	hit	n/a
136.974	n/a	RESPONSE	n/a	n/a	n/a	n/a	n/a	n/a	n/a	green
137.0058	1.0167	ITI	n/a	n/a	n/a	n/a	n/a	n/a	n/a	n/a
138.0225	0.5167	FIXCROSS	n/a	n/a	n/a	n/a	n/a	n/a	n/a	n/a
138.5391	0.65	INK	37	Incongruent	czerwony	red	zielony	green	hit	n/a
139.1655	n/a	RESPONSE	n/a	n/a	n/a	n/a	n/a	n/a	n/a	green
139.1891	1.0167	ITI	n/a	n/a	n/a	n/a	n/a	n/a	n/a	n/a
140.2058	0.5167	FIXCROSS	n/a	n/a	n/a	n/a	n/a	n/a	n/a	n/a
140.7225	0.8333	INK	38	Incongruent	czerwony	red	niebieski	blue	hit	n/a
141.5329	n/a	RESPONSE	n/a	n/a	n/a	n/a	n/a	n/a	n/a	blue
141.5558	1.0167	ITI	n/a	n/a	n/a	n/a	n/a	n/a	n/a	n/a
141.7249	n/a	RESPONSE	n/a	n/a	n/a	n/a	n/a	n/a	n/a	blue
142.5725	0.5167	FIXCROSS	n/a	n/a	n/a	n/a	n/a	n/a	n/a	n/a
143.0892	0.9333	INK	39	Neutral	xxxxx	xxxxx	zielony	green	hit	n/a
143.9963	n/a	RESPONSE	n/a	n/a	n/a	n/a	n/a	n/a	n/a	green
144.0225	1.0167	ITI	n/a	n/a	n/a	n/a	n/a	n/a	n/a	n/a
145.0392	0.5167	FIXCROSS	n/a	n/a	n/a	n/a	n/a	n/a	n/a	n/a
145.5558	0.7	INK	40	Incongruent	czerwony	red	zielony	green	hit	n/a
146.2357	n/a	RESPONSE	n/a	n/a	n/a	n/a	n/a	n/a	n/a	green
146.2558	1.0167	ITI	n/a	n/a	n/a	n/a	n/a	n/a	n/a	n/a
147.2725	0.5167	FIXCROSS	n/a	n/a	n/a	n/a	n/a	n/a	n/a	n/a
147.7892	0.65	INK	41	Incongruent	niebieski	blue	zielony	green	hit	n/a
148.4112	n/a	RESPONSE	n/a	n/a	n/a	n/a	n/a	n/a	n/a	green
148.4392	1.0167	ITI	n/a	n/a	n/a	n/a	n/a	n/a	n/a	n/a
149.4559	0.5167	FIXCROSS	n/a	n/a	n/a	n/a	n/a	n/a	n/a	n/a
149.9725	0.9833	INK	42	Incongruent	żółty	yellow	niebieski	blue	hit	n/a
150.9226	n/a	RESPONSE	n/a	n/a	n/a	n/a	n/a	n/a	n/a	blue
150.9559	1.0167	ITI	n/a	n/a	n/a	n/a	n/a	n/a	n/a	n/a
151.9725	0.5167	FIXCROSS	n/a	n/a	n/a	n/a	n/a	n/a	n/a	n/a
152.4892	0.7833	INK	43	Neutral	xxxxxxxx	xxxxxxxx	żółty	yellow	hit	n/a
153.242	n/a	RESPONSE	n/a	n/a	n/a	n/a	n/a	n/a	n/a	yellow
153.2726	1.0167	ITI	n/a	n/a	n/a	n/a	n/a	n/a	n/a	n/a
154.2892	0.5167	FIXCROSS	n/a	n/a	n/a	n/a	n/a	n/a	n/a	n/a
154.8059	0.6	INK	44	Neutral	xxxxxxxxx	xxxxxxxxx	czerwony	red	hit	n/a
155.3855	n/a	RESPONSE	n/a	n/a	n/a	n/a	n/a	n/a	n/a	red
155.4059	1.0167	ITI	n/a	n/a	n/a	n/a	n/a	n/a	n/a	n/a
156.4226	0.5167	FIXCROSS	n/a	n/a	n/a	n/a	n/a	n/a	n/a	n/a
156.9393	0.9	INK	45	Incongruent	zielony	green	niebieski	blue	hit	n/a
157.8169	n/a	RESPONSE	n/a	n/a	n/a	n/a	n/a	n/a	n/a	blue
157.8392	1.0167	ITI	n/a	n/a	n/a	n/a	n/a	n/a	n/a	n/a
158.8559	0.5167	FIXCROSS	n/a	n/a	n/a	n/a	n/a	n/a	n/a	n/a
159.3726	0.8833	INK	46	Incongruent	zielony	green	czerwony	red	hit	n/a
160.2322	n/a	RESPONSE	n/a	n/a	n/a	n/a	n/a	n/a	n/a	red
160.2559	1.0167	ITI	n/a	n/a	n/a	n/a	n/a	n/a	n/a	n/a
161.2726	0.5167	FIXCROSS	n/a	n/a	n/a	n/a	n/a	n/a	n/a	n/a
161.7893	0.75	INK	47	Neutral	xxxxxxxx	xxxxxxxx	żółty	yellow	hit	n/a
162.5197	n/a	RESPONSE	n/a	n/a	n/a	n/a	n/a	n/a	n/a	yellow
162.5393	1.0167	ITI	n/a	n/a	n/a	n/a	n/a	n/a	n/a	n/a
163.556	0.5167	FIXCROSS	n/a	n/a	n/a	n/a	n/a	n/a	n/a	n/a
164.0726	0.8833	INK	48	Neutral	xxxxxxxxx	xxxxxxxxx	zielony	green	hit	n/a
164.9351	n/a	RESPONSE	n/a	n/a	n/a	n/a	n/a	n/a	n/a	green
164.956	1.0167	ITI	n/a	n/a	n/a	n/a	n/a	n/a	n/a	n/a
165.9726	0.5167	FIXCROSS	n/a	n/a	n/a	n/a	n/a	n/a	n/a	n/a
166.4893	0.7667	INK	49	Neutral	xxxxxxxxx	xxxxxxxxx	żółty	yellow	hit	n/a
167.2385	n/a	RESPONSE	n/a	n/a	n/a	n/a	n/a	n/a	n/a	yellow
167.256	1.0167	ITI	n/a	n/a	n/a	n/a	n/a	n/a	n/a	n/a
168.2727	0.5167	FIXCROSS	n/a	n/a	n/a	n/a	n/a	n/a	n/a	n/a
168.7893	0.9833	INK	50	Incongruent	niebieski	blue	czerwony	red	hit	n/a
169.7499	n/a	RESPONSE	n/a	n/a	n/a	n/a	n/a	n/a	n/a	red
169.7727	1.0167	ITI	n/a	n/a	n/a	n/a	n/a	n/a	n/a	n/a
170.7893	0.5167	FIXCROSS	n/a	n/a	n/a	n/a	n/a	n/a	n/a	n/a
171.306	0.8333	INK	51	Incongruent	żółty	yellow	niebieski	blue	hit	n/a
172.1173	n/a	RESPONSE	n/a	n/a	n/a	n/a	n/a	n/a	n/a	blue
172.1393	1.0167	ITI	n/a	n/a	n/a	n/a	n/a	n/a	n/a	n/a
173.156	0.5167	FIXCROSS	n/a	n/a	n/a	n/a	n/a	n/a	n/a	n/a
173.6727	0.7333	INK	52	Neutral	xxxxxxxxx	xxxxxxxxx	zielony	green	hit	n/a
174.3728	n/a	RESPONSE	n/a	n/a	n/a	n/a	n/a	n/a	n/a	green
174.406	1.0167	ITI	n/a	n/a	n/a	n/a	n/a	n/a	n/a	n/a
175.4227	0.5167	FIXCROSS	n/a	n/a	n/a	n/a	n/a	n/a	n/a	n/a
175.9394	0.65	INK	53	Neutral	xxxxx	xxxxx	niebieski	blue	hit	n/a
176.5642	n/a	RESPONSE	n/a	n/a	n/a	n/a	n/a	n/a	n/a	blue
176.5894	1.0167	ITI	n/a	n/a	n/a	n/a	n/a	n/a	n/a	n/a
177.6061	0.5167	FIXCROSS	n/a	n/a	n/a	n/a	n/a	n/a	n/a	n/a
178.1227	0.8167	INK	54	Incongruent	żółty	yellow	zielony	green	hit	n/a
178.9156	n/a	RESPONSE	n/a	n/a	n/a	n/a	n/a	n/a	n/a	green
178.9394	1.0167	ITI	n/a	n/a	n/a	n/a	n/a	n/a	n/a	n/a
179.9561	0.5167	FIXCROSS	n/a	n/a	n/a	n/a	n/a	n/a	n/a	n/a
180.4727	0.6167	INK	55	Neutral	xxxxx	xxxxx	niebieski	blue	hit	n/a
181.0591	n/a	RESPONSE	n/a	n/a	n/a	n/a	n/a	n/a	n/a	blue
181.0894	1.0167	ITI	n/a	n/a	n/a	n/a	n/a	n/a	n/a	n/a
182.1061	0.5167	FIXCROSS	n/a	n/a	n/a	n/a	n/a	n/a	n/a	n/a
182.6228	0.7	INK	56	Incongruent	niebieski	blue	żółty	yellow	hit	n/a
183.2986	n/a	RESPONSE	n/a	n/a	n/a	n/a	n/a	n/a	n/a	yellow
183.3228	1.0167	ITI	n/a	n/a	n/a	n/a	n/a	n/a	n/a	n/a
184.3394	0.5167	FIXCROSS	n/a	n/a	n/a	n/a	n/a	n/a	n/a	n/a
184.8561	0.65	INK	57	Neutral	xxxxxxxx	xxxxxxxx	niebieski	blue	hit	n/a
185.474	n/a	RESPONSE	n/a	n/a	n/a	n/a	n/a	n/a	n/a	blue
185.5061	1.0167	ITI	n/a	n/a	n/a	n/a	n/a	n/a	n/a	n/a
186.5228	0.5167	FIXCROSS	n/a	n/a	n/a	n/a	n/a	n/a	n/a	n/a
187.0395	0.5667	INK	58	Neutral	xxxxx	xxxxx	czerwony	red	hit	n/a
187.5855	n/a	RESPONSE	n/a	n/a	n/a	n/a	n/a	n/a	n/a	red
187.6061	1.0167	ITI	n/a	n/a	n/a	n/a	n/a	n/a	n/a	n/a
188.6228	0.5167	FIXCROSS	n/a	n/a	n/a	n/a	n/a	n/a	n/a	n/a
189.1395	0.65	INK	59	Incongruent	żółty	yellow	niebieski	blue	hit	n/a
189.7609	n/a	RESPONSE	n/a	n/a	n/a	n/a	n/a	n/a	n/a	blue
189.7895	1.0167	ITI	n/a	n/a	n/a	n/a	n/a	n/a	n/a	n/a
190.8061	0.5167	FIXCROSS	n/a	n/a	n/a	n/a	n/a	n/a	n/a	n/a
191.3228	0.9833	INK	60	Incongruent	żółty	yellow	czerwony	red	hit	n/a
192.2723	n/a	RESPONSE	n/a	n/a	n/a	n/a	n/a	n/a	n/a	red
192.3062	1.0167	ITI	n/a	n/a	n/a	n/a	n/a	n/a	n/a	n/a
193.3228	0.5167	FIXCROSS	n/a	n/a	n/a	n/a	n/a	n/a	n/a	n/a
193.8395	0.5	INK	61	Incongruent	żółty	yellow	czerwony	red	hit	n/a
194.3198	n/a	RESPONSE	n/a	n/a	n/a	n/a	n/a	n/a	n/a	red
194.3395	1.0167	ITI	n/a	n/a	n/a	n/a	n/a	n/a	n/a	n/a
195.3562	0.5167	FIXCROSS	n/a	n/a	n/a	n/a	n/a	n/a	n/a	n/a
195.8728	0.9	INK	62	Neutral	xxxxxxxx	xxxxxxxx	niebieski	blue	hit	n/a
196.7512	n/a	RESPONSE	n/a	n/a	n/a	n/a	n/a	n/a	n/a	blue
196.7729	1.0167	ITI	n/a	n/a	n/a	n/a	n/a	n/a	n/a	n/a
197.7895	0.5167	FIXCROSS	n/a	n/a	n/a	n/a	n/a	n/a	n/a	n/a
198.3062	0.5167	INK	63	Neutral	xxxxxxxx	xxxxxxxx	niebieski	blue	hit	n/a
198.7988	n/a	RESPONSE	n/a	n/a	n/a	n/a	n/a	n/a	n/a	blue
198.8229	1.0167	ITI	n/a	n/a	n/a	n/a	n/a	n/a	n/a	n/a
199.8395	0.5167	FIXCROSS	n/a	n/a	n/a	n/a	n/a	n/a	n/a	n/a
200.3562	0.55	INK	64	Incongruent	zielony	green	niebieski	blue	hit	n/a
200.8782	n/a	RESPONSE	n/a	n/a	n/a	n/a	n/a	n/a	n/a	blue
200.9062	1.0167	ITI	n/a	n/a	n/a	n/a	n/a	n/a	n/a	n/a
201.9229	0.5167	FIXCROSS	n/a	n/a	n/a	n/a	n/a	n/a	n/a	n/a
202.4396	0.7333	INK	65	Incongruent	żółty	yellow	czerwony	red	hit	n/a
203.1496	n/a	RESPONSE	n/a	n/a	n/a	n/a	n/a	n/a	n/a	red
203.1729	1.0167	ITI	n/a	n/a	n/a	n/a	n/a	n/a	n/a	n/a
204.1896	0.5167	FIXCROSS	n/a	n/a	n/a	n/a	n/a	n/a	n/a	n/a
204.7062	0.9667	INK	66	Neutral	xxxxxxx	xxxxxxx	żółty	yellow	hit	n/a
205.645	n/a	RESPONSE	n/a	n/a	n/a	n/a	n/a	n/a	n/a	yellow
205.6729	1.0167	ITI	n/a	n/a	n/a	n/a	n/a	n/a	n/a	n/a
206.6896	0.5167	FIXCROSS	n/a	n/a	n/a	n/a	n/a	n/a	n/a	n/a
207.2063	0.6167	INK	67	Incongruent	niebieski	blue	żółty	yellow	hit	n/a
207.7725	n/a	RESPONSE	n/a	n/a	n/a	n/a	n/a	n/a	n/a	yellow
207.8229	1.0167	ITI	n/a	n/a	n/a	n/a	n/a	n/a	n/a	n/a
208.8396	0.5167	FIXCROSS	n/a	n/a	n/a	n/a	n/a	n/a	n/a	n/a
209.3563	0.85	INK	68	Incongruent	żółty	yellow	zielony	green	hit	n/a
210.1719	n/a	RESPONSE	n/a	n/a	n/a	n/a	n/a	n/a	n/a	green
210.2063	1.0167	ITI	n/a	n/a	n/a	n/a	n/a	n/a	n/a	n/a
211.223	0.5167	FIXCROSS	n/a	n/a	n/a	n/a	n/a	n/a	n/a	n/a
211.7396	0.7667	INK	69	Neutral	xxxxxxx	xxxxxxx	żółty	yellow	hit	n/a
212.4753	n/a	RESPONSE	n/a	n/a	n/a	n/a	n/a	n/a	n/a	yellow
212.5063	1.0167	ITI	n/a	n/a	n/a	n/a	n/a	n/a	n/a	n/a
213.523	0.5167	FIXCROSS	n/a	n/a	n/a	n/a	n/a	n/a	n/a	n/a
214.0396	0.5833	INK	70	Incongruent	czerwony	red	niebieski	blue	incorrect	n/a
214.6028	n/a	RESPONSE	n/a	n/a	n/a	n/a	n/a	n/a	n/a	red
214.623	1.0167	ITI	n/a	n/a	n/a	n/a	n/a	n/a	n/a	n/a
215.6396	0.5167	FIXCROSS	n/a	n/a	n/a	n/a	n/a	n/a	n/a	n/a
216.1563	1.1	INK	71	Incongruent	zielony	green	żółty	yellow	hit	n/a
217.2262	n/a	RESPONSE	n/a	n/a	n/a	n/a	n/a	n/a	n/a	yellow
217.2563	1.0167	ITI	n/a	n/a	n/a	n/a	n/a	n/a	n/a	n/a
218.273	0.5167	FIXCROSS	n/a	n/a	n/a	n/a	n/a	n/a	n/a	n/a
218.7897	0.5833	INK	72	Neutral	xxxxxxxx	xxxxxxxx	żółty	yellow	hit	n/a
219.3536	n/a	RESPONSE	n/a	n/a	n/a	n/a	n/a	n/a	n/a	yellow
219.373	1.0833	ITI	n/a	n/a	n/a	n/a	n/a	n/a	n/a	n/a
228.6953	n/a	RESPONSE	n/a	n/a	n/a	n/a	n/a	n/a	n/a	n/a
228.7564	1.0167	ITI	n/a	n/a	n/a	n/a	n/a	n/a	n/a	n/a
229.7731	0.5167	FIXCROSS	n/a	n/a	n/a	n/a	n/a	n/a	n/a	n/a
230.2897	1.45	T_COLOR_NAME	1	Incongruent	niebieski	blue	żółty	yellow	hit	n/a
231.7186	n/a	RESPONSE	n/a	n/a	n/a	n/a	n/a	n/a	n/a	blue
231.7397	0.5167	FEEDBACK	n/a	n/a	n/a	n/a	n/a	n/a	n/a	n/a
232.2564	1.0167	ITI	n/a	n/a	n/a	n/a	n/a	n/a	n/a	n/a
233.2731	0.5167	FIXCROSS	n/a	n/a	n/a	n/a	n/a	n/a	n/a	n/a
233.7898	0.8	T_COLOR_NAME	2	Neutral	niebieski	blue	Neutral	Neutral	hit	n/a
234.5659	n/a	RESPONSE	n/a	n/a	n/a	n/a	n/a	n/a	n/a	blue
234.5898	0.5167	FEEDBACK	n/a	n/a	n/a	n/a	n/a	n/a	n/a	n/a
235.1064	1.0167	ITI	n/a	n/a	n/a	n/a	n/a	n/a	n/a	n/a
236.1231	0.5167	FIXCROSS	n/a	n/a	n/a	n/a	n/a	n/a	n/a	n/a
236.6398	0.7833	T_COLOR_NAME	3	Incongruent	niebieski	blue	czerwony	red	hit	n/a
237.3972	n/a	RESPONSE	n/a	n/a	n/a	n/a	n/a	n/a	n/a	blue
237.4231	0.5167	FEEDBACK	n/a	n/a	n/a	n/a	n/a	n/a	n/a	n/a
237.9398	1.0167	ITI	n/a	n/a	n/a	n/a	n/a	n/a	n/a	n/a
238.9565	0.5167	FIXCROSS	n/a	n/a	n/a	n/a	n/a	n/a	n/a	n/a
239.4731	0.55	T_COLOR_NAME	4	Neutral	niebieski	blue	Neutral	Neutral	hit	n/a
240.0045	n/a	RESPONSE	n/a	n/a	n/a	n/a	n/a	n/a	n/a	blue
240.0231	0.5167	FEEDBACK	n/a	n/a	n/a	n/a	n/a	n/a	n/a	n/a
240.5398	1.0167	ITI	n/a	n/a	n/a	n/a	n/a	n/a	n/a	n/a
241.5565	0.5167	FIXCROSS	n/a	n/a	n/a	n/a	n/a	n/a	n/a	n/a
242.0732	0.95	T_COLOR_NAME	5	Incongruent	zielony	green	niebieski	blue	hit	n/a
242.9958	n/a	RESPONSE	n/a	n/a	n/a	n/a	n/a	n/a	n/a	green
243.0232	0.5167	FEEDBACK	n/a	n/a	n/a	n/a	n/a	n/a	n/a	n/a
243.5398	1.0167	ITI	n/a	n/a	n/a	n/a	n/a	n/a	n/a	n/a
244.5565	0.5167	FIXCROSS	n/a	n/a	n/a	n/a	n/a	n/a	n/a	n/a
245.0732	0.5667	T_COLOR_NAME	6	Incongruent	zielony	green	żółty	yellow	hit	n/a
245.6191	n/a	RESPONSE	n/a	n/a	n/a	n/a	n/a	n/a	n/a	green
245.6398	0.5167	FEEDBACK	n/a	n/a	n/a	n/a	n/a	n/a	n/a	n/a
246.1565	1.0167	ITI	n/a	n/a	n/a	n/a	n/a	n/a	n/a	n/a
247.1732	0.5167	FIXCROSS	n/a	n/a	n/a	n/a	n/a	n/a	n/a	n/a
247.6899	0.7833	T_COLOR_NAME	7	Neutral	czerwony	red	Neutral	Neutral	hit	n/a
248.4504	n/a	RESPONSE	n/a	n/a	n/a	n/a	n/a	n/a	n/a	red
248.4732	0.5167	FEEDBACK	n/a	n/a	n/a	n/a	n/a	n/a	n/a	n/a
248.9899	1.0167	ITI	n/a	n/a	n/a	n/a	n/a	n/a	n/a	n/a
250.0066	0.5167	FIXCROSS	n/a	n/a	n/a	n/a	n/a	n/a	n/a	n/a
250.5232	0.7333	T_COLOR_NAME	8	Neutral	niebieski	blue	Neutral	Neutral	hit	n/a
251.2337	n/a	RESPONSE	n/a	n/a	n/a	n/a	n/a	n/a	n/a	blue
251.2566	0.5167	FEEDBACK	n/a	n/a	n/a	n/a	n/a	n/a	n/a	n/a
251.7732	1.0166	ITI	n/a	n/a	n/a	n/a	n/a	n/a	n/a	n/a
252.7898	0.5168	FIXCROSS	n/a	n/a	n/a	n/a	n/a	n/a	n/a	n/a
253.3066	1.5834	T_COLOR_NAME	9	Neutral	żółty	yellow	Neutral	Neutral	hit	n/a
254.8648	n/a	RESPONSE	n/a	n/a	n/a	n/a	n/a	n/a	n/a	yellow
254.8899	0.5167	FEEDBACK	n/a	n/a	n/a	n/a	n/a	n/a	n/a	n/a
255.4066	1.0167	ITI	n/a	n/a	n/a	n/a	n/a	n/a	n/a	n/a
256.4232	0.5167	FIXCROSS	n/a	n/a	n/a	n/a	n/a	n/a	n/a	n/a
256.9399	0.7	T_COLOR_NAME	10	Neutral	żółty	yellow	Neutral	Neutral	hit	n/a
257.6161	n/a	RESPONSE	n/a	n/a	n/a	n/a	n/a	n/a	n/a	yellow
257.6399	0.5167	FEEDBACK	n/a	n/a	n/a	n/a	n/a	n/a	n/a	n/a
258.1566	1.0167	ITI	n/a	n/a	n/a	n/a	n/a	n/a	n/a	n/a
259.1733	0.5167	FIXCROSS	n/a	n/a	n/a	n/a	n/a	n/a	n/a	n/a
259.6899	1.3333	T_COLOR_NAME	11	Neutral	czerwony	red	Neutral	Neutral	hit	n/a
260.9913	n/a	RESPONSE	n/a	n/a	n/a	n/a	n/a	n/a	n/a	red
261.0233	0.5167	FEEDBACK	n/a	n/a	n/a	n/a	n/a	n/a	n/a	n/a
261.54	1.0167	ITI	n/a	n/a	n/a	n/a	n/a	n/a	n/a	n/a
262.5566	0.5167	FIXCROSS	n/a	n/a	n/a	n/a	n/a	n/a	n/a	n/a
263.0733	1.8834	T_COLOR_NAME	12	Incongruent	zielony	green	czerwony	red	hit	n/a
264.9263	n/a	RESPONSE	n/a	n/a	n/a	n/a	n/a	n/a	n/a	green
264.9567	0.5167	FEEDBACK	n/a	n/a	n/a	n/a	n/a	n/a	n/a	n/a
265.4733	1.0333	ITI	n/a	n/a	n/a	n/a	n/a	n/a	n/a	n/a
269.4212	n/a	RESPONSE	n/a	n/a	n/a	n/a	n/a	n/a	n/a	n/a
269.4733	1.0167	ITI	n/a	n/a	n/a	n/a	n/a	n/a	n/a	n/a
270.49	0.5167	FIXCROSS	n/a	n/a	n/a	n/a	n/a	n/a	n/a	n/a
271.0067	1.9834	COLOR_NAME	1	Incongruent	żółty	yellow	niebieski	blue	hit	n/a
272.9563	n/a	RESPONSE	n/a	n/a	n/a	n/a	n/a	n/a	n/a	yellow
272.99	1.0167	ITI	n/a	n/a	n/a	n/a	n/a	n/a	n/a	n/a
274.0067	0.5167	FIXCROSS	n/a	n/a	n/a	n/a	n/a	n/a	n/a	n/a
274.5234	0.8667	COLOR_NAME	2	Neutral	zielony	green	Neutral	Neutral	hit	n/a
275.3717	n/a	RESPONSE	n/a	n/a	n/a	n/a	n/a	n/a	n/a	green
275.39	1.0167	ITI	n/a	n/a	n/a	n/a	n/a	n/a	n/a	n/a
276.4067	0.5167	FIXCROSS	n/a	n/a	n/a	n/a	n/a	n/a	n/a	n/a
276.9234	0.5833	COLOR_NAME	3	Neutral	czerwony	red	Neutral	Neutral	hit	n/a
277.4832	n/a	RESPONSE	n/a	n/a	n/a	n/a	n/a	n/a	n/a	red
277.5067	1.0167	ITI	n/a	n/a	n/a	n/a	n/a	n/a	n/a	n/a
278.5234	0.5167	FIXCROSS	n/a	n/a	n/a	n/a	n/a	n/a	n/a	n/a
279.0401	0.6167	COLOR_NAME	4	Incongruent	czerwony	red	niebieski	blue	hit	n/a
279.6267	n/a	RESPONSE	n/a	n/a	n/a	n/a	n/a	n/a	n/a	red
279.6567	1.0167	ITI	n/a	n/a	n/a	n/a	n/a	n/a	n/a	n/a
280.6734	0.5167	FIXCROSS	n/a	n/a	n/a	n/a	n/a	n/a	n/a	n/a
281.1901	0.7	COLOR_NAME	5	Neutral	niebieski	blue	Neutral	Neutral	hit	n/a
281.8661	n/a	RESPONSE	n/a	n/a	n/a	n/a	n/a	n/a	n/a	blue
281.8901	1.0167	ITI	n/a	n/a	n/a	n/a	n/a	n/a	n/a	n/a
282.9068	0.5167	FIXCROSS	n/a	n/a	n/a	n/a	n/a	n/a	n/a	n/a
283.4234	0.95	COLOR_NAME	6	Incongruent	niebieski	blue	zielony	green	hit	n/a
284.3455	n/a	RESPONSE	n/a	n/a	n/a	n/a	n/a	n/a	n/a	blue
284.3734	1.0167	ITI	n/a	n/a	n/a	n/a	n/a	n/a	n/a	n/a
285.3901	0.5167	FIXCROSS	n/a	n/a	n/a	n/a	n/a	n/a	n/a	n/a
285.9068	1.6	COLOR_NAME	7	Incongruent	żółty	yellow	zielony	green	hit	n/a
287.4808	n/a	RESPONSE	n/a	n/a	n/a	n/a	n/a	n/a	n/a	yellow
287.5068	1.0167	ITI	n/a	n/a	n/a	n/a	n/a	n/a	n/a	n/a
288.5235	0.5167	FIXCROSS	n/a	n/a	n/a	n/a	n/a	n/a	n/a	n/a
289.0401	0.65	COLOR_NAME	8	Incongruent	czerwony	red	żółty	yellow	hit	n/a
289.6722	n/a	RESPONSE	n/a	n/a	n/a	n/a	n/a	n/a	n/a	red
289.6901	1.0167	ITI	n/a	n/a	n/a	n/a	n/a	n/a	n/a	n/a
290.7068	0.5167	FIXCROSS	n/a	n/a	n/a	n/a	n/a	n/a	n/a	n/a
291.2235	1.2166	COLOR_NAME	9	Incongruent	niebieski	blue	czerwony	red	hit	n/a
292.4075	n/a	RESPONSE	n/a	n/a	n/a	n/a	n/a	n/a	n/a	blue
292.4401	1.0167	ITI	n/a	n/a	n/a	n/a	n/a	n/a	n/a	n/a
293.4568	0.5167	FIXCROSS	n/a	n/a	n/a	n/a	n/a	n/a	n/a	n/a
293.9735	0.7167	COLOR_NAME	10	Neutral	żółty	yellow	Neutral	Neutral	hit	n/a
294.663	n/a	RESPONSE	n/a	n/a	n/a	n/a	n/a	n/a	n/a	yellow
294.6902	1.0167	ITI	n/a	n/a	n/a	n/a	n/a	n/a	n/a	n/a
295.7069	0.5167	FIXCROSS	n/a	n/a	n/a	n/a	n/a	n/a	n/a	n/a
296.2235	0.7667	COLOR_NAME	11	Incongruent	niebieski	blue	czerwony	red	hit	n/a
296.9664	n/a	RESPONSE	n/a	n/a	n/a	n/a	n/a	n/a	n/a	blue
296.9902	1.0167	ITI	n/a	n/a	n/a	n/a	n/a	n/a	n/a	n/a
298.0069	0.5167	FIXCROSS	n/a	n/a	n/a	n/a	n/a	n/a	n/a	n/a
298.5235	0.8167	COLOR_NAME	12	Incongruent	żółty	yellow	czerwony	red	hit	n/a
299.3178	n/a	RESPONSE	n/a	n/a	n/a	n/a	n/a	n/a	n/a	yellow
299.3402	1.0167	ITI	n/a	n/a	n/a	n/a	n/a	n/a	n/a	n/a
300.3569	0.5167	FIXCROSS	n/a	n/a	n/a	n/a	n/a	n/a	n/a	n/a
300.8736	0.75	COLOR_NAME	13	Incongruent	niebieski	blue	zielony	green	hit	n/a
301.6052	n/a	RESPONSE	n/a	n/a	n/a	n/a	n/a	n/a	n/a	blue
301.6236	1.0167	ITI	n/a	n/a	n/a	n/a	n/a	n/a	n/a	n/a
302.6402	0.5167	FIXCROSS	n/a	n/a	n/a	n/a	n/a	n/a	n/a	n/a
303.1569	1.1667	COLOR_NAME	14	Incongruent	zielony	green	niebieski	blue	hit	n/a
304.2926	n/a	RESPONSE	n/a	n/a	n/a	n/a	n/a	n/a	n/a	green
304.3236	1.0167	ITI	n/a	n/a	n/a	n/a	n/a	n/a	n/a	n/a
305.3402	0.5167	FIXCROSS	n/a	n/a	n/a	n/a	n/a	n/a	n/a	n/a
305.8569	0.8833	COLOR_NAME	15	Neutral	żółty	yellow	Neutral	Neutral	hit	n/a
306.708	n/a	RESPONSE	n/a	n/a	n/a	n/a	n/a	n/a	n/a	yellow
306.7403	1.0167	ITI	n/a	n/a	n/a	n/a	n/a	n/a	n/a	n/a
307.7569	0.5167	FIXCROSS	n/a	n/a	n/a	n/a	n/a	n/a	n/a	n/a
308.2736	2.3333	COLOR_NAME	16	Incongruent	niebieski	blue	czerwony	red	hit	n/a
310.5791	n/a	RESPONSE	n/a	n/a	n/a	n/a	n/a	n/a	n/a	blue
310.6069	1.0167	ITI	n/a	n/a	n/a	n/a	n/a	n/a	n/a	n/a
311.6236	0.5167	FIXCROSS	n/a	n/a	n/a	n/a	n/a	n/a	n/a	n/a
312.1403	1.0	COLOR_NAME	17	Neutral	zielony	green	Neutral	Neutral	hit	n/a
313.1064	n/a	RESPONSE	n/a	n/a	n/a	n/a	n/a	n/a	n/a	green
313.1403	1.0167	ITI	n/a	n/a	n/a	n/a	n/a	n/a	n/a	n/a
314.157	0.5167	FIXCROSS	n/a	n/a	n/a	n/a	n/a	n/a	n/a	n/a
314.6737	0.75	COLOR_NAME	18	Neutral	niebieski	blue	Neutral	Neutral	hit	n/a
315.3938	n/a	RESPONSE	n/a	n/a	n/a	n/a	n/a	n/a	n/a	blue
315.4237	1.0167	ITI	n/a	n/a	n/a	n/a	n/a	n/a	n/a	n/a
316.4403	0.5167	FIXCROSS	n/a	n/a	n/a	n/a	n/a	n/a	n/a	n/a
316.957	0.6167	COLOR_NAME	19	Neutral	niebieski	blue	Neutral	Neutral	hit	n/a
317.5533	n/a	RESPONSE	n/a	n/a	n/a	n/a	n/a	n/a	n/a	blue
317.5737	1.0167	ITI	n/a	n/a	n/a	n/a	n/a	n/a	n/a	n/a
318.5904	0.5167	FIXCROSS	n/a	n/a	n/a	n/a	n/a	n/a	n/a	n/a
319.107	0.55	COLOR_NAME	20	Incongruent	niebieski	blue	zielony	green	hit	n/a
319.6328	n/a	RESPONSE	n/a	n/a	n/a	n/a	n/a	n/a	n/a	blue
319.657	1.0167	ITI	n/a	n/a	n/a	n/a	n/a	n/a	n/a	n/a
320.6737	0.5167	FIXCROSS	n/a	n/a	n/a	n/a	n/a	n/a	n/a	n/a
321.1904	1.2	COLOR_NAME	21	Incongruent	zielony	green	czerwony	red	hit	n/a
322.3681	n/a	RESPONSE	n/a	n/a	n/a	n/a	n/a	n/a	n/a	green
322.3904	1.0167	ITI	n/a	n/a	n/a	n/a	n/a	n/a	n/a	n/a
323.407	0.5167	FIXCROSS	n/a	n/a	n/a	n/a	n/a	n/a	n/a	n/a
323.9237	0.7333	COLOR_NAME	22	Neutral	niebieski	blue	Neutral	Neutral	hit	n/a
324.6236	n/a	RESPONSE	n/a	n/a	n/a	n/a	n/a	n/a	n/a	blue
324.657	1.0167	ITI	n/a	n/a	n/a	n/a	n/a	n/a	n/a	n/a
325.6737	0.5167	FIXCROSS	n/a	n/a	n/a	n/a	n/a	n/a	n/a	n/a
326.1904	0.9833	COLOR_NAME	23	Incongruent	żółty	yellow	zielony	green	hit	n/a
327.151	n/a	RESPONSE	n/a	n/a	n/a	n/a	n/a	n/a	n/a	yellow
327.1737	1.0167	ITI	n/a	n/a	n/a	n/a	n/a	n/a	n/a	n/a
328.1904	0.5167	FIXCROSS	n/a	n/a	n/a	n/a	n/a	n/a	n/a	n/a
328.7071	0.7833	COLOR_NAME	24	Neutral	żółty	yellow	Neutral	Neutral	hit	n/a
329.4704	n/a	RESPONSE	n/a	n/a	n/a	n/a	n/a	n/a	n/a	yellow
329.4904	1.0167	ITI	n/a	n/a	n/a	n/a	n/a	n/a	n/a	n/a
330.5071	0.5167	FIXCROSS	n/a	n/a	n/a	n/a	n/a	n/a	n/a	n/a
331.0238	1.2334	COLOR_NAME	25	Incongruent	zielony	green	żółty	yellow	hit	n/a
332.2377	n/a	RESPONSE	n/a	n/a	n/a	n/a	n/a	n/a	n/a	green
332.2571	1.0167	ITI	n/a	n/a	n/a	n/a	n/a	n/a	n/a	n/a
333.2738	0.5167	FIXCROSS	n/a	n/a	n/a	n/a	n/a	n/a	n/a	n/a
333.7904	1.6667	COLOR_NAME	26	Neutral	niebieski	blue	Neutral	Neutral	hit	n/a
335.4369	n/a	RESPONSE	n/a	n/a	n/a	n/a	n/a	n/a	n/a	blue
335.4571	1.0167	ITI	n/a	n/a	n/a	n/a	n/a	n/a	n/a	n/a
336.4738	0.5167	FIXCROSS	n/a	n/a	n/a	n/a	n/a	n/a	n/a	n/a
336.9905	1.0	COLOR_NAME	27	Neutral	żółty	yellow	Neutral	Neutral	hit	n/a
337.9643	n/a	RESPONSE	n/a	n/a	n/a	n/a	n/a	n/a	n/a	yellow
337.9905	1.0167	ITI	n/a	n/a	n/a	n/a	n/a	n/a	n/a	n/a
339.0071	0.5167	FIXCROSS	n/a	n/a	n/a	n/a	n/a	n/a	n/a	n/a
339.5238	0.6333	COLOR_NAME	28	Neutral	zielony	green	Neutral	Neutral	hit	n/a
340.1237	n/a	RESPONSE	n/a	n/a	n/a	n/a	n/a	n/a	n/a	green
340.1572	1.0167	ITI	n/a	n/a	n/a	n/a	n/a	n/a	n/a	n/a
341.1738	0.5167	FIXCROSS	n/a	n/a	n/a	n/a	n/a	n/a	n/a	n/a
341.6905	0.9833	COLOR_NAME	29	Neutral	zielony	green	Neutral	Neutral	hit	n/a
342.6511	n/a	RESPONSE	n/a	n/a	n/a	n/a	n/a	n/a	n/a	green
342.6738	1.0167	ITI	n/a	n/a	n/a	n/a	n/a	n/a	n/a	n/a
343.6905	0.5167	FIXCROSS	n/a	n/a	n/a	n/a	n/a	n/a	n/a	n/a
344.2072	1.0833	COLOR_NAME	30	Neutral	czerwony	red	Neutral	Neutral	hit	n/a
345.2585	n/a	RESPONSE	n/a	n/a	n/a	n/a	n/a	n/a	n/a	red
345.2905	1.0167	ITI	n/a	n/a	n/a	n/a	n/a	n/a	n/a	n/a
346.3072	0.5167	FIXCROSS	n/a	n/a	n/a	n/a	n/a	n/a	n/a	n/a
346.8239	1.55	COLOR_NAME	31	Incongruent	czerwony	red	niebieski	blue	hit	n/a
348.3457	n/a	RESPONSE	n/a	n/a	n/a	n/a	n/a	n/a	n/a	red
348.3739	1.0167	ITI	n/a	n/a	n/a	n/a	n/a	n/a	n/a	n/a
349.3905	0.5167	FIXCROSS	n/a	n/a	n/a	n/a	n/a	n/a	n/a	n/a
349.9072	0.5833	COLOR_NAME	32	Neutral	czerwony	red	Neutral	Neutral	hit	n/a
350.4572	n/a	RESPONSE	n/a	n/a	n/a	n/a	n/a	n/a	n/a	red
350.4906	1.0167	ITI	n/a	n/a	n/a	n/a	n/a	n/a	n/a	n/a
351.5072	0.5167	FIXCROSS	n/a	n/a	n/a	n/a	n/a	n/a	n/a	n/a
352.0239	1.8333	COLOR_NAME	33	Neutral	zielony	green	Neutral	Neutral	hit	n/a
353.8323	n/a	RESPONSE	n/a	n/a	n/a	n/a	n/a	n/a	n/a	green
353.8572	1.0167	ITI	n/a	n/a	n/a	n/a	n/a	n/a	n/a	n/a
354.8739	0.5167	FIXCROSS	n/a	n/a	n/a	n/a	n/a	n/a	n/a	n/a
355.3906	1.1833	COLOR_NAME	34	Incongruent	czerwony	red	żółty	yellow	hit	n/a
356.5517	n/a	RESPONSE	n/a	n/a	n/a	n/a	n/a	n/a	n/a	red
356.5739	1.0167	ITI	n/a	n/a	n/a	n/a	n/a	n/a	n/a	n/a
357.5906	0.5167	FIXCROSS	n/a	n/a	n/a	n/a	n/a	n/a	n/a	n/a
358.1073	1.3333	COLOR_NAME	35	Neutral	zielony	green	Neutral	Neutral	hit	n/a
359.415	n/a	RESPONSE	n/a	n/a	n/a	n/a	n/a	n/a	n/a	green
359.4406	1.0167	ITI	n/a	n/a	n/a	n/a	n/a	n/a	n/a	n/a
360.4573	0.5167	FIXCROSS	n/a	n/a	n/a	n/a	n/a	n/a	n/a	n/a
360.974	0.8167	COLOR_NAME	36	Incongruent	zielony	green	czerwony	red	hit	n/a
361.7664	n/a	RESPONSE	n/a	n/a	n/a	n/a	n/a	n/a	n/a	green
361.7906	1.0167	ITI	n/a	n/a	n/a	n/a	n/a	n/a	n/a	n/a
362.8073	0.5167	FIXCROSS	n/a	n/a	n/a	n/a	n/a	n/a	n/a	n/a
363.324	0.8167	COLOR_NAME	37	Neutral	żółty	yellow	Neutral	Neutral	hit	n/a
364.1178	n/a	RESPONSE	n/a	n/a	n/a	n/a	n/a	n/a	n/a	yellow
364.1406	1.0167	ITI	n/a	n/a	n/a	n/a	n/a	n/a	n/a	n/a
365.1573	0.5167	FIXCROSS	n/a	n/a	n/a	n/a	n/a	n/a	n/a	n/a
365.674	0.7	COLOR_NAME	38	Neutral	czerwony	red	Neutral	Neutral	hit	n/a
366.3412	n/a	RESPONSE	n/a	n/a	n/a	n/a	n/a	n/a	n/a	red
366.374	1.0167	ITI	n/a	n/a	n/a	n/a	n/a	n/a	n/a	n/a
367.3907	0.5167	FIXCROSS	n/a	n/a	n/a	n/a	n/a	n/a	n/a	n/a
367.9073	0.6167	COLOR_NAME	39	Neutral	czerwony	red	Neutral	Neutral	hit	n/a
368.5007	n/a	RESPONSE	n/a	n/a	n/a	n/a	n/a	n/a	n/a	red
368.524	1.0167	ITI	n/a	n/a	n/a	n/a	n/a	n/a	n/a	n/a
369.5407	0.5167	FIXCROSS	n/a	n/a	n/a	n/a	n/a	n/a	n/a	n/a
370.0574	0.9834	COLOR_NAME	40	Incongruent	zielony	green	żółty	yellow	incorrect	n/a
371.012	n/a	RESPONSE	n/a	n/a	n/a	n/a	n/a	n/a	n/a	yellow
371.0407	1.0167	ITI	n/a	n/a	n/a	n/a	n/a	n/a	n/a	n/a
372.0574	0.5167	FIXCROSS	n/a	n/a	n/a	n/a	n/a	n/a	n/a	n/a
372.574	1.4167	COLOR_NAME	41	Neutral	niebieski	blue	Neutral	Neutral	hit	n/a
373.9713	n/a	RESPONSE	n/a	n/a	n/a	n/a	n/a	n/a	n/a	blue
373.9907	1.0167	ITI	n/a	n/a	n/a	n/a	n/a	n/a	n/a	n/a
375.0074	0.5167	FIXCROSS	n/a	n/a	n/a	n/a	n/a	n/a	n/a	n/a
375.5241	0.6833	COLOR_NAME	42	Neutral	czerwony	red	Neutral	Neutral	hit	n/a
376.1788	n/a	RESPONSE	n/a	n/a	n/a	n/a	n/a	n/a	n/a	red
376.2074	1.0167	ITI	n/a	n/a	n/a	n/a	n/a	n/a	n/a	n/a
377.2241	0.5167	FIXCROSS	n/a	n/a	n/a	n/a	n/a	n/a	n/a	n/a
377.7407	0.8667	COLOR_NAME	43	Neutral	niebieski	blue	Neutral	Neutral	hit	n/a
378.5782	n/a	RESPONSE	n/a	n/a	n/a	n/a	n/a	n/a	n/a	blue
378.6074	1.0167	ITI	n/a	n/a	n/a	n/a	n/a	n/a	n/a	n/a
379.6241	0.5167	FIXCROSS	n/a	n/a	n/a	n/a	n/a	n/a	n/a	n/a
380.1408	1.35	COLOR_NAME	44	Incongruent	zielony	green	żółty	yellow	hit	n/a
381.4575	n/a	RESPONSE	n/a	n/a	n/a	n/a	n/a	n/a	n/a	green
381.4908	1.0167	ITI	n/a	n/a	n/a	n/a	n/a	n/a	n/a	n/a
382.5074	0.5167	FIXCROSS	n/a	n/a	n/a	n/a	n/a	n/a	n/a	n/a
383.0241	0.9833	COLOR_NAME	45	Incongruent	czerwony	red	zielony	green	hit	n/a
383.9849	n/a	RESPONSE	n/a	n/a	n/a	n/a	n/a	n/a	n/a	red
384.0074	1.0167	ITI	n/a	n/a	n/a	n/a	n/a	n/a	n/a	n/a
385.0241	0.5167	FIXCROSS	n/a	n/a	n/a	n/a	n/a	n/a	n/a	n/a
385.5408	1.2834	COLOR_NAME	46	Neutral	zielony	green	Neutral	Neutral	hit	n/a
386.8002	n/a	RESPONSE	n/a	n/a	n/a	n/a	n/a	n/a	n/a	green
386.8241	1.0167	ITI	n/a	n/a	n/a	n/a	n/a	n/a	n/a	n/a
387.8408	0.5167	FIXCROSS	n/a	n/a	n/a	n/a	n/a	n/a	n/a	n/a
388.3575	1.35	COLOR_NAME	47	Neutral	zielony	green	Neutral	Neutral	hit	n/a
389.6795	n/a	RESPONSE	n/a	n/a	n/a	n/a	n/a	n/a	n/a	green
389.7075	1.0167	ITI	n/a	n/a	n/a	n/a	n/a	n/a	n/a	n/a
390.7242	0.5167	FIXCROSS	n/a	n/a	n/a	n/a	n/a	n/a	n/a	n/a
391.2408	1.7834	COLOR_NAME	48	Incongruent	niebieski	blue	żółty	yellow	hit	n/a
393.0066	n/a	RESPONSE	n/a	n/a	n/a	n/a	n/a	n/a	n/a	blue
393.0242	1.0167	ITI	n/a	n/a	n/a	n/a	n/a	n/a	n/a	n/a
394.0409	0.5167	FIXCROSS	n/a	n/a	n/a	n/a	n/a	n/a	n/a	n/a
394.5575	0.9	COLOR_NAME	49	Neutral	żółty	yellow	Neutral	Neutral	hit	n/a
395.438	n/a	RESPONSE	n/a	n/a	n/a	n/a	n/a	n/a	n/a	yellow
395.4575	1.0167	ITI	n/a	n/a	n/a	n/a	n/a	n/a	n/a	n/a
396.4742	0.5167	FIXCROSS	n/a	n/a	n/a	n/a	n/a	n/a	n/a	n/a
396.9909	0.4167	COLOR_NAME	50	Incongruent	zielony	green	czerwony	red	hit	n/a
397.3895	n/a	RESPONSE	n/a	n/a	n/a	n/a	n/a	n/a	n/a	green
397.4075	1.0167	ITI	n/a	n/a	n/a	n/a	n/a	n/a	n/a	n/a
398.4242	0.5167	FIXCROSS	n/a	n/a	n/a	n/a	n/a	n/a	n/a	n/a
398.9409	0.6	COLOR_NAME	51	Neutral	czerwony	red	Neutral	Neutral	hit	n/a
399.517	n/a	RESPONSE	n/a	n/a	n/a	n/a	n/a	n/a	n/a	red
399.5409	1.0167	ITI	n/a	n/a	n/a	n/a	n/a	n/a	n/a	n/a
400.5576	0.5167	FIXCROSS	n/a	n/a	n/a	n/a	n/a	n/a	n/a	n/a
401.0742	0.6167	COLOR_NAME	52	Neutral	czerwony	red	Neutral	Neutral	hit	n/a
401.6605	n/a	RESPONSE	n/a	n/a	n/a	n/a	n/a	n/a	n/a	red
401.6909	1.0167	ITI	n/a	n/a	n/a	n/a	n/a	n/a	n/a	n/a
402.7076	0.5167	FIXCROSS	n/a	n/a	n/a	n/a	n/a	n/a	n/a	n/a
403.2242	1.05	COLOR_NAME	53	Incongruent	żółty	yellow	zielony	green	incorrect	n/a
404.2518	n/a	RESPONSE	n/a	n/a	n/a	n/a	n/a	n/a	n/a	green
404.2743	1.0167	ITI	n/a	n/a	n/a	n/a	n/a	n/a	n/a	n/a
405.2909	0.5167	FIXCROSS	n/a	n/a	n/a	n/a	n/a	n/a	n/a	n/a
405.8076	1.3	COLOR_NAME	54	Incongruent	żółty	yellow	czerwony	red	incorrect	n/a
407.0832	n/a	RESPONSE	n/a	n/a	n/a	n/a	n/a	n/a	n/a	green
407.1076	1.0167	ITI	n/a	n/a	n/a	n/a	n/a	n/a	n/a	n/a
408.1243	0.5167	FIXCROSS	n/a	n/a	n/a	n/a	n/a	n/a	n/a	n/a
408.641	1.5167	COLOR_NAME	55	Incongruent	niebieski	blue	żółty	yellow	hit	n/a
410.1384	n/a	RESPONSE	n/a	n/a	n/a	n/a	n/a	n/a	n/a	blue
410.1576	1.0167	ITI	n/a	n/a	n/a	n/a	n/a	n/a	n/a	n/a
411.1743	0.5167	FIXCROSS	n/a	n/a	n/a	n/a	n/a	n/a	n/a	n/a
411.691	0.7667	COLOR_NAME	56	Neutral	niebieski	blue	Neutral	Neutral	hit	n/a
412.4258	n/a	RESPONSE	n/a	n/a	n/a	n/a	n/a	n/a	n/a	blue
412.4577	1.0167	ITI	n/a	n/a	n/a	n/a	n/a	n/a	n/a	n/a
413.4743	0.5167	FIXCROSS	n/a	n/a	n/a	n/a	n/a	n/a	n/a	n/a
413.991	0.7167	COLOR_NAME	57	Incongruent	czerwony	red	żółty	yellow	hit	n/a
414.6813	n/a	RESPONSE	n/a	n/a	n/a	n/a	n/a	n/a	n/a	red
414.7077	1.0167	ITI	n/a	n/a	n/a	n/a	n/a	n/a	n/a	n/a
415.7243	0.5167	FIXCROSS	n/a	n/a	n/a	n/a	n/a	n/a	n/a	n/a
416.241	1.05	COLOR_NAME	58	Neutral	żółty	yellow	Neutral	Neutral	hit	n/a
417.2726	n/a	RESPONSE	n/a	n/a	n/a	n/a	n/a	n/a	n/a	yellow
417.291	1.0167	ITI	n/a	n/a	n/a	n/a	n/a	n/a	n/a	n/a
418.3077	0.5167	FIXCROSS	n/a	n/a	n/a	n/a	n/a	n/a	n/a	n/a
418.8243	0.5833	COLOR_NAME	59	Neutral	czerwony	red	Neutral	Neutral	hit	n/a
419.3841	n/a	RESPONSE	n/a	n/a	n/a	n/a	n/a	n/a	n/a	red
419.4077	1.0167	ITI	n/a	n/a	n/a	n/a	n/a	n/a	n/a	n/a
420.4244	0.5167	FIXCROSS	n/a	n/a	n/a	n/a	n/a	n/a	n/a	n/a
420.941	0.7333	COLOR_NAME	60	Incongruent	zielony	green	niebieski	blue	hit	n/a
421.6555	n/a	RESPONSE	n/a	n/a	n/a	n/a	n/a	n/a	n/a	green
421.6744	1.0167	ITI	n/a	n/a	n/a	n/a	n/a	n/a	n/a	n/a
422.691	0.5167	FIXCROSS	n/a	n/a	n/a	n/a	n/a	n/a	n/a	n/a
423.2077	1.0333	COLOR_NAME	61	Neutral	zielony	green	Neutral	Neutral	hit	n/a
424.2149	n/a	RESPONSE	n/a	n/a	n/a	n/a	n/a	n/a	n/a	green
424.2411	1.0167	ITI	n/a	n/a	n/a	n/a	n/a	n/a	n/a	n/a
425.2577	0.5167	FIXCROSS	n/a	n/a	n/a	n/a	n/a	n/a	n/a	n/a
425.7744	0.9333	COLOR_NAME	62	Incongruent	czerwony	red	zielony	green	hit	n/a
426.6783	n/a	RESPONSE	n/a	n/a	n/a	n/a	n/a	n/a	n/a	red
426.7077	1.0167	ITI	n/a	n/a	n/a	n/a	n/a	n/a	n/a	n/a
427.7244	0.5167	FIXCROSS	n/a	n/a	n/a	n/a	n/a	n/a	n/a	n/a
428.2411	0.8167	COLOR_NAME	63	Neutral	żółty	yellow	Neutral	Neutral	hit	n/a
429.0297	n/a	RESPONSE	n/a	n/a	n/a	n/a	n/a	n/a	n/a	yellow
429.0578	1.0167	ITI	n/a	n/a	n/a	n/a	n/a	n/a	n/a	n/a
430.0744	0.5167	FIXCROSS	n/a	n/a	n/a	n/a	n/a	n/a	n/a	n/a
430.5911	0.8167	COLOR_NAME	64	Incongruent	czerwony	red	zielony	green	hit	n/a
431.3811	n/a	RESPONSE	n/a	n/a	n/a	n/a	n/a	n/a	n/a	red
431.4078	1.0167	ITI	n/a	n/a	n/a	n/a	n/a	n/a	n/a	n/a
432.4244	0.5167	FIXCROSS	n/a	n/a	n/a	n/a	n/a	n/a	n/a	n/a
432.9411	0.8667	COLOR_NAME	65	Incongruent	żółty	yellow	niebieski	blue	hit	n/a
433.7805	n/a	RESPONSE	n/a	n/a	n/a	n/a	n/a	n/a	n/a	yellow
433.8078	1.0167	ITI	n/a	n/a	n/a	n/a	n/a	n/a	n/a	n/a
434.8245	0.5167	FIXCROSS	n/a	n/a	n/a	n/a	n/a	n/a	n/a	n/a
435.3411	1.2667	COLOR_NAME	66	Neutral	żółty	yellow	Neutral	Neutral	hit	n/a
436.5798	n/a	RESPONSE	n/a	n/a	n/a	n/a	n/a	n/a	n/a	yellow
436.6078	1.0167	ITI	n/a	n/a	n/a	n/a	n/a	n/a	n/a	n/a
437.6245	0.5167	FIXCROSS	n/a	n/a	n/a	n/a	n/a	n/a	n/a	n/a
438.1411	0.8333	COLOR_NAME	67	Incongruent	żółty	yellow	niebieski	blue	hit	n/a
438.9472	n/a	RESPONSE	n/a	n/a	n/a	n/a	n/a	n/a	n/a	yellow
438.9745	1.0167	ITI	n/a	n/a	n/a	n/a	n/a	n/a	n/a	n/a
439.9912	0.5167	FIXCROSS	n/a	n/a	n/a	n/a	n/a	n/a	n/a	n/a
440.5078	0.75	COLOR_NAME	68	Neutral	niebieski	blue	Neutral	Neutral	hit	n/a
441.2347	n/a	RESPONSE	n/a	n/a	n/a	n/a	n/a	n/a	n/a	blue
441.2578	1.0167	ITI	n/a	n/a	n/a	n/a	n/a	n/a	n/a	n/a
442.2745	0.5167	FIXCROSS	n/a	n/a	n/a	n/a	n/a	n/a	n/a	n/a
442.7912	1.2833	COLOR_NAME	69	Incongruent	niebieski	blue	żółty	yellow	hit	n/a
444.05	n/a	RESPONSE	n/a	n/a	n/a	n/a	n/a	n/a	n/a	blue
444.0745	1.0167	ITI	n/a	n/a	n/a	n/a	n/a	n/a	n/a	n/a
445.0912	0.5167	FIXCROSS	n/a	n/a	n/a	n/a	n/a	n/a	n/a	n/a
445.6079	0.8167	COLOR_NAME	70	Incongruent	żółty	yellow	czerwony	red	hit	n/a
446.4014	n/a	RESPONSE	n/a	n/a	n/a	n/a	n/a	n/a	n/a	yellow
446.4245	1.0167	ITI	n/a	n/a	n/a	n/a	n/a	n/a	n/a	n/a
447.4412	0.5167	FIXCROSS	n/a	n/a	n/a	n/a	n/a	n/a	n/a	n/a
447.9579	0.7167	COLOR_NAME	71	Incongruent	czerwony	red	niebieski	blue	hit	n/a
448.6568	n/a	RESPONSE	n/a	n/a	n/a	n/a	n/a	n/a	n/a	red
448.6746	1.0167	ITI	n/a	n/a	n/a	n/a	n/a	n/a	n/a	n/a
449.6912	0.5167	FIXCROSS	n/a	n/a	n/a	n/a	n/a	n/a	n/a	n/a
450.2079	0.8	COLOR_NAME	72	Incongruent	zielony	green	niebieski	blue	hit	n/a
450.9763	n/a	RESPONSE	n/a	n/a	n/a	n/a	n/a	n/a	n/a	green
451.0079	1.0333	ITI	n/a	n/a	n/a	n/a	n/a	n/a	n/a	n/a
455.3112	n/a	RESPONSE	n/a	n/a	n/a	n/a	n/a	n/a	n/a	n/a
