onset	duration	trial_type	braille_stimulus	targets	response_count
2.014	2.008	CUE_REST	n/a	n/a	n/a
7.014	1.008	FIXCROSS	n/a	n/a	n/a
13.064	1.008	FIXCROSS	n/a	n/a	n/a
21.122	2.008	CUE_6_DOT	n/a	n/a	n/a
26.122	1.008	FIXCROSS	n/a	n/a	n/a
27.138	5.009	6_DOT_DETECTION	POD##	2	n/a
32.172	1.008	FIXCROSS	n/a	n/a	n/a
32.944	n/a	RESPONSE	n/a	n/a	1/2
33.189	5.008	6_DOT_DETECTION	SSTMT	0	n/a
36.64	n/a	RESPONSE	n/a	n/a	1/0
38.221	1.009	FIXCROSS	n/a	n/a	n/a
39.239	5.008	6_DOT_DETECTION	##KOT	2	n/a
41.6	n/a	RESPONSE	n/a	n/a	1/2
44.271	1.009	FIXCROSS	n/a	n/a	n/a
45.289	5.008	6_DOT_DETECTION	OCPPC	0	n/a
48.36	n/a	RESPONSE	n/a	n/a	1/0
50.322	1.008	FIXCROSS	n/a	n/a	n/a
51.339	5.008	6_DOT_DETECTION	AKT##	2	n/a
55.12	n/a	RESPONSE	n/a	n/a	1/2
56.372	1.008	FIXCROSS	n/a	n/a	n/a
57.388	5.009	6_DOT_DETECTION	ODŁSE	0	n/a
62.422	1.008	FIXCROSS	n/a	n/a	n/a
63.438	5.009	6_DOT_DETECTION	#LMCI	1	n/a
65.32	n/a	RESPONSE	n/a	n/a	1/1
68.472	1.008	FIXCROSS	n/a	n/a	n/a
69.488	5.009	6_DOT_DETECTION	##MYK	2	n/a
76.03	2.008	CUE_REST	n/a	n/a	n/a
82.53	1.008	FIXCROSS	n/a	n/a	n/a
88.58	1.008	FIXCROSS	n/a	n/a	n/a
95.639	2.008	CUE_6_DOT	n/a	n/a	n/a
100.639	1.008	FIXCROSS	n/a	n/a	n/a
101.656	5.008	6_DOT_DETECTION	KUŁ##	2	n/a
106.104	n/a	RESPONSE	n/a	n/a	1/2
106.689	1.008	FIXCROSS	n/a	n/a	n/a
107.706	5.008	6_DOT_DETECTION	OALDO	0	n/a
112.739	1.008	FIXCROSS	n/a	n/a	n/a
113.755	5.009	6_DOT_DETECTION	#TLI#	2	n/a
118.789	1.008	FIXCROSS	n/a	n/a	n/a
118.824	n/a	RESPONSE	n/a	n/a	1/2
119.806	5.008	6_DOT_DETECTION	KAAE#	1	n/a
124.839	1.008	FIXCROSS	n/a	n/a	n/a
125.04	n/a	RESPONSE	n/a	n/a	1/1
125.856	5.008	6_DOT_DETECTION	#DLA#	2	n/a
128.44	n/a	RESPONSE	n/a	n/a	1/2
130.68	n/a	RESPONSE	n/a	n/a	2/2
130.889	1.008	FIXCROSS	n/a	n/a	n/a
131.906	5.008	6_DOT_DETECTION	KCCDB	0	n/a
135.68	n/a	RESPONSE	n/a	n/a	1/0
136.939	1.008	FIXCROSS	n/a	n/a	n/a
137.956	5.008	6_DOT_DETECTION	##OKO	2	n/a
138.864	n/a	RESPONSE	n/a	n/a	1/2
142.989	1.008	FIXCROSS	n/a	n/a	n/a
144.005	5.009	6_DOT_DETECTION	TADMM	0	n/a
150.547	2.008	CUE_REST	n/a	n/a	n/a
155.047	1.008	FIXCROSS	n/a	n/a	n/a
161.097	1.008	FIXCROSS	n/a	n/a	n/a
168.656	2.008	CUE_6_DOT	n/a	n/a	n/a
175.156	1.008	FIXCROSS	n/a	n/a	n/a
176.172	5.009	6_DOT_DETECTION	AII#P	1	n/a
179.144	n/a	RESPONSE	n/a	n/a	1/1
180.544	n/a	RESPONSE	n/a	n/a	2/1
181.206	1.008	FIXCROSS	n/a	n/a	n/a
182.222	5.008	6_DOT_DETECTION	#SAM#	2	n/a
187.024	n/a	RESPONSE	n/a	n/a	1/2
187.256	1.008	FIXCROSS	n/a	n/a	n/a
188.272	5.008	6_DOT_DETECTION	SUB#D	1	n/a
193.224	n/a	RESPONSE	n/a	n/a	1/1
193.306	1.008	FIXCROSS	n/a	n/a	n/a
194.322	5.008	6_DOT_DETECTION	#KOK#	2	n/a
197.224	n/a	RESPONSE	n/a	n/a	1/2
199.356	1.008	FIXCROSS	n/a	n/a	n/a
199.68	n/a	RESPONSE	n/a	n/a	2/2
200.372	5.009	6_DOT_DETECTION	TMSŁE	0	n/a
205.405	1.009	FIXCROSS	n/a	n/a	n/a
206.423	5.008	6_DOT_DETECTION	OTO##	2	n/a
209.4	n/a	RESPONSE	n/a	n/a	1/2
211.455	1.009	FIXCROSS	n/a	n/a	n/a
212.473	5.008	6_DOT_DETECTION	#LDDO	1	n/a
217.506	1.008	FIXCROSS	n/a	n/a	n/a
218.523	5.008	6_DOT_DETECTION	##ODA	2	n/a
221.944	n/a	RESPONSE	n/a	n/a	1/2
225.564	2.008	CUE_REST	n/a	n/a	n/a
229.564	1.008	FIXCROSS	n/a	n/a	n/a
235.614	1.008	FIXCROSS	n/a	n/a	n/a
243.673	2.008	CUE_6_DOT	n/a	n/a	n/a
249.673	1.008	FIXCROSS	n/a	n/a	n/a
250.689	5.008	6_DOT_DETECTION	#KIM#	2	n/a
252.32	n/a	RESPONSE	n/a	n/a	1/2
255.464	n/a	RESPONSE	n/a	n/a	2/2
255.723	1.008	FIXCROSS	n/a	n/a	n/a
256.739	5.009	6_DOT_DETECTION	AK#OC	1	n/a
259.88	n/a	RESPONSE	n/a	n/a	1/1
261.264	n/a	RESPONSE	n/a	n/a	2/1
261.773	1.008	FIXCROSS	n/a	n/a	n/a
262.79	5.008	6_DOT_DETECTION	CTP#C	1	n/a
267.823	1.008	FIXCROSS	n/a	n/a	n/a
268.024	n/a	RESPONSE	n/a	n/a	1/1
268.839	5.009	6_DOT_DETECTION	BAL##	2	n/a
273.873	1.008	FIXCROSS	n/a	n/a	n/a
274.224	n/a	RESPONSE	n/a	n/a	1/2
274.89	5.008	6_DOT_DETECTION	#KOC#	2	n/a
279.923	1.008	FIXCROSS	n/a	n/a	n/a
280.104	n/a	RESPONSE	n/a	n/a	1/2
280.94	5.008	6_DOT_DETECTION	BO#BS	1	n/a
284.36	n/a	RESPONSE	n/a	n/a	1/1
285.973	1.008	FIXCROSS	n/a	n/a	n/a
286.99	5.008	6_DOT_DETECTION	#OBA#	2	n/a
288.12	n/a	RESPONSE	n/a	n/a	1/2
290.72	n/a	RESPONSE	n/a	n/a	2/2
292.023	1.008	FIXCROSS	n/a	n/a	n/a
293.04	5.008	6_DOT_DETECTION	CDLD#	1	n/a
296.464	n/a	RESPONSE	n/a	n/a	1/1
299.081	2.008	CUE_REST	n/a	n/a	n/a
305.081	1.008	FIXCROSS	n/a	n/a	n/a
311.131	1.008	FIXCROSS	n/a	n/a	n/a
318.69	2.008	CUE_6_DOT	n/a	n/a	n/a
324.19	1.008	FIXCROSS	n/a	n/a	n/a
325.206	5.008	6_DOT_DETECTION	TE#DK	1	n/a
327.8	n/a	RESPONSE	n/a	n/a	1/1
330.24	1.008	FIXCROSS	n/a	n/a	n/a
331.256	5.009	6_DOT_DETECTION	##LAM	2	n/a
336.29	1.008	FIXCROSS	n/a	n/a	n/a
337.306	5.008	6_DOT_DETECTION	KUC##	2	n/a
340.64	n/a	RESPONSE	n/a	n/a	1/2
341.8	n/a	RESPONSE	n/a	n/a	2/2
342.34	1.008	FIXCROSS	n/a	n/a	n/a
343.356	5.008	6_DOT_DETECTION	ATDUL	0	n/a
348.389	1.009	FIXCROSS	n/a	n/a	n/a
349.406	5.008	6_DOT_DETECTION	##SYK	2	n/a
351.264	n/a	RESPONSE	n/a	n/a	1/2
354.44	1.008	FIXCROSS	n/a	n/a	n/a
355.456	5.008	6_DOT_DETECTION	LBDLS	0	n/a
360.48	n/a	RESPONSE	n/a	n/a	1/0
360.49	1.008	FIXCROSS	n/a	n/a	n/a
361.506	5.009	6_DOT_DETECTION	LIC##	2	n/a
365.12	n/a	RESPONSE	n/a	n/a	1/2
366.539	1.009	FIXCROSS	n/a	n/a	n/a
367.556	5.008	6_DOT_DETECTION	#BBTA	1	n/a
369.72	n/a	RESPONSE	n/a	n/a	1/1
373.598	2.008	CUE_REST	n/a	n/a	n/a
380.598	1.008	FIXCROSS	n/a	n/a	n/a
386.648	1.008	FIXCROSS	n/a	n/a	n/a
393.707	2.008	CUE_6_DOT	n/a	n/a	n/a
398.707	1.008	FIXCROSS	n/a	n/a	n/a
399.723	5.008	6_DOT_DETECTION	PAL##	2	n/a
403.801	n/a	RESPONSE	n/a	n/a	1/2
404.757	1.008	FIXCROSS	n/a	n/a	n/a
405.773	5.009	6_DOT_DETECTION	ACCDB	0	n/a
410.807	1.008	FIXCROSS	n/a	n/a	n/a
411.823	5.008	6_DOT_DETECTION	##PAŁ	2	n/a
413.224	n/a	RESPONSE	n/a	n/a	1/2
414.801	n/a	RESPONSE	n/a	n/a	2/2
416.857	1.008	FIXCROSS	n/a	n/a	n/a
417.873	5.008	6_DOT_DETECTION	CB#CL	1	n/a
421.625	n/a	RESPONSE	n/a	n/a	1/1
422.907	1.008	FIXCROSS	n/a	n/a	n/a
423.923	5.008	6_DOT_DETECTION	##BOK	2	n/a
426.641	n/a	RESPONSE	n/a	n/a	1/2
428.957	1.008	FIXCROSS	n/a	n/a	n/a
429.973	5.008	6_DOT_DETECTION	UUACO	0	n/a
435.007	1.008	FIXCROSS	n/a	n/a	n/a
436.023	5.009	6_DOT_DETECTION	ADAOD	0	n/a
441.057	1.008	FIXCROSS	n/a	n/a	n/a
442.073	5.009	6_DOT_DETECTION	#MOP#	2	n/a
445.385	n/a	RESPONSE	n/a	n/a	1/2
