onset	duration	trial_type	braille_stimulus	targets	response_count
2.014	2.008	CUE_REST	n/a	n/a	n/a
7.014	1.008	FIXCROSS	n/a	n/a	n/a
13.064	1.008	FIXCROSS	n/a	n/a	n/a
21.123	2.008	CUE_6_DOT	n/a	n/a	n/a
26.123	1.008	FIXCROSS	n/a	n/a	n/a
27.139	5.009	6_DOT_DETECTION	C#CEŁ	1	n/a
29.96	n/a	RESPONSE	n/a	n/a	1/1
32.173	1.008	FIXCROSS	n/a	n/a	n/a
33.19	5.008	6_DOT_DETECTION	ITŁEM	0	n/a
38.223	1.008	FIXCROSS	n/a	n/a	n/a
39.239	5.009	6_DOT_DETECTION	TEK##	2	n/a
43.264	n/a	RESPONSE	n/a	n/a	1/2
44.273	1.008	FIXCROSS	n/a	n/a	n/a
44.624	n/a	RESPONSE	n/a	n/a	2/2
45.289	5.009	6_DOT_DETECTION	O#LAS	1	n/a
47.4	n/a	RESPONSE	n/a	n/a	1/1
50.323	1.008	FIXCROSS	n/a	n/a	n/a
51.339	5.009	6_DOT_DETECTION	KOP#M	1	n/a
54.2	n/a	RESPONSE	n/a	n/a	1/1
56.373	1.008	FIXCROSS	n/a	n/a	n/a
57.39	5.008	6_DOT_DETECTION	SB#OL	1	n/a
60.24	n/a	RESPONSE	n/a	n/a	1/1
62.423	1.008	FIXCROSS	n/a	n/a	n/a
63.44	5.008	6_DOT_DETECTION	##KAT	2	n/a
65.504	n/a	RESPONSE	n/a	n/a	1/2
67.44	n/a	RESPONSE	n/a	n/a	2/2
68.473	1.008	FIXCROSS	n/a	n/a	n/a
69.49	5.008	6_DOT_DETECTION	DTIDI	0	n/a
76.031	2.008	CUE_REST	n/a	n/a	n/a
82.531	1.008	FIXCROSS	n/a	n/a	n/a
88.581	1.008	FIXCROSS	n/a	n/a	n/a
95.64	2.008	CUE_6_DOT	n/a	n/a	n/a
100.64	1.008	FIXCROSS	n/a	n/a	n/a
101.656	5.008	6_DOT_DETECTION	BUT##	2	n/a
106.456	n/a	RESPONSE	n/a	n/a	1/2
106.69	1.008	FIXCROSS	n/a	n/a	n/a
107.706	5.008	6_DOT_DETECTION	APD#C	1	n/a
112.496	n/a	RESPONSE	n/a	n/a	1/1
112.74	1.008	FIXCROSS	n/a	n/a	n/a
113.756	5.009	6_DOT_DETECTION	EUBEC	0	n/a
118.79	1.008	FIXCROSS	n/a	n/a	n/a
119.806	5.008	6_DOT_DETECTION	KMŁKM	0	n/a
124.84	1.008	FIXCROSS	n/a	n/a	n/a
125.856	5.008	6_DOT_DETECTION	#PSU#	2	n/a
127.416	n/a	RESPONSE	n/a	n/a	1/2
130.416	n/a	RESPONSE	n/a	n/a	2/2
130.89	1.008	FIXCROSS	n/a	n/a	n/a
131.906	5.008	6_DOT_DETECTION	PMSKK	0	n/a
136.94	1.008	FIXCROSS	n/a	n/a	n/a
137.956	5.008	6_DOT_DETECTION	T#BUD	1	n/a
140.36	n/a	RESPONSE	n/a	n/a	1/1
142.99	1.008	FIXCROSS	n/a	n/a	n/a
144.006	5.008	6_DOT_DETECTION	#KMBŁ	1	n/a
145.56	n/a	RESPONSE	n/a	n/a	1/1
150.548	2.008	CUE_REST	n/a	n/a	n/a
155.048	1.008	FIXCROSS	n/a	n/a	n/a
161.098	1.008	FIXCROSS	n/a	n/a	n/a
168.657	2.008	CUE_6_DOT	n/a	n/a	n/a
175.157	1.008	FIXCROSS	n/a	n/a	n/a
176.173	5.009	6_DOT_DETECTION	A#ŁAP	1	n/a
178.52	n/a	RESPONSE	n/a	n/a	1/1
181.207	1.008	FIXCROSS	n/a	n/a	n/a
182.223	5.008	6_DOT_DETECTION	TYŁ##	2	n/a
186.24	n/a	RESPONSE	n/a	n/a	1/2
187.257	1.008	FIXCROSS	n/a	n/a	n/a
187.736	n/a	RESPONSE	n/a	n/a	2/2
188.273	5.009	6_DOT_DETECTION	TOK##	2	n/a
193.307	1.008	FIXCROSS	n/a	n/a	n/a
194.323	5.008	6_DOT_DETECTION	DBA#C	1	n/a
199.357	1.008	FIXCROSS	n/a	n/a	n/a
200.373	5.008	6_DOT_DETECTION	KTIŁŁ	0	n/a
205.407	1.008	FIXCROSS	n/a	n/a	n/a
206.423	5.009	6_DOT_DETECTION	BLCLK	0	n/a
211.457	1.008	FIXCROSS	n/a	n/a	n/a
212.473	5.009	6_DOT_DETECTION	ESY##	2	n/a
216.28	n/a	RESPONSE	n/a	n/a	1/2
217.136	n/a	RESPONSE	n/a	n/a	2/2
217.507	1.008	FIXCROSS	n/a	n/a	n/a
218.523	5.009	6_DOT_DETECTION	STO#E	1	n/a
225.565	2.008	CUE_REST	n/a	n/a	n/a
229.565	1.008	FIXCROSS	n/a	n/a	n/a
235.615	1.008	FIXCROSS	n/a	n/a	n/a
243.674	2.008	CUE_6_DOT	n/a	n/a	n/a
249.674	1.008	FIXCROSS	n/a	n/a	n/a
250.69	5.008	6_DOT_DETECTION	#ULE#	2	n/a
252.776	n/a	RESPONSE	n/a	n/a	1/2
255.28	n/a	RESPONSE	n/a	n/a	2/2
255.724	1.008	FIXCROSS	n/a	n/a	n/a
256.74	5.008	6_DOT_DETECTION	#SAD#	2	n/a
258.4	n/a	RESPONSE	n/a	n/a	1/2
260.88	n/a	RESPONSE	n/a	n/a	2/2
261.774	1.008	FIXCROSS	n/a	n/a	n/a
262.79	5.008	6_DOT_DETECTION	AŁDLK	0	n/a
267.824	1.008	FIXCROSS	n/a	n/a	n/a
268.84	5.009	6_DOT_DETECTION	##PYŁ	2	n/a
270.48	n/a	RESPONSE	n/a	n/a	1/2
271.776	n/a	RESPONSE	n/a	n/a	2/2
273.874	1.008	FIXCROSS	n/a	n/a	n/a
274.89	5.008	6_DOT_DETECTION	ŁPPTY	0	n/a
279.924	1.008	FIXCROSS	n/a	n/a	n/a
280.94	5.008	6_DOT_DETECTION	ŁY#SE	1	n/a
285.336	n/a	RESPONSE	n/a	n/a	1/1
285.974	1.008	FIXCROSS	n/a	n/a	n/a
286.99	5.008	6_DOT_DETECTION	CIKUE	0	n/a
292.024	1.008	FIXCROSS	n/a	n/a	n/a
293.04	5.008	6_DOT_DETECTION	P#ŁUY	1	n/a
295.136	n/a	RESPONSE	n/a	n/a	1/1
299.082	2.008	CUE_REST	n/a	n/a	n/a
305.082	1.008	FIXCROSS	n/a	n/a	n/a
311.132	1.008	FIXCROSS	n/a	n/a	n/a
318.69	2.008	CUE_6_DOT	n/a	n/a	n/a
324.19	1.008	FIXCROSS	n/a	n/a	n/a
325.207	5.008	6_DOT_DETECTION	LLACB	0	n/a
330.24	1.008	FIXCROSS	n/a	n/a	n/a
331.257	5.008	6_DOT_DETECTION	OAICU	0	n/a
336.29	1.008	FIXCROSS	n/a	n/a	n/a
337.307	5.008	6_DOT_DETECTION	#MIS#	2	n/a
338.576	n/a	RESPONSE	n/a	n/a	1/2
341.976	n/a	RESPONSE	n/a	n/a	2/2
342.34	1.008	FIXCROSS	n/a	n/a	n/a
343.356	5.009	6_DOT_DETECTION	ŁCDCA	0	n/a
348.39	1.008	FIXCROSS	n/a	n/a	n/a
349.406	5.009	6_DOT_DETECTION	Y#LEK	1	n/a
350.68	n/a	RESPONSE	n/a	n/a	1/1
351.88	n/a	RESPONSE	n/a	n/a	2/1
354.44	1.008	FIXCROSS	n/a	n/a	n/a
355.457	5.008	6_DOT_DETECTION	TAK#P	1	n/a
359.48	n/a	RESPONSE	n/a	n/a	1/1
360.49	1.008	FIXCROSS	n/a	n/a	n/a
361.507	5.008	6_DOT_DETECTION	LSC##	2	n/a
365.24	n/a	RESPONSE	n/a	n/a	1/2
366.54	1.008	FIXCROSS	n/a	n/a	n/a
367.136	n/a	RESPONSE	n/a	n/a	2/2
367.557	5.008	6_DOT_DETECTION	BSEBL	0	n/a
373.599	2.008	CUE_REST	n/a	n/a	n/a
380.599	1.008	FIXCROSS	n/a	n/a	n/a
386.649	1.008	FIXCROSS	n/a	n/a	n/a
393.707	2.008	CUE_6_DOT	n/a	n/a	n/a
398.707	1.008	FIXCROSS	n/a	n/a	n/a
399.724	5.008	6_DOT_DETECTION	#DAT#	2	n/a
401.84	n/a	RESPONSE	n/a	n/a	1/2
404.757	1.008	FIXCROSS	n/a	n/a	n/a
405.08	n/a	RESPONSE	n/a	n/a	2/2
405.774	5.008	6_DOT_DETECTION	YEAAK	0	n/a
410.807	1.008	FIXCROSS	n/a	n/a	n/a
411.824	5.008	6_DOT_DETECTION	##IEY	2	n/a
413.2	n/a	RESPONSE	n/a	n/a	1/2
414.296	n/a	RESPONSE	n/a	n/a	2/2
416.857	1.008	FIXCROSS	n/a	n/a	n/a
417.874	5.008	6_DOT_DETECTION	SOK#Ł	1	n/a
421.576	n/a	RESPONSE	n/a	n/a	1/1
422.907	1.008	FIXCROSS	n/a	n/a	n/a
423.923	5.009	6_DOT_DETECTION	##MAK	2	n/a
425.28	n/a	RESPONSE	n/a	n/a	1/2
426.576	n/a	RESPONSE	n/a	n/a	2/2
428.957	1.008	FIXCROSS	n/a	n/a	n/a
429.974	5.008	6_DOT_DETECTION	OYŁ#Ł	1	n/a
434.92	n/a	RESPONSE	n/a	n/a	1/1
435.007	1.008	FIXCROSS	n/a	n/a	n/a
436.024	5.008	6_DOT_DETECTION	##POP	2	n/a
437.296	n/a	RESPONSE	n/a	n/a	1/2
438.336	n/a	RESPONSE	n/a	n/a	2/2
441.057	1.008	FIXCROSS	n/a	n/a	n/a
442.074	5.009	6_DOT_DETECTION	ŁSCPT	0	n/a
