onset	duration	trial_type	trial_number	stroop_condition	stim_text(PL)	stim_text(eng)	stim_color(PL)	stim_color(eng)	response_type	response_color
0.0	n/a	RESPONSE	n/a	n/a	n/a	n/a	n/a	n/a	n/a	n/a
0.0651	1.0334	ITI	n/a	n/a	n/a	n/a	n/a	n/a	n/a	n/a
1.0984	0.5167	FIXCROSS	n/a	n/a	n/a	n/a	n/a	n/a	n/a	n/a
1.6151	1.35	T_INK	1	Neutral	xxxxxxxx	xxxxxxxx	niebieski	blue	hit	n/a
2.9391	n/a	RESPONSE	n/a	n/a	n/a	n/a	n/a	n/a	n/a	blue
2.9651	0.5167	FEEDBACK	n/a	n/a	n/a	n/a	n/a	n/a	n/a	n/a
3.4818	1.0167	ITI	n/a	n/a	n/a	n/a	n/a	n/a	n/a	n/a
4.4984	0.5167	FIXCROSS	n/a	n/a	n/a	n/a	n/a	n/a	n/a	n/a
5.0151	1.2333	T_INK	2	Incongruent	czerwony	red	niebieski	blue	incorrect	n/a
6.2136	n/a	RESPONSE	n/a	n/a	n/a	n/a	n/a	n/a	n/a	red
6.2485	0.5167	FEEDBACK	n/a	n/a	n/a	n/a	n/a	n/a	n/a	n/a
6.7651	1.0167	ITI	n/a	n/a	n/a	n/a	n/a	n/a	n/a	n/a
7.7818	0.5167	FIXCROSS	n/a	n/a	n/a	n/a	n/a	n/a	n/a	n/a
8.2985	1.45	T_INK	3	Neutral	xxxxxxxx	xxxxxxxx	żółty	yellow	hit	n/a
9.7277	n/a	RESPONSE	n/a	n/a	n/a	n/a	n/a	n/a	n/a	yellow
9.7485	0.5167	FEEDBACK	n/a	n/a	n/a	n/a	n/a	n/a	n/a	n/a
10.2652	1.0167	ITI	n/a	n/a	n/a	n/a	n/a	n/a	n/a	n/a
11.2818	0.5167	FIXCROSS	n/a	n/a	n/a	n/a	n/a	n/a	n/a	n/a
11.7985	1.0667	T_INK	4	Neutral	xxxxxxxxx	xxxxxxxxx	żółty	yellow	hit	n/a
12.8424	n/a	RESPONSE	n/a	n/a	n/a	n/a	n/a	n/a	n/a	yellow
12.8652	0.5167	FEEDBACK	n/a	n/a	n/a	n/a	n/a	n/a	n/a	n/a
13.3819	1.0167	ITI	n/a	n/a	n/a	n/a	n/a	n/a	n/a	n/a
14.3985	0.5167	FIXCROSS	n/a	n/a	n/a	n/a	n/a	n/a	n/a	n/a
14.9152	1.4	T_INK	5	Neutral	xxxxxxxx	xxxxxxxx	zielony	green	hit	n/a
16.2926	n/a	RESPONSE	n/a	n/a	n/a	n/a	n/a	n/a	n/a	green
16.3152	0.5167	FEEDBACK	n/a	n/a	n/a	n/a	n/a	n/a	n/a	n/a
16.8319	1.0167	ITI	n/a	n/a	n/a	n/a	n/a	n/a	n/a	n/a
17.8486	0.5167	FIXCROSS	n/a	n/a	n/a	n/a	n/a	n/a	n/a	n/a
18.3652	1.0667	T_INK	6	Neutral	xxxxx	xxxxx	niebieski	blue	hit	n/a
19.4073	n/a	RESPONSE	n/a	n/a	n/a	n/a	n/a	n/a	n/a	blue
19.4319	0.5167	FEEDBACK	n/a	n/a	n/a	n/a	n/a	n/a	n/a	n/a
19.9486	1.0167	ITI	n/a	n/a	n/a	n/a	n/a	n/a	n/a	n/a
20.9653	0.5167	FIXCROSS	n/a	n/a	n/a	n/a	n/a	n/a	n/a	n/a
21.4819	1.05	T_INK	7	Neutral	xxxxxxxxx	xxxxxxxxx	zielony	green	hit	n/a
22.5062	n/a	RESPONSE	n/a	n/a	n/a	n/a	n/a	n/a	n/a	green
22.5319	0.5167	FEEDBACK	n/a	n/a	n/a	n/a	n/a	n/a	n/a	n/a
23.0486	1.0167	ITI	n/a	n/a	n/a	n/a	n/a	n/a	n/a	n/a
24.0653	0.5167	FIXCROSS	n/a	n/a	n/a	n/a	n/a	n/a	n/a	n/a
24.582	1.25	T_INK	8	Incongruent	żółty	yellow	zielony	green	hit	n/a
25.7966	n/a	RESPONSE	n/a	n/a	n/a	n/a	n/a	n/a	n/a	green
25.832	0.5167	FEEDBACK	n/a	n/a	n/a	n/a	n/a	n/a	n/a	n/a
26.3486	1.0167	ITI	n/a	n/a	n/a	n/a	n/a	n/a	n/a	n/a
27.3653	0.5167	FIXCROSS	n/a	n/a	n/a	n/a	n/a	n/a	n/a	n/a
27.882	0.9667	T_INK	9	Neutral	xxxxxxx	xxxxxxx	niebieski	blue	hit	n/a
28.8156	n/a	RESPONSE	n/a	n/a	n/a	n/a	n/a	n/a	n/a	blue
28.8487	0.5167	FEEDBACK	n/a	n/a	n/a	n/a	n/a	n/a	n/a	n/a
29.3653	1.0167	ITI	n/a	n/a	n/a	n/a	n/a	n/a	n/a	n/a
30.382	0.5167	FIXCROSS	n/a	n/a	n/a	n/a	n/a	n/a	n/a	n/a
30.8987	1.1167	T_INK	10	Neutral	xxxxxxxxx	xxxxxxxxx	czerwony	red	hit	n/a
31.9942	n/a	RESPONSE	n/a	n/a	n/a	n/a	n/a	n/a	n/a	red
32.0153	0.5167	FEEDBACK	n/a	n/a	n/a	n/a	n/a	n/a	n/a	n/a
32.532	1.0167	ITI	n/a	n/a	n/a	n/a	n/a	n/a	n/a	n/a
33.5487	0.5167	FIXCROSS	n/a	n/a	n/a	n/a	n/a	n/a	n/a	n/a
34.0654	1.15	T_INK	11	Incongruent	niebieski	blue	czerwony	red	hit	n/a
35.1889	n/a	RESPONSE	n/a	n/a	n/a	n/a	n/a	n/a	n/a	red
35.2154	0.5167	FEEDBACK	n/a	n/a	n/a	n/a	n/a	n/a	n/a	n/a
35.732	1.0167	ITI	n/a	n/a	n/a	n/a	n/a	n/a	n/a	n/a
36.7487	0.5167	FIXCROSS	n/a	n/a	n/a	n/a	n/a	n/a	n/a	n/a
37.2654	1.0667	T_INK	12	Incongruent	żółty	yellow	niebieski	blue	hit	n/a
38.3036	n/a	RESPONSE	n/a	n/a	n/a	n/a	n/a	n/a	n/a	blue
38.3321	0.5167	FEEDBACK	n/a	n/a	n/a	n/a	n/a	n/a	n/a	n/a
38.8487	1.0333	ITI	n/a	n/a	n/a	n/a	n/a	n/a	n/a	n/a
46.9611	n/a	RESPONSE	n/a	n/a	n/a	n/a	n/a	n/a	n/a	n/a
47.0155	1.0167	ITI	n/a	n/a	n/a	n/a	n/a	n/a	n/a	n/a
48.0321	0.5167	FIXCROSS	n/a	n/a	n/a	n/a	n/a	n/a	n/a	n/a
48.5488	1.0833	INK	1	Incongruent	zielony	green	żółty	yellow	hit	n/a
49.6127	n/a	RESPONSE	n/a	n/a	n/a	n/a	n/a	n/a	n/a	yellow
49.6322	1.0167	ITI	n/a	n/a	n/a	n/a	n/a	n/a	n/a	n/a
50.6488	0.5167	FIXCROSS	n/a	n/a	n/a	n/a	n/a	n/a	n/a	n/a
51.1655	0.65	INK	2	Neutral	xxxxxxx	xxxxxxx	żółty	yellow	hit	n/a
51.785	n/a	RESPONSE	n/a	n/a	n/a	n/a	n/a	n/a	n/a	yellow
51.8155	1.0167	ITI	n/a	n/a	n/a	n/a	n/a	n/a	n/a	n/a
52.8322	0.5167	FIXCROSS	n/a	n/a	n/a	n/a	n/a	n/a	n/a	n/a
53.3489	0.85	INK	3	Incongruent	zielony	green	żółty	yellow	hit	n/a
54.1809	n/a	RESPONSE	n/a	n/a	n/a	n/a	n/a	n/a	n/a	yellow
54.1989	1.0167	ITI	n/a	n/a	n/a	n/a	n/a	n/a	n/a	n/a
55.2155	0.5167	FIXCROSS	n/a	n/a	n/a	n/a	n/a	n/a	n/a	n/a
55.7322	0.5833	INK	4	Neutral	xxxxxxxxx	xxxxxxxxx	żółty	yellow	hit	n/a
56.2894	n/a	RESPONSE	n/a	n/a	n/a	n/a	n/a	n/a	n/a	yellow
56.3155	1.0167	ITI	n/a	n/a	n/a	n/a	n/a	n/a	n/a	n/a
57.3322	0.5167	FIXCROSS	n/a	n/a	n/a	n/a	n/a	n/a	n/a	n/a
57.8489	0.9167	INK	5	Incongruent	czerwony	red	żółty	yellow	hit	n/a
58.7334	n/a	RESPONSE	n/a	n/a	n/a	n/a	n/a	n/a	n/a	yellow
58.7656	1.0167	ITI	n/a	n/a	n/a	n/a	n/a	n/a	n/a	n/a
59.7822	0.5167	FIXCROSS	n/a	n/a	n/a	n/a	n/a	n/a	n/a	n/a
60.2989	1.05	INK	6	Incongruent	niebieski	blue	zielony	green	hit	n/a
61.321	n/a	RESPONSE	n/a	n/a	n/a	n/a	n/a	n/a	n/a	green
61.3489	1.0167	ITI	n/a	n/a	n/a	n/a	n/a	n/a	n/a	n/a
62.3656	0.5167	FIXCROSS	n/a	n/a	n/a	n/a	n/a	n/a	n/a	n/a
62.8823	0.6333	INK	7	Incongruent	żółty	yellow	zielony	green	hit	n/a
63.4933	n/a	RESPONSE	n/a	n/a	n/a	n/a	n/a	n/a	n/a	green
63.5156	1.0167	ITI	n/a	n/a	n/a	n/a	n/a	n/a	n/a	n/a
64.5323	0.5167	FIXCROSS	n/a	n/a	n/a	n/a	n/a	n/a	n/a	n/a
65.049	1.05	INK	8	Neutral	xxxxxxx	xxxxxxx	czerwony	red	hit	n/a
66.0651	n/a	RESPONSE	n/a	n/a	n/a	n/a	n/a	n/a	n/a	red
66.099	1.0167	ITI	n/a	n/a	n/a	n/a	n/a	n/a	n/a	n/a
67.1156	0.5167	FIXCROSS	n/a	n/a	n/a	n/a	n/a	n/a	n/a	n/a
67.6323	0.8833	INK	9	Incongruent	zielony	green	niebieski	blue	hit	n/a
68.4929	n/a	RESPONSE	n/a	n/a	n/a	n/a	n/a	n/a	n/a	blue
68.5157	1.0167	ITI	n/a	n/a	n/a	n/a	n/a	n/a	n/a	n/a
69.5323	0.5167	FIXCROSS	n/a	n/a	n/a	n/a	n/a	n/a	n/a	n/a
70.049	0.9667	INK	10	Neutral	xxxxx	xxxxx	czerwony	red	hit	n/a
70.9848	n/a	RESPONSE	n/a	n/a	n/a	n/a	n/a	n/a	n/a	red
71.0157	1.0167	ITI	n/a	n/a	n/a	n/a	n/a	n/a	n/a	n/a
72.0323	0.5167	FIXCROSS	n/a	n/a	n/a	n/a	n/a	n/a	n/a	n/a
72.549	0.8333	INK	11	Neutral	xxxxxxx	xxxxxxx	żółty	yellow	hit	n/a
73.3487	n/a	RESPONSE	n/a	n/a	n/a	n/a	n/a	n/a	n/a	yellow
73.3824	1.0167	ITI	n/a	n/a	n/a	n/a	n/a	n/a	n/a	n/a
74.399	0.5167	FIXCROSS	n/a	n/a	n/a	n/a	n/a	n/a	n/a	n/a
74.9157	1.4333	INK	12	Incongruent	niebieski	blue	czerwony	red	hit	n/a
76.3198	n/a	RESPONSE	n/a	n/a	n/a	n/a	n/a	n/a	n/a	red
76.349	1.0167	ITI	n/a	n/a	n/a	n/a	n/a	n/a	n/a	n/a
77.3657	0.5167	FIXCROSS	n/a	n/a	n/a	n/a	n/a	n/a	n/a	n/a
77.8824	0.9333	INK	13	Neutral	xxxxx	xxxxx	niebieski	blue	hit	n/a
78.7957	n/a	RESPONSE	n/a	n/a	n/a	n/a	n/a	n/a	n/a	blue
78.8157	1.0167	ITI	n/a	n/a	n/a	n/a	n/a	n/a	n/a	n/a
79.8324	0.5167	FIXCROSS	n/a	n/a	n/a	n/a	n/a	n/a	n/a	n/a
80.3491	0.8667	INK	14	Incongruent	zielony	green	niebieski	blue	hit	n/a
81.1916	n/a	RESPONSE	n/a	n/a	n/a	n/a	n/a	n/a	n/a	blue
81.2157	1.0167	ITI	n/a	n/a	n/a	n/a	n/a	n/a	n/a	n/a
82.2324	0.5167	FIXCROSS	n/a	n/a	n/a	n/a	n/a	n/a	n/a	n/a
82.7491	0.4667	INK	15	Neutral	xxxxxxx	xxxxxxx	niebieski	blue	hit	n/a
83.1884	n/a	RESPONSE	n/a	n/a	n/a	n/a	n/a	n/a	n/a	blue
83.2158	1.0167	ITI	n/a	n/a	n/a	n/a	n/a	n/a	n/a	n/a
84.2324	0.5167	FIXCROSS	n/a	n/a	n/a	n/a	n/a	n/a	n/a	n/a
84.7491	0.8	INK	16	Incongruent	czerwony	red	niebieski	blue	hit	n/a
85.5203	n/a	RESPONSE	n/a	n/a	n/a	n/a	n/a	n/a	n/a	blue
85.5491	1.0167	ITI	n/a	n/a	n/a	n/a	n/a	n/a	n/a	n/a
86.5658	0.5167	FIXCROSS	n/a	n/a	n/a	n/a	n/a	n/a	n/a	n/a
87.0825	2.5833	INK	17	Incongruent	niebieski	blue	czerwony	red	hit	n/a
89.6414	n/a	RESPONSE	n/a	n/a	n/a	n/a	n/a	n/a	n/a	red
89.6658	1.0167	ITI	n/a	n/a	n/a	n/a	n/a	n/a	n/a	n/a
90.6825	0.5167	FIXCROSS	n/a	n/a	n/a	n/a	n/a	n/a	n/a	n/a
91.1992	0.7167	INK	18	Neutral	xxxxxxxx	xxxxxxxx	żółty	yellow	hit	n/a
91.8936	n/a	RESPONSE	n/a	n/a	n/a	n/a	n/a	n/a	n/a	yellow
91.9158	1.0167	ITI	n/a	n/a	n/a	n/a	n/a	n/a	n/a	n/a
92.9325	0.5167	FIXCROSS	n/a	n/a	n/a	n/a	n/a	n/a	n/a	n/a
93.4492	0.9167	INK	19	Incongruent	niebieski	blue	żółty	yellow	hit	n/a
94.3376	n/a	RESPONSE	n/a	n/a	n/a	n/a	n/a	n/a	n/a	yellow
94.3659	1.0167	ITI	n/a	n/a	n/a	n/a	n/a	n/a	n/a	n/a
95.3825	0.5167	FIXCROSS	n/a	n/a	n/a	n/a	n/a	n/a	n/a	n/a
95.8992	0.8167	INK	20	Neutral	xxxxxxx	xxxxxxx	niebieski	blue	hit	n/a
96.6857	n/a	RESPONSE	n/a	n/a	n/a	n/a	n/a	n/a	n/a	blue
96.7159	1.0167	ITI	n/a	n/a	n/a	n/a	n/a	n/a	n/a	n/a
97.7325	0.5167	FIXCROSS	n/a	n/a	n/a	n/a	n/a	n/a	n/a	n/a
98.2492	1.1333	INK	21	Incongruent	niebieski	blue	żółty	yellow	hit	n/a
99.3533	n/a	RESPONSE	n/a	n/a	n/a	n/a	n/a	n/a	n/a	yellow
99.3826	1.0167	ITI	n/a	n/a	n/a	n/a	n/a	n/a	n/a	n/a
100.3992	0.5167	FIXCROSS	n/a	n/a	n/a	n/a	n/a	n/a	n/a	n/a
100.9159	1.0167	INK	22	Neutral	xxxxxxx	xxxxxxx	niebieski	blue	hit	n/a
101.909	n/a	RESPONSE	n/a	n/a	n/a	n/a	n/a	n/a	n/a	blue
101.9326	1.0167	ITI	n/a	n/a	n/a	n/a	n/a	n/a	n/a	n/a
102.9493	0.5167	FIXCROSS	n/a	n/a	n/a	n/a	n/a	n/a	n/a	n/a
103.4659	0.9	INK	23	Incongruent	zielony	green	żółty	yellow	hit	n/a
104.3369	n/a	RESPONSE	n/a	n/a	n/a	n/a	n/a	n/a	n/a	yellow
104.3659	1.0167	ITI	n/a	n/a	n/a	n/a	n/a	n/a	n/a	n/a
105.3826	0.5167	FIXCROSS	n/a	n/a	n/a	n/a	n/a	n/a	n/a	n/a
105.8993	1.2833	INK	24	Neutral	xxxxxxx	xxxxxxx	czerwony	red	hit	n/a
107.1642	n/a	RESPONSE	n/a	n/a	n/a	n/a	n/a	n/a	n/a	red
107.1826	1.0167	ITI	n/a	n/a	n/a	n/a	n/a	n/a	n/a	n/a
108.1993	0.5167	FIXCROSS	n/a	n/a	n/a	n/a	n/a	n/a	n/a	n/a
108.716	1.0167	INK	25	Incongruent	czerwony	red	zielony	green	hit	n/a
109.7039	n/a	RESPONSE	n/a	n/a	n/a	n/a	n/a	n/a	n/a	green
109.7326	1.0167	ITI	n/a	n/a	n/a	n/a	n/a	n/a	n/a	n/a
110.7493	0.5167	FIXCROSS	n/a	n/a	n/a	n/a	n/a	n/a	n/a	n/a
111.266	0.85	INK	26	Neutral	xxxxxxxxx	xxxxxxxxx	zielony	green	hit	n/a
112.084	n/a	RESPONSE	n/a	n/a	n/a	n/a	n/a	n/a	n/a	green
112.116	1.0167	ITI	n/a	n/a	n/a	n/a	n/a	n/a	n/a	n/a
113.1327	0.5167	FIXCROSS	n/a	n/a	n/a	n/a	n/a	n/a	n/a	n/a
113.6493	0.8	INK	27	Neutral	xxxxxxxxx	xxxxxxxxx	zielony	green	hit	n/a
114.416	n/a	RESPONSE	n/a	n/a	n/a	n/a	n/a	n/a	n/a	green
114.4494	1.0167	ITI	n/a	n/a	n/a	n/a	n/a	n/a	n/a	n/a
115.466	0.5167	FIXCROSS	n/a	n/a	n/a	n/a	n/a	n/a	n/a	n/a
115.9827	0.7333	INK	28	Incongruent	żółty	yellow	zielony	green	hit	n/a
116.6842	n/a	RESPONSE	n/a	n/a	n/a	n/a	n/a	n/a	n/a	green
116.716	1.0167	ITI	n/a	n/a	n/a	n/a	n/a	n/a	n/a	n/a
117.7327	0.5167	FIXCROSS	n/a	n/a	n/a	n/a	n/a	n/a	n/a	n/a
118.2494	0.9	INK	29	Incongruent	żółty	yellow	niebieski	blue	hit	n/a
119.1282	n/a	RESPONSE	n/a	n/a	n/a	n/a	n/a	n/a	n/a	blue
119.1494	1.0167	ITI	n/a	n/a	n/a	n/a	n/a	n/a	n/a	n/a
120.1661	0.5167	FIXCROSS	n/a	n/a	n/a	n/a	n/a	n/a	n/a	n/a
120.6827	0.3667	INK	30	Neutral	xxxxxxxx	xxxxxxxx	niebieski	blue	hit	n/a
121.0291	n/a	RESPONSE	n/a	n/a	n/a	n/a	n/a	n/a	n/a	blue
121.0494	1.0167	ITI	n/a	n/a	n/a	n/a	n/a	n/a	n/a	n/a
122.0661	0.5167	FIXCROSS	n/a	n/a	n/a	n/a	n/a	n/a	n/a	n/a
122.5827	0.8	INK	31	Neutral	xxxxxxx	xxxxxxx	czerwony	red	hit	n/a
123.3612	n/a	RESPONSE	n/a	n/a	n/a	n/a	n/a	n/a	n/a	red
123.3828	1.0167	ITI	n/a	n/a	n/a	n/a	n/a	n/a	n/a	n/a
124.3994	0.5167	FIXCROSS	n/a	n/a	n/a	n/a	n/a	n/a	n/a	n/a
124.9161	0.6333	INK	32	Neutral	xxxxxxx	xxxxxxx	żółty	yellow	hit	n/a
125.5176	n/a	RESPONSE	n/a	n/a	n/a	n/a	n/a	n/a	n/a	yellow
125.5494	1.0167	ITI	n/a	n/a	n/a	n/a	n/a	n/a	n/a	n/a
126.5661	0.5167	FIXCROSS	n/a	n/a	n/a	n/a	n/a	n/a	n/a	n/a
127.0828	1.0167	INK	33	Incongruent	niebieski	blue	czerwony	red	hit	n/a
128.0734	n/a	RESPONSE	n/a	n/a	n/a	n/a	n/a	n/a	n/a	red
128.0995	1.0167	ITI	n/a	n/a	n/a	n/a	n/a	n/a	n/a	n/a
129.1161	0.5167	FIXCROSS	n/a	n/a	n/a	n/a	n/a	n/a	n/a	n/a
129.6328	0.8834	INK	34	Incongruent	zielony	green	niebieski	blue	hit	n/a
130.4853	n/a	RESPONSE	n/a	n/a	n/a	n/a	n/a	n/a	n/a	blue
130.5161	1.0167	ITI	n/a	n/a	n/a	n/a	n/a	n/a	n/a	n/a
131.5328	0.5167	FIXCROSS	n/a	n/a	n/a	n/a	n/a	n/a	n/a	n/a
132.0495	0.95	INK	35	Incongruent	zielony	green	czerwony	red	hit	n/a
132.9772	n/a	RESPONSE	n/a	n/a	n/a	n/a	n/a	n/a	n/a	red
132.9995	1.0167	ITI	n/a	n/a	n/a	n/a	n/a	n/a	n/a	n/a
134.0162	0.5167	FIXCROSS	n/a	n/a	n/a	n/a	n/a	n/a	n/a	n/a
134.5328	0.95	INK	36	Incongruent	czerwony	red	zielony	green	hit	n/a
135.453	n/a	RESPONSE	n/a	n/a	n/a	n/a	n/a	n/a	n/a	green
135.4828	1.0167	ITI	n/a	n/a	n/a	n/a	n/a	n/a	n/a	n/a
136.4995	0.5167	FIXCROSS	n/a	n/a	n/a	n/a	n/a	n/a	n/a	n/a
137.0162	0.8833	INK	37	Incongruent	żółty	yellow	niebieski	blue	hit	n/a
137.881	n/a	RESPONSE	n/a	n/a	n/a	n/a	n/a	n/a	n/a	blue
137.8995	1.0167	ITI	n/a	n/a	n/a	n/a	n/a	n/a	n/a	n/a
138.9162	0.5167	FIXCROSS	n/a	n/a	n/a	n/a	n/a	n/a	n/a	n/a
139.4329	0.6833	INK	38	Neutral	xxxxxxxxx	xxxxxxxxx	żółty	yellow	hit	n/a
140.0854	n/a	RESPONSE	n/a	n/a	n/a	n/a	n/a	n/a	n/a	yellow
140.1162	1.0167	ITI	n/a	n/a	n/a	n/a	n/a	n/a	n/a	n/a
141.1329	0.5167	FIXCROSS	n/a	n/a	n/a	n/a	n/a	n/a	n/a	n/a
141.6496	1.1	INK	39	Neutral	xxxxxxxxx	xxxxxxxxx	zielony	green	hit	n/a
142.7211	n/a	RESPONSE	n/a	n/a	n/a	n/a	n/a	n/a	n/a	green
142.7496	1.0167	ITI	n/a	n/a	n/a	n/a	n/a	n/a	n/a	n/a
143.7662	0.5167	FIXCROSS	n/a	n/a	n/a	n/a	n/a	n/a	n/a	n/a
144.2829	0.7167	INK	40	Incongruent	czerwony	red	zielony	green	hit	n/a
144.9733	n/a	RESPONSE	n/a	n/a	n/a	n/a	n/a	n/a	n/a	green
144.9996	1.0167	ITI	n/a	n/a	n/a	n/a	n/a	n/a	n/a	n/a
146.0163	0.5167	FIXCROSS	n/a	n/a	n/a	n/a	n/a	n/a	n/a	n/a
146.5329	1.0333	INK	41	Neutral	xxxxxxxxx	xxxxxxxxx	czerwony	red	hit	n/a
147.545	n/a	RESPONSE	n/a	n/a	n/a	n/a	n/a	n/a	n/a	red
147.5663	1.0167	ITI	n/a	n/a	n/a	n/a	n/a	n/a	n/a	n/a
148.5829	0.5167	FIXCROSS	n/a	n/a	n/a	n/a	n/a	n/a	n/a	n/a
149.0996	0.7833	INK	42	Incongruent	żółty	yellow	czerwony	red	hit	n/a
149.8612	n/a	RESPONSE	n/a	n/a	n/a	n/a	n/a	n/a	n/a	red
149.883	1.0167	ITI	n/a	n/a	n/a	n/a	n/a	n/a	n/a	n/a
150.8996	0.5167	FIXCROSS	n/a	n/a	n/a	n/a	n/a	n/a	n/a	n/a
151.4163	0.8167	INK	43	Incongruent	czerwony	red	niebieski	blue	hit	n/a
152.2093	n/a	RESPONSE	n/a	n/a	n/a	n/a	n/a	n/a	n/a	blue
152.233	1.0167	ITI	n/a	n/a	n/a	n/a	n/a	n/a	n/a	n/a
153.2497	0.5167	FIXCROSS	n/a	n/a	n/a	n/a	n/a	n/a	n/a	n/a
153.7663	1.8	INK	44	Incongruent	zielony	green	czerwony	red	hit	n/a
155.5478	n/a	RESPONSE	n/a	n/a	n/a	n/a	n/a	n/a	n/a	red
155.5663	1.0167	ITI	n/a	n/a	n/a	n/a	n/a	n/a	n/a	n/a
156.583	0.5167	FIXCROSS	n/a	n/a	n/a	n/a	n/a	n/a	n/a	n/a
157.0997	1.0667	INK	45	Incongruent	niebieski	blue	zielony	green	hit	n/a
158.1355	n/a	RESPONSE	n/a	n/a	n/a	n/a	n/a	n/a	n/a	green
158.1664	1.0167	ITI	n/a	n/a	n/a	n/a	n/a	n/a	n/a	n/a
159.183	0.5167	FIXCROSS	n/a	n/a	n/a	n/a	n/a	n/a	n/a	n/a
159.6997	0.7667	INK	46	Neutral	xxxxxxxx	xxxxxxxx	niebieski	blue	hit	n/a
160.4358	n/a	RESPONSE	n/a	n/a	n/a	n/a	n/a	n/a	n/a	blue
160.4664	1.0167	ITI	n/a	n/a	n/a	n/a	n/a	n/a	n/a	n/a
161.4831	0.5167	FIXCROSS	n/a	n/a	n/a	n/a	n/a	n/a	n/a	n/a
161.9997	1.0833	INK	47	Incongruent	niebieski	blue	zielony	green	hit	n/a
163.0555	n/a	RESPONSE	n/a	n/a	n/a	n/a	n/a	n/a	n/a	green
163.0831	1.0167	ITI	n/a	n/a	n/a	n/a	n/a	n/a	n/a	n/a
164.0997	0.5167	FIXCROSS	n/a	n/a	n/a	n/a	n/a	n/a	n/a	n/a
164.6164	0.85	INK	48	Incongruent	czerwony	red	niebieski	blue	hit	n/a
165.4355	n/a	RESPONSE	n/a	n/a	n/a	n/a	n/a	n/a	n/a	blue
165.4664	1.0167	ITI	n/a	n/a	n/a	n/a	n/a	n/a	n/a	n/a
166.4831	0.5167	FIXCROSS	n/a	n/a	n/a	n/a	n/a	n/a	n/a	n/a
166.9998	0.75	INK	49	Neutral	xxxxxxxx	xxxxxxxx	niebieski	blue	hit	n/a
167.7197	n/a	RESPONSE	n/a	n/a	n/a	n/a	n/a	n/a	n/a	blue
167.7498	1.0167	ITI	n/a	n/a	n/a	n/a	n/a	n/a	n/a	n/a
168.7664	0.5167	FIXCROSS	n/a	n/a	n/a	n/a	n/a	n/a	n/a	n/a
169.2831	0.85	INK	50	Neutral	xxxxxxxxx	xxxxxxxxx	żółty	yellow	hit	n/a
170.1158	n/a	RESPONSE	n/a	n/a	n/a	n/a	n/a	n/a	n/a	yellow
170.1331	1.0167	ITI	n/a	n/a	n/a	n/a	n/a	n/a	n/a	n/a
171.1498	0.5167	FIXCROSS	n/a	n/a	n/a	n/a	n/a	n/a	n/a	n/a
171.6665	0.7667	INK	51	Neutral	xxxxx	xxxxx	niebieski	blue	hit	n/a
172.4	n/a	RESPONSE	n/a	n/a	n/a	n/a	n/a	n/a	n/a	blue
172.4331	1.0167	ITI	n/a	n/a	n/a	n/a	n/a	n/a	n/a	n/a
173.4498	0.5167	FIXCROSS	n/a	n/a	n/a	n/a	n/a	n/a	n/a	n/a
173.9665	0.9333	INK	52	Neutral	xxxxxxxxx	xxxxxxxxx	czerwony	red	hit	n/a
174.8758	n/a	RESPONSE	n/a	n/a	n/a	n/a	n/a	n/a	n/a	red
174.8998	1.0167	ITI	n/a	n/a	n/a	n/a	n/a	n/a	n/a	n/a
175.9165	0.5167	FIXCROSS	n/a	n/a	n/a	n/a	n/a	n/a	n/a	n/a
176.4332	1.0667	INK	53	Neutral	xxxxx	xxxxx	zielony	green	hit	n/a
177.4796	n/a	RESPONSE	n/a	n/a	n/a	n/a	n/a	n/a	n/a	green
177.4998	1.0167	ITI	n/a	n/a	n/a	n/a	n/a	n/a	n/a	n/a
178.5165	0.5167	FIXCROSS	n/a	n/a	n/a	n/a	n/a	n/a	n/a	n/a
179.0332	1.45	INK	54	Neutral	xxxxxxxxx	xxxxxxxxx	czerwony	red	hit	n/a
180.4507	n/a	RESPONSE	n/a	n/a	n/a	n/a	n/a	n/a	n/a	red
180.4832	1.0167	ITI	n/a	n/a	n/a	n/a	n/a	n/a	n/a	n/a
181.4999	0.5167	FIXCROSS	n/a	n/a	n/a	n/a	n/a	n/a	n/a	n/a
182.0165	0.7167	INK	55	Neutral	xxxxx	xxxxx	czerwony	red	hit	n/a
182.7029	n/a	RESPONSE	n/a	n/a	n/a	n/a	n/a	n/a	n/a	red
182.7332	1.0167	ITI	n/a	n/a	n/a	n/a	n/a	n/a	n/a	n/a
183.7499	0.5167	FIXCROSS	n/a	n/a	n/a	n/a	n/a	n/a	n/a	n/a
184.2666	0.9833	INK	56	Incongruent	żółty	yellow	czerwony	red	hit	n/a
185.2267	n/a	RESPONSE	n/a	n/a	n/a	n/a	n/a	n/a	n/a	red
185.2499	1.0167	ITI	n/a	n/a	n/a	n/a	n/a	n/a	n/a	n/a
186.2666	0.5167	FIXCROSS	n/a	n/a	n/a	n/a	n/a	n/a	n/a	n/a
186.7832	0.9	INK	57	Neutral	xxxxxxxx	xxxxxxxx	zielony	green	hit	n/a
187.6547	n/a	RESPONSE	n/a	n/a	n/a	n/a	n/a	n/a	n/a	green
187.6833	1.0167	ITI	n/a	n/a	n/a	n/a	n/a	n/a	n/a	n/a
188.6999	0.5167	FIXCROSS	n/a	n/a	n/a	n/a	n/a	n/a	n/a	n/a
189.2166	0.8	INK	58	Incongruent	żółty	yellow	czerwony	red	hit	n/a
189.9869	n/a	RESPONSE	n/a	n/a	n/a	n/a	n/a	n/a	n/a	red
190.0166	1.0167	ITI	n/a	n/a	n/a	n/a	n/a	n/a	n/a	n/a
191.0333	0.5167	FIXCROSS	n/a	n/a	n/a	n/a	n/a	n/a	n/a	n/a
191.55	0.8667	INK	59	Neutral	xxxxx	xxxxx	zielony	green	hit	n/a
192.3829	n/a	RESPONSE	n/a	n/a	n/a	n/a	n/a	n/a	n/a	green
192.4166	1.0167	ITI	n/a	n/a	n/a	n/a	n/a	n/a	n/a	n/a
193.4333	0.5167	FIXCROSS	n/a	n/a	n/a	n/a	n/a	n/a	n/a	n/a
193.95	0.85	INK	60	Neutral	xxxxxxxx	xxxxxxxx	żółty	yellow	hit	n/a
194.779	n/a	RESPONSE	n/a	n/a	n/a	n/a	n/a	n/a	n/a	yellow
194.8	1.0167	ITI	n/a	n/a	n/a	n/a	n/a	n/a	n/a	n/a
195.8167	0.5167	FIXCROSS	n/a	n/a	n/a	n/a	n/a	n/a	n/a	n/a
196.3333	0.9667	INK	61	Incongruent	niebieski	blue	żółty	yellow	hit	n/a
197.2708	n/a	RESPONSE	n/a	n/a	n/a	n/a	n/a	n/a	n/a	yellow
197.3	1.0167	ITI	n/a	n/a	n/a	n/a	n/a	n/a	n/a	n/a
198.3167	0.5167	FIXCROSS	n/a	n/a	n/a	n/a	n/a	n/a	n/a	n/a
198.8334	0.9	INK	62	Neutral	xxxxx	xxxxx	zielony	green	hit	n/a
199.7147	n/a	RESPONSE	n/a	n/a	n/a	n/a	n/a	n/a	n/a	green
199.7334	1.0167	ITI	n/a	n/a	n/a	n/a	n/a	n/a	n/a	n/a
200.75	0.5167	FIXCROSS	n/a	n/a	n/a	n/a	n/a	n/a	n/a	n/a
201.2667	0.9	INK	63	Incongruent	czerwony	red	żółty	yellow	hit	n/a
202.1427	n/a	RESPONSE	n/a	n/a	n/a	n/a	n/a	n/a	n/a	yellow
202.1667	1.0167	ITI	n/a	n/a	n/a	n/a	n/a	n/a	n/a	n/a
203.1834	0.5167	FIXCROSS	n/a	n/a	n/a	n/a	n/a	n/a	n/a	n/a
203.7	1.0333	INK	64	Neutral	xxxxx	xxxxx	niebieski	blue	hit	n/a
204.7145	n/a	RESPONSE	n/a	n/a	n/a	n/a	n/a	n/a	n/a	blue
204.7334	1.0167	ITI	n/a	n/a	n/a	n/a	n/a	n/a	n/a	n/a
205.7501	0.5167	FIXCROSS	n/a	n/a	n/a	n/a	n/a	n/a	n/a	n/a
206.2667	0.9	INK	65	Incongruent	czerwony	red	żółty	yellow	hit	n/a
207.1425	n/a	RESPONSE	n/a	n/a	n/a	n/a	n/a	n/a	n/a	yellow
207.1667	1.0167	ITI	n/a	n/a	n/a	n/a	n/a	n/a	n/a	n/a
208.1834	0.5167	FIXCROSS	n/a	n/a	n/a	n/a	n/a	n/a	n/a	n/a
208.7001	1.1	INK	66	Neutral	xxxxx	xxxxx	czerwony	red	hit	n/a
209.7782	n/a	RESPONSE	n/a	n/a	n/a	n/a	n/a	n/a	n/a	red
209.8001	1.0167	ITI	n/a	n/a	n/a	n/a	n/a	n/a	n/a	n/a
210.8168	0.5167	FIXCROSS	n/a	n/a	n/a	n/a	n/a	n/a	n/a	n/a
211.3334	1.0833	INK	67	Incongruent	żółty	yellow	zielony	green	hit	n/a
212.3979	n/a	RESPONSE	n/a	n/a	n/a	n/a	n/a	n/a	n/a	green
212.4168	1.0165	ITI	n/a	n/a	n/a	n/a	n/a	n/a	n/a	n/a
213.4333	0.5169	FIXCROSS	n/a	n/a	n/a	n/a	n/a	n/a	n/a	n/a
213.9501	0.75	INK	68	Neutral	xxxxxxxx	xxxxxxxx	żółty	yellow	hit	n/a
214.6821	n/a	RESPONSE	n/a	n/a	n/a	n/a	n/a	n/a	n/a	yellow
214.7001	1.0167	ITI	n/a	n/a	n/a	n/a	n/a	n/a	n/a	n/a
215.7168	0.5167	FIXCROSS	n/a	n/a	n/a	n/a	n/a	n/a	n/a	n/a
216.2335	0.8167	INK	69	Neutral	xxxxxxxx	xxxxxxxx	zielony	green	hit	n/a
217.0302	n/a	RESPONSE	n/a	n/a	n/a	n/a	n/a	n/a	n/a	green
217.0501	1.0167	ITI	n/a	n/a	n/a	n/a	n/a	n/a	n/a	n/a
218.0668	0.5167	FIXCROSS	n/a	n/a	n/a	n/a	n/a	n/a	n/a	n/a
218.5835	1.0167	INK	70	Incongruent	żółty	yellow	niebieski	blue	hit	n/a
219.5701	n/a	RESPONSE	n/a	n/a	n/a	n/a	n/a	n/a	n/a	blue
219.6002	1.0167	ITI	n/a	n/a	n/a	n/a	n/a	n/a	n/a	n/a
220.6168	0.5167	FIXCROSS	n/a	n/a	n/a	n/a	n/a	n/a	n/a	n/a
221.1335	0.8833	INK	71	Neutral	xxxxxxxx	xxxxxxxx	zielony	green	hit	n/a
221.9981	n/a	RESPONSE	n/a	n/a	n/a	n/a	n/a	n/a	n/a	green
222.0169	1.0167	ITI	n/a	n/a	n/a	n/a	n/a	n/a	n/a	n/a
223.0335	0.5167	FIXCROSS	n/a	n/a	n/a	n/a	n/a	n/a	n/a	n/a
223.5502	1.2833	INK	72	Incongruent	zielony	green	czerwony	red	hit	n/a
224.8095	n/a	RESPONSE	n/a	n/a	n/a	n/a	n/a	n/a	n/a	red
224.8335	1.0833	ITI	n/a	n/a	n/a	n/a	n/a	n/a	n/a	n/a
252.9396	n/a	RESPONSE	n/a	n/a	n/a	n/a	n/a	n/a	n/a	n/a
253.0004	1.0167	ITI	n/a	n/a	n/a	n/a	n/a	n/a	n/a	n/a
254.0171	0.5167	FIXCROSS	n/a	n/a	n/a	n/a	n/a	n/a	n/a	n/a
254.5338	1.3167	T_COLOR_NAME	1	Neutral	czerwony	red	Neutral	Neutral	hit	n/a
255.8148	n/a	RESPONSE	n/a	n/a	n/a	n/a	n/a	n/a	n/a	red
255.8504	0.5167	FEEDBACK	n/a	n/a	n/a	n/a	n/a	n/a	n/a	n/a
256.3671	1.0167	ITI	n/a	n/a	n/a	n/a	n/a	n/a	n/a	n/a
257.3838	0.5167	FIXCROSS	n/a	n/a	n/a	n/a	n/a	n/a	n/a	n/a
257.9005	1.8333	T_COLOR_NAME	2	Incongruent	czerwony	red	niebieski	blue	hit	n/a
259.6965	n/a	RESPONSE	n/a	n/a	n/a	n/a	n/a	n/a	n/a	red
259.7338	0.5167	FEEDBACK	n/a	n/a	n/a	n/a	n/a	n/a	n/a	n/a
260.2505	1.0167	ITI	n/a	n/a	n/a	n/a	n/a	n/a	n/a	n/a
261.2672	0.5167	FIXCROSS	n/a	n/a	n/a	n/a	n/a	n/a	n/a	n/a
261.7838	0.7833	T_COLOR_NAME	3	Neutral	czerwony	red	Neutral	Neutral	hit	n/a
262.5397	n/a	RESPONSE	n/a	n/a	n/a	n/a	n/a	n/a	n/a	red
262.5672	0.5167	FEEDBACK	n/a	n/a	n/a	n/a	n/a	n/a	n/a	n/a
263.0838	1.0167	ITI	n/a	n/a	n/a	n/a	n/a	n/a	n/a	n/a
264.1005	0.5167	FIXCROSS	n/a	n/a	n/a	n/a	n/a	n/a	n/a	n/a
264.6172	0.7167	T_COLOR_NAME	4	Neutral	czerwony	red	Neutral	Neutral	hit	n/a
265.3033	n/a	RESPONSE	n/a	n/a	n/a	n/a	n/a	n/a	n/a	red
265.3339	0.5167	FEEDBACK	n/a	n/a	n/a	n/a	n/a	n/a	n/a	n/a
265.8505	1.0167	ITI	n/a	n/a	n/a	n/a	n/a	n/a	n/a	n/a
266.8672	0.5167	FIXCROSS	n/a	n/a	n/a	n/a	n/a	n/a	n/a	n/a
267.3839	1.2833	T_COLOR_NAME	5	Neutral	zielony	green	Neutral	Neutral	hit	n/a
268.6418	n/a	RESPONSE	n/a	n/a	n/a	n/a	n/a	n/a	n/a	green
268.6672	0.5167	FEEDBACK	n/a	n/a	n/a	n/a	n/a	n/a	n/a	n/a
269.1839	1.0167	ITI	n/a	n/a	n/a	n/a	n/a	n/a	n/a	n/a
270.2006	0.5167	FIXCROSS	n/a	n/a	n/a	n/a	n/a	n/a	n/a	n/a
270.7172	2.15	T_COLOR_NAME	6	Incongruent	niebieski	blue	czerwony	red	hit	n/a
272.8429	n/a	RESPONSE	n/a	n/a	n/a	n/a	n/a	n/a	n/a	blue
272.8672	0.5167	FEEDBACK	n/a	n/a	n/a	n/a	n/a	n/a	n/a	n/a
273.3839	1.0167	ITI	n/a	n/a	n/a	n/a	n/a	n/a	n/a	n/a
274.4006	0.5167	FIXCROSS	n/a	n/a	n/a	n/a	n/a	n/a	n/a	n/a
274.9173	0.95	T_COLOR_NAME	7	Neutral	żółty	yellow	Neutral	Neutral	hit	n/a
275.83	n/a	RESPONSE	n/a	n/a	n/a	n/a	n/a	n/a	n/a	yellow
275.8673	0.5167	FEEDBACK	n/a	n/a	n/a	n/a	n/a	n/a	n/a	n/a
276.3839	1.0167	ITI	n/a	n/a	n/a	n/a	n/a	n/a	n/a	n/a
277.4006	0.5167	FIXCROSS	n/a	n/a	n/a	n/a	n/a	n/a	n/a	n/a
277.9173	1.0	T_COLOR_NAME	8	Incongruent	żółty	yellow	zielony	green	hit	n/a
278.8969	n/a	RESPONSE	n/a	n/a	n/a	n/a	n/a	n/a	n/a	yellow
278.9173	0.5167	FEEDBACK	n/a	n/a	n/a	n/a	n/a	n/a	n/a	n/a
279.434	1.0167	ITI	n/a	n/a	n/a	n/a	n/a	n/a	n/a	n/a
280.4506	0.5167	FIXCROSS	n/a	n/a	n/a	n/a	n/a	n/a	n/a	n/a
280.9673	0.6667	T_COLOR_NAME	9	Incongruent	żółty	yellow	niebieski	blue	hit	n/a
281.6124	n/a	RESPONSE	n/a	n/a	n/a	n/a	n/a	n/a	n/a	yellow
281.634	0.5167	FEEDBACK	n/a	n/a	n/a	n/a	n/a	n/a	n/a	n/a
282.1506	1.0167	ITI	n/a	n/a	n/a	n/a	n/a	n/a	n/a	n/a
283.1673	0.5167	FIXCROSS	n/a	n/a	n/a	n/a	n/a	n/a	n/a	n/a
283.684	0.9333	T_COLOR_NAME	10	Neutral	niebieski	blue	Neutral	Neutral	hit	n/a
284.5836	n/a	RESPONSE	n/a	n/a	n/a	n/a	n/a	n/a	n/a	blue
284.6173	0.5167	FEEDBACK	n/a	n/a	n/a	n/a	n/a	n/a	n/a	n/a
285.134	1.0167	ITI	n/a	n/a	n/a	n/a	n/a	n/a	n/a	n/a
286.1507	0.5167	FIXCROSS	n/a	n/a	n/a	n/a	n/a	n/a	n/a	n/a
286.6674	1.2833	T_COLOR_NAME	11	Neutral	niebieski	blue	Neutral	Neutral	hit	n/a
287.9221	n/a	RESPONSE	n/a	n/a	n/a	n/a	n/a	n/a	n/a	blue
287.9507	0.5167	FEEDBACK	n/a	n/a	n/a	n/a	n/a	n/a	n/a	n/a
288.4674	1.0167	ITI	n/a	n/a	n/a	n/a	n/a	n/a	n/a	n/a
289.484	0.5167	FIXCROSS	n/a	n/a	n/a	n/a	n/a	n/a	n/a	n/a
290.0007	0.5833	T_COLOR_NAME	12	Neutral	niebieski	blue	Neutral	Neutral	hit	n/a
290.5577	n/a	RESPONSE	n/a	n/a	n/a	n/a	n/a	n/a	n/a	blue
290.5841	0.5167	FEEDBACK	n/a	n/a	n/a	n/a	n/a	n/a	n/a	n/a
291.1007	1.0333	ITI	n/a	n/a	n/a	n/a	n/a	n/a	n/a	n/a
294.1838	n/a	RESPONSE	n/a	n/a	n/a	n/a	n/a	n/a	n/a	n/a
294.2507	1.0167	ITI	n/a	n/a	n/a	n/a	n/a	n/a	n/a	n/a
295.2674	0.5167	FIXCROSS	n/a	n/a	n/a	n/a	n/a	n/a	n/a	n/a
295.7841	1.0833	COLOR_NAME	1	Neutral	czerwony	red	Neutral	Neutral	hit	n/a
296.8354	n/a	RESPONSE	n/a	n/a	n/a	n/a	n/a	n/a	n/a	red
296.8674	1.0167	ITI	n/a	n/a	n/a	n/a	n/a	n/a	n/a	n/a
297.8841	0.5167	FIXCROSS	n/a	n/a	n/a	n/a	n/a	n/a	n/a	n/a
298.4008	1.05	COLOR_NAME	2	Incongruent	żółty	yellow	czerwony	red	hit	n/a
299.4231	n/a	RESPONSE	n/a	n/a	n/a	n/a	n/a	n/a	n/a	yellow
299.4508	1.0167	ITI	n/a	n/a	n/a	n/a	n/a	n/a	n/a	n/a
300.4675	0.5167	FIXCROSS	n/a	n/a	n/a	n/a	n/a	n/a	n/a	n/a
300.9841	0.8333	COLOR_NAME	3	Neutral	żółty	yellow	Neutral	Neutral	hit	n/a
301.7873	n/a	RESPONSE	n/a	n/a	n/a	n/a	n/a	n/a	n/a	yellow
301.8175	1.0167	ITI	n/a	n/a	n/a	n/a	n/a	n/a	n/a	n/a
302.8341	0.5167	FIXCROSS	n/a	n/a	n/a	n/a	n/a	n/a	n/a	n/a
303.3508	0.6333	COLOR_NAME	4	Neutral	żółty	yellow	Neutral	Neutral	hit	n/a
303.9597	n/a	RESPONSE	n/a	n/a	n/a	n/a	n/a	n/a	n/a	yellow
303.9842	1.0167	ITI	n/a	n/a	n/a	n/a	n/a	n/a	n/a	n/a
305.0008	0.5167	FIXCROSS	n/a	n/a	n/a	n/a	n/a	n/a	n/a	n/a
305.5175	0.5667	COLOR_NAME	5	Incongruent	niebieski	blue	żółty	yellow	hit	n/a
306.0522	n/a	RESPONSE	n/a	n/a	n/a	n/a	n/a	n/a	n/a	blue
306.0842	1.0167	ITI	n/a	n/a	n/a	n/a	n/a	n/a	n/a	n/a
307.1008	0.5167	FIXCROSS	n/a	n/a	n/a	n/a	n/a	n/a	n/a	n/a
307.6175	0.95	COLOR_NAME	6	Neutral	czerwony	red	Neutral	Neutral	hit	n/a
308.5442	n/a	RESPONSE	n/a	n/a	n/a	n/a	n/a	n/a	n/a	red
308.5675	1.0167	ITI	n/a	n/a	n/a	n/a	n/a	n/a	n/a	n/a
309.5842	0.5167	FIXCROSS	n/a	n/a	n/a	n/a	n/a	n/a	n/a	n/a
310.1009	1.3167	COLOR_NAME	7	Incongruent	niebieski	blue	żółty	yellow	hit	n/a
311.3876	n/a	RESPONSE	n/a	n/a	n/a	n/a	n/a	n/a	n/a	blue
311.4175	1.0167	ITI	n/a	n/a	n/a	n/a	n/a	n/a	n/a	n/a
312.4342	0.5167	FIXCROSS	n/a	n/a	n/a	n/a	n/a	n/a	n/a	n/a
312.9509	0.8833	COLOR_NAME	8	Incongruent	żółty	yellow	czerwony	red	hit	n/a
313.7995	n/a	RESPONSE	n/a	n/a	n/a	n/a	n/a	n/a	n/a	yellow
313.8342	1.0167	ITI	n/a	n/a	n/a	n/a	n/a	n/a	n/a	n/a
314.8509	0.5167	FIXCROSS	n/a	n/a	n/a	n/a	n/a	n/a	n/a	n/a
315.3676	0.7	COLOR_NAME	9	Incongruent	niebieski	blue	zielony	green	hit	n/a
316.036	n/a	RESPONSE	n/a	n/a	n/a	n/a	n/a	n/a	n/a	blue
316.0676	1.0167	ITI	n/a	n/a	n/a	n/a	n/a	n/a	n/a	n/a
317.0843	0.5167	FIXCROSS	n/a	n/a	n/a	n/a	n/a	n/a	n/a	n/a
317.6009	0.8667	COLOR_NAME	10	Incongruent	zielony	green	żółty	yellow	hit	n/a
318.448	n/a	RESPONSE	n/a	n/a	n/a	n/a	n/a	n/a	n/a	green
318.4676	1.0167	ITI	n/a	n/a	n/a	n/a	n/a	n/a	n/a	n/a
319.4843	0.5167	FIXCROSS	n/a	n/a	n/a	n/a	n/a	n/a	n/a	n/a
320.0009	0.8	COLOR_NAME	11	Neutral	niebieski	blue	Neutral	Neutral	hit	n/a
320.7802	n/a	RESPONSE	n/a	n/a	n/a	n/a	n/a	n/a	n/a	blue
320.801	1.0167	ITI	n/a	n/a	n/a	n/a	n/a	n/a	n/a	n/a
321.8176	0.5167	FIXCROSS	n/a	n/a	n/a	n/a	n/a	n/a	n/a	n/a
322.3343	0.6167	COLOR_NAME	12	Incongruent	czerwony	red	niebieski	blue	hit	n/a
322.9207	n/a	RESPONSE	n/a	n/a	n/a	n/a	n/a	n/a	n/a	red
322.951	1.0167	ITI	n/a	n/a	n/a	n/a	n/a	n/a	n/a	n/a
323.9676	0.5167	FIXCROSS	n/a	n/a	n/a	n/a	n/a	n/a	n/a	n/a
324.4843	1.2333	COLOR_NAME	13	Neutral	zielony	green	Neutral	Neutral	hit	n/a
325.6843	n/a	RESPONSE	n/a	n/a	n/a	n/a	n/a	n/a	n/a	green
325.7177	1.0167	ITI	n/a	n/a	n/a	n/a	n/a	n/a	n/a	n/a
326.7343	0.5167	FIXCROSS	n/a	n/a	n/a	n/a	n/a	n/a	n/a	n/a
327.251	1.0834	COLOR_NAME	14	Incongruent	czerwony	red	zielony	green	hit	n/a
328.3039	n/a	RESPONSE	n/a	n/a	n/a	n/a	n/a	n/a	n/a	red
328.3343	1.0167	ITI	n/a	n/a	n/a	n/a	n/a	n/a	n/a	n/a
329.351	0.5167	FIXCROSS	n/a	n/a	n/a	n/a	n/a	n/a	n/a	n/a
329.8677	0.8833	COLOR_NAME	15	Neutral	niebieski	blue	Neutral	Neutral	hit	n/a
330.7159	n/a	RESPONSE	n/a	n/a	n/a	n/a	n/a	n/a	n/a	blue
330.751	1.0167	ITI	n/a	n/a	n/a	n/a	n/a	n/a	n/a	n/a
331.7677	0.5167	FIXCROSS	n/a	n/a	n/a	n/a	n/a	n/a	n/a	n/a
332.2844	1.0833	COLOR_NAME	16	Incongruent	zielony	green	czerwony	red	hit	n/a
333.3357	n/a	RESPONSE	n/a	n/a	n/a	n/a	n/a	n/a	n/a	green
333.3677	1.0167	ITI	n/a	n/a	n/a	n/a	n/a	n/a	n/a	n/a
334.3844	0.5167	FIXCROSS	n/a	n/a	n/a	n/a	n/a	n/a	n/a	n/a
334.9011	0.9	COLOR_NAME	17	Neutral	niebieski	blue	Neutral	Neutral	hit	n/a
335.7797	n/a	RESPONSE	n/a	n/a	n/a	n/a	n/a	n/a	n/a	blue
335.8011	1.0167	ITI	n/a	n/a	n/a	n/a	n/a	n/a	n/a	n/a
336.8177	0.5167	FIXCROSS	n/a	n/a	n/a	n/a	n/a	n/a	n/a	n/a
337.3344	0.7833	COLOR_NAME	18	Incongruent	żółty	yellow	niebieski	blue	hit	n/a
338.0959	n/a	RESPONSE	n/a	n/a	n/a	n/a	n/a	n/a	n/a	yellow
338.1177	1.0167	ITI	n/a	n/a	n/a	n/a	n/a	n/a	n/a	n/a
339.1344	0.5167	FIXCROSS	n/a	n/a	n/a	n/a	n/a	n/a	n/a	n/a
339.6511	0.75	COLOR_NAME	19	Incongruent	zielony	green	niebieski	blue	hit	n/a
340.3801	n/a	RESPONSE	n/a	n/a	n/a	n/a	n/a	n/a	n/a	green
340.4011	1.0167	ITI	n/a	n/a	n/a	n/a	n/a	n/a	n/a	n/a
341.4178	0.5167	FIXCROSS	n/a	n/a	n/a	n/a	n/a	n/a	n/a	n/a
341.9344	0.8667	COLOR_NAME	20	Neutral	zielony	green	Neutral	Neutral	hit	n/a
342.7762	n/a	RESPONSE	n/a	n/a	n/a	n/a	n/a	n/a	n/a	green
342.8011	1.0167	ITI	n/a	n/a	n/a	n/a	n/a	n/a	n/a	n/a
343.8178	0.5167	FIXCROSS	n/a	n/a	n/a	n/a	n/a	n/a	n/a	n/a
344.3345	0.6	COLOR_NAME	21	Neutral	niebieski	blue	Neutral	Neutral	hit	n/a
344.9167	n/a	RESPONSE	n/a	n/a	n/a	n/a	n/a	n/a	n/a	blue
344.9345	1.0167	ITI	n/a	n/a	n/a	n/a	n/a	n/a	n/a	n/a
345.9511	0.5167	FIXCROSS	n/a	n/a	n/a	n/a	n/a	n/a	n/a	n/a
346.4678	1.2	COLOR_NAME	22	Neutral	zielony	green	Neutral	Neutral	hit	n/a
347.6482	n/a	RESPONSE	n/a	n/a	n/a	n/a	n/a	n/a	n/a	green
347.6678	1.0167	ITI	n/a	n/a	n/a	n/a	n/a	n/a	n/a	n/a
348.6845	0.5167	FIXCROSS	n/a	n/a	n/a	n/a	n/a	n/a	n/a	n/a
349.2012	0.7	COLOR_NAME	23	Incongruent	zielony	green	czerwony	red	hit	n/a
349.8685	n/a	RESPONSE	n/a	n/a	n/a	n/a	n/a	n/a	n/a	green
349.9012	1.0167	ITI	n/a	n/a	n/a	n/a	n/a	n/a	n/a	n/a
350.9178	0.5167	FIXCROSS	n/a	n/a	n/a	n/a	n/a	n/a	n/a	n/a
351.4345	0.8	COLOR_NAME	24	Neutral	żółty	yellow	Neutral	Neutral	hit	n/a
352.2167	n/a	RESPONSE	n/a	n/a	n/a	n/a	n/a	n/a	n/a	yellow
352.2345	1.0167	ITI	n/a	n/a	n/a	n/a	n/a	n/a	n/a	n/a
353.2512	0.5167	FIXCROSS	n/a	n/a	n/a	n/a	n/a	n/a	n/a	n/a
353.7679	1.0167	COLOR_NAME	25	Incongruent	czerwony	red	żółty	yellow	hit	n/a
354.7566	n/a	RESPONSE	n/a	n/a	n/a	n/a	n/a	n/a	n/a	red
354.7845	1.0167	ITI	n/a	n/a	n/a	n/a	n/a	n/a	n/a	n/a
355.8012	0.5167	FIXCROSS	n/a	n/a	n/a	n/a	n/a	n/a	n/a	n/a
356.3179	1.75	COLOR_NAME	26	Neutral	zielony	green	Neutral	Neutral	hit	n/a
358.047	n/a	RESPONSE	n/a	n/a	n/a	n/a	n/a	n/a	n/a	green
358.0679	1.0167	ITI	n/a	n/a	n/a	n/a	n/a	n/a	n/a	n/a
359.0846	0.5167	FIXCROSS	n/a	n/a	n/a	n/a	n/a	n/a	n/a	n/a
359.6012	0.7167	COLOR_NAME	27	Neutral	żółty	yellow	Neutral	Neutral	hit	n/a
360.2994	n/a	RESPONSE	n/a	n/a	n/a	n/a	n/a	n/a	n/a	yellow
360.3179	1.0167	ITI	n/a	n/a	n/a	n/a	n/a	n/a	n/a	n/a
361.3346	0.5167	FIXCROSS	n/a	n/a	n/a	n/a	n/a	n/a	n/a	n/a
361.8513	0.8333	COLOR_NAME	28	Incongruent	niebieski	blue	czerwony	red	hit	n/a
362.6635	n/a	RESPONSE	n/a	n/a	n/a	n/a	n/a	n/a	n/a	blue
362.6846	1.0167	ITI	n/a	n/a	n/a	n/a	n/a	n/a	n/a	n/a
363.7013	0.5167	FIXCROSS	n/a	n/a	n/a	n/a	n/a	n/a	n/a	n/a
364.218	0.95	COLOR_NAME	29	Neutral	niebieski	blue	Neutral	Neutral	hit	n/a
365.1395	n/a	RESPONSE	n/a	n/a	n/a	n/a	n/a	n/a	n/a	blue
365.1679	1.0167	ITI	n/a	n/a	n/a	n/a	n/a	n/a	n/a	n/a
366.1846	0.5167	FIXCROSS	n/a	n/a	n/a	n/a	n/a	n/a	n/a	n/a
366.7013	0.9834	COLOR_NAME	30	Incongruent	czerwony	red	żółty	yellow	hit	n/a
367.6633	n/a	RESPONSE	n/a	n/a	n/a	n/a	n/a	n/a	n/a	red
367.6846	1.0167	ITI	n/a	n/a	n/a	n/a	n/a	n/a	n/a	n/a
368.7013	0.5167	FIXCROSS	n/a	n/a	n/a	n/a	n/a	n/a	n/a	n/a
369.218	0.65	COLOR_NAME	31	Neutral	niebieski	blue	Neutral	Neutral	hit	n/a
369.8358	n/a	RESPONSE	n/a	n/a	n/a	n/a	n/a	n/a	n/a	blue
369.868	1.0167	ITI	n/a	n/a	n/a	n/a	n/a	n/a	n/a	n/a
370.8847	0.5167	FIXCROSS	n/a	n/a	n/a	n/a	n/a	n/a	n/a	n/a
371.4013	1.1667	COLOR_NAME	32	Incongruent	czerwony	red	niebieski	blue	hit	n/a
372.5353	n/a	RESPONSE	n/a	n/a	n/a	n/a	n/a	n/a	n/a	red
372.568	1.0167	ITI	n/a	n/a	n/a	n/a	n/a	n/a	n/a	n/a
373.5847	0.5167	FIXCROSS	n/a	n/a	n/a	n/a	n/a	n/a	n/a	n/a
374.1014	1.0	COLOR_NAME	33	Incongruent	zielony	green	czerwony	red	hit	n/a
375.0751	n/a	RESPONSE	n/a	n/a	n/a	n/a	n/a	n/a	n/a	green
375.1014	1.0167	ITI	n/a	n/a	n/a	n/a	n/a	n/a	n/a	n/a
376.118	0.5167	FIXCROSS	n/a	n/a	n/a	n/a	n/a	n/a	n/a	n/a
376.6347	0.9167	COLOR_NAME	34	Incongruent	żółty	yellow	zielony	green	hit	n/a
377.5192	n/a	RESPONSE	n/a	n/a	n/a	n/a	n/a	n/a	n/a	yellow
377.5514	1.0167	ITI	n/a	n/a	n/a	n/a	n/a	n/a	n/a	n/a
378.5681	0.5167	FIXCROSS	n/a	n/a	n/a	n/a	n/a	n/a	n/a	n/a
379.0847	0.8	COLOR_NAME	35	Incongruent	czerwony	red	niebieski	blue	hit	n/a
379.8674	n/a	RESPONSE	n/a	n/a	n/a	n/a	n/a	n/a	n/a	red
379.8847	1.0167	ITI	n/a	n/a	n/a	n/a	n/a	n/a	n/a	n/a
380.9014	0.5167	FIXCROSS	n/a	n/a	n/a	n/a	n/a	n/a	n/a	n/a
381.4181	1.6167	COLOR_NAME	36	Incongruent	żółty	yellow	czerwony	red	hit	n/a
383.0143	n/a	RESPONSE	n/a	n/a	n/a	n/a	n/a	n/a	n/a	yellow
383.0348	1.0167	ITI	n/a	n/a	n/a	n/a	n/a	n/a	n/a	n/a
384.0514	0.5167	FIXCROSS	n/a	n/a	n/a	n/a	n/a	n/a	n/a	n/a
384.5681	0.6167	COLOR_NAME	37	Neutral	żółty	yellow	Neutral	Neutral	hit	n/a
385.1547	n/a	RESPONSE	n/a	n/a	n/a	n/a	n/a	n/a	n/a	yellow
385.1848	1.0167	ITI	n/a	n/a	n/a	n/a	n/a	n/a	n/a	n/a
386.2014	0.5167	FIXCROSS	n/a	n/a	n/a	n/a	n/a	n/a	n/a	n/a
386.7181	0.95	COLOR_NAME	38	Neutral	czerwony	red	Neutral	Neutral	hit	n/a
387.6467	n/a	RESPONSE	n/a	n/a	n/a	n/a	n/a	n/a	n/a	red
387.6681	1.0167	ITI	n/a	n/a	n/a	n/a	n/a	n/a	n/a	n/a
388.6848	0.5167	FIXCROSS	n/a	n/a	n/a	n/a	n/a	n/a	n/a	n/a
389.2015	0.7667	COLOR_NAME	39	Neutral	czerwony	red	Neutral	Neutral	hit	n/a
389.9469	n/a	RESPONSE	n/a	n/a	n/a	n/a	n/a	n/a	n/a	red
389.9681	1.0167	ITI	n/a	n/a	n/a	n/a	n/a	n/a	n/a	n/a
390.9848	0.5167	FIXCROSS	n/a	n/a	n/a	n/a	n/a	n/a	n/a	n/a
391.5015	0.9833	COLOR_NAME	40	Neutral	żółty	yellow	Neutral	Neutral	hit	n/a
392.4549	n/a	RESPONSE	n/a	n/a	n/a	n/a	n/a	n/a	n/a	yellow
392.4848	1.0167	ITI	n/a	n/a	n/a	n/a	n/a	n/a	n/a	n/a
393.5015	0.5167	FIXCROSS	n/a	n/a	n/a	n/a	n/a	n/a	n/a	n/a
394.0182	0.6167	COLOR_NAME	41	Neutral	żółty	yellow	Neutral	Neutral	hit	n/a
394.6114	n/a	RESPONSE	n/a	n/a	n/a	n/a	n/a	n/a	n/a	yellow
394.6348	1.0167	ITI	n/a	n/a	n/a	n/a	n/a	n/a	n/a	n/a
395.6515	0.5167	FIXCROSS	n/a	n/a	n/a	n/a	n/a	n/a	n/a	n/a
396.1682	1.2	COLOR_NAME	42	Incongruent	zielony	green	niebieski	blue	hit	n/a
397.343	n/a	RESPONSE	n/a	n/a	n/a	n/a	n/a	n/a	n/a	green
397.3682	1.0167	ITI	n/a	n/a	n/a	n/a	n/a	n/a	n/a	n/a
398.3849	0.5167	FIXCROSS	n/a	n/a	n/a	n/a	n/a	n/a	n/a	n/a
398.9015	0.5833	COLOR_NAME	43	Incongruent	zielony	green	żółty	yellow	hit	n/a
399.4676	n/a	RESPONSE	n/a	n/a	n/a	n/a	n/a	n/a	n/a	green
399.4849	1.0167	ITI	n/a	n/a	n/a	n/a	n/a	n/a	n/a	n/a
400.5016	0.5167	FIXCROSS	n/a	n/a	n/a	n/a	n/a	n/a	n/a	n/a
401.0182	0.5333	COLOR_NAME	44	Neutral	zielony	green	Neutral	Neutral	hit	n/a
401.5282	n/a	RESPONSE	n/a	n/a	n/a	n/a	n/a	n/a	n/a	green
401.5516	1.0167	ITI	n/a	n/a	n/a	n/a	n/a	n/a	n/a	n/a
402.5682	0.5167	FIXCROSS	n/a	n/a	n/a	n/a	n/a	n/a	n/a	n/a
403.0849	0.4833	COLOR_NAME	45	Neutral	niebieski	blue	Neutral	Neutral	hit	n/a
403.5409	n/a	RESPONSE	n/a	n/a	n/a	n/a	n/a	n/a	n/a	blue
403.5682	1.0167	ITI	n/a	n/a	n/a	n/a	n/a	n/a	n/a	n/a
404.5849	0.5167	FIXCROSS	n/a	n/a	n/a	n/a	n/a	n/a	n/a	n/a
405.1016	0.7333	COLOR_NAME	46	Incongruent	niebieski	blue	zielony	green	hit	n/a
405.8093	n/a	RESPONSE	n/a	n/a	n/a	n/a	n/a	n/a	n/a	blue
405.8349	1.0167	ITI	n/a	n/a	n/a	n/a	n/a	n/a	n/a	n/a
406.8516	0.5167	FIXCROSS	n/a	n/a	n/a	n/a	n/a	n/a	n/a	n/a
407.3683	0.4833	COLOR_NAME	47	Incongruent	niebieski	blue	żółty	yellow	hit	n/a
407.822	n/a	RESPONSE	n/a	n/a	n/a	n/a	n/a	n/a	n/a	blue
407.8516	1.0167	ITI	n/a	n/a	n/a	n/a	n/a	n/a	n/a	n/a
408.8683	0.5167	FIXCROSS	n/a	n/a	n/a	n/a	n/a	n/a	n/a	n/a
409.385	1.35	COLOR_NAME	48	Neutral	żółty	yellow	Neutral	Neutral	hit	n/a
410.7133	n/a	RESPONSE	n/a	n/a	n/a	n/a	n/a	n/a	n/a	yellow
410.735	1.0167	ITI	n/a	n/a	n/a	n/a	n/a	n/a	n/a	n/a
411.7516	0.5167	FIXCROSS	n/a	n/a	n/a	n/a	n/a	n/a	n/a	n/a
412.2683	1.0833	COLOR_NAME	49	Neutral	czerwony	red	Neutral	Neutral	hit	n/a
413.3331	n/a	RESPONSE	n/a	n/a	n/a	n/a	n/a	n/a	n/a	red
413.3516	1.0167	ITI	n/a	n/a	n/a	n/a	n/a	n/a	n/a	n/a
414.3683	0.5167	FIXCROSS	n/a	n/a	n/a	n/a	n/a	n/a	n/a	n/a
414.885	0.65	COLOR_NAME	50	Neutral	czerwony	red	Neutral	Neutral	hit	n/a
415.5055	n/a	RESPONSE	n/a	n/a	n/a	n/a	n/a	n/a	n/a	red
415.535	1.0167	ITI	n/a	n/a	n/a	n/a	n/a	n/a	n/a	n/a
416.5517	0.5167	FIXCROSS	n/a	n/a	n/a	n/a	n/a	n/a	n/a	n/a
417.0683	1.3667	COLOR_NAME	51	Neutral	zielony	green	Neutral	Neutral	hit	n/a
418.4129	n/a	RESPONSE	n/a	n/a	n/a	n/a	n/a	n/a	n/a	green
418.435	1.0167	ITI	n/a	n/a	n/a	n/a	n/a	n/a	n/a	n/a
419.4517	0.5167	FIXCROSS	n/a	n/a	n/a	n/a	n/a	n/a	n/a	n/a
419.9684	0.5	COLOR_NAME	52	Neutral	zielony	green	Neutral	Neutral	hit	n/a
420.4416	n/a	RESPONSE	n/a	n/a	n/a	n/a	n/a	n/a	n/a	green
420.4684	1.0167	ITI	n/a	n/a	n/a	n/a	n/a	n/a	n/a	n/a
421.485	0.5167	FIXCROSS	n/a	n/a	n/a	n/a	n/a	n/a	n/a	n/a
422.0017	0.8833	COLOR_NAME	53	Incongruent	czerwony	red	zielony	green	hit	n/a
422.8537	n/a	RESPONSE	n/a	n/a	n/a	n/a	n/a	n/a	n/a	red
422.8851	1.0166	ITI	n/a	n/a	n/a	n/a	n/a	n/a	n/a	n/a
423.9017	0.5167	FIXCROSS	n/a	n/a	n/a	n/a	n/a	n/a	n/a	n/a
424.4184	0.6167	COLOR_NAME	54	Neutral	zielony	green	Neutral	Neutral	hit	n/a
425.0101	n/a	RESPONSE	n/a	n/a	n/a	n/a	n/a	n/a	n/a	green
425.0351	1.0167	ITI	n/a	n/a	n/a	n/a	n/a	n/a	n/a	n/a
426.0517	0.5167	FIXCROSS	n/a	n/a	n/a	n/a	n/a	n/a	n/a	n/a
426.5684	0.7667	COLOR_NAME	55	Neutral	czerwony	red	Neutral	Neutral	hit	n/a
427.3105	n/a	RESPONSE	n/a	n/a	n/a	n/a	n/a	n/a	n/a	red
427.3351	1.0167	ITI	n/a	n/a	n/a	n/a	n/a	n/a	n/a	n/a
428.3518	0.5167	FIXCROSS	n/a	n/a	n/a	n/a	n/a	n/a	n/a	n/a
428.8684	0.9	COLOR_NAME	56	Neutral	czerwony	red	Neutral	Neutral	hit	n/a
429.7385	n/a	RESPONSE	n/a	n/a	n/a	n/a	n/a	n/a	n/a	red
429.7684	1.0167	ITI	n/a	n/a	n/a	n/a	n/a	n/a	n/a	n/a
430.7851	0.5167	FIXCROSS	n/a	n/a	n/a	n/a	n/a	n/a	n/a	n/a
431.3018	0.8	COLOR_NAME	57	Incongruent	żółty	yellow	niebieski	blue	hit	n/a
432.0707	n/a	RESPONSE	n/a	n/a	n/a	n/a	n/a	n/a	n/a	yellow
432.1018	1.0167	ITI	n/a	n/a	n/a	n/a	n/a	n/a	n/a	n/a
433.1185	0.5167	FIXCROSS	n/a	n/a	n/a	n/a	n/a	n/a	n/a	n/a
433.6351	0.9833	COLOR_NAME	58	Incongruent	niebieski	blue	zielony	green	hit	n/a
434.5947	n/a	RESPONSE	n/a	n/a	n/a	n/a	n/a	n/a	n/a	blue
434.6185	1.0167	ITI	n/a	n/a	n/a	n/a	n/a	n/a	n/a	n/a
435.6352	0.5167	FIXCROSS	n/a	n/a	n/a	n/a	n/a	n/a	n/a	n/a
436.1518	0.5167	COLOR_NAME	59	Incongruent	niebieski	blue	czerwony	red	hit	n/a
436.6393	n/a	RESPONSE	n/a	n/a	n/a	n/a	n/a	n/a	n/a	blue
436.6685	1.0167	ITI	n/a	n/a	n/a	n/a	n/a	n/a	n/a	n/a
437.6852	0.5167	FIXCROSS	n/a	n/a	n/a	n/a	n/a	n/a	n/a	n/a
438.2018	0.9	COLOR_NAME	60	Neutral	czerwony	red	Neutral	Neutral	hit	n/a
439.0834	n/a	RESPONSE	n/a	n/a	n/a	n/a	n/a	n/a	n/a	red
439.1018	1.0167	ITI	n/a	n/a	n/a	n/a	n/a	n/a	n/a	n/a
440.1185	0.5167	FIXCROSS	n/a	n/a	n/a	n/a	n/a	n/a	n/a	n/a
440.6352	0.9167	COLOR_NAME	61	Neutral	zielony	green	Neutral	Neutral	hit	n/a
441.5274	n/a	RESPONSE	n/a	n/a	n/a	n/a	n/a	n/a	n/a	green
441.5519	1.0167	ITI	n/a	n/a	n/a	n/a	n/a	n/a	n/a	n/a
442.5685	0.5167	FIXCROSS	n/a	n/a	n/a	n/a	n/a	n/a	n/a	n/a
443.0852	0.6833	COLOR_NAME	62	Neutral	niebieski	blue	Neutral	Neutral	hit	n/a
443.7478	n/a	RESPONSE	n/a	n/a	n/a	n/a	n/a	n/a	n/a	blue
443.7685	1.0167	ITI	n/a	n/a	n/a	n/a	n/a	n/a	n/a	n/a
444.7852	0.5167	FIXCROSS	n/a	n/a	n/a	n/a	n/a	n/a	n/a	n/a
445.3019	0.7333	COLOR_NAME	63	Incongruent	czerwony	red	zielony	green	hit	n/a
446.0162	n/a	RESPONSE	n/a	n/a	n/a	n/a	n/a	n/a	n/a	red
446.0352	1.0167	ITI	n/a	n/a	n/a	n/a	n/a	n/a	n/a	n/a
447.0519	0.5167	FIXCROSS	n/a	n/a	n/a	n/a	n/a	n/a	n/a	n/a
447.5686	0.9167	COLOR_NAME	64	Neutral	niebieski	blue	Neutral	Neutral	hit	n/a
448.4603	n/a	RESPONSE	n/a	n/a	n/a	n/a	n/a	n/a	n/a	blue
448.4853	1.0167	ITI	n/a	n/a	n/a	n/a	n/a	n/a	n/a	n/a
449.5019	0.5167	FIXCROSS	n/a	n/a	n/a	n/a	n/a	n/a	n/a	n/a
450.0186	1.0834	COLOR_NAME	65	Incongruent	zielony	green	niebieski	blue	hit	n/a
451.08	n/a	RESPONSE	n/a	n/a	n/a	n/a	n/a	n/a	n/a	green
451.1019	1.0167	ITI	n/a	n/a	n/a	n/a	n/a	n/a	n/a	n/a
452.1186	0.5167	FIXCROSS	n/a	n/a	n/a	n/a	n/a	n/a	n/a	n/a
452.6353	0.8833	COLOR_NAME	66	Incongruent	żółty	yellow	zielony	green	hit	n/a
453.4922	n/a	RESPONSE	n/a	n/a	n/a	n/a	n/a	n/a	n/a	yellow
453.5186	1.0167	ITI	n/a	n/a	n/a	n/a	n/a	n/a	n/a	n/a
454.5353	0.5167	FIXCROSS	n/a	n/a	n/a	n/a	n/a	n/a	n/a	n/a
455.052	0.9167	COLOR_NAME	67	Incongruent	czerwony	red	żółty	yellow	hit	n/a
455.9363	n/a	RESPONSE	n/a	n/a	n/a	n/a	n/a	n/a	n/a	red
455.9686	1.0167	ITI	n/a	n/a	n/a	n/a	n/a	n/a	n/a	n/a
456.9853	0.5167	FIXCROSS	n/a	n/a	n/a	n/a	n/a	n/a	n/a	n/a
457.502	0.85	COLOR_NAME	68	Incongruent	niebieski	blue	czerwony	red	hit	n/a
458.3324	n/a	RESPONSE	n/a	n/a	n/a	n/a	n/a	n/a	n/a	blue
458.352	1.0167	ITI	n/a	n/a	n/a	n/a	n/a	n/a	n/a	n/a
459.3687	0.5167	FIXCROSS	n/a	n/a	n/a	n/a	n/a	n/a	n/a	n/a
459.8853	0.6667	COLOR_NAME	69	Incongruent	żółty	yellow	niebieski	blue	hit	n/a
460.521	n/a	RESPONSE	n/a	n/a	n/a	n/a	n/a	n/a	n/a	yellow
460.552	1.0167	ITI	n/a	n/a	n/a	n/a	n/a	n/a	n/a	n/a
461.5687	0.5167	FIXCROSS	n/a	n/a	n/a	n/a	n/a	n/a	n/a	n/a
462.0853	0.8167	COLOR_NAME	70	Incongruent	żółty	yellow	zielony	green	hit	n/a
462.8693	n/a	RESPONSE	n/a	n/a	n/a	n/a	n/a	n/a	n/a	yellow
462.902	1.0167	ITI	n/a	n/a	n/a	n/a	n/a	n/a	n/a	n/a
463.9187	0.5167	FIXCROSS	n/a	n/a	n/a	n/a	n/a	n/a	n/a	n/a
464.4354	0.9333	COLOR_NAME	71	Incongruent	zielony	green	żółty	yellow	hit	n/a
465.3454	n/a	RESPONSE	n/a	n/a	n/a	n/a	n/a	n/a	n/a	green
465.3687	1.0167	ITI	n/a	n/a	n/a	n/a	n/a	n/a	n/a	n/a
466.3854	0.5167	FIXCROSS	n/a	n/a	n/a	n/a	n/a	n/a	n/a	n/a
466.902	1.0167	COLOR_NAME	72	Neutral	żółty	yellow	Neutral	Neutral	hit	n/a
467.8853	n/a	RESPONSE	n/a	n/a	n/a	n/a	n/a	n/a	n/a	yellow
467.9187	1.0333	ITI	n/a	n/a	n/a	n/a	n/a	n/a	n/a	n/a
472.5495	n/a	RESPONSE	n/a	n/a	n/a	n/a	n/a	n/a	n/a	n/a
