onset	duration	trial_type	trial_number	stroop_condition	stim_text(PL)	stim_text(eng)	stim_color(PL)	stim_color(eng)	response_type	response_color
0.0	n/a	RESPONSE	n/a	n/a	n/a	n/a	n/a	n/a	n/a	n/a
0.0375	1.0167	ITI	n/a	n/a	n/a	n/a	n/a	n/a	n/a	n/a
1.0541	0.5	FIXCROSS	n/a	n/a	n/a	n/a	n/a	n/a	n/a	n/a
1.5542	1.4833	T_INK	1	Incongruent	czerwony	red	żółty	yellow	hit	n/a
3.0214	n/a	RESPONSE	n/a	n/a	n/a	n/a	n/a	n/a	n/a	yellow
3.0375	0.5	FEEDBACK	n/a	n/a	n/a	n/a	n/a	n/a	n/a	n/a
3.5375	1.0	ITI	n/a	n/a	n/a	n/a	n/a	n/a	n/a	n/a
4.5375	0.5333	FIXCROSS	n/a	n/a	n/a	n/a	n/a	n/a	n/a	n/a
5.0709	0.7	T_INK	2	Incongruent	zielony	green	żółty	yellow	hit	n/a
5.739	n/a	RESPONSE	n/a	n/a	n/a	n/a	n/a	n/a	n/a	yellow
5.7709	0.5333	FEEDBACK	n/a	n/a	n/a	n/a	n/a	n/a	n/a	n/a
6.3042	1.0333	ITI	n/a	n/a	n/a	n/a	n/a	n/a	n/a	n/a
7.3376	0.5333	FIXCROSS	n/a	n/a	n/a	n/a	n/a	n/a	n/a	n/a
7.8709	0.8167	T_INK	3	Neutral	xxxxxxx	xxxxxxx	niebieski	blue	hit	n/a
8.6484	n/a	RESPONSE	n/a	n/a	n/a	n/a	n/a	n/a	n/a	blue
8.6876	0.5333	FEEDBACK	n/a	n/a	n/a	n/a	n/a	n/a	n/a	n/a
9.2209	1.0333	ITI	n/a	n/a	n/a	n/a	n/a	n/a	n/a	n/a
10.2543	0.5333	FIXCROSS	n/a	n/a	n/a	n/a	n/a	n/a	n/a	n/a
10.7876	0.65	T_INK	4	Neutral	xxxxxxx	xxxxxxx	żółty	yellow	hit	n/a
11.3982	n/a	RESPONSE	n/a	n/a	n/a	n/a	n/a	n/a	n/a	yellow
11.4376	0.5333	FEEDBACK	n/a	n/a	n/a	n/a	n/a	n/a	n/a	n/a
11.9709	1.0333	ITI	n/a	n/a	n/a	n/a	n/a	n/a	n/a	n/a
13.0043	0.5333	FIXCROSS	n/a	n/a	n/a	n/a	n/a	n/a	n/a	n/a
13.5376	0.65	T_INK	5	Neutral	xxxxx	xxxxx	czerwony	red	hit	n/a
14.1478	n/a	RESPONSE	n/a	n/a	n/a	n/a	n/a	n/a	n/a	red
14.1876	0.5333	FEEDBACK	n/a	n/a	n/a	n/a	n/a	n/a	n/a	n/a
14.721	1.0334	ITI	n/a	n/a	n/a	n/a	n/a	n/a	n/a	n/a
15.7543	0.5333	FIXCROSS	n/a	n/a	n/a	n/a	n/a	n/a	n/a	n/a
16.2877	0.7	T_INK	6	Incongruent	zielony	green	czerwony	red	hit	n/a
16.9454	n/a	RESPONSE	n/a	n/a	n/a	n/a	n/a	n/a	n/a	red
16.9877	0.5333	FEEDBACK	n/a	n/a	n/a	n/a	n/a	n/a	n/a	n/a
17.521	1.0334	ITI	n/a	n/a	n/a	n/a	n/a	n/a	n/a	n/a
18.5544	0.5333	FIXCROSS	n/a	n/a	n/a	n/a	n/a	n/a	n/a	n/a
19.0877	5.0334	T_INK	7	Neutral	xxxxxxxx	xxxxxxxx	zielony	green	incorrect	n/a
19.5829	n/a	RESPONSE	n/a	n/a	n/a	n/a	n/a	n/a	n/a	n/a
20.4462	n/a	RESPONSE	n/a	n/a	n/a	n/a	n/a	n/a	n/a	n/a
21.8211	n/a	RESPONSE	n/a	n/a	n/a	n/a	n/a	n/a	n/a	green
24.1211	0.5333	FEEDBACK	n/a	n/a	n/a	n/a	n/a	n/a	n/a	n/a
24.6545	1.0333	ITI	n/a	n/a	n/a	n/a	n/a	n/a	n/a	n/a
25.6878	0.5333	FIXCROSS	n/a	n/a	n/a	n/a	n/a	n/a	n/a	n/a
26.2211	0.7167	T_INK	8	Neutral	xxxxx	xxxxx	zielony	green	hit	n/a
26.9048	n/a	RESPONSE	n/a	n/a	n/a	n/a	n/a	n/a	n/a	green
26.9378	0.5333	FEEDBACK	n/a	n/a	n/a	n/a	n/a	n/a	n/a	n/a
27.4711	1.0334	ITI	n/a	n/a	n/a	n/a	n/a	n/a	n/a	n/a
28.5045	0.5333	FIXCROSS	n/a	n/a	n/a	n/a	n/a	n/a	n/a	n/a
29.0378	1.15	T_INK	9	Incongruent	niebieski	blue	czerwony	red	hit	n/a
30.1499	n/a	RESPONSE	n/a	n/a	n/a	n/a	n/a	n/a	n/a	red
30.1878	0.5333	FEEDBACK	n/a	n/a	n/a	n/a	n/a	n/a	n/a	n/a
30.7212	1.0333	ITI	n/a	n/a	n/a	n/a	n/a	n/a	n/a	n/a
31.7545	0.5334	FIXCROSS	n/a	n/a	n/a	n/a	n/a	n/a	n/a	n/a
32.2879	0.5667	T_INK	10	Neutral	xxxxxxx	xxxxxxx	czerwony	red	hit	n/a
32.8196	n/a	RESPONSE	n/a	n/a	n/a	n/a	n/a	n/a	n/a	red
32.8546	0.5333	FEEDBACK	n/a	n/a	n/a	n/a	n/a	n/a	n/a	n/a
33.3879	1.0334	ITI	n/a	n/a	n/a	n/a	n/a	n/a	n/a	n/a
34.4212	0.5333	FIXCROSS	n/a	n/a	n/a	n/a	n/a	n/a	n/a	n/a
34.9546	0.9	T_INK	11	Incongruent	żółty	yellow	niebieski	blue	hit	n/a
35.8091	n/a	RESPONSE	n/a	n/a	n/a	n/a	n/a	n/a	n/a	blue
35.8546	0.5333	FEEDBACK	n/a	n/a	n/a	n/a	n/a	n/a	n/a	n/a
36.3879	1.0333	ITI	n/a	n/a	n/a	n/a	n/a	n/a	n/a	n/a
37.4213	0.5333	FIXCROSS	n/a	n/a	n/a	n/a	n/a	n/a	n/a	n/a
37.9546	0.55	T_INK	12	Neutral	xxxxxxxx	xxxxxxxx	niebieski	blue	hit	n/a
38.4628	n/a	RESPONSE	n/a	n/a	n/a	n/a	n/a	n/a	n/a	blue
38.5046	0.5333	FEEDBACK	n/a	n/a	n/a	n/a	n/a	n/a	n/a	n/a
39.038	1.05	ITI	n/a	n/a	n/a	n/a	n/a	n/a	n/a	n/a
41.4362	n/a	RESPONSE	n/a	n/a	n/a	n/a	n/a	n/a	n/a	n/a
41.5047	1.0	ITI	n/a	n/a	n/a	n/a	n/a	n/a	n/a	n/a
42.5047	0.5	FIXCROSS	n/a	n/a	n/a	n/a	n/a	n/a	n/a	n/a
43.0047	1.7834	INK	1	Neutral	xxxxxxxx	xxxxxxxx	niebieski	blue	hit	n/a
44.7773	n/a	RESPONSE	n/a	n/a	n/a	n/a	n/a	n/a	n/a	blue
44.788	1.0	ITI	n/a	n/a	n/a	n/a	n/a	n/a	n/a	n/a
45.788	0.5	FIXCROSS	n/a	n/a	n/a	n/a	n/a	n/a	n/a	n/a
46.2881	0.6167	INK	2	Neutral	xxxxx	xxxxx	zielony	green	hit	n/a
46.8875	n/a	RESPONSE	n/a	n/a	n/a	n/a	n/a	n/a	n/a	green
46.9047	1.0	ITI	n/a	n/a	n/a	n/a	n/a	n/a	n/a	n/a
47.9047	0.5	FIXCROSS	n/a	n/a	n/a	n/a	n/a	n/a	n/a	n/a
48.4047	0.6334	INK	3	Incongruent	zielony	green	czerwony	red	hit	n/a
49.0296	n/a	RESPONSE	n/a	n/a	n/a	n/a	n/a	n/a	n/a	red
49.0381	1.0	ITI	n/a	n/a	n/a	n/a	n/a	n/a	n/a	n/a
50.0381	0.5	FIXCROSS	n/a	n/a	n/a	n/a	n/a	n/a	n/a	n/a
50.5381	0.5167	INK	4	Neutral	xxxxxxx	xxxxxxx	czerwony	red	hit	n/a
51.0439	n/a	RESPONSE	n/a	n/a	n/a	n/a	n/a	n/a	n/a	red
51.0548	1.0	ITI	n/a	n/a	n/a	n/a	n/a	n/a	n/a	n/a
52.0548	0.5333	FIXCROSS	n/a	n/a	n/a	n/a	n/a	n/a	n/a	n/a
52.5881	0.5833	INK	5	Incongruent	żółty	yellow	niebieski	blue	hit	n/a
53.1381	n/a	RESPONSE	n/a	n/a	n/a	n/a	n/a	n/a	n/a	blue
53.1715	1.0333	ITI	n/a	n/a	n/a	n/a	n/a	n/a	n/a	n/a
54.2048	0.5333	FIXCROSS	n/a	n/a	n/a	n/a	n/a	n/a	n/a	n/a
54.7382	0.6	INK	6	Incongruent	czerwony	red	zielony	green	hit	n/a
55.2962	n/a	RESPONSE	n/a	n/a	n/a	n/a	n/a	n/a	n/a	green
55.3382	1.0333	ITI	n/a	n/a	n/a	n/a	n/a	n/a	n/a	n/a
56.3714	0.5334	FIXCROSS	n/a	n/a	n/a	n/a	n/a	n/a	n/a	n/a
56.9049	0.4333	INK	7	Neutral	xxxxxxxxx	xxxxxxxxx	zielony	green	hit	n/a
57.2946	n/a	RESPONSE	n/a	n/a	n/a	n/a	n/a	n/a	n/a	green
57.3382	1.0333	ITI	n/a	n/a	n/a	n/a	n/a	n/a	n/a	n/a
58.3715	0.5333	FIXCROSS	n/a	n/a	n/a	n/a	n/a	n/a	n/a	n/a
58.9049	0.4833	INK	8	Neutral	xxxxxxxxx	xxxxxxxxx	czerwony	red	hit	n/a
59.3568	n/a	RESPONSE	n/a	n/a	n/a	n/a	n/a	n/a	n/a	red
59.3882	1.0333	ITI	n/a	n/a	n/a	n/a	n/a	n/a	n/a	n/a
60.4216	0.5333	FIXCROSS	n/a	n/a	n/a	n/a	n/a	n/a	n/a	n/a
60.9549	0.7167	INK	9	Incongruent	niebieski	blue	żółty	yellow	hit	n/a
61.6428	n/a	RESPONSE	n/a	n/a	n/a	n/a	n/a	n/a	n/a	yellow
61.6716	1.0333	ITI	n/a	n/a	n/a	n/a	n/a	n/a	n/a	n/a
62.7049	0.5333	FIXCROSS	n/a	n/a	n/a	n/a	n/a	n/a	n/a	n/a
63.2383	0.4667	INK	10	Incongruent	żółty	yellow	czerwony	red	hit	n/a
63.673	n/a	RESPONSE	n/a	n/a	n/a	n/a	n/a	n/a	n/a	red
63.7049	1.0333	ITI	n/a	n/a	n/a	n/a	n/a	n/a	n/a	n/a
64.7383	0.5333	FIXCROSS	n/a	n/a	n/a	n/a	n/a	n/a	n/a	n/a
65.2716	0.5667	INK	11	Incongruent	czerwony	red	żółty	yellow	hit	n/a
65.7991	n/a	RESPONSE	n/a	n/a	n/a	n/a	n/a	n/a	n/a	yellow
65.8383	1.0333	ITI	n/a	n/a	n/a	n/a	n/a	n/a	n/a	n/a
66.8716	0.5333	FIXCROSS	n/a	n/a	n/a	n/a	n/a	n/a	n/a	n/a
67.405	0.6833	INK	12	Incongruent	zielony	green	żółty	yellow	hit	n/a
68.0532	n/a	RESPONSE	n/a	n/a	n/a	n/a	n/a	n/a	n/a	yellow
68.0883	1.0333	ITI	n/a	n/a	n/a	n/a	n/a	n/a	n/a	n/a
69.1217	0.5333	FIXCROSS	n/a	n/a	n/a	n/a	n/a	n/a	n/a	n/a
69.655	0.5	INK	13	Neutral	xxxxxxx	xxxxxxx	czerwony	red	hit	n/a
70.1155	n/a	RESPONSE	n/a	n/a	n/a	n/a	n/a	n/a	n/a	red
70.155	1.0333	ITI	n/a	n/a	n/a	n/a	n/a	n/a	n/a	n/a
71.1884	0.5333	FIXCROSS	n/a	n/a	n/a	n/a	n/a	n/a	n/a	n/a
71.7217	0.5667	INK	14	Neutral	xxxxxxxx	xxxxxxxx	zielony	green	hit	n/a
72.2576	n/a	RESPONSE	n/a	n/a	n/a	n/a	n/a	n/a	n/a	green
72.2884	1.0333	ITI	n/a	n/a	n/a	n/a	n/a	n/a	n/a	n/a
73.3217	0.5333	FIXCROSS	n/a	n/a	n/a	n/a	n/a	n/a	n/a	n/a
73.8551	0.6167	INK	15	Incongruent	żółty	yellow	czerwony	red	hit	n/a
74.4317	n/a	RESPONSE	n/a	n/a	n/a	n/a	n/a	n/a	n/a	red
74.4717	1.0333	ITI	n/a	n/a	n/a	n/a	n/a	n/a	n/a	n/a
75.5051	0.5333	FIXCROSS	n/a	n/a	n/a	n/a	n/a	n/a	n/a	n/a
76.0384	0.5167	INK	16	Neutral	xxxxxxxx	xxxxxxxx	żółty	yellow	hit	n/a
76.5259	n/a	RESPONSE	n/a	n/a	n/a	n/a	n/a	n/a	n/a	yellow
76.5551	1.0334	ITI	n/a	n/a	n/a	n/a	n/a	n/a	n/a	n/a
77.5884	0.5333	FIXCROSS	n/a	n/a	n/a	n/a	n/a	n/a	n/a	n/a
78.1218	0.4	INK	17	Incongruent	zielony	green	niebieski	blue	hit	n/a
78.4923	n/a	RESPONSE	n/a	n/a	n/a	n/a	n/a	n/a	n/a	blue
78.5218	1.0333	ITI	n/a	n/a	n/a	n/a	n/a	n/a	n/a	n/a
79.5551	0.5333	FIXCROSS	n/a	n/a	n/a	n/a	n/a	n/a	n/a	n/a
80.0885	0.5167	INK	18	Neutral	xxxxxxxxx	xxxxxxxxx	żółty	yellow	hit	n/a
80.5705	n/a	RESPONSE	n/a	n/a	n/a	n/a	n/a	n/a	n/a	yellow
80.6052	1.0333	ITI	n/a	n/a	n/a	n/a	n/a	n/a	n/a	n/a
81.6385	0.5333	FIXCROSS	n/a	n/a	n/a	n/a	n/a	n/a	n/a	n/a
82.1718	0.5167	INK	19	Neutral	xxxxxxxx	xxxxxxxx	niebieski	blue	hit	n/a
82.6486	n/a	RESPONSE	n/a	n/a	n/a	n/a	n/a	n/a	n/a	blue
82.6885	1.0333	ITI	n/a	n/a	n/a	n/a	n/a	n/a	n/a	n/a
83.7218	0.5334	FIXCROSS	n/a	n/a	n/a	n/a	n/a	n/a	n/a	n/a
84.2552	0.4	INK	20	Neutral	xxxxxxxx	xxxxxxxx	żółty	yellow	hit	n/a
84.615	n/a	RESPONSE	n/a	n/a	n/a	n/a	n/a	n/a	n/a	yellow
84.6552	1.0333	ITI	n/a	n/a	n/a	n/a	n/a	n/a	n/a	n/a
85.6885	0.5333	FIXCROSS	n/a	n/a	n/a	n/a	n/a	n/a	n/a	n/a
86.2219	0.4167	INK	21	Incongruent	niebieski	blue	czerwony	red	hit	n/a
86.5974	n/a	RESPONSE	n/a	n/a	n/a	n/a	n/a	n/a	n/a	red
86.6386	1.0333	ITI	n/a	n/a	n/a	n/a	n/a	n/a	n/a	n/a
87.6719	0.5333	FIXCROSS	n/a	n/a	n/a	n/a	n/a	n/a	n/a	n/a
88.2052	0.6	INK	22	Incongruent	niebieski	blue	zielony	green	incorrect	n/a
88.7715	n/a	RESPONSE	n/a	n/a	n/a	n/a	n/a	n/a	n/a	yellow
88.8052	1.0333	ITI	n/a	n/a	n/a	n/a	n/a	n/a	n/a	n/a
89.8386	0.5334	FIXCROSS	n/a	n/a	n/a	n/a	n/a	n/a	n/a	n/a
90.3719	0.55	INK	23	Neutral	xxxxx	xxxxx	zielony	green	hit	n/a
90.8816	n/a	RESPONSE	n/a	n/a	n/a	n/a	n/a	n/a	n/a	green
90.9219	1.0333	ITI	n/a	n/a	n/a	n/a	n/a	n/a	n/a	n/a
91.9553	0.5333	FIXCROSS	n/a	n/a	n/a	n/a	n/a	n/a	n/a	n/a
92.4886	0.5833	INK	24	Incongruent	czerwony	red	niebieski	blue	hit	n/a
93.0397	n/a	RESPONSE	n/a	n/a	n/a	n/a	n/a	n/a	n/a	blue
93.072	1.0333	ITI	n/a	n/a	n/a	n/a	n/a	n/a	n/a	n/a
94.1053	0.5333	FIXCROSS	n/a	n/a	n/a	n/a	n/a	n/a	n/a	n/a
94.6386	0.7	INK	25	Incongruent	żółty	yellow	niebieski	blue	hit	n/a
95.3098	n/a	RESPONSE	n/a	n/a	n/a	n/a	n/a	n/a	n/a	blue
95.3387	1.0333	ITI	n/a	n/a	n/a	n/a	n/a	n/a	n/a	n/a
96.372	0.5333	FIXCROSS	n/a	n/a	n/a	n/a	n/a	n/a	n/a	n/a
96.9053	0.5	INK	26	Neutral	xxxxxxxxx	xxxxxxxxx	czerwony	red	hit	n/a
97.372	n/a	RESPONSE	n/a	n/a	n/a	n/a	n/a	n/a	n/a	red
97.4054	1.0333	ITI	n/a	n/a	n/a	n/a	n/a	n/a	n/a	n/a
98.4387	0.5333	FIXCROSS	n/a	n/a	n/a	n/a	n/a	n/a	n/a	n/a
98.972	0.45	INK	27	Incongruent	zielony	green	czerwony	red	hit	n/a
99.3863	n/a	RESPONSE	n/a	n/a	n/a	n/a	n/a	n/a	n/a	red
99.422	1.0333	ITI	n/a	n/a	n/a	n/a	n/a	n/a	n/a	n/a
100.4554	0.5333	FIXCROSS	n/a	n/a	n/a	n/a	n/a	n/a	n/a	n/a
100.9887	0.8333	INK	28	Incongruent	żółty	yellow	niebieski	blue	hit	n/a
101.7842	n/a	RESPONSE	n/a	n/a	n/a	n/a	n/a	n/a	n/a	blue
101.8221	1.0333	ITI	n/a	n/a	n/a	n/a	n/a	n/a	n/a	n/a
102.8554	0.5333	FIXCROSS	n/a	n/a	n/a	n/a	n/a	n/a	n/a	n/a
103.3888	0.45	INK	29	Incongruent	czerwony	red	niebieski	blue	hit	n/a
103.7984	n/a	RESPONSE	n/a	n/a	n/a	n/a	n/a	n/a	n/a	blue
103.8388	1.0333	ITI	n/a	n/a	n/a	n/a	n/a	n/a	n/a	n/a
104.8721	0.5333	FIXCROSS	n/a	n/a	n/a	n/a	n/a	n/a	n/a	n/a
105.4055	0.5	INK	30	Incongruent	czerwony	red	żółty	yellow	hit	n/a
105.8767	n/a	RESPONSE	n/a	n/a	n/a	n/a	n/a	n/a	n/a	yellow
105.9055	1.0333	ITI	n/a	n/a	n/a	n/a	n/a	n/a	n/a	n/a
106.9388	0.5333	FIXCROSS	n/a	n/a	n/a	n/a	n/a	n/a	n/a	n/a
107.4721	0.5167	INK	31	Incongruent	niebieski	blue	żółty	yellow	hit	n/a
107.9548	n/a	RESPONSE	n/a	n/a	n/a	n/a	n/a	n/a	n/a	yellow
107.9888	1.0333	ITI	n/a	n/a	n/a	n/a	n/a	n/a	n/a	n/a
109.0222	0.5333	FIXCROSS	n/a	n/a	n/a	n/a	n/a	n/a	n/a	n/a
109.5555	0.4667	INK	32	Neutral	xxxxxxx	xxxxxxx	żółty	yellow	hit	n/a
109.9852	n/a	RESPONSE	n/a	n/a	n/a	n/a	n/a	n/a	n/a	yellow
110.0222	1.0333	ITI	n/a	n/a	n/a	n/a	n/a	n/a	n/a	n/a
111.0555	0.5333	FIXCROSS	n/a	n/a	n/a	n/a	n/a	n/a	n/a	n/a
111.5889	0.4667	INK	33	Incongruent	niebieski	blue	czerwony	red	hit	n/a
112.0154	n/a	RESPONSE	n/a	n/a	n/a	n/a	n/a	n/a	n/a	red
112.0555	1.0333	ITI	n/a	n/a	n/a	n/a	n/a	n/a	n/a	n/a
113.0889	0.5333	FIXCROSS	n/a	n/a	n/a	n/a	n/a	n/a	n/a	n/a
113.6222	0.55	INK	34	Neutral	xxxxxxxx	xxxxxxxx	zielony	green	hit	n/a
114.1415	n/a	RESPONSE	n/a	n/a	n/a	n/a	n/a	n/a	n/a	green
114.1722	1.0333	ITI	n/a	n/a	n/a	n/a	n/a	n/a	n/a	n/a
115.2056	0.5333	FIXCROSS	n/a	n/a	n/a	n/a	n/a	n/a	n/a	n/a
115.7389	0.4667	INK	35	Neutral	xxxxxxxx	xxxxxxxx	żółty	yellow	hit	n/a
116.1717	n/a	RESPONSE	n/a	n/a	n/a	n/a	n/a	n/a	n/a	yellow
116.2056	1.0333	ITI	n/a	n/a	n/a	n/a	n/a	n/a	n/a	n/a
117.2389	0.5333	FIXCROSS	n/a	n/a	n/a	n/a	n/a	n/a	n/a	n/a
117.7723	0.4667	INK	36	Neutral	xxxxx	xxxxx	czerwony	red	hit	n/a
118.2021	n/a	RESPONSE	n/a	n/a	n/a	n/a	n/a	n/a	n/a	red
118.2389	1.0333	ITI	n/a	n/a	n/a	n/a	n/a	n/a	n/a	n/a
119.2723	0.5333	FIXCROSS	n/a	n/a	n/a	n/a	n/a	n/a	n/a	n/a
119.8056	0.9	INK	37	Incongruent	niebieski	blue	zielony	green	hit	n/a
120.664	n/a	RESPONSE	n/a	n/a	n/a	n/a	n/a	n/a	n/a	green
120.7056	1.0333	ITI	n/a	n/a	n/a	n/a	n/a	n/a	n/a	n/a
121.739	0.5333	FIXCROSS	n/a	n/a	n/a	n/a	n/a	n/a	n/a	n/a
122.2723	0.5333	INK	38	Neutral	xxxxxxxx	xxxxxxxx	zielony	green	hit	n/a
122.7741	n/a	RESPONSE	n/a	n/a	n/a	n/a	n/a	n/a	n/a	green
122.8057	1.0333	ITI	n/a	n/a	n/a	n/a	n/a	n/a	n/a	n/a
123.839	0.5333	FIXCROSS	n/a	n/a	n/a	n/a	n/a	n/a	n/a	n/a
124.3724	0.45	INK	39	Neutral	xxxxxxxxx	xxxxxxxxx	zielony	green	hit	n/a
124.7883	n/a	RESPONSE	n/a	n/a	n/a	n/a	n/a	n/a	n/a	green
124.8224	1.0333	ITI	n/a	n/a	n/a	n/a	n/a	n/a	n/a	n/a
125.8557	0.5333	FIXCROSS	n/a	n/a	n/a	n/a	n/a	n/a	n/a	n/a
126.389	0.5667	INK	40	Incongruent	czerwony	red	niebieski	blue	hit	n/a
126.9145	n/a	RESPONSE	n/a	n/a	n/a	n/a	n/a	n/a	n/a	blue
126.9557	1.0333	ITI	n/a	n/a	n/a	n/a	n/a	n/a	n/a	n/a
127.9891	0.5333	FIXCROSS	n/a	n/a	n/a	n/a	n/a	n/a	n/a	n/a
128.5224	0.45	INK	41	Incongruent	czerwony	red	zielony	green	hit	n/a
128.9448	n/a	RESPONSE	n/a	n/a	n/a	n/a	n/a	n/a	n/a	green
128.9724	1.0333	ITI	n/a	n/a	n/a	n/a	n/a	n/a	n/a	n/a
130.0058	0.5333	FIXCROSS	n/a	n/a	n/a	n/a	n/a	n/a	n/a	n/a
130.5391	0.5	INK	42	Incongruent	niebieski	blue	czerwony	red	hit	n/a
131.007	n/a	RESPONSE	n/a	n/a	n/a	n/a	n/a	n/a	n/a	red
131.0391	1.0334	ITI	n/a	n/a	n/a	n/a	n/a	n/a	n/a	n/a
132.0724	0.5333	FIXCROSS	n/a	n/a	n/a	n/a	n/a	n/a	n/a	n/a
132.6058	0.7333	INK	43	Incongruent	niebieski	blue	zielony	green	incorrect	n/a
133.3089	n/a	RESPONSE	n/a	n/a	n/a	n/a	n/a	n/a	n/a	blue
133.3391	1.0334	ITI	n/a	n/a	n/a	n/a	n/a	n/a	n/a	n/a
134.3725	0.5333	FIXCROSS	n/a	n/a	n/a	n/a	n/a	n/a	n/a	n/a
134.9058	0.5	INK	44	Neutral	xxxxx	xxxxx	czerwony	red	hit	n/a
135.3712	n/a	RESPONSE	n/a	n/a	n/a	n/a	n/a	n/a	n/a	red
135.4058	1.0333	ITI	n/a	n/a	n/a	n/a	n/a	n/a	n/a	n/a
136.4392	0.5333	FIXCROSS	n/a	n/a	n/a	n/a	n/a	n/a	n/a	n/a
136.9725	0.4667	INK	45	Neutral	xxxxx	xxxxx	zielony	green	hit	n/a
137.4015	n/a	RESPONSE	n/a	n/a	n/a	n/a	n/a	n/a	n/a	green
137.4392	1.0333	ITI	n/a	n/a	n/a	n/a	n/a	n/a	n/a	n/a
138.4725	0.5333	FIXCROSS	n/a	n/a	n/a	n/a	n/a	n/a	n/a	n/a
139.0059	0.5333	INK	46	Incongruent	zielony	green	niebieski	blue	hit	n/a
139.4957	n/a	RESPONSE	n/a	n/a	n/a	n/a	n/a	n/a	n/a	blue
139.5392	1.0333	ITI	n/a	n/a	n/a	n/a	n/a	n/a	n/a	n/a
140.5725	0.5333	FIXCROSS	n/a	n/a	n/a	n/a	n/a	n/a	n/a	n/a
141.1059	0.45	INK	47	Incongruent	czerwony	red	żółty	yellow	hit	n/a
141.5259	n/a	RESPONSE	n/a	n/a	n/a	n/a	n/a	n/a	n/a	yellow
141.5559	1.0333	ITI	n/a	n/a	n/a	n/a	n/a	n/a	n/a	n/a
142.5892	0.5333	FIXCROSS	n/a	n/a	n/a	n/a	n/a	n/a	n/a	n/a
143.1226	0.5167	INK	48	Incongruent	zielony	green	żółty	yellow	hit	n/a
143.6042	n/a	RESPONSE	n/a	n/a	n/a	n/a	n/a	n/a	n/a	yellow
143.6393	1.0333	ITI	n/a	n/a	n/a	n/a	n/a	n/a	n/a	n/a
144.6726	0.5333	FIXCROSS	n/a	n/a	n/a	n/a	n/a	n/a	n/a	n/a
145.2059	0.45	INK	49	Neutral	xxxxxxx	xxxxxxx	żółty	yellow	hit	n/a
145.6184	n/a	RESPONSE	n/a	n/a	n/a	n/a	n/a	n/a	n/a	yellow
145.6559	1.0333	ITI	n/a	n/a	n/a	n/a	n/a	n/a	n/a	n/a
146.6893	0.5333	FIXCROSS	n/a	n/a	n/a	n/a	n/a	n/a	n/a	n/a
147.2226	0.8333	INK	50	Neutral	xxxxx	xxxxx	niebieski	blue	hit	n/a
148.0164	n/a	RESPONSE	n/a	n/a	n/a	n/a	n/a	n/a	n/a	blue
148.056	1.0333	ITI	n/a	n/a	n/a	n/a	n/a	n/a	n/a	n/a
149.0893	0.5333	FIXCROSS	n/a	n/a	n/a	n/a	n/a	n/a	n/a	n/a
149.6227	0.5667	INK	51	Incongruent	żółty	yellow	zielony	green	hit	n/a
150.1585	n/a	RESPONSE	n/a	n/a	n/a	n/a	n/a	n/a	n/a	green
150.1893	1.0334	ITI	n/a	n/a	n/a	n/a	n/a	n/a	n/a	n/a
151.2227	0.5333	FIXCROSS	n/a	n/a	n/a	n/a	n/a	n/a	n/a	n/a
151.756	0.5833	INK	52	Incongruent	żółty	yellow	czerwony	red	hit	n/a
152.3006	n/a	RESPONSE	n/a	n/a	n/a	n/a	n/a	n/a	n/a	red
152.3394	1.0333	ITI	n/a	n/a	n/a	n/a	n/a	n/a	n/a	n/a
153.3727	0.5333	FIXCROSS	n/a	n/a	n/a	n/a	n/a	n/a	n/a	n/a
153.906	0.9167	INK	53	Neutral	xxxxxxxxx	xxxxxxxxx	żółty	yellow	hit	n/a
154.7945	n/a	RESPONSE	n/a	n/a	n/a	n/a	n/a	n/a	n/a	yellow
154.8227	1.0333	ITI	n/a	n/a	n/a	n/a	n/a	n/a	n/a	n/a
155.8561	0.5333	FIXCROSS	n/a	n/a	n/a	n/a	n/a	n/a	n/a	n/a
156.3894	0.4667	INK	54	Incongruent	zielony	green	żółty	yellow	hit	n/a
156.8248	n/a	RESPONSE	n/a	n/a	n/a	n/a	n/a	n/a	n/a	yellow
156.8561	1.0334	ITI	n/a	n/a	n/a	n/a	n/a	n/a	n/a	n/a
157.8894	0.5333	FIXCROSS	n/a	n/a	n/a	n/a	n/a	n/a	n/a	n/a
158.4228	0.35	INK	55	Neutral	xxxxxxx	xxxxxxx	żółty	yellow	hit	n/a
158.743	n/a	RESPONSE	n/a	n/a	n/a	n/a	n/a	n/a	n/a	yellow
158.7728	1.0333	ITI	n/a	n/a	n/a	n/a	n/a	n/a	n/a	n/a
159.8061	0.5333	FIXCROSS	n/a	n/a	n/a	n/a	n/a	n/a	n/a	n/a
160.3395	0.55	INK	56	Neutral	xxxxxxxxx	xxxxxxxxx	zielony	green	hit	n/a
160.8533	n/a	RESPONSE	n/a	n/a	n/a	n/a	n/a	n/a	n/a	green
160.8895	1.0333	ITI	n/a	n/a	n/a	n/a	n/a	n/a	n/a	n/a
161.9228	0.5333	FIXCROSS	n/a	n/a	n/a	n/a	n/a	n/a	n/a	n/a
162.4561	0.5833	INK	57	Incongruent	żółty	yellow	zielony	green	hit	n/a
162.9954	n/a	RESPONSE	n/a	n/a	n/a	n/a	n/a	n/a	n/a	green
163.0395	1.0333	ITI	n/a	n/a	n/a	n/a	n/a	n/a	n/a	n/a
164.0728	0.5333	FIXCROSS	n/a	n/a	n/a	n/a	n/a	n/a	n/a	n/a
164.6062	0.4333	INK	58	Neutral	xxxxxxx	xxxxxxx	niebieski	blue	hit	n/a
165.0097	n/a	RESPONSE	n/a	n/a	n/a	n/a	n/a	n/a	n/a	blue
165.0395	1.0333	ITI	n/a	n/a	n/a	n/a	n/a	n/a	n/a	n/a
166.0729	0.5333	FIXCROSS	n/a	n/a	n/a	n/a	n/a	n/a	n/a	n/a
166.6062	0.4	INK	59	Neutral	xxxxxxx	xxxxxxx	niebieski	blue	hit	n/a
166.976	n/a	RESPONSE	n/a	n/a	n/a	n/a	n/a	n/a	n/a	blue
167.0062	1.0333	ITI	n/a	n/a	n/a	n/a	n/a	n/a	n/a	n/a
168.0395	0.5333	FIXCROSS	n/a	n/a	n/a	n/a	n/a	n/a	n/a	n/a
168.5729	0.5833	INK	60	Neutral	xxxxxxxxx	xxxxxxxxx	czerwony	red	hit	n/a
169.1182	n/a	RESPONSE	n/a	n/a	n/a	n/a	n/a	n/a	n/a	red
169.1562	1.0333	ITI	n/a	n/a	n/a	n/a	n/a	n/a	n/a	n/a
170.1896	0.5333	FIXCROSS	n/a	n/a	n/a	n/a	n/a	n/a	n/a	n/a
170.7229	0.5833	INK	61	Neutral	xxxxx	xxxxx	niebieski	blue	hit	n/a
171.2763	n/a	RESPONSE	n/a	n/a	n/a	n/a	n/a	n/a	n/a	blue
171.3062	1.0334	ITI	n/a	n/a	n/a	n/a	n/a	n/a	n/a	n/a
172.3396	0.5333	FIXCROSS	n/a	n/a	n/a	n/a	n/a	n/a	n/a	n/a
172.8729	0.95	INK	62	Incongruent	niebieski	blue	żółty	yellow	hit	n/a
173.7862	n/a	RESPONSE	n/a	n/a	n/a	n/a	n/a	n/a	n/a	yellow
173.8229	1.0334	ITI	n/a	n/a	n/a	n/a	n/a	n/a	n/a	n/a
174.8563	0.5333	FIXCROSS	n/a	n/a	n/a	n/a	n/a	n/a	n/a	n/a
175.3896	0.6667	INK	63	Incongruent	zielony	green	niebieski	blue	hit	n/a
176.0243	n/a	RESPONSE	n/a	n/a	n/a	n/a	n/a	n/a	n/a	blue
176.0563	1.0333	ITI	n/a	n/a	n/a	n/a	n/a	n/a	n/a	n/a
177.0896	0.5333	FIXCROSS	n/a	n/a	n/a	n/a	n/a	n/a	n/a	n/a
177.623	0.4833	INK	64	Neutral	xxxxx	xxxxx	czerwony	red	hit	n/a
178.0705	n/a	RESPONSE	n/a	n/a	n/a	n/a	n/a	n/a	n/a	red
178.1063	1.0333	ITI	n/a	n/a	n/a	n/a	n/a	n/a	n/a	n/a
179.1397	0.5333	FIXCROSS	n/a	n/a	n/a	n/a	n/a	n/a	n/a	n/a
179.673	0.4	INK	65	Incongruent	zielony	green	czerwony	red	hit	n/a
180.0369	n/a	RESPONSE	n/a	n/a	n/a	n/a	n/a	n/a	n/a	red
180.073	1.0333	ITI	n/a	n/a	n/a	n/a	n/a	n/a	n/a	n/a
181.1064	0.5334	FIXCROSS	n/a	n/a	n/a	n/a	n/a	n/a	n/a	n/a
181.6397	0.6167	INK	66	Neutral	xxxxxxx	xxxxxxx	niebieski	blue	hit	n/a
182.227	n/a	RESPONSE	n/a	n/a	n/a	n/a	n/a	n/a	n/a	blue
182.2564	1.0334	ITI	n/a	n/a	n/a	n/a	n/a	n/a	n/a	n/a
183.2897	0.5333	FIXCROSS	n/a	n/a	n/a	n/a	n/a	n/a	n/a	n/a
183.8231	0.8167	INK	67	Incongruent	czerwony	red	zielony	green	hit	n/a
184.6088	n/a	RESPONSE	n/a	n/a	n/a	n/a	n/a	n/a	n/a	green
184.6397	1.0334	ITI	n/a	n/a	n/a	n/a	n/a	n/a	n/a	n/a
185.6731	0.5333	FIXCROSS	n/a	n/a	n/a	n/a	n/a	n/a	n/a	n/a
186.2064	0.4833	INK	68	Incongruent	żółty	yellow	zielony	green	hit	n/a
186.6551	n/a	RESPONSE	n/a	n/a	n/a	n/a	n/a	n/a	n/a	green
186.6898	1.0333	ITI	n/a	n/a	n/a	n/a	n/a	n/a	n/a	n/a
187.7231	0.5333	FIXCROSS	n/a	n/a	n/a	n/a	n/a	n/a	n/a	n/a
188.2565	0.5	INK	69	Neutral	xxxxxxx	xxxxxxx	czerwony	red	hit	n/a
188.7173	n/a	RESPONSE	n/a	n/a	n/a	n/a	n/a	n/a	n/a	red
188.7565	1.0333	ITI	n/a	n/a	n/a	n/a	n/a	n/a	n/a	n/a
189.7898	0.5333	FIXCROSS	n/a	n/a	n/a	n/a	n/a	n/a	n/a	n/a
190.3232	0.6167	INK	70	Neutral	xxxxxxxxx	xxxxxxxxx	żółty	yellow	incorrect	n/a
190.9075	n/a	RESPONSE	n/a	n/a	n/a	n/a	n/a	n/a	n/a	green
190.9398	1.0333	ITI	n/a	n/a	n/a	n/a	n/a	n/a	n/a	n/a
191.9732	0.5333	FIXCROSS	n/a	n/a	n/a	n/a	n/a	n/a	n/a	n/a
192.5065	0.4667	INK	71	Neutral	xxxxxxxx	xxxxxxxx	niebieski	blue	incorrect	n/a
192.9378	n/a	RESPONSE	n/a	n/a	n/a	n/a	n/a	n/a	n/a	green
192.9732	1.0333	ITI	n/a	n/a	n/a	n/a	n/a	n/a	n/a	n/a
194.0065	0.5333	FIXCROSS	n/a	n/a	n/a	n/a	n/a	n/a	n/a	n/a
194.5399	0.4667	INK	72	Neutral	xxxxx	xxxxx	niebieski	blue	incorrect	n/a
194.968	n/a	RESPONSE	n/a	n/a	n/a	n/a	n/a	n/a	n/a	green
195.0065	1.0833	ITI	n/a	n/a	n/a	n/a	n/a	n/a	n/a	n/a
210.2667	n/a	RESPONSE	n/a	n/a	n/a	n/a	n/a	n/a	n/a	n/a
210.3401	1.0333	ITI	n/a	n/a	n/a	n/a	n/a	n/a	n/a	n/a
211.3734	0.5333	FIXCROSS	n/a	n/a	n/a	n/a	n/a	n/a	n/a	n/a
211.9067	0.7167	T_COLOR_NAME	1	Neutral	czerwony	red	Neutral	Neutral	hit	n/a
212.5847	n/a	RESPONSE	n/a	n/a	n/a	n/a	n/a	n/a	n/a	red
212.6234	0.5333	FEEDBACK	n/a	n/a	n/a	n/a	n/a	n/a	n/a	n/a
213.1568	1.0333	ITI	n/a	n/a	n/a	n/a	n/a	n/a	n/a	n/a
214.1901	0.5333	FIXCROSS	n/a	n/a	n/a	n/a	n/a	n/a	n/a	n/a
214.7234	0.6167	T_COLOR_NAME	2	Incongruent	czerwony	red	żółty	yellow	hit	n/a
215.3024	n/a	RESPONSE	n/a	n/a	n/a	n/a	n/a	n/a	n/a	red
215.3401	0.5333	FEEDBACK	n/a	n/a	n/a	n/a	n/a	n/a	n/a	n/a
215.8735	1.0333	ITI	n/a	n/a	n/a	n/a	n/a	n/a	n/a	n/a
216.9068	0.5333	FIXCROSS	n/a	n/a	n/a	n/a	n/a	n/a	n/a	n/a
217.4401	0.55	T_COLOR_NAME	3	Neutral	zielony	green	Neutral	Neutral	hit	n/a
217.9561	n/a	RESPONSE	n/a	n/a	n/a	n/a	n/a	n/a	n/a	green
217.9901	0.5333	FEEDBACK	n/a	n/a	n/a	n/a	n/a	n/a	n/a	n/a
218.5235	1.0333	ITI	n/a	n/a	n/a	n/a	n/a	n/a	n/a	n/a
219.5568	0.5333	FIXCROSS	n/a	n/a	n/a	n/a	n/a	n/a	n/a	n/a
220.0902	0.5167	T_COLOR_NAME	4	Neutral	zielony	green	Neutral	Neutral	hit	n/a
220.5618	n/a	RESPONSE	n/a	n/a	n/a	n/a	n/a	n/a	n/a	green
220.6068	0.5333	FEEDBACK	n/a	n/a	n/a	n/a	n/a	n/a	n/a	n/a
221.1402	1.0334	ITI	n/a	n/a	n/a	n/a	n/a	n/a	n/a	n/a
222.1735	0.5333	FIXCROSS	n/a	n/a	n/a	n/a	n/a	n/a	n/a	n/a
222.7069	0.5667	T_COLOR_NAME	5	Neutral	żółty	yellow	Neutral	Neutral	hit	n/a
223.2316	n/a	RESPONSE	n/a	n/a	n/a	n/a	n/a	n/a	n/a	yellow
223.2735	0.5333	FEEDBACK	n/a	n/a	n/a	n/a	n/a	n/a	n/a	n/a
223.8069	1.0333	ITI	n/a	n/a	n/a	n/a	n/a	n/a	n/a	n/a
224.8402	0.5333	FIXCROSS	n/a	n/a	n/a	n/a	n/a	n/a	n/a	n/a
225.3736	0.6833	T_COLOR_NAME	6	Incongruent	zielony	green	żółty	yellow	hit	n/a
226.0133	n/a	RESPONSE	n/a	n/a	n/a	n/a	n/a	n/a	n/a	green
226.0569	0.5333	FEEDBACK	n/a	n/a	n/a	n/a	n/a	n/a	n/a	n/a
226.5902	1.0334	ITI	n/a	n/a	n/a	n/a	n/a	n/a	n/a	n/a
227.6236	0.5333	FIXCROSS	n/a	n/a	n/a	n/a	n/a	n/a	n/a	n/a
228.1569	0.4333	T_COLOR_NAME	7	Incongruent	żółty	yellow	niebieski	blue	hit	n/a
228.555	n/a	RESPONSE	n/a	n/a	n/a	n/a	n/a	n/a	n/a	yellow
228.5903	0.5333	FEEDBACK	n/a	n/a	n/a	n/a	n/a	n/a	n/a	n/a
229.1236	1.0333	ITI	n/a	n/a	n/a	n/a	n/a	n/a	n/a	n/a
230.157	0.5333	FIXCROSS	n/a	n/a	n/a	n/a	n/a	n/a	n/a	n/a
230.6903	0.5333	T_COLOR_NAME	8	Neutral	czerwony	red	Neutral	Neutral	hit	n/a
231.1927	n/a	RESPONSE	n/a	n/a	n/a	n/a	n/a	n/a	n/a	red
231.2236	0.5333	FEEDBACK	n/a	n/a	n/a	n/a	n/a	n/a	n/a	n/a
231.757	1.0333	ITI	n/a	n/a	n/a	n/a	n/a	n/a	n/a	n/a
232.7903	0.5333	FIXCROSS	n/a	n/a	n/a	n/a	n/a	n/a	n/a	n/a
233.3237	0.6	T_COLOR_NAME	9	Neutral	zielony	green	Neutral	Neutral	hit	n/a
233.8785	n/a	RESPONSE	n/a	n/a	n/a	n/a	n/a	n/a	n/a	green
233.9237	0.5333	FEEDBACK	n/a	n/a	n/a	n/a	n/a	n/a	n/a	n/a
234.457	1.0333	ITI	n/a	n/a	n/a	n/a	n/a	n/a	n/a	n/a
235.4903	0.5333	FIXCROSS	n/a	n/a	n/a	n/a	n/a	n/a	n/a	n/a
236.0237	0.9334	T_COLOR_NAME	10	Incongruent	niebieski	blue	czerwony	red	hit	n/a
236.9158	n/a	RESPONSE	n/a	n/a	n/a	n/a	n/a	n/a	n/a	blue
236.957	0.5333	FEEDBACK	n/a	n/a	n/a	n/a	n/a	n/a	n/a	n/a
237.4904	1.0333	ITI	n/a	n/a	n/a	n/a	n/a	n/a	n/a	n/a
238.5237	0.5333	FIXCROSS	n/a	n/a	n/a	n/a	n/a	n/a	n/a	n/a
239.0571	0.7167	T_COLOR_NAME	11	Incongruent	zielony	green	czerwony	red	hit	n/a
239.7294	n/a	RESPONSE	n/a	n/a	n/a	n/a	n/a	n/a	n/a	green
239.7737	0.5333	FEEDBACK	n/a	n/a	n/a	n/a	n/a	n/a	n/a	n/a
240.3071	1.0333	ITI	n/a	n/a	n/a	n/a	n/a	n/a	n/a	n/a
241.3404	0.5333	FIXCROSS	n/a	n/a	n/a	n/a	n/a	n/a	n/a	n/a
241.8738	0.45	T_COLOR_NAME	12	Neutral	żółty	yellow	Neutral	Neutral	hit	n/a
242.2871	n/a	RESPONSE	n/a	n/a	n/a	n/a	n/a	n/a	n/a	yellow
242.3238	0.5333	FEEDBACK	n/a	n/a	n/a	n/a	n/a	n/a	n/a	n/a
242.8571	1.05	ITI	n/a	n/a	n/a	n/a	n/a	n/a	n/a	n/a
245.1168	n/a	RESPONSE	n/a	n/a	n/a	n/a	n/a	n/a	n/a	n/a
245.1905	1.0	ITI	n/a	n/a	n/a	n/a	n/a	n/a	n/a	n/a
246.1905	0.5	FIXCROSS	n/a	n/a	n/a	n/a	n/a	n/a	n/a	n/a
246.6905	0.5667	COLOR_NAME	1	Neutral	niebieski	blue	Neutral	Neutral	hit	n/a
247.2429	n/a	RESPONSE	n/a	n/a	n/a	n/a	n/a	n/a	n/a	blue
247.2572	1.0	ITI	n/a	n/a	n/a	n/a	n/a	n/a	n/a	n/a
248.2572	0.5	FIXCROSS	n/a	n/a	n/a	n/a	n/a	n/a	n/a	n/a
248.7572	0.5667	COLOR_NAME	2	Incongruent	żółty	yellow	niebieski	blue	hit	n/a
249.3051	n/a	RESPONSE	n/a	n/a	n/a	n/a	n/a	n/a	n/a	yellow
249.3239	1.0167	ITI	n/a	n/a	n/a	n/a	n/a	n/a	n/a	n/a
250.3405	0.5333	FIXCROSS	n/a	n/a	n/a	n/a	n/a	n/a	n/a	n/a
250.8739	0.5	COLOR_NAME	3	Incongruent	żółty	yellow	niebieski	blue	hit	n/a
251.3355	n/a	RESPONSE	n/a	n/a	n/a	n/a	n/a	n/a	n/a	yellow
251.3739	1.0333	ITI	n/a	n/a	n/a	n/a	n/a	n/a	n/a	n/a
252.4072	0.5333	FIXCROSS	n/a	n/a	n/a	n/a	n/a	n/a	n/a	n/a
252.9406	0.4333	COLOR_NAME	4	Neutral	zielony	green	Neutral	Neutral	hit	n/a
253.3337	n/a	RESPONSE	n/a	n/a	n/a	n/a	n/a	n/a	n/a	green
253.3739	1.0333	ITI	n/a	n/a	n/a	n/a	n/a	n/a	n/a	n/a
254.4072	0.5333	FIXCROSS	n/a	n/a	n/a	n/a	n/a	n/a	n/a	n/a
254.9406	0.55	COLOR_NAME	5	Incongruent	czerwony	red	żółty	yellow	hit	n/a
255.4599	n/a	RESPONSE	n/a	n/a	n/a	n/a	n/a	n/a	n/a	red
255.4906	1.0333	ITI	n/a	n/a	n/a	n/a	n/a	n/a	n/a	n/a
256.5239	0.5333	FIXCROSS	n/a	n/a	n/a	n/a	n/a	n/a	n/a	n/a
257.0573	0.4667	COLOR_NAME	6	Incongruent	zielony	green	niebieski	blue	hit	n/a
257.49	n/a	RESPONSE	n/a	n/a	n/a	n/a	n/a	n/a	n/a	green
257.5239	1.0333	ITI	n/a	n/a	n/a	n/a	n/a	n/a	n/a	n/a
258.5573	0.5333	FIXCROSS	n/a	n/a	n/a	n/a	n/a	n/a	n/a	n/a
259.0906	0.65	COLOR_NAME	7	Incongruent	niebieski	blue	czerwony	red	hit	n/a
259.6961	n/a	RESPONSE	n/a	n/a	n/a	n/a	n/a	n/a	n/a	blue
259.7406	1.0334	ITI	n/a	n/a	n/a	n/a	n/a	n/a	n/a	n/a
260.774	0.5333	FIXCROSS	n/a	n/a	n/a	n/a	n/a	n/a	n/a	n/a
261.3073	0.5833	COLOR_NAME	8	Incongruent	czerwony	red	zielony	green	hit	n/a
261.8544	n/a	RESPONSE	n/a	n/a	n/a	n/a	n/a	n/a	n/a	red
261.8907	1.0333	ITI	n/a	n/a	n/a	n/a	n/a	n/a	n/a	n/a
262.924	0.5334	FIXCROSS	n/a	n/a	n/a	n/a	n/a	n/a	n/a	n/a
263.4574	0.5833	COLOR_NAME	9	Incongruent	niebieski	blue	zielony	green	hit	n/a
263.9965	n/a	RESPONSE	n/a	n/a	n/a	n/a	n/a	n/a	n/a	blue
264.0407	1.0333	ITI	n/a	n/a	n/a	n/a	n/a	n/a	n/a	n/a
265.074	0.5333	FIXCROSS	n/a	n/a	n/a	n/a	n/a	n/a	n/a	n/a
265.6074	0.5333	COLOR_NAME	10	Incongruent	zielony	green	czerwony	red	hit	n/a
266.1066	n/a	RESPONSE	n/a	n/a	n/a	n/a	n/a	n/a	n/a	green
266.1407	1.0333	ITI	n/a	n/a	n/a	n/a	n/a	n/a	n/a	n/a
267.1741	0.5333	FIXCROSS	n/a	n/a	n/a	n/a	n/a	n/a	n/a	n/a
267.7074	0.4333	COLOR_NAME	11	Neutral	żółty	yellow	Neutral	Neutral	hit	n/a
268.1049	n/a	RESPONSE	n/a	n/a	n/a	n/a	n/a	n/a	n/a	yellow
268.1407	1.0334	ITI	n/a	n/a	n/a	n/a	n/a	n/a	n/a	n/a
269.1741	0.5333	FIXCROSS	n/a	n/a	n/a	n/a	n/a	n/a	n/a	n/a
269.7074	0.5333	COLOR_NAME	12	Neutral	niebieski	blue	Neutral	Neutral	hit	n/a
270.1992	n/a	RESPONSE	n/a	n/a	n/a	n/a	n/a	n/a	n/a	blue
270.2408	1.0333	ITI	n/a	n/a	n/a	n/a	n/a	n/a	n/a	n/a
271.2741	0.5333	FIXCROSS	n/a	n/a	n/a	n/a	n/a	n/a	n/a	n/a
271.8075	0.5	COLOR_NAME	13	Neutral	czerwony	red	Neutral	Neutral	hit	n/a
272.2773	n/a	RESPONSE	n/a	n/a	n/a	n/a	n/a	n/a	n/a	red
272.3075	1.0333	ITI	n/a	n/a	n/a	n/a	n/a	n/a	n/a	n/a
273.3408	0.5333	FIXCROSS	n/a	n/a	n/a	n/a	n/a	n/a	n/a	n/a
273.8741	0.6167	COLOR_NAME	14	Incongruent	zielony	green	żółty	yellow	hit	n/a
274.4514	n/a	RESPONSE	n/a	n/a	n/a	n/a	n/a	n/a	n/a	green
274.4908	1.0333	ITI	n/a	n/a	n/a	n/a	n/a	n/a	n/a	n/a
275.5242	0.5333	FIXCROSS	n/a	n/a	n/a	n/a	n/a	n/a	n/a	n/a
276.0575	0.55	COLOR_NAME	15	Neutral	czerwony	red	Neutral	Neutral	hit	n/a
276.5776	n/a	RESPONSE	n/a	n/a	n/a	n/a	n/a	n/a	n/a	red
276.6075	1.0333	ITI	n/a	n/a	n/a	n/a	n/a	n/a	n/a	n/a
277.6408	0.5333	FIXCROSS	n/a	n/a	n/a	n/a	n/a	n/a	n/a	n/a
278.1742	0.8	COLOR_NAME	16	Neutral	zielony	green	Neutral	Neutral	hit	n/a
278.9276	n/a	RESPONSE	n/a	n/a	n/a	n/a	n/a	n/a	n/a	green
278.9742	1.0333	ITI	n/a	n/a	n/a	n/a	n/a	n/a	n/a	n/a
280.0075	0.5333	FIXCROSS	n/a	n/a	n/a	n/a	n/a	n/a	n/a	n/a
280.5409	0.65	COLOR_NAME	17	Incongruent	zielony	green	niebieski	blue	hit	n/a
281.1497	n/a	RESPONSE	n/a	n/a	n/a	n/a	n/a	n/a	n/a	green
281.1909	1.0333	ITI	n/a	n/a	n/a	n/a	n/a	n/a	n/a	n/a
282.2242	0.5333	FIXCROSS	n/a	n/a	n/a	n/a	n/a	n/a	n/a	n/a
282.7576	0.5167	COLOR_NAME	18	Incongruent	niebieski	blue	zielony	green	hit	n/a
283.2438	n/a	RESPONSE	n/a	n/a	n/a	n/a	n/a	n/a	n/a	blue
283.2743	1.0333	ITI	n/a	n/a	n/a	n/a	n/a	n/a	n/a	n/a
284.3076	0.5333	FIXCROSS	n/a	n/a	n/a	n/a	n/a	n/a	n/a	n/a
284.8409	0.65	COLOR_NAME	19	Neutral	czerwony	red	Neutral	Neutral	hit	n/a
285.4499	n/a	RESPONSE	n/a	n/a	n/a	n/a	n/a	n/a	n/a	red
285.4909	1.0333	ITI	n/a	n/a	n/a	n/a	n/a	n/a	n/a	n/a
286.5243	0.5333	FIXCROSS	n/a	n/a	n/a	n/a	n/a	n/a	n/a	n/a
287.0576	1.0	COLOR_NAME	20	Neutral	niebieski	blue	Neutral	Neutral	hit	n/a
288.0238	n/a	RESPONSE	n/a	n/a	n/a	n/a	n/a	n/a	n/a	blue
288.0576	1.0333	ITI	n/a	n/a	n/a	n/a	n/a	n/a	n/a	n/a
289.091	0.5333	FIXCROSS	n/a	n/a	n/a	n/a	n/a	n/a	n/a	n/a
289.6243	0.6333	COLOR_NAME	21	Neutral	zielony	green	Neutral	Neutral	hit	n/a
290.2139	n/a	RESPONSE	n/a	n/a	n/a	n/a	n/a	n/a	n/a	green
290.2577	1.0334	ITI	n/a	n/a	n/a	n/a	n/a	n/a	n/a	n/a
291.291	0.5333	FIXCROSS	n/a	n/a	n/a	n/a	n/a	n/a	n/a	n/a
291.8244	0.5333	COLOR_NAME	22	Neutral	niebieski	blue	Neutral	Neutral	hit	n/a
292.324	n/a	RESPONSE	n/a	n/a	n/a	n/a	n/a	n/a	n/a	blue
292.3577	1.0334	ITI	n/a	n/a	n/a	n/a	n/a	n/a	n/a	n/a
293.391	0.5333	FIXCROSS	n/a	n/a	n/a	n/a	n/a	n/a	n/a	n/a
293.9244	0.5833	COLOR_NAME	23	Incongruent	niebieski	blue	zielony	green	hit	n/a
294.4662	n/a	RESPONSE	n/a	n/a	n/a	n/a	n/a	n/a	n/a	blue
294.5077	1.0334	ITI	n/a	n/a	n/a	n/a	n/a	n/a	n/a	n/a
294.6421	n/a	RESPONSE	n/a	n/a	n/a	n/a	n/a	n/a	n/a	blue
295.5411	0.5333	FIXCROSS	n/a	n/a	n/a	n/a	n/a	n/a	n/a	n/a
296.0744	0.6	COLOR_NAME	24	Neutral	żółty	yellow	Neutral	Neutral	hit	n/a
296.6404	n/a	RESPONSE	n/a	n/a	n/a	n/a	n/a	n/a	n/a	yellow
296.6744	1.0333	ITI	n/a	n/a	n/a	n/a	n/a	n/a	n/a	n/a
297.7077	0.5333	FIXCROSS	n/a	n/a	n/a	n/a	n/a	n/a	n/a	n/a
298.2411	0.45	COLOR_NAME	25	Incongruent	żółty	yellow	niebieski	blue	hit	n/a
298.6546	n/a	RESPONSE	n/a	n/a	n/a	n/a	n/a	n/a	n/a	yellow
298.6911	1.0333	ITI	n/a	n/a	n/a	n/a	n/a	n/a	n/a	n/a
299.7244	0.5333	FIXCROSS	n/a	n/a	n/a	n/a	n/a	n/a	n/a	n/a
300.2578	0.5833	COLOR_NAME	26	Neutral	czerwony	red	Neutral	Neutral	hit	n/a
300.8127	n/a	RESPONSE	n/a	n/a	n/a	n/a	n/a	n/a	n/a	red
300.8411	1.0333	ITI	n/a	n/a	n/a	n/a	n/a	n/a	n/a	n/a
301.8745	0.5334	FIXCROSS	n/a	n/a	n/a	n/a	n/a	n/a	n/a	n/a
302.4078	0.6	COLOR_NAME	27	Neutral	niebieski	blue	Neutral	Neutral	hit	n/a
302.9708	n/a	RESPONSE	n/a	n/a	n/a	n/a	n/a	n/a	n/a	blue
303.0078	1.0333	ITI	n/a	n/a	n/a	n/a	n/a	n/a	n/a	n/a
304.0412	0.5333	FIXCROSS	n/a	n/a	n/a	n/a	n/a	n/a	n/a	n/a
304.5745	0.4833	COLOR_NAME	28	Neutral	niebieski	blue	Neutral	Neutral	hit	n/a
305.017	n/a	RESPONSE	n/a	n/a	n/a	n/a	n/a	n/a	n/a	blue
305.0578	1.0333	ITI	n/a	n/a	n/a	n/a	n/a	n/a	n/a	n/a
306.0912	0.5333	FIXCROSS	n/a	n/a	n/a	n/a	n/a	n/a	n/a	n/a
306.6245	0.5167	COLOR_NAME	29	Neutral	żółty	yellow	Neutral	Neutral	hit	n/a
307.1113	n/a	RESPONSE	n/a	n/a	n/a	n/a	n/a	n/a	n/a	yellow
307.1412	1.0334	ITI	n/a	n/a	n/a	n/a	n/a	n/a	n/a	n/a
308.1745	0.5333	FIXCROSS	n/a	n/a	n/a	n/a	n/a	n/a	n/a	n/a
308.7079	0.6	COLOR_NAME	30	Incongruent	niebieski	blue	żółty	yellow	hit	n/a
309.2694	n/a	RESPONSE	n/a	n/a	n/a	n/a	n/a	n/a	n/a	blue
309.3079	1.0334	ITI	n/a	n/a	n/a	n/a	n/a	n/a	n/a	n/a
310.3412	0.5333	FIXCROSS	n/a	n/a	n/a	n/a	n/a	n/a	n/a	n/a
310.8746	0.5833	COLOR_NAME	31	Incongruent	żółty	yellow	zielony	green	hit	n/a
311.4276	n/a	RESPONSE	n/a	n/a	n/a	n/a	n/a	n/a	n/a	yellow
311.4579	1.0334	ITI	n/a	n/a	n/a	n/a	n/a	n/a	n/a	n/a
312.4913	0.5333	FIXCROSS	n/a	n/a	n/a	n/a	n/a	n/a	n/a	n/a
313.0246	0.65	COLOR_NAME	32	Incongruent	zielony	green	czerwony	red	hit	n/a
313.6336	n/a	RESPONSE	n/a	n/a	n/a	n/a	n/a	n/a	n/a	green
313.6746	1.0333	ITI	n/a	n/a	n/a	n/a	n/a	n/a	n/a	n/a
314.708	0.5333	FIXCROSS	n/a	n/a	n/a	n/a	n/a	n/a	n/a	n/a
315.2413	0.5167	COLOR_NAME	33	Neutral	niebieski	blue	Neutral	Neutral	hit	n/a
315.7278	n/a	RESPONSE	n/a	n/a	n/a	n/a	n/a	n/a	n/a	blue
315.758	1.0334	ITI	n/a	n/a	n/a	n/a	n/a	n/a	n/a	n/a
316.7913	0.5333	FIXCROSS	n/a	n/a	n/a	n/a	n/a	n/a	n/a	n/a
317.3246	0.5667	COLOR_NAME	34	Neutral	zielony	green	Neutral	Neutral	hit	n/a
317.8539	n/a	RESPONSE	n/a	n/a	n/a	n/a	n/a	n/a	n/a	green
317.8913	1.0333	ITI	n/a	n/a	n/a	n/a	n/a	n/a	n/a	n/a
318.9247	0.5333	FIXCROSS	n/a	n/a	n/a	n/a	n/a	n/a	n/a	n/a
319.458	0.5334	COLOR_NAME	35	Incongruent	niebieski	blue	żółty	yellow	hit	n/a
319.9482	n/a	RESPONSE	n/a	n/a	n/a	n/a	n/a	n/a	n/a	blue
319.9914	1.0333	ITI	n/a	n/a	n/a	n/a	n/a	n/a	n/a	n/a
321.0247	0.5333	FIXCROSS	n/a	n/a	n/a	n/a	n/a	n/a	n/a	n/a
321.558	0.8167	COLOR_NAME	36	Incongruent	zielony	green	niebieski	blue	hit	n/a
322.3462	n/a	RESPONSE	n/a	n/a	n/a	n/a	n/a	n/a	n/a	green
322.3747	1.0333	ITI	n/a	n/a	n/a	n/a	n/a	n/a	n/a	n/a
323.4081	0.5333	FIXCROSS	n/a	n/a	n/a	n/a	n/a	n/a	n/a	n/a
323.9414	0.65	COLOR_NAME	37	Incongruent	niebieski	blue	czerwony	red	hit	n/a
324.5523	n/a	RESPONSE	n/a	n/a	n/a	n/a	n/a	n/a	n/a	blue
324.5914	1.0333	ITI	n/a	n/a	n/a	n/a	n/a	n/a	n/a	n/a
325.6247	0.5333	FIXCROSS	n/a	n/a	n/a	n/a	n/a	n/a	n/a	n/a
326.1581	0.7	COLOR_NAME	38	Incongruent	czerwony	red	zielony	green	hit	n/a
326.8222	n/a	RESPONSE	n/a	n/a	n/a	n/a	n/a	n/a	n/a	red
326.8581	1.0333	ITI	n/a	n/a	n/a	n/a	n/a	n/a	n/a	n/a
327.8914	0.5333	FIXCROSS	n/a	n/a	n/a	n/a	n/a	n/a	n/a	n/a
328.4248	0.7	COLOR_NAME	39	Neutral	niebieski	blue	Neutral	Neutral	hit	n/a
329.0923	n/a	RESPONSE	n/a	n/a	n/a	n/a	n/a	n/a	n/a	blue
329.1248	1.0333	ITI	n/a	n/a	n/a	n/a	n/a	n/a	n/a	n/a
330.1581	0.5333	FIXCROSS	n/a	n/a	n/a	n/a	n/a	n/a	n/a	n/a
330.6915	0.7333	COLOR_NAME	40	Neutral	czerwony	red	Neutral	Neutral	hit	n/a
331.3783	n/a	RESPONSE	n/a	n/a	n/a	n/a	n/a	n/a	n/a	red
331.4248	1.0334	ITI	n/a	n/a	n/a	n/a	n/a	n/a	n/a	n/a
332.4582	0.5333	FIXCROSS	n/a	n/a	n/a	n/a	n/a	n/a	n/a	n/a
332.9915	0.7167	COLOR_NAME	41	Neutral	żółty	yellow	Neutral	Neutral	hit	n/a
333.6805	n/a	RESPONSE	n/a	n/a	n/a	n/a	n/a	n/a	n/a	yellow
333.7082	1.0333	ITI	n/a	n/a	n/a	n/a	n/a	n/a	n/a	n/a
334.7415	0.5333	FIXCROSS	n/a	n/a	n/a	n/a	n/a	n/a	n/a	n/a
335.2749	0.7167	COLOR_NAME	42	Incongruent	niebieski	blue	żółty	yellow	hit	n/a
335.9504	n/a	RESPONSE	n/a	n/a	n/a	n/a	n/a	n/a	n/a	blue
335.9915	1.0333	ITI	n/a	n/a	n/a	n/a	n/a	n/a	n/a	n/a
337.0249	0.5333	FIXCROSS	n/a	n/a	n/a	n/a	n/a	n/a	n/a	n/a
337.5582	0.65	COLOR_NAME	43	Neutral	zielony	green	Neutral	Neutral	hit	n/a
338.1725	n/a	RESPONSE	n/a	n/a	n/a	n/a	n/a	n/a	n/a	green
338.2082	1.0334	ITI	n/a	n/a	n/a	n/a	n/a	n/a	n/a	n/a
339.2416	0.5333	FIXCROSS	n/a	n/a	n/a	n/a	n/a	n/a	n/a	n/a
339.7749	0.6333	COLOR_NAME	44	Neutral	żółty	yellow	Neutral	Neutral	hit	n/a
340.3785	n/a	RESPONSE	n/a	n/a	n/a	n/a	n/a	n/a	n/a	yellow
340.4083	1.0333	ITI	n/a	n/a	n/a	n/a	n/a	n/a	n/a	n/a
341.4416	0.5333	FIXCROSS	n/a	n/a	n/a	n/a	n/a	n/a	n/a	n/a
341.9749	0.5833	COLOR_NAME	45	Incongruent	żółty	yellow	czerwony	red	hit	n/a
342.5207	n/a	RESPONSE	n/a	n/a	n/a	n/a	n/a	n/a	n/a	yellow
342.5583	1.0333	ITI	n/a	n/a	n/a	n/a	n/a	n/a	n/a	n/a
343.5916	0.5333	FIXCROSS	n/a	n/a	n/a	n/a	n/a	n/a	n/a	n/a
344.125	0.6333	COLOR_NAME	46	Neutral	czerwony	red	Neutral	Neutral	hit	n/a
344.7269	n/a	RESPONSE	n/a	n/a	n/a	n/a	n/a	n/a	n/a	red
344.7583	1.0333	ITI	n/a	n/a	n/a	n/a	n/a	n/a	n/a	n/a
345.7916	0.5333	FIXCROSS	n/a	n/a	n/a	n/a	n/a	n/a	n/a	n/a
346.325	0.6833	COLOR_NAME	47	Incongruent	zielony	green	żółty	yellow	hit	n/a
346.9648	n/a	RESPONSE	n/a	n/a	n/a	n/a	n/a	n/a	n/a	green
347.0083	1.0333	ITI	n/a	n/a	n/a	n/a	n/a	n/a	n/a	n/a
348.0417	0.5333	FIXCROSS	n/a	n/a	n/a	n/a	n/a	n/a	n/a	n/a
348.575	0.6333	COLOR_NAME	48	Neutral	zielony	green	Neutral	Neutral	hit	n/a
349.1709	n/a	RESPONSE	n/a	n/a	n/a	n/a	n/a	n/a	n/a	green
349.2084	1.0333	ITI	n/a	n/a	n/a	n/a	n/a	n/a	n/a	n/a
350.2417	0.5334	FIXCROSS	n/a	n/a	n/a	n/a	n/a	n/a	n/a	n/a
350.775	0.7	COLOR_NAME	49	Neutral	żółty	yellow	Neutral	Neutral	hit	n/a
351.441	n/a	RESPONSE	n/a	n/a	n/a	n/a	n/a	n/a	n/a	yellow
351.475	1.0334	ITI	n/a	n/a	n/a	n/a	n/a	n/a	n/a	n/a
352.5084	0.5333	FIXCROSS	n/a	n/a	n/a	n/a	n/a	n/a	n/a	n/a
353.0417	0.6333	COLOR_NAME	50	Neutral	zielony	green	Neutral	Neutral	hit	n/a
353.6312	n/a	RESPONSE	n/a	n/a	n/a	n/a	n/a	n/a	n/a	green
353.6751	1.0333	ITI	n/a	n/a	n/a	n/a	n/a	n/a	n/a	n/a
354.7084	0.5333	FIXCROSS	n/a	n/a	n/a	n/a	n/a	n/a	n/a	n/a
355.2418	0.5333	COLOR_NAME	51	Incongruent	żółty	yellow	czerwony	red	hit	n/a
355.7412	n/a	RESPONSE	n/a	n/a	n/a	n/a	n/a	n/a	n/a	yellow
355.7751	1.0333	ITI	n/a	n/a	n/a	n/a	n/a	n/a	n/a	n/a
356.8084	0.5333	FIXCROSS	n/a	n/a	n/a	n/a	n/a	n/a	n/a	n/a
357.3418	0.6167	COLOR_NAME	52	Neutral	czerwony	red	Neutral	Neutral	hit	n/a
357.9154	n/a	RESPONSE	n/a	n/a	n/a	n/a	n/a	n/a	n/a	red
357.9585	1.0333	ITI	n/a	n/a	n/a	n/a	n/a	n/a	n/a	n/a
358.9918	0.5333	FIXCROSS	n/a	n/a	n/a	n/a	n/a	n/a	n/a	n/a
359.5251	0.8667	COLOR_NAME	53	Neutral	niebieski	blue	Neutral	Neutral	hit	n/a
360.3612	n/a	RESPONSE	n/a	n/a	n/a	n/a	n/a	n/a	n/a	blue
360.3918	1.0333	ITI	n/a	n/a	n/a	n/a	n/a	n/a	n/a	n/a
361.4252	0.5333	FIXCROSS	n/a	n/a	n/a	n/a	n/a	n/a	n/a	n/a
361.9585	0.8333	COLOR_NAME	54	Neutral	zielony	green	Neutral	Neutral	hit	n/a
362.7592	n/a	RESPONSE	n/a	n/a	n/a	n/a	n/a	n/a	n/a	green
362.7918	1.0333	ITI	n/a	n/a	n/a	n/a	n/a	n/a	n/a	n/a
363.8252	0.5333	FIXCROSS	n/a	n/a	n/a	n/a	n/a	n/a	n/a	n/a
364.3585	0.6667	COLOR_NAME	55	Incongruent	czerwony	red	żółty	yellow	hit	n/a
364.9813	n/a	RESPONSE	n/a	n/a	n/a	n/a	n/a	n/a	n/a	red
365.0252	1.0333	ITI	n/a	n/a	n/a	n/a	n/a	n/a	n/a	n/a
366.0586	0.5334	FIXCROSS	n/a	n/a	n/a	n/a	n/a	n/a	n/a	n/a
366.5919	0.8167	COLOR_NAME	56	Incongruent	zielony	green	czerwony	red	hit	n/a
367.3792	n/a	RESPONSE	n/a	n/a	n/a	n/a	n/a	n/a	n/a	green
367.4086	1.0333	ITI	n/a	n/a	n/a	n/a	n/a	n/a	n/a	n/a
368.4419	0.5333	FIXCROSS	n/a	n/a	n/a	n/a	n/a	n/a	n/a	n/a
368.9753	0.5333	COLOR_NAME	57	Neutral	żółty	yellow	Neutral	Neutral	hit	n/a
369.4734	n/a	RESPONSE	n/a	n/a	n/a	n/a	n/a	n/a	n/a	yellow
369.5086	1.0334	ITI	n/a	n/a	n/a	n/a	n/a	n/a	n/a	n/a
370.5419	0.5333	FIXCROSS	n/a	n/a	n/a	n/a	n/a	n/a	n/a	n/a
371.0753	0.5833	COLOR_NAME	58	Incongruent	żółty	yellow	zielony	green	incorrect	n/a
371.6155	n/a	RESPONSE	n/a	n/a	n/a	n/a	n/a	n/a	n/a	green
371.6586	1.0333	ITI	n/a	n/a	n/a	n/a	n/a	n/a	n/a	n/a
372.692	0.5333	FIXCROSS	n/a	n/a	n/a	n/a	n/a	n/a	n/a	n/a
373.2253	0.5333	COLOR_NAME	59	Incongruent	żółty	yellow	czerwony	red	hit	n/a
373.7258	n/a	RESPONSE	n/a	n/a	n/a	n/a	n/a	n/a	n/a	yellow
373.7586	1.0333	ITI	n/a	n/a	n/a	n/a	n/a	n/a	n/a	n/a
374.792	0.5333	FIXCROSS	n/a	n/a	n/a	n/a	n/a	n/a	n/a	n/a
375.3253	0.5333	COLOR_NAME	60	Incongruent	czerwony	red	niebieski	blue	hit	n/a
375.82	n/a	RESPONSE	n/a	n/a	n/a	n/a	n/a	n/a	n/a	red
375.8587	1.0333	ITI	n/a	n/a	n/a	n/a	n/a	n/a	n/a	n/a
376.892	0.5333	FIXCROSS	n/a	n/a	n/a	n/a	n/a	n/a	n/a	n/a
377.4254	0.5667	COLOR_NAME	61	Incongruent	zielony	green	żółty	yellow	hit	n/a
377.9621	n/a	RESPONSE	n/a	n/a	n/a	n/a	n/a	n/a	n/a	green
377.992	1.0333	ITI	n/a	n/a	n/a	n/a	n/a	n/a	n/a	n/a
379.0254	0.5333	FIXCROSS	n/a	n/a	n/a	n/a	n/a	n/a	n/a	n/a
379.5587	0.5833	COLOR_NAME	62	Incongruent	czerwony	red	niebieski	blue	hit	n/a
380.1042	n/a	RESPONSE	n/a	n/a	n/a	n/a	n/a	n/a	n/a	red
380.142	1.0333	ITI	n/a	n/a	n/a	n/a	n/a	n/a	n/a	n/a
381.1754	0.5333	FIXCROSS	n/a	n/a	n/a	n/a	n/a	n/a	n/a	n/a
381.7087	0.5667	COLOR_NAME	63	Incongruent	czerwony	red	zielony	green	hit	n/a
382.2464	n/a	RESPONSE	n/a	n/a	n/a	n/a	n/a	n/a	n/a	red
382.2754	1.0333	ITI	n/a	n/a	n/a	n/a	n/a	n/a	n/a	n/a
383.3088	0.5333	FIXCROSS	n/a	n/a	n/a	n/a	n/a	n/a	n/a	n/a
383.8421	0.5667	COLOR_NAME	64	Neutral	żółty	yellow	Neutral	Neutral	hit	n/a
384.3725	n/a	RESPONSE	n/a	n/a	n/a	n/a	n/a	n/a	n/a	yellow
384.4088	1.0334	ITI	n/a	n/a	n/a	n/a	n/a	n/a	n/a	n/a
385.4421	0.5333	FIXCROSS	n/a	n/a	n/a	n/a	n/a	n/a	n/a	n/a
385.9755	0.55	COLOR_NAME	65	Neutral	czerwony	red	Neutral	Neutral	hit	n/a
386.4828	n/a	RESPONSE	n/a	n/a	n/a	n/a	n/a	n/a	n/a	red
386.5255	1.0333	ITI	n/a	n/a	n/a	n/a	n/a	n/a	n/a	n/a
387.5588	0.5333	FIXCROSS	n/a	n/a	n/a	n/a	n/a	n/a	n/a	n/a
388.0921	0.6333	COLOR_NAME	66	Incongruent	żółty	yellow	zielony	green	hit	n/a
388.6889	n/a	RESPONSE	n/a	n/a	n/a	n/a	n/a	n/a	n/a	yellow
388.7255	1.0333	ITI	n/a	n/a	n/a	n/a	n/a	n/a	n/a	n/a
389.7588	0.5333	FIXCROSS	n/a	n/a	n/a	n/a	n/a	n/a	n/a	n/a
390.2922	0.9	COLOR_NAME	67	Incongruent	czerwony	red	niebieski	blue	hit	n/a
391.1508	n/a	RESPONSE	n/a	n/a	n/a	n/a	n/a	n/a	n/a	red
391.1922	1.0334	ITI	n/a	n/a	n/a	n/a	n/a	n/a	n/a	n/a
392.2255	0.5333	FIXCROSS	n/a	n/a	n/a	n/a	n/a	n/a	n/a	n/a
392.7589	0.5	COLOR_NAME	68	Neutral	żółty	yellow	Neutral	Neutral	hit	n/a
393.229	n/a	RESPONSE	n/a	n/a	n/a	n/a	n/a	n/a	n/a	yellow
393.2589	1.0333	ITI	n/a	n/a	n/a	n/a	n/a	n/a	n/a	n/a
394.2922	0.5333	FIXCROSS	n/a	n/a	n/a	n/a	n/a	n/a	n/a	n/a
394.8256	0.5167	COLOR_NAME	69	Incongruent	niebieski	blue	czerwony	red	hit	n/a
395.3071	n/a	RESPONSE	n/a	n/a	n/a	n/a	n/a	n/a	n/a	blue
395.3422	1.0333	ITI	n/a	n/a	n/a	n/a	n/a	n/a	n/a	n/a
396.3756	0.5334	FIXCROSS	n/a	n/a	n/a	n/a	n/a	n/a	n/a	n/a
396.9089	0.65	COLOR_NAME	70	Neutral	zielony	green	Neutral	Neutral	hit	n/a
397.5292	n/a	RESPONSE	n/a	n/a	n/a	n/a	n/a	n/a	n/a	green
397.5589	1.0333	ITI	n/a	n/a	n/a	n/a	n/a	n/a	n/a	n/a
398.5923	0.5333	FIXCROSS	n/a	n/a	n/a	n/a	n/a	n/a	n/a	n/a
399.1256	0.55	COLOR_NAME	71	Incongruent	czerwony	red	żółty	yellow	incorrect	n/a
399.6394	n/a	RESPONSE	n/a	n/a	n/a	n/a	n/a	n/a	n/a	yellow
399.6756	1.0334	ITI	n/a	n/a	n/a	n/a	n/a	n/a	n/a	n/a
400.709	0.5333	FIXCROSS	n/a	n/a	n/a	n/a	n/a	n/a	n/a	n/a
401.2423	0.5667	COLOR_NAME	72	Neutral	czerwony	red	Neutral	Neutral	hit	n/a
401.7655	n/a	RESPONSE	n/a	n/a	n/a	n/a	n/a	n/a	n/a	red
401.809	1.05	ITI	n/a	n/a	n/a	n/a	n/a	n/a	n/a	n/a
404.5471	n/a	RESPONSE	n/a	n/a	n/a	n/a	n/a	n/a	n/a	n/a
