onset	duration	trial_type	braille_stimulus	targets	response_count
2.017	2.008	CUE_6_DOT	n/a	n/a	n/a
7.017	1.008	FIXCROSS	n/a	n/a	n/a
8.034	5.008	6_DOT_DETECTION	ETMMP	0	n/a
13.067	1.008	FIXCROSS	n/a	n/a	n/a
14.083	5.009	6_DOT_DETECTION	#MAM#	2	n/a
16.16	n/a	RESPONSE	n/a	n/a	1/2
19.117	1.008	FIXCROSS	n/a	n/a	n/a
19.416	n/a	RESPONSE	n/a	n/a	2/2
20.134	5.008	6_DOT_DETECTION	#MUEI	1	n/a
21.696	n/a	RESPONSE	n/a	n/a	1/1
25.167	1.008	FIXCROSS	n/a	n/a	n/a
26.184	5.008	6_DOT_DETECTION	#ODY#	2	n/a
27.6	n/a	RESPONSE	n/a	n/a	1/2
29.936	n/a	RESPONSE	n/a	n/a	2/2
31.08	n/a	RESPONSE	n/a	n/a	3/2
31.217	1.008	FIXCROSS	n/a	n/a	n/a
32.233	5.009	6_DOT_DETECTION	L#OPP	1	n/a
34.76	n/a	RESPONSE	n/a	n/a	1/1
37.267	1.008	FIXCROSS	n/a	n/a	n/a
38.284	5.008	6_DOT_DETECTION	EESLŁ	0	n/a
43.317	1.008	FIXCROSS	n/a	n/a	n/a
44.333	5.009	6_DOT_DETECTION	TLE#A	1	n/a
48.176	n/a	RESPONSE	n/a	n/a	1/1
49.367	1.008	FIXCROSS	n/a	n/a	n/a
50.384	5.008	6_DOT_DETECTION	MIT##	2	n/a
55.176	n/a	RESPONSE	n/a	n/a	1/2
57.425	2.008	CUE_REST	n/a	n/a	n/a
62.425	1.008	FIXCROSS	n/a	n/a	n/a
68.476	1.008	FIXCROSS	n/a	n/a	n/a
75.534	2.008	CUE_6_DOT	n/a	n/a	n/a
80.534	1.008	FIXCROSS	n/a	n/a	n/a
81.55	5.008	6_DOT_DETECTION	O#CLC	1	n/a
84.12	n/a	RESPONSE	n/a	n/a	1/1
86.584	1.008	FIXCROSS	n/a	n/a	n/a
87.6	5.009	6_DOT_DETECTION	CPCPO	0	n/a
92.634	1.008	FIXCROSS	n/a	n/a	n/a
93.651	5.008	6_DOT_DETECTION	CDYCS	0	n/a
96.92	n/a	RESPONSE	n/a	n/a	1/0
98.684	1.008	FIXCROSS	n/a	n/a	n/a
99.7	5.009	6_DOT_DETECTION	#MAT#	2	n/a
101.576	n/a	RESPONSE	n/a	n/a	1/2
104.734	1.008	FIXCROSS	n/a	n/a	n/a
104.776	n/a	RESPONSE	n/a	n/a	2/2
105.75	5.009	6_DOT_DETECTION	ASA#S	1	n/a
109.28	n/a	RESPONSE	n/a	n/a	1/1
110.784	1.008	FIXCROSS	n/a	n/a	n/a
111.8	5.009	6_DOT_DETECTION	D#DOM	1	n/a
116.834	1.008	FIXCROSS	n/a	n/a	n/a
117.85	5.009	6_DOT_DETECTION	#BYT#	2	n/a
119.96	n/a	RESPONSE	n/a	n/a	1/2
122.884	1.008	FIXCROSS	n/a	n/a	n/a
122.976	n/a	RESPONSE	n/a	n/a	2/2
123.9	5.009	6_DOT_DETECTION	B#KOS	1	n/a
130.442	2.008	CUE_REST	n/a	n/a	n/a
136.942	1.008	FIXCROSS	n/a	n/a	n/a
142.992	1.008	FIXCROSS	n/a	n/a	n/a
150.551	2.008	CUE_6_DOT	n/a	n/a	n/a
157.051	1.008	FIXCROSS	n/a	n/a	n/a
158.067	5.009	6_DOT_DETECTION	KEBI#	1	n/a
162.496	n/a	RESPONSE	n/a	n/a	1/1
163.101	1.008	FIXCROSS	n/a	n/a	n/a
164.117	5.009	6_DOT_DETECTION	OSI##	2	n/a
167.216	n/a	RESPONSE	n/a	n/a	1/2
169.151	1.008	FIXCROSS	n/a	n/a	n/a
170.167	5.009	6_DOT_DETECTION	ŁIOOI	0	n/a
175.201	1.008	FIXCROSS	n/a	n/a	n/a
176.217	5.009	6_DOT_DETECTION	YOIUC	0	n/a
181.251	1.008	FIXCROSS	n/a	n/a	n/a
182.267	5.009	6_DOT_DETECTION	YMEKP	0	n/a
183.96	n/a	RESPONSE	n/a	n/a	1/0
187.301	1.008	FIXCROSS	n/a	n/a	n/a
188.318	5.008	6_DOT_DETECTION	LOS#O	1	n/a
191.776	n/a	RESPONSE	n/a	n/a	1/1
193.351	1.008	FIXCROSS	n/a	n/a	n/a
194.368	5.008	6_DOT_DETECTION	##ILU	2	n/a
195.816	n/a	RESPONSE	n/a	n/a	1/2
199.401	1.008	FIXCROSS	n/a	n/a	n/a
200.417	5.009	6_DOT_DETECTION	PLLIU	0	n/a
206.959	2.008	CUE_REST	n/a	n/a	n/a
211.459	1.008	FIXCROSS	n/a	n/a	n/a
217.509	1.008	FIXCROSS	n/a	n/a	n/a
225.568	2.008	CUE_6_DOT	n/a	n/a	n/a
231.568	1.008	FIXCROSS	n/a	n/a	n/a
232.584	5.008	6_DOT_DETECTION	Ł#TYM	1	n/a
235.24	n/a	RESPONSE	n/a	n/a	1/1
237.618	1.008	FIXCROSS	n/a	n/a	n/a
238.634	5.008	6_DOT_DETECTION	KOŁ#Y	1	n/a
242.776	n/a	RESPONSE	n/a	n/a	1/1
243.668	1.008	FIXCROSS	n/a	n/a	n/a
244.684	5.008	6_DOT_DETECTION	OYPTK	0	n/a
249.718	1.008	FIXCROSS	n/a	n/a	n/a
250.734	5.008	6_DOT_DETECTION	YSPIU	0	n/a
255.768	1.008	FIXCROSS	n/a	n/a	n/a
256.784	5.009	6_DOT_DETECTION	##CŁO	2	n/a
259.176	n/a	RESPONSE	n/a	n/a	1/2
261.818	1.008	FIXCROSS	n/a	n/a	n/a
262.835	5.008	6_DOT_DETECTION	##ŁUT	2	n/a
265.16	n/a	RESPONSE	n/a	n/a	1/2
267.868	1.008	FIXCROSS	n/a	n/a	n/a
268.885	5.008	6_DOT_DETECTION	#TŁO#	2	n/a
270.056	n/a	RESPONSE	n/a	n/a	1/2
273.32	n/a	RESPONSE	n/a	n/a	2/2
273.926	1.008	FIXCROSS	n/a	n/a	n/a
274.943	5.008	6_DOT_DETECTION	##ŁUP	2	n/a
276.28	n/a	RESPONSE	n/a	n/a	1/2
281.985	2.008	CUE_REST	n/a	n/a	n/a
285.985	1.008	FIXCROSS	n/a	n/a	n/a
292.035	1.008	FIXCROSS	n/a	n/a	n/a
299.593	2.008	CUE_6_DOT	n/a	n/a	n/a
305.093	1.008	FIXCROSS	n/a	n/a	n/a
306.109	5.009	6_DOT_DETECTION	TŁSDB	0	n/a
311.143	1.008	FIXCROSS	n/a	n/a	n/a
312.159	5.009	6_DOT_DETECTION	D#BYK	1	n/a
316.176	n/a	RESPONSE	n/a	n/a	1/1
317.192	1.009	FIXCROSS	n/a	n/a	n/a
318.21	5.008	6_DOT_DETECTION	AALC#	1	n/a
321.696	n/a	RESPONSE	n/a	n/a	1/1
323.243	1.008	FIXCROSS	n/a	n/a	n/a
324.259	5.009	6_DOT_DETECTION	LB#AA	1	n/a
326.736	n/a	RESPONSE	n/a	n/a	1/1
329.293	1.008	FIXCROSS	n/a	n/a	n/a
330.31	5.008	6_DOT_DETECTION	BUK##	2	n/a
333.792	n/a	RESPONSE	n/a	n/a	1/2
335.343	1.008	FIXCROSS	n/a	n/a	n/a
336.36	5.008	6_DOT_DETECTION	##TIK	2	n/a
338.112	n/a	RESPONSE	n/a	n/a	1/2
341.393	1.008	FIXCROSS	n/a	n/a	n/a
342.41	5.008	6_DOT_DETECTION	CACLO	0	n/a
347.443	1.008	FIXCROSS	n/a	n/a	n/a
348.46	5.008	6_DOT_DETECTION	CACKD	0	n/a
354.502	2.008	CUE_REST	n/a	n/a	n/a
360.502	1.008	FIXCROSS	n/a	n/a	n/a
366.552	1.008	FIXCROSS	n/a	n/a	n/a
373.61	2.008	CUE_6_DOT	n/a	n/a	n/a
378.61	1.008	FIXCROSS	n/a	n/a	n/a
379.627	5.008	6_DOT_DETECTION	DYL#A	1	n/a
382.632	n/a	RESPONSE	n/a	n/a	1/1
384.232	n/a	RESPONSE	n/a	n/a	2/1
384.66	1.008	FIXCROSS	n/a	n/a	n/a
385.677	5.008	6_DOT_DETECTION	KPDIA	0	n/a
390.71	1.008	FIXCROSS	n/a	n/a	n/a
391.727	5.008	6_DOT_DETECTION	EPEP#	1	n/a
396.272	n/a	RESPONSE	n/a	n/a	1/1
396.76	1.008	FIXCROSS	n/a	n/a	n/a
397.777	5.008	6_DOT_DETECTION	CUD##	2	n/a
402.513	n/a	RESPONSE	n/a	n/a	1/2
402.81	1.008	FIXCROSS	n/a	n/a	n/a
403.827	5.008	6_DOT_DETECTION	O#ŁKA	1	n/a
406.472	n/a	RESPONSE	n/a	n/a	1/1
408.86	1.008	FIXCROSS	n/a	n/a	n/a
409.877	5.008	6_DOT_DETECTION	MIL##	2	n/a
414.153	n/a	RESPONSE	n/a	n/a	1/2
414.91	1.008	FIXCROSS	n/a	n/a	n/a
415.926	5.009	6_DOT_DETECTION	OMCKC	0	n/a
420.96	1.008	FIXCROSS	n/a	n/a	n/a
421.976	5.009	6_DOT_DETECTION	OOEET	0	n/a
428.019	2.008	CUE_REST	n/a	n/a	n/a
435.019	1.008	FIXCROSS	n/a	n/a	n/a
441.069	1.008	FIXCROSS	n/a	n/a	n/a
