onset	duration	trial_type	trial_number	stroop_condition	stim_text(PL)	stim_text(eng)	stim_color(PL)	stim_color(eng)	response_type	response_color
0.0	n/a	RESPONSE	n/a	n/a	n/a	n/a	n/a	n/a	n/a	n/a
0.0694	1.0333	ITI	n/a	n/a	n/a	n/a	n/a	n/a	n/a	n/a
1.1027	0.5167	FIXCROSS	n/a	n/a	n/a	n/a	n/a	n/a	n/a	n/a
1.6194	2.3167	T_INK	1	Incongruent	niebieski	blue	żółty	yellow	hit	n/a
3.9133	n/a	RESPONSE	n/a	n/a	n/a	n/a	n/a	n/a	n/a	yellow
3.9361	0.5167	FEEDBACK	n/a	n/a	n/a	n/a	n/a	n/a	n/a	n/a
4.4528	1.0167	ITI	n/a	n/a	n/a	n/a	n/a	n/a	n/a	n/a
5.4694	0.5167	FIXCROSS	n/a	n/a	n/a	n/a	n/a	n/a	n/a	n/a
5.9861	1.9	T_INK	2	Incongruent	żółty	yellow	czerwony	red	hit	n/a
7.8587	n/a	RESPONSE	n/a	n/a	n/a	n/a	n/a	n/a	n/a	red
7.8861	0.5167	FEEDBACK	n/a	n/a	n/a	n/a	n/a	n/a	n/a	n/a
8.4028	1.0167	ITI	n/a	n/a	n/a	n/a	n/a	n/a	n/a	n/a
9.4195	0.5167	FIXCROSS	n/a	n/a	n/a	n/a	n/a	n/a	n/a	n/a
9.9361	4.3167	T_INK	3	Neutral	xxxxxxx	xxxxxxx	czerwony	red	hit	n/a
14.216	n/a	RESPONSE	n/a	n/a	n/a	n/a	n/a	n/a	n/a	red
14.2528	0.5167	FEEDBACK	n/a	n/a	n/a	n/a	n/a	n/a	n/a	n/a
14.7695	1.0167	ITI	n/a	n/a	n/a	n/a	n/a	n/a	n/a	n/a
15.7862	0.5167	FIXCROSS	n/a	n/a	n/a	n/a	n/a	n/a	n/a	n/a
16.3029	0.7167	T_INK	4	Neutral	xxxxxxxxx	xxxxxxxxx	czerwony	red	hit	n/a
16.9953	n/a	RESPONSE	n/a	n/a	n/a	n/a	n/a	n/a	n/a	red
17.0195	0.5167	FEEDBACK	n/a	n/a	n/a	n/a	n/a	n/a	n/a	n/a
17.5362	1.0167	ITI	n/a	n/a	n/a	n/a	n/a	n/a	n/a	n/a
18.5529	0.5167	FIXCROSS	n/a	n/a	n/a	n/a	n/a	n/a	n/a	n/a
19.0696	1.2833	T_INK	5	Neutral	xxxxx	xxxxx	zielony	green	hit	n/a
20.3336	n/a	RESPONSE	n/a	n/a	n/a	n/a	n/a	n/a	n/a	green
20.3529	0.5167	FEEDBACK	n/a	n/a	n/a	n/a	n/a	n/a	n/a	n/a
20.8696	1.0167	ITI	n/a	n/a	n/a	n/a	n/a	n/a	n/a	n/a
21.8862	0.5167	FIXCROSS	n/a	n/a	n/a	n/a	n/a	n/a	n/a	n/a
22.4029	0.9833	T_INK	6	Neutral	xxxxxxxx	xxxxxxxx	zielony	green	hit	n/a
23.3525	n/a	RESPONSE	n/a	n/a	n/a	n/a	n/a	n/a	n/a	green
23.3863	0.5167	FEEDBACK	n/a	n/a	n/a	n/a	n/a	n/a	n/a	n/a
23.9029	1.0167	ITI	n/a	n/a	n/a	n/a	n/a	n/a	n/a	n/a
24.9196	0.5167	FIXCROSS	n/a	n/a	n/a	n/a	n/a	n/a	n/a	n/a
25.4363	1.6167	T_INK	7	Incongruent	niebieski	blue	zielony	green	hit	n/a
27.0263	n/a	RESPONSE	n/a	n/a	n/a	n/a	n/a	n/a	n/a	green
27.053	0.5167	FEEDBACK	n/a	n/a	n/a	n/a	n/a	n/a	n/a	n/a
27.5696	1.0167	ITI	n/a	n/a	n/a	n/a	n/a	n/a	n/a	n/a
28.5863	0.5167	FIXCROSS	n/a	n/a	n/a	n/a	n/a	n/a	n/a	n/a
29.103	1.0167	T_INK	8	Neutral	xxxxxxx	xxxxxxx	niebieski	blue	hit	n/a
30.0932	n/a	RESPONSE	n/a	n/a	n/a	n/a	n/a	n/a	n/a	blue
30.1196	0.5167	FEEDBACK	n/a	n/a	n/a	n/a	n/a	n/a	n/a	n/a
30.6363	1.0167	ITI	n/a	n/a	n/a	n/a	n/a	n/a	n/a	n/a
31.653	0.5167	FIXCROSS	n/a	n/a	n/a	n/a	n/a	n/a	n/a	n/a
32.1697	1.6833	T_INK	9	Incongruent	zielony	green	żółty	yellow	hit	n/a
33.8149	n/a	RESPONSE	n/a	n/a	n/a	n/a	n/a	n/a	n/a	yellow
33.853	0.5167	FEEDBACK	n/a	n/a	n/a	n/a	n/a	n/a	n/a	n/a
34.3697	1.0167	ITI	n/a	n/a	n/a	n/a	n/a	n/a	n/a	n/a
35.3864	0.5167	FIXCROSS	n/a	n/a	n/a	n/a	n/a	n/a	n/a	n/a
35.903	1.0	T_INK	10	Neutral	xxxxx	xxxxx	niebieski	blue	hit	n/a
36.8817	n/a	RESPONSE	n/a	n/a	n/a	n/a	n/a	n/a	n/a	blue
36.903	0.5167	FEEDBACK	n/a	n/a	n/a	n/a	n/a	n/a	n/a	n/a
37.4197	1.0167	ITI	n/a	n/a	n/a	n/a	n/a	n/a	n/a	n/a
38.4364	0.5167	FIXCROSS	n/a	n/a	n/a	n/a	n/a	n/a	n/a	n/a
38.9531	1.1333	T_INK	11	Incongruent	zielony	green	niebieski	blue	hit	n/a
40.0603	n/a	RESPONSE	n/a	n/a	n/a	n/a	n/a	n/a	n/a	blue
40.0864	0.5167	FEEDBACK	n/a	n/a	n/a	n/a	n/a	n/a	n/a	n/a
40.6031	1.0167	ITI	n/a	n/a	n/a	n/a	n/a	n/a	n/a	n/a
41.6197	0.5167	FIXCROSS	n/a	n/a	n/a	n/a	n/a	n/a	n/a	n/a
42.1364	1.5833	T_INK	12	Incongruent	czerwony	red	zielony	green	hit	n/a
43.6861	n/a	RESPONSE	n/a	n/a	n/a	n/a	n/a	n/a	n/a	green
43.7197	0.5167	FEEDBACK	n/a	n/a	n/a	n/a	n/a	n/a	n/a	n/a
44.2364	1.0334	ITI	n/a	n/a	n/a	n/a	n/a	n/a	n/a	n/a
54.8514	n/a	RESPONSE	n/a	n/a	n/a	n/a	n/a	n/a	n/a	n/a
54.9198	1.0167	ITI	n/a	n/a	n/a	n/a	n/a	n/a	n/a	n/a
55.9365	0.5167	FIXCROSS	n/a	n/a	n/a	n/a	n/a	n/a	n/a	n/a
56.4532	1.05	INK	1	Neutral	xxxxx	xxxxx	czerwony	red	hit	n/a
57.4708	n/a	RESPONSE	n/a	n/a	n/a	n/a	n/a	n/a	n/a	red
57.5032	1.0167	ITI	n/a	n/a	n/a	n/a	n/a	n/a	n/a	n/a
58.5199	0.5167	FIXCROSS	n/a	n/a	n/a	n/a	n/a	n/a	n/a	n/a
59.0365	0.8833	INK	2	Neutral	xxxxxxxx	xxxxxxxx	żółty	yellow	hit	n/a
59.8989	n/a	RESPONSE	n/a	n/a	n/a	n/a	n/a	n/a	n/a	yellow
59.9199	1.0167	ITI	n/a	n/a	n/a	n/a	n/a	n/a	n/a	n/a
60.9366	0.5167	FIXCROSS	n/a	n/a	n/a	n/a	n/a	n/a	n/a	n/a
61.4532	1.2	INK	3	Neutral	xxxxx	xxxxx	zielony	green	hit	n/a
62.6302	n/a	RESPONSE	n/a	n/a	n/a	n/a	n/a	n/a	n/a	green
62.6532	1.0167	ITI	n/a	n/a	n/a	n/a	n/a	n/a	n/a	n/a
63.6699	0.5167	FIXCROSS	n/a	n/a	n/a	n/a	n/a	n/a	n/a	n/a
64.1866	1.0	INK	4	Incongruent	zielony	green	żółty	yellow	hit	n/a
65.1539	n/a	RESPONSE	n/a	n/a	n/a	n/a	n/a	n/a	n/a	yellow
65.1866	1.0167	ITI	n/a	n/a	n/a	n/a	n/a	n/a	n/a	n/a
66.2033	0.5167	FIXCROSS	n/a	n/a	n/a	n/a	n/a	n/a	n/a	n/a
66.7199	0.8	INK	5	Neutral	xxxxx	xxxxx	czerwony	red	hit	n/a
67.502	n/a	RESPONSE	n/a	n/a	n/a	n/a	n/a	n/a	n/a	red
67.5199	1.0167	ITI	n/a	n/a	n/a	n/a	n/a	n/a	n/a	n/a
68.5366	0.5167	FIXCROSS	n/a	n/a	n/a	n/a	n/a	n/a	n/a	n/a
69.0533	0.6833	INK	6	Neutral	xxxxxxx	xxxxxxx	czerwony	red	hit	n/a
69.7062	n/a	RESPONSE	n/a	n/a	n/a	n/a	n/a	n/a	n/a	red
69.7366	1.0167	ITI	n/a	n/a	n/a	n/a	n/a	n/a	n/a	n/a
70.7533	0.5167	FIXCROSS	n/a	n/a	n/a	n/a	n/a	n/a	n/a	n/a
71.27	0.9167	INK	7	Neutral	xxxxx	xxxxx	niebieski	blue	hit	n/a
72.1661	n/a	RESPONSE	n/a	n/a	n/a	n/a	n/a	n/a	n/a	blue
72.1867	1.0167	ITI	n/a	n/a	n/a	n/a	n/a	n/a	n/a	n/a
73.2033	0.5167	FIXCROSS	n/a	n/a	n/a	n/a	n/a	n/a	n/a	n/a
73.72	0.9	INK	8	Incongruent	niebieski	blue	żółty	yellow	hit	n/a
74.5939	n/a	RESPONSE	n/a	n/a	n/a	n/a	n/a	n/a	n/a	yellow
74.62	1.0167	ITI	n/a	n/a	n/a	n/a	n/a	n/a	n/a	n/a
75.6367	0.5167	FIXCROSS	n/a	n/a	n/a	n/a	n/a	n/a	n/a	n/a
76.1533	0.8333	INK	9	Neutral	xxxxxxxx	xxxxxxxx	niebieski	blue	hit	n/a
76.958	n/a	RESPONSE	n/a	n/a	n/a	n/a	n/a	n/a	n/a	blue
76.9867	1.0167	ITI	n/a	n/a	n/a	n/a	n/a	n/a	n/a	n/a
78.0034	0.5167	FIXCROSS	n/a	n/a	n/a	n/a	n/a	n/a	n/a	n/a
78.52	1.15	INK	10	Incongruent	żółty	yellow	czerwony	red	hit	n/a
79.6415	n/a	RESPONSE	n/a	n/a	n/a	n/a	n/a	n/a	n/a	red
79.67	1.0167	ITI	n/a	n/a	n/a	n/a	n/a	n/a	n/a	n/a
80.6867	0.5167	FIXCROSS	n/a	n/a	n/a	n/a	n/a	n/a	n/a	n/a
81.2034	0.7333	INK	11	Neutral	xxxxxxx	xxxxxxx	czerwony	red	hit	n/a
81.9096	n/a	RESPONSE	n/a	n/a	n/a	n/a	n/a	n/a	n/a	red
81.9367	1.0167	ITI	n/a	n/a	n/a	n/a	n/a	n/a	n/a	n/a
82.9534	0.5167	FIXCROSS	n/a	n/a	n/a	n/a	n/a	n/a	n/a	n/a
83.4701	0.9667	INK	12	Incongruent	zielony	green	niebieski	blue	hit	n/a
84.4173	n/a	RESPONSE	n/a	n/a	n/a	n/a	n/a	n/a	n/a	blue
84.4367	1.0167	ITI	n/a	n/a	n/a	n/a	n/a	n/a	n/a	n/a
85.4534	0.5167	FIXCROSS	n/a	n/a	n/a	n/a	n/a	n/a	n/a	n/a
85.9701	0.9833	INK	13	Incongruent	czerwony	red	zielony	green	hit	n/a
86.9252	n/a	RESPONSE	n/a	n/a	n/a	n/a	n/a	n/a	n/a	green
86.9534	1.0167	ITI	n/a	n/a	n/a	n/a	n/a	n/a	n/a	n/a
87.9701	0.5167	FIXCROSS	n/a	n/a	n/a	n/a	n/a	n/a	n/a	n/a
88.4868	0.95	INK	14	Incongruent	żółty	yellow	niebieski	blue	hit	n/a
89.417	n/a	RESPONSE	n/a	n/a	n/a	n/a	n/a	n/a	n/a	blue
89.4368	1.0167	ITI	n/a	n/a	n/a	n/a	n/a	n/a	n/a	n/a
90.4535	0.5167	FIXCROSS	n/a	n/a	n/a	n/a	n/a	n/a	n/a	n/a
90.9701	0.6667	INK	15	Neutral	xxxxx	xxxxx	czerwony	red	hit	n/a
91.6052	n/a	RESPONSE	n/a	n/a	n/a	n/a	n/a	n/a	n/a	red
91.6368	1.0167	ITI	n/a	n/a	n/a	n/a	n/a	n/a	n/a	n/a
92.6535	0.5167	FIXCROSS	n/a	n/a	n/a	n/a	n/a	n/a	n/a	n/a
93.1702	0.6167	INK	16	Neutral	xxxxxxxxx	xxxxxxxxx	czerwony	red	hit	n/a
93.7616	n/a	RESPONSE	n/a	n/a	n/a	n/a	n/a	n/a	n/a	red
93.7868	1.0167	ITI	n/a	n/a	n/a	n/a	n/a	n/a	n/a	n/a
94.8035	0.5167	FIXCROSS	n/a	n/a	n/a	n/a	n/a	n/a	n/a	n/a
95.3202	0.7834	INK	17	Neutral	xxxxxxxx	xxxxxxxx	niebieski	blue	hit	n/a
96.0777	n/a	RESPONSE	n/a	n/a	n/a	n/a	n/a	n/a	n/a	blue
96.1035	1.0167	ITI	n/a	n/a	n/a	n/a	n/a	n/a	n/a	n/a
97.1202	0.5167	FIXCROSS	n/a	n/a	n/a	n/a	n/a	n/a	n/a	n/a
97.6368	0.7	INK	18	Neutral	xxxxxxxxx	xxxxxxxxx	czerwony	red	hit	n/a
98.3139	n/a	RESPONSE	n/a	n/a	n/a	n/a	n/a	n/a	n/a	red
98.3369	1.0167	ITI	n/a	n/a	n/a	n/a	n/a	n/a	n/a	n/a
99.3535	0.5167	FIXCROSS	n/a	n/a	n/a	n/a	n/a	n/a	n/a	n/a
99.8702	0.95	INK	19	Incongruent	zielony	green	czerwony	red	hit	n/a
100.7896	n/a	RESPONSE	n/a	n/a	n/a	n/a	n/a	n/a	n/a	red
100.8202	1.0167	ITI	n/a	n/a	n/a	n/a	n/a	n/a	n/a	n/a
101.8369	0.5167	FIXCROSS	n/a	n/a	n/a	n/a	n/a	n/a	n/a	n/a
102.3536	0.8833	INK	20	Incongruent	żółty	yellow	zielony	green	hit	n/a
103.2176	n/a	RESPONSE	n/a	n/a	n/a	n/a	n/a	n/a	n/a	green
103.2369	1.0167	ITI	n/a	n/a	n/a	n/a	n/a	n/a	n/a	n/a
104.2536	0.5167	FIXCROSS	n/a	n/a	n/a	n/a	n/a	n/a	n/a	n/a
104.7702	0.95	INK	21	Neutral	xxxxx	xxxxx	niebieski	blue	hit	n/a
105.6933	n/a	RESPONSE	n/a	n/a	n/a	n/a	n/a	n/a	n/a	blue
105.7202	1.0167	ITI	n/a	n/a	n/a	n/a	n/a	n/a	n/a	n/a
106.7369	0.5167	FIXCROSS	n/a	n/a	n/a	n/a	n/a	n/a	n/a	n/a
107.2536	0.6667	INK	22	Neutral	xxxxxxx	xxxxxxx	niebieski	blue	hit	n/a
107.8977	n/a	RESPONSE	n/a	n/a	n/a	n/a	n/a	n/a	n/a	blue
107.9203	1.0167	ITI	n/a	n/a	n/a	n/a	n/a	n/a	n/a	n/a
108.9369	0.5167	FIXCROSS	n/a	n/a	n/a	n/a	n/a	n/a	n/a	n/a
109.4536	0.9	INK	23	Neutral	xxxxxxxxx	xxxxxxxxx	zielony	green	hit	n/a
110.3255	n/a	RESPONSE	n/a	n/a	n/a	n/a	n/a	n/a	n/a	green
110.3536	1.0167	ITI	n/a	n/a	n/a	n/a	n/a	n/a	n/a	n/a
111.3703	0.5167	FIXCROSS	n/a	n/a	n/a	n/a	n/a	n/a	n/a	n/a
111.887	0.9	INK	24	Incongruent	czerwony	red	żółty	yellow	hit	n/a
112.7535	n/a	RESPONSE	n/a	n/a	n/a	n/a	n/a	n/a	n/a	yellow
112.787	1.0167	ITI	n/a	n/a	n/a	n/a	n/a	n/a	n/a	n/a
113.8037	0.5167	FIXCROSS	n/a	n/a	n/a	n/a	n/a	n/a	n/a	n/a
114.3203	0.6833	INK	25	Neutral	xxxxxxxxx	xxxxxxxxx	czerwony	red	hit	n/a
114.9737	n/a	RESPONSE	n/a	n/a	n/a	n/a	n/a	n/a	n/a	red
115.0037	1.0167	ITI	n/a	n/a	n/a	n/a	n/a	n/a	n/a	n/a
116.0203	0.5167	FIXCROSS	n/a	n/a	n/a	n/a	n/a	n/a	n/a	n/a
116.537	0.8	INK	26	Incongruent	żółty	yellow	zielony	green	hit	n/a
117.3058	n/a	RESPONSE	n/a	n/a	n/a	n/a	n/a	n/a	n/a	green
117.337	1.0167	ITI	n/a	n/a	n/a	n/a	n/a	n/a	n/a	n/a
118.3537	0.5167	FIXCROSS	n/a	n/a	n/a	n/a	n/a	n/a	n/a	n/a
118.8703	0.8167	INK	27	Neutral	xxxxxxxxx	xxxxxxxxx	żółty	yellow	hit	n/a
119.6698	n/a	RESPONSE	n/a	n/a	n/a	n/a	n/a	n/a	n/a	yellow
119.687	1.0167	ITI	n/a	n/a	n/a	n/a	n/a	n/a	n/a	n/a
120.7037	0.5167	FIXCROSS	n/a	n/a	n/a	n/a	n/a	n/a	n/a	n/a
121.2204	0.9	INK	28	Incongruent	niebieski	blue	żółty	yellow	hit	n/a
122.0978	n/a	RESPONSE	n/a	n/a	n/a	n/a	n/a	n/a	n/a	yellow
122.1204	1.0167	ITI	n/a	n/a	n/a	n/a	n/a	n/a	n/a	n/a
123.1371	0.5167	FIXCROSS	n/a	n/a	n/a	n/a	n/a	n/a	n/a	n/a
123.6537	0.95	INK	29	Incongruent	czerwony	red	niebieski	blue	hit	n/a
124.5736	n/a	RESPONSE	n/a	n/a	n/a	n/a	n/a	n/a	n/a	blue
124.6037	1.0167	ITI	n/a	n/a	n/a	n/a	n/a	n/a	n/a	n/a
125.6204	0.5167	FIXCROSS	n/a	n/a	n/a	n/a	n/a	n/a	n/a	n/a
126.1371	0.75	INK	30	Neutral	xxxxx	xxxxx	zielony	green	hit	n/a
126.8577	n/a	RESPONSE	n/a	n/a	n/a	n/a	n/a	n/a	n/a	green
126.8871	1.0167	ITI	n/a	n/a	n/a	n/a	n/a	n/a	n/a	n/a
127.9038	0.5167	FIXCROSS	n/a	n/a	n/a	n/a	n/a	n/a	n/a	n/a
128.4204	0.7	INK	31	Incongruent	niebieski	blue	czerwony	red	hit	n/a
129.0939	n/a	RESPONSE	n/a	n/a	n/a	n/a	n/a	n/a	n/a	red
129.1204	1.0167	ITI	n/a	n/a	n/a	n/a	n/a	n/a	n/a	n/a
130.1371	0.5167	FIXCROSS	n/a	n/a	n/a	n/a	n/a	n/a	n/a	n/a
130.6538	0.8167	INK	32	Neutral	xxxxxxxxx	xxxxxxxxx	zielony	green	hit	n/a
131.4419	n/a	RESPONSE	n/a	n/a	n/a	n/a	n/a	n/a	n/a	green
131.4705	1.0167	ITI	n/a	n/a	n/a	n/a	n/a	n/a	n/a	n/a
132.4871	0.5167	FIXCROSS	n/a	n/a	n/a	n/a	n/a	n/a	n/a	n/a
133.0038	0.8	INK	33	Incongruent	czerwony	red	zielony	green	hit	n/a
133.774	n/a	RESPONSE	n/a	n/a	n/a	n/a	n/a	n/a	n/a	green
133.8038	1.0167	ITI	n/a	n/a	n/a	n/a	n/a	n/a	n/a	n/a
134.8205	0.5167	FIXCROSS	n/a	n/a	n/a	n/a	n/a	n/a	n/a	n/a
135.3372	0.85	INK	34	Incongruent	niebieski	blue	zielony	green	hit	n/a
136.154	n/a	RESPONSE	n/a	n/a	n/a	n/a	n/a	n/a	n/a	green
136.1872	1.0167	ITI	n/a	n/a	n/a	n/a	n/a	n/a	n/a	n/a
137.2038	0.5167	FIXCROSS	n/a	n/a	n/a	n/a	n/a	n/a	n/a	n/a
137.7205	0.75	INK	35	Incongruent	niebieski	blue	czerwony	red	hit	n/a
138.4381	n/a	RESPONSE	n/a	n/a	n/a	n/a	n/a	n/a	n/a	red
138.4705	1.0167	ITI	n/a	n/a	n/a	n/a	n/a	n/a	n/a	n/a
139.4872	0.5167	FIXCROSS	n/a	n/a	n/a	n/a	n/a	n/a	n/a	n/a
140.0039	0.75	INK	36	Neutral	xxxxx	xxxxx	zielony	green	hit	n/a
140.7223	n/a	RESPONSE	n/a	n/a	n/a	n/a	n/a	n/a	n/a	green
140.7539	1.0167	ITI	n/a	n/a	n/a	n/a	n/a	n/a	n/a	n/a
141.7705	0.5167	FIXCROSS	n/a	n/a	n/a	n/a	n/a	n/a	n/a	n/a
142.2872	0.75	INK	37	Neutral	xxxxxxx	xxxxxxx	niebieski	blue	hit	n/a
143.0064	n/a	RESPONSE	n/a	n/a	n/a	n/a	n/a	n/a	n/a	blue
143.0372	1.0167	ITI	n/a	n/a	n/a	n/a	n/a	n/a	n/a	n/a
144.0539	0.5167	FIXCROSS	n/a	n/a	n/a	n/a	n/a	n/a	n/a	n/a
144.5706	0.6833	INK	38	Neutral	xxxxxxx	xxxxxxx	niebieski	blue	hit	n/a
145.2266	n/a	RESPONSE	n/a	n/a	n/a	n/a	n/a	n/a	n/a	blue
145.2539	1.0167	ITI	n/a	n/a	n/a	n/a	n/a	n/a	n/a	n/a
146.2706	0.5167	FIXCROSS	n/a	n/a	n/a	n/a	n/a	n/a	n/a	n/a
146.7872	0.7833	INK	39	Neutral	xxxxxxxx	xxxxxxxx	żółty	yellow	hit	n/a
147.5427	n/a	RESPONSE	n/a	n/a	n/a	n/a	n/a	n/a	n/a	yellow
147.5706	1.0167	ITI	n/a	n/a	n/a	n/a	n/a	n/a	n/a	n/a
148.5873	0.5167	FIXCROSS	n/a	n/a	n/a	n/a	n/a	n/a	n/a	n/a
149.1039	0.85	INK	40	Neutral	xxxxx	xxxxx	niebieski	blue	hit	n/a
149.9227	n/a	RESPONSE	n/a	n/a	n/a	n/a	n/a	n/a	n/a	blue
149.9539	1.0167	ITI	n/a	n/a	n/a	n/a	n/a	n/a	n/a	n/a
150.9706	0.5167	FIXCROSS	n/a	n/a	n/a	n/a	n/a	n/a	n/a	n/a
151.4873	0.8333	INK	41	Incongruent	czerwony	red	żółty	yellow	hit	n/a
152.3028	n/a	RESPONSE	n/a	n/a	n/a	n/a	n/a	n/a	n/a	yellow
152.3206	1.0167	ITI	n/a	n/a	n/a	n/a	n/a	n/a	n/a	n/a
153.3373	0.5167	FIXCROSS	n/a	n/a	n/a	n/a	n/a	n/a	n/a	n/a
153.854	0.7167	INK	42	Incongruent	żółty	yellow	czerwony	red	hit	n/a
154.539	n/a	RESPONSE	n/a	n/a	n/a	n/a	n/a	n/a	n/a	red
154.5706	1.0167	ITI	n/a	n/a	n/a	n/a	n/a	n/a	n/a	n/a
155.5873	0.5167	FIXCROSS	n/a	n/a	n/a	n/a	n/a	n/a	n/a	n/a
156.104	0.7	INK	43	Neutral	xxxxxxxx	xxxxxxxx	zielony	green	hit	n/a
156.7752	n/a	RESPONSE	n/a	n/a	n/a	n/a	n/a	n/a	n/a	green
156.804	1.0167	ITI	n/a	n/a	n/a	n/a	n/a	n/a	n/a	n/a
157.8207	0.5167	FIXCROSS	n/a	n/a	n/a	n/a	n/a	n/a	n/a	n/a
158.3373	0.9333	INK	44	Incongruent	czerwony	red	niebieski	blue	hit	n/a
159.251	n/a	RESPONSE	n/a	n/a	n/a	n/a	n/a	n/a	n/a	blue
159.2707	1.0167	ITI	n/a	n/a	n/a	n/a	n/a	n/a	n/a	n/a
160.2874	0.5167	FIXCROSS	n/a	n/a	n/a	n/a	n/a	n/a	n/a	n/a
160.804	0.8167	INK	45	Incongruent	niebieski	blue	czerwony	red	hit	n/a
161.5991	n/a	RESPONSE	n/a	n/a	n/a	n/a	n/a	n/a	n/a	red
161.6207	1.0167	ITI	n/a	n/a	n/a	n/a	n/a	n/a	n/a	n/a
162.6374	0.5167	FIXCROSS	n/a	n/a	n/a	n/a	n/a	n/a	n/a	n/a
163.154	0.6667	INK	46	Neutral	xxxxxxx	xxxxxxx	czerwony	red	hit	n/a
163.7874	n/a	RESPONSE	n/a	n/a	n/a	n/a	n/a	n/a	n/a	red
163.8207	1.0167	ITI	n/a	n/a	n/a	n/a	n/a	n/a	n/a	n/a
164.8374	0.5167	FIXCROSS	n/a	n/a	n/a	n/a	n/a	n/a	n/a	n/a
165.3541	0.9	INK	47	Incongruent	zielony	green	żółty	yellow	hit	n/a
166.2313	n/a	RESPONSE	n/a	n/a	n/a	n/a	n/a	n/a	n/a	yellow
166.2541	1.0167	ITI	n/a	n/a	n/a	n/a	n/a	n/a	n/a	n/a
167.2707	0.5167	FIXCROSS	n/a	n/a	n/a	n/a	n/a	n/a	n/a	n/a
167.7874	0.7667	INK	48	Incongruent	żółty	yellow	zielony	green	hit	n/a
168.5314	n/a	RESPONSE	n/a	n/a	n/a	n/a	n/a	n/a	n/a	green
168.5541	1.0167	ITI	n/a	n/a	n/a	n/a	n/a	n/a	n/a	n/a
169.5708	0.5167	FIXCROSS	n/a	n/a	n/a	n/a	n/a	n/a	n/a	n/a
170.0874	0.8	INK	49	Neutral	xxxxxxxx	xxxxxxxx	niebieski	blue	hit	n/a
170.8635	n/a	RESPONSE	n/a	n/a	n/a	n/a	n/a	n/a	n/a	blue
170.8874	1.0167	ITI	n/a	n/a	n/a	n/a	n/a	n/a	n/a	n/a
171.9041	0.5167	FIXCROSS	n/a	n/a	n/a	n/a	n/a	n/a	n/a	n/a
172.4208	0.7833	INK	50	Incongruent	czerwony	red	zielony	green	hit	n/a
173.1796	n/a	RESPONSE	n/a	n/a	n/a	n/a	n/a	n/a	n/a	green
173.2041	1.0167	ITI	n/a	n/a	n/a	n/a	n/a	n/a	n/a	n/a
174.2208	0.5167	FIXCROSS	n/a	n/a	n/a	n/a	n/a	n/a	n/a	n/a
174.7375	0.8333	INK	51	Neutral	xxxxxxx	xxxxxxx	żółty	yellow	hit	n/a
175.5435	n/a	RESPONSE	n/a	n/a	n/a	n/a	n/a	n/a	n/a	yellow
175.5708	1.0167	ITI	n/a	n/a	n/a	n/a	n/a	n/a	n/a	n/a
176.5875	0.5167	FIXCROSS	n/a	n/a	n/a	n/a	n/a	n/a	n/a	n/a
177.1041	0.7833	INK	52	Incongruent	żółty	yellow	czerwony	red	hit	n/a
177.8596	n/a	RESPONSE	n/a	n/a	n/a	n/a	n/a	n/a	n/a	red
177.8875	1.0167	ITI	n/a	n/a	n/a	n/a	n/a	n/a	n/a	n/a
178.9042	0.5167	FIXCROSS	n/a	n/a	n/a	n/a	n/a	n/a	n/a	n/a
179.4208	0.7833	INK	53	Neutral	xxxxxxxxx	xxxxxxxxx	zielony	green	hit	n/a
180.1757	n/a	RESPONSE	n/a	n/a	n/a	n/a	n/a	n/a	n/a	green
180.2042	1.0167	ITI	n/a	n/a	n/a	n/a	n/a	n/a	n/a	n/a
181.2208	0.5167	FIXCROSS	n/a	n/a	n/a	n/a	n/a	n/a	n/a	n/a
181.7375	0.9333	INK	54	Incongruent	zielony	green	czerwony	red	hit	n/a
182.6516	n/a	RESPONSE	n/a	n/a	n/a	n/a	n/a	n/a	n/a	red
182.6709	1.0167	ITI	n/a	n/a	n/a	n/a	n/a	n/a	n/a	n/a
183.6875	0.5167	FIXCROSS	n/a	n/a	n/a	n/a	n/a	n/a	n/a	n/a
184.2042	0.8334	INK	55	Incongruent	niebieski	blue	żółty	yellow	hit	n/a
185.0155	n/a	RESPONSE	n/a	n/a	n/a	n/a	n/a	n/a	n/a	yellow
185.0376	1.0167	ITI	n/a	n/a	n/a	n/a	n/a	n/a	n/a	n/a
186.0542	0.5167	FIXCROSS	n/a	n/a	n/a	n/a	n/a	n/a	n/a	n/a
186.5709	0.6333	INK	56	Neutral	xxxxxxxxx	xxxxxxxxx	żółty	yellow	hit	n/a
187.1719	n/a	RESPONSE	n/a	n/a	n/a	n/a	n/a	n/a	n/a	yellow
187.2042	1.0167	ITI	n/a	n/a	n/a	n/a	n/a	n/a	n/a	n/a
188.2209	0.5167	FIXCROSS	n/a	n/a	n/a	n/a	n/a	n/a	n/a	n/a
188.7376	0.9167	INK	57	Incongruent	żółty	yellow	niebieski	blue	hit	n/a
189.6318	n/a	RESPONSE	n/a	n/a	n/a	n/a	n/a	n/a	n/a	blue
189.6543	1.0167	ITI	n/a	n/a	n/a	n/a	n/a	n/a	n/a	n/a
190.6709	0.5167	FIXCROSS	n/a	n/a	n/a	n/a	n/a	n/a	n/a	n/a
191.1876	0.6333	INK	58	Neutral	xxxxxxxx	xxxxxxxx	zielony	green	hit	n/a
191.7881	n/a	RESPONSE	n/a	n/a	n/a	n/a	n/a	n/a	n/a	green
191.8209	1.0167	ITI	n/a	n/a	n/a	n/a	n/a	n/a	n/a	n/a
192.8376	0.5167	FIXCROSS	n/a	n/a	n/a	n/a	n/a	n/a	n/a	n/a
193.3543	0.95	INK	59	Incongruent	czerwony	red	niebieski	blue	hit	n/a
194.2798	n/a	RESPONSE	n/a	n/a	n/a	n/a	n/a	n/a	n/a	blue
194.3043	1.0167	ITI	n/a	n/a	n/a	n/a	n/a	n/a	n/a	n/a
195.321	0.5167	FIXCROSS	n/a	n/a	n/a	n/a	n/a	n/a	n/a	n/a
195.8376	0.7667	INK	60	Incongruent	niebieski	blue	zielony	green	hit	n/a
196.5801	n/a	RESPONSE	n/a	n/a	n/a	n/a	n/a	n/a	n/a	green
196.6043	1.0167	ITI	n/a	n/a	n/a	n/a	n/a	n/a	n/a	n/a
197.621	0.5167	FIXCROSS	n/a	n/a	n/a	n/a	n/a	n/a	n/a	n/a
198.1377	0.7667	INK	61	Neutral	xxxxxxx	xxxxxxx	żółty	yellow	hit	n/a
198.8802	n/a	RESPONSE	n/a	n/a	n/a	n/a	n/a	n/a	n/a	yellow
198.9043	1.0167	ITI	n/a	n/a	n/a	n/a	n/a	n/a	n/a	n/a
199.921	0.5167	FIXCROSS	n/a	n/a	n/a	n/a	n/a	n/a	n/a	n/a
200.4377	0.7333	INK	62	Neutral	xxxxxxxx	xxxxxxxx	zielony	green	hit	n/a
201.1483	n/a	RESPONSE	n/a	n/a	n/a	n/a	n/a	n/a	n/a	green
201.171	1.0167	ITI	n/a	n/a	n/a	n/a	n/a	n/a	n/a	n/a
202.1877	0.5167	FIXCROSS	n/a	n/a	n/a	n/a	n/a	n/a	n/a	n/a
202.7044	0.9333	INK	63	Incongruent	zielony	green	niebieski	blue	hit	n/a
203.6082	n/a	RESPONSE	n/a	n/a	n/a	n/a	n/a	n/a	n/a	blue
203.6377	1.0167	ITI	n/a	n/a	n/a	n/a	n/a	n/a	n/a	n/a
204.6544	0.5167	FIXCROSS	n/a	n/a	n/a	n/a	n/a	n/a	n/a	n/a
205.171	1.1667	INK	64	Incongruent	zielony	green	czerwony	red	hit	n/a
206.3077	n/a	RESPONSE	n/a	n/a	n/a	n/a	n/a	n/a	n/a	red
206.3377	1.0167	ITI	n/a	n/a	n/a	n/a	n/a	n/a	n/a	n/a
207.3544	0.5167	FIXCROSS	n/a	n/a	n/a	n/a	n/a	n/a	n/a	n/a
207.8711	0.8	INK	65	Neutral	xxxxxxxx	xxxxxxxx	żółty	yellow	hit	n/a
208.6397	n/a	RESPONSE	n/a	n/a	n/a	n/a	n/a	n/a	n/a	yellow
208.6711	1.0167	ITI	n/a	n/a	n/a	n/a	n/a	n/a	n/a	n/a
209.6877	0.5167	FIXCROSS	n/a	n/a	n/a	n/a	n/a	n/a	n/a	n/a
210.2044	0.75	INK	66	Incongruent	niebieski	blue	zielony	green	hit	n/a
210.9238	n/a	RESPONSE	n/a	n/a	n/a	n/a	n/a	n/a	n/a	green
210.9544	1.0167	ITI	n/a	n/a	n/a	n/a	n/a	n/a	n/a	n/a
211.9711	0.5167	FIXCROSS	n/a	n/a	n/a	n/a	n/a	n/a	n/a	n/a
212.4878	0.9	INK	67	Incongruent	czerwony	red	żółty	yellow	hit	n/a
213.3678	n/a	RESPONSE	n/a	n/a	n/a	n/a	n/a	n/a	n/a	yellow
213.3878	1.0167	ITI	n/a	n/a	n/a	n/a	n/a	n/a	n/a	n/a
214.4045	0.5167	FIXCROSS	n/a	n/a	n/a	n/a	n/a	n/a	n/a	n/a
214.9211	0.6833	INK	68	Neutral	xxxxxxx	xxxxxxx	żółty	yellow	hit	n/a
215.572	n/a	RESPONSE	n/a	n/a	n/a	n/a	n/a	n/a	n/a	yellow
215.6045	1.0167	ITI	n/a	n/a	n/a	n/a	n/a	n/a	n/a	n/a
216.6211	0.5167	FIXCROSS	n/a	n/a	n/a	n/a	n/a	n/a	n/a	n/a
217.1378	0.9333	INK	69	Incongruent	zielony	green	niebieski	blue	hit	n/a
218.0478	n/a	RESPONSE	n/a	n/a	n/a	n/a	n/a	n/a	n/a	blue
218.0711	1.0167	ITI	n/a	n/a	n/a	n/a	n/a	n/a	n/a	n/a
219.0878	0.5167	FIXCROSS	n/a	n/a	n/a	n/a	n/a	n/a	n/a	n/a
219.6045	0.8	INK	70	Neutral	xxxxxxxxx	xxxxxxxxx	żółty	yellow	hit	n/a
220.3799	n/a	RESPONSE	n/a	n/a	n/a	n/a	n/a	n/a	n/a	yellow
220.4045	1.0167	ITI	n/a	n/a	n/a	n/a	n/a	n/a	n/a	n/a
221.4212	0.5167	FIXCROSS	n/a	n/a	n/a	n/a	n/a	n/a	n/a	n/a
221.9378	0.9167	INK	71	Incongruent	żółty	yellow	niebieski	blue	hit	n/a
222.8237	n/a	RESPONSE	n/a	n/a	n/a	n/a	n/a	n/a	n/a	blue
222.8545	1.0167	ITI	n/a	n/a	n/a	n/a	n/a	n/a	n/a	n/a
223.8712	0.5167	FIXCROSS	n/a	n/a	n/a	n/a	n/a	n/a	n/a	n/a
224.3879	0.6667	INK	72	Incongruent	zielony	green	żółty	yellow	hit	n/a
225.028	n/a	RESPONSE	n/a	n/a	n/a	n/a	n/a	n/a	n/a	yellow
225.0545	1.0834	ITI	n/a	n/a	n/a	n/a	n/a	n/a	n/a	n/a
281.3009	n/a	RESPONSE	n/a	n/a	n/a	n/a	n/a	n/a	n/a	n/a
281.355	1.0167	ITI	n/a	n/a	n/a	n/a	n/a	n/a	n/a	n/a
282.3717	0.5167	FIXCROSS	n/a	n/a	n/a	n/a	n/a	n/a	n/a	n/a
282.8883	1.2	T_COLOR_NAME	1	Incongruent	zielony	green	żółty	yellow	hit	n/a
284.0642	n/a	RESPONSE	n/a	n/a	n/a	n/a	n/a	n/a	n/a	green
284.0883	0.5167	FEEDBACK	n/a	n/a	n/a	n/a	n/a	n/a	n/a	n/a
284.605	1.0167	ITI	n/a	n/a	n/a	n/a	n/a	n/a	n/a	n/a
285.6217	0.5167	FIXCROSS	n/a	n/a	n/a	n/a	n/a	n/a	n/a	n/a
286.1383	1.1	T_COLOR_NAME	2	Neutral	niebieski	blue	Neutral	Neutral	hit	n/a
287.2109	n/a	RESPONSE	n/a	n/a	n/a	n/a	n/a	n/a	n/a	blue
287.2384	0.5167	FEEDBACK	n/a	n/a	n/a	n/a	n/a	n/a	n/a	n/a
287.755	1.0167	ITI	n/a	n/a	n/a	n/a	n/a	n/a	n/a	n/a
288.7717	0.5167	FIXCROSS	n/a	n/a	n/a	n/a	n/a	n/a	n/a	n/a
289.2884	0.8667	T_COLOR_NAME	3	Neutral	żółty	yellow	Neutral	Neutral	hit	n/a
290.134	n/a	RESPONSE	n/a	n/a	n/a	n/a	n/a	n/a	n/a	yellow
290.1551	0.5167	FEEDBACK	n/a	n/a	n/a	n/a	n/a	n/a	n/a	n/a
290.6717	1.0167	ITI	n/a	n/a	n/a	n/a	n/a	n/a	n/a	n/a
291.6884	0.5167	FIXCROSS	n/a	n/a	n/a	n/a	n/a	n/a	n/a	n/a
292.2051	0.8	T_COLOR_NAME	4	Incongruent	czerwony	red	zielony	green	hit	n/a
292.9772	n/a	RESPONSE	n/a	n/a	n/a	n/a	n/a	n/a	n/a	red
293.0051	0.5167	FEEDBACK	n/a	n/a	n/a	n/a	n/a	n/a	n/a	n/a
293.5217	1.0167	ITI	n/a	n/a	n/a	n/a	n/a	n/a	n/a	n/a
294.5384	0.5167	FIXCROSS	n/a	n/a	n/a	n/a	n/a	n/a	n/a	n/a
295.0551	0.7833	T_COLOR_NAME	5	Neutral	żółty	yellow	Neutral	Neutral	hit	n/a
295.8044	n/a	RESPONSE	n/a	n/a	n/a	n/a	n/a	n/a	n/a	yellow
295.8384	0.5167	FEEDBACK	n/a	n/a	n/a	n/a	n/a	n/a	n/a	n/a
296.3551	1.0167	ITI	n/a	n/a	n/a	n/a	n/a	n/a	n/a	n/a
297.3718	0.5167	FIXCROSS	n/a	n/a	n/a	n/a	n/a	n/a	n/a	n/a
297.8884	0.7167	T_COLOR_NAME	6	Neutral	czerwony	red	Neutral	Neutral	hit	n/a
298.5837	n/a	RESPONSE	n/a	n/a	n/a	n/a	n/a	n/a	n/a	red
298.6051	0.5167	FEEDBACK	n/a	n/a	n/a	n/a	n/a	n/a	n/a	n/a
299.1218	1.0167	ITI	n/a	n/a	n/a	n/a	n/a	n/a	n/a	n/a
300.1385	0.5167	FIXCROSS	n/a	n/a	n/a	n/a	n/a	n/a	n/a	n/a
300.6551	0.7667	T_COLOR_NAME	7	Incongruent	zielony	green	niebieski	blue	hit	n/a
301.3949	n/a	RESPONSE	n/a	n/a	n/a	n/a	n/a	n/a	n/a	green
301.4218	0.5167	FEEDBACK	n/a	n/a	n/a	n/a	n/a	n/a	n/a	n/a
301.9385	1.0167	ITI	n/a	n/a	n/a	n/a	n/a	n/a	n/a	n/a
302.9551	0.5167	FIXCROSS	n/a	n/a	n/a	n/a	n/a	n/a	n/a	n/a
303.4718	1.05	T_COLOR_NAME	8	Incongruent	żółty	yellow	czerwony	red	hit	n/a
304.4937	n/a	RESPONSE	n/a	n/a	n/a	n/a	n/a	n/a	n/a	yellow
304.5218	0.5167	FEEDBACK	n/a	n/a	n/a	n/a	n/a	n/a	n/a	n/a
305.0385	1.0167	ITI	n/a	n/a	n/a	n/a	n/a	n/a	n/a	n/a
306.0552	0.5167	FIXCROSS	n/a	n/a	n/a	n/a	n/a	n/a	n/a	n/a
306.5718	1.0167	T_COLOR_NAME	9	Incongruent	niebieski	blue	zielony	green	hit	n/a
307.5606	n/a	RESPONSE	n/a	n/a	n/a	n/a	n/a	n/a	n/a	blue
307.5885	0.5167	FEEDBACK	n/a	n/a	n/a	n/a	n/a	n/a	n/a	n/a
308.1052	1.0167	ITI	n/a	n/a	n/a	n/a	n/a	n/a	n/a	n/a
309.1219	0.5167	FIXCROSS	n/a	n/a	n/a	n/a	n/a	n/a	n/a	n/a
309.6385	0.8	T_COLOR_NAME	10	Neutral	zielony	green	Neutral	Neutral	hit	n/a
310.4197	n/a	RESPONSE	n/a	n/a	n/a	n/a	n/a	n/a	n/a	green
310.4385	0.5167	FEEDBACK	n/a	n/a	n/a	n/a	n/a	n/a	n/a	n/a
310.9552	1.0167	ITI	n/a	n/a	n/a	n/a	n/a	n/a	n/a	n/a
311.9719	0.5167	FIXCROSS	n/a	n/a	n/a	n/a	n/a	n/a	n/a	n/a
312.4886	0.9333	T_COLOR_NAME	11	Incongruent	niebieski	blue	żółty	yellow	hit	n/a
313.3906	n/a	RESPONSE	n/a	n/a	n/a	n/a	n/a	n/a	n/a	blue
313.4219	0.5167	FEEDBACK	n/a	n/a	n/a	n/a	n/a	n/a	n/a	n/a
313.9386	1.0167	ITI	n/a	n/a	n/a	n/a	n/a	n/a	n/a	n/a
314.9552	0.5167	FIXCROSS	n/a	n/a	n/a	n/a	n/a	n/a	n/a	n/a
315.4719	0.7167	T_COLOR_NAME	12	Neutral	zielony	green	Neutral	Neutral	hit	n/a
316.154	n/a	RESPONSE	n/a	n/a	n/a	n/a	n/a	n/a	n/a	green
316.1886	0.5167	FEEDBACK	n/a	n/a	n/a	n/a	n/a	n/a	n/a	n/a
316.7052	1.0333	ITI	n/a	n/a	n/a	n/a	n/a	n/a	n/a	n/a
321.0418	n/a	RESPONSE	n/a	n/a	n/a	n/a	n/a	n/a	n/a	n/a
321.1053	1.0167	ITI	n/a	n/a	n/a	n/a	n/a	n/a	n/a	n/a
322.122	0.5167	FIXCROSS	n/a	n/a	n/a	n/a	n/a	n/a	n/a	n/a
322.6386	0.8333	COLOR_NAME	1	Incongruent	zielony	green	niebieski	blue	hit	n/a
323.4536	n/a	RESPONSE	n/a	n/a	n/a	n/a	n/a	n/a	n/a	green
323.472	1.0167	ITI	n/a	n/a	n/a	n/a	n/a	n/a	n/a	n/a
324.4887	0.5167	FIXCROSS	n/a	n/a	n/a	n/a	n/a	n/a	n/a	n/a
325.0053	0.9	COLOR_NAME	2	Neutral	niebieski	blue	Neutral	Neutral	hit	n/a
325.8816	n/a	RESPONSE	n/a	n/a	n/a	n/a	n/a	n/a	n/a	blue
325.9053	1.0167	ITI	n/a	n/a	n/a	n/a	n/a	n/a	n/a	n/a
326.922	0.5167	FIXCROSS	n/a	n/a	n/a	n/a	n/a	n/a	n/a	n/a
327.4387	0.7	COLOR_NAME	3	Neutral	czerwony	red	Neutral	Neutral	hit	n/a
328.1178	n/a	RESPONSE	n/a	n/a	n/a	n/a	n/a	n/a	n/a	red
328.1387	1.0167	ITI	n/a	n/a	n/a	n/a	n/a	n/a	n/a	n/a
329.1553	0.5167	FIXCROSS	n/a	n/a	n/a	n/a	n/a	n/a	n/a	n/a
329.672	0.7667	COLOR_NAME	4	Incongruent	czerwony	red	żółty	yellow	hit	n/a
330.4179	n/a	RESPONSE	n/a	n/a	n/a	n/a	n/a	n/a	n/a	red
330.4387	1.0167	ITI	n/a	n/a	n/a	n/a	n/a	n/a	n/a	n/a
331.4554	0.5167	FIXCROSS	n/a	n/a	n/a	n/a	n/a	n/a	n/a	n/a
331.972	0.6667	COLOR_NAME	5	Incongruent	czerwony	red	niebieski	blue	hit	n/a
332.6063	n/a	RESPONSE	n/a	n/a	n/a	n/a	n/a	n/a	n/a	red
332.6387	1.0167	ITI	n/a	n/a	n/a	n/a	n/a	n/a	n/a	n/a
333.6554	0.5167	FIXCROSS	n/a	n/a	n/a	n/a	n/a	n/a	n/a	n/a
334.1721	0.8	COLOR_NAME	6	Neutral	zielony	green	Neutral	Neutral	hit	n/a
334.9383	n/a	RESPONSE	n/a	n/a	n/a	n/a	n/a	n/a	n/a	green
334.9721	1.0167	ITI	n/a	n/a	n/a	n/a	n/a	n/a	n/a	n/a
335.9887	0.5167	FIXCROSS	n/a	n/a	n/a	n/a	n/a	n/a	n/a	n/a
336.5054	0.7	COLOR_NAME	7	Incongruent	czerwony	red	żółty	yellow	hit	n/a
337.1745	n/a	RESPONSE	n/a	n/a	n/a	n/a	n/a	n/a	n/a	red
337.2054	1.0167	ITI	n/a	n/a	n/a	n/a	n/a	n/a	n/a	n/a
338.2221	0.5167	FIXCROSS	n/a	n/a	n/a	n/a	n/a	n/a	n/a	n/a
338.7388	0.85	COLOR_NAME	8	Neutral	żółty	yellow	Neutral	Neutral	hit	n/a
339.5705	n/a	RESPONSE	n/a	n/a	n/a	n/a	n/a	n/a	n/a	yellow
339.5888	1.0167	ITI	n/a	n/a	n/a	n/a	n/a	n/a	n/a	n/a
340.6054	0.5167	FIXCROSS	n/a	n/a	n/a	n/a	n/a	n/a	n/a	n/a
341.1221	1.15	COLOR_NAME	9	Neutral	niebieski	blue	Neutral	Neutral	hit	n/a
342.2379	n/a	RESPONSE	n/a	n/a	n/a	n/a	n/a	n/a	n/a	blue
342.2721	1.0167	ITI	n/a	n/a	n/a	n/a	n/a	n/a	n/a	n/a
343.2888	0.5167	FIXCROSS	n/a	n/a	n/a	n/a	n/a	n/a	n/a	n/a
343.8055	0.7167	COLOR_NAME	10	Incongruent	czerwony	red	niebieski	blue	hit	n/a
344.4902	n/a	RESPONSE	n/a	n/a	n/a	n/a	n/a	n/a	n/a	red
344.5221	1.0167	ITI	n/a	n/a	n/a	n/a	n/a	n/a	n/a	n/a
345.5388	0.5167	FIXCROSS	n/a	n/a	n/a	n/a	n/a	n/a	n/a	n/a
346.0555	0.9167	COLOR_NAME	11	Neutral	żółty	yellow	Neutral	Neutral	hit	n/a
346.95	n/a	RESPONSE	n/a	n/a	n/a	n/a	n/a	n/a	n/a	yellow
346.9722	1.0167	ITI	n/a	n/a	n/a	n/a	n/a	n/a	n/a	n/a
347.9888	0.5167	FIXCROSS	n/a	n/a	n/a	n/a	n/a	n/a	n/a	n/a
348.5055	0.7	COLOR_NAME	12	Neutral	czerwony	red	Neutral	Neutral	hit	n/a
349.1702	n/a	RESPONSE	n/a	n/a	n/a	n/a	n/a	n/a	n/a	red
349.2055	1.0167	ITI	n/a	n/a	n/a	n/a	n/a	n/a	n/a	n/a
350.2222	0.5167	FIXCROSS	n/a	n/a	n/a	n/a	n/a	n/a	n/a	n/a
350.7389	0.9	COLOR_NAME	13	Neutral	niebieski	blue	Neutral	Neutral	hit	n/a
351.6141	n/a	RESPONSE	n/a	n/a	n/a	n/a	n/a	n/a	n/a	blue
351.6389	1.0167	ITI	n/a	n/a	n/a	n/a	n/a	n/a	n/a	n/a
352.6555	0.5167	FIXCROSS	n/a	n/a	n/a	n/a	n/a	n/a	n/a	n/a
353.1722	0.9	COLOR_NAME	14	Incongruent	żółty	yellow	czerwony	red	hit	n/a
354.042	n/a	RESPONSE	n/a	n/a	n/a	n/a	n/a	n/a	n/a	yellow
354.0722	1.0167	ITI	n/a	n/a	n/a	n/a	n/a	n/a	n/a	n/a
355.0889	0.5167	FIXCROSS	n/a	n/a	n/a	n/a	n/a	n/a	n/a	n/a
355.6056	0.9667	COLOR_NAME	15	Neutral	zielony	green	Neutral	Neutral	hit	n/a
356.5498	n/a	RESPONSE	n/a	n/a	n/a	n/a	n/a	n/a	n/a	green
356.5722	1.0167	ITI	n/a	n/a	n/a	n/a	n/a	n/a	n/a	n/a
357.5889	0.5167	FIXCROSS	n/a	n/a	n/a	n/a	n/a	n/a	n/a	n/a
358.1056	0.6333	COLOR_NAME	16	Neutral	zielony	green	Neutral	Neutral	hit	n/a
358.7061	n/a	RESPONSE	n/a	n/a	n/a	n/a	n/a	n/a	n/a	green
358.7389	1.0167	ITI	n/a	n/a	n/a	n/a	n/a	n/a	n/a	n/a
359.7556	0.5167	FIXCROSS	n/a	n/a	n/a	n/a	n/a	n/a	n/a	n/a
360.2723	1.0333	COLOR_NAME	17	Incongruent	niebieski	blue	czerwony	red	hit	n/a
361.2777	n/a	RESPONSE	n/a	n/a	n/a	n/a	n/a	n/a	n/a	blue
361.3056	1.0167	ITI	n/a	n/a	n/a	n/a	n/a	n/a	n/a	n/a
362.3223	0.5167	FIXCROSS	n/a	n/a	n/a	n/a	n/a	n/a	n/a	n/a
362.8389	0.8667	COLOR_NAME	18	Neutral	żółty	yellow	Neutral	Neutral	hit	n/a
363.6737	n/a	RESPONSE	n/a	n/a	n/a	n/a	n/a	n/a	n/a	yellow
363.7056	1.0167	ITI	n/a	n/a	n/a	n/a	n/a	n/a	n/a	n/a
364.7223	0.5167	FIXCROSS	n/a	n/a	n/a	n/a	n/a	n/a	n/a	n/a
365.239	0.9667	COLOR_NAME	19	Incongruent	niebieski	blue	czerwony	red	hit	n/a
366.1815	n/a	RESPONSE	n/a	n/a	n/a	n/a	n/a	n/a	n/a	blue
366.2056	1.0167	ITI	n/a	n/a	n/a	n/a	n/a	n/a	n/a	n/a
367.2223	0.5167	FIXCROSS	n/a	n/a	n/a	n/a	n/a	n/a	n/a	n/a
367.739	0.8334	COLOR_NAME	20	Incongruent	żółty	yellow	niebieski	blue	hit	n/a
368.5455	n/a	RESPONSE	n/a	n/a	n/a	n/a	n/a	n/a	n/a	yellow
368.5723	1.0167	ITI	n/a	n/a	n/a	n/a	n/a	n/a	n/a	n/a
369.589	0.5167	FIXCROSS	n/a	n/a	n/a	n/a	n/a	n/a	n/a	n/a
370.1057	0.7	COLOR_NAME	21	Neutral	czerwony	red	Neutral	Neutral	hit	n/a
370.7817	n/a	RESPONSE	n/a	n/a	n/a	n/a	n/a	n/a	n/a	red
370.8057	1.0167	ITI	n/a	n/a	n/a	n/a	n/a	n/a	n/a	n/a
371.8223	0.5167	FIXCROSS	n/a	n/a	n/a	n/a	n/a	n/a	n/a	n/a
372.339	0.8	COLOR_NAME	22	Incongruent	żółty	yellow	zielony	green	hit	n/a
373.1138	n/a	RESPONSE	n/a	n/a	n/a	n/a	n/a	n/a	n/a	yellow
373.139	1.0167	ITI	n/a	n/a	n/a	n/a	n/a	n/a	n/a	n/a
374.1557	0.5167	FIXCROSS	n/a	n/a	n/a	n/a	n/a	n/a	n/a	n/a
374.6724	0.9	COLOR_NAME	23	Neutral	zielony	green	Neutral	Neutral	hit	n/a
375.5417	n/a	RESPONSE	n/a	n/a	n/a	n/a	n/a	n/a	n/a	green
375.5724	1.0167	ITI	n/a	n/a	n/a	n/a	n/a	n/a	n/a	n/a
376.5891	0.5167	FIXCROSS	n/a	n/a	n/a	n/a	n/a	n/a	n/a	n/a
377.1057	0.75	COLOR_NAME	24	Incongruent	żółty	yellow	niebieski	blue	hit	n/a
377.8258	n/a	RESPONSE	n/a	n/a	n/a	n/a	n/a	n/a	n/a	yellow
377.8557	1.0167	ITI	n/a	n/a	n/a	n/a	n/a	n/a	n/a	n/a
378.8724	0.5167	FIXCROSS	n/a	n/a	n/a	n/a	n/a	n/a	n/a	n/a
379.3891	0.85	COLOR_NAME	25	Incongruent	czerwony	red	żółty	yellow	hit	n/a
380.2059	n/a	RESPONSE	n/a	n/a	n/a	n/a	n/a	n/a	n/a	red
380.2391	1.0167	ITI	n/a	n/a	n/a	n/a	n/a	n/a	n/a	n/a
381.2558	0.5167	FIXCROSS	n/a	n/a	n/a	n/a	n/a	n/a	n/a	n/a
381.7724	1.0	COLOR_NAME	26	Incongruent	zielony	green	czerwony	red	hit	n/a
382.7455	n/a	RESPONSE	n/a	n/a	n/a	n/a	n/a	n/a	n/a	green
382.7724	1.0167	ITI	n/a	n/a	n/a	n/a	n/a	n/a	n/a	n/a
383.7891	0.5167	FIXCROSS	n/a	n/a	n/a	n/a	n/a	n/a	n/a	n/a
384.3058	0.8667	COLOR_NAME	27	Incongruent	niebieski	blue	żółty	yellow	hit	n/a
385.1415	n/a	RESPONSE	n/a	n/a	n/a	n/a	n/a	n/a	n/a	blue
385.1725	1.0167	ITI	n/a	n/a	n/a	n/a	n/a	n/a	n/a	n/a
386.1891	0.5167	FIXCROSS	n/a	n/a	n/a	n/a	n/a	n/a	n/a	n/a
386.7058	1.0	COLOR_NAME	28	Incongruent	zielony	green	niebieski	blue	hit	n/a
387.6811	n/a	RESPONSE	n/a	n/a	n/a	n/a	n/a	n/a	n/a	green
387.7058	1.0167	ITI	n/a	n/a	n/a	n/a	n/a	n/a	n/a	n/a
388.7225	0.5167	FIXCROSS	n/a	n/a	n/a	n/a	n/a	n/a	n/a	n/a
389.2392	0.7833	COLOR_NAME	29	Incongruent	niebieski	blue	żółty	yellow	hit	n/a
389.9973	n/a	RESPONSE	n/a	n/a	n/a	n/a	n/a	n/a	n/a	blue
390.0225	1.0167	ITI	n/a	n/a	n/a	n/a	n/a	n/a	n/a	n/a
391.0392	0.5167	FIXCROSS	n/a	n/a	n/a	n/a	n/a	n/a	n/a	n/a
391.5558	0.6667	COLOR_NAME	30	Neutral	czerwony	red	Neutral	Neutral	hit	n/a
392.2016	n/a	RESPONSE	n/a	n/a	n/a	n/a	n/a	n/a	n/a	red
392.2225	1.0167	ITI	n/a	n/a	n/a	n/a	n/a	n/a	n/a	n/a
393.2392	0.5167	FIXCROSS	n/a	n/a	n/a	n/a	n/a	n/a	n/a	n/a
393.7559	0.6	COLOR_NAME	31	Neutral	czerwony	red	Neutral	Neutral	hit	n/a
394.326	n/a	RESPONSE	n/a	n/a	n/a	n/a	n/a	n/a	n/a	red
394.3559	1.0167	ITI	n/a	n/a	n/a	n/a	n/a	n/a	n/a	n/a
395.3725	0.5167	FIXCROSS	n/a	n/a	n/a	n/a	n/a	n/a	n/a	n/a
395.8892	0.8333	COLOR_NAME	32	Incongruent	żółty	yellow	niebieski	blue	hit	n/a
396.6899	n/a	RESPONSE	n/a	n/a	n/a	n/a	n/a	n/a	n/a	yellow
396.7225	1.0167	ITI	n/a	n/a	n/a	n/a	n/a	n/a	n/a	n/a
397.7392	0.5167	FIXCROSS	n/a	n/a	n/a	n/a	n/a	n/a	n/a	n/a
398.2559	0.8833	COLOR_NAME	33	Incongruent	niebieski	blue	czerwony	red	hit	n/a
399.1179	n/a	RESPONSE	n/a	n/a	n/a	n/a	n/a	n/a	n/a	blue
399.1392	1.0167	ITI	n/a	n/a	n/a	n/a	n/a	n/a	n/a	n/a
400.1559	0.5167	FIXCROSS	n/a	n/a	n/a	n/a	n/a	n/a	n/a	n/a
400.6726	0.8333	COLOR_NAME	34	Neutral	żółty	yellow	Neutral	Neutral	hit	n/a
401.4819	n/a	RESPONSE	n/a	n/a	n/a	n/a	n/a	n/a	n/a	yellow
401.5059	1.0167	ITI	n/a	n/a	n/a	n/a	n/a	n/a	n/a	n/a
402.5226	0.5167	FIXCROSS	n/a	n/a	n/a	n/a	n/a	n/a	n/a	n/a
403.0393	0.8167	COLOR_NAME	35	Neutral	zielony	green	Neutral	Neutral	hit	n/a
403.83	n/a	RESPONSE	n/a	n/a	n/a	n/a	n/a	n/a	n/a	green
403.8559	1.0167	ITI	n/a	n/a	n/a	n/a	n/a	n/a	n/a	n/a
404.8726	0.5167	FIXCROSS	n/a	n/a	n/a	n/a	n/a	n/a	n/a	n/a
405.3893	0.6167	COLOR_NAME	36	Neutral	zielony	green	Neutral	Neutral	hit	n/a
405.9863	n/a	RESPONSE	n/a	n/a	n/a	n/a	n/a	n/a	n/a	green
406.0059	1.0167	ITI	n/a	n/a	n/a	n/a	n/a	n/a	n/a	n/a
407.0226	0.5167	FIXCROSS	n/a	n/a	n/a	n/a	n/a	n/a	n/a	n/a
407.5393	0.7167	COLOR_NAME	37	Incongruent	czerwony	red	niebieski	blue	hit	n/a
408.2384	n/a	RESPONSE	n/a	n/a	n/a	n/a	n/a	n/a	n/a	red
408.256	1.0167	ITI	n/a	n/a	n/a	n/a	n/a	n/a	n/a	n/a
409.2726	0.5167	FIXCROSS	n/a	n/a	n/a	n/a	n/a	n/a	n/a	n/a
409.7893	0.9667	COLOR_NAME	38	Incongruent	niebieski	blue	zielony	green	hit	n/a
410.7304	n/a	RESPONSE	n/a	n/a	n/a	n/a	n/a	n/a	n/a	blue
410.756	1.0167	ITI	n/a	n/a	n/a	n/a	n/a	n/a	n/a	n/a
411.7727	0.5167	FIXCROSS	n/a	n/a	n/a	n/a	n/a	n/a	n/a	n/a
412.2893	0.75	COLOR_NAME	39	Neutral	czerwony	red	Neutral	Neutral	hit	n/a
413.0145	n/a	RESPONSE	n/a	n/a	n/a	n/a	n/a	n/a	n/a	red
413.0393	1.0167	ITI	n/a	n/a	n/a	n/a	n/a	n/a	n/a	n/a
414.056	0.5167	FIXCROSS	n/a	n/a	n/a	n/a	n/a	n/a	n/a	n/a
414.5727	0.75	COLOR_NAME	40	Incongruent	zielony	green	żółty	yellow	hit	n/a
415.2986	n/a	RESPONSE	n/a	n/a	n/a	n/a	n/a	n/a	n/a	green
415.3227	1.0167	ITI	n/a	n/a	n/a	n/a	n/a	n/a	n/a	n/a
416.3394	0.5167	FIXCROSS	n/a	n/a	n/a	n/a	n/a	n/a	n/a	n/a
416.856	0.9667	COLOR_NAME	41	Neutral	niebieski	blue	Neutral	Neutral	hit	n/a
417.7903	n/a	RESPONSE	n/a	n/a	n/a	n/a	n/a	n/a	n/a	blue
417.8227	1.0167	ITI	n/a	n/a	n/a	n/a	n/a	n/a	n/a	n/a
418.8394	0.5167	FIXCROSS	n/a	n/a	n/a	n/a	n/a	n/a	n/a	n/a
419.3561	0.7333	COLOR_NAME	42	Neutral	czerwony	red	Neutral	Neutral	hit	n/a
420.0586	n/a	RESPONSE	n/a	n/a	n/a	n/a	n/a	n/a	n/a	red
420.0894	1.0167	ITI	n/a	n/a	n/a	n/a	n/a	n/a	n/a	n/a
421.1061	0.5167	FIXCROSS	n/a	n/a	n/a	n/a	n/a	n/a	n/a	n/a
421.6227	1.0167	COLOR_NAME	43	Neutral	niebieski	blue	Neutral	Neutral	hit	n/a
422.6143	n/a	RESPONSE	n/a	n/a	n/a	n/a	n/a	n/a	n/a	blue
422.6394	1.0167	ITI	n/a	n/a	n/a	n/a	n/a	n/a	n/a	n/a
423.6561	0.5167	FIXCROSS	n/a	n/a	n/a	n/a	n/a	n/a	n/a	n/a
424.1728	0.7667	COLOR_NAME	44	Neutral	niebieski	blue	Neutral	Neutral	hit	n/a
424.9144	n/a	RESPONSE	n/a	n/a	n/a	n/a	n/a	n/a	n/a	blue
424.9394	1.0167	ITI	n/a	n/a	n/a	n/a	n/a	n/a	n/a	n/a
425.9561	0.5167	FIXCROSS	n/a	n/a	n/a	n/a	n/a	n/a	n/a	n/a
426.4728	0.9167	COLOR_NAME	45	Incongruent	zielony	green	niebieski	blue	hit	n/a
427.3582	n/a	RESPONSE	n/a	n/a	n/a	n/a	n/a	n/a	n/a	green
427.3894	1.0167	ITI	n/a	n/a	n/a	n/a	n/a	n/a	n/a	n/a
428.4061	0.5167	FIXCROSS	n/a	n/a	n/a	n/a	n/a	n/a	n/a	n/a
428.9228	0.8333	COLOR_NAME	46	Incongruent	niebieski	blue	zielony	green	hit	n/a
429.7382	n/a	RESPONSE	n/a	n/a	n/a	n/a	n/a	n/a	n/a	blue
429.7561	1.0167	ITI	n/a	n/a	n/a	n/a	n/a	n/a	n/a	n/a
430.7728	0.5167	FIXCROSS	n/a	n/a	n/a	n/a	n/a	n/a	n/a	n/a
431.2895	1.15	COLOR_NAME	47	Incongruent	zielony	green	czerwony	red	hit	n/a
432.4216	n/a	RESPONSE	n/a	n/a	n/a	n/a	n/a	n/a	n/a	green
432.4395	1.0167	ITI	n/a	n/a	n/a	n/a	n/a	n/a	n/a	n/a
433.4562	0.5167	FIXCROSS	n/a	n/a	n/a	n/a	n/a	n/a	n/a	n/a
433.9728	0.9333	COLOR_NAME	48	Incongruent	żółty	yellow	zielony	green	hit	n/a
434.8815	n/a	RESPONSE	n/a	n/a	n/a	n/a	n/a	n/a	n/a	yellow
434.9062	1.0167	ITI	n/a	n/a	n/a	n/a	n/a	n/a	n/a	n/a
435.9228	0.5167	FIXCROSS	n/a	n/a	n/a	n/a	n/a	n/a	n/a	n/a
436.4395	0.75	COLOR_NAME	49	Neutral	żółty	yellow	Neutral	Neutral	hit	n/a
437.1656	n/a	RESPONSE	n/a	n/a	n/a	n/a	n/a	n/a	n/a	yellow
437.1895	1.0167	ITI	n/a	n/a	n/a	n/a	n/a	n/a	n/a	n/a
438.2062	0.5167	FIXCROSS	n/a	n/a	n/a	n/a	n/a	n/a	n/a	n/a
438.7229	0.9167	COLOR_NAME	50	Neutral	niebieski	blue	Neutral	Neutral	hit	n/a
439.6096	n/a	RESPONSE	n/a	n/a	n/a	n/a	n/a	n/a	n/a	blue
439.6395	1.0167	ITI	n/a	n/a	n/a	n/a	n/a	n/a	n/a	n/a
440.6562	0.5167	FIXCROSS	n/a	n/a	n/a	n/a	n/a	n/a	n/a	n/a
441.1729	0.9667	COLOR_NAME	51	Neutral	zielony	green	Neutral	Neutral	hit	n/a
442.1173	n/a	RESPONSE	n/a	n/a	n/a	n/a	n/a	n/a	n/a	green
442.1396	1.0167	ITI	n/a	n/a	n/a	n/a	n/a	n/a	n/a	n/a
443.1562	0.5167	FIXCROSS	n/a	n/a	n/a	n/a	n/a	n/a	n/a	n/a
443.6729	0.8	COLOR_NAME	52	Neutral	żółty	yellow	Neutral	Neutral	hit	n/a
444.4494	n/a	RESPONSE	n/a	n/a	n/a	n/a	n/a	n/a	n/a	yellow
444.4729	1.0167	ITI	n/a	n/a	n/a	n/a	n/a	n/a	n/a	n/a
445.4896	0.5167	FIXCROSS	n/a	n/a	n/a	n/a	n/a	n/a	n/a	n/a
446.0063	0.8333	COLOR_NAME	53	Incongruent	zielony	green	żółty	yellow	hit	n/a
446.8134	n/a	RESPONSE	n/a	n/a	n/a	n/a	n/a	n/a	n/a	green
446.8396	1.0167	ITI	n/a	n/a	n/a	n/a	n/a	n/a	n/a	n/a
447.8563	0.5167	FIXCROSS	n/a	n/a	n/a	n/a	n/a	n/a	n/a	n/a
448.3729	0.75	COLOR_NAME	54	Neutral	żółty	yellow	Neutral	Neutral	hit	n/a
449.0975	n/a	RESPONSE	n/a	n/a	n/a	n/a	n/a	n/a	n/a	yellow
449.123	1.0167	ITI	n/a	n/a	n/a	n/a	n/a	n/a	n/a	n/a
450.1396	0.5167	FIXCROSS	n/a	n/a	n/a	n/a	n/a	n/a	n/a	n/a
450.6563	0.7833	COLOR_NAME	55	Neutral	żółty	yellow	Neutral	Neutral	hit	n/a
451.4136	n/a	RESPONSE	n/a	n/a	n/a	n/a	n/a	n/a	n/a	yellow
451.4396	1.0167	ITI	n/a	n/a	n/a	n/a	n/a	n/a	n/a	n/a
452.4563	0.5167	FIXCROSS	n/a	n/a	n/a	n/a	n/a	n/a	n/a	n/a
452.973	0.7333	COLOR_NAME	56	Neutral	czerwony	red	Neutral	Neutral	hit	n/a
453.6818	n/a	RESPONSE	n/a	n/a	n/a	n/a	n/a	n/a	n/a	red
453.7063	1.0167	ITI	n/a	n/a	n/a	n/a	n/a	n/a	n/a	n/a
454.723	0.5167	FIXCROSS	n/a	n/a	n/a	n/a	n/a	n/a	n/a	n/a
455.2397	0.9833	COLOR_NAME	57	Incongruent	niebieski	blue	żółty	yellow	hit	n/a
456.1895	n/a	RESPONSE	n/a	n/a	n/a	n/a	n/a	n/a	n/a	blue
456.223	1.0167	ITI	n/a	n/a	n/a	n/a	n/a	n/a	n/a	n/a
457.2397	0.5167	FIXCROSS	n/a	n/a	n/a	n/a	n/a	n/a	n/a	n/a
457.7564	0.7667	COLOR_NAME	58	Neutral	zielony	green	Neutral	Neutral	hit	n/a
458.5056	n/a	RESPONSE	n/a	n/a	n/a	n/a	n/a	n/a	n/a	green
458.523	1.0167	ITI	n/a	n/a	n/a	n/a	n/a	n/a	n/a	n/a
459.5397	0.5167	FIXCROSS	n/a	n/a	n/a	n/a	n/a	n/a	n/a	n/a
460.0564	0.7667	COLOR_NAME	59	Incongruent	żółty	yellow	zielony	green	hit	n/a
460.7899	n/a	RESPONSE	n/a	n/a	n/a	n/a	n/a	n/a	n/a	yellow
460.823	1.0167	ITI	n/a	n/a	n/a	n/a	n/a	n/a	n/a	n/a
461.8397	0.5167	FIXCROSS	n/a	n/a	n/a	n/a	n/a	n/a	n/a	n/a
462.3564	0.8667	COLOR_NAME	60	Incongruent	żółty	yellow	czerwony	red	hit	n/a
463.2017	n/a	RESPONSE	n/a	n/a	n/a	n/a	n/a	n/a	n/a	yellow
463.2231	1.0167	ITI	n/a	n/a	n/a	n/a	n/a	n/a	n/a	n/a
464.2397	0.5167	FIXCROSS	n/a	n/a	n/a	n/a	n/a	n/a	n/a	n/a
464.7564	0.9	COLOR_NAME	61	Incongruent	niebieski	blue	zielony	green	hit	n/a
465.6296	n/a	RESPONSE	n/a	n/a	n/a	n/a	n/a	n/a	n/a	blue
465.6564	1.0167	ITI	n/a	n/a	n/a	n/a	n/a	n/a	n/a	n/a
466.6731	0.5167	FIXCROSS	n/a	n/a	n/a	n/a	n/a	n/a	n/a	n/a
467.1898	0.85	COLOR_NAME	62	Neutral	niebieski	blue	Neutral	Neutral	hit	n/a
468.0095	n/a	RESPONSE	n/a	n/a	n/a	n/a	n/a	n/a	n/a	blue
468.0398	1.0167	ITI	n/a	n/a	n/a	n/a	n/a	n/a	n/a	n/a
469.0564	0.5167	FIXCROSS	n/a	n/a	n/a	n/a	n/a	n/a	n/a	n/a
469.5731	0.75	COLOR_NAME	63	Neutral	niebieski	blue	Neutral	Neutral	hit	n/a
470.2937	n/a	RESPONSE	n/a	n/a	n/a	n/a	n/a	n/a	n/a	blue
470.3231	1.0167	ITI	n/a	n/a	n/a	n/a	n/a	n/a	n/a	n/a
471.3398	0.5167	FIXCROSS	n/a	n/a	n/a	n/a	n/a	n/a	n/a	n/a
471.8565	0.7333	COLOR_NAME	64	Incongruent	zielony	green	czerwony	red	hit	n/a
472.5619	n/a	RESPONSE	n/a	n/a	n/a	n/a	n/a	n/a	n/a	green
472.5898	1.0167	ITI	n/a	n/a	n/a	n/a	n/a	n/a	n/a	n/a
473.6065	0.5167	FIXCROSS	n/a	n/a	n/a	n/a	n/a	n/a	n/a	n/a
474.1231	0.75	COLOR_NAME	65	Incongruent	czerwony	red	zielony	green	hit	n/a
474.846	n/a	RESPONSE	n/a	n/a	n/a	n/a	n/a	n/a	n/a	red
474.8732	1.0167	ITI	n/a	n/a	n/a	n/a	n/a	n/a	n/a	n/a
475.8898	0.5167	FIXCROSS	n/a	n/a	n/a	n/a	n/a	n/a	n/a	n/a
476.4065	0.7	COLOR_NAME	66	Neutral	czerwony	red	Neutral	Neutral	hit	n/a
477.0822	n/a	RESPONSE	n/a	n/a	n/a	n/a	n/a	n/a	n/a	red
477.1065	1.0167	ITI	n/a	n/a	n/a	n/a	n/a	n/a	n/a	n/a
478.1232	0.5167	FIXCROSS	n/a	n/a	n/a	n/a	n/a	n/a	n/a	n/a
478.6398	0.75	COLOR_NAME	67	Incongruent	zielony	green	żółty	yellow	hit	n/a
479.3664	n/a	RESPONSE	n/a	n/a	n/a	n/a	n/a	n/a	n/a	green
479.3899	1.0167	ITI	n/a	n/a	n/a	n/a	n/a	n/a	n/a	n/a
480.4065	0.5167	FIXCROSS	n/a	n/a	n/a	n/a	n/a	n/a	n/a	n/a
480.9232	0.6167	COLOR_NAME	68	Neutral	zielony	green	Neutral	Neutral	hit	n/a
481.5068	n/a	RESPONSE	n/a	n/a	n/a	n/a	n/a	n/a	n/a	green
481.5399	1.0167	ITI	n/a	n/a	n/a	n/a	n/a	n/a	n/a	n/a
482.5566	0.5167	FIXCROSS	n/a	n/a	n/a	n/a	n/a	n/a	n/a	n/a
483.0732	0.85	COLOR_NAME	69	Incongruent	czerwony	red	zielony	green	hit	n/a
483.9027	n/a	RESPONSE	n/a	n/a	n/a	n/a	n/a	n/a	n/a	red
483.9232	1.0167	ITI	n/a	n/a	n/a	n/a	n/a	n/a	n/a	n/a
484.9399	0.5167	FIXCROSS	n/a	n/a	n/a	n/a	n/a	n/a	n/a	n/a
485.4566	0.75	COLOR_NAME	70	Incongruent	żółty	yellow	czerwony	red	hit	n/a
486.1868	n/a	RESPONSE	n/a	n/a	n/a	n/a	n/a	n/a	n/a	yellow
486.2066	1.0167	ITI	n/a	n/a	n/a	n/a	n/a	n/a	n/a	n/a
487.2232	0.5167	FIXCROSS	n/a	n/a	n/a	n/a	n/a	n/a	n/a	n/a
487.7399	0.7167	COLOR_NAME	71	Neutral	żółty	yellow	Neutral	Neutral	hit	n/a
488.4231	n/a	RESPONSE	n/a	n/a	n/a	n/a	n/a	n/a	n/a	yellow
488.4566	1.0167	ITI	n/a	n/a	n/a	n/a	n/a	n/a	n/a	n/a
489.4733	0.5166	FIXCROSS	n/a	n/a	n/a	n/a	n/a	n/a	n/a	n/a
489.9898	0.6835	COLOR_NAME	72	Incongruent	czerwony	red	zielony	green	hit	n/a
490.6433	n/a	RESPONSE	n/a	n/a	n/a	n/a	n/a	n/a	n/a	red
490.6733	1.0333	ITI	n/a	n/a	n/a	n/a	n/a	n/a	n/a	n/a
494.7165	n/a	RESPONSE	n/a	n/a	n/a	n/a	n/a	n/a	n/a	n/a
