onset	duration	trial_type	melody_number	melody_part	key	sound	action
0.0	14.088	CUE_START	n/a	n/a	n/a	n/a	n/a
14.089	7.76	FIXCROSS	n/a	n/a	n/a	n/a	n/a
21.848	6.315	CUE_LISTEN	M4	1	n/a	n/a	n/a
28.164	7.758	FIXCROSS	n/a	n/a	n/a	n/a	n/a
35.922	6.317	CUE_PLAYBACK_RIGHT_HAND	M4	1	n/a	n/a	n/a
36.615	n/a	RESPONSE	M4	1	21	A4	press
36.877	n/a	RESPONSE	M4	1	21	A4	release
36.936	n/a	RESPONSE	M4	1	21	A4	press
37.157	n/a	RESPONSE	M4	1	21	A4	release
37.241	n/a	RESPONSE	M4	1	21	A4	press
37.717	n/a	RESPONSE	M4	1	21	A4	release
37.846	n/a	RESPONSE	M4	1	21	A4	press
38.104	n/a	RESPONSE	M4	1	21	A4	release
38.172	n/a	RESPONSE	M4	1	21	A4	press
38.392	n/a	RESPONSE	M4	1	21	A4	release
38.482	n/a	RESPONSE	M4	1	21	A4	press
39.01	n/a	RESPONSE	M4	1	21	A4	release
39.13	n/a	RESPONSE	M4	1	21	A4	press
39.476	n/a	RESPONSE	M4	1	24	C5	press
39.56	n/a	RESPONSE	M4	1	21	A4	release
39.771	n/a	RESPONSE	M4	1	17	F4	press
39.984	n/a	RESPONSE	M4	1	24	C5	release
40.15	n/a	RESPONSE	M4	1	19	G4	press
40.242	n/a	RESPONSE	M4	1	17	F4	release
40.515	n/a	RESPONSE	M4	1	21	A4	press
40.701	n/a	RESPONSE	M4	1	19	G4	release
41.926	n/a	RESPONSE	M4	1	21	A4	release
42.239	7.758	FIXCROSS	n/a	n/a	n/a	n/a	n/a
49.997	6.317	CUE_LISTEN	M4	2	n/a	n/a	n/a
55.066	n/a	RESPONSE	M4	2	22	A#4	press
55.34	n/a	RESPONSE	M4	2	22	A#4	release
56.314	7.758	FIXCROSS	n/a	n/a	n/a	n/a	n/a
57.077	n/a	RESPONSE	M4	2	22	A#4	press
57.326	n/a	RESPONSE	M4	2	22	A#4	release
57.429	n/a	RESPONSE	M4	2	22	A#4	press
57.661	n/a	RESPONSE	M4	2	22	A#4	release
57.79	n/a	RESPONSE	M4	2	22	A#4	press
58.035	n/a	RESPONSE	M4	2	22	A#4	release
58.154	n/a	RESPONSE	M4	2	22	A#4	press
58.395	n/a	RESPONSE	M4	2	22	A#4	release
58.495	n/a	RESPONSE	M4	2	22	A#4	press
58.832	n/a	RESPONSE	M4	2	21	A4	press
59.015	n/a	RESPONSE	M4	2	22	A#4	release
59.076	n/a	RESPONSE	M4	2	21	A4	release
59.189	n/a	RESPONSE	M4	2	21	A4	press
59.437	n/a	RESPONSE	M4	2	21	A4	release
59.546	n/a	RESPONSE	M4	2	21	A4	press
61.151	n/a	RESPONSE	M4	2	19	G4	press
61.232	n/a	RESPONSE	M4	2	21	A4	release
61.456	n/a	RESPONSE	M4	2	19	G4	release
61.526	n/a	RESPONSE	M4	2	19	G4	press
61.846	n/a	RESPONSE	M4	2	21	A4	press
61.945	n/a	RESPONSE	M4	2	19	G4	release
62.194	n/a	RESPONSE	M4	2	19	G4	press
62.291	n/a	RESPONSE	M4	2	21	A4	release
62.609	n/a	RESPONSE	M4	2	24	C5	press
62.694	n/a	RESPONSE	M4	2	19	G4	release
63.946	n/a	RESPONSE	M4	2	24	C5	release
64.072	6.325	CUE_PLAYBACK_RIGHT_HAND	M4	2	n/a	n/a	n/a
68.086	n/a	RESPONSE	M4	2	22	A#4	press
68.35	n/a	RESPONSE	M4	2	22	A#4	release
68.427	n/a	RESPONSE	M4	2	22	A#4	press
68.675	n/a	RESPONSE	M4	2	22	A#4	release
68.766	n/a	RESPONSE	M4	2	22	A#4	press
69.002	n/a	RESPONSE	M4	2	22	A#4	release
69.106	n/a	RESPONSE	M4	2	22	A#4	press
69.335	n/a	RESPONSE	M4	2	22	A#4	release
69.454	n/a	RESPONSE	M4	2	22	A#4	press
69.779	n/a	RESPONSE	M4	2	21	A4	press
69.967	n/a	RESPONSE	M4	2	22	A#4	release
70.39	n/a	RESPONSE	M4	2	21	A4	release
70.397	7.758	FIXCROSS	n/a	n/a	n/a	n/a	n/a
70.49	n/a	RESPONSE	M4	2	21	A4	press
70.775	n/a	RESPONSE	M4	2	21	A4	release
70.842	n/a	RESPONSE	M4	2	21	A4	press
71.121	n/a	RESPONSE	M4	2	21	A4	release
71.177	n/a	RESPONSE	M4	2	21	A4	press
71.914	n/a	RESPONSE	M4	2	19	G4	press
72.025	n/a	RESPONSE	M4	2	21	A4	release
72.164	n/a	RESPONSE	M4	2	19	G4	release
72.222	n/a	RESPONSE	M4	2	19	G4	press
72.524	n/a	RESPONSE	M4	2	21	A4	press
72.607	n/a	RESPONSE	M4	2	19	G4	release
72.787	n/a	RESPONSE	M4	2	19	G4	press
72.802	n/a	RESPONSE	M4	2	17	F4	press
72.872	n/a	RESPONSE	M4	2	17	F4	release
72.97	n/a	RESPONSE	M4	2	21	A4	release
73.249	n/a	RESPONSE	M4	2	24	C5	press
73.495	n/a	RESPONSE	M4	2	19	G4	release
74.199	n/a	RESPONSE	M4	2	24	C5	release
78.156	6.317	CUE_LISTEN	M1	1	n/a	n/a	n/a
84.472	7.758	FIXCROSS	n/a	n/a	n/a	n/a	n/a
92.231	6.325	CUE_PLAYBACK_RIGHT_HAND	M1	1	n/a	n/a	n/a
92.83	n/a	RESPONSE	M1	1	21	A4	press
93.077	n/a	RESPONSE	M1	1	21	A4	release
93.147	n/a	RESPONSE	M1	1	21	A4	press
93.341	n/a	RESPONSE	M1	1	21	A4	release
93.425	n/a	RESPONSE	M1	1	21	A4	press
93.852	n/a	RESPONSE	M1	1	21	A4	release
93.965	n/a	RESPONSE	M1	1	21	A4	press
94.172	n/a	RESPONSE	M1	1	21	A4	release
94.245	n/a	RESPONSE	M1	1	21	A4	press
94.466	n/a	RESPONSE	M1	1	21	A4	release
94.534	n/a	RESPONSE	M1	1	21	A4	press
94.934	n/a	RESPONSE	M1	1	21	A4	release
95.1	n/a	RESPONSE	M1	1	21	A4	press
95.39	n/a	RESPONSE	M1	1	24	C5	press
95.501	n/a	RESPONSE	M1	1	21	A4	release
95.75	n/a	RESPONSE	M1	1	17	F4	press
95.792	n/a	RESPONSE	M1	1	19	G4	press
95.946	n/a	RESPONSE	M1	1	24	C5	release
96.155	n/a	RESPONSE	M1	1	17	F4	release
96.554	n/a	RESPONSE	M1	1	21	A4	press
96.706	n/a	RESPONSE	M1	1	19	G4	release
97.892	n/a	RESPONSE	M1	1	21	A4	release
98.556	7.758	FIXCROSS	n/a	n/a	n/a	n/a	n/a
106.314	6.317	CUE_LISTEN	M1	2	n/a	n/a	n/a
112.631	7.758	FIXCROSS	n/a	n/a	n/a	n/a	n/a
120.389	6.317	CUE_PLAYBACK_RIGHT_HAND	M1	2	n/a	n/a	n/a
120.932	n/a	RESPONSE	M1	2	22	A#4	press
121.162	n/a	RESPONSE	M1	2	22	A#4	release
121.261	n/a	RESPONSE	M1	2	22	A#4	press
121.484	n/a	RESPONSE	M1	2	22	A#4	release
121.595	n/a	RESPONSE	M1	2	22	A#4	press
121.844	n/a	RESPONSE	M1	2	22	A#4	release
121.945	n/a	RESPONSE	M1	2	22	A#4	press
122.18	n/a	RESPONSE	M1	2	22	A#4	release
122.32	n/a	RESPONSE	M1	2	22	A#4	press
122.706	n/a	RESPONSE	M1	2	21	A4	press
122.885	n/a	RESPONSE	M1	2	22	A#4	release
122.982	n/a	RESPONSE	M1	2	21	A4	release
123.08	n/a	RESPONSE	M1	2	21	A4	press
123.329	n/a	RESPONSE	M1	2	21	A4	release
123.44	n/a	RESPONSE	M1	2	21	A4	press
123.826	n/a	RESPONSE	M1	2	24	C5	press
123.954	n/a	RESPONSE	M1	2	21	A4	release
124.119	n/a	RESPONSE	M1	2	24	C5	release
124.23	n/a	RESPONSE	M1	2	24	C5	press
124.616	n/a	RESPONSE	M1	2	22	A#4	press
125.002	n/a	RESPONSE	M1	2	19	G4	press
125.045	n/a	RESPONSE	M1	2	21	A4	press
125.074	n/a	RESPONSE	M1	2	24	C5	release
125.089	n/a	RESPONSE	M1	2	22	A#4	release
125.215	n/a	RESPONSE	M1	2	21	A4	release
125.395	n/a	RESPONSE	M1	2	17	F4	press
125.519	n/a	RESPONSE	M1	2	19	G4	release
126.635	n/a	RESPONSE	M1	2	17	F4	release
126.706	7.758	FIXCROSS	n/a	n/a	n/a	n/a	n/a
134.464	6.325	CUE_LISTEN	M5	1	n/a	n/a	n/a
140.789	7.758	FIXCROSS	n/a	n/a	n/a	n/a	n/a
141.594	n/a	RESPONSE	M5	1	14	D4	press
141.774	n/a	RESPONSE	M5	1	14	D4	release
148.548	6.317	CUE_PLAYBACK_BOTH_HANDS	M5	1	n/a	n/a	n/a
150.039	n/a	RESPONSE	M5	1	04	E3	press
150.045	n/a	RESPONSE	M5	1	19	G4	press
150.061	n/a	RESPONSE	M5	1	00	C3	press
150.085	n/a	RESPONSE	M5	1	07	G3	press
150.575	n/a	RESPONSE	M5	1	16	E4	press
150.597	n/a	RESPONSE	M5	1	19	G4	release
150.885	n/a	RESPONSE	M5	1	16	E4	release
151.112	n/a	RESPONSE	M5	1	16	E4	press
151.349	n/a	RESPONSE	M5	1	04	E3	release
151.419	n/a	RESPONSE	M5	1	16	E4	release
151.447	n/a	RESPONSE	M5	1	00	C3	release
151.614	n/a	RESPONSE	M5	1	02	D3	press
151.642	n/a	RESPONSE	M5	1	05	F3	press
151.645	n/a	RESPONSE	M5	1	17	F4	press
152.132	n/a	RESPONSE	M5	1	14	D4	press
152.228	n/a	RESPONSE	M5	1	17	F4	release
152.476	n/a	RESPONSE	M5	1	14	D4	release
152.629	n/a	RESPONSE	M5	1	14	D4	press
152.891	n/a	RESPONSE	M5	1	05	F3	release
152.906	n/a	RESPONSE	M5	1	02	D3	release
152.976	n/a	RESPONSE	M5	1	14	D4	release
153.142	n/a	RESPONSE	M5	1	04	E3	press
153.157	n/a	RESPONSE	M5	1	00	C3	press
153.16	n/a	RESPONSE	M5	1	14	D4	press
153.187	n/a	RESPONSE	M5	1	12	C4	press
153.216	n/a	RESPONSE	M5	1	12	C4	release
153.41	n/a	RESPONSE	M5	1	16	E4	press
153.507	n/a	RESPONSE	M5	1	14	D4	release
153.687	n/a	RESPONSE	M5	1	19	G4	press
154.57	n/a	RESPONSE	M5	1	16	E4	release
154.667	n/a	RESPONSE	M5	1	04	E3	release
154.696	n/a	RESPONSE	M5	1	00	C3	release
154.864	7.758	FIXCROSS	n/a	n/a	n/a	n/a	n/a
156.541	n/a	RESPONSE	M5	1	04	E3	press
157.425	n/a	RESPONSE	M5	1	19	G4	release
162.364	n/a	RESPONSE	M5	1	04	E3	release
162.623	6.317	CUE_LISTEN	M5	2	n/a	n/a	n/a
163.33	n/a	RESPONSE	M5	2	07	G3	release
168.939	7.758	FIXCROSS	n/a	n/a	n/a	n/a	n/a
176.698	6.325	CUE_PLAYBACK_BOTH_HANDS	M5	2	n/a	n/a	n/a
177.416	n/a	RESPONSE	M5	2	04	E3	press
177.419	n/a	RESPONSE	M5	2	00	C3	press
177.434	n/a	RESPONSE	M5	2	19	G4	press
177.437	n/a	RESPONSE	M5	2	07	G3	press
177.97	n/a	RESPONSE	M5	2	16	E4	press
178.076	n/a	RESPONSE	M5	2	19	G4	release
178.335	n/a	RESPONSE	M5	2	16	E4	release
178.499	n/a	RESPONSE	M5	2	16	E4	press
178.822	n/a	RESPONSE	M5	2	16	E4	release
178.885	n/a	RESPONSE	M5	2	00	C3	release
179.029	n/a	RESPONSE	M5	2	00	C3	press
179.031	n/a	RESPONSE	M5	2	17	F4	press
179.738	n/a	RESPONSE	M5	2	04	E3	release
179.919	n/a	RESPONSE	M5	2	00	C3	release
180.354	n/a	RESPONSE	M5	2	02	D3	press
180.468	n/a	RESPONSE	M5	2	05	F3	press
180.619	n/a	RESPONSE	M5	2	05	F3	release
180.672	n/a	RESPONSE	M5	2	17	F4	release
180.839	n/a	RESPONSE	M5	2	05	F3	press
180.848	n/a	RESPONSE	M5	2	17	F4	press
181.385	n/a	RESPONSE	M5	2	14	D4	press
181.494	n/a	RESPONSE	M5	2	17	F4	release
181.701	n/a	RESPONSE	M5	2	14	D4	release
181.87	n/a	RESPONSE	M5	2	14	D4	press
182.12	n/a	RESPONSE	M5	2	02	D3	release
182.137	n/a	RESPONSE	M5	2	05	F3	release
182.177	n/a	RESPONSE	M5	2	14	D4	release
182.357	n/a	RESPONSE	M5	2	04	E3	press
182.414	n/a	RESPONSE	M5	2	14	D4	press
182.416	n/a	RESPONSE	M5	2	00	C3	press
182.829	n/a	RESPONSE	M5	2	16	E4	press
182.844	n/a	RESPONSE	M5	2	17	F4	press
182.914	n/a	RESPONSE	M5	2	14	D4	release
183.023	7.758	FIXCROSS	n/a	n/a	n/a	n/a	n/a
183.19	n/a	RESPONSE	M5	2	16	E4	release
183.232	n/a	RESPONSE	M5	2	17	F4	release
183.454	n/a	RESPONSE	M5	2	14	D4	press
184.116	n/a	RESPONSE	M5	2	14	D4	release
184.186	n/a	RESPONSE	M5	2	04	E3	release
184.476	n/a	RESPONSE	M5	2	00	C3	release
190.781	6.317	CUE_LISTEN	M5	1	n/a	n/a	n/a
197.098	7.758	FIXCROSS	n/a	n/a	n/a	n/a	n/a
199.395	n/a	RESPONSE	M5	1	07	G3	release
199.411	n/a	RESPONSE	M5	1	10	A#3	press
199.52	n/a	RESPONSE	M5	1	10	A#3	release
204.856	6.317	CUE_PLAYBACK_RIGHT_HAND	M5	1	n/a	n/a	n/a
205.66	n/a	RESPONSE	M5	1	12	C4	press
206.048	n/a	RESPONSE	M5	1	14	D4	press
206.13	n/a	RESPONSE	M5	1	12	C4	release
206.42	n/a	RESPONSE	M5	1	16	E4	press
206.559	n/a	RESPONSE	M5	1	14	D4	release
207.112	n/a	RESPONSE	M5	1	16	E4	release
210.382	n/a	RESPONSE	M5	1	17	F4	press
210.601	n/a	RESPONSE	M5	1	17	F4	release
210.998	n/a	RESPONSE	M5	1	19	G4	press
211.011	n/a	RESPONSE	M5	1	17	F4	press
211.173	7.758	FIXCROSS	n/a	n/a	n/a	n/a	n/a
211.18	n/a	RESPONSE	M5	1	17	F4	release
211.374	n/a	RESPONSE	M5	1	21	A4	press
211.419	n/a	RESPONSE	M5	1	19	G4	release
211.596	n/a	RESPONSE	M5	1	19	G4	press
211.694	n/a	RESPONSE	M5	1	21	A4	release
211.86	n/a	RESPONSE	M5	1	17	F4	press
211.961	n/a	RESPONSE	M5	1	19	G4	release
212.128	n/a	RESPONSE	M5	1	16	E4	press
212.295	n/a	RESPONSE	M5	1	17	F4	release
212.488	n/a	RESPONSE	M5	1	14	D4	press
212.558	n/a	RESPONSE	M5	1	16	E4	release
212.71	n/a	RESPONSE	M5	1	14	D4	release
213.002	n/a	RESPONSE	M5	1	19	G4	press
213.262	n/a	RESPONSE	M5	1	21	A4	press
213.36	n/a	RESPONSE	M5	1	19	G4	release
213.526	n/a	RESPONSE	M5	1	19	G4	press
213.611	n/a	RESPONSE	M5	1	21	A4	release
214.892	n/a	RESPONSE	M5	1	19	G4	release
218.931	6.325	CUE_LISTEN	M5	2	n/a	n/a	n/a
225.256	7.758	FIXCROSS	n/a	n/a	n/a	n/a	n/a
233.014	6.325	CUE_PLAYBACK_RIGHT_HAND	M5	2	n/a	n/a	n/a
234.751	n/a	RESPONSE	M5	2	12	C4	press
236.115	n/a	RESPONSE	M5	2	12	C4	release
236.364	n/a	RESPONSE	M5	2	12	C4	press
236.832	n/a	RESPONSE	M5	2	16	E4	press
236.905	n/a	RESPONSE	M5	2	12	C4	release
237.278	n/a	RESPONSE	M5	2	19	G4	press
237.32	n/a	RESPONSE	M5	2	16	E4	release
237.665	n/a	RESPONSE	M5	2	18	F#4	press
237.922	n/a	RESPONSE	M5	2	18	F#4	release
238.044	n/a	RESPONSE	M5	2	17	F4	press
238.435	n/a	RESPONSE	M5	2	16	E4	press
238.454	n/a	RESPONSE	M5	2	19	G4	release
238.61	n/a	RESPONSE	M5	2	17	F4	release
238.851	n/a	RESPONSE	M5	2	14	D4	press
238.975	n/a	RESPONSE	M5	2	16	E4	release
239.259	n/a	RESPONSE	M5	2	16	E4	press
239.339	7.758	FIXCROSS	n/a	n/a	n/a	n/a	n/a
239.418	n/a	RESPONSE	M5	2	14	D4	release
240.275	n/a	RESPONSE	M5	2	16	E4	release
247.098	6.317	CUE_LISTEN	M2	1	n/a	n/a	n/a
253.414	7.758	FIXCROSS	n/a	n/a	n/a	n/a	n/a
253.589	n/a	RESPONSE	M2	1	07	G3	press
258.911	n/a	RESPONSE	M2	1	07	G3	release
259.258	n/a	RESPONSE	M2	1	24	C5	press
261.173	6.317	CUE_PLAYBACK_BOTH_HANDS	M2	1	n/a	n/a	n/a
261.175	n/a	RESPONSE	M2	1	24	C5	release
261.839	n/a	RESPONSE	M2	1	00	C3	press
261.841	n/a	RESPONSE	M2	1	24	C5	press
261.855	n/a	RESPONSE	M2	1	07	G3	press
262.3	n/a	RESPONSE	M2	1	21	A4	press
262.48	n/a	RESPONSE	M2	1	24	C5	release
262.509	n/a	RESPONSE	M2	1	00	C3	release
262.565	n/a	RESPONSE	M2	1	21	A4	release
262.706	n/a	RESPONSE	M2	1	00	C3	press
262.732	n/a	RESPONSE	M2	1	21	A4	press
263.105	n/a	RESPONSE	M2	1	19	G4	press
263.271	n/a	RESPONSE	M2	1	21	A4	release
263.3	n/a	RESPONSE	M2	1	00	C3	release
263.521	n/a	RESPONSE	M2	1	17	F4	press
263.536	n/a	RESPONSE	M2	1	00	C3	press
264.009	n/a	RESPONSE	M2	1	17	F4	release
264.104	n/a	RESPONSE	M2	1	00	C3	release
264.352	n/a	RESPONSE	M2	1	00	C3	press
264.368	n/a	RESPONSE	M2	1	21	A4	press
264.506	n/a	RESPONSE	M2	1	19	G4	release
264.975	n/a	RESPONSE	M2	1	00	C3	release
265.019	n/a	RESPONSE	M2	1	21	A4	release
267.489	7.758	FIXCROSS	n/a	n/a	n/a	n/a	n/a
268.746	n/a	RESPONSE	M2	1	00	C3	press
273.326	n/a	RESPONSE	M2	1	00	C3	release
275.248	6.317	CUE_LISTEN	M2	2	n/a	n/a	n/a
279.122	n/a	RESPONSE	M2	2	07	G3	release
281.564	7.758	FIXCROSS	n/a	n/a	n/a	n/a	n/a
283.535	n/a	RESPONSE	M2	2	24	C5	press
286.606	n/a	RESPONSE	M2	2	24	C5	release
289.323	6.325	CUE_PLAYBACK_BOTH_HANDS	M2	2	n/a	n/a	n/a
289.968	n/a	RESPONSE	M2	2	24	C5	press
289.97	n/a	RESPONSE	M2	2	00	C3	press
289.985	n/a	RESPONSE	M2	2	07	G3	press
290.406	n/a	RESPONSE	M2	2	19	G4	press
290.43	n/a	RESPONSE	M2	2	21	A4	press
290.53	n/a	RESPONSE	M2	2	24	C5	release
290.63	n/a	RESPONSE	M2	2	00	C3	release
290.639	n/a	RESPONSE	M2	2	21	A4	release
290.775	n/a	RESPONSE	M2	2	19	G4	release
290.894	n/a	RESPONSE	M2	2	19	G4	press
290.896	n/a	RESPONSE	M2	2	00	C3	press
291.359	n/a	RESPONSE	M2	2	17	F4	press
291.456	n/a	RESPONSE	M2	2	00	C3	release
291.554	n/a	RESPONSE	M2	2	19	G4	release
291.805	n/a	RESPONSE	M2	2	16	E4	press
291.818	n/a	RESPONSE	M2	2	00	C3	press
292.221	n/a	RESPONSE	M2	2	14	D4	press
292.266	n/a	RESPONSE	M2	2	17	F4	release
292.405	n/a	RESPONSE	M2	2	00	C3	release
292.46	n/a	RESPONSE	M2	2	16	E4	release
292.708	n/a	RESPONSE	M2	2	12	C4	press
292.71	n/a	RESPONSE	M2	2	00	C3	press
293.481	n/a	RESPONSE	M2	2	14	D4	release
293.866	n/a	RESPONSE	M2	2	12	C4	release
293.938	n/a	RESPONSE	M2	2	00	C3	release
295.648	7.758	FIXCROSS	n/a	n/a	n/a	n/a	n/a
295.671	n/a	RESPONSE	M2	2	12	C4	press
296.018	n/a	RESPONSE	M2	2	12	C4	release
303.406	6.317	CUE_LISTEN	M2	1	n/a	n/a	n/a
309.723	7.758	FIXCROSS	n/a	n/a	n/a	n/a	n/a
317.481	6.317	CUE_PLAYBACK_BOTH_HANDS	M2	1	n/a	n/a	n/a
317.851	n/a	RESPONSE	M2	1	07	G3	release
318.208	n/a	RESPONSE	M2	1	12	C4	press
318.21	n/a	RESPONSE	M2	1	00	C3	press
318.216	n/a	RESPONSE	M2	1	07	G3	press
318.69	n/a	RESPONSE	M2	1	14	D4	press
318.736	n/a	RESPONSE	M2	1	12	C4	release
318.918	n/a	RESPONSE	M2	1	00	C3	release
319.166	n/a	RESPONSE	M2	1	16	E4	press
319.169	n/a	RESPONSE	M2	1	00	C3	press
319.254	n/a	RESPONSE	M2	1	14	D4	release
319.628	n/a	RESPONSE	M2	1	14	D4	press
319.689	n/a	RESPONSE	M2	1	16	E4	release
319.765	n/a	RESPONSE	M2	1	00	C3	release
320.061	n/a	RESPONSE	M2	1	00	C3	press
320.064	n/a	RESPONSE	M2	1	16	E4	press
320.176	n/a	RESPONSE	M2	1	14	D4	release
320.529	n/a	RESPONSE	M2	1	17	F4	press
320.653	n/a	RESPONSE	M2	1	16	E4	release
320.659	n/a	RESPONSE	M2	1	00	C3	release
320.953	n/a	RESPONSE	M2	1	00	C3	press
321.011	n/a	RESPONSE	M2	1	19	G4	press
321.618	n/a	RESPONSE	M2	1	17	F4	release
322.134	n/a	RESPONSE	M2	1	00	C3	release
323.219	n/a	RESPONSE	M2	1	19	G4	release
323.798	7.758	FIXCROSS	n/a	n/a	n/a	n/a	n/a
331.556	6.325	CUE_LISTEN	M2	2	n/a	n/a	n/a
337.881	7.758	FIXCROSS	n/a	n/a	n/a	n/a	n/a
345.64	6.317	CUE_PLAYBACK_BOTH_HANDS	M2	2	n/a	n/a	n/a
346.14	n/a	RESPONSE	M2	2	07	G3	release
346.29	n/a	RESPONSE	M2	2	00	C3	press
346.293	n/a	RESPONSE	M2	2	07	G3	press
346.306	n/a	RESPONSE	M2	2	16	E4	press
346.734	n/a	RESPONSE	M2	2	19	G4	press
346.873	n/a	RESPONSE	M2	2	16	E4	release
346.889	n/a	RESPONSE	M2	2	00	C3	release
347.056	n/a	RESPONSE	M2	2	19	G4	release
347.154	n/a	RESPONSE	M2	2	00	C3	press
347.169	n/a	RESPONSE	M2	2	19	G4	press
347.56	n/a	RESPONSE	M2	2	17	F4	press
347.749	n/a	RESPONSE	M2	2	00	C3	release
347.904	n/a	RESPONSE	M2	2	19	G4	release
347.978	n/a	RESPONSE	M2	2	00	C3	press
347.994	n/a	RESPONSE	M2	2	16	E4	press
348.175	n/a	RESPONSE	M2	2	17	F4	release
348.371	n/a	RESPONSE	M2	2	14	D4	press
348.485	n/a	RESPONSE	M2	2	00	C3	release
348.501	n/a	RESPONSE	M2	2	16	E4	release
348.858	n/a	RESPONSE	M2	2	12	C4	press
348.931	n/a	RESPONSE	M2	2	00	C3	press
349.75	n/a	RESPONSE	M2	2	14	D4	release
349.91	n/a	RESPONSE	M2	2	12	C4	release
349.974	n/a	RESPONSE	M2	2	00	C3	release
351.851	n/a	RESPONSE	M2	2	07	G3	release
351.956	7.758	FIXCROSS	n/a	n/a	n/a	n/a	n/a
354.636	n/a	RESPONSE	M2	2	07	G3	press
359.715	6.317	CUE_LISTEN	M3	1	n/a	n/a	n/a
366.031	7.758	FIXCROSS	n/a	n/a	n/a	n/a	n/a
373.79	6.325	CUE_PLAYBACK_RIGHT_HAND	M3	1	n/a	n/a	n/a
374.02	n/a	RESPONSE	M3	1	07	G3	release
374.75	n/a	RESPONSE	M3	1	12	C4	press
375.233	n/a	RESPONSE	M3	1	14	D4	press
375.289	n/a	RESPONSE	M3	1	12	C4	release
375.716	n/a	RESPONSE	M3	1	16	E4	press
375.8	n/a	RESPONSE	M3	1	14	D4	release
376.188	n/a	RESPONSE	M3	1	12	C4	press
376.244	n/a	RESPONSE	M3	1	16	E4	release
376.424	n/a	RESPONSE	M3	1	12	C4	release
376.659	n/a	RESPONSE	M3	1	12	C4	press
377.118	n/a	RESPONSE	M3	1	14	D4	press
377.2	n/a	RESPONSE	M3	1	12	C4	release
377.573	n/a	RESPONSE	M3	1	16	E4	press
377.649	n/a	RESPONSE	M3	1	14	D4	release
378.043	n/a	RESPONSE	M3	1	12	C4	press
378.081	n/a	RESPONSE	M3	1	16	E4	release
378.658	n/a	RESPONSE	M3	1	12	C4	release
380.115	7.758	FIXCROSS	n/a	n/a	n/a	n/a	n/a
387.873	6.317	CUE_LISTEN	M3	2	n/a	n/a	n/a
394.19	7.758	FIXCROSS	n/a	n/a	n/a	n/a	n/a
401.948	6.317	CUE_PLAYBACK_RIGHT_HAND	M3	2	n/a	n/a	n/a
402.751	n/a	RESPONSE	M3	2	16	E4	press
403.219	n/a	RESPONSE	M3	2	18	F#4	press
403.276	n/a	RESPONSE	M3	2	17	F4	press
403.593	n/a	RESPONSE	M3	2	16	E4	release
403.731	n/a	RESPONSE	M3	2	19	G4	press
403.76	n/a	RESPONSE	M3	2	18	F#4	release
403.914	n/a	RESPONSE	M3	2	17	F4	release
404.603	n/a	RESPONSE	M3	2	19	G4	release
404.659	n/a	RESPONSE	M3	2	16	E4	press
405.141	n/a	RESPONSE	M3	2	17	F4	press
405.308	n/a	RESPONSE	M3	2	16	E4	release
405.666	n/a	RESPONSE	M3	2	19	G4	press
405.778	n/a	RESPONSE	M3	2	17	F4	release
408.265	7.758	FIXCROSS	n/a	n/a	n/a	n/a	n/a
409.221	n/a	RESPONSE	M3	2	19	G4	release
416.023	6.325	CUE_LISTEN	M3	1	n/a	n/a	n/a
422.348	7.758	FIXCROSS	n/a	n/a	n/a	n/a	n/a
430.106	6.317	CUE_PLAYBACK_RIGHT_HAND	M3	1	n/a	n/a	n/a
430.909	n/a	RESPONSE	M3	1	19	G4	press
431.183	n/a	RESPONSE	M3	1	21	A4	press
431.294	n/a	RESPONSE	M3	1	19	G4	release
431.474	n/a	RESPONSE	M3	1	19	G4	press
431.614	n/a	RESPONSE	M3	1	21	A4	release
431.725	n/a	RESPONSE	M3	1	17	F4	press
431.895	n/a	RESPONSE	M3	1	19	G4	release
432.101	n/a	RESPONSE	M3	1	16	E4	press
432.226	n/a	RESPONSE	M3	1	17	F4	release
432.654	n/a	RESPONSE	M3	1	14	D4	press
432.738	n/a	RESPONSE	M3	1	16	E4	release
432.986	n/a	RESPONSE	M3	1	14	D4	release
433.221	n/a	RESPONSE	M3	1	19	G4	press
433.511	n/a	RESPONSE	M3	1	21	A4	press
433.595	n/a	RESPONSE	M3	1	19	G4	release
433.789	n/a	RESPONSE	M3	1	19	G4	press
433.873	n/a	RESPONSE	M3	1	21	A4	release
434.068	n/a	RESPONSE	M3	1	17	F4	press
434.22	n/a	RESPONSE	M3	1	19	G4	release
434.331	n/a	RESPONSE	M3	1	16	E4	press
434.498	n/a	RESPONSE	M3	1	17	F4	release
434.87	n/a	RESPONSE	M3	1	14	D4	press
434.94	n/a	RESPONSE	M3	1	16	E4	release
436.113	n/a	RESPONSE	M3	1	14	D4	release
436.423	7.758	FIXCROSS	n/a	n/a	n/a	n/a	n/a
444.182	6.317	CUE_LISTEN	M3	2	n/a	n/a	n/a
450.498	7.758	FIXCROSS	n/a	n/a	n/a	n/a	n/a
458.257	6.325	CUE_PLAYBACK_RIGHT_HAND	M3	2	n/a	n/a	n/a
458.86	n/a	RESPONSE	M3	2	12	C4	press
459.324	n/a	RESPONSE	M3	2	07	G3	press
459.52	n/a	RESPONSE	M3	2	12	C4	release
459.779	n/a	RESPONSE	M3	2	12	C4	press
460.454	n/a	RESPONSE	M3	2	07	G3	release
460.478	n/a	RESPONSE	M3	2	12	C4	release
460.719	n/a	RESPONSE	M3	2	12	C4	press
461.221	n/a	RESPONSE	M3	2	09	A3	press
461.404	n/a	RESPONSE	M3	2	12	C4	release
461.694	n/a	RESPONSE	M3	2	12	C4	press
461.875	n/a	RESPONSE	M3	2	09	A3	release
464.582	7.758	FIXCROSS	n/a	n/a	n/a	n/a	n/a
467.361	n/a	RESPONSE	M3	2	07	G3	press
467.428	n/a	RESPONSE	M3	2	12	C4	release
469.608	n/a	RESPONSE	M3	2	07	G3	release
472.34	6.317	CUE_LISTEN	M5	1	n/a	n/a	n/a
478.657	7.758	FIXCROSS	n/a	n/a	n/a	n/a	n/a
482.404	n/a	RESPONSE	M5	1	07	G3	press
483.865	n/a	RESPONSE	M5	1	09	A3	press
484.621	n/a	RESPONSE	M5	1	09	A3	release
486.415	6.325	CUE_PLAYBACK_BOTH_HANDS	M5	1	n/a	n/a	n/a
487.061	n/a	RESPONSE	M5	1	04	E3	press
487.064	n/a	RESPONSE	M5	1	00	C3	press
487.578	n/a	RESPONSE	M5	1	11	B3	press
488.12	n/a	RESPONSE	M5	1	14	D4	press
488.219	n/a	RESPONSE	M5	1	11	B3	release
488.598	n/a	RESPONSE	M5	1	12	C4	press
488.695	n/a	RESPONSE	M5	1	14	D4	release
489.065	n/a	RESPONSE	M5	1	11	B3	press
489.223	n/a	RESPONSE	M5	1	12	C4	release
490.334	n/a	RESPONSE	M5	1	12	C4	press
490.47	n/a	RESPONSE	M5	1	11	B3	release
490.833	n/a	RESPONSE	M5	1	12	C4	release
490.961	n/a	RESPONSE	M5	1	00	C3	release
491.003	n/a	RESPONSE	M5	1	04	E3	release
491.266	n/a	RESPONSE	M5	1	04	E3	press
491.283	n/a	RESPONSE	M5	1	00	C3	press
491.793	n/a	RESPONSE	M5	1	11	B3	press
492.251	n/a	RESPONSE	M5	1	16	E4	press
492.351	n/a	RESPONSE	M5	1	11	B3	release
492.74	7.758	FIXCROSS	n/a	n/a	n/a	n/a	n/a
492.749	n/a	RESPONSE	M5	1	13	C#4	press
492.751	n/a	RESPONSE	M5	1	16	E4	release
492.904	n/a	RESPONSE	M5	1	13	C#4	release
492.989	n/a	RESPONSE	M5	1	14	D4	press
493.015	n/a	RESPONSE	M5	1	12	C4	press
493.195	n/a	RESPONSE	M5	1	11	B3	press
493.306	n/a	RESPONSE	M5	1	14	D4	release
493.679	n/a	RESPONSE	M5	1	12	C4	release
493.694	n/a	RESPONSE	M5	1	09	A3	press
493.805	n/a	RESPONSE	M5	1	11	B3	release
494.22	n/a	RESPONSE	M5	1	11	B3	press
494.386	n/a	RESPONSE	M5	1	09	A3	release
497.198	n/a	RESPONSE	M5	1	11	B3	release
497.295	n/a	RESPONSE	M5	1	00	C3	release
500.498	6.317	CUE_LISTEN	M5	2	n/a	n/a	n/a
506.815	7.758	FIXCROSS	n/a	n/a	n/a	n/a	n/a
509.398	n/a	RESPONSE	M5	2	07	G3	release
510.77	n/a	RESPONSE	M5	2	07	G3	press
514.503	n/a	RESPONSE	M5	2	04	E3	release
514.573	6.317	CUE_PLAYBACK_BOTH_HANDS	M5	2	n/a	n/a	n/a
515.3	n/a	RESPONSE	M5	2	04	E3	press
515.303	n/a	RESPONSE	M5	2	00	C3	press
515.811	n/a	RESPONSE	M5	2	09	A3	press
516.584	n/a	RESPONSE	M5	2	12	C4	press
516.599	n/a	RESPONSE	M5	2	11	B3	press
516.766	n/a	RESPONSE	M5	2	09	A3	release
517.209	n/a	RESPONSE	M5	2	16	E4	press
517.265	n/a	RESPONSE	M5	2	11	B3	release
517.321	n/a	RESPONSE	M5	2	12	C4	release
517.524	n/a	RESPONSE	M5	2	00	C3	release
517.57	n/a	RESPONSE	M5	2	04	E3	release
518.615	n/a	RESPONSE	M5	2	00	C3	press
518.631	n/a	RESPONSE	M5	2	13	C#4	press
518.648	n/a	RESPONSE	M5	2	04	E3	press
518.671	n/a	RESPONSE	M5	2	02	D3	press
519.169	n/a	RESPONSE	M5	2	02	D3	release
519.206	n/a	RESPONSE	M5	2	12	C4	press
519.283	n/a	RESPONSE	M5	2	16	E4	release
519.591	n/a	RESPONSE	M5	2	13	C#4	release
519.653	n/a	RESPONSE	M5	2	11	B3	press
519.721	n/a	RESPONSE	M5	2	12	C4	release
520.371	n/a	RESPONSE	M5	2	07	G3	release
520.378	n/a	RESPONSE	M5	2	11	B3	release
520.389	n/a	RESPONSE	M5	2	04	E3	release
520.441	n/a	RESPONSE	M5	2	00	C3	release
520.606	n/a	RESPONSE	M5	2	07	G3	press
520.623	n/a	RESPONSE	M5	2	00	C3	press
520.654	n/a	RESPONSE	M5	2	04	E3	press
520.89	7.758	FIXCROSS	n/a	n/a	n/a	n/a	n/a
521.35	n/a	RESPONSE	M5	2	11	B3	press
522.029	n/a	RESPONSE	M5	2	14	D4	press
522.168	n/a	RESPONSE	M5	2	11	B3	release
522.65	n/a	RESPONSE	M5	2	16	E4	press
522.789	n/a	RESPONSE	M5	2	14	D4	release
523.244	n/a	RESPONSE	M5	2	15	D#4	press
523.383	n/a	RESPONSE	M5	2	16	E4	release
523.796	n/a	RESPONSE	M5	2	14	D4	press
523.811	n/a	RESPONSE	M5	2	12	C4	press
523.91	n/a	RESPONSE	M5	2	15	D#4	release
524.338	n/a	RESPONSE	M5	2	14	D4	release
525.054	n/a	RESPONSE	M5	2	12	C4	release
528.648	6.325	CUE_LISTEN	M5	1	n/a	n/a	n/a
534.973	7.759	FIXCROSS	n/a	n/a	n/a	n/a	n/a
539.093	n/a	RESPONSE	M5	1	07	G3	release
542.732	6.317	CUE_PLAYBACK_RIGHT_HAND	M5	1	n/a	n/a	n/a
549.048	7.758	FIXCROSS	n/a	n/a	n/a	n/a	n/a
552.42	n/a	RESPONSE	M5	1	04	E3	release
552.476	n/a	RESPONSE	M5	1	00	C3	release
556.807	6.317	CUE_LISTEN	M5	2	n/a	n/a	n/a
563.124	7.758	FIXCROSS	n/a	n/a	n/a	n/a	n/a
570.882	6.325	CUE_PLAYBACK_RIGHT_HAND	M5	2	n/a	n/a	n/a
571.539	n/a	RESPONSE	M5	2	19	G4	press
572.039	n/a	RESPONSE	M5	2	16	E4	press
572.123	n/a	RESPONSE	M5	2	19	G4	release
572.344	n/a	RESPONSE	M5	2	16	E4	release
572.525	n/a	RESPONSE	M5	2	16	E4	press
572.965	n/a	RESPONSE	M5	2	17	F4	press
573.038	n/a	RESPONSE	M5	2	16	E4	release
573.449	n/a	RESPONSE	M5	2	14	D4	press
573.533	n/a	RESPONSE	M5	2	17	F4	release
573.743	n/a	RESPONSE	M5	2	14	D4	release
573.921	n/a	RESPONSE	M5	2	14	D4	press
574.405	n/a	RESPONSE	M5	2	12	C4	press
574.435	n/a	RESPONSE	M5	2	14	D4	release
574.723	n/a	RESPONSE	M5	2	15	D#4	press
574.779	n/a	RESPONSE	M5	2	12	C4	release
575.028	n/a	RESPONSE	M5	2	15	D#4	release
575.073	n/a	RESPONSE	M5	2	12	C4	press
576.159	n/a	RESPONSE	M5	2	12	C4	release
577.207	7.758	FIXCROSS	n/a	n/a	n/a	n/a	n/a
584.965	6.317	CUE_LISTEN	M1	1	n/a	n/a	n/a
591.282	7.758	FIXCROSS	n/a	n/a	n/a	n/a	n/a
599.04	6.317	CUE_PLAYBACK_RIGHT_HAND	M1	1	n/a	n/a	n/a
599.702	n/a	RESPONSE	M1	1	21	A4	press
599.704	n/a	RESPONSE	M1	1	05	F3	press
600.064	n/a	RESPONSE	M1	1	21	A4	release
600.218	n/a	RESPONSE	M1	1	09	A3	press
600.224	n/a	RESPONSE	M1	1	21	A4	press
600.338	n/a	RESPONSE	M1	1	05	F3	release
600.624	n/a	RESPONSE	M1	1	21	A4	release
600.723	n/a	RESPONSE	M1	1	09	A3	release
600.746	n/a	RESPONSE	M1	1	04	E3	press
600.793	n/a	RESPONSE	M1	1	21	A4	press
601.319	n/a	RESPONSE	M1	1	09	A3	press
601.362	n/a	RESPONSE	M1	1	07	G3	press
601.418	n/a	RESPONSE	M1	1	04	E3	release
601.639	n/a	RESPONSE	M1	1	21	A4	release
601.723	n/a	RESPONSE	M1	1	07	G3	release
601.765	n/a	RESPONSE	M1	1	09	A3	release
601.864	n/a	RESPONSE	M1	1	21	A4	press
601.878	n/a	RESPONSE	M1	1	02	D3	press
601.895	n/a	RESPONSE	M1	1	04	E3	press
602.31	n/a	RESPONSE	M1	1	21	A4	release
602.408	n/a	RESPONSE	M1	1	04	E3	release
602.41	n/a	RESPONSE	M1	1	09	A3	press
602.438	n/a	RESPONSE	M1	1	21	A4	press
602.453	n/a	RESPONSE	M1	1	07	G3	press
602.455	n/a	RESPONSE	M1	1	02	D3	release
602.785	n/a	RESPONSE	M1	1	21	A4	release
602.924	n/a	RESPONSE	M1	1	00	C3	press
602.939	n/a	RESPONSE	M1	1	21	A4	press
602.954	n/a	RESPONSE	M1	1	07	G3	release
602.996	n/a	RESPONSE	M1	1	09	A3	release
603.506	n/a	RESPONSE	M1	1	09	A3	press
603.659	n/a	RESPONSE	M1	1	00	C3	release
604.968	n/a	RESPONSE	M1	1	09	A3	release
605.052	n/a	RESPONSE	M1	1	21	A4	release
605.357	7.758	FIXCROSS	n/a	n/a	n/a	n/a	n/a
606.058	n/a	RESPONSE	M1	1	21	A4	press
606.073	n/a	RESPONSE	M1	1	05	F3	press
606.583	n/a	RESPONSE	M1	1	24	C5	press
606.625	n/a	RESPONSE	M1	1	09	A3	press
606.668	n/a	RESPONSE	M1	1	07	G3	press
606.696	n/a	RESPONSE	M1	1	21	A4	release
606.699	n/a	RESPONSE	M1	1	05	F3	release
607.185	n/a	RESPONSE	M1	1	05	F3	press
607.198	n/a	RESPONSE	M1	1	17	F4	press
607.2	n/a	RESPONSE	M1	1	19	G4	press
607.214	n/a	RESPONSE	M1	1	07	G3	release
607.244	n/a	RESPONSE	M1	1	24	C5	release
607.655	n/a	RESPONSE	M1	1	09	A3	release
607.746	n/a	RESPONSE	M1	1	17	F4	release
608.259	n/a	RESPONSE	M1	1	21	A4	press
608.44	n/a	RESPONSE	M1	1	19	G4	release
608.779	n/a	RESPONSE	M1	1	04	E3	press
608.885	n/a	RESPONSE	M1	1	05	F3	release
609.306	n/a	RESPONSE	M1	1	09	A3	press
609.324	n/a	RESPONSE	M1	1	07	G3	press
609.369	n/a	RESPONSE	M1	1	04	E3	release
609.753	n/a	RESPONSE	M1	1	07	G3	release
609.784	n/a	RESPONSE	M1	1	09	A3	release
610.509	n/a	RESPONSE	M1	1	21	A4	release
613.115	6.325	CUE_LISTEN	M1	2	n/a	n/a	n/a
615.196	n/a	RESPONSE	M1	2	21	A4	press
619.44	7.758	FIXCROSS	n/a	n/a	n/a	n/a	n/a
626.925	n/a	RESPONSE	M1	2	21	A4	release
627.199	6.317	CUE_PLAYBACK_RIGHT_HAND	M1	2	n/a	n/a	n/a
627.713	n/a	RESPONSE	M1	2	05	F3	press
627.75	n/a	RESPONSE	M1	2	22	A#4	press
628.045	n/a	RESPONSE	M1	2	22	A#4	release
628.294	n/a	RESPONSE	M1	2	05	F3	release
628.296	n/a	RESPONSE	M1	2	08	G#3	press
628.312	n/a	RESPONSE	M1	2	22	A#4	press
628.645	n/a	RESPONSE	M1	2	22	A#4	release
629.086	n/a	RESPONSE	M1	2	22	A#4	press
629.11	n/a	RESPONSE	M1	2	02	D3	press
629.174	n/a	RESPONSE	M1	2	08	G#3	release
629.459	n/a	RESPONSE	M1	2	22	A#4	release
629.639	n/a	RESPONSE	M1	2	08	G#3	press
629.673	n/a	RESPONSE	M1	2	22	A#4	press
629.694	n/a	RESPONSE	M1	2	02	D3	release
630.026	n/a	RESPONSE	M1	2	22	A#4	release
631.205	n/a	RESPONSE	M1	2	22	A#4	press
631.22	n/a	RESPONSE	M1	2	04	E3	press
631.264	n/a	RESPONSE	M1	2	08	G#3	release
631.569	n/a	RESPONSE	M1	2	22	A#4	release
632.316	n/a	RESPONSE	M1	2	21	A4	press
632.4	n/a	RESPONSE	M1	2	07	G3	press
632.566	n/a	RESPONSE	M1	2	04	E3	release
632.98	n/a	RESPONSE	M1	2	21	A4	release
633.146	n/a	RESPONSE	M1	2	00	C3	press
633.175	n/a	RESPONSE	M1	2	21	A4	press
633.286	n/a	RESPONSE	M1	2	07	G3	release
633.515	7.758	FIXCROSS	n/a	n/a	n/a	n/a	n/a
633.632	n/a	RESPONSE	M1	2	21	A4	release
633.811	n/a	RESPONSE	M1	2	07	G3	press
633.814	n/a	RESPONSE	M1	2	21	A4	press
633.939	n/a	RESPONSE	M1	2	00	C3	release
634.642	n/a	RESPONSE	M1	2	19	G4	press
634.656	n/a	RESPONSE	M1	2	04	E3	press
634.659	n/a	RESPONSE	M1	2	05	F3	press
634.728	n/a	RESPONSE	M1	2	07	G3	release
634.784	n/a	RESPONSE	M1	2	21	A4	release
635.239	n/a	RESPONSE	M1	2	07	G3	press
635.309	n/a	RESPONSE	M1	2	21	A4	press
635.312	n/a	RESPONSE	M1	2	05	F3	release
635.354	n/a	RESPONSE	M1	2	04	E3	release
635.424	n/a	RESPONSE	M1	2	19	G4	release
635.906	n/a	RESPONSE	M1	2	19	G4	press
636.018	n/a	RESPONSE	M1	2	21	A4	release
637.025	n/a	RESPONSE	M1	2	24	C5	press
637.138	n/a	RESPONSE	M1	2	19	G4	release
640.088	n/a	RESPONSE	M1	2	07	G3	release
641.274	6.325	CUE_LISTEN	M4	1	n/a	n/a	n/a
641.51	n/a	RESPONSE	M4	1	24	C5	release
644.089	n/a	RESPONSE	M4	1	21	A4	press
647.599	7.758	FIXCROSS	n/a	n/a	n/a	n/a	n/a
655.357	6.317	CUE_PLAYBACK_BOTH_HANDS	M4	1	n/a	n/a	n/a
655.658	n/a	RESPONSE	M4	1	21	A4	release
655.772	n/a	RESPONSE	M4	1	21	A4	press
655.784	n/a	RESPONSE	M4	1	05	F3	press
656.13	n/a	RESPONSE	M4	1	21	A4	release
656.31	n/a	RESPONSE	M4	1	21	A4	press
656.325	n/a	RESPONSE	M4	1	09	A3	press
656.384	n/a	RESPONSE	M4	1	05	F3	release
656.685	n/a	RESPONSE	M4	1	21	A4	release
657.074	n/a	RESPONSE	M4	1	21	A4	press
657.103	n/a	RESPONSE	M4	1	05	F3	press
657.105	n/a	RESPONSE	M4	1	09	A3	release
657.133	n/a	RESPONSE	M4	1	04	E3	press
657.665	n/a	RESPONSE	M4	1	04	E3	release
657.686	n/a	RESPONSE	M4	1	09	A3	press
657.778	n/a	RESPONSE	M4	1	05	F3	release
658.014	n/a	RESPONSE	M4	1	21	A4	release
658.332	n/a	RESPONSE	M4	1	21	A4	press
658.338	n/a	RESPONSE	M4	1	04	E3	press
658.392	n/a	RESPONSE	M4	1	09	A3	release
658.693	n/a	RESPONSE	M4	1	21	A4	release
658.874	n/a	RESPONSE	M4	1	09	A3	press
658.89	n/a	RESPONSE	M4	1	21	A4	press
658.968	n/a	RESPONSE	M4	1	04	E3	release
659.238	n/a	RESPONSE	M4	1	21	A4	release
659.434	n/a	RESPONSE	M4	1	21	A4	press
659.436	n/a	RESPONSE	M4	1	02	D3	press
659.512	n/a	RESPONSE	M4	1	09	A3	release
659.994	n/a	RESPONSE	M4	1	09	A3	press
660.108	n/a	RESPONSE	M4	1	02	D3	release
660.416	n/a	RESPONSE	M4	1	21	A4	release
661.538	n/a	RESPONSE	M4	1	21	A4	press
661.54	n/a	RESPONSE	M4	1	05	F3	press
661.554	n/a	RESPONSE	M4	1	09	A3	release
661.674	7.758	FIXCROSS	n/a	n/a	n/a	n/a	n/a
662.082	n/a	RESPONSE	M4	1	24	C5	press
662.096	n/a	RESPONSE	M4	1	09	A3	press
662.166	n/a	RESPONSE	M4	1	05	F3	release
662.209	n/a	RESPONSE	M4	1	21	A4	release
662.705	n/a	RESPONSE	M4	1	17	F4	press
662.762	n/a	RESPONSE	M4	1	24	C5	release
662.765	n/a	RESPONSE	M4	1	04	E3	press
662.792	n/a	RESPONSE	M4	1	05	F3	press
662.849	n/a	RESPONSE	M4	1	09	A3	release
663.385	n/a	RESPONSE	M4	1	09	A3	press
663.388	n/a	RESPONSE	M4	1	19	G4	press
663.418	n/a	RESPONSE	M4	1	05	F3	release
663.444	n/a	RESPONSE	M4	1	04	E3	release
663.459	n/a	RESPONSE	M4	1	17	F4	release
663.958	n/a	RESPONSE	M4	1	21	A4	press
663.985	n/a	RESPONSE	M4	1	04	E3	press
664.069	n/a	RESPONSE	M4	1	19	G4	release
664.114	n/a	RESPONSE	M4	1	09	A3	release
664.528	n/a	RESPONSE	M4	1	09	A3	press
664.583	n/a	RESPONSE	M4	1	04	E3	release
665.146	n/a	RESPONSE	M4	1	02	D3	press
665.233	n/a	RESPONSE	M4	1	09	A3	release
665.713	n/a	RESPONSE	M4	1	09	A3	press
665.796	n/a	RESPONSE	M4	1	02	D3	release
667.596	n/a	RESPONSE	M4	1	09	A3	release
669.432	6.317	CUE_LISTEN	M4	2	n/a	n/a	n/a
675.749	14.083	FIXCROSS	n/a	n/a	n/a	n/a	n/a
681.266	n/a	RESPONSE	M4	2	21	A4	release
683.507	n/a	CUE_PLAYBACK_BOTH_HANDS	M4	2	n/a	n/a	n/a
683.929	n/a	RESPONSE	M4	2	22	A#4	press
683.932	n/a	RESPONSE	M4	2	07	G3	press
684.262	n/a	RESPONSE	M4	2	22	A#4	release
684.496	n/a	RESPONSE	M4	2	10	A#3	press
684.525	n/a	RESPONSE	M4	2	22	A#4	press
684.543	n/a	RESPONSE	M4	2	07	G3	release
684.888	n/a	RESPONSE	M4	2	22	A#4	release
685.093	n/a	RESPONSE	M4	2	22	A#4	press
685.095	n/a	RESPONSE	M4	2	04	E3	press
685.164	n/a	RESPONSE	M4	2	10	A#3	release
685.454	n/a	RESPONSE	M4	2	22	A#4	release
685.606	n/a	RESPONSE	M4	2	10	A#3	press
685.635	n/a	RESPONSE	M4	2	04	E3	release
685.65	n/a	RESPONSE	M4	2	22	A#4	press
685.983	n/a	RESPONSE	M4	2	22	A#4	release
686.19	n/a	RESPONSE	M4	2	22	A#4	press
686.234	n/a	RESPONSE	M4	2	05	F3	press
686.236	n/a	RESPONSE	M4	2	10	A#3	release
686.744	n/a	RESPONSE	M4	2	09	A3	press
686.786	n/a	RESPONSE	M4	2	21	A4	press
686.829	n/a	RESPONSE	M4	2	07	G3	press
686.86	n/a	RESPONSE	M4	2	05	F3	release
686.916	n/a	RESPONSE	M4	2	22	A#4	release
687.152	n/a	RESPONSE	M4	2	21	A4	release
687.332	n/a	RESPONSE	M4	2	02	D3	press
687.346	n/a	RESPONSE	M4	2	21	A4	press
687.383	n/a	RESPONSE	M4	2	07	G3	release
687.49	n/a	RESPONSE	M4	2	09	A3	release
687.67	n/a	RESPONSE	M4	2	21	A4	release
687.923	n/a	RESPONSE	M4	2	09	A3	press
687.944	n/a	RESPONSE	M4	2	21	A4	press
688.08	n/a	RESPONSE	M4	2	02	D3	release
689.343	n/a	RESPONSE	M4	2	21	A4	release
689.388	n/a	RESPONSE	M4	2	24	C5	press
689.414	n/a	RESPONSE	M4	2	00	C3	press
689.512	n/a	RESPONSE	M4	2	09	A3	release
689.832	7.758	FIXCROSS	n/a	n/a	n/a	n/a	n/a
689.955	n/a	RESPONSE	M4	2	24	C5	release
689.974	n/a	RESPONSE	M4	2	00	C3	release
690.235	n/a	RESPONSE	M4	2	00	C3	press
690.252	n/a	RESPONSE	M4	2	24	C5	press
690.878	n/a	RESPONSE	M4	2	07	G3	press
690.944	n/a	RESPONSE	M4	2	00	C3	release
692.156	n/a	RESPONSE	M4	2	22	A#4	press
692.254	n/a	RESPONSE	M4	2	24	C5	release
693.259	n/a	RESPONSE	M4	2	21	A4	press
693.262	n/a	RESPONSE	M4	2	04	E3	press
693.372	n/a	RESPONSE	M4	2	22	A#4	release
693.4	n/a	RESPONSE	M4	2	07	G3	release
694.2	n/a	RESPONSE	M4	2	07	G3	press
694.229	n/a	RESPONSE	M4	2	19	G4	press
694.424	n/a	RESPONSE	M4	2	21	A4	release
694.465	n/a	RESPONSE	M4	2	04	E3	release
695.113	n/a	RESPONSE	M4	2	17	F4	press
695.968	n/a	RESPONSE	M4	2	19	G4	release
696.354	n/a	RESPONSE	M4	2	07	G3	release
697.59	6.317	CUE_LISTEN	M2	1	n/a	n/a	n/a
697.934	n/a	RESPONSE	M2	1	17	F4	release
703.907	7.759	FIXCROSS	n/a	n/a	n/a	n/a	n/a
707.902	n/a	RESPONSE	M2	1	12	C4	press
709.613	n/a	RESPONSE	M2	1	12	C4	release
711.666	6.317	CUE_PLAYBACK_RIGHT_HAND	M2	1	n/a	n/a	n/a
712.123	n/a	RESPONSE	M2	1	12	C4	press
712.673	n/a	RESPONSE	M2	1	14	D4	press
712.769	n/a	RESPONSE	M2	1	12	C4	release
713.885	n/a	RESPONSE	M2	1	14	D4	release
716.336	n/a	RESPONSE	M2	1	11	B3	press
716.764	n/a	RESPONSE	M2	1	11	B3	release
717.822	n/a	RESPONSE	M2	1	11	B3	press
717.982	7.758	FIXCROSS	n/a	n/a	n/a	n/a	n/a
718.242	n/a	RESPONSE	M2	1	14	D4	press
718.305	n/a	RESPONSE	M2	1	11	B3	release
718.664	n/a	RESPONSE	M2	1	17	F4	press
718.758	n/a	RESPONSE	M2	1	14	D4	release
719.088	n/a	RESPONSE	M2	1	16	E4	press
719.48	n/a	RESPONSE	M2	1	17	F4	release
719.519	n/a	RESPONSE	M2	1	14	D4	press
719.608	n/a	RESPONSE	M2	1	16	E4	release
719.963	n/a	RESPONSE	M2	1	12	C4	press
720.062	n/a	RESPONSE	M2	1	14	D4	release
720.37	n/a	RESPONSE	M2	1	14	D4	press
720.493	n/a	RESPONSE	M2	1	12	C4	release
721.772	n/a	RESPONSE	M2	1	14	D4	release
725.741	6.325	CUE_LISTEN	M2	2	n/a	n/a	n/a
730.095	n/a	RESPONSE	M2	2	21	A4	press
730.503	n/a	RESPONSE	M2	2	21	A4	release
732.066	7.758	FIXCROSS	n/a	n/a	n/a	n/a	n/a
733.319	n/a	RESPONSE	M2	2	24	C5	press
736.596	n/a	RESPONSE	M2	2	24	C5	release
739.824	6.317	CUE_PLAYBACK_RIGHT_HAND	M2	2	n/a	n/a	n/a
740.286	n/a	RESPONSE	M2	2	24	C5	press
740.766	n/a	RESPONSE	M2	2	19	G4	press
740.813	n/a	RESPONSE	M2	2	24	C5	release
741.02	n/a	RESPONSE	M2	2	19	G4	release
741.24	n/a	RESPONSE	M2	2	19	G4	press
741.698	n/a	RESPONSE	M2	2	17	F4	press
741.836	n/a	RESPONSE	M2	2	19	G4	release
742.199	n/a	RESPONSE	M2	2	16	E4	press
742.613	n/a	RESPONSE	M2	2	14	D4	press
742.656	n/a	RESPONSE	M2	2	17	F4	release
742.725	n/a	RESPONSE	M2	2	16	E4	release
743.056	n/a	RESPONSE	M2	2	12	C4	press
743.14	n/a	RESPONSE	M2	2	14	D4	release
744.038	n/a	RESPONSE	M2	2	12	C4	release
746.141	7.758	FIXCROSS	n/a	n/a	n/a	n/a	n/a
753.899	6.317	CUE_LISTEN	M2	1	n/a	n/a	n/a
760.216	7.758	FIXCROSS	n/a	n/a	n/a	n/a	n/a
767.974	6.325	CUE_PLAYBACK_RIGHT_HAND	M2	1	n/a	n/a	n/a
768.636	n/a	RESPONSE	M2	1	12	C4	press
769.158	n/a	RESPONSE	M2	1	14	D4	press
769.22	n/a	RESPONSE	M2	1	12	C4	release
769.662	n/a	RESPONSE	M2	1	16	E4	press
770.729	n/a	RESPONSE	M2	1	17	F4	press
770.769	n/a	RESPONSE	M2	1	14	D4	release
770.86	n/a	RESPONSE	M2	1	16	E4	release
771.662	n/a	RESPONSE	M2	1	17	F4	release
772.398	n/a	RESPONSE	M2	1	12	C4	press
772.85	n/a	RESPONSE	M2	1	14	D4	press
772.906	n/a	RESPONSE	M2	1	12	C4	release
773.265	n/a	RESPONSE	M2	1	16	E4	press
773.39	n/a	RESPONSE	M2	1	14	D4	release
773.708	n/a	RESPONSE	M2	1	14	D4	press
773.778	n/a	RESPONSE	M2	1	16	E4	release
774.096	n/a	RESPONSE	M2	1	16	E4	press
774.222	n/a	RESPONSE	M2	1	14	D4	release
774.299	7.758	FIXCROSS	n/a	n/a	n/a	n/a	n/a
774.525	n/a	RESPONSE	M2	1	17	F4	press
774.623	n/a	RESPONSE	M2	1	16	E4	release
774.968	n/a	RESPONSE	M2	1	19	G4	press
775.684	n/a	RESPONSE	M2	1	17	F4	release
777.312	n/a	RESPONSE	M2	1	19	G4	release
782.057	6.317	CUE_LISTEN	M2	2	n/a	n/a	n/a
788.374	7.758	FIXCROSS	n/a	n/a	n/a	n/a	n/a
796.132	6.317	CUE_PLAYBACK_RIGHT_HAND	M2	2	n/a	n/a	n/a
796.858	n/a	RESPONSE	M2	2	16	E4	press
797.354	n/a	RESPONSE	M2	2	19	G4	press
797.486	n/a	RESPONSE	M2	2	16	E4	release
797.622	n/a	RESPONSE	M2	2	19	G4	release
797.832	n/a	RESPONSE	M2	2	19	G4	press
798.306	n/a	RESPONSE	M2	2	17	F4	press
798.39	n/a	RESPONSE	M2	2	19	G4	release
798.796	n/a	RESPONSE	M2	2	16	E4	press
798.948	n/a	RESPONSE	M2	2	17	F4	release
799.318	n/a	RESPONSE	M2	2	14	D4	press
799.454	n/a	RESPONSE	M2	2	16	E4	release
799.867	n/a	RESPONSE	M2	2	12	C4	press
799.922	n/a	RESPONSE	M2	2	14	D4	release
801.123	n/a	RESPONSE	M2	2	12	C4	release
802.449	7.759	FIXCROSS	n/a	n/a	n/a	n/a	n/a
802.492	n/a	RESPONSE	M2	2	07	G3	press
804.158	n/a	RESPONSE	M2	2	07	G3	release
810.208	6.325	CUE_LISTEN	M3	1	n/a	n/a	n/a
816.532	7.758	FIXCROSS	n/a	n/a	n/a	n/a	n/a
824.291	6.317	CUE_PLAYBACK_BOTH_HANDS	M3	1	n/a	n/a	n/a
827.039	n/a	RESPONSE	M3	1	00	C3	press
827.069	n/a	RESPONSE	M3	1	12	C4	press
827.479	n/a	RESPONSE	M3	1	07	G3	press
827.633	n/a	RESPONSE	M3	1	00	C3	release
828.21	n/a	RESPONSE	M3	1	12	C4	release
828.498	n/a	RESPONSE	M3	1	07	G3	release
828.67	n/a	RESPONSE	M3	1	00	C3	press
828.673	n/a	RESPONSE	M3	1	12	C4	press
829.168	n/a	RESPONSE	M3	1	07	G3	press
829.259	n/a	RESPONSE	M3	1	14	D4	press
829.284	n/a	RESPONSE	M3	1	00	C3	release
829.434	n/a	RESPONSE	M3	1	12	C4	release
829.78	n/a	RESPONSE	M3	1	04	E3	press
829.812	n/a	RESPONSE	M3	1	16	E4	press
829.883	n/a	RESPONSE	M3	1	07	G3	release
829.928	n/a	RESPONSE	M3	1	14	D4	release
830.274	n/a	RESPONSE	M3	1	07	G3	press
830.358	n/a	RESPONSE	M3	1	12	C4	press
830.366	n/a	RESPONSE	M3	1	04	E3	release
830.393	n/a	RESPONSE	M3	1	16	E4	release
830.608	7.758	FIXCROSS	n/a	n/a	n/a	n/a	n/a
830.624	n/a	RESPONSE	M3	1	12	C4	release
830.813	n/a	RESPONSE	M3	1	07	G3	release
830.867	n/a	RESPONSE	M3	1	00	C3	press
830.885	n/a	RESPONSE	M3	1	12	C4	press
831.299	n/a	RESPONSE	M3	1	07	G3	press
831.396	n/a	RESPONSE	M3	1	00	C3	release
831.48	n/a	RESPONSE	M3	1	14	D4	press
831.925	n/a	RESPONSE	M3	1	12	C4	release
831.954	n/a	RESPONSE	M3	1	04	E3	press
831.983	n/a	RESPONSE	M3	1	16	E4	press
832.039	n/a	RESPONSE	M3	1	14	D4	release
832.042	n/a	RESPONSE	M3	1	07	G3	release
832.482	n/a	RESPONSE	M3	1	07	G3	press
832.552	n/a	RESPONSE	M3	1	04	E3	release
832.58	n/a	RESPONSE	M3	1	12	C4	press
832.623	n/a	RESPONSE	M3	1	16	E4	release
833.284	n/a	RESPONSE	M3	1	07	G3	release
837.722	n/a	RESPONSE	M3	1	12	C4	release
838.366	6.317	CUE_LISTEN	M3	2	n/a	n/a	n/a
844.682	7.758	FIXCROSS	n/a	n/a	n/a	n/a	n/a
852.441	6.325	CUE_PLAYBACK_BOTH_HANDS	M3	2	n/a	n/a	n/a
853.139	n/a	RESPONSE	M3	2	00	C3	press
853.142	n/a	RESPONSE	M3	2	19	G4	press
853.637	n/a	RESPONSE	M3	2	21	A4	press
853.652	n/a	RESPONSE	M3	2	07	G3	press
853.763	n/a	RESPONSE	M3	2	19	G4	release
853.793	n/a	RESPONSE	M3	2	00	C3	release
854.839	n/a	RESPONSE	M3	2	21	A4	release
855.102	n/a	RESPONSE	M3	2	07	G3	release
855.282	n/a	RESPONSE	M3	2	00	C3	press
855.297	n/a	RESPONSE	M3	2	19	G4	press
855.697	n/a	RESPONSE	M3	2	21	A4	press
855.78	n/a	RESPONSE	M3	2	19	G4	release
856.072	n/a	RESPONSE	M3	2	07	G3	press
856.087	n/a	RESPONSE	M3	2	19	G4	press
856.143	n/a	RESPONSE	M3	2	21	A4	release
856.172	n/a	RESPONSE	M3	2	00	C3	release
856.45	n/a	RESPONSE	M3	2	17	F4	press
856.559	n/a	RESPONSE	M3	2	04	E3	press
856.794	n/a	RESPONSE	M3	2	07	G3	release
856.949	n/a	RESPONSE	M3	2	19	G4	release
856.978	n/a	RESPONSE	M3	2	16	E4	press
857.117	n/a	RESPONSE	M3	2	17	F4	release
857.81	n/a	RESPONSE	M3	2	07	G3	press
857.864	n/a	RESPONSE	M3	2	14	D4	press
857.922	n/a	RESPONSE	M3	2	04	E3	release
857.958	n/a	RESPONSE	M3	2	16	E4	release
858.388	n/a	RESPONSE	M3	2	14	D4	release
858.538	n/a	RESPONSE	M3	2	07	G3	release
858.682	n/a	RESPONSE	M3	2	00	C3	press
858.69	n/a	RESPONSE	M3	2	19	G4	press
858.766	7.759	FIXCROSS	n/a	n/a	n/a	n/a	n/a
859.09	n/a	RESPONSE	M3	2	21	A4	press
859.188	n/a	RESPONSE	M3	2	19	G4	release
859.459	n/a	RESPONSE	M3	2	19	G4	press
859.463	n/a	RESPONSE	M3	2	07	G3	press
859.492	n/a	RESPONSE	M3	2	21	A4	release
859.584	n/a	RESPONSE	M3	2	00	C3	release
859.817	n/a	RESPONSE	M3	2	17	F4	press
860.002	n/a	RESPONSE	M3	2	19	G4	release
860.213	n/a	RESPONSE	M3	2	16	E4	press
860.242	n/a	RESPONSE	M3	2	04	E3	press
860.49	n/a	RESPONSE	M3	2	07	G3	release
860.717	n/a	RESPONSE	M3	2	17	F4	release
860.914	n/a	RESPONSE	M3	2	07	G3	press
860.937	n/a	RESPONSE	M3	2	14	D4	press
861.015	n/a	RESPONSE	M3	2	04	E3	release
861.018	n/a	RESPONSE	M3	2	16	E4	release
861.804	n/a	RESPONSE	M3	2	07	G3	release
866.524	6.317	CUE_LISTEN	M3	1	n/a	n/a	n/a
868.175	n/a	RESPONSE	M3	1	14	D4	release
872.841	7.758	FIXCROSS	n/a	n/a	n/a	n/a	n/a
880.599	6.325	CUE_PLAYBACK_BOTH_HANDS	M3	1	n/a	n/a	n/a
881.209	n/a	RESPONSE	M3	1	00	C3	press
881.212	n/a	RESPONSE	M3	1	19	G4	press
881.654	n/a	RESPONSE	M3	1	21	A4	press
881.685	n/a	RESPONSE	M3	1	07	G3	press
881.739	n/a	RESPONSE	M3	1	19	G4	release
882.019	n/a	RESPONSE	M3	1	07	G3	release
882.185	n/a	RESPONSE	M3	1	21	A4	release
882.269	n/a	RESPONSE	M3	1	00	C3	release
882.463	n/a	RESPONSE	M3	1	00	C3	press
882.465	n/a	RESPONSE	M3	1	19	G4	press
882.795	n/a	RESPONSE	M3	1	21	A4	press
882.88	n/a	RESPONSE	M3	1	19	G4	release
883.114	n/a	RESPONSE	M3	1	07	G3	press
883.144	n/a	RESPONSE	M3	1	19	G4	press
883.199	n/a	RESPONSE	M3	1	21	A4	release
883.269	n/a	RESPONSE	M3	1	00	C3	release
883.449	n/a	RESPONSE	M3	1	17	F4	press
883.658	n/a	RESPONSE	M3	1	19	G4	release
883.768	n/a	RESPONSE	M3	1	04	E3	press
883.838	n/a	RESPONSE	M3	1	16	E4	press
883.952	n/a	RESPONSE	M3	1	07	G3	release
884.009	n/a	RESPONSE	M3	1	17	F4	release
884.408	n/a	RESPONSE	M3	1	07	G3	press
884.45	n/a	RESPONSE	M3	1	14	D4	press
884.493	n/a	RESPONSE	M3	1	04	E3	release
884.549	n/a	RESPONSE	M3	1	16	E4	release
884.853	n/a	RESPONSE	M3	1	14	D4	release
885.074	n/a	RESPONSE	M3	1	00	C3	press
885.077	n/a	RESPONSE	M3	1	19	G4	press
885.104	n/a	RESPONSE	M3	1	07	G3	release
885.409	n/a	RESPONSE	M3	1	21	A4	press
885.505	n/a	RESPONSE	M3	1	19	G4	release
885.699	n/a	RESPONSE	M3	1	19	G4	press
885.742	n/a	RESPONSE	M3	1	21	A4	release
885.798	n/a	RESPONSE	M3	1	07	G3	press
886.034	n/a	RESPONSE	M3	1	17	F4	press
886.077	n/a	RESPONSE	M3	1	00	C3	release
886.134	n/a	RESPONSE	M3	1	19	G4	release
886.382	n/a	RESPONSE	M3	1	16	E4	press
886.424	n/a	RESPONSE	M3	1	04	E3	press
886.508	n/a	RESPONSE	M3	1	17	F4	release
886.633	n/a	RESPONSE	M3	1	07	G3	release
886.924	7.758	FIXCROSS	n/a	n/a	n/a	n/a	n/a
887.035	n/a	RESPONSE	M3	1	07	G3	press
887.052	n/a	RESPONSE	M3	1	14	D4	press
887.134	n/a	RESPONSE	M3	1	04	E3	release
887.163	n/a	RESPONSE	M3	1	16	E4	release
888.352	n/a	RESPONSE	M3	1	07	G3	release
891.447	n/a	RESPONSE	M3	1	14	D4	release
892.112	n/a	RESPONSE	M3	1	14	D4	press
892.58	n/a	RESPONSE	M3	1	14	D4	release
894.683	6.317	CUE_LISTEN	M3	2	n/a	n/a	n/a
900.999	7.758	FIXCROSS	n/a	n/a	n/a	n/a	n/a
908.758	193.526	CUE_PLAYBACK_BOTH_HANDS	M3	2	n/a	n/a	n/a
909.259	n/a	RESPONSE	M3	2	12	C4	press
909.755	n/a	RESPONSE	M3	2	07	G3	press
909.998	n/a	RESPONSE	M3	2	12	C4	release
910.217	n/a	RESPONSE	M3	2	12	C4	press
910.864	n/a	RESPONSE	M3	2	12	C4	release
910.887	n/a	RESPONSE	M3	2	07	G3	release
911.114	n/a	RESPONSE	M3	2	12	C4	press
911.614	n/a	RESPONSE	M3	2	07	G3	press
911.793	n/a	RESPONSE	M3	2	12	C4	release
912.059	n/a	RESPONSE	M3	2	12	C4	press
912.597	n/a	RESPONSE	M3	2	07	G3	release
912.79	n/a	RESPONSE	M3	2	12	C4	release
913.252	n/a	FIXCROSS	n/a	n/a	n/a	n/a	n/a
