onset	duration	trial_type	braille_stimulus	targets	response_count
2.01	2.008	CUE_6_DOT	n/a	n/a	n/a
7.01	1.008	FIXCROSS	n/a	n/a	n/a
8.027	5.008	6_DOT_DETECTION	C#CEŁ	1	n/a
9.76	n/a	RESPONSE	n/a	n/a	1/1
13.06	1.008	FIXCROSS	n/a	n/a	n/a
14.077	5.008	6_DOT_DETECTION	ITŁEM	0	n/a
19.11	1.008	FIXCROSS	n/a	n/a	n/a
20.127	5.008	6_DOT_DETECTION	TEK##	2	n/a
22.496	n/a	RESPONSE	n/a	n/a	1/2
23.36	n/a	RESPONSE	n/a	n/a	2/2
25.16	1.008	FIXCROSS	n/a	n/a	n/a
26.177	5.008	6_DOT_DETECTION	O#LAS	1	n/a
28.136	n/a	RESPONSE	n/a	n/a	1/1
31.21	1.008	FIXCROSS	n/a	n/a	n/a
32.227	5.008	6_DOT_DETECTION	KOP#M	1	n/a
34.68	n/a	RESPONSE	n/a	n/a	1/1
35.44	n/a	RESPONSE	n/a	n/a	2/1
37.26	1.008	FIXCROSS	n/a	n/a	n/a
38.277	5.008	6_DOT_DETECTION	SB#OL	1	n/a
40.2	n/a	RESPONSE	n/a	n/a	1/1
43.31	1.008	FIXCROSS	n/a	n/a	n/a
44.327	5.008	6_DOT_DETECTION	##KAT	2	n/a
45.856	n/a	RESPONSE	n/a	n/a	1/2
47.16	n/a	RESPONSE	n/a	n/a	2/2
49.36	1.008	FIXCROSS	n/a	n/a	n/a
50.377	5.008	6_DOT_DETECTION	DTIDI	0	n/a
57.419	2.008	CUE_REST	n/a	n/a	n/a
62.419	1.008	FIXCROSS	n/a	n/a	n/a
68.469	1.008	FIXCROSS	n/a	n/a	n/a
75.527	2.008	CUE_6_DOT	n/a	n/a	n/a
80.527	1.008	FIXCROSS	n/a	n/a	n/a
81.544	5.008	6_DOT_DETECTION	BUT##	2	n/a
84.32	n/a	RESPONSE	n/a	n/a	1/2
85.496	n/a	RESPONSE	n/a	n/a	2/2
86.577	1.008	FIXCROSS	n/a	n/a	n/a
87.594	5.008	6_DOT_DETECTION	APD#C	1	n/a
90.576	n/a	RESPONSE	n/a	n/a	1/1
92.627	1.008	FIXCROSS	n/a	n/a	n/a
93.643	5.009	6_DOT_DETECTION	EUBEC	0	n/a
98.677	1.008	FIXCROSS	n/a	n/a	n/a
99.693	5.009	6_DOT_DETECTION	KMŁKM	0	n/a
104.727	1.008	FIXCROSS	n/a	n/a	n/a
105.744	5.008	6_DOT_DETECTION	#PSU#	2	n/a
106.88	n/a	RESPONSE	n/a	n/a	1/2
109.32	n/a	RESPONSE	n/a	n/a	2/2
110.777	1.008	FIXCROSS	n/a	n/a	n/a
111.794	5.008	6_DOT_DETECTION	PMSKK	0	n/a
116.827	1.008	FIXCROSS	n/a	n/a	n/a
117.844	5.008	6_DOT_DETECTION	T#BUD	1	n/a
120.256	n/a	RESPONSE	n/a	n/a	1/1
122.877	1.008	FIXCROSS	n/a	n/a	n/a
123.894	5.008	6_DOT_DETECTION	#KMBŁ	1	n/a
124.936	n/a	RESPONSE	n/a	n/a	1/1
130.436	2.008	CUE_REST	n/a	n/a	n/a
136.936	1.008	FIXCROSS	n/a	n/a	n/a
142.986	1.008	FIXCROSS	n/a	n/a	n/a
150.544	2.008	CUE_6_DOT	n/a	n/a	n/a
157.044	1.008	FIXCROSS	n/a	n/a	n/a
158.06	5.009	6_DOT_DETECTION	A#ŁAP	1	n/a
159.736	n/a	RESPONSE	n/a	n/a	1/1
163.094	1.008	FIXCROSS	n/a	n/a	n/a
164.111	5.008	6_DOT_DETECTION	TYŁ##	2	n/a
166.856	n/a	RESPONSE	n/a	n/a	1/2
168.32	n/a	RESPONSE	n/a	n/a	2/2
169.144	1.008	FIXCROSS	n/a	n/a	n/a
170.161	5.008	6_DOT_DETECTION	TOK##	2	n/a
172.776	n/a	RESPONSE	n/a	n/a	1/2
173.96	n/a	RESPONSE	n/a	n/a	2/2
175.194	1.008	FIXCROSS	n/a	n/a	n/a
176.211	5.008	6_DOT_DETECTION	DBA#C	1	n/a
178.576	n/a	RESPONSE	n/a	n/a	1/1
181.244	1.008	FIXCROSS	n/a	n/a	n/a
182.261	5.008	6_DOT_DETECTION	KTIŁŁ	0	n/a
187.294	1.008	FIXCROSS	n/a	n/a	n/a
188.311	5.008	6_DOT_DETECTION	BLCLK	0	n/a
193.344	1.008	FIXCROSS	n/a	n/a	n/a
194.361	5.008	6_DOT_DETECTION	ESY##	2	n/a
197.68	n/a	RESPONSE	n/a	n/a	1/2
198.336	n/a	RESPONSE	n/a	n/a	2/2
199.394	1.008	FIXCROSS	n/a	n/a	n/a
200.411	5.008	6_DOT_DETECTION	STO#E	1	n/a
203.12	n/a	RESPONSE	n/a	n/a	1/1
206.952	2.008	CUE_REST	n/a	n/a	n/a
211.453	1.008	FIXCROSS	n/a	n/a	n/a
217.503	1.008	FIXCROSS	n/a	n/a	n/a
225.561	2.008	CUE_6_DOT	n/a	n/a	n/a
231.561	1.008	FIXCROSS	n/a	n/a	n/a
232.578	5.008	6_DOT_DETECTION	#ULE#	2	n/a
233.76	n/a	RESPONSE	n/a	n/a	1/2
236.616	n/a	RESPONSE	n/a	n/a	2/2
237.611	1.008	FIXCROSS	n/a	n/a	n/a
238.628	5.008	6_DOT_DETECTION	#SAD#	2	n/a
239.8	n/a	RESPONSE	n/a	n/a	1/2
242.256	n/a	RESPONSE	n/a	n/a	2/2
243.661	1.008	FIXCROSS	n/a	n/a	n/a
244.678	5.008	6_DOT_DETECTION	AŁDLK	0	n/a
249.711	1.008	FIXCROSS	n/a	n/a	n/a
250.727	5.009	6_DOT_DETECTION	##PYŁ	2	n/a
251.96	n/a	RESPONSE	n/a	n/a	1/2
255.761	1.008	FIXCROSS	n/a	n/a	n/a
256.778	5.008	6_DOT_DETECTION	ŁPPTY	0	n/a
261.811	1.008	FIXCROSS	n/a	n/a	n/a
262.828	5.008	6_DOT_DETECTION	ŁY#SE	1	n/a
266.336	n/a	RESPONSE	n/a	n/a	1/1
267.861	1.008	FIXCROSS	n/a	n/a	n/a
268.878	5.008	6_DOT_DETECTION	CIKUE	0	n/a
273.911	1.008	FIXCROSS	n/a	n/a	n/a
274.928	5.008	6_DOT_DETECTION	P#ŁUY	1	n/a
276.736	n/a	RESPONSE	n/a	n/a	1/1
279.216	n/a	RESPONSE	n/a	n/a	2/1
281.97	2.008	CUE_REST	n/a	n/a	n/a
285.97	1.008	FIXCROSS	n/a	n/a	n/a
292.02	1.008	FIXCROSS	n/a	n/a	n/a
299.578	2.008	CUE_6_DOT	n/a	n/a	n/a
305.078	1.008	FIXCROSS	n/a	n/a	n/a
306.095	5.008	6_DOT_DETECTION	LLACB	0	n/a
311.128	1.008	FIXCROSS	n/a	n/a	n/a
312.145	5.008	6_DOT_DETECTION	OAICU	0	n/a
317.178	1.008	FIXCROSS	n/a	n/a	n/a
318.195	5.008	6_DOT_DETECTION	#MIS#	2	n/a
319.496	n/a	RESPONSE	n/a	n/a	1/2
321.656	n/a	RESPONSE	n/a	n/a	2/2
323.228	1.008	FIXCROSS	n/a	n/a	n/a
324.244	5.009	6_DOT_DETECTION	ŁCDCA	0	n/a
329.278	1.008	FIXCROSS	n/a	n/a	n/a
330.295	5.008	6_DOT_DETECTION	Y#LEK	1	n/a
332.496	n/a	RESPONSE	n/a	n/a	1/1
335.328	1.008	FIXCROSS	n/a	n/a	n/a
336.345	5.008	6_DOT_DETECTION	TAK#P	1	n/a
338.512	n/a	RESPONSE	n/a	n/a	1/1
341.378	1.008	FIXCROSS	n/a	n/a	n/a
342.395	5.008	6_DOT_DETECTION	LSC##	2	n/a
344.792	n/a	RESPONSE	n/a	n/a	1/2
346.456	n/a	RESPONSE	n/a	n/a	2/2
347.428	1.008	FIXCROSS	n/a	n/a	n/a
348.445	5.008	6_DOT_DETECTION	BSEBL	0	n/a
354.486	2.008	CUE_REST	n/a	n/a	n/a
360.486	1.008	FIXCROSS	n/a	n/a	n/a
366.536	1.008	FIXCROSS	n/a	n/a	n/a
373.595	2.008	CUE_6_DOT	n/a	n/a	n/a
378.595	1.008	FIXCROSS	n/a	n/a	n/a
379.612	5.008	6_DOT_DETECTION	#DAT#	2	n/a
380.712	n/a	RESPONSE	n/a	n/a	1/2
383.312	n/a	RESPONSE	n/a	n/a	2/2
384.645	1.008	FIXCROSS	n/a	n/a	n/a
385.661	5.009	6_DOT_DETECTION	YEAAK	0	n/a
390.695	1.008	FIXCROSS	n/a	n/a	n/a
391.712	5.008	6_DOT_DETECTION	##IEY	2	n/a
392.736	n/a	RESPONSE	n/a	n/a	1/2
396.745	1.008	FIXCROSS	n/a	n/a	n/a
397.762	5.008	6_DOT_DETECTION	SOK#Ł	1	n/a
400.392	n/a	RESPONSE	n/a	n/a	1/1
402.795	1.008	FIXCROSS	n/a	n/a	n/a
403.812	5.008	6_DOT_DETECTION	##MAK	2	n/a
405.176	n/a	RESPONSE	n/a	n/a	1/2
408.845	1.008	FIXCROSS	n/a	n/a	n/a
409.861	5.009	6_DOT_DETECTION	OYŁ#Ł	1	n/a
413.136	n/a	RESPONSE	n/a	n/a	1/1
414.895	1.008	FIXCROSS	n/a	n/a	n/a
415.912	5.008	6_DOT_DETECTION	##POP	2	n/a
416.792	n/a	RESPONSE	n/a	n/a	1/2
420.945	1.008	FIXCROSS	n/a	n/a	n/a
421.962	5.008	6_DOT_DETECTION	ŁSCPT	0	n/a
428.003	2.008	CUE_REST	n/a	n/a	n/a
435.003	1.008	FIXCROSS	n/a	n/a	n/a
441.053	1.008	FIXCROSS	n/a	n/a	n/a
