onset	duration	trial_type	trial_number	stroop_condition	stim_text(PL)	stim_text(eng)	stim_color(PL)	stim_color(eng)	response_type	response_color
0.0	n/a	RESPONSE	n/a	n/a	n/a	n/a	n/a	n/a	n/a	green
35.71	n/a	RESPONSE	n/a	n/a	n/a	n/a	n/a	n/a	n/a	n/a
35.7758	1.0167	ITI	n/a	n/a	n/a	n/a	n/a	n/a	n/a	n/a
36.7924	0.5167	FIXCROSS	n/a	n/a	n/a	n/a	n/a	n/a	n/a	n/a
37.3091	0.8833	T_INK	1	Incongruent	niebieski	blue	czerwony	red	hit	n/a
38.1707	n/a	RESPONSE	n/a	n/a	n/a	n/a	n/a	n/a	n/a	red
38.1924	0.5167	FEEDBACK	n/a	n/a	n/a	n/a	n/a	n/a	n/a	n/a
38.7091	1.0167	ITI	n/a	n/a	n/a	n/a	n/a	n/a	n/a	n/a
39.7258	0.5167	FIXCROSS	n/a	n/a	n/a	n/a	n/a	n/a	n/a	n/a
40.2424	2.25	T_INK	2	Neutral	xxxxx	xxxxx	czerwony	red	hit	n/a
42.4527	n/a	RESPONSE	n/a	n/a	n/a	n/a	n/a	n/a	n/a	red
42.4925	0.5167	FEEDBACK	n/a	n/a	n/a	n/a	n/a	n/a	n/a	n/a
43.0091	1.0167	ITI	n/a	n/a	n/a	n/a	n/a	n/a	n/a	n/a
44.0258	0.5167	FIXCROSS	n/a	n/a	n/a	n/a	n/a	n/a	n/a	n/a
44.5425	0.95	T_INK	3	Neutral	xxxxxxxx	xxxxxxxx	niebieski	blue	hit	n/a
45.4565	n/a	RESPONSE	n/a	n/a	n/a	n/a	n/a	n/a	n/a	blue
45.4925	0.5167	FEEDBACK	n/a	n/a	n/a	n/a	n/a	n/a	n/a	n/a
46.0092	1.0167	ITI	n/a	n/a	n/a	n/a	n/a	n/a	n/a	n/a
47.0258	0.5167	FIXCROSS	n/a	n/a	n/a	n/a	n/a	n/a	n/a	n/a
47.5425	0.7833	T_INK	4	Incongruent	niebieski	blue	zielony	green	hit	n/a
48.3006	n/a	RESPONSE	n/a	n/a	n/a	n/a	n/a	n/a	n/a	green
48.3259	0.5167	FEEDBACK	n/a	n/a	n/a	n/a	n/a	n/a	n/a	n/a
48.8425	1.0167	ITI	n/a	n/a	n/a	n/a	n/a	n/a	n/a	n/a
49.8592	0.5167	FIXCROSS	n/a	n/a	n/a	n/a	n/a	n/a	n/a	n/a
50.3759	0.5833	T_INK	5	Neutral	xxxxxxxxx	xxxxxxxxx	zielony	green	hit	n/a
50.9369	n/a	RESPONSE	n/a	n/a	n/a	n/a	n/a	n/a	n/a	green
50.9592	0.5167	FEEDBACK	n/a	n/a	n/a	n/a	n/a	n/a	n/a	n/a
51.4759	1.0167	ITI	n/a	n/a	n/a	n/a	n/a	n/a	n/a	n/a
52.4926	0.5167	FIXCROSS	n/a	n/a	n/a	n/a	n/a	n/a	n/a	n/a
53.0092	0.65	T_INK	6	Incongruent	czerwony	red	żółty	yellow	hit	n/a
53.6372	n/a	RESPONSE	n/a	n/a	n/a	n/a	n/a	n/a	n/a	yellow
53.6592	0.5167	FEEDBACK	n/a	n/a	n/a	n/a	n/a	n/a	n/a	n/a
54.1759	1.0167	ITI	n/a	n/a	n/a	n/a	n/a	n/a	n/a	n/a
55.1926	0.5167	FIXCROSS	n/a	n/a	n/a	n/a	n/a	n/a	n/a	n/a
55.7092	0.8167	T_INK	7	Incongruent	zielony	green	żółty	yellow	incorrect	n/a
56.4973	n/a	RESPONSE	n/a	n/a	n/a	n/a	n/a	n/a	n/a	green
56.5259	0.5167	FEEDBACK	n/a	n/a	n/a	n/a	n/a	n/a	n/a	n/a
57.0426	1.0167	ITI	n/a	n/a	n/a	n/a	n/a	n/a	n/a	n/a
58.0593	0.5167	FIXCROSS	n/a	n/a	n/a	n/a	n/a	n/a	n/a	n/a
58.5759	0.65	T_INK	8	Neutral	xxxxxxxx	xxxxxxxx	zielony	green	hit	n/a
59.1975	n/a	RESPONSE	n/a	n/a	n/a	n/a	n/a	n/a	n/a	green
59.2259	0.5167	FEEDBACK	n/a	n/a	n/a	n/a	n/a	n/a	n/a	n/a
59.7426	1.0167	ITI	n/a	n/a	n/a	n/a	n/a	n/a	n/a	n/a
60.7593	0.5167	FIXCROSS	n/a	n/a	n/a	n/a	n/a	n/a	n/a	n/a
61.276	0.65	T_INK	9	Neutral	xxxxxxxxx	xxxxxxxxx	czerwony	red	hit	n/a
61.8977	n/a	RESPONSE	n/a	n/a	n/a	n/a	n/a	n/a	n/a	red
61.926	0.5167	FEEDBACK	n/a	n/a	n/a	n/a	n/a	n/a	n/a	n/a
62.4426	1.0167	ITI	n/a	n/a	n/a	n/a	n/a	n/a	n/a	n/a
63.4593	0.5167	FIXCROSS	n/a	n/a	n/a	n/a	n/a	n/a	n/a	n/a
63.976	0.7167	T_INK	10	Neutral	xxxxxxxx	xxxxxxxx	żółty	yellow	incorrect	n/a
64.6619	n/a	RESPONSE	n/a	n/a	n/a	n/a	n/a	n/a	n/a	green
64.6926	0.5167	FEEDBACK	n/a	n/a	n/a	n/a	n/a	n/a	n/a	n/a
65.2093	1.0167	ITI	n/a	n/a	n/a	n/a	n/a	n/a	n/a	n/a
66.226	0.5167	FIXCROSS	n/a	n/a	n/a	n/a	n/a	n/a	n/a	n/a
66.7427	0.8333	T_INK	11	Incongruent	zielony	green	niebieski	blue	hit	n/a
67.5539	n/a	RESPONSE	n/a	n/a	n/a	n/a	n/a	n/a	n/a	blue
67.576	0.5167	FEEDBACK	n/a	n/a	n/a	n/a	n/a	n/a	n/a	n/a
68.0927	1.0167	ITI	n/a	n/a	n/a	n/a	n/a	n/a	n/a	n/a
69.1093	0.5167	FIXCROSS	n/a	n/a	n/a	n/a	n/a	n/a	n/a	n/a
69.626	0.8834	T_INK	12	Neutral	xxxxx	xxxxx	niebieski	blue	hit	n/a
70.4779	n/a	RESPONSE	n/a	n/a	n/a	n/a	n/a	n/a	n/a	blue
70.5094	0.5167	FEEDBACK	n/a	n/a	n/a	n/a	n/a	n/a	n/a	n/a
71.026	1.0333	ITI	n/a	n/a	n/a	n/a	n/a	n/a	n/a	n/a
85.9126	n/a	RESPONSE	n/a	n/a	n/a	n/a	n/a	n/a	n/a	n/a
85.9761	1.0167	ITI	n/a	n/a	n/a	n/a	n/a	n/a	n/a	n/a
86.9928	0.5167	FIXCROSS	n/a	n/a	n/a	n/a	n/a	n/a	n/a	n/a
87.5095	0.75	INK	1	Incongruent	niebieski	blue	żółty	yellow	hit	n/a
88.2294	n/a	RESPONSE	n/a	n/a	n/a	n/a	n/a	n/a	n/a	yellow
88.2595	1.0167	ITI	n/a	n/a	n/a	n/a	n/a	n/a	n/a	n/a
89.2762	0.5167	FIXCROSS	n/a	n/a	n/a	n/a	n/a	n/a	n/a	n/a
89.7929	0.65	INK	2	Incongruent	niebieski	blue	żółty	yellow	hit	n/a
90.4184	n/a	RESPONSE	n/a	n/a	n/a	n/a	n/a	n/a	n/a	yellow
90.4429	1.0167	ITI	n/a	n/a	n/a	n/a	n/a	n/a	n/a	n/a
91.4595	0.5167	FIXCROSS	n/a	n/a	n/a	n/a	n/a	n/a	n/a	n/a
91.9762	0.6833	INK	3	Incongruent	niebieski	blue	czerwony	red	hit	n/a
92.6393	n/a	RESPONSE	n/a	n/a	n/a	n/a	n/a	n/a	n/a	red
92.6595	1.0167	ITI	n/a	n/a	n/a	n/a	n/a	n/a	n/a	n/a
93.6762	0.5167	FIXCROSS	n/a	n/a	n/a	n/a	n/a	n/a	n/a	n/a
94.1929	0.7167	INK	4	Incongruent	żółty	yellow	zielony	green	hit	n/a
94.8922	n/a	RESPONSE	n/a	n/a	n/a	n/a	n/a	n/a	n/a	green
94.9096	1.0167	ITI	n/a	n/a	n/a	n/a	n/a	n/a	n/a	n/a
95.9262	0.5167	FIXCROSS	n/a	n/a	n/a	n/a	n/a	n/a	n/a	n/a
96.4429	0.7	INK	5	Neutral	xxxxxxxxx	xxxxxxxxx	czerwony	red	hit	n/a
97.1132	n/a	RESPONSE	n/a	n/a	n/a	n/a	n/a	n/a	n/a	red
97.1429	1.0167	ITI	n/a	n/a	n/a	n/a	n/a	n/a	n/a	n/a
98.1596	0.5167	FIXCROSS	n/a	n/a	n/a	n/a	n/a	n/a	n/a	n/a
98.6763	0.7333	INK	6	Incongruent	zielony	green	żółty	yellow	hit	n/a
99.382	n/a	RESPONSE	n/a	n/a	n/a	n/a	n/a	n/a	n/a	yellow
99.4096	1.0167	ITI	n/a	n/a	n/a	n/a	n/a	n/a	n/a	n/a
100.4263	0.5167	FIXCROSS	n/a	n/a	n/a	n/a	n/a	n/a	n/a	n/a
100.9429	0.5667	INK	7	Neutral	xxxxxxx	xxxxxxx	żółty	yellow	hit	n/a
101.4911	n/a	RESPONSE	n/a	n/a	n/a	n/a	n/a	n/a	n/a	yellow
101.5096	1.0167	ITI	n/a	n/a	n/a	n/a	n/a	n/a	n/a	n/a
102.5263	0.5167	FIXCROSS	n/a	n/a	n/a	n/a	n/a	n/a	n/a	n/a
103.043	0.45	INK	8	Neutral	xxxxxxx	xxxxxxx	żółty	yellow	hit	n/a
103.4724	n/a	RESPONSE	n/a	n/a	n/a	n/a	n/a	n/a	n/a	yellow
103.493	1.0167	ITI	n/a	n/a	n/a	n/a	n/a	n/a	n/a	n/a
104.5096	0.5167	FIXCROSS	n/a	n/a	n/a	n/a	n/a	n/a	n/a	n/a
105.0263	0.6167	INK	9	Neutral	xxxxx	xxxxx	czerwony	red	hit	n/a
105.6135	n/a	RESPONSE	n/a	n/a	n/a	n/a	n/a	n/a	n/a	red
105.643	1.0167	ITI	n/a	n/a	n/a	n/a	n/a	n/a	n/a	n/a
106.6597	0.5167	FIXCROSS	n/a	n/a	n/a	n/a	n/a	n/a	n/a	n/a
107.1763	0.6167	INK	10	Incongruent	czerwony	red	niebieski	blue	hit	n/a
107.7704	n/a	RESPONSE	n/a	n/a	n/a	n/a	n/a	n/a	n/a	blue
107.793	1.0167	ITI	n/a	n/a	n/a	n/a	n/a	n/a	n/a	n/a
108.8097	0.5167	FIXCROSS	n/a	n/a	n/a	n/a	n/a	n/a	n/a	n/a
109.3263	0.6333	INK	11	Incongruent	zielony	green	czerwony	red	hit	n/a
109.9275	n/a	RESPONSE	n/a	n/a	n/a	n/a	n/a	n/a	n/a	red
109.9597	1.0167	ITI	n/a	n/a	n/a	n/a	n/a	n/a	n/a	n/a
110.9764	0.5167	FIXCROSS	n/a	n/a	n/a	n/a	n/a	n/a	n/a	n/a
111.493	0.6167	INK	12	Incongruent	czerwony	red	żółty	yellow	hit	n/a
112.0845	n/a	RESPONSE	n/a	n/a	n/a	n/a	n/a	n/a	n/a	yellow
112.1097	1.0167	ITI	n/a	n/a	n/a	n/a	n/a	n/a	n/a	n/a
113.1264	0.5167	FIXCROSS	n/a	n/a	n/a	n/a	n/a	n/a	n/a	n/a
113.643	0.5	INK	13	Neutral	xxxxx	xxxxx	zielony	green	hit	n/a
114.1139	n/a	RESPONSE	n/a	n/a	n/a	n/a	n/a	n/a	n/a	green
114.143	1.0167	ITI	n/a	n/a	n/a	n/a	n/a	n/a	n/a	n/a
115.1597	0.5167	FIXCROSS	n/a	n/a	n/a	n/a	n/a	n/a	n/a	n/a
115.6764	0.5667	INK	14	Neutral	xxxxxxxxx	xxxxxxxxx	czerwony	red	hit	n/a
116.223	n/a	RESPONSE	n/a	n/a	n/a	n/a	n/a	n/a	n/a	red
116.2431	1.0167	ITI	n/a	n/a	n/a	n/a	n/a	n/a	n/a	n/a
117.2597	0.5167	FIXCROSS	n/a	n/a	n/a	n/a	n/a	n/a	n/a	n/a
117.7764	0.7167	INK	15	Neutral	xxxxxxxx	xxxxxxxx	zielony	green	hit	n/a
118.4758	n/a	RESPONSE	n/a	n/a	n/a	n/a	n/a	n/a	n/a	green
118.4931	1.0167	ITI	n/a	n/a	n/a	n/a	n/a	n/a	n/a	n/a
119.5098	0.5167	FIXCROSS	n/a	n/a	n/a	n/a	n/a	n/a	n/a	n/a
120.0264	0.6833	INK	16	Neutral	xxxxxxxx	xxxxxxxx	żółty	yellow	hit	n/a
120.6808	n/a	RESPONSE	n/a	n/a	n/a	n/a	n/a	n/a	n/a	yellow
120.7098	1.0167	ITI	n/a	n/a	n/a	n/a	n/a	n/a	n/a	n/a
121.7264	0.5167	FIXCROSS	n/a	n/a	n/a	n/a	n/a	n/a	n/a	n/a
122.2431	0.7167	INK	17	Neutral	xxxxxxx	xxxxxxx	czerwony	red	hit	n/a
122.9338	n/a	RESPONSE	n/a	n/a	n/a	n/a	n/a	n/a	n/a	red
122.9598	1.0167	ITI	n/a	n/a	n/a	n/a	n/a	n/a	n/a	n/a
123.9765	0.5167	FIXCROSS	n/a	n/a	n/a	n/a	n/a	n/a	n/a	n/a
124.4931	0.75	INK	18	Neutral	xxxxxxxx	xxxxxxxx	zielony	green	hit	n/a
125.2186	n/a	RESPONSE	n/a	n/a	n/a	n/a	n/a	n/a	n/a	green
125.2431	1.0167	ITI	n/a	n/a	n/a	n/a	n/a	n/a	n/a	n/a
126.2598	0.5167	FIXCROSS	n/a	n/a	n/a	n/a	n/a	n/a	n/a	n/a
126.7765	0.7333	INK	19	Incongruent	niebieski	blue	zielony	green	hit	n/a
127.4875	n/a	RESPONSE	n/a	n/a	n/a	n/a	n/a	n/a	n/a	green
127.5098	1.0167	ITI	n/a	n/a	n/a	n/a	n/a	n/a	n/a	n/a
128.5265	0.5167	FIXCROSS	n/a	n/a	n/a	n/a	n/a	n/a	n/a	n/a
129.0432	0.65	INK	20	Incongruent	czerwony	red	zielony	green	hit	n/a
129.6604	n/a	RESPONSE	n/a	n/a	n/a	n/a	n/a	n/a	n/a	green
129.6932	1.0167	ITI	n/a	n/a	n/a	n/a	n/a	n/a	n/a	n/a
130.7099	0.5167	FIXCROSS	n/a	n/a	n/a	n/a	n/a	n/a	n/a	n/a
131.2265	0.7667	INK	21	Incongruent	żółty	yellow	zielony	green	hit	n/a
131.9613	n/a	RESPONSE	n/a	n/a	n/a	n/a	n/a	n/a	n/a	green
131.9932	1.0167	ITI	n/a	n/a	n/a	n/a	n/a	n/a	n/a	n/a
133.0099	0.5167	FIXCROSS	n/a	n/a	n/a	n/a	n/a	n/a	n/a	n/a
133.5265	0.7333	INK	22	Neutral	xxxxxxx	xxxxxxx	niebieski	blue	hit	n/a
134.2303	n/a	RESPONSE	n/a	n/a	n/a	n/a	n/a	n/a	n/a	blue
134.2599	1.0167	ITI	n/a	n/a	n/a	n/a	n/a	n/a	n/a	n/a
135.2766	0.5167	FIXCROSS	n/a	n/a	n/a	n/a	n/a	n/a	n/a	n/a
135.7932	0.75	INK	23	Neutral	xxxxxxxx	xxxxxxxx	żółty	yellow	hit	n/a
136.5151	n/a	RESPONSE	n/a	n/a	n/a	n/a	n/a	n/a	n/a	yellow
136.5432	1.0167	ITI	n/a	n/a	n/a	n/a	n/a	n/a	n/a	n/a
137.5599	0.5167	FIXCROSS	n/a	n/a	n/a	n/a	n/a	n/a	n/a	n/a
138.0766	0.75	INK	24	Incongruent	żółty	yellow	czerwony	red	hit	n/a
138.8	n/a	RESPONSE	n/a	n/a	n/a	n/a	n/a	n/a	n/a	red
138.8266	1.0167	ITI	n/a	n/a	n/a	n/a	n/a	n/a	n/a	n/a
139.8432	0.5167	FIXCROSS	n/a	n/a	n/a	n/a	n/a	n/a	n/a	n/a
140.3599	0.7333	INK	25	Incongruent	niebieski	blue	czerwony	red	hit	n/a
141.0689	n/a	RESPONSE	n/a	n/a	n/a	n/a	n/a	n/a	n/a	red
141.0933	1.0167	ITI	n/a	n/a	n/a	n/a	n/a	n/a	n/a	n/a
142.1099	0.5167	FIXCROSS	n/a	n/a	n/a	n/a	n/a	n/a	n/a	n/a
142.6266	0.5833	INK	26	Neutral	xxxxxxx	xxxxxxx	czerwony	red	hit	n/a
143.178	n/a	RESPONSE	n/a	n/a	n/a	n/a	n/a	n/a	n/a	red
143.2099	1.0167	ITI	n/a	n/a	n/a	n/a	n/a	n/a	n/a	n/a
144.2266	0.5167	FIXCROSS	n/a	n/a	n/a	n/a	n/a	n/a	n/a	n/a
144.7433	0.6833	INK	27	Incongruent	żółty	yellow	niebieski	blue	hit	n/a
145.399	n/a	RESPONSE	n/a	n/a	n/a	n/a	n/a	n/a	n/a	blue
145.4266	1.0167	ITI	n/a	n/a	n/a	n/a	n/a	n/a	n/a	n/a
146.4433	0.5167	FIXCROSS	n/a	n/a	n/a	n/a	n/a	n/a	n/a	n/a
146.96	0.55	INK	28	Neutral	xxxxxxxx	xxxxxxxx	niebieski	blue	hit	n/a
147.4921	n/a	RESPONSE	n/a	n/a	n/a	n/a	n/a	n/a	n/a	blue
147.51	1.0167	ITI	n/a	n/a	n/a	n/a	n/a	n/a	n/a	n/a
148.5267	0.5167	FIXCROSS	n/a	n/a	n/a	n/a	n/a	n/a	n/a	n/a
149.0433	0.7	INK	29	Incongruent	zielony	green	niebieski	blue	hit	n/a
149.7131	n/a	RESPONSE	n/a	n/a	n/a	n/a	n/a	n/a	n/a	blue
149.7433	1.0167	ITI	n/a	n/a	n/a	n/a	n/a	n/a	n/a	n/a
150.76	0.5167	FIXCROSS	n/a	n/a	n/a	n/a	n/a	n/a	n/a	n/a
151.2767	0.7833	INK	30	Incongruent	zielony	green	czerwony	red	hit	n/a
152.0299	n/a	RESPONSE	n/a	n/a	n/a	n/a	n/a	n/a	n/a	red
152.06	1.0167	ITI	n/a	n/a	n/a	n/a	n/a	n/a	n/a	n/a
153.0767	0.5167	FIXCROSS	n/a	n/a	n/a	n/a	n/a	n/a	n/a	n/a
153.5934	0.7833	INK	31	Neutral	xxxxxxx	xxxxxxx	czerwony	red	hit	n/a
154.3468	n/a	RESPONSE	n/a	n/a	n/a	n/a	n/a	n/a	n/a	red
154.3767	1.0167	ITI	n/a	n/a	n/a	n/a	n/a	n/a	n/a	n/a
155.3934	0.5167	FIXCROSS	n/a	n/a	n/a	n/a	n/a	n/a	n/a	n/a
155.91	0.7667	INK	32	Incongruent	zielony	green	niebieski	blue	hit	n/a
156.6476	n/a	RESPONSE	n/a	n/a	n/a	n/a	n/a	n/a	n/a	blue
156.6767	1.0167	ITI	n/a	n/a	n/a	n/a	n/a	n/a	n/a	n/a
157.6934	0.5167	FIXCROSS	n/a	n/a	n/a	n/a	n/a	n/a	n/a	n/a
158.2101	0.5833	INK	33	Incongruent	czerwony	red	niebieski	blue	hit	n/a
158.7567	n/a	RESPONSE	n/a	n/a	n/a	n/a	n/a	n/a	n/a	blue
158.7934	1.0167	ITI	n/a	n/a	n/a	n/a	n/a	n/a	n/a	n/a
159.8101	0.5167	FIXCROSS	n/a	n/a	n/a	n/a	n/a	n/a	n/a	n/a
160.3268	0.7167	INK	34	Neutral	xxxxx	xxxxx	zielony	green	hit	n/a
161.0257	n/a	RESPONSE	n/a	n/a	n/a	n/a	n/a	n/a	n/a	green
161.0434	1.0167	ITI	n/a	n/a	n/a	n/a	n/a	n/a	n/a	n/a
162.0601	0.5167	FIXCROSS	n/a	n/a	n/a	n/a	n/a	n/a	n/a	n/a
162.5768	0.75	INK	35	Incongruent	niebieski	blue	żółty	yellow	hit	n/a
163.2946	n/a	RESPONSE	n/a	n/a	n/a	n/a	n/a	n/a	n/a	yellow
163.3268	1.0167	ITI	n/a	n/a	n/a	n/a	n/a	n/a	n/a	n/a
164.3434	0.5167	FIXCROSS	n/a	n/a	n/a	n/a	n/a	n/a	n/a	n/a
164.8601	0.8167	INK	36	Neutral	xxxxxxxxx	xxxxxxxxx	zielony	green	hit	n/a
165.6434	n/a	RESPONSE	n/a	n/a	n/a	n/a	n/a	n/a	n/a	green
165.6768	1.0167	ITI	n/a	n/a	n/a	n/a	n/a	n/a	n/a	n/a
166.6935	0.5167	FIXCROSS	n/a	n/a	n/a	n/a	n/a	n/a	n/a	n/a
167.2101	0.8	INK	37	Incongruent	zielony	green	żółty	yellow	hit	n/a
167.9763	n/a	RESPONSE	n/a	n/a	n/a	n/a	n/a	n/a	n/a	yellow
168.0101	1.0167	ITI	n/a	n/a	n/a	n/a	n/a	n/a	n/a	n/a
169.0268	0.5167	FIXCROSS	n/a	n/a	n/a	n/a	n/a	n/a	n/a	n/a
169.5435	0.7667	INK	38	Incongruent	niebieski	blue	czerwony	red	hit	n/a
170.2771	n/a	RESPONSE	n/a	n/a	n/a	n/a	n/a	n/a	n/a	red
170.3102	1.0167	ITI	n/a	n/a	n/a	n/a	n/a	n/a	n/a	n/a
171.3268	0.5167	FIXCROSS	n/a	n/a	n/a	n/a	n/a	n/a	n/a	n/a
171.8435	0.8333	INK	39	Incongruent	żółty	yellow	niebieski	blue	hit	n/a
172.6578	n/a	RESPONSE	n/a	n/a	n/a	n/a	n/a	n/a	n/a	blue
172.6768	1.0167	ITI	n/a	n/a	n/a	n/a	n/a	n/a	n/a	n/a
173.6935	0.5167	FIXCROSS	n/a	n/a	n/a	n/a	n/a	n/a	n/a	n/a
174.2102	0.8833	INK	40	Incongruent	zielony	green	żółty	yellow	hit	n/a
175.0706	n/a	RESPONSE	n/a	n/a	n/a	n/a	n/a	n/a	n/a	yellow
175.0935	1.0167	ITI	n/a	n/a	n/a	n/a	n/a	n/a	n/a	n/a
176.1102	0.5167	FIXCROSS	n/a	n/a	n/a	n/a	n/a	n/a	n/a	n/a
176.6269	0.7667	INK	41	Neutral	xxxxx	xxxxx	niebieski	blue	hit	n/a
177.3714	n/a	RESPONSE	n/a	n/a	n/a	n/a	n/a	n/a	n/a	blue
177.3935	1.0167	ITI	n/a	n/a	n/a	n/a	n/a	n/a	n/a	n/a
178.4102	0.5167	FIXCROSS	n/a	n/a	n/a	n/a	n/a	n/a	n/a	n/a
178.9269	0.7667	INK	42	Neutral	xxxxx	xxxxx	zielony	green	hit	n/a
179.6723	n/a	RESPONSE	n/a	n/a	n/a	n/a	n/a	n/a	n/a	green
179.6936	1.0167	ITI	n/a	n/a	n/a	n/a	n/a	n/a	n/a	n/a
180.7102	0.5167	FIXCROSS	n/a	n/a	n/a	n/a	n/a	n/a	n/a	n/a
181.2269	0.8	INK	43	Incongruent	czerwony	red	żółty	yellow	hit	n/a
182.0051	n/a	RESPONSE	n/a	n/a	n/a	n/a	n/a	n/a	n/a	yellow
182.0269	1.0167	ITI	n/a	n/a	n/a	n/a	n/a	n/a	n/a	n/a
183.0436	0.5167	FIXCROSS	n/a	n/a	n/a	n/a	n/a	n/a	n/a	n/a
183.5603	0.9667	INK	44	Neutral	xxxxxxxx	xxxxxxxx	zielony	green	hit	n/a
184.4978	n/a	RESPONSE	n/a	n/a	n/a	n/a	n/a	n/a	n/a	green
184.5269	1.0167	ITI	n/a	n/a	n/a	n/a	n/a	n/a	n/a	n/a
185.5436	0.5167	FIXCROSS	n/a	n/a	n/a	n/a	n/a	n/a	n/a	n/a
186.0603	0.7667	INK	45	Incongruent	czerwony	red	zielony	green	hit	n/a
186.7987	n/a	RESPONSE	n/a	n/a	n/a	n/a	n/a	n/a	n/a	green
186.827	1.0167	ITI	n/a	n/a	n/a	n/a	n/a	n/a	n/a	n/a
187.8436	0.5167	FIXCROSS	n/a	n/a	n/a	n/a	n/a	n/a	n/a	n/a
188.3603	0.7333	INK	46	Incongruent	zielony	green	czerwony	red	hit	n/a
189.0675	n/a	RESPONSE	n/a	n/a	n/a	n/a	n/a	n/a	n/a	red
189.0936	1.0167	ITI	n/a	n/a	n/a	n/a	n/a	n/a	n/a	n/a
190.1103	0.5167	FIXCROSS	n/a	n/a	n/a	n/a	n/a	n/a	n/a	n/a
190.627	0.6	INK	47	Neutral	xxxxx	xxxxx	czerwony	red	hit	n/a
191.2088	n/a	RESPONSE	n/a	n/a	n/a	n/a	n/a	n/a	n/a	red
191.227	1.0167	ITI	n/a	n/a	n/a	n/a	n/a	n/a	n/a	n/a
192.2437	0.5167	FIXCROSS	n/a	n/a	n/a	n/a	n/a	n/a	n/a	n/a
192.7603	0.7	INK	48	Incongruent	zielony	green	niebieski	blue	hit	n/a
193.4297	n/a	RESPONSE	n/a	n/a	n/a	n/a	n/a	n/a	n/a	blue
193.4603	1.0167	ITI	n/a	n/a	n/a	n/a	n/a	n/a	n/a	n/a
194.477	0.5167	FIXCROSS	n/a	n/a	n/a	n/a	n/a	n/a	n/a	n/a
194.9937	0.75	INK	49	Neutral	xxxxxxxxx	xxxxxxxxx	żółty	yellow	hit	n/a
195.7146	n/a	RESPONSE	n/a	n/a	n/a	n/a	n/a	n/a	n/a	yellow
195.7437	1.0167	ITI	n/a	n/a	n/a	n/a	n/a	n/a	n/a	n/a
196.7604	0.5167	FIXCROSS	n/a	n/a	n/a	n/a	n/a	n/a	n/a	n/a
197.277	0.7833	INK	50	Neutral	xxxxxxxxx	xxxxxxxxx	zielony	green	hit	n/a
198.0314	n/a	RESPONSE	n/a	n/a	n/a	n/a	n/a	n/a	n/a	green
198.0604	1.0167	ITI	n/a	n/a	n/a	n/a	n/a	n/a	n/a	n/a
199.077	0.5167	FIXCROSS	n/a	n/a	n/a	n/a	n/a	n/a	n/a	n/a
199.5937	0.7333	INK	51	Neutral	xxxxxxxxx	xxxxxxxxx	żółty	yellow	hit	n/a
200.3004	n/a	RESPONSE	n/a	n/a	n/a	n/a	n/a	n/a	n/a	yellow
200.3271	1.0167	ITI	n/a	n/a	n/a	n/a	n/a	n/a	n/a	n/a
201.3437	0.5167	FIXCROSS	n/a	n/a	n/a	n/a	n/a	n/a	n/a	n/a
201.8604	0.6667	INK	52	Neutral	xxxxxxxxx	xxxxxxxxx	żółty	yellow	hit	n/a
202.5054	n/a	RESPONSE	n/a	n/a	n/a	n/a	n/a	n/a	n/a	yellow
202.5271	1.0167	ITI	n/a	n/a	n/a	n/a	n/a	n/a	n/a	n/a
203.5437	0.5167	FIXCROSS	n/a	n/a	n/a	n/a	n/a	n/a	n/a	n/a
204.0604	0.7833	INK	53	Incongruent	czerwony	red	niebieski	blue	hit	n/a
204.8222	n/a	RESPONSE	n/a	n/a	n/a	n/a	n/a	n/a	n/a	blue
204.8438	1.0167	ITI	n/a	n/a	n/a	n/a	n/a	n/a	n/a	n/a
205.8604	0.5167	FIXCROSS	n/a	n/a	n/a	n/a	n/a	n/a	n/a	n/a
206.3771	0.6167	INK	54	Neutral	xxxxx	xxxxx	niebieski	blue	hit	n/a
206.9633	n/a	RESPONSE	n/a	n/a	n/a	n/a	n/a	n/a	n/a	blue
206.9938	1.0167	ITI	n/a	n/a	n/a	n/a	n/a	n/a	n/a	n/a
208.0105	0.5167	FIXCROSS	n/a	n/a	n/a	n/a	n/a	n/a	n/a	n/a
208.5271	0.75	INK	55	Neutral	xxxxxxxx	xxxxxxxx	żółty	yellow	hit	n/a
209.2482	n/a	RESPONSE	n/a	n/a	n/a	n/a	n/a	n/a	n/a	yellow
209.2771	1.0167	ITI	n/a	n/a	n/a	n/a	n/a	n/a	n/a	n/a
210.2938	0.5167	FIXCROSS	n/a	n/a	n/a	n/a	n/a	n/a	n/a	n/a
210.8105	0.7	INK	56	Neutral	xxxxxxx	xxxxxxx	niebieski	blue	hit	n/a
211.485	n/a	RESPONSE	n/a	n/a	n/a	n/a	n/a	n/a	n/a	blue
211.5105	1.0167	ITI	n/a	n/a	n/a	n/a	n/a	n/a	n/a	n/a
212.5272	0.5167	FIXCROSS	n/a	n/a	n/a	n/a	n/a	n/a	n/a	n/a
213.0438	0.6833	INK	57	Incongruent	niebieski	blue	zielony	green	hit	n/a
213.706	n/a	RESPONSE	n/a	n/a	n/a	n/a	n/a	n/a	n/a	green
213.7272	1.0167	ITI	n/a	n/a	n/a	n/a	n/a	n/a	n/a	n/a
214.7438	0.5167	FIXCROSS	n/a	n/a	n/a	n/a	n/a	n/a	n/a	n/a
215.2605	0.6833	INK	58	Incongruent	czerwony	red	żółty	yellow	hit	n/a
215.911	n/a	RESPONSE	n/a	n/a	n/a	n/a	n/a	n/a	n/a	yellow
215.9438	1.0167	ITI	n/a	n/a	n/a	n/a	n/a	n/a	n/a	n/a
216.9605	0.5167	FIXCROSS	n/a	n/a	n/a	n/a	n/a	n/a	n/a	n/a
217.4772	0.8	INK	59	Neutral	xxxxx	xxxxx	niebieski	blue	hit	n/a
218.2438	n/a	RESPONSE	n/a	n/a	n/a	n/a	n/a	n/a	n/a	blue
218.2772	1.0167	ITI	n/a	n/a	n/a	n/a	n/a	n/a	n/a	n/a
218.4196	n/a	RESPONSE	n/a	n/a	n/a	n/a	n/a	n/a	n/a	blue
219.2939	0.5167	FIXCROSS	n/a	n/a	n/a	n/a	n/a	n/a	n/a	n/a
219.8105	0.8167	INK	60	Neutral	xxxxx	xxxxx	czerwony	red	hit	n/a
220.5927	n/a	RESPONSE	n/a	n/a	n/a	n/a	n/a	n/a	n/a	red
220.6272	1.0167	ITI	n/a	n/a	n/a	n/a	n/a	n/a	n/a	n/a
221.6439	0.5167	FIXCROSS	n/a	n/a	n/a	n/a	n/a	n/a	n/a	n/a
222.1606	0.5833	INK	61	Incongruent	żółty	yellow	czerwony	red	hit	n/a
222.7178	n/a	RESPONSE	n/a	n/a	n/a	n/a	n/a	n/a	n/a	red
222.7439	1.0167	ITI	n/a	n/a	n/a	n/a	n/a	n/a	n/a	n/a
223.7606	0.5167	FIXCROSS	n/a	n/a	n/a	n/a	n/a	n/a	n/a	n/a
224.2772	0.55	INK	62	Incongruent	żółty	yellow	czerwony	red	hit	n/a
224.7949	n/a	RESPONSE	n/a	n/a	n/a	n/a	n/a	n/a	n/a	red
224.8272	1.0167	ITI	n/a	n/a	n/a	n/a	n/a	n/a	n/a	n/a
225.8439	0.5167	FIXCROSS	n/a	n/a	n/a	n/a	n/a	n/a	n/a	n/a
226.3606	0.8667	INK	63	Neutral	xxxxxxxxx	xxxxxxxxx	zielony	green	hit	n/a
227.2077	n/a	RESPONSE	n/a	n/a	n/a	n/a	n/a	n/a	n/a	green
227.2273	1.0167	ITI	n/a	n/a	n/a	n/a	n/a	n/a	n/a	n/a
228.2439	0.5167	FIXCROSS	n/a	n/a	n/a	n/a	n/a	n/a	n/a	n/a
228.7606	0.6667	INK	64	Neutral	xxxxxxx	xxxxxxx	niebieski	blue	hit	n/a
229.3966	n/a	RESPONSE	n/a	n/a	n/a	n/a	n/a	n/a	n/a	blue
229.4273	1.0167	ITI	n/a	n/a	n/a	n/a	n/a	n/a	n/a	n/a
230.444	0.5167	FIXCROSS	n/a	n/a	n/a	n/a	n/a	n/a	n/a	n/a
230.9606	0.8167	INK	65	Incongruent	niebieski	blue	zielony	green	hit	n/a
231.7456	n/a	RESPONSE	n/a	n/a	n/a	n/a	n/a	n/a	n/a	green
231.7773	1.0167	ITI	n/a	n/a	n/a	n/a	n/a	n/a	n/a	n/a
232.794	0.5167	FIXCROSS	n/a	n/a	n/a	n/a	n/a	n/a	n/a	n/a
233.3106	0.9667	INK	66	Neutral	xxxxxxxx	xxxxxxxx	niebieski	blue	hit	n/a
234.254	n/a	RESPONSE	n/a	n/a	n/a	n/a	n/a	n/a	n/a	blue
234.2773	1.0167	ITI	n/a	n/a	n/a	n/a	n/a	n/a	n/a	n/a
235.294	0.5167	FIXCROSS	n/a	n/a	n/a	n/a	n/a	n/a	n/a	n/a
235.8107	0.6667	INK	67	Incongruent	żółty	yellow	niebieski	blue	hit	n/a
236.4591	n/a	RESPONSE	n/a	n/a	n/a	n/a	n/a	n/a	n/a	blue
236.4773	1.0167	ITI	n/a	n/a	n/a	n/a	n/a	n/a	n/a	n/a
236.6667	n/a	RESPONSE	n/a	n/a	n/a	n/a	n/a	n/a	n/a	blue
237.494	0.5167	FIXCROSS	n/a	n/a	n/a	n/a	n/a	n/a	n/a	n/a
238.0107	0.6167	INK	68	Neutral	xxxxxxxx	xxxxxxxx	niebieski	blue	hit	n/a
238.6002	n/a	RESPONSE	n/a	n/a	n/a	n/a	n/a	n/a	n/a	blue
238.6273	1.0167	ITI	n/a	n/a	n/a	n/a	n/a	n/a	n/a	n/a
239.644	0.5167	FIXCROSS	n/a	n/a	n/a	n/a	n/a	n/a	n/a	n/a
240.1607	0.7333	INK	69	Neutral	xxxxxxxxx	xxxxxxxxx	czerwony	red	hit	n/a
240.8691	n/a	RESPONSE	n/a	n/a	n/a	n/a	n/a	n/a	n/a	red
240.894	1.0167	ITI	n/a	n/a	n/a	n/a	n/a	n/a	n/a	n/a
241.9107	0.5167	FIXCROSS	n/a	n/a	n/a	n/a	n/a	n/a	n/a	n/a
242.4274	0.7833	INK	70	Incongruent	czerwony	red	zielony	green	hit	n/a
243.186	n/a	RESPONSE	n/a	n/a	n/a	n/a	n/a	n/a	n/a	green
243.2107	1.0167	ITI	n/a	n/a	n/a	n/a	n/a	n/a	n/a	n/a
244.2274	0.5167	FIXCROSS	n/a	n/a	n/a	n/a	n/a	n/a	n/a	n/a
244.7441	0.7333	INK	71	Incongruent	żółty	yellow	zielony	green	hit	n/a
245.4549	n/a	RESPONSE	n/a	n/a	n/a	n/a	n/a	n/a	n/a	green
245.4774	1.0167	ITI	n/a	n/a	n/a	n/a	n/a	n/a	n/a	n/a
246.4941	0.5167	FIXCROSS	n/a	n/a	n/a	n/a	n/a	n/a	n/a	n/a
247.0107	0.7	INK	72	Neutral	xxxxxxx	xxxxxxx	żółty	yellow	hit	n/a
247.6919	n/a	RESPONSE	n/a	n/a	n/a	n/a	n/a	n/a	n/a	yellow
247.7107	1.0833	ITI	n/a	n/a	n/a	n/a	n/a	n/a	n/a	n/a
274.2638	n/a	RESPONSE	n/a	n/a	n/a	n/a	n/a	n/a	n/a	n/a
274.3276	1.0167	ITI	n/a	n/a	n/a	n/a	n/a	n/a	n/a	n/a
275.3443	0.5167	FIXCROSS	n/a	n/a	n/a	n/a	n/a	n/a	n/a	n/a
275.861	3.1833	T_COLOR_NAME	1	Neutral	żółty	yellow	Neutral	Neutral	hit	n/a
279.0094	n/a	RESPONSE	n/a	n/a	n/a	n/a	n/a	n/a	n/a	yellow
279.0443	0.5167	FEEDBACK	n/a	n/a	n/a	n/a	n/a	n/a	n/a	n/a
279.561	1.0167	ITI	n/a	n/a	n/a	n/a	n/a	n/a	n/a	n/a
280.5777	0.5167	FIXCROSS	n/a	n/a	n/a	n/a	n/a	n/a	n/a	n/a
281.0943	0.8333	T_COLOR_NAME	2	Neutral	niebieski	blue	Neutral	Neutral	hit	n/a
281.9015	n/a	RESPONSE	n/a	n/a	n/a	n/a	n/a	n/a	n/a	blue
281.9277	0.5167	FEEDBACK	n/a	n/a	n/a	n/a	n/a	n/a	n/a	n/a
282.4443	1.0167	ITI	n/a	n/a	n/a	n/a	n/a	n/a	n/a	n/a
283.461	0.5167	FIXCROSS	n/a	n/a	n/a	n/a	n/a	n/a	n/a	n/a
283.9777	0.8667	T_COLOR_NAME	3	Neutral	żółty	yellow	Neutral	Neutral	hit	n/a
284.8096	n/a	RESPONSE	n/a	n/a	n/a	n/a	n/a	n/a	n/a	yellow
284.8444	0.5167	FEEDBACK	n/a	n/a	n/a	n/a	n/a	n/a	n/a	n/a
285.361	1.0167	ITI	n/a	n/a	n/a	n/a	n/a	n/a	n/a	n/a
286.3777	0.5167	FIXCROSS	n/a	n/a	n/a	n/a	n/a	n/a	n/a	n/a
286.8944	1.7833	T_COLOR_NAME	4	Incongruent	zielony	green	niebieski	blue	hit	n/a
288.6444	n/a	RESPONSE	n/a	n/a	n/a	n/a	n/a	n/a	n/a	green
288.6777	0.5167	FEEDBACK	n/a	n/a	n/a	n/a	n/a	n/a	n/a	n/a
289.1944	1.0167	ITI	n/a	n/a	n/a	n/a	n/a	n/a	n/a	n/a
290.2111	0.5167	FIXCROSS	n/a	n/a	n/a	n/a	n/a	n/a	n/a	n/a
290.6098	n/a	RESPONSE	n/a	n/a	n/a	n/a	n/a	n/a	n/a	yellow
290.7277	1.4834	T_COLOR_NAME	5	Incongruent	niebieski	blue	zielony	green	hit	n/a
292.1916	n/a	RESPONSE	n/a	n/a	n/a	n/a	n/a	n/a	n/a	blue
292.2111	0.5167	FEEDBACK	n/a	n/a	n/a	n/a	n/a	n/a	n/a	n/a
292.7278	1.0167	ITI	n/a	n/a	n/a	n/a	n/a	n/a	n/a	n/a
293.7444	0.5167	FIXCROSS	n/a	n/a	n/a	n/a	n/a	n/a	n/a	n/a
294.2611	1.4167	T_COLOR_NAME	6	Neutral	niebieski	blue	Neutral	Neutral	hit	n/a
295.643	n/a	RESPONSE	n/a	n/a	n/a	n/a	n/a	n/a	n/a	blue
295.6778	0.5167	FEEDBACK	n/a	n/a	n/a	n/a	n/a	n/a	n/a	n/a
296.1945	1.0167	ITI	n/a	n/a	n/a	n/a	n/a	n/a	n/a	n/a
297.2111	0.5167	FIXCROSS	n/a	n/a	n/a	n/a	n/a	n/a	n/a	n/a
297.7278	0.9667	T_COLOR_NAME	7	Neutral	czerwony	red	Neutral	Neutral	hit	n/a
298.6629	n/a	RESPONSE	n/a	n/a	n/a	n/a	n/a	n/a	n/a	red
298.6945	0.5167	FEEDBACK	n/a	n/a	n/a	n/a	n/a	n/a	n/a	n/a
299.2111	1.0167	ITI	n/a	n/a	n/a	n/a	n/a	n/a	n/a	n/a
300.2278	0.5167	FIXCROSS	n/a	n/a	n/a	n/a	n/a	n/a	n/a	n/a
300.7445	0.8333	T_COLOR_NAME	8	Neutral	czerwony	red	Neutral	Neutral	hit	n/a
301.5549	n/a	RESPONSE	n/a	n/a	n/a	n/a	n/a	n/a	n/a	red
301.5778	0.5167	FEEDBACK	n/a	n/a	n/a	n/a	n/a	n/a	n/a	n/a
302.0945	1.0167	ITI	n/a	n/a	n/a	n/a	n/a	n/a	n/a	n/a
303.1112	0.5167	FIXCROSS	n/a	n/a	n/a	n/a	n/a	n/a	n/a	n/a
303.6278	0.6333	T_COLOR_NAME	9	Neutral	czerwony	red	Neutral	Neutral	hit	n/a
304.2392	n/a	RESPONSE	n/a	n/a	n/a	n/a	n/a	n/a	n/a	red
304.2612	0.5167	FEEDBACK	n/a	n/a	n/a	n/a	n/a	n/a	n/a	n/a
304.7779	1.0167	ITI	n/a	n/a	n/a	n/a	n/a	n/a	n/a	n/a
305.7945	0.5167	FIXCROSS	n/a	n/a	n/a	n/a	n/a	n/a	n/a	n/a
306.3112	2.0667	T_COLOR_NAME	10	Incongruent	czerwony	red	żółty	yellow	hit	n/a
308.3457	n/a	RESPONSE	n/a	n/a	n/a	n/a	n/a	n/a	n/a	red
308.3779	0.5167	FEEDBACK	n/a	n/a	n/a	n/a	n/a	n/a	n/a	n/a
308.8946	1.0167	ITI	n/a	n/a	n/a	n/a	n/a	n/a	n/a	n/a
309.9112	0.5167	FIXCROSS	n/a	n/a	n/a	n/a	n/a	n/a	n/a	n/a
310.4279	1.6334	T_COLOR_NAME	11	Incongruent	zielony	green	żółty	yellow	hit	n/a
312.0368	n/a	RESPONSE	n/a	n/a	n/a	n/a	n/a	n/a	n/a	green
312.0612	0.5167	FEEDBACK	n/a	n/a	n/a	n/a	n/a	n/a	n/a	n/a
312.5779	1.0167	ITI	n/a	n/a	n/a	n/a	n/a	n/a	n/a	n/a
313.5946	0.5167	FIXCROSS	n/a	n/a	n/a	n/a	n/a	n/a	n/a	n/a
314.1113	1.2	T_COLOR_NAME	12	Incongruent	niebieski	blue	czerwony	red	hit	n/a
315.2804	n/a	RESPONSE	n/a	n/a	n/a	n/a	n/a	n/a	n/a	blue
315.3113	0.5167	FEEDBACK	n/a	n/a	n/a	n/a	n/a	n/a	n/a	n/a
315.8279	1.0333	ITI	n/a	n/a	n/a	n/a	n/a	n/a	n/a	n/a
318.8276	n/a	RESPONSE	n/a	n/a	n/a	n/a	n/a	n/a	n/a	n/a
318.8946	1.0167	ITI	n/a	n/a	n/a	n/a	n/a	n/a	n/a	n/a
319.9113	0.5167	FIXCROSS	n/a	n/a	n/a	n/a	n/a	n/a	n/a	n/a
320.428	1.5	COLOR_NAME	1	Incongruent	czerwony	red	zielony	green	hit	n/a
321.8954	n/a	RESPONSE	n/a	n/a	n/a	n/a	n/a	n/a	n/a	red
321.928	1.0167	ITI	n/a	n/a	n/a	n/a	n/a	n/a	n/a	n/a
322.9447	0.5167	FIXCROSS	n/a	n/a	n/a	n/a	n/a	n/a	n/a	n/a
323.4613	1.1333	COLOR_NAME	2	Incongruent	żółty	yellow	niebieski	blue	hit	n/a
324.5638	n/a	RESPONSE	n/a	n/a	n/a	n/a	n/a	n/a	n/a	yellow
324.5947	1.0167	ITI	n/a	n/a	n/a	n/a	n/a	n/a	n/a	n/a
325.6114	0.5167	FIXCROSS	n/a	n/a	n/a	n/a	n/a	n/a	n/a	n/a
326.128	1.2833	COLOR_NAME	3	Incongruent	niebieski	blue	czerwony	red	hit	n/a
327.392	n/a	RESPONSE	n/a	n/a	n/a	n/a	n/a	n/a	n/a	blue
327.4114	1.0167	ITI	n/a	n/a	n/a	n/a	n/a	n/a	n/a	n/a
328.428	0.5167	FIXCROSS	n/a	n/a	n/a	n/a	n/a	n/a	n/a	n/a
328.9447	1.4667	COLOR_NAME	4	Incongruent	zielony	green	niebieski	blue	hit	n/a
330.3799	n/a	RESPONSE	n/a	n/a	n/a	n/a	n/a	n/a	n/a	green
330.4114	1.0167	ITI	n/a	n/a	n/a	n/a	n/a	n/a	n/a	n/a
331.4281	0.5167	FIXCROSS	n/a	n/a	n/a	n/a	n/a	n/a	n/a	n/a
331.9447	0.9167	COLOR_NAME	5	Incongruent	czerwony	red	zielony	green	hit	n/a
332.8407	n/a	RESPONSE	n/a	n/a	n/a	n/a	n/a	n/a	n/a	red
332.8614	1.0167	ITI	n/a	n/a	n/a	n/a	n/a	n/a	n/a	n/a
333.8781	0.5167	FIXCROSS	n/a	n/a	n/a	n/a	n/a	n/a	n/a	n/a
334.3947	1.1	COLOR_NAME	6	Neutral	zielony	green	Neutral	Neutral	hit	n/a
335.4611	n/a	RESPONSE	n/a	n/a	n/a	n/a	n/a	n/a	n/a	green
335.4948	1.0167	ITI	n/a	n/a	n/a	n/a	n/a	n/a	n/a	n/a
336.5114	0.5167	FIXCROSS	n/a	n/a	n/a	n/a	n/a	n/a	n/a	n/a
337.0281	0.7833	COLOR_NAME	7	Neutral	żółty	yellow	Neutral	Neutral	hit	n/a
337.778	n/a	RESPONSE	n/a	n/a	n/a	n/a	n/a	n/a	n/a	yellow
337.8114	1.0167	ITI	n/a	n/a	n/a	n/a	n/a	n/a	n/a	n/a
338.8281	0.5167	FIXCROSS	n/a	n/a	n/a	n/a	n/a	n/a	n/a	n/a
339.3448	0.7333	COLOR_NAME	8	Neutral	czerwony	red	Neutral	Neutral	hit	n/a
340.0469	n/a	RESPONSE	n/a	n/a	n/a	n/a	n/a	n/a	n/a	red
340.0781	1.0167	ITI	n/a	n/a	n/a	n/a	n/a	n/a	n/a	n/a
341.0948	0.5167	FIXCROSS	n/a	n/a	n/a	n/a	n/a	n/a	n/a	n/a
341.6115	0.9167	COLOR_NAME	9	Neutral	zielony	green	Neutral	Neutral	hit	n/a
342.5076	n/a	RESPONSE	n/a	n/a	n/a	n/a	n/a	n/a	n/a	green
342.5282	1.0167	ITI	n/a	n/a	n/a	n/a	n/a	n/a	n/a	n/a
343.5448	0.5167	FIXCROSS	n/a	n/a	n/a	n/a	n/a	n/a	n/a	n/a
344.0615	0.75	COLOR_NAME	10	Incongruent	czerwony	red	żółty	yellow	hit	n/a
344.7925	n/a	RESPONSE	n/a	n/a	n/a	n/a	n/a	n/a	n/a	red
344.8115	1.0167	ITI	n/a	n/a	n/a	n/a	n/a	n/a	n/a	n/a
345.8282	0.5167	FIXCROSS	n/a	n/a	n/a	n/a	n/a	n/a	n/a	n/a
346.3448	0.7667	COLOR_NAME	11	Neutral	czerwony	red	Neutral	Neutral	hit	n/a
347.0774	n/a	RESPONSE	n/a	n/a	n/a	n/a	n/a	n/a	n/a	red
347.1115	1.0167	ITI	n/a	n/a	n/a	n/a	n/a	n/a	n/a	n/a
348.1282	0.5167	FIXCROSS	n/a	n/a	n/a	n/a	n/a	n/a	n/a	n/a
348.6449	0.8667	COLOR_NAME	12	Neutral	czerwony	red	Neutral	Neutral	hit	n/a
349.4902	n/a	RESPONSE	n/a	n/a	n/a	n/a	n/a	n/a	n/a	red
349.5115	1.0167	ITI	n/a	n/a	n/a	n/a	n/a	n/a	n/a	n/a
350.5282	0.5167	FIXCROSS	n/a	n/a	n/a	n/a	n/a	n/a	n/a	n/a
351.0449	0.6167	COLOR_NAME	13	Incongruent	czerwony	red	niebieski	blue	hit	n/a
351.6313	n/a	RESPONSE	n/a	n/a	n/a	n/a	n/a	n/a	n/a	red
351.6616	1.0167	ITI	n/a	n/a	n/a	n/a	n/a	n/a	n/a	n/a
352.6782	0.5167	FIXCROSS	n/a	n/a	n/a	n/a	n/a	n/a	n/a	n/a
353.1949	0.5833	COLOR_NAME	14	Neutral	czerwony	red	Neutral	Neutral	hit	n/a
353.7564	n/a	RESPONSE	n/a	n/a	n/a	n/a	n/a	n/a	n/a	red
353.7782	1.0167	ITI	n/a	n/a	n/a	n/a	n/a	n/a	n/a	n/a
354.7949	0.5167	FIXCROSS	n/a	n/a	n/a	n/a	n/a	n/a	n/a	n/a
355.3116	0.4667	COLOR_NAME	15	Neutral	czerwony	red	Neutral	Neutral	hit	n/a
355.7538	n/a	RESPONSE	n/a	n/a	n/a	n/a	n/a	n/a	n/a	red
355.7782	1.0167	ITI	n/a	n/a	n/a	n/a	n/a	n/a	n/a	n/a
356.7949	0.5167	FIXCROSS	n/a	n/a	n/a	n/a	n/a	n/a	n/a	n/a
357.3116	0.8333	COLOR_NAME	16	Neutral	żółty	yellow	Neutral	Neutral	hit	n/a
358.1186	n/a	RESPONSE	n/a	n/a	n/a	n/a	n/a	n/a	n/a	yellow
358.1449	1.0167	ITI	n/a	n/a	n/a	n/a	n/a	n/a	n/a	n/a
359.1616	0.5167	FIXCROSS	n/a	n/a	n/a	n/a	n/a	n/a	n/a	n/a
359.6783	0.7	COLOR_NAME	17	Neutral	niebieski	blue	Neutral	Neutral	hit	n/a
360.3556	n/a	RESPONSE	n/a	n/a	n/a	n/a	n/a	n/a	n/a	blue
360.3783	1.0167	ITI	n/a	n/a	n/a	n/a	n/a	n/a	n/a	n/a
361.3949	0.5167	FIXCROSS	n/a	n/a	n/a	n/a	n/a	n/a	n/a	n/a
361.9116	1.4167	COLOR_NAME	18	Incongruent	niebieski	blue	czerwony	red	hit	n/a
363.2956	n/a	RESPONSE	n/a	n/a	n/a	n/a	n/a	n/a	n/a	blue
363.3283	1.0167	ITI	n/a	n/a	n/a	n/a	n/a	n/a	n/a	n/a
364.345	0.5167	FIXCROSS	n/a	n/a	n/a	n/a	n/a	n/a	n/a	n/a
364.8616	1.1834	COLOR_NAME	19	Incongruent	zielony	green	żółty	yellow	hit	n/a
366.0121	n/a	RESPONSE	n/a	n/a	n/a	n/a	n/a	n/a	n/a	green
366.045	1.0167	ITI	n/a	n/a	n/a	n/a	n/a	n/a	n/a	n/a
367.0617	0.5167	FIXCROSS	n/a	n/a	n/a	n/a	n/a	n/a	n/a	n/a
367.5783	1.0	COLOR_NAME	20	Incongruent	niebieski	blue	żółty	yellow	hit	n/a
368.5525	n/a	RESPONSE	n/a	n/a	n/a	n/a	n/a	n/a	n/a	blue
368.5783	1.0167	ITI	n/a	n/a	n/a	n/a	n/a	n/a	n/a	n/a
369.595	0.5167	FIXCROSS	n/a	n/a	n/a	n/a	n/a	n/a	n/a	n/a
370.1117	0.6167	COLOR_NAME	21	Incongruent	niebieski	blue	czerwony	red	hit	n/a
370.7096	n/a	RESPONSE	n/a	n/a	n/a	n/a	n/a	n/a	n/a	blue
370.7284	1.0167	ITI	n/a	n/a	n/a	n/a	n/a	n/a	n/a	n/a
371.745	0.5167	FIXCROSS	n/a	n/a	n/a	n/a	n/a	n/a	n/a	n/a
372.2617	1.0667	COLOR_NAME	22	Neutral	czerwony	red	Neutral	Neutral	hit	n/a
373.2982	n/a	RESPONSE	n/a	n/a	n/a	n/a	n/a	n/a	n/a	red
373.3284	1.0167	ITI	n/a	n/a	n/a	n/a	n/a	n/a	n/a	n/a
374.345	0.5167	FIXCROSS	n/a	n/a	n/a	n/a	n/a	n/a	n/a	n/a
374.8617	1.2	COLOR_NAME	23	Neutral	zielony	green	Neutral	Neutral	hit	n/a
376.0304	n/a	RESPONSE	n/a	n/a	n/a	n/a	n/a	n/a	n/a	green
376.0617	1.0167	ITI	n/a	n/a	n/a	n/a	n/a	n/a	n/a	n/a
377.0784	0.5167	FIXCROSS	n/a	n/a	n/a	n/a	n/a	n/a	n/a	n/a
377.5951	0.9333	COLOR_NAME	24	Neutral	żółty	yellow	Neutral	Neutral	hit	n/a
378.5072	n/a	RESPONSE	n/a	n/a	n/a	n/a	n/a	n/a	n/a	yellow
378.5284	1.0167	ITI	n/a	n/a	n/a	n/a	n/a	n/a	n/a	n/a
379.5451	0.5167	FIXCROSS	n/a	n/a	n/a	n/a	n/a	n/a	n/a	n/a
380.0618	0.8	COLOR_NAME	25	Incongruent	żółty	yellow	zielony	green	hit	n/a
380.84	n/a	RESPONSE	n/a	n/a	n/a	n/a	n/a	n/a	n/a	yellow
380.8618	1.0167	ITI	n/a	n/a	n/a	n/a	n/a	n/a	n/a	n/a
381.8784	0.5167	FIXCROSS	n/a	n/a	n/a	n/a	n/a	n/a	n/a	n/a
382.3951	1.0333	COLOR_NAME	26	Neutral	czerwony	red	Neutral	Neutral	hit	n/a
383.3966	n/a	RESPONSE	n/a	n/a	n/a	n/a	n/a	n/a	n/a	red
383.4284	1.0167	ITI	n/a	n/a	n/a	n/a	n/a	n/a	n/a	n/a
384.4451	0.5167	FIXCROSS	n/a	n/a	n/a	n/a	n/a	n/a	n/a	n/a
384.9618	0.9667	COLOR_NAME	27	Neutral	zielony	green	Neutral	Neutral	hit	n/a
385.9052	n/a	RESPONSE	n/a	n/a	n/a	n/a	n/a	n/a	n/a	green
385.9285	1.0167	ITI	n/a	n/a	n/a	n/a	n/a	n/a	n/a	n/a
386.9452	0.5167	FIXCROSS	n/a	n/a	n/a	n/a	n/a	n/a	n/a	n/a
387.4618	0.6167	COLOR_NAME	28	Incongruent	zielony	green	żółty	yellow	hit	n/a
388.0463	n/a	RESPONSE	n/a	n/a	n/a	n/a	n/a	n/a	n/a	green
388.0785	1.0167	ITI	n/a	n/a	n/a	n/a	n/a	n/a	n/a	n/a
389.0952	0.5167	FIXCROSS	n/a	n/a	n/a	n/a	n/a	n/a	n/a	n/a
389.6118	1.0167	COLOR_NAME	29	Incongruent	żółty	yellow	czerwony	red	hit	n/a
390.6029	n/a	RESPONSE	n/a	n/a	n/a	n/a	n/a	n/a	n/a	yellow
390.6285	1.0167	ITI	n/a	n/a	n/a	n/a	n/a	n/a	n/a	n/a
391.6452	0.5167	FIXCROSS	n/a	n/a	n/a	n/a	n/a	n/a	n/a	n/a
392.1619	0.6	COLOR_NAME	30	Neutral	żółty	yellow	Neutral	Neutral	hit	n/a
392.728	n/a	RESPONSE	n/a	n/a	n/a	n/a	n/a	n/a	n/a	yellow
392.7619	1.0167	ITI	n/a	n/a	n/a	n/a	n/a	n/a	n/a	n/a
393.7785	0.5167	FIXCROSS	n/a	n/a	n/a	n/a	n/a	n/a	n/a	n/a
394.2952	1.0833	COLOR_NAME	31	Incongruent	żółty	yellow	czerwony	red	hit	n/a
395.3485	n/a	RESPONSE	n/a	n/a	n/a	n/a	n/a	n/a	n/a	yellow
395.3785	1.0167	ITI	n/a	n/a	n/a	n/a	n/a	n/a	n/a	n/a
396.3952	0.5167	FIXCROSS	n/a	n/a	n/a	n/a	n/a	n/a	n/a	n/a
396.9119	1.45	COLOR_NAME	32	Incongruent	niebieski	blue	zielony	green	hit	n/a
398.3364	n/a	RESPONSE	n/a	n/a	n/a	n/a	n/a	n/a	n/a	blue
398.3619	1.0167	ITI	n/a	n/a	n/a	n/a	n/a	n/a	n/a	n/a
399.3786	0.5167	FIXCROSS	n/a	n/a	n/a	n/a	n/a	n/a	n/a	n/a
399.8952	1.0667	COLOR_NAME	33	Neutral	zielony	green	Neutral	Neutral	hit	n/a
400.941	n/a	RESPONSE	n/a	n/a	n/a	n/a	n/a	n/a	n/a	green
400.9619	1.0167	ITI	n/a	n/a	n/a	n/a	n/a	n/a	n/a	n/a
401.9786	0.5167	FIXCROSS	n/a	n/a	n/a	n/a	n/a	n/a	n/a	n/a
402.4953	1.0	COLOR_NAME	34	Incongruent	niebieski	blue	żółty	yellow	hit	n/a
403.4656	n/a	RESPONSE	n/a	n/a	n/a	n/a	n/a	n/a	n/a	blue
403.4953	1.0167	ITI	n/a	n/a	n/a	n/a	n/a	n/a	n/a	n/a
404.5119	0.5167	FIXCROSS	n/a	n/a	n/a	n/a	n/a	n/a	n/a	n/a
405.0286	1.15	COLOR_NAME	35	Incongruent	żółty	yellow	zielony	green	hit	n/a
406.15	n/a	RESPONSE	n/a	n/a	n/a	n/a	n/a	n/a	n/a	yellow
406.1786	1.0167	ITI	n/a	n/a	n/a	n/a	n/a	n/a	n/a	n/a
407.1953	0.5167	FIXCROSS	n/a	n/a	n/a	n/a	n/a	n/a	n/a	n/a
407.712	0.8167	COLOR_NAME	36	Incongruent	zielony	green	niebieski	blue	hit	n/a
408.4988	n/a	RESPONSE	n/a	n/a	n/a	n/a	n/a	n/a	n/a	green
408.5286	1.0167	ITI	n/a	n/a	n/a	n/a	n/a	n/a	n/a	n/a
409.5453	0.5167	FIXCROSS	n/a	n/a	n/a	n/a	n/a	n/a	n/a	n/a
410.062	0.7667	COLOR_NAME	37	Incongruent	czerwony	red	żółty	yellow	hit	n/a
410.7997	n/a	RESPONSE	n/a	n/a	n/a	n/a	n/a	n/a	n/a	red
410.8287	1.0167	ITI	n/a	n/a	n/a	n/a	n/a	n/a	n/a	n/a
411.8453	0.5167	FIXCROSS	n/a	n/a	n/a	n/a	n/a	n/a	n/a	n/a
412.362	1.2334	COLOR_NAME	38	Incongruent	czerwony	red	żółty	yellow	hit	n/a
413.564	n/a	RESPONSE	n/a	n/a	n/a	n/a	n/a	n/a	n/a	red
413.5954	1.0167	ITI	n/a	n/a	n/a	n/a	n/a	n/a	n/a	n/a
414.612	0.5167	FIXCROSS	n/a	n/a	n/a	n/a	n/a	n/a	n/a	n/a
415.1287	0.7833	COLOR_NAME	39	Incongruent	zielony	green	żółty	yellow	hit	n/a
415.8809	n/a	RESPONSE	n/a	n/a	n/a	n/a	n/a	n/a	n/a	green
415.912	1.0167	ITI	n/a	n/a	n/a	n/a	n/a	n/a	n/a	n/a
416.9287	0.5167	FIXCROSS	n/a	n/a	n/a	n/a	n/a	n/a	n/a	n/a
417.4454	1.1333	COLOR_NAME	40	Neutral	żółty	yellow	Neutral	Neutral	hit	n/a
418.5493	n/a	RESPONSE	n/a	n/a	n/a	n/a	n/a	n/a	n/a	yellow
418.5787	1.0167	ITI	n/a	n/a	n/a	n/a	n/a	n/a	n/a	n/a
419.5954	0.5167	FIXCROSS	n/a	n/a	n/a	n/a	n/a	n/a	n/a	n/a
420.1121	1.3333	COLOR_NAME	41	Neutral	niebieski	blue	Neutral	Neutral	hit	n/a
421.4255	n/a	RESPONSE	n/a	n/a	n/a	n/a	n/a	n/a	n/a	blue
421.4454	1.0167	ITI	n/a	n/a	n/a	n/a	n/a	n/a	n/a	n/a
422.4621	0.5167	FIXCROSS	n/a	n/a	n/a	n/a	n/a	n/a	n/a	n/a
422.9788	0.95	COLOR_NAME	42	Neutral	zielony	green	Neutral	Neutral	hit	n/a
423.9022	n/a	RESPONSE	n/a	n/a	n/a	n/a	n/a	n/a	n/a	green
423.9288	1.0167	ITI	n/a	n/a	n/a	n/a	n/a	n/a	n/a	n/a
424.9454	0.5167	FIXCROSS	n/a	n/a	n/a	n/a	n/a	n/a	n/a	n/a
425.4621	1.2	COLOR_NAME	43	Incongruent	niebieski	blue	zielony	green	hit	n/a
426.6345	n/a	RESPONSE	n/a	n/a	n/a	n/a	n/a	n/a	n/a	blue
426.6621	1.0167	ITI	n/a	n/a	n/a	n/a	n/a	n/a	n/a	n/a
427.6788	0.5167	FIXCROSS	n/a	n/a	n/a	n/a	n/a	n/a	n/a	n/a
428.1955	1.0333	COLOR_NAME	44	Neutral	niebieski	blue	Neutral	Neutral	hit	n/a
429.2071	n/a	RESPONSE	n/a	n/a	n/a	n/a	n/a	n/a	n/a	blue
429.2288	1.0167	ITI	n/a	n/a	n/a	n/a	n/a	n/a	n/a	n/a
430.2455	0.5167	FIXCROSS	n/a	n/a	n/a	n/a	n/a	n/a	n/a	n/a
430.7621	1.0	COLOR_NAME	45	Neutral	zielony	green	Neutral	Neutral	hit	n/a
431.7317	n/a	RESPONSE	n/a	n/a	n/a	n/a	n/a	n/a	n/a	green
431.7622	1.0167	ITI	n/a	n/a	n/a	n/a	n/a	n/a	n/a	n/a
432.7788	0.5167	FIXCROSS	n/a	n/a	n/a	n/a	n/a	n/a	n/a	n/a
433.2955	1.55	COLOR_NAME	46	Incongruent	żółty	yellow	czerwony	red	hit	n/a
434.8155	n/a	RESPONSE	n/a	n/a	n/a	n/a	n/a	n/a	n/a	yellow
434.8455	1.0167	ITI	n/a	n/a	n/a	n/a	n/a	n/a	n/a	n/a
435.8622	0.5167	FIXCROSS	n/a	n/a	n/a	n/a	n/a	n/a	n/a	n/a
436.3788	0.9834	COLOR_NAME	47	Neutral	niebieski	blue	Neutral	Neutral	hit	n/a
437.3401	n/a	RESPONSE	n/a	n/a	n/a	n/a	n/a	n/a	n/a	blue
437.3622	1.0167	ITI	n/a	n/a	n/a	n/a	n/a	n/a	n/a	n/a
438.3789	0.5167	FIXCROSS	n/a	n/a	n/a	n/a	n/a	n/a	n/a	n/a
438.8955	0.6333	COLOR_NAME	48	Neutral	niebieski	blue	Neutral	Neutral	hit	n/a
439.4972	n/a	RESPONSE	n/a	n/a	n/a	n/a	n/a	n/a	n/a	blue
439.5289	1.0167	ITI	n/a	n/a	n/a	n/a	n/a	n/a	n/a	n/a
440.5455	0.5167	FIXCROSS	n/a	n/a	n/a	n/a	n/a	n/a	n/a	n/a
441.0622	1.2333	COLOR_NAME	49	Incongruent	zielony	green	czerwony	red	hit	n/a
442.2775	n/a	RESPONSE	n/a	n/a	n/a	n/a	n/a	n/a	n/a	green
442.2956	1.0167	ITI	n/a	n/a	n/a	n/a	n/a	n/a	n/a	n/a
443.3122	0.5167	FIXCROSS	n/a	n/a	n/a	n/a	n/a	n/a	n/a	n/a
443.8289	0.7	COLOR_NAME	50	Neutral	czerwony	red	Neutral	Neutral	hit	n/a
444.4985	n/a	RESPONSE	n/a	n/a	n/a	n/a	n/a	n/a	n/a	red
444.5289	1.0166	ITI	n/a	n/a	n/a	n/a	n/a	n/a	n/a	n/a
445.5455	0.5168	FIXCROSS	n/a	n/a	n/a	n/a	n/a	n/a	n/a	n/a
446.0623	0.8667	COLOR_NAME	51	Incongruent	zielony	green	czerwony	red	hit	n/a
446.8953	n/a	RESPONSE	n/a	n/a	n/a	n/a	n/a	n/a	n/a	green
446.9289	1.0167	ITI	n/a	n/a	n/a	n/a	n/a	n/a	n/a	n/a
447.9456	0.5167	FIXCROSS	n/a	n/a	n/a	n/a	n/a	n/a	n/a	n/a
448.4623	0.9333	COLOR_NAME	52	Neutral	zielony	green	Neutral	Neutral	hit	n/a
449.372	n/a	RESPONSE	n/a	n/a	n/a	n/a	n/a	n/a	n/a	green
449.3956	1.0167	ITI	n/a	n/a	n/a	n/a	n/a	n/a	n/a	n/a
450.4123	0.5167	FIXCROSS	n/a	n/a	n/a	n/a	n/a	n/a	n/a	n/a
450.929	0.8167	COLOR_NAME	53	Incongruent	żółty	yellow	zielony	green	hit	n/a
451.7209	n/a	RESPONSE	n/a	n/a	n/a	n/a	n/a	n/a	n/a	yellow
451.7456	1.0167	ITI	n/a	n/a	n/a	n/a	n/a	n/a	n/a	n/a
452.7623	0.5167	FIXCROSS	n/a	n/a	n/a	n/a	n/a	n/a	n/a	n/a
453.279	0.75	COLOR_NAME	54	Neutral	niebieski	blue	Neutral	Neutral	hit	n/a
454.0058	n/a	RESPONSE	n/a	n/a	n/a	n/a	n/a	n/a	n/a	blue
454.029	1.0167	ITI	n/a	n/a	n/a	n/a	n/a	n/a	n/a	n/a
455.0457	0.5167	FIXCROSS	n/a	n/a	n/a	n/a	n/a	n/a	n/a	n/a
455.5623	0.85	COLOR_NAME	55	Neutral	żółty	yellow	Neutral	Neutral	hit	n/a
456.3866	n/a	RESPONSE	n/a	n/a	n/a	n/a	n/a	n/a	n/a	yellow
456.4123	1.0167	ITI	n/a	n/a	n/a	n/a	n/a	n/a	n/a	n/a
457.429	0.5167	FIXCROSS	n/a	n/a	n/a	n/a	n/a	n/a	n/a	n/a
457.9457	0.7333	COLOR_NAME	56	Incongruent	żółty	yellow	niebieski	blue	hit	n/a
458.6555	n/a	RESPONSE	n/a	n/a	n/a	n/a	n/a	n/a	n/a	yellow
458.679	1.0167	ITI	n/a	n/a	n/a	n/a	n/a	n/a	n/a	n/a
459.6957	0.5167	FIXCROSS	n/a	n/a	n/a	n/a	n/a	n/a	n/a	n/a
460.2124	0.5833	COLOR_NAME	57	Neutral	żółty	yellow	Neutral	Neutral	hit	n/a
460.7647	n/a	RESPONSE	n/a	n/a	n/a	n/a	n/a	n/a	n/a	yellow
460.7957	1.0167	ITI	n/a	n/a	n/a	n/a	n/a	n/a	n/a	n/a
461.8124	0.5167	FIXCROSS	n/a	n/a	n/a	n/a	n/a	n/a	n/a	n/a
462.329	0.45	COLOR_NAME	58	Neutral	żółty	yellow	Neutral	Neutral	hit	n/a
462.7461	n/a	RESPONSE	n/a	n/a	n/a	n/a	n/a	n/a	n/a	yellow
462.779	1.0167	ITI	n/a	n/a	n/a	n/a	n/a	n/a	n/a	n/a
463.7957	0.5167	FIXCROSS	n/a	n/a	n/a	n/a	n/a	n/a	n/a	n/a
464.3124	0.85	COLOR_NAME	59	Neutral	niebieski	blue	Neutral	Neutral	hit	n/a
465.143	n/a	RESPONSE	n/a	n/a	n/a	n/a	n/a	n/a	n/a	blue
465.1624	1.0167	ITI	n/a	n/a	n/a	n/a	n/a	n/a	n/a	n/a
466.1791	0.5167	FIXCROSS	n/a	n/a	n/a	n/a	n/a	n/a	n/a	n/a
466.6958	0.6333	COLOR_NAME	60	Neutral	żółty	yellow	Neutral	Neutral	hit	n/a
467.2999	n/a	RESPONSE	n/a	n/a	n/a	n/a	n/a	n/a	n/a	yellow
467.3291	1.0167	ITI	n/a	n/a	n/a	n/a	n/a	n/a	n/a	n/a
468.3458	0.5167	FIXCROSS	n/a	n/a	n/a	n/a	n/a	n/a	n/a	n/a
468.8624	0.75	COLOR_NAME	61	Incongruent	żółty	yellow	niebieski	blue	hit	n/a
469.5849	n/a	RESPONSE	n/a	n/a	n/a	n/a	n/a	n/a	n/a	yellow
469.6124	1.0167	ITI	n/a	n/a	n/a	n/a	n/a	n/a	n/a	n/a
470.6291	0.5167	FIXCROSS	n/a	n/a	n/a	n/a	n/a	n/a	n/a	n/a
471.1458	0.9833	COLOR_NAME	62	Incongruent	czerwony	red	zielony	green	hit	n/a
472.1095	n/a	RESPONSE	n/a	n/a	n/a	n/a	n/a	n/a	n/a	red
472.1291	1.0167	ITI	n/a	n/a	n/a	n/a	n/a	n/a	n/a	n/a
473.1458	0.5167	FIXCROSS	n/a	n/a	n/a	n/a	n/a	n/a	n/a	n/a
473.6625	0.7833	COLOR_NAME	63	Neutral	niebieski	blue	Neutral	Neutral	hit	n/a
474.4265	n/a	RESPONSE	n/a	n/a	n/a	n/a	n/a	n/a	n/a	blue
474.4458	1.0167	ITI	n/a	n/a	n/a	n/a	n/a	n/a	n/a	n/a
475.4625	0.5167	FIXCROSS	n/a	n/a	n/a	n/a	n/a	n/a	n/a	n/a
475.9792	0.75	COLOR_NAME	64	Neutral	czerwony	red	Neutral	Neutral	hit	n/a
476.6954	n/a	RESPONSE	n/a	n/a	n/a	n/a	n/a	n/a	n/a	red
476.7292	1.0167	ITI	n/a	n/a	n/a	n/a	n/a	n/a	n/a	n/a
477.7458	0.5167	FIXCROSS	n/a	n/a	n/a	n/a	n/a	n/a	n/a	n/a
478.2625	1.5	COLOR_NAME	65	Incongruent	zielony	green	czerwony	red	hit	n/a
479.7314	n/a	RESPONSE	n/a	n/a	n/a	n/a	n/a	n/a	n/a	green
479.7625	1.0167	ITI	n/a	n/a	n/a	n/a	n/a	n/a	n/a	n/a
480.7792	0.5167	FIXCROSS	n/a	n/a	n/a	n/a	n/a	n/a	n/a	n/a
481.2959	1.0	COLOR_NAME	66	Incongruent	niebieski	blue	zielony	green	hit	n/a
482.272	n/a	RESPONSE	n/a	n/a	n/a	n/a	n/a	n/a	n/a	blue
482.2959	1.0167	ITI	n/a	n/a	n/a	n/a	n/a	n/a	n/a	n/a
483.3125	0.5167	FIXCROSS	n/a	n/a	n/a	n/a	n/a	n/a	n/a	n/a
483.8292	0.85	COLOR_NAME	67	Neutral	zielony	green	Neutral	Neutral	hit	n/a
484.6527	n/a	RESPONSE	n/a	n/a	n/a	n/a	n/a	n/a	n/a	green
484.6792	1.0167	ITI	n/a	n/a	n/a	n/a	n/a	n/a	n/a	n/a
485.6959	0.5167	FIXCROSS	n/a	n/a	n/a	n/a	n/a	n/a	n/a	n/a
486.2126	0.9833	COLOR_NAME	68	Neutral	niebieski	blue	Neutral	Neutral	hit	n/a
487.1773	n/a	RESPONSE	n/a	n/a	n/a	n/a	n/a	n/a	n/a	blue
487.1959	1.0167	ITI	n/a	n/a	n/a	n/a	n/a	n/a	n/a	n/a
488.2126	0.5167	FIXCROSS	n/a	n/a	n/a	n/a	n/a	n/a	n/a	n/a
488.7293	1.15	COLOR_NAME	69	Incongruent	zielony	green	niebieski	blue	hit	n/a
489.8618	n/a	RESPONSE	n/a	n/a	n/a	n/a	n/a	n/a	n/a	green
489.8793	1.0167	ITI	n/a	n/a	n/a	n/a	n/a	n/a	n/a	n/a
490.8959	0.5167	FIXCROSS	n/a	n/a	n/a	n/a	n/a	n/a	n/a	n/a
491.4126	1.2	COLOR_NAME	70	Incongruent	czerwony	red	niebieski	blue	hit	n/a
492.5941	n/a	RESPONSE	n/a	n/a	n/a	n/a	n/a	n/a	n/a	red
492.6126	1.0167	ITI	n/a	n/a	n/a	n/a	n/a	n/a	n/a	n/a
493.6293	0.5167	FIXCROSS	n/a	n/a	n/a	n/a	n/a	n/a	n/a	n/a
494.146	1.05	COLOR_NAME	71	Incongruent	czerwony	red	niebieski	blue	hit	n/a
495.1666	n/a	RESPONSE	n/a	n/a	n/a	n/a	n/a	n/a	n/a	red
495.196	1.0167	ITI	n/a	n/a	n/a	n/a	n/a	n/a	n/a	n/a
496.2126	0.5167	FIXCROSS	n/a	n/a	n/a	n/a	n/a	n/a	n/a	n/a
496.7293	1.0167	COLOR_NAME	72	Incongruent	niebieski	blue	żółty	yellow	hit	n/a
497.7232	n/a	RESPONSE	n/a	n/a	n/a	n/a	n/a	n/a	n/a	blue
497.746	1.0333	ITI	n/a	n/a	n/a	n/a	n/a	n/a	n/a	n/a
501.4942	n/a	RESPONSE	n/a	n/a	n/a	n/a	n/a	n/a	n/a	n/a
