onset	duration	trial_type	trial_number	stroop_condition	stim_text(PL)	stim_text(eng)	stim_color(PL)	stim_color(eng)	response_type	response_color
0.0	n/a	RESPONSE	n/a	n/a	n/a	n/a	n/a	n/a	n/a	n/a
0.0363	1.0166	ITI	n/a	n/a	n/a	n/a	n/a	n/a	n/a	n/a
1.0529	0.5	FIXCROSS	n/a	n/a	n/a	n/a	n/a	n/a	n/a	n/a
1.5529	1.0333	T_INK	1	Neutral	xxxxx	xxxxx	czerwony	red	hit	n/a
2.5724	n/a	RESPONSE	n/a	n/a	n/a	n/a	n/a	n/a	n/a	red
2.5862	0.5	FEEDBACK	n/a	n/a	n/a	n/a	n/a	n/a	n/a	n/a
3.0862	1.0167	ITI	n/a	n/a	n/a	n/a	n/a	n/a	n/a	n/a
4.1029	0.5	FIXCROSS	n/a	n/a	n/a	n/a	n/a	n/a	n/a	n/a
4.6029	0.85	T_INK	2	Incongruent	żółty	yellow	niebieski	blue	hit	n/a
5.4487	n/a	RESPONSE	n/a	n/a	n/a	n/a	n/a	n/a	n/a	blue
5.4529	0.5	FEEDBACK	n/a	n/a	n/a	n/a	n/a	n/a	n/a	n/a
5.9529	1.0	ITI	n/a	n/a	n/a	n/a	n/a	n/a	n/a	n/a
6.9528	0.5	FIXCROSS	n/a	n/a	n/a	n/a	n/a	n/a	n/a	n/a
7.4528	1.0	T_INK	3	Incongruent	zielony	green	żółty	yellow	hit	n/a
8.4366	n/a	RESPONSE	n/a	n/a	n/a	n/a	n/a	n/a	n/a	yellow
8.4528	0.5	FEEDBACK	n/a	n/a	n/a	n/a	n/a	n/a	n/a	n/a
8.9528	1.0	ITI	n/a	n/a	n/a	n/a	n/a	n/a	n/a	n/a
9.9528	0.5	FIXCROSS	n/a	n/a	n/a	n/a	n/a	n/a	n/a	n/a
10.4528	0.6833	T_INK	4	Incongruent	niebieski	blue	czerwony	red	hit	n/a
11.1211	n/a	RESPONSE	n/a	n/a	n/a	n/a	n/a	n/a	n/a	red
11.1361	0.5	FEEDBACK	n/a	n/a	n/a	n/a	n/a	n/a	n/a	n/a
11.6361	1.0	ITI	n/a	n/a	n/a	n/a	n/a	n/a	n/a	n/a
12.6361	0.5	FIXCROSS	n/a	n/a	n/a	n/a	n/a	n/a	n/a	n/a
13.136	0.7166	T_INK	5	Incongruent	niebieski	blue	żółty	yellow	hit	n/a
13.8374	n/a	RESPONSE	n/a	n/a	n/a	n/a	n/a	n/a	n/a	yellow
13.8527	0.5	FEEDBACK	n/a	n/a	n/a	n/a	n/a	n/a	n/a	n/a
14.3527	1.0	ITI	n/a	n/a	n/a	n/a	n/a	n/a	n/a	n/a
15.3527	0.5	FIXCROSS	n/a	n/a	n/a	n/a	n/a	n/a	n/a	n/a
15.8527	0.65	T_INK	6	Neutral	xxxxx	xxxxx	niebieski	blue	hit	n/a
16.4898	n/a	RESPONSE	n/a	n/a	n/a	n/a	n/a	n/a	n/a	blue
16.5027	0.5	FEEDBACK	n/a	n/a	n/a	n/a	n/a	n/a	n/a	n/a
17.0026	1.0	ITI	n/a	n/a	n/a	n/a	n/a	n/a	n/a	n/a
18.0026	0.5	FIXCROSS	n/a	n/a	n/a	n/a	n/a	n/a	n/a	n/a
18.5026	0.9833	T_INK	7	Incongruent	niebieski	blue	zielony	green	hit	n/a
19.4778	n/a	RESPONSE	n/a	n/a	n/a	n/a	n/a	n/a	n/a	green
19.4859	0.5	FEEDBACK	n/a	n/a	n/a	n/a	n/a	n/a	n/a	n/a
19.9859	1.0	ITI	n/a	n/a	n/a	n/a	n/a	n/a	n/a	n/a
20.9859	0.5	FIXCROSS	n/a	n/a	n/a	n/a	n/a	n/a	n/a	n/a
21.4859	1.0166	T_INK	8	Neutral	xxxxxxx	xxxxxxx	żółty	yellow	hit	n/a
22.4978	n/a	RESPONSE	n/a	n/a	n/a	n/a	n/a	n/a	n/a	yellow
22.5025	0.5	FEEDBACK	n/a	n/a	n/a	n/a	n/a	n/a	n/a	n/a
23.0025	1.0	ITI	n/a	n/a	n/a	n/a	n/a	n/a	n/a	n/a
24.0025	0.5	FIXCROSS	n/a	n/a	n/a	n/a	n/a	n/a	n/a	n/a
24.5025	0.8167	T_INK	9	Neutral	xxxxxxxx	xxxxxxxx	zielony	green	hit	n/a
25.3099	n/a	RESPONSE	n/a	n/a	n/a	n/a	n/a	n/a	n/a	green
25.3192	0.5	FEEDBACK	n/a	n/a	n/a	n/a	n/a	n/a	n/a	n/a
25.8191	1.0	ITI	n/a	n/a	n/a	n/a	n/a	n/a	n/a	n/a
26.8191	0.5	FIXCROSS	n/a	n/a	n/a	n/a	n/a	n/a	n/a	n/a
27.3191	0.8833	T_INK	10	Incongruent	czerwony	red	zielony	green	hit	n/a
28.1859	n/a	RESPONSE	n/a	n/a	n/a	n/a	n/a	n/a	n/a	green
28.2024	0.5	FEEDBACK	n/a	n/a	n/a	n/a	n/a	n/a	n/a	n/a
28.7024	1.0	ITI	n/a	n/a	n/a	n/a	n/a	n/a	n/a	n/a
29.7024	0.5	FIXCROSS	n/a	n/a	n/a	n/a	n/a	n/a	n/a	n/a
30.2024	0.65	T_INK	11	Incongruent	czerwony	red	żółty	yellow	hit	n/a
30.8383	n/a	RESPONSE	n/a	n/a	n/a	n/a	n/a	n/a	n/a	yellow
30.8524	0.5	FEEDBACK	n/a	n/a	n/a	n/a	n/a	n/a	n/a	n/a
31.3524	1.0	ITI	n/a	n/a	n/a	n/a	n/a	n/a	n/a	n/a
32.3523	0.5	FIXCROSS	n/a	n/a	n/a	n/a	n/a	n/a	n/a	n/a
32.8523	0.8666	T_INK	12	Incongruent	czerwony	red	niebieski	blue	hit	n/a
33.6984	n/a	RESPONSE	n/a	n/a	n/a	n/a	n/a	n/a	n/a	blue
33.719	0.5	FEEDBACK	n/a	n/a	n/a	n/a	n/a	n/a	n/a	n/a
34.219	1.0	ITI	n/a	n/a	n/a	n/a	n/a	n/a	n/a	n/a
37.8689	n/a	RESPONSE	n/a	n/a	n/a	n/a	n/a	n/a	n/a	n/a
37.9023	1.0	ITI	n/a	n/a	n/a	n/a	n/a	n/a	n/a	n/a
38.9022	0.5	FIXCROSS	n/a	n/a	n/a	n/a	n/a	n/a	n/a	n/a
39.4022	1.6333	INK	1	Incongruent	czerwony	red	zielony	green	hit	n/a
41.0326	n/a	RESPONSE	n/a	n/a	n/a	n/a	n/a	n/a	n/a	green
41.0355	1.0	ITI	n/a	n/a	n/a	n/a	n/a	n/a	n/a	n/a
42.0355	0.5	FIXCROSS	n/a	n/a	n/a	n/a	n/a	n/a	n/a	n/a
42.5355	0.75	INK	2	Neutral	xxxxxxxx	xxxxxxxx	niebieski	blue	hit	n/a
43.2696	n/a	RESPONSE	n/a	n/a	n/a	n/a	n/a	n/a	n/a	blue
43.2855	1.0	ITI	n/a	n/a	n/a	n/a	n/a	n/a	n/a	n/a
44.2855	0.5	FIXCROSS	n/a	n/a	n/a	n/a	n/a	n/a	n/a	n/a
44.7854	0.6167	INK	3	Incongruent	zielony	green	czerwony	red	hit	n/a
45.3947	n/a	RESPONSE	n/a	n/a	n/a	n/a	n/a	n/a	n/a	red
45.4021	1.0	ITI	n/a	n/a	n/a	n/a	n/a	n/a	n/a	n/a
46.4021	0.5	FIXCROSS	n/a	n/a	n/a	n/a	n/a	n/a	n/a	n/a
46.9021	0.65	INK	4	Incongruent	niebieski	blue	czerwony	red	hit	n/a
47.5358	n/a	RESPONSE	n/a	n/a	n/a	n/a	n/a	n/a	n/a	red
47.5521	1.0	ITI	n/a	n/a	n/a	n/a	n/a	n/a	n/a	n/a
48.552	0.5	FIXCROSS	n/a	n/a	n/a	n/a	n/a	n/a	n/a	n/a
49.052	0.5667	INK	5	Neutral	xxxxxxx	xxxxxxx	niebieski	blue	hit	n/a
49.6129	n/a	RESPONSE	n/a	n/a	n/a	n/a	n/a	n/a	n/a	blue
49.6187	1.0	ITI	n/a	n/a	n/a	n/a	n/a	n/a	n/a	n/a
50.6187	0.5	FIXCROSS	n/a	n/a	n/a	n/a	n/a	n/a	n/a	n/a
51.1187	0.65	INK	6	Incongruent	czerwony	red	niebieski	blue	hit	n/a
51.754	n/a	RESPONSE	n/a	n/a	n/a	n/a	n/a	n/a	n/a	blue
51.7687	1.0	ITI	n/a	n/a	n/a	n/a	n/a	n/a	n/a	n/a
52.7686	0.5	FIXCROSS	n/a	n/a	n/a	n/a	n/a	n/a	n/a	n/a
53.2686	0.4167	INK	7	Neutral	xxxxxxx	xxxxxxx	żółty	yellow	hit	n/a
53.6715	n/a	RESPONSE	n/a	n/a	n/a	n/a	n/a	n/a	n/a	yellow
53.6853	1.0	ITI	n/a	n/a	n/a	n/a	n/a	n/a	n/a	n/a
54.6853	0.5	FIXCROSS	n/a	n/a	n/a	n/a	n/a	n/a	n/a	n/a
55.1852	0.4833	INK	8	Neutral	xxxxxxxxx	xxxxxxxxx	żółty	yellow	hit	n/a
55.6527	n/a	RESPONSE	n/a	n/a	n/a	n/a	n/a	n/a	n/a	yellow
55.6686	1.0	ITI	n/a	n/a	n/a	n/a	n/a	n/a	n/a	n/a
56.6686	0.5	FIXCROSS	n/a	n/a	n/a	n/a	n/a	n/a	n/a	n/a
57.1685	0.6333	INK	9	Incongruent	żółty	yellow	czerwony	red	hit	n/a
57.7937	n/a	RESPONSE	n/a	n/a	n/a	n/a	n/a	n/a	n/a	red
57.8019	1.0	ITI	n/a	n/a	n/a	n/a	n/a	n/a	n/a	n/a
58.8019	0.5	FIXCROSS	n/a	n/a	n/a	n/a	n/a	n/a	n/a	n/a
59.3018	0.5833	INK	10	Neutral	xxxxxxxxx	xxxxxxxxx	czerwony	red	hit	n/a
59.8709	n/a	RESPONSE	n/a	n/a	n/a	n/a	n/a	n/a	n/a	red
59.8852	1.0	ITI	n/a	n/a	n/a	n/a	n/a	n/a	n/a	n/a
60.8851	0.5	FIXCROSS	n/a	n/a	n/a	n/a	n/a	n/a	n/a	n/a
61.3851	0.6667	INK	11	Neutral	xxxxxxxx	xxxxxxxx	zielony	green	hit	n/a
62.0439	n/a	RESPONSE	n/a	n/a	n/a	n/a	n/a	n/a	n/a	green
62.0518	1.0	ITI	n/a	n/a	n/a	n/a	n/a	n/a	n/a	n/a
63.0518	0.5	FIXCROSS	n/a	n/a	n/a	n/a	n/a	n/a	n/a	n/a
63.5518	0.6	INK	12	Neutral	xxxxxxxxx	xxxxxxxxx	żółty	yellow	hit	n/a
64.1371	n/a	RESPONSE	n/a	n/a	n/a	n/a	n/a	n/a	n/a	yellow
64.1517	1.0	ITI	n/a	n/a	n/a	n/a	n/a	n/a	n/a	n/a
65.1517	0.5	FIXCROSS	n/a	n/a	n/a	n/a	n/a	n/a	n/a	n/a
65.6517	0.6166	INK	13	Neutral	xxxxx	xxxxx	niebieski	blue	hit	n/a
66.2621	n/a	RESPONSE	n/a	n/a	n/a	n/a	n/a	n/a	n/a	blue
66.2684	1.0	ITI	n/a	n/a	n/a	n/a	n/a	n/a	n/a	n/a
67.2684	0.5	FIXCROSS	n/a	n/a	n/a	n/a	n/a	n/a	n/a	n/a
67.7683	0.5667	INK	14	Incongruent	czerwony	red	żółty	yellow	hit	n/a
68.3234	n/a	RESPONSE	n/a	n/a	n/a	n/a	n/a	n/a	n/a	yellow
68.335	1.0	ITI	n/a	n/a	n/a	n/a	n/a	n/a	n/a	n/a
69.335	0.5	FIXCROSS	n/a	n/a	n/a	n/a	n/a	n/a	n/a	n/a
69.835	0.6833	INK	15	Neutral	xxxxx	xxxxx	niebieski	blue	hit	n/a
70.5125	n/a	RESPONSE	n/a	n/a	n/a	n/a	n/a	n/a	n/a	blue
70.5183	1.0	ITI	n/a	n/a	n/a	n/a	n/a	n/a	n/a	n/a
71.5183	0.5	FIXCROSS	n/a	n/a	n/a	n/a	n/a	n/a	n/a	n/a
72.0183	0.6	INK	16	Incongruent	czerwony	red	niebieski	blue	hit	n/a
72.6056	n/a	RESPONSE	n/a	n/a	n/a	n/a	n/a	n/a	n/a	blue
72.6182	1.0	ITI	n/a	n/a	n/a	n/a	n/a	n/a	n/a	n/a
73.6182	0.5	FIXCROSS	n/a	n/a	n/a	n/a	n/a	n/a	n/a	n/a
74.1182	0.6	INK	17	Neutral	xxxxx	xxxxx	niebieski	blue	hit	n/a
74.7147	n/a	RESPONSE	n/a	n/a	n/a	n/a	n/a	n/a	n/a	blue
74.7182	1.0	ITI	n/a	n/a	n/a	n/a	n/a	n/a	n/a	n/a
75.7182	0.5	FIXCROSS	n/a	n/a	n/a	n/a	n/a	n/a	n/a	n/a
76.2182	0.5833	INK	18	Incongruent	niebieski	blue	żółty	yellow	hit	n/a
76.7919	n/a	RESPONSE	n/a	n/a	n/a	n/a	n/a	n/a	n/a	yellow
76.8015	1.0	ITI	n/a	n/a	n/a	n/a	n/a	n/a	n/a	n/a
77.8015	0.5	FIXCROSS	n/a	n/a	n/a	n/a	n/a	n/a	n/a	n/a
78.3015	0.5167	INK	19	Incongruent	niebieski	blue	żółty	yellow	hit	n/a
78.8053	n/a	RESPONSE	n/a	n/a	n/a	n/a	n/a	n/a	n/a	yellow
78.8181	1.0	ITI	n/a	n/a	n/a	n/a	n/a	n/a	n/a	n/a
79.8181	0.5	FIXCROSS	n/a	n/a	n/a	n/a	n/a	n/a	n/a	n/a
80.3181	0.5667	INK	20	Neutral	xxxxxxx	xxxxxxx	żółty	yellow	hit	n/a
80.8664	n/a	RESPONSE	n/a	n/a	n/a	n/a	n/a	n/a	n/a	yellow
80.8848	1.0	ITI	n/a	n/a	n/a	n/a	n/a	n/a	n/a	n/a
81.8847	0.4992	FIXCROSS	n/a	n/a	n/a	n/a	n/a	n/a	n/a	n/a
82.384	0.4841	INK	21	Incongruent	zielony	green	niebieski	blue	hit	n/a
82.8638	n/a	RESPONSE	n/a	n/a	n/a	n/a	n/a	n/a	n/a	blue
82.8681	1.0	ITI	n/a	n/a	n/a	n/a	n/a	n/a	n/a	n/a
83.868	0.5	FIXCROSS	n/a	n/a	n/a	n/a	n/a	n/a	n/a	n/a
84.368	0.5333	INK	22	Incongruent	zielony	green	czerwony	red	hit	n/a
84.893	n/a	RESPONSE	n/a	n/a	n/a	n/a	n/a	n/a	n/a	red
84.9014	1.0	ITI	n/a	n/a	n/a	n/a	n/a	n/a	n/a	n/a
85.9013	0.5	FIXCROSS	n/a	n/a	n/a	n/a	n/a	n/a	n/a	n/a
86.4013	0.6333	INK	23	Incongruent	niebieski	blue	zielony	green	hit	n/a
87.0183	n/a	RESPONSE	n/a	n/a	n/a	n/a	n/a	n/a	n/a	green
87.0346	1.0	ITI	n/a	n/a	n/a	n/a	n/a	n/a	n/a	n/a
88.0346	0.5	FIXCROSS	n/a	n/a	n/a	n/a	n/a	n/a	n/a	n/a
88.5346	0.8	INK	24	Neutral	xxxxx	xxxxx	zielony	green	hit	n/a
89.319	n/a	RESPONSE	n/a	n/a	n/a	n/a	n/a	n/a	n/a	green
89.3346	1.0	ITI	n/a	n/a	n/a	n/a	n/a	n/a	n/a	n/a
90.3346	0.5	FIXCROSS	n/a	n/a	n/a	n/a	n/a	n/a	n/a	n/a
90.8346	0.6	INK	25	Neutral	xxxxxxxxx	xxxxxxxxx	czerwony	red	hit	n/a
91.4282	n/a	RESPONSE	n/a	n/a	n/a	n/a	n/a	n/a	n/a	red
91.4345	1.0	ITI	n/a	n/a	n/a	n/a	n/a	n/a	n/a	n/a
92.4345	0.5	FIXCROSS	n/a	n/a	n/a	n/a	n/a	n/a	n/a	n/a
92.9345	0.5666	INK	26	Incongruent	żółty	yellow	niebieski	blue	hit	n/a
93.4895	n/a	RESPONSE	n/a	n/a	n/a	n/a	n/a	n/a	n/a	blue
93.5012	1.0	ITI	n/a	n/a	n/a	n/a	n/a	n/a	n/a	n/a
94.5012	0.5	FIXCROSS	n/a	n/a	n/a	n/a	n/a	n/a	n/a	n/a
95.0012	0.6167	INK	27	Incongruent	żółty	yellow	zielony	green	hit	n/a
95.6145	n/a	RESPONSE	n/a	n/a	n/a	n/a	n/a	n/a	n/a	green
95.6178	1.0	ITI	n/a	n/a	n/a	n/a	n/a	n/a	n/a	n/a
96.6178	0.5	FIXCROSS	n/a	n/a	n/a	n/a	n/a	n/a	n/a	n/a
97.1178	0.5167	INK	28	Neutral	xxxxxxxxx	xxxxxxxxx	zielony	green	hit	n/a
97.6279	n/a	RESPONSE	n/a	n/a	n/a	n/a	n/a	n/a	n/a	green
97.6344	1.0	ITI	n/a	n/a	n/a	n/a	n/a	n/a	n/a	n/a
98.6344	0.5	FIXCROSS	n/a	n/a	n/a	n/a	n/a	n/a	n/a	n/a
99.1344	0.35	INK	29	Neutral	xxxxxxxx	xxxxxxxx	żółty	yellow	hit	n/a
99.4653	n/a	RESPONSE	n/a	n/a	n/a	n/a	n/a	n/a	n/a	yellow
99.4844	1.0	ITI	n/a	n/a	n/a	n/a	n/a	n/a	n/a	n/a
100.4844	0.5	FIXCROSS	n/a	n/a	n/a	n/a	n/a	n/a	n/a	n/a
100.9844	0.7666	INK	30	Neutral	xxxxxxxxx	xxxxxxxxx	żółty	yellow	hit	n/a
101.7344	n/a	RESPONSE	n/a	n/a	n/a	n/a	n/a	n/a	n/a	yellow
101.751	1.0	ITI	n/a	n/a	n/a	n/a	n/a	n/a	n/a	n/a
102.751	0.5	FIXCROSS	n/a	n/a	n/a	n/a	n/a	n/a	n/a	n/a
103.251	0.4	INK	31	Incongruent	zielony	green	żółty	yellow	hit	n/a
103.6357	n/a	RESPONSE	n/a	n/a	n/a	n/a	n/a	n/a	n/a	yellow
103.651	1.0	ITI	n/a	n/a	n/a	n/a	n/a	n/a	n/a	n/a
104.651	0.5	FIXCROSS	n/a	n/a	n/a	n/a	n/a	n/a	n/a	n/a
105.151	0.5333	INK	32	Neutral	xxxxx	xxxxx	czerwony	red	hit	n/a
105.6811	n/a	RESPONSE	n/a	n/a	n/a	n/a	n/a	n/a	n/a	red
105.6843	1.0	ITI	n/a	n/a	n/a	n/a	n/a	n/a	n/a	n/a
106.6843	0.5	FIXCROSS	n/a	n/a	n/a	n/a	n/a	n/a	n/a	n/a
107.1843	0.6333	INK	33	Incongruent	niebieski	blue	zielony	green	hit	n/a
107.8062	n/a	RESPONSE	n/a	n/a	n/a	n/a	n/a	n/a	n/a	green
107.8176	1.0	ITI	n/a	n/a	n/a	n/a	n/a	n/a	n/a	n/a
108.8176	0.5	FIXCROSS	n/a	n/a	n/a	n/a	n/a	n/a	n/a	n/a
109.3176	0.45	INK	34	Incongruent	zielony	green	niebieski	blue	hit	n/a
109.7556	n/a	RESPONSE	n/a	n/a	n/a	n/a	n/a	n/a	n/a	blue
109.7675	1.0	ITI	n/a	n/a	n/a	n/a	n/a	n/a	n/a	n/a
110.7675	0.5	FIXCROSS	n/a	n/a	n/a	n/a	n/a	n/a	n/a	n/a
111.2675	0.8167	INK	35	Incongruent	niebieski	blue	zielony	green	hit	n/a
112.0724	n/a	RESPONSE	n/a	n/a	n/a	n/a	n/a	n/a	n/a	green
112.0842	1.0	ITI	n/a	n/a	n/a	n/a	n/a	n/a	n/a	n/a
113.0842	0.5	FIXCROSS	n/a	n/a	n/a	n/a	n/a	n/a	n/a	n/a
113.5841	0.6167	INK	36	Neutral	xxxxxxxxx	xxxxxxxxx	zielony	green	hit	n/a
114.1816	n/a	RESPONSE	n/a	n/a	n/a	n/a	n/a	n/a	n/a	green
114.2008	1.0	ITI	n/a	n/a	n/a	n/a	n/a	n/a	n/a	n/a
115.2008	0.5	FIXCROSS	n/a	n/a	n/a	n/a	n/a	n/a	n/a	n/a
115.7008	0.8167	INK	37	Incongruent	żółty	yellow	zielony	green	incorrect	n/a
116.4985	n/a	RESPONSE	n/a	n/a	n/a	n/a	n/a	n/a	n/a	yellow
116.5174	1.0	ITI	n/a	n/a	n/a	n/a	n/a	n/a	n/a	n/a
117.5174	0.5	FIXCROSS	n/a	n/a	n/a	n/a	n/a	n/a	n/a	n/a
118.0174	0.9333	INK	38	Neutral	xxxxxxx	xxxxxxx	czerwony	red	hit	n/a
118.9432	n/a	RESPONSE	n/a	n/a	n/a	n/a	n/a	n/a	n/a	red
118.9507	1.0	ITI	n/a	n/a	n/a	n/a	n/a	n/a	n/a	n/a
119.9507	0.5	FIXCROSS	n/a	n/a	n/a	n/a	n/a	n/a	n/a	n/a
120.4507	0.7667	INK	39	Incongruent	żółty	yellow	czerwony	red	hit	n/a
121.2122	n/a	RESPONSE	n/a	n/a	n/a	n/a	n/a	n/a	n/a	red
121.2173	1.0	ITI	n/a	n/a	n/a	n/a	n/a	n/a	n/a	n/a
122.2173	0.5	FIXCROSS	n/a	n/a	n/a	n/a	n/a	n/a	n/a	n/a
122.7173	1.1	INK	40	Incongruent	zielony	green	czerwony	red	hit	n/a
123.8007	n/a	RESPONSE	n/a	n/a	n/a	n/a	n/a	n/a	n/a	red
123.8173	1.0	ITI	n/a	n/a	n/a	n/a	n/a	n/a	n/a	n/a
124.8173	0.5	FIXCROSS	n/a	n/a	n/a	n/a	n/a	n/a	n/a	n/a
125.3172	0.6667	INK	41	Neutral	xxxxxxxx	xxxxxxxx	zielony	green	hit	n/a
125.9739	n/a	RESPONSE	n/a	n/a	n/a	n/a	n/a	n/a	n/a	green
125.9839	1.0	ITI	n/a	n/a	n/a	n/a	n/a	n/a	n/a	n/a
126.9839	0.5	FIXCROSS	n/a	n/a	n/a	n/a	n/a	n/a	n/a	n/a
127.4839	1.3333	INK	42	Incongruent	żółty	yellow	zielony	green	hit	n/a
128.802	n/a	RESPONSE	n/a	n/a	n/a	n/a	n/a	n/a	n/a	green
128.8172	1.0	ITI	n/a	n/a	n/a	n/a	n/a	n/a	n/a	n/a
129.8172	0.5	FIXCROSS	n/a	n/a	n/a	n/a	n/a	n/a	n/a	n/a
130.3172	0.5333	INK	43	Neutral	xxxxxxx	xxxxxxx	czerwony	red	hit	n/a
130.8474	n/a	RESPONSE	n/a	n/a	n/a	n/a	n/a	n/a	n/a	red
130.8505	1.0	ITI	n/a	n/a	n/a	n/a	n/a	n/a	n/a	n/a
131.8505	0.5	FIXCROSS	n/a	n/a	n/a	n/a	n/a	n/a	n/a	n/a
132.3504	0.65	INK	44	Neutral	xxxxxxxx	xxxxxxxx	zielony	green	hit	n/a
132.9885	n/a	RESPONSE	n/a	n/a	n/a	n/a	n/a	n/a	n/a	green
133.0004	1.0	ITI	n/a	n/a	n/a	n/a	n/a	n/a	n/a	n/a
134.0004	0.5	FIXCROSS	n/a	n/a	n/a	n/a	n/a	n/a	n/a	n/a
134.5004	0.6	INK	45	Neutral	xxxxxxx	xxxxxxx	niebieski	blue	hit	n/a
135.0817	n/a	RESPONSE	n/a	n/a	n/a	n/a	n/a	n/a	n/a	blue
135.1004	1.0	ITI	n/a	n/a	n/a	n/a	n/a	n/a	n/a	n/a
136.1004	0.5	FIXCROSS	n/a	n/a	n/a	n/a	n/a	n/a	n/a	n/a
136.6004	0.85	INK	46	Incongruent	niebieski	blue	czerwony	red	hit	n/a
137.4466	n/a	RESPONSE	n/a	n/a	n/a	n/a	n/a	n/a	n/a	red
137.4504	1.0	ITI	n/a	n/a	n/a	n/a	n/a	n/a	n/a	n/a
138.4503	0.5	FIXCROSS	n/a	n/a	n/a	n/a	n/a	n/a	n/a	n/a
138.9503	0.75	INK	47	Incongruent	zielony	green	żółty	yellow	hit	n/a
139.6837	n/a	RESPONSE	n/a	n/a	n/a	n/a	n/a	n/a	n/a	yellow
139.7003	1.0	ITI	n/a	n/a	n/a	n/a	n/a	n/a	n/a	n/a
140.7003	0.5	FIXCROSS	n/a	n/a	n/a	n/a	n/a	n/a	n/a	n/a
141.2003	0.8667	INK	48	Incongruent	zielony	green	żółty	yellow	hit	n/a
142.0484	n/a	RESPONSE	n/a	n/a	n/a	n/a	n/a	n/a	n/a	yellow
142.0669	1.0	ITI	n/a	n/a	n/a	n/a	n/a	n/a	n/a	n/a
143.0669	0.5	FIXCROSS	n/a	n/a	n/a	n/a	n/a	n/a	n/a	n/a
143.5669	0.5333	INK	49	Neutral	xxxxxxxxx	xxxxxxxxx	zielony	green	hit	n/a
144.0937	n/a	RESPONSE	n/a	n/a	n/a	n/a	n/a	n/a	n/a	green
144.1002	1.0	ITI	n/a	n/a	n/a	n/a	n/a	n/a	n/a	n/a
145.1002	0.5	FIXCROSS	n/a	n/a	n/a	n/a	n/a	n/a	n/a	n/a
145.6002	0.6333	INK	50	Neutral	xxxxx	xxxxx	czerwony	red	hit	n/a
146.2189	n/a	RESPONSE	n/a	n/a	n/a	n/a	n/a	n/a	n/a	red
146.2335	1.0	ITI	n/a	n/a	n/a	n/a	n/a	n/a	n/a	n/a
147.2335	0.5	FIXCROSS	n/a	n/a	n/a	n/a	n/a	n/a	n/a	n/a
147.7335	0.8833	INK	51	Incongruent	czerwony	red	niebieski	blue	hit	n/a
148.5997	n/a	RESPONSE	n/a	n/a	n/a	n/a	n/a	n/a	n/a	blue
148.6168	1.0	ITI	n/a	n/a	n/a	n/a	n/a	n/a	n/a	n/a
149.6168	0.5	FIXCROSS	n/a	n/a	n/a	n/a	n/a	n/a	n/a	n/a
150.1168	0.5	INK	52	Neutral	xxxxx	xxxxx	czerwony	red	hit	n/a
150.6129	n/a	RESPONSE	n/a	n/a	n/a	n/a	n/a	n/a	n/a	red
150.6168	1.0	ITI	n/a	n/a	n/a	n/a	n/a	n/a	n/a	n/a
151.6167	0.5	FIXCROSS	n/a	n/a	n/a	n/a	n/a	n/a	n/a	n/a
152.1167	0.6333	INK	53	Neutral	xxxxx	xxxxx	zielony	green	hit	n/a
152.7382	n/a	RESPONSE	n/a	n/a	n/a	n/a	n/a	n/a	n/a	green
152.7501	1.0	ITI	n/a	n/a	n/a	n/a	n/a	n/a	n/a	n/a
153.75	0.5	FIXCROSS	n/a	n/a	n/a	n/a	n/a	n/a	n/a	n/a
154.25	0.8	INK	54	Incongruent	czerwony	red	zielony	green	hit	n/a
155.0391	n/a	RESPONSE	n/a	n/a	n/a	n/a	n/a	n/a	n/a	green
155.05	1.0	ITI	n/a	n/a	n/a	n/a	n/a	n/a	n/a	n/a
156.05	0.5	FIXCROSS	n/a	n/a	n/a	n/a	n/a	n/a	n/a	n/a
156.55	1.0166	INK	55	Neutral	xxxxxxxx	xxxxxxxx	niebieski	blue	hit	n/a
157.5637	n/a	RESPONSE	n/a	n/a	n/a	n/a	n/a	n/a	n/a	blue
157.5666	1.0	ITI	n/a	n/a	n/a	n/a	n/a	n/a	n/a	n/a
158.5666	0.5	FIXCROSS	n/a	n/a	n/a	n/a	n/a	n/a	n/a	n/a
159.0666	0.6667	INK	56	Incongruent	żółty	yellow	niebieski	blue	hit	n/a
159.7208	n/a	RESPONSE	n/a	n/a	n/a	n/a	n/a	n/a	n/a	blue
159.7333	0.9999	ITI	n/a	n/a	n/a	n/a	n/a	n/a	n/a	n/a
160.7332	0.5001	FIXCROSS	n/a	n/a	n/a	n/a	n/a	n/a	n/a	n/a
161.2332	0.5667	INK	57	Incongruent	niebieski	blue	czerwony	red	hit	n/a
161.782	n/a	RESPONSE	n/a	n/a	n/a	n/a	n/a	n/a	n/a	red
161.7999	1.0	ITI	n/a	n/a	n/a	n/a	n/a	n/a	n/a	n/a
162.7999	0.5	FIXCROSS	n/a	n/a	n/a	n/a	n/a	n/a	n/a	n/a
163.2999	0.75	INK	58	Neutral	xxxxx	xxxxx	zielony	green	hit	n/a
164.0348	n/a	RESPONSE	n/a	n/a	n/a	n/a	n/a	n/a	n/a	green
164.0498	1.0	ITI	n/a	n/a	n/a	n/a	n/a	n/a	n/a	n/a
165.0498	0.5	FIXCROSS	n/a	n/a	n/a	n/a	n/a	n/a	n/a	n/a
165.5498	0.55	INK	59	Neutral	xxxxxxxxx	xxxxxxxxx	czerwony	red	hit	n/a
166.0961	n/a	RESPONSE	n/a	n/a	n/a	n/a	n/a	n/a	n/a	red
166.0998	1.0	ITI	n/a	n/a	n/a	n/a	n/a	n/a	n/a	n/a
167.0998	0.5	FIXCROSS	n/a	n/a	n/a	n/a	n/a	n/a	n/a	n/a
167.5998	0.7833	INK	60	Incongruent	czerwony	red	zielony	green	hit	n/a
168.3651	n/a	RESPONSE	n/a	n/a	n/a	n/a	n/a	n/a	n/a	green
168.3831	1.0	ITI	n/a	n/a	n/a	n/a	n/a	n/a	n/a	n/a
169.3831	0.5	FIXCROSS	n/a	n/a	n/a	n/a	n/a	n/a	n/a	n/a
169.8831	0.9833	INK	61	Incongruent	żółty	yellow	czerwony	red	hit	n/a
170.8578	n/a	RESPONSE	n/a	n/a	n/a	n/a	n/a	n/a	n/a	red
170.8664	1.0	ITI	n/a	n/a	n/a	n/a	n/a	n/a	n/a	n/a
171.8664	0.5	FIXCROSS	n/a	n/a	n/a	n/a	n/a	n/a	n/a	n/a
172.3664	0.9666	INK	62	Incongruent	niebieski	blue	żółty	yellow	hit	n/a
173.3185	n/a	RESPONSE	n/a	n/a	n/a	n/a	n/a	n/a	n/a	yellow
173.333	1.0	ITI	n/a	n/a	n/a	n/a	n/a	n/a	n/a	n/a
174.333	0.5	FIXCROSS	n/a	n/a	n/a	n/a	n/a	n/a	n/a	n/a
174.833	0.5667	INK	63	Neutral	xxxxxxxx	xxxxxxxx	żółty	yellow	hit	n/a
175.3957	n/a	RESPONSE	n/a	n/a	n/a	n/a	n/a	n/a	n/a	yellow
175.3996	1.0	ITI	n/a	n/a	n/a	n/a	n/a	n/a	n/a	n/a
176.3996	0.5	FIXCROSS	n/a	n/a	n/a	n/a	n/a	n/a	n/a	n/a
176.8996	1.4166	INK	64	Neutral	xxxxxxx	xxxxxxx	niebieski	blue	hit	n/a
178.3039	n/a	RESPONSE	n/a	n/a	n/a	n/a	n/a	n/a	n/a	blue
178.3163	1.0	ITI	n/a	n/a	n/a	n/a	n/a	n/a	n/a	n/a
179.3162	0.5	FIXCROSS	n/a	n/a	n/a	n/a	n/a	n/a	n/a	n/a
179.8162	0.7333	INK	65	Incongruent	czerwony	red	żółty	yellow	hit	n/a
180.5409	n/a	RESPONSE	n/a	n/a	n/a	n/a	n/a	n/a	n/a	yellow
180.5495	1.0	ITI	n/a	n/a	n/a	n/a	n/a	n/a	n/a	n/a
181.5495	0.5	FIXCROSS	n/a	n/a	n/a	n/a	n/a	n/a	n/a	n/a
182.0495	0.7333	INK	66	Incongruent	żółty	yellow	niebieski	blue	hit	n/a
182.7777	n/a	RESPONSE	n/a	n/a	n/a	n/a	n/a	n/a	n/a	blue
182.7828	1.0	ITI	n/a	n/a	n/a	n/a	n/a	n/a	n/a	n/a
183.7828	0.5	FIXCROSS	n/a	n/a	n/a	n/a	n/a	n/a	n/a	n/a
184.2828	0.7833	INK	67	Neutral	xxxxxxx	xxxxxxx	żółty	yellow	hit	n/a
185.0625	n/a	RESPONSE	n/a	n/a	n/a	n/a	n/a	n/a	n/a	yellow
185.0661	1.0	ITI	n/a	n/a	n/a	n/a	n/a	n/a	n/a	n/a
186.0661	0.5	FIXCROSS	n/a	n/a	n/a	n/a	n/a	n/a	n/a	n/a
186.5661	0.6	INK	68	Neutral	xxxxxxxx	xxxxxxxx	żółty	yellow	hit	n/a
187.1558	n/a	RESPONSE	n/a	n/a	n/a	n/a	n/a	n/a	n/a	yellow
187.1661	1.0	ITI	n/a	n/a	n/a	n/a	n/a	n/a	n/a	n/a
188.1661	0.5	FIXCROSS	n/a	n/a	n/a	n/a	n/a	n/a	n/a	n/a
188.6661	0.4666	INK	69	Incongruent	czerwony	red	żółty	yellow	hit	n/a
189.1211	n/a	RESPONSE	n/a	n/a	n/a	n/a	n/a	n/a	n/a	yellow
189.1327	1.0	ITI	n/a	n/a	n/a	n/a	n/a	n/a	n/a	n/a
190.1327	0.5	FIXCROSS	n/a	n/a	n/a	n/a	n/a	n/a	n/a	n/a
190.6327	0.6333	INK	70	Neutral	xxxxxxx	xxxxxxx	czerwony	red	hit	n/a
191.2623	n/a	RESPONSE	n/a	n/a	n/a	n/a	n/a	n/a	n/a	red
191.266	1.0	ITI	n/a	n/a	n/a	n/a	n/a	n/a	n/a	n/a
192.266	0.5	FIXCROSS	n/a	n/a	n/a	n/a	n/a	n/a	n/a	n/a
192.766	0.5	INK	71	Incongruent	zielony	green	niebieski	blue	hit	n/a
193.2596	n/a	RESPONSE	n/a	n/a	n/a	n/a	n/a	n/a	n/a	blue
193.266	1.0	ITI	n/a	n/a	n/a	n/a	n/a	n/a	n/a	n/a
194.2659	0.5	FIXCROSS	n/a	n/a	n/a	n/a	n/a	n/a	n/a	n/a
194.7659	0.5	INK	72	Neutral	xxxxxxxx	xxxxxxxx	niebieski	blue	hit	n/a
195.257	n/a	RESPONSE	n/a	n/a	n/a	n/a	n/a	n/a	n/a	blue
195.2659	1.0333	ITI	n/a	n/a	n/a	n/a	n/a	n/a	n/a	n/a
207.0493	n/a	RESPONSE	n/a	n/a	n/a	n/a	n/a	n/a	n/a	n/a
207.0824	1.0	ITI	n/a	n/a	n/a	n/a	n/a	n/a	n/a	n/a
208.0823	0.5	FIXCROSS	n/a	n/a	n/a	n/a	n/a	n/a	n/a	n/a
208.5823	1.15	T_COLOR_NAME	1	Neutral	zielony	green	Neutral	Neutral	hit	n/a
209.7177	n/a	RESPONSE	n/a	n/a	n/a	n/a	n/a	n/a	n/a	green
209.7323	0.5	FEEDBACK	n/a	n/a	n/a	n/a	n/a	n/a	n/a	n/a
210.2323	1.0	ITI	n/a	n/a	n/a	n/a	n/a	n/a	n/a	n/a
211.2323	0.5	FIXCROSS	n/a	n/a	n/a	n/a	n/a	n/a	n/a	n/a
211.7323	0.7333	T_COLOR_NAME	2	Neutral	żółty	yellow	Neutral	Neutral	hit	n/a
212.4501	n/a	RESPONSE	n/a	n/a	n/a	n/a	n/a	n/a	n/a	yellow
212.4656	0.5	FEEDBACK	n/a	n/a	n/a	n/a	n/a	n/a	n/a	n/a
212.9656	1.0	ITI	n/a	n/a	n/a	n/a	n/a	n/a	n/a	n/a
213.9656	0.5	FIXCROSS	n/a	n/a	n/a	n/a	n/a	n/a	n/a	n/a
214.4656	1.25	T_COLOR_NAME	3	Incongruent	czerwony	red	niebieski	blue	hit	n/a
215.7097	n/a	RESPONSE	n/a	n/a	n/a	n/a	n/a	n/a	n/a	red
215.7155	0.5	FEEDBACK	n/a	n/a	n/a	n/a	n/a	n/a	n/a	n/a
216.2155	1.0	ITI	n/a	n/a	n/a	n/a	n/a	n/a	n/a	n/a
217.2155	0.5	FIXCROSS	n/a	n/a	n/a	n/a	n/a	n/a	n/a	n/a
217.7155	1.05	T_COLOR_NAME	4	Incongruent	niebieski	blue	żółty	yellow	hit	n/a
218.7456	n/a	RESPONSE	n/a	n/a	n/a	n/a	n/a	n/a	n/a	blue
218.7655	0.5	FEEDBACK	n/a	n/a	n/a	n/a	n/a	n/a	n/a	n/a
219.2655	1.0	ITI	n/a	n/a	n/a	n/a	n/a	n/a	n/a	n/a
220.2655	0.5	FIXCROSS	n/a	n/a	n/a	n/a	n/a	n/a	n/a	n/a
220.7654	0.8667	T_COLOR_NAME	5	Incongruent	niebieski	blue	zielony	green	hit	n/a
221.6217	n/a	RESPONSE	n/a	n/a	n/a	n/a	n/a	n/a	n/a	blue
221.6321	0.5	FEEDBACK	n/a	n/a	n/a	n/a	n/a	n/a	n/a	n/a
222.1321	1.0	ITI	n/a	n/a	n/a	n/a	n/a	n/a	n/a	n/a
223.1321	0.5	FIXCROSS	n/a	n/a	n/a	n/a	n/a	n/a	n/a	n/a
223.632	0.8667	T_COLOR_NAME	6	Incongruent	zielony	green	żółty	yellow	hit	n/a
224.4818	n/a	RESPONSE	n/a	n/a	n/a	n/a	n/a	n/a	n/a	green
224.4987	0.5	FEEDBACK	n/a	n/a	n/a	n/a	n/a	n/a	n/a	n/a
224.9987	1.0	ITI	n/a	n/a	n/a	n/a	n/a	n/a	n/a	n/a
225.9987	0.5	FIXCROSS	n/a	n/a	n/a	n/a	n/a	n/a	n/a	n/a
226.4987	0.6333	T_COLOR_NAME	7	Neutral	żółty	yellow	Neutral	Neutral	hit	n/a
227.1184	n/a	RESPONSE	n/a	n/a	n/a	n/a	n/a	n/a	n/a	yellow
227.132	0.5	FEEDBACK	n/a	n/a	n/a	n/a	n/a	n/a	n/a	n/a
227.632	1.0	ITI	n/a	n/a	n/a	n/a	n/a	n/a	n/a	n/a
228.6319	0.5	FIXCROSS	n/a	n/a	n/a	n/a	n/a	n/a	n/a	n/a
229.1319	1.4166	T_COLOR_NAME	8	Incongruent	niebieski	blue	czerwony	red	hit	n/a
230.5379	n/a	RESPONSE	n/a	n/a	n/a	n/a	n/a	n/a	n/a	blue
230.5486	0.5	FEEDBACK	n/a	n/a	n/a	n/a	n/a	n/a	n/a	n/a
231.0486	1.0	ITI	n/a	n/a	n/a	n/a	n/a	n/a	n/a	n/a
232.0486	0.5	FIXCROSS	n/a	n/a	n/a	n/a	n/a	n/a	n/a	n/a
232.5485	0.8167	T_COLOR_NAME	9	Neutral	czerwony	red	Neutral	Neutral	hit	n/a
233.3501	n/a	RESPONSE	n/a	n/a	n/a	n/a	n/a	n/a	n/a	red
233.3652	0.5	FEEDBACK	n/a	n/a	n/a	n/a	n/a	n/a	n/a	n/a
233.8652	1.0	ITI	n/a	n/a	n/a	n/a	n/a	n/a	n/a	n/a
234.8652	0.5	FIXCROSS	n/a	n/a	n/a	n/a	n/a	n/a	n/a	n/a
235.3652	0.8666	T_COLOR_NAME	10	Incongruent	czerwony	red	żółty	yellow	incorrect	n/a
236.2261	n/a	RESPONSE	n/a	n/a	n/a	n/a	n/a	n/a	n/a	yellow
236.2318	0.5	FEEDBACK	n/a	n/a	n/a	n/a	n/a	n/a	n/a	n/a
236.7318	1.0	ITI	n/a	n/a	n/a	n/a	n/a	n/a	n/a	n/a
237.7318	0.5	FIXCROSS	n/a	n/a	n/a	n/a	n/a	n/a	n/a	n/a
238.2318	1.2333	T_COLOR_NAME	11	Incongruent	czerwony	red	zielony	green	hit	n/a
239.454	n/a	RESPONSE	n/a	n/a	n/a	n/a	n/a	n/a	n/a	red
239.4651	0.5	FEEDBACK	n/a	n/a	n/a	n/a	n/a	n/a	n/a	n/a
239.9651	1.0	ITI	n/a	n/a	n/a	n/a	n/a	n/a	n/a	n/a
240.9651	0.5	FIXCROSS	n/a	n/a	n/a	n/a	n/a	n/a	n/a	n/a
241.4651	1.45	T_COLOR_NAME	12	Incongruent	żółty	yellow	niebieski	blue	hit	n/a
242.9053	n/a	RESPONSE	n/a	n/a	n/a	n/a	n/a	n/a	n/a	yellow
242.915	0.5	FEEDBACK	n/a	n/a	n/a	n/a	n/a	n/a	n/a	n/a
243.415	1.0	ITI	n/a	n/a	n/a	n/a	n/a	n/a	n/a	n/a
245.4939	n/a	RESPONSE	n/a	n/a	n/a	n/a	n/a	n/a	n/a	n/a
245.515	1.0	ITI	n/a	n/a	n/a	n/a	n/a	n/a	n/a	n/a
246.5149	0.5	FIXCROSS	n/a	n/a	n/a	n/a	n/a	n/a	n/a	n/a
247.0149	1.1833	COLOR_NAME	1	Incongruent	niebieski	blue	zielony	green	hit	n/a
248.1943	n/a	RESPONSE	n/a	n/a	n/a	n/a	n/a	n/a	n/a	blue
248.1982	1.0	ITI	n/a	n/a	n/a	n/a	n/a	n/a	n/a	n/a
249.1982	0.5	FIXCROSS	n/a	n/a	n/a	n/a	n/a	n/a	n/a	n/a
249.6982	0.75	COLOR_NAME	2	Neutral	czerwony	red	Neutral	Neutral	hit	n/a
250.4313	n/a	RESPONSE	n/a	n/a	n/a	n/a	n/a	n/a	n/a	red
250.4482	1.0	ITI	n/a	n/a	n/a	n/a	n/a	n/a	n/a	n/a
251.4482	0.5	FIXCROSS	n/a	n/a	n/a	n/a	n/a	n/a	n/a	n/a
251.9482	0.6333	COLOR_NAME	3	Neutral	czerwony	red	Neutral	Neutral	hit	n/a
252.5725	n/a	RESPONSE	n/a	n/a	n/a	n/a	n/a	n/a	n/a	red
252.5815	1.0	ITI	n/a	n/a	n/a	n/a	n/a	n/a	n/a	n/a
253.5815	0.5	FIXCROSS	n/a	n/a	n/a	n/a	n/a	n/a	n/a	n/a
254.0815	0.7167	COLOR_NAME	4	Incongruent	żółty	yellow	czerwony	red	hit	n/a
254.7935	n/a	RESPONSE	n/a	n/a	n/a	n/a	n/a	n/a	n/a	yellow
254.7981	1.0	ITI	n/a	n/a	n/a	n/a	n/a	n/a	n/a	n/a
255.7981	0.5	FIXCROSS	n/a	n/a	n/a	n/a	n/a	n/a	n/a	n/a
256.2981	0.5667	COLOR_NAME	5	Neutral	żółty	yellow	Neutral	Neutral	hit	n/a
256.8548	n/a	RESPONSE	n/a	n/a	n/a	n/a	n/a	n/a	n/a	yellow
256.8648	1.0	ITI	n/a	n/a	n/a	n/a	n/a	n/a	n/a	n/a
257.8647	0.5	FIXCROSS	n/a	n/a	n/a	n/a	n/a	n/a	n/a	n/a
258.3647	0.9667	COLOR_NAME	6	Incongruent	czerwony	red	zielony	green	hit	n/a
259.3156	n/a	RESPONSE	n/a	n/a	n/a	n/a	n/a	n/a	n/a	red
259.3314	1.0	ITI	n/a	n/a	n/a	n/a	n/a	n/a	n/a	n/a
260.3314	0.5	FIXCROSS	n/a	n/a	n/a	n/a	n/a	n/a	n/a	n/a
260.8313	0.8	COLOR_NAME	7	Neutral	niebieski	blue	Neutral	Neutral	hit	n/a
261.6166	n/a	RESPONSE	n/a	n/a	n/a	n/a	n/a	n/a	n/a	blue
261.6313	1.0	ITI	n/a	n/a	n/a	n/a	n/a	n/a	n/a	n/a
262.6313	0.5	FIXCROSS	n/a	n/a	n/a	n/a	n/a	n/a	n/a	n/a
263.1313	1.1166	COLOR_NAME	8	Incongruent	zielony	green	czerwony	red	hit	n/a
264.2371	n/a	RESPONSE	n/a	n/a	n/a	n/a	n/a	n/a	n/a	green
264.2479	0.9998	ITI	n/a	n/a	n/a	n/a	n/a	n/a	n/a	n/a
265.2478	0.5001	FIXCROSS	n/a	n/a	n/a	n/a	n/a	n/a	n/a	n/a
265.7479	0.75	COLOR_NAME	9	Neutral	niebieski	blue	Neutral	Neutral	hit	n/a
266.49	n/a	RESPONSE	n/a	n/a	n/a	n/a	n/a	n/a	n/a	blue
266.4979	1.0	ITI	n/a	n/a	n/a	n/a	n/a	n/a	n/a	n/a
267.4979	0.5	FIXCROSS	n/a	n/a	n/a	n/a	n/a	n/a	n/a	n/a
267.9979	0.7166	COLOR_NAME	10	Incongruent	czerwony	red	zielony	green	hit	n/a
268.7111	n/a	RESPONSE	n/a	n/a	n/a	n/a	n/a	n/a	n/a	red
268.7145	1.0	ITI	n/a	n/a	n/a	n/a	n/a	n/a	n/a	n/a
269.7145	0.5	FIXCROSS	n/a	n/a	n/a	n/a	n/a	n/a	n/a	n/a
270.2145	0.85	COLOR_NAME	11	Incongruent	żółty	yellow	niebieski	blue	hit	n/a
271.06	n/a	RESPONSE	n/a	n/a	n/a	n/a	n/a	n/a	n/a	yellow
271.0645	1.0	ITI	n/a	n/a	n/a	n/a	n/a	n/a	n/a	n/a
272.0645	0.5	FIXCROSS	n/a	n/a	n/a	n/a	n/a	n/a	n/a	n/a
272.5645	0.8	COLOR_NAME	12	Incongruent	zielony	green	czerwony	red	hit	n/a
273.3608	n/a	RESPONSE	n/a	n/a	n/a	n/a	n/a	n/a	n/a	green
273.3644	1.0	ITI	n/a	n/a	n/a	n/a	n/a	n/a	n/a	n/a
274.3644	0.5	FIXCROSS	n/a	n/a	n/a	n/a	n/a	n/a	n/a	n/a
274.8644	1.0667	COLOR_NAME	13	Incongruent	żółty	yellow	czerwony	red	hit	n/a
275.9174	n/a	RESPONSE	n/a	n/a	n/a	n/a	n/a	n/a	n/a	yellow
275.9311	1.0	ITI	n/a	n/a	n/a	n/a	n/a	n/a	n/a	n/a
276.931	0.5	FIXCROSS	n/a	n/a	n/a	n/a	n/a	n/a	n/a	n/a
277.431	0.95	COLOR_NAME	14	Neutral	zielony	green	Neutral	Neutral	hit	n/a
278.3622	n/a	RESPONSE	n/a	n/a	n/a	n/a	n/a	n/a	n/a	green
278.381	1.0	ITI	n/a	n/a	n/a	n/a	n/a	n/a	n/a	n/a
279.381	0.5	FIXCROSS	n/a	n/a	n/a	n/a	n/a	n/a	n/a	n/a
279.881	0.65	COLOR_NAME	15	Incongruent	zielony	green	niebieski	blue	hit	n/a
280.5194	n/a	RESPONSE	n/a	n/a	n/a	n/a	n/a	n/a	n/a	green
280.531	1.0	ITI	n/a	n/a	n/a	n/a	n/a	n/a	n/a	n/a
281.5309	0.5	FIXCROSS	n/a	n/a	n/a	n/a	n/a	n/a	n/a	n/a
282.031	0.7833	COLOR_NAME	16	Incongruent	czerwony	red	żółty	yellow	hit	n/a
282.8043	n/a	RESPONSE	n/a	n/a	n/a	n/a	n/a	n/a	n/a	red
282.8143	1.0	ITI	n/a	n/a	n/a	n/a	n/a	n/a	n/a	n/a
283.8142	0.5	FIXCROSS	n/a	n/a	n/a	n/a	n/a	n/a	n/a	n/a
284.3142	0.7833	COLOR_NAME	17	Neutral	żółty	yellow	Neutral	Neutral	hit	n/a
285.0892	n/a	RESPONSE	n/a	n/a	n/a	n/a	n/a	n/a	n/a	yellow
285.0975	1.0	ITI	n/a	n/a	n/a	n/a	n/a	n/a	n/a	n/a
286.0975	0.5	FIXCROSS	n/a	n/a	n/a	n/a	n/a	n/a	n/a	n/a
286.5975	0.8166	COLOR_NAME	18	Incongruent	niebieski	blue	żółty	yellow	hit	n/a
287.4061	n/a	RESPONSE	n/a	n/a	n/a	n/a	n/a	n/a	n/a	blue
287.4142	1.0	ITI	n/a	n/a	n/a	n/a	n/a	n/a	n/a	n/a
288.4141	0.5	FIXCROSS	n/a	n/a	n/a	n/a	n/a	n/a	n/a	n/a
288.9142	0.6833	COLOR_NAME	19	Neutral	żółty	yellow	Neutral	Neutral	hit	n/a
289.5792	n/a	RESPONSE	n/a	n/a	n/a	n/a	n/a	n/a	n/a	yellow
289.5975	1.0	ITI	n/a	n/a	n/a	n/a	n/a	n/a	n/a	n/a
290.5974	0.5	FIXCROSS	n/a	n/a	n/a	n/a	n/a	n/a	n/a	n/a
291.0974	0.65	COLOR_NAME	20	Neutral	czerwony	red	Neutral	Neutral	hit	n/a
291.7363	n/a	RESPONSE	n/a	n/a	n/a	n/a	n/a	n/a	n/a	red
291.7474	1.0	ITI	n/a	n/a	n/a	n/a	n/a	n/a	n/a	n/a
292.7474	0.5	FIXCROSS	n/a	n/a	n/a	n/a	n/a	n/a	n/a	n/a
293.2474	0.7833	COLOR_NAME	21	Incongruent	czerwony	red	żółty	yellow	hit	n/a
294.0208	n/a	RESPONSE	n/a	n/a	n/a	n/a	n/a	n/a	n/a	red
294.0307	1.0	ITI	n/a	n/a	n/a	n/a	n/a	n/a	n/a	n/a
295.0307	0.5	FIXCROSS	n/a	n/a	n/a	n/a	n/a	n/a	n/a	n/a
295.5307	0.75	COLOR_NAME	22	Neutral	zielony	green	Neutral	Neutral	hit	n/a
296.2738	n/a	RESPONSE	n/a	n/a	n/a	n/a	n/a	n/a	n/a	green
296.2807	1.0	ITI	n/a	n/a	n/a	n/a	n/a	n/a	n/a	n/a
297.2807	0.5	FIXCROSS	n/a	n/a	n/a	n/a	n/a	n/a	n/a	n/a
297.7806	0.75	COLOR_NAME	23	Neutral	zielony	green	Neutral	Neutral	hit	n/a
298.5267	n/a	RESPONSE	n/a	n/a	n/a	n/a	n/a	n/a	n/a	green
298.5306	1.0	ITI	n/a	n/a	n/a	n/a	n/a	n/a	n/a	n/a
299.5306	0.5	FIXCROSS	n/a	n/a	n/a	n/a	n/a	n/a	n/a	n/a
300.0306	0.7333	COLOR_NAME	24	Neutral	niebieski	blue	Neutral	Neutral	hit	n/a
300.7478	n/a	RESPONSE	n/a	n/a	n/a	n/a	n/a	n/a	n/a	blue
300.7639	1.0	ITI	n/a	n/a	n/a	n/a	n/a	n/a	n/a	n/a
301.7639	0.5	FIXCROSS	n/a	n/a	n/a	n/a	n/a	n/a	n/a	n/a
302.2639	0.7167	COLOR_NAME	25	Incongruent	czerwony	red	niebieski	blue	hit	n/a
302.9687	n/a	RESPONSE	n/a	n/a	n/a	n/a	n/a	n/a	n/a	red
302.9806	1.0	ITI	n/a	n/a	n/a	n/a	n/a	n/a	n/a	n/a
303.9805	0.5	FIXCROSS	n/a	n/a	n/a	n/a	n/a	n/a	n/a	n/a
304.4805	0.95	COLOR_NAME	26	Incongruent	zielony	green	żółty	yellow	hit	n/a
305.4134	n/a	RESPONSE	n/a	n/a	n/a	n/a	n/a	n/a	n/a	green
305.4305	1.0	ITI	n/a	n/a	n/a	n/a	n/a	n/a	n/a	n/a
306.4305	0.5	FIXCROSS	n/a	n/a	n/a	n/a	n/a	n/a	n/a	n/a
306.9305	0.7833	COLOR_NAME	27	Incongruent	zielony	green	niebieski	blue	hit	n/a
307.6983	n/a	RESPONSE	n/a	n/a	n/a	n/a	n/a	n/a	n/a	green
307.7138	1.0	ITI	n/a	n/a	n/a	n/a	n/a	n/a	n/a	n/a
308.7138	0.5	FIXCROSS	n/a	n/a	n/a	n/a	n/a	n/a	n/a	n/a
309.2138	0.5833	COLOR_NAME	28	Neutral	żółty	yellow	Neutral	Neutral	hit	n/a
309.7915	n/a	RESPONSE	n/a	n/a	n/a	n/a	n/a	n/a	n/a	yellow
309.7971	1.0	ITI	n/a	n/a	n/a	n/a	n/a	n/a	n/a	n/a
310.7971	0.5	FIXCROSS	n/a	n/a	n/a	n/a	n/a	n/a	n/a	n/a
311.2971	0.65	COLOR_NAME	29	Neutral	czerwony	red	Neutral	Neutral	hit	n/a
311.9326	n/a	RESPONSE	n/a	n/a	n/a	n/a	n/a	n/a	n/a	red
311.947	1.0	ITI	n/a	n/a	n/a	n/a	n/a	n/a	n/a	n/a
312.947	0.5	FIXCROSS	n/a	n/a	n/a	n/a	n/a	n/a	n/a	n/a
313.447	0.7333	COLOR_NAME	30	Incongruent	czerwony	red	niebieski	blue	hit	n/a
314.1696	n/a	RESPONSE	n/a	n/a	n/a	n/a	n/a	n/a	n/a	red
314.1803	1.0	ITI	n/a	n/a	n/a	n/a	n/a	n/a	n/a	n/a
315.1803	0.5	FIXCROSS	n/a	n/a	n/a	n/a	n/a	n/a	n/a	n/a
315.6803	0.8333	COLOR_NAME	31	Neutral	zielony	green	Neutral	Neutral	hit	n/a
316.5025	n/a	RESPONSE	n/a	n/a	n/a	n/a	n/a	n/a	n/a	green
316.5136	1.0	ITI	n/a	n/a	n/a	n/a	n/a	n/a	n/a	n/a
317.5136	0.5	FIXCROSS	n/a	n/a	n/a	n/a	n/a	n/a	n/a	n/a
318.0136	0.6333	COLOR_NAME	32	Incongruent	niebieski	blue	czerwony	red	hit	n/a
318.6276	n/a	RESPONSE	n/a	n/a	n/a	n/a	n/a	n/a	n/a	blue
318.6469	1.0	ITI	n/a	n/a	n/a	n/a	n/a	n/a	n/a	n/a
319.6469	0.5	FIXCROSS	n/a	n/a	n/a	n/a	n/a	n/a	n/a	n/a
320.1469	0.6333	COLOR_NAME	33	Incongruent	czerwony	red	zielony	green	hit	n/a
320.7687	n/a	RESPONSE	n/a	n/a	n/a	n/a	n/a	n/a	n/a	red
320.7802	1.0	ITI	n/a	n/a	n/a	n/a	n/a	n/a	n/a	n/a
321.7802	0.5	FIXCROSS	n/a	n/a	n/a	n/a	n/a	n/a	n/a	n/a
322.2802	0.6167	COLOR_NAME	34	Incongruent	żółty	yellow	zielony	green	hit	n/a
322.8939	n/a	RESPONSE	n/a	n/a	n/a	n/a	n/a	n/a	n/a	yellow
322.8968	1.0	ITI	n/a	n/a	n/a	n/a	n/a	n/a	n/a	n/a
323.8968	0.5	FIXCROSS	n/a	n/a	n/a	n/a	n/a	n/a	n/a	n/a
324.3968	0.6333	COLOR_NAME	35	Incongruent	niebieski	blue	czerwony	red	hit	n/a
325.019	n/a	RESPONSE	n/a	n/a	n/a	n/a	n/a	n/a	n/a	blue
325.0301	1.0	ITI	n/a	n/a	n/a	n/a	n/a	n/a	n/a	n/a
326.0301	0.5	FIXCROSS	n/a	n/a	n/a	n/a	n/a	n/a	n/a	n/a
326.5301	0.6667	COLOR_NAME	36	Incongruent	czerwony	red	żółty	yellow	hit	n/a
327.1922	n/a	RESPONSE	n/a	n/a	n/a	n/a	n/a	n/a	n/a	red
327.1968	1.0	ITI	n/a	n/a	n/a	n/a	n/a	n/a	n/a	n/a
328.1967	0.5	FIXCROSS	n/a	n/a	n/a	n/a	n/a	n/a	n/a	n/a
328.6967	0.5167	COLOR_NAME	37	Neutral	czerwony	red	Neutral	Neutral	hit	n/a
329.2054	n/a	RESPONSE	n/a	n/a	n/a	n/a	n/a	n/a	n/a	red
329.2134	1.0	ITI	n/a	n/a	n/a	n/a	n/a	n/a	n/a	n/a
330.2134	0.5	FIXCROSS	n/a	n/a	n/a	n/a	n/a	n/a	n/a	n/a
330.7133	0.6167	COLOR_NAME	38	Neutral	żółty	yellow	Neutral	Neutral	hit	n/a
331.3146	n/a	RESPONSE	n/a	n/a	n/a	n/a	n/a	n/a	n/a	yellow
331.33	1.0	ITI	n/a	n/a	n/a	n/a	n/a	n/a	n/a	n/a
332.33	0.5	FIXCROSS	n/a	n/a	n/a	n/a	n/a	n/a	n/a	n/a
332.83	1.25	COLOR_NAME	39	Incongruent	żółty	yellow	zielony	green	hit	n/a
334.063	n/a	RESPONSE	n/a	n/a	n/a	n/a	n/a	n/a	n/a	yellow
334.08	1.0	ITI	n/a	n/a	n/a	n/a	n/a	n/a	n/a	n/a
335.0799	0.5	FIXCROSS	n/a	n/a	n/a	n/a	n/a	n/a	n/a	n/a
335.5799	0.6	COLOR_NAME	40	Neutral	czerwony	red	Neutral	Neutral	hit	n/a
336.1722	n/a	RESPONSE	n/a	n/a	n/a	n/a	n/a	n/a	n/a	red
336.1799	1.0	ITI	n/a	n/a	n/a	n/a	n/a	n/a	n/a	n/a
337.1799	0.5	FIXCROSS	n/a	n/a	n/a	n/a	n/a	n/a	n/a	n/a
337.6799	0.65	COLOR_NAME	41	Incongruent	czerwony	red	niebieski	blue	hit	n/a
338.3133	n/a	RESPONSE	n/a	n/a	n/a	n/a	n/a	n/a	n/a	red
338.3299	1.0	ITI	n/a	n/a	n/a	n/a	n/a	n/a	n/a	n/a
339.3299	0.5	FIXCROSS	n/a	n/a	n/a	n/a	n/a	n/a	n/a	n/a
339.8299	0.5333	COLOR_NAME	42	Neutral	niebieski	blue	Neutral	Neutral	hit	n/a
340.3587	n/a	RESPONSE	n/a	n/a	n/a	n/a	n/a	n/a	n/a	blue
340.3632	1.0	ITI	n/a	n/a	n/a	n/a	n/a	n/a	n/a	n/a
341.3632	0.5	FIXCROSS	n/a	n/a	n/a	n/a	n/a	n/a	n/a	n/a
341.8631	0.6833	COLOR_NAME	43	Neutral	niebieski	blue	Neutral	Neutral	hit	n/a
342.5318	n/a	RESPONSE	n/a	n/a	n/a	n/a	n/a	n/a	n/a	blue
342.5465	1.0	ITI	n/a	n/a	n/a	n/a	n/a	n/a	n/a	n/a
343.5464	0.5	FIXCROSS	n/a	n/a	n/a	n/a	n/a	n/a	n/a	n/a
344.0464	0.7167	COLOR_NAME	44	Incongruent	żółty	yellow	czerwony	red	hit	n/a
344.7529	n/a	RESPONSE	n/a	n/a	n/a	n/a	n/a	n/a	n/a	yellow
344.7631	1.0	ITI	n/a	n/a	n/a	n/a	n/a	n/a	n/a	n/a
345.7631	0.5	FIXCROSS	n/a	n/a	n/a	n/a	n/a	n/a	n/a	n/a
346.2631	0.7167	COLOR_NAME	45	Incongruent	żółty	yellow	zielony	green	hit	n/a
346.9738	n/a	RESPONSE	n/a	n/a	n/a	n/a	n/a	n/a	n/a	yellow
346.9797	1.0	ITI	n/a	n/a	n/a	n/a	n/a	n/a	n/a	n/a
347.9797	0.5	FIXCROSS	n/a	n/a	n/a	n/a	n/a	n/a	n/a	n/a
348.4797	0.7333	COLOR_NAME	46	Incongruent	zielony	green	żółty	yellow	hit	n/a
349.1948	n/a	RESPONSE	n/a	n/a	n/a	n/a	n/a	n/a	n/a	green
349.213	1.0	ITI	n/a	n/a	n/a	n/a	n/a	n/a	n/a	n/a
350.213	0.5	FIXCROSS	n/a	n/a	n/a	n/a	n/a	n/a	n/a	n/a
350.713	0.5667	COLOR_NAME	47	Neutral	czerwony	red	Neutral	Neutral	hit	n/a
351.2721	n/a	RESPONSE	n/a	n/a	n/a	n/a	n/a	n/a	n/a	red
351.2796	1.0	ITI	n/a	n/a	n/a	n/a	n/a	n/a	n/a	n/a
352.2796	0.5	FIXCROSS	n/a	n/a	n/a	n/a	n/a	n/a	n/a	n/a
352.7796	0.65	COLOR_NAME	48	Neutral	zielony	green	Neutral	Neutral	hit	n/a
353.4132	n/a	RESPONSE	n/a	n/a	n/a	n/a	n/a	n/a	n/a	green
353.4296	1.0	ITI	n/a	n/a	n/a	n/a	n/a	n/a	n/a	n/a
354.4296	0.5	FIXCROSS	n/a	n/a	n/a	n/a	n/a	n/a	n/a	n/a
354.9296	0.5833	COLOR_NAME	49	Incongruent	niebieski	blue	zielony	green	hit	n/a
355.5064	n/a	RESPONSE	n/a	n/a	n/a	n/a	n/a	n/a	n/a	blue
355.5129	1.0	ITI	n/a	n/a	n/a	n/a	n/a	n/a	n/a	n/a
356.5129	0.5	FIXCROSS	n/a	n/a	n/a	n/a	n/a	n/a	n/a	n/a
357.0129	0.5333	COLOR_NAME	50	Neutral	niebieski	blue	Neutral	Neutral	hit	n/a
357.5357	n/a	RESPONSE	n/a	n/a	n/a	n/a	n/a	n/a	n/a	blue
357.5462	1.0	ITI	n/a	n/a	n/a	n/a	n/a	n/a	n/a	n/a
358.5462	0.5	FIXCROSS	n/a	n/a	n/a	n/a	n/a	n/a	n/a	n/a
359.0461	0.5833	COLOR_NAME	51	Neutral	czerwony	red	Neutral	Neutral	hit	n/a
359.613	n/a	RESPONSE	n/a	n/a	n/a	n/a	n/a	n/a	n/a	red
359.6295	1.0	ITI	n/a	n/a	n/a	n/a	n/a	n/a	n/a	n/a
360.6295	0.5	FIXCROSS	n/a	n/a	n/a	n/a	n/a	n/a	n/a	n/a
361.1294	0.65	COLOR_NAME	52	Incongruent	żółty	yellow	niebieski	blue	hit	n/a
361.7701	n/a	RESPONSE	n/a	n/a	n/a	n/a	n/a	n/a	n/a	yellow
361.7794	1.0	ITI	n/a	n/a	n/a	n/a	n/a	n/a	n/a	n/a
362.7794	0.5	FIXCROSS	n/a	n/a	n/a	n/a	n/a	n/a	n/a	n/a
363.2794	0.85	COLOR_NAME	53	Neutral	zielony	green	Neutral	Neutral	hit	n/a
364.119	n/a	RESPONSE	n/a	n/a	n/a	n/a	n/a	n/a	n/a	green
364.1294	1.0	ITI	n/a	n/a	n/a	n/a	n/a	n/a	n/a	n/a
365.1294	0.5	FIXCROSS	n/a	n/a	n/a	n/a	n/a	n/a	n/a	n/a
365.6294	0.6167	COLOR_NAME	54	Neutral	niebieski	blue	Neutral	Neutral	hit	n/a
366.2282	n/a	RESPONSE	n/a	n/a	n/a	n/a	n/a	n/a	n/a	blue
366.246	1.0	ITI	n/a	n/a	n/a	n/a	n/a	n/a	n/a	n/a
367.246	0.5	FIXCROSS	n/a	n/a	n/a	n/a	n/a	n/a	n/a	n/a
367.746	0.5167	COLOR_NAME	55	Neutral	niebieski	blue	Neutral	Neutral	hit	n/a
368.2575	n/a	RESPONSE	n/a	n/a	n/a	n/a	n/a	n/a	n/a	blue
368.2626	1.0	ITI	n/a	n/a	n/a	n/a	n/a	n/a	n/a	n/a
369.2626	0.5	FIXCROSS	n/a	n/a	n/a	n/a	n/a	n/a	n/a	n/a
369.7626	0.9666	COLOR_NAME	56	Incongruent	zielony	green	czerwony	red	hit	n/a
370.7182	n/a	RESPONSE	n/a	n/a	n/a	n/a	n/a	n/a	n/a	green
370.7293	1.0	ITI	n/a	n/a	n/a	n/a	n/a	n/a	n/a	n/a
371.7292	0.5	FIXCROSS	n/a	n/a	n/a	n/a	n/a	n/a	n/a	n/a
372.2292	0.75	COLOR_NAME	57	Incongruent	niebieski	blue	czerwony	red	hit	n/a
372.9711	n/a	RESPONSE	n/a	n/a	n/a	n/a	n/a	n/a	n/a	blue
372.9792	1.0	ITI	n/a	n/a	n/a	n/a	n/a	n/a	n/a	n/a
373.9792	0.5	FIXCROSS	n/a	n/a	n/a	n/a	n/a	n/a	n/a	n/a
374.4792	0.7	COLOR_NAME	58	Neutral	zielony	green	Neutral	Neutral	hit	n/a
375.16	n/a	RESPONSE	n/a	n/a	n/a	n/a	n/a	n/a	n/a	green
375.1792	1.0	ITI	n/a	n/a	n/a	n/a	n/a	n/a	n/a	n/a
376.1792	0.5	FIXCROSS	n/a	n/a	n/a	n/a	n/a	n/a	n/a	n/a
376.6792	0.6666	COLOR_NAME	59	Neutral	niebieski	blue	Neutral	Neutral	hit	n/a
377.3331	n/a	RESPONSE	n/a	n/a	n/a	n/a	n/a	n/a	n/a	blue
377.3458	1.0	ITI	n/a	n/a	n/a	n/a	n/a	n/a	n/a	n/a
378.3458	0.5	FIXCROSS	n/a	n/a	n/a	n/a	n/a	n/a	n/a	n/a
378.8458	0.6333	COLOR_NAME	60	Incongruent	niebieski	blue	zielony	green	hit	n/a
379.4742	n/a	RESPONSE	n/a	n/a	n/a	n/a	n/a	n/a	n/a	blue
379.4791	1.0	ITI	n/a	n/a	n/a	n/a	n/a	n/a	n/a	n/a
380.4791	0.5	FIXCROSS	n/a	n/a	n/a	n/a	n/a	n/a	n/a	n/a
380.9791	0.6333	COLOR_NAME	61	Neutral	zielony	green	Neutral	Neutral	hit	n/a
381.5994	n/a	RESPONSE	n/a	n/a	n/a	n/a	n/a	n/a	n/a	green
381.6124	1.0	ITI	n/a	n/a	n/a	n/a	n/a	n/a	n/a	n/a
382.6124	0.5	FIXCROSS	n/a	n/a	n/a	n/a	n/a	n/a	n/a	n/a
383.1124	0.9333	COLOR_NAME	62	Incongruent	żółty	yellow	niebieski	blue	hit	n/a
384.0282	n/a	RESPONSE	n/a	n/a	n/a	n/a	n/a	n/a	n/a	yellow
384.0457	1.0	ITI	n/a	n/a	n/a	n/a	n/a	n/a	n/a	n/a
385.0457	0.5	FIXCROSS	n/a	n/a	n/a	n/a	n/a	n/a	n/a	n/a
385.5456	0.6833	COLOR_NAME	63	Incongruent	zielony	green	niebieski	blue	hit	n/a
386.2173	n/a	RESPONSE	n/a	n/a	n/a	n/a	n/a	n/a	n/a	green
386.229	1.0	ITI	n/a	n/a	n/a	n/a	n/a	n/a	n/a	n/a
387.229	0.5	FIXCROSS	n/a	n/a	n/a	n/a	n/a	n/a	n/a	n/a
387.7289	0.6	COLOR_NAME	64	Neutral	czerwony	red	Neutral	Neutral	hit	n/a
388.3105	n/a	RESPONSE	n/a	n/a	n/a	n/a	n/a	n/a	n/a	red
388.3289	1.0	ITI	n/a	n/a	n/a	n/a	n/a	n/a	n/a	n/a
389.3289	0.5	FIXCROSS	n/a	n/a	n/a	n/a	n/a	n/a	n/a	n/a
389.8289	0.55	COLOR_NAME	65	Neutral	żółty	yellow	Neutral	Neutral	hit	n/a
390.3717	n/a	RESPONSE	n/a	n/a	n/a	n/a	n/a	n/a	n/a	yellow
390.3789	1.0	ITI	n/a	n/a	n/a	n/a	n/a	n/a	n/a	n/a
391.3789	0.5	FIXCROSS	n/a	n/a	n/a	n/a	n/a	n/a	n/a	n/a
391.8789	0.8666	COLOR_NAME	66	Neutral	żółty	yellow	Neutral	Neutral	hit	n/a
392.7366	n/a	RESPONSE	n/a	n/a	n/a	n/a	n/a	n/a	n/a	yellow
392.7455	1.0	ITI	n/a	n/a	n/a	n/a	n/a	n/a	n/a	n/a
393.7455	0.5	FIXCROSS	n/a	n/a	n/a	n/a	n/a	n/a	n/a	n/a
394.2455	0.5667	COLOR_NAME	67	Neutral	żółty	yellow	Neutral	Neutral	hit	n/a
394.798	n/a	RESPONSE	n/a	n/a	n/a	n/a	n/a	n/a	n/a	yellow
394.8121	1.0	ITI	n/a	n/a	n/a	n/a	n/a	n/a	n/a	n/a
395.8121	0.5	FIXCROSS	n/a	n/a	n/a	n/a	n/a	n/a	n/a	n/a
396.3121	0.6	COLOR_NAME	68	Neutral	zielony	green	Neutral	Neutral	hit	n/a
396.9072	n/a	RESPONSE	n/a	n/a	n/a	n/a	n/a	n/a	n/a	green
396.9121	1.0	ITI	n/a	n/a	n/a	n/a	n/a	n/a	n/a	n/a
397.9121	0.5	FIXCROSS	n/a	n/a	n/a	n/a	n/a	n/a	n/a	n/a
398.4121	0.65	COLOR_NAME	69	Incongruent	niebieski	blue	żółty	yellow	hit	n/a
399.0483	n/a	RESPONSE	n/a	n/a	n/a	n/a	n/a	n/a	n/a	blue
399.0621	1.0	ITI	n/a	n/a	n/a	n/a	n/a	n/a	n/a	n/a
400.0621	0.5	FIXCROSS	n/a	n/a	n/a	n/a	n/a	n/a	n/a	n/a
400.562	0.7166	COLOR_NAME	70	Incongruent	zielony	green	żółty	yellow	hit	n/a
401.2694	n/a	RESPONSE	n/a	n/a	n/a	n/a	n/a	n/a	n/a	green
401.2787	1.0	ITI	n/a	n/a	n/a	n/a	n/a	n/a	n/a	n/a
402.2787	0.5	FIXCROSS	n/a	n/a	n/a	n/a	n/a	n/a	n/a	n/a
402.7787	0.65	COLOR_NAME	71	Neutral	żółty	yellow	Neutral	Neutral	hit	n/a
403.4106	n/a	RESPONSE	n/a	n/a	n/a	n/a	n/a	n/a	n/a	yellow
403.4286	1.0	ITI	n/a	n/a	n/a	n/a	n/a	n/a	n/a	n/a
404.4286	0.4999	FIXCROSS	n/a	n/a	n/a	n/a	n/a	n/a	n/a	n/a
404.9286	0.65	COLOR_NAME	72	Incongruent	niebieski	blue	żółty	yellow	hit	n/a
405.5676	n/a	RESPONSE	n/a	n/a	n/a	n/a	n/a	n/a	n/a	blue
405.5786	1.0167	ITI	n/a	n/a	n/a	n/a	n/a	n/a	n/a	n/a
408.9712	n/a	RESPONSE	n/a	n/a	n/a	n/a	n/a	n/a	n/a	n/a
