onset	duration	trial_type	trial_number	stroop_condition	stim_text(PL)	stim_text(eng)	stim_color(PL)	stim_color(eng)	response_type	response_color
0.0	n/a	RESPONSE	n/a	n/a	n/a	n/a	n/a	n/a	n/a	n/a
0.0651	1.0333	ITI	n/a	n/a	n/a	n/a	n/a	n/a	n/a	n/a
1.0984	0.5167	FIXCROSS	n/a	n/a	n/a	n/a	n/a	n/a	n/a	n/a
1.6151	1.5	T_INK	1	Neutral	xxxxxxx	xxxxxxx	czerwony	red	hit	n/a
3.0842	n/a	RESPONSE	n/a	n/a	n/a	n/a	n/a	n/a	n/a	red
3.1151	0.5167	FEEDBACK	n/a	n/a	n/a	n/a	n/a	n/a	n/a	n/a
3.6318	1.0167	ITI	n/a	n/a	n/a	n/a	n/a	n/a	n/a	n/a
4.6484	0.5167	FIXCROSS	n/a	n/a	n/a	n/a	n/a	n/a	n/a	n/a
5.1651	1.2167	T_INK	2	Neutral	xxxxxxxx	xxxxxxxx	żółty	yellow	hit	n/a
6.3602	n/a	RESPONSE	n/a	n/a	n/a	n/a	n/a	n/a	n/a	yellow
6.3818	0.5167	FEEDBACK	n/a	n/a	n/a	n/a	n/a	n/a	n/a	n/a
6.8985	1.0167	ITI	n/a	n/a	n/a	n/a	n/a	n/a	n/a	n/a
7.9151	0.5167	FIXCROSS	n/a	n/a	n/a	n/a	n/a	n/a	n/a	n/a
8.4318	1.3167	T_INK	3	Neutral	xxxxxxxx	xxxxxxxx	zielony	green	hit	n/a
9.716	n/a	RESPONSE	n/a	n/a	n/a	n/a	n/a	n/a	n/a	green
9.7485	0.5167	FEEDBACK	n/a	n/a	n/a	n/a	n/a	n/a	n/a	n/a
10.2651	1.0167	ITI	n/a	n/a	n/a	n/a	n/a	n/a	n/a	n/a
11.2818	0.5167	FIXCROSS	n/a	n/a	n/a	n/a	n/a	n/a	n/a	n/a
11.7985	0.9167	T_INK	4	Neutral	xxxxx	xxxxx	zielony	green	hit	n/a
12.6884	n/a	RESPONSE	n/a	n/a	n/a	n/a	n/a	n/a	n/a	green
12.7152	0.5167	FEEDBACK	n/a	n/a	n/a	n/a	n/a	n/a	n/a	n/a
13.2318	1.0167	ITI	n/a	n/a	n/a	n/a	n/a	n/a	n/a	n/a
14.2485	0.5167	FIXCROSS	n/a	n/a	n/a	n/a	n/a	n/a	n/a	n/a
14.7652	1.7167	T_INK	5	Incongruent	niebieski	blue	żółty	yellow	hit	n/a
16.4597	n/a	RESPONSE	n/a	n/a	n/a	n/a	n/a	n/a	n/a	yellow
16.4819	0.5167	FEEDBACK	n/a	n/a	n/a	n/a	n/a	n/a	n/a	n/a
16.9985	1.0166	ITI	n/a	n/a	n/a	n/a	n/a	n/a	n/a	n/a
18.0152	0.5167	FIXCROSS	n/a	n/a	n/a	n/a	n/a	n/a	n/a	n/a
18.5319	1.3333	T_INK	6	Incongruent	niebieski	blue	czerwony	red	hit	n/a
19.8317	n/a	RESPONSE	n/a	n/a	n/a	n/a	n/a	n/a	n/a	red
19.8652	0.5167	FEEDBACK	n/a	n/a	n/a	n/a	n/a	n/a	n/a	n/a
20.3819	1.0167	ITI	n/a	n/a	n/a	n/a	n/a	n/a	n/a	n/a
21.3986	0.5167	FIXCROSS	n/a	n/a	n/a	n/a	n/a	n/a	n/a	n/a
21.9152	1.1	T_INK	7	Neutral	xxxxx	xxxxx	czerwony	red	hit	n/a
22.9958	n/a	RESPONSE	n/a	n/a	n/a	n/a	n/a	n/a	n/a	red
23.0153	0.5167	FEEDBACK	n/a	n/a	n/a	n/a	n/a	n/a	n/a	n/a
23.5319	1.0167	ITI	n/a	n/a	n/a	n/a	n/a	n/a	n/a	n/a
24.5486	0.5167	FIXCROSS	n/a	n/a	n/a	n/a	n/a	n/a	n/a	n/a
25.0653	2.5333	T_INK	8	Incongruent	zielony	green	niebieski	blue	hit	n/a
27.5661	n/a	RESPONSE	n/a	n/a	n/a	n/a	n/a	n/a	n/a	blue
27.5986	0.5167	FEEDBACK	n/a	n/a	n/a	n/a	n/a	n/a	n/a	n/a
28.1153	1.0167	ITI	n/a	n/a	n/a	n/a	n/a	n/a	n/a	n/a
29.132	0.5167	FIXCROSS	n/a	n/a	n/a	n/a	n/a	n/a	n/a	n/a
29.6486	1.3834	T_INK	9	Incongruent	żółty	yellow	czerwony	red	hit	n/a
31.0019	n/a	RESPONSE	n/a	n/a	n/a	n/a	n/a	n/a	n/a	red
31.032	0.5167	FEEDBACK	n/a	n/a	n/a	n/a	n/a	n/a	n/a	n/a
31.5487	1.0167	ITI	n/a	n/a	n/a	n/a	n/a	n/a	n/a	n/a
32.5653	0.5167	FIXCROSS	n/a	n/a	n/a	n/a	n/a	n/a	n/a	n/a
33.082	1.5667	T_INK	10	Incongruent	niebieski	blue	zielony	green	hit	n/a
34.6295	n/a	RESPONSE	n/a	n/a	n/a	n/a	n/a	n/a	n/a	green
34.6487	0.5167	FEEDBACK	n/a	n/a	n/a	n/a	n/a	n/a	n/a	n/a
35.1653	1.0167	ITI	n/a	n/a	n/a	n/a	n/a	n/a	n/a	n/a
36.182	0.5167	FIXCROSS	n/a	n/a	n/a	n/a	n/a	n/a	n/a	n/a
36.6987	1.5833	T_INK	11	Neutral	xxxxxxx	xxxxxxx	niebieski	blue	hit	n/a
38.257	n/a	RESPONSE	n/a	n/a	n/a	n/a	n/a	n/a	n/a	blue
38.282	0.5167	FEEDBACK	n/a	n/a	n/a	n/a	n/a	n/a	n/a	n/a
38.7987	1.0167	ITI	n/a	n/a	n/a	n/a	n/a	n/a	n/a	n/a
39.8154	0.5167	FIXCROSS	n/a	n/a	n/a	n/a	n/a	n/a	n/a	n/a
40.3321	1.55	T_INK	12	Neutral	xxxxxxxxx	xxxxxxxxx	zielony	green	hit	n/a
41.8527	n/a	RESPONSE	n/a	n/a	n/a	n/a	n/a	n/a	n/a	green
41.8821	0.5167	FEEDBACK	n/a	n/a	n/a	n/a	n/a	n/a	n/a	n/a
42.3987	1.0333	ITI	n/a	n/a	n/a	n/a	n/a	n/a	n/a	n/a
68.3641	n/a	RESPONSE	n/a	n/a	n/a	n/a	n/a	n/a	n/a	n/a
68.4323	1.0167	ITI	n/a	n/a	n/a	n/a	n/a	n/a	n/a	n/a
69.449	0.5167	FIXCROSS	n/a	n/a	n/a	n/a	n/a	n/a	n/a	n/a
69.9656	1.6	INK	1	Incongruent	żółty	yellow	czerwony	red	hit	n/a
71.5442	n/a	RESPONSE	n/a	n/a	n/a	n/a	n/a	n/a	n/a	red
71.5656	1.0167	ITI	n/a	n/a	n/a	n/a	n/a	n/a	n/a	n/a
72.5823	0.5167	FIXCROSS	n/a	n/a	n/a	n/a	n/a	n/a	n/a	n/a
73.099	1.15	INK	2	Neutral	xxxxxxx	xxxxxxx	żółty	yellow	hit	n/a
74.2289	n/a	RESPONSE	n/a	n/a	n/a	n/a	n/a	n/a	n/a	yellow
74.249	1.0167	ITI	n/a	n/a	n/a	n/a	n/a	n/a	n/a	n/a
75.2657	0.5167	FIXCROSS	n/a	n/a	n/a	n/a	n/a	n/a	n/a	n/a
75.7823	0.7833	INK	3	Incongruent	niebieski	blue	zielony	green	hit	n/a
76.546	n/a	RESPONSE	n/a	n/a	n/a	n/a	n/a	n/a	n/a	green
76.5657	1.0167	ITI	n/a	n/a	n/a	n/a	n/a	n/a	n/a	n/a
77.5824	0.5167	FIXCROSS	n/a	n/a	n/a	n/a	n/a	n/a	n/a	n/a
78.099	1.2834	INK	4	Neutral	xxxxxxx	xxxxxxx	żółty	yellow	hit	n/a
79.3586	n/a	RESPONSE	n/a	n/a	n/a	n/a	n/a	n/a	n/a	yellow
79.3824	1.0167	ITI	n/a	n/a	n/a	n/a	n/a	n/a	n/a	n/a
80.399	0.5167	FIXCROSS	n/a	n/a	n/a	n/a	n/a	n/a	n/a	n/a
80.9157	0.7167	INK	5	Incongruent	żółty	yellow	czerwony	red	hit	n/a
81.6119	n/a	RESPONSE	n/a	n/a	n/a	n/a	n/a	n/a	n/a	red
81.6324	1.0167	ITI	n/a	n/a	n/a	n/a	n/a	n/a	n/a	n/a
82.6491	0.5167	FIXCROSS	n/a	n/a	n/a	n/a	n/a	n/a	n/a	n/a
83.1657	1.1167	INK	6	Neutral	xxxxxxxxx	xxxxxxxxx	żółty	yellow	hit	n/a
84.2646	n/a	RESPONSE	n/a	n/a	n/a	n/a	n/a	n/a	n/a	yellow
84.2824	1.0167	ITI	n/a	n/a	n/a	n/a	n/a	n/a	n/a	n/a
85.2991	0.5167	FIXCROSS	n/a	n/a	n/a	n/a	n/a	n/a	n/a	n/a
85.8157	1.1	INK	7	Neutral	xxxxx	xxxxx	niebieski	blue	hit	n/a
86.8854	n/a	RESPONSE	n/a	n/a	n/a	n/a	n/a	n/a	n/a	blue
86.9158	1.0167	ITI	n/a	n/a	n/a	n/a	n/a	n/a	n/a	n/a
87.9324	0.5167	FIXCROSS	n/a	n/a	n/a	n/a	n/a	n/a	n/a	n/a
88.4491	1.1	INK	8	Incongruent	niebieski	blue	czerwony	red	hit	n/a
89.522	n/a	RESPONSE	n/a	n/a	n/a	n/a	n/a	n/a	n/a	red
89.5491	1.0167	ITI	n/a	n/a	n/a	n/a	n/a	n/a	n/a	n/a
90.5658	0.5167	FIXCROSS	n/a	n/a	n/a	n/a	n/a	n/a	n/a	n/a
91.0825	0.9333	INK	9	Incongruent	zielony	green	czerwony	red	hit	n/a
91.983	n/a	RESPONSE	n/a	n/a	n/a	n/a	n/a	n/a	n/a	red
92.0158	1.0167	ITI	n/a	n/a	n/a	n/a	n/a	n/a	n/a	n/a
93.0325	0.5167	FIXCROSS	n/a	n/a	n/a	n/a	n/a	n/a	n/a	n/a
93.5492	0.9167	INK	10	Neutral	xxxxxxxx	xxxxxxxx	żółty	yellow	hit	n/a
94.444	n/a	RESPONSE	n/a	n/a	n/a	n/a	n/a	n/a	n/a	yellow
94.4658	1.0167	ITI	n/a	n/a	n/a	n/a	n/a	n/a	n/a	n/a
95.4825	0.5167	FIXCROSS	n/a	n/a	n/a	n/a	n/a	n/a	n/a	n/a
95.9992	0.9667	INK	11	Neutral	xxxxx	xxxxx	niebieski	blue	hit	n/a
96.9369	n/a	RESPONSE	n/a	n/a	n/a	n/a	n/a	n/a	n/a	blue
96.9658	1.0166	ITI	n/a	n/a	n/a	n/a	n/a	n/a	n/a	n/a
97.9825	0.5167	FIXCROSS	n/a	n/a	n/a	n/a	n/a	n/a	n/a	n/a
98.4992	1.4333	INK	12	Incongruent	niebieski	blue	zielony	green	hit	n/a
99.9093	n/a	RESPONSE	n/a	n/a	n/a	n/a	n/a	n/a	n/a	green
99.9325	1.0167	ITI	n/a	n/a	n/a	n/a	n/a	n/a	n/a	n/a
100.9492	0.5167	FIXCROSS	n/a	n/a	n/a	n/a	n/a	n/a	n/a	n/a
101.4659	0.95	INK	13	Incongruent	niebieski	blue	żółty	yellow	hit	n/a
102.3862	n/a	RESPONSE	n/a	n/a	n/a	n/a	n/a	n/a	n/a	yellow
102.4159	1.0167	ITI	n/a	n/a	n/a	n/a	n/a	n/a	n/a	n/a
103.4326	0.5167	FIXCROSS	n/a	n/a	n/a	n/a	n/a	n/a	n/a	n/a
103.9492	0.6667	INK	14	Incongruent	niebieski	blue	czerwony	red	hit	n/a
104.5913	n/a	RESPONSE	n/a	n/a	n/a	n/a	n/a	n/a	n/a	red
104.6159	1.0167	ITI	n/a	n/a	n/a	n/a	n/a	n/a	n/a	n/a
105.6326	0.5167	FIXCROSS	n/a	n/a	n/a	n/a	n/a	n/a	n/a	n/a
106.1493	0.5833	INK	15	Neutral	xxxxxxxxx	xxxxxxxxx	zielony	green	hit	n/a
106.7008	n/a	RESPONSE	n/a	n/a	n/a	n/a	n/a	n/a	n/a	green
106.7326	1.0167	ITI	n/a	n/a	n/a	n/a	n/a	n/a	n/a	n/a
107.7493	0.5167	FIXCROSS	n/a	n/a	n/a	n/a	n/a	n/a	n/a	n/a
108.2659	0.8	INK	16	Incongruent	żółty	yellow	niebieski	blue	hit	n/a
109.0339	n/a	RESPONSE	n/a	n/a	n/a	n/a	n/a	n/a	n/a	blue
109.0659	1.0167	ITI	n/a	n/a	n/a	n/a	n/a	n/a	n/a	n/a
110.0826	0.5167	FIXCROSS	n/a	n/a	n/a	n/a	n/a	n/a	n/a	n/a
110.5993	1.2	INK	17	Neutral	xxxxxxx	xxxxxxx	niebieski	blue	hit	n/a
111.7665	n/a	RESPONSE	n/a	n/a	n/a	n/a	n/a	n/a	n/a	blue
111.7993	1.0167	ITI	n/a	n/a	n/a	n/a	n/a	n/a	n/a	n/a
112.816	0.5167	FIXCROSS	n/a	n/a	n/a	n/a	n/a	n/a	n/a	n/a
113.3326	0.8167	INK	18	Neutral	xxxxxxxx	xxxxxxxx	zielony	green	hit	n/a
114.1316	n/a	RESPONSE	n/a	n/a	n/a	n/a	n/a	n/a	n/a	green
114.1493	1.0167	ITI	n/a	n/a	n/a	n/a	n/a	n/a	n/a	n/a
115.166	0.5167	FIXCROSS	n/a	n/a	n/a	n/a	n/a	n/a	n/a	n/a
115.6827	0.9833	INK	19	Neutral	xxxxx	xxxxx	niebieski	blue	hit	n/a
116.6404	n/a	RESPONSE	n/a	n/a	n/a	n/a	n/a	n/a	n/a	blue
116.666	1.0167	ITI	n/a	n/a	n/a	n/a	n/a	n/a	n/a	n/a
117.6827	0.5167	FIXCROSS	n/a	n/a	n/a	n/a	n/a	n/a	n/a	n/a
118.1993	1.0167	INK	20	Neutral	xxxxxxxxx	xxxxxxxxx	zielony	green	hit	n/a
119.1973	n/a	RESPONSE	n/a	n/a	n/a	n/a	n/a	n/a	n/a	green
119.216	1.0167	ITI	n/a	n/a	n/a	n/a	n/a	n/a	n/a	n/a
120.2327	0.5167	FIXCROSS	n/a	n/a	n/a	n/a	n/a	n/a	n/a	n/a
120.7494	1.15	INK	21	Incongruent	żółty	yellow	zielony	green	hit	n/a
121.882	n/a	RESPONSE	n/a	n/a	n/a	n/a	n/a	n/a	n/a	green
121.8994	1.0167	ITI	n/a	n/a	n/a	n/a	n/a	n/a	n/a	n/a
122.9161	0.5167	FIXCROSS	n/a	n/a	n/a	n/a	n/a	n/a	n/a	n/a
123.4327	1.0167	INK	22	Incongruent	zielony	green	czerwony	red	hit	n/a
124.423	n/a	RESPONSE	n/a	n/a	n/a	n/a	n/a	n/a	n/a	red
124.4494	1.0167	ITI	n/a	n/a	n/a	n/a	n/a	n/a	n/a	n/a
125.4661	0.5167	FIXCROSS	n/a	n/a	n/a	n/a	n/a	n/a	n/a	n/a
125.9827	0.9	INK	23	Incongruent	niebieski	blue	czerwony	red	hit	n/a
126.852	n/a	RESPONSE	n/a	n/a	n/a	n/a	n/a	n/a	n/a	red
126.8827	1.0167	ITI	n/a	n/a	n/a	n/a	n/a	n/a	n/a	n/a
127.8994	0.5167	FIXCROSS	n/a	n/a	n/a	n/a	n/a	n/a	n/a	n/a
128.4161	1.0	INK	24	Incongruent	czerwony	red	żółty	yellow	hit	n/a
129.3928	n/a	RESPONSE	n/a	n/a	n/a	n/a	n/a	n/a	n/a	yellow
129.4161	1.0167	ITI	n/a	n/a	n/a	n/a	n/a	n/a	n/a	n/a
130.4328	0.5167	FIXCROSS	n/a	n/a	n/a	n/a	n/a	n/a	n/a	n/a
130.9494	1.2333	INK	25	Incongruent	żółty	yellow	niebieski	blue	hit	n/a
132.1573	n/a	RESPONSE	n/a	n/a	n/a	n/a	n/a	n/a	n/a	blue
132.1828	1.0167	ITI	n/a	n/a	n/a	n/a	n/a	n/a	n/a	n/a
133.1995	0.5167	FIXCROSS	n/a	n/a	n/a	n/a	n/a	n/a	n/a	n/a
133.7161	1.0	INK	26	Incongruent	czerwony	red	zielony	green	hit	n/a
134.6823	n/a	RESPONSE	n/a	n/a	n/a	n/a	n/a	n/a	n/a	green
134.7161	1.0167	ITI	n/a	n/a	n/a	n/a	n/a	n/a	n/a	n/a
135.7328	0.5167	FIXCROSS	n/a	n/a	n/a	n/a	n/a	n/a	n/a	n/a
136.2495	1.2	INK	27	Neutral	xxxxxxxxx	xxxxxxxxx	żółty	yellow	hit	n/a
137.4309	n/a	RESPONSE	n/a	n/a	n/a	n/a	n/a	n/a	n/a	yellow
137.4495	1.0167	ITI	n/a	n/a	n/a	n/a	n/a	n/a	n/a	n/a
138.4662	0.5167	FIXCROSS	n/a	n/a	n/a	n/a	n/a	n/a	n/a	n/a
138.9828	1.3	INK	28	Incongruent	czerwony	red	zielony	green	hit	n/a
140.2593	n/a	RESPONSE	n/a	n/a	n/a	n/a	n/a	n/a	n/a	green
140.2828	1.0167	ITI	n/a	n/a	n/a	n/a	n/a	n/a	n/a	n/a
141.2995	0.5167	FIXCROSS	n/a	n/a	n/a	n/a	n/a	n/a	n/a	n/a
141.8162	1.1667	INK	29	Neutral	xxxxxxxx	xxxxxxxx	niebieski	blue	hit	n/a
142.96	n/a	RESPONSE	n/a	n/a	n/a	n/a	n/a	n/a	n/a	blue
142.9829	1.0167	ITI	n/a	n/a	n/a	n/a	n/a	n/a	n/a	n/a
143.9995	0.5167	FIXCROSS	n/a	n/a	n/a	n/a	n/a	n/a	n/a	n/a
144.5162	1.2	INK	30	Incongruent	czerwony	red	żółty	yellow	hit	n/a
145.6926	n/a	RESPONSE	n/a	n/a	n/a	n/a	n/a	n/a	n/a	yellow
145.7162	1.0167	ITI	n/a	n/a	n/a	n/a	n/a	n/a	n/a	n/a
146.7329	0.5167	FIXCROSS	n/a	n/a	n/a	n/a	n/a	n/a	n/a	n/a
147.2496	1.3	INK	31	Neutral	xxxxx	xxxxx	czerwony	red	hit	n/a
148.5211	n/a	RESPONSE	n/a	n/a	n/a	n/a	n/a	n/a	n/a	red
148.5496	1.0167	ITI	n/a	n/a	n/a	n/a	n/a	n/a	n/a	n/a
149.5663	0.5167	FIXCROSS	n/a	n/a	n/a	n/a	n/a	n/a	n/a	n/a
150.0829	1.55	INK	32	Neutral	xxxxxxxx	xxxxxxxx	żółty	yellow	hit	n/a
151.6053	n/a	RESPONSE	n/a	n/a	n/a	n/a	n/a	n/a	n/a	yellow
151.6329	1.0167	ITI	n/a	n/a	n/a	n/a	n/a	n/a	n/a	n/a
152.6496	0.5167	FIXCROSS	n/a	n/a	n/a	n/a	n/a	n/a	n/a	n/a
153.1663	0.7167	INK	33	Neutral	xxxxxxx	xxxxxxx	niebieski	blue	hit	n/a
153.8587	n/a	RESPONSE	n/a	n/a	n/a	n/a	n/a	n/a	n/a	blue
153.883	1.0167	ITI	n/a	n/a	n/a	n/a	n/a	n/a	n/a	n/a
154.8996	0.5167	FIXCROSS	n/a	n/a	n/a	n/a	n/a	n/a	n/a	n/a
155.4163	0.9	INK	34	Neutral	xxxxx	xxxxx	czerwony	red	hit	n/a
156.2877	n/a	RESPONSE	n/a	n/a	n/a	n/a	n/a	n/a	n/a	red
156.3163	1.0167	ITI	n/a	n/a	n/a	n/a	n/a	n/a	n/a	n/a
157.333	0.5167	FIXCROSS	n/a	n/a	n/a	n/a	n/a	n/a	n/a	n/a
157.8496	0.8834	INK	35	Incongruent	zielony	green	czerwony	red	hit	n/a
158.7006	n/a	RESPONSE	n/a	n/a	n/a	n/a	n/a	n/a	n/a	red
158.733	1.0167	ITI	n/a	n/a	n/a	n/a	n/a	n/a	n/a	n/a
159.7497	0.5167	FIXCROSS	n/a	n/a	n/a	n/a	n/a	n/a	n/a	n/a
160.2663	0.95	INK	36	Incongruent	żółty	yellow	zielony	green	hit	n/a
161.1935	n/a	RESPONSE	n/a	n/a	n/a	n/a	n/a	n/a	n/a	green
161.2163	1.0167	ITI	n/a	n/a	n/a	n/a	n/a	n/a	n/a	n/a
162.233	0.5167	FIXCROSS	n/a	n/a	n/a	n/a	n/a	n/a	n/a	n/a
162.7497	0.8333	INK	37	Neutral	xxxxxxx	xxxxxxx	czerwony	red	hit	n/a
163.5585	n/a	RESPONSE	n/a	n/a	n/a	n/a	n/a	n/a	n/a	red
163.583	1.0167	ITI	n/a	n/a	n/a	n/a	n/a	n/a	n/a	n/a
164.5997	0.5167	FIXCROSS	n/a	n/a	n/a	n/a	n/a	n/a	n/a	n/a
165.1164	0.85	INK	38	Incongruent	żółty	yellow	niebieski	blue	hit	n/a
165.9397	n/a	RESPONSE	n/a	n/a	n/a	n/a	n/a	n/a	n/a	blue
165.9664	1.0167	ITI	n/a	n/a	n/a	n/a	n/a	n/a	n/a	n/a
166.9831	0.5167	FIXCROSS	n/a	n/a	n/a	n/a	n/a	n/a	n/a	n/a
167.4997	0.8833	INK	39	Neutral	xxxxxxx	xxxxxxx	niebieski	blue	hit	n/a
168.3526	n/a	RESPONSE	n/a	n/a	n/a	n/a	n/a	n/a	n/a	blue
168.3831	1.0167	ITI	n/a	n/a	n/a	n/a	n/a	n/a	n/a	n/a
169.3998	0.5167	FIXCROSS	n/a	n/a	n/a	n/a	n/a	n/a	n/a	n/a
169.9164	0.7167	INK	40	Neutral	xxxxxxxxx	xxxxxxxxx	czerwony	red	hit	n/a
170.6059	n/a	RESPONSE	n/a	n/a	n/a	n/a	n/a	n/a	n/a	red
170.6331	1.0167	ITI	n/a	n/a	n/a	n/a	n/a	n/a	n/a	n/a
171.6498	0.5167	FIXCROSS	n/a	n/a	n/a	n/a	n/a	n/a	n/a	n/a
172.1664	1.0333	INK	41	Incongruent	niebieski	blue	zielony	green	hit	n/a
173.1787	n/a	RESPONSE	n/a	n/a	n/a	n/a	n/a	n/a	n/a	green
173.1998	1.0167	ITI	n/a	n/a	n/a	n/a	n/a	n/a	n/a	n/a
174.2164	0.5167	FIXCROSS	n/a	n/a	n/a	n/a	n/a	n/a	n/a	n/a
174.7331	1.0167	INK	42	Incongruent	zielony	green	żółty	yellow	hit	n/a
175.7196	n/a	RESPONSE	n/a	n/a	n/a	n/a	n/a	n/a	n/a	yellow
175.7498	1.0167	ITI	n/a	n/a	n/a	n/a	n/a	n/a	n/a	n/a
176.7665	0.5167	FIXCROSS	n/a	n/a	n/a	n/a	n/a	n/a	n/a	n/a
177.2831	0.8167	INK	43	Neutral	xxxxxxxx	xxxxxxxx	żółty	yellow	hit	n/a
178.0687	n/a	RESPONSE	n/a	n/a	n/a	n/a	n/a	n/a	n/a	yellow
178.0998	1.0167	ITI	n/a	n/a	n/a	n/a	n/a	n/a	n/a	n/a
179.1165	0.5167	FIXCROSS	n/a	n/a	n/a	n/a	n/a	n/a	n/a	n/a
179.6332	1.0833	INK	44	Neutral	xxxxxxxx	xxxxxxxx	niebieski	blue	hit	n/a
180.6894	n/a	RESPONSE	n/a	n/a	n/a	n/a	n/a	n/a	n/a	blue
180.7165	1.0167	ITI	n/a	n/a	n/a	n/a	n/a	n/a	n/a	n/a
181.7332	0.5167	FIXCROSS	n/a	n/a	n/a	n/a	n/a	n/a	n/a	n/a
182.2498	1.2167	INK	45	Neutral	xxxxxxx	xxxxxxx	żółty	yellow	hit	n/a
183.4381	n/a	RESPONSE	n/a	n/a	n/a	n/a	n/a	n/a	n/a	yellow
183.4665	1.0167	ITI	n/a	n/a	n/a	n/a	n/a	n/a	n/a	n/a
184.4832	0.5167	FIXCROSS	n/a	n/a	n/a	n/a	n/a	n/a	n/a	n/a
184.9999	1.0667	INK	46	Incongruent	czerwony	red	niebieski	blue	hit	n/a
186.0428	n/a	RESPONSE	n/a	n/a	n/a	n/a	n/a	n/a	n/a	blue
186.0665	1.0167	ITI	n/a	n/a	n/a	n/a	n/a	n/a	n/a	n/a
187.0832	0.5167	FIXCROSS	n/a	n/a	n/a	n/a	n/a	n/a	n/a	n/a
187.5999	0.5833	INK	47	Neutral	xxxxx	xxxxx	czerwony	red	hit	n/a
188.1523	n/a	RESPONSE	n/a	n/a	n/a	n/a	n/a	n/a	n/a	red
188.1832	1.0167	ITI	n/a	n/a	n/a	n/a	n/a	n/a	n/a	n/a
189.1999	0.5167	FIXCROSS	n/a	n/a	n/a	n/a	n/a	n/a	n/a	n/a
189.7166	1.25	INK	48	Neutral	xxxxx	xxxxx	zielony	green	hit	n/a
190.9489	n/a	RESPONSE	n/a	n/a	n/a	n/a	n/a	n/a	n/a	green
190.9666	1.0167	ITI	n/a	n/a	n/a	n/a	n/a	n/a	n/a	n/a
191.9832	0.5167	FIXCROSS	n/a	n/a	n/a	n/a	n/a	n/a	n/a	n/a
192.4999	0.8167	INK	49	Neutral	xxxxxxxxx	xxxxxxxxx	żółty	yellow	hit	n/a
193.282	n/a	RESPONSE	n/a	n/a	n/a	n/a	n/a	n/a	n/a	yellow
193.3166	1.0167	ITI	n/a	n/a	n/a	n/a	n/a	n/a	n/a	n/a
194.3333	0.5167	FIXCROSS	n/a	n/a	n/a	n/a	n/a	n/a	n/a	n/a
194.8499	0.9334	INK	50	Neutral	xxxxxxxx	xxxxxxxx	niebieski	blue	hit	n/a
195.759	n/a	RESPONSE	n/a	n/a	n/a	n/a	n/a	n/a	n/a	blue
195.7833	1.0167	ITI	n/a	n/a	n/a	n/a	n/a	n/a	n/a	n/a
196.8	0.5167	FIXCROSS	n/a	n/a	n/a	n/a	n/a	n/a	n/a	n/a
197.3166	0.8833	INK	51	Incongruent	zielony	green	żółty	yellow	hit	n/a
198.1719	n/a	RESPONSE	n/a	n/a	n/a	n/a	n/a	n/a	n/a	yellow
198.2	1.0167	ITI	n/a	n/a	n/a	n/a	n/a	n/a	n/a	n/a
199.2166	0.5167	FIXCROSS	n/a	n/a	n/a	n/a	n/a	n/a	n/a	n/a
199.7333	1.1667	INK	52	Incongruent	czerwony	red	zielony	green	incorrect	n/a
200.8727	n/a	RESPONSE	n/a	n/a	n/a	n/a	n/a	n/a	n/a	yellow
200.9	1.0167	ITI	n/a	n/a	n/a	n/a	n/a	n/a	n/a	n/a
201.9167	0.5167	FIXCROSS	n/a	n/a	n/a	n/a	n/a	n/a	n/a	n/a
202.4333	1.75	INK	53	Incongruent	żółty	yellow	zielony	green	hit	n/a
204.1645	n/a	RESPONSE	n/a	n/a	n/a	n/a	n/a	n/a	n/a	green
204.1833	1.0167	ITI	n/a	n/a	n/a	n/a	n/a	n/a	n/a	n/a
205.2	0.5167	FIXCROSS	n/a	n/a	n/a	n/a	n/a	n/a	n/a	n/a
205.7167	0.7333	INK	54	Incongruent	niebieski	blue	żółty	yellow	hit	n/a
206.4177	n/a	RESPONSE	n/a	n/a	n/a	n/a	n/a	n/a	n/a	yellow
206.45	1.0167	ITI	n/a	n/a	n/a	n/a	n/a	n/a	n/a	n/a
207.4667	0.5167	FIXCROSS	n/a	n/a	n/a	n/a	n/a	n/a	n/a	n/a
207.9834	0.9833	INK	55	Incongruent	zielony	green	żółty	yellow	hit	n/a
208.9426	n/a	RESPONSE	n/a	n/a	n/a	n/a	n/a	n/a	n/a	yellow
208.9667	1.0167	ITI	n/a	n/a	n/a	n/a	n/a	n/a	n/a	n/a
209.9834	0.5167	FIXCROSS	n/a	n/a	n/a	n/a	n/a	n/a	n/a	n/a
210.5001	1.4167	INK	56	Neutral	xxxxxxxx	xxxxxxxx	zielony	green	hit	n/a
211.883	n/a	RESPONSE	n/a	n/a	n/a	n/a	n/a	n/a	n/a	green
211.9167	1.0167	ITI	n/a	n/a	n/a	n/a	n/a	n/a	n/a	n/a
212.9334	0.5167	FIXCROSS	n/a	n/a	n/a	n/a	n/a	n/a	n/a	n/a
213.4501	0.8667	INK	57	Neutral	xxxxx	xxxxx	zielony	green	hit	n/a
214.296	n/a	RESPONSE	n/a	n/a	n/a	n/a	n/a	n/a	n/a	green
214.3168	1.0167	ITI	n/a	n/a	n/a	n/a	n/a	n/a	n/a	n/a
215.3334	0.5167	FIXCROSS	n/a	n/a	n/a	n/a	n/a	n/a	n/a	n/a
215.8501	0.7167	INK	58	Neutral	xxxxxxxxx	xxxxxxxxx	czerwony	red	hit	n/a
216.5492	n/a	RESPONSE	n/a	n/a	n/a	n/a	n/a	n/a	n/a	red
216.5668	1.0167	ITI	n/a	n/a	n/a	n/a	n/a	n/a	n/a	n/a
217.5835	0.5167	FIXCROSS	n/a	n/a	n/a	n/a	n/a	n/a	n/a	n/a
218.1001	1.1833	INK	59	Incongruent	niebieski	blue	żółty	yellow	hit	n/a
219.2658	n/a	RESPONSE	n/a	n/a	n/a	n/a	n/a	n/a	n/a	yellow
219.2835	1.0167	ITI	n/a	n/a	n/a	n/a	n/a	n/a	n/a	n/a
220.3001	0.5167	FIXCROSS	n/a	n/a	n/a	n/a	n/a	n/a	n/a	n/a
220.8168	0.95	INK	60	Neutral	xxxxxxxxx	xxxxxxxxx	zielony	green	hit	n/a
221.7428	n/a	RESPONSE	n/a	n/a	n/a	n/a	n/a	n/a	n/a	green
221.7668	1.0167	ITI	n/a	n/a	n/a	n/a	n/a	n/a	n/a	n/a
222.7835	0.5167	FIXCROSS	n/a	n/a	n/a	n/a	n/a	n/a	n/a	n/a
223.3002	0.6333	INK	61	Neutral	xxxxxxx	xxxxxxx	czerwony	red	hit	n/a
223.9161	n/a	RESPONSE	n/a	n/a	n/a	n/a	n/a	n/a	n/a	red
223.9335	1.0167	ITI	n/a	n/a	n/a	n/a	n/a	n/a	n/a	n/a
224.9502	0.5167	FIXCROSS	n/a	n/a	n/a	n/a	n/a	n/a	n/a	n/a
225.4669	1.5	INK	62	Incongruent	zielony	green	niebieski	blue	hit	n/a
226.9364	n/a	RESPONSE	n/a	n/a	n/a	n/a	n/a	n/a	n/a	blue
226.9669	1.0167	ITI	n/a	n/a	n/a	n/a	n/a	n/a	n/a	n/a
227.9835	0.5167	FIXCROSS	n/a	n/a	n/a	n/a	n/a	n/a	n/a	n/a
228.5002	0.7167	INK	63	Neutral	xxxxxxx	xxxxxxx	czerwony	red	hit	n/a
229.1896	n/a	RESPONSE	n/a	n/a	n/a	n/a	n/a	n/a	n/a	red
229.2169	1.0167	ITI	n/a	n/a	n/a	n/a	n/a	n/a	n/a	n/a
230.2335	0.5167	FIXCROSS	n/a	n/a	n/a	n/a	n/a	n/a	n/a	n/a
230.7502	1.2834	INK	64	Neutral	xxxxxxxx	xxxxxxxx	zielony	green	hit	n/a
232.0021	n/a	RESPONSE	n/a	n/a	n/a	n/a	n/a	n/a	n/a	green
232.0336	1.0166	ITI	n/a	n/a	n/a	n/a	n/a	n/a	n/a	n/a
233.0502	0.5167	FIXCROSS	n/a	n/a	n/a	n/a	n/a	n/a	n/a	n/a
233.5669	0.75	INK	65	Neutral	xxxxx	xxxxx	zielony	green	hit	n/a
234.2873	n/a	RESPONSE	n/a	n/a	n/a	n/a	n/a	n/a	n/a	green
234.3169	1.0167	ITI	n/a	n/a	n/a	n/a	n/a	n/a	n/a	n/a
235.3336	0.5167	FIXCROSS	n/a	n/a	n/a	n/a	n/a	n/a	n/a	n/a
235.8503	1.2833	INK	66	Incongruent	czerwony	red	niebieski	blue	hit	n/a
237.0997	n/a	RESPONSE	n/a	n/a	n/a	n/a	n/a	n/a	n/a	blue
237.1336	1.0167	ITI	n/a	n/a	n/a	n/a	n/a	n/a	n/a	n/a
238.1503	0.5167	FIXCROSS	n/a	n/a	n/a	n/a	n/a	n/a	n/a	n/a
238.667	1.1167	INK	67	Incongruent	zielony	green	niebieski	blue	hit	n/a
239.7525	n/a	RESPONSE	n/a	n/a	n/a	n/a	n/a	n/a	n/a	blue
239.7836	1.0166	ITI	n/a	n/a	n/a	n/a	n/a	n/a	n/a	n/a
240.8003	0.5167	FIXCROSS	n/a	n/a	n/a	n/a	n/a	n/a	n/a	n/a
241.317	1.0167	INK	68	Incongruent	żółty	yellow	czerwony	red	hit	n/a
242.3093	n/a	RESPONSE	n/a	n/a	n/a	n/a	n/a	n/a	n/a	red
242.3336	1.0167	ITI	n/a	n/a	n/a	n/a	n/a	n/a	n/a	n/a
243.3503	0.5167	FIXCROSS	n/a	n/a	n/a	n/a	n/a	n/a	n/a	n/a
243.867	0.7833	INK	69	Neutral	xxxxxxxxx	xxxxxxxxx	czerwony	red	hit	n/a
244.6265	n/a	RESPONSE	n/a	n/a	n/a	n/a	n/a	n/a	n/a	red
244.6503	1.0167	ITI	n/a	n/a	n/a	n/a	n/a	n/a	n/a	n/a
245.667	0.5167	FIXCROSS	n/a	n/a	n/a	n/a	n/a	n/a	n/a	n/a
246.1837	1.05	INK	70	Incongruent	zielony	green	niebieski	blue	hit	n/a
247.2152	n/a	RESPONSE	n/a	n/a	n/a	n/a	n/a	n/a	n/a	blue
247.2337	1.0167	ITI	n/a	n/a	n/a	n/a	n/a	n/a	n/a	n/a
248.2504	0.5166	FIXCROSS	n/a	n/a	n/a	n/a	n/a	n/a	n/a	n/a
248.767	1.7167	INK	71	Incongruent	czerwony	red	żółty	yellow	hit	n/a
250.4592	n/a	RESPONSE	n/a	n/a	n/a	n/a	n/a	n/a	n/a	yellow
250.4837	1.0167	ITI	n/a	n/a	n/a	n/a	n/a	n/a	n/a	n/a
251.5004	0.5167	FIXCROSS	n/a	n/a	n/a	n/a	n/a	n/a	n/a	n/a
252.0171	0.95	INK	72	Incongruent	czerwony	red	niebieski	blue	hit	n/a
252.9362	n/a	RESPONSE	n/a	n/a	n/a	n/a	n/a	n/a	n/a	blue
252.9671	1.0834	ITI	n/a	n/a	n/a	n/a	n/a	n/a	n/a	n/a
285.9354	n/a	RESPONSE	n/a	n/a	n/a	n/a	n/a	n/a	n/a	n/a
286.0006	1.0167	ITI	n/a	n/a	n/a	n/a	n/a	n/a	n/a	n/a
287.0173	0.5167	FIXCROSS	n/a	n/a	n/a	n/a	n/a	n/a	n/a	n/a
287.534	2.1167	T_COLOR_NAME	1	Neutral	żółty	yellow	Neutral	Neutral	hit	n/a
289.6268	n/a	RESPONSE	n/a	n/a	n/a	n/a	n/a	n/a	n/a	yellow
289.6507	0.5167	FEEDBACK	n/a	n/a	n/a	n/a	n/a	n/a	n/a	n/a
290.1673	1.0167	ITI	n/a	n/a	n/a	n/a	n/a	n/a	n/a	n/a
291.184	0.5167	FIXCROSS	n/a	n/a	n/a	n/a	n/a	n/a	n/a	n/a
291.7007	1.4834	T_COLOR_NAME	2	Neutral	zielony	green	Neutral	Neutral	hit	n/a
293.1585	n/a	RESPONSE	n/a	n/a	n/a	n/a	n/a	n/a	n/a	green
293.184	0.5167	FEEDBACK	n/a	n/a	n/a	n/a	n/a	n/a	n/a	n/a
293.7007	1.0167	ITI	n/a	n/a	n/a	n/a	n/a	n/a	n/a	n/a
294.7174	0.5167	FIXCROSS	n/a	n/a	n/a	n/a	n/a	n/a	n/a	n/a
295.2341	1.7167	T_COLOR_NAME	3	Incongruent	niebieski	blue	żółty	yellow	incorrect	n/a
296.9298	n/a	RESPONSE	n/a	n/a	n/a	n/a	n/a	n/a	n/a	yellow
296.9507	0.5167	FEEDBACK	n/a	n/a	n/a	n/a	n/a	n/a	n/a	n/a
297.4674	1.0167	ITI	n/a	n/a	n/a	n/a	n/a	n/a	n/a	n/a
298.4841	0.5167	FIXCROSS	n/a	n/a	n/a	n/a	n/a	n/a	n/a	n/a
299.0007	2.3	T_COLOR_NAME	4	Incongruent	zielony	green	niebieski	blue	hit	n/a
301.2765	n/a	RESPONSE	n/a	n/a	n/a	n/a	n/a	n/a	n/a	green
301.3008	0.5167	FEEDBACK	n/a	n/a	n/a	n/a	n/a	n/a	n/a	n/a
301.8174	1.0167	ITI	n/a	n/a	n/a	n/a	n/a	n/a	n/a	n/a
302.8341	0.5167	FIXCROSS	n/a	n/a	n/a	n/a	n/a	n/a	n/a	n/a
303.3508	1.8	T_COLOR_NAME	5	Incongruent	żółty	yellow	czerwony	red	incorrect	n/a
305.1277	n/a	RESPONSE	n/a	n/a	n/a	n/a	n/a	n/a	n/a	red
305.1508	0.5167	FEEDBACK	n/a	n/a	n/a	n/a	n/a	n/a	n/a	n/a
305.6675	1.0167	ITI	n/a	n/a	n/a	n/a	n/a	n/a	n/a	n/a
306.6841	0.5167	FIXCROSS	n/a	n/a	n/a	n/a	n/a	n/a	n/a	n/a
307.2008	2.1334	T_COLOR_NAME	6	Incongruent	niebieski	blue	zielony	green	hit	n/a
309.3146	n/a	RESPONSE	n/a	n/a	n/a	n/a	n/a	n/a	n/a	blue
309.3342	0.5167	FEEDBACK	n/a	n/a	n/a	n/a	n/a	n/a	n/a	n/a
309.8508	1.0167	ITI	n/a	n/a	n/a	n/a	n/a	n/a	n/a	n/a
310.8675	0.5167	FIXCROSS	n/a	n/a	n/a	n/a	n/a	n/a	n/a	n/a
311.3842	1.7333	T_COLOR_NAME	7	Neutral	czerwony	red	Neutral	Neutral	hit	n/a
313.0859	n/a	RESPONSE	n/a	n/a	n/a	n/a	n/a	n/a	n/a	red
313.1175	0.5167	FEEDBACK	n/a	n/a	n/a	n/a	n/a	n/a	n/a	n/a
313.6342	1.0167	ITI	n/a	n/a	n/a	n/a	n/a	n/a	n/a	n/a
314.6509	0.5167	FIXCROSS	n/a	n/a	n/a	n/a	n/a	n/a	n/a	n/a
315.1675	1.15	T_COLOR_NAME	8	Neutral	czerwony	red	Neutral	Neutral	hit	n/a
316.282	n/a	RESPONSE	n/a	n/a	n/a	n/a	n/a	n/a	n/a	red
316.3175	0.5167	FEEDBACK	n/a	n/a	n/a	n/a	n/a	n/a	n/a	n/a
316.8342	1.0167	ITI	n/a	n/a	n/a	n/a	n/a	n/a	n/a	n/a
317.8509	0.5167	FIXCROSS	n/a	n/a	n/a	n/a	n/a	n/a	n/a	n/a
318.3676	0.9333	T_COLOR_NAME	9	Neutral	żółty	yellow	Neutral	Neutral	hit	n/a
319.2703	n/a	RESPONSE	n/a	n/a	n/a	n/a	n/a	n/a	n/a	yellow
319.3009	0.5167	FEEDBACK	n/a	n/a	n/a	n/a	n/a	n/a	n/a	n/a
319.8176	1.0167	ITI	n/a	n/a	n/a	n/a	n/a	n/a	n/a	n/a
320.8343	0.5167	FIXCROSS	n/a	n/a	n/a	n/a	n/a	n/a	n/a	n/a
321.3509	1.6	T_COLOR_NAME	10	Neutral	niebieski	blue	Neutral	Neutral	hit	n/a
322.9298	n/a	RESPONSE	n/a	n/a	n/a	n/a	n/a	n/a	n/a	blue
322.9509	0.5167	FEEDBACK	n/a	n/a	n/a	n/a	n/a	n/a	n/a	n/a
323.4676	1.0167	ITI	n/a	n/a	n/a	n/a	n/a	n/a	n/a	n/a
324.4843	0.5167	FIXCROSS	n/a	n/a	n/a	n/a	n/a	n/a	n/a	n/a
325.001	3.45	T_COLOR_NAME	11	Incongruent	niebieski	blue	czerwony	red	hit	n/a
328.427	n/a	RESPONSE	n/a	n/a	n/a	n/a	n/a	n/a	n/a	blue
328.451	0.5167	FEEDBACK	n/a	n/a	n/a	n/a	n/a	n/a	n/a	n/a
328.9677	1.0167	ITI	n/a	n/a	n/a	n/a	n/a	n/a	n/a	n/a
329.9843	0.5167	FIXCROSS	n/a	n/a	n/a	n/a	n/a	n/a	n/a	n/a
330.501	2.0167	T_COLOR_NAME	12	Neutral	zielony	green	Neutral	Neutral	hit	n/a
332.4859	n/a	RESPONSE	n/a	n/a	n/a	n/a	n/a	n/a	n/a	green
332.5177	0.5167	FEEDBACK	n/a	n/a	n/a	n/a	n/a	n/a	n/a	n/a
333.0343	1.0333	ITI	n/a	n/a	n/a	n/a	n/a	n/a	n/a	n/a
339.0857	n/a	RESPONSE	n/a	n/a	n/a	n/a	n/a	n/a	n/a	n/a
339.1511	1.0167	ITI	n/a	n/a	n/a	n/a	n/a	n/a	n/a	n/a
340.1677	0.5167	FIXCROSS	n/a	n/a	n/a	n/a	n/a	n/a	n/a	n/a
340.6844	1.2167	COLOR_NAME	1	Neutral	żółty	yellow	Neutral	Neutral	hit	n/a
341.8823	n/a	RESPONSE	n/a	n/a	n/a	n/a	n/a	n/a	n/a	yellow
341.9011	1.0167	ITI	n/a	n/a	n/a	n/a	n/a	n/a	n/a	n/a
342.9178	0.5167	FIXCROSS	n/a	n/a	n/a	n/a	n/a	n/a	n/a	n/a
343.4344	1.2667	COLOR_NAME	2	Neutral	niebieski	blue	Neutral	Neutral	hit	n/a
344.6789	n/a	RESPONSE	n/a	n/a	n/a	n/a	n/a	n/a	n/a	blue
344.7011	1.0167	ITI	n/a	n/a	n/a	n/a	n/a	n/a	n/a	n/a
345.7178	0.5167	FIXCROSS	n/a	n/a	n/a	n/a	n/a	n/a	n/a	n/a
346.2345	1.4667	COLOR_NAME	3	Neutral	żółty	yellow	Neutral	Neutral	hit	n/a
347.6673	n/a	RESPONSE	n/a	n/a	n/a	n/a	n/a	n/a	n/a	yellow
347.7011	1.0167	ITI	n/a	n/a	n/a	n/a	n/a	n/a	n/a	n/a
348.7178	0.5167	FIXCROSS	n/a	n/a	n/a	n/a	n/a	n/a	n/a	n/a
349.2345	1.7167	COLOR_NAME	4	Neutral	zielony	green	Neutral	Neutral	hit	n/a
350.9272	n/a	RESPONSE	n/a	n/a	n/a	n/a	n/a	n/a	n/a	green
350.9512	1.0167	ITI	n/a	n/a	n/a	n/a	n/a	n/a	n/a	n/a
351.9678	0.5167	FIXCROSS	n/a	n/a	n/a	n/a	n/a	n/a	n/a	n/a
352.4845	3.05	COLOR_NAME	5	Incongruent	niebieski	blue	żółty	yellow	hit	n/a
355.5136	n/a	RESPONSE	n/a	n/a	n/a	n/a	n/a	n/a	n/a	blue
355.5345	1.0167	ITI	n/a	n/a	n/a	n/a	n/a	n/a	n/a	n/a
356.5512	0.5167	FIXCROSS	n/a	n/a	n/a	n/a	n/a	n/a	n/a	n/a
357.0679	1.2	COLOR_NAME	6	Incongruent	żółty	yellow	niebieski	blue	hit	n/a
358.2461	n/a	RESPONSE	n/a	n/a	n/a	n/a	n/a	n/a	n/a	yellow
358.2679	1.0167	ITI	n/a	n/a	n/a	n/a	n/a	n/a	n/a	n/a
359.2846	0.5167	FIXCROSS	n/a	n/a	n/a	n/a	n/a	n/a	n/a	n/a
359.8012	1.35	COLOR_NAME	7	Neutral	czerwony	red	Neutral	Neutral	hit	n/a
361.1226	n/a	RESPONSE	n/a	n/a	n/a	n/a	n/a	n/a	n/a	red
361.1512	1.0167	ITI	n/a	n/a	n/a	n/a	n/a	n/a	n/a	n/a
362.1679	0.5167	FIXCROSS	n/a	n/a	n/a	n/a	n/a	n/a	n/a	n/a
362.6846	2.85	COLOR_NAME	8	Incongruent	niebieski	blue	czerwony	red	hit	n/a
365.5172	n/a	RESPONSE	n/a	n/a	n/a	n/a	n/a	n/a	n/a	blue
365.5346	1.0167	ITI	n/a	n/a	n/a	n/a	n/a	n/a	n/a	n/a
366.5513	0.5167	FIXCROSS	n/a	n/a	n/a	n/a	n/a	n/a	n/a	n/a
367.068	1.7	COLOR_NAME	9	Neutral	czerwony	red	Neutral	Neutral	hit	n/a
368.7452	n/a	RESPONSE	n/a	n/a	n/a	n/a	n/a	n/a	n/a	red
368.768	1.0167	ITI	n/a	n/a	n/a	n/a	n/a	n/a	n/a	n/a
369.7846	0.5167	FIXCROSS	n/a	n/a	n/a	n/a	n/a	n/a	n/a	n/a
370.3013	1.1	COLOR_NAME	10	Incongruent	żółty	yellow	czerwony	red	hit	n/a
371.382	n/a	RESPONSE	n/a	n/a	n/a	n/a	n/a	n/a	n/a	yellow
371.4013	1.0167	ITI	n/a	n/a	n/a	n/a	n/a	n/a	n/a	n/a
372.418	0.5167	FIXCROSS	n/a	n/a	n/a	n/a	n/a	n/a	n/a	n/a
372.9347	1.0833	COLOR_NAME	11	Incongruent	czerwony	red	niebieski	blue	hit	n/a
373.9867	n/a	RESPONSE	n/a	n/a	n/a	n/a	n/a	n/a	n/a	red
374.018	1.0167	ITI	n/a	n/a	n/a	n/a	n/a	n/a	n/a	n/a
375.0347	0.5167	FIXCROSS	n/a	n/a	n/a	n/a	n/a	n/a	n/a	n/a
375.5513	1.2834	COLOR_NAME	12	Incongruent	żółty	yellow	niebieski	blue	hit	n/a
376.8152	n/a	RESPONSE	n/a	n/a	n/a	n/a	n/a	n/a	n/a	yellow
376.8347	1.0167	ITI	n/a	n/a	n/a	n/a	n/a	n/a	n/a	n/a
377.8514	0.5167	FIXCROSS	n/a	n/a	n/a	n/a	n/a	n/a	n/a	n/a
378.368	0.8167	COLOR_NAME	13	Neutral	żółty	yellow	Neutral	Neutral	hit	n/a
379.1643	n/a	RESPONSE	n/a	n/a	n/a	n/a	n/a	n/a	n/a	yellow
379.1847	1.0167	ITI	n/a	n/a	n/a	n/a	n/a	n/a	n/a	n/a
380.2014	0.5167	FIXCROSS	n/a	n/a	n/a	n/a	n/a	n/a	n/a	n/a
380.7181	1.6	COLOR_NAME	14	Incongruent	niebieski	blue	zielony	green	hit	n/a
382.2965	n/a	RESPONSE	n/a	n/a	n/a	n/a	n/a	n/a	n/a	blue
382.3181	1.0167	ITI	n/a	n/a	n/a	n/a	n/a	n/a	n/a	n/a
383.3347	0.5167	FIXCROSS	n/a	n/a	n/a	n/a	n/a	n/a	n/a	n/a
383.8514	1.8833	COLOR_NAME	15	Neutral	czerwony	red	Neutral	Neutral	hit	n/a
385.7162	n/a	RESPONSE	n/a	n/a	n/a	n/a	n/a	n/a	n/a	red
385.7347	1.0167	ITI	n/a	n/a	n/a	n/a	n/a	n/a	n/a	n/a
386.7514	0.5167	FIXCROSS	n/a	n/a	n/a	n/a	n/a	n/a	n/a	n/a
387.2681	1.5	COLOR_NAME	16	Neutral	żółty	yellow	Neutral	Neutral	hit	n/a
388.7364	n/a	RESPONSE	n/a	n/a	n/a	n/a	n/a	n/a	n/a	yellow
388.7681	1.0167	ITI	n/a	n/a	n/a	n/a	n/a	n/a	n/a	n/a
389.7848	0.5167	FIXCROSS	n/a	n/a	n/a	n/a	n/a	n/a	n/a	n/a
390.3015	1.8167	COLOR_NAME	17	Incongruent	czerwony	red	żółty	yellow	hit	n/a
392.0923	n/a	RESPONSE	n/a	n/a	n/a	n/a	n/a	n/a	n/a	red
392.1181	1.0167	ITI	n/a	n/a	n/a	n/a	n/a	n/a	n/a	n/a
393.1348	0.5167	FIXCROSS	n/a	n/a	n/a	n/a	n/a	n/a	n/a	n/a
393.6515	0.85	COLOR_NAME	18	Neutral	żółty	yellow	Neutral	Neutral	hit	n/a
394.4734	n/a	RESPONSE	n/a	n/a	n/a	n/a	n/a	n/a	n/a	yellow
394.5015	1.0167	ITI	n/a	n/a	n/a	n/a	n/a	n/a	n/a	n/a
395.5182	0.5167	FIXCROSS	n/a	n/a	n/a	n/a	n/a	n/a	n/a	n/a
396.0348	1.6167	COLOR_NAME	19	Neutral	niebieski	blue	Neutral	Neutral	hit	n/a
397.6215	n/a	RESPONSE	n/a	n/a	n/a	n/a	n/a	n/a	n/a	blue
397.6515	1.0167	ITI	n/a	n/a	n/a	n/a	n/a	n/a	n/a	n/a
398.6682	0.5167	FIXCROSS	n/a	n/a	n/a	n/a	n/a	n/a	n/a	n/a
399.1849	1.1333	COLOR_NAME	20	Neutral	zielony	green	Neutral	Neutral	hit	n/a
400.2902	n/a	RESPONSE	n/a	n/a	n/a	n/a	n/a	n/a	n/a	green
400.3182	1.0167	ITI	n/a	n/a	n/a	n/a	n/a	n/a	n/a	n/a
401.3349	0.5167	FIXCROSS	n/a	n/a	n/a	n/a	n/a	n/a	n/a	n/a
401.8515	0.9833	COLOR_NAME	21	Incongruent	czerwony	red	zielony	green	hit	n/a
402.8151	n/a	RESPONSE	n/a	n/a	n/a	n/a	n/a	n/a	n/a	red
402.8349	1.0167	ITI	n/a	n/a	n/a	n/a	n/a	n/a	n/a	n/a
403.8516	0.5167	FIXCROSS	n/a	n/a	n/a	n/a	n/a	n/a	n/a	n/a
404.3682	2.0834	COLOR_NAME	22	Neutral	czerwony	red	Neutral	Neutral	hit	n/a
406.4266	n/a	RESPONSE	n/a	n/a	n/a	n/a	n/a	n/a	n/a	red
406.4516	1.0167	ITI	n/a	n/a	n/a	n/a	n/a	n/a	n/a	n/a
407.4683	0.5167	FIXCROSS	n/a	n/a	n/a	n/a	n/a	n/a	n/a	n/a
407.9849	2.1	COLOR_NAME	23	Neutral	żółty	yellow	Neutral	Neutral	hit	n/a
410.0541	n/a	RESPONSE	n/a	n/a	n/a	n/a	n/a	n/a	n/a	yellow
410.0849	1.0166	ITI	n/a	n/a	n/a	n/a	n/a	n/a	n/a	n/a
411.1016	0.5167	FIXCROSS	n/a	n/a	n/a	n/a	n/a	n/a	n/a	n/a
411.6183	3.0833	COLOR_NAME	24	Neutral	zielony	green	Neutral	Neutral	hit	n/a
414.6724	n/a	RESPONSE	n/a	n/a	n/a	n/a	n/a	n/a	n/a	green
414.7016	1.0167	ITI	n/a	n/a	n/a	n/a	n/a	n/a	n/a	n/a
415.7183	0.5167	FIXCROSS	n/a	n/a	n/a	n/a	n/a	n/a	n/a	n/a
416.235	1.6167	COLOR_NAME	25	Incongruent	żółty	yellow	czerwony	red	hit	n/a
417.8205	n/a	RESPONSE	n/a	n/a	n/a	n/a	n/a	n/a	n/a	yellow
417.8517	1.0167	ITI	n/a	n/a	n/a	n/a	n/a	n/a	n/a	n/a
418.8683	0.5167	FIXCROSS	n/a	n/a	n/a	n/a	n/a	n/a	n/a	n/a
419.385	0.9333	COLOR_NAME	26	Neutral	czerwony	red	Neutral	Neutral	hit	n/a
420.2975	n/a	RESPONSE	n/a	n/a	n/a	n/a	n/a	n/a	n/a	red
420.3184	1.0167	ITI	n/a	n/a	n/a	n/a	n/a	n/a	n/a	n/a
421.335	0.5167	FIXCROSS	n/a	n/a	n/a	n/a	n/a	n/a	n/a	n/a
421.8517	2.4834	COLOR_NAME	27	Incongruent	żółty	yellow	czerwony	red	hit	n/a
424.3084	n/a	RESPONSE	n/a	n/a	n/a	n/a	n/a	n/a	n/a	yellow
424.3351	1.0167	ITI	n/a	n/a	n/a	n/a	n/a	n/a	n/a	n/a
425.3517	0.5167	FIXCROSS	n/a	n/a	n/a	n/a	n/a	n/a	n/a	n/a
425.8684	2.2667	COLOR_NAME	28	Neutral	zielony	green	Neutral	Neutral	hit	n/a
428.1117	n/a	RESPONSE	n/a	n/a	n/a	n/a	n/a	n/a	n/a	green
428.1351	1.0167	ITI	n/a	n/a	n/a	n/a	n/a	n/a	n/a	n/a
429.1518	0.5167	FIXCROSS	n/a	n/a	n/a	n/a	n/a	n/a	n/a	n/a
429.6684	0.9	COLOR_NAME	29	Incongruent	zielony	green	żółty	yellow	hit	n/a
430.5408	n/a	RESPONSE	n/a	n/a	n/a	n/a	n/a	n/a	n/a	green
430.5684	1.0167	ITI	n/a	n/a	n/a	n/a	n/a	n/a	n/a	n/a
431.5851	0.5167	FIXCROSS	n/a	n/a	n/a	n/a	n/a	n/a	n/a	n/a
432.1018	0.8833	COLOR_NAME	30	Neutral	czerwony	red	Neutral	Neutral	hit	n/a
432.9538	n/a	RESPONSE	n/a	n/a	n/a	n/a	n/a	n/a	n/a	red
432.9851	1.0166	ITI	n/a	n/a	n/a	n/a	n/a	n/a	n/a	n/a
434.0017	0.5167	FIXCROSS	n/a	n/a	n/a	n/a	n/a	n/a	n/a	n/a
434.5185	0.95	COLOR_NAME	31	Incongruent	czerwony	red	zielony	green	hit	n/a
435.4468	n/a	RESPONSE	n/a	n/a	n/a	n/a	n/a	n/a	n/a	red
435.4685	1.0167	ITI	n/a	n/a	n/a	n/a	n/a	n/a	n/a	n/a
436.4852	0.5167	FIXCROSS	n/a	n/a	n/a	n/a	n/a	n/a	n/a	n/a
437.0018	1.2833	COLOR_NAME	32	Neutral	zielony	green	Neutral	Neutral	hit	n/a
438.2592	n/a	RESPONSE	n/a	n/a	n/a	n/a	n/a	n/a	n/a	green
438.2852	1.0167	ITI	n/a	n/a	n/a	n/a	n/a	n/a	n/a	n/a
439.3018	0.5167	FIXCROSS	n/a	n/a	n/a	n/a	n/a	n/a	n/a	n/a
439.8185	0.6833	COLOR_NAME	33	Incongruent	zielony	green	żółty	yellow	hit	n/a
440.4805	n/a	RESPONSE	n/a	n/a	n/a	n/a	n/a	n/a	n/a	green
440.5019	1.0167	ITI	n/a	n/a	n/a	n/a	n/a	n/a	n/a	n/a
441.5185	0.5167	FIXCROSS	n/a	n/a	n/a	n/a	n/a	n/a	n/a	n/a
442.0352	1.3667	COLOR_NAME	34	Neutral	niebieski	blue	Neutral	Neutral	hit	n/a
443.373	n/a	RESPONSE	n/a	n/a	n/a	n/a	n/a	n/a	n/a	blue
443.4019	1.0167	ITI	n/a	n/a	n/a	n/a	n/a	n/a	n/a	n/a
444.4185	0.5167	FIXCROSS	n/a	n/a	n/a	n/a	n/a	n/a	n/a	n/a
444.9352	0.95	COLOR_NAME	35	Neutral	czerwony	red	Neutral	Neutral	hit	n/a
445.8658	n/a	RESPONSE	n/a	n/a	n/a	n/a	n/a	n/a	n/a	red
445.8852	1.0167	ITI	n/a	n/a	n/a	n/a	n/a	n/a	n/a	n/a
446.9019	0.5167	FIXCROSS	n/a	n/a	n/a	n/a	n/a	n/a	n/a	n/a
447.4186	3.0167	COLOR_NAME	36	Neutral	niebieski	blue	Neutral	Neutral	hit	n/a
450.4043	n/a	RESPONSE	n/a	n/a	n/a	n/a	n/a	n/a	n/a	blue
450.4353	1.0167	ITI	n/a	n/a	n/a	n/a	n/a	n/a	n/a	n/a
451.4519	0.5167	FIXCROSS	n/a	n/a	n/a	n/a	n/a	n/a	n/a	n/a
451.9686	1.8	COLOR_NAME	37	Incongruent	zielony	green	niebieski	blue	hit	n/a
453.7441	n/a	RESPONSE	n/a	n/a	n/a	n/a	n/a	n/a	n/a	green
453.7686	1.0167	ITI	n/a	n/a	n/a	n/a	n/a	n/a	n/a	n/a
454.7853	0.5167	FIXCROSS	n/a	n/a	n/a	n/a	n/a	n/a	n/a	n/a
455.302	0.9833	COLOR_NAME	38	Incongruent	czerwony	red	niebieski	blue	hit	n/a
456.2529	n/a	RESPONSE	n/a	n/a	n/a	n/a	n/a	n/a	n/a	red
456.2853	1.0167	ITI	n/a	n/a	n/a	n/a	n/a	n/a	n/a	n/a
457.302	0.5167	FIXCROSS	n/a	n/a	n/a	n/a	n/a	n/a	n/a	n/a
457.8186	0.6833	COLOR_NAME	39	Neutral	czerwony	red	Neutral	Neutral	hit	n/a
458.4743	n/a	RESPONSE	n/a	n/a	n/a	n/a	n/a	n/a	n/a	red
458.502	1.0167	ITI	n/a	n/a	n/a	n/a	n/a	n/a	n/a	n/a
459.5187	0.5167	FIXCROSS	n/a	n/a	n/a	n/a	n/a	n/a	n/a	n/a
460.0353	3.1	COLOR_NAME	40	Incongruent	żółty	yellow	zielony	green	hit	n/a
463.1085	n/a	RESPONSE	n/a	n/a	n/a	n/a	n/a	n/a	n/a	yellow
463.1354	1.0167	ITI	n/a	n/a	n/a	n/a	n/a	n/a	n/a	n/a
464.152	0.5167	FIXCROSS	n/a	n/a	n/a	n/a	n/a	n/a	n/a	n/a
464.6687	1.1833	COLOR_NAME	41	Incongruent	zielony	green	czerwony	red	hit	n/a
465.8252	n/a	RESPONSE	n/a	n/a	n/a	n/a	n/a	n/a	n/a	green
465.852	1.0167	ITI	n/a	n/a	n/a	n/a	n/a	n/a	n/a	n/a
466.8687	0.5167	FIXCROSS	n/a	n/a	n/a	n/a	n/a	n/a	n/a	n/a
467.3854	1.3333	COLOR_NAME	42	Neutral	żółty	yellow	Neutral	Neutral	hit	n/a
468.7015	n/a	RESPONSE	n/a	n/a	n/a	n/a	n/a	n/a	n/a	yellow
468.7187	1.0167	ITI	n/a	n/a	n/a	n/a	n/a	n/a	n/a	n/a
469.7354	0.5167	FIXCROSS	n/a	n/a	n/a	n/a	n/a	n/a	n/a	n/a
470.2521	0.85	COLOR_NAME	43	Incongruent	żółty	yellow	niebieski	blue	hit	n/a
471.0826	n/a	RESPONSE	n/a	n/a	n/a	n/a	n/a	n/a	n/a	yellow
471.1021	1.0167	ITI	n/a	n/a	n/a	n/a	n/a	n/a	n/a	n/a
472.1188	0.5167	FIXCROSS	n/a	n/a	n/a	n/a	n/a	n/a	n/a	n/a
472.6354	1.85	COLOR_NAME	44	Incongruent	niebieski	blue	zielony	green	hit	n/a
474.4544	n/a	RESPONSE	n/a	n/a	n/a	n/a	n/a	n/a	n/a	blue
474.4854	1.0167	ITI	n/a	n/a	n/a	n/a	n/a	n/a	n/a	n/a
475.5021	0.5167	FIXCROSS	n/a	n/a	n/a	n/a	n/a	n/a	n/a	n/a
476.0188	1.15	COLOR_NAME	45	Incongruent	żółty	yellow	zielony	green	hit	n/a
477.1391	n/a	RESPONSE	n/a	n/a	n/a	n/a	n/a	n/a	n/a	yellow
477.1688	1.0167	ITI	n/a	n/a	n/a	n/a	n/a	n/a	n/a	n/a
478.1855	0.5167	FIXCROSS	n/a	n/a	n/a	n/a	n/a	n/a	n/a	n/a
478.7021	1.2167	COLOR_NAME	46	Incongruent	zielony	green	czerwony	red	hit	n/a
479.8877	n/a	RESPONSE	n/a	n/a	n/a	n/a	n/a	n/a	n/a	green
479.9188	1.0167	ITI	n/a	n/a	n/a	n/a	n/a	n/a	n/a	n/a
480.9355	0.5167	FIXCROSS	n/a	n/a	n/a	n/a	n/a	n/a	n/a	n/a
481.4522	1.2667	COLOR_NAME	47	Incongruent	niebieski	blue	czerwony	red	hit	n/a
482.7003	n/a	RESPONSE	n/a	n/a	n/a	n/a	n/a	n/a	n/a	blue
482.7188	1.0167	ITI	n/a	n/a	n/a	n/a	n/a	n/a	n/a	n/a
483.7355	0.5167	FIXCROSS	n/a	n/a	n/a	n/a	n/a	n/a	n/a	n/a
484.2522	5.0167	COLOR_NAME	48	Neutral	niebieski	blue	Neutral	Neutral	incorrect	n/a
485.2571	n/a	RESPONSE	n/a	n/a	n/a	n/a	n/a	n/a	n/a	n/a
486.2638	n/a	RESPONSE	n/a	n/a	n/a	n/a	n/a	n/a	n/a	blue
487.7979	n/a	RESPONSE	n/a	n/a	n/a	n/a	n/a	n/a	n/a	blue
489.2689	1.0167	ITI	n/a	n/a	n/a	n/a	n/a	n/a	n/a	n/a
490.2856	0.5167	FIXCROSS	n/a	n/a	n/a	n/a	n/a	n/a	n/a	n/a
490.8022	3.1834	COLOR_NAME	49	Neutral	żółty	yellow	Neutral	Neutral	hit	n/a
493.9662	n/a	RESPONSE	n/a	n/a	n/a	n/a	n/a	n/a	n/a	yellow
493.9856	1.0167	ITI	n/a	n/a	n/a	n/a	n/a	n/a	n/a	n/a
495.0023	0.5167	FIXCROSS	n/a	n/a	n/a	n/a	n/a	n/a	n/a	n/a
495.5189	0.95	COLOR_NAME	50	Incongruent	czerwony	red	zielony	green	hit	n/a
496.4432	n/a	RESPONSE	n/a	n/a	n/a	n/a	n/a	n/a	n/a	red
496.469	1.0167	ITI	n/a	n/a	n/a	n/a	n/a	n/a	n/a	n/a
497.4856	0.5167	FIXCROSS	n/a	n/a	n/a	n/a	n/a	n/a	n/a	n/a
498.0023	1.3833	COLOR_NAME	51	Neutral	niebieski	blue	Neutral	Neutral	hit	n/a
499.3676	n/a	RESPONSE	n/a	n/a	n/a	n/a	n/a	n/a	n/a	blue
499.3856	1.0167	ITI	n/a	n/a	n/a	n/a	n/a	n/a	n/a	n/a
500.4023	0.5167	FIXCROSS	n/a	n/a	n/a	n/a	n/a	n/a	n/a	n/a
500.919	1.7	COLOR_NAME	52	Neutral	niebieski	blue	Neutral	Neutral	hit	n/a
502.5956	n/a	RESPONSE	n/a	n/a	n/a	n/a	n/a	n/a	n/a	blue
502.619	1.0167	ITI	n/a	n/a	n/a	n/a	n/a	n/a	n/a	n/a
503.6357	0.5167	FIXCROSS	n/a	n/a	n/a	n/a	n/a	n/a	n/a	n/a
504.1523	1.45	COLOR_NAME	53	Incongruent	żółty	yellow	zielony	green	hit	n/a
505.568	n/a	RESPONSE	n/a	n/a	n/a	n/a	n/a	n/a	n/a	yellow
505.6023	1.0167	ITI	n/a	n/a	n/a	n/a	n/a	n/a	n/a	n/a
506.619	0.5167	FIXCROSS	n/a	n/a	n/a	n/a	n/a	n/a	n/a	n/a
507.1357	1.2667	COLOR_NAME	54	Neutral	niebieski	blue	Neutral	Neutral	hit	n/a
508.3804	n/a	RESPONSE	n/a	n/a	n/a	n/a	n/a	n/a	n/a	blue
508.4024	1.0167	ITI	n/a	n/a	n/a	n/a	n/a	n/a	n/a	n/a
509.419	0.5167	FIXCROSS	n/a	n/a	n/a	n/a	n/a	n/a	n/a	n/a
509.9357	1.9	COLOR_NAME	55	Neutral	żółty	yellow	Neutral	Neutral	hit	n/a
511.8162	n/a	RESPONSE	n/a	n/a	n/a	n/a	n/a	n/a	n/a	yellow
511.8357	1.0167	ITI	n/a	n/a	n/a	n/a	n/a	n/a	n/a	n/a
512.8524	0.5167	FIXCROSS	n/a	n/a	n/a	n/a	n/a	n/a	n/a	n/a
513.3691	1.6167	COLOR_NAME	56	Neutral	zielony	green	Neutral	Neutral	hit	n/a
514.9643	n/a	RESPONSE	n/a	n/a	n/a	n/a	n/a	n/a	n/a	green
514.9858	1.0167	ITI	n/a	n/a	n/a	n/a	n/a	n/a	n/a	n/a
516.0024	0.5167	FIXCROSS	n/a	n/a	n/a	n/a	n/a	n/a	n/a	n/a
516.5191	2.4	COLOR_NAME	57	Neutral	niebieski	blue	Neutral	Neutral	hit	n/a
518.8955	n/a	RESPONSE	n/a	n/a	n/a	n/a	n/a	n/a	n/a	blue
518.9191	1.0167	ITI	n/a	n/a	n/a	n/a	n/a	n/a	n/a	n/a
519.9358	0.5167	FIXCROSS	n/a	n/a	n/a	n/a	n/a	n/a	n/a	n/a
520.4525	1.7834	COLOR_NAME	58	Neutral	czerwony	red	Neutral	Neutral	hit	n/a
522.2033	n/a	RESPONSE	n/a	n/a	n/a	n/a	n/a	n/a	n/a	red
522.2358	1.0167	ITI	n/a	n/a	n/a	n/a	n/a	n/a	n/a	n/a
523.2525	0.5167	FIXCROSS	n/a	n/a	n/a	n/a	n/a	n/a	n/a	n/a
523.7692	2.0333	COLOR_NAME	59	Incongruent	zielony	green	żółty	yellow	hit	n/a
525.7829	n/a	RESPONSE	n/a	n/a	n/a	n/a	n/a	n/a	n/a	green
525.8025	1.0167	ITI	n/a	n/a	n/a	n/a	n/a	n/a	n/a	n/a
526.8192	0.5167	FIXCROSS	n/a	n/a	n/a	n/a	n/a	n/a	n/a	n/a
527.3359	0.8833	COLOR_NAME	60	Incongruent	czerwony	red	niebieski	blue	hit	n/a
528.1959	n/a	RESPONSE	n/a	n/a	n/a	n/a	n/a	n/a	n/a	red
528.2192	1.0167	ITI	n/a	n/a	n/a	n/a	n/a	n/a	n/a	n/a
529.2359	0.5167	FIXCROSS	n/a	n/a	n/a	n/a	n/a	n/a	n/a	n/a
529.7525	1.7834	COLOR_NAME	61	Incongruent	zielony	green	niebieski	blue	hit	n/a
531.5038	n/a	RESPONSE	n/a	n/a	n/a	n/a	n/a	n/a	n/a	green
531.5359	1.0167	ITI	n/a	n/a	n/a	n/a	n/a	n/a	n/a	n/a
532.5526	0.5167	FIXCROSS	n/a	n/a	n/a	n/a	n/a	n/a	n/a	n/a
533.0692	1.0167	COLOR_NAME	62	Incongruent	zielony	green	czerwony	red	hit	n/a
534.0606	n/a	RESPONSE	n/a	n/a	n/a	n/a	n/a	n/a	n/a	green
534.0859	1.0167	ITI	n/a	n/a	n/a	n/a	n/a	n/a	n/a	n/a
535.1026	0.5167	FIXCROSS	n/a	n/a	n/a	n/a	n/a	n/a	n/a	n/a
535.6193	0.7833	COLOR_NAME	63	Neutral	zielony	green	Neutral	Neutral	hit	n/a
536.3778	n/a	RESPONSE	n/a	n/a	n/a	n/a	n/a	n/a	n/a	green
536.4026	1.0167	ITI	n/a	n/a	n/a	n/a	n/a	n/a	n/a	n/a
537.4193	0.5167	FIXCROSS	n/a	n/a	n/a	n/a	n/a	n/a	n/a	n/a
537.9359	0.8	COLOR_NAME	64	Incongruent	zielony	green	niebieski	blue	hit	n/a
538.7109	n/a	RESPONSE	n/a	n/a	n/a	n/a	n/a	n/a	n/a	green
538.7359	1.0167	ITI	n/a	n/a	n/a	n/a	n/a	n/a	n/a	n/a
539.7526	0.5167	FIXCROSS	n/a	n/a	n/a	n/a	n/a	n/a	n/a	n/a
540.2693	0.7833	COLOR_NAME	65	Incongruent	czerwony	red	żółty	yellow	hit	n/a
541.028	n/a	RESPONSE	n/a	n/a	n/a	n/a	n/a	n/a	n/a	red
541.0526	1.0167	ITI	n/a	n/a	n/a	n/a	n/a	n/a	n/a	n/a
542.0693	0.5167	FIXCROSS	n/a	n/a	n/a	n/a	n/a	n/a	n/a	n/a
542.586	2.0667	COLOR_NAME	66	Incongruent	niebieski	blue	czerwony	red	hit	n/a
544.6236	n/a	RESPONSE	n/a	n/a	n/a	n/a	n/a	n/a	n/a	blue
544.6527	1.0167	ITI	n/a	n/a	n/a	n/a	n/a	n/a	n/a	n/a
545.6693	0.5167	FIXCROSS	n/a	n/a	n/a	n/a	n/a	n/a	n/a	n/a
546.186	2.3334	COLOR_NAME	67	Neutral	zielony	green	Neutral	Neutral	hit	n/a
548.4908	n/a	RESPONSE	n/a	n/a	n/a	n/a	n/a	n/a	n/a	green
548.5193	1.0167	ITI	n/a	n/a	n/a	n/a	n/a	n/a	n/a	n/a
549.536	0.5167	FIXCROSS	n/a	n/a	n/a	n/a	n/a	n/a	n/a	n/a
550.0527	2.4667	COLOR_NAME	68	Incongruent	niebieski	blue	żółty	yellow	hit	n/a
552.4859	n/a	RESPONSE	n/a	n/a	n/a	n/a	n/a	n/a	n/a	blue
552.5194	1.0167	ITI	n/a	n/a	n/a	n/a	n/a	n/a	n/a	n/a
553.5361	0.5167	FIXCROSS	n/a	n/a	n/a	n/a	n/a	n/a	n/a	n/a
554.0527	1.4	COLOR_NAME	69	Incongruent	czerwony	red	żółty	yellow	hit	n/a
555.4262	n/a	RESPONSE	n/a	n/a	n/a	n/a	n/a	n/a	n/a	red
555.4527	1.0167	ITI	n/a	n/a	n/a	n/a	n/a	n/a	n/a	n/a
556.4694	0.5167	FIXCROSS	n/a	n/a	n/a	n/a	n/a	n/a	n/a	n/a
556.9861	2.3167	COLOR_NAME	70	Neutral	zielony	green	Neutral	Neutral	hit	n/a
559.2774	n/a	RESPONSE	n/a	n/a	n/a	n/a	n/a	n/a	n/a	green
559.3028	1.0167	ITI	n/a	n/a	n/a	n/a	n/a	n/a	n/a	n/a
560.3194	0.5167	FIXCROSS	n/a	n/a	n/a	n/a	n/a	n/a	n/a	n/a
560.8361	2.1	COLOR_NAME	71	Incongruent	niebieski	blue	zielony	green	hit	n/a
562.905	n/a	RESPONSE	n/a	n/a	n/a	n/a	n/a	n/a	n/a	blue
562.9361	1.0167	ITI	n/a	n/a	n/a	n/a	n/a	n/a	n/a	n/a
563.9528	0.5167	FIXCROSS	n/a	n/a	n/a	n/a	n/a	n/a	n/a	n/a
564.4695	2.8	COLOR_NAME	72	Incongruent	niebieski	blue	żółty	yellow	hit	n/a
567.2355	n/a	RESPONSE	n/a	n/a	n/a	n/a	n/a	n/a	n/a	blue
567.2695	1.0333	ITI	n/a	n/a	n/a	n/a	n/a	n/a	n/a	n/a
576.4242	n/a	RESPONSE	n/a	n/a	n/a	n/a	n/a	n/a	n/a	n/a
