onset	duration	condition	trial_type	braille_stimulus	response_val	response_type
2.018	2.008	6_DOT_DETECTION	CUE	n/a	n/a	n/a
7.018	1.008	6_DOT_DETECTION	FIXCROSS	n/a	n/a	n/a
8.035	5.008	6_DOT_DETECTION	NO_6-DOT	DMSTY	n/a	n/a
11.2	n/a	6_DOT_DETECTION	RESPONSE	n/a	NO	CORRECT_REJECTION
15.068	1.008	6_DOT_DETECTION	FIXCROSS	n/a	n/a	n/a
16.085	5.008	6_DOT_DETECTION	NO_6-DOT	TMIA	n/a	n/a
18.48	n/a	6_DOT_DETECTION	RESPONSE	n/a	NO	CORRECT_REJECTION
23.118	1.008	6_DOT_DETECTION	FIXCROSS	n/a	n/a	n/a
24.135	5.008	6_DOT_DETECTION	6-DOT	##Ł	n/a	n/a
25.76	n/a	6_DOT_DETECTION	RESPONSE	n/a	YES	HIT
31.168	1.008	6_DOT_DETECTION	FIXCROSS	n/a	n/a	n/a
32.185	5.008	6_DOT_DETECTION	6-DOT	#U#	n/a	n/a
34.0	n/a	6_DOT_DETECTION	RESPONSE	n/a	YES	HIT
39.218	1.008	6_DOT_DETECTION	FIXCROSS	n/a	n/a	n/a
40.235	5.008	6_DOT_DETECTION	6-DOT	A#L#O	n/a	n/a
42.72	n/a	6_DOT_DETECTION	RESPONSE	n/a	YES	HIT
49.276	2.008	LEXICAL_DECISION	CUE	n/a	n/a	n/a
54.276	1.008	LEXICAL_DECISION	FIXCROSS	n/a	n/a	n/a
55.293	5.008	LEXICAL_DECISION	PSEUDOWORD	LOKYD	n/a	n/a
58.8	n/a	LEXICAL_DECISION	RESPONSE	n/a	YES	FALSE_ALARM
62.326	1.008	LEXICAL_DECISION	FIXCROSS	n/a	n/a	n/a
63.343	5.008	LEXICAL_DECISION	PSEUDOWORD	SAKMY	n/a	n/a
67.2	n/a	LEXICAL_DECISION	RESPONSE	n/a	NO	CORRECT_REJECTION
70.376	1.008	LEXICAL_DECISION	FIXCROSS	n/a	n/a	n/a
71.393	5.008	LEXICAL_DECISION	WORD	KASA	n/a	n/a
74.32	n/a	LEXICAL_DECISION	RESPONSE	n/a	YES	HIT
78.426	1.008	LEXICAL_DECISION	FIXCROSS	n/a	n/a	n/a
79.443	5.008	LEXICAL_DECISION	WORD	KŁA	n/a	n/a
82.36	n/a	LEXICAL_DECISION	RESPONSE	n/a	NO	MISS
86.476	1.008	LEXICAL_DECISION	FIXCROSS	n/a	n/a	n/a
87.493	5.008	LEXICAL_DECISION	WORD	KOMU	n/a	n/a
91.104	n/a	LEXICAL_DECISION	RESPONSE	n/a	NO	MISS
96.035	2.008	6_DOT_DETECTION	CUE	n/a	n/a	n/a
100.535	1.008	6_DOT_DETECTION	FIXCROSS	n/a	n/a	n/a
101.552	5.008	6_DOT_DETECTION	NO_6-DOT	TDK	n/a	n/a
103.28	n/a	6_DOT_DETECTION	RESPONSE	n/a	NO	CORRECT_REJECTION
108.585	1.008	6_DOT_DETECTION	FIXCROSS	n/a	n/a	n/a
109.602	5.008	6_DOT_DETECTION	6-DOT	Y##	n/a	n/a
111.24	n/a	6_DOT_DETECTION	RESPONSE	n/a	YES	HIT
116.635	1.008	6_DOT_DETECTION	FIXCROSS	n/a	n/a	n/a
117.652	5.008	6_DOT_DETECTION	NO_6-DOT	LKBŁE	n/a	n/a
119.92	n/a	6_DOT_DETECTION	RESPONSE	n/a	NO	CORRECT_REJECTION
124.685	1.008	6_DOT_DETECTION	FIXCROSS	n/a	n/a	n/a
125.702	5.008	6_DOT_DETECTION	NO_6-DOT	KMUPT	n/a	n/a
127.64	n/a	6_DOT_DETECTION	RESPONSE	n/a	NO	CORRECT_REJECTION
132.735	1.008	6_DOT_DETECTION	FIXCROSS	n/a	n/a	n/a
133.752	5.008	6_DOT_DETECTION	NO_6-DOT	YCOBK	n/a	n/a
135.896	n/a	6_DOT_DETECTION	RESPONSE	n/a	NO	CORRECT_REJECTION
141.793	2.008	LEXICAL_DECISION	CUE	n/a	n/a	n/a
146.793	1.008	LEXICAL_DECISION	FIXCROSS	n/a	n/a	n/a
147.81	5.008	LEXICAL_DECISION	PSEUDOWORD	IKOB	n/a	n/a
152.4	n/a	LEXICAL_DECISION	RESPONSE	n/a	NO	CORRECT_REJECTION
154.843	1.008	LEXICAL_DECISION	FIXCROSS	n/a	n/a	n/a
155.86	5.008	LEXICAL_DECISION	WORD	LISA	n/a	n/a
159.896	n/a	LEXICAL_DECISION	RESPONSE	n/a	NO	MISS
162.893	1.008	LEXICAL_DECISION	FIXCROSS	n/a	n/a	n/a
163.91	5.017	LEXICAL_DECISION	PSEUDOWORD	COPIB	n/a	n/a
167.8	n/a	LEXICAL_DECISION	RESPONSE	n/a	YES	FALSE_ALARM
170.952	1.008	LEXICAL_DECISION	FIXCROSS	n/a	n/a	n/a
171.968	5.008	LEXICAL_DECISION	PSEUDOWORD	ŁODYT	n/a	n/a
176.76	n/a	LEXICAL_DECISION	RESPONSE	n/a	NO	CORRECT_REJECTION
179.002	1.008	LEXICAL_DECISION	FIXCROSS	n/a	n/a	n/a
180.018	5.008	LEXICAL_DECISION	PSEUDOWORD	AŁAB	n/a	n/a
183.64	n/a	LEXICAL_DECISION	RESPONSE	n/a	NO	CORRECT_REJECTION
188.56	2.008	6_DOT_DETECTION	CUE	n/a	n/a	n/a
194.06	1.008	6_DOT_DETECTION	FIXCROSS	n/a	n/a	n/a
195.077	5.008	6_DOT_DETECTION	6-DOT	OK#P#	n/a	n/a
197.4	n/a	6_DOT_DETECTION	RESPONSE	n/a	YES	HIT
202.11	1.008	6_DOT_DETECTION	FIXCROSS	n/a	n/a	n/a
203.127	5.008	6_DOT_DETECTION	6-DOT	AT#O#	n/a	n/a
205.376	n/a	6_DOT_DETECTION	RESPONSE	n/a	YES	HIT
210.16	1.008	6_DOT_DETECTION	FIXCROSS	n/a	n/a	n/a
211.177	5.008	6_DOT_DETECTION	6-DOT	##KI	n/a	n/a
212.536	n/a	6_DOT_DETECTION	RESPONSE	n/a	YES	HIT
218.21	1.008	6_DOT_DETECTION	FIXCROSS	n/a	n/a	n/a
219.227	5.008	6_DOT_DETECTION	NO_6-DOT	ŁMS	n/a	n/a
221.16	n/a	6_DOT_DETECTION	RESPONSE	n/a	NO	CORRECT_REJECTION
226.26	1.008	6_DOT_DETECTION	FIXCROSS	n/a	n/a	n/a
227.277	5.008	6_DOT_DETECTION	NO_6-DOT	UTSD	n/a	n/a
229.256	n/a	6_DOT_DETECTION	RESPONSE	n/a	NO	CORRECT_REJECTION
235.819	2.008	LEXICAL_DECISION	CUE	n/a	n/a	n/a
242.319	1.008	LEXICAL_DECISION	FIXCROSS	n/a	n/a	n/a
243.335	5.008	LEXICAL_DECISION	WORD	SKALA	n/a	n/a
247.52	n/a	LEXICAL_DECISION	RESPONSE	n/a	YES	HIT
250.369	1.008	LEXICAL_DECISION	FIXCROSS	n/a	n/a	n/a
251.385	5.008	LEXICAL_DECISION	WORD	OKUPU	n/a	n/a
256.32	n/a	LEXICAL_DECISION	RESPONSE	n/a	NO	MISS
258.419	1.008	LEXICAL_DECISION	FIXCROSS	n/a	n/a	n/a
259.435	5.008	LEXICAL_DECISION	WORD	PAL	n/a	n/a
262.68	n/a	LEXICAL_DECISION	RESPONSE	n/a	YES	HIT
266.469	1.008	LEXICAL_DECISION	FIXCROSS	n/a	n/a	n/a
267.485	5.008	LEXICAL_DECISION	PSEUDOWORD	BOKY	n/a	n/a
271.136	n/a	LEXICAL_DECISION	RESPONSE	n/a	NO	CORRECT_REJECTION
274.519	1.008	LEXICAL_DECISION	FIXCROSS	n/a	n/a	n/a
275.535	5.008	LEXICAL_DECISION	PSEUDOWORD	KOLP	n/a	n/a
279.496	n/a	LEXICAL_DECISION	RESPONSE	n/a	NO	CORRECT_REJECTION
284.577	2.008	6_DOT_DETECTION	CUE	n/a	n/a	n/a
290.577	1.008	6_DOT_DETECTION	FIXCROSS	n/a	n/a	n/a
291.594	5.008	6_DOT_DETECTION	6-DOT	Ł##Ł	n/a	n/a
293.16	n/a	6_DOT_DETECTION	RESPONSE	n/a	YES	HIT
298.627	1.008	6_DOT_DETECTION	FIXCROSS	n/a	n/a	n/a
299.644	5.008	6_DOT_DETECTION	6-DOT	TA##	n/a	n/a
301.56	n/a	6_DOT_DETECTION	RESPONSE	n/a	YES	HIT
306.677	1.008	6_DOT_DETECTION	FIXCROSS	n/a	n/a	n/a
307.694	5.008	6_DOT_DETECTION	6-DOT	DBO##	n/a	n/a
310.16	n/a	6_DOT_DETECTION	RESPONSE	n/a	YES	HIT
314.727	1.008	6_DOT_DETECTION	FIXCROSS	n/a	n/a	n/a
315.744	5.008	6_DOT_DETECTION	NO_6-DOT	EBPT	n/a	n/a
317.84	n/a	6_DOT_DETECTION	RESPONSE	n/a	NO	CORRECT_REJECTION
322.777	1.008	6_DOT_DETECTION	FIXCROSS	n/a	n/a	n/a
323.794	5.008	6_DOT_DETECTION	NO_6-DOT	SMAO	n/a	n/a
325.736	n/a	6_DOT_DETECTION	RESPONSE	n/a	NO	CORRECT_REJECTION
332.836	2.008	LEXICAL_DECISION	CUE	n/a	n/a	n/a
338.836	1.008	LEXICAL_DECISION	FIXCROSS	n/a	n/a	n/a
339.852	5.008	LEXICAL_DECISION	WORD	DOMEM	n/a	n/a
345.456	n/a	LEXICAL_DECISION	RESPONSE	n/a	YES	HIT
346.886	1.008	LEXICAL_DECISION	FIXCROSS	n/a	n/a	n/a
347.902	5.008	LEXICAL_DECISION	WORD	TATO	n/a	n/a
351.48	n/a	LEXICAL_DECISION	RESPONSE	n/a	YES	HIT
354.936	1.008	LEXICAL_DECISION	FIXCROSS	n/a	n/a	n/a
355.952	5.008	LEXICAL_DECISION	WORD	DAŁA	n/a	n/a
359.536	n/a	LEXICAL_DECISION	RESPONSE	n/a	YES	HIT
362.986	1.008	LEXICAL_DECISION	FIXCROSS	n/a	n/a	n/a
364.002	5.008	LEXICAL_DECISION	PSEUDOWORD	DEPAT	n/a	n/a
368.44	n/a	LEXICAL_DECISION	RESPONSE	n/a	NO	CORRECT_REJECTION
371.036	1.008	LEXICAL_DECISION	FIXCROSS	n/a	n/a	n/a
372.052	5.008	LEXICAL_DECISION	PSEUDOWORD	LUDA	n/a	n/a
375.736	n/a	LEXICAL_DECISION	RESPONSE	n/a	NO	CORRECT_REJECTION
380.594	2.008	6_DOT_DETECTION	CUE	n/a	n/a	n/a
386.094	1.008	6_DOT_DETECTION	FIXCROSS	n/a	n/a	n/a
387.111	5.008	6_DOT_DETECTION	NO_6-DOT	OBL	n/a	n/a
388.816	n/a	6_DOT_DETECTION	RESPONSE	n/a	NO	CORRECT_REJECTION
394.144	1.008	6_DOT_DETECTION	FIXCROSS	n/a	n/a	n/a
395.161	5.008	6_DOT_DETECTION	6-DOT	I#O#	n/a	n/a
396.84	n/a	6_DOT_DETECTION	RESPONSE	n/a	YES	HIT
402.194	1.008	6_DOT_DETECTION	FIXCROSS	n/a	n/a	n/a
403.211	5.008	6_DOT_DETECTION	6-DOT	#BL#	n/a	n/a
405.08	n/a	6_DOT_DETECTION	RESPONSE	n/a	YES	HIT
410.244	1.008	6_DOT_DETECTION	FIXCROSS	n/a	n/a	n/a
411.261	5.008	6_DOT_DETECTION	NO_6-DOT	EPSTB	n/a	n/a
413.6	n/a	6_DOT_DETECTION	RESPONSE	n/a	NO	CORRECT_REJECTION
418.294	1.008	6_DOT_DETECTION	FIXCROSS	n/a	n/a	n/a
419.311	5.008	6_DOT_DETECTION	6-DOT	D##YU	n/a	n/a
420.936	n/a	6_DOT_DETECTION	RESPONSE	n/a	YES	HIT
427.852	2.008	LEXICAL_DECISION	CUE	n/a	n/a	n/a
433.352	1.008	LEXICAL_DECISION	FIXCROSS	n/a	n/a	n/a
434.369	5.008	LEXICAL_DECISION	PSEUDOWORD	SAK	n/a	n/a
437.52	n/a	LEXICAL_DECISION	RESPONSE	n/a	NO	CORRECT_REJECTION
441.402	1.008	LEXICAL_DECISION	FIXCROSS	n/a	n/a	n/a
442.419	5.008	LEXICAL_DECISION	WORD	LECI	n/a	n/a
446.216	n/a	LEXICAL_DECISION	RESPONSE	n/a	YES	HIT
449.452	1.008	LEXICAL_DECISION	FIXCROSS	n/a	n/a	n/a
450.469	5.008	LEXICAL_DECISION	WORD	ALBUM	n/a	n/a
454.256	n/a	LEXICAL_DECISION	RESPONSE	n/a	YES	HIT
457.502	1.008	LEXICAL_DECISION	FIXCROSS	n/a	n/a	n/a
458.519	5.008	LEXICAL_DECISION	PSEUDOWORD	LISO	n/a	n/a
462.44	n/a	LEXICAL_DECISION	RESPONSE	n/a	NO	CORRECT_REJECTION
465.552	1.008	LEXICAL_DECISION	FIXCROSS	n/a	n/a	n/a
466.569	5.008	LEXICAL_DECISION	WORD	KAPIE	n/a	n/a
470.896	n/a	LEXICAL_DECISION	RESPONSE	n/a	YES	HIT
474.611	2.008	6_DOT_DETECTION	CUE	n/a	n/a	n/a
481.611	1.008	6_DOT_DETECTION	FIXCROSS	n/a	n/a	n/a
482.628	5.008	6_DOT_DETECTION	NO_6-DOT	KDM	n/a	n/a
484.416	n/a	6_DOT_DETECTION	RESPONSE	n/a	NO	CORRECT_REJECTION
489.661	1.008	6_DOT_DETECTION	FIXCROSS	n/a	n/a	n/a
490.678	5.008	6_DOT_DETECTION	NO_6-DOT	ALCB	n/a	n/a
492.76	n/a	6_DOT_DETECTION	RESPONSE	n/a	NO	CORRECT_REJECTION
497.711	1.008	6_DOT_DETECTION	FIXCROSS	n/a	n/a	n/a
498.728	5.008	6_DOT_DETECTION	6-DOT	##IB	n/a	n/a
500.12	n/a	6_DOT_DETECTION	RESPONSE	n/a	YES	HIT
505.761	1.008	6_DOT_DETECTION	FIXCROSS	n/a	n/a	n/a
506.778	5.008	6_DOT_DETECTION	6-DOT	##D	n/a	n/a
508.24	n/a	6_DOT_DETECTION	RESPONSE	n/a	YES	HIT
513.811	1.008	6_DOT_DETECTION	FIXCROSS	n/a	n/a	n/a
514.828	5.008	6_DOT_DETECTION	NO_6-DOT	KMLD	n/a	n/a
516.696	n/a	6_DOT_DETECTION	RESPONSE	n/a	NO	CORRECT_REJECTION
522.869	2.008	LEXICAL_DECISION	CUE	n/a	n/a	n/a
527.869	1.008	LEXICAL_DECISION	FIXCROSS	n/a	n/a	n/a
528.886	5.008	LEXICAL_DECISION	PSEUDOWORD	CAD	n/a	n/a
531.816	n/a	LEXICAL_DECISION	RESPONSE	n/a	NO	CORRECT_REJECTION
535.919	1.008	LEXICAL_DECISION	FIXCROSS	n/a	n/a	n/a
536.936	5.008	LEXICAL_DECISION	PSEUDOWORD	MAB	n/a	n/a
540.016	n/a	LEXICAL_DECISION	RESPONSE	n/a	NO	CORRECT_REJECTION
543.969	1.008	LEXICAL_DECISION	FIXCROSS	n/a	n/a	n/a
544.986	5.008	LEXICAL_DECISION	WORD	PIES	n/a	n/a
548.96	n/a	LEXICAL_DECISION	RESPONSE	n/a	YES	HIT
552.019	1.008	LEXICAL_DECISION	FIXCROSS	n/a	n/a	n/a
553.036	5.008	LEXICAL_DECISION	WORD	LIC	n/a	n/a
556.2	n/a	LEXICAL_DECISION	RESPONSE	n/a	NO	MISS
560.069	1.008	LEXICAL_DECISION	FIXCROSS	n/a	n/a	n/a
561.086	5.008	LEXICAL_DECISION	PSEUDOWORD	LAKMA	n/a	n/a
565.216	n/a	LEXICAL_DECISION	RESPONSE	n/a	NO	CORRECT_REJECTION
569.628	2.008	6_DOT_DETECTION	CUE	n/a	n/a	n/a
574.128	1.008	6_DOT_DETECTION	FIXCROSS	n/a	n/a	n/a
575.144	5.008	6_DOT_DETECTION	6-DOT	U#A#	n/a	n/a
576.72	n/a	6_DOT_DETECTION	RESPONSE	n/a	YES	HIT
582.178	1.008	6_DOT_DETECTION	FIXCROSS	n/a	n/a	n/a
583.194	5.008	6_DOT_DETECTION	NO_6-DOT	KDCMB	n/a	n/a
585.16	n/a	6_DOT_DETECTION	RESPONSE	n/a	NO	CORRECT_REJECTION
590.228	1.008	6_DOT_DETECTION	FIXCROSS	n/a	n/a	n/a
591.244	5.008	6_DOT_DETECTION	NO_6-DOT	LSTA	n/a	n/a
592.96	n/a	6_DOT_DETECTION	RESPONSE	n/a	NO	CORRECT_REJECTION
598.278	1.008	6_DOT_DETECTION	FIXCROSS	n/a	n/a	n/a
599.294	5.008	6_DOT_DETECTION	6-DOT	D#T#	n/a	n/a
601.4	n/a	6_DOT_DETECTION	RESPONSE	n/a	NO	MISS
606.328	1.008	6_DOT_DETECTION	FIXCROSS	n/a	n/a	n/a
607.345	5.008	6_DOT_DETECTION	6-DOT	ST##	n/a	n/a
609.24	n/a	6_DOT_DETECTION	RESPONSE	n/a	YES	HIT
615.886	2.008	LEXICAL_DECISION	CUE	n/a	n/a	n/a
622.386	1.008	LEXICAL_DECISION	FIXCROSS	n/a	n/a	n/a
623.403	5.008	LEXICAL_DECISION	WORD	DAŁO	n/a	n/a
626.936	n/a	LEXICAL_DECISION	RESPONSE	n/a	YES	HIT
630.436	1.008	LEXICAL_DECISION	FIXCROSS	n/a	n/a	n/a
631.453	5.008	LEXICAL_DECISION	PSEUDOWORD	BAPA	n/a	n/a
634.696	n/a	LEXICAL_DECISION	RESPONSE	n/a	NO	CORRECT_REJECTION
638.486	1.008	LEXICAL_DECISION	FIXCROSS	n/a	n/a	n/a
639.503	5.008	LEXICAL_DECISION	PSEUDOWORD	BOC	n/a	n/a
642.6	n/a	LEXICAL_DECISION	RESPONSE	n/a	NO	CORRECT_REJECTION
646.536	1.008	LEXICAL_DECISION	FIXCROSS	n/a	n/a	n/a
647.553	5.008	LEXICAL_DECISION	WORD	PUK	n/a	n/a
651.4	n/a	LEXICAL_DECISION	RESPONSE	n/a	NO	MISS
654.586	1.008	LEXICAL_DECISION	FIXCROSS	n/a	n/a	n/a
655.603	5.008	LEXICAL_DECISION	WORD	MEBLE	n/a	n/a
659.88	n/a	LEXICAL_DECISION	RESPONSE	n/a	YES	HIT
663.645	2.008	6_DOT_DETECTION	CUE	n/a	n/a	n/a
668.645	1.008	6_DOT_DETECTION	FIXCROSS	n/a	n/a	n/a
669.661	5.008	6_DOT_DETECTION	NO_6-DOT	BKPO	n/a	n/a
671.48	n/a	6_DOT_DETECTION	RESPONSE	n/a	NO	CORRECT_REJECTION
676.695	1.008	6_DOT_DETECTION	FIXCROSS	n/a	n/a	n/a
677.711	5.008	6_DOT_DETECTION	6-DOT	#KM#P	n/a	n/a
679.616	n/a	6_DOT_DETECTION	RESPONSE	n/a	YES	HIT
684.745	1.008	6_DOT_DETECTION	FIXCROSS	n/a	n/a	n/a
685.761	5.008	6_DOT_DETECTION	NO_6-DOT	LMYKT	n/a	n/a
687.512	n/a	6_DOT_DETECTION	RESPONSE	n/a	NO	CORRECT_REJECTION
692.795	1.008	6_DOT_DETECTION	FIXCROSS	n/a	n/a	n/a
693.811	5.008	6_DOT_DETECTION	NO_6-DOT	CDSYŁ	n/a	n/a
696.056	n/a	6_DOT_DETECTION	RESPONSE	n/a	NO	CORRECT_REJECTION
700.845	1.008	6_DOT_DETECTION	FIXCROSS	n/a	n/a	n/a
701.862	5.008	6_DOT_DETECTION	6-DOT	#IC#	n/a	n/a
703.752	n/a	6_DOT_DETECTION	RESPONSE	n/a	YES	HIT
710.403	2.008	LEXICAL_DECISION	CUE	n/a	n/a	n/a
715.903	1.008	LEXICAL_DECISION	FIXCROSS	n/a	n/a	n/a
716.92	5.008	LEXICAL_DECISION	PSEUDOWORD	DIKO	n/a	n/a
720.832	n/a	LEXICAL_DECISION	RESPONSE	n/a	NO	CORRECT_REJECTION
723.953	1.008	LEXICAL_DECISION	FIXCROSS	n/a	n/a	n/a
724.97	5.008	LEXICAL_DECISION	WORD	OBIE	n/a	n/a
729.792	n/a	LEXICAL_DECISION	RESPONSE	n/a	NO	MISS
732.003	1.008	LEXICAL_DECISION	FIXCROSS	n/a	n/a	n/a
733.02	5.008	LEXICAL_DECISION	PSEUDOWORD	PODO	n/a	n/a
737.512	n/a	LEXICAL_DECISION	RESPONSE	n/a	NO	CORRECT_REJECTION
740.053	1.008	LEXICAL_DECISION	FIXCROSS	n/a	n/a	n/a
741.07	5.008	LEXICAL_DECISION	PSEUDOWORD	BODAT	n/a	n/a
745.576	n/a	LEXICAL_DECISION	RESPONSE	n/a	NO	CORRECT_REJECTION
748.103	1.008	LEXICAL_DECISION	FIXCROSS	n/a	n/a	n/a
749.12	5.008	LEXICAL_DECISION	WORD	KILKU	n/a	n/a
753.736	n/a	LEXICAL_DECISION	RESPONSE	n/a	YES	HIT
