onset	duration	trial_type	trial_number	stroop_condition	stim_text(PL)	stim_text(eng)	stim_color(PL)	stim_color(eng)	response_type	response_color
0.0	n/a	RESPONSE	n/a	n/a	n/a	n/a	n/a	n/a	n/a	n/a
0.0582	1.0334	ITI	n/a	n/a	n/a	n/a	n/a	n/a	n/a	n/a
1.0915	0.5167	FIXCROSS	n/a	n/a	n/a	n/a	n/a	n/a	n/a	n/a
1.6082	3.1334	T_INK	1	Incongruent	czerwony	red	zielony	green	hit	n/a
4.7189	n/a	RESPONSE	n/a	n/a	n/a	n/a	n/a	n/a	n/a	green
4.7416	0.5167	FEEDBACK	n/a	n/a	n/a	n/a	n/a	n/a	n/a	n/a
5.2583	1.0167	ITI	n/a	n/a	n/a	n/a	n/a	n/a	n/a	n/a
6.2749	0.5167	FIXCROSS	n/a	n/a	n/a	n/a	n/a	n/a	n/a	n/a
6.7916	1.1667	T_INK	2	Neutral	xxxxxxxxx	xxxxxxxxx	zielony	green	hit	n/a
7.934	n/a	RESPONSE	n/a	n/a	n/a	n/a	n/a	n/a	n/a	green
7.9583	0.5167	FEEDBACK	n/a	n/a	n/a	n/a	n/a	n/a	n/a	n/a
8.475	1.0167	ITI	n/a	n/a	n/a	n/a	n/a	n/a	n/a	n/a
9.4916	0.5167	FIXCROSS	n/a	n/a	n/a	n/a	n/a	n/a	n/a	n/a
10.0083	0.8167	T_INK	3	Neutral	xxxxxxxx	xxxxxxxx	zielony	green	hit	n/a
10.7973	n/a	RESPONSE	n/a	n/a	n/a	n/a	n/a	n/a	n/a	green
10.825	0.5167	FEEDBACK	n/a	n/a	n/a	n/a	n/a	n/a	n/a	n/a
11.3417	1.0167	ITI	n/a	n/a	n/a	n/a	n/a	n/a	n/a	n/a
12.3584	0.5167	FIXCROSS	n/a	n/a	n/a	n/a	n/a	n/a	n/a	n/a
12.875	0.7333	T_INK	4	Neutral	xxxxxxxx	xxxxxxxx	niebieski	blue	hit	n/a
13.5806	n/a	RESPONSE	n/a	n/a	n/a	n/a	n/a	n/a	n/a	blue
13.6084	0.5167	FEEDBACK	n/a	n/a	n/a	n/a	n/a	n/a	n/a	n/a
14.125	1.0167	ITI	n/a	n/a	n/a	n/a	n/a	n/a	n/a	n/a
15.1417	0.5167	FIXCROSS	n/a	n/a	n/a	n/a	n/a	n/a	n/a	n/a
15.6584	0.8	T_INK	5	Neutral	xxxxxxx	xxxxxxx	czerwony	red	hit	n/a
16.4279	n/a	RESPONSE	n/a	n/a	n/a	n/a	n/a	n/a	n/a	red
16.4584	0.5167	FEEDBACK	n/a	n/a	n/a	n/a	n/a	n/a	n/a	n/a
16.9751	1.0167	ITI	n/a	n/a	n/a	n/a	n/a	n/a	n/a	n/a
17.9918	0.5167	FIXCROSS	n/a	n/a	n/a	n/a	n/a	n/a	n/a	n/a
18.5084	0.6833	T_INK	6	Neutral	xxxxx	xxxxx	czerwony	red	hit	n/a
19.1632	n/a	RESPONSE	n/a	n/a	n/a	n/a	n/a	n/a	n/a	red
19.1918	0.5167	FEEDBACK	n/a	n/a	n/a	n/a	n/a	n/a	n/a	n/a
19.7085	1.0167	ITI	n/a	n/a	n/a	n/a	n/a	n/a	n/a	n/a
20.7251	0.5167	FIXCROSS	n/a	n/a	n/a	n/a	n/a	n/a	n/a	n/a
21.2418	1.0167	T_INK	7	Incongruent	zielony	green	czerwony	red	hit	n/a
22.2345	n/a	RESPONSE	n/a	n/a	n/a	n/a	n/a	n/a	n/a	red
22.2585	0.5167	FEEDBACK	n/a	n/a	n/a	n/a	n/a	n/a	n/a	n/a
22.7752	1.0167	ITI	n/a	n/a	n/a	n/a	n/a	n/a	n/a	n/a
23.7919	0.5167	FIXCROSS	n/a	n/a	n/a	n/a	n/a	n/a	n/a	n/a
24.3085	0.7667	T_INK	8	Neutral	xxxxxxx	xxxxxxx	niebieski	blue	hit	n/a
25.0498	n/a	RESPONSE	n/a	n/a	n/a	n/a	n/a	n/a	n/a	blue
25.0752	0.5167	FEEDBACK	n/a	n/a	n/a	n/a	n/a	n/a	n/a	n/a
25.5919	1.0167	ITI	n/a	n/a	n/a	n/a	n/a	n/a	n/a	n/a
26.6086	0.5167	FIXCROSS	n/a	n/a	n/a	n/a	n/a	n/a	n/a	n/a
27.1252	0.6334	T_INK	9	Neutral	xxxxxxx	xxxxxxx	żółty	yellow	hit	n/a
27.7372	n/a	RESPONSE	n/a	n/a	n/a	n/a	n/a	n/a	n/a	yellow
27.7586	0.5167	FEEDBACK	n/a	n/a	n/a	n/a	n/a	n/a	n/a	n/a
28.2752	1.0167	ITI	n/a	n/a	n/a	n/a	n/a	n/a	n/a	n/a
29.2919	0.5167	FIXCROSS	n/a	n/a	n/a	n/a	n/a	n/a	n/a	n/a
29.8086	1.1333	T_INK	10	Incongruent	czerwony	red	niebieski	blue	hit	n/a
30.9204	n/a	RESPONSE	n/a	n/a	n/a	n/a	n/a	n/a	n/a	blue
30.942	0.5167	FEEDBACK	n/a	n/a	n/a	n/a	n/a	n/a	n/a	n/a
31.4586	1.0167	ITI	n/a	n/a	n/a	n/a	n/a	n/a	n/a	n/a
32.4753	0.5167	FIXCROSS	n/a	n/a	n/a	n/a	n/a	n/a	n/a	n/a
32.992	0.6333	T_INK	11	Neutral	xxxxxxxx	xxxxxxxx	żółty	yellow	hit	n/a
33.5917	n/a	RESPONSE	n/a	n/a	n/a	n/a	n/a	n/a	n/a	yellow
33.6253	0.5167	FEEDBACK	n/a	n/a	n/a	n/a	n/a	n/a	n/a	n/a
34.142	1.0167	ITI	n/a	n/a	n/a	n/a	n/a	n/a	n/a	n/a
35.1587	0.5167	FIXCROSS	n/a	n/a	n/a	n/a	n/a	n/a	n/a	n/a
35.6754	1.0667	T_INK	12	Incongruent	zielony	green	żółty	yellow	hit	n/a
36.711	n/a	RESPONSE	n/a	n/a	n/a	n/a	n/a	n/a	n/a	yellow
36.742	0.5167	FEEDBACK	n/a	n/a	n/a	n/a	n/a	n/a	n/a	n/a
37.2587	1.0334	ITI	n/a	n/a	n/a	n/a	n/a	n/a	n/a	n/a
56.1463	n/a	RESPONSE	n/a	n/a	n/a	n/a	n/a	n/a	n/a	n/a
56.209	1.0167	ITI	n/a	n/a	n/a	n/a	n/a	n/a	n/a	n/a
57.2257	0.5167	FIXCROSS	n/a	n/a	n/a	n/a	n/a	n/a	n/a	n/a
57.7423	0.8167	INK	1	Incongruent	zielony	green	czerwony	red	hit	n/a
58.5297	n/a	RESPONSE	n/a	n/a	n/a	n/a	n/a	n/a	n/a	red
58.559	1.0167	ITI	n/a	n/a	n/a	n/a	n/a	n/a	n/a	n/a
59.5757	0.5167	FIXCROSS	n/a	n/a	n/a	n/a	n/a	n/a	n/a	n/a
60.0924	0.9	INK	2	Incongruent	żółty	yellow	zielony	green	hit	n/a
60.9611	n/a	RESPONSE	n/a	n/a	n/a	n/a	n/a	n/a	n/a	green
60.9924	1.0167	ITI	n/a	n/a	n/a	n/a	n/a	n/a	n/a	n/a
62.0091	0.5167	FIXCROSS	n/a	n/a	n/a	n/a	n/a	n/a	n/a	n/a
62.5257	1.25	INK	3	Incongruent	czerwony	red	żółty	yellow	incorrect	n/a
63.7444	n/a	RESPONSE	n/a	n/a	n/a	n/a	n/a	n/a	n/a	red
63.7757	1.0167	ITI	n/a	n/a	n/a	n/a	n/a	n/a	n/a	n/a
64.7924	0.5167	FIXCROSS	n/a	n/a	n/a	n/a	n/a	n/a	n/a	n/a
65.3091	0.9	INK	4	Incongruent	zielony	green	czerwony	red	hit	n/a
66.1759	n/a	RESPONSE	n/a	n/a	n/a	n/a	n/a	n/a	n/a	red
66.2091	1.0167	ITI	n/a	n/a	n/a	n/a	n/a	n/a	n/a	n/a
67.2258	0.5167	FIXCROSS	n/a	n/a	n/a	n/a	n/a	n/a	n/a	n/a
67.7425	0.65	INK	5	Neutral	xxxxxxxxx	xxxxxxxxx	zielony	green	hit	n/a
68.3673	n/a	RESPONSE	n/a	n/a	n/a	n/a	n/a	n/a	n/a	green
68.3925	1.0167	ITI	n/a	n/a	n/a	n/a	n/a	n/a	n/a	n/a
69.4092	0.5167	FIXCROSS	n/a	n/a	n/a	n/a	n/a	n/a	n/a	n/a
69.9258	0.6833	INK	6	Neutral	xxxxxxxxx	xxxxxxxxx	żółty	yellow	hit	n/a
70.5908	n/a	RESPONSE	n/a	n/a	n/a	n/a	n/a	n/a	n/a	yellow
70.6092	1.0167	ITI	n/a	n/a	n/a	n/a	n/a	n/a	n/a	n/a
71.6259	0.5167	FIXCROSS	n/a	n/a	n/a	n/a	n/a	n/a	n/a	n/a
72.1425	0.8333	INK	7	Incongruent	czerwony	red	zielony	green	hit	n/a
72.9582	n/a	RESPONSE	n/a	n/a	n/a	n/a	n/a	n/a	n/a	green
72.9759	1.0167	ITI	n/a	n/a	n/a	n/a	n/a	n/a	n/a	n/a
73.9926	0.5167	FIXCROSS	n/a	n/a	n/a	n/a	n/a	n/a	n/a	n/a
74.5092	0.6333	INK	8	Neutral	xxxxx	xxxxx	zielony	green	hit	n/a
75.1177	n/a	RESPONSE	n/a	n/a	n/a	n/a	n/a	n/a	n/a	green
75.1426	1.0167	ITI	n/a	n/a	n/a	n/a	n/a	n/a	n/a	n/a
76.1593	0.5167	FIXCROSS	n/a	n/a	n/a	n/a	n/a	n/a	n/a	n/a
76.6759	0.45	INK	9	Neutral	xxxxxxxxx	xxxxxxxxx	czerwony	red	hit	n/a
77.1013	n/a	RESPONSE	n/a	n/a	n/a	n/a	n/a	n/a	n/a	red
77.1259	1.0167	ITI	n/a	n/a	n/a	n/a	n/a	n/a	n/a	n/a
78.1426	0.5167	FIXCROSS	n/a	n/a	n/a	n/a	n/a	n/a	n/a	n/a
78.6593	0.6833	INK	10	Incongruent	czerwony	red	niebieski	blue	hit	n/a
79.3247	n/a	RESPONSE	n/a	n/a	n/a	n/a	n/a	n/a	n/a	blue
79.3426	1.0167	ITI	n/a	n/a	n/a	n/a	n/a	n/a	n/a	n/a
80.3593	0.5167	FIXCROSS	n/a	n/a	n/a	n/a	n/a	n/a	n/a	n/a
80.876	0.85	INK	11	Neutral	xxxxxxxx	xxxxxxxx	zielony	green	hit	n/a
81.7082	n/a	RESPONSE	n/a	n/a	n/a	n/a	n/a	n/a	n/a	green
81.726	1.0167	ITI	n/a	n/a	n/a	n/a	n/a	n/a	n/a	n/a
82.7427	0.5167	FIXCROSS	n/a	n/a	n/a	n/a	n/a	n/a	n/a	n/a
83.2593	0.7	INK	12	Incongruent	zielony	green	żółty	yellow	hit	n/a
83.9316	n/a	RESPONSE	n/a	n/a	n/a	n/a	n/a	n/a	n/a	yellow
83.9594	1.0167	ITI	n/a	n/a	n/a	n/a	n/a	n/a	n/a	n/a
84.976	0.5167	FIXCROSS	n/a	n/a	n/a	n/a	n/a	n/a	n/a	n/a
85.4927	0.65	INK	13	Neutral	xxxxxxxx	xxxxxxxx	żółty	yellow	hit	n/a
86.1231	n/a	RESPONSE	n/a	n/a	n/a	n/a	n/a	n/a	n/a	yellow
86.1427	1.0167	ITI	n/a	n/a	n/a	n/a	n/a	n/a	n/a	n/a
87.1594	0.5167	FIXCROSS	n/a	n/a	n/a	n/a	n/a	n/a	n/a	n/a
87.6761	0.8167	INK	14	Incongruent	żółty	yellow	niebieski	blue	hit	n/a
88.4745	n/a	RESPONSE	n/a	n/a	n/a	n/a	n/a	n/a	n/a	blue
88.4928	1.0167	ITI	n/a	n/a	n/a	n/a	n/a	n/a	n/a	n/a
89.5094	0.5167	FIXCROSS	n/a	n/a	n/a	n/a	n/a	n/a	n/a	n/a
90.0261	0.6667	INK	15	Neutral	xxxxx	xxxxx	czerwony	red	hit	n/a
90.666	n/a	RESPONSE	n/a	n/a	n/a	n/a	n/a	n/a	n/a	red
90.6928	1.0167	ITI	n/a	n/a	n/a	n/a	n/a	n/a	n/a	n/a
91.7095	0.5167	FIXCROSS	n/a	n/a	n/a	n/a	n/a	n/a	n/a	n/a
92.2262	1.1167	INK	16	Incongruent	czerwony	red	żółty	yellow	hit	n/a
93.3213	n/a	RESPONSE	n/a	n/a	n/a	n/a	n/a	n/a	n/a	yellow
93.3428	1.0167	ITI	n/a	n/a	n/a	n/a	n/a	n/a	n/a	n/a
94.3595	0.5167	FIXCROSS	n/a	n/a	n/a	n/a	n/a	n/a	n/a	n/a
94.8762	0.9	INK	17	Incongruent	niebieski	blue	zielony	green	hit	n/a
95.7527	n/a	RESPONSE	n/a	n/a	n/a	n/a	n/a	n/a	n/a	green
95.7762	1.0167	ITI	n/a	n/a	n/a	n/a	n/a	n/a	n/a	n/a
96.7929	0.5167	FIXCROSS	n/a	n/a	n/a	n/a	n/a	n/a	n/a	n/a
97.3095	0.7167	INK	18	Neutral	xxxxxxxx	xxxxxxxx	niebieski	blue	hit	n/a
98.0082	n/a	RESPONSE	n/a	n/a	n/a	n/a	n/a	n/a	n/a	blue
98.0262	1.0167	ITI	n/a	n/a	n/a	n/a	n/a	n/a	n/a	n/a
99.0429	0.5167	FIXCROSS	n/a	n/a	n/a	n/a	n/a	n/a	n/a	n/a
99.5596	0.65	INK	19	Incongruent	żółty	yellow	czerwony	red	hit	n/a
100.1837	n/a	RESPONSE	n/a	n/a	n/a	n/a	n/a	n/a	n/a	red
100.2096	1.0167	ITI	n/a	n/a	n/a	n/a	n/a	n/a	n/a	n/a
101.2263	0.5167	FIXCROSS	n/a	n/a	n/a	n/a	n/a	n/a	n/a	n/a
101.7429	0.65	INK	20	Incongruent	niebieski	blue	czerwony	red	hit	n/a
102.3592	n/a	RESPONSE	n/a	n/a	n/a	n/a	n/a	n/a	n/a	red
102.393	1.0167	ITI	n/a	n/a	n/a	n/a	n/a	n/a	n/a	n/a
103.4096	0.5167	FIXCROSS	n/a	n/a	n/a	n/a	n/a	n/a	n/a	n/a
103.9263	0.5833	INK	21	Incongruent	żółty	yellow	zielony	green	hit	n/a
104.4867	n/a	RESPONSE	n/a	n/a	n/a	n/a	n/a	n/a	n/a	green
104.5096	1.0167	ITI	n/a	n/a	n/a	n/a	n/a	n/a	n/a	n/a
105.5263	0.5167	FIXCROSS	n/a	n/a	n/a	n/a	n/a	n/a	n/a	n/a
106.043	0.6	INK	22	Neutral	xxxxxxx	xxxxxxx	czerwony	red	hit	n/a
106.6141	n/a	RESPONSE	n/a	n/a	n/a	n/a	n/a	n/a	n/a	red
106.643	1.0167	ITI	n/a	n/a	n/a	n/a	n/a	n/a	n/a	n/a
107.6597	0.5167	FIXCROSS	n/a	n/a	n/a	n/a	n/a	n/a	n/a	n/a
108.1764	0.65	INK	23	Incongruent	niebieski	blue	żółty	yellow	hit	n/a
108.8056	n/a	RESPONSE	n/a	n/a	n/a	n/a	n/a	n/a	n/a	yellow
108.8264	1.0167	ITI	n/a	n/a	n/a	n/a	n/a	n/a	n/a	n/a
109.843	0.5167	FIXCROSS	n/a	n/a	n/a	n/a	n/a	n/a	n/a	n/a
110.3597	0.6333	INK	24	Neutral	xxxxxxx	xxxxxxx	czerwony	red	hit	n/a
110.9651	n/a	RESPONSE	n/a	n/a	n/a	n/a	n/a	n/a	n/a	red
110.9931	1.0167	ITI	n/a	n/a	n/a	n/a	n/a	n/a	n/a	n/a
112.0098	0.5167	FIXCROSS	n/a	n/a	n/a	n/a	n/a	n/a	n/a	n/a
112.5264	0.7833	INK	25	Incongruent	żółty	yellow	zielony	green	hit	n/a
113.2845	n/a	RESPONSE	n/a	n/a	n/a	n/a	n/a	n/a	n/a	green
113.3098	1.0167	ITI	n/a	n/a	n/a	n/a	n/a	n/a	n/a	n/a
114.3264	0.5167	FIXCROSS	n/a	n/a	n/a	n/a	n/a	n/a	n/a	n/a
114.8431	0.65	INK	26	Incongruent	zielony	green	czerwony	red	hit	n/a
115.46	n/a	RESPONSE	n/a	n/a	n/a	n/a	n/a	n/a	n/a	red
115.4931	1.0167	ITI	n/a	n/a	n/a	n/a	n/a	n/a	n/a	n/a
116.5098	0.5167	FIXCROSS	n/a	n/a	n/a	n/a	n/a	n/a	n/a	n/a
117.0265	0.7167	INK	27	Incongruent	czerwony	red	niebieski	blue	hit	n/a
117.7154	n/a	RESPONSE	n/a	n/a	n/a	n/a	n/a	n/a	n/a	blue
117.7432	1.0167	ITI	n/a	n/a	n/a	n/a	n/a	n/a	n/a	n/a
118.7598	0.5167	FIXCROSS	n/a	n/a	n/a	n/a	n/a	n/a	n/a	n/a
119.2765	0.5834	INK	28	Neutral	xxxxxxxxx	xxxxxxxxx	żółty	yellow	hit	n/a
119.8269	n/a	RESPONSE	n/a	n/a	n/a	n/a	n/a	n/a	n/a	yellow
119.8599	1.0167	ITI	n/a	n/a	n/a	n/a	n/a	n/a	n/a	n/a
120.8765	0.5167	FIXCROSS	n/a	n/a	n/a	n/a	n/a	n/a	n/a	n/a
121.3932	0.4667	INK	29	Neutral	xxxxxxxxx	xxxxxxxxx	czerwony	red	hit	n/a
121.8265	n/a	RESPONSE	n/a	n/a	n/a	n/a	n/a	n/a	n/a	red
121.8599	1.0167	ITI	n/a	n/a	n/a	n/a	n/a	n/a	n/a	n/a
122.8766	0.5167	FIXCROSS	n/a	n/a	n/a	n/a	n/a	n/a	n/a	n/a
123.3932	0.65	INK	30	Neutral	xxxxxxxxx	xxxxxxxxx	żółty	yellow	hit	n/a
124.0179	n/a	RESPONSE	n/a	n/a	n/a	n/a	n/a	n/a	n/a	yellow
124.0432	1.0167	ITI	n/a	n/a	n/a	n/a	n/a	n/a	n/a	n/a
125.0599	0.5167	FIXCROSS	n/a	n/a	n/a	n/a	n/a	n/a	n/a	n/a
125.5766	0.55	INK	31	Neutral	xxxxx	xxxxx	niebieski	blue	hit	n/a
126.0974	n/a	RESPONSE	n/a	n/a	n/a	n/a	n/a	n/a	n/a	blue
126.1266	1.0167	ITI	n/a	n/a	n/a	n/a	n/a	n/a	n/a	n/a
127.1433	0.5167	FIXCROSS	n/a	n/a	n/a	n/a	n/a	n/a	n/a	n/a
127.66	0.5334	INK	32	Neutral	xxxxxxx	xxxxxxx	czerwony	red	hit	n/a
128.1609	n/a	RESPONSE	n/a	n/a	n/a	n/a	n/a	n/a	n/a	red
128.1933	1.0167	ITI	n/a	n/a	n/a	n/a	n/a	n/a	n/a	n/a
129.21	0.5167	FIXCROSS	n/a	n/a	n/a	n/a	n/a	n/a	n/a	n/a
129.7267	0.65	INK	33	Neutral	xxxxx	xxxxx	niebieski	blue	hit	n/a
130.3524	n/a	RESPONSE	n/a	n/a	n/a	n/a	n/a	n/a	n/a	blue
130.3767	1.0167	ITI	n/a	n/a	n/a	n/a	n/a	n/a	n/a	n/a
131.3933	0.5167	FIXCROSS	n/a	n/a	n/a	n/a	n/a	n/a	n/a	n/a
131.91	0.6667	INK	34	Neutral	xxxxxxx	xxxxxxx	niebieski	blue	hit	n/a
132.5439	n/a	RESPONSE	n/a	n/a	n/a	n/a	n/a	n/a	n/a	blue
132.5767	1.0167	ITI	n/a	n/a	n/a	n/a	n/a	n/a	n/a	n/a
133.5934	0.5167	FIXCROSS	n/a	n/a	n/a	n/a	n/a	n/a	n/a	n/a
134.1101	0.6833	INK	35	Neutral	xxxxxxxx	xxxxxxxx	zielony	green	hit	n/a
134.7673	n/a	RESPONSE	n/a	n/a	n/a	n/a	n/a	n/a	n/a	green
134.7934	1.0167	ITI	n/a	n/a	n/a	n/a	n/a	n/a	n/a	n/a
135.8101	0.5167	FIXCROSS	n/a	n/a	n/a	n/a	n/a	n/a	n/a	n/a
136.3267	1.3	INK	36	Incongruent	czerwony	red	zielony	green	hit	n/a
137.5987	n/a	RESPONSE	n/a	n/a	n/a	n/a	n/a	n/a	n/a	green
137.6268	1.0167	ITI	n/a	n/a	n/a	n/a	n/a	n/a	n/a	n/a
138.6435	0.5167	FIXCROSS	n/a	n/a	n/a	n/a	n/a	n/a	n/a	n/a
139.1601	0.7	INK	37	Neutral	xxxxx	xxxxx	zielony	green	hit	n/a
139.8381	n/a	RESPONSE	n/a	n/a	n/a	n/a	n/a	n/a	n/a	green
139.8601	1.0166	ITI	n/a	n/a	n/a	n/a	n/a	n/a	n/a	n/a
140.8767	0.5168	FIXCROSS	n/a	n/a	n/a	n/a	n/a	n/a	n/a	n/a
141.3935	0.7	INK	38	Neutral	xxxxxxxx	xxxxxxxx	niebieski	blue	hit	n/a
142.0616	n/a	RESPONSE	n/a	n/a	n/a	n/a	n/a	n/a	n/a	blue
142.0935	1.0167	ITI	n/a	n/a	n/a	n/a	n/a	n/a	n/a	n/a
143.1102	0.5167	FIXCROSS	n/a	n/a	n/a	n/a	n/a	n/a	n/a	n/a
143.6269	0.7	INK	39	Neutral	xxxxxxxx	xxxxxxxx	żółty	yellow	hit	n/a
144.301	n/a	RESPONSE	n/a	n/a	n/a	n/a	n/a	n/a	n/a	yellow
144.3269	1.0167	ITI	n/a	n/a	n/a	n/a	n/a	n/a	n/a	n/a
145.3436	0.5167	FIXCROSS	n/a	n/a	n/a	n/a	n/a	n/a	n/a	n/a
145.8602	0.6833	INK	40	Neutral	xxxxxxx	xxxxxxx	żółty	yellow	hit	n/a
146.5245	n/a	RESPONSE	n/a	n/a	n/a	n/a	n/a	n/a	n/a	yellow
146.5436	1.0167	ITI	n/a	n/a	n/a	n/a	n/a	n/a	n/a	n/a
147.5602	0.5167	FIXCROSS	n/a	n/a	n/a	n/a	n/a	n/a	n/a	n/a
148.0769	0.6833	INK	41	Incongruent	niebieski	blue	czerwony	red	hit	n/a
148.732	n/a	RESPONSE	n/a	n/a	n/a	n/a	n/a	n/a	n/a	red
148.7603	1.0167	ITI	n/a	n/a	n/a	n/a	n/a	n/a	n/a	n/a
149.7769	0.5167	FIXCROSS	n/a	n/a	n/a	n/a	n/a	n/a	n/a	n/a
150.2936	0.6333	INK	42	Neutral	xxxxxxx	xxxxxxx	żółty	yellow	hit	n/a
150.9075	n/a	RESPONSE	n/a	n/a	n/a	n/a	n/a	n/a	n/a	yellow
150.927	1.0167	ITI	n/a	n/a	n/a	n/a	n/a	n/a	n/a	n/a
151.9436	0.5167	FIXCROSS	n/a	n/a	n/a	n/a	n/a	n/a	n/a	n/a
152.4603	0.95	INK	43	Neutral	xxxxxxxx	xxxxxxxx	niebieski	blue	hit	n/a
153.3869	n/a	RESPONSE	n/a	n/a	n/a	n/a	n/a	n/a	n/a	blue
153.4103	1.0167	ITI	n/a	n/a	n/a	n/a	n/a	n/a	n/a	n/a
154.427	0.5167	FIXCROSS	n/a	n/a	n/a	n/a	n/a	n/a	n/a	n/a
154.9437	0.5	INK	44	Neutral	xxxxxxx	xxxxxxx	niebieski	blue	hit	n/a
155.4184	n/a	RESPONSE	n/a	n/a	n/a	n/a	n/a	n/a	n/a	blue
155.4437	1.0167	ITI	n/a	n/a	n/a	n/a	n/a	n/a	n/a	n/a
156.4604	0.5167	FIXCROSS	n/a	n/a	n/a	n/a	n/a	n/a	n/a	n/a
156.977	0.8833	INK	45	Incongruent	zielony	green	żółty	yellow	hit	n/a
157.8338	n/a	RESPONSE	n/a	n/a	n/a	n/a	n/a	n/a	n/a	yellow
157.8604	1.0167	ITI	n/a	n/a	n/a	n/a	n/a	n/a	n/a	n/a
158.8771	0.5167	FIXCROSS	n/a	n/a	n/a	n/a	n/a	n/a	n/a	n/a
159.3937	1.0667	INK	46	Incongruent	niebieski	blue	zielony	green	hit	n/a
160.4411	n/a	RESPONSE	n/a	n/a	n/a	n/a	n/a	n/a	n/a	green
160.4604	1.0167	ITI	n/a	n/a	n/a	n/a	n/a	n/a	n/a	n/a
161.4771	0.5167	FIXCROSS	n/a	n/a	n/a	n/a	n/a	n/a	n/a	n/a
161.9938	0.95	INK	47	Incongruent	zielony	green	niebieski	blue	hit	n/a
162.9206	n/a	RESPONSE	n/a	n/a	n/a	n/a	n/a	n/a	n/a	blue
162.9438	1.0167	ITI	n/a	n/a	n/a	n/a	n/a	n/a	n/a	n/a
163.9605	0.5167	FIXCROSS	n/a	n/a	n/a	n/a	n/a	n/a	n/a	n/a
164.4771	0.6167	INK	48	Neutral	xxxxxxxxx	xxxxxxxxx	czerwony	red	hit	n/a
165.0641	n/a	RESPONSE	n/a	n/a	n/a	n/a	n/a	n/a	n/a	red
165.0938	1.0167	ITI	n/a	n/a	n/a	n/a	n/a	n/a	n/a	n/a
166.1105	0.5167	FIXCROSS	n/a	n/a	n/a	n/a	n/a	n/a	n/a	n/a
166.6272	0.95	INK	49	Incongruent	zielony	green	niebieski	blue	hit	n/a
167.5594	n/a	RESPONSE	n/a	n/a	n/a	n/a	n/a	n/a	n/a	blue
167.5772	1.0167	ITI	n/a	n/a	n/a	n/a	n/a	n/a	n/a	n/a
168.5939	0.5167	FIXCROSS	n/a	n/a	n/a	n/a	n/a	n/a	n/a	n/a
169.1105	0.8667	INK	50	Incongruent	zielony	green	niebieski	blue	hit	n/a
169.9589	n/a	RESPONSE	n/a	n/a	n/a	n/a	n/a	n/a	n/a	blue
169.9772	1.0167	ITI	n/a	n/a	n/a	n/a	n/a	n/a	n/a	n/a
170.9939	0.5167	FIXCROSS	n/a	n/a	n/a	n/a	n/a	n/a	n/a	n/a
171.5106	0.5167	INK	51	Neutral	xxxxxxxx	xxxxxxxx	zielony	green	hit	n/a
172.0064	n/a	RESPONSE	n/a	n/a	n/a	n/a	n/a	n/a	n/a	green
172.0272	1.0167	ITI	n/a	n/a	n/a	n/a	n/a	n/a	n/a	n/a
173.0439	0.5167	FIXCROSS	n/a	n/a	n/a	n/a	n/a	n/a	n/a	n/a
173.5606	0.9	INK	52	Incongruent	czerwony	red	żółty	yellow	hit	n/a
174.4378	n/a	RESPONSE	n/a	n/a	n/a	n/a	n/a	n/a	n/a	yellow
174.4606	1.0167	ITI	n/a	n/a	n/a	n/a	n/a	n/a	n/a	n/a
175.4773	0.5167	FIXCROSS	n/a	n/a	n/a	n/a	n/a	n/a	n/a	n/a
175.994	0.9333	INK	53	Incongruent	czerwony	red	niebieski	blue	hit	n/a
176.9012	n/a	RESPONSE	n/a	n/a	n/a	n/a	n/a	n/a	n/a	blue
176.9273	1.0167	ITI	n/a	n/a	n/a	n/a	n/a	n/a	n/a	n/a
177.944	0.5167	FIXCROSS	n/a	n/a	n/a	n/a	n/a	n/a	n/a	n/a
178.4607	0.65	INK	54	Neutral	xxxxx	xxxxx	czerwony	red	hit	n/a
179.0927	n/a	RESPONSE	n/a	n/a	n/a	n/a	n/a	n/a	n/a	red
179.1107	1.0167	ITI	n/a	n/a	n/a	n/a	n/a	n/a	n/a	n/a
180.1274	0.5167	FIXCROSS	n/a	n/a	n/a	n/a	n/a	n/a	n/a	n/a
180.644	0.7667	INK	55	Neutral	xxxxxxx	xxxxxxx	żółty	yellow	hit	n/a
181.3801	n/a	RESPONSE	n/a	n/a	n/a	n/a	n/a	n/a	n/a	yellow
181.4107	1.0167	ITI	n/a	n/a	n/a	n/a	n/a	n/a	n/a	n/a
182.4274	0.5167	FIXCROSS	n/a	n/a	n/a	n/a	n/a	n/a	n/a	n/a
182.9441	0.5333	INK	56	Neutral	xxxxxxx	xxxxxxx	niebieski	blue	hit	n/a
183.4596	n/a	RESPONSE	n/a	n/a	n/a	n/a	n/a	n/a	n/a	blue
183.4774	1.0167	ITI	n/a	n/a	n/a	n/a	n/a	n/a	n/a	n/a
184.4941	0.5167	FIXCROSS	n/a	n/a	n/a	n/a	n/a	n/a	n/a	n/a
185.0108	0.65	INK	57	Neutral	xxxxx	xxxxx	czerwony	red	hit	n/a
185.6351	n/a	RESPONSE	n/a	n/a	n/a	n/a	n/a	n/a	n/a	red
185.6608	1.0167	ITI	n/a	n/a	n/a	n/a	n/a	n/a	n/a	n/a
186.6775	0.5167	FIXCROSS	n/a	n/a	n/a	n/a	n/a	n/a	n/a	n/a
187.1941	0.7	INK	58	Incongruent	niebieski	blue	żółty	yellow	hit	n/a
187.8745	n/a	RESPONSE	n/a	n/a	n/a	n/a	n/a	n/a	n/a	yellow
187.8941	1.0167	ITI	n/a	n/a	n/a	n/a	n/a	n/a	n/a	n/a
188.9108	0.5167	FIXCROSS	n/a	n/a	n/a	n/a	n/a	n/a	n/a	n/a
189.4275	0.7333	INK	59	Incongruent	niebieski	blue	czerwony	red	hit	n/a
190.13	n/a	RESPONSE	n/a	n/a	n/a	n/a	n/a	n/a	n/a	red
190.1608	1.0167	ITI	n/a	n/a	n/a	n/a	n/a	n/a	n/a	n/a
191.1775	0.5167	FIXCROSS	n/a	n/a	n/a	n/a	n/a	n/a	n/a	n/a
191.6942	0.6667	INK	60	Incongruent	żółty	yellow	niebieski	blue	hit	n/a
192.3375	n/a	RESPONSE	n/a	n/a	n/a	n/a	n/a	n/a	n/a	blue
192.3609	1.0167	ITI	n/a	n/a	n/a	n/a	n/a	n/a	n/a	n/a
193.3775	0.5167	FIXCROSS	n/a	n/a	n/a	n/a	n/a	n/a	n/a	n/a
193.8942	1.1833	INK	61	Incongruent	żółty	yellow	czerwony	red	hit	n/a
195.0568	n/a	RESPONSE	n/a	n/a	n/a	n/a	n/a	n/a	n/a	red
195.0776	1.0167	ITI	n/a	n/a	n/a	n/a	n/a	n/a	n/a	n/a
196.0942	0.5167	FIXCROSS	n/a	n/a	n/a	n/a	n/a	n/a	n/a	n/a
196.6109	0.6333	INK	62	Neutral	xxxxxxxxx	xxxxxxxxx	zielony	green	hit	n/a
197.2163	n/a	RESPONSE	n/a	n/a	n/a	n/a	n/a	n/a	n/a	green
197.2443	1.0167	ITI	n/a	n/a	n/a	n/a	n/a	n/a	n/a	n/a
198.2609	0.5167	FIXCROSS	n/a	n/a	n/a	n/a	n/a	n/a	n/a	n/a
198.7776	0.85	INK	63	Incongruent	niebieski	blue	żółty	yellow	hit	n/a
199.5997	n/a	RESPONSE	n/a	n/a	n/a	n/a	n/a	n/a	n/a	yellow
199.6276	1.0167	ITI	n/a	n/a	n/a	n/a	n/a	n/a	n/a	n/a
200.6443	0.5167	FIXCROSS	n/a	n/a	n/a	n/a	n/a	n/a	n/a	n/a
201.161	0.8	INK	64	Incongruent	czerwony	red	zielony	green	hit	n/a
201.9352	n/a	RESPONSE	n/a	n/a	n/a	n/a	n/a	n/a	n/a	green
201.961	1.0167	ITI	n/a	n/a	n/a	n/a	n/a	n/a	n/a	n/a
202.9777	0.5167	FIXCROSS	n/a	n/a	n/a	n/a	n/a	n/a	n/a	n/a
203.4943	0.8667	INK	65	Incongruent	żółty	yellow	niebieski	blue	hit	n/a
204.3346	n/a	RESPONSE	n/a	n/a	n/a	n/a	n/a	n/a	n/a	blue
204.361	1.0167	ITI	n/a	n/a	n/a	n/a	n/a	n/a	n/a	n/a
205.3777	0.5167	FIXCROSS	n/a	n/a	n/a	n/a	n/a	n/a	n/a	n/a
205.8944	0.6333	INK	66	Neutral	xxxxx	xxxxx	niebieski	blue	hit	n/a
206.51	n/a	RESPONSE	n/a	n/a	n/a	n/a	n/a	n/a	n/a	blue
206.5277	1.0167	ITI	n/a	n/a	n/a	n/a	n/a	n/a	n/a	n/a
207.5444	0.5167	FIXCROSS	n/a	n/a	n/a	n/a	n/a	n/a	n/a	n/a
208.0611	0.5	INK	67	Neutral	xxxxxxxxx	xxxxxxxxx	zielony	green	hit	n/a
208.5415	n/a	RESPONSE	n/a	n/a	n/a	n/a	n/a	n/a	n/a	green
208.5611	1.0167	ITI	n/a	n/a	n/a	n/a	n/a	n/a	n/a	n/a
209.5778	0.5167	FIXCROSS	n/a	n/a	n/a	n/a	n/a	n/a	n/a	n/a
210.0944	0.65	INK	68	Incongruent	zielony	green	żółty	yellow	hit	n/a
210.717	n/a	RESPONSE	n/a	n/a	n/a	n/a	n/a	n/a	n/a	yellow
210.7444	1.0167	ITI	n/a	n/a	n/a	n/a	n/a	n/a	n/a	n/a
211.7611	0.5167	FIXCROSS	n/a	n/a	n/a	n/a	n/a	n/a	n/a	n/a
212.2778	0.8167	INK	69	Neutral	xxxxx	xxxxx	zielony	green	hit	n/a
213.0685	n/a	RESPONSE	n/a	n/a	n/a	n/a	n/a	n/a	n/a	green
213.0945	1.0167	ITI	n/a	n/a	n/a	n/a	n/a	n/a	n/a	n/a
214.1112	0.5167	FIXCROSS	n/a	n/a	n/a	n/a	n/a	n/a	n/a	n/a
214.6278	0.5833	INK	70	Incongruent	żółty	yellow	czerwony	red	hit	n/a
215.18	n/a	RESPONSE	n/a	n/a	n/a	n/a	n/a	n/a	n/a	red
215.2112	1.0167	ITI	n/a	n/a	n/a	n/a	n/a	n/a	n/a	n/a
216.2278	0.5167	FIXCROSS	n/a	n/a	n/a	n/a	n/a	n/a	n/a	n/a
216.7445	0.55	INK	71	Incongruent	niebieski	blue	zielony	green	hit	n/a
217.2755	n/a	RESPONSE	n/a	n/a	n/a	n/a	n/a	n/a	n/a	green
217.2945	1.0167	ITI	n/a	n/a	n/a	n/a	n/a	n/a	n/a	n/a
218.3112	0.5167	FIXCROSS	n/a	n/a	n/a	n/a	n/a	n/a	n/a	n/a
218.8279	0.5667	INK	72	Neutral	xxxxxxxx	xxxxxxxx	żółty	yellow	hit	n/a
219.3709	n/a	RESPONSE	n/a	n/a	n/a	n/a	n/a	n/a	n/a	yellow
219.3946	1.0834	ITI	n/a	n/a	n/a	n/a	n/a	n/a	n/a	n/a
245.4607	n/a	RESPONSE	n/a	n/a	n/a	n/a	n/a	n/a	n/a	n/a
245.5282	1.0167	ITI	n/a	n/a	n/a	n/a	n/a	n/a	n/a	n/a
246.5449	0.5167	FIXCROSS	n/a	n/a	n/a	n/a	n/a	n/a	n/a	n/a
247.0616	0.8	T_COLOR_NAME	1	Neutral	czerwony	red	Neutral	Neutral	hit	n/a
247.8281	n/a	RESPONSE	n/a	n/a	n/a	n/a	n/a	n/a	n/a	red
247.8616	0.5166	FEEDBACK	n/a	n/a	n/a	n/a	n/a	n/a	n/a	n/a
248.3783	1.0167	ITI	n/a	n/a	n/a	n/a	n/a	n/a	n/a	n/a
249.395	0.5167	FIXCROSS	n/a	n/a	n/a	n/a	n/a	n/a	n/a	n/a
249.9116	0.5833	T_COLOR_NAME	2	Neutral	czerwony	red	Neutral	Neutral	hit	n/a
250.4675	n/a	RESPONSE	n/a	n/a	n/a	n/a	n/a	n/a	n/a	red
250.495	0.5167	FEEDBACK	n/a	n/a	n/a	n/a	n/a	n/a	n/a	n/a
251.0117	1.0167	ITI	n/a	n/a	n/a	n/a	n/a	n/a	n/a	n/a
252.0283	0.5167	FIXCROSS	n/a	n/a	n/a	n/a	n/a	n/a	n/a	n/a
252.545	0.6333	T_COLOR_NAME	3	Neutral	niebieski	blue	Neutral	Neutral	hit	n/a
253.1548	n/a	RESPONSE	n/a	n/a	n/a	n/a	n/a	n/a	n/a	blue
253.1784	0.5167	FEEDBACK	n/a	n/a	n/a	n/a	n/a	n/a	n/a	n/a
253.695	1.0167	ITI	n/a	n/a	n/a	n/a	n/a	n/a	n/a	n/a
254.7117	0.5167	FIXCROSS	n/a	n/a	n/a	n/a	n/a	n/a	n/a	n/a
255.2284	0.7333	T_COLOR_NAME	4	Incongruent	zielony	green	czerwony	red	hit	n/a
255.9381	n/a	RESPONSE	n/a	n/a	n/a	n/a	n/a	n/a	n/a	green
255.9617	0.5167	FEEDBACK	n/a	n/a	n/a	n/a	n/a	n/a	n/a	n/a
256.4784	1.0167	ITI	n/a	n/a	n/a	n/a	n/a	n/a	n/a	n/a
257.4951	0.5167	FIXCROSS	n/a	n/a	n/a	n/a	n/a	n/a	n/a	n/a
258.0118	0.65	T_COLOR_NAME	5	Incongruent	czerwony	red	zielony	green	hit	n/a
258.6415	n/a	RESPONSE	n/a	n/a	n/a	n/a	n/a	n/a	n/a	red
258.6618	0.5167	FEEDBACK	n/a	n/a	n/a	n/a	n/a	n/a	n/a	n/a
259.1784	1.0167	ITI	n/a	n/a	n/a	n/a	n/a	n/a	n/a	n/a
260.1951	0.5167	FIXCROSS	n/a	n/a	n/a	n/a	n/a	n/a	n/a	n/a
260.7118	1.0667	T_COLOR_NAME	6	Incongruent	zielony	green	żółty	yellow	hit	n/a
261.7448	n/a	RESPONSE	n/a	n/a	n/a	n/a	n/a	n/a	n/a	green
261.7785	0.5167	FEEDBACK	n/a	n/a	n/a	n/a	n/a	n/a	n/a	n/a
262.2952	1.0167	ITI	n/a	n/a	n/a	n/a	n/a	n/a	n/a	n/a
263.3118	0.5167	FIXCROSS	n/a	n/a	n/a	n/a	n/a	n/a	n/a	n/a
263.8285	0.6333	T_COLOR_NAME	7	Neutral	zielony	green	Neutral	Neutral	hit	n/a
264.4321	n/a	RESPONSE	n/a	n/a	n/a	n/a	n/a	n/a	n/a	green
264.4618	0.5167	FEEDBACK	n/a	n/a	n/a	n/a	n/a	n/a	n/a	n/a
264.9785	1.0167	ITI	n/a	n/a	n/a	n/a	n/a	n/a	n/a	n/a
265.9952	0.5167	FIXCROSS	n/a	n/a	n/a	n/a	n/a	n/a	n/a	n/a
266.5119	0.7333	T_COLOR_NAME	8	Neutral	żółty	yellow	Neutral	Neutral	hit	n/a
267.2154	n/a	RESPONSE	n/a	n/a	n/a	n/a	n/a	n/a	n/a	yellow
267.2452	0.5167	FEEDBACK	n/a	n/a	n/a	n/a	n/a	n/a	n/a	n/a
267.7619	1.0167	ITI	n/a	n/a	n/a	n/a	n/a	n/a	n/a	n/a
268.7786	0.5167	FIXCROSS	n/a	n/a	n/a	n/a	n/a	n/a	n/a	n/a
269.2952	0.65	T_COLOR_NAME	9	Neutral	czerwony	red	Neutral	Neutral	hit	n/a
269.9188	n/a	RESPONSE	n/a	n/a	n/a	n/a	n/a	n/a	n/a	red
269.9453	0.5167	FEEDBACK	n/a	n/a	n/a	n/a	n/a	n/a	n/a	n/a
270.4619	1.0167	ITI	n/a	n/a	n/a	n/a	n/a	n/a	n/a	n/a
271.4786	0.5167	FIXCROSS	n/a	n/a	n/a	n/a	n/a	n/a	n/a	n/a
271.9953	0.85	T_COLOR_NAME	10	Incongruent	czerwony	red	niebieski	blue	hit	n/a
272.8141	n/a	RESPONSE	n/a	n/a	n/a	n/a	n/a	n/a	n/a	red
272.8453	0.5167	FEEDBACK	n/a	n/a	n/a	n/a	n/a	n/a	n/a	n/a
273.362	1.0167	ITI	n/a	n/a	n/a	n/a	n/a	n/a	n/a	n/a
274.3786	0.5167	FIXCROSS	n/a	n/a	n/a	n/a	n/a	n/a	n/a	n/a
274.8953	0.65	T_COLOR_NAME	11	Neutral	zielony	green	Neutral	Neutral	hit	n/a
275.5174	n/a	RESPONSE	n/a	n/a	n/a	n/a	n/a	n/a	n/a	green
275.5453	0.5167	FEEDBACK	n/a	n/a	n/a	n/a	n/a	n/a	n/a	n/a
276.062	1.0167	ITI	n/a	n/a	n/a	n/a	n/a	n/a	n/a	n/a
277.0787	0.5167	FIXCROSS	n/a	n/a	n/a	n/a	n/a	n/a	n/a	n/a
277.5954	0.5833	T_COLOR_NAME	12	Neutral	zielony	green	Neutral	Neutral	hit	n/a
278.1568	n/a	RESPONSE	n/a	n/a	n/a	n/a	n/a	n/a	n/a	green
278.1787	0.5167	FEEDBACK	n/a	n/a	n/a	n/a	n/a	n/a	n/a	n/a
278.6954	1.0333	ITI	n/a	n/a	n/a	n/a	n/a	n/a	n/a	n/a
282.5397	n/a	RESPONSE	n/a	n/a	n/a	n/a	n/a	n/a	n/a	n/a
282.5954	1.0167	ITI	n/a	n/a	n/a	n/a	n/a	n/a	n/a	n/a
283.6121	0.5167	FIXCROSS	n/a	n/a	n/a	n/a	n/a	n/a	n/a	n/a
284.1288	0.7	COLOR_NAME	1	Incongruent	zielony	green	czerwony	red	hit	n/a
284.7952	n/a	RESPONSE	n/a	n/a	n/a	n/a	n/a	n/a	n/a	green
284.8288	1.0167	ITI	n/a	n/a	n/a	n/a	n/a	n/a	n/a	n/a
285.8455	0.5167	FIXCROSS	n/a	n/a	n/a	n/a	n/a	n/a	n/a	n/a
286.3621	0.5667	COLOR_NAME	2	Incongruent	czerwony	red	żółty	yellow	hit	n/a
286.9067	n/a	RESPONSE	n/a	n/a	n/a	n/a	n/a	n/a	n/a	red
286.9288	1.0167	ITI	n/a	n/a	n/a	n/a	n/a	n/a	n/a	n/a
287.9455	0.5167	FIXCROSS	n/a	n/a	n/a	n/a	n/a	n/a	n/a	n/a
288.4622	0.6667	COLOR_NAME	3	Incongruent	żółty	yellow	czerwony	red	hit	n/a
289.0982	n/a	RESPONSE	n/a	n/a	n/a	n/a	n/a	n/a	n/a	yellow
289.1288	1.0167	ITI	n/a	n/a	n/a	n/a	n/a	n/a	n/a	n/a
290.1455	0.5167	FIXCROSS	n/a	n/a	n/a	n/a	n/a	n/a	n/a	n/a
290.6622	0.6833	COLOR_NAME	4	Neutral	żółty	yellow	Neutral	Neutral	hit	n/a
291.3216	n/a	RESPONSE	n/a	n/a	n/a	n/a	n/a	n/a	n/a	yellow
291.3455	1.0167	ITI	n/a	n/a	n/a	n/a	n/a	n/a	n/a	n/a
292.3622	0.5167	FIXCROSS	n/a	n/a	n/a	n/a	n/a	n/a	n/a	n/a
292.8789	0.6333	COLOR_NAME	5	Neutral	niebieski	blue	Neutral	Neutral	hit	n/a
293.4811	n/a	RESPONSE	n/a	n/a	n/a	n/a	n/a	n/a	n/a	blue
293.5122	1.0167	ITI	n/a	n/a	n/a	n/a	n/a	n/a	n/a	n/a
294.5289	0.5167	FIXCROSS	n/a	n/a	n/a	n/a	n/a	n/a	n/a	n/a
295.0456	0.5	COLOR_NAME	6	Neutral	niebieski	blue	Neutral	Neutral	hit	n/a
295.5126	n/a	RESPONSE	n/a	n/a	n/a	n/a	n/a	n/a	n/a	blue
295.5456	1.0167	ITI	n/a	n/a	n/a	n/a	n/a	n/a	n/a	n/a
296.5623	0.5167	FIXCROSS	n/a	n/a	n/a	n/a	n/a	n/a	n/a	n/a
297.079	0.5	COLOR_NAME	7	Neutral	zielony	green	Neutral	Neutral	hit	n/a
297.5601	n/a	RESPONSE	n/a	n/a	n/a	n/a	n/a	n/a	n/a	green
297.579	1.0167	ITI	n/a	n/a	n/a	n/a	n/a	n/a	n/a	n/a
298.5956	0.5167	FIXCROSS	n/a	n/a	n/a	n/a	n/a	n/a	n/a	n/a
299.1123	0.7333	COLOR_NAME	8	Incongruent	czerwony	red	zielony	green	hit	n/a
299.8156	n/a	RESPONSE	n/a	n/a	n/a	n/a	n/a	n/a	n/a	red
299.8457	1.0167	ITI	n/a	n/a	n/a	n/a	n/a	n/a	n/a	n/a
300.8623	0.5167	FIXCROSS	n/a	n/a	n/a	n/a	n/a	n/a	n/a	n/a
301.379	1.0167	COLOR_NAME	9	Neutral	zielony	green	Neutral	Neutral	hit	n/a
302.3749	n/a	RESPONSE	n/a	n/a	n/a	n/a	n/a	n/a	n/a	green
302.3957	1.0167	ITI	n/a	n/a	n/a	n/a	n/a	n/a	n/a	n/a
303.4124	0.5167	FIXCROSS	n/a	n/a	n/a	n/a	n/a	n/a	n/a	n/a
303.929	0.8333	COLOR_NAME	10	Incongruent	niebieski	blue	żółty	yellow	hit	n/a
304.7424	n/a	RESPONSE	n/a	n/a	n/a	n/a	n/a	n/a	n/a	blue
304.7624	1.0167	ITI	n/a	n/a	n/a	n/a	n/a	n/a	n/a	n/a
305.7791	0.5167	FIXCROSS	n/a	n/a	n/a	n/a	n/a	n/a	n/a	n/a
306.2957	0.7834	COLOR_NAME	11	Neutral	żółty	yellow	Neutral	Neutral	hit	n/a
307.0458	n/a	RESPONSE	n/a	n/a	n/a	n/a	n/a	n/a	n/a	yellow
307.0791	1.0167	ITI	n/a	n/a	n/a	n/a	n/a	n/a	n/a	n/a
308.0958	0.5167	FIXCROSS	n/a	n/a	n/a	n/a	n/a	n/a	n/a	n/a
308.6124	0.6167	COLOR_NAME	12	Neutral	czerwony	red	Neutral	Neutral	hit	n/a
309.2053	n/a	RESPONSE	n/a	n/a	n/a	n/a	n/a	n/a	n/a	red
309.2291	1.0167	ITI	n/a	n/a	n/a	n/a	n/a	n/a	n/a	n/a
310.2458	0.5167	FIXCROSS	n/a	n/a	n/a	n/a	n/a	n/a	n/a	n/a
310.7625	0.4667	COLOR_NAME	13	Neutral	zielony	green	Neutral	Neutral	hit	n/a
311.2048	n/a	RESPONSE	n/a	n/a	n/a	n/a	n/a	n/a	n/a	green
311.2291	1.0167	ITI	n/a	n/a	n/a	n/a	n/a	n/a	n/a	n/a
312.2458	0.5167	FIXCROSS	n/a	n/a	n/a	n/a	n/a	n/a	n/a	n/a
312.7625	0.7167	COLOR_NAME	14	Incongruent	niebieski	blue	czerwony	red	hit	n/a
313.4603	n/a	RESPONSE	n/a	n/a	n/a	n/a	n/a	n/a	n/a	blue
313.4792	1.0167	ITI	n/a	n/a	n/a	n/a	n/a	n/a	n/a	n/a
314.4959	0.5167	FIXCROSS	n/a	n/a	n/a	n/a	n/a	n/a	n/a	n/a
315.0125	0.5667	COLOR_NAME	15	Neutral	żółty	yellow	Neutral	Neutral	hit	n/a
315.5558	n/a	RESPONSE	n/a	n/a	n/a	n/a	n/a	n/a	n/a	yellow
315.5792	1.0167	ITI	n/a	n/a	n/a	n/a	n/a	n/a	n/a	n/a
316.5959	0.5167	FIXCROSS	n/a	n/a	n/a	n/a	n/a	n/a	n/a	n/a
317.1126	0.8667	COLOR_NAME	16	Incongruent	żółty	yellow	zielony	green	hit	n/a
317.9552	n/a	RESPONSE	n/a	n/a	n/a	n/a	n/a	n/a	n/a	yellow
317.9792	1.0167	ITI	n/a	n/a	n/a	n/a	n/a	n/a	n/a	n/a
318.9959	0.5167	FIXCROSS	n/a	n/a	n/a	n/a	n/a	n/a	n/a	n/a
319.5126	0.5333	COLOR_NAME	17	Incongruent	czerwony	red	niebieski	blue	hit	n/a
320.0187	n/a	RESPONSE	n/a	n/a	n/a	n/a	n/a	n/a	n/a	red
320.0459	1.0167	ITI	n/a	n/a	n/a	n/a	n/a	n/a	n/a	n/a
321.0626	0.5167	FIXCROSS	n/a	n/a	n/a	n/a	n/a	n/a	n/a	n/a
321.5793	0.75	COLOR_NAME	18	Incongruent	zielony	green	żółty	yellow	hit	n/a
322.3062	n/a	RESPONSE	n/a	n/a	n/a	n/a	n/a	n/a	n/a	green
322.3293	1.0167	ITI	n/a	n/a	n/a	n/a	n/a	n/a	n/a	n/a
323.346	0.5167	FIXCROSS	n/a	n/a	n/a	n/a	n/a	n/a	n/a	n/a
323.8627	0.6	COLOR_NAME	19	Incongruent	niebieski	blue	zielony	green	hit	n/a
324.4336	n/a	RESPONSE	n/a	n/a	n/a	n/a	n/a	n/a	n/a	blue
324.4627	1.0167	ITI	n/a	n/a	n/a	n/a	n/a	n/a	n/a	n/a
325.4793	0.5167	FIXCROSS	n/a	n/a	n/a	n/a	n/a	n/a	n/a	n/a
325.996	0.65	COLOR_NAME	20	Incongruent	żółty	yellow	niebieski	blue	hit	n/a
326.6251	n/a	RESPONSE	n/a	n/a	n/a	n/a	n/a	n/a	n/a	yellow
326.646	1.0167	ITI	n/a	n/a	n/a	n/a	n/a	n/a	n/a	n/a
327.6627	0.5167	FIXCROSS	n/a	n/a	n/a	n/a	n/a	n/a	n/a	n/a
328.1794	0.5833	COLOR_NAME	21	Neutral	zielony	green	Neutral	Neutral	hit	n/a
328.7366	n/a	RESPONSE	n/a	n/a	n/a	n/a	n/a	n/a	n/a	green
328.7627	1.0167	ITI	n/a	n/a	n/a	n/a	n/a	n/a	n/a	n/a
329.7794	0.5167	FIXCROSS	n/a	n/a	n/a	n/a	n/a	n/a	n/a	n/a
330.2961	0.6333	COLOR_NAME	22	Incongruent	zielony	green	czerwony	red	hit	n/a
330.9121	n/a	RESPONSE	n/a	n/a	n/a	n/a	n/a	n/a	n/a	green
330.9294	1.0167	ITI	n/a	n/a	n/a	n/a	n/a	n/a	n/a	n/a
331.9461	0.5167	FIXCROSS	n/a	n/a	n/a	n/a	n/a	n/a	n/a	n/a
332.4628	0.65	COLOR_NAME	23	Incongruent	niebieski	blue	zielony	green	hit	n/a
333.0876	n/a	RESPONSE	n/a	n/a	n/a	n/a	n/a	n/a	n/a	blue
333.1128	1.0167	ITI	n/a	n/a	n/a	n/a	n/a	n/a	n/a	n/a
334.1295	0.5167	FIXCROSS	n/a	n/a	n/a	n/a	n/a	n/a	n/a	n/a
334.6461	0.6167	COLOR_NAME	24	Neutral	czerwony	red	Neutral	Neutral	hit	n/a
335.231	n/a	RESPONSE	n/a	n/a	n/a	n/a	n/a	n/a	n/a	red
335.2628	1.0167	ITI	n/a	n/a	n/a	n/a	n/a	n/a	n/a	n/a
336.2795	0.5167	FIXCROSS	n/a	n/a	n/a	n/a	n/a	n/a	n/a	n/a
336.7962	0.6	COLOR_NAME	25	Incongruent	czerwony	red	zielony	green	hit	n/a
337.3746	n/a	RESPONSE	n/a	n/a	n/a	n/a	n/a	n/a	n/a	red
337.3962	1.0167	ITI	n/a	n/a	n/a	n/a	n/a	n/a	n/a	n/a
338.4129	0.5167	FIXCROSS	n/a	n/a	n/a	n/a	n/a	n/a	n/a	n/a
338.9295	0.5333	COLOR_NAME	26	Neutral	niebieski	blue	Neutral	Neutral	hit	n/a
339.438	n/a	RESPONSE	n/a	n/a	n/a	n/a	n/a	n/a	n/a	blue
339.4629	1.0167	ITI	n/a	n/a	n/a	n/a	n/a	n/a	n/a	n/a
340.4795	0.5167	FIXCROSS	n/a	n/a	n/a	n/a	n/a	n/a	n/a	n/a
340.9962	0.6	COLOR_NAME	27	Neutral	niebieski	blue	Neutral	Neutral	hit	n/a
341.5655	n/a	RESPONSE	n/a	n/a	n/a	n/a	n/a	n/a	n/a	blue
341.5962	1.0167	ITI	n/a	n/a	n/a	n/a	n/a	n/a	n/a	n/a
342.6129	0.5167	FIXCROSS	n/a	n/a	n/a	n/a	n/a	n/a	n/a	n/a
343.1296	0.5833	COLOR_NAME	28	Neutral	żółty	yellow	Neutral	Neutral	hit	n/a
343.693	n/a	RESPONSE	n/a	n/a	n/a	n/a	n/a	n/a	n/a	yellow
343.7129	1.0167	ITI	n/a	n/a	n/a	n/a	n/a	n/a	n/a	n/a
344.7296	0.5167	FIXCROSS	n/a	n/a	n/a	n/a	n/a	n/a	n/a	n/a
345.2463	0.6167	COLOR_NAME	29	Incongruent	niebieski	blue	żółty	yellow	hit	n/a
345.8365	n/a	RESPONSE	n/a	n/a	n/a	n/a	n/a	n/a	n/a	blue
345.8629	1.0167	ITI	n/a	n/a	n/a	n/a	n/a	n/a	n/a	n/a
346.8796	0.5167	FIXCROSS	n/a	n/a	n/a	n/a	n/a	n/a	n/a	n/a
347.3963	0.7	COLOR_NAME	30	Neutral	zielony	green	Neutral	Neutral	hit	n/a
348.0759	n/a	RESPONSE	n/a	n/a	n/a	n/a	n/a	n/a	n/a	green
348.0963	1.0167	ITI	n/a	n/a	n/a	n/a	n/a	n/a	n/a	n/a
349.113	0.5167	FIXCROSS	n/a	n/a	n/a	n/a	n/a	n/a	n/a	n/a
349.6297	0.8833	COLOR_NAME	31	Incongruent	czerwony	red	zielony	green	hit	n/a
350.4914	n/a	RESPONSE	n/a	n/a	n/a	n/a	n/a	n/a	n/a	red
350.513	1.0167	ITI	n/a	n/a	n/a	n/a	n/a	n/a	n/a	n/a
351.5297	0.5167	FIXCROSS	n/a	n/a	n/a	n/a	n/a	n/a	n/a	n/a
352.0464	0.75	COLOR_NAME	32	Incongruent	zielony	green	niebieski	blue	hit	n/a
352.7628	n/a	RESPONSE	n/a	n/a	n/a	n/a	n/a	n/a	n/a	green
352.7964	1.0167	ITI	n/a	n/a	n/a	n/a	n/a	n/a	n/a	n/a
353.8131	0.5167	FIXCROSS	n/a	n/a	n/a	n/a	n/a	n/a	n/a	n/a
354.3297	0.7	COLOR_NAME	33	Neutral	czerwony	red	Neutral	Neutral	hit	n/a
355.0023	n/a	RESPONSE	n/a	n/a	n/a	n/a	n/a	n/a	n/a	red
355.0297	1.0167	ITI	n/a	n/a	n/a	n/a	n/a	n/a	n/a	n/a
356.0464	0.5167	FIXCROSS	n/a	n/a	n/a	n/a	n/a	n/a	n/a	n/a
356.5631	0.6333	COLOR_NAME	34	Neutral	żółty	yellow	Neutral	Neutral	hit	n/a
357.1777	n/a	RESPONSE	n/a	n/a	n/a	n/a	n/a	n/a	n/a	yellow
357.1964	1.0167	ITI	n/a	n/a	n/a	n/a	n/a	n/a	n/a	n/a
358.2131	0.5167	FIXCROSS	n/a	n/a	n/a	n/a	n/a	n/a	n/a	n/a
358.7298	0.6833	COLOR_NAME	35	Neutral	czerwony	red	Neutral	Neutral	hit	n/a
359.3852	n/a	RESPONSE	n/a	n/a	n/a	n/a	n/a	n/a	n/a	red
359.4131	1.0167	ITI	n/a	n/a	n/a	n/a	n/a	n/a	n/a	n/a
360.4298	0.5167	FIXCROSS	n/a	n/a	n/a	n/a	n/a	n/a	n/a	n/a
360.9465	0.6833	COLOR_NAME	36	Incongruent	zielony	green	żółty	yellow	hit	n/a
361.6087	n/a	RESPONSE	n/a	n/a	n/a	n/a	n/a	n/a	n/a	green
361.6298	1.0167	ITI	n/a	n/a	n/a	n/a	n/a	n/a	n/a	n/a
361.8646	n/a	RESPONSE	n/a	n/a	n/a	n/a	n/a	n/a	n/a	green
362.6465	0.5167	FIXCROSS	n/a	n/a	n/a	n/a	n/a	n/a	n/a	n/a
363.1632	0.6667	COLOR_NAME	37	Incongruent	czerwony	red	żółty	yellow	hit	n/a
363.8002	n/a	RESPONSE	n/a	n/a	n/a	n/a	n/a	n/a	n/a	red
363.8299	1.0167	ITI	n/a	n/a	n/a	n/a	n/a	n/a	n/a	n/a
364.8465	0.5167	FIXCROSS	n/a	n/a	n/a	n/a	n/a	n/a	n/a	n/a
365.3632	0.9167	COLOR_NAME	38	Incongruent	niebieski	blue	czerwony	red	hit	n/a
366.2476	n/a	RESPONSE	n/a	n/a	n/a	n/a	n/a	n/a	n/a	blue
366.2799	1.0167	ITI	n/a	n/a	n/a	n/a	n/a	n/a	n/a	n/a
367.2966	0.5167	FIXCROSS	n/a	n/a	n/a	n/a	n/a	n/a	n/a	n/a
367.8132	0.6167	COLOR_NAME	39	Neutral	zielony	green	Neutral	Neutral	hit	n/a
368.407	n/a	RESPONSE	n/a	n/a	n/a	n/a	n/a	n/a	n/a	green
368.4299	1.0167	ITI	n/a	n/a	n/a	n/a	n/a	n/a	n/a	n/a
369.4466	0.5167	FIXCROSS	n/a	n/a	n/a	n/a	n/a	n/a	n/a	n/a
369.9633	0.5333	COLOR_NAME	40	Neutral	czerwony	red	Neutral	Neutral	hit	n/a
370.4705	n/a	RESPONSE	n/a	n/a	n/a	n/a	n/a	n/a	n/a	red
370.4966	1.0167	ITI	n/a	n/a	n/a	n/a	n/a	n/a	n/a	n/a
370.6945	n/a	RESPONSE	n/a	n/a	n/a	n/a	n/a	n/a	n/a	red
371.5133	0.5167	FIXCROSS	n/a	n/a	n/a	n/a	n/a	n/a	n/a	n/a
372.03	0.6833	COLOR_NAME	41	Neutral	zielony	green	Neutral	Neutral	hit	n/a
372.694	n/a	RESPONSE	n/a	n/a	n/a	n/a	n/a	n/a	n/a	green
372.7133	1.0167	ITI	n/a	n/a	n/a	n/a	n/a	n/a	n/a	n/a
373.73	0.5167	FIXCROSS	n/a	n/a	n/a	n/a	n/a	n/a	n/a	n/a
374.2467	0.6	COLOR_NAME	42	Incongruent	niebieski	blue	czerwony	red	hit	n/a
374.8215	n/a	RESPONSE	n/a	n/a	n/a	n/a	n/a	n/a	n/a	blue
374.8467	1.0167	ITI	n/a	n/a	n/a	n/a	n/a	n/a	n/a	n/a
375.8634	0.5167	FIXCROSS	n/a	n/a	n/a	n/a	n/a	n/a	n/a	n/a
376.38	0.7	COLOR_NAME	43	Neutral	żółty	yellow	Neutral	Neutral	hit	n/a
377.061	n/a	RESPONSE	n/a	n/a	n/a	n/a	n/a	n/a	n/a	yellow
377.08	1.0167	ITI	n/a	n/a	n/a	n/a	n/a	n/a	n/a	n/a
378.0967	0.5167	FIXCROSS	n/a	n/a	n/a	n/a	n/a	n/a	n/a	n/a
378.6134	0.6833	COLOR_NAME	44	Neutral	niebieski	blue	Neutral	Neutral	hit	n/a
379.2684	n/a	RESPONSE	n/a	n/a	n/a	n/a	n/a	n/a	n/a	blue
379.2967	1.0167	ITI	n/a	n/a	n/a	n/a	n/a	n/a	n/a	n/a
380.3134	0.5167	FIXCROSS	n/a	n/a	n/a	n/a	n/a	n/a	n/a	n/a
380.8301	0.6333	COLOR_NAME	45	Neutral	niebieski	blue	Neutral	Neutral	hit	n/a
381.4439	n/a	RESPONSE	n/a	n/a	n/a	n/a	n/a	n/a	n/a	blue
381.4634	1.0167	ITI	n/a	n/a	n/a	n/a	n/a	n/a	n/a	n/a
382.4801	0.5167	FIXCROSS	n/a	n/a	n/a	n/a	n/a	n/a	n/a	n/a
382.9968	0.6833	COLOR_NAME	46	Incongruent	żółty	yellow	niebieski	blue	hit	n/a
383.6514	n/a	RESPONSE	n/a	n/a	n/a	n/a	n/a	n/a	n/a	yellow
383.6801	1.0167	ITI	n/a	n/a	n/a	n/a	n/a	n/a	n/a	n/a
384.6968	0.5167	FIXCROSS	n/a	n/a	n/a	n/a	n/a	n/a	n/a	n/a
385.2135	0.5167	COLOR_NAME	47	Neutral	czerwony	red	Neutral	Neutral	hit	n/a
385.6989	n/a	RESPONSE	n/a	n/a	n/a	n/a	n/a	n/a	n/a	red
385.7302	1.0167	ITI	n/a	n/a	n/a	n/a	n/a	n/a	n/a	n/a
386.7468	0.5167	FIXCROSS	n/a	n/a	n/a	n/a	n/a	n/a	n/a	n/a
387.2635	0.6167	COLOR_NAME	48	Incongruent	zielony	green	niebieski	blue	hit	n/a
387.8584	n/a	RESPONSE	n/a	n/a	n/a	n/a	n/a	n/a	n/a	green
387.8802	1.0167	ITI	n/a	n/a	n/a	n/a	n/a	n/a	n/a	n/a
388.8969	0.5167	FIXCROSS	n/a	n/a	n/a	n/a	n/a	n/a	n/a	n/a
389.4135	0.5167	COLOR_NAME	49	Neutral	zielony	green	Neutral	Neutral	hit	n/a
389.9059	n/a	RESPONSE	n/a	n/a	n/a	n/a	n/a	n/a	n/a	green
389.9302	1.0167	ITI	n/a	n/a	n/a	n/a	n/a	n/a	n/a	n/a
390.9469	0.5167	FIXCROSS	n/a	n/a	n/a	n/a	n/a	n/a	n/a	n/a
391.4636	0.6833	COLOR_NAME	50	Neutral	żółty	yellow	Neutral	Neutral	hit	n/a
392.1133	n/a	RESPONSE	n/a	n/a	n/a	n/a	n/a	n/a	n/a	yellow
392.1469	1.0167	ITI	n/a	n/a	n/a	n/a	n/a	n/a	n/a	n/a
393.1636	0.5167	FIXCROSS	n/a	n/a	n/a	n/a	n/a	n/a	n/a	n/a
393.6803	0.6167	COLOR_NAME	51	Incongruent	zielony	green	żółty	yellow	hit	n/a
394.2728	n/a	RESPONSE	n/a	n/a	n/a	n/a	n/a	n/a	n/a	green
394.2969	1.0167	ITI	n/a	n/a	n/a	n/a	n/a	n/a	n/a	n/a
395.3136	0.5167	FIXCROSS	n/a	n/a	n/a	n/a	n/a	n/a	n/a	n/a
395.8303	0.7	COLOR_NAME	52	Neutral	żółty	yellow	Neutral	Neutral	hit	n/a
396.5123	n/a	RESPONSE	n/a	n/a	n/a	n/a	n/a	n/a	n/a	yellow
396.5303	1.0167	ITI	n/a	n/a	n/a	n/a	n/a	n/a	n/a	n/a
397.547	0.5167	FIXCROSS	n/a	n/a	n/a	n/a	n/a	n/a	n/a	n/a
398.0636	0.7	COLOR_NAME	53	Neutral	niebieski	blue	Neutral	Neutral	hit	n/a
398.7357	n/a	RESPONSE	n/a	n/a	n/a	n/a	n/a	n/a	n/a	blue
398.7637	1.0167	ITI	n/a	n/a	n/a	n/a	n/a	n/a	n/a	n/a
399.7803	0.5167	FIXCROSS	n/a	n/a	n/a	n/a	n/a	n/a	n/a	n/a
400.297	0.6167	COLOR_NAME	54	Incongruent	żółty	yellow	czerwony	red	incorrect	n/a
400.8952	n/a	RESPONSE	n/a	n/a	n/a	n/a	n/a	n/a	n/a	red
400.9137	1.0167	ITI	n/a	n/a	n/a	n/a	n/a	n/a	n/a	n/a
401.0552	n/a	RESPONSE	n/a	n/a	n/a	n/a	n/a	n/a	n/a	red
401.9304	0.5167	FIXCROSS	n/a	n/a	n/a	n/a	n/a	n/a	n/a	n/a
402.447	0.7833	COLOR_NAME	55	Neutral	czerwony	red	Neutral	Neutral	hit	n/a
403.1987	n/a	RESPONSE	n/a	n/a	n/a	n/a	n/a	n/a	n/a	red
403.2304	1.0167	ITI	n/a	n/a	n/a	n/a	n/a	n/a	n/a	n/a
404.2471	0.5167	FIXCROSS	n/a	n/a	n/a	n/a	n/a	n/a	n/a	n/a
404.7637	0.5	COLOR_NAME	56	Neutral	żółty	yellow	Neutral	Neutral	hit	n/a
405.2302	n/a	RESPONSE	n/a	n/a	n/a	n/a	n/a	n/a	n/a	yellow
405.2637	1.0167	ITI	n/a	n/a	n/a	n/a	n/a	n/a	n/a	n/a
406.2804	0.5167	FIXCROSS	n/a	n/a	n/a	n/a	n/a	n/a	n/a	n/a
406.7971	0.6333	COLOR_NAME	57	Incongruent	zielony	green	niebieski	blue	hit	n/a
407.4056	n/a	RESPONSE	n/a	n/a	n/a	n/a	n/a	n/a	n/a	green
407.4304	1.0167	ITI	n/a	n/a	n/a	n/a	n/a	n/a	n/a	n/a
408.4471	0.5167	FIXCROSS	n/a	n/a	n/a	n/a	n/a	n/a	n/a	n/a
408.9638	1.2333	COLOR_NAME	58	Incongruent	czerwony	red	niebieski	blue	hit	n/a
410.173	n/a	RESPONSE	n/a	n/a	n/a	n/a	n/a	n/a	n/a	red
410.1971	1.0167	ITI	n/a	n/a	n/a	n/a	n/a	n/a	n/a	n/a
411.2138	0.5167	FIXCROSS	n/a	n/a	n/a	n/a	n/a	n/a	n/a	n/a
411.7305	0.6833	COLOR_NAME	59	Incongruent	niebieski	blue	zielony	green	hit	n/a
412.3965	n/a	RESPONSE	n/a	n/a	n/a	n/a	n/a	n/a	n/a	blue
412.4138	1.0167	ITI	n/a	n/a	n/a	n/a	n/a	n/a	n/a	n/a
413.4305	0.5167	FIXCROSS	n/a	n/a	n/a	n/a	n/a	n/a	n/a	n/a
413.9472	0.6	COLOR_NAME	60	Neutral	czerwony	red	Neutral	Neutral	hit	n/a
414.5239	n/a	RESPONSE	n/a	n/a	n/a	n/a	n/a	n/a	n/a	red
414.5472	1.0167	ITI	n/a	n/a	n/a	n/a	n/a	n/a	n/a	n/a
415.5639	0.5167	FIXCROSS	n/a	n/a	n/a	n/a	n/a	n/a	n/a	n/a
416.0806	0.6833	COLOR_NAME	61	Incongruent	czerwony	red	niebieski	blue	hit	n/a
416.7314	n/a	RESPONSE	n/a	n/a	n/a	n/a	n/a	n/a	n/a	red
416.7639	1.0167	ITI	n/a	n/a	n/a	n/a	n/a	n/a	n/a	n/a
416.9553	n/a	RESPONSE	n/a	n/a	n/a	n/a	n/a	n/a	n/a	red
417.7806	0.5167	FIXCROSS	n/a	n/a	n/a	n/a	n/a	n/a	n/a	n/a
418.2972	0.55	COLOR_NAME	62	Incongruent	żółty	yellow	zielony	green	hit	n/a
418.8269	n/a	RESPONSE	n/a	n/a	n/a	n/a	n/a	n/a	n/a	yellow
418.8473	1.0167	ITI	n/a	n/a	n/a	n/a	n/a	n/a	n/a	n/a
419.8639	0.5167	FIXCROSS	n/a	n/a	n/a	n/a	n/a	n/a	n/a	n/a
420.3806	0.7667	COLOR_NAME	63	Incongruent	zielony	green	czerwony	red	hit	n/a
421.1144	n/a	RESPONSE	n/a	n/a	n/a	n/a	n/a	n/a	n/a	green
421.1473	1.0167	ITI	n/a	n/a	n/a	n/a	n/a	n/a	n/a	n/a
422.164	0.5167	FIXCROSS	n/a	n/a	n/a	n/a	n/a	n/a	n/a	n/a
422.6806	0.5667	COLOR_NAME	64	Neutral	zielony	green	Neutral	Neutral	hit	n/a
423.2258	n/a	RESPONSE	n/a	n/a	n/a	n/a	n/a	n/a	n/a	green
423.2473	1.0167	ITI	n/a	n/a	n/a	n/a	n/a	n/a	n/a	n/a
424.264	0.5167	FIXCROSS	n/a	n/a	n/a	n/a	n/a	n/a	n/a	n/a
424.7807	0.5667	COLOR_NAME	65	Incongruent	niebieski	blue	żółty	yellow	hit	n/a
425.3213	n/a	RESPONSE	n/a	n/a	n/a	n/a	n/a	n/a	n/a	blue
425.3474	1.0167	ITI	n/a	n/a	n/a	n/a	n/a	n/a	n/a	n/a
426.364	0.5167	FIXCROSS	n/a	n/a	n/a	n/a	n/a	n/a	n/a	n/a
426.8807	0.6333	COLOR_NAME	66	Incongruent	żółty	yellow	czerwony	red	hit	n/a
427.4808	n/a	RESPONSE	n/a	n/a	n/a	n/a	n/a	n/a	n/a	yellow
427.514	1.0167	ITI	n/a	n/a	n/a	n/a	n/a	n/a	n/a	n/a
428.5307	0.5167	FIXCROSS	n/a	n/a	n/a	n/a	n/a	n/a	n/a	n/a
429.0474	0.6333	COLOR_NAME	67	Neutral	niebieski	blue	Neutral	Neutral	hit	n/a
429.6563	n/a	RESPONSE	n/a	n/a	n/a	n/a	n/a	n/a	n/a	blue
429.6807	1.0167	ITI	n/a	n/a	n/a	n/a	n/a	n/a	n/a	n/a
430.6974	0.5167	FIXCROSS	n/a	n/a	n/a	n/a	n/a	n/a	n/a	n/a
431.2141	1.5	COLOR_NAME	68	Incongruent	żółty	yellow	zielony	green	hit	n/a
432.6956	n/a	RESPONSE	n/a	n/a	n/a	n/a	n/a	n/a	n/a	yellow
432.7141	1.0167	ITI	n/a	n/a	n/a	n/a	n/a	n/a	n/a	n/a
433.7308	0.5167	FIXCROSS	n/a	n/a	n/a	n/a	n/a	n/a	n/a	n/a
434.2475	0.55	COLOR_NAME	69	Incongruent	czerwony	red	żółty	yellow	hit	n/a
434.7751	n/a	RESPONSE	n/a	n/a	n/a	n/a	n/a	n/a	n/a	red
434.7975	1.0167	ITI	n/a	n/a	n/a	n/a	n/a	n/a	n/a	n/a
435.8142	0.5167	FIXCROSS	n/a	n/a	n/a	n/a	n/a	n/a	n/a	n/a
436.3308	0.65	COLOR_NAME	70	Neutral	czerwony	red	Neutral	Neutral	hit	n/a
436.9505	n/a	RESPONSE	n/a	n/a	n/a	n/a	n/a	n/a	n/a	red
436.9808	1.0167	ITI	n/a	n/a	n/a	n/a	n/a	n/a	n/a	n/a
437.9975	0.5167	FIXCROSS	n/a	n/a	n/a	n/a	n/a	n/a	n/a	n/a
438.5142	0.5833	COLOR_NAME	71	Incongruent	żółty	yellow	niebieski	blue	hit	n/a
439.078	n/a	RESPONSE	n/a	n/a	n/a	n/a	n/a	n/a	n/a	yellow
439.0975	1.0167	ITI	n/a	n/a	n/a	n/a	n/a	n/a	n/a	n/a
440.1142	0.5167	FIXCROSS	n/a	n/a	n/a	n/a	n/a	n/a	n/a	n/a
440.6309	0.5667	COLOR_NAME	72	Neutral	niebieski	blue	Neutral	Neutral	hit	n/a
441.1735	n/a	RESPONSE	n/a	n/a	n/a	n/a	n/a	n/a	n/a	blue
441.1976	1.0333	ITI	n/a	n/a	n/a	n/a	n/a	n/a	n/a	n/a
444.9646	n/a	RESPONSE	n/a	n/a	n/a	n/a	n/a	n/a	n/a	n/a
