onset	duration	trial_type	melody_number	melody_part	key	sound	action
0.0	14.086	CUE_START	n/a	n/a	n/a	n/a	n/a
14.086	7.76	FIXCROSS	n/a	n/a	n/a	n/a	n/a
21.846	6.316	CUE_LISTEN	M3	1	n/a	n/a	n/a
28.162	7.758	FIXCROSS	n/a	n/a	n/a	n/a	n/a
35.92	6.325	CUE_PLAYBACK_BOTH_HANDS	M3	1	n/a	n/a	n/a
38.086	n/a	RESPONSE	M3	1	00	C3	press
38.107	n/a	RESPONSE	M3	1	12	C4	press
38.618	n/a	RESPONSE	M3	1	07	G3	press
38.639	n/a	RESPONSE	M3	1	14	D4	press
38.991	n/a	RESPONSE	M3	1	12	C4	release
39.002	n/a	RESPONSE	M3	1	00	C3	release
39.096	n/a	RESPONSE	M3	1	04	E3	press
39.104	n/a	RESPONSE	M3	1	16	E4	press
39.146	n/a	RESPONSE	M3	1	07	G3	release
39.187	n/a	RESPONSE	M3	1	14	D4	release
39.598	n/a	RESPONSE	M3	1	07	G3	press
39.61	n/a	RESPONSE	M3	1	16	E4	release
39.63	n/a	RESPONSE	M3	1	12	C4	press
39.733	n/a	RESPONSE	M3	1	04	E3	release
39.913	n/a	RESPONSE	M3	1	12	C4	release
39.947	n/a	RESPONSE	M3	1	07	G3	release
40.117	n/a	RESPONSE	M3	1	00	C3	press
40.138	n/a	RESPONSE	M3	1	12	C4	press
40.6	n/a	RESPONSE	M3	1	07	G3	press
40.64	n/a	RESPONSE	M3	1	14	D4	press
40.962	n/a	RESPONSE	M3	1	12	C4	release
41.074	n/a	RESPONSE	M3	1	16	E4	press
41.087	n/a	RESPONSE	M3	1	04	E3	press
41.096	n/a	RESPONSE	M3	1	00	C3	release
41.109	n/a	RESPONSE	M3	1	07	G3	release
41.129	n/a	RESPONSE	M3	1	14	D4	release
41.589	n/a	RESPONSE	M3	1	07	G3	press
41.592	n/a	RESPONSE	M3	1	16	E4	release
41.652	n/a	RESPONSE	M3	1	12	C4	press
41.663	n/a	RESPONSE	M3	1	04	E3	release
42.245	7.758	FIXCROSS	n/a	n/a	n/a	n/a	n/a
42.357	n/a	RESPONSE	M3	1	12	C4	release
42.406	n/a	RESPONSE	M3	1	07	G3	release
50.003	6.317	CUE_LISTEN	M3	2	n/a	n/a	n/a
56.32	7.758	FIXCROSS	n/a	n/a	n/a	n/a	n/a
64.078	6.325	CUE_PLAYBACK_BOTH_HANDS	M3	2	n/a	n/a	n/a
65.273	n/a	RESPONSE	M3	2	00	C3	press
65.304	n/a	RESPONSE	M3	2	16	E4	press
65.752	n/a	RESPONSE	M3	2	07	G3	press
65.773	n/a	RESPONSE	M3	2	17	F4	press
65.863	n/a	RESPONSE	M3	2	16	E4	release
66.173	n/a	RESPONSE	M3	2	00	C3	release
66.192	n/a	RESPONSE	M3	2	04	E3	press
66.216	n/a	RESPONSE	M3	2	19	G4	press
66.294	n/a	RESPONSE	M3	2	07	G3	release
66.356	n/a	RESPONSE	M3	2	17	F4	release
66.677	n/a	RESPONSE	M3	2	07	G3	press
66.76	n/a	RESPONSE	M3	2	04	E3	release
67.049	n/a	RESPONSE	M3	2	07	G3	release
67.19	n/a	RESPONSE	M3	2	00	C3	press
67.272	n/a	RESPONSE	M3	2	16	E4	press
67.333	n/a	RESPONSE	M3	2	19	G4	release
67.714	n/a	RESPONSE	M3	2	07	G3	press
67.758	n/a	RESPONSE	M3	2	17	F4	press
68.037	n/a	RESPONSE	M3	2	16	E4	release
68.158	n/a	RESPONSE	M3	2	19	G4	press
68.16	n/a	RESPONSE	M3	2	04	E3	press
68.21	n/a	RESPONSE	M3	2	00	C3	release
68.213	n/a	RESPONSE	M3	2	07	G3	release
68.313	n/a	RESPONSE	M3	2	17	F4	release
68.636	n/a	RESPONSE	M3	2	07	G3	press
68.766	n/a	RESPONSE	M3	2	04	E3	release
69.267	n/a	RESPONSE	M3	2	19	G4	release
70.403	7.758	FIXCROSS	n/a	n/a	n/a	n/a	n/a
72.09	n/a	RESPONSE	M3	2	07	G3	release
78.162	6.308	CUE_LISTEN	M3	1	n/a	n/a	n/a
84.47	7.758	FIXCROSS	n/a	n/a	n/a	n/a	n/a
92.228	6.325	CUE_PLAYBACK_BOTH_HANDS	M3	1	n/a	n/a	n/a
93.677	n/a	RESPONSE	M3	1	00	C3	press
93.726	n/a	RESPONSE	M3	1	19	G4	press
93.82	n/a	RESPONSE	M3	1	21	A4	press
94.103	n/a	RESPONSE	M3	1	19	G4	release
94.251	n/a	RESPONSE	M3	1	21	A4	release
94.263	n/a	RESPONSE	M3	1	00	C3	release
94.504	n/a	RESPONSE	M3	1	00	C3	press
94.528	n/a	RESPONSE	M3	1	19	G4	press
94.802	n/a	RESPONSE	M3	1	21	A4	press
94.89	n/a	RESPONSE	M3	1	07	G3	press
94.933	n/a	RESPONSE	M3	1	19	G4	release
95.129	n/a	RESPONSE	M3	1	19	G4	press
95.236	n/a	RESPONSE	M3	1	04	E3	press
95.352	n/a	RESPONSE	M3	1	07	G3	release
95.451	n/a	RESPONSE	M3	1	17	F4	press
95.459	n/a	RESPONSE	M3	1	00	C3	release
95.512	n/a	RESPONSE	M3	1	21	A4	release
95.618	n/a	RESPONSE	M3	1	19	G4	release
95.816	n/a	RESPONSE	M3	1	07	G3	press
95.84	n/a	RESPONSE	M3	1	15	D#4	press
95.852	n/a	RESPONSE	M3	1	16	E4	press
95.882	n/a	RESPONSE	M3	1	14	D4	press
95.906	n/a	RESPONSE	M3	1	15	D#4	release
95.934	n/a	RESPONSE	M3	1	17	F4	release
96.156	n/a	RESPONSE	M3	1	04	E3	release
96.667	n/a	RESPONSE	M3	1	14	D4	release
97.828	n/a	RESPONSE	M3	1	16	E4	release
97.909	n/a	RESPONSE	M3	1	12	C4	press
98.553	7.758	FIXCROSS	n/a	n/a	n/a	n/a	n/a
98.94	n/a	RESPONSE	M3	1	07	G3	release
98.962	n/a	RESPONSE	M3	1	12	C4	release
106.312	6.317	CUE_LISTEN	M3	2	n/a	n/a	n/a
112.628	7.758	FIXCROSS	n/a	n/a	n/a	n/a	n/a
120.387	6.325	CUE_PLAYBACK_BOTH_HANDS	M3	2	n/a	n/a	n/a
121.82	n/a	RESPONSE	M3	2	00	C3	press
121.882	n/a	RESPONSE	M3	2	12	C4	press
122.413	n/a	RESPONSE	M3	2	07	G3	press
123.083	n/a	RESPONSE	M3	2	07	G3	release
123.1	n/a	RESPONSE	M3	2	12	C4	release
123.639	n/a	RESPONSE	M3	2	12	C4	press
124.099	n/a	RESPONSE	M3	2	00	C3	release
124.298	n/a	RESPONSE	M3	2	12	C4	release
124.757	n/a	RESPONSE	M3	2	00	C3	press
124.782	n/a	RESPONSE	M3	2	12	C4	press
125.28	n/a	RESPONSE	M3	2	07	G3	press
125.693	n/a	RESPONSE	M3	2	12	C4	release
125.787	n/a	RESPONSE	M3	2	07	G3	release
125.833	n/a	RESPONSE	M3	2	00	C3	release
125.857	n/a	RESPONSE	M3	2	12	C4	press
126.712	7.758	FIXCROSS	n/a	n/a	n/a	n/a	n/a
126.781	n/a	RESPONSE	M3	2	12	C4	release
134.47	6.317	CUE_LISTEN	M1	1	n/a	n/a	n/a
140.787	7.758	FIXCROSS	n/a	n/a	n/a	n/a	n/a
148.545	6.317	CUE_PLAYBACK_BOTH_HANDS	M1	1	n/a	n/a	n/a
150.487	n/a	RESPONSE	M1	1	07	G3	press
150.517	n/a	RESPONSE	M1	1	00	C3	press
150.519	n/a	RESPONSE	M1	1	04	E3	press
150.53	n/a	RESPONSE	M1	1	19	G4	press
151.029	n/a	RESPONSE	M1	1	16	E4	press
151.113	n/a	RESPONSE	M1	1	19	G4	release
151.362	n/a	RESPONSE	M1	1	16	E4	release
151.553	n/a	RESPONSE	M1	1	16	E4	press
151.926	n/a	RESPONSE	M1	1	04	E3	release
151.986	n/a	RESPONSE	M1	1	16	E4	release
152.037	n/a	RESPONSE	M1	1	00	C3	release
152.188	n/a	RESPONSE	M1	1	02	D3	press
152.199	n/a	RESPONSE	M1	1	17	F4	press
152.202	n/a	RESPONSE	M1	1	05	F3	press
152.719	n/a	RESPONSE	M1	1	14	D4	press
152.737	n/a	RESPONSE	M1	1	17	F4	release
153.009	n/a	RESPONSE	M1	1	14	D4	release
153.226	n/a	RESPONSE	M1	1	14	D4	press
153.677	n/a	RESPONSE	M1	1	02	D3	release
153.694	n/a	RESPONSE	M1	1	14	D4	release
153.712	n/a	RESPONSE	M1	1	05	F3	release
154.094	n/a	RESPONSE	M1	1	04	E3	press
154.144	n/a	RESPONSE	M1	1	00	C3	press
154.173	n/a	RESPONSE	M1	1	12	C4	press
154.862	7.758	FIXCROSS	n/a	n/a	n/a	n/a	n/a
155.202	n/a	RESPONSE	M1	1	16	E4	press
155.259	n/a	RESPONSE	M1	1	12	C4	release
155.7	n/a	RESPONSE	M1	1	19	G4	press
155.754	n/a	RESPONSE	M1	1	16	E4	release
156.783	n/a	RESPONSE	M1	1	04	E3	release
156.816	n/a	RESPONSE	M1	1	19	G4	release
156.866	n/a	RESPONSE	M1	1	00	C3	release
157.217	n/a	RESPONSE	M1	1	07	G3	release
162.62	6.325	CUE_LISTEN	M1	2	n/a	n/a	n/a
168.945	7.758	FIXCROSS	n/a	n/a	n/a	n/a	n/a
176.704	6.317	CUE_PLAYBACK_BOTH_HANDS	M1	2	n/a	n/a	n/a
177.448	n/a	RESPONSE	M1	2	04	E3	press
177.45	n/a	RESPONSE	M1	2	07	G3	press
177.47	n/a	RESPONSE	M1	2	19	G4	press
177.794	n/a	RESPONSE	M1	2	00	C3	press
178.273	n/a	RESPONSE	M1	2	16	E4	press
178.324	n/a	RESPONSE	M1	2	19	G4	release
178.616	n/a	RESPONSE	M1	2	16	E4	release
178.797	n/a	RESPONSE	M1	2	16	E4	press
179.248	n/a	RESPONSE	M1	2	16	E4	release
179.289	n/a	RESPONSE	M1	2	00	C3	release
179.292	n/a	RESPONSE	M1	2	04	E3	release
179.453	n/a	RESPONSE	M1	2	02	D3	press
179.463	n/a	RESPONSE	M1	2	17	F4	press
179.474	n/a	RESPONSE	M1	2	05	F3	press
180.037	n/a	RESPONSE	M1	2	17	F4	release
180.068	n/a	RESPONSE	M1	2	14	D4	press
180.379	n/a	RESPONSE	M1	2	14	D4	release
180.602	n/a	RESPONSE	M1	2	14	D4	press
181.012	n/a	RESPONSE	M1	2	02	D3	release
181.043	n/a	RESPONSE	M1	2	05	F3	release
181.057	n/a	RESPONSE	M1	2	14	D4	release
181.367	n/a	RESPONSE	M1	2	04	E3	press
181.397	n/a	RESPONSE	M1	2	00	C3	press
181.498	n/a	RESPONSE	M1	2	12	C4	press
182.189	n/a	RESPONSE	M1	2	12	C4	release
182.192	n/a	RESPONSE	M1	2	16	E4	press
182.78	n/a	RESPONSE	M1	2	12	C4	press
182.783	n/a	RESPONSE	M1	2	16	E4	release
183.02	7.758	FIXCROSS	n/a	n/a	n/a	n/a	n/a
183.783	n/a	RESPONSE	M1	2	00	C3	release
183.789	n/a	RESPONSE	M1	2	12	C4	release
184.094	n/a	RESPONSE	M1	2	07	G3	release
190.778	6.317	CUE_LISTEN	M2	1	n/a	n/a	n/a
194.552	n/a	RESPONSE	M2	1	04	E3	release
197.095	7.758	FIXCROSS	n/a	n/a	n/a	n/a	n/a
200.28	n/a	RESPONSE	M2	1	24	C5	press
204.804	n/a	RESPONSE	M2	1	24	C5	release
204.854	6.325	CUE_PLAYBACK_BOTH_HANDS	M2	1	n/a	n/a	n/a
206.049	n/a	RESPONSE	M2	1	00	C3	press
206.063	n/a	RESPONSE	M2	1	07	G3	press
206.073	n/a	RESPONSE	M2	1	24	C5	press
206.584	n/a	RESPONSE	M2	1	19	G4	press
206.664	n/a	RESPONSE	M2	1	24	C5	release
206.867	n/a	RESPONSE	M2	1	19	G4	release
207.069	n/a	RESPONSE	M2	1	19	G4	press
207.73	n/a	RESPONSE	M2	1	17	F4	press
207.919	n/a	RESPONSE	M2	1	19	G4	release
208.23	n/a	RESPONSE	M2	1	00	C3	release
208.382	n/a	RESPONSE	M2	1	07	G3	release
208.443	n/a	RESPONSE	M2	1	16	E4	press
208.454	n/a	RESPONSE	M2	1	00	C3	press
208.466	n/a	RESPONSE	M2	1	07	G3	press
208.547	n/a	RESPONSE	M2	1	17	F4	release
208.968	n/a	RESPONSE	M2	1	17	F4	press
209.159	n/a	RESPONSE	M2	1	16	E4	release
209.34	n/a	RESPONSE	M2	1	00	C3	release
209.442	n/a	RESPONSE	M2	1	17	F4	release
209.503	n/a	RESPONSE	M2	1	19	G4	press
209.506	n/a	RESPONSE	M2	1	00	C3	press
211.178	7.758	FIXCROSS	n/a	n/a	n/a	n/a	n/a
211.688	n/a	RESPONSE	M2	1	19	G4	release
211.889	n/a	RESPONSE	M2	1	00	C3	release
212.33	n/a	RESPONSE	M2	1	07	G3	release
218.937	6.317	CUE_LISTEN	M2	2	n/a	n/a	n/a
225.254	7.758	FIXCROSS	n/a	n/a	n/a	n/a	n/a
233.012	6.317	CUE_PLAYBACK_BOTH_HANDS	M2	2	n/a	n/a	n/a
234.284	n/a	RESPONSE	M2	2	00	C3	press
234.287	n/a	RESPONSE	M2	2	07	G3	press
234.289	n/a	RESPONSE	M2	2	24	C5	press
234.774	n/a	RESPONSE	M2	2	19	G4	press
234.876	n/a	RESPONSE	M2	2	24	C5	release
235.026	n/a	RESPONSE	M2	2	19	G4	release
235.044	n/a	RESPONSE	M2	2	07	G3	release
235.049	n/a	RESPONSE	M2	2	00	C3	release
235.237	n/a	RESPONSE	M2	2	00	C3	press
235.239	n/a	RESPONSE	M2	2	19	G4	press
235.248	n/a	RESPONSE	M2	2	07	G3	press
235.637	n/a	RESPONSE	M2	2	17	F4	press
235.862	n/a	RESPONSE	M2	2	19	G4	release
235.958	n/a	RESPONSE	M2	2	00	C3	release
236.007	n/a	RESPONSE	M2	2	07	G3	release
236.172	n/a	RESPONSE	M2	2	17	F4	release
236.174	n/a	RESPONSE	M2	2	16	E4	press
236.184	n/a	RESPONSE	M2	2	07	G3	press
236.197	n/a	RESPONSE	M2	2	00	C3	press
236.687	n/a	RESPONSE	M2	2	14	D4	press
236.85	n/a	RESPONSE	M2	2	16	E4	release
236.929	n/a	RESPONSE	M2	2	00	C3	release
236.971	n/a	RESPONSE	M2	2	07	G3	release
237.172	n/a	RESPONSE	M2	2	07	G3	press
237.183	n/a	RESPONSE	M2	2	00	C3	press
237.194	n/a	RESPONSE	M2	2	12	C4	press
239.038	n/a	RESPONSE	M2	2	00	C3	release
239.297	n/a	RESPONSE	M2	2	14	D4	release
239.318	n/a	RESPONSE	M2	2	12	C4	release
239.328	7.758	FIXCROSS	n/a	n/a	n/a	n/a	n/a
239.519	n/a	RESPONSE	M2	2	07	G3	release
247.087	6.325	CUE_LISTEN	M2	1	n/a	n/a	n/a
253.412	7.758	FIXCROSS	n/a	n/a	n/a	n/a	n/a
261.17	6.317	CUE_PLAYBACK_BOTH_HANDS	M2	1	n/a	n/a	n/a
261.984	n/a	RESPONSE	M2	1	00	C3	press
261.994	n/a	RESPONSE	M2	1	07	G3	press
262.005	n/a	RESPONSE	M2	1	12	C4	press
262.534	n/a	RESPONSE	M2	1	14	D4	press
262.679	n/a	RESPONSE	M2	1	12	C4	release
262.891	n/a	RESPONSE	M2	1	00	C3	release
262.902	n/a	RESPONSE	M2	1	14	D4	release
262.908	n/a	RESPONSE	M2	1	07	G3	release
263.034	n/a	RESPONSE	M2	1	00	C3	press
263.044	n/a	RESPONSE	M2	1	07	G3	press
263.06	n/a	RESPONSE	M2	1	16	E4	press
263.579	n/a	RESPONSE	M2	1	14	D4	press
263.638	n/a	RESPONSE	M2	1	16	E4	release
263.808	n/a	RESPONSE	M2	1	00	C3	release
263.842	n/a	RESPONSE	M2	1	14	D4	release
264.03	n/a	RESPONSE	M2	1	00	C3	press
264.063	n/a	RESPONSE	M2	1	16	E4	press
264.514	n/a	RESPONSE	M2	1	17	F4	press
264.657	n/a	RESPONSE	M2	1	16	E4	release
264.766	n/a	RESPONSE	M2	1	00	C3	release
264.776	n/a	RESPONSE	M2	1	07	G3	release
264.837	n/a	RESPONSE	M2	1	17	F4	release
265.004	n/a	RESPONSE	M2	1	00	C3	press
265.007	n/a	RESPONSE	M2	1	19	G4	press
265.009	n/a	RESPONSE	M2	1	07	G3	press
266.329	n/a	RESPONSE	M2	1	19	G4	release
266.44	n/a	RESPONSE	M2	1	00	C3	release
267.487	7.758	FIXCROSS	n/a	n/a	n/a	n/a	n/a
275.245	6.325	CUE_LISTEN	M2	2	n/a	n/a	n/a
281.57	7.758	FIXCROSS	n/a	n/a	n/a	n/a	n/a
289.329	6.317	CUE_PLAYBACK_BOTH_HANDS	M2	2	n/a	n/a	n/a
289.682	n/a	RESPONSE	M2	2	07	G3	release
290.414	n/a	RESPONSE	M2	2	00	C3	press
290.417	n/a	RESPONSE	M2	2	07	G3	press
290.447	n/a	RESPONSE	M2	2	16	E4	press
290.488	n/a	RESPONSE	M2	2	14	D4	press
290.989	n/a	RESPONSE	M2	2	14	D4	release
291.133	n/a	RESPONSE	M2	2	00	C3	release
291.163	n/a	RESPONSE	M2	2	16	E4	release
291.223	n/a	RESPONSE	M2	2	07	G3	release
291.834	n/a	RESPONSE	M2	2	00	C3	press
291.846	n/a	RESPONSE	M2	2	07	G3	press
291.857	n/a	RESPONSE	M2	2	16	E4	press
292.389	n/a	RESPONSE	M2	2	19	G4	press
292.432	n/a	RESPONSE	M2	2	16	E4	release
292.519	n/a	RESPONSE	M2	2	07	G3	release
292.572	n/a	RESPONSE	M2	2	00	C3	release
292.639	n/a	RESPONSE	M2	2	19	G4	release
292.868	n/a	RESPONSE	M2	2	00	C3	press
292.872	n/a	RESPONSE	M2	2	19	G4	press
292.877	n/a	RESPONSE	M2	2	07	G3	press
293.374	n/a	RESPONSE	M2	2	17	F4	press
293.603	n/a	RESPONSE	M2	2	19	G4	release
293.694	n/a	RESPONSE	M2	2	00	C3	release
293.7	n/a	RESPONSE	M2	2	07	G3	release
293.759	n/a	RESPONSE	M2	2	17	F4	release
293.883	n/a	RESPONSE	M2	2	00	C3	press
293.893	n/a	RESPONSE	M2	2	07	G3	press
293.906	n/a	RESPONSE	M2	2	16	E4	press
293.943	n/a	RESPONSE	M2	2	14	D4	press
294.354	n/a	RESPONSE	M2	2	14	D4	release
294.444	n/a	RESPONSE	M2	2	14	D4	press
294.629	n/a	RESPONSE	M2	2	16	E4	release
294.764	n/a	RESPONSE	M2	2	00	C3	release
294.919	n/a	RESPONSE	M2	2	07	G3	release
294.934	n/a	RESPONSE	M2	2	14	D4	release
294.98	n/a	RESPONSE	M2	2	12	C4	press
295.006	n/a	RESPONSE	M2	2	07	G3	press
295.02	n/a	RESPONSE	M2	2	00	C3	press
295.645	7.758	FIXCROSS	n/a	n/a	n/a	n/a	n/a
296.213	n/a	RESPONSE	M2	2	00	C3	release
296.384	n/a	RESPONSE	M2	2	12	C4	release
303.404	6.317	CUE_LISTEN	M3	1	n/a	n/a	n/a
309.72	7.758	FIXCROSS	n/a	n/a	n/a	n/a	n/a
315.922	n/a	RESPONSE	M3	1	07	G3	release
317.479	6.325	CUE_PLAYBACK_RIGHT_HAND	M3	1	n/a	n/a	n/a
318.437	n/a	RESPONSE	M3	1	12	C4	press
318.898	n/a	RESPONSE	M3	1	14	D4	press
319.049	n/a	RESPONSE	M3	1	12	C4	release
319.35	n/a	RESPONSE	M3	1	16	E4	press
319.412	n/a	RESPONSE	M3	1	14	D4	release
319.903	n/a	RESPONSE	M3	1	16	E4	release
319.907	n/a	RESPONSE	M3	1	12	C4	press
320.199	n/a	RESPONSE	M3	1	12	C4	release
320.388	n/a	RESPONSE	M3	1	12	C4	press
320.902	n/a	RESPONSE	M3	1	14	D4	press
320.96	n/a	RESPONSE	M3	1	12	C4	release
321.292	n/a	RESPONSE	M3	1	16	E4	press
321.414	n/a	RESPONSE	M3	1	14	D4	release
321.884	n/a	RESPONSE	M3	1	12	C4	press
321.958	n/a	RESPONSE	M3	1	16	E4	release
322.634	n/a	RESPONSE	M3	1	12	C4	release
323.804	7.758	FIXCROSS	n/a	n/a	n/a	n/a	n/a
331.562	6.317	CUE_LISTEN	M3	2	n/a	n/a	n/a
337.879	7.758	FIXCROSS	n/a	n/a	n/a	n/a	n/a
345.637	6.325	CUE_PLAYBACK_RIGHT_HAND	M3	2	n/a	n/a	n/a
346.488	n/a	RESPONSE	M3	2	16	E4	press
346.948	n/a	RESPONSE	M3	2	17	F4	press
347.072	n/a	RESPONSE	M3	2	16	E4	release
347.411	n/a	RESPONSE	M3	2	19	G4	press
347.472	n/a	RESPONSE	M3	2	17	F4	release
348.314	n/a	RESPONSE	M3	2	19	G4	release
348.344	n/a	RESPONSE	M3	2	16	E4	press
348.826	n/a	RESPONSE	M3	2	17	F4	press
348.927	n/a	RESPONSE	M3	2	16	E4	release
349.288	n/a	RESPONSE	M3	2	19	G4	press
349.389	n/a	RESPONSE	M3	2	17	F4	release
350.524	n/a	RESPONSE	M3	2	19	G4	release
351.962	7.758	FIXCROSS	n/a	n/a	n/a	n/a	n/a
359.72	6.317	CUE_LISTEN	M3	1	n/a	n/a	n/a
366.037	7.758	FIXCROSS	n/a	n/a	n/a	n/a	n/a
373.796	6.317	CUE_PLAYBACK_RIGHT_HAND	M3	1	n/a	n/a	n/a
374.592	n/a	RESPONSE	M3	1	19	G4	press
374.633	n/a	RESPONSE	M3	1	17	F4	press
374.767	n/a	RESPONSE	M3	1	17	F4	release
374.983	n/a	RESPONSE	M3	1	19	G4	release
375.463	n/a	RESPONSE	M3	1	19	G4	press
375.684	n/a	RESPONSE	M3	1	21	A4	press
375.812	n/a	RESPONSE	M3	1	19	G4	release
375.938	n/a	RESPONSE	M3	1	19	G4	press
376.173	n/a	RESPONSE	M3	1	21	A4	release
376.184	n/a	RESPONSE	M3	1	17	F4	press
376.456	n/a	RESPONSE	M3	1	16	E4	press
376.467	n/a	RESPONSE	M3	1	19	G4	release
376.728	n/a	RESPONSE	M3	1	17	F4	release
377.239	n/a	RESPONSE	M3	1	12	C4	press
377.31	n/a	RESPONSE	M3	1	16	E4	release
378.012	n/a	RESPONSE	M3	1	12	C4	release
379.213	n/a	RESPONSE	M3	1	17	F4	press
379.654	n/a	RESPONSE	M3	1	17	F4	release
379.896	n/a	RESPONSE	M3	1	17	F4	press
380.112	7.758	FIXCROSS	n/a	n/a	n/a	n/a	n/a
380.149	n/a	RESPONSE	M3	1	19	G4	press
380.249	n/a	RESPONSE	M3	1	17	F4	release
380.38	n/a	RESPONSE	M3	1	21	A4	press
380.684	n/a	RESPONSE	M3	1	19	G4	release
380.783	n/a	RESPONSE	M3	1	21	A4	release
387.87	6.317	CUE_LISTEN	M3	2	n/a	n/a	n/a
394.187	7.758	FIXCROSS	n/a	n/a	n/a	n/a	n/a
401.946	6.325	CUE_PLAYBACK_RIGHT_HAND	M3	2	n/a	n/a	n/a
404.088	n/a	RESPONSE	M3	2	12	C4	press
404.874	n/a	RESPONSE	M3	2	12	C4	release
405.46	n/a	RESPONSE	M3	2	07	G3	press
405.786	n/a	RESPONSE	M3	2	07	G3	release
406.477	n/a	RESPONSE	M3	2	12	C4	press
406.938	n/a	RESPONSE	M3	2	12	C4	release
407.129	n/a	RESPONSE	M3	2	12	C4	press
408.27	7.758	FIXCROSS	n/a	n/a	n/a	n/a	n/a
408.541	n/a	RESPONSE	M3	2	12	C4	release
412.529	n/a	RESPONSE	M3	2	14	D4	press
414.327	n/a	RESPONSE	M3	2	14	D4	release
416.029	6.317	CUE_LISTEN	M1	1	n/a	n/a	n/a
422.346	7.758	FIXCROSS	n/a	n/a	n/a	n/a	n/a
430.104	6.317	CUE_PLAYBACK_RIGHT_HAND	M1	1	n/a	n/a	n/a
431.764	n/a	RESPONSE	M1	1	19	G4	press
432.316	n/a	RESPONSE	M1	1	19	G4	release
432.318	n/a	RESPONSE	M1	1	16	E4	press
432.604	n/a	RESPONSE	M1	1	16	E4	release
432.814	n/a	RESPONSE	M1	1	16	E4	press
433.224	n/a	RESPONSE	M1	1	16	E4	release
433.312	n/a	RESPONSE	M1	1	17	F4	press
433.829	n/a	RESPONSE	M1	1	17	F4	release
433.837	n/a	RESPONSE	M1	1	14	D4	press
434.176	n/a	RESPONSE	M1	1	14	D4	release
434.357	n/a	RESPONSE	M1	1	14	D4	press
434.758	n/a	RESPONSE	M1	1	14	D4	release
434.894	n/a	RESPONSE	M1	1	12	C4	press
435.122	n/a	RESPONSE	M1	1	16	E4	press
435.202	n/a	RESPONSE	M1	1	12	C4	release
435.456	n/a	RESPONSE	M1	1	19	G4	press
435.7	n/a	RESPONSE	M1	1	16	E4	release
436.421	7.758	FIXCROSS	n/a	n/a	n/a	n/a	n/a
436.45	n/a	RESPONSE	M1	1	19	G4	release
444.179	6.325	CUE_LISTEN	M1	2	n/a	n/a	n/a
450.504	7.758	FIXCROSS	n/a	n/a	n/a	n/a	n/a
458.262	6.317	CUE_PLAYBACK_RIGHT_HAND	M1	2	n/a	n/a	n/a
458.967	n/a	RESPONSE	M1	2	19	G4	press
459.496	n/a	RESPONSE	M1	2	19	G4	release
459.567	n/a	RESPONSE	M1	2	16	E4	press
459.878	n/a	RESPONSE	M1	2	16	E4	release
460.013	n/a	RESPONSE	M1	2	16	E4	press
460.502	n/a	RESPONSE	M1	2	16	E4	release
460.596	n/a	RESPONSE	M1	2	17	F4	press
461.184	n/a	RESPONSE	M1	2	17	F4	release
461.237	n/a	RESPONSE	M1	2	14	D4	press
461.507	n/a	RESPONSE	M1	2	14	D4	release
461.698	n/a	RESPONSE	M1	2	14	D4	press
462.339	n/a	RESPONSE	M1	2	14	D4	release
462.37	n/a	RESPONSE	M1	2	12	C4	press
462.717	n/a	RESPONSE	M1	2	16	E4	press
462.786	n/a	RESPONSE	M1	2	12	C4	release
463.088	n/a	RESPONSE	M1	2	12	C4	press
463.149	n/a	RESPONSE	M1	2	16	E4	release
463.959	n/a	RESPONSE	M1	2	12	C4	release
464.579	7.758	FIXCROSS	n/a	n/a	n/a	n/a	n/a
472.337	6.317	CUE_LISTEN	M2	1	n/a	n/a	n/a
478.479	n/a	RESPONSE	M2	1	24	C5	press
478.654	7.758	FIXCROSS	n/a	n/a	n/a	n/a	n/a
486.412	6.325	CUE_PLAYBACK_BOTH_HANDS	M2	1	n/a	n/a	n/a
487.248	n/a	RESPONSE	M2	1	24	C5	release
487.569	n/a	RESPONSE	M2	1	00	C3	press
487.572	n/a	RESPONSE	M2	1	24	C5	press
487.593	n/a	RESPONSE	M2	1	07	G3	press
488.063	n/a	RESPONSE	M2	1	24	C5	release
488.134	n/a	RESPONSE	M2	1	19	G4	press
488.296	n/a	RESPONSE	M2	1	00	C3	release
488.377	n/a	RESPONSE	M2	1	19	G4	release
488.568	n/a	RESPONSE	M2	1	00	C3	press
488.579	n/a	RESPONSE	M2	1	19	G4	press
489.03	n/a	RESPONSE	M2	1	17	F4	press
489.193	n/a	RESPONSE	M2	1	19	G4	release
489.253	n/a	RESPONSE	M2	1	00	C3	release
489.544	n/a	RESPONSE	M2	1	16	E4	press
489.606	n/a	RESPONSE	M2	1	17	F4	release
490.148	n/a	RESPONSE	M2	1	00	C3	press
490.589	n/a	RESPONSE	M2	1	17	F4	press
490.752	n/a	RESPONSE	M2	1	16	E4	release
491.002	n/a	RESPONSE	M2	1	00	C3	release
491.143	n/a	RESPONSE	M2	1	17	F4	release
491.244	n/a	RESPONSE	M2	1	00	C3	press
491.258	n/a	RESPONSE	M2	1	19	G4	press
492.548	n/a	RESPONSE	M2	1	19	G4	release
492.737	7.758	FIXCROSS	n/a	n/a	n/a	n/a	n/a
493.798	n/a	RESPONSE	M2	1	00	C3	release
500.496	6.317	CUE_LISTEN	M2	2	n/a	n/a	n/a
506.812	7.758	FIXCROSS	n/a	n/a	n/a	n/a	n/a
514.571	6.325	CUE_PLAYBACK_BOTH_HANDS	M2	2	n/a	n/a	n/a
515.478	n/a	RESPONSE	M2	2	07	G3	release
515.893	n/a	RESPONSE	M2	2	00	C3	press
515.898	n/a	RESPONSE	M2	2	24	C5	press
515.9	n/a	RESPONSE	M2	2	07	G3	press
516.356	n/a	RESPONSE	M2	2	19	G4	press
516.444	n/a	RESPONSE	M2	2	24	C5	release
516.658	n/a	RESPONSE	M2	2	19	G4	release
516.718	n/a	RESPONSE	M2	2	00	C3	release
516.759	n/a	RESPONSE	M2	2	07	G3	release
516.889	n/a	RESPONSE	M2	2	00	C3	press
516.91	n/a	RESPONSE	M2	2	07	G3	press
516.914	n/a	RESPONSE	M2	2	19	G4	press
517.413	n/a	RESPONSE	M2	2	17	F4	press
517.624	n/a	RESPONSE	M2	2	19	G4	release
517.726	n/a	RESPONSE	M2	2	00	C3	release
517.768	n/a	RESPONSE	M2	2	07	G3	release
517.938	n/a	RESPONSE	M2	2	17	F4	release
517.941	n/a	RESPONSE	M2	2	16	E4	press
517.963	n/a	RESPONSE	M2	2	00	C3	press
517.972	n/a	RESPONSE	M2	2	07	G3	press
518.513	n/a	RESPONSE	M2	2	14	D4	press
518.654	n/a	RESPONSE	M2	2	16	E4	release
518.786	n/a	RESPONSE	M2	2	00	C3	release
518.837	n/a	RESPONSE	M2	2	07	G3	release
519.088	n/a	RESPONSE	M2	2	07	G3	press
519.092	n/a	RESPONSE	M2	2	14	D4	release
519.1	n/a	RESPONSE	M2	2	12	C4	press
519.122	n/a	RESPONSE	M2	2	00	C3	press
520.896	7.758	FIXCROSS	n/a	n/a	n/a	n/a	n/a
521.014	n/a	RESPONSE	M2	2	12	C4	release
521.516	n/a	RESPONSE	M2	2	07	G3	release
521.518	n/a	RESPONSE	M2	2	00	C3	release
528.654	6.317	CUE_LISTEN	M2	1	n/a	n/a	n/a
534.971	7.758	FIXCROSS	n/a	n/a	n/a	n/a	n/a
542.729	6.317	CUE_PLAYBACK_BOTH_HANDS	M2	1	n/a	n/a	n/a
543.778	n/a	RESPONSE	M2	1	00	C3	press
543.794	n/a	RESPONSE	M2	1	07	G3	press
543.818	n/a	RESPONSE	M2	1	12	C4	press
544.353	n/a	RESPONSE	M2	1	14	D4	press
544.486	n/a	RESPONSE	M2	1	12	C4	release
544.702	n/a	RESPONSE	M2	1	00	C3	release
544.726	n/a	RESPONSE	M2	1	14	D4	release
544.728	n/a	RESPONSE	M2	1	07	G3	release
544.863	n/a	RESPONSE	M2	1	00	C3	press
544.89	n/a	RESPONSE	M2	1	07	G3	press
544.9	n/a	RESPONSE	M2	1	16	E4	press
545.428	n/a	RESPONSE	M2	1	14	D4	press
545.492	n/a	RESPONSE	M2	1	16	E4	release
545.672	n/a	RESPONSE	M2	1	14	D4	release
545.69	n/a	RESPONSE	M2	1	00	C3	release
545.726	n/a	RESPONSE	M2	1	07	G3	release
545.887	n/a	RESPONSE	M2	1	00	C3	press
545.893	n/a	RESPONSE	M2	1	07	G3	press
545.922	n/a	RESPONSE	M2	1	16	E4	press
546.436	n/a	RESPONSE	M2	1	17	F4	press
546.557	n/a	RESPONSE	M2	1	16	E4	release
546.669	n/a	RESPONSE	M2	1	07	G3	release
546.679	n/a	RESPONSE	M2	1	00	C3	release
546.71	n/a	RESPONSE	M2	1	17	F4	release
546.892	n/a	RESPONSE	M2	1	00	C3	press
546.903	n/a	RESPONSE	M2	1	19	G4	press
546.924	n/a	RESPONSE	M2	1	07	G3	press
547.988	n/a	RESPONSE	M2	1	19	G4	release
547.997	n/a	RESPONSE	M2	1	00	C3	release
549.046	7.758	FIXCROSS	n/a	n/a	n/a	n/a	n/a
556.804	6.325	CUE_LISTEN	M2	2	n/a	n/a	n/a
563.129	7.759	FIXCROSS	n/a	n/a	n/a	n/a	n/a
563.779	n/a	RESPONSE	M2	2	07	G3	release
570.888	6.317	CUE_PLAYBACK_BOTH_HANDS	M2	2	n/a	n/a	n/a
572.469	n/a	RESPONSE	M2	2	00	C3	press
572.483	n/a	RESPONSE	M2	2	07	G3	press
572.504	n/a	RESPONSE	M2	2	16	E4	press
573.119	n/a	RESPONSE	M2	2	19	G4	press
573.224	n/a	RESPONSE	M2	2	16	E4	release
573.324	n/a	RESPONSE	M2	2	07	G3	release
573.327	n/a	RESPONSE	M2	2	00	C3	release
573.359	n/a	RESPONSE	M2	2	19	G4	release
573.553	n/a	RESPONSE	M2	2	00	C3	press
573.584	n/a	RESPONSE	M2	2	19	G4	press
573.589	n/a	RESPONSE	M2	2	07	G3	press
574.064	n/a	RESPONSE	M2	2	17	F4	press
574.318	n/a	RESPONSE	M2	2	19	G4	release
574.44	n/a	RESPONSE	M2	2	07	G3	release
574.467	n/a	RESPONSE	M2	2	00	C3	release
574.507	n/a	RESPONSE	M2	2	17	F4	release
574.578	n/a	RESPONSE	M2	2	00	C3	press
574.598	n/a	RESPONSE	M2	2	07	G3	press
574.606	n/a	RESPONSE	M2	2	16	E4	press
575.169	n/a	RESPONSE	M2	2	14	D4	press
575.29	n/a	RESPONSE	M2	2	16	E4	release
575.444	n/a	RESPONSE	M2	2	00	C3	release
575.498	n/a	RESPONSE	M2	2	07	G3	release
575.648	n/a	RESPONSE	M2	2	14	D4	release
575.709	n/a	RESPONSE	M2	2	00	C3	press
575.714	n/a	RESPONSE	M2	2	07	G3	press
575.717	n/a	RESPONSE	M2	2	12	C4	press
577.129	n/a	RESPONSE	M2	2	12	C4	release
577.204	7.758	FIXCROSS	n/a	n/a	n/a	n/a	n/a
577.71	n/a	RESPONSE	M2	2	00	C3	release
584.963	6.317	CUE_LISTEN	M1	1	n/a	n/a	n/a
588.678	n/a	RESPONSE	M1	1	07	G3	release
591.279	7.758	FIXCROSS	n/a	n/a	n/a	n/a	n/a
599.038	6.325	CUE_PLAYBACK_RIGHT_HAND	M1	1	n/a	n/a	n/a
600.327	n/a	RESPONSE	M1	1	19	G4	press
600.87	n/a	RESPONSE	M1	1	19	G4	release
600.889	n/a	RESPONSE	M1	1	16	E4	press
601.19	n/a	RESPONSE	M1	1	16	E4	release
601.382	n/a	RESPONSE	M1	1	16	E4	press
601.813	n/a	RESPONSE	M1	1	16	E4	release
601.894	n/a	RESPONSE	M1	1	17	F4	press
602.376	n/a	RESPONSE	M1	1	17	F4	release
602.427	n/a	RESPONSE	M1	1	14	D4	press
602.723	n/a	RESPONSE	M1	1	14	D4	release
602.923	n/a	RESPONSE	M1	1	14	D4	press
603.279	n/a	RESPONSE	M1	1	14	D4	release
603.437	n/a	RESPONSE	M1	1	12	C4	press
603.69	n/a	RESPONSE	M1	1	16	E4	press
603.793	n/a	RESPONSE	M1	1	12	C4	release
604.028	n/a	RESPONSE	M1	1	19	G4	press
604.13	n/a	RESPONSE	M1	1	16	E4	release
604.874	n/a	RESPONSE	M1	1	19	G4	release
605.363	7.758	FIXCROSS	n/a	n/a	n/a	n/a	n/a
613.121	6.317	CUE_LISTEN	M1	2	n/a	n/a	n/a
619.438	7.758	FIXCROSS	n/a	n/a	n/a	n/a	n/a
627.196	6.317	CUE_PLAYBACK_RIGHT_HAND	M1	2	n/a	n/a	n/a
628.158	n/a	RESPONSE	M1	2	19	G4	press
628.692	n/a	RESPONSE	M1	2	16	E4	press
628.702	n/a	RESPONSE	M1	2	19	G4	release
629.092	n/a	RESPONSE	M1	2	16	E4	release
629.173	n/a	RESPONSE	M1	2	16	E4	press
629.604	n/a	RESPONSE	M1	2	16	E4	release
629.707	n/a	RESPONSE	M1	2	17	F4	press
630.138	n/a	RESPONSE	M1	2	17	F4	release
630.229	n/a	RESPONSE	M1	2	14	D4	press
630.51	n/a	RESPONSE	M1	2	14	D4	release
630.722	n/a	RESPONSE	M1	2	14	D4	press
631.256	n/a	RESPONSE	M1	2	14	D4	release
631.304	n/a	RESPONSE	M1	2	12	C4	press
631.686	n/a	RESPONSE	M1	2	16	E4	press
631.717	n/a	RESPONSE	M1	2	12	C4	release
632.08	n/a	RESPONSE	M1	2	12	C4	press
632.169	n/a	RESPONSE	M1	2	16	E4	release
632.962	n/a	RESPONSE	M1	2	12	C4	release
633.513	7.759	FIXCROSS	n/a	n/a	n/a	n/a	n/a
641.271	6.325	CUE_LISTEN	M3	1	n/a	n/a	n/a
647.596	7.758	FIXCROSS	n/a	n/a	n/a	n/a	n/a
655.354	6.317	CUE_PLAYBACK_RIGHT_HAND	M3	1	n/a	n/a	n/a
656.296	n/a	RESPONSE	M3	1	12	C4	press
656.736	n/a	RESPONSE	M3	1	14	D4	press
656.747	n/a	RESPONSE	M3	1	12	C4	release
657.158	n/a	RESPONSE	M3	1	16	E4	press
657.249	n/a	RESPONSE	M3	1	14	D4	release
657.67	n/a	RESPONSE	M3	1	16	E4	release
657.722	n/a	RESPONSE	M3	1	12	C4	press
658.123	n/a	RESPONSE	M3	1	12	C4	release
658.304	n/a	RESPONSE	M3	1	12	C4	press
658.806	n/a	RESPONSE	M3	1	14	D4	press
658.887	n/a	RESPONSE	M3	1	12	C4	release
659.258	n/a	RESPONSE	M3	1	16	E4	press
659.4	n/a	RESPONSE	M3	1	14	D4	release
659.842	n/a	RESPONSE	M3	1	16	E4	release
659.883	n/a	RESPONSE	M3	1	12	C4	press
660.856	n/a	RESPONSE	M3	1	12	C4	release
661.671	7.758	FIXCROSS	n/a	n/a	n/a	n/a	n/a
669.429	6.317	CUE_LISTEN	M3	2	n/a	n/a	n/a
675.746	7.758	FIXCROSS	n/a	n/a	n/a	n/a	n/a
683.504	6.325	CUE_PLAYBACK_RIGHT_HAND	M3	2	n/a	n/a	n/a
684.174	n/a	RESPONSE	M3	2	16	E4	press
684.672	n/a	RESPONSE	M3	2	17	F4	press
684.754	n/a	RESPONSE	M3	2	16	E4	release
685.159	n/a	RESPONSE	M3	2	19	G4	press
685.256	n/a	RESPONSE	M3	2	17	F4	release
686.068	n/a	RESPONSE	M3	2	19	G4	release
686.127	n/a	RESPONSE	M3	2	16	E4	press
686.659	n/a	RESPONSE	M3	2	17	F4	press
686.759	n/a	RESPONSE	M3	2	16	E4	release
687.14	n/a	RESPONSE	M3	2	19	G4	press
687.223	n/a	RESPONSE	M3	2	17	F4	release
688.066	n/a	RESPONSE	M3	2	19	G4	release
689.829	7.758	FIXCROSS	n/a	n/a	n/a	n/a	n/a
693.736	n/a	RESPONSE	M3	2	19	G4	press
694.326	n/a	RESPONSE	M3	2	19	G4	release
697.588	6.317	CUE_LISTEN	M3	1	n/a	n/a	n/a
703.904	7.758	FIXCROSS	n/a	n/a	n/a	n/a	n/a
711.663	6.325	CUE_PLAYBACK_RIGHT_HAND	M3	1	n/a	n/a	n/a
713.826	n/a	RESPONSE	M3	1	19	G4	press
714.089	n/a	RESPONSE	M3	1	21	A4	press
714.183	n/a	RESPONSE	M3	1	19	G4	release
714.347	n/a	RESPONSE	M3	1	19	G4	press
714.616	n/a	RESPONSE	M3	1	17	F4	press
714.748	n/a	RESPONSE	M3	1	21	A4	release
714.914	n/a	RESPONSE	M3	1	19	G4	release
715.012	n/a	RESPONSE	M3	1	16	E4	press
715.098	n/a	RESPONSE	M3	1	16	E4	release
715.484	n/a	RESPONSE	M3	1	16	E4	press
715.973	n/a	RESPONSE	M3	1	17	F4	release
716.99	n/a	RESPONSE	M3	1	12	C4	press
717.102	n/a	RESPONSE	M3	1	16	E4	release
717.573	n/a	RESPONSE	M3	1	12	C4	release
717.988	7.758	FIXCROSS	n/a	n/a	n/a	n/a	n/a
718.107	n/a	RESPONSE	M3	1	17	F4	press
718.347	n/a	RESPONSE	M3	1	19	G4	press
718.448	n/a	RESPONSE	M3	1	17	F4	release
718.642	n/a	RESPONSE	M3	1	17	F4	press
718.93	n/a	RESPONSE	M3	1	19	G4	release
719.014	n/a	RESPONSE	M3	1	16	E4	press
719.273	n/a	RESPONSE	M3	1	17	F4	release
719.354	n/a	RESPONSE	M3	1	14	D4	press
720.137	n/a	RESPONSE	M3	1	11	B3	press
720.148	n/a	RESPONSE	M3	1	16	E4	release
720.242	n/a	RESPONSE	M3	1	14	D4	release
721.21	n/a	RESPONSE	M3	1	11	B3	release
725.746	6.317	CUE_LISTEN	M3	2	n/a	n/a	n/a
732.063	7.758	FIXCROSS	n/a	n/a	n/a	n/a	n/a
739.821	6.317	CUE_PLAYBACK_RIGHT_HAND	M3	2	n/a	n/a	n/a
741.006	n/a	RESPONSE	M3	2	12	C4	press
741.367	n/a	RESPONSE	M3	2	12	C4	release
741.828	n/a	RESPONSE	M3	2	07	G3	press
742.169	n/a	RESPONSE	M3	2	07	G3	release
742.774	n/a	RESPONSE	M3	2	12	C4	press
743.363	n/a	RESPONSE	M3	2	12	C4	release
743.674	n/a	RESPONSE	M3	2	12	C4	press
744.06	n/a	RESPONSE	M3	2	12	C4	release
744.474	n/a	RESPONSE	M3	2	07	G3	press
744.814	n/a	RESPONSE	M3	2	07	G3	release
745.28	n/a	RESPONSE	M3	2	12	C4	press
746.136	n/a	RESPONSE	M3	2	12	C4	release
746.138	7.758	FIXCROSS	n/a	n/a	n/a	n/a	n/a
753.896	6.325	CUE_LISTEN	M1	1	n/a	n/a	n/a
760.221	7.758	FIXCROSS	n/a	n/a	n/a	n/a	n/a
767.98	6.317	CUE_PLAYBACK_BOTH_HANDS	M1	1	n/a	n/a	n/a
768.977	n/a	RESPONSE	M1	1	07	G3	press
768.988	n/a	RESPONSE	M1	1	19	G4	press
768.99	n/a	RESPONSE	M1	1	00	C3	press
769.033	n/a	RESPONSE	M1	1	04	E3	press
771.103	n/a	RESPONSE	M1	1	16	E4	press
771.106	n/a	RESPONSE	M1	1	19	G4	release
771.426	n/a	RESPONSE	M1	1	16	E4	release
771.607	n/a	RESPONSE	M1	1	16	E4	press
771.848	n/a	RESPONSE	M1	1	00	C3	release
771.909	n/a	RESPONSE	M1	1	04	E3	release
772.002	n/a	RESPONSE	M1	1	16	E4	release
772.273	n/a	RESPONSE	M1	1	02	D3	press
772.276	n/a	RESPONSE	M1	1	17	F4	press
772.284	n/a	RESPONSE	M1	1	05	F3	press
772.844	n/a	RESPONSE	M1	1	17	F4	release
772.856	n/a	RESPONSE	M1	1	14	D4	press
773.192	n/a	RESPONSE	M1	1	14	D4	release
773.394	n/a	RESPONSE	M1	1	14	D4	press
773.832	n/a	RESPONSE	M1	1	05	F3	release
773.884	n/a	RESPONSE	M1	1	02	D3	release
773.918	n/a	RESPONSE	M1	1	14	D4	release
774.274	n/a	RESPONSE	M1	1	04	E3	press
774.296	7.758	FIXCROSS	n/a	n/a	n/a	n/a	n/a
774.318	n/a	RESPONSE	M1	1	00	C3	press
774.326	n/a	RESPONSE	M1	1	12	C4	press
774.847	n/a	RESPONSE	M1	1	16	E4	press
774.868	n/a	RESPONSE	M1	1	12	C4	release
775.292	n/a	RESPONSE	M1	1	19	G4	press
775.383	n/a	RESPONSE	M1	1	16	E4	release
776.267	n/a	RESPONSE	M1	1	00	C3	release
776.298	n/a	RESPONSE	M1	1	04	E3	release
776.359	n/a	RESPONSE	M1	1	19	G4	release
776.47	n/a	RESPONSE	M1	1	07	G3	release
782.055	6.317	CUE_LISTEN	M1	2	n/a	n/a	n/a
788.371	7.758	FIXCROSS	n/a	n/a	n/a	n/a	n/a
796.13	6.325	CUE_PLAYBACK_BOTH_HANDS	M1	2	n/a	n/a	n/a
798.022	n/a	RESPONSE	M1	2	07	G3	press
798.032	n/a	RESPONSE	M1	2	19	G4	press
798.036	n/a	RESPONSE	M1	2	00	C3	press
798.044	n/a	RESPONSE	M1	2	04	E3	press
798.636	n/a	RESPONSE	M1	2	16	E4	press
798.707	n/a	RESPONSE	M1	2	19	G4	release
798.908	n/a	RESPONSE	M1	2	16	E4	release
799.159	n/a	RESPONSE	M1	2	16	E4	press
799.53	n/a	RESPONSE	M1	2	16	E4	release
799.642	n/a	RESPONSE	M1	2	04	E3	release
799.743	n/a	RESPONSE	M1	2	00	C3	release
799.904	n/a	RESPONSE	M1	2	05	F3	press
799.907	n/a	RESPONSE	M1	2	02	D3	press
799.917	n/a	RESPONSE	M1	2	17	F4	press
800.429	n/a	RESPONSE	M1	2	17	F4	release
800.432	n/a	RESPONSE	M1	2	14	D4	press
800.712	n/a	RESPONSE	M1	2	14	D4	release
800.933	n/a	RESPONSE	M1	2	14	D4	press
801.444	n/a	RESPONSE	M1	2	02	D3	release
801.456	n/a	RESPONSE	M1	2	05	F3	release
801.467	n/a	RESPONSE	M1	2	14	D4	release
801.608	n/a	RESPONSE	M1	2	07	G3	release
801.749	n/a	RESPONSE	M1	2	07	G3	press
801.76	n/a	RESPONSE	M1	2	04	E3	press
801.792	n/a	RESPONSE	M1	2	12	C4	press
801.796	n/a	RESPONSE	M1	2	00	C3	press
802.394	n/a	RESPONSE	M1	2	16	E4	press
802.442	n/a	RESPONSE	M1	2	12	C4	release
802.455	7.758	FIXCROSS	n/a	n/a	n/a	n/a	n/a
802.898	n/a	RESPONSE	M1	2	12	C4	press
802.926	n/a	RESPONSE	M1	2	16	E4	release
803.829	n/a	RESPONSE	M1	2	12	C4	release
803.948	n/a	RESPONSE	M1	2	04	E3	release
804.08	n/a	RESPONSE	M1	2	00	C3	release
804.214	n/a	RESPONSE	M1	2	07	G3	release
810.213	6.317	CUE_LISTEN	M2	1	n/a	n/a	n/a
816.53	7.759	FIXCROSS	n/a	n/a	n/a	n/a	n/a
818.024	n/a	RESPONSE	M2	1	24	C5	press
824.288	6.317	CUE_PLAYBACK_RIGHT_HAND	M2	1	n/a	n/a	n/a
824.743	n/a	RESPONSE	M2	1	24	C5	release
825.12	n/a	RESPONSE	M2	1	24	C5	press
825.606	n/a	RESPONSE	M2	1	24	C5	release
825.666	n/a	RESPONSE	M2	1	19	G4	press
825.96	n/a	RESPONSE	M2	1	19	G4	release
826.096	n/a	RESPONSE	M2	1	19	G4	press
826.527	n/a	RESPONSE	M2	1	17	F4	press
826.998	n/a	RESPONSE	M2	1	19	G4	release
827.04	n/a	RESPONSE	M2	1	16	E4	press
827.16	n/a	RESPONSE	M2	1	17	F4	release
827.502	n/a	RESPONSE	M2	1	17	F4	press
827.623	n/a	RESPONSE	M2	1	16	E4	release
827.994	n/a	RESPONSE	M2	1	19	G4	press
828.108	n/a	RESPONSE	M2	1	17	F4	release
829.057	n/a	RESPONSE	M2	1	19	G4	release
830.605	7.758	FIXCROSS	n/a	n/a	n/a	n/a	n/a
838.363	6.325	CUE_LISTEN	M2	2	n/a	n/a	n/a
844.688	7.758	FIXCROSS	n/a	n/a	n/a	n/a	n/a
852.446	6.317	CUE_PLAYBACK_RIGHT_HAND	M2	2	n/a	n/a	n/a
853.158	n/a	RESPONSE	M2	2	24	C5	press
853.719	n/a	RESPONSE	M2	2	19	G4	press
853.728	n/a	RESPONSE	M2	2	24	C5	release
853.98	n/a	RESPONSE	M2	2	19	G4	release
854.162	n/a	RESPONSE	M2	2	19	G4	press
854.657	n/a	RESPONSE	M2	2	17	F4	press
854.979	n/a	RESPONSE	M2	2	19	G4	release
855.207	n/a	RESPONSE	M2	2	16	E4	press
855.342	n/a	RESPONSE	M2	2	17	F4	release
855.689	n/a	RESPONSE	M2	2	14	D4	press
855.808	n/a	RESPONSE	M2	2	16	E4	release
856.238	n/a	RESPONSE	M2	2	12	C4	press
856.369	n/a	RESPONSE	M2	2	14	D4	release
858.05	n/a	RESPONSE	M2	2	12	C4	release
858.763	7.758	FIXCROSS	n/a	n/a	n/a	n/a	n/a
866.521	6.317	CUE_LISTEN	M2	1	n/a	n/a	n/a
872.838	7.759	FIXCROSS	n/a	n/a	n/a	n/a	n/a
880.596	6.325	CUE_PLAYBACK_RIGHT_HAND	M2	1	n/a	n/a	n/a
881.708	n/a	RESPONSE	M2	1	12	C4	press
882.21	n/a	RESPONSE	M2	1	14	D4	press
882.332	n/a	RESPONSE	M2	1	12	C4	release
882.678	n/a	RESPONSE	M2	1	16	E4	press
882.783	n/a	RESPONSE	M2	1	14	D4	release
883.21	n/a	RESPONSE	M2	1	14	D4	press
883.282	n/a	RESPONSE	M2	1	16	E4	release
883.644	n/a	RESPONSE	M2	1	16	E4	press
883.723	n/a	RESPONSE	M2	1	14	D4	release
884.092	n/a	RESPONSE	M2	1	17	F4	press
884.202	n/a	RESPONSE	M2	1	16	E4	release
884.588	n/a	RESPONSE	M2	1	19	G4	press
884.7	n/a	RESPONSE	M2	1	17	F4	release
885.617	n/a	RESPONSE	M2	1	19	G4	release
886.921	7.758	FIXCROSS	n/a	n/a	n/a	n/a	n/a
894.68	6.317	CUE_LISTEN	M2	2	n/a	n/a	n/a
900.996	7.758	FIXCROSS	n/a	n/a	n/a	n/a	n/a
908.755	39.829	CUE_PLAYBACK_RIGHT_HAND	M2	2	n/a	n/a	n/a
909.417	n/a	RESPONSE	M2	2	16	E4	press
910.009	n/a	RESPONSE	M2	2	19	G4	press
910.22	n/a	RESPONSE	M2	2	16	E4	release
910.932	n/a	RESPONSE	M2	2	19	G4	release
911.083	n/a	RESPONSE	M2	2	19	G4	press
911.684	n/a	RESPONSE	M2	2	19	G4	release
911.687	n/a	RESPONSE	M2	2	17	F4	press
912.177	n/a	RESPONSE	M2	2	16	E4	press
912.248	n/a	RESPONSE	M2	2	17	F4	release
912.632	n/a	RESPONSE	M2	2	14	D4	press
912.713	n/a	RESPONSE	M2	2	16	E4	release
913.122	n/a	RESPONSE	M2	2	12	C4	press
913.248	n/a	FIXCROSS	n/a	n/a	n/a	n/a	n/a
913.263	n/a	RESPONSE	M2	2	14	D4	release
914.099	n/a	RESPONSE	M2	2	12	C4	release
