onset	duration	trial_type	trial_number	stroop_condition	stim_text(PL)	stim_text(eng)	stim_color(PL)	stim_color(eng)	response_type	response_color
0.0	n/a	RESPONSE	n/a	n/a	n/a	n/a	n/a	n/a	n/a	n/a
0.0231	1.0167	ITI	n/a	n/a	n/a	n/a	n/a	n/a	n/a	n/a
1.0397	0.5	FIXCROSS	n/a	n/a	n/a	n/a	n/a	n/a	n/a	n/a
1.5398	2.3334	T_INK	1	Incongruent	żółty	yellow	niebieski	blue	hit	n/a
3.8551	n/a	RESPONSE	n/a	n/a	n/a	n/a	n/a	n/a	n/a	blue
3.8731	0.5	FEEDBACK	n/a	n/a	n/a	n/a	n/a	n/a	n/a	n/a
4.3731	1.0	ITI	n/a	n/a	n/a	n/a	n/a	n/a	n/a	n/a
5.3731	0.5	FIXCROSS	n/a	n/a	n/a	n/a	n/a	n/a	n/a	n/a
5.8731	1.3667	T_INK	2	Neutral	xxxxxxxxx	xxxxxxxxx	zielony	green	hit	n/a
7.2304	n/a	RESPONSE	n/a	n/a	n/a	n/a	n/a	n/a	n/a	green
7.2398	0.5	FEEDBACK	n/a	n/a	n/a	n/a	n/a	n/a	n/a	n/a
7.7398	1.0	ITI	n/a	n/a	n/a	n/a	n/a	n/a	n/a	n/a
8.7399	0.5	FIXCROSS	n/a	n/a	n/a	n/a	n/a	n/a	n/a	n/a
9.2398	1.2	T_INK	3	Neutral	xxxxxxx	xxxxxxx	niebieski	blue	hit	n/a
10.4297	n/a	RESPONSE	n/a	n/a	n/a	n/a	n/a	n/a	n/a	blue
10.4399	0.5	FEEDBACK	n/a	n/a	n/a	n/a	n/a	n/a	n/a	n/a
10.9399	1.0	ITI	n/a	n/a	n/a	n/a	n/a	n/a	n/a	n/a
11.9399	0.5	FIXCROSS	n/a	n/a	n/a	n/a	n/a	n/a	n/a	n/a
12.4399	0.8667	T_INK	4	Neutral	xxxxxxxxx	xxxxxxxxx	czerwony	red	hit	n/a
13.2931	n/a	RESPONSE	n/a	n/a	n/a	n/a	n/a	n/a	n/a	red
13.3066	0.5	FEEDBACK	n/a	n/a	n/a	n/a	n/a	n/a	n/a	n/a
13.8066	1.0	ITI	n/a	n/a	n/a	n/a	n/a	n/a	n/a	n/a
14.8066	0.5	FIXCROSS	n/a	n/a	n/a	n/a	n/a	n/a	n/a	n/a
15.3066	0.6167	T_INK	5	Neutral	xxxxxxxx	xxxxxxxx	żółty	yellow	hit	n/a
15.9165	n/a	RESPONSE	n/a	n/a	n/a	n/a	n/a	n/a	n/a	yellow
15.9233	0.5	FEEDBACK	n/a	n/a	n/a	n/a	n/a	n/a	n/a	n/a
16.4233	1.0	ITI	n/a	n/a	n/a	n/a	n/a	n/a	n/a	n/a
17.4233	0.5	FIXCROSS	n/a	n/a	n/a	n/a	n/a	n/a	n/a	n/a
17.9233	0.4833	T_INK	6	Neutral	xxxxxxxxx	xxxxxxxxx	żółty	yellow	hit	n/a
18.396	n/a	RESPONSE	n/a	n/a	n/a	n/a	n/a	n/a	n/a	yellow
18.4066	0.5	FEEDBACK	n/a	n/a	n/a	n/a	n/a	n/a	n/a	n/a
18.9066	1.0	ITI	n/a	n/a	n/a	n/a	n/a	n/a	n/a	n/a
19.9066	0.5	FIXCROSS	n/a	n/a	n/a	n/a	n/a	n/a	n/a	n/a
20.4067	1.0167	T_INK	7	Incongruent	żółty	yellow	czerwony	red	hit	n/a
21.4033	n/a	RESPONSE	n/a	n/a	n/a	n/a	n/a	n/a	n/a	red
21.4233	0.5	FEEDBACK	n/a	n/a	n/a	n/a	n/a	n/a	n/a	n/a
21.9233	1.0	ITI	n/a	n/a	n/a	n/a	n/a	n/a	n/a	n/a
22.9234	0.5	FIXCROSS	n/a	n/a	n/a	n/a	n/a	n/a	n/a	n/a
23.4234	0.65	T_INK	8	Incongruent	zielony	green	żółty	yellow	hit	n/a
24.0588	n/a	RESPONSE	n/a	n/a	n/a	n/a	n/a	n/a	n/a	yellow
24.0734	0.5	FEEDBACK	n/a	n/a	n/a	n/a	n/a	n/a	n/a	n/a
24.5734	1.0	ITI	n/a	n/a	n/a	n/a	n/a	n/a	n/a	n/a
25.5734	0.5	FIXCROSS	n/a	n/a	n/a	n/a	n/a	n/a	n/a	n/a
26.0734	0.6666	T_INK	9	Neutral	xxxxxxx	xxxxxxx	czerwony	red	hit	n/a
26.7301	n/a	RESPONSE	n/a	n/a	n/a	n/a	n/a	n/a	n/a	red
26.74	0.5001	FEEDBACK	n/a	n/a	n/a	n/a	n/a	n/a	n/a	n/a
27.2401	1.0	ITI	n/a	n/a	n/a	n/a	n/a	n/a	n/a	n/a
28.2401	0.5	FIXCROSS	n/a	n/a	n/a	n/a	n/a	n/a	n/a	n/a
28.7401	1.3	T_INK	10	Neutral	xxxxx	xxxxx	zielony	green	hit	n/a
30.0255	n/a	RESPONSE	n/a	n/a	n/a	n/a	n/a	n/a	n/a	green
30.0401	0.5167	FEEDBACK	n/a	n/a	n/a	n/a	n/a	n/a	n/a	n/a
30.5568	1.0167	ITI	n/a	n/a	n/a	n/a	n/a	n/a	n/a	n/a
31.5734	0.5167	FIXCROSS	n/a	n/a	n/a	n/a	n/a	n/a	n/a	n/a
32.0901	0.65	T_INK	11	Incongruent	zielony	green	niebieski	blue	hit	n/a
32.7129	n/a	RESPONSE	n/a	n/a	n/a	n/a	n/a	n/a	n/a	blue
32.7401	0.5167	FEEDBACK	n/a	n/a	n/a	n/a	n/a	n/a	n/a	n/a
33.2568	1.0167	ITI	n/a	n/a	n/a	n/a	n/a	n/a	n/a	n/a
34.2735	0.5167	FIXCROSS	n/a	n/a	n/a	n/a	n/a	n/a	n/a	n/a
34.7902	1.3	T_INK	12	Neutral	xxxxxxxx	xxxxxxxx	zielony	green	hit	n/a
36.0561	n/a	RESPONSE	n/a	n/a	n/a	n/a	n/a	n/a	n/a	green
36.0902	0.5167	FEEDBACK	n/a	n/a	n/a	n/a	n/a	n/a	n/a	n/a
36.6068	1.0333	ITI	n/a	n/a	n/a	n/a	n/a	n/a	n/a	n/a
41.191	n/a	RESPONSE	n/a	n/a	n/a	n/a	n/a	n/a	n/a	n/a
41.2569	1.0167	ITI	n/a	n/a	n/a	n/a	n/a	n/a	n/a	n/a
42.2736	0.5167	FIXCROSS	n/a	n/a	n/a	n/a	n/a	n/a	n/a	n/a
42.7903	0.6	INK	1	Neutral	xxxxxxxx	xxxxxxxx	niebieski	blue	hit	n/a
43.3665	n/a	RESPONSE	n/a	n/a	n/a	n/a	n/a	n/a	n/a	blue
43.3903	1.0167	ITI	n/a	n/a	n/a	n/a	n/a	n/a	n/a	n/a
44.4069	0.5167	FIXCROSS	n/a	n/a	n/a	n/a	n/a	n/a	n/a	n/a
44.9236	0.9334	INK	2	Neutral	xxxxxxxxx	xxxxxxxxx	zielony	green	hit	n/a
45.83	n/a	RESPONSE	n/a	n/a	n/a	n/a	n/a	n/a	n/a	green
45.857	1.0167	ITI	n/a	n/a	n/a	n/a	n/a	n/a	n/a	n/a
46.8736	0.5167	FIXCROSS	n/a	n/a	n/a	n/a	n/a	n/a	n/a	n/a
47.3903	0.6833	INK	3	Incongruent	niebieski	blue	żółty	yellow	hit	n/a
48.0536	n/a	RESPONSE	n/a	n/a	n/a	n/a	n/a	n/a	n/a	yellow
48.0736	1.0167	ITI	n/a	n/a	n/a	n/a	n/a	n/a	n/a	n/a
49.0903	0.5167	FIXCROSS	n/a	n/a	n/a	n/a	n/a	n/a	n/a	n/a
49.607	0.4	INK	4	Neutral	xxxxx	xxxxx	czerwony	red	hit	n/a
49.9891	n/a	RESPONSE	n/a	n/a	n/a	n/a	n/a	n/a	n/a	red
50.007	1.0167	ITI	n/a	n/a	n/a	n/a	n/a	n/a	n/a	n/a
51.0237	0.5167	FIXCROSS	n/a	n/a	n/a	n/a	n/a	n/a	n/a	n/a
51.5404	0.8667	INK	5	Incongruent	niebieski	blue	czerwony	red	hit	n/a
52.3886	n/a	RESPONSE	n/a	n/a	n/a	n/a	n/a	n/a	n/a	red
52.407	1.0167	ITI	n/a	n/a	n/a	n/a	n/a	n/a	n/a	n/a
53.4237	0.5167	FIXCROSS	n/a	n/a	n/a	n/a	n/a	n/a	n/a	n/a
53.9404	1.1667	INK	6	Incongruent	żółty	yellow	czerwony	red	hit	n/a
55.076	n/a	RESPONSE	n/a	n/a	n/a	n/a	n/a	n/a	n/a	red
55.1071	1.0167	ITI	n/a	n/a	n/a	n/a	n/a	n/a	n/a	n/a
56.1237	0.5167	FIXCROSS	n/a	n/a	n/a	n/a	n/a	n/a	n/a	n/a
56.6404	0.8833	INK	7	Neutral	xxxxxxx	xxxxxxx	żółty	yellow	hit	n/a
57.4915	n/a	RESPONSE	n/a	n/a	n/a	n/a	n/a	n/a	n/a	yellow
57.5238	1.0167	ITI	n/a	n/a	n/a	n/a	n/a	n/a	n/a	n/a
58.5404	0.5167	FIXCROSS	n/a	n/a	n/a	n/a	n/a	n/a	n/a	n/a
59.0571	0.65	INK	8	Neutral	xxxxxxxx	xxxxxxxx	żółty	yellow	hit	n/a
59.683	n/a	RESPONSE	n/a	n/a	n/a	n/a	n/a	n/a	n/a	yellow
59.7071	1.0167	ITI	n/a	n/a	n/a	n/a	n/a	n/a	n/a	n/a
60.7238	0.5167	FIXCROSS	n/a	n/a	n/a	n/a	n/a	n/a	n/a	n/a
61.2405	0.6167	INK	9	Incongruent	zielony	green	żółty	yellow	hit	n/a
61.8266	n/a	RESPONSE	n/a	n/a	n/a	n/a	n/a	n/a	n/a	yellow
61.8572	1.0167	ITI	n/a	n/a	n/a	n/a	n/a	n/a	n/a	n/a
62.8738	0.5167	FIXCROSS	n/a	n/a	n/a	n/a	n/a	n/a	n/a	n/a
63.3905	0.6167	INK	10	Neutral	xxxxx	xxxxx	czerwony	red	hit	n/a
63.9861	n/a	RESPONSE	n/a	n/a	n/a	n/a	n/a	n/a	n/a	red
64.0072	1.0167	ITI	n/a	n/a	n/a	n/a	n/a	n/a	n/a	n/a
65.0238	0.5167	FIXCROSS	n/a	n/a	n/a	n/a	n/a	n/a	n/a	n/a
65.5405	0.85	INK	11	Incongruent	zielony	green	żółty	yellow	hit	n/a
66.3696	n/a	RESPONSE	n/a	n/a	n/a	n/a	n/a	n/a	n/a	yellow
66.3905	1.0167	ITI	n/a	n/a	n/a	n/a	n/a	n/a	n/a	n/a
67.4072	0.5167	FIXCROSS	n/a	n/a	n/a	n/a	n/a	n/a	n/a	n/a
67.9239	0.8833	INK	12	Neutral	xxxxxxxxx	xxxxxxxxx	czerwony	red	hit	n/a
68.785	n/a	RESPONSE	n/a	n/a	n/a	n/a	n/a	n/a	n/a	red
68.8072	1.0167	ITI	n/a	n/a	n/a	n/a	n/a	n/a	n/a	n/a
69.8239	0.5167	FIXCROSS	n/a	n/a	n/a	n/a	n/a	n/a	n/a	n/a
70.3406	0.5	INK	13	Incongruent	zielony	green	czerwony	red	hit	n/a
70.8166	n/a	RESPONSE	n/a	n/a	n/a	n/a	n/a	n/a	n/a	red
70.8406	1.0167	ITI	n/a	n/a	n/a	n/a	n/a	n/a	n/a	n/a
71.8573	0.5167	FIXCROSS	n/a	n/a	n/a	n/a	n/a	n/a	n/a	n/a
72.3739	1.3334	INK	14	Incongruent	niebieski	blue	zielony	green	hit	n/a
73.68	n/a	RESPONSE	n/a	n/a	n/a	n/a	n/a	n/a	n/a	green
73.7073	1.0167	ITI	n/a	n/a	n/a	n/a	n/a	n/a	n/a	n/a
74.724	0.5167	FIXCROSS	n/a	n/a	n/a	n/a	n/a	n/a	n/a	n/a
75.2406	0.45	INK	15	Neutral	xxxxx	xxxxx	zielony	green	hit	n/a
75.6636	n/a	RESPONSE	n/a	n/a	n/a	n/a	n/a	n/a	n/a	green
75.6906	1.0167	ITI	n/a	n/a	n/a	n/a	n/a	n/a	n/a	n/a
76.7073	0.5167	FIXCROSS	n/a	n/a	n/a	n/a	n/a	n/a	n/a	n/a
77.224	0.6833	INK	16	Incongruent	żółty	yellow	niebieski	blue	hit	n/a
77.8871	n/a	RESPONSE	n/a	n/a	n/a	n/a	n/a	n/a	n/a	blue
77.9073	1.0167	ITI	n/a	n/a	n/a	n/a	n/a	n/a	n/a	n/a
78.924	0.5167	FIXCROSS	n/a	n/a	n/a	n/a	n/a	n/a	n/a	n/a
79.4407	1.1167	INK	17	Neutral	xxxxxxxx	xxxxxxxx	zielony	green	hit	n/a
80.5265	n/a	RESPONSE	n/a	n/a	n/a	n/a	n/a	n/a	n/a	green
80.5574	1.0167	ITI	n/a	n/a	n/a	n/a	n/a	n/a	n/a	n/a
81.5741	0.5167	FIXCROSS	n/a	n/a	n/a	n/a	n/a	n/a	n/a	n/a
82.0907	0.7833	INK	18	Incongruent	czerwony	red	zielony	green	incorrect	n/a
82.846	n/a	RESPONSE	n/a	n/a	n/a	n/a	n/a	n/a	n/a	red
82.8741	1.0167	ITI	n/a	n/a	n/a	n/a	n/a	n/a	n/a	n/a
83.8908	0.5167	FIXCROSS	n/a	n/a	n/a	n/a	n/a	n/a	n/a	n/a
84.4074	0.5667	INK	19	Neutral	xxxxx	xxxxx	niebieski	blue	hit	n/a
84.9416	n/a	RESPONSE	n/a	n/a	n/a	n/a	n/a	n/a	n/a	blue
84.9741	1.0167	ITI	n/a	n/a	n/a	n/a	n/a	n/a	n/a	n/a
85.9908	0.5167	FIXCROSS	n/a	n/a	n/a	n/a	n/a	n/a	n/a	n/a
86.5074	0.6167	INK	20	Neutral	xxxxxxx	xxxxxxx	czerwony	red	hit	n/a
87.1011	n/a	RESPONSE	n/a	n/a	n/a	n/a	n/a	n/a	n/a	red
87.1241	1.0167	ITI	n/a	n/a	n/a	n/a	n/a	n/a	n/a	n/a
88.1408	0.5167	FIXCROSS	n/a	n/a	n/a	n/a	n/a	n/a	n/a	n/a
88.6575	0.6333	INK	21	Incongruent	czerwony	red	żółty	yellow	hit	n/a
89.2607	n/a	RESPONSE	n/a	n/a	n/a	n/a	n/a	n/a	n/a	yellow
89.2908	1.0167	ITI	n/a	n/a	n/a	n/a	n/a	n/a	n/a	n/a
90.3075	0.5167	FIXCROSS	n/a	n/a	n/a	n/a	n/a	n/a	n/a	n/a
90.8242	0.45	INK	22	Neutral	xxxxxxxxx	xxxxxxxxx	żółty	yellow	hit	n/a
91.2442	n/a	RESPONSE	n/a	n/a	n/a	n/a	n/a	n/a	n/a	yellow
91.2742	1.0167	ITI	n/a	n/a	n/a	n/a	n/a	n/a	n/a	n/a
92.2908	0.5167	FIXCROSS	n/a	n/a	n/a	n/a	n/a	n/a	n/a	n/a
92.8075	0.6	INK	23	Incongruent	żółty	yellow	zielony	green	hit	n/a
93.3877	n/a	RESPONSE	n/a	n/a	n/a	n/a	n/a	n/a	n/a	green
93.4075	1.0167	ITI	n/a	n/a	n/a	n/a	n/a	n/a	n/a	n/a
94.4242	0.5167	FIXCROSS	n/a	n/a	n/a	n/a	n/a	n/a	n/a	n/a
94.9409	0.7	INK	24	Incongruent	czerwony	red	niebieski	blue	incorrect	n/a
95.6113	n/a	RESPONSE	n/a	n/a	n/a	n/a	n/a	n/a	n/a	red
95.6409	1.0167	ITI	n/a	n/a	n/a	n/a	n/a	n/a	n/a	n/a
96.6576	0.5167	FIXCROSS	n/a	n/a	n/a	n/a	n/a	n/a	n/a	n/a
97.1742	0.85	INK	25	Incongruent	zielony	green	niebieski	blue	hit	n/a
97.9947	n/a	RESPONSE	n/a	n/a	n/a	n/a	n/a	n/a	n/a	blue
98.0242	1.0167	ITI	n/a	n/a	n/a	n/a	n/a	n/a	n/a	n/a
99.0409	0.5167	FIXCROSS	n/a	n/a	n/a	n/a	n/a	n/a	n/a	n/a
99.5576	0.5833	INK	26	Incongruent	zielony	green	niebieski	blue	hit	n/a
100.1223	n/a	RESPONSE	n/a	n/a	n/a	n/a	n/a	n/a	n/a	blue
100.1409	1.0167	ITI	n/a	n/a	n/a	n/a	n/a	n/a	n/a	n/a
101.1576	0.5167	FIXCROSS	n/a	n/a	n/a	n/a	n/a	n/a	n/a	n/a
101.6743	1.0667	INK	27	Incongruent	czerwony	red	zielony	green	hit	n/a
102.7137	n/a	RESPONSE	n/a	n/a	n/a	n/a	n/a	n/a	n/a	green
102.741	1.0167	ITI	n/a	n/a	n/a	n/a	n/a	n/a	n/a	n/a
103.7577	0.5167	FIXCROSS	n/a	n/a	n/a	n/a	n/a	n/a	n/a	n/a
104.2743	0.65	INK	28	Incongruent	zielony	green	niebieski	blue	hit	n/a
104.9052	n/a	RESPONSE	n/a	n/a	n/a	n/a	n/a	n/a	n/a	blue
104.9243	1.0167	ITI	n/a	n/a	n/a	n/a	n/a	n/a	n/a	n/a
105.941	0.5167	FIXCROSS	n/a	n/a	n/a	n/a	n/a	n/a	n/a	n/a
106.4577	0.6667	INK	29	Neutral	xxxxx	xxxxx	czerwony	red	hit	n/a
107.0968	n/a	RESPONSE	n/a	n/a	n/a	n/a	n/a	n/a	n/a	red
107.1244	1.0167	ITI	n/a	n/a	n/a	n/a	n/a	n/a	n/a	n/a
108.141	0.5167	FIXCROSS	n/a	n/a	n/a	n/a	n/a	n/a	n/a	n/a
108.6577	0.6	INK	30	Neutral	xxxxx	xxxxx	zielony	green	incorrect	n/a
109.2403	n/a	RESPONSE	n/a	n/a	n/a	n/a	n/a	n/a	n/a	yellow
109.2577	1.0167	ITI	n/a	n/a	n/a	n/a	n/a	n/a	n/a	n/a
110.2744	0.5167	FIXCROSS	n/a	n/a	n/a	n/a	n/a	n/a	n/a	n/a
110.7911	0.9833	INK	31	Neutral	xxxxxxxxx	xxxxxxxxx	czerwony	red	hit	n/a
111.7518	n/a	RESPONSE	n/a	n/a	n/a	n/a	n/a	n/a	n/a	red
111.7744	1.0167	ITI	n/a	n/a	n/a	n/a	n/a	n/a	n/a	n/a
112.7911	0.5167	FIXCROSS	n/a	n/a	n/a	n/a	n/a	n/a	n/a	n/a
113.3078	0.7333	INK	32	Neutral	xxxxxxxx	xxxxxxxx	niebieski	blue	hit	n/a
114.0232	n/a	RESPONSE	n/a	n/a	n/a	n/a	n/a	n/a	n/a	blue
114.0411	1.0167	ITI	n/a	n/a	n/a	n/a	n/a	n/a	n/a	n/a
115.0578	0.5167	FIXCROSS	n/a	n/a	n/a	n/a	n/a	n/a	n/a	n/a
115.5745	0.6333	INK	33	Neutral	xxxxxxxx	xxxxxxxx	zielony	green	hit	n/a
116.1828	n/a	RESPONSE	n/a	n/a	n/a	n/a	n/a	n/a	n/a	green
116.2078	1.0167	ITI	n/a	n/a	n/a	n/a	n/a	n/a	n/a	n/a
117.2245	0.5167	FIXCROSS	n/a	n/a	n/a	n/a	n/a	n/a	n/a	n/a
117.7411	0.85	INK	34	Incongruent	niebieski	blue	żółty	yellow	hit	n/a
118.5663	n/a	RESPONSE	n/a	n/a	n/a	n/a	n/a	n/a	n/a	yellow
118.5912	1.0167	ITI	n/a	n/a	n/a	n/a	n/a	n/a	n/a	n/a
119.6078	0.5167	FIXCROSS	n/a	n/a	n/a	n/a	n/a	n/a	n/a	n/a
120.1245	1.2834	INK	35	Incongruent	niebieski	blue	zielony	green	hit	n/a
121.3817	n/a	RESPONSE	n/a	n/a	n/a	n/a	n/a	n/a	n/a	green
121.4079	1.0167	ITI	n/a	n/a	n/a	n/a	n/a	n/a	n/a	n/a
122.4245	0.5167	FIXCROSS	n/a	n/a	n/a	n/a	n/a	n/a	n/a	n/a
122.9412	1.3833	INK	36	Neutral	xxxxxxxx	xxxxxxxx	niebieski	blue	hit	n/a
124.293	n/a	RESPONSE	n/a	n/a	n/a	n/a	n/a	n/a	n/a	blue
124.3246	1.0167	ITI	n/a	n/a	n/a	n/a	n/a	n/a	n/a	n/a
125.3412	0.5167	FIXCROSS	n/a	n/a	n/a	n/a	n/a	n/a	n/a	n/a
125.8579	0.75	INK	37	Incongruent	żółty	yellow	zielony	green	hit	n/a
126.5805	n/a	RESPONSE	n/a	n/a	n/a	n/a	n/a	n/a	n/a	green
126.6079	1.0167	ITI	n/a	n/a	n/a	n/a	n/a	n/a	n/a	n/a
127.6246	0.5167	FIXCROSS	n/a	n/a	n/a	n/a	n/a	n/a	n/a	n/a
128.1413	1.35	INK	38	Neutral	xxxxxxx	xxxxxxx	niebieski	blue	hit	n/a
129.4599	n/a	RESPONSE	n/a	n/a	n/a	n/a	n/a	n/a	n/a	blue
129.4913	1.0167	ITI	n/a	n/a	n/a	n/a	n/a	n/a	n/a	n/a
130.508	0.5167	FIXCROSS	n/a	n/a	n/a	n/a	n/a	n/a	n/a	n/a
131.0246	1.0167	INK	39	Incongruent	żółty	yellow	czerwony	red	hit	n/a
132.0194	n/a	RESPONSE	n/a	n/a	n/a	n/a	n/a	n/a	n/a	red
132.0413	1.0167	ITI	n/a	n/a	n/a	n/a	n/a	n/a	n/a	n/a
133.058	0.5167	FIXCROSS	n/a	n/a	n/a	n/a	n/a	n/a	n/a	n/a
133.5747	1.1667	INK	40	Incongruent	czerwony	red	niebieski	blue	hit	n/a
134.7228	n/a	RESPONSE	n/a	n/a	n/a	n/a	n/a	n/a	n/a	blue
134.7413	1.0167	ITI	n/a	n/a	n/a	n/a	n/a	n/a	n/a	n/a
135.758	0.5167	FIXCROSS	n/a	n/a	n/a	n/a	n/a	n/a	n/a	n/a
136.2747	0.6667	INK	41	Neutral	xxxxx	xxxxx	niebieski	blue	hit	n/a
136.9143	n/a	RESPONSE	n/a	n/a	n/a	n/a	n/a	n/a	n/a	blue
136.9414	1.0167	ITI	n/a	n/a	n/a	n/a	n/a	n/a	n/a	n/a
137.9581	0.5167	FIXCROSS	n/a	n/a	n/a	n/a	n/a	n/a	n/a	n/a
138.4747	1.4833	INK	42	Incongruent	czerwony	red	żółty	yellow	hit	n/a
139.9377	n/a	RESPONSE	n/a	n/a	n/a	n/a	n/a	n/a	n/a	yellow
139.9581	1.0167	ITI	n/a	n/a	n/a	n/a	n/a	n/a	n/a	n/a
140.9748	0.5167	FIXCROSS	n/a	n/a	n/a	n/a	n/a	n/a	n/a	n/a
141.4914	1.15	INK	43	Neutral	xxxxxxx	xxxxxxx	niebieski	blue	hit	n/a
142.6091	n/a	RESPONSE	n/a	n/a	n/a	n/a	n/a	n/a	n/a	blue
142.6414	1.0167	ITI	n/a	n/a	n/a	n/a	n/a	n/a	n/a	n/a
143.6581	0.5167	FIXCROSS	n/a	n/a	n/a	n/a	n/a	n/a	n/a	n/a
144.1748	1.6167	INK	44	Neutral	xxxxxxxx	xxxxxxxx	żółty	yellow	hit	n/a
145.7604	n/a	RESPONSE	n/a	n/a	n/a	n/a	n/a	n/a	n/a	yellow
145.7915	1.0167	ITI	n/a	n/a	n/a	n/a	n/a	n/a	n/a	n/a
146.8082	0.5167	FIXCROSS	n/a	n/a	n/a	n/a	n/a	n/a	n/a	n/a
147.3248	0.9333	INK	45	Incongruent	zielony	green	czerwony	red	hit	n/a
148.2238	n/a	RESPONSE	n/a	n/a	n/a	n/a	n/a	n/a	n/a	red
148.2582	1.0167	ITI	n/a	n/a	n/a	n/a	n/a	n/a	n/a	n/a
149.2748	0.5167	FIXCROSS	n/a	n/a	n/a	n/a	n/a	n/a	n/a	n/a
149.7915	1.5333	INK	46	Incongruent	czerwony	red	zielony	green	hit	n/a
151.2952	n/a	RESPONSE	n/a	n/a	n/a	n/a	n/a	n/a	n/a	green
151.3249	1.0167	ITI	n/a	n/a	n/a	n/a	n/a	n/a	n/a	n/a
152.3416	0.5167	FIXCROSS	n/a	n/a	n/a	n/a	n/a	n/a	n/a	n/a
152.8582	0.65	INK	47	Incongruent	żółty	yellow	niebieski	blue	hit	n/a
153.4867	n/a	RESPONSE	n/a	n/a	n/a	n/a	n/a	n/a	n/a	blue
153.5082	1.0167	ITI	n/a	n/a	n/a	n/a	n/a	n/a	n/a	n/a
154.5249	0.5167	FIXCROSS	n/a	n/a	n/a	n/a	n/a	n/a	n/a	n/a
155.0416	1.0	INK	48	Neutral	xxxxxxxx	xxxxxxxx	zielony	green	hit	n/a
156.0142	n/a	RESPONSE	n/a	n/a	n/a	n/a	n/a	n/a	n/a	green
156.0416	1.0167	ITI	n/a	n/a	n/a	n/a	n/a	n/a	n/a	n/a
157.0583	0.5167	FIXCROSS	n/a	n/a	n/a	n/a	n/a	n/a	n/a	n/a
157.575	0.6	INK	49	Incongruent	czerwony	red	niebieski	blue	incorrect	n/a
158.1417	n/a	RESPONSE	n/a	n/a	n/a	n/a	n/a	n/a	n/a	red
158.175	1.0167	ITI	n/a	n/a	n/a	n/a	n/a	n/a	n/a	n/a
159.1916	0.5167	FIXCROSS	n/a	n/a	n/a	n/a	n/a	n/a	n/a	n/a
159.7083	0.8667	INK	50	Neutral	xxxxxxxxx	xxxxxxxxx	żółty	yellow	hit	n/a
160.5572	n/a	RESPONSE	n/a	n/a	n/a	n/a	n/a	n/a	n/a	yellow
160.575	1.0167	ITI	n/a	n/a	n/a	n/a	n/a	n/a	n/a	n/a
161.5917	0.5167	FIXCROSS	n/a	n/a	n/a	n/a	n/a	n/a	n/a	n/a
162.1083	0.8667	INK	51	Incongruent	czerwony	red	żółty	yellow	incorrect	n/a
162.9566	n/a	RESPONSE	n/a	n/a	n/a	n/a	n/a	n/a	n/a	red
162.975	1.0167	ITI	n/a	n/a	n/a	n/a	n/a	n/a	n/a	n/a
163.9917	0.5167	FIXCROSS	n/a	n/a	n/a	n/a	n/a	n/a	n/a	n/a
164.5084	1.1667	INK	52	Incongruent	żółty	yellow	zielony	green	hit	n/a
165.6441	n/a	RESPONSE	n/a	n/a	n/a	n/a	n/a	n/a	n/a	green
165.675	1.0167	ITI	n/a	n/a	n/a	n/a	n/a	n/a	n/a	n/a
166.6917	0.5167	FIXCROSS	n/a	n/a	n/a	n/a	n/a	n/a	n/a	n/a
167.2084	0.9833	INK	53	Neutral	xxxxxxx	xxxxxxx	czerwony	red	hit	n/a
168.1715	n/a	RESPONSE	n/a	n/a	n/a	n/a	n/a	n/a	n/a	red
168.1917	1.0167	ITI	n/a	n/a	n/a	n/a	n/a	n/a	n/a	n/a
169.2084	0.5167	FIXCROSS	n/a	n/a	n/a	n/a	n/a	n/a	n/a	n/a
169.7251	0.9167	INK	54	Incongruent	niebieski	blue	żółty	yellow	hit	n/a
170.619	n/a	RESPONSE	n/a	n/a	n/a	n/a	n/a	n/a	n/a	yellow
170.6418	1.0167	ITI	n/a	n/a	n/a	n/a	n/a	n/a	n/a	n/a
171.6584	0.5166	FIXCROSS	n/a	n/a	n/a	n/a	n/a	n/a	n/a	n/a
172.1751	1.2167	INK	55	Incongruent	żółty	yellow	niebieski	blue	hit	n/a
173.3704	n/a	RESPONSE	n/a	n/a	n/a	n/a	n/a	n/a	n/a	blue
173.3918	1.0167	ITI	n/a	n/a	n/a	n/a	n/a	n/a	n/a	n/a
174.4085	0.5167	FIXCROSS	n/a	n/a	n/a	n/a	n/a	n/a	n/a	n/a
174.9252	0.6833	INK	56	Neutral	xxxxxxx	xxxxxxx	czerwony	red	incorrect	n/a
175.578	n/a	RESPONSE	n/a	n/a	n/a	n/a	n/a	n/a	n/a	green
175.6085	1.0167	ITI	n/a	n/a	n/a	n/a	n/a	n/a	n/a	n/a
176.6252	0.5167	FIXCROSS	n/a	n/a	n/a	n/a	n/a	n/a	n/a	n/a
177.1418	1.3834	INK	57	Neutral	xxxxxxxxx	xxxxxxxxx	zielony	green	hit	n/a
178.5053	n/a	RESPONSE	n/a	n/a	n/a	n/a	n/a	n/a	n/a	green
178.5252	1.0167	ITI	n/a	n/a	n/a	n/a	n/a	n/a	n/a	n/a
179.5419	0.5167	FIXCROSS	n/a	n/a	n/a	n/a	n/a	n/a	n/a	n/a
180.0585	1.0	INK	58	Incongruent	zielony	green	czerwony	red	hit	n/a
181.0327	n/a	RESPONSE	n/a	n/a	n/a	n/a	n/a	n/a	n/a	red
181.0586	1.0167	ITI	n/a	n/a	n/a	n/a	n/a	n/a	n/a	n/a
182.0752	0.5167	FIXCROSS	n/a	n/a	n/a	n/a	n/a	n/a	n/a	n/a
182.5919	1.2334	INK	59	Neutral	xxxxxxxx	xxxxxxxx	żółty	yellow	hit	n/a
183.8001	n/a	RESPONSE	n/a	n/a	n/a	n/a	n/a	n/a	n/a	yellow
183.8253	1.0167	ITI	n/a	n/a	n/a	n/a	n/a	n/a	n/a	n/a
184.8419	0.5167	FIXCROSS	n/a	n/a	n/a	n/a	n/a	n/a	n/a	n/a
185.3586	0.8333	INK	60	Incongruent	niebieski	blue	czerwony	red	hit	n/a
186.1676	n/a	RESPONSE	n/a	n/a	n/a	n/a	n/a	n/a	n/a	red
186.192	1.0167	ITI	n/a	n/a	n/a	n/a	n/a	n/a	n/a	n/a
187.2086	0.5167	FIXCROSS	n/a	n/a	n/a	n/a	n/a	n/a	n/a	n/a
187.7253	0.85	INK	61	Incongruent	niebieski	blue	zielony	green	hit	n/a
188.5511	n/a	RESPONSE	n/a	n/a	n/a	n/a	n/a	n/a	n/a	green
188.5753	1.0167	ITI	n/a	n/a	n/a	n/a	n/a	n/a	n/a	n/a
189.592	0.5167	FIXCROSS	n/a	n/a	n/a	n/a	n/a	n/a	n/a	n/a
190.1087	0.6667	INK	62	Neutral	xxxxxxx	xxxxxxx	żółty	yellow	hit	n/a
190.7426	n/a	RESPONSE	n/a	n/a	n/a	n/a	n/a	n/a	n/a	yellow
190.7753	1.0167	ITI	n/a	n/a	n/a	n/a	n/a	n/a	n/a	n/a
191.792	0.5167	FIXCROSS	n/a	n/a	n/a	n/a	n/a	n/a	n/a	n/a
192.3087	0.8	INK	63	Neutral	xxxxxxx	xxxxxxx	żółty	yellow	hit	n/a
193.0781	n/a	RESPONSE	n/a	n/a	n/a	n/a	n/a	n/a	n/a	yellow
193.1087	1.0167	ITI	n/a	n/a	n/a	n/a	n/a	n/a	n/a	n/a
194.1254	0.5167	FIXCROSS	n/a	n/a	n/a	n/a	n/a	n/a	n/a	n/a
194.642	0.7167	INK	64	Neutral	xxxxxxxxx	xxxxxxxxx	zielony	green	hit	n/a
195.3336	n/a	RESPONSE	n/a	n/a	n/a	n/a	n/a	n/a	n/a	green
195.3587	1.0167	ITI	n/a	n/a	n/a	n/a	n/a	n/a	n/a	n/a
196.3754	0.5167	FIXCROSS	n/a	n/a	n/a	n/a	n/a	n/a	n/a	n/a
196.8921	0.7167	INK	65	Neutral	xxxxxxxxx	xxxxxxxxx	czerwony	red	hit	n/a
197.5892	n/a	RESPONSE	n/a	n/a	n/a	n/a	n/a	n/a	n/a	red
197.6087	1.0167	ITI	n/a	n/a	n/a	n/a	n/a	n/a	n/a	n/a
198.6254	0.5167	FIXCROSS	n/a	n/a	n/a	n/a	n/a	n/a	n/a	n/a
199.1421	0.8167	INK	66	Incongruent	żółty	yellow	czerwony	red	hit	n/a
199.9406	n/a	RESPONSE	n/a	n/a	n/a	n/a	n/a	n/a	n/a	red
199.9588	1.0167	ITI	n/a	n/a	n/a	n/a	n/a	n/a	n/a	n/a
200.9755	0.5167	FIXCROSS	n/a	n/a	n/a	n/a	n/a	n/a	n/a	n/a
201.4921	1.2334	INK	67	Incongruent	zielony	green	żółty	yellow	hit	n/a
202.692	n/a	RESPONSE	n/a	n/a	n/a	n/a	n/a	n/a	n/a	yellow
202.7255	1.0167	ITI	n/a	n/a	n/a	n/a	n/a	n/a	n/a	n/a
203.7422	0.5167	FIXCROSS	n/a	n/a	n/a	n/a	n/a	n/a	n/a	n/a
204.2588	0.8333	INK	68	Neutral	xxxxxxx	xxxxxxx	niebieski	blue	hit	n/a
205.0595	n/a	RESPONSE	n/a	n/a	n/a	n/a	n/a	n/a	n/a	blue
205.0922	1.0167	ITI	n/a	n/a	n/a	n/a	n/a	n/a	n/a	n/a
206.1088	0.5167	FIXCROSS	n/a	n/a	n/a	n/a	n/a	n/a	n/a	n/a
206.6255	1.0167	INK	69	Neutral	xxxxxxxxx	xxxxxxxxx	żółty	yellow	hit	n/a
207.619	n/a	RESPONSE	n/a	n/a	n/a	n/a	n/a	n/a	n/a	yellow
207.6422	1.0167	ITI	n/a	n/a	n/a	n/a	n/a	n/a	n/a	n/a
208.6589	0.5167	FIXCROSS	n/a	n/a	n/a	n/a	n/a	n/a	n/a	n/a
209.1755	0.7167	INK	70	Neutral	xxxxx	xxxxx	niebieski	blue	hit	n/a
209.8585	n/a	RESPONSE	n/a	n/a	n/a	n/a	n/a	n/a	n/a	blue
209.8922	1.0167	ITI	n/a	n/a	n/a	n/a	n/a	n/a	n/a	n/a
210.9089	0.5167	FIXCROSS	n/a	n/a	n/a	n/a	n/a	n/a	n/a	n/a
211.4256	0.6833	INK	71	Incongruent	niebieski	blue	czerwony	red	hit	n/a
212.082	n/a	RESPONSE	n/a	n/a	n/a	n/a	n/a	n/a	n/a	red
212.1089	1.0167	ITI	n/a	n/a	n/a	n/a	n/a	n/a	n/a	n/a
213.1256	0.5167	FIXCROSS	n/a	n/a	n/a	n/a	n/a	n/a	n/a	n/a
213.6423	0.6833	INK	72	Neutral	xxxxx	xxxxx	zielony	green	hit	n/a
214.2895	n/a	RESPONSE	n/a	n/a	n/a	n/a	n/a	n/a	n/a	green
214.3256	1.0833	ITI	n/a	n/a	n/a	n/a	n/a	n/a	n/a	n/a
221.424	n/a	RESPONSE	n/a	n/a	n/a	n/a	n/a	n/a	n/a	n/a
221.4757	1.0104	ITI	n/a	n/a	n/a	n/a	n/a	n/a	n/a	n/a
222.4861	0.523	FIXCROSS	n/a	n/a	n/a	n/a	n/a	n/a	n/a	n/a
223.009	2.5334	T_COLOR_NAME	1	Neutral	zielony	green	Neutral	Neutral	hit	n/a
225.5191	n/a	RESPONSE	n/a	n/a	n/a	n/a	n/a	n/a	n/a	green
225.5424	0.5167	FEEDBACK	n/a	n/a	n/a	n/a	n/a	n/a	n/a	n/a
226.0591	1.0167	ITI	n/a	n/a	n/a	n/a	n/a	n/a	n/a	n/a
227.0758	0.5167	FIXCROSS	n/a	n/a	n/a	n/a	n/a	n/a	n/a	n/a
227.5924	0.9167	T_COLOR_NAME	2	Neutral	niebieski	blue	Neutral	Neutral	hit	n/a
228.4785	n/a	RESPONSE	n/a	n/a	n/a	n/a	n/a	n/a	n/a	blue
228.5091	0.5167	FEEDBACK	n/a	n/a	n/a	n/a	n/a	n/a	n/a	n/a
229.0258	1.0167	ITI	n/a	n/a	n/a	n/a	n/a	n/a	n/a	n/a
230.0425	0.5167	FIXCROSS	n/a	n/a	n/a	n/a	n/a	n/a	n/a	n/a
230.5591	0.8	T_COLOR_NAME	3	Neutral	zielony	green	Neutral	Neutral	hit	n/a
231.3258	n/a	RESPONSE	n/a	n/a	n/a	n/a	n/a	n/a	n/a	green
231.3591	0.5167	FEEDBACK	n/a	n/a	n/a	n/a	n/a	n/a	n/a	n/a
231.8758	1.0167	ITI	n/a	n/a	n/a	n/a	n/a	n/a	n/a	n/a
232.8925	0.5167	FIXCROSS	n/a	n/a	n/a	n/a	n/a	n/a	n/a	n/a
233.4092	1.45	T_COLOR_NAME	4	Neutral	żółty	yellow	Neutral	Neutral	hit	n/a
234.8291	n/a	RESPONSE	n/a	n/a	n/a	n/a	n/a	n/a	n/a	yellow
234.8592	0.5167	FEEDBACK	n/a	n/a	n/a	n/a	n/a	n/a	n/a	n/a
235.3759	1.0167	ITI	n/a	n/a	n/a	n/a	n/a	n/a	n/a	n/a
236.3925	0.5167	FIXCROSS	n/a	n/a	n/a	n/a	n/a	n/a	n/a	n/a
236.9092	0.65	T_COLOR_NAME	5	Neutral	czerwony	red	Neutral	Neutral	hit	n/a
237.5325	n/a	RESPONSE	n/a	n/a	n/a	n/a	n/a	n/a	n/a	red
237.5592	0.5167	FEEDBACK	n/a	n/a	n/a	n/a	n/a	n/a	n/a	n/a
238.0759	1.0167	ITI	n/a	n/a	n/a	n/a	n/a	n/a	n/a	n/a
239.0926	0.5167	FIXCROSS	n/a	n/a	n/a	n/a	n/a	n/a	n/a	n/a
239.6092	2.5667	T_COLOR_NAME	6	Incongruent	zielony	green	niebieski	blue	hit	n/a
242.1555	n/a	RESPONSE	n/a	n/a	n/a	n/a	n/a	n/a	n/a	green
242.1759	0.5167	FEEDBACK	n/a	n/a	n/a	n/a	n/a	n/a	n/a	n/a
242.6926	1.0167	ITI	n/a	n/a	n/a	n/a	n/a	n/a	n/a	n/a
243.7093	0.5167	FIXCROSS	n/a	n/a	n/a	n/a	n/a	n/a	n/a	n/a
244.226	1.0833	T_COLOR_NAME	7	Neutral	niebieski	blue	Neutral	Neutral	hit	n/a
245.2748	n/a	RESPONSE	n/a	n/a	n/a	n/a	n/a	n/a	n/a	blue
245.3093	0.5167	FEEDBACK	n/a	n/a	n/a	n/a	n/a	n/a	n/a	n/a
245.826	1.0167	ITI	n/a	n/a	n/a	n/a	n/a	n/a	n/a	n/a
246.8427	0.5167	FIXCROSS	n/a	n/a	n/a	n/a	n/a	n/a	n/a	n/a
247.3593	1.7	T_COLOR_NAME	8	Incongruent	zielony	green	żółty	yellow	hit	n/a
249.034	n/a	RESPONSE	n/a	n/a	n/a	n/a	n/a	n/a	n/a	green
249.0593	0.5167	FEEDBACK	n/a	n/a	n/a	n/a	n/a	n/a	n/a	n/a
249.576	1.0167	ITI	n/a	n/a	n/a	n/a	n/a	n/a	n/a	n/a
250.5927	0.5167	FIXCROSS	n/a	n/a	n/a	n/a	n/a	n/a	n/a	n/a
251.1094	0.6333	T_COLOR_NAME	9	Neutral	czerwony	red	Neutral	Neutral	hit	n/a
251.7214	n/a	RESPONSE	n/a	n/a	n/a	n/a	n/a	n/a	n/a	red
251.7427	0.5167	FEEDBACK	n/a	n/a	n/a	n/a	n/a	n/a	n/a	n/a
252.2594	1.0167	ITI	n/a	n/a	n/a	n/a	n/a	n/a	n/a	n/a
253.2761	0.5167	FIXCROSS	n/a	n/a	n/a	n/a	n/a	n/a	n/a	n/a
253.7927	1.1167	T_COLOR_NAME	10	Neutral	niebieski	blue	Neutral	Neutral	hit	n/a
254.8887	n/a	RESPONSE	n/a	n/a	n/a	n/a	n/a	n/a	n/a	blue
254.9094	0.5167	FEEDBACK	n/a	n/a	n/a	n/a	n/a	n/a	n/a	n/a
255.4261	1.0167	ITI	n/a	n/a	n/a	n/a	n/a	n/a	n/a	n/a
256.4428	0.5167	FIXCROSS	n/a	n/a	n/a	n/a	n/a	n/a	n/a	n/a
256.9594	1.1	T_COLOR_NAME	11	Incongruent	żółty	yellow	czerwony	red	hit	n/a
258.0401	n/a	RESPONSE	n/a	n/a	n/a	n/a	n/a	n/a	n/a	yellow
258.0594	0.5167	FEEDBACK	n/a	n/a	n/a	n/a	n/a	n/a	n/a	n/a
258.5761	1.0167	ITI	n/a	n/a	n/a	n/a	n/a	n/a	n/a	n/a
259.5928	0.5167	FIXCROSS	n/a	n/a	n/a	n/a	n/a	n/a	n/a	n/a
260.1095	1.1334	T_COLOR_NAME	12	Incongruent	żółty	yellow	niebieski	blue	hit	n/a
261.2234	n/a	RESPONSE	n/a	n/a	n/a	n/a	n/a	n/a	n/a	yellow
261.2428	0.5167	FEEDBACK	n/a	n/a	n/a	n/a	n/a	n/a	n/a	n/a
261.7595	1.0334	ITI	n/a	n/a	n/a	n/a	n/a	n/a	n/a	n/a
263.9588	n/a	RESPONSE	n/a	n/a	n/a	n/a	n/a	n/a	n/a	n/a
264.0262	1.0167	ITI	n/a	n/a	n/a	n/a	n/a	n/a	n/a	n/a
265.0429	0.5167	FIXCROSS	n/a	n/a	n/a	n/a	n/a	n/a	n/a	n/a
265.5595	0.95	COLOR_NAME	1	Incongruent	niebieski	blue	zielony	green	hit	n/a
266.4862	n/a	RESPONSE	n/a	n/a	n/a	n/a	n/a	n/a	n/a	blue
266.5096	1.0167	ITI	n/a	n/a	n/a	n/a	n/a	n/a	n/a	n/a
267.5262	0.5167	FIXCROSS	n/a	n/a	n/a	n/a	n/a	n/a	n/a	n/a
268.0429	0.65	COLOR_NAME	2	Incongruent	niebieski	blue	żółty	yellow	hit	n/a
268.6618	n/a	RESPONSE	n/a	n/a	n/a	n/a	n/a	n/a	n/a	blue
268.6929	1.0167	ITI	n/a	n/a	n/a	n/a	n/a	n/a	n/a	n/a
269.7096	0.5167	FIXCROSS	n/a	n/a	n/a	n/a	n/a	n/a	n/a	n/a
270.2263	0.7333	COLOR_NAME	3	Neutral	czerwony	red	Neutral	Neutral	hit	n/a
270.9333	n/a	RESPONSE	n/a	n/a	n/a	n/a	n/a	n/a	n/a	red
270.9596	1.0167	ITI	n/a	n/a	n/a	n/a	n/a	n/a	n/a	n/a
271.9763	0.5167	FIXCROSS	n/a	n/a	n/a	n/a	n/a	n/a	n/a	n/a
272.4929	0.85	COLOR_NAME	4	Incongruent	niebieski	blue	czerwony	red	hit	n/a
273.3168	n/a	RESPONSE	n/a	n/a	n/a	n/a	n/a	n/a	n/a	blue
273.343	1.0167	ITI	n/a	n/a	n/a	n/a	n/a	n/a	n/a	n/a
274.3596	0.5167	FIXCROSS	n/a	n/a	n/a	n/a	n/a	n/a	n/a	n/a
274.8763	1.7333	COLOR_NAME	5	Incongruent	żółty	yellow	zielony	green	hit	n/a
276.58	n/a	RESPONSE	n/a	n/a	n/a	n/a	n/a	n/a	n/a	yellow
276.6097	1.0167	ITI	n/a	n/a	n/a	n/a	n/a	n/a	n/a	n/a
277.6263	0.5167	FIXCROSS	n/a	n/a	n/a	n/a	n/a	n/a	n/a	n/a
278.143	0.6333	COLOR_NAME	6	Neutral	czerwony	red	Neutral	Neutral	hit	n/a
278.7555	n/a	RESPONSE	n/a	n/a	n/a	n/a	n/a	n/a	n/a	red
278.7764	1.0167	ITI	n/a	n/a	n/a	n/a	n/a	n/a	n/a	n/a
279.793	0.5167	FIXCROSS	n/a	n/a	n/a	n/a	n/a	n/a	n/a	n/a
280.3097	0.5667	COLOR_NAME	7	Neutral	niebieski	blue	Neutral	Neutral	hit	n/a
280.8511	n/a	RESPONSE	n/a	n/a	n/a	n/a	n/a	n/a	n/a	blue
280.8764	1.0167	ITI	n/a	n/a	n/a	n/a	n/a	n/a	n/a	n/a
281.8931	0.5167	FIXCROSS	n/a	n/a	n/a	n/a	n/a	n/a	n/a	n/a
282.4097	0.5833	COLOR_NAME	8	Neutral	niebieski	blue	Neutral	Neutral	hit	n/a
282.9626	n/a	RESPONSE	n/a	n/a	n/a	n/a	n/a	n/a	n/a	blue
282.9931	1.0167	ITI	n/a	n/a	n/a	n/a	n/a	n/a	n/a	n/a
284.0098	0.5167	FIXCROSS	n/a	n/a	n/a	n/a	n/a	n/a	n/a	n/a
284.5264	1.3833	COLOR_NAME	9	Neutral	zielony	green	Neutral	Neutral	hit	n/a
285.89	n/a	RESPONSE	n/a	n/a	n/a	n/a	n/a	n/a	n/a	green
285.9098	1.0167	ITI	n/a	n/a	n/a	n/a	n/a	n/a	n/a	n/a
286.9264	0.5167	FIXCROSS	n/a	n/a	n/a	n/a	n/a	n/a	n/a	n/a
286.9618	n/a	RESPONSE	n/a	n/a	n/a	n/a	n/a	n/a	n/a	green
287.4431	1.05	COLOR_NAME	10	Incongruent	zielony	green	czerwony	red	hit	n/a
288.4654	n/a	RESPONSE	n/a	n/a	n/a	n/a	n/a	n/a	n/a	green
288.4931	1.0167	ITI	n/a	n/a	n/a	n/a	n/a	n/a	n/a	n/a
289.5098	0.5167	FIXCROSS	n/a	n/a	n/a	n/a	n/a	n/a	n/a	n/a
290.0265	0.75	COLOR_NAME	11	Neutral	czerwony	red	Neutral	Neutral	hit	n/a
290.753	n/a	RESPONSE	n/a	n/a	n/a	n/a	n/a	n/a	n/a	red
290.7765	1.0167	ITI	n/a	n/a	n/a	n/a	n/a	n/a	n/a	n/a
291.7932	0.5167	FIXCROSS	n/a	n/a	n/a	n/a	n/a	n/a	n/a	n/a
292.3099	0.8667	COLOR_NAME	12	Neutral	niebieski	blue	Neutral	Neutral	hit	n/a
293.1524	n/a	RESPONSE	n/a	n/a	n/a	n/a	n/a	n/a	n/a	blue
293.1765	1.0167	ITI	n/a	n/a	n/a	n/a	n/a	n/a	n/a	n/a
294.1932	0.5167	FIXCROSS	n/a	n/a	n/a	n/a	n/a	n/a	n/a	n/a
294.7099	0.95	COLOR_NAME	13	Neutral	zielony	green	Neutral	Neutral	hit	n/a
295.6319	n/a	RESPONSE	n/a	n/a	n/a	n/a	n/a	n/a	n/a	green
295.6599	1.0167	ITI	n/a	n/a	n/a	n/a	n/a	n/a	n/a	n/a
296.6766	0.5167	FIXCROSS	n/a	n/a	n/a	n/a	n/a	n/a	n/a	n/a
297.1932	0.8	COLOR_NAME	14	Neutral	żółty	yellow	Neutral	Neutral	hit	n/a
297.9674	n/a	RESPONSE	n/a	n/a	n/a	n/a	n/a	n/a	n/a	yellow
297.9932	1.0167	ITI	n/a	n/a	n/a	n/a	n/a	n/a	n/a	n/a
299.0099	0.5167	FIXCROSS	n/a	n/a	n/a	n/a	n/a	n/a	n/a	n/a
299.5266	0.7167	COLOR_NAME	15	Incongruent	czerwony	red	niebieski	blue	hit	n/a
300.2229	n/a	RESPONSE	n/a	n/a	n/a	n/a	n/a	n/a	n/a	red
300.2433	1.0167	ITI	n/a	n/a	n/a	n/a	n/a	n/a	n/a	n/a
301.2599	0.5167	FIXCROSS	n/a	n/a	n/a	n/a	n/a	n/a	n/a	n/a
301.7766	1.2167	COLOR_NAME	16	Neutral	zielony	green	Neutral	Neutral	hit	n/a
302.9743	n/a	RESPONSE	n/a	n/a	n/a	n/a	n/a	n/a	n/a	green
302.9933	1.0167	ITI	n/a	n/a	n/a	n/a	n/a	n/a	n/a	n/a
304.01	0.5167	FIXCROSS	n/a	n/a	n/a	n/a	n/a	n/a	n/a	n/a
304.5267	0.6333	COLOR_NAME	17	Neutral	czerwony	red	Neutral	Neutral	hit	n/a
305.1338	n/a	RESPONSE	n/a	n/a	n/a	n/a	n/a	n/a	n/a	red
305.16	1.0167	ITI	n/a	n/a	n/a	n/a	n/a	n/a	n/a	n/a
306.1767	0.5167	FIXCROSS	n/a	n/a	n/a	n/a	n/a	n/a	n/a	n/a
306.6933	1.1167	COLOR_NAME	18	Neutral	żółty	yellow	Neutral	Neutral	hit	n/a
307.7892	n/a	RESPONSE	n/a	n/a	n/a	n/a	n/a	n/a	n/a	yellow
307.81	1.0167	ITI	n/a	n/a	n/a	n/a	n/a	n/a	n/a	n/a
308.8267	0.5167	FIXCROSS	n/a	n/a	n/a	n/a	n/a	n/a	n/a	n/a
309.3434	0.8167	COLOR_NAME	19	Incongruent	czerwony	red	żółty	yellow	hit	n/a
310.1407	n/a	RESPONSE	n/a	n/a	n/a	n/a	n/a	n/a	n/a	red
310.16	1.0167	ITI	n/a	n/a	n/a	n/a	n/a	n/a	n/a	n/a
311.1767	0.5167	FIXCROSS	n/a	n/a	n/a	n/a	n/a	n/a	n/a	n/a
311.6934	1.3667	COLOR_NAME	20	Incongruent	zielony	green	czerwony	red	hit	n/a
313.0361	n/a	RESPONSE	n/a	n/a	n/a	n/a	n/a	n/a	n/a	green
313.0601	1.0167	ITI	n/a	n/a	n/a	n/a	n/a	n/a	n/a	n/a
314.0768	0.5167	FIXCROSS	n/a	n/a	n/a	n/a	n/a	n/a	n/a	n/a
314.5934	1.0167	COLOR_NAME	21	Incongruent	zielony	green	żółty	yellow	hit	n/a
315.5796	n/a	RESPONSE	n/a	n/a	n/a	n/a	n/a	n/a	n/a	green
315.6101	1.0167	ITI	n/a	n/a	n/a	n/a	n/a	n/a	n/a	n/a
316.6268	0.5167	FIXCROSS	n/a	n/a	n/a	n/a	n/a	n/a	n/a	n/a
317.1435	0.8834	COLOR_NAME	22	Incongruent	żółty	yellow	czerwony	red	hit	n/a
317.995	n/a	RESPONSE	n/a	n/a	n/a	n/a	n/a	n/a	n/a	yellow
318.0268	1.0167	ITI	n/a	n/a	n/a	n/a	n/a	n/a	n/a	n/a
319.0435	0.5167	FIXCROSS	n/a	n/a	n/a	n/a	n/a	n/a	n/a	n/a
319.5602	0.8167	COLOR_NAME	23	Neutral	niebieski	blue	Neutral	Neutral	hit	n/a
320.3465	n/a	RESPONSE	n/a	n/a	n/a	n/a	n/a	n/a	n/a	blue
320.3768	1.0167	ITI	n/a	n/a	n/a	n/a	n/a	n/a	n/a	n/a
321.3935	0.5167	FIXCROSS	n/a	n/a	n/a	n/a	n/a	n/a	n/a	n/a
321.9102	0.8	COLOR_NAME	24	Incongruent	zielony	green	niebieski	blue	hit	n/a
322.682	n/a	RESPONSE	n/a	n/a	n/a	n/a	n/a	n/a	n/a	green
322.7102	1.0167	ITI	n/a	n/a	n/a	n/a	n/a	n/a	n/a	n/a
323.7269	0.5167	FIXCROSS	n/a	n/a	n/a	n/a	n/a	n/a	n/a	n/a
324.2435	0.5833	COLOR_NAME	25	Neutral	zielony	green	Neutral	Neutral	hit	n/a
324.7936	n/a	RESPONSE	n/a	n/a	n/a	n/a	n/a	n/a	n/a	green
324.8269	1.0167	ITI	n/a	n/a	n/a	n/a	n/a	n/a	n/a	n/a
325.8436	0.5167	FIXCROSS	n/a	n/a	n/a	n/a	n/a	n/a	n/a	n/a
326.3602	0.7667	COLOR_NAME	26	Neutral	niebieski	blue	Neutral	Neutral	hit	n/a
327.0971	n/a	RESPONSE	n/a	n/a	n/a	n/a	n/a	n/a	n/a	blue
327.1269	1.0167	ITI	n/a	n/a	n/a	n/a	n/a	n/a	n/a	n/a
328.1436	0.5167	FIXCROSS	n/a	n/a	n/a	n/a	n/a	n/a	n/a	n/a
328.6603	0.6834	COLOR_NAME	27	Incongruent	czerwony	red	niebieski	blue	hit	n/a
329.3206	n/a	RESPONSE	n/a	n/a	n/a	n/a	n/a	n/a	n/a	red
329.3436	1.0167	ITI	n/a	n/a	n/a	n/a	n/a	n/a	n/a	n/a
330.3603	0.5167	FIXCROSS	n/a	n/a	n/a	n/a	n/a	n/a	n/a	n/a
330.877	0.6333	COLOR_NAME	28	Neutral	czerwony	red	Neutral	Neutral	hit	n/a
331.4801	n/a	RESPONSE	n/a	n/a	n/a	n/a	n/a	n/a	n/a	red
331.5103	1.0167	ITI	n/a	n/a	n/a	n/a	n/a	n/a	n/a	n/a
332.527	0.5167	FIXCROSS	n/a	n/a	n/a	n/a	n/a	n/a	n/a	n/a
333.0436	0.6667	COLOR_NAME	29	Neutral	niebieski	blue	Neutral	Neutral	hit	n/a
333.6877	n/a	RESPONSE	n/a	n/a	n/a	n/a	n/a	n/a	n/a	blue
333.7103	1.0167	ITI	n/a	n/a	n/a	n/a	n/a	n/a	n/a	n/a
334.727	0.5167	FIXCROSS	n/a	n/a	n/a	n/a	n/a	n/a	n/a	n/a
335.2437	0.6167	COLOR_NAME	30	Neutral	zielony	green	Neutral	Neutral	hit	n/a
335.8312	n/a	RESPONSE	n/a	n/a	n/a	n/a	n/a	n/a	n/a	green
335.8603	1.0167	ITI	n/a	n/a	n/a	n/a	n/a	n/a	n/a	n/a
336.877	0.5167	FIXCROSS	n/a	n/a	n/a	n/a	n/a	n/a	n/a	n/a
337.3937	0.6333	COLOR_NAME	31	Neutral	żółty	yellow	Neutral	Neutral	hit	n/a
338.0067	n/a	RESPONSE	n/a	n/a	n/a	n/a	n/a	n/a	n/a	yellow
338.027	1.0167	ITI	n/a	n/a	n/a	n/a	n/a	n/a	n/a	n/a
339.0437	0.5167	FIXCROSS	n/a	n/a	n/a	n/a	n/a	n/a	n/a	n/a
339.5604	0.6333	COLOR_NAME	32	Incongruent	niebieski	blue	zielony	green	incorrect	n/a
340.1662	n/a	RESPONSE	n/a	n/a	n/a	n/a	n/a	n/a	n/a	green
340.1937	1.0167	ITI	n/a	n/a	n/a	n/a	n/a	n/a	n/a	n/a
341.2104	0.5167	FIXCROSS	n/a	n/a	n/a	n/a	n/a	n/a	n/a	n/a
341.7271	0.7	COLOR_NAME	33	Neutral	czerwony	red	Neutral	Neutral	hit	n/a
342.4058	n/a	RESPONSE	n/a	n/a	n/a	n/a	n/a	n/a	n/a	red
342.4271	1.0167	ITI	n/a	n/a	n/a	n/a	n/a	n/a	n/a	n/a
343.4438	0.5167	FIXCROSS	n/a	n/a	n/a	n/a	n/a	n/a	n/a	n/a
343.9604	0.6333	COLOR_NAME	34	Neutral	czerwony	red	Neutral	Neutral	hit	n/a
344.5653	n/a	RESPONSE	n/a	n/a	n/a	n/a	n/a	n/a	n/a	red
344.5938	1.0167	ITI	n/a	n/a	n/a	n/a	n/a	n/a	n/a	n/a
344.7732	n/a	RESPONSE	n/a	n/a	n/a	n/a	n/a	n/a	n/a	red
345.6105	0.5167	FIXCROSS	n/a	n/a	n/a	n/a	n/a	n/a	n/a	n/a
346.1271	0.6333	COLOR_NAME	35	Incongruent	żółty	yellow	zielony	green	hit	n/a
346.7408	n/a	RESPONSE	n/a	n/a	n/a	n/a	n/a	n/a	n/a	yellow
346.7605	1.0166	ITI	n/a	n/a	n/a	n/a	n/a	n/a	n/a	n/a
347.7771	0.5167	FIXCROSS	n/a	n/a	n/a	n/a	n/a	n/a	n/a	n/a
348.2938	0.7333	COLOR_NAME	36	Neutral	żółty	yellow	Neutral	Neutral	hit	n/a
348.9963	n/a	RESPONSE	n/a	n/a	n/a	n/a	n/a	n/a	n/a	yellow
349.0272	1.0167	ITI	n/a	n/a	n/a	n/a	n/a	n/a	n/a	n/a
350.0438	0.5167	FIXCROSS	n/a	n/a	n/a	n/a	n/a	n/a	n/a	n/a
350.5605	0.6	COLOR_NAME	37	Incongruent	czerwony	red	zielony	green	hit	n/a
351.1399	n/a	RESPONSE	n/a	n/a	n/a	n/a	n/a	n/a	n/a	red
351.1605	1.0167	ITI	n/a	n/a	n/a	n/a	n/a	n/a	n/a	n/a
352.1772	0.5167	FIXCROSS	n/a	n/a	n/a	n/a	n/a	n/a	n/a	n/a
352.6939	1.2	COLOR_NAME	38	Incongruent	żółty	yellow	czerwony	red	hit	n/a
353.8753	n/a	RESPONSE	n/a	n/a	n/a	n/a	n/a	n/a	n/a	yellow
353.8939	1.0167	ITI	n/a	n/a	n/a	n/a	n/a	n/a	n/a	n/a
354.9106	0.5167	FIXCROSS	n/a	n/a	n/a	n/a	n/a	n/a	n/a	n/a
355.4272	0.6333	COLOR_NAME	39	Neutral	żółty	yellow	Neutral	Neutral	hit	n/a
356.0348	n/a	RESPONSE	n/a	n/a	n/a	n/a	n/a	n/a	n/a	yellow
356.0606	1.0167	ITI	n/a	n/a	n/a	n/a	n/a	n/a	n/a	n/a
357.0773	0.5167	FIXCROSS	n/a	n/a	n/a	n/a	n/a	n/a	n/a	n/a
357.5939	1.0833	COLOR_NAME	40	Incongruent	niebieski	blue	czerwony	red	hit	n/a
358.6582	n/a	RESPONSE	n/a	n/a	n/a	n/a	n/a	n/a	n/a	blue
358.6773	1.0167	ITI	n/a	n/a	n/a	n/a	n/a	n/a	n/a	n/a
359.694	0.5167	FIXCROSS	n/a	n/a	n/a	n/a	n/a	n/a	n/a	n/a
360.2106	0.5667	COLOR_NAME	41	Incongruent	żółty	yellow	zielony	green	incorrect	n/a
360.7538	n/a	RESPONSE	n/a	n/a	n/a	n/a	n/a	n/a	n/a	green
360.7773	1.0167	ITI	n/a	n/a	n/a	n/a	n/a	n/a	n/a	n/a
361.794	0.5167	FIXCROSS	n/a	n/a	n/a	n/a	n/a	n/a	n/a	n/a
362.3107	0.6667	COLOR_NAME	42	Incongruent	czerwony	red	żółty	yellow	hit	n/a
362.9453	n/a	RESPONSE	n/a	n/a	n/a	n/a	n/a	n/a	n/a	red
362.9773	1.0167	ITI	n/a	n/a	n/a	n/a	n/a	n/a	n/a	n/a
363.994	0.5167	FIXCROSS	n/a	n/a	n/a	n/a	n/a	n/a	n/a	n/a
364.5107	0.75	COLOR_NAME	43	Neutral	czerwony	red	Neutral	Neutral	hit	n/a
365.2328	n/a	RESPONSE	n/a	n/a	n/a	n/a	n/a	n/a	n/a	red
365.2607	1.0167	ITI	n/a	n/a	n/a	n/a	n/a	n/a	n/a	n/a
366.2774	0.5167	FIXCROSS	n/a	n/a	n/a	n/a	n/a	n/a	n/a	n/a
366.794	0.9167	COLOR_NAME	44	Incongruent	niebieski	blue	zielony	green	hit	n/a
367.6802	n/a	RESPONSE	n/a	n/a	n/a	n/a	n/a	n/a	n/a	blue
367.7107	1.0167	ITI	n/a	n/a	n/a	n/a	n/a	n/a	n/a	n/a
368.7274	0.5167	FIXCROSS	n/a	n/a	n/a	n/a	n/a	n/a	n/a	n/a
369.2441	0.95	COLOR_NAME	45	Incongruent	zielony	green	niebieski	blue	hit	n/a
370.1757	n/a	RESPONSE	n/a	n/a	n/a	n/a	n/a	n/a	n/a	green
370.1941	1.0167	ITI	n/a	n/a	n/a	n/a	n/a	n/a	n/a	n/a
371.2108	0.5167	FIXCROSS	n/a	n/a	n/a	n/a	n/a	n/a	n/a	n/a
371.7274	0.5833	COLOR_NAME	46	Incongruent	czerwony	red	zielony	green	hit	n/a
372.2873	n/a	RESPONSE	n/a	n/a	n/a	n/a	n/a	n/a	n/a	red
372.3108	1.0167	ITI	n/a	n/a	n/a	n/a	n/a	n/a	n/a	n/a
373.3274	0.5167	FIXCROSS	n/a	n/a	n/a	n/a	n/a	n/a	n/a	n/a
373.8441	0.7667	COLOR_NAME	47	Incongruent	żółty	yellow	niebieski	blue	hit	n/a
374.5908	n/a	RESPONSE	n/a	n/a	n/a	n/a	n/a	n/a	n/a	yellow
374.6108	1.0167	ITI	n/a	n/a	n/a	n/a	n/a	n/a	n/a	n/a
375.6275	0.5167	FIXCROSS	n/a	n/a	n/a	n/a	n/a	n/a	n/a	n/a
376.1441	0.9167	COLOR_NAME	48	Incongruent	żółty	yellow	niebieski	blue	hit	n/a
377.0382	n/a	RESPONSE	n/a	n/a	n/a	n/a	n/a	n/a	n/a	yellow
377.0608	1.0167	ITI	n/a	n/a	n/a	n/a	n/a	n/a	n/a	n/a
378.0775	0.5167	FIXCROSS	n/a	n/a	n/a	n/a	n/a	n/a	n/a	n/a
378.5942	0.5167	COLOR_NAME	49	Neutral	żółty	yellow	Neutral	Neutral	hit	n/a
379.0858	n/a	RESPONSE	n/a	n/a	n/a	n/a	n/a	n/a	n/a	yellow
379.1108	1.0167	ITI	n/a	n/a	n/a	n/a	n/a	n/a	n/a	n/a
380.1275	0.5167	FIXCROSS	n/a	n/a	n/a	n/a	n/a	n/a	n/a	n/a
380.6442	0.8167	COLOR_NAME	50	Incongruent	żółty	yellow	czerwony	red	hit	n/a
381.4373	n/a	RESPONSE	n/a	n/a	n/a	n/a	n/a	n/a	n/a	yellow
381.4609	1.0167	ITI	n/a	n/a	n/a	n/a	n/a	n/a	n/a	n/a
382.4775	0.5167	FIXCROSS	n/a	n/a	n/a	n/a	n/a	n/a	n/a	n/a
382.9942	0.8667	COLOR_NAME	51	Neutral	żółty	yellow	Neutral	Neutral	hit	n/a
383.8367	n/a	RESPONSE	n/a	n/a	n/a	n/a	n/a	n/a	n/a	yellow
383.8609	1.0167	ITI	n/a	n/a	n/a	n/a	n/a	n/a	n/a	n/a
384.8776	0.5167	FIXCROSS	n/a	n/a	n/a	n/a	n/a	n/a	n/a	n/a
385.3943	0.6167	COLOR_NAME	52	Incongruent	zielony	green	czerwony	red	hit	n/a
385.9803	n/a	RESPONSE	n/a	n/a	n/a	n/a	n/a	n/a	n/a	green
386.0109	1.0167	ITI	n/a	n/a	n/a	n/a	n/a	n/a	n/a	n/a
387.0276	0.5167	FIXCROSS	n/a	n/a	n/a	n/a	n/a	n/a	n/a	n/a
387.5443	0.5333	COLOR_NAME	53	Neutral	zielony	green	Neutral	Neutral	hit	n/a
388.0598	n/a	RESPONSE	n/a	n/a	n/a	n/a	n/a	n/a	n/a	green
388.0776	1.0167	ITI	n/a	n/a	n/a	n/a	n/a	n/a	n/a	n/a
389.0943	0.5167	FIXCROSS	n/a	n/a	n/a	n/a	n/a	n/a	n/a	n/a
389.611	0.9167	COLOR_NAME	54	Neutral	niebieski	blue	Neutral	Neutral	hit	n/a
390.5073	n/a	RESPONSE	n/a	n/a	n/a	n/a	n/a	n/a	n/a	blue
390.5276	1.0167	ITI	n/a	n/a	n/a	n/a	n/a	n/a	n/a	n/a
391.5443	0.5167	FIXCROSS	n/a	n/a	n/a	n/a	n/a	n/a	n/a	n/a
392.061	0.5667	COLOR_NAME	55	Neutral	zielony	green	Neutral	Neutral	hit	n/a
392.6029	n/a	RESPONSE	n/a	n/a	n/a	n/a	n/a	n/a	n/a	green
392.6277	1.0167	ITI	n/a	n/a	n/a	n/a	n/a	n/a	n/a	n/a
393.6443	0.5167	FIXCROSS	n/a	n/a	n/a	n/a	n/a	n/a	n/a	n/a
394.161	0.7833	COLOR_NAME	56	Neutral	żółty	yellow	Neutral	Neutral	hit	n/a
394.9223	n/a	RESPONSE	n/a	n/a	n/a	n/a	n/a	n/a	n/a	yellow
394.9444	1.0167	ITI	n/a	n/a	n/a	n/a	n/a	n/a	n/a	n/a
395.961	0.5167	FIXCROSS	n/a	n/a	n/a	n/a	n/a	n/a	n/a	n/a
396.4777	0.8333	COLOR_NAME	57	Incongruent	zielony	green	żółty	yellow	hit	n/a
397.2898	n/a	RESPONSE	n/a	n/a	n/a	n/a	n/a	n/a	n/a	green
397.3111	1.0167	ITI	n/a	n/a	n/a	n/a	n/a	n/a	n/a	n/a
398.3277	0.5167	FIXCROSS	n/a	n/a	n/a	n/a	n/a	n/a	n/a	n/a
398.8444	0.9833	COLOR_NAME	58	Incongruent	żółty	yellow	niebieski	blue	hit	n/a
399.8013	n/a	RESPONSE	n/a	n/a	n/a	n/a	n/a	n/a	n/a	yellow
399.8278	1.0167	ITI	n/a	n/a	n/a	n/a	n/a	n/a	n/a	n/a
400.8444	0.5167	FIXCROSS	n/a	n/a	n/a	n/a	n/a	n/a	n/a	n/a
401.3611	1.05	COLOR_NAME	59	Neutral	żółty	yellow	Neutral	Neutral	hit	n/a
402.3927	n/a	RESPONSE	n/a	n/a	n/a	n/a	n/a	n/a	n/a	yellow
402.4111	1.0167	ITI	n/a	n/a	n/a	n/a	n/a	n/a	n/a	n/a
403.4278	0.5167	FIXCROSS	n/a	n/a	n/a	n/a	n/a	n/a	n/a	n/a
403.9445	0.6333	COLOR_NAME	60	Incongruent	czerwony	red	zielony	green	hit	n/a
404.5523	n/a	RESPONSE	n/a	n/a	n/a	n/a	n/a	n/a	n/a	red
404.5778	1.0167	ITI	n/a	n/a	n/a	n/a	n/a	n/a	n/a	n/a
405.5945	0.5167	FIXCROSS	n/a	n/a	n/a	n/a	n/a	n/a	n/a	n/a
406.1111	0.7	COLOR_NAME	61	Incongruent	czerwony	red	żółty	yellow	hit	n/a
406.7758	n/a	RESPONSE	n/a	n/a	n/a	n/a	n/a	n/a	n/a	red
406.8112	1.0167	ITI	n/a	n/a	n/a	n/a	n/a	n/a	n/a	n/a
407.8278	0.5167	FIXCROSS	n/a	n/a	n/a	n/a	n/a	n/a	n/a	n/a
408.3445	0.5	COLOR_NAME	62	Incongruent	czerwony	red	niebieski	blue	hit	n/a
408.8233	n/a	RESPONSE	n/a	n/a	n/a	n/a	n/a	n/a	n/a	red
408.8445	1.0167	ITI	n/a	n/a	n/a	n/a	n/a	n/a	n/a	n/a
409.8612	0.5167	FIXCROSS	n/a	n/a	n/a	n/a	n/a	n/a	n/a	n/a
410.3779	0.9	COLOR_NAME	63	Incongruent	niebieski	blue	czerwony	red	hit	n/a
411.2548	n/a	RESPONSE	n/a	n/a	n/a	n/a	n/a	n/a	n/a	blue
411.2779	1.0167	ITI	n/a	n/a	n/a	n/a	n/a	n/a	n/a	n/a
412.2946	0.5167	FIXCROSS	n/a	n/a	n/a	n/a	n/a	n/a	n/a	n/a
412.8112	0.8667	COLOR_NAME	64	Neutral	zielony	green	Neutral	Neutral	hit	n/a
413.6543	n/a	RESPONSE	n/a	n/a	n/a	n/a	n/a	n/a	n/a	green
413.6779	1.0167	ITI	n/a	n/a	n/a	n/a	n/a	n/a	n/a	n/a
414.6946	0.5167	FIXCROSS	n/a	n/a	n/a	n/a	n/a	n/a	n/a	n/a
415.2113	0.65	COLOR_NAME	65	Neutral	czerwony	red	Neutral	Neutral	hit	n/a
415.8298	n/a	RESPONSE	n/a	n/a	n/a	n/a	n/a	n/a	n/a	red
415.8613	1.0167	ITI	n/a	n/a	n/a	n/a	n/a	n/a	n/a	n/a
416.8779	0.5167	FIXCROSS	n/a	n/a	n/a	n/a	n/a	n/a	n/a	n/a
417.3946	1.8	COLOR_NAME	66	Neutral	zielony	green	Neutral	Neutral	hit	n/a
419.1731	n/a	RESPONSE	n/a	n/a	n/a	n/a	n/a	n/a	n/a	green
419.1946	1.0167	ITI	n/a	n/a	n/a	n/a	n/a	n/a	n/a	n/a
420.2113	0.5167	FIXCROSS	n/a	n/a	n/a	n/a	n/a	n/a	n/a	n/a
420.728	0.6833	COLOR_NAME	67	Neutral	niebieski	blue	Neutral	Neutral	incorrect	n/a
421.3806	n/a	RESPONSE	n/a	n/a	n/a	n/a	n/a	n/a	n/a	red
421.4113	1.0167	ITI	n/a	n/a	n/a	n/a	n/a	n/a	n/a	n/a
422.428	0.5167	FIXCROSS	n/a	n/a	n/a	n/a	n/a	n/a	n/a	n/a
422.9447	0.8167	COLOR_NAME	68	Incongruent	zielony	green	żółty	yellow	hit	n/a
423.7321	n/a	RESPONSE	n/a	n/a	n/a	n/a	n/a	n/a	n/a	green
423.7614	1.0167	ITI	n/a	n/a	n/a	n/a	n/a	n/a	n/a	n/a
424.778	0.5167	FIXCROSS	n/a	n/a	n/a	n/a	n/a	n/a	n/a	n/a
425.2947	1.05	COLOR_NAME	69	Neutral	niebieski	blue	Neutral	Neutral	hit	n/a
426.3235	n/a	RESPONSE	n/a	n/a	n/a	n/a	n/a	n/a	n/a	blue
426.3447	1.0167	ITI	n/a	n/a	n/a	n/a	n/a	n/a	n/a	n/a
427.3614	0.5167	FIXCROSS	n/a	n/a	n/a	n/a	n/a	n/a	n/a	n/a
427.8781	0.9667	COLOR_NAME	70	Incongruent	niebieski	blue	żółty	yellow	hit	n/a
428.819	n/a	RESPONSE	n/a	n/a	n/a	n/a	n/a	n/a	n/a	blue
428.8448	1.0167	ITI	n/a	n/a	n/a	n/a	n/a	n/a	n/a	n/a
429.8614	0.5167	FIXCROSS	n/a	n/a	n/a	n/a	n/a	n/a	n/a	n/a
430.3781	0.6667	COLOR_NAME	71	Incongruent	zielony	green	niebieski	blue	hit	n/a
431.0265	n/a	RESPONSE	n/a	n/a	n/a	n/a	n/a	n/a	n/a	green
431.0448	1.0167	ITI	n/a	n/a	n/a	n/a	n/a	n/a	n/a	n/a
432.0614	0.5167	FIXCROSS	n/a	n/a	n/a	n/a	n/a	n/a	n/a	n/a
432.5781	0.8333	COLOR_NAME	72	Incongruent	niebieski	blue	żółty	yellow	hit	n/a
433.378	n/a	RESPONSE	n/a	n/a	n/a	n/a	n/a	n/a	n/a	blue
433.4115	1.0333	ITI	n/a	n/a	n/a	n/a	n/a	n/a	n/a	n/a
435.8575	n/a	RESPONSE	n/a	n/a	n/a	n/a	n/a	n/a	n/a	n/a
