onset	duration	trial_type	braille_stimulus	targets	response_count
2.018	2.008	CUE_REST	n/a	n/a	n/a
7.018	1.008	FIXCROSS	n/a	n/a	n/a
13.068	1.008	FIXCROSS	n/a	n/a	n/a
21.127	2.008	CUE_6_DOT	n/a	n/a	n/a
26.127	1.008	FIXCROSS	n/a	n/a	n/a
27.143	5.008	6_DOT_DETECTION	K#OBU	1	n/a
29.584	n/a	RESPONSE	n/a	n/a	1/1
32.177	1.008	FIXCROSS	n/a	n/a	n/a
33.193	5.008	6_DOT_DETECTION	##BYM	2	n/a
38.227	1.008	FIXCROSS	n/a	n/a	n/a
39.243	5.009	6_DOT_DETECTION	#MOI#	2	n/a
43.344	n/a	RESPONSE	n/a	n/a	1/2
44.277	1.008	FIXCROSS	n/a	n/a	n/a
45.293	5.008	6_DOT_DETECTION	PBC#O	1	n/a
48.144	n/a	RESPONSE	n/a	n/a	1/1
49.984	n/a	RESPONSE	n/a	n/a	2/1
50.327	1.008	FIXCROSS	n/a	n/a	n/a
51.343	5.008	6_DOT_DETECTION	#CSDŁ	1	n/a
54.16	n/a	RESPONSE	n/a	n/a	1/1
56.377	1.008	FIXCROSS	n/a	n/a	n/a
57.393	5.008	6_DOT_DETECTION	TMPLP	0	n/a
61.48	n/a	RESPONSE	n/a	n/a	1/0
62.427	1.008	FIXCROSS	n/a	n/a	n/a
63.443	5.009	6_DOT_DETECTION	PIK#S	1	n/a
67.424	n/a	RESPONSE	n/a	n/a	1/1
68.477	1.008	FIXCROSS	n/a	n/a	n/a
69.493	5.009	6_DOT_DETECTION	##PUK	2	n/a
71.424	n/a	RESPONSE	n/a	n/a	1/2
72.48	n/a	RESPONSE	n/a	n/a	2/2
76.035	2.008	CUE_REST	n/a	n/a	n/a
82.535	1.008	FIXCROSS	n/a	n/a	n/a
88.585	1.008	FIXCROSS	n/a	n/a	n/a
95.644	2.008	CUE_6_DOT	n/a	n/a	n/a
100.644	1.008	FIXCROSS	n/a	n/a	n/a
101.66	5.008	6_DOT_DETECTION	#PYL#	2	n/a
103.28	n/a	RESPONSE	n/a	n/a	1/2
106.424	n/a	RESPONSE	n/a	n/a	2/2
106.694	1.008	FIXCROSS	n/a	n/a	n/a
107.71	5.008	6_DOT_DETECTION	#LOB#	2	n/a
109.464	n/a	RESPONSE	n/a	n/a	1/2
111.64	n/a	RESPONSE	n/a	n/a	2/2
112.744	1.008	FIXCROSS	n/a	n/a	n/a
113.76	5.008	6_DOT_DETECTION	KKBDB	0	n/a
118.794	1.008	FIXCROSS	n/a	n/a	n/a
119.81	5.008	6_DOT_DETECTION	#MOC#	2	n/a
121.304	n/a	RESPONSE	n/a	n/a	1/2
123.984	n/a	RESPONSE	n/a	n/a	2/2
124.844	1.008	FIXCROSS	n/a	n/a	n/a
125.86	5.008	6_DOT_DETECTION	OYOEL	0	n/a
130.894	1.008	FIXCROSS	n/a	n/a	n/a
131.91	5.009	6_DOT_DETECTION	UICCI	0	n/a
136.944	1.008	FIXCROSS	n/a	n/a	n/a
137.96	5.008	6_DOT_DETECTION	YYSAT	0	n/a
142.994	1.008	FIXCROSS	n/a	n/a	n/a
144.01	5.008	6_DOT_DETECTION	ŁEB##	2	n/a
147.144	n/a	RESPONSE	n/a	n/a	1/2
148.424	n/a	RESPONSE	n/a	n/a	2/2
150.552	2.008	CUE_REST	n/a	n/a	n/a
155.052	1.008	FIXCROSS	n/a	n/a	n/a
161.102	1.008	FIXCROSS	n/a	n/a	n/a
168.66	2.008	CUE_6_DOT	n/a	n/a	n/a
175.16	1.008	FIXCROSS	n/a	n/a	n/a
176.176	5.009	6_DOT_DETECTION	ILE#A	1	n/a
179.04	n/a	RESPONSE	n/a	n/a	1/1
181.21	1.008	FIXCROSS	n/a	n/a	n/a
182.227	5.008	6_DOT_DETECTION	#ULU#	2	n/a
183.424	n/a	RESPONSE	n/a	n/a	1/2
185.68	n/a	RESPONSE	n/a	n/a	2/2
187.26	1.008	FIXCROSS	n/a	n/a	n/a
188.277	5.008	6_DOT_DETECTION	OŁKKŁ	0	n/a
193.31	1.008	FIXCROSS	n/a	n/a	n/a
194.326	5.009	6_DOT_DETECTION	ŁBY##	2	n/a
196.184	n/a	RESPONSE	n/a	n/a	1/2
197.64	n/a	RESPONSE	n/a	n/a	2/2
198.72	n/a	RESPONSE	n/a	n/a	3/2
199.36	1.008	FIXCROSS	n/a	n/a	n/a
200.377	5.008	6_DOT_DETECTION	UTCKE	0	n/a
205.41	1.008	FIXCROSS	n/a	n/a	n/a
206.427	5.008	6_DOT_DETECTION	T#ŁUK	1	n/a
208.744	n/a	RESPONSE	n/a	n/a	1/1
211.46	1.008	FIXCROSS	n/a	n/a	n/a
212.477	5.008	6_DOT_DETECTION	ALCBC	0	n/a
217.51	1.008	FIXCROSS	n/a	n/a	n/a
218.527	5.009	6_DOT_DETECTION	MOL#I	1	n/a
221.2	n/a	RESPONSE	n/a	n/a	1/1
225.569	2.008	CUE_REST	n/a	n/a	n/a
229.569	1.008	FIXCROSS	n/a	n/a	n/a
235.619	1.008	FIXCROSS	n/a	n/a	n/a
243.677	2.008	CUE_6_DOT	n/a	n/a	n/a
249.677	1.008	FIXCROSS	n/a	n/a	n/a
250.694	5.008	6_DOT_DETECTION	ELKYB	0	n/a
255.727	1.008	FIXCROSS	n/a	n/a	n/a
256.744	5.008	6_DOT_DETECTION	CUI#A	1	n/a
259.304	n/a	RESPONSE	n/a	n/a	1/1
261.777	1.008	FIXCROSS	n/a	n/a	n/a
262.794	5.008	6_DOT_DETECTION	A#KŁA	1	n/a
264.64	n/a	RESPONSE	n/a	n/a	1/1
267.827	1.008	FIXCROSS	n/a	n/a	n/a
268.844	5.008	6_DOT_DETECTION	#DCBK	1	n/a
269.76	n/a	RESPONSE	n/a	n/a	1/1
273.877	1.008	FIXCROSS	n/a	n/a	n/a
274.894	5.008	6_DOT_DETECTION	DAL#S	1	n/a
277.584	n/a	RESPONSE	n/a	n/a	1/1
279.927	1.008	FIXCROSS	n/a	n/a	n/a
280.944	5.008	6_DOT_DETECTION	CLCLK	0	n/a
285.977	1.008	FIXCROSS	n/a	n/a	n/a
286.994	5.009	6_DOT_DETECTION	DDLYC	0	n/a
290.144	n/a	RESPONSE	n/a	n/a	1/0
292.027	1.008	FIXCROSS	n/a	n/a	n/a
293.044	5.009	6_DOT_DETECTION	CLU#L	1	n/a
297.544	n/a	RESPONSE	n/a	n/a	1/1
299.086	2.008	CUE_REST	n/a	n/a	n/a
305.086	1.008	FIXCROSS	n/a	n/a	n/a
311.136	1.008	FIXCROSS	n/a	n/a	n/a
318.694	2.008	CUE_6_DOT	n/a	n/a	n/a
324.194	1.008	FIXCROSS	n/a	n/a	n/a
325.211	5.008	6_DOT_DETECTION	CEP##	2	n/a
328.48	n/a	RESPONSE	n/a	n/a	1/2
329.504	n/a	RESPONSE	n/a	n/a	2/2
330.244	1.008	FIXCROSS	n/a	n/a	n/a
331.261	5.008	6_DOT_DETECTION	BOM##	2	n/a
334.504	n/a	RESPONSE	n/a	n/a	1/2
335.264	n/a	RESPONSE	n/a	n/a	2/2
336.294	1.008	FIXCROSS	n/a	n/a	n/a
337.311	5.008	6_DOT_DETECTION	PIŁ##	2	n/a
340.304	n/a	RESPONSE	n/a	n/a	1/2
341.304	n/a	RESPONSE	n/a	n/a	2/2
342.344	1.008	FIXCROSS	n/a	n/a	n/a
343.361	5.008	6_DOT_DETECTION	Ł#BCO	1	n/a
346.16	n/a	RESPONSE	n/a	n/a	1/1
348.394	1.008	FIXCROSS	n/a	n/a	n/a
349.411	5.008	6_DOT_DETECTION	##DAŁ	2	n/a
350.704	n/a	RESPONSE	n/a	n/a	1/2
351.8	n/a	RESPONSE	n/a	n/a	2/2
354.444	1.008	FIXCROSS	n/a	n/a	n/a
355.46	5.009	6_DOT_DETECTION	A#KAT	1	n/a
357.176	n/a	RESPONSE	n/a	n/a	1/1
360.494	1.008	FIXCROSS	n/a	n/a	n/a
361.511	5.008	6_DOT_DETECTION	##LOT	2	n/a
362.76	n/a	RESPONSE	n/a	n/a	1/2
364.08	n/a	RESPONSE	n/a	n/a	2/2
366.544	1.008	FIXCROSS	n/a	n/a	n/a
367.56	5.009	6_DOT_DETECTION	ITPCY	0	n/a
372.416	n/a	RESPONSE	n/a	n/a	1/0
373.603	2.008	CUE_REST	n/a	n/a	n/a
380.603	1.008	FIXCROSS	n/a	n/a	n/a
386.653	1.008	FIXCROSS	n/a	n/a	n/a
393.711	2.008	CUE_6_DOT	n/a	n/a	n/a
398.711	1.008	FIXCROSS	n/a	n/a	n/a
399.728	5.008	6_DOT_DETECTION	EDDCK	0	n/a
404.761	1.008	FIXCROSS	n/a	n/a	n/a
405.777	5.009	6_DOT_DETECTION	##MUS	2	n/a
407.016	n/a	RESPONSE	n/a	n/a	1/2
408.496	n/a	RESPONSE	n/a	n/a	2/2
410.811	1.008	FIXCROSS	n/a	n/a	n/a
411.828	5.008	6_DOT_DETECTION	AMUPT	0	n/a
416.861	1.008	FIXCROSS	n/a	n/a	n/a
417.877	5.009	6_DOT_DETECTION	LEDLB	0	n/a
422.911	1.008	FIXCROSS	n/a	n/a	n/a
423.928	5.008	6_DOT_DETECTION	UKPBB	0	n/a
428.961	1.008	FIXCROSS	n/a	n/a	n/a
429.978	5.008	6_DOT_DETECTION	DL#KU	1	n/a
434.28	n/a	RESPONSE	n/a	n/a	1/1
435.011	1.008	FIXCROSS	n/a	n/a	n/a
436.028	5.008	6_DOT_DETECTION	PSEIP	0	n/a
441.061	1.008	FIXCROSS	n/a	n/a	n/a
442.077	5.009	6_DOT_DETECTION	E#CEL	1	n/a
443.8	n/a	RESPONSE	n/a	n/a	1/1
