onset	duration	trial_type	trial_number	stroop_condition	stim_text(PL)	stim_text(eng)	stim_color(PL)	stim_color(eng)	response_type	response_color
0.0	n/a	RESPONSE	n/a	n/a	n/a	n/a	n/a	n/a	n/a	n/a
0.0222	1.0166	ITI	n/a	n/a	n/a	n/a	n/a	n/a	n/a	n/a
1.0388	0.5	FIXCROSS	n/a	n/a	n/a	n/a	n/a	n/a	n/a	n/a
1.5388	1.4	T_INK	1	Neutral	xxxxxxx	xxxxxxx	niebieski	blue	hit	n/a
2.9257	n/a	RESPONSE	n/a	n/a	n/a	n/a	n/a	n/a	n/a	blue
2.9388	0.5	FEEDBACK	n/a	n/a	n/a	n/a	n/a	n/a	n/a	n/a
3.4388	1.0	ITI	n/a	n/a	n/a	n/a	n/a	n/a	n/a	n/a
4.4388	0.5	FIXCROSS	n/a	n/a	n/a	n/a	n/a	n/a	n/a	n/a
4.9388	0.7333	T_INK	2	Neutral	xxxxxxxx	xxxxxxxx	niebieski	blue	hit	n/a
5.6597	n/a	RESPONSE	n/a	n/a	n/a	n/a	n/a	n/a	n/a	blue
5.6721	0.5	FEEDBACK	n/a	n/a	n/a	n/a	n/a	n/a	n/a	n/a
6.1721	1.0	ITI	n/a	n/a	n/a	n/a	n/a	n/a	n/a	n/a
7.172	0.5	FIXCROSS	n/a	n/a	n/a	n/a	n/a	n/a	n/a	n/a
7.672	1.8166	T_INK	3	Incongruent	zielony	green	żółty	yellow	hit	n/a
9.4809	n/a	RESPONSE	n/a	n/a	n/a	n/a	n/a	n/a	n/a	yellow
9.4887	0.5	FEEDBACK	n/a	n/a	n/a	n/a	n/a	n/a	n/a	n/a
9.9887	1.0	ITI	n/a	n/a	n/a	n/a	n/a	n/a	n/a	n/a
10.9886	0.5	FIXCROSS	n/a	n/a	n/a	n/a	n/a	n/a	n/a	n/a
11.4886	1.7833	T_INK	4	Incongruent	czerwony	red	żółty	yellow	hit	n/a
13.2541	n/a	RESPONSE	n/a	n/a	n/a	n/a	n/a	n/a	n/a	yellow
13.2719	0.5	FEEDBACK	n/a	n/a	n/a	n/a	n/a	n/a	n/a	n/a
13.7719	1.0	ITI	n/a	n/a	n/a	n/a	n/a	n/a	n/a	n/a
14.7719	0.5	FIXCROSS	n/a	n/a	n/a	n/a	n/a	n/a	n/a	n/a
15.2719	1.65	T_INK	5	Neutral	xxxxxxxxx	xxxxxxxxx	zielony	green	hit	n/a
16.9154	n/a	RESPONSE	n/a	n/a	n/a	n/a	n/a	n/a	n/a	green
16.9219	0.5	FEEDBACK	n/a	n/a	n/a	n/a	n/a	n/a	n/a	n/a
17.4219	1.0	ITI	n/a	n/a	n/a	n/a	n/a	n/a	n/a	n/a
18.4218	0.5	FIXCROSS	n/a	n/a	n/a	n/a	n/a	n/a	n/a	n/a
18.9218	0.85	T_INK	6	Neutral	xxxxxxxx	xxxxxxxx	żółty	yellow	hit	n/a
19.7613	n/a	RESPONSE	n/a	n/a	n/a	n/a	n/a	n/a	n/a	yellow
19.7718	0.5	FEEDBACK	n/a	n/a	n/a	n/a	n/a	n/a	n/a	n/a
20.2718	1.0166	ITI	n/a	n/a	n/a	n/a	n/a	n/a	n/a	n/a
21.2885	0.5	FIXCROSS	n/a	n/a	n/a	n/a	n/a	n/a	n/a	n/a
21.7884	1.1167	T_INK	7	Incongruent	żółty	yellow	niebieski	blue	hit	n/a
22.895	n/a	RESPONSE	n/a	n/a	n/a	n/a	n/a	n/a	n/a	blue
22.9051	0.5	FEEDBACK	n/a	n/a	n/a	n/a	n/a	n/a	n/a	n/a
23.4051	1.0	ITI	n/a	n/a	n/a	n/a	n/a	n/a	n/a	n/a
24.4051	0.5	FIXCROSS	n/a	n/a	n/a	n/a	n/a	n/a	n/a	n/a
24.905	0.8833	T_INK	8	Incongruent	zielony	green	czerwony	red	hit	n/a
25.7728	n/a	RESPONSE	n/a	n/a	n/a	n/a	n/a	n/a	n/a	red
25.7884	0.5	FEEDBACK	n/a	n/a	n/a	n/a	n/a	n/a	n/a	n/a
26.2884	1.0	ITI	n/a	n/a	n/a	n/a	n/a	n/a	n/a	n/a
27.2883	0.5	FIXCROSS	n/a	n/a	n/a	n/a	n/a	n/a	n/a	n/a
27.7883	0.7833	T_INK	9	Neutral	xxxxxxxxx	xxxxxxxxx	żółty	yellow	hit	n/a
28.5547	n/a	RESPONSE	n/a	n/a	n/a	n/a	n/a	n/a	n/a	yellow
28.5717	0.5	FEEDBACK	n/a	n/a	n/a	n/a	n/a	n/a	n/a	n/a
29.0716	1.0	ITI	n/a	n/a	n/a	n/a	n/a	n/a	n/a	n/a
30.0716	0.5	FIXCROSS	n/a	n/a	n/a	n/a	n/a	n/a	n/a	n/a
30.5716	1.3666	T_INK	10	Incongruent	żółty	yellow	czerwony	red	hit	n/a
31.9283	n/a	RESPONSE	n/a	n/a	n/a	n/a	n/a	n/a	n/a	red
31.9383	0.5	FEEDBACK	n/a	n/a	n/a	n/a	n/a	n/a	n/a	n/a
32.4382	1.0	ITI	n/a	n/a	n/a	n/a	n/a	n/a	n/a	n/a
33.4382	0.5	FIXCROSS	n/a	n/a	n/a	n/a	n/a	n/a	n/a	n/a
33.9382	0.95	T_INK	11	Neutral	xxxxx	xxxxx	niebieski	blue	hit	n/a
34.8701	n/a	RESPONSE	n/a	n/a	n/a	n/a	n/a	n/a	n/a	blue
34.8882	0.5	FEEDBACK	n/a	n/a	n/a	n/a	n/a	n/a	n/a	n/a
35.3882	1.0	ITI	n/a	n/a	n/a	n/a	n/a	n/a	n/a	n/a
36.3882	0.5	FIXCROSS	n/a	n/a	n/a	n/a	n/a	n/a	n/a	n/a
36.8882	1.0667	T_INK	12	Neutral	xxxxxxxxx	xxxxxxxxx	czerwony	red	hit	n/a
37.9397	n/a	RESPONSE	n/a	n/a	n/a	n/a	n/a	n/a	n/a	red
37.9548	0.5	FEEDBACK	n/a	n/a	n/a	n/a	n/a	n/a	n/a	n/a
38.4548	1.0	ITI	n/a	n/a	n/a	n/a	n/a	n/a	n/a	n/a
44.8626	n/a	RESPONSE	n/a	n/a	n/a	n/a	n/a	n/a	n/a	n/a
44.888	1.0	ITI	n/a	n/a	n/a	n/a	n/a	n/a	n/a	n/a
45.888	0.5	FIXCROSS	n/a	n/a	n/a	n/a	n/a	n/a	n/a	n/a
46.388	0.75	INK	1	Neutral	xxxxx	xxxxx	niebieski	blue	hit	n/a
47.1328	n/a	RESPONSE	n/a	n/a	n/a	n/a	n/a	n/a	n/a	blue
47.138	1.0	ITI	n/a	n/a	n/a	n/a	n/a	n/a	n/a	n/a
48.1379	0.5	FIXCROSS	n/a	n/a	n/a	n/a	n/a	n/a	n/a	n/a
48.6379	0.7167	INK	2	Neutral	xxxxxxx	xxxxxxx	niebieski	blue	hit	n/a
49.3392	n/a	RESPONSE	n/a	n/a	n/a	n/a	n/a	n/a	n/a	blue
49.3546	1.0	ITI	n/a	n/a	n/a	n/a	n/a	n/a	n/a	n/a
50.3546	0.5	FIXCROSS	n/a	n/a	n/a	n/a	n/a	n/a	n/a	n/a
50.8546	1.1333	INK	3	Neutral	xxxxxxxx	xxxxxxxx	zielony	green	hit	n/a
51.9773	n/a	RESPONSE	n/a	n/a	n/a	n/a	n/a	n/a	n/a	green
51.9879	1.0	ITI	n/a	n/a	n/a	n/a	n/a	n/a	n/a	n/a
52.9879	0.5	FIXCROSS	n/a	n/a	n/a	n/a	n/a	n/a	n/a	n/a
53.4879	1.2	INK	4	Incongruent	żółty	yellow	niebieski	blue	hit	n/a
54.6791	n/a	RESPONSE	n/a	n/a	n/a	n/a	n/a	n/a	n/a	blue
54.6878	1.0	ITI	n/a	n/a	n/a	n/a	n/a	n/a	n/a	n/a
55.6878	0.5	FIXCROSS	n/a	n/a	n/a	n/a	n/a	n/a	n/a	n/a
56.1878	1.0	INK	5	Incongruent	zielony	green	żółty	yellow	hit	n/a
57.1732	n/a	RESPONSE	n/a	n/a	n/a	n/a	n/a	n/a	n/a	yellow
57.1878	1.0	ITI	n/a	n/a	n/a	n/a	n/a	n/a	n/a	n/a
58.1878	0.5	FIXCROSS	n/a	n/a	n/a	n/a	n/a	n/a	n/a	n/a
58.6878	0.9833	INK	6	Incongruent	niebieski	blue	czerwony	red	hit	n/a
59.6675	n/a	RESPONSE	n/a	n/a	n/a	n/a	n/a	n/a	n/a	red
59.6711	1.0	ITI	n/a	n/a	n/a	n/a	n/a	n/a	n/a	n/a
60.671	0.5	FIXCROSS	n/a	n/a	n/a	n/a	n/a	n/a	n/a	n/a
61.171	0.8666	INK	7	Incongruent	żółty	yellow	niebieski	blue	hit	n/a
62.0337	n/a	RESPONSE	n/a	n/a	n/a	n/a	n/a	n/a	n/a	blue
62.0377	1.0	ITI	n/a	n/a	n/a	n/a	n/a	n/a	n/a	n/a
63.0377	0.5	FIXCROSS	n/a	n/a	n/a	n/a	n/a	n/a	n/a	n/a
63.5377	1.0666	INK	8	Neutral	xxxxxxx	xxxxxxx	czerwony	red	hit	n/a
64.5918	n/a	RESPONSE	n/a	n/a	n/a	n/a	n/a	n/a	n/a	red
64.6043	1.0	ITI	n/a	n/a	n/a	n/a	n/a	n/a	n/a	n/a
65.6043	0.5	FIXCROSS	n/a	n/a	n/a	n/a	n/a	n/a	n/a	n/a
66.1043	1.1166	INK	9	Incongruent	niebieski	blue	żółty	yellow	hit	n/a
67.2139	n/a	RESPONSE	n/a	n/a	n/a	n/a	n/a	n/a	n/a	yellow
67.2209	1.0	ITI	n/a	n/a	n/a	n/a	n/a	n/a	n/a	n/a
68.2209	0.5	FIXCROSS	n/a	n/a	n/a	n/a	n/a	n/a	n/a	n/a
68.7209	0.9667	INK	10	Incongruent	czerwony	red	zielony	green	hit	n/a
69.6761	n/a	RESPONSE	n/a	n/a	n/a	n/a	n/a	n/a	n/a	green
69.6876	1.0	ITI	n/a	n/a	n/a	n/a	n/a	n/a	n/a	n/a
70.6875	0.5	FIXCROSS	n/a	n/a	n/a	n/a	n/a	n/a	n/a	n/a
71.1875	1.8833	INK	11	Incongruent	żółty	yellow	zielony	green	hit	n/a
73.0656	n/a	RESPONSE	n/a	n/a	n/a	n/a	n/a	n/a	n/a	green
73.0708	1.0	ITI	n/a	n/a	n/a	n/a	n/a	n/a	n/a	n/a
74.0708	0.5	FIXCROSS	n/a	n/a	n/a	n/a	n/a	n/a	n/a	n/a
74.5708	0.7166	INK	12	Incongruent	czerwony	red	niebieski	blue	hit	n/a
75.2719	n/a	RESPONSE	n/a	n/a	n/a	n/a	n/a	n/a	n/a	blue
75.2874	1.0	ITI	n/a	n/a	n/a	n/a	n/a	n/a	n/a	n/a
76.2874	0.5	FIXCROSS	n/a	n/a	n/a	n/a	n/a	n/a	n/a	n/a
76.7874	0.55	INK	13	Neutral	xxxxx	xxxxx	czerwony	red	hit	n/a
77.3344	n/a	RESPONSE	n/a	n/a	n/a	n/a	n/a	n/a	n/a	red
77.3374	1.0	ITI	n/a	n/a	n/a	n/a	n/a	n/a	n/a	n/a
78.3374	0.5	FIXCROSS	n/a	n/a	n/a	n/a	n/a	n/a	n/a	n/a
78.8374	0.6	INK	14	Incongruent	zielony	green	żółty	yellow	hit	n/a
79.4289	n/a	RESPONSE	n/a	n/a	n/a	n/a	n/a	n/a	n/a	yellow
79.4374	1.0	ITI	n/a	n/a	n/a	n/a	n/a	n/a	n/a	n/a
80.4374	0.5	FIXCROSS	n/a	n/a	n/a	n/a	n/a	n/a	n/a	n/a
80.9373	0.6833	INK	15	Incongruent	żółty	yellow	zielony	green	hit	n/a
81.6031	n/a	RESPONSE	n/a	n/a	n/a	n/a	n/a	n/a	n/a	green
81.6207	1.0	ITI	n/a	n/a	n/a	n/a	n/a	n/a	n/a	n/a
82.6206	0.5	FIXCROSS	n/a	n/a	n/a	n/a	n/a	n/a	n/a	n/a
83.1206	1.2833	INK	16	Incongruent	czerwony	red	żółty	yellow	hit	n/a
84.3851	n/a	RESPONSE	n/a	n/a	n/a	n/a	n/a	n/a	n/a	yellow
84.404	1.0	ITI	n/a	n/a	n/a	n/a	n/a	n/a	n/a	n/a
85.4039	0.5	FIXCROSS	n/a	n/a	n/a	n/a	n/a	n/a	n/a	n/a
85.9039	0.7667	INK	17	Neutral	xxxxx	xxxxx	niebieski	blue	hit	n/a
86.6554	n/a	RESPONSE	n/a	n/a	n/a	n/a	n/a	n/a	n/a	blue
86.6706	1.0	ITI	n/a	n/a	n/a	n/a	n/a	n/a	n/a	n/a
87.6705	0.5	FIXCROSS	n/a	n/a	n/a	n/a	n/a	n/a	n/a	n/a
88.1705	0.7833	INK	18	Neutral	xxxxxxx	xxxxxxx	niebieski	blue	hit	n/a
88.9417	n/a	RESPONSE	n/a	n/a	n/a	n/a	n/a	n/a	n/a	blue
88.9539	1.0	ITI	n/a	n/a	n/a	n/a	n/a	n/a	n/a	n/a
89.9538	0.5	FIXCROSS	n/a	n/a	n/a	n/a	n/a	n/a	n/a	n/a
90.4538	0.7833	INK	19	Neutral	xxxxxxxxx	xxxxxxxxx	czerwony	red	hit	n/a
91.2281	n/a	RESPONSE	n/a	n/a	n/a	n/a	n/a	n/a	n/a	red
91.2372	1.0	ITI	n/a	n/a	n/a	n/a	n/a	n/a	n/a	n/a
92.2371	0.5	FIXCROSS	n/a	n/a	n/a	n/a	n/a	n/a	n/a	n/a
92.7371	0.7667	INK	20	Neutral	xxxxxxxxx	xxxxxxxxx	żółty	yellow	hit	n/a
93.4983	n/a	RESPONSE	n/a	n/a	n/a	n/a	n/a	n/a	n/a	yellow
93.5038	1.0	ITI	n/a	n/a	n/a	n/a	n/a	n/a	n/a	n/a
94.5038	0.5	FIXCROSS	n/a	n/a	n/a	n/a	n/a	n/a	n/a	n/a
95.0037	1.2666	INK	21	Neutral	xxxxxxx	xxxxxxx	czerwony	red	hit	n/a
96.2643	n/a	RESPONSE	n/a	n/a	n/a	n/a	n/a	n/a	n/a	red
96.2704	1.0	ITI	n/a	n/a	n/a	n/a	n/a	n/a	n/a	n/a
97.2704	0.5	FIXCROSS	n/a	n/a	n/a	n/a	n/a	n/a	n/a	n/a
97.7704	0.7833	INK	22	Incongruent	zielony	green	czerwony	red	hit	n/a
98.5505	n/a	RESPONSE	n/a	n/a	n/a	n/a	n/a	n/a	n/a	red
98.5537	1.0	ITI	n/a	n/a	n/a	n/a	n/a	n/a	n/a	n/a
99.5537	0.5	FIXCROSS	n/a	n/a	n/a	n/a	n/a	n/a	n/a	n/a
100.0537	0.7333	INK	23	Incongruent	żółty	yellow	czerwony	red	hit	n/a
100.7729	n/a	RESPONSE	n/a	n/a	n/a	n/a	n/a	n/a	n/a	red
100.787	1.0	ITI	n/a	n/a	n/a	n/a	n/a	n/a	n/a	n/a
101.787	0.5	FIXCROSS	n/a	n/a	n/a	n/a	n/a	n/a	n/a	n/a
102.287	1.1833	INK	24	Neutral	xxxxxxxx	xxxxxxxx	zielony	green	hit	n/a
103.459	n/a	RESPONSE	n/a	n/a	n/a	n/a	n/a	n/a	n/a	green
103.4703	1.0	ITI	n/a	n/a	n/a	n/a	n/a	n/a	n/a	n/a
104.4702	0.5	FIXCROSS	n/a	n/a	n/a	n/a	n/a	n/a	n/a	n/a
104.9702	1.0833	INK	25	Incongruent	zielony	green	niebieski	blue	hit	n/a
106.049	n/a	RESPONSE	n/a	n/a	n/a	n/a	n/a	n/a	n/a	blue
106.0536	1.0	ITI	n/a	n/a	n/a	n/a	n/a	n/a	n/a	n/a
107.0535	0.5	FIXCROSS	n/a	n/a	n/a	n/a	n/a	n/a	n/a	n/a
107.5535	1.3166	INK	26	Incongruent	czerwony	red	niebieski	blue	hit	n/a
108.863	n/a	RESPONSE	n/a	n/a	n/a	n/a	n/a	n/a	n/a	blue
108.8702	1.0	ITI	n/a	n/a	n/a	n/a	n/a	n/a	n/a	n/a
109.8701	0.5	FIXCROSS	n/a	n/a	n/a	n/a	n/a	n/a	n/a	n/a
110.3701	0.5833	INK	27	Incongruent	czerwony	red	niebieski	blue	hit	n/a
110.9414	n/a	RESPONSE	n/a	n/a	n/a	n/a	n/a	n/a	n/a	blue
110.9535	1.0	ITI	n/a	n/a	n/a	n/a	n/a	n/a	n/a	n/a
111.9534	0.5	FIXCROSS	n/a	n/a	n/a	n/a	n/a	n/a	n/a	n/a
112.4534	1.0666	INK	28	Neutral	xxxxxxxxx	xxxxxxxxx	zielony	green	hit	n/a
113.5154	n/a	RESPONSE	n/a	n/a	n/a	n/a	n/a	n/a	n/a	green
113.5201	1.0	ITI	n/a	n/a	n/a	n/a	n/a	n/a	n/a	n/a
114.5201	0.5	FIXCROSS	n/a	n/a	n/a	n/a	n/a	n/a	n/a	n/a
115.02	1.0167	INK	29	Incongruent	zielony	green	niebieski	blue	hit	n/a
116.0256	n/a	RESPONSE	n/a	n/a	n/a	n/a	n/a	n/a	n/a	blue
116.0367	1.0	ITI	n/a	n/a	n/a	n/a	n/a	n/a	n/a	n/a
117.0367	0.5	FIXCROSS	n/a	n/a	n/a	n/a	n/a	n/a	n/a	n/a
117.5367	0.85	INK	30	Incongruent	żółty	yellow	czerwony	red	hit	n/a
118.3759	n/a	RESPONSE	n/a	n/a	n/a	n/a	n/a	n/a	n/a	red
118.3867	1.0	ITI	n/a	n/a	n/a	n/a	n/a	n/a	n/a	n/a
119.3866	0.5	FIXCROSS	n/a	n/a	n/a	n/a	n/a	n/a	n/a	n/a
119.8866	0.6667	INK	31	Neutral	xxxxx	xxxxx	czerwony	red	hit	n/a
120.5343	n/a	RESPONSE	n/a	n/a	n/a	n/a	n/a	n/a	n/a	red
120.5533	1.0	ITI	n/a	n/a	n/a	n/a	n/a	n/a	n/a	n/a
121.5533	0.5	FIXCROSS	n/a	n/a	n/a	n/a	n/a	n/a	n/a	n/a
122.0533	0.95	INK	32	Incongruent	czerwony	red	żółty	yellow	hit	n/a
122.9963	n/a	RESPONSE	n/a	n/a	n/a	n/a	n/a	n/a	n/a	yellow
123.0032	1.0	ITI	n/a	n/a	n/a	n/a	n/a	n/a	n/a	n/a
124.0032	0.5	FIXCROSS	n/a	n/a	n/a	n/a	n/a	n/a	n/a	n/a
124.5032	1.2	INK	33	Incongruent	czerwony	red	zielony	green	hit	n/a
125.6984	n/a	RESPONSE	n/a	n/a	n/a	n/a	n/a	n/a	n/a	green
125.7032	1.0	ITI	n/a	n/a	n/a	n/a	n/a	n/a	n/a	n/a
126.7032	0.5	FIXCROSS	n/a	n/a	n/a	n/a	n/a	n/a	n/a	n/a
127.2032	0.7333	INK	34	Incongruent	niebieski	blue	czerwony	red	hit	n/a
127.9207	n/a	RESPONSE	n/a	n/a	n/a	n/a	n/a	n/a	n/a	red
127.9365	1.0	ITI	n/a	n/a	n/a	n/a	n/a	n/a	n/a	n/a
128.9364	0.5	FIXCROSS	n/a	n/a	n/a	n/a	n/a	n/a	n/a	n/a
129.4364	0.55	INK	35	Neutral	xxxxx	xxxxx	niebieski	blue	hit	n/a
129.9832	n/a	RESPONSE	n/a	n/a	n/a	n/a	n/a	n/a	n/a	blue
129.9864	1.0	ITI	n/a	n/a	n/a	n/a	n/a	n/a	n/a	n/a
130.9864	0.5	FIXCROSS	n/a	n/a	n/a	n/a	n/a	n/a	n/a	n/a
131.4864	0.9833	INK	36	Neutral	xxxxxxxxx	xxxxxxxxx	czerwony	red	hit	n/a
132.4612	n/a	RESPONSE	n/a	n/a	n/a	n/a	n/a	n/a	n/a	red
132.4697	1.0	ITI	n/a	n/a	n/a	n/a	n/a	n/a	n/a	n/a
133.4697	0.5	FIXCROSS	n/a	n/a	n/a	n/a	n/a	n/a	n/a	n/a
133.9697	0.7	INK	37	Neutral	xxxxxxx	xxxxxxx	żółty	yellow	hit	n/a
134.6516	n/a	RESPONSE	n/a	n/a	n/a	n/a	n/a	n/a	n/a	yellow
134.6697	1.0	ITI	n/a	n/a	n/a	n/a	n/a	n/a	n/a	n/a
135.6697	0.5	FIXCROSS	n/a	n/a	n/a	n/a	n/a	n/a	n/a	n/a
136.1697	0.75	INK	38	Neutral	xxxxx	xxxxx	zielony	green	hit	n/a
136.9059	n/a	RESPONSE	n/a	n/a	n/a	n/a	n/a	n/a	n/a	green
136.9196	1.0	ITI	n/a	n/a	n/a	n/a	n/a	n/a	n/a	n/a
137.9196	0.5	FIXCROSS	n/a	n/a	n/a	n/a	n/a	n/a	n/a	n/a
138.4196	0.6166	INK	39	Neutral	xxxxxxxxx	xxxxxxxxx	zielony	green	hit	n/a
139.0324	n/a	RESPONSE	n/a	n/a	n/a	n/a	n/a	n/a	n/a	green
139.0363	1.0	ITI	n/a	n/a	n/a	n/a	n/a	n/a	n/a	n/a
140.0362	0.5	FIXCROSS	n/a	n/a	n/a	n/a	n/a	n/a	n/a	n/a
140.5362	0.5833	INK	40	Neutral	xxxxxxxxx	xxxxxxxxx	zielony	green	hit	n/a
141.1108	n/a	RESPONSE	n/a	n/a	n/a	n/a	n/a	n/a	n/a	green
141.1196	1.0	ITI	n/a	n/a	n/a	n/a	n/a	n/a	n/a	n/a
142.1195	0.5	FIXCROSS	n/a	n/a	n/a	n/a	n/a	n/a	n/a	n/a
142.6195	0.6833	INK	41	Incongruent	niebieski	blue	zielony	green	hit	n/a
143.2853	n/a	RESPONSE	n/a	n/a	n/a	n/a	n/a	n/a	n/a	green
143.3029	1.0	ITI	n/a	n/a	n/a	n/a	n/a	n/a	n/a	n/a
144.3028	0.5	FIXCROSS	n/a	n/a	n/a	n/a	n/a	n/a	n/a	n/a
144.8028	0.6833	INK	42	Neutral	xxxxxxxx	xxxxxxxx	niebieski	blue	hit	n/a
145.4756	n/a	RESPONSE	n/a	n/a	n/a	n/a	n/a	n/a	n/a	blue
145.4861	1.0	ITI	n/a	n/a	n/a	n/a	n/a	n/a	n/a	n/a
146.4861	0.5	FIXCROSS	n/a	n/a	n/a	n/a	n/a	n/a	n/a	n/a
146.9861	0.6666	INK	43	Incongruent	niebieski	blue	zielony	green	hit	n/a
147.6499	n/a	RESPONSE	n/a	n/a	n/a	n/a	n/a	n/a	n/a	green
147.6528	1.0	ITI	n/a	n/a	n/a	n/a	n/a	n/a	n/a	n/a
148.6528	0.5	FIXCROSS	n/a	n/a	n/a	n/a	n/a	n/a	n/a	n/a
149.1527	0.5833	INK	44	Incongruent	żółty	yellow	zielony	green	hit	n/a
149.7284	n/a	RESPONSE	n/a	n/a	n/a	n/a	n/a	n/a	n/a	green
149.7361	1.0	ITI	n/a	n/a	n/a	n/a	n/a	n/a	n/a	n/a
150.736	0.5	FIXCROSS	n/a	n/a	n/a	n/a	n/a	n/a	n/a	n/a
151.236	0.65	INK	45	Incongruent	niebieski	blue	żółty	yellow	hit	n/a
151.8708	n/a	RESPONSE	n/a	n/a	n/a	n/a	n/a	n/a	n/a	yellow
151.886	1.0	ITI	n/a	n/a	n/a	n/a	n/a	n/a	n/a	n/a
152.886	0.5	FIXCROSS	n/a	n/a	n/a	n/a	n/a	n/a	n/a	n/a
153.386	0.9833	INK	46	Incongruent	czerwony	red	żółty	yellow	hit	n/a
154.3649	n/a	RESPONSE	n/a	n/a	n/a	n/a	n/a	n/a	n/a	yellow
154.3693	1.0	ITI	n/a	n/a	n/a	n/a	n/a	n/a	n/a	n/a
155.3693	0.5	FIXCROSS	n/a	n/a	n/a	n/a	n/a	n/a	n/a	n/a
155.8693	0.4833	INK	47	Neutral	xxxxxxx	xxxxxxx	czerwony	red	hit	n/a
156.3476	n/a	RESPONSE	n/a	n/a	n/a	n/a	n/a	n/a	n/a	red
156.3526	1.0	ITI	n/a	n/a	n/a	n/a	n/a	n/a	n/a	n/a
157.3526	0.5	FIXCROSS	n/a	n/a	n/a	n/a	n/a	n/a	n/a	n/a
157.8526	0.55	INK	48	Incongruent	żółty	yellow	czerwony	red	hit	n/a
158.3939	n/a	RESPONSE	n/a	n/a	n/a	n/a	n/a	n/a	n/a	red
158.4026	1.0	ITI	n/a	n/a	n/a	n/a	n/a	n/a	n/a	n/a
159.4026	0.5	FIXCROSS	n/a	n/a	n/a	n/a	n/a	n/a	n/a	n/a
159.9026	1.1166	INK	49	Neutral	xxxxxxxx	xxxxxxxx	niebieski	blue	hit	n/a
161.0	n/a	RESPONSE	n/a	n/a	n/a	n/a	n/a	n/a	n/a	blue
161.0192	1.0	ITI	n/a	n/a	n/a	n/a	n/a	n/a	n/a	n/a
162.0192	0.5	FIXCROSS	n/a	n/a	n/a	n/a	n/a	n/a	n/a	n/a
162.5192	0.4667	INK	50	Neutral	xxxxxxx	xxxxxxx	niebieski	blue	hit	n/a
162.9665	n/a	RESPONSE	n/a	n/a	n/a	n/a	n/a	n/a	n/a	blue
162.9858	1.0	ITI	n/a	n/a	n/a	n/a	n/a	n/a	n/a	n/a
163.9858	0.5	FIXCROSS	n/a	n/a	n/a	n/a	n/a	n/a	n/a	n/a
164.4858	1.0667	INK	51	Incongruent	niebieski	blue	żółty	yellow	hit	n/a
165.5406	n/a	RESPONSE	n/a	n/a	n/a	n/a	n/a	n/a	n/a	yellow
165.5524	1.0	ITI	n/a	n/a	n/a	n/a	n/a	n/a	n/a	n/a
166.5524	0.5	FIXCROSS	n/a	n/a	n/a	n/a	n/a	n/a	n/a	n/a
167.0524	0.9667	INK	52	Incongruent	zielony	green	czerwony	red	hit	n/a
168.0028	n/a	RESPONSE	n/a	n/a	n/a	n/a	n/a	n/a	n/a	red
168.0191	1.0	ITI	n/a	n/a	n/a	n/a	n/a	n/a	n/a	n/a
169.0191	0.5	FIXCROSS	n/a	n/a	n/a	n/a	n/a	n/a	n/a	n/a
169.519	0.7666	INK	53	Neutral	xxxxxxxx	xxxxxxxx	żółty	yellow	hit	n/a
170.2731	n/a	RESPONSE	n/a	n/a	n/a	n/a	n/a	n/a	n/a	yellow
170.2857	1.0	ITI	n/a	n/a	n/a	n/a	n/a	n/a	n/a	n/a
171.2857	0.5	FIXCROSS	n/a	n/a	n/a	n/a	n/a	n/a	n/a	n/a
171.7857	0.65	INK	54	Incongruent	zielony	green	żółty	yellow	hit	n/a
172.4314	n/a	RESPONSE	n/a	n/a	n/a	n/a	n/a	n/a	n/a	yellow
172.4356	1.0	ITI	n/a	n/a	n/a	n/a	n/a	n/a	n/a	n/a
173.4356	0.5	FIXCROSS	n/a	n/a	n/a	n/a	n/a	n/a	n/a	n/a
173.9356	0.7833	INK	55	Incongruent	żółty	yellow	niebieski	blue	hit	n/a
174.7018	n/a	RESPONSE	n/a	n/a	n/a	n/a	n/a	n/a	n/a	blue
174.7189	1.0	ITI	n/a	n/a	n/a	n/a	n/a	n/a	n/a	n/a
175.7189	0.5	FIXCROSS	n/a	n/a	n/a	n/a	n/a	n/a	n/a	n/a
176.2189	1.1833	INK	56	Neutral	xxxxxxxx	xxxxxxxx	niebieski	blue	hit	n/a
177.3878	n/a	RESPONSE	n/a	n/a	n/a	n/a	n/a	n/a	n/a	blue
177.4022	1.0	ITI	n/a	n/a	n/a	n/a	n/a	n/a	n/a	n/a
178.4022	0.5	FIXCROSS	n/a	n/a	n/a	n/a	n/a	n/a	n/a	n/a
178.9022	0.7667	INK	57	Neutral	xxxxxxx	xxxxxxx	żółty	yellow	hit	n/a
179.658	n/a	RESPONSE	n/a	n/a	n/a	n/a	n/a	n/a	n/a	yellow
179.6689	1.0	ITI	n/a	n/a	n/a	n/a	n/a	n/a	n/a	n/a
180.6688	0.5	FIXCROSS	n/a	n/a	n/a	n/a	n/a	n/a	n/a	n/a
181.1688	0.8333	INK	58	Incongruent	czerwony	red	zielony	green	hit	n/a
181.9924	n/a	RESPONSE	n/a	n/a	n/a	n/a	n/a	n/a	n/a	green
182.0021	1.0	ITI	n/a	n/a	n/a	n/a	n/a	n/a	n/a	n/a
183.0021	0.5	FIXCROSS	n/a	n/a	n/a	n/a	n/a	n/a	n/a	n/a
183.5021	0.8	INK	59	Neutral	xxxxxxxxx	xxxxxxxxx	żółty	yellow	hit	n/a
184.2946	n/a	RESPONSE	n/a	n/a	n/a	n/a	n/a	n/a	n/a	yellow
184.3021	1.0	ITI	n/a	n/a	n/a	n/a	n/a	n/a	n/a	n/a
185.3021	0.5	FIXCROSS	n/a	n/a	n/a	n/a	n/a	n/a	n/a	n/a
185.8021	0.75	INK	60	Incongruent	niebieski	blue	czerwony	red	hit	n/a
186.533	n/a	RESPONSE	n/a	n/a	n/a	n/a	n/a	n/a	n/a	red
186.5521	1.0	ITI	n/a	n/a	n/a	n/a	n/a	n/a	n/a	n/a
187.552	0.5	FIXCROSS	n/a	n/a	n/a	n/a	n/a	n/a	n/a	n/a
188.052	0.9333	INK	61	Incongruent	niebieski	blue	zielony	green	hit	n/a
188.9792	n/a	RESPONSE	n/a	n/a	n/a	n/a	n/a	n/a	n/a	green
188.9853	1.0	ITI	n/a	n/a	n/a	n/a	n/a	n/a	n/a	n/a
189.9853	0.5	FIXCROSS	n/a	n/a	n/a	n/a	n/a	n/a	n/a	n/a
190.4853	0.6	INK	62	Neutral	xxxxxxxx	xxxxxxxx	zielony	green	hit	n/a
191.0735	n/a	RESPONSE	n/a	n/a	n/a	n/a	n/a	n/a	n/a	green
191.0853	1.0	ITI	n/a	n/a	n/a	n/a	n/a	n/a	n/a	n/a
192.0853	0.5	FIXCROSS	n/a	n/a	n/a	n/a	n/a	n/a	n/a	n/a
192.5853	0.65	INK	63	Incongruent	zielony	green	czerwony	red	hit	n/a
193.232	n/a	RESPONSE	n/a	n/a	n/a	n/a	n/a	n/a	n/a	red
193.2353	1.0	ITI	n/a	n/a	n/a	n/a	n/a	n/a	n/a	n/a
194.2353	0.5	FIXCROSS	n/a	n/a	n/a	n/a	n/a	n/a	n/a	n/a
194.7352	0.4833	INK	64	Neutral	xxxxx	xxxxx	czerwony	red	hit	n/a
195.2144	n/a	RESPONSE	n/a	n/a	n/a	n/a	n/a	n/a	n/a	red
195.2186	1.0	ITI	n/a	n/a	n/a	n/a	n/a	n/a	n/a	n/a
196.2186	0.5	FIXCROSS	n/a	n/a	n/a	n/a	n/a	n/a	n/a	n/a
196.7185	0.6833	INK	65	Neutral	xxxxxxxxx	xxxxxxxxx	żółty	yellow	hit	n/a
197.3888	n/a	RESPONSE	n/a	n/a	n/a	n/a	n/a	n/a	n/a	yellow
197.4019	1.0	ITI	n/a	n/a	n/a	n/a	n/a	n/a	n/a	n/a
198.4018	0.5	FIXCROSS	n/a	n/a	n/a	n/a	n/a	n/a	n/a	n/a
198.9018	0.6166	INK	66	Neutral	xxxxxxxx	xxxxxxxx	żółty	yellow	hit	n/a
199.5153	n/a	RESPONSE	n/a	n/a	n/a	n/a	n/a	n/a	n/a	yellow
199.5185	1.0	ITI	n/a	n/a	n/a	n/a	n/a	n/a	n/a	n/a
200.5185	0.5	FIXCROSS	n/a	n/a	n/a	n/a	n/a	n/a	n/a	n/a
201.0185	0.7166	INK	67	Neutral	xxxxx	xxxxx	zielony	green	hit	n/a
201.7216	n/a	RESPONSE	n/a	n/a	n/a	n/a	n/a	n/a	n/a	green
201.7351	1.0	ITI	n/a	n/a	n/a	n/a	n/a	n/a	n/a	n/a
202.7351	0.5	FIXCROSS	n/a	n/a	n/a	n/a	n/a	n/a	n/a	n/a
203.2351	0.7333	INK	68	Neutral	xxxxxxxxx	xxxxxxxxx	czerwony	red	hit	n/a
203.96	n/a	RESPONSE	n/a	n/a	n/a	n/a	n/a	n/a	n/a	red
203.9684	1.0	ITI	n/a	n/a	n/a	n/a	n/a	n/a	n/a	n/a
204.9684	0.5	FIXCROSS	n/a	n/a	n/a	n/a	n/a	n/a	n/a	n/a
205.4684	0.8833	INK	69	Incongruent	zielony	green	niebieski	blue	hit	n/a
206.3421	n/a	RESPONSE	n/a	n/a	n/a	n/a	n/a	n/a	n/a	blue
206.3517	1.0	ITI	n/a	n/a	n/a	n/a	n/a	n/a	n/a	n/a
207.3517	0.5	FIXCROSS	n/a	n/a	n/a	n/a	n/a	n/a	n/a	n/a
207.8517	0.8833	INK	70	Neutral	xxxxx	xxxxx	zielony	green	hit	n/a
208.7244	n/a	RESPONSE	n/a	n/a	n/a	n/a	n/a	n/a	n/a	green
208.735	1.0	ITI	n/a	n/a	n/a	n/a	n/a	n/a	n/a	n/a
209.735	0.5	FIXCROSS	n/a	n/a	n/a	n/a	n/a	n/a	n/a	n/a
210.235	0.6666	INK	71	Neutral	xxxxxxxx	xxxxxxxx	żółty	yellow	hit	n/a
210.8825	n/a	RESPONSE	n/a	n/a	n/a	n/a	n/a	n/a	n/a	yellow
210.9016	1.0	ITI	n/a	n/a	n/a	n/a	n/a	n/a	n/a	n/a
211.9016	0.5	FIXCROSS	n/a	n/a	n/a	n/a	n/a	n/a	n/a	n/a
212.4016	0.6166	INK	72	Neutral	xxxxxxx	xxxxxxx	żółty	yellow	hit	n/a
213.0089	n/a	RESPONSE	n/a	n/a	n/a	n/a	n/a	n/a	n/a	yellow
213.0182	1.0333	ITI	n/a	n/a	n/a	n/a	n/a	n/a	n/a	n/a
254.9456	n/a	RESPONSE	n/a	n/a	n/a	n/a	n/a	n/a	n/a	n/a
254.9675	1.0	ITI	n/a	n/a	n/a	n/a	n/a	n/a	n/a	n/a
255.9674	0.5	FIXCROSS	n/a	n/a	n/a	n/a	n/a	n/a	n/a	n/a
256.4674	1.1833	T_COLOR_NAME	1	Neutral	niebieski	blue	Neutral	Neutral	hit	n/a
257.6315	n/a	RESPONSE	n/a	n/a	n/a	n/a	n/a	n/a	n/a	blue
257.6507	0.4982	FEEDBACK	n/a	n/a	n/a	n/a	n/a	n/a	n/a	n/a
258.1489	1.0	ITI	n/a	n/a	n/a	n/a	n/a	n/a	n/a	n/a
259.1489	0.5018	FIXCROSS	n/a	n/a	n/a	n/a	n/a	n/a	n/a	n/a
259.6507	0.9	T_COLOR_NAME	2	Neutral	żółty	yellow	Neutral	Neutral	hit	n/a
260.5414	n/a	RESPONSE	n/a	n/a	n/a	n/a	n/a	n/a	n/a	yellow
260.5507	0.5	FEEDBACK	n/a	n/a	n/a	n/a	n/a	n/a	n/a	n/a
261.0507	1.0	ITI	n/a	n/a	n/a	n/a	n/a	n/a	n/a	n/a
262.0507	0.5	FIXCROSS	n/a	n/a	n/a	n/a	n/a	n/a	n/a	n/a
262.5507	1.7833	T_COLOR_NAME	3	Incongruent	zielony	green	czerwony	red	hit	n/a
264.3146	n/a	RESPONSE	n/a	n/a	n/a	n/a	n/a	n/a	n/a	green
264.334	0.5	FEEDBACK	n/a	n/a	n/a	n/a	n/a	n/a	n/a	n/a
264.8339	1.0	ITI	n/a	n/a	n/a	n/a	n/a	n/a	n/a	n/a
265.8339	0.5	FIXCROSS	n/a	n/a	n/a	n/a	n/a	n/a	n/a	n/a
266.3339	1.2833	T_COLOR_NAME	4	Incongruent	czerwony	red	żółty	yellow	hit	n/a
267.6081	n/a	RESPONSE	n/a	n/a	n/a	n/a	n/a	n/a	n/a	red
267.6172	0.5	FEEDBACK	n/a	n/a	n/a	n/a	n/a	n/a	n/a	n/a
268.1172	1.0	ITI	n/a	n/a	n/a	n/a	n/a	n/a	n/a	n/a
269.1172	0.5	FIXCROSS	n/a	n/a	n/a	n/a	n/a	n/a	n/a	n/a
269.6172	0.65	T_COLOR_NAME	5	Neutral	czerwony	red	Neutral	Neutral	hit	n/a
270.2621	n/a	RESPONSE	n/a	n/a	n/a	n/a	n/a	n/a	n/a	red
270.2672	0.5	FEEDBACK	n/a	n/a	n/a	n/a	n/a	n/a	n/a	n/a
270.7672	1.0	ITI	n/a	n/a	n/a	n/a	n/a	n/a	n/a	n/a
271.7672	0.5	FIXCROSS	n/a	n/a	n/a	n/a	n/a	n/a	n/a	n/a
272.2671	0.9833	T_COLOR_NAME	6	Neutral	zielony	green	Neutral	Neutral	hit	n/a
273.2359	n/a	RESPONSE	n/a	n/a	n/a	n/a	n/a	n/a	n/a	green
273.2505	0.5	FEEDBACK	n/a	n/a	n/a	n/a	n/a	n/a	n/a	n/a
273.7505	1.0	ITI	n/a	n/a	n/a	n/a	n/a	n/a	n/a	n/a
274.7504	0.5	FIXCROSS	n/a	n/a	n/a	n/a	n/a	n/a	n/a	n/a
275.2504	1.3666	T_COLOR_NAME	7	Incongruent	żółty	yellow	czerwony	red	hit	n/a
276.6095	n/a	RESPONSE	n/a	n/a	n/a	n/a	n/a	n/a	n/a	yellow
276.6171	0.5	FEEDBACK	n/a	n/a	n/a	n/a	n/a	n/a	n/a	n/a
277.1171	1.0	ITI	n/a	n/a	n/a	n/a	n/a	n/a	n/a	n/a
278.117	0.5	FIXCROSS	n/a	n/a	n/a	n/a	n/a	n/a	n/a	n/a
278.617	0.75	T_COLOR_NAME	8	Neutral	niebieski	blue	Neutral	Neutral	hit	n/a
279.3593	n/a	RESPONSE	n/a	n/a	n/a	n/a	n/a	n/a	n/a	blue
279.367	0.5	FEEDBACK	n/a	n/a	n/a	n/a	n/a	n/a	n/a	n/a
279.867	1.0	ITI	n/a	n/a	n/a	n/a	n/a	n/a	n/a	n/a
280.867	0.5	FIXCROSS	n/a	n/a	n/a	n/a	n/a	n/a	n/a	n/a
281.367	0.6167	T_COLOR_NAME	9	Neutral	niebieski	blue	Neutral	Neutral	hit	n/a
281.9654	n/a	RESPONSE	n/a	n/a	n/a	n/a	n/a	n/a	n/a	blue
281.9836	0.5	FEEDBACK	n/a	n/a	n/a	n/a	n/a	n/a	n/a	n/a
282.4836	1.0	ITI	n/a	n/a	n/a	n/a	n/a	n/a	n/a	n/a
283.4836	0.5	FIXCROSS	n/a	n/a	n/a	n/a	n/a	n/a	n/a	n/a
283.9836	1.3833	T_COLOR_NAME	10	Incongruent	żółty	yellow	niebieski	blue	hit	n/a
285.3548	n/a	RESPONSE	n/a	n/a	n/a	n/a	n/a	n/a	n/a	yellow
285.3669	0.5	FEEDBACK	n/a	n/a	n/a	n/a	n/a	n/a	n/a	n/a
285.8669	1.0	ITI	n/a	n/a	n/a	n/a	n/a	n/a	n/a	n/a
286.8669	0.5	FIXCROSS	n/a	n/a	n/a	n/a	n/a	n/a	n/a	n/a
287.3669	1.35	T_COLOR_NAME	11	Incongruent	zielony	green	żółty	yellow	hit	n/a
288.7123	n/a	RESPONSE	n/a	n/a	n/a	n/a	n/a	n/a	n/a	green
288.7168	0.5	FEEDBACK	n/a	n/a	n/a	n/a	n/a	n/a	n/a	n/a
289.2168	0.9998	ITI	n/a	n/a	n/a	n/a	n/a	n/a	n/a	n/a
290.2167	0.5001	FIXCROSS	n/a	n/a	n/a	n/a	n/a	n/a	n/a	n/a
290.7168	0.7667	T_COLOR_NAME	12	Neutral	czerwony	red	Neutral	Neutral	hit	n/a
291.4782	n/a	RESPONSE	n/a	n/a	n/a	n/a	n/a	n/a	n/a	red
291.4835	0.5	FEEDBACK	n/a	n/a	n/a	n/a	n/a	n/a	n/a	n/a
291.9835	1.0	ITI	n/a	n/a	n/a	n/a	n/a	n/a	n/a	n/a
293.9883	n/a	RESPONSE	n/a	n/a	n/a	n/a	n/a	n/a	n/a	n/a
294.0167	1.0	ITI	n/a	n/a	n/a	n/a	n/a	n/a	n/a	n/a
295.0167	0.5	FIXCROSS	n/a	n/a	n/a	n/a	n/a	n/a	n/a	n/a
295.5167	1.2166	COLOR_NAME	1	Incongruent	czerwony	red	zielony	green	hit	n/a
296.7223	n/a	RESPONSE	n/a	n/a	n/a	n/a	n/a	n/a	n/a	red
296.7334	1.0	ITI	n/a	n/a	n/a	n/a	n/a	n/a	n/a	n/a
297.7333	0.5	FIXCROSS	n/a	n/a	n/a	n/a	n/a	n/a	n/a	n/a
298.2333	0.75	COLOR_NAME	2	Incongruent	żółty	yellow	niebieski	blue	hit	n/a
298.9767	n/a	RESPONSE	n/a	n/a	n/a	n/a	n/a	n/a	n/a	yellow
298.9833	1.0	ITI	n/a	n/a	n/a	n/a	n/a	n/a	n/a	n/a
299.9833	0.5	FIXCROSS	n/a	n/a	n/a	n/a	n/a	n/a	n/a	n/a
300.4833	0.7667	COLOR_NAME	3	Incongruent	zielony	green	czerwony	red	hit	n/a
301.2469	n/a	RESPONSE	n/a	n/a	n/a	n/a	n/a	n/a	n/a	green
301.2499	1.0	ITI	n/a	n/a	n/a	n/a	n/a	n/a	n/a	n/a
302.2499	0.5	FIXCROSS	n/a	n/a	n/a	n/a	n/a	n/a	n/a	n/a
302.7499	0.6333	COLOR_NAME	4	Neutral	niebieski	blue	Neutral	Neutral	hit	n/a
303.3732	n/a	RESPONSE	n/a	n/a	n/a	n/a	n/a	n/a	n/a	blue
303.3832	1.0	ITI	n/a	n/a	n/a	n/a	n/a	n/a	n/a	n/a
304.3832	0.5	FIXCROSS	n/a	n/a	n/a	n/a	n/a	n/a	n/a	n/a
304.8832	1.15	COLOR_NAME	5	Incongruent	zielony	green	niebieski	blue	hit	n/a
306.0274	n/a	RESPONSE	n/a	n/a	n/a	n/a	n/a	n/a	n/a	green
306.0332	1.0	ITI	n/a	n/a	n/a	n/a	n/a	n/a	n/a	n/a
307.0332	0.5	FIXCROSS	n/a	n/a	n/a	n/a	n/a	n/a	n/a	n/a
307.5332	0.8	COLOR_NAME	6	Neutral	zielony	green	Neutral	Neutral	hit	n/a
308.3296	n/a	RESPONSE	n/a	n/a	n/a	n/a	n/a	n/a	n/a	green
308.3331	1.0	ITI	n/a	n/a	n/a	n/a	n/a	n/a	n/a	n/a
309.3331	0.5	FIXCROSS	n/a	n/a	n/a	n/a	n/a	n/a	n/a	n/a
309.8331	0.9333	COLOR_NAME	7	Incongruent	czerwony	red	niebieski	blue	hit	n/a
310.7598	n/a	RESPONSE	n/a	n/a	n/a	n/a	n/a	n/a	n/a	red
310.7664	1.0	ITI	n/a	n/a	n/a	n/a	n/a	n/a	n/a	n/a
311.7664	0.5	FIXCROSS	n/a	n/a	n/a	n/a	n/a	n/a	n/a	n/a
312.2664	0.8833	COLOR_NAME	8	Neutral	żółty	yellow	Neutral	Neutral	hit	n/a
313.1421	n/a	RESPONSE	n/a	n/a	n/a	n/a	n/a	n/a	n/a	yellow
313.1497	1.0	ITI	n/a	n/a	n/a	n/a	n/a	n/a	n/a	n/a
314.1497	0.5	FIXCROSS	n/a	n/a	n/a	n/a	n/a	n/a	n/a	n/a
314.6497	1.0166	COLOR_NAME	9	Incongruent	zielony	green	niebieski	blue	hit	n/a
315.6522	n/a	RESPONSE	n/a	n/a	n/a	n/a	n/a	n/a	n/a	green
315.6663	1.0	ITI	n/a	n/a	n/a	n/a	n/a	n/a	n/a	n/a
316.6663	0.5	FIXCROSS	n/a	n/a	n/a	n/a	n/a	n/a	n/a	n/a
317.1663	0.8333	COLOR_NAME	10	Incongruent	niebieski	blue	żółty	yellow	hit	n/a
317.9864	n/a	RESPONSE	n/a	n/a	n/a	n/a	n/a	n/a	n/a	blue
317.9996	1.0	ITI	n/a	n/a	n/a	n/a	n/a	n/a	n/a	n/a
318.9996	0.5	FIXCROSS	n/a	n/a	n/a	n/a	n/a	n/a	n/a	n/a
319.4996	0.6667	COLOR_NAME	11	Incongruent	czerwony	red	zielony	green	hit	n/a
320.1608	n/a	RESPONSE	n/a	n/a	n/a	n/a	n/a	n/a	n/a	red
320.1663	1.0	ITI	n/a	n/a	n/a	n/a	n/a	n/a	n/a	n/a
321.1663	0.5	FIXCROSS	n/a	n/a	n/a	n/a	n/a	n/a	n/a	n/a
321.6662	1.0	COLOR_NAME	12	Neutral	czerwony	red	Neutral	Neutral	hit	n/a
322.6549	n/a	RESPONSE	n/a	n/a	n/a	n/a	n/a	n/a	n/a	red
322.6662	1.0	ITI	n/a	n/a	n/a	n/a	n/a	n/a	n/a	n/a
323.6662	0.5	FIXCROSS	n/a	n/a	n/a	n/a	n/a	n/a	n/a	n/a
324.1662	1.1666	COLOR_NAME	13	Neutral	żółty	yellow	Neutral	Neutral	hit	n/a
325.325	n/a	RESPONSE	n/a	n/a	n/a	n/a	n/a	n/a	n/a	yellow
325.3328	1.0	ITI	n/a	n/a	n/a	n/a	n/a	n/a	n/a	n/a
326.3328	0.5	FIXCROSS	n/a	n/a	n/a	n/a	n/a	n/a	n/a	n/a
326.8328	1.3333	COLOR_NAME	14	Incongruent	czerwony	red	zielony	green	hit	n/a
328.1549	n/a	RESPONSE	n/a	n/a	n/a	n/a	n/a	n/a	n/a	red
328.1661	1.0	ITI	n/a	n/a	n/a	n/a	n/a	n/a	n/a	n/a
329.1661	0.5	FIXCROSS	n/a	n/a	n/a	n/a	n/a	n/a	n/a	n/a
329.6661	0.9166	COLOR_NAME	15	Incongruent	żółty	yellow	zielony	green	hit	n/a
330.5691	n/a	RESPONSE	n/a	n/a	n/a	n/a	n/a	n/a	n/a	yellow
330.5827	1.0	ITI	n/a	n/a	n/a	n/a	n/a	n/a	n/a	n/a
331.5827	0.5	FIXCROSS	n/a	n/a	n/a	n/a	n/a	n/a	n/a	n/a
332.0827	0.9833	COLOR_NAME	16	Incongruent	żółty	yellow	niebieski	blue	hit	n/a
333.0632	n/a	RESPONSE	n/a	n/a	n/a	n/a	n/a	n/a	n/a	yellow
333.066	1.0	ITI	n/a	n/a	n/a	n/a	n/a	n/a	n/a	n/a
334.066	0.5	FIXCROSS	n/a	n/a	n/a	n/a	n/a	n/a	n/a	n/a
334.566	2.2	COLOR_NAME	17	Incongruent	zielony	green	żółty	yellow	hit	n/a
336.7564	n/a	RESPONSE	n/a	n/a	n/a	n/a	n/a	n/a	n/a	green
336.766	1.0	ITI	n/a	n/a	n/a	n/a	n/a	n/a	n/a	n/a
337.7659	0.5	FIXCROSS	n/a	n/a	n/a	n/a	n/a	n/a	n/a	n/a
338.2659	0.9666	COLOR_NAME	18	Neutral	żółty	yellow	Neutral	Neutral	hit	n/a
339.2186	n/a	RESPONSE	n/a	n/a	n/a	n/a	n/a	n/a	n/a	yellow
339.2326	1.0	ITI	n/a	n/a	n/a	n/a	n/a	n/a	n/a	n/a
340.2326	0.5	FIXCROSS	n/a	n/a	n/a	n/a	n/a	n/a	n/a	n/a
340.7326	0.75	COLOR_NAME	19	Incongruent	niebieski	blue	zielony	green	hit	n/a
341.4729	n/a	RESPONSE	n/a	n/a	n/a	n/a	n/a	n/a	n/a	blue
341.4825	1.0	ITI	n/a	n/a	n/a	n/a	n/a	n/a	n/a	n/a
342.4825	0.5	FIXCROSS	n/a	n/a	n/a	n/a	n/a	n/a	n/a	n/a
342.9825	0.55	COLOR_NAME	20	Neutral	czerwony	red	Neutral	Neutral	hit	n/a
343.5194	n/a	RESPONSE	n/a	n/a	n/a	n/a	n/a	n/a	n/a	red
343.5325	1.0	ITI	n/a	n/a	n/a	n/a	n/a	n/a	n/a	n/a
344.5325	0.5	FIXCROSS	n/a	n/a	n/a	n/a	n/a	n/a	n/a	n/a
345.0325	1.0333	COLOR_NAME	21	Neutral	zielony	green	Neutral	Neutral	hit	n/a
346.0615	n/a	RESPONSE	n/a	n/a	n/a	n/a	n/a	n/a	n/a	green
346.0658	1.0	ITI	n/a	n/a	n/a	n/a	n/a	n/a	n/a	n/a
347.0658	0.5	FIXCROSS	n/a	n/a	n/a	n/a	n/a	n/a	n/a	n/a
347.5658	1.0666	COLOR_NAME	22	Incongruent	żółty	yellow	czerwony	red	hit	n/a
348.6196	n/a	RESPONSE	n/a	n/a	n/a	n/a	n/a	n/a	n/a	yellow
348.6324	1.0	ITI	n/a	n/a	n/a	n/a	n/a	n/a	n/a	n/a
349.6324	0.5	FIXCROSS	n/a	n/a	n/a	n/a	n/a	n/a	n/a	n/a
350.1324	0.6167	COLOR_NAME	23	Incongruent	niebieski	blue	czerwony	red	hit	n/a
350.73	n/a	RESPONSE	n/a	n/a	n/a	n/a	n/a	n/a	n/a	blue
350.749	1.0	ITI	n/a	n/a	n/a	n/a	n/a	n/a	n/a	n/a
351.749	0.5	FIXCROSS	n/a	n/a	n/a	n/a	n/a	n/a	n/a	n/a
352.249	0.6	COLOR_NAME	24	Neutral	żółty	yellow	Neutral	Neutral	hit	n/a
352.8405	n/a	RESPONSE	n/a	n/a	n/a	n/a	n/a	n/a	n/a	yellow
352.849	1.0	ITI	n/a	n/a	n/a	n/a	n/a	n/a	n/a	n/a
353.849	0.5	FIXCROSS	n/a	n/a	n/a	n/a	n/a	n/a	n/a	n/a
354.349	0.7167	COLOR_NAME	25	Incongruent	żółty	yellow	zielony	green	hit	n/a
355.0468	n/a	RESPONSE	n/a	n/a	n/a	n/a	n/a	n/a	n/a	yellow
355.0656	1.0	ITI	n/a	n/a	n/a	n/a	n/a	n/a	n/a	n/a
356.0656	0.5	FIXCROSS	n/a	n/a	n/a	n/a	n/a	n/a	n/a	n/a
356.5656	0.7833	COLOR_NAME	26	Neutral	zielony	green	Neutral	Neutral	hit	n/a
357.3332	n/a	RESPONSE	n/a	n/a	n/a	n/a	n/a	n/a	n/a	green
357.3489	1.0	ITI	n/a	n/a	n/a	n/a	n/a	n/a	n/a	n/a
358.3489	0.5	FIXCROSS	n/a	n/a	n/a	n/a	n/a	n/a	n/a	n/a
358.8489	0.65	COLOR_NAME	27	Neutral	niebieski	blue	Neutral	Neutral	hit	n/a
359.4915	n/a	RESPONSE	n/a	n/a	n/a	n/a	n/a	n/a	n/a	blue
359.4989	1.0	ITI	n/a	n/a	n/a	n/a	n/a	n/a	n/a	n/a
360.4989	0.5	FIXCROSS	n/a	n/a	n/a	n/a	n/a	n/a	n/a	n/a
360.9988	0.75	COLOR_NAME	28	Neutral	żółty	yellow	Neutral	Neutral	hit	n/a
361.7298	n/a	RESPONSE	n/a	n/a	n/a	n/a	n/a	n/a	n/a	yellow
361.7488	1.0	ITI	n/a	n/a	n/a	n/a	n/a	n/a	n/a	n/a
362.7488	0.5	FIXCROSS	n/a	n/a	n/a	n/a	n/a	n/a	n/a	n/a
363.2488	0.8	COLOR_NAME	29	Neutral	zielony	green	Neutral	Neutral	hit	n/a
364.0321	n/a	RESPONSE	n/a	n/a	n/a	n/a	n/a	n/a	n/a	green
364.0488	1.0	ITI	n/a	n/a	n/a	n/a	n/a	n/a	n/a	n/a
365.0488	0.5	FIXCROSS	n/a	n/a	n/a	n/a	n/a	n/a	n/a	n/a
365.5488	0.7167	COLOR_NAME	30	Neutral	niebieski	blue	Neutral	Neutral	hit	n/a
366.2545	n/a	RESPONSE	n/a	n/a	n/a	n/a	n/a	n/a	n/a	blue
366.2654	1.0	ITI	n/a	n/a	n/a	n/a	n/a	n/a	n/a	n/a
367.2654	0.5	FIXCROSS	n/a	n/a	n/a	n/a	n/a	n/a	n/a	n/a
367.7654	0.6833	COLOR_NAME	31	Incongruent	żółty	yellow	zielony	green	hit	n/a
368.4448	n/a	RESPONSE	n/a	n/a	n/a	n/a	n/a	n/a	n/a	yellow
368.4487	1.0	ITI	n/a	n/a	n/a	n/a	n/a	n/a	n/a	n/a
369.4487	0.5	FIXCROSS	n/a	n/a	n/a	n/a	n/a	n/a	n/a	n/a
369.9487	0.65	COLOR_NAME	32	Incongruent	zielony	green	niebieski	blue	incorrect	n/a
370.5872	n/a	RESPONSE	n/a	n/a	n/a	n/a	n/a	n/a	n/a	red
370.5987	1.0	ITI	n/a	n/a	n/a	n/a	n/a	n/a	n/a	n/a
371.5987	0.5	FIXCROSS	n/a	n/a	n/a	n/a	n/a	n/a	n/a	n/a
372.0986	2.65	COLOR_NAME	33	Incongruent	żółty	yellow	czerwony	red	hit	n/a
374.7442	n/a	RESPONSE	n/a	n/a	n/a	n/a	n/a	n/a	n/a	yellow
374.7486	1.0	ITI	n/a	n/a	n/a	n/a	n/a	n/a	n/a	n/a
375.7486	0.5	FIXCROSS	n/a	n/a	n/a	n/a	n/a	n/a	n/a	n/a
376.2486	0.65	COLOR_NAME	34	Incongruent	żółty	yellow	niebieski	blue	hit	n/a
376.8864	n/a	RESPONSE	n/a	n/a	n/a	n/a	n/a	n/a	n/a	yellow
376.8986	1.0	ITI	n/a	n/a	n/a	n/a	n/a	n/a	n/a	n/a
377.8985	0.5	FIXCROSS	n/a	n/a	n/a	n/a	n/a	n/a	n/a	n/a
378.3985	1.0167	COLOR_NAME	35	Incongruent	czerwony	red	żółty	yellow	hit	n/a
379.3966	n/a	RESPONSE	n/a	n/a	n/a	n/a	n/a	n/a	n/a	red
379.4152	1.0	ITI	n/a	n/a	n/a	n/a	n/a	n/a	n/a	n/a
380.4152	0.5	FIXCROSS	n/a	n/a	n/a	n/a	n/a	n/a	n/a	n/a
380.9151	2.0	COLOR_NAME	36	Incongruent	żółty	yellow	czerwony	red	hit	n/a
382.8979	n/a	RESPONSE	n/a	n/a	n/a	n/a	n/a	n/a	n/a	yellow
382.9151	1.0	ITI	n/a	n/a	n/a	n/a	n/a	n/a	n/a	n/a
383.9151	0.5	FIXCROSS	n/a	n/a	n/a	n/a	n/a	n/a	n/a	n/a
384.4151	1.1667	COLOR_NAME	37	Neutral	czerwony	red	Neutral	Neutral	hit	n/a
385.5679	n/a	RESPONSE	n/a	n/a	n/a	n/a	n/a	n/a	n/a	red
385.5817	1.0	ITI	n/a	n/a	n/a	n/a	n/a	n/a	n/a	n/a
386.5817	0.5	FIXCROSS	n/a	n/a	n/a	n/a	n/a	n/a	n/a	n/a
387.0817	1.4666	COLOR_NAME	38	Neutral	zielony	green	Neutral	Neutral	hit	n/a
388.5416	n/a	RESPONSE	n/a	n/a	n/a	n/a	n/a	n/a	n/a	green
388.5483	1.0	ITI	n/a	n/a	n/a	n/a	n/a	n/a	n/a	n/a
389.5483	0.5	FIXCROSS	n/a	n/a	n/a	n/a	n/a	n/a	n/a	n/a
390.0483	0.8	COLOR_NAME	39	Incongruent	niebieski	blue	czerwony	red	hit	n/a
390.844	n/a	RESPONSE	n/a	n/a	n/a	n/a	n/a	n/a	n/a	blue
390.8483	1.0	ITI	n/a	n/a	n/a	n/a	n/a	n/a	n/a	n/a
391.8483	0.5	FIXCROSS	n/a	n/a	n/a	n/a	n/a	n/a	n/a	n/a
392.3483	0.8167	COLOR_NAME	40	Neutral	czerwony	red	Neutral	Neutral	hit	n/a
393.1462	n/a	RESPONSE	n/a	n/a	n/a	n/a	n/a	n/a	n/a	red
393.1649	1.0	ITI	n/a	n/a	n/a	n/a	n/a	n/a	n/a	n/a
394.1649	0.5	FIXCROSS	n/a	n/a	n/a	n/a	n/a	n/a	n/a	n/a
394.6649	1.0	COLOR_NAME	41	Incongruent	zielony	green	żółty	yellow	hit	n/a
395.6563	n/a	RESPONSE	n/a	n/a	n/a	n/a	n/a	n/a	n/a	green
395.6649	1.0	ITI	n/a	n/a	n/a	n/a	n/a	n/a	n/a	n/a
396.6649	0.5	FIXCROSS	n/a	n/a	n/a	n/a	n/a	n/a	n/a	n/a
397.1649	0.7333	COLOR_NAME	42	Incongruent	czerwony	red	żółty	yellow	hit	n/a
397.8947	n/a	RESPONSE	n/a	n/a	n/a	n/a	n/a	n/a	n/a	red
397.8982	1.0	ITI	n/a	n/a	n/a	n/a	n/a	n/a	n/a	n/a
398.8981	0.5	FIXCROSS	n/a	n/a	n/a	n/a	n/a	n/a	n/a	n/a
399.3982	0.6	COLOR_NAME	43	Neutral	niebieski	blue	Neutral	Neutral	hit	n/a
399.9892	n/a	RESPONSE	n/a	n/a	n/a	n/a	n/a	n/a	n/a	blue
399.9981	1.0	ITI	n/a	n/a	n/a	n/a	n/a	n/a	n/a	n/a
400.9981	0.5	FIXCROSS	n/a	n/a	n/a	n/a	n/a	n/a	n/a	n/a
401.4981	0.6333	COLOR_NAME	44	Incongruent	niebieski	blue	zielony	green	hit	n/a
402.1155	n/a	RESPONSE	n/a	n/a	n/a	n/a	n/a	n/a	n/a	blue
402.1314	1.0	ITI	n/a	n/a	n/a	n/a	n/a	n/a	n/a	n/a
403.1314	0.5	FIXCROSS	n/a	n/a	n/a	n/a	n/a	n/a	n/a	n/a
403.6314	1.6	COLOR_NAME	45	Incongruent	zielony	green	czerwony	red	hit	n/a
405.2172	n/a	RESPONSE	n/a	n/a	n/a	n/a	n/a	n/a	n/a	green
405.2314	1.0	ITI	n/a	n/a	n/a	n/a	n/a	n/a	n/a	n/a
406.2314	0.5	FIXCROSS	n/a	n/a	n/a	n/a	n/a	n/a	n/a	n/a
406.7313	0.6667	COLOR_NAME	46	Neutral	niebieski	blue	Neutral	Neutral	hit	n/a
407.3916	n/a	RESPONSE	n/a	n/a	n/a	n/a	n/a	n/a	n/a	blue
407.398	1.0	ITI	n/a	n/a	n/a	n/a	n/a	n/a	n/a	n/a
408.398	0.5	FIXCROSS	n/a	n/a	n/a	n/a	n/a	n/a	n/a	n/a
408.898	1.15	COLOR_NAME	47	Incongruent	zielony	green	czerwony	red	hit	n/a
410.0296	n/a	RESPONSE	n/a	n/a	n/a	n/a	n/a	n/a	n/a	green
410.0479	1.0	ITI	n/a	n/a	n/a	n/a	n/a	n/a	n/a	n/a
411.0479	0.5	FIXCROSS	n/a	n/a	n/a	n/a	n/a	n/a	n/a	n/a
411.5479	0.8333	COLOR_NAME	48	Neutral	zielony	green	Neutral	Neutral	hit	n/a
412.3639	n/a	RESPONSE	n/a	n/a	n/a	n/a	n/a	n/a	n/a	green
412.3812	1.0	ITI	n/a	n/a	n/a	n/a	n/a	n/a	n/a	n/a
413.3812	0.5	FIXCROSS	n/a	n/a	n/a	n/a	n/a	n/a	n/a	n/a
413.8812	0.6333	COLOR_NAME	49	Neutral	czerwony	red	Neutral	Neutral	hit	n/a
414.5063	n/a	RESPONSE	n/a	n/a	n/a	n/a	n/a	n/a	n/a	red
414.5145	1.0	ITI	n/a	n/a	n/a	n/a	n/a	n/a	n/a	n/a
415.5145	0.5	FIXCROSS	n/a	n/a	n/a	n/a	n/a	n/a	n/a	n/a
416.0145	0.5167	COLOR_NAME	50	Neutral	żółty	yellow	Neutral	Neutral	hit	n/a
416.5208	n/a	RESPONSE	n/a	n/a	n/a	n/a	n/a	n/a	n/a	yellow
416.5312	1.0	ITI	n/a	n/a	n/a	n/a	n/a	n/a	n/a	n/a
417.5312	0.5	FIXCROSS	n/a	n/a	n/a	n/a	n/a	n/a	n/a	n/a
418.0311	1.1	COLOR_NAME	51	Incongruent	zielony	green	żółty	yellow	hit	n/a
419.127	n/a	RESPONSE	n/a	n/a	n/a	n/a	n/a	n/a	n/a	green
419.1311	1.0	ITI	n/a	n/a	n/a	n/a	n/a	n/a	n/a	n/a
420.1311	0.5	FIXCROSS	n/a	n/a	n/a	n/a	n/a	n/a	n/a	n/a
420.6311	0.8833	COLOR_NAME	52	Incongruent	niebieski	blue	zielony	green	hit	n/a
421.5091	n/a	RESPONSE	n/a	n/a	n/a	n/a	n/a	n/a	n/a	blue
421.5144	1.0	ITI	n/a	n/a	n/a	n/a	n/a	n/a	n/a	n/a
422.5144	0.5	FIXCROSS	n/a	n/a	n/a	n/a	n/a	n/a	n/a	n/a
423.0144	0.65	COLOR_NAME	53	Neutral	niebieski	blue	Neutral	Neutral	hit	n/a
423.6515	n/a	RESPONSE	n/a	n/a	n/a	n/a	n/a	n/a	n/a	blue
423.6644	1.0	ITI	n/a	n/a	n/a	n/a	n/a	n/a	n/a	n/a
424.6644	0.5	FIXCROSS	n/a	n/a	n/a	n/a	n/a	n/a	n/a	n/a
425.1643	0.6166	COLOR_NAME	54	Neutral	niebieski	blue	Neutral	Neutral	hit	n/a
425.778	n/a	RESPONSE	n/a	n/a	n/a	n/a	n/a	n/a	n/a	blue
425.781	1.0	ITI	n/a	n/a	n/a	n/a	n/a	n/a	n/a	n/a
426.781	0.5	FIXCROSS	n/a	n/a	n/a	n/a	n/a	n/a	n/a	n/a
427.281	0.5833	COLOR_NAME	55	Neutral	czerwony	red	Neutral	Neutral	hit	n/a
427.8565	n/a	RESPONSE	n/a	n/a	n/a	n/a	n/a	n/a	n/a	red
427.8643	1.0	ITI	n/a	n/a	n/a	n/a	n/a	n/a	n/a	n/a
428.8643	0.5	FIXCROSS	n/a	n/a	n/a	n/a	n/a	n/a	n/a	n/a
429.3643	0.8167	COLOR_NAME	56	Incongruent	niebieski	blue	żółty	yellow	hit	n/a
430.1747	n/a	RESPONSE	n/a	n/a	n/a	n/a	n/a	n/a	n/a	blue
430.1809	1.0	ITI	n/a	n/a	n/a	n/a	n/a	n/a	n/a	n/a
431.1809	0.5	FIXCROSS	n/a	n/a	n/a	n/a	n/a	n/a	n/a	n/a
431.6809	0.6666	COLOR_NAME	57	Incongruent	czerwony	red	niebieski	blue	hit	n/a
432.3331	n/a	RESPONSE	n/a	n/a	n/a	n/a	n/a	n/a	n/a	red
432.3475	1.0	ITI	n/a	n/a	n/a	n/a	n/a	n/a	n/a	n/a
433.3475	0.5	FIXCROSS	n/a	n/a	n/a	n/a	n/a	n/a	n/a	n/a
433.8475	1.15	COLOR_NAME	58	Neutral	żółty	yellow	Neutral	Neutral	hit	n/a
434.9871	n/a	RESPONSE	n/a	n/a	n/a	n/a	n/a	n/a	n/a	yellow
434.9975	1.0	ITI	n/a	n/a	n/a	n/a	n/a	n/a	n/a	n/a
435.9975	0.5	FIXCROSS	n/a	n/a	n/a	n/a	n/a	n/a	n/a	n/a
436.4975	0.8667	COLOR_NAME	59	Neutral	czerwony	red	Neutral	Neutral	hit	n/a
437.3533	n/a	RESPONSE	n/a	n/a	n/a	n/a	n/a	n/a	n/a	red
437.3641	1.0	ITI	n/a	n/a	n/a	n/a	n/a	n/a	n/a	n/a
438.3641	0.5	FIXCROSS	n/a	n/a	n/a	n/a	n/a	n/a	n/a	n/a
438.8641	1.15	COLOR_NAME	60	Incongruent	niebieski	blue	czerwony	red	hit	n/a
440.0073	n/a	RESPONSE	n/a	n/a	n/a	n/a	n/a	n/a	n/a	blue
440.0141	1.0	ITI	n/a	n/a	n/a	n/a	n/a	n/a	n/a	n/a
441.0141	0.5	FIXCROSS	n/a	n/a	n/a	n/a	n/a	n/a	n/a	n/a
441.514	1.2	COLOR_NAME	61	Neutral	zielony	green	Neutral	Neutral	hit	n/a
442.7093	n/a	RESPONSE	n/a	n/a	n/a	n/a	n/a	n/a	n/a	green
442.714	0.9999	ITI	n/a	n/a	n/a	n/a	n/a	n/a	n/a	n/a
443.714	0.5	FIXCROSS	n/a	n/a	n/a	n/a	n/a	n/a	n/a	n/a
444.214	2.0666	COLOR_NAME	62	Neutral	niebieski	blue	Neutral	Neutral	hit	n/a
446.2747	n/a	RESPONSE	n/a	n/a	n/a	n/a	n/a	n/a	n/a	blue
446.2806	1.0	ITI	n/a	n/a	n/a	n/a	n/a	n/a	n/a	n/a
447.2806	0.5	FIXCROSS	n/a	n/a	n/a	n/a	n/a	n/a	n/a	n/a
447.7806	0.7333	COLOR_NAME	63	Neutral	zielony	green	Neutral	Neutral	hit	n/a
448.497	n/a	RESPONSE	n/a	n/a	n/a	n/a	n/a	n/a	n/a	green
448.5139	1.0	ITI	n/a	n/a	n/a	n/a	n/a	n/a	n/a	n/a
449.5139	0.5	FIXCROSS	n/a	n/a	n/a	n/a	n/a	n/a	n/a	n/a
450.0139	0.5667	COLOR_NAME	64	Neutral	żółty	yellow	Neutral	Neutral	hit	n/a
450.5755	n/a	RESPONSE	n/a	n/a	n/a	n/a	n/a	n/a	n/a	yellow
450.5805	1.0	ITI	n/a	n/a	n/a	n/a	n/a	n/a	n/a	n/a
451.5805	0.5	FIXCROSS	n/a	n/a	n/a	n/a	n/a	n/a	n/a	n/a
452.0805	0.55	COLOR_NAME	65	Neutral	żółty	yellow	Neutral	Neutral	hit	n/a
452.622	n/a	RESPONSE	n/a	n/a	n/a	n/a	n/a	n/a	n/a	yellow
452.6305	1.0	ITI	n/a	n/a	n/a	n/a	n/a	n/a	n/a	n/a
453.6305	0.5	FIXCROSS	n/a	n/a	n/a	n/a	n/a	n/a	n/a	n/a
454.1305	0.5833	COLOR_NAME	66	Neutral	czerwony	red	Neutral	Neutral	hit	n/a
454.7003	n/a	RESPONSE	n/a	n/a	n/a	n/a	n/a	n/a	n/a	red
454.7138	1.0	ITI	n/a	n/a	n/a	n/a	n/a	n/a	n/a	n/a
455.7138	0.5	FIXCROSS	n/a	n/a	n/a	n/a	n/a	n/a	n/a	n/a
456.2138	0.65	COLOR_NAME	67	Incongruent	niebieski	blue	żółty	yellow	hit	n/a
456.8588	n/a	RESPONSE	n/a	n/a	n/a	n/a	n/a	n/a	n/a	blue
456.8638	1.0	ITI	n/a	n/a	n/a	n/a	n/a	n/a	n/a	n/a
457.8637	0.5	FIXCROSS	n/a	n/a	n/a	n/a	n/a	n/a	n/a	n/a
458.3637	0.6833	COLOR_NAME	68	Neutral	czerwony	red	Neutral	Neutral	hit	n/a
459.0332	n/a	RESPONSE	n/a	n/a	n/a	n/a	n/a	n/a	n/a	red
459.0471	1.0	ITI	n/a	n/a	n/a	n/a	n/a	n/a	n/a	n/a
460.047	0.5	FIXCROSS	n/a	n/a	n/a	n/a	n/a	n/a	n/a	n/a
460.547	0.7167	COLOR_NAME	69	Incongruent	czerwony	red	żółty	yellow	hit	n/a
461.2556	n/a	RESPONSE	n/a	n/a	n/a	n/a	n/a	n/a	n/a	red
461.2637	1.0	ITI	n/a	n/a	n/a	n/a	n/a	n/a	n/a	n/a
462.2637	0.5	FIXCROSS	n/a	n/a	n/a	n/a	n/a	n/a	n/a	n/a
462.7637	0.5833	COLOR_NAME	70	Incongruent	czerwony	red	niebieski	blue	hit	n/a
463.3339	n/a	RESPONSE	n/a	n/a	n/a	n/a	n/a	n/a	n/a	red
463.347	1.0	ITI	n/a	n/a	n/a	n/a	n/a	n/a	n/a	n/a
464.347	0.5	FIXCROSS	n/a	n/a	n/a	n/a	n/a	n/a	n/a	n/a
464.847	0.5833	COLOR_NAME	71	Neutral	niebieski	blue	Neutral	Neutral	hit	n/a
465.4125	n/a	RESPONSE	n/a	n/a	n/a	n/a	n/a	n/a	n/a	blue
465.4303	1.0	ITI	n/a	n/a	n/a	n/a	n/a	n/a	n/a	n/a
466.4303	0.5	FIXCROSS	n/a	n/a	n/a	n/a	n/a	n/a	n/a	n/a
466.9303	1.1	COLOR_NAME	72	Neutral	zielony	green	Neutral	Neutral	hit	n/a
468.0185	n/a	RESPONSE	n/a	n/a	n/a	n/a	n/a	n/a	n/a	green
468.0302	1.0166	ITI	n/a	n/a	n/a	n/a	n/a	n/a	n/a	n/a
480.6971	n/a	RESPONSE	n/a	n/a	n/a	n/a	n/a	n/a	n/a	n/a
