onset	duration	trial_type	melody_number	melody_part	key	sound	action
0.0	14.088	CUE_START	n/a	n/a	n/a	n/a	n/a
14.088	7.76	FIXCROSS	n/a	n/a	n/a	n/a	n/a
21.848	6.315	CUE_LISTEN	M1	1	n/a	n/a	n/a
28.163	7.758	FIXCROSS	n/a	n/a	n/a	n/a	n/a
35.922	6.325	CUE_PLAYBACK_RIGHT_HAND	M1	1	n/a	n/a	n/a
36.688	n/a	RESPONSE	M1	1	04	E3	press
36.694	n/a	RESPONSE	M1	1	19	G4	press
36.708	n/a	RESPONSE	M1	1	07	G3	press
36.79	n/a	RESPONSE	M1	1	00	C3	press
37.336	n/a	RESPONSE	M1	1	19	G4	release
37.441	n/a	RESPONSE	M1	1	00	C3	release
37.482	n/a	RESPONSE	M1	1	04	E3	release
37.522	n/a	RESPONSE	M1	1	07	G3	release
37.688	n/a	RESPONSE	M1	1	19	G4	press
38.298	n/a	RESPONSE	M1	1	19	G4	release
38.331	n/a	RESPONSE	M1	1	16	E4	press
38.581	n/a	RESPONSE	M1	1	16	E4	release
38.872	n/a	RESPONSE	M1	1	16	E4	press
39.366	n/a	RESPONSE	M1	1	16	E4	release
39.394	n/a	RESPONSE	M1	1	17	F4	press
39.986	n/a	RESPONSE	M1	1	14	D4	press
40.03	n/a	RESPONSE	M1	1	17	F4	release
40.298	n/a	RESPONSE	M1	1	14	D4	release
40.54	n/a	RESPONSE	M1	1	14	D4	press
41.061	n/a	RESPONSE	M1	1	14	D4	release
41.172	n/a	RESPONSE	M1	1	12	C4	press
41.486	n/a	RESPONSE	M1	1	16	E4	press
41.514	n/a	RESPONSE	M1	1	12	C4	release
41.816	n/a	RESPONSE	M1	1	19	G4	press
41.857	n/a	RESPONSE	M1	1	16	E4	release
42.247	7.758	FIXCROSS	n/a	n/a	n/a	n/a	n/a
42.728	n/a	RESPONSE	M1	1	19	G4	release
50.005	6.317	CUE_LISTEN	        M1	2	n/a	n/a	n/a
56.322	7.759	FIXCROSS	n/a	n/a	n/a	n/a	n/a
64.08	6.317	CUE_PLAYBACK_RIGHT_HAND	        M1	2	n/a	n/a	n/a
64.657	n/a	RESPONSE	        M1	2	19	G4	press
65.253	n/a	RESPONSE	        M1	2	16	E4	press
65.274	n/a	RESPONSE	        M1	2	19	G4	release
65.494	n/a	RESPONSE	        M1	2	16	E4	release
65.772	n/a	RESPONSE	        M1	2	16	E4	press
66.334	n/a	RESPONSE	        M1	2	16	E4	release
66.35	n/a	RESPONSE	        M1	2	17	F4	press
66.932	n/a	RESPONSE	        M1	2	14	D4	press
66.971	n/a	RESPONSE	        M1	2	17	F4	release
67.181	n/a	RESPONSE	        M1	2	14	D4	release
67.486	n/a	RESPONSE	        M1	2	14	D4	press
68.136	n/a	RESPONSE	        M1	2	14	D4	release
68.154	n/a	RESPONSE	        M1	2	12	C4	press
68.444	n/a	RESPONSE	        M1	2	16	E4	press
68.566	n/a	RESPONSE	        M1	2	12	C4	release
68.777	n/a	RESPONSE	        M1	2	12	C4	press
68.809	n/a	RESPONSE	        M1	2	16	E4	release
70.101	n/a	RESPONSE	        M1	2	12	C4	release
70.397	7.758	FIXCROSS	n/a	n/a	n/a	n/a	n/a
78.155	6.325	CUE_LISTEN	        M7	1	n/a	n/a	n/a
84.48	7.758	FIXCROSS	n/a	n/a	n/a	n/a	n/a
92.238	6.317	CUE_PLAYBACK_BOTH_HANDS	        M7	1	n/a	n/a	n/a
93.981	n/a	RESPONSE	        M7	1	07	G3	press
94.034	n/a	RESPONSE	        M7	1	21	A4	press
94.123	n/a	RESPONSE	        M7	1	21	A4	release
94.376	n/a	RESPONSE	        M7	1	07	G3	release
94.606	n/a	RESPONSE	        M7	1	20	G#4	press
94.609	n/a	RESPONSE	        M7	1	07	G3	press
94.826	n/a	RESPONSE	        M7	1	20	G#4	release
95.011	n/a	RESPONSE	        M7	1	07	G3	release
95.298	n/a	RESPONSE	        M7	1	20	G#4	press
95.307	n/a	RESPONSE	        M7	1	07	G3	press
95.642	n/a	RESPONSE	        M7	1	20	G#4	release
95.809	n/a	RESPONSE	        M7	1	07	G3	release
96.516	n/a	RESPONSE	        M7	1	07	G3	press
96.519	n/a	RESPONSE	        M7	1	22	A#4	press
97.234	n/a	RESPONSE	        M7	1	21	A4	press
97.326	n/a	RESPONSE	        M7	1	22	A#4	release
97.831	n/a	RESPONSE	        M7	1	19	G4	press
97.909	n/a	RESPONSE	        M7	1	21	A4	release
98.462	n/a	RESPONSE	        M7	1	05	F3	press
98.471	n/a	RESPONSE	        M7	1	21	A4	press
98.523	n/a	RESPONSE	        M7	1	19	G4	release
98.544	n/a	RESPONSE	        M7	1	07	G3	release
98.555	7.758	FIXCROSS	n/a	n/a	n/a	n/a	n/a
99.166	n/a	RESPONSE	        M7	1	16	E4	press
99.427	n/a	RESPONSE	        M7	1	21	A4	release
99.688	n/a	RESPONSE	        M7	1	16	E4	release
99.829	n/a	RESPONSE	        M7	1	16	E4	press
100.361	n/a	RESPONSE	        M7	1	16	E4	release
100.462	n/a	RESPONSE	        M7	1	19	G4	press
100.473	n/a	RESPONSE	        M7	1	03	D#3	press
100.534	n/a	RESPONSE	        M7	1	05	F3	release
101.527	n/a	RESPONSE	        M7	1	19	G4	release
101.937	n/a	RESPONSE	        M7	1	03	D#3	release
102.091	n/a	RESPONSE	        M7	1	07	G3	press
102.419	n/a	RESPONSE	        M7	1	07	G3	release
102.532	n/a	RESPONSE	        M7	1	07	G3	press
102.932	n/a	RESPONSE	        M7	1	09	A3	press
103.083	n/a	RESPONSE	        M7	1	07	G3	release
103.324	n/a	RESPONSE	        M7	1	10	A#3	press
103.436	n/a	RESPONSE	        M7	1	09	A3	release
103.758	n/a	RESPONSE	        M7	1	12	C4	press
103.779	n/a	RESPONSE	        M7	1	10	A#3	release
104.848	n/a	RESPONSE	        M7	1	12	C4	release
104.876	n/a	RESPONSE	        M7	1	14	D4	press
104.878	n/a	RESPONSE	        M7	1	02	D3	press
106.314	6.317	CUE_LISTEN	        M7	2	n/a	n/a	n/a
106.436	n/a	RESPONSE	        M7	2	02	D3	release
106.466	n/a	RESPONSE	        M7	2	14	D4	release
112.63	7.758	FIXCROSS	n/a	n/a	n/a	n/a	n/a
120.389	6.317	CUE_PLAYBACK_BOTH_HANDS	        M7	2	n/a	n/a	n/a
124.726	n/a	RESPONSE	        M7	2	07	G3	press
124.737	n/a	RESPONSE	        M7	2	10	A#3	press
124.748	n/a	RESPONSE	        M7	2	15	D#4	press
125.336	n/a	RESPONSE	        M7	2	17	F4	press
125.426	n/a	RESPONSE	        M7	2	15	D#4	release
125.687	n/a	RESPONSE	        M7	2	15	D#4	press
125.781	n/a	RESPONSE	        M7	2	17	F4	release
125.986	n/a	RESPONSE	        M7	2	09	A3	press
125.991	n/a	RESPONSE	        M7	2	10	A#3	release
126.033	n/a	RESPONSE	        M7	2	07	G3	release
126.038	n/a	RESPONSE	        M7	2	14	D4	press
126.123	n/a	RESPONSE	        M7	2	15	D#4	release
126.467	n/a	RESPONSE	        M7	2	14	D4	release
126.705	7.758	FIXCROSS	n/a	n/a	n/a	n/a	n/a
126.799	n/a	RESPONSE	        M7	2	09	A3	release
127.724	n/a	RESPONSE	        M7	2	07	G3	press
127.746	n/a	RESPONSE	        M7	2	10	A#3	press
127.816	n/a	RESPONSE	        M7	2	15	D#4	press
128.382	n/a	RESPONSE	        M7	2	17	F4	press
128.386	n/a	RESPONSE	        M7	2	15	D#4	release
128.767	n/a	RESPONSE	        M7	2	15	D#4	press
128.926	n/a	RESPONSE	        M7	2	17	F4	release
129.057	n/a	RESPONSE	        M7	2	09	A3	press
129.059	n/a	RESPONSE	        M7	2	10	A#3	release
129.069	n/a	RESPONSE	        M7	2	14	D4	press
129.161	n/a	RESPONSE	        M7	2	07	G3	release
129.202	n/a	RESPONSE	        M7	2	15	D#4	release
129.403	n/a	RESPONSE	        M7	2	12	C4	press
129.456	n/a	RESPONSE	        M7	2	14	D4	release
129.716	n/a	RESPONSE	        M7	2	14	D4	press
129.747	n/a	RESPONSE	        M7	2	06	F#3	press
129.749	n/a	RESPONSE	        M7	2	12	C4	release
129.789	n/a	RESPONSE	        M7	2	09	A3	release
130.421	n/a	RESPONSE	        M7	2	16	E4	press
130.462	n/a	RESPONSE	        M7	2	14	D4	release
130.743	n/a	RESPONSE	        M7	2	14	D4	press
130.804	n/a	RESPONSE	        M7	2	16	E4	release
131.056	n/a	RESPONSE	        M7	2	10	A#3	press
131.088	n/a	RESPONSE	        M7	2	06	F#3	release
131.118	n/a	RESPONSE	        M7	2	12	C4	press
131.219	n/a	RESPONSE	        M7	2	14	D4	release
131.451	n/a	RESPONSE	        M7	2	14	D4	press
131.513	n/a	RESPONSE	        M7	2	12	C4	release
132.096	n/a	RESPONSE	        M7	2	14	D4	release
132.106	n/a	RESPONSE	        M7	2	10	A#3	release
134.464	6.325	CUE_LISTEN	        M5	1	n/a	n/a	n/a
140.789	7.758	FIXCROSS	n/a	n/a	n/a	n/a	n/a
142.697	n/a	RESPONSE	        M5	1	07	G3	press
143.038	n/a	RESPONSE	        M5	1	07	G3	release
148.077	n/a	RESPONSE	        M5	1	21	A4	press
148.264	n/a	RESPONSE	        M5	1	21	A4	release
148.547	6.317	CUE_PLAYBACK_RIGHT_HAND	        M5	1	n/a	n/a	n/a
149.233	n/a	RESPONSE	        M5	1	21	A4	press
149.484	n/a	RESPONSE	        M5	1	21	A4	release
149.586	n/a	RESPONSE	        M5	1	21	A4	press
149.807	n/a	RESPONSE	        M5	1	21	A4	release
149.948	n/a	RESPONSE	        M5	1	21	A4	press
150.549	n/a	RESPONSE	        M5	1	21	A4	release
150.701	n/a	RESPONSE	        M5	1	21	A4	press
150.902	n/a	RESPONSE	        M5	1	21	A4	release
151.013	n/a	RESPONSE	        M5	1	21	A4	press
151.197	n/a	RESPONSE	        M5	1	21	A4	release
151.366	n/a	RESPONSE	        M5	1	21	A4	press
151.889	n/a	RESPONSE	        M5	1	21	A4	release
152.048	n/a	RESPONSE	        M5	1	21	A4	press
152.431	n/a	RESPONSE	        M5	1	24	C5	press
152.521	n/a	RESPONSE	        M5	1	21	A4	release
152.792	n/a	RESPONSE	        M5	1	17	F4	press
152.913	n/a	RESPONSE	        M5	1	24	C5	release
153.144	n/a	RESPONSE	        M5	1	19	G4	press
153.246	n/a	RESPONSE	        M5	1	17	F4	release
153.517	n/a	RESPONSE	        M5	1	21	A4	press
153.578	n/a	RESPONSE	        M5	1	19	G4	release
154.451	n/a	RESPONSE	        M5	1	21	A4	release
154.864	7.758	FIXCROSS	n/a	n/a	n/a	n/a	n/a
162.622	6.325	CUE_LISTEN	        M5	2	n/a	n/a	n/a
168.947	7.758	FIXCROSS	n/a	n/a	n/a	n/a	n/a
176.705	6.317	CUE_PLAYBACK_RIGHT_HAND	        M5	2	n/a	n/a	n/a
177.354	n/a	RESPONSE	        M5	2	22	A#4	press
177.553	n/a	RESPONSE	        M5	2	22	A#4	release
177.686	n/a	RESPONSE	        M5	2	22	A#4	press
177.898	n/a	RESPONSE	        M5	2	22	A#4	release
178.051	n/a	RESPONSE	        M5	2	22	A#4	press
178.264	n/a	RESPONSE	        M5	2	22	A#4	release
178.391	n/a	RESPONSE	        M5	2	22	A#4	press
178.581	n/a	RESPONSE	        M5	2	22	A#4	release
178.754	n/a	RESPONSE	        M5	2	22	A#4	press
179.083	n/a	RESPONSE	        M5	2	22	A#4	release
179.086	n/a	RESPONSE	        M5	2	21	A4	press
179.347	n/a	RESPONSE	        M5	2	21	A4	release
179.477	n/a	RESPONSE	        M5	2	21	A4	press
179.709	n/a	RESPONSE	        M5	2	21	A4	release
179.809	n/a	RESPONSE	        M5	2	21	A4	press
180.331	n/a	RESPONSE	        M5	2	21	A4	release
181.012	n/a	RESPONSE	        M5	2	23	B4	press
181.383	n/a	RESPONSE	        M5	2	23	B4	release
181.894	n/a	RESPONSE	        M5	2	22	A#4	press
182.056	n/a	RESPONSE	        M5	2	22	A#4	release
182.137	n/a	RESPONSE	        M5	2	22	A#4	press
182.311	n/a	RESPONSE	        M5	2	22	A#4	release
182.379	n/a	RESPONSE	        M5	2	22	A#4	press
182.521	n/a	RESPONSE	        M5	2	22	A#4	release
182.592	n/a	RESPONSE	        M5	2	22	A#4	press
182.724	n/a	RESPONSE	        M5	2	22	A#4	release
182.814	n/a	RESPONSE	        M5	2	22	A#4	press
183.022	7.758	FIXCROSS	n/a	n/a	n/a	n/a	n/a
183.026	n/a	RESPONSE	        M5	2	22	A#4	release
183.097	n/a	RESPONSE	        M5	2	21	A4	press
183.308	n/a	RESPONSE	        M5	2	21	A4	release
183.419	n/a	RESPONSE	        M5	2	21	A4	press
183.581	n/a	RESPONSE	        M5	2	21	A4	release
183.682	n/a	RESPONSE	        M5	2	21	A4	press
183.994	n/a	RESPONSE	        M5	2	19	G4	press
184.036	n/a	RESPONSE	        M5	2	21	A4	release
184.347	n/a	RESPONSE	        M5	2	21	A4	press
184.418	n/a	RESPONSE	        M5	2	19	G4	release
184.923	n/a	RESPONSE	        M5	2	17	F4	press
185.133	n/a	RESPONSE	        M5	2	21	A4	release
185.528	n/a	RESPONSE	        M5	2	17	F4	release
190.78	6.317	CUE_LISTEN	        M3	1	n/a	n/a	n/a
197.097	7.758	FIXCROSS	n/a	n/a	n/a	n/a	n/a
204.855	6.317	CUE_PLAYBACK_BOTH_HANDS	        M3	1	n/a	n/a	n/a
205.603	n/a	RESPONSE	        M3	1	00	C3	press
205.618	n/a	RESPONSE	        M3	1	12	C4	press
206.058	n/a	RESPONSE	        M3	1	14	D4	press
206.083	n/a	RESPONSE	        M3	1	07	G3	press
206.137	n/a	RESPONSE	        M3	1	12	C4	release
206.214	n/a	RESPONSE	        M3	1	00	C3	release
206.509	n/a	RESPONSE	        M3	1	16	E4	press
206.512	n/a	RESPONSE	        M3	1	04	E3	press
206.581	n/a	RESPONSE	        M3	1	14	D4	release
206.621	n/a	RESPONSE	        M3	1	07	G3	release
206.973	n/a	RESPONSE	        M3	1	07	G3	press
206.976	n/a	RESPONSE	        M3	1	12	C4	press
207.014	n/a	RESPONSE	        M3	1	16	E4	release
207.091	n/a	RESPONSE	        M3	1	04	E3	release
207.362	n/a	RESPONSE	        M3	1	12	C4	release
207.454	n/a	RESPONSE	        M3	1	00	C3	press
207.489	n/a	RESPONSE	        M3	1	07	G3	release
207.513	n/a	RESPONSE	        M3	1	12	C4	press
207.919	n/a	RESPONSE	        M3	1	14	D4	press
207.922	n/a	RESPONSE	        M3	1	07	G3	press
207.983	n/a	RESPONSE	        M3	1	12	C4	release
207.986	n/a	RESPONSE	        M3	1	00	C3	release
208.374	n/a	RESPONSE	        M3	1	04	E3	press
208.386	n/a	RESPONSE	        M3	1	16	E4	press
208.447	n/a	RESPONSE	        M3	1	14	D4	release
208.461	n/a	RESPONSE	        M3	1	07	G3	release
208.842	n/a	RESPONSE	        M3	1	07	G3	press
208.851	n/a	RESPONSE	        M3	1	12	C4	press
208.864	n/a	RESPONSE	        M3	1	16	E4	release
208.893	n/a	RESPONSE	        M3	1	04	E3	release
209.287	n/a	RESPONSE	        M3	1	00	C3	press
209.296	n/a	RESPONSE	        M3	1	16	E4	press
209.348	n/a	RESPONSE	        M3	1	07	G3	release
209.361	n/a	RESPONSE	        M3	1	12	C4	release
209.732	n/a	RESPONSE	        M3	1	07	G3	press
209.751	n/a	RESPONSE	        M3	1	17	F4	press
209.812	n/a	RESPONSE	        M3	1	16	E4	release
209.816	n/a	RESPONSE	        M3	1	00	C3	release
210.187	n/a	RESPONSE	        M3	1	19	G4	press
210.256	n/a	RESPONSE	        M3	1	05	F3	press
210.267	n/a	RESPONSE	        M3	1	04	E3	press
210.269	n/a	RESPONSE	        M3	1	07	G3	release
210.309	n/a	RESPONSE	        M3	1	17	F4	release
210.421	n/a	RESPONSE	        M3	1	04	E3	release
210.692	n/a	RESPONSE	        M3	1	05	F3	release
210.694	n/a	RESPONSE	        M3	1	07	G3	press
210.697	n/a	RESPONSE	        M3	1	19	G4	release
211.126	n/a	RESPONSE	        M3	1	00	C3	press
211.147	n/a	RESPONSE	        M3	1	16	E4	press
211.158	n/a	RESPONSE	        M3	1	07	G3	release
211.172	7.758	FIXCROSS	n/a	n/a	n/a	n/a	n/a
211.599	n/a	RESPONSE	        M3	1	07	G3	press
211.611	n/a	RESPONSE	        M3	1	17	F4	press
211.642	n/a	RESPONSE	        M3	1	16	E4	release
211.646	n/a	RESPONSE	        M3	1	00	C3	release
212.064	n/a	RESPONSE	        M3	1	04	E3	press
212.076	n/a	RESPONSE	        M3	1	19	G4	press
212.157	n/a	RESPONSE	        M3	1	07	G3	release
212.528	n/a	RESPONSE	        M3	1	17	F4	release
212.542	n/a	RESPONSE	        M3	1	07	G3	press
212.572	n/a	RESPONSE	        M3	1	04	E3	release
212.603	n/a	RESPONSE	        M3	1	19	G4	release
212.974	n/a	RESPONSE	        M3	1	07	G3	release
218.93	6.325	CUE_LISTEN	        M3	2	n/a	n/a	n/a
225.002	n/a	RESPONSE	        M3	2	04	E3	press
225.255	7.758	FIXCROSS	n/a	n/a	n/a	n/a	n/a
225.276	n/a	RESPONSE	        M3	2	04	E3	release
233.014	6.317	CUE_PLAYBACK_BOTH_HANDS	        M3	2	n/a	n/a	n/a
233.529	n/a	RESPONSE	        M3	2	19	G4	press
233.551	n/a	RESPONSE	        M3	2	00	C3	press
233.764	n/a	RESPONSE	        M3	2	21	A4	press
233.883	n/a	RESPONSE	        M3	2	19	G4	release
234.018	n/a	RESPONSE	        M3	2	19	G4	press
234.067	n/a	RESPONSE	        M3	2	07	G3	press
234.118	n/a	RESPONSE	        M3	2	00	C3	release
234.149	n/a	RESPONSE	        M3	2	21	A4	release
234.291	n/a	RESPONSE	        M3	2	17	F4	press
234.432	n/a	RESPONSE	        M3	2	19	G4	release
234.473	n/a	RESPONSE	        M3	2	04	E3	press
234.544	n/a	RESPONSE	        M3	2	07	G3	release
234.566	n/a	RESPONSE	        M3	2	16	E4	press
234.677	n/a	RESPONSE	        M3	2	17	F4	release
235.052	n/a	RESPONSE	        M3	2	07	G3	press
235.063	n/a	RESPONSE	        M3	2	12	C4	press
235.091	n/a	RESPONSE	        M3	2	04	E3	release
235.144	n/a	RESPONSE	        M3	2	16	E4	release
235.556	n/a	RESPONSE	        M3	2	12	C4	release
235.566	n/a	RESPONSE	        M3	2	00	C3	press
235.598	n/a	RESPONSE	        M3	2	19	G4	press
235.601	n/a	RESPONSE	        M3	2	17	F4	press
235.623	n/a	RESPONSE	        M3	2	07	G3	release
235.847	n/a	RESPONSE	        M3	2	17	F4	release
235.849	n/a	RESPONSE	        M3	2	19	G4	release
236.061	n/a	RESPONSE	        M3	2	00	C3	release
236.266	n/a	RESPONSE	        M3	2	19	G4	press
236.268	n/a	RESPONSE	        M3	2	00	C3	press
236.503	n/a	RESPONSE	        M3	2	21	A4	press
236.581	n/a	RESPONSE	        M3	2	19	G4	release
236.758	n/a	RESPONSE	        M3	2	19	G4	press
236.764	n/a	RESPONSE	        M3	2	07	G3	press
236.824	n/a	RESPONSE	        M3	2	21	A4	release
236.827	n/a	RESPONSE	        M3	2	00	C3	release
236.981	n/a	RESPONSE	        M3	2	17	F4	press
237.089	n/a	RESPONSE	        M3	2	19	G4	release
237.202	n/a	RESPONSE	        M3	2	04	E3	press
237.241	n/a	RESPONSE	        M3	2	16	E4	press
237.278	n/a	RESPONSE	        M3	2	07	G3	release
237.338	n/a	RESPONSE	        M3	2	17	F4	release
237.707	n/a	RESPONSE	        M3	2	07	G3	press
237.719	n/a	RESPONSE	        M3	2	04	E3	release
237.762	n/a	RESPONSE	        M3	2	12	C4	press
237.774	n/a	RESPONSE	        M3	2	16	E4	release
238.121	n/a	RESPONSE	        M3	2	12	C4	release
238.193	n/a	RESPONSE	        M3	2	00	C3	press
238.212	n/a	RESPONSE	        M3	2	07	G3	release
238.257	n/a	RESPONSE	        M3	2	12	C4	press
238.778	n/a	RESPONSE	        M3	2	07	G3	press
238.799	n/a	RESPONSE	        M3	2	12	C4	release
238.831	n/a	RESPONSE	        M3	2	00	C3	release
239.252	n/a	RESPONSE	        M3	2	00	C3	press
239.273	n/a	RESPONSE	        M3	2	12	C4	press
239.314	n/a	RESPONSE	        M3	2	07	G3	release
239.33	7.758	FIXCROSS	n/a	n/a	n/a	n/a	n/a
240.136	n/a	RESPONSE	        M3	2	12	C4	release
240.157	n/a	RESPONSE	        M3	2	00	C3	release
240.341	n/a	RESPONSE	        M3	2	00	C3	press
240.359	n/a	RESPONSE	        M3	2	12	C4	press
240.842	n/a	RESPONSE	        M3	2	07	G3	press
240.853	n/a	RESPONSE	        M3	2	12	C4	release
240.913	n/a	RESPONSE	        M3	2	00	C3	release
241.327	n/a	RESPONSE	        M3	2	00	C3	press
241.357	n/a	RESPONSE	        M3	2	12	C4	press
241.367	n/a	RESPONSE	        M3	2	07	G3	release
242.288	n/a	RESPONSE	        M3	2	00	C3	release
242.332	n/a	RESPONSE	        M3	2	12	C4	release
247.089	6.317	CUE_LISTEN	        M6	1	n/a	n/a	n/a
253.406	7.758	FIXCROSS	n/a	n/a	n/a	n/a	n/a
256.592	n/a	RESPONSE	        M6	1	05	F3	press
256.852	n/a	RESPONSE	        M6	1	05	F3	release
261.164	6.325	CUE_PLAYBACK_BOTH_HANDS	        M6	1	n/a	n/a	n/a
264.544	n/a	RESPONSE	        M6	1	04	E3	press
264.704	n/a	RESPONSE	        M6	1	16	E4	press
265.236	n/a	RESPONSE	        M6	1	17	F4	press
265.421	n/a	RESPONSE	        M6	1	15	D#4	press
265.492	n/a	RESPONSE	        M6	1	17	F4	release
265.623	n/a	RESPONSE	        M6	1	15	D#4	release
265.648	n/a	RESPONSE	        M6	1	16	E4	release
266.206	n/a	RESPONSE	        M6	1	16	E4	press
266.664	n/a	RESPONSE	        M6	1	19	G4	press
266.894	n/a	RESPONSE	        M6	1	18	F#4	press
266.949	n/a	RESPONSE	        M6	1	19	G4	release
267.118	n/a	RESPONSE	        M6	1	19	G4	press
267.177	n/a	RESPONSE	        M6	1	18	F#4	release
267.489	7.758	FIXCROSS	n/a	n/a	n/a	n/a	n/a
267.863	n/a	RESPONSE	        M6	1	19	G4	release
267.972	n/a	RESPONSE	        M6	1	16	E4	release
268.413	n/a	RESPONSE	        M6	1	16	E4	press
268.433	n/a	RESPONSE	        M6	1	19	G4	press
269.083	n/a	RESPONSE	        M6	1	19	G4	release
269.154	n/a	RESPONSE	        M6	1	16	E4	release
269.326	n/a	RESPONSE	        M6	1	04	E3	release
269.577	n/a	RESPONSE	        M6	1	04	E3	press
269.628	n/a	RESPONSE	        M6	1	19	G4	press
269.631	n/a	RESPONSE	        M6	1	16	E4	press
270.131	n/a	RESPONSE	        M6	1	11	B3	press
270.203	n/a	RESPONSE	        M6	1	19	G4	release
270.324	n/a	RESPONSE	        M6	1	16	E4	release
270.514	n/a	RESPONSE	        M6	1	11	B3	release
270.736	n/a	RESPONSE	        M6	1	16	E4	press
270.787	n/a	RESPONSE	        M6	1	19	G4	press
270.918	n/a	RESPONSE	        M6	1	19	G4	release
271.239	n/a	RESPONSE	        M6	1	21	A4	press
271.411	n/a	RESPONSE	        M6	1	11	B3	press
271.492	n/a	RESPONSE	        M6	1	16	E4	release
271.553	n/a	RESPONSE	        M6	1	21	A4	release
271.684	n/a	RESPONSE	        M6	1	11	B3	release
272.038	n/a	RESPONSE	        M6	1	04	E3	release
273.148	n/a	RESPONSE	        M6	1	04	E3	press
273.198	n/a	RESPONSE	        M6	1	16	E4	press
273.602	n/a	RESPONSE	        M6	1	19	G4	press
273.641	n/a	RESPONSE	        M6	1	11	B3	press
273.742	n/a	RESPONSE	        M6	1	18	F#4	press
273.786	n/a	RESPONSE	        M6	1	19	G4	release
273.948	n/a	RESPONSE	        M6	1	19	G4	press
274.007	n/a	RESPONSE	        M6	1	18	F#4	release
274.398	n/a	RESPONSE	        M6	1	23	B4	press
274.429	n/a	RESPONSE	        M6	1	19	G4	release
274.551	n/a	RESPONSE	        M6	1	24	C5	press
274.724	n/a	RESPONSE	        M6	1	23	B4	release
274.801	n/a	RESPONSE	        M6	1	23	B4	press
274.919	n/a	RESPONSE	        M6	1	24	C5	release
275.247	6.317	CUE_LISTEN	        M6	2	n/a	n/a	n/a
275.418	n/a	RESPONSE	        M6	2	23	B4	release
275.512	n/a	RESPONSE	        M6	2	11	B3	release
275.586	n/a	RESPONSE	        M6	2	16	E4	release
275.612	n/a	RESPONSE	        M6	2	04	E3	release
281.564	7.758	FIXCROSS	n/a	n/a	n/a	n/a	n/a
283.716	n/a	RESPONSE	        M6	2	07	G3	press
283.839	n/a	RESPONSE	        M6	2	07	G3	release
287.523	n/a	RESPONSE	        M6	2	04	E3	press
287.857	n/a	RESPONSE	        M6	2	04	E3	release
289.322	6.325	CUE_PLAYBACK_BOTH_HANDS	        M6	2	n/a	n/a	n/a
290.508	n/a	RESPONSE	        M6	2	04	E3	press
290.547	n/a	RESPONSE	        M6	2	16	E4	press
290.558	n/a	RESPONSE	        M6	2	21	A4	press
291.099	n/a	RESPONSE	        M6	2	21	A4	release
291.11	n/a	RESPONSE	        M6	2	04	E3	release
291.212	n/a	RESPONSE	        M6	2	16	E4	release
291.373	n/a	RESPONSE	        M6	2	04	E3	press
291.484	n/a	RESPONSE	        M6	2	21	A4	press
291.496	n/a	RESPONSE	        M6	2	16	E4	press
291.927	n/a	RESPONSE	        M6	2	11	B3	press
292.04	n/a	RESPONSE	        M6	2	16	E4	release
292.049	n/a	RESPONSE	        M6	2	04	E3	release
292.13	n/a	RESPONSE	        M6	2	21	A4	release
292.352	n/a	RESPONSE	        M6	2	11	B3	release
292.403	n/a	RESPONSE	        M6	2	07	G3	press
292.614	n/a	RESPONSE	        M6	2	16	E4	press
292.888	n/a	RESPONSE	        M6	2	07	G3	release
292.957	n/a	RESPONSE	        M6	2	16	E4	release
293.368	n/a	RESPONSE	        M6	2	04	E3	press
293.389	n/a	RESPONSE	        M6	2	16	E4	press
293.781	n/a	RESPONSE	        M6	2	11	B3	press
293.882	n/a	RESPONSE	        M6	2	16	E4	release
293.884	n/a	RESPONSE	        M6	2	04	E3	release
294.228	n/a	RESPONSE	        M6	2	16	E4	press
294.237	n/a	RESPONSE	        M6	2	11	B3	release
294.258	n/a	RESPONSE	        M6	2	07	G3	press
294.659	n/a	RESPONSE	        M6	2	16	E4	release
294.67	n/a	RESPONSE	        M6	2	07	G3	release
295.227	n/a	RESPONSE	        M6	2	04	E3	press
295.229	n/a	RESPONSE	        M6	2	21	A4	press
295.239	n/a	RESPONSE	        M6	2	16	E4	press
295.647	7.758	FIXCROSS	n/a	n/a	n/a	n/a	n/a
295.649	n/a	RESPONSE	        M6	2	11	B3	press
295.732	n/a	RESPONSE	        M6	2	04	E3	release
295.742	n/a	RESPONSE	        M6	2	16	E4	release
296.301	n/a	RESPONSE	        M6	2	21	A4	release
296.408	n/a	RESPONSE	        M6	2	11	B3	release
296.799	n/a	RESPONSE	        M6	2	04	E3	press
296.822	n/a	RESPONSE	        M6	2	16	E4	press
297.239	n/a	RESPONSE	        M6	2	11	B3	press
297.299	n/a	RESPONSE	        M6	2	04	E3	release
297.316	n/a	RESPONSE	        M6	2	16	E4	release
297.659	n/a	RESPONSE	        M6	2	07	G3	press
297.662	n/a	RESPONSE	        M6	2	16	E4	press
297.688	n/a	RESPONSE	        M6	2	11	B3	release
298.109	n/a	RESPONSE	        M6	2	11	B3	press
298.151	n/a	RESPONSE	        M6	2	07	G3	release
298.157	n/a	RESPONSE	        M6	2	16	E4	release
298.528	n/a	RESPONSE	        M6	2	11	B3	release
298.549	n/a	RESPONSE	        M6	2	04	E3	press
298.57	n/a	RESPONSE	        M6	2	14	D4	press
299.011	n/a	RESPONSE	        M6	2	11	B3	press
299.032	n/a	RESPONSE	        M6	2	04	E3	release
299.103	n/a	RESPONSE	        M6	2	14	D4	release
299.464	n/a	RESPONSE	        M6	2	07	G3	press
299.467	n/a	RESPONSE	        M6	2	14	D4	press
299.507	n/a	RESPONSE	        M6	2	11	B3	release
299.908	n/a	RESPONSE	        M6	2	11	B3	press
299.949	n/a	RESPONSE	        M6	2	07	G3	release
299.99	n/a	RESPONSE	        M6	2	14	D4	release
300.302	n/a	RESPONSE	        M6	2	04	E3	press
300.353	n/a	RESPONSE	        M6	2	14	D4	press
300.364	n/a	RESPONSE	        M6	2	11	B3	release
300.787	n/a	RESPONSE	        M6	2	11	B3	press
300.807	n/a	RESPONSE	        M6	2	14	D4	release
300.819	n/a	RESPONSE	        M6	2	04	E3	release
301.179	n/a	RESPONSE	        M6	2	07	G3	press
301.19	n/a	RESPONSE	        M6	2	14	D4	press
301.233	n/a	RESPONSE	        M6	2	11	B3	release
301.653	n/a	RESPONSE	        M6	2	11	B3	press
301.684	n/a	RESPONSE	        M6	2	14	D4	release
301.687	n/a	RESPONSE	        M6	2	07	G3	release
302.087	n/a	RESPONSE	        M6	2	04	E3	press
302.098	n/a	RESPONSE	        M6	2	14	D4	press
302.139	n/a	RESPONSE	        M6	2	11	B3	release
302.531	n/a	RESPONSE	        M6	2	11	B3	press
302.533	n/a	RESPONSE	        M6	2	04	E3	release
302.553	n/a	RESPONSE	        M6	2	14	D4	release
303.357	n/a	RESPONSE	        M6	2	06	F#3	press
303.376	n/a	RESPONSE	        M6	2	14	D4	press
303.406	6.317	CUE_LISTEN	        M2	1	n/a	n/a	n/a
303.417	n/a	RESPONSE	        M2	1	11	B3	release
303.858	n/a	RESPONSE	        M2	1	06	F#3	release
303.86	n/a	RESPONSE	        M2	1	14	D4	release
309.722	7.758	FIXCROSS	n/a	n/a	n/a	n/a	n/a
309.747	n/a	RESPONSE	        M2	1	07	G3	press
310.019	n/a	RESPONSE	        M2	1	07	G3	release
317.481	6.317	CUE_PLAYBACK_RIGHT_HAND	        M2	1	n/a	n/a	n/a
318.66	n/a	RESPONSE	        M2	1	24	C5	press
319.402	n/a	RESPONSE	        M2	1	24	C5	release
319.521	n/a	RESPONSE	        M2	1	24	C5	press
319.944	n/a	RESPONSE	        M2	1	19	G4	press
320.014	n/a	RESPONSE	        M2	1	24	C5	release
320.184	n/a	RESPONSE	        M2	1	19	G4	release
320.366	n/a	RESPONSE	        M2	1	19	G4	press
320.737	n/a	RESPONSE	        M2	1	17	F4	press
320.82	n/a	RESPONSE	        M2	1	19	G4	release
321.149	n/a	RESPONSE	        M2	1	16	E4	press
321.41	n/a	RESPONSE	        M2	1	17	F4	release
321.504	n/a	RESPONSE	        M2	1	17	F4	press
321.603	n/a	RESPONSE	        M2	1	16	E4	release
321.877	n/a	RESPONSE	        M2	1	19	G4	press
321.986	n/a	RESPONSE	        M2	1	17	F4	release
322.459	n/a	RESPONSE	        M2	1	19	G4	release
322.688	n/a	RESPONSE	        M2	1	24	C5	press
323.079	n/a	RESPONSE	        M2	1	19	G4	press
323.14	n/a	RESPONSE	        M2	1	24	C5	release
323.322	n/a	RESPONSE	        M2	1	19	G4	release
323.496	n/a	RESPONSE	        M2	1	19	G4	press
323.797	7.758	FIXCROSS	n/a	n/a	n/a	n/a	n/a
323.846	n/a	RESPONSE	        M2	1	17	F4	press
323.937	n/a	RESPONSE	        M2	1	19	G4	release
324.228	n/a	RESPONSE	        M2	1	16	E4	press
324.27	n/a	RESPONSE	        M2	1	17	F4	release
324.6	n/a	RESPONSE	        M2	1	14	D4	press
324.682	n/a	RESPONSE	        M2	1	16	E4	release
325.002	n/a	RESPONSE	        M2	1	12	C4	press
325.034	n/a	RESPONSE	        M2	1	14	D4	release
326.133	n/a	RESPONSE	        M2	1	12	C4	release
331.556	6.325	CUE_LISTEN	        M2	2	n/a	n/a	n/a
337.881	7.758	FIXCROSS	n/a	n/a	n/a	n/a	n/a
345.639	6.317	CUE_PLAYBACK_RIGHT_HAND	        M2	2	n/a	n/a	n/a
346.12	n/a	RESPONSE	        M2	2	17	F4	press
346.539	n/a	RESPONSE	        M2	2	17	F4	release
347.024	n/a	RESPONSE	        M2	2	19	G4	press
347.469	n/a	RESPONSE	        M2	2	17	F4	press
347.527	n/a	RESPONSE	        M2	2	19	G4	release
347.874	n/a	RESPONSE	        M2	2	16	E4	press
347.948	n/a	RESPONSE	        M2	2	17	F4	release
348.287	n/a	RESPONSE	        M2	2	16	E4	release
351.956	7.758	FIXCROSS	n/a	n/a	n/a	n/a	n/a
352.424	n/a	RESPONSE	        M2	2	11	B3	press
352.766	n/a	RESPONSE	        M2	2	12	C4	press
352.807	n/a	RESPONSE	        M2	2	11	B3	release
352.938	n/a	RESPONSE	        M2	2	12	C4	release
353.239	n/a	RESPONSE	        M2	2	12	C4	press
353.58	n/a	RESPONSE	        M2	2	14	D4	press
353.632	n/a	RESPONSE	        M2	2	12	C4	release
353.954	n/a	RESPONSE	        M2	2	16	E4	press
354.026	n/a	RESPONSE	        M2	2	14	D4	release
354.319	n/a	RESPONSE	        M2	2	14	D4	press
354.35	n/a	RESPONSE	        M2	2	16	E4	release
354.69	n/a	RESPONSE	        M2	2	16	E4	press
354.714	n/a	RESPONSE	        M2	2	14	D4	release
355.04	n/a	RESPONSE	        M2	2	17	F4	press
355.11	n/a	RESPONSE	        M2	2	16	E4	release
355.444	n/a	RESPONSE	        M2	2	19	G4	press
355.504	n/a	RESPONSE	        M2	2	17	F4	release
355.946	n/a	RESPONSE	        M2	2	19	G4	release
356.192	n/a	RESPONSE	        M2	2	16	E4	press
356.509	n/a	RESPONSE	        M2	2	19	G4	press
356.522	n/a	RESPONSE	        M2	2	16	E4	release
356.753	n/a	RESPONSE	        M2	2	19	G4	release
356.869	n/a	RESPONSE	        M2	2	19	G4	press
357.22	n/a	RESPONSE	        M2	2	17	F4	press
357.344	n/a	RESPONSE	        M2	2	19	G4	release
357.584	n/a	RESPONSE	        M2	2	16	E4	press
357.629	n/a	RESPONSE	        M2	2	17	F4	release
357.93	n/a	RESPONSE	        M2	2	14	D4	press
357.979	n/a	RESPONSE	        M2	2	16	E4	release
358.304	n/a	RESPONSE	        M2	2	16	E4	press
358.376	n/a	RESPONSE	        M2	2	14	D4	release
358.927	n/a	RESPONSE	        M2	2	16	E4	release
359.714	6.317	CUE_LISTEN	        M8	1	n/a	n/a	n/a
366.031	7.758	FIXCROSS	n/a	n/a	n/a	n/a	n/a
368.894	n/a	RESPONSE	        M8	1	14	D4	press
369.156	n/a	RESPONSE	        M8	1	14	D4	release
373.789	6.325	CUE_PLAYBACK_RIGHT_HAND	        M8	1	n/a	n/a	n/a
374.45	n/a	RESPONSE	        M8	1	16	E4	press
374.779	n/a	RESPONSE	        M8	1	19	G4	press
374.826	n/a	RESPONSE	        M8	1	16	E4	release
375.094	n/a	RESPONSE	        M8	1	23	B4	press
375.137	n/a	RESPONSE	        M8	1	19	G4	release
375.548	n/a	RESPONSE	        M8	1	23	B4	release
375.683	n/a	RESPONSE	        M8	1	23	B4	press
376.296	n/a	RESPONSE	        M8	1	18	F#4	press
376.347	n/a	RESPONSE	        M8	1	23	B4	release
376.928	n/a	RESPONSE	        M8	1	21	A4	press
376.93	n/a	RESPONSE	        M8	1	18	F#4	release
378.009	n/a	RESPONSE	        M8	1	21	A4	release
378.014	n/a	RESPONSE	        M8	1	23	B4	press
378.689	n/a	RESPONSE	        M8	1	21	A4	press
378.758	n/a	RESPONSE	        M8	1	23	B4	release
379.019	n/a	RESPONSE	        M8	1	19	G4	press
379.12	n/a	RESPONSE	        M8	1	21	A4	release
379.422	n/a	RESPONSE	        M8	1	18	F#4	press
379.523	n/a	RESPONSE	        M8	1	19	G4	release
379.796	n/a	RESPONSE	        M8	1	16	E4	press
379.798	n/a	RESPONSE	        M8	1	18	F#4	release
379.807	n/a	RESPONSE	        M8	1	17	F4	press
380.068	n/a	RESPONSE	        M8	1	17	F4	release
380.114	7.758	FIXCROSS	n/a	n/a	n/a	n/a	n/a
380.399	n/a	RESPONSE	        M8	1	16	E4	release
380.402	n/a	RESPONSE	        M8	1	23	B4	press
381.082	n/a	RESPONSE	        M8	1	23	B4	release
387.872	6.317	CUE_LISTEN	        M8	2	n/a	n/a	n/a
394.189	7.759	FIXCROSS	n/a	n/a	n/a	n/a	n/a
401.948	6.317	CUE_PLAYBACK_RIGHT_HAND	        M8	2	n/a	n/a	n/a
402.48	n/a	RESPONSE	        M8	2	16	E4	press
402.802	n/a	RESPONSE	        M8	2	19	G4	press
402.873	n/a	RESPONSE	        M8	2	16	E4	release
403.107	n/a	RESPONSE	        M8	2	23	B4	press
403.128	n/a	RESPONSE	        M8	2	19	G4	release
403.587	n/a	RESPONSE	        M8	2	23	B4	release
403.69	n/a	RESPONSE	        M8	2	23	B4	press
404.37	n/a	RESPONSE	        M8	2	23	B4	release
404.373	n/a	RESPONSE	        M8	2	18	F#4	press
404.987	n/a	RESPONSE	        M8	2	21	A4	press
404.996	n/a	RESPONSE	        M8	2	18	F#4	release
405.969	n/a	RESPONSE	        M8	2	23	B4	press
406.002	n/a	RESPONSE	        M8	2	21	A4	release
406.654	n/a	RESPONSE	        M8	2	21	A4	press
406.716	n/a	RESPONSE	        M8	2	23	B4	release
406.984	n/a	RESPONSE	        M8	2	19	G4	press
407.119	n/a	RESPONSE	        M8	2	21	A4	release
407.324	n/a	RESPONSE	        M8	2	18	F#4	press
407.397	n/a	RESPONSE	        M8	2	19	G4	release
407.682	n/a	RESPONSE	        M8	2	19	G4	press
407.7	n/a	RESPONSE	        M8	2	18	F#4	release
408.264	7.758	FIXCROSS	n/a	n/a	n/a	n/a	n/a
408.31	n/a	RESPONSE	        M8	2	19	G4	release
408.332	n/a	RESPONSE	        M8	2	16	E4	press
409.633	n/a	RESPONSE	        M8	2	16	E4	release
416.023	6.325	CUE_LISTEN	        M4	1	n/a	n/a	n/a
422.348	7.758	FIXCROSS	n/a	n/a	n/a	n/a	n/a
430.106	6.317	CUE_PLAYBACK_BOTH_HANDS	        M4	1	n/a	n/a	n/a
430.694	n/a	RESPONSE	        M4	1	24	C5	press
430.727	n/a	RESPONSE	        M4	1	07	G3	press
430.729	n/a	RESPONSE	        M4	1	04	E3	press
430.858	n/a	RESPONSE	        M4	1	00	C3	press
431.47	n/a	RESPONSE	        M4	1	24	C5	release
431.59	n/a	RESPONSE	        M4	1	04	E3	release
431.593	n/a	RESPONSE	        M4	1	00	C3	release
431.654	n/a	RESPONSE	        M4	1	07	G3	release
431.946	n/a	RESPONSE	        M4	1	24	C5	press
431.976	n/a	RESPONSE	        M4	1	07	G3	press
431.978	n/a	RESPONSE	        M4	1	04	E3	press
431.98	n/a	RESPONSE	        M4	1	00	C3	press
432.429	n/a	RESPONSE	        M4	1	19	G4	press
432.522	n/a	RESPONSE	        M4	1	24	C5	release
432.632	n/a	RESPONSE	        M4	1	00	C3	release
432.636	n/a	RESPONSE	        M4	1	19	G4	release
432.654	n/a	RESPONSE	        M4	1	04	E3	release
432.726	n/a	RESPONSE	        M4	1	07	G3	release
432.867	n/a	RESPONSE	        M4	1	07	G3	press
432.869	n/a	RESPONSE	        M4	1	19	G4	press
432.872	n/a	RESPONSE	        M4	1	04	E3	press
432.9	n/a	RESPONSE	        M4	1	00	C3	press
433.293	n/a	RESPONSE	        M4	1	17	F4	press
433.356	n/a	RESPONSE	        M4	1	19	G4	release
433.364	n/a	RESPONSE	        M4	1	00	C3	release
433.386	n/a	RESPONSE	        M4	1	04	E3	release
433.407	n/a	RESPONSE	        M4	1	07	G3	release
433.718	n/a	RESPONSE	        M4	1	07	G3	press
433.73	n/a	RESPONSE	        M4	1	04	E3	press
433.75	n/a	RESPONSE	        M4	1	16	E4	press
433.792	n/a	RESPONSE	        M4	1	17	F4	release
433.914	n/a	RESPONSE	        M4	1	00	C3	press
434.156	n/a	RESPONSE	        M4	1	17	F4	press
434.207	n/a	RESPONSE	        M4	1	16	E4	release
434.238	n/a	RESPONSE	        M4	1	00	C3	release
434.259	n/a	RESPONSE	        M4	1	04	E3	release
434.283	n/a	RESPONSE	        M4	1	07	G3	release
434.592	n/a	RESPONSE	        M4	1	19	G4	press
434.594	n/a	RESPONSE	        M4	1	04	E3	press
434.597	n/a	RESPONSE	        M4	1	07	G3	press
434.657	n/a	RESPONSE	        M4	1	17	F4	release
434.954	n/a	RESPONSE	        M4	1	00	C3	press
435.239	n/a	RESPONSE	        M4	1	19	G4	release
435.242	n/a	RESPONSE	        M4	1	00	C3	release
435.253	n/a	RESPONSE	        M4	1	07	G3	release
435.263	n/a	RESPONSE	        M4	1	04	E3	release
435.528	n/a	RESPONSE	        M4	1	07	G3	press
435.53	n/a	RESPONSE	        M4	1	04	E3	press
435.54	n/a	RESPONSE	        M4	1	24	C5	press
435.674	n/a	RESPONSE	        M4	1	00	C3	press
435.968	n/a	RESPONSE	        M4	1	19	G4	press
436.037	n/a	RESPONSE	        M4	1	24	C5	release
436.06	n/a	RESPONSE	        M4	1	00	C3	release
436.08	n/a	RESPONSE	        M4	1	04	E3	release
436.094	n/a	RESPONSE	        M4	1	07	G3	release
436.13	n/a	RESPONSE	        M4	1	19	G4	release
436.367	n/a	RESPONSE	        M4	1	04	E3	press
436.369	n/a	RESPONSE	        M4	1	07	G3	press
436.379	n/a	RESPONSE	        M4	1	19	G4	press
436.423	7.758	FIXCROSS	n/a	n/a	n/a	n/a	n/a
436.559	n/a	RESPONSE	        M4	1	00	C3	press
436.774	n/a	RESPONSE	        M4	1	17	F4	press
436.829	n/a	RESPONSE	        M4	1	19	G4	release
436.838	n/a	RESPONSE	        M4	1	00	C3	release
436.86	n/a	RESPONSE	        M4	1	04	E3	release
436.889	n/a	RESPONSE	        M4	1	07	G3	release
437.193	n/a	RESPONSE	        M4	1	16	E4	press
437.196	n/a	RESPONSE	        M4	1	07	G3	press
437.21	n/a	RESPONSE	        M4	1	04	E3	press
437.253	n/a	RESPONSE	        M4	1	17	F4	release
437.602	n/a	RESPONSE	        M4	1	14	D4	press
437.689	n/a	RESPONSE	        M4	1	16	E4	release
437.706	n/a	RESPONSE	        M4	1	04	E3	release
437.718	n/a	RESPONSE	        M4	1	07	G3	release
438.026	n/a	RESPONSE	        M4	1	07	G3	press
438.03	n/a	RESPONSE	        M4	1	04	E3	press
438.047	n/a	RESPONSE	        M4	1	12	C4	press
438.083	n/a	RESPONSE	        M4	1	14	D4	release
438.242	n/a	RESPONSE	        M4	1	00	C3	press
439.274	n/a	RESPONSE	        M4	1	00	C3	release
439.328	n/a	RESPONSE	        M4	1	04	E3	release
439.358	n/a	RESPONSE	        M4	1	12	C4	release
439.44	n/a	RESPONSE	        M4	1	07	G3	release
444.181	6.333	CUE_LISTEN	        M4	2	n/a	n/a	n/a
450.514	7.758	FIXCROSS	n/a	n/a	n/a	n/a	n/a
458.273	6.308	CUE_PLAYBACK_BOTH_HANDS	        M4	2	n/a	n/a	n/a
459.997	n/a	RESPONSE	        M4	2	07	G3	press
460.058	n/a	RESPONSE	        M4	2	12	C4	press
460.139	n/a	RESPONSE	        M4	2	04	E3	press
460.53	n/a	RESPONSE	        M4	2	16	E4	press
460.972	n/a	RESPONSE	        M4	2	19	G4	press
461.023	n/a	RESPONSE	        M4	2	16	E4	release
461.365	n/a	RESPONSE	        M4	2	21	A4	press
461.485	n/a	RESPONSE	        M4	2	19	G4	release
462.057	n/a	RESPONSE	        M4	2	21	A4	release
462.128	n/a	RESPONSE	        M4	2	12	C4	release
462.13	n/a	RESPONSE	        M4	2	04	E3	release
462.23	n/a	RESPONSE	        M4	2	07	G3	release
462.462	n/a	RESPONSE	        M4	2	07	G3	press
462.493	n/a	RESPONSE	        M4	2	04	E3	press
462.504	n/a	RESPONSE	        M4	2	12	C4	press
462.956	n/a	RESPONSE	        M4	2	16	E4	press
463.439	n/a	RESPONSE	        M4	2	19	G4	press
463.46	n/a	RESPONSE	        M4	2	16	E4	release
463.95	n/a	RESPONSE	        M4	2	17	F4	press
464.102	n/a	RESPONSE	        M4	2	19	G4	release
464.243	n/a	RESPONSE	        M4	2	17	F4	release
464.325	n/a	RESPONSE	        M4	2	04	E3	release
464.387	n/a	RESPONSE	        M4	2	12	C4	release
464.458	n/a	RESPONSE	        M4	2	07	G3	release
464.581	7.758	FIXCROSS	n/a	n/a	n/a	n/a	n/a
464.598	n/a	RESPONSE	        M4	2	07	G3	press
464.622	n/a	RESPONSE	        M4	2	12	C4	press
464.632	n/a	RESPONSE	        M4	2	04	E3	press
465.002	n/a	RESPONSE	        M4	2	16	E4	press
465.447	n/a	RESPONSE	        M4	2	19	G4	press
465.519	n/a	RESPONSE	        M4	2	16	E4	release
465.83	n/a	RESPONSE	        M4	2	23	B4	press
465.855	n/a	RESPONSE	        M4	2	19	G4	release
465.999	n/a	RESPONSE	        M4	2	07	G3	release
466.005	n/a	RESPONSE	        M4	2	04	E3	release
466.263	n/a	RESPONSE	        M4	2	05	F3	press
466.283	n/a	RESPONSE	        M4	2	09	A3	press
466.293	n/a	RESPONSE	        M4	2	20	G#4	press
466.39	n/a	RESPONSE	        M4	2	23	B4	release
466.707	n/a	RESPONSE	        M4	2	19	G4	press
466.768	n/a	RESPONSE	        M4	2	20	G#4	release
467.148	n/a	RESPONSE	        M4	2	17	F4	press
467.214	n/a	RESPONSE	        M4	2	19	G4	release
468.349	n/a	RESPONSE	        M4	2	12	C4	release
468.352	n/a	RESPONSE	        M4	2	05	F3	release
468.392	n/a	RESPONSE	        M4	2	17	F4	release
468.394	n/a	RESPONSE	        M4	2	09	A3	release
472.339	6.317	CUE_LISTEN	        M3	1	n/a	n/a	n/a
478.656	7.758	FIXCROSS	n/a	n/a	n/a	n/a	n/a
486.414	6.325	CUE_PLAYBACK_RIGHT_HAND	        M3	1	n/a	n/a	n/a
486.963	n/a	RESPONSE	        M3	1	00	C3	press
486.988	n/a	RESPONSE	        M3	1	12	C4	press
487.485	n/a	RESPONSE	        M3	1	12	C4	release
487.505	n/a	RESPONSE	        M3	1	00	C3	release
487.718	n/a	RESPONSE	        M3	1	12	C4	press
488.144	n/a	RESPONSE	        M3	1	14	D4	press
488.23	n/a	RESPONSE	        M3	1	12	C4	release
488.553	n/a	RESPONSE	        M3	1	16	E4	press
488.654	n/a	RESPONSE	        M3	1	14	D4	release
489.008	n/a	RESPONSE	        M3	1	19	G4	press
489.047	n/a	RESPONSE	        M3	1	16	E4	release
489.418	n/a	RESPONSE	        M3	1	19	G4	release
489.889	n/a	RESPONSE	        M3	1	12	C4	press
490.41	n/a	RESPONSE	        M3	1	12	C4	release
491.002	n/a	RESPONSE	        M3	1	12	C4	press
491.335	n/a	RESPONSE	        M3	1	14	D4	press
491.444	n/a	RESPONSE	        M3	1	12	C4	release
491.705	n/a	RESPONSE	        M3	1	16	E4	press
491.767	n/a	RESPONSE	        M3	1	14	D4	release
492.088	n/a	RESPONSE	        M3	1	14	D4	press
492.119	n/a	RESPONSE	        M3	1	16	E4	release
492.53	n/a	RESPONSE	        M3	1	14	D4	release
492.739	7.758	FIXCROSS	n/a	n/a	n/a	n/a	n/a
500.498	6.317	CUE_LISTEN	        M3	2	n/a	n/a	n/a
506.814	7.758	FIXCROSS	n/a	n/a	n/a	n/a	n/a
514.573	6.317	CUE_PLAYBACK_RIGHT_HAND	        M3	2	n/a	n/a	n/a
515.038	n/a	RESPONSE	        M3	2	19	G4	press
515.269	n/a	RESPONSE	        M3	2	21	A4	press
515.388	n/a	RESPONSE	        M3	2	19	G4	release
515.537	n/a	RESPONSE	        M3	2	19	G4	press
515.603	n/a	RESPONSE	        M3	2	21	A4	release
515.785	n/a	RESPONSE	        M3	2	17	F4	press
515.882	n/a	RESPONSE	        M3	2	19	G4	release
516.044	n/a	RESPONSE	        M3	2	16	E4	press
516.113	n/a	RESPONSE	        M3	2	17	F4	release
516.55	n/a	RESPONSE	        M3	2	14	D4	press
516.584	n/a	RESPONSE	        M3	2	16	E4	release
517.02	n/a	RESPONSE	        M3	2	14	D4	release
517.097	n/a	RESPONSE	        M3	2	19	G4	press
517.257	n/a	RESPONSE	        M3	2	19	G4	release
517.49	n/a	RESPONSE	        M3	2	19	G4	press
517.719	n/a	RESPONSE	        M3	2	21	A4	press
517.739	n/a	RESPONSE	        M3	2	19	G4	release
517.939	n/a	RESPONSE	        M3	2	19	G4	press
517.995	n/a	RESPONSE	        M3	2	21	A4	release
518.134	n/a	RESPONSE	        M3	2	17	F4	press
518.223	n/a	RESPONSE	        M3	2	19	G4	release
518.377	n/a	RESPONSE	        M3	2	16	E4	press
518.418	n/a	RESPONSE	        M3	2	17	F4	release
518.849	n/a	RESPONSE	        M3	2	16	E4	release
518.89	n/a	RESPONSE	        M3	2	12	C4	press
519.302	n/a	RESPONSE	        M3	2	12	C4	release
519.475	n/a	RESPONSE	        M3	2	12	C4	press
520.004	n/a	RESPONSE	        M3	2	12	C4	release
520.085	n/a	RESPONSE	        M3	2	07	G3	press
520.628	n/a	RESPONSE	        M3	2	07	G3	release
520.638	n/a	RESPONSE	        M3	2	12	C4	press
520.889	7.758	FIXCROSS	n/a	n/a	n/a	n/a	n/a
521.402	n/a	RESPONSE	        M3	2	12	C4	release
521.69	n/a	RESPONSE	        M3	2	12	C4	press
522.182	n/a	RESPONSE	        M3	2	07	G3	press
522.215	n/a	RESPONSE	        M3	2	12	C4	release
522.695	n/a	RESPONSE	        M3	2	12	C4	press
522.735	n/a	RESPONSE	        M3	2	07	G3	release
523.609	n/a	RESPONSE	        M3	2	12	C4	release
528.648	6.325	CUE_LISTEN	        M5	1	n/a	n/a	n/a
534.973	7.758	FIXCROSS	n/a	n/a	n/a	n/a	n/a
542.731	6.317	CUE_PLAYBACK_BOTH_HANDS	        M5	1	n/a	n/a	n/a
543.382	n/a	RESPONSE	        M5	1	05	F3	press
543.392	n/a	RESPONSE	        M5	1	21	A4	press
543.593	n/a	RESPONSE	        M5	1	21	A4	release
543.807	n/a	RESPONSE	        M5	1	21	A4	press
543.845	n/a	RESPONSE	        M5	1	09	A3	press
543.908	n/a	RESPONSE	        M5	1	05	F3	release
544.019	n/a	RESPONSE	        M5	1	21	A4	release
544.233	n/a	RESPONSE	        M5	1	04	E3	press
544.262	n/a	RESPONSE	        M5	1	21	A4	press
544.273	n/a	RESPONSE	        M5	1	05	F3	press
544.365	n/a	RESPONSE	        M5	1	09	A3	release
544.385	n/a	RESPONSE	        M5	1	05	F3	release
544.677	n/a	RESPONSE	        M5	1	09	A3	press
544.688	n/a	RESPONSE	        M5	1	21	A4	release
544.708	n/a	RESPONSE	        M5	1	04	E3	release
545.095	n/a	RESPONSE	        M5	1	02	D3	press
545.128	n/a	RESPONSE	        M5	1	21	A4	press
545.164	n/a	RESPONSE	        M5	1	09	A3	release
545.362	n/a	RESPONSE	        M5	1	21	A4	release
545.55	n/a	RESPONSE	        M5	1	21	A4	press
545.578	n/a	RESPONSE	        M5	1	09	A3	press
545.612	n/a	RESPONSE	        M5	1	02	D3	release
545.768	n/a	RESPONSE	        M5	1	21	A4	release
545.96	n/a	RESPONSE	        M5	1	00	C3	press
545.993	n/a	RESPONSE	        M5	1	21	A4	press
546.045	n/a	RESPONSE	        M5	1	09	A3	release
546.412	n/a	RESPONSE	        M5	1	09	A3	press
546.444	n/a	RESPONSE	        M5	1	21	A4	release
546.464	n/a	RESPONSE	        M5	1	00	C3	release
546.804	n/a	RESPONSE	        M5	1	05	F3	press
546.834	n/a	RESPONSE	        M5	1	21	A4	press
546.863	n/a	RESPONSE	        M5	1	09	A3	release
547.198	n/a	RESPONSE	        M5	1	24	C5	press
547.204	n/a	RESPONSE	        M5	1	21	A4	release
547.217	n/a	RESPONSE	        M5	1	05	F3	release
547.22	n/a	RESPONSE	        M5	1	09	A3	press
547.618	n/a	RESPONSE	        M5	1	17	F4	press
547.674	n/a	RESPONSE	        M5	1	04	E3	press
547.713	n/a	RESPONSE	        M5	1	24	C5	release
547.753	n/a	RESPONSE	        M5	1	09	A3	release
548.039	n/a	RESPONSE	        M5	1	19	G4	press
548.079	n/a	RESPONSE	        M5	1	09	A3	press
548.097	n/a	RESPONSE	        M5	1	17	F4	release
548.128	n/a	RESPONSE	        M5	1	04	E3	release
548.479	n/a	RESPONSE	        M5	1	21	A4	press
548.482	n/a	RESPONSE	        M5	1	02	D3	press
548.5	n/a	RESPONSE	        M5	1	04	E3	press
548.532	n/a	RESPONSE	        M5	1	19	G4	release
548.543	n/a	RESPONSE	        M5	1	09	A3	release
548.684	n/a	RESPONSE	        M5	1	04	E3	release
548.938	n/a	RESPONSE	        M5	1	09	A3	press
548.987	n/a	RESPONSE	        M5	1	02	D3	release
549.048	7.758	FIXCROSS	n/a	n/a	n/a	n/a	n/a
549.338	n/a	RESPONSE	        M5	1	00	C3	press
549.399	n/a	RESPONSE	        M5	1	09	A3	release
549.802	n/a	RESPONSE	        M5	1	09	A3	press
549.903	n/a	RESPONSE	        M5	1	00	C3	release
550.415	n/a	RESPONSE	        M5	1	21	A4	release
550.495	n/a	RESPONSE	        M5	1	09	A3	release
556.806	6.317	CUE_LISTEN	        M5	2	n/a	n/a	n/a
563.123	7.758	FIXCROSS	n/a	n/a	n/a	n/a	n/a
570.881	6.325	CUE_PLAYBACK_BOTH_HANDS	        M5	2	n/a	n/a	n/a
571.503	n/a	RESPONSE	        M5	2	22	A#4	press
571.524	n/a	RESPONSE	        M5	2	07	G3	press
571.687	n/a	RESPONSE	        M5	2	22	A#4	release
571.877	n/a	RESPONSE	        M5	2	22	A#4	press
572.05	n/a	RESPONSE	        M5	2	22	A#4	release
572.262	n/a	RESPONSE	        M5	2	07	G3	release
572.54	n/a	RESPONSE	        M5	2	07	G3	press
572.582	n/a	RESPONSE	        M5	2	22	A#4	press
572.753	n/a	RESPONSE	        M5	2	22	A#4	release
572.944	n/a	RESPONSE	        M5	2	22	A#4	press
573.147	n/a	RESPONSE	        M5	2	22	A#4	release
573.327	n/a	RESPONSE	        M5	2	22	A#4	press
573.33	n/a	RESPONSE	        M5	2	10	A#3	press
573.419	n/a	RESPONSE	        M5	2	07	G3	release
573.53	n/a	RESPONSE	        M5	2	22	A#4	release
573.682	n/a	RESPONSE	        M5	2	22	A#4	press
573.684	n/a	RESPONSE	        M5	2	04	E3	press
573.737	n/a	RESPONSE	        M5	2	10	A#3	release
573.918	n/a	RESPONSE	        M5	2	22	A#4	release
574.068	n/a	RESPONSE	        M5	2	10	A#3	press
574.099	n/a	RESPONSE	        M5	2	22	A#4	press
574.103	n/a	RESPONSE	        M5	2	04	E3	release
574.362	n/a	RESPONSE	        M5	2	05	F3	press
574.423	n/a	RESPONSE	        M5	2	10	A#3	release
574.485	n/a	RESPONSE	        M5	2	22	A#4	release
574.545	n/a	RESPONSE	        M5	2	21	A4	press
574.785	n/a	RESPONSE	        M5	2	21	A4	release
574.899	n/a	RESPONSE	        M5	2	09	A3	press
574.925	n/a	RESPONSE	        M5	2	21	A4	press
574.955	n/a	RESPONSE	        M5	2	05	F3	release
575.118	n/a	RESPONSE	        M5	2	21	A4	release
575.322	n/a	RESPONSE	        M5	2	21	A4	press
575.648	n/a	RESPONSE	        M5	2	21	A4	release
575.944	n/a	RESPONSE	        M5	2	09	A3	release
576.333	n/a	RESPONSE	        M5	2	07	G3	press
576.343	n/a	RESPONSE	        M5	2	22	A#4	press
576.525	n/a	RESPONSE	        M5	2	22	A#4	release
576.74	n/a	RESPONSE	        M5	2	22	A#4	press
577.02	n/a	RESPONSE	        M5	2	22	A#4	release
577.115	n/a	RESPONSE	        M5	2	07	G3	release
577.206	7.758	FIXCROSS	n/a	n/a	n/a	n/a	n/a
577.329	n/a	RESPONSE	        M5	2	07	G3	press
577.333	n/a	RESPONSE	        M5	2	22	A#4	press
577.538	n/a	RESPONSE	        M5	2	22	A#4	release
577.709	n/a	RESPONSE	        M5	2	10	A#3	press
577.712	n/a	RESPONSE	        M5	2	22	A#4	press
577.789	n/a	RESPONSE	        M5	2	07	G3	release
577.898	n/a	RESPONSE	        M5	2	22	A#4	release
578.065	n/a	RESPONSE	        M5	2	04	E3	press
578.098	n/a	RESPONSE	        M5	2	22	A#4	press
578.128	n/a	RESPONSE	        M5	2	10	A#3	release
578.315	n/a	RESPONSE	        M5	2	22	A#4	release
578.468	n/a	RESPONSE	        M5	2	22	A#4	press
578.488	n/a	RESPONSE	        M5	2	10	A#3	press
578.509	n/a	RESPONSE	        M5	2	04	E3	release
578.643	n/a	RESPONSE	        M5	2	22	A#4	release
578.832	n/a	RESPONSE	        M5	2	05	F3	press
578.843	n/a	RESPONSE	        M5	2	10	A#3	release
578.864	n/a	RESPONSE	        M5	2	22	A#4	press
579.135	n/a	RESPONSE	        M5	2	22	A#4	release
579.237	n/a	RESPONSE	        M5	2	21	A4	press
579.258	n/a	RESPONSE	        M5	2	09	A3	press
579.359	n/a	RESPONSE	        M5	2	05	F3	release
579.47	n/a	RESPONSE	        M5	2	21	A4	release
579.622	n/a	RESPONSE	        M5	2	02	D3	press
579.624	n/a	RESPONSE	        M5	2	00	C3	press
579.634	n/a	RESPONSE	        M5	2	21	A4	press
579.665	n/a	RESPONSE	        M5	2	09	A3	release
579.787	n/a	RESPONSE	        M5	2	00	C3	release
579.829	n/a	RESPONSE	        M5	2	21	A4	release
579.999	n/a	RESPONSE	        M5	2	21	A4	press
580.02	n/a	RESPONSE	        M5	2	09	A3	press
580.034	n/a	RESPONSE	        M5	2	02	D3	release
580.363	n/a	RESPONSE	        M5	2	02	D3	press
580.374	n/a	RESPONSE	        M5	2	24	C5	press
580.397	n/a	RESPONSE	        M5	2	21	A4	release
580.429	n/a	RESPONSE	        M5	2	09	A3	release
580.648	n/a	RESPONSE	        M5	2	24	C5	release
580.749	n/a	RESPONSE	        M5	2	24	C5	press
580.76	n/a	RESPONSE	        M5	2	02	D3	release
580.772	n/a	RESPONSE	        M5	2	07	G3	press
581.093	n/a	RESPONSE	        M5	2	02	D3	press
581.117	n/a	RESPONSE	        M5	2	22	A#4	press
581.175	n/a	RESPONSE	        M5	2	07	G3	release
581.178	n/a	RESPONSE	        M5	2	24	C5	release
581.488	n/a	RESPONSE	        M5	2	05	F3	press
581.49	n/a	RESPONSE	        M5	2	19	G4	press
581.542	n/a	RESPONSE	        M5	2	02	D3	release
581.583	n/a	RESPONSE	        M5	2	22	A#4	release
581.853	n/a	RESPONSE	        M5	2	07	G3	press
581.855	n/a	RESPONSE	        M5	2	17	F4	press
581.885	n/a	RESPONSE	        M5	2	05	F3	release
581.907	n/a	RESPONSE	        M5	2	19	G4	release
582.588	n/a	RESPONSE	        M5	2	07	G3	release
582.59	n/a	RESPONSE	        M5	2	17	F4	release
584.965	6.317	CUE_LISTEN	        M1	1	n/a	n/a	n/a
591.281	7.758	FIXCROSS	n/a	n/a	n/a	n/a	n/a
599.04	6.317	CUE_PLAYBACK_BOTH_HANDS	        M1	1	n/a	n/a	n/a
599.658	n/a	RESPONSE	        M1	1	04	E3	press
599.668	n/a	RESPONSE	        M1	1	17	F4	press
599.67	n/a	RESPONSE	        M1	1	07	G3	press
599.72	n/a	RESPONSE	        M1	1	00	C3	press
600.263	n/a	RESPONSE	        M1	1	14	D4	press
600.333	n/a	RESPONSE	        M1	1	17	F4	release
600.544	n/a	RESPONSE	        M1	1	14	D4	release
600.855	n/a	RESPONSE	        M1	1	14	D4	press
601.119	n/a	RESPONSE	        M1	1	00	C3	release
601.138	n/a	RESPONSE	        M1	1	14	D4	release
601.152	n/a	RESPONSE	        M1	1	04	E3	release
601.38	n/a	RESPONSE	        M1	1	05	F3	press
601.392	n/a	RESPONSE	        M1	1	16	E4	press
601.394	n/a	RESPONSE	        M1	1	02	D3	press
601.877	n/a	RESPONSE	        M1	1	16	E4	release
601.985	n/a	RESPONSE	        M1	1	02	D3	release
601.988	n/a	RESPONSE	        M1	1	05	F3	release
602.028	n/a	RESPONSE	        M1	1	07	G3	release
605.356	7.758	FIXCROSS	n/a	n/a	n/a	n/a	n/a
606.365	n/a	RESPONSE	        M1	1	19	G4	press
606.397	n/a	RESPONSE	        M1	1	04	E3	press
606.399	n/a	RESPONSE	        M1	1	07	G3	press
606.455	n/a	RESPONSE	        M1	1	00	C3	press
606.94	n/a	RESPONSE	        M1	1	16	E4	press
607.019	n/a	RESPONSE	        M1	1	19	G4	release
607.19	n/a	RESPONSE	        M1	1	16	E4	release
607.468	n/a	RESPONSE	        M1	1	16	E4	press
607.668	n/a	RESPONSE	        M1	1	04	E3	release
607.675	n/a	RESPONSE	        M1	1	16	E4	release
607.745	n/a	RESPONSE	        M1	1	00	C3	release
607.923	n/a	RESPONSE	        M1	1	02	D3	press
607.933	n/a	RESPONSE	        M1	1	05	F3	press
607.937	n/a	RESPONSE	        M1	1	17	F4	press
608.42	n/a	RESPONSE	        M1	1	14	D4	press
608.46	n/a	RESPONSE	        M1	1	17	F4	release
608.622	n/a	RESPONSE	        M1	1	14	D4	release
608.893	n/a	RESPONSE	        M1	1	14	D4	press
609.084	n/a	RESPONSE	        M1	1	02	D3	release
609.115	n/a	RESPONSE	        M1	1	14	D4	release
609.148	n/a	RESPONSE	        M1	1	05	F3	release
609.33	n/a	RESPONSE	        M1	1	04	E3	press
609.369	n/a	RESPONSE	        M1	1	00	C3	press
609.372	n/a	RESPONSE	        M1	1	12	C4	press
609.604	n/a	RESPONSE	        M1	1	16	E4	press
609.683	n/a	RESPONSE	        M1	1	12	C4	release
609.855	n/a	RESPONSE	        M1	1	19	G4	press
609.905	n/a	RESPONSE	        M1	1	16	E4	release
610.797	n/a	RESPONSE	        M1	1	19	G4	release
610.898	n/a	RESPONSE	        M1	1	00	C3	release
610.949	n/a	RESPONSE	        M1	1	04	E3	release
611.032	n/a	RESPONSE	        M1	1	07	G3	release
613.115	6.325	CUE_LISTEN	        M1	2	n/a	n/a	n/a
619.44	7.758	FIXCROSS	n/a	n/a	n/a	n/a	n/a
627.198	6.317	CUE_PLAYBACK_BOTH_HANDS	        M1	2	n/a	n/a	n/a
627.772	n/a	RESPONSE	        M1	2	19	G4	press
627.775	n/a	RESPONSE	        M1	2	07	G3	press
627.783	n/a	RESPONSE	        M1	2	04	E3	press
627.799	n/a	RESPONSE	        M1	2	00	C3	press
628.43	n/a	RESPONSE	        M1	2	16	E4	press
628.472	n/a	RESPONSE	        M1	2	19	G4	release
628.644	n/a	RESPONSE	        M1	2	16	E4	release
628.984	n/a	RESPONSE	        M1	2	16	E4	press
629.185	n/a	RESPONSE	        M1	2	00	C3	release
629.197	n/a	RESPONSE	        M1	2	04	E3	release
629.208	n/a	RESPONSE	        M1	2	16	E4	release
629.399	n/a	RESPONSE	        M1	2	07	G3	release
629.54	n/a	RESPONSE	        M1	2	07	G3	press
629.543	n/a	RESPONSE	        M1	2	02	D3	press
629.545	n/a	RESPONSE	        M1	2	05	F3	press
629.554	n/a	RESPONSE	        M1	2	17	F4	press
630.165	n/a	RESPONSE	        M1	2	14	D4	press
630.187	n/a	RESPONSE	        M1	2	17	F4	release
630.408	n/a	RESPONSE	        M1	2	14	D4	release
630.779	n/a	RESPONSE	        M1	2	14	D4	press
630.982	n/a	RESPONSE	        M1	2	14	D4	release
631.002	n/a	RESPONSE	        M1	2	02	D3	release
631.053	n/a	RESPONSE	        M1	2	05	F3	release
631.055	n/a	RESPONSE	        M1	2	07	G3	release
631.305	n/a	RESPONSE	        M1	2	04	E3	press
631.308	n/a	RESPONSE	        M1	2	07	G3	press
631.318	n/a	RESPONSE	        M1	2	00	C3	press
631.35	n/a	RESPONSE	        M1	2	12	C4	press
631.602	n/a	RESPONSE	        M1	2	16	E4	press
631.702	n/a	RESPONSE	        M1	2	12	C4	release
631.935	n/a	RESPONSE	        M1	2	12	C4	press
631.944	n/a	RESPONSE	        M1	2	16	E4	release
633.185	n/a	RESPONSE	        M1	2	00	C3	release
633.237	n/a	RESPONSE	        M1	2	12	C4	release
633.348	n/a	RESPONSE	        M1	2	04	E3	release
633.422	n/a	RESPONSE	        M1	2	07	G3	release
633.515	7.758	FIXCROSS	n/a	n/a	n/a	n/a	n/a
641.273	6.317	CUE_LISTEN	        M7	1	n/a	n/a	n/a
647.59	7.758	FIXCROSS	n/a	n/a	n/a	n/a	n/a
655.348	6.325	CUE_PLAYBACK_RIGHT_HAND	        M7	1	n/a	n/a	n/a
655.898	n/a	RESPONSE	        M7	1	20	G#4	press
656.448	n/a	RESPONSE	        M7	1	19	G4	press
656.539	n/a	RESPONSE	        M7	1	20	G#4	release
657.007	n/a	RESPONSE	        M7	1	17	F4	press
657.099	n/a	RESPONSE	        M7	1	19	G4	release
657.567	n/a	RESPONSE	        M7	1	19	G4	press
657.634	n/a	RESPONSE	        M7	1	17	F4	release
658.268	n/a	RESPONSE	        M7	1	14	D4	press
658.344	n/a	RESPONSE	        M7	1	19	G4	release
658.815	n/a	RESPONSE	        M7	1	14	D4	release
659.027	n/a	RESPONSE	        M7	1	14	D4	press
659.828	n/a	RESPONSE	        M7	1	19	G4	press
659.859	n/a	RESPONSE	        M7	1	17	F4	press
659.882	n/a	RESPONSE	        M7	1	14	D4	release
660.033	n/a	RESPONSE	        M7	1	17	F4	release
660.523	n/a	RESPONSE	        M7	1	19	G4	release
660.744	n/a	RESPONSE	        M7	1	07	G3	press
661.338	n/a	RESPONSE	        M7	1	09	A3	press
661.447	n/a	RESPONSE	        M7	1	07	G3	release
661.673	7.758	FIXCROSS	n/a	n/a	n/a	n/a	n/a
661.918	n/a	RESPONSE	        M7	1	10	A#3	press
661.942	n/a	RESPONSE	        M7	1	09	A3	release
662.28	n/a	RESPONSE	        M7	1	12	C4	press
662.322	n/a	RESPONSE	        M7	1	10	A#3	release
662.673	n/a	RESPONSE	        M7	1	14	D4	press
662.694	n/a	RESPONSE	        M7	1	12	C4	release
663.575	n/a	RESPONSE	        M7	1	14	D4	release
669.432	6.317	CUE_LISTEN	        M7	2	n/a	n/a	n/a
675.748	7.758	FIXCROSS	n/a	n/a	n/a	n/a	n/a
683.506	6.317	CUE_PLAYBACK_RIGHT_HAND	        M7	2	n/a	n/a	n/a
683.983	n/a	RESPONSE	        M7	2	12	C4	press
684.412	n/a	RESPONSE	        M7	2	12	C4	release
684.843	n/a	RESPONSE	        M7	2	14	D4	press
685.435	n/a	RESPONSE	        M7	2	16	E4	press
685.454	n/a	RESPONSE	        M7	2	14	D4	release
685.734	n/a	RESPONSE	        M7	2	14	D4	press
685.845	n/a	RESPONSE	        M7	2	16	E4	release
686.36	n/a	RESPONSE	        M7	2	14	D4	release
687.048	n/a	RESPONSE	        M7	2	12	C4	press
687.584	n/a	RESPONSE	        M7	2	14	D4	press
687.622	n/a	RESPONSE	        M7	2	12	C4	release
687.879	n/a	RESPONSE	        M7	2	12	C4	press
688.11	n/a	RESPONSE	        M7	2	14	D4	release
688.223	n/a	RESPONSE	        M7	2	10	A#3	press
688.273	n/a	RESPONSE	        M7	2	12	C4	release
688.53	n/a	RESPONSE	        M7	2	09	A3	press
688.552	n/a	RESPONSE	        M7	2	11	B3	press
688.583	n/a	RESPONSE	        M7	2	10	A#3	release
688.784	n/a	RESPONSE	        M7	2	11	B3	release
688.875	n/a	RESPONSE	        M7	2	10	A#3	press
688.906	n/a	RESPONSE	        M7	2	09	A3	release
689.419	n/a	RESPONSE	        M7	2	10	A#3	release
689.469	n/a	RESPONSE	        M7	2	12	C4	press
689.75	n/a	RESPONSE	        M7	2	10	A#3	press
689.802	n/a	RESPONSE	        M7	2	12	C4	release
689.823	7.758	FIXCROSS	n/a	n/a	n/a	n/a	n/a
690.043	n/a	RESPONSE	        M7	2	09	A3	press
690.065	n/a	RESPONSE	        M7	2	10	A#3	release
691.208	n/a	RESPONSE	        M7	2	07	G3	press
691.266	n/a	RESPONSE	        M7	2	09	A3	release
691.559	n/a	RESPONSE	        M7	2	09	A3	press
691.64	n/a	RESPONSE	        M7	2	07	G3	release
692.304	n/a	RESPONSE	        M7	2	09	A3	release
692.343	n/a	RESPONSE	        M7	2	10	A#3	press
693.154	n/a	RESPONSE	        M7	2	10	A#3	release
697.582	6.325	CUE_LISTEN	        M4	1	n/a	n/a	n/a
703.906	7.758	FIXCROSS	n/a	n/a	n/a	n/a	n/a
711.665	6.317	CUE_PLAYBACK_RIGHT_HAND	        M4	1	n/a	n/a	n/a
712.284	n/a	RESPONSE	        M4	1	12	C4	press
712.745	n/a	RESPONSE	        M4	1	17	F4	press
712.946	n/a	RESPONSE	        M4	1	12	C4	release
713.169	n/a	RESPONSE	        M4	1	21	A4	press
713.219	n/a	RESPONSE	        M4	1	17	F4	release
713.542	n/a	RESPONSE	        M4	1	19	G4	press
713.682	n/a	RESPONSE	        M4	1	21	A4	release
713.954	n/a	RESPONSE	        M4	1	17	F4	press
714.045	n/a	RESPONSE	        M4	1	19	G4	release
714.366	n/a	RESPONSE	        M4	1	16	E4	press
714.408	n/a	RESPONSE	        M4	1	17	F4	release
714.782	n/a	RESPONSE	        M4	1	17	F4	press
714.853	n/a	RESPONSE	        M4	1	16	E4	release
715.508	n/a	RESPONSE	        M4	1	17	F4	release
715.633	n/a	RESPONSE	        M4	1	12	C4	press
716.086	n/a	RESPONSE	        M4	1	17	F4	press
716.124	n/a	RESPONSE	        M4	1	12	C4	release
716.469	n/a	RESPONSE	        M4	1	17	F4	release
716.492	n/a	RESPONSE	        M4	1	21	A4	press
716.889	n/a	RESPONSE	        M4	1	19	G4	press
717.036	n/a	RESPONSE	        M4	1	21	A4	release
717.326	n/a	RESPONSE	        M4	1	17	F4	press
717.406	n/a	RESPONSE	        M4	1	19	G4	release
717.75	n/a	RESPONSE	        M4	1	16	E4	press
717.81	n/a	RESPONSE	        M4	1	17	F4	release
717.982	7.758	FIXCROSS	n/a	n/a	n/a	n/a	n/a
718.172	n/a	RESPONSE	        M4	1	17	F4	press
718.219	n/a	RESPONSE	        M4	1	16	E4	release
719.064	n/a	RESPONSE	        M4	1	17	F4	release
725.74	6.325	CUE_LISTEN	        M4	2	n/a	n/a	n/a
732.065	7.758	FIXCROSS	n/a	n/a	n/a	n/a	n/a
739.823	6.317	CUE_PLAYBACK_RIGHT_HAND	        M4	2	n/a	n/a	n/a
740.307	n/a	RESPONSE	        M4	2	12	C4	press
740.728	n/a	RESPONSE	        M4	2	17	F4	press
741.139	n/a	RESPONSE	        M4	2	21	A4	press
741.182	n/a	RESPONSE	        M4	2	17	F4	release
741.552	n/a	RESPONSE	        M4	2	23	B4	press
741.693	n/a	RESPONSE	        M4	2	21	A4	release
742.114	n/a	RESPONSE	        M4	2	22	A#4	press
742.176	n/a	RESPONSE	        M4	2	23	B4	release
742.496	n/a	RESPONSE	        M4	2	21	A4	press
742.559	n/a	RESPONSE	        M4	2	22	A#4	release
742.959	n/a	RESPONSE	        M4	2	19	G4	press
743.02	n/a	RESPONSE	        M4	2	21	A4	release
743.172	n/a	RESPONSE	        M4	2	12	C4	release
743.453	n/a	RESPONSE	        M4	2	19	G4	release
743.784	n/a	RESPONSE	        M4	2	12	C4	press
744.176	n/a	RESPONSE	        M4	2	17	F4	press
744.598	n/a	RESPONSE	        M4	2	19	G4	press
744.6	n/a	RESPONSE	        M4	2	21	A4	press
744.632	n/a	RESPONSE	        M4	2	17	F4	release
744.718	n/a	RESPONSE	        M4	2	21	A4	release
744.982	n/a	RESPONSE	        M4	2	22	A#4	press
745.042	n/a	RESPONSE	        M4	2	19	G4	release
745.345	n/a	RESPONSE	        M4	2	21	A4	press
745.375	n/a	RESPONSE	        M4	2	22	A#4	release
745.436	n/a	RESPONSE	        M4	2	12	C4	release
745.719	n/a	RESPONSE	        M4	2	19	G4	press
745.806	n/a	RESPONSE	        M4	2	21	A4	release
746.109	n/a	RESPONSE	        M4	2	17	F4	press
746.14	7.758	FIXCROSS	n/a	n/a	n/a	n/a	n/a
746.192	n/a	RESPONSE	        M4	2	19	G4	release
746.986	n/a	RESPONSE	        M4	2	17	F4	release
753.898	6.317	CUE_LISTEN	        M2	1	n/a	n/a	n/a
760.215	7.759	FIXCROSS	n/a	n/a	n/a	n/a	n/a
767.973	6.325	CUE_PLAYBACK_BOTH_HANDS	        M2	1	n/a	n/a	n/a
768.589	n/a	RESPONSE	        M2	1	24	C5	press
768.62	n/a	RESPONSE	        M2	1	07	G3	press
768.623	n/a	RESPONSE	        M2	1	04	E3	press
768.633	n/a	RESPONSE	        M2	1	00	C3	press
769.054	n/a	RESPONSE	        M2	1	21	A4	press
769.085	n/a	RESPONSE	        M2	1	19	G4	press
769.088	n/a	RESPONSE	        M2	1	24	C5	release
769.169	n/a	RESPONSE	        M2	1	19	G4	release
769.229	n/a	RESPONSE	        M2	1	00	C3	release
769.232	n/a	RESPONSE	        M2	1	04	E3	release
769.242	n/a	RESPONSE	        M2	1	21	A4	release
769.253	n/a	RESPONSE	        M2	1	07	G3	release
769.814	n/a	RESPONSE	        M2	1	24	C5	press
769.825	n/a	RESPONSE	        M2	1	04	E3	press
769.828	n/a	RESPONSE	        M2	1	07	G3	press
769.838	n/a	RESPONSE	        M2	1	00	C3	press
770.229	n/a	RESPONSE	        M2	1	19	G4	press
770.41	n/a	RESPONSE	        M2	1	24	C5	release
770.433	n/a	RESPONSE	        M2	1	00	C3	release
770.443	n/a	RESPONSE	        M2	1	07	G3	release
770.454	n/a	RESPONSE	        M2	1	19	G4	release
770.456	n/a	RESPONSE	        M2	1	04	E3	release
770.646	n/a	RESPONSE	        M2	1	07	G3	press
770.649	n/a	RESPONSE	        M2	1	04	E3	press
770.659	n/a	RESPONSE	        M2	1	19	G4	press
770.79	n/a	RESPONSE	        M2	1	00	C3	press
771.032	n/a	RESPONSE	        M2	1	17	F4	press
771.113	n/a	RESPONSE	        M2	1	19	G4	release
771.115	n/a	RESPONSE	        M2	1	00	C3	release
771.135	n/a	RESPONSE	        M2	1	07	G3	release
771.146	n/a	RESPONSE	        M2	1	04	E3	release
771.438	n/a	RESPONSE	        M2	1	07	G3	press
771.442	n/a	RESPONSE	        M2	1	04	E3	press
771.45	n/a	RESPONSE	        M2	1	16	E4	press
771.502	n/a	RESPONSE	        M2	1	17	F4	release
771.853	n/a	RESPONSE	        M2	1	17	F4	press
771.944	n/a	RESPONSE	        M2	1	04	E3	release
771.966	n/a	RESPONSE	        M2	1	07	G3	release
772.019	n/a	RESPONSE	        M2	1	16	E4	release
772.27	n/a	RESPONSE	        M2	1	04	E3	press
772.279	n/a	RESPONSE	        M2	1	07	G3	press
772.282	n/a	RESPONSE	        M2	1	19	G4	press
772.352	n/a	RESPONSE	        M2	1	17	F4	release
772.813	n/a	RESPONSE	        M2	1	19	G4	release
772.895	n/a	RESPONSE	        M2	1	07	G3	release
772.905	n/a	RESPONSE	        M2	1	04	E3	release
773.146	n/a	RESPONSE	        M2	1	04	E3	press
773.149	n/a	RESPONSE	        M2	1	07	G3	press
773.169	n/a	RESPONSE	        M2	1	24	C5	press
773.32	n/a	RESPONSE	        M2	1	00	C3	press
773.552	n/a	RESPONSE	        M2	1	17	F4	press
773.664	n/a	RESPONSE	        M2	1	24	C5	release
773.694	n/a	RESPONSE	        M2	1	00	C3	release
773.725	n/a	RESPONSE	        M2	1	07	G3	release
773.736	n/a	RESPONSE	        M2	1	04	E3	release
773.808	n/a	RESPONSE	        M2	1	17	F4	release
773.97	n/a	RESPONSE	        M2	1	07	G3	press
773.973	n/a	RESPONSE	        M2	1	04	E3	press
773.985	n/a	RESPONSE	        M2	1	17	F4	press
774.298	7.758	FIXCROSS	n/a	n/a	n/a	n/a	n/a
774.304	n/a	RESPONSE	        M2	1	17	F4	release
774.405	n/a	RESPONSE	        M2	1	04	E3	release
774.408	n/a	RESPONSE	        M2	1	07	G3	release
774.952	n/a	RESPONSE	        M2	1	04	E3	press
774.955	n/a	RESPONSE	        M2	1	07	G3	press
774.963	n/a	RESPONSE	        M2	1	24	C5	press
774.982	n/a	RESPONSE	        M2	1	00	C3	press
775.364	n/a	RESPONSE	        M2	1	19	G4	press
775.558	n/a	RESPONSE	        M2	1	24	C5	release
775.56	n/a	RESPONSE	        M2	1	00	C3	release
775.563	n/a	RESPONSE	        M2	1	19	G4	release
775.568	n/a	RESPONSE	        M2	1	07	G3	release
775.575	n/a	RESPONSE	        M2	1	04	E3	release
775.776	n/a	RESPONSE	        M2	1	04	E3	press
775.779	n/a	RESPONSE	        M2	1	07	G3	press
775.786	n/a	RESPONSE	        M2	1	19	G4	press
776.002	n/a	RESPONSE	        M2	1	00	C3	press
776.152	n/a	RESPONSE	        M2	1	17	F4	press
776.223	n/a	RESPONSE	        M2	1	00	C3	release
776.23	n/a	RESPONSE	        M2	1	19	G4	release
776.246	n/a	RESPONSE	        M2	1	04	E3	release
776.25	n/a	RESPONSE	        M2	1	07	G3	release
776.552	n/a	RESPONSE	        M2	1	07	G3	press
776.554	n/a	RESPONSE	        M2	1	16	E4	press
776.556	n/a	RESPONSE	        M2	1	04	E3	press
776.613	n/a	RESPONSE	        M2	1	17	F4	release
776.925	n/a	RESPONSE	        M2	1	14	D4	press
777.042	n/a	RESPONSE	        M2	1	04	E3	release
777.046	n/a	RESPONSE	        M2	1	07	G3	release
777.049	n/a	RESPONSE	        M2	1	16	E4	release
777.312	n/a	RESPONSE	        M2	1	07	G3	press
777.32	n/a	RESPONSE	        M2	1	04	E3	press
777.326	n/a	RESPONSE	        M2	1	12	C4	press
777.395	n/a	RESPONSE	        M2	1	14	D4	release
777.606	n/a	RESPONSE	        M2	1	00	C3	press
778.51	n/a	RESPONSE	        M2	1	00	C3	release
778.542	n/a	RESPONSE	        M2	1	04	E3	release
778.603	n/a	RESPONSE	        M2	1	12	C4	release
778.674	n/a	RESPONSE	        M2	1	07	G3	release
782.057	6.317	CUE_LISTEN	        M2	2	n/a	n/a	n/a
788.373	7.758	FIXCROSS	n/a	n/a	n/a	n/a	n/a
796.132	6.325	CUE_PLAYBACK_BOTH_HANDS	        M2	2	n/a	n/a	n/a
796.736	n/a	RESPONSE	        M2	2	07	G3	press
796.744	n/a	RESPONSE	        M2	2	04	E3	press
796.75	n/a	RESPONSE	        M2	2	00	C3	press
796.764	n/a	RESPONSE	        M2	2	12	C4	press
797.175	n/a	RESPONSE	        M2	2	14	D4	press
797.21	n/a	RESPONSE	        M2	2	12	C4	release
797.333	n/a	RESPONSE	        M2	2	04	E3	release
797.355	n/a	RESPONSE	        M2	2	00	C3	release
797.363	n/a	RESPONSE	        M2	2	07	G3	release
797.599	n/a	RESPONSE	        M2	2	07	G3	press
797.603	n/a	RESPONSE	        M2	2	04	E3	press
797.616	n/a	RESPONSE	        M2	2	16	E4	press
797.621	n/a	RESPONSE	        M2	2	00	C3	press
797.656	n/a	RESPONSE	        M2	2	14	D4	release
798.048	n/a	RESPONSE	        M2	2	14	D4	press
798.083	n/a	RESPONSE	        M2	2	16	E4	release
798.094	n/a	RESPONSE	        M2	2	04	E3	release
798.11	n/a	RESPONSE	        M2	2	00	C3	release
798.138	n/a	RESPONSE	        M2	2	07	G3	release
798.458	n/a	RESPONSE	        M2	2	16	E4	press
798.466	n/a	RESPONSE	        M2	2	07	G3	press
798.469	n/a	RESPONSE	        M2	2	04	E3	press
798.499	n/a	RESPONSE	        M2	2	00	C3	press
798.56	n/a	RESPONSE	        M2	2	14	D4	release
798.852	n/a	RESPONSE	        M2	2	17	F4	press
798.913	n/a	RESPONSE	        M2	2	16	E4	release
798.954	n/a	RESPONSE	        M2	2	00	C3	release
798.956	n/a	RESPONSE	        M2	2	07	G3	release
798.966	n/a	RESPONSE	        M2	2	04	E3	release
799.26	n/a	RESPONSE	        M2	2	19	G4	press
799.339	n/a	RESPONSE	        M2	2	07	G3	press
799.353	n/a	RESPONSE	        M2	2	17	F4	release
799.362	n/a	RESPONSE	        M2	2	00	C3	press
799.393	n/a	RESPONSE	        M2	2	04	E3	press
799.854	n/a	RESPONSE	        M2	2	19	G4	release
799.915	n/a	RESPONSE	        M2	2	04	E3	release
799.918	n/a	RESPONSE	        M2	2	00	C3	release
799.92	n/a	RESPONSE	        M2	2	07	G3	release
800.202	n/a	RESPONSE	        M2	2	07	G3	press
800.21	n/a	RESPONSE	        M2	2	04	E3	press
800.222	n/a	RESPONSE	        M2	2	00	C3	press
800.233	n/a	RESPONSE	        M2	2	16	E4	press
800.614	n/a	RESPONSE	        M2	2	16	E4	release
800.625	n/a	RESPONSE	        M2	2	19	G4	press
800.736	n/a	RESPONSE	        M2	2	04	E3	release
800.748	n/a	RESPONSE	        M2	2	00	C3	release
800.759	n/a	RESPONSE	        M2	2	07	G3	release
800.913	n/a	RESPONSE	        M2	2	19	G4	release
801.044	n/a	RESPONSE	        M2	2	07	G3	press
801.053	n/a	RESPONSE	        M2	2	19	G4	press
801.055	n/a	RESPONSE	        M2	2	04	E3	press
801.066	n/a	RESPONSE	        M2	2	00	C3	press
801.426	n/a	RESPONSE	        M2	2	17	F4	press
801.518	n/a	RESPONSE	        M2	2	19	G4	release
801.529	n/a	RESPONSE	        M2	2	04	E3	release
801.531	n/a	RESPONSE	        M2	2	00	C3	release
801.534	n/a	RESPONSE	        M2	2	07	G3	release
801.843	n/a	RESPONSE	        M2	2	16	E4	press
801.874	n/a	RESPONSE	        M2	2	07	G3	press
801.876	n/a	RESPONSE	        M2	2	04	E3	press
801.986	n/a	RESPONSE	        M2	2	17	F4	release
802.248	n/a	RESPONSE	        M2	2	14	D4	press
802.299	n/a	RESPONSE	        M2	2	04	E3	release
802.32	n/a	RESPONSE	        M2	2	07	G3	release
802.342	n/a	RESPONSE	        M2	2	16	E4	release
802.457	7.758	FIXCROSS	n/a	n/a	n/a	n/a	n/a
802.663	n/a	RESPONSE	        M2	2	07	G3	press
802.674	n/a	RESPONSE	        M2	2	04	E3	press
802.706	n/a	RESPONSE	        M2	2	12	C4	press
802.736	n/a	RESPONSE	        M2	2	14	D4	release
802.81	n/a	RESPONSE	        M2	2	00	C3	press
803.752	n/a	RESPONSE	        M2	2	00	C3	release
803.802	n/a	RESPONSE	        M2	2	04	E3	release
803.995	n/a	RESPONSE	        M2	2	12	C4	release
804.064	n/a	RESPONSE	        M2	2	07	G3	release
810.215	6.317	CUE_LISTEN	        M8	1	n/a	n/a	n/a
816.532	7.758	FIXCROSS	n/a	n/a	n/a	n/a	n/a
818.186	n/a	RESPONSE	        M8	1	14	D4	press
818.436	n/a	RESPONSE	        M8	1	16	E4	press
818.439	n/a	RESPONSE	        M8	1	14	D4	release
818.729	n/a	RESPONSE	        M8	1	16	E4	release
824.29	6.317	CUE_PLAYBACK_BOTH_HANDS	        M8	1	n/a	n/a	n/a
828.242	n/a	RESPONSE	        M8	1	16	E4	press
828.509	n/a	RESPONSE	        M8	1	17	F4	press
828.6	n/a	RESPONSE	        M8	1	16	E4	release
828.922	n/a	RESPONSE	        M8	1	17	F4	release
829.135	n/a	RESPONSE	        M8	1	16	E4	press
829.426	n/a	RESPONSE	        M8	1	19	G4	press
829.505	n/a	RESPONSE	        M8	1	16	E4	release
829.718	n/a	RESPONSE	        M8	1	23	B4	press
829.819	n/a	RESPONSE	        M8	1	19	G4	release
830.153	n/a	RESPONSE	        M8	1	23	B4	release
830.262	n/a	RESPONSE	        M8	1	23	B4	press
830.607	7.758	FIXCROSS	n/a	n/a	n/a	n/a	n/a
830.643	n/a	RESPONSE	        M8	1	23	B4	release
830.814	n/a	RESPONSE	        M8	1	18	F#4	press
830.825	n/a	RESPONSE	        M8	1	09	A3	press
831.139	n/a	RESPONSE	        M8	1	12	C4	press
831.22	n/a	RESPONSE	        M8	1	09	A3	release
831.439	n/a	RESPONSE	        M8	1	21	A4	press
831.472	n/a	RESPONSE	        M8	1	18	F#4	release
831.522	n/a	RESPONSE	        M8	1	16	E4	press
831.553	n/a	RESPONSE	        M8	1	17	F4	press
831.574	n/a	RESPONSE	        M8	1	12	C4	release
831.815	n/a	RESPONSE	        M8	1	17	F4	release
831.986	n/a	RESPONSE	        M8	1	16	E4	release
832.138	n/a	RESPONSE	        M8	1	16	E4	press
832.672	n/a	RESPONSE	        M8	1	23	B4	press
832.69	n/a	RESPONSE	        M8	1	13	C#4	press
832.742	n/a	RESPONSE	        M8	1	16	E4	release
832.835	n/a	RESPONSE	        M8	1	21	A4	release
833.274	n/a	RESPONSE	        M8	1	11	B3	press
833.325	n/a	RESPONSE	        M8	1	13	C#4	release
833.366	n/a	RESPONSE	        M8	1	23	B4	release
833.528	n/a	RESPONSE	        M8	1	21	A4	press
833.849	n/a	RESPONSE	        M8	1	19	G4	press
833.943	n/a	RESPONSE	        M8	1	21	A4	release
834.243	n/a	RESPONSE	        M8	1	18	F#4	press
834.364	n/a	RESPONSE	        M8	1	19	G4	release
834.645	n/a	RESPONSE	        M8	1	16	E4	press
834.648	n/a	RESPONSE	        M8	1	18	F#4	release
835.032	n/a	RESPONSE	        M8	1	11	B3	release
835.085	n/a	RESPONSE	        M8	1	14	D4	press
835.096	n/a	RESPONSE	        M8	1	12	C4	press
835.474	n/a	RESPONSE	        M8	1	14	D4	release
835.481	n/a	RESPONSE	        M8	1	12	C4	release
835.504	n/a	RESPONSE	        M8	1	11	B3	press
835.518	n/a	RESPONSE	        M8	1	23	B4	press
835.526	n/a	RESPONSE	        M8	1	16	E4	release
835.531	n/a	RESPONSE	        M8	1	21	A4	press
835.674	n/a	RESPONSE	        M8	1	23	B4	release
835.946	n/a	RESPONSE	        M8	1	11	B3	release
836.159	n/a	RESPONSE	        M8	1	11	B3	press
836.495	n/a	RESPONSE	        M8	1	21	A4	release
836.534	n/a	RESPONSE	        M8	1	11	B3	release
838.365	6.317	CUE_LISTEN	        M8	2	n/a	n/a	n/a
841.264	n/a	RESPONSE	        M8	2	16	E4	press
841.653	n/a	RESPONSE	        M8	2	16	E4	release
841.744	n/a	RESPONSE	        M8	2	19	G4	press
842.125	n/a	RESPONSE	        M8	2	19	G4	release
844.461	n/a	RESPONSE	        M8	2	16	E4	press
844.682	7.758	FIXCROSS	n/a	n/a	n/a	n/a	n/a
844.71	n/a	RESPONSE	        M8	2	19	G4	press
844.754	n/a	RESPONSE	        M8	2	16	E4	release
844.983	n/a	RESPONSE	        M8	2	23	B4	press
845.001	n/a	RESPONSE	        M8	2	19	G4	release
845.41	n/a	RESPONSE	        M8	2	23	B4	release
850.81	n/a	RESPONSE	        M8	2	12	C4	press
851.081	n/a	RESPONSE	        M8	2	12	C4	release
852.033	n/a	RESPONSE	        M8	2	09	A3	press
852.304	n/a	RESPONSE	        M8	2	09	A3	release
852.44	6.325	CUE_PLAYBACK_BOTH_HANDS	        M8	2	n/a	n/a	n/a
853.158	n/a	RESPONSE	        M8	2	16	E4	press
853.448	n/a	RESPONSE	        M8	2	19	G4	press
853.54	n/a	RESPONSE	        M8	2	16	E4	release
853.759	n/a	RESPONSE	        M8	2	19	G4	release
853.763	n/a	RESPONSE	        M8	2	23	B4	press
854.243	n/a	RESPONSE	        M8	2	23	B4	release
854.384	n/a	RESPONSE	        M8	2	23	B4	press
854.806	n/a	RESPONSE	        M8	2	23	B4	release
855.012	n/a	RESPONSE	        M8	2	09	A3	press
855.014	n/a	RESPONSE	        M8	2	18	F#4	press
855.374	n/a	RESPONSE	        M8	2	12	C4	press
855.376	n/a	RESPONSE	        M8	2	09	A3	release
855.745	n/a	RESPONSE	        M8	2	21	A4	press
855.75	n/a	RESPONSE	        M8	2	16	E4	press
855.763	n/a	RESPONSE	        M8	2	18	F#4	release
855.798	n/a	RESPONSE	        M8	2	12	C4	release
856.332	n/a	RESPONSE	        M8	2	16	E4	release
856.426	n/a	RESPONSE	        M8	2	16	E4	press
857.123	n/a	RESPONSE	        M8	2	13	C#4	press
857.125	n/a	RESPONSE	        M8	2	23	B4	press
857.171	n/a	RESPONSE	        M8	2	16	E4	release
857.21	n/a	RESPONSE	        M8	2	21	A4	release
857.786	n/a	RESPONSE	        M8	2	21	A4	press
857.798	n/a	RESPONSE	        M8	2	23	B4	release
858.341	n/a	RESPONSE	        M8	2	21	A4	release
858.345	n/a	RESPONSE	        M8	2	13	C#4	release
858.725	n/a	RESPONSE	        M8	2	23	B4	press
858.765	7.758	FIXCROSS	n/a	n/a	n/a	n/a	n/a
858.765	n/a	RESPONSE	        M8	2	15	D#4	press
859.736	n/a	RESPONSE	        M8	2	21	A4	press
859.818	n/a	RESPONSE	        M8	2	23	B4	release
860.079	n/a	RESPONSE	        M8	2	19	G4	press
860.151	n/a	RESPONSE	        M8	2	21	A4	release
860.491	n/a	RESPONSE	        M8	2	18	F#4	press
860.563	n/a	RESPONSE	        M8	2	19	G4	release
861.194	n/a	RESPONSE	        M8	2	19	G4	press
861.285	n/a	RESPONSE	        M8	2	18	F#4	release
862.038	n/a	RESPONSE	        M8	2	15	D#4	release
862.049	n/a	RESPONSE	        M8	2	11	B3	press
862.459	n/a	RESPONSE	        M8	2	16	E4	press
862.49	n/a	RESPONSE	        M8	2	17	F4	press
862.701	n/a	RESPONSE	        M8	2	17	F4	release
863.013	n/a	RESPONSE	        M8	2	19	G4	release
863.444	n/a	RESPONSE	        M8	2	09	A3	press
863.495	n/a	RESPONSE	        M8	2	11	B3	release
863.596	n/a	RESPONSE	        M8	2	16	E4	release
864.359	n/a	RESPONSE	        M8	2	09	A3	release
864.373	n/a	RESPONSE	        M8	2	05	F3	press
864.381	n/a	RESPONSE	        M8	2	07	G3	press
864.705	n/a	RESPONSE	        M8	2	05	F3	release
865.042	n/a	RESPONSE	        M8	2	07	G3	release
866.524	6.317	CUE_LISTEN	        M6	1	n/a	n/a	n/a
872.84	7.758	FIXCROSS	n/a	n/a	n/a	n/a	n/a
880.599	6.325	CUE_PLAYBACK_RIGHT_HAND	        M6	1	n/a	n/a	n/a
881.108	n/a	RESPONSE	        M6	1	16	E4	press
881.426	n/a	RESPONSE	        M6	1	16	E4	release
881.458	n/a	RESPONSE	        M6	1	15	D#4	press
881.601	n/a	RESPONSE	        M6	1	15	D#4	release
882.22	n/a	RESPONSE	        M6	1	14	D4	press
882.531	n/a	RESPONSE	        M6	1	14	D4	release
882.883	n/a	RESPONSE	        M6	1	16	E4	press
883.214	n/a	RESPONSE	        M6	1	15	D#4	press
883.225	n/a	RESPONSE	        M6	1	16	E4	release
883.498	n/a	RESPONSE	        M6	1	16	E4	press
883.508	n/a	RESPONSE	        M6	1	15	D#4	release
884.05	n/a	RESPONSE	        M6	1	19	G4	press
884.091	n/a	RESPONSE	        M6	1	16	E4	release
884.263	n/a	RESPONSE	        M6	1	21	A4	press
884.374	n/a	RESPONSE	        M6	1	19	G4	release
884.566	n/a	RESPONSE	        M6	1	19	G4	press
884.714	n/a	RESPONSE	        M6	1	21	A4	release
885.033	n/a	RESPONSE	        M6	1	19	G4	release
885.336	n/a	RESPONSE	        M6	1	16	E4	press
885.674	n/a	RESPONSE	        M6	1	16	E4	release
886.924	7.759	FIXCROSS	n/a	n/a	n/a	n/a	n/a
887.789	n/a	RESPONSE	        M6	1	17	F4	press
888.181	n/a	RESPONSE	        M6	1	17	F4	release
889.278	n/a	RESPONSE	        M6	1	14	D4	press
889.528	n/a	RESPONSE	        M6	1	13	C#4	press
889.599	n/a	RESPONSE	        M6	1	14	D4	release
889.78	n/a	RESPONSE	        M6	1	14	D4	press
889.881	n/a	RESPONSE	        M6	1	13	C#4	release
890.343	n/a	RESPONSE	        M6	1	14	D4	release
890.454	n/a	RESPONSE	        M6	1	19	G4	press
890.456	n/a	RESPONSE	        M6	1	17	F4	press
890.676	n/a	RESPONSE	        M6	1	17	F4	release
890.679	n/a	RESPONSE	        M6	1	19	G4	release
891.529	n/a	RESPONSE	        M6	1	14	D4	press
891.75	n/a	RESPONSE	        M6	1	13	C#4	press
891.831	n/a	RESPONSE	        M6	1	14	D4	release
891.973	n/a	RESPONSE	        M6	1	14	D4	press
892.095	n/a	RESPONSE	        M6	1	13	C#4	release
892.455	n/a	RESPONSE	        M6	1	17	F4	press
892.476	n/a	RESPONSE	        M6	1	14	D4	release
892.658	n/a	RESPONSE	        M6	1	19	G4	press
892.762	n/a	RESPONSE	        M6	1	17	F4	release
892.93	n/a	RESPONSE	        M6	1	17	F4	press
893.101	n/a	RESPONSE	        M6	1	19	G4	release
893.263	n/a	RESPONSE	        M6	1	17	F4	release
894.682	6.317	CUE_LISTEN	        M6	2	n/a	n/a	n/a
900.999	7.758	FIXCROSS	n/a	n/a	n/a	n/a	n/a
903.821	n/a	RESPONSE	        M6	2	23	B4	press
903.984	n/a	RESPONSE	        M6	2	23	B4	release
908.757	191.01	CUE_PLAYBACK_RIGHT_HAND	        M6	2	n/a	n/a	n/a
909.209	n/a	RESPONSE	        M6	2	23	B4	press
910.37	n/a	RESPONSE	        M6	2	23	B4	release
910.381	n/a	RESPONSE	        M6	2	19	G4	press
912.293	n/a	RESPONSE	        M6	2	23	B4	press
912.304	n/a	RESPONSE	        M6	2	19	G4	release
913.251	n/a	FIXCROSS	n/a	n/a	n/a	n/a	n/a
913.265	n/a	RESPONSE	        M6	2	19	G4	press
913.316	n/a	RESPONSE	        M6	2	23	B4	release
915.293	n/a	RESPONSE	        M6	2	19	G4	release
