onset	duration	trial_type	trial_number	stroop_condition	stim_text(PL)	stim_text(eng)	stim_color(PL)	stim_color(eng)	response_type	response_color
0.0	n/a	RESPONSE	n/a	n/a	n/a	n/a	n/a	n/a	n/a	n/a
0.0621	1.0333	ITI	n/a	n/a	n/a	n/a	n/a	n/a	n/a	n/a
1.0955	0.5167	FIXCROSS	n/a	n/a	n/a	n/a	n/a	n/a	n/a	n/a
1.6122	0.9334	T_INK	1	Neutral	xxxxx	xxxxx	zielony	green	hit	n/a
2.5115	n/a	RESPONSE	n/a	n/a	n/a	n/a	n/a	n/a	n/a	green
2.5455	0.5167	FEEDBACK	n/a	n/a	n/a	n/a	n/a	n/a	n/a	n/a
3.0622	1.0167	ITI	n/a	n/a	n/a	n/a	n/a	n/a	n/a	n/a
4.0789	0.5167	FIXCROSS	n/a	n/a	n/a	n/a	n/a	n/a	n/a	n/a
4.5955	0.5167	T_INK	2	Neutral	xxxxxxx	xxxxxxx	czerwony	red	hit	n/a
5.087	n/a	RESPONSE	n/a	n/a	n/a	n/a	n/a	n/a	n/a	red
5.1122	0.5167	FEEDBACK	n/a	n/a	n/a	n/a	n/a	n/a	n/a	n/a
5.6289	1.0167	ITI	n/a	n/a	n/a	n/a	n/a	n/a	n/a	n/a
6.6456	0.5167	FIXCROSS	n/a	n/a	n/a	n/a	n/a	n/a	n/a	n/a
7.1622	0.5667	T_INK	3	Neutral	xxxxx	xxxxx	czerwony	red	hit	n/a
7.6945	n/a	RESPONSE	n/a	n/a	n/a	n/a	n/a	n/a	n/a	red
7.7289	0.5167	FEEDBACK	n/a	n/a	n/a	n/a	n/a	n/a	n/a	n/a
8.2456	1.0334	ITI	n/a	n/a	n/a	n/a	n/a	n/a	n/a	n/a
9.2789	0.5167	FIXCROSS	n/a	n/a	n/a	n/a	n/a	n/a	n/a	n/a
9.7956	0.4667	T_INK	4	Incongruent	żółty	yellow	czerwony	red	hit	n/a
10.238	n/a	RESPONSE	n/a	n/a	n/a	n/a	n/a	n/a	n/a	red
10.2623	0.5167	FEEDBACK	n/a	n/a	n/a	n/a	n/a	n/a	n/a	n/a
10.7789	1.0167	ITI	n/a	n/a	n/a	n/a	n/a	n/a	n/a	n/a
11.7956	0.5167	FIXCROSS	n/a	n/a	n/a	n/a	n/a	n/a	n/a	n/a
12.3123	0.55	T_INK	5	Incongruent	czerwony	red	niebieski	blue	hit	n/a
12.8295	n/a	RESPONSE	n/a	n/a	n/a	n/a	n/a	n/a	n/a	blue
12.8623	0.5167	FEEDBACK	n/a	n/a	n/a	n/a	n/a	n/a	n/a	n/a
13.379	1.0167	ITI	n/a	n/a	n/a	n/a	n/a	n/a	n/a	n/a
14.3957	0.5167	FIXCROSS	n/a	n/a	n/a	n/a	n/a	n/a	n/a	n/a
14.9123	0.3667	T_INK	6	Incongruent	czerwony	red	żółty	yellow	hit	n/a
15.245	n/a	RESPONSE	n/a	n/a	n/a	n/a	n/a	n/a	n/a	yellow
15.279	0.5167	FEEDBACK	n/a	n/a	n/a	n/a	n/a	n/a	n/a	n/a
15.7957	1.0167	ITI	n/a	n/a	n/a	n/a	n/a	n/a	n/a	n/a
16.8124	0.5167	FIXCROSS	n/a	n/a	n/a	n/a	n/a	n/a	n/a	n/a
17.329	0.4833	T_INK	7	Neutral	xxxxxxxx	xxxxxxxx	zielony	green	hit	n/a
17.7883	n/a	RESPONSE	n/a	n/a	n/a	n/a	n/a	n/a	n/a	green
17.8124	0.5167	FEEDBACK	n/a	n/a	n/a	n/a	n/a	n/a	n/a	n/a
18.3291	1.0167	ITI	n/a	n/a	n/a	n/a	n/a	n/a	n/a	n/a
19.3457	0.5167	FIXCROSS	n/a	n/a	n/a	n/a	n/a	n/a	n/a	n/a
19.8624	0.65	T_INK	8	Neutral	xxxxxxxx	xxxxxxxx	niebieski	blue	hit	n/a
20.4916	n/a	RESPONSE	n/a	n/a	n/a	n/a	n/a	n/a	n/a	blue
20.5124	0.5167	FEEDBACK	n/a	n/a	n/a	n/a	n/a	n/a	n/a	n/a
21.0291	1.0167	ITI	n/a	n/a	n/a	n/a	n/a	n/a	n/a	n/a
22.0458	0.5167	FIXCROSS	n/a	n/a	n/a	n/a	n/a	n/a	n/a	n/a
22.5625	0.35	T_INK	9	Incongruent	zielony	green	czerwony	red	hit	n/a
22.891	n/a	RESPONSE	n/a	n/a	n/a	n/a	n/a	n/a	n/a	red
22.9125	0.5167	FEEDBACK	n/a	n/a	n/a	n/a	n/a	n/a	n/a	n/a
23.4291	1.0167	ITI	n/a	n/a	n/a	n/a	n/a	n/a	n/a	n/a
24.4458	0.5167	FIXCROSS	n/a	n/a	n/a	n/a	n/a	n/a	n/a	n/a
24.9625	0.7667	T_INK	10	Neutral	xxxxxxx	xxxxxxx	żółty	yellow	hit	n/a
25.7062	n/a	RESPONSE	n/a	n/a	n/a	n/a	n/a	n/a	n/a	yellow
25.7292	0.5167	FEEDBACK	n/a	n/a	n/a	n/a	n/a	n/a	n/a	n/a
26.2458	1.0167	ITI	n/a	n/a	n/a	n/a	n/a	n/a	n/a	n/a
27.2625	0.5167	FIXCROSS	n/a	n/a	n/a	n/a	n/a	n/a	n/a	n/a
27.7792	0.5333	T_INK	11	Neutral	xxxxxxxx	xxxxxxxx	żółty	yellow	hit	n/a
28.2816	n/a	RESPONSE	n/a	n/a	n/a	n/a	n/a	n/a	n/a	yellow
28.3125	0.5167	FEEDBACK	n/a	n/a	n/a	n/a	n/a	n/a	n/a	n/a
28.8292	1.0167	ITI	n/a	n/a	n/a	n/a	n/a	n/a	n/a	n/a
29.8459	0.5167	FIXCROSS	n/a	n/a	n/a	n/a	n/a	n/a	n/a	n/a
30.3626	0.5333	T_INK	12	Neutral	xxxxxxxxx	xxxxxxxxx	czerwony	red	hit	n/a
30.8729	n/a	RESPONSE	n/a	n/a	n/a	n/a	n/a	n/a	n/a	red
30.8959	0.5167	FEEDBACK	n/a	n/a	n/a	n/a	n/a	n/a	n/a	n/a
31.4126	1.0334	ITI	n/a	n/a	n/a	n/a	n/a	n/a	n/a	n/a
35.224	n/a	RESPONSE	n/a	n/a	n/a	n/a	n/a	n/a	n/a	n/a
35.2793	1.0167	ITI	n/a	n/a	n/a	n/a	n/a	n/a	n/a	n/a
36.296	0.5167	FIXCROSS	n/a	n/a	n/a	n/a	n/a	n/a	n/a	n/a
36.8127	0.5167	INK	1	Incongruent	żółty	yellow	czerwony	red	hit	n/a
37.3036	n/a	RESPONSE	n/a	n/a	n/a	n/a	n/a	n/a	n/a	red
37.3293	1.0167	ITI	n/a	n/a	n/a	n/a	n/a	n/a	n/a	n/a
38.346	0.5167	FIXCROSS	n/a	n/a	n/a	n/a	n/a	n/a	n/a	n/a
38.8627	0.4667	INK	2	Neutral	xxxxxxx	xxxxxxx	czerwony	red	hit	n/a
39.3031	n/a	RESPONSE	n/a	n/a	n/a	n/a	n/a	n/a	n/a	red
39.3294	1.0167	ITI	n/a	n/a	n/a	n/a	n/a	n/a	n/a	n/a
40.346	0.5167	FIXCROSS	n/a	n/a	n/a	n/a	n/a	n/a	n/a	n/a
40.8627	0.4	INK	3	Incongruent	zielony	green	żółty	yellow	hit	n/a
41.2387	n/a	RESPONSE	n/a	n/a	n/a	n/a	n/a	n/a	n/a	yellow
41.2627	1.0167	ITI	n/a	n/a	n/a	n/a	n/a	n/a	n/a	n/a
42.2794	0.5167	FIXCROSS	n/a	n/a	n/a	n/a	n/a	n/a	n/a	n/a
42.7961	0.75	INK	4	Neutral	xxxxxxxx	xxxxxxxx	niebieski	blue	hit	n/a
43.5262	n/a	RESPONSE	n/a	n/a	n/a	n/a	n/a	n/a	n/a	blue
43.5461	1.0167	ITI	n/a	n/a	n/a	n/a	n/a	n/a	n/a	n/a
44.5628	0.5167	FIXCROSS	n/a	n/a	n/a	n/a	n/a	n/a	n/a	n/a
45.0794	0.45	INK	5	Neutral	xxxxxxxx	xxxxxxxx	niebieski	blue	hit	n/a
45.5098	n/a	RESPONSE	n/a	n/a	n/a	n/a	n/a	n/a	n/a	blue
45.5294	1.0167	ITI	n/a	n/a	n/a	n/a	n/a	n/a	n/a	n/a
46.5461	0.5167	FIXCROSS	n/a	n/a	n/a	n/a	n/a	n/a	n/a	n/a
47.0628	0.6667	INK	6	Neutral	xxxxxxxx	xxxxxxxx	zielony	green	hit	n/a
47.7013	n/a	RESPONSE	n/a	n/a	n/a	n/a	n/a	n/a	n/a	green
47.7295	1.0167	ITI	n/a	n/a	n/a	n/a	n/a	n/a	n/a	n/a
48.7462	0.5167	FIXCROSS	n/a	n/a	n/a	n/a	n/a	n/a	n/a	n/a
49.2628	0.4	INK	7	Neutral	xxxxx	xxxxx	czerwony	red	hit	n/a
49.6369	n/a	RESPONSE	n/a	n/a	n/a	n/a	n/a	n/a	n/a	red
49.6628	1.0167	ITI	n/a	n/a	n/a	n/a	n/a	n/a	n/a	n/a
50.6795	0.5167	FIXCROSS	n/a	n/a	n/a	n/a	n/a	n/a	n/a	n/a
51.1962	0.4667	INK	8	Incongruent	czerwony	red	żółty	yellow	hit	n/a
51.6365	n/a	RESPONSE	n/a	n/a	n/a	n/a	n/a	n/a	n/a	yellow
51.6629	1.0167	ITI	n/a	n/a	n/a	n/a	n/a	n/a	n/a	n/a
52.6795	0.5167	FIXCROSS	n/a	n/a	n/a	n/a	n/a	n/a	n/a	n/a
53.1962	0.55	INK	9	Neutral	xxxxxxx	xxxxxxx	czerwony	red	hit	n/a
53.7161	n/a	RESPONSE	n/a	n/a	n/a	n/a	n/a	n/a	n/a	red
53.7462	1.0167	ITI	n/a	n/a	n/a	n/a	n/a	n/a	n/a	n/a
54.7629	0.5167	FIXCROSS	n/a	n/a	n/a	n/a	n/a	n/a	n/a	n/a
55.2796	0.5833	INK	10	Incongruent	żółty	yellow	zielony	green	hit	n/a
55.8436	n/a	RESPONSE	n/a	n/a	n/a	n/a	n/a	n/a	n/a	green
55.8629	1.0167	ITI	n/a	n/a	n/a	n/a	n/a	n/a	n/a	n/a
56.8796	0.5167	FIXCROSS	n/a	n/a	n/a	n/a	n/a	n/a	n/a	n/a
57.3963	0.7167	INK	11	Neutral	xxxxx	xxxxx	niebieski	blue	incorrect	n/a
58.0832	n/a	RESPONSE	n/a	n/a	n/a	n/a	n/a	n/a	n/a	red
58.113	1.0167	ITI	n/a	n/a	n/a	n/a	n/a	n/a	n/a	n/a
59.1296	0.5167	FIXCROSS	n/a	n/a	n/a	n/a	n/a	n/a	n/a	n/a
59.6463	0.45	INK	12	Incongruent	żółty	yellow	czerwony	red	hit	n/a
60.0667	n/a	RESPONSE	n/a	n/a	n/a	n/a	n/a	n/a	n/a	red
60.0963	1.0167	ITI	n/a	n/a	n/a	n/a	n/a	n/a	n/a	n/a
61.113	0.5167	FIXCROSS	n/a	n/a	n/a	n/a	n/a	n/a	n/a	n/a
61.6297	0.5833	INK	13	Neutral	xxxxxxx	xxxxxxx	żółty	yellow	hit	n/a
62.1943	n/a	RESPONSE	n/a	n/a	n/a	n/a	n/a	n/a	n/a	yellow
62.213	1.0167	ITI	n/a	n/a	n/a	n/a	n/a	n/a	n/a	n/a
63.2297	0.5167	FIXCROSS	n/a	n/a	n/a	n/a	n/a	n/a	n/a	n/a
63.7464	0.4333	INK	14	Incongruent	zielony	green	niebieski	blue	hit	n/a
64.1619	n/a	RESPONSE	n/a	n/a	n/a	n/a	n/a	n/a	n/a	blue
64.1797	1.0167	ITI	n/a	n/a	n/a	n/a	n/a	n/a	n/a	n/a
65.1964	0.5167	FIXCROSS	n/a	n/a	n/a	n/a	n/a	n/a	n/a	n/a
65.7131	0.6167	INK	15	Neutral	xxxxx	xxxxx	niebieski	blue	hit	n/a
66.3054	n/a	RESPONSE	n/a	n/a	n/a	n/a	n/a	n/a	n/a	blue
66.3297	1.0167	ITI	n/a	n/a	n/a	n/a	n/a	n/a	n/a	n/a
67.3464	0.5167	FIXCROSS	n/a	n/a	n/a	n/a	n/a	n/a	n/a	n/a
67.8631	0.65	INK	16	Incongruent	zielony	green	żółty	yellow	hit	n/a
68.481	n/a	RESPONSE	n/a	n/a	n/a	n/a	n/a	n/a	n/a	yellow
68.5131	1.0167	ITI	n/a	n/a	n/a	n/a	n/a	n/a	n/a	n/a
69.5298	0.5167	FIXCROSS	n/a	n/a	n/a	n/a	n/a	n/a	n/a	n/a
70.0465	0.5667	INK	17	Neutral	xxxxx	xxxxx	zielony	green	hit	n/a
70.5925	n/a	RESPONSE	n/a	n/a	n/a	n/a	n/a	n/a	n/a	green
70.6131	1.0167	ITI	n/a	n/a	n/a	n/a	n/a	n/a	n/a	n/a
71.6298	0.5167	FIXCROSS	n/a	n/a	n/a	n/a	n/a	n/a	n/a	n/a
72.1465	0.5	INK	18	Neutral	xxxxx	xxxxx	zielony	green	hit	n/a
72.6241	n/a	RESPONSE	n/a	n/a	n/a	n/a	n/a	n/a	n/a	green
72.6465	1.0167	ITI	n/a	n/a	n/a	n/a	n/a	n/a	n/a	n/a
73.6632	0.5167	FIXCROSS	n/a	n/a	n/a	n/a	n/a	n/a	n/a	n/a
74.1799	0.5833	INK	19	Incongruent	żółty	yellow	czerwony	red	hit	n/a
74.7356	n/a	RESPONSE	n/a	n/a	n/a	n/a	n/a	n/a	n/a	red
74.7632	1.0167	ITI	n/a	n/a	n/a	n/a	n/a	n/a	n/a	n/a
75.7799	0.5167	FIXCROSS	n/a	n/a	n/a	n/a	n/a	n/a	n/a	n/a
76.2965	0.6	INK	20	Neutral	xxxxx	xxxxx	zielony	green	hit	n/a
76.8633	n/a	RESPONSE	n/a	n/a	n/a	n/a	n/a	n/a	n/a	green
76.8966	1.0167	ITI	n/a	n/a	n/a	n/a	n/a	n/a	n/a	n/a
77.9132	0.5167	FIXCROSS	n/a	n/a	n/a	n/a	n/a	n/a	n/a	n/a
78.4299	0.5	INK	21	Neutral	xxxxxxxxx	xxxxxxxxx	zielony	green	hit	n/a
78.9108	n/a	RESPONSE	n/a	n/a	n/a	n/a	n/a	n/a	n/a	green
78.9299	1.0167	ITI	n/a	n/a	n/a	n/a	n/a	n/a	n/a	n/a
79.9466	0.5167	FIXCROSS	n/a	n/a	n/a	n/a	n/a	n/a	n/a	n/a
80.4633	0.55	INK	22	Neutral	xxxxxxxx	xxxxxxxx	niebieski	blue	hit	n/a
80.9904	n/a	RESPONSE	n/a	n/a	n/a	n/a	n/a	n/a	n/a	blue
81.0133	1.0167	ITI	n/a	n/a	n/a	n/a	n/a	n/a	n/a	n/a
82.03	0.5167	FIXCROSS	n/a	n/a	n/a	n/a	n/a	n/a	n/a	n/a
82.5466	0.55	INK	23	Incongruent	zielony	green	niebieski	blue	hit	n/a
83.0699	n/a	RESPONSE	n/a	n/a	n/a	n/a	n/a	n/a	n/a	blue
83.0966	1.0167	ITI	n/a	n/a	n/a	n/a	n/a	n/a	n/a	n/a
84.1133	0.5167	FIXCROSS	n/a	n/a	n/a	n/a	n/a	n/a	n/a	n/a
84.63	0.5833	INK	24	Incongruent	niebieski	blue	żółty	yellow	hit	n/a
85.1815	n/a	RESPONSE	n/a	n/a	n/a	n/a	n/a	n/a	n/a	yellow
85.2133	1.0167	ITI	n/a	n/a	n/a	n/a	n/a	n/a	n/a	n/a
86.23	0.5167	FIXCROSS	n/a	n/a	n/a	n/a	n/a	n/a	n/a	n/a
86.7467	0.4333	INK	25	Neutral	xxxxxxx	xxxxxxx	żółty	yellow	hit	n/a
87.1491	n/a	RESPONSE	n/a	n/a	n/a	n/a	n/a	n/a	n/a	yellow
87.18	1.0167	ITI	n/a	n/a	n/a	n/a	n/a	n/a	n/a	n/a
88.1967	0.5167	FIXCROSS	n/a	n/a	n/a	n/a	n/a	n/a	n/a	n/a
88.7134	0.4333	INK	26	Neutral	xxxxxxxx	xxxxxxxx	zielony	green	hit	n/a
89.1167	n/a	RESPONSE	n/a	n/a	n/a	n/a	n/a	n/a	n/a	green
89.1467	1.0167	ITI	n/a	n/a	n/a	n/a	n/a	n/a	n/a	n/a
90.1634	0.5167	FIXCROSS	n/a	n/a	n/a	n/a	n/a	n/a	n/a	n/a
90.6801	0.6833	INK	27	Incongruent	czerwony	red	niebieski	blue	hit	n/a
91.3402	n/a	RESPONSE	n/a	n/a	n/a	n/a	n/a	n/a	n/a	blue
91.3634	1.0167	ITI	n/a	n/a	n/a	n/a	n/a	n/a	n/a	n/a
92.3801	0.5167	FIXCROSS	n/a	n/a	n/a	n/a	n/a	n/a	n/a	n/a
92.8968	0.45	INK	28	Neutral	xxxxxxx	xxxxxxx	czerwony	red	hit	n/a
93.3238	n/a	RESPONSE	n/a	n/a	n/a	n/a	n/a	n/a	n/a	red
93.3468	1.0167	ITI	n/a	n/a	n/a	n/a	n/a	n/a	n/a	n/a
94.3635	0.5167	FIXCROSS	n/a	n/a	n/a	n/a	n/a	n/a	n/a	n/a
94.8801	0.5667	INK	29	Neutral	xxxxxxxx	xxxxxxxx	żółty	yellow	hit	n/a
95.4194	n/a	RESPONSE	n/a	n/a	n/a	n/a	n/a	n/a	n/a	yellow
95.4468	1.0167	ITI	n/a	n/a	n/a	n/a	n/a	n/a	n/a	n/a
96.4635	0.5167	FIXCROSS	n/a	n/a	n/a	n/a	n/a	n/a	n/a	n/a
96.9802	0.5833	INK	30	Incongruent	zielony	green	czerwony	red	hit	n/a
97.5309	n/a	RESPONSE	n/a	n/a	n/a	n/a	n/a	n/a	n/a	red
97.5635	1.0167	ITI	n/a	n/a	n/a	n/a	n/a	n/a	n/a	n/a
98.5802	0.5167	FIXCROSS	n/a	n/a	n/a	n/a	n/a	n/a	n/a	n/a
99.0969	0.45	INK	31	Incongruent	czerwony	red	zielony	green	hit	n/a
99.5145	n/a	RESPONSE	n/a	n/a	n/a	n/a	n/a	n/a	n/a	green
99.5469	1.0167	ITI	n/a	n/a	n/a	n/a	n/a	n/a	n/a	n/a
100.5635	0.5167	FIXCROSS	n/a	n/a	n/a	n/a	n/a	n/a	n/a	n/a
101.0802	0.4333	INK	32	Incongruent	niebieski	blue	zielony	green	hit	n/a
101.4821	n/a	RESPONSE	n/a	n/a	n/a	n/a	n/a	n/a	n/a	green
101.5136	1.0167	ITI	n/a	n/a	n/a	n/a	n/a	n/a	n/a	n/a
102.5302	0.5167	FIXCROSS	n/a	n/a	n/a	n/a	n/a	n/a	n/a	n/a
103.0469	0.4667	INK	33	Incongruent	żółty	yellow	zielony	green	hit	n/a
103.4816	n/a	RESPONSE	n/a	n/a	n/a	n/a	n/a	n/a	n/a	green
103.5136	1.0167	ITI	n/a	n/a	n/a	n/a	n/a	n/a	n/a	n/a
104.5303	0.5167	FIXCROSS	n/a	n/a	n/a	n/a	n/a	n/a	n/a	n/a
105.047	0.45	INK	34	Incongruent	niebieski	blue	zielony	green	hit	n/a
105.4653	n/a	RESPONSE	n/a	n/a	n/a	n/a	n/a	n/a	n/a	green
105.497	1.0167	ITI	n/a	n/a	n/a	n/a	n/a	n/a	n/a	n/a
106.5136	0.5167	FIXCROSS	n/a	n/a	n/a	n/a	n/a	n/a	n/a	n/a
107.0303	0.5333	INK	35	Incongruent	niebieski	blue	czerwony	red	hit	n/a
107.5448	n/a	RESPONSE	n/a	n/a	n/a	n/a	n/a	n/a	n/a	red
107.5636	1.0167	ITI	n/a	n/a	n/a	n/a	n/a	n/a	n/a	n/a
108.5803	0.5167	FIXCROSS	n/a	n/a	n/a	n/a	n/a	n/a	n/a	n/a
109.097	0.4833	INK	36	Incongruent	niebieski	blue	czerwony	red	hit	n/a
109.5604	n/a	RESPONSE	n/a	n/a	n/a	n/a	n/a	n/a	n/a	red
109.5803	1.0167	ITI	n/a	n/a	n/a	n/a	n/a	n/a	n/a	n/a
110.597	0.5167	FIXCROSS	n/a	n/a	n/a	n/a	n/a	n/a	n/a	n/a
111.1137	0.6333	INK	37	Incongruent	zielony	green	niebieski	blue	hit	n/a
111.7199	n/a	RESPONSE	n/a	n/a	n/a	n/a	n/a	n/a	n/a	blue
111.747	1.0167	ITI	n/a	n/a	n/a	n/a	n/a	n/a	n/a	n/a
112.7637	0.5167	FIXCROSS	n/a	n/a	n/a	n/a	n/a	n/a	n/a	n/a
113.2804	0.6333	INK	38	Incongruent	niebieski	blue	żółty	yellow	hit	n/a
113.8955	n/a	RESPONSE	n/a	n/a	n/a	n/a	n/a	n/a	n/a	yellow
113.9137	1.0167	ITI	n/a	n/a	n/a	n/a	n/a	n/a	n/a	n/a
114.9304	0.5167	FIXCROSS	n/a	n/a	n/a	n/a	n/a	n/a	n/a	n/a
115.4471	0.45	INK	39	Neutral	xxxxxxxxx	xxxxxxxxx	zielony	green	hit	n/a
115.8791	n/a	RESPONSE	n/a	n/a	n/a	n/a	n/a	n/a	n/a	green
115.8971	1.0167	ITI	n/a	n/a	n/a	n/a	n/a	n/a	n/a	n/a
116.9138	0.5166	FIXCROSS	n/a	n/a	n/a	n/a	n/a	n/a	n/a	n/a
117.4303	0.6335	INK	40	Neutral	xxxxxxx	xxxxxxx	niebieski	blue	hit	n/a
118.0386	n/a	RESPONSE	n/a	n/a	n/a	n/a	n/a	n/a	n/a	blue
118.0638	1.0167	ITI	n/a	n/a	n/a	n/a	n/a	n/a	n/a	n/a
119.0805	0.5167	FIXCROSS	n/a	n/a	n/a	n/a	n/a	n/a	n/a	n/a
119.5971	0.55	INK	41	Incongruent	żółty	yellow	zielony	green	hit	n/a
120.1182	n/a	RESPONSE	n/a	n/a	n/a	n/a	n/a	n/a	n/a	green
120.1472	1.0167	ITI	n/a	n/a	n/a	n/a	n/a	n/a	n/a	n/a
121.1638	0.5167	FIXCROSS	n/a	n/a	n/a	n/a	n/a	n/a	n/a	n/a
121.6805	0.5833	INK	42	Incongruent	czerwony	red	niebieski	blue	hit	n/a
122.2458	n/a	RESPONSE	n/a	n/a	n/a	n/a	n/a	n/a	n/a	blue
122.2638	1.0167	ITI	n/a	n/a	n/a	n/a	n/a	n/a	n/a	n/a
123.2805	0.5167	FIXCROSS	n/a	n/a	n/a	n/a	n/a	n/a	n/a	n/a
123.7972	0.5	INK	43	Neutral	xxxxxxxxx	xxxxxxxxx	czerwony	red	hit	n/a
124.2774	n/a	RESPONSE	n/a	n/a	n/a	n/a	n/a	n/a	n/a	red
124.2972	1.0167	ITI	n/a	n/a	n/a	n/a	n/a	n/a	n/a	n/a
125.3139	0.5167	FIXCROSS	n/a	n/a	n/a	n/a	n/a	n/a	n/a	n/a
125.8306	0.4667	INK	44	Neutral	xxxxxxxxx	xxxxxxxxx	czerwony	red	hit	n/a
126.277	n/a	RESPONSE	n/a	n/a	n/a	n/a	n/a	n/a	n/a	red
126.2972	1.0167	ITI	n/a	n/a	n/a	n/a	n/a	n/a	n/a	n/a
127.3139	0.5167	FIXCROSS	n/a	n/a	n/a	n/a	n/a	n/a	n/a	n/a
127.8306	0.4667	INK	45	Incongruent	niebieski	blue	czerwony	red	hit	n/a
128.2765	n/a	RESPONSE	n/a	n/a	n/a	n/a	n/a	n/a	n/a	red
128.2973	1.0167	ITI	n/a	n/a	n/a	n/a	n/a	n/a	n/a	n/a
129.3139	0.5167	FIXCROSS	n/a	n/a	n/a	n/a	n/a	n/a	n/a	n/a
129.8306	0.5167	INK	46	Neutral	xxxxxxx	xxxxxxx	niebieski	blue	hit	n/a
130.3241	n/a	RESPONSE	n/a	n/a	n/a	n/a	n/a	n/a	n/a	blue
130.3473	1.0167	ITI	n/a	n/a	n/a	n/a	n/a	n/a	n/a	n/a
131.364	0.5167	FIXCROSS	n/a	n/a	n/a	n/a	n/a	n/a	n/a	n/a
131.8807	0.5333	INK	47	Neutral	xxxxxxx	xxxxxxx	niebieski	blue	hit	n/a
132.3877	n/a	RESPONSE	n/a	n/a	n/a	n/a	n/a	n/a	n/a	blue
132.414	1.0167	ITI	n/a	n/a	n/a	n/a	n/a	n/a	n/a	n/a
133.4307	0.5167	FIXCROSS	n/a	n/a	n/a	n/a	n/a	n/a	n/a	n/a
133.9473	0.45	INK	48	Incongruent	zielony	green	czerwony	red	hit	n/a
134.3712	n/a	RESPONSE	n/a	n/a	n/a	n/a	n/a	n/a	n/a	red
134.3974	1.0167	ITI	n/a	n/a	n/a	n/a	n/a	n/a	n/a	n/a
135.414	0.5167	FIXCROSS	n/a	n/a	n/a	n/a	n/a	n/a	n/a	n/a
135.9307	0.6167	INK	49	Incongruent	żółty	yellow	niebieski	blue	hit	n/a
136.5148	n/a	RESPONSE	n/a	n/a	n/a	n/a	n/a	n/a	n/a	blue
136.5474	1.0167	ITI	n/a	n/a	n/a	n/a	n/a	n/a	n/a	n/a
137.5641	0.5167	FIXCROSS	n/a	n/a	n/a	n/a	n/a	n/a	n/a	n/a
138.0807	0.7	INK	50	Incongruent	czerwony	red	żółty	yellow	hit	n/a
138.7544	n/a	RESPONSE	n/a	n/a	n/a	n/a	n/a	n/a	n/a	yellow
138.7807	1.0167	ITI	n/a	n/a	n/a	n/a	n/a	n/a	n/a	n/a
139.7974	0.5167	FIXCROSS	n/a	n/a	n/a	n/a	n/a	n/a	n/a	n/a
140.3141	0.4833	INK	51	Incongruent	czerwony	red	zielony	green	hit	n/a
140.7699	n/a	RESPONSE	n/a	n/a	n/a	n/a	n/a	n/a	n/a	green
140.7974	1.0104	ITI	n/a	n/a	n/a	n/a	n/a	n/a	n/a	n/a
141.8079	0.5229	FIXCROSS	n/a	n/a	n/a	n/a	n/a	n/a	n/a	n/a
142.3308	0.45	INK	52	Neutral	xxxxxxxxx	xxxxxxxxx	żółty	yellow	hit	n/a
142.7535	n/a	RESPONSE	n/a	n/a	n/a	n/a	n/a	n/a	n/a	yellow
142.7808	1.0167	ITI	n/a	n/a	n/a	n/a	n/a	n/a	n/a	n/a
143.7975	0.5167	FIXCROSS	n/a	n/a	n/a	n/a	n/a	n/a	n/a	n/a
144.3142	0.4833	INK	53	Incongruent	czerwony	red	niebieski	blue	hit	n/a
144.7691	n/a	RESPONSE	n/a	n/a	n/a	n/a	n/a	n/a	n/a	blue
144.7975	1.0167	ITI	n/a	n/a	n/a	n/a	n/a	n/a	n/a	n/a
145.8142	0.5167	FIXCROSS	n/a	n/a	n/a	n/a	n/a	n/a	n/a	n/a
146.3309	0.5	INK	54	Neutral	xxxxxxxxx	xxxxxxxxx	żółty	yellow	hit	n/a
146.8007	n/a	RESPONSE	n/a	n/a	n/a	n/a	n/a	n/a	n/a	yellow
146.8309	1.0167	ITI	n/a	n/a	n/a	n/a	n/a	n/a	n/a	n/a
147.8475	0.5167	FIXCROSS	n/a	n/a	n/a	n/a	n/a	n/a	n/a	n/a
148.3642	0.5333	INK	55	Neutral	xxxxxxxx	xxxxxxxx	żółty	yellow	hit	n/a
148.8642	n/a	RESPONSE	n/a	n/a	n/a	n/a	n/a	n/a	n/a	yellow
148.8976	1.0167	ITI	n/a	n/a	n/a	n/a	n/a	n/a	n/a	n/a
149.9142	0.5167	FIXCROSS	n/a	n/a	n/a	n/a	n/a	n/a	n/a	n/a
150.4309	0.4167	INK	56	Neutral	xxxxxxxxx	xxxxxxxxx	czerwony	red	hit	n/a
150.8158	n/a	RESPONSE	n/a	n/a	n/a	n/a	n/a	n/a	n/a	red
150.8476	1.0167	ITI	n/a	n/a	n/a	n/a	n/a	n/a	n/a	n/a
151.8643	0.5167	FIXCROSS	n/a	n/a	n/a	n/a	n/a	n/a	n/a	n/a
152.3809	0.4	INK	57	Incongruent	czerwony	red	żółty	yellow	hit	n/a
152.7514	n/a	RESPONSE	n/a	n/a	n/a	n/a	n/a	n/a	n/a	yellow
152.7809	1.0167	ITI	n/a	n/a	n/a	n/a	n/a	n/a	n/a	n/a
153.7976	0.5167	FIXCROSS	n/a	n/a	n/a	n/a	n/a	n/a	n/a	n/a
154.3143	0.5	INK	58	Incongruent	niebieski	blue	zielony	green	hit	n/a
154.783	n/a	RESPONSE	n/a	n/a	n/a	n/a	n/a	n/a	n/a	green
154.8143	1.0167	ITI	n/a	n/a	n/a	n/a	n/a	n/a	n/a	n/a
155.831	0.5167	FIXCROSS	n/a	n/a	n/a	n/a	n/a	n/a	n/a	n/a
156.3477	0.6667	INK	59	Incongruent	żółty	yellow	niebieski	blue	hit	n/a
156.9906	n/a	RESPONSE	n/a	n/a	n/a	n/a	n/a	n/a	n/a	blue
157.0143	1.0167	ITI	n/a	n/a	n/a	n/a	n/a	n/a	n/a	n/a
158.031	0.5167	FIXCROSS	n/a	n/a	n/a	n/a	n/a	n/a	n/a	n/a
158.5477	0.4833	INK	60	Incongruent	zielony	green	żółty	yellow	hit	n/a
159.0061	n/a	RESPONSE	n/a	n/a	n/a	n/a	n/a	n/a	n/a	yellow
159.031	1.0167	ITI	n/a	n/a	n/a	n/a	n/a	n/a	n/a	n/a
160.0477	0.5167	FIXCROSS	n/a	n/a	n/a	n/a	n/a	n/a	n/a	n/a
160.5644	0.4167	INK	61	Neutral	xxxxxxxxx	xxxxxxxxx	żółty	yellow	hit	n/a
160.9578	n/a	RESPONSE	n/a	n/a	n/a	n/a	n/a	n/a	n/a	yellow
160.9811	1.0167	ITI	n/a	n/a	n/a	n/a	n/a	n/a	n/a	n/a
161.9977	0.5167	FIXCROSS	n/a	n/a	n/a	n/a	n/a	n/a	n/a	n/a
162.5144	0.6667	INK	62	Incongruent	zielony	green	czerwony	red	hit	n/a
163.1492	n/a	RESPONSE	n/a	n/a	n/a	n/a	n/a	n/a	n/a	red
163.1811	1.0167	ITI	n/a	n/a	n/a	n/a	n/a	n/a	n/a	n/a
164.1978	0.5167	FIXCROSS	n/a	n/a	n/a	n/a	n/a	n/a	n/a	n/a
164.7144	0.5	INK	63	Incongruent	niebieski	blue	żółty	yellow	hit	n/a
165.1968	n/a	RESPONSE	n/a	n/a	n/a	n/a	n/a	n/a	n/a	yellow
165.2144	1.0167	ITI	n/a	n/a	n/a	n/a	n/a	n/a	n/a	n/a
166.2311	0.5167	FIXCROSS	n/a	n/a	n/a	n/a	n/a	n/a	n/a	n/a
166.7478	0.45	INK	64	Neutral	xxxxx	xxxxx	czerwony	red	hit	n/a
167.1804	n/a	RESPONSE	n/a	n/a	n/a	n/a	n/a	n/a	n/a	red
167.1978	1.0167	ITI	n/a	n/a	n/a	n/a	n/a	n/a	n/a	n/a
168.2145	0.5167	FIXCROSS	n/a	n/a	n/a	n/a	n/a	n/a	n/a	n/a
168.7312	0.5167	INK	65	Neutral	xxxxxxxx	xxxxxxxx	zielony	green	hit	n/a
169.228	n/a	RESPONSE	n/a	n/a	n/a	n/a	n/a	n/a	n/a	green
169.2478	1.0167	ITI	n/a	n/a	n/a	n/a	n/a	n/a	n/a	n/a
170.2645	0.5167	FIXCROSS	n/a	n/a	n/a	n/a	n/a	n/a	n/a	n/a
170.7812	0.55	INK	66	Incongruent	żółty	yellow	niebieski	blue	hit	n/a
171.3076	n/a	RESPONSE	n/a	n/a	n/a	n/a	n/a	n/a	n/a	blue
171.3312	1.0167	ITI	n/a	n/a	n/a	n/a	n/a	n/a	n/a	n/a
172.3479	0.5167	FIXCROSS	n/a	n/a	n/a	n/a	n/a	n/a	n/a	n/a
172.8646	0.7	INK	67	Incongruent	czerwony	red	zielony	green	hit	n/a
173.5471	n/a	RESPONSE	n/a	n/a	n/a	n/a	n/a	n/a	n/a	green
173.5646	1.0167	ITI	n/a	n/a	n/a	n/a	n/a	n/a	n/a	n/a
174.5812	0.5166	FIXCROSS	n/a	n/a	n/a	n/a	n/a	n/a	n/a	n/a
175.0978	0.6168	INK	68	Neutral	xxxxx	xxxxx	niebieski	blue	hit	n/a
175.6907	n/a	RESPONSE	n/a	n/a	n/a	n/a	n/a	n/a	n/a	blue
175.7146	1.0167	ITI	n/a	n/a	n/a	n/a	n/a	n/a	n/a	n/a
176.7313	0.5167	FIXCROSS	n/a	n/a	n/a	n/a	n/a	n/a	n/a	n/a
177.2479	0.4833	INK	69	Neutral	xxxxxxxxx	xxxxxxxxx	zielony	green	hit	n/a
177.7062	n/a	RESPONSE	n/a	n/a	n/a	n/a	n/a	n/a	n/a	green
177.7313	1.0167	ITI	n/a	n/a	n/a	n/a	n/a	n/a	n/a	n/a
178.748	0.5167	FIXCROSS	n/a	n/a	n/a	n/a	n/a	n/a	n/a	n/a
179.2646	0.7167	INK	70	Neutral	xxxxx	xxxxx	czerwony	red	hit	n/a
179.9618	n/a	RESPONSE	n/a	n/a	n/a	n/a	n/a	n/a	n/a	red
179.9813	1.0167	ITI	n/a	n/a	n/a	n/a	n/a	n/a	n/a	n/a
180.998	0.5167	FIXCROSS	n/a	n/a	n/a	n/a	n/a	n/a	n/a	n/a
181.5147	0.5167	INK	71	Neutral	xxxxxxxx	xxxxxxxx	żółty	yellow	hit	n/a
182.0094	n/a	RESPONSE	n/a	n/a	n/a	n/a	n/a	n/a	n/a	yellow
182.0314	1.0167	ITI	n/a	n/a	n/a	n/a	n/a	n/a	n/a	n/a
183.048	0.5167	FIXCROSS	n/a	n/a	n/a	n/a	n/a	n/a	n/a	n/a
183.5647	0.5833	INK	72	Neutral	xxxxxxx	xxxxxxx	żółty	yellow	hit	n/a
184.1209	n/a	RESPONSE	n/a	n/a	n/a	n/a	n/a	n/a	n/a	yellow
184.148	1.0833	ITI	n/a	n/a	n/a	n/a	n/a	n/a	n/a	n/a
217.1381	n/a	RESPONSE	n/a	n/a	n/a	n/a	n/a	n/a	n/a	n/a
217.1985	1.0167	ITI	n/a	n/a	n/a	n/a	n/a	n/a	n/a	n/a
218.2152	0.5167	FIXCROSS	n/a	n/a	n/a	n/a	n/a	n/a	n/a	n/a
218.7319	0.7834	T_COLOR_NAME	1	Neutral	niebieski	blue	Neutral	Neutral	hit	n/a
219.4895	n/a	RESPONSE	n/a	n/a	n/a	n/a	n/a	n/a	n/a	blue
219.5152	0.5167	FEEDBACK	n/a	n/a	n/a	n/a	n/a	n/a	n/a	n/a
220.0319	1.0167	ITI	n/a	n/a	n/a	n/a	n/a	n/a	n/a	n/a
221.0485	0.5167	FIXCROSS	n/a	n/a	n/a	n/a	n/a	n/a	n/a	n/a
221.5652	0.8167	T_COLOR_NAME	2	Incongruent	czerwony	red	żółty	yellow	hit	n/a
222.353	n/a	RESPONSE	n/a	n/a	n/a	n/a	n/a	n/a	n/a	red
222.3819	0.5167	FEEDBACK	n/a	n/a	n/a	n/a	n/a	n/a	n/a	n/a
222.8986	1.0167	ITI	n/a	n/a	n/a	n/a	n/a	n/a	n/a	n/a
223.9153	0.5167	FIXCROSS	n/a	n/a	n/a	n/a	n/a	n/a	n/a	n/a
224.4319	0.6667	T_COLOR_NAME	3	Neutral	zielony	green	Neutral	Neutral	hit	n/a
225.0724	n/a	RESPONSE	n/a	n/a	n/a	n/a	n/a	n/a	n/a	green
225.0986	0.5167	FEEDBACK	n/a	n/a	n/a	n/a	n/a	n/a	n/a	n/a
225.6153	1.0167	ITI	n/a	n/a	n/a	n/a	n/a	n/a	n/a	n/a
226.632	0.5167	FIXCROSS	n/a	n/a	n/a	n/a	n/a	n/a	n/a	n/a
227.1486	0.8333	T_COLOR_NAME	4	Incongruent	żółty	yellow	czerwony	red	hit	n/a
227.9518	n/a	RESPONSE	n/a	n/a	n/a	n/a	n/a	n/a	n/a	yellow
227.982	0.5167	FEEDBACK	n/a	n/a	n/a	n/a	n/a	n/a	n/a	n/a
228.4987	1.0167	ITI	n/a	n/a	n/a	n/a	n/a	n/a	n/a	n/a
229.5153	0.5167	FIXCROSS	n/a	n/a	n/a	n/a	n/a	n/a	n/a	n/a
230.032	1.1167	T_COLOR_NAME	5	Neutral	czerwony	red	Neutral	Neutral	hit	n/a
231.1191	n/a	RESPONSE	n/a	n/a	n/a	n/a	n/a	n/a	n/a	red
231.1487	0.5167	FEEDBACK	n/a	n/a	n/a	n/a	n/a	n/a	n/a	n/a
231.6654	1.0167	ITI	n/a	n/a	n/a	n/a	n/a	n/a	n/a	n/a
232.682	0.5167	FIXCROSS	n/a	n/a	n/a	n/a	n/a	n/a	n/a	n/a
233.1987	0.7	T_COLOR_NAME	6	Neutral	żółty	yellow	Neutral	Neutral	hit	n/a
233.8706	n/a	RESPONSE	n/a	n/a	n/a	n/a	n/a	n/a	n/a	yellow
233.8987	0.5167	FEEDBACK	n/a	n/a	n/a	n/a	n/a	n/a	n/a	n/a
234.4154	1.0167	ITI	n/a	n/a	n/a	n/a	n/a	n/a	n/a	n/a
235.4321	0.5167	FIXCROSS	n/a	n/a	n/a	n/a	n/a	n/a	n/a	n/a
235.9488	0.8	T_COLOR_NAME	7	Neutral	czerwony	red	Neutral	Neutral	hit	n/a
236.718	n/a	RESPONSE	n/a	n/a	n/a	n/a	n/a	n/a	n/a	red
236.7488	0.5167	FEEDBACK	n/a	n/a	n/a	n/a	n/a	n/a	n/a	n/a
237.2654	1.0167	ITI	n/a	n/a	n/a	n/a	n/a	n/a	n/a	n/a
238.2821	0.5167	FIXCROSS	n/a	n/a	n/a	n/a	n/a	n/a	n/a	n/a
238.7988	0.7	T_COLOR_NAME	8	Neutral	żółty	yellow	Neutral	Neutral	hit	n/a
239.4694	n/a	RESPONSE	n/a	n/a	n/a	n/a	n/a	n/a	n/a	yellow
239.4988	0.5167	FEEDBACK	n/a	n/a	n/a	n/a	n/a	n/a	n/a	n/a
240.0155	1.0167	ITI	n/a	n/a	n/a	n/a	n/a	n/a	n/a	n/a
241.0322	0.5167	FIXCROSS	n/a	n/a	n/a	n/a	n/a	n/a	n/a	n/a
241.5488	0.75	T_COLOR_NAME	9	Neutral	zielony	green	Neutral	Neutral	hit	n/a
242.2688	n/a	RESPONSE	n/a	n/a	n/a	n/a	n/a	n/a	n/a	green
242.2988	0.5167	FEEDBACK	n/a	n/a	n/a	n/a	n/a	n/a	n/a	n/a
242.8155	1.0167	ITI	n/a	n/a	n/a	n/a	n/a	n/a	n/a	n/a
243.8322	0.5167	FIXCROSS	n/a	n/a	n/a	n/a	n/a	n/a	n/a	n/a
244.3489	0.75	T_COLOR_NAME	10	Incongruent	czerwony	red	niebieski	blue	hit	n/a
245.0683	n/a	RESPONSE	n/a	n/a	n/a	n/a	n/a	n/a	n/a	red
245.0989	0.5167	FEEDBACK	n/a	n/a	n/a	n/a	n/a	n/a	n/a	n/a
245.6156	1.0167	ITI	n/a	n/a	n/a	n/a	n/a	n/a	n/a	n/a
246.6322	0.5167	FIXCROSS	n/a	n/a	n/a	n/a	n/a	n/a	n/a	n/a
247.1489	0.85	T_COLOR_NAME	11	Incongruent	zielony	green	czerwony	red	hit	n/a
247.9796	n/a	RESPONSE	n/a	n/a	n/a	n/a	n/a	n/a	n/a	green
247.9989	0.5167	FEEDBACK	n/a	n/a	n/a	n/a	n/a	n/a	n/a	n/a
248.5156	1.0167	ITI	n/a	n/a	n/a	n/a	n/a	n/a	n/a	n/a
249.5323	0.5167	FIXCROSS	n/a	n/a	n/a	n/a	n/a	n/a	n/a	n/a
250.0489	0.6667	T_COLOR_NAME	12	Neutral	czerwony	red	Neutral	Neutral	hit	n/a
250.6831	n/a	RESPONSE	n/a	n/a	n/a	n/a	n/a	n/a	n/a	red
250.7156	0.5167	FEEDBACK	n/a	n/a	n/a	n/a	n/a	n/a	n/a	n/a
251.2323	1.0333	ITI	n/a	n/a	n/a	n/a	n/a	n/a	n/a	n/a
253.6905	n/a	RESPONSE	n/a	n/a	n/a	n/a	n/a	n/a	n/a	n/a
253.749	1.0167	ITI	n/a	n/a	n/a	n/a	n/a	n/a	n/a	n/a
254.7657	0.5167	FIXCROSS	n/a	n/a	n/a	n/a	n/a	n/a	n/a	n/a
255.2824	0.65	COLOR_NAME	1	Incongruent	czerwony	red	zielony	green	hit	n/a
255.914	n/a	RESPONSE	n/a	n/a	n/a	n/a	n/a	n/a	n/a	red
255.9324	1.0167	ITI	n/a	n/a	n/a	n/a	n/a	n/a	n/a	n/a
256.949	0.5167	FIXCROSS	n/a	n/a	n/a	n/a	n/a	n/a	n/a	n/a
257.4657	0.6333	COLOR_NAME	2	Neutral	żółty	yellow	Neutral	Neutral	hit	n/a
258.0736	n/a	RESPONSE	n/a	n/a	n/a	n/a	n/a	n/a	n/a	yellow
258.0991	1.0167	ITI	n/a	n/a	n/a	n/a	n/a	n/a	n/a	n/a
259.1157	0.5167	FIXCROSS	n/a	n/a	n/a	n/a	n/a	n/a	n/a	n/a
259.6324	0.6334	COLOR_NAME	3	Neutral	czerwony	red	Neutral	Neutral	hit	n/a
260.2331	n/a	RESPONSE	n/a	n/a	n/a	n/a	n/a	n/a	n/a	red
260.2658	1.0167	ITI	n/a	n/a	n/a	n/a	n/a	n/a	n/a	n/a
261.2824	0.5167	FIXCROSS	n/a	n/a	n/a	n/a	n/a	n/a	n/a	n/a
261.7991	0.7333	COLOR_NAME	4	Incongruent	zielony	green	niebieski	blue	hit	n/a
262.5046	n/a	RESPONSE	n/a	n/a	n/a	n/a	n/a	n/a	n/a	green
262.5325	1.0167	ITI	n/a	n/a	n/a	n/a	n/a	n/a	n/a	n/a
263.5491	0.5167	FIXCROSS	n/a	n/a	n/a	n/a	n/a	n/a	n/a	n/a
264.0658	0.7167	COLOR_NAME	5	Incongruent	zielony	green	niebieski	blue	hit	n/a
264.7602	n/a	RESPONSE	n/a	n/a	n/a	n/a	n/a	n/a	n/a	green
264.7825	1.0167	ITI	n/a	n/a	n/a	n/a	n/a	n/a	n/a	n/a
265.7992	0.5167	FIXCROSS	n/a	n/a	n/a	n/a	n/a	n/a	n/a	n/a
266.3158	0.7	COLOR_NAME	6	Incongruent	niebieski	blue	zielony	green	hit	n/a
266.9837	n/a	RESPONSE	n/a	n/a	n/a	n/a	n/a	n/a	n/a	blue
267.0158	1.0167	ITI	n/a	n/a	n/a	n/a	n/a	n/a	n/a	n/a
268.0325	0.5167	FIXCROSS	n/a	n/a	n/a	n/a	n/a	n/a	n/a	n/a
268.5492	0.6667	COLOR_NAME	7	Neutral	niebieski	blue	Neutral	Neutral	hit	n/a
269.1912	n/a	RESPONSE	n/a	n/a	n/a	n/a	n/a	n/a	n/a	blue
269.2159	1.0167	ITI	n/a	n/a	n/a	n/a	n/a	n/a	n/a	n/a
270.2326	0.5167	FIXCROSS	n/a	n/a	n/a	n/a	n/a	n/a	n/a	n/a
270.7492	0.7667	COLOR_NAME	8	Incongruent	żółty	yellow	niebieski	blue	hit	n/a
271.4948	n/a	RESPONSE	n/a	n/a	n/a	n/a	n/a	n/a	n/a	yellow
271.5159	1.0167	ITI	n/a	n/a	n/a	n/a	n/a	n/a	n/a	n/a
272.5326	0.5167	FIXCROSS	n/a	n/a	n/a	n/a	n/a	n/a	n/a	n/a
273.0493	0.7833	COLOR_NAME	9	Neutral	zielony	green	Neutral	Neutral	hit	n/a
273.7983	n/a	RESPONSE	n/a	n/a	n/a	n/a	n/a	n/a	n/a	green
273.8326	1.0167	ITI	n/a	n/a	n/a	n/a	n/a	n/a	n/a	n/a
274.8493	0.5167	FIXCROSS	n/a	n/a	n/a	n/a	n/a	n/a	n/a	n/a
275.366	0.7	COLOR_NAME	10	Neutral	żółty	yellow	Neutral	Neutral	hit	n/a
276.0378	n/a	RESPONSE	n/a	n/a	n/a	n/a	n/a	n/a	n/a	yellow
276.066	1.0167	ITI	n/a	n/a	n/a	n/a	n/a	n/a	n/a	n/a
277.0827	0.5167	FIXCROSS	n/a	n/a	n/a	n/a	n/a	n/a	n/a	n/a
277.5993	0.6167	COLOR_NAME	11	Neutral	zielony	green	Neutral	Neutral	hit	n/a
278.1974	n/a	RESPONSE	n/a	n/a	n/a	n/a	n/a	n/a	n/a	green
278.216	1.0167	ITI	n/a	n/a	n/a	n/a	n/a	n/a	n/a	n/a
279.2327	0.5167	FIXCROSS	n/a	n/a	n/a	n/a	n/a	n/a	n/a	n/a
279.7494	0.5833	COLOR_NAME	12	Neutral	zielony	green	Neutral	Neutral	hit	n/a
280.3089	n/a	RESPONSE	n/a	n/a	n/a	n/a	n/a	n/a	n/a	green
280.3327	1.0167	ITI	n/a	n/a	n/a	n/a	n/a	n/a	n/a	n/a
281.3494	0.5167	FIXCROSS	n/a	n/a	n/a	n/a	n/a	n/a	n/a	n/a
281.8661	0.6167	COLOR_NAME	13	Neutral	niebieski	blue	Neutral	Neutral	hit	n/a
282.4525	n/a	RESPONSE	n/a	n/a	n/a	n/a	n/a	n/a	n/a	blue
282.4827	1.0167	ITI	n/a	n/a	n/a	n/a	n/a	n/a	n/a	n/a
283.4994	0.5167	FIXCROSS	n/a	n/a	n/a	n/a	n/a	n/a	n/a	n/a
284.0161	0.6667	COLOR_NAME	14	Neutral	niebieski	blue	Neutral	Neutral	hit	n/a
284.6601	n/a	RESPONSE	n/a	n/a	n/a	n/a	n/a	n/a	n/a	blue
284.6828	1.0167	ITI	n/a	n/a	n/a	n/a	n/a	n/a	n/a	n/a
285.6994	0.5167	FIXCROSS	n/a	n/a	n/a	n/a	n/a	n/a	n/a	n/a
286.2161	0.6	COLOR_NAME	15	Incongruent	czerwony	red	żółty	yellow	hit	n/a
286.7876	n/a	RESPONSE	n/a	n/a	n/a	n/a	n/a	n/a	n/a	red
286.8161	1.0167	ITI	n/a	n/a	n/a	n/a	n/a	n/a	n/a	n/a
287.8328	0.5167	FIXCROSS	n/a	n/a	n/a	n/a	n/a	n/a	n/a	n/a
288.3495	0.8667	COLOR_NAME	16	Incongruent	zielony	green	żółty	yellow	hit	n/a
289.1871	n/a	RESPONSE	n/a	n/a	n/a	n/a	n/a	n/a	n/a	green
289.2162	1.0167	ITI	n/a	n/a	n/a	n/a	n/a	n/a	n/a	n/a
290.2328	0.5167	FIXCROSS	n/a	n/a	n/a	n/a	n/a	n/a	n/a	n/a
290.7495	0.85	COLOR_NAME	17	Incongruent	żółty	yellow	zielony	green	hit	n/a
291.5706	n/a	RESPONSE	n/a	n/a	n/a	n/a	n/a	n/a	n/a	yellow
291.5995	1.0167	ITI	n/a	n/a	n/a	n/a	n/a	n/a	n/a	n/a
292.6162	0.5167	FIXCROSS	n/a	n/a	n/a	n/a	n/a	n/a	n/a	n/a
293.1329	1.0167	COLOR_NAME	18	Incongruent	zielony	green	czerwony	red	incorrect	n/a
294.1301	n/a	RESPONSE	n/a	n/a	n/a	n/a	n/a	n/a	n/a	yellow
294.1496	1.0167	ITI	n/a	n/a	n/a	n/a	n/a	n/a	n/a	n/a
295.1662	0.5167	FIXCROSS	n/a	n/a	n/a	n/a	n/a	n/a	n/a	n/a
295.6829	0.95	COLOR_NAME	19	Incongruent	zielony	green	żółty	yellow	hit	n/a
296.6095	n/a	RESPONSE	n/a	n/a	n/a	n/a	n/a	n/a	n/a	green
296.6329	1.0167	ITI	n/a	n/a	n/a	n/a	n/a	n/a	n/a	n/a
297.6496	0.5167	FIXCROSS	n/a	n/a	n/a	n/a	n/a	n/a	n/a	n/a
298.1663	0.7667	COLOR_NAME	20	Neutral	żółty	yellow	Neutral	Neutral	hit	n/a
298.913	n/a	RESPONSE	n/a	n/a	n/a	n/a	n/a	n/a	n/a	yellow
298.933	1.0167	ITI	n/a	n/a	n/a	n/a	n/a	n/a	n/a	n/a
299.9496	0.5167	FIXCROSS	n/a	n/a	n/a	n/a	n/a	n/a	n/a	n/a
300.4663	0.8	COLOR_NAME	21	Neutral	czerwony	red	Neutral	Neutral	hit	n/a
301.2326	n/a	RESPONSE	n/a	n/a	n/a	n/a	n/a	n/a	n/a	red
301.2663	1.0167	ITI	n/a	n/a	n/a	n/a	n/a	n/a	n/a	n/a
302.283	0.5167	FIXCROSS	n/a	n/a	n/a	n/a	n/a	n/a	n/a	n/a
302.7997	0.75	COLOR_NAME	22	Neutral	niebieski	blue	Neutral	Neutral	hit	n/a
303.5201	n/a	RESPONSE	n/a	n/a	n/a	n/a	n/a	n/a	n/a	blue
303.5497	1.0167	ITI	n/a	n/a	n/a	n/a	n/a	n/a	n/a	n/a
304.5664	0.5167	FIXCROSS	n/a	n/a	n/a	n/a	n/a	n/a	n/a	n/a
305.083	0.65	COLOR_NAME	23	Incongruent	czerwony	red	niebieski	blue	hit	n/a
305.7117	n/a	RESPONSE	n/a	n/a	n/a	n/a	n/a	n/a	n/a	red
305.733	1.0167	ITI	n/a	n/a	n/a	n/a	n/a	n/a	n/a	n/a
306.7497	0.5167	FIXCROSS	n/a	n/a	n/a	n/a	n/a	n/a	n/a	n/a
307.2664	0.55	COLOR_NAME	24	Incongruent	niebieski	blue	żółty	yellow	incorrect	n/a
307.7912	n/a	RESPONSE	n/a	n/a	n/a	n/a	n/a	n/a	n/a	red
307.8164	1.0167	ITI	n/a	n/a	n/a	n/a	n/a	n/a	n/a	n/a
308.8331	0.5167	FIXCROSS	n/a	n/a	n/a	n/a	n/a	n/a	n/a	n/a
309.3498	0.8834	COLOR_NAME	25	Neutral	niebieski	blue	Neutral	Neutral	hit	n/a
310.2067	n/a	RESPONSE	n/a	n/a	n/a	n/a	n/a	n/a	n/a	blue
310.2331	1.0167	ITI	n/a	n/a	n/a	n/a	n/a	n/a	n/a	n/a
311.2498	0.5167	FIXCROSS	n/a	n/a	n/a	n/a	n/a	n/a	n/a	n/a
311.7665	0.7167	COLOR_NAME	26	Incongruent	niebieski	blue	żółty	yellow	hit	n/a
312.4622	n/a	RESPONSE	n/a	n/a	n/a	n/a	n/a	n/a	n/a	blue
312.4831	1.0167	ITI	n/a	n/a	n/a	n/a	n/a	n/a	n/a	n/a
313.4998	0.5167	FIXCROSS	n/a	n/a	n/a	n/a	n/a	n/a	n/a	n/a
314.0165	0.85	COLOR_NAME	27	Neutral	żółty	yellow	Neutral	Neutral	hit	n/a
314.8457	n/a	RESPONSE	n/a	n/a	n/a	n/a	n/a	n/a	n/a	yellow
314.8665	1.0167	ITI	n/a	n/a	n/a	n/a	n/a	n/a	n/a	n/a
315.8832	0.5167	FIXCROSS	n/a	n/a	n/a	n/a	n/a	n/a	n/a	n/a
316.3999	0.65	COLOR_NAME	28	Incongruent	zielony	green	czerwony	red	hit	n/a
317.0213	n/a	RESPONSE	n/a	n/a	n/a	n/a	n/a	n/a	n/a	green
317.0499	1.0167	ITI	n/a	n/a	n/a	n/a	n/a	n/a	n/a	n/a
318.0665	0.5167	FIXCROSS	n/a	n/a	n/a	n/a	n/a	n/a	n/a	n/a
318.5832	1.25	COLOR_NAME	29	Incongruent	czerwony	red	zielony	green	hit	n/a
319.8047	n/a	RESPONSE	n/a	n/a	n/a	n/a	n/a	n/a	n/a	red
319.8332	1.0167	ITI	n/a	n/a	n/a	n/a	n/a	n/a	n/a	n/a
320.8499	0.5167	FIXCROSS	n/a	n/a	n/a	n/a	n/a	n/a	n/a	n/a
321.3666	0.5167	COLOR_NAME	30	Neutral	czerwony	red	Neutral	Neutral	hit	n/a
321.8523	n/a	RESPONSE	n/a	n/a	n/a	n/a	n/a	n/a	n/a	red
321.8833	1.0167	ITI	n/a	n/a	n/a	n/a	n/a	n/a	n/a	n/a
322.8999	0.5167	FIXCROSS	n/a	n/a	n/a	n/a	n/a	n/a	n/a	n/a
323.4166	0.95	COLOR_NAME	31	Incongruent	zielony	green	czerwony	red	hit	n/a
324.3478	n/a	RESPONSE	n/a	n/a	n/a	n/a	n/a	n/a	n/a	green
324.3666	1.0167	ITI	n/a	n/a	n/a	n/a	n/a	n/a	n/a	n/a
325.3833	0.5167	FIXCROSS	n/a	n/a	n/a	n/a	n/a	n/a	n/a	n/a
325.9	1.1167	COLOR_NAME	32	Neutral	zielony	green	Neutral	Neutral	hit	n/a
326.9872	n/a	RESPONSE	n/a	n/a	n/a	n/a	n/a	n/a	n/a	green
327.0167	1.0167	ITI	n/a	n/a	n/a	n/a	n/a	n/a	n/a	n/a
328.0333	0.5167	FIXCROSS	n/a	n/a	n/a	n/a	n/a	n/a	n/a	n/a
328.55	0.7833	COLOR_NAME	33	Incongruent	czerwony	red	niebieski	blue	hit	n/a
329.3067	n/a	RESPONSE	n/a	n/a	n/a	n/a	n/a	n/a	n/a	red
329.3334	1.0167	ITI	n/a	n/a	n/a	n/a	n/a	n/a	n/a	n/a
330.35	0.5167	FIXCROSS	n/a	n/a	n/a	n/a	n/a	n/a	n/a	n/a
330.8667	0.8334	COLOR_NAME	34	Neutral	żółty	yellow	Neutral	Neutral	hit	n/a
331.6742	n/a	RESPONSE	n/a	n/a	n/a	n/a	n/a	n/a	n/a	yellow
331.7001	1.0167	ITI	n/a	n/a	n/a	n/a	n/a	n/a	n/a	n/a
332.7167	0.5167	FIXCROSS	n/a	n/a	n/a	n/a	n/a	n/a	n/a	n/a
333.2334	0.5667	COLOR_NAME	35	Neutral	czerwony	red	Neutral	Neutral	hit	n/a
333.7698	n/a	RESPONSE	n/a	n/a	n/a	n/a	n/a	n/a	n/a	red
333.8001	1.0167	ITI	n/a	n/a	n/a	n/a	n/a	n/a	n/a	n/a
334.8168	0.5167	FIXCROSS	n/a	n/a	n/a	n/a	n/a	n/a	n/a	n/a
335.3334	0.7	COLOR_NAME	36	Neutral	zielony	green	Neutral	Neutral	hit	n/a
336.0093	n/a	RESPONSE	n/a	n/a	n/a	n/a	n/a	n/a	n/a	green
336.0335	1.0167	ITI	n/a	n/a	n/a	n/a	n/a	n/a	n/a	n/a
337.0501	0.5167	FIXCROSS	n/a	n/a	n/a	n/a	n/a	n/a	n/a	n/a
337.5668	0.6333	COLOR_NAME	37	Neutral	żółty	yellow	Neutral	Neutral	hit	n/a
338.1689	n/a	RESPONSE	n/a	n/a	n/a	n/a	n/a	n/a	n/a	yellow
338.2002	1.0167	ITI	n/a	n/a	n/a	n/a	n/a	n/a	n/a	n/a
339.2168	0.5167	FIXCROSS	n/a	n/a	n/a	n/a	n/a	n/a	n/a	n/a
339.7335	0.7333	COLOR_NAME	38	Incongruent	zielony	green	niebieski	blue	hit	n/a
340.4404	n/a	RESPONSE	n/a	n/a	n/a	n/a	n/a	n/a	n/a	green
340.4669	1.0167	ITI	n/a	n/a	n/a	n/a	n/a	n/a	n/a	n/a
341.4835	0.5167	FIXCROSS	n/a	n/a	n/a	n/a	n/a	n/a	n/a	n/a
342.0002	0.65	COLOR_NAME	39	Neutral	zielony	green	Neutral	Neutral	hit	n/a
342.632	n/a	RESPONSE	n/a	n/a	n/a	n/a	n/a	n/a	n/a	green
342.6502	1.0167	ITI	n/a	n/a	n/a	n/a	n/a	n/a	n/a	n/a
343.6669	0.5167	FIXCROSS	n/a	n/a	n/a	n/a	n/a	n/a	n/a	n/a
344.1836	0.5667	COLOR_NAME	40	Incongruent	żółty	yellow	zielony	green	hit	n/a
344.7275	n/a	RESPONSE	n/a	n/a	n/a	n/a	n/a	n/a	n/a	yellow
344.7502	1.0167	ITI	n/a	n/a	n/a	n/a	n/a	n/a	n/a	n/a
345.7669	0.5167	FIXCROSS	n/a	n/a	n/a	n/a	n/a	n/a	n/a	n/a
346.2836	0.5667	COLOR_NAME	41	Neutral	zielony	green	Neutral	Neutral	hit	n/a
346.8231	n/a	RESPONSE	n/a	n/a	n/a	n/a	n/a	n/a	n/a	green
346.8503	1.0167	ITI	n/a	n/a	n/a	n/a	n/a	n/a	n/a	n/a
347.867	0.5167	FIXCROSS	n/a	n/a	n/a	n/a	n/a	n/a	n/a	n/a
348.3836	0.4667	COLOR_NAME	42	Incongruent	żółty	yellow	czerwony	red	hit	n/a
348.8227	n/a	RESPONSE	n/a	n/a	n/a	n/a	n/a	n/a	n/a	yellow
348.8503	1.0167	ITI	n/a	n/a	n/a	n/a	n/a	n/a	n/a	n/a
349.867	0.5167	FIXCROSS	n/a	n/a	n/a	n/a	n/a	n/a	n/a	n/a
350.3837	0.6833	COLOR_NAME	43	Incongruent	żółty	yellow	niebieski	blue	hit	n/a
351.0462	n/a	RESPONSE	n/a	n/a	n/a	n/a	n/a	n/a	n/a	yellow
351.067	1.0167	ITI	n/a	n/a	n/a	n/a	n/a	n/a	n/a	n/a
352.0837	0.5167	FIXCROSS	n/a	n/a	n/a	n/a	n/a	n/a	n/a	n/a
352.6004	0.7667	COLOR_NAME	44	Neutral	niebieski	blue	Neutral	Neutral	hit	n/a
353.3497	n/a	RESPONSE	n/a	n/a	n/a	n/a	n/a	n/a	n/a	blue
353.367	1.0167	ITI	n/a	n/a	n/a	n/a	n/a	n/a	n/a	n/a
354.3837	0.5167	FIXCROSS	n/a	n/a	n/a	n/a	n/a	n/a	n/a	n/a
354.9004	0.6	COLOR_NAME	45	Incongruent	niebieski	blue	czerwony	red	hit	n/a
355.4773	n/a	RESPONSE	n/a	n/a	n/a	n/a	n/a	n/a	n/a	blue
355.5004	1.0167	ITI	n/a	n/a	n/a	n/a	n/a	n/a	n/a	n/a
356.5171	0.5167	FIXCROSS	n/a	n/a	n/a	n/a	n/a	n/a	n/a	n/a
357.0337	0.5667	COLOR_NAME	46	Incongruent	żółty	yellow	zielony	green	hit	n/a
357.5728	n/a	RESPONSE	n/a	n/a	n/a	n/a	n/a	n/a	n/a	yellow
357.6004	1.0167	ITI	n/a	n/a	n/a	n/a	n/a	n/a	n/a	n/a
358.6171	0.5167	FIXCROSS	n/a	n/a	n/a	n/a	n/a	n/a	n/a	n/a
359.1338	0.6	COLOR_NAME	47	Incongruent	żółty	yellow	czerwony	red	hit	n/a
359.7004	n/a	RESPONSE	n/a	n/a	n/a	n/a	n/a	n/a	n/a	yellow
359.7338	1.0167	ITI	n/a	n/a	n/a	n/a	n/a	n/a	n/a	n/a
360.7505	0.5167	FIXCROSS	n/a	n/a	n/a	n/a	n/a	n/a	n/a	n/a
361.2671	0.7	COLOR_NAME	48	Incongruent	czerwony	red	niebieski	blue	hit	n/a
361.9399	n/a	RESPONSE	n/a	n/a	n/a	n/a	n/a	n/a	n/a	red
361.9671	1.0167	ITI	n/a	n/a	n/a	n/a	n/a	n/a	n/a	n/a
362.9838	0.5167	FIXCROSS	n/a	n/a	n/a	n/a	n/a	n/a	n/a	n/a
363.5005	0.7333	COLOR_NAME	49	Neutral	niebieski	blue	Neutral	Neutral	hit	n/a
364.2115	n/a	RESPONSE	n/a	n/a	n/a	n/a	n/a	n/a	n/a	blue
364.2338	1.0167	ITI	n/a	n/a	n/a	n/a	n/a	n/a	n/a	n/a
365.2505	0.5167	FIXCROSS	n/a	n/a	n/a	n/a	n/a	n/a	n/a	n/a
365.7672	0.6167	COLOR_NAME	50	Neutral	żółty	yellow	Neutral	Neutral	hit	n/a
366.355	n/a	RESPONSE	n/a	n/a	n/a	n/a	n/a	n/a	n/a	yellow
366.3839	1.0167	ITI	n/a	n/a	n/a	n/a	n/a	n/a	n/a	n/a
367.4006	0.5167	FIXCROSS	n/a	n/a	n/a	n/a	n/a	n/a	n/a	n/a
367.9172	0.6	COLOR_NAME	51	Neutral	czerwony	red	Neutral	Neutral	hit	n/a
368.4986	n/a	RESPONSE	n/a	n/a	n/a	n/a	n/a	n/a	n/a	red
368.5172	1.0167	ITI	n/a	n/a	n/a	n/a	n/a	n/a	n/a	n/a
369.5339	0.5167	FIXCROSS	n/a	n/a	n/a	n/a	n/a	n/a	n/a	n/a
370.0506	0.75	COLOR_NAME	52	Incongruent	niebieski	blue	zielony	green	hit	n/a
370.7701	n/a	RESPONSE	n/a	n/a	n/a	n/a	n/a	n/a	n/a	blue
370.8006	1.0167	ITI	n/a	n/a	n/a	n/a	n/a	n/a	n/a	n/a
371.8173	0.5167	FIXCROSS	n/a	n/a	n/a	n/a	n/a	n/a	n/a	n/a
372.334	0.5833	COLOR_NAME	53	Incongruent	czerwony	red	żółty	yellow	hit	n/a
372.8977	n/a	RESPONSE	n/a	n/a	n/a	n/a	n/a	n/a	n/a	red
372.9173	1.0167	ITI	n/a	n/a	n/a	n/a	n/a	n/a	n/a	n/a
373.934	0.5167	FIXCROSS	n/a	n/a	n/a	n/a	n/a	n/a	n/a	n/a
374.4507	0.8167	COLOR_NAME	54	Neutral	zielony	green	Neutral	Neutral	hit	n/a
375.2492	n/a	RESPONSE	n/a	n/a	n/a	n/a	n/a	n/a	n/a	green
375.2673	1.0167	ITI	n/a	n/a	n/a	n/a	n/a	n/a	n/a	n/a
376.284	0.5167	FIXCROSS	n/a	n/a	n/a	n/a	n/a	n/a	n/a	n/a
376.8007	0.7333	COLOR_NAME	55	Incongruent	niebieski	blue	zielony	green	hit	n/a
377.5047	n/a	RESPONSE	n/a	n/a	n/a	n/a	n/a	n/a	n/a	blue
377.534	1.0167	ITI	n/a	n/a	n/a	n/a	n/a	n/a	n/a	n/a
378.5507	0.5167	FIXCROSS	n/a	n/a	n/a	n/a	n/a	n/a	n/a	n/a
379.0674	0.55	COLOR_NAME	56	Incongruent	czerwony	red	zielony	green	hit	n/a
379.5843	n/a	RESPONSE	n/a	n/a	n/a	n/a	n/a	n/a	n/a	red
379.6174	1.0167	ITI	n/a	n/a	n/a	n/a	n/a	n/a	n/a	n/a
380.6341	0.5167	FIXCROSS	n/a	n/a	n/a	n/a	n/a	n/a	n/a	n/a
381.1507	0.7667	COLOR_NAME	57	Incongruent	niebieski	blue	czerwony	red	hit	n/a
381.8878	n/a	RESPONSE	n/a	n/a	n/a	n/a	n/a	n/a	n/a	blue
381.9174	1.0167	ITI	n/a	n/a	n/a	n/a	n/a	n/a	n/a	n/a
382.9341	0.5167	FIXCROSS	n/a	n/a	n/a	n/a	n/a	n/a	n/a	n/a
383.4508	0.9	COLOR_NAME	58	Incongruent	zielony	green	żółty	yellow	hit	n/a
384.3193	n/a	RESPONSE	n/a	n/a	n/a	n/a	n/a	n/a	n/a	green
384.3508	1.0167	ITI	n/a	n/a	n/a	n/a	n/a	n/a	n/a	n/a
385.3675	0.5167	FIXCROSS	n/a	n/a	n/a	n/a	n/a	n/a	n/a	n/a
385.8841	1.0	COLOR_NAME	59	Incongruent	żółty	yellow	niebieski	blue	hit	n/a
386.8628	n/a	RESPONSE	n/a	n/a	n/a	n/a	n/a	n/a	n/a	yellow
386.8842	1.0167	ITI	n/a	n/a	n/a	n/a	n/a	n/a	n/a	n/a
387.9008	0.5167	FIXCROSS	n/a	n/a	n/a	n/a	n/a	n/a	n/a	n/a
388.4175	0.7667	COLOR_NAME	60	Neutral	niebieski	blue	Neutral	Neutral	hit	n/a
389.1663	n/a	RESPONSE	n/a	n/a	n/a	n/a	n/a	n/a	n/a	blue
389.1842	1.0167	ITI	n/a	n/a	n/a	n/a	n/a	n/a	n/a	n/a
390.2009	0.5167	FIXCROSS	n/a	n/a	n/a	n/a	n/a	n/a	n/a	n/a
390.7175	0.9333	COLOR_NAME	61	Neutral	zielony	green	Neutral	Neutral	hit	n/a
391.6298	n/a	RESPONSE	n/a	n/a	n/a	n/a	n/a	n/a	n/a	green
391.6509	1.0167	ITI	n/a	n/a	n/a	n/a	n/a	n/a	n/a	n/a
392.6676	0.5167	FIXCROSS	n/a	n/a	n/a	n/a	n/a	n/a	n/a	n/a
393.1842	0.65	COLOR_NAME	62	Neutral	czerwony	red	Neutral	Neutral	hit	n/a
393.8053	n/a	RESPONSE	n/a	n/a	n/a	n/a	n/a	n/a	n/a	red
393.8342	1.0167	ITI	n/a	n/a	n/a	n/a	n/a	n/a	n/a	n/a
394.8509	0.5167	FIXCROSS	n/a	n/a	n/a	n/a	n/a	n/a	n/a	n/a
395.3676	0.5167	COLOR_NAME	63	Neutral	czerwony	red	Neutral	Neutral	hit	n/a
395.8529	n/a	RESPONSE	n/a	n/a	n/a	n/a	n/a	n/a	n/a	red
395.8843	1.0167	ITI	n/a	n/a	n/a	n/a	n/a	n/a	n/a	n/a
396.901	0.5167	FIXCROSS	n/a	n/a	n/a	n/a	n/a	n/a	n/a	n/a
397.4176	0.6	COLOR_NAME	64	Incongruent	żółty	yellow	czerwony	red	hit	n/a
397.9965	n/a	RESPONSE	n/a	n/a	n/a	n/a	n/a	n/a	n/a	yellow
398.0176	1.0167	ITI	n/a	n/a	n/a	n/a	n/a	n/a	n/a	n/a
399.0343	0.5167	FIXCROSS	n/a	n/a	n/a	n/a	n/a	n/a	n/a	n/a
399.551	0.7	COLOR_NAME	65	Incongruent	niebieski	blue	żółty	yellow	hit	n/a
400.22	n/a	RESPONSE	n/a	n/a	n/a	n/a	n/a	n/a	n/a	blue
400.251	1.0167	ITI	n/a	n/a	n/a	n/a	n/a	n/a	n/a	n/a
401.2677	0.5167	FIXCROSS	n/a	n/a	n/a	n/a	n/a	n/a	n/a	n/a
401.7844	0.6333	COLOR_NAME	66	Neutral	żółty	yellow	Neutral	Neutral	hit	n/a
402.3955	n/a	RESPONSE	n/a	n/a	n/a	n/a	n/a	n/a	n/a	yellow
402.4177	1.0167	ITI	n/a	n/a	n/a	n/a	n/a	n/a	n/a	n/a
403.4344	0.5167	FIXCROSS	n/a	n/a	n/a	n/a	n/a	n/a	n/a	n/a
403.9511	0.55	COLOR_NAME	67	Neutral	żółty	yellow	Neutral	Neutral	hit	n/a
404.4751	n/a	RESPONSE	n/a	n/a	n/a	n/a	n/a	n/a	n/a	yellow
404.5011	1.0167	ITI	n/a	n/a	n/a	n/a	n/a	n/a	n/a	n/a
405.5177	0.5167	FIXCROSS	n/a	n/a	n/a	n/a	n/a	n/a	n/a	n/a
406.0344	0.6333	COLOR_NAME	68	Incongruent	niebieski	blue	czerwony	red	hit	n/a
406.6347	n/a	RESPONSE	n/a	n/a	n/a	n/a	n/a	n/a	n/a	blue
406.6678	1.0167	ITI	n/a	n/a	n/a	n/a	n/a	n/a	n/a	n/a
407.6844	0.5167	FIXCROSS	n/a	n/a	n/a	n/a	n/a	n/a	n/a	n/a
408.2011	0.75	COLOR_NAME	69	Neutral	niebieski	blue	Neutral	Neutral	hit	n/a
408.9222	n/a	RESPONSE	n/a	n/a	n/a	n/a	n/a	n/a	n/a	blue
408.9511	1.0167	ITI	n/a	n/a	n/a	n/a	n/a	n/a	n/a	n/a
409.9678	0.5167	FIXCROSS	n/a	n/a	n/a	n/a	n/a	n/a	n/a	n/a
410.4845	0.55	COLOR_NAME	70	Neutral	czerwony	red	Neutral	Neutral	hit	n/a
411.0018	n/a	RESPONSE	n/a	n/a	n/a	n/a	n/a	n/a	n/a	red
411.0345	1.0167	ITI	n/a	n/a	n/a	n/a	n/a	n/a	n/a	n/a
412.0512	0.5167	FIXCROSS	n/a	n/a	n/a	n/a	n/a	n/a	n/a	n/a
412.5678	0.4833	COLOR_NAME	71	Incongruent	czerwony	red	żółty	yellow	hit	n/a
413.0174	n/a	RESPONSE	n/a	n/a	n/a	n/a	n/a	n/a	n/a	red
413.0512	1.0167	ITI	n/a	n/a	n/a	n/a	n/a	n/a	n/a	n/a
414.0679	0.5167	FIXCROSS	n/a	n/a	n/a	n/a	n/a	n/a	n/a	n/a
414.5845	0.45	COLOR_NAME	72	Neutral	czerwony	red	Neutral	Neutral	hit	n/a
415.0009	n/a	RESPONSE	n/a	n/a	n/a	n/a	n/a	n/a	n/a	red
415.0345	1.0333	ITI	n/a	n/a	n/a	n/a	n/a	n/a	n/a	n/a
418.6162	n/a	RESPONSE	n/a	n/a	n/a	n/a	n/a	n/a	n/a	n/a
