onset	duration	trial_type	trial_number	stroop_condition	stim_text(PL)	stim_text(eng)	stim_color(PL)	stim_color(eng)	response_type	response_color
0.0	n/a	RESPONSE	n/a	n/a	n/a	n/a	n/a	n/a	n/a	n/a
0.0382	1.0166	ITI	n/a	n/a	n/a	n/a	n/a	n/a	n/a	n/a
1.0548	0.5	FIXCROSS	n/a	n/a	n/a	n/a	n/a	n/a	n/a	n/a
1.5548	2.05	T_INK	1	Neutral	xxxxxxxx	xxxxxxxx	niebieski	blue	hit	n/a
3.597	n/a	RESPONSE	n/a	n/a	n/a	n/a	n/a	n/a	n/a	blue
3.6048	0.5	FEEDBACK	n/a	n/a	n/a	n/a	n/a	n/a	n/a	n/a
4.1048	1.0166	ITI	n/a	n/a	n/a	n/a	n/a	n/a	n/a	n/a
5.1214	0.5	FIXCROSS	n/a	n/a	n/a	n/a	n/a	n/a	n/a	n/a
5.6214	1.3	T_INK	2	Incongruent	żółty	yellow	zielony	green	hit	n/a
6.9062	n/a	RESPONSE	n/a	n/a	n/a	n/a	n/a	n/a	n/a	green
6.9214	0.5	FEEDBACK	n/a	n/a	n/a	n/a	n/a	n/a	n/a	n/a
7.4214	1.0	ITI	n/a	n/a	n/a	n/a	n/a	n/a	n/a	n/a
8.4214	0.5	FIXCROSS	n/a	n/a	n/a	n/a	n/a	n/a	n/a	n/a
8.9213	0.7833	T_INK	3	Neutral	xxxxxxxxx	xxxxxxxxx	zielony	green	hit	n/a
9.6879	n/a	RESPONSE	n/a	n/a	n/a	n/a	n/a	n/a	n/a	green
9.7047	0.5	FEEDBACK	n/a	n/a	n/a	n/a	n/a	n/a	n/a	n/a
10.2047	1.0	ITI	n/a	n/a	n/a	n/a	n/a	n/a	n/a	n/a
11.2046	0.5	FIXCROSS	n/a	n/a	n/a	n/a	n/a	n/a	n/a	n/a
11.7046	0.7333	T_INK	4	Incongruent	zielony	green	czerwony	red	hit	n/a
12.4216	n/a	RESPONSE	n/a	n/a	n/a	n/a	n/a	n/a	n/a	red
12.438	0.5	FEEDBACK	n/a	n/a	n/a	n/a	n/a	n/a	n/a	n/a
12.9379	1.0	ITI	n/a	n/a	n/a	n/a	n/a	n/a	n/a	n/a
13.9379	0.5	FIXCROSS	n/a	n/a	n/a	n/a	n/a	n/a	n/a	n/a
14.4379	0.4333	T_INK	5	Neutral	xxxxxxx	xxxxxxx	żółty	yellow	hit	n/a
14.8516	n/a	RESPONSE	n/a	n/a	n/a	n/a	n/a	n/a	n/a	yellow
14.8712	0.5	FEEDBACK	n/a	n/a	n/a	n/a	n/a	n/a	n/a	n/a
15.3712	1.0	ITI	n/a	n/a	n/a	n/a	n/a	n/a	n/a	n/a
16.3712	0.5	FIXCROSS	n/a	n/a	n/a	n/a	n/a	n/a	n/a	n/a
16.8712	0.7833	T_INK	6	Incongruent	żółty	yellow	niebieski	blue	hit	n/a
17.6492	n/a	RESPONSE	n/a	n/a	n/a	n/a	n/a	n/a	n/a	blue
17.6545	0.5	FEEDBACK	n/a	n/a	n/a	n/a	n/a	n/a	n/a	n/a
18.1545	1.0	ITI	n/a	n/a	n/a	n/a	n/a	n/a	n/a	n/a
19.1545	0.5	FIXCROSS	n/a	n/a	n/a	n/a	n/a	n/a	n/a	n/a
19.6545	0.5167	T_INK	7	Neutral	xxxxx	xxxxx	zielony	green	hit	n/a
20.1592	n/a	RESPONSE	n/a	n/a	n/a	n/a	n/a	n/a	n/a	green
20.1711	0.5	FEEDBACK	n/a	n/a	n/a	n/a	n/a	n/a	n/a	n/a
20.6711	1.0	ITI	n/a	n/a	n/a	n/a	n/a	n/a	n/a	n/a
21.6711	0.5	FIXCROSS	n/a	n/a	n/a	n/a	n/a	n/a	n/a	n/a
22.1711	0.4333	T_INK	8	Neutral	xxxxxxxxx	xxxxxxxxx	żółty	yellow	hit	n/a
22.5892	n/a	RESPONSE	n/a	n/a	n/a	n/a	n/a	n/a	n/a	yellow
22.6044	0.5	FEEDBACK	n/a	n/a	n/a	n/a	n/a	n/a	n/a	n/a
23.1044	1.0	ITI	n/a	n/a	n/a	n/a	n/a	n/a	n/a	n/a
24.1044	0.5	FIXCROSS	n/a	n/a	n/a	n/a	n/a	n/a	n/a	n/a
24.6044	0.4333	T_INK	9	Incongruent	żółty	yellow	czerwony	red	hit	n/a
25.0192	n/a	RESPONSE	n/a	n/a	n/a	n/a	n/a	n/a	n/a	red
25.0377	0.5	FEEDBACK	n/a	n/a	n/a	n/a	n/a	n/a	n/a	n/a
25.5377	1.0	ITI	n/a	n/a	n/a	n/a	n/a	n/a	n/a	n/a
26.5377	0.5	FIXCROSS	n/a	n/a	n/a	n/a	n/a	n/a	n/a	n/a
27.0377	0.5167	T_INK	10	Neutral	xxxxxxx	xxxxxxx	czerwony	red	hit	n/a
27.545	n/a	RESPONSE	n/a	n/a	n/a	n/a	n/a	n/a	n/a	red
27.5543	0.5	FEEDBACK	n/a	n/a	n/a	n/a	n/a	n/a	n/a	n/a
28.0543	1.0	ITI	n/a	n/a	n/a	n/a	n/a	n/a	n/a	n/a
29.0543	0.5	FIXCROSS	n/a	n/a	n/a	n/a	n/a	n/a	n/a	n/a
29.5543	1.0333	T_INK	11	Incongruent	niebieski	blue	żółty	yellow	hit	n/a
30.5825	n/a	RESPONSE	n/a	n/a	n/a	n/a	n/a	n/a	n/a	yellow
30.5876	0.5	FEEDBACK	n/a	n/a	n/a	n/a	n/a	n/a	n/a	n/a
31.0876	1.0	ITI	n/a	n/a	n/a	n/a	n/a	n/a	n/a	n/a
32.0876	0.5	FIXCROSS	n/a	n/a	n/a	n/a	n/a	n/a	n/a	n/a
32.5876	0.6	T_INK	12	Neutral	xxxxxxxxx	xxxxxxxxx	czerwony	red	hit	n/a
33.1724	n/a	RESPONSE	n/a	n/a	n/a	n/a	n/a	n/a	n/a	red
33.1876	0.5	FEEDBACK	n/a	n/a	n/a	n/a	n/a	n/a	n/a	n/a
33.6876	1.0	ITI	n/a	n/a	n/a	n/a	n/a	n/a	n/a	n/a
36.5136	n/a	RESPONSE	n/a	n/a	n/a	n/a	n/a	n/a	n/a	n/a
36.5375	1.0	ITI	n/a	n/a	n/a	n/a	n/a	n/a	n/a	n/a
37.5375	0.5	FIXCROSS	n/a	n/a	n/a	n/a	n/a	n/a	n/a	n/a
38.0375	1.0833	INK	1	Incongruent	czerwony	red	żółty	yellow	hit	n/a
39.1034	n/a	RESPONSE	n/a	n/a	n/a	n/a	n/a	n/a	n/a	yellow
39.1208	1.0	ITI	n/a	n/a	n/a	n/a	n/a	n/a	n/a	n/a
40.1208	0.5	FIXCROSS	n/a	n/a	n/a	n/a	n/a	n/a	n/a	n/a
40.6208	0.5333	INK	2	Neutral	xxxxxxxxx	xxxxxxxxx	czerwony	red	hit	n/a
41.1497	n/a	RESPONSE	n/a	n/a	n/a	n/a	n/a	n/a	n/a	red
41.1541	1.0	ITI	n/a	n/a	n/a	n/a	n/a	n/a	n/a	n/a
42.1541	0.5	FIXCROSS	n/a	n/a	n/a	n/a	n/a	n/a	n/a	n/a
42.654	0.5167	INK	3	Neutral	xxxxx	xxxxx	czerwony	red	hit	n/a
43.1641	n/a	RESPONSE	n/a	n/a	n/a	n/a	n/a	n/a	n/a	red
43.1707	1.0	ITI	n/a	n/a	n/a	n/a	n/a	n/a	n/a	n/a
44.1707	0.5	FIXCROSS	n/a	n/a	n/a	n/a	n/a	n/a	n/a	n/a
44.6707	0.75	INK	4	Incongruent	niebieski	blue	żółty	yellow	hit	n/a
45.4022	n/a	RESPONSE	n/a	n/a	n/a	n/a	n/a	n/a	n/a	yellow
45.4207	1.0	ITI	n/a	n/a	n/a	n/a	n/a	n/a	n/a	n/a
46.4207	0.5	FIXCROSS	n/a	n/a	n/a	n/a	n/a	n/a	n/a	n/a
46.9206	0.4167	INK	5	Neutral	xxxxx	xxxxx	zielony	green	hit	n/a
47.3206	n/a	RESPONSE	n/a	n/a	n/a	n/a	n/a	n/a	n/a	green
47.3373	1.0	ITI	n/a	n/a	n/a	n/a	n/a	n/a	n/a	n/a
48.3373	0.5	FIXCROSS	n/a	n/a	n/a	n/a	n/a	n/a	n/a	n/a
48.8373	0.5	INK	6	Neutral	xxxxxxx	xxxxxxx	czerwony	red	hit	n/a
49.3189	n/a	RESPONSE	n/a	n/a	n/a	n/a	n/a	n/a	n/a	red
49.3373	1.0	ITI	n/a	n/a	n/a	n/a	n/a	n/a	n/a	n/a
50.3373	0.5	FIXCROSS	n/a	n/a	n/a	n/a	n/a	n/a	n/a	n/a
50.8372	0.55	INK	7	Incongruent	żółty	yellow	czerwony	red	hit	n/a
51.3812	n/a	RESPONSE	n/a	n/a	n/a	n/a	n/a	n/a	n/a	red
51.3872	1.0	ITI	n/a	n/a	n/a	n/a	n/a	n/a	n/a	n/a
52.3872	0.5	FIXCROSS	n/a	n/a	n/a	n/a	n/a	n/a	n/a	n/a
52.8872	0.4333	INK	8	Neutral	xxxxxxx	xxxxxxx	czerwony	red	hit	n/a
53.3155	n/a	RESPONSE	n/a	n/a	n/a	n/a	n/a	n/a	n/a	red
53.3205	1.0	ITI	n/a	n/a	n/a	n/a	n/a	n/a	n/a	n/a
54.3205	0.5	FIXCROSS	n/a	n/a	n/a	n/a	n/a	n/a	n/a	n/a
54.8205	0.6	INK	9	Neutral	xxxxxxxx	xxxxxxxx	niebieski	blue	hit	n/a
55.4097	n/a	RESPONSE	n/a	n/a	n/a	n/a	n/a	n/a	n/a	blue
55.4205	1.0	ITI	n/a	n/a	n/a	n/a	n/a	n/a	n/a	n/a
56.4205	0.5	FIXCROSS	n/a	n/a	n/a	n/a	n/a	n/a	n/a	n/a
56.9205	0.4666	INK	10	Neutral	xxxxxxxxx	xxxxxxxxx	czerwony	red	hit	n/a
57.3762	n/a	RESPONSE	n/a	n/a	n/a	n/a	n/a	n/a	n/a	red
57.3871	1.0	ITI	n/a	n/a	n/a	n/a	n/a	n/a	n/a	n/a
58.3871	0.4999	FIXCROSS	n/a	n/a	n/a	n/a	n/a	n/a	n/a	n/a
58.887	0.4001	INK	11	Incongruent	niebieski	blue	zielony	green	hit	n/a
59.2786	n/a	RESPONSE	n/a	n/a	n/a	n/a	n/a	n/a	n/a	green
59.2871	1.0	ITI	n/a	n/a	n/a	n/a	n/a	n/a	n/a	n/a
60.2871	0.5	FIXCROSS	n/a	n/a	n/a	n/a	n/a	n/a	n/a	n/a
60.7871	0.4167	INK	12	Incongruent	niebieski	blue	żółty	yellow	hit	n/a
61.197	n/a	RESPONSE	n/a	n/a	n/a	n/a	n/a	n/a	n/a	yellow
61.2037	1.0	ITI	n/a	n/a	n/a	n/a	n/a	n/a	n/a	n/a
62.2037	0.5	FIXCROSS	n/a	n/a	n/a	n/a	n/a	n/a	n/a	n/a
62.7037	0.4833	INK	13	Neutral	xxxxx	xxxxx	czerwony	red	hit	n/a
63.1793	n/a	RESPONSE	n/a	n/a	n/a	n/a	n/a	n/a	n/a	red
63.187	1.0	ITI	n/a	n/a	n/a	n/a	n/a	n/a	n/a	n/a
64.187	0.5	FIXCROSS	n/a	n/a	n/a	n/a	n/a	n/a	n/a	n/a
64.687	1.0666	INK	14	Incongruent	zielony	green	żółty	yellow	hit	n/a
65.7371	n/a	RESPONSE	n/a	n/a	n/a	n/a	n/a	n/a	n/a	yellow
65.7536	1.0	ITI	n/a	n/a	n/a	n/a	n/a	n/a	n/a	n/a
66.7536	0.5	FIXCROSS	n/a	n/a	n/a	n/a	n/a	n/a	n/a	n/a
67.2536	0.5	INK	15	Neutral	xxxxxxx	xxxxxxx	niebieski	blue	hit	n/a
67.7355	n/a	RESPONSE	n/a	n/a	n/a	n/a	n/a	n/a	n/a	blue
67.7536	1.0	ITI	n/a	n/a	n/a	n/a	n/a	n/a	n/a	n/a
68.7536	0.5	FIXCROSS	n/a	n/a	n/a	n/a	n/a	n/a	n/a	n/a
69.2536	0.6667	INK	16	Neutral	xxxxxxxxx	xxxxxxxxx	żółty	yellow	hit	n/a
69.9096	n/a	RESPONSE	n/a	n/a	n/a	n/a	n/a	n/a	n/a	yellow
69.9202	1.0	ITI	n/a	n/a	n/a	n/a	n/a	n/a	n/a	n/a
70.9202	0.5	FIXCROSS	n/a	n/a	n/a	n/a	n/a	n/a	n/a	n/a
71.4202	0.7667	INK	17	Incongruent	żółty	yellow	niebieski	blue	hit	n/a
72.1798	n/a	RESPONSE	n/a	n/a	n/a	n/a	n/a	n/a	n/a	blue
72.1869	1.0	ITI	n/a	n/a	n/a	n/a	n/a	n/a	n/a	n/a
73.1868	0.5	FIXCROSS	n/a	n/a	n/a	n/a	n/a	n/a	n/a	n/a
73.6868	0.45	INK	18	Neutral	xxxxx	xxxxx	zielony	green	hit	n/a
74.1302	n/a	RESPONSE	n/a	n/a	n/a	n/a	n/a	n/a	n/a	green
74.1368	1.0	ITI	n/a	n/a	n/a	n/a	n/a	n/a	n/a	n/a
75.1368	0.5	FIXCROSS	n/a	n/a	n/a	n/a	n/a	n/a	n/a	n/a
75.6368	0.4667	INK	19	Incongruent	żółty	yellow	zielony	green	hit	n/a
76.0966	n/a	RESPONSE	n/a	n/a	n/a	n/a	n/a	n/a	n/a	green
76.1035	1.0	ITI	n/a	n/a	n/a	n/a	n/a	n/a	n/a	n/a
77.1034	0.5	FIXCROSS	n/a	n/a	n/a	n/a	n/a	n/a	n/a	n/a
77.6034	0.3833	INK	20	Incongruent	czerwony	red	zielony	green	hit	n/a
77.9831	n/a	RESPONSE	n/a	n/a	n/a	n/a	n/a	n/a	n/a	green
77.9867	1.0	ITI	n/a	n/a	n/a	n/a	n/a	n/a	n/a	n/a
78.9867	0.5	FIXCROSS	n/a	n/a	n/a	n/a	n/a	n/a	n/a	n/a
79.4867	0.3833	INK	21	Neutral	xxxxxxxxx	xxxxxxxxx	zielony	green	hit	n/a
79.8534	n/a	RESPONSE	n/a	n/a	n/a	n/a	n/a	n/a	n/a	green
79.87	1.0	ITI	n/a	n/a	n/a	n/a	n/a	n/a	n/a	n/a
80.87	0.5	FIXCROSS	n/a	n/a	n/a	n/a	n/a	n/a	n/a	n/a
81.37	0.45	INK	22	Incongruent	zielony	green	żółty	yellow	hit	n/a
81.8038	n/a	RESPONSE	n/a	n/a	n/a	n/a	n/a	n/a	n/a	yellow
81.82	1.0	ITI	n/a	n/a	n/a	n/a	n/a	n/a	n/a	n/a
82.82	0.5	FIXCROSS	n/a	n/a	n/a	n/a	n/a	n/a	n/a	n/a
83.32	0.3833	INK	23	Neutral	xxxxxxxxx	xxxxxxxxx	zielony	green	hit	n/a
83.6901	n/a	RESPONSE	n/a	n/a	n/a	n/a	n/a	n/a	n/a	green
83.7033	1.0	ITI	n/a	n/a	n/a	n/a	n/a	n/a	n/a	n/a
84.7033	0.5	FIXCROSS	n/a	n/a	n/a	n/a	n/a	n/a	n/a	n/a
85.2033	0.45	INK	24	Neutral	xxxxxxxx	xxxxxxxx	żółty	yellow	hit	n/a
85.6407	n/a	RESPONSE	n/a	n/a	n/a	n/a	n/a	n/a	n/a	yellow
85.6533	1.0	ITI	n/a	n/a	n/a	n/a	n/a	n/a	n/a	n/a
86.6532	0.5	FIXCROSS	n/a	n/a	n/a	n/a	n/a	n/a	n/a	n/a
87.1532	0.3667	INK	25	Neutral	xxxxxxxxx	xxxxxxxxx	zielony	green	hit	n/a
87.511	n/a	RESPONSE	n/a	n/a	n/a	n/a	n/a	n/a	n/a	green
87.5199	1.0	ITI	n/a	n/a	n/a	n/a	n/a	n/a	n/a	n/a
88.5199	0.5	FIXCROSS	n/a	n/a	n/a	n/a	n/a	n/a	n/a	n/a
89.0199	0.35	INK	26	Neutral	xxxxxxxx	xxxxxxxx	zielony	green	hit	n/a
89.3655	n/a	RESPONSE	n/a	n/a	n/a	n/a	n/a	n/a	n/a	green
89.3699	1.0	ITI	n/a	n/a	n/a	n/a	n/a	n/a	n/a	n/a
90.3698	0.5	FIXCROSS	n/a	n/a	n/a	n/a	n/a	n/a	n/a	n/a
90.8698	0.3833	INK	27	Neutral	xxxxx	xxxxx	zielony	green	hit	n/a
91.236	n/a	RESPONSE	n/a	n/a	n/a	n/a	n/a	n/a	n/a	green
91.2532	1.0	ITI	n/a	n/a	n/a	n/a	n/a	n/a	n/a	n/a
92.2532	0.5	FIXCROSS	n/a	n/a	n/a	n/a	n/a	n/a	n/a	n/a
92.7531	0.4333	INK	28	Incongruent	żółty	yellow	czerwony	red	hit	n/a
93.1703	n/a	RESPONSE	n/a	n/a	n/a	n/a	n/a	n/a	n/a	red
93.1865	1.0	ITI	n/a	n/a	n/a	n/a	n/a	n/a	n/a	n/a
94.1864	0.5	FIXCROSS	n/a	n/a	n/a	n/a	n/a	n/a	n/a	n/a
94.6864	0.5667	INK	29	Incongruent	żółty	yellow	zielony	green	hit	n/a
95.2486	n/a	RESPONSE	n/a	n/a	n/a	n/a	n/a	n/a	n/a	green
95.2531	1.0	ITI	n/a	n/a	n/a	n/a	n/a	n/a	n/a	n/a
96.2531	0.5	FIXCROSS	n/a	n/a	n/a	n/a	n/a	n/a	n/a	n/a
96.7531	0.4667	INK	30	Neutral	xxxxxxx	xxxxxxx	czerwony	red	hit	n/a
97.2149	n/a	RESPONSE	n/a	n/a	n/a	n/a	n/a	n/a	n/a	red
97.2197	1.0	ITI	n/a	n/a	n/a	n/a	n/a	n/a	n/a	n/a
98.2197	0.5	FIXCROSS	n/a	n/a	n/a	n/a	n/a	n/a	n/a	n/a
98.7197	0.4333	INK	31	Neutral	xxxxxxx	xxxxxxx	niebieski	blue	hit	n/a
99.1493	n/a	RESPONSE	n/a	n/a	n/a	n/a	n/a	n/a	n/a	blue
99.153	1.0	ITI	n/a	n/a	n/a	n/a	n/a	n/a	n/a	n/a
100.153	0.5	FIXCROSS	n/a	n/a	n/a	n/a	n/a	n/a	n/a	n/a
100.653	0.5333	INK	32	Incongruent	zielony	green	czerwony	red	hit	n/a
101.1797	n/a	RESPONSE	n/a	n/a	n/a	n/a	n/a	n/a	n/a	red
101.1863	1.0	ITI	n/a	n/a	n/a	n/a	n/a	n/a	n/a	n/a
102.1863	0.5	FIXCROSS	n/a	n/a	n/a	n/a	n/a	n/a	n/a	n/a
102.6863	0.7667	INK	33	Neutral	xxxxx	xxxxx	niebieski	blue	hit	n/a
103.4339	n/a	RESPONSE	n/a	n/a	n/a	n/a	n/a	n/a	n/a	blue
103.4529	1.0	ITI	n/a	n/a	n/a	n/a	n/a	n/a	n/a	n/a
104.4529	0.5	FIXCROSS	n/a	n/a	n/a	n/a	n/a	n/a	n/a	n/a
104.9529	0.4833	INK	34	Incongruent	zielony	green	czerwony	red	hit	n/a
105.4321	n/a	RESPONSE	n/a	n/a	n/a	n/a	n/a	n/a	n/a	red
105.4362	1.0	ITI	n/a	n/a	n/a	n/a	n/a	n/a	n/a	n/a
106.4362	0.5	FIXCROSS	n/a	n/a	n/a	n/a	n/a	n/a	n/a	n/a
106.9362	0.5167	INK	35	Incongruent	niebieski	blue	czerwony	red	hit	n/a
107.4465	n/a	RESPONSE	n/a	n/a	n/a	n/a	n/a	n/a	n/a	red
107.4529	1.0	ITI	n/a	n/a	n/a	n/a	n/a	n/a	n/a	n/a
108.4528	0.5	FIXCROSS	n/a	n/a	n/a	n/a	n/a	n/a	n/a	n/a
108.9528	0.4333	INK	36	Incongruent	zielony	green	żółty	yellow	hit	n/a
109.3809	n/a	RESPONSE	n/a	n/a	n/a	n/a	n/a	n/a	n/a	yellow
109.3862	1.0	ITI	n/a	n/a	n/a	n/a	n/a	n/a	n/a	n/a
110.3861	0.5	FIXCROSS	n/a	n/a	n/a	n/a	n/a	n/a	n/a	n/a
110.8861	0.5833	INK	37	Incongruent	niebieski	blue	zielony	green	hit	n/a
111.4591	n/a	RESPONSE	n/a	n/a	n/a	n/a	n/a	n/a	n/a	green
111.4695	1.0	ITI	n/a	n/a	n/a	n/a	n/a	n/a	n/a	n/a
112.4694	0.5	FIXCROSS	n/a	n/a	n/a	n/a	n/a	n/a	n/a	n/a
112.9694	0.3833	INK	38	Incongruent	żółty	yellow	niebieski	blue	hit	n/a
113.3456	n/a	RESPONSE	n/a	n/a	n/a	n/a	n/a	n/a	n/a	blue
113.3528	1.0	ITI	n/a	n/a	n/a	n/a	n/a	n/a	n/a	n/a
114.3527	0.5	FIXCROSS	n/a	n/a	n/a	n/a	n/a	n/a	n/a	n/a
114.8527	0.5166	INK	39	Incongruent	niebieski	blue	zielony	green	hit	n/a
115.36	n/a	RESPONSE	n/a	n/a	n/a	n/a	n/a	n/a	n/a	green
115.3694	1.0	ITI	n/a	n/a	n/a	n/a	n/a	n/a	n/a	n/a
116.3694	0.5	FIXCROSS	n/a	n/a	n/a	n/a	n/a	n/a	n/a	n/a
116.8694	0.5167	INK	40	Neutral	xxxxxxxxx	xxxxxxxxx	żółty	yellow	hit	n/a
117.3742	n/a	RESPONSE	n/a	n/a	n/a	n/a	n/a	n/a	n/a	yellow
117.386	1.0	ITI	n/a	n/a	n/a	n/a	n/a	n/a	n/a	n/a
118.386	0.5	FIXCROSS	n/a	n/a	n/a	n/a	n/a	n/a	n/a	n/a
118.886	0.5	INK	41	Incongruent	niebieski	blue	żółty	yellow	hit	n/a
119.3725	n/a	RESPONSE	n/a	n/a	n/a	n/a	n/a	n/a	n/a	yellow
119.386	1.0	ITI	n/a	n/a	n/a	n/a	n/a	n/a	n/a	n/a
120.386	0.5	FIXCROSS	n/a	n/a	n/a	n/a	n/a	n/a	n/a	n/a
120.886	0.4166	INK	42	Neutral	xxxxxxxxx	xxxxxxxxx	czerwony	red	hit	n/a
121.2911	n/a	RESPONSE	n/a	n/a	n/a	n/a	n/a	n/a	n/a	red
121.3026	1.0	ITI	n/a	n/a	n/a	n/a	n/a	n/a	n/a	n/a
122.3026	0.5	FIXCROSS	n/a	n/a	n/a	n/a	n/a	n/a	n/a	n/a
122.8026	0.45	INK	43	Neutral	xxxxxxx	xxxxxxx	niebieski	blue	hit	n/a
123.2414	n/a	RESPONSE	n/a	n/a	n/a	n/a	n/a	n/a	n/a	blue
123.2526	1.0	ITI	n/a	n/a	n/a	n/a	n/a	n/a	n/a	n/a
124.2526	0.5	FIXCROSS	n/a	n/a	n/a	n/a	n/a	n/a	n/a	n/a
124.7525	0.3667	INK	44	Incongruent	zielony	green	niebieski	blue	hit	n/a
125.1117	n/a	RESPONSE	n/a	n/a	n/a	n/a	n/a	n/a	n/a	blue
125.1192	1.0	ITI	n/a	n/a	n/a	n/a	n/a	n/a	n/a	n/a
126.1192	0.5	FIXCROSS	n/a	n/a	n/a	n/a	n/a	n/a	n/a	n/a
126.6192	0.35	INK	45	Incongruent	żółty	yellow	zielony	green	hit	n/a
126.9502	n/a	RESPONSE	n/a	n/a	n/a	n/a	n/a	n/a	n/a	green
126.9692	1.0	ITI	n/a	n/a	n/a	n/a	n/a	n/a	n/a	n/a
127.9692	0.5	FIXCROSS	n/a	n/a	n/a	n/a	n/a	n/a	n/a	n/a
128.4691	0.3333	INK	46	Incongruent	czerwony	red	żółty	yellow	hit	n/a
128.7888	n/a	RESPONSE	n/a	n/a	n/a	n/a	n/a	n/a	n/a	yellow
128.8025	1.0	ITI	n/a	n/a	n/a	n/a	n/a	n/a	n/a	n/a
129.8025	0.5	FIXCROSS	n/a	n/a	n/a	n/a	n/a	n/a	n/a	n/a
130.3024	0.6667	INK	47	Incongruent	czerwony	red	zielony	green	incorrect	n/a
130.963	n/a	RESPONSE	n/a	n/a	n/a	n/a	n/a	n/a	n/a	blue
130.9691	1.0	ITI	n/a	n/a	n/a	n/a	n/a	n/a	n/a	n/a
131.9691	0.5	FIXCROSS	n/a	n/a	n/a	n/a	n/a	n/a	n/a	n/a
132.4691	0.4833	INK	48	Neutral	xxxxxxxx	xxxxxxxx	zielony	green	hit	n/a
132.9453	n/a	RESPONSE	n/a	n/a	n/a	n/a	n/a	n/a	n/a	green
132.9524	1.0	ITI	n/a	n/a	n/a	n/a	n/a	n/a	n/a	n/a
133.9524	0.5	FIXCROSS	n/a	n/a	n/a	n/a	n/a	n/a	n/a	n/a
134.4524	0.4167	INK	49	Neutral	xxxxx	xxxxx	czerwony	red	hit	n/a
134.8637	n/a	RESPONSE	n/a	n/a	n/a	n/a	n/a	n/a	n/a	red
134.869	1.0	ITI	n/a	n/a	n/a	n/a	n/a	n/a	n/a	n/a
135.869	0.5	FIXCROSS	n/a	n/a	n/a	n/a	n/a	n/a	n/a	n/a
136.369	0.6667	INK	50	Neutral	xxxxxxx	xxxxxxx	żółty	yellow	hit	n/a
137.0219	n/a	RESPONSE	n/a	n/a	n/a	n/a	n/a	n/a	n/a	yellow
137.0357	1.0	ITI	n/a	n/a	n/a	n/a	n/a	n/a	n/a	n/a
138.0356	0.5	FIXCROSS	n/a	n/a	n/a	n/a	n/a	n/a	n/a	n/a
138.5356	0.5167	INK	51	Neutral	xxxxxxxx	xxxxxxxx	niebieski	blue	hit	n/a
139.0361	n/a	RESPONSE	n/a	n/a	n/a	n/a	n/a	n/a	n/a	blue
139.0523	1.0	ITI	n/a	n/a	n/a	n/a	n/a	n/a	n/a	n/a
140.0523	0.5	FIXCROSS	n/a	n/a	n/a	n/a	n/a	n/a	n/a	n/a
140.5523	0.4167	INK	52	Neutral	xxxxx	xxxxx	niebieski	blue	hit	n/a
140.9546	n/a	RESPONSE	n/a	n/a	n/a	n/a	n/a	n/a	n/a	blue
140.9689	1.0	ITI	n/a	n/a	n/a	n/a	n/a	n/a	n/a	n/a
141.9689	0.5	FIXCROSS	n/a	n/a	n/a	n/a	n/a	n/a	n/a	n/a
142.4689	0.3667	INK	53	Incongruent	czerwony	red	niebieski	blue	hit	n/a
142.825	n/a	RESPONSE	n/a	n/a	n/a	n/a	n/a	n/a	n/a	blue
142.8356	1.0	ITI	n/a	n/a	n/a	n/a	n/a	n/a	n/a	n/a
143.8355	0.5	FIXCROSS	n/a	n/a	n/a	n/a	n/a	n/a	n/a	n/a
144.3355	0.4667	INK	54	Incongruent	zielony	green	niebieski	blue	hit	n/a
144.7914	n/a	RESPONSE	n/a	n/a	n/a	n/a	n/a	n/a	n/a	blue
144.8022	1.0	ITI	n/a	n/a	n/a	n/a	n/a	n/a	n/a	n/a
145.8022	0.5	FIXCROSS	n/a	n/a	n/a	n/a	n/a	n/a	n/a	n/a
146.3022	0.4333	INK	55	Neutral	xxxxxxxxx	xxxxxxxxx	żółty	yellow	hit	n/a
146.7257	n/a	RESPONSE	n/a	n/a	n/a	n/a	n/a	n/a	n/a	yellow
146.7355	1.0	ITI	n/a	n/a	n/a	n/a	n/a	n/a	n/a	n/a
147.7355	0.5	FIXCROSS	n/a	n/a	n/a	n/a	n/a	n/a	n/a	n/a
148.2355	0.4666	INK	56	Neutral	xxxxxxxx	xxxxxxxx	żółty	yellow	hit	n/a
148.6921	n/a	RESPONSE	n/a	n/a	n/a	n/a	n/a	n/a	n/a	yellow
148.7021	1.0	ITI	n/a	n/a	n/a	n/a	n/a	n/a	n/a	n/a
149.7021	0.5	FIXCROSS	n/a	n/a	n/a	n/a	n/a	n/a	n/a	n/a
150.2021	0.4333	INK	57	Neutral	xxxxxxxx	xxxxxxxx	żółty	yellow	hit	n/a
150.6266	n/a	RESPONSE	n/a	n/a	n/a	n/a	n/a	n/a	n/a	yellow
150.6354	1.0	ITI	n/a	n/a	n/a	n/a	n/a	n/a	n/a	n/a
151.6354	0.5	FIXCROSS	n/a	n/a	n/a	n/a	n/a	n/a	n/a	n/a
152.1354	0.4833	INK	58	Incongruent	żółty	yellow	czerwony	red	hit	n/a
152.6088	n/a	RESPONSE	n/a	n/a	n/a	n/a	n/a	n/a	n/a	red
152.6187	1.0	ITI	n/a	n/a	n/a	n/a	n/a	n/a	n/a	n/a
153.6187	0.5	FIXCROSS	n/a	n/a	n/a	n/a	n/a	n/a	n/a	n/a
154.1187	0.6	INK	59	Incongruent	czerwony	red	niebieski	blue	hit	n/a
154.7032	n/a	RESPONSE	n/a	n/a	n/a	n/a	n/a	n/a	n/a	blue
154.7187	1.0	ITI	n/a	n/a	n/a	n/a	n/a	n/a	n/a	n/a
155.7187	0.5	FIXCROSS	n/a	n/a	n/a	n/a	n/a	n/a	n/a	n/a
156.2186	0.4833	INK	60	Incongruent	czerwony	red	niebieski	blue	hit	n/a
156.6855	n/a	RESPONSE	n/a	n/a	n/a	n/a	n/a	n/a	n/a	blue
156.702	1.0	ITI	n/a	n/a	n/a	n/a	n/a	n/a	n/a	n/a
157.7019	0.5	FIXCROSS	n/a	n/a	n/a	n/a	n/a	n/a	n/a	n/a
158.2019	0.5833	INK	61	Incongruent	zielony	green	czerwony	red	incorrect	n/a
158.7798	n/a	RESPONSE	n/a	n/a	n/a	n/a	n/a	n/a	n/a	green
158.7853	1.0	ITI	n/a	n/a	n/a	n/a	n/a	n/a	n/a	n/a
159.7852	0.5	FIXCROSS	n/a	n/a	n/a	n/a	n/a	n/a	n/a	n/a
160.2852	0.5167	INK	62	Neutral	xxxxx	xxxxx	niebieski	blue	hit	n/a
160.794	n/a	RESPONSE	n/a	n/a	n/a	n/a	n/a	n/a	n/a	blue
160.8019	1.0	ITI	n/a	n/a	n/a	n/a	n/a	n/a	n/a	n/a
161.8019	0.5	FIXCROSS	n/a	n/a	n/a	n/a	n/a	n/a	n/a	n/a
162.3019	1.1333	INK	63	Incongruent	czerwony	red	zielony	green	hit	n/a
163.4319	n/a	RESPONSE	n/a	n/a	n/a	n/a	n/a	n/a	n/a	green
163.4352	1.0	ITI	n/a	n/a	n/a	n/a	n/a	n/a	n/a	n/a
164.4352	0.5	FIXCROSS	n/a	n/a	n/a	n/a	n/a	n/a	n/a	n/a
164.9351	0.4833	INK	64	Neutral	xxxxxxxx	xxxxxxxx	zielony	green	hit	n/a
165.4143	n/a	RESPONSE	n/a	n/a	n/a	n/a	n/a	n/a	n/a	green
165.4185	1.0	ITI	n/a	n/a	n/a	n/a	n/a	n/a	n/a	n/a
166.4185	0.5	FIXCROSS	n/a	n/a	n/a	n/a	n/a	n/a	n/a	n/a
166.9185	0.4667	INK	65	Incongruent	żółty	yellow	niebieski	blue	hit	n/a
167.3806	n/a	RESPONSE	n/a	n/a	n/a	n/a	n/a	n/a	n/a	blue
167.3851	1.0	ITI	n/a	n/a	n/a	n/a	n/a	n/a	n/a	n/a
168.3851	0.5	FIXCROSS	n/a	n/a	n/a	n/a	n/a	n/a	n/a	n/a
168.8851	0.4167	INK	66	Incongruent	niebieski	blue	czerwony	red	hit	n/a
169.2829	n/a	RESPONSE	n/a	n/a	n/a	n/a	n/a	n/a	n/a	red
169.3017	1.0	ITI	n/a	n/a	n/a	n/a	n/a	n/a	n/a	n/a
170.3017	0.5	FIXCROSS	n/a	n/a	n/a	n/a	n/a	n/a	n/a	n/a
170.8017	0.45	INK	67	Neutral	xxxxxxx	xxxxxxx	żółty	yellow	hit	n/a
171.2335	n/a	RESPONSE	n/a	n/a	n/a	n/a	n/a	n/a	n/a	yellow
171.2517	1.0	ITI	n/a	n/a	n/a	n/a	n/a	n/a	n/a	n/a
172.2517	0.5	FIXCROSS	n/a	n/a	n/a	n/a	n/a	n/a	n/a	n/a
172.7517	0.3833	INK	68	Incongruent	zielony	green	niebieski	blue	hit	n/a
173.1198	n/a	RESPONSE	n/a	n/a	n/a	n/a	n/a	n/a	n/a	blue
173.135	1.0	ITI	n/a	n/a	n/a	n/a	n/a	n/a	n/a	n/a
174.135	0.5	FIXCROSS	n/a	n/a	n/a	n/a	n/a	n/a	n/a	n/a
174.635	0.55	INK	69	Neutral	xxxxxxxx	xxxxxxxx	niebieski	blue	hit	n/a
175.166	n/a	RESPONSE	n/a	n/a	n/a	n/a	n/a	n/a	n/a	blue
175.185	1.0	ITI	n/a	n/a	n/a	n/a	n/a	n/a	n/a	n/a
176.185	0.5	FIXCROSS	n/a	n/a	n/a	n/a	n/a	n/a	n/a	n/a
176.6849	0.4833	INK	70	Neutral	xxxxxxx	xxxxxxx	żółty	yellow	hit	n/a
177.1644	n/a	RESPONSE	n/a	n/a	n/a	n/a	n/a	n/a	n/a	yellow
177.1683	1.0	ITI	n/a	n/a	n/a	n/a	n/a	n/a	n/a	n/a
178.1682	0.5	FIXCROSS	n/a	n/a	n/a	n/a	n/a	n/a	n/a	n/a
178.6682	0.3167	INK	71	Incongruent	niebieski	blue	czerwony	red	hit	n/a
178.9709	n/a	RESPONSE	n/a	n/a	n/a	n/a	n/a	n/a	n/a	red
178.9849	1.0	ITI	n/a	n/a	n/a	n/a	n/a	n/a	n/a	n/a
179.9849	0.5	FIXCROSS	n/a	n/a	n/a	n/a	n/a	n/a	n/a	n/a
180.4849	0.3833	INK	72	Incongruent	czerwony	red	żółty	yellow	hit	n/a
180.8574	n/a	RESPONSE	n/a	n/a	n/a	n/a	n/a	n/a	n/a	yellow
180.8682	1.0333	ITI	n/a	n/a	n/a	n/a	n/a	n/a	n/a	n/a
201.8318	n/a	RESPONSE	n/a	n/a	n/a	n/a	n/a	n/a	n/a	n/a
201.8678	1.0	ITI	n/a	n/a	n/a	n/a	n/a	n/a	n/a	n/a
202.8678	0.5	FIXCROSS	n/a	n/a	n/a	n/a	n/a	n/a	n/a	n/a
203.3678	0.6667	T_COLOR_NAME	1	Incongruent	niebieski	blue	żółty	yellow	hit	n/a
204.022	n/a	RESPONSE	n/a	n/a	n/a	n/a	n/a	n/a	n/a	blue
204.0344	0.5	FEEDBACK	n/a	n/a	n/a	n/a	n/a	n/a	n/a	n/a
204.5344	1.0	ITI	n/a	n/a	n/a	n/a	n/a	n/a	n/a	n/a
205.5344	0.5	FIXCROSS	n/a	n/a	n/a	n/a	n/a	n/a	n/a	n/a
206.0344	0.5167	T_COLOR_NAME	2	Neutral	zielony	green	Neutral	Neutral	hit	n/a
206.5318	n/a	RESPONSE	n/a	n/a	n/a	n/a	n/a	n/a	n/a	green
206.551	0.5	FEEDBACK	n/a	n/a	n/a	n/a	n/a	n/a	n/a	n/a
207.051	1.0	ITI	n/a	n/a	n/a	n/a	n/a	n/a	n/a	n/a
208.051	0.5	FIXCROSS	n/a	n/a	n/a	n/a	n/a	n/a	n/a	n/a
208.551	0.5667	T_COLOR_NAME	3	Neutral	niebieski	blue	Neutral	Neutral	hit	n/a
209.1057	n/a	RESPONSE	n/a	n/a	n/a	n/a	n/a	n/a	n/a	blue
209.1177	0.5	FEEDBACK	n/a	n/a	n/a	n/a	n/a	n/a	n/a	n/a
209.6177	1.0	ITI	n/a	n/a	n/a	n/a	n/a	n/a	n/a	n/a
210.6176	0.5	FIXCROSS	n/a	n/a	n/a	n/a	n/a	n/a	n/a	n/a
211.1176	0.5	T_COLOR_NAME	4	Neutral	żółty	yellow	Neutral	Neutral	hit	n/a
211.5997	n/a	RESPONSE	n/a	n/a	n/a	n/a	n/a	n/a	n/a	yellow
211.6176	0.5	FEEDBACK	n/a	n/a	n/a	n/a	n/a	n/a	n/a	n/a
212.1176	1.0	ITI	n/a	n/a	n/a	n/a	n/a	n/a	n/a	n/a
213.1176	0.5	FIXCROSS	n/a	n/a	n/a	n/a	n/a	n/a	n/a	n/a
213.6176	0.8	T_COLOR_NAME	5	Incongruent	żółty	yellow	czerwony	red	hit	n/a
214.4133	n/a	RESPONSE	n/a	n/a	n/a	n/a	n/a	n/a	n/a	yellow
214.4176	0.5	FEEDBACK	n/a	n/a	n/a	n/a	n/a	n/a	n/a	n/a
214.9176	1.0	ITI	n/a	n/a	n/a	n/a	n/a	n/a	n/a	n/a
215.9175	0.5	FIXCROSS	n/a	n/a	n/a	n/a	n/a	n/a	n/a	n/a
216.4175	0.4833	T_COLOR_NAME	6	Neutral	czerwony	red	Neutral	Neutral	hit	n/a
216.8911	n/a	RESPONSE	n/a	n/a	n/a	n/a	n/a	n/a	n/a	red
216.9009	0.5	FEEDBACK	n/a	n/a	n/a	n/a	n/a	n/a	n/a	n/a
217.4009	1.0	ITI	n/a	n/a	n/a	n/a	n/a	n/a	n/a	n/a
218.4008	0.5	FIXCROSS	n/a	n/a	n/a	n/a	n/a	n/a	n/a	n/a
218.9008	0.6167	T_COLOR_NAME	7	Neutral	zielony	green	Neutral	Neutral	hit	n/a
219.4971	n/a	RESPONSE	n/a	n/a	n/a	n/a	n/a	n/a	n/a	green
219.5175	0.5	FEEDBACK	n/a	n/a	n/a	n/a	n/a	n/a	n/a	n/a
220.0175	1.0	ITI	n/a	n/a	n/a	n/a	n/a	n/a	n/a	n/a
221.0175	0.5	FIXCROSS	n/a	n/a	n/a	n/a	n/a	n/a	n/a	n/a
221.5174	0.5833	T_COLOR_NAME	8	Neutral	niebieski	blue	Neutral	Neutral	hit	n/a
222.0868	n/a	RESPONSE	n/a	n/a	n/a	n/a	n/a	n/a	n/a	blue
222.1008	0.5	FEEDBACK	n/a	n/a	n/a	n/a	n/a	n/a	n/a	n/a
222.6008	1.0	ITI	n/a	n/a	n/a	n/a	n/a	n/a	n/a	n/a
223.6007	0.5	FIXCROSS	n/a	n/a	n/a	n/a	n/a	n/a	n/a	n/a
224.1007	0.8833	T_COLOR_NAME	9	Incongruent	żółty	yellow	zielony	green	hit	n/a
224.9645	n/a	RESPONSE	n/a	n/a	n/a	n/a	n/a	n/a	n/a	yellow
224.984	0.5	FEEDBACK	n/a	n/a	n/a	n/a	n/a	n/a	n/a	n/a
225.484	1.0	ITI	n/a	n/a	n/a	n/a	n/a	n/a	n/a	n/a
226.484	0.5	FIXCROSS	n/a	n/a	n/a	n/a	n/a	n/a	n/a	n/a
226.984	0.5167	T_COLOR_NAME	10	Neutral	niebieski	blue	Neutral	Neutral	hit	n/a
227.4903	n/a	RESPONSE	n/a	n/a	n/a	n/a	n/a	n/a	n/a	blue
227.5007	0.5	FEEDBACK	n/a	n/a	n/a	n/a	n/a	n/a	n/a	n/a
228.0007	1.0	ITI	n/a	n/a	n/a	n/a	n/a	n/a	n/a	n/a
229.0006	0.5	FIXCROSS	n/a	n/a	n/a	n/a	n/a	n/a	n/a	n/a
229.5006	1.0833	T_COLOR_NAME	11	Incongruent	zielony	green	czerwony	red	hit	n/a
230.5758	n/a	RESPONSE	n/a	n/a	n/a	n/a	n/a	n/a	n/a	green
230.5839	0.5	FEEDBACK	n/a	n/a	n/a	n/a	n/a	n/a	n/a	n/a
231.0839	1.0	ITI	n/a	n/a	n/a	n/a	n/a	n/a	n/a	n/a
232.0839	0.5	FIXCROSS	n/a	n/a	n/a	n/a	n/a	n/a	n/a	n/a
232.5839	0.6333	T_COLOR_NAME	12	Incongruent	żółty	yellow	niebieski	blue	hit	n/a
233.1977	n/a	RESPONSE	n/a	n/a	n/a	n/a	n/a	n/a	n/a	yellow
233.2172	0.5	FEEDBACK	n/a	n/a	n/a	n/a	n/a	n/a	n/a	n/a
233.7172	1.0	ITI	n/a	n/a	n/a	n/a	n/a	n/a	n/a	n/a
235.7395	n/a	RESPONSE	n/a	n/a	n/a	n/a	n/a	n/a	n/a	n/a
235.7672	1.0	ITI	n/a	n/a	n/a	n/a	n/a	n/a	n/a	n/a
236.7672	0.5	FIXCROSS	n/a	n/a	n/a	n/a	n/a	n/a	n/a	n/a
237.2672	1.2166	COLOR_NAME	1	Incongruent	czerwony	red	żółty	yellow	hit	n/a
238.4733	n/a	RESPONSE	n/a	n/a	n/a	n/a	n/a	n/a	n/a	red
238.4838	1.0	ITI	n/a	n/a	n/a	n/a	n/a	n/a	n/a	n/a
239.4838	0.5	FIXCROSS	n/a	n/a	n/a	n/a	n/a	n/a	n/a	n/a
239.9838	0.5166	COLOR_NAME	2	Incongruent	żółty	yellow	zielony	green	hit	n/a
240.4875	n/a	RESPONSE	n/a	n/a	n/a	n/a	n/a	n/a	n/a	yellow
240.5004	1.0	ITI	n/a	n/a	n/a	n/a	n/a	n/a	n/a	n/a
241.5004	0.5	FIXCROSS	n/a	n/a	n/a	n/a	n/a	n/a	n/a	n/a
242.0004	0.4667	COLOR_NAME	3	Incongruent	niebieski	blue	żółty	yellow	hit	n/a
242.454	n/a	RESPONSE	n/a	n/a	n/a	n/a	n/a	n/a	n/a	blue
242.4671	1.0	ITI	n/a	n/a	n/a	n/a	n/a	n/a	n/a	n/a
243.467	0.5	FIXCROSS	n/a	n/a	n/a	n/a	n/a	n/a	n/a	n/a
243.967	0.6	COLOR_NAME	4	Neutral	niebieski	blue	Neutral	Neutral	hit	n/a
244.5641	n/a	RESPONSE	n/a	n/a	n/a	n/a	n/a	n/a	n/a	blue
244.567	1.0	ITI	n/a	n/a	n/a	n/a	n/a	n/a	n/a	n/a
245.567	0.5	FIXCROSS	n/a	n/a	n/a	n/a	n/a	n/a	n/a	n/a
246.067	0.4833	COLOR_NAME	5	Neutral	zielony	green	Neutral	Neutral	hit	n/a
246.5465	n/a	RESPONSE	n/a	n/a	n/a	n/a	n/a	n/a	n/a	green
246.5503	1.0	ITI	n/a	n/a	n/a	n/a	n/a	n/a	n/a	n/a
247.5503	0.5	FIXCROSS	n/a	n/a	n/a	n/a	n/a	n/a	n/a	n/a
248.0503	0.6167	COLOR_NAME	6	Incongruent	niebieski	blue	czerwony	red	hit	n/a
248.6567	n/a	RESPONSE	n/a	n/a	n/a	n/a	n/a	n/a	n/a	blue
248.6669	1.0	ITI	n/a	n/a	n/a	n/a	n/a	n/a	n/a	n/a
249.6669	0.5	FIXCROSS	n/a	n/a	n/a	n/a	n/a	n/a	n/a	n/a
250.1669	0.5333	COLOR_NAME	7	Neutral	zielony	green	Neutral	Neutral	hit	n/a
250.6871	n/a	RESPONSE	n/a	n/a	n/a	n/a	n/a	n/a	n/a	green
250.7002	1.0	ITI	n/a	n/a	n/a	n/a	n/a	n/a	n/a	n/a
251.7002	0.5	FIXCROSS	n/a	n/a	n/a	n/a	n/a	n/a	n/a	n/a
252.2002	0.5333	COLOR_NAME	8	Incongruent	żółty	yellow	niebieski	blue	incorrect	n/a
252.7173	n/a	RESPONSE	n/a	n/a	n/a	n/a	n/a	n/a	n/a	green
252.7335	1.0	ITI	n/a	n/a	n/a	n/a	n/a	n/a	n/a	n/a
253.7335	0.5	FIXCROSS	n/a	n/a	n/a	n/a	n/a	n/a	n/a	n/a
254.2335	0.8166	COLOR_NAME	9	Incongruent	zielony	green	czerwony	red	hit	n/a
255.0354	n/a	RESPONSE	n/a	n/a	n/a	n/a	n/a	n/a	n/a	green
255.0502	1.0	ITI	n/a	n/a	n/a	n/a	n/a	n/a	n/a	n/a
256.0501	0.5	FIXCROSS	n/a	n/a	n/a	n/a	n/a	n/a	n/a	n/a
256.5501	0.5667	COLOR_NAME	10	Incongruent	niebieski	blue	zielony	green	hit	n/a
257.1135	n/a	RESPONSE	n/a	n/a	n/a	n/a	n/a	n/a	n/a	blue
257.1168	1.0	ITI	n/a	n/a	n/a	n/a	n/a	n/a	n/a	n/a
258.1168	0.5	FIXCROSS	n/a	n/a	n/a	n/a	n/a	n/a	n/a	n/a
258.6168	0.55	COLOR_NAME	11	Incongruent	czerwony	red	zielony	green	hit	n/a
259.1599	n/a	RESPONSE	n/a	n/a	n/a	n/a	n/a	n/a	n/a	red
259.1668	1.0	ITI	n/a	n/a	n/a	n/a	n/a	n/a	n/a	n/a
260.1667	0.5	FIXCROSS	n/a	n/a	n/a	n/a	n/a	n/a	n/a	n/a
260.6667	0.5	COLOR_NAME	12	Incongruent	czerwony	red	żółty	yellow	hit	n/a
261.1581	n/a	RESPONSE	n/a	n/a	n/a	n/a	n/a	n/a	n/a	red
261.1667	1.0	ITI	n/a	n/a	n/a	n/a	n/a	n/a	n/a	n/a
262.1667	0.5	FIXCROSS	n/a	n/a	n/a	n/a	n/a	n/a	n/a	n/a
262.6667	0.6167	COLOR_NAME	13	Neutral	niebieski	blue	Neutral	Neutral	incorrect	n/a
263.2684	n/a	RESPONSE	n/a	n/a	n/a	n/a	n/a	n/a	n/a	green
263.2833	1.0	ITI	n/a	n/a	n/a	n/a	n/a	n/a	n/a	n/a
264.2833	0.5	FIXCROSS	n/a	n/a	n/a	n/a	n/a	n/a	n/a	n/a
264.7833	0.6	COLOR_NAME	14	Incongruent	niebieski	blue	żółty	yellow	hit	n/a
265.3787	n/a	RESPONSE	n/a	n/a	n/a	n/a	n/a	n/a	n/a	blue
265.3833	1.0	ITI	n/a	n/a	n/a	n/a	n/a	n/a	n/a	n/a
266.3833	0.5	FIXCROSS	n/a	n/a	n/a	n/a	n/a	n/a	n/a	n/a
266.8833	0.6833	COLOR_NAME	15	Neutral	czerwony	red	Neutral	Neutral	hit	n/a
267.5528	n/a	RESPONSE	n/a	n/a	n/a	n/a	n/a	n/a	n/a	red
267.5666	1.0	ITI	n/a	n/a	n/a	n/a	n/a	n/a	n/a	n/a
268.5666	0.5	FIXCROSS	n/a	n/a	n/a	n/a	n/a	n/a	n/a	n/a
269.0666	0.6333	COLOR_NAME	16	Neutral	czerwony	red	Neutral	Neutral	hit	n/a
269.695	n/a	RESPONSE	n/a	n/a	n/a	n/a	n/a	n/a	n/a	red
269.6999	1.0	ITI	n/a	n/a	n/a	n/a	n/a	n/a	n/a	n/a
270.6999	0.5	FIXCROSS	n/a	n/a	n/a	n/a	n/a	n/a	n/a	n/a
271.1999	0.45	COLOR_NAME	17	Incongruent	żółty	yellow	zielony	green	hit	n/a
271.6454	n/a	RESPONSE	n/a	n/a	n/a	n/a	n/a	n/a	n/a	yellow
271.6499	1.0	ITI	n/a	n/a	n/a	n/a	n/a	n/a	n/a	n/a
272.6498	0.5	FIXCROSS	n/a	n/a	n/a	n/a	n/a	n/a	n/a	n/a
273.1498	0.6166	COLOR_NAME	18	Incongruent	niebieski	blue	czerwony	red	hit	n/a
273.7556	n/a	RESPONSE	n/a	n/a	n/a	n/a	n/a	n/a	n/a	blue
273.7665	1.0	ITI	n/a	n/a	n/a	n/a	n/a	n/a	n/a	n/a
274.7665	0.5	FIXCROSS	n/a	n/a	n/a	n/a	n/a	n/a	n/a	n/a
275.2665	0.5333	COLOR_NAME	19	Incongruent	niebieski	blue	zielony	green	hit	n/a
275.786	n/a	RESPONSE	n/a	n/a	n/a	n/a	n/a	n/a	n/a	blue
275.7998	1.0	ITI	n/a	n/a	n/a	n/a	n/a	n/a	n/a	n/a
276.7998	0.5	FIXCROSS	n/a	n/a	n/a	n/a	n/a	n/a	n/a	n/a
277.2998	0.6833	COLOR_NAME	20	Neutral	zielony	green	Neutral	Neutral	hit	n/a
277.9761	n/a	RESPONSE	n/a	n/a	n/a	n/a	n/a	n/a	n/a	green
277.9831	1.0	ITI	n/a	n/a	n/a	n/a	n/a	n/a	n/a	n/a
278.9831	0.5	FIXCROSS	n/a	n/a	n/a	n/a	n/a	n/a	n/a	n/a
279.483	0.5167	COLOR_NAME	21	Neutral	żółty	yellow	Neutral	Neutral	hit	n/a
279.9904	n/a	RESPONSE	n/a	n/a	n/a	n/a	n/a	n/a	n/a	yellow
279.9997	1.0	ITI	n/a	n/a	n/a	n/a	n/a	n/a	n/a	n/a
280.9997	0.5	FIXCROSS	n/a	n/a	n/a	n/a	n/a	n/a	n/a	n/a
281.4997	0.5	COLOR_NAME	22	Neutral	żółty	yellow	Neutral	Neutral	hit	n/a
281.9888	n/a	RESPONSE	n/a	n/a	n/a	n/a	n/a	n/a	n/a	yellow
281.9997	1.0	ITI	n/a	n/a	n/a	n/a	n/a	n/a	n/a	n/a
282.9996	0.5	FIXCROSS	n/a	n/a	n/a	n/a	n/a	n/a	n/a	n/a
283.4996	0.7166	COLOR_NAME	23	Incongruent	zielony	green	żółty	yellow	hit	n/a
284.2109	n/a	RESPONSE	n/a	n/a	n/a	n/a	n/a	n/a	n/a	green
284.2163	1.0	ITI	n/a	n/a	n/a	n/a	n/a	n/a	n/a	n/a
285.2163	0.5	FIXCROSS	n/a	n/a	n/a	n/a	n/a	n/a	n/a	n/a
285.7163	0.4167	COLOR_NAME	24	Neutral	niebieski	blue	Neutral	Neutral	hit	n/a
286.1293	n/a	RESPONSE	n/a	n/a	n/a	n/a	n/a	n/a	n/a	blue
286.1329	1.0	ITI	n/a	n/a	n/a	n/a	n/a	n/a	n/a	n/a
287.1329	0.5	FIXCROSS	n/a	n/a	n/a	n/a	n/a	n/a	n/a	n/a
287.6329	0.5667	COLOR_NAME	25	Incongruent	zielony	green	czerwony	red	hit	n/a
288.1917	n/a	RESPONSE	n/a	n/a	n/a	n/a	n/a	n/a	n/a	green
288.1996	1.0	ITI	n/a	n/a	n/a	n/a	n/a	n/a	n/a	n/a
289.1995	0.5	FIXCROSS	n/a	n/a	n/a	n/a	n/a	n/a	n/a	n/a
289.6995	0.7167	COLOR_NAME	26	Neutral	niebieski	blue	Neutral	Neutral	hit	n/a
290.3978	n/a	RESPONSE	n/a	n/a	n/a	n/a	n/a	n/a	n/a	blue
290.4162	1.0	ITI	n/a	n/a	n/a	n/a	n/a	n/a	n/a	n/a
291.4162	0.5	FIXCROSS	n/a	n/a	n/a	n/a	n/a	n/a	n/a	n/a
291.9162	0.6167	COLOR_NAME	27	Incongruent	czerwony	red	niebieski	blue	hit	n/a
292.524	n/a	RESPONSE	n/a	n/a	n/a	n/a	n/a	n/a	n/a	red
292.5328	1.0	ITI	n/a	n/a	n/a	n/a	n/a	n/a	n/a	n/a
293.5328	0.5	FIXCROSS	n/a	n/a	n/a	n/a	n/a	n/a	n/a	n/a
294.0328	0.4166	COLOR_NAME	28	Neutral	żółty	yellow	Neutral	Neutral	hit	n/a
294.4424	n/a	RESPONSE	n/a	n/a	n/a	n/a	n/a	n/a	n/a	yellow
294.4494	1.0	ITI	n/a	n/a	n/a	n/a	n/a	n/a	n/a	n/a
295.4494	0.5	FIXCROSS	n/a	n/a	n/a	n/a	n/a	n/a	n/a	n/a
295.9494	0.5667	COLOR_NAME	29	Neutral	czerwony	red	Neutral	Neutral	hit	n/a
296.5046	n/a	RESPONSE	n/a	n/a	n/a	n/a	n/a	n/a	n/a	red
296.5161	1.0	ITI	n/a	n/a	n/a	n/a	n/a	n/a	n/a	n/a
297.516	0.5	FIXCROSS	n/a	n/a	n/a	n/a	n/a	n/a	n/a	n/a
298.016	0.6167	COLOR_NAME	30	Incongruent	czerwony	red	niebieski	blue	hit	n/a
298.6149	n/a	RESPONSE	n/a	n/a	n/a	n/a	n/a	n/a	n/a	red
298.6327	1.0	ITI	n/a	n/a	n/a	n/a	n/a	n/a	n/a	n/a
299.6327	0.5	FIXCROSS	n/a	n/a	n/a	n/a	n/a	n/a	n/a	n/a
300.1327	0.5167	COLOR_NAME	31	Incongruent	czerwony	red	zielony	green	hit	n/a
300.6452	n/a	RESPONSE	n/a	n/a	n/a	n/a	n/a	n/a	n/a	red
300.6493	1.0	ITI	n/a	n/a	n/a	n/a	n/a	n/a	n/a	n/a
301.6493	0.5	FIXCROSS	n/a	n/a	n/a	n/a	n/a	n/a	n/a	n/a
302.1493	0.4833	COLOR_NAME	32	Incongruent	żółty	yellow	niebieski	blue	hit	n/a
302.6275	n/a	RESPONSE	n/a	n/a	n/a	n/a	n/a	n/a	n/a	yellow
302.6326	1.0	ITI	n/a	n/a	n/a	n/a	n/a	n/a	n/a	n/a
303.6326	0.5	FIXCROSS	n/a	n/a	n/a	n/a	n/a	n/a	n/a	n/a
304.1326	0.9333	COLOR_NAME	33	Neutral	zielony	green	Neutral	Neutral	hit	n/a
305.0576	n/a	RESPONSE	n/a	n/a	n/a	n/a	n/a	n/a	n/a	green
305.0659	1.0	ITI	n/a	n/a	n/a	n/a	n/a	n/a	n/a	n/a
306.0659	0.5	FIXCROSS	n/a	n/a	n/a	n/a	n/a	n/a	n/a	n/a
306.5659	0.4667	COLOR_NAME	34	Neutral	żółty	yellow	Neutral	Neutral	hit	n/a
307.0239	n/a	RESPONSE	n/a	n/a	n/a	n/a	n/a	n/a	n/a	yellow
307.0325	1.0	ITI	n/a	n/a	n/a	n/a	n/a	n/a	n/a	n/a
308.0325	0.5	FIXCROSS	n/a	n/a	n/a	n/a	n/a	n/a	n/a	n/a
308.5325	0.7	COLOR_NAME	35	Neutral	niebieski	blue	Neutral	Neutral	hit	n/a
309.214	n/a	RESPONSE	n/a	n/a	n/a	n/a	n/a	n/a	n/a	blue
309.2325	1.0	ITI	n/a	n/a	n/a	n/a	n/a	n/a	n/a	n/a
310.2325	0.5	FIXCROSS	n/a	n/a	n/a	n/a	n/a	n/a	n/a	n/a
310.7325	0.6833	COLOR_NAME	36	Incongruent	zielony	green	żółty	yellow	hit	n/a
311.4042	n/a	RESPONSE	n/a	n/a	n/a	n/a	n/a	n/a	n/a	green
311.4158	1.0	ITI	n/a	n/a	n/a	n/a	n/a	n/a	n/a	n/a
312.4158	0.5	FIXCROSS	n/a	n/a	n/a	n/a	n/a	n/a	n/a	n/a
312.9158	0.65	COLOR_NAME	37	Incongruent	niebieski	blue	czerwony	red	hit	n/a
313.5625	n/a	RESPONSE	n/a	n/a	n/a	n/a	n/a	n/a	n/a	blue
313.5657	1.0	ITI	n/a	n/a	n/a	n/a	n/a	n/a	n/a	n/a
314.5657	0.5	FIXCROSS	n/a	n/a	n/a	n/a	n/a	n/a	n/a	n/a
315.0657	0.65	COLOR_NAME	38	Neutral	zielony	green	Neutral	Neutral	hit	n/a
315.7046	n/a	RESPONSE	n/a	n/a	n/a	n/a	n/a	n/a	n/a	green
315.7157	1.0	ITI	n/a	n/a	n/a	n/a	n/a	n/a	n/a	n/a
316.7157	0.5	FIXCROSS	n/a	n/a	n/a	n/a	n/a	n/a	n/a	n/a
317.2157	0.5167	COLOR_NAME	39	Incongruent	zielony	green	niebieski	blue	hit	n/a
317.719	n/a	RESPONSE	n/a	n/a	n/a	n/a	n/a	n/a	n/a	green
317.7323	1.0	ITI	n/a	n/a	n/a	n/a	n/a	n/a	n/a	n/a
318.7323	0.5	FIXCROSS	n/a	n/a	n/a	n/a	n/a	n/a	n/a	n/a
319.2323	0.5167	COLOR_NAME	40	Neutral	żółty	yellow	Neutral	Neutral	hit	n/a
319.7333	n/a	RESPONSE	n/a	n/a	n/a	n/a	n/a	n/a	n/a	yellow
319.749	1.0	ITI	n/a	n/a	n/a	n/a	n/a	n/a	n/a	n/a
320.749	0.5	FIXCROSS	n/a	n/a	n/a	n/a	n/a	n/a	n/a	n/a
321.2489	0.55	COLOR_NAME	41	Neutral	zielony	green	Neutral	Neutral	hit	n/a
321.7796	n/a	RESPONSE	n/a	n/a	n/a	n/a	n/a	n/a	n/a	green
321.7989	1.0	ITI	n/a	n/a	n/a	n/a	n/a	n/a	n/a	n/a
322.7989	0.5	FIXCROSS	n/a	n/a	n/a	n/a	n/a	n/a	n/a	n/a
323.2989	0.5167	COLOR_NAME	42	Incongruent	czerwony	red	niebieski	blue	hit	n/a
323.81	n/a	RESPONSE	n/a	n/a	n/a	n/a	n/a	n/a	n/a	red
323.8156	1.0	ITI	n/a	n/a	n/a	n/a	n/a	n/a	n/a	n/a
323.8259	n/a	RESPONSE	n/a	n/a	n/a	n/a	n/a	n/a	n/a	blue
324.8156	0.5	FIXCROSS	n/a	n/a	n/a	n/a	n/a	n/a	n/a	n/a
325.3155	0.5167	COLOR_NAME	43	Neutral	żółty	yellow	Neutral	Neutral	hit	n/a
325.8243	n/a	RESPONSE	n/a	n/a	n/a	n/a	n/a	n/a	n/a	yellow
325.8322	1.0	ITI	n/a	n/a	n/a	n/a	n/a	n/a	n/a	n/a
326.8322	0.5	FIXCROSS	n/a	n/a	n/a	n/a	n/a	n/a	n/a	n/a
327.3322	0.65	COLOR_NAME	44	Incongruent	zielony	green	niebieski	blue	hit	n/a
327.9664	n/a	RESPONSE	n/a	n/a	n/a	n/a	n/a	n/a	n/a	green
327.9822	1.0	ITI	n/a	n/a	n/a	n/a	n/a	n/a	n/a	n/a
328.9821	0.5	FIXCROSS	n/a	n/a	n/a	n/a	n/a	n/a	n/a	n/a
329.4821	0.5667	COLOR_NAME	45	Incongruent	zielony	green	niebieski	blue	hit	n/a
330.0448	n/a	RESPONSE	n/a	n/a	n/a	n/a	n/a	n/a	n/a	green
330.0488	1.0	ITI	n/a	n/a	n/a	n/a	n/a	n/a	n/a	n/a
331.0488	0.5	FIXCROSS	n/a	n/a	n/a	n/a	n/a	n/a	n/a	n/a
331.5488	0.5333	COLOR_NAME	46	Incongruent	czerwony	red	zielony	green	hit	n/a
332.075	n/a	RESPONSE	n/a	n/a	n/a	n/a	n/a	n/a	n/a	red
332.0821	1.0	ITI	n/a	n/a	n/a	n/a	n/a	n/a	n/a	n/a
333.0821	0.5	FIXCROSS	n/a	n/a	n/a	n/a	n/a	n/a	n/a	n/a
333.5821	0.7167	COLOR_NAME	47	Neutral	zielony	green	Neutral	Neutral	hit	n/a
334.2812	n/a	RESPONSE	n/a	n/a	n/a	n/a	n/a	n/a	n/a	green
334.2987	1.0	ITI	n/a	n/a	n/a	n/a	n/a	n/a	n/a	n/a
335.2987	0.5	FIXCROSS	n/a	n/a	n/a	n/a	n/a	n/a	n/a	n/a
335.7987	0.5667	COLOR_NAME	48	Incongruent	zielony	green	czerwony	red	hit	n/a
336.3595	n/a	RESPONSE	n/a	n/a	n/a	n/a	n/a	n/a	n/a	green
336.3653	1.0	ITI	n/a	n/a	n/a	n/a	n/a	n/a	n/a	n/a
337.3653	0.5	FIXCROSS	n/a	n/a	n/a	n/a	n/a	n/a	n/a	n/a
337.8653	0.5833	COLOR_NAME	49	Incongruent	żółty	yellow	zielony	green	hit	n/a
338.4377	n/a	RESPONSE	n/a	n/a	n/a	n/a	n/a	n/a	n/a	yellow
338.4486	1.0	ITI	n/a	n/a	n/a	n/a	n/a	n/a	n/a	n/a
339.4486	0.5	FIXCROSS	n/a	n/a	n/a	n/a	n/a	n/a	n/a	n/a
339.9486	0.6	COLOR_NAME	50	Neutral	zielony	green	Neutral	Neutral	hit	n/a
340.532	n/a	RESPONSE	n/a	n/a	n/a	n/a	n/a	n/a	n/a	green
340.5486	1.0	ITI	n/a	n/a	n/a	n/a	n/a	n/a	n/a	n/a
341.5486	0.5	FIXCROSS	n/a	n/a	n/a	n/a	n/a	n/a	n/a	n/a
342.0486	0.45	COLOR_NAME	51	Neutral	zielony	green	Neutral	Neutral	hit	n/a
342.4823	n/a	RESPONSE	n/a	n/a	n/a	n/a	n/a	n/a	n/a	green
342.4986	1.0	ITI	n/a	n/a	n/a	n/a	n/a	n/a	n/a	n/a
343.4985	0.5	FIXCROSS	n/a	n/a	n/a	n/a	n/a	n/a	n/a	n/a
343.9985	0.5333	COLOR_NAME	52	Neutral	żółty	yellow	Neutral	Neutral	hit	n/a
344.5286	n/a	RESPONSE	n/a	n/a	n/a	n/a	n/a	n/a	n/a	yellow
344.5318	1.0	ITI	n/a	n/a	n/a	n/a	n/a	n/a	n/a	n/a
345.5318	0.5	FIXCROSS	n/a	n/a	n/a	n/a	n/a	n/a	n/a	n/a
346.0318	0.4167	COLOR_NAME	53	Neutral	czerwony	red	Neutral	Neutral	hit	n/a
346.431	n/a	RESPONSE	n/a	n/a	n/a	n/a	n/a	n/a	n/a	red
346.4485	1.0	ITI	n/a	n/a	n/a	n/a	n/a	n/a	n/a	n/a
347.4485	0.5	FIXCROSS	n/a	n/a	n/a	n/a	n/a	n/a	n/a	n/a
347.9485	0.5	COLOR_NAME	54	Neutral	niebieski	blue	Neutral	Neutral	hit	n/a
348.4294	n/a	RESPONSE	n/a	n/a	n/a	n/a	n/a	n/a	n/a	blue
348.4484	1.0	ITI	n/a	n/a	n/a	n/a	n/a	n/a	n/a	n/a
349.4484	0.5	FIXCROSS	n/a	n/a	n/a	n/a	n/a	n/a	n/a	n/a
349.9484	0.5167	COLOR_NAME	55	Incongruent	czerwony	red	żółty	yellow	hit	n/a
350.4596	n/a	RESPONSE	n/a	n/a	n/a	n/a	n/a	n/a	n/a	red
350.4651	1.0	ITI	n/a	n/a	n/a	n/a	n/a	n/a	n/a	n/a
351.4651	0.5	FIXCROSS	n/a	n/a	n/a	n/a	n/a	n/a	n/a	n/a
351.965	0.6	COLOR_NAME	56	Neutral	czerwony	red	Neutral	Neutral	hit	n/a
352.5539	n/a	RESPONSE	n/a	n/a	n/a	n/a	n/a	n/a	n/a	red
352.565	1.0	ITI	n/a	n/a	n/a	n/a	n/a	n/a	n/a	n/a
353.565	0.5	FIXCROSS	n/a	n/a	n/a	n/a	n/a	n/a	n/a	n/a
354.065	0.4666	COLOR_NAME	57	Incongruent	żółty	yellow	czerwony	red	hit	n/a
354.5202	n/a	RESPONSE	n/a	n/a	n/a	n/a	n/a	n/a	n/a	yellow
354.5317	1.0	ITI	n/a	n/a	n/a	n/a	n/a	n/a	n/a	n/a
355.5317	0.5	FIXCROSS	n/a	n/a	n/a	n/a	n/a	n/a	n/a	n/a
356.0316	0.6	COLOR_NAME	58	Neutral	czerwony	red	Neutral	Neutral	hit	n/a
356.6144	n/a	RESPONSE	n/a	n/a	n/a	n/a	n/a	n/a	n/a	red
356.6316	1.0	ITI	n/a	n/a	n/a	n/a	n/a	n/a	n/a	n/a
357.6316	0.5	FIXCROSS	n/a	n/a	n/a	n/a	n/a	n/a	n/a	n/a
358.1316	0.5166	COLOR_NAME	59	Neutral	czerwony	red	Neutral	Neutral	hit	n/a
358.6448	n/a	RESPONSE	n/a	n/a	n/a	n/a	n/a	n/a	n/a	red
358.6483	1.0	ITI	n/a	n/a	n/a	n/a	n/a	n/a	n/a	n/a
359.6482	0.5	FIXCROSS	n/a	n/a	n/a	n/a	n/a	n/a	n/a	n/a
360.1482	0.4833	COLOR_NAME	60	Neutral	czerwony	red	Neutral	Neutral	hit	n/a
360.6272	n/a	RESPONSE	n/a	n/a	n/a	n/a	n/a	n/a	n/a	red
360.6316	1.0	ITI	n/a	n/a	n/a	n/a	n/a	n/a	n/a	n/a
361.6315	0.5	FIXCROSS	n/a	n/a	n/a	n/a	n/a	n/a	n/a	n/a
362.1315	0.4667	COLOR_NAME	61	Neutral	żółty	yellow	Neutral	Neutral	hit	n/a
362.5936	n/a	RESPONSE	n/a	n/a	n/a	n/a	n/a	n/a	n/a	yellow
362.5982	1.0	ITI	n/a	n/a	n/a	n/a	n/a	n/a	n/a	n/a
363.5982	0.5	FIXCROSS	n/a	n/a	n/a	n/a	n/a	n/a	n/a	n/a
364.0982	0.4166	COLOR_NAME	62	Neutral	niebieski	blue	Neutral	Neutral	incorrect	n/a
364.5119	n/a	RESPONSE	n/a	n/a	n/a	n/a	n/a	n/a	n/a	red
364.5148	1.0	ITI	n/a	n/a	n/a	n/a	n/a	n/a	n/a	n/a
365.5148	0.5	FIXCROSS	n/a	n/a	n/a	n/a	n/a	n/a	n/a	n/a
366.0148	0.5333	COLOR_NAME	63	Neutral	niebieski	blue	Neutral	Neutral	hit	n/a
366.5423	n/a	RESPONSE	n/a	n/a	n/a	n/a	n/a	n/a	n/a	blue
366.5481	1.0	ITI	n/a	n/a	n/a	n/a	n/a	n/a	n/a	n/a
367.5481	0.5	FIXCROSS	n/a	n/a	n/a	n/a	n/a	n/a	n/a	n/a
368.0481	0.6167	COLOR_NAME	64	Incongruent	żółty	yellow	niebieski	blue	hit	n/a
368.6525	n/a	RESPONSE	n/a	n/a	n/a	n/a	n/a	n/a	n/a	yellow
368.6647	1.0	ITI	n/a	n/a	n/a	n/a	n/a	n/a	n/a	n/a
369.6647	0.5	FIXCROSS	n/a	n/a	n/a	n/a	n/a	n/a	n/a	n/a
370.1647	0.4167	COLOR_NAME	65	Neutral	niebieski	blue	Neutral	Neutral	hit	n/a
370.5709	n/a	RESPONSE	n/a	n/a	n/a	n/a	n/a	n/a	n/a	blue
370.5814	1.0	ITI	n/a	n/a	n/a	n/a	n/a	n/a	n/a	n/a
371.5814	0.5	FIXCROSS	n/a	n/a	n/a	n/a	n/a	n/a	n/a	n/a
372.0813	0.4167	COLOR_NAME	66	Incongruent	żółty	yellow	czerwony	red	hit	n/a
372.4893	n/a	RESPONSE	n/a	n/a	n/a	n/a	n/a	n/a	n/a	yellow
372.498	1.0	ITI	n/a	n/a	n/a	n/a	n/a	n/a	n/a	n/a
373.498	0.5	FIXCROSS	n/a	n/a	n/a	n/a	n/a	n/a	n/a	n/a
373.998	0.45	COLOR_NAME	67	Incongruent	niebieski	blue	zielony	green	hit	n/a
374.4397	n/a	RESPONSE	n/a	n/a	n/a	n/a	n/a	n/a	n/a	blue
374.448	1.0	ITI	n/a	n/a	n/a	n/a	n/a	n/a	n/a	n/a
375.448	0.5	FIXCROSS	n/a	n/a	n/a	n/a	n/a	n/a	n/a	n/a
375.9479	0.4667	COLOR_NAME	68	Incongruent	żółty	yellow	czerwony	red	hit	n/a
376.406	n/a	RESPONSE	n/a	n/a	n/a	n/a	n/a	n/a	n/a	yellow
376.4146	1.0	ITI	n/a	n/a	n/a	n/a	n/a	n/a	n/a	n/a
377.4146	0.5	FIXCROSS	n/a	n/a	n/a	n/a	n/a	n/a	n/a	n/a
377.9146	0.6667	COLOR_NAME	69	Incongruent	zielony	green	żółty	yellow	hit	n/a
378.5642	n/a	RESPONSE	n/a	n/a	n/a	n/a	n/a	n/a	n/a	green
378.5812	1.0	ITI	n/a	n/a	n/a	n/a	n/a	n/a	n/a	n/a
379.5812	0.5	FIXCROSS	n/a	n/a	n/a	n/a	n/a	n/a	n/a	n/a
380.0812	0.4833	COLOR_NAME	70	Neutral	żółty	yellow	Neutral	Neutral	hit	n/a
380.5465	n/a	RESPONSE	n/a	n/a	n/a	n/a	n/a	n/a	n/a	yellow
380.5645	1.0	ITI	n/a	n/a	n/a	n/a	n/a	n/a	n/a	n/a
381.5645	0.5	FIXCROSS	n/a	n/a	n/a	n/a	n/a	n/a	n/a	n/a
382.0645	0.5167	COLOR_NAME	71	Neutral	czerwony	red	Neutral	Neutral	hit	n/a
382.5769	n/a	RESPONSE	n/a	n/a	n/a	n/a	n/a	n/a	n/a	red
382.5811	1.0	ITI	n/a	n/a	n/a	n/a	n/a	n/a	n/a	n/a
383.5811	0.5	FIXCROSS	n/a	n/a	n/a	n/a	n/a	n/a	n/a	n/a
384.0811	0.9333	COLOR_NAME	72	Incongruent	niebieski	blue	żółty	yellow	hit	n/a
385.0069	n/a	RESPONSE	n/a	n/a	n/a	n/a	n/a	n/a	n/a	blue
385.0144	1.0166	ITI	n/a	n/a	n/a	n/a	n/a	n/a	n/a	n/a
387.4847	n/a	RESPONSE	n/a	n/a	n/a	n/a	n/a	n/a	n/a	n/a
