onset	duration	trial_type	trial_number	stroop_condition	stim_text(PL)	stim_text(eng)	stim_color(PL)	stim_color(eng)	response_type	response_color
0.0	n/a	RESPONSE	n/a	n/a	n/a	n/a	n/a	n/a	n/a	n/a
0.029	1.0167	ITI	n/a	n/a	n/a	n/a	n/a	n/a	n/a	n/a
1.0456	0.5	FIXCROSS	n/a	n/a	n/a	n/a	n/a	n/a	n/a	n/a
1.5457	0.6667	T_INK	1	Neutral	xxxxxxxxx	xxxxxxxxx	żółty	yellow	hit	n/a
2.2039	n/a	RESPONSE	n/a	n/a	n/a	n/a	n/a	n/a	n/a	yellow
2.2123	0.5	FEEDBACK	n/a	n/a	n/a	n/a	n/a	n/a	n/a	n/a
2.7123	1.0	ITI	n/a	n/a	n/a	n/a	n/a	n/a	n/a	n/a
3.7123	0.5	FIXCROSS	n/a	n/a	n/a	n/a	n/a	n/a	n/a	n/a
4.2123	0.4167	T_INK	2	Incongruent	zielony	green	żółty	yellow	hit	n/a
4.6152	n/a	RESPONSE	n/a	n/a	n/a	n/a	n/a	n/a	n/a	yellow
4.629	0.5	FEEDBACK	n/a	n/a	n/a	n/a	n/a	n/a	n/a	n/a
5.129	1.0167	ITI	n/a	n/a	n/a	n/a	n/a	n/a	n/a	n/a
6.1457	0.5	FIXCROSS	n/a	n/a	n/a	n/a	n/a	n/a	n/a	n/a
6.6457	0.5333	T_INK	3	Incongruent	żółty	yellow	zielony	green	hit	n/a
7.1703	n/a	RESPONSE	n/a	n/a	n/a	n/a	n/a	n/a	n/a	green
7.1791	0.5	FEEDBACK	n/a	n/a	n/a	n/a	n/a	n/a	n/a	n/a
7.6791	1.0	ITI	n/a	n/a	n/a	n/a	n/a	n/a	n/a	n/a
8.6791	0.5	FIXCROSS	n/a	n/a	n/a	n/a	n/a	n/a	n/a	n/a
9.1791	0.4833	T_INK	4	Incongruent	niebieski	blue	żółty	yellow	hit	n/a
9.6457	n/a	RESPONSE	n/a	n/a	n/a	n/a	n/a	n/a	n/a	yellow
9.6624	0.5	FEEDBACK	n/a	n/a	n/a	n/a	n/a	n/a	n/a	n/a
10.1624	1.0	ITI	n/a	n/a	n/a	n/a	n/a	n/a	n/a	n/a
11.1624	0.5	FIXCROSS	n/a	n/a	n/a	n/a	n/a	n/a	n/a	n/a
11.6625	0.4333	T_INK	5	Incongruent	czerwony	red	żółty	yellow	hit	n/a
12.089	n/a	RESPONSE	n/a	n/a	n/a	n/a	n/a	n/a	n/a	yellow
12.0958	0.5	FEEDBACK	n/a	n/a	n/a	n/a	n/a	n/a	n/a	n/a
12.5958	1.0	ITI	n/a	n/a	n/a	n/a	n/a	n/a	n/a	n/a
13.5958	0.5	FIXCROSS	n/a	n/a	n/a	n/a	n/a	n/a	n/a	n/a
14.0958	0.6333	T_INK	6	Neutral	xxxxxxxxx	xxxxxxxxx	zielony	green	hit	n/a
14.724	n/a	RESPONSE	n/a	n/a	n/a	n/a	n/a	n/a	n/a	green
14.7291	0.5	FEEDBACK	n/a	n/a	n/a	n/a	n/a	n/a	n/a	n/a
15.2292	1.0	ITI	n/a	n/a	n/a	n/a	n/a	n/a	n/a	n/a
16.2292	0.5	FIXCROSS	n/a	n/a	n/a	n/a	n/a	n/a	n/a	n/a
16.7292	0.4167	T_INK	7	Neutral	xxxxxxxx	xxxxxxxx	niebieski	blue	hit	n/a
17.1355	n/a	RESPONSE	n/a	n/a	n/a	n/a	n/a	n/a	n/a	blue
17.1459	0.5	FEEDBACK	n/a	n/a	n/a	n/a	n/a	n/a	n/a	n/a
17.6459	1.0	ITI	n/a	n/a	n/a	n/a	n/a	n/a	n/a	n/a
18.6459	0.5	FIXCROSS	n/a	n/a	n/a	n/a	n/a	n/a	n/a	n/a
19.1459	0.4	T_INK	8	Neutral	xxxxxxxxx	xxxxxxxxx	czerwony	red	hit	n/a
19.5309	n/a	RESPONSE	n/a	n/a	n/a	n/a	n/a	n/a	n/a	red
19.5459	0.5	FEEDBACK	n/a	n/a	n/a	n/a	n/a	n/a	n/a	n/a
20.0459	1.0	ITI	n/a	n/a	n/a	n/a	n/a	n/a	n/a	n/a
21.0459	0.5	FIXCROSS	n/a	n/a	n/a	n/a	n/a	n/a	n/a	n/a
21.5459	0.65	T_INK	9	Neutral	xxxxx	xxxxx	zielony	green	hit	n/a
22.1818	n/a	RESPONSE	n/a	n/a	n/a	n/a	n/a	n/a	n/a	green
22.1959	0.5	FEEDBACK	n/a	n/a	n/a	n/a	n/a	n/a	n/a	n/a
22.6959	1.0	ITI	n/a	n/a	n/a	n/a	n/a	n/a	n/a	n/a
23.6959	0.5	FIXCROSS	n/a	n/a	n/a	n/a	n/a	n/a	n/a	n/a
24.1959	0.5	T_INK	10	Neutral	xxxxx	xxxxx	niebieski	blue	hit	n/a
24.689	n/a	RESPONSE	n/a	n/a	n/a	n/a	n/a	n/a	n/a	blue
24.6959	0.5	FEEDBACK	n/a	n/a	n/a	n/a	n/a	n/a	n/a	n/a
25.196	1.0	ITI	n/a	n/a	n/a	n/a	n/a	n/a	n/a	n/a
26.196	0.5	FIXCROSS	n/a	n/a	n/a	n/a	n/a	n/a	n/a	n/a
26.696	0.3833	T_INK	11	Incongruent	czerwony	red	niebieski	blue	hit	n/a
27.0687	n/a	RESPONSE	n/a	n/a	n/a	n/a	n/a	n/a	n/a	blue
27.0793	0.5	FEEDBACK	n/a	n/a	n/a	n/a	n/a	n/a	n/a	n/a
27.5793	1.0333	ITI	n/a	n/a	n/a	n/a	n/a	n/a	n/a	n/a
28.6127	0.5333	FIXCROSS	n/a	n/a	n/a	n/a	n/a	n/a	n/a	n/a
29.146	0.55	T_INK	12	Neutral	xxxxxxxx	xxxxxxxx	zielony	green	hit	n/a
29.6556	n/a	RESPONSE	n/a	n/a	n/a	n/a	n/a	n/a	n/a	green
29.696	0.5333	FEEDBACK	n/a	n/a	n/a	n/a	n/a	n/a	n/a	n/a
30.2293	1.05	ITI	n/a	n/a	n/a	n/a	n/a	n/a	n/a	n/a
36.7142	n/a	RESPONSE	n/a	n/a	n/a	n/a	n/a	n/a	n/a	n/a
36.7794	1.0333	ITI	n/a	n/a	n/a	n/a	n/a	n/a	n/a	n/a
37.8128	0.5334	FIXCROSS	n/a	n/a	n/a	n/a	n/a	n/a	n/a	n/a
38.3461	0.6167	INK	1	Incongruent	żółty	yellow	zielony	green	hit	n/a
38.934	n/a	RESPONSE	n/a	n/a	n/a	n/a	n/a	n/a	n/a	green
38.9628	1.0334	ITI	n/a	n/a	n/a	n/a	n/a	n/a	n/a	n/a
39.9961	0.5333	FIXCROSS	n/a	n/a	n/a	n/a	n/a	n/a	n/a	n/a
40.5295	0.5	INK	2	Incongruent	niebieski	blue	żółty	yellow	hit	n/a
40.9941	n/a	RESPONSE	n/a	n/a	n/a	n/a	n/a	n/a	n/a	yellow
41.0295	1.0334	ITI	n/a	n/a	n/a	n/a	n/a	n/a	n/a	n/a
42.0628	0.5333	FIXCROSS	n/a	n/a	n/a	n/a	n/a	n/a	n/a	n/a
42.5962	0.4833	INK	3	Incongruent	żółty	yellow	niebieski	blue	hit	n/a
43.0382	n/a	RESPONSE	n/a	n/a	n/a	n/a	n/a	n/a	n/a	blue
43.0795	1.0333	ITI	n/a	n/a	n/a	n/a	n/a	n/a	n/a	n/a
44.1129	0.5334	FIXCROSS	n/a	n/a	n/a	n/a	n/a	n/a	n/a	n/a
44.6462	0.5	INK	4	Incongruent	żółty	yellow	niebieski	blue	hit	n/a
45.1143	n/a	RESPONSE	n/a	n/a	n/a	n/a	n/a	n/a	n/a	blue
45.1462	1.0333	ITI	n/a	n/a	n/a	n/a	n/a	n/a	n/a	n/a
46.1796	0.5333	FIXCROSS	n/a	n/a	n/a	n/a	n/a	n/a	n/a	n/a
46.7129	0.4	INK	5	Incongruent	czerwony	red	niebieski	blue	hit	n/a
47.0785	n/a	RESPONSE	n/a	n/a	n/a	n/a	n/a	n/a	n/a	blue
47.1129	1.0333	ITI	n/a	n/a	n/a	n/a	n/a	n/a	n/a	n/a
48.1462	0.5333	FIXCROSS	n/a	n/a	n/a	n/a	n/a	n/a	n/a	n/a
48.6796	0.35	INK	6	Neutral	xxxxx	xxxxx	niebieski	blue	hit	n/a
48.9949	n/a	RESPONSE	n/a	n/a	n/a	n/a	n/a	n/a	n/a	blue
49.0296	1.0333	ITI	n/a	n/a	n/a	n/a	n/a	n/a	n/a	n/a
50.0629	0.5333	FIXCROSS	n/a	n/a	n/a	n/a	n/a	n/a	n/a	n/a
50.5963	0.5167	INK	7	Neutral	xxxxx	xxxxx	czerwony	red	hit	n/a
51.0709	n/a	RESPONSE	n/a	n/a	n/a	n/a	n/a	n/a	n/a	red
51.113	1.0333	ITI	n/a	n/a	n/a	n/a	n/a	n/a	n/a	n/a
52.1463	0.5333	FIXCROSS	n/a	n/a	n/a	n/a	n/a	n/a	n/a	n/a
52.6796	0.4	INK	8	Incongruent	zielony	green	czerwony	red	hit	n/a
53.0512	n/a	RESPONSE	n/a	n/a	n/a	n/a	n/a	n/a	n/a	red
53.0796	1.0333	ITI	n/a	n/a	n/a	n/a	n/a	n/a	n/a	n/a
54.113	0.5333	FIXCROSS	n/a	n/a	n/a	n/a	n/a	n/a	n/a	n/a
54.6463	0.35	INK	9	Neutral	xxxxxxxxx	xxxxxxxxx	czerwony	red	hit	n/a
54.9676	n/a	RESPONSE	n/a	n/a	n/a	n/a	n/a	n/a	n/a	red
54.9963	1.0334	ITI	n/a	n/a	n/a	n/a	n/a	n/a	n/a	n/a
56.0297	0.5333	FIXCROSS	n/a	n/a	n/a	n/a	n/a	n/a	n/a	n/a
56.563	0.3833	INK	10	Incongruent	zielony	green	żółty	yellow	hit	n/a
56.9158	n/a	RESPONSE	n/a	n/a	n/a	n/a	n/a	n/a	n/a	yellow
56.9464	1.0333	ITI	n/a	n/a	n/a	n/a	n/a	n/a	n/a	n/a
56.9957	n/a	RESPONSE	n/a	n/a	n/a	n/a	n/a	n/a	n/a	yellow
57.9797	0.5333	FIXCROSS	n/a	n/a	n/a	n/a	n/a	n/a	n/a	n/a
58.5131	0.5167	INK	11	Neutral	xxxxxxx	xxxxxxx	czerwony	red	incorrect	n/a
58.9919	n/a	RESPONSE	n/a	n/a	n/a	n/a	n/a	n/a	n/a	blue
59.0297	1.0334	ITI	n/a	n/a	n/a	n/a	n/a	n/a	n/a	n/a
60.0631	0.5333	FIXCROSS	n/a	n/a	n/a	n/a	n/a	n/a	n/a	n/a
60.5964	0.45	INK	12	Neutral	xxxxxxx	xxxxxxx	żółty	yellow	hit	n/a
61.004	n/a	RESPONSE	n/a	n/a	n/a	n/a	n/a	n/a	n/a	yellow
61.0464	1.0334	ITI	n/a	n/a	n/a	n/a	n/a	n/a	n/a	n/a
62.0798	0.5333	FIXCROSS	n/a	n/a	n/a	n/a	n/a	n/a	n/a	n/a
62.6131	0.45	INK	13	Neutral	xxxxxxxxx	xxxxxxxxx	zielony	green	hit	n/a
63.0322	n/a	RESPONSE	n/a	n/a	n/a	n/a	n/a	n/a	n/a	green
63.0631	1.0333	ITI	n/a	n/a	n/a	n/a	n/a	n/a	n/a	n/a
64.0965	0.5333	FIXCROSS	n/a	n/a	n/a	n/a	n/a	n/a	n/a	n/a
64.6298	0.5667	INK	14	Neutral	xxxxxxxx	xxxxxxxx	zielony	green	hit	n/a
65.1563	n/a	RESPONSE	n/a	n/a	n/a	n/a	n/a	n/a	n/a	green
65.1965	1.0334	ITI	n/a	n/a	n/a	n/a	n/a	n/a	n/a	n/a
66.2298	0.5333	FIXCROSS	n/a	n/a	n/a	n/a	n/a	n/a	n/a	n/a
66.7632	0.5167	INK	15	Neutral	xxxxxxxx	xxxxxxxx	żółty	yellow	hit	n/a
67.2482	n/a	RESPONSE	n/a	n/a	n/a	n/a	n/a	n/a	n/a	yellow
67.2798	1.0334	ITI	n/a	n/a	n/a	n/a	n/a	n/a	n/a	n/a
68.3132	0.5333	FIXCROSS	n/a	n/a	n/a	n/a	n/a	n/a	n/a	n/a
68.8465	0.3833	INK	16	Incongruent	czerwony	red	żółty	yellow	hit	n/a
69.1966	n/a	RESPONSE	n/a	n/a	n/a	n/a	n/a	n/a	n/a	yellow
69.2299	1.0333	ITI	n/a	n/a	n/a	n/a	n/a	n/a	n/a	n/a
70.2632	0.5334	FIXCROSS	n/a	n/a	n/a	n/a	n/a	n/a	n/a	n/a
70.7965	0.4	INK	17	Neutral	xxxxx	xxxxx	czerwony	red	hit	n/a
71.1608	n/a	RESPONSE	n/a	n/a	n/a	n/a	n/a	n/a	n/a	red
71.1966	1.0333	ITI	n/a	n/a	n/a	n/a	n/a	n/a	n/a	n/a
72.2299	0.5333	FIXCROSS	n/a	n/a	n/a	n/a	n/a	n/a	n/a	n/a
72.7632	0.4333	INK	18	Neutral	xxxxxxxxx	xxxxxxxxx	czerwony	red	hit	n/a
73.1571	n/a	RESPONSE	n/a	n/a	n/a	n/a	n/a	n/a	n/a	red
73.1966	1.0333	ITI	n/a	n/a	n/a	n/a	n/a	n/a	n/a	n/a
74.2299	0.5333	FIXCROSS	n/a	n/a	n/a	n/a	n/a	n/a	n/a	n/a
74.7633	0.55	INK	19	Incongruent	czerwony	red	zielony	green	hit	n/a
75.2809	n/a	RESPONSE	n/a	n/a	n/a	n/a	n/a	n/a	n/a	green
75.3133	1.0334	ITI	n/a	n/a	n/a	n/a	n/a	n/a	n/a	n/a
76.3466	0.5333	FIXCROSS	n/a	n/a	n/a	n/a	n/a	n/a	n/a	n/a
76.88	0.5167	INK	20	Neutral	xxxxxxxx	xxxxxxxx	żółty	yellow	hit	n/a
77.357	n/a	RESPONSE	n/a	n/a	n/a	n/a	n/a	n/a	n/a	yellow
77.3966	1.0334	ITI	n/a	n/a	n/a	n/a	n/a	n/a	n/a	n/a
78.43	0.5333	FIXCROSS	n/a	n/a	n/a	n/a	n/a	n/a	n/a	n/a
78.9633	0.3833	INK	21	Neutral	xxxxxxxxx	xxxxxxxxx	żółty	yellow	hit	n/a
79.3052	n/a	RESPONSE	n/a	n/a	n/a	n/a	n/a	n/a	n/a	yellow
79.3466	1.0334	ITI	n/a	n/a	n/a	n/a	n/a	n/a	n/a	n/a
80.38	0.5333	FIXCROSS	n/a	n/a	n/a	n/a	n/a	n/a	n/a	n/a
80.9133	0.4333	INK	22	Incongruent	czerwony	red	zielony	green	hit	n/a
81.3175	n/a	RESPONSE	n/a	n/a	n/a	n/a	n/a	n/a	n/a	green
81.3467	1.0333	ITI	n/a	n/a	n/a	n/a	n/a	n/a	n/a	n/a
82.38	0.5334	FIXCROSS	n/a	n/a	n/a	n/a	n/a	n/a	n/a	n/a
82.9134	0.4667	INK	23	Incongruent	niebieski	blue	czerwony	red	hit	n/a
83.3456	n/a	RESPONSE	n/a	n/a	n/a	n/a	n/a	n/a	n/a	red
83.38	1.0333	ITI	n/a	n/a	n/a	n/a	n/a	n/a	n/a	n/a
84.4134	0.5333	FIXCROSS	n/a	n/a	n/a	n/a	n/a	n/a	n/a	n/a
84.9467	0.5	INK	24	Neutral	xxxxxxxxx	xxxxxxxxx	żółty	yellow	hit	n/a
85.4057	n/a	RESPONSE	n/a	n/a	n/a	n/a	n/a	n/a	n/a	yellow
85.4467	1.0333	ITI	n/a	n/a	n/a	n/a	n/a	n/a	n/a	n/a
86.4801	0.5333	FIXCROSS	n/a	n/a	n/a	n/a	n/a	n/a	n/a	n/a
87.0134	0.45	INK	25	Neutral	xxxxxxxxx	xxxxxxxxx	czerwony	red	hit	n/a
87.418	n/a	RESPONSE	n/a	n/a	n/a	n/a	n/a	n/a	n/a	red
87.4634	1.0333	ITI	n/a	n/a	n/a	n/a	n/a	n/a	n/a	n/a
88.4968	0.5333	FIXCROSS	n/a	n/a	n/a	n/a	n/a	n/a	n/a	n/a
89.0301	0.5	INK	26	Neutral	xxxxx	xxxxx	zielony	green	hit	n/a
89.4939	n/a	RESPONSE	n/a	n/a	n/a	n/a	n/a	n/a	n/a	green
89.5301	1.0333	ITI	n/a	n/a	n/a	n/a	n/a	n/a	n/a	n/a
90.5635	0.5333	FIXCROSS	n/a	n/a	n/a	n/a	n/a	n/a	n/a	n/a
91.0968	0.4667	INK	27	Incongruent	niebieski	blue	żółty	yellow	hit	n/a
91.5222	n/a	RESPONSE	n/a	n/a	n/a	n/a	n/a	n/a	n/a	yellow
91.5635	1.0333	ITI	n/a	n/a	n/a	n/a	n/a	n/a	n/a	n/a
92.5968	0.5334	FIXCROSS	n/a	n/a	n/a	n/a	n/a	n/a	n/a	n/a
93.1302	0.45	INK	28	Incongruent	zielony	green	żółty	yellow	hit	n/a
93.5503	n/a	RESPONSE	n/a	n/a	n/a	n/a	n/a	n/a	n/a	yellow
93.5802	1.0333	ITI	n/a	n/a	n/a	n/a	n/a	n/a	n/a	n/a
94.6135	0.5333	FIXCROSS	n/a	n/a	n/a	n/a	n/a	n/a	n/a	n/a
95.1468	0.3667	INK	29	Incongruent	czerwony	red	żółty	yellow	hit	n/a
95.4827	n/a	RESPONSE	n/a	n/a	n/a	n/a	n/a	n/a	n/a	yellow
95.5135	1.0333	ITI	n/a	n/a	n/a	n/a	n/a	n/a	n/a	n/a
95.6423	n/a	RESPONSE	n/a	n/a	n/a	n/a	n/a	n/a	n/a	yellow
96.5469	0.5333	FIXCROSS	n/a	n/a	n/a	n/a	n/a	n/a	n/a	n/a
97.0802	0.4167	INK	30	Incongruent	żółty	yellow	czerwony	red	hit	n/a
97.4629	n/a	RESPONSE	n/a	n/a	n/a	n/a	n/a	n/a	n/a	red
97.4969	1.0334	ITI	n/a	n/a	n/a	n/a	n/a	n/a	n/a	n/a
98.5302	0.5333	FIXCROSS	n/a	n/a	n/a	n/a	n/a	n/a	n/a	n/a
99.0636	0.4667	INK	31	Neutral	xxxxx	xxxxx	zielony	green	hit	n/a
99.4911	n/a	RESPONSE	n/a	n/a	n/a	n/a	n/a	n/a	n/a	green
99.5302	1.0333	ITI	n/a	n/a	n/a	n/a	n/a	n/a	n/a	n/a
100.5636	0.5334	FIXCROSS	n/a	n/a	n/a	n/a	n/a	n/a	n/a	n/a
101.0969	0.4167	INK	32	Neutral	xxxxxxx	xxxxxxx	żółty	yellow	hit	n/a
101.4712	n/a	RESPONSE	n/a	n/a	n/a	n/a	n/a	n/a	n/a	yellow
101.5136	1.0333	ITI	n/a	n/a	n/a	n/a	n/a	n/a	n/a	n/a
102.5469	0.5333	FIXCROSS	n/a	n/a	n/a	n/a	n/a	n/a	n/a	n/a
103.0803	0.5	INK	33	Neutral	xxxxxxx	xxxxxxx	niebieski	blue	hit	n/a
103.5473	n/a	RESPONSE	n/a	n/a	n/a	n/a	n/a	n/a	n/a	blue
103.5803	1.0333	ITI	n/a	n/a	n/a	n/a	n/a	n/a	n/a	n/a
104.6136	0.5333	FIXCROSS	n/a	n/a	n/a	n/a	n/a	n/a	n/a	n/a
105.147	0.5333	INK	34	Incongruent	żółty	yellow	czerwony	red	hit	n/a
105.6393	n/a	RESPONSE	n/a	n/a	n/a	n/a	n/a	n/a	n/a	red
105.6803	1.0333	ITI	n/a	n/a	n/a	n/a	n/a	n/a	n/a	n/a
106.7137	0.5333	FIXCROSS	n/a	n/a	n/a	n/a	n/a	n/a	n/a	n/a
107.247	0.5	INK	35	Incongruent	czerwony	red	żółty	yellow	hit	n/a
107.6994	n/a	RESPONSE	n/a	n/a	n/a	n/a	n/a	n/a	n/a	yellow
107.747	1.0334	ITI	n/a	n/a	n/a	n/a	n/a	n/a	n/a	n/a
108.7804	0.5333	FIXCROSS	n/a	n/a	n/a	n/a	n/a	n/a	n/a	n/a
109.3137	0.45	INK	36	Incongruent	czerwony	red	zielony	green	hit	n/a
109.7275	n/a	RESPONSE	n/a	n/a	n/a	n/a	n/a	n/a	n/a	green
109.7637	1.0334	ITI	n/a	n/a	n/a	n/a	n/a	n/a	n/a	n/a
110.797	0.5333	FIXCROSS	n/a	n/a	n/a	n/a	n/a	n/a	n/a	n/a
111.3304	0.4833	INK	37	Neutral	xxxxxxx	xxxxxxx	niebieski	blue	hit	n/a
111.7717	n/a	RESPONSE	n/a	n/a	n/a	n/a	n/a	n/a	n/a	blue
111.8137	1.0333	ITI	n/a	n/a	n/a	n/a	n/a	n/a	n/a	n/a
112.8471	0.5333	FIXCROSS	n/a	n/a	n/a	n/a	n/a	n/a	n/a	n/a
113.3804	0.4167	INK	38	Neutral	xxxxx	xxxxx	czerwony	red	hit	n/a
113.7679	n/a	RESPONSE	n/a	n/a	n/a	n/a	n/a	n/a	n/a	red
113.7971	1.0333	ITI	n/a	n/a	n/a	n/a	n/a	n/a	n/a	n/a
114.8304	0.5333	FIXCROSS	n/a	n/a	n/a	n/a	n/a	n/a	n/a	n/a
115.3638	0.4333	INK	39	Incongruent	zielony	green	czerwony	red	hit	n/a
115.7641	n/a	RESPONSE	n/a	n/a	n/a	n/a	n/a	n/a	n/a	red
115.7971	1.0333	ITI	n/a	n/a	n/a	n/a	n/a	n/a	n/a	n/a
116.8305	0.5333	FIXCROSS	n/a	n/a	n/a	n/a	n/a	n/a	n/a	n/a
117.3638	0.3667	INK	40	Incongruent	czerwony	red	niebieski	blue	hit	n/a
117.6964	n/a	RESPONSE	n/a	n/a	n/a	n/a	n/a	n/a	n/a	blue
117.7305	1.0334	ITI	n/a	n/a	n/a	n/a	n/a	n/a	n/a	n/a
118.7638	0.5333	FIXCROSS	n/a	n/a	n/a	n/a	n/a	n/a	n/a	n/a
119.2971	0.6667	INK	41	Incongruent	niebieski	blue	zielony	green	incorrect	n/a
119.9322	n/a	RESPONSE	n/a	n/a	n/a	n/a	n/a	n/a	n/a	yellow
119.9638	1.0334	ITI	n/a	n/a	n/a	n/a	n/a	n/a	n/a	n/a
120.9972	0.5333	FIXCROSS	n/a	n/a	n/a	n/a	n/a	n/a	n/a	n/a
121.5305	0.65	INK	42	Incongruent	niebieski	blue	czerwony	red	hit	n/a
122.1519	n/a	RESPONSE	n/a	n/a	n/a	n/a	n/a	n/a	n/a	red
122.1805	1.0333	ITI	n/a	n/a	n/a	n/a	n/a	n/a	n/a	n/a
123.2139	0.5333	FIXCROSS	n/a	n/a	n/a	n/a	n/a	n/a	n/a	n/a
123.7472	0.45	INK	43	Neutral	xxxxxxx	xxxxxxx	czerwony	red	hit	n/a
124.1641	n/a	RESPONSE	n/a	n/a	n/a	n/a	n/a	n/a	n/a	red
124.1972	1.0334	ITI	n/a	n/a	n/a	n/a	n/a	n/a	n/a	n/a
125.2306	0.5333	FIXCROSS	n/a	n/a	n/a	n/a	n/a	n/a	n/a	n/a
125.7639	0.5	INK	44	Incongruent	zielony	green	żółty	yellow	hit	n/a
126.2242	n/a	RESPONSE	n/a	n/a	n/a	n/a	n/a	n/a	n/a	yellow
126.2639	1.0334	ITI	n/a	n/a	n/a	n/a	n/a	n/a	n/a	n/a
127.2973	0.5333	FIXCROSS	n/a	n/a	n/a	n/a	n/a	n/a	n/a	n/a
127.8306	0.4167	INK	45	Neutral	xxxxx	xxxxx	zielony	green	hit	n/a
128.2044	n/a	RESPONSE	n/a	n/a	n/a	n/a	n/a	n/a	n/a	green
128.2473	1.0334	ITI	n/a	n/a	n/a	n/a	n/a	n/a	n/a	n/a
129.2806	0.5333	FIXCROSS	n/a	n/a	n/a	n/a	n/a	n/a	n/a	n/a
129.814	0.4667	INK	46	Neutral	xxxxx	xxxxx	niebieski	blue	hit	n/a
130.2485	n/a	RESPONSE	n/a	n/a	n/a	n/a	n/a	n/a	n/a	blue
130.2806	1.0333	ITI	n/a	n/a	n/a	n/a	n/a	n/a	n/a	n/a
131.314	0.5334	FIXCROSS	n/a	n/a	n/a	n/a	n/a	n/a	n/a	n/a
131.8473	0.5167	INK	47	Incongruent	zielony	green	czerwony	red	hit	n/a
132.3246	n/a	RESPONSE	n/a	n/a	n/a	n/a	n/a	n/a	n/a	red
132.364	1.0333	ITI	n/a	n/a	n/a	n/a	n/a	n/a	n/a	n/a
133.3973	0.5333	FIXCROSS	n/a	n/a	n/a	n/a	n/a	n/a	n/a	n/a
133.9307	0.8667	INK	48	Incongruent	zielony	green	niebieski	blue	hit	n/a
134.768	n/a	RESPONSE	n/a	n/a	n/a	n/a	n/a	n/a	n/a	blue
134.7973	1.0334	ITI	n/a	n/a	n/a	n/a	n/a	n/a	n/a	n/a
135.8307	0.5333	FIXCROSS	n/a	n/a	n/a	n/a	n/a	n/a	n/a	n/a
136.364	0.5	INK	49	Incongruent	niebieski	blue	zielony	green	hit	n/a
136.8281	n/a	RESPONSE	n/a	n/a	n/a	n/a	n/a	n/a	n/a	green
136.864	1.0334	ITI	n/a	n/a	n/a	n/a	n/a	n/a	n/a	n/a
137.8974	0.5333	FIXCROSS	n/a	n/a	n/a	n/a	n/a	n/a	n/a	n/a
138.4307	0.4833	INK	50	Incongruent	zielony	green	niebieski	blue	hit	n/a
138.8722	n/a	RESPONSE	n/a	n/a	n/a	n/a	n/a	n/a	n/a	blue
138.9141	1.0333	ITI	n/a	n/a	n/a	n/a	n/a	n/a	n/a	n/a
139.9474	0.5333	FIXCROSS	n/a	n/a	n/a	n/a	n/a	n/a	n/a	n/a
140.4807	0.55	INK	51	Neutral	xxxxxxxxx	xxxxxxxxx	żółty	yellow	hit	n/a
140.9962	n/a	RESPONSE	n/a	n/a	n/a	n/a	n/a	n/a	n/a	yellow
141.0308	1.0333	ITI	n/a	n/a	n/a	n/a	n/a	n/a	n/a	n/a
142.0641	0.5333	FIXCROSS	n/a	n/a	n/a	n/a	n/a	n/a	n/a	n/a
142.5974	0.7167	INK	52	Incongruent	żółty	yellow	zielony	green	hit	n/a
143.2798	n/a	RESPONSE	n/a	n/a	n/a	n/a	n/a	n/a	n/a	green
143.3141	1.0333	ITI	n/a	n/a	n/a	n/a	n/a	n/a	n/a	n/a
144.3475	0.5333	FIXCROSS	n/a	n/a	n/a	n/a	n/a	n/a	n/a	n/a
144.8808	0.6333	INK	53	Neutral	xxxxxxxx	xxxxxxxx	niebieski	blue	hit	n/a
145.4837	n/a	RESPONSE	n/a	n/a	n/a	n/a	n/a	n/a	n/a	blue
145.5141	1.0333	ITI	n/a	n/a	n/a	n/a	n/a	n/a	n/a	n/a
146.5475	0.5333	FIXCROSS	n/a	n/a	n/a	n/a	n/a	n/a	n/a	n/a
147.0808	0.5167	INK	54	Neutral	xxxxxxxxx	xxxxxxxxx	zielony	green	hit	n/a
147.5598	n/a	RESPONSE	n/a	n/a	n/a	n/a	n/a	n/a	n/a	green
147.5975	1.0333	ITI	n/a	n/a	n/a	n/a	n/a	n/a	n/a	n/a
148.6308	0.5333	FIXCROSS	n/a	n/a	n/a	n/a	n/a	n/a	n/a	n/a
149.1642	0.6	INK	55	Incongruent	niebieski	blue	zielony	green	hit	n/a
149.7315	n/a	RESPONSE	n/a	n/a	n/a	n/a	n/a	n/a	n/a	green
149.7642	1.0333	ITI	n/a	n/a	n/a	n/a	n/a	n/a	n/a	n/a
150.7975	0.5333	FIXCROSS	n/a	n/a	n/a	n/a	n/a	n/a	n/a	n/a
151.3309	0.45	INK	56	Neutral	xxxxxxx	xxxxxxx	niebieski	blue	hit	n/a
151.7437	n/a	RESPONSE	n/a	n/a	n/a	n/a	n/a	n/a	n/a	blue
151.7809	1.0333	ITI	n/a	n/a	n/a	n/a	n/a	n/a	n/a	n/a
152.8142	0.5333	FIXCROSS	n/a	n/a	n/a	n/a	n/a	n/a	n/a	n/a
153.3476	0.5167	INK	57	Neutral	xxxxxxxx	xxxxxxxx	niebieski	blue	hit	n/a
153.8357	n/a	RESPONSE	n/a	n/a	n/a	n/a	n/a	n/a	n/a	blue
153.8642	1.0334	ITI	n/a	n/a	n/a	n/a	n/a	n/a	n/a	n/a
154.8976	0.5333	FIXCROSS	n/a	n/a	n/a	n/a	n/a	n/a	n/a	n/a
155.4309	0.4833	INK	58	Neutral	xxxxxxxxx	xxxxxxxxx	zielony	green	hit	n/a
155.8798	n/a	RESPONSE	n/a	n/a	n/a	n/a	n/a	n/a	n/a	green
155.9143	1.0334	ITI	n/a	n/a	n/a	n/a	n/a	n/a	n/a	n/a
156.9476	0.5333	FIXCROSS	n/a	n/a	n/a	n/a	n/a	n/a	n/a	n/a
157.481	0.4667	INK	59	Neutral	xxxxxxxx	xxxxxxxx	żółty	yellow	hit	n/a
157.9081	n/a	RESPONSE	n/a	n/a	n/a	n/a	n/a	n/a	n/a	yellow
157.9476	1.0334	ITI	n/a	n/a	n/a	n/a	n/a	n/a	n/a	n/a
158.981	0.5333	FIXCROSS	n/a	n/a	n/a	n/a	n/a	n/a	n/a	n/a
159.5143	0.5667	INK	60	Neutral	xxxxx	xxxxx	niebieski	blue	hit	n/a
160.0479	n/a	RESPONSE	n/a	n/a	n/a	n/a	n/a	n/a	n/a	blue
160.081	1.0333	ITI	n/a	n/a	n/a	n/a	n/a	n/a	n/a	n/a
161.1143	0.5333	FIXCROSS	n/a	n/a	n/a	n/a	n/a	n/a	n/a	n/a
161.6477	0.4833	INK	61	Neutral	xxxxxxx	xxxxxxx	czerwony	red	hit	n/a
162.092	n/a	RESPONSE	n/a	n/a	n/a	n/a	n/a	n/a	n/a	red
162.131	1.0333	ITI	n/a	n/a	n/a	n/a	n/a	n/a	n/a	n/a
163.1644	0.5333	FIXCROSS	n/a	n/a	n/a	n/a	n/a	n/a	n/a	n/a
163.6977	0.4833	INK	62	Neutral	xxxxxxx	xxxxxxx	żółty	yellow	hit	n/a
164.1521	n/a	RESPONSE	n/a	n/a	n/a	n/a	n/a	n/a	n/a	yellow
164.181	1.0333	ITI	n/a	n/a	n/a	n/a	n/a	n/a	n/a	n/a
165.2144	0.5333	FIXCROSS	n/a	n/a	n/a	n/a	n/a	n/a	n/a	n/a
165.7477	0.5833	INK	63	Incongruent	żółty	yellow	czerwony	red	hit	n/a
166.2921	n/a	RESPONSE	n/a	n/a	n/a	n/a	n/a	n/a	n/a	red
166.3311	1.0334	ITI	n/a	n/a	n/a	n/a	n/a	n/a	n/a	n/a
167.3644	0.5333	FIXCROSS	n/a	n/a	n/a	n/a	n/a	n/a	n/a	n/a
167.8978	0.5333	INK	64	Incongruent	czerwony	red	niebieski	blue	hit	n/a
168.4001	n/a	RESPONSE	n/a	n/a	n/a	n/a	n/a	n/a	n/a	blue
168.4311	1.0333	ITI	n/a	n/a	n/a	n/a	n/a	n/a	n/a	n/a
169.4644	0.5333	FIXCROSS	n/a	n/a	n/a	n/a	n/a	n/a	n/a	n/a
169.9978	1.0167	INK	65	Incongruent	żółty	yellow	zielony	green	hit	n/a
170.9712	n/a	RESPONSE	n/a	n/a	n/a	n/a	n/a	n/a	n/a	green
171.0145	1.0333	ITI	n/a	n/a	n/a	n/a	n/a	n/a	n/a	n/a
172.0478	0.5333	FIXCROSS	n/a	n/a	n/a	n/a	n/a	n/a	n/a	n/a
172.5811	0.5667	INK	66	Neutral	xxxxxxxx	xxxxxxxx	zielony	green	hit	n/a
173.1111	n/a	RESPONSE	n/a	n/a	n/a	n/a	n/a	n/a	n/a	green
173.1478	1.0333	ITI	n/a	n/a	n/a	n/a	n/a	n/a	n/a	n/a
174.1812	0.5333	FIXCROSS	n/a	n/a	n/a	n/a	n/a	n/a	n/a	n/a
174.7145	0.6833	INK	67	Incongruent	żółty	yellow	niebieski	blue	hit	n/a
175.3628	n/a	RESPONSE	n/a	n/a	n/a	n/a	n/a	n/a	n/a	blue
175.3978	1.0333	ITI	n/a	n/a	n/a	n/a	n/a	n/a	n/a	n/a
176.4312	0.5333	FIXCROSS	n/a	n/a	n/a	n/a	n/a	n/a	n/a	n/a
176.9645	0.3667	INK	68	Neutral	xxxxxxxx	xxxxxxxx	niebieski	blue	hit	n/a
177.2951	n/a	RESPONSE	n/a	n/a	n/a	n/a	n/a	n/a	n/a	blue
177.3312	1.0333	ITI	n/a	n/a	n/a	n/a	n/a	n/a	n/a	n/a
178.3645	0.5333	FIXCROSS	n/a	n/a	n/a	n/a	n/a	n/a	n/a	n/a
178.8979	0.5333	INK	69	Incongruent	niebieski	blue	żółty	yellow	hit	n/a
179.3872	n/a	RESPONSE	n/a	n/a	n/a	n/a	n/a	n/a	n/a	yellow
179.4312	1.0334	ITI	n/a	n/a	n/a	n/a	n/a	n/a	n/a	n/a
180.4646	0.5333	FIXCROSS	n/a	n/a	n/a	n/a	n/a	n/a	n/a	n/a
180.9979	0.4333	INK	70	Incongruent	zielony	green	niebieski	blue	hit	n/a
181.3994	n/a	RESPONSE	n/a	n/a	n/a	n/a	n/a	n/a	n/a	blue
181.4312	1.0334	ITI	n/a	n/a	n/a	n/a	n/a	n/a	n/a	n/a
182.4646	0.5333	FIXCROSS	n/a	n/a	n/a	n/a	n/a	n/a	n/a	n/a
182.9979	0.4833	INK	71	Neutral	xxxxxxxx	xxxxxxxx	zielony	green	hit	n/a
183.4435	n/a	RESPONSE	n/a	n/a	n/a	n/a	n/a	n/a	n/a	green
183.4813	1.0333	ITI	n/a	n/a	n/a	n/a	n/a	n/a	n/a	n/a
184.5146	0.5333	FIXCROSS	n/a	n/a	n/a	n/a	n/a	n/a	n/a	n/a
185.048	0.7333	INK	72	Incongruent	niebieski	blue	czerwony	red	hit	n/a
185.7431	n/a	RESPONSE	n/a	n/a	n/a	n/a	n/a	n/a	n/a	red
185.7813	1.0833	ITI	n/a	n/a	n/a	n/a	n/a	n/a	n/a	n/a
192.3864	n/a	RESPONSE	n/a	n/a	n/a	n/a	n/a	n/a	n/a	n/a
192.4647	1.0334	ITI	n/a	n/a	n/a	n/a	n/a	n/a	n/a	n/a
193.4981	0.5333	FIXCROSS	n/a	n/a	n/a	n/a	n/a	n/a	n/a	n/a
194.0314	1.0167	T_COLOR_NAME	1	Neutral	niebieski	blue	Neutral	Neutral	hit	n/a
195.0056	n/a	RESPONSE	n/a	n/a	n/a	n/a	n/a	n/a	n/a	blue
195.0481	0.5333	FEEDBACK	n/a	n/a	n/a	n/a	n/a	n/a	n/a	n/a
195.5814	1.0333	ITI	n/a	n/a	n/a	n/a	n/a	n/a	n/a	n/a
196.6148	0.5333	FIXCROSS	n/a	n/a	n/a	n/a	n/a	n/a	n/a	n/a
197.1481	0.55	T_COLOR_NAME	2	Neutral	żółty	yellow	Neutral	Neutral	hit	n/a
197.6564	n/a	RESPONSE	n/a	n/a	n/a	n/a	n/a	n/a	n/a	yellow
197.6981	0.5333	FEEDBACK	n/a	n/a	n/a	n/a	n/a	n/a	n/a	n/a
198.2315	1.0334	ITI	n/a	n/a	n/a	n/a	n/a	n/a	n/a	n/a
199.2648	0.5333	FIXCROSS	n/a	n/a	n/a	n/a	n/a	n/a	n/a	n/a
199.7981	0.6167	T_COLOR_NAME	3	Incongruent	żółty	yellow	zielony	green	incorrect	n/a
200.3714	n/a	RESPONSE	n/a	n/a	n/a	n/a	n/a	n/a	n/a	green
200.4148	0.5333	FEEDBACK	n/a	n/a	n/a	n/a	n/a	n/a	n/a	n/a
200.9482	1.0333	ITI	n/a	n/a	n/a	n/a	n/a	n/a	n/a	n/a
201.9815	0.5334	FIXCROSS	n/a	n/a	n/a	n/a	n/a	n/a	n/a	n/a
202.5149	0.7667	T_COLOR_NAME	4	Incongruent	czerwony	red	niebieski	blue	hit	n/a
203.2459	n/a	RESPONSE	n/a	n/a	n/a	n/a	n/a	n/a	n/a	red
203.2815	0.5333	FEEDBACK	n/a	n/a	n/a	n/a	n/a	n/a	n/a	n/a
203.8149	1.0333	ITI	n/a	n/a	n/a	n/a	n/a	n/a	n/a	n/a
204.8482	0.5334	FIXCROSS	n/a	n/a	n/a	n/a	n/a	n/a	n/a	n/a
205.3816	0.6833	T_COLOR_NAME	5	Neutral	żółty	yellow	Neutral	Neutral	hit	n/a
206.0246	n/a	RESPONSE	n/a	n/a	n/a	n/a	n/a	n/a	n/a	yellow
206.0649	0.5333	FEEDBACK	n/a	n/a	n/a	n/a	n/a	n/a	n/a	n/a
206.5982	1.0333	ITI	n/a	n/a	n/a	n/a	n/a	n/a	n/a	n/a
207.6316	0.5333	FIXCROSS	n/a	n/a	n/a	n/a	n/a	n/a	n/a	n/a
208.1649	0.8167	T_COLOR_NAME	6	Incongruent	zielony	green	żółty	yellow	hit	n/a
208.9471	n/a	RESPONSE	n/a	n/a	n/a	n/a	n/a	n/a	n/a	green
208.9816	0.5333	FEEDBACK	n/a	n/a	n/a	n/a	n/a	n/a	n/a	n/a
209.5149	1.0333	ITI	n/a	n/a	n/a	n/a	n/a	n/a	n/a	n/a
210.5483	0.5333	FIXCROSS	n/a	n/a	n/a	n/a	n/a	n/a	n/a	n/a
211.0816	0.7833	T_COLOR_NAME	7	Incongruent	niebieski	blue	żółty	yellow	hit	n/a
211.8216	n/a	RESPONSE	n/a	n/a	n/a	n/a	n/a	n/a	n/a	blue
211.865	0.5334	FEEDBACK	n/a	n/a	n/a	n/a	n/a	n/a	n/a	n/a
212.3983	1.0333	ITI	n/a	n/a	n/a	n/a	n/a	n/a	n/a	n/a
213.4316	0.5333	FIXCROSS	n/a	n/a	n/a	n/a	n/a	n/a	n/a	n/a
213.965	0.6167	T_COLOR_NAME	8	Neutral	czerwony	red	Neutral	Neutral	hit	n/a
214.5364	n/a	RESPONSE	n/a	n/a	n/a	n/a	n/a	n/a	n/a	red
214.5817	0.5334	FEEDBACK	n/a	n/a	n/a	n/a	n/a	n/a	n/a	n/a
215.115	1.0333	ITI	n/a	n/a	n/a	n/a	n/a	n/a	n/a	n/a
216.1483	0.5333	FIXCROSS	n/a	n/a	n/a	n/a	n/a	n/a	n/a	n/a
216.6817	0.6167	T_COLOR_NAME	9	Neutral	niebieski	blue	Neutral	Neutral	hit	n/a
217.2512	n/a	RESPONSE	n/a	n/a	n/a	n/a	n/a	n/a	n/a	blue
217.2984	0.5333	FEEDBACK	n/a	n/a	n/a	n/a	n/a	n/a	n/a	n/a
217.8317	1.0333	ITI	n/a	n/a	n/a	n/a	n/a	n/a	n/a	n/a
218.865	0.5333	FIXCROSS	n/a	n/a	n/a	n/a	n/a	n/a	n/a	n/a
219.3984	0.6	T_COLOR_NAME	10	Neutral	czerwony	red	Neutral	Neutral	hit	n/a
219.9661	n/a	RESPONSE	n/a	n/a	n/a	n/a	n/a	n/a	n/a	red
219.9984	0.5333	FEEDBACK	n/a	n/a	n/a	n/a	n/a	n/a	n/a	n/a
220.5317	1.0333	ITI	n/a	n/a	n/a	n/a	n/a	n/a	n/a	n/a
221.5651	0.5333	FIXCROSS	n/a	n/a	n/a	n/a	n/a	n/a	n/a	n/a
222.0984	0.45	T_COLOR_NAME	11	Neutral	niebieski	blue	Neutral	Neutral	hit	n/a
222.5052	n/a	RESPONSE	n/a	n/a	n/a	n/a	n/a	n/a	n/a	blue
222.5484	0.5333	FEEDBACK	n/a	n/a	n/a	n/a	n/a	n/a	n/a	n/a
223.0818	1.0333	ITI	n/a	n/a	n/a	n/a	n/a	n/a	n/a	n/a
224.1151	0.5333	FIXCROSS	n/a	n/a	n/a	n/a	n/a	n/a	n/a	n/a
224.6485	0.4833	T_COLOR_NAME	12	Incongruent	czerwony	red	żółty	yellow	hit	n/a
225.0923	n/a	RESPONSE	n/a	n/a	n/a	n/a	n/a	n/a	n/a	red
225.1318	0.5333	FEEDBACK	n/a	n/a	n/a	n/a	n/a	n/a	n/a	n/a
225.6651	1.05	ITI	n/a	n/a	n/a	n/a	n/a	n/a	n/a	n/a
232.614	n/a	RESPONSE	n/a	n/a	n/a	n/a	n/a	n/a	n/a	n/a
232.6819	1.0	ITI	n/a	n/a	n/a	n/a	n/a	n/a	n/a	n/a
233.6819	0.5	FIXCROSS	n/a	n/a	n/a	n/a	n/a	n/a	n/a	n/a
234.1819	0.5667	COLOR_NAME	1	Incongruent	czerwony	red	zielony	green	hit	n/a
234.738	n/a	RESPONSE	n/a	n/a	n/a	n/a	n/a	n/a	n/a	red
234.7486	1.0	ITI	n/a	n/a	n/a	n/a	n/a	n/a	n/a	n/a
235.7486	0.5	FIXCROSS	n/a	n/a	n/a	n/a	n/a	n/a	n/a	n/a
236.2486	0.5167	COLOR_NAME	2	Neutral	niebieski	blue	Neutral	Neutral	hit	n/a
236.7501	n/a	RESPONSE	n/a	n/a	n/a	n/a	n/a	n/a	n/a	blue
236.7653	1.0	ITI	n/a	n/a	n/a	n/a	n/a	n/a	n/a	n/a
237.7653	0.5	FIXCROSS	n/a	n/a	n/a	n/a	n/a	n/a	n/a	n/a
238.2653	0.55	COLOR_NAME	3	Incongruent	żółty	yellow	niebieski	blue	hit	n/a
238.7943	n/a	RESPONSE	n/a	n/a	n/a	n/a	n/a	n/a	n/a	yellow
238.8153	1.0	ITI	n/a	n/a	n/a	n/a	n/a	n/a	n/a	n/a
239.8153	0.5	FIXCROSS	n/a	n/a	n/a	n/a	n/a	n/a	n/a	n/a
240.3153	0.4333	COLOR_NAME	4	Neutral	zielony	green	Neutral	Neutral	hit	n/a
240.7266	n/a	RESPONSE	n/a	n/a	n/a	n/a	n/a	n/a	n/a	green
240.7486	1.0333	ITI	n/a	n/a	n/a	n/a	n/a	n/a	n/a	n/a
241.782	0.5333	FIXCROSS	n/a	n/a	n/a	n/a	n/a	n/a	n/a	n/a
242.3153	0.4833	COLOR_NAME	5	Incongruent	czerwony	red	zielony	green	hit	n/a
242.7708	n/a	RESPONSE	n/a	n/a	n/a	n/a	n/a	n/a	n/a	red
242.7987	1.0333	ITI	n/a	n/a	n/a	n/a	n/a	n/a	n/a	n/a
243.832	0.5333	FIXCROSS	n/a	n/a	n/a	n/a	n/a	n/a	n/a	n/a
244.3653	0.5833	COLOR_NAME	6	Incongruent	niebieski	blue	zielony	green	hit	n/a
244.9107	n/a	RESPONSE	n/a	n/a	n/a	n/a	n/a	n/a	n/a	blue
244.9487	1.0333	ITI	n/a	n/a	n/a	n/a	n/a	n/a	n/a	n/a
245.982	0.5333	FIXCROSS	n/a	n/a	n/a	n/a	n/a	n/a	n/a	n/a
246.5154	0.5667	COLOR_NAME	7	Incongruent	niebieski	blue	żółty	yellow	hit	n/a
247.0507	n/a	RESPONSE	n/a	n/a	n/a	n/a	n/a	n/a	n/a	blue
247.0821	1.0333	ITI	n/a	n/a	n/a	n/a	n/a	n/a	n/a	n/a
247.354	n/a	RESPONSE	n/a	n/a	n/a	n/a	n/a	n/a	n/a	blue
248.1154	0.5333	FIXCROSS	n/a	n/a	n/a	n/a	n/a	n/a	n/a	n/a
248.6487	0.6333	COLOR_NAME	8	Incongruent	zielony	green	niebieski	blue	hit	n/a
249.2385	n/a	RESPONSE	n/a	n/a	n/a	n/a	n/a	n/a	n/a	green
249.2821	1.0333	ITI	n/a	n/a	n/a	n/a	n/a	n/a	n/a	n/a
250.3154	0.5333	FIXCROSS	n/a	n/a	n/a	n/a	n/a	n/a	n/a	n/a
250.8488	0.5833	COLOR_NAME	9	Neutral	żółty	yellow	Neutral	Neutral	hit	n/a
251.3944	n/a	RESPONSE	n/a	n/a	n/a	n/a	n/a	n/a	n/a	yellow
251.4321	1.0333	ITI	n/a	n/a	n/a	n/a	n/a	n/a	n/a	n/a
252.4654	0.5333	FIXCROSS	n/a	n/a	n/a	n/a	n/a	n/a	n/a	n/a
252.9988	0.5333	COLOR_NAME	10	Neutral	zielony	green	Neutral	Neutral	incorrect	n/a
253.5025	n/a	RESPONSE	n/a	n/a	n/a	n/a	n/a	n/a	n/a	blue
253.5321	1.0333	ITI	n/a	n/a	n/a	n/a	n/a	n/a	n/a	n/a
254.5655	0.5333	FIXCROSS	n/a	n/a	n/a	n/a	n/a	n/a	n/a	n/a
255.0988	0.8667	COLOR_NAME	11	Incongruent	żółty	yellow	niebieski	blue	incorrect	n/a
255.9299	n/a	RESPONSE	n/a	n/a	n/a	n/a	n/a	n/a	n/a	blue
255.9655	1.0333	ITI	n/a	n/a	n/a	n/a	n/a	n/a	n/a	n/a
256.9988	0.5334	FIXCROSS	n/a	n/a	n/a	n/a	n/a	n/a	n/a	n/a
257.5322	0.5833	COLOR_NAME	12	Incongruent	zielony	green	czerwony	red	hit	n/a
258.0857	n/a	RESPONSE	n/a	n/a	n/a	n/a	n/a	n/a	n/a	green
258.1155	1.0333	ITI	n/a	n/a	n/a	n/a	n/a	n/a	n/a	n/a
259.1489	0.5333	FIXCROSS	n/a	n/a	n/a	n/a	n/a	n/a	n/a	n/a
259.6822	0.7833	COLOR_NAME	13	Incongruent	niebieski	blue	czerwony	red	hit	n/a
260.4333	n/a	RESPONSE	n/a	n/a	n/a	n/a	n/a	n/a	n/a	blue
260.4655	1.0333	ITI	n/a	n/a	n/a	n/a	n/a	n/a	n/a	n/a
261.4989	0.5334	FIXCROSS	n/a	n/a	n/a	n/a	n/a	n/a	n/a	n/a
262.0322	0.5333	COLOR_NAME	14	Neutral	niebieski	blue	Neutral	Neutral	hit	n/a
262.5253	n/a	RESPONSE	n/a	n/a	n/a	n/a	n/a	n/a	n/a	blue
262.5656	1.0333	ITI	n/a	n/a	n/a	n/a	n/a	n/a	n/a	n/a
263.5989	0.5333	FIXCROSS	n/a	n/a	n/a	n/a	n/a	n/a	n/a	n/a
264.1323	0.7167	COLOR_NAME	15	Incongruent	żółty	yellow	zielony	green	hit	n/a
264.8089	n/a	RESPONSE	n/a	n/a	n/a	n/a	n/a	n/a	n/a	yellow
264.8489	1.0334	ITI	n/a	n/a	n/a	n/a	n/a	n/a	n/a	n/a
265.8823	0.5333	FIXCROSS	n/a	n/a	n/a	n/a	n/a	n/a	n/a	n/a
266.4156	0.6167	COLOR_NAME	16	Incongruent	niebieski	blue	czerwony	red	hit	n/a
266.9969	n/a	RESPONSE	n/a	n/a	n/a	n/a	n/a	n/a	n/a	blue
267.0323	1.0334	ITI	n/a	n/a	n/a	n/a	n/a	n/a	n/a	n/a
268.0656	0.5333	FIXCROSS	n/a	n/a	n/a	n/a	n/a	n/a	n/a	n/a
268.599	0.5833	COLOR_NAME	17	Incongruent	zielony	green	niebieski	blue	hit	n/a
269.1528	n/a	RESPONSE	n/a	n/a	n/a	n/a	n/a	n/a	n/a	green
269.1823	1.0334	ITI	n/a	n/a	n/a	n/a	n/a	n/a	n/a	n/a
270.2157	0.5333	FIXCROSS	n/a	n/a	n/a	n/a	n/a	n/a	n/a	n/a
270.749	0.4667	COLOR_NAME	18	Neutral	zielony	green	Neutral	Neutral	hit	n/a
271.1809	n/a	RESPONSE	n/a	n/a	n/a	n/a	n/a	n/a	n/a	green
271.2157	1.0333	ITI	n/a	n/a	n/a	n/a	n/a	n/a	n/a	n/a
272.249	0.5333	FIXCROSS	n/a	n/a	n/a	n/a	n/a	n/a	n/a	n/a
272.7824	0.65	COLOR_NAME	19	Incongruent	czerwony	red	żółty	yellow	hit	n/a
273.4006	n/a	RESPONSE	n/a	n/a	n/a	n/a	n/a	n/a	n/a	red
273.4324	1.0334	ITI	n/a	n/a	n/a	n/a	n/a	n/a	n/a	n/a
274.4657	0.5333	FIXCROSS	n/a	n/a	n/a	n/a	n/a	n/a	n/a	n/a
274.9991	0.5	COLOR_NAME	20	Incongruent	czerwony	red	żółty	yellow	hit	n/a
275.4608	n/a	RESPONSE	n/a	n/a	n/a	n/a	n/a	n/a	n/a	red
275.4991	1.0334	ITI	n/a	n/a	n/a	n/a	n/a	n/a	n/a	n/a
276.5324	0.5333	FIXCROSS	n/a	n/a	n/a	n/a	n/a	n/a	n/a	n/a
277.0657	0.6667	COLOR_NAME	21	Neutral	zielony	green	Neutral	Neutral	hit	n/a
277.6966	n/a	RESPONSE	n/a	n/a	n/a	n/a	n/a	n/a	n/a	green
277.7324	1.0333	ITI	n/a	n/a	n/a	n/a	n/a	n/a	n/a	n/a
278.7658	0.5333	FIXCROSS	n/a	n/a	n/a	n/a	n/a	n/a	n/a	n/a
279.2991	0.65	COLOR_NAME	22	Neutral	czerwony	red	Neutral	Neutral	hit	n/a
279.9163	n/a	RESPONSE	n/a	n/a	n/a	n/a	n/a	n/a	n/a	red
279.9491	1.0333	ITI	n/a	n/a	n/a	n/a	n/a	n/a	n/a	n/a
280.9825	0.5333	FIXCROSS	n/a	n/a	n/a	n/a	n/a	n/a	n/a	n/a
281.5158	0.55	COLOR_NAME	23	Neutral	zielony	green	Neutral	Neutral	hit	n/a
282.0243	n/a	RESPONSE	n/a	n/a	n/a	n/a	n/a	n/a	n/a	green
282.0658	1.0333	ITI	n/a	n/a	n/a	n/a	n/a	n/a	n/a	n/a
283.0992	0.5333	FIXCROSS	n/a	n/a	n/a	n/a	n/a	n/a	n/a	n/a
283.6325	0.6167	COLOR_NAME	24	Neutral	czerwony	red	Neutral	Neutral	hit	n/a
284.2121	n/a	RESPONSE	n/a	n/a	n/a	n/a	n/a	n/a	n/a	red
284.2492	1.0334	ITI	n/a	n/a	n/a	n/a	n/a	n/a	n/a	n/a
285.2825	0.5333	FIXCROSS	n/a	n/a	n/a	n/a	n/a	n/a	n/a	n/a
285.8158	0.6167	COLOR_NAME	25	Incongruent	niebieski	blue	czerwony	red	hit	n/a
286.4	n/a	RESPONSE	n/a	n/a	n/a	n/a	n/a	n/a	n/a	blue
286.4325	1.0333	ITI	n/a	n/a	n/a	n/a	n/a	n/a	n/a	n/a
287.4659	0.5333	FIXCROSS	n/a	n/a	n/a	n/a	n/a	n/a	n/a	n/a
287.9992	0.4667	COLOR_NAME	26	Neutral	żółty	yellow	Neutral	Neutral	hit	n/a
288.4281	n/a	RESPONSE	n/a	n/a	n/a	n/a	n/a	n/a	n/a	yellow
288.4659	1.0333	ITI	n/a	n/a	n/a	n/a	n/a	n/a	n/a	n/a
289.4992	0.5333	FIXCROSS	n/a	n/a	n/a	n/a	n/a	n/a	n/a	n/a
290.0326	0.5167	COLOR_NAME	27	Neutral	niebieski	blue	Neutral	Neutral	hit	n/a
290.5201	n/a	RESPONSE	n/a	n/a	n/a	n/a	n/a	n/a	n/a	blue
290.5492	1.0333	ITI	n/a	n/a	n/a	n/a	n/a	n/a	n/a	n/a
291.5826	0.5333	FIXCROSS	n/a	n/a	n/a	n/a	n/a	n/a	n/a	n/a
292.1159	0.5167	COLOR_NAME	28	Incongruent	zielony	green	niebieski	blue	hit	n/a
292.5962	n/a	RESPONSE	n/a	n/a	n/a	n/a	n/a	n/a	n/a	green
292.6326	1.0333	ITI	n/a	n/a	n/a	n/a	n/a	n/a	n/a	n/a
293.666	0.5333	FIXCROSS	n/a	n/a	n/a	n/a	n/a	n/a	n/a	n/a
294.1993	0.5834	COLOR_NAME	29	Incongruent	zielony	green	żółty	yellow	hit	n/a
294.7521	n/a	RESPONSE	n/a	n/a	n/a	n/a	n/a	n/a	n/a	green
294.7826	1.0333	ITI	n/a	n/a	n/a	n/a	n/a	n/a	n/a	n/a
295.816	0.5333	FIXCROSS	n/a	n/a	n/a	n/a	n/a	n/a	n/a	n/a
296.3493	0.55	COLOR_NAME	30	Neutral	czerwony	red	Neutral	Neutral	hit	n/a
296.8601	n/a	RESPONSE	n/a	n/a	n/a	n/a	n/a	n/a	n/a	red
296.8993	1.0333	ITI	n/a	n/a	n/a	n/a	n/a	n/a	n/a	n/a
297.9327	0.5333	FIXCROSS	n/a	n/a	n/a	n/a	n/a	n/a	n/a	n/a
298.466	0.75	COLOR_NAME	31	Incongruent	żółty	yellow	zielony	green	hit	n/a
299.1757	n/a	RESPONSE	n/a	n/a	n/a	n/a	n/a	n/a	n/a	yellow
299.216	1.0333	ITI	n/a	n/a	n/a	n/a	n/a	n/a	n/a	n/a
300.2494	0.5333	FIXCROSS	n/a	n/a	n/a	n/a	n/a	n/a	n/a	n/a
300.7827	0.6667	COLOR_NAME	32	Neutral	czerwony	red	Neutral	Neutral	hit	n/a
301.4114	n/a	RESPONSE	n/a	n/a	n/a	n/a	n/a	n/a	n/a	red
301.4494	1.0333	ITI	n/a	n/a	n/a	n/a	n/a	n/a	n/a	n/a
302.4827	0.5333	FIXCROSS	n/a	n/a	n/a	n/a	n/a	n/a	n/a	n/a
303.0161	0.65	COLOR_NAME	33	Neutral	żółty	yellow	Neutral	Neutral	hit	n/a
303.6313	n/a	RESPONSE	n/a	n/a	n/a	n/a	n/a	n/a	n/a	yellow
303.6661	1.0333	ITI	n/a	n/a	n/a	n/a	n/a	n/a	n/a	n/a
304.6994	0.5333	FIXCROSS	n/a	n/a	n/a	n/a	n/a	n/a	n/a	n/a
305.2328	0.6167	COLOR_NAME	34	Incongruent	czerwony	red	żółty	yellow	hit	n/a
305.8191	n/a	RESPONSE	n/a	n/a	n/a	n/a	n/a	n/a	n/a	red
305.8494	1.0333	ITI	n/a	n/a	n/a	n/a	n/a	n/a	n/a	n/a
306.8828	0.5333	FIXCROSS	n/a	n/a	n/a	n/a	n/a	n/a	n/a	n/a
307.4161	0.5833	COLOR_NAME	35	Neutral	żółty	yellow	Neutral	Neutral	hit	n/a
307.959	n/a	RESPONSE	n/a	n/a	n/a	n/a	n/a	n/a	n/a	yellow
307.9994	1.0333	ITI	n/a	n/a	n/a	n/a	n/a	n/a	n/a	n/a
309.0328	0.5333	FIXCROSS	n/a	n/a	n/a	n/a	n/a	n/a	n/a	n/a
309.5661	0.4333	COLOR_NAME	36	Incongruent	czerwony	red	zielony	green	hit	n/a
309.9552	n/a	RESPONSE	n/a	n/a	n/a	n/a	n/a	n/a	n/a	red
309.9995	1.0333	ITI	n/a	n/a	n/a	n/a	n/a	n/a	n/a	n/a
311.0328	0.5333	FIXCROSS	n/a	n/a	n/a	n/a	n/a	n/a	n/a	n/a
311.5662	0.45	COLOR_NAME	37	Neutral	czerwony	red	Neutral	Neutral	hit	n/a
311.9833	n/a	RESPONSE	n/a	n/a	n/a	n/a	n/a	n/a	n/a	red
312.0162	1.0333	ITI	n/a	n/a	n/a	n/a	n/a	n/a	n/a	n/a
313.0495	0.5333	FIXCROSS	n/a	n/a	n/a	n/a	n/a	n/a	n/a	n/a
313.5829	0.4167	COLOR_NAME	38	Incongruent	niebieski	blue	zielony	green	hit	n/a
313.9636	n/a	RESPONSE	n/a	n/a	n/a	n/a	n/a	n/a	n/a	blue
313.9995	1.0333	ITI	n/a	n/a	n/a	n/a	n/a	n/a	n/a	n/a
315.0329	0.5333	FIXCROSS	n/a	n/a	n/a	n/a	n/a	n/a	n/a	n/a
315.5662	0.6833	COLOR_NAME	39	Incongruent	żółty	yellow	czerwony	red	hit	n/a
316.2152	n/a	RESPONSE	n/a	n/a	n/a	n/a	n/a	n/a	n/a	yellow
316.2496	1.0333	ITI	n/a	n/a	n/a	n/a	n/a	n/a	n/a	n/a
317.2829	0.5333	FIXCROSS	n/a	n/a	n/a	n/a	n/a	n/a	n/a	n/a
317.8162	0.5333	COLOR_NAME	40	Incongruent	zielony	green	czerwony	red	hit	n/a
318.3074	n/a	RESPONSE	n/a	n/a	n/a	n/a	n/a	n/a	n/a	green
318.3496	1.0333	ITI	n/a	n/a	n/a	n/a	n/a	n/a	n/a	n/a
319.3829	0.5333	FIXCROSS	n/a	n/a	n/a	n/a	n/a	n/a	n/a	n/a
319.9163	0.5	COLOR_NAME	41	Neutral	czerwony	red	Neutral	Neutral	hit	n/a
320.3835	n/a	RESPONSE	n/a	n/a	n/a	n/a	n/a	n/a	n/a	red
320.4163	1.0333	ITI	n/a	n/a	n/a	n/a	n/a	n/a	n/a	n/a
321.4496	0.5333	FIXCROSS	n/a	n/a	n/a	n/a	n/a	n/a	n/a	n/a
321.9829	0.6	COLOR_NAME	42	Incongruent	żółty	yellow	zielony	green	hit	n/a
322.5394	n/a	RESPONSE	n/a	n/a	n/a	n/a	n/a	n/a	n/a	yellow
322.583	1.0333	ITI	n/a	n/a	n/a	n/a	n/a	n/a	n/a	n/a
323.6163	0.5333	FIXCROSS	n/a	n/a	n/a	n/a	n/a	n/a	n/a	n/a
324.1496	0.6	COLOR_NAME	43	Neutral	niebieski	blue	Neutral	Neutral	hit	n/a
324.7112	n/a	RESPONSE	n/a	n/a	n/a	n/a	n/a	n/a	n/a	blue
324.7497	1.0333	ITI	n/a	n/a	n/a	n/a	n/a	n/a	n/a	n/a
325.783	0.5333	FIXCROSS	n/a	n/a	n/a	n/a	n/a	n/a	n/a	n/a
326.3163	0.7167	COLOR_NAME	44	Incongruent	zielony	green	czerwony	red	incorrect	n/a
326.9948	n/a	RESPONSE	n/a	n/a	n/a	n/a	n/a	n/a	n/a	yellow
327.033	1.0333	ITI	n/a	n/a	n/a	n/a	n/a	n/a	n/a	n/a
328.0664	0.5333	FIXCROSS	n/a	n/a	n/a	n/a	n/a	n/a	n/a	n/a
328.5997	0.6	COLOR_NAME	45	Incongruent	niebieski	blue	żółty	yellow	hit	n/a
329.1667	n/a	RESPONSE	n/a	n/a	n/a	n/a	n/a	n/a	n/a	blue
329.1997	1.0333	ITI	n/a	n/a	n/a	n/a	n/a	n/a	n/a	n/a
330.233	0.5333	FIXCROSS	n/a	n/a	n/a	n/a	n/a	n/a	n/a	n/a
330.7664	0.6	COLOR_NAME	46	Incongruent	czerwony	red	niebieski	blue	hit	n/a
331.3225	n/a	RESPONSE	n/a	n/a	n/a	n/a	n/a	n/a	n/a	red
331.3664	1.0333	ITI	n/a	n/a	n/a	n/a	n/a	n/a	n/a	n/a
332.3997	0.5333	FIXCROSS	n/a	n/a	n/a	n/a	n/a	n/a	n/a	n/a
332.9331	0.6333	COLOR_NAME	47	Incongruent	żółty	yellow	niebieski	blue	hit	n/a
333.5264	n/a	RESPONSE	n/a	n/a	n/a	n/a	n/a	n/a	n/a	yellow
333.5664	1.0334	ITI	n/a	n/a	n/a	n/a	n/a	n/a	n/a	n/a
334.5998	0.5333	FIXCROSS	n/a	n/a	n/a	n/a	n/a	n/a	n/a	n/a
335.1331	0.5	COLOR_NAME	48	Neutral	zielony	green	Neutral	Neutral	hit	n/a
335.6024	n/a	RESPONSE	n/a	n/a	n/a	n/a	n/a	n/a	n/a	green
335.6331	1.0333	ITI	n/a	n/a	n/a	n/a	n/a	n/a	n/a	n/a
336.6665	0.5333	FIXCROSS	n/a	n/a	n/a	n/a	n/a	n/a	n/a	n/a
337.1998	0.5667	COLOR_NAME	49	Neutral	czerwony	red	Neutral	Neutral	hit	n/a
337.7264	n/a	RESPONSE	n/a	n/a	n/a	n/a	n/a	n/a	n/a	red
337.7665	1.0334	ITI	n/a	n/a	n/a	n/a	n/a	n/a	n/a	n/a
338.7998	0.5333	FIXCROSS	n/a	n/a	n/a	n/a	n/a	n/a	n/a	n/a
339.3332	0.5666	COLOR_NAME	50	Incongruent	żółty	yellow	czerwony	red	hit	n/a
339.8663	n/a	RESPONSE	n/a	n/a	n/a	n/a	n/a	n/a	n/a	yellow
339.8998	1.0334	ITI	n/a	n/a	n/a	n/a	n/a	n/a	n/a	n/a
340.9332	0.5333	FIXCROSS	n/a	n/a	n/a	n/a	n/a	n/a	n/a	n/a
341.4665	0.6333	COLOR_NAME	51	Neutral	niebieski	blue	Neutral	Neutral	hit	n/a
342.0701	n/a	RESPONSE	n/a	n/a	n/a	n/a	n/a	n/a	n/a	blue
342.0999	1.0333	ITI	n/a	n/a	n/a	n/a	n/a	n/a	n/a	n/a
343.1332	0.5333	FIXCROSS	n/a	n/a	n/a	n/a	n/a	n/a	n/a	n/a
343.6665	0.5667	COLOR_NAME	52	Incongruent	zielony	green	żółty	yellow	hit	n/a
344.1941	n/a	RESPONSE	n/a	n/a	n/a	n/a	n/a	n/a	n/a	green
344.2332	1.0333	ITI	n/a	n/a	n/a	n/a	n/a	n/a	n/a	n/a
345.2666	0.5333	FIXCROSS	n/a	n/a	n/a	n/a	n/a	n/a	n/a	n/a
345.7999	0.4	COLOR_NAME	53	Neutral	żółty	yellow	Neutral	Neutral	hit	n/a
346.1583	n/a	RESPONSE	n/a	n/a	n/a	n/a	n/a	n/a	n/a	yellow
346.1999	1.0334	ITI	n/a	n/a	n/a	n/a	n/a	n/a	n/a	n/a
347.2333	0.5333	FIXCROSS	n/a	n/a	n/a	n/a	n/a	n/a	n/a	n/a
347.7666	0.5667	COLOR_NAME	54	Incongruent	czerwony	red	niebieski	blue	incorrect	n/a
348.2983	n/a	RESPONSE	n/a	n/a	n/a	n/a	n/a	n/a	n/a	blue
348.3333	1.0333	ITI	n/a	n/a	n/a	n/a	n/a	n/a	n/a	n/a
349.3666	0.5333	FIXCROSS	n/a	n/a	n/a	n/a	n/a	n/a	n/a	n/a
349.9	0.65	COLOR_NAME	55	Neutral	czerwony	red	Neutral	Neutral	hit	n/a
350.518	n/a	RESPONSE	n/a	n/a	n/a	n/a	n/a	n/a	n/a	red
350.55	1.0333	ITI	n/a	n/a	n/a	n/a	n/a	n/a	n/a	n/a
351.5833	0.5333	FIXCROSS	n/a	n/a	n/a	n/a	n/a	n/a	n/a	n/a
352.1166	0.6333	COLOR_NAME	56	Incongruent	żółty	yellow	czerwony	red	hit	n/a
352.7059	n/a	RESPONSE	n/a	n/a	n/a	n/a	n/a	n/a	n/a	yellow
352.75	1.0334	ITI	n/a	n/a	n/a	n/a	n/a	n/a	n/a	n/a
353.7833	0.5333	FIXCROSS	n/a	n/a	n/a	n/a	n/a	n/a	n/a	n/a
354.3167	0.5	COLOR_NAME	57	Neutral	zielony	green	Neutral	Neutral	hit	n/a
354.7819	n/a	RESPONSE	n/a	n/a	n/a	n/a	n/a	n/a	n/a	green
354.8167	1.0333	ITI	n/a	n/a	n/a	n/a	n/a	n/a	n/a	n/a
355.85	0.5333	FIXCROSS	n/a	n/a	n/a	n/a	n/a	n/a	n/a	n/a
356.3834	0.6167	COLOR_NAME	58	Neutral	niebieski	blue	Neutral	Neutral	hit	n/a
356.9698	n/a	RESPONSE	n/a	n/a	n/a	n/a	n/a	n/a	n/a	blue
357.0	1.0333	ITI	n/a	n/a	n/a	n/a	n/a	n/a	n/a	n/a
358.0334	0.5333	FIXCROSS	n/a	n/a	n/a	n/a	n/a	n/a	n/a	n/a
358.5667	0.4833	COLOR_NAME	59	Neutral	zielony	green	Neutral	Neutral	hit	n/a
359.0138	n/a	RESPONSE	n/a	n/a	n/a	n/a	n/a	n/a	n/a	green
359.0501	1.0333	ITI	n/a	n/a	n/a	n/a	n/a	n/a	n/a	n/a
360.0834	0.5334	FIXCROSS	n/a	n/a	n/a	n/a	n/a	n/a	n/a	n/a
360.6168	0.6333	COLOR_NAME	60	Incongruent	niebieski	blue	zielony	green	hit	n/a
361.2177	n/a	RESPONSE	n/a	n/a	n/a	n/a	n/a	n/a	n/a	blue
361.2501	1.0333	ITI	n/a	n/a	n/a	n/a	n/a	n/a	n/a	n/a
362.2834	0.5333	FIXCROSS	n/a	n/a	n/a	n/a	n/a	n/a	n/a	n/a
362.8168	0.7334	COLOR_NAME	61	Incongruent	czerwony	red	niebieski	blue	hit	n/a
363.5173	n/a	RESPONSE	n/a	n/a	n/a	n/a	n/a	n/a	n/a	red
363.5501	1.0333	ITI	n/a	n/a	n/a	n/a	n/a	n/a	n/a	n/a
364.5835	0.5333	FIXCROSS	n/a	n/a	n/a	n/a	n/a	n/a	n/a	n/a
365.1168	0.4667	COLOR_NAME	62	Neutral	żółty	yellow	Neutral	Neutral	hit	n/a
365.5454	n/a	RESPONSE	n/a	n/a	n/a	n/a	n/a	n/a	n/a	yellow
365.5835	1.0334	ITI	n/a	n/a	n/a	n/a	n/a	n/a	n/a	n/a
366.6168	0.5333	FIXCROSS	n/a	n/a	n/a	n/a	n/a	n/a	n/a	n/a
367.1502	0.5	COLOR_NAME	63	Neutral	żółty	yellow	Neutral	Neutral	hit	n/a
367.6215	n/a	RESPONSE	n/a	n/a	n/a	n/a	n/a	n/a	n/a	yellow
367.6502	1.0333	ITI	n/a	n/a	n/a	n/a	n/a	n/a	n/a	n/a
368.6835	0.5333	FIXCROSS	n/a	n/a	n/a	n/a	n/a	n/a	n/a	n/a
369.2169	0.6	COLOR_NAME	64	Neutral	niebieski	blue	Neutral	Neutral	hit	n/a
369.7774	n/a	RESPONSE	n/a	n/a	n/a	n/a	n/a	n/a	n/a	blue
369.8169	1.0333	ITI	n/a	n/a	n/a	n/a	n/a	n/a	n/a	n/a
370.8502	0.5333	FIXCROSS	n/a	n/a	n/a	n/a	n/a	n/a	n/a	n/a
371.3835	0.4833	COLOR_NAME	65	Neutral	żółty	yellow	Neutral	Neutral	hit	n/a
371.8375	n/a	RESPONSE	n/a	n/a	n/a	n/a	n/a	n/a	n/a	yellow
371.8669	1.0333	ITI	n/a	n/a	n/a	n/a	n/a	n/a	n/a	n/a
372.9002	0.5333	FIXCROSS	n/a	n/a	n/a	n/a	n/a	n/a	n/a	n/a
373.4336	0.55	COLOR_NAME	66	Neutral	czerwony	red	Neutral	Neutral	hit	n/a
373.9455	n/a	RESPONSE	n/a	n/a	n/a	n/a	n/a	n/a	n/a	red
373.9836	1.0333	ITI	n/a	n/a	n/a	n/a	n/a	n/a	n/a	n/a
375.0169	0.5333	FIXCROSS	n/a	n/a	n/a	n/a	n/a	n/a	n/a	n/a
375.5503	0.5833	COLOR_NAME	67	Neutral	żółty	yellow	Neutral	Neutral	hit	n/a
376.1015	n/a	RESPONSE	n/a	n/a	n/a	n/a	n/a	n/a	n/a	yellow
376.1336	1.0333	ITI	n/a	n/a	n/a	n/a	n/a	n/a	n/a	n/a
377.167	0.5333	FIXCROSS	n/a	n/a	n/a	n/a	n/a	n/a	n/a	n/a
377.7003	0.5	COLOR_NAME	68	Neutral	zielony	green	Neutral	Neutral	hit	n/a
378.1616	n/a	RESPONSE	n/a	n/a	n/a	n/a	n/a	n/a	n/a	green
378.2003	1.0333	ITI	n/a	n/a	n/a	n/a	n/a	n/a	n/a	n/a
379.2336	0.5334	FIXCROSS	n/a	n/a	n/a	n/a	n/a	n/a	n/a	n/a
379.767	0.5333	COLOR_NAME	69	Incongruent	niebieski	blue	żółty	yellow	hit	n/a
380.2696	n/a	RESPONSE	n/a	n/a	n/a	n/a	n/a	n/a	n/a	blue
380.3003	1.0334	ITI	n/a	n/a	n/a	n/a	n/a	n/a	n/a	n/a
381.3337	0.5333	FIXCROSS	n/a	n/a	n/a	n/a	n/a	n/a	n/a	n/a
381.867	0.85	COLOR_NAME	70	Incongruent	zielony	green	żółty	yellow	hit	n/a
382.6809	n/a	RESPONSE	n/a	n/a	n/a	n/a	n/a	n/a	n/a	green
382.717	1.0334	ITI	n/a	n/a	n/a	n/a	n/a	n/a	n/a	n/a
383.7504	0.5333	FIXCROSS	n/a	n/a	n/a	n/a	n/a	n/a	n/a	n/a
384.2837	0.6	COLOR_NAME	71	Neutral	niebieski	blue	Neutral	Neutral	hit	n/a
384.8528	n/a	RESPONSE	n/a	n/a	n/a	n/a	n/a	n/a	n/a	blue
384.8837	1.0334	ITI	n/a	n/a	n/a	n/a	n/a	n/a	n/a	n/a
385.9171	0.5333	FIXCROSS	n/a	n/a	n/a	n/a	n/a	n/a	n/a	n/a
386.4504	0.55	COLOR_NAME	72	Neutral	niebieski	blue	Neutral	Neutral	hit	n/a
386.9608	n/a	RESPONSE	n/a	n/a	n/a	n/a	n/a	n/a	n/a	blue
387.0004	1.05	ITI	n/a	n/a	n/a	n/a	n/a	n/a	n/a	n/a
392.0072	n/a	RESPONSE	n/a	n/a	n/a	n/a	n/a	n/a	n/a	n/a
