onset	duration	trial_type	trial_number	stroop_condition	stim_text(PL)	stim_text(eng)	stim_color(PL)	stim_color(eng)	response_type	response_color
0.0	n/a	RESPONSE	n/a	n/a	n/a	n/a	n/a	n/a	n/a	n/a
0.0675	1.0333	ITI	n/a	n/a	n/a	n/a	n/a	n/a	n/a	n/a
1.1009	0.5167	FIXCROSS	n/a	n/a	n/a	n/a	n/a	n/a	n/a	n/a
1.6175	1.2167	T_INK	1	Incongruent	czerwony	red	zielony	green	hit	n/a
2.8123	n/a	RESPONSE	n/a	n/a	n/a	n/a	n/a	n/a	n/a	green
2.8342	0.5167	FEEDBACK	n/a	n/a	n/a	n/a	n/a	n/a	n/a	n/a
3.3509	1.0167	ITI	n/a	n/a	n/a	n/a	n/a	n/a	n/a	n/a
4.3675	0.5167	FIXCROSS	n/a	n/a	n/a	n/a	n/a	n/a	n/a	n/a
4.8842	0.7333	T_INK	2	Neutral	xxxxxxx	xxxxxxx	żółty	yellow	hit	n/a
5.5926	n/a	RESPONSE	n/a	n/a	n/a	n/a	n/a	n/a	n/a	yellow
5.6176	0.5167	FEEDBACK	n/a	n/a	n/a	n/a	n/a	n/a	n/a	n/a
6.1342	1.0167	ITI	n/a	n/a	n/a	n/a	n/a	n/a	n/a	n/a
7.1509	0.5167	FIXCROSS	n/a	n/a	n/a	n/a	n/a	n/a	n/a	n/a
7.6676	0.75	T_INK	3	Incongruent	czerwony	red	żółty	yellow	hit	n/a
8.3888	n/a	RESPONSE	n/a	n/a	n/a	n/a	n/a	n/a	n/a	yellow
8.4176	0.5167	FEEDBACK	n/a	n/a	n/a	n/a	n/a	n/a	n/a	n/a
8.9342	1.0167	ITI	n/a	n/a	n/a	n/a	n/a	n/a	n/a	n/a
9.9509	0.5167	FIXCROSS	n/a	n/a	n/a	n/a	n/a	n/a	n/a	n/a
10.4676	0.8	T_INK	4	Incongruent	żółty	yellow	niebieski	blue	hit	n/a
11.2332	n/a	RESPONSE	n/a	n/a	n/a	n/a	n/a	n/a	n/a	blue
11.2676	0.5167	FEEDBACK	n/a	n/a	n/a	n/a	n/a	n/a	n/a	n/a
11.7843	1.0167	ITI	n/a	n/a	n/a	n/a	n/a	n/a	n/a	n/a
12.8009	0.5167	FIXCROSS	n/a	n/a	n/a	n/a	n/a	n/a	n/a	n/a
13.3176	0.7667	T_INK	5	Incongruent	zielony	green	niebieski	blue	hit	n/a
14.0614	n/a	RESPONSE	n/a	n/a	n/a	n/a	n/a	n/a	n/a	blue
14.0843	0.5167	FEEDBACK	n/a	n/a	n/a	n/a	n/a	n/a	n/a	n/a
14.601	1.0167	ITI	n/a	n/a	n/a	n/a	n/a	n/a	n/a	n/a
15.6176	0.5167	FIXCROSS	n/a	n/a	n/a	n/a	n/a	n/a	n/a	n/a
16.1343	0.7167	T_INK	6	Neutral	xxxxx	xxxxx	czerwony	red	hit	n/a
16.8257	n/a	RESPONSE	n/a	n/a	n/a	n/a	n/a	n/a	n/a	red
16.851	0.5167	FEEDBACK	n/a	n/a	n/a	n/a	n/a	n/a	n/a	n/a
17.3676	1.0167	ITI	n/a	n/a	n/a	n/a	n/a	n/a	n/a	n/a
18.3843	0.5167	FIXCROSS	n/a	n/a	n/a	n/a	n/a	n/a	n/a	n/a
18.901	0.7333	T_INK	7	Neutral	xxxxx	xxxxx	zielony	green	hit	n/a
19.6061	n/a	RESPONSE	n/a	n/a	n/a	n/a	n/a	n/a	n/a	green
19.6343	0.5167	FEEDBACK	n/a	n/a	n/a	n/a	n/a	n/a	n/a	n/a
20.151	1.0167	ITI	n/a	n/a	n/a	n/a	n/a	n/a	n/a	n/a
21.1677	0.5167	FIXCROSS	n/a	n/a	n/a	n/a	n/a	n/a	n/a	n/a
21.6843	0.55	T_INK	8	Neutral	xxxxxxx	xxxxxxx	czerwony	red	hit	n/a
22.2106	n/a	RESPONSE	n/a	n/a	n/a	n/a	n/a	n/a	n/a	red
22.2343	0.5167	FEEDBACK	n/a	n/a	n/a	n/a	n/a	n/a	n/a	n/a
22.751	1.0167	ITI	n/a	n/a	n/a	n/a	n/a	n/a	n/a	n/a
23.7677	0.5167	FIXCROSS	n/a	n/a	n/a	n/a	n/a	n/a	n/a	n/a
24.2844	0.7667	T_INK	9	Neutral	xxxxxxx	xxxxxxx	niebieski	blue	hit	n/a
25.023	n/a	RESPONSE	n/a	n/a	n/a	n/a	n/a	n/a	n/a	blue
25.051	0.5167	FEEDBACK	n/a	n/a	n/a	n/a	n/a	n/a	n/a	n/a
25.5677	1.0167	ITI	n/a	n/a	n/a	n/a	n/a	n/a	n/a	n/a
26.5844	0.5167	FIXCROSS	n/a	n/a	n/a	n/a	n/a	n/a	n/a	n/a
27.1011	0.7167	T_INK	10	Neutral	xxxxx	xxxxx	niebieski	blue	hit	n/a
27.7873	n/a	RESPONSE	n/a	n/a	n/a	n/a	n/a	n/a	n/a	blue
27.8177	0.5167	FEEDBACK	n/a	n/a	n/a	n/a	n/a	n/a	n/a	n/a
28.3344	1.0167	ITI	n/a	n/a	n/a	n/a	n/a	n/a	n/a	n/a
29.3511	0.5167	FIXCROSS	n/a	n/a	n/a	n/a	n/a	n/a	n/a	n/a
29.8677	1.3167	T_INK	11	Neutral	xxxxxxxxx	xxxxxxxxx	zielony	green	hit	n/a
31.1589	n/a	RESPONSE	n/a	n/a	n/a	n/a	n/a	n/a	n/a	green
31.1844	0.5167	FEEDBACK	n/a	n/a	n/a	n/a	n/a	n/a	n/a	n/a
31.7011	1.0167	ITI	n/a	n/a	n/a	n/a	n/a	n/a	n/a	n/a
32.7178	0.5167	FIXCROSS	n/a	n/a	n/a	n/a	n/a	n/a	n/a	n/a
33.2344	0.8833	T_INK	12	Incongruent	żółty	yellow	zielony	green	hit	n/a
34.099	n/a	RESPONSE	n/a	n/a	n/a	n/a	n/a	n/a	n/a	green
34.1178	0.5167	FEEDBACK	n/a	n/a	n/a	n/a	n/a	n/a	n/a	n/a
34.6344	1.0333	ITI	n/a	n/a	n/a	n/a	n/a	n/a	n/a	n/a
40.5704	n/a	RESPONSE	n/a	n/a	n/a	n/a	n/a	n/a	n/a	n/a
40.6345	1.0167	ITI	n/a	n/a	n/a	n/a	n/a	n/a	n/a	n/a
41.6512	0.5167	FIXCROSS	n/a	n/a	n/a	n/a	n/a	n/a	n/a	n/a
42.1678	0.7667	INK	1	Incongruent	niebieski	blue	czerwony	red	hit	n/a
42.9033	n/a	RESPONSE	n/a	n/a	n/a	n/a	n/a	n/a	n/a	red
42.9345	1.0167	ITI	n/a	n/a	n/a	n/a	n/a	n/a	n/a	n/a
43.9512	0.5167	FIXCROSS	n/a	n/a	n/a	n/a	n/a	n/a	n/a	n/a
44.4679	0.6	INK	2	Neutral	xxxxxxxx	xxxxxxxx	zielony	green	hit	n/a
45.0445	n/a	RESPONSE	n/a	n/a	n/a	n/a	n/a	n/a	n/a	green
45.0679	1.0167	ITI	n/a	n/a	n/a	n/a	n/a	n/a	n/a	n/a
46.0845	0.5167	FIXCROSS	n/a	n/a	n/a	n/a	n/a	n/a	n/a	n/a
46.6012	0.6334	INK	3	Neutral	xxxxx	xxxxx	czerwony	red	hit	n/a
47.2017	n/a	RESPONSE	n/a	n/a	n/a	n/a	n/a	n/a	n/a	red
47.2345	1.0167	ITI	n/a	n/a	n/a	n/a	n/a	n/a	n/a	n/a
48.2512	0.5167	FIXCROSS	n/a	n/a	n/a	n/a	n/a	n/a	n/a	n/a
48.7679	0.7	INK	4	Incongruent	czerwony	red	zielony	green	hit	n/a
49.4387	n/a	RESPONSE	n/a	n/a	n/a	n/a	n/a	n/a	n/a	green
49.4679	1.0167	ITI	n/a	n/a	n/a	n/a	n/a	n/a	n/a	n/a
50.4846	0.5167	FIXCROSS	n/a	n/a	n/a	n/a	n/a	n/a	n/a	n/a
51.0012	0.4833	INK	5	Neutral	xxxxxxxxx	xxxxxxxxx	zielony	green	hit	n/a
51.452	n/a	RESPONSE	n/a	n/a	n/a	n/a	n/a	n/a	n/a	green
51.4846	1.0167	ITI	n/a	n/a	n/a	n/a	n/a	n/a	n/a	n/a
52.5012	0.5167	FIXCROSS	n/a	n/a	n/a	n/a	n/a	n/a	n/a	n/a
53.0179	0.55	INK	6	Neutral	xxxxx	xxxxx	niebieski	blue	hit	n/a
53.5452	n/a	RESPONSE	n/a	n/a	n/a	n/a	n/a	n/a	n/a	blue
53.5679	1.0167	ITI	n/a	n/a	n/a	n/a	n/a	n/a	n/a	n/a
54.5846	0.5167	FIXCROSS	n/a	n/a	n/a	n/a	n/a	n/a	n/a	n/a
55.1013	0.7167	INK	7	Incongruent	niebieski	blue	żółty	yellow	hit	n/a
55.7982	n/a	RESPONSE	n/a	n/a	n/a	n/a	n/a	n/a	n/a	yellow
55.8179	1.0167	ITI	n/a	n/a	n/a	n/a	n/a	n/a	n/a	n/a
56.8346	0.5167	FIXCROSS	n/a	n/a	n/a	n/a	n/a	n/a	n/a	n/a
57.3513	0.5167	INK	8	Neutral	xxxxxxxxx	xxxxxxxxx	zielony	green	hit	n/a
57.8436	n/a	RESPONSE	n/a	n/a	n/a	n/a	n/a	n/a	n/a	green
57.8679	1.0167	ITI	n/a	n/a	n/a	n/a	n/a	n/a	n/a	n/a
58.8846	0.5167	FIXCROSS	n/a	n/a	n/a	n/a	n/a	n/a	n/a	n/a
59.4013	0.5167	INK	9	Incongruent	zielony	green	niebieski	blue	hit	n/a
59.8888	n/a	RESPONSE	n/a	n/a	n/a	n/a	n/a	n/a	n/a	blue
59.918	1.0167	ITI	n/a	n/a	n/a	n/a	n/a	n/a	n/a	n/a
60.9346	0.5167	FIXCROSS	n/a	n/a	n/a	n/a	n/a	n/a	n/a	n/a
61.4513	0.5667	INK	10	Incongruent	zielony	green	żółty	yellow	hit	n/a
61.998	n/a	RESPONSE	n/a	n/a	n/a	n/a	n/a	n/a	n/a	yellow
62.018	1.0167	ITI	n/a	n/a	n/a	n/a	n/a	n/a	n/a	n/a
63.0347	0.5167	FIXCROSS	n/a	n/a	n/a	n/a	n/a	n/a	n/a	n/a
63.5513	0.5167	INK	11	Neutral	xxxxx	xxxxx	zielony	green	hit	n/a
64.0435	n/a	RESPONSE	n/a	n/a	n/a	n/a	n/a	n/a	n/a	green
64.068	1.0167	ITI	n/a	n/a	n/a	n/a	n/a	n/a	n/a	n/a
65.0847	0.5167	FIXCROSS	n/a	n/a	n/a	n/a	n/a	n/a	n/a	n/a
65.6013	0.4	INK	12	Incongruent	zielony	green	niebieski	blue	hit	n/a
65.9769	n/a	RESPONSE	n/a	n/a	n/a	n/a	n/a	n/a	n/a	blue
66.0013	1.0167	ITI	n/a	n/a	n/a	n/a	n/a	n/a	n/a	n/a
67.018	0.5167	FIXCROSS	n/a	n/a	n/a	n/a	n/a	n/a	n/a	n/a
67.5347	0.5667	INK	13	Neutral	xxxxxxxx	xxxxxxxx	zielony	green	hit	n/a
68.0701	n/a	RESPONSE	n/a	n/a	n/a	n/a	n/a	n/a	n/a	green
68.1014	1.0167	ITI	n/a	n/a	n/a	n/a	n/a	n/a	n/a	n/a
69.118	0.5167	FIXCROSS	n/a	n/a	n/a	n/a	n/a	n/a	n/a	n/a
69.6347	0.65	INK	14	Incongruent	czerwony	red	zielony	green	hit	n/a
70.2592	n/a	RESPONSE	n/a	n/a	n/a	n/a	n/a	n/a	n/a	green
70.2847	1.0167	ITI	n/a	n/a	n/a	n/a	n/a	n/a	n/a	n/a
71.3014	0.5167	FIXCROSS	n/a	n/a	n/a	n/a	n/a	n/a	n/a	n/a
71.8181	0.5	INK	15	Neutral	xxxxx	xxxxx	niebieski	blue	hit	n/a
72.2885	n/a	RESPONSE	n/a	n/a	n/a	n/a	n/a	n/a	n/a	blue
72.3181	1.0167	ITI	n/a	n/a	n/a	n/a	n/a	n/a	n/a	n/a
73.3347	0.5167	FIXCROSS	n/a	n/a	n/a	n/a	n/a	n/a	n/a	n/a
73.8514	0.45	INK	16	Incongruent	żółty	yellow	zielony	green	hit	n/a
74.2699	n/a	RESPONSE	n/a	n/a	n/a	n/a	n/a	n/a	n/a	green
74.3014	1.0166	ITI	n/a	n/a	n/a	n/a	n/a	n/a	n/a	n/a
75.318	0.5168	FIXCROSS	n/a	n/a	n/a	n/a	n/a	n/a	n/a	n/a
75.8347	0.45	INK	17	Incongruent	niebieski	blue	zielony	green	hit	n/a
76.2674	n/a	RESPONSE	n/a	n/a	n/a	n/a	n/a	n/a	n/a	green
76.2847	1.0167	ITI	n/a	n/a	n/a	n/a	n/a	n/a	n/a	n/a
77.3014	0.5167	FIXCROSS	n/a	n/a	n/a	n/a	n/a	n/a	n/a	n/a
77.8181	0.6	INK	18	Incongruent	czerwony	red	niebieski	blue	incorrect	n/a
78.3925	n/a	RESPONSE	n/a	n/a	n/a	n/a	n/a	n/a	n/a	red
78.4181	1.0167	ITI	n/a	n/a	n/a	n/a	n/a	n/a	n/a	n/a
79.4348	0.5167	FIXCROSS	n/a	n/a	n/a	n/a	n/a	n/a	n/a	n/a
79.9514	0.75	INK	19	Incongruent	czerwony	red	zielony	green	hit	n/a
80.6774	n/a	RESPONSE	n/a	n/a	n/a	n/a	n/a	n/a	n/a	green
80.7015	1.0167	ITI	n/a	n/a	n/a	n/a	n/a	n/a	n/a	n/a
81.7181	0.5167	FIXCROSS	n/a	n/a	n/a	n/a	n/a	n/a	n/a	n/a
82.2348	0.5167	INK	20	Neutral	xxxxxxx	xxxxxxx	niebieski	blue	hit	n/a
82.7228	n/a	RESPONSE	n/a	n/a	n/a	n/a	n/a	n/a	n/a	blue
82.7515	1.0167	ITI	n/a	n/a	n/a	n/a	n/a	n/a	n/a	n/a
83.7681	0.5167	FIXCROSS	n/a	n/a	n/a	n/a	n/a	n/a	n/a	n/a
84.2848	0.6	INK	21	Neutral	xxxxxxx	xxxxxxx	czerwony	red	hit	n/a
84.864	n/a	RESPONSE	n/a	n/a	n/a	n/a	n/a	n/a	n/a	red
84.8848	1.0167	ITI	n/a	n/a	n/a	n/a	n/a	n/a	n/a	n/a
85.9015	0.5167	FIXCROSS	n/a	n/a	n/a	n/a	n/a	n/a	n/a	n/a
86.4182	0.5833	INK	22	Neutral	xxxxxxxxx	xxxxxxxxx	czerwony	red	hit	n/a
86.9732	n/a	RESPONSE	n/a	n/a	n/a	n/a	n/a	n/a	n/a	red
87.0015	1.0167	ITI	n/a	n/a	n/a	n/a	n/a	n/a	n/a	n/a
88.0182	0.5167	FIXCROSS	n/a	n/a	n/a	n/a	n/a	n/a	n/a	n/a
88.5348	0.65	INK	23	Neutral	xxxxxxx	xxxxxxx	żółty	yellow	hit	n/a
89.1623	n/a	RESPONSE	n/a	n/a	n/a	n/a	n/a	n/a	n/a	yellow
89.1848	1.0167	ITI	n/a	n/a	n/a	n/a	n/a	n/a	n/a	n/a
90.2015	0.5167	FIXCROSS	n/a	n/a	n/a	n/a	n/a	n/a	n/a	n/a
90.7182	0.7	INK	24	Neutral	xxxxxxx	xxxxxxx	czerwony	red	hit	n/a
91.3994	n/a	RESPONSE	n/a	n/a	n/a	n/a	n/a	n/a	n/a	red
91.4182	1.0167	ITI	n/a	n/a	n/a	n/a	n/a	n/a	n/a	n/a
92.4349	0.5167	FIXCROSS	n/a	n/a	n/a	n/a	n/a	n/a	n/a	n/a
92.9515	0.5833	INK	25	Neutral	xxxxxxx	xxxxxxx	niebieski	blue	hit	n/a
93.5086	n/a	RESPONSE	n/a	n/a	n/a	n/a	n/a	n/a	n/a	blue
93.5349	1.0167	ITI	n/a	n/a	n/a	n/a	n/a	n/a	n/a	n/a
94.5516	0.5167	FIXCROSS	n/a	n/a	n/a	n/a	n/a	n/a	n/a	n/a
95.0682	0.4667	INK	26	Neutral	xxxxxxxx	xxxxxxxx	niebieski	blue	hit	n/a
95.506	n/a	RESPONSE	n/a	n/a	n/a	n/a	n/a	n/a	n/a	blue
95.5349	1.0167	ITI	n/a	n/a	n/a	n/a	n/a	n/a	n/a	n/a
96.5516	0.5167	FIXCROSS	n/a	n/a	n/a	n/a	n/a	n/a	n/a	n/a
97.0682	0.7	INK	27	Incongruent	zielony	green	żółty	yellow	hit	n/a
97.7431	n/a	RESPONSE	n/a	n/a	n/a	n/a	n/a	n/a	n/a	yellow
97.7682	1.0167	ITI	n/a	n/a	n/a	n/a	n/a	n/a	n/a	n/a
98.7849	0.5167	FIXCROSS	n/a	n/a	n/a	n/a	n/a	n/a	n/a	n/a
99.3016	0.6333	INK	28	Incongruent	niebieski	blue	zielony	green	hit	n/a
99.9162	n/a	RESPONSE	n/a	n/a	n/a	n/a	n/a	n/a	n/a	green
99.9349	1.0167	ITI	n/a	n/a	n/a	n/a	n/a	n/a	n/a	n/a
100.9516	0.5167	FIXCROSS	n/a	n/a	n/a	n/a	n/a	n/a	n/a	n/a
101.4683	0.65	INK	29	Incongruent	żółty	yellow	czerwony	red	hit	n/a
102.0893	n/a	RESPONSE	n/a	n/a	n/a	n/a	n/a	n/a	n/a	red
102.1183	1.0167	ITI	n/a	n/a	n/a	n/a	n/a	n/a	n/a	n/a
103.1349	0.5167	FIXCROSS	n/a	n/a	n/a	n/a	n/a	n/a	n/a	n/a
103.6516	0.5167	INK	30	Neutral	xxxxxxx	xxxxxxx	czerwony	red	hit	n/a
104.1345	n/a	RESPONSE	n/a	n/a	n/a	n/a	n/a	n/a	n/a	red
104.1683	1.0167	ITI	n/a	n/a	n/a	n/a	n/a	n/a	n/a	n/a
105.185	0.5167	FIXCROSS	n/a	n/a	n/a	n/a	n/a	n/a	n/a	n/a
105.7016	0.5833	INK	31	Neutral	xxxxxxxx	xxxxxxxx	niebieski	blue	hit	n/a
106.2598	n/a	RESPONSE	n/a	n/a	n/a	n/a	n/a	n/a	n/a	blue
106.285	1.0167	ITI	n/a	n/a	n/a	n/a	n/a	n/a	n/a	n/a
107.3016	0.5167	FIXCROSS	n/a	n/a	n/a	n/a	n/a	n/a	n/a	n/a
107.8183	0.5167	INK	32	Neutral	xxxxx	xxxxx	zielony	green	hit	n/a
108.3051	n/a	RESPONSE	n/a	n/a	n/a	n/a	n/a	n/a	n/a	green
108.335	1.0167	ITI	n/a	n/a	n/a	n/a	n/a	n/a	n/a	n/a
109.3517	0.5167	FIXCROSS	n/a	n/a	n/a	n/a	n/a	n/a	n/a	n/a
109.8683	0.5667	INK	33	Neutral	xxxxxxxx	xxxxxxxx	niebieski	blue	hit	n/a
110.4143	n/a	RESPONSE	n/a	n/a	n/a	n/a	n/a	n/a	n/a	blue
110.435	1.0167	ITI	n/a	n/a	n/a	n/a	n/a	n/a	n/a	n/a
111.4517	0.5167	FIXCROSS	n/a	n/a	n/a	n/a	n/a	n/a	n/a	n/a
111.9683	0.6167	INK	34	Neutral	xxxxxxxx	xxxxxxxx	zielony	green	hit	n/a
112.5556	n/a	RESPONSE	n/a	n/a	n/a	n/a	n/a	n/a	n/a	green
112.585	1.0167	ITI	n/a	n/a	n/a	n/a	n/a	n/a	n/a	n/a
113.6017	0.5167	FIXCROSS	n/a	n/a	n/a	n/a	n/a	n/a	n/a	n/a
114.1184	0.4667	INK	35	Incongruent	żółty	yellow	czerwony	red	hit	n/a
114.5529	n/a	RESPONSE	n/a	n/a	n/a	n/a	n/a	n/a	n/a	red
114.585	1.0167	ITI	n/a	n/a	n/a	n/a	n/a	n/a	n/a	n/a
115.6017	0.5167	FIXCROSS	n/a	n/a	n/a	n/a	n/a	n/a	n/a	n/a
116.1184	0.5167	INK	36	Incongruent	czerwony	red	niebieski	blue	hit	n/a
116.6141	n/a	RESPONSE	n/a	n/a	n/a	n/a	n/a	n/a	n/a	blue
116.635	1.0167	ITI	n/a	n/a	n/a	n/a	n/a	n/a	n/a	n/a
117.6517	0.5167	FIXCROSS	n/a	n/a	n/a	n/a	n/a	n/a	n/a	n/a
118.1684	0.6833	INK	37	Incongruent	niebieski	blue	czerwony	red	hit	n/a
118.8192	n/a	RESPONSE	n/a	n/a	n/a	n/a	n/a	n/a	n/a	red
118.8517	1.0167	ITI	n/a	n/a	n/a	n/a	n/a	n/a	n/a	n/a
119.8684	0.5167	FIXCROSS	n/a	n/a	n/a	n/a	n/a	n/a	n/a	n/a
120.3851	0.5833	INK	38	Neutral	xxxxxxxxx	xxxxxxxxx	żółty	yellow	hit	n/a
120.9445	n/a	RESPONSE	n/a	n/a	n/a	n/a	n/a	n/a	n/a	yellow
120.9684	1.0167	ITI	n/a	n/a	n/a	n/a	n/a	n/a	n/a	n/a
121.9851	0.5167	FIXCROSS	n/a	n/a	n/a	n/a	n/a	n/a	n/a	n/a
122.5018	0.55	INK	39	Incongruent	zielony	green	niebieski	blue	hit	n/a
123.0218	n/a	RESPONSE	n/a	n/a	n/a	n/a	n/a	n/a	n/a	blue
123.0517	1.0167	ITI	n/a	n/a	n/a	n/a	n/a	n/a	n/a	n/a
124.0684	0.5167	FIXCROSS	n/a	n/a	n/a	n/a	n/a	n/a	n/a	n/a
124.5851	0.5667	INK	40	Neutral	xxxxxxxxx	xxxxxxxxx	czerwony	red	hit	n/a
125.1309	n/a	RESPONSE	n/a	n/a	n/a	n/a	n/a	n/a	n/a	red
125.1518	1.0167	ITI	n/a	n/a	n/a	n/a	n/a	n/a	n/a	n/a
126.1684	0.5167	FIXCROSS	n/a	n/a	n/a	n/a	n/a	n/a	n/a	n/a
126.6851	0.4667	INK	41	Neutral	xxxxx	xxxxx	czerwony	red	hit	n/a
127.1283	n/a	RESPONSE	n/a	n/a	n/a	n/a	n/a	n/a	n/a	red
127.1518	1.0167	ITI	n/a	n/a	n/a	n/a	n/a	n/a	n/a	n/a
128.1685	0.5167	FIXCROSS	n/a	n/a	n/a	n/a	n/a	n/a	n/a	n/a
128.6851	0.5833	INK	42	Incongruent	żółty	yellow	niebieski	blue	hit	n/a
129.2375	n/a	RESPONSE	n/a	n/a	n/a	n/a	n/a	n/a	n/a	blue
129.2685	1.0167	ITI	n/a	n/a	n/a	n/a	n/a	n/a	n/a	n/a
130.2851	0.5167	FIXCROSS	n/a	n/a	n/a	n/a	n/a	n/a	n/a	n/a
130.8018	0.5	INK	43	Incongruent	zielony	green	czerwony	red	hit	n/a
131.2828	n/a	RESPONSE	n/a	n/a	n/a	n/a	n/a	n/a	n/a	red
131.3018	1.0167	ITI	n/a	n/a	n/a	n/a	n/a	n/a	n/a	n/a
132.3185	0.5167	FIXCROSS	n/a	n/a	n/a	n/a	n/a	n/a	n/a	n/a
132.8352	0.5667	INK	44	Neutral	xxxxx	xxxxx	niebieski	blue	hit	n/a
133.3761	n/a	RESPONSE	n/a	n/a	n/a	n/a	n/a	n/a	n/a	blue
133.4018	1.0167	ITI	n/a	n/a	n/a	n/a	n/a	n/a	n/a	n/a
134.4185	0.5167	FIXCROSS	n/a	n/a	n/a	n/a	n/a	n/a	n/a	n/a
134.9352	0.5833	INK	45	Incongruent	czerwony	red	niebieski	blue	hit	n/a
135.4853	n/a	RESPONSE	n/a	n/a	n/a	n/a	n/a	n/a	n/a	blue
135.5185	1.0167	ITI	n/a	n/a	n/a	n/a	n/a	n/a	n/a	n/a
136.5352	0.5167	FIXCROSS	n/a	n/a	n/a	n/a	n/a	n/a	n/a	n/a
137.0519	0.5333	INK	46	Incongruent	czerwony	red	żółty	yellow	hit	n/a
137.5626	n/a	RESPONSE	n/a	n/a	n/a	n/a	n/a	n/a	n/a	yellow
137.5852	1.0167	ITI	n/a	n/a	n/a	n/a	n/a	n/a	n/a	n/a
138.6019	0.5167	FIXCROSS	n/a	n/a	n/a	n/a	n/a	n/a	n/a	n/a
139.1185	0.5833	INK	47	Neutral	xxxxxxx	xxxxxxx	niebieski	blue	hit	n/a
139.6717	n/a	RESPONSE	n/a	n/a	n/a	n/a	n/a	n/a	n/a	blue
139.7019	1.0167	ITI	n/a	n/a	n/a	n/a	n/a	n/a	n/a	n/a
140.7186	0.5167	FIXCROSS	n/a	n/a	n/a	n/a	n/a	n/a	n/a	n/a
141.2352	0.55	INK	48	Neutral	xxxxx	xxxxx	czerwony	red	hit	n/a
141.765	n/a	RESPONSE	n/a	n/a	n/a	n/a	n/a	n/a	n/a	red
141.7852	1.0167	ITI	n/a	n/a	n/a	n/a	n/a	n/a	n/a	n/a
142.8019	0.5167	FIXCROSS	n/a	n/a	n/a	n/a	n/a	n/a	n/a	n/a
143.3186	0.6167	INK	49	Incongruent	czerwony	red	żółty	yellow	hit	n/a
143.9062	n/a	RESPONSE	n/a	n/a	n/a	n/a	n/a	n/a	n/a	yellow
143.9352	1.0167	ITI	n/a	n/a	n/a	n/a	n/a	n/a	n/a	n/a
144.9519	0.5167	FIXCROSS	n/a	n/a	n/a	n/a	n/a	n/a	n/a	n/a
145.4686	0.5833	INK	50	Incongruent	żółty	yellow	zielony	green	hit	n/a
146.0312	n/a	RESPONSE	n/a	n/a	n/a	n/a	n/a	n/a	n/a	green
146.0519	1.0167	ITI	n/a	n/a	n/a	n/a	n/a	n/a	n/a	n/a
147.0686	0.5167	FIXCROSS	n/a	n/a	n/a	n/a	n/a	n/a	n/a	n/a
147.5853	0.7833	INK	51	Incongruent	niebieski	blue	zielony	green	hit	n/a
148.3483	n/a	RESPONSE	n/a	n/a	n/a	n/a	n/a	n/a	n/a	green
148.3686	1.0167	ITI	n/a	n/a	n/a	n/a	n/a	n/a	n/a	n/a
149.3853	0.5167	FIXCROSS	n/a	n/a	n/a	n/a	n/a	n/a	n/a	n/a
149.902	0.55	INK	52	Neutral	xxxxxxx	xxxxxxx	żółty	yellow	hit	n/a
150.4256	n/a	RESPONSE	n/a	n/a	n/a	n/a	n/a	n/a	n/a	yellow
150.452	1.0167	ITI	n/a	n/a	n/a	n/a	n/a	n/a	n/a	n/a
151.4686	0.5167	FIXCROSS	n/a	n/a	n/a	n/a	n/a	n/a	n/a	n/a
151.9853	0.5667	INK	53	Neutral	xxxxx	xxxxx	zielony	green	hit	n/a
152.5188	n/a	RESPONSE	n/a	n/a	n/a	n/a	n/a	n/a	n/a	green
152.552	1.0167	ITI	n/a	n/a	n/a	n/a	n/a	n/a	n/a	n/a
153.5686	0.5167	FIXCROSS	n/a	n/a	n/a	n/a	n/a	n/a	n/a	n/a
154.0853	0.6333	INK	54	Incongruent	żółty	yellow	czerwony	red	hit	n/a
154.6919	n/a	RESPONSE	n/a	n/a	n/a	n/a	n/a	n/a	n/a	red
154.7186	1.0167	ITI	n/a	n/a	n/a	n/a	n/a	n/a	n/a	n/a
155.7353	0.5167	FIXCROSS	n/a	n/a	n/a	n/a	n/a	n/a	n/a	n/a
156.252	0.4834	INK	55	Neutral	xxxxxxxx	xxxxxxxx	żółty	yellow	hit	n/a
156.7052	n/a	RESPONSE	n/a	n/a	n/a	n/a	n/a	n/a	n/a	yellow
156.7353	1.0167	ITI	n/a	n/a	n/a	n/a	n/a	n/a	n/a	n/a
157.752	0.5167	FIXCROSS	n/a	n/a	n/a	n/a	n/a	n/a	n/a	n/a
158.2687	0.6	INK	56	Incongruent	czerwony	red	żółty	yellow	hit	n/a
158.8465	n/a	RESPONSE	n/a	n/a	n/a	n/a	n/a	n/a	n/a	yellow
158.8687	1.0167	ITI	n/a	n/a	n/a	n/a	n/a	n/a	n/a	n/a
159.8853	0.5167	FIXCROSS	n/a	n/a	n/a	n/a	n/a	n/a	n/a	n/a
160.402	0.4667	INK	57	Neutral	xxxxxxxx	xxxxxxxx	żółty	yellow	hit	n/a
160.8439	n/a	RESPONSE	n/a	n/a	n/a	n/a	n/a	n/a	n/a	yellow
160.8687	1.0167	ITI	n/a	n/a	n/a	n/a	n/a	n/a	n/a	n/a
161.8854	0.5167	FIXCROSS	n/a	n/a	n/a	n/a	n/a	n/a	n/a	n/a
162.402	0.4167	INK	58	Incongruent	zielony	green	żółty	yellow	hit	n/a
162.7933	n/a	RESPONSE	n/a	n/a	n/a	n/a	n/a	n/a	n/a	yellow
162.8187	1.0167	ITI	n/a	n/a	n/a	n/a	n/a	n/a	n/a	n/a
163.8354	0.5167	FIXCROSS	n/a	n/a	n/a	n/a	n/a	n/a	n/a	n/a
164.352	0.4833	INK	59	Incongruent	niebieski	blue	żółty	yellow	hit	n/a
164.8067	n/a	RESPONSE	n/a	n/a	n/a	n/a	n/a	n/a	n/a	yellow
164.8354	1.0167	ITI	n/a	n/a	n/a	n/a	n/a	n/a	n/a	n/a
165.8521	0.5167	FIXCROSS	n/a	n/a	n/a	n/a	n/a	n/a	n/a	n/a
166.3687	0.3833	INK	60	Incongruent	niebieski	blue	żółty	yellow	hit	n/a
166.7242	n/a	RESPONSE	n/a	n/a	n/a	n/a	n/a	n/a	n/a	yellow
166.7521	1.0167	ITI	n/a	n/a	n/a	n/a	n/a	n/a	n/a	n/a
167.7687	0.5167	FIXCROSS	n/a	n/a	n/a	n/a	n/a	n/a	n/a	n/a
168.2854	0.8833	INK	61	Incongruent	niebieski	blue	czerwony	red	hit	n/a
169.137	n/a	RESPONSE	n/a	n/a	n/a	n/a	n/a	n/a	n/a	red
169.1688	1.0167	ITI	n/a	n/a	n/a	n/a	n/a	n/a	n/a	n/a
170.1854	0.5167	FIXCROSS	n/a	n/a	n/a	n/a	n/a	n/a	n/a	n/a
170.7021	0.5333	INK	62	Incongruent	żółty	yellow	niebieski	blue	hit	n/a
171.2142	n/a	RESPONSE	n/a	n/a	n/a	n/a	n/a	n/a	n/a	blue
171.2354	1.0167	ITI	n/a	n/a	n/a	n/a	n/a	n/a	n/a	n/a
172.2521	0.5167	FIXCROSS	n/a	n/a	n/a	n/a	n/a	n/a	n/a	n/a
172.7688	0.5833	INK	63	Incongruent	zielony	green	czerwony	red	hit	n/a
173.3235	n/a	RESPONSE	n/a	n/a	n/a	n/a	n/a	n/a	n/a	red
173.3521	1.0167	ITI	n/a	n/a	n/a	n/a	n/a	n/a	n/a	n/a
174.3688	0.5167	FIXCROSS	n/a	n/a	n/a	n/a	n/a	n/a	n/a	n/a
174.8855	0.4667	INK	64	Incongruent	zielony	green	czerwony	red	hit	n/a
175.3208	n/a	RESPONSE	n/a	n/a	n/a	n/a	n/a	n/a	n/a	red
175.3521	1.0167	ITI	n/a	n/a	n/a	n/a	n/a	n/a	n/a	n/a
176.3688	0.5167	FIXCROSS	n/a	n/a	n/a	n/a	n/a	n/a	n/a	n/a
176.8855	0.5	INK	65	Neutral	xxxxxxxxx	xxxxxxxxx	zielony	green	hit	n/a
177.3662	n/a	RESPONSE	n/a	n/a	n/a	n/a	n/a	n/a	n/a	green
177.3855	1.0167	ITI	n/a	n/a	n/a	n/a	n/a	n/a	n/a	n/a
178.4021	0.5167	FIXCROSS	n/a	n/a	n/a	n/a	n/a	n/a	n/a	n/a
178.9188	0.55	INK	66	Neutral	xxxxxxxxx	xxxxxxxxx	czerwony	red	hit	n/a
179.4435	n/a	RESPONSE	n/a	n/a	n/a	n/a	n/a	n/a	n/a	red
179.4688	1.0167	ITI	n/a	n/a	n/a	n/a	n/a	n/a	n/a	n/a
180.4855	0.5167	FIXCROSS	n/a	n/a	n/a	n/a	n/a	n/a	n/a	n/a
181.0022	0.5667	INK	67	Neutral	xxxxxxx	xxxxxxx	żółty	yellow	hit	n/a
181.5367	n/a	RESPONSE	n/a	n/a	n/a	n/a	n/a	n/a	n/a	yellow
181.5688	1.0167	ITI	n/a	n/a	n/a	n/a	n/a	n/a	n/a	n/a
182.5855	0.5167	FIXCROSS	n/a	n/a	n/a	n/a	n/a	n/a	n/a	n/a
183.1022	0.4833	INK	68	Neutral	xxxxxxxx	xxxxxxxx	żółty	yellow	hit	n/a
183.5661	n/a	RESPONSE	n/a	n/a	n/a	n/a	n/a	n/a	n/a	yellow
183.5855	1.0167	ITI	n/a	n/a	n/a	n/a	n/a	n/a	n/a	n/a
184.6022	0.5167	FIXCROSS	n/a	n/a	n/a	n/a	n/a	n/a	n/a	n/a
185.1189	0.35	INK	69	Neutral	xxxxxxxxx	xxxxxxxxx	żółty	yellow	hit	n/a
185.4356	n/a	RESPONSE	n/a	n/a	n/a	n/a	n/a	n/a	n/a	yellow
185.4689	1.0167	ITI	n/a	n/a	n/a	n/a	n/a	n/a	n/a	n/a
186.4855	0.5167	FIXCROSS	n/a	n/a	n/a	n/a	n/a	n/a	n/a	n/a
187.0022	0.65	INK	70	Incongruent	żółty	yellow	niebieski	blue	hit	n/a
187.6247	n/a	RESPONSE	n/a	n/a	n/a	n/a	n/a	n/a	n/a	blue
187.6522	1.0167	ITI	n/a	n/a	n/a	n/a	n/a	n/a	n/a	n/a
188.6689	0.5167	FIXCROSS	n/a	n/a	n/a	n/a	n/a	n/a	n/a	n/a
189.1856	0.4833	INK	71	Neutral	xxxxxxxxx	xxxxxxxxx	żółty	yellow	hit	n/a
189.638	n/a	RESPONSE	n/a	n/a	n/a	n/a	n/a	n/a	n/a	yellow
189.6689	1.0167	ITI	n/a	n/a	n/a	n/a	n/a	n/a	n/a	n/a
190.6856	0.5167	FIXCROSS	n/a	n/a	n/a	n/a	n/a	n/a	n/a	n/a
191.2022	0.5833	INK	72	Incongruent	żółty	yellow	zielony	green	hit	n/a
191.7632	n/a	RESPONSE	n/a	n/a	n/a	n/a	n/a	n/a	n/a	green
191.7856	1.0833	ITI	n/a	n/a	n/a	n/a	n/a	n/a	n/a	n/a
219.3749	n/a	RESPONSE	n/a	n/a	n/a	n/a	n/a	n/a	n/a	n/a
219.4358	1.0167	ITI	n/a	n/a	n/a	n/a	n/a	n/a	n/a	n/a
220.4524	0.5167	FIXCROSS	n/a	n/a	n/a	n/a	n/a	n/a	n/a	n/a
220.9691	1.05	T_COLOR_NAME	1	Neutral	żółty	yellow	Neutral	Neutral	hit	n/a
221.9955	n/a	RESPONSE	n/a	n/a	n/a	n/a	n/a	n/a	n/a	yellow
222.0191	0.5167	FEEDBACK	n/a	n/a	n/a	n/a	n/a	n/a	n/a	n/a
222.5358	1.0167	ITI	n/a	n/a	n/a	n/a	n/a	n/a	n/a	n/a
223.5525	0.5167	FIXCROSS	n/a	n/a	n/a	n/a	n/a	n/a	n/a	n/a
224.0691	1.4833	T_COLOR_NAME	2	Neutral	zielony	green	Neutral	Neutral	hit	n/a
225.5268	n/a	RESPONSE	n/a	n/a	n/a	n/a	n/a	n/a	n/a	green
225.5525	0.5167	FEEDBACK	n/a	n/a	n/a	n/a	n/a	n/a	n/a	n/a
226.0691	1.0167	ITI	n/a	n/a	n/a	n/a	n/a	n/a	n/a	n/a
227.0858	0.5167	FIXCROSS	n/a	n/a	n/a	n/a	n/a	n/a	n/a	n/a
227.6025	0.7667	T_COLOR_NAME	3	Neutral	niebieski	blue	Neutral	Neutral	hit	n/a
228.3392	n/a	RESPONSE	n/a	n/a	n/a	n/a	n/a	n/a	n/a	blue
228.3692	0.5167	FEEDBACK	n/a	n/a	n/a	n/a	n/a	n/a	n/a	n/a
228.8858	1.0167	ITI	n/a	n/a	n/a	n/a	n/a	n/a	n/a	n/a
229.9025	0.5167	FIXCROSS	n/a	n/a	n/a	n/a	n/a	n/a	n/a	n/a
230.4192	3.7334	T_COLOR_NAME	4	Incongruent	zielony	green	niebieski	blue	hit	n/a
234.1236	n/a	RESPONSE	n/a	n/a	n/a	n/a	n/a	n/a	n/a	green
234.1525	0.5167	FEEDBACK	n/a	n/a	n/a	n/a	n/a	n/a	n/a	n/a
234.6692	1.0167	ITI	n/a	n/a	n/a	n/a	n/a	n/a	n/a	n/a
235.6859	0.5167	FIXCROSS	n/a	n/a	n/a	n/a	n/a	n/a	n/a	n/a
236.2026	1.2167	T_COLOR_NAME	5	Incongruent	czerwony	red	zielony	green	hit	n/a
237.3833	n/a	RESPONSE	n/a	n/a	n/a	n/a	n/a	n/a	n/a	red
237.4192	0.5167	FEEDBACK	n/a	n/a	n/a	n/a	n/a	n/a	n/a	n/a
237.9359	1.0167	ITI	n/a	n/a	n/a	n/a	n/a	n/a	n/a	n/a
238.9526	0.5167	FIXCROSS	n/a	n/a	n/a	n/a	n/a	n/a	n/a	n/a
239.4692	0.95	T_COLOR_NAME	6	Incongruent	żółty	yellow	zielony	green	hit	n/a
240.3874	n/a	RESPONSE	n/a	n/a	n/a	n/a	n/a	n/a	n/a	yellow
240.4192	0.5167	FEEDBACK	n/a	n/a	n/a	n/a	n/a	n/a	n/a	n/a
240.9359	1.0167	ITI	n/a	n/a	n/a	n/a	n/a	n/a	n/a	n/a
241.9526	0.5167	FIXCROSS	n/a	n/a	n/a	n/a	n/a	n/a	n/a	n/a
242.4693	1.1	T_COLOR_NAME	7	Neutral	zielony	green	Neutral	Neutral	hit	n/a
243.5351	n/a	RESPONSE	n/a	n/a	n/a	n/a	n/a	n/a	n/a	green
243.5693	0.5167	FEEDBACK	n/a	n/a	n/a	n/a	n/a	n/a	n/a	n/a
244.0859	1.0167	ITI	n/a	n/a	n/a	n/a	n/a	n/a	n/a	n/a
245.1026	0.5167	FIXCROSS	n/a	n/a	n/a	n/a	n/a	n/a	n/a	n/a
245.6193	0.7833	T_COLOR_NAME	8	Incongruent	czerwony	red	żółty	yellow	hit	n/a
246.3795	n/a	RESPONSE	n/a	n/a	n/a	n/a	n/a	n/a	n/a	red
246.4026	0.5167	FEEDBACK	n/a	n/a	n/a	n/a	n/a	n/a	n/a	n/a
246.9193	1.0167	ITI	n/a	n/a	n/a	n/a	n/a	n/a	n/a	n/a
247.936	0.5167	FIXCROSS	n/a	n/a	n/a	n/a	n/a	n/a	n/a	n/a
248.4526	1.0333	T_COLOR_NAME	9	Incongruent	żółty	yellow	niebieski	blue	hit	n/a
249.4634	n/a	RESPONSE	n/a	n/a	n/a	n/a	n/a	n/a	n/a	yellow
249.486	0.5167	FEEDBACK	n/a	n/a	n/a	n/a	n/a	n/a	n/a	n/a
250.0027	1.0167	ITI	n/a	n/a	n/a	n/a	n/a	n/a	n/a	n/a
251.0193	0.5167	FIXCROSS	n/a	n/a	n/a	n/a	n/a	n/a	n/a	n/a
251.536	0.6	T_COLOR_NAME	10	Neutral	żółty	yellow	Neutral	Neutral	hit	n/a
252.1159	n/a	RESPONSE	n/a	n/a	n/a	n/a	n/a	n/a	n/a	yellow
252.136	0.5167	FEEDBACK	n/a	n/a	n/a	n/a	n/a	n/a	n/a	n/a
252.6527	1.0167	ITI	n/a	n/a	n/a	n/a	n/a	n/a	n/a	n/a
253.6694	0.5167	FIXCROSS	n/a	n/a	n/a	n/a	n/a	n/a	n/a	n/a
254.186	0.55	T_COLOR_NAME	11	Neutral	żółty	yellow	Neutral	Neutral	hit	n/a
254.7045	n/a	RESPONSE	n/a	n/a	n/a	n/a	n/a	n/a	n/a	yellow
254.736	0.5167	FEEDBACK	n/a	n/a	n/a	n/a	n/a	n/a	n/a	n/a
255.2527	1.0167	ITI	n/a	n/a	n/a	n/a	n/a	n/a	n/a	n/a
256.2694	0.5167	FIXCROSS	n/a	n/a	n/a	n/a	n/a	n/a	n/a	n/a
256.786	0.75	T_COLOR_NAME	12	Neutral	zielony	green	Neutral	Neutral	hit	n/a
257.5167	n/a	RESPONSE	n/a	n/a	n/a	n/a	n/a	n/a	n/a	green
257.536	0.5167	FEEDBACK	n/a	n/a	n/a	n/a	n/a	n/a	n/a	n/a
258.0527	1.0334	ITI	n/a	n/a	n/a	n/a	n/a	n/a	n/a	n/a
262.5181	n/a	RESPONSE	n/a	n/a	n/a	n/a	n/a	n/a	n/a	n/a
262.5694	1.0167	ITI	n/a	n/a	n/a	n/a	n/a	n/a	n/a	n/a
263.5861	0.5167	FIXCROSS	n/a	n/a	n/a	n/a	n/a	n/a	n/a	n/a
264.1028	0.7833	COLOR_NAME	1	Incongruent	zielony	green	czerwony	red	hit	n/a
264.8671	n/a	RESPONSE	n/a	n/a	n/a	n/a	n/a	n/a	n/a	green
264.8861	1.0167	ITI	n/a	n/a	n/a	n/a	n/a	n/a	n/a	n/a
265.9028	0.5167	FIXCROSS	n/a	n/a	n/a	n/a	n/a	n/a	n/a	n/a
266.4194	0.6833	COLOR_NAME	2	Neutral	niebieski	blue	Neutral	Neutral	hit	n/a
267.0722	n/a	RESPONSE	n/a	n/a	n/a	n/a	n/a	n/a	n/a	blue
267.1028	1.0167	ITI	n/a	n/a	n/a	n/a	n/a	n/a	n/a	n/a
268.1195	0.5167	FIXCROSS	n/a	n/a	n/a	n/a	n/a	n/a	n/a	n/a
268.6361	0.7667	COLOR_NAME	3	Incongruent	zielony	green	żółty	yellow	incorrect	n/a
269.3732	n/a	RESPONSE	n/a	n/a	n/a	n/a	n/a	n/a	n/a	yellow
269.4028	1.0167	ITI	n/a	n/a	n/a	n/a	n/a	n/a	n/a	n/a
270.4195	0.5167	FIXCROSS	n/a	n/a	n/a	n/a	n/a	n/a	n/a	n/a
270.9361	0.7333	COLOR_NAME	4	Incongruent	czerwony	red	zielony	green	incorrect	n/a
271.6421	n/a	RESPONSE	n/a	n/a	n/a	n/a	n/a	n/a	n/a	green
271.6695	1.0167	ITI	n/a	n/a	n/a	n/a	n/a	n/a	n/a	n/a
272.6862	0.5167	FIXCROSS	n/a	n/a	n/a	n/a	n/a	n/a	n/a	n/a
273.2028	0.7833	COLOR_NAME	5	Incongruent	niebieski	blue	zielony	green	hit	n/a
273.9591	n/a	RESPONSE	n/a	n/a	n/a	n/a	n/a	n/a	n/a	blue
273.9862	1.0167	ITI	n/a	n/a	n/a	n/a	n/a	n/a	n/a	n/a
275.0028	0.5167	FIXCROSS	n/a	n/a	n/a	n/a	n/a	n/a	n/a	n/a
275.5195	0.7167	COLOR_NAME	6	Neutral	niebieski	blue	Neutral	Neutral	hit	n/a
276.2123	n/a	RESPONSE	n/a	n/a	n/a	n/a	n/a	n/a	n/a	blue
276.2362	1.0167	ITI	n/a	n/a	n/a	n/a	n/a	n/a	n/a	n/a
277.2528	0.5167	FIXCROSS	n/a	n/a	n/a	n/a	n/a	n/a	n/a	n/a
277.7695	0.9667	COLOR_NAME	7	Incongruent	zielony	green	czerwony	red	incorrect	n/a
278.705	n/a	RESPONSE	n/a	n/a	n/a	n/a	n/a	n/a	n/a	red
278.7362	1.0167	ITI	n/a	n/a	n/a	n/a	n/a	n/a	n/a	n/a
279.7529	0.5167	FIXCROSS	n/a	n/a	n/a	n/a	n/a	n/a	n/a	n/a
280.2695	1.3333	COLOR_NAME	8	Incongruent	czerwony	red	żółty	yellow	hit	n/a
281.5812	n/a	RESPONSE	n/a	n/a	n/a	n/a	n/a	n/a	n/a	red
281.6029	1.0167	ITI	n/a	n/a	n/a	n/a	n/a	n/a	n/a	n/a
282.6195	0.5167	FIXCROSS	n/a	n/a	n/a	n/a	n/a	n/a	n/a	n/a
283.1362	1.15	COLOR_NAME	9	Incongruent	czerwony	red	niebieski	blue	hit	n/a
284.2656	n/a	RESPONSE	n/a	n/a	n/a	n/a	n/a	n/a	n/a	red
284.2862	1.0167	ITI	n/a	n/a	n/a	n/a	n/a	n/a	n/a	n/a
285.3029	0.5167	FIXCROSS	n/a	n/a	n/a	n/a	n/a	n/a	n/a	n/a
285.8196	0.9	COLOR_NAME	10	Neutral	niebieski	blue	Neutral	Neutral	hit	n/a
286.6945	n/a	RESPONSE	n/a	n/a	n/a	n/a	n/a	n/a	n/a	blue
286.7196	1.0167	ITI	n/a	n/a	n/a	n/a	n/a	n/a	n/a	n/a
287.7362	0.5167	FIXCROSS	n/a	n/a	n/a	n/a	n/a	n/a	n/a	n/a
288.2529	0.7	COLOR_NAME	11	Neutral	żółty	yellow	Neutral	Neutral	hit	n/a
288.9314	n/a	RESPONSE	n/a	n/a	n/a	n/a	n/a	n/a	n/a	yellow
288.9529	1.0167	ITI	n/a	n/a	n/a	n/a	n/a	n/a	n/a	n/a
289.9696	0.5167	FIXCROSS	n/a	n/a	n/a	n/a	n/a	n/a	n/a	n/a
290.4863	0.9333	COLOR_NAME	12	Neutral	czerwony	red	Neutral	Neutral	hit	n/a
291.3923	n/a	RESPONSE	n/a	n/a	n/a	n/a	n/a	n/a	n/a	red
291.4196	1.0167	ITI	n/a	n/a	n/a	n/a	n/a	n/a	n/a	n/a
292.4363	0.5167	FIXCROSS	n/a	n/a	n/a	n/a	n/a	n/a	n/a	n/a
292.953	0.65	COLOR_NAME	13	Neutral	czerwony	red	Neutral	Neutral	hit	n/a
293.5814	n/a	RESPONSE	n/a	n/a	n/a	n/a	n/a	n/a	n/a	red
293.603	1.0167	ITI	n/a	n/a	n/a	n/a	n/a	n/a	n/a	n/a
294.6196	0.5167	FIXCROSS	n/a	n/a	n/a	n/a	n/a	n/a	n/a	n/a
295.1363	0.6833	COLOR_NAME	14	Neutral	zielony	green	Neutral	Neutral	hit	n/a
295.7865	n/a	RESPONSE	n/a	n/a	n/a	n/a	n/a	n/a	n/a	green
295.8196	1.0167	ITI	n/a	n/a	n/a	n/a	n/a	n/a	n/a	n/a
296.8363	0.5167	FIXCROSS	n/a	n/a	n/a	n/a	n/a	n/a	n/a	n/a
297.353	0.6833	COLOR_NAME	15	Neutral	niebieski	blue	Neutral	Neutral	hit	n/a
298.0076	n/a	RESPONSE	n/a	n/a	n/a	n/a	n/a	n/a	n/a	blue
298.0363	1.0167	ITI	n/a	n/a	n/a	n/a	n/a	n/a	n/a	n/a
299.053	0.5167	FIXCROSS	n/a	n/a	n/a	n/a	n/a	n/a	n/a	n/a
299.5697	0.6333	COLOR_NAME	16	Neutral	zielony	green	Neutral	Neutral	hit	n/a
300.1807	n/a	RESPONSE	n/a	n/a	n/a	n/a	n/a	n/a	n/a	green
300.203	1.0167	ITI	n/a	n/a	n/a	n/a	n/a	n/a	n/a	n/a
301.2197	0.5167	FIXCROSS	n/a	n/a	n/a	n/a	n/a	n/a	n/a	n/a
301.7363	0.9833	COLOR_NAME	17	Incongruent	zielony	green	niebieski	blue	hit	n/a
302.6894	n/a	RESPONSE	n/a	n/a	n/a	n/a	n/a	n/a	n/a	green
302.7197	1.0167	ITI	n/a	n/a	n/a	n/a	n/a	n/a	n/a	n/a
303.7364	0.5167	FIXCROSS	n/a	n/a	n/a	n/a	n/a	n/a	n/a	n/a
304.253	0.8	COLOR_NAME	18	Neutral	żółty	yellow	Neutral	Neutral	hit	n/a
305.0224	n/a	RESPONSE	n/a	n/a	n/a	n/a	n/a	n/a	n/a	yellow
305.053	1.0167	ITI	n/a	n/a	n/a	n/a	n/a	n/a	n/a	n/a
306.0697	0.5167	FIXCROSS	n/a	n/a	n/a	n/a	n/a	n/a	n/a	n/a
306.5864	0.5667	COLOR_NAME	19	Neutral	żółty	yellow	Neutral	Neutral	hit	n/a
307.1316	n/a	RESPONSE	n/a	n/a	n/a	n/a	n/a	n/a	n/a	yellow
307.153	1.0167	ITI	n/a	n/a	n/a	n/a	n/a	n/a	n/a	n/a
308.1697	0.5167	FIXCROSS	n/a	n/a	n/a	n/a	n/a	n/a	n/a	n/a
308.6864	0.5833	COLOR_NAME	20	Incongruent	żółty	yellow	niebieski	blue	hit	n/a
309.2408	n/a	RESPONSE	n/a	n/a	n/a	n/a	n/a	n/a	n/a	yellow
309.2697	1.0167	ITI	n/a	n/a	n/a	n/a	n/a	n/a	n/a	n/a
310.2864	0.5167	FIXCROSS	n/a	n/a	n/a	n/a	n/a	n/a	n/a	n/a
310.8031	0.9333	COLOR_NAME	21	Incongruent	czerwony	red	zielony	green	hit	n/a
311.7177	n/a	RESPONSE	n/a	n/a	n/a	n/a	n/a	n/a	n/a	red
311.7364	1.0167	ITI	n/a	n/a	n/a	n/a	n/a	n/a	n/a	n/a
312.7531	0.5167	FIXCROSS	n/a	n/a	n/a	n/a	n/a	n/a	n/a	n/a
313.2698	1.5167	COLOR_NAME	22	Incongruent	zielony	green	żółty	yellow	hit	n/a
314.7537	n/a	RESPONSE	n/a	n/a	n/a	n/a	n/a	n/a	n/a	green
314.7864	1.0167	ITI	n/a	n/a	n/a	n/a	n/a	n/a	n/a	n/a
315.8031	0.5167	FIXCROSS	n/a	n/a	n/a	n/a	n/a	n/a	n/a	n/a
316.3198	0.75	COLOR_NAME	23	Neutral	żółty	yellow	Neutral	Neutral	hit	n/a
317.0386	n/a	RESPONSE	n/a	n/a	n/a	n/a	n/a	n/a	n/a	yellow
317.0698	1.0167	ITI	n/a	n/a	n/a	n/a	n/a	n/a	n/a	n/a
318.0865	0.5167	FIXCROSS	n/a	n/a	n/a	n/a	n/a	n/a	n/a	n/a
318.6031	0.7667	COLOR_NAME	24	Neutral	czerwony	red	Neutral	Neutral	hit	n/a
319.3397	n/a	RESPONSE	n/a	n/a	n/a	n/a	n/a	n/a	n/a	red
319.3698	1.0167	ITI	n/a	n/a	n/a	n/a	n/a	n/a	n/a	n/a
320.3865	0.5167	FIXCROSS	n/a	n/a	n/a	n/a	n/a	n/a	n/a	n/a
320.9032	1.1667	COLOR_NAME	25	Incongruent	niebieski	blue	zielony	green	hit	n/a
322.0401	n/a	RESPONSE	n/a	n/a	n/a	n/a	n/a	n/a	n/a	blue
322.0698	1.0167	ITI	n/a	n/a	n/a	n/a	n/a	n/a	n/a	n/a
323.0865	0.5167	FIXCROSS	n/a	n/a	n/a	n/a	n/a	n/a	n/a	n/a
323.6032	1.0167	COLOR_NAME	26	Incongruent	żółty	yellow	zielony	green	hit	n/a
324.5968	n/a	RESPONSE	n/a	n/a	n/a	n/a	n/a	n/a	n/a	yellow
324.6198	1.0167	ITI	n/a	n/a	n/a	n/a	n/a	n/a	n/a	n/a
325.6365	0.5167	FIXCROSS	n/a	n/a	n/a	n/a	n/a	n/a	n/a	n/a
326.1532	0.55	COLOR_NAME	27	Neutral	żółty	yellow	Neutral	Neutral	hit	n/a
326.674	n/a	RESPONSE	n/a	n/a	n/a	n/a	n/a	n/a	n/a	yellow
326.7032	1.0167	ITI	n/a	n/a	n/a	n/a	n/a	n/a	n/a	n/a
327.7199	0.5167	FIXCROSS	n/a	n/a	n/a	n/a	n/a	n/a	n/a	n/a
328.2365	0.4333	COLOR_NAME	28	Incongruent	żółty	yellow	zielony	green	hit	n/a
328.6395	n/a	RESPONSE	n/a	n/a	n/a	n/a	n/a	n/a	n/a	yellow
328.6699	1.0167	ITI	n/a	n/a	n/a	n/a	n/a	n/a	n/a	n/a
329.6865	0.5167	FIXCROSS	n/a	n/a	n/a	n/a	n/a	n/a	n/a	n/a
330.2032	0.7333	COLOR_NAME	29	Neutral	zielony	green	Neutral	Neutral	hit	n/a
330.9085	n/a	RESPONSE	n/a	n/a	n/a	n/a	n/a	n/a	n/a	green
330.9366	1.0167	ITI	n/a	n/a	n/a	n/a	n/a	n/a	n/a	n/a
331.9532	0.5167	FIXCROSS	n/a	n/a	n/a	n/a	n/a	n/a	n/a	n/a
332.4699	0.5333	COLOR_NAME	30	Incongruent	żółty	yellow	niebieski	blue	hit	n/a
332.9858	n/a	RESPONSE	n/a	n/a	n/a	n/a	n/a	n/a	n/a	yellow
333.0032	1.0167	ITI	n/a	n/a	n/a	n/a	n/a	n/a	n/a	n/a
334.0199	0.5167	FIXCROSS	n/a	n/a	n/a	n/a	n/a	n/a	n/a	n/a
334.5366	0.7833	COLOR_NAME	31	Neutral	niebieski	blue	Neutral	Neutral	hit	n/a
335.2868	n/a	RESPONSE	n/a	n/a	n/a	n/a	n/a	n/a	n/a	blue
335.3199	1.0167	ITI	n/a	n/a	n/a	n/a	n/a	n/a	n/a	n/a
336.3366	0.5167	FIXCROSS	n/a	n/a	n/a	n/a	n/a	n/a	n/a	n/a
336.8533	0.5667	COLOR_NAME	32	Neutral	żółty	yellow	Neutral	Neutral	hit	n/a
337.396	n/a	RESPONSE	n/a	n/a	n/a	n/a	n/a	n/a	n/a	yellow
337.4199	1.0167	ITI	n/a	n/a	n/a	n/a	n/a	n/a	n/a	n/a
338.4366	0.5167	FIXCROSS	n/a	n/a	n/a	n/a	n/a	n/a	n/a	n/a
338.9533	0.6667	COLOR_NAME	33	Incongruent	czerwony	red	zielony	green	hit	n/a
339.6011	n/a	RESPONSE	n/a	n/a	n/a	n/a	n/a	n/a	n/a	red
339.6199	1.0167	ITI	n/a	n/a	n/a	n/a	n/a	n/a	n/a	n/a
340.6366	0.5167	FIXCROSS	n/a	n/a	n/a	n/a	n/a	n/a	n/a	n/a
341.1533	1.0333	COLOR_NAME	34	Incongruent	czerwony	red	niebieski	blue	hit	n/a
342.1577	n/a	RESPONSE	n/a	n/a	n/a	n/a	n/a	n/a	n/a	red
342.1866	1.0167	ITI	n/a	n/a	n/a	n/a	n/a	n/a	n/a	n/a
343.2033	0.5167	FIXCROSS	n/a	n/a	n/a	n/a	n/a	n/a	n/a	n/a
343.72	0.6833	COLOR_NAME	35	Neutral	zielony	green	Neutral	Neutral	hit	n/a
344.3788	n/a	RESPONSE	n/a	n/a	n/a	n/a	n/a	n/a	n/a	green
344.4033	1.0167	ITI	n/a	n/a	n/a	n/a	n/a	n/a	n/a	n/a
345.42	0.5167	FIXCROSS	n/a	n/a	n/a	n/a	n/a	n/a	n/a	n/a
345.9367	0.75	COLOR_NAME	36	Neutral	żółty	yellow	Neutral	Neutral	hit	n/a
346.6638	n/a	RESPONSE	n/a	n/a	n/a	n/a	n/a	n/a	n/a	yellow
346.6867	1.0167	ITI	n/a	n/a	n/a	n/a	n/a	n/a	n/a	n/a
347.7033	0.5167	FIXCROSS	n/a	n/a	n/a	n/a	n/a	n/a	n/a	n/a
348.22	0.7833	COLOR_NAME	37	Incongruent	niebieski	blue	żółty	yellow	hit	n/a
348.9807	n/a	RESPONSE	n/a	n/a	n/a	n/a	n/a	n/a	n/a	blue
349.0033	1.0167	ITI	n/a	n/a	n/a	n/a	n/a	n/a	n/a	n/a
350.02	0.5167	FIXCROSS	n/a	n/a	n/a	n/a	n/a	n/a	n/a	n/a
350.5367	0.7	COLOR_NAME	38	Incongruent	czerwony	red	żółty	yellow	hit	n/a
351.2178	n/a	RESPONSE	n/a	n/a	n/a	n/a	n/a	n/a	n/a	red
351.2367	1.0167	ITI	n/a	n/a	n/a	n/a	n/a	n/a	n/a	n/a
352.2534	0.5167	FIXCROSS	n/a	n/a	n/a	n/a	n/a	n/a	n/a	n/a
352.77	0.6	COLOR_NAME	39	Neutral	czerwony	red	Neutral	Neutral	hit	n/a
353.3431	n/a	RESPONSE	n/a	n/a	n/a	n/a	n/a	n/a	n/a	red
353.37	1.0167	ITI	n/a	n/a	n/a	n/a	n/a	n/a	n/a	n/a
354.3867	0.5167	FIXCROSS	n/a	n/a	n/a	n/a	n/a	n/a	n/a	n/a
354.9034	1.0667	COLOR_NAME	40	Incongruent	niebieski	blue	czerwony	red	hit	n/a
355.9301	n/a	RESPONSE	n/a	n/a	n/a	n/a	n/a	n/a	n/a	blue
355.9701	1.0167	ITI	n/a	n/a	n/a	n/a	n/a	n/a	n/a	n/a
356.9867	0.5167	FIXCROSS	n/a	n/a	n/a	n/a	n/a	n/a	n/a	n/a
357.5034	0.6	COLOR_NAME	41	Incongruent	niebieski	blue	żółty	yellow	hit	n/a
358.0729	n/a	RESPONSE	n/a	n/a	n/a	n/a	n/a	n/a	n/a	blue
358.1034	1.0167	ITI	n/a	n/a	n/a	n/a	n/a	n/a	n/a	n/a
359.1201	0.5167	FIXCROSS	n/a	n/a	n/a	n/a	n/a	n/a	n/a	n/a
359.6367	0.5667	COLOR_NAME	42	Neutral	niebieski	blue	Neutral	Neutral	hit	n/a
360.1821	n/a	RESPONSE	n/a	n/a	n/a	n/a	n/a	n/a	n/a	blue
360.2034	1.0167	ITI	n/a	n/a	n/a	n/a	n/a	n/a	n/a	n/a
361.2201	0.5167	FIXCROSS	n/a	n/a	n/a	n/a	n/a	n/a	n/a	n/a
361.7368	0.5333	COLOR_NAME	43	Neutral	niebieski	blue	Neutral	Neutral	hit	n/a
362.2433	n/a	RESPONSE	n/a	n/a	n/a	n/a	n/a	n/a	n/a	blue
362.2701	1.0167	ITI	n/a	n/a	n/a	n/a	n/a	n/a	n/a	n/a
363.2868	0.5167	FIXCROSS	n/a	n/a	n/a	n/a	n/a	n/a	n/a	n/a
363.8035	0.6833	COLOR_NAME	44	Neutral	zielony	green	Neutral	Neutral	incorrect	n/a
364.4644	n/a	RESPONSE	n/a	n/a	n/a	n/a	n/a	n/a	n/a	red
364.4868	1.0167	ITI	n/a	n/a	n/a	n/a	n/a	n/a	n/a	n/a
365.5035	0.5167	FIXCROSS	n/a	n/a	n/a	n/a	n/a	n/a	n/a	n/a
366.0201	0.6667	COLOR_NAME	45	Neutral	niebieski	blue	Neutral	Neutral	hit	n/a
366.6535	n/a	RESPONSE	n/a	n/a	n/a	n/a	n/a	n/a	n/a	blue
366.6868	1.0167	ITI	n/a	n/a	n/a	n/a	n/a	n/a	n/a	n/a
367.7035	0.5167	FIXCROSS	n/a	n/a	n/a	n/a	n/a	n/a	n/a	n/a
368.2202	0.9333	COLOR_NAME	46	Incongruent	zielony	green	żółty	yellow	hit	n/a
369.1303	n/a	RESPONSE	n/a	n/a	n/a	n/a	n/a	n/a	n/a	green
369.1535	1.0167	ITI	n/a	n/a	n/a	n/a	n/a	n/a	n/a	n/a
370.1702	0.5167	FIXCROSS	n/a	n/a	n/a	n/a	n/a	n/a	n/a	n/a
370.6868	1.2167	COLOR_NAME	47	Incongruent	żółty	yellow	czerwony	red	hit	n/a
371.8787	n/a	RESPONSE	n/a	n/a	n/a	n/a	n/a	n/a	n/a	yellow
371.9035	1.0167	ITI	n/a	n/a	n/a	n/a	n/a	n/a	n/a	n/a
372.9202	0.5167	FIXCROSS	n/a	n/a	n/a	n/a	n/a	n/a	n/a	n/a
373.4368	1.5833	COLOR_NAME	48	Incongruent	żółty	yellow	zielony	green	hit	n/a
374.9945	n/a	RESPONSE	n/a	n/a	n/a	n/a	n/a	n/a	n/a	yellow
375.0202	1.0167	ITI	n/a	n/a	n/a	n/a	n/a	n/a	n/a	n/a
376.0369	0.5167	FIXCROSS	n/a	n/a	n/a	n/a	n/a	n/a	n/a	n/a
376.5535	0.8	COLOR_NAME	49	Incongruent	niebieski	blue	czerwony	red	hit	n/a
377.3275	n/a	RESPONSE	n/a	n/a	n/a	n/a	n/a	n/a	n/a	blue
377.3535	1.0167	ITI	n/a	n/a	n/a	n/a	n/a	n/a	n/a	n/a
378.3702	0.5167	FIXCROSS	n/a	n/a	n/a	n/a	n/a	n/a	n/a	n/a
378.8869	0.8167	COLOR_NAME	50	Incongruent	niebieski	blue	zielony	green	hit	n/a
379.6765	n/a	RESPONSE	n/a	n/a	n/a	n/a	n/a	n/a	n/a	blue
379.7036	1.0167	ITI	n/a	n/a	n/a	n/a	n/a	n/a	n/a	n/a
380.7202	0.5167	FIXCROSS	n/a	n/a	n/a	n/a	n/a	n/a	n/a	n/a
381.2369	0.9833	COLOR_NAME	51	Incongruent	zielony	green	niebieski	blue	hit	n/a
382.2011	n/a	RESPONSE	n/a	n/a	n/a	n/a	n/a	n/a	n/a	green
382.2202	1.0167	ITI	n/a	n/a	n/a	n/a	n/a	n/a	n/a	n/a
383.2369	0.5167	FIXCROSS	n/a	n/a	n/a	n/a	n/a	n/a	n/a	n/a
383.7536	0.8167	COLOR_NAME	52	Neutral	żółty	yellow	Neutral	Neutral	hit	n/a
384.5501	n/a	RESPONSE	n/a	n/a	n/a	n/a	n/a	n/a	n/a	yellow
384.5703	1.0167	ITI	n/a	n/a	n/a	n/a	n/a	n/a	n/a	n/a
385.5869	0.5167	FIXCROSS	n/a	n/a	n/a	n/a	n/a	n/a	n/a	n/a
386.1036	0.9	COLOR_NAME	53	Incongruent	niebieski	blue	czerwony	red	hit	n/a
386.9789	n/a	RESPONSE	n/a	n/a	n/a	n/a	n/a	n/a	n/a	blue
387.0036	1.0167	ITI	n/a	n/a	n/a	n/a	n/a	n/a	n/a	n/a
388.0203	0.5167	FIXCROSS	n/a	n/a	n/a	n/a	n/a	n/a	n/a	n/a
388.5369	0.9833	COLOR_NAME	54	Neutral	czerwony	red	Neutral	Neutral	hit	n/a
389.4876	n/a	RESPONSE	n/a	n/a	n/a	n/a	n/a	n/a	n/a	red
389.5203	1.0167	ITI	n/a	n/a	n/a	n/a	n/a	n/a	n/a	n/a
390.537	0.5167	FIXCROSS	n/a	n/a	n/a	n/a	n/a	n/a	n/a	n/a
391.0536	0.65	COLOR_NAME	55	Neutral	zielony	green	Neutral	Neutral	hit	n/a
391.6767	n/a	RESPONSE	n/a	n/a	n/a	n/a	n/a	n/a	n/a	green
391.7036	1.0167	ITI	n/a	n/a	n/a	n/a	n/a	n/a	n/a	n/a
392.7203	0.5167	FIXCROSS	n/a	n/a	n/a	n/a	n/a	n/a	n/a	n/a
393.237	0.7167	COLOR_NAME	56	Neutral	czerwony	red	Neutral	Neutral	hit	n/a
393.9298	n/a	RESPONSE	n/a	n/a	n/a	n/a	n/a	n/a	n/a	red
393.9537	1.0167	ITI	n/a	n/a	n/a	n/a	n/a	n/a	n/a	n/a
394.9703	0.5167	FIXCROSS	n/a	n/a	n/a	n/a	n/a	n/a	n/a	n/a
395.487	1.2667	COLOR_NAME	57	Incongruent	zielony	green	niebieski	blue	hit	n/a
396.7261	n/a	RESPONSE	n/a	n/a	n/a	n/a	n/a	n/a	n/a	green
396.7537	1.0167	ITI	n/a	n/a	n/a	n/a	n/a	n/a	n/a	n/a
397.7704	0.5167	FIXCROSS	n/a	n/a	n/a	n/a	n/a	n/a	n/a	n/a
398.287	0.6167	COLOR_NAME	58	Incongruent	czerwony	red	żółty	yellow	hit	n/a
398.8833	n/a	RESPONSE	n/a	n/a	n/a	n/a	n/a	n/a	n/a	red
398.9037	1.0167	ITI	n/a	n/a	n/a	n/a	n/a	n/a	n/a	n/a
399.9204	0.5167	FIXCROSS	n/a	n/a	n/a	n/a	n/a	n/a	n/a	n/a
400.437	0.65	COLOR_NAME	59	Neutral	zielony	green	Neutral	Neutral	hit	n/a
401.0565	n/a	RESPONSE	n/a	n/a	n/a	n/a	n/a	n/a	n/a	green
401.087	1.0167	ITI	n/a	n/a	n/a	n/a	n/a	n/a	n/a	n/a
402.1037	0.5167	FIXCROSS	n/a	n/a	n/a	n/a	n/a	n/a	n/a	n/a
402.6204	0.5333	COLOR_NAME	60	Neutral	żółty	yellow	Neutral	Neutral	hit	n/a
403.1337	n/a	RESPONSE	n/a	n/a	n/a	n/a	n/a	n/a	n/a	yellow
403.1537	1.0167	ITI	n/a	n/a	n/a	n/a	n/a	n/a	n/a	n/a
404.1704	0.5167	FIXCROSS	n/a	n/a	n/a	n/a	n/a	n/a	n/a	n/a
404.6871	0.6167	COLOR_NAME	61	Neutral	zielony	green	Neutral	Neutral	hit	n/a
405.2749	n/a	RESPONSE	n/a	n/a	n/a	n/a	n/a	n/a	n/a	green
405.3037	1.0167	ITI	n/a	n/a	n/a	n/a	n/a	n/a	n/a	n/a
406.3204	0.5167	FIXCROSS	n/a	n/a	n/a	n/a	n/a	n/a	n/a	n/a
406.8371	0.5833	COLOR_NAME	62	Incongruent	czerwony	red	niebieski	blue	hit	n/a
407.4001	n/a	RESPONSE	n/a	n/a	n/a	n/a	n/a	n/a	n/a	red
407.4204	1.0167	ITI	n/a	n/a	n/a	n/a	n/a	n/a	n/a	n/a
408.4371	0.5167	FIXCROSS	n/a	n/a	n/a	n/a	n/a	n/a	n/a	n/a
408.9538	0.6333	COLOR_NAME	63	Neutral	czerwony	red	Neutral	Neutral	hit	n/a
409.5574	n/a	RESPONSE	n/a	n/a	n/a	n/a	n/a	n/a	n/a	red
409.5871	1.0167	ITI	n/a	n/a	n/a	n/a	n/a	n/a	n/a	n/a
410.6038	0.5167	FIXCROSS	n/a	n/a	n/a	n/a	n/a	n/a	n/a	n/a
411.1204	0.7333	COLOR_NAME	64	Neutral	zielony	green	Neutral	Neutral	hit	n/a
411.8264	n/a	RESPONSE	n/a	n/a	n/a	n/a	n/a	n/a	n/a	green
411.8538	1.0167	ITI	n/a	n/a	n/a	n/a	n/a	n/a	n/a	n/a
412.8705	0.5167	FIXCROSS	n/a	n/a	n/a	n/a	n/a	n/a	n/a	n/a
413.3871	0.7167	COLOR_NAME	65	Incongruent	niebieski	blue	żółty	yellow	hit	n/a
414.0795	n/a	RESPONSE	n/a	n/a	n/a	n/a	n/a	n/a	n/a	blue
414.1038	1.0167	ITI	n/a	n/a	n/a	n/a	n/a	n/a	n/a	n/a
415.1205	0.5167	FIXCROSS	n/a	n/a	n/a	n/a	n/a	n/a	n/a	n/a
415.6371	0.6	COLOR_NAME	66	Neutral	czerwony	red	Neutral	Neutral	hit	n/a
416.2046	n/a	RESPONSE	n/a	n/a	n/a	n/a	n/a	n/a	n/a	red
416.2371	1.0167	ITI	n/a	n/a	n/a	n/a	n/a	n/a	n/a	n/a
417.2538	0.5167	FIXCROSS	n/a	n/a	n/a	n/a	n/a	n/a	n/a	n/a
417.7705	0.7333	COLOR_NAME	67	Incongruent	zielony	green	czerwony	red	hit	n/a
418.4737	n/a	RESPONSE	n/a	n/a	n/a	n/a	n/a	n/a	n/a	green
418.5038	1.0167	ITI	n/a	n/a	n/a	n/a	n/a	n/a	n/a	n/a
419.5205	0.5167	FIXCROSS	n/a	n/a	n/a	n/a	n/a	n/a	n/a	n/a
420.0372	0.6667	COLOR_NAME	68	Incongruent	żółty	yellow	czerwony	red	hit	n/a
420.6788	n/a	RESPONSE	n/a	n/a	n/a	n/a	n/a	n/a	n/a	yellow
420.7038	1.0167	ITI	n/a	n/a	n/a	n/a	n/a	n/a	n/a	n/a
421.7205	0.5167	FIXCROSS	n/a	n/a	n/a	n/a	n/a	n/a	n/a	n/a
422.2372	0.6667	COLOR_NAME	69	Neutral	czerwony	red	Neutral	Neutral	hit	n/a
422.8839	n/a	RESPONSE	n/a	n/a	n/a	n/a	n/a	n/a	n/a	red
422.9039	1.0167	ITI	n/a	n/a	n/a	n/a	n/a	n/a	n/a	n/a
423.9205	0.5167	FIXCROSS	n/a	n/a	n/a	n/a	n/a	n/a	n/a	n/a
424.4372	0.75	COLOR_NAME	70	Incongruent	żółty	yellow	czerwony	red	hit	n/a
425.1688	n/a	RESPONSE	n/a	n/a	n/a	n/a	n/a	n/a	n/a	yellow
425.1872	1.0167	ITI	n/a	n/a	n/a	n/a	n/a	n/a	n/a	n/a
426.2039	0.5167	FIXCROSS	n/a	n/a	n/a	n/a	n/a	n/a	n/a	n/a
426.7205	0.6833	COLOR_NAME	71	Neutral	niebieski	blue	Neutral	Neutral	hit	n/a
427.3741	n/a	RESPONSE	n/a	n/a	n/a	n/a	n/a	n/a	n/a	blue
427.4039	1.0167	ITI	n/a	n/a	n/a	n/a	n/a	n/a	n/a	n/a
428.4206	0.5167	FIXCROSS	n/a	n/a	n/a	n/a	n/a	n/a	n/a	n/a
428.9372	0.6833	COLOR_NAME	72	Incongruent	żółty	yellow	niebieski	blue	hit	n/a
429.5952	n/a	RESPONSE	n/a	n/a	n/a	n/a	n/a	n/a	n/a	yellow
429.6206	1.0333	ITI	n/a	n/a	n/a	n/a	n/a	n/a	n/a	n/a
433.3821	n/a	RESPONSE	n/a	n/a	n/a	n/a	n/a	n/a	n/a	n/a
