onset	duration	trial_type	trial_number	stroop_condition	stim_text(PL)	stim_text(eng)	stim_color(PL)	stim_color(eng)	response_type	response_color
0.0	n/a	RESPONSE	n/a	n/a	n/a	n/a	n/a	n/a	n/a	n/a
0.0246	1.0167	ITI	n/a	n/a	n/a	n/a	n/a	n/a	n/a	n/a
1.0413	0.5	FIXCROSS	n/a	n/a	n/a	n/a	n/a	n/a	n/a	n/a
1.5413	1.3834	T_INK	1	Incongruent	żółty	yellow	niebieski	blue	hit	n/a
2.9113	n/a	RESPONSE	n/a	n/a	n/a	n/a	n/a	n/a	n/a	blue
2.9247	0.5	FEEDBACK	n/a	n/a	n/a	n/a	n/a	n/a	n/a	n/a
3.4247	1.0167	ITI	n/a	n/a	n/a	n/a	n/a	n/a	n/a	n/a
4.4413	0.5167	FIXCROSS	n/a	n/a	n/a	n/a	n/a	n/a	n/a	n/a
4.958	0.9333	T_INK	2	Neutral	xxxxx	xxxxx	zielony	green	hit	n/a
5.8546	n/a	RESPONSE	n/a	n/a	n/a	n/a	n/a	n/a	n/a	green
5.8914	0.5167	FEEDBACK	n/a	n/a	n/a	n/a	n/a	n/a	n/a	n/a
6.408	1.0167	ITI	n/a	n/a	n/a	n/a	n/a	n/a	n/a	n/a
7.4247	0.5167	FIXCROSS	n/a	n/a	n/a	n/a	n/a	n/a	n/a	n/a
7.9414	0.65	T_INK	3	Neutral	xxxxxxxxx	xxxxxxxxx	zielony	green	hit	n/a
8.5579	n/a	RESPONSE	n/a	n/a	n/a	n/a	n/a	n/a	n/a	green
8.5914	0.5167	FEEDBACK	n/a	n/a	n/a	n/a	n/a	n/a	n/a	n/a
9.1081	1.0167	ITI	n/a	n/a	n/a	n/a	n/a	n/a	n/a	n/a
10.1247	0.5167	FIXCROSS	n/a	n/a	n/a	n/a	n/a	n/a	n/a	n/a
10.6414	0.5	T_INK	4	Neutral	xxxxx	xxxxx	czerwony	red	hit	n/a
11.1173	n/a	RESPONSE	n/a	n/a	n/a	n/a	n/a	n/a	n/a	red
11.1414	0.5167	FEEDBACK	n/a	n/a	n/a	n/a	n/a	n/a	n/a	n/a
11.6581	1.0167	ITI	n/a	n/a	n/a	n/a	n/a	n/a	n/a	n/a
12.6748	0.5167	FIXCROSS	n/a	n/a	n/a	n/a	n/a	n/a	n/a	n/a
13.1914	0.9833	T_INK	5	Incongruent	zielony	green	czerwony	red	hit	n/a
14.1406	n/a	RESPONSE	n/a	n/a	n/a	n/a	n/a	n/a	n/a	red
14.1748	0.5167	FEEDBACK	n/a	n/a	n/a	n/a	n/a	n/a	n/a	n/a
14.6915	1.0167	ITI	n/a	n/a	n/a	n/a	n/a	n/a	n/a	n/a
15.7082	0.5167	FIXCROSS	n/a	n/a	n/a	n/a	n/a	n/a	n/a	n/a
16.2248	0.75	T_INK	6	Incongruent	zielony	green	niebieski	blue	hit	n/a
16.9559	n/a	RESPONSE	n/a	n/a	n/a	n/a	n/a	n/a	n/a	blue
16.9748	0.5167	FEEDBACK	n/a	n/a	n/a	n/a	n/a	n/a	n/a	n/a
17.4915	1.0167	ITI	n/a	n/a	n/a	n/a	n/a	n/a	n/a	n/a
18.5082	0.5167	FIXCROSS	n/a	n/a	n/a	n/a	n/a	n/a	n/a	n/a
19.0249	0.5333	T_INK	7	Neutral	xxxxxxx	xxxxxxx	czerwony	red	hit	n/a
19.5312	n/a	RESPONSE	n/a	n/a	n/a	n/a	n/a	n/a	n/a	red
19.5582	0.5167	FEEDBACK	n/a	n/a	n/a	n/a	n/a	n/a	n/a	n/a
20.0749	1.0167	ITI	n/a	n/a	n/a	n/a	n/a	n/a	n/a	n/a
21.0915	0.5167	FIXCROSS	n/a	n/a	n/a	n/a	n/a	n/a	n/a	n/a
21.6082	0.5333	T_INK	8	Incongruent	żółty	yellow	czerwony	red	hit	n/a
22.1066	n/a	RESPONSE	n/a	n/a	n/a	n/a	n/a	n/a	n/a	red
22.1416	0.5167	FEEDBACK	n/a	n/a	n/a	n/a	n/a	n/a	n/a	n/a
22.6582	1.0167	ITI	n/a	n/a	n/a	n/a	n/a	n/a	n/a	n/a
23.6749	0.5167	FIXCROSS	n/a	n/a	n/a	n/a	n/a	n/a	n/a	n/a
24.1916	0.5667	T_INK	9	Neutral	xxxxxxxx	xxxxxxxx	żółty	yellow	hit	n/a
24.73	n/a	RESPONSE	n/a	n/a	n/a	n/a	n/a	n/a	n/a	yellow
24.7583	0.5167	FEEDBACK	n/a	n/a	n/a	n/a	n/a	n/a	n/a	n/a
25.2749	1.0167	ITI	n/a	n/a	n/a	n/a	n/a	n/a	n/a	n/a
26.2916	0.5167	FIXCROSS	n/a	n/a	n/a	n/a	n/a	n/a	n/a	n/a
26.8083	0.7	T_INK	10	Incongruent	żółty	yellow	zielony	green	hit	n/a
27.4813	n/a	RESPONSE	n/a	n/a	n/a	n/a	n/a	n/a	n/a	green
27.5083	0.5167	FEEDBACK	n/a	n/a	n/a	n/a	n/a	n/a	n/a	n/a
28.025	1.0167	ITI	n/a	n/a	n/a	n/a	n/a	n/a	n/a	n/a
29.0416	0.5167	FIXCROSS	n/a	n/a	n/a	n/a	n/a	n/a	n/a	n/a
29.5583	0.5333	T_INK	11	Incongruent	niebieski	blue	zielony	green	hit	n/a
30.0567	n/a	RESPONSE	n/a	n/a	n/a	n/a	n/a	n/a	n/a	green
30.0917	0.5167	FEEDBACK	n/a	n/a	n/a	n/a	n/a	n/a	n/a	n/a
30.6083	1.0167	ITI	n/a	n/a	n/a	n/a	n/a	n/a	n/a	n/a
31.625	0.5167	FIXCROSS	n/a	n/a	n/a	n/a	n/a	n/a	n/a	n/a
32.1417	0.6333	T_INK	12	Neutral	xxxxxxxx	xxxxxxxx	niebieski	blue	hit	n/a
32.7441	n/a	RESPONSE	n/a	n/a	n/a	n/a	n/a	n/a	n/a	blue
32.775	0.5167	FEEDBACK	n/a	n/a	n/a	n/a	n/a	n/a	n/a	n/a
33.2917	1.0333	ITI	n/a	n/a	n/a	n/a	n/a	n/a	n/a	n/a
37.8468	n/a	RESPONSE	n/a	n/a	n/a	n/a	n/a	n/a	n/a	n/a
37.9084	1.0167	ITI	n/a	n/a	n/a	n/a	n/a	n/a	n/a	n/a
38.9251	0.5167	FIXCROSS	n/a	n/a	n/a	n/a	n/a	n/a	n/a	n/a
39.4418	0.9	INK	1	Neutral	xxxxxxxxx	xxxxxxxxx	żółty	yellow	hit	n/a
40.3102	n/a	RESPONSE	n/a	n/a	n/a	n/a	n/a	n/a	n/a	yellow
40.3418	1.0167	ITI	n/a	n/a	n/a	n/a	n/a	n/a	n/a	n/a
41.3585	0.5167	FIXCROSS	n/a	n/a	n/a	n/a	n/a	n/a	n/a	n/a
41.8751	0.6333	INK	2	Neutral	xxxxxxxx	xxxxxxxx	niebieski	blue	hit	n/a
42.4857	n/a	RESPONSE	n/a	n/a	n/a	n/a	n/a	n/a	n/a	blue
42.5085	1.0167	ITI	n/a	n/a	n/a	n/a	n/a	n/a	n/a	n/a
43.5252	0.5167	FIXCROSS	n/a	n/a	n/a	n/a	n/a	n/a	n/a	n/a
44.0418	0.5	INK	3	Incongruent	czerwony	red	żółty	yellow	hit	n/a
44.5172	n/a	RESPONSE	n/a	n/a	n/a	n/a	n/a	n/a	n/a	yellow
44.5418	1.0167	ITI	n/a	n/a	n/a	n/a	n/a	n/a	n/a	n/a
45.5585	0.5167	FIXCROSS	n/a	n/a	n/a	n/a	n/a	n/a	n/a	n/a
46.0752	0.4333	INK	4	Incongruent	zielony	green	niebieski	blue	hit	n/a
46.4847	n/a	RESPONSE	n/a	n/a	n/a	n/a	n/a	n/a	n/a	blue
46.5085	1.0167	ITI	n/a	n/a	n/a	n/a	n/a	n/a	n/a	n/a
47.5252	0.5167	FIXCROSS	n/a	n/a	n/a	n/a	n/a	n/a	n/a	n/a
48.0419	0.5667	INK	5	Incongruent	zielony	green	żółty	yellow	hit	n/a
48.5802	n/a	RESPONSE	n/a	n/a	n/a	n/a	n/a	n/a	n/a	yellow
48.6086	1.0167	ITI	n/a	n/a	n/a	n/a	n/a	n/a	n/a	n/a
49.6252	0.5167	FIXCROSS	n/a	n/a	n/a	n/a	n/a	n/a	n/a	n/a
50.1419	0.3833	INK	6	Neutral	xxxxxxxxx	xxxxxxxxx	czerwony	red	hit	n/a
50.4998	n/a	RESPONSE	n/a	n/a	n/a	n/a	n/a	n/a	n/a	red
50.5252	1.0167	ITI	n/a	n/a	n/a	n/a	n/a	n/a	n/a	n/a
51.5419	0.5167	FIXCROSS	n/a	n/a	n/a	n/a	n/a	n/a	n/a	n/a
52.0586	0.5	INK	7	Incongruent	żółty	yellow	czerwony	red	hit	n/a
52.5313	n/a	RESPONSE	n/a	n/a	n/a	n/a	n/a	n/a	n/a	red
52.5586	1.0167	ITI	n/a	n/a	n/a	n/a	n/a	n/a	n/a	n/a
53.5753	0.5167	FIXCROSS	n/a	n/a	n/a	n/a	n/a	n/a	n/a	n/a
54.092	0.5833	INK	8	Neutral	xxxxxxx	xxxxxxx	żółty	yellow	hit	n/a
54.6428	n/a	RESPONSE	n/a	n/a	n/a	n/a	n/a	n/a	n/a	yellow
54.6753	1.0167	ITI	n/a	n/a	n/a	n/a	n/a	n/a	n/a	n/a
55.692	0.5167	FIXCROSS	n/a	n/a	n/a	n/a	n/a	n/a	n/a	n/a
56.2086	0.8333	INK	9	Incongruent	niebieski	blue	zielony	green	hit	n/a
57.0102	n/a	RESPONSE	n/a	n/a	n/a	n/a	n/a	n/a	n/a	green
57.042	1.0167	ITI	n/a	n/a	n/a	n/a	n/a	n/a	n/a	n/a
58.0587	0.5167	FIXCROSS	n/a	n/a	n/a	n/a	n/a	n/a	n/a	n/a
58.5753	0.4333	INK	10	Incongruent	czerwony	red	niebieski	blue	hit	n/a
58.9777	n/a	RESPONSE	n/a	n/a	n/a	n/a	n/a	n/a	n/a	blue
59.0087	1.0167	ITI	n/a	n/a	n/a	n/a	n/a	n/a	n/a	n/a
60.0254	0.5167	FIXCROSS	n/a	n/a	n/a	n/a	n/a	n/a	n/a	n/a
60.542	0.5167	INK	11	Incongruent	niebieski	blue	zielony	green	hit	n/a
61.0252	n/a	RESPONSE	n/a	n/a	n/a	n/a	n/a	n/a	n/a	green
61.0587	1.0167	ITI	n/a	n/a	n/a	n/a	n/a	n/a	n/a	n/a
62.0754	0.5167	FIXCROSS	n/a	n/a	n/a	n/a	n/a	n/a	n/a	n/a
62.5921	0.5667	INK	12	Incongruent	czerwony	red	żółty	yellow	hit	n/a
63.1367	n/a	RESPONSE	n/a	n/a	n/a	n/a	n/a	n/a	n/a	yellow
63.1587	1.0167	ITI	n/a	n/a	n/a	n/a	n/a	n/a	n/a	n/a
64.1754	0.5167	FIXCROSS	n/a	n/a	n/a	n/a	n/a	n/a	n/a	n/a
64.6921	0.5667	INK	13	Neutral	xxxxxxxx	xxxxxxxx	zielony	green	hit	n/a
65.2322	n/a	RESPONSE	n/a	n/a	n/a	n/a	n/a	n/a	n/a	green
65.2588	1.0167	ITI	n/a	n/a	n/a	n/a	n/a	n/a	n/a	n/a
66.2754	0.5167	FIXCROSS	n/a	n/a	n/a	n/a	n/a	n/a	n/a	n/a
66.7921	0.4833	INK	14	Neutral	xxxxxxx	xxxxxxx	czerwony	red	hit	n/a
67.2477	n/a	RESPONSE	n/a	n/a	n/a	n/a	n/a	n/a	n/a	red
67.2755	1.0167	ITI	n/a	n/a	n/a	n/a	n/a	n/a	n/a	n/a
68.2921	0.5167	FIXCROSS	n/a	n/a	n/a	n/a	n/a	n/a	n/a	n/a
68.8088	0.3833	INK	15	Incongruent	żółty	yellow	niebieski	blue	hit	n/a
69.1673	n/a	RESPONSE	n/a	n/a	n/a	n/a	n/a	n/a	n/a	blue
69.1921	1.0167	ITI	n/a	n/a	n/a	n/a	n/a	n/a	n/a	n/a
70.2088	0.5167	FIXCROSS	n/a	n/a	n/a	n/a	n/a	n/a	n/a	n/a
70.7255	0.55	INK	16	Incongruent	żółty	yellow	niebieski	blue	hit	n/a
71.2468	n/a	RESPONSE	n/a	n/a	n/a	n/a	n/a	n/a	n/a	blue
71.2755	1.0167	ITI	n/a	n/a	n/a	n/a	n/a	n/a	n/a	n/a
72.2922	0.5167	FIXCROSS	n/a	n/a	n/a	n/a	n/a	n/a	n/a	n/a
72.8089	0.3833	INK	17	Neutral	xxxxxxx	xxxxxxx	żółty	yellow	hit	n/a
73.1663	n/a	RESPONSE	n/a	n/a	n/a	n/a	n/a	n/a	n/a	yellow
73.1922	1.0167	ITI	n/a	n/a	n/a	n/a	n/a	n/a	n/a	n/a
74.2089	0.5167	FIXCROSS	n/a	n/a	n/a	n/a	n/a	n/a	n/a	n/a
74.7255	0.3667	INK	18	Incongruent	czerwony	red	zielony	green	hit	n/a
75.0698	n/a	RESPONSE	n/a	n/a	n/a	n/a	n/a	n/a	n/a	green
75.0922	1.0167	ITI	n/a	n/a	n/a	n/a	n/a	n/a	n/a	n/a
76.1089	0.5167	FIXCROSS	n/a	n/a	n/a	n/a	n/a	n/a	n/a	n/a
76.6256	0.5333	INK	19	Incongruent	niebieski	blue	żółty	yellow	hit	n/a
77.1333	n/a	RESPONSE	n/a	n/a	n/a	n/a	n/a	n/a	n/a	yellow
77.1589	1.0167	ITI	n/a	n/a	n/a	n/a	n/a	n/a	n/a	n/a
78.1756	0.5167	FIXCROSS	n/a	n/a	n/a	n/a	n/a	n/a	n/a	n/a
78.6923	0.4833	INK	20	Neutral	xxxxxxxxx	xxxxxxxxx	zielony	green	hit	n/a
79.1489	n/a	RESPONSE	n/a	n/a	n/a	n/a	n/a	n/a	n/a	green
79.1756	1.0167	ITI	n/a	n/a	n/a	n/a	n/a	n/a	n/a	n/a
80.1923	0.5167	FIXCROSS	n/a	n/a	n/a	n/a	n/a	n/a	n/a	n/a
80.7089	0.4833	INK	21	Incongruent	zielony	green	niebieski	blue	hit	n/a
81.1644	n/a	RESPONSE	n/a	n/a	n/a	n/a	n/a	n/a	n/a	blue
81.1923	1.0167	ITI	n/a	n/a	n/a	n/a	n/a	n/a	n/a	n/a
82.209	0.5167	FIXCROSS	n/a	n/a	n/a	n/a	n/a	n/a	n/a	n/a
82.7256	0.4333	INK	22	Neutral	xxxxxxx	xxxxxxx	niebieski	blue	hit	n/a
83.1319	n/a	RESPONSE	n/a	n/a	n/a	n/a	n/a	n/a	n/a	blue
83.159	1.0167	ITI	n/a	n/a	n/a	n/a	n/a	n/a	n/a	n/a
84.1757	0.5167	FIXCROSS	n/a	n/a	n/a	n/a	n/a	n/a	n/a	n/a
84.6923	0.3833	INK	23	Incongruent	niebieski	blue	czerwony	red	hit	n/a
85.0514	n/a	RESPONSE	n/a	n/a	n/a	n/a	n/a	n/a	n/a	red
85.0757	1.0167	ITI	n/a	n/a	n/a	n/a	n/a	n/a	n/a	n/a
86.0923	0.5167	FIXCROSS	n/a	n/a	n/a	n/a	n/a	n/a	n/a	n/a
86.609	0.6	INK	24	Neutral	xxxxxxxxx	xxxxxxxxx	zielony	green	hit	n/a
87.1789	n/a	RESPONSE	n/a	n/a	n/a	n/a	n/a	n/a	n/a	green
87.209	1.0167	ITI	n/a	n/a	n/a	n/a	n/a	n/a	n/a	n/a
88.2257	0.5166	FIXCROSS	n/a	n/a	n/a	n/a	n/a	n/a	n/a	n/a
88.7423	0.3834	INK	25	Neutral	xxxxxxxx	xxxxxxxx	żółty	yellow	hit	n/a
89.0984	n/a	RESPONSE	n/a	n/a	n/a	n/a	n/a	n/a	n/a	yellow
89.1257	1.0167	ITI	n/a	n/a	n/a	n/a	n/a	n/a	n/a	n/a
90.1424	0.5167	FIXCROSS	n/a	n/a	n/a	n/a	n/a	n/a	n/a	n/a
90.6591	0.6	INK	26	Neutral	xxxxxxxxx	xxxxxxxxx	czerwony	red	hit	n/a
91.2259	n/a	RESPONSE	n/a	n/a	n/a	n/a	n/a	n/a	n/a	red
91.2591	1.0167	ITI	n/a	n/a	n/a	n/a	n/a	n/a	n/a	n/a
92.2758	0.5167	FIXCROSS	n/a	n/a	n/a	n/a	n/a	n/a	n/a	n/a
92.7924	0.55	INK	27	Neutral	xxxxxxxx	xxxxxxxx	zielony	green	hit	n/a
93.3214	n/a	RESPONSE	n/a	n/a	n/a	n/a	n/a	n/a	n/a	green
93.3424	1.0167	ITI	n/a	n/a	n/a	n/a	n/a	n/a	n/a	n/a
94.3591	0.5167	FIXCROSS	n/a	n/a	n/a	n/a	n/a	n/a	n/a	n/a
94.8758	0.4833	INK	28	Neutral	xxxxxxxx	xxxxxxxx	niebieski	blue	hit	n/a
95.3369	n/a	RESPONSE	n/a	n/a	n/a	n/a	n/a	n/a	n/a	blue
95.3591	1.0167	ITI	n/a	n/a	n/a	n/a	n/a	n/a	n/a	n/a
96.3758	0.5167	FIXCROSS	n/a	n/a	n/a	n/a	n/a	n/a	n/a	n/a
96.8925	0.6	INK	29	Incongruent	czerwony	red	zielony	green	incorrect	n/a
97.4644	n/a	RESPONSE	n/a	n/a	n/a	n/a	n/a	n/a	n/a	red
97.4925	1.0167	ITI	n/a	n/a	n/a	n/a	n/a	n/a	n/a	n/a
98.5092	0.5167	FIXCROSS	n/a	n/a	n/a	n/a	n/a	n/a	n/a	n/a
99.0258	0.6667	INK	30	Incongruent	żółty	yellow	czerwony	red	hit	n/a
99.6719	n/a	RESPONSE	n/a	n/a	n/a	n/a	n/a	n/a	n/a	red
99.6925	1.0167	ITI	n/a	n/a	n/a	n/a	n/a	n/a	n/a	n/a
100.7092	0.5167	FIXCROSS	n/a	n/a	n/a	n/a	n/a	n/a	n/a	n/a
101.2259	0.5	INK	31	Incongruent	niebieski	blue	czerwony	red	hit	n/a
101.7034	n/a	RESPONSE	n/a	n/a	n/a	n/a	n/a	n/a	n/a	red
101.7259	1.0167	ITI	n/a	n/a	n/a	n/a	n/a	n/a	n/a	n/a
102.7425	0.5167	FIXCROSS	n/a	n/a	n/a	n/a	n/a	n/a	n/a	n/a
103.2592	0.4667	INK	32	Neutral	xxxxx	xxxxx	niebieski	blue	incorrect	n/a
103.7029	n/a	RESPONSE	n/a	n/a	n/a	n/a	n/a	n/a	n/a	green
103.7259	1.0167	ITI	n/a	n/a	n/a	n/a	n/a	n/a	n/a	n/a
104.7426	0.5167	FIXCROSS	n/a	n/a	n/a	n/a	n/a	n/a	n/a	n/a
105.2592	0.8333	INK	33	Incongruent	czerwony	red	niebieski	blue	hit	n/a
106.0703	n/a	RESPONSE	n/a	n/a	n/a	n/a	n/a	n/a	n/a	blue
106.0926	1.0167	ITI	n/a	n/a	n/a	n/a	n/a	n/a	n/a	n/a
107.1093	0.5167	FIXCROSS	n/a	n/a	n/a	n/a	n/a	n/a	n/a	n/a
107.6259	0.7833	INK	34	Incongruent	niebieski	blue	żółty	yellow	hit	n/a
108.3898	n/a	RESPONSE	n/a	n/a	n/a	n/a	n/a	n/a	n/a	yellow
108.4093	1.0167	ITI	n/a	n/a	n/a	n/a	n/a	n/a	n/a	n/a
109.426	0.5167	FIXCROSS	n/a	n/a	n/a	n/a	n/a	n/a	n/a	n/a
109.9426	0.55	INK	35	Neutral	xxxxxxx	xxxxxxx	czerwony	red	hit	n/a
110.4693	n/a	RESPONSE	n/a	n/a	n/a	n/a	n/a	n/a	n/a	red
110.4926	1.0167	ITI	n/a	n/a	n/a	n/a	n/a	n/a	n/a	n/a
111.5093	0.5167	FIXCROSS	n/a	n/a	n/a	n/a	n/a	n/a	n/a	n/a
112.026	0.5667	INK	36	Neutral	xxxxxxx	xxxxxxx	niebieski	blue	hit	n/a
112.5648	n/a	RESPONSE	n/a	n/a	n/a	n/a	n/a	n/a	n/a	blue
112.5927	1.0167	ITI	n/a	n/a	n/a	n/a	n/a	n/a	n/a	n/a
113.6093	0.5167	FIXCROSS	n/a	n/a	n/a	n/a	n/a	n/a	n/a	n/a
114.126	0.6	INK	37	Neutral	xxxxx	xxxxx	zielony	green	hit	n/a
114.7082	n/a	RESPONSE	n/a	n/a	n/a	n/a	n/a	n/a	n/a	green
114.726	1.0167	ITI	n/a	n/a	n/a	n/a	n/a	n/a	n/a	n/a
115.7427	0.5167	FIXCROSS	n/a	n/a	n/a	n/a	n/a	n/a	n/a	n/a
116.2594	0.55	INK	38	Incongruent	zielony	green	niebieski	blue	hit	n/a
116.7877	n/a	RESPONSE	n/a	n/a	n/a	n/a	n/a	n/a	n/a	blue
116.8094	1.0167	ITI	n/a	n/a	n/a	n/a	n/a	n/a	n/a	n/a
117.8261	0.5167	FIXCROSS	n/a	n/a	n/a	n/a	n/a	n/a	n/a	n/a
118.3427	0.4	INK	39	Incongruent	zielony	green	czerwony	red	hit	n/a
118.7233	n/a	RESPONSE	n/a	n/a	n/a	n/a	n/a	n/a	n/a	red
118.7427	1.0167	ITI	n/a	n/a	n/a	n/a	n/a	n/a	n/a	n/a
119.7594	0.5167	FIXCROSS	n/a	n/a	n/a	n/a	n/a	n/a	n/a	n/a
120.2761	0.6333	INK	40	Incongruent	żółty	yellow	zielony	green	incorrect	n/a
120.8828	n/a	RESPONSE	n/a	n/a	n/a	n/a	n/a	n/a	n/a	yellow
120.9094	1.0167	ITI	n/a	n/a	n/a	n/a	n/a	n/a	n/a	n/a
121.0747	n/a	RESPONSE	n/a	n/a	n/a	n/a	n/a	n/a	n/a	yellow
121.9261	0.5167	FIXCROSS	n/a	n/a	n/a	n/a	n/a	n/a	n/a	n/a
122.4428	0.6833	INK	41	Neutral	xxxxxxxx	xxxxxxxx	żółty	yellow	hit	n/a
123.1062	n/a	RESPONSE	n/a	n/a	n/a	n/a	n/a	n/a	n/a	yellow
123.1261	1.0167	ITI	n/a	n/a	n/a	n/a	n/a	n/a	n/a	n/a
124.1428	0.5167	FIXCROSS	n/a	n/a	n/a	n/a	n/a	n/a	n/a	n/a
124.6595	0.65	INK	42	Incongruent	czerwony	red	zielony	green	incorrect	n/a
125.2817	n/a	RESPONSE	n/a	n/a	n/a	n/a	n/a	n/a	n/a	red
125.3095	1.0167	ITI	n/a	n/a	n/a	n/a	n/a	n/a	n/a	n/a
126.3262	0.5167	FIXCROSS	n/a	n/a	n/a	n/a	n/a	n/a	n/a	n/a
126.8428	0.7	INK	43	Incongruent	niebieski	blue	czerwony	red	hit	n/a
127.5211	n/a	RESPONSE	n/a	n/a	n/a	n/a	n/a	n/a	n/a	red
127.5428	1.0167	ITI	n/a	n/a	n/a	n/a	n/a	n/a	n/a	n/a
128.5595	0.5167	FIXCROSS	n/a	n/a	n/a	n/a	n/a	n/a	n/a	n/a
129.0762	0.7333	INK	44	Neutral	xxxxx	xxxxx	zielony	green	hit	n/a
129.7766	n/a	RESPONSE	n/a	n/a	n/a	n/a	n/a	n/a	n/a	green
129.8095	1.0167	ITI	n/a	n/a	n/a	n/a	n/a	n/a	n/a	n/a
130.8262	0.5167	FIXCROSS	n/a	n/a	n/a	n/a	n/a	n/a	n/a	n/a
131.3429	0.55	INK	45	Neutral	xxxxx	xxxxx	niebieski	blue	hit	n/a
131.8721	n/a	RESPONSE	n/a	n/a	n/a	n/a	n/a	n/a	n/a	blue
131.8929	1.0167	ITI	n/a	n/a	n/a	n/a	n/a	n/a	n/a	n/a
132.9096	0.5167	FIXCROSS	n/a	n/a	n/a	n/a	n/a	n/a	n/a	n/a
133.4263	0.5	INK	46	Neutral	xxxxx	xxxxx	czerwony	red	hit	n/a
133.9036	n/a	RESPONSE	n/a	n/a	n/a	n/a	n/a	n/a	n/a	red
133.9263	1.0167	ITI	n/a	n/a	n/a	n/a	n/a	n/a	n/a	n/a
134.9429	0.5167	FIXCROSS	n/a	n/a	n/a	n/a	n/a	n/a	n/a	n/a
135.4596	0.75	INK	47	Neutral	xxxxxxxx	xxxxxxxx	żółty	yellow	hit	n/a
136.1911	n/a	RESPONSE	n/a	n/a	n/a	n/a	n/a	n/a	n/a	yellow
136.2096	1.0167	ITI	n/a	n/a	n/a	n/a	n/a	n/a	n/a	n/a
137.2263	0.5167	FIXCROSS	n/a	n/a	n/a	n/a	n/a	n/a	n/a	n/a
137.743	0.5167	INK	48	Neutral	xxxxxxx	xxxxxxx	żółty	yellow	hit	n/a
138.2386	n/a	RESPONSE	n/a	n/a	n/a	n/a	n/a	n/a	n/a	yellow
138.2596	1.0167	ITI	n/a	n/a	n/a	n/a	n/a	n/a	n/a	n/a
139.2763	0.5167	FIXCROSS	n/a	n/a	n/a	n/a	n/a	n/a	n/a	n/a
139.793	0.6667	INK	49	Incongruent	niebieski	blue	zielony	green	hit	n/a
140.43	n/a	RESPONSE	n/a	n/a	n/a	n/a	n/a	n/a	n/a	green
140.4597	1.0167	ITI	n/a	n/a	n/a	n/a	n/a	n/a	n/a	n/a
141.4763	0.5167	FIXCROSS	n/a	n/a	n/a	n/a	n/a	n/a	n/a	n/a
141.993	0.55	INK	50	Neutral	xxxxxxxxx	xxxxxxxxx	żółty	yellow	hit	n/a
142.5255	n/a	RESPONSE	n/a	n/a	n/a	n/a	n/a	n/a	n/a	yellow
142.543	1.0167	ITI	n/a	n/a	n/a	n/a	n/a	n/a	n/a	n/a
143.5597	0.5167	FIXCROSS	n/a	n/a	n/a	n/a	n/a	n/a	n/a	n/a
144.0764	1.0	INK	51	Incongruent	czerwony	red	żółty	yellow	hit	n/a
145.0529	n/a	RESPONSE	n/a	n/a	n/a	n/a	n/a	n/a	n/a	yellow
145.0764	1.0167	ITI	n/a	n/a	n/a	n/a	n/a	n/a	n/a	n/a
146.0931	0.5167	FIXCROSS	n/a	n/a	n/a	n/a	n/a	n/a	n/a	n/a
146.6097	0.5167	INK	52	Neutral	xxxxxxx	xxxxxxx	niebieski	blue	hit	n/a
147.1004	n/a	RESPONSE	n/a	n/a	n/a	n/a	n/a	n/a	n/a	blue
147.1264	1.0167	ITI	n/a	n/a	n/a	n/a	n/a	n/a	n/a	n/a
148.1431	0.5167	FIXCROSS	n/a	n/a	n/a	n/a	n/a	n/a	n/a	n/a
148.6598	0.55	INK	53	Incongruent	zielony	green	żółty	yellow	hit	n/a
149.1799	n/a	RESPONSE	n/a	n/a	n/a	n/a	n/a	n/a	n/a	yellow
149.2098	1.0167	ITI	n/a	n/a	n/a	n/a	n/a	n/a	n/a	n/a
150.2265	0.5167	FIXCROSS	n/a	n/a	n/a	n/a	n/a	n/a	n/a	n/a
150.7431	0.45	INK	54	Neutral	xxxxxxx	xxxxxxx	czerwony	red	hit	n/a
151.1634	n/a	RESPONSE	n/a	n/a	n/a	n/a	n/a	n/a	n/a	red
151.1931	1.0167	ITI	n/a	n/a	n/a	n/a	n/a	n/a	n/a	n/a
152.2098	0.5167	FIXCROSS	n/a	n/a	n/a	n/a	n/a	n/a	n/a	n/a
152.7265	0.8333	INK	55	Neutral	xxxxx	xxxxx	zielony	green	hit	n/a
153.5309	n/a	RESPONSE	n/a	n/a	n/a	n/a	n/a	n/a	n/a	green
153.5598	1.0167	ITI	n/a	n/a	n/a	n/a	n/a	n/a	n/a	n/a
154.5765	0.5167	FIXCROSS	n/a	n/a	n/a	n/a	n/a	n/a	n/a	n/a
155.0932	0.5	INK	56	Neutral	xxxxxxxx	xxxxxxxx	niebieski	blue	hit	n/a
155.5624	n/a	RESPONSE	n/a	n/a	n/a	n/a	n/a	n/a	n/a	blue
155.5932	1.0167	ITI	n/a	n/a	n/a	n/a	n/a	n/a	n/a	n/a
156.6099	0.5167	FIXCROSS	n/a	n/a	n/a	n/a	n/a	n/a	n/a	n/a
157.1265	0.8167	INK	57	Incongruent	żółty	yellow	zielony	green	hit	n/a
157.9138	n/a	RESPONSE	n/a	n/a	n/a	n/a	n/a	n/a	n/a	green
157.9432	1.0167	ITI	n/a	n/a	n/a	n/a	n/a	n/a	n/a	n/a
158.9599	0.5167	FIXCROSS	n/a	n/a	n/a	n/a	n/a	n/a	n/a	n/a
159.4766	0.4667	INK	58	Neutral	xxxxxxxxx	xxxxxxxxx	żółty	yellow	hit	n/a
159.9133	n/a	RESPONSE	n/a	n/a	n/a	n/a	n/a	n/a	n/a	yellow
159.9432	1.0167	ITI	n/a	n/a	n/a	n/a	n/a	n/a	n/a	n/a
160.9599	0.5167	FIXCROSS	n/a	n/a	n/a	n/a	n/a	n/a	n/a	n/a
161.4766	0.5667	INK	59	Incongruent	zielony	green	czerwony	red	hit	n/a
161.9928	n/a	RESPONSE	n/a	n/a	n/a	n/a	n/a	n/a	n/a	red
162.0433	1.0167	ITI	n/a	n/a	n/a	n/a	n/a	n/a	n/a	n/a
163.0599	0.5167	FIXCROSS	n/a	n/a	n/a	n/a	n/a	n/a	n/a	n/a
163.5766	0.6	INK	60	Incongruent	niebieski	blue	żółty	yellow	hit	n/a
164.1523	n/a	RESPONSE	n/a	n/a	n/a	n/a	n/a	n/a	n/a	yellow
164.1766	1.0167	ITI	n/a	n/a	n/a	n/a	n/a	n/a	n/a	n/a
165.1933	0.5167	FIXCROSS	n/a	n/a	n/a	n/a	n/a	n/a	n/a	n/a
165.71	0.5167	INK	61	Neutral	xxxxxxxxx	xxxxxxxxx	czerwony	red	hit	n/a
166.1998	n/a	RESPONSE	n/a	n/a	n/a	n/a	n/a	n/a	n/a	red
166.2266	1.0167	ITI	n/a	n/a	n/a	n/a	n/a	n/a	n/a	n/a
167.2433	0.5167	FIXCROSS	n/a	n/a	n/a	n/a	n/a	n/a	n/a	n/a
167.76	0.6333	INK	62	Incongruent	żółty	yellow	czerwony	red	hit	n/a
168.3753	n/a	RESPONSE	n/a	n/a	n/a	n/a	n/a	n/a	n/a	red
168.3933	1.0167	ITI	n/a	n/a	n/a	n/a	n/a	n/a	n/a	n/a
169.41	0.5167	FIXCROSS	n/a	n/a	n/a	n/a	n/a	n/a	n/a	n/a
169.9267	0.7667	INK	63	Incongruent	zielony	green	żółty	yellow	hit	n/a
170.6627	n/a	RESPONSE	n/a	n/a	n/a	n/a	n/a	n/a	n/a	yellow
170.6934	1.0167	ITI	n/a	n/a	n/a	n/a	n/a	n/a	n/a	n/a
171.71	0.5167	FIXCROSS	n/a	n/a	n/a	n/a	n/a	n/a	n/a	n/a
172.2267	0.5833	INK	64	Neutral	xxxxx	xxxxx	czerwony	red	hit	n/a
172.7902	n/a	RESPONSE	n/a	n/a	n/a	n/a	n/a	n/a	n/a	red
172.8101	1.0167	ITI	n/a	n/a	n/a	n/a	n/a	n/a	n/a	n/a
173.8267	0.5167	FIXCROSS	n/a	n/a	n/a	n/a	n/a	n/a	n/a	n/a
174.3434	0.55	INK	65	Neutral	xxxxxxxx	xxxxxxxx	zielony	green	hit	n/a
174.8697	n/a	RESPONSE	n/a	n/a	n/a	n/a	n/a	n/a	n/a	green
174.8934	1.0167	ITI	n/a	n/a	n/a	n/a	n/a	n/a	n/a	n/a
175.9101	0.5167	FIXCROSS	n/a	n/a	n/a	n/a	n/a	n/a	n/a	n/a
176.4268	0.4833	INK	66	Incongruent	żółty	yellow	zielony	green	hit	n/a
176.8852	n/a	RESPONSE	n/a	n/a	n/a	n/a	n/a	n/a	n/a	green
176.9101	1.0167	ITI	n/a	n/a	n/a	n/a	n/a	n/a	n/a	n/a
177.9268	0.5167	FIXCROSS	n/a	n/a	n/a	n/a	n/a	n/a	n/a	n/a
178.4435	0.5167	INK	67	Neutral	xxxxxxxxx	xxxxxxxxx	zielony	green	hit	n/a
178.9327	n/a	RESPONSE	n/a	n/a	n/a	n/a	n/a	n/a	n/a	green
178.9601	1.0167	ITI	n/a	n/a	n/a	n/a	n/a	n/a	n/a	n/a
179.9768	0.5167	FIXCROSS	n/a	n/a	n/a	n/a	n/a	n/a	n/a	n/a
180.4935	0.3833	INK	68	Neutral	xxxxx	xxxxx	niebieski	blue	hit	n/a
180.8522	n/a	RESPONSE	n/a	n/a	n/a	n/a	n/a	n/a	n/a	blue
180.8768	1.0167	ITI	n/a	n/a	n/a	n/a	n/a	n/a	n/a	n/a
181.8935	0.5167	FIXCROSS	n/a	n/a	n/a	n/a	n/a	n/a	n/a	n/a
182.4102	0.3833	INK	69	Incongruent	zielony	green	czerwony	red	hit	n/a
182.7718	n/a	RESPONSE	n/a	n/a	n/a	n/a	n/a	n/a	n/a	red
182.7935	1.0167	ITI	n/a	n/a	n/a	n/a	n/a	n/a	n/a	n/a
183.8102	0.5167	FIXCROSS	n/a	n/a	n/a	n/a	n/a	n/a	n/a	n/a
184.3269	0.5	INK	70	Incongruent	żółty	yellow	niebieski	blue	hit	n/a
184.8033	n/a	RESPONSE	n/a	n/a	n/a	n/a	n/a	n/a	n/a	blue
184.8269	1.0167	ITI	n/a	n/a	n/a	n/a	n/a	n/a	n/a	n/a
185.8435	0.5167	FIXCROSS	n/a	n/a	n/a	n/a	n/a	n/a	n/a	n/a
186.3602	0.5333	INK	71	Neutral	xxxxx	xxxxx	czerwony	red	hit	n/a
186.8668	n/a	RESPONSE	n/a	n/a	n/a	n/a	n/a	n/a	n/a	red
186.8936	1.0167	ITI	n/a	n/a	n/a	n/a	n/a	n/a	n/a	n/a
187.9102	0.5167	FIXCROSS	n/a	n/a	n/a	n/a	n/a	n/a	n/a	n/a
188.4269	0.4833	INK	72	Incongruent	czerwony	red	niebieski	blue	hit	n/a
188.8823	n/a	RESPONSE	n/a	n/a	n/a	n/a	n/a	n/a	n/a	blue
188.9102	1.0833	ITI	n/a	n/a	n/a	n/a	n/a	n/a	n/a	n/a
194.2571	n/a	RESPONSE	n/a	n/a	n/a	n/a	n/a	n/a	n/a	n/a
194.2936	1.0	ITI	n/a	n/a	n/a	n/a	n/a	n/a	n/a	n/a
195.2937	0.5	FIXCROSS	n/a	n/a	n/a	n/a	n/a	n/a	n/a	n/a
195.7937	1.3667	T_COLOR_NAME	1	Incongruent	żółty	yellow	niebieski	blue	incorrect	n/a
197.1363	n/a	RESPONSE	n/a	n/a	n/a	n/a	n/a	n/a	n/a	blue
197.1603	0.5167	FEEDBACK	n/a	n/a	n/a	n/a	n/a	n/a	n/a	n/a
197.677	1.0167	ITI	n/a	n/a	n/a	n/a	n/a	n/a	n/a	n/a
198.6937	0.5167	FIXCROSS	n/a	n/a	n/a	n/a	n/a	n/a	n/a	n/a
199.2104	0.7667	T_COLOR_NAME	2	Neutral	żółty	yellow	Neutral	Neutral	hit	n/a
199.9516	n/a	RESPONSE	n/a	n/a	n/a	n/a	n/a	n/a	n/a	yellow
199.977	0.5167	FEEDBACK	n/a	n/a	n/a	n/a	n/a	n/a	n/a	n/a
200.4937	1.0167	ITI	n/a	n/a	n/a	n/a	n/a	n/a	n/a	n/a
201.5104	0.5167	FIXCROSS	n/a	n/a	n/a	n/a	n/a	n/a	n/a	n/a
202.0271	0.7667	T_COLOR_NAME	3	Incongruent	niebieski	blue	zielony	green	hit	n/a
202.767	n/a	RESPONSE	n/a	n/a	n/a	n/a	n/a	n/a	n/a	blue
202.7937	0.5167	FEEDBACK	n/a	n/a	n/a	n/a	n/a	n/a	n/a	n/a
203.3104	1.0167	ITI	n/a	n/a	n/a	n/a	n/a	n/a	n/a	n/a
204.3271	0.5167	FIXCROSS	n/a	n/a	n/a	n/a	n/a	n/a	n/a	n/a
204.8438	0.5667	T_COLOR_NAME	4	Incongruent	zielony	green	niebieski	blue	hit	n/a
205.3743	n/a	RESPONSE	n/a	n/a	n/a	n/a	n/a	n/a	n/a	green
205.4104	0.5167	FEEDBACK	n/a	n/a	n/a	n/a	n/a	n/a	n/a	n/a
205.9271	1.0167	ITI	n/a	n/a	n/a	n/a	n/a	n/a	n/a	n/a
206.9438	0.5166	FIXCROSS	n/a	n/a	n/a	n/a	n/a	n/a	n/a	n/a
207.4604	0.6334	T_COLOR_NAME	5	Neutral	niebieski	blue	Neutral	Neutral	hit	n/a
208.0617	n/a	RESPONSE	n/a	n/a	n/a	n/a	n/a	n/a	n/a	blue
208.0938	0.5167	FEEDBACK	n/a	n/a	n/a	n/a	n/a	n/a	n/a	n/a
208.6105	1.0167	ITI	n/a	n/a	n/a	n/a	n/a	n/a	n/a	n/a
209.6272	0.5167	FIXCROSS	n/a	n/a	n/a	n/a	n/a	n/a	n/a	n/a
210.1438	0.7333	T_COLOR_NAME	6	Neutral	zielony	green	Neutral	Neutral	hit	n/a
210.845	n/a	RESPONSE	n/a	n/a	n/a	n/a	n/a	n/a	n/a	green
210.8772	0.5167	FEEDBACK	n/a	n/a	n/a	n/a	n/a	n/a	n/a	n/a
211.3938	1.0167	ITI	n/a	n/a	n/a	n/a	n/a	n/a	n/a	n/a
212.4105	0.5166	FIXCROSS	n/a	n/a	n/a	n/a	n/a	n/a	n/a	n/a
212.9272	0.6	T_COLOR_NAME	7	Neutral	żółty	yellow	Neutral	Neutral	hit	n/a
213.5004	n/a	RESPONSE	n/a	n/a	n/a	n/a	n/a	n/a	n/a	yellow
213.5272	0.5167	FEEDBACK	n/a	n/a	n/a	n/a	n/a	n/a	n/a	n/a
214.0439	1.0167	ITI	n/a	n/a	n/a	n/a	n/a	n/a	n/a	n/a
215.0606	0.5167	FIXCROSS	n/a	n/a	n/a	n/a	n/a	n/a	n/a	n/a
215.5772	0.8667	T_COLOR_NAME	8	Incongruent	żółty	yellow	czerwony	red	hit	n/a
216.4117	n/a	RESPONSE	n/a	n/a	n/a	n/a	n/a	n/a	n/a	yellow
216.4439	0.5167	FEEDBACK	n/a	n/a	n/a	n/a	n/a	n/a	n/a	n/a
216.9606	1.0167	ITI	n/a	n/a	n/a	n/a	n/a	n/a	n/a	n/a
217.9773	0.5167	FIXCROSS	n/a	n/a	n/a	n/a	n/a	n/a	n/a	n/a
218.4939	0.8334	T_COLOR_NAME	9	Incongruent	zielony	green	czerwony	red	hit	n/a
219.307	n/a	RESPONSE	n/a	n/a	n/a	n/a	n/a	n/a	n/a	green
219.3273	0.5167	FEEDBACK	n/a	n/a	n/a	n/a	n/a	n/a	n/a	n/a
219.844	1.0167	ITI	n/a	n/a	n/a	n/a	n/a	n/a	n/a	n/a
220.8606	0.5167	FIXCROSS	n/a	n/a	n/a	n/a	n/a	n/a	n/a	n/a
221.3773	0.85	T_COLOR_NAME	10	Incongruent	żółty	yellow	zielony	green	hit	n/a
222.2023	n/a	RESPONSE	n/a	n/a	n/a	n/a	n/a	n/a	n/a	yellow
222.2273	0.5167	FEEDBACK	n/a	n/a	n/a	n/a	n/a	n/a	n/a	n/a
222.744	1.0167	ITI	n/a	n/a	n/a	n/a	n/a	n/a	n/a	n/a
223.7607	0.5167	FIXCROSS	n/a	n/a	n/a	n/a	n/a	n/a	n/a	n/a
224.2773	0.5833	T_COLOR_NAME	11	Neutral	czerwony	red	Neutral	Neutral	hit	n/a
224.8416	n/a	RESPONSE	n/a	n/a	n/a	n/a	n/a	n/a	n/a	red
224.8607	0.5167	FEEDBACK	n/a	n/a	n/a	n/a	n/a	n/a	n/a	n/a
225.3773	1.0167	ITI	n/a	n/a	n/a	n/a	n/a	n/a	n/a	n/a
226.394	0.5167	FIXCROSS	n/a	n/a	n/a	n/a	n/a	n/a	n/a	n/a
226.9107	0.6833	T_COLOR_NAME	12	Neutral	czerwony	red	Neutral	Neutral	hit	n/a
227.561	n/a	RESPONSE	n/a	n/a	n/a	n/a	n/a	n/a	n/a	red
227.594	0.5167	FEEDBACK	n/a	n/a	n/a	n/a	n/a	n/a	n/a	n/a
228.1107	1.0333	ITI	n/a	n/a	n/a	n/a	n/a	n/a	n/a	n/a
240.9337	n/a	RESPONSE	n/a	n/a	n/a	n/a	n/a	n/a	n/a	n/a
240.9942	1.0167	ITI	n/a	n/a	n/a	n/a	n/a	n/a	n/a	n/a
242.0109	0.5167	FIXCROSS	n/a	n/a	n/a	n/a	n/a	n/a	n/a	n/a
242.5276	1.5667	COLOR_NAME	1	Incongruent	żółty	yellow	czerwony	red	hit	n/a
244.069	n/a	RESPONSE	n/a	n/a	n/a	n/a	n/a	n/a	n/a	yellow
244.0942	1.0167	ITI	n/a	n/a	n/a	n/a	n/a	n/a	n/a	n/a
245.1109	0.5167	FIXCROSS	n/a	n/a	n/a	n/a	n/a	n/a	n/a	n/a
245.6276	0.5333	COLOR_NAME	2	Incongruent	żółty	yellow	czerwony	red	hit	n/a
246.1325	n/a	RESPONSE	n/a	n/a	n/a	n/a	n/a	n/a	n/a	yellow
246.1609	1.0167	ITI	n/a	n/a	n/a	n/a	n/a	n/a	n/a	n/a
247.1776	0.5167	FIXCROSS	n/a	n/a	n/a	n/a	n/a	n/a	n/a	n/a
247.6943	0.4833	COLOR_NAME	3	Neutral	żółty	yellow	Neutral	Neutral	hit	n/a
248.148	n/a	RESPONSE	n/a	n/a	n/a	n/a	n/a	n/a	n/a	yellow
248.1776	1.0167	ITI	n/a	n/a	n/a	n/a	n/a	n/a	n/a	n/a
249.1943	0.5167	FIXCROSS	n/a	n/a	n/a	n/a	n/a	n/a	n/a	n/a
249.711	0.4833	COLOR_NAME	4	Neutral	żółty	yellow	Neutral	Neutral	hit	n/a
250.1635	n/a	RESPONSE	n/a	n/a	n/a	n/a	n/a	n/a	n/a	yellow
250.1943	1.0167	ITI	n/a	n/a	n/a	n/a	n/a	n/a	n/a	n/a
251.211	0.5167	FIXCROSS	n/a	n/a	n/a	n/a	n/a	n/a	n/a	n/a
251.7277	0.4833	COLOR_NAME	5	Neutral	żółty	yellow	Neutral	Neutral	hit	n/a
252.179	n/a	RESPONSE	n/a	n/a	n/a	n/a	n/a	n/a	n/a	yellow
252.211	1.0167	ITI	n/a	n/a	n/a	n/a	n/a	n/a	n/a	n/a
253.2277	0.5167	FIXCROSS	n/a	n/a	n/a	n/a	n/a	n/a	n/a	n/a
253.7443	0.6	COLOR_NAME	6	Neutral	niebieski	blue	Neutral	Neutral	hit	n/a
254.3225	n/a	RESPONSE	n/a	n/a	n/a	n/a	n/a	n/a	n/a	blue
254.3444	1.0167	ITI	n/a	n/a	n/a	n/a	n/a	n/a	n/a	n/a
255.361	0.5167	FIXCROSS	n/a	n/a	n/a	n/a	n/a	n/a	n/a	n/a
255.8777	0.65	COLOR_NAME	7	Neutral	żółty	yellow	Neutral	Neutral	hit	n/a
256.498	n/a	RESPONSE	n/a	n/a	n/a	n/a	n/a	n/a	n/a	yellow
256.5277	1.0167	ITI	n/a	n/a	n/a	n/a	n/a	n/a	n/a	n/a
257.5444	0.5167	FIXCROSS	n/a	n/a	n/a	n/a	n/a	n/a	n/a	n/a
258.0611	0.6333	COLOR_NAME	8	Neutral	zielony	green	Neutral	Neutral	hit	n/a
258.6734	n/a	RESPONSE	n/a	n/a	n/a	n/a	n/a	n/a	n/a	green
258.6944	1.0167	ITI	n/a	n/a	n/a	n/a	n/a	n/a	n/a	n/a
259.7111	0.5167	FIXCROSS	n/a	n/a	n/a	n/a	n/a	n/a	n/a	n/a
260.2278	0.6167	COLOR_NAME	9	Neutral	niebieski	blue	Neutral	Neutral	hit	n/a
260.8169	n/a	RESPONSE	n/a	n/a	n/a	n/a	n/a	n/a	n/a	blue
260.8444	1.0167	ITI	n/a	n/a	n/a	n/a	n/a	n/a	n/a	n/a
261.8611	0.5167	FIXCROSS	n/a	n/a	n/a	n/a	n/a	n/a	n/a	n/a
262.3778	0.6	COLOR_NAME	10	Incongruent	czerwony	red	niebieski	blue	hit	n/a
262.9604	n/a	RESPONSE	n/a	n/a	n/a	n/a	n/a	n/a	n/a	red
262.9778	1.0167	ITI	n/a	n/a	n/a	n/a	n/a	n/a	n/a	n/a
263.9945	0.5167	FIXCROSS	n/a	n/a	n/a	n/a	n/a	n/a	n/a	n/a
264.5111	0.6167	COLOR_NAME	11	Incongruent	czerwony	red	żółty	yellow	hit	n/a
265.1039	n/a	RESPONSE	n/a	n/a	n/a	n/a	n/a	n/a	n/a	red
265.1278	1.0167	ITI	n/a	n/a	n/a	n/a	n/a	n/a	n/a	n/a
266.1445	0.5167	FIXCROSS	n/a	n/a	n/a	n/a	n/a	n/a	n/a	n/a
266.6612	0.5167	COLOR_NAME	12	Incongruent	niebieski	blue	żółty	yellow	hit	n/a
267.1514	n/a	RESPONSE	n/a	n/a	n/a	n/a	n/a	n/a	n/a	blue
267.1778	1.0167	ITI	n/a	n/a	n/a	n/a	n/a	n/a	n/a	n/a
268.1945	0.5167	FIXCROSS	n/a	n/a	n/a	n/a	n/a	n/a	n/a	n/a
268.7112	0.5667	COLOR_NAME	13	Incongruent	czerwony	red	zielony	green	hit	n/a
269.2469	n/a	RESPONSE	n/a	n/a	n/a	n/a	n/a	n/a	n/a	red
269.2779	1.0167	ITI	n/a	n/a	n/a	n/a	n/a	n/a	n/a	n/a
270.2945	0.5167	FIXCROSS	n/a	n/a	n/a	n/a	n/a	n/a	n/a	n/a
270.8112	0.55	COLOR_NAME	14	Incongruent	niebieski	blue	zielony	green	hit	n/a
271.3424	n/a	RESPONSE	n/a	n/a	n/a	n/a	n/a	n/a	n/a	blue
271.3612	1.0167	ITI	n/a	n/a	n/a	n/a	n/a	n/a	n/a	n/a
272.3779	0.5167	FIXCROSS	n/a	n/a	n/a	n/a	n/a	n/a	n/a	n/a
272.8946	0.6167	COLOR_NAME	15	Incongruent	niebieski	blue	żółty	yellow	hit	n/a
273.4859	n/a	RESPONSE	n/a	n/a	n/a	n/a	n/a	n/a	n/a	blue
273.5112	1.0167	ITI	n/a	n/a	n/a	n/a	n/a	n/a	n/a	n/a
274.5279	0.5167	FIXCROSS	n/a	n/a	n/a	n/a	n/a	n/a	n/a	n/a
275.0446	0.5333	COLOR_NAME	16	Neutral	czerwony	red	Neutral	Neutral	hit	n/a
275.5494	n/a	RESPONSE	n/a	n/a	n/a	n/a	n/a	n/a	n/a	red
275.5779	1.0167	ITI	n/a	n/a	n/a	n/a	n/a	n/a	n/a	n/a
276.5946	0.5167	FIXCROSS	n/a	n/a	n/a	n/a	n/a	n/a	n/a	n/a
277.1113	0.55	COLOR_NAME	17	Neutral	żółty	yellow	Neutral	Neutral	hit	n/a
277.6289	n/a	RESPONSE	n/a	n/a	n/a	n/a	n/a	n/a	n/a	yellow
277.6613	1.0167	ITI	n/a	n/a	n/a	n/a	n/a	n/a	n/a	n/a
278.678	0.5167	FIXCROSS	n/a	n/a	n/a	n/a	n/a	n/a	n/a	n/a
279.1946	0.5	COLOR_NAME	18	Neutral	niebieski	blue	Neutral	Neutral	hit	n/a
279.6763	n/a	RESPONSE	n/a	n/a	n/a	n/a	n/a	n/a	n/a	blue
279.6947	1.0167	ITI	n/a	n/a	n/a	n/a	n/a	n/a	n/a	n/a
280.7113	0.5167	FIXCROSS	n/a	n/a	n/a	n/a	n/a	n/a	n/a	n/a
281.228	0.5667	COLOR_NAME	19	Neutral	czerwony	red	Neutral	Neutral	hit	n/a
281.7719	n/a	RESPONSE	n/a	n/a	n/a	n/a	n/a	n/a	n/a	red
281.7947	1.0167	ITI	n/a	n/a	n/a	n/a	n/a	n/a	n/a	n/a
282.8114	0.5167	FIXCROSS	n/a	n/a	n/a	n/a	n/a	n/a	n/a	n/a
283.328	0.5667	COLOR_NAME	20	Neutral	niebieski	blue	Neutral	Neutral	hit	n/a
283.8674	n/a	RESPONSE	n/a	n/a	n/a	n/a	n/a	n/a	n/a	blue
283.8947	1.0167	ITI	n/a	n/a	n/a	n/a	n/a	n/a	n/a	n/a
284.9114	0.5167	FIXCROSS	n/a	n/a	n/a	n/a	n/a	n/a	n/a	n/a
285.4281	0.5333	COLOR_NAME	21	Neutral	niebieski	blue	Neutral	Neutral	hit	n/a
285.9309	n/a	RESPONSE	n/a	n/a	n/a	n/a	n/a	n/a	n/a	blue
285.9614	1.0167	ITI	n/a	n/a	n/a	n/a	n/a	n/a	n/a	n/a
286.9781	0.5167	FIXCROSS	n/a	n/a	n/a	n/a	n/a	n/a	n/a	n/a
287.4947	0.5333	COLOR_NAME	22	Neutral	zielony	green	Neutral	Neutral	hit	n/a
288.0103	n/a	RESPONSE	n/a	n/a	n/a	n/a	n/a	n/a	n/a	green
288.0281	1.0167	ITI	n/a	n/a	n/a	n/a	n/a	n/a	n/a	n/a
289.0448	0.5167	FIXCROSS	n/a	n/a	n/a	n/a	n/a	n/a	n/a	n/a
289.5614	0.5833	COLOR_NAME	23	Incongruent	żółty	yellow	niebieski	blue	hit	n/a
290.1219	n/a	RESPONSE	n/a	n/a	n/a	n/a	n/a	n/a	n/a	yellow
290.1448	1.0166	ITI	n/a	n/a	n/a	n/a	n/a	n/a	n/a	n/a
291.1613	0.5168	FIXCROSS	n/a	n/a	n/a	n/a	n/a	n/a	n/a	n/a
291.6781	0.7	COLOR_NAME	24	Incongruent	zielony	green	niebieski	blue	hit	n/a
292.3453	n/a	RESPONSE	n/a	n/a	n/a	n/a	n/a	n/a	n/a	green
292.3781	1.0167	ITI	n/a	n/a	n/a	n/a	n/a	n/a	n/a	n/a
293.3948	0.5167	FIXCROSS	n/a	n/a	n/a	n/a	n/a	n/a	n/a	n/a
293.9115	0.5667	COLOR_NAME	25	Incongruent	niebieski	blue	żółty	yellow	hit	n/a
294.4568	n/a	RESPONSE	n/a	n/a	n/a	n/a	n/a	n/a	n/a	blue
294.4782	1.0167	ITI	n/a	n/a	n/a	n/a	n/a	n/a	n/a	n/a
295.4948	0.5167	FIXCROSS	n/a	n/a	n/a	n/a	n/a	n/a	n/a	n/a
296.0115	0.6667	COLOR_NAME	26	Neutral	zielony	green	Neutral	Neutral	hit	n/a
296.6483	n/a	RESPONSE	n/a	n/a	n/a	n/a	n/a	n/a	n/a	green
296.6782	1.0167	ITI	n/a	n/a	n/a	n/a	n/a	n/a	n/a	n/a
297.6949	0.5167	FIXCROSS	n/a	n/a	n/a	n/a	n/a	n/a	n/a	n/a
298.2115	0.5667	COLOR_NAME	27	Neutral	czerwony	red	Neutral	Neutral	hit	n/a
298.7598	n/a	RESPONSE	n/a	n/a	n/a	n/a	n/a	n/a	n/a	red
298.7782	1.0167	ITI	n/a	n/a	n/a	n/a	n/a	n/a	n/a	n/a
299.7949	0.5167	FIXCROSS	n/a	n/a	n/a	n/a	n/a	n/a	n/a	n/a
300.3116	0.5167	COLOR_NAME	28	Neutral	niebieski	blue	Neutral	Neutral	hit	n/a
300.8073	n/a	RESPONSE	n/a	n/a	n/a	n/a	n/a	n/a	n/a	blue
300.8282	1.0167	ITI	n/a	n/a	n/a	n/a	n/a	n/a	n/a	n/a
301.8449	0.5167	FIXCROSS	n/a	n/a	n/a	n/a	n/a	n/a	n/a	n/a
302.3616	0.6167	COLOR_NAME	29	Incongruent	żółty	yellow	niebieski	blue	hit	n/a
302.9508	n/a	RESPONSE	n/a	n/a	n/a	n/a	n/a	n/a	n/a	yellow
302.9783	1.0167	ITI	n/a	n/a	n/a	n/a	n/a	n/a	n/a	n/a
303.9949	0.5167	FIXCROSS	n/a	n/a	n/a	n/a	n/a	n/a	n/a	n/a
304.5116	0.55	COLOR_NAME	30	Incongruent	czerwony	red	żółty	yellow	hit	n/a
305.0302	n/a	RESPONSE	n/a	n/a	n/a	n/a	n/a	n/a	n/a	red
305.0616	1.0167	ITI	n/a	n/a	n/a	n/a	n/a	n/a	n/a	n/a
306.0783	0.5167	FIXCROSS	n/a	n/a	n/a	n/a	n/a	n/a	n/a	n/a
306.595	0.65	COLOR_NAME	31	Incongruent	czerwony	red	niebieski	blue	hit	n/a
307.2217	n/a	RESPONSE	n/a	n/a	n/a	n/a	n/a	n/a	n/a	red
307.245	1.0167	ITI	n/a	n/a	n/a	n/a	n/a	n/a	n/a	n/a
308.2617	0.5167	FIXCROSS	n/a	n/a	n/a	n/a	n/a	n/a	n/a	n/a
308.7783	0.6167	COLOR_NAME	32	Incongruent	zielony	green	żółty	yellow	hit	n/a
309.3652	n/a	RESPONSE	n/a	n/a	n/a	n/a	n/a	n/a	n/a	green
309.395	1.0167	ITI	n/a	n/a	n/a	n/a	n/a	n/a	n/a	n/a
310.4117	0.5167	FIXCROSS	n/a	n/a	n/a	n/a	n/a	n/a	n/a	n/a
310.9284	0.65	COLOR_NAME	33	Incongruent	żółty	yellow	zielony	green	hit	n/a
311.5567	n/a	RESPONSE	n/a	n/a	n/a	n/a	n/a	n/a	n/a	yellow
311.5784	1.0167	ITI	n/a	n/a	n/a	n/a	n/a	n/a	n/a	n/a
312.595	0.5167	FIXCROSS	n/a	n/a	n/a	n/a	n/a	n/a	n/a	n/a
313.1117	0.7833	COLOR_NAME	34	Incongruent	zielony	green	czerwony	red	hit	n/a
313.8761	n/a	RESPONSE	n/a	n/a	n/a	n/a	n/a	n/a	n/a	green
313.8951	1.0167	ITI	n/a	n/a	n/a	n/a	n/a	n/a	n/a	n/a
314.9117	0.5167	FIXCROSS	n/a	n/a	n/a	n/a	n/a	n/a	n/a	n/a
315.4284	0.6167	COLOR_NAME	35	Incongruent	czerwony	red	niebieski	blue	hit	n/a
316.0196	n/a	RESPONSE	n/a	n/a	n/a	n/a	n/a	n/a	n/a	red
316.0451	1.0167	ITI	n/a	n/a	n/a	n/a	n/a	n/a	n/a	n/a
317.0618	0.5167	FIXCROSS	n/a	n/a	n/a	n/a	n/a	n/a	n/a	n/a
317.5784	0.6	COLOR_NAME	36	Incongruent	niebieski	blue	czerwony	red	hit	n/a
318.1471	n/a	RESPONSE	n/a	n/a	n/a	n/a	n/a	n/a	n/a	blue
318.1784	1.0167	ITI	n/a	n/a	n/a	n/a	n/a	n/a	n/a	n/a
319.1951	0.5167	FIXCROSS	n/a	n/a	n/a	n/a	n/a	n/a	n/a	n/a
319.7118	0.5667	COLOR_NAME	37	Incongruent	zielony	green	żółty	yellow	hit	n/a
320.2585	n/a	RESPONSE	n/a	n/a	n/a	n/a	n/a	n/a	n/a	green
320.2785	1.0167	ITI	n/a	n/a	n/a	n/a	n/a	n/a	n/a	n/a
321.2951	0.5167	FIXCROSS	n/a	n/a	n/a	n/a	n/a	n/a	n/a	n/a
321.8118	0.5167	COLOR_NAME	38	Incongruent	żółty	yellow	zielony	green	hit	n/a
322.306	n/a	RESPONSE	n/a	n/a	n/a	n/a	n/a	n/a	n/a	yellow
322.3285	1.0167	ITI	n/a	n/a	n/a	n/a	n/a	n/a	n/a	n/a
323.3452	0.5167	FIXCROSS	n/a	n/a	n/a	n/a	n/a	n/a	n/a	n/a
323.8618	0.7	COLOR_NAME	39	Neutral	zielony	green	Neutral	Neutral	hit	n/a
324.5295	n/a	RESPONSE	n/a	n/a	n/a	n/a	n/a	n/a	n/a	green
324.5619	1.0167	ITI	n/a	n/a	n/a	n/a	n/a	n/a	n/a	n/a
325.5785	0.5167	FIXCROSS	n/a	n/a	n/a	n/a	n/a	n/a	n/a	n/a
326.0952	0.5833	COLOR_NAME	40	Neutral	czerwony	red	Neutral	Neutral	hit	n/a
326.657	n/a	RESPONSE	n/a	n/a	n/a	n/a	n/a	n/a	n/a	red
326.6785	1.0167	ITI	n/a	n/a	n/a	n/a	n/a	n/a	n/a	n/a
327.6952	0.5167	FIXCROSS	n/a	n/a	n/a	n/a	n/a	n/a	n/a	n/a
328.2119	0.4667	COLOR_NAME	41	Neutral	czerwony	red	Neutral	Neutral	hit	n/a
328.6565	n/a	RESPONSE	n/a	n/a	n/a	n/a	n/a	n/a	n/a	red
328.6786	1.0167	ITI	n/a	n/a	n/a	n/a	n/a	n/a	n/a	n/a
329.6952	0.5167	FIXCROSS	n/a	n/a	n/a	n/a	n/a	n/a	n/a	n/a
330.2119	0.7333	COLOR_NAME	42	Neutral	niebieski	blue	Neutral	Neutral	hit	n/a
330.912	n/a	RESPONSE	n/a	n/a	n/a	n/a	n/a	n/a	n/a	blue
330.9453	1.0167	ITI	n/a	n/a	n/a	n/a	n/a	n/a	n/a	n/a
331.9619	0.5167	FIXCROSS	n/a	n/a	n/a	n/a	n/a	n/a	n/a	n/a
332.4786	0.65	COLOR_NAME	43	Incongruent	niebieski	blue	zielony	green	hit	n/a
333.1034	n/a	RESPONSE	n/a	n/a	n/a	n/a	n/a	n/a	n/a	blue
333.1286	1.0167	ITI	n/a	n/a	n/a	n/a	n/a	n/a	n/a	n/a
334.1453	0.5167	FIXCROSS	n/a	n/a	n/a	n/a	n/a	n/a	n/a	n/a
334.662	0.9	COLOR_NAME	44	Neutral	żółty	yellow	Neutral	Neutral	hit	n/a
335.5349	n/a	RESPONSE	n/a	n/a	n/a	n/a	n/a	n/a	n/a	yellow
335.562	1.0167	ITI	n/a	n/a	n/a	n/a	n/a	n/a	n/a	n/a
336.5787	0.5167	FIXCROSS	n/a	n/a	n/a	n/a	n/a	n/a	n/a	n/a
337.0953	0.6	COLOR_NAME	45	Incongruent	czerwony	red	zielony	green	hit	n/a
337.6623	n/a	RESPONSE	n/a	n/a	n/a	n/a	n/a	n/a	n/a	red
337.6953	1.0167	ITI	n/a	n/a	n/a	n/a	n/a	n/a	n/a	n/a
338.712	0.5167	FIXCROSS	n/a	n/a	n/a	n/a	n/a	n/a	n/a	n/a
339.2287	0.5667	COLOR_NAME	46	Incongruent	czerwony	red	zielony	green	hit	n/a
339.7739	n/a	RESPONSE	n/a	n/a	n/a	n/a	n/a	n/a	n/a	red
339.7954	1.0167	ITI	n/a	n/a	n/a	n/a	n/a	n/a	n/a	n/a
340.8121	0.5167	FIXCROSS	n/a	n/a	n/a	n/a	n/a	n/a	n/a	n/a
341.3287	0.65	COLOR_NAME	47	Incongruent	niebieski	blue	czerwony	red	hit	n/a
341.9493	n/a	RESPONSE	n/a	n/a	n/a	n/a	n/a	n/a	n/a	blue
341.9787	1.0167	ITI	n/a	n/a	n/a	n/a	n/a	n/a	n/a	n/a
342.9954	0.5167	FIXCROSS	n/a	n/a	n/a	n/a	n/a	n/a	n/a	n/a
343.5121	0.5167	COLOR_NAME	48	Incongruent	niebieski	blue	zielony	green	hit	n/a
343.9968	n/a	RESPONSE	n/a	n/a	n/a	n/a	n/a	n/a	n/a	blue
344.0288	1.0167	ITI	n/a	n/a	n/a	n/a	n/a	n/a	n/a	n/a
345.0454	0.5167	FIXCROSS	n/a	n/a	n/a	n/a	n/a	n/a	n/a	n/a
345.5621	1.2167	COLOR_NAME	49	Neutral	zielony	green	Neutral	Neutral	hit	n/a
346.7482	n/a	RESPONSE	n/a	n/a	n/a	n/a	n/a	n/a	n/a	green
346.7788	1.0167	ITI	n/a	n/a	n/a	n/a	n/a	n/a	n/a	n/a
347.7955	0.5167	FIXCROSS	n/a	n/a	n/a	n/a	n/a	n/a	n/a	n/a
348.3121	0.6167	COLOR_NAME	50	Neutral	żółty	yellow	Neutral	Neutral	hit	n/a
348.9077	n/a	RESPONSE	n/a	n/a	n/a	n/a	n/a	n/a	n/a	yellow
348.9288	1.0167	ITI	n/a	n/a	n/a	n/a	n/a	n/a	n/a	n/a
349.9455	0.5167	FIXCROSS	n/a	n/a	n/a	n/a	n/a	n/a	n/a	n/a
350.4622	0.7333	COLOR_NAME	51	Incongruent	zielony	green	niebieski	blue	hit	n/a
351.1631	n/a	RESPONSE	n/a	n/a	n/a	n/a	n/a	n/a	n/a	green
351.1955	1.0167	ITI	n/a	n/a	n/a	n/a	n/a	n/a	n/a	n/a
352.2122	0.5167	FIXCROSS	n/a	n/a	n/a	n/a	n/a	n/a	n/a	n/a
352.7289	0.7333	COLOR_NAME	52	Incongruent	zielony	green	czerwony	red	hit	n/a
353.4345	n/a	RESPONSE	n/a	n/a	n/a	n/a	n/a	n/a	n/a	green
353.4622	1.0167	ITI	n/a	n/a	n/a	n/a	n/a	n/a	n/a	n/a
354.4789	0.5167	FIXCROSS	n/a	n/a	n/a	n/a	n/a	n/a	n/a	n/a
354.9955	0.6	COLOR_NAME	53	Neutral	zielony	green	Neutral	Neutral	hit	n/a
355.562	n/a	RESPONSE	n/a	n/a	n/a	n/a	n/a	n/a	n/a	green
355.5956	1.0167	ITI	n/a	n/a	n/a	n/a	n/a	n/a	n/a	n/a
356.6122	0.5167	FIXCROSS	n/a	n/a	n/a	n/a	n/a	n/a	n/a	n/a
357.1289	0.7333	COLOR_NAME	54	Incongruent	żółty	yellow	niebieski	blue	hit	n/a
357.8335	n/a	RESPONSE	n/a	n/a	n/a	n/a	n/a	n/a	n/a	yellow
357.8622	1.0167	ITI	n/a	n/a	n/a	n/a	n/a	n/a	n/a	n/a
358.8789	0.5167	FIXCROSS	n/a	n/a	n/a	n/a	n/a	n/a	n/a	n/a
359.3956	0.5667	COLOR_NAME	55	Neutral	czerwony	red	Neutral	Neutral	hit	n/a
359.929	n/a	RESPONSE	n/a	n/a	n/a	n/a	n/a	n/a	n/a	red
359.9623	1.0167	ITI	n/a	n/a	n/a	n/a	n/a	n/a	n/a	n/a
360.9789	0.5167	FIXCROSS	n/a	n/a	n/a	n/a	n/a	n/a	n/a	n/a
361.4956	0.7167	COLOR_NAME	56	Incongruent	zielony	green	niebieski	blue	hit	n/a
362.1844	n/a	RESPONSE	n/a	n/a	n/a	n/a	n/a	n/a	n/a	green
362.2123	1.0167	ITI	n/a	n/a	n/a	n/a	n/a	n/a	n/a	n/a
363.229	0.5167	FIXCROSS	n/a	n/a	n/a	n/a	n/a	n/a	n/a	n/a
363.7456	0.6167	COLOR_NAME	57	Neutral	żółty	yellow	Neutral	Neutral	hit	n/a
364.3439	n/a	RESPONSE	n/a	n/a	n/a	n/a	n/a	n/a	n/a	yellow
364.3623	1.0167	ITI	n/a	n/a	n/a	n/a	n/a	n/a	n/a	n/a
365.379	0.5167	FIXCROSS	n/a	n/a	n/a	n/a	n/a	n/a	n/a	n/a
365.8957	0.6167	COLOR_NAME	58	Neutral	niebieski	blue	Neutral	Neutral	hit	n/a
366.4874	n/a	RESPONSE	n/a	n/a	n/a	n/a	n/a	n/a	n/a	blue
366.5123	1.0167	ITI	n/a	n/a	n/a	n/a	n/a	n/a	n/a	n/a
367.529	0.5167	FIXCROSS	n/a	n/a	n/a	n/a	n/a	n/a	n/a	n/a
368.0457	0.5833	COLOR_NAME	59	Incongruent	niebieski	blue	czerwony	red	hit	n/a
368.5989	n/a	RESPONSE	n/a	n/a	n/a	n/a	n/a	n/a	n/a	blue
368.629	1.0167	ITI	n/a	n/a	n/a	n/a	n/a	n/a	n/a	n/a
369.6457	0.5167	FIXCROSS	n/a	n/a	n/a	n/a	n/a	n/a	n/a	n/a
370.1624	0.6333	COLOR_NAME	60	Incongruent	zielony	green	żółty	yellow	hit	n/a
370.7744	n/a	RESPONSE	n/a	n/a	n/a	n/a	n/a	n/a	n/a	green
370.7957	1.0167	ITI	n/a	n/a	n/a	n/a	n/a	n/a	n/a	n/a
371.8124	0.5167	FIXCROSS	n/a	n/a	n/a	n/a	n/a	n/a	n/a	n/a
372.3291	0.5	COLOR_NAME	61	Incongruent	żółty	yellow	czerwony	red	hit	n/a
372.8059	n/a	RESPONSE	n/a	n/a	n/a	n/a	n/a	n/a	n/a	yellow
372.8291	1.0167	ITI	n/a	n/a	n/a	n/a	n/a	n/a	n/a	n/a
373.8458	0.5167	FIXCROSS	n/a	n/a	n/a	n/a	n/a	n/a	n/a	n/a
374.3624	0.5667	COLOR_NAME	62	Incongruent	czerwony	red	żółty	yellow	hit	n/a
374.9014	n/a	RESPONSE	n/a	n/a	n/a	n/a	n/a	n/a	n/a	red
374.9291	1.0167	ITI	n/a	n/a	n/a	n/a	n/a	n/a	n/a	n/a
375.9458	0.5167	FIXCROSS	n/a	n/a	n/a	n/a	n/a	n/a	n/a	n/a
376.4625	0.5333	COLOR_NAME	63	Neutral	niebieski	blue	Neutral	Neutral	hit	n/a
376.9649	n/a	RESPONSE	n/a	n/a	n/a	n/a	n/a	n/a	n/a	blue
376.9958	1.0167	ITI	n/a	n/a	n/a	n/a	n/a	n/a	n/a	n/a
378.0125	0.5167	FIXCROSS	n/a	n/a	n/a	n/a	n/a	n/a	n/a	n/a
378.5292	0.5333	COLOR_NAME	64	Neutral	czerwony	red	Neutral	Neutral	hit	n/a
379.0444	n/a	RESPONSE	n/a	n/a	n/a	n/a	n/a	n/a	n/a	red
379.0625	1.0167	ITI	n/a	n/a	n/a	n/a	n/a	n/a	n/a	n/a
380.0792	0.5167	FIXCROSS	n/a	n/a	n/a	n/a	n/a	n/a	n/a	n/a
380.5959	0.65	COLOR_NAME	65	Incongruent	żółty	yellow	zielony	green	hit	n/a
381.2198	n/a	RESPONSE	n/a	n/a	n/a	n/a	n/a	n/a	n/a	yellow
381.2459	1.0167	ITI	n/a	n/a	n/a	n/a	n/a	n/a	n/a	n/a
382.2625	0.5167	FIXCROSS	n/a	n/a	n/a	n/a	n/a	n/a	n/a	n/a
382.7792	0.6	COLOR_NAME	66	Neutral	zielony	green	Neutral	Neutral	hit	n/a
383.3473	n/a	RESPONSE	n/a	n/a	n/a	n/a	n/a	n/a	n/a	green
383.3792	1.0167	ITI	n/a	n/a	n/a	n/a	n/a	n/a	n/a	n/a
384.3959	0.5167	FIXCROSS	n/a	n/a	n/a	n/a	n/a	n/a	n/a	n/a
384.9126	0.5333	COLOR_NAME	67	Neutral	zielony	green	Neutral	Neutral	hit	n/a
385.4269	n/a	RESPONSE	n/a	n/a	n/a	n/a	n/a	n/a	n/a	green
385.4459	1.0167	ITI	n/a	n/a	n/a	n/a	n/a	n/a	n/a	n/a
386.4626	0.5167	FIXCROSS	n/a	n/a	n/a	n/a	n/a	n/a	n/a	n/a
386.9793	0.6	COLOR_NAME	68	Neutral	żółty	yellow	Neutral	Neutral	hit	n/a
387.5543	n/a	RESPONSE	n/a	n/a	n/a	n/a	n/a	n/a	n/a	yellow
387.5793	1.0167	ITI	n/a	n/a	n/a	n/a	n/a	n/a	n/a	n/a
388.5959	0.5167	FIXCROSS	n/a	n/a	n/a	n/a	n/a	n/a	n/a	n/a
389.1126	0.6	COLOR_NAME	69	Neutral	czerwony	red	Neutral	Neutral	hit	n/a
389.6818	n/a	RESPONSE	n/a	n/a	n/a	n/a	n/a	n/a	n/a	red
389.7126	1.0167	ITI	n/a	n/a	n/a	n/a	n/a	n/a	n/a	n/a
390.7293	0.5167	FIXCROSS	n/a	n/a	n/a	n/a	n/a	n/a	n/a	n/a
391.246	0.4667	COLOR_NAME	70	Neutral	czerwony	red	Neutral	Neutral	hit	n/a
391.6813	n/a	RESPONSE	n/a	n/a	n/a	n/a	n/a	n/a	n/a	red
391.7126	1.0167	ITI	n/a	n/a	n/a	n/a	n/a	n/a	n/a	n/a
392.7293	0.5167	FIXCROSS	n/a	n/a	n/a	n/a	n/a	n/a	n/a	n/a
393.246	0.8833	COLOR_NAME	71	Incongruent	zielony	green	czerwony	red	hit	n/a
394.0967	n/a	RESPONSE	n/a	n/a	n/a	n/a	n/a	n/a	n/a	green
394.1293	1.0167	ITI	n/a	n/a	n/a	n/a	n/a	n/a	n/a	n/a
395.146	0.5167	FIXCROSS	n/a	n/a	n/a	n/a	n/a	n/a	n/a	n/a
395.6627	0.6167	COLOR_NAME	72	Neutral	zielony	green	Neutral	Neutral	hit	n/a
396.2562	n/a	RESPONSE	n/a	n/a	n/a	n/a	n/a	n/a	n/a	green
396.2794	1.0333	ITI	n/a	n/a	n/a	n/a	n/a	n/a	n/a	n/a
400.5272	n/a	RESPONSE	n/a	n/a	n/a	n/a	n/a	n/a	n/a	n/a
