onset	duration	trial_type	trial_number	stroop_condition	stim_text(PL)	stim_text(eng)	stim_color(PL)	stim_color(eng)	response_type	response_color
0.0	n/a	RESPONSE	n/a	n/a	n/a	n/a	n/a	n/a	n/a	n/a
0.0633	1.0333	ITI	n/a	n/a	n/a	n/a	n/a	n/a	n/a	n/a
1.0967	0.5167	FIXCROSS	n/a	n/a	n/a	n/a	n/a	n/a	n/a	n/a
1.6133	1.6667	T_INK	1	Neutral	xxxxxxx	xxxxxxx	żółty	yellow	hit	n/a
3.2404	n/a	RESPONSE	n/a	n/a	n/a	n/a	n/a	n/a	n/a	yellow
3.28	0.5167	FEEDBACK	n/a	n/a	n/a	n/a	n/a	n/a	n/a	n/a
3.7967	1.0167	ITI	n/a	n/a	n/a	n/a	n/a	n/a	n/a	n/a
4.8134	0.5166	FIXCROSS	n/a	n/a	n/a	n/a	n/a	n/a	n/a	n/a
5.33	1.0167	T_INK	2	Incongruent	zielony	green	niebieski	blue	hit	n/a
6.3213	n/a	RESPONSE	n/a	n/a	n/a	n/a	n/a	n/a	n/a	blue
6.3467	0.5167	FEEDBACK	n/a	n/a	n/a	n/a	n/a	n/a	n/a	n/a
6.8633	1.0167	ITI	n/a	n/a	n/a	n/a	n/a	n/a	n/a	n/a
7.8801	0.5167	FIXCROSS	n/a	n/a	n/a	n/a	n/a	n/a	n/a	n/a
8.3967	0.6833	T_INK	3	Neutral	xxxxx	xxxxx	niebieski	blue	hit	n/a
9.0508	n/a	RESPONSE	n/a	n/a	n/a	n/a	n/a	n/a	n/a	blue
9.0801	0.5167	FEEDBACK	n/a	n/a	n/a	n/a	n/a	n/a	n/a	n/a
9.5967	1.0167	ITI	n/a	n/a	n/a	n/a	n/a	n/a	n/a	n/a
10.6134	0.5167	FIXCROSS	n/a	n/a	n/a	n/a	n/a	n/a	n/a	n/a
11.1301	0.4833	T_INK	4	Neutral	xxxxxxxx	xxxxxxxx	żółty	yellow	hit	n/a
11.5889	n/a	RESPONSE	n/a	n/a	n/a	n/a	n/a	n/a	n/a	yellow
11.6134	0.5167	FEEDBACK	n/a	n/a	n/a	n/a	n/a	n/a	n/a	n/a
12.1301	1.0167	ITI	n/a	n/a	n/a	n/a	n/a	n/a	n/a	n/a
13.1468	0.5167	FIXCROSS	n/a	n/a	n/a	n/a	n/a	n/a	n/a	n/a
13.6634	0.7167	T_INK	5	Incongruent	żółty	yellow	zielony	green	hit	n/a
14.3505	n/a	RESPONSE	n/a	n/a	n/a	n/a	n/a	n/a	n/a	green
14.3801	0.5166	FEEDBACK	n/a	n/a	n/a	n/a	n/a	n/a	n/a	n/a
14.8968	1.0167	ITI	n/a	n/a	n/a	n/a	n/a	n/a	n/a	n/a
15.9135	0.5166	FIXCROSS	n/a	n/a	n/a	n/a	n/a	n/a	n/a	n/a
16.4301	0.55	T_INK	6	Neutral	xxxxx	xxxxx	zielony	green	hit	n/a
16.9524	n/a	RESPONSE	n/a	n/a	n/a	n/a	n/a	n/a	n/a	green
16.9801	0.5166	FEEDBACK	n/a	n/a	n/a	n/a	n/a	n/a	n/a	n/a
17.4968	1.0167	ITI	n/a	n/a	n/a	n/a	n/a	n/a	n/a	n/a
18.5135	0.5167	FIXCROSS	n/a	n/a	n/a	n/a	n/a	n/a	n/a	n/a
19.0301	0.6666	T_INK	7	Neutral	xxxxxxx	xxxxxxx	niebieski	blue	hit	n/a
19.6661	n/a	RESPONSE	n/a	n/a	n/a	n/a	n/a	n/a	n/a	blue
19.6968	0.5167	FEEDBACK	n/a	n/a	n/a	n/a	n/a	n/a	n/a	n/a
20.2135	1.0167	ITI	n/a	n/a	n/a	n/a	n/a	n/a	n/a	n/a
21.2302	0.5167	FIXCROSS	n/a	n/a	n/a	n/a	n/a	n/a	n/a	n/a
21.7468	0.5333	T_INK	8	Neutral	xxxxxxxx	xxxxxxxx	niebieski	blue	hit	n/a
22.2521	n/a	RESPONSE	n/a	n/a	n/a	n/a	n/a	n/a	n/a	blue
22.2802	0.5167	FEEDBACK	n/a	n/a	n/a	n/a	n/a	n/a	n/a	n/a
22.7969	1.0167	ITI	n/a	n/a	n/a	n/a	n/a	n/a	n/a	n/a
23.8135	0.5167	FIXCROSS	n/a	n/a	n/a	n/a	n/a	n/a	n/a	n/a
24.3302	0.7667	T_INK	9	Neutral	xxxxxxxx	xxxxxxxx	zielony	green	hit	n/a
25.0774	n/a	RESPONSE	n/a	n/a	n/a	n/a	n/a	n/a	n/a	green
25.0969	0.5167	FEEDBACK	n/a	n/a	n/a	n/a	n/a	n/a	n/a	n/a
25.6135	1.0167	ITI	n/a	n/a	n/a	n/a	n/a	n/a	n/a	n/a
26.6302	0.5167	FIXCROSS	n/a	n/a	n/a	n/a	n/a	n/a	n/a	n/a
27.1469	0.4166	T_INK	10	Neutral	xxxxxxxxx	xxxxxxxxx	czerwony	red	hit	n/a
27.5356	n/a	RESPONSE	n/a	n/a	n/a	n/a	n/a	n/a	n/a	red
27.5635	0.5167	FEEDBACK	n/a	n/a	n/a	n/a	n/a	n/a	n/a	n/a
28.0802	1.0167	ITI	n/a	n/a	n/a	n/a	n/a	n/a	n/a	n/a
29.0969	0.5167	FIXCROSS	n/a	n/a	n/a	n/a	n/a	n/a	n/a	n/a
29.6136	0.7833	T_INK	11	Incongruent	niebieski	blue	zielony	green	hit	n/a
30.377	n/a	RESPONSE	n/a	n/a	n/a	n/a	n/a	n/a	n/a	green
30.3969	0.5166	FEEDBACK	n/a	n/a	n/a	n/a	n/a	n/a	n/a	n/a
30.9136	1.0167	ITI	n/a	n/a	n/a	n/a	n/a	n/a	n/a	n/a
31.9303	0.5167	FIXCROSS	n/a	n/a	n/a	n/a	n/a	n/a	n/a	n/a
32.4469	0.5833	T_INK	12	Incongruent	zielony	green	żółty	yellow	hit	n/a
33.011	n/a	RESPONSE	n/a	n/a	n/a	n/a	n/a	n/a	n/a	yellow
33.0303	0.5167	FEEDBACK	n/a	n/a	n/a	n/a	n/a	n/a	n/a	n/a
33.5469	1.0333	ITI	n/a	n/a	n/a	n/a	n/a	n/a	n/a	n/a
41.918	n/a	RESPONSE	n/a	n/a	n/a	n/a	n/a	n/a	n/a	n/a
41.9804	1.0167	ITI	n/a	n/a	n/a	n/a	n/a	n/a	n/a	n/a
42.997	0.5166	FIXCROSS	n/a	n/a	n/a	n/a	n/a	n/a	n/a	n/a
43.5137	0.5334	INK	1	Neutral	xxxxxxxx	xxxxxxxx	zielony	green	hit	n/a
44.0251	n/a	RESPONSE	n/a	n/a	n/a	n/a	n/a	n/a	n/a	green
44.047	1.0167	ITI	n/a	n/a	n/a	n/a	n/a	n/a	n/a	n/a
45.0637	0.5167	FIXCROSS	n/a	n/a	n/a	n/a	n/a	n/a	n/a	n/a
45.5804	0.85	INK	2	Incongruent	zielony	green	żółty	yellow	hit	n/a
46.4036	n/a	RESPONSE	n/a	n/a	n/a	n/a	n/a	n/a	n/a	yellow
46.4304	1.0167	ITI	n/a	n/a	n/a	n/a	n/a	n/a	n/a	n/a
47.4471	0.5167	FIXCROSS	n/a	n/a	n/a	n/a	n/a	n/a	n/a	n/a
47.9637	0.6	INK	3	Incongruent	zielony	green	żółty	yellow	incorrect	n/a
48.5425	n/a	RESPONSE	n/a	n/a	n/a	n/a	n/a	n/a	n/a	blue
48.5637	1.0167	ITI	n/a	n/a	n/a	n/a	n/a	n/a	n/a	n/a
48.6703	n/a	RESPONSE	n/a	n/a	n/a	n/a	n/a	n/a	n/a	yellow
49.5804	0.5167	FIXCROSS	n/a	n/a	n/a	n/a	n/a	n/a	n/a	n/a
50.0971	0.4667	INK	4	Incongruent	niebieski	blue	czerwony	red	hit	n/a
50.5379	n/a	RESPONSE	n/a	n/a	n/a	n/a	n/a	n/a	n/a	red
50.5638	1.0167	ITI	n/a	n/a	n/a	n/a	n/a	n/a	n/a	n/a
51.5804	0.5167	FIXCROSS	n/a	n/a	n/a	n/a	n/a	n/a	n/a	n/a
52.0971	0.7833	INK	5	Incongruent	żółty	yellow	zielony	green	hit	n/a
52.8525	n/a	RESPONSE	n/a	n/a	n/a	n/a	n/a	n/a	n/a	green
52.8804	1.0167	ITI	n/a	n/a	n/a	n/a	n/a	n/a	n/a	n/a
53.8971	0.5167	FIXCROSS	n/a	n/a	n/a	n/a	n/a	n/a	n/a	n/a
54.4138	0.5833	INK	6	Neutral	xxxxxxx	xxxxxxx	żółty	yellow	hit	n/a
54.9755	n/a	RESPONSE	n/a	n/a	n/a	n/a	n/a	n/a	n/a	yellow
54.9971	1.0167	ITI	n/a	n/a	n/a	n/a	n/a	n/a	n/a	n/a
56.0138	0.5167	FIXCROSS	n/a	n/a	n/a	n/a	n/a	n/a	n/a	n/a
56.5305	0.4833	INK	7	Incongruent	czerwony	red	żółty	yellow	hit	n/a
56.9868	n/a	RESPONSE	n/a	n/a	n/a	n/a	n/a	n/a	n/a	yellow
57.0138	1.0167	ITI	n/a	n/a	n/a	n/a	n/a	n/a	n/a	n/a
58.0305	0.5167	FIXCROSS	n/a	n/a	n/a	n/a	n/a	n/a	n/a	n/a
58.5472	0.5833	INK	8	Neutral	xxxxxxxxx	xxxxxxxxx	żółty	yellow	hit	n/a
59.1099	n/a	RESPONSE	n/a	n/a	n/a	n/a	n/a	n/a	n/a	yellow
59.1305	1.0167	ITI	n/a	n/a	n/a	n/a	n/a	n/a	n/a	n/a
60.1472	0.5167	FIXCROSS	n/a	n/a	n/a	n/a	n/a	n/a	n/a	n/a
60.6638	0.5167	INK	9	Incongruent	żółty	yellow	niebieski	blue	hit	n/a
61.1531	n/a	RESPONSE	n/a	n/a	n/a	n/a	n/a	n/a	n/a	blue
61.1805	1.0167	ITI	n/a	n/a	n/a	n/a	n/a	n/a	n/a	n/a
62.1972	0.5166	FIXCROSS	n/a	n/a	n/a	n/a	n/a	n/a	n/a	n/a
62.7138	0.4	INK	10	Incongruent	niebieski	blue	zielony	green	hit	n/a
63.0846	n/a	RESPONSE	n/a	n/a	n/a	n/a	n/a	n/a	n/a	green
63.1139	1.0167	ITI	n/a	n/a	n/a	n/a	n/a	n/a	n/a	n/a
64.1305	0.5167	FIXCROSS	n/a	n/a	n/a	n/a	n/a	n/a	n/a	n/a
64.6472	0.45	INK	11	Neutral	xxxxxxx	xxxxxxx	czerwony	red	hit	n/a
65.0798	n/a	RESPONSE	n/a	n/a	n/a	n/a	n/a	n/a	n/a	red
65.0972	1.0167	ITI	n/a	n/a	n/a	n/a	n/a	n/a	n/a	n/a
66.1139	0.5167	FIXCROSS	n/a	n/a	n/a	n/a	n/a	n/a	n/a	n/a
66.6306	0.6	INK	12	Neutral	xxxxxxxx	xxxxxxxx	żółty	yellow	hit	n/a
67.203	n/a	RESPONSE	n/a	n/a	n/a	n/a	n/a	n/a	n/a	yellow
67.2306	1.0167	ITI	n/a	n/a	n/a	n/a	n/a	n/a	n/a	n/a
68.2472	0.5167	FIXCROSS	n/a	n/a	n/a	n/a	n/a	n/a	n/a	n/a
68.7639	0.6	INK	13	Neutral	xxxxxxxx	xxxxxxxx	zielony	green	incorrect	n/a
69.3421	n/a	RESPONSE	n/a	n/a	n/a	n/a	n/a	n/a	n/a	red
69.3639	1.0167	ITI	n/a	n/a	n/a	n/a	n/a	n/a	n/a	n/a
70.3806	0.5166	FIXCROSS	n/a	n/a	n/a	n/a	n/a	n/a	n/a	n/a
70.8972	0.6335	INK	14	Incongruent	niebieski	blue	żółty	yellow	hit	n/a
71.5131	n/a	RESPONSE	n/a	n/a	n/a	n/a	n/a	n/a	n/a	yellow
71.5306	1.0167	ITI	n/a	n/a	n/a	n/a	n/a	n/a	n/a	n/a
72.5473	0.5167	FIXCROSS	n/a	n/a	n/a	n/a	n/a	n/a	n/a	n/a
73.064	0.5833	INK	15	Neutral	xxxxxxxx	xxxxxxxx	niebieski	blue	hit	n/a
73.6203	n/a	RESPONSE	n/a	n/a	n/a	n/a	n/a	n/a	n/a	blue
73.6473	1.0167	ITI	n/a	n/a	n/a	n/a	n/a	n/a	n/a	n/a
74.664	0.5167	FIXCROSS	n/a	n/a	n/a	n/a	n/a	n/a	n/a	n/a
75.1806	0.5667	INK	16	Neutral	xxxxx	xxxxx	czerwony	red	hit	n/a
75.7272	n/a	RESPONSE	n/a	n/a	n/a	n/a	n/a	n/a	n/a	red
75.7473	1.0167	ITI	n/a	n/a	n/a	n/a	n/a	n/a	n/a	n/a
76.764	0.5166	FIXCROSS	n/a	n/a	n/a	n/a	n/a	n/a	n/a	n/a
77.2806	0.6834	INK	17	Incongruent	zielony	green	czerwony	red	hit	n/a
77.9301	n/a	RESPONSE	n/a	n/a	n/a	n/a	n/a	n/a	n/a	red
77.964	1.0167	ITI	n/a	n/a	n/a	n/a	n/a	n/a	n/a	n/a
78.9807	0.5167	FIXCROSS	n/a	n/a	n/a	n/a	n/a	n/a	n/a	n/a
79.4973	0.5667	INK	18	Neutral	xxxxxxxx	xxxxxxxx	żółty	yellow	hit	n/a
80.0371	n/a	RESPONSE	n/a	n/a	n/a	n/a	n/a	n/a	n/a	yellow
80.064	1.0167	ITI	n/a	n/a	n/a	n/a	n/a	n/a	n/a	n/a
81.0807	0.5167	FIXCROSS	n/a	n/a	n/a	n/a	n/a	n/a	n/a	n/a
81.5974	0.7833	INK	19	Incongruent	czerwony	red	zielony	green	hit	n/a
82.3518	n/a	RESPONSE	n/a	n/a	n/a	n/a	n/a	n/a	n/a	green
82.3807	1.0167	ITI	n/a	n/a	n/a	n/a	n/a	n/a	n/a	n/a
83.3974	0.5166	FIXCROSS	n/a	n/a	n/a	n/a	n/a	n/a	n/a	n/a
83.914	0.45	INK	20	Incongruent	czerwony	red	niebieski	blue	hit	n/a
84.3312	n/a	RESPONSE	n/a	n/a	n/a	n/a	n/a	n/a	n/a	blue
84.364	1.0167	ITI	n/a	n/a	n/a	n/a	n/a	n/a	n/a	n/a
85.3807	0.5167	FIXCROSS	n/a	n/a	n/a	n/a	n/a	n/a	n/a	n/a
85.8974	0.55	INK	21	Neutral	xxxxx	xxxxx	niebieski	blue	hit	n/a
86.4224	n/a	RESPONSE	n/a	n/a	n/a	n/a	n/a	n/a	n/a	blue
86.4474	1.0167	ITI	n/a	n/a	n/a	n/a	n/a	n/a	n/a	n/a
87.4641	0.5167	FIXCROSS	n/a	n/a	n/a	n/a	n/a	n/a	n/a	n/a
87.9808	0.6	INK	22	Incongruent	czerwony	red	żółty	yellow	hit	n/a
88.5613	n/a	RESPONSE	n/a	n/a	n/a	n/a	n/a	n/a	n/a	yellow
88.5807	1.0167	ITI	n/a	n/a	n/a	n/a	n/a	n/a	n/a	n/a
89.5974	0.5167	FIXCROSS	n/a	n/a	n/a	n/a	n/a	n/a	n/a	n/a
90.1141	0.5333	INK	23	Neutral	xxxxxxx	xxxxxxx	czerwony	red	hit	n/a
90.6206	n/a	RESPONSE	n/a	n/a	n/a	n/a	n/a	n/a	n/a	red
90.6474	1.0167	ITI	n/a	n/a	n/a	n/a	n/a	n/a	n/a	n/a
91.6641	0.5167	FIXCROSS	n/a	n/a	n/a	n/a	n/a	n/a	n/a	n/a
92.1807	0.6	INK	24	Neutral	xxxxxxx	xxxxxxx	żółty	yellow	hit	n/a
92.7595	n/a	RESPONSE	n/a	n/a	n/a	n/a	n/a	n/a	n/a	yellow
92.7808	1.0167	ITI	n/a	n/a	n/a	n/a	n/a	n/a	n/a	n/a
93.7975	0.5166	FIXCROSS	n/a	n/a	n/a	n/a	n/a	n/a	n/a	n/a
94.3141	0.55	INK	25	Neutral	xxxxxxx	xxxxxxx	niebieski	blue	hit	n/a
94.8348	n/a	RESPONSE	n/a	n/a	n/a	n/a	n/a	n/a	n/a	blue
94.8641	1.0167	ITI	n/a	n/a	n/a	n/a	n/a	n/a	n/a	n/a
95.8808	0.5167	FIXCROSS	n/a	n/a	n/a	n/a	n/a	n/a	n/a	n/a
96.3975	0.6167	INK	26	Incongruent	żółty	yellow	czerwony	red	hit	n/a
96.9897	n/a	RESPONSE	n/a	n/a	n/a	n/a	n/a	n/a	n/a	red
97.0141	1.0167	ITI	n/a	n/a	n/a	n/a	n/a	n/a	n/a	n/a
98.0308	0.5167	FIXCROSS	n/a	n/a	n/a	n/a	n/a	n/a	n/a	n/a
98.5475	0.5667	INK	27	Neutral	xxxxxxxxx	xxxxxxxxx	zielony	green	hit	n/a
99.0808	n/a	RESPONSE	n/a	n/a	n/a	n/a	n/a	n/a	n/a	green
99.1142	1.0167	ITI	n/a	n/a	n/a	n/a	n/a	n/a	n/a	n/a
100.1309	0.5167	FIXCROSS	n/a	n/a	n/a	n/a	n/a	n/a	n/a	n/a
100.6475	0.6166	INK	28	Incongruent	niebieski	blue	czerwony	red	hit	n/a
101.2358	n/a	RESPONSE	n/a	n/a	n/a	n/a	n/a	n/a	n/a	red
101.2642	1.0167	ITI	n/a	n/a	n/a	n/a	n/a	n/a	n/a	n/a
102.2809	0.5167	FIXCROSS	n/a	n/a	n/a	n/a	n/a	n/a	n/a	n/a
102.7975	0.7	INK	29	Neutral	xxxxxxx	xxxxxxx	czerwony	red	hit	n/a
103.4705	n/a	RESPONSE	n/a	n/a	n/a	n/a	n/a	n/a	n/a	red
103.4975	1.0167	ITI	n/a	n/a	n/a	n/a	n/a	n/a	n/a	n/a
104.5142	0.5166	FIXCROSS	n/a	n/a	n/a	n/a	n/a	n/a	n/a	n/a
105.0309	0.7	INK	30	Incongruent	żółty	yellow	zielony	green	incorrect	n/a
105.7054	n/a	RESPONSE	n/a	n/a	n/a	n/a	n/a	n/a	n/a	yellow
105.7309	1.0167	ITI	n/a	n/a	n/a	n/a	n/a	n/a	n/a	n/a
106.7476	0.5167	FIXCROSS	n/a	n/a	n/a	n/a	n/a	n/a	n/a	n/a
107.2642	0.5833	INK	31	Neutral	xxxxxxxx	xxxxxxxx	zielony	green	hit	n/a
107.8284	n/a	RESPONSE	n/a	n/a	n/a	n/a	n/a	n/a	n/a	green
107.8475	1.0167	ITI	n/a	n/a	n/a	n/a	n/a	n/a	n/a	n/a
108.8642	0.5167	FIXCROSS	n/a	n/a	n/a	n/a	n/a	n/a	n/a	n/a
109.3809	0.7	INK	32	Incongruent	niebieski	blue	żółty	yellow	hit	n/a
110.0632	n/a	RESPONSE	n/a	n/a	n/a	n/a	n/a	n/a	n/a	yellow
110.0809	1.0167	ITI	n/a	n/a	n/a	n/a	n/a	n/a	n/a	n/a
111.0976	0.5167	FIXCROSS	n/a	n/a	n/a	n/a	n/a	n/a	n/a	n/a
111.6143	0.75	INK	33	Neutral	xxxxx	xxxxx	zielony	green	hit	n/a
112.3459	n/a	RESPONSE	n/a	n/a	n/a	n/a	n/a	n/a	n/a	green
112.3643	1.0167	ITI	n/a	n/a	n/a	n/a	n/a	n/a	n/a	n/a
113.381	0.5167	FIXCROSS	n/a	n/a	n/a	n/a	n/a	n/a	n/a	n/a
113.8976	0.6667	INK	34	Neutral	xxxxxxxxx	xxxxxxxxx	żółty	yellow	hit	n/a
114.5328	n/a	RESPONSE	n/a	n/a	n/a	n/a	n/a	n/a	n/a	yellow
114.5643	1.0167	ITI	n/a	n/a	n/a	n/a	n/a	n/a	n/a	n/a
115.581	0.5167	FIXCROSS	n/a	n/a	n/a	n/a	n/a	n/a	n/a	n/a
116.0976	0.6	INK	35	Incongruent	żółty	yellow	niebieski	blue	hit	n/a
116.6719	n/a	RESPONSE	n/a	n/a	n/a	n/a	n/a	n/a	n/a	blue
116.6977	1.0166	ITI	n/a	n/a	n/a	n/a	n/a	n/a	n/a	n/a
117.7143	0.5167	FIXCROSS	n/a	n/a	n/a	n/a	n/a	n/a	n/a	n/a
118.231	0.4667	INK	36	Incongruent	niebieski	blue	czerwony	red	hit	n/a
118.6672	n/a	RESPONSE	n/a	n/a	n/a	n/a	n/a	n/a	n/a	red
118.6977	1.0167	ITI	n/a	n/a	n/a	n/a	n/a	n/a	n/a	n/a
119.7143	0.5167	FIXCROSS	n/a	n/a	n/a	n/a	n/a	n/a	n/a	n/a
120.231	0.6167	INK	37	Neutral	xxxxxxxxx	xxxxxxxxx	czerwony	red	hit	n/a
120.8222	n/a	RESPONSE	n/a	n/a	n/a	n/a	n/a	n/a	n/a	red
120.8477	1.0167	ITI	n/a	n/a	n/a	n/a	n/a	n/a	n/a	n/a
121.8644	0.5166	FIXCROSS	n/a	n/a	n/a	n/a	n/a	n/a	n/a	n/a
122.381	0.5167	INK	38	Incongruent	zielony	green	czerwony	red	hit	n/a
122.8653	n/a	RESPONSE	n/a	n/a	n/a	n/a	n/a	n/a	n/a	red
122.8977	1.0167	ITI	n/a	n/a	n/a	n/a	n/a	n/a	n/a	n/a
123.9144	0.5167	FIXCROSS	n/a	n/a	n/a	n/a	n/a	n/a	n/a	n/a
124.4311	0.6333	INK	39	Neutral	xxxxxxxx	xxxxxxxx	niebieski	blue	hit	n/a
125.0363	n/a	RESPONSE	n/a	n/a	n/a	n/a	n/a	n/a	n/a	blue
125.0644	1.0166	ITI	n/a	n/a	n/a	n/a	n/a	n/a	n/a	n/a
126.081	0.5166	FIXCROSS	n/a	n/a	n/a	n/a	n/a	n/a	n/a	n/a
126.5977	0.8001	INK	40	Incongruent	zielony	green	niebieski	blue	hit	n/a
127.3669	n/a	RESPONSE	n/a	n/a	n/a	n/a	n/a	n/a	n/a	blue
127.3977	1.0167	ITI	n/a	n/a	n/a	n/a	n/a	n/a	n/a	n/a
128.4144	0.5167	FIXCROSS	n/a	n/a	n/a	n/a	n/a	n/a	n/a	n/a
128.9311	0.65	INK	41	Incongruent	niebieski	blue	żółty	yellow	hit	n/a
129.5539	n/a	RESPONSE	n/a	n/a	n/a	n/a	n/a	n/a	n/a	yellow
129.5811	1.0166	ITI	n/a	n/a	n/a	n/a	n/a	n/a	n/a	n/a
130.5977	0.5167	FIXCROSS	n/a	n/a	n/a	n/a	n/a	n/a	n/a	n/a
131.1144	0.8834	INK	42	Neutral	xxxxx	xxxxx	czerwony	red	hit	n/a
131.9641	n/a	RESPONSE	n/a	n/a	n/a	n/a	n/a	n/a	n/a	red
131.9978	1.0166	ITI	n/a	n/a	n/a	n/a	n/a	n/a	n/a	n/a
133.0144	0.5167	FIXCROSS	n/a	n/a	n/a	n/a	n/a	n/a	n/a	n/a
133.5311	0.65	INK	43	Incongruent	żółty	yellow	zielony	green	incorrect	n/a
134.151	n/a	RESPONSE	n/a	n/a	n/a	n/a	n/a	n/a	n/a	yellow
134.1811	1.0167	ITI	n/a	n/a	n/a	n/a	n/a	n/a	n/a	n/a
135.1978	0.5166	FIXCROSS	n/a	n/a	n/a	n/a	n/a	n/a	n/a	n/a
135.7144	0.6667	INK	44	Incongruent	zielony	green	żółty	yellow	hit	n/a
136.3539	n/a	RESPONSE	n/a	n/a	n/a	n/a	n/a	n/a	n/a	yellow
136.3811	1.0167	ITI	n/a	n/a	n/a	n/a	n/a	n/a	n/a	n/a
137.3978	0.5167	FIXCROSS	n/a	n/a	n/a	n/a	n/a	n/a	n/a	n/a
137.9145	0.6667	INK	45	Neutral	xxxxx	xxxxx	niebieski	blue	hit	n/a
138.5567	n/a	RESPONSE	n/a	n/a	n/a	n/a	n/a	n/a	n/a	blue
138.5812	1.0167	ITI	n/a	n/a	n/a	n/a	n/a	n/a	n/a	n/a
139.5979	0.5166	FIXCROSS	n/a	n/a	n/a	n/a	n/a	n/a	n/a	n/a
140.1145	0.5	INK	46	Neutral	xxxxxxxxx	xxxxxxxxx	czerwony	red	hit	n/a
140.584	n/a	RESPONSE	n/a	n/a	n/a	n/a	n/a	n/a	n/a	red
140.6145	1.0167	ITI	n/a	n/a	n/a	n/a	n/a	n/a	n/a	n/a
141.6312	0.5166	FIXCROSS	n/a	n/a	n/a	n/a	n/a	n/a	n/a	n/a
142.1478	0.85	INK	47	Incongruent	żółty	yellow	niebieski	blue	hit	n/a
142.9785	n/a	RESPONSE	n/a	n/a	n/a	n/a	n/a	n/a	n/a	blue
142.9979	1.0167	ITI	n/a	n/a	n/a	n/a	n/a	n/a	n/a	n/a
144.0146	0.5167	FIXCROSS	n/a	n/a	n/a	n/a	n/a	n/a	n/a	n/a
144.5312	0.7	INK	48	Incongruent	niebieski	blue	zielony	green	hit	n/a
145.1973	n/a	RESPONSE	n/a	n/a	n/a	n/a	n/a	n/a	n/a	green
145.2312	1.0167	ITI	n/a	n/a	n/a	n/a	n/a	n/a	n/a	n/a
146.2479	0.5167	FIXCROSS	n/a	n/a	n/a	n/a	n/a	n/a	n/a	n/a
146.7646	0.5666	INK	49	Incongruent	zielony	green	czerwony	red	hit	n/a
147.3044	n/a	RESPONSE	n/a	n/a	n/a	n/a	n/a	n/a	n/a	red
147.3312	1.0167	ITI	n/a	n/a	n/a	n/a	n/a	n/a	n/a	n/a
148.3479	0.5167	FIXCROSS	n/a	n/a	n/a	n/a	n/a	n/a	n/a	n/a
148.8646	0.5833	INK	50	Incongruent	czerwony	red	niebieski	blue	hit	n/a
149.4275	n/a	RESPONSE	n/a	n/a	n/a	n/a	n/a	n/a	n/a	blue
149.4479	1.0166	ITI	n/a	n/a	n/a	n/a	n/a	n/a	n/a	n/a
150.4646	0.5167	FIXCROSS	n/a	n/a	n/a	n/a	n/a	n/a	n/a	n/a
150.9813	0.5667	INK	51	Neutral	xxxxxxxx	xxxxxxxx	żółty	yellow	hit	n/a
151.5187	n/a	RESPONSE	n/a	n/a	n/a	n/a	n/a	n/a	n/a	yellow
151.5479	1.0167	ITI	n/a	n/a	n/a	n/a	n/a	n/a	n/a	n/a
152.5646	0.5167	FIXCROSS	n/a	n/a	n/a	n/a	n/a	n/a	n/a	n/a
153.0813	0.5166	INK	52	Neutral	xxxxxxx	xxxxxxx	żółty	yellow	hit	n/a
153.5779	n/a	RESPONSE	n/a	n/a	n/a	n/a	n/a	n/a	n/a	yellow
153.5979	1.0167	ITI	n/a	n/a	n/a	n/a	n/a	n/a	n/a	n/a
154.6146	0.5166	FIXCROSS	n/a	n/a	n/a	n/a	n/a	n/a	n/a	n/a
155.1313	0.55	INK	53	Incongruent	zielony	green	niebieski	blue	hit	n/a
155.6529	n/a	RESPONSE	n/a	n/a	n/a	n/a	n/a	n/a	n/a	blue
155.6813	1.0166	ITI	n/a	n/a	n/a	n/a	n/a	n/a	n/a	n/a
156.698	0.5167	FIXCROSS	n/a	n/a	n/a	n/a	n/a	n/a	n/a	n/a
157.2147	0.4	INK	54	Neutral	xxxxxxxxx	xxxxxxxxx	czerwony	red	hit	n/a
157.5845	n/a	RESPONSE	n/a	n/a	n/a	n/a	n/a	n/a	n/a	red
157.6147	1.0167	ITI	n/a	n/a	n/a	n/a	n/a	n/a	n/a	n/a
158.6313	0.5167	FIXCROSS	n/a	n/a	n/a	n/a	n/a	n/a	n/a	n/a
159.148	0.7	INK	55	Neutral	xxxxxxxxx	xxxxxxxxx	żółty	yellow	hit	n/a
159.8192	n/a	RESPONSE	n/a	n/a	n/a	n/a	n/a	n/a	n/a	yellow
159.848	1.0167	ITI	n/a	n/a	n/a	n/a	n/a	n/a	n/a	n/a
160.8647	0.5167	FIXCROSS	n/a	n/a	n/a	n/a	n/a	n/a	n/a	n/a
161.3814	0.5	INK	56	Neutral	xxxxxxxxx	xxxxxxxxx	zielony	green	hit	n/a
161.8625	n/a	RESPONSE	n/a	n/a	n/a	n/a	n/a	n/a	n/a	green
161.8814	1.0166	ITI	n/a	n/a	n/a	n/a	n/a	n/a	n/a	n/a
162.898	0.5167	FIXCROSS	n/a	n/a	n/a	n/a	n/a	n/a	n/a	n/a
163.4147	0.5333	INK	57	Neutral	xxxxx	xxxxx	zielony	green	hit	n/a
163.9216	n/a	RESPONSE	n/a	n/a	n/a	n/a	n/a	n/a	n/a	green
163.948	1.0167	ITI	n/a	n/a	n/a	n/a	n/a	n/a	n/a	n/a
164.9647	0.5167	FIXCROSS	n/a	n/a	n/a	n/a	n/a	n/a	n/a	n/a
165.4814	0.5833	INK	58	Neutral	xxxxxxx	xxxxxxx	niebieski	blue	hit	n/a
166.0447	n/a	RESPONSE	n/a	n/a	n/a	n/a	n/a	n/a	n/a	blue
166.0647	1.0166	ITI	n/a	n/a	n/a	n/a	n/a	n/a	n/a	n/a
167.0814	0.5167	FIXCROSS	n/a	n/a	n/a	n/a	n/a	n/a	n/a	n/a
167.598	0.5334	INK	59	Incongruent	zielony	green	niebieski	blue	hit	n/a
168.1039	n/a	RESPONSE	n/a	n/a	n/a	n/a	n/a	n/a	n/a	blue
168.1314	1.0167	ITI	n/a	n/a	n/a	n/a	n/a	n/a	n/a	n/a
169.1481	0.5167	FIXCROSS	n/a	n/a	n/a	n/a	n/a	n/a	n/a	n/a
169.6648	0.4333	INK	60	Neutral	xxxxxxxx	xxxxxxxx	niebieski	blue	hit	n/a
170.0674	n/a	RESPONSE	n/a	n/a	n/a	n/a	n/a	n/a	n/a	blue
170.0981	1.0167	ITI	n/a	n/a	n/a	n/a	n/a	n/a	n/a	n/a
171.1148	0.5167	FIXCROSS	n/a	n/a	n/a	n/a	n/a	n/a	n/a	n/a
171.6315	0.4167	INK	61	Neutral	xxxxx	xxxxx	niebieski	blue	hit	n/a
172.0148	n/a	RESPONSE	n/a	n/a	n/a	n/a	n/a	n/a	n/a	blue
172.0481	1.0167	ITI	n/a	n/a	n/a	n/a	n/a	n/a	n/a	n/a
173.0648	0.5167	FIXCROSS	n/a	n/a	n/a	n/a	n/a	n/a	n/a	n/a
173.5815	0.6333	INK	62	Incongruent	czerwony	red	zielony	green	hit	n/a
174.1858	n/a	RESPONSE	n/a	n/a	n/a	n/a	n/a	n/a	n/a	green
174.2148	1.0167	ITI	n/a	n/a	n/a	n/a	n/a	n/a	n/a	n/a
175.2315	0.5167	FIXCROSS	n/a	n/a	n/a	n/a	n/a	n/a	n/a	n/a
175.7481	0.7	INK	63	Neutral	xxxxxxx	xxxxxxx	niebieski	blue	hit	n/a
176.4204	n/a	RESPONSE	n/a	n/a	n/a	n/a	n/a	n/a	n/a	blue
176.4482	1.0167	ITI	n/a	n/a	n/a	n/a	n/a	n/a	n/a	n/a
177.4648	0.5167	FIXCROSS	n/a	n/a	n/a	n/a	n/a	n/a	n/a	n/a
177.9815	0.6667	INK	64	Incongruent	niebieski	blue	zielony	green	hit	n/a
178.6234	n/a	RESPONSE	n/a	n/a	n/a	n/a	n/a	n/a	n/a	green
178.6482	1.0167	ITI	n/a	n/a	n/a	n/a	n/a	n/a	n/a	n/a
179.6649	0.5167	FIXCROSS	n/a	n/a	n/a	n/a	n/a	n/a	n/a	n/a
180.1815	0.5833	INK	65	Incongruent	czerwony	red	niebieski	blue	hit	n/a
180.7464	n/a	RESPONSE	n/a	n/a	n/a	n/a	n/a	n/a	n/a	blue
180.7649	1.0167	ITI	n/a	n/a	n/a	n/a	n/a	n/a	n/a	n/a
181.7815	0.5167	FIXCROSS	n/a	n/a	n/a	n/a	n/a	n/a	n/a	n/a
182.2982	0.65	INK	66	Incongruent	żółty	yellow	czerwony	red	hit	n/a
182.9174	n/a	RESPONSE	n/a	n/a	n/a	n/a	n/a	n/a	n/a	red
182.9482	1.0167	ITI	n/a	n/a	n/a	n/a	n/a	n/a	n/a	n/a
183.9649	0.5167	FIXCROSS	n/a	n/a	n/a	n/a	n/a	n/a	n/a	n/a
184.4816	0.6	INK	67	Incongruent	czerwony	red	zielony	green	hit	n/a
185.0564	n/a	RESPONSE	n/a	n/a	n/a	n/a	n/a	n/a	n/a	green
185.0815	1.0167	ITI	n/a	n/a	n/a	n/a	n/a	n/a	n/a	n/a
186.0982	0.5167	FIXCROSS	n/a	n/a	n/a	n/a	n/a	n/a	n/a	n/a
186.6149	0.6	INK	68	Incongruent	żółty	yellow	czerwony	red	hit	n/a
187.1954	n/a	RESPONSE	n/a	n/a	n/a	n/a	n/a	n/a	n/a	red
187.2149	1.0167	ITI	n/a	n/a	n/a	n/a	n/a	n/a	n/a	n/a
188.2316	0.5167	FIXCROSS	n/a	n/a	n/a	n/a	n/a	n/a	n/a	n/a
188.7483	0.5	INK	69	Incongruent	czerwony	red	żółty	yellow	hit	n/a
189.2227	n/a	RESPONSE	n/a	n/a	n/a	n/a	n/a	n/a	n/a	yellow
189.2483	1.0167	ITI	n/a	n/a	n/a	n/a	n/a	n/a	n/a	n/a
190.2649	0.5167	FIXCROSS	n/a	n/a	n/a	n/a	n/a	n/a	n/a	n/a
190.7816	0.5667	INK	70	Neutral	xxxxxxxxx	xxxxxxxxx	zielony	green	hit	n/a
191.3298	n/a	RESPONSE	n/a	n/a	n/a	n/a	n/a	n/a	n/a	green
191.3483	1.0166	ITI	n/a	n/a	n/a	n/a	n/a	n/a	n/a	n/a
192.3649	0.5167	FIXCROSS	n/a	n/a	n/a	n/a	n/a	n/a	n/a	n/a
192.8816	0.5667	INK	71	Neutral	xxxxx	xxxxx	czerwony	red	hit	n/a
193.4209	n/a	RESPONSE	n/a	n/a	n/a	n/a	n/a	n/a	n/a	red
193.4483	1.0167	ITI	n/a	n/a	n/a	n/a	n/a	n/a	n/a	n/a
194.465	0.5167	FIXCROSS	n/a	n/a	n/a	n/a	n/a	n/a	n/a	n/a
194.9816	0.55	INK	72	Neutral	xxxxx	xxxxx	zielony	green	hit	n/a
195.512	n/a	RESPONSE	n/a	n/a	n/a	n/a	n/a	n/a	n/a	green
195.5317	1.0833	ITI	n/a	n/a	n/a	n/a	n/a	n/a	n/a	n/a
225.8728	n/a	RESPONSE	n/a	n/a	n/a	n/a	n/a	n/a	n/a	n/a
225.9319	1.0167	ITI	n/a	n/a	n/a	n/a	n/a	n/a	n/a	n/a
226.9486	0.5167	FIXCROSS	n/a	n/a	n/a	n/a	n/a	n/a	n/a	n/a
227.4652	0.6833	T_COLOR_NAME	1	Neutral	żółty	yellow	Neutral	Neutral	hit	n/a
228.1235	n/a	RESPONSE	n/a	n/a	n/a	n/a	n/a	n/a	n/a	yellow
228.1485	0.5167	FEEDBACK	n/a	n/a	n/a	n/a	n/a	n/a	n/a	n/a
228.6653	1.0167	ITI	n/a	n/a	n/a	n/a	n/a	n/a	n/a	n/a
229.6819	0.5167	FIXCROSS	n/a	n/a	n/a	n/a	n/a	n/a	n/a	n/a
230.1986	0.65	T_COLOR_NAME	2	Neutral	żółty	yellow	Neutral	Neutral	hit	n/a
230.8212	n/a	RESPONSE	n/a	n/a	n/a	n/a	n/a	n/a	n/a	yellow
230.8486	0.5167	FEEDBACK	n/a	n/a	n/a	n/a	n/a	n/a	n/a	n/a
231.3653	1.0167	ITI	n/a	n/a	n/a	n/a	n/a	n/a	n/a	n/a
232.382	0.5166	FIXCROSS	n/a	n/a	n/a	n/a	n/a	n/a	n/a	n/a
232.8986	0.6	T_COLOR_NAME	3	Neutral	czerwony	red	Neutral	Neutral	hit	n/a
233.4711	n/a	RESPONSE	n/a	n/a	n/a	n/a	n/a	n/a	n/a	red
233.4986	0.5167	FEEDBACK	n/a	n/a	n/a	n/a	n/a	n/a	n/a	n/a
234.0153	1.0167	ITI	n/a	n/a	n/a	n/a	n/a	n/a	n/a	n/a
235.032	0.5167	FIXCROSS	n/a	n/a	n/a	n/a	n/a	n/a	n/a	n/a
235.5486	0.4167	T_COLOR_NAME	4	Neutral	zielony	green	Neutral	Neutral	hit	n/a
235.9134	n/a	RESPONSE	n/a	n/a	n/a	n/a	n/a	n/a	n/a	green
235.9653	0.5166	FEEDBACK	n/a	n/a	n/a	n/a	n/a	n/a	n/a	n/a
236.482	1.0167	ITI	n/a	n/a	n/a	n/a	n/a	n/a	n/a	n/a
237.4987	0.5166	FIXCROSS	n/a	n/a	n/a	n/a	n/a	n/a	n/a	n/a
238.0153	1.0	T_COLOR_NAME	5	Incongruent	zielony	green	żółty	yellow	hit	n/a
238.9942	n/a	RESPONSE	n/a	n/a	n/a	n/a	n/a	n/a	n/a	green
239.0153	0.5167	FEEDBACK	n/a	n/a	n/a	n/a	n/a	n/a	n/a	n/a
239.532	1.0166	ITI	n/a	n/a	n/a	n/a	n/a	n/a	n/a	n/a
240.5487	0.5167	FIXCROSS	n/a	n/a	n/a	n/a	n/a	n/a	n/a	n/a
241.0654	1.0667	T_COLOR_NAME	6	Incongruent	niebieski	blue	zielony	green	hit	n/a
242.1068	n/a	RESPONSE	n/a	n/a	n/a	n/a	n/a	n/a	n/a	blue
242.132	0.5166	FEEDBACK	n/a	n/a	n/a	n/a	n/a	n/a	n/a	n/a
242.6487	1.0167	ITI	n/a	n/a	n/a	n/a	n/a	n/a	n/a	n/a
243.6654	0.5167	FIXCROSS	n/a	n/a	n/a	n/a	n/a	n/a	n/a	n/a
244.1821	0.5833	T_COLOR_NAME	7	Neutral	niebieski	blue	Neutral	Neutral	hit	n/a
244.7407	n/a	RESPONSE	n/a	n/a	n/a	n/a	n/a	n/a	n/a	blue
244.7654	0.5167	FEEDBACK	n/a	n/a	n/a	n/a	n/a	n/a	n/a	n/a
245.2821	1.0167	ITI	n/a	n/a	n/a	n/a	n/a	n/a	n/a	n/a
246.2987	0.5167	FIXCROSS	n/a	n/a	n/a	n/a	n/a	n/a	n/a	n/a
246.8154	0.4667	T_COLOR_NAME	8	Neutral	czerwony	red	Neutral	Neutral	hit	n/a
247.2565	n/a	RESPONSE	n/a	n/a	n/a	n/a	n/a	n/a	n/a	red
247.2821	0.5167	FEEDBACK	n/a	n/a	n/a	n/a	n/a	n/a	n/a	n/a
247.7987	1.0167	ITI	n/a	n/a	n/a	n/a	n/a	n/a	n/a	n/a
248.8154	0.5167	FIXCROSS	n/a	n/a	n/a	n/a	n/a	n/a	n/a	n/a
249.3321	0.5	T_COLOR_NAME	9	Neutral	czerwony	red	Neutral	Neutral	hit	n/a
249.8009	n/a	RESPONSE	n/a	n/a	n/a	n/a	n/a	n/a	n/a	red
249.8321	0.5167	FEEDBACK	n/a	n/a	n/a	n/a	n/a	n/a	n/a	n/a
250.3488	1.0167	ITI	n/a	n/a	n/a	n/a	n/a	n/a	n/a	n/a
251.3654	0.5167	FIXCROSS	n/a	n/a	n/a	n/a	n/a	n/a	n/a	n/a
251.8821	0.5667	T_COLOR_NAME	10	Neutral	zielony	green	Neutral	Neutral	hit	n/a
252.4188	n/a	RESPONSE	n/a	n/a	n/a	n/a	n/a	n/a	n/a	green
252.4488	0.5167	FEEDBACK	n/a	n/a	n/a	n/a	n/a	n/a	n/a	n/a
252.9655	1.0167	ITI	n/a	n/a	n/a	n/a	n/a	n/a	n/a	n/a
253.9821	0.5167	FIXCROSS	n/a	n/a	n/a	n/a	n/a	n/a	n/a	n/a
254.4988	0.6167	T_COLOR_NAME	11	Incongruent	żółty	yellow	zielony	green	hit	n/a
255.0846	n/a	RESPONSE	n/a	n/a	n/a	n/a	n/a	n/a	n/a	yellow
255.1155	0.5167	FEEDBACK	n/a	n/a	n/a	n/a	n/a	n/a	n/a	n/a
255.6321	1.0167	ITI	n/a	n/a	n/a	n/a	n/a	n/a	n/a	n/a
256.6488	0.5167	FIXCROSS	n/a	n/a	n/a	n/a	n/a	n/a	n/a	n/a
257.1655	0.75	T_COLOR_NAME	12	Incongruent	zielony	green	niebieski	blue	incorrect	n/a
257.894	n/a	RESPONSE	n/a	n/a	n/a	n/a	n/a	n/a	n/a	red
257.9155	0.5167	FEEDBACK	n/a	n/a	n/a	n/a	n/a	n/a	n/a	n/a
258.4322	1.0333	ITI	n/a	n/a	n/a	n/a	n/a	n/a	n/a	n/a
267.0566	n/a	RESPONSE	n/a	n/a	n/a	n/a	n/a	n/a	n/a	n/a
267.1155	1.0167	ITI	n/a	n/a	n/a	n/a	n/a	n/a	n/a	n/a
268.1323	0.5167	FIXCROSS	n/a	n/a	n/a	n/a	n/a	n/a	n/a	n/a
268.6489	0.6333	COLOR_NAME	1	Neutral	czerwony	red	Neutral	Neutral	hit	n/a
269.2594	n/a	RESPONSE	n/a	n/a	n/a	n/a	n/a	n/a	n/a	red
269.2823	1.0166	ITI	n/a	n/a	n/a	n/a	n/a	n/a	n/a	n/a
270.2989	0.5167	FIXCROSS	n/a	n/a	n/a	n/a	n/a	n/a	n/a	n/a
270.8156	0.6667	COLOR_NAME	2	Neutral	żółty	yellow	Neutral	Neutral	hit	n/a
271.4623	n/a	RESPONSE	n/a	n/a	n/a	n/a	n/a	n/a	n/a	yellow
271.4823	1.0167	ITI	n/a	n/a	n/a	n/a	n/a	n/a	n/a	n/a
272.4989	0.5167	FIXCROSS	n/a	n/a	n/a	n/a	n/a	n/a	n/a	n/a
273.0156	0.6333	COLOR_NAME	3	Neutral	niebieski	blue	Neutral	Neutral	hit	n/a
273.6173	n/a	RESPONSE	n/a	n/a	n/a	n/a	n/a	n/a	n/a	blue
273.649	1.0166	ITI	n/a	n/a	n/a	n/a	n/a	n/a	n/a	n/a
274.6656	0.5167	FIXCROSS	n/a	n/a	n/a	n/a	n/a	n/a	n/a	n/a
275.1823	0.4166	COLOR_NAME	4	Neutral	zielony	green	Neutral	Neutral	hit	n/a
275.5806	n/a	RESPONSE	n/a	n/a	n/a	n/a	n/a	n/a	n/a	green
275.5989	1.0167	ITI	n/a	n/a	n/a	n/a	n/a	n/a	n/a	n/a
276.6156	0.5167	FIXCROSS	n/a	n/a	n/a	n/a	n/a	n/a	n/a	n/a
277.1323	0.7333	COLOR_NAME	5	Neutral	niebieski	blue	Neutral	Neutral	hit	n/a
277.8473	n/a	RESPONSE	n/a	n/a	n/a	n/a	n/a	n/a	n/a	blue
277.8657	1.0166	ITI	n/a	n/a	n/a	n/a	n/a	n/a	n/a	n/a
278.8823	0.5167	FIXCROSS	n/a	n/a	n/a	n/a	n/a	n/a	n/a	n/a
279.399	0.6333	COLOR_NAME	6	Incongruent	czerwony	red	żółty	yellow	hit	n/a
280.0023	n/a	RESPONSE	n/a	n/a	n/a	n/a	n/a	n/a	n/a	red
280.0323	1.0167	ITI	n/a	n/a	n/a	n/a	n/a	n/a	n/a	n/a
281.049	0.5166	FIXCROSS	n/a	n/a	n/a	n/a	n/a	n/a	n/a	n/a
281.5657	0.6834	COLOR_NAME	7	Incongruent	zielony	green	żółty	yellow	hit	n/a
282.2212	n/a	RESPONSE	n/a	n/a	n/a	n/a	n/a	n/a	n/a	green
282.249	1.0167	ITI	n/a	n/a	n/a	n/a	n/a	n/a	n/a	n/a
283.2657	0.5167	FIXCROSS	n/a	n/a	n/a	n/a	n/a	n/a	n/a	n/a
283.7824	0.65	COLOR_NAME	8	Neutral	zielony	green	Neutral	Neutral	hit	n/a
284.4081	n/a	RESPONSE	n/a	n/a	n/a	n/a	n/a	n/a	n/a	green
284.4324	1.0167	ITI	n/a	n/a	n/a	n/a	n/a	n/a	n/a	n/a
285.4491	0.5166	FIXCROSS	n/a	n/a	n/a	n/a	n/a	n/a	n/a	n/a
285.9657	0.5667	COLOR_NAME	9	Incongruent	niebieski	blue	żółty	yellow	hit	n/a
286.4991	n/a	RESPONSE	n/a	n/a	n/a	n/a	n/a	n/a	n/a	blue
286.5324	1.0167	ITI	n/a	n/a	n/a	n/a	n/a	n/a	n/a	n/a
287.5491	0.5166	FIXCROSS	n/a	n/a	n/a	n/a	n/a	n/a	n/a	n/a
288.0657	0.6167	COLOR_NAME	10	Incongruent	żółty	yellow	zielony	green	hit	n/a
288.6541	n/a	RESPONSE	n/a	n/a	n/a	n/a	n/a	n/a	n/a	yellow
288.6824	1.0167	ITI	n/a	n/a	n/a	n/a	n/a	n/a	n/a	n/a
289.6991	0.5167	FIXCROSS	n/a	n/a	n/a	n/a	n/a	n/a	n/a	n/a
290.2158	0.4833	COLOR_NAME	11	Neutral	żółty	yellow	Neutral	Neutral	hit	n/a
290.6813	n/a	RESPONSE	n/a	n/a	n/a	n/a	n/a	n/a	n/a	yellow
290.6991	1.0166	ITI	n/a	n/a	n/a	n/a	n/a	n/a	n/a	n/a
291.7157	0.5167	FIXCROSS	n/a	n/a	n/a	n/a	n/a	n/a	n/a	n/a
292.2325	0.55	COLOR_NAME	12	Incongruent	niebieski	blue	żółty	yellow	hit	n/a
292.7566	n/a	RESPONSE	n/a	n/a	n/a	n/a	n/a	n/a	n/a	blue
292.7825	1.0167	ITI	n/a	n/a	n/a	n/a	n/a	n/a	n/a	n/a
293.7991	0.5167	FIXCROSS	n/a	n/a	n/a	n/a	n/a	n/a	n/a	n/a
294.3158	0.5333	COLOR_NAME	13	Incongruent	żółty	yellow	czerwony	red	hit	n/a
294.8157	n/a	RESPONSE	n/a	n/a	n/a	n/a	n/a	n/a	n/a	yellow
294.8491	1.0167	ITI	n/a	n/a	n/a	n/a	n/a	n/a	n/a	n/a
295.8658	0.5167	FIXCROSS	n/a	n/a	n/a	n/a	n/a	n/a	n/a	n/a
296.3825	0.6667	COLOR_NAME	14	Neutral	zielony	green	Neutral	Neutral	hit	n/a
297.0185	n/a	RESPONSE	n/a	n/a	n/a	n/a	n/a	n/a	n/a	green
297.0492	1.0167	ITI	n/a	n/a	n/a	n/a	n/a	n/a	n/a	n/a
298.0658	0.5166	FIXCROSS	n/a	n/a	n/a	n/a	n/a	n/a	n/a	n/a
298.5825	0.8667	COLOR_NAME	15	Neutral	niebieski	blue	Neutral	Neutral	hit	n/a
299.4289	n/a	RESPONSE	n/a	n/a	n/a	n/a	n/a	n/a	n/a	blue
299.4491	1.0167	ITI	n/a	n/a	n/a	n/a	n/a	n/a	n/a	n/a
300.4659	0.5166	FIXCROSS	n/a	n/a	n/a	n/a	n/a	n/a	n/a	n/a
300.9825	0.6667	COLOR_NAME	16	Incongruent	czerwony	red	zielony	green	hit	n/a
301.6157	n/a	RESPONSE	n/a	n/a	n/a	n/a	n/a	n/a	n/a	red
301.6492	1.0167	ITI	n/a	n/a	n/a	n/a	n/a	n/a	n/a	n/a
302.6659	0.5166	FIXCROSS	n/a	n/a	n/a	n/a	n/a	n/a	n/a	n/a
303.1825	0.7	COLOR_NAME	17	Neutral	żółty	yellow	Neutral	Neutral	hit	n/a
303.8504	n/a	RESPONSE	n/a	n/a	n/a	n/a	n/a	n/a	n/a	yellow
303.8826	1.0167	ITI	n/a	n/a	n/a	n/a	n/a	n/a	n/a	n/a
304.8992	0.5167	FIXCROSS	n/a	n/a	n/a	n/a	n/a	n/a	n/a	n/a
305.4159	0.5833	COLOR_NAME	18	Neutral	żółty	yellow	Neutral	Neutral	hit	n/a
305.9735	n/a	RESPONSE	n/a	n/a	n/a	n/a	n/a	n/a	n/a	yellow
305.9992	1.0167	ITI	n/a	n/a	n/a	n/a	n/a	n/a	n/a	n/a
307.0159	0.5167	FIXCROSS	n/a	n/a	n/a	n/a	n/a	n/a	n/a	n/a
307.5326	0.6167	COLOR_NAME	19	Neutral	zielony	green	Neutral	Neutral	hit	n/a
308.1285	n/a	RESPONSE	n/a	n/a	n/a	n/a	n/a	n/a	n/a	green
308.1493	1.0166	ITI	n/a	n/a	n/a	n/a	n/a	n/a	n/a	n/a
309.1659	0.5167	FIXCROSS	n/a	n/a	n/a	n/a	n/a	n/a	n/a	n/a
309.6826	0.5333	COLOR_NAME	20	Neutral	żółty	yellow	Neutral	Neutral	hit	n/a
310.1876	n/a	RESPONSE	n/a	n/a	n/a	n/a	n/a	n/a	n/a	yellow
310.2159	1.0167	ITI	n/a	n/a	n/a	n/a	n/a	n/a	n/a	n/a
311.2326	0.5167	FIXCROSS	n/a	n/a	n/a	n/a	n/a	n/a	n/a	n/a
311.7493	0.6833	COLOR_NAME	21	Incongruent	żółty	yellow	niebieski	blue	hit	n/a
312.4065	n/a	RESPONSE	n/a	n/a	n/a	n/a	n/a	n/a	n/a	yellow
312.4326	1.0167	ITI	n/a	n/a	n/a	n/a	n/a	n/a	n/a	n/a
313.4493	0.5167	FIXCROSS	n/a	n/a	n/a	n/a	n/a	n/a	n/a	n/a
313.966	0.55	COLOR_NAME	22	Neutral	niebieski	blue	Neutral	Neutral	hit	n/a
314.4976	n/a	RESPONSE	n/a	n/a	n/a	n/a	n/a	n/a	n/a	blue
314.516	1.0167	ITI	n/a	n/a	n/a	n/a	n/a	n/a	n/a	n/a
315.5327	0.5167	FIXCROSS	n/a	n/a	n/a	n/a	n/a	n/a	n/a	n/a
316.0493	0.5667	COLOR_NAME	23	Neutral	zielony	green	Neutral	Neutral	hit	n/a
316.5887	n/a	RESPONSE	n/a	n/a	n/a	n/a	n/a	n/a	n/a	green
316.616	1.0167	ITI	n/a	n/a	n/a	n/a	n/a	n/a	n/a	n/a
317.6327	0.5167	FIXCROSS	n/a	n/a	n/a	n/a	n/a	n/a	n/a	n/a
318.1493	0.7667	COLOR_NAME	24	Incongruent	niebieski	blue	czerwony	red	hit	n/a
318.8873	n/a	RESPONSE	n/a	n/a	n/a	n/a	n/a	n/a	n/a	blue
318.916	1.0167	ITI	n/a	n/a	n/a	n/a	n/a	n/a	n/a	n/a
319.9327	0.5167	FIXCROSS	n/a	n/a	n/a	n/a	n/a	n/a	n/a	n/a
320.4494	0.4667	COLOR_NAME	25	Neutral	niebieski	blue	Neutral	Neutral	hit	n/a
320.8985	n/a	RESPONSE	n/a	n/a	n/a	n/a	n/a	n/a	n/a	blue
320.916	1.0167	ITI	n/a	n/a	n/a	n/a	n/a	n/a	n/a	n/a
321.9327	0.5167	FIXCROSS	n/a	n/a	n/a	n/a	n/a	n/a	n/a	n/a
322.4494	0.6833	COLOR_NAME	26	Incongruent	zielony	green	niebieski	blue	hit	n/a
323.1013	n/a	RESPONSE	n/a	n/a	n/a	n/a	n/a	n/a	n/a	green
323.1327	1.0167	ITI	n/a	n/a	n/a	n/a	n/a	n/a	n/a	n/a
324.1494	0.5167	FIXCROSS	n/a	n/a	n/a	n/a	n/a	n/a	n/a	n/a
324.6661	0.6333	COLOR_NAME	27	Neutral	niebieski	blue	Neutral	Neutral	hit	n/a
325.2722	n/a	RESPONSE	n/a	n/a	n/a	n/a	n/a	n/a	n/a	blue
325.2994	1.0167	ITI	n/a	n/a	n/a	n/a	n/a	n/a	n/a	n/a
326.3161	0.5166	FIXCROSS	n/a	n/a	n/a	n/a	n/a	n/a	n/a	n/a
326.8327	0.65	COLOR_NAME	28	Neutral	czerwony	red	Neutral	Neutral	hit	n/a
327.4592	n/a	RESPONSE	n/a	n/a	n/a	n/a	n/a	n/a	n/a	red
327.4827	1.0167	ITI	n/a	n/a	n/a	n/a	n/a	n/a	n/a	n/a
328.4994	0.5167	FIXCROSS	n/a	n/a	n/a	n/a	n/a	n/a	n/a	n/a
329.0161	0.6	COLOR_NAME	29	Neutral	żółty	yellow	Neutral	Neutral	hit	n/a
329.5981	n/a	RESPONSE	n/a	n/a	n/a	n/a	n/a	n/a	n/a	yellow
329.6161	1.0167	ITI	n/a	n/a	n/a	n/a	n/a	n/a	n/a	n/a
330.6328	0.5167	FIXCROSS	n/a	n/a	n/a	n/a	n/a	n/a	n/a	n/a
331.1494	0.65	COLOR_NAME	30	Incongruent	żółty	yellow	niebieski	blue	hit	n/a
331.769	n/a	RESPONSE	n/a	n/a	n/a	n/a	n/a	n/a	n/a	yellow
331.7994	1.0166	ITI	n/a	n/a	n/a	n/a	n/a	n/a	n/a	n/a
332.8161	0.5167	FIXCROSS	n/a	n/a	n/a	n/a	n/a	n/a	n/a	n/a
333.3328	0.6333	COLOR_NAME	31	Neutral	czerwony	red	Neutral	Neutral	hit	n/a
333.94	n/a	RESPONSE	n/a	n/a	n/a	n/a	n/a	n/a	n/a	red
333.9661	1.0167	ITI	n/a	n/a	n/a	n/a	n/a	n/a	n/a	n/a
334.9828	0.5167	FIXCROSS	n/a	n/a	n/a	n/a	n/a	n/a	n/a	n/a
335.4995	0.6	COLOR_NAME	32	Neutral	niebieski	blue	Neutral	Neutral	hit	n/a
336.0788	n/a	RESPONSE	n/a	n/a	n/a	n/a	n/a	n/a	n/a	blue
336.0995	1.0167	ITI	n/a	n/a	n/a	n/a	n/a	n/a	n/a	n/a
337.1162	0.5167	FIXCROSS	n/a	n/a	n/a	n/a	n/a	n/a	n/a	n/a
337.6328	0.6166	COLOR_NAME	33	Incongruent	żółty	yellow	czerwony	red	hit	n/a
338.2179	n/a	RESPONSE	n/a	n/a	n/a	n/a	n/a	n/a	n/a	yellow
338.2495	1.0167	ITI	n/a	n/a	n/a	n/a	n/a	n/a	n/a	n/a
339.2662	0.5167	FIXCROSS	n/a	n/a	n/a	n/a	n/a	n/a	n/a	n/a
339.7828	0.4833	COLOR_NAME	34	Incongruent	żółty	yellow	zielony	green	hit	n/a
340.2451	n/a	RESPONSE	n/a	n/a	n/a	n/a	n/a	n/a	n/a	yellow
340.2662	1.0167	ITI	n/a	n/a	n/a	n/a	n/a	n/a	n/a	n/a
341.2829	0.5166	FIXCROSS	n/a	n/a	n/a	n/a	n/a	n/a	n/a	n/a
341.7995	0.7167	COLOR_NAME	35	Incongruent	czerwony	red	niebieski	blue	hit	n/a
342.4958	n/a	RESPONSE	n/a	n/a	n/a	n/a	n/a	n/a	n/a	red
342.5162	1.0167	ITI	n/a	n/a	n/a	n/a	n/a	n/a	n/a	n/a
343.5329	0.5166	FIXCROSS	n/a	n/a	n/a	n/a	n/a	n/a	n/a	n/a
344.0495	0.6	COLOR_NAME	36	Incongruent	żółty	yellow	niebieski	blue	hit	n/a
344.6188	n/a	RESPONSE	n/a	n/a	n/a	n/a	n/a	n/a	n/a	yellow
344.6496	1.0167	ITI	n/a	n/a	n/a	n/a	n/a	n/a	n/a	n/a
345.6662	0.5166	FIXCROSS	n/a	n/a	n/a	n/a	n/a	n/a	n/a	n/a
346.1829	0.5667	COLOR_NAME	37	Incongruent	zielony	green	niebieski	blue	hit	n/a
346.7259	n/a	RESPONSE	n/a	n/a	n/a	n/a	n/a	n/a	n/a	green
346.7496	1.0167	ITI	n/a	n/a	n/a	n/a	n/a	n/a	n/a	n/a
347.7663	0.5167	FIXCROSS	n/a	n/a	n/a	n/a	n/a	n/a	n/a	n/a
348.2829	0.5833	COLOR_NAME	38	Incongruent	niebieski	blue	żółty	yellow	incorrect	n/a
348.8331	n/a	RESPONSE	n/a	n/a	n/a	n/a	n/a	n/a	n/a	yellow
348.8662	1.0167	ITI	n/a	n/a	n/a	n/a	n/a	n/a	n/a	n/a
349.8829	0.5167	FIXCROSS	n/a	n/a	n/a	n/a	n/a	n/a	n/a	n/a
350.3996	0.7	COLOR_NAME	39	Neutral	czerwony	red	Neutral	Neutral	hit	n/a
351.0678	n/a	RESPONSE	n/a	n/a	n/a	n/a	n/a	n/a	n/a	red
351.0996	1.0167	ITI	n/a	n/a	n/a	n/a	n/a	n/a	n/a	n/a
352.1163	0.5167	FIXCROSS	n/a	n/a	n/a	n/a	n/a	n/a	n/a	n/a
352.633	0.5333	COLOR_NAME	40	Incongruent	niebieski	blue	zielony	green	hit	n/a
353.143	n/a	RESPONSE	n/a	n/a	n/a	n/a	n/a	n/a	n/a	blue
353.1663	1.0167	ITI	n/a	n/a	n/a	n/a	n/a	n/a	n/a	n/a
354.183	0.5166	FIXCROSS	n/a	n/a	n/a	n/a	n/a	n/a	n/a	n/a
354.6996	0.5834	COLOR_NAME	41	Neutral	niebieski	blue	Neutral	Neutral	hit	n/a
355.2501	n/a	RESPONSE	n/a	n/a	n/a	n/a	n/a	n/a	n/a	blue
355.283	1.0167	ITI	n/a	n/a	n/a	n/a	n/a	n/a	n/a	n/a
356.2997	0.5167	FIXCROSS	n/a	n/a	n/a	n/a	n/a	n/a	n/a	n/a
356.8163	0.6	COLOR_NAME	42	Incongruent	żółty	yellow	czerwony	red	hit	n/a
357.3891	n/a	RESPONSE	n/a	n/a	n/a	n/a	n/a	n/a	n/a	yellow
357.4163	1.0167	ITI	n/a	n/a	n/a	n/a	n/a	n/a	n/a	n/a
358.433	0.5167	FIXCROSS	n/a	n/a	n/a	n/a	n/a	n/a	n/a	n/a
358.9497	0.6333	COLOR_NAME	43	Incongruent	czerwony	red	zielony	green	hit	n/a
359.5599	n/a	RESPONSE	n/a	n/a	n/a	n/a	n/a	n/a	n/a	red
359.583	1.0167	ITI	n/a	n/a	n/a	n/a	n/a	n/a	n/a	n/a
360.5997	0.5167	FIXCROSS	n/a	n/a	n/a	n/a	n/a	n/a	n/a	n/a
361.1163	0.6334	COLOR_NAME	44	Incongruent	czerwony	red	żółty	yellow	hit	n/a
361.7309	n/a	RESPONSE	n/a	n/a	n/a	n/a	n/a	n/a	n/a	red
361.7497	1.0167	ITI	n/a	n/a	n/a	n/a	n/a	n/a	n/a	n/a
362.7663	0.5167	FIXCROSS	n/a	n/a	n/a	n/a	n/a	n/a	n/a	n/a
363.283	0.5333	COLOR_NAME	45	Neutral	czerwony	red	Neutral	Neutral	hit	n/a
363.79	n/a	RESPONSE	n/a	n/a	n/a	n/a	n/a	n/a	n/a	red
363.8164	1.0166	ITI	n/a	n/a	n/a	n/a	n/a	n/a	n/a	n/a
364.833	0.5167	FIXCROSS	n/a	n/a	n/a	n/a	n/a	n/a	n/a	n/a
365.3497	0.4667	COLOR_NAME	46	Neutral	czerwony	red	Neutral	Neutral	hit	n/a
365.7853	n/a	RESPONSE	n/a	n/a	n/a	n/a	n/a	n/a	n/a	red
365.8164	1.0167	ITI	n/a	n/a	n/a	n/a	n/a	n/a	n/a	n/a
366.8331	0.5167	FIXCROSS	n/a	n/a	n/a	n/a	n/a	n/a	n/a	n/a
367.3497	0.6333	COLOR_NAME	47	Neutral	zielony	green	Neutral	Neutral	hit	n/a
367.9563	n/a	RESPONSE	n/a	n/a	n/a	n/a	n/a	n/a	n/a	green
367.983	1.0167	ITI	n/a	n/a	n/a	n/a	n/a	n/a	n/a	n/a
368.9997	0.5167	FIXCROSS	n/a	n/a	n/a	n/a	n/a	n/a	n/a	n/a
369.5164	0.8333	COLOR_NAME	48	Incongruent	niebieski	blue	czerwony	red	hit	n/a
370.3188	n/a	RESPONSE	n/a	n/a	n/a	n/a	n/a	n/a	n/a	blue
370.3498	1.0167	ITI	n/a	n/a	n/a	n/a	n/a	n/a	n/a	n/a
371.3665	0.5167	FIXCROSS	n/a	n/a	n/a	n/a	n/a	n/a	n/a	n/a
371.8831	0.8	COLOR_NAME	49	Neutral	zielony	green	Neutral	Neutral	hit	n/a
372.6653	n/a	RESPONSE	n/a	n/a	n/a	n/a	n/a	n/a	n/a	green
372.6831	1.0167	ITI	n/a	n/a	n/a	n/a	n/a	n/a	n/a	n/a
373.6998	0.5166	FIXCROSS	n/a	n/a	n/a	n/a	n/a	n/a	n/a	n/a
374.2164	0.7	COLOR_NAME	50	Neutral	czerwony	red	Neutral	Neutral	hit	n/a
374.8842	n/a	RESPONSE	n/a	n/a	n/a	n/a	n/a	n/a	n/a	red
374.9165	1.0166	ITI	n/a	n/a	n/a	n/a	n/a	n/a	n/a	n/a
375.9331	0.5167	FIXCROSS	n/a	n/a	n/a	n/a	n/a	n/a	n/a	n/a
376.4498	0.95	COLOR_NAME	51	Incongruent	zielony	green	żółty	yellow	hit	n/a
377.3742	n/a	RESPONSE	n/a	n/a	n/a	n/a	n/a	n/a	n/a	green
377.3998	1.0167	ITI	n/a	n/a	n/a	n/a	n/a	n/a	n/a	n/a
378.4165	0.5167	FIXCROSS	n/a	n/a	n/a	n/a	n/a	n/a	n/a	n/a
378.9332	0.6833	COLOR_NAME	52	Incongruent	czerwony	red	zielony	green	hit	n/a
379.5931	n/a	RESPONSE	n/a	n/a	n/a	n/a	n/a	n/a	n/a	red
379.6165	1.0167	ITI	n/a	n/a	n/a	n/a	n/a	n/a	n/a	n/a
380.6332	0.5166	FIXCROSS	n/a	n/a	n/a	n/a	n/a	n/a	n/a	n/a
381.1498	0.5667	COLOR_NAME	53	Neutral	czerwony	red	Neutral	Neutral	hit	n/a
381.6842	n/a	RESPONSE	n/a	n/a	n/a	n/a	n/a	n/a	n/a	red
381.7165	1.0167	ITI	n/a	n/a	n/a	n/a	n/a	n/a	n/a	n/a
382.7332	0.5167	FIXCROSS	n/a	n/a	n/a	n/a	n/a	n/a	n/a	n/a
383.2499	0.65	COLOR_NAME	54	Neutral	zielony	green	Neutral	Neutral	hit	n/a
383.871	n/a	RESPONSE	n/a	n/a	n/a	n/a	n/a	n/a	n/a	green
383.8999	1.0167	ITI	n/a	n/a	n/a	n/a	n/a	n/a	n/a	n/a
384.9166	0.5167	FIXCROSS	n/a	n/a	n/a	n/a	n/a	n/a	n/a	n/a
385.4332	0.6166	COLOR_NAME	55	Incongruent	niebieski	blue	zielony	green	hit	n/a
386.026	n/a	RESPONSE	n/a	n/a	n/a	n/a	n/a	n/a	n/a	blue
386.0499	1.0167	ITI	n/a	n/a	n/a	n/a	n/a	n/a	n/a	n/a
387.0665	0.5167	FIXCROSS	n/a	n/a	n/a	n/a	n/a	n/a	n/a	n/a
387.5832	0.55	COLOR_NAME	56	Incongruent	zielony	green	niebieski	blue	hit	n/a
388.1011	n/a	RESPONSE	n/a	n/a	n/a	n/a	n/a	n/a	n/a	green
388.1332	1.0167	ITI	n/a	n/a	n/a	n/a	n/a	n/a	n/a	n/a
389.1499	0.5167	FIXCROSS	n/a	n/a	n/a	n/a	n/a	n/a	n/a	n/a
389.6666	0.7167	COLOR_NAME	57	Incongruent	zielony	green	czerwony	red	hit	n/a
390.352	n/a	RESPONSE	n/a	n/a	n/a	n/a	n/a	n/a	n/a	green
390.3833	1.0167	ITI	n/a	n/a	n/a	n/a	n/a	n/a	n/a	n/a
391.4	0.5166	FIXCROSS	n/a	n/a	n/a	n/a	n/a	n/a	n/a	n/a
391.9166	0.5834	COLOR_NAME	58	Neutral	żółty	yellow	Neutral	Neutral	hit	n/a
392.4749	n/a	RESPONSE	n/a	n/a	n/a	n/a	n/a	n/a	n/a	yellow
392.5	1.0167	ITI	n/a	n/a	n/a	n/a	n/a	n/a	n/a	n/a
393.5166	0.5167	FIXCROSS	n/a	n/a	n/a	n/a	n/a	n/a	n/a	n/a
394.0333	0.5667	COLOR_NAME	59	Neutral	żółty	yellow	Neutral	Neutral	hit	n/a
394.5821	n/a	RESPONSE	n/a	n/a	n/a	n/a	n/a	n/a	n/a	yellow
394.6	1.0167	ITI	n/a	n/a	n/a	n/a	n/a	n/a	n/a	n/a
395.6166	0.5167	FIXCROSS	n/a	n/a	n/a	n/a	n/a	n/a	n/a	n/a
396.1333	0.5166	COLOR_NAME	60	Incongruent	zielony	green	żółty	yellow	hit	n/a
396.6253	n/a	RESPONSE	n/a	n/a	n/a	n/a	n/a	n/a	n/a	green
396.65	1.0167	ITI	n/a	n/a	n/a	n/a	n/a	n/a	n/a	n/a
397.6667	0.5167	FIXCROSS	n/a	n/a	n/a	n/a	n/a	n/a	n/a	n/a
398.1833	0.4833	COLOR_NAME	61	Neutral	żółty	yellow	Neutral	Neutral	hit	n/a
398.6365	n/a	RESPONSE	n/a	n/a	n/a	n/a	n/a	n/a	n/a	yellow
398.6667	1.0167	ITI	n/a	n/a	n/a	n/a	n/a	n/a	n/a	n/a
399.6833	0.5167	FIXCROSS	n/a	n/a	n/a	n/a	n/a	n/a	n/a	n/a
400.2	0.5833	COLOR_NAME	62	Incongruent	czerwony	red	żółty	yellow	hit	n/a
400.7594	n/a	RESPONSE	n/a	n/a	n/a	n/a	n/a	n/a	n/a	red
400.7834	1.0167	ITI	n/a	n/a	n/a	n/a	n/a	n/a	n/a	n/a
401.8	0.5167	FIXCROSS	n/a	n/a	n/a	n/a	n/a	n/a	n/a	n/a
402.3167	0.6833	COLOR_NAME	63	Incongruent	czerwony	red	niebieski	blue	hit	n/a
402.9783	n/a	RESPONSE	n/a	n/a	n/a	n/a	n/a	n/a	n/a	red
403.0	1.0167	ITI	n/a	n/a	n/a	n/a	n/a	n/a	n/a	n/a
404.0167	0.5167	FIXCROSS	n/a	n/a	n/a	n/a	n/a	n/a	n/a	n/a
404.5334	0.5833	COLOR_NAME	64	Neutral	niebieski	blue	Neutral	Neutral	hit	n/a
405.0854	n/a	RESPONSE	n/a	n/a	n/a	n/a	n/a	n/a	n/a	blue
405.1167	1.0167	ITI	n/a	n/a	n/a	n/a	n/a	n/a	n/a	n/a
406.1334	0.5167	FIXCROSS	n/a	n/a	n/a	n/a	n/a	n/a	n/a	n/a
406.6501	0.4833	COLOR_NAME	65	Neutral	zielony	green	Neutral	Neutral	hit	n/a
407.1127	n/a	RESPONSE	n/a	n/a	n/a	n/a	n/a	n/a	n/a	green
407.1334	1.0167	ITI	n/a	n/a	n/a	n/a	n/a	n/a	n/a	n/a
408.1501	0.5167	FIXCROSS	n/a	n/a	n/a	n/a	n/a	n/a	n/a	n/a
408.6668	0.6	COLOR_NAME	66	Incongruent	niebieski	blue	zielony	green	hit	n/a
409.2358	n/a	RESPONSE	n/a	n/a	n/a	n/a	n/a	n/a	n/a	blue
409.2668	1.0167	ITI	n/a	n/a	n/a	n/a	n/a	n/a	n/a	n/a
410.2834	0.5167	FIXCROSS	n/a	n/a	n/a	n/a	n/a	n/a	n/a	n/a
410.8001	0.7166	COLOR_NAME	67	Incongruent	zielony	green	czerwony	red	hit	n/a
411.4865	n/a	RESPONSE	n/a	n/a	n/a	n/a	n/a	n/a	n/a	green
411.5168	1.0167	ITI	n/a	n/a	n/a	n/a	n/a	n/a	n/a	n/a
412.5334	0.5167	FIXCROSS	n/a	n/a	n/a	n/a	n/a	n/a	n/a	n/a
413.0501	0.6	COLOR_NAME	68	Incongruent	żółty	yellow	zielony	green	hit	n/a
413.6255	n/a	RESPONSE	n/a	n/a	n/a	n/a	n/a	n/a	n/a	yellow
413.6501	1.0166	ITI	n/a	n/a	n/a	n/a	n/a	n/a	n/a	n/a
414.6667	0.5168	FIXCROSS	n/a	n/a	n/a	n/a	n/a	n/a	n/a	n/a
415.1835	0.7333	COLOR_NAME	69	Incongruent	zielony	green	czerwony	red	hit	n/a
415.892	n/a	RESPONSE	n/a	n/a	n/a	n/a	n/a	n/a	n/a	green
415.9168	1.0167	ITI	n/a	n/a	n/a	n/a	n/a	n/a	n/a	n/a
416.9335	0.5167	FIXCROSS	n/a	n/a	n/a	n/a	n/a	n/a	n/a	n/a
417.4502	0.5833	COLOR_NAME	70	Neutral	czerwony	red	Neutral	Neutral	hit	n/a
418.0151	n/a	RESPONSE	n/a	n/a	n/a	n/a	n/a	n/a	n/a	red
418.0335	1.0167	ITI	n/a	n/a	n/a	n/a	n/a	n/a	n/a	n/a
419.0502	0.5167	FIXCROSS	n/a	n/a	n/a	n/a	n/a	n/a	n/a	n/a
419.5669	0.8	COLOR_NAME	71	Incongruent	niebieski	blue	czerwony	red	hit	n/a
420.3456	n/a	RESPONSE	n/a	n/a	n/a	n/a	n/a	n/a	n/a	blue
420.3669	1.0167	ITI	n/a	n/a	n/a	n/a	n/a	n/a	n/a	n/a
421.3835	0.5167	FIXCROSS	n/a	n/a	n/a	n/a	n/a	n/a	n/a	n/a
421.9002	0.65	COLOR_NAME	72	Incongruent	czerwony	red	niebieski	blue	hit	n/a
422.5326	n/a	RESPONSE	n/a	n/a	n/a	n/a	n/a	n/a	n/a	red
422.5502	1.0333	ITI	n/a	n/a	n/a	n/a	n/a	n/a	n/a	n/a
422.7241	n/a	RESPONSE	n/a	n/a	n/a	n/a	n/a	n/a	n/a	red
430.2265	n/a	RESPONSE	n/a	n/a	n/a	n/a	n/a	n/a	n/a	n/a
