onset	duration	condition	trial_type	braille_stimulus	response_val	response_type
2.018	2.008	6_DOT_DETECTION	CUE	n/a	n/a	n/a
7.018	1.008	6_DOT_DETECTION	FIXCROSS	n/a	n/a	n/a
8.034	5.008	6_DOT_DETECTION	NO_6-DOT	KŁMLK	n/a	n/a
11.984	n/a	6_DOT_DETECTION	RESPONSE	n/a	NO	CORRECT_REJECTION
15.068	1.008	6_DOT_DETECTION	FIXCROSS	n/a	n/a	n/a
16.084	5.008	6_DOT_DETECTION	NO_6-DOT	PŁKL	n/a	n/a
19.76	n/a	6_DOT_DETECTION	RESPONSE	n/a	NO	CORRECT_REJECTION
23.118	1.008	6_DOT_DETECTION	FIXCROSS	n/a	n/a	n/a
24.134	5.008	6_DOT_DETECTION	6-DOT	#M#ŁS	n/a	n/a
27.784	n/a	6_DOT_DETECTION	RESPONSE	n/a	YES	HIT
31.167	1.009	6_DOT_DETECTION	FIXCROSS	n/a	n/a	n/a
32.184	5.008	6_DOT_DETECTION	6-DOT	KB##	n/a	n/a
35.44	n/a	6_DOT_DETECTION	RESPONSE	n/a	YES	HIT
39.217	1.009	6_DOT_DETECTION	FIXCROSS	n/a	n/a	n/a
40.234	5.008	6_DOT_DETECTION	NO_6-DOT	TKLKŁ	n/a	n/a
43.76	n/a	6_DOT_DETECTION	RESPONSE	n/a	NO	CORRECT_REJECTION
49.276	2.008	LEXICAL_DECISION	CUE	n/a	n/a	n/a
54.276	1.008	LEXICAL_DECISION	FIXCROSS	n/a	n/a	n/a
55.292	5.009	LEXICAL_DECISION	PSEUDOWORD	SEMA	n/a	n/a
61.184	n/a	LEXICAL_DECISION	RESPONSE	n/a	NO	CORRECT_REJECTION
62.326	1.008	LEXICAL_DECISION	FIXCROSS	n/a	n/a	n/a
63.343	5.008	LEXICAL_DECISION	WORD	TYPU	n/a	n/a
70.376	1.017	LEXICAL_DECISION	FIXCROSS	n/a	n/a	n/a
70.664	n/a	LEXICAL_DECISION	RESPONSE	n/a	NO	MISS
71.401	5.008	LEXICAL_DECISION	WORD	STEK	n/a	n/a
77.68	n/a	LEXICAL_DECISION	RESPONSE	n/a	YES	HIT
78.435	1.008	LEXICAL_DECISION	FIXCROSS	n/a	n/a	n/a
79.451	5.008	LEXICAL_DECISION	PSEUDOWORD	LIŁCU	n/a	n/a
86.144	n/a	LEXICAL_DECISION	RESPONSE	n/a	NO	CORRECT_REJECTION
86.485	1.008	LEXICAL_DECISION	FIXCROSS	n/a	n/a	n/a
87.501	5.008	LEXICAL_DECISION	WORD	TOPI	n/a	n/a
94.304	n/a	LEXICAL_DECISION	RESPONSE	n/a	NO	MISS
96.043	2.008	6_DOT_DETECTION	CUE	n/a	n/a	n/a
100.543	1.008	6_DOT_DETECTION	FIXCROSS	n/a	n/a	n/a
101.559	5.009	6_DOT_DETECTION	6-DOT	DK##L	n/a	n/a
105.28	n/a	6_DOT_DETECTION	RESPONSE	n/a	YES	HIT
108.593	1.008	6_DOT_DETECTION	FIXCROSS	n/a	n/a	n/a
109.61	5.008	6_DOT_DETECTION	NO_6-DOT	KDTLŁ	n/a	n/a
114.864	n/a	6_DOT_DETECTION	RESPONSE	n/a	NO	CORRECT_REJECTION
116.643	1.008	6_DOT_DETECTION	FIXCROSS	n/a	n/a	n/a
117.66	5.008	6_DOT_DETECTION	6-DOT	P#T#	n/a	n/a
121.864	n/a	6_DOT_DETECTION	RESPONSE	n/a	YES	HIT
124.693	1.008	6_DOT_DETECTION	FIXCROSS	n/a	n/a	n/a
125.71	5.008	6_DOT_DETECTION	NO_6-DOT	SSŁKM	n/a	n/a
129.8	n/a	6_DOT_DETECTION	RESPONSE	n/a	NO	CORRECT_REJECTION
132.743	1.008	6_DOT_DETECTION	FIXCROSS	n/a	n/a	n/a
133.76	5.008	6_DOT_DETECTION	NO_6-DOT	DDŁ	n/a	n/a
137.72	n/a	6_DOT_DETECTION	RESPONSE	n/a	NO	CORRECT_REJECTION
141.802	2.008	LEXICAL_DECISION	CUE	n/a	n/a	n/a
146.802	1.008	LEXICAL_DECISION	FIXCROSS	n/a	n/a	n/a
147.818	5.008	LEXICAL_DECISION	PSEUDOWORD	BYLU	n/a	n/a
154.44	n/a	LEXICAL_DECISION	RESPONSE	n/a	NO	CORRECT_REJECTION
154.852	1.008	LEXICAL_DECISION	FIXCROSS	n/a	n/a	n/a
155.868	5.008	LEXICAL_DECISION	PSEUDOWORD	OKCY	n/a	n/a
162.68	n/a	LEXICAL_DECISION	RESPONSE	n/a	NO	CORRECT_REJECTION
162.902	1.008	LEXICAL_DECISION	FIXCROSS	n/a	n/a	n/a
163.918	5.008	LEXICAL_DECISION	PSEUDOWORD	DOAST	n/a	n/a
169.96	n/a	LEXICAL_DECISION	RESPONSE	n/a	YES	FALSE_ALARM
170.952	1.008	LEXICAL_DECISION	FIXCROSS	n/a	n/a	n/a
171.968	5.008	LEXICAL_DECISION	WORD	SMOK	n/a	n/a
178.36	n/a	LEXICAL_DECISION	RESPONSE	n/a	NO	MISS
179.002	1.008	LEXICAL_DECISION	FIXCROSS	n/a	n/a	n/a
180.018	5.008	LEXICAL_DECISION	WORD	AKT	n/a	n/a
186.0	n/a	LEXICAL_DECISION	RESPONSE	n/a	YES	HIT
188.56	2.008	6_DOT_DETECTION	CUE	n/a	n/a	n/a
194.06	1.008	6_DOT_DETECTION	FIXCROSS	n/a	n/a	n/a
195.076	5.009	6_DOT_DETECTION	6-DOT	SŁ#M#	n/a	n/a
200.72	n/a	6_DOT_DETECTION	RESPONSE	n/a	YES	HIT
202.11	1.008	6_DOT_DETECTION	FIXCROSS	n/a	n/a	n/a
203.127	5.008	6_DOT_DETECTION	NO_6-DOT	KCTD	n/a	n/a
206.4	n/a	6_DOT_DETECTION	RESPONSE	n/a	NO	CORRECT_REJECTION
210.16	1.009	6_DOT_DETECTION	FIXCROSS	n/a	n/a	n/a
211.177	5.008	6_DOT_DETECTION	6-DOT	#KT#	n/a	n/a
215.624	n/a	6_DOT_DETECTION	RESPONSE	n/a	YES	HIT
218.21	1.008	6_DOT_DETECTION	FIXCROSS	n/a	n/a	n/a
219.227	5.008	6_DOT_DETECTION	6-DOT	P##Ł	n/a	n/a
224.4	n/a	6_DOT_DETECTION	RESPONSE	n/a	YES	HIT
226.26	1.008	6_DOT_DETECTION	FIXCROSS	n/a	n/a	n/a
227.277	5.008	6_DOT_DETECTION	NO_6-DOT	ŁMT	n/a	n/a
231.56	n/a	6_DOT_DETECTION	RESPONSE	n/a	NO	CORRECT_REJECTION
235.818	2.008	LEXICAL_DECISION	CUE	n/a	n/a	n/a
242.319	1.008	LEXICAL_DECISION	FIXCROSS	n/a	n/a	n/a
243.335	5.008	LEXICAL_DECISION	WORD	DOKI	n/a	n/a
250.369	1.008	LEXICAL_DECISION	FIXCROSS	n/a	n/a	n/a
250.96	n/a	LEXICAL_DECISION	RESPONSE	n/a	YES	HIT
251.385	5.008	LEXICAL_DECISION	PSEUDOWORD	DASY	n/a	n/a
258.04	n/a	LEXICAL_DECISION	RESPONSE	n/a	NO	CORRECT_REJECTION
258.419	1.008	LEXICAL_DECISION	FIXCROSS	n/a	n/a	n/a
259.435	5.008	LEXICAL_DECISION	WORD	ŁAPY	n/a	n/a
264.92	n/a	LEXICAL_DECISION	RESPONSE	n/a	YES	HIT
266.469	1.008	LEXICAL_DECISION	FIXCROSS	n/a	n/a	n/a
267.485	5.008	LEXICAL_DECISION	WORD	UMYSŁ	n/a	n/a
274.04	n/a	LEXICAL_DECISION	RESPONSE	n/a	NO	MISS
274.519	1.008	LEXICAL_DECISION	FIXCROSS	n/a	n/a	n/a
275.535	5.008	LEXICAL_DECISION	WORD	ILOMA	n/a	n/a
282.744	n/a	LEXICAL_DECISION	RESPONSE	n/a	NO	MISS
284.577	2.008	6_DOT_DETECTION	CUE	n/a	n/a	n/a
290.577	1.008	6_DOT_DETECTION	FIXCROSS	n/a	n/a	n/a
291.594	5.008	6_DOT_DETECTION	NO_6-DOT	TKM	n/a	n/a
294.76	n/a	6_DOT_DETECTION	RESPONSE	n/a	NO	CORRECT_REJECTION
298.627	1.008	6_DOT_DETECTION	FIXCROSS	n/a	n/a	n/a
299.644	5.008	6_DOT_DETECTION	NO_6-DOT	BKPM	n/a	n/a
303.856	n/a	6_DOT_DETECTION	RESPONSE	n/a	NO	CORRECT_REJECTION
306.677	1.008	6_DOT_DETECTION	FIXCROSS	n/a	n/a	n/a
307.694	5.008	6_DOT_DETECTION	NO_6-DOT	STMKŁ	n/a	n/a
312.08	n/a	6_DOT_DETECTION	RESPONSE	n/a	NO	CORRECT_REJECTION
314.727	1.009	6_DOT_DETECTION	FIXCROSS	n/a	n/a	n/a
315.744	5.008	6_DOT_DETECTION	6-DOT	##CL	n/a	n/a
318.84	n/a	6_DOT_DETECTION	RESPONSE	n/a	YES	HIT
322.777	1.008	6_DOT_DETECTION	FIXCROSS	n/a	n/a	n/a
323.794	5.008	6_DOT_DETECTION	NO_6-DOT	LTLKŁ	n/a	n/a
327.297	n/a	6_DOT_DETECTION	RESPONSE	n/a	NO	CORRECT_REJECTION
332.836	2.008	LEXICAL_DECISION	CUE	n/a	n/a	n/a
338.836	1.008	LEXICAL_DECISION	FIXCROSS	n/a	n/a	n/a
339.852	5.008	LEXICAL_DECISION	PSEUDOWORD	PŁAKI	n/a	n/a
346.601	n/a	LEXICAL_DECISION	RESPONSE	n/a	YES	FALSE_ALARM
346.886	1.008	LEXICAL_DECISION	FIXCROSS	n/a	n/a	n/a
347.902	5.008	LEXICAL_DECISION	WORD	KOT	n/a	n/a
353.521	n/a	LEXICAL_DECISION	RESPONSE	n/a	NO	MISS
354.936	1.008	LEXICAL_DECISION	FIXCROSS	n/a	n/a	n/a
355.952	5.008	LEXICAL_DECISION	PSEUDOWORD	CULE 	n/a	n/a
362.986	1.008	LEXICAL_DECISION	FIXCROSS	n/a	n/a	n/a
364.002	5.008	LEXICAL_DECISION	WORD	PASMO	n/a	n/a
371.036	1.008	LEXICAL_DECISION	FIXCROSS	n/a	n/a	n/a
371.681	n/a	LEXICAL_DECISION	RESPONSE	n/a	NO	MISS
372.052	5.008	LEXICAL_DECISION	WORD	METCE	n/a	n/a
379.201	n/a	LEXICAL_DECISION	RESPONSE	n/a	NO	MISS
380.594	2.008	6_DOT_DETECTION	CUE	n/a	n/a	n/a
386.094	1.008	6_DOT_DETECTION	FIXCROSS	n/a	n/a	n/a
387.111	5.008	6_DOT_DETECTION	6-DOT	L#B#	n/a	n/a
392.137	n/a	6_DOT_DETECTION	RESPONSE	n/a	YES	HIT
394.144	1.008	6_DOT_DETECTION	FIXCROSS	n/a	n/a	n/a
395.161	5.008	6_DOT_DETECTION	6-DOT	#KŁ#	n/a	n/a
399.417	n/a	6_DOT_DETECTION	RESPONSE	n/a	YES	HIT
402.194	1.008	6_DOT_DETECTION	FIXCROSS	n/a	n/a	n/a
403.211	5.008	6_DOT_DETECTION	NO_6-DOT	KCK	n/a	n/a
407.017	n/a	6_DOT_DETECTION	RESPONSE	n/a	NO	CORRECT_REJECTION
410.244	1.008	6_DOT_DETECTION	FIXCROSS	n/a	n/a	n/a
411.261	5.008	6_DOT_DETECTION	6-DOT	LT##	n/a	n/a
415.121	n/a	6_DOT_DETECTION	RESPONSE	n/a	YES	HIT
418.294	1.008	6_DOT_DETECTION	FIXCROSS	n/a	n/a	n/a
419.311	5.008	6_DOT_DETECTION	NO_6-DOT	DDTLK	n/a	n/a
423.617	n/a	6_DOT_DETECTION	RESPONSE	n/a	NO	CORRECT_REJECTION
427.853	2.008	LEXICAL_DECISION	CUE	n/a	n/a	n/a
433.353	1.008	LEXICAL_DECISION	FIXCROSS	n/a	n/a	n/a
434.369	5.008	LEXICAL_DECISION	WORD	STOLE	n/a	n/a
441.403	1.008	LEXICAL_DECISION	FIXCROSS	n/a	n/a	n/a
441.617	n/a	LEXICAL_DECISION	RESPONSE	n/a	NO	MISS
442.419	5.008	LEXICAL_DECISION	WORD	BOBAS	n/a	n/a
448.801	n/a	LEXICAL_DECISION	RESPONSE	n/a	YES	HIT
449.453	1.008	LEXICAL_DECISION	FIXCROSS	n/a	n/a	n/a
450.469	5.008	LEXICAL_DECISION	PSEUDOWORD	DASIE	n/a	n/a
457.297	n/a	LEXICAL_DECISION	RESPONSE	n/a	NO	CORRECT_REJECTION
457.503	1.008	LEXICAL_DECISION	FIXCROSS	n/a	n/a	n/a
458.519	5.008	LEXICAL_DECISION	PSEUDOWORD	LEDI	n/a	n/a
465.097	n/a	LEXICAL_DECISION	RESPONSE	n/a	YES	FALSE_ALARM
465.553	1.008	LEXICAL_DECISION	FIXCROSS	n/a	n/a	n/a
466.569	5.008	LEXICAL_DECISION	PSEUDOWORD	BILOT	n/a	n/a
473.201	n/a	LEXICAL_DECISION	RESPONSE	n/a	YES	FALSE_ALARM
474.611	2.008	6_DOT_DETECTION	CUE	n/a	n/a	n/a
481.611	1.008	6_DOT_DETECTION	FIXCROSS	n/a	n/a	n/a
482.628	5.008	6_DOT_DETECTION	NO_6-DOT	DLBL	n/a	n/a
485.641	n/a	6_DOT_DETECTION	RESPONSE	n/a	NO	CORRECT_REJECTION
489.661	1.008	6_DOT_DETECTION	FIXCROSS	n/a	n/a	n/a
490.678	5.008	6_DOT_DETECTION	6-DOT	#K#	n/a	n/a
494.417	n/a	6_DOT_DETECTION	RESPONSE	n/a	YES	HIT
497.711	1.008	6_DOT_DETECTION	FIXCROSS	n/a	n/a	n/a
498.728	5.008	6_DOT_DETECTION	6-DOT	K#CL#	n/a	n/a
503.081	n/a	6_DOT_DETECTION	RESPONSE	n/a	YES	HIT
505.761	1.008	6_DOT_DETECTION	FIXCROSS	n/a	n/a	n/a
506.778	5.008	6_DOT_DETECTION	6-DOT	K#L#	n/a	n/a
509.817	n/a	6_DOT_DETECTION	RESPONSE	n/a	YES	HIT
513.811	1.008	6_DOT_DETECTION	FIXCROSS	n/a	n/a	n/a
514.828	5.008	6_DOT_DETECTION	6-DOT	Ł##	n/a	n/a
517.697	n/a	6_DOT_DETECTION	RESPONSE	n/a	YES	HIT
522.87	2.008	LEXICAL_DECISION	CUE	n/a	n/a	n/a
527.87	1.008	LEXICAL_DECISION	FIXCROSS	n/a	n/a	n/a
528.886	5.008	LEXICAL_DECISION	PSEUDOWORD	SYM	n/a	n/a
535.92	1.008	LEXICAL_DECISION	FIXCROSS	n/a	n/a	n/a
536.321	n/a	LEXICAL_DECISION	RESPONSE	n/a	NO	CORRECT_REJECTION
536.936	5.008	LEXICAL_DECISION	WORD	PTAK	n/a	n/a
542.977	n/a	LEXICAL_DECISION	RESPONSE	n/a	YES	HIT
543.97	1.008	LEXICAL_DECISION	FIXCROSS	n/a	n/a	n/a
544.986	5.008	LEXICAL_DECISION	PSEUDOWORD	PKAŁ	n/a	n/a
551.441	n/a	LEXICAL_DECISION	RESPONSE	n/a	NO	CORRECT_REJECTION
552.02	1.008	LEXICAL_DECISION	FIXCROSS	n/a	n/a	n/a
553.036	5.008	LEXICAL_DECISION	WORD	BOSKI	n/a	n/a
559.257	n/a	LEXICAL_DECISION	RESPONSE	n/a	YES	HIT
560.07	1.008	LEXICAL_DECISION	FIXCROSS	n/a	n/a	n/a
561.086	5.008	LEXICAL_DECISION	WORD	POD	n/a	n/a
568.121	n/a	LEXICAL_DECISION	RESPONSE	n/a	YES	HIT
569.628	2.008	6_DOT_DETECTION	CUE	n/a	n/a	n/a
574.128	1.008	6_DOT_DETECTION	FIXCROSS	n/a	n/a	n/a
575.144	5.009	6_DOT_DETECTION	NO_6-DOT	PMDŁ	n/a	n/a
578.777	n/a	6_DOT_DETECTION	RESPONSE	n/a	NO	CORRECT_REJECTION
582.178	1.008	6_DOT_DETECTION	FIXCROSS	n/a	n/a	n/a
583.195	5.008	6_DOT_DETECTION	NO_6-DOT	BŁSL	n/a	n/a
586.097	n/a	6_DOT_DETECTION	RESPONSE	n/a	NO	CORRECT_REJECTION
590.228	1.008	6_DOT_DETECTION	FIXCROSS	n/a	n/a	n/a
591.245	5.008	6_DOT_DETECTION	6-DOT	SM#K#	n/a	n/a
594.097	n/a	6_DOT_DETECTION	RESPONSE	n/a	YES	HIT
598.278	1.008	6_DOT_DETECTION	FIXCROSS	n/a	n/a	n/a
599.295	5.008	6_DOT_DETECTION	NO_6-DOT	MLMK	n/a	n/a
603.257	n/a	6_DOT_DETECTION	RESPONSE	n/a	NO	CORRECT_REJECTION
606.328	1.008	6_DOT_DETECTION	FIXCROSS	n/a	n/a	n/a
607.345	5.008	6_DOT_DETECTION	6-DOT	#K#	n/a	n/a
611.297	n/a	6_DOT_DETECTION	RESPONSE	n/a	NO	MISS
615.887	2.008	LEXICAL_DECISION	CUE	n/a	n/a	n/a
622.387	1.008	LEXICAL_DECISION	FIXCROSS	n/a	n/a	n/a
623.403	5.008	LEXICAL_DECISION	PSEUDOWORD	PUTY	n/a	n/a
630.437	1.008	LEXICAL_DECISION	FIXCROSS	n/a	n/a	n/a
630.561	n/a	LEXICAL_DECISION	RESPONSE	n/a	YES	FALSE_ALARM
631.453	5.008	LEXICAL_DECISION	PSEUDOWORD	OTAL	n/a	n/a
638.041	n/a	LEXICAL_DECISION	RESPONSE	n/a	YES	FALSE_ALARM
638.487	1.008	LEXICAL_DECISION	FIXCROSS	n/a	n/a	n/a
639.503	5.008	LEXICAL_DECISION	PSEUDOWORD	MITKI	n/a	n/a
646.537	1.008	LEXICAL_DECISION	FIXCROSS	n/a	n/a	n/a
646.817	n/a	LEXICAL_DECISION	RESPONSE	n/a	NO	CORRECT_REJECTION
647.554	5.008	LEXICAL_DECISION	PSEUDOWORD	KLICE	n/a	n/a
654.121	n/a	LEXICAL_DECISION	RESPONSE	n/a	NO	CORRECT_REJECTION
654.587	1.008	LEXICAL_DECISION	FIXCROSS	n/a	n/a	n/a
655.604	5.008	LEXICAL_DECISION	PSEUDOWORD	SMO	n/a	n/a
662.361	n/a	LEXICAL_DECISION	RESPONSE	n/a	NO	CORRECT_REJECTION
663.645	2.008	6_DOT_DETECTION	CUE	n/a	n/a	n/a
668.645	1.008	6_DOT_DETECTION	FIXCROSS	n/a	n/a	n/a
669.662	5.008	6_DOT_DETECTION	6-DOT	##LŁ	n/a	n/a
673.441	n/a	6_DOT_DETECTION	RESPONSE	n/a	YES	HIT
676.695	1.008	6_DOT_DETECTION	FIXCROSS	n/a	n/a	n/a
677.712	5.008	6_DOT_DETECTION	6-DOT	LM#M#	n/a	n/a
681.857	n/a	6_DOT_DETECTION	RESPONSE	n/a	YES	HIT
684.745	1.008	6_DOT_DETECTION	FIXCROSS	n/a	n/a	n/a
685.762	5.008	6_DOT_DETECTION	6-DOT	M##	n/a	n/a
688.297	n/a	6_DOT_DETECTION	RESPONSE	n/a	YES	HIT
692.795	1.008	6_DOT_DETECTION	FIXCROSS	n/a	n/a	n/a
693.812	5.008	6_DOT_DETECTION	NO_6-DOT	DKŁKŁ	n/a	n/a
698.017	n/a	6_DOT_DETECTION	RESPONSE	n/a	NO	CORRECT_REJECTION
700.845	1.008	6_DOT_DETECTION	FIXCROSS	n/a	n/a	n/a
701.862	5.008	6_DOT_DETECTION	NO_6-DOT	PKTL	n/a	n/a
705.177	n/a	6_DOT_DETECTION	RESPONSE	n/a	NO	CORRECT_REJECTION
710.404	2.008	LEXICAL_DECISION	CUE	n/a	n/a	n/a
715.904	1.008	LEXICAL_DECISION	FIXCROSS	n/a	n/a	n/a
716.92	5.009	LEXICAL_DECISION	WORD	TUPAŁ	n/a	n/a
723.697	n/a	LEXICAL_DECISION	RESPONSE	n/a	NO	MISS
723.954	1.008	LEXICAL_DECISION	FIXCROSS	n/a	n/a	n/a
724.97	5.008	LEXICAL_DECISION	WORD	DYSK	n/a	n/a
731.721	n/a	LEXICAL_DECISION	RESPONSE	n/a	NO	MISS
732.004	1.008	LEXICAL_DECISION	FIXCROSS	n/a	n/a	n/a
733.02	5.008	LEXICAL_DECISION	WORD	TYM	n/a	n/a
740.054	1.008	LEXICAL_DECISION	FIXCROSS	n/a	n/a	n/a
740.297	n/a	LEXICAL_DECISION	RESPONSE	n/a	YES	HIT
741.07	5.008	LEXICAL_DECISION	PSEUDOWORD	KPU	n/a	n/a
748.104	1.008	LEXICAL_DECISION	FIXCROSS	n/a	n/a	n/a
749.001	n/a	LEXICAL_DECISION	RESPONSE	n/a	NO	CORRECT_REJECTION
749.12	5.008	LEXICAL_DECISION	PSEUDOWORD	CYLI	n/a	n/a
756.057	n/a	LEXICAL_DECISION	RESPONSE	n/a	YES	FALSE_ALARM
