onset	duration	trial_type	braille_stimulus	targets	response_count
2.015	2.008	CUE_6_DOT	n/a	n/a	n/a
7.016	1.008	FIXCROSS	n/a	n/a	n/a
8.032	5.008	6_DOT_DETECTION	ŁKTMO	0	n/a
13.066	1.008	FIXCROSS	n/a	n/a	n/a
14.082	5.008	6_DOT_DETECTION	CKBPD	0	n/a
19.116	1.008	FIXCROSS	n/a	n/a	n/a
20.132	5.008	6_DOT_DETECTION	#TAK#	2	n/a
21.864	n/a	RESPONSE	n/a	n/a	1/2
23.88	n/a	RESPONSE	n/a	n/a	2/2
25.166	1.008	FIXCROSS	n/a	n/a	n/a
26.182	5.008	6_DOT_DETECTION	DBA#Y	1	n/a
28.664	n/a	RESPONSE	n/a	n/a	1/1
31.216	1.008	FIXCROSS	n/a	n/a	n/a
32.232	5.008	6_DOT_DETECTION	LDEAC	0	n/a
37.266	1.008	FIXCROSS	n/a	n/a	n/a
38.282	5.008	6_DOT_DETECTION	ŁMLSI	0	n/a
43.316	1.008	FIXCROSS	n/a	n/a	n/a
44.332	5.008	6_DOT_DETECTION	ULI#Ł	1	n/a
47.664	n/a	RESPONSE	n/a	n/a	1/1
49.366	1.008	FIXCROSS	n/a	n/a	n/a
50.382	5.008	6_DOT_DETECTION	K#SET	1	n/a
51.76	n/a	RESPONSE	n/a	n/a	1/1
57.424	2.008	CUE_REST	n/a	n/a	n/a
62.424	1.008	FIXCROSS	n/a	n/a	n/a
68.474	1.008	FIXCROSS	n/a	n/a	n/a
75.532	2.008	CUE_6_DOT	n/a	n/a	n/a
80.532	1.008	FIXCROSS	n/a	n/a	n/a
81.549	5.008	6_DOT_DETECTION	DLPOO	0	n/a
86.582	1.008	FIXCROSS	n/a	n/a	n/a
87.599	5.008	6_DOT_DETECTION	LDABD	0	n/a
92.632	1.008	FIXCROSS	n/a	n/a	n/a
93.649	5.008	6_DOT_DETECTION	OSA#U	1	n/a
95.72	n/a	RESPONSE	n/a	n/a	1/1
98.682	1.008	FIXCROSS	n/a	n/a	n/a
99.699	5.008	6_DOT_DETECTION	LEK##	2	n/a
102.4	n/a	RESPONSE	n/a	n/a	1/2
103.464	n/a	RESPONSE	n/a	n/a	2/2
104.732	1.008	FIXCROSS	n/a	n/a	n/a
105.749	5.008	6_DOT_DETECTION	#TAM#	2	n/a
106.664	n/a	RESPONSE	n/a	n/a	1/2
108.904	n/a	RESPONSE	n/a	n/a	2/2
110.782	1.008	FIXCROSS	n/a	n/a	n/a
111.799	5.008	6_DOT_DETECTION	ISUEP	0	n/a
116.832	1.008	FIXCROSS	n/a	n/a	n/a
117.849	5.008	6_DOT_DETECTION	K#MYL	1	n/a
119.424	n/a	RESPONSE	n/a	n/a	1/1
122.36	n/a	RESPONSE	n/a	n/a	2/1
122.882	1.008	FIXCROSS	n/a	n/a	n/a
123.899	5.008	6_DOT_DETECTION	ADA#K	1	n/a
126.424	n/a	RESPONSE	n/a	n/a	1/1
130.441	2.008	CUE_REST	n/a	n/a	n/a
136.941	1.008	FIXCROSS	n/a	n/a	n/a
142.991	1.008	FIXCROSS	n/a	n/a	n/a
150.549	2.008	CUE_6_DOT	n/a	n/a	n/a
157.049	1.008	FIXCROSS	n/a	n/a	n/a
158.066	5.008	6_DOT_DETECTION	##BIŁ	2	n/a
160.144	n/a	RESPONSE	n/a	n/a	1/2
163.108	1.008	FIXCROSS	n/a	n/a	n/a
164.124	5.008	6_DOT_DETECTION	K#BUD	1	n/a
165.624	n/a	RESPONSE	n/a	n/a	1/1
169.158	1.008	FIXCROSS	n/a	n/a	n/a
170.174	5.008	6_DOT_DETECTION	SMPMY	0	n/a
173.48	n/a	RESPONSE	n/a	n/a	1/0
175.208	1.008	FIXCROSS	n/a	n/a	n/a
176.224	5.008	6_DOT_DETECTION	#DOBK	1	n/a
177.36	n/a	RESPONSE	n/a	n/a	1/1
181.258	1.008	FIXCROSS	n/a	n/a	n/a
182.274	5.008	6_DOT_DETECTION	TUAIU	0	n/a
187.308	1.008	FIXCROSS	n/a	n/a	n/a
188.324	5.008	6_DOT_DETECTION	P#LOK	1	n/a
190.064	n/a	RESPONSE	n/a	n/a	1/1
193.358	1.008	FIXCROSS	n/a	n/a	n/a
194.374	5.008	6_DOT_DETECTION	#LAT#	2	n/a
195.08	n/a	RESPONSE	n/a	n/a	1/2
197.2	n/a	RESPONSE	n/a	n/a	2/2
199.408	1.008	FIXCROSS	n/a	n/a	n/a
200.424	5.008	6_DOT_DETECTION	IPUTI	0	n/a
206.966	2.008	CUE_REST	n/a	n/a	n/a
211.466	1.008	FIXCROSS	n/a	n/a	n/a
217.516	1.008	FIXCROSS	n/a	n/a	n/a
225.574	2.008	CUE_6_DOT	n/a	n/a	n/a
231.574	1.008	FIXCROSS	n/a	n/a	n/a
232.591	5.008	6_DOT_DETECTION	EBC##	2	n/a
234.72	n/a	RESPONSE	n/a	n/a	1/2
236.0	n/a	RESPONSE	n/a	n/a	2/2
237.624	1.008	FIXCROSS	n/a	n/a	n/a
238.641	5.008	6_DOT_DETECTION	KOYUA	0	n/a
243.674	1.008	FIXCROSS	n/a	n/a	n/a
244.691	5.008	6_DOT_DETECTION	C#PYK	1	n/a
246.664	n/a	RESPONSE	n/a	n/a	1/1
249.724	1.008	FIXCROSS	n/a	n/a	n/a
250.741	5.008	6_DOT_DETECTION	TUB##	2	n/a
252.84	n/a	RESPONSE	n/a	n/a	1/2
253.76	n/a	RESPONSE	n/a	n/a	2/2
255.774	1.008	FIXCROSS	n/a	n/a	n/a
256.791	5.008	6_DOT_DETECTION	TCBMA	0	n/a
261.824	1.008	FIXCROSS	n/a	n/a	n/a
262.841	5.008	6_DOT_DETECTION	#SŁEM	1	n/a
263.8	n/a	RESPONSE	n/a	n/a	1/1
267.874	1.008	FIXCROSS	n/a	n/a	n/a
268.891	5.008	6_DOT_DETECTION	##UBM	2	n/a
269.704	n/a	RESPONSE	n/a	n/a	1/2
270.88	n/a	RESPONSE	n/a	n/a	2/2
273.924	1.008	FIXCROSS	n/a	n/a	n/a
274.941	5.008	6_DOT_DETECTION	MYL#C	1	n/a
276.304	n/a	RESPONSE	n/a	n/a	1/1
278.08	n/a	RESPONSE	n/a	n/a	2/1
281.983	2.008	CUE_REST	n/a	n/a	n/a
285.983	1.008	FIXCROSS	n/a	n/a	n/a
292.033	1.008	FIXCROSS	n/a	n/a	n/a
299.591	2.008	CUE_6_DOT	n/a	n/a	n/a
305.091	1.008	FIXCROSS	n/a	n/a	n/a
306.108	5.008	6_DOT_DETECTION	DBPSO	0	n/a
311.141	1.008	FIXCROSS	n/a	n/a	n/a
312.158	5.008	6_DOT_DETECTION	SU#A#	2	n/a
313.744	n/a	RESPONSE	n/a	n/a	1/2
315.344	n/a	RESPONSE	n/a	n/a	2/2
317.191	1.008	FIXCROSS	n/a	n/a	n/a
318.208	5.008	6_DOT_DETECTION	#C#AB	2	n/a
320.48	n/a	RESPONSE	n/a	n/a	1/2
323.241	1.008	FIXCROSS	n/a	n/a	n/a
324.258	5.008	6_DOT_DETECTION	#TŁU#	2	n/a
325.08	n/a	RESPONSE	n/a	n/a	1/2
327.36	n/a	RESPONSE	n/a	n/a	2/2
329.291	1.008	FIXCROSS	n/a	n/a	n/a
330.308	5.008	6_DOT_DETECTION	#TYP#	2	n/a
331.8	n/a	RESPONSE	n/a	n/a	1/2
334.584	n/a	RESPONSE	n/a	n/a	2/2
335.341	1.008	FIXCROSS	n/a	n/a	n/a
336.358	5.008	6_DOT_DETECTION	MYL#M	1	n/a
339.0	n/a	RESPONSE	n/a	n/a	1/1
341.391	1.008	FIXCROSS	n/a	n/a	n/a
342.408	5.008	6_DOT_DETECTION	EE##I	2	n/a
344.0	n/a	RESPONSE	n/a	n/a	1/2
345.44	n/a	RESPONSE	n/a	n/a	2/2
347.441	1.008	FIXCROSS	n/a	n/a	n/a
348.458	5.008	6_DOT_DETECTION	##SET	2	n/a
349.32	n/a	RESPONSE	n/a	n/a	1/2
350.664	n/a	RESPONSE	n/a	n/a	2/2
354.5	2.008	CUE_REST	n/a	n/a	n/a
360.5	1.008	FIXCROSS	n/a	n/a	n/a
366.55	1.008	FIXCROSS	n/a	n/a	n/a
373.608	2.008	CUE_6_DOT	n/a	n/a	n/a
378.608	1.008	FIXCROSS	n/a	n/a	n/a
379.625	5.008	6_DOT_DETECTION	DOPPI	0	n/a
384.658	1.008	FIXCROSS	n/a	n/a	n/a
385.675	5.008	6_DOT_DETECTION	##BAK	2	n/a
386.48	n/a	RESPONSE	n/a	n/a	1/2
388.144	n/a	RESPONSE	n/a	n/a	2/2
390.708	1.008	FIXCROSS	n/a	n/a	n/a
391.725	5.008	6_DOT_DETECTION	Y#ŁAM	1	n/a
394.584	n/a	RESPONSE	n/a	n/a	1/1
396.544	n/a	RESPONSE	n/a	n/a	2/1
396.758	1.008	FIXCROSS	n/a	n/a	n/a
397.775	5.008	6_DOT_DETECTION	I#LEP	1	n/a
399.16	n/a	RESPONSE	n/a	n/a	1/1
402.808	1.008	FIXCROSS	n/a	n/a	n/a
403.825	5.008	6_DOT_DETECTION	DLOPP	0	n/a
408.858	1.008	FIXCROSS	n/a	n/a	n/a
409.875	5.008	6_DOT_DETECTION	CEL#D	1	n/a
412.184	n/a	RESPONSE	n/a	n/a	1/1
414.908	1.008	FIXCROSS	n/a	n/a	n/a
415.925	5.008	6_DOT_DETECTION	IMKBP	0	n/a
420.958	1.008	FIXCROSS	n/a	n/a	n/a
421.975	5.008	6_DOT_DETECTION	KIT##	2	n/a
424.52	n/a	RESPONSE	n/a	n/a	1/2
425.664	n/a	RESPONSE	n/a	n/a	2/2
428.016	2.008	CUE_REST	n/a	n/a	n/a
435.016	1.008	FIXCROSS	n/a	n/a	n/a
441.066	1.008	FIXCROSS	n/a	n/a	n/a
