onset	duration	trial_type	trial_number	stroop_condition	stim_text(PL)	stim_text(eng)	stim_color(PL)	stim_color(eng)	response_type	response_color
0.0	n/a	RESPONSE	n/a	n/a	n/a	n/a	n/a	n/a	n/a	n/a
0.0696	1.0333	ITI	n/a	n/a	n/a	n/a	n/a	n/a	n/a	n/a
1.103	0.5167	FIXCROSS	n/a	n/a	n/a	n/a	n/a	n/a	n/a	n/a
1.6197	2.9167	T_INK	1	Incongruent	niebieski	blue	zielony	green	hit	n/a
4.5048	n/a	RESPONSE	n/a	n/a	n/a	n/a	n/a	n/a	n/a	green
4.5363	0.5167	FEEDBACK	n/a	n/a	n/a	n/a	n/a	n/a	n/a	n/a
5.053	1.0167	ITI	n/a	n/a	n/a	n/a	n/a	n/a	n/a	n/a
6.0697	0.5167	FIXCROSS	n/a	n/a	n/a	n/a	n/a	n/a	n/a	n/a
6.5864	3.8334	T_INK	2	Neutral	xxxxx	xxxxx	zielony	green	hit	n/a
10.3835	n/a	RESPONSE	n/a	n/a	n/a	n/a	n/a	n/a	n/a	green
10.4197	0.5167	FEEDBACK	n/a	n/a	n/a	n/a	n/a	n/a	n/a	n/a
10.9364	1.0167	ITI	n/a	n/a	n/a	n/a	n/a	n/a	n/a	n/a
11.9531	0.5167	FIXCROSS	n/a	n/a	n/a	n/a	n/a	n/a	n/a	n/a
12.4697	1.8	T_INK	3	Incongruent	żółty	yellow	zielony	green	hit	n/a
14.2334	n/a	RESPONSE	n/a	n/a	n/a	n/a	n/a	n/a	n/a	green
14.2698	0.5167	FEEDBACK	n/a	n/a	n/a	n/a	n/a	n/a	n/a	n/a
14.7864	1.0167	ITI	n/a	n/a	n/a	n/a	n/a	n/a	n/a	n/a
15.8031	0.5167	FIXCROSS	n/a	n/a	n/a	n/a	n/a	n/a	n/a	n/a
16.3198	2.0833	T_INK	4	Incongruent	zielony	green	czerwony	red	hit	n/a
18.3709	n/a	RESPONSE	n/a	n/a	n/a	n/a	n/a	n/a	n/a	red
18.4031	0.5167	FEEDBACK	n/a	n/a	n/a	n/a	n/a	n/a	n/a	n/a
18.9198	1.0167	ITI	n/a	n/a	n/a	n/a	n/a	n/a	n/a	n/a
19.9365	0.5167	FIXCROSS	n/a	n/a	n/a	n/a	n/a	n/a	n/a	n/a
20.4532	0.6667	T_INK	5	Neutral	xxxxxxx	xxxxxxx	czerwony	red	hit	n/a
21.0865	n/a	RESPONSE	n/a	n/a	n/a	n/a	n/a	n/a	n/a	red
21.1198	0.5167	FEEDBACK	n/a	n/a	n/a	n/a	n/a	n/a	n/a	n/a
21.6365	1.0167	ITI	n/a	n/a	n/a	n/a	n/a	n/a	n/a	n/a
22.6532	0.5167	FIXCROSS	n/a	n/a	n/a	n/a	n/a	n/a	n/a	n/a
23.1698	1.35	T_INK	6	Neutral	xxxxxxx	xxxxxxx	niebieski	blue	hit	n/a
24.4891	n/a	RESPONSE	n/a	n/a	n/a	n/a	n/a	n/a	n/a	blue
24.5198	0.5167	FEEDBACK	n/a	n/a	n/a	n/a	n/a	n/a	n/a	n/a
25.0365	1.0167	ITI	n/a	n/a	n/a	n/a	n/a	n/a	n/a	n/a
26.0532	0.5167	FIXCROSS	n/a	n/a	n/a	n/a	n/a	n/a	n/a	n/a
26.5699	2.05	T_INK	7	Incongruent	zielony	green	żółty	yellow	hit	n/a
28.5947	n/a	RESPONSE	n/a	n/a	n/a	n/a	n/a	n/a	n/a	yellow
28.6199	0.5167	FEEDBACK	n/a	n/a	n/a	n/a	n/a	n/a	n/a	n/a
29.1366	1.0167	ITI	n/a	n/a	n/a	n/a	n/a	n/a	n/a	n/a
30.1532	0.5167	FIXCROSS	n/a	n/a	n/a	n/a	n/a	n/a	n/a	n/a
30.6699	1.2667	T_INK	8	Neutral	xxxxx	xxxxx	niebieski	blue	hit	n/a
31.9174	n/a	RESPONSE	n/a	n/a	n/a	n/a	n/a	n/a	n/a	blue
31.9366	0.5167	FEEDBACK	n/a	n/a	n/a	n/a	n/a	n/a	n/a	n/a
32.4532	1.0167	ITI	n/a	n/a	n/a	n/a	n/a	n/a	n/a	n/a
33.4699	0.5167	FIXCROSS	n/a	n/a	n/a	n/a	n/a	n/a	n/a	n/a
33.9866	0.6167	T_INK	9	Neutral	xxxxxxx	xxxxxxx	żółty	yellow	hit	n/a
34.5691	n/a	RESPONSE	n/a	n/a	n/a	n/a	n/a	n/a	n/a	yellow
34.6033	0.5167	FEEDBACK	n/a	n/a	n/a	n/a	n/a	n/a	n/a	n/a
35.1199	1.0167	ITI	n/a	n/a	n/a	n/a	n/a	n/a	n/a	n/a
36.1366	0.5167	FIXCROSS	n/a	n/a	n/a	n/a	n/a	n/a	n/a	n/a
36.6533	0.55	T_INK	10	Neutral	xxxxxxxx	xxxxxxxx	żółty	yellow	hit	n/a
37.1729	n/a	RESPONSE	n/a	n/a	n/a	n/a	n/a	n/a	n/a	yellow
37.2033	0.5167	FEEDBACK	n/a	n/a	n/a	n/a	n/a	n/a	n/a	n/a
37.72	1.0167	ITI	n/a	n/a	n/a	n/a	n/a	n/a	n/a	n/a
38.7366	0.5167	FIXCROSS	n/a	n/a	n/a	n/a	n/a	n/a	n/a	n/a
39.2533	0.7833	T_INK	11	Neutral	xxxxx	xxxxx	czerwony	red	hit	n/a
40.0165	n/a	RESPONSE	n/a	n/a	n/a	n/a	n/a	n/a	n/a	red
40.0366	0.5167	FEEDBACK	n/a	n/a	n/a	n/a	n/a	n/a	n/a	n/a
40.5533	1.0167	ITI	n/a	n/a	n/a	n/a	n/a	n/a	n/a	n/a
41.57	0.5167	FIXCROSS	n/a	n/a	n/a	n/a	n/a	n/a	n/a	n/a
42.0867	0.55	T_INK	12	Neutral	xxxxxxxxx	xxxxxxxxx	czerwony	red	hit	n/a
42.6044	n/a	RESPONSE	n/a	n/a	n/a	n/a	n/a	n/a	n/a	red
42.6367	0.5167	FEEDBACK	n/a	n/a	n/a	n/a	n/a	n/a	n/a	n/a
43.1533	1.0333	ITI	n/a	n/a	n/a	n/a	n/a	n/a	n/a	n/a
48.8823	n/a	RESPONSE	n/a	n/a	n/a	n/a	n/a	n/a	n/a	n/a
48.9367	1.0167	ITI	n/a	n/a	n/a	n/a	n/a	n/a	n/a	n/a
49.9534	0.5167	FIXCROSS	n/a	n/a	n/a	n/a	n/a	n/a	n/a	n/a
50.4701	1.4334	INK	1	Incongruent	żółty	yellow	zielony	green	hit	n/a
51.8695	n/a	RESPONSE	n/a	n/a	n/a	n/a	n/a	n/a	n/a	green
51.9034	1.0167	ITI	n/a	n/a	n/a	n/a	n/a	n/a	n/a	n/a
52.9201	0.5167	FIXCROSS	n/a	n/a	n/a	n/a	n/a	n/a	n/a	n/a
53.4368	0.5667	INK	2	Neutral	xxxxxxx	xxxxxxx	czerwony	red	hit	n/a
53.9783	n/a	RESPONSE	n/a	n/a	n/a	n/a	n/a	n/a	n/a	red
54.0034	1.0167	ITI	n/a	n/a	n/a	n/a	n/a	n/a	n/a	n/a
55.0201	0.5167	FIXCROSS	n/a	n/a	n/a	n/a	n/a	n/a	n/a	n/a
55.5368	0.95	INK	3	Neutral	xxxxxxxx	xxxxxxxx	niebieski	blue	hit	n/a
56.4544	n/a	RESPONSE	n/a	n/a	n/a	n/a	n/a	n/a	n/a	blue
56.4868	1.0167	ITI	n/a	n/a	n/a	n/a	n/a	n/a	n/a	n/a
57.5035	0.5167	FIXCROSS	n/a	n/a	n/a	n/a	n/a	n/a	n/a	n/a
58.0201	0.9167	INK	4	Incongruent	żółty	yellow	czerwony	red	hit	n/a
58.9143	n/a	RESPONSE	n/a	n/a	n/a	n/a	n/a	n/a	n/a	red
58.9368	1.0167	ITI	n/a	n/a	n/a	n/a	n/a	n/a	n/a	n/a
59.9535	0.5167	FIXCROSS	n/a	n/a	n/a	n/a	n/a	n/a	n/a	n/a
60.4702	0.55	INK	5	Neutral	xxxxxxx	xxxxxxx	żółty	yellow	hit	n/a
60.9911	n/a	RESPONSE	n/a	n/a	n/a	n/a	n/a	n/a	n/a	yellow
61.0202	1.0167	ITI	n/a	n/a	n/a	n/a	n/a	n/a	n/a	n/a
62.0368	0.5167	FIXCROSS	n/a	n/a	n/a	n/a	n/a	n/a	n/a	n/a
62.5535	1.1	INK	6	Incongruent	niebieski	blue	żółty	yellow	incorrect	n/a
63.6269	n/a	RESPONSE	n/a	n/a	n/a	n/a	n/a	n/a	n/a	blue
63.6535	1.0167	ITI	n/a	n/a	n/a	n/a	n/a	n/a	n/a	n/a
64.6702	0.5167	FIXCROSS	n/a	n/a	n/a	n/a	n/a	n/a	n/a	n/a
65.1869	0.8833	INK	7	Incongruent	żółty	yellow	zielony	green	hit	n/a
66.0391	n/a	RESPONSE	n/a	n/a	n/a	n/a	n/a	n/a	n/a	green
66.0702	1.0167	ITI	n/a	n/a	n/a	n/a	n/a	n/a	n/a	n/a
67.0869	0.5167	FIXCROSS	n/a	n/a	n/a	n/a	n/a	n/a	n/a	n/a
67.6036	1.0	INK	8	Incongruent	zielony	green	niebieski	blue	hit	n/a
68.579	n/a	RESPONSE	n/a	n/a	n/a	n/a	n/a	n/a	n/a	blue
68.6036	1.0167	ITI	n/a	n/a	n/a	n/a	n/a	n/a	n/a	n/a
69.6202	0.5167	FIXCROSS	n/a	n/a	n/a	n/a	n/a	n/a	n/a	n/a
70.1369	0.6667	INK	9	Neutral	xxxxxxxxx	xxxxxxxxx	czerwony	red	hit	n/a
70.7833	n/a	RESPONSE	n/a	n/a	n/a	n/a	n/a	n/a	n/a	red
70.8036	1.0167	ITI	n/a	n/a	n/a	n/a	n/a	n/a	n/a	n/a
71.8203	0.5167	FIXCROSS	n/a	n/a	n/a	n/a	n/a	n/a	n/a	n/a
72.3369	0.75	INK	10	Neutral	xxxxxxxxx	xxxxxxxxx	żółty	yellow	hit	n/a
73.0677	n/a	RESPONSE	n/a	n/a	n/a	n/a	n/a	n/a	n/a	yellow
73.0869	1.0167	ITI	n/a	n/a	n/a	n/a	n/a	n/a	n/a	n/a
74.1036	0.5167	FIXCROSS	n/a	n/a	n/a	n/a	n/a	n/a	n/a	n/a
74.6203	1.1	INK	11	Incongruent	zielony	green	niebieski	blue	hit	n/a
75.6877	n/a	RESPONSE	n/a	n/a	n/a	n/a	n/a	n/a	n/a	blue
75.7203	1.0167	ITI	n/a	n/a	n/a	n/a	n/a	n/a	n/a	n/a
76.737	0.5167	FIXCROSS	n/a	n/a	n/a	n/a	n/a	n/a	n/a	n/a
77.2536	0.6333	INK	12	Neutral	xxxxx	xxxxx	czerwony	red	hit	n/a
77.8602	n/a	RESPONSE	n/a	n/a	n/a	n/a	n/a	n/a	n/a	red
77.887	1.0167	ITI	n/a	n/a	n/a	n/a	n/a	n/a	n/a	n/a
78.9037	0.5167	FIXCROSS	n/a	n/a	n/a	n/a	n/a	n/a	n/a	n/a
79.4203	0.7167	INK	13	Neutral	xxxxxxxxx	xxxxxxxxx	żółty	yellow	hit	n/a
80.1127	n/a	RESPONSE	n/a	n/a	n/a	n/a	n/a	n/a	n/a	yellow
80.137	1.0167	ITI	n/a	n/a	n/a	n/a	n/a	n/a	n/a	n/a
81.1537	0.5167	FIXCROSS	n/a	n/a	n/a	n/a	n/a	n/a	n/a	n/a
81.6703	0.9	INK	14	Neutral	xxxxxxxx	xxxxxxxx	niebieski	blue	hit	n/a
82.541	n/a	RESPONSE	n/a	n/a	n/a	n/a	n/a	n/a	n/a	blue
82.5703	1.0167	ITI	n/a	n/a	n/a	n/a	n/a	n/a	n/a	n/a
83.587	0.5167	FIXCROSS	n/a	n/a	n/a	n/a	n/a	n/a	n/a	n/a
84.1037	0.6667	INK	15	Neutral	xxxxxxxxx	xxxxxxxxx	zielony	green	hit	n/a
84.7455	n/a	RESPONSE	n/a	n/a	n/a	n/a	n/a	n/a	n/a	green
84.7704	1.0167	ITI	n/a	n/a	n/a	n/a	n/a	n/a	n/a	n/a
85.787	0.5167	FIXCROSS	n/a	n/a	n/a	n/a	n/a	n/a	n/a	n/a
86.3037	0.6834	INK	16	Neutral	xxxxx	xxxxx	zielony	green	hit	n/a
86.966	n/a	RESPONSE	n/a	n/a	n/a	n/a	n/a	n/a	n/a	green
86.9871	1.0167	ITI	n/a	n/a	n/a	n/a	n/a	n/a	n/a	n/a
88.0037	0.5167	FIXCROSS	n/a	n/a	n/a	n/a	n/a	n/a	n/a	n/a
88.5204	0.6833	INK	17	Incongruent	żółty	yellow	niebieski	blue	hit	n/a
89.1705	n/a	RESPONSE	n/a	n/a	n/a	n/a	n/a	n/a	n/a	blue
89.2037	1.0167	ITI	n/a	n/a	n/a	n/a	n/a	n/a	n/a	n/a
90.2204	0.5167	FIXCROSS	n/a	n/a	n/a	n/a	n/a	n/a	n/a	n/a
90.7371	0.75	INK	18	Neutral	xxxxx	xxxxx	zielony	green	hit	n/a
91.455	n/a	RESPONSE	n/a	n/a	n/a	n/a	n/a	n/a	n/a	green
91.4871	1.0167	ITI	n/a	n/a	n/a	n/a	n/a	n/a	n/a	n/a
92.5038	0.5167	FIXCROSS	n/a	n/a	n/a	n/a	n/a	n/a	n/a	n/a
93.0204	0.65	INK	19	Neutral	xxxxxxxx	xxxxxxxx	żółty	yellow	hit	n/a
93.6436	n/a	RESPONSE	n/a	n/a	n/a	n/a	n/a	n/a	n/a	yellow
93.6704	1.0167	ITI	n/a	n/a	n/a	n/a	n/a	n/a	n/a	n/a
94.6871	0.5167	FIXCROSS	n/a	n/a	n/a	n/a	n/a	n/a	n/a	n/a
95.2038	0.8667	INK	20	Neutral	xxxxxxxxx	xxxxxxxxx	zielony	green	hit	n/a
96.0398	n/a	RESPONSE	n/a	n/a	n/a	n/a	n/a	n/a	n/a	green
96.0705	1.0167	ITI	n/a	n/a	n/a	n/a	n/a	n/a	n/a	n/a
97.0871	0.5167	FIXCROSS	n/a	n/a	n/a	n/a	n/a	n/a	n/a	n/a
97.6038	0.5333	INK	21	Neutral	xxxxxxx	xxxxxxx	niebieski	blue	hit	n/a
98.1165	n/a	RESPONSE	n/a	n/a	n/a	n/a	n/a	n/a	n/a	blue
98.1371	1.0167	ITI	n/a	n/a	n/a	n/a	n/a	n/a	n/a	n/a
99.1538	0.5167	FIXCROSS	n/a	n/a	n/a	n/a	n/a	n/a	n/a	n/a
99.6705	0.55	INK	22	Incongruent	niebieski	blue	żółty	yellow	hit	n/a
100.1932	n/a	RESPONSE	n/a	n/a	n/a	n/a	n/a	n/a	n/a	yellow
100.2205	1.0167	ITI	n/a	n/a	n/a	n/a	n/a	n/a	n/a	n/a
101.2372	0.5167	FIXCROSS	n/a	n/a	n/a	n/a	n/a	n/a	n/a	n/a
101.7538	0.65	INK	23	Neutral	xxxxx	xxxxx	zielony	green	hit	n/a
102.3819	n/a	RESPONSE	n/a	n/a	n/a	n/a	n/a	n/a	n/a	green
102.4038	1.0167	ITI	n/a	n/a	n/a	n/a	n/a	n/a	n/a	n/a
103.4205	0.5167	FIXCROSS	n/a	n/a	n/a	n/a	n/a	n/a	n/a	n/a
103.9372	0.95	INK	24	Incongruent	niebieski	blue	czerwony	red	hit	n/a
104.8579	n/a	RESPONSE	n/a	n/a	n/a	n/a	n/a	n/a	n/a	red
104.8872	1.0167	ITI	n/a	n/a	n/a	n/a	n/a	n/a	n/a	n/a
105.9039	0.5167	FIXCROSS	n/a	n/a	n/a	n/a	n/a	n/a	n/a	n/a
106.4205	0.65	INK	25	Incongruent	zielony	green	czerwony	red	hit	n/a
107.0465	n/a	RESPONSE	n/a	n/a	n/a	n/a	n/a	n/a	n/a	red
107.0705	1.0167	ITI	n/a	n/a	n/a	n/a	n/a	n/a	n/a	n/a
108.0872	0.5167	FIXCROSS	n/a	n/a	n/a	n/a	n/a	n/a	n/a	n/a
108.6039	0.6667	INK	26	Neutral	xxxxxxx	xxxxxxx	niebieski	blue	hit	n/a
109.2512	n/a	RESPONSE	n/a	n/a	n/a	n/a	n/a	n/a	n/a	blue
109.2706	1.0167	ITI	n/a	n/a	n/a	n/a	n/a	n/a	n/a	n/a
110.2872	0.5167	FIXCROSS	n/a	n/a	n/a	n/a	n/a	n/a	n/a	n/a
110.8039	0.6167	INK	27	Incongruent	czerwony	red	niebieski	blue	hit	n/a
111.3918	n/a	RESPONSE	n/a	n/a	n/a	n/a	n/a	n/a	n/a	blue
111.4206	1.0167	ITI	n/a	n/a	n/a	n/a	n/a	n/a	n/a	n/a
112.4373	0.5167	FIXCROSS	n/a	n/a	n/a	n/a	n/a	n/a	n/a	n/a
112.9539	0.85	INK	28	Incongruent	żółty	yellow	czerwony	red	hit	n/a
113.7721	n/a	RESPONSE	n/a	n/a	n/a	n/a	n/a	n/a	n/a	red
113.8039	1.0167	ITI	n/a	n/a	n/a	n/a	n/a	n/a	n/a	n/a
114.8206	0.5167	FIXCROSS	n/a	n/a	n/a	n/a	n/a	n/a	n/a	n/a
115.3373	0.5167	INK	29	Incongruent	zielony	green	czerwony	red	hit	n/a
115.8328	n/a	RESPONSE	n/a	n/a	n/a	n/a	n/a	n/a	n/a	red
115.854	1.0167	ITI	n/a	n/a	n/a	n/a	n/a	n/a	n/a	n/a
116.8706	0.5167	FIXCROSS	n/a	n/a	n/a	n/a	n/a	n/a	n/a	n/a
117.3873	0.4333	INK	30	Incongruent	żółty	yellow	czerwony	red	hit	n/a
117.7977	n/a	RESPONSE	n/a	n/a	n/a	n/a	n/a	n/a	n/a	red
117.8206	1.0167	ITI	n/a	n/a	n/a	n/a	n/a	n/a	n/a	n/a
118.8373	0.5167	FIXCROSS	n/a	n/a	n/a	n/a	n/a	n/a	n/a	n/a
119.354	0.9	INK	31	Incongruent	niebieski	blue	zielony	green	hit	n/a
120.2259	n/a	RESPONSE	n/a	n/a	n/a	n/a	n/a	n/a	n/a	green
120.254	1.0167	ITI	n/a	n/a	n/a	n/a	n/a	n/a	n/a	n/a
121.2707	0.5167	FIXCROSS	n/a	n/a	n/a	n/a	n/a	n/a	n/a	n/a
121.7873	0.7667	INK	32	Neutral	xxxxx	xxxxx	niebieski	blue	hit	n/a
122.5263	n/a	RESPONSE	n/a	n/a	n/a	n/a	n/a	n/a	n/a	blue
122.554	1.0167	ITI	n/a	n/a	n/a	n/a	n/a	n/a	n/a	n/a
123.5707	0.5167	FIXCROSS	n/a	n/a	n/a	n/a	n/a	n/a	n/a	n/a
124.0874	0.5833	INK	33	Incongruent	niebieski	blue	żółty	yellow	hit	n/a
124.6508	n/a	RESPONSE	n/a	n/a	n/a	n/a	n/a	n/a	n/a	yellow
124.6707	1.0167	ITI	n/a	n/a	n/a	n/a	n/a	n/a	n/a	n/a
125.6874	0.5167	FIXCROSS	n/a	n/a	n/a	n/a	n/a	n/a	n/a	n/a
126.204	0.9333	INK	34	Incongruent	niebieski	blue	czerwony	red	hit	n/a
127.1109	n/a	RESPONSE	n/a	n/a	n/a	n/a	n/a	n/a	n/a	red
127.1374	1.0167	ITI	n/a	n/a	n/a	n/a	n/a	n/a	n/a	n/a
128.1541	0.5167	FIXCROSS	n/a	n/a	n/a	n/a	n/a	n/a	n/a	n/a
128.6707	0.5667	INK	35	Neutral	xxxxxxxxx	xxxxxxxxx	czerwony	red	hit	n/a
129.2194	n/a	RESPONSE	n/a	n/a	n/a	n/a	n/a	n/a	n/a	red
129.2374	1.0167	ITI	n/a	n/a	n/a	n/a	n/a	n/a	n/a	n/a
130.2541	0.5167	FIXCROSS	n/a	n/a	n/a	n/a	n/a	n/a	n/a	n/a
130.7707	0.5833	INK	36	Incongruent	zielony	green	żółty	yellow	hit	n/a
131.328	n/a	RESPONSE	n/a	n/a	n/a	n/a	n/a	n/a	n/a	yellow
131.3541	1.0167	ITI	n/a	n/a	n/a	n/a	n/a	n/a	n/a	n/a
132.3708	0.5167	FIXCROSS	n/a	n/a	n/a	n/a	n/a	n/a	n/a	n/a
132.8874	0.7167	INK	37	Neutral	xxxxxxx	xxxxxxx	niebieski	blue	hit	n/a
133.5805	n/a	RESPONSE	n/a	n/a	n/a	n/a	n/a	n/a	n/a	blue
133.6041	1.0167	ITI	n/a	n/a	n/a	n/a	n/a	n/a	n/a	n/a
134.6208	0.5167	FIXCROSS	n/a	n/a	n/a	n/a	n/a	n/a	n/a	n/a
135.1374	0.5667	INK	38	Neutral	xxxxx	xxxxx	niebieski	blue	hit	n/a
135.6732	n/a	RESPONSE	n/a	n/a	n/a	n/a	n/a	n/a	n/a	blue
135.7041	1.0167	ITI	n/a	n/a	n/a	n/a	n/a	n/a	n/a	n/a
136.7208	0.5167	FIXCROSS	n/a	n/a	n/a	n/a	n/a	n/a	n/a	n/a
137.2375	0.55	INK	39	Neutral	xxxxx	xxxxx	niebieski	blue	hit	n/a
137.766	n/a	RESPONSE	n/a	n/a	n/a	n/a	n/a	n/a	n/a	blue
137.7875	1.0167	ITI	n/a	n/a	n/a	n/a	n/a	n/a	n/a	n/a
138.8041	0.5167	FIXCROSS	n/a	n/a	n/a	n/a	n/a	n/a	n/a	n/a
139.3208	0.5	INK	40	Neutral	xxxxxxxx	xxxxxxxx	zielony	green	hit	n/a
139.7948	n/a	RESPONSE	n/a	n/a	n/a	n/a	n/a	n/a	n/a	green
139.8208	1.0167	ITI	n/a	n/a	n/a	n/a	n/a	n/a	n/a	n/a
140.8375	0.5167	FIXCROSS	n/a	n/a	n/a	n/a	n/a	n/a	n/a	n/a
141.3542	1.1	INK	41	Incongruent	żółty	yellow	zielony	green	hit	n/a
142.4307	n/a	RESPONSE	n/a	n/a	n/a	n/a	n/a	n/a	n/a	green
142.4542	1.0167	ITI	n/a	n/a	n/a	n/a	n/a	n/a	n/a	n/a
143.4708	0.5167	FIXCROSS	n/a	n/a	n/a	n/a	n/a	n/a	n/a	n/a
143.9875	0.4333	INK	42	Neutral	xxxxxxxxx	xxxxxxxxx	żółty	yellow	hit	n/a
144.3955	n/a	RESPONSE	n/a	n/a	n/a	n/a	n/a	n/a	n/a	yellow
144.4209	1.0167	ITI	n/a	n/a	n/a	n/a	n/a	n/a	n/a	n/a
145.4375	0.5167	FIXCROSS	n/a	n/a	n/a	n/a	n/a	n/a	n/a	n/a
145.9542	0.8167	INK	43	Neutral	xxxxxxx	xxxxxxx	czerwony	red	hit	n/a
146.7437	n/a	RESPONSE	n/a	n/a	n/a	n/a	n/a	n/a	n/a	red
146.7709	1.0167	ITI	n/a	n/a	n/a	n/a	n/a	n/a	n/a	n/a
147.7876	0.5167	FIXCROSS	n/a	n/a	n/a	n/a	n/a	n/a	n/a	n/a
148.3042	0.5167	INK	44	Incongruent	zielony	green	czerwony	red	hit	n/a
148.7886	n/a	RESPONSE	n/a	n/a	n/a	n/a	n/a	n/a	n/a	red
148.8209	1.0167	ITI	n/a	n/a	n/a	n/a	n/a	n/a	n/a	n/a
149.8376	0.5167	FIXCROSS	n/a	n/a	n/a	n/a	n/a	n/a	n/a	n/a
150.3542	0.9667	INK	45	Incongruent	niebieski	blue	zielony	green	hit	n/a
151.2966	n/a	RESPONSE	n/a	n/a	n/a	n/a	n/a	n/a	n/a	green
151.3209	1.0167	ITI	n/a	n/a	n/a	n/a	n/a	n/a	n/a	n/a
152.3376	0.5167	FIXCROSS	n/a	n/a	n/a	n/a	n/a	n/a	n/a	n/a
152.8543	0.9	INK	46	Incongruent	czerwony	red	żółty	yellow	hit	n/a
153.7247	n/a	RESPONSE	n/a	n/a	n/a	n/a	n/a	n/a	n/a	yellow
153.7543	1.0167	ITI	n/a	n/a	n/a	n/a	n/a	n/a	n/a	n/a
154.7709	0.5167	FIXCROSS	n/a	n/a	n/a	n/a	n/a	n/a	n/a	n/a
155.2876	1.0167	INK	47	Incongruent	niebieski	blue	czerwony	red	hit	n/a
156.2806	n/a	RESPONSE	n/a	n/a	n/a	n/a	n/a	n/a	n/a	red
156.3043	1.0167	ITI	n/a	n/a	n/a	n/a	n/a	n/a	n/a	n/a
157.321	0.5167	FIXCROSS	n/a	n/a	n/a	n/a	n/a	n/a	n/a	n/a
157.8376	0.6	INK	48	Incongruent	czerwony	red	niebieski	blue	hit	n/a
158.4052	n/a	RESPONSE	n/a	n/a	n/a	n/a	n/a	n/a	n/a	blue
158.4376	1.0167	ITI	n/a	n/a	n/a	n/a	n/a	n/a	n/a	n/a
159.4543	0.5167	FIXCROSS	n/a	n/a	n/a	n/a	n/a	n/a	n/a	n/a
159.971	0.6	INK	49	Neutral	xxxxxxx	xxxxxxx	żółty	yellow	incorrect	n/a
160.5458	n/a	RESPONSE	n/a	n/a	n/a	n/a	n/a	n/a	n/a	red
160.571	1.0167	ITI	n/a	n/a	n/a	n/a	n/a	n/a	n/a	n/a
161.5877	0.5167	FIXCROSS	n/a	n/a	n/a	n/a	n/a	n/a	n/a	n/a
162.1043	0.9333	INK	50	Incongruent	czerwony	red	zielony	green	hit	n/a
163.0059	n/a	RESPONSE	n/a	n/a	n/a	n/a	n/a	n/a	n/a	green
163.0377	1.0167	ITI	n/a	n/a	n/a	n/a	n/a	n/a	n/a	n/a
164.0544	0.5167	FIXCROSS	n/a	n/a	n/a	n/a	n/a	n/a	n/a	n/a
164.571	1.0	INK	51	Incongruent	czerwony	red	zielony	green	hit	n/a
165.5459	n/a	RESPONSE	n/a	n/a	n/a	n/a	n/a	n/a	n/a	green
165.571	1.0167	ITI	n/a	n/a	n/a	n/a	n/a	n/a	n/a	n/a
166.5877	0.5167	FIXCROSS	n/a	n/a	n/a	n/a	n/a	n/a	n/a	n/a
167.1044	0.9833	INK	52	Incongruent	żółty	yellow	niebieski	blue	hit	n/a
168.0698	n/a	RESPONSE	n/a	n/a	n/a	n/a	n/a	n/a	n/a	blue
168.0877	1.0167	ITI	n/a	n/a	n/a	n/a	n/a	n/a	n/a	n/a
169.1044	0.5167	FIXCROSS	n/a	n/a	n/a	n/a	n/a	n/a	n/a	n/a
169.6211	0.4833	INK	53	Neutral	xxxxxxxx	xxxxxxxx	żółty	yellow	hit	n/a
170.0827	n/a	RESPONSE	n/a	n/a	n/a	n/a	n/a	n/a	n/a	yellow
170.1044	1.0167	ITI	n/a	n/a	n/a	n/a	n/a	n/a	n/a	n/a
171.1211	0.5167	FIXCROSS	n/a	n/a	n/a	n/a	n/a	n/a	n/a	n/a
171.6378	0.6333	INK	54	Neutral	xxxxxxxx	xxxxxxxx	niebieski	blue	hit	n/a
172.2393	n/a	RESPONSE	n/a	n/a	n/a	n/a	n/a	n/a	n/a	blue
172.2711	1.0167	ITI	n/a	n/a	n/a	n/a	n/a	n/a	n/a	n/a
173.2878	0.5167	FIXCROSS	n/a	n/a	n/a	n/a	n/a	n/a	n/a	n/a
173.8044	0.4667	INK	55	Incongruent	czerwony	red	niebieski	blue	hit	n/a
174.2521	n/a	RESPONSE	n/a	n/a	n/a	n/a	n/a	n/a	n/a	blue
174.2711	1.0167	ITI	n/a	n/a	n/a	n/a	n/a	n/a	n/a	n/a
175.2878	0.5167	FIXCROSS	n/a	n/a	n/a	n/a	n/a	n/a	n/a	n/a
175.8045	0.65	INK	56	Incongruent	zielony	green	niebieski	blue	hit	n/a
176.4247	n/a	RESPONSE	n/a	n/a	n/a	n/a	n/a	n/a	n/a	blue
176.4545	1.0167	ITI	n/a	n/a	n/a	n/a	n/a	n/a	n/a	n/a
177.4711	0.5167	FIXCROSS	n/a	n/a	n/a	n/a	n/a	n/a	n/a	n/a
177.9878	0.5833	INK	57	Incongruent	czerwony	red	żółty	yellow	hit	n/a
178.5492	n/a	RESPONSE	n/a	n/a	n/a	n/a	n/a	n/a	n/a	yellow
178.5711	1.0167	ITI	n/a	n/a	n/a	n/a	n/a	n/a	n/a	n/a
179.5878	0.5167	FIXCROSS	n/a	n/a	n/a	n/a	n/a	n/a	n/a	n/a
180.1045	0.7	INK	58	Incongruent	żółty	yellow	niebieski	blue	hit	n/a
180.7857	n/a	RESPONSE	n/a	n/a	n/a	n/a	n/a	n/a	n/a	blue
180.8045	1.0167	ITI	n/a	n/a	n/a	n/a	n/a	n/a	n/a	n/a
181.8212	0.5167	FIXCROSS	n/a	n/a	n/a	n/a	n/a	n/a	n/a	n/a
182.3378	0.8167	INK	59	Neutral	xxxxx	xxxxx	czerwony	red	hit	n/a
183.1339	n/a	RESPONSE	n/a	n/a	n/a	n/a	n/a	n/a	n/a	red
183.1545	1.0167	ITI	n/a	n/a	n/a	n/a	n/a	n/a	n/a	n/a
184.1712	0.5167	FIXCROSS	n/a	n/a	n/a	n/a	n/a	n/a	n/a	n/a
184.6879	0.55	INK	60	Neutral	xxxxx	xxxxx	czerwony	red	hit	n/a
185.2107	n/a	RESPONSE	n/a	n/a	n/a	n/a	n/a	n/a	n/a	red
185.2379	1.0167	ITI	n/a	n/a	n/a	n/a	n/a	n/a	n/a	n/a
186.2545	0.5167	FIXCROSS	n/a	n/a	n/a	n/a	n/a	n/a	n/a	n/a
186.7712	0.6333	INK	61	Incongruent	czerwony	red	zielony	green	hit	n/a
187.3833	n/a	RESPONSE	n/a	n/a	n/a	n/a	n/a	n/a	n/a	green
187.4045	1.0167	ITI	n/a	n/a	n/a	n/a	n/a	n/a	n/a	n/a
188.4212	0.5167	FIXCROSS	n/a	n/a	n/a	n/a	n/a	n/a	n/a	n/a
188.9379	0.5833	INK	62	Neutral	xxxxxxx	xxxxxxx	żółty	yellow	hit	n/a
189.4919	n/a	RESPONSE	n/a	n/a	n/a	n/a	n/a	n/a	n/a	yellow
189.5212	1.0167	ITI	n/a	n/a	n/a	n/a	n/a	n/a	n/a	n/a
190.5379	0.5167	FIXCROSS	n/a	n/a	n/a	n/a	n/a	n/a	n/a	n/a
191.0546	0.6333	INK	63	Neutral	xxxxxxx	xxxxxxx	czerwony	red	hit	n/a
191.6643	n/a	RESPONSE	n/a	n/a	n/a	n/a	n/a	n/a	n/a	red
191.6879	1.0167	ITI	n/a	n/a	n/a	n/a	n/a	n/a	n/a	n/a
192.7046	0.5167	FIXCROSS	n/a	n/a	n/a	n/a	n/a	n/a	n/a	n/a
193.2213	0.6	INK	64	Neutral	xxxxxxxx	xxxxxxxx	żółty	yellow	hit	n/a
193.7891	n/a	RESPONSE	n/a	n/a	n/a	n/a	n/a	n/a	n/a	yellow
193.8213	1.0167	ITI	n/a	n/a	n/a	n/a	n/a	n/a	n/a	n/a
194.8379	0.5167	FIXCROSS	n/a	n/a	n/a	n/a	n/a	n/a	n/a	n/a
195.3546	0.75	INK	65	Neutral	xxxxxxxx	xxxxxxxx	zielony	green	hit	n/a
196.0734	n/a	RESPONSE	n/a	n/a	n/a	n/a	n/a	n/a	n/a	green
196.1046	1.0167	ITI	n/a	n/a	n/a	n/a	n/a	n/a	n/a	n/a
197.1213	0.5167	FIXCROSS	n/a	n/a	n/a	n/a	n/a	n/a	n/a	n/a
197.638	0.6333	INK	66	Incongruent	zielony	green	żółty	yellow	hit	n/a
198.246	n/a	RESPONSE	n/a	n/a	n/a	n/a	n/a	n/a	n/a	yellow
198.2713	1.0166	ITI	n/a	n/a	n/a	n/a	n/a	n/a	n/a	n/a
199.288	0.5167	FIXCROSS	n/a	n/a	n/a	n/a	n/a	n/a	n/a	n/a
199.8046	0.7167	INK	67	Neutral	xxxxxxxx	xxxxxxxx	zielony	green	incorrect	n/a
200.4984	n/a	RESPONSE	n/a	n/a	n/a	n/a	n/a	n/a	n/a	yellow
200.5213	1.0167	ITI	n/a	n/a	n/a	n/a	n/a	n/a	n/a	n/a
201.538	0.5167	FIXCROSS	n/a	n/a	n/a	n/a	n/a	n/a	n/a	n/a
202.0547	0.8667	INK	68	Incongruent	zielony	green	żółty	yellow	hit	n/a
202.8946	n/a	RESPONSE	n/a	n/a	n/a	n/a	n/a	n/a	n/a	yellow
202.9213	1.0167	ITI	n/a	n/a	n/a	n/a	n/a	n/a	n/a	n/a
203.938	0.5167	FIXCROSS	n/a	n/a	n/a	n/a	n/a	n/a	n/a	n/a
204.4547	0.55	INK	69	Neutral	xxxxxxxxx	xxxxxxxxx	czerwony	red	hit	n/a
204.9713	n/a	RESPONSE	n/a	n/a	n/a	n/a	n/a	n/a	n/a	red
205.0047	1.0167	ITI	n/a	n/a	n/a	n/a	n/a	n/a	n/a	n/a
206.0214	0.5167	FIXCROSS	n/a	n/a	n/a	n/a	n/a	n/a	n/a	n/a
206.538	1.5167	INK	70	Incongruent	niebieski	blue	zielony	green	hit	n/a
208.0227	n/a	RESPONSE	n/a	n/a	n/a	n/a	n/a	n/a	n/a	green
208.0547	1.0167	ITI	n/a	n/a	n/a	n/a	n/a	n/a	n/a	n/a
209.0714	0.5167	FIXCROSS	n/a	n/a	n/a	n/a	n/a	n/a	n/a	n/a
209.5881	0.6	INK	71	Incongruent	czerwony	red	żółty	yellow	hit	n/a
210.1633	n/a	RESPONSE	n/a	n/a	n/a	n/a	n/a	n/a	n/a	yellow
210.1881	1.0167	ITI	n/a	n/a	n/a	n/a	n/a	n/a	n/a	n/a
211.2048	0.5167	FIXCROSS	n/a	n/a	n/a	n/a	n/a	n/a	n/a	n/a
211.7214	0.6667	INK	72	Neutral	xxxxxxxxx	xxxxxxxxx	zielony	green	incorrect	n/a
212.3678	n/a	RESPONSE	n/a	n/a	n/a	n/a	n/a	n/a	n/a	yellow
212.3881	1.0833	ITI	n/a	n/a	n/a	n/a	n/a	n/a	n/a	n/a
240.7236	n/a	RESPONSE	n/a	n/a	n/a	n/a	n/a	n/a	n/a	n/a
240.7883	1.0167	ITI	n/a	n/a	n/a	n/a	n/a	n/a	n/a	n/a
241.805	0.5167	FIXCROSS	n/a	n/a	n/a	n/a	n/a	n/a	n/a	n/a
242.3217	1.0	T_COLOR_NAME	1	Incongruent	zielony	green	czerwony	red	hit	n/a
243.2956	n/a	RESPONSE	n/a	n/a	n/a	n/a	n/a	n/a	n/a	green
243.3217	0.5167	FEEDBACK	n/a	n/a	n/a	n/a	n/a	n/a	n/a	n/a
243.8383	1.0167	ITI	n/a	n/a	n/a	n/a	n/a	n/a	n/a	n/a
244.855	0.5167	FIXCROSS	n/a	n/a	n/a	n/a	n/a	n/a	n/a	n/a
245.3717	1.0833	T_COLOR_NAME	2	Incongruent	niebieski	blue	zielony	green	hit	n/a
246.427	n/a	RESPONSE	n/a	n/a	n/a	n/a	n/a	n/a	n/a	blue
246.455	0.5167	FEEDBACK	n/a	n/a	n/a	n/a	n/a	n/a	n/a	n/a
246.9717	1.0167	ITI	n/a	n/a	n/a	n/a	n/a	n/a	n/a	n/a
247.9884	0.5167	FIXCROSS	n/a	n/a	n/a	n/a	n/a	n/a	n/a	n/a
248.505	1.1833	T_COLOR_NAME	3	Neutral	niebieski	blue	Neutral	Neutral	hit	n/a
249.6542	n/a	RESPONSE	n/a	n/a	n/a	n/a	n/a	n/a	n/a	blue
249.6884	0.5167	FEEDBACK	n/a	n/a	n/a	n/a	n/a	n/a	n/a	n/a
250.2051	1.0167	ITI	n/a	n/a	n/a	n/a	n/a	n/a	n/a	n/a
251.2217	0.5167	FIXCROSS	n/a	n/a	n/a	n/a	n/a	n/a	n/a	n/a
251.7384	0.6667	T_COLOR_NAME	4	Neutral	żółty	yellow	Neutral	Neutral	hit	n/a
252.3702	n/a	RESPONSE	n/a	n/a	n/a	n/a	n/a	n/a	n/a	yellow
252.4051	0.5167	FEEDBACK	n/a	n/a	n/a	n/a	n/a	n/a	n/a	n/a
252.9218	1.0167	ITI	n/a	n/a	n/a	n/a	n/a	n/a	n/a	n/a
253.9384	0.5167	FIXCROSS	n/a	n/a	n/a	n/a	n/a	n/a	n/a	n/a
254.4551	0.7167	T_COLOR_NAME	5	Neutral	żółty	yellow	Neutral	Neutral	hit	n/a
255.15	n/a	RESPONSE	n/a	n/a	n/a	n/a	n/a	n/a	n/a	yellow
255.1718	0.5167	FEEDBACK	n/a	n/a	n/a	n/a	n/a	n/a	n/a	n/a
255.6884	1.0167	ITI	n/a	n/a	n/a	n/a	n/a	n/a	n/a	n/a
256.7051	0.5167	FIXCROSS	n/a	n/a	n/a	n/a	n/a	n/a	n/a	n/a
257.2218	0.8333	T_COLOR_NAME	6	Neutral	czerwony	red	Neutral	Neutral	hit	n/a
258.0259	n/a	RESPONSE	n/a	n/a	n/a	n/a	n/a	n/a	n/a	red
258.0551	0.5167	FEEDBACK	n/a	n/a	n/a	n/a	n/a	n/a	n/a	n/a
258.5718	1.0167	ITI	n/a	n/a	n/a	n/a	n/a	n/a	n/a	n/a
259.5885	0.5167	FIXCROSS	n/a	n/a	n/a	n/a	n/a	n/a	n/a	n/a
260.1051	0.6333	T_COLOR_NAME	7	Neutral	żółty	yellow	Neutral	Neutral	hit	n/a
260.7098	n/a	RESPONSE	n/a	n/a	n/a	n/a	n/a	n/a	n/a	yellow
260.7385	0.5167	FEEDBACK	n/a	n/a	n/a	n/a	n/a	n/a	n/a	n/a
261.2552	1.0167	ITI	n/a	n/a	n/a	n/a	n/a	n/a	n/a	n/a
262.2718	0.5167	FIXCROSS	n/a	n/a	n/a	n/a	n/a	n/a	n/a	n/a
262.7885	0.7667	T_COLOR_NAME	8	Incongruent	zielony	green	żółty	yellow	hit	n/a
263.5217	n/a	RESPONSE	n/a	n/a	n/a	n/a	n/a	n/a	n/a	green
263.5552	0.5167	FEEDBACK	n/a	n/a	n/a	n/a	n/a	n/a	n/a	n/a
264.0718	1.0167	ITI	n/a	n/a	n/a	n/a	n/a	n/a	n/a	n/a
265.0885	0.5167	FIXCROSS	n/a	n/a	n/a	n/a	n/a	n/a	n/a	n/a
265.6052	0.6833	T_COLOR_NAME	9	Neutral	zielony	green	Neutral	Neutral	hit	n/a
266.2538	n/a	RESPONSE	n/a	n/a	n/a	n/a	n/a	n/a	n/a	green
266.2885	0.5167	FEEDBACK	n/a	n/a	n/a	n/a	n/a	n/a	n/a	n/a
266.8052	1.0167	ITI	n/a	n/a	n/a	n/a	n/a	n/a	n/a	n/a
267.8219	0.5167	FIXCROSS	n/a	n/a	n/a	n/a	n/a	n/a	n/a	n/a
268.3385	0.75	T_COLOR_NAME	10	Incongruent	żółty	yellow	zielony	green	hit	n/a
269.0656	n/a	RESPONSE	n/a	n/a	n/a	n/a	n/a	n/a	n/a	yellow
269.0885	0.5167	FEEDBACK	n/a	n/a	n/a	n/a	n/a	n/a	n/a	n/a
269.6052	1.0167	ITI	n/a	n/a	n/a	n/a	n/a	n/a	n/a	n/a
270.6219	0.5167	FIXCROSS	n/a	n/a	n/a	n/a	n/a	n/a	n/a	n/a
271.1386	0.95	T_COLOR_NAME	11	Neutral	zielony	green	Neutral	Neutral	incorrect	n/a
272.0533	n/a	RESPONSE	n/a	n/a	n/a	n/a	n/a	n/a	n/a	yellow
272.0886	0.5167	FEEDBACK	n/a	n/a	n/a	n/a	n/a	n/a	n/a	n/a
272.6052	1.0167	ITI	n/a	n/a	n/a	n/a	n/a	n/a	n/a	n/a
273.6219	0.5167	FIXCROSS	n/a	n/a	n/a	n/a	n/a	n/a	n/a	n/a
274.1386	0.8167	T_COLOR_NAME	12	Neutral	zielony	green	Neutral	Neutral	hit	n/a
274.9292	n/a	RESPONSE	n/a	n/a	n/a	n/a	n/a	n/a	n/a	green
274.9553	0.5167	FEEDBACK	n/a	n/a	n/a	n/a	n/a	n/a	n/a	n/a
275.4719	1.0333	ITI	n/a	n/a	n/a	n/a	n/a	n/a	n/a	n/a
281.8466	n/a	RESPONSE	n/a	n/a	n/a	n/a	n/a	n/a	n/a	n/a
281.9053	1.0167	ITI	n/a	n/a	n/a	n/a	n/a	n/a	n/a	n/a
282.922	0.5167	FIXCROSS	n/a	n/a	n/a	n/a	n/a	n/a	n/a	n/a
283.4387	1.25	COLOR_NAME	1	Incongruent	niebieski	blue	czerwony	red	hit	n/a
284.6584	n/a	RESPONSE	n/a	n/a	n/a	n/a	n/a	n/a	n/a	blue
284.6887	1.0167	ITI	n/a	n/a	n/a	n/a	n/a	n/a	n/a	n/a
285.7053	0.5167	FIXCROSS	n/a	n/a	n/a	n/a	n/a	n/a	n/a	n/a
286.222	1.0667	COLOR_NAME	2	Incongruent	zielony	green	żółty	yellow	hit	n/a
287.2624	n/a	RESPONSE	n/a	n/a	n/a	n/a	n/a	n/a	n/a	green
287.2887	1.0167	ITI	n/a	n/a	n/a	n/a	n/a	n/a	n/a	n/a
288.3054	0.5167	FIXCROSS	n/a	n/a	n/a	n/a	n/a	n/a	n/a	n/a
288.822	0.85	COLOR_NAME	3	Neutral	czerwony	red	Neutral	Neutral	hit	n/a
289.6428	n/a	RESPONSE	n/a	n/a	n/a	n/a	n/a	n/a	n/a	red
289.672	1.0166	ITI	n/a	n/a	n/a	n/a	n/a	n/a	n/a	n/a
290.6887	0.5167	FIXCROSS	n/a	n/a	n/a	n/a	n/a	n/a	n/a	n/a
291.2054	0.7667	COLOR_NAME	4	Neutral	niebieski	blue	Neutral	Neutral	hit	n/a
291.9431	n/a	RESPONSE	n/a	n/a	n/a	n/a	n/a	n/a	n/a	blue
291.9721	1.0167	ITI	n/a	n/a	n/a	n/a	n/a	n/a	n/a	n/a
292.9887	0.5167	FIXCROSS	n/a	n/a	n/a	n/a	n/a	n/a	n/a	n/a
293.5054	0.6167	COLOR_NAME	5	Incongruent	niebieski	blue	zielony	green	hit	n/a
294.0998	n/a	RESPONSE	n/a	n/a	n/a	n/a	n/a	n/a	n/a	blue
294.1221	1.0167	ITI	n/a	n/a	n/a	n/a	n/a	n/a	n/a	n/a
295.1388	0.5167	FIXCROSS	n/a	n/a	n/a	n/a	n/a	n/a	n/a	n/a
295.6554	0.8833	COLOR_NAME	6	Neutral	czerwony	red	Neutral	Neutral	hit	n/a
296.5121	n/a	RESPONSE	n/a	n/a	n/a	n/a	n/a	n/a	n/a	red
296.5388	1.0167	ITI	n/a	n/a	n/a	n/a	n/a	n/a	n/a	n/a
297.5554	0.5167	FIXCROSS	n/a	n/a	n/a	n/a	n/a	n/a	n/a	n/a
298.0721	0.7333	COLOR_NAME	7	Incongruent	zielony	green	żółty	yellow	incorrect	n/a
298.7804	n/a	RESPONSE	n/a	n/a	n/a	n/a	n/a	n/a	n/a	yellow
298.8055	1.0167	ITI	n/a	n/a	n/a	n/a	n/a	n/a	n/a	n/a
299.8221	0.5167	FIXCROSS	n/a	n/a	n/a	n/a	n/a	n/a	n/a	n/a
300.3388	0.9667	COLOR_NAME	8	Incongruent	czerwony	red	niebieski	blue	hit	n/a
301.2725	n/a	RESPONSE	n/a	n/a	n/a	n/a	n/a	n/a	n/a	red
301.3055	1.0167	ITI	n/a	n/a	n/a	n/a	n/a	n/a	n/a	n/a
302.3222	0.5167	FIXCROSS	n/a	n/a	n/a	n/a	n/a	n/a	n/a	n/a
302.8388	0.8333	COLOR_NAME	9	Neutral	zielony	green	Neutral	Neutral	hit	n/a
303.6527	n/a	RESPONSE	n/a	n/a	n/a	n/a	n/a	n/a	n/a	green
303.6722	1.0167	ITI	n/a	n/a	n/a	n/a	n/a	n/a	n/a	n/a
304.6888	0.5167	FIXCROSS	n/a	n/a	n/a	n/a	n/a	n/a	n/a	n/a
305.2055	0.8667	COLOR_NAME	10	Incongruent	żółty	yellow	niebieski	blue	hit	n/a
306.049	n/a	RESPONSE	n/a	n/a	n/a	n/a	n/a	n/a	n/a	yellow
306.0722	1.0167	ITI	n/a	n/a	n/a	n/a	n/a	n/a	n/a	n/a
307.0888	0.5167	FIXCROSS	n/a	n/a	n/a	n/a	n/a	n/a	n/a	n/a
307.6055	0.9834	COLOR_NAME	11	Incongruent	czerwony	red	niebieski	blue	hit	n/a
308.557	n/a	RESPONSE	n/a	n/a	n/a	n/a	n/a	n/a	n/a	red
308.5889	1.0167	ITI	n/a	n/a	n/a	n/a	n/a	n/a	n/a	n/a
309.6055	0.5167	FIXCROSS	n/a	n/a	n/a	n/a	n/a	n/a	n/a	n/a
310.1222	0.75	COLOR_NAME	12	Neutral	żółty	yellow	Neutral	Neutral	hit	n/a
310.8415	n/a	RESPONSE	n/a	n/a	n/a	n/a	n/a	n/a	n/a	yellow
310.8722	1.0167	ITI	n/a	n/a	n/a	n/a	n/a	n/a	n/a	n/a
311.8889	0.5167	FIXCROSS	n/a	n/a	n/a	n/a	n/a	n/a	n/a	n/a
312.4056	0.9167	COLOR_NAME	13	Incongruent	czerwony	red	niebieski	blue	hit	n/a
313.3016	n/a	RESPONSE	n/a	n/a	n/a	n/a	n/a	n/a	n/a	red
313.3222	1.0167	ITI	n/a	n/a	n/a	n/a	n/a	n/a	n/a	n/a
314.3389	0.5167	FIXCROSS	n/a	n/a	n/a	n/a	n/a	n/a	n/a	n/a
314.8556	0.7833	COLOR_NAME	14	Neutral	żółty	yellow	Neutral	Neutral	hit	n/a
315.618	n/a	RESPONSE	n/a	n/a	n/a	n/a	n/a	n/a	n/a	yellow
315.6389	1.0167	ITI	n/a	n/a	n/a	n/a	n/a	n/a	n/a	n/a
316.6556	0.5167	FIXCROSS	n/a	n/a	n/a	n/a	n/a	n/a	n/a	n/a
317.1723	0.9667	COLOR_NAME	15	Neutral	czerwony	red	Neutral	Neutral	hit	n/a
318.11	n/a	RESPONSE	n/a	n/a	n/a	n/a	n/a	n/a	n/a	red
318.1389	1.0167	ITI	n/a	n/a	n/a	n/a	n/a	n/a	n/a	n/a
319.1556	0.5167	FIXCROSS	n/a	n/a	n/a	n/a	n/a	n/a	n/a	n/a
319.6723	0.7333	COLOR_NAME	16	Neutral	zielony	green	Neutral	Neutral	hit	n/a
320.3785	n/a	RESPONSE	n/a	n/a	n/a	n/a	n/a	n/a	n/a	green
320.4056	1.0167	ITI	n/a	n/a	n/a	n/a	n/a	n/a	n/a	n/a
321.4223	0.5167	FIXCROSS	n/a	n/a	n/a	n/a	n/a	n/a	n/a	n/a
321.939	0.6667	COLOR_NAME	17	Incongruent	zielony	green	niebieski	blue	hit	n/a
322.583	n/a	RESPONSE	n/a	n/a	n/a	n/a	n/a	n/a	n/a	green
322.6056	1.0167	ITI	n/a	n/a	n/a	n/a	n/a	n/a	n/a	n/a
323.6223	0.5167	FIXCROSS	n/a	n/a	n/a	n/a	n/a	n/a	n/a	n/a
324.139	0.65	COLOR_NAME	18	Neutral	zielony	green	Neutral	Neutral	hit	n/a
324.7557	n/a	RESPONSE	n/a	n/a	n/a	n/a	n/a	n/a	n/a	green
324.789	1.0167	ITI	n/a	n/a	n/a	n/a	n/a	n/a	n/a	n/a
325.8057	0.5167	FIXCROSS	n/a	n/a	n/a	n/a	n/a	n/a	n/a	n/a
326.3223	1.1833	COLOR_NAME	19	Incongruent	żółty	yellow	zielony	green	hit	n/a
327.4873	n/a	RESPONSE	n/a	n/a	n/a	n/a	n/a	n/a	n/a	yellow
327.5057	1.0167	ITI	n/a	n/a	n/a	n/a	n/a	n/a	n/a	n/a
328.5224	0.5167	FIXCROSS	n/a	n/a	n/a	n/a	n/a	n/a	n/a	n/a
329.039	0.75	COLOR_NAME	20	Neutral	żółty	yellow	Neutral	Neutral	hit	n/a
329.7718	n/a	RESPONSE	n/a	n/a	n/a	n/a	n/a	n/a	n/a	yellow
329.789	1.0167	ITI	n/a	n/a	n/a	n/a	n/a	n/a	n/a	n/a
330.8057	0.5167	FIXCROSS	n/a	n/a	n/a	n/a	n/a	n/a	n/a	n/a
331.3224	0.65	COLOR_NAME	21	Neutral	niebieski	blue	Neutral	Neutral	hit	n/a
331.9444	n/a	RESPONSE	n/a	n/a	n/a	n/a	n/a	n/a	n/a	blue
331.9724	1.0167	ITI	n/a	n/a	n/a	n/a	n/a	n/a	n/a	n/a
332.9891	0.5167	FIXCROSS	n/a	n/a	n/a	n/a	n/a	n/a	n/a	n/a
333.5057	0.5833	COLOR_NAME	22	Incongruent	niebieski	blue	żółty	yellow	hit	n/a
334.069	n/a	RESPONSE	n/a	n/a	n/a	n/a	n/a	n/a	n/a	blue
334.0891	1.0167	ITI	n/a	n/a	n/a	n/a	n/a	n/a	n/a	n/a
335.1057	0.5167	FIXCROSS	n/a	n/a	n/a	n/a	n/a	n/a	n/a	n/a
335.6224	0.75	COLOR_NAME	23	Incongruent	zielony	green	niebieski	blue	incorrect	n/a
336.3535	n/a	RESPONSE	n/a	n/a	n/a	n/a	n/a	n/a	n/a	yellow
336.3724	1.0167	ITI	n/a	n/a	n/a	n/a	n/a	n/a	n/a	n/a
337.3891	0.5167	FIXCROSS	n/a	n/a	n/a	n/a	n/a	n/a	n/a	n/a
337.9058	1.05	COLOR_NAME	24	Incongruent	niebieski	blue	żółty	yellow	hit	n/a
338.9255	n/a	RESPONSE	n/a	n/a	n/a	n/a	n/a	n/a	n/a	blue
338.9558	1.0167	ITI	n/a	n/a	n/a	n/a	n/a	n/a	n/a	n/a
339.9724	0.5167	FIXCROSS	n/a	n/a	n/a	n/a	n/a	n/a	n/a	n/a
340.4891	0.9	COLOR_NAME	25	Incongruent	czerwony	red	zielony	green	hit	n/a
341.3696	n/a	RESPONSE	n/a	n/a	n/a	n/a	n/a	n/a	n/a	red
341.3891	1.0167	ITI	n/a	n/a	n/a	n/a	n/a	n/a	n/a	n/a
342.4058	0.5167	FIXCROSS	n/a	n/a	n/a	n/a	n/a	n/a	n/a	n/a
342.9225	0.85	COLOR_NAME	26	Incongruent	niebieski	blue	zielony	green	hit	n/a
343.7498	n/a	RESPONSE	n/a	n/a	n/a	n/a	n/a	n/a	n/a	blue
343.7725	1.0167	ITI	n/a	n/a	n/a	n/a	n/a	n/a	n/a	n/a
344.7891	0.5167	FIXCROSS	n/a	n/a	n/a	n/a	n/a	n/a	n/a	n/a
345.3058	0.9167	COLOR_NAME	27	Neutral	zielony	green	Neutral	Neutral	hit	n/a
346.194	n/a	RESPONSE	n/a	n/a	n/a	n/a	n/a	n/a	n/a	green
346.2225	1.0167	ITI	n/a	n/a	n/a	n/a	n/a	n/a	n/a	n/a
347.2392	0.5167	FIXCROSS	n/a	n/a	n/a	n/a	n/a	n/a	n/a	n/a
347.7558	0.8833	COLOR_NAME	28	Incongruent	zielony	green	czerwony	red	hit	n/a
348.6062	n/a	RESPONSE	n/a	n/a	n/a	n/a	n/a	n/a	n/a	green
348.6392	1.0167	ITI	n/a	n/a	n/a	n/a	n/a	n/a	n/a	n/a
349.6559	0.5167	FIXCROSS	n/a	n/a	n/a	n/a	n/a	n/a	n/a	n/a
350.1725	0.8833	COLOR_NAME	29	Neutral	czerwony	red	Neutral	Neutral	hit	n/a
351.0344	n/a	RESPONSE	n/a	n/a	n/a	n/a	n/a	n/a	n/a	red
351.0559	1.0167	ITI	n/a	n/a	n/a	n/a	n/a	n/a	n/a	n/a
352.0725	0.5167	FIXCROSS	n/a	n/a	n/a	n/a	n/a	n/a	n/a	n/a
352.5892	0.7333	COLOR_NAME	30	Neutral	żółty	yellow	Neutral	Neutral	hit	n/a
353.3028	n/a	RESPONSE	n/a	n/a	n/a	n/a	n/a	n/a	n/a	yellow
353.3225	1.0167	ITI	n/a	n/a	n/a	n/a	n/a	n/a	n/a	n/a
354.3392	0.5167	FIXCROSS	n/a	n/a	n/a	n/a	n/a	n/a	n/a	n/a
354.8559	0.7167	COLOR_NAME	31	Incongruent	niebieski	blue	czerwony	red	hit	n/a
355.5553	n/a	RESPONSE	n/a	n/a	n/a	n/a	n/a	n/a	n/a	blue
355.5726	1.0167	ITI	n/a	n/a	n/a	n/a	n/a	n/a	n/a	n/a
356.5892	0.5167	FIXCROSS	n/a	n/a	n/a	n/a	n/a	n/a	n/a	n/a
357.1059	0.9167	COLOR_NAME	32	Incongruent	żółty	yellow	niebieski	blue	hit	n/a
357.9993	n/a	RESPONSE	n/a	n/a	n/a	n/a	n/a	n/a	n/a	yellow
358.0226	1.0167	ITI	n/a	n/a	n/a	n/a	n/a	n/a	n/a	n/a
359.0393	0.5167	FIXCROSS	n/a	n/a	n/a	n/a	n/a	n/a	n/a	n/a
359.5559	0.85	COLOR_NAME	33	Incongruent	niebieski	blue	żółty	yellow	hit	n/a
360.3797	n/a	RESPONSE	n/a	n/a	n/a	n/a	n/a	n/a	n/a	blue
360.4059	1.0167	ITI	n/a	n/a	n/a	n/a	n/a	n/a	n/a	n/a
361.4226	0.5167	FIXCROSS	n/a	n/a	n/a	n/a	n/a	n/a	n/a	n/a
361.9393	0.5333	COLOR_NAME	34	Neutral	niebieski	blue	Neutral	Neutral	hit	n/a
362.4405	n/a	RESPONSE	n/a	n/a	n/a	n/a	n/a	n/a	n/a	blue
362.4726	1.0167	ITI	n/a	n/a	n/a	n/a	n/a	n/a	n/a	n/a
363.4893	0.5167	FIXCROSS	n/a	n/a	n/a	n/a	n/a	n/a	n/a	n/a
364.006	0.5167	COLOR_NAME	35	Neutral	niebieski	blue	Neutral	Neutral	hit	n/a
364.5012	n/a	RESPONSE	n/a	n/a	n/a	n/a	n/a	n/a	n/a	blue
364.5226	1.0167	ITI	n/a	n/a	n/a	n/a	n/a	n/a	n/a	n/a
365.5393	0.5167	FIXCROSS	n/a	n/a	n/a	n/a	n/a	n/a	n/a	n/a
366.056	0.7833	COLOR_NAME	36	Neutral	żółty	yellow	Neutral	Neutral	hit	n/a
366.8175	n/a	RESPONSE	n/a	n/a	n/a	n/a	n/a	n/a	n/a	yellow
366.8393	1.0167	ITI	n/a	n/a	n/a	n/a	n/a	n/a	n/a	n/a
367.856	0.5167	FIXCROSS	n/a	n/a	n/a	n/a	n/a	n/a	n/a	n/a
368.3727	0.5667	COLOR_NAME	37	Incongruent	żółty	yellow	czerwony	red	hit	n/a
368.9102	n/a	RESPONSE	n/a	n/a	n/a	n/a	n/a	n/a	n/a	yellow
368.9393	1.0167	ITI	n/a	n/a	n/a	n/a	n/a	n/a	n/a	n/a
369.956	0.5167	FIXCROSS	n/a	n/a	n/a	n/a	n/a	n/a	n/a	n/a
370.4727	0.85	COLOR_NAME	38	Neutral	czerwony	red	Neutral	Neutral	hit	n/a
371.2905	n/a	RESPONSE	n/a	n/a	n/a	n/a	n/a	n/a	n/a	red
371.3227	1.0167	ITI	n/a	n/a	n/a	n/a	n/a	n/a	n/a	n/a
372.3394	0.5167	FIXCROSS	n/a	n/a	n/a	n/a	n/a	n/a	n/a	n/a
372.856	0.6167	COLOR_NAME	39	Neutral	niebieski	blue	Neutral	Neutral	hit	n/a
373.4471	n/a	RESPONSE	n/a	n/a	n/a	n/a	n/a	n/a	n/a	blue
373.4727	1.0167	ITI	n/a	n/a	n/a	n/a	n/a	n/a	n/a	n/a
374.4894	0.5167	FIXCROSS	n/a	n/a	n/a	n/a	n/a	n/a	n/a	n/a
375.0061	0.65	COLOR_NAME	40	Neutral	niebieski	blue	Neutral	Neutral	hit	n/a
375.6356	n/a	RESPONSE	n/a	n/a	n/a	n/a	n/a	n/a	n/a	blue
375.6561	1.0167	ITI	n/a	n/a	n/a	n/a	n/a	n/a	n/a	n/a
376.6727	0.5167	FIXCROSS	n/a	n/a	n/a	n/a	n/a	n/a	n/a	n/a
377.1894	1.0167	COLOR_NAME	41	Incongruent	czerwony	red	zielony	green	hit	n/a
378.1757	n/a	RESPONSE	n/a	n/a	n/a	n/a	n/a	n/a	n/a	red
378.2061	1.0167	ITI	n/a	n/a	n/a	n/a	n/a	n/a	n/a	n/a
379.2228	0.5167	FIXCROSS	n/a	n/a	n/a	n/a	n/a	n/a	n/a	n/a
379.7394	0.7333	COLOR_NAME	42	Neutral	czerwony	red	Neutral	Neutral	hit	n/a
380.4441	n/a	RESPONSE	n/a	n/a	n/a	n/a	n/a	n/a	n/a	red
380.4728	1.0167	ITI	n/a	n/a	n/a	n/a	n/a	n/a	n/a	n/a
381.4894	0.5167	FIXCROSS	n/a	n/a	n/a	n/a	n/a	n/a	n/a	n/a
382.0061	0.7167	COLOR_NAME	43	Incongruent	zielony	green	czerwony	red	hit	n/a
382.6966	n/a	RESPONSE	n/a	n/a	n/a	n/a	n/a	n/a	n/a	green
382.7228	1.0167	ITI	n/a	n/a	n/a	n/a	n/a	n/a	n/a	n/a
383.7395	0.5167	FIXCROSS	n/a	n/a	n/a	n/a	n/a	n/a	n/a	n/a
384.2561	0.8667	COLOR_NAME	44	Neutral	zielony	green	Neutral	Neutral	hit	n/a
385.0928	n/a	RESPONSE	n/a	n/a	n/a	n/a	n/a	n/a	n/a	green
385.1228	1.0167	ITI	n/a	n/a	n/a	n/a	n/a	n/a	n/a	n/a
386.1395	0.5167	FIXCROSS	n/a	n/a	n/a	n/a	n/a	n/a	n/a	n/a
386.6561	0.8834	COLOR_NAME	45	Neutral	czerwony	red	Neutral	Neutral	hit	n/a
387.521	n/a	RESPONSE	n/a	n/a	n/a	n/a	n/a	n/a	n/a	red
387.5395	1.0167	ITI	n/a	n/a	n/a	n/a	n/a	n/a	n/a	n/a
388.5562	0.5167	FIXCROSS	n/a	n/a	n/a	n/a	n/a	n/a	n/a	n/a
389.0728	1.1	COLOR_NAME	46	Incongruent	zielony	green	żółty	yellow	hit	n/a
390.1409	n/a	RESPONSE	n/a	n/a	n/a	n/a	n/a	n/a	n/a	green
390.1728	1.0167	ITI	n/a	n/a	n/a	n/a	n/a	n/a	n/a	n/a
391.1895	0.5167	FIXCROSS	n/a	n/a	n/a	n/a	n/a	n/a	n/a	n/a
391.7062	0.8667	COLOR_NAME	47	Incongruent	żółty	yellow	zielony	green	hit	n/a
392.5531	n/a	RESPONSE	n/a	n/a	n/a	n/a	n/a	n/a	n/a	yellow
392.5729	1.0167	ITI	n/a	n/a	n/a	n/a	n/a	n/a	n/a	n/a
393.5895	0.5167	FIXCROSS	n/a	n/a	n/a	n/a	n/a	n/a	n/a	n/a
394.1062	0.7833	COLOR_NAME	48	Neutral	niebieski	blue	Neutral	Neutral	hit	n/a
394.8694	n/a	RESPONSE	n/a	n/a	n/a	n/a	n/a	n/a	n/a	blue
394.8895	1.0167	ITI	n/a	n/a	n/a	n/a	n/a	n/a	n/a	n/a
395.9062	0.5167	FIXCROSS	n/a	n/a	n/a	n/a	n/a	n/a	n/a	n/a
396.4229	0.7167	COLOR_NAME	49	Incongruent	żółty	yellow	czerwony	red	hit	n/a
397.1059	n/a	RESPONSE	n/a	n/a	n/a	n/a	n/a	n/a	n/a	yellow
397.1396	1.0167	ITI	n/a	n/a	n/a	n/a	n/a	n/a	n/a	n/a
398.1562	0.5167	FIXCROSS	n/a	n/a	n/a	n/a	n/a	n/a	n/a	n/a
398.6729	1.0167	COLOR_NAME	50	Incongruent	czerwony	red	żółty	yellow	hit	n/a
399.6619	n/a	RESPONSE	n/a	n/a	n/a	n/a	n/a	n/a	n/a	red
399.6896	1.0167	ITI	n/a	n/a	n/a	n/a	n/a	n/a	n/a	n/a
400.7063	0.5167	FIXCROSS	n/a	n/a	n/a	n/a	n/a	n/a	n/a	n/a
401.2229	0.8167	COLOR_NAME	51	Neutral	zielony	green	Neutral	Neutral	hit	n/a
402.0101	n/a	RESPONSE	n/a	n/a	n/a	n/a	n/a	n/a	n/a	green
402.0396	1.0167	ITI	n/a	n/a	n/a	n/a	n/a	n/a	n/a	n/a
403.0563	0.5167	FIXCROSS	n/a	n/a	n/a	n/a	n/a	n/a	n/a	n/a
403.5729	0.6667	COLOR_NAME	52	Incongruent	niebieski	blue	zielony	green	hit	n/a
404.2147	n/a	RESPONSE	n/a	n/a	n/a	n/a	n/a	n/a	n/a	blue
404.2396	1.0167	ITI	n/a	n/a	n/a	n/a	n/a	n/a	n/a	n/a
405.2563	0.5167	FIXCROSS	n/a	n/a	n/a	n/a	n/a	n/a	n/a	n/a
405.773	1.0667	COLOR_NAME	53	Neutral	zielony	green	Neutral	Neutral	hit	n/a
406.8186	n/a	RESPONSE	n/a	n/a	n/a	n/a	n/a	n/a	n/a	green
406.8396	1.0167	ITI	n/a	n/a	n/a	n/a	n/a	n/a	n/a	n/a
407.8563	0.5167	FIXCROSS	n/a	n/a	n/a	n/a	n/a	n/a	n/a	n/a
408.373	1.0834	COLOR_NAME	54	Incongruent	czerwony	red	żółty	yellow	hit	n/a
409.4224	n/a	RESPONSE	n/a	n/a	n/a	n/a	n/a	n/a	n/a	red
409.4563	1.0167	ITI	n/a	n/a	n/a	n/a	n/a	n/a	n/a	n/a
410.473	0.5167	FIXCROSS	n/a	n/a	n/a	n/a	n/a	n/a	n/a	n/a
410.9897	0.7834	COLOR_NAME	55	Incongruent	żółty	yellow	zielony	green	hit	n/a
411.7548	n/a	RESPONSE	n/a	n/a	n/a	n/a	n/a	n/a	n/a	yellow
411.773	1.0167	ITI	n/a	n/a	n/a	n/a	n/a	n/a	n/a	n/a
412.7897	0.5167	FIXCROSS	n/a	n/a	n/a	n/a	n/a	n/a	n/a	n/a
413.3064	1.1833	COLOR_NAME	56	Incongruent	czerwony	red	żółty	yellow	hit	n/a
414.4705	n/a	RESPONSE	n/a	n/a	n/a	n/a	n/a	n/a	n/a	red
414.4897	1.0167	ITI	n/a	n/a	n/a	n/a	n/a	n/a	n/a	n/a
415.5064	0.5167	FIXCROSS	n/a	n/a	n/a	n/a	n/a	n/a	n/a	n/a
416.023	1.0167	COLOR_NAME	57	Neutral	niebieski	blue	Neutral	Neutral	hit	n/a
417.0105	n/a	RESPONSE	n/a	n/a	n/a	n/a	n/a	n/a	n/a	blue
417.0397	1.0167	ITI	n/a	n/a	n/a	n/a	n/a	n/a	n/a	n/a
418.0564	0.5167	FIXCROSS	n/a	n/a	n/a	n/a	n/a	n/a	n/a	n/a
418.5731	1.15	COLOR_NAME	58	Incongruent	zielony	green	czerwony	red	hit	n/a
419.6943	n/a	RESPONSE	n/a	n/a	n/a	n/a	n/a	n/a	n/a	green
419.7231	1.0167	ITI	n/a	n/a	n/a	n/a	n/a	n/a	n/a	n/a
420.7397	0.5167	FIXCROSS	n/a	n/a	n/a	n/a	n/a	n/a	n/a	n/a
421.2564	0.9333	COLOR_NAME	59	Neutral	zielony	green	Neutral	Neutral	hit	n/a
422.1703	n/a	RESPONSE	n/a	n/a	n/a	n/a	n/a	n/a	n/a	green
422.1898	1.0167	ITI	n/a	n/a	n/a	n/a	n/a	n/a	n/a	n/a
423.2064	0.5167	FIXCROSS	n/a	n/a	n/a	n/a	n/a	n/a	n/a	n/a
423.7231	0.95	COLOR_NAME	60	Incongruent	niebieski	blue	czerwony	red	hit	n/a
424.6464	n/a	RESPONSE	n/a	n/a	n/a	n/a	n/a	n/a	n/a	blue
424.6731	1.0167	ITI	n/a	n/a	n/a	n/a	n/a	n/a	n/a	n/a
425.6898	0.5167	FIXCROSS	n/a	n/a	n/a	n/a	n/a	n/a	n/a	n/a
426.2065	0.8	COLOR_NAME	61	Neutral	żółty	yellow	Neutral	Neutral	hit	n/a
426.9787	n/a	RESPONSE	n/a	n/a	n/a	n/a	n/a	n/a	n/a	yellow
427.0065	1.0167	ITI	n/a	n/a	n/a	n/a	n/a	n/a	n/a	n/a
428.0231	0.5167	FIXCROSS	n/a	n/a	n/a	n/a	n/a	n/a	n/a	n/a
428.5398	0.75	COLOR_NAME	62	Incongruent	żółty	yellow	czerwony	red	hit	n/a
429.2632	n/a	RESPONSE	n/a	n/a	n/a	n/a	n/a	n/a	n/a	yellow
429.2898	1.0167	ITI	n/a	n/a	n/a	n/a	n/a	n/a	n/a	n/a
430.3065	0.5167	FIXCROSS	n/a	n/a	n/a	n/a	n/a	n/a	n/a	n/a
430.8232	1.1833	COLOR_NAME	63	Neutral	czerwony	red	Neutral	Neutral	hit	n/a
431.9788	n/a	RESPONSE	n/a	n/a	n/a	n/a	n/a	n/a	n/a	red
432.0065	1.0167	ITI	n/a	n/a	n/a	n/a	n/a	n/a	n/a	n/a
433.0232	0.5167	FIXCROSS	n/a	n/a	n/a	n/a	n/a	n/a	n/a	n/a
433.5399	0.9167	COLOR_NAME	64	Incongruent	czerwony	red	zielony	green	hit	n/a
434.439	n/a	RESPONSE	n/a	n/a	n/a	n/a	n/a	n/a	n/a	red
434.4565	1.0167	ITI	n/a	n/a	n/a	n/a	n/a	n/a	n/a	n/a
435.4732	0.5167	FIXCROSS	n/a	n/a	n/a	n/a	n/a	n/a	n/a	n/a
435.9899	0.9167	COLOR_NAME	65	Neutral	zielony	green	Neutral	Neutral	hit	n/a
436.8831	n/a	RESPONSE	n/a	n/a	n/a	n/a	n/a	n/a	n/a	green
436.9065	1.0167	ITI	n/a	n/a	n/a	n/a	n/a	n/a	n/a	n/a
437.9232	0.5167	FIXCROSS	n/a	n/a	n/a	n/a	n/a	n/a	n/a	n/a
438.4399	0.8167	COLOR_NAME	66	Neutral	żółty	yellow	Neutral	Neutral	hit	n/a
439.2314	n/a	RESPONSE	n/a	n/a	n/a	n/a	n/a	n/a	n/a	yellow
439.2566	1.0167	ITI	n/a	n/a	n/a	n/a	n/a	n/a	n/a	n/a
440.2732	0.5167	FIXCROSS	n/a	n/a	n/a	n/a	n/a	n/a	n/a	n/a
440.7899	0.6167	COLOR_NAME	67	Neutral	żółty	yellow	Neutral	Neutral	hit	n/a
441.3881	n/a	RESPONSE	n/a	n/a	n/a	n/a	n/a	n/a	n/a	yellow
441.4066	1.0167	ITI	n/a	n/a	n/a	n/a	n/a	n/a	n/a	n/a
442.4233	0.5167	FIXCROSS	n/a	n/a	n/a	n/a	n/a	n/a	n/a	n/a
442.9399	0.7167	COLOR_NAME	68	Neutral	czerwony	red	Neutral	Neutral	hit	n/a
443.6245	n/a	RESPONSE	n/a	n/a	n/a	n/a	n/a	n/a	n/a	red
443.6566	1.0167	ITI	n/a	n/a	n/a	n/a	n/a	n/a	n/a	n/a
444.6733	0.5167	FIXCROSS	n/a	n/a	n/a	n/a	n/a	n/a	n/a	n/a
445.1899	1.2	COLOR_NAME	69	Incongruent	żółty	yellow	niebieski	blue	incorrect	n/a
446.3561	n/a	RESPONSE	n/a	n/a	n/a	n/a	n/a	n/a	n/a	red
446.39	1.0167	ITI	n/a	n/a	n/a	n/a	n/a	n/a	n/a	n/a
447.4066	0.5167	FIXCROSS	n/a	n/a	n/a	n/a	n/a	n/a	n/a	n/a
447.9233	0.7667	COLOR_NAME	70	Neutral	niebieski	blue	Neutral	Neutral	hit	n/a
448.6565	n/a	RESPONSE	n/a	n/a	n/a	n/a	n/a	n/a	n/a	blue
448.69	1.0167	ITI	n/a	n/a	n/a	n/a	n/a	n/a	n/a	n/a
449.7066	0.5167	FIXCROSS	n/a	n/a	n/a	n/a	n/a	n/a	n/a	n/a
450.2233	0.6333	COLOR_NAME	71	Neutral	żółty	yellow	Neutral	Neutral	hit	n/a
450.8291	n/a	RESPONSE	n/a	n/a	n/a	n/a	n/a	n/a	n/a	yellow
450.8567	1.0167	ITI	n/a	n/a	n/a	n/a	n/a	n/a	n/a	n/a
451.8733	0.5167	FIXCROSS	n/a	n/a	n/a	n/a	n/a	n/a	n/a	n/a
452.39	0.65	COLOR_NAME	72	Incongruent	zielony	green	niebieski	blue	hit	n/a
453.0177	n/a	RESPONSE	n/a	n/a	n/a	n/a	n/a	n/a	n/a	green
453.04	1.0333	ITI	n/a	n/a	n/a	n/a	n/a	n/a	n/a	n/a
456.5162	n/a	RESPONSE	n/a	n/a	n/a	n/a	n/a	n/a	n/a	n/a
