onset	duration	trial_type	braille_stimulus	targets	response_count
2.016	2.008	CUE_6_DOT	n/a	n/a	n/a
7.016	1.008	FIXCROSS	n/a	n/a	n/a
8.033	5.008	6_DOT_DETECTION	C#CEŁ	1	n/a
9.96	n/a	RESPONSE	n/a	n/a	1/1
13.066	1.008	FIXCROSS	n/a	n/a	n/a
14.083	5.008	6_DOT_DETECTION	ITŁEM	0	n/a
19.116	1.008	FIXCROSS	n/a	n/a	n/a
20.133	5.008	6_DOT_DETECTION	TEK##	2	n/a
22.72	n/a	RESPONSE	n/a	n/a	1/2
24.24	n/a	RESPONSE	n/a	n/a	2/2
25.166	1.008	FIXCROSS	n/a	n/a	n/a
26.183	5.008	6_DOT_DETECTION	O#LAS	1	n/a
27.88	n/a	RESPONSE	n/a	n/a	1/1
31.216	1.008	FIXCROSS	n/a	n/a	n/a
32.232	5.009	6_DOT_DETECTION	KOP#M	1	n/a
35.16	n/a	RESPONSE	n/a	n/a	1/1
37.266	1.008	FIXCROSS	n/a	n/a	n/a
38.283	5.008	6_DOT_DETECTION	SB#OL	1	n/a
40.576	n/a	RESPONSE	n/a	n/a	1/1
43.316	1.008	FIXCROSS	n/a	n/a	n/a
44.333	5.008	6_DOT_DETECTION	##KAT	2	n/a
45.76	n/a	RESPONSE	n/a	n/a	1/2
49.366	1.008	FIXCROSS	n/a	n/a	n/a
50.383	5.008	6_DOT_DETECTION	DTIDI	0	n/a
57.425	2.008	CUE_REST	n/a	n/a	n/a
62.425	1.008	FIXCROSS	n/a	n/a	n/a
68.475	1.008	FIXCROSS	n/a	n/a	n/a
75.533	2.008	CUE_6_DOT	n/a	n/a	n/a
80.533	1.008	FIXCROSS	n/a	n/a	n/a
81.55	5.008	6_DOT_DETECTION	BUT##	2	n/a
84.32	n/a	RESPONSE	n/a	n/a	1/2
86.583	1.008	FIXCROSS	n/a	n/a	n/a
87.6	5.008	6_DOT_DETECTION	APD#C	1	n/a
90.256	n/a	RESPONSE	n/a	n/a	1/1
92.633	1.008	FIXCROSS	n/a	n/a	n/a
93.649	5.009	6_DOT_DETECTION	EUBEC	0	n/a
98.683	1.008	FIXCROSS	n/a	n/a	n/a
99.699	5.009	6_DOT_DETECTION	KMŁKM	0	n/a
104.733	1.008	FIXCROSS	n/a	n/a	n/a
105.749	5.009	6_DOT_DETECTION	#PSU#	2	n/a
107.136	n/a	RESPONSE	n/a	n/a	1/2
110.783	1.008	FIXCROSS	n/a	n/a	n/a
111.8	5.008	6_DOT_DETECTION	PMSKK	0	n/a
116.833	1.008	FIXCROSS	n/a	n/a	n/a
117.85	5.008	6_DOT_DETECTION	T#BUD	1	n/a
119.736	n/a	RESPONSE	n/a	n/a	1/1
122.883	1.008	FIXCROSS	n/a	n/a	n/a
123.9	5.008	6_DOT_DETECTION	#KMBŁ	1	n/a
125.48	n/a	RESPONSE	n/a	n/a	1/1
130.442	2.008	CUE_REST	n/a	n/a	n/a
136.942	1.008	FIXCROSS	n/a	n/a	n/a
142.992	1.008	FIXCROSS	n/a	n/a	n/a
150.55	2.008	CUE_6_DOT	n/a	n/a	n/a
157.05	1.008	FIXCROSS	n/a	n/a	n/a
158.067	5.008	6_DOT_DETECTION	A#ŁAP	1	n/a
160.04	n/a	RESPONSE	n/a	n/a	1/1
163.1	1.008	FIXCROSS	n/a	n/a	n/a
164.117	5.008	6_DOT_DETECTION	TYŁ##	2	n/a
166.88	n/a	RESPONSE	n/a	n/a	1/2
169.15	1.008	FIXCROSS	n/a	n/a	n/a
170.167	5.008	6_DOT_DETECTION	TOK##	2	n/a
173.44	n/a	RESPONSE	n/a	n/a	1/2
175.2	1.008	FIXCROSS	n/a	n/a	n/a
176.216	5.009	6_DOT_DETECTION	DBA#C	1	n/a
181.25	1.008	FIXCROSS	n/a	n/a	n/a
182.267	5.008	6_DOT_DETECTION	KTIŁŁ	0	n/a
187.3	1.008	FIXCROSS	n/a	n/a	n/a
188.317	5.008	6_DOT_DETECTION	BLCLK	0	n/a
193.35	1.008	FIXCROSS	n/a	n/a	n/a
194.367	5.008	6_DOT_DETECTION	ESY##	2	n/a
196.776	n/a	RESPONSE	n/a	n/a	1/2
199.4	1.008	FIXCROSS	n/a	n/a	n/a
200.417	5.008	6_DOT_DETECTION	STO#E	1	n/a
203.696	n/a	RESPONSE	n/a	n/a	1/1
206.958	2.008	CUE_REST	n/a	n/a	n/a
211.458	1.008	FIXCROSS	n/a	n/a	n/a
217.508	1.008	FIXCROSS	n/a	n/a	n/a
225.567	2.008	CUE_6_DOT	n/a	n/a	n/a
231.567	1.008	FIXCROSS	n/a	n/a	n/a
232.583	5.009	6_DOT_DETECTION	#ULE#	2	n/a
235.88	n/a	RESPONSE	n/a	n/a	1/2
237.617	1.008	FIXCROSS	n/a	n/a	n/a
238.634	5.008	6_DOT_DETECTION	#SAD#	2	n/a
240.28	n/a	RESPONSE	n/a	n/a	1/2
241.936	n/a	RESPONSE	n/a	n/a	2/2
243.667	1.008	FIXCROSS	n/a	n/a	n/a
244.684	5.008	6_DOT_DETECTION	AŁDLK	0	n/a
249.717	1.008	FIXCROSS	n/a	n/a	n/a
250.734	5.008	6_DOT_DETECTION	##PYŁ	2	n/a
252.296	n/a	RESPONSE	n/a	n/a	1/2
255.767	1.008	FIXCROSS	n/a	n/a	n/a
256.784	5.008	6_DOT_DETECTION	ŁPPTY	0	n/a
261.817	1.008	FIXCROSS	n/a	n/a	n/a
262.834	5.008	6_DOT_DETECTION	ŁY#SE	1	n/a
265.28	n/a	RESPONSE	n/a	n/a	1/1
267.867	1.008	FIXCROSS	n/a	n/a	n/a
268.884	5.008	6_DOT_DETECTION	CIKUE	0	n/a
273.917	1.008	FIXCROSS	n/a	n/a	n/a
274.933	5.009	6_DOT_DETECTION	P#ŁUY	1	n/a
277.4	n/a	RESPONSE	n/a	n/a	1/1
281.975	2.008	CUE_REST	n/a	n/a	n/a
285.975	1.008	FIXCROSS	n/a	n/a	n/a
292.025	1.008	FIXCROSS	n/a	n/a	n/a
299.584	2.008	CUE_6_DOT	n/a	n/a	n/a
305.084	1.008	FIXCROSS	n/a	n/a	n/a
306.1	5.008	6_DOT_DETECTION	LLACB	0	n/a
311.134	1.008	FIXCROSS	n/a	n/a	n/a
312.15	5.008	6_DOT_DETECTION	OAICU	0	n/a
317.184	1.008	FIXCROSS	n/a	n/a	n/a
318.2	5.008	6_DOT_DETECTION	#MIS#	2	n/a
319.64	n/a	RESPONSE	n/a	n/a	1/2
323.234	1.008	FIXCROSS	n/a	n/a	n/a
324.25	5.008	6_DOT_DETECTION	ŁCDCA	0	n/a
329.284	1.008	FIXCROSS	n/a	n/a	n/a
330.3	5.008	6_DOT_DETECTION	Y#LEK	1	n/a
331.44	n/a	RESPONSE	n/a	n/a	1/1
335.334	1.008	FIXCROSS	n/a	n/a	n/a
336.35	5.008	6_DOT_DETECTION	TAK#P	1	n/a
339.48	n/a	RESPONSE	n/a	n/a	1/1
341.384	1.008	FIXCROSS	n/a	n/a	n/a
342.4	5.008	6_DOT_DETECTION	LSC##	2	n/a
345.28	n/a	RESPONSE	n/a	n/a	1/2
347.434	1.008	FIXCROSS	n/a	n/a	n/a
348.45	5.009	6_DOT_DETECTION	BSEBL	0	n/a
354.492	2.008	CUE_REST	n/a	n/a	n/a
360.492	1.008	FIXCROSS	n/a	n/a	n/a
366.542	1.008	FIXCROSS	n/a	n/a	n/a
373.6	2.008	CUE_6_DOT	n/a	n/a	n/a
378.6	1.008	FIXCROSS	n/a	n/a	n/a
379.616	5.009	6_DOT_DETECTION	#DAT#	2	n/a
380.96	n/a	RESPONSE	n/a	n/a	1/2
383.776	n/a	RESPONSE	n/a	n/a	2/2
384.65	1.008	FIXCROSS	n/a	n/a	n/a
385.667	5.008	6_DOT_DETECTION	YEAAK	0	n/a
390.7	1.008	FIXCROSS	n/a	n/a	n/a
391.717	5.008	6_DOT_DETECTION	##IEY	2	n/a
393.016	n/a	RESPONSE	n/a	n/a	1/2
396.75	1.008	FIXCROSS	n/a	n/a	n/a
397.767	5.008	6_DOT_DETECTION	SOK#Ł	1	n/a
400.6	n/a	RESPONSE	n/a	n/a	1/1
402.8	1.008	FIXCROSS	n/a	n/a	n/a
403.817	5.008	6_DOT_DETECTION	##MAK	2	n/a
405.176	n/a	RESPONSE	n/a	n/a	1/2
408.85	1.008	FIXCROSS	n/a	n/a	n/a
409.867	5.008	6_DOT_DETECTION	OYŁ#Ł	1	n/a
413.296	n/a	RESPONSE	n/a	n/a	1/1
414.9	1.008	FIXCROSS	n/a	n/a	n/a
415.917	5.009	6_DOT_DETECTION	##POP	2	n/a
417.896	n/a	RESPONSE	n/a	n/a	1/2
420.95	1.008	FIXCROSS	n/a	n/a	n/a
421.967	5.008	6_DOT_DETECTION	ŁSCPT	0	n/a
428.009	2.008	CUE_REST	n/a	n/a	n/a
435.009	1.008	FIXCROSS	n/a	n/a	n/a
441.059	1.008	FIXCROSS	n/a	n/a	n/a
