onset	duration	trial_type	trial_number	stroop_condition	stim_text(PL)	stim_text(eng)	stim_color(PL)	stim_color(eng)	response_type	response_color
0.0	n/a	RESPONSE	n/a	n/a	n/a	n/a	n/a	n/a	n/a	n/a
0.0599	1.0333	ITI	n/a	n/a	n/a	n/a	n/a	n/a	n/a	n/a
1.0932	0.5167	FIXCROSS	n/a	n/a	n/a	n/a	n/a	n/a	n/a	n/a
1.6099	1.3833	T_INK	1	Neutral	xxxxx	xxxxx	niebieski	blue	hit	n/a
2.9565	n/a	RESPONSE	n/a	n/a	n/a	n/a	n/a	n/a	n/a	blue
2.9932	0.5167	FEEDBACK	n/a	n/a	n/a	n/a	n/a	n/a	n/a	n/a
3.5099	1.0167	ITI	n/a	n/a	n/a	n/a	n/a	n/a	n/a	n/a
4.5266	0.5167	FIXCROSS	n/a	n/a	n/a	n/a	n/a	n/a	n/a	n/a
5.0432	0.8	T_INK	2	Neutral	xxxxxxxxx	xxxxxxxxx	żółty	yellow	hit	n/a
5.8173	n/a	RESPONSE	n/a	n/a	n/a	n/a	n/a	n/a	n/a	yellow
5.8433	0.5167	FEEDBACK	n/a	n/a	n/a	n/a	n/a	n/a	n/a	n/a
6.3599	1.0167	ITI	n/a	n/a	n/a	n/a	n/a	n/a	n/a	n/a
7.3766	0.5167	FIXCROSS	n/a	n/a	n/a	n/a	n/a	n/a	n/a	n/a
7.8933	1.1333	T_INK	3	Incongruent	żółty	yellow	niebieski	blue	hit	n/a
8.9976	n/a	RESPONSE	n/a	n/a	n/a	n/a	n/a	n/a	n/a	blue
9.0266	0.5167	FEEDBACK	n/a	n/a	n/a	n/a	n/a	n/a	n/a	n/a
9.5433	1.0167	ITI	n/a	n/a	n/a	n/a	n/a	n/a	n/a	n/a
10.56	0.5167	FIXCROSS	n/a	n/a	n/a	n/a	n/a	n/a	n/a	n/a
11.0766	0.8167	T_INK	4	Incongruent	żółty	yellow	czerwony	red	hit	n/a
11.8743	n/a	RESPONSE	n/a	n/a	n/a	n/a	n/a	n/a	n/a	red
11.8933	0.5167	FEEDBACK	n/a	n/a	n/a	n/a	n/a	n/a	n/a	n/a
12.41	1.0167	ITI	n/a	n/a	n/a	n/a	n/a	n/a	n/a	n/a
13.4266	0.5167	FIXCROSS	n/a	n/a	n/a	n/a	n/a	n/a	n/a	n/a
13.9433	0.7667	T_INK	5	Neutral	xxxxxxx	xxxxxxx	niebieski	blue	hit	n/a
14.6872	n/a	RESPONSE	n/a	n/a	n/a	n/a	n/a	n/a	n/a	blue
14.71	0.5167	FEEDBACK	n/a	n/a	n/a	n/a	n/a	n/a	n/a	n/a
15.2267	1.0167	ITI	n/a	n/a	n/a	n/a	n/a	n/a	n/a	n/a
16.2433	0.5167	FIXCROSS	n/a	n/a	n/a	n/a	n/a	n/a	n/a	n/a
16.76	0.8167	T_INK	6	Incongruent	niebieski	blue	zielony	green	hit	n/a
17.5479	n/a	RESPONSE	n/a	n/a	n/a	n/a	n/a	n/a	n/a	green
17.5767	0.5167	FEEDBACK	n/a	n/a	n/a	n/a	n/a	n/a	n/a	n/a
18.0933	1.0167	ITI	n/a	n/a	n/a	n/a	n/a	n/a	n/a	n/a
19.11	0.5167	FIXCROSS	n/a	n/a	n/a	n/a	n/a	n/a	n/a	n/a
19.6267	0.7667	T_INK	7	Neutral	xxxxxxx	xxxxxxx	żółty	yellow	hit	n/a
20.3606	n/a	RESPONSE	n/a	n/a	n/a	n/a	n/a	n/a	n/a	yellow
20.3934	0.5166	FEEDBACK	n/a	n/a	n/a	n/a	n/a	n/a	n/a	n/a
20.91	1.0167	ITI	n/a	n/a	n/a	n/a	n/a	n/a	n/a	n/a
21.9267	0.5167	FIXCROSS	n/a	n/a	n/a	n/a	n/a	n/a	n/a	n/a
22.4434	0.75	T_INK	8	Neutral	xxxxxxxx	xxxxxxxx	żółty	yellow	hit	n/a
23.1575	n/a	RESPONSE	n/a	n/a	n/a	n/a	n/a	n/a	n/a	yellow
23.1934	0.5167	FEEDBACK	n/a	n/a	n/a	n/a	n/a	n/a	n/a	n/a
23.7101	1.0167	ITI	n/a	n/a	n/a	n/a	n/a	n/a	n/a	n/a
24.7267	0.5167	FIXCROSS	n/a	n/a	n/a	n/a	n/a	n/a	n/a	n/a
25.2434	0.65	T_INK	9	Incongruent	czerwony	red	żółty	yellow	hit	n/a
25.8743	n/a	RESPONSE	n/a	n/a	n/a	n/a	n/a	n/a	n/a	yellow
25.8934	0.5167	FEEDBACK	n/a	n/a	n/a	n/a	n/a	n/a	n/a	n/a
26.4101	1.0167	ITI	n/a	n/a	n/a	n/a	n/a	n/a	n/a	n/a
27.4268	0.5167	FIXCROSS	n/a	n/a	n/a	n/a	n/a	n/a	n/a	n/a
27.9434	0.6	T_INK	10	Incongruent	czerwony	red	zielony	green	hit	n/a
28.5113	n/a	RESPONSE	n/a	n/a	n/a	n/a	n/a	n/a	n/a	green
28.5434	0.5167	FEEDBACK	n/a	n/a	n/a	n/a	n/a	n/a	n/a	n/a
29.0601	1.0167	ITI	n/a	n/a	n/a	n/a	n/a	n/a	n/a	n/a
30.0768	0.5167	FIXCROSS	n/a	n/a	n/a	n/a	n/a	n/a	n/a	n/a
30.5934	0.8	T_INK	11	Incongruent	zielony	green	niebieski	blue	hit	n/a
31.3554	n/a	RESPONSE	n/a	n/a	n/a	n/a	n/a	n/a	n/a	blue
31.3935	0.5167	FEEDBACK	n/a	n/a	n/a	n/a	n/a	n/a	n/a	n/a
31.9101	1.0167	ITI	n/a	n/a	n/a	n/a	n/a	n/a	n/a	n/a
32.9268	0.5167	FIXCROSS	n/a	n/a	n/a	n/a	n/a	n/a	n/a	n/a
33.4435	0.4833	T_INK	12	Neutral	xxxxxxxxx	xxxxxxxxx	czerwony	red	hit	n/a
33.8971	n/a	RESPONSE	n/a	n/a	n/a	n/a	n/a	n/a	n/a	red
33.9268	0.5167	FEEDBACK	n/a	n/a	n/a	n/a	n/a	n/a	n/a	n/a
34.4435	1.0333	ITI	n/a	n/a	n/a	n/a	n/a	n/a	n/a	n/a
38.9633	n/a	RESPONSE	n/a	n/a	n/a	n/a	n/a	n/a	n/a	n/a
39.0268	1.0167	ITI	n/a	n/a	n/a	n/a	n/a	n/a	n/a	n/a
40.0435	0.5167	FIXCROSS	n/a	n/a	n/a	n/a	n/a	n/a	n/a	n/a
40.5602	0.6167	INK	1	Neutral	xxxxxxxx	xxxxxxxx	żółty	yellow	hit	n/a
41.1527	n/a	RESPONSE	n/a	n/a	n/a	n/a	n/a	n/a	n/a	yellow
41.1769	1.0167	ITI	n/a	n/a	n/a	n/a	n/a	n/a	n/a	n/a
42.1935	0.5167	FIXCROSS	n/a	n/a	n/a	n/a	n/a	n/a	n/a	n/a
42.7102	0.6333	INK	2	Neutral	xxxxxxxxx	xxxxxxxxx	czerwony	red	hit	n/a
43.3102	n/a	RESPONSE	n/a	n/a	n/a	n/a	n/a	n/a	n/a	red
43.3435	1.0167	ITI	n/a	n/a	n/a	n/a	n/a	n/a	n/a	n/a
44.3602	0.5167	FIXCROSS	n/a	n/a	n/a	n/a	n/a	n/a	n/a	n/a
44.8769	0.4	INK	3	Incongruent	czerwony	red	zielony	green	hit	n/a
45.2441	n/a	RESPONSE	n/a	n/a	n/a	n/a	n/a	n/a	n/a	green
45.2769	1.0167	ITI	n/a	n/a	n/a	n/a	n/a	n/a	n/a	n/a
46.2936	0.5167	FIXCROSS	n/a	n/a	n/a	n/a	n/a	n/a	n/a	n/a
46.8102	0.4333	INK	4	Incongruent	żółty	yellow	niebieski	blue	hit	n/a
47.2098	n/a	RESPONSE	n/a	n/a	n/a	n/a	n/a	n/a	n/a	blue
47.2436	1.0167	ITI	n/a	n/a	n/a	n/a	n/a	n/a	n/a	n/a
48.2603	0.5167	FIXCROSS	n/a	n/a	n/a	n/a	n/a	n/a	n/a	n/a
48.7769	0.7667	INK	5	Incongruent	żółty	yellow	zielony	green	hit	n/a
49.5111	n/a	RESPONSE	n/a	n/a	n/a	n/a	n/a	n/a	n/a	green
49.5436	1.0167	ITI	n/a	n/a	n/a	n/a	n/a	n/a	n/a	n/a
50.5603	0.5167	FIXCROSS	n/a	n/a	n/a	n/a	n/a	n/a	n/a	n/a
51.0769	0.8	INK	6	Neutral	xxxxx	xxxxx	niebieski	blue	hit	n/a
51.8445	n/a	RESPONSE	n/a	n/a	n/a	n/a	n/a	n/a	n/a	blue
51.8769	1.0167	ITI	n/a	n/a	n/a	n/a	n/a	n/a	n/a	n/a
52.8936	0.5167	FIXCROSS	n/a	n/a	n/a	n/a	n/a	n/a	n/a	n/a
53.4103	0.6833	INK	7	Neutral	xxxxxxxxx	xxxxxxxxx	czerwony	red	hit	n/a
54.066	n/a	RESPONSE	n/a	n/a	n/a	n/a	n/a	n/a	n/a	red
54.0936	1.0167	ITI	n/a	n/a	n/a	n/a	n/a	n/a	n/a	n/a
55.1103	0.5167	FIXCROSS	n/a	n/a	n/a	n/a	n/a	n/a	n/a	n/a
55.627	0.5333	INK	8	Incongruent	niebieski	blue	żółty	yellow	hit	n/a
56.1276	n/a	RESPONSE	n/a	n/a	n/a	n/a	n/a	n/a	n/a	yellow
56.1603	1.0167	ITI	n/a	n/a	n/a	n/a	n/a	n/a	n/a	n/a
57.177	0.5167	FIXCROSS	n/a	n/a	n/a	n/a	n/a	n/a	n/a	n/a
57.6937	0.5833	INK	9	Incongruent	zielony	green	żółty	yellow	hit	n/a
58.2531	n/a	RESPONSE	n/a	n/a	n/a	n/a	n/a	n/a	n/a	yellow
58.277	1.0167	ITI	n/a	n/a	n/a	n/a	n/a	n/a	n/a	n/a
59.2937	0.5167	FIXCROSS	n/a	n/a	n/a	n/a	n/a	n/a	n/a	n/a
59.8103	0.6667	INK	10	Neutral	xxxxxxx	xxxxxxx	niebieski	blue	hit	n/a
60.4586	n/a	RESPONSE	n/a	n/a	n/a	n/a	n/a	n/a	n/a	blue
60.477	1.0167	ITI	n/a	n/a	n/a	n/a	n/a	n/a	n/a	n/a
61.4937	0.5167	FIXCROSS	n/a	n/a	n/a	n/a	n/a	n/a	n/a	n/a
62.0104	0.6167	INK	11	Neutral	xxxxxxxxx	xxxxxxxxx	żółty	yellow	hit	n/a
62.6001	n/a	RESPONSE	n/a	n/a	n/a	n/a	n/a	n/a	n/a	yellow
62.627	1.0167	ITI	n/a	n/a	n/a	n/a	n/a	n/a	n/a	n/a
63.6437	0.5167	FIXCROSS	n/a	n/a	n/a	n/a	n/a	n/a	n/a	n/a
64.1604	0.4667	INK	12	Incongruent	niebieski	blue	czerwony	red	hit	n/a
64.5979	n/a	RESPONSE	n/a	n/a	n/a	n/a	n/a	n/a	n/a	red
64.627	1.0167	ITI	n/a	n/a	n/a	n/a	n/a	n/a	n/a	n/a
65.6437	0.5167	FIXCROSS	n/a	n/a	n/a	n/a	n/a	n/a	n/a	n/a
66.1604	0.6	INK	13	Incongruent	czerwony	red	żółty	yellow	hit	n/a
66.7394	n/a	RESPONSE	n/a	n/a	n/a	n/a	n/a	n/a	n/a	yellow
66.7604	1.0167	ITI	n/a	n/a	n/a	n/a	n/a	n/a	n/a	n/a
67.7771	0.5167	FIXCROSS	n/a	n/a	n/a	n/a	n/a	n/a	n/a	n/a
68.2937	0.5333	INK	14	Neutral	xxxxxxxxx	xxxxxxxxx	żółty	yellow	hit	n/a
68.801	n/a	RESPONSE	n/a	n/a	n/a	n/a	n/a	n/a	n/a	yellow
68.8271	1.0167	ITI	n/a	n/a	n/a	n/a	n/a	n/a	n/a	n/a
69.8437	0.5167	FIXCROSS	n/a	n/a	n/a	n/a	n/a	n/a	n/a	n/a
70.3604	0.6833	INK	15	Incongruent	żółty	yellow	czerwony	red	hit	n/a
71.0225	n/a	RESPONSE	n/a	n/a	n/a	n/a	n/a	n/a	n/a	red
71.0438	1.0167	ITI	n/a	n/a	n/a	n/a	n/a	n/a	n/a	n/a
72.0604	0.5167	FIXCROSS	n/a	n/a	n/a	n/a	n/a	n/a	n/a	n/a
72.5771	0.75	INK	16	Neutral	xxxxx	xxxxx	czerwony	red	hit	n/a
73.308	n/a	RESPONSE	n/a	n/a	n/a	n/a	n/a	n/a	n/a	red
73.3271	1.0167	ITI	n/a	n/a	n/a	n/a	n/a	n/a	n/a	n/a
74.3438	0.5167	FIXCROSS	n/a	n/a	n/a	n/a	n/a	n/a	n/a	n/a
74.8605	0.5167	INK	17	Neutral	xxxxxxxxx	xxxxxxxxx	żółty	yellow	hit	n/a
75.3536	n/a	RESPONSE	n/a	n/a	n/a	n/a	n/a	n/a	n/a	yellow
75.3771	1.0167	ITI	n/a	n/a	n/a	n/a	n/a	n/a	n/a	n/a
76.3938	0.5167	FIXCROSS	n/a	n/a	n/a	n/a	n/a	n/a	n/a	n/a
76.9105	0.6333	INK	18	Incongruent	zielony	green	żółty	yellow	hit	n/a
77.5112	n/a	RESPONSE	n/a	n/a	n/a	n/a	n/a	n/a	n/a	yellow
77.5438	1.0167	ITI	n/a	n/a	n/a	n/a	n/a	n/a	n/a	n/a
78.5605	0.5167	FIXCROSS	n/a	n/a	n/a	n/a	n/a	n/a	n/a	n/a
79.0772	0.7167	INK	19	Incongruent	niebieski	blue	zielony	green	hit	n/a
79.7645	n/a	RESPONSE	n/a	n/a	n/a	n/a	n/a	n/a	n/a	green
79.7938	1.0167	ITI	n/a	n/a	n/a	n/a	n/a	n/a	n/a	n/a
80.8105	0.5167	FIXCROSS	n/a	n/a	n/a	n/a	n/a	n/a	n/a	n/a
81.3272	0.5167	INK	20	Incongruent	zielony	green	niebieski	blue	hit	n/a
81.8261	n/a	RESPONSE	n/a	n/a	n/a	n/a	n/a	n/a	n/a	blue
81.8438	1.0167	ITI	n/a	n/a	n/a	n/a	n/a	n/a	n/a	n/a
82.8605	0.5167	FIXCROSS	n/a	n/a	n/a	n/a	n/a	n/a	n/a	n/a
83.3772	0.5	INK	21	Neutral	xxxxxxxx	xxxxxxxx	zielony	green	hit	n/a
83.8559	n/a	RESPONSE	n/a	n/a	n/a	n/a	n/a	n/a	n/a	green
83.8772	1.0167	ITI	n/a	n/a	n/a	n/a	n/a	n/a	n/a	n/a
84.8939	0.5167	FIXCROSS	n/a	n/a	n/a	n/a	n/a	n/a	n/a	n/a
85.4105	0.6333	INK	22	Neutral	xxxxxxx	xxxxxxx	żółty	yellow	hit	n/a
86.0133	n/a	RESPONSE	n/a	n/a	n/a	n/a	n/a	n/a	n/a	yellow
86.0439	1.0167	ITI	n/a	n/a	n/a	n/a	n/a	n/a	n/a	n/a
87.0605	0.5167	FIXCROSS	n/a	n/a	n/a	n/a	n/a	n/a	n/a	n/a
87.5772	0.65	INK	23	Neutral	xxxxx	xxxxx	niebieski	blue	hit	n/a
88.2029	n/a	RESPONSE	n/a	n/a	n/a	n/a	n/a	n/a	n/a	blue
88.2272	1.0167	ITI	n/a	n/a	n/a	n/a	n/a	n/a	n/a	n/a
89.2439	0.5167	FIXCROSS	n/a	n/a	n/a	n/a	n/a	n/a	n/a	n/a
89.7606	0.6	INK	24	Neutral	xxxxx	xxxxx	czerwony	red	hit	n/a
90.3284	n/a	RESPONSE	n/a	n/a	n/a	n/a	n/a	n/a	n/a	red
90.3606	1.0167	ITI	n/a	n/a	n/a	n/a	n/a	n/a	n/a	n/a
91.3772	0.5167	FIXCROSS	n/a	n/a	n/a	n/a	n/a	n/a	n/a	n/a
91.8939	0.3667	INK	25	Incongruent	czerwony	red	zielony	green	hit	n/a
92.2303	n/a	RESPONSE	n/a	n/a	n/a	n/a	n/a	n/a	n/a	green
92.2606	1.0167	ITI	n/a	n/a	n/a	n/a	n/a	n/a	n/a	n/a
93.2773	0.5167	FIXCROSS	n/a	n/a	n/a	n/a	n/a	n/a	n/a	n/a
93.7939	0.6833	INK	26	Neutral	xxxxxxx	xxxxxxx	niebieski	blue	hit	n/a
94.4519	n/a	RESPONSE	n/a	n/a	n/a	n/a	n/a	n/a	n/a	blue
94.4773	1.0167	ITI	n/a	n/a	n/a	n/a	n/a	n/a	n/a	n/a
95.4939	0.5167	FIXCROSS	n/a	n/a	n/a	n/a	n/a	n/a	n/a	n/a
96.0106	0.6	INK	27	Incongruent	czerwony	red	niebieski	blue	hit	n/a
96.5773	n/a	RESPONSE	n/a	n/a	n/a	n/a	n/a	n/a	n/a	blue
96.6106	1.0167	ITI	n/a	n/a	n/a	n/a	n/a	n/a	n/a	n/a
97.6273	0.5167	FIXCROSS	n/a	n/a	n/a	n/a	n/a	n/a	n/a	n/a
98.144	0.7333	INK	28	Incongruent	żółty	yellow	zielony	green	hit	n/a
98.8468	n/a	RESPONSE	n/a	n/a	n/a	n/a	n/a	n/a	n/a	green
98.8773	1.0167	ITI	n/a	n/a	n/a	n/a	n/a	n/a	n/a	n/a
99.894	0.5167	FIXCROSS	n/a	n/a	n/a	n/a	n/a	n/a	n/a	n/a
100.4106	0.75	INK	29	Incongruent	zielony	green	czerwony	red	hit	n/a
101.1321	n/a	RESPONSE	n/a	n/a	n/a	n/a	n/a	n/a	n/a	red
101.1607	1.0167	ITI	n/a	n/a	n/a	n/a	n/a	n/a	n/a	n/a
102.1773	0.5167	FIXCROSS	n/a	n/a	n/a	n/a	n/a	n/a	n/a	n/a
102.694	0.6	INK	30	Neutral	xxxxxxxx	xxxxxxxx	niebieski	blue	hit	n/a
103.2738	n/a	RESPONSE	n/a	n/a	n/a	n/a	n/a	n/a	n/a	blue
103.294	1.0167	ITI	n/a	n/a	n/a	n/a	n/a	n/a	n/a	n/a
104.3107	0.5167	FIXCROSS	n/a	n/a	n/a	n/a	n/a	n/a	n/a	n/a
104.8273	0.6167	INK	31	Neutral	xxxxxxx	xxxxxxx	żółty	yellow	hit	n/a
105.4153	n/a	RESPONSE	n/a	n/a	n/a	n/a	n/a	n/a	n/a	yellow
105.444	1.0167	ITI	n/a	n/a	n/a	n/a	n/a	n/a	n/a	n/a
106.4607	0.5167	FIXCROSS	n/a	n/a	n/a	n/a	n/a	n/a	n/a	n/a
106.9774	0.6	INK	32	Incongruent	żółty	yellow	zielony	green	hit	n/a
107.5568	n/a	RESPONSE	n/a	n/a	n/a	n/a	n/a	n/a	n/a	green
107.5774	1.0167	ITI	n/a	n/a	n/a	n/a	n/a	n/a	n/a	n/a
108.594	0.5167	FIXCROSS	n/a	n/a	n/a	n/a	n/a	n/a	n/a	n/a
109.1107	0.8	INK	33	Incongruent	zielony	green	czerwony	red	hit	n/a
109.8902	n/a	RESPONSE	n/a	n/a	n/a	n/a	n/a	n/a	n/a	red
109.9107	1.0167	ITI	n/a	n/a	n/a	n/a	n/a	n/a	n/a	n/a
110.9274	0.5167	FIXCROSS	n/a	n/a	n/a	n/a	n/a	n/a	n/a	n/a
111.4441	0.65	INK	34	Neutral	xxxxxxxxx	xxxxxxxxx	zielony	green	hit	n/a
112.0638	n/a	RESPONSE	n/a	n/a	n/a	n/a	n/a	n/a	n/a	green
112.0941	1.0167	ITI	n/a	n/a	n/a	n/a	n/a	n/a	n/a	n/a
113.1107	0.5167	FIXCROSS	n/a	n/a	n/a	n/a	n/a	n/a	n/a	n/a
113.6274	0.5167	INK	35	Incongruent	czerwony	red	zielony	green	hit	n/a
114.1254	n/a	RESPONSE	n/a	n/a	n/a	n/a	n/a	n/a	n/a	green
114.1441	1.0167	ITI	n/a	n/a	n/a	n/a	n/a	n/a	n/a	n/a
115.1608	0.5167	FIXCROSS	n/a	n/a	n/a	n/a	n/a	n/a	n/a	n/a
115.6774	0.8333	INK	36	Neutral	xxxxxxx	xxxxxxx	żółty	yellow	hit	n/a
116.4907	n/a	RESPONSE	n/a	n/a	n/a	n/a	n/a	n/a	n/a	yellow
116.5108	1.0167	ITI	n/a	n/a	n/a	n/a	n/a	n/a	n/a	n/a
117.5274	0.5167	FIXCROSS	n/a	n/a	n/a	n/a	n/a	n/a	n/a	n/a
118.0441	0.75	INK	37	Neutral	xxxxxxx	xxxxxxx	czerwony	red	hit	n/a
118.7761	n/a	RESPONSE	n/a	n/a	n/a	n/a	n/a	n/a	n/a	red
118.7941	1.0167	ITI	n/a	n/a	n/a	n/a	n/a	n/a	n/a	n/a
119.8108	0.5167	FIXCROSS	n/a	n/a	n/a	n/a	n/a	n/a	n/a	n/a
120.3275	0.75	INK	38	Incongruent	zielony	green	niebieski	blue	hit	n/a
121.0454	n/a	RESPONSE	n/a	n/a	n/a	n/a	n/a	n/a	n/a	blue
121.0775	1.0167	ITI	n/a	n/a	n/a	n/a	n/a	n/a	n/a	n/a
122.0941	0.5167	FIXCROSS	n/a	n/a	n/a	n/a	n/a	n/a	n/a	n/a
122.6108	0.75	INK	39	Incongruent	niebieski	blue	zielony	green	hit	n/a
123.3309	n/a	RESPONSE	n/a	n/a	n/a	n/a	n/a	n/a	n/a	green
123.3608	1.0167	ITI	n/a	n/a	n/a	n/a	n/a	n/a	n/a	n/a
124.3775	0.5167	FIXCROSS	n/a	n/a	n/a	n/a	n/a	n/a	n/a	n/a
124.8942	0.6333	INK	40	Neutral	xxxxxxxx	xxxxxxxx	żółty	yellow	hit	n/a
125.5044	n/a	RESPONSE	n/a	n/a	n/a	n/a	n/a	n/a	n/a	yellow
125.5275	1.0167	ITI	n/a	n/a	n/a	n/a	n/a	n/a	n/a	n/a
126.5442	0.5167	FIXCROSS	n/a	n/a	n/a	n/a	n/a	n/a	n/a	n/a
127.0609	0.75	INK	41	Neutral	xxxxx	xxxxx	czerwony	red	hit	n/a
127.7897	n/a	RESPONSE	n/a	n/a	n/a	n/a	n/a	n/a	n/a	red
127.8108	1.0167	ITI	n/a	n/a	n/a	n/a	n/a	n/a	n/a	n/a
128.8275	0.5167	FIXCROSS	n/a	n/a	n/a	n/a	n/a	n/a	n/a	n/a
129.3442	0.5833	INK	42	Incongruent	niebieski	blue	czerwony	red	hit	n/a
129.8993	n/a	RESPONSE	n/a	n/a	n/a	n/a	n/a	n/a	n/a	red
129.9275	1.0167	ITI	n/a	n/a	n/a	n/a	n/a	n/a	n/a	n/a
130.9442	0.5167	FIXCROSS	n/a	n/a	n/a	n/a	n/a	n/a	n/a	n/a
131.4609	0.7333	INK	43	Incongruent	niebieski	blue	żółty	yellow	hit	n/a
132.1688	n/a	RESPONSE	n/a	n/a	n/a	n/a	n/a	n/a	n/a	yellow
132.1942	1.0167	ITI	n/a	n/a	n/a	n/a	n/a	n/a	n/a	n/a
133.2109	0.5167	FIXCROSS	n/a	n/a	n/a	n/a	n/a	n/a	n/a	n/a
133.7276	0.8667	INK	44	Neutral	xxxxxxxx	xxxxxxxx	niebieski	blue	hit	n/a
134.566	n/a	RESPONSE	n/a	n/a	n/a	n/a	n/a	n/a	n/a	blue
134.5942	1.0167	ITI	n/a	n/a	n/a	n/a	n/a	n/a	n/a	n/a
135.6109	0.5167	FIXCROSS	n/a	n/a	n/a	n/a	n/a	n/a	n/a	n/a
136.1276	0.6167	INK	45	Incongruent	czerwony	red	niebieski	blue	hit	n/a
136.7236	n/a	RESPONSE	n/a	n/a	n/a	n/a	n/a	n/a	n/a	blue
136.7443	1.0167	ITI	n/a	n/a	n/a	n/a	n/a	n/a	n/a	n/a
137.7609	0.5167	FIXCROSS	n/a	n/a	n/a	n/a	n/a	n/a	n/a	n/a
138.2776	0.6334	INK	46	Neutral	xxxxx	xxxxx	zielony	green	hit	n/a
138.8811	n/a	RESPONSE	n/a	n/a	n/a	n/a	n/a	n/a	n/a	green
138.9109	1.0167	ITI	n/a	n/a	n/a	n/a	n/a	n/a	n/a	n/a
139.9276	0.5167	FIXCROSS	n/a	n/a	n/a	n/a	n/a	n/a	n/a	n/a
140.4443	0.7333	INK	47	Neutral	xxxxxxxxx	xxxxxxxxx	zielony	green	hit	n/a
141.1506	n/a	RESPONSE	n/a	n/a	n/a	n/a	n/a	n/a	n/a	green
141.1776	1.0167	ITI	n/a	n/a	n/a	n/a	n/a	n/a	n/a	n/a
142.1943	0.5167	FIXCROSS	n/a	n/a	n/a	n/a	n/a	n/a	n/a	n/a
142.711	0.7167	INK	48	Neutral	xxxxxxxx	xxxxxxxx	żółty	yellow	hit	n/a
143.404	n/a	RESPONSE	n/a	n/a	n/a	n/a	n/a	n/a	n/a	yellow
143.4276	1.0167	ITI	n/a	n/a	n/a	n/a	n/a	n/a	n/a	n/a
144.4443	0.5167	FIXCROSS	n/a	n/a	n/a	n/a	n/a	n/a	n/a	n/a
144.961	0.6167	INK	49	Neutral	xxxxxxxx	xxxxxxxx	zielony	green	hit	n/a
145.5455	n/a	RESPONSE	n/a	n/a	n/a	n/a	n/a	n/a	n/a	green
145.5776	1.0167	ITI	n/a	n/a	n/a	n/a	n/a	n/a	n/a	n/a
146.5943	0.5167	FIXCROSS	n/a	n/a	n/a	n/a	n/a	n/a	n/a	n/a
147.111	0.7167	INK	50	Incongruent	czerwony	red	żółty	yellow	hit	n/a
147.799	n/a	RESPONSE	n/a	n/a	n/a	n/a	n/a	n/a	n/a	yellow
147.8277	1.0167	ITI	n/a	n/a	n/a	n/a	n/a	n/a	n/a	n/a
148.8443	0.5167	FIXCROSS	n/a	n/a	n/a	n/a	n/a	n/a	n/a	n/a
149.361	0.7667	INK	51	Neutral	xxxxxxxxx	xxxxxxxxx	zielony	green	hit	n/a
150.1003	n/a	RESPONSE	n/a	n/a	n/a	n/a	n/a	n/a	n/a	green
150.1277	1.0167	ITI	n/a	n/a	n/a	n/a	n/a	n/a	n/a	n/a
151.1443	0.5167	FIXCROSS	n/a	n/a	n/a	n/a	n/a	n/a	n/a	n/a
151.661	0.5667	INK	52	Incongruent	zielony	green	żółty	yellow	hit	n/a
152.2099	n/a	RESPONSE	n/a	n/a	n/a	n/a	n/a	n/a	n/a	yellow
152.2277	1.0167	ITI	n/a	n/a	n/a	n/a	n/a	n/a	n/a	n/a
153.2444	0.5167	FIXCROSS	n/a	n/a	n/a	n/a	n/a	n/a	n/a	n/a
153.761	0.5833	INK	53	Neutral	xxxxxxx	xxxxxxx	niebieski	blue	hit	n/a
154.3195	n/a	RESPONSE	n/a	n/a	n/a	n/a	n/a	n/a	n/a	blue
154.3444	1.0167	ITI	n/a	n/a	n/a	n/a	n/a	n/a	n/a	n/a
155.361	0.5167	FIXCROSS	n/a	n/a	n/a	n/a	n/a	n/a	n/a	n/a
155.8777	0.7667	INK	54	Incongruent	niebieski	blue	zielony	green	hit	n/a
156.6208	n/a	RESPONSE	n/a	n/a	n/a	n/a	n/a	n/a	n/a	green
156.6444	1.0167	ITI	n/a	n/a	n/a	n/a	n/a	n/a	n/a	n/a
157.6611	0.5167	FIXCROSS	n/a	n/a	n/a	n/a	n/a	n/a	n/a	n/a
158.1777	0.7167	INK	55	Incongruent	żółty	yellow	czerwony	red	hit	n/a
158.8743	n/a	RESPONSE	n/a	n/a	n/a	n/a	n/a	n/a	n/a	red
158.8944	1.0167	ITI	n/a	n/a	n/a	n/a	n/a	n/a	n/a	n/a
159.9111	0.5167	FIXCROSS	n/a	n/a	n/a	n/a	n/a	n/a	n/a	n/a
160.4278	0.6833	INK	56	Neutral	xxxxxxxx	xxxxxxxx	niebieski	blue	hit	n/a
161.0798	n/a	RESPONSE	n/a	n/a	n/a	n/a	n/a	n/a	n/a	blue
161.1111	1.0167	ITI	n/a	n/a	n/a	n/a	n/a	n/a	n/a	n/a
162.1278	0.5167	FIXCROSS	n/a	n/a	n/a	n/a	n/a	n/a	n/a	n/a
162.6444	0.4333	INK	57	Neutral	xxxxx	xxxxx	zielony	green	hit	n/a
163.0455	n/a	RESPONSE	n/a	n/a	n/a	n/a	n/a	n/a	n/a	green
163.0778	1.0167	ITI	n/a	n/a	n/a	n/a	n/a	n/a	n/a	n/a
164.0944	0.5167	FIXCROSS	n/a	n/a	n/a	n/a	n/a	n/a	n/a	n/a
164.6111	0.6167	INK	58	Incongruent	żółty	yellow	niebieski	blue	hit	n/a
165.2031	n/a	RESPONSE	n/a	n/a	n/a	n/a	n/a	n/a	n/a	blue
165.2278	1.0167	ITI	n/a	n/a	n/a	n/a	n/a	n/a	n/a	n/a
166.2445	0.5167	FIXCROSS	n/a	n/a	n/a	n/a	n/a	n/a	n/a	n/a
166.7611	0.85	INK	59	Neutral	xxxxx	xxxxx	zielony	green	hit	n/a
167.5845	n/a	RESPONSE	n/a	n/a	n/a	n/a	n/a	n/a	n/a	green
167.6111	1.0167	ITI	n/a	n/a	n/a	n/a	n/a	n/a	n/a	n/a
168.6278	0.5167	FIXCROSS	n/a	n/a	n/a	n/a	n/a	n/a	n/a	n/a
169.1445	0.65	INK	60	Incongruent	niebieski	blue	żółty	yellow	hit	n/a
169.774	n/a	RESPONSE	n/a	n/a	n/a	n/a	n/a	n/a	n/a	yellow
169.7945	1.0167	ITI	n/a	n/a	n/a	n/a	n/a	n/a	n/a	n/a
170.8112	0.5167	FIXCROSS	n/a	n/a	n/a	n/a	n/a	n/a	n/a	n/a
171.3278	0.35	INK	61	Neutral	xxxxxxxxx	xxxxxxxxx	czerwony	red	hit	n/a
171.6598	n/a	RESPONSE	n/a	n/a	n/a	n/a	n/a	n/a	n/a	red
171.6778	1.0167	ITI	n/a	n/a	n/a	n/a	n/a	n/a	n/a	n/a
172.6945	0.5167	FIXCROSS	n/a	n/a	n/a	n/a	n/a	n/a	n/a	n/a
173.2112	0.7333	INK	62	Incongruent	niebieski	blue	czerwony	red	hit	n/a
173.9133	n/a	RESPONSE	n/a	n/a	n/a	n/a	n/a	n/a	n/a	red
173.9445	1.0167	ITI	n/a	n/a	n/a	n/a	n/a	n/a	n/a	n/a
174.9612	0.5167	FIXCROSS	n/a	n/a	n/a	n/a	n/a	n/a	n/a	n/a
175.4779	0.55	INK	63	Incongruent	czerwony	red	niebieski	blue	hit	n/a
176.0069	n/a	RESPONSE	n/a	n/a	n/a	n/a	n/a	n/a	n/a	blue
176.0279	1.0167	ITI	n/a	n/a	n/a	n/a	n/a	n/a	n/a	n/a
177.0445	0.5167	FIXCROSS	n/a	n/a	n/a	n/a	n/a	n/a	n/a	n/a
177.5612	0.4167	INK	64	Neutral	xxxxx	xxxxx	niebieski	blue	hit	n/a
177.9566	n/a	RESPONSE	n/a	n/a	n/a	n/a	n/a	n/a	n/a	blue
177.9779	1.0167	ITI	n/a	n/a	n/a	n/a	n/a	n/a	n/a	n/a
178.9946	0.5167	FIXCROSS	n/a	n/a	n/a	n/a	n/a	n/a	n/a	n/a
179.5112	0.7167	INK	65	Incongruent	żółty	yellow	niebieski	blue	hit	n/a
180.1941	n/a	RESPONSE	n/a	n/a	n/a	n/a	n/a	n/a	n/a	blue
180.2279	1.0167	ITI	n/a	n/a	n/a	n/a	n/a	n/a	n/a	n/a
181.2446	0.5167	FIXCROSS	n/a	n/a	n/a	n/a	n/a	n/a	n/a	n/a
181.7612	0.4833	INK	66	Neutral	xxxxxxxx	xxxxxxxx	zielony	green	hit	n/a
182.2238	n/a	RESPONSE	n/a	n/a	n/a	n/a	n/a	n/a	n/a	green
182.2446	1.0167	ITI	n/a	n/a	n/a	n/a	n/a	n/a	n/a	n/a
183.2612	0.5167	FIXCROSS	n/a	n/a	n/a	n/a	n/a	n/a	n/a	n/a
183.7779	0.7333	INK	67	Incongruent	żółty	yellow	czerwony	red	hit	n/a
184.4932	n/a	RESPONSE	n/a	n/a	n/a	n/a	n/a	n/a	n/a	red
184.5113	1.0167	ITI	n/a	n/a	n/a	n/a	n/a	n/a	n/a	n/a
185.5279	0.5167	FIXCROSS	n/a	n/a	n/a	n/a	n/a	n/a	n/a	n/a
186.0446	0.6833	INK	68	Incongruent	zielony	green	czerwony	red	hit	n/a
186.6988	n/a	RESPONSE	n/a	n/a	n/a	n/a	n/a	n/a	n/a	red
186.7279	1.0167	ITI	n/a	n/a	n/a	n/a	n/a	n/a	n/a	n/a
187.7446	0.5167	FIXCROSS	n/a	n/a	n/a	n/a	n/a	n/a	n/a	n/a
188.2613	0.7833	INK	69	Incongruent	czerwony	red	żółty	yellow	hit	n/a
189.0161	n/a	RESPONSE	n/a	n/a	n/a	n/a	n/a	n/a	n/a	yellow
189.0446	1.0167	ITI	n/a	n/a	n/a	n/a	n/a	n/a	n/a	n/a
190.0613	0.5167	FIXCROSS	n/a	n/a	n/a	n/a	n/a	n/a	n/a	n/a
190.578	0.75	INK	70	Neutral	xxxxxxx	xxxxxxx	czerwony	red	hit	n/a
191.3015	n/a	RESPONSE	n/a	n/a	n/a	n/a	n/a	n/a	n/a	red
191.328	1.0167	ITI	n/a	n/a	n/a	n/a	n/a	n/a	n/a	n/a
192.3446	0.5167	FIXCROSS	n/a	n/a	n/a	n/a	n/a	n/a	n/a	n/a
192.8613	0.7667	INK	71	Incongruent	zielony	green	niebieski	blue	hit	n/a
193.6028	n/a	RESPONSE	n/a	n/a	n/a	n/a	n/a	n/a	n/a	blue
193.628	1.0167	ITI	n/a	n/a	n/a	n/a	n/a	n/a	n/a	n/a
194.6447	0.5167	FIXCROSS	n/a	n/a	n/a	n/a	n/a	n/a	n/a	n/a
195.1613	0.7	INK	72	Neutral	xxxxxxx	xxxxxxx	czerwony	red	hit	n/a
195.8402	n/a	RESPONSE	n/a	n/a	n/a	n/a	n/a	n/a	n/a	red
195.8613	1.0833	ITI	n/a	n/a	n/a	n/a	n/a	n/a	n/a	n/a
218.2148	n/a	RESPONSE	n/a	n/a	n/a	n/a	n/a	n/a	n/a	n/a
218.2782	1.0166	ITI	n/a	n/a	n/a	n/a	n/a	n/a	n/a	n/a
219.2948	0.5167	FIXCROSS	n/a	n/a	n/a	n/a	n/a	n/a	n/a	n/a
219.8115	1.0	T_COLOR_NAME	1	Neutral	zielony	green	Neutral	Neutral	hit	n/a
220.7879	n/a	RESPONSE	n/a	n/a	n/a	n/a	n/a	n/a	n/a	green
220.8115	0.5167	FEEDBACK	n/a	n/a	n/a	n/a	n/a	n/a	n/a	n/a
221.3282	1.0167	ITI	n/a	n/a	n/a	n/a	n/a	n/a	n/a	n/a
222.3449	0.5167	FIXCROSS	n/a	n/a	n/a	n/a	n/a	n/a	n/a	n/a
222.8615	0.8333	T_COLOR_NAME	2	Incongruent	czerwony	red	zielony	green	hit	n/a
223.6646	n/a	RESPONSE	n/a	n/a	n/a	n/a	n/a	n/a	n/a	red
223.6949	0.5167	FEEDBACK	n/a	n/a	n/a	n/a	n/a	n/a	n/a	n/a
224.2115	1.0167	ITI	n/a	n/a	n/a	n/a	n/a	n/a	n/a	n/a
225.2282	0.5167	FIXCROSS	n/a	n/a	n/a	n/a	n/a	n/a	n/a	n/a
225.7449	0.65	T_COLOR_NAME	3	Incongruent	zielony	green	niebieski	blue	hit	n/a
226.3655	n/a	RESPONSE	n/a	n/a	n/a	n/a	n/a	n/a	n/a	green
226.3949	0.5167	FEEDBACK	n/a	n/a	n/a	n/a	n/a	n/a	n/a	n/a
226.9116	1.0167	ITI	n/a	n/a	n/a	n/a	n/a	n/a	n/a	n/a
227.9282	0.5167	FIXCROSS	n/a	n/a	n/a	n/a	n/a	n/a	n/a	n/a
228.4449	0.7167	T_COLOR_NAME	4	Neutral	niebieski	blue	Neutral	Neutral	hit	n/a
229.1304	n/a	RESPONSE	n/a	n/a	n/a	n/a	n/a	n/a	n/a	blue
229.1616	0.5167	FEEDBACK	n/a	n/a	n/a	n/a	n/a	n/a	n/a	n/a
229.6782	1.0167	ITI	n/a	n/a	n/a	n/a	n/a	n/a	n/a	n/a
230.6949	0.5167	FIXCROSS	n/a	n/a	n/a	n/a	n/a	n/a	n/a	n/a
231.2116	0.5667	T_COLOR_NAME	5	Neutral	niebieski	blue	Neutral	Neutral	hit	n/a
231.7513	n/a	RESPONSE	n/a	n/a	n/a	n/a	n/a	n/a	n/a	blue
231.7783	0.5167	FEEDBACK	n/a	n/a	n/a	n/a	n/a	n/a	n/a	n/a
232.2949	1.0167	ITI	n/a	n/a	n/a	n/a	n/a	n/a	n/a	n/a
233.3116	0.5167	FIXCROSS	n/a	n/a	n/a	n/a	n/a	n/a	n/a	n/a
233.8283	0.85	T_COLOR_NAME	6	Neutral	czerwony	red	Neutral	Neutral	hit	n/a
234.6441	n/a	RESPONSE	n/a	n/a	n/a	n/a	n/a	n/a	n/a	red
234.6783	0.5167	FEEDBACK	n/a	n/a	n/a	n/a	n/a	n/a	n/a	n/a
235.195	1.0167	ITI	n/a	n/a	n/a	n/a	n/a	n/a	n/a	n/a
236.2116	0.5167	FIXCROSS	n/a	n/a	n/a	n/a	n/a	n/a	n/a	n/a
236.7283	0.9	T_COLOR_NAME	7	Incongruent	czerwony	red	żółty	yellow	hit	n/a
237.6008	n/a	RESPONSE	n/a	n/a	n/a	n/a	n/a	n/a	n/a	red
237.6283	0.5167	FEEDBACK	n/a	n/a	n/a	n/a	n/a	n/a	n/a	n/a
238.145	1.0167	ITI	n/a	n/a	n/a	n/a	n/a	n/a	n/a	n/a
239.1617	0.5167	FIXCROSS	n/a	n/a	n/a	n/a	n/a	n/a	n/a	n/a
239.6783	0.7167	T_COLOR_NAME	8	Neutral	żółty	yellow	Neutral	Neutral	hit	n/a
240.3656	n/a	RESPONSE	n/a	n/a	n/a	n/a	n/a	n/a	n/a	yellow
240.395	0.5167	FEEDBACK	n/a	n/a	n/a	n/a	n/a	n/a	n/a	n/a
240.9117	1.0167	ITI	n/a	n/a	n/a	n/a	n/a	n/a	n/a	n/a
241.9283	0.5167	FIXCROSS	n/a	n/a	n/a	n/a	n/a	n/a	n/a	n/a
242.445	0.3833	T_COLOR_NAME	9	Incongruent	żółty	yellow	niebieski	blue	hit	n/a
242.7948	n/a	RESPONSE	n/a	n/a	n/a	n/a	n/a	n/a	n/a	yellow
242.8283	0.5167	FEEDBACK	n/a	n/a	n/a	n/a	n/a	n/a	n/a	n/a
243.345	1.0167	ITI	n/a	n/a	n/a	n/a	n/a	n/a	n/a	n/a
244.3617	0.5167	FIXCROSS	n/a	n/a	n/a	n/a	n/a	n/a	n/a	n/a
244.8784	0.7	T_COLOR_NAME	10	Incongruent	żółty	yellow	czerwony	red	hit	n/a
245.5437	n/a	RESPONSE	n/a	n/a	n/a	n/a	n/a	n/a	n/a	yellow
245.5784	0.5167	FEEDBACK	n/a	n/a	n/a	n/a	n/a	n/a	n/a	n/a
246.095	1.0167	ITI	n/a	n/a	n/a	n/a	n/a	n/a	n/a	n/a
247.1117	0.5167	FIXCROSS	n/a	n/a	n/a	n/a	n/a	n/a	n/a	n/a
247.6284	0.85	T_COLOR_NAME	11	Neutral	zielony	green	Neutral	Neutral	hit	n/a
248.4524	n/a	RESPONSE	n/a	n/a	n/a	n/a	n/a	n/a	n/a	green
248.4784	0.5167	FEEDBACK	n/a	n/a	n/a	n/a	n/a	n/a	n/a	n/a
248.9951	1.0167	ITI	n/a	n/a	n/a	n/a	n/a	n/a	n/a	n/a
250.0117	0.5167	FIXCROSS	n/a	n/a	n/a	n/a	n/a	n/a	n/a	n/a
250.5284	0.8166	T_COLOR_NAME	12	Incongruent	niebieski	blue	zielony	green	hit	n/a
251.3131	n/a	RESPONSE	n/a	n/a	n/a	n/a	n/a	n/a	n/a	blue
251.345	0.5167	FEEDBACK	n/a	n/a	n/a	n/a	n/a	n/a	n/a	n/a
251.8617	1.0333	ITI	n/a	n/a	n/a	n/a	n/a	n/a	n/a	n/a
258.8565	n/a	RESPONSE	n/a	n/a	n/a	n/a	n/a	n/a	n/a	n/a
258.9118	1.0167	ITI	n/a	n/a	n/a	n/a	n/a	n/a	n/a	n/a
259.9285	0.5167	FIXCROSS	n/a	n/a	n/a	n/a	n/a	n/a	n/a	n/a
260.4451	0.9333	COLOR_NAME	1	Neutral	żółty	yellow	Neutral	Neutral	hit	n/a
261.3497	n/a	RESPONSE	n/a	n/a	n/a	n/a	n/a	n/a	n/a	yellow
261.3785	1.0167	ITI	n/a	n/a	n/a	n/a	n/a	n/a	n/a	n/a
262.3951	0.5167	FIXCROSS	n/a	n/a	n/a	n/a	n/a	n/a	n/a	n/a
262.9118	1.0167	COLOR_NAME	2	Neutral	czerwony	red	Neutral	Neutral	hit	n/a
263.907	n/a	RESPONSE	n/a	n/a	n/a	n/a	n/a	n/a	n/a	red
263.9285	1.0167	ITI	n/a	n/a	n/a	n/a	n/a	n/a	n/a	n/a
264.9452	0.5167	FIXCROSS	n/a	n/a	n/a	n/a	n/a	n/a	n/a	n/a
265.4618	0.6667	COLOR_NAME	3	Incongruent	czerwony	red	niebieski	blue	hit	n/a
266.0964	n/a	RESPONSE	n/a	n/a	n/a	n/a	n/a	n/a	n/a	red
266.1285	1.0167	ITI	n/a	n/a	n/a	n/a	n/a	n/a	n/a	n/a
267.1452	0.5167	FIXCROSS	n/a	n/a	n/a	n/a	n/a	n/a	n/a	n/a
267.6618	0.5333	COLOR_NAME	4	Neutral	żółty	yellow	Neutral	Neutral	hit	n/a
268.174	n/a	RESPONSE	n/a	n/a	n/a	n/a	n/a	n/a	n/a	yellow
268.1952	1.0167	ITI	n/a	n/a	n/a	n/a	n/a	n/a	n/a	n/a
269.2119	0.5167	FIXCROSS	n/a	n/a	n/a	n/a	n/a	n/a	n/a	n/a
269.7285	0.7167	COLOR_NAME	5	Incongruent	żółty	yellow	czerwony	red	hit	n/a
270.4275	n/a	RESPONSE	n/a	n/a	n/a	n/a	n/a	n/a	n/a	yellow
270.4452	1.0167	ITI	n/a	n/a	n/a	n/a	n/a	n/a	n/a	n/a
271.4619	0.5167	FIXCROSS	n/a	n/a	n/a	n/a	n/a	n/a	n/a	n/a
271.9785	0.7833	COLOR_NAME	6	Neutral	zielony	green	Neutral	Neutral	hit	n/a
272.7289	n/a	RESPONSE	n/a	n/a	n/a	n/a	n/a	n/a	n/a	green
272.7619	1.0167	ITI	n/a	n/a	n/a	n/a	n/a	n/a	n/a	n/a
273.7786	0.5167	FIXCROSS	n/a	n/a	n/a	n/a	n/a	n/a	n/a	n/a
274.2952	0.7333	COLOR_NAME	7	Neutral	żółty	yellow	Neutral	Neutral	hit	n/a
274.9983	n/a	RESPONSE	n/a	n/a	n/a	n/a	n/a	n/a	n/a	yellow
275.0286	1.0167	ITI	n/a	n/a	n/a	n/a	n/a	n/a	n/a	n/a
276.0452	0.5167	FIXCROSS	n/a	n/a	n/a	n/a	n/a	n/a	n/a	n/a
276.5619	0.6667	COLOR_NAME	8	Incongruent	zielony	green	niebieski	blue	hit	n/a
277.2038	n/a	RESPONSE	n/a	n/a	n/a	n/a	n/a	n/a	n/a	green
277.2286	1.0167	ITI	n/a	n/a	n/a	n/a	n/a	n/a	n/a	n/a
278.2453	0.5167	FIXCROSS	n/a	n/a	n/a	n/a	n/a	n/a	n/a	n/a
278.7619	0.7833	COLOR_NAME	9	Neutral	czerwony	red	Neutral	Neutral	hit	n/a
279.5212	n/a	RESPONSE	n/a	n/a	n/a	n/a	n/a	n/a	n/a	red
279.5453	1.0167	ITI	n/a	n/a	n/a	n/a	n/a	n/a	n/a	n/a
280.5619	0.5167	FIXCROSS	n/a	n/a	n/a	n/a	n/a	n/a	n/a	n/a
281.0786	0.55	COLOR_NAME	10	Incongruent	czerwony	red	żółty	yellow	hit	n/a
281.5989	n/a	RESPONSE	n/a	n/a	n/a	n/a	n/a	n/a	n/a	red
281.6286	1.0167	ITI	n/a	n/a	n/a	n/a	n/a	n/a	n/a	n/a
282.6453	0.5167	FIXCROSS	n/a	n/a	n/a	n/a	n/a	n/a	n/a	n/a
283.162	0.5833	COLOR_NAME	11	Incongruent	czerwony	red	zielony	green	hit	n/a
283.7245	n/a	RESPONSE	n/a	n/a	n/a	n/a	n/a	n/a	n/a	red
283.7453	1.0167	ITI	n/a	n/a	n/a	n/a	n/a	n/a	n/a	n/a
284.762	0.5167	FIXCROSS	n/a	n/a	n/a	n/a	n/a	n/a	n/a	n/a
285.2786	0.8833	COLOR_NAME	12	Incongruent	zielony	green	żółty	yellow	hit	n/a
286.1377	n/a	RESPONSE	n/a	n/a	n/a	n/a	n/a	n/a	n/a	green
286.162	1.0167	ITI	n/a	n/a	n/a	n/a	n/a	n/a	n/a	n/a
287.1787	0.5167	FIXCROSS	n/a	n/a	n/a	n/a	n/a	n/a	n/a	n/a
287.6953	0.85	COLOR_NAME	13	Incongruent	żółty	yellow	zielony	green	hit	n/a
288.519	n/a	RESPONSE	n/a	n/a	n/a	n/a	n/a	n/a	n/a	yellow
288.5453	1.0167	ITI	n/a	n/a	n/a	n/a	n/a	n/a	n/a	n/a
289.562	0.5167	FIXCROSS	n/a	n/a	n/a	n/a	n/a	n/a	n/a	n/a
290.0787	0.8	COLOR_NAME	14	Neutral	czerwony	red	Neutral	Neutral	hit	n/a
290.8524	n/a	RESPONSE	n/a	n/a	n/a	n/a	n/a	n/a	n/a	red
290.8787	1.0167	ITI	n/a	n/a	n/a	n/a	n/a	n/a	n/a	n/a
291.8954	0.5167	FIXCROSS	n/a	n/a	n/a	n/a	n/a	n/a	n/a	n/a
292.412	0.6667	COLOR_NAME	15	Incongruent	żółty	yellow	niebieski	blue	hit	n/a
293.0579	n/a	RESPONSE	n/a	n/a	n/a	n/a	n/a	n/a	n/a	yellow
293.0787	1.0167	ITI	n/a	n/a	n/a	n/a	n/a	n/a	n/a	n/a
294.0954	0.5167	FIXCROSS	n/a	n/a	n/a	n/a	n/a	n/a	n/a	n/a
294.612	0.7333	COLOR_NAME	16	Incongruent	zielony	green	czerwony	red	hit	n/a
295.3272	n/a	RESPONSE	n/a	n/a	n/a	n/a	n/a	n/a	n/a	green
295.3454	1.0167	ITI	n/a	n/a	n/a	n/a	n/a	n/a	n/a	n/a
296.3621	0.5167	FIXCROSS	n/a	n/a	n/a	n/a	n/a	n/a	n/a	n/a
296.8787	0.7167	COLOR_NAME	17	Incongruent	zielony	green	żółty	yellow	hit	n/a
297.5647	n/a	RESPONSE	n/a	n/a	n/a	n/a	n/a	n/a	n/a	green
297.5954	1.0167	ITI	n/a	n/a	n/a	n/a	n/a	n/a	n/a	n/a
298.6121	0.5167	FIXCROSS	n/a	n/a	n/a	n/a	n/a	n/a	n/a	n/a
299.1287	0.75	COLOR_NAME	18	Neutral	niebieski	blue	Neutral	Neutral	hit	n/a
299.8502	n/a	RESPONSE	n/a	n/a	n/a	n/a	n/a	n/a	n/a	blue
299.8787	1.0167	ITI	n/a	n/a	n/a	n/a	n/a	n/a	n/a	n/a
300.8954	0.5167	FIXCROSS	n/a	n/a	n/a	n/a	n/a	n/a	n/a	n/a
301.4121	0.4833	COLOR_NAME	19	Neutral	niebieski	blue	Neutral	Neutral	hit	n/a
301.8639	n/a	RESPONSE	n/a	n/a	n/a	n/a	n/a	n/a	n/a	blue
301.8954	1.0167	ITI	n/a	n/a	n/a	n/a	n/a	n/a	n/a	n/a
302.9121	0.5167	FIXCROSS	n/a	n/a	n/a	n/a	n/a	n/a	n/a	n/a
303.4288	0.7	COLOR_NAME	20	Incongruent	czerwony	red	niebieski	blue	hit	n/a
304.1014	n/a	RESPONSE	n/a	n/a	n/a	n/a	n/a	n/a	n/a	red
304.1288	1.0167	ITI	n/a	n/a	n/a	n/a	n/a	n/a	n/a	n/a
305.1455	0.5167	FIXCROSS	n/a	n/a	n/a	n/a	n/a	n/a	n/a	n/a
305.6621	0.9167	COLOR_NAME	21	Neutral	żółty	yellow	Neutral	Neutral	hit	n/a
306.5466	n/a	RESPONSE	n/a	n/a	n/a	n/a	n/a	n/a	n/a	yellow
306.5788	1.0167	ITI	n/a	n/a	n/a	n/a	n/a	n/a	n/a	n/a
307.5955	0.5167	FIXCROSS	n/a	n/a	n/a	n/a	n/a	n/a	n/a	n/a
308.1121	0.7333	COLOR_NAME	22	Incongruent	czerwony	red	żółty	yellow	hit	n/a
308.816	n/a	RESPONSE	n/a	n/a	n/a	n/a	n/a	n/a	n/a	red
308.8455	1.0167	ITI	n/a	n/a	n/a	n/a	n/a	n/a	n/a	n/a
309.8621	0.5167	FIXCROSS	n/a	n/a	n/a	n/a	n/a	n/a	n/a	n/a
310.3788	0.8167	COLOR_NAME	23	Neutral	żółty	yellow	Neutral	Neutral	hit	n/a
311.1654	n/a	RESPONSE	n/a	n/a	n/a	n/a	n/a	n/a	n/a	yellow
311.1955	1.0167	ITI	n/a	n/a	n/a	n/a	n/a	n/a	n/a	n/a
312.2122	0.5167	FIXCROSS	n/a	n/a	n/a	n/a	n/a	n/a	n/a	n/a
312.7288	0.6167	COLOR_NAME	24	Neutral	zielony	green	Neutral	Neutral	hit	n/a
313.323	n/a	RESPONSE	n/a	n/a	n/a	n/a	n/a	n/a	n/a	green
313.3455	1.0167	ITI	n/a	n/a	n/a	n/a	n/a	n/a	n/a	n/a
314.3622	0.5167	FIXCROSS	n/a	n/a	n/a	n/a	n/a	n/a	n/a	n/a
314.8788	0.7667	COLOR_NAME	25	Neutral	niebieski	blue	Neutral	Neutral	hit	n/a
315.6245	n/a	RESPONSE	n/a	n/a	n/a	n/a	n/a	n/a	n/a	blue
315.6455	1.0167	ITI	n/a	n/a	n/a	n/a	n/a	n/a	n/a	n/a
316.6622	0.5167	FIXCROSS	n/a	n/a	n/a	n/a	n/a	n/a	n/a	n/a
317.1789	0.8167	COLOR_NAME	26	Incongruent	żółty	yellow	czerwony	red	hit	n/a
317.9738	n/a	RESPONSE	n/a	n/a	n/a	n/a	n/a	n/a	n/a	yellow
317.9955	1.0167	ITI	n/a	n/a	n/a	n/a	n/a	n/a	n/a	n/a
319.0122	0.5167	FIXCROSS	n/a	n/a	n/a	n/a	n/a	n/a	n/a	n/a
319.5289	0.6333	COLOR_NAME	27	Incongruent	niebieski	blue	zielony	green	hit	n/a
320.1313	n/a	RESPONSE	n/a	n/a	n/a	n/a	n/a	n/a	n/a	blue
320.1622	1.0167	ITI	n/a	n/a	n/a	n/a	n/a	n/a	n/a	n/a
321.1789	0.5167	FIXCROSS	n/a	n/a	n/a	n/a	n/a	n/a	n/a	n/a
321.6956	0.7667	COLOR_NAME	28	Neutral	czerwony	red	Neutral	Neutral	hit	n/a
322.4326	n/a	RESPONSE	n/a	n/a	n/a	n/a	n/a	n/a	n/a	red
322.4622	1.0167	ITI	n/a	n/a	n/a	n/a	n/a	n/a	n/a	n/a
323.4789	0.5167	FIXCROSS	n/a	n/a	n/a	n/a	n/a	n/a	n/a	n/a
323.9956	0.6667	COLOR_NAME	29	Neutral	niebieski	blue	Neutral	Neutral	hit	n/a
324.6382	n/a	RESPONSE	n/a	n/a	n/a	n/a	n/a	n/a	n/a	blue
324.6623	1.0167	ITI	n/a	n/a	n/a	n/a	n/a	n/a	n/a	n/a
325.6789	0.5167	FIXCROSS	n/a	n/a	n/a	n/a	n/a	n/a	n/a	n/a
326.1956	0.8333	COLOR_NAME	30	Incongruent	żółty	yellow	niebieski	blue	hit	n/a
327.0035	n/a	RESPONSE	n/a	n/a	n/a	n/a	n/a	n/a	n/a	yellow
327.0289	1.0167	ITI	n/a	n/a	n/a	n/a	n/a	n/a	n/a	n/a
328.0456	0.5167	FIXCROSS	n/a	n/a	n/a	n/a	n/a	n/a	n/a	n/a
328.5623	1.0	COLOR_NAME	31	Neutral	zielony	green	Neutral	Neutral	hit	n/a
329.5287	n/a	RESPONSE	n/a	n/a	n/a	n/a	n/a	n/a	n/a	green
329.5623	1.0167	ITI	n/a	n/a	n/a	n/a	n/a	n/a	n/a	n/a
330.579	0.5167	FIXCROSS	n/a	n/a	n/a	n/a	n/a	n/a	n/a	n/a
331.0956	0.9	COLOR_NAME	32	Neutral	czerwony	red	Neutral	Neutral	hit	n/a
331.9739	n/a	RESPONSE	n/a	n/a	n/a	n/a	n/a	n/a	n/a	red
331.9956	1.0167	ITI	n/a	n/a	n/a	n/a	n/a	n/a	n/a	n/a
333.0123	0.5167	FIXCROSS	n/a	n/a	n/a	n/a	n/a	n/a	n/a	n/a
333.529	0.6833	COLOR_NAME	33	Incongruent	czerwony	red	zielony	green	hit	n/a
334.1795	n/a	RESPONSE	n/a	n/a	n/a	n/a	n/a	n/a	n/a	red
334.2123	1.0167	ITI	n/a	n/a	n/a	n/a	n/a	n/a	n/a	n/a
335.229	0.5167	FIXCROSS	n/a	n/a	n/a	n/a	n/a	n/a	n/a	n/a
335.7457	0.8333	COLOR_NAME	34	Neutral	żółty	yellow	Neutral	Neutral	hit	n/a
336.5607	n/a	RESPONSE	n/a	n/a	n/a	n/a	n/a	n/a	n/a	yellow
336.579	1.0167	ITI	n/a	n/a	n/a	n/a	n/a	n/a	n/a	n/a
337.5957	0.5167	FIXCROSS	n/a	n/a	n/a	n/a	n/a	n/a	n/a	n/a
338.1123	0.65	COLOR_NAME	35	Neutral	zielony	green	Neutral	Neutral	hit	n/a
338.7343	n/a	RESPONSE	n/a	n/a	n/a	n/a	n/a	n/a	n/a	green
338.7623	1.0167	ITI	n/a	n/a	n/a	n/a	n/a	n/a	n/a	n/a
339.779	0.5167	FIXCROSS	n/a	n/a	n/a	n/a	n/a	n/a	n/a	n/a
340.2957	0.9333	COLOR_NAME	36	Incongruent	niebieski	blue	żółty	yellow	hit	n/a
341.2115	n/a	RESPONSE	n/a	n/a	n/a	n/a	n/a	n/a	n/a	blue
341.229	1.0167	ITI	n/a	n/a	n/a	n/a	n/a	n/a	n/a	n/a
342.2457	0.5167	FIXCROSS	n/a	n/a	n/a	n/a	n/a	n/a	n/a	n/a
342.7624	0.8	COLOR_NAME	37	Incongruent	zielony	green	niebieski	blue	hit	n/a
343.5289	n/a	RESPONSE	n/a	n/a	n/a	n/a	n/a	n/a	n/a	green
343.5624	1.0167	ITI	n/a	n/a	n/a	n/a	n/a	n/a	n/a	n/a
344.5791	0.5167	FIXCROSS	n/a	n/a	n/a	n/a	n/a	n/a	n/a	n/a
345.0957	0.9834	COLOR_NAME	38	Incongruent	żółty	yellow	czerwony	red	hit	n/a
346.054	n/a	RESPONSE	n/a	n/a	n/a	n/a	n/a	n/a	n/a	yellow
346.0791	1.0167	ITI	n/a	n/a	n/a	n/a	n/a	n/a	n/a	n/a
347.0957	0.5167	FIXCROSS	n/a	n/a	n/a	n/a	n/a	n/a	n/a	n/a
347.6124	0.9333	COLOR_NAME	39	Neutral	czerwony	red	Neutral	Neutral	hit	n/a
348.5152	n/a	RESPONSE	n/a	n/a	n/a	n/a	n/a	n/a	n/a	red
348.5457	1.0167	ITI	n/a	n/a	n/a	n/a	n/a	n/a	n/a	n/a
349.5624	0.5167	FIXCROSS	n/a	n/a	n/a	n/a	n/a	n/a	n/a	n/a
350.0791	0.95	COLOR_NAME	40	Incongruent	niebieski	blue	zielony	green	hit	n/a
351.0084	n/a	RESPONSE	n/a	n/a	n/a	n/a	n/a	n/a	n/a	blue
351.0291	1.0167	ITI	n/a	n/a	n/a	n/a	n/a	n/a	n/a	n/a
352.0458	0.5167	FIXCROSS	n/a	n/a	n/a	n/a	n/a	n/a	n/a	n/a
352.5624	0.7333	COLOR_NAME	41	Neutral	zielony	green	Neutral	Neutral	hit	n/a
353.2619	n/a	RESPONSE	n/a	n/a	n/a	n/a	n/a	n/a	n/a	green
353.2958	1.0167	ITI	n/a	n/a	n/a	n/a	n/a	n/a	n/a	n/a
354.3125	0.5167	FIXCROSS	n/a	n/a	n/a	n/a	n/a	n/a	n/a	n/a
354.8291	0.5167	COLOR_NAME	42	Neutral	żółty	yellow	Neutral	Neutral	hit	n/a
355.3235	n/a	RESPONSE	n/a	n/a	n/a	n/a	n/a	n/a	n/a	yellow
355.3458	1.0167	ITI	n/a	n/a	n/a	n/a	n/a	n/a	n/a	n/a
356.3625	0.5167	FIXCROSS	n/a	n/a	n/a	n/a	n/a	n/a	n/a	n/a
356.8791	0.6833	COLOR_NAME	43	Incongruent	czerwony	red	zielony	green	hit	n/a
357.545	n/a	RESPONSE	n/a	n/a	n/a	n/a	n/a	n/a	n/a	red
357.5625	1.0167	ITI	n/a	n/a	n/a	n/a	n/a	n/a	n/a	n/a
358.5791	0.5167	FIXCROSS	n/a	n/a	n/a	n/a	n/a	n/a	n/a	n/a
359.0958	0.9667	COLOR_NAME	44	Incongruent	niebieski	blue	czerwony	red	hit	n/a
360.0382	n/a	RESPONSE	n/a	n/a	n/a	n/a	n/a	n/a	n/a	blue
360.0625	1.0167	ITI	n/a	n/a	n/a	n/a	n/a	n/a	n/a	n/a
361.0792	0.5167	FIXCROSS	n/a	n/a	n/a	n/a	n/a	n/a	n/a	n/a
361.5958	0.6167	COLOR_NAME	45	Neutral	zielony	green	Neutral	Neutral	hit	n/a
362.1798	n/a	RESPONSE	n/a	n/a	n/a	n/a	n/a	n/a	n/a	green
362.2125	1.0167	ITI	n/a	n/a	n/a	n/a	n/a	n/a	n/a	n/a
363.2292	0.5167	FIXCROSS	n/a	n/a	n/a	n/a	n/a	n/a	n/a	n/a
363.7459	0.8667	COLOR_NAME	46	Incongruent	niebieski	blue	żółty	yellow	hit	n/a
364.593	n/a	RESPONSE	n/a	n/a	n/a	n/a	n/a	n/a	n/a	blue
364.6125	1.0167	ITI	n/a	n/a	n/a	n/a	n/a	n/a	n/a	n/a
365.6292	0.5167	FIXCROSS	n/a	n/a	n/a	n/a	n/a	n/a	n/a	n/a
366.1459	0.5833	COLOR_NAME	47	Neutral	niebieski	blue	Neutral	Neutral	hit	n/a
366.7027	n/a	RESPONSE	n/a	n/a	n/a	n/a	n/a	n/a	n/a	blue
366.7292	1.0167	ITI	n/a	n/a	n/a	n/a	n/a	n/a	n/a	n/a
367.7459	0.5167	FIXCROSS	n/a	n/a	n/a	n/a	n/a	n/a	n/a	n/a
368.2625	0.5167	COLOR_NAME	48	Neutral	niebieski	blue	Neutral	Neutral	hit	n/a
368.7483	n/a	RESPONSE	n/a	n/a	n/a	n/a	n/a	n/a	n/a	blue
368.7792	1.0167	ITI	n/a	n/a	n/a	n/a	n/a	n/a	n/a	n/a
369.7959	0.5167	FIXCROSS	n/a	n/a	n/a	n/a	n/a	n/a	n/a	n/a
370.3126	0.7167	COLOR_NAME	49	Incongruent	żółty	yellow	niebieski	blue	hit	n/a
371.0018	n/a	RESPONSE	n/a	n/a	n/a	n/a	n/a	n/a	n/a	yellow
371.0292	1.0167	ITI	n/a	n/a	n/a	n/a	n/a	n/a	n/a	n/a
372.0459	0.5167	FIXCROSS	n/a	n/a	n/a	n/a	n/a	n/a	n/a	n/a
372.5626	0.8167	COLOR_NAME	50	Incongruent	zielony	green	czerwony	red	hit	n/a
373.3512	n/a	RESPONSE	n/a	n/a	n/a	n/a	n/a	n/a	n/a	green
373.3793	1.0167	ITI	n/a	n/a	n/a	n/a	n/a	n/a	n/a	n/a
374.3959	0.5167	FIXCROSS	n/a	n/a	n/a	n/a	n/a	n/a	n/a	n/a
374.9126	0.6834	COLOR_NAME	51	Incongruent	zielony	green	czerwony	red	hit	n/a
375.5726	n/a	RESPONSE	n/a	n/a	n/a	n/a	n/a	n/a	n/a	green
375.5959	1.0167	ITI	n/a	n/a	n/a	n/a	n/a	n/a	n/a	n/a
376.6126	0.5167	FIXCROSS	n/a	n/a	n/a	n/a	n/a	n/a	n/a	n/a
377.1293	0.5333	COLOR_NAME	52	Incongruent	żółty	yellow	zielony	green	hit	n/a
377.6342	n/a	RESPONSE	n/a	n/a	n/a	n/a	n/a	n/a	n/a	yellow
377.6626	1.0167	ITI	n/a	n/a	n/a	n/a	n/a	n/a	n/a	n/a
378.6793	0.5167	FIXCROSS	n/a	n/a	n/a	n/a	n/a	n/a	n/a	n/a
379.196	0.7333	COLOR_NAME	53	Incongruent	niebieski	blue	zielony	green	hit	n/a
379.9037	n/a	RESPONSE	n/a	n/a	n/a	n/a	n/a	n/a	n/a	blue
379.9293	1.0167	ITI	n/a	n/a	n/a	n/a	n/a	n/a	n/a	n/a
380.946	0.5167	FIXCROSS	n/a	n/a	n/a	n/a	n/a	n/a	n/a	n/a
381.4626	0.5833	COLOR_NAME	54	Neutral	czerwony	red	Neutral	Neutral	hit	n/a
382.0133	n/a	RESPONSE	n/a	n/a	n/a	n/a	n/a	n/a	n/a	red
382.046	1.0167	ITI	n/a	n/a	n/a	n/a	n/a	n/a	n/a	n/a
383.0626	0.5167	FIXCROSS	n/a	n/a	n/a	n/a	n/a	n/a	n/a	n/a
383.5793	0.4	COLOR_NAME	55	Neutral	czerwony	red	Neutral	Neutral	hit	n/a
383.9472	n/a	RESPONSE	n/a	n/a	n/a	n/a	n/a	n/a	n/a	red
383.9793	1.0167	ITI	n/a	n/a	n/a	n/a	n/a	n/a	n/a	n/a
384.996	0.5167	FIXCROSS	n/a	n/a	n/a	n/a	n/a	n/a	n/a	n/a
385.5127	0.7	COLOR_NAME	56	Neutral	niebieski	blue	Neutral	Neutral	hit	n/a
386.1845	n/a	RESPONSE	n/a	n/a	n/a	n/a	n/a	n/a	n/a	blue
386.2127	1.0167	ITI	n/a	n/a	n/a	n/a	n/a	n/a	n/a	n/a
387.2293	0.5167	FIXCROSS	n/a	n/a	n/a	n/a	n/a	n/a	n/a	n/a
387.746	0.65	COLOR_NAME	57	Neutral	zielony	green	Neutral	Neutral	hit	n/a
388.3741	n/a	RESPONSE	n/a	n/a	n/a	n/a	n/a	n/a	n/a	green
388.396	1.0167	ITI	n/a	n/a	n/a	n/a	n/a	n/a	n/a	n/a
389.4127	0.5167	FIXCROSS	n/a	n/a	n/a	n/a	n/a	n/a	n/a	n/a
389.9294	0.65	COLOR_NAME	58	Neutral	zielony	green	Neutral	Neutral	hit	n/a
390.5476	n/a	RESPONSE	n/a	n/a	n/a	n/a	n/a	n/a	n/a	green
390.5794	1.0167	ITI	n/a	n/a	n/a	n/a	n/a	n/a	n/a	n/a
391.596	0.5167	FIXCROSS	n/a	n/a	n/a	n/a	n/a	n/a	n/a	n/a
392.1127	0.7333	COLOR_NAME	59	Incongruent	żółty	yellow	zielony	green	hit	n/a
392.817	n/a	RESPONSE	n/a	n/a	n/a	n/a	n/a	n/a	n/a	yellow
392.8461	1.0167	ITI	n/a	n/a	n/a	n/a	n/a	n/a	n/a	n/a
393.8627	0.5167	FIXCROSS	n/a	n/a	n/a	n/a	n/a	n/a	n/a	n/a
394.3794	0.75	COLOR_NAME	60	Incongruent	czerwony	red	żółty	yellow	hit	n/a
395.1025	n/a	RESPONSE	n/a	n/a	n/a	n/a	n/a	n/a	n/a	red
395.1294	1.0167	ITI	n/a	n/a	n/a	n/a	n/a	n/a	n/a	n/a
396.1461	0.5167	FIXCROSS	n/a	n/a	n/a	n/a	n/a	n/a	n/a	n/a
396.6628	1.6333	COLOR_NAME	61	Incongruent	czerwony	red	niebieski	blue	hit	n/a
398.2669	n/a	RESPONSE	n/a	n/a	n/a	n/a	n/a	n/a	n/a	red
398.2961	1.0167	ITI	n/a	n/a	n/a	n/a	n/a	n/a	n/a	n/a
399.3128	0.5167	FIXCROSS	n/a	n/a	n/a	n/a	n/a	n/a	n/a	n/a
399.8294	0.5833	COLOR_NAME	62	Neutral	żółty	yellow	Neutral	Neutral	hit	n/a
400.3925	n/a	RESPONSE	n/a	n/a	n/a	n/a	n/a	n/a	n/a	yellow
400.4128	1.0167	ITI	n/a	n/a	n/a	n/a	n/a	n/a	n/a	n/a
401.4294	0.5167	FIXCROSS	n/a	n/a	n/a	n/a	n/a	n/a	n/a	n/a
401.9461	0.8167	COLOR_NAME	63	Incongruent	niebieski	blue	czerwony	red	hit	n/a
402.7418	n/a	RESPONSE	n/a	n/a	n/a	n/a	n/a	n/a	n/a	blue
402.7628	1.0167	ITI	n/a	n/a	n/a	n/a	n/a	n/a	n/a	n/a
403.7795	0.5167	FIXCROSS	n/a	n/a	n/a	n/a	n/a	n/a	n/a	n/a
404.2961	1.2	COLOR_NAME	64	Incongruent	zielony	green	żółty	yellow	hit	n/a
405.4748	n/a	RESPONSE	n/a	n/a	n/a	n/a	n/a	n/a	n/a	green
405.4961	1.0167	ITI	n/a	n/a	n/a	n/a	n/a	n/a	n/a	n/a
406.5128	0.5167	FIXCROSS	n/a	n/a	n/a	n/a	n/a	n/a	n/a	n/a
407.0295	0.65	COLOR_NAME	65	Neutral	żółty	yellow	Neutral	Neutral	hit	n/a
407.6482	n/a	RESPONSE	n/a	n/a	n/a	n/a	n/a	n/a	n/a	yellow
407.6795	1.0167	ITI	n/a	n/a	n/a	n/a	n/a	n/a	n/a	n/a
408.6962	0.5167	FIXCROSS	n/a	n/a	n/a	n/a	n/a	n/a	n/a	n/a
409.2128	0.6333	COLOR_NAME	66	Neutral	zielony	green	Neutral	Neutral	hit	n/a
409.8218	n/a	RESPONSE	n/a	n/a	n/a	n/a	n/a	n/a	n/a	green
409.8462	1.0167	ITI	n/a	n/a	n/a	n/a	n/a	n/a	n/a	n/a
410.8629	0.5167	FIXCROSS	n/a	n/a	n/a	n/a	n/a	n/a	n/a	n/a
411.3795	0.6333	COLOR_NAME	67	Neutral	niebieski	blue	Neutral	Neutral	hit	n/a
411.9794	n/a	RESPONSE	n/a	n/a	n/a	n/a	n/a	n/a	n/a	blue
412.0129	1.0167	ITI	n/a	n/a	n/a	n/a	n/a	n/a	n/a	n/a
413.0295	0.5167	FIXCROSS	n/a	n/a	n/a	n/a	n/a	n/a	n/a	n/a
413.5462	1.3	COLOR_NAME	68	Incongruent	niebieski	blue	czerwony	red	hit	n/a
414.8241	n/a	RESPONSE	n/a	n/a	n/a	n/a	n/a	n/a	n/a	blue
414.8462	1.0167	ITI	n/a	n/a	n/a	n/a	n/a	n/a	n/a	n/a
415.8629	0.5167	FIXCROSS	n/a	n/a	n/a	n/a	n/a	n/a	n/a	n/a
416.3795	0.7	COLOR_NAME	69	Incongruent	zielony	green	niebieski	blue	hit	n/a
417.0616	n/a	RESPONSE	n/a	n/a	n/a	n/a	n/a	n/a	n/a	green
417.0796	1.0167	ITI	n/a	n/a	n/a	n/a	n/a	n/a	n/a	n/a
418.0962	0.5167	FIXCROSS	n/a	n/a	n/a	n/a	n/a	n/a	n/a	n/a
418.6129	0.7833	COLOR_NAME	70	Incongruent	niebieski	blue	żółty	yellow	hit	n/a
419.3631	n/a	RESPONSE	n/a	n/a	n/a	n/a	n/a	n/a	n/a	blue
419.3962	1.0167	ITI	n/a	n/a	n/a	n/a	n/a	n/a	n/a	n/a
420.4129	0.5167	FIXCROSS	n/a	n/a	n/a	n/a	n/a	n/a	n/a	n/a
420.9296	0.7	COLOR_NAME	71	Neutral	niebieski	blue	Neutral	Neutral	hit	n/a
421.6006	n/a	RESPONSE	n/a	n/a	n/a	n/a	n/a	n/a	n/a	blue
421.6296	1.0167	ITI	n/a	n/a	n/a	n/a	n/a	n/a	n/a	n/a
422.6463	0.5167	FIXCROSS	n/a	n/a	n/a	n/a	n/a	n/a	n/a	n/a
423.1629	0.7667	COLOR_NAME	72	Neutral	czerwony	red	Neutral	Neutral	hit	n/a
423.9021	n/a	RESPONSE	n/a	n/a	n/a	n/a	n/a	n/a	n/a	red
423.9296	1.0333	ITI	n/a	n/a	n/a	n/a	n/a	n/a	n/a	n/a
428.249	n/a	RESPONSE	n/a	n/a	n/a	n/a	n/a	n/a	n/a	n/a
