onset	duration	trial_type	melody_number	melody_part	key	sound	action
0.0	14.085	CUE_START	n/a	n/a	n/a	n/a	n/a
14.086	7.759	FIXCROSS	n/a	n/a	n/a	n/a	n/a
21.845	6.316	CUE_LISTEN	M4	1	n/a	n/a	n/a
28.161	7.758	FIXCROSS	n/a	n/a	n/a	n/a	n/a
35.919	6.325	CUE_PLAYBACK_BOTH_HANDS	M4	1	n/a	n/a	n/a
37.448	n/a	RESPONSE	M4	1	12	C4	press
37.45	n/a	RESPONSE	M4	1	09	A3	press
37.453	n/a	RESPONSE	M4	1	05	F3	press
38.05	n/a	RESPONSE	M4	1	16	E4	press
38.434	n/a	RESPONSE	M4	1	16	E4	release
38.473	n/a	RESPONSE	M4	1	12	C4	release
38.485	n/a	RESPONSE	M4	1	09	A3	release
38.512	n/a	RESPONSE	M4	1	05	F3	release
38.666	n/a	RESPONSE	M4	1	12	C4	press
38.68	n/a	RESPONSE	M4	1	09	A3	press
38.684	n/a	RESPONSE	M4	1	05	F3	press
39.504	n/a	RESPONSE	M4	1	17	F4	press
39.989	n/a	RESPONSE	M4	1	21	A4	press
40.095	n/a	RESPONSE	M4	1	17	F4	release
40.328	n/a	RESPONSE	M4	1	19	G4	press
40.424	n/a	RESPONSE	M4	1	21	A4	release
40.644	n/a	RESPONSE	M4	1	17	F4	press
40.776	n/a	RESPONSE	M4	1	19	G4	release
40.945	n/a	RESPONSE	M4	1	16	E4	press
41.018	n/a	RESPONSE	M4	1	17	F4	release
41.21	n/a	RESPONSE	M4	1	17	F4	press
41.278	n/a	RESPONSE	M4	1	16	E4	release
41.51	n/a	RESPONSE	M4	1	17	F4	release
41.61	n/a	RESPONSE	M4	1	12	C4	release
41.752	n/a	RESPONSE	M4	1	12	C4	press
42.045	n/a	RESPONSE	M4	1	17	F4	press
42.244	7.758	FIXCROSS	n/a	n/a	n/a	n/a	n/a
42.314	n/a	RESPONSE	M4	1	21	A4	press
42.365	n/a	RESPONSE	M4	1	17	F4	release
42.606	n/a	RESPONSE	M4	1	19	G4	press
42.779	n/a	RESPONSE	M4	1	21	A4	release
42.889	n/a	RESPONSE	M4	1	17	F4	press
43.05	n/a	RESPONSE	M4	1	19	G4	release
43.172	n/a	RESPONSE	M4	1	16	E4	press
43.264	n/a	RESPONSE	M4	1	17	F4	release
43.385	n/a	RESPONSE	M4	1	17	F4	press
43.455	n/a	RESPONSE	M4	1	16	E4	release
43.916	n/a	RESPONSE	M4	1	17	F4	release
44.028	n/a	RESPONSE	M4	1	09	A3	release
44.032	n/a	RESPONSE	M4	1	05	F3	release
44.09	n/a	RESPONSE	M4	1	12	C4	release
50.002	6.317	CUE_LISTEN	M4	2	n/a	n/a	n/a
56.319	7.758	FIXCROSS	n/a	n/a	n/a	n/a	n/a
64.078	6.325	CUE_PLAYBACK_BOTH_HANDS	M4	2	n/a	n/a	n/a
64.924	n/a	RESPONSE	M4	2	09	A3	press
64.933	n/a	RESPONSE	M4	2	12	C4	press
64.935	n/a	RESPONSE	M4	2	05	F3	press
65.495	n/a	RESPONSE	M4	2	17	F4	press
66.006	n/a	RESPONSE	M4	2	19	G4	press
66.108	n/a	RESPONSE	M4	2	17	F4	release
66.432	n/a	RESPONSE	M4	2	19	G4	release
66.61	n/a	RESPONSE	M4	2	12	C4	release
66.662	n/a	RESPONSE	M4	2	09	A3	release
66.903	n/a	RESPONSE	M4	2	09	A3	press
66.905	n/a	RESPONSE	M4	2	12	C4	press
67.408	n/a	RESPONSE	M4	2	17	F4	press
68.103	n/a	RESPONSE	M4	2	19	G4	press
68.243	n/a	RESPONSE	M4	2	17	F4	release
68.49	n/a	RESPONSE	M4	2	19	G4	release
68.708	n/a	RESPONSE	M4	2	12	C4	release
68.752	n/a	RESPONSE	M4	2	09	A3	release
68.823	n/a	RESPONSE	M4	2	12	C4	press
68.843	n/a	RESPONSE	M4	2	09	A3	press
69.346	n/a	RESPONSE	M4	2	17	F4	press
69.906	n/a	RESPONSE	M4	2	21	A4	press
70.085	n/a	RESPONSE	M4	2	17	F4	release
70.402	7.758	FIXCROSS	n/a	n/a	n/a	n/a	n/a
70.534	n/a	RESPONSE	M4	2	24	C5	press
70.684	n/a	RESPONSE	M4	2	21	A4	release
70.805	n/a	RESPONSE	M4	2	05	F3	release
70.82	n/a	RESPONSE	M4	2	09	A3	release
70.892	n/a	RESPONSE	M4	2	12	C4	release
71.104	n/a	RESPONSE	M4	2	04	E3	press
71.108	n/a	RESPONSE	M4	2	22	A#4	press
71.119	n/a	RESPONSE	M4	2	07	G3	press
71.128	n/a	RESPONSE	M4	2	12	C4	press
71.15	n/a	RESPONSE	M4	2	24	C5	release
71.642	n/a	RESPONSE	M4	2	21	A4	press
71.675	n/a	RESPONSE	M4	2	19	G4	press
71.744	n/a	RESPONSE	M4	2	22	A#4	release
72.225	n/a	RESPONSE	M4	2	21	A4	release
72.716	n/a	RESPONSE	M4	2	19	G4	release
72.938	n/a	RESPONSE	M4	2	12	C4	release
73.059	n/a	RESPONSE	M4	2	07	G3	release
73.18	n/a	RESPONSE	M4	2	07	G3	press
73.184	n/a	RESPONSE	M4	2	12	C4	press
74.243	n/a	RESPONSE	M4	2	12	C4	release
74.304	n/a	RESPONSE	M4	2	07	G3	release
78.161	6.317	CUE_LISTEN	M1	1	n/a	n/a	n/a
79.638	n/a	RESPONSE	M1	1	04	E3	release
84.478	7.758	FIXCROSS	n/a	n/a	n/a	n/a	n/a
92.236	6.317	CUE_PLAYBACK_RIGHT_HAND	M1	1	n/a	n/a	n/a
93.045	n/a	RESPONSE	M1	1	19	G4	press
93.576	n/a	RESPONSE	M1	1	16	E4	press
93.818	n/a	RESPONSE	M1	1	16	E4	release
94.052	n/a	RESPONSE	M1	1	19	G4	release
94.062	n/a	RESPONSE	M1	1	16	E4	press
94.543	n/a	RESPONSE	M1	1	16	E4	release
94.553	n/a	RESPONSE	M1	1	17	F4	press
95.044	n/a	RESPONSE	M1	1	14	D4	press
95.146	n/a	RESPONSE	M1	1	17	F4	release
95.286	n/a	RESPONSE	M1	1	14	D4	release
95.528	n/a	RESPONSE	M1	1	14	D4	press
96.02	n/a	RESPONSE	M1	1	14	D4	release
96.023	n/a	RESPONSE	M1	1	12	C4	press
96.282	n/a	RESPONSE	M1	1	16	E4	press
96.313	n/a	RESPONSE	M1	1	12	C4	release
96.494	n/a	RESPONSE	M1	1	19	G4	press
96.535	n/a	RESPONSE	M1	1	16	E4	release
97.586	n/a	RESPONSE	M1	1	19	G4	release
98.552	7.759	FIXCROSS	n/a	n/a	n/a	n/a	n/a
106.311	6.317	CUE_LISTEN	M1	2	n/a	n/a	n/a
112.628	7.758	FIXCROSS	n/a	n/a	n/a	n/a	n/a
120.386	6.325	CUE_PLAYBACK_RIGHT_HAND	M1	2	n/a	n/a	n/a
120.856	n/a	RESPONSE	M1	2	19	G4	press
121.34	n/a	RESPONSE	M1	2	16	E4	press
121.393	n/a	RESPONSE	M1	2	19	G4	release
121.602	n/a	RESPONSE	M1	2	16	E4	release
121.803	n/a	RESPONSE	M1	2	16	E4	press
122.184	n/a	RESPONSE	M1	2	16	E4	release
122.255	n/a	RESPONSE	M1	2	17	F4	press
122.696	n/a	RESPONSE	M1	2	14	D4	press
122.788	n/a	RESPONSE	M1	2	17	F4	release
122.932	n/a	RESPONSE	M1	2	14	D4	release
123.16	n/a	RESPONSE	M1	2	14	D4	press
123.622	n/a	RESPONSE	M1	2	12	C4	press
123.673	n/a	RESPONSE	M1	2	14	D4	release
123.894	n/a	RESPONSE	M1	2	16	E4	press
123.896	n/a	RESPONSE	M1	2	12	C4	release
124.089	n/a	RESPONSE	M1	2	12	C4	press
124.098	n/a	RESPONSE	M1	2	16	E4	release
125.419	n/a	RESPONSE	M1	2	12	C4	release
126.711	7.758	FIXCROSS	n/a	n/a	n/a	n/a	n/a
134.469	6.317	CUE_LISTEN	M5	1	n/a	n/a	n/a
140.786	7.758	FIXCROSS	n/a	n/a	n/a	n/a	n/a
145.625	n/a	RESPONSE	M5	1	21	A4	press
146.005	n/a	RESPONSE	M5	1	21	A4	release
148.544	6.316	CUE_PLAYBACK_BOTH_HANDS	M5	1	n/a	n/a	n/a
149.354	n/a	RESPONSE	M5	1	21	A4	press
149.378	n/a	RESPONSE	M5	1	05	F3	press
149.669	n/a	RESPONSE	M5	1	21	A4	release
149.782	n/a	RESPONSE	M5	1	09	A3	press
149.786	n/a	RESPONSE	M5	1	21	A4	press
149.908	n/a	RESPONSE	M5	1	05	F3	release
150.044	n/a	RESPONSE	M5	1	21	A4	release
150.185	n/a	RESPONSE	M5	1	21	A4	press
150.19	n/a	RESPONSE	M5	1	04	E3	press
150.265	n/a	RESPONSE	M5	1	09	A3	release
150.629	n/a	RESPONSE	M5	1	09	A3	press
150.726	n/a	RESPONSE	M5	1	21	A4	release
150.732	n/a	RESPONSE	M5	1	04	E3	release
150.998	n/a	RESPONSE	M5	1	21	A4	press
151.012	n/a	RESPONSE	M5	1	02	D3	press
151.065	n/a	RESPONSE	M5	1	09	A3	release
151.228	n/a	RESPONSE	M5	1	21	A4	release
151.384	n/a	RESPONSE	M5	1	21	A4	press
151.395	n/a	RESPONSE	M5	1	09	A3	press
151.476	n/a	RESPONSE	M5	1	02	D3	release
151.618	n/a	RESPONSE	M5	1	21	A4	release
151.769	n/a	RESPONSE	M5	1	21	A4	press
151.772	n/a	RESPONSE	M5	1	00	C3	press
151.852	n/a	RESPONSE	M5	1	09	A3	release
152.153	n/a	RESPONSE	M5	1	09	A3	press
152.225	n/a	RESPONSE	M5	1	21	A4	release
152.325	n/a	RESPONSE	M5	1	00	C3	release
152.519	n/a	RESPONSE	M5	1	21	A4	press
152.539	n/a	RESPONSE	M5	1	04	E3	press
152.562	n/a	RESPONSE	M5	1	05	F3	press
152.603	n/a	RESPONSE	M5	1	09	A3	release
152.633	n/a	RESPONSE	M5	1	05	F3	release
152.914	n/a	RESPONSE	M5	1	24	C5	press
152.935	n/a	RESPONSE	M5	1	21	A4	release
152.986	n/a	RESPONSE	M5	1	09	A3	press
153.05	n/a	RESPONSE	M5	1	04	E3	release
153.37	n/a	RESPONSE	M5	1	24	C5	release
153.76	n/a	RESPONSE	M5	1	02	D3	press
153.783	n/a	RESPONSE	M5	1	09	A3	release
153.863	n/a	RESPONSE	M5	1	16	E4	press
154.304	n/a	RESPONSE	M5	1	16	E4	release
154.455	n/a	RESPONSE	M5	1	02	D3	release
154.566	n/a	RESPONSE	M5	1	02	D3	press
154.6	n/a	RESPONSE	M5	1	16	E4	press
154.861	7.758	FIXCROSS	n/a	n/a	n/a	n/a	n/a
155.009	n/a	RESPONSE	M5	1	09	A3	press
155.05	n/a	RESPONSE	M5	1	07	G3	press
155.053	n/a	RESPONSE	M5	1	17	F4	press
155.073	n/a	RESPONSE	M5	1	02	D3	release
155.105	n/a	RESPONSE	M5	1	16	E4	release
155.218	n/a	RESPONSE	M5	1	07	G3	release
155.416	n/a	RESPONSE	M5	1	19	G4	press
155.428	n/a	RESPONSE	M5	1	00	C3	press
155.439	n/a	RESPONSE	M5	1	17	F4	release
155.48	n/a	RESPONSE	M5	1	09	A3	release
155.782	n/a	RESPONSE	M5	1	19	G4	release
155.853	n/a	RESPONSE	M5	1	00	C3	release
162.619	6.325	CUE_LISTEN	M5	2	n/a	n/a	n/a
168.944	7.758	FIXCROSS	n/a	n/a	n/a	n/a	n/a
176.703	6.317	CUE_PLAYBACK_BOTH_HANDS	M5	2	n/a	n/a	n/a
177.249	n/a	RESPONSE	M5	2	07	G3	press
177.263	n/a	RESPONSE	M5	2	22	A#4	press
177.544	n/a	RESPONSE	M5	2	22	A#4	release
177.708	n/a	RESPONSE	M5	2	10	A#3	press
177.719	n/a	RESPONSE	M5	2	22	A#4	press
177.795	n/a	RESPONSE	M5	2	07	G3	release
178.034	n/a	RESPONSE	M5	2	22	A#4	release
178.129	n/a	RESPONSE	M5	2	04	E3	press
178.16	n/a	RESPONSE	M5	2	10	A#3	release
178.17	n/a	RESPONSE	M5	2	22	A#4	press
178.445	n/a	RESPONSE	M5	2	22	A#4	release
178.594	n/a	RESPONSE	M5	2	10	A#3	press
178.624	n/a	RESPONSE	M5	2	22	A#4	press
178.64	n/a	RESPONSE	M5	2	04	E3	release
178.982	n/a	RESPONSE	M5	2	10	A#3	release
179.062	n/a	RESPONSE	M5	2	05	F3	press
179.339	n/a	RESPONSE	M5	2	22	A#4	release
179.655	n/a	RESPONSE	M5	2	05	F3	release
180.05	n/a	RESPONSE	M5	2	05	F3	press
180.092	n/a	RESPONSE	M5	2	22	A#4	press
180.544	n/a	RESPONSE	M5	2	22	A#4	release
180.63	n/a	RESPONSE	M5	2	09	A3	press
180.674	n/a	RESPONSE	M5	2	21	A4	press
180.729	n/a	RESPONSE	M5	2	05	F3	release
180.974	n/a	RESPONSE	M5	2	21	A4	release
181.14	n/a	RESPONSE	M5	2	00	C3	press
181.143	n/a	RESPONSE	M5	2	21	A4	press
181.198	n/a	RESPONSE	M5	2	09	A3	release
181.415	n/a	RESPONSE	M5	2	21	A4	release
181.556	n/a	RESPONSE	M5	2	09	A3	press
181.578	n/a	RESPONSE	M5	2	21	A4	press
181.649	n/a	RESPONSE	M5	2	00	C3	release
181.952	n/a	RESPONSE	M5	2	21	A4	release
182.562	n/a	RESPONSE	M5	2	07	G3	press
182.574	n/a	RESPONSE	M5	2	21	A4	press
182.636	n/a	RESPONSE	M5	2	09	A3	release
183.019	7.758	FIXCROSS	n/a	n/a	n/a	n/a	n/a
183.165	n/a	RESPONSE	M5	2	21	A4	release
183.366	n/a	RESPONSE	M5	2	07	G3	release
183.838	n/a	RESPONSE	M5	2	11	B3	press
183.842	n/a	RESPONSE	M5	2	19	G4	press
184.16	n/a	RESPONSE	M5	2	19	G4	release
184.342	n/a	RESPONSE	M5	2	04	E3	press
184.354	n/a	RESPONSE	M5	2	19	G4	press
184.404	n/a	RESPONSE	M5	2	11	B3	release
185.015	n/a	RESPONSE	M5	2	19	G4	release
185.249	n/a	RESPONSE	M5	2	04	E3	release
185.709	n/a	RESPONSE	M5	2	21	A4	press
185.729	n/a	RESPONSE	M5	2	11	B3	press
186.15	n/a	RESPONSE	M5	2	21	A4	release
186.322	n/a	RESPONSE	M5	2	11	B3	release
186.413	n/a	RESPONSE	M5	2	19	G4	press
186.434	n/a	RESPONSE	M5	2	02	D3	press
186.935	n/a	RESPONSE	M5	2	24	C5	press
186.956	n/a	RESPONSE	M5	2	07	G3	press
187.018	n/a	RESPONSE	M5	2	19	G4	release
187.17	n/a	RESPONSE	M5	2	02	D3	release
187.47	n/a	RESPONSE	M5	2	04	E3	press
187.604	n/a	RESPONSE	M5	2	07	G3	release
187.919	n/a	RESPONSE	M5	2	07	G3	press
188.028	n/a	RESPONSE	M5	2	04	E3	release
188.308	n/a	RESPONSE	M5	2	24	C5	release
188.505	n/a	RESPONSE	M5	2	07	G3	release
190.778	6.317	CUE_LISTEN	M5	1	n/a	n/a	n/a
197.094	7.758	FIXCROSS	n/a	n/a	n/a	n/a	n/a
204.853	6.325	CUE_PLAYBACK_BOTH_HANDS	M5	1	n/a	n/a	n/a
205.532	n/a	RESPONSE	M5	1	21	A4	press
205.543	n/a	RESPONSE	M5	1	05	F3	press
205.764	n/a	RESPONSE	M5	1	21	A4	release
205.955	n/a	RESPONSE	M5	1	09	A3	press
205.967	n/a	RESPONSE	M5	1	21	A4	press
206.078	n/a	RESPONSE	M5	1	05	F3	release
206.249	n/a	RESPONSE	M5	1	21	A4	release
206.4	n/a	RESPONSE	M5	1	21	A4	press
206.403	n/a	RESPONSE	M5	1	04	E3	press
206.453	n/a	RESPONSE	M5	1	09	A3	release
206.824	n/a	RESPONSE	M5	1	09	A3	press
206.955	n/a	RESPONSE	M5	1	04	E3	release
207.079	n/a	RESPONSE	M5	1	21	A4	release
207.24	n/a	RESPONSE	M5	1	21	A4	press
207.249	n/a	RESPONSE	M5	1	02	D3	press
207.323	n/a	RESPONSE	M5	1	09	A3	release
207.504	n/a	RESPONSE	M5	1	21	A4	release
207.684	n/a	RESPONSE	M5	1	21	A4	press
207.7	n/a	RESPONSE	M5	1	09	A3	press
207.777	n/a	RESPONSE	M5	1	02	D3	release
207.934	n/a	RESPONSE	M5	1	21	A4	release
208.134	n/a	RESPONSE	M5	1	00	C3	press
208.144	n/a	RESPONSE	M5	1	21	A4	press
208.225	n/a	RESPONSE	M5	1	09	A3	release
208.569	n/a	RESPONSE	M5	1	09	A3	press
208.684	n/a	RESPONSE	M5	1	21	A4	release
208.7	n/a	RESPONSE	M5	1	00	C3	release
208.989	n/a	RESPONSE	M5	1	21	A4	press
208.994	n/a	RESPONSE	M5	1	05	F3	press
209.082	n/a	RESPONSE	M5	1	09	A3	release
209.428	n/a	RESPONSE	M5	1	24	C5	press
209.467	n/a	RESPONSE	M5	1	09	A3	press
209.473	n/a	RESPONSE	M5	1	21	A4	release
209.555	n/a	RESPONSE	M5	1	05	F3	release
209.825	n/a	RESPONSE	M5	1	17	F4	press
209.88	n/a	RESPONSE	M5	1	04	E3	press
209.922	n/a	RESPONSE	M5	1	24	C5	release
209.958	n/a	RESPONSE	M5	1	09	A3	release
210.287	n/a	RESPONSE	M5	1	09	A3	press
210.289	n/a	RESPONSE	M5	1	19	G4	press
210.34	n/a	RESPONSE	M5	1	17	F4	release
210.37	n/a	RESPONSE	M5	1	04	E3	release
210.678	n/a	RESPONSE	M5	1	21	A4	press
210.694	n/a	RESPONSE	M5	1	02	D3	press
210.738	n/a	RESPONSE	M5	1	19	G4	release
210.77	n/a	RESPONSE	M5	1	09	A3	release
211.094	n/a	RESPONSE	M5	1	09	A3	press
211.134	n/a	RESPONSE	M5	1	02	D3	release
211.178	7.758	FIXCROSS	n/a	n/a	n/a	n/a	n/a
211.512	n/a	RESPONSE	M5	1	00	C3	press
211.593	n/a	RESPONSE	M5	1	09	A3	release
211.966	n/a	RESPONSE	M5	1	09	A3	press
212.075	n/a	RESPONSE	M5	1	00	C3	release
213.599	n/a	RESPONSE	M5	1	21	A4	release
218.936	6.317	CUE_LISTEN	M5	2	n/a	n/a	n/a
219.229	n/a	RESPONSE	M5	2	09	A3	release
225.253	14.075	FIXCROSS	n/a	n/a	n/a	n/a	n/a
233.011	n/a	CUE_PLAYBACK_BOTH_HANDS	M4	2	n/a	n/a	n/a
233.655	n/a	RESPONSE	M5	2	22	A#4	press
233.658	n/a	RESPONSE	M5	2	07	G3	press
233.929	n/a	RESPONSE	M5	2	22	A#4	release
234.159	n/a	RESPONSE	M5	2	22	A#4	press
234.17	n/a	RESPONSE	M5	2	10	A#3	press
234.242	n/a	RESPONSE	M5	2	10	A#3	release
234.453	n/a	RESPONSE	M5	2	22	A#4	release
234.577	n/a	RESPONSE	M5	2	07	G3	release
234.605	n/a	RESPONSE	M5	2	10	A#3	press
234.697	n/a	RESPONSE	M5	2	22	A#4	press
234.998	n/a	RESPONSE	M5	2	22	A#4	release
235.082	n/a	RESPONSE	M5	2	04	E3	press
235.12	n/a	RESPONSE	M5	2	10	A#3	release
235.132	n/a	RESPONSE	M5	2	22	A#4	press
235.433	n/a	RESPONSE	M5	2	22	A#4	release
235.654	n/a	RESPONSE	M5	2	10	A#3	press
235.665	n/a	RESPONSE	M5	2	22	A#4	press
235.717	n/a	RESPONSE	M5	2	04	E3	release
236.008	n/a	RESPONSE	M5	2	22	A#4	release
236.209	n/a	RESPONSE	M5	2	22	A#4	press
236.23	n/a	RESPONSE	M5	2	10	A#3	release
236.262	n/a	RESPONSE	M5	2	05	F3	press
236.783	n/a	RESPONSE	M5	2	09	A3	press
236.785	n/a	RESPONSE	M5	2	21	A4	press
236.855	n/a	RESPONSE	M5	2	05	F3	release
236.867	n/a	RESPONSE	M5	2	22	A#4	release
237.148	n/a	RESPONSE	M5	2	21	A4	release
237.31	n/a	RESPONSE	M5	2	00	C3	press
237.32	n/a	RESPONSE	M5	2	21	A4	press
237.354	n/a	RESPONSE	M5	2	09	A3	release
237.563	n/a	RESPONSE	M5	2	21	A4	release
237.818	n/a	RESPONSE	M5	2	09	A3	press
237.858	n/a	RESPONSE	M5	2	21	A4	press
237.947	n/a	RESPONSE	M5	2	00	C3	release
238.185	n/a	RESPONSE	M5	2	21	A4	release
238.383	n/a	RESPONSE	M5	2	24	C5	press
238.402	n/a	RESPONSE	M5	2	00	C3	press
238.429	n/a	RESPONSE	M5	2	09	A3	release
238.729	n/a	RESPONSE	M5	2	24	C5	release
238.892	n/a	RESPONSE	M5	2	24	C5	press
238.894	n/a	RESPONSE	M5	2	07	G3	press
239.063	n/a	RESPONSE	M5	2	00	C3	release
239.328	7.758	FIXCROSS	n/a	n/a	n/a	n/a	n/a
239.403	n/a	RESPONSE	M5	2	04	E3	press
239.407	n/a	RESPONSE	M5	2	22	A#4	press
239.464	n/a	RESPONSE	M5	2	07	G3	release
239.489	n/a	RESPONSE	M5	2	24	C5	release
239.858	n/a	RESPONSE	M5	2	07	G3	press
239.909	n/a	RESPONSE	M5	2	19	G4	press
239.939	n/a	RESPONSE	M5	2	04	E3	release
240.017	n/a	RESPONSE	M5	2	22	A#4	release
240.365	n/a	RESPONSE	M5	2	05	F3	press
240.37	n/a	RESPONSE	M5	2	17	F4	press
240.399	n/a	RESPONSE	M5	2	07	G3	release
240.452	n/a	RESPONSE	M5	2	19	G4	release
241.963	n/a	RESPONSE	M5	2	05	F3	release
242.697	n/a	RESPONSE	M5	2	17	F4	release
247.086	6.325	CUE_LISTEN	M2	1	n/a	n/a	n/a
253.411	7.758	FIXCROSS	n/a	n/a	n/a	n/a	n/a
257.319	n/a	RESPONSE	M2	1	16	E4	press
257.49	n/a	RESPONSE	M2	1	16	E4	release
261.17	6.325	CUE_PLAYBACK_RIGHT_HAND	M2	1	n/a	n/a	n/a
261.838	n/a	RESPONSE	M2	1	24	C5	press
262.369	n/a	RESPONSE	M2	1	19	G4	press
262.58	n/a	RESPONSE	M2	1	19	G4	release
262.714	n/a	RESPONSE	M2	1	24	C5	release
262.834	n/a	RESPONSE	M2	1	19	G4	press
263.254	n/a	RESPONSE	M2	1	17	F4	press
263.345	n/a	RESPONSE	M2	1	19	G4	release
263.717	n/a	RESPONSE	M2	1	16	E4	press
263.798	n/a	RESPONSE	M2	1	17	F4	release
264.179	n/a	RESPONSE	M2	1	17	F4	press
264.253	n/a	RESPONSE	M2	1	16	E4	release
264.632	n/a	RESPONSE	M2	1	19	G4	press
264.713	n/a	RESPONSE	M2	1	17	F4	release
266.334	n/a	RESPONSE	M2	1	19	G4	release
267.495	7.758	FIXCROSS	n/a	n/a	n/a	n/a	n/a
275.253	6.317	CUE_LISTEN	M2	2	n/a	n/a	n/a
281.57	7.758	FIXCROSS	n/a	n/a	n/a	n/a	n/a
289.328	6.317	CUE_PLAYBACK_RIGHT_HAND	M2	2	n/a	n/a	n/a
290.074	n/a	RESPONSE	M2	2	24	C5	press
290.095	n/a	RESPONSE	M2	2	23	B4	press
290.374	n/a	RESPONSE	M2	2	23	B4	release
291.68	n/a	RESPONSE	M2	2	17	F4	press
291.752	n/a	RESPONSE	M2	2	24	C5	release
291.914	n/a	RESPONSE	M2	2	17	F4	release
292.384	n/a	RESPONSE	M2	2	24	C5	press
292.825	n/a	RESPONSE	M2	2	19	G4	press
292.897	n/a	RESPONSE	M2	2	24	C5	release
293.018	n/a	RESPONSE	M2	2	19	G4	release
293.199	n/a	RESPONSE	M2	2	19	G4	press
293.56	n/a	RESPONSE	M2	2	17	F4	press
293.632	n/a	RESPONSE	M2	2	19	G4	release
293.915	n/a	RESPONSE	M2	2	16	E4	press
293.974	n/a	RESPONSE	M2	2	17	F4	release
294.245	n/a	RESPONSE	M2	2	14	D4	press
294.427	n/a	RESPONSE	M2	2	16	E4	release
294.588	n/a	RESPONSE	M2	2	12	C4	press
294.849	n/a	RESPONSE	M2	2	14	D4	release
295.645	7.758	FIXCROSS	n/a	n/a	n/a	n/a	n/a
296.11	n/a	RESPONSE	M2	2	12	C4	release
303.403	6.317	CUE_LISTEN	M2	1	n/a	n/a	n/a
309.72	7.758	FIXCROSS	n/a	n/a	n/a	n/a	n/a
317.478	6.325	CUE_PLAYBACK_RIGHT_HAND	M2	1	n/a	n/a	n/a
317.979	n/a	RESPONSE	M2	1	12	C4	press
318.462	n/a	RESPONSE	M2	1	14	D4	press
318.535	n/a	RESPONSE	M2	1	12	C4	release
318.915	n/a	RESPONSE	M2	1	16	E4	press
318.979	n/a	RESPONSE	M2	1	14	D4	release
319.402	n/a	RESPONSE	M2	1	14	D4	press
319.47	n/a	RESPONSE	M2	1	16	E4	release
319.887	n/a	RESPONSE	M2	1	16	E4	press
319.94	n/a	RESPONSE	M2	1	14	D4	release
320.357	n/a	RESPONSE	M2	1	17	F4	press
320.432	n/a	RESPONSE	M2	1	16	E4	release
320.83	n/a	RESPONSE	M2	1	19	G4	press
320.917	n/a	RESPONSE	M2	1	17	F4	release
322.655	n/a	RESPONSE	M2	1	19	G4	release
323.803	7.758	FIXCROSS	n/a	n/a	n/a	n/a	n/a
331.562	6.317	CUE_LISTEN	M2	2	n/a	n/a	n/a
337.878	7.758	FIXCROSS	n/a	n/a	n/a	n/a	n/a
345.636	6.317	CUE_PLAYBACK_RIGHT_HAND	M2	2	n/a	n/a	n/a
346.314	n/a	RESPONSE	M2	2	16	E4	press
346.823	n/a	RESPONSE	M2	2	19	G4	press
346.904	n/a	RESPONSE	M2	2	16	E4	release
347.105	n/a	RESPONSE	M2	2	19	G4	release
347.287	n/a	RESPONSE	M2	2	19	G4	press
347.784	n/a	RESPONSE	M2	2	17	F4	press
347.859	n/a	RESPONSE	M2	2	19	G4	release
348.23	n/a	RESPONSE	M2	2	16	E4	press
348.314	n/a	RESPONSE	M2	2	17	F4	release
348.704	n/a	RESPONSE	M2	2	14	D4	press
348.848	n/a	RESPONSE	M2	2	16	E4	release
349.148	n/a	RESPONSE	M2	2	12	C4	press
349.249	n/a	RESPONSE	M2	2	14	D4	release
350.744	n/a	RESPONSE	M2	2	12	C4	release
351.953	7.758	FIXCROSS	n/a	n/a	n/a	n/a	n/a
359.712	6.325	CUE_LISTEN	M3	1	n/a	n/a	n/a
366.036	7.758	FIXCROSS	n/a	n/a	n/a	n/a	n/a
373.795	6.317	CUE_PLAYBACK_BOTH_HANDS	M3	1	n/a	n/a	n/a
374.447	n/a	RESPONSE	M3	1	12	C4	press
374.455	n/a	RESPONSE	M3	1	00	C3	press
374.907	n/a	RESPONSE	M3	1	07	G3	press
374.928	n/a	RESPONSE	M3	1	14	D4	press
374.979	n/a	RESPONSE	M3	1	12	C4	release
375.06	n/a	RESPONSE	M3	1	00	C3	release
375.352	n/a	RESPONSE	M3	1	16	E4	press
375.375	n/a	RESPONSE	M3	1	04	E3	press
375.424	n/a	RESPONSE	M3	1	14	D4	release
375.435	n/a	RESPONSE	M3	1	07	G3	release
375.867	n/a	RESPONSE	M3	1	07	G3	press
375.869	n/a	RESPONSE	M3	1	12	C4	press
375.972	n/a	RESPONSE	M3	1	04	E3	release
376.07	n/a	RESPONSE	M3	1	16	E4	release
376.154	n/a	RESPONSE	M3	1	12	C4	release
376.313	n/a	RESPONSE	M3	1	12	C4	press
376.324	n/a	RESPONSE	M3	1	00	C3	press
376.357	n/a	RESPONSE	M3	1	07	G3	release
376.759	n/a	RESPONSE	M3	1	07	G3	press
376.789	n/a	RESPONSE	M3	1	14	D4	press
376.863	n/a	RESPONSE	M3	1	12	C4	release
376.893	n/a	RESPONSE	M3	1	00	C3	release
377.233	n/a	RESPONSE	M3	1	16	E4	press
377.244	n/a	RESPONSE	M3	1	04	E3	press
377.295	n/a	RESPONSE	M3	1	07	G3	release
377.347	n/a	RESPONSE	M3	1	14	D4	release
377.71	n/a	RESPONSE	M3	1	07	G3	press
377.719	n/a	RESPONSE	M3	1	12	C4	press
377.773	n/a	RESPONSE	M3	1	04	E3	release
377.817	n/a	RESPONSE	M3	1	16	E4	release
380.112	7.758	FIXCROSS	n/a	n/a	n/a	n/a	n/a
380.355	n/a	RESPONSE	M3	1	12	C4	release
387.87	6.317	CUE_LISTEN	M3	2	n/a	n/a	n/a
388.043	n/a	RESPONSE	M3	2	07	G3	release
394.187	7.758	FIXCROSS	n/a	n/a	n/a	n/a	n/a
401.945	6.325	CUE_PLAYBACK_BOTH_HANDS	M3	2	n/a	n/a	n/a
402.587	n/a	RESPONSE	M3	2	16	E4	press
402.589	n/a	RESPONSE	M3	2	00	C3	press
403.069	n/a	RESPONSE	M3	2	17	F4	press
403.082	n/a	RESPONSE	M3	2	07	G3	press
403.153	n/a	RESPONSE	M3	2	16	E4	release
403.293	n/a	RESPONSE	M3	2	00	C3	release
403.565	n/a	RESPONSE	M3	2	19	G4	press
403.575	n/a	RESPONSE	M3	2	04	E3	press
403.628	n/a	RESPONSE	M3	2	17	F4	release
403.63	n/a	RESPONSE	M3	2	07	G3	release
404.059	n/a	RESPONSE	M3	2	07	G3	press
404.13	n/a	RESPONSE	M3	2	04	E3	release
404.532	n/a	RESPONSE	M3	2	00	C3	press
404.534	n/a	RESPONSE	M3	2	16	E4	press
404.574	n/a	RESPONSE	M3	2	19	G4	release
404.595	n/a	RESPONSE	M3	2	07	G3	release
405.007	n/a	RESPONSE	M3	2	17	F4	press
405.028	n/a	RESPONSE	M3	2	07	G3	press
405.07	n/a	RESPONSE	M3	2	16	E4	release
405.13	n/a	RESPONSE	M3	2	00	C3	release
405.472	n/a	RESPONSE	M3	2	04	E3	press
405.483	n/a	RESPONSE	M3	2	19	G4	press
405.524	n/a	RESPONSE	M3	2	07	G3	release
405.555	n/a	RESPONSE	M3	2	17	F4	release
405.998	n/a	RESPONSE	M3	2	07	G3	press
406.078	n/a	RESPONSE	M3	2	04	E3	release
407.682	n/a	RESPONSE	M3	2	19	G4	release
408.257	n/a	RESPONSE	M3	2	07	G3	release
408.27	7.758	FIXCROSS	n/a	n/a	n/a	n/a	n/a
416.028	6.325	CUE_LISTEN	M3	1	n/a	n/a	n/a
422.353	7.758	FIXCROSS	n/a	n/a	n/a	n/a	n/a
430.112	6.308	CUE_PLAYBACK_BOTH_HANDS	M3	1	n/a	n/a	n/a
430.76	n/a	RESPONSE	M3	1	19	G4	press
430.763	n/a	RESPONSE	M3	1	00	C3	press
431.065	n/a	RESPONSE	M3	1	21	A4	press
431.137	n/a	RESPONSE	M3	1	19	G4	release
431.3	n/a	RESPONSE	M3	1	07	G3	press
431.322	n/a	RESPONSE	M3	1	19	G4	press
431.383	n/a	RESPONSE	M3	1	21	A4	release
431.434	n/a	RESPONSE	M3	1	00	C3	release
431.625	n/a	RESPONSE	M3	1	17	F4	press
431.759	n/a	RESPONSE	M3	1	19	G4	release
431.84	n/a	RESPONSE	M3	1	04	E3	press
431.909	n/a	RESPONSE	M3	1	07	G3	release
432.51	n/a	RESPONSE	M3	1	07	G3	press
432.513	n/a	RESPONSE	M3	1	17	F4	release
432.515	n/a	RESPONSE	M3	1	12	C4	press
432.524	n/a	RESPONSE	M3	1	14	D4	press
432.615	n/a	RESPONSE	M3	1	04	E3	release
432.669	n/a	RESPONSE	M3	1	14	D4	release
433.078	n/a	RESPONSE	M3	1	12	C4	release
433.179	n/a	RESPONSE	M3	1	19	G4	press
433.19	n/a	RESPONSE	M3	1	00	C3	press
433.222	n/a	RESPONSE	M3	1	07	G3	release
433.593	n/a	RESPONSE	M3	1	19	G4	release
433.834	n/a	RESPONSE	M3	1	21	A4	press
434.115	n/a	RESPONSE	M3	1	19	G4	press
434.207	n/a	RESPONSE	M3	1	07	G3	press
434.218	n/a	RESPONSE	M3	1	21	A4	release
434.359	n/a	RESPONSE	M3	1	00	C3	release
434.503	n/a	RESPONSE	M3	1	17	F4	press
434.583	n/a	RESPONSE	M3	1	19	G4	release
434.803	n/a	RESPONSE	M3	1	04	E3	press
434.874	n/a	RESPONSE	M3	1	07	G3	release
434.885	n/a	RESPONSE	M3	1	14	D4	press
434.888	n/a	RESPONSE	M3	1	12	C4	press
435.338	n/a	RESPONSE	M3	1	14	D4	release
435.359	n/a	RESPONSE	M3	1	12	C4	release
435.543	n/a	RESPONSE	M3	1	17	F4	release
435.982	n/a	RESPONSE	M3	1	12	C4	press
436.083	n/a	RESPONSE	M3	1	07	G3	press
436.404	n/a	RESPONSE	M3	1	07	G3	release
436.42	7.758	FIXCROSS	n/a	n/a	n/a	n/a	n/a
436.846	n/a	RESPONSE	M3	1	12	C4	release
437.209	n/a	RESPONSE	M3	1	04	E3	release
444.178	6.325	CUE_LISTEN	M3	2	n/a	n/a	n/a
450.503	7.758	FIXCROSS	n/a	n/a	n/a	n/a	n/a
458.262	6.317	CUE_PLAYBACK_BOTH_HANDS	M3	2	n/a	n/a	n/a
459.043	n/a	RESPONSE	M3	2	12	C4	press
459.045	n/a	RESPONSE	M3	2	00	C3	press
459.343	n/a	RESPONSE	M3	2	12	C4	release
459.519	n/a	RESPONSE	M3	2	07	G3	press
459.817	n/a	RESPONSE	M3	2	07	G3	release
459.944	n/a	RESPONSE	M3	2	00	C3	release
459.997	n/a	RESPONSE	M3	2	12	C4	press
460.034	n/a	RESPONSE	M3	2	00	C3	press
460.754	n/a	RESPONSE	M3	2	12	C4	release
460.789	n/a	RESPONSE	M3	2	00	C3	release
460.939	n/a	RESPONSE	M3	2	12	C4	press
460.943	n/a	RESPONSE	M3	2	00	C3	press
461.162	n/a	RESPONSE	M3	2	12	C4	release
461.445	n/a	RESPONSE	M3	2	05	F3	press
461.448	n/a	RESPONSE	M3	2	07	G3	press
461.538	n/a	RESPONSE	M3	2	05	F3	release
461.69	n/a	RESPONSE	M3	2	00	C3	release
461.742	n/a	RESPONSE	M3	2	07	G3	release
461.924	n/a	RESPONSE	M3	2	12	C4	press
461.936	n/a	RESPONSE	M3	2	00	C3	press
463.554	n/a	RESPONSE	M3	2	00	C3	release
463.866	n/a	RESPONSE	M3	2	12	C4	release
464.578	7.758	FIXCROSS	n/a	n/a	n/a	n/a	n/a
472.337	6.325	CUE_LISTEN	M5	1	n/a	n/a	n/a
478.662	7.758	FIXCROSS	n/a	n/a	n/a	n/a	n/a
486.42	6.317	CUE_PLAYBACK_RIGHT_HAND	M5	1	n/a	n/a	n/a
486.982	n/a	RESPONSE	M5	1	21	A4	press
487.166	n/a	RESPONSE	M5	1	21	A4	release
487.314	n/a	RESPONSE	M5	1	21	A4	press
487.507	n/a	RESPONSE	M5	1	21	A4	release
487.68	n/a	RESPONSE	M5	1	21	A4	press
488.198	n/a	RESPONSE	M5	1	21	A4	release
488.362	n/a	RESPONSE	M5	1	21	A4	press
488.583	n/a	RESPONSE	M5	1	21	A4	release
488.737	n/a	RESPONSE	M5	1	21	A4	press
488.952	n/a	RESPONSE	M5	1	21	A4	release
489.113	n/a	RESPONSE	M5	1	21	A4	press
489.559	n/a	RESPONSE	M5	1	21	A4	release
489.873	n/a	RESPONSE	M5	1	21	A4	press
490.24	n/a	RESPONSE	M5	1	24	C5	press
490.314	n/a	RESPONSE	M5	1	21	A4	release
490.622	n/a	RESPONSE	M5	1	17	F4	press
490.634	n/a	RESPONSE	M5	1	16	E4	press
490.85	n/a	RESPONSE	M5	1	24	C5	release
490.926	n/a	RESPONSE	M5	1	16	E4	release
491.166	n/a	RESPONSE	M5	1	19	G4	press
491.268	n/a	RESPONSE	M5	1	17	F4	release
491.522	n/a	RESPONSE	M5	1	21	A4	press
491.652	n/a	RESPONSE	M5	1	19	G4	release
492.737	7.758	FIXCROSS	n/a	n/a	n/a	n/a	n/a
493.285	n/a	RESPONSE	M5	1	21	A4	release
500.495	6.317	CUE_LISTEN	M5	2	n/a	n/a	n/a
506.812	7.758	FIXCROSS	n/a	n/a	n/a	n/a	n/a
514.57	6.325	CUE_PLAYBACK_RIGHT_HAND	M5	2	n/a	n/a	n/a
515.173	n/a	RESPONSE	M5	2	22	A#4	press
515.435	n/a	RESPONSE	M5	2	22	A#4	release
515.575	n/a	RESPONSE	M5	2	22	A#4	press
515.817	n/a	RESPONSE	M5	2	22	A#4	release
515.968	n/a	RESPONSE	M5	2	22	A#4	press
516.209	n/a	RESPONSE	M5	2	22	A#4	release
516.382	n/a	RESPONSE	M5	2	22	A#4	press
516.592	n/a	RESPONSE	M5	2	22	A#4	release
516.793	n/a	RESPONSE	M5	2	22	A#4	press
517.274	n/a	RESPONSE	M5	2	21	A4	press
517.326	n/a	RESPONSE	M5	2	22	A#4	release
517.478	n/a	RESPONSE	M5	2	21	A4	release
517.718	n/a	RESPONSE	M5	2	21	A4	press
517.979	n/a	RESPONSE	M5	2	21	A4	release
518.15	n/a	RESPONSE	M5	2	21	A4	press
518.419	n/a	RESPONSE	M5	2	21	A4	release
518.623	n/a	RESPONSE	M5	2	21	A4	press
519.097	n/a	RESPONSE	M5	2	19	G4	press
519.16	n/a	RESPONSE	M5	2	21	A4	release
519.338	n/a	RESPONSE	M5	2	19	G4	release
519.557	n/a	RESPONSE	M5	2	19	G4	press
520.006	n/a	RESPONSE	M5	2	21	A4	press
520.04	n/a	RESPONSE	M5	2	19	G4	release
520.467	n/a	RESPONSE	M5	2	19	G4	press
520.527	n/a	RESPONSE	M5	2	21	A4	release
520.895	7.758	FIXCROSS	n/a	n/a	n/a	n/a	n/a
521.502	n/a	RESPONSE	M5	2	19	G4	release
521.663	n/a	RESPONSE	M5	2	19	G4	press
521.827	n/a	RESPONSE	M5	2	24	C5	press
521.946	n/a	RESPONSE	M5	2	19	G4	release
524.268	n/a	RESPONSE	M5	2	24	C5	release
528.654	6.317	CUE_LISTEN	M5	1	n/a	n/a	n/a
534.97	7.758	FIXCROSS	n/a	n/a	n/a	n/a	n/a
542.729	6.317	CUE_PLAYBACK_RIGHT_HAND	M5	1	n/a	n/a	n/a
543.738	n/a	RESPONSE	M5	1	21	A4	press
543.929	n/a	RESPONSE	M5	1	21	A4	release
544.0	n/a	RESPONSE	M5	1	21	A4	press
544.162	n/a	RESPONSE	M5	1	21	A4	release
544.273	n/a	RESPONSE	M5	1	21	A4	press
544.704	n/a	RESPONSE	M5	1	21	A4	release
544.816	n/a	RESPONSE	M5	1	21	A4	press
544.967	n/a	RESPONSE	M5	1	21	A4	release
545.098	n/a	RESPONSE	M5	1	21	A4	press
545.232	n/a	RESPONSE	M5	1	21	A4	release
545.4	n/a	RESPONSE	M5	1	21	A4	press
545.742	n/a	RESPONSE	M5	1	21	A4	release
545.954	n/a	RESPONSE	M5	1	21	A4	press
546.234	n/a	RESPONSE	M5	1	24	C5	press
546.317	n/a	RESPONSE	M5	1	21	A4	release
546.507	n/a	RESPONSE	M5	1	17	F4	press
546.638	n/a	RESPONSE	M5	1	24	C5	release
546.809	n/a	RESPONSE	M5	1	19	G4	press
546.89	n/a	RESPONSE	M5	1	17	F4	release
547.102	n/a	RESPONSE	M5	1	21	A4	press
547.213	n/a	RESPONSE	M5	1	19	G4	release
549.045	7.758	FIXCROSS	n/a	n/a	n/a	n/a	n/a
551.024	n/a	RESPONSE	M5	1	21	A4	release
556.804	6.325	CUE_LISTEN	M5	2	n/a	n/a	n/a
563.129	7.758	FIXCROSS	n/a	n/a	n/a	n/a	n/a
570.887	6.317	CUE_PLAYBACK_RIGHT_HAND	M5	2	n/a	n/a	n/a
571.543	n/a	RESPONSE	M5	2	22	A#4	press
571.852	n/a	RESPONSE	M5	2	22	A#4	release
571.973	n/a	RESPONSE	M5	2	22	A#4	press
572.267	n/a	RESPONSE	M5	2	22	A#4	release
572.406	n/a	RESPONSE	M5	2	22	A#4	press
572.697	n/a	RESPONSE	M5	2	22	A#4	release
572.888	n/a	RESPONSE	M5	2	22	A#4	press
573.112	n/a	RESPONSE	M5	2	22	A#4	release
573.31	n/a	RESPONSE	M5	2	22	A#4	press
573.782	n/a	RESPONSE	M5	2	21	A4	press
573.813	n/a	RESPONSE	M5	2	22	A#4	release
574.024	n/a	RESPONSE	M5	2	21	A4	release
574.267	n/a	RESPONSE	M5	2	21	A4	press
574.547	n/a	RESPONSE	M5	2	21	A4	release
574.768	n/a	RESPONSE	M5	2	21	A4	press
575.259	n/a	RESPONSE	M5	2	24	C5	press
575.33	n/a	RESPONSE	M5	2	21	A4	release
575.602	n/a	RESPONSE	M5	2	24	C5	release
575.733	n/a	RESPONSE	M5	2	24	C5	press
576.196	n/a	RESPONSE	M5	2	22	A#4	press
576.216	n/a	RESPONSE	M5	2	24	C5	release
576.687	n/a	RESPONSE	M5	2	19	G4	press
576.689	n/a	RESPONSE	M5	2	17	F4	press
576.87	n/a	RESPONSE	M5	2	17	F4	release
577.1	n/a	RESPONSE	M5	2	22	A#4	release
577.204	7.758	FIXCROSS	n/a	n/a	n/a	n/a	n/a
577.212	n/a	RESPONSE	M5	2	17	F4	press
577.313	n/a	RESPONSE	M5	2	19	G4	release
579.358	n/a	RESPONSE	M5	2	17	F4	release
584.962	6.317	CUE_LISTEN	M1	1	n/a	n/a	n/a
591.279	7.758	FIXCROSS	n/a	n/a	n/a	n/a	n/a
599.037	6.325	CUE_PLAYBACK_BOTH_HANDS	M1	1	n/a	n/a	n/a
599.717	n/a	RESPONSE	M1	1	19	G4	press
599.73	n/a	RESPONSE	M1	1	07	G3	press
599.733	n/a	RESPONSE	M1	1	05	F3	press
600.174	n/a	RESPONSE	M1	1	16	E4	press
600.429	n/a	RESPONSE	M1	1	16	E4	release
600.594	n/a	RESPONSE	M1	1	16	E4	press
600.649	n/a	RESPONSE	M1	1	19	G4	release
600.826	n/a	RESPONSE	M1	1	16	E4	release
600.833	n/a	RESPONSE	M1	1	05	F3	release
600.973	n/a	RESPONSE	M1	1	07	G3	release
601.01	n/a	RESPONSE	M1	1	17	F4	press
601.048	n/a	RESPONSE	M1	1	04	E3	press
601.069	n/a	RESPONSE	M1	1	07	G3	press
601.487	n/a	RESPONSE	M1	1	14	D4	press
601.706	n/a	RESPONSE	M1	1	14	D4	release
601.887	n/a	RESPONSE	M1	1	14	D4	press
601.968	n/a	RESPONSE	M1	1	17	F4	release
602.269	n/a	RESPONSE	M1	1	04	E3	release
602.272	n/a	RESPONSE	M1	1	14	D4	release
602.292	n/a	RESPONSE	M1	1	12	C4	press
602.333	n/a	RESPONSE	M1	1	02	D3	press
602.434	n/a	RESPONSE	M1	1	05	F3	press
602.526	n/a	RESPONSE	M1	1	16	E4	press
602.618	n/a	RESPONSE	M1	1	12	C4	release
602.808	n/a	RESPONSE	M1	1	17	F4	press
602.839	n/a	RESPONSE	M1	1	16	E4	release
603.073	n/a	RESPONSE	M1	1	07	G3	release
603.272	n/a	RESPONSE	M1	1	17	F4	release
603.293	n/a	RESPONSE	M1	1	02	D3	release
603.304	n/a	RESPONSE	M1	1	05	F3	release
605.362	7.758	FIXCROSS	n/a	n/a	n/a	n/a	n/a
613.12	6.317	CUE_LISTEN	M1	2	n/a	n/a	n/a
619.437	7.758	FIXCROSS	n/a	n/a	n/a	n/a	n/a
627.196	6.317	CUE_PLAYBACK_BOTH_HANDS	M1	2	n/a	n/a	n/a
628.237	n/a	RESPONSE	M1	2	19	G4	press
628.252	n/a	RESPONSE	M1	2	04	E3	press
628.26	n/a	RESPONSE	M1	2	00	C3	press
628.264	n/a	RESPONSE	M1	2	07	G3	press
628.73	n/a	RESPONSE	M1	2	16	E4	press
629.046	n/a	RESPONSE	M1	2	16	E4	release
629.208	n/a	RESPONSE	M1	2	16	E4	press
629.279	n/a	RESPONSE	M1	2	19	G4	release
629.464	n/a	RESPONSE	M1	2	00	C3	release
629.468	n/a	RESPONSE	M1	2	16	E4	release
629.472	n/a	RESPONSE	M1	2	04	E3	release
629.499	n/a	RESPONSE	M1	2	07	G3	release
629.64	n/a	RESPONSE	M1	2	17	F4	press
629.656	n/a	RESPONSE	M1	2	02	D3	press
629.662	n/a	RESPONSE	M1	2	05	F3	press
630.117	n/a	RESPONSE	M1	2	14	D4	press
630.308	n/a	RESPONSE	M1	2	14	D4	release
630.553	n/a	RESPONSE	M1	2	14	D4	press
630.653	n/a	RESPONSE	M1	2	17	F4	release
630.769	n/a	RESPONSE	M1	2	14	D4	release
630.796	n/a	RESPONSE	M1	2	02	D3	release
630.808	n/a	RESPONSE	M1	2	05	F3	release
630.982	n/a	RESPONSE	M1	2	07	G3	press
630.984	n/a	RESPONSE	M1	2	00	C3	press
630.998	n/a	RESPONSE	M1	2	04	E3	press
631.002	n/a	RESPONSE	M1	2	12	C4	press
631.183	n/a	RESPONSE	M1	2	16	E4	press
631.29	n/a	RESPONSE	M1	2	12	C4	release
631.44	n/a	RESPONSE	M1	2	16	E4	release
631.523	n/a	RESPONSE	M1	2	12	C4	press
633.136	n/a	RESPONSE	M1	2	12	C4	release
633.147	n/a	RESPONSE	M1	2	04	E3	release
633.196	n/a	RESPONSE	M1	2	00	C3	release
633.512	7.758	FIXCROSS	n/a	n/a	n/a	n/a	n/a
633.937	n/a	RESPONSE	M1	2	07	G3	release
641.271	6.325	CUE_LISTEN	M4	1	n/a	n/a	n/a
647.596	7.758	FIXCROSS	n/a	n/a	n/a	n/a	n/a
655.354	6.317	CUE_PLAYBACK_RIGHT_HAND	M4	1	n/a	n/a	n/a
655.853	n/a	RESPONSE	M4	1	12	C4	press
656.304	n/a	RESPONSE	M4	1	17	F4	press
656.346	n/a	RESPONSE	M4	1	12	C4	release
656.797	n/a	RESPONSE	M4	1	19	G4	press
656.839	n/a	RESPONSE	M4	1	17	F4	release
657.269	n/a	RESPONSE	M4	1	19	G4	release
657.48	n/a	RESPONSE	M4	1	12	C4	press
657.943	n/a	RESPONSE	M4	1	17	F4	press
658.067	n/a	RESPONSE	M4	1	17	F4	release
658.224	n/a	RESPONSE	M4	1	17	F4	press
658.274	n/a	RESPONSE	M4	1	12	C4	release
658.729	n/a	RESPONSE	M4	1	21	A4	press
658.813	n/a	RESPONSE	M4	1	17	F4	release
659.11	n/a	RESPONSE	M4	1	19	G4	press
659.207	n/a	RESPONSE	M4	1	21	A4	release
659.47	n/a	RESPONSE	M4	1	17	F4	press
659.568	n/a	RESPONSE	M4	1	19	G4	release
659.782	n/a	RESPONSE	M4	1	16	E4	press
659.832	n/a	RESPONSE	M4	1	17	F4	release
660.062	n/a	RESPONSE	M4	1	17	F4	press
660.16	n/a	RESPONSE	M4	1	16	E4	release
660.614	n/a	RESPONSE	M4	1	17	F4	release
660.642	n/a	RESPONSE	M4	1	12	C4	press
660.987	n/a	RESPONSE	M4	1	17	F4	press
661.117	n/a	RESPONSE	M4	1	12	C4	release
661.272	n/a	RESPONSE	M4	1	21	A4	press
661.353	n/a	RESPONSE	M4	1	17	F4	release
661.584	n/a	RESPONSE	M4	1	19	G4	press
661.671	7.758	FIXCROSS	n/a	n/a	n/a	n/a	n/a
661.726	n/a	RESPONSE	M4	1	21	A4	release
661.917	n/a	RESPONSE	M4	1	17	F4	press
662.038	n/a	RESPONSE	M4	1	19	G4	release
662.239	n/a	RESPONSE	M4	1	16	E4	press
662.32	n/a	RESPONSE	M4	1	17	F4	release
662.532	n/a	RESPONSE	M4	1	17	F4	press
662.683	n/a	RESPONSE	M4	1	16	E4	release
663.274	n/a	RESPONSE	M4	1	17	F4	release
669.429	6.317	CUE_LISTEN	M4	2	n/a	n/a	n/a
675.746	7.758	FIXCROSS	n/a	n/a	n/a	n/a	n/a
683.504	6.325	CUE_PLAYBACK_RIGHT_HAND	M4	2	n/a	n/a	n/a
684.006	n/a	RESPONSE	M4	2	12	C4	press
684.567	n/a	RESPONSE	M4	2	17	F4	press
684.679	n/a	RESPONSE	M4	2	12	C4	release
685.13	n/a	RESPONSE	M4	2	19	G4	press
685.252	n/a	RESPONSE	M4	2	17	F4	release
685.724	n/a	RESPONSE	M4	2	19	G4	release
685.833	n/a	RESPONSE	M4	2	12	C4	press
686.216	n/a	RESPONSE	M4	2	17	F4	press
686.416	n/a	RESPONSE	M4	2	12	C4	release
687.098	n/a	RESPONSE	M4	2	23	B4	press
687.198	n/a	RESPONSE	M4	2	17	F4	release
688.088	n/a	RESPONSE	M4	2	23	B4	release
688.322	n/a	RESPONSE	M4	2	23	B4	press
688.837	n/a	RESPONSE	M4	2	23	B4	release
689.401	n/a	RESPONSE	M4	2	22	A#4	press
689.829	7.758	FIXCROSS	n/a	n/a	n/a	n/a	n/a
689.906	n/a	RESPONSE	M4	2	19	G4	press
690.028	n/a	RESPONSE	M4	2	22	A#4	release
690.297	n/a	RESPONSE	M4	2	17	F4	press
690.439	n/a	RESPONSE	M4	2	19	G4	release
690.746	n/a	RESPONSE	M4	2	17	F4	release
697.587	6.317	CUE_LISTEN	M2	1	n/a	n/a	n/a
697.906	n/a	RESPONSE	M2	1	17	F4	press
699.179	n/a	RESPONSE	M2	1	17	F4	release
703.904	7.758	FIXCROSS	n/a	n/a	n/a	n/a	n/a
711.662	6.325	CUE_PLAYBACK_BOTH_HANDS	M2	1	n/a	n/a	n/a
712.459	n/a	RESPONSE	M2	1	24	C5	press
712.471	n/a	RESPONSE	M2	1	00	C3	press
712.473	n/a	RESPONSE	M2	1	07	G3	press
713.033	n/a	RESPONSE	M2	1	19	G4	press
713.144	n/a	RESPONSE	M2	1	24	C5	release
713.226	n/a	RESPONSE	M2	1	00	C3	release
713.257	n/a	RESPONSE	M2	1	07	G3	release
713.358	n/a	RESPONSE	M2	1	19	G4	release
713.509	n/a	RESPONSE	M2	1	07	G3	press
713.512	n/a	RESPONSE	M2	1	00	C3	press
713.514	n/a	RESPONSE	M2	1	19	G4	press
714.154	n/a	RESPONSE	M2	1	17	F4	press
714.267	n/a	RESPONSE	M2	1	19	G4	release
714.466	n/a	RESPONSE	M2	1	00	C3	release
714.647	n/a	RESPONSE	M2	1	16	E4	press
714.649	n/a	RESPONSE	M2	1	00	C3	press
714.741	n/a	RESPONSE	M2	1	17	F4	release
715.182	n/a	RESPONSE	M2	1	17	F4	press
715.283	n/a	RESPONSE	M2	1	16	E4	release
715.313	n/a	RESPONSE	M2	1	07	G3	release
715.316	n/a	RESPONSE	M2	1	00	C3	release
715.667	n/a	RESPONSE	M2	1	07	G3	press
715.677	n/a	RESPONSE	M2	1	00	C3	press
715.679	n/a	RESPONSE	M2	1	19	G4	press
715.822	n/a	RESPONSE	M2	1	17	F4	release
717.521	n/a	RESPONSE	M2	1	19	G4	release
717.819	n/a	RESPONSE	M2	1	00	C3	release
717.872	n/a	RESPONSE	M2	1	07	G3	release
717.987	7.758	FIXCROSS	n/a	n/a	n/a	n/a	n/a
725.746	6.317	CUE_LISTEN	M2	2	n/a	n/a	n/a
732.062	7.758	FIXCROSS	n/a	n/a	n/a	n/a	n/a
739.821	6.317	CUE_PLAYBACK_BOTH_HANDS	M2	2	n/a	n/a	n/a
740.663	n/a	RESPONSE	M2	2	24	C5	press
740.666	n/a	RESPONSE	M2	2	00	C3	press
740.673	n/a	RESPONSE	M2	2	07	G3	press
741.244	n/a	RESPONSE	M2	2	19	G4	press
741.353	n/a	RESPONSE	M2	2	24	C5	release
741.574	n/a	RESPONSE	M2	2	00	C3	release
741.636	n/a	RESPONSE	M2	2	19	G4	release
741.749	n/a	RESPONSE	M2	2	00	C3	press
741.758	n/a	RESPONSE	M2	2	19	G4	press
742.269	n/a	RESPONSE	M2	2	17	F4	press
742.36	n/a	RESPONSE	M2	2	19	G4	release
742.403	n/a	RESPONSE	M2	2	07	G3	release
742.426	n/a	RESPONSE	M2	2	00	C3	release
742.714	n/a	RESPONSE	M2	2	16	E4	press
742.726	n/a	RESPONSE	M2	2	07	G3	press
742.747	n/a	RESPONSE	M2	2	00	C3	press
742.809	n/a	RESPONSE	M2	2	17	F4	release
743.23	n/a	RESPONSE	M2	2	14	D4	press
743.351	n/a	RESPONSE	M2	2	00	C3	release
743.354	n/a	RESPONSE	M2	2	07	G3	release
743.373	n/a	RESPONSE	M2	2	16	E4	release
743.706	n/a	RESPONSE	M2	2	12	C4	press
743.708	n/a	RESPONSE	M2	2	07	G3	press
743.767	n/a	RESPONSE	M2	2	00	C3	press
744.278	n/a	RESPONSE	M2	2	14	D4	release
745.299	n/a	RESPONSE	M2	2	12	C4	release
745.501	n/a	RESPONSE	M2	2	00	C3	release
745.532	n/a	RESPONSE	M2	2	07	G3	release
746.138	7.758	FIXCROSS	n/a	n/a	n/a	n/a	n/a
753.896	6.325	CUE_LISTEN	M2	1	n/a	n/a	n/a
760.221	7.758	FIXCROSS	n/a	n/a	n/a	n/a	n/a
767.979	6.317	CUE_PLAYBACK_BOTH_HANDS	M2	1	n/a	n/a	n/a
768.843	n/a	RESPONSE	M2	1	07	G3	press
768.848	n/a	RESPONSE	M2	1	00	C3	press
768.854	n/a	RESPONSE	M2	1	12	C4	press
769.371	n/a	RESPONSE	M2	1	14	D4	press
769.459	n/a	RESPONSE	M2	1	12	C4	release
769.573	n/a	RESPONSE	M2	1	00	C3	release
769.576	n/a	RESPONSE	M2	1	07	G3	release
769.827	n/a	RESPONSE	M2	1	16	E4	press
769.847	n/a	RESPONSE	M2	1	07	G3	press
769.849	n/a	RESPONSE	M2	1	00	C3	press
769.936	n/a	RESPONSE	M2	1	14	D4	release
770.323	n/a	RESPONSE	M2	1	14	D4	press
770.396	n/a	RESPONSE	M2	1	16	E4	release
770.422	n/a	RESPONSE	M2	1	00	C3	release
770.441	n/a	RESPONSE	M2	1	07	G3	release
770.787	n/a	RESPONSE	M2	1	16	E4	press
770.793	n/a	RESPONSE	M2	1	00	C3	press
770.802	n/a	RESPONSE	M2	1	07	G3	press
770.898	n/a	RESPONSE	M2	1	14	D4	release
771.341	n/a	RESPONSE	M2	1	17	F4	press
771.419	n/a	RESPONSE	M2	1	07	G3	release
771.433	n/a	RESPONSE	M2	1	00	C3	release
771.462	n/a	RESPONSE	M2	1	16	E4	release
771.813	n/a	RESPONSE	M2	1	00	C3	press
771.816	n/a	RESPONSE	M2	1	07	G3	press
771.836	n/a	RESPONSE	M2	1	19	G4	press
771.927	n/a	RESPONSE	M2	1	17	F4	release
773.338	n/a	RESPONSE	M2	1	07	G3	release
773.382	n/a	RESPONSE	M2	1	00	C3	release
773.521	n/a	RESPONSE	M2	1	19	G4	release
774.296	7.758	FIXCROSS	n/a	n/a	n/a	n/a	n/a
782.054	6.317	CUE_LISTEN	M2	2	n/a	n/a	n/a
788.371	7.758	FIXCROSS	n/a	n/a	n/a	n/a	n/a
796.129	6.325	CUE_PLAYBACK_BOTH_HANDS	M2	2	n/a	n/a	n/a
797.046	n/a	RESPONSE	M2	2	16	E4	press
797.056	n/a	RESPONSE	M2	2	07	G3	press
797.058	n/a	RESPONSE	M2	2	00	C3	press
797.571	n/a	RESPONSE	M2	2	19	G4	press
797.661	n/a	RESPONSE	M2	2	16	E4	release
797.749	n/a	RESPONSE	M2	2	00	C3	release
797.793	n/a	RESPONSE	M2	2	07	G3	release
797.841	n/a	RESPONSE	M2	2	19	G4	release
798.019	n/a	RESPONSE	M2	2	19	G4	press
798.023	n/a	RESPONSE	M2	2	00	C3	press
798.032	n/a	RESPONSE	M2	2	07	G3	press
798.547	n/a	RESPONSE	M2	2	17	F4	press
798.646	n/a	RESPONSE	M2	2	19	G4	release
798.747	n/a	RESPONSE	M2	2	00	C3	release
798.753	n/a	RESPONSE	M2	2	07	G3	release
799.017	n/a	RESPONSE	M2	2	00	C3	press
799.019	n/a	RESPONSE	M2	2	16	E4	press
799.022	n/a	RESPONSE	M2	2	07	G3	press
799.167	n/a	RESPONSE	M2	2	17	F4	release
799.522	n/a	RESPONSE	M2	2	14	D4	press
799.581	n/a	RESPONSE	M2	2	07	G3	release
799.598	n/a	RESPONSE	M2	2	00	C3	release
799.652	n/a	RESPONSE	M2	2	16	E4	release
799.979	n/a	RESPONSE	M2	2	07	G3	press
799.982	n/a	RESPONSE	M2	2	12	C4	press
799.986	n/a	RESPONSE	M2	2	00	C3	press
800.098	n/a	RESPONSE	M2	2	14	D4	release
802.454	7.758	FIXCROSS	n/a	n/a	n/a	n/a	n/a
803.353	n/a	RESPONSE	M2	2	12	C4	release
810.213	6.317	CUE_LISTEN	M3	1	n/a	n/a	n/a
811.913	n/a	RESPONSE	M3	1	00	C3	release
813.324	n/a	RESPONSE	M3	1	07	G3	release
816.529	7.758	FIXCROSS	n/a	n/a	n/a	n/a	n/a
824.288	6.317	CUE_PLAYBACK_RIGHT_HAND	M3	1	n/a	n/a	n/a
824.758	n/a	RESPONSE	M3	1	12	C4	press
825.189	n/a	RESPONSE	M3	1	14	D4	press
825.231	n/a	RESPONSE	M3	1	12	C4	release
825.592	n/a	RESPONSE	M3	1	16	E4	press
825.693	n/a	RESPONSE	M3	1	14	D4	release
826.024	n/a	RESPONSE	M3	1	12	C4	press
826.116	n/a	RESPONSE	M3	1	16	E4	release
826.327	n/a	RESPONSE	M3	1	12	C4	release
826.438	n/a	RESPONSE	M3	1	12	C4	press
826.859	n/a	RESPONSE	M3	1	14	D4	press
826.931	n/a	RESPONSE	M3	1	12	C4	release
827.252	n/a	RESPONSE	M3	1	16	E4	press
827.383	n/a	RESPONSE	M3	1	14	D4	release
827.713	n/a	RESPONSE	M3	1	12	C4	press
827.814	n/a	RESPONSE	M3	1	16	E4	release
829.118	n/a	RESPONSE	M3	1	12	C4	release
830.604	7.759	FIXCROSS	n/a	n/a	n/a	n/a	n/a
838.363	6.325	CUE_LISTEN	M3	2	n/a	n/a	n/a
844.688	7.758	FIXCROSS	n/a	n/a	n/a	n/a	n/a
852.446	6.317	CUE_PLAYBACK_RIGHT_HAND	M3	2	n/a	n/a	n/a
852.851	n/a	RESPONSE	M3	2	16	E4	press
853.322	n/a	RESPONSE	M3	2	17	F4	press
853.413	n/a	RESPONSE	M3	2	16	E4	release
853.796	n/a	RESPONSE	M3	2	19	G4	press
853.876	n/a	RESPONSE	M3	2	17	F4	release
854.507	n/a	RESPONSE	M3	2	19	G4	release
854.708	n/a	RESPONSE	M3	2	16	E4	press
855.161	n/a	RESPONSE	M3	2	17	F4	press
855.251	n/a	RESPONSE	M3	2	16	E4	release
855.654	n/a	RESPONSE	M3	2	19	G4	press
855.723	n/a	RESPONSE	M3	2	17	F4	release
858.763	7.759	FIXCROSS	n/a	n/a	n/a	n/a	n/a
862.513	n/a	RESPONSE	M3	2	19	G4	release
866.521	6.317	CUE_LISTEN	M3	1	n/a	n/a	n/a
872.838	7.758	FIXCROSS	n/a	n/a	n/a	n/a	n/a
880.596	6.325	CUE_PLAYBACK_RIGHT_HAND	M3	1	n/a	n/a	n/a
881.126	n/a	RESPONSE	M3	1	19	G4	press
881.154	n/a	RESPONSE	M3	1	17	F4	press
881.364	n/a	RESPONSE	M3	1	17	F4	release
881.466	n/a	RESPONSE	M3	1	19	G4	release
881.727	n/a	RESPONSE	M3	1	19	G4	press
882.051	n/a	RESPONSE	M3	1	21	A4	press
882.109	n/a	RESPONSE	M3	1	19	G4	release
882.311	n/a	RESPONSE	M3	1	19	G4	press
882.382	n/a	RESPONSE	M3	1	21	A4	release
882.616	n/a	RESPONSE	M3	1	17	F4	press
882.726	n/a	RESPONSE	M3	1	19	G4	release
882.906	n/a	RESPONSE	M3	1	16	E4	press
883.027	n/a	RESPONSE	M3	1	17	F4	release
883.448	n/a	RESPONSE	M3	1	12	C4	press
883.519	n/a	RESPONSE	M3	1	16	E4	release
883.961	n/a	RESPONSE	M3	1	19	G4	press
884.022	n/a	RESPONSE	M3	1	12	C4	release
884.196	n/a	RESPONSE	M3	1	21	A4	press
884.234	n/a	RESPONSE	M3	1	19	G4	release
884.388	n/a	RESPONSE	M3	1	19	G4	press
884.457	n/a	RESPONSE	M3	1	21	A4	release
884.728	n/a	RESPONSE	M3	1	17	F4	press
884.839	n/a	RESPONSE	M3	1	19	G4	release
885.071	n/a	RESPONSE	M3	1	16	E4	press
885.332	n/a	RESPONSE	M3	1	17	F4	release
885.623	n/a	RESPONSE	M3	1	12	C4	press
885.714	n/a	RESPONSE	M3	1	16	E4	release
886.921	7.759	FIXCROSS	n/a	n/a	n/a	n/a	n/a
888.301	n/a	RESPONSE	M3	1	12	C4	release
894.68	6.317	CUE_LISTEN	M3	2	n/a	n/a	n/a
900.996	7.758	FIXCROSS	n/a	n/a	n/a	n/a	n/a
908.755	216.646	CUE_PLAYBACK_RIGHT_HAND	M3	2	n/a	n/a	n/a
909.357	n/a	RESPONSE	M3	2	12	C4	press
909.657	n/a	RESPONSE	M3	2	12	C4	release
909.941	n/a	RESPONSE	M3	2	07	G3	press
910.221	n/a	RESPONSE	M3	2	07	G3	release
910.496	n/a	RESPONSE	M3	2	11	B3	press
910.647	n/a	RESPONSE	M3	2	11	B3	release
910.847	n/a	RESPONSE	M3	2	12	C4	press
911.427	n/a	RESPONSE	M3	2	12	C4	release
911.661	n/a	RESPONSE	M3	2	12	C4	press
911.839	n/a	RESPONSE	M3	2	12	C4	release
912.451	n/a	RESPONSE	M3	2	07	G3	press
912.742	n/a	RESPONSE	M3	2	07	G3	release
913.163	n/a	RESPONSE	M3	2	12	C4	press
913.244	n/a	FIXCROSS	n/a	n/a	n/a	n/a	n/a
915.396	n/a	RESPONSE	M3	2	12	C4	release
