onset	duration	trial_type	trial_number	stroop_condition	stim_text(PL)	stim_text(eng)	stim_color(PL)	stim_color(eng)	response_type	response_color
0.0	n/a	RESPONSE	n/a	n/a	n/a	n/a	n/a	n/a	n/a	n/a
0.0547	1.0333	ITI	n/a	n/a	n/a	n/a	n/a	n/a	n/a	n/a
1.088	0.5167	FIXCROSS	n/a	n/a	n/a	n/a	n/a	n/a	n/a	n/a
1.6047	0.9334	T_INK	1	Neutral	xxxxx	xxxxx	czerwony	red	hit	n/a
2.5115	n/a	RESPONSE	n/a	n/a	n/a	n/a	n/a	n/a	n/a	red
2.538	0.5167	FEEDBACK	n/a	n/a	n/a	n/a	n/a	n/a	n/a	n/a
3.0547	1.0167	ITI	n/a	n/a	n/a	n/a	n/a	n/a	n/a	n/a
4.0714	0.5167	FIXCROSS	n/a	n/a	n/a	n/a	n/a	n/a	n/a	n/a
4.5881	0.5833	T_INK	2	Neutral	xxxxxxxxx	xxxxxxxxx	czerwony	red	hit	n/a
5.1509	n/a	RESPONSE	n/a	n/a	n/a	n/a	n/a	n/a	n/a	red
5.1714	0.5167	FEEDBACK	n/a	n/a	n/a	n/a	n/a	n/a	n/a	n/a
5.6881	1.0167	ITI	n/a	n/a	n/a	n/a	n/a	n/a	n/a	n/a
6.7047	0.5167	FIXCROSS	n/a	n/a	n/a	n/a	n/a	n/a	n/a	n/a
7.2214	1.5834	T_INK	3	Incongruent	czerwony	red	żółty	yellow	hit	n/a
8.7821	n/a	RESPONSE	n/a	n/a	n/a	n/a	n/a	n/a	n/a	yellow
8.8048	0.5167	FEEDBACK	n/a	n/a	n/a	n/a	n/a	n/a	n/a	n/a
9.3214	1.0167	ITI	n/a	n/a	n/a	n/a	n/a	n/a	n/a	n/a
10.3381	0.5167	FIXCROSS	n/a	n/a	n/a	n/a	n/a	n/a	n/a	n/a
10.8548	0.7667	T_INK	4	Incongruent	zielony	green	żółty	yellow	hit	n/a
11.5975	n/a	RESPONSE	n/a	n/a	n/a	n/a	n/a	n/a	n/a	yellow
11.6215	0.5167	FEEDBACK	n/a	n/a	n/a	n/a	n/a	n/a	n/a	n/a
12.1381	1.0167	ITI	n/a	n/a	n/a	n/a	n/a	n/a	n/a	n/a
13.1548	0.5167	FIXCROSS	n/a	n/a	n/a	n/a	n/a	n/a	n/a	n/a
13.6715	0.6333	T_INK	5	Incongruent	żółty	yellow	czerwony	red	hit	n/a
14.2689	n/a	RESPONSE	n/a	n/a	n/a	n/a	n/a	n/a	n/a	red
14.3048	0.5167	FEEDBACK	n/a	n/a	n/a	n/a	n/a	n/a	n/a	n/a
14.8215	1.0167	ITI	n/a	n/a	n/a	n/a	n/a	n/a	n/a	n/a
15.8382	0.5167	FIXCROSS	n/a	n/a	n/a	n/a	n/a	n/a	n/a	n/a
16.3549	1.05	T_INK	6	Neutral	xxxxx	xxxxx	zielony	green	hit	n/a
17.3722	n/a	RESPONSE	n/a	n/a	n/a	n/a	n/a	n/a	n/a	green
17.4049	0.5167	FEEDBACK	n/a	n/a	n/a	n/a	n/a	n/a	n/a	n/a
17.9215	1.0167	ITI	n/a	n/a	n/a	n/a	n/a	n/a	n/a	n/a
18.9382	0.5167	FIXCROSS	n/a	n/a	n/a	n/a	n/a	n/a	n/a	n/a
19.4549	0.8667	T_INK	7	Neutral	xxxxxxx	xxxxxxx	żółty	yellow	hit	n/a
20.2996	n/a	RESPONSE	n/a	n/a	n/a	n/a	n/a	n/a	n/a	yellow
20.3216	0.5167	FEEDBACK	n/a	n/a	n/a	n/a	n/a	n/a	n/a	n/a
20.8383	1.0167	ITI	n/a	n/a	n/a	n/a	n/a	n/a	n/a	n/a
21.8549	0.5167	FIXCROSS	n/a	n/a	n/a	n/a	n/a	n/a	n/a	n/a
22.3716	1.0333	T_INK	8	Incongruent	żółty	yellow	zielony	green	hit	n/a
23.3709	n/a	RESPONSE	n/a	n/a	n/a	n/a	n/a	n/a	n/a	green
23.405	0.5167	FEEDBACK	n/a	n/a	n/a	n/a	n/a	n/a	n/a	n/a
23.9216	1.0167	ITI	n/a	n/a	n/a	n/a	n/a	n/a	n/a	n/a
24.9383	0.5167	FIXCROSS	n/a	n/a	n/a	n/a	n/a	n/a	n/a	n/a
25.455	0.8833	T_INK	9	Incongruent	niebieski	blue	zielony	green	hit	n/a
26.3143	n/a	RESPONSE	n/a	n/a	n/a	n/a	n/a	n/a	n/a	green
26.3383	0.5167	FEEDBACK	n/a	n/a	n/a	n/a	n/a	n/a	n/a	n/a
26.855	1.0167	ITI	n/a	n/a	n/a	n/a	n/a	n/a	n/a	n/a
27.8717	0.5167	FIXCROSS	n/a	n/a	n/a	n/a	n/a	n/a	n/a	n/a
28.3883	0.55	T_INK	10	Neutral	xxxxxxxx	xxxxxxxx	niebieski	blue	hit	n/a
28.9058	n/a	RESPONSE	n/a	n/a	n/a	n/a	n/a	n/a	n/a	blue
28.9383	0.5167	FEEDBACK	n/a	n/a	n/a	n/a	n/a	n/a	n/a	n/a
29.455	1.0167	ITI	n/a	n/a	n/a	n/a	n/a	n/a	n/a	n/a
30.4717	0.5167	FIXCROSS	n/a	n/a	n/a	n/a	n/a	n/a	n/a	n/a
30.9884	0.95	T_INK	11	Incongruent	zielony	green	niebieski	blue	hit	n/a
31.9131	n/a	RESPONSE	n/a	n/a	n/a	n/a	n/a	n/a	n/a	blue
31.9384	0.5167	FEEDBACK	n/a	n/a	n/a	n/a	n/a	n/a	n/a	n/a
32.455	1.0167	ITI	n/a	n/a	n/a	n/a	n/a	n/a	n/a	n/a
33.4717	0.5167	FIXCROSS	n/a	n/a	n/a	n/a	n/a	n/a	n/a	n/a
33.9884	0.5667	T_INK	12	Neutral	xxxxxxxx	xxxxxxxx	zielony	green	hit	n/a
34.5206	n/a	RESPONSE	n/a	n/a	n/a	n/a	n/a	n/a	n/a	green
34.5551	0.5167	FEEDBACK	n/a	n/a	n/a	n/a	n/a	n/a	n/a	n/a
35.0717	1.0334	ITI	n/a	n/a	n/a	n/a	n/a	n/a	n/a	n/a
42.0869	n/a	RESPONSE	n/a	n/a	n/a	n/a	n/a	n/a	n/a	n/a
42.1385	1.0167	ITI	n/a	n/a	n/a	n/a	n/a	n/a	n/a	n/a
43.1552	0.5167	FIXCROSS	n/a	n/a	n/a	n/a	n/a	n/a	n/a	n/a
43.6719	0.9333	INK	1	Neutral	xxxxxxxx	xxxxxxxx	zielony	green	hit	n/a
44.5824	n/a	RESPONSE	n/a	n/a	n/a	n/a	n/a	n/a	n/a	green
44.6052	1.0167	ITI	n/a	n/a	n/a	n/a	n/a	n/a	n/a	n/a
45.6219	0.5167	FIXCROSS	n/a	n/a	n/a	n/a	n/a	n/a	n/a	n/a
46.1385	0.85	INK	2	Incongruent	zielony	green	żółty	yellow	hit	n/a
46.9658	n/a	RESPONSE	n/a	n/a	n/a	n/a	n/a	n/a	n/a	yellow
46.9886	1.0167	ITI	n/a	n/a	n/a	n/a	n/a	n/a	n/a	n/a
48.0052	0.5167	FIXCROSS	n/a	n/a	n/a	n/a	n/a	n/a	n/a	n/a
48.5219	0.4167	INK	3	Neutral	xxxxxxxx	xxxxxxxx	niebieski	blue	hit	n/a
48.9175	n/a	RESPONSE	n/a	n/a	n/a	n/a	n/a	n/a	n/a	blue
48.9386	1.0167	ITI	n/a	n/a	n/a	n/a	n/a	n/a	n/a	n/a
49.9552	0.5167	FIXCROSS	n/a	n/a	n/a	n/a	n/a	n/a	n/a	n/a
50.4719	0.55	INK	4	Incongruent	zielony	green	czerwony	red	hit	n/a
50.997	n/a	RESPONSE	n/a	n/a	n/a	n/a	n/a	n/a	n/a	red
51.0219	1.0167	ITI	n/a	n/a	n/a	n/a	n/a	n/a	n/a	n/a
52.0386	0.5167	FIXCROSS	n/a	n/a	n/a	n/a	n/a	n/a	n/a	n/a
52.5553	0.55	INK	5	Neutral	xxxxx	xxxxx	niebieski	blue	hit	n/a
53.0765	n/a	RESPONSE	n/a	n/a	n/a	n/a	n/a	n/a	n/a	blue
53.1053	1.0167	ITI	n/a	n/a	n/a	n/a	n/a	n/a	n/a	n/a
54.122	0.5167	FIXCROSS	n/a	n/a	n/a	n/a	n/a	n/a	n/a	n/a
54.6386	0.9167	INK	6	Incongruent	żółty	yellow	zielony	green	hit	n/a
55.524	n/a	RESPONSE	n/a	n/a	n/a	n/a	n/a	n/a	n/a	green
55.5553	1.0167	ITI	n/a	n/a	n/a	n/a	n/a	n/a	n/a	n/a
56.572	0.5167	FIXCROSS	n/a	n/a	n/a	n/a	n/a	n/a	n/a	n/a
57.0887	0.7667	INK	7	Incongruent	zielony	green	niebieski	blue	hit	n/a
57.8275	n/a	RESPONSE	n/a	n/a	n/a	n/a	n/a	n/a	n/a	blue
57.8553	1.0167	ITI	n/a	n/a	n/a	n/a	n/a	n/a	n/a	n/a
58.872	0.5167	FIXCROSS	n/a	n/a	n/a	n/a	n/a	n/a	n/a	n/a
59.3887	0.5667	INK	8	Neutral	xxxxxxx	xxxxxxx	czerwony	red	hit	n/a
59.9231	n/a	RESPONSE	n/a	n/a	n/a	n/a	n/a	n/a	n/a	red
59.9554	1.0167	ITI	n/a	n/a	n/a	n/a	n/a	n/a	n/a	n/a
60.972	0.5167	FIXCROSS	n/a	n/a	n/a	n/a	n/a	n/a	n/a	n/a
61.4887	0.7334	INK	9	Incongruent	żółty	yellow	niebieski	blue	incorrect	n/a
62.1946	n/a	RESPONSE	n/a	n/a	n/a	n/a	n/a	n/a	n/a	yellow
62.2221	1.0167	ITI	n/a	n/a	n/a	n/a	n/a	n/a	n/a	n/a
63.2387	0.5167	FIXCROSS	n/a	n/a	n/a	n/a	n/a	n/a	n/a	n/a
63.7554	0.6833	INK	10	Incongruent	zielony	green	niebieski	blue	hit	n/a
64.4181	n/a	RESPONSE	n/a	n/a	n/a	n/a	n/a	n/a	n/a	blue
64.4388	1.0167	ITI	n/a	n/a	n/a	n/a	n/a	n/a	n/a	n/a
65.4554	0.5167	FIXCROSS	n/a	n/a	n/a	n/a	n/a	n/a	n/a	n/a
65.9721	1.1167	INK	11	Incongruent	czerwony	red	zielony	green	hit	n/a
67.0575	n/a	RESPONSE	n/a	n/a	n/a	n/a	n/a	n/a	n/a	green
67.0888	1.0167	ITI	n/a	n/a	n/a	n/a	n/a	n/a	n/a	n/a
68.1055	0.5167	FIXCROSS	n/a	n/a	n/a	n/a	n/a	n/a	n/a	n/a
68.6221	0.5333	INK	12	Neutral	xxxxxxxxx	xxxxxxxxx	czerwony	red	hit	n/a
69.1371	n/a	RESPONSE	n/a	n/a	n/a	n/a	n/a	n/a	n/a	red
69.1555	1.0167	ITI	n/a	n/a	n/a	n/a	n/a	n/a	n/a	n/a
70.1722	0.5167	FIXCROSS	n/a	n/a	n/a	n/a	n/a	n/a	n/a	n/a
70.6888	1.05	INK	13	Neutral	xxxxxxxx	xxxxxxxx	niebieski	blue	hit	n/a
71.7125	n/a	RESPONSE	n/a	n/a	n/a	n/a	n/a	n/a	n/a	blue
71.7388	1.0167	ITI	n/a	n/a	n/a	n/a	n/a	n/a	n/a	n/a
72.7555	0.5167	FIXCROSS	n/a	n/a	n/a	n/a	n/a	n/a	n/a	n/a
73.2722	0.8333	INK	14	Neutral	xxxxx	xxxxx	czerwony	red	hit	n/a
74.08	n/a	RESPONSE	n/a	n/a	n/a	n/a	n/a	n/a	n/a	red
74.1055	1.0167	ITI	n/a	n/a	n/a	n/a	n/a	n/a	n/a	n/a
75.1222	0.5167	FIXCROSS	n/a	n/a	n/a	n/a	n/a	n/a	n/a	n/a
75.6389	0.55	INK	15	Neutral	xxxxxxxx	xxxxxxxx	żółty	yellow	hit	n/a
76.1596	n/a	RESPONSE	n/a	n/a	n/a	n/a	n/a	n/a	n/a	yellow
76.1889	1.0167	ITI	n/a	n/a	n/a	n/a	n/a	n/a	n/a	n/a
77.2056	0.5167	FIXCROSS	n/a	n/a	n/a	n/a	n/a	n/a	n/a	n/a
77.7222	0.55	INK	16	Neutral	xxxxxxxxx	xxxxxxxxx	zielony	green	hit	n/a
78.2391	n/a	RESPONSE	n/a	n/a	n/a	n/a	n/a	n/a	n/a	green
78.2722	1.0167	ITI	n/a	n/a	n/a	n/a	n/a	n/a	n/a	n/a
79.2889	0.5167	FIXCROSS	n/a	n/a	n/a	n/a	n/a	n/a	n/a	n/a
79.8056	0.95	INK	17	Incongruent	czerwony	red	zielony	green	hit	n/a
80.7346	n/a	RESPONSE	n/a	n/a	n/a	n/a	n/a	n/a	n/a	green
80.7556	1.0167	ITI	n/a	n/a	n/a	n/a	n/a	n/a	n/a	n/a
81.7723	0.5167	FIXCROSS	n/a	n/a	n/a	n/a	n/a	n/a	n/a	n/a
82.2889	0.6334	INK	18	Incongruent	czerwony	red	żółty	yellow	hit	n/a
82.8941	n/a	RESPONSE	n/a	n/a	n/a	n/a	n/a	n/a	n/a	yellow
82.9223	1.0167	ITI	n/a	n/a	n/a	n/a	n/a	n/a	n/a	n/a
83.939	0.5167	FIXCROSS	n/a	n/a	n/a	n/a	n/a	n/a	n/a	n/a
84.4556	0.7167	INK	19	Neutral	xxxxx	xxxxx	niebieski	blue	hit	n/a
85.1497	n/a	RESPONSE	n/a	n/a	n/a	n/a	n/a	n/a	n/a	blue
85.1723	1.0167	ITI	n/a	n/a	n/a	n/a	n/a	n/a	n/a	n/a
86.189	0.5167	FIXCROSS	n/a	n/a	n/a	n/a	n/a	n/a	n/a	n/a
86.7057	0.7333	INK	20	Incongruent	czerwony	red	zielony	green	incorrect	n/a
87.4052	n/a	RESPONSE	n/a	n/a	n/a	n/a	n/a	n/a	n/a	yellow
87.439	1.0167	ITI	n/a	n/a	n/a	n/a	n/a	n/a	n/a	n/a
88.4557	0.5167	FIXCROSS	n/a	n/a	n/a	n/a	n/a	n/a	n/a	n/a
88.9724	0.5334	INK	21	Incongruent	żółty	yellow	niebieski	blue	hit	n/a
89.4847	n/a	RESPONSE	n/a	n/a	n/a	n/a	n/a	n/a	n/a	blue
89.5057	1.0167	ITI	n/a	n/a	n/a	n/a	n/a	n/a	n/a	n/a
90.5224	0.5167	FIXCROSS	n/a	n/a	n/a	n/a	n/a	n/a	n/a	n/a
91.039	0.55	INK	22	Neutral	xxxxxxx	xxxxxxx	żółty	yellow	hit	n/a
91.5643	n/a	RESPONSE	n/a	n/a	n/a	n/a	n/a	n/a	n/a	yellow
91.5891	1.0167	ITI	n/a	n/a	n/a	n/a	n/a	n/a	n/a	n/a
92.6057	0.5167	FIXCROSS	n/a	n/a	n/a	n/a	n/a	n/a	n/a	n/a
93.1224	0.8667	INK	23	Incongruent	żółty	yellow	zielony	green	hit	n/a
93.9637	n/a	RESPONSE	n/a	n/a	n/a	n/a	n/a	n/a	n/a	green
93.9891	1.0167	ITI	n/a	n/a	n/a	n/a	n/a	n/a	n/a	n/a
95.0058	0.5167	FIXCROSS	n/a	n/a	n/a	n/a	n/a	n/a	n/a	n/a
95.5224	0.9	INK	24	Incongruent	żółty	yellow	czerwony	red	hit	n/a
96.3952	n/a	RESPONSE	n/a	n/a	n/a	n/a	n/a	n/a	n/a	red
96.4224	1.0167	ITI	n/a	n/a	n/a	n/a	n/a	n/a	n/a	n/a
97.4391	0.5167	FIXCROSS	n/a	n/a	n/a	n/a	n/a	n/a	n/a	n/a
97.9558	0.6333	INK	25	Neutral	xxxxxxxxx	xxxxxxxxx	zielony	green	hit	n/a
98.5707	n/a	RESPONSE	n/a	n/a	n/a	n/a	n/a	n/a	n/a	green
98.5891	1.0167	ITI	n/a	n/a	n/a	n/a	n/a	n/a	n/a	n/a
99.6058	0.5167	FIXCROSS	n/a	n/a	n/a	n/a	n/a	n/a	n/a	n/a
100.1225	0.8	INK	26	Incongruent	niebieski	blue	czerwony	red	hit	n/a
100.8902	n/a	RESPONSE	n/a	n/a	n/a	n/a	n/a	n/a	n/a	red
100.9225	1.0167	ITI	n/a	n/a	n/a	n/a	n/a	n/a	n/a	n/a
101.9392	0.5167	FIXCROSS	n/a	n/a	n/a	n/a	n/a	n/a	n/a	n/a
102.4558	0.6167	INK	27	Incongruent	zielony	green	czerwony	red	hit	n/a
103.0498	n/a	RESPONSE	n/a	n/a	n/a	n/a	n/a	n/a	n/a	red
103.0725	1.0167	ITI	n/a	n/a	n/a	n/a	n/a	n/a	n/a	n/a
104.0892	0.5167	FIXCROSS	n/a	n/a	n/a	n/a	n/a	n/a	n/a	n/a
104.6059	0.65	INK	28	Neutral	xxxxxxxx	xxxxxxxx	zielony	green	hit	n/a
105.2253	n/a	RESPONSE	n/a	n/a	n/a	n/a	n/a	n/a	n/a	green
105.2559	1.0167	ITI	n/a	n/a	n/a	n/a	n/a	n/a	n/a	n/a
106.2726	0.5167	FIXCROSS	n/a	n/a	n/a	n/a	n/a	n/a	n/a	n/a
106.7892	0.55	INK	29	Incongruent	niebieski	blue	czerwony	red	hit	n/a
107.3209	n/a	RESPONSE	n/a	n/a	n/a	n/a	n/a	n/a	n/a	red
107.3392	1.0167	ITI	n/a	n/a	n/a	n/a	n/a	n/a	n/a	n/a
108.3559	0.5167	FIXCROSS	n/a	n/a	n/a	n/a	n/a	n/a	n/a	n/a
108.8726	0.5333	INK	30	Neutral	xxxxxxx	xxxxxxx	żółty	yellow	hit	n/a
109.3844	n/a	RESPONSE	n/a	n/a	n/a	n/a	n/a	n/a	n/a	yellow
109.4059	1.0167	ITI	n/a	n/a	n/a	n/a	n/a	n/a	n/a	n/a
110.4226	0.5167	FIXCROSS	n/a	n/a	n/a	n/a	n/a	n/a	n/a	n/a
110.9393	0.8	INK	31	Neutral	xxxxxxxxx	xxxxxxxxx	czerwony	red	hit	n/a
111.7199	n/a	RESPONSE	n/a	n/a	n/a	n/a	n/a	n/a	n/a	red
111.7393	1.0167	ITI	n/a	n/a	n/a	n/a	n/a	n/a	n/a	n/a
112.756	0.5167	FIXCROSS	n/a	n/a	n/a	n/a	n/a	n/a	n/a	n/a
113.2726	0.6667	INK	32	Neutral	xxxxx	xxxxx	zielony	green	hit	n/a
113.9114	n/a	RESPONSE	n/a	n/a	n/a	n/a	n/a	n/a	n/a	green
113.9393	1.0167	ITI	n/a	n/a	n/a	n/a	n/a	n/a	n/a	n/a
114.956	0.5167	FIXCROSS	n/a	n/a	n/a	n/a	n/a	n/a	n/a	n/a
115.4727	0.7334	INK	33	Incongruent	czerwony	red	niebieski	blue	hit	n/a
116.183	n/a	RESPONSE	n/a	n/a	n/a	n/a	n/a	n/a	n/a	blue
116.206	1.0167	ITI	n/a	n/a	n/a	n/a	n/a	n/a	n/a	n/a
117.2227	0.5167	FIXCROSS	n/a	n/a	n/a	n/a	n/a	n/a	n/a	n/a
117.7394	0.4667	INK	34	Incongruent	czerwony	red	niebieski	blue	hit	n/a
118.1825	n/a	RESPONSE	n/a	n/a	n/a	n/a	n/a	n/a	n/a	blue
118.206	1.0167	ITI	n/a	n/a	n/a	n/a	n/a	n/a	n/a	n/a
119.2227	0.5167	FIXCROSS	n/a	n/a	n/a	n/a	n/a	n/a	n/a	n/a
119.7394	0.5167	INK	35	Neutral	xxxxxxx	xxxxxxx	niebieski	blue	hit	n/a
120.2301	n/a	RESPONSE	n/a	n/a	n/a	n/a	n/a	n/a	n/a	blue
120.256	1.0167	ITI	n/a	n/a	n/a	n/a	n/a	n/a	n/a	n/a
121.2727	0.5167	FIXCROSS	n/a	n/a	n/a	n/a	n/a	n/a	n/a	n/a
121.7894	0.7	INK	36	Incongruent	żółty	yellow	zielony	green	hit	n/a
122.4696	n/a	RESPONSE	n/a	n/a	n/a	n/a	n/a	n/a	n/a	green
122.4894	1.0167	ITI	n/a	n/a	n/a	n/a	n/a	n/a	n/a	n/a
123.5061	0.5167	FIXCROSS	n/a	n/a	n/a	n/a	n/a	n/a	n/a	n/a
124.0228	0.45	INK	37	Neutral	xxxxx	xxxxx	czerwony	red	hit	n/a
124.4531	n/a	RESPONSE	n/a	n/a	n/a	n/a	n/a	n/a	n/a	red
124.4728	1.0167	ITI	n/a	n/a	n/a	n/a	n/a	n/a	n/a	n/a
125.4894	0.5167	FIXCROSS	n/a	n/a	n/a	n/a	n/a	n/a	n/a	n/a
126.0061	0.4333	INK	38	Neutral	xxxxx	xxxxx	niebieski	blue	hit	n/a
126.4207	n/a	RESPONSE	n/a	n/a	n/a	n/a	n/a	n/a	n/a	blue
126.4394	1.0167	ITI	n/a	n/a	n/a	n/a	n/a	n/a	n/a	n/a
127.4561	0.5167	FIXCROSS	n/a	n/a	n/a	n/a	n/a	n/a	n/a	n/a
127.9728	0.5833	INK	39	Neutral	xxxxxxx	xxxxxxx	żółty	yellow	hit	n/a
128.5323	n/a	RESPONSE	n/a	n/a	n/a	n/a	n/a	n/a	n/a	yellow
128.5561	1.0167	ITI	n/a	n/a	n/a	n/a	n/a	n/a	n/a	n/a
129.5728	0.5167	FIXCROSS	n/a	n/a	n/a	n/a	n/a	n/a	n/a	n/a
130.0895	0.5	INK	40	Neutral	xxxxxxxxx	xxxxxxxxx	czerwony	red	hit	n/a
130.5639	n/a	RESPONSE	n/a	n/a	n/a	n/a	n/a	n/a	n/a	red
130.5895	1.0167	ITI	n/a	n/a	n/a	n/a	n/a	n/a	n/a	n/a
131.6062	0.5167	FIXCROSS	n/a	n/a	n/a	n/a	n/a	n/a	n/a	n/a
132.1228	0.9	INK	41	Incongruent	niebieski	blue	zielony	green	hit	n/a
132.9953	n/a	RESPONSE	n/a	n/a	n/a	n/a	n/a	n/a	n/a	green
133.0229	1.0167	ITI	n/a	n/a	n/a	n/a	n/a	n/a	n/a	n/a
134.0395	0.5167	FIXCROSS	n/a	n/a	n/a	n/a	n/a	n/a	n/a	n/a
134.5562	0.6333	INK	42	Neutral	xxxxxxxxx	xxxxxxxxx	żółty	yellow	hit	n/a
135.1708	n/a	RESPONSE	n/a	n/a	n/a	n/a	n/a	n/a	n/a	yellow
135.1895	1.0167	ITI	n/a	n/a	n/a	n/a	n/a	n/a	n/a	n/a
136.2062	0.5167	FIXCROSS	n/a	n/a	n/a	n/a	n/a	n/a	n/a	n/a
136.7229	0.6333	INK	43	Incongruent	żółty	yellow	czerwony	red	hit	n/a
137.3303	n/a	RESPONSE	n/a	n/a	n/a	n/a	n/a	n/a	n/a	red
137.3562	1.0167	ITI	n/a	n/a	n/a	n/a	n/a	n/a	n/a	n/a
138.3729	0.5167	FIXCROSS	n/a	n/a	n/a	n/a	n/a	n/a	n/a	n/a
138.8896	0.9333	INK	44	Incongruent	żółty	yellow	niebieski	blue	hit	n/a
139.7938	n/a	RESPONSE	n/a	n/a	n/a	n/a	n/a	n/a	n/a	blue
139.8229	1.0167	ITI	n/a	n/a	n/a	n/a	n/a	n/a	n/a	n/a
140.8396	0.5167	FIXCROSS	n/a	n/a	n/a	n/a	n/a	n/a	n/a	n/a
141.3563	0.5667	INK	45	Incongruent	zielony	green	żółty	yellow	hit	n/a
141.8894	n/a	RESPONSE	n/a	n/a	n/a	n/a	n/a	n/a	n/a	yellow
141.923	1.0167	ITI	n/a	n/a	n/a	n/a	n/a	n/a	n/a	n/a
142.9396	0.5167	FIXCROSS	n/a	n/a	n/a	n/a	n/a	n/a	n/a	n/a
143.4563	0.7167	INK	46	Incongruent	zielony	green	żółty	yellow	hit	n/a
144.1449	n/a	RESPONSE	n/a	n/a	n/a	n/a	n/a	n/a	n/a	yellow
144.173	1.0167	ITI	n/a	n/a	n/a	n/a	n/a	n/a	n/a	n/a
145.1897	0.5167	FIXCROSS	n/a	n/a	n/a	n/a	n/a	n/a	n/a	n/a
145.7063	0.8333	INK	47	Incongruent	niebieski	blue	żółty	yellow	hit	n/a
146.5124	n/a	RESPONSE	n/a	n/a	n/a	n/a	n/a	n/a	n/a	yellow
146.5397	1.0167	ITI	n/a	n/a	n/a	n/a	n/a	n/a	n/a	n/a
147.5564	0.5167	FIXCROSS	n/a	n/a	n/a	n/a	n/a	n/a	n/a	n/a
148.073	0.6834	INK	48	Incongruent	zielony	green	czerwony	red	hit	n/a
148.7359	n/a	RESPONSE	n/a	n/a	n/a	n/a	n/a	n/a	n/a	red
148.7564	1.0167	ITI	n/a	n/a	n/a	n/a	n/a	n/a	n/a	n/a
149.7731	0.5167	FIXCROSS	n/a	n/a	n/a	n/a	n/a	n/a	n/a	n/a
150.2897	0.5333	INK	49	Neutral	xxxxxxxxx	xxxxxxxxx	żółty	yellow	hit	n/a
150.7995	n/a	RESPONSE	n/a	n/a	n/a	n/a	n/a	n/a	n/a	yellow
150.8231	1.0167	ITI	n/a	n/a	n/a	n/a	n/a	n/a	n/a	n/a
151.8397	0.5167	FIXCROSS	n/a	n/a	n/a	n/a	n/a	n/a	n/a	n/a
152.3564	0.4833	INK	50	Neutral	xxxxxxxx	xxxxxxxx	niebieski	blue	hit	n/a
152.815	n/a	RESPONSE	n/a	n/a	n/a	n/a	n/a	n/a	n/a	blue
152.8397	1.0167	ITI	n/a	n/a	n/a	n/a	n/a	n/a	n/a	n/a
153.8564	0.5167	FIXCROSS	n/a	n/a	n/a	n/a	n/a	n/a	n/a	n/a
154.3731	1.2	INK	51	Incongruent	niebieski	blue	zielony	green	hit	n/a
155.5504	n/a	RESPONSE	n/a	n/a	n/a	n/a	n/a	n/a	n/a	green
155.5731	1.0167	ITI	n/a	n/a	n/a	n/a	n/a	n/a	n/a	n/a
156.5898	0.5167	FIXCROSS	n/a	n/a	n/a	n/a	n/a	n/a	n/a	n/a
157.1065	0.6667	INK	52	Incongruent	żółty	yellow	czerwony	red	hit	n/a
157.742	n/a	RESPONSE	n/a	n/a	n/a	n/a	n/a	n/a	n/a	red
157.7731	1.0167	ITI	n/a	n/a	n/a	n/a	n/a	n/a	n/a	n/a
158.7898	0.5167	FIXCROSS	n/a	n/a	n/a	n/a	n/a	n/a	n/a	n/a
159.3065	0.7333	INK	53	Neutral	xxxxxxx	xxxxxxx	czerwony	red	hit	n/a
160.0135	n/a	RESPONSE	n/a	n/a	n/a	n/a	n/a	n/a	n/a	red
160.0398	1.0167	ITI	n/a	n/a	n/a	n/a	n/a	n/a	n/a	n/a
161.0565	0.5167	FIXCROSS	n/a	n/a	n/a	n/a	n/a	n/a	n/a	n/a
161.5732	0.8333	INK	54	Incongruent	czerwony	red	żółty	yellow	hit	n/a
162.381	n/a	RESPONSE	n/a	n/a	n/a	n/a	n/a	n/a	n/a	yellow
162.4065	1.0167	ITI	n/a	n/a	n/a	n/a	n/a	n/a	n/a	n/a
163.4232	0.5167	FIXCROSS	n/a	n/a	n/a	n/a	n/a	n/a	n/a	n/a
163.9399	0.5167	INK	55	Neutral	xxxxx	xxxxx	czerwony	red	hit	n/a
164.4285	n/a	RESPONSE	n/a	n/a	n/a	n/a	n/a	n/a	n/a	red
164.4565	1.0167	ITI	n/a	n/a	n/a	n/a	n/a	n/a	n/a	n/a
165.4732	0.5167	FIXCROSS	n/a	n/a	n/a	n/a	n/a	n/a	n/a	n/a
165.9899	0.4833	INK	56	Neutral	xxxxxxx	xxxxxxx	czerwony	red	hit	n/a
166.4441	n/a	RESPONSE	n/a	n/a	n/a	n/a	n/a	n/a	n/a	red
166.4732	1.0167	ITI	n/a	n/a	n/a	n/a	n/a	n/a	n/a	n/a
167.4899	0.5167	FIXCROSS	n/a	n/a	n/a	n/a	n/a	n/a	n/a	n/a
168.0066	0.5667	INK	57	Neutral	xxxxxxxx	xxxxxxxx	żółty	yellow	hit	n/a
168.5396	n/a	RESPONSE	n/a	n/a	n/a	n/a	n/a	n/a	n/a	yellow
168.5733	1.0167	ITI	n/a	n/a	n/a	n/a	n/a	n/a	n/a	n/a
169.5899	0.5167	FIXCROSS	n/a	n/a	n/a	n/a	n/a	n/a	n/a	n/a
170.1066	0.6333	INK	58	Incongruent	niebieski	blue	żółty	yellow	hit	n/a
170.7152	n/a	RESPONSE	n/a	n/a	n/a	n/a	n/a	n/a	n/a	yellow
170.7399	1.0167	ITI	n/a	n/a	n/a	n/a	n/a	n/a	n/a	n/a
171.7566	0.5167	FIXCROSS	n/a	n/a	n/a	n/a	n/a	n/a	n/a	n/a
172.2733	0.75	INK	59	Neutral	xxxxxxx	xxxxxxx	niebieski	blue	hit	n/a
173.0027	n/a	RESPONSE	n/a	n/a	n/a	n/a	n/a	n/a	n/a	blue
173.0233	1.0167	ITI	n/a	n/a	n/a	n/a	n/a	n/a	n/a	n/a
174.04	0.5167	FIXCROSS	n/a	n/a	n/a	n/a	n/a	n/a	n/a	n/a
174.5567	0.65	INK	60	Neutral	xxxxx	xxxxx	zielony	green	hit	n/a
175.1782	n/a	RESPONSE	n/a	n/a	n/a	n/a	n/a	n/a	n/a	green
175.2067	1.0167	ITI	n/a	n/a	n/a	n/a	n/a	n/a	n/a	n/a
176.2233	0.5167	FIXCROSS	n/a	n/a	n/a	n/a	n/a	n/a	n/a	n/a
176.74	0.65	INK	61	Neutral	xxxxxxxxx	xxxxxxxxx	zielony	green	hit	n/a
177.3697	n/a	RESPONSE	n/a	n/a	n/a	n/a	n/a	n/a	n/a	green
177.39	1.0167	ITI	n/a	n/a	n/a	n/a	n/a	n/a	n/a	n/a
178.4067	0.5167	FIXCROSS	n/a	n/a	n/a	n/a	n/a	n/a	n/a	n/a
178.9234	0.6	INK	62	Incongruent	niebieski	blue	zielony	green	hit	n/a
179.4973	n/a	RESPONSE	n/a	n/a	n/a	n/a	n/a	n/a	n/a	green
179.5234	1.0167	ITI	n/a	n/a	n/a	n/a	n/a	n/a	n/a	n/a
180.5401	0.5167	FIXCROSS	n/a	n/a	n/a	n/a	n/a	n/a	n/a	n/a
181.0567	0.3833	INK	63	Neutral	xxxxxxxx	xxxxxxxx	zielony	green	hit	n/a
181.4169	n/a	RESPONSE	n/a	n/a	n/a	n/a	n/a	n/a	n/a	green
181.4401	1.0167	ITI	n/a	n/a	n/a	n/a	n/a	n/a	n/a	n/a
182.4567	0.5167	FIXCROSS	n/a	n/a	n/a	n/a	n/a	n/a	n/a	n/a
182.9734	0.6667	INK	64	Neutral	xxxxxxxxx	xxxxxxxxx	żółty	yellow	hit	n/a
183.6084	n/a	RESPONSE	n/a	n/a	n/a	n/a	n/a	n/a	n/a	yellow
183.6401	1.0167	ITI	n/a	n/a	n/a	n/a	n/a	n/a	n/a	n/a
184.6568	0.5167	FIXCROSS	n/a	n/a	n/a	n/a	n/a	n/a	n/a	n/a
185.1735	0.75	INK	65	Incongruent	czerwony	red	żółty	yellow	hit	n/a
185.8959	n/a	RESPONSE	n/a	n/a	n/a	n/a	n/a	n/a	n/a	yellow
185.9234	1.0167	ITI	n/a	n/a	n/a	n/a	n/a	n/a	n/a	n/a
186.9401	0.5167	FIXCROSS	n/a	n/a	n/a	n/a	n/a	n/a	n/a	n/a
187.4568	0.7	INK	66	Incongruent	zielony	green	niebieski	blue	hit	n/a
188.1354	n/a	RESPONSE	n/a	n/a	n/a	n/a	n/a	n/a	n/a	blue
188.1568	1.0167	ITI	n/a	n/a	n/a	n/a	n/a	n/a	n/a	n/a
189.1735	0.5167	FIXCROSS	n/a	n/a	n/a	n/a	n/a	n/a	n/a	n/a
189.6902	0.6167	INK	67	Neutral	xxxxxxx	xxxxxxx	niebieski	blue	hit	n/a
190.2789	n/a	RESPONSE	n/a	n/a	n/a	n/a	n/a	n/a	n/a	blue
190.3068	1.0167	ITI	n/a	n/a	n/a	n/a	n/a	n/a	n/a	n/a
191.3235	0.5167	FIXCROSS	n/a	n/a	n/a	n/a	n/a	n/a	n/a	n/a
191.8402	0.6333	INK	68	Neutral	xxxxx	xxxxx	zielony	green	hit	n/a
192.4544	n/a	RESPONSE	n/a	n/a	n/a	n/a	n/a	n/a	n/a	green
192.4735	1.0167	ITI	n/a	n/a	n/a	n/a	n/a	n/a	n/a	n/a
193.4902	0.5167	FIXCROSS	n/a	n/a	n/a	n/a	n/a	n/a	n/a	n/a
194.0069	0.8667	INK	69	Incongruent	niebieski	blue	żółty	yellow	hit	n/a
194.8539	n/a	RESPONSE	n/a	n/a	n/a	n/a	n/a	n/a	n/a	yellow
194.8736	1.0167	ITI	n/a	n/a	n/a	n/a	n/a	n/a	n/a	n/a
195.8902	0.5167	FIXCROSS	n/a	n/a	n/a	n/a	n/a	n/a	n/a	n/a
196.4069	0.4667	INK	70	Neutral	xxxxxxxx	xxxxxxxx	żółty	yellow	hit	n/a
196.8535	n/a	RESPONSE	n/a	n/a	n/a	n/a	n/a	n/a	n/a	yellow
196.8736	1.0167	ITI	n/a	n/a	n/a	n/a	n/a	n/a	n/a	n/a
197.8903	0.5167	FIXCROSS	n/a	n/a	n/a	n/a	n/a	n/a	n/a	n/a
198.4069	0.5667	INK	71	Incongruent	czerwony	red	niebieski	blue	hit	n/a
198.9491	n/a	RESPONSE	n/a	n/a	n/a	n/a	n/a	n/a	n/a	blue
198.9736	1.0167	ITI	n/a	n/a	n/a	n/a	n/a	n/a	n/a	n/a
199.9903	0.5167	FIXCROSS	n/a	n/a	n/a	n/a	n/a	n/a	n/a	n/a
200.5069	0.5	INK	72	Incongruent	niebieski	blue	czerwony	red	hit	n/a
200.9806	n/a	RESPONSE	n/a	n/a	n/a	n/a	n/a	n/a	n/a	red
201.007	1.0833	ITI	n/a	n/a	n/a	n/a	n/a	n/a	n/a	n/a
228.8946	n/a	RESPONSE	n/a	n/a	n/a	n/a	n/a	n/a	n/a	n/a
228.9573	1.0167	ITI	n/a	n/a	n/a	n/a	n/a	n/a	n/a	n/a
229.9739	0.5167	FIXCROSS	n/a	n/a	n/a	n/a	n/a	n/a	n/a	n/a
230.4906	0.7834	T_COLOR_NAME	1	Incongruent	czerwony	red	żółty	yellow	hit	n/a
231.246	n/a	RESPONSE	n/a	n/a	n/a	n/a	n/a	n/a	n/a	red
231.274	0.5167	FEEDBACK	n/a	n/a	n/a	n/a	n/a	n/a	n/a	n/a
231.7906	1.0167	ITI	n/a	n/a	n/a	n/a	n/a	n/a	n/a	n/a
232.8073	0.5167	FIXCROSS	n/a	n/a	n/a	n/a	n/a	n/a	n/a	n/a
233.324	0.6333	T_COLOR_NAME	2	Neutral	zielony	green	Neutral	Neutral	hit	n/a
233.9335	n/a	RESPONSE	n/a	n/a	n/a	n/a	n/a	n/a	n/a	green
233.9573	0.5167	FEEDBACK	n/a	n/a	n/a	n/a	n/a	n/a	n/a	n/a
234.474	1.0167	ITI	n/a	n/a	n/a	n/a	n/a	n/a	n/a	n/a
235.4907	0.5167	FIXCROSS	n/a	n/a	n/a	n/a	n/a	n/a	n/a	n/a
236.0073	0.6167	T_COLOR_NAME	3	Incongruent	zielony	green	żółty	yellow	hit	n/a
236.5889	n/a	RESPONSE	n/a	n/a	n/a	n/a	n/a	n/a	n/a	green
236.624	0.5167	FEEDBACK	n/a	n/a	n/a	n/a	n/a	n/a	n/a	n/a
237.1407	1.0167	ITI	n/a	n/a	n/a	n/a	n/a	n/a	n/a	n/a
238.1574	0.5167	FIXCROSS	n/a	n/a	n/a	n/a	n/a	n/a	n/a	n/a
238.6741	1.25	T_COLOR_NAME	4	Neutral	żółty	yellow	Neutral	Neutral	hit	n/a
239.9002	n/a	RESPONSE	n/a	n/a	n/a	n/a	n/a	n/a	n/a	yellow
239.9241	0.5167	FEEDBACK	n/a	n/a	n/a	n/a	n/a	n/a	n/a	n/a
240.4407	1.0167	ITI	n/a	n/a	n/a	n/a	n/a	n/a	n/a	n/a
241.4574	0.5167	FIXCROSS	n/a	n/a	n/a	n/a	n/a	n/a	n/a	n/a
241.9741	0.6167	T_COLOR_NAME	5	Neutral	żółty	yellow	Neutral	Neutral	hit	n/a
242.5716	n/a	RESPONSE	n/a	n/a	n/a	n/a	n/a	n/a	n/a	yellow
242.5908	0.5167	FEEDBACK	n/a	n/a	n/a	n/a	n/a	n/a	n/a	n/a
243.1074	1.0167	ITI	n/a	n/a	n/a	n/a	n/a	n/a	n/a	n/a
244.1241	0.5167	FIXCROSS	n/a	n/a	n/a	n/a	n/a	n/a	n/a	n/a
244.6408	0.7167	T_COLOR_NAME	6	Neutral	czerwony	red	Neutral	Neutral	hit	n/a
245.323	n/a	RESPONSE	n/a	n/a	n/a	n/a	n/a	n/a	n/a	red
245.3575	0.5167	FEEDBACK	n/a	n/a	n/a	n/a	n/a	n/a	n/a	n/a
245.8741	1.0167	ITI	n/a	n/a	n/a	n/a	n/a	n/a	n/a	n/a
246.8908	0.5167	FIXCROSS	n/a	n/a	n/a	n/a	n/a	n/a	n/a	n/a
247.4075	0.7667	T_COLOR_NAME	7	Neutral	niebieski	blue	Neutral	Neutral	hit	n/a
248.1544	n/a	RESPONSE	n/a	n/a	n/a	n/a	n/a	n/a	n/a	blue
248.1742	0.5167	FEEDBACK	n/a	n/a	n/a	n/a	n/a	n/a	n/a	n/a
248.6908	1.0167	ITI	n/a	n/a	n/a	n/a	n/a	n/a	n/a	n/a
249.7075	0.5167	FIXCROSS	n/a	n/a	n/a	n/a	n/a	n/a	n/a	n/a
250.2242	0.65	T_COLOR_NAME	8	Incongruent	niebieski	blue	zielony	green	hit	n/a
250.8418	n/a	RESPONSE	n/a	n/a	n/a	n/a	n/a	n/a	n/a	blue
250.8742	0.5167	FEEDBACK	n/a	n/a	n/a	n/a	n/a	n/a	n/a	n/a
251.3909	1.0167	ITI	n/a	n/a	n/a	n/a	n/a	n/a	n/a	n/a
252.4075	0.5167	FIXCROSS	n/a	n/a	n/a	n/a	n/a	n/a	n/a	n/a
252.9242	1.0	T_COLOR_NAME	9	Incongruent	żółty	yellow	czerwony	red	hit	n/a
253.8972	n/a	RESPONSE	n/a	n/a	n/a	n/a	n/a	n/a	n/a	yellow
253.9242	0.5167	FEEDBACK	n/a	n/a	n/a	n/a	n/a	n/a	n/a	n/a
254.4409	1.0167	ITI	n/a	n/a	n/a	n/a	n/a	n/a	n/a	n/a
255.4576	0.5167	FIXCROSS	n/a	n/a	n/a	n/a	n/a	n/a	n/a	n/a
255.9742	0.85	T_COLOR_NAME	10	Neutral	czerwony	red	Neutral	Neutral	hit	n/a
256.7926	n/a	RESPONSE	n/a	n/a	n/a	n/a	n/a	n/a	n/a	red
256.8243	0.5167	FEEDBACK	n/a	n/a	n/a	n/a	n/a	n/a	n/a	n/a
257.3409	1.0167	ITI	n/a	n/a	n/a	n/a	n/a	n/a	n/a	n/a
258.3576	0.5167	FIXCROSS	n/a	n/a	n/a	n/a	n/a	n/a	n/a	n/a
258.8743	1.7333	T_COLOR_NAME	11	Incongruent	zielony	green	niebieski	blue	incorrect	n/a
260.5837	n/a	RESPONSE	n/a	n/a	n/a	n/a	n/a	n/a	n/a	blue
260.6076	0.5167	FEEDBACK	n/a	n/a	n/a	n/a	n/a	n/a	n/a	n/a
261.1243	1.0167	ITI	n/a	n/a	n/a	n/a	n/a	n/a	n/a	n/a
262.141	0.5167	FIXCROSS	n/a	n/a	n/a	n/a	n/a	n/a	n/a	n/a
262.6577	1.5667	T_COLOR_NAME	12	Incongruent	żółty	yellow	zielony	green	hit	n/a
264.199	n/a	RESPONSE	n/a	n/a	n/a	n/a	n/a	n/a	n/a	yellow
264.2243	0.5167	FEEDBACK	n/a	n/a	n/a	n/a	n/a	n/a	n/a	n/a
264.741	1.0333	ITI	n/a	n/a	n/a	n/a	n/a	n/a	n/a	n/a
268.422	n/a	RESPONSE	n/a	n/a	n/a	n/a	n/a	n/a	n/a	n/a
268.491	1.0167	ITI	n/a	n/a	n/a	n/a	n/a	n/a	n/a	n/a
269.5077	0.5167	FIXCROSS	n/a	n/a	n/a	n/a	n/a	n/a	n/a	n/a
270.0244	1.0667	COLOR_NAME	1	Incongruent	niebieski	blue	zielony	green	hit	n/a
271.0615	n/a	RESPONSE	n/a	n/a	n/a	n/a	n/a	n/a	n/a	blue
271.0911	1.0167	ITI	n/a	n/a	n/a	n/a	n/a	n/a	n/a	n/a
272.1077	0.5167	FIXCROSS	n/a	n/a	n/a	n/a	n/a	n/a	n/a	n/a
272.6244	0.65	COLOR_NAME	2	Incongruent	niebieski	blue	żółty	yellow	hit	n/a
273.253	n/a	RESPONSE	n/a	n/a	n/a	n/a	n/a	n/a	n/a	blue
273.2744	1.0167	ITI	n/a	n/a	n/a	n/a	n/a	n/a	n/a	n/a
274.2911	0.5167	FIXCROSS	n/a	n/a	n/a	n/a	n/a	n/a	n/a	n/a
274.8078	0.65	COLOR_NAME	3	Neutral	żółty	yellow	Neutral	Neutral	hit	n/a
275.4285	n/a	RESPONSE	n/a	n/a	n/a	n/a	n/a	n/a	n/a	yellow
275.4578	1.0167	ITI	n/a	n/a	n/a	n/a	n/a	n/a	n/a	n/a
276.4745	0.5167	FIXCROSS	n/a	n/a	n/a	n/a	n/a	n/a	n/a	n/a
276.9911	0.65	COLOR_NAME	4	Neutral	zielony	green	Neutral	Neutral	hit	n/a
277.6201	n/a	RESPONSE	n/a	n/a	n/a	n/a	n/a	n/a	n/a	green
277.6412	1.0167	ITI	n/a	n/a	n/a	n/a	n/a	n/a	n/a	n/a
278.6578	0.5167	FIXCROSS	n/a	n/a	n/a	n/a	n/a	n/a	n/a	n/a
279.1745	0.65	COLOR_NAME	5	Incongruent	niebieski	blue	żółty	yellow	hit	n/a
279.7956	n/a	RESPONSE	n/a	n/a	n/a	n/a	n/a	n/a	n/a	blue
279.8245	1.0167	ITI	n/a	n/a	n/a	n/a	n/a	n/a	n/a	n/a
280.8412	0.5167	FIXCROSS	n/a	n/a	n/a	n/a	n/a	n/a	n/a	n/a
281.3579	0.7167	COLOR_NAME	6	Incongruent	żółty	yellow	zielony	green	hit	n/a
282.0511	n/a	RESPONSE	n/a	n/a	n/a	n/a	n/a	n/a	n/a	yellow
282.0745	1.0167	ITI	n/a	n/a	n/a	n/a	n/a	n/a	n/a	n/a
283.0912	0.5167	FIXCROSS	n/a	n/a	n/a	n/a	n/a	n/a	n/a	n/a
283.6079	0.65	COLOR_NAME	7	Incongruent	żółty	yellow	zielony	green	hit	n/a
284.2267	n/a	RESPONSE	n/a	n/a	n/a	n/a	n/a	n/a	n/a	yellow
284.2579	1.0167	ITI	n/a	n/a	n/a	n/a	n/a	n/a	n/a	n/a
285.2746	0.5167	FIXCROSS	n/a	n/a	n/a	n/a	n/a	n/a	n/a	n/a
285.7912	0.5333	COLOR_NAME	8	Neutral	żółty	yellow	Neutral	Neutral	hit	n/a
286.3062	n/a	RESPONSE	n/a	n/a	n/a	n/a	n/a	n/a	n/a	yellow
286.3246	1.0167	ITI	n/a	n/a	n/a	n/a	n/a	n/a	n/a	n/a
287.3413	0.5167	FIXCROSS	n/a	n/a	n/a	n/a	n/a	n/a	n/a	n/a
287.8579	0.6333	COLOR_NAME	9	Neutral	czerwony	red	Neutral	Neutral	hit	n/a
288.4657	n/a	RESPONSE	n/a	n/a	n/a	n/a	n/a	n/a	n/a	red
288.4913	1.0167	ITI	n/a	n/a	n/a	n/a	n/a	n/a	n/a	n/a
289.5079	0.5167	FIXCROSS	n/a	n/a	n/a	n/a	n/a	n/a	n/a	n/a
290.0246	2.4167	COLOR_NAME	10	Incongruent	zielony	green	czerwony	red	hit	n/a
292.4169	n/a	RESPONSE	n/a	n/a	n/a	n/a	n/a	n/a	n/a	green
292.4413	1.0167	ITI	n/a	n/a	n/a	n/a	n/a	n/a	n/a	n/a
293.458	0.5167	FIXCROSS	n/a	n/a	n/a	n/a	n/a	n/a	n/a	n/a
293.9747	1.0667	COLOR_NAME	11	Incongruent	czerwony	red	żółty	yellow	hit	n/a
295.0083	n/a	RESPONSE	n/a	n/a	n/a	n/a	n/a	n/a	n/a	red
295.0413	1.0167	ITI	n/a	n/a	n/a	n/a	n/a	n/a	n/a	n/a
296.058	0.5167	FIXCROSS	n/a	n/a	n/a	n/a	n/a	n/a	n/a	n/a
296.5747	0.7333	COLOR_NAME	12	Incongruent	niebieski	blue	czerwony	red	hit	n/a
297.2798	n/a	RESPONSE	n/a	n/a	n/a	n/a	n/a	n/a	n/a	blue
297.308	1.0167	ITI	n/a	n/a	n/a	n/a	n/a	n/a	n/a	n/a
298.3247	0.5167	FIXCROSS	n/a	n/a	n/a	n/a	n/a	n/a	n/a	n/a
298.8414	1.1167	COLOR_NAME	13	Incongruent	zielony	green	niebieski	blue	hit	n/a
299.9352	n/a	RESPONSE	n/a	n/a	n/a	n/a	n/a	n/a	n/a	green
299.9581	1.0167	ITI	n/a	n/a	n/a	n/a	n/a	n/a	n/a	n/a
300.9747	0.5167	FIXCROSS	n/a	n/a	n/a	n/a	n/a	n/a	n/a	n/a
301.4914	0.6167	COLOR_NAME	14	Neutral	czerwony	red	Neutral	Neutral	hit	n/a
302.0788	n/a	RESPONSE	n/a	n/a	n/a	n/a	n/a	n/a	n/a	red
302.1081	1.0167	ITI	n/a	n/a	n/a	n/a	n/a	n/a	n/a	n/a
303.1248	0.5167	FIXCROSS	n/a	n/a	n/a	n/a	n/a	n/a	n/a	n/a
303.6414	0.5167	COLOR_NAME	15	Neutral	czerwony	red	Neutral	Neutral	hit	n/a
304.1263	n/a	RESPONSE	n/a	n/a	n/a	n/a	n/a	n/a	n/a	red
304.1581	1.0167	ITI	n/a	n/a	n/a	n/a	n/a	n/a	n/a	n/a
305.1748	0.5167	FIXCROSS	n/a	n/a	n/a	n/a	n/a	n/a	n/a	n/a
305.6915	0.6667	COLOR_NAME	16	Neutral	żółty	yellow	Neutral	Neutral	hit	n/a
306.3338	n/a	RESPONSE	n/a	n/a	n/a	n/a	n/a	n/a	n/a	yellow
306.3581	1.0167	ITI	n/a	n/a	n/a	n/a	n/a	n/a	n/a	n/a
307.3748	0.5167	FIXCROSS	n/a	n/a	n/a	n/a	n/a	n/a	n/a	n/a
307.8915	0.75	COLOR_NAME	17	Incongruent	zielony	green	czerwony	red	hit	n/a
308.6214	n/a	RESPONSE	n/a	n/a	n/a	n/a	n/a	n/a	n/a	green
308.6415	1.0167	ITI	n/a	n/a	n/a	n/a	n/a	n/a	n/a	n/a
309.6582	0.5167	FIXCROSS	n/a	n/a	n/a	n/a	n/a	n/a	n/a	n/a
310.1748	0.6	COLOR_NAME	18	Neutral	niebieski	blue	Neutral	Neutral	hit	n/a
310.7489	n/a	RESPONSE	n/a	n/a	n/a	n/a	n/a	n/a	n/a	blue
310.7748	1.0167	ITI	n/a	n/a	n/a	n/a	n/a	n/a	n/a	n/a
311.7915	0.5167	FIXCROSS	n/a	n/a	n/a	n/a	n/a	n/a	n/a	n/a
312.3082	0.7167	COLOR_NAME	19	Neutral	czerwony	red	Neutral	Neutral	hit	n/a
313.0044	n/a	RESPONSE	n/a	n/a	n/a	n/a	n/a	n/a	n/a	red
313.0249	1.0167	ITI	n/a	n/a	n/a	n/a	n/a	n/a	n/a	n/a
314.0416	0.5167	FIXCROSS	n/a	n/a	n/a	n/a	n/a	n/a	n/a	n/a
314.5582	1.2667	COLOR_NAME	20	Incongruent	żółty	yellow	czerwony	red	hit	n/a
315.8038	n/a	RESPONSE	n/a	n/a	n/a	n/a	n/a	n/a	n/a	yellow
315.8249	1.0167	ITI	n/a	n/a	n/a	n/a	n/a	n/a	n/a	n/a
316.8416	0.5167	FIXCROSS	n/a	n/a	n/a	n/a	n/a	n/a	n/a	n/a
317.3583	0.7667	COLOR_NAME	21	Incongruent	zielony	green	niebieski	blue	hit	n/a
318.0913	n/a	RESPONSE	n/a	n/a	n/a	n/a	n/a	n/a	n/a	green
318.1249	1.0167	ITI	n/a	n/a	n/a	n/a	n/a	n/a	n/a	n/a
319.1416	0.5167	FIXCROSS	n/a	n/a	n/a	n/a	n/a	n/a	n/a	n/a
319.6583	1.0333	COLOR_NAME	22	Neutral	niebieski	blue	Neutral	Neutral	hit	n/a
320.6668	n/a	RESPONSE	n/a	n/a	n/a	n/a	n/a	n/a	n/a	blue
320.6916	1.0167	ITI	n/a	n/a	n/a	n/a	n/a	n/a	n/a	n/a
321.7083	0.5167	FIXCROSS	n/a	n/a	n/a	n/a	n/a	n/a	n/a	n/a
322.225	1.0167	COLOR_NAME	23	Incongruent	czerwony	red	niebieski	blue	hit	n/a
323.2102	n/a	RESPONSE	n/a	n/a	n/a	n/a	n/a	n/a	n/a	red
323.2417	1.0167	ITI	n/a	n/a	n/a	n/a	n/a	n/a	n/a	n/a
324.2583	0.5167	FIXCROSS	n/a	n/a	n/a	n/a	n/a	n/a	n/a	n/a
324.775	0.9667	COLOR_NAME	24	Incongruent	żółty	yellow	niebieski	blue	hit	n/a
325.7216	n/a	RESPONSE	n/a	n/a	n/a	n/a	n/a	n/a	n/a	yellow
325.7417	1.0167	ITI	n/a	n/a	n/a	n/a	n/a	n/a	n/a	n/a
326.7584	0.5167	FIXCROSS	n/a	n/a	n/a	n/a	n/a	n/a	n/a	n/a
327.275	0.6833	COLOR_NAME	25	Incongruent	żółty	yellow	czerwony	red	hit	n/a
327.9292	n/a	RESPONSE	n/a	n/a	n/a	n/a	n/a	n/a	n/a	yellow
327.9584	1.0167	ITI	n/a	n/a	n/a	n/a	n/a	n/a	n/a	n/a
328.9751	0.5167	FIXCROSS	n/a	n/a	n/a	n/a	n/a	n/a	n/a	n/a
329.4917	0.6833	COLOR_NAME	26	Incongruent	zielony	green	niebieski	blue	hit	n/a
330.1527	n/a	RESPONSE	n/a	n/a	n/a	n/a	n/a	n/a	n/a	green
330.1751	1.0167	ITI	n/a	n/a	n/a	n/a	n/a	n/a	n/a	n/a
331.1917	0.5167	FIXCROSS	n/a	n/a	n/a	n/a	n/a	n/a	n/a	n/a
331.7084	0.6	COLOR_NAME	27	Neutral	zielony	green	Neutral	Neutral	hit	n/a
332.2803	n/a	RESPONSE	n/a	n/a	n/a	n/a	n/a	n/a	n/a	green
332.3084	1.0167	ITI	n/a	n/a	n/a	n/a	n/a	n/a	n/a	n/a
333.3251	0.5167	FIXCROSS	n/a	n/a	n/a	n/a	n/a	n/a	n/a	n/a
333.8418	0.65	COLOR_NAME	28	Neutral	żółty	yellow	Neutral	Neutral	hit	n/a
334.4718	n/a	RESPONSE	n/a	n/a	n/a	n/a	n/a	n/a	n/a	yellow
334.4918	1.0167	ITI	n/a	n/a	n/a	n/a	n/a	n/a	n/a	n/a
335.5085	0.5167	FIXCROSS	n/a	n/a	n/a	n/a	n/a	n/a	n/a	n/a
336.0251	0.6667	COLOR_NAME	29	Neutral	czerwony	red	Neutral	Neutral	hit	n/a
336.6633	n/a	RESPONSE	n/a	n/a	n/a	n/a	n/a	n/a	n/a	red
336.6918	1.0167	ITI	n/a	n/a	n/a	n/a	n/a	n/a	n/a	n/a
337.7085	0.5167	FIXCROSS	n/a	n/a	n/a	n/a	n/a	n/a	n/a	n/a
338.2252	0.9334	COLOR_NAME	30	Neutral	zielony	green	Neutral	Neutral	hit	n/a
339.1268	n/a	RESPONSE	n/a	n/a	n/a	n/a	n/a	n/a	n/a	green
339.1585	1.0167	ITI	n/a	n/a	n/a	n/a	n/a	n/a	n/a	n/a
340.1752	0.5167	FIXCROSS	n/a	n/a	n/a	n/a	n/a	n/a	n/a	n/a
340.6919	0.8333	COLOR_NAME	31	Incongruent	niebieski	blue	żółty	yellow	hit	n/a
341.4942	n/a	RESPONSE	n/a	n/a	n/a	n/a	n/a	n/a	n/a	blue
341.5252	1.0167	ITI	n/a	n/a	n/a	n/a	n/a	n/a	n/a	n/a
342.5419	0.5167	FIXCROSS	n/a	n/a	n/a	n/a	n/a	n/a	n/a	n/a
343.0585	0.8167	COLOR_NAME	32	Neutral	czerwony	red	Neutral	Neutral	hit	n/a
343.8457	n/a	RESPONSE	n/a	n/a	n/a	n/a	n/a	n/a	n/a	red
343.8752	1.0167	ITI	n/a	n/a	n/a	n/a	n/a	n/a	n/a	n/a
344.8919	0.5167	FIXCROSS	n/a	n/a	n/a	n/a	n/a	n/a	n/a	n/a
345.4086	1.3333	COLOR_NAME	33	Incongruent	żółty	yellow	zielony	green	hit	n/a
346.7091	n/a	RESPONSE	n/a	n/a	n/a	n/a	n/a	n/a	n/a	yellow
346.7419	1.0167	ITI	n/a	n/a	n/a	n/a	n/a	n/a	n/a	n/a
347.7586	0.5167	FIXCROSS	n/a	n/a	n/a	n/a	n/a	n/a	n/a	n/a
348.2753	0.9	COLOR_NAME	34	Incongruent	żółty	yellow	niebieski	blue	hit	n/a
349.1566	n/a	RESPONSE	n/a	n/a	n/a	n/a	n/a	n/a	n/a	yellow
349.1753	1.0167	ITI	n/a	n/a	n/a	n/a	n/a	n/a	n/a	n/a
350.192	0.5167	FIXCROSS	n/a	n/a	n/a	n/a	n/a	n/a	n/a	n/a
350.7086	0.6833	COLOR_NAME	35	Neutral	niebieski	blue	Neutral	Neutral	hit	n/a
351.3641	n/a	RESPONSE	n/a	n/a	n/a	n/a	n/a	n/a	n/a	blue
351.392	1.0167	ITI	n/a	n/a	n/a	n/a	n/a	n/a	n/a	n/a
352.4087	0.5167	FIXCROSS	n/a	n/a	n/a	n/a	n/a	n/a	n/a	n/a
352.9253	0.6833	COLOR_NAME	36	Incongruent	czerwony	red	niebieski	blue	hit	n/a
353.5876	n/a	RESPONSE	n/a	n/a	n/a	n/a	n/a	n/a	n/a	red
353.6087	1.0167	ITI	n/a	n/a	n/a	n/a	n/a	n/a	n/a	n/a
354.6253	0.5167	FIXCROSS	n/a	n/a	n/a	n/a	n/a	n/a	n/a	n/a
355.142	0.65	COLOR_NAME	37	Incongruent	niebieski	blue	zielony	green	hit	n/a
355.7631	n/a	RESPONSE	n/a	n/a	n/a	n/a	n/a	n/a	n/a	blue
355.792	1.0167	ITI	n/a	n/a	n/a	n/a	n/a	n/a	n/a	n/a
356.8087	0.5167	FIXCROSS	n/a	n/a	n/a	n/a	n/a	n/a	n/a	n/a
357.3254	0.55	COLOR_NAME	38	Neutral	żółty	yellow	Neutral	Neutral	hit	n/a
357.8427	n/a	RESPONSE	n/a	n/a	n/a	n/a	n/a	n/a	n/a	yellow
357.8754	1.0167	ITI	n/a	n/a	n/a	n/a	n/a	n/a	n/a	n/a
358.8921	0.5167	FIXCROSS	n/a	n/a	n/a	n/a	n/a	n/a	n/a	n/a
359.4087	0.6167	COLOR_NAME	39	Neutral	żółty	yellow	Neutral	Neutral	hit	n/a
360.0023	n/a	RESPONSE	n/a	n/a	n/a	n/a	n/a	n/a	n/a	yellow
360.0254	1.0167	ITI	n/a	n/a	n/a	n/a	n/a	n/a	n/a	n/a
361.0421	0.5167	FIXCROSS	n/a	n/a	n/a	n/a	n/a	n/a	n/a	n/a
361.5587	0.8	COLOR_NAME	40	Neutral	czerwony	red	Neutral	Neutral	hit	n/a
362.3377	n/a	RESPONSE	n/a	n/a	n/a	n/a	n/a	n/a	n/a	red
362.3588	1.0167	ITI	n/a	n/a	n/a	n/a	n/a	n/a	n/a	n/a
363.3754	0.5167	FIXCROSS	n/a	n/a	n/a	n/a	n/a	n/a	n/a	n/a
363.8921	0.5333	COLOR_NAME	41	Neutral	czerwony	red	Neutral	Neutral	hit	n/a
364.4013	n/a	RESPONSE	n/a	n/a	n/a	n/a	n/a	n/a	n/a	red
364.4254	1.0167	ITI	n/a	n/a	n/a	n/a	n/a	n/a	n/a	n/a
365.4421	0.5167	FIXCROSS	n/a	n/a	n/a	n/a	n/a	n/a	n/a	n/a
365.9588	0.7667	COLOR_NAME	42	Incongruent	żółty	yellow	czerwony	red	incorrect	n/a
366.7048	n/a	RESPONSE	n/a	n/a	n/a	n/a	n/a	n/a	n/a	red
366.7255	1.0167	ITI	n/a	n/a	n/a	n/a	n/a	n/a	n/a	n/a
367.7422	0.5167	FIXCROSS	n/a	n/a	n/a	n/a	n/a	n/a	n/a	n/a
368.2588	0.7	COLOR_NAME	43	Neutral	niebieski	blue	Neutral	Neutral	hit	n/a
368.9283	n/a	RESPONSE	n/a	n/a	n/a	n/a	n/a	n/a	n/a	blue
368.9588	1.0167	ITI	n/a	n/a	n/a	n/a	n/a	n/a	n/a	n/a
369.9755	0.5167	FIXCROSS	n/a	n/a	n/a	n/a	n/a	n/a	n/a	n/a
370.4922	0.6	COLOR_NAME	44	Incongruent	zielony	green	żółty	yellow	incorrect	n/a
371.0718	n/a	RESPONSE	n/a	n/a	n/a	n/a	n/a	n/a	n/a	yellow
371.0922	1.0167	ITI	n/a	n/a	n/a	n/a	n/a	n/a	n/a	n/a
372.1089	0.5167	FIXCROSS	n/a	n/a	n/a	n/a	n/a	n/a	n/a	n/a
372.6255	0.7833	COLOR_NAME	45	Neutral	żółty	yellow	Neutral	Neutral	hit	n/a
373.3913	n/a	RESPONSE	n/a	n/a	n/a	n/a	n/a	n/a	n/a	yellow
373.4089	1.0167	ITI	n/a	n/a	n/a	n/a	n/a	n/a	n/a	n/a
374.4256	0.5167	FIXCROSS	n/a	n/a	n/a	n/a	n/a	n/a	n/a	n/a
374.9422	0.95	COLOR_NAME	46	Neutral	czerwony	red	Neutral	Neutral	hit	n/a
375.8708	n/a	RESPONSE	n/a	n/a	n/a	n/a	n/a	n/a	n/a	red
375.8922	1.0167	ITI	n/a	n/a	n/a	n/a	n/a	n/a	n/a	n/a
376.9089	0.5167	FIXCROSS	n/a	n/a	n/a	n/a	n/a	n/a	n/a	n/a
377.4256	0.7167	COLOR_NAME	47	Incongruent	niebieski	blue	czerwony	red	hit	n/a
378.1103	n/a	RESPONSE	n/a	n/a	n/a	n/a	n/a	n/a	n/a	blue
378.1423	1.0167	ITI	n/a	n/a	n/a	n/a	n/a	n/a	n/a	n/a
379.1589	0.5167	FIXCROSS	n/a	n/a	n/a	n/a	n/a	n/a	n/a	n/a
379.6756	1.2667	COLOR_NAME	48	Incongruent	czerwony	red	zielony	green	hit	n/a
380.9097	n/a	RESPONSE	n/a	n/a	n/a	n/a	n/a	n/a	n/a	red
380.9423	1.0167	ITI	n/a	n/a	n/a	n/a	n/a	n/a	n/a	n/a
381.959	0.5167	FIXCROSS	n/a	n/a	n/a	n/a	n/a	n/a	n/a	n/a
382.4756	0.7833	COLOR_NAME	49	Incongruent	czerwony	red	żółty	yellow	hit	n/a
383.2292	n/a	RESPONSE	n/a	n/a	n/a	n/a	n/a	n/a	n/a	red
383.259	1.0167	ITI	n/a	n/a	n/a	n/a	n/a	n/a	n/a	n/a
384.2757	0.5167	FIXCROSS	n/a	n/a	n/a	n/a	n/a	n/a	n/a	n/a
384.7924	0.6333	COLOR_NAME	50	Neutral	zielony	green	Neutral	Neutral	hit	n/a
385.4047	n/a	RESPONSE	n/a	n/a	n/a	n/a	n/a	n/a	n/a	green
385.4257	1.0167	ITI	n/a	n/a	n/a	n/a	n/a	n/a	n/a	n/a
386.4424	0.5167	FIXCROSS	n/a	n/a	n/a	n/a	n/a	n/a	n/a	n/a
386.959	0.4667	COLOR_NAME	51	Neutral	zielony	green	Neutral	Neutral	hit	n/a
387.4043	n/a	RESPONSE	n/a	n/a	n/a	n/a	n/a	n/a	n/a	green
387.4257	1.0167	ITI	n/a	n/a	n/a	n/a	n/a	n/a	n/a	n/a
388.4424	0.5167	FIXCROSS	n/a	n/a	n/a	n/a	n/a	n/a	n/a	n/a
388.9591	0.4333	COLOR_NAME	52	Neutral	zielony	green	Neutral	Neutral	hit	n/a
389.3719	n/a	RESPONSE	n/a	n/a	n/a	n/a	n/a	n/a	n/a	green
389.3924	1.0167	ITI	n/a	n/a	n/a	n/a	n/a	n/a	n/a	n/a
390.4091	0.5167	FIXCROSS	n/a	n/a	n/a	n/a	n/a	n/a	n/a	n/a
390.9257	0.6833	COLOR_NAME	53	Incongruent	czerwony	red	zielony	green	hit	n/a
391.5794	n/a	RESPONSE	n/a	n/a	n/a	n/a	n/a	n/a	n/a	red
391.6091	1.0167	ITI	n/a	n/a	n/a	n/a	n/a	n/a	n/a	n/a
392.6258	0.5167	FIXCROSS	n/a	n/a	n/a	n/a	n/a	n/a	n/a	n/a
393.1424	0.55	COLOR_NAME	54	Neutral	niebieski	blue	Neutral	Neutral	hit	n/a
393.675	n/a	RESPONSE	n/a	n/a	n/a	n/a	n/a	n/a	n/a	blue
393.6924	1.0167	ITI	n/a	n/a	n/a	n/a	n/a	n/a	n/a	n/a
394.7091	0.5167	FIXCROSS	n/a	n/a	n/a	n/a	n/a	n/a	n/a	n/a
395.2258	0.6	COLOR_NAME	55	Incongruent	zielony	green	żółty	yellow	hit	n/a
395.8025	n/a	RESPONSE	n/a	n/a	n/a	n/a	n/a	n/a	n/a	green
395.8258	1.0167	ITI	n/a	n/a	n/a	n/a	n/a	n/a	n/a	n/a
396.8425	0.5167	FIXCROSS	n/a	n/a	n/a	n/a	n/a	n/a	n/a	n/a
397.3591	0.5667	COLOR_NAME	56	Neutral	żółty	yellow	Neutral	Neutral	hit	n/a
397.898	n/a	RESPONSE	n/a	n/a	n/a	n/a	n/a	n/a	n/a	yellow
397.9258	1.0167	ITI	n/a	n/a	n/a	n/a	n/a	n/a	n/a	n/a
398.9425	0.5167	FIXCROSS	n/a	n/a	n/a	n/a	n/a	n/a	n/a	n/a
399.4592	0.5667	COLOR_NAME	57	Neutral	niebieski	blue	Neutral	Neutral	hit	n/a
399.9936	n/a	RESPONSE	n/a	n/a	n/a	n/a	n/a	n/a	n/a	blue
400.0259	1.0167	ITI	n/a	n/a	n/a	n/a	n/a	n/a	n/a	n/a
401.0425	0.5167	FIXCROSS	n/a	n/a	n/a	n/a	n/a	n/a	n/a	n/a
401.5592	0.5667	COLOR_NAME	58	Neutral	niebieski	blue	Neutral	Neutral	hit	n/a
402.1051	n/a	RESPONSE	n/a	n/a	n/a	n/a	n/a	n/a	n/a	blue
402.1259	1.0167	ITI	n/a	n/a	n/a	n/a	n/a	n/a	n/a	n/a
403.1426	0.5167	FIXCROSS	n/a	n/a	n/a	n/a	n/a	n/a	n/a	n/a
403.6592	1.4667	COLOR_NAME	59	Incongruent	zielony	green	żółty	yellow	hit	n/a
405.0965	n/a	RESPONSE	n/a	n/a	n/a	n/a	n/a	n/a	n/a	green
405.1259	1.0167	ITI	n/a	n/a	n/a	n/a	n/a	n/a	n/a	n/a
406.1426	0.5167	FIXCROSS	n/a	n/a	n/a	n/a	n/a	n/a	n/a	n/a
406.6593	0.9667	COLOR_NAME	60	Incongruent	niebieski	blue	czerwony	red	hit	n/a
407.6079	n/a	RESPONSE	n/a	n/a	n/a	n/a	n/a	n/a	n/a	blue
407.6259	1.0167	ITI	n/a	n/a	n/a	n/a	n/a	n/a	n/a	n/a
408.6426	0.5167	FIXCROSS	n/a	n/a	n/a	n/a	n/a	n/a	n/a	n/a
409.1593	0.45	COLOR_NAME	61	Neutral	niebieski	blue	Neutral	Neutral	hit	n/a
409.5755	n/a	RESPONSE	n/a	n/a	n/a	n/a	n/a	n/a	n/a	blue
409.6093	1.0167	ITI	n/a	n/a	n/a	n/a	n/a	n/a	n/a	n/a
410.626	0.5167	FIXCROSS	n/a	n/a	n/a	n/a	n/a	n/a	n/a	n/a
411.1426	0.8833	COLOR_NAME	62	Neutral	zielony	green	Neutral	Neutral	hit	n/a
412.0069	n/a	RESPONSE	n/a	n/a	n/a	n/a	n/a	n/a	n/a	green
412.026	1.0167	ITI	n/a	n/a	n/a	n/a	n/a	n/a	n/a	n/a
413.0427	0.5167	FIXCROSS	n/a	n/a	n/a	n/a	n/a	n/a	n/a	n/a
413.5593	0.4833	COLOR_NAME	63	Neutral	zielony	green	Neutral	Neutral	hit	n/a
414.0226	n/a	RESPONSE	n/a	n/a	n/a	n/a	n/a	n/a	n/a	green
414.0427	1.0167	ITI	n/a	n/a	n/a	n/a	n/a	n/a	n/a	n/a
415.0593	0.5167	FIXCROSS	n/a	n/a	n/a	n/a	n/a	n/a	n/a	n/a
415.576	0.5667	COLOR_NAME	64	Neutral	żółty	yellow	Neutral	Neutral	hit	n/a
416.1181	n/a	RESPONSE	n/a	n/a	n/a	n/a	n/a	n/a	n/a	yellow
416.1427	1.0167	ITI	n/a	n/a	n/a	n/a	n/a	n/a	n/a	n/a
417.1594	0.5167	FIXCROSS	n/a	n/a	n/a	n/a	n/a	n/a	n/a	n/a
417.676	0.9667	COLOR_NAME	65	Incongruent	zielony	green	czerwony	red	incorrect	n/a
418.6135	n/a	RESPONSE	n/a	n/a	n/a	n/a	n/a	n/a	n/a	red
418.6427	1.0167	ITI	n/a	n/a	n/a	n/a	n/a	n/a	n/a	n/a
419.6594	0.5167	FIXCROSS	n/a	n/a	n/a	n/a	n/a	n/a	n/a	n/a
420.1761	1.0	COLOR_NAME	66	Incongruent	czerwony	red	żółty	yellow	hit	n/a
421.157	n/a	RESPONSE	n/a	n/a	n/a	n/a	n/a	n/a	n/a	red
421.1761	1.0167	ITI	n/a	n/a	n/a	n/a	n/a	n/a	n/a	n/a
422.1928	0.5167	FIXCROSS	n/a	n/a	n/a	n/a	n/a	n/a	n/a	n/a
422.7094	0.5167	COLOR_NAME	67	Incongruent	żółty	yellow	niebieski	blue	hit	n/a
423.2046	n/a	RESPONSE	n/a	n/a	n/a	n/a	n/a	n/a	n/a	yellow
423.2261	1.0167	ITI	n/a	n/a	n/a	n/a	n/a	n/a	n/a	n/a
424.2428	0.5167	FIXCROSS	n/a	n/a	n/a	n/a	n/a	n/a	n/a	n/a
424.7595	0.6167	COLOR_NAME	68	Neutral	zielony	green	Neutral	Neutral	hit	n/a
425.3481	n/a	RESPONSE	n/a	n/a	n/a	n/a	n/a	n/a	n/a	green
425.3761	1.0167	ITI	n/a	n/a	n/a	n/a	n/a	n/a	n/a	n/a
426.3928	0.5167	FIXCROSS	n/a	n/a	n/a	n/a	n/a	n/a	n/a	n/a
426.9095	0.75	COLOR_NAME	69	Incongruent	czerwony	red	zielony	green	hit	n/a
427.6356	n/a	RESPONSE	n/a	n/a	n/a	n/a	n/a	n/a	n/a	red
427.6595	1.0167	ITI	n/a	n/a	n/a	n/a	n/a	n/a	n/a	n/a
428.6762	0.5167	FIXCROSS	n/a	n/a	n/a	n/a	n/a	n/a	n/a	n/a
429.1928	0.8	COLOR_NAME	70	Neutral	niebieski	blue	Neutral	Neutral	hit	n/a
429.9711	n/a	RESPONSE	n/a	n/a	n/a	n/a	n/a	n/a	n/a	blue
429.9929	1.0167	ITI	n/a	n/a	n/a	n/a	n/a	n/a	n/a	n/a
431.0095	0.5167	FIXCROSS	n/a	n/a	n/a	n/a	n/a	n/a	n/a	n/a
431.5262	0.45	COLOR_NAME	71	Incongruent	niebieski	blue	zielony	green	hit	n/a
431.9546	n/a	RESPONSE	n/a	n/a	n/a	n/a	n/a	n/a	n/a	blue
431.9762	1.0167	ITI	n/a	n/a	n/a	n/a	n/a	n/a	n/a	n/a
432.9929	0.5167	FIXCROSS	n/a	n/a	n/a	n/a	n/a	n/a	n/a	n/a
433.5096	0.7333	COLOR_NAME	72	Incongruent	czerwony	red	niebieski	blue	hit	n/a
434.2102	n/a	RESPONSE	n/a	n/a	n/a	n/a	n/a	n/a	n/a	red
434.2429	1.0334	ITI	n/a	n/a	n/a	n/a	n/a	n/a	n/a	n/a
438.0494	n/a	RESPONSE	n/a	n/a	n/a	n/a	n/a	n/a	n/a	n/a
