onset	duration	trial_type	trial_number	stroop_condition	stim_text(PL)	stim_text(eng)	stim_color(PL)	stim_color(eng)	response_type	response_color
0.0	n/a	RESPONSE	n/a	n/a	n/a	n/a	n/a	n/a	n/a	n/a
0.0675	1.0333	ITI	n/a	n/a	n/a	n/a	n/a	n/a	n/a	n/a
1.1009	0.5167	FIXCROSS	n/a	n/a	n/a	n/a	n/a	n/a	n/a	n/a
1.6176	1.45	T_INK	1	Neutral	xxxxxxx	xxxxxxx	czerwony	red	hit	n/a
3.0393	n/a	RESPONSE	n/a	n/a	n/a	n/a	n/a	n/a	n/a	red
3.0676	0.5167	FEEDBACK	n/a	n/a	n/a	n/a	n/a	n/a	n/a	n/a
3.5842	1.0167	ITI	n/a	n/a	n/a	n/a	n/a	n/a	n/a	n/a
4.6009	0.5167	FIXCROSS	n/a	n/a	n/a	n/a	n/a	n/a	n/a	n/a
5.1176	1.15	T_INK	2	Neutral	xxxxxxx	xxxxxxx	niebieski	blue	hit	n/a
6.2386	n/a	RESPONSE	n/a	n/a	n/a	n/a	n/a	n/a	n/a	blue
6.2676	0.5167	FEEDBACK	n/a	n/a	n/a	n/a	n/a	n/a	n/a	n/a
6.7843	1.0167	ITI	n/a	n/a	n/a	n/a	n/a	n/a	n/a	n/a
7.8009	0.5167	FIXCROSS	n/a	n/a	n/a	n/a	n/a	n/a	n/a	n/a
8.3176	0.8167	T_INK	3	Incongruent	czerwony	red	żółty	yellow	hit	n/a
9.102	n/a	RESPONSE	n/a	n/a	n/a	n/a	n/a	n/a	n/a	yellow
9.1343	0.5167	FEEDBACK	n/a	n/a	n/a	n/a	n/a	n/a	n/a	n/a
9.6509	1.0167	ITI	n/a	n/a	n/a	n/a	n/a	n/a	n/a	n/a
10.6676	0.5167	FIXCROSS	n/a	n/a	n/a	n/a	n/a	n/a	n/a	n/a
11.1843	1.4667	T_INK	4	Incongruent	niebieski	blue	czerwony	red	hit	n/a
12.6211	n/a	RESPONSE	n/a	n/a	n/a	n/a	n/a	n/a	n/a	red
12.651	0.5167	FEEDBACK	n/a	n/a	n/a	n/a	n/a	n/a	n/a	n/a
13.1676	1.0167	ITI	n/a	n/a	n/a	n/a	n/a	n/a	n/a	n/a
14.1843	0.5167	FIXCROSS	n/a	n/a	n/a	n/a	n/a	n/a	n/a	n/a
14.701	1.2667	T_INK	5	Neutral	xxxxxxxxx	xxxxxxxxx	zielony	green	hit	n/a
15.9323	n/a	RESPONSE	n/a	n/a	n/a	n/a	n/a	n/a	n/a	green
15.9677	0.5167	FEEDBACK	n/a	n/a	n/a	n/a	n/a	n/a	n/a	n/a
16.4843	1.0167	ITI	n/a	n/a	n/a	n/a	n/a	n/a	n/a	n/a
17.501	0.5167	FIXCROSS	n/a	n/a	n/a	n/a	n/a	n/a	n/a	n/a
18.0177	1.05	T_INK	6	Incongruent	zielony	green	niebieski	blue	hit	n/a
19.0355	n/a	RESPONSE	n/a	n/a	n/a	n/a	n/a	n/a	n/a	blue
19.0677	0.5167	FEEDBACK	n/a	n/a	n/a	n/a	n/a	n/a	n/a	n/a
19.5843	1.0167	ITI	n/a	n/a	n/a	n/a	n/a	n/a	n/a	n/a
20.601	0.5167	FIXCROSS	n/a	n/a	n/a	n/a	n/a	n/a	n/a	n/a
21.1177	0.6833	T_INK	7	Neutral	xxxxxxxx	xxxxxxxx	niebieski	blue	hit	n/a
21.7708	n/a	RESPONSE	n/a	n/a	n/a	n/a	n/a	n/a	n/a	blue
21.801	0.5167	FEEDBACK	n/a	n/a	n/a	n/a	n/a	n/a	n/a	n/a
22.3177	1.0167	ITI	n/a	n/a	n/a	n/a	n/a	n/a	n/a	n/a
23.3344	0.5167	FIXCROSS	n/a	n/a	n/a	n/a	n/a	n/a	n/a	n/a
23.8511	1.0	T_INK	8	Incongruent	żółty	yellow	czerwony	red	hit	n/a
24.8261	n/a	RESPONSE	n/a	n/a	n/a	n/a	n/a	n/a	n/a	red
24.8511	0.5167	FEEDBACK	n/a	n/a	n/a	n/a	n/a	n/a	n/a	n/a
25.3677	1.0167	ITI	n/a	n/a	n/a	n/a	n/a	n/a	n/a	n/a
26.3844	0.5167	FIXCROSS	n/a	n/a	n/a	n/a	n/a	n/a	n/a	n/a
26.9011	0.7833	T_INK	9	Incongruent	zielony	green	czerwony	red	hit	n/a
27.6576	n/a	RESPONSE	n/a	n/a	n/a	n/a	n/a	n/a	n/a	red
27.6844	0.5167	FEEDBACK	n/a	n/a	n/a	n/a	n/a	n/a	n/a	n/a
28.2011	1.0167	ITI	n/a	n/a	n/a	n/a	n/a	n/a	n/a	n/a
29.2178	0.5167	FIXCROSS	n/a	n/a	n/a	n/a	n/a	n/a	n/a	n/a
29.7344	0.9167	T_INK	10	Neutral	xxxxx	xxxxx	zielony	green	hit	n/a
30.617	n/a	RESPONSE	n/a	n/a	n/a	n/a	n/a	n/a	n/a	green
30.6511	0.5167	FEEDBACK	n/a	n/a	n/a	n/a	n/a	n/a	n/a	n/a
31.1678	1.0167	ITI	n/a	n/a	n/a	n/a	n/a	n/a	n/a	n/a
32.1844	0.5167	FIXCROSS	n/a	n/a	n/a	n/a	n/a	n/a	n/a	n/a
32.7011	0.8333	T_INK	11	Incongruent	żółty	yellow	niebieski	blue	incorrect	n/a
33.5125	n/a	RESPONSE	n/a	n/a	n/a	n/a	n/a	n/a	n/a	red
33.5345	0.5167	FEEDBACK	n/a	n/a	n/a	n/a	n/a	n/a	n/a	n/a
33.7045	n/a	RESPONSE	n/a	n/a	n/a	n/a	n/a	n/a	n/a	blue
33.9284	n/a	RESPONSE	n/a	n/a	n/a	n/a	n/a	n/a	n/a	red
33.9444	n/a	RESPONSE	n/a	n/a	n/a	n/a	n/a	n/a	n/a	blue
34.0511	1.0167	ITI	n/a	n/a	n/a	n/a	n/a	n/a	n/a	n/a
35.0678	0.5167	FIXCROSS	n/a	n/a	n/a	n/a	n/a	n/a	n/a	n/a
35.5845	1.0833	T_INK	12	Neutral	xxxxxxx	xxxxxxx	żółty	yellow	hit	n/a
36.6479	n/a	RESPONSE	n/a	n/a	n/a	n/a	n/a	n/a	n/a	yellow
36.6678	0.5167	FEEDBACK	n/a	n/a	n/a	n/a	n/a	n/a	n/a	n/a
37.1845	1.0333	ITI	n/a	n/a	n/a	n/a	n/a	n/a	n/a	n/a
43.2064	n/a	RESPONSE	n/a	n/a	n/a	n/a	n/a	n/a	n/a	n/a
43.2679	1.0167	ITI	n/a	n/a	n/a	n/a	n/a	n/a	n/a	n/a
44.2845	0.5167	FIXCROSS	n/a	n/a	n/a	n/a	n/a	n/a	n/a	n/a
44.8012	1.0	INK	1	Neutral	xxxxxxxxx	xxxxxxxxx	żółty	yellow	hit	n/a
45.7817	n/a	RESPONSE	n/a	n/a	n/a	n/a	n/a	n/a	n/a	yellow
45.8012	1.0167	ITI	n/a	n/a	n/a	n/a	n/a	n/a	n/a	n/a
46.8179	0.5167	FIXCROSS	n/a	n/a	n/a	n/a	n/a	n/a	n/a	n/a
47.3345	0.8834	INK	2	Neutral	xxxxx	xxxxx	czerwony	red	hit	n/a
48.1971	n/a	RESPONSE	n/a	n/a	n/a	n/a	n/a	n/a	n/a	red
48.2179	1.0167	ITI	n/a	n/a	n/a	n/a	n/a	n/a	n/a	n/a
49.2346	0.5167	FIXCROSS	n/a	n/a	n/a	n/a	n/a	n/a	n/a	n/a
49.7512	1.05	INK	3	Incongruent	zielony	green	niebieski	blue	hit	n/a
50.7725	n/a	RESPONSE	n/a	n/a	n/a	n/a	n/a	n/a	n/a	blue
50.8013	1.0167	ITI	n/a	n/a	n/a	n/a	n/a	n/a	n/a	n/a
51.8179	0.5167	FIXCROSS	n/a	n/a	n/a	n/a	n/a	n/a	n/a	n/a
52.3346	1.0	INK	4	Neutral	xxxxxxxxx	xxxxxxxxx	czerwony	red	hit	n/a
53.3	n/a	RESPONSE	n/a	n/a	n/a	n/a	n/a	n/a	n/a	red
53.3346	1.0167	ITI	n/a	n/a	n/a	n/a	n/a	n/a	n/a	n/a
54.3513	0.5167	FIXCROSS	n/a	n/a	n/a	n/a	n/a	n/a	n/a	n/a
54.868	0.8667	INK	5	Neutral	xxxxx	xxxxx	niebieski	blue	hit	n/a
55.7154	n/a	RESPONSE	n/a	n/a	n/a	n/a	n/a	n/a	n/a	blue
55.7346	1.0167	ITI	n/a	n/a	n/a	n/a	n/a	n/a	n/a	n/a
56.7513	0.5167	FIXCROSS	n/a	n/a	n/a	n/a	n/a	n/a	n/a	n/a
57.268	0.9833	INK	6	Incongruent	niebieski	blue	żółty	yellow	hit	n/a
58.2269	n/a	RESPONSE	n/a	n/a	n/a	n/a	n/a	n/a	n/a	yellow
58.2513	1.0167	ITI	n/a	n/a	n/a	n/a	n/a	n/a	n/a	n/a
59.268	0.5167	FIXCROSS	n/a	n/a	n/a	n/a	n/a	n/a	n/a	n/a
59.7846	1.0833	INK	7	Incongruent	czerwony	red	żółty	yellow	hit	n/a
60.8343	n/a	RESPONSE	n/a	n/a	n/a	n/a	n/a	n/a	n/a	yellow
60.868	1.0167	ITI	n/a	n/a	n/a	n/a	n/a	n/a	n/a	n/a
61.8847	0.5167	FIXCROSS	n/a	n/a	n/a	n/a	n/a	n/a	n/a	n/a
62.4013	0.9667	INK	8	Neutral	xxxxx	xxxxx	niebieski	blue	hit	n/a
63.3457	n/a	RESPONSE	n/a	n/a	n/a	n/a	n/a	n/a	n/a	blue
63.368	1.0167	ITI	n/a	n/a	n/a	n/a	n/a	n/a	n/a	n/a
64.3847	0.5167	FIXCROSS	n/a	n/a	n/a	n/a	n/a	n/a	n/a	n/a
64.9014	0.7833	INK	9	Incongruent	zielony	green	żółty	yellow	hit	n/a
65.6492	n/a	RESPONSE	n/a	n/a	n/a	n/a	n/a	n/a	n/a	yellow
65.6847	1.0167	ITI	n/a	n/a	n/a	n/a	n/a	n/a	n/a	n/a
66.7014	0.5167	FIXCROSS	n/a	n/a	n/a	n/a	n/a	n/a	n/a	n/a
67.218	0.7833	INK	10	Neutral	xxxxx	xxxxx	zielony	green	hit	n/a
67.9687	n/a	RESPONSE	n/a	n/a	n/a	n/a	n/a	n/a	n/a	green
68.0014	1.0167	ITI	n/a	n/a	n/a	n/a	n/a	n/a	n/a	n/a
69.018	0.5167	FIXCROSS	n/a	n/a	n/a	n/a	n/a	n/a	n/a	n/a
69.5347	1.0167	INK	11	Incongruent	niebieski	blue	zielony	green	hit	n/a
70.5282	n/a	RESPONSE	n/a	n/a	n/a	n/a	n/a	n/a	n/a	green
70.5514	1.0167	ITI	n/a	n/a	n/a	n/a	n/a	n/a	n/a	n/a
71.5681	0.5167	FIXCROSS	n/a	n/a	n/a	n/a	n/a	n/a	n/a	n/a
72.0847	0.7995	INK	12	Neutral	xxxxxxxx	xxxxxxxx	żółty	yellow	hit	n/a
72.8637	n/a	RESPONSE	n/a	n/a	n/a	n/a	n/a	n/a	n/a	yellow
72.8842	1.0172	ITI	n/a	n/a	n/a	n/a	n/a	n/a	n/a	n/a
73.9014	0.5167	FIXCROSS	n/a	n/a	n/a	n/a	n/a	n/a	n/a	n/a
74.4181	1.0	INK	13	Neutral	xxxxxxxx	xxxxxxxx	niebieski	blue	hit	n/a
75.3911	n/a	RESPONSE	n/a	n/a	n/a	n/a	n/a	n/a	n/a	blue
75.4181	1.0167	ITI	n/a	n/a	n/a	n/a	n/a	n/a	n/a	n/a
76.4348	0.5167	FIXCROSS	n/a	n/a	n/a	n/a	n/a	n/a	n/a	n/a
76.9514	1.0333	INK	14	Incongruent	czerwony	red	żółty	yellow	hit	n/a
77.9666	n/a	RESPONSE	n/a	n/a	n/a	n/a	n/a	n/a	n/a	yellow
77.9848	1.0167	ITI	n/a	n/a	n/a	n/a	n/a	n/a	n/a	n/a
79.0015	0.5167	FIXCROSS	n/a	n/a	n/a	n/a	n/a	n/a	n/a	n/a
79.5181	1.1833	INK	15	Incongruent	zielony	green	niebieski	blue	hit	n/a
80.67	n/a	RESPONSE	n/a	n/a	n/a	n/a	n/a	n/a	n/a	blue
80.7015	1.0167	ITI	n/a	n/a	n/a	n/a	n/a	n/a	n/a	n/a
81.7181	0.5167	FIXCROSS	n/a	n/a	n/a	n/a	n/a	n/a	n/a	n/a
82.2348	0.9333	INK	16	Incongruent	niebieski	blue	zielony	green	hit	n/a
83.1495	n/a	RESPONSE	n/a	n/a	n/a	n/a	n/a	n/a	n/a	green
83.1681	1.0167	ITI	n/a	n/a	n/a	n/a	n/a	n/a	n/a	n/a
84.1848	0.5167	FIXCROSS	n/a	n/a	n/a	n/a	n/a	n/a	n/a	n/a
84.7015	0.8833	INK	17	Neutral	xxxxx	xxxxx	czerwony	red	hit	n/a
85.565	n/a	RESPONSE	n/a	n/a	n/a	n/a	n/a	n/a	n/a	red
85.5848	1.0167	ITI	n/a	n/a	n/a	n/a	n/a	n/a	n/a	n/a
86.6015	0.5167	FIXCROSS	n/a	n/a	n/a	n/a	n/a	n/a	n/a	n/a
87.1182	0.9833	INK	18	Neutral	xxxxxxxxx	xxxxxxxxx	czerwony	red	hit	n/a
88.0765	n/a	RESPONSE	n/a	n/a	n/a	n/a	n/a	n/a	n/a	red
88.1015	1.0167	ITI	n/a	n/a	n/a	n/a	n/a	n/a	n/a	n/a
89.1182	0.5167	FIXCROSS	n/a	n/a	n/a	n/a	n/a	n/a	n/a	n/a
89.6349	0.9167	INK	19	Incongruent	żółty	yellow	zielony	green	hit	n/a
90.5239	n/a	RESPONSE	n/a	n/a	n/a	n/a	n/a	n/a	n/a	green
90.5515	1.0167	ITI	n/a	n/a	n/a	n/a	n/a	n/a	n/a	n/a
91.5682	0.5167	FIXCROSS	n/a	n/a	n/a	n/a	n/a	n/a	n/a	n/a
92.0849	0.7167	INK	20	Neutral	xxxxx	xxxxx	niebieski	blue	hit	n/a
92.7795	n/a	RESPONSE	n/a	n/a	n/a	n/a	n/a	n/a	n/a	blue
92.8015	1.0167	ITI	n/a	n/a	n/a	n/a	n/a	n/a	n/a	n/a
93.8182	0.5167	FIXCROSS	n/a	n/a	n/a	n/a	n/a	n/a	n/a	n/a
94.3349	0.6833	INK	21	Neutral	xxxxxxxx	xxxxxxxx	zielony	green	hit	n/a
94.987	n/a	RESPONSE	n/a	n/a	n/a	n/a	n/a	n/a	n/a	green
95.0182	1.0167	ITI	n/a	n/a	n/a	n/a	n/a	n/a	n/a	n/a
96.0349	0.5167	FIXCROSS	n/a	n/a	n/a	n/a	n/a	n/a	n/a	n/a
96.5516	0.8667	INK	22	Neutral	xxxxxxxx	xxxxxxxx	żółty	yellow	hit	n/a
97.3865	n/a	RESPONSE	n/a	n/a	n/a	n/a	n/a	n/a	n/a	yellow
97.4182	1.0167	ITI	n/a	n/a	n/a	n/a	n/a	n/a	n/a	n/a
98.4349	0.5167	FIXCROSS	n/a	n/a	n/a	n/a	n/a	n/a	n/a	n/a
98.9516	1.0833	INK	23	Incongruent	zielony	green	czerwony	red	hit	n/a
100.0099	n/a	RESPONSE	n/a	n/a	n/a	n/a	n/a	n/a	n/a	red
100.0349	1.0167	ITI	n/a	n/a	n/a	n/a	n/a	n/a	n/a	n/a
101.0516	0.5167	FIXCROSS	n/a	n/a	n/a	n/a	n/a	n/a	n/a	n/a
101.5683	0.8	INK	24	Incongruent	żółty	yellow	czerwony	red	hit	n/a
102.3454	n/a	RESPONSE	n/a	n/a	n/a	n/a	n/a	n/a	n/a	red
102.3683	1.0167	ITI	n/a	n/a	n/a	n/a	n/a	n/a	n/a	n/a
103.385	0.5167	FIXCROSS	n/a	n/a	n/a	n/a	n/a	n/a	n/a	n/a
103.9016	0.6667	INK	25	Neutral	xxxxxxxxx	xxxxxxxxx	żółty	yellow	hit	n/a
104.537	n/a	RESPONSE	n/a	n/a	n/a	n/a	n/a	n/a	n/a	yellow
104.5683	1.0167	ITI	n/a	n/a	n/a	n/a	n/a	n/a	n/a	n/a
105.585	0.5167	FIXCROSS	n/a	n/a	n/a	n/a	n/a	n/a	n/a	n/a
106.1016	1.0333	INK	26	Incongruent	żółty	yellow	niebieski	blue	hit	n/a
107.1124	n/a	RESPONSE	n/a	n/a	n/a	n/a	n/a	n/a	n/a	blue
107.135	1.0167	ITI	n/a	n/a	n/a	n/a	n/a	n/a	n/a	n/a
108.1517	0.5167	FIXCROSS	n/a	n/a	n/a	n/a	n/a	n/a	n/a	n/a
108.6683	0.8833	INK	27	Neutral	xxxxxxx	xxxxxxx	czerwony	red	hit	n/a
109.5279	n/a	RESPONSE	n/a	n/a	n/a	n/a	n/a	n/a	n/a	red
109.5517	1.0167	ITI	n/a	n/a	n/a	n/a	n/a	n/a	n/a	n/a
110.5683	0.5167	FIXCROSS	n/a	n/a	n/a	n/a	n/a	n/a	n/a	n/a
111.085	0.7	INK	28	Incongruent	niebieski	blue	czerwony	red	hit	n/a
111.7675	n/a	RESPONSE	n/a	n/a	n/a	n/a	n/a	n/a	n/a	red
111.785	1.0167	ITI	n/a	n/a	n/a	n/a	n/a	n/a	n/a	n/a
112.8017	0.5167	FIXCROSS	n/a	n/a	n/a	n/a	n/a	n/a	n/a	n/a
113.3184	0.7	INK	29	Neutral	xxxxxxxx	xxxxxxxx	żółty	yellow	hit	n/a
113.991	n/a	RESPONSE	n/a	n/a	n/a	n/a	n/a	n/a	n/a	yellow
114.0184	1.0167	ITI	n/a	n/a	n/a	n/a	n/a	n/a	n/a	n/a
115.035	0.5167	FIXCROSS	n/a	n/a	n/a	n/a	n/a	n/a	n/a	n/a
115.5517	1.25	INK	30	Incongruent	żółty	yellow	niebieski	blue	hit	n/a
116.7744	n/a	RESPONSE	n/a	n/a	n/a	n/a	n/a	n/a	n/a	blue
116.8017	1.0167	ITI	n/a	n/a	n/a	n/a	n/a	n/a	n/a	n/a
117.8184	0.5167	FIXCROSS	n/a	n/a	n/a	n/a	n/a	n/a	n/a	n/a
118.3351	0.7833	INK	31	Incongruent	niebieski	blue	czerwony	red	hit	n/a
119.0939	n/a	RESPONSE	n/a	n/a	n/a	n/a	n/a	n/a	n/a	red
119.1184	1.0167	ITI	n/a	n/a	n/a	n/a	n/a	n/a	n/a	n/a
120.1351	0.5167	FIXCROSS	n/a	n/a	n/a	n/a	n/a	n/a	n/a	n/a
120.6517	0.8667	INK	32	Neutral	xxxxxxx	xxxxxxx	niebieski	blue	hit	n/a
121.4934	n/a	RESPONSE	n/a	n/a	n/a	n/a	n/a	n/a	n/a	blue
121.5184	1.0167	ITI	n/a	n/a	n/a	n/a	n/a	n/a	n/a	n/a
122.5351	0.5167	FIXCROSS	n/a	n/a	n/a	n/a	n/a	n/a	n/a	n/a
123.0518	0.7167	INK	33	Neutral	xxxxxxx	xxxxxxx	żółty	yellow	hit	n/a
123.7489	n/a	RESPONSE	n/a	n/a	n/a	n/a	n/a	n/a	n/a	yellow
123.7684	1.0167	ITI	n/a	n/a	n/a	n/a	n/a	n/a	n/a	n/a
124.7851	0.5167	FIXCROSS	n/a	n/a	n/a	n/a	n/a	n/a	n/a	n/a
125.3018	0.4833	INK	34	Neutral	xxxxxxxxx	xxxxxxxxx	zielony	green	hit	n/a
125.7645	n/a	RESPONSE	n/a	n/a	n/a	n/a	n/a	n/a	n/a	green
125.7851	1.0167	ITI	n/a	n/a	n/a	n/a	n/a	n/a	n/a	n/a
126.8018	0.5167	FIXCROSS	n/a	n/a	n/a	n/a	n/a	n/a	n/a	n/a
127.3185	0.9167	INK	35	Incongruent	zielony	green	żółty	yellow	hit	n/a
128.212	n/a	RESPONSE	n/a	n/a	n/a	n/a	n/a	n/a	n/a	yellow
128.2351	1.0167	ITI	n/a	n/a	n/a	n/a	n/a	n/a	n/a	n/a
129.2518	0.5167	FIXCROSS	n/a	n/a	n/a	n/a	n/a	n/a	n/a	n/a
129.7685	1.0	INK	36	Incongruent	czerwony	red	niebieski	blue	hit	n/a
130.7395	n/a	RESPONSE	n/a	n/a	n/a	n/a	n/a	n/a	n/a	blue
130.7685	1.0167	ITI	n/a	n/a	n/a	n/a	n/a	n/a	n/a	n/a
131.7852	0.5167	FIXCROSS	n/a	n/a	n/a	n/a	n/a	n/a	n/a	n/a
132.3018	0.5833	INK	37	Neutral	xxxxxxx	xxxxxxx	żółty	yellow	hit	n/a
132.867	n/a	RESPONSE	n/a	n/a	n/a	n/a	n/a	n/a	n/a	yellow
132.8852	1.0167	ITI	n/a	n/a	n/a	n/a	n/a	n/a	n/a	n/a
133.9018	0.5167	FIXCROSS	n/a	n/a	n/a	n/a	n/a	n/a	n/a	n/a
134.4185	0.55	INK	38	Neutral	xxxxxxx	xxxxxxx	żółty	yellow	hit	n/a
134.9466	n/a	RESPONSE	n/a	n/a	n/a	n/a	n/a	n/a	n/a	yellow
134.9685	1.0167	ITI	n/a	n/a	n/a	n/a	n/a	n/a	n/a	n/a
135.9852	0.5167	FIXCROSS	n/a	n/a	n/a	n/a	n/a	n/a	n/a	n/a
136.5019	0.95	INK	39	Incongruent	niebieski	blue	czerwony	red	hit	n/a
137.4261	n/a	RESPONSE	n/a	n/a	n/a	n/a	n/a	n/a	n/a	red
137.4519	1.0167	ITI	n/a	n/a	n/a	n/a	n/a	n/a	n/a	n/a
138.4685	0.5167	FIXCROSS	n/a	n/a	n/a	n/a	n/a	n/a	n/a	n/a
138.9852	0.7833	INK	40	Neutral	xxxxxxxxx	xxxxxxxxx	zielony	green	incorrect	n/a
139.7456	n/a	RESPONSE	n/a	n/a	n/a	n/a	n/a	n/a	n/a	yellow
139.7685	1.0167	ITI	n/a	n/a	n/a	n/a	n/a	n/a	n/a	n/a
140.7852	0.5167	FIXCROSS	n/a	n/a	n/a	n/a	n/a	n/a	n/a	n/a
141.3019	1.3667	INK	41	Incongruent	czerwony	red	zielony	green	hit	n/a
142.6409	n/a	RESPONSE	n/a	n/a	n/a	n/a	n/a	n/a	n/a	green
142.6686	1.0167	ITI	n/a	n/a	n/a	n/a	n/a	n/a	n/a	n/a
143.6852	0.5167	FIXCROSS	n/a	n/a	n/a	n/a	n/a	n/a	n/a	n/a
144.2019	0.6167	INK	42	Neutral	xxxxxxxx	xxxxxxxx	zielony	green	hit	n/a
144.8005	n/a	RESPONSE	n/a	n/a	n/a	n/a	n/a	n/a	n/a	green
144.8186	1.0167	ITI	n/a	n/a	n/a	n/a	n/a	n/a	n/a	n/a
145.8353	0.5167	FIXCROSS	n/a	n/a	n/a	n/a	n/a	n/a	n/a	n/a
146.3519	0.8834	INK	43	Incongruent	czerwony	red	żółty	yellow	hit	n/a
147.216	n/a	RESPONSE	n/a	n/a	n/a	n/a	n/a	n/a	n/a	yellow
147.2353	1.0167	ITI	n/a	n/a	n/a	n/a	n/a	n/a	n/a	n/a
148.2519	0.5167	FIXCROSS	n/a	n/a	n/a	n/a	n/a	n/a	n/a	n/a
148.7686	0.6	INK	44	Incongruent	zielony	green	czerwony	red	hit	n/a
149.3436	n/a	RESPONSE	n/a	n/a	n/a	n/a	n/a	n/a	n/a	red
149.3686	1.0167	ITI	n/a	n/a	n/a	n/a	n/a	n/a	n/a	n/a
150.3853	0.5167	FIXCROSS	n/a	n/a	n/a	n/a	n/a	n/a	n/a	n/a
150.902	0.6833	INK	45	Neutral	xxxxx	xxxxx	czerwony	red	hit	n/a
151.5671	n/a	RESPONSE	n/a	n/a	n/a	n/a	n/a	n/a	n/a	red
151.5853	1.0167	ITI	n/a	n/a	n/a	n/a	n/a	n/a	n/a	n/a
152.602	0.5167	FIXCROSS	n/a	n/a	n/a	n/a	n/a	n/a	n/a	n/a
153.1186	0.9333	INK	46	Neutral	xxxxxxx	xxxxxxx	niebieski	blue	hit	n/a
154.0306	n/a	RESPONSE	n/a	n/a	n/a	n/a	n/a	n/a	n/a	blue
154.052	1.0167	ITI	n/a	n/a	n/a	n/a	n/a	n/a	n/a	n/a
155.0686	0.5167	FIXCROSS	n/a	n/a	n/a	n/a	n/a	n/a	n/a	n/a
155.5853	0.75	INK	47	Incongruent	żółty	yellow	czerwony	red	hit	n/a
156.3181	n/a	RESPONSE	n/a	n/a	n/a	n/a	n/a	n/a	n/a	red
156.3353	1.0167	ITI	n/a	n/a	n/a	n/a	n/a	n/a	n/a	n/a
157.352	0.5167	FIXCROSS	n/a	n/a	n/a	n/a	n/a	n/a	n/a	n/a
157.8687	0.7	INK	48	Neutral	xxxxxxx	xxxxxxx	czerwony	red	hit	n/a
158.5417	n/a	RESPONSE	n/a	n/a	n/a	n/a	n/a	n/a	n/a	red
158.5687	1.0167	ITI	n/a	n/a	n/a	n/a	n/a	n/a	n/a	n/a
159.5853	0.5167	FIXCROSS	n/a	n/a	n/a	n/a	n/a	n/a	n/a	n/a
160.102	1.0167	INK	49	Incongruent	zielony	green	niebieski	blue	hit	n/a
161.1011	n/a	RESPONSE	n/a	n/a	n/a	n/a	n/a	n/a	n/a	blue
161.1187	1.0167	ITI	n/a	n/a	n/a	n/a	n/a	n/a	n/a	n/a
162.1354	0.5167	FIXCROSS	n/a	n/a	n/a	n/a	n/a	n/a	n/a	n/a
162.652	1.0167	INK	50	Neutral	xxxxx	xxxxx	zielony	green	hit	n/a
163.6446	n/a	RESPONSE	n/a	n/a	n/a	n/a	n/a	n/a	n/a	green
163.6687	1.0167	ITI	n/a	n/a	n/a	n/a	n/a	n/a	n/a	n/a
164.6854	0.5167	FIXCROSS	n/a	n/a	n/a	n/a	n/a	n/a	n/a	n/a
165.2021	0.8333	INK	51	Incongruent	zielony	green	żółty	yellow	hit	n/a
166.012	n/a	RESPONSE	n/a	n/a	n/a	n/a	n/a	n/a	n/a	yellow
166.0354	1.0167	ITI	n/a	n/a	n/a	n/a	n/a	n/a	n/a	n/a
167.0521	0.5167	FIXCROSS	n/a	n/a	n/a	n/a	n/a	n/a	n/a	n/a
167.5687	1.4	INK	52	Incongruent	niebieski	blue	żółty	yellow	hit	n/a
168.9394	n/a	RESPONSE	n/a	n/a	n/a	n/a	n/a	n/a	n/a	yellow
168.9687	1.0167	ITI	n/a	n/a	n/a	n/a	n/a	n/a	n/a	n/a
169.9854	0.5167	FIXCROSS	n/a	n/a	n/a	n/a	n/a	n/a	n/a	n/a
170.5021	0.9167	INK	53	Incongruent	czerwony	red	zielony	green	hit	n/a
171.3869	n/a	RESPONSE	n/a	n/a	n/a	n/a	n/a	n/a	n/a	green
171.4188	1.0167	ITI	n/a	n/a	n/a	n/a	n/a	n/a	n/a	n/a
172.4354	0.5167	FIXCROSS	n/a	n/a	n/a	n/a	n/a	n/a	n/a	n/a
172.9521	1.1834	INK	54	Incongruent	czerwony	red	niebieski	blue	hit	n/a
174.1063	n/a	RESPONSE	n/a	n/a	n/a	n/a	n/a	n/a	n/a	blue
174.1355	1.0165	ITI	n/a	n/a	n/a	n/a	n/a	n/a	n/a	n/a
175.152	0.5168	FIXCROSS	n/a	n/a	n/a	n/a	n/a	n/a	n/a	n/a
175.6688	0.75	INK	55	Neutral	xxxxxxxx	xxxxxxxx	niebieski	blue	hit	n/a
176.3938	n/a	RESPONSE	n/a	n/a	n/a	n/a	n/a	n/a	n/a	blue
176.4188	1.0167	ITI	n/a	n/a	n/a	n/a	n/a	n/a	n/a	n/a
177.4355	0.5167	FIXCROSS	n/a	n/a	n/a	n/a	n/a	n/a	n/a	n/a
177.9521	0.75	INK	56	Neutral	xxxxxxxxx	xxxxxxxxx	czerwony	red	hit	n/a
178.6814	n/a	RESPONSE	n/a	n/a	n/a	n/a	n/a	n/a	n/a	red
178.7021	1.0167	ITI	n/a	n/a	n/a	n/a	n/a	n/a	n/a	n/a
179.7188	0.5167	FIXCROSS	n/a	n/a	n/a	n/a	n/a	n/a	n/a	n/a
180.2355	0.7333	INK	57	Incongruent	żółty	yellow	czerwony	red	hit	n/a
180.9368	n/a	RESPONSE	n/a	n/a	n/a	n/a	n/a	n/a	n/a	red
180.9688	1.0167	ITI	n/a	n/a	n/a	n/a	n/a	n/a	n/a	n/a
181.9855	0.5167	FIXCROSS	n/a	n/a	n/a	n/a	n/a	n/a	n/a	n/a
182.5022	0.9	INK	58	Neutral	xxxxxxxx	xxxxxxxx	niebieski	blue	hit	n/a
183.3684	n/a	RESPONSE	n/a	n/a	n/a	n/a	n/a	n/a	n/a	blue
183.4022	1.0167	ITI	n/a	n/a	n/a	n/a	n/a	n/a	n/a	n/a
184.4189	0.5167	FIXCROSS	n/a	n/a	n/a	n/a	n/a	n/a	n/a	n/a
184.9355	0.8167	INK	59	Neutral	xxxxx	xxxxx	zielony	green	hit	n/a
185.7199	n/a	RESPONSE	n/a	n/a	n/a	n/a	n/a	n/a	n/a	green
185.7522	1.0167	ITI	n/a	n/a	n/a	n/a	n/a	n/a	n/a	n/a
186.7689	0.5167	FIXCROSS	n/a	n/a	n/a	n/a	n/a	n/a	n/a	n/a
187.2855	0.9333	INK	60	Incongruent	żółty	yellow	zielony	green	hit	n/a
188.1994	n/a	RESPONSE	n/a	n/a	n/a	n/a	n/a	n/a	n/a	green
188.2189	1.0167	ITI	n/a	n/a	n/a	n/a	n/a	n/a	n/a	n/a
189.2356	0.5167	FIXCROSS	n/a	n/a	n/a	n/a	n/a	n/a	n/a	n/a
189.7522	1.0333	INK	61	Incongruent	czerwony	red	zielony	green	hit	n/a
190.7588	n/a	RESPONSE	n/a	n/a	n/a	n/a	n/a	n/a	n/a	green
190.7856	1.0167	ITI	n/a	n/a	n/a	n/a	n/a	n/a	n/a	n/a
191.8022	0.5167	FIXCROSS	n/a	n/a	n/a	n/a	n/a	n/a	n/a	n/a
192.3189	0.9999	INK	62	Incongruent	czerwony	red	niebieski	blue	hit	n/a
193.2863	n/a	RESPONSE	n/a	n/a	n/a	n/a	n/a	n/a	n/a	blue
193.3188	1.0168	ITI	n/a	n/a	n/a	n/a	n/a	n/a	n/a	n/a
194.3356	0.5167	FIXCROSS	n/a	n/a	n/a	n/a	n/a	n/a	n/a	n/a
194.8523	0.8834	INK	63	Incongruent	niebieski	blue	zielony	green	hit	n/a
195.7018	n/a	RESPONSE	n/a	n/a	n/a	n/a	n/a	n/a	n/a	green
195.7356	1.0167	ITI	n/a	n/a	n/a	n/a	n/a	n/a	n/a	n/a
196.7523	0.5167	FIXCROSS	n/a	n/a	n/a	n/a	n/a	n/a	n/a	n/a
197.2689	1.0833	INK	64	Incongruent	niebieski	blue	żółty	yellow	hit	n/a
198.3252	n/a	RESPONSE	n/a	n/a	n/a	n/a	n/a	n/a	n/a	yellow
198.3523	1.0167	ITI	n/a	n/a	n/a	n/a	n/a	n/a	n/a	n/a
199.369	0.5167	FIXCROSS	n/a	n/a	n/a	n/a	n/a	n/a	n/a	n/a
199.8856	1.0333	INK	65	Neutral	xxxxxxxx	xxxxxxxx	zielony	green	hit	n/a
200.9006	n/a	RESPONSE	n/a	n/a	n/a	n/a	n/a	n/a	n/a	green
200.919	1.0167	ITI	n/a	n/a	n/a	n/a	n/a	n/a	n/a	n/a
201.9357	0.5166	FIXCROSS	n/a	n/a	n/a	n/a	n/a	n/a	n/a	n/a
202.4523	0.9834	INK	66	Incongruent	zielony	green	czerwony	red	hit	n/a
203.4121	n/a	RESPONSE	n/a	n/a	n/a	n/a	n/a	n/a	n/a	red
203.4357	1.0167	ITI	n/a	n/a	n/a	n/a	n/a	n/a	n/a	n/a
204.4523	0.5167	FIXCROSS	n/a	n/a	n/a	n/a	n/a	n/a	n/a	n/a
204.969	0.7834	INK	67	Neutral	xxxxxxx	xxxxxxx	czerwony	red	hit	n/a
205.7316	n/a	RESPONSE	n/a	n/a	n/a	n/a	n/a	n/a	n/a	red
205.7523	1.0167	ITI	n/a	n/a	n/a	n/a	n/a	n/a	n/a	n/a
206.769	0.5167	FIXCROSS	n/a	n/a	n/a	n/a	n/a	n/a	n/a	n/a
207.2857	0.8834	INK	68	Incongruent	żółty	yellow	zielony	green	hit	n/a
208.1471	n/a	RESPONSE	n/a	n/a	n/a	n/a	n/a	n/a	n/a	green
208.169	1.0167	ITI	n/a	n/a	n/a	n/a	n/a	n/a	n/a	n/a
209.1857	0.5167	FIXCROSS	n/a	n/a	n/a	n/a	n/a	n/a	n/a	n/a
209.7024	0.75	INK	69	Neutral	xxxxxxxxx	xxxxxxxxx	żółty	yellow	hit	n/a
210.4187	n/a	RESPONSE	n/a	n/a	n/a	n/a	n/a	n/a	n/a	yellow
210.4524	1.0167	ITI	n/a	n/a	n/a	n/a	n/a	n/a	n/a	n/a
211.4691	0.5167	FIXCROSS	n/a	n/a	n/a	n/a	n/a	n/a	n/a	n/a
211.9857	0.8167	INK	70	Neutral	xxxxxxxxx	xxxxxxxxx	zielony	green	hit	n/a
212.7702	n/a	RESPONSE	n/a	n/a	n/a	n/a	n/a	n/a	n/a	green
212.8024	1.0167	ITI	n/a	n/a	n/a	n/a	n/a	n/a	n/a	n/a
213.8191	0.5167	FIXCROSS	n/a	n/a	n/a	n/a	n/a	n/a	n/a	n/a
214.3357	1.1667	INK	71	Neutral	xxxxxxx	xxxxxxx	niebieski	blue	hit	n/a
215.4736	n/a	RESPONSE	n/a	n/a	n/a	n/a	n/a	n/a	n/a	blue
215.5024	1.0167	ITI	n/a	n/a	n/a	n/a	n/a	n/a	n/a	n/a
216.5191	0.5167	FIXCROSS	n/a	n/a	n/a	n/a	n/a	n/a	n/a	n/a
217.0358	0.9667	INK	72	Incongruent	żółty	yellow	niebieski	blue	hit	n/a
217.9851	n/a	RESPONSE	n/a	n/a	n/a	n/a	n/a	n/a	n/a	blue
218.0024	1.0833	ITI	n/a	n/a	n/a	n/a	n/a	n/a	n/a	n/a
240.1244	n/a	RESPONSE	n/a	n/a	n/a	n/a	n/a	n/a	n/a	n/a
240.1859	1.0167	ITI	n/a	n/a	n/a	n/a	n/a	n/a	n/a	n/a
241.2026	0.5167	FIXCROSS	n/a	n/a	n/a	n/a	n/a	n/a	n/a	n/a
241.7193	1.1334	T_COLOR_NAME	1	Incongruent	zielony	green	niebieski	blue	hit	n/a
242.8278	n/a	RESPONSE	n/a	n/a	n/a	n/a	n/a	n/a	n/a	green
242.8526	0.5167	FEEDBACK	n/a	n/a	n/a	n/a	n/a	n/a	n/a	n/a
243.3693	1.0167	ITI	n/a	n/a	n/a	n/a	n/a	n/a	n/a	n/a
244.386	0.5167	FIXCROSS	n/a	n/a	n/a	n/a	n/a	n/a	n/a	n/a
244.9026	0.95	T_COLOR_NAME	2	Incongruent	żółty	yellow	czerwony	red	hit	n/a
245.8192	n/a	RESPONSE	n/a	n/a	n/a	n/a	n/a	n/a	n/a	yellow
245.8526	0.5167	FEEDBACK	n/a	n/a	n/a	n/a	n/a	n/a	n/a	n/a
246.3693	1.0167	ITI	n/a	n/a	n/a	n/a	n/a	n/a	n/a	n/a
247.386	0.5167	FIXCROSS	n/a	n/a	n/a	n/a	n/a	n/a	n/a	n/a
247.9026	0.9667	T_COLOR_NAME	3	Neutral	zielony	green	Neutral	Neutral	hit	n/a
248.8425	n/a	RESPONSE	n/a	n/a	n/a	n/a	n/a	n/a	n/a	green
248.8693	0.5167	FEEDBACK	n/a	n/a	n/a	n/a	n/a	n/a	n/a	n/a
249.386	1.0167	ITI	n/a	n/a	n/a	n/a	n/a	n/a	n/a	n/a
250.4027	0.5167	FIXCROSS	n/a	n/a	n/a	n/a	n/a	n/a	n/a	n/a
250.9193	1.15	T_COLOR_NAME	4	Incongruent	czerwony	red	żółty	yellow	hit	n/a
252.0419	n/a	RESPONSE	n/a	n/a	n/a	n/a	n/a	n/a	n/a	red
252.0693	0.5167	FEEDBACK	n/a	n/a	n/a	n/a	n/a	n/a	n/a	n/a
252.586	1.0167	ITI	n/a	n/a	n/a	n/a	n/a	n/a	n/a	n/a
253.6027	0.5167	FIXCROSS	n/a	n/a	n/a	n/a	n/a	n/a	n/a	n/a
254.1194	1.1167	T_COLOR_NAME	5	Neutral	niebieski	blue	Neutral	Neutral	hit	n/a
255.2092	n/a	RESPONSE	n/a	n/a	n/a	n/a	n/a	n/a	n/a	blue
255.236	0.5167	FEEDBACK	n/a	n/a	n/a	n/a	n/a	n/a	n/a	n/a
255.7527	1.0167	ITI	n/a	n/a	n/a	n/a	n/a	n/a	n/a	n/a
256.7694	0.5167	FIXCROSS	n/a	n/a	n/a	n/a	n/a	n/a	n/a	n/a
257.286	1.0	T_COLOR_NAME	6	Incongruent	zielony	green	czerwony	red	hit	n/a
258.2646	n/a	RESPONSE	n/a	n/a	n/a	n/a	n/a	n/a	n/a	green
258.286	0.5167	FEEDBACK	n/a	n/a	n/a	n/a	n/a	n/a	n/a	n/a
258.8027	1.0167	ITI	n/a	n/a	n/a	n/a	n/a	n/a	n/a	n/a
259.8194	0.5167	FIXCROSS	n/a	n/a	n/a	n/a	n/a	n/a	n/a	n/a
260.3361	0.85	T_COLOR_NAME	7	Neutral	żółty	yellow	Neutral	Neutral	hit	n/a
261.16	n/a	RESPONSE	n/a	n/a	n/a	n/a	n/a	n/a	n/a	yellow
261.1861	0.5167	FEEDBACK	n/a	n/a	n/a	n/a	n/a	n/a	n/a	n/a
261.7027	1.0167	ITI	n/a	n/a	n/a	n/a	n/a	n/a	n/a	n/a
262.7194	0.5167	FIXCROSS	n/a	n/a	n/a	n/a	n/a	n/a	n/a	n/a
263.2361	0.8667	T_COLOR_NAME	8	Neutral	zielony	green	Neutral	Neutral	hit	n/a
264.0714	n/a	RESPONSE	n/a	n/a	n/a	n/a	n/a	n/a	n/a	green
264.1027	0.5167	FEEDBACK	n/a	n/a	n/a	n/a	n/a	n/a	n/a	n/a
264.6194	1.0167	ITI	n/a	n/a	n/a	n/a	n/a	n/a	n/a	n/a
265.6361	0.5167	FIXCROSS	n/a	n/a	n/a	n/a	n/a	n/a	n/a	n/a
266.1528	1.1167	T_COLOR_NAME	9	Incongruent	niebieski	blue	czerwony	red	hit	n/a
267.2387	n/a	RESPONSE	n/a	n/a	n/a	n/a	n/a	n/a	n/a	blue
267.2694	0.5167	FEEDBACK	n/a	n/a	n/a	n/a	n/a	n/a	n/a	n/a
267.7861	1.0167	ITI	n/a	n/a	n/a	n/a	n/a	n/a	n/a	n/a
268.8028	0.5167	FIXCROSS	n/a	n/a	n/a	n/a	n/a	n/a	n/a	n/a
269.3195	1.0167	T_COLOR_NAME	10	Incongruent	żółty	yellow	niebieski	blue	hit	n/a
270.31	n/a	RESPONSE	n/a	n/a	n/a	n/a	n/a	n/a	n/a	yellow
270.3361	0.5167	FEEDBACK	n/a	n/a	n/a	n/a	n/a	n/a	n/a	n/a
270.8528	1.0167	ITI	n/a	n/a	n/a	n/a	n/a	n/a	n/a	n/a
271.8695	0.5167	FIXCROSS	n/a	n/a	n/a	n/a	n/a	n/a	n/a	n/a
272.3861	1.05	T_COLOR_NAME	11	Neutral	czerwony	red	Neutral	Neutral	hit	n/a
273.4134	n/a	RESPONSE	n/a	n/a	n/a	n/a	n/a	n/a	n/a	red
273.4361	0.5167	FEEDBACK	n/a	n/a	n/a	n/a	n/a	n/a	n/a	n/a
273.9528	1.0167	ITI	n/a	n/a	n/a	n/a	n/a	n/a	n/a	n/a
274.9695	0.5167	FIXCROSS	n/a	n/a	n/a	n/a	n/a	n/a	n/a	n/a
275.4862	0.9	T_COLOR_NAME	12	Neutral	zielony	green	Neutral	Neutral	hit	n/a
276.3567	n/a	RESPONSE	n/a	n/a	n/a	n/a	n/a	n/a	n/a	green
276.3862	0.5167	FEEDBACK	n/a	n/a	n/a	n/a	n/a	n/a	n/a	n/a
276.9028	1.0333	ITI	n/a	n/a	n/a	n/a	n/a	n/a	n/a	n/a
279.604	n/a	RESPONSE	n/a	n/a	n/a	n/a	n/a	n/a	n/a	n/a
279.6695	1.0167	ITI	n/a	n/a	n/a	n/a	n/a	n/a	n/a	n/a
280.6862	0.5167	FIXCROSS	n/a	n/a	n/a	n/a	n/a	n/a	n/a	n/a
281.2029	1.8833	COLOR_NAME	1	Incongruent	żółty	yellow	zielony	green	hit	n/a
283.0593	n/a	RESPONSE	n/a	n/a	n/a	n/a	n/a	n/a	n/a	yellow
283.0862	1.0167	ITI	n/a	n/a	n/a	n/a	n/a	n/a	n/a	n/a
284.1029	0.5167	FIXCROSS	n/a	n/a	n/a	n/a	n/a	n/a	n/a	n/a
284.6196	1.05	COLOR_NAME	2	Neutral	zielony	green	Neutral	Neutral	hit	n/a
285.6508	n/a	RESPONSE	n/a	n/a	n/a	n/a	n/a	n/a	n/a	green
285.6696	1.0167	ITI	n/a	n/a	n/a	n/a	n/a	n/a	n/a	n/a
286.6862	0.5167	FIXCROSS	n/a	n/a	n/a	n/a	n/a	n/a	n/a	n/a
287.2029	0.9833	COLOR_NAME	3	Neutral	czerwony	red	Neutral	Neutral	hit	n/a
288.1623	n/a	RESPONSE	n/a	n/a	n/a	n/a	n/a	n/a	n/a	red
288.1862	1.0167	ITI	n/a	n/a	n/a	n/a	n/a	n/a	n/a	n/a
288.5142	n/a	RESPONSE	n/a	n/a	n/a	n/a	n/a	n/a	n/a	red
289.2029	0.5167	FIXCROSS	n/a	n/a	n/a	n/a	n/a	n/a	n/a	n/a
289.7196	1.45	COLOR_NAME	4	Incongruent	czerwony	red	żółty	yellow	hit	n/a
291.1376	n/a	RESPONSE	n/a	n/a	n/a	n/a	n/a	n/a	n/a	red
291.1696	1.0167	ITI	n/a	n/a	n/a	n/a	n/a	n/a	n/a	n/a
292.1863	0.5167	FIXCROSS	n/a	n/a	n/a	n/a	n/a	n/a	n/a	n/a
292.7029	0.8333	COLOR_NAME	5	Incongruent	czerwony	red	niebieski	blue	hit	n/a
293.5052	n/a	RESPONSE	n/a	n/a	n/a	n/a	n/a	n/a	n/a	red
293.5363	1.0167	ITI	n/a	n/a	n/a	n/a	n/a	n/a	n/a	n/a
294.553	0.5167	FIXCROSS	n/a	n/a	n/a	n/a	n/a	n/a	n/a	n/a
295.0696	0.9167	COLOR_NAME	6	Neutral	zielony	green	Neutral	Neutral	hit	n/a
295.9526	n/a	RESPONSE	n/a	n/a	n/a	n/a	n/a	n/a	n/a	green
295.9863	1.0167	ITI	n/a	n/a	n/a	n/a	n/a	n/a	n/a	n/a
297.003	0.5167	FIXCROSS	n/a	n/a	n/a	n/a	n/a	n/a	n/a	n/a
297.5196	0.95	COLOR_NAME	7	Incongruent	czerwony	red	zielony	green	hit	n/a
298.4481	n/a	RESPONSE	n/a	n/a	n/a	n/a	n/a	n/a	n/a	red
298.4697	1.0167	ITI	n/a	n/a	n/a	n/a	n/a	n/a	n/a	n/a
299.4863	0.5167	FIXCROSS	n/a	n/a	n/a	n/a	n/a	n/a	n/a	n/a
300.003	1.0167	COLOR_NAME	8	Neutral	zielony	green	Neutral	Neutral	hit	n/a
300.9916	n/a	RESPONSE	n/a	n/a	n/a	n/a	n/a	n/a	n/a	green
301.0197	1.0167	ITI	n/a	n/a	n/a	n/a	n/a	n/a	n/a	n/a
302.0363	0.5167	FIXCROSS	n/a	n/a	n/a	n/a	n/a	n/a	n/a	n/a
302.553	0.9333	COLOR_NAME	9	Incongruent	żółty	yellow	czerwony	red	hit	n/a
303.4551	n/a	RESPONSE	n/a	n/a	n/a	n/a	n/a	n/a	n/a	yellow
303.4864	1.0167	ITI	n/a	n/a	n/a	n/a	n/a	n/a	n/a	n/a
304.503	0.5167	FIXCROSS	n/a	n/a	n/a	n/a	n/a	n/a	n/a	n/a
305.0197	1.3166	COLOR_NAME	10	Incongruent	czerwony	red	niebieski	blue	hit	n/a
306.3185	n/a	RESPONSE	n/a	n/a	n/a	n/a	n/a	n/a	n/a	red
306.3363	1.0156	ITI	n/a	n/a	n/a	n/a	n/a	n/a	n/a	n/a
307.3518	0.5179	FIXCROSS	n/a	n/a	n/a	n/a	n/a	n/a	n/a	n/a
307.8697	0.9667	COLOR_NAME	11	Neutral	żółty	yellow	Neutral	Neutral	hit	n/a
308.8139	n/a	RESPONSE	n/a	n/a	n/a	n/a	n/a	n/a	n/a	yellow
308.8364	1.0167	ITI	n/a	n/a	n/a	n/a	n/a	n/a	n/a	n/a
309.8531	0.5167	FIXCROSS	n/a	n/a	n/a	n/a	n/a	n/a	n/a	n/a
310.3697	0.8667	COLOR_NAME	12	Incongruent	czerwony	red	zielony	green	hit	n/a
311.2134	n/a	RESPONSE	n/a	n/a	n/a	n/a	n/a	n/a	n/a	red
311.2364	1.0167	ITI	n/a	n/a	n/a	n/a	n/a	n/a	n/a	n/a
312.2531	0.5167	FIXCROSS	n/a	n/a	n/a	n/a	n/a	n/a	n/a	n/a
312.7698	1.1833	COLOR_NAME	13	Incongruent	niebieski	blue	zielony	green	hit	n/a
313.9329	n/a	RESPONSE	n/a	n/a	n/a	n/a	n/a	n/a	n/a	blue
313.9531	1.0167	ITI	n/a	n/a	n/a	n/a	n/a	n/a	n/a	n/a
314.9698	0.5167	FIXCROSS	n/a	n/a	n/a	n/a	n/a	n/a	n/a	n/a
315.4864	0.8667	COLOR_NAME	14	Incongruent	zielony	green	czerwony	red	hit	n/a
316.3324	n/a	RESPONSE	n/a	n/a	n/a	n/a	n/a	n/a	n/a	green
316.3531	1.0167	ITI	n/a	n/a	n/a	n/a	n/a	n/a	n/a	n/a
317.3698	0.5167	FIXCROSS	n/a	n/a	n/a	n/a	n/a	n/a	n/a	n/a
317.8864	0.8167	COLOR_NAME	15	Neutral	żółty	yellow	Neutral	Neutral	hit	n/a
318.6839	n/a	RESPONSE	n/a	n/a	n/a	n/a	n/a	n/a	n/a	yellow
318.7031	1.0167	ITI	n/a	n/a	n/a	n/a	n/a	n/a	n/a	n/a
319.7198	0.5167	FIXCROSS	n/a	n/a	n/a	n/a	n/a	n/a	n/a	n/a
320.2365	0.9167	COLOR_NAME	16	Neutral	czerwony	red	Neutral	Neutral	hit	n/a
321.1314	n/a	RESPONSE	n/a	n/a	n/a	n/a	n/a	n/a	n/a	red
321.1531	1.0167	ITI	n/a	n/a	n/a	n/a	n/a	n/a	n/a	n/a
322.1698	0.5167	FIXCROSS	n/a	n/a	n/a	n/a	n/a	n/a	n/a	n/a
322.6865	0.7833	COLOR_NAME	17	Neutral	żółty	yellow	Neutral	Neutral	hit	n/a
323.4509	n/a	RESPONSE	n/a	n/a	n/a	n/a	n/a	n/a	n/a	yellow
323.4698	1.0167	ITI	n/a	n/a	n/a	n/a	n/a	n/a	n/a	n/a
324.4865	0.5167	FIXCROSS	n/a	n/a	n/a	n/a	n/a	n/a	n/a	n/a
325.0032	1.1	COLOR_NAME	18	Neutral	czerwony	red	Neutral	Neutral	hit	n/a
326.0743	n/a	RESPONSE	n/a	n/a	n/a	n/a	n/a	n/a	n/a	red
326.1032	1.0167	ITI	n/a	n/a	n/a	n/a	n/a	n/a	n/a	n/a
327.1199	0.5167	FIXCROSS	n/a	n/a	n/a	n/a	n/a	n/a	n/a	n/a
327.6365	0.8167	COLOR_NAME	19	Incongruent	żółty	yellow	zielony	green	hit	n/a
328.4258	n/a	RESPONSE	n/a	n/a	n/a	n/a	n/a	n/a	n/a	yellow
328.4532	1.0167	ITI	n/a	n/a	n/a	n/a	n/a	n/a	n/a	n/a
329.4699	0.5167	FIXCROSS	n/a	n/a	n/a	n/a	n/a	n/a	n/a	n/a
329.9865	0.8833	COLOR_NAME	20	Neutral	niebieski	blue	Neutral	Neutral	hit	n/a
330.8413	n/a	RESPONSE	n/a	n/a	n/a	n/a	n/a	n/a	n/a	blue
330.8699	1.0167	ITI	n/a	n/a	n/a	n/a	n/a	n/a	n/a	n/a
331.8866	0.5167	FIXCROSS	n/a	n/a	n/a	n/a	n/a	n/a	n/a	n/a
332.4032	0.75	COLOR_NAME	21	Incongruent	zielony	green	żółty	yellow	hit	n/a
333.1288	n/a	RESPONSE	n/a	n/a	n/a	n/a	n/a	n/a	n/a	green
333.1532	1.0167	ITI	n/a	n/a	n/a	n/a	n/a	n/a	n/a	n/a
334.1699	0.5167	FIXCROSS	n/a	n/a	n/a	n/a	n/a	n/a	n/a	n/a
334.6866	0.9333	COLOR_NAME	22	Neutral	niebieski	blue	Neutral	Neutral	hit	n/a
335.5923	n/a	RESPONSE	n/a	n/a	n/a	n/a	n/a	n/a	n/a	blue
335.6199	1.0167	ITI	n/a	n/a	n/a	n/a	n/a	n/a	n/a	n/a
336.6366	0.5167	FIXCROSS	n/a	n/a	n/a	n/a	n/a	n/a	n/a	n/a
337.1533	0.8833	COLOR_NAME	23	Incongruent	niebieski	blue	czerwony	red	hit	n/a
338.0078	n/a	RESPONSE	n/a	n/a	n/a	n/a	n/a	n/a	n/a	blue
338.0366	1.0167	ITI	n/a	n/a	n/a	n/a	n/a	n/a	n/a	n/a
339.0533	0.5167	FIXCROSS	n/a	n/a	n/a	n/a	n/a	n/a	n/a	n/a
339.5699	0.8333	COLOR_NAME	24	Incongruent	zielony	green	żółty	yellow	hit	n/a
340.3753	n/a	RESPONSE	n/a	n/a	n/a	n/a	n/a	n/a	n/a	green
340.4033	1.0167	ITI	n/a	n/a	n/a	n/a	n/a	n/a	n/a	n/a
341.42	0.5167	FIXCROSS	n/a	n/a	n/a	n/a	n/a	n/a	n/a	n/a
341.9366	0.75	COLOR_NAME	25	Incongruent	niebieski	blue	zielony	green	hit	n/a
342.6628	n/a	RESPONSE	n/a	n/a	n/a	n/a	n/a	n/a	n/a	blue
342.6866	1.0167	ITI	n/a	n/a	n/a	n/a	n/a	n/a	n/a	n/a
343.7033	0.5167	FIXCROSS	n/a	n/a	n/a	n/a	n/a	n/a	n/a	n/a
344.22	0.6833	COLOR_NAME	26	Incongruent	niebieski	blue	żółty	yellow	hit	n/a
344.8704	n/a	RESPONSE	n/a	n/a	n/a	n/a	n/a	n/a	n/a	blue
344.9033	1.0167	ITI	n/a	n/a	n/a	n/a	n/a	n/a	n/a	n/a
345.92	0.5167	FIXCROSS	n/a	n/a	n/a	n/a	n/a	n/a	n/a	n/a
346.4366	1.2	COLOR_NAME	27	Neutral	czerwony	red	Neutral	Neutral	hit	n/a
347.6058	n/a	RESPONSE	n/a	n/a	n/a	n/a	n/a	n/a	n/a	red
347.6367	1.0167	ITI	n/a	n/a	n/a	n/a	n/a	n/a	n/a	n/a
348.6533	0.5167	FIXCROSS	n/a	n/a	n/a	n/a	n/a	n/a	n/a	n/a
349.17	0.8834	COLOR_NAME	28	Neutral	niebieski	blue	Neutral	Neutral	hit	n/a
350.0213	n/a	RESPONSE	n/a	n/a	n/a	n/a	n/a	n/a	n/a	blue
350.0533	1.0167	ITI	n/a	n/a	n/a	n/a	n/a	n/a	n/a	n/a
351.07	0.5167	FIXCROSS	n/a	n/a	n/a	n/a	n/a	n/a	n/a	n/a
351.5867	0.9333	COLOR_NAME	29	Incongruent	czerwony	red	niebieski	blue	hit	n/a
352.5008	n/a	RESPONSE	n/a	n/a	n/a	n/a	n/a	n/a	n/a	red
352.52	1.0167	ITI	n/a	n/a	n/a	n/a	n/a	n/a	n/a	n/a
353.5367	0.5167	FIXCROSS	n/a	n/a	n/a	n/a	n/a	n/a	n/a	n/a
354.0534	0.7167	COLOR_NAME	30	Neutral	czerwony	red	Neutral	Neutral	hit	n/a
354.7403	n/a	RESPONSE	n/a	n/a	n/a	n/a	n/a	n/a	n/a	red
354.77	1.0167	ITI	n/a	n/a	n/a	n/a	n/a	n/a	n/a	n/a
355.7867	0.5167	FIXCROSS	n/a	n/a	n/a	n/a	n/a	n/a	n/a	n/a
356.3034	0.6833	COLOR_NAME	31	Neutral	czerwony	red	Neutral	Neutral	hit	n/a
356.9638	n/a	RESPONSE	n/a	n/a	n/a	n/a	n/a	n/a	n/a	red
356.9867	1.0167	ITI	n/a	n/a	n/a	n/a	n/a	n/a	n/a	n/a
358.0034	0.5167	FIXCROSS	n/a	n/a	n/a	n/a	n/a	n/a	n/a	n/a
358.5201	0.6	COLOR_NAME	32	Neutral	czerwony	red	Neutral	Neutral	hit	n/a
359.0914	n/a	RESPONSE	n/a	n/a	n/a	n/a	n/a	n/a	n/a	red
359.1201	1.0167	ITI	n/a	n/a	n/a	n/a	n/a	n/a	n/a	n/a
360.1368	0.5167	FIXCROSS	n/a	n/a	n/a	n/a	n/a	n/a	n/a	n/a
360.6534	1.0	COLOR_NAME	33	Neutral	niebieski	blue	Neutral	Neutral	hit	n/a
361.6348	n/a	RESPONSE	n/a	n/a	n/a	n/a	n/a	n/a	n/a	blue
361.6534	1.0167	ITI	n/a	n/a	n/a	n/a	n/a	n/a	n/a	n/a
362.6701	0.5167	FIXCROSS	n/a	n/a	n/a	n/a	n/a	n/a	n/a	n/a
363.1868	0.8833	COLOR_NAME	34	Neutral	czerwony	red	Neutral	Neutral	hit	n/a
364.0503	n/a	RESPONSE	n/a	n/a	n/a	n/a	n/a	n/a	n/a	red
364.0701	1.0167	ITI	n/a	n/a	n/a	n/a	n/a	n/a	n/a	n/a
365.0868	0.5167	FIXCROSS	n/a	n/a	n/a	n/a	n/a	n/a	n/a	n/a
365.6034	0.7333	COLOR_NAME	35	Neutral	żółty	yellow	Neutral	Neutral	hit	n/a
366.3059	n/a	RESPONSE	n/a	n/a	n/a	n/a	n/a	n/a	n/a	yellow
366.3368	1.0	ITI	n/a	n/a	n/a	n/a	n/a	n/a	n/a	n/a
367.3368	0.5167	FIXCROSS	n/a	n/a	n/a	n/a	n/a	n/a	n/a	n/a
367.8535	0.7333	COLOR_NAME	36	Neutral	zielony	green	Neutral	Neutral	hit	n/a
368.5614	n/a	RESPONSE	n/a	n/a	n/a	n/a	n/a	n/a	n/a	green
368.5868	1.0167	ITI	n/a	n/a	n/a	n/a	n/a	n/a	n/a	n/a
369.6035	0.5167	FIXCROSS	n/a	n/a	n/a	n/a	n/a	n/a	n/a	n/a
370.1201	1.5	COLOR_NAME	37	Incongruent	żółty	yellow	czerwony	red	hit	n/a
371.6008	n/a	RESPONSE	n/a	n/a	n/a	n/a	n/a	n/a	n/a	yellow
371.6202	1.0167	ITI	n/a	n/a	n/a	n/a	n/a	n/a	n/a	n/a
372.6368	0.5167	FIXCROSS	n/a	n/a	n/a	n/a	n/a	n/a	n/a	n/a
373.1535	0.65	COLOR_NAME	38	Incongruent	żółty	yellow	niebieski	blue	hit	n/a
373.7763	n/a	RESPONSE	n/a	n/a	n/a	n/a	n/a	n/a	n/a	yellow
373.8035	1.0167	ITI	n/a	n/a	n/a	n/a	n/a	n/a	n/a	n/a
374.8202	0.5167	FIXCROSS	n/a	n/a	n/a	n/a	n/a	n/a	n/a	n/a
375.3369	0.95	COLOR_NAME	39	Incongruent	zielony	green	niebieski	blue	hit	n/a
376.2558	n/a	RESPONSE	n/a	n/a	n/a	n/a	n/a	n/a	n/a	green
376.2869	1.0167	ITI	n/a	n/a	n/a	n/a	n/a	n/a	n/a	n/a
377.3035	0.5167	FIXCROSS	n/a	n/a	n/a	n/a	n/a	n/a	n/a	n/a
377.8202	0.7167	COLOR_NAME	40	Neutral	żółty	yellow	Neutral	Neutral	hit	n/a
378.5113	n/a	RESPONSE	n/a	n/a	n/a	n/a	n/a	n/a	n/a	yellow
378.5369	1.0167	ITI	n/a	n/a	n/a	n/a	n/a	n/a	n/a	n/a
379.5535	0.5167	FIXCROSS	n/a	n/a	n/a	n/a	n/a	n/a	n/a	n/a
380.0702	0.6	COLOR_NAME	41	Neutral	żółty	yellow	Neutral	Neutral	hit	n/a
380.6389	n/a	RESPONSE	n/a	n/a	n/a	n/a	n/a	n/a	n/a	yellow
380.6702	1.0167	ITI	n/a	n/a	n/a	n/a	n/a	n/a	n/a	n/a
381.6869	0.5167	FIXCROSS	n/a	n/a	n/a	n/a	n/a	n/a	n/a	n/a
382.2036	0.7167	COLOR_NAME	42	Neutral	zielony	green	Neutral	Neutral	hit	n/a
382.8944	n/a	RESPONSE	n/a	n/a	n/a	n/a	n/a	n/a	n/a	green
382.9202	1.0167	ITI	n/a	n/a	n/a	n/a	n/a	n/a	n/a	n/a
383.9369	0.5167	FIXCROSS	n/a	n/a	n/a	n/a	n/a	n/a	n/a	n/a
384.4536	0.6333	COLOR_NAME	43	Neutral	zielony	green	Neutral	Neutral	hit	n/a
385.0539	n/a	RESPONSE	n/a	n/a	n/a	n/a	n/a	n/a	n/a	green
385.0869	1.0167	ITI	n/a	n/a	n/a	n/a	n/a	n/a	n/a	n/a
386.1036	0.5167	FIXCROSS	n/a	n/a	n/a	n/a	n/a	n/a	n/a	n/a
386.6203	0.5667	COLOR_NAME	44	Incongruent	zielony	green	niebieski	blue	hit	n/a
387.1655	n/a	RESPONSE	n/a	n/a	n/a	n/a	n/a	n/a	n/a	green
387.1869	1.0167	ITI	n/a	n/a	n/a	n/a	n/a	n/a	n/a	n/a
388.2036	0.5167	FIXCROSS	n/a	n/a	n/a	n/a	n/a	n/a	n/a	n/a
388.7203	0.8667	COLOR_NAME	45	Incongruent	czerwony	red	żółty	yellow	hit	n/a
389.565	n/a	RESPONSE	n/a	n/a	n/a	n/a	n/a	n/a	n/a	red
389.5869	1.0167	ITI	n/a	n/a	n/a	n/a	n/a	n/a	n/a	n/a
390.6036	0.5167	FIXCROSS	n/a	n/a	n/a	n/a	n/a	n/a	n/a	n/a
391.1203	0.9	COLOR_NAME	46	Incongruent	żółty	yellow	niebieski	blue	hit	n/a
391.9965	n/a	RESPONSE	n/a	n/a	n/a	n/a	n/a	n/a	n/a	yellow
392.0203	1.0167	ITI	n/a	n/a	n/a	n/a	n/a	n/a	n/a	n/a
393.037	0.5167	FIXCROSS	n/a	n/a	n/a	n/a	n/a	n/a	n/a	n/a
393.5536	0.7667	COLOR_NAME	47	Incongruent	żółty	yellow	zielony	green	hit	n/a
394.3	n/a	RESPONSE	n/a	n/a	n/a	n/a	n/a	n/a	n/a	yellow
394.3203	1.0167	ITI	n/a	n/a	n/a	n/a	n/a	n/a	n/a	n/a
395.337	0.5167	FIXCROSS	n/a	n/a	n/a	n/a	n/a	n/a	n/a	n/a
395.8537	0.4833	COLOR_NAME	48	Incongruent	żółty	yellow	niebieski	blue	hit	n/a
396.3156	n/a	RESPONSE	n/a	n/a	n/a	n/a	n/a	n/a	n/a	yellow
396.337	1.0167	ITI	n/a	n/a	n/a	n/a	n/a	n/a	n/a	n/a
397.3537	0.5167	FIXCROSS	n/a	n/a	n/a	n/a	n/a	n/a	n/a	n/a
397.8703	1.0	COLOR_NAME	49	Incongruent	niebieski	blue	żółty	yellow	hit	n/a
398.843	n/a	RESPONSE	n/a	n/a	n/a	n/a	n/a	n/a	n/a	blue
398.8703	1.0167	ITI	n/a	n/a	n/a	n/a	n/a	n/a	n/a	n/a
399.887	0.5167	FIXCROSS	n/a	n/a	n/a	n/a	n/a	n/a	n/a	n/a
400.4037	0.6833	COLOR_NAME	50	Incongruent	niebieski	blue	zielony	green	hit	n/a
401.0665	n/a	RESPONSE	n/a	n/a	n/a	n/a	n/a	n/a	n/a	blue
401.087	1.0167	ITI	n/a	n/a	n/a	n/a	n/a	n/a	n/a	n/a
402.1037	0.5167	FIXCROSS	n/a	n/a	n/a	n/a	n/a	n/a	n/a	n/a
402.6204	1.05	COLOR_NAME	51	Incongruent	zielony	green	żółty	yellow	hit	n/a
403.642	n/a	RESPONSE	n/a	n/a	n/a	n/a	n/a	n/a	n/a	green
403.6704	1.0167	ITI	n/a	n/a	n/a	n/a	n/a	n/a	n/a	n/a
404.687	0.5167	FIXCROSS	n/a	n/a	n/a	n/a	n/a	n/a	n/a	n/a
405.2037	0.9833	COLOR_NAME	52	Neutral	niebieski	blue	Neutral	Neutral	hit	n/a
406.1695	n/a	RESPONSE	n/a	n/a	n/a	n/a	n/a	n/a	n/a	blue
406.1871	1.0167	ITI	n/a	n/a	n/a	n/a	n/a	n/a	n/a	n/a
407.2037	0.5167	FIXCROSS	n/a	n/a	n/a	n/a	n/a	n/a	n/a	n/a
407.7204	0.55	COLOR_NAME	53	Neutral	niebieski	blue	Neutral	Neutral	hit	n/a
408.249	n/a	RESPONSE	n/a	n/a	n/a	n/a	n/a	n/a	n/a	blue
408.2704	1.0167	ITI	n/a	n/a	n/a	n/a	n/a	n/a	n/a	n/a
409.2871	0.5167	FIXCROSS	n/a	n/a	n/a	n/a	n/a	n/a	n/a	n/a
409.8037	0.9167	COLOR_NAME	54	Incongruent	zielony	green	niebieski	blue	hit	n/a
410.6965	n/a	RESPONSE	n/a	n/a	n/a	n/a	n/a	n/a	n/a	green
410.7204	1.0167	ITI	n/a	n/a	n/a	n/a	n/a	n/a	n/a	n/a
411.7371	0.5167	FIXCROSS	n/a	n/a	n/a	n/a	n/a	n/a	n/a	n/a
412.2538	0.8	COLOR_NAME	55	Incongruent	niebieski	blue	czerwony	red	hit	n/a
413.032	n/a	RESPONSE	n/a	n/a	n/a	n/a	n/a	n/a	n/a	blue
413.0538	1.0167	ITI	n/a	n/a	n/a	n/a	n/a	n/a	n/a	n/a
414.0704	0.5167	FIXCROSS	n/a	n/a	n/a	n/a	n/a	n/a	n/a	n/a
414.5871	0.9	COLOR_NAME	56	Neutral	żółty	yellow	Neutral	Neutral	hit	n/a
415.4635	n/a	RESPONSE	n/a	n/a	n/a	n/a	n/a	n/a	n/a	yellow
415.4871	1.0167	ITI	n/a	n/a	n/a	n/a	n/a	n/a	n/a	n/a
416.5038	0.5167	FIXCROSS	n/a	n/a	n/a	n/a	n/a	n/a	n/a	n/a
417.0205	1.4167	COLOR_NAME	57	Neutral	zielony	green	Neutral	Neutral	hit	n/a
418.4069	n/a	RESPONSE	n/a	n/a	n/a	n/a	n/a	n/a	n/a	green
418.4371	1.0167	ITI	n/a	n/a	n/a	n/a	n/a	n/a	n/a	n/a
419.4538	0.5167	FIXCROSS	n/a	n/a	n/a	n/a	n/a	n/a	n/a	n/a
419.9705	1.2833	COLOR_NAME	58	Neutral	czerwony	red	Neutral	Neutral	hit	n/a
421.2223	n/a	RESPONSE	n/a	n/a	n/a	n/a	n/a	n/a	n/a	red
421.2538	1.0167	ITI	n/a	n/a	n/a	n/a	n/a	n/a	n/a	n/a
422.2705	0.5167	FIXCROSS	n/a	n/a	n/a	n/a	n/a	n/a	n/a	n/a
422.7872	1.35	COLOR_NAME	59	Incongruent	żółty	yellow	czerwony	red	hit	n/a
424.1177	n/a	RESPONSE	n/a	n/a	n/a	n/a	n/a	n/a	n/a	yellow
424.1372	1.0167	ITI	n/a	n/a	n/a	n/a	n/a	n/a	n/a	n/a
425.1539	0.5167	FIXCROSS	n/a	n/a	n/a	n/a	n/a	n/a	n/a	n/a
425.6705	1.2667	COLOR_NAME	60	Incongruent	niebieski	blue	czerwony	red	hit	n/a
426.9171	n/a	RESPONSE	n/a	n/a	n/a	n/a	n/a	n/a	n/a	blue
426.9372	1.0167	ITI	n/a	n/a	n/a	n/a	n/a	n/a	n/a	n/a
427.9539	0.5167	FIXCROSS	n/a	n/a	n/a	n/a	n/a	n/a	n/a	n/a
428.4705	0.6167	COLOR_NAME	61	Neutral	niebieski	blue	Neutral	Neutral	hit	n/a
429.0607	n/a	RESPONSE	n/a	n/a	n/a	n/a	n/a	n/a	n/a	blue
429.0872	1.0167	ITI	n/a	n/a	n/a	n/a	n/a	n/a	n/a	n/a
430.1039	0.5167	FIXCROSS	n/a	n/a	n/a	n/a	n/a	n/a	n/a	n/a
430.6205	0.9834	COLOR_NAME	62	Incongruent	czerwony	red	żółty	yellow	hit	n/a
431.5721	n/a	RESPONSE	n/a	n/a	n/a	n/a	n/a	n/a	n/a	red
431.6039	1.0167	ITI	n/a	n/a	n/a	n/a	n/a	n/a	n/a	n/a
432.6206	0.5167	FIXCROSS	n/a	n/a	n/a	n/a	n/a	n/a	n/a	n/a
433.1372	0.95	COLOR_NAME	63	Neutral	żółty	yellow	Neutral	Neutral	hit	n/a
434.0676	n/a	RESPONSE	n/a	n/a	n/a	n/a	n/a	n/a	n/a	yellow
434.0872	1.0167	ITI	n/a	n/a	n/a	n/a	n/a	n/a	n/a	n/a
435.1039	0.5167	FIXCROSS	n/a	n/a	n/a	n/a	n/a	n/a	n/a	n/a
435.6206	0.8333	COLOR_NAME	64	Neutral	żółty	yellow	Neutral	Neutral	hit	n/a
436.4351	n/a	RESPONSE	n/a	n/a	n/a	n/a	n/a	n/a	n/a	yellow
436.4539	1.0167	ITI	n/a	n/a	n/a	n/a	n/a	n/a	n/a	n/a
437.4706	0.5167	FIXCROSS	n/a	n/a	n/a	n/a	n/a	n/a	n/a	n/a
437.9873	0.9167	COLOR_NAME	65	Incongruent	czerwony	red	zielony	green	hit	n/a
438.8826	n/a	RESPONSE	n/a	n/a	n/a	n/a	n/a	n/a	n/a	red
438.9039	1.0167	ITI	n/a	n/a	n/a	n/a	n/a	n/a	n/a	n/a
439.9206	0.5167	FIXCROSS	n/a	n/a	n/a	n/a	n/a	n/a	n/a	n/a
440.4373	0.95	COLOR_NAME	66	Incongruent	zielony	green	czerwony	red	hit	n/a
441.3621	n/a	RESPONSE	n/a	n/a	n/a	n/a	n/a	n/a	n/a	green
441.3873	1.0167	ITI	n/a	n/a	n/a	n/a	n/a	n/a	n/a	n/a
442.404	0.5167	FIXCROSS	n/a	n/a	n/a	n/a	n/a	n/a	n/a	n/a
442.9206	0.8	COLOR_NAME	67	Neutral	zielony	green	Neutral	Neutral	hit	n/a
443.6976	n/a	RESPONSE	n/a	n/a	n/a	n/a	n/a	n/a	n/a	green
443.7206	1.0167	ITI	n/a	n/a	n/a	n/a	n/a	n/a	n/a	n/a
444.7373	0.5167	FIXCROSS	n/a	n/a	n/a	n/a	n/a	n/a	n/a	n/a
445.254	0.8667	COLOR_NAME	68	Incongruent	niebieski	blue	żółty	yellow	hit	n/a
446.0971	n/a	RESPONSE	n/a	n/a	n/a	n/a	n/a	n/a	n/a	blue
446.1207	1.0167	ITI	n/a	n/a	n/a	n/a	n/a	n/a	n/a	n/a
447.1373	0.5167	FIXCROSS	n/a	n/a	n/a	n/a	n/a	n/a	n/a	n/a
447.654	0.75	COLOR_NAME	69	Neutral	zielony	green	Neutral	Neutral	hit	n/a
448.3846	n/a	RESPONSE	n/a	n/a	n/a	n/a	n/a	n/a	n/a	green
448.404	1.0167	ITI	n/a	n/a	n/a	n/a	n/a	n/a	n/a	n/a
449.4207	0.5167	FIXCROSS	n/a	n/a	n/a	n/a	n/a	n/a	n/a	n/a
449.9373	0.6667	COLOR_NAME	70	Incongruent	zielony	green	czerwony	red	hit	n/a
450.5761	n/a	RESPONSE	n/a	n/a	n/a	n/a	n/a	n/a	n/a	green
450.604	1.0167	ITI	n/a	n/a	n/a	n/a	n/a	n/a	n/a	n/a
451.6207	0.5167	FIXCROSS	n/a	n/a	n/a	n/a	n/a	n/a	n/a	n/a
452.1374	1.35	COLOR_NAME	71	Neutral	niebieski	blue	Neutral	Neutral	hit	n/a
453.4555	n/a	RESPONSE	n/a	n/a	n/a	n/a	n/a	n/a	n/a	blue
453.4874	1.0167	ITI	n/a	n/a	n/a	n/a	n/a	n/a	n/a	n/a
454.5041	0.5167	FIXCROSS	n/a	n/a	n/a	n/a	n/a	n/a	n/a	n/a
455.0207	0.6833	COLOR_NAME	72	Neutral	niebieski	blue	Neutral	Neutral	hit	n/a
455.679	n/a	RESPONSE	n/a	n/a	n/a	n/a	n/a	n/a	n/a	blue
455.7041	1.0333	ITI	n/a	n/a	n/a	n/a	n/a	n/a	n/a	n/a
459.2303	n/a	RESPONSE	n/a	n/a	n/a	n/a	n/a	n/a	n/a	n/a
