onset	duration	trial_type	trial_number	stroop_condition	stim_text(PL)	stim_text(eng)	stim_color(PL)	stim_color(eng)	response_type	response_color
0.0	n/a	RESPONSE	n/a	n/a	n/a	n/a	n/a	n/a	n/a	n/a
0.0567	1.0333	ITI	n/a	n/a	n/a	n/a	n/a	n/a	n/a	n/a
1.09	0.5167	FIXCROSS	n/a	n/a	n/a	n/a	n/a	n/a	n/a	n/a
1.6067	2.3167	T_INK	1	Incongruent	żółty	yellow	niebieski	blue	hit	n/a
3.887	n/a	RESPONSE	n/a	n/a	n/a	n/a	n/a	n/a	n/a	blue
3.9234	0.5167	FEEDBACK	n/a	n/a	n/a	n/a	n/a	n/a	n/a	n/a
4.4401	1.0167	ITI	n/a	n/a	n/a	n/a	n/a	n/a	n/a	n/a
5.4567	0.5167	FIXCROSS	n/a	n/a	n/a	n/a	n/a	n/a	n/a	n/a
5.9734	1.1167	T_INK	2	Incongruent	zielony	green	czerwony	red	hit	n/a
7.0543	n/a	RESPONSE	n/a	n/a	n/a	n/a	n/a	n/a	n/a	red
7.0901	0.5167	FEEDBACK	n/a	n/a	n/a	n/a	n/a	n/a	n/a	n/a
7.6068	1.0167	ITI	n/a	n/a	n/a	n/a	n/a	n/a	n/a	n/a
8.6234	0.5167	FIXCROSS	n/a	n/a	n/a	n/a	n/a	n/a	n/a	n/a
9.1401	1.5667	T_INK	3	Incongruent	czerwony	red	żółty	yellow	hit	n/a
10.6854	n/a	RESPONSE	n/a	n/a	n/a	n/a	n/a	n/a	n/a	yellow
10.7068	0.5167	FEEDBACK	n/a	n/a	n/a	n/a	n/a	n/a	n/a	n/a
11.2235	1.0167	ITI	n/a	n/a	n/a	n/a	n/a	n/a	n/a	n/a
12.2402	0.5167	FIXCROSS	n/a	n/a	n/a	n/a	n/a	n/a	n/a	n/a
12.7568	1.1167	T_INK	4	Incongruent	niebieski	blue	żółty	yellow	hit	n/a
13.8526	n/a	RESPONSE	n/a	n/a	n/a	n/a	n/a	n/a	n/a	yellow
13.8735	0.5167	FEEDBACK	n/a	n/a	n/a	n/a	n/a	n/a	n/a	n/a
14.3902	1.0167	ITI	n/a	n/a	n/a	n/a	n/a	n/a	n/a	n/a
15.4069	0.5167	FIXCROSS	n/a	n/a	n/a	n/a	n/a	n/a	n/a	n/a
15.9235	1.3334	T_INK	5	Neutral	xxxxxxxx	xxxxxxxx	zielony	green	hit	n/a
17.2278	n/a	RESPONSE	n/a	n/a	n/a	n/a	n/a	n/a	n/a	green
17.2569	0.5167	FEEDBACK	n/a	n/a	n/a	n/a	n/a	n/a	n/a	n/a
17.7736	1.0167	ITI	n/a	n/a	n/a	n/a	n/a	n/a	n/a	n/a
18.7902	0.5167	FIXCROSS	n/a	n/a	n/a	n/a	n/a	n/a	n/a	n/a
19.3069	1.2167	T_INK	6	Neutral	xxxxxxx	xxxxxxx	niebieski	blue	hit	n/a
20.491	n/a	RESPONSE	n/a	n/a	n/a	n/a	n/a	n/a	n/a	blue
20.5236	0.5167	FEEDBACK	n/a	n/a	n/a	n/a	n/a	n/a	n/a	n/a
21.0403	1.0167	ITI	n/a	n/a	n/a	n/a	n/a	n/a	n/a	n/a
22.0569	0.5167	FIXCROSS	n/a	n/a	n/a	n/a	n/a	n/a	n/a	n/a
22.5736	0.7667	T_INK	7	Neutral	xxxxx	xxxxx	niebieski	blue	hit	n/a
23.3063	n/a	RESPONSE	n/a	n/a	n/a	n/a	n/a	n/a	n/a	blue
23.3403	0.5167	FEEDBACK	n/a	n/a	n/a	n/a	n/a	n/a	n/a	n/a
23.857	1.0167	ITI	n/a	n/a	n/a	n/a	n/a	n/a	n/a	n/a
24.8736	0.5167	FIXCROSS	n/a	n/a	n/a	n/a	n/a	n/a	n/a	n/a
25.3903	1.1167	T_INK	8	Neutral	xxxxxxxx	xxxxxxxx	niebieski	blue	hit	n/a
26.4736	n/a	RESPONSE	n/a	n/a	n/a	n/a	n/a	n/a	n/a	blue
26.507	0.5167	FEEDBACK	n/a	n/a	n/a	n/a	n/a	n/a	n/a	n/a
27.0237	1.0167	ITI	n/a	n/a	n/a	n/a	n/a	n/a	n/a	n/a
28.0403	0.5167	FIXCROSS	n/a	n/a	n/a	n/a	n/a	n/a	n/a	n/a
28.557	1.1	T_INK	9	Neutral	xxxxxxxxx	xxxxxxxxx	zielony	green	hit	n/a
29.6248	n/a	RESPONSE	n/a	n/a	n/a	n/a	n/a	n/a	n/a	green
29.657	0.5167	FEEDBACK	n/a	n/a	n/a	n/a	n/a	n/a	n/a	n/a
30.1737	1.0167	ITI	n/a	n/a	n/a	n/a	n/a	n/a	n/a	n/a
31.1904	0.5167	FIXCROSS	n/a	n/a	n/a	n/a	n/a	n/a	n/a	n/a
31.7071	0.7833	T_INK	10	Incongruent	żółty	yellow	zielony	green	hit	n/a
32.4561	n/a	RESPONSE	n/a	n/a	n/a	n/a	n/a	n/a	n/a	green
32.4904	0.5167	FEEDBACK	n/a	n/a	n/a	n/a	n/a	n/a	n/a	n/a
33.0071	1.0167	ITI	n/a	n/a	n/a	n/a	n/a	n/a	n/a	n/a
34.0238	0.5167	FIXCROSS	n/a	n/a	n/a	n/a	n/a	n/a	n/a	n/a
34.5404	1.0667	T_INK	11	Incongruent	niebieski	blue	czerwony	red	hit	n/a
35.5754	n/a	RESPONSE	n/a	n/a	n/a	n/a	n/a	n/a	n/a	red
35.6071	0.5167	FEEDBACK	n/a	n/a	n/a	n/a	n/a	n/a	n/a	n/a
36.1238	1.0167	ITI	n/a	n/a	n/a	n/a	n/a	n/a	n/a	n/a
37.1405	0.5167	FIXCROSS	n/a	n/a	n/a	n/a	n/a	n/a	n/a	n/a
37.6571	0.9	T_INK	12	Neutral	xxxxxxxxx	xxxxxxxxx	czerwony	red	hit	n/a
38.5346	n/a	RESPONSE	n/a	n/a	n/a	n/a	n/a	n/a	n/a	red
38.5571	0.5167	FEEDBACK	n/a	n/a	n/a	n/a	n/a	n/a	n/a	n/a
39.0738	1.0333	ITI	n/a	n/a	n/a	n/a	n/a	n/a	n/a	n/a
44.9971	n/a	RESPONSE	n/a	n/a	n/a	n/a	n/a	n/a	n/a	n/a
45.0572	1.0167	ITI	n/a	n/a	n/a	n/a	n/a	n/a	n/a	n/a
46.0739	0.5167	FIXCROSS	n/a	n/a	n/a	n/a	n/a	n/a	n/a	n/a
46.5906	1.1334	INK	1	Neutral	xxxxxxxxx	xxxxxxxxx	zielony	green	hit	n/a
47.7004	n/a	RESPONSE	n/a	n/a	n/a	n/a	n/a	n/a	n/a	green
47.7239	1.0167	ITI	n/a	n/a	n/a	n/a	n/a	n/a	n/a	n/a
48.7406	0.5167	FIXCROSS	n/a	n/a	n/a	n/a	n/a	n/a	n/a	n/a
49.2573	0.9667	INK	2	Incongruent	niebieski	blue	czerwony	red	hit	n/a
50.1958	n/a	RESPONSE	n/a	n/a	n/a	n/a	n/a	n/a	n/a	red
50.2239	1.0167	ITI	n/a	n/a	n/a	n/a	n/a	n/a	n/a	n/a
51.2406	0.5167	FIXCROSS	n/a	n/a	n/a	n/a	n/a	n/a	n/a	n/a
51.7573	0.7833	INK	3	Neutral	xxxxxxxxx	xxxxxxxxx	czerwony	red	hit	n/a
52.5153	n/a	RESPONSE	n/a	n/a	n/a	n/a	n/a	n/a	n/a	red
52.5406	1.0167	ITI	n/a	n/a	n/a	n/a	n/a	n/a	n/a	n/a
53.5573	0.5167	FIXCROSS	n/a	n/a	n/a	n/a	n/a	n/a	n/a	n/a
54.074	1.1833	INK	4	Incongruent	zielony	green	niebieski	blue	hit	n/a
55.2346	n/a	RESPONSE	n/a	n/a	n/a	n/a	n/a	n/a	n/a	blue
55.2573	1.0167	ITI	n/a	n/a	n/a	n/a	n/a	n/a	n/a	n/a
56.274	0.5167	FIXCROSS	n/a	n/a	n/a	n/a	n/a	n/a	n/a	n/a
56.7907	0.85	INK	5	Neutral	xxxxx	xxxxx	czerwony	red	hit	n/a
57.618	n/a	RESPONSE	n/a	n/a	n/a	n/a	n/a	n/a	n/a	red
57.6407	1.0167	ITI	n/a	n/a	n/a	n/a	n/a	n/a	n/a	n/a
58.6574	0.5167	FIXCROSS	n/a	n/a	n/a	n/a	n/a	n/a	n/a	n/a
59.1741	0.7667	INK	6	Neutral	xxxxxxx	xxxxxxx	żółty	yellow	hit	n/a
59.9215	n/a	RESPONSE	n/a	n/a	n/a	n/a	n/a	n/a	n/a	yellow
59.9407	1.0167	ITI	n/a	n/a	n/a	n/a	n/a	n/a	n/a	n/a
60.9574	0.5167	FIXCROSS	n/a	n/a	n/a	n/a	n/a	n/a	n/a	n/a
61.4741	0.7667	INK	7	Incongruent	zielony	green	żółty	yellow	hit	n/a
62.2089	n/a	RESPONSE	n/a	n/a	n/a	n/a	n/a	n/a	n/a	yellow
62.2408	1.0167	ITI	n/a	n/a	n/a	n/a	n/a	n/a	n/a	n/a
63.2574	0.5167	FIXCROSS	n/a	n/a	n/a	n/a	n/a	n/a	n/a	n/a
63.7741	0.5833	INK	8	Incongruent	niebieski	blue	żółty	yellow	hit	n/a
64.3365	n/a	RESPONSE	n/a	n/a	n/a	n/a	n/a	n/a	n/a	yellow
64.3575	1.0167	ITI	n/a	n/a	n/a	n/a	n/a	n/a	n/a	n/a
65.3741	0.5167	FIXCROSS	n/a	n/a	n/a	n/a	n/a	n/a	n/a	n/a
65.8908	0.9667	INK	9	Neutral	xxxxxxx	xxxxxxx	czerwony	red	hit	n/a
66.8318	n/a	RESPONSE	n/a	n/a	n/a	n/a	n/a	n/a	n/a	red
66.8575	1.0167	ITI	n/a	n/a	n/a	n/a	n/a	n/a	n/a	n/a
67.8742	0.5167	FIXCROSS	n/a	n/a	n/a	n/a	n/a	n/a	n/a	n/a
68.3908	0.7667	INK	10	Incongruent	niebieski	blue	czerwony	red	hit	n/a
69.1352	n/a	RESPONSE	n/a	n/a	n/a	n/a	n/a	n/a	n/a	red
69.1575	1.0167	ITI	n/a	n/a	n/a	n/a	n/a	n/a	n/a	n/a
70.1742	0.5167	FIXCROSS	n/a	n/a	n/a	n/a	n/a	n/a	n/a	n/a
70.6909	0.95	INK	11	Neutral	xxxxxxxxx	xxxxxxxxx	zielony	green	hit	n/a
71.6146	n/a	RESPONSE	n/a	n/a	n/a	n/a	n/a	n/a	n/a	green
71.6409	1.0167	ITI	n/a	n/a	n/a	n/a	n/a	n/a	n/a	n/a
72.6576	0.5167	FIXCROSS	n/a	n/a	n/a	n/a	n/a	n/a	n/a	n/a
73.1742	1.0667	INK	12	Incongruent	żółty	yellow	niebieski	blue	hit	n/a
74.222	n/a	RESPONSE	n/a	n/a	n/a	n/a	n/a	n/a	n/a	blue
74.2409	1.0167	ITI	n/a	n/a	n/a	n/a	n/a	n/a	n/a	n/a
75.2576	0.5167	FIXCROSS	n/a	n/a	n/a	n/a	n/a	n/a	n/a	n/a
75.7743	0.9333	INK	13	Incongruent	czerwony	red	niebieski	blue	hit	n/a
76.6854	n/a	RESPONSE	n/a	n/a	n/a	n/a	n/a	n/a	n/a	blue
76.7076	1.0167	ITI	n/a	n/a	n/a	n/a	n/a	n/a	n/a	n/a
77.7243	0.5167	FIXCROSS	n/a	n/a	n/a	n/a	n/a	n/a	n/a	n/a
78.241	0.7333	INK	14	Incongruent	niebieski	blue	żółty	yellow	hit	n/a
78.9409	n/a	RESPONSE	n/a	n/a	n/a	n/a	n/a	n/a	n/a	yellow
78.9743	1.0167	ITI	n/a	n/a	n/a	n/a	n/a	n/a	n/a	n/a
79.991	0.5167	FIXCROSS	n/a	n/a	n/a	n/a	n/a	n/a	n/a	n/a
80.5076	1.05	INK	15	Incongruent	czerwony	red	niebieski	blue	hit	n/a
81.5322	n/a	RESPONSE	n/a	n/a	n/a	n/a	n/a	n/a	n/a	blue
81.5577	1.0167	ITI	n/a	n/a	n/a	n/a	n/a	n/a	n/a	n/a
82.5743	0.5167	FIXCROSS	n/a	n/a	n/a	n/a	n/a	n/a	n/a	n/a
83.091	0.7333	INK	16	Neutral	xxxxxxx	xxxxxxx	niebieski	blue	hit	n/a
83.8037	n/a	RESPONSE	n/a	n/a	n/a	n/a	n/a	n/a	n/a	blue
83.8244	1.0167	ITI	n/a	n/a	n/a	n/a	n/a	n/a	n/a	n/a
84.841	0.5167	FIXCROSS	n/a	n/a	n/a	n/a	n/a	n/a	n/a	n/a
85.3577	1.0334	INK	17	Neutral	xxxxx	xxxxx	zielony	green	hit	n/a
86.3631	n/a	RESPONSE	n/a	n/a	n/a	n/a	n/a	n/a	n/a	green
86.3911	1.0167	ITI	n/a	n/a	n/a	n/a	n/a	n/a	n/a	n/a
87.4077	0.5167	FIXCROSS	n/a	n/a	n/a	n/a	n/a	n/a	n/a	n/a
87.9244	0.9333	INK	18	Incongruent	zielony	green	czerwony	red	hit	n/a
88.8265	n/a	RESPONSE	n/a	n/a	n/a	n/a	n/a	n/a	n/a	red
88.8577	1.0167	ITI	n/a	n/a	n/a	n/a	n/a	n/a	n/a	n/a
89.8744	0.5167	FIXCROSS	n/a	n/a	n/a	n/a	n/a	n/a	n/a	n/a
90.3911	1.0	INK	19	Neutral	xxxxxxxxx	xxxxxxxxx	zielony	green	hit	n/a
91.3698	n/a	RESPONSE	n/a	n/a	n/a	n/a	n/a	n/a	n/a	green
91.3911	1.0167	ITI	n/a	n/a	n/a	n/a	n/a	n/a	n/a	n/a
92.4078	0.5167	FIXCROSS	n/a	n/a	n/a	n/a	n/a	n/a	n/a	n/a
92.9245	0.8833	INK	20	Incongruent	czerwony	red	niebieski	blue	hit	n/a
93.7853	n/a	RESPONSE	n/a	n/a	n/a	n/a	n/a	n/a	n/a	blue
93.8078	1.0167	ITI	n/a	n/a	n/a	n/a	n/a	n/a	n/a	n/a
94.8245	0.5167	FIXCROSS	n/a	n/a	n/a	n/a	n/a	n/a	n/a	n/a
95.3412	0.9833	INK	21	Incongruent	żółty	yellow	zielony	green	hit	n/a
96.2967	n/a	RESPONSE	n/a	n/a	n/a	n/a	n/a	n/a	n/a	green
96.3245	1.0167	ITI	n/a	n/a	n/a	n/a	n/a	n/a	n/a	n/a
97.3412	0.5167	FIXCROSS	n/a	n/a	n/a	n/a	n/a	n/a	n/a	n/a
97.8579	0.6333	INK	22	Neutral	xxxxxxxxx	xxxxxxxxx	żółty	yellow	hit	n/a
98.4722	n/a	RESPONSE	n/a	n/a	n/a	n/a	n/a	n/a	n/a	yellow
98.4912	1.0167	ITI	n/a	n/a	n/a	n/a	n/a	n/a	n/a	n/a
99.5079	0.5167	FIXCROSS	n/a	n/a	n/a	n/a	n/a	n/a	n/a	n/a
100.0245	0.8167	INK	23	Neutral	xxxxxxx	xxxxxxx	czerwony	red	hit	n/a
100.8236	n/a	RESPONSE	n/a	n/a	n/a	n/a	n/a	n/a	n/a	red
100.8412	1.0167	ITI	n/a	n/a	n/a	n/a	n/a	n/a	n/a	n/a
101.8579	0.5167	FIXCROSS	n/a	n/a	n/a	n/a	n/a	n/a	n/a	n/a
102.3746	0.85	INK	24	Neutral	xxxxx	xxxxx	niebieski	blue	hit	n/a
103.191	n/a	RESPONSE	n/a	n/a	n/a	n/a	n/a	n/a	n/a	blue
103.2246	1.0167	ITI	n/a	n/a	n/a	n/a	n/a	n/a	n/a	n/a
104.2413	0.5167	FIXCROSS	n/a	n/a	n/a	n/a	n/a	n/a	n/a	n/a
104.7579	0.9667	INK	25	Incongruent	żółty	yellow	czerwony	red	hit	n/a
105.7024	n/a	RESPONSE	n/a	n/a	n/a	n/a	n/a	n/a	n/a	red
105.7246	1.0167	ITI	n/a	n/a	n/a	n/a	n/a	n/a	n/a	n/a
106.7413	0.5167	FIXCROSS	n/a	n/a	n/a	n/a	n/a	n/a	n/a	n/a
107.258	1.6667	INK	26	Incongruent	żółty	yellow	zielony	green	hit	n/a
108.9016	n/a	RESPONSE	n/a	n/a	n/a	n/a	n/a	n/a	n/a	green
108.9247	1.0167	ITI	n/a	n/a	n/a	n/a	n/a	n/a	n/a	n/a
109.9413	0.5167	FIXCROSS	n/a	n/a	n/a	n/a	n/a	n/a	n/a	n/a
110.458	1.1167	INK	27	Neutral	xxxxxxxx	xxxxxxxx	niebieski	blue	hit	n/a
111.541	n/a	RESPONSE	n/a	n/a	n/a	n/a	n/a	n/a	n/a	blue
111.5747	1.0167	ITI	n/a	n/a	n/a	n/a	n/a	n/a	n/a	n/a
112.5914	0.5167	FIXCROSS	n/a	n/a	n/a	n/a	n/a	n/a	n/a	n/a
113.108	0.7333	INK	28	Neutral	xxxxx	xxxxx	czerwony	red	hit	n/a
113.8124	n/a	RESPONSE	n/a	n/a	n/a	n/a	n/a	n/a	n/a	red
113.8414	1.0167	ITI	n/a	n/a	n/a	n/a	n/a	n/a	n/a	n/a
114.8581	0.5167	FIXCROSS	n/a	n/a	n/a	n/a	n/a	n/a	n/a	n/a
115.3747	0.9833	INK	29	Incongruent	niebieski	blue	zielony	green	hit	n/a
116.3398	n/a	RESPONSE	n/a	n/a	n/a	n/a	n/a	n/a	n/a	green
116.3581	1.0167	ITI	n/a	n/a	n/a	n/a	n/a	n/a	n/a	n/a
117.3748	0.5167	FIXCROSS	n/a	n/a	n/a	n/a	n/a	n/a	n/a	n/a
117.8914	0.4667	INK	30	Neutral	xxxxx	xxxxx	zielony	green	hit	n/a
118.3393	n/a	RESPONSE	n/a	n/a	n/a	n/a	n/a	n/a	n/a	green
118.3581	1.0167	ITI	n/a	n/a	n/a	n/a	n/a	n/a	n/a	n/a
119.3748	0.5167	FIXCROSS	n/a	n/a	n/a	n/a	n/a	n/a	n/a	n/a
119.8914	0.7	INK	31	Incongruent	zielony	green	żółty	yellow	hit	n/a
120.5628	n/a	RESPONSE	n/a	n/a	n/a	n/a	n/a	n/a	n/a	yellow
120.5915	1.0167	ITI	n/a	n/a	n/a	n/a	n/a	n/a	n/a	n/a
121.6081	0.5167	FIXCROSS	n/a	n/a	n/a	n/a	n/a	n/a	n/a	n/a
122.1248	1.0167	INK	32	Incongruent	niebieski	blue	zielony	green	hit	n/a
123.1222	n/a	RESPONSE	n/a	n/a	n/a	n/a	n/a	n/a	n/a	green
123.1415	1.0167	ITI	n/a	n/a	n/a	n/a	n/a	n/a	n/a	n/a
124.1582	0.5167	FIXCROSS	n/a	n/a	n/a	n/a	n/a	n/a	n/a	n/a
124.6748	0.8667	INK	33	Neutral	xxxxxxx	xxxxxxx	niebieski	blue	hit	n/a
125.5216	n/a	RESPONSE	n/a	n/a	n/a	n/a	n/a	n/a	n/a	blue
125.5415	1.0167	ITI	n/a	n/a	n/a	n/a	n/a	n/a	n/a	n/a
126.5582	0.5167	FIXCROSS	n/a	n/a	n/a	n/a	n/a	n/a	n/a	n/a
127.0749	1.0833	INK	34	Incongruent	niebieski	blue	zielony	green	hit	n/a
128.129	n/a	RESPONSE	n/a	n/a	n/a	n/a	n/a	n/a	n/a	green
128.1582	1.0167	ITI	n/a	n/a	n/a	n/a	n/a	n/a	n/a	n/a
129.1749	0.5167	FIXCROSS	n/a	n/a	n/a	n/a	n/a	n/a	n/a	n/a
129.6916	1.7833	INK	35	Incongruent	zielony	green	niebieski	blue	hit	n/a
131.4561	n/a	RESPONSE	n/a	n/a	n/a	n/a	n/a	n/a	n/a	blue
131.4749	1.0167	ITI	n/a	n/a	n/a	n/a	n/a	n/a	n/a	n/a
132.4916	0.5167	FIXCROSS	n/a	n/a	n/a	n/a	n/a	n/a	n/a	n/a
133.0083	0.8333	INK	36	Neutral	xxxxxxxx	xxxxxxxx	niebieski	blue	hit	n/a
133.8076	n/a	RESPONSE	n/a	n/a	n/a	n/a	n/a	n/a	n/a	blue
133.8416	1.0167	ITI	n/a	n/a	n/a	n/a	n/a	n/a	n/a	n/a
134.8583	0.5167	FIXCROSS	n/a	n/a	n/a	n/a	n/a	n/a	n/a	n/a
135.375	0.9833	INK	37	Neutral	xxxxxxxx	xxxxxxxx	żółty	yellow	hit	n/a
136.335	n/a	RESPONSE	n/a	n/a	n/a	n/a	n/a	n/a	n/a	yellow
136.3583	1.0167	ITI	n/a	n/a	n/a	n/a	n/a	n/a	n/a	n/a
137.375	0.5167	FIXCROSS	n/a	n/a	n/a	n/a	n/a	n/a	n/a	n/a
137.8917	0.85	INK	38	Incongruent	zielony	green	czerwony	red	hit	n/a
138.7184	n/a	RESPONSE	n/a	n/a	n/a	n/a	n/a	n/a	n/a	red
138.7417	1.0167	ITI	n/a	n/a	n/a	n/a	n/a	n/a	n/a	n/a
139.7583	0.5167	FIXCROSS	n/a	n/a	n/a	n/a	n/a	n/a	n/a	n/a
140.275	1.7	INK	39	Neutral	xxxxxxxx	xxxxxxxx	zielony	green	hit	n/a
141.9496	n/a	RESPONSE	n/a	n/a	n/a	n/a	n/a	n/a	n/a	green
141.975	1.0167	ITI	n/a	n/a	n/a	n/a	n/a	n/a	n/a	n/a
142.9917	0.5167	FIXCROSS	n/a	n/a	n/a	n/a	n/a	n/a	n/a	n/a
143.5084	0.9	INK	40	Incongruent	żółty	yellow	czerwony	red	hit	n/a
144.381	n/a	RESPONSE	n/a	n/a	n/a	n/a	n/a	n/a	n/a	red
144.4084	1.0167	ITI	n/a	n/a	n/a	n/a	n/a	n/a	n/a	n/a
145.4251	0.5167	FIXCROSS	n/a	n/a	n/a	n/a	n/a	n/a	n/a	n/a
145.9418	0.8333	INK	41	Neutral	xxxxxxxxx	xxxxxxxxx	czerwony	red	hit	n/a
146.7485	n/a	RESPONSE	n/a	n/a	n/a	n/a	n/a	n/a	n/a	red
146.7751	1.0167	ITI	n/a	n/a	n/a	n/a	n/a	n/a	n/a	n/a
147.7918	0.5167	FIXCROSS	n/a	n/a	n/a	n/a	n/a	n/a	n/a	n/a
148.3085	1.5834	INK	42	Neutral	xxxxxxxx	xxxxxxxx	zielony	green	hit	n/a
149.8677	n/a	RESPONSE	n/a	n/a	n/a	n/a	n/a	n/a	n/a	green
149.8918	1.0167	ITI	n/a	n/a	n/a	n/a	n/a	n/a	n/a	n/a
150.9085	0.5167	FIXCROSS	n/a	n/a	n/a	n/a	n/a	n/a	n/a	n/a
151.4252	2.0334	INK	43	Incongruent	zielony	green	czerwony	red	hit	n/a
153.4349	n/a	RESPONSE	n/a	n/a	n/a	n/a	n/a	n/a	n/a	red
153.4585	1.0167	ITI	n/a	n/a	n/a	n/a	n/a	n/a	n/a	n/a
154.4752	0.5167	FIXCROSS	n/a	n/a	n/a	n/a	n/a	n/a	n/a	n/a
154.9919	1.0667	INK	44	Incongruent	czerwony	red	zielony	green	hit	n/a
156.0262	n/a	RESPONSE	n/a	n/a	n/a	n/a	n/a	n/a	n/a	green
156.0586	1.0167	ITI	n/a	n/a	n/a	n/a	n/a	n/a	n/a	n/a
157.0752	0.5167	FIXCROSS	n/a	n/a	n/a	n/a	n/a	n/a	n/a	n/a
157.5919	0.95	INK	45	Incongruent	niebieski	blue	czerwony	red	incorrect	n/a
158.5216	n/a	RESPONSE	n/a	n/a	n/a	n/a	n/a	n/a	n/a	yellow
158.5419	1.0167	ITI	n/a	n/a	n/a	n/a	n/a	n/a	n/a	n/a
159.5586	0.5167	FIXCROSS	n/a	n/a	n/a	n/a	n/a	n/a	n/a	n/a
160.0753	1.3833	INK	46	Incongruent	czerwony	red	zielony	green	hit	n/a
161.4329	n/a	RESPONSE	n/a	n/a	n/a	n/a	n/a	n/a	n/a	green
161.4586	1.0167	ITI	n/a	n/a	n/a	n/a	n/a	n/a	n/a	n/a
162.4753	0.5167	FIXCROSS	n/a	n/a	n/a	n/a	n/a	n/a	n/a	n/a
162.992	0.8833	INK	47	Neutral	xxxxxxxx	xxxxxxxx	żółty	yellow	hit	n/a
163.8483	n/a	RESPONSE	n/a	n/a	n/a	n/a	n/a	n/a	n/a	yellow
163.8753	1.0167	ITI	n/a	n/a	n/a	n/a	n/a	n/a	n/a	n/a
164.892	0.5167	FIXCROSS	n/a	n/a	n/a	n/a	n/a	n/a	n/a	n/a
165.4087	1.0167	INK	48	Incongruent	żółty	yellow	niebieski	blue	hit	n/a
166.3917	n/a	RESPONSE	n/a	n/a	n/a	n/a	n/a	n/a	n/a	blue
166.4253	1.0167	ITI	n/a	n/a	n/a	n/a	n/a	n/a	n/a	n/a
167.442	0.5167	FIXCROSS	n/a	n/a	n/a	n/a	n/a	n/a	n/a	n/a
167.9587	0.8334	INK	49	Neutral	xxxxxxxxx	xxxxxxxxx	żółty	yellow	hit	n/a
168.7591	n/a	RESPONSE	n/a	n/a	n/a	n/a	n/a	n/a	n/a	yellow
168.792	1.0167	ITI	n/a	n/a	n/a	n/a	n/a	n/a	n/a	n/a
169.8087	0.5167	FIXCROSS	n/a	n/a	n/a	n/a	n/a	n/a	n/a	n/a
170.3254	0.8	INK	50	Neutral	xxxxxxx	xxxxxxx	czerwony	red	hit	n/a
171.0946	n/a	RESPONSE	n/a	n/a	n/a	n/a	n/a	n/a	n/a	red
171.1254	1.0167	ITI	n/a	n/a	n/a	n/a	n/a	n/a	n/a	n/a
172.1421	0.5167	FIXCROSS	n/a	n/a	n/a	n/a	n/a	n/a	n/a	n/a
172.6587	0.8	INK	51	Neutral	xxxxxxxxx	xxxxxxxxx	czerwony	red	hit	n/a
173.43	n/a	RESPONSE	n/a	n/a	n/a	n/a	n/a	n/a	n/a	red
173.4588	1.0167	ITI	n/a	n/a	n/a	n/a	n/a	n/a	n/a	n/a
174.4754	0.5167	FIXCROSS	n/a	n/a	n/a	n/a	n/a	n/a	n/a	n/a
174.9921	0.85	INK	52	Incongruent	niebieski	blue	żółty	yellow	hit	n/a
175.8134	n/a	RESPONSE	n/a	n/a	n/a	n/a	n/a	n/a	n/a	yellow
175.8421	1.0167	ITI	n/a	n/a	n/a	n/a	n/a	n/a	n/a	n/a
176.8588	0.5167	FIXCROSS	n/a	n/a	n/a	n/a	n/a	n/a	n/a	n/a
177.3755	1.05	INK	53	Neutral	xxxxxxx	xxxxxxx	żółty	yellow	hit	n/a
178.4048	n/a	RESPONSE	n/a	n/a	n/a	n/a	n/a	n/a	n/a	yellow
178.4255	1.0167	ITI	n/a	n/a	n/a	n/a	n/a	n/a	n/a	n/a
179.4422	0.5167	FIXCROSS	n/a	n/a	n/a	n/a	n/a	n/a	n/a	n/a
179.9588	0.6333	INK	54	Neutral	xxxxxxxx	xxxxxxxx	żółty	yellow	hit	n/a
180.5643	n/a	RESPONSE	n/a	n/a	n/a	n/a	n/a	n/a	n/a	yellow
180.5922	1.0167	ITI	n/a	n/a	n/a	n/a	n/a	n/a	n/a	n/a
181.6088	0.5167	FIXCROSS	n/a	n/a	n/a	n/a	n/a	n/a	n/a	n/a
182.1255	0.8833	INK	55	Incongruent	żółty	yellow	czerwony	red	hit	n/a
182.9797	n/a	RESPONSE	n/a	n/a	n/a	n/a	n/a	n/a	n/a	red
183.0089	1.0167	ITI	n/a	n/a	n/a	n/a	n/a	n/a	n/a	n/a
184.0255	0.5167	FIXCROSS	n/a	n/a	n/a	n/a	n/a	n/a	n/a	n/a
184.5422	1.0167	INK	56	Neutral	xxxxx	xxxxx	niebieski	blue	hit	n/a
185.539	n/a	RESPONSE	n/a	n/a	n/a	n/a	n/a	n/a	n/a	blue
185.5589	1.0167	ITI	n/a	n/a	n/a	n/a	n/a	n/a	n/a	n/a
186.5756	0.5167	FIXCROSS	n/a	n/a	n/a	n/a	n/a	n/a	n/a	n/a
187.0922	0.9	INK	57	Incongruent	czerwony	red	żółty	yellow	hit	n/a
187.9705	n/a	RESPONSE	n/a	n/a	n/a	n/a	n/a	n/a	n/a	yellow
187.9923	1.0167	ITI	n/a	n/a	n/a	n/a	n/a	n/a	n/a	n/a
189.0089	0.5167	FIXCROSS	n/a	n/a	n/a	n/a	n/a	n/a	n/a	n/a
189.5256	0.9667	INK	58	Incongruent	żółty	yellow	niebieski	blue	hit	n/a
190.4659	n/a	RESPONSE	n/a	n/a	n/a	n/a	n/a	n/a	n/a	blue
190.4923	1.0167	ITI	n/a	n/a	n/a	n/a	n/a	n/a	n/a	n/a
191.509	0.5167	FIXCROSS	n/a	n/a	n/a	n/a	n/a	n/a	n/a	n/a
192.0256	1.35	INK	59	Neutral	xxxxxxx	xxxxxxx	niebieski	blue	hit	n/a
193.3452	n/a	RESPONSE	n/a	n/a	n/a	n/a	n/a	n/a	n/a	blue
193.3757	1.0167	ITI	n/a	n/a	n/a	n/a	n/a	n/a	n/a	n/a
194.3923	0.5167	FIXCROSS	n/a	n/a	n/a	n/a	n/a	n/a	n/a	n/a
194.909	1.1	INK	60	Incongruent	czerwony	red	zielony	green	hit	n/a
195.9845	n/a	RESPONSE	n/a	n/a	n/a	n/a	n/a	n/a	n/a	green
196.009	1.0167	ITI	n/a	n/a	n/a	n/a	n/a	n/a	n/a	n/a
197.0257	0.5167	FIXCROSS	n/a	n/a	n/a	n/a	n/a	n/a	n/a	n/a
197.5424	0.85	INK	61	Neutral	xxxxx	xxxxx	czerwony	red	hit	n/a
198.368	n/a	RESPONSE	n/a	n/a	n/a	n/a	n/a	n/a	n/a	red
198.3924	1.0167	ITI	n/a	n/a	n/a	n/a	n/a	n/a	n/a	n/a
199.4091	0.5167	FIXCROSS	n/a	n/a	n/a	n/a	n/a	n/a	n/a	n/a
199.9257	0.7667	INK	62	Neutral	xxxxxxxxx	xxxxxxxxx	żółty	yellow	hit	n/a
200.6714	n/a	RESPONSE	n/a	n/a	n/a	n/a	n/a	n/a	n/a	yellow
200.6924	1.0167	ITI	n/a	n/a	n/a	n/a	n/a	n/a	n/a	n/a
201.7091	0.5167	FIXCROSS	n/a	n/a	n/a	n/a	n/a	n/a	n/a	n/a
202.2258	1.1834	INK	63	Neutral	xxxxxxxx	xxxxxxxx	zielony	green	hit	n/a
203.3908	n/a	RESPONSE	n/a	n/a	n/a	n/a	n/a	n/a	n/a	green
203.4091	1.0167	ITI	n/a	n/a	n/a	n/a	n/a	n/a	n/a	n/a
204.4258	0.5167	FIXCROSS	n/a	n/a	n/a	n/a	n/a	n/a	n/a	n/a
204.9425	1.05	INK	64	Neutral	xxxxx	xxxxx	niebieski	blue	hit	n/a
205.9662	n/a	RESPONSE	n/a	n/a	n/a	n/a	n/a	n/a	n/a	blue
205.9925	1.0167	ITI	n/a	n/a	n/a	n/a	n/a	n/a	n/a	n/a
207.0091	0.5167	FIXCROSS	n/a	n/a	n/a	n/a	n/a	n/a	n/a	n/a
207.5258	1.15	INK	65	Incongruent	zielony	green	niebieski	blue	hit	n/a
208.6535	n/a	RESPONSE	n/a	n/a	n/a	n/a	n/a	n/a	n/a	blue
208.6758	1.0167	ITI	n/a	n/a	n/a	n/a	n/a	n/a	n/a	n/a
209.6925	0.5167	FIXCROSS	n/a	n/a	n/a	n/a	n/a	n/a	n/a	n/a
210.2092	0.9333	INK	66	Neutral	xxxxx	xxxxx	zielony	green	hit	n/a
211.1169	n/a	RESPONSE	n/a	n/a	n/a	n/a	n/a	n/a	n/a	green
211.1425	1.0167	ITI	n/a	n/a	n/a	n/a	n/a	n/a	n/a	n/a
212.1592	0.5167	FIXCROSS	n/a	n/a	n/a	n/a	n/a	n/a	n/a	n/a
212.6759	1.2833	INK	67	Incongruent	czerwony	red	żółty	yellow	hit	n/a
213.9322	n/a	RESPONSE	n/a	n/a	n/a	n/a	n/a	n/a	n/a	yellow
213.9592	1.0167	ITI	n/a	n/a	n/a	n/a	n/a	n/a	n/a	n/a
214.9759	0.5167	FIXCROSS	n/a	n/a	n/a	n/a	n/a	n/a	n/a	n/a
215.4926	0.9334	INK	68	Incongruent	zielony	green	żółty	yellow	hit	n/a
216.3956	n/a	RESPONSE	n/a	n/a	n/a	n/a	n/a	n/a	n/a	yellow
216.4259	1.0167	ITI	n/a	n/a	n/a	n/a	n/a	n/a	n/a	n/a
217.4426	0.5167	FIXCROSS	n/a	n/a	n/a	n/a	n/a	n/a	n/a	n/a
217.9593	1.2	INK	69	Neutral	xxxxxxxx	xxxxxxxx	niebieski	blue	hit	n/a
219.1309	n/a	RESPONSE	n/a	n/a	n/a	n/a	n/a	n/a	n/a	blue
219.1593	1.0167	ITI	n/a	n/a	n/a	n/a	n/a	n/a	n/a	n/a
220.176	0.5167	FIXCROSS	n/a	n/a	n/a	n/a	n/a	n/a	n/a	n/a
220.6926	0.8334	INK	70	Incongruent	żółty	yellow	zielony	green	hit	n/a
221.4983	n/a	RESPONSE	n/a	n/a	n/a	n/a	n/a	n/a	n/a	green
221.526	1.0167	ITI	n/a	n/a	n/a	n/a	n/a	n/a	n/a	n/a
222.5427	0.5167	FIXCROSS	n/a	n/a	n/a	n/a	n/a	n/a	n/a	n/a
223.0593	0.7	INK	71	Incongruent	czerwony	red	żółty	yellow	hit	n/a
223.7378	n/a	RESPONSE	n/a	n/a	n/a	n/a	n/a	n/a	n/a	yellow
223.7593	1.0167	ITI	n/a	n/a	n/a	n/a	n/a	n/a	n/a	n/a
224.776	0.5167	FIXCROSS	n/a	n/a	n/a	n/a	n/a	n/a	n/a	n/a
225.2927	0.5333	INK	72	Neutral	xxxxxxx	xxxxxxx	żółty	yellow	hit	n/a
225.8013	n/a	RESPONSE	n/a	n/a	n/a	n/a	n/a	n/a	n/a	yellow
225.826	1.0833	ITI	n/a	n/a	n/a	n/a	n/a	n/a	n/a	n/a
232.3278	n/a	RESPONSE	n/a	n/a	n/a	n/a	n/a	n/a	n/a	n/a
232.3928	1.0167	ITI	n/a	n/a	n/a	n/a	n/a	n/a	n/a	n/a
233.4095	0.5167	FIXCROSS	n/a	n/a	n/a	n/a	n/a	n/a	n/a	n/a
233.9261	1.3834	T_COLOR_NAME	1	Incongruent	zielony	green	czerwony	red	hit	n/a
235.271	n/a	RESPONSE	n/a	n/a	n/a	n/a	n/a	n/a	n/a	green
235.3095	0.5167	FEEDBACK	n/a	n/a	n/a	n/a	n/a	n/a	n/a	n/a
235.8262	1.0167	ITI	n/a	n/a	n/a	n/a	n/a	n/a	n/a	n/a
236.8428	0.5167	FIXCROSS	n/a	n/a	n/a	n/a	n/a	n/a	n/a	n/a
237.3595	1.45	T_COLOR_NAME	2	Neutral	żółty	yellow	Neutral	Neutral	hit	n/a
238.7742	n/a	RESPONSE	n/a	n/a	n/a	n/a	n/a	n/a	n/a	yellow
238.8095	0.5167	FEEDBACK	n/a	n/a	n/a	n/a	n/a	n/a	n/a	n/a
239.3262	1.0167	ITI	n/a	n/a	n/a	n/a	n/a	n/a	n/a	n/a
240.3429	0.5167	FIXCROSS	n/a	n/a	n/a	n/a	n/a	n/a	n/a	n/a
240.8596	0.9333	T_COLOR_NAME	3	Neutral	niebieski	blue	Neutral	Neutral	hit	n/a
241.7655	n/a	RESPONSE	n/a	n/a	n/a	n/a	n/a	n/a	n/a	blue
241.7929	0.5167	FEEDBACK	n/a	n/a	n/a	n/a	n/a	n/a	n/a	n/a
242.3096	1.0167	ITI	n/a	n/a	n/a	n/a	n/a	n/a	n/a	n/a
243.3262	0.5167	FIXCROSS	n/a	n/a	n/a	n/a	n/a	n/a	n/a	n/a
243.8429	1.1834	T_COLOR_NAME	4	Incongruent	niebieski	blue	czerwony	red	hit	n/a
244.9967	n/a	RESPONSE	n/a	n/a	n/a	n/a	n/a	n/a	n/a	blue
245.0263	0.5167	FEEDBACK	n/a	n/a	n/a	n/a	n/a	n/a	n/a	n/a
245.5429	1.0167	ITI	n/a	n/a	n/a	n/a	n/a	n/a	n/a	n/a
246.5596	0.5167	FIXCROSS	n/a	n/a	n/a	n/a	n/a	n/a	n/a	n/a
247.0763	1.1333	T_COLOR_NAME	5	Incongruent	niebieski	blue	żółty	yellow	hit	n/a
248.1799	n/a	RESPONSE	n/a	n/a	n/a	n/a	n/a	n/a	n/a	blue
248.2096	0.5167	FEEDBACK	n/a	n/a	n/a	n/a	n/a	n/a	n/a	n/a
248.7263	1.0167	ITI	n/a	n/a	n/a	n/a	n/a	n/a	n/a	n/a
249.743	0.5167	FIXCROSS	n/a	n/a	n/a	n/a	n/a	n/a	n/a	n/a
250.2597	0.6	T_COLOR_NAME	6	Neutral	niebieski	blue	Neutral	Neutral	hit	n/a
250.8353	n/a	RESPONSE	n/a	n/a	n/a	n/a	n/a	n/a	n/a	blue
250.8597	0.5167	FEEDBACK	n/a	n/a	n/a	n/a	n/a	n/a	n/a	n/a
251.3763	1.0167	ITI	n/a	n/a	n/a	n/a	n/a	n/a	n/a	n/a
252.393	0.5167	FIXCROSS	n/a	n/a	n/a	n/a	n/a	n/a	n/a	n/a
252.9097	1.4834	T_COLOR_NAME	7	Incongruent	czerwony	red	żółty	yellow	hit	n/a
254.3704	n/a	RESPONSE	n/a	n/a	n/a	n/a	n/a	n/a	n/a	red
254.393	0.5167	FEEDBACK	n/a	n/a	n/a	n/a	n/a	n/a	n/a	n/a
254.9097	1.0167	ITI	n/a	n/a	n/a	n/a	n/a	n/a	n/a	n/a
255.9264	0.5167	FIXCROSS	n/a	n/a	n/a	n/a	n/a	n/a	n/a	n/a
256.4431	1.3834	T_COLOR_NAME	8	Incongruent	żółty	yellow	niebieski	blue	hit	n/a
257.7936	n/a	RESPONSE	n/a	n/a	n/a	n/a	n/a	n/a	n/a	yellow
257.8264	0.5167	FEEDBACK	n/a	n/a	n/a	n/a	n/a	n/a	n/a	n/a
258.3431	1.0167	ITI	n/a	n/a	n/a	n/a	n/a	n/a	n/a	n/a
259.3598	0.5167	FIXCROSS	n/a	n/a	n/a	n/a	n/a	n/a	n/a	n/a
259.8764	1.1833	T_COLOR_NAME	9	Neutral	zielony	green	Neutral	Neutral	hit	n/a
261.0408	n/a	RESPONSE	n/a	n/a	n/a	n/a	n/a	n/a	n/a	green
261.0598	0.5167	FEEDBACK	n/a	n/a	n/a	n/a	n/a	n/a	n/a	n/a
261.5765	1.0167	ITI	n/a	n/a	n/a	n/a	n/a	n/a	n/a	n/a
262.5931	0.5167	FIXCROSS	n/a	n/a	n/a	n/a	n/a	n/a	n/a	n/a
263.1098	1.0167	T_COLOR_NAME	10	Incongruent	żółty	yellow	zielony	green	hit	n/a
264.096	n/a	RESPONSE	n/a	n/a	n/a	n/a	n/a	n/a	n/a	yellow
264.1265	0.5167	FEEDBACK	n/a	n/a	n/a	n/a	n/a	n/a	n/a	n/a
264.6432	1.0167	ITI	n/a	n/a	n/a	n/a	n/a	n/a	n/a	n/a
265.6598	0.5167	FIXCROSS	n/a	n/a	n/a	n/a	n/a	n/a	n/a	n/a
266.1765	1.3833	T_COLOR_NAME	11	Neutral	czerwony	red	Neutral	Neutral	hit	n/a
267.5352	n/a	RESPONSE	n/a	n/a	n/a	n/a	n/a	n/a	n/a	red
267.5599	0.5167	FEEDBACK	n/a	n/a	n/a	n/a	n/a	n/a	n/a	n/a
268.0765	1.0167	ITI	n/a	n/a	n/a	n/a	n/a	n/a	n/a	n/a
269.0932	0.5167	FIXCROSS	n/a	n/a	n/a	n/a	n/a	n/a	n/a	n/a
269.6099	1.15	T_COLOR_NAME	12	Neutral	czerwony	red	Neutral	Neutral	hit	n/a
270.7345	n/a	RESPONSE	n/a	n/a	n/a	n/a	n/a	n/a	n/a	red
270.7599	0.5167	FEEDBACK	n/a	n/a	n/a	n/a	n/a	n/a	n/a	n/a
271.2766	1.0333	ITI	n/a	n/a	n/a	n/a	n/a	n/a	n/a	n/a
274.1416	n/a	RESPONSE	n/a	n/a	n/a	n/a	n/a	n/a	n/a	n/a
274.1933	1.0167	ITI	n/a	n/a	n/a	n/a	n/a	n/a	n/a	n/a
275.21	0.5167	FIXCROSS	n/a	n/a	n/a	n/a	n/a	n/a	n/a	n/a
275.7266	1.7167	COLOR_NAME	1	Incongruent	zielony	green	żółty	yellow	hit	n/a
277.4208	n/a	RESPONSE	n/a	n/a	n/a	n/a	n/a	n/a	n/a	green
277.4433	1.0167	ITI	n/a	n/a	n/a	n/a	n/a	n/a	n/a	n/a
278.46	0.5167	FIXCROSS	n/a	n/a	n/a	n/a	n/a	n/a	n/a	n/a
278.9767	1.4834	COLOR_NAME	2	Incongruent	żółty	yellow	zielony	green	hit	n/a
280.4281	n/a	RESPONSE	n/a	n/a	n/a	n/a	n/a	n/a	n/a	yellow
280.46	1.0167	ITI	n/a	n/a	n/a	n/a	n/a	n/a	n/a	n/a
281.4767	0.5167	FIXCROSS	n/a	n/a	n/a	n/a	n/a	n/a	n/a	n/a
281.9934	0.7833	COLOR_NAME	3	Incongruent	żółty	yellow	czerwony	red	incorrect	n/a
282.7476	n/a	RESPONSE	n/a	n/a	n/a	n/a	n/a	n/a	n/a	red
282.7767	1.0167	ITI	n/a	n/a	n/a	n/a	n/a	n/a	n/a	n/a
283.7934	0.5167	FIXCROSS	n/a	n/a	n/a	n/a	n/a	n/a	n/a	n/a
284.3101	0.9333	COLOR_NAME	4	Neutral	czerwony	red	Neutral	Neutral	hit	n/a
285.2109	n/a	RESPONSE	n/a	n/a	n/a	n/a	n/a	n/a	n/a	red
285.2434	1.0167	ITI	n/a	n/a	n/a	n/a	n/a	n/a	n/a	n/a
286.2601	0.5167	FIXCROSS	n/a	n/a	n/a	n/a	n/a	n/a	n/a	n/a
286.7768	1.7667	COLOR_NAME	5	Incongruent	zielony	green	żółty	yellow	hit	n/a
288.5222	n/a	RESPONSE	n/a	n/a	n/a	n/a	n/a	n/a	n/a	green
288.5434	1.0167	ITI	n/a	n/a	n/a	n/a	n/a	n/a	n/a	n/a
289.5601	0.5167	FIXCROSS	n/a	n/a	n/a	n/a	n/a	n/a	n/a	n/a
290.0768	1.15	COLOR_NAME	6	Neutral	zielony	green	Neutral	Neutral	hit	n/a
291.1935	n/a	RESPONSE	n/a	n/a	n/a	n/a	n/a	n/a	n/a	green
291.2268	1.0167	ITI	n/a	n/a	n/a	n/a	n/a	n/a	n/a	n/a
292.2435	0.5167	FIXCROSS	n/a	n/a	n/a	n/a	n/a	n/a	n/a	n/a
292.7602	1.2667	COLOR_NAME	7	Incongruent	żółty	yellow	niebieski	blue	hit	n/a
293.9929	n/a	RESPONSE	n/a	n/a	n/a	n/a	n/a	n/a	n/a	yellow
294.0268	1.0167	ITI	n/a	n/a	n/a	n/a	n/a	n/a	n/a	n/a
295.0435	0.5167	FIXCROSS	n/a	n/a	n/a	n/a	n/a	n/a	n/a	n/a
295.5602	1.6833	COLOR_NAME	8	Incongruent	niebieski	blue	czerwony	red	hit	n/a
297.2241	n/a	RESPONSE	n/a	n/a	n/a	n/a	n/a	n/a	n/a	blue
297.2435	1.0167	ITI	n/a	n/a	n/a	n/a	n/a	n/a	n/a	n/a
298.2602	0.5167	FIXCROSS	n/a	n/a	n/a	n/a	n/a	n/a	n/a	n/a
298.7769	1.3167	COLOR_NAME	9	Neutral	zielony	green	Neutral	Neutral	hit	n/a
300.0713	n/a	RESPONSE	n/a	n/a	n/a	n/a	n/a	n/a	n/a	green
300.0936	1.0167	ITI	n/a	n/a	n/a	n/a	n/a	n/a	n/a	n/a
301.1103	0.5167	FIXCROSS	n/a	n/a	n/a	n/a	n/a	n/a	n/a	n/a
301.6269	2.0334	COLOR_NAME	10	Incongruent	czerwony	red	niebieski	blue	hit	n/a
303.6385	n/a	RESPONSE	n/a	n/a	n/a	n/a	n/a	n/a	n/a	red
303.6603	1.0167	ITI	n/a	n/a	n/a	n/a	n/a	n/a	n/a	n/a
304.677	0.5167	FIXCROSS	n/a	n/a	n/a	n/a	n/a	n/a	n/a	n/a
305.1936	1.5	COLOR_NAME	11	Incongruent	niebieski	blue	żółty	yellow	hit	n/a
306.6618	n/a	RESPONSE	n/a	n/a	n/a	n/a	n/a	n/a	n/a	blue
306.6937	1.0167	ITI	n/a	n/a	n/a	n/a	n/a	n/a	n/a	n/a
307.7103	0.5167	FIXCROSS	n/a	n/a	n/a	n/a	n/a	n/a	n/a	n/a
308.227	2.3167	COLOR_NAME	12	Neutral	żółty	yellow	Neutral	Neutral	hit	n/a
310.5168	n/a	RESPONSE	n/a	n/a	n/a	n/a	n/a	n/a	n/a	yellow
310.5437	1.0167	ITI	n/a	n/a	n/a	n/a	n/a	n/a	n/a	n/a
311.5604	0.5167	FIXCROSS	n/a	n/a	n/a	n/a	n/a	n/a	n/a	n/a
312.077	1.9	COLOR_NAME	13	Incongruent	żółty	yellow	niebieski	blue	hit	n/a
313.956	n/a	RESPONSE	n/a	n/a	n/a	n/a	n/a	n/a	n/a	yellow
313.9771	1.0167	ITI	n/a	n/a	n/a	n/a	n/a	n/a	n/a	n/a
314.9938	0.5167	FIXCROSS	n/a	n/a	n/a	n/a	n/a	n/a	n/a	n/a
315.5104	1.65	COLOR_NAME	14	Incongruent	niebieski	blue	zielony	green	hit	n/a
317.1392	n/a	RESPONSE	n/a	n/a	n/a	n/a	n/a	n/a	n/a	blue
317.1604	1.0167	ITI	n/a	n/a	n/a	n/a	n/a	n/a	n/a	n/a
318.1771	0.5167	FIXCROSS	n/a	n/a	n/a	n/a	n/a	n/a	n/a	n/a
318.6938	1.2834	COLOR_NAME	15	Neutral	zielony	green	Neutral	Neutral	hit	n/a
319.9546	n/a	RESPONSE	n/a	n/a	n/a	n/a	n/a	n/a	n/a	green
319.9771	1.0167	ITI	n/a	n/a	n/a	n/a	n/a	n/a	n/a	n/a
320.9938	0.5167	FIXCROSS	n/a	n/a	n/a	n/a	n/a	n/a	n/a	n/a
321.5105	1.2834	COLOR_NAME	16	Neutral	żółty	yellow	Neutral	Neutral	hit	n/a
322.7699	n/a	RESPONSE	n/a	n/a	n/a	n/a	n/a	n/a	n/a	yellow
322.7938	1.0167	ITI	n/a	n/a	n/a	n/a	n/a	n/a	n/a	n/a
323.8105	0.5167	FIXCROSS	n/a	n/a	n/a	n/a	n/a	n/a	n/a	n/a
324.3272	2.0667	COLOR_NAME	17	Incongruent	czerwony	red	niebieski	blue	hit	n/a
326.369	n/a	RESPONSE	n/a	n/a	n/a	n/a	n/a	n/a	n/a	red
326.3939	1.0167	ITI	n/a	n/a	n/a	n/a	n/a	n/a	n/a	n/a
327.4106	0.5167	FIXCROSS	n/a	n/a	n/a	n/a	n/a	n/a	n/a	n/a
327.9272	1.0167	COLOR_NAME	18	Neutral	czerwony	red	Neutral	Neutral	hit	n/a
328.9124	n/a	RESPONSE	n/a	n/a	n/a	n/a	n/a	n/a	n/a	red
328.9439	1.0167	ITI	n/a	n/a	n/a	n/a	n/a	n/a	n/a	n/a
329.9606	0.5167	FIXCROSS	n/a	n/a	n/a	n/a	n/a	n/a	n/a	n/a
330.4773	1.0333	COLOR_NAME	19	Neutral	zielony	green	Neutral	Neutral	hit	n/a
331.4878	n/a	RESPONSE	n/a	n/a	n/a	n/a	n/a	n/a	n/a	green
331.5106	1.0167	ITI	n/a	n/a	n/a	n/a	n/a	n/a	n/a	n/a
332.5273	0.5167	FIXCROSS	n/a	n/a	n/a	n/a	n/a	n/a	n/a	n/a
333.044	1.9167	COLOR_NAME	20	Incongruent	zielony	green	niebieski	blue	hit	n/a
334.927	n/a	RESPONSE	n/a	n/a	n/a	n/a	n/a	n/a	n/a	green
334.9607	1.0167	ITI	n/a	n/a	n/a	n/a	n/a	n/a	n/a	n/a
335.9773	0.5167	FIXCROSS	n/a	n/a	n/a	n/a	n/a	n/a	n/a	n/a
336.494	0.8167	COLOR_NAME	21	Neutral	żółty	yellow	Neutral	Neutral	hit	n/a
337.2784	n/a	RESPONSE	n/a	n/a	n/a	n/a	n/a	n/a	n/a	yellow
337.3107	1.0167	ITI	n/a	n/a	n/a	n/a	n/a	n/a	n/a	n/a
338.3274	0.5167	FIXCROSS	n/a	n/a	n/a	n/a	n/a	n/a	n/a	n/a
338.844	0.9333	COLOR_NAME	22	Incongruent	czerwony	red	zielony	green	hit	n/a
339.7578	n/a	RESPONSE	n/a	n/a	n/a	n/a	n/a	n/a	n/a	red
339.7774	1.0167	ITI	n/a	n/a	n/a	n/a	n/a	n/a	n/a	n/a
340.7941	0.5167	FIXCROSS	n/a	n/a	n/a	n/a	n/a	n/a	n/a	n/a
341.3107	1.3833	COLOR_NAME	23	Neutral	niebieski	blue	Neutral	Neutral	hit	n/a
342.669	n/a	RESPONSE	n/a	n/a	n/a	n/a	n/a	n/a	n/a	blue
342.6941	1.0167	ITI	n/a	n/a	n/a	n/a	n/a	n/a	n/a	n/a
343.7108	0.5167	FIXCROSS	n/a	n/a	n/a	n/a	n/a	n/a	n/a	n/a
344.2274	1.1667	COLOR_NAME	24	Incongruent	niebieski	blue	zielony	green	hit	n/a
345.3724	n/a	RESPONSE	n/a	n/a	n/a	n/a	n/a	n/a	n/a	blue
345.3941	1.0167	ITI	n/a	n/a	n/a	n/a	n/a	n/a	n/a	n/a
346.4108	0.5167	FIXCROSS	n/a	n/a	n/a	n/a	n/a	n/a	n/a	n/a
346.9275	0.9167	COLOR_NAME	25	Neutral	żółty	yellow	Neutral	Neutral	hit	n/a
347.8198	n/a	RESPONSE	n/a	n/a	n/a	n/a	n/a	n/a	n/a	yellow
347.8441	1.0167	ITI	n/a	n/a	n/a	n/a	n/a	n/a	n/a	n/a
348.8608	0.5167	FIXCROSS	n/a	n/a	n/a	n/a	n/a	n/a	n/a	n/a
349.3775	0.7667	COLOR_NAME	26	Neutral	żółty	yellow	Neutral	Neutral	hit	n/a
350.1233	n/a	RESPONSE	n/a	n/a	n/a	n/a	n/a	n/a	n/a	yellow
350.1442	1.0167	ITI	n/a	n/a	n/a	n/a	n/a	n/a	n/a	n/a
351.1608	0.5167	FIXCROSS	n/a	n/a	n/a	n/a	n/a	n/a	n/a	n/a
351.6775	1.0667	COLOR_NAME	27	Neutral	zielony	green	Neutral	Neutral	hit	n/a
352.7146	n/a	RESPONSE	n/a	n/a	n/a	n/a	n/a	n/a	n/a	green
352.7442	1.0167	ITI	n/a	n/a	n/a	n/a	n/a	n/a	n/a	n/a
353.7609	0.5167	FIXCROSS	n/a	n/a	n/a	n/a	n/a	n/a	n/a	n/a
354.2776	0.9333	COLOR_NAME	28	Incongruent	żółty	yellow	zielony	green	hit	n/a
355.178	n/a	RESPONSE	n/a	n/a	n/a	n/a	n/a	n/a	n/a	yellow
355.2109	1.0167	ITI	n/a	n/a	n/a	n/a	n/a	n/a	n/a	n/a
356.2276	0.5167	FIXCROSS	n/a	n/a	n/a	n/a	n/a	n/a	n/a	n/a
356.7442	1.0167	COLOR_NAME	29	Neutral	czerwony	red	Neutral	Neutral	hit	n/a
357.7374	n/a	RESPONSE	n/a	n/a	n/a	n/a	n/a	n/a	n/a	red
357.7609	1.0167	ITI	n/a	n/a	n/a	n/a	n/a	n/a	n/a	n/a
358.7776	0.5167	FIXCROSS	n/a	n/a	n/a	n/a	n/a	n/a	n/a	n/a
359.2943	1.15	COLOR_NAME	30	Neutral	czerwony	red	Neutral	Neutral	hit	n/a
360.4248	n/a	RESPONSE	n/a	n/a	n/a	n/a	n/a	n/a	n/a	red
360.4443	1.0167	ITI	n/a	n/a	n/a	n/a	n/a	n/a	n/a	n/a
361.461	0.5167	FIXCROSS	n/a	n/a	n/a	n/a	n/a	n/a	n/a	n/a
361.9776	0.8333	COLOR_NAME	31	Neutral	żółty	yellow	Neutral	Neutral	hit	n/a
362.7922	n/a	RESPONSE	n/a	n/a	n/a	n/a	n/a	n/a	n/a	yellow
362.811	1.0167	ITI	n/a	n/a	n/a	n/a	n/a	n/a	n/a	n/a
363.8277	0.5167	FIXCROSS	n/a	n/a	n/a	n/a	n/a	n/a	n/a	n/a
364.3443	0.95	COLOR_NAME	32	Neutral	zielony	green	Neutral	Neutral	hit	n/a
365.2716	n/a	RESPONSE	n/a	n/a	n/a	n/a	n/a	n/a	n/a	green
365.2944	1.0167	ITI	n/a	n/a	n/a	n/a	n/a	n/a	n/a	n/a
366.311	0.5167	FIXCROSS	n/a	n/a	n/a	n/a	n/a	n/a	n/a	n/a
366.8277	0.8167	COLOR_NAME	33	Neutral	zielony	green	Neutral	Neutral	hit	n/a
367.6231	n/a	RESPONSE	n/a	n/a	n/a	n/a	n/a	n/a	n/a	green
367.6444	1.0167	ITI	n/a	n/a	n/a	n/a	n/a	n/a	n/a	n/a
368.6611	0.5167	FIXCROSS	n/a	n/a	n/a	n/a	n/a	n/a	n/a	n/a
369.1777	1.0667	COLOR_NAME	34	Neutral	niebieski	blue	Neutral	Neutral	hit	n/a
370.2144	n/a	RESPONSE	n/a	n/a	n/a	n/a	n/a	n/a	n/a	blue
370.2444	1.0167	ITI	n/a	n/a	n/a	n/a	n/a	n/a	n/a	n/a
371.2611	0.5167	FIXCROSS	n/a	n/a	n/a	n/a	n/a	n/a	n/a	n/a
371.7778	0.7833	COLOR_NAME	35	Neutral	czerwony	red	Neutral	Neutral	hit	n/a
372.5338	n/a	RESPONSE	n/a	n/a	n/a	n/a	n/a	n/a	n/a	red
372.5611	1.0167	ITI	n/a	n/a	n/a	n/a	n/a	n/a	n/a	n/a
373.5778	0.5167	FIXCROSS	n/a	n/a	n/a	n/a	n/a	n/a	n/a	n/a
374.0944	1.3834	COLOR_NAME	36	Incongruent	żółty	yellow	czerwony	red	hit	n/a
375.4452	n/a	RESPONSE	n/a	n/a	n/a	n/a	n/a	n/a	n/a	yellow
375.4778	1.0167	ITI	n/a	n/a	n/a	n/a	n/a	n/a	n/a	n/a
376.4945	0.5167	FIXCROSS	n/a	n/a	n/a	n/a	n/a	n/a	n/a	n/a
377.0112	0.8833	COLOR_NAME	37	Incongruent	czerwony	red	żółty	yellow	hit	n/a
377.8766	n/a	RESPONSE	n/a	n/a	n/a	n/a	n/a	n/a	n/a	red
377.8945	1.0167	ITI	n/a	n/a	n/a	n/a	n/a	n/a	n/a	n/a
378.9112	0.5167	FIXCROSS	n/a	n/a	n/a	n/a	n/a	n/a	n/a	n/a
379.4279	0.9833	COLOR_NAME	38	Neutral	niebieski	blue	Neutral	Neutral	hit	n/a
380.3879	n/a	RESPONSE	n/a	n/a	n/a	n/a	n/a	n/a	n/a	blue
380.4112	1.0167	ITI	n/a	n/a	n/a	n/a	n/a	n/a	n/a	n/a
381.4279	0.5167	FIXCROSS	n/a	n/a	n/a	n/a	n/a	n/a	n/a	n/a
381.9445	0.95	COLOR_NAME	39	Neutral	niebieski	blue	Neutral	Neutral	hit	n/a
382.8673	n/a	RESPONSE	n/a	n/a	n/a	n/a	n/a	n/a	n/a	blue
382.8946	1.0167	ITI	n/a	n/a	n/a	n/a	n/a	n/a	n/a	n/a
383.9112	0.5167	FIXCROSS	n/a	n/a	n/a	n/a	n/a	n/a	n/a	n/a
384.4279	0.6167	COLOR_NAME	40	Neutral	niebieski	blue	Neutral	Neutral	hit	n/a
385.0268	n/a	RESPONSE	n/a	n/a	n/a	n/a	n/a	n/a	n/a	blue
385.0446	1.0167	ITI	n/a	n/a	n/a	n/a	n/a	n/a	n/a	n/a
386.0613	0.5167	FIXCROSS	n/a	n/a	n/a	n/a	n/a	n/a	n/a	n/a
386.5779	0.65	COLOR_NAME	41	Incongruent	niebieski	blue	zielony	green	hit	n/a
387.2023	n/a	RESPONSE	n/a	n/a	n/a	n/a	n/a	n/a	n/a	blue
387.2279	1.0167	ITI	n/a	n/a	n/a	n/a	n/a	n/a	n/a	n/a
388.2446	0.5167	FIXCROSS	n/a	n/a	n/a	n/a	n/a	n/a	n/a	n/a
388.7613	1.5333	COLOR_NAME	42	Incongruent	zielony	green	żółty	yellow	hit	n/a
390.2736	n/a	RESPONSE	n/a	n/a	n/a	n/a	n/a	n/a	n/a	green
390.2946	1.0167	ITI	n/a	n/a	n/a	n/a	n/a	n/a	n/a	n/a
391.3113	0.5167	FIXCROSS	n/a	n/a	n/a	n/a	n/a	n/a	n/a	n/a
391.828	0.9	COLOR_NAME	43	Neutral	czerwony	red	Neutral	Neutral	hit	n/a
392.705	n/a	RESPONSE	n/a	n/a	n/a	n/a	n/a	n/a	n/a	red
392.728	1.0167	ITI	n/a	n/a	n/a	n/a	n/a	n/a	n/a	n/a
393.7447	0.5167	FIXCROSS	n/a	n/a	n/a	n/a	n/a	n/a	n/a	n/a
394.2613	1.7667	COLOR_NAME	44	Incongruent	niebieski	blue	czerwony	red	hit	n/a
396.0002	n/a	RESPONSE	n/a	n/a	n/a	n/a	n/a	n/a	n/a	blue
396.028	1.0167	ITI	n/a	n/a	n/a	n/a	n/a	n/a	n/a	n/a
397.0447	0.5167	FIXCROSS	n/a	n/a	n/a	n/a	n/a	n/a	n/a	n/a
397.5614	1.0667	COLOR_NAME	45	Incongruent	zielony	green	czerwony	red	hit	n/a
398.6075	n/a	RESPONSE	n/a	n/a	n/a	n/a	n/a	n/a	n/a	green
398.6281	1.0167	ITI	n/a	n/a	n/a	n/a	n/a	n/a	n/a	n/a
399.6448	0.5167	FIXCROSS	n/a	n/a	n/a	n/a	n/a	n/a	n/a	n/a
400.1614	1.3834	COLOR_NAME	46	Incongruent	żółty	yellow	niebieski	blue	hit	n/a
401.5189	n/a	RESPONSE	n/a	n/a	n/a	n/a	n/a	n/a	n/a	yellow
401.5448	1.0167	ITI	n/a	n/a	n/a	n/a	n/a	n/a	n/a	n/a
402.5615	0.5167	FIXCROSS	n/a	n/a	n/a	n/a	n/a	n/a	n/a	n/a
403.0781	0.9	COLOR_NAME	47	Neutral	czerwony	red	Neutral	Neutral	hit	n/a
403.9502	n/a	RESPONSE	n/a	n/a	n/a	n/a	n/a	n/a	n/a	red
403.9781	1.0167	ITI	n/a	n/a	n/a	n/a	n/a	n/a	n/a	n/a
404.9948	0.5167	FIXCROSS	n/a	n/a	n/a	n/a	n/a	n/a	n/a	n/a
405.5115	2.8	COLOR_NAME	48	Incongruent	żółty	yellow	zielony	green	hit	n/a
408.2852	n/a	RESPONSE	n/a	n/a	n/a	n/a	n/a	n/a	n/a	yellow
408.3115	1.0167	ITI	n/a	n/a	n/a	n/a	n/a	n/a	n/a	n/a
409.3282	0.5167	FIXCROSS	n/a	n/a	n/a	n/a	n/a	n/a	n/a	n/a
409.8449	1.0333	COLOR_NAME	49	Incongruent	zielony	green	niebieski	blue	hit	n/a
410.8606	n/a	RESPONSE	n/a	n/a	n/a	n/a	n/a	n/a	n/a	green
410.8782	1.0167	ITI	n/a	n/a	n/a	n/a	n/a	n/a	n/a	n/a
411.8949	0.5167	FIXCROSS	n/a	n/a	n/a	n/a	n/a	n/a	n/a	n/a
412.4116	0.85	COLOR_NAME	50	Incongruent	niebieski	blue	żółty	yellow	incorrect	n/a
413.244	n/a	RESPONSE	n/a	n/a	n/a	n/a	n/a	n/a	n/a	yellow
413.2616	1.0167	ITI	n/a	n/a	n/a	n/a	n/a	n/a	n/a	n/a
414.2782	0.5167	FIXCROSS	n/a	n/a	n/a	n/a	n/a	n/a	n/a	n/a
414.7949	0.9167	COLOR_NAME	51	Neutral	żółty	yellow	Neutral	Neutral	hit	n/a
415.6914	n/a	RESPONSE	n/a	n/a	n/a	n/a	n/a	n/a	n/a	yellow
415.7116	1.0167	ITI	n/a	n/a	n/a	n/a	n/a	n/a	n/a	n/a
416.7283	0.5167	FIXCROSS	n/a	n/a	n/a	n/a	n/a	n/a	n/a	n/a
417.245	0.6834	COLOR_NAME	52	Incongruent	żółty	yellow	czerwony	red	hit	n/a
417.8989	n/a	RESPONSE	n/a	n/a	n/a	n/a	n/a	n/a	n/a	yellow
417.9283	1.0167	ITI	n/a	n/a	n/a	n/a	n/a	n/a	n/a	n/a
418.945	0.5167	FIXCROSS	n/a	n/a	n/a	n/a	n/a	n/a	n/a	n/a
419.4617	0.65	COLOR_NAME	53	Neutral	żółty	yellow	Neutral	Neutral	hit	n/a
420.0903	n/a	RESPONSE	n/a	n/a	n/a	n/a	n/a	n/a	n/a	yellow
420.1116	1.0167	ITI	n/a	n/a	n/a	n/a	n/a	n/a	n/a	n/a
421.1283	0.5167	FIXCROSS	n/a	n/a	n/a	n/a	n/a	n/a	n/a	n/a
421.645	0.9167	COLOR_NAME	54	Incongruent	czerwony	red	żółty	yellow	hit	n/a
422.5377	n/a	RESPONSE	n/a	n/a	n/a	n/a	n/a	n/a	n/a	red
422.5617	1.0167	ITI	n/a	n/a	n/a	n/a	n/a	n/a	n/a	n/a
423.5784	0.5167	FIXCROSS	n/a	n/a	n/a	n/a	n/a	n/a	n/a	n/a
424.095	1.45	COLOR_NAME	55	Incongruent	niebieski	blue	czerwony	red	hit	n/a
425.5073	n/a	RESPONSE	n/a	n/a	n/a	n/a	n/a	n/a	n/a	blue
425.545	1.0167	ITI	n/a	n/a	n/a	n/a	n/a	n/a	n/a	n/a
426.5617	0.5167	FIXCROSS	n/a	n/a	n/a	n/a	n/a	n/a	n/a	n/a
427.0784	1.0833	COLOR_NAME	56	Neutral	czerwony	red	Neutral	Neutral	hit	n/a
428.1364	n/a	RESPONSE	n/a	n/a	n/a	n/a	n/a	n/a	n/a	red
428.1617	1.0167	ITI	n/a	n/a	n/a	n/a	n/a	n/a	n/a	n/a
429.1784	0.5167	FIXCROSS	n/a	n/a	n/a	n/a	n/a	n/a	n/a	n/a
429.6951	1.2834	COLOR_NAME	57	Neutral	zielony	green	Neutral	Neutral	hit	n/a
430.9517	n/a	RESPONSE	n/a	n/a	n/a	n/a	n/a	n/a	n/a	green
430.9785	1.0167	ITI	n/a	n/a	n/a	n/a	n/a	n/a	n/a	n/a
431.9951	0.5167	FIXCROSS	n/a	n/a	n/a	n/a	n/a	n/a	n/a	n/a
432.5118	2.1167	COLOR_NAME	58	Incongruent	zielony	green	czerwony	red	hit	n/a
434.5988	n/a	RESPONSE	n/a	n/a	n/a	n/a	n/a	n/a	n/a	green
434.6285	1.0167	ITI	n/a	n/a	n/a	n/a	n/a	n/a	n/a	n/a
435.6452	0.5167	FIXCROSS	n/a	n/a	n/a	n/a	n/a	n/a	n/a	n/a
436.1618	1.0334	COLOR_NAME	59	Incongruent	czerwony	red	żółty	yellow	hit	n/a
437.1742	n/a	RESPONSE	n/a	n/a	n/a	n/a	n/a	n/a	n/a	red
437.1952	1.0167	ITI	n/a	n/a	n/a	n/a	n/a	n/a	n/a	n/a
438.2119	0.5167	FIXCROSS	n/a	n/a	n/a	n/a	n/a	n/a	n/a	n/a
438.7285	1.1333	COLOR_NAME	60	Neutral	niebieski	blue	Neutral	Neutral	hit	n/a
439.8296	n/a	RESPONSE	n/a	n/a	n/a	n/a	n/a	n/a	n/a	blue
439.8619	1.0167	ITI	n/a	n/a	n/a	n/a	n/a	n/a	n/a	n/a
440.8786	0.5167	FIXCROSS	n/a	n/a	n/a	n/a	n/a	n/a	n/a	n/a
441.3952	1.3	COLOR_NAME	61	Incongruent	zielony	green	czerwony	red	hit	n/a
442.6769	n/a	RESPONSE	n/a	n/a	n/a	n/a	n/a	n/a	n/a	green
442.6952	1.0167	ITI	n/a	n/a	n/a	n/a	n/a	n/a	n/a	n/a
443.7119	0.5167	FIXCROSS	n/a	n/a	n/a	n/a	n/a	n/a	n/a	n/a
444.2286	1.0667	COLOR_NAME	62	Incongruent	zielony	green	niebieski	blue	hit	n/a
445.2683	n/a	RESPONSE	n/a	n/a	n/a	n/a	n/a	n/a	n/a	green
445.2953	1.0167	ITI	n/a	n/a	n/a	n/a	n/a	n/a	n/a	n/a
446.312	0.5167	FIXCROSS	n/a	n/a	n/a	n/a	n/a	n/a	n/a	n/a
446.8286	1.9	COLOR_NAME	63	Incongruent	niebieski	blue	żółty	yellow	hit	n/a
448.7074	n/a	RESPONSE	n/a	n/a	n/a	n/a	n/a	n/a	n/a	blue
448.7286	1.0167	ITI	n/a	n/a	n/a	n/a	n/a	n/a	n/a	n/a
449.7453	0.5167	FIXCROSS	n/a	n/a	n/a	n/a	n/a	n/a	n/a	n/a
450.262	1.65	COLOR_NAME	64	Neutral	żółty	yellow	Neutral	Neutral	hit	n/a
451.8906	n/a	RESPONSE	n/a	n/a	n/a	n/a	n/a	n/a	n/a	yellow
451.912	1.0167	ITI	n/a	n/a	n/a	n/a	n/a	n/a	n/a	n/a
452.9287	0.5167	FIXCROSS	n/a	n/a	n/a	n/a	n/a	n/a	n/a	n/a
453.4454	0.8667	COLOR_NAME	65	Incongruent	czerwony	red	zielony	green	hit	n/a
454.2901	n/a	RESPONSE	n/a	n/a	n/a	n/a	n/a	n/a	n/a	red
454.3121	1.0167	ITI	n/a	n/a	n/a	n/a	n/a	n/a	n/a	n/a
455.3287	0.5167	FIXCROSS	n/a	n/a	n/a	n/a	n/a	n/a	n/a	n/a
455.8454	0.6333	COLOR_NAME	66	Neutral	czerwony	red	Neutral	Neutral	hit	n/a
456.4495	n/a	RESPONSE	n/a	n/a	n/a	n/a	n/a	n/a	n/a	red
456.4787	1.0167	ITI	n/a	n/a	n/a	n/a	n/a	n/a	n/a	n/a
457.4954	0.5167	FIXCROSS	n/a	n/a	n/a	n/a	n/a	n/a	n/a	n/a
458.0121	1.4667	COLOR_NAME	67	Incongruent	czerwony	red	zielony	green	hit	n/a
459.4568	n/a	RESPONSE	n/a	n/a	n/a	n/a	n/a	n/a	n/a	red
459.4788	1.0167	ITI	n/a	n/a	n/a	n/a	n/a	n/a	n/a	n/a
460.4955	0.5167	FIXCROSS	n/a	n/a	n/a	n/a	n/a	n/a	n/a	n/a
461.0121	1.0334	COLOR_NAME	68	Neutral	zielony	green	Neutral	Neutral	hit	n/a
462.0162	n/a	RESPONSE	n/a	n/a	n/a	n/a	n/a	n/a	n/a	green
462.0455	1.0167	ITI	n/a	n/a	n/a	n/a	n/a	n/a	n/a	n/a
463.0622	0.5167	FIXCROSS	n/a	n/a	n/a	n/a	n/a	n/a	n/a	n/a
463.5788	1.1833	COLOR_NAME	69	Neutral	niebieski	blue	Neutral	Neutral	hit	n/a
464.7355	n/a	RESPONSE	n/a	n/a	n/a	n/a	n/a	n/a	n/a	blue
464.7622	1.0167	ITI	n/a	n/a	n/a	n/a	n/a	n/a	n/a	n/a
465.7789	0.5167	FIXCROSS	n/a	n/a	n/a	n/a	n/a	n/a	n/a	n/a
466.2955	1.75	COLOR_NAME	70	Incongruent	czerwony	red	niebieski	blue	incorrect	n/a
468.0147	n/a	RESPONSE	n/a	n/a	n/a	n/a	n/a	n/a	n/a	blue
468.0456	1.0167	ITI	n/a	n/a	n/a	n/a	n/a	n/a	n/a	n/a
469.0622	0.5167	FIXCROSS	n/a	n/a	n/a	n/a	n/a	n/a	n/a	n/a
469.5789	0.8333	COLOR_NAME	71	Neutral	niebieski	blue	Neutral	Neutral	hit	n/a
470.3822	n/a	RESPONSE	n/a	n/a	n/a	n/a	n/a	n/a	n/a	blue
470.4122	1.0167	ITI	n/a	n/a	n/a	n/a	n/a	n/a	n/a	n/a
471.4289	0.5167	FIXCROSS	n/a	n/a	n/a	n/a	n/a	n/a	n/a	n/a
471.9456	0.6833	COLOR_NAME	72	Neutral	niebieski	blue	Neutral	Neutral	hit	n/a
472.6056	n/a	RESPONSE	n/a	n/a	n/a	n/a	n/a	n/a	n/a	blue
472.6289	1.0333	ITI	n/a	n/a	n/a	n/a	n/a	n/a	n/a	n/a
477.5484	n/a	RESPONSE	n/a	n/a	n/a	n/a	n/a	n/a	n/a	n/a
