onset	duration	trial_type	trial_number	stroop_condition	stim_text(PL)	stim_text(eng)	stim_color(PL)	stim_color(eng)	response_type	response_color
0.0	n/a	RESPONSE	n/a	n/a	n/a	n/a	n/a	n/a	n/a	n/a
0.0571	1.0333	ITI	n/a	n/a	n/a	n/a	n/a	n/a	n/a	n/a
1.0905	0.5167	FIXCROSS	n/a	n/a	n/a	n/a	n/a	n/a	n/a	n/a
1.6071	2.0498	T_INK	1	Incongruent	czerwony	red	żółty	yellow	hit	n/a
3.6311	n/a	RESPONSE	n/a	n/a	n/a	n/a	n/a	n/a	n/a	yellow
3.6569	0.5169	FEEDBACK	n/a	n/a	n/a	n/a	n/a	n/a	n/a	n/a
4.1738	1.0167	ITI	n/a	n/a	n/a	n/a	n/a	n/a	n/a	n/a
5.1905	0.5167	FIXCROSS	n/a	n/a	n/a	n/a	n/a	n/a	n/a	n/a
5.7072	1.25	T_INK	2	Neutral	xxxxx	xxxxx	zielony	green	hit	n/a
6.9263	n/a	RESPONSE	n/a	n/a	n/a	n/a	n/a	n/a	n/a	green
6.9572	0.5167	FEEDBACK	n/a	n/a	n/a	n/a	n/a	n/a	n/a	n/a
7.4738	1.0167	ITI	n/a	n/a	n/a	n/a	n/a	n/a	n/a	n/a
8.4905	0.5167	FIXCROSS	n/a	n/a	n/a	n/a	n/a	n/a	n/a	n/a
9.0072	0.6833	T_INK	3	Neutral	xxxxxxxx	xxxxxxxx	zielony	green	hit	n/a
9.6616	n/a	RESPONSE	n/a	n/a	n/a	n/a	n/a	n/a	n/a	green
9.6905	0.5167	FEEDBACK	n/a	n/a	n/a	n/a	n/a	n/a	n/a	n/a
10.2072	1.0167	ITI	n/a	n/a	n/a	n/a	n/a	n/a	n/a	n/a
11.2239	0.5167	FIXCROSS	n/a	n/a	n/a	n/a	n/a	n/a	n/a	n/a
11.7405	5.0167	T_INK	4	Neutral	xxxxxxxxx	xxxxxxxxx	czerwony	red	incorrect	n/a
12.6849	n/a	RESPONSE	n/a	n/a	n/a	n/a	n/a	n/a	n/a	n/a
13.0368	n/a	RESPONSE	n/a	n/a	n/a	n/a	n/a	n/a	n/a	red
14.5724	n/a	RESPONSE	n/a	n/a	n/a	n/a	n/a	n/a	n/a	red
16.7572	0.5167	FEEDBACK	n/a	n/a	n/a	n/a	n/a	n/a	n/a	n/a
17.2739	1.0167	ITI	n/a	n/a	n/a	n/a	n/a	n/a	n/a	n/a
18.2906	0.5167	FIXCROSS	n/a	n/a	n/a	n/a	n/a	n/a	n/a	n/a
18.8073	0.9333	T_INK	5	Neutral	xxxxxxxx	xxxxxxxx	żółty	yellow	hit	n/a
19.7071	n/a	RESPONSE	n/a	n/a	n/a	n/a	n/a	n/a	n/a	yellow
19.7406	0.5167	FEEDBACK	n/a	n/a	n/a	n/a	n/a	n/a	n/a	n/a
20.2573	1.0167	ITI	n/a	n/a	n/a	n/a	n/a	n/a	n/a	n/a
21.2739	0.5167	FIXCROSS	n/a	n/a	n/a	n/a	n/a	n/a	n/a	n/a
21.7906	0.6167	T_INK	6	Neutral	xxxxxxx	xxxxxxx	żółty	yellow	hit	n/a
22.3785	n/a	RESPONSE	n/a	n/a	n/a	n/a	n/a	n/a	n/a	yellow
22.4073	0.5167	FEEDBACK	n/a	n/a	n/a	n/a	n/a	n/a	n/a	n/a
22.9239	1.0167	ITI	n/a	n/a	n/a	n/a	n/a	n/a	n/a	n/a
23.9406	0.5167	FIXCROSS	n/a	n/a	n/a	n/a	n/a	n/a	n/a	n/a
24.4573	0.7833	T_INK	7	Neutral	xxxxxxxxx	xxxxxxxxx	zielony	green	hit	n/a
25.2098	n/a	RESPONSE	n/a	n/a	n/a	n/a	n/a	n/a	n/a	green
25.2406	0.5167	FEEDBACK	n/a	n/a	n/a	n/a	n/a	n/a	n/a	n/a
25.7573	1.0167	ITI	n/a	n/a	n/a	n/a	n/a	n/a	n/a	n/a
26.774	0.5167	FIXCROSS	n/a	n/a	n/a	n/a	n/a	n/a	n/a	n/a
27.2906	0.9667	T_INK	8	Incongruent	zielony	green	żółty	yellow	incorrect	n/a
28.233	n/a	RESPONSE	n/a	n/a	n/a	n/a	n/a	n/a	n/a	green
28.2573	0.5167	FEEDBACK	n/a	n/a	n/a	n/a	n/a	n/a	n/a	n/a
28.774	1.0167	ITI	n/a	n/a	n/a	n/a	n/a	n/a	n/a	n/a
29.7907	0.5167	FIXCROSS	n/a	n/a	n/a	n/a	n/a	n/a	n/a	n/a
30.3073	1.75	T_INK	9	Incongruent	niebieski	blue	żółty	yellow	hit	n/a
32.0241	n/a	RESPONSE	n/a	n/a	n/a	n/a	n/a	n/a	n/a	yellow
32.0573	0.5167	FEEDBACK	n/a	n/a	n/a	n/a	n/a	n/a	n/a	n/a
32.574	1.0167	ITI	n/a	n/a	n/a	n/a	n/a	n/a	n/a	n/a
33.5907	0.5166	FIXCROSS	n/a	n/a	n/a	n/a	n/a	n/a	n/a	n/a
34.1073	1.3334	T_INK	10	Incongruent	żółty	yellow	niebieski	blue	hit	n/a
35.4153	n/a	RESPONSE	n/a	n/a	n/a	n/a	n/a	n/a	n/a	blue
35.4407	0.5167	FEEDBACK	n/a	n/a	n/a	n/a	n/a	n/a	n/a	n/a
35.9574	1.0167	ITI	n/a	n/a	n/a	n/a	n/a	n/a	n/a	n/a
36.974	0.5167	FIXCROSS	n/a	n/a	n/a	n/a	n/a	n/a	n/a	n/a
37.4907	1.45	T_INK	11	Incongruent	zielony	green	czerwony	red	hit	n/a
38.9184	n/a	RESPONSE	n/a	n/a	n/a	n/a	n/a	n/a	n/a	red
38.9407	0.5167	FEEDBACK	n/a	n/a	n/a	n/a	n/a	n/a	n/a	n/a
39.4574	1.0167	ITI	n/a	n/a	n/a	n/a	n/a	n/a	n/a	n/a
40.4741	0.5167	FIXCROSS	n/a	n/a	n/a	n/a	n/a	n/a	n/a	n/a
40.9908	1.5167	T_INK	12	Incongruent	czerwony	red	zielony	green	hit	n/a
42.4855	n/a	RESPONSE	n/a	n/a	n/a	n/a	n/a	n/a	n/a	green
42.5074	0.5167	FEEDBACK	n/a	n/a	n/a	n/a	n/a	n/a	n/a	n/a
43.0241	1.0334	ITI	n/a	n/a	n/a	n/a	n/a	n/a	n/a	n/a
62.1126	n/a	RESPONSE	n/a	n/a	n/a	n/a	n/a	n/a	n/a	n/a
62.1742	1.0167	ITI	n/a	n/a	n/a	n/a	n/a	n/a	n/a	n/a
63.1909	0.5167	FIXCROSS	n/a	n/a	n/a	n/a	n/a	n/a	n/a	n/a
63.7076	1.2833	INK	1	Incongruent	niebieski	blue	żółty	yellow	hit	n/a
64.9599	n/a	RESPONSE	n/a	n/a	n/a	n/a	n/a	n/a	n/a	yellow
64.9909	1.0167	ITI	n/a	n/a	n/a	n/a	n/a	n/a	n/a	n/a
66.0076	0.5167	FIXCROSS	n/a	n/a	n/a	n/a	n/a	n/a	n/a	n/a
66.5243	0.8667	INK	2	Incongruent	zielony	green	żółty	yellow	hit	n/a
67.3593	n/a	RESPONSE	n/a	n/a	n/a	n/a	n/a	n/a	n/a	yellow
67.3909	1.0167	ITI	n/a	n/a	n/a	n/a	n/a	n/a	n/a	n/a
68.4076	0.5167	FIXCROSS	n/a	n/a	n/a	n/a	n/a	n/a	n/a	n/a
68.9243	0.9	INK	3	Neutral	xxxxxxx	xxxxxxx	czerwony	red	hit	n/a
69.8067	n/a	RESPONSE	n/a	n/a	n/a	n/a	n/a	n/a	n/a	red
69.8243	1.0167	ITI	n/a	n/a	n/a	n/a	n/a	n/a	n/a	n/a
70.8409	0.5167	FIXCROSS	n/a	n/a	n/a	n/a	n/a	n/a	n/a	n/a
71.3576	0.8	INK	4	Neutral	xxxxxxxxx	xxxxxxxxx	żółty	yellow	hit	n/a
72.1261	n/a	RESPONSE	n/a	n/a	n/a	n/a	n/a	n/a	n/a	yellow
72.1576	1.0167	ITI	n/a	n/a	n/a	n/a	n/a	n/a	n/a	n/a
73.1743	0.5167	FIXCROSS	n/a	n/a	n/a	n/a	n/a	n/a	n/a	n/a
73.691	0.6833	INK	5	Neutral	xxxxxxx	xxxxxxx	niebieski	blue	hit	n/a
74.3496	n/a	RESPONSE	n/a	n/a	n/a	n/a	n/a	n/a	n/a	blue
74.3743	1.0167	ITI	n/a	n/a	n/a	n/a	n/a	n/a	n/a	n/a
75.391	0.5167	FIXCROSS	n/a	n/a	n/a	n/a	n/a	n/a	n/a	n/a
75.9077	0.6167	INK	6	Neutral	xxxxxxxx	xxxxxxxx	niebieski	blue	hit	n/a
76.493	n/a	RESPONSE	n/a	n/a	n/a	n/a	n/a	n/a	n/a	blue
76.5243	1.0167	ITI	n/a	n/a	n/a	n/a	n/a	n/a	n/a	n/a
77.541	0.5167	FIXCROSS	n/a	n/a	n/a	n/a	n/a	n/a	n/a	n/a
78.0577	0.55	INK	7	Incongruent	zielony	green	niebieski	blue	hit	n/a
78.5886	n/a	RESPONSE	n/a	n/a	n/a	n/a	n/a	n/a	n/a	blue
78.6077	1.0167	ITI	n/a	n/a	n/a	n/a	n/a	n/a	n/a	n/a
79.6243	0.5167	FIXCROSS	n/a	n/a	n/a	n/a	n/a	n/a	n/a	n/a
80.141	0.6167	INK	8	Incongruent	zielony	green	niebieski	blue	hit	n/a
80.732	n/a	RESPONSE	n/a	n/a	n/a	n/a	n/a	n/a	n/a	blue
80.7577	1.0167	ITI	n/a	n/a	n/a	n/a	n/a	n/a	n/a	n/a
81.7744	0.5167	FIXCROSS	n/a	n/a	n/a	n/a	n/a	n/a	n/a	n/a
82.291	0.5667	INK	9	Neutral	xxxxxxxx	xxxxxxxx	żółty	yellow	incorrect	n/a
82.8275	n/a	RESPONSE	n/a	n/a	n/a	n/a	n/a	n/a	n/a	green
82.8577	1.0167	ITI	n/a	n/a	n/a	n/a	n/a	n/a	n/a	n/a
83.8744	0.5167	FIXCROSS	n/a	n/a	n/a	n/a	n/a	n/a	n/a	n/a
84.3911	0.7667	INK	10	Neutral	xxxxxxx	xxxxxxx	niebieski	blue	hit	n/a
85.1309	n/a	RESPONSE	n/a	n/a	n/a	n/a	n/a	n/a	n/a	blue
85.1577	1.0167	ITI	n/a	n/a	n/a	n/a	n/a	n/a	n/a	n/a
86.1744	0.5167	FIXCROSS	n/a	n/a	n/a	n/a	n/a	n/a	n/a	n/a
86.6911	0.5667	INK	11	Neutral	xxxxxxxxx	xxxxxxxxx	zielony	green	hit	n/a
87.2264	n/a	RESPONSE	n/a	n/a	n/a	n/a	n/a	n/a	n/a	green
87.2577	1.0167	ITI	n/a	n/a	n/a	n/a	n/a	n/a	n/a	n/a
88.2744	0.5167	FIXCROSS	n/a	n/a	n/a	n/a	n/a	n/a	n/a	n/a
88.7911	0.6167	INK	12	Incongruent	żółty	yellow	zielony	green	hit	n/a
89.3859	n/a	RESPONSE	n/a	n/a	n/a	n/a	n/a	n/a	n/a	green
89.4078	1.0167	ITI	n/a	n/a	n/a	n/a	n/a	n/a	n/a	n/a
90.4244	0.5167	FIXCROSS	n/a	n/a	n/a	n/a	n/a	n/a	n/a	n/a
90.9411	0.5667	INK	13	Neutral	xxxxxxxx	xxxxxxxx	zielony	green	hit	n/a
91.4814	n/a	RESPONSE	n/a	n/a	n/a	n/a	n/a	n/a	n/a	green
91.5078	1.0167	ITI	n/a	n/a	n/a	n/a	n/a	n/a	n/a	n/a
92.5244	0.5167	FIXCROSS	n/a	n/a	n/a	n/a	n/a	n/a	n/a	n/a
93.0411	0.4	INK	14	Incongruent	niebieski	blue	zielony	green	hit	n/a
93.4169	n/a	RESPONSE	n/a	n/a	n/a	n/a	n/a	n/a	n/a	green
93.4411	1.0167	ITI	n/a	n/a	n/a	n/a	n/a	n/a	n/a	n/a
94.4578	0.5167	FIXCROSS	n/a	n/a	n/a	n/a	n/a	n/a	n/a	n/a
94.9745	0.7667	INK	15	Incongruent	zielony	green	czerwony	red	hit	n/a
95.7203	n/a	RESPONSE	n/a	n/a	n/a	n/a	n/a	n/a	n/a	red
95.7411	1.0167	ITI	n/a	n/a	n/a	n/a	n/a	n/a	n/a	n/a
96.7578	0.5167	FIXCROSS	n/a	n/a	n/a	n/a	n/a	n/a	n/a	n/a
97.2745	0.4167	INK	16	Incongruent	zielony	green	czerwony	red	hit	n/a
97.6718	n/a	RESPONSE	n/a	n/a	n/a	n/a	n/a	n/a	n/a	red
97.6911	1.0167	ITI	n/a	n/a	n/a	n/a	n/a	n/a	n/a	n/a
98.7078	0.5167	FIXCROSS	n/a	n/a	n/a	n/a	n/a	n/a	n/a	n/a
99.2245	0.6	INK	17	Neutral	xxxxxxxx	xxxxxxxx	niebieski	blue	hit	n/a
99.7993	n/a	RESPONSE	n/a	n/a	n/a	n/a	n/a	n/a	n/a	blue
99.8245	1.0167	ITI	n/a	n/a	n/a	n/a	n/a	n/a	n/a	n/a
100.8412	0.5167	FIXCROSS	n/a	n/a	n/a	n/a	n/a	n/a	n/a	n/a
101.3578	1.1	INK	18	Incongruent	czerwony	red	zielony	green	hit	n/a
102.4386	n/a	RESPONSE	n/a	n/a	n/a	n/a	n/a	n/a	n/a	green
102.4578	1.0167	ITI	n/a	n/a	n/a	n/a	n/a	n/a	n/a	n/a
103.4745	0.5167	FIXCROSS	n/a	n/a	n/a	n/a	n/a	n/a	n/a	n/a
103.9912	0.7833	INK	19	Neutral	xxxxxxx	xxxxxxx	żółty	yellow	hit	n/a
104.7421	n/a	RESPONSE	n/a	n/a	n/a	n/a	n/a	n/a	n/a	yellow
104.7745	1.0167	ITI	n/a	n/a	n/a	n/a	n/a	n/a	n/a	n/a
105.7912	0.5167	FIXCROSS	n/a	n/a	n/a	n/a	n/a	n/a	n/a	n/a
106.3079	0.8833	INK	20	Incongruent	żółty	yellow	niebieski	blue	hit	n/a
107.1575	n/a	RESPONSE	n/a	n/a	n/a	n/a	n/a	n/a	n/a	blue
107.1912	1.0167	ITI	n/a	n/a	n/a	n/a	n/a	n/a	n/a	n/a
108.2079	0.5167	FIXCROSS	n/a	n/a	n/a	n/a	n/a	n/a	n/a	n/a
108.7245	0.6333	INK	21	Neutral	xxxxxxx	xxxxxxx	żółty	yellow	hit	n/a
109.3329	n/a	RESPONSE	n/a	n/a	n/a	n/a	n/a	n/a	n/a	yellow
109.3579	1.0166	ITI	n/a	n/a	n/a	n/a	n/a	n/a	n/a	n/a
110.3745	0.5167	FIXCROSS	n/a	n/a	n/a	n/a	n/a	n/a	n/a	n/a
110.8912	0.7	INK	22	Neutral	xxxxxxx	xxxxxxx	niebieski	blue	hit	n/a
111.5724	n/a	RESPONSE	n/a	n/a	n/a	n/a	n/a	n/a	n/a	blue
111.5912	1.0167	ITI	n/a	n/a	n/a	n/a	n/a	n/a	n/a	n/a
112.6079	0.5167	FIXCROSS	n/a	n/a	n/a	n/a	n/a	n/a	n/a	n/a
113.1246	1.2167	INK	23	Incongruent	niebieski	blue	zielony	green	hit	n/a
114.3237	n/a	RESPONSE	n/a	n/a	n/a	n/a	n/a	n/a	n/a	green
114.3413	1.0167	ITI	n/a	n/a	n/a	n/a	n/a	n/a	n/a	n/a
115.3579	0.5167	FIXCROSS	n/a	n/a	n/a	n/a	n/a	n/a	n/a	n/a
115.8746	0.8167	INK	24	Incongruent	czerwony	red	żółty	yellow	hit	n/a
116.6591	n/a	RESPONSE	n/a	n/a	n/a	n/a	n/a	n/a	n/a	yellow
116.6913	1.0167	ITI	n/a	n/a	n/a	n/a	n/a	n/a	n/a	n/a
117.7079	0.5167	FIXCROSS	n/a	n/a	n/a	n/a	n/a	n/a	n/a	n/a
118.2246	0.65	INK	25	Neutral	xxxxxxxx	xxxxxxxx	zielony	green	hit	n/a
118.8506	n/a	RESPONSE	n/a	n/a	n/a	n/a	n/a	n/a	n/a	green
118.8746	1.0167	ITI	n/a	n/a	n/a	n/a	n/a	n/a	n/a	n/a
119.8913	0.5167	FIXCROSS	n/a	n/a	n/a	n/a	n/a	n/a	n/a	n/a
120.408	0.7167	INK	26	Neutral	xxxxxxxxx	xxxxxxxxx	żółty	yellow	hit	n/a
121.106	n/a	RESPONSE	n/a	n/a	n/a	n/a	n/a	n/a	n/a	yellow
121.1246	1.0167	ITI	n/a	n/a	n/a	n/a	n/a	n/a	n/a	n/a
122.1413	0.5167	FIXCROSS	n/a	n/a	n/a	n/a	n/a	n/a	n/a	n/a
122.658	0.6333	INK	27	Incongruent	żółty	yellow	zielony	green	hit	n/a
123.2655	n/a	RESPONSE	n/a	n/a	n/a	n/a	n/a	n/a	n/a	green
123.2913	1.0167	ITI	n/a	n/a	n/a	n/a	n/a	n/a	n/a	n/a
124.308	0.5167	FIXCROSS	n/a	n/a	n/a	n/a	n/a	n/a	n/a	n/a
124.8247	0.6333	INK	28	Incongruent	czerwony	red	żółty	yellow	hit	n/a
125.4249	n/a	RESPONSE	n/a	n/a	n/a	n/a	n/a	n/a	n/a	yellow
125.458	1.0167	ITI	n/a	n/a	n/a	n/a	n/a	n/a	n/a	n/a
126.4747	0.5167	FIXCROSS	n/a	n/a	n/a	n/a	n/a	n/a	n/a	n/a
126.9913	0.8167	INK	29	Incongruent	niebieski	blue	czerwony	red	hit	n/a
127.7764	n/a	RESPONSE	n/a	n/a	n/a	n/a	n/a	n/a	n/a	red
127.808	1.0167	ITI	n/a	n/a	n/a	n/a	n/a	n/a	n/a	n/a
128.8247	0.5167	FIXCROSS	n/a	n/a	n/a	n/a	n/a	n/a	n/a	n/a
129.3414	0.6167	INK	30	Neutral	xxxxxxxxx	xxxxxxxxx	czerwony	red	hit	n/a
129.9358	n/a	RESPONSE	n/a	n/a	n/a	n/a	n/a	n/a	n/a	red
129.958	1.0167	ITI	n/a	n/a	n/a	n/a	n/a	n/a	n/a	n/a
130.9747	0.5167	FIXCROSS	n/a	n/a	n/a	n/a	n/a	n/a	n/a	n/a
131.4914	0.5667	INK	31	Neutral	xxxxxxxxx	xxxxxxxxx	czerwony	red	hit	n/a
132.0313	n/a	RESPONSE	n/a	n/a	n/a	n/a	n/a	n/a	n/a	red
132.058	1.0167	ITI	n/a	n/a	n/a	n/a	n/a	n/a	n/a	n/a
133.0747	0.5167	FIXCROSS	n/a	n/a	n/a	n/a	n/a	n/a	n/a	n/a
133.5914	1.3333	INK	32	Incongruent	niebieski	blue	żółty	yellow	hit	n/a
134.8946	n/a	RESPONSE	n/a	n/a	n/a	n/a	n/a	n/a	n/a	yellow
134.9247	1.0167	ITI	n/a	n/a	n/a	n/a	n/a	n/a	n/a	n/a
135.9414	0.5167	FIXCROSS	n/a	n/a	n/a	n/a	n/a	n/a	n/a	n/a
136.4581	0.6833	INK	33	Incongruent	czerwony	red	żółty	yellow	hit	n/a
137.1181	n/a	RESPONSE	n/a	n/a	n/a	n/a	n/a	n/a	n/a	yellow
137.1414	1.0167	ITI	n/a	n/a	n/a	n/a	n/a	n/a	n/a	n/a
138.1581	0.5167	FIXCROSS	n/a	n/a	n/a	n/a	n/a	n/a	n/a	n/a
138.6748	0.7	INK	34	Incongruent	niebieski	blue	czerwony	red	hit	n/a
139.3575	n/a	RESPONSE	n/a	n/a	n/a	n/a	n/a	n/a	n/a	red
139.3748	1.0167	ITI	n/a	n/a	n/a	n/a	n/a	n/a	n/a	n/a
140.3914	0.5167	FIXCROSS	n/a	n/a	n/a	n/a	n/a	n/a	n/a	n/a
140.9081	0.5	INK	35	Neutral	xxxxxxx	xxxxxxx	czerwony	red	hit	n/a
141.373	n/a	RESPONSE	n/a	n/a	n/a	n/a	n/a	n/a	n/a	red
141.4081	1.0167	ITI	n/a	n/a	n/a	n/a	n/a	n/a	n/a	n/a
142.4248	0.5167	FIXCROSS	n/a	n/a	n/a	n/a	n/a	n/a	n/a	n/a
142.9415	0.8833	INK	36	Incongruent	czerwony	red	zielony	green	incorrect	n/a
143.7864	n/a	RESPONSE	n/a	n/a	n/a	n/a	n/a	n/a	n/a	blue
143.8248	1.0167	ITI	n/a	n/a	n/a	n/a	n/a	n/a	n/a	n/a
144.8415	0.5167	FIXCROSS	n/a	n/a	n/a	n/a	n/a	n/a	n/a	n/a
145.3581	0.7667	INK	37	Incongruent	zielony	green	żółty	yellow	hit	n/a
146.0918	n/a	RESPONSE	n/a	n/a	n/a	n/a	n/a	n/a	n/a	yellow
146.1248	1.0167	ITI	n/a	n/a	n/a	n/a	n/a	n/a	n/a	n/a
147.1415	0.5167	FIXCROSS	n/a	n/a	n/a	n/a	n/a	n/a	n/a	n/a
147.6582	0.7833	INK	38	Neutral	xxxxx	xxxxx	czerwony	red	hit	n/a
148.4113	n/a	RESPONSE	n/a	n/a	n/a	n/a	n/a	n/a	n/a	red
148.4415	1.0167	ITI	n/a	n/a	n/a	n/a	n/a	n/a	n/a	n/a
149.4582	0.5167	FIXCROSS	n/a	n/a	n/a	n/a	n/a	n/a	n/a	n/a
149.9748	0.5833	INK	39	Neutral	xxxxx	xxxxx	niebieski	blue	hit	n/a
150.5387	n/a	RESPONSE	n/a	n/a	n/a	n/a	n/a	n/a	n/a	blue
150.5582	1.0167	ITI	n/a	n/a	n/a	n/a	n/a	n/a	n/a	n/a
151.5748	0.5167	FIXCROSS	n/a	n/a	n/a	n/a	n/a	n/a	n/a	n/a
152.0915	0.7667	INK	40	Neutral	xxxxx	xxxxx	zielony	green	hit	n/a
152.8262	n/a	RESPONSE	n/a	n/a	n/a	n/a	n/a	n/a	n/a	green
152.8582	1.0167	ITI	n/a	n/a	n/a	n/a	n/a	n/a	n/a	n/a
153.8749	0.5167	FIXCROSS	n/a	n/a	n/a	n/a	n/a	n/a	n/a	n/a
154.3915	0.6667	INK	41	Neutral	xxxxxxxx	xxxxxxxx	żółty	yellow	hit	n/a
155.0336	n/a	RESPONSE	n/a	n/a	n/a	n/a	n/a	n/a	n/a	yellow
155.0582	1.0167	ITI	n/a	n/a	n/a	n/a	n/a	n/a	n/a	n/a
156.0749	0.5167	FIXCROSS	n/a	n/a	n/a	n/a	n/a	n/a	n/a	n/a
156.5916	0.4667	INK	42	Incongruent	niebieski	blue	czerwony	red	hit	n/a
157.0331	n/a	RESPONSE	n/a	n/a	n/a	n/a	n/a	n/a	n/a	red
157.0582	1.0167	ITI	n/a	n/a	n/a	n/a	n/a	n/a	n/a	n/a
158.0749	0.5167	FIXCROSS	n/a	n/a	n/a	n/a	n/a	n/a	n/a	n/a
158.5916	0.5333	INK	43	Neutral	xxxxx	xxxxx	niebieski	blue	hit	n/a
159.0966	n/a	RESPONSE	n/a	n/a	n/a	n/a	n/a	n/a	n/a	blue
159.1249	1.0167	ITI	n/a	n/a	n/a	n/a	n/a	n/a	n/a	n/a
160.1416	0.5167	FIXCROSS	n/a	n/a	n/a	n/a	n/a	n/a	n/a	n/a
160.6582	0.9333	INK	44	Neutral	xxxxx	xxxxx	zielony	green	hit	n/a
161.56	n/a	RESPONSE	n/a	n/a	n/a	n/a	n/a	n/a	n/a	green
161.5916	1.0167	ITI	n/a	n/a	n/a	n/a	n/a	n/a	n/a	n/a
162.6083	0.5167	FIXCROSS	n/a	n/a	n/a	n/a	n/a	n/a	n/a	n/a
163.1249	0.6333	INK	45	Incongruent	żółty	yellow	zielony	green	hit	n/a
163.7354	n/a	RESPONSE	n/a	n/a	n/a	n/a	n/a	n/a	n/a	green
163.7583	1.0167	ITI	n/a	n/a	n/a	n/a	n/a	n/a	n/a	n/a
164.7749	0.5167	FIXCROSS	n/a	n/a	n/a	n/a	n/a	n/a	n/a	n/a
165.2916	0.5833	INK	46	Neutral	xxxxxxxx	xxxxxxxx	zielony	green	hit	n/a
165.8469	n/a	RESPONSE	n/a	n/a	n/a	n/a	n/a	n/a	n/a	green
165.8749	1.0167	ITI	n/a	n/a	n/a	n/a	n/a	n/a	n/a	n/a
166.8916	0.5167	FIXCROSS	n/a	n/a	n/a	n/a	n/a	n/a	n/a	n/a
167.4083	1.0333	INK	47	Incongruent	czerwony	red	niebieski	blue	hit	n/a
168.4223	n/a	RESPONSE	n/a	n/a	n/a	n/a	n/a	n/a	n/a	blue
168.4416	1.0167	ITI	n/a	n/a	n/a	n/a	n/a	n/a	n/a	n/a
169.4583	0.5167	FIXCROSS	n/a	n/a	n/a	n/a	n/a	n/a	n/a	n/a
169.975	0.6833	INK	48	Neutral	xxxxx	xxxxx	czerwony	red	hit	n/a
170.6297	n/a	RESPONSE	n/a	n/a	n/a	n/a	n/a	n/a	n/a	red
170.6583	1.0167	ITI	n/a	n/a	n/a	n/a	n/a	n/a	n/a	n/a
171.675	0.5167	FIXCROSS	n/a	n/a	n/a	n/a	n/a	n/a	n/a	n/a
172.1917	0.4167	INK	49	Neutral	xxxxx	xxxxx	czerwony	red	hit	n/a
172.5813	n/a	RESPONSE	n/a	n/a	n/a	n/a	n/a	n/a	n/a	red
172.6083	1.0167	ITI	n/a	n/a	n/a	n/a	n/a	n/a	n/a	n/a
173.625	0.5167	FIXCROSS	n/a	n/a	n/a	n/a	n/a	n/a	n/a	n/a
174.1417	0.6333	INK	50	Incongruent	niebieski	blue	żółty	yellow	hit	n/a
174.7567	n/a	RESPONSE	n/a	n/a	n/a	n/a	n/a	n/a	n/a	yellow
174.775	1.0167	ITI	n/a	n/a	n/a	n/a	n/a	n/a	n/a	n/a
175.7917	0.5167	FIXCROSS	n/a	n/a	n/a	n/a	n/a	n/a	n/a	n/a
176.3084	0.8333	INK	51	Incongruent	zielony	green	czerwony	red	hit	n/a
177.1082	n/a	RESPONSE	n/a	n/a	n/a	n/a	n/a	n/a	n/a	red
177.1417	1.0167	ITI	n/a	n/a	n/a	n/a	n/a	n/a	n/a	n/a
178.1584	0.5167	FIXCROSS	n/a	n/a	n/a	n/a	n/a	n/a	n/a	n/a
178.675	0.55	INK	52	Neutral	xxxxx	xxxxx	niebieski	blue	hit	n/a
179.2036	n/a	RESPONSE	n/a	n/a	n/a	n/a	n/a	n/a	n/a	blue
179.225	1.0167	ITI	n/a	n/a	n/a	n/a	n/a	n/a	n/a	n/a
180.2417	0.5167	FIXCROSS	n/a	n/a	n/a	n/a	n/a	n/a	n/a	n/a
180.7584	0.6333	INK	53	Incongruent	żółty	yellow	czerwony	red	hit	n/a
181.3631	n/a	RESPONSE	n/a	n/a	n/a	n/a	n/a	n/a	n/a	red
181.3917	1.0167	ITI	n/a	n/a	n/a	n/a	n/a	n/a	n/a	n/a
182.4084	0.5167	FIXCROSS	n/a	n/a	n/a	n/a	n/a	n/a	n/a	n/a
182.9251	0.5667	INK	54	Incongruent	czerwony	red	niebieski	blue	hit	n/a
183.4586	n/a	RESPONSE	n/a	n/a	n/a	n/a	n/a	n/a	n/a	blue
183.4917	1.0167	ITI	n/a	n/a	n/a	n/a	n/a	n/a	n/a	n/a
184.5084	0.5167	FIXCROSS	n/a	n/a	n/a	n/a	n/a	n/a	n/a	n/a
185.0251	0.4833	INK	55	Incongruent	żółty	yellow	niebieski	blue	hit	n/a
185.4901	n/a	RESPONSE	n/a	n/a	n/a	n/a	n/a	n/a	n/a	blue
185.5084	1.0167	ITI	n/a	n/a	n/a	n/a	n/a	n/a	n/a	n/a
186.5251	0.5167	FIXCROSS	n/a	n/a	n/a	n/a	n/a	n/a	n/a	n/a
187.0418	0.6333	INK	56	Neutral	xxxxxxxx	xxxxxxxx	żółty	yellow	incorrect	n/a
187.6495	n/a	RESPONSE	n/a	n/a	n/a	n/a	n/a	n/a	n/a	red
187.6751	1.0167	ITI	n/a	n/a	n/a	n/a	n/a	n/a	n/a	n/a
188.6918	0.5167	FIXCROSS	n/a	n/a	n/a	n/a	n/a	n/a	n/a	n/a
189.2084	0.6833	INK	57	Neutral	xxxxxxxxx	xxxxxxxxx	zielony	green	hit	n/a
189.873	n/a	RESPONSE	n/a	n/a	n/a	n/a	n/a	n/a	n/a	green
189.8918	1.0167	ITI	n/a	n/a	n/a	n/a	n/a	n/a	n/a	n/a
190.9085	0.5167	FIXCROSS	n/a	n/a	n/a	n/a	n/a	n/a	n/a	n/a
191.4251	0.4833	INK	58	Neutral	xxxxxxx	xxxxxxx	żółty	yellow	hit	n/a
191.8885	n/a	RESPONSE	n/a	n/a	n/a	n/a	n/a	n/a	n/a	yellow
191.9085	1.0167	ITI	n/a	n/a	n/a	n/a	n/a	n/a	n/a	n/a
192.9251	0.5167	FIXCROSS	n/a	n/a	n/a	n/a	n/a	n/a	n/a	n/a
193.4418	0.6667	INK	59	Incongruent	zielony	green	niebieski	blue	hit	n/a
194.0799	n/a	RESPONSE	n/a	n/a	n/a	n/a	n/a	n/a	n/a	blue
194.1085	1.0167	ITI	n/a	n/a	n/a	n/a	n/a	n/a	n/a	n/a
195.1251	0.5167	FIXCROSS	n/a	n/a	n/a	n/a	n/a	n/a	n/a	n/a
195.6418	0.5	INK	60	Neutral	xxxxxxxx	xxxxxxxx	niebieski	blue	hit	n/a
196.1115	n/a	RESPONSE	n/a	n/a	n/a	n/a	n/a	n/a	n/a	blue
196.1418	1.0167	ITI	n/a	n/a	n/a	n/a	n/a	n/a	n/a	n/a
197.1585	0.5167	FIXCROSS	n/a	n/a	n/a	n/a	n/a	n/a	n/a	n/a
197.6752	0.7	INK	61	Neutral	xxxxxxxxx	xxxxxxxxx	czerwony	red	hit	n/a
198.3509	n/a	RESPONSE	n/a	n/a	n/a	n/a	n/a	n/a	n/a	red
198.3752	1.0167	ITI	n/a	n/a	n/a	n/a	n/a	n/a	n/a	n/a
199.3918	0.5167	FIXCROSS	n/a	n/a	n/a	n/a	n/a	n/a	n/a	n/a
199.9085	1.1833	INK	62	Incongruent	czerwony	red	zielony	green	hit	n/a
201.0702	n/a	RESPONSE	n/a	n/a	n/a	n/a	n/a	n/a	n/a	green
201.0919	1.0167	ITI	n/a	n/a	n/a	n/a	n/a	n/a	n/a	n/a
202.1085	0.5167	FIXCROSS	n/a	n/a	n/a	n/a	n/a	n/a	n/a	n/a
202.6252	0.6667	INK	63	Incongruent	czerwony	red	niebieski	blue	hit	n/a
203.2616	n/a	RESPONSE	n/a	n/a	n/a	n/a	n/a	n/a	n/a	blue
203.2919	1.0167	ITI	n/a	n/a	n/a	n/a	n/a	n/a	n/a	n/a
204.3085	0.5167	FIXCROSS	n/a	n/a	n/a	n/a	n/a	n/a	n/a	n/a
204.8252	0.5333	INK	64	Incongruent	zielony	green	żółty	yellow	hit	n/a
205.3252	n/a	RESPONSE	n/a	n/a	n/a	n/a	n/a	n/a	n/a	yellow
205.3586	1.0167	ITI	n/a	n/a	n/a	n/a	n/a	n/a	n/a	n/a
206.3752	0.5167	FIXCROSS	n/a	n/a	n/a	n/a	n/a	n/a	n/a	n/a
206.8919	0.6833	INK	65	Neutral	xxxxxxx	xxxxxxx	czerwony	red	hit	n/a
207.5486	n/a	RESPONSE	n/a	n/a	n/a	n/a	n/a	n/a	n/a	red
207.5752	1.0167	ITI	n/a	n/a	n/a	n/a	n/a	n/a	n/a	n/a
208.5919	0.5167	FIXCROSS	n/a	n/a	n/a	n/a	n/a	n/a	n/a	n/a
209.1086	0.6167	INK	66	Neutral	xxxxxxxxx	xxxxxxxxx	żółty	yellow	hit	n/a
209.6921	n/a	RESPONSE	n/a	n/a	n/a	n/a	n/a	n/a	n/a	yellow
209.7253	1.0167	ITI	n/a	n/a	n/a	n/a	n/a	n/a	n/a	n/a
210.7419	0.5167	FIXCROSS	n/a	n/a	n/a	n/a	n/a	n/a	n/a	n/a
211.2586	0.8	INK	67	Incongruent	żółty	yellow	niebieski	blue	incorrect	n/a
212.0275	n/a	RESPONSE	n/a	n/a	n/a	n/a	n/a	n/a	n/a	yellow
212.0586	1.0167	ITI	n/a	n/a	n/a	n/a	n/a	n/a	n/a	n/a
213.0753	0.5167	FIXCROSS	n/a	n/a	n/a	n/a	n/a	n/a	n/a	n/a
213.5919	0.8833	INK	68	Incongruent	żółty	yellow	czerwony	red	incorrect	n/a
214.4429	n/a	RESPONSE	n/a	n/a	n/a	n/a	n/a	n/a	n/a	green
214.4753	1.0167	ITI	n/a	n/a	n/a	n/a	n/a	n/a	n/a	n/a
215.492	0.5166	FIXCROSS	n/a	n/a	n/a	n/a	n/a	n/a	n/a	n/a
216.0086	0.6	INK	69	Neutral	xxxxx	xxxxx	zielony	green	hit	n/a
216.5864	n/a	RESPONSE	n/a	n/a	n/a	n/a	n/a	n/a	n/a	green
216.6086	1.0167	ITI	n/a	n/a	n/a	n/a	n/a	n/a	n/a	n/a
217.6253	0.5167	FIXCROSS	n/a	n/a	n/a	n/a	n/a	n/a	n/a	n/a
218.142	0.7833	INK	70	Incongruent	niebieski	blue	zielony	green	hit	n/a
218.9058	n/a	RESPONSE	n/a	n/a	n/a	n/a	n/a	n/a	n/a	green
218.9253	1.0167	ITI	n/a	n/a	n/a	n/a	n/a	n/a	n/a	n/a
219.942	0.5167	FIXCROSS	n/a	n/a	n/a	n/a	n/a	n/a	n/a	n/a
220.4587	0.4833	INK	71	Incongruent	żółty	yellow	czerwony	red	hit	n/a
220.9213	n/a	RESPONSE	n/a	n/a	n/a	n/a	n/a	n/a	n/a	red
220.942	1.0167	ITI	n/a	n/a	n/a	n/a	n/a	n/a	n/a	n/a
221.9587	0.5167	FIXCROSS	n/a	n/a	n/a	n/a	n/a	n/a	n/a	n/a
222.4753	0.65	INK	72	Neutral	xxxxxxxxx	xxxxxxxxx	zielony	green	hit	n/a
223.0967	n/a	RESPONSE	n/a	n/a	n/a	n/a	n/a	n/a	n/a	green
223.1253	1.0833	ITI	n/a	n/a	n/a	n/a	n/a	n/a	n/a	n/a
239.7761	n/a	RESPONSE	n/a	n/a	n/a	n/a	n/a	n/a	n/a	n/a
239.8421	1.0167	ITI	n/a	n/a	n/a	n/a	n/a	n/a	n/a	n/a
240.8588	0.5167	FIXCROSS	n/a	n/a	n/a	n/a	n/a	n/a	n/a	n/a
241.3755	1.5333	T_COLOR_NAME	1	Neutral	niebieski	blue	Neutral	Neutral	hit	n/a
242.8838	n/a	RESPONSE	n/a	n/a	n/a	n/a	n/a	n/a	n/a	blue
242.9088	0.5167	FEEDBACK	n/a	n/a	n/a	n/a	n/a	n/a	n/a	n/a
243.4255	1.0167	ITI	n/a	n/a	n/a	n/a	n/a	n/a	n/a	n/a
244.4422	0.5167	FIXCROSS	n/a	n/a	n/a	n/a	n/a	n/a	n/a	n/a
244.9588	0.65	T_COLOR_NAME	2	Incongruent	niebieski	blue	żółty	yellow	hit	n/a
245.5712	n/a	RESPONSE	n/a	n/a	n/a	n/a	n/a	n/a	n/a	blue
245.6088	0.5167	FEEDBACK	n/a	n/a	n/a	n/a	n/a	n/a	n/a	n/a
246.1255	1.0167	ITI	n/a	n/a	n/a	n/a	n/a	n/a	n/a	n/a
247.1422	0.5167	FIXCROSS	n/a	n/a	n/a	n/a	n/a	n/a	n/a	n/a
247.6589	0.9167	T_COLOR_NAME	3	Neutral	czerwony	red	Neutral	Neutral	hit	n/a
248.5464	n/a	RESPONSE	n/a	n/a	n/a	n/a	n/a	n/a	n/a	red
248.5755	0.5167	FEEDBACK	n/a	n/a	n/a	n/a	n/a	n/a	n/a	n/a
249.0922	1.0167	ITI	n/a	n/a	n/a	n/a	n/a	n/a	n/a	n/a
250.1089	0.5167	FIXCROSS	n/a	n/a	n/a	n/a	n/a	n/a	n/a	n/a
250.6255	1.05	T_COLOR_NAME	4	Incongruent	zielony	green	żółty	yellow	incorrect	n/a
251.6497	n/a	RESPONSE	n/a	n/a	n/a	n/a	n/a	n/a	n/a	yellow
251.6755	0.5167	FEEDBACK	n/a	n/a	n/a	n/a	n/a	n/a	n/a	n/a
252.1922	1.0167	ITI	n/a	n/a	n/a	n/a	n/a	n/a	n/a	n/a
253.2089	0.5167	FIXCROSS	n/a	n/a	n/a	n/a	n/a	n/a	n/a	n/a
253.7256	0.7167	T_COLOR_NAME	5	Neutral	zielony	green	Neutral	Neutral	hit	n/a
254.417	n/a	RESPONSE	n/a	n/a	n/a	n/a	n/a	n/a	n/a	green
254.4422	0.5167	FEEDBACK	n/a	n/a	n/a	n/a	n/a	n/a	n/a	n/a
254.9589	1.0167	ITI	n/a	n/a	n/a	n/a	n/a	n/a	n/a	n/a
255.9756	0.5167	FIXCROSS	n/a	n/a	n/a	n/a	n/a	n/a	n/a	n/a
256.4922	0.7167	T_COLOR_NAME	6	Neutral	żółty	yellow	Neutral	Neutral	hit	n/a
257.1843	n/a	RESPONSE	n/a	n/a	n/a	n/a	n/a	n/a	n/a	yellow
257.2089	0.5167	FEEDBACK	n/a	n/a	n/a	n/a	n/a	n/a	n/a	n/a
257.7256	1.0167	ITI	n/a	n/a	n/a	n/a	n/a	n/a	n/a	n/a
258.7423	0.5167	FIXCROSS	n/a	n/a	n/a	n/a	n/a	n/a	n/a	n/a
259.2589	0.9167	T_COLOR_NAME	7	Incongruent	czerwony	red	żółty	yellow	hit	n/a
260.1436	n/a	RESPONSE	n/a	n/a	n/a	n/a	n/a	n/a	n/a	red
260.1756	0.5167	FEEDBACK	n/a	n/a	n/a	n/a	n/a	n/a	n/a	n/a
260.6923	1.0167	ITI	n/a	n/a	n/a	n/a	n/a	n/a	n/a	n/a
261.709	0.5167	FIXCROSS	n/a	n/a	n/a	n/a	n/a	n/a	n/a	n/a
262.2256	0.85	T_COLOR_NAME	8	Incongruent	żółty	yellow	niebieski	blue	hit	n/a
263.0548	n/a	RESPONSE	n/a	n/a	n/a	n/a	n/a	n/a	n/a	yellow
263.0756	0.5167	FEEDBACK	n/a	n/a	n/a	n/a	n/a	n/a	n/a	n/a
263.5923	1.0167	ITI	n/a	n/a	n/a	n/a	n/a	n/a	n/a	n/a
264.609	0.5167	FIXCROSS	n/a	n/a	n/a	n/a	n/a	n/a	n/a	n/a
265.1256	0.8	T_COLOR_NAME	9	Neutral	niebieski	blue	Neutral	Neutral	incorrect	n/a
265.9022	n/a	RESPONSE	n/a	n/a	n/a	n/a	n/a	n/a	n/a	red
265.9256	0.5167	FEEDBACK	n/a	n/a	n/a	n/a	n/a	n/a	n/a	n/a
266.4423	1.0167	ITI	n/a	n/a	n/a	n/a	n/a	n/a	n/a	n/a
267.459	0.5167	FIXCROSS	n/a	n/a	n/a	n/a	n/a	n/a	n/a	n/a
267.9757	1.4167	T_COLOR_NAME	10	Incongruent	zielony	green	czerwony	red	hit	n/a
269.3733	n/a	RESPONSE	n/a	n/a	n/a	n/a	n/a	n/a	n/a	green
269.3923	0.5167	FEEDBACK	n/a	n/a	n/a	n/a	n/a	n/a	n/a	n/a
269.909	1.0167	ITI	n/a	n/a	n/a	n/a	n/a	n/a	n/a	n/a
270.9257	0.5167	FIXCROSS	n/a	n/a	n/a	n/a	n/a	n/a	n/a	n/a
271.4424	1.0667	T_COLOR_NAME	11	Neutral	czerwony	red	Neutral	Neutral	hit	n/a
272.4765	n/a	RESPONSE	n/a	n/a	n/a	n/a	n/a	n/a	n/a	red
272.509	0.5167	FEEDBACK	n/a	n/a	n/a	n/a	n/a	n/a	n/a	n/a
273.0257	1.0167	ITI	n/a	n/a	n/a	n/a	n/a	n/a	n/a	n/a
274.0424	0.5167	FIXCROSS	n/a	n/a	n/a	n/a	n/a	n/a	n/a	n/a
274.559	0.9	T_COLOR_NAME	12	Incongruent	czerwony	red	zielony	green	hit	n/a
275.4358	n/a	RESPONSE	n/a	n/a	n/a	n/a	n/a	n/a	n/a	red
275.459	0.5167	FEEDBACK	n/a	n/a	n/a	n/a	n/a	n/a	n/a	n/a
275.9757	1.0333	ITI	n/a	n/a	n/a	n/a	n/a	n/a	n/a	n/a
284.8254	n/a	RESPONSE	n/a	n/a	n/a	n/a	n/a	n/a	n/a	n/a
284.8924	1.0167	ITI	n/a	n/a	n/a	n/a	n/a	n/a	n/a	n/a
285.9091	0.5167	FIXCROSS	n/a	n/a	n/a	n/a	n/a	n/a	n/a	n/a
286.4258	1.6833	COLOR_NAME	1	Incongruent	żółty	yellow	zielony	green	hit	n/a
288.0887	n/a	RESPONSE	n/a	n/a	n/a	n/a	n/a	n/a	n/a	yellow
288.1091	1.0167	ITI	n/a	n/a	n/a	n/a	n/a	n/a	n/a	n/a
289.1258	0.5167	FIXCROSS	n/a	n/a	n/a	n/a	n/a	n/a	n/a	n/a
289.6425	0.8333	COLOR_NAME	2	Neutral	czerwony	red	Neutral	Neutral	hit	n/a
290.4561	n/a	RESPONSE	n/a	n/a	n/a	n/a	n/a	n/a	n/a	red
290.4758	1.0167	ITI	n/a	n/a	n/a	n/a	n/a	n/a	n/a	n/a
291.4925	0.5167	FIXCROSS	n/a	n/a	n/a	n/a	n/a	n/a	n/a	n/a
292.0092	0.65	COLOR_NAME	3	Incongruent	czerwony	red	żółty	yellow	hit	n/a
292.6315	n/a	RESPONSE	n/a	n/a	n/a	n/a	n/a	n/a	n/a	red
292.6592	1.0167	ITI	n/a	n/a	n/a	n/a	n/a	n/a	n/a	n/a
293.6758	0.5167	FIXCROSS	n/a	n/a	n/a	n/a	n/a	n/a	n/a	n/a
294.1925	0.9667	COLOR_NAME	4	Neutral	zielony	green	Neutral	Neutral	hit	n/a
295.1269	n/a	RESPONSE	n/a	n/a	n/a	n/a	n/a	n/a	n/a	green
295.1592	1.0167	ITI	n/a	n/a	n/a	n/a	n/a	n/a	n/a	n/a
296.1759	0.5167	FIXCROSS	n/a	n/a	n/a	n/a	n/a	n/a	n/a	n/a
296.6925	0.7167	COLOR_NAME	5	Incongruent	czerwony	red	zielony	green	hit	n/a
297.3823	n/a	RESPONSE	n/a	n/a	n/a	n/a	n/a	n/a	n/a	red
297.4092	1.0167	ITI	n/a	n/a	n/a	n/a	n/a	n/a	n/a	n/a
298.4259	0.5167	FIXCROSS	n/a	n/a	n/a	n/a	n/a	n/a	n/a	n/a
298.9425	1.05	COLOR_NAME	6	Neutral	zielony	green	Neutral	Neutral	hit	n/a
299.9737	n/a	RESPONSE	n/a	n/a	n/a	n/a	n/a	n/a	n/a	green
299.9925	1.0167	ITI	n/a	n/a	n/a	n/a	n/a	n/a	n/a	n/a
301.0092	0.5167	FIXCROSS	n/a	n/a	n/a	n/a	n/a	n/a	n/a	n/a
301.5259	0.8167	COLOR_NAME	7	Incongruent	czerwony	red	żółty	yellow	hit	n/a
302.3091	n/a	RESPONSE	n/a	n/a	n/a	n/a	n/a	n/a	n/a	red
302.3426	1.0167	ITI	n/a	n/a	n/a	n/a	n/a	n/a	n/a	n/a
303.3592	0.5167	FIXCROSS	n/a	n/a	n/a	n/a	n/a	n/a	n/a	n/a
303.8759	0.9333	COLOR_NAME	8	Incongruent	żółty	yellow	niebieski	blue	hit	n/a
304.7885	n/a	RESPONSE	n/a	n/a	n/a	n/a	n/a	n/a	n/a	yellow
304.8092	1.0167	ITI	n/a	n/a	n/a	n/a	n/a	n/a	n/a	n/a
305.8259	0.5167	FIXCROSS	n/a	n/a	n/a	n/a	n/a	n/a	n/a	n/a
306.3426	0.7833	COLOR_NAME	9	Incongruent	zielony	green	żółty	yellow	hit	n/a
307.1079	n/a	RESPONSE	n/a	n/a	n/a	n/a	n/a	n/a	n/a	green
307.1259	1.0167	ITI	n/a	n/a	n/a	n/a	n/a	n/a	n/a	n/a
308.1426	0.5167	FIXCROSS	n/a	n/a	n/a	n/a	n/a	n/a	n/a	n/a
308.6593	0.8	COLOR_NAME	10	Incongruent	żółty	yellow	czerwony	red	hit	n/a
309.4273	n/a	RESPONSE	n/a	n/a	n/a	n/a	n/a	n/a	n/a	yellow
309.4593	1.0167	ITI	n/a	n/a	n/a	n/a	n/a	n/a	n/a	n/a
310.476	0.5167	FIXCROSS	n/a	n/a	n/a	n/a	n/a	n/a	n/a	n/a
310.9926	0.6	COLOR_NAME	11	Incongruent	żółty	yellow	czerwony	red	hit	n/a
311.5708	n/a	RESPONSE	n/a	n/a	n/a	n/a	n/a	n/a	n/a	yellow
311.5926	1.0167	ITI	n/a	n/a	n/a	n/a	n/a	n/a	n/a	n/a
312.6093	0.5167	FIXCROSS	n/a	n/a	n/a	n/a	n/a	n/a	n/a	n/a
313.126	0.95	COLOR_NAME	12	Incongruent	zielony	green	żółty	yellow	hit	n/a
314.0502	n/a	RESPONSE	n/a	n/a	n/a	n/a	n/a	n/a	n/a	green
314.076	1.0167	ITI	n/a	n/a	n/a	n/a	n/a	n/a	n/a	n/a
315.0926	0.5167	FIXCROSS	n/a	n/a	n/a	n/a	n/a	n/a	n/a	n/a
315.6093	0.6333	COLOR_NAME	13	Neutral	zielony	green	Neutral	Neutral	hit	n/a
316.2097	n/a	RESPONSE	n/a	n/a	n/a	n/a	n/a	n/a	n/a	green
316.2427	1.0167	ITI	n/a	n/a	n/a	n/a	n/a	n/a	n/a	n/a
317.2593	0.5167	FIXCROSS	n/a	n/a	n/a	n/a	n/a	n/a	n/a	n/a
317.776	0.55	COLOR_NAME	14	Neutral	zielony	green	Neutral	Neutral	hit	n/a
318.3052	n/a	RESPONSE	n/a	n/a	n/a	n/a	n/a	n/a	n/a	green
318.326	1.0167	ITI	n/a	n/a	n/a	n/a	n/a	n/a	n/a	n/a
319.3427	0.5167	FIXCROSS	n/a	n/a	n/a	n/a	n/a	n/a	n/a	n/a
319.8593	0.6667	COLOR_NAME	15	Neutral	żółty	yellow	Neutral	Neutral	hit	n/a
320.4966	n/a	RESPONSE	n/a	n/a	n/a	n/a	n/a	n/a	n/a	yellow
320.526	1.0167	ITI	n/a	n/a	n/a	n/a	n/a	n/a	n/a	n/a
321.5427	0.5167	FIXCROSS	n/a	n/a	n/a	n/a	n/a	n/a	n/a	n/a
322.0594	0.9	COLOR_NAME	16	Incongruent	zielony	green	niebieski	blue	hit	n/a
322.928	n/a	RESPONSE	n/a	n/a	n/a	n/a	n/a	n/a	n/a	green
322.9594	1.0167	ITI	n/a	n/a	n/a	n/a	n/a	n/a	n/a	n/a
323.976	0.5167	FIXCROSS	n/a	n/a	n/a	n/a	n/a	n/a	n/a	n/a
324.4927	0.7	COLOR_NAME	17	Incongruent	żółty	yellow	czerwony	red	hit	n/a
325.1675	n/a	RESPONSE	n/a	n/a	n/a	n/a	n/a	n/a	n/a	yellow
325.1927	1.0167	ITI	n/a	n/a	n/a	n/a	n/a	n/a	n/a	n/a
326.2094	0.5167	FIXCROSS	n/a	n/a	n/a	n/a	n/a	n/a	n/a	n/a
326.7261	0.7333	COLOR_NAME	18	Neutral	niebieski	blue	Neutral	Neutral	hit	n/a
327.4389	n/a	RESPONSE	n/a	n/a	n/a	n/a	n/a	n/a	n/a	blue
327.4594	1.0167	ITI	n/a	n/a	n/a	n/a	n/a	n/a	n/a	n/a
328.4761	0.5167	FIXCROSS	n/a	n/a	n/a	n/a	n/a	n/a	n/a	n/a
328.9928	0.65	COLOR_NAME	19	Incongruent	niebieski	blue	czerwony	red	hit	n/a
329.6144	n/a	RESPONSE	n/a	n/a	n/a	n/a	n/a	n/a	n/a	blue
329.6428	1.0167	ITI	n/a	n/a	n/a	n/a	n/a	n/a	n/a	n/a
330.6594	0.5167	FIXCROSS	n/a	n/a	n/a	n/a	n/a	n/a	n/a	n/a
331.1761	0.5833	COLOR_NAME	20	Neutral	niebieski	blue	Neutral	Neutral	hit	n/a
331.7419	n/a	RESPONSE	n/a	n/a	n/a	n/a	n/a	n/a	n/a	blue
331.7594	1.0167	ITI	n/a	n/a	n/a	n/a	n/a	n/a	n/a	n/a
332.7761	0.5167	FIXCROSS	n/a	n/a	n/a	n/a	n/a	n/a	n/a	n/a
333.2928	0.5833	COLOR_NAME	21	Incongruent	niebieski	blue	żółty	yellow	hit	n/a
333.8533	n/a	RESPONSE	n/a	n/a	n/a	n/a	n/a	n/a	n/a	blue
333.8761	1.0167	ITI	n/a	n/a	n/a	n/a	n/a	n/a	n/a	n/a
334.8928	0.5167	FIXCROSS	n/a	n/a	n/a	n/a	n/a	n/a	n/a	n/a
335.4095	0.95	COLOR_NAME	22	Neutral	czerwony	red	Neutral	Neutral	hit	n/a
336.3327	n/a	RESPONSE	n/a	n/a	n/a	n/a	n/a	n/a	n/a	red
336.3595	1.0167	ITI	n/a	n/a	n/a	n/a	n/a	n/a	n/a	n/a
337.3761	0.5167	FIXCROSS	n/a	n/a	n/a	n/a	n/a	n/a	n/a	n/a
337.8928	0.4833	COLOR_NAME	23	Incongruent	czerwony	red	niebieski	blue	hit	n/a
338.3482	n/a	RESPONSE	n/a	n/a	n/a	n/a	n/a	n/a	n/a	red
338.3761	1.0167	ITI	n/a	n/a	n/a	n/a	n/a	n/a	n/a	n/a
339.3928	0.5167	FIXCROSS	n/a	n/a	n/a	n/a	n/a	n/a	n/a	n/a
339.9095	0.65	COLOR_NAME	24	Neutral	niebieski	blue	Neutral	Neutral	hit	n/a
340.5397	n/a	RESPONSE	n/a	n/a	n/a	n/a	n/a	n/a	n/a	blue
340.5595	1.0167	ITI	n/a	n/a	n/a	n/a	n/a	n/a	n/a	n/a
341.5762	0.5167	FIXCROSS	n/a	n/a	n/a	n/a	n/a	n/a	n/a	n/a
342.0928	0.6667	COLOR_NAME	25	Neutral	czerwony	red	Neutral	Neutral	hit	n/a
342.7311	n/a	RESPONSE	n/a	n/a	n/a	n/a	n/a	n/a	n/a	red
342.7595	1.0167	ITI	n/a	n/a	n/a	n/a	n/a	n/a	n/a	n/a
343.7762	0.5167	FIXCROSS	n/a	n/a	n/a	n/a	n/a	n/a	n/a	n/a
344.2928	0.9167	COLOR_NAME	26	Neutral	zielony	green	Neutral	Neutral	hit	n/a
345.1785	n/a	RESPONSE	n/a	n/a	n/a	n/a	n/a	n/a	n/a	green
345.2095	1.0167	ITI	n/a	n/a	n/a	n/a	n/a	n/a	n/a	n/a
346.2262	0.5167	FIXCROSS	n/a	n/a	n/a	n/a	n/a	n/a	n/a	n/a
346.7429	0.7	COLOR_NAME	27	Incongruent	niebieski	blue	żółty	yellow	hit	n/a
347.4179	n/a	RESPONSE	n/a	n/a	n/a	n/a	n/a	n/a	n/a	blue
347.4429	1.0167	ITI	n/a	n/a	n/a	n/a	n/a	n/a	n/a	n/a
348.4596	0.5167	FIXCROSS	n/a	n/a	n/a	n/a	n/a	n/a	n/a	n/a
348.9762	0.7333	COLOR_NAME	28	Neutral	czerwony	red	Neutral	Neutral	hit	n/a
349.6894	n/a	RESPONSE	n/a	n/a	n/a	n/a	n/a	n/a	n/a	red
349.7096	1.0167	ITI	n/a	n/a	n/a	n/a	n/a	n/a	n/a	n/a
350.7262	0.5167	FIXCROSS	n/a	n/a	n/a	n/a	n/a	n/a	n/a	n/a
351.2429	0.6833	COLOR_NAME	29	Neutral	żółty	yellow	Neutral	Neutral	hit	n/a
351.8968	n/a	RESPONSE	n/a	n/a	n/a	n/a	n/a	n/a	n/a	yellow
351.9262	1.0167	ITI	n/a	n/a	n/a	n/a	n/a	n/a	n/a	n/a
352.9429	0.5167	FIXCROSS	n/a	n/a	n/a	n/a	n/a	n/a	n/a	n/a
353.4596	0.6667	COLOR_NAME	30	Incongruent	niebieski	blue	zielony	green	hit	n/a
354.1042	n/a	RESPONSE	n/a	n/a	n/a	n/a	n/a	n/a	n/a	blue
354.1263	1.0167	ITI	n/a	n/a	n/a	n/a	n/a	n/a	n/a	n/a
355.1429	0.5167	FIXCROSS	n/a	n/a	n/a	n/a	n/a	n/a	n/a	n/a
355.6596	0.4833	COLOR_NAME	31	Neutral	niebieski	blue	Neutral	Neutral	hit	n/a
356.1198	n/a	RESPONSE	n/a	n/a	n/a	n/a	n/a	n/a	n/a	blue
356.1429	1.0167	ITI	n/a	n/a	n/a	n/a	n/a	n/a	n/a	n/a
357.1596	0.5167	FIXCROSS	n/a	n/a	n/a	n/a	n/a	n/a	n/a	n/a
357.6763	0.75	COLOR_NAME	32	Neutral	żółty	yellow	Neutral	Neutral	hit	n/a
358.4072	n/a	RESPONSE	n/a	n/a	n/a	n/a	n/a	n/a	n/a	yellow
358.4263	1.0167	ITI	n/a	n/a	n/a	n/a	n/a	n/a	n/a	n/a
359.443	0.5167	FIXCROSS	n/a	n/a	n/a	n/a	n/a	n/a	n/a	n/a
359.9596	0.75	COLOR_NAME	33	Incongruent	czerwony	red	zielony	green	hit	n/a
360.6787	n/a	RESPONSE	n/a	n/a	n/a	n/a	n/a	n/a	n/a	red
360.7096	1.0167	ITI	n/a	n/a	n/a	n/a	n/a	n/a	n/a	n/a
361.7263	0.5167	FIXCROSS	n/a	n/a	n/a	n/a	n/a	n/a	n/a	n/a
362.243	0.4833	COLOR_NAME	34	Neutral	czerwony	red	Neutral	Neutral	hit	n/a
362.6942	n/a	RESPONSE	n/a	n/a	n/a	n/a	n/a	n/a	n/a	red
362.7263	1.0167	ITI	n/a	n/a	n/a	n/a	n/a	n/a	n/a	n/a
363.743	0.5167	FIXCROSS	n/a	n/a	n/a	n/a	n/a	n/a	n/a	n/a
364.2597	0.6667	COLOR_NAME	35	Neutral	żółty	yellow	Neutral	Neutral	hit	n/a
364.9016	n/a	RESPONSE	n/a	n/a	n/a	n/a	n/a	n/a	n/a	yellow
364.9263	1.0167	ITI	n/a	n/a	n/a	n/a	n/a	n/a	n/a	n/a
365.943	0.5167	FIXCROSS	n/a	n/a	n/a	n/a	n/a	n/a	n/a	n/a
366.4597	0.5833	COLOR_NAME	36	Incongruent	niebieski	blue	zielony	green	hit	n/a
367.0131	n/a	RESPONSE	n/a	n/a	n/a	n/a	n/a	n/a	n/a	blue
367.043	1.0167	ITI	n/a	n/a	n/a	n/a	n/a	n/a	n/a	n/a
368.0597	0.5167	FIXCROSS	n/a	n/a	n/a	n/a	n/a	n/a	n/a	n/a
368.5764	0.5833	COLOR_NAME	37	Neutral	czerwony	red	Neutral	Neutral	hit	n/a
369.1406	n/a	RESPONSE	n/a	n/a	n/a	n/a	n/a	n/a	n/a	red
369.1597	1.0167	ITI	n/a	n/a	n/a	n/a	n/a	n/a	n/a	n/a
370.1764	0.5167	FIXCROSS	n/a	n/a	n/a	n/a	n/a	n/a	n/a	n/a
370.693	0.5833	COLOR_NAME	38	Neutral	niebieski	blue	Neutral	Neutral	hit	n/a
371.252	n/a	RESPONSE	n/a	n/a	n/a	n/a	n/a	n/a	n/a	blue
371.2764	1.0167	ITI	n/a	n/a	n/a	n/a	n/a	n/a	n/a	n/a
372.293	0.5167	FIXCROSS	n/a	n/a	n/a	n/a	n/a	n/a	n/a	n/a
372.8097	0.5833	COLOR_NAME	39	Neutral	czerwony	red	Neutral	Neutral	hit	n/a
373.3635	n/a	RESPONSE	n/a	n/a	n/a	n/a	n/a	n/a	n/a	red
373.393	1.0167	ITI	n/a	n/a	n/a	n/a	n/a	n/a	n/a	n/a
374.4097	0.5167	FIXCROSS	n/a	n/a	n/a	n/a	n/a	n/a	n/a	n/a
374.9264	0.55	COLOR_NAME	40	Neutral	niebieski	blue	Neutral	Neutral	hit	n/a
375.443	n/a	RESPONSE	n/a	n/a	n/a	n/a	n/a	n/a	n/a	blue
375.4764	1.0167	ITI	n/a	n/a	n/a	n/a	n/a	n/a	n/a	n/a
376.4931	0.5167	FIXCROSS	n/a	n/a	n/a	n/a	n/a	n/a	n/a	n/a
377.0097	1.0	COLOR_NAME	41	Incongruent	żółty	yellow	zielony	green	hit	n/a
377.9864	n/a	RESPONSE	n/a	n/a	n/a	n/a	n/a	n/a	n/a	yellow
378.0098	1.0167	ITI	n/a	n/a	n/a	n/a	n/a	n/a	n/a	n/a
379.0264	0.5167	FIXCROSS	n/a	n/a	n/a	n/a	n/a	n/a	n/a	n/a
379.5431	0.9	COLOR_NAME	42	Incongruent	zielony	green	czerwony	red	hit	n/a
380.4178	n/a	RESPONSE	n/a	n/a	n/a	n/a	n/a	n/a	n/a	green
380.4431	1.0167	ITI	n/a	n/a	n/a	n/a	n/a	n/a	n/a	n/a
381.4598	0.5167	FIXCROSS	n/a	n/a	n/a	n/a	n/a	n/a	n/a	n/a
381.9764	0.8167	COLOR_NAME	43	Neutral	żółty	yellow	Neutral	Neutral	hit	n/a
382.7692	n/a	RESPONSE	n/a	n/a	n/a	n/a	n/a	n/a	n/a	yellow
382.7931	1.0167	ITI	n/a	n/a	n/a	n/a	n/a	n/a	n/a	n/a
383.8098	0.5167	FIXCROSS	n/a	n/a	n/a	n/a	n/a	n/a	n/a	n/a
384.3265	0.7333	COLOR_NAME	44	Neutral	niebieski	blue	Neutral	Neutral	hit	n/a
385.0406	n/a	RESPONSE	n/a	n/a	n/a	n/a	n/a	n/a	n/a	blue
385.0598	1.0167	ITI	n/a	n/a	n/a	n/a	n/a	n/a	n/a	n/a
386.0765	0.5167	FIXCROSS	n/a	n/a	n/a	n/a	n/a	n/a	n/a	n/a
386.5931	0.9	COLOR_NAME	45	Incongruent	zielony	green	niebieski	blue	hit	n/a
387.4721	n/a	RESPONSE	n/a	n/a	n/a	n/a	n/a	n/a	n/a	green
387.4931	1.0167	ITI	n/a	n/a	n/a	n/a	n/a	n/a	n/a	n/a
388.5098	0.5167	FIXCROSS	n/a	n/a	n/a	n/a	n/a	n/a	n/a	n/a
389.0265	0.5333	COLOR_NAME	46	Incongruent	zielony	green	niebieski	blue	hit	n/a
389.5355	n/a	RESPONSE	n/a	n/a	n/a	n/a	n/a	n/a	n/a	green
389.5598	1.0167	ITI	n/a	n/a	n/a	n/a	n/a	n/a	n/a	n/a
390.5765	0.5167	FIXCROSS	n/a	n/a	n/a	n/a	n/a	n/a	n/a	n/a
391.0932	0.55	COLOR_NAME	47	Neutral	zielony	green	Neutral	Neutral	hit	n/a
391.615	n/a	RESPONSE	n/a	n/a	n/a	n/a	n/a	n/a	n/a	green
391.6432	1.0167	ITI	n/a	n/a	n/a	n/a	n/a	n/a	n/a	n/a
392.6599	0.5167	FIXCROSS	n/a	n/a	n/a	n/a	n/a	n/a	n/a	n/a
393.1765	0.7833	COLOR_NAME	48	Incongruent	niebieski	blue	czerwony	red	hit	n/a
393.9345	n/a	RESPONSE	n/a	n/a	n/a	n/a	n/a	n/a	n/a	blue
393.9599	1.0167	ITI	n/a	n/a	n/a	n/a	n/a	n/a	n/a	n/a
394.9765	0.5167	FIXCROSS	n/a	n/a	n/a	n/a	n/a	n/a	n/a	n/a
395.4932	0.8167	COLOR_NAME	49	Neutral	żółty	yellow	Neutral	Neutral	hit	n/a
396.2859	n/a	RESPONSE	n/a	n/a	n/a	n/a	n/a	n/a	n/a	yellow
396.3099	1.0167	ITI	n/a	n/a	n/a	n/a	n/a	n/a	n/a	n/a
397.3266	0.5167	FIXCROSS	n/a	n/a	n/a	n/a	n/a	n/a	n/a	n/a
397.8432	0.7333	COLOR_NAME	50	Incongruent	czerwony	red	żółty	yellow	hit	n/a
398.5573	n/a	RESPONSE	n/a	n/a	n/a	n/a	n/a	n/a	n/a	red
398.5766	1.0167	ITI	n/a	n/a	n/a	n/a	n/a	n/a	n/a	n/a
399.5932	0.5167	FIXCROSS	n/a	n/a	n/a	n/a	n/a	n/a	n/a	n/a
400.1099	0.55	COLOR_NAME	51	Incongruent	niebieski	blue	żółty	yellow	hit	n/a
400.6368	n/a	RESPONSE	n/a	n/a	n/a	n/a	n/a	n/a	n/a	blue
400.6599	1.0167	ITI	n/a	n/a	n/a	n/a	n/a	n/a	n/a	n/a
401.6766	0.5167	FIXCROSS	n/a	n/a	n/a	n/a	n/a	n/a	n/a	n/a
402.1933	0.95	COLOR_NAME	52	Incongruent	czerwony	red	niebieski	blue	hit	n/a
403.1162	n/a	RESPONSE	n/a	n/a	n/a	n/a	n/a	n/a	n/a	red
403.1433	1.0167	ITI	n/a	n/a	n/a	n/a	n/a	n/a	n/a	n/a
404.1599	0.5167	FIXCROSS	n/a	n/a	n/a	n/a	n/a	n/a	n/a	n/a
404.6766	0.65	COLOR_NAME	53	Neutral	czerwony	red	Neutral	Neutral	hit	n/a
405.3076	n/a	RESPONSE	n/a	n/a	n/a	n/a	n/a	n/a	n/a	red
405.3266	1.0167	ITI	n/a	n/a	n/a	n/a	n/a	n/a	n/a	n/a
406.3433	0.5167	FIXCROSS	n/a	n/a	n/a	n/a	n/a	n/a	n/a	n/a
406.8599	0.65	COLOR_NAME	54	Incongruent	czerwony	red	zielony	green	hit	n/a
407.4831	n/a	RESPONSE	n/a	n/a	n/a	n/a	n/a	n/a	n/a	red
407.51	1.0167	ITI	n/a	n/a	n/a	n/a	n/a	n/a	n/a	n/a
408.5266	0.5167	FIXCROSS	n/a	n/a	n/a	n/a	n/a	n/a	n/a	n/a
409.0433	0.7833	COLOR_NAME	55	Incongruent	zielony	green	żółty	yellow	incorrect	n/a
409.8025	n/a	RESPONSE	n/a	n/a	n/a	n/a	n/a	n/a	n/a	yellow
409.8266	1.0167	ITI	n/a	n/a	n/a	n/a	n/a	n/a	n/a	n/a
410.8433	0.5167	FIXCROSS	n/a	n/a	n/a	n/a	n/a	n/a	n/a	n/a
411.36	0.8	COLOR_NAME	56	Incongruent	żółty	yellow	niebieski	blue	hit	n/a
412.1379	n/a	RESPONSE	n/a	n/a	n/a	n/a	n/a	n/a	n/a	yellow
412.16	1.0167	ITI	n/a	n/a	n/a	n/a	n/a	n/a	n/a	n/a
413.1767	0.5167	FIXCROSS	n/a	n/a	n/a	n/a	n/a	n/a	n/a	n/a
413.6933	0.65	COLOR_NAME	57	Incongruent	niebieski	blue	zielony	green	hit	n/a
414.3134	n/a	RESPONSE	n/a	n/a	n/a	n/a	n/a	n/a	n/a	blue
414.3433	1.0167	ITI	n/a	n/a	n/a	n/a	n/a	n/a	n/a	n/a
415.36	0.5167	FIXCROSS	n/a	n/a	n/a	n/a	n/a	n/a	n/a	n/a
415.8767	0.6	COLOR_NAME	58	Incongruent	niebieski	blue	czerwony	red	hit	n/a
416.4569	n/a	RESPONSE	n/a	n/a	n/a	n/a	n/a	n/a	n/a	blue
416.4767	1.0167	ITI	n/a	n/a	n/a	n/a	n/a	n/a	n/a	n/a
417.4933	0.5167	FIXCROSS	n/a	n/a	n/a	n/a	n/a	n/a	n/a	n/a
418.01	0.7167	COLOR_NAME	59	Neutral	czerwony	red	Neutral	Neutral	hit	n/a
418.6963	n/a	RESPONSE	n/a	n/a	n/a	n/a	n/a	n/a	n/a	red
418.7267	1.0167	ITI	n/a	n/a	n/a	n/a	n/a	n/a	n/a	n/a
419.7434	0.5167	FIXCROSS	n/a	n/a	n/a	n/a	n/a	n/a	n/a	n/a
420.26	1.05	COLOR_NAME	60	Neutral	żółty	yellow	Neutral	Neutral	hit	n/a
421.2877	n/a	RESPONSE	n/a	n/a	n/a	n/a	n/a	n/a	n/a	yellow
421.31	1.0167	ITI	n/a	n/a	n/a	n/a	n/a	n/a	n/a	n/a
422.3267	0.5167	FIXCROSS	n/a	n/a	n/a	n/a	n/a	n/a	n/a	n/a
422.8434	0.85	COLOR_NAME	61	Neutral	zielony	green	Neutral	Neutral	hit	n/a
423.6711	n/a	RESPONSE	n/a	n/a	n/a	n/a	n/a	n/a	n/a	green
423.6934	1.0167	ITI	n/a	n/a	n/a	n/a	n/a	n/a	n/a	n/a
424.7101	0.5167	FIXCROSS	n/a	n/a	n/a	n/a	n/a	n/a	n/a	n/a
425.2267	0.6333	COLOR_NAME	62	Neutral	zielony	green	Neutral	Neutral	hit	n/a
425.8306	n/a	RESPONSE	n/a	n/a	n/a	n/a	n/a	n/a	n/a	green
425.8601	1.0167	ITI	n/a	n/a	n/a	n/a	n/a	n/a	n/a	n/a
426.8768	0.5167	FIXCROSS	n/a	n/a	n/a	n/a	n/a	n/a	n/a	n/a
427.3934	0.75	COLOR_NAME	63	Incongruent	zielony	green	czerwony	red	hit	n/a
428.118	n/a	RESPONSE	n/a	n/a	n/a	n/a	n/a	n/a	n/a	green
428.1434	1.0167	ITI	n/a	n/a	n/a	n/a	n/a	n/a	n/a	n/a
429.1601	0.5167	FIXCROSS	n/a	n/a	n/a	n/a	n/a	n/a	n/a	n/a
429.6768	0.5667	COLOR_NAME	64	Neutral	zielony	green	Neutral	Neutral	hit	n/a
430.2134	n/a	RESPONSE	n/a	n/a	n/a	n/a	n/a	n/a	n/a	green
430.2434	1.0167	ITI	n/a	n/a	n/a	n/a	n/a	n/a	n/a	n/a
431.2601	0.5167	FIXCROSS	n/a	n/a	n/a	n/a	n/a	n/a	n/a	n/a
431.7768	1.0167	COLOR_NAME	65	Incongruent	czerwony	red	niebieski	blue	hit	n/a
432.7728	n/a	RESPONSE	n/a	n/a	n/a	n/a	n/a	n/a	n/a	red
432.7935	1.0167	ITI	n/a	n/a	n/a	n/a	n/a	n/a	n/a	n/a
433.8101	0.5167	FIXCROSS	n/a	n/a	n/a	n/a	n/a	n/a	n/a	n/a
434.3268	0.55	COLOR_NAME	66	Neutral	niebieski	blue	Neutral	Neutral	hit	n/a
434.8523	n/a	RESPONSE	n/a	n/a	n/a	n/a	n/a	n/a	n/a	blue
434.8768	1.0167	ITI	n/a	n/a	n/a	n/a	n/a	n/a	n/a	n/a
435.8935	0.5167	FIXCROSS	n/a	n/a	n/a	n/a	n/a	n/a	n/a	n/a
436.4102	0.7833	COLOR_NAME	67	Neutral	żółty	yellow	Neutral	Neutral	hit	n/a
437.1717	n/a	RESPONSE	n/a	n/a	n/a	n/a	n/a	n/a	n/a	yellow
437.1935	1.0167	ITI	n/a	n/a	n/a	n/a	n/a	n/a	n/a	n/a
438.2102	0.5167	FIXCROSS	n/a	n/a	n/a	n/a	n/a	n/a	n/a	n/a
438.7268	0.55	COLOR_NAME	68	Neutral	żółty	yellow	Neutral	Neutral	hit	n/a
439.2512	n/a	RESPONSE	n/a	n/a	n/a	n/a	n/a	n/a	n/a	yellow
439.2768	1.0167	ITI	n/a	n/a	n/a	n/a	n/a	n/a	n/a	n/a
440.2935	0.5167	FIXCROSS	n/a	n/a	n/a	n/a	n/a	n/a	n/a	n/a
440.8102	0.55	COLOR_NAME	69	Incongruent	żółty	yellow	zielony	green	hit	n/a
441.3307	n/a	RESPONSE	n/a	n/a	n/a	n/a	n/a	n/a	n/a	yellow
441.3602	1.0167	ITI	n/a	n/a	n/a	n/a	n/a	n/a	n/a	n/a
442.3769	0.5167	FIXCROSS	n/a	n/a	n/a	n/a	n/a	n/a	n/a	n/a
442.8935	0.6333	COLOR_NAME	70	Neutral	niebieski	blue	Neutral	Neutral	hit	n/a
443.5062	n/a	RESPONSE	n/a	n/a	n/a	n/a	n/a	n/a	n/a	blue
443.5269	1.0167	ITI	n/a	n/a	n/a	n/a	n/a	n/a	n/a	n/a
444.5435	0.5167	FIXCROSS	n/a	n/a	n/a	n/a	n/a	n/a	n/a	n/a
445.0602	0.8667	COLOR_NAME	71	Incongruent	zielony	green	czerwony	red	hit	n/a
445.9056	n/a	RESPONSE	n/a	n/a	n/a	n/a	n/a	n/a	n/a	green
445.9269	1.0167	ITI	n/a	n/a	n/a	n/a	n/a	n/a	n/a	n/a
446.9436	0.5167	FIXCROSS	n/a	n/a	n/a	n/a	n/a	n/a	n/a	n/a
447.4602	0.6667	COLOR_NAME	72	Incongruent	żółty	yellow	niebieski	blue	hit	n/a
448.097	n/a	RESPONSE	n/a	n/a	n/a	n/a	n/a	n/a	n/a	yellow
448.1269	1.0334	ITI	n/a	n/a	n/a	n/a	n/a	n/a	n/a	n/a
451.2802	n/a	RESPONSE	n/a	n/a	n/a	n/a	n/a	n/a	n/a	n/a
