onset	duration	trial_type	melody_number	melody_part	key	sound	action
0.0	14.085	CUE_START	n/a	n/a	n/a	n/a	n/a
14.086	7.759	FIXCROSS	n/a	n/a	n/a	n/a	n/a
21.845	6.316	CUE_LISTEN	M1	1	n/a	n/a	n/a
28.161	7.759	FIXCROSS	n/a	n/a	n/a	n/a	n/a
35.919	6.325	CUE_PLAYBACK_RIGHT_HAND	M1	1	n/a	n/a	n/a
36.949	n/a	RESPONSE	M1	1	19	G4	press
37.491	n/a	RESPONSE	M1	1	19	G4	release
37.753	n/a	RESPONSE	M1	1	16	E4	press
38.134	n/a	RESPONSE	M1	1	16	E4	release
38.436	n/a	RESPONSE	M1	1	16	E4	press
38.856	n/a	RESPONSE	M1	1	16	E4	release
39.108	n/a	RESPONSE	M1	1	17	F4	press
39.599	n/a	RESPONSE	M1	1	17	F4	release
39.91	n/a	RESPONSE	M1	1	14	D4	press
40.301	n/a	RESPONSE	M1	1	14	D4	release
40.613	n/a	RESPONSE	M1	1	14	D4	press
40.974	n/a	RESPONSE	M1	1	14	D4	release
41.286	n/a	RESPONSE	M1	1	12	C4	press
41.666	n/a	RESPONSE	M1	1	12	C4	release
41.778	n/a	RESPONSE	M1	1	16	E4	press
42.119	n/a	RESPONSE	M1	1	16	E4	release
42.24	n/a	RESPONSE	M1	1	19	G4	press
42.244	7.758	FIXCROSS	n/a	n/a	n/a	n/a	n/a
42.888	n/a	RESPONSE	M1	1	19	G4	release
50.002	6.317	CUE_LISTEN	M1	2	n/a	n/a	n/a
56.319	7.758	FIXCROSS	n/a	n/a	n/a	n/a	n/a
64.077	6.317	CUE_PLAYBACK_RIGHT_HAND	M1	2	n/a	n/a	n/a
64.81	n/a	RESPONSE	M1	2	19	G4	press
65.281	n/a	RESPONSE	M1	2	19	G4	release
65.468	n/a	RESPONSE	M1	2	16	E4	press
65.841	n/a	RESPONSE	M1	2	16	E4	release
66.06	n/a	RESPONSE	M1	2	16	E4	press
66.456	n/a	RESPONSE	M1	2	16	E4	release
66.676	n/a	RESPONSE	M1	2	17	F4	press
67.089	n/a	RESPONSE	M1	2	17	F4	release
67.34	n/a	RESPONSE	M1	2	14	D4	press
67.711	n/a	RESPONSE	M1	2	14	D4	release
67.955	n/a	RESPONSE	M1	2	14	D4	press
68.304	n/a	RESPONSE	M1	2	14	D4	release
68.575	n/a	RESPONSE	M1	2	12	C4	press
68.946	n/a	RESPONSE	M1	2	12	C4	release
68.978	n/a	RESPONSE	M1	2	16	E4	press
69.241	n/a	RESPONSE	M1	2	16	E4	release
69.401	n/a	RESPONSE	M1	2	12	C4	press
70.211	n/a	RESPONSE	M1	2	12	C4	release
70.394	7.758	FIXCROSS	n/a	n/a	n/a	n/a	n/a
78.152	6.325	CUE_LISTEN	M1	1	n/a	n/a	n/a
84.477	7.758	FIXCROSS	n/a	n/a	n/a	n/a	n/a
92.236	6.317	CUE_PLAYBACK_BOTH_HANDS	M1	1	n/a	n/a	n/a
93.325	n/a	RESPONSE	M1	1	07	G3	press
93.378	n/a	RESPONSE	M1	1	19	G4	press
93.809	n/a	RESPONSE	M1	1	19	G4	release
94.014	n/a	RESPONSE	M1	1	04	E3	press
94.069	n/a	RESPONSE	M1	1	16	E4	press
94.392	n/a	RESPONSE	M1	1	16	E4	release
94.656	n/a	RESPONSE	M1	1	16	E4	press
95.04	n/a	RESPONSE	M1	1	16	E4	release
95.141	n/a	RESPONSE	M1	1	04	E3	release
95.291	n/a	RESPONSE	M1	1	05	F3	press
95.31	n/a	RESPONSE	M1	1	17	F4	press
95.686	n/a	RESPONSE	M1	1	07	G3	release
95.715	n/a	RESPONSE	M1	1	17	F4	release
95.77	n/a	RESPONSE	M1	1	05	F3	release
95.961	n/a	RESPONSE	M1	1	02	D3	press
96.002	n/a	RESPONSE	M1	1	14	D4	press
96.379	n/a	RESPONSE	M1	1	02	D3	release
96.381	n/a	RESPONSE	M1	1	14	D4	release
96.591	n/a	RESPONSE	M1	1	02	D3	press
96.652	n/a	RESPONSE	M1	1	14	D4	press
96.996	n/a	RESPONSE	M1	1	14	D4	release
97.006	n/a	RESPONSE	M1	1	02	D3	release
97.168	n/a	RESPONSE	M1	1	00	C3	press
97.259	n/a	RESPONSE	M1	1	12	C4	press
97.601	n/a	RESPONSE	M1	1	12	C4	release
97.801	n/a	RESPONSE	M1	1	00	C3	release
97.805	n/a	RESPONSE	M1	1	04	E3	press
98.104	n/a	RESPONSE	M1	1	04	E3	release
98.435	n/a	RESPONSE	M1	1	04	E3	press
98.456	n/a	RESPONSE	M1	1	16	E4	press
98.552	7.758	FIXCROSS	n/a	n/a	n/a	n/a	n/a
98.768	n/a	RESPONSE	M1	1	16	E4	release
98.801	n/a	RESPONSE	M1	1	04	E3	release
98.921	n/a	RESPONSE	M1	1	07	G3	press
99.004	n/a	RESPONSE	M1	1	19	G4	press
99.504	n/a	RESPONSE	M1	1	19	G4	release
99.655	n/a	RESPONSE	M1	1	07	G3	release
106.311	6.333	CUE_LISTEN	M1	2	n/a	n/a	n/a
112.644	7.758	FIXCROSS	n/a	n/a	n/a	n/a	n/a
120.402	6.308	CUE_PLAYBACK_BOTH_HANDS	M1	2	n/a	n/a	n/a
121.018	n/a	RESPONSE	M1	2	07	G3	press
121.029	n/a	RESPONSE	M1	2	19	G4	press
121.488	n/a	RESPONSE	M1	2	19	G4	release
121.689	n/a	RESPONSE	M1	2	04	E3	press
121.73	n/a	RESPONSE	M1	2	16	E4	press
122.071	n/a	RESPONSE	M1	2	16	E4	release
122.112	n/a	RESPONSE	M1	2	04	E3	release
122.274	n/a	RESPONSE	M1	2	04	E3	press
122.315	n/a	RESPONSE	M1	2	16	E4	press
122.666	n/a	RESPONSE	M1	2	16	E4	release
122.741	n/a	RESPONSE	M1	2	04	E3	release
122.864	n/a	RESPONSE	M1	2	05	F3	press
122.898	n/a	RESPONSE	M1	2	17	F4	press
123.321	n/a	RESPONSE	M1	2	17	F4	release
123.356	n/a	RESPONSE	M1	2	05	F3	release
123.529	n/a	RESPONSE	M1	2	02	D3	press
123.551	n/a	RESPONSE	M1	2	14	D4	press
123.826	n/a	RESPONSE	M1	2	07	G3	release
123.874	n/a	RESPONSE	M1	2	14	D4	release
123.964	n/a	RESPONSE	M1	2	02	D3	release
124.122	n/a	RESPONSE	M1	2	02	D3	press
124.195	n/a	RESPONSE	M1	2	14	D4	press
124.514	n/a	RESPONSE	M1	2	14	D4	release
124.528	n/a	RESPONSE	M1	2	02	D3	release
124.731	n/a	RESPONSE	M1	2	00	C3	press
124.804	n/a	RESPONSE	M1	2	12	C4	press
125.162	n/a	RESPONSE	M1	2	12	C4	release
125.232	n/a	RESPONSE	M1	2	04	E3	press
125.271	n/a	RESPONSE	M1	2	16	E4	press
125.546	n/a	RESPONSE	M1	2	16	E4	release
125.609	n/a	RESPONSE	M1	2	04	E3	release
125.634	n/a	RESPONSE	M1	2	12	C4	press
126.302	n/a	RESPONSE	M1	2	12	C4	release
126.334	n/a	RESPONSE	M1	2	00	C3	release
126.711	7.758	FIXCROSS	n/a	n/a	n/a	n/a	n/a
134.469	6.317	CUE_LISTEN	M1	1	n/a	n/a	n/a
140.786	7.758	FIXCROSS	n/a	n/a	n/a	n/a	n/a
148.544	6.317	CUE_PLAYBACK_RIGHT_HAND	M1	1	n/a	n/a	n/a
149.147	n/a	RESPONSE	M1	1	19	G4	press
149.63	n/a	RESPONSE	M1	1	19	G4	release
149.771	n/a	RESPONSE	M1	1	16	E4	press
150.161	n/a	RESPONSE	M1	1	16	E4	release
150.372	n/a	RESPONSE	M1	1	16	E4	press
150.744	n/a	RESPONSE	M1	1	16	E4	release
150.915	n/a	RESPONSE	M1	1	17	F4	press
151.336	n/a	RESPONSE	M1	1	17	F4	release
151.509	n/a	RESPONSE	M1	1	14	D4	press
151.839	n/a	RESPONSE	M1	1	14	D4	release
152.091	n/a	RESPONSE	M1	1	14	D4	press
152.461	n/a	RESPONSE	M1	1	14	D4	release
152.715	n/a	RESPONSE	M1	1	12	C4	press
153.008	n/a	RESPONSE	M1	1	12	C4	release
153.07	n/a	RESPONSE	M1	1	16	E4	press
153.362	n/a	RESPONSE	M1	1	16	E4	release
153.445	n/a	RESPONSE	M1	1	19	G4	press
154.089	n/a	RESPONSE	M1	1	19	G4	release
154.861	7.758	FIXCROSS	n/a	n/a	n/a	n/a	n/a
162.619	6.325	CUE_LISTEN	M1	2	n/a	n/a	n/a
168.944	7.758	FIXCROSS	n/a	n/a	n/a	n/a	n/a
176.702	6.317	CUE_PLAYBACK_RIGHT_HAND	M1	2	n/a	n/a	n/a
177.221	n/a	RESPONSE	M1	2	19	G4	press
177.642	n/a	RESPONSE	M1	2	19	G4	release
177.854	n/a	RESPONSE	M1	2	16	E4	press
178.206	n/a	RESPONSE	M1	2	16	E4	release
178.396	n/a	RESPONSE	M1	2	16	E4	press
178.757	n/a	RESPONSE	M1	2	16	E4	release
178.891	n/a	RESPONSE	M1	2	17	F4	press
179.3	n/a	RESPONSE	M1	2	17	F4	release
179.524	n/a	RESPONSE	M1	2	14	D4	press
179.872	n/a	RESPONSE	M1	2	14	D4	release
180.105	n/a	RESPONSE	M1	2	14	D4	press
180.415	n/a	RESPONSE	M1	2	14	D4	release
180.646	n/a	RESPONSE	M1	2	12	C4	press
180.97	n/a	RESPONSE	M1	2	12	C4	release
181.019	n/a	RESPONSE	M1	2	16	E4	press
181.291	n/a	RESPONSE	M1	2	16	E4	release
181.401	n/a	RESPONSE	M1	2	12	C4	press
182.172	n/a	RESPONSE	M1	2	12	C4	release
183.019	7.758	FIXCROSS	n/a	n/a	n/a	n/a	n/a
190.778	6.325	CUE_LISTEN	M1	1	n/a	n/a	n/a
197.102	7.758	FIXCROSS	n/a	n/a	n/a	n/a	n/a
204.861	6.317	CUE_PLAYBACK_BOTH_HANDS	M1	1	n/a	n/a	n/a
205.515	n/a	RESPONSE	M1	1	07	G3	press
205.517	n/a	RESPONSE	M1	1	19	G4	press
205.97	n/a	RESPONSE	M1	1	19	G4	release
206.135	n/a	RESPONSE	M1	1	04	E3	press
206.166	n/a	RESPONSE	M1	1	16	E4	press
206.532	n/a	RESPONSE	M1	1	16	E4	release
206.554	n/a	RESPONSE	M1	1	04	E3	release
206.725	n/a	RESPONSE	M1	1	04	E3	press
206.766	n/a	RESPONSE	M1	1	16	E4	press
206.857	n/a	RESPONSE	M1	1	07	G3	release
207.111	n/a	RESPONSE	M1	1	16	E4	release
207.161	n/a	RESPONSE	M1	1	04	E3	release
207.352	n/a	RESPONSE	M1	1	05	F3	press
207.355	n/a	RESPONSE	M1	1	17	F4	press
207.765	n/a	RESPONSE	M1	1	17	F4	release
207.797	n/a	RESPONSE	M1	1	05	F3	release
207.937	n/a	RESPONSE	M1	1	02	D3	press
207.989	n/a	RESPONSE	M1	1	14	D4	press
208.36	n/a	RESPONSE	M1	1	14	D4	release
208.381	n/a	RESPONSE	M1	1	02	D3	release
208.562	n/a	RESPONSE	M1	1	02	D3	press
208.586	n/a	RESPONSE	M1	1	14	D4	press
208.935	n/a	RESPONSE	M1	1	14	D4	release
208.946	n/a	RESPONSE	M1	1	02	D3	release
209.191	n/a	RESPONSE	M1	1	00	C3	press
209.25	n/a	RESPONSE	M1	1	12	C4	press
209.591	n/a	RESPONSE	M1	1	12	C4	release
209.642	n/a	RESPONSE	M1	1	04	E3	press
209.664	n/a	RESPONSE	M1	1	16	E4	press
210.015	n/a	RESPONSE	M1	1	16	E4	release
210.086	n/a	RESPONSE	M1	1	04	E3	release
210.14	n/a	RESPONSE	M1	1	07	G3	press
210.19	n/a	RESPONSE	M1	1	19	G4	press
210.76	n/a	RESPONSE	M1	1	19	G4	release
210.791	n/a	RESPONSE	M1	1	00	C3	release
211.178	7.758	FIXCROSS	n/a	n/a	n/a	n/a	n/a
212.532	n/a	RESPONSE	M1	1	07	G3	release
218.936	6.317	CUE_LISTEN	M1	2	n/a	n/a	n/a
225.252	7.758	FIXCROSS	n/a	n/a	n/a	n/a	n/a
233.011	6.325	CUE_PLAYBACK_BOTH_HANDS	M1	2	n/a	n/a	n/a
233.606	n/a	RESPONSE	M1	2	07	G3	press
233.635	n/a	RESPONSE	M1	2	19	G4	press
234.06	n/a	RESPONSE	M1	2	19	G4	release
234.252	n/a	RESPONSE	M1	2	04	E3	press
234.275	n/a	RESPONSE	M1	2	16	E4	press
234.626	n/a	RESPONSE	M1	2	16	E4	release
234.666	n/a	RESPONSE	M1	2	04	E3	release
234.817	n/a	RESPONSE	M1	2	04	E3	press
234.846	n/a	RESPONSE	M1	2	16	E4	press
235.2	n/a	RESPONSE	M1	2	16	E4	release
235.276	n/a	RESPONSE	M1	2	04	E3	release
235.39	n/a	RESPONSE	M1	2	05	F3	press
235.409	n/a	RESPONSE	M1	2	17	F4	press
235.802	n/a	RESPONSE	M1	2	17	F4	release
235.841	n/a	RESPONSE	M1	2	07	G3	release
235.845	n/a	RESPONSE	M1	2	05	F3	release
235.98	n/a	RESPONSE	M1	2	02	D3	press
236.002	n/a	RESPONSE	M1	2	14	D4	press
236.366	n/a	RESPONSE	M1	2	14	D4	release
236.4	n/a	RESPONSE	M1	2	02	D3	release
236.539	n/a	RESPONSE	M1	2	02	D3	press
236.59	n/a	RESPONSE	M1	2	14	D4	press
236.911	n/a	RESPONSE	M1	2	14	D4	release
236.922	n/a	RESPONSE	M1	2	02	D3	release
237.075	n/a	RESPONSE	M1	2	00	C3	press
237.166	n/a	RESPONSE	M1	2	12	C4	press
237.477	n/a	RESPONSE	M1	2	12	C4	release
237.639	n/a	RESPONSE	M1	2	04	E3	press
237.68	n/a	RESPONSE	M1	2	16	E4	press
237.971	n/a	RESPONSE	M1	2	00	C3	release
238.032	n/a	RESPONSE	M1	2	04	E3	release
238.035	n/a	RESPONSE	M1	2	16	E4	release
238.155	n/a	RESPONSE	M1	2	00	C3	press
238.236	n/a	RESPONSE	M1	2	12	C4	press
238.847	n/a	RESPONSE	M1	2	12	C4	release
238.919	n/a	RESPONSE	M1	2	00	C3	release
239.336	7.758	FIXCROSS	n/a	n/a	n/a	n/a	n/a
247.094	6.317	CUE_LISTEN	M1	1	n/a	n/a	n/a
253.411	7.758	FIXCROSS	n/a	n/a	n/a	n/a	n/a
261.169	6.317	CUE_PLAYBACK_RIGHT_HAND	M1	1	n/a	n/a	n/a
262.445	n/a	RESPONSE	M1	1	19	G4	press
262.837	n/a	RESPONSE	M1	1	19	G4	release
262.992	n/a	RESPONSE	M1	1	16	E4	press
263.331	n/a	RESPONSE	M1	1	16	E4	release
263.537	n/a	RESPONSE	M1	1	16	E4	press
263.879	n/a	RESPONSE	M1	1	16	E4	release
264.039	n/a	RESPONSE	M1	1	17	F4	press
264.397	n/a	RESPONSE	M1	1	17	F4	release
264.567	n/a	RESPONSE	M1	1	14	D4	press
264.9	n/a	RESPONSE	M1	1	14	D4	release
265.075	n/a	RESPONSE	M1	1	14	D4	press
265.356	n/a	RESPONSE	M1	1	14	D4	release
265.555	n/a	RESPONSE	M1	1	12	C4	press
265.852	n/a	RESPONSE	M1	1	12	C4	release
265.872	n/a	RESPONSE	M1	1	16	E4	press
266.136	n/a	RESPONSE	M1	1	16	E4	release
266.155	n/a	RESPONSE	M1	1	19	G4	press
266.814	n/a	RESPONSE	M1	1	19	G4	release
267.486	7.758	FIXCROSS	n/a	n/a	n/a	n/a	n/a
275.244	6.325	CUE_LISTEN	M1	2	n/a	n/a	n/a
281.569	7.758	FIXCROSS	n/a	n/a	n/a	n/a	n/a
289.328	6.317	CUE_PLAYBACK_RIGHT_HAND	M1	2	n/a	n/a	n/a
289.796	n/a	RESPONSE	M1	2	19	G4	press
290.227	n/a	RESPONSE	M1	2	19	G4	release
290.359	n/a	RESPONSE	M1	2	16	E4	press
290.72	n/a	RESPONSE	M1	2	16	E4	release
290.911	n/a	RESPONSE	M1	2	16	E4	press
291.292	n/a	RESPONSE	M1	2	16	E4	release
291.404	n/a	RESPONSE	M1	2	17	F4	press
291.805	n/a	RESPONSE	M1	2	17	F4	release
291.986	n/a	RESPONSE	M1	2	14	D4	press
292.28	n/a	RESPONSE	M1	2	14	D4	release
292.528	n/a	RESPONSE	M1	2	14	D4	press
292.856	n/a	RESPONSE	M1	2	14	D4	release
293.04	n/a	RESPONSE	M1	2	12	C4	press
293.347	n/a	RESPONSE	M1	2	12	C4	release
293.35	n/a	RESPONSE	M1	2	16	E4	press
293.615	n/a	RESPONSE	M1	2	16	E4	release
293.696	n/a	RESPONSE	M1	2	12	C4	press
294.587	n/a	RESPONSE	M1	2	12	C4	release
295.644	7.758	FIXCROSS	n/a	n/a	n/a	n/a	n/a
303.403	6.317	CUE_LISTEN	M1	1	n/a	n/a	n/a
309.719	7.758	FIXCROSS	n/a	n/a	n/a	n/a	n/a
317.478	6.325	CUE_PLAYBACK_BOTH_HANDS	M1	1	n/a	n/a	n/a
317.984	n/a	RESPONSE	M1	1	07	G3	press
318.012	n/a	RESPONSE	M1	1	19	G4	press
318.465	n/a	RESPONSE	M1	1	19	G4	release
318.605	n/a	RESPONSE	M1	1	04	E3	press
318.646	n/a	RESPONSE	M1	1	16	E4	press
319.017	n/a	RESPONSE	M1	1	16	E4	release
319.059	n/a	RESPONSE	M1	1	04	E3	release
319.2	n/a	RESPONSE	M1	1	04	E3	press
319.222	n/a	RESPONSE	M1	1	16	E4	press
319.592	n/a	RESPONSE	M1	1	16	E4	release
319.604	n/a	RESPONSE	M1	1	04	E3	release
319.775	n/a	RESPONSE	M1	1	05	F3	press
319.777	n/a	RESPONSE	M1	1	17	F4	press
320.17	n/a	RESPONSE	M1	1	17	F4	release
320.188	n/a	RESPONSE	M1	1	05	F3	release
320.201	n/a	RESPONSE	M1	1	07	G3	release
320.301	n/a	RESPONSE	M1	1	02	D3	press
320.332	n/a	RESPONSE	M1	1	14	D4	press
320.674	n/a	RESPONSE	M1	1	14	D4	release
320.905	n/a	RESPONSE	M1	1	14	D4	press
321.236	n/a	RESPONSE	M1	1	14	D4	release
321.239	n/a	RESPONSE	M1	1	02	D3	release
321.388	n/a	RESPONSE	M1	1	00	C3	press
321.482	n/a	RESPONSE	M1	1	12	C4	press
321.791	n/a	RESPONSE	M1	1	12	C4	release
321.855	n/a	RESPONSE	M1	1	04	E3	press
321.874	n/a	RESPONSE	M1	1	16	E4	press
322.037	n/a	RESPONSE	M1	1	00	C3	release
322.126	n/a	RESPONSE	M1	1	16	E4	release
322.199	n/a	RESPONSE	M1	1	04	E3	release
322.211	n/a	RESPONSE	M1	1	07	G3	press
322.24	n/a	RESPONSE	M1	1	19	G4	press
322.891	n/a	RESPONSE	M1	1	19	G4	release
322.929	n/a	RESPONSE	M1	1	07	G3	release
323.256	n/a	RESPONSE	M1	1	07	G3	press
323.26	n/a	RESPONSE	M1	1	19	G4	press
323.635	n/a	RESPONSE	M1	1	19	G4	release
323.803	7.758	FIXCROSS	n/a	n/a	n/a	n/a	n/a
323.969	n/a	RESPONSE	M1	1	07	G3	release
331.561	6.317	CUE_LISTEN	M1	2	n/a	n/a	n/a
337.878	7.758	FIXCROSS	n/a	n/a	n/a	n/a	n/a
345.636	6.317	CUE_PLAYBACK_BOTH_HANDS	M1	2	n/a	n/a	n/a
346.172	n/a	RESPONSE	M1	2	07	G3	press
346.186	n/a	RESPONSE	M1	2	19	G4	press
346.634	n/a	RESPONSE	M1	2	19	G4	release
346.796	n/a	RESPONSE	M1	2	04	E3	press
346.816	n/a	RESPONSE	M1	2	16	E4	press
347.228	n/a	RESPONSE	M1	2	16	E4	release
347.41	n/a	RESPONSE	M1	2	16	E4	press
347.751	n/a	RESPONSE	M1	2	16	E4	release
347.802	n/a	RESPONSE	M1	2	04	E3	release
347.934	n/a	RESPONSE	M1	2	05	F3	press
347.936	n/a	RESPONSE	M1	2	17	F4	press
348.336	n/a	RESPONSE	M1	2	17	F4	release
348.38	n/a	RESPONSE	M1	2	05	F3	release
348.39	n/a	RESPONSE	M1	2	07	G3	release
348.5	n/a	RESPONSE	M1	2	02	D3	press
348.521	n/a	RESPONSE	M1	2	14	D4	press
348.834	n/a	RESPONSE	M1	2	14	D4	release
349.085	n/a	RESPONSE	M1	2	14	D4	press
349.416	n/a	RESPONSE	M1	2	14	D4	release
349.426	n/a	RESPONSE	M1	2	02	D3	release
349.558	n/a	RESPONSE	M1	2	00	C3	press
349.629	n/a	RESPONSE	M1	2	12	C4	press
349.94	n/a	RESPONSE	M1	2	12	C4	release
350.134	n/a	RESPONSE	M1	2	00	C3	release
350.452	n/a	RESPONSE	M1	2	04	E3	press
350.484	n/a	RESPONSE	M1	2	16	E4	press
350.785	n/a	RESPONSE	M1	2	04	E3	release
350.796	n/a	RESPONSE	M1	2	16	E4	release
350.847	n/a	RESPONSE	M1	2	00	C3	press
350.958	n/a	RESPONSE	M1	2	12	C4	press
351.54	n/a	RESPONSE	M1	2	12	C4	release
351.561	n/a	RESPONSE	M1	2	00	C3	release
351.953	7.758	FIXCROSS	n/a	n/a	n/a	n/a	n/a
359.711	6.325	CUE_LISTEN	M1	1	n/a	n/a	n/a
366.036	7.758	FIXCROSS	n/a	n/a	n/a	n/a	n/a
373.794	6.317	CUE_PLAYBACK_RIGHT_HAND	M1	1	n/a	n/a	n/a
374.29	n/a	RESPONSE	M1	1	19	G4	press
374.778	n/a	RESPONSE	M1	1	19	G4	release
374.875	n/a	RESPONSE	M1	1	16	E4	press
375.221	n/a	RESPONSE	M1	1	16	E4	release
375.412	n/a	RESPONSE	M1	1	16	E4	press
375.744	n/a	RESPONSE	M1	1	16	E4	release
375.904	n/a	RESPONSE	M1	1	17	F4	press
376.266	n/a	RESPONSE	M1	1	17	F4	release
376.426	n/a	RESPONSE	M1	1	14	D4	press
376.697	n/a	RESPONSE	M1	1	14	D4	release
376.938	n/a	RESPONSE	M1	1	14	D4	press
377.261	n/a	RESPONSE	M1	1	14	D4	release
377.435	n/a	RESPONSE	M1	1	12	C4	press
377.734	n/a	RESPONSE	M1	1	12	C4	release
377.746	n/a	RESPONSE	M1	1	16	E4	press
377.996	n/a	RESPONSE	M1	1	16	E4	release
378.037	n/a	RESPONSE	M1	1	19	G4	press
378.73	n/a	RESPONSE	M1	1	19	G4	release
380.111	7.758	FIXCROSS	n/a	n/a	n/a	n/a	n/a
387.87	6.325	CUE_LISTEN	M1	2	n/a	n/a	n/a
394.194	7.758	FIXCROSS	n/a	n/a	n/a	n/a	n/a
401.953	6.317	CUE_PLAYBACK_RIGHT_HAND	M1	2	n/a	n/a	n/a
402.395	n/a	RESPONSE	M1	2	19	G4	press
402.89	n/a	RESPONSE	M1	2	19	G4	release
402.981	n/a	RESPONSE	M1	2	16	E4	press
403.322	n/a	RESPONSE	M1	2	16	E4	release
403.492	n/a	RESPONSE	M1	2	16	E4	press
403.83	n/a	RESPONSE	M1	2	16	E4	release
403.95	n/a	RESPONSE	M1	2	17	F4	press
404.381	n/a	RESPONSE	M1	2	17	F4	release
404.505	n/a	RESPONSE	M1	2	14	D4	press
404.776	n/a	RESPONSE	M1	2	14	D4	release
405.01	n/a	RESPONSE	M1	2	14	D4	press
405.304	n/a	RESPONSE	M1	2	14	D4	release
405.464	n/a	RESPONSE	M1	2	12	C4	press
405.744	n/a	RESPONSE	M1	2	12	C4	release
405.761	n/a	RESPONSE	M1	2	16	E4	press
406.027	n/a	RESPONSE	M1	2	16	E4	release
406.123	n/a	RESPONSE	M1	2	12	C4	press
406.825	n/a	RESPONSE	M1	2	12	C4	release
408.27	7.758	FIXCROSS	n/a	n/a	n/a	n/a	n/a
416.028	6.325	CUE_LISTEN	M1	1	n/a	n/a	n/a
422.353	7.758	FIXCROSS	n/a	n/a	n/a	n/a	n/a
430.111	6.317	CUE_PLAYBACK_BOTH_HANDS	M1	1	n/a	n/a	n/a
430.578	n/a	RESPONSE	M1	1	07	G3	press
430.59	n/a	RESPONSE	M1	1	19	G4	press
431.071	n/a	RESPONSE	M1	1	19	G4	release
431.222	n/a	RESPONSE	M1	1	04	E3	press
431.243	n/a	RESPONSE	M1	1	16	E4	press
431.596	n/a	RESPONSE	M1	1	16	E4	release
431.646	n/a	RESPONSE	M1	1	04	E3	release
431.807	n/a	RESPONSE	M1	1	04	E3	press
431.828	n/a	RESPONSE	M1	1	16	E4	press
432.17	n/a	RESPONSE	M1	1	16	E4	release
432.183	n/a	RESPONSE	M1	1	04	E3	release
432.362	n/a	RESPONSE	M1	1	05	F3	press
432.376	n/a	RESPONSE	M1	1	17	F4	press
432.795	n/a	RESPONSE	M1	1	17	F4	release
432.802	n/a	RESPONSE	M1	1	05	F3	release
432.822	n/a	RESPONSE	M1	1	07	G3	release
432.961	n/a	RESPONSE	M1	1	02	D3	press
432.98	n/a	RESPONSE	M1	1	14	D4	press
433.321	n/a	RESPONSE	M1	1	14	D4	release
433.373	n/a	RESPONSE	M1	1	02	D3	release
433.534	n/a	RESPONSE	M1	1	02	D3	press
433.576	n/a	RESPONSE	M1	1	14	D4	press
433.901	n/a	RESPONSE	M1	1	02	D3	release
433.912	n/a	RESPONSE	M1	1	14	D4	release
434.055	n/a	RESPONSE	M1	1	00	C3	press
434.112	n/a	RESPONSE	M1	1	12	C4	press
434.401	n/a	RESPONSE	M1	1	12	C4	release
434.471	n/a	RESPONSE	M1	1	04	E3	press
434.486	n/a	RESPONSE	M1	1	16	E4	press
434.636	n/a	RESPONSE	M1	1	00	C3	release
434.737	n/a	RESPONSE	M1	1	16	E4	release
434.802	n/a	RESPONSE	M1	1	04	E3	release
434.805	n/a	RESPONSE	M1	1	07	G3	press
434.835	n/a	RESPONSE	M1	1	19	G4	press
435.521	n/a	RESPONSE	M1	1	19	G4	release
435.605	n/a	RESPONSE	M1	1	07	G3	release
436.428	7.758	FIXCROSS	n/a	n/a	n/a	n/a	n/a
444.186	6.317	CUE_LISTEN	M1	2	n/a	n/a	n/a
450.503	7.759	FIXCROSS	n/a	n/a	n/a	n/a	n/a
458.261	6.317	CUE_PLAYBACK_BOTH_HANDS	M1	2	n/a	n/a	n/a
458.733	n/a	RESPONSE	M1	2	07	G3	press
458.736	n/a	RESPONSE	M1	2	19	G4	press
459.178	n/a	RESPONSE	M1	2	19	G4	release
459.358	n/a	RESPONSE	M1	2	04	E3	press
459.38	n/a	RESPONSE	M1	2	16	E4	press
459.731	n/a	RESPONSE	M1	2	16	E4	release
459.761	n/a	RESPONSE	M1	2	04	E3	release
459.912	n/a	RESPONSE	M1	2	04	E3	press
459.943	n/a	RESPONSE	M1	2	16	E4	press
460.275	n/a	RESPONSE	M1	2	16	E4	release
460.317	n/a	RESPONSE	M1	2	04	E3	release
460.457	n/a	RESPONSE	M1	2	05	F3	press
460.478	n/a	RESPONSE	M1	2	17	F4	press
460.841	n/a	RESPONSE	M1	2	17	F4	release
460.881	n/a	RESPONSE	M1	2	07	G3	release
460.883	n/a	RESPONSE	M1	2	05	F3	release
461.003	n/a	RESPONSE	M1	2	02	D3	press
461.045	n/a	RESPONSE	M1	2	14	D4	press
461.376	n/a	RESPONSE	M1	2	14	D4	release
461.417	n/a	RESPONSE	M1	2	02	D3	release
461.558	n/a	RESPONSE	M1	2	02	D3	press
461.62	n/a	RESPONSE	M1	2	14	D4	press
461.921	n/a	RESPONSE	M1	2	02	D3	release
461.923	n/a	RESPONSE	M1	2	14	D4	release
462.043	n/a	RESPONSE	M1	2	00	C3	press
462.127	n/a	RESPONSE	M1	2	12	C4	press
462.446	n/a	RESPONSE	M1	2	12	C4	release
462.49	n/a	RESPONSE	M1	2	04	E3	press
462.498	n/a	RESPONSE	M1	2	16	E4	press
462.758	n/a	RESPONSE	M1	2	16	E4	release
462.771	n/a	RESPONSE	M1	2	04	E3	release
462.827	n/a	RESPONSE	M1	2	12	C4	press
463.498	n/a	RESPONSE	M1	2	12	C4	release
463.547	n/a	RESPONSE	M1	2	00	C3	release
464.578	7.758	FIXCROSS	n/a	n/a	n/a	n/a	n/a
472.336	6.325	CUE_LISTEN	M1	1	n/a	n/a	n/a
478.661	7.758	FIXCROSS	n/a	n/a	n/a	n/a	n/a
486.42	6.317	CUE_PLAYBACK_RIGHT_HAND	M1	1	n/a	n/a	n/a
486.932	n/a	RESPONSE	M1	1	19	G4	press
487.345	n/a	RESPONSE	M1	1	19	G4	release
487.486	n/a	RESPONSE	M1	1	16	E4	press
487.798	n/a	RESPONSE	M1	1	16	E4	release
488.008	n/a	RESPONSE	M1	1	16	E4	press
488.34	n/a	RESPONSE	M1	1	16	E4	release
488.483	n/a	RESPONSE	M1	1	17	F4	press
488.882	n/a	RESPONSE	M1	1	17	F4	release
489.003	n/a	RESPONSE	M1	1	14	D4	press
489.285	n/a	RESPONSE	M1	1	14	D4	release
489.528	n/a	RESPONSE	M1	1	14	D4	press
489.848	n/a	RESPONSE	M1	1	14	D4	release
490.028	n/a	RESPONSE	M1	1	12	C4	press
490.31	n/a	RESPONSE	M1	1	12	C4	release
490.312	n/a	RESPONSE	M1	1	16	E4	press
490.572	n/a	RESPONSE	M1	1	16	E4	release
490.603	n/a	RESPONSE	M1	1	19	G4	press
491.245	n/a	RESPONSE	M1	1	19	G4	release
492.736	7.758	FIXCROSS	n/a	n/a	n/a	n/a	n/a
500.495	6.317	CUE_LISTEN	M1	2	n/a	n/a	n/a
506.811	7.758	FIXCROSS	n/a	n/a	n/a	n/a	n/a
514.57	6.325	CUE_PLAYBACK_RIGHT_HAND	M1	2	n/a	n/a	n/a
515.2	n/a	RESPONSE	M1	2	19	G4	press
515.632	n/a	RESPONSE	M1	2	19	G4	release
515.75	n/a	RESPONSE	M1	2	16	E4	press
516.102	n/a	RESPONSE	M1	2	16	E4	release
516.306	n/a	RESPONSE	M1	2	16	E4	press
516.667	n/a	RESPONSE	M1	2	16	E4	release
516.818	n/a	RESPONSE	M1	2	17	F4	press
517.191	n/a	RESPONSE	M1	2	17	F4	release
517.352	n/a	RESPONSE	M1	2	14	D4	press
517.636	n/a	RESPONSE	M1	2	14	D4	release
517.856	n/a	RESPONSE	M1	2	14	D4	press
518.196	n/a	RESPONSE	M1	2	14	D4	release
518.377	n/a	RESPONSE	M1	2	12	C4	press
518.651	n/a	RESPONSE	M1	2	16	E4	press
518.66	n/a	RESPONSE	M1	2	12	C4	release
518.972	n/a	RESPONSE	M1	2	12	C4	press
519.003	n/a	RESPONSE	M1	2	16	E4	release
519.867	n/a	RESPONSE	M1	2	12	C4	release
520.895	7.758	FIXCROSS	n/a	n/a	n/a	n/a	n/a
528.653	6.317	CUE_LISTEN	M1	1	n/a	n/a	n/a
534.97	7.758	FIXCROSS	n/a	n/a	n/a	n/a	n/a
542.728	6.317	CUE_PLAYBACK_BOTH_HANDS	M1	1	n/a	n/a	n/a
543.296	n/a	RESPONSE	M1	1	07	G3	press
543.316	n/a	RESPONSE	M1	1	19	G4	press
543.807	n/a	RESPONSE	M1	1	19	G4	release
544.018	n/a	RESPONSE	M1	1	04	E3	press
544.04	n/a	RESPONSE	M1	1	16	E4	press
544.397	n/a	RESPONSE	M1	1	16	E4	release
544.422	n/a	RESPONSE	M1	1	04	E3	release
544.587	n/a	RESPONSE	M1	1	04	E3	press
544.6	n/a	RESPONSE	M1	1	16	E4	press
544.947	n/a	RESPONSE	M1	1	16	E4	release
544.992	n/a	RESPONSE	M1	1	04	E3	release
545.13	n/a	RESPONSE	M1	1	05	F3	press
545.135	n/a	RESPONSE	M1	1	17	F4	press
545.537	n/a	RESPONSE	M1	1	07	G3	release
545.542	n/a	RESPONSE	M1	1	17	F4	release
545.558	n/a	RESPONSE	M1	1	05	F3	release
545.708	n/a	RESPONSE	M1	1	02	D3	press
545.72	n/a	RESPONSE	M1	1	14	D4	press
546.083	n/a	RESPONSE	M1	1	14	D4	release
546.13	n/a	RESPONSE	M1	1	02	D3	release
546.268	n/a	RESPONSE	M1	1	02	D3	press
546.328	n/a	RESPONSE	M1	1	14	D4	press
546.64	n/a	RESPONSE	M1	1	02	D3	release
546.661	n/a	RESPONSE	M1	1	14	D4	release
546.785	n/a	RESPONSE	M1	1	00	C3	press
546.836	n/a	RESPONSE	M1	1	12	C4	press
547.147	n/a	RESPONSE	M1	1	12	C4	release
547.177	n/a	RESPONSE	M1	1	04	E3	press
547.188	n/a	RESPONSE	M1	1	16	E4	press
547.37	n/a	RESPONSE	M1	1	00	C3	release
547.453	n/a	RESPONSE	M1	1	16	E4	release
547.473	n/a	RESPONSE	M1	1	04	E3	release
547.523	n/a	RESPONSE	M1	1	07	G3	press
547.565	n/a	RESPONSE	M1	1	19	G4	press
548.186	n/a	RESPONSE	M1	1	19	G4	release
548.367	n/a	RESPONSE	M1	1	07	G3	release
549.045	7.758	FIXCROSS	n/a	n/a	n/a	n/a	n/a
556.803	6.325	CUE_LISTEN	M1	2	n/a	n/a	n/a
563.128	7.758	FIXCROSS	n/a	n/a	n/a	n/a	n/a
570.886	6.317	CUE_PLAYBACK_BOTH_HANDS	M1	2	n/a	n/a	n/a
571.328	n/a	RESPONSE	M1	2	19	G4	press
571.331	n/a	RESPONSE	M1	2	07	G3	press
571.752	n/a	RESPONSE	M1	2	19	G4	release
571.932	n/a	RESPONSE	M1	2	04	E3	press
571.953	n/a	RESPONSE	M1	2	16	E4	press
572.315	n/a	RESPONSE	M1	2	16	E4	release
572.337	n/a	RESPONSE	M1	2	04	E3	release
572.487	n/a	RESPONSE	M1	2	04	E3	press
572.49	n/a	RESPONSE	M1	2	16	E4	press
572.841	n/a	RESPONSE	M1	2	16	E4	release
572.853	n/a	RESPONSE	M1	2	04	E3	release
572.867	n/a	RESPONSE	M1	2	07	G3	release
572.997	n/a	RESPONSE	M1	2	17	F4	press
573.008	n/a	RESPONSE	M1	2	05	F3	press
573.406	n/a	RESPONSE	M1	2	17	F4	release
573.431	n/a	RESPONSE	M1	2	05	F3	release
573.562	n/a	RESPONSE	M1	2	02	D3	press
573.58	n/a	RESPONSE	M1	2	14	D4	press
573.898	n/a	RESPONSE	M1	2	14	D4	release
573.95	n/a	RESPONSE	M1	2	02	D3	release
574.094	n/a	RESPONSE	M1	2	02	D3	press
574.132	n/a	RESPONSE	M1	2	14	D4	press
574.446	n/a	RESPONSE	M1	2	02	D3	release
574.455	n/a	RESPONSE	M1	2	14	D4	release
574.586	n/a	RESPONSE	M1	2	00	C3	press
574.642	n/a	RESPONSE	M1	2	12	C4	press
574.933	n/a	RESPONSE	M1	2	12	C4	release
575.02	n/a	RESPONSE	M1	2	04	E3	press
575.041	n/a	RESPONSE	M1	2	16	E4	press
575.178	n/a	RESPONSE	M1	2	00	C3	release
575.283	n/a	RESPONSE	M1	2	16	E4	release
575.287	n/a	RESPONSE	M1	2	04	E3	release
575.351	n/a	RESPONSE	M1	2	00	C3	press
575.381	n/a	RESPONSE	M1	2	12	C4	press
576.147	n/a	RESPONSE	M1	2	12	C4	release
576.383	n/a	RESPONSE	M1	2	00	C3	release
577.203	7.758	FIXCROSS	n/a	n/a	n/a	n/a	n/a
584.961	6.325	CUE_LISTEN	M1	1	n/a	n/a	n/a
591.286	7.758	FIXCROSS	n/a	n/a	n/a	n/a	n/a
599.045	6.317	CUE_PLAYBACK_RIGHT_HAND	M1	1	n/a	n/a	n/a
599.592	n/a	RESPONSE	M1	1	19	G4	press
600.032	n/a	RESPONSE	M1	1	19	G4	release
600.136	n/a	RESPONSE	M1	1	16	E4	press
600.474	n/a	RESPONSE	M1	1	16	E4	release
600.676	n/a	RESPONSE	M1	1	16	E4	press
601.037	n/a	RESPONSE	M1	1	16	E4	release
601.168	n/a	RESPONSE	M1	1	17	F4	press
601.58	n/a	RESPONSE	M1	1	17	F4	release
601.681	n/a	RESPONSE	M1	1	14	D4	press
601.962	n/a	RESPONSE	M1	1	14	D4	release
602.203	n/a	RESPONSE	M1	1	14	D4	press
602.495	n/a	RESPONSE	M1	1	14	D4	release
602.673	n/a	RESPONSE	M1	1	12	C4	press
602.93	n/a	RESPONSE	M1	1	12	C4	release
602.932	n/a	RESPONSE	M1	1	16	E4	press
603.201	n/a	RESPONSE	M1	1	16	E4	release
603.22	n/a	RESPONSE	M1	1	19	G4	press
603.968	n/a	RESPONSE	M1	1	19	G4	release
605.361	7.759	FIXCROSS	n/a	n/a	n/a	n/a	n/a
613.12	6.317	CUE_LISTEN	M1	2	n/a	n/a	n/a
619.436	7.758	FIXCROSS	n/a	n/a	n/a	n/a	n/a
627.195	6.317	CUE_PLAYBACK_RIGHT_HAND	M1	2	n/a	n/a	n/a
627.796	n/a	RESPONSE	M1	2	19	G4	press
628.177	n/a	RESPONSE	M1	2	19	G4	release
628.347	n/a	RESPONSE	M1	2	16	E4	press
628.707	n/a	RESPONSE	M1	2	16	E4	release
628.858	n/a	RESPONSE	M1	2	16	E4	press
629.2	n/a	RESPONSE	M1	2	16	E4	release
629.341	n/a	RESPONSE	M1	2	17	F4	press
629.702	n/a	RESPONSE	M1	2	17	F4	release
629.864	n/a	RESPONSE	M1	2	14	D4	press
630.154	n/a	RESPONSE	M1	2	14	D4	release
630.376	n/a	RESPONSE	M1	2	14	D4	press
630.687	n/a	RESPONSE	M1	2	14	D4	release
630.838	n/a	RESPONSE	M1	2	12	C4	press
631.11	n/a	RESPONSE	M1	2	12	C4	release
631.113	n/a	RESPONSE	M1	2	16	E4	press
631.392	n/a	RESPONSE	M1	2	16	E4	release
631.403	n/a	RESPONSE	M1	2	12	C4	press
632.214	n/a	RESPONSE	M1	2	12	C4	release
633.511	7.758	FIXCROSS	n/a	n/a	n/a	n/a	n/a
641.27	6.325	CUE_LISTEN	M1	1	n/a	n/a	n/a
647.595	7.758	FIXCROSS	n/a	n/a	n/a	n/a	n/a
655.353	6.317	CUE_PLAYBACK_BOTH_HANDS	M1	1	n/a	n/a	n/a
655.926	n/a	RESPONSE	M1	1	07	G3	press
655.937	n/a	RESPONSE	M1	1	19	G4	press
656.347	n/a	RESPONSE	M1	1	19	G4	release
656.528	n/a	RESPONSE	M1	1	16	E4	press
656.539	n/a	RESPONSE	M1	1	04	E3	press
656.921	n/a	RESPONSE	M1	1	16	E4	release
656.962	n/a	RESPONSE	M1	1	04	E3	release
657.107	n/a	RESPONSE	M1	1	04	E3	press
657.136	n/a	RESPONSE	M1	1	16	E4	press
657.487	n/a	RESPONSE	M1	1	16	E4	release
657.518	n/a	RESPONSE	M1	1	04	E3	release
657.53	n/a	RESPONSE	M1	1	07	G3	release
657.631	n/a	RESPONSE	M1	1	05	F3	press
657.643	n/a	RESPONSE	M1	1	17	F4	press
658.023	n/a	RESPONSE	M1	1	17	F4	release
658.026	n/a	RESPONSE	M1	1	05	F3	release
658.208	n/a	RESPONSE	M1	1	14	D4	press
658.247	n/a	RESPONSE	M1	1	02	D3	press
658.578	n/a	RESPONSE	M1	1	14	D4	release
658.62	n/a	RESPONSE	M1	1	02	D3	release
658.771	n/a	RESPONSE	M1	1	02	D3	press
658.782	n/a	RESPONSE	M1	1	14	D4	press
659.093	n/a	RESPONSE	M1	1	02	D3	release
659.124	n/a	RESPONSE	M1	1	14	D4	release
659.256	n/a	RESPONSE	M1	1	00	C3	press
659.307	n/a	RESPONSE	M1	1	12	C4	press
659.618	n/a	RESPONSE	M1	1	12	C4	release
659.652	n/a	RESPONSE	M1	1	04	E3	press
659.661	n/a	RESPONSE	M1	1	16	E4	press
659.782	n/a	RESPONSE	M1	1	00	C3	release
659.943	n/a	RESPONSE	M1	1	16	E4	release
660.054	n/a	RESPONSE	M1	1	07	G3	press
660.067	n/a	RESPONSE	M1	1	19	G4	press
660.077	n/a	RESPONSE	M1	1	04	E3	release
660.108	n/a	RESPONSE	M1	1	05	F3	press
660.75	n/a	RESPONSE	M1	1	05	F3	release
660.871	n/a	RESPONSE	M1	1	19	G4	release
661.023	n/a	RESPONSE	M1	1	07	G3	release
661.67	7.758	FIXCROSS	n/a	n/a	n/a	n/a	n/a
669.428	6.317	CUE_LISTEN	M1	2	n/a	n/a	n/a
675.745	7.758	FIXCROSS	n/a	n/a	n/a	n/a	n/a
683.503	6.325	CUE_PLAYBACK_BOTH_HANDS	M1	2	n/a	n/a	n/a
683.898	n/a	RESPONSE	M1	2	07	G3	press
683.931	n/a	RESPONSE	M1	2	19	G4	press
684.343	n/a	RESPONSE	M1	2	19	G4	release
684.524	n/a	RESPONSE	M1	2	04	E3	press
684.537	n/a	RESPONSE	M1	2	16	E4	press
684.863	n/a	RESPONSE	M1	2	16	E4	release
684.918	n/a	RESPONSE	M1	2	04	E3	release
685.034	n/a	RESPONSE	M1	2	04	E3	press
685.052	n/a	RESPONSE	M1	2	16	E4	press
685.394	n/a	RESPONSE	M1	2	16	E4	release
685.432	n/a	RESPONSE	M1	2	04	E3	release
685.538	n/a	RESPONSE	M1	2	05	F3	press
685.557	n/a	RESPONSE	M1	2	17	F4	press
685.948	n/a	RESPONSE	M1	2	17	F4	release
685.968	n/a	RESPONSE	M1	2	05	F3	release
686.051	n/a	RESPONSE	M1	2	02	D3	press
686.077	n/a	RESPONSE	M1	2	14	D4	press
686.401	n/a	RESPONSE	M1	2	14	D4	release
686.451	n/a	RESPONSE	M1	2	02	D3	release
686.592	n/a	RESPONSE	M1	2	02	D3	press
686.624	n/a	RESPONSE	M1	2	14	D4	press
686.754	n/a	RESPONSE	M1	2	07	G3	release
686.926	n/a	RESPONSE	M1	2	02	D3	release
686.947	n/a	RESPONSE	M1	2	14	D4	release
687.059	n/a	RESPONSE	M1	2	00	C3	press
687.121	n/a	RESPONSE	M1	2	12	C4	press
687.442	n/a	RESPONSE	M1	2	12	C4	release
687.503	n/a	RESPONSE	M1	2	04	E3	press
687.524	n/a	RESPONSE	M1	2	16	E4	press
687.798	n/a	RESPONSE	M1	2	16	E4	release
687.807	n/a	RESPONSE	M1	2	04	E3	release
687.899	n/a	RESPONSE	M1	2	12	C4	press
688.721	n/a	RESPONSE	M1	2	00	C3	release
688.723	n/a	RESPONSE	M1	2	12	C4	release
689.828	7.758	FIXCROSS	n/a	n/a	n/a	n/a	n/a
697.587	6.317	CUE_LISTEN	M1	1	n/a	n/a	n/a
703.903	7.758	FIXCROSS	n/a	n/a	n/a	n/a	n/a
711.662	6.325	CUE_PLAYBACK_RIGHT_HAND	M1	1	n/a	n/a	n/a
712.167	n/a	RESPONSE	M1	1	19	G4	press
712.538	n/a	RESPONSE	M1	1	19	G4	release
712.689	n/a	RESPONSE	M1	1	16	E4	press
713.026	n/a	RESPONSE	M1	1	16	E4	release
713.216	n/a	RESPONSE	M1	1	16	E4	press
713.551	n/a	RESPONSE	M1	1	16	E4	release
713.663	n/a	RESPONSE	M1	1	17	F4	press
713.999	n/a	RESPONSE	M1	1	17	F4	release
714.189	n/a	RESPONSE	M1	1	14	D4	press
714.482	n/a	RESPONSE	M1	1	14	D4	release
714.702	n/a	RESPONSE	M1	1	14	D4	press
714.993	n/a	RESPONSE	M1	1	14	D4	release
715.163	n/a	RESPONSE	M1	1	12	C4	press
715.456	n/a	RESPONSE	M1	1	12	C4	release
715.476	n/a	RESPONSE	M1	1	16	E4	press
715.701	n/a	RESPONSE	M1	1	16	E4	release
715.777	n/a	RESPONSE	M1	1	19	G4	press
716.416	n/a	RESPONSE	M1	1	19	G4	release
717.987	7.758	FIXCROSS	n/a	n/a	n/a	n/a	n/a
725.745	6.317	CUE_LISTEN	M1	2	n/a	n/a	n/a
732.062	7.758	FIXCROSS	n/a	n/a	n/a	n/a	n/a
739.82	6.317	CUE_PLAYBACK_RIGHT_HAND	M1	2	n/a	n/a	n/a
740.279	n/a	RESPONSE	M1	2	19	G4	press
740.681	n/a	RESPONSE	M1	2	19	G4	release
740.824	n/a	RESPONSE	M1	2	16	E4	press
741.164	n/a	RESPONSE	M1	2	16	E4	release
741.364	n/a	RESPONSE	M1	2	16	E4	press
741.698	n/a	RESPONSE	M1	2	16	E4	release
741.857	n/a	RESPONSE	M1	2	17	F4	press
742.248	n/a	RESPONSE	M1	2	17	F4	release
742.389	n/a	RESPONSE	M1	2	14	D4	press
742.672	n/a	RESPONSE	M1	2	14	D4	release
742.873	n/a	RESPONSE	M1	2	14	D4	press
743.171	n/a	RESPONSE	M1	2	14	D4	release
743.316	n/a	RESPONSE	M1	2	12	C4	press
743.607	n/a	RESPONSE	M1	2	12	C4	release
743.632	n/a	RESPONSE	M1	2	16	E4	press
743.919	n/a	RESPONSE	M1	2	16	E4	release
743.969	n/a	RESPONSE	M1	2	12	C4	press
744.792	n/a	RESPONSE	M1	2	12	C4	release
746.137	7.758	FIXCROSS	n/a	n/a	n/a	n/a	n/a
753.895	6.325	CUE_LISTEN	M1	1	n/a	n/a	n/a
760.22	7.758	FIXCROSS	n/a	n/a	n/a	n/a	n/a
767.978	6.317	CUE_PLAYBACK_BOTH_HANDS	M1	1	n/a	n/a	n/a
768.492	n/a	RESPONSE	M1	1	07	G3	press
768.513	n/a	RESPONSE	M1	1	19	G4	press
768.944	n/a	RESPONSE	M1	1	19	G4	release
769.117	n/a	RESPONSE	M1	1	04	E3	press
769.127	n/a	RESPONSE	M1	1	16	E4	press
769.468	n/a	RESPONSE	M1	1	16	E4	release
769.511	n/a	RESPONSE	M1	1	04	E3	release
769.701	n/a	RESPONSE	M1	1	04	E3	press
769.712	n/a	RESPONSE	M1	1	16	E4	press
770.063	n/a	RESPONSE	M1	1	16	E4	release
770.104	n/a	RESPONSE	M1	1	04	E3	release
770.266	n/a	RESPONSE	M1	1	05	F3	press
770.277	n/a	RESPONSE	M1	1	17	F4	press
770.708	n/a	RESPONSE	M1	1	17	F4	release
770.759	n/a	RESPONSE	M1	1	05	F3	release
770.821	n/a	RESPONSE	M1	1	02	D3	press
770.842	n/a	RESPONSE	M1	1	14	D4	press
771.153	n/a	RESPONSE	M1	1	14	D4	release
771.156	n/a	RESPONSE	M1	1	02	D3	release
771.306	n/a	RESPONSE	M1	1	07	G3	release
771.397	n/a	RESPONSE	M1	1	02	D3	press
771.428	n/a	RESPONSE	M1	1	14	D4	press
771.779	n/a	RESPONSE	M1	1	14	D4	release
771.782	n/a	RESPONSE	M1	1	02	D3	release
772.014	n/a	RESPONSE	M1	1	00	C3	press
772.046	n/a	RESPONSE	M1	1	12	C4	press
772.364	n/a	RESPONSE	M1	1	04	E3	press
772.376	n/a	RESPONSE	M1	1	12	C4	release
772.407	n/a	RESPONSE	M1	1	16	E4	press
772.658	n/a	RESPONSE	M1	1	16	E4	release
772.688	n/a	RESPONSE	M1	1	04	E3	release
772.718	n/a	RESPONSE	M1	1	07	G3	press
772.767	n/a	RESPONSE	M1	1	19	G4	press
773.478	n/a	RESPONSE	M1	1	19	G4	release
773.532	n/a	RESPONSE	M1	1	00	C3	release
773.602	n/a	RESPONSE	M1	1	07	G3	release
774.295	7.758	FIXCROSS	n/a	n/a	n/a	n/a	n/a
782.053	6.317	CUE_LISTEN	M1	2	n/a	n/a	n/a
788.37	7.758	FIXCROSS	n/a	n/a	n/a	n/a	n/a
796.128	6.325	CUE_PLAYBACK_BOTH_HANDS	M1	2	n/a	n/a	n/a
796.666	n/a	RESPONSE	M1	2	07	G3	press
796.687	n/a	RESPONSE	M1	2	19	G4	press
797.092	n/a	RESPONSE	M1	2	19	G4	release
797.271	n/a	RESPONSE	M1	2	04	E3	press
797.273	n/a	RESPONSE	M1	2	16	E4	press
797.633	n/a	RESPONSE	M1	2	16	E4	release
797.644	n/a	RESPONSE	M1	2	04	E3	release
797.826	n/a	RESPONSE	M1	2	04	E3	press
797.839	n/a	RESPONSE	M1	2	16	E4	press
798.188	n/a	RESPONSE	M1	2	16	E4	release
798.229	n/a	RESPONSE	M1	2	04	E3	release
798.371	n/a	RESPONSE	M1	2	05	F3	press
798.382	n/a	RESPONSE	M1	2	17	F4	press
798.753	n/a	RESPONSE	M1	2	17	F4	release
798.784	n/a	RESPONSE	M1	2	05	F3	release
798.926	n/a	RESPONSE	M1	2	02	D3	press
798.957	n/a	RESPONSE	M1	2	14	D4	press
799.288	n/a	RESPONSE	M1	2	02	D3	release
799.291	n/a	RESPONSE	M1	2	14	D4	release
799.501	n/a	RESPONSE	M1	2	02	D3	press
799.533	n/a	RESPONSE	M1	2	14	D4	press
799.863	n/a	RESPONSE	M1	2	14	D4	release
799.894	n/a	RESPONSE	M1	2	02	D3	release
799.916	n/a	RESPONSE	M1	2	07	G3	release
800.277	n/a	RESPONSE	M1	2	00	C3	press
800.319	n/a	RESPONSE	M1	2	12	C4	press
800.639	n/a	RESPONSE	M1	2	12	C4	release
800.721	n/a	RESPONSE	M1	2	04	E3	press
800.744	n/a	RESPONSE	M1	2	16	E4	press
801.033	n/a	RESPONSE	M1	2	16	E4	release
801.077	n/a	RESPONSE	M1	2	04	E3	release
801.136	n/a	RESPONSE	M1	2	07	G3	press
801.177	n/a	RESPONSE	M1	2	19	G4	press
801.539	n/a	RESPONSE	M1	2	00	C3	release
801.569	n/a	RESPONSE	M1	2	19	G4	release
801.831	n/a	RESPONSE	M1	2	07	G3	release
802.453	7.758	FIXCROSS	n/a	n/a	n/a	n/a	n/a
810.212	6.317	CUE_LISTEN	M1	1	n/a	n/a	n/a
816.528	7.758	FIXCROSS	n/a	n/a	n/a	n/a	n/a
824.287	6.317	CUE_PLAYBACK_RIGHT_HAND	M1	1	n/a	n/a	n/a
824.864	n/a	RESPONSE	M1	1	19	G4	press
825.217	n/a	RESPONSE	M1	1	19	G4	release
825.378	n/a	RESPONSE	M1	1	16	E4	press
825.718	n/a	RESPONSE	M1	1	16	E4	release
825.866	n/a	RESPONSE	M1	1	16	E4	press
826.199	n/a	RESPONSE	M1	1	16	E4	release
826.37	n/a	RESPONSE	M1	1	17	F4	press
826.732	n/a	RESPONSE	M1	1	17	F4	release
826.866	n/a	RESPONSE	M1	1	14	D4	press
827.126	n/a	RESPONSE	M1	1	14	D4	release
827.337	n/a	RESPONSE	M1	1	14	D4	press
827.608	n/a	RESPONSE	M1	1	14	D4	release
827.782	n/a	RESPONSE	M1	1	12	C4	press
828.031	n/a	RESPONSE	M1	1	12	C4	release
828.062	n/a	RESPONSE	M1	1	16	E4	press
828.303	n/a	RESPONSE	M1	1	16	E4	release
828.354	n/a	RESPONSE	M1	1	19	G4	press
828.926	n/a	RESPONSE	M1	1	19	G4	release
830.603	7.758	FIXCROSS	n/a	n/a	n/a	n/a	n/a
838.362	6.325	CUE_LISTEN	M1	2	n/a	n/a	n/a
844.687	7.758	FIXCROSS	n/a	n/a	n/a	n/a	n/a
852.445	6.317	CUE_PLAYBACK_RIGHT_HAND	M1	2	n/a	n/a	n/a
852.809	n/a	RESPONSE	M1	2	19	G4	press
853.186	n/a	RESPONSE	M1	2	19	G4	release
853.322	n/a	RESPONSE	M1	2	16	E4	press
853.703	n/a	RESPONSE	M1	2	16	E4	release
853.882	n/a	RESPONSE	M1	2	16	E4	press
854.222	n/a	RESPONSE	M1	2	16	E4	release
854.359	n/a	RESPONSE	M1	2	17	F4	press
854.754	n/a	RESPONSE	M1	2	17	F4	release
854.886	n/a	RESPONSE	M1	2	14	D4	press
855.182	n/a	RESPONSE	M1	2	14	D4	release
855.412	n/a	RESPONSE	M1	2	14	D4	press
855.7	n/a	RESPONSE	M1	2	14	D4	release
855.859	n/a	RESPONSE	M1	2	12	C4	press
856.151	n/a	RESPONSE	M1	2	12	C4	release
856.184	n/a	RESPONSE	M1	2	16	E4	press
856.433	n/a	RESPONSE	M1	2	16	E4	release
856.516	n/a	RESPONSE	M1	2	12	C4	press
857.277	n/a	RESPONSE	M1	2	12	C4	release
858.762	7.758	FIXCROSS	n/a	n/a	n/a	n/a	n/a
866.52	6.325	CUE_LISTEN	M1	1	n/a	n/a	n/a
872.845	7.758	FIXCROSS	n/a	n/a	n/a	n/a	n/a
880.604	6.317	CUE_PLAYBACK_BOTH_HANDS	M1	1	n/a	n/a	n/a
881.04	n/a	RESPONSE	M1	1	07	G3	press
881.043	n/a	RESPONSE	M1	1	19	G4	press
881.463	n/a	RESPONSE	M1	1	19	G4	release
881.624	n/a	RESPONSE	M1	1	04	E3	press
881.638	n/a	RESPONSE	M1	1	16	E4	press
881.979	n/a	RESPONSE	M1	1	16	E4	release
882.028	n/a	RESPONSE	M1	1	04	E3	release
882.052	n/a	RESPONSE	M1	1	07	G3	release
882.16	n/a	RESPONSE	M1	1	04	E3	press
882.182	n/a	RESPONSE	M1	1	16	E4	press
882.523	n/a	RESPONSE	M1	1	16	E4	release
882.534	n/a	RESPONSE	M1	1	04	E3	release
882.677	n/a	RESPONSE	M1	1	05	F3	press
882.684	n/a	RESPONSE	M1	1	17	F4	press
883.077	n/a	RESPONSE	M1	1	17	F4	release
883.093	n/a	RESPONSE	M1	1	05	F3	release
883.222	n/a	RESPONSE	M1	1	02	D3	press
883.247	n/a	RESPONSE	M1	1	14	D4	press
883.563	n/a	RESPONSE	M1	1	14	D4	release
883.584	n/a	RESPONSE	M1	1	02	D3	release
883.762	n/a	RESPONSE	M1	1	02	D3	press
883.804	n/a	RESPONSE	M1	1	14	D4	press
884.113	n/a	RESPONSE	M1	1	02	D3	release
884.132	n/a	RESPONSE	M1	1	14	D4	release
884.297	n/a	RESPONSE	M1	1	00	C3	press
884.329	n/a	RESPONSE	M1	1	12	C4	press
884.662	n/a	RESPONSE	M1	1	12	C4	release
884.717	n/a	RESPONSE	M1	1	04	E3	press
884.736	n/a	RESPONSE	M1	1	16	E4	press
884.932	n/a	RESPONSE	M1	1	00	C3	release
884.977	n/a	RESPONSE	M1	1	16	E4	release
885.059	n/a	RESPONSE	M1	1	04	E3	release
885.064	n/a	RESPONSE	M1	1	07	G3	press
885.097	n/a	RESPONSE	M1	1	19	G4	press
885.748	n/a	RESPONSE	M1	1	19	G4	release
885.974	n/a	RESPONSE	M1	1	07	G3	release
886.92	7.767	FIXCROSS	n/a	n/a	n/a	n/a	n/a
894.687	6.308	CUE_LISTEN	M1	2	n/a	n/a	n/a
900.995	7.759	FIXCROSS	n/a	n/a	n/a	n/a	n/a
908.754	49.32	CUE_PLAYBACK_BOTH_HANDS	M1	2	n/a	n/a	n/a
909.313	n/a	RESPONSE	M1	2	19	G4	press
909.316	n/a	RESPONSE	M1	2	07	G3	press
909.735	n/a	RESPONSE	M1	2	19	G4	release
909.927	n/a	RESPONSE	M1	2	04	E3	press
909.938	n/a	RESPONSE	M1	2	16	E4	press
910.27	n/a	RESPONSE	M1	2	16	E4	release
910.292	n/a	RESPONSE	M1	2	04	E3	release
910.492	n/a	RESPONSE	M1	2	04	E3	press
910.503	n/a	RESPONSE	M1	2	16	E4	press
910.844	n/a	RESPONSE	M1	2	16	E4	release
910.847	n/a	RESPONSE	M1	2	04	E3	release
911.017	n/a	RESPONSE	M1	2	17	F4	press
911.019	n/a	RESPONSE	M1	2	05	F3	press
911.399	n/a	RESPONSE	M1	2	17	F4	release
911.43	n/a	RESPONSE	M1	2	05	F3	release
911.462	n/a	RESPONSE	M1	2	07	G3	release
911.583	n/a	RESPONSE	M1	2	02	D3	press
911.585	n/a	RESPONSE	M1	2	14	D4	press
911.917	n/a	RESPONSE	M1	2	14	D4	release
911.967	n/a	RESPONSE	M1	2	02	D3	release
912.108	n/a	RESPONSE	M1	2	02	D3	press
912.159	n/a	RESPONSE	M1	2	14	D4	press
912.43	n/a	RESPONSE	M1	2	02	D3	release
912.472	n/a	RESPONSE	M1	2	14	D4	release
912.603	n/a	RESPONSE	M1	2	00	C3	press
912.667	n/a	RESPONSE	M1	2	12	C4	press
912.969	n/a	RESPONSE	M1	2	12	C4	release
913.014	n/a	RESPONSE	M1	2	04	E3	press
913.046	n/a	RESPONSE	M1	2	16	E4	press
913.248	n/a	FIXCROSS	n/a	n/a	n/a	n/a	n/a
913.287	n/a	RESPONSE	M1	2	16	E4	release
913.307	n/a	RESPONSE	M1	2	04	E3	release
913.355	n/a	RESPONSE	M1	2	12	C4	press
914.206	n/a	RESPONSE	M1	2	12	C4	release
914.208	n/a	RESPONSE	M1	2	00	C3	release
