onset	duration	trial_type	trial_number	stroop_condition	stim_text(PL)	stim_text(eng)	stim_color(PL)	stim_color(eng)	response_type	response_color
0.0	n/a	RESPONSE	n/a	n/a	n/a	n/a	n/a	n/a	n/a	n/a
0.0655	1.0167	ITI	n/a	n/a	n/a	n/a	n/a	n/a	n/a	n/a
1.0822	0.5167	FIXCROSS	n/a	n/a	n/a	n/a	n/a	n/a	n/a	n/a
1.5989	1.1333	T_INK	1	Neutral	xxxxxxxxx	xxxxxxxxx	żółty	yellow	hit	n/a
2.7034	n/a	RESPONSE	n/a	n/a	n/a	n/a	n/a	n/a	n/a	yellow
2.7322	0.5167	FEEDBACK	n/a	n/a	n/a	n/a	n/a	n/a	n/a	n/a
3.2489	1.0167	ITI	n/a	n/a	n/a	n/a	n/a	n/a	n/a	n/a
4.2656	0.5167	FIXCROSS	n/a	n/a	n/a	n/a	n/a	n/a	n/a	n/a
4.7822	0.9333	T_INK	2	Neutral	xxxxxxxx	xxxxxxxx	niebieski	blue	hit	n/a
5.6946	n/a	RESPONSE	n/a	n/a	n/a	n/a	n/a	n/a	n/a	blue
5.7156	0.5167	FEEDBACK	n/a	n/a	n/a	n/a	n/a	n/a	n/a	n/a
6.2322	1.0167	ITI	n/a	n/a	n/a	n/a	n/a	n/a	n/a	n/a
7.2489	0.5167	FIXCROSS	n/a	n/a	n/a	n/a	n/a	n/a	n/a	n/a
7.7656	0.7167	T_INK	3	Neutral	xxxxx	xxxxx	niebieski	blue	hit	n/a
8.4459	n/a	RESPONSE	n/a	n/a	n/a	n/a	n/a	n/a	n/a	blue
8.4823	0.5167	FEEDBACK	n/a	n/a	n/a	n/a	n/a	n/a	n/a	n/a
8.9989	1.0167	ITI	n/a	n/a	n/a	n/a	n/a	n/a	n/a	n/a
10.0156	0.5167	FIXCROSS	n/a	n/a	n/a	n/a	n/a	n/a	n/a	n/a
10.5323	1.1667	T_INK	4	Incongruent	żółty	yellow	niebieski	blue	hit	n/a
11.677	n/a	RESPONSE	n/a	n/a	n/a	n/a	n/a	n/a	n/a	blue
11.699	0.5167	FEEDBACK	n/a	n/a	n/a	n/a	n/a	n/a	n/a	n/a
12.2156	1.0167	ITI	n/a	n/a	n/a	n/a	n/a	n/a	n/a	n/a
13.2323	0.5167	FIXCROSS	n/a	n/a	n/a	n/a	n/a	n/a	n/a	n/a
13.749	0.8833	T_INK	5	Incongruent	żółty	yellow	czerwony	red	hit	n/a
14.6043	n/a	RESPONSE	n/a	n/a	n/a	n/a	n/a	n/a	n/a	red
14.6323	0.5167	FEEDBACK	n/a	n/a	n/a	n/a	n/a	n/a	n/a	n/a
15.149	1.0167	ITI	n/a	n/a	n/a	n/a	n/a	n/a	n/a	n/a
16.1657	0.5167	FIXCROSS	n/a	n/a	n/a	n/a	n/a	n/a	n/a	n/a
16.6823	0.8167	T_INK	6	Neutral	xxxxx	xxxxx	czerwony	red	hit	n/a
17.4675	n/a	RESPONSE	n/a	n/a	n/a	n/a	n/a	n/a	n/a	red
17.499	0.5167	FEEDBACK	n/a	n/a	n/a	n/a	n/a	n/a	n/a	n/a
18.0157	1.0167	ITI	n/a	n/a	n/a	n/a	n/a	n/a	n/a	n/a
19.0324	0.5167	FIXCROSS	n/a	n/a	n/a	n/a	n/a	n/a	n/a	n/a
19.549	0.6667	T_INK	7	Neutral	xxxxxxxxx	xxxxxxxxx	czerwony	red	hit	n/a
20.1868	n/a	RESPONSE	n/a	n/a	n/a	n/a	n/a	n/a	n/a	red
20.2157	0.5167	FEEDBACK	n/a	n/a	n/a	n/a	n/a	n/a	n/a	n/a
20.7324	1.0167	ITI	n/a	n/a	n/a	n/a	n/a	n/a	n/a	n/a
21.749	0.5167	FIXCROSS	n/a	n/a	n/a	n/a	n/a	n/a	n/a	n/a
22.2657	0.8333	T_INK	8	Incongruent	zielony	green	żółty	yellow	hit	n/a
23.066	n/a	RESPONSE	n/a	n/a	n/a	n/a	n/a	n/a	n/a	yellow
23.0991	0.5167	FEEDBACK	n/a	n/a	n/a	n/a	n/a	n/a	n/a	n/a
23.6157	1.0167	ITI	n/a	n/a	n/a	n/a	n/a	n/a	n/a	n/a
24.6324	0.5167	FIXCROSS	n/a	n/a	n/a	n/a	n/a	n/a	n/a	n/a
25.1491	0.8667	T_INK	9	Neutral	xxxxxxx	xxxxxxx	niebieski	blue	hit	n/a
25.9933	n/a	RESPONSE	n/a	n/a	n/a	n/a	n/a	n/a	n/a	blue
26.0157	0.5167	FEEDBACK	n/a	n/a	n/a	n/a	n/a	n/a	n/a	n/a
26.5324	1.0167	ITI	n/a	n/a	n/a	n/a	n/a	n/a	n/a	n/a
27.5491	0.5167	FIXCROSS	n/a	n/a	n/a	n/a	n/a	n/a	n/a	n/a
28.0658	0.8167	T_INK	10	Incongruent	niebieski	blue	czerwony	red	hit	n/a
28.8565	n/a	RESPONSE	n/a	n/a	n/a	n/a	n/a	n/a	n/a	red
28.8824	0.5167	FEEDBACK	n/a	n/a	n/a	n/a	n/a	n/a	n/a	n/a
29.3991	1.0167	ITI	n/a	n/a	n/a	n/a	n/a	n/a	n/a	n/a
30.4158	0.5167	FIXCROSS	n/a	n/a	n/a	n/a	n/a	n/a	n/a	n/a
30.9325	0.7333	T_INK	11	Incongruent	zielony	green	czerwony	red	hit	n/a
31.6398	n/a	RESPONSE	n/a	n/a	n/a	n/a	n/a	n/a	n/a	red
31.6658	0.5167	FEEDBACK	n/a	n/a	n/a	n/a	n/a	n/a	n/a	n/a
32.1825	1.0167	ITI	n/a	n/a	n/a	n/a	n/a	n/a	n/a	n/a
33.1991	0.5167	FIXCROSS	n/a	n/a	n/a	n/a	n/a	n/a	n/a	n/a
33.7158	0.9167	T_INK	12	Incongruent	zielony	green	niebieski	blue	hit	n/a
34.5991	n/a	RESPONSE	n/a	n/a	n/a	n/a	n/a	n/a	n/a	blue
34.6325	0.5167	FEEDBACK	n/a	n/a	n/a	n/a	n/a	n/a	n/a	n/a
35.1492	1.0333	ITI	n/a	n/a	n/a	n/a	n/a	n/a	n/a	n/a
53.8103	n/a	RESPONSE	n/a	n/a	n/a	n/a	n/a	n/a	n/a	n/a
53.866	1.0167	ITI	n/a	n/a	n/a	n/a	n/a	n/a	n/a	n/a
54.8826	0.5167	FIXCROSS	n/a	n/a	n/a	n/a	n/a	n/a	n/a	n/a
55.3993	0.7	INK	1	Neutral	xxxxx	xxxxx	niebieski	blue	hit	n/a
56.0818	n/a	RESPONSE	n/a	n/a	n/a	n/a	n/a	n/a	n/a	blue
56.0993	1.0167	ITI	n/a	n/a	n/a	n/a	n/a	n/a	n/a	n/a
57.116	0.5167	FIXCROSS	n/a	n/a	n/a	n/a	n/a	n/a	n/a	n/a
57.6327	0.75	INK	2	Neutral	xxxxxxxxx	xxxxxxxxx	żółty	yellow	hit	n/a
58.3532	n/a	RESPONSE	n/a	n/a	n/a	n/a	n/a	n/a	n/a	yellow
58.3827	1.0167	ITI	n/a	n/a	n/a	n/a	n/a	n/a	n/a	n/a
59.3993	0.5167	FIXCROSS	n/a	n/a	n/a	n/a	n/a	n/a	n/a	n/a
59.916	0.6667	INK	3	Incongruent	żółty	yellow	niebieski	blue	hit	n/a
60.5607	n/a	RESPONSE	n/a	n/a	n/a	n/a	n/a	n/a	n/a	blue
60.5827	1.0167	ITI	n/a	n/a	n/a	n/a	n/a	n/a	n/a	n/a
61.5994	0.5167	FIXCROSS	n/a	n/a	n/a	n/a	n/a	n/a	n/a	n/a
62.116	0.75	INK	4	Incongruent	czerwony	red	zielony	green	hit	n/a
62.8481	n/a	RESPONSE	n/a	n/a	n/a	n/a	n/a	n/a	n/a	green
62.866	1.0167	ITI	n/a	n/a	n/a	n/a	n/a	n/a	n/a	n/a
63.8827	0.5167	FIXCROSS	n/a	n/a	n/a	n/a	n/a	n/a	n/a	n/a
64.3994	0.5167	INK	5	Neutral	xxxxxxxxx	xxxxxxxxx	zielony	green	hit	n/a
64.8956	n/a	RESPONSE	n/a	n/a	n/a	n/a	n/a	n/a	n/a	green
64.9161	1.0167	ITI	n/a	n/a	n/a	n/a	n/a	n/a	n/a	n/a
65.9327	0.5167	FIXCROSS	n/a	n/a	n/a	n/a	n/a	n/a	n/a	n/a
66.4494	0.7	INK	6	Neutral	xxxxxxx	xxxxxxx	niebieski	blue	hit	n/a
67.119	n/a	RESPONSE	n/a	n/a	n/a	n/a	n/a	n/a	n/a	blue
67.1494	1.0167	ITI	n/a	n/a	n/a	n/a	n/a	n/a	n/a	n/a
68.1661	0.5167	FIXCROSS	n/a	n/a	n/a	n/a	n/a	n/a	n/a	n/a
68.6828	0.7	INK	7	Neutral	xxxxxxxx	xxxxxxxx	żółty	yellow	hit	n/a
69.3585	n/a	RESPONSE	n/a	n/a	n/a	n/a	n/a	n/a	n/a	yellow
69.3828	1.0167	ITI	n/a	n/a	n/a	n/a	n/a	n/a	n/a	n/a
70.3994	0.5167	FIXCROSS	n/a	n/a	n/a	n/a	n/a	n/a	n/a	n/a
70.9161	0.7	INK	8	Incongruent	niebieski	blue	żółty	yellow	hit	n/a
71.598	n/a	RESPONSE	n/a	n/a	n/a	n/a	n/a	n/a	n/a	yellow
71.6161	1.0167	ITI	n/a	n/a	n/a	n/a	n/a	n/a	n/a	n/a
72.6328	0.5167	FIXCROSS	n/a	n/a	n/a	n/a	n/a	n/a	n/a	n/a
73.1495	0.6333	INK	9	Neutral	xxxxxxx	xxxxxxx	niebieski	blue	hit	n/a
73.7574	n/a	RESPONSE	n/a	n/a	n/a	n/a	n/a	n/a	n/a	blue
73.7828	1.0167	ITI	n/a	n/a	n/a	n/a	n/a	n/a	n/a	n/a
74.7995	0.5167	FIXCROSS	n/a	n/a	n/a	n/a	n/a	n/a	n/a	n/a
75.3161	0.6167	INK	10	Neutral	xxxxxxxxx	xxxxxxxxx	czerwony	red	hit	n/a
75.9009	n/a	RESPONSE	n/a	n/a	n/a	n/a	n/a	n/a	n/a	red
75.9328	1.0167	ITI	n/a	n/a	n/a	n/a	n/a	n/a	n/a	n/a
76.9495	0.5167	FIXCROSS	n/a	n/a	n/a	n/a	n/a	n/a	n/a	n/a
77.4662	0.65	INK	11	Neutral	xxxxxxxx	xxxxxxxx	zielony	green	hit	n/a
78.0924	n/a	RESPONSE	n/a	n/a	n/a	n/a	n/a	n/a	n/a	green
78.1162	1.0167	ITI	n/a	n/a	n/a	n/a	n/a	n/a	n/a	n/a
79.1329	0.5167	FIXCROSS	n/a	n/a	n/a	n/a	n/a	n/a	n/a	n/a
79.6495	0.6333	INK	12	Neutral	xxxxxxxxx	xxxxxxxxx	zielony	green	hit	n/a
80.2518	n/a	RESPONSE	n/a	n/a	n/a	n/a	n/a	n/a	n/a	green
80.2829	1.0167	ITI	n/a	n/a	n/a	n/a	n/a	n/a	n/a	n/a
81.2995	0.5167	FIXCROSS	n/a	n/a	n/a	n/a	n/a	n/a	n/a	n/a
81.8162	0.75	INK	13	Incongruent	czerwony	red	niebieski	blue	hit	n/a
82.5393	n/a	RESPONSE	n/a	n/a	n/a	n/a	n/a	n/a	n/a	blue
82.5662	1.0167	ITI	n/a	n/a	n/a	n/a	n/a	n/a	n/a	n/a
83.5829	0.5167	FIXCROSS	n/a	n/a	n/a	n/a	n/a	n/a	n/a	n/a
84.0996	0.7333	INK	14	Neutral	xxxxx	xxxxx	zielony	green	hit	n/a
84.8107	n/a	RESPONSE	n/a	n/a	n/a	n/a	n/a	n/a	n/a	green
84.8329	1.0167	ITI	n/a	n/a	n/a	n/a	n/a	n/a	n/a	n/a
85.8496	0.5167	FIXCROSS	n/a	n/a	n/a	n/a	n/a	n/a	n/a	n/a
86.3662	0.6667	INK	15	Incongruent	żółty	yellow	czerwony	red	hit	n/a
87.0022	n/a	RESPONSE	n/a	n/a	n/a	n/a	n/a	n/a	n/a	red
87.0329	1.0167	ITI	n/a	n/a	n/a	n/a	n/a	n/a	n/a	n/a
88.0496	0.5167	FIXCROSS	n/a	n/a	n/a	n/a	n/a	n/a	n/a	n/a
88.5663	0.7167	INK	16	Neutral	xxxxxxxx	xxxxxxxx	żółty	yellow	hit	n/a
89.2576	n/a	RESPONSE	n/a	n/a	n/a	n/a	n/a	n/a	n/a	yellow
89.2829	1.0167	ITI	n/a	n/a	n/a	n/a	n/a	n/a	n/a	n/a
90.2996	0.5167	FIXCROSS	n/a	n/a	n/a	n/a	n/a	n/a	n/a	n/a
90.8163	0.85	INK	17	Incongruent	żółty	yellow	czerwony	red	hit	n/a
91.641	n/a	RESPONSE	n/a	n/a	n/a	n/a	n/a	n/a	n/a	red
91.6663	1.0167	ITI	n/a	n/a	n/a	n/a	n/a	n/a	n/a	n/a
92.683	0.5167	FIXCROSS	n/a	n/a	n/a	n/a	n/a	n/a	n/a	n/a
93.1996	0.6333	INK	18	Neutral	xxxxxxxx	xxxxxxxx	niebieski	blue	hit	n/a
93.8005	n/a	RESPONSE	n/a	n/a	n/a	n/a	n/a	n/a	n/a	blue
93.833	1.0167	ITI	n/a	n/a	n/a	n/a	n/a	n/a	n/a	n/a
94.8496	0.5167	FIXCROSS	n/a	n/a	n/a	n/a	n/a	n/a	n/a	n/a
95.3663	0.65	INK	19	Neutral	xxxxx	xxxxx	niebieski	blue	hit	n/a
95.9919	n/a	RESPONSE	n/a	n/a	n/a	n/a	n/a	n/a	n/a	blue
96.0163	1.0167	ITI	n/a	n/a	n/a	n/a	n/a	n/a	n/a	n/a
97.033	0.5167	FIXCROSS	n/a	n/a	n/a	n/a	n/a	n/a	n/a	n/a
97.5497	0.7834	INK	20	Incongruent	niebieski	blue	żółty	yellow	hit	n/a
98.3113	n/a	RESPONSE	n/a	n/a	n/a	n/a	n/a	n/a	n/a	yellow
98.333	1.0167	ITI	n/a	n/a	n/a	n/a	n/a	n/a	n/a	n/a
99.3497	0.5167	FIXCROSS	n/a	n/a	n/a	n/a	n/a	n/a	n/a	n/a
99.8663	0.7	INK	21	Neutral	xxxxxxxxx	xxxxxxxxx	żółty	yellow	hit	n/a
100.5348	n/a	RESPONSE	n/a	n/a	n/a	n/a	n/a	n/a	n/a	yellow
100.5664	1.0167	ITI	n/a	n/a	n/a	n/a	n/a	n/a	n/a	n/a
101.583	0.5167	FIXCROSS	n/a	n/a	n/a	n/a	n/a	n/a	n/a	n/a
102.0997	0.7333	INK	22	Neutral	xxxxxxxx	xxxxxxxx	zielony	green	hit	n/a
102.8063	n/a	RESPONSE	n/a	n/a	n/a	n/a	n/a	n/a	n/a	green
102.833	1.0167	ITI	n/a	n/a	n/a	n/a	n/a	n/a	n/a	n/a
103.8497	0.5167	FIXCROSS	n/a	n/a	n/a	n/a	n/a	n/a	n/a	n/a
104.3664	0.65	INK	23	Incongruent	czerwony	red	zielony	green	hit	n/a
104.9977	n/a	RESPONSE	n/a	n/a	n/a	n/a	n/a	n/a	n/a	green
105.0164	1.0167	ITI	n/a	n/a	n/a	n/a	n/a	n/a	n/a	n/a
106.0331	0.5167	FIXCROSS	n/a	n/a	n/a	n/a	n/a	n/a	n/a	n/a
106.5497	0.7667	INK	24	Incongruent	zielony	green	żółty	yellow	hit	n/a
107.2852	n/a	RESPONSE	n/a	n/a	n/a	n/a	n/a	n/a	n/a	yellow
107.3164	1.0167	ITI	n/a	n/a	n/a	n/a	n/a	n/a	n/a	n/a
108.3331	0.5167	FIXCROSS	n/a	n/a	n/a	n/a	n/a	n/a	n/a	n/a
108.8498	0.75	INK	25	Neutral	xxxxxxx	xxxxxxx	żółty	yellow	hit	n/a
109.5726	n/a	RESPONSE	n/a	n/a	n/a	n/a	n/a	n/a	n/a	yellow
109.5998	1.0167	ITI	n/a	n/a	n/a	n/a	n/a	n/a	n/a	n/a
110.6164	0.5167	FIXCROSS	n/a	n/a	n/a	n/a	n/a	n/a	n/a	n/a
111.1331	0.7167	INK	26	Neutral	xxxxxxx	xxxxxxx	czerwony	red	hit	n/a
111.828	n/a	RESPONSE	n/a	n/a	n/a	n/a	n/a	n/a	n/a	red
111.8498	1.0167	ITI	n/a	n/a	n/a	n/a	n/a	n/a	n/a	n/a
112.8665	0.5167	FIXCROSS	n/a	n/a	n/a	n/a	n/a	n/a	n/a	n/a
113.3831	0.7833	INK	27	Incongruent	zielony	green	niebieski	blue	hit	n/a
114.1475	n/a	RESPONSE	n/a	n/a	n/a	n/a	n/a	n/a	n/a	blue
114.1665	1.0167	ITI	n/a	n/a	n/a	n/a	n/a	n/a	n/a	n/a
115.1831	0.5167	FIXCROSS	n/a	n/a	n/a	n/a	n/a	n/a	n/a	n/a
115.6998	0.7	INK	28	Neutral	xxxxxxxxx	xxxxxxxxx	czerwony	red	hit	n/a
116.3709	n/a	RESPONSE	n/a	n/a	n/a	n/a	n/a	n/a	n/a	red
116.3998	1.0167	ITI	n/a	n/a	n/a	n/a	n/a	n/a	n/a	n/a
117.4165	0.5167	FIXCROSS	n/a	n/a	n/a	n/a	n/a	n/a	n/a	n/a
117.9332	0.7667	INK	29	Incongruent	żółty	yellow	zielony	green	hit	n/a
118.6743	n/a	RESPONSE	n/a	n/a	n/a	n/a	n/a	n/a	n/a	green
118.6998	1.0167	ITI	n/a	n/a	n/a	n/a	n/a	n/a	n/a	n/a
119.7165	0.5167	FIXCROSS	n/a	n/a	n/a	n/a	n/a	n/a	n/a	n/a
120.2332	0.9667	INK	30	Incongruent	czerwony	red	żółty	yellow	hit	n/a
121.1697	n/a	RESPONSE	n/a	n/a	n/a	n/a	n/a	n/a	n/a	yellow
121.1999	1.0167	ITI	n/a	n/a	n/a	n/a	n/a	n/a	n/a	n/a
122.2165	0.5167	FIXCROSS	n/a	n/a	n/a	n/a	n/a	n/a	n/a	n/a
122.7332	0.7167	INK	31	Incongruent	niebieski	blue	czerwony	red	hit	n/a
123.4252	n/a	RESPONSE	n/a	n/a	n/a	n/a	n/a	n/a	n/a	red
123.4499	1.0167	ITI	n/a	n/a	n/a	n/a	n/a	n/a	n/a	n/a
124.4665	0.5167	FIXCROSS	n/a	n/a	n/a	n/a	n/a	n/a	n/a	n/a
124.9832	0.7167	INK	32	Neutral	xxxxxxx	xxxxxxx	żółty	yellow	hit	n/a
125.6806	n/a	RESPONSE	n/a	n/a	n/a	n/a	n/a	n/a	n/a	yellow
125.6999	1.0167	ITI	n/a	n/a	n/a	n/a	n/a	n/a	n/a	n/a
126.7166	0.5167	FIXCROSS	n/a	n/a	n/a	n/a	n/a	n/a	n/a	n/a
127.2332	0.7333	INK	33	Incongruent	żółty	yellow	niebieski	blue	hit	n/a
127.9361	n/a	RESPONSE	n/a	n/a	n/a	n/a	n/a	n/a	n/a	blue
127.9666	1.0167	ITI	n/a	n/a	n/a	n/a	n/a	n/a	n/a	n/a
128.9832	0.5167	FIXCROSS	n/a	n/a	n/a	n/a	n/a	n/a	n/a	n/a
129.4999	0.8167	INK	34	Incongruent	niebieski	blue	zielony	green	hit	n/a
130.2875	n/a	RESPONSE	n/a	n/a	n/a	n/a	n/a	n/a	n/a	green
130.3166	1.0167	ITI	n/a	n/a	n/a	n/a	n/a	n/a	n/a	n/a
131.3333	0.5167	FIXCROSS	n/a	n/a	n/a	n/a	n/a	n/a	n/a	n/a
131.8499	0.65	INK	35	Incongruent	żółty	yellow	niebieski	blue	hit	n/a
132.4789	n/a	RESPONSE	n/a	n/a	n/a	n/a	n/a	n/a	n/a	blue
132.4999	1.0167	ITI	n/a	n/a	n/a	n/a	n/a	n/a	n/a	n/a
133.5166	0.5167	FIXCROSS	n/a	n/a	n/a	n/a	n/a	n/a	n/a	n/a
134.0333	0.7	INK	36	Neutral	xxxxxxxxx	xxxxxxxxx	czerwony	red	hit	n/a
134.7024	n/a	RESPONSE	n/a	n/a	n/a	n/a	n/a	n/a	n/a	red
134.7333	1.0167	ITI	n/a	n/a	n/a	n/a	n/a	n/a	n/a	n/a
135.75	0.5167	FIXCROSS	n/a	n/a	n/a	n/a	n/a	n/a	n/a	n/a
136.2666	0.55	INK	37	Neutral	xxxxx	xxxxx	czerwony	red	hit	n/a
136.7979	n/a	RESPONSE	n/a	n/a	n/a	n/a	n/a	n/a	n/a	red
136.8166	1.0167	ITI	n/a	n/a	n/a	n/a	n/a	n/a	n/a	n/a
137.8333	0.5167	FIXCROSS	n/a	n/a	n/a	n/a	n/a	n/a	n/a	n/a
138.35	0.8	INK	38	Incongruent	żółty	yellow	zielony	green	hit	n/a
139.1173	n/a	RESPONSE	n/a	n/a	n/a	n/a	n/a	n/a	n/a	green
139.15	1.0167	ITI	n/a	n/a	n/a	n/a	n/a	n/a	n/a	n/a
140.1667	0.5167	FIXCROSS	n/a	n/a	n/a	n/a	n/a	n/a	n/a	n/a
140.6833	0.75	INK	39	Incongruent	zielony	green	czerwony	red	hit	n/a
141.4048	n/a	RESPONSE	n/a	n/a	n/a	n/a	n/a	n/a	n/a	red
141.4333	1.0167	ITI	n/a	n/a	n/a	n/a	n/a	n/a	n/a	n/a
142.45	0.5167	FIXCROSS	n/a	n/a	n/a	n/a	n/a	n/a	n/a	n/a
142.9667	0.6833	INK	40	Neutral	xxxxxxx	xxxxxxx	żółty	yellow	hit	n/a
143.6282	n/a	RESPONSE	n/a	n/a	n/a	n/a	n/a	n/a	n/a	yellow
143.65	1.0167	ITI	n/a	n/a	n/a	n/a	n/a	n/a	n/a	n/a
144.6667	0.5167	FIXCROSS	n/a	n/a	n/a	n/a	n/a	n/a	n/a	n/a
145.1834	0.7167	INK	41	Incongruent	zielony	green	czerwony	red	hit	n/a
145.8677	n/a	RESPONSE	n/a	n/a	n/a	n/a	n/a	n/a	n/a	red
145.9001	1.0167	ITI	n/a	n/a	n/a	n/a	n/a	n/a	n/a	n/a
146.9167	0.5167	FIXCROSS	n/a	n/a	n/a	n/a	n/a	n/a	n/a	n/a
147.4334	0.7333	INK	42	Incongruent	zielony	green	niebieski	blue	hit	n/a
148.1391	n/a	RESPONSE	n/a	n/a	n/a	n/a	n/a	n/a	n/a	blue
148.1667	1.0167	ITI	n/a	n/a	n/a	n/a	n/a	n/a	n/a	n/a
149.1834	0.5167	FIXCROSS	n/a	n/a	n/a	n/a	n/a	n/a	n/a	n/a
149.7001	0.7333	INK	43	Neutral	xxxxx	xxxxx	czerwony	red	hit	n/a
150.4106	n/a	RESPONSE	n/a	n/a	n/a	n/a	n/a	n/a	n/a	red
150.4334	1.0167	ITI	n/a	n/a	n/a	n/a	n/a	n/a	n/a	n/a
151.4501	0.5167	FIXCROSS	n/a	n/a	n/a	n/a	n/a	n/a	n/a	n/a
151.9668	0.7333	INK	44	Neutral	xxxxxxxx	xxxxxxxx	żółty	yellow	hit	n/a
152.682	n/a	RESPONSE	n/a	n/a	n/a	n/a	n/a	n/a	n/a	yellow
152.7001	1.0167	ITI	n/a	n/a	n/a	n/a	n/a	n/a	n/a	n/a
153.7168	0.5167	FIXCROSS	n/a	n/a	n/a	n/a	n/a	n/a	n/a	n/a
154.2335	0.6833	INK	45	Incongruent	zielony	green	czerwony	red	hit	n/a
154.8894	n/a	RESPONSE	n/a	n/a	n/a	n/a	n/a	n/a	n/a	red
154.9168	1.0167	ITI	n/a	n/a	n/a	n/a	n/a	n/a	n/a	n/a
155.9335	0.5167	FIXCROSS	n/a	n/a	n/a	n/a	n/a	n/a	n/a	n/a
156.4501	0.8333	INK	46	Incongruent	zielony	green	żółty	yellow	hit	n/a
157.2569	n/a	RESPONSE	n/a	n/a	n/a	n/a	n/a	n/a	n/a	yellow
157.2835	1.0167	ITI	n/a	n/a	n/a	n/a	n/a	n/a	n/a	n/a
158.3002	0.5167	FIXCROSS	n/a	n/a	n/a	n/a	n/a	n/a	n/a	n/a
158.8168	0.85	INK	47	Incongruent	niebieski	blue	czerwony	red	hit	n/a
159.6403	n/a	RESPONSE	n/a	n/a	n/a	n/a	n/a	n/a	n/a	red
159.6668	1.0167	ITI	n/a	n/a	n/a	n/a	n/a	n/a	n/a	n/a
160.6835	0.5167	FIXCROSS	n/a	n/a	n/a	n/a	n/a	n/a	n/a	n/a
161.2002	0.7333	INK	48	Incongruent	czerwony	red	niebieski	blue	hit	n/a
161.9117	n/a	RESPONSE	n/a	n/a	n/a	n/a	n/a	n/a	n/a	blue
161.9335	1.0167	ITI	n/a	n/a	n/a	n/a	n/a	n/a	n/a	n/a
162.9502	0.5167	FIXCROSS	n/a	n/a	n/a	n/a	n/a	n/a	n/a	n/a
163.4669	0.7333	INK	49	Incongruent	zielony	green	żółty	yellow	hit	n/a
164.1672	n/a	RESPONSE	n/a	n/a	n/a	n/a	n/a	n/a	n/a	yellow
164.2002	1.0167	ITI	n/a	n/a	n/a	n/a	n/a	n/a	n/a	n/a
165.2169	0.5167	FIXCROSS	n/a	n/a	n/a	n/a	n/a	n/a	n/a	n/a
165.7335	0.7333	INK	50	Incongruent	niebieski	blue	zielony	green	hit	n/a
166.4386	n/a	RESPONSE	n/a	n/a	n/a	n/a	n/a	n/a	n/a	green
166.4669	1.0167	ITI	n/a	n/a	n/a	n/a	n/a	n/a	n/a	n/a
167.4836	0.5167	FIXCROSS	n/a	n/a	n/a	n/a	n/a	n/a	n/a	n/a
168.0002	0.6833	INK	51	Incongruent	czerwony	red	zielony	green	hit	n/a
168.6621	n/a	RESPONSE	n/a	n/a	n/a	n/a	n/a	n/a	n/a	green
168.6836	1.0167	ITI	n/a	n/a	n/a	n/a	n/a	n/a	n/a	n/a
169.7002	0.5167	FIXCROSS	n/a	n/a	n/a	n/a	n/a	n/a	n/a	n/a
170.2169	0.55	INK	52	Neutral	xxxxxxxx	xxxxxxxx	zielony	green	hit	n/a
170.7416	n/a	RESPONSE	n/a	n/a	n/a	n/a	n/a	n/a	n/a	green
170.7669	1.0167	ITI	n/a	n/a	n/a	n/a	n/a	n/a	n/a	n/a
171.7836	0.5167	FIXCROSS	n/a	n/a	n/a	n/a	n/a	n/a	n/a	n/a
172.3003	0.75	INK	53	Incongruent	czerwony	red	żółty	yellow	hit	n/a
173.029	n/a	RESPONSE	n/a	n/a	n/a	n/a	n/a	n/a	n/a	yellow
173.0503	1.0167	ITI	n/a	n/a	n/a	n/a	n/a	n/a	n/a	n/a
174.0669	0.5167	FIXCROSS	n/a	n/a	n/a	n/a	n/a	n/a	n/a	n/a
174.5836	0.8333	INK	54	Neutral	xxxxx	xxxxx	zielony	green	hit	n/a
175.3964	n/a	RESPONSE	n/a	n/a	n/a	n/a	n/a	n/a	n/a	green
175.417	1.0167	ITI	n/a	n/a	n/a	n/a	n/a	n/a	n/a	n/a
176.4336	0.5167	FIXCROSS	n/a	n/a	n/a	n/a	n/a	n/a	n/a	n/a
176.9503	0.75	INK	55	Incongruent	niebieski	blue	zielony	green	hit	n/a
177.6678	n/a	RESPONSE	n/a	n/a	n/a	n/a	n/a	n/a	n/a	green
177.7003	1.0167	ITI	n/a	n/a	n/a	n/a	n/a	n/a	n/a	n/a
178.717	0.5167	FIXCROSS	n/a	n/a	n/a	n/a	n/a	n/a	n/a	n/a
179.2337	0.6667	INK	56	Neutral	xxxxx	xxxxx	czerwony	red	hit	n/a
179.8753	n/a	RESPONSE	n/a	n/a	n/a	n/a	n/a	n/a	n/a	red
179.9003	1.0167	ITI	n/a	n/a	n/a	n/a	n/a	n/a	n/a	n/a
180.917	0.5167	FIXCROSS	n/a	n/a	n/a	n/a	n/a	n/a	n/a	n/a
181.4337	0.55	INK	57	Neutral	xxxxxxx	xxxxxxx	czerwony	red	hit	n/a
181.9548	n/a	RESPONSE	n/a	n/a	n/a	n/a	n/a	n/a	n/a	red
181.9837	1.0167	ITI	n/a	n/a	n/a	n/a	n/a	n/a	n/a	n/a
183.0003	0.5167	FIXCROSS	n/a	n/a	n/a	n/a	n/a	n/a	n/a	n/a
183.517	0.7167	INK	58	Neutral	xxxxx	xxxxx	zielony	green	hit	n/a
184.2102	n/a	RESPONSE	n/a	n/a	n/a	n/a	n/a	n/a	n/a	green
184.2337	1.0167	ITI	n/a	n/a	n/a	n/a	n/a	n/a	n/a	n/a
185.2504	0.5167	FIXCROSS	n/a	n/a	n/a	n/a	n/a	n/a	n/a	n/a
185.767	0.7167	INK	59	Neutral	xxxxxxxxx	xxxxxxxxx	żółty	yellow	hit	n/a
186.4657	n/a	RESPONSE	n/a	n/a	n/a	n/a	n/a	n/a	n/a	yellow
186.4837	1.0167	ITI	n/a	n/a	n/a	n/a	n/a	n/a	n/a	n/a
187.5004	0.5167	FIXCROSS	n/a	n/a	n/a	n/a	n/a	n/a	n/a	n/a
188.0171	0.7167	INK	60	Incongruent	niebieski	blue	żółty	yellow	hit	n/a
188.7051	n/a	RESPONSE	n/a	n/a	n/a	n/a	n/a	n/a	n/a	yellow
188.7337	1.0167	ITI	n/a	n/a	n/a	n/a	n/a	n/a	n/a	n/a
189.7504	0.5167	FIXCROSS	n/a	n/a	n/a	n/a	n/a	n/a	n/a	n/a
190.2671	0.75	INK	61	Neutral	xxxxxxxx	xxxxxxxx	niebieski	blue	hit	n/a
190.9926	n/a	RESPONSE	n/a	n/a	n/a	n/a	n/a	n/a	n/a	blue
191.0171	1.0167	ITI	n/a	n/a	n/a	n/a	n/a	n/a	n/a	n/a
192.0338	0.5167	FIXCROSS	n/a	n/a	n/a	n/a	n/a	n/a	n/a	n/a
192.5504	0.7	INK	62	Incongruent	żółty	yellow	czerwony	red	hit	n/a
193.232	n/a	RESPONSE	n/a	n/a	n/a	n/a	n/a	n/a	n/a	red
193.2504	1.0167	ITI	n/a	n/a	n/a	n/a	n/a	n/a	n/a	n/a
194.2671	0.5167	FIXCROSS	n/a	n/a	n/a	n/a	n/a	n/a	n/a	n/a
194.7838	0.8333	INK	63	Incongruent	niebieski	blue	czerwony	red	hit	n/a
195.5994	n/a	RESPONSE	n/a	n/a	n/a	n/a	n/a	n/a	n/a	red
195.6171	1.0167	ITI	n/a	n/a	n/a	n/a	n/a	n/a	n/a	n/a
196.6338	0.5167	FIXCROSS	n/a	n/a	n/a	n/a	n/a	n/a	n/a	n/a
197.1505	0.7167	INK	64	Incongruent	czerwony	red	niebieski	blue	hit	n/a
197.8389	n/a	RESPONSE	n/a	n/a	n/a	n/a	n/a	n/a	n/a	blue
197.8671	1.0167	ITI	n/a	n/a	n/a	n/a	n/a	n/a	n/a	n/a
198.8838	0.5167	FIXCROSS	n/a	n/a	n/a	n/a	n/a	n/a	n/a	n/a
199.4005	0.7	INK	65	Neutral	xxxxxxx	xxxxxxx	niebieski	blue	hit	n/a
200.0783	n/a	RESPONSE	n/a	n/a	n/a	n/a	n/a	n/a	n/a	blue
200.1005	1.0167	ITI	n/a	n/a	n/a	n/a	n/a	n/a	n/a	n/a
201.1172	0.5167	FIXCROSS	n/a	n/a	n/a	n/a	n/a	n/a	n/a	n/a
201.6338	0.6167	INK	66	Neutral	xxxxxxxx	xxxxxxxx	niebieski	blue	hit	n/a
202.2218	n/a	RESPONSE	n/a	n/a	n/a	n/a	n/a	n/a	n/a	blue
202.2505	1.0167	ITI	n/a	n/a	n/a	n/a	n/a	n/a	n/a	n/a
203.2672	0.5167	FIXCROSS	n/a	n/a	n/a	n/a	n/a	n/a	n/a	n/a
203.7838	0.6667	INK	67	Neutral	xxxxxxxxx	xxxxxxxxx	zielony	green	hit	n/a
204.4293	n/a	RESPONSE	n/a	n/a	n/a	n/a	n/a	n/a	n/a	green
204.4505	1.0167	ITI	n/a	n/a	n/a	n/a	n/a	n/a	n/a	n/a
205.4672	0.5167	FIXCROSS	n/a	n/a	n/a	n/a	n/a	n/a	n/a	n/a
205.9839	0.6	INK	68	Neutral	xxxxxxx	xxxxxxx	czerwony	red	hit	n/a
206.5567	n/a	RESPONSE	n/a	n/a	n/a	n/a	n/a	n/a	n/a	red
206.5839	1.0167	ITI	n/a	n/a	n/a	n/a	n/a	n/a	n/a	n/a
207.6005	0.5167	FIXCROSS	n/a	n/a	n/a	n/a	n/a	n/a	n/a	n/a
208.1172	0.7	INK	69	Incongruent	czerwony	red	żółty	yellow	hit	n/a
208.7962	n/a	RESPONSE	n/a	n/a	n/a	n/a	n/a	n/a	n/a	yellow
208.8172	1.0167	ITI	n/a	n/a	n/a	n/a	n/a	n/a	n/a	n/a
209.8339	0.5167	FIXCROSS	n/a	n/a	n/a	n/a	n/a	n/a	n/a	n/a
210.3506	0.85	INK	70	Neutral	xxxxx	xxxxx	niebieski	blue	hit	n/a
211.1796	n/a	RESPONSE	n/a	n/a	n/a	n/a	n/a	n/a	n/a	blue
211.2006	1.0167	ITI	n/a	n/a	n/a	n/a	n/a	n/a	n/a	n/a
212.2172	0.5167	FIXCROSS	n/a	n/a	n/a	n/a	n/a	n/a	n/a	n/a
212.7339	0.6333	INK	71	Incongruent	zielony	green	niebieski	blue	hit	n/a
213.3391	n/a	RESPONSE	n/a	n/a	n/a	n/a	n/a	n/a	n/a	blue
213.3673	1.0167	ITI	n/a	n/a	n/a	n/a	n/a	n/a	n/a	n/a
214.3839	0.5167	FIXCROSS	n/a	n/a	n/a	n/a	n/a	n/a	n/a	n/a
214.9006	0.7667	INK	72	Incongruent	żółty	yellow	zielony	green	hit	n/a
215.6425	n/a	RESPONSE	n/a	n/a	n/a	n/a	n/a	n/a	n/a	green
215.6673	1.0833	ITI	n/a	n/a	n/a	n/a	n/a	n/a	n/a	n/a
231.4786	n/a	RESPONSE	n/a	n/a	n/a	n/a	n/a	n/a	n/a	n/a
231.5341	1.0167	ITI	n/a	n/a	n/a	n/a	n/a	n/a	n/a	n/a
232.5508	0.5167	FIXCROSS	n/a	n/a	n/a	n/a	n/a	n/a	n/a	n/a
233.0674	1.1333	T_COLOR_NAME	1	Neutral	zielony	green	Neutral	Neutral	hit	n/a
234.1659	n/a	RESPONSE	n/a	n/a	n/a	n/a	n/a	n/a	n/a	green
234.2008	0.5167	FEEDBACK	n/a	n/a	n/a	n/a	n/a	n/a	n/a	n/a
234.7174	1.0167	ITI	n/a	n/a	n/a	n/a	n/a	n/a	n/a	n/a
235.7341	0.5167	FIXCROSS	n/a	n/a	n/a	n/a	n/a	n/a	n/a	n/a
236.2508	1.6667	T_COLOR_NAME	2	Incongruent	zielony	green	żółty	yellow	hit	n/a
237.893	n/a	RESPONSE	n/a	n/a	n/a	n/a	n/a	n/a	n/a	green
237.9175	0.5167	FEEDBACK	n/a	n/a	n/a	n/a	n/a	n/a	n/a	n/a
238.4341	1.0167	ITI	n/a	n/a	n/a	n/a	n/a	n/a	n/a	n/a
239.4508	0.5167	FIXCROSS	n/a	n/a	n/a	n/a	n/a	n/a	n/a	n/a
239.9675	1.0	T_COLOR_NAME	3	Neutral	niebieski	blue	Neutral	Neutral	hit	n/a
240.9323	n/a	RESPONSE	n/a	n/a	n/a	n/a	n/a	n/a	n/a	blue
240.9675	0.5167	FEEDBACK	n/a	n/a	n/a	n/a	n/a	n/a	n/a	n/a
241.4841	1.0167	ITI	n/a	n/a	n/a	n/a	n/a	n/a	n/a	n/a
242.5008	0.5167	FIXCROSS	n/a	n/a	n/a	n/a	n/a	n/a	n/a	n/a
243.0175	1.3667	T_COLOR_NAME	4	Incongruent	niebieski	blue	czerwony	red	hit	n/a
244.3554	n/a	RESPONSE	n/a	n/a	n/a	n/a	n/a	n/a	n/a	blue
244.3842	0.5167	FEEDBACK	n/a	n/a	n/a	n/a	n/a	n/a	n/a	n/a
244.9008	1.0166	ITI	n/a	n/a	n/a	n/a	n/a	n/a	n/a	n/a
245.9175	0.5167	FIXCROSS	n/a	n/a	n/a	n/a	n/a	n/a	n/a	n/a
246.4342	2.15	T_COLOR_NAME	5	Incongruent	zielony	green	niebieski	blue	hit	n/a
248.5624	n/a	RESPONSE	n/a	n/a	n/a	n/a	n/a	n/a	n/a	green
248.5842	0.5167	FEEDBACK	n/a	n/a	n/a	n/a	n/a	n/a	n/a	n/a
249.1009	1.0167	ITI	n/a	n/a	n/a	n/a	n/a	n/a	n/a	n/a
250.1175	0.5167	FIXCROSS	n/a	n/a	n/a	n/a	n/a	n/a	n/a	n/a
250.6342	1.4833	T_COLOR_NAME	6	Incongruent	żółty	yellow	czerwony	red	hit	n/a
252.0815	n/a	RESPONSE	n/a	n/a	n/a	n/a	n/a	n/a	n/a	yellow
252.1176	0.5167	FEEDBACK	n/a	n/a	n/a	n/a	n/a	n/a	n/a	n/a
252.6342	1.0167	ITI	n/a	n/a	n/a	n/a	n/a	n/a	n/a	n/a
253.6509	0.5167	FIXCROSS	n/a	n/a	n/a	n/a	n/a	n/a	n/a	n/a
254.1676	1.1667	T_COLOR_NAME	7	Incongruent	żółty	yellow	niebieski	blue	hit	n/a
255.3127	n/a	RESPONSE	n/a	n/a	n/a	n/a	n/a	n/a	n/a	yellow
255.3343	0.5167	FEEDBACK	n/a	n/a	n/a	n/a	n/a	n/a	n/a	n/a
255.8509	1.0167	ITI	n/a	n/a	n/a	n/a	n/a	n/a	n/a	n/a
256.8676	0.5167	FIXCROSS	n/a	n/a	n/a	n/a	n/a	n/a	n/a	n/a
257.3843	0.9833	T_COLOR_NAME	8	Neutral	żółty	yellow	Neutral	Neutral	hit	n/a
258.336	n/a	RESPONSE	n/a	n/a	n/a	n/a	n/a	n/a	n/a	yellow
258.3676	0.5167	FEEDBACK	n/a	n/a	n/a	n/a	n/a	n/a	n/a	n/a
258.8843	1.0167	ITI	n/a	n/a	n/a	n/a	n/a	n/a	n/a	n/a
259.901	0.5167	FIXCROSS	n/a	n/a	n/a	n/a	n/a	n/a	n/a	n/a
260.4176	1.0333	T_COLOR_NAME	9	Neutral	żółty	yellow	Neutral	Neutral	hit	n/a
261.4232	n/a	RESPONSE	n/a	n/a	n/a	n/a	n/a	n/a	n/a	yellow
261.451	0.5167	FEEDBACK	n/a	n/a	n/a	n/a	n/a	n/a	n/a	n/a
261.9676	1.0167	ITI	n/a	n/a	n/a	n/a	n/a	n/a	n/a	n/a
262.9843	0.5167	FIXCROSS	n/a	n/a	n/a	n/a	n/a	n/a	n/a	n/a
263.501	1.1333	T_COLOR_NAME	10	Neutral	czerwony	red	Neutral	Neutral	hit	n/a
264.6065	n/a	RESPONSE	n/a	n/a	n/a	n/a	n/a	n/a	n/a	red
264.6343	0.5167	FEEDBACK	n/a	n/a	n/a	n/a	n/a	n/a	n/a	n/a
265.151	1.0167	ITI	n/a	n/a	n/a	n/a	n/a	n/a	n/a	n/a
266.1677	0.5167	FIXCROSS	n/a	n/a	n/a	n/a	n/a	n/a	n/a	n/a
266.6844	1.0	T_COLOR_NAME	11	Neutral	niebieski	blue	Neutral	Neutral	hit	n/a
267.6617	n/a	RESPONSE	n/a	n/a	n/a	n/a	n/a	n/a	n/a	blue
267.6844	0.5167	FEEDBACK	n/a	n/a	n/a	n/a	n/a	n/a	n/a	n/a
268.201	1.0167	ITI	n/a	n/a	n/a	n/a	n/a	n/a	n/a	n/a
269.2177	0.5167	FIXCROSS	n/a	n/a	n/a	n/a	n/a	n/a	n/a	n/a
269.7344	2.05	T_COLOR_NAME	12	Incongruent	zielony	green	czerwony	red	hit	n/a
271.7566	n/a	RESPONSE	n/a	n/a	n/a	n/a	n/a	n/a	n/a	green
271.7844	0.5167	FEEDBACK	n/a	n/a	n/a	n/a	n/a	n/a	n/a	n/a
272.3011	1.0333	ITI	n/a	n/a	n/a	n/a	n/a	n/a	n/a	n/a
277.8512	n/a	RESPONSE	n/a	n/a	n/a	n/a	n/a	n/a	n/a	n/a
277.9178	1.0167	ITI	n/a	n/a	n/a	n/a	n/a	n/a	n/a	n/a
278.9344	0.5167	FIXCROSS	n/a	n/a	n/a	n/a	n/a	n/a	n/a	n/a
279.4511	1.15	COLOR_NAME	1	Neutral	niebieski	blue	Neutral	Neutral	hit	n/a
280.5705	n/a	RESPONSE	n/a	n/a	n/a	n/a	n/a	n/a	n/a	blue
280.6011	1.0167	ITI	n/a	n/a	n/a	n/a	n/a	n/a	n/a	n/a
281.6178	0.5167	FIXCROSS	n/a	n/a	n/a	n/a	n/a	n/a	n/a	n/a
282.1345	1.0333	COLOR_NAME	2	Neutral	żółty	yellow	Neutral	Neutral	hit	n/a
283.1459	n/a	RESPONSE	n/a	n/a	n/a	n/a	n/a	n/a	n/a	yellow
283.1678	1.0167	ITI	n/a	n/a	n/a	n/a	n/a	n/a	n/a	n/a
284.1845	0.5167	FIXCROSS	n/a	n/a	n/a	n/a	n/a	n/a	n/a	n/a
284.7012	0.95	COLOR_NAME	3	Neutral	niebieski	blue	Neutral	Neutral	hit	n/a
285.6252	n/a	RESPONSE	n/a	n/a	n/a	n/a	n/a	n/a	n/a	blue
285.6512	1.0167	ITI	n/a	n/a	n/a	n/a	n/a	n/a	n/a	n/a
286.6678	0.5167	FIXCROSS	n/a	n/a	n/a	n/a	n/a	n/a	n/a	n/a
287.1845	1.6	COLOR_NAME	4	Incongruent	zielony	green	czerwony	red	hit	n/a
288.7605	n/a	RESPONSE	n/a	n/a	n/a	n/a	n/a	n/a	n/a	green
288.7845	1.0167	ITI	n/a	n/a	n/a	n/a	n/a	n/a	n/a	n/a
289.8012	0.5167	FIXCROSS	n/a	n/a	n/a	n/a	n/a	n/a	n/a	n/a
290.3179	1.05	COLOR_NAME	5	Neutral	żółty	yellow	Neutral	Neutral	hit	n/a
291.3358	n/a	RESPONSE	n/a	n/a	n/a	n/a	n/a	n/a	n/a	yellow
291.3679	1.0167	ITI	n/a	n/a	n/a	n/a	n/a	n/a	n/a	n/a
292.3846	0.5167	FIXCROSS	n/a	n/a	n/a	n/a	n/a	n/a	n/a	n/a
292.9012	1.3667	COLOR_NAME	6	Incongruent	zielony	green	niebieski	blue	hit	n/a
294.2472	n/a	RESPONSE	n/a	n/a	n/a	n/a	n/a	n/a	n/a	green
294.2679	1.0167	ITI	n/a	n/a	n/a	n/a	n/a	n/a	n/a	n/a
295.2846	0.5167	FIXCROSS	n/a	n/a	n/a	n/a	n/a	n/a	n/a	n/a
295.8013	1.3167	COLOR_NAME	7	Neutral	czerwony	red	Neutral	Neutral	hit	n/a
297.0944	n/a	RESPONSE	n/a	n/a	n/a	n/a	n/a	n/a	n/a	red
297.1179	1.0167	ITI	n/a	n/a	n/a	n/a	n/a	n/a	n/a	n/a
298.1346	0.5167	FIXCROSS	n/a	n/a	n/a	n/a	n/a	n/a	n/a	n/a
298.6513	1.65	COLOR_NAME	8	Incongruent	żółty	yellow	zielony	green	hit	n/a
300.2776	n/a	RESPONSE	n/a	n/a	n/a	n/a	n/a	n/a	n/a	yellow
300.3013	1.0167	ITI	n/a	n/a	n/a	n/a	n/a	n/a	n/a	n/a
301.318	0.5167	FIXCROSS	n/a	n/a	n/a	n/a	n/a	n/a	n/a	n/a
301.8346	1.3667	COLOR_NAME	9	Incongruent	zielony	green	żółty	yellow	hit	n/a
303.1729	n/a	RESPONSE	n/a	n/a	n/a	n/a	n/a	n/a	n/a	green
303.2013	1.0167	ITI	n/a	n/a	n/a	n/a	n/a	n/a	n/a	n/a
304.218	0.5167	FIXCROSS	n/a	n/a	n/a	n/a	n/a	n/a	n/a	n/a
304.7347	0.9833	COLOR_NAME	10	Neutral	niebieski	blue	Neutral	Neutral	hit	n/a
305.7003	n/a	RESPONSE	n/a	n/a	n/a	n/a	n/a	n/a	n/a	blue
305.718	1.0167	ITI	n/a	n/a	n/a	n/a	n/a	n/a	n/a	n/a
306.7347	0.5167	FIXCROSS	n/a	n/a	n/a	n/a	n/a	n/a	n/a	n/a
307.2513	1.8667	COLOR_NAME	11	Incongruent	żółty	yellow	czerwony	red	hit	n/a
309.0915	n/a	RESPONSE	n/a	n/a	n/a	n/a	n/a	n/a	n/a	yellow
309.118	1.0167	ITI	n/a	n/a	n/a	n/a	n/a	n/a	n/a	n/a
310.1347	0.5167	FIXCROSS	n/a	n/a	n/a	n/a	n/a	n/a	n/a	n/a
310.6514	1.8167	COLOR_NAME	12	Incongruent	czerwony	red	zielony	green	hit	n/a
312.4347	n/a	RESPONSE	n/a	n/a	n/a	n/a	n/a	n/a	n/a	red
312.468	1.0167	ITI	n/a	n/a	n/a	n/a	n/a	n/a	n/a	n/a
313.4847	0.5167	FIXCROSS	n/a	n/a	n/a	n/a	n/a	n/a	n/a	n/a
314.0014	1.65	COLOR_NAME	13	Incongruent	żółty	yellow	czerwony	red	hit	n/a
315.6178	n/a	RESPONSE	n/a	n/a	n/a	n/a	n/a	n/a	n/a	yellow
315.6514	1.0167	ITI	n/a	n/a	n/a	n/a	n/a	n/a	n/a	n/a
316.6681	0.5167	FIXCROSS	n/a	n/a	n/a	n/a	n/a	n/a	n/a	n/a
317.1848	0.9167	COLOR_NAME	14	Neutral	żółty	yellow	Neutral	Neutral	hit	n/a
318.0813	n/a	RESPONSE	n/a	n/a	n/a	n/a	n/a	n/a	n/a	yellow
318.1014	1.0167	ITI	n/a	n/a	n/a	n/a	n/a	n/a	n/a	n/a
319.1181	0.5167	FIXCROSS	n/a	n/a	n/a	n/a	n/a	n/a	n/a	n/a
319.6348	1.6334	COLOR_NAME	15	Incongruent	niebieski	blue	zielony	green	hit	n/a
321.2485	n/a	RESPONSE	n/a	n/a	n/a	n/a	n/a	n/a	n/a	blue
321.2681	1.0167	ITI	n/a	n/a	n/a	n/a	n/a	n/a	n/a	n/a
322.2848	0.5167	FIXCROSS	n/a	n/a	n/a	n/a	n/a	n/a	n/a	n/a
322.8015	1.2167	COLOR_NAME	16	Neutral	czerwony	red	Neutral	Neutral	hit	n/a
323.9999	n/a	RESPONSE	n/a	n/a	n/a	n/a	n/a	n/a	n/a	red
324.0181	1.0167	ITI	n/a	n/a	n/a	n/a	n/a	n/a	n/a	n/a
325.0348	0.5167	FIXCROSS	n/a	n/a	n/a	n/a	n/a	n/a	n/a	n/a
325.5515	1.15	COLOR_NAME	17	Incongruent	żółty	yellow	niebieski	blue	hit	n/a
326.6711	n/a	RESPONSE	n/a	n/a	n/a	n/a	n/a	n/a	n/a	yellow
326.7015	1.0167	ITI	n/a	n/a	n/a	n/a	n/a	n/a	n/a	n/a
327.7182	0.5167	FIXCROSS	n/a	n/a	n/a	n/a	n/a	n/a	n/a	n/a
328.2348	1.8167	COLOR_NAME	18	Incongruent	niebieski	blue	czerwony	red	hit	n/a
330.0303	n/a	RESPONSE	n/a	n/a	n/a	n/a	n/a	n/a	n/a	blue
330.0515	1.0167	ITI	n/a	n/a	n/a	n/a	n/a	n/a	n/a	n/a
331.0682	0.5167	FIXCROSS	n/a	n/a	n/a	n/a	n/a	n/a	n/a	n/a
331.5849	1.3333	COLOR_NAME	19	Incongruent	zielony	green	czerwony	red	hit	n/a
332.8936	n/a	RESPONSE	n/a	n/a	n/a	n/a	n/a	n/a	n/a	green
332.9182	1.0167	ITI	n/a	n/a	n/a	n/a	n/a	n/a	n/a	n/a
333.9349	0.5167	FIXCROSS	n/a	n/a	n/a	n/a	n/a	n/a	n/a	n/a
334.4516	1.2167	COLOR_NAME	20	Incongruent	żółty	yellow	niebieski	blue	hit	n/a
335.6449	n/a	RESPONSE	n/a	n/a	n/a	n/a	n/a	n/a	n/a	yellow
335.6682	1.0167	ITI	n/a	n/a	n/a	n/a	n/a	n/a	n/a	n/a
336.6849	0.5167	FIXCROSS	n/a	n/a	n/a	n/a	n/a	n/a	n/a	n/a
337.2016	1.3833	COLOR_NAME	21	Neutral	zielony	green	Neutral	Neutral	hit	n/a
338.5562	n/a	RESPONSE	n/a	n/a	n/a	n/a	n/a	n/a	n/a	green
338.5849	1.0167	ITI	n/a	n/a	n/a	n/a	n/a	n/a	n/a	n/a
339.6016	0.5167	FIXCROSS	n/a	n/a	n/a	n/a	n/a	n/a	n/a	n/a
340.1183	1.5833	COLOR_NAME	22	Incongruent	czerwony	red	niebieski	blue	hit	n/a
341.6754	n/a	RESPONSE	n/a	n/a	n/a	n/a	n/a	n/a	n/a	red
341.7016	1.0167	ITI	n/a	n/a	n/a	n/a	n/a	n/a	n/a	n/a
342.7183	0.5167	FIXCROSS	n/a	n/a	n/a	n/a	n/a	n/a	n/a	n/a
343.235	1.1667	COLOR_NAME	23	Neutral	czerwony	red	Neutral	Neutral	hit	n/a
344.3788	n/a	RESPONSE	n/a	n/a	n/a	n/a	n/a	n/a	n/a	red
344.4016	1.0167	ITI	n/a	n/a	n/a	n/a	n/a	n/a	n/a	n/a
345.4183	0.5167	FIXCROSS	n/a	n/a	n/a	n/a	n/a	n/a	n/a	n/a
345.935	1.1667	COLOR_NAME	24	Neutral	zielony	green	Neutral	Neutral	hit	n/a
347.0821	n/a	RESPONSE	n/a	n/a	n/a	n/a	n/a	n/a	n/a	green
347.1017	1.0167	ITI	n/a	n/a	n/a	n/a	n/a	n/a	n/a	n/a
348.1183	0.5167	FIXCROSS	n/a	n/a	n/a	n/a	n/a	n/a	n/a	n/a
348.635	0.6499	COLOR_NAME	25	Neutral	zielony	green	Neutral	Neutral	hit	n/a
349.2576	n/a	RESPONSE	n/a	n/a	n/a	n/a	n/a	n/a	n/a	green
349.285	1.0167	ITI	n/a	n/a	n/a	n/a	n/a	n/a	n/a	n/a
350.3017	0.5167	FIXCROSS	n/a	n/a	n/a	n/a	n/a	n/a	n/a	n/a
350.8183	0.6	COLOR_NAME	26	Neutral	zielony	green	Neutral	Neutral	hit	n/a
351.401	n/a	RESPONSE	n/a	n/a	n/a	n/a	n/a	n/a	n/a	green
351.4184	1.0167	ITI	n/a	n/a	n/a	n/a	n/a	n/a	n/a	n/a
352.435	0.5167	FIXCROSS	n/a	n/a	n/a	n/a	n/a	n/a	n/a	n/a
352.9517	1.3	COLOR_NAME	27	Incongruent	czerwony	red	niebieski	blue	hit	n/a
354.2324	n/a	RESPONSE	n/a	n/a	n/a	n/a	n/a	n/a	n/a	red
354.2517	1.0167	ITI	n/a	n/a	n/a	n/a	n/a	n/a	n/a	n/a
355.2684	0.5167	FIXCROSS	n/a	n/a	n/a	n/a	n/a	n/a	n/a	n/a
355.7851	1.0333	COLOR_NAME	28	Neutral	zielony	green	Neutral	Neutral	hit	n/a
356.7917	n/a	RESPONSE	n/a	n/a	n/a	n/a	n/a	n/a	n/a	green
356.8184	1.0167	ITI	n/a	n/a	n/a	n/a	n/a	n/a	n/a	n/a
357.8351	0.5167	FIXCROSS	n/a	n/a	n/a	n/a	n/a	n/a	n/a	n/a
358.3518	1.25	COLOR_NAME	29	Neutral	żółty	yellow	Neutral	Neutral	hit	n/a
359.575	n/a	RESPONSE	n/a	n/a	n/a	n/a	n/a	n/a	n/a	yellow
359.6018	1.0167	ITI	n/a	n/a	n/a	n/a	n/a	n/a	n/a	n/a
360.6184	0.5167	FIXCROSS	n/a	n/a	n/a	n/a	n/a	n/a	n/a	n/a
361.1351	1.0	COLOR_NAME	30	Neutral	niebieski	blue	Neutral	Neutral	hit	n/a
362.1024	n/a	RESPONSE	n/a	n/a	n/a	n/a	n/a	n/a	n/a	blue
362.1351	1.0167	ITI	n/a	n/a	n/a	n/a	n/a	n/a	n/a	n/a
363.1518	0.5167	FIXCROSS	n/a	n/a	n/a	n/a	n/a	n/a	n/a	n/a
363.6685	1.0833	COLOR_NAME	31	Neutral	czerwony	red	Neutral	Neutral	hit	n/a
364.7258	n/a	RESPONSE	n/a	n/a	n/a	n/a	n/a	n/a	n/a	red
364.7518	1.0167	ITI	n/a	n/a	n/a	n/a	n/a	n/a	n/a	n/a
365.7685	0.5167	FIXCROSS	n/a	n/a	n/a	n/a	n/a	n/a	n/a	n/a
366.2851	0.9667	COLOR_NAME	32	Neutral	niebieski	blue	Neutral	Neutral	hit	n/a
367.2212	n/a	RESPONSE	n/a	n/a	n/a	n/a	n/a	n/a	n/a	blue
367.2518	1.0167	ITI	n/a	n/a	n/a	n/a	n/a	n/a	n/a	n/a
368.2685	0.5167	FIXCROSS	n/a	n/a	n/a	n/a	n/a	n/a	n/a	n/a
368.7852	1.0167	COLOR_NAME	33	Neutral	czerwony	red	Neutral	Neutral	hit	n/a
369.7805	n/a	RESPONSE	n/a	n/a	n/a	n/a	n/a	n/a	n/a	red
369.8018	1.0167	ITI	n/a	n/a	n/a	n/a	n/a	n/a	n/a	n/a
370.8185	0.5167	FIXCROSS	n/a	n/a	n/a	n/a	n/a	n/a	n/a	n/a
371.3352	1.4667	COLOR_NAME	34	Incongruent	czerwony	red	żółty	yellow	hit	n/a
372.7718	n/a	RESPONSE	n/a	n/a	n/a	n/a	n/a	n/a	n/a	red
372.8019	1.0167	ITI	n/a	n/a	n/a	n/a	n/a	n/a	n/a	n/a
373.8185	0.5167	FIXCROSS	n/a	n/a	n/a	n/a	n/a	n/a	n/a	n/a
374.3352	1.1667	COLOR_NAME	35	Neutral	niebieski	blue	Neutral	Neutral	hit	n/a
375.4751	n/a	RESPONSE	n/a	n/a	n/a	n/a	n/a	n/a	n/a	blue
375.5019	1.0167	ITI	n/a	n/a	n/a	n/a	n/a	n/a	n/a	n/a
376.5186	0.5167	FIXCROSS	n/a	n/a	n/a	n/a	n/a	n/a	n/a	n/a
377.0352	1.2833	COLOR_NAME	36	Neutral	czerwony	red	Neutral	Neutral	hit	n/a
378.2905	n/a	RESPONSE	n/a	n/a	n/a	n/a	n/a	n/a	n/a	red
378.3186	1.0167	ITI	n/a	n/a	n/a	n/a	n/a	n/a	n/a	n/a
379.3352	0.5167	FIXCROSS	n/a	n/a	n/a	n/a	n/a	n/a	n/a	n/a
379.8519	1.5167	COLOR_NAME	37	Incongruent	zielony	green	niebieski	blue	hit	n/a
381.3457	n/a	RESPONSE	n/a	n/a	n/a	n/a	n/a	n/a	n/a	green
381.3686	1.0167	ITI	n/a	n/a	n/a	n/a	n/a	n/a	n/a	n/a
382.3853	0.5167	FIXCROSS	n/a	n/a	n/a	n/a	n/a	n/a	n/a	n/a
382.9019	0.9167	COLOR_NAME	38	Neutral	zielony	green	Neutral	Neutral	hit	n/a
383.7931	n/a	RESPONSE	n/a	n/a	n/a	n/a	n/a	n/a	n/a	green
383.8186	1.0167	ITI	n/a	n/a	n/a	n/a	n/a	n/a	n/a	n/a
384.8353	0.5167	FIXCROSS	n/a	n/a	n/a	n/a	n/a	n/a	n/a	n/a
385.352	1.8	COLOR_NAME	39	Incongruent	niebieski	blue	żółty	yellow	hit	n/a
387.1203	n/a	RESPONSE	n/a	n/a	n/a	n/a	n/a	n/a	n/a	blue
387.152	1.0167	ITI	n/a	n/a	n/a	n/a	n/a	n/a	n/a	n/a
388.1686	0.5167	FIXCROSS	n/a	n/a	n/a	n/a	n/a	n/a	n/a	n/a
388.6853	0.8	COLOR_NAME	40	Incongruent	niebieski	blue	żółty	yellow	hit	n/a
389.4557	n/a	RESPONSE	n/a	n/a	n/a	n/a	n/a	n/a	n/a	blue
389.4853	1.0167	ITI	n/a	n/a	n/a	n/a	n/a	n/a	n/a	n/a
390.502	0.5167	FIXCROSS	n/a	n/a	n/a	n/a	n/a	n/a	n/a	n/a
391.0187	1.1167	COLOR_NAME	41	Incongruent	zielony	green	żółty	yellow	hit	n/a
392.111	n/a	RESPONSE	n/a	n/a	n/a	n/a	n/a	n/a	n/a	green
392.1353	1.0167	ITI	n/a	n/a	n/a	n/a	n/a	n/a	n/a	n/a
393.152	0.5167	FIXCROSS	n/a	n/a	n/a	n/a	n/a	n/a	n/a	n/a
393.6687	1.05	COLOR_NAME	42	Neutral	niebieski	blue	Neutral	Neutral	hit	n/a
394.6864	n/a	RESPONSE	n/a	n/a	n/a	n/a	n/a	n/a	n/a	blue
394.7187	1.0167	ITI	n/a	n/a	n/a	n/a	n/a	n/a	n/a	n/a
395.7354	0.5167	FIXCROSS	n/a	n/a	n/a	n/a	n/a	n/a	n/a	n/a
396.252	1.1167	COLOR_NAME	43	Incongruent	niebieski	blue	żółty	yellow	hit	n/a
397.3417	n/a	RESPONSE	n/a	n/a	n/a	n/a	n/a	n/a	n/a	blue
397.3687	1.0167	ITI	n/a	n/a	n/a	n/a	n/a	n/a	n/a	n/a
398.3854	0.5167	FIXCROSS	n/a	n/a	n/a	n/a	n/a	n/a	n/a	n/a
398.9021	1.3167	COLOR_NAME	44	Incongruent	żółty	yellow	zielony	green	hit	n/a
400.189	n/a	RESPONSE	n/a	n/a	n/a	n/a	n/a	n/a	n/a	yellow
400.2187	1.0167	ITI	n/a	n/a	n/a	n/a	n/a	n/a	n/a	n/a
401.2354	0.5167	FIXCROSS	n/a	n/a	n/a	n/a	n/a	n/a	n/a	n/a
401.7521	1.4333	COLOR_NAME	45	Incongruent	czerwony	red	niebieski	blue	hit	n/a
403.1643	n/a	RESPONSE	n/a	n/a	n/a	n/a	n/a	n/a	n/a	red
403.1854	1.0167	ITI	n/a	n/a	n/a	n/a	n/a	n/a	n/a	n/a
404.2021	0.5167	FIXCROSS	n/a	n/a	n/a	n/a	n/a	n/a	n/a	n/a
404.7188	1.1667	COLOR_NAME	46	Neutral	żółty	yellow	Neutral	Neutral	hit	n/a
405.8517	n/a	RESPONSE	n/a	n/a	n/a	n/a	n/a	n/a	n/a	yellow
405.8855	1.0167	ITI	n/a	n/a	n/a	n/a	n/a	n/a	n/a	n/a
406.9021	0.5167	FIXCROSS	n/a	n/a	n/a	n/a	n/a	n/a	n/a	n/a
407.4188	1.1167	COLOR_NAME	47	Neutral	zielony	green	Neutral	Neutral	hit	n/a
408.507	n/a	RESPONSE	n/a	n/a	n/a	n/a	n/a	n/a	n/a	green
408.5355	1.0167	ITI	n/a	n/a	n/a	n/a	n/a	n/a	n/a	n/a
409.5521	0.5167	FIXCROSS	n/a	n/a	n/a	n/a	n/a	n/a	n/a	n/a
410.0688	0.8	COLOR_NAME	48	Incongruent	zielony	green	żółty	yellow	hit	n/a
410.8424	n/a	RESPONSE	n/a	n/a	n/a	n/a	n/a	n/a	n/a	green
410.8688	1.0167	ITI	n/a	n/a	n/a	n/a	n/a	n/a	n/a	n/a
411.8855	0.5167	FIXCROSS	n/a	n/a	n/a	n/a	n/a	n/a	n/a	n/a
412.4022	0.7167	COLOR_NAME	49	Neutral	zielony	green	Neutral	Neutral	hit	n/a
413.0979	n/a	RESPONSE	n/a	n/a	n/a	n/a	n/a	n/a	n/a	green
413.1188	1.0167	ITI	n/a	n/a	n/a	n/a	n/a	n/a	n/a	n/a
414.1355	0.5167	FIXCROSS	n/a	n/a	n/a	n/a	n/a	n/a	n/a	n/a
414.6522	0.6667	COLOR_NAME	50	Incongruent	zielony	green	niebieski	blue	hit	n/a
415.2893	n/a	RESPONSE	n/a	n/a	n/a	n/a	n/a	n/a	n/a	green
415.3189	1.0167	ITI	n/a	n/a	n/a	n/a	n/a	n/a	n/a	n/a
416.3355	0.5167	FIXCROSS	n/a	n/a	n/a	n/a	n/a	n/a	n/a	n/a
416.8522	1.1667	COLOR_NAME	51	Incongruent	niebieski	blue	zielony	green	hit	n/a
417.9927	n/a	RESPONSE	n/a	n/a	n/a	n/a	n/a	n/a	n/a	blue
418.0189	1.0167	ITI	n/a	n/a	n/a	n/a	n/a	n/a	n/a	n/a
419.0356	0.5167	FIXCROSS	n/a	n/a	n/a	n/a	n/a	n/a	n/a	n/a
419.5522	1.0667	COLOR_NAME	52	Neutral	żółty	yellow	Neutral	Neutral	hit	n/a
420.6	n/a	RESPONSE	n/a	n/a	n/a	n/a	n/a	n/a	n/a	yellow
420.6189	1.0167	ITI	n/a	n/a	n/a	n/a	n/a	n/a	n/a	n/a
421.6356	0.5167	FIXCROSS	n/a	n/a	n/a	n/a	n/a	n/a	n/a	n/a
422.1523	0.8667	COLOR_NAME	53	Neutral	niebieski	blue	Neutral	Neutral	hit	n/a
422.9994	n/a	RESPONSE	n/a	n/a	n/a	n/a	n/a	n/a	n/a	blue
423.0189	1.0167	ITI	n/a	n/a	n/a	n/a	n/a	n/a	n/a	n/a
424.0356	0.5167	FIXCROSS	n/a	n/a	n/a	n/a	n/a	n/a	n/a	n/a
424.5523	0.8333	COLOR_NAME	54	Neutral	niebieski	blue	Neutral	Neutral	hit	n/a
425.3508	n/a	RESPONSE	n/a	n/a	n/a	n/a	n/a	n/a	n/a	blue
425.3856	1.0167	ITI	n/a	n/a	n/a	n/a	n/a	n/a	n/a	n/a
426.4023	0.5167	FIXCROSS	n/a	n/a	n/a	n/a	n/a	n/a	n/a	n/a
426.919	1.1167	COLOR_NAME	55	Neutral	żółty	yellow	Neutral	Neutral	hit	n/a
428.0062	n/a	RESPONSE	n/a	n/a	n/a	n/a	n/a	n/a	n/a	yellow
428.0356	1.0167	ITI	n/a	n/a	n/a	n/a	n/a	n/a	n/a	n/a
429.0523	0.5167	FIXCROSS	n/a	n/a	n/a	n/a	n/a	n/a	n/a	n/a
429.569	1.8	COLOR_NAME	56	Incongruent	żółty	yellow	czerwony	red	hit	n/a
431.3494	n/a	RESPONSE	n/a	n/a	n/a	n/a	n/a	n/a	n/a	yellow
431.369	1.0167	ITI	n/a	n/a	n/a	n/a	n/a	n/a	n/a	n/a
432.3857	0.5167	FIXCROSS	n/a	n/a	n/a	n/a	n/a	n/a	n/a	n/a
432.9023	0.8167	COLOR_NAME	57	Neutral	żółty	yellow	Neutral	Neutral	hit	n/a
433.7008	n/a	RESPONSE	n/a	n/a	n/a	n/a	n/a	n/a	n/a	yellow
433.719	1.0167	ITI	n/a	n/a	n/a	n/a	n/a	n/a	n/a	n/a
434.7357	0.5167	FIXCROSS	n/a	n/a	n/a	n/a	n/a	n/a	n/a	n/a
435.2524	1.2833	COLOR_NAME	58	Incongruent	niebieski	blue	zielony	green	hit	n/a
436.5161	n/a	RESPONSE	n/a	n/a	n/a	n/a	n/a	n/a	n/a	blue
436.5357	1.0167	ITI	n/a	n/a	n/a	n/a	n/a	n/a	n/a	n/a
437.5524	0.5167	FIXCROSS	n/a	n/a	n/a	n/a	n/a	n/a	n/a	n/a
438.069	1.0333	COLOR_NAME	59	Neutral	czerwony	red	Neutral	Neutral	hit	n/a
439.0755	n/a	RESPONSE	n/a	n/a	n/a	n/a	n/a	n/a	n/a	red
439.1024	1.0167	ITI	n/a	n/a	n/a	n/a	n/a	n/a	n/a	n/a
440.1191	0.5167	FIXCROSS	n/a	n/a	n/a	n/a	n/a	n/a	n/a	n/a
440.6357	1.05	COLOR_NAME	60	Incongruent	niebieski	blue	czerwony	red	hit	n/a
441.6668	n/a	RESPONSE	n/a	n/a	n/a	n/a	n/a	n/a	n/a	blue
441.6857	1.0167	ITI	n/a	n/a	n/a	n/a	n/a	n/a	n/a	n/a
442.7024	0.5167	FIXCROSS	n/a	n/a	n/a	n/a	n/a	n/a	n/a	n/a
443.2191	1.2667	COLOR_NAME	61	Incongruent	żółty	yellow	zielony	green	hit	n/a
444.4661	n/a	RESPONSE	n/a	n/a	n/a	n/a	n/a	n/a	n/a	yellow
444.4858	1.0167	ITI	n/a	n/a	n/a	n/a	n/a	n/a	n/a	n/a
445.5024	0.5167	FIXCROSS	n/a	n/a	n/a	n/a	n/a	n/a	n/a	n/a
446.0191	1.1	COLOR_NAME	62	Incongruent	czerwony	red	żółty	yellow	hit	n/a
447.0895	n/a	RESPONSE	n/a	n/a	n/a	n/a	n/a	n/a	n/a	red
447.1191	1.0167	ITI	n/a	n/a	n/a	n/a	n/a	n/a	n/a	n/a
448.1358	0.5167	FIXCROSS	n/a	n/a	n/a	n/a	n/a	n/a	n/a	n/a
448.6525	0.8	COLOR_NAME	63	Incongruent	czerwony	red	żółty	yellow	hit	n/a
449.4249	n/a	RESPONSE	n/a	n/a	n/a	n/a	n/a	n/a	n/a	red
449.4525	1.0167	ITI	n/a	n/a	n/a	n/a	n/a	n/a	n/a	n/a
450.4691	0.5167	FIXCROSS	n/a	n/a	n/a	n/a	n/a	n/a	n/a	n/a
450.9858	0.7833	COLOR_NAME	64	Incongruent	czerwony	red	zielony	green	hit	n/a
451.7443	n/a	RESPONSE	n/a	n/a	n/a	n/a	n/a	n/a	n/a	red
451.7692	1.0167	ITI	n/a	n/a	n/a	n/a	n/a	n/a	n/a	n/a
452.7858	0.5167	FIXCROSS	n/a	n/a	n/a	n/a	n/a	n/a	n/a	n/a
453.3025	0.9	COLOR_NAME	65	Incongruent	niebieski	blue	czerwony	red	hit	n/a
454.1757	n/a	RESPONSE	n/a	n/a	n/a	n/a	n/a	n/a	n/a	blue
454.2025	1.0167	ITI	n/a	n/a	n/a	n/a	n/a	n/a	n/a	n/a
455.2192	0.5167	FIXCROSS	n/a	n/a	n/a	n/a	n/a	n/a	n/a	n/a
455.7359	0.9167	COLOR_NAME	66	Neutral	żółty	yellow	Neutral	Neutral	hit	n/a
456.6231	n/a	RESPONSE	n/a	n/a	n/a	n/a	n/a	n/a	n/a	yellow
456.6525	1.0167	ITI	n/a	n/a	n/a	n/a	n/a	n/a	n/a	n/a
457.6692	0.5167	FIXCROSS	n/a	n/a	n/a	n/a	n/a	n/a	n/a	n/a
458.1859	1.0	COLOR_NAME	67	Neutral	czerwony	red	Neutral	Neutral	hit	n/a
459.1665	n/a	RESPONSE	n/a	n/a	n/a	n/a	n/a	n/a	n/a	red
459.1859	1.0167	ITI	n/a	n/a	n/a	n/a	n/a	n/a	n/a	n/a
460.2026	0.5167	FIXCROSS	n/a	n/a	n/a	n/a	n/a	n/a	n/a	n/a
460.7192	1.4	COLOR_NAME	68	Neutral	czerwony	red	Neutral	Neutral	hit	n/a
462.0938	n/a	RESPONSE	n/a	n/a	n/a	n/a	n/a	n/a	n/a	red
462.1192	1.0167	ITI	n/a	n/a	n/a	n/a	n/a	n/a	n/a	n/a
463.1359	0.5167	FIXCROSS	n/a	n/a	n/a	n/a	n/a	n/a	n/a	n/a
463.6526	0.9834	COLOR_NAME	69	Neutral	zielony	green	Neutral	Neutral	hit	n/a
464.6052	n/a	RESPONSE	n/a	n/a	n/a	n/a	n/a	n/a	n/a	green
464.6359	1.0167	ITI	n/a	n/a	n/a	n/a	n/a	n/a	n/a	n/a
465.6526	0.5167	FIXCROSS	n/a	n/a	n/a	n/a	n/a	n/a	n/a	n/a
466.1693	0.95	COLOR_NAME	70	Incongruent	czerwony	red	zielony	green	hit	n/a
467.1006	n/a	RESPONSE	n/a	n/a	n/a	n/a	n/a	n/a	n/a	red
467.1193	1.0167	ITI	n/a	n/a	n/a	n/a	n/a	n/a	n/a	n/a
468.136	0.5167	FIXCROSS	n/a	n/a	n/a	n/a	n/a	n/a	n/a	n/a
468.6526	1.0333	COLOR_NAME	71	Incongruent	żółty	yellow	niebieski	blue	hit	n/a
469.6599	n/a	RESPONSE	n/a	n/a	n/a	n/a	n/a	n/a	n/a	yellow
469.686	1.0167	ITI	n/a	n/a	n/a	n/a	n/a	n/a	n/a	n/a
470.7026	0.5167	FIXCROSS	n/a	n/a	n/a	n/a	n/a	n/a	n/a	n/a
471.2193	1.3667	COLOR_NAME	72	Incongruent	zielony	green	czerwony	red	hit	n/a
472.5552	n/a	RESPONSE	n/a	n/a	n/a	n/a	n/a	n/a	n/a	green
472.586	1.0333	ITI	n/a	n/a	n/a	n/a	n/a	n/a	n/a	n/a
476.1864	n/a	RESPONSE	n/a	n/a	n/a	n/a	n/a	n/a	n/a	n/a
