onset	duration	trial_type	melody_number	melody_part	key	sound	action
0.0	14.086	CUE_START	n/a	n/a	n/a	n/a	n/a
14.086	7.76	FIXCROSS	n/a	n/a	n/a	n/a	n/a
21.846	6.316	CUE_LISTEN	M1	1	n/a	n/a	n/a
28.161	7.758	FIXCROSS	n/a	n/a	n/a	n/a	n/a
35.92	6.317	CUE_PLAYBACK_RIGHT_HAND	M1	1	n/a	n/a	n/a
36.779	n/a	RESPONSE	M1	1	19	G4	press
37.338	n/a	RESPONSE	M1	1	16	E4	press
37.414	n/a	RESPONSE	M1	1	19	G4	release
37.696	n/a	RESPONSE	M1	1	16	E4	release
37.929	n/a	RESPONSE	M1	1	16	E4	press
38.278	n/a	RESPONSE	M1	1	16	E4	release
38.46	n/a	RESPONSE	M1	1	17	F4	press
38.996	n/a	RESPONSE	M1	1	17	F4	release
39.046	n/a	RESPONSE	M1	1	14	D4	press
39.436	n/a	RESPONSE	M1	1	14	D4	release
39.62	n/a	RESPONSE	M1	1	14	D4	press
39.896	n/a	RESPONSE	M1	1	14	D4	release
40.283	n/a	RESPONSE	M1	1	12	C4	press
40.572	n/a	RESPONSE	M1	1	16	E4	press
40.676	n/a	RESPONSE	M1	1	12	C4	release
40.864	n/a	RESPONSE	M1	1	19	G4	press
40.887	n/a	RESPONSE	M1	1	16	E4	release
41.561	n/a	RESPONSE	M1	1	19	G4	release
42.236	7.758	FIXCROSS	n/a	n/a	n/a	n/a	n/a
49.995	6.325	CUE_LISTEN	M1	2	n/a	n/a	n/a
56.32	7.758	FIXCROSS	n/a	n/a	n/a	n/a	n/a
64.078	6.317	CUE_PLAYBACK_RIGHT_HAND	M1	2	n/a	n/a	n/a
64.648	n/a	RESPONSE	M1	2	19	G4	press
65.082	n/a	RESPONSE	M1	2	19	G4	release
65.22	n/a	RESPONSE	M1	2	16	E4	press
65.542	n/a	RESPONSE	M1	2	16	E4	release
65.696	n/a	RESPONSE	M1	2	16	E4	press
66.014	n/a	RESPONSE	M1	2	16	E4	release
66.186	n/a	RESPONSE	M1	2	17	F4	press
66.571	n/a	RESPONSE	M1	2	17	F4	release
66.709	n/a	RESPONSE	M1	2	14	D4	press
66.98	n/a	RESPONSE	M1	2	14	D4	release
67.222	n/a	RESPONSE	M1	2	14	D4	press
67.546	n/a	RESPONSE	M1	2	14	D4	release
67.75	n/a	RESPONSE	M1	2	12	C4	press
67.99	n/a	RESPONSE	M1	2	16	E4	press
68.05	n/a	RESPONSE	M1	2	12	C4	release
68.25	n/a	RESPONSE	M1	2	16	E4	release
68.283	n/a	RESPONSE	M1	2	12	C4	press
69.009	n/a	RESPONSE	M1	2	12	C4	release
70.395	7.758	FIXCROSS	n/a	n/a	n/a	n/a	n/a
78.153	6.317	CUE_LISTEN	M2	1	n/a	n/a	n/a
84.47	7.758	FIXCROSS	n/a	n/a	n/a	n/a	n/a
92.228	6.325	CUE_PLAYBACK_BOTH_HANDS	M2	1	n/a	n/a	n/a
92.858	n/a	RESPONSE	M2	1	24	C5	press
92.879	n/a	RESPONSE	M2	1	00	C3	press
92.882	n/a	RESPONSE	M2	1	07	G3	press
93.372	n/a	RESPONSE	M2	1	19	G4	press
93.493	n/a	RESPONSE	M2	1	24	C5	release
93.504	n/a	RESPONSE	M2	1	00	C3	release
93.636	n/a	RESPONSE	M2	1	19	G4	release
93.647	n/a	RESPONSE	M2	1	07	G3	release
93.79	n/a	RESPONSE	M2	1	00	C3	press
93.819	n/a	RESPONSE	M2	1	07	G3	press
93.84	n/a	RESPONSE	M2	1	19	G4	press
94.292	n/a	RESPONSE	M2	1	17	F4	press
94.416	n/a	RESPONSE	M2	1	19	G4	release
94.424	n/a	RESPONSE	M2	1	00	C3	release
94.777	n/a	RESPONSE	M2	1	17	F4	release
94.797	n/a	RESPONSE	M2	1	16	E4	press
94.808	n/a	RESPONSE	M2	1	00	C3	press
95.271	n/a	RESPONSE	M2	1	17	F4	press
95.36	n/a	RESPONSE	M2	1	16	E4	release
95.372	n/a	RESPONSE	M2	1	00	C3	release
95.393	n/a	RESPONSE	M2	1	07	G3	release
95.674	n/a	RESPONSE	M2	1	17	F4	release
95.716	n/a	RESPONSE	M2	1	00	C3	press
95.727	n/a	RESPONSE	M2	1	07	G3	press
95.729	n/a	RESPONSE	M2	1	19	G4	press
96.489	n/a	RESPONSE	M2	1	19	G4	release
96.616	n/a	RESPONSE	M2	1	00	C3	release
98.553	7.758	FIXCROSS	n/a	n/a	n/a	n/a	n/a
99.206	n/a	RESPONSE	M2	1	07	G3	release
106.312	6.317	CUE_LISTEN	M2	2	n/a	n/a	n/a
112.628	7.758	FIXCROSS	n/a	n/a	n/a	n/a	n/a
120.387	6.325	CUE_PLAYBACK_BOTH_HANDS	M2	2	n/a	n/a	n/a
120.861	n/a	RESPONSE	M2	2	24	C5	press
120.883	n/a	RESPONSE	M2	2	07	G3	press
120.886	n/a	RESPONSE	M2	2	00	C3	press
121.546	n/a	RESPONSE	M2	2	00	C3	release
121.587	n/a	RESPONSE	M2	2	24	C5	release
121.7	n/a	RESPONSE	M2	2	24	C5	press
121.889	n/a	RESPONSE	M2	2	24	C5	release
122.311	n/a	RESPONSE	M2	2	24	C5	press
122.352	n/a	RESPONSE	M2	2	00	C3	press
122.783	n/a	RESPONSE	M2	2	19	G4	press
122.904	n/a	RESPONSE	M2	2	24	C5	release
122.916	n/a	RESPONSE	M2	2	00	C3	release
123.007	n/a	RESPONSE	M2	2	07	G3	release
123.108	n/a	RESPONSE	M2	2	19	G4	release
123.269	n/a	RESPONSE	M2	2	00	C3	press
123.272	n/a	RESPONSE	M2	2	19	G4	press
123.283	n/a	RESPONSE	M2	2	07	G3	press
123.733	n/a	RESPONSE	M2	2	17	F4	press
123.836	n/a	RESPONSE	M2	2	19	G4	release
123.838	n/a	RESPONSE	M2	2	00	C3	release
123.947	n/a	RESPONSE	M2	2	07	G3	release
124.188	n/a	RESPONSE	M2	2	16	E4	press
124.199	n/a	RESPONSE	M2	2	17	F4	release
124.21	n/a	RESPONSE	M2	2	07	G3	press
124.213	n/a	RESPONSE	M2	2	00	C3	press
124.633	n/a	RESPONSE	M2	2	14	D4	press
124.754	n/a	RESPONSE	M2	2	00	C3	release
124.798	n/a	RESPONSE	M2	2	07	G3	release
124.817	n/a	RESPONSE	M2	2	16	E4	release
125.088	n/a	RESPONSE	M2	2	12	C4	press
125.099	n/a	RESPONSE	M2	2	07	G3	press
125.102	n/a	RESPONSE	M2	2	00	C3	press
125.183	n/a	RESPONSE	M2	2	14	D4	release
125.813	n/a	RESPONSE	M2	2	00	C3	release
125.867	n/a	RESPONSE	M2	2	12	C4	release
126.712	7.758	FIXCROSS	n/a	n/a	n/a	n/a	n/a
130.253	n/a	RESPONSE	M2	2	07	G3	release
134.47	6.317	CUE_LISTEN	M2	1	n/a	n/a	n/a
140.787	7.758	FIXCROSS	n/a	n/a	n/a	n/a	n/a
148.545	6.317	CUE_PLAYBACK_BOTH_HANDS	M2	1	n/a	n/a	n/a
149.279	n/a	RESPONSE	M2	1	07	G3	press
149.289	n/a	RESPONSE	M2	1	00	C3	press
149.296	n/a	RESPONSE	M2	1	12	C4	press
149.811	n/a	RESPONSE	M2	1	14	D4	press
149.882	n/a	RESPONSE	M2	1	12	C4	release
149.899	n/a	RESPONSE	M2	1	00	C3	release
150.002	n/a	RESPONSE	M2	1	07	G3	release
150.308	n/a	RESPONSE	M2	1	16	E4	press
150.318	n/a	RESPONSE	M2	1	00	C3	press
150.32	n/a	RESPONSE	M2	1	07	G3	press
150.369	n/a	RESPONSE	M2	1	14	D4	release
150.851	n/a	RESPONSE	M2	1	14	D4	press
150.914	n/a	RESPONSE	M2	1	00	C3	release
150.917	n/a	RESPONSE	M2	1	16	E4	release
151.066	n/a	RESPONSE	M2	1	07	G3	release
151.347	n/a	RESPONSE	M2	1	16	E4	press
151.349	n/a	RESPONSE	M2	1	00	C3	press
151.352	n/a	RESPONSE	M2	1	07	G3	press
151.432	n/a	RESPONSE	M2	1	14	D4	release
151.874	n/a	RESPONSE	M2	1	17	F4	press
151.963	n/a	RESPONSE	M2	1	16	E4	release
152.006	n/a	RESPONSE	M2	1	00	C3	release
152.016	n/a	RESPONSE	M2	1	07	G3	release
152.399	n/a	RESPONSE	M2	1	19	G4	press
152.408	n/a	RESPONSE	M2	1	00	C3	press
152.42	n/a	RESPONSE	M2	1	07	G3	press
152.464	n/a	RESPONSE	M2	1	17	F4	release
153.343	n/a	RESPONSE	M2	1	19	G4	release
153.404	n/a	RESPONSE	M2	1	00	C3	release
153.456	n/a	RESPONSE	M2	1	07	G3	release
154.862	7.758	FIXCROSS	n/a	n/a	n/a	n/a	n/a
162.62	6.325	CUE_LISTEN	M2	2	n/a	n/a	n/a
168.945	7.758	FIXCROSS	n/a	n/a	n/a	n/a	n/a
176.703	6.317	CUE_PLAYBACK_BOTH_HANDS	M2	2	n/a	n/a	n/a
177.562	n/a	RESPONSE	M2	2	16	E4	press
177.582	n/a	RESPONSE	M2	2	00	C3	press
177.584	n/a	RESPONSE	M2	2	07	G3	press
178.226	n/a	RESPONSE	M2	2	16	E4	release
178.263	n/a	RESPONSE	M2	2	00	C3	release
178.29	n/a	RESPONSE	M2	2	07	G3	release
178.352	n/a	RESPONSE	M2	2	19	G4	press
178.697	n/a	RESPONSE	M2	2	19	G4	release
178.954	n/a	RESPONSE	M2	2	19	G4	press
178.994	n/a	RESPONSE	M2	2	00	C3	press
179.006	n/a	RESPONSE	M2	2	07	G3	press
179.436	n/a	RESPONSE	M2	2	19	G4	release
179.536	n/a	RESPONSE	M2	2	00	C3	release
179.58	n/a	RESPONSE	M2	2	17	F4	press
179.607	n/a	RESPONSE	M2	2	07	G3	release
179.92	n/a	RESPONSE	M2	2	17	F4	release
180.169	n/a	RESPONSE	M2	2	16	E4	press
180.172	n/a	RESPONSE	M2	2	00	C3	press
180.189	n/a	RESPONSE	M2	2	07	G3	press
180.733	n/a	RESPONSE	M2	2	16	E4	release
180.802	n/a	RESPONSE	M2	2	00	C3	release
180.804	n/a	RESPONSE	M2	2	14	D4	press
180.926	n/a	RESPONSE	M2	2	07	G3	release
181.207	n/a	RESPONSE	M2	2	14	D4	release
181.42	n/a	RESPONSE	M2	2	07	G3	press
181.429	n/a	RESPONSE	M2	2	00	C3	press
181.442	n/a	RESPONSE	M2	2	12	C4	press
182.274	n/a	RESPONSE	M2	2	12	C4	release
182.294	n/a	RESPONSE	M2	2	00	C3	release
182.406	n/a	RESPONSE	M2	2	07	G3	release
183.02	7.758	FIXCROSS	n/a	n/a	n/a	n/a	n/a
190.778	6.317	CUE_LISTEN	M1	1	n/a	n/a	n/a
197.095	7.758	FIXCROSS	n/a	n/a	n/a	n/a	n/a
204.854	6.325	CUE_PLAYBACK_RIGHT_HAND	M1	1	n/a	n/a	n/a
205.414	n/a	RESPONSE	M1	1	19	G4	press
205.966	n/a	RESPONSE	M1	1	16	E4	press
206.037	n/a	RESPONSE	M1	1	19	G4	release
206.288	n/a	RESPONSE	M1	1	16	E4	release
206.512	n/a	RESPONSE	M1	1	17	F4	press
206.75	n/a	RESPONSE	M1	1	17	F4	release
207.179	n/a	RESPONSE	M1	1	19	G4	press
207.632	n/a	RESPONSE	M1	1	19	G4	release
207.72	n/a	RESPONSE	M1	1	16	E4	press
208.026	n/a	RESPONSE	M1	1	16	E4	release
208.232	n/a	RESPONSE	M1	1	16	E4	press
208.54	n/a	RESPONSE	M1	1	16	E4	release
208.71	n/a	RESPONSE	M1	1	17	F4	press
209.088	n/a	RESPONSE	M1	1	17	F4	release
209.223	n/a	RESPONSE	M1	1	14	D4	press
209.506	n/a	RESPONSE	M1	1	14	D4	release
209.679	n/a	RESPONSE	M1	1	14	D4	press
209.91	n/a	RESPONSE	M1	1	14	D4	release
210.168	n/a	RESPONSE	M1	1	12	C4	press
210.432	n/a	RESPONSE	M1	1	16	E4	press
210.486	n/a	RESPONSE	M1	1	12	C4	release
210.677	n/a	RESPONSE	M1	1	16	E4	release
210.686	n/a	RESPONSE	M1	1	19	G4	press
211.178	7.767	FIXCROSS	n/a	n/a	n/a	n/a	n/a
211.238	n/a	RESPONSE	M1	1	19	G4	release
218.945	6.308	CUE_LISTEN	M1	2	n/a	n/a	n/a
225.254	7.758	FIXCROSS	n/a	n/a	n/a	n/a	n/a
233.012	6.317	CUE_PLAYBACK_RIGHT_HAND	M1	2	n/a	n/a	n/a
233.538	n/a	RESPONSE	M1	2	19	G4	press
234.009	n/a	RESPONSE	M1	2	16	E4	press
234.012	n/a	RESPONSE	M1	2	19	G4	release
234.382	n/a	RESPONSE	M1	2	16	E4	release
234.514	n/a	RESPONSE	M1	2	16	E4	press
234.824	n/a	RESPONSE	M1	2	16	E4	release
234.978	n/a	RESPONSE	M1	2	17	F4	press
235.377	n/a	RESPONSE	M1	2	17	F4	release
235.479	n/a	RESPONSE	M1	2	14	D4	press
235.749	n/a	RESPONSE	M1	2	14	D4	release
235.94	n/a	RESPONSE	M1	2	14	D4	press
236.182	n/a	RESPONSE	M1	2	14	D4	release
236.383	n/a	RESPONSE	M1	2	12	C4	press
236.61	n/a	RESPONSE	M1	2	16	E4	press
236.626	n/a	RESPONSE	M1	2	12	C4	release
236.892	n/a	RESPONSE	M1	2	12	C4	press
236.894	n/a	RESPONSE	M1	2	16	E4	release
237.597	n/a	RESPONSE	M1	2	12	C4	release
239.328	7.758	FIXCROSS	n/a	n/a	n/a	n/a	n/a
247.087	6.325	CUE_LISTEN	M3	1	n/a	n/a	n/a
253.412	7.758	FIXCROSS	n/a	n/a	n/a	n/a	n/a
261.17	6.317	CUE_PLAYBACK_RIGHT_HAND	M3	1	n/a	n/a	n/a
261.814	n/a	RESPONSE	M3	1	12	C4	press
262.316	n/a	RESPONSE	M3	1	14	D4	press
262.409	n/a	RESPONSE	M3	1	12	C4	release
262.798	n/a	RESPONSE	M3	1	16	E4	press
262.899	n/a	RESPONSE	M3	1	14	D4	release
263.37	n/a	RESPONSE	M3	1	12	C4	press
263.502	n/a	RESPONSE	M3	1	16	E4	release
263.726	n/a	RESPONSE	M3	1	12	C4	release
263.924	n/a	RESPONSE	M3	1	12	C4	press
264.406	n/a	RESPONSE	M3	1	14	D4	press
264.487	n/a	RESPONSE	M3	1	12	C4	release
264.9	n/a	RESPONSE	M3	1	16	E4	press
264.999	n/a	RESPONSE	M3	1	14	D4	release
265.392	n/a	RESPONSE	M3	1	12	C4	press
265.462	n/a	RESPONSE	M3	1	16	E4	release
265.956	n/a	RESPONSE	M3	1	12	C4	release
267.487	7.758	FIXCROSS	n/a	n/a	n/a	n/a	n/a
275.245	6.317	CUE_LISTEN	M3	2	n/a	n/a	n/a
281.562	7.758	FIXCROSS	n/a	n/a	n/a	n/a	n/a
289.32	6.325	CUE_PLAYBACK_RIGHT_HAND	M3	2	n/a	n/a	n/a
289.939	n/a	RESPONSE	M3	2	16	E4	press
290.454	n/a	RESPONSE	M3	2	17	F4	press
290.558	n/a	RESPONSE	M3	2	16	E4	release
290.938	n/a	RESPONSE	M3	2	19	G4	press
291.029	n/a	RESPONSE	M3	2	17	F4	release
291.623	n/a	RESPONSE	M3	2	19	G4	release
291.962	n/a	RESPONSE	M3	2	16	E4	press
292.424	n/a	RESPONSE	M3	2	17	F4	press
292.527	n/a	RESPONSE	M3	2	16	E4	release
292.887	n/a	RESPONSE	M3	2	19	G4	press
292.979	n/a	RESPONSE	M3	2	17	F4	release
293.788	n/a	RESPONSE	M3	2	19	G4	release
295.645	7.758	FIXCROSS	n/a	n/a	n/a	n/a	n/a
303.404	6.317	CUE_LISTEN	M3	1	n/a	n/a	n/a
309.72	7.758	FIXCROSS	n/a	n/a	n/a	n/a	n/a
317.479	6.325	CUE_PLAYBACK_RIGHT_HAND	M3	1	n/a	n/a	n/a
318.124	n/a	RESPONSE	M3	1	19	G4	press
318.417	n/a	RESPONSE	M3	1	21	A4	press
318.514	n/a	RESPONSE	M3	1	19	G4	release
318.727	n/a	RESPONSE	M3	1	19	G4	press
318.828	n/a	RESPONSE	M3	1	21	A4	release
319.019	n/a	RESPONSE	M3	1	17	F4	press
319.159	n/a	RESPONSE	M3	1	19	G4	release
319.327	n/a	RESPONSE	M3	1	16	E4	press
319.414	n/a	RESPONSE	M3	1	17	F4	release
319.979	n/a	RESPONSE	M3	1	12	C4	press
320.006	n/a	RESPONSE	M3	1	16	E4	release
320.459	n/a	RESPONSE	M3	1	12	C4	release
320.62	n/a	RESPONSE	M3	1	19	G4	press
320.907	n/a	RESPONSE	M3	1	19	G4	release
321.028	n/a	RESPONSE	M3	1	19	G4	press
321.459	n/a	RESPONSE	M3	1	21	A4	press
321.55	n/a	RESPONSE	M3	1	19	G4	release
321.802	n/a	RESPONSE	M3	1	19	G4	press
321.893	n/a	RESPONSE	M3	1	21	A4	release
322.144	n/a	RESPONSE	M3	1	17	F4	press
322.286	n/a	RESPONSE	M3	1	19	G4	release
322.497	n/a	RESPONSE	M3	1	16	E4	press
322.588	n/a	RESPONSE	M3	1	17	F4	release
323.149	n/a	RESPONSE	M3	1	16	E4	release
323.152	n/a	RESPONSE	M3	1	12	C4	press
323.804	7.758	FIXCROSS	n/a	n/a	n/a	n/a	n/a
323.862	n/a	RESPONSE	M3	1	12	C4	release
331.562	6.317	CUE_LISTEN	M3	2	n/a	n/a	n/a
337.879	7.758	FIXCROSS	n/a	n/a	n/a	n/a	n/a
345.637	6.317	CUE_PLAYBACK_RIGHT_HAND	M3	2	n/a	n/a	n/a
346.214	n/a	RESPONSE	M3	2	12	C4	press
346.773	n/a	RESPONSE	M3	2	07	G3	press
346.872	n/a	RESPONSE	M3	2	12	C4	release
347.192	n/a	RESPONSE	M3	2	07	G3	release
347.24	n/a	RESPONSE	M3	2	07	G3	press
347.822	n/a	RESPONSE	M3	2	07	G3	release
347.928	n/a	RESPONSE	M3	2	12	C4	press
348.744	n/a	RESPONSE	M3	2	12	C4	release
349.154	n/a	RESPONSE	M3	2	12	C4	press
349.729	n/a	RESPONSE	M3	2	07	G3	press
349.832	n/a	RESPONSE	M3	2	12	C4	release
350.384	n/a	RESPONSE	M3	2	12	C4	press
350.476	n/a	RESPONSE	M3	2	07	G3	release
351.228	n/a	RESPONSE	M3	2	12	C4	release
351.954	7.758	FIXCROSS	n/a	n/a	n/a	n/a	n/a
359.712	6.325	CUE_LISTEN	M1	1	n/a	n/a	n/a
366.037	7.758	FIXCROSS	n/a	n/a	n/a	n/a	n/a
373.796	6.317	CUE_PLAYBACK_BOTH_HANDS	M1	1	n/a	n/a	n/a
374.398	n/a	RESPONSE	M1	1	19	G4	press
374.419	n/a	RESPONSE	M1	1	07	G3	press
374.423	n/a	RESPONSE	M1	1	00	C3	press
374.452	n/a	RESPONSE	M1	1	04	E3	press
375.013	n/a	RESPONSE	M1	1	16	E4	press
375.224	n/a	RESPONSE	M1	1	19	G4	release
375.266	n/a	RESPONSE	M1	1	16	E4	release
375.519	n/a	RESPONSE	M1	1	16	E4	press
375.768	n/a	RESPONSE	M1	1	00	C3	release
375.789	n/a	RESPONSE	M1	1	16	E4	release
375.84	n/a	RESPONSE	M1	1	04	E3	release
376.092	n/a	RESPONSE	M1	1	17	F4	press
376.113	n/a	RESPONSE	M1	1	05	F3	press
376.116	n/a	RESPONSE	M1	1	02	D3	press
376.654	n/a	RESPONSE	M1	1	14	D4	press
376.897	n/a	RESPONSE	M1	1	14	D4	release
377.119	n/a	RESPONSE	M1	1	14	D4	press
377.363	n/a	RESPONSE	M1	1	14	D4	release
377.376	n/a	RESPONSE	M1	1	02	D3	release
377.389	n/a	RESPONSE	M1	1	17	F4	release
377.406	n/a	RESPONSE	M1	1	05	F3	release
377.544	n/a	RESPONSE	M1	1	07	G3	release
377.737	n/a	RESPONSE	M1	1	07	G3	press
377.74	n/a	RESPONSE	M1	1	12	C4	press
377.746	n/a	RESPONSE	M1	1	04	E3	press
377.78	n/a	RESPONSE	M1	1	00	C3	press
377.968	n/a	RESPONSE	M1	1	16	E4	press
378.079	n/a	RESPONSE	M1	1	12	C4	release
378.254	n/a	RESPONSE	M1	1	19	G4	press
378.272	n/a	RESPONSE	M1	1	16	E4	release
379.138	n/a	RESPONSE	M1	1	19	G4	release
379.143	n/a	RESPONSE	M1	1	00	C3	release
379.18	n/a	RESPONSE	M1	1	04	E3	release
379.23	n/a	RESPONSE	M1	1	07	G3	release
380.112	7.758	FIXCROSS	n/a	n/a	n/a	n/a	n/a
387.87	6.317	CUE_LISTEN	M1	2	n/a	n/a	n/a
394.187	7.759	FIXCROSS	n/a	n/a	n/a	n/a	n/a
401.946	6.325	CUE_PLAYBACK_BOTH_HANDS	M1	2	n/a	n/a	n/a
402.494	n/a	RESPONSE	M1	2	07	G3	press
402.497	n/a	RESPONSE	M1	2	19	G4	press
402.517	n/a	RESPONSE	M1	2	04	E3	press
402.519	n/a	RESPONSE	M1	2	00	C3	press
403.039	n/a	RESPONSE	M1	2	16	E4	press
403.38	n/a	RESPONSE	M1	2	16	E4	release
403.534	n/a	RESPONSE	M1	2	16	E4	press
403.763	n/a	RESPONSE	M1	2	19	G4	release
403.794	n/a	RESPONSE	M1	2	00	C3	release
403.816	n/a	RESPONSE	M1	2	16	E4	release
403.897	n/a	RESPONSE	M1	2	04	E3	release
404.098	n/a	RESPONSE	M1	2	17	F4	press
404.1	n/a	RESPONSE	M1	2	05	F3	press
404.103	n/a	RESPONSE	M1	2	02	D3	press
404.632	n/a	RESPONSE	M1	2	14	D4	press
404.883	n/a	RESPONSE	M1	2	14	D4	release
405.114	n/a	RESPONSE	M1	2	14	D4	press
405.356	n/a	RESPONSE	M1	2	14	D4	release
405.379	n/a	RESPONSE	M1	2	02	D3	release
405.399	n/a	RESPONSE	M1	2	17	F4	release
405.402	n/a	RESPONSE	M1	2	05	F3	release
405.552	n/a	RESPONSE	M1	2	07	G3	release
405.643	n/a	RESPONSE	M1	2	07	G3	press
405.646	n/a	RESPONSE	M1	2	04	E3	press
405.658	n/a	RESPONSE	M1	2	12	C4	press
405.677	n/a	RESPONSE	M1	2	00	C3	press
405.898	n/a	RESPONSE	M1	2	16	E4	press
405.999	n/a	RESPONSE	M1	2	12	C4	release
406.19	n/a	RESPONSE	M1	2	16	E4	release
406.193	n/a	RESPONSE	M1	2	12	C4	press
407.034	n/a	RESPONSE	M1	2	00	C3	release
407.062	n/a	RESPONSE	M1	2	12	C4	release
407.067	n/a	RESPONSE	M1	2	04	E3	release
407.104	n/a	RESPONSE	M1	2	07	G3	release
408.27	7.758	FIXCROSS	n/a	n/a	n/a	n/a	n/a
416.029	6.317	CUE_LISTEN	M2	1	n/a	n/a	n/a
422.346	7.758	FIXCROSS	n/a	n/a	n/a	n/a	n/a
430.104	6.325	CUE_PLAYBACK_RIGHT_HAND	M2	1	n/a	n/a	n/a
430.573	n/a	RESPONSE	M2	1	24	C5	press
431.038	n/a	RESPONSE	M2	1	19	G4	press
431.137	n/a	RESPONSE	M2	1	24	C5	release
431.419	n/a	RESPONSE	M2	1	19	G4	release
431.562	n/a	RESPONSE	M2	1	19	G4	press
432.032	n/a	RESPONSE	M2	1	17	F4	press
432.132	n/a	RESPONSE	M2	1	19	G4	release
432.503	n/a	RESPONSE	M2	1	16	E4	press
432.614	n/a	RESPONSE	M2	1	17	F4	release
432.996	n/a	RESPONSE	M2	1	17	F4	press
433.108	n/a	RESPONSE	M2	1	16	E4	release
433.45	n/a	RESPONSE	M2	1	19	G4	press
433.56	n/a	RESPONSE	M2	1	17	F4	release
434.321	n/a	RESPONSE	M2	1	19	G4	release
436.429	7.758	FIXCROSS	n/a	n/a	n/a	n/a	n/a
444.187	6.317	CUE_LISTEN	M2	2	n/a	n/a	n/a
450.504	7.758	FIXCROSS	n/a	n/a	n/a	n/a	n/a
458.262	6.317	CUE_PLAYBACK_RIGHT_HAND	M2	2	n/a	n/a	n/a
458.779	n/a	RESPONSE	M2	2	24	C5	press
459.283	n/a	RESPONSE	M2	2	19	G4	press
459.397	n/a	RESPONSE	M2	2	24	C5	release
459.583	n/a	RESPONSE	M2	2	19	G4	release
459.742	n/a	RESPONSE	M2	2	19	G4	press
460.179	n/a	RESPONSE	M2	2	17	F4	press
460.279	n/a	RESPONSE	M2	2	19	G4	release
460.68	n/a	RESPONSE	M2	2	16	E4	press
460.792	n/a	RESPONSE	M2	2	17	F4	release
461.184	n/a	RESPONSE	M2	2	14	D4	press
461.376	n/a	RESPONSE	M2	2	16	E4	release
461.727	n/a	RESPONSE	M2	2	12	C4	press
461.948	n/a	RESPONSE	M2	2	14	D4	release
462.859	n/a	RESPONSE	M2	2	12	C4	release
464.579	7.758	FIXCROSS	n/a	n/a	n/a	n/a	n/a
472.337	6.317	CUE_LISTEN	M2	1	n/a	n/a	n/a
478.654	7.758	FIXCROSS	n/a	n/a	n/a	n/a	n/a
486.412	6.325	CUE_PLAYBACK_RIGHT_HAND	M2	1	n/a	n/a	n/a
487.273	n/a	RESPONSE	M2	1	12	C4	press
488.004	n/a	RESPONSE	M2	1	14	D4	press
488.087	n/a	RESPONSE	M2	1	12	C4	release
488.52	n/a	RESPONSE	M2	1	16	E4	press
488.6	n/a	RESPONSE	M2	1	14	D4	release
489.089	n/a	RESPONSE	M2	1	14	D4	press
489.192	n/a	RESPONSE	M2	1	16	E4	release
489.589	n/a	RESPONSE	M2	1	16	E4	press
489.678	n/a	RESPONSE	M2	1	14	D4	release
490.074	n/a	RESPONSE	M2	1	17	F4	press
490.167	n/a	RESPONSE	M2	1	16	E4	release
490.57	n/a	RESPONSE	M2	1	19	G4	press
490.652	n/a	RESPONSE	M2	1	17	F4	release
491.514	n/a	RESPONSE	M2	1	19	G4	release
492.737	7.758	FIXCROSS	n/a	n/a	n/a	n/a	n/a
500.496	6.317	CUE_LISTEN	M2	2	n/a	n/a	n/a
506.812	7.758	FIXCROSS	n/a	n/a	n/a	n/a	n/a
514.571	6.317	CUE_PLAYBACK_RIGHT_HAND	M2	2	n/a	n/a	n/a
515.13	n/a	RESPONSE	M2	2	16	E4	press
515.643	n/a	RESPONSE	M2	2	19	G4	press
515.683	n/a	RESPONSE	M2	2	16	E4	release
515.994	n/a	RESPONSE	M2	2	19	G4	release
516.128	n/a	RESPONSE	M2	2	19	G4	press
516.572	n/a	RESPONSE	M2	2	19	G4	release
516.608	n/a	RESPONSE	M2	2	17	F4	press
517.056	n/a	RESPONSE	M2	2	16	E4	press
517.147	n/a	RESPONSE	M2	2	17	F4	release
517.577	n/a	RESPONSE	M2	2	14	D4	press
517.667	n/a	RESPONSE	M2	2	16	E4	release
518.107	n/a	RESPONSE	M2	2	12	C4	press
518.184	n/a	RESPONSE	M2	2	14	D4	release
519.249	n/a	RESPONSE	M2	2	12	C4	release
520.887	7.758	FIXCROSS	n/a	n/a	n/a	n/a	n/a
528.646	6.325	CUE_LISTEN	M3	1	n/a	n/a	n/a
534.971	7.758	FIXCROSS	n/a	n/a	n/a	n/a	n/a
542.729	6.317	CUE_PLAYBACK_BOTH_HANDS	M3	1	n/a	n/a	n/a
543.32	n/a	RESPONSE	M3	1	00	C3	press
543.344	n/a	RESPONSE	M3	1	12	C4	press
543.934	n/a	RESPONSE	M3	1	07	G3	press
543.946	n/a	RESPONSE	M3	1	14	D4	press
544.016	n/a	RESPONSE	M3	1	00	C3	release
544.039	n/a	RESPONSE	M3	1	12	C4	release
544.568	n/a	RESPONSE	M3	1	16	E4	press
544.579	n/a	RESPONSE	M3	1	04	E3	press
544.721	n/a	RESPONSE	M3	1	07	G3	release
544.743	n/a	RESPONSE	M3	1	14	D4	release
545.206	n/a	RESPONSE	M3	1	07	G3	press
545.244	n/a	RESPONSE	M3	1	12	C4	press
545.327	n/a	RESPONSE	M3	1	16	E4	release
545.357	n/a	RESPONSE	M3	1	04	E3	release
545.67	n/a	RESPONSE	M3	1	12	C4	release
545.712	n/a	RESPONSE	M3	1	07	G3	release
545.853	n/a	RESPONSE	M3	1	00	C3	press
545.862	n/a	RESPONSE	M3	1	12	C4	press
546.444	n/a	RESPONSE	M3	1	07	G3	press
546.474	n/a	RESPONSE	M3	1	14	D4	press
546.506	n/a	RESPONSE	M3	1	00	C3	release
546.574	n/a	RESPONSE	M3	1	12	C4	release
547.006	n/a	RESPONSE	M3	1	16	E4	press
547.033	n/a	RESPONSE	M3	1	04	E3	press
547.079	n/a	RESPONSE	M3	1	14	D4	release
547.148	n/a	RESPONSE	M3	1	07	G3	release
547.613	n/a	RESPONSE	M3	1	07	G3	press
547.642	n/a	RESPONSE	M3	1	12	C4	press
547.689	n/a	RESPONSE	M3	1	04	E3	release
547.722	n/a	RESPONSE	M3	1	16	E4	release
548.267	n/a	RESPONSE	M3	1	12	C4	release
548.368	n/a	RESPONSE	M3	1	07	G3	release
549.046	7.758	FIXCROSS	n/a	n/a	n/a	n/a	n/a
556.804	6.325	CUE_LISTEN	M3	2	n/a	n/a	n/a
563.129	7.758	FIXCROSS	n/a	n/a	n/a	n/a	n/a
570.888	6.317	CUE_PLAYBACK_BOTH_HANDS	M3	2	n/a	n/a	n/a
571.624	n/a	RESPONSE	M3	2	00	C3	press
571.636	n/a	RESPONSE	M3	2	16	E4	press
572.138	n/a	RESPONSE	M3	2	07	G3	press
572.17	n/a	RESPONSE	M3	2	17	F4	press
572.249	n/a	RESPONSE	M3	2	00	C3	release
572.253	n/a	RESPONSE	M3	2	16	E4	release
572.663	n/a	RESPONSE	M3	2	19	G4	press
572.686	n/a	RESPONSE	M3	2	04	E3	press
572.747	n/a	RESPONSE	M3	2	17	F4	release
572.816	n/a	RESPONSE	M3	2	07	G3	release
573.299	n/a	RESPONSE	M3	2	19	G4	release
573.319	n/a	RESPONSE	M3	2	04	E3	release
573.659	n/a	RESPONSE	M3	2	00	C3	press
573.683	n/a	RESPONSE	M3	2	16	E4	press
574.133	n/a	RESPONSE	M3	2	17	F4	press
574.143	n/a	RESPONSE	M3	2	07	G3	press
574.224	n/a	RESPONSE	M3	2	16	E4	release
574.266	n/a	RESPONSE	M3	2	00	C3	release
574.597	n/a	RESPONSE	M3	2	19	G4	press
574.668	n/a	RESPONSE	M3	2	04	E3	press
574.67	n/a	RESPONSE	M3	2	17	F4	release
574.76	n/a	RESPONSE	M3	2	07	G3	release
575.533	n/a	RESPONSE	M3	2	19	G4	release
575.583	n/a	RESPONSE	M3	2	04	E3	release
577.204	7.758	FIXCROSS	n/a	n/a	n/a	n/a	n/a
584.963	6.317	CUE_LISTEN	M3	1	n/a	n/a	n/a
591.279	7.758	FIXCROSS	n/a	n/a	n/a	n/a	n/a
599.038	6.325	CUE_PLAYBACK_BOTH_HANDS	M3	1	n/a	n/a	n/a
599.583	n/a	RESPONSE	M3	1	00	C3	press
599.594	n/a	RESPONSE	M3	1	19	G4	press
599.886	n/a	RESPONSE	M3	1	21	A4	press
599.992	n/a	RESPONSE	M3	1	19	G4	release
600.187	n/a	RESPONSE	M3	1	07	G3	press
600.198	n/a	RESPONSE	M3	1	19	G4	press
600.259	n/a	RESPONSE	M3	1	00	C3	release
600.27	n/a	RESPONSE	M3	1	21	A4	release
600.512	n/a	RESPONSE	M3	1	17	F4	press
600.633	n/a	RESPONSE	M3	1	19	G4	release
600.796	n/a	RESPONSE	M3	1	04	E3	press
600.876	n/a	RESPONSE	M3	1	16	E4	press
600.898	n/a	RESPONSE	M3	1	07	G3	release
600.979	n/a	RESPONSE	M3	1	17	F4	release
601.48	n/a	RESPONSE	M3	1	14	D4	press
601.492	n/a	RESPONSE	M3	1	07	G3	press
601.533	n/a	RESPONSE	M3	1	16	E4	release
601.567	n/a	RESPONSE	M3	1	04	E3	release
601.936	n/a	RESPONSE	M3	1	14	D4	release
601.967	n/a	RESPONSE	M3	1	07	G3	release
602.129	n/a	RESPONSE	M3	1	00	C3	press
602.139	n/a	RESPONSE	M3	1	19	G4	press
602.431	n/a	RESPONSE	M3	1	21	A4	press
602.532	n/a	RESPONSE	M3	1	19	G4	release
602.716	n/a	RESPONSE	M3	1	19	G4	press
602.764	n/a	RESPONSE	M3	1	07	G3	press
602.776	n/a	RESPONSE	M3	1	21	A4	release
602.787	n/a	RESPONSE	M3	1	09	A3	press
602.908	n/a	RESPONSE	M3	1	09	A3	release
603.009	n/a	RESPONSE	M3	1	00	C3	release
603.072	n/a	RESPONSE	M3	1	17	F4	press
603.222	n/a	RESPONSE	M3	1	19	G4	release
603.323	n/a	RESPONSE	M3	1	04	E3	press
603.384	n/a	RESPONSE	M3	1	07	G3	release
603.387	n/a	RESPONSE	M3	1	16	E4	press
603.487	n/a	RESPONSE	M3	1	17	F4	release
604.018	n/a	RESPONSE	M3	1	00	C3	press
604.02	n/a	RESPONSE	M3	1	04	E3	release
604.03	n/a	RESPONSE	M3	1	12	C4	press
604.043	n/a	RESPONSE	M3	1	16	E4	release
604.593	n/a	RESPONSE	M3	1	00	C3	release
604.674	n/a	RESPONSE	M3	1	12	C4	release
605.363	7.758	FIXCROSS	n/a	n/a	n/a	n/a	n/a
613.121	6.317	CUE_LISTEN	M3	2	n/a	n/a	n/a
619.438	7.758	FIXCROSS	n/a	n/a	n/a	n/a	n/a
627.196	6.317	CUE_PLAYBACK_BOTH_HANDS	M3	2	n/a	n/a	n/a
627.626	n/a	RESPONSE	M3	2	00	C3	press
627.669	n/a	RESPONSE	M3	2	12	C4	press
628.166	n/a	RESPONSE	M3	2	07	G3	press
628.258	n/a	RESPONSE	M3	2	00	C3	release
628.278	n/a	RESPONSE	M3	2	12	C4	release
628.72	n/a	RESPONSE	M3	2	00	C3	press
628.727	n/a	RESPONSE	M3	2	12	C4	press
628.822	n/a	RESPONSE	M3	2	07	G3	release
629.409	n/a	RESPONSE	M3	2	00	C3	release
629.47	n/a	RESPONSE	M3	2	12	C4	release
629.858	n/a	RESPONSE	M3	2	00	C3	press
629.872	n/a	RESPONSE	M3	2	12	C4	press
630.392	n/a	RESPONSE	M3	2	07	G3	press
630.464	n/a	RESPONSE	M3	2	00	C3	release
630.507	n/a	RESPONSE	M3	2	12	C4	release
630.947	n/a	RESPONSE	M3	2	00	C3	press
630.958	n/a	RESPONSE	M3	2	12	C4	press
631.039	n/a	RESPONSE	M3	2	07	G3	release
631.8	n/a	RESPONSE	M3	2	00	C3	release
631.834	n/a	RESPONSE	M3	2	12	C4	release
633.513	7.758	FIXCROSS	n/a	n/a	n/a	n/a	n/a
641.271	6.325	CUE_LISTEN	M1	1	n/a	n/a	n/a
647.596	7.758	FIXCROSS	n/a	n/a	n/a	n/a	n/a
655.354	6.317	CUE_PLAYBACK_BOTH_HANDS	M1	1	n/a	n/a	n/a
656.0	n/a	RESPONSE	M1	1	00	C3	press
656.003	n/a	RESPONSE	M1	1	19	G4	press
656.013	n/a	RESPONSE	M1	1	07	G3	press
656.054	n/a	RESPONSE	M1	1	04	E3	press
656.593	n/a	RESPONSE	M1	1	16	E4	press
656.746	n/a	RESPONSE	M1	1	19	G4	release
656.852	n/a	RESPONSE	M1	1	16	E4	release
657.086	n/a	RESPONSE	M1	1	16	E4	press
657.3	n/a	RESPONSE	M1	1	00	C3	release
657.34	n/a	RESPONSE	M1	1	16	E4	release
657.372	n/a	RESPONSE	M1	1	04	E3	release
657.63	n/a	RESPONSE	M1	1	17	F4	press
657.643	n/a	RESPONSE	M1	1	02	D3	press
657.647	n/a	RESPONSE	M1	1	05	F3	press
658.19	n/a	RESPONSE	M1	1	14	D4	press
658.414	n/a	RESPONSE	M1	1	14	D4	release
658.67	n/a	RESPONSE	M1	1	14	D4	press
658.906	n/a	RESPONSE	M1	1	14	D4	release
658.908	n/a	RESPONSE	M1	1	02	D3	release
658.91	n/a	RESPONSE	M1	1	05	F3	release
658.926	n/a	RESPONSE	M1	1	17	F4	release
659.036	n/a	RESPONSE	M1	1	07	G3	release
659.199	n/a	RESPONSE	M1	1	00	C3	press
659.203	n/a	RESPONSE	M1	1	04	E3	press
659.208	n/a	RESPONSE	M1	1	07	G3	press
659.214	n/a	RESPONSE	M1	1	12	C4	press
659.493	n/a	RESPONSE	M1	1	16	E4	press
659.584	n/a	RESPONSE	M1	1	12	C4	release
659.783	n/a	RESPONSE	M1	1	19	G4	press
659.834	n/a	RESPONSE	M1	1	16	E4	release
660.468	n/a	RESPONSE	M1	1	19	G4	release
660.578	n/a	RESPONSE	M1	1	04	E3	release
660.58	n/a	RESPONSE	M1	1	00	C3	release
660.64	n/a	RESPONSE	M1	1	07	G3	release
661.671	7.758	FIXCROSS	n/a	n/a	n/a	n/a	n/a
669.429	6.317	CUE_LISTEN	M1	2	n/a	n/a	n/a
675.746	7.758	FIXCROSS	n/a	n/a	n/a	n/a	n/a
683.504	6.325	CUE_PLAYBACK_BOTH_HANDS	M1	2	n/a	n/a	n/a
684.122	n/a	RESPONSE	M1	2	19	G4	press
684.143	n/a	RESPONSE	M1	2	07	G3	press
684.153	n/a	RESPONSE	M1	2	04	E3	press
684.676	n/a	RESPONSE	M1	2	16	E4	press
684.936	n/a	RESPONSE	M1	2	16	E4	release
685.168	n/a	RESPONSE	M1	2	16	E4	press
685.398	n/a	RESPONSE	M1	2	19	G4	release
685.439	n/a	RESPONSE	M1	2	16	E4	release
685.5	n/a	RESPONSE	M1	2	04	E3	release
685.712	n/a	RESPONSE	M1	2	17	F4	press
685.734	n/a	RESPONSE	M1	2	05	F3	press
685.744	n/a	RESPONSE	M1	2	02	D3	press
686.266	n/a	RESPONSE	M1	2	14	D4	press
686.517	n/a	RESPONSE	M1	2	14	D4	release
686.75	n/a	RESPONSE	M1	2	14	D4	press
686.972	n/a	RESPONSE	M1	2	02	D3	release
686.988	n/a	RESPONSE	M1	2	14	D4	release
687.003	n/a	RESPONSE	M1	2	17	F4	release
687.03	n/a	RESPONSE	M1	2	05	F3	release
687.238	n/a	RESPONSE	M1	2	04	E3	press
687.252	n/a	RESPONSE	M1	2	00	C3	press
687.254	n/a	RESPONSE	M1	2	12	C4	press
687.496	n/a	RESPONSE	M1	2	16	E4	press
687.588	n/a	RESPONSE	M1	2	12	C4	release
687.773	n/a	RESPONSE	M1	2	12	C4	press
687.79	n/a	RESPONSE	M1	2	16	E4	release
688.673	n/a	RESPONSE	M1	2	04	E3	release
688.69	n/a	RESPONSE	M1	2	12	C4	release
688.833	n/a	RESPONSE	M1	2	07	G3	release
688.989	n/a	RESPONSE	M1	2	00	C3	release
689.829	7.758	FIXCROSS	n/a	n/a	n/a	n/a	n/a
697.588	6.317	CUE_LISTEN	M2	1	n/a	n/a	n/a
703.904	7.758	FIXCROSS	n/a	n/a	n/a	n/a	n/a
704.774	n/a	RESPONSE	M2	1	00	C3	press
705.148	n/a	RESPONSE	M2	1	00	C3	release
711.663	6.325	CUE_PLAYBACK_BOTH_HANDS	M2	1	n/a	n/a	n/a
712.354	n/a	RESPONSE	M2	1	00	C3	press
712.357	n/a	RESPONSE	M2	1	24	C5	press
712.407	n/a	RESPONSE	M2	1	07	G3	press
712.938	n/a	RESPONSE	M2	1	19	G4	press
713.069	n/a	RESPONSE	M2	1	24	C5	release
713.1	n/a	RESPONSE	M2	1	00	C3	release
713.153	n/a	RESPONSE	M2	1	19	G4	release
713.184	n/a	RESPONSE	M2	1	07	G3	release
713.404	n/a	RESPONSE	M2	1	00	C3	press
713.415	n/a	RESPONSE	M2	1	07	G3	press
713.439	n/a	RESPONSE	M2	1	19	G4	press
713.878	n/a	RESPONSE	M2	1	17	F4	press
714.0	n/a	RESPONSE	M2	1	00	C3	release
714.02	n/a	RESPONSE	M2	1	19	G4	release
714.363	n/a	RESPONSE	M2	1	17	F4	release
714.373	n/a	RESPONSE	M2	1	16	E4	press
714.384	n/a	RESPONSE	M2	1	00	C3	press
714.896	n/a	RESPONSE	M2	1	17	F4	press
714.997	n/a	RESPONSE	M2	1	16	E4	release
715.018	n/a	RESPONSE	M2	1	00	C3	release
715.132	n/a	RESPONSE	M2	1	07	G3	release
715.36	n/a	RESPONSE	M2	1	17	F4	release
715.372	n/a	RESPONSE	M2	1	19	G4	press
715.383	n/a	RESPONSE	M2	1	00	C3	press
715.396	n/a	RESPONSE	M2	1	07	G3	press
716.236	n/a	RESPONSE	M2	1	19	G4	release
716.257	n/a	RESPONSE	M2	1	00	C3	release
716.558	n/a	RESPONSE	M2	1	07	G3	release
717.988	7.758	FIXCROSS	n/a	n/a	n/a	n/a	n/a
725.746	6.317	CUE_LISTEN	M2	2	n/a	n/a	n/a
732.063	7.758	FIXCROSS	n/a	n/a	n/a	n/a	n/a
739.821	6.317	CUE_PLAYBACK_BOTH_HANDS	M2	2	n/a	n/a	n/a
740.796	n/a	RESPONSE	M2	2	00	C3	press
740.798	n/a	RESPONSE	M2	2	07	G3	press
740.8	n/a	RESPONSE	M2	2	24	C5	press
741.26	n/a	RESPONSE	M2	2	19	G4	press
741.414	n/a	RESPONSE	M2	2	00	C3	release
741.423	n/a	RESPONSE	M2	2	24	C5	release
741.504	n/a	RESPONSE	M2	2	07	G3	release
741.567	n/a	RESPONSE	M2	2	19	G4	release
741.737	n/a	RESPONSE	M2	2	00	C3	press
741.74	n/a	RESPONSE	M2	2	07	G3	press
741.749	n/a	RESPONSE	M2	2	19	G4	press
742.19	n/a	RESPONSE	M2	2	17	F4	press
742.353	n/a	RESPONSE	M2	2	00	C3	release
742.363	n/a	RESPONSE	M2	2	19	G4	release
742.566	n/a	RESPONSE	M2	2	07	G3	release
742.646	n/a	RESPONSE	M2	2	16	E4	press
742.697	n/a	RESPONSE	M2	2	07	G3	press
742.738	n/a	RESPONSE	M2	2	17	F4	release
742.74	n/a	RESPONSE	M2	2	00	C3	press
743.21	n/a	RESPONSE	M2	2	14	D4	press
743.232	n/a	RESPONSE	M2	2	00	C3	release
743.293	n/a	RESPONSE	M2	2	16	E4	release
743.314	n/a	RESPONSE	M2	2	07	G3	release
743.636	n/a	RESPONSE	M2	2	00	C3	press
743.638	n/a	RESPONSE	M2	2	07	G3	press
743.64	n/a	RESPONSE	M2	2	12	C4	press
743.859	n/a	RESPONSE	M2	2	14	D4	release
744.452	n/a	RESPONSE	M2	2	00	C3	release
744.552	n/a	RESPONSE	M2	2	07	G3	release
744.573	n/a	RESPONSE	M2	2	12	C4	release
746.138	7.759	FIXCROSS	n/a	n/a	n/a	n/a	n/a
753.896	6.325	CUE_LISTEN	M2	1	n/a	n/a	n/a
760.221	7.758	FIXCROSS	n/a	n/a	n/a	n/a	n/a
767.98	6.317	CUE_PLAYBACK_BOTH_HANDS	M2	1	n/a	n/a	n/a
768.548	n/a	RESPONSE	M2	1	07	G3	press
768.552	n/a	RESPONSE	M2	1	00	C3	press
768.577	n/a	RESPONSE	M2	1	12	C4	press
769.053	n/a	RESPONSE	M2	1	14	D4	press
769.14	n/a	RESPONSE	M2	1	12	C4	release
769.16	n/a	RESPONSE	M2	1	00	C3	release
769.289	n/a	RESPONSE	M2	1	07	G3	release
769.462	n/a	RESPONSE	M2	1	14	D4	release
769.784	n/a	RESPONSE	M2	1	16	E4	press
769.889	n/a	RESPONSE	M2	1	07	G3	press
769.898	n/a	RESPONSE	M2	1	00	C3	press
770.37	n/a	RESPONSE	M2	1	14	D4	press
770.432	n/a	RESPONSE	M2	1	16	E4	release
770.463	n/a	RESPONSE	M2	1	00	C3	release
770.574	n/a	RESPONSE	M2	1	07	G3	release
770.676	n/a	RESPONSE	M2	1	14	D4	release
770.837	n/a	RESPONSE	M2	1	00	C3	press
770.84	n/a	RESPONSE	M2	1	07	G3	press
770.869	n/a	RESPONSE	M2	1	16	E4	press
771.304	n/a	RESPONSE	M2	1	17	F4	press
771.383	n/a	RESPONSE	M2	1	16	E4	release
771.464	n/a	RESPONSE	M2	1	00	C3	release
771.486	n/a	RESPONSE	M2	1	07	G3	release
771.729	n/a	RESPONSE	M2	1	17	F4	release
771.828	n/a	RESPONSE	M2	1	19	G4	press
771.849	n/a	RESPONSE	M2	1	00	C3	press
771.86	n/a	RESPONSE	M2	1	07	G3	press
772.643	n/a	RESPONSE	M2	1	19	G4	release
772.683	n/a	RESPONSE	M2	1	00	C3	release
772.854	n/a	RESPONSE	M2	1	07	G3	release
774.296	7.759	FIXCROSS	n/a	n/a	n/a	n/a	n/a
782.055	6.317	CUE_LISTEN	M2	2	n/a	n/a	n/a
788.371	7.758	FIXCROSS	n/a	n/a	n/a	n/a	n/a
796.13	6.325	CUE_PLAYBACK_BOTH_HANDS	M2	2	n/a	n/a	n/a
796.633	n/a	RESPONSE	M2	2	00	C3	press
796.635	n/a	RESPONSE	M2	2	16	E4	press
796.643	n/a	RESPONSE	M2	2	07	G3	press
797.144	n/a	RESPONSE	M2	2	19	G4	press
797.208	n/a	RESPONSE	M2	2	16	E4	release
797.327	n/a	RESPONSE	M2	2	00	C3	release
797.377	n/a	RESPONSE	M2	2	07	G3	release
797.418	n/a	RESPONSE	M2	2	19	G4	release
797.627	n/a	RESPONSE	M2	2	19	G4	press
797.65	n/a	RESPONSE	M2	2	00	C3	press
797.653	n/a	RESPONSE	M2	2	07	G3	press
798.046	n/a	RESPONSE	M2	2	17	F4	press
798.116	n/a	RESPONSE	M2	2	19	G4	release
798.297	n/a	RESPONSE	M2	2	00	C3	release
798.387	n/a	RESPONSE	M2	2	07	G3	release
798.416	n/a	RESPONSE	M2	2	17	F4	release
798.647	n/a	RESPONSE	M2	2	00	C3	press
798.649	n/a	RESPONSE	M2	2	16	E4	press
798.652	n/a	RESPONSE	M2	2	07	G3	press
799.159	n/a	RESPONSE	M2	2	14	D4	press
799.212	n/a	RESPONSE	M2	2	16	E4	release
799.262	n/a	RESPONSE	M2	2	00	C3	release
799.32	n/a	RESPONSE	M2	2	07	G3	release
799.428	n/a	RESPONSE	M2	2	14	D4	release
799.638	n/a	RESPONSE	M2	2	07	G3	press
799.648	n/a	RESPONSE	M2	2	00	C3	press
799.651	n/a	RESPONSE	M2	2	12	C4	press
800.466	n/a	RESPONSE	M2	2	00	C3	release
800.567	n/a	RESPONSE	M2	2	12	C4	release
800.598	n/a	RESPONSE	M2	2	07	G3	release
802.455	7.758	FIXCROSS	n/a	n/a	n/a	n/a	n/a
810.213	6.317	CUE_LISTEN	M3	1	n/a	n/a	n/a
816.53	7.759	FIXCROSS	n/a	n/a	n/a	n/a	n/a
824.288	6.317	CUE_PLAYBACK_RIGHT_HAND	M3	1	n/a	n/a	n/a
824.829	n/a	RESPONSE	M3	1	12	C4	press
825.4	n/a	RESPONSE	M3	1	14	D4	press
825.492	n/a	RESPONSE	M3	1	12	C4	release
825.903	n/a	RESPONSE	M3	1	16	E4	press
825.974	n/a	RESPONSE	M3	1	14	D4	release
826.546	n/a	RESPONSE	M3	1	12	C4	press
826.567	n/a	RESPONSE	M3	1	16	E4	release
826.914	n/a	RESPONSE	M3	1	12	C4	release
827.124	n/a	RESPONSE	M3	1	12	C4	press
827.64	n/a	RESPONSE	M3	1	14	D4	press
827.718	n/a	RESPONSE	M3	1	12	C4	release
828.168	n/a	RESPONSE	M3	1	16	E4	press
828.452	n/a	RESPONSE	M3	1	14	D4	release
828.716	n/a	RESPONSE	M3	1	12	C4	press
828.779	n/a	RESPONSE	M3	1	16	E4	release
829.328	n/a	RESPONSE	M3	1	12	C4	release
830.605	7.758	FIXCROSS	n/a	n/a	n/a	n/a	n/a
838.363	6.325	CUE_LISTEN	M3	2	n/a	n/a	n/a
844.688	7.758	FIXCROSS	n/a	n/a	n/a	n/a	n/a
852.446	6.317	CUE_PLAYBACK_RIGHT_HAND	M3	2	n/a	n/a	n/a
852.957	n/a	RESPONSE	M3	2	16	E4	press
853.478	n/a	RESPONSE	M3	2	17	F4	press
853.56	n/a	RESPONSE	M3	2	16	E4	release
853.98	n/a	RESPONSE	M3	2	19	G4	press
854.062	n/a	RESPONSE	M3	2	17	F4	release
854.673	n/a	RESPONSE	M3	2	19	G4	release
855.064	n/a	RESPONSE	M3	2	16	E4	press
855.538	n/a	RESPONSE	M3	2	17	F4	press
855.627	n/a	RESPONSE	M3	2	16	E4	release
856.02	n/a	RESPONSE	M3	2	19	G4	press
856.119	n/a	RESPONSE	M3	2	17	F4	release
856.847	n/a	RESPONSE	M3	2	19	G4	release
858.763	7.758	FIXCROSS	n/a	n/a	n/a	n/a	n/a
866.522	6.317	CUE_LISTEN	M3	1	n/a	n/a	n/a
872.838	7.758	FIXCROSS	n/a	n/a	n/a	n/a	n/a
880.596	6.325	CUE_PLAYBACK_RIGHT_HAND	M3	1	n/a	n/a	n/a
881.138	n/a	RESPONSE	M3	1	19	G4	press
881.427	n/a	RESPONSE	M3	1	21	A4	press
881.51	n/a	RESPONSE	M3	1	19	G4	release
881.7	n/a	RESPONSE	M3	1	19	G4	press
881.792	n/a	RESPONSE	M3	1	21	A4	release
881.993	n/a	RESPONSE	M3	1	17	F4	press
882.127	n/a	RESPONSE	M3	1	19	G4	release
882.277	n/a	RESPONSE	M3	1	16	E4	press
882.369	n/a	RESPONSE	M3	1	17	F4	release
882.898	n/a	RESPONSE	M3	1	12	C4	press
882.939	n/a	RESPONSE	M3	1	16	E4	release
883.3	n/a	RESPONSE	M3	1	12	C4	release
883.462	n/a	RESPONSE	M3	1	19	G4	press
883.763	n/a	RESPONSE	M3	1	19	G4	release
883.844	n/a	RESPONSE	M3	1	19	G4	press
884.106	n/a	RESPONSE	M3	1	21	A4	press
884.197	n/a	RESPONSE	M3	1	19	G4	release
884.389	n/a	RESPONSE	M3	1	19	G4	press
884.489	n/a	RESPONSE	M3	1	21	A4	release
884.69	n/a	RESPONSE	M3	1	17	F4	press
884.812	n/a	RESPONSE	M3	1	19	G4	release
884.973	n/a	RESPONSE	M3	1	16	E4	press
885.074	n/a	RESPONSE	M3	1	17	F4	release
885.595	n/a	RESPONSE	M3	1	12	C4	press
885.608	n/a	RESPONSE	M3	1	16	E4	release
886.16	n/a	RESPONSE	M3	1	12	C4	release
886.922	7.758	FIXCROSS	n/a	n/a	n/a	n/a	n/a
894.68	6.317	CUE_LISTEN	M3	2	n/a	n/a	n/a
900.996	7.758	FIXCROSS	n/a	n/a	n/a	n/a	n/a
908.755	46.552	CUE_PLAYBACK_RIGHT_HAND	M3	2	n/a	n/a	n/a
909.152	n/a	RESPONSE	M3	2	12	C4	press
909.727	n/a	RESPONSE	M3	2	07	G3	press
909.799	n/a	RESPONSE	M3	2	12	C4	release
910.318	n/a	RESPONSE	M3	2	12	C4	press
910.402	n/a	RESPONSE	M3	2	07	G3	release
911.092	n/a	RESPONSE	M3	2	12	C4	release
911.533	n/a	RESPONSE	M3	2	12	C4	press
912.174	n/a	RESPONSE	M3	2	07	G3	press
912.258	n/a	RESPONSE	M3	2	12	C4	release
912.777	n/a	RESPONSE	M3	2	12	C4	press
912.898	n/a	RESPONSE	M3	2	07	G3	release
913.254	n/a	FIXCROSS	n/a	n/a	n/a	n/a	n/a
913.619	n/a	RESPONSE	M3	2	12	C4	release
