onset	duration	trial_type	melody_number	melody_part	key	sound	action
0.0	14.085	CUE_START	n/a	n/a	n/a	n/a	n/a
14.085	7.759	FIXCROSS	n/a	n/a	n/a	n/a	n/a
21.845	6.316	CUE_LISTEN	M4	1	n/a	n/a	n/a
28.16	7.758	FIXCROSS	n/a	n/a	n/a	n/a	n/a
35.919	6.325	CUE_PLAYBACK_RIGHT_HAND	M4	1	n/a	n/a	n/a
36.501	n/a	RESPONSE	M4	1	21	A4	press
36.772	n/a	RESPONSE	M4	1	21	A4	release
37.082	n/a	RESPONSE	M4	1	21	A4	press
37.303	n/a	RESPONSE	M4	1	21	A4	release
37.364	n/a	RESPONSE	M4	1	21	A4	press
37.906	n/a	RESPONSE	M4	1	21	A4	release
38.077	n/a	RESPONSE	M4	1	21	A4	press
38.338	n/a	RESPONSE	M4	1	21	A4	release
38.721	n/a	RESPONSE	M4	1	21	A4	press
39.161	n/a	RESPONSE	M4	1	21	A4	release
40.233	n/a	RESPONSE	M4	1	21	A4	press
40.651	n/a	RESPONSE	M4	1	21	A4	release
40.784	n/a	RESPONSE	M4	1	21	A4	press
41.01	n/a	RESPONSE	M4	1	21	A4	release
42.12	n/a	RESPONSE	M4	1	21	A4	press
42.244	7.758	FIXCROSS	n/a	n/a	n/a	n/a	n/a
42.356	n/a	RESPONSE	M4	1	21	A4	release
42.65	n/a	RESPONSE	M4	1	21	A4	press
43.047	n/a	RESPONSE	M4	1	21	A4	release
43.146	n/a	RESPONSE	M4	1	24	C5	press
44.084	n/a	RESPONSE	M4	1	24	C5	release
44.203	n/a	RESPONSE	M4	1	22	A#4	press
44.574	n/a	RESPONSE	M4	1	22	A#4	release
50.002	6.316	CUE_LISTEN	M4	2	n/a	n/a	n/a
56.318	7.758	FIXCROSS	n/a	n/a	n/a	n/a	n/a
64.077	6.317	CUE_PLAYBACK_RIGHT_HAND	M4	2	n/a	n/a	n/a
64.564	n/a	RESPONSE	M4	2	21	A4	press
64.805	n/a	RESPONSE	M4	2	21	A4	release
65.006	n/a	RESPONSE	M4	2	21	A4	press
65.237	n/a	RESPONSE	M4	2	21	A4	release
65.418	n/a	RESPONSE	M4	2	21	A4	press
65.64	n/a	RESPONSE	M4	2	21	A4	release
65.841	n/a	RESPONSE	M4	2	24	C5	press
66.392	n/a	RESPONSE	M4	2	24	C5	release
66.713	n/a	RESPONSE	M4	2	22	A#4	press
66.974	n/a	RESPONSE	M4	2	22	A#4	release
68.586	n/a	RESPONSE	M4	2	17	F4	press
68.997	n/a	RESPONSE	M4	2	17	F4	release
69.318	n/a	RESPONSE	M4	2	21	A4	press
69.62	n/a	RESPONSE	M4	2	21	A4	release
70.141	n/a	RESPONSE	M4	2	21	A4	press
70.382	n/a	RESPONSE	M4	2	21	A4	release
70.394	7.758	FIXCROSS	n/a	n/a	n/a	n/a	n/a
70.45	n/a	RESPONSE	M4	2	19	G4	press
70.701	n/a	RESPONSE	M4	2	19	G4	release
78.152	6.325	CUE_LISTEN	M1	1	n/a	n/a	n/a
84.477	7.758	FIXCROSS	n/a	n/a	n/a	n/a	n/a
92.235	6.317	CUE_PLAYBACK_RIGHT_HAND	M1	1	n/a	n/a	n/a
93.278	n/a	RESPONSE	M1	1	21	A4	press
93.493	n/a	RESPONSE	M1	1	21	A4	release
93.574	n/a	RESPONSE	M1	1	21	A4	press
93.754	n/a	RESPONSE	M1	1	21	A4	release
93.886	n/a	RESPONSE	M1	1	21	A4	press
94.098	n/a	RESPONSE	M1	1	21	A4	release
94.571	n/a	RESPONSE	M1	1	21	A4	press
94.751	n/a	RESPONSE	M1	1	21	A4	release
94.862	n/a	RESPONSE	M1	1	21	A4	press
95.043	n/a	RESPONSE	M1	1	21	A4	release
95.224	n/a	RESPONSE	M1	1	21	A4	press
95.416	n/a	RESPONSE	M1	1	21	A4	release
96.457	n/a	RESPONSE	M1	1	21	A4	press
96.83	n/a	RESPONSE	M1	1	21	A4	release
97.16	n/a	RESPONSE	M1	1	21	A4	press
97.373	n/a	RESPONSE	M1	1	21	A4	release
97.952	n/a	RESPONSE	M1	1	19	G4	press
98.313	n/a	RESPONSE	M1	1	19	G4	release
98.552	7.758	FIXCROSS	n/a	n/a	n/a	n/a	n/a
106.31	6.325	CUE_LISTEN	M1	2	n/a	n/a	n/a
112.635	7.758	FIXCROSS	n/a	n/a	n/a	n/a	n/a
120.394	6.317	CUE_PLAYBACK_RIGHT_HAND	M1	2	n/a	n/a	n/a
120.931	n/a	RESPONSE	M1	2	21	A4	press
121.158	n/a	RESPONSE	M1	2	21	A4	release
121.267	n/a	RESPONSE	M1	2	21	A4	press
121.468	n/a	RESPONSE	M1	2	21	A4	release
121.606	n/a	RESPONSE	M1	2	21	A4	press
121.881	n/a	RESPONSE	M1	2	21	A4	release
122.35	n/a	RESPONSE	M1	2	24	C5	press
122.654	n/a	RESPONSE	M1	2	24	C5	release
123.174	n/a	RESPONSE	M1	2	21	A4	press
123.361	n/a	RESPONSE	M1	2	21	A4	release
123.86	n/a	RESPONSE	M1	2	24	C5	press
124.362	n/a	RESPONSE	M1	2	24	C5	release
124.484	n/a	RESPONSE	M1	2	24	C5	press
124.717	n/a	RESPONSE	M1	2	24	C5	release
125.556	n/a	RESPONSE	M1	2	22	A#4	press
125.777	n/a	RESPONSE	M1	2	22	A#4	release
126.041	n/a	RESPONSE	M1	2	21	A4	press
126.341	n/a	RESPONSE	M1	2	21	A4	release
126.71	7.758	FIXCROSS	n/a	n/a	n/a	n/a	n/a
127.393	n/a	RESPONSE	M1	2	19	G4	press
127.533	n/a	RESPONSE	M1	2	19	G4	release
128.173	n/a	RESPONSE	M1	2	17	F4	press
128.484	n/a	RESPONSE	M1	2	17	F4	release
134.469	6.317	CUE_LISTEN	M5	1	n/a	n/a	n/a
140.786	7.758	FIXCROSS	n/a	n/a	n/a	n/a	n/a
148.544	6.317	CUE_PLAYBACK_BOTH_HANDS	M5	1	n/a	n/a	n/a
149.648	n/a	RESPONSE	M5	1	19	G4	press
149.721	n/a	RESPONSE	M5	1	00	C3	press
149.731	n/a	RESPONSE	M5	1	04	E3	press
149.733	n/a	RESPONSE	M5	1	07	G3	press
150.643	n/a	RESPONSE	M5	1	19	G4	release
150.696	n/a	RESPONSE	M5	1	04	E3	release
150.8	n/a	RESPONSE	M5	1	00	C3	release
151.007	n/a	RESPONSE	M5	1	19	G4	press
151.022	n/a	RESPONSE	M5	1	00	C3	press
151.04	n/a	RESPONSE	M5	1	04	E3	press
151.763	n/a	RESPONSE	M5	1	04	E3	release
151.772	n/a	RESPONSE	M5	1	19	G4	release
151.883	n/a	RESPONSE	M5	1	14	D4	press
152.173	n/a	RESPONSE	M5	1	14	D4	release
152.472	n/a	RESPONSE	M5	1	14	D4	press
152.756	n/a	RESPONSE	M5	1	14	D4	release
153.001	n/a	RESPONSE	M5	1	00	C3	release
154.577	n/a	RESPONSE	M5	1	00	C3	press
154.698	n/a	RESPONSE	M5	1	19	G4	press
154.86	7.758	FIXCROSS	n/a	n/a	n/a	n/a	n/a
155.16	n/a	RESPONSE	M5	1	19	G4	release
155.981	n/a	RESPONSE	M5	1	00	C3	release
162.619	6.325	CUE_LISTEN	M5	2	n/a	n/a	n/a
167.798	n/a	RESPONSE	M5	2	07	G3	release
168.944	7.758	FIXCROSS	n/a	n/a	n/a	n/a	n/a
176.702	6.317	CUE_PLAYBACK_BOTH_HANDS	M5	2	n/a	n/a	n/a
178.251	n/a	RESPONSE	M5	2	19	G4	press
178.311	n/a	RESPONSE	M5	2	05	F3	press
178.313	n/a	RESPONSE	M5	2	02	D3	press
178.813	n/a	RESPONSE	M5	2	19	G4	release
178.905	n/a	RESPONSE	M5	2	05	F3	release
179.876	n/a	RESPONSE	M5	2	02	D3	release
180.806	n/a	RESPONSE	M5	2	19	G4	press
180.848	n/a	RESPONSE	M5	2	07	G3	press
180.865	n/a	RESPONSE	M5	2	02	D3	press
181.643	n/a	RESPONSE	M5	2	19	G4	release
182.247	n/a	RESPONSE	M5	2	16	E4	press
182.595	n/a	RESPONSE	M5	2	16	E4	release
182.821	n/a	RESPONSE	M5	2	14	D4	press
183.019	7.758	FIXCROSS	n/a	n/a	n/a	n/a	n/a
183.038	n/a	RESPONSE	M5	2	14	D4	release
183.292	n/a	RESPONSE	M5	2	14	D4	press
183.521	n/a	RESPONSE	M5	2	14	D4	release
183.77	n/a	RESPONSE	M5	2	12	C4	press
184.16	n/a	RESPONSE	M5	2	12	C4	release
184.221	n/a	RESPONSE	M5	2	14	D4	press
184.592	n/a	RESPONSE	M5	2	14	D4	release
185.233	n/a	RESPONSE	M5	2	12	C4	press
185.547	n/a	RESPONSE	M5	2	12	C4	release
185.566	n/a	RESPONSE	M5	2	14	D4	press
185.767	n/a	RESPONSE	M5	2	05	F3	press
185.948	n/a	RESPONSE	M5	2	12	C4	press
185.991	n/a	RESPONSE	M5	2	14	D4	release
186.181	n/a	RESPONSE	M5	2	12	C4	release
186.443	n/a	RESPONSE	M5	2	05	F3	release
186.825	n/a	RESPONSE	M5	2	07	G3	release
186.847	n/a	RESPONSE	M5	2	02	D3	release
190.777	6.325	CUE_LISTEN	M5	1	n/a	n/a	n/a
197.102	7.758	FIXCROSS	n/a	n/a	n/a	n/a	n/a
204.861	6.317	CUE_PLAYBACK_RIGHT_HAND	M5	1	n/a	n/a	n/a
205.783	n/a	RESPONSE	M5	1	00	C3	press
205.787	n/a	RESPONSE	M5	1	07	G3	press
205.806	n/a	RESPONSE	M5	1	24	C5	press
206.257	n/a	RESPONSE	M5	1	24	C5	release
206.338	n/a	RESPONSE	M5	1	00	C3	release
206.592	n/a	RESPONSE	M5	1	07	G3	release
206.961	n/a	RESPONSE	M5	1	24	C5	press
207.422	n/a	RESPONSE	M5	1	24	C5	release
207.713	n/a	RESPONSE	M5	1	24	C5	press
209.237	n/a	RESPONSE	M5	1	24	C5	release
211.177	7.758	FIXCROSS	n/a	n/a	n/a	n/a	n/a
211.312	n/a	RESPONSE	M5	1	24	C5	press
213.256	n/a	RESPONSE	M5	1	19	G4	press
213.306	n/a	RESPONSE	M5	1	24	C5	release
213.513	n/a	RESPONSE	M5	1	19	G4	release
213.618	n/a	RESPONSE	M5	1	19	G4	press
215.103	n/a	RESPONSE	M5	1	19	G4	release
215.495	n/a	RESPONSE	M5	1	19	G4	press
215.746	n/a	RESPONSE	M5	1	19	G4	release
216.96	n/a	RESPONSE	M5	1	17	F4	press
217.658	n/a	RESPONSE	M5	1	17	F4	release
218.936	6.317	CUE_LISTEN	M5	2	n/a	n/a	n/a
225.252	7.758	FIXCROSS	n/a	n/a	n/a	n/a	n/a
233.011	6.325	CUE_PLAYBACK_RIGHT_HAND	M5	2	n/a	n/a	n/a
233.606	n/a	RESPONSE	M5	2	12	C4	press
234.687	n/a	RESPONSE	M5	2	12	C4	release
234.82	n/a	RESPONSE	M5	2	16	E4	press
235.43	n/a	RESPONSE	M5	2	16	E4	release
236.051	n/a	RESPONSE	M5	2	23	B4	press
236.552	n/a	RESPONSE	M5	2	23	B4	release
236.625	n/a	RESPONSE	M5	2	23	B4	press
237.355	n/a	RESPONSE	M5	2	21	A4	press
237.828	n/a	RESPONSE	M5	2	19	G4	press
237.878	n/a	RESPONSE	M5	2	21	A4	release
237.968	n/a	RESPONSE	M5	2	23	B4	release
238.23	n/a	RESPONSE	M5	2	17	F4	press
238.311	n/a	RESPONSE	M5	2	19	G4	release
238.792	n/a	RESPONSE	M5	2	16	E4	press
239.093	n/a	RESPONSE	M5	2	17	F4	release
239.145	n/a	RESPONSE	M5	2	16	E4	release
239.317	n/a	RESPONSE	M5	2	16	E4	press
239.336	7.758	FIXCROSS	n/a	n/a	n/a	n/a	n/a
239.667	n/a	RESPONSE	M5	2	16	E4	release
247.094	6.317	CUE_LISTEN	M2	1	n/a	n/a	n/a
253.411	7.758	FIXCROSS	n/a	n/a	n/a	n/a	n/a
261.169	6.317	CUE_PLAYBACK_BOTH_HANDS	M2	1	n/a	n/a	n/a
262.287	n/a	RESPONSE	M2	1	24	C5	press
262.326	n/a	RESPONSE	M2	1	00	C3	press
262.328	n/a	RESPONSE	M2	1	07	G3	press
262.987	n/a	RESPONSE	M2	1	00	C3	release
263.546	n/a	RESPONSE	M2	1	24	C5	release
263.596	n/a	RESPONSE	M2	1	21	A4	press
264.172	n/a	RESPONSE	M2	1	21	A4	release
264.361	n/a	RESPONSE	M2	1	07	G3	release
264.635	n/a	RESPONSE	M2	1	24	C5	press
264.643	n/a	RESPONSE	M2	1	00	C3	press
264.656	n/a	RESPONSE	M2	1	07	G3	press
265.257	n/a	RESPONSE	M2	1	21	A4	press
265.628	n/a	RESPONSE	M2	1	24	C5	release
265.762	n/a	RESPONSE	M2	1	21	A4	release
265.771	n/a	RESPONSE	M2	1	00	C3	release
265.975	n/a	RESPONSE	M2	1	00	C3	press
265.993	n/a	RESPONSE	M2	1	21	A4	press
266.415	n/a	RESPONSE	M2	1	21	A4	release
266.606	n/a	RESPONSE	M2	1	19	G4	press
266.947	n/a	RESPONSE	M2	1	00	C3	release
267.061	n/a	RESPONSE	M2	1	19	G4	release
267.2	n/a	RESPONSE	M2	1	17	F4	press
267.221	n/a	RESPONSE	M2	1	00	C3	press
267.486	7.758	FIXCROSS	n/a	n/a	n/a	n/a	n/a
267.605	n/a	RESPONSE	M2	1	00	C3	release
267.703	n/a	RESPONSE	M2	1	17	F4	release
267.785	n/a	RESPONSE	M2	1	19	G4	press
268.196	n/a	RESPONSE	M2	1	19	G4	release
268.228	n/a	RESPONSE	M2	1	07	G3	release
268.33	n/a	RESPONSE	M2	1	00	C3	press
268.35	n/a	RESPONSE	M2	1	07	G3	press
268.352	n/a	RESPONSE	M2	1	21	A4	press
269.002	n/a	RESPONSE	M2	1	00	C3	release
269.026	n/a	RESPONSE	M2	1	21	A4	release
269.365	n/a	RESPONSE	M2	1	07	G3	release
275.244	6.325	CUE_LISTEN	M2	2	n/a	n/a	n/a
281.569	7.767	FIXCROSS	n/a	n/a	n/a	n/a	n/a
289.336	6.308	CUE_PLAYBACK_BOTH_HANDS	M2	2	n/a	n/a	n/a
289.986	n/a	RESPONSE	M2	2	24	C5	press
289.997	n/a	RESPONSE	M2	2	00	C3	press
290.008	n/a	RESPONSE	M2	2	07	G3	press
290.581	n/a	RESPONSE	M2	2	00	C3	release
290.751	n/a	RESPONSE	M2	2	21	A4	press
290.806	n/a	RESPONSE	M2	2	24	C5	release
291.292	n/a	RESPONSE	M2	2	07	G3	release
291.475	n/a	RESPONSE	M2	2	21	A4	release
291.915	n/a	RESPONSE	M2	2	00	C3	press
291.917	n/a	RESPONSE	M2	2	07	G3	press
291.93	n/a	RESPONSE	M2	2	21	A4	press
292.325	n/a	RESPONSE	M2	2	21	A4	release
292.47	n/a	RESPONSE	M2	2	00	C3	release
292.615	n/a	RESPONSE	M2	2	19	G4	press
292.947	n/a	RESPONSE	M2	2	07	G3	release
292.968	n/a	RESPONSE	M2	2	19	G4	release
293.222	n/a	RESPONSE	M2	2	00	C3	press
293.238	n/a	RESPONSE	M2	2	17	F4	press
293.247	n/a	RESPONSE	M2	2	07	G3	press
293.555	n/a	RESPONSE	M2	2	00	C3	release
293.655	n/a	RESPONSE	M2	2	17	F4	release
293.985	n/a	RESPONSE	M2	2	16	E4	press
294.567	n/a	RESPONSE	M2	2	07	G3	release
294.808	n/a	RESPONSE	M2	2	16	E4	release
294.83	n/a	RESPONSE	M2	2	00	C3	press
294.832	n/a	RESPONSE	M2	2	14	D4	press
294.855	n/a	RESPONSE	M2	2	07	G3	press
295.523	n/a	RESPONSE	M2	2	00	C3	release
295.556	n/a	RESPONSE	M2	2	14	D4	release
295.644	7.758	FIXCROSS	n/a	n/a	n/a	n/a	n/a
295.856	n/a	RESPONSE	M2	2	07	G3	release
303.403	6.317	CUE_LISTEN	M2	1	n/a	n/a	n/a
309.719	7.758	FIXCROSS	n/a	n/a	n/a	n/a	n/a
317.478	6.325	CUE_PLAYBACK_BOTH_HANDS	M2	1	n/a	n/a	n/a
318.011	n/a	RESPONSE	M2	1	00	C3	press
318.031	n/a	RESPONSE	M2	1	12	C4	press
318.033	n/a	RESPONSE	M2	1	07	G3	press
318.445	n/a	RESPONSE	M2	1	00	C3	release
318.555	n/a	RESPONSE	M2	1	12	C4	release
318.586	n/a	RESPONSE	M2	1	14	D4	press
318.86	n/a	RESPONSE	M2	1	07	G3	release
318.988	n/a	RESPONSE	M2	1	14	D4	release
319.14	n/a	RESPONSE	M2	1	00	C3	press
319.153	n/a	RESPONSE	M2	1	16	E4	press
319.173	n/a	RESPONSE	M2	1	07	G3	press
319.533	n/a	RESPONSE	M2	1	16	E4	release
319.586	n/a	RESPONSE	M2	1	00	C3	release
319.796	n/a	RESPONSE	M2	1	17	F4	press
320.222	n/a	RESPONSE	M2	1	17	F4	release
320.623	n/a	RESPONSE	M2	1	07	G3	release
321.531	n/a	RESPONSE	M2	1	00	C3	press
321.537	n/a	RESPONSE	M2	1	12	C4	press
321.542	n/a	RESPONSE	M2	1	07	G3	press
321.98	n/a	RESPONSE	M2	1	12	C4	release
322.1	n/a	RESPONSE	M2	1	14	D4	press
322.37	n/a	RESPONSE	M2	1	00	C3	release
322.471	n/a	RESPONSE	M2	1	07	G3	release
322.487	n/a	RESPONSE	M2	1	14	D4	release
323.803	7.758	FIXCROSS	n/a	n/a	n/a	n/a	n/a
324.058	n/a	RESPONSE	M2	1	00	C3	press
324.061	n/a	RESPONSE	M2	1	07	G3	press
324.082	n/a	RESPONSE	M2	1	12	C4	press
324.522	n/a	RESPONSE	M2	1	14	D4	press
324.543	n/a	RESPONSE	M2	1	12	C4	release
324.857	n/a	RESPONSE	M2	1	00	C3	release
324.876	n/a	RESPONSE	M2	1	14	D4	release
324.938	n/a	RESPONSE	M2	1	07	G3	release
325.038	n/a	RESPONSE	M2	1	00	C3	press
325.052	n/a	RESPONSE	M2	1	07	G3	press
325.071	n/a	RESPONSE	M2	1	16	E4	press
325.365	n/a	RESPONSE	M2	1	16	E4	release
325.443	n/a	RESPONSE	M2	1	00	C3	release
325.525	n/a	RESPONSE	M2	1	14	D4	press
325.818	n/a	RESPONSE	M2	1	07	G3	release
325.838	n/a	RESPONSE	M2	1	14	D4	release
325.978	n/a	RESPONSE	M2	1	00	C3	press
326.0	n/a	RESPONSE	M2	1	07	G3	press
326.002	n/a	RESPONSE	M2	1	16	E4	press
326.312	n/a	RESPONSE	M2	1	16	E4	release
326.373	n/a	RESPONSE	M2	1	00	C3	release
326.466	n/a	RESPONSE	M2	1	17	F4	press
326.766	n/a	RESPONSE	M2	1	07	G3	release
326.797	n/a	RESPONSE	M2	1	17	F4	release
326.908	n/a	RESPONSE	M2	1	00	C3	press
326.921	n/a	RESPONSE	M2	1	19	G4	press
326.923	n/a	RESPONSE	M2	1	07	G3	press
327.343	n/a	RESPONSE	M2	1	19	G4	release
327.365	n/a	RESPONSE	M2	1	00	C3	release
327.526	n/a	RESPONSE	M2	1	07	G3	release
331.561	6.317	CUE_LISTEN	M2	2	n/a	n/a	n/a
337.878	7.758	FIXCROSS	n/a	n/a	n/a	n/a	n/a
345.636	6.317	CUE_PLAYBACK_BOTH_HANDS	M2	2	n/a	n/a	n/a
346.332	n/a	RESPONSE	M2	2	00	C3	press
346.343	n/a	RESPONSE	M2	2	16	E4	press
346.346	n/a	RESPONSE	M2	2	07	G3	press
346.726	n/a	RESPONSE	M2	2	16	E4	release
346.887	n/a	RESPONSE	M2	2	00	C3	release
347.0	n/a	RESPONSE	M2	2	19	G4	press
347.461	n/a	RESPONSE	M2	2	19	G4	release
347.525	n/a	RESPONSE	M2	2	07	G3	release
348.123	n/a	RESPONSE	M2	2	00	C3	press
348.126	n/a	RESPONSE	M2	2	16	E4	press
348.128	n/a	RESPONSE	M2	2	07	G3	press
348.6	n/a	RESPONSE	M2	2	16	E4	release
348.798	n/a	RESPONSE	M2	2	14	D4	press
349.14	n/a	RESPONSE	M2	2	00	C3	release
349.161	n/a	RESPONSE	M2	2	07	G3	release
349.205	n/a	RESPONSE	M2	2	14	D4	release
349.405	n/a	RESPONSE	M2	2	00	C3	press
349.415	n/a	RESPONSE	M2	2	07	G3	press
349.417	n/a	RESPONSE	M2	2	12	C4	press
350.188	n/a	RESPONSE	M2	2	00	C3	release
350.208	n/a	RESPONSE	M2	2	12	C4	release
350.451	n/a	RESPONSE	M2	2	07	G3	release
351.953	7.758	FIXCROSS	n/a	n/a	n/a	n/a	n/a
359.711	6.325	CUE_LISTEN	M3	1	n/a	n/a	n/a
366.036	7.758	FIXCROSS	n/a	n/a	n/a	n/a	n/a
373.794	6.317	CUE_PLAYBACK_RIGHT_HAND	M3	1	n/a	n/a	n/a
374.795	n/a	RESPONSE	M3	1	12	C4	press
375.706	n/a	RESPONSE	M3	1	12	C4	release
375.85	n/a	RESPONSE	M3	1	12	C4	press
376.208	n/a	RESPONSE	M3	1	12	C4	release
376.372	n/a	RESPONSE	M3	1	14	D4	press
376.751	n/a	RESPONSE	M3	1	14	D4	release
376.902	n/a	RESPONSE	M3	1	16	E4	press
377.173	n/a	RESPONSE	M3	1	16	E4	release
377.385	n/a	RESPONSE	M3	1	12	C4	press
377.716	n/a	RESPONSE	M3	1	12	C4	release
377.897	n/a	RESPONSE	M3	1	12	C4	press
378.29	n/a	RESPONSE	M3	1	12	C4	release
378.4	n/a	RESPONSE	M3	1	14	D4	press
378.731	n/a	RESPONSE	M3	1	14	D4	release
378.925	n/a	RESPONSE	M3	1	16	E4	press
379.216	n/a	RESPONSE	M3	1	16	E4	release
379.405	n/a	RESPONSE	M3	1	12	C4	press
379.906	n/a	RESPONSE	M3	1	12	C4	release
380.111	7.758	FIXCROSS	n/a	n/a	n/a	n/a	n/a
387.87	6.317	CUE_LISTEN	M3	2	n/a	n/a	n/a
394.186	7.758	FIXCROSS	n/a	n/a	n/a	n/a	n/a
401.944	6.325	CUE_PLAYBACK_RIGHT_HAND	M3	2	n/a	n/a	n/a
402.63	n/a	RESPONSE	M3	2	14	D4	press
402.938	n/a	RESPONSE	M3	2	14	D4	release
403.18	n/a	RESPONSE	M3	2	16	E4	press
403.49	n/a	RESPONSE	M3	2	16	E4	release
403.665	n/a	RESPONSE	M3	2	17	F4	press
404.211	n/a	RESPONSE	M3	2	17	F4	release
404.522	n/a	RESPONSE	M3	2	14	D4	press
404.835	n/a	RESPONSE	M3	2	14	D4	release
405.035	n/a	RESPONSE	M3	2	16	E4	press
405.276	n/a	RESPONSE	M3	2	16	E4	release
405.497	n/a	RESPONSE	M3	2	17	F4	press
405.738	n/a	RESPONSE	M3	2	17	F4	release
408.27	7.758	FIXCROSS	n/a	n/a	n/a	n/a	n/a
416.028	6.317	CUE_LISTEN	M3	1	n/a	n/a	n/a
422.344	7.758	FIXCROSS	n/a	n/a	n/a	n/a	n/a
430.103	6.325	CUE_PLAYBACK_RIGHT_HAND	M3	1	n/a	n/a	n/a
430.557	n/a	RESPONSE	M3	1	19	G4	press
430.92	n/a	RESPONSE	M3	1	21	A4	press
430.988	n/a	RESPONSE	M3	1	19	G4	release
431.144	n/a	RESPONSE	M3	1	21	A4	release
431.23	n/a	RESPONSE	M3	1	19	G4	press
431.548	n/a	RESPONSE	M3	1	17	F4	press
431.627	n/a	RESPONSE	M3	1	19	G4	release
431.885	n/a	RESPONSE	M3	1	16	E4	press
431.926	n/a	RESPONSE	M3	1	17	F4	release
432.426	n/a	RESPONSE	M3	1	16	E4	release
432.671	n/a	RESPONSE	M3	1	14	D4	press
433.065	n/a	RESPONSE	M3	1	14	D4	release
434.265	n/a	RESPONSE	M3	1	19	G4	press
434.556	n/a	RESPONSE	M3	1	21	A4	press
434.597	n/a	RESPONSE	M3	1	19	G4	release
434.748	n/a	RESPONSE	M3	1	21	A4	release
434.85	n/a	RESPONSE	M3	1	19	G4	press
435.161	n/a	RESPONSE	M3	1	17	F4	press
435.164	n/a	RESPONSE	M3	1	19	G4	release
435.474	n/a	RESPONSE	M3	1	16	E4	press
435.505	n/a	RESPONSE	M3	1	17	F4	release
436.086	n/a	RESPONSE	M3	1	16	E4	release
436.167	n/a	RESPONSE	M3	1	14	D4	press
436.428	7.758	FIXCROSS	n/a	n/a	n/a	n/a	n/a
436.918	n/a	RESPONSE	M3	1	14	D4	release
438.77	n/a	RESPONSE	M3	1	12	C4	press
439.001	n/a	RESPONSE	M3	1	12	C4	release
444.186	6.317	CUE_LISTEN	M3	2	n/a	n/a	n/a
450.503	7.758	FIXCROSS	n/a	n/a	n/a	n/a	n/a
458.261	6.317	CUE_PLAYBACK_RIGHT_HAND	M3	2	n/a	n/a	n/a
458.9	n/a	RESPONSE	M3	2	12	C4	press
459.361	n/a	RESPONSE	M3	2	12	C4	release
459.392	n/a	RESPONSE	M3	2	05	F3	press
459.836	n/a	RESPONSE	M3	2	05	F3	release
459.946	n/a	RESPONSE	M3	2	12	C4	press
460.755	n/a	RESPONSE	M3	2	12	C4	release
461.076	n/a	RESPONSE	M3	2	12	C4	press
461.532	n/a	RESPONSE	M3	2	12	C4	release
461.628	n/a	RESPONSE	M3	2	05	F3	press
462.014	n/a	RESPONSE	M3	2	05	F3	release
462.154	n/a	RESPONSE	M3	2	12	C4	press
463.037	n/a	RESPONSE	M3	2	12	C4	release
464.578	7.758	FIXCROSS	n/a	n/a	n/a	n/a	n/a
472.336	6.325	CUE_LISTEN	M5	1	n/a	n/a	n/a
478.661	7.758	FIXCROSS	n/a	n/a	n/a	n/a	n/a
486.42	6.317	CUE_PLAYBACK_BOTH_HANDS	M5	1	n/a	n/a	n/a
487.448	n/a	RESPONSE	M5	1	07	G3	press
487.46	n/a	RESPONSE	M5	1	00	C3	press
487.468	n/a	RESPONSE	M5	1	12	C4	press
488.14	n/a	RESPONSE	M5	1	00	C3	release
488.252	n/a	RESPONSE	M5	1	12	C4	release
488.512	n/a	RESPONSE	M5	1	00	C3	press
488.554	n/a	RESPONSE	M5	1	12	C4	press
488.955	n/a	RESPONSE	M5	1	16	E4	press
489.266	n/a	RESPONSE	M5	1	00	C3	release
489.518	n/a	RESPONSE	M5	1	16	E4	release
489.618	n/a	RESPONSE	M5	1	12	C4	release
490.244	n/a	RESPONSE	M5	1	07	G3	release
490.537	n/a	RESPONSE	M5	1	00	C3	press
490.546	n/a	RESPONSE	M5	1	07	G3	press
490.548	n/a	RESPONSE	M5	1	12	C4	press
490.981	n/a	RESPONSE	M5	1	16	E4	press
491.244	n/a	RESPONSE	M5	1	00	C3	release
491.26	n/a	RESPONSE	M5	1	16	E4	release
491.931	n/a	RESPONSE	M5	1	23	B4	press
492.361	n/a	RESPONSE	M5	1	23	B4	release
492.525	n/a	RESPONSE	M5	1	23	B4	press
492.736	7.758	FIXCROSS	n/a	n/a	n/a	n/a	n/a
492.988	n/a	RESPONSE	M5	1	19	G4	press
493.245	n/a	RESPONSE	M5	1	19	G4	release
493.374	n/a	RESPONSE	M5	1	23	B4	release
493.506	n/a	RESPONSE	M5	1	21	A4	press
493.677	n/a	RESPONSE	M5	1	12	C4	release
493.902	n/a	RESPONSE	M5	1	19	G4	press
494.065	n/a	RESPONSE	M5	1	21	A4	release
494.268	n/a	RESPONSE	M5	1	17	F4	press
494.327	n/a	RESPONSE	M5	1	19	G4	release
494.72	n/a	RESPONSE	M5	1	17	F4	release
495.571	n/a	RESPONSE	M5	1	17	F4	press
495.971	n/a	RESPONSE	M5	1	19	G4	press
496.052	n/a	RESPONSE	M5	1	17	F4	release
496.524	n/a	RESPONSE	M5	1	19	G4	release
500.495	6.317	CUE_LISTEN	M5	2	n/a	n/a	n/a
504.144	n/a	RESPONSE	M5	2	07	G3	release
506.811	7.758	FIXCROSS	n/a	n/a	n/a	n/a	n/a
514.57	6.325	CUE_PLAYBACK_BOTH_HANDS	M5	2	n/a	n/a	n/a
515.126	n/a	RESPONSE	M5	2	12	C4	press
515.14	n/a	RESPONSE	M5	2	00	C3	press
515.149	n/a	RESPONSE	M5	2	07	G3	press
515.511	n/a	RESPONSE	M5	2	00	C3	release
515.641	n/a	RESPONSE	M5	2	07	G3	release
515.752	n/a	RESPONSE	M5	2	12	C4	release
517.014	n/a	RESPONSE	M5	2	00	C3	press
517.016	n/a	RESPONSE	M5	2	12	C4	press
517.029	n/a	RESPONSE	M5	2	07	G3	press
517.427	n/a	RESPONSE	M5	2	00	C3	release
517.638	n/a	RESPONSE	M5	2	17	F4	press
517.97	n/a	RESPONSE	M5	2	07	G3	release
518.251	n/a	RESPONSE	M5	2	17	F4	release
519.402	n/a	RESPONSE	M5	2	24	C5	press
519.473	n/a	RESPONSE	M5	2	00	C3	press
519.505	n/a	RESPONSE	M5	2	07	G3	press
519.898	n/a	RESPONSE	M5	2	00	C3	release
520.611	n/a	RESPONSE	M5	2	00	C3	press
520.627	n/a	RESPONSE	M5	2	22	A#4	press
520.843	n/a	RESPONSE	M5	2	12	C4	release
520.895	7.767	FIXCROSS	n/a	n/a	n/a	n/a	n/a
521.749	n/a	RESPONSE	M5	2	21	A4	press
521.757	n/a	RESPONSE	M5	2	24	C5	release
522.136	n/a	RESPONSE	M5	2	22	A#4	release
522.398	n/a	RESPONSE	M5	2	19	G4	press
522.821	n/a	RESPONSE	M5	2	21	A4	release
522.982	n/a	RESPONSE	M5	2	00	C3	release
523.068	n/a	RESPONSE	M5	2	19	G4	release
523.272	n/a	RESPONSE	M5	2	07	G3	release
528.662	6.308	CUE_LISTEN	M5	1	n/a	n/a	n/a
534.97	7.758	FIXCROSS	n/a	n/a	n/a	n/a	n/a
542.728	6.317	CUE_PLAYBACK_RIGHT_HAND	M5	1	n/a	n/a	n/a
544.54	n/a	RESPONSE	M5	1	19	G4	press
544.561	n/a	RESPONSE	M5	1	07	G3	press
544.572	n/a	RESPONSE	M5	1	00	C3	press
545.354	n/a	RESPONSE	M5	1	00	C3	release
545.505	n/a	RESPONSE	M5	1	19	G4	release
545.596	n/a	RESPONSE	M5	1	19	G4	press
545.598	n/a	RESPONSE	M5	1	04	E3	press
545.728	n/a	RESPONSE	M5	1	00	C3	press
546.241	n/a	RESPONSE	M5	1	16	E4	press
546.531	n/a	RESPONSE	M5	1	19	G4	release
546.634	n/a	RESPONSE	M5	1	16	E4	release
546.814	n/a	RESPONSE	M5	1	16	E4	press
547.165	n/a	RESPONSE	M5	1	16	E4	release
547.296	n/a	RESPONSE	M5	1	07	G3	release
547.358	n/a	RESPONSE	M5	1	00	C3	release
547.511	n/a	RESPONSE	M5	1	17	F4	press
547.57	n/a	RESPONSE	M5	1	07	G3	press
547.601	n/a	RESPONSE	M5	1	00	C3	press
548.112	n/a	RESPONSE	M5	1	14	D4	press
548.296	n/a	RESPONSE	M5	1	17	F4	release
548.425	n/a	RESPONSE	M5	1	14	D4	release
548.636	n/a	RESPONSE	M5	1	14	D4	press
548.967	n/a	RESPONSE	M5	1	14	D4	release
549.04	n/a	RESPONSE	M5	1	00	C3	release
549.045	7.758	FIXCROSS	n/a	n/a	n/a	n/a	n/a
549.1	n/a	RESPONSE	M5	1	04	E3	release
549.401	n/a	RESPONSE	M5	1	04	E3	press
549.412	n/a	RESPONSE	M5	1	12	C4	press
549.425	n/a	RESPONSE	M5	1	00	C3	press
549.835	n/a	RESPONSE	M5	1	12	C4	release
549.958	n/a	RESPONSE	M5	1	16	E4	press
550.371	n/a	RESPONSE	M5	1	16	E4	release
550.487	n/a	RESPONSE	M5	1	19	G4	press
551.08	n/a	RESPONSE	M5	1	19	G4	release
551.137	n/a	RESPONSE	M5	1	00	C3	release
556.803	6.325	CUE_LISTEN	M5	2	n/a	n/a	n/a
561.232	n/a	RESPONSE	M5	2	04	E3	release
563.128	7.758	FIXCROSS	n/a	n/a	n/a	n/a	n/a
568.705	n/a	RESPONSE	M5	2	07	G3	release
570.887	6.317	CUE_PLAYBACK_RIGHT_HAND	M5	2	n/a	n/a	n/a
571.628	n/a	RESPONSE	M5	2	04	E3	press
571.642	n/a	RESPONSE	M5	2	19	G4	press
571.647	n/a	RESPONSE	M5	2	07	G3	press
571.71	n/a	RESPONSE	M5	2	00	C3	press
572.314	n/a	RESPONSE	M5	2	19	G4	release
572.746	n/a	RESPONSE	M5	2	16	E4	press
573.597	n/a	RESPONSE	M5	2	16	E4	release
573.721	n/a	RESPONSE	M5	2	16	E4	press
574.045	n/a	RESPONSE	M5	2	16	E4	release
574.186	n/a	RESPONSE	M5	2	16	E4	press
574.477	n/a	RESPONSE	M5	2	16	E4	release
574.528	n/a	RESPONSE	M5	2	00	C3	release
574.68	n/a	RESPONSE	M5	2	04	E3	release
574.684	n/a	RESPONSE	M5	2	07	G3	release
575.075	n/a	RESPONSE	M5	2	05	F3	press
575.084	n/a	RESPONSE	M5	2	02	D3	press
575.086	n/a	RESPONSE	M5	2	17	F4	press
575.206	n/a	RESPONSE	M5	2	07	G3	press
575.579	n/a	RESPONSE	M5	2	17	F4	release
575.898	n/a	RESPONSE	M5	2	14	D4	press
576.16	n/a	RESPONSE	M5	2	14	D4	release
576.351	n/a	RESPONSE	M5	2	14	D4	press
576.612	n/a	RESPONSE	M5	2	14	D4	release
576.654	n/a	RESPONSE	M5	2	05	F3	release
576.665	n/a	RESPONSE	M5	2	02	D3	release
577.203	7.758	FIXCROSS	n/a	n/a	n/a	n/a	n/a
577.308	n/a	RESPONSE	M5	2	04	E3	press
577.357	n/a	RESPONSE	M5	2	12	C4	press
577.388	n/a	RESPONSE	M5	2	00	C3	press
578.051	n/a	RESPONSE	M5	2	16	E4	press
578.131	n/a	RESPONSE	M5	2	12	C4	release
578.512	n/a	RESPONSE	M5	2	11	B3	press
578.515	n/a	RESPONSE	M5	2	12	C4	press
578.785	n/a	RESPONSE	M5	2	11	B3	release
579.229	n/a	RESPONSE	M5	2	12	C4	release
579.297	n/a	RESPONSE	M5	2	16	E4	release
579.589	n/a	RESPONSE	M5	2	00	C3	release
579.991	n/a	RESPONSE	M5	2	07	G3	release
580.974	n/a	RESPONSE	M5	2	04	E3	release
584.962	6.325	CUE_LISTEN	M1	1	n/a	n/a	n/a
591.287	7.758	FIXCROSS	n/a	n/a	n/a	n/a	n/a
599.045	6.317	CUE_PLAYBACK_RIGHT_HAND	M1	1	n/a	n/a	n/a
600.247	n/a	RESPONSE	M1	1	21	A4	press
600.261	n/a	RESPONSE	M1	1	05	F3	press
600.667	n/a	RESPONSE	M1	1	21	A4	release
600.676	n/a	RESPONSE	M1	1	05	F3	release
601.784	n/a	RESPONSE	M1	1	21	A4	press
601.805	n/a	RESPONSE	M1	1	09	A3	press
602.12	n/a	RESPONSE	M1	1	21	A4	release
602.206	n/a	RESPONSE	M1	1	09	A3	release
602.654	n/a	RESPONSE	M1	1	04	E3	press
602.69	n/a	RESPONSE	M1	1	21	A4	press
603.016	n/a	RESPONSE	M1	1	21	A4	release
603.018	n/a	RESPONSE	M1	1	04	E3	release
603.355	n/a	RESPONSE	M1	1	09	A3	press
603.436	n/a	RESPONSE	M1	1	21	A4	press
603.601	n/a	RESPONSE	M1	1	21	A4	release
604.016	n/a	RESPONSE	M1	1	09	A3	release
604.458	n/a	RESPONSE	M1	1	02	D3	press
604.491	n/a	RESPONSE	M1	1	21	A4	press
604.834	n/a	RESPONSE	M1	1	21	A4	release
605.012	n/a	RESPONSE	M1	1	02	D3	release
605.362	7.758	FIXCROSS	n/a	n/a	n/a	n/a	n/a
605.444	n/a	RESPONSE	M1	1	09	A3	press
605.485	n/a	RESPONSE	M1	1	21	A4	press
605.756	n/a	RESPONSE	M1	1	21	A4	release
605.838	n/a	RESPONSE	M1	1	09	A3	release
606.599	n/a	RESPONSE	M1	1	00	C3	press
607.4	n/a	RESPONSE	M1	1	09	A3	press
607.934	n/a	RESPONSE	M1	1	00	C3	release
608.194	n/a	RESPONSE	M1	1	09	A3	release
613.12	6.317	CUE_LISTEN	M1	2	n/a	n/a	n/a
619.437	7.758	FIXCROSS	n/a	n/a	n/a	n/a	n/a
627.195	6.325	CUE_PLAYBACK_RIGHT_HAND	M1	2	n/a	n/a	n/a
628.704	n/a	RESPONSE	M1	2	24	C5	press
628.724	n/a	RESPONSE	M1	2	05	F3	press
629.115	n/a	RESPONSE	M1	2	05	F3	release
629.156	n/a	RESPONSE	M1	2	24	C5	release
629.96	n/a	RESPONSE	M1	2	24	C5	press
629.989	n/a	RESPONSE	M1	2	05	F3	press
630.336	n/a	RESPONSE	M1	2	05	F3	release
630.934	n/a	RESPONSE	M1	2	09	A3	press
631.265	n/a	RESPONSE	M1	2	09	A3	release
631.93	n/a	RESPONSE	M1	2	24	C5	release
633.52	7.758	FIXCROSS	n/a	n/a	n/a	n/a	n/a
633.715	n/a	RESPONSE	M1	2	05	F3	press
633.725	n/a	RESPONSE	M1	2	21	A4	press
634.002	n/a	RESPONSE	M1	2	21	A4	release
634.117	n/a	RESPONSE	M1	2	21	A4	press
634.386	n/a	RESPONSE	M1	2	05	F3	release
635.437	n/a	RESPONSE	M1	2	21	A4	release
635.731	n/a	RESPONSE	M1	2	05	F3	press
635.76	n/a	RESPONSE	M1	2	21	A4	press
636.081	n/a	RESPONSE	M1	2	21	A4	release
636.102	n/a	RESPONSE	M1	2	05	F3	release
641.278	6.317	CUE_LISTEN	M4	1	n/a	n/a	n/a
647.595	7.758	FIXCROSS	n/a	n/a	n/a	n/a	n/a
655.353	6.317	CUE_PLAYBACK_BOTH_HANDS	M4	1	n/a	n/a	n/a
655.907	n/a	RESPONSE	M4	1	21	A4	press
655.917	n/a	RESPONSE	M4	1	05	F3	press
656.141	n/a	RESPONSE	M4	1	21	A4	release
656.35	n/a	RESPONSE	M4	1	21	A4	press
656.601	n/a	RESPONSE	M4	1	21	A4	release
656.702	n/a	RESPONSE	M4	1	05	F3	release
657.376	n/a	RESPONSE	M4	1	05	F3	press
657.395	n/a	RESPONSE	M4	1	21	A4	press
657.686	n/a	RESPONSE	M4	1	21	A4	release
657.767	n/a	RESPONSE	M4	1	05	F3	release
657.959	n/a	RESPONSE	M4	1	09	A3	press
657.972	n/a	RESPONSE	M4	1	24	C5	press
658.281	n/a	RESPONSE	M4	1	24	C5	release
658.452	n/a	RESPONSE	M4	1	09	A3	release
659.784	n/a	RESPONSE	M4	1	04	E3	press
659.805	n/a	RESPONSE	M4	1	19	G4	press
660.086	n/a	RESPONSE	M4	1	19	G4	release
660.227	n/a	RESPONSE	M4	1	04	E3	release
660.934	n/a	RESPONSE	M4	1	09	A3	press
660.975	n/a	RESPONSE	M4	1	24	C5	press
661.349	n/a	RESPONSE	M4	1	24	C5	release
661.637	n/a	RESPONSE	M4	1	09	A3	release
661.67	7.758	FIXCROSS	n/a	n/a	n/a	n/a	n/a
669.428	6.325	CUE_LISTEN	M4	2	n/a	n/a	n/a
675.753	14.075	FIXCROSS	n/a	n/a	n/a	n/a	n/a
683.512	n/a	CUE_PLAYBACK_BOTH_HANDS	M4	2	n/a	n/a	n/a
684.231	n/a	RESPONSE	M4	2	00	C3	press
684.242	n/a	RESPONSE	M4	2	24	C5	press
684.784	n/a	RESPONSE	M4	2	24	C5	release
685.635	n/a	RESPONSE	M4	2	07	G3	press
685.637	n/a	RESPONSE	M4	2	24	C5	press
686.307	n/a	RESPONSE	M4	2	07	G3	release
686.949	n/a	RESPONSE	M4	2	24	C5	release
687.57	n/a	RESPONSE	M4	2	04	E3	press
687.601	n/a	RESPONSE	M4	2	22	A#4	press
687.932	n/a	RESPONSE	M4	2	00	C3	release
688.094	n/a	RESPONSE	M4	2	22	A#4	release
689.065	n/a	RESPONSE	M4	2	04	E3	release
689.766	n/a	RESPONSE	M4	2	21	A4	press
689.769	n/a	RESPONSE	M4	2	07	G3	press
689.828	7.758	FIXCROSS	n/a	n/a	n/a	n/a	n/a
690.386	n/a	RESPONSE	M4	2	07	G3	release
690.439	n/a	RESPONSE	M4	2	21	A4	release
690.89	n/a	RESPONSE	M4	2	00	C3	press
690.946	n/a	RESPONSE	M4	2	19	G4	press
691.547	n/a	RESPONSE	M4	2	19	G4	release
691.651	n/a	RESPONSE	M4	2	00	C3	release
693.43	n/a	RESPONSE	M4	2	09	A3	press
693.474	n/a	RESPONSE	M4	2	16	E4	press
693.892	n/a	RESPONSE	M4	2	16	E4	release
693.972	n/a	RESPONSE	M4	2	09	A3	release
697.587	6.317	CUE_LISTEN	M2	1	n/a	n/a	n/a
703.904	7.758	FIXCROSS	n/a	n/a	n/a	n/a	n/a
711.662	6.325	CUE_PLAYBACK_RIGHT_HAND	M2	1	n/a	n/a	n/a
712.775	n/a	RESPONSE	M2	1	24	C5	press
713.169	n/a	RESPONSE	M2	1	24	C5	release
713.387	n/a	RESPONSE	M2	1	24	C5	press
714.235	n/a	RESPONSE	M2	1	24	C5	release
714.366	n/a	RESPONSE	M2	1	21	A4	press
714.647	n/a	RESPONSE	M2	1	21	A4	release
715.52	n/a	RESPONSE	M2	1	24	C5	press
716.14	n/a	RESPONSE	M2	1	21	A4	press
716.391	n/a	RESPONSE	M2	1	24	C5	release
716.432	n/a	RESPONSE	M2	1	21	A4	release
716.655	n/a	RESPONSE	M2	1	21	A4	press
716.975	n/a	RESPONSE	M2	1	21	A4	release
717.216	n/a	RESPONSE	M2	1	19	G4	press
717.837	n/a	RESPONSE	M2	1	17	F4	press
717.987	7.758	FIXCROSS	n/a	n/a	n/a	n/a	n/a
718.049	n/a	RESPONSE	M2	1	19	G4	release
718.2	n/a	RESPONSE	M2	1	17	F4	release
718.281	n/a	RESPONSE	M2	1	19	G4	press
718.652	n/a	RESPONSE	M2	1	19	G4	release
718.764	n/a	RESPONSE	M2	1	21	A4	press
719.355	n/a	RESPONSE	M2	1	21	A4	release
725.745	6.317	CUE_LISTEN	M2	2	n/a	n/a	n/a
732.062	7.758	FIXCROSS	n/a	n/a	n/a	n/a	n/a
739.82	6.325	CUE_PLAYBACK_RIGHT_HAND	M2	2	n/a	n/a	n/a
740.252	n/a	RESPONSE	M2	2	24	C5	press
741.217	n/a	RESPONSE	M2	2	24	C5	release
741.367	n/a	RESPONSE	M2	2	24	C5	press
741.997	n/a	RESPONSE	M2	2	21	A4	press
742.096	n/a	RESPONSE	M2	2	24	C5	release
742.421	n/a	RESPONSE	M2	2	21	A4	release
742.577	n/a	RESPONSE	M2	2	21	A4	press
742.926	n/a	RESPONSE	M2	2	21	A4	release
743.204	n/a	RESPONSE	M2	2	19	G4	press
743.544	n/a	RESPONSE	M2	2	19	G4	release
743.797	n/a	RESPONSE	M2	2	17	F4	press
744.317	n/a	RESPONSE	M2	2	17	F4	release
744.409	n/a	RESPONSE	M2	2	16	E4	press
744.981	n/a	RESPONSE	M2	2	16	E4	release
746.145	7.758	FIXCROSS	n/a	n/a	n/a	n/a	n/a
749.946	n/a	RESPONSE	M2	2	21	A4	press
750.845	n/a	RESPONSE	M2	2	21	A4	release
753.904	6.317	CUE_LISTEN	M2	1	n/a	n/a	n/a
760.22	7.758	FIXCROSS	n/a	n/a	n/a	n/a	n/a
767.979	6.317	CUE_PLAYBACK_RIGHT_HAND	M2	1	n/a	n/a	n/a
768.582	n/a	RESPONSE	M2	1	12	C4	press
769.122	n/a	RESPONSE	M2	1	14	D4	press
769.195	n/a	RESPONSE	M2	1	12	C4	release
769.535	n/a	RESPONSE	M2	1	14	D4	release
769.686	n/a	RESPONSE	M2	1	16	E4	press
770.05	n/a	RESPONSE	M2	1	16	E4	release
770.247	n/a	RESPONSE	M2	1	17	F4	press
770.664	n/a	RESPONSE	M2	1	17	F4	release
772.727	n/a	RESPONSE	M2	1	12	C4	press
773.087	n/a	RESPONSE	M2	1	12	C4	release
773.179	n/a	RESPONSE	M2	1	14	D4	press
773.645	n/a	RESPONSE	M2	1	14	D4	release
773.971	n/a	RESPONSE	M2	1	16	E4	press
774.214	n/a	RESPONSE	M2	1	16	E4	release
774.295	7.758	FIXCROSS	n/a	n/a	n/a	n/a	n/a
774.357	n/a	RESPONSE	M2	1	14	D4	press
774.696	n/a	RESPONSE	M2	1	14	D4	release
774.747	n/a	RESPONSE	M2	1	16	E4	press
775.109	n/a	RESPONSE	M2	1	17	F4	press
775.111	n/a	RESPONSE	M2	1	16	E4	release
775.381	n/a	RESPONSE	M2	1	17	F4	release
775.492	n/a	RESPONSE	M2	1	19	G4	press
775.954	n/a	RESPONSE	M2	1	19	G4	release
782.054	6.317	CUE_LISTEN	M2	2	n/a	n/a	n/a
788.37	7.758	FIXCROSS	n/a	n/a	n/a	n/a	n/a
796.129	6.325	CUE_PLAYBACK_RIGHT_HAND	M2	2	n/a	n/a	n/a
796.905	n/a	RESPONSE	M2	2	16	E4	press
797.287	n/a	RESPONSE	M2	2	16	E4	release
797.5	n/a	RESPONSE	M2	2	19	G4	press
798.139	n/a	RESPONSE	M2	2	19	G4	release
798.211	n/a	RESPONSE	M2	2	17	F4	press
799.162	n/a	RESPONSE	M2	2	17	F4	release
799.242	n/a	RESPONSE	M2	2	17	F4	press
799.554	n/a	RESPONSE	M2	2	17	F4	release
799.805	n/a	RESPONSE	M2	2	16	E4	press
800.126	n/a	RESPONSE	M2	2	16	E4	release
800.445	n/a	RESPONSE	M2	2	14	D4	press
800.822	n/a	RESPONSE	M2	2	14	D4	release
801.077	n/a	RESPONSE	M2	2	12	C4	press
801.982	n/a	RESPONSE	M2	2	12	C4	release
802.454	7.759	FIXCROSS	n/a	n/a	n/a	n/a	n/a
810.212	6.316	CUE_LISTEN	M3	1	n/a	n/a	n/a
816.529	7.759	FIXCROSS	n/a	n/a	n/a	n/a	n/a
824.287	6.325	CUE_PLAYBACK_BOTH_HANDS	M3	1	n/a	n/a	n/a
825.41	n/a	RESPONSE	M3	1	00	C3	press
825.47	n/a	RESPONSE	M3	1	12	C4	press
825.881	n/a	RESPONSE	M3	1	12	C4	release
826.172	n/a	RESPONSE	M3	1	07	G3	press
826.184	n/a	RESPONSE	M3	1	14	D4	press
826.536	n/a	RESPONSE	M3	1	00	C3	release
826.716	n/a	RESPONSE	M3	1	14	D4	release
826.73	n/a	RESPONSE	M3	1	07	G3	release
826.98	n/a	RESPONSE	M3	1	04	E3	press
826.99	n/a	RESPONSE	M3	1	16	E4	press
827.361	n/a	RESPONSE	M3	1	16	E4	release
827.522	n/a	RESPONSE	M3	1	04	E3	release
828.216	n/a	RESPONSE	M3	1	07	G3	press
828.225	n/a	RESPONSE	M3	1	12	C4	press
828.646	n/a	RESPONSE	M3	1	12	C4	release
828.707	n/a	RESPONSE	M3	1	07	G3	release
829.209	n/a	RESPONSE	M3	1	00	C3	press
829.26	n/a	RESPONSE	M3	1	12	C4	press
829.654	n/a	RESPONSE	M3	1	12	C4	release
829.722	n/a	RESPONSE	M3	1	00	C3	release
829.944	n/a	RESPONSE	M3	1	14	D4	press
829.946	n/a	RESPONSE	M3	1	07	G3	press
830.371	n/a	RESPONSE	M3	1	14	D4	release
830.517	n/a	RESPONSE	M3	1	07	G3	release
830.612	7.767	FIXCROSS	n/a	n/a	n/a	n/a	n/a
830.662	n/a	RESPONSE	M3	1	04	E3	press
830.668	n/a	RESPONSE	M3	1	16	E4	press
831.036	n/a	RESPONSE	M3	1	16	E4	release
831.059	n/a	RESPONSE	M3	1	04	E3	release
831.42	n/a	RESPONSE	M3	1	07	G3	press
831.432	n/a	RESPONSE	M3	1	12	C4	press
832.024	n/a	RESPONSE	M3	1	12	C4	release
832.117	n/a	RESPONSE	M3	1	07	G3	release
838.379	6.308	CUE_LISTEN	M3	2	n/a	n/a	n/a
844.687	7.759	FIXCROSS	n/a	n/a	n/a	n/a	n/a
852.446	6.317	CUE_PLAYBACK_BOTH_HANDS	M3	2	n/a	n/a	n/a
853.052	n/a	RESPONSE	M3	2	00	C3	press
853.081	n/a	RESPONSE	M3	2	19	G4	press
853.416	n/a	RESPONSE	M3	2	19	G4	release
853.87	n/a	RESPONSE	M3	2	07	G3	press
853.882	n/a	RESPONSE	M3	2	23	B4	press
853.942	n/a	RESPONSE	M3	2	00	C3	release
854.197	n/a	RESPONSE	M3	2	23	B4	release
854.346	n/a	RESPONSE	M3	2	07	G3	release
857.24	n/a	RESPONSE	M3	2	00	C3	press
857.242	n/a	RESPONSE	M3	2	19	G4	press
857.581	n/a	RESPONSE	M3	2	19	G4	release
857.682	n/a	RESPONSE	M3	2	00	C3	release
857.765	n/a	RESPONSE	M3	2	07	G3	press
857.836	n/a	RESPONSE	M3	2	23	B4	press
858.156	n/a	RESPONSE	M3	2	23	B4	release
858.367	n/a	RESPONSE	M3	2	07	G3	release
858.389	n/a	RESPONSE	M3	2	04	E3	press
858.4	n/a	RESPONSE	M3	2	19	G4	press
858.762	7.758	FIXCROSS	n/a	n/a	n/a	n/a	n/a
858.871	n/a	RESPONSE	M3	2	04	E3	release
858.934	n/a	RESPONSE	M3	2	19	G4	release
859.045	n/a	RESPONSE	M3	2	17	F4	press
859.575	n/a	RESPONSE	M3	2	00	C3	press
860.016	n/a	RESPONSE	M3	2	00	C3	release
860.117	n/a	RESPONSE	M3	2	17	F4	release
860.805	n/a	RESPONSE	M3	2	00	C3	press
860.867	n/a	RESPONSE	M3	2	16	E4	press
861.232	n/a	RESPONSE	M3	2	16	E4	release
861.367	n/a	RESPONSE	M3	2	00	C3	release
866.521	6.325	CUE_LISTEN	M3	1	n/a	n/a	n/a
872.846	7.758	FIXCROSS	n/a	n/a	n/a	n/a	n/a
880.604	6.317	CUE_PLAYBACK_BOTH_HANDS	M3	1	n/a	n/a	n/a
881.769	n/a	RESPONSE	M3	1	00	C3	press
881.775	n/a	RESPONSE	M3	1	17	F4	press
882.242	n/a	RESPONSE	M3	1	17	F4	release
882.279	n/a	RESPONSE	M3	1	00	C3	release
882.369	n/a	RESPONSE	M3	1	07	G3	press
882.384	n/a	RESPONSE	M3	1	19	G4	press
882.822	n/a	RESPONSE	M3	1	19	G4	release
883.032	n/a	RESPONSE	M3	1	07	G3	release
883.4	n/a	RESPONSE	M3	1	04	E3	press
883.422	n/a	RESPONSE	M3	1	17	F4	press
883.985	n/a	RESPONSE	M3	1	17	F4	release
884.147	n/a	RESPONSE	M3	1	17	F4	press
884.519	n/a	RESPONSE	M3	1	17	F4	release
884.81	n/a	RESPONSE	M3	1	04	E3	release
885.421	n/a	RESPONSE	M3	1	07	G3	press
885.424	n/a	RESPONSE	M3	1	16	E4	press
886.025	n/a	RESPONSE	M3	1	07	G3	release
886.027	n/a	RESPONSE	M3	1	16	E4	release
886.921	7.758	FIXCROSS	n/a	n/a	n/a	n/a	n/a
887.549	n/a	RESPONSE	M3	1	00	C3	press
887.567	n/a	RESPONSE	M3	1	14	D4	press
888.059	n/a	RESPONSE	M3	1	14	D4	release
888.152	n/a	RESPONSE	M3	1	00	C3	release
894.679	6.317	CUE_LISTEN	M3	2	n/a	n/a	n/a
900.996	7.758	FIXCROSS	n/a	n/a	n/a	n/a	n/a
908.754	203.936	CUE_PLAYBACK_BOTH_HANDS	M3	2	n/a	n/a	n/a
909.592	n/a	RESPONSE	M3	2	00	C3	press
909.634	n/a	RESPONSE	M3	2	12	C4	press
910.045	n/a	RESPONSE	M3	2	12	C4	release
910.252	n/a	RESPONSE	M3	2	07	G3	press
910.295	n/a	RESPONSE	M3	2	00	C3	release
910.941	n/a	RESPONSE	M3	2	07	G3	release
911.409	n/a	RESPONSE	M3	2	00	C3	press
911.422	n/a	RESPONSE	M3	2	12	C4	press
912.08	n/a	RESPONSE	M3	2	12	C4	release
912.096	n/a	RESPONSE	M3	2	00	C3	release
912.519	n/a	RESPONSE	M3	2	00	C3	press
912.544	n/a	RESPONSE	M3	2	12	C4	press
912.986	n/a	RESPONSE	M3	2	12	C4	release
913.129	n/a	RESPONSE	M3	2	07	G3	press
913.249	n/a	FIXCROSS	n/a	n/a	n/a	n/a	n/a
913.264	n/a	RESPONSE	M3	2	00	C3	release
913.559	n/a	RESPONSE	M3	2	07	G3	release
913.646	n/a	RESPONSE	M3	2	00	C3	press
913.71	n/a	RESPONSE	M3	2	12	C4	press
914.49	n/a	RESPONSE	M3	2	12	C4	release
914.524	n/a	RESPONSE	M3	2	00	C3	release
