onset	duration	trial_type	braille_stimulus	targets	response_count
2.017	2.008	CUE_6_DOT	n/a	n/a	n/a
7.017	1.008	FIXCROSS	n/a	n/a	n/a
8.034	5.008	6_DOT_DETECTION	K#OBU	1	n/a
13.067	1.008	FIXCROSS	n/a	n/a	n/a
14.084	5.008	6_DOT_DETECTION	##BYM	2	n/a
19.117	1.008	FIXCROSS	n/a	n/a	n/a
20.134	5.008	6_DOT_DETECTION	#MOI#	2	n/a
25.167	1.008	FIXCROSS	n/a	n/a	n/a
26.184	5.008	6_DOT_DETECTION	PBC#O	1	n/a
29.633	n/a	RESPONSE	n/a	n/a	1/1
31.217	1.008	FIXCROSS	n/a	n/a	n/a
32.234	5.008	6_DOT_DETECTION	#CSDŁ	1	n/a
37.267	1.008	FIXCROSS	n/a	n/a	n/a
38.284	5.009	6_DOT_DETECTION	TMPLP	0	n/a
43.317	1.008	FIXCROSS	n/a	n/a	n/a
44.334	5.008	6_DOT_DETECTION	PIK#S	1	n/a
47.236	n/a	RESPONSE	n/a	n/a	1/1
49.367	1.008	FIXCROSS	n/a	n/a	n/a
50.384	5.008	6_DOT_DETECTION	##PUK	2	n/a
52.282	n/a	RESPONSE	n/a	n/a	1/2
57.426	2.008	CUE_REST	n/a	n/a	n/a
62.426	1.008	FIXCROSS	n/a	n/a	n/a
68.476	1.008	FIXCROSS	n/a	n/a	n/a
75.534	2.008	CUE_6_DOT	n/a	n/a	n/a
80.534	1.008	FIXCROSS	n/a	n/a	n/a
81.55	5.009	6_DOT_DETECTION	#PYL#	2	n/a
86.584	1.008	FIXCROSS	n/a	n/a	n/a
87.601	5.008	6_DOT_DETECTION	#LOB#	2	n/a
92.107	n/a	RESPONSE	n/a	n/a	1/2
92.634	1.008	FIXCROSS	n/a	n/a	n/a
93.651	5.008	6_DOT_DETECTION	KKBDB	0	n/a
98.684	1.008	FIXCROSS	n/a	n/a	n/a
99.701	5.008	6_DOT_DETECTION	#MOC#	2	n/a
101.243	n/a	RESPONSE	n/a	n/a	1/2
104.015	n/a	RESPONSE	n/a	n/a	2/2
104.734	1.008	FIXCROSS	n/a	n/a	n/a
105.751	5.008	6_DOT_DETECTION	OYOEL	0	n/a
110.784	1.008	FIXCROSS	n/a	n/a	n/a
111.8	5.009	6_DOT_DETECTION	UICCI	0	n/a
116.834	1.008	FIXCROSS	n/a	n/a	n/a
117.851	5.008	6_DOT_DETECTION	YYSAT	0	n/a
119.806	n/a	RESPONSE	n/a	n/a	1/0
122.884	1.008	FIXCROSS	n/a	n/a	n/a
123.901	5.008	6_DOT_DETECTION	ŁEB##	2	n/a
127.436	n/a	RESPONSE	n/a	n/a	1/2
128.896	n/a	RESPONSE	n/a	n/a	2/2
130.443	2.008	CUE_REST	n/a	n/a	n/a
136.943	1.008	FIXCROSS	n/a	n/a	n/a
142.993	1.008	FIXCROSS	n/a	n/a	n/a
150.551	2.008	CUE_6_DOT	n/a	n/a	n/a
157.051	1.008	FIXCROSS	n/a	n/a	n/a
158.067	5.009	6_DOT_DETECTION	ILE#A	1	n/a
163.101	1.008	FIXCROSS	n/a	n/a	n/a
164.118	5.008	6_DOT_DETECTION	#ULU#	2	n/a
166.366	n/a	RESPONSE	n/a	n/a	1/2
169.151	1.008	FIXCROSS	n/a	n/a	n/a
170.168	5.008	6_DOT_DETECTION	OŁKKŁ	0	n/a
175.201	1.008	FIXCROSS	n/a	n/a	n/a
176.218	5.008	6_DOT_DETECTION	ŁBY##	2	n/a
179.38	n/a	RESPONSE	n/a	n/a	1/2
181.131	n/a	RESPONSE	n/a	n/a	2/2
181.251	1.008	FIXCROSS	n/a	n/a	n/a
182.268	5.008	6_DOT_DETECTION	UTCKE	0	n/a
187.301	1.008	FIXCROSS	n/a	n/a	n/a
188.318	5.008	6_DOT_DETECTION	T#ŁUK	1	n/a
190.07	n/a	RESPONSE	n/a	n/a	1/1
193.351	1.008	FIXCROSS	n/a	n/a	n/a
194.367	5.009	6_DOT_DETECTION	ALCBC	0	n/a
199.401	1.008	FIXCROSS	n/a	n/a	n/a
200.417	5.009	6_DOT_DETECTION	MOL#I	1	n/a
202.931	n/a	RESPONSE	n/a	n/a	1/1
206.96	2.008	CUE_REST	n/a	n/a	n/a
211.46	1.008	FIXCROSS	n/a	n/a	n/a
217.51	1.008	FIXCROSS	n/a	n/a	n/a
225.567	2.009	CUE_6_DOT	n/a	n/a	n/a
231.568	1.008	FIXCROSS	n/a	n/a	n/a
232.585	5.008	6_DOT_DETECTION	ELKYB	0	n/a
235.98	n/a	RESPONSE	n/a	n/a	1/0
237.618	1.008	FIXCROSS	n/a	n/a	n/a
238.635	5.008	6_DOT_DETECTION	CUI#A	1	n/a
241.977	n/a	RESPONSE	n/a	n/a	1/1
243.668	1.008	FIXCROSS	n/a	n/a	n/a
244.685	5.008	6_DOT_DETECTION	A#KŁA	1	n/a
246.513	n/a	RESPONSE	n/a	n/a	1/1
249.718	1.008	FIXCROSS	n/a	n/a	n/a
250.735	5.008	6_DOT_DETECTION	#DCBK	1	n/a
252.125	n/a	RESPONSE	n/a	n/a	1/1
255.768	1.008	FIXCROSS	n/a	n/a	n/a
256.785	5.008	6_DOT_DETECTION	DAL#S	1	n/a
260.221	n/a	RESPONSE	n/a	n/a	1/1
261.818	1.008	FIXCROSS	n/a	n/a	n/a
262.835	5.008	6_DOT_DETECTION	CLCLK	0	n/a
267.868	1.008	FIXCROSS	n/a	n/a	n/a
268.885	5.008	6_DOT_DETECTION	DDLYC	0	n/a
272.95	n/a	RESPONSE	n/a	n/a	1/0
273.918	1.008	FIXCROSS	n/a	n/a	n/a
274.934	5.009	6_DOT_DETECTION	CLU#L	1	n/a
278.321	n/a	RESPONSE	n/a	n/a	1/1
281.976	2.008	CUE_REST	n/a	n/a	n/a
285.976	1.008	FIXCROSS	n/a	n/a	n/a
292.026	1.008	FIXCROSS	n/a	n/a	n/a
299.585	2.008	CUE_6_DOT	n/a	n/a	n/a
305.085	1.008	FIXCROSS	n/a	n/a	n/a
306.102	5.008	6_DOT_DETECTION	CEP##	2	n/a
310.169	n/a	RESPONSE	n/a	n/a	1/2
311.135	1.008	FIXCROSS	n/a	n/a	n/a
311.311	n/a	RESPONSE	n/a	n/a	2/2
312.152	5.008	6_DOT_DETECTION	BOM##	2	n/a
315.126	n/a	RESPONSE	n/a	n/a	1/2
315.594	n/a	RESPONSE	n/a	n/a	2/2
317.185	1.008	FIXCROSS	n/a	n/a	n/a
318.202	5.008	6_DOT_DETECTION	PIŁ##	2	n/a
321.364	n/a	RESPONSE	n/a	n/a	1/2
322.288	n/a	RESPONSE	n/a	n/a	2/2
323.235	1.008	FIXCROSS	n/a	n/a	n/a
324.252	5.008	6_DOT_DETECTION	Ł#BCO	1	n/a
326.704	n/a	RESPONSE	n/a	n/a	1/1
329.285	1.008	FIXCROSS	n/a	n/a	n/a
330.302	5.008	6_DOT_DETECTION	##DAŁ	2	n/a
332.34	n/a	RESPONSE	n/a	n/a	1/2
335.335	1.008	FIXCROSS	n/a	n/a	n/a
336.352	5.008	6_DOT_DETECTION	A#KAT	1	n/a
338.516	n/a	RESPONSE	n/a	n/a	1/1
341.385	1.008	FIXCROSS	n/a	n/a	n/a
342.401	5.009	6_DOT_DETECTION	##LOT	2	n/a
344.087	n/a	RESPONSE	n/a	n/a	1/2
345.357	n/a	RESPONSE	n/a	n/a	2/2
347.435	1.008	FIXCROSS	n/a	n/a	n/a
348.452	5.008	6_DOT_DETECTION	ITPCY	0	n/a
354.493	2.008	CUE_REST	n/a	n/a	n/a
360.493	1.008	FIXCROSS	n/a	n/a	n/a
366.543	1.008	FIXCROSS	n/a	n/a	n/a
373.602	2.008	CUE_6_DOT	n/a	n/a	n/a
378.602	1.008	FIXCROSS	n/a	n/a	n/a
379.618	5.008	6_DOT_DETECTION	EDDCK	0	n/a
384.652	1.008	FIXCROSS	n/a	n/a	n/a
385.668	5.008	6_DOT_DETECTION	##MUS	2	n/a
387.606	n/a	RESPONSE	n/a	n/a	1/2
390.702	1.008	FIXCROSS	n/a	n/a	n/a
391.718	5.008	6_DOT_DETECTION	AMUPT	0	n/a
396.752	1.008	FIXCROSS	n/a	n/a	n/a
397.768	5.009	6_DOT_DETECTION	LEDLB	0	n/a
402.802	1.008	FIXCROSS	n/a	n/a	n/a
403.818	5.008	6_DOT_DETECTION	UKPBB	0	n/a
408.852	1.008	FIXCROSS	n/a	n/a	n/a
409.868	5.009	6_DOT_DETECTION	DL#KU	1	n/a
412.59	n/a	RESPONSE	n/a	n/a	1/1
414.902	1.008	FIXCROSS	n/a	n/a	n/a
415.918	5.009	6_DOT_DETECTION	PSEIP	0	n/a
420.952	1.008	FIXCROSS	n/a	n/a	n/a
421.969	5.008	6_DOT_DETECTION	E#CEL	1	n/a
423.972	n/a	RESPONSE	n/a	n/a	1/1
428.01	2.008	CUE_REST	n/a	n/a	n/a
435.01	1.008	FIXCROSS	n/a	n/a	n/a
441.06	1.008	FIXCROSS	n/a	n/a	n/a
