onset	duration	trial_type	trial_number	stroop_condition	stim_text(PL)	stim_text(eng)	stim_color(PL)	stim_color(eng)	response_type	response_color
0.0	n/a	RESPONSE	n/a	n/a	n/a	n/a	n/a	n/a	n/a	n/a
0.0725	1.0334	ITI	n/a	n/a	n/a	n/a	n/a	n/a	n/a	n/a
1.1058	0.5333	FIXCROSS	n/a	n/a	n/a	n/a	n/a	n/a	n/a	n/a
1.6391	1.1333	T_INK	1	Neutral	xxxxxxxxx	xxxxxxxxx	żółty	yellow	hit	n/a
2.7337	n/a	RESPONSE	n/a	n/a	n/a	n/a	n/a	n/a	n/a	yellow
2.7725	0.5167	FEEDBACK	n/a	n/a	n/a	n/a	n/a	n/a	n/a	n/a
3.2892	1.0333	ITI	n/a	n/a	n/a	n/a	n/a	n/a	n/a	n/a
4.3225	0.5333	FIXCROSS	n/a	n/a	n/a	n/a	n/a	n/a	n/a	n/a
4.8558	0.8	T_INK	2	Incongruent	czerwony	red	zielony	green	hit	n/a
5.6273	n/a	RESPONSE	n/a	n/a	n/a	n/a	n/a	n/a	n/a	green
5.6558	0.5167	FEEDBACK	n/a	n/a	n/a	n/a	n/a	n/a	n/a	n/a
6.1725	1.0167	ITI	n/a	n/a	n/a	n/a	n/a	n/a	n/a	n/a
7.1892	0.5167	FIXCROSS	n/a	n/a	n/a	n/a	n/a	n/a	n/a	n/a
7.7059	0.6333	T_INK	3	Incongruent	niebieski	blue	zielony	green	hit	n/a
8.2972	n/a	RESPONSE	n/a	n/a	n/a	n/a	n/a	n/a	n/a	green
8.3392	0.5167	FEEDBACK	n/a	n/a	n/a	n/a	n/a	n/a	n/a	n/a
8.8559	1.0167	ITI	n/a	n/a	n/a	n/a	n/a	n/a	n/a	n/a
9.8726	0.5167	FIXCROSS	n/a	n/a	n/a	n/a	n/a	n/a	n/a	n/a
10.3893	0.5833	T_INK	4	Incongruent	czerwony	red	żółty	yellow	hit	n/a
10.9349	n/a	RESPONSE	n/a	n/a	n/a	n/a	n/a	n/a	n/a	yellow
10.9726	0.5167	FEEDBACK	n/a	n/a	n/a	n/a	n/a	n/a	n/a	n/a
11.4893	1.0167	ITI	n/a	n/a	n/a	n/a	n/a	n/a	n/a	n/a
12.5059	0.5167	FIXCROSS	n/a	n/a	n/a	n/a	n/a	n/a	n/a	n/a
13.0226	0.5333	T_INK	5	Neutral	xxxxxxxxx	xxxxxxxxx	zielony	green	hit	n/a
13.5249	n/a	RESPONSE	n/a	n/a	n/a	n/a	n/a	n/a	n/a	green
13.556	0.5167	FEEDBACK	n/a	n/a	n/a	n/a	n/a	n/a	n/a	n/a
14.0726	1.0167	ITI	n/a	n/a	n/a	n/a	n/a	n/a	n/a	n/a
15.0893	0.5333	FIXCROSS	n/a	n/a	n/a	n/a	n/a	n/a	n/a	n/a
15.6226	0.3833	T_INK	6	Neutral	xxxxx	xxxxx	niebieski	blue	hit	n/a
15.9709	n/a	RESPONSE	n/a	n/a	n/a	n/a	n/a	n/a	n/a	blue
16.006	0.5167	FEEDBACK	n/a	n/a	n/a	n/a	n/a	n/a	n/a	n/a
16.5227	1.0167	ITI	n/a	n/a	n/a	n/a	n/a	n/a	n/a	n/a
17.5393	0.5167	FIXCROSS	n/a	n/a	n/a	n/a	n/a	n/a	n/a	n/a
18.056	0.4	T_INK	7	Neutral	xxxxx	xxxxx	zielony	green	incorrect	n/a
18.4169	n/a	RESPONSE	n/a	n/a	n/a	n/a	n/a	n/a	n/a	blue
18.456	0.5333	FEEDBACK	n/a	n/a	n/a	n/a	n/a	n/a	n/a	n/a
18.9894	1.0167	ITI	n/a	n/a	n/a	n/a	n/a	n/a	n/a	n/a
20.006	0.5167	FIXCROSS	n/a	n/a	n/a	n/a	n/a	n/a	n/a	n/a
20.5227	0.65	T_INK	8	Incongruent	czerwony	red	niebieski	blue	hit	n/a
21.1346	n/a	RESPONSE	n/a	n/a	n/a	n/a	n/a	n/a	n/a	blue
21.1346	n/a	RESPONSE	n/a	n/a	n/a	n/a	n/a	n/a	n/a	red
21.1727	0.5167	FEEDBACK	n/a	n/a	n/a	n/a	n/a	n/a	n/a	n/a
21.6894	1.0167	ITI	n/a	n/a	n/a	n/a	n/a	n/a	n/a	n/a
22.7061	0.5167	FIXCROSS	n/a	n/a	n/a	n/a	n/a	n/a	n/a	n/a
23.2227	0.6834	T_INK	9	Incongruent	niebieski	blue	żółty	yellow	hit	n/a
23.8683	n/a	RESPONSE	n/a	n/a	n/a	n/a	n/a	n/a	n/a	yellow
23.9061	0.5167	FEEDBACK	n/a	n/a	n/a	n/a	n/a	n/a	n/a	n/a
24.4228	1.0167	ITI	n/a	n/a	n/a	n/a	n/a	n/a	n/a	n/a
25.4394	0.5167	FIXCROSS	n/a	n/a	n/a	n/a	n/a	n/a	n/a	n/a
25.9561	0.5167	T_INK	10	Neutral	xxxxxxxxx	xxxxxxxxx	czerwony	red	incorrect	n/a
26.4422	n/a	RESPONSE	n/a	n/a	n/a	n/a	n/a	n/a	n/a	green
26.4728	0.5333	FEEDBACK	n/a	n/a	n/a	n/a	n/a	n/a	n/a	n/a
27.0061	1.0167	ITI	n/a	n/a	n/a	n/a	n/a	n/a	n/a	n/a
28.0228	0.5167	FIXCROSS	n/a	n/a	n/a	n/a	n/a	n/a	n/a	n/a
28.5395	0.8667	T_INK	11	Incongruent	zielony	green	żółty	yellow	hit	n/a
29.3678	n/a	RESPONSE	n/a	n/a	n/a	n/a	n/a	n/a	n/a	yellow
29.4062	0.5167	FEEDBACK	n/a	n/a	n/a	n/a	n/a	n/a	n/a	n/a
29.9228	1.0334	ITI	n/a	n/a	n/a	n/a	n/a	n/a	n/a	n/a
30.9562	0.5167	FIXCROSS	n/a	n/a	n/a	n/a	n/a	n/a	n/a	n/a
31.4728	0.45	T_INK	12	Incongruent	żółty	yellow	czerwony	red	hit	n/a
31.8938	n/a	RESPONSE	n/a	n/a	n/a	n/a	n/a	n/a	n/a	red
31.9228	0.5167	FEEDBACK	n/a	n/a	n/a	n/a	n/a	n/a	n/a	n/a
32.4395	1.0333	ITI	n/a	n/a	n/a	n/a	n/a	n/a	n/a	n/a
46.3299	n/a	RESPONSE	n/a	n/a	n/a	n/a	n/a	n/a	n/a	n/a
46.3897	1.0333	ITI	n/a	n/a	n/a	n/a	n/a	n/a	n/a	n/a
47.423	0.5333	FIXCROSS	n/a	n/a	n/a	n/a	n/a	n/a	n/a	n/a
47.9564	0.6831	INK	1	Incongruent	czerwony	red	żółty	yellow	hit	n/a
48.616	n/a	RESPONSE	n/a	n/a	n/a	n/a	n/a	n/a	n/a	yellow
48.6395	1.0335	ITI	n/a	n/a	n/a	n/a	n/a	n/a	n/a	n/a
49.6731	0.5333	FIXCROSS	n/a	n/a	n/a	n/a	n/a	n/a	n/a	n/a
50.2064	0.55	INK	2	Neutral	xxxxxxx	xxxxxxx	czerwony	red	hit	n/a
50.7264	n/a	RESPONSE	n/a	n/a	n/a	n/a	n/a	n/a	n/a	red
50.7564	1.0167	ITI	n/a	n/a	n/a	n/a	n/a	n/a	n/a	n/a
51.7731	0.5167	FIXCROSS	n/a	n/a	n/a	n/a	n/a	n/a	n/a	n/a
52.2898	0.5667	INK	3	Neutral	xxxxxxxx	xxxxxxxx	niebieski	blue	hit	n/a
52.8206	n/a	RESPONSE	n/a	n/a	n/a	n/a	n/a	n/a	n/a	blue
52.8564	1.0167	ITI	n/a	n/a	n/a	n/a	n/a	n/a	n/a	n/a
53.8731	0.5167	FIXCROSS	n/a	n/a	n/a	n/a	n/a	n/a	n/a	n/a
54.3898	0.4833	INK	4	Neutral	xxxxxxxxx	xxxxxxxxx	czerwony	red	hit	n/a
54.8348	n/a	RESPONSE	n/a	n/a	n/a	n/a	n/a	n/a	n/a	red
54.8731	1.0167	ITI	n/a	n/a	n/a	n/a	n/a	n/a	n/a	n/a
55.8898	0.5167	FIXCROSS	n/a	n/a	n/a	n/a	n/a	n/a	n/a	n/a
56.4065	0.7	INK	5	Neutral	xxxxxxx	xxxxxxx	niebieski	blue	hit	n/a
57.0731	n/a	RESPONSE	n/a	n/a	n/a	n/a	n/a	n/a	n/a	blue
57.1065	1.0167	ITI	n/a	n/a	n/a	n/a	n/a	n/a	n/a	n/a
58.1232	0.5333	FIXCROSS	n/a	n/a	n/a	n/a	n/a	n/a	n/a	n/a
58.6565	0.7167	INK	6	Incongruent	niebieski	blue	zielony	green	hit	n/a
59.3432	n/a	RESPONSE	n/a	n/a	n/a	n/a	n/a	n/a	n/a	green
59.3732	1.0167	ITI	n/a	n/a	n/a	n/a	n/a	n/a	n/a	n/a
60.3899	0.5333	FIXCROSS	n/a	n/a	n/a	n/a	n/a	n/a	n/a	n/a
60.9232	0.5167	INK	7	Neutral	xxxxx	xxxxx	czerwony	red	hit	n/a
61.4054	n/a	RESPONSE	n/a	n/a	n/a	n/a	n/a	n/a	n/a	red
61.4399	1.0167	ITI	n/a	n/a	n/a	n/a	n/a	n/a	n/a	n/a
62.4566	0.5167	FIXCROSS	n/a	n/a	n/a	n/a	n/a	n/a	n/a	n/a
62.9732	0.5333	INK	8	Neutral	xxxxxxxx	xxxxxxxx	zielony	green	hit	n/a
63.4678	n/a	RESPONSE	n/a	n/a	n/a	n/a	n/a	n/a	n/a	green
63.5066	1.0333	ITI	n/a	n/a	n/a	n/a	n/a	n/a	n/a	n/a
64.5399	0.5167	FIXCROSS	n/a	n/a	n/a	n/a	n/a	n/a	n/a	n/a
65.0566	0.4833	INK	9	Neutral	xxxxxxxx	xxxxxxxx	zielony	green	hit	n/a
65.5141	n/a	RESPONSE	n/a	n/a	n/a	n/a	n/a	n/a	n/a	green
65.5399	1.0167	ITI	n/a	n/a	n/a	n/a	n/a	n/a	n/a	n/a
66.5566	0.5167	FIXCROSS	n/a	n/a	n/a	n/a	n/a	n/a	n/a	n/a
67.0733	0.55	INK	10	Incongruent	zielony	green	czerwony	red	hit	n/a
67.5924	n/a	RESPONSE	n/a	n/a	n/a	n/a	n/a	n/a	n/a	red
67.6233	1.0167	ITI	n/a	n/a	n/a	n/a	n/a	n/a	n/a	n/a
68.64	0.5167	FIXCROSS	n/a	n/a	n/a	n/a	n/a	n/a	n/a	n/a
69.1566	0.5333	INK	11	Incongruent	czerwony	red	niebieski	blue	hit	n/a
69.6547	n/a	RESPONSE	n/a	n/a	n/a	n/a	n/a	n/a	n/a	blue
69.69	1.0333	ITI	n/a	n/a	n/a	n/a	n/a	n/a	n/a	n/a
70.7233	0.5167	FIXCROSS	n/a	n/a	n/a	n/a	n/a	n/a	n/a	n/a
71.24	0.4667	INK	12	Incongruent	czerwony	red	niebieski	blue	hit	n/a
71.6691	n/a	RESPONSE	n/a	n/a	n/a	n/a	n/a	n/a	n/a	blue
71.7067	1.0167	ITI	n/a	n/a	n/a	n/a	n/a	n/a	n/a	n/a
72.7234	0.5167	FIXCROSS	n/a	n/a	n/a	n/a	n/a	n/a	n/a	n/a
73.24	0.5167	INK	13	Neutral	xxxxx	xxxxx	czerwony	red	hit	n/a
73.7313	n/a	RESPONSE	n/a	n/a	n/a	n/a	n/a	n/a	n/a	red
73.7567	1.0167	ITI	n/a	n/a	n/a	n/a	n/a	n/a	n/a	n/a
74.7734	0.5333	FIXCROSS	n/a	n/a	n/a	n/a	n/a	n/a	n/a	n/a
75.3067	0.45	INK	14	Incongruent	żółty	yellow	czerwony	red	hit	n/a
75.7297	n/a	RESPONSE	n/a	n/a	n/a	n/a	n/a	n/a	n/a	red
75.7567	1.0167	ITI	n/a	n/a	n/a	n/a	n/a	n/a	n/a	n/a
76.7734	0.5167	FIXCROSS	n/a	n/a	n/a	n/a	n/a	n/a	n/a	n/a
77.2901	0.5167	INK	15	Incongruent	zielony	green	żółty	yellow	hit	n/a
77.776	n/a	RESPONSE	n/a	n/a	n/a	n/a	n/a	n/a	n/a	yellow
77.8068	1.0167	ITI	n/a	n/a	n/a	n/a	n/a	n/a	n/a	n/a
78.8234	0.5167	FIXCROSS	n/a	n/a	n/a	n/a	n/a	n/a	n/a	n/a
79.3401	0.5333	INK	16	Neutral	xxxxxxxxx	xxxxxxxxx	zielony	green	hit	n/a
79.8384	n/a	RESPONSE	n/a	n/a	n/a	n/a	n/a	n/a	n/a	green
79.8734	1.0167	ITI	n/a	n/a	n/a	n/a	n/a	n/a	n/a	n/a
80.8901	0.5167	FIXCROSS	n/a	n/a	n/a	n/a	n/a	n/a	n/a	n/a
81.4068	0.5167	INK	17	Incongruent	czerwony	red	zielony	green	hit	n/a
81.8846	n/a	RESPONSE	n/a	n/a	n/a	n/a	n/a	n/a	n/a	green
81.9235	1.0167	ITI	n/a	n/a	n/a	n/a	n/a	n/a	n/a	n/a
82.9401	0.5167	FIXCROSS	n/a	n/a	n/a	n/a	n/a	n/a	n/a	n/a
83.4568	0.45	INK	18	Neutral	xxxxxxxxx	xxxxxxxxx	zielony	green	hit	n/a
83.8671	n/a	RESPONSE	n/a	n/a	n/a	n/a	n/a	n/a	n/a	green
83.9068	1.0167	ITI	n/a	n/a	n/a	n/a	n/a	n/a	n/a	n/a
84.9235	0.5167	FIXCROSS	n/a	n/a	n/a	n/a	n/a	n/a	n/a	n/a
85.4402	0.5334	INK	19	Incongruent	zielony	green	żółty	yellow	incorrect	n/a
85.9452	n/a	RESPONSE	n/a	n/a	n/a	n/a	n/a	n/a	n/a	blue
85.9735	1.0167	ITI	n/a	n/a	n/a	n/a	n/a	n/a	n/a	n/a
86.9902	0.5167	FIXCROSS	n/a	n/a	n/a	n/a	n/a	n/a	n/a	n/a
87.5069	0.6667	INK	20	Neutral	xxxxxxxxx	xxxxxxxxx	żółty	yellow	hit	n/a
88.1355	n/a	RESPONSE	n/a	n/a	n/a	n/a	n/a	n/a	n/a	yellow
88.1735	1.0167	ITI	n/a	n/a	n/a	n/a	n/a	n/a	n/a	n/a
89.1902	0.5167	FIXCROSS	n/a	n/a	n/a	n/a	n/a	n/a	n/a	n/a
89.7069	0.6	INK	21	Neutral	xxxxxxx	xxxxxxx	czerwony	red	hit	n/a
90.2777	n/a	RESPONSE	n/a	n/a	n/a	n/a	n/a	n/a	n/a	red
90.3069	1.0167	ITI	n/a	n/a	n/a	n/a	n/a	n/a	n/a	n/a
91.3236	0.5167	FIXCROSS	n/a	n/a	n/a	n/a	n/a	n/a	n/a	n/a
91.8402	0.4833	INK	22	Incongruent	żółty	yellow	czerwony	red	hit	n/a
92.2921	n/a	RESPONSE	n/a	n/a	n/a	n/a	n/a	n/a	n/a	red
92.3236	1.0167	ITI	n/a	n/a	n/a	n/a	n/a	n/a	n/a	n/a
93.3403	0.5333	FIXCROSS	n/a	n/a	n/a	n/a	n/a	n/a	n/a	n/a
93.8736	0.5667	INK	23	Neutral	xxxxxxxx	xxxxxxxx	żółty	yellow	hit	n/a
94.4023	n/a	RESPONSE	n/a	n/a	n/a	n/a	n/a	n/a	n/a	yellow
94.4403	1.0334	ITI	n/a	n/a	n/a	n/a	n/a	n/a	n/a	n/a
95.4736	0.5333	FIXCROSS	n/a	n/a	n/a	n/a	n/a	n/a	n/a	n/a
96.007	0.4167	INK	24	Incongruent	zielony	green	niebieski	blue	hit	n/a
96.3847	n/a	RESPONSE	n/a	n/a	n/a	n/a	n/a	n/a	n/a	blue
96.4236	1.0333	ITI	n/a	n/a	n/a	n/a	n/a	n/a	n/a	n/a
97.457	0.5167	FIXCROSS	n/a	n/a	n/a	n/a	n/a	n/a	n/a	n/a
97.9737	0.4333	INK	25	Incongruent	zielony	green	czerwony	red	hit	n/a
98.383	n/a	RESPONSE	n/a	n/a	n/a	n/a	n/a	n/a	n/a	red
98.407	1.0167	ITI	n/a	n/a	n/a	n/a	n/a	n/a	n/a	n/a
99.4237	0.5167	FIXCROSS	n/a	n/a	n/a	n/a	n/a	n/a	n/a	n/a
99.9403	0.55	INK	26	Neutral	xxxxxxx	xxxxxxx	żółty	yellow	hit	n/a
100.4614	n/a	RESPONSE	n/a	n/a	n/a	n/a	n/a	n/a	n/a	yellow
100.4904	1.0167	ITI	n/a	n/a	n/a	n/a	n/a	n/a	n/a	n/a
101.507	0.5167	FIXCROSS	n/a	n/a	n/a	n/a	n/a	n/a	n/a	n/a
102.0237	0.55	INK	27	Incongruent	żółty	yellow	niebieski	blue	hit	n/a
102.5396	n/a	RESPONSE	n/a	n/a	n/a	n/a	n/a	n/a	n/a	blue
102.5737	1.0167	ITI	n/a	n/a	n/a	n/a	n/a	n/a	n/a	n/a
103.5904	0.5167	FIXCROSS	n/a	n/a	n/a	n/a	n/a	n/a	n/a	n/a
104.1071	0.6	INK	28	Incongruent	niebieski	blue	zielony	green	hit	n/a
104.682	n/a	RESPONSE	n/a	n/a	n/a	n/a	n/a	n/a	n/a	green
104.7071	1.0167	ITI	n/a	n/a	n/a	n/a	n/a	n/a	n/a	n/a
105.7238	0.5333	FIXCROSS	n/a	n/a	n/a	n/a	n/a	n/a	n/a	n/a
106.2571	0.6333	INK	29	Neutral	xxxxxxxx	xxxxxxxx	niebieski	blue	hit	n/a
106.8561	n/a	RESPONSE	n/a	n/a	n/a	n/a	n/a	n/a	n/a	blue
106.8904	1.0167	ITI	n/a	n/a	n/a	n/a	n/a	n/a	n/a	n/a
107.9071	0.5167	FIXCROSS	n/a	n/a	n/a	n/a	n/a	n/a	n/a	n/a
108.4238	0.6833	INK	30	Neutral	xxxxxxxxx	xxxxxxxxx	czerwony	red	hit	n/a
109.0783	n/a	RESPONSE	n/a	n/a	n/a	n/a	n/a	n/a	n/a	red
109.1071	1.0167	ITI	n/a	n/a	n/a	n/a	n/a	n/a	n/a	n/a
110.1238	0.5167	FIXCROSS	n/a	n/a	n/a	n/a	n/a	n/a	n/a	n/a
110.6405	0.6	INK	31	Incongruent	niebieski	blue	czerwony	red	hit	n/a
111.2046	n/a	RESPONSE	n/a	n/a	n/a	n/a	n/a	n/a	n/a	red
111.2405	1.0167	ITI	n/a	n/a	n/a	n/a	n/a	n/a	n/a	n/a
112.2572	0.5167	FIXCROSS	n/a	n/a	n/a	n/a	n/a	n/a	n/a	n/a
112.7738	0.6167	INK	32	Neutral	xxxxxxxxx	xxxxxxxxx	żółty	yellow	hit	n/a
113.3628	n/a	RESPONSE	n/a	n/a	n/a	n/a	n/a	n/a	n/a	yellow
113.3905	1.0167	ITI	n/a	n/a	n/a	n/a	n/a	n/a	n/a	n/a
114.4072	0.5167	FIXCROSS	n/a	n/a	n/a	n/a	n/a	n/a	n/a	n/a
114.9239	0.4667	INK	33	Neutral	xxxxxxx	xxxxxxx	żółty	yellow	hit	n/a
115.3611	n/a	RESPONSE	n/a	n/a	n/a	n/a	n/a	n/a	n/a	yellow
115.3905	1.0167	ITI	n/a	n/a	n/a	n/a	n/a	n/a	n/a	n/a
116.4072	0.5167	FIXCROSS	n/a	n/a	n/a	n/a	n/a	n/a	n/a	n/a
116.9239	0.5334	INK	34	Incongruent	niebieski	blue	żółty	yellow	hit	n/a
117.4234	n/a	RESPONSE	n/a	n/a	n/a	n/a	n/a	n/a	n/a	yellow
117.4572	1.0167	ITI	n/a	n/a	n/a	n/a	n/a	n/a	n/a	n/a
118.4739	0.5167	FIXCROSS	n/a	n/a	n/a	n/a	n/a	n/a	n/a	n/a
118.9906	0.5833	INK	35	Incongruent	czerwony	red	niebieski	blue	hit	n/a
119.5497	n/a	RESPONSE	n/a	n/a	n/a	n/a	n/a	n/a	n/a	blue
119.5739	1.0167	ITI	n/a	n/a	n/a	n/a	n/a	n/a	n/a	n/a
120.5906	0.5167	FIXCROSS	n/a	n/a	n/a	n/a	n/a	n/a	n/a	n/a
121.1073	0.45	INK	36	Neutral	xxxxxxx	xxxxxxx	niebieski	blue	hit	n/a
121.5321	n/a	RESPONSE	n/a	n/a	n/a	n/a	n/a	n/a	n/a	blue
121.5573	1.0167	ITI	n/a	n/a	n/a	n/a	n/a	n/a	n/a	n/a
122.574	0.5333	FIXCROSS	n/a	n/a	n/a	n/a	n/a	n/a	n/a	n/a
123.1073	0.5	INK	37	Incongruent	żółty	yellow	niebieski	blue	hit	n/a
123.5783	n/a	RESPONSE	n/a	n/a	n/a	n/a	n/a	n/a	n/a	blue
123.6073	1.0167	ITI	n/a	n/a	n/a	n/a	n/a	n/a	n/a	n/a
124.624	0.5167	FIXCROSS	n/a	n/a	n/a	n/a	n/a	n/a	n/a	n/a
125.1406	0.6667	INK	38	Incongruent	niebieski	blue	żółty	yellow	hit	n/a
125.7686	n/a	RESPONSE	n/a	n/a	n/a	n/a	n/a	n/a	n/a	yellow
125.8073	1.0167	ITI	n/a	n/a	n/a	n/a	n/a	n/a	n/a	n/a
126.824	0.5167	FIXCROSS	n/a	n/a	n/a	n/a	n/a	n/a	n/a	n/a
127.3407	0.6167	INK	39	Neutral	xxxxx	xxxxx	niebieski	blue	hit	n/a
127.9268	n/a	RESPONSE	n/a	n/a	n/a	n/a	n/a	n/a	n/a	blue
127.9573	1.0167	ITI	n/a	n/a	n/a	n/a	n/a	n/a	n/a	n/a
128.974	0.5167	FIXCROSS	n/a	n/a	n/a	n/a	n/a	n/a	n/a	n/a
129.4907	0.5833	INK	40	Incongruent	żółty	yellow	zielony	green	hit	n/a
130.037	n/a	RESPONSE	n/a	n/a	n/a	n/a	n/a	n/a	n/a	green
130.074	1.0333	ITI	n/a	n/a	n/a	n/a	n/a	n/a	n/a	n/a
131.1074	0.5167	FIXCROSS	n/a	n/a	n/a	n/a	n/a	n/a	n/a	n/a
131.6241	0.4167	INK	41	Incongruent	żółty	yellow	zielony	green	hit	n/a
132.0034	n/a	RESPONSE	n/a	n/a	n/a	n/a	n/a	n/a	n/a	green
132.0407	1.0167	ITI	n/a	n/a	n/a	n/a	n/a	n/a	n/a	n/a
133.0574	0.5167	FIXCROSS	n/a	n/a	n/a	n/a	n/a	n/a	n/a	n/a
133.5741	0.55	INK	42	Incongruent	niebieski	blue	żółty	yellow	hit	n/a
134.0978	n/a	RESPONSE	n/a	n/a	n/a	n/a	n/a	n/a	n/a	yellow
134.1241	1.0167	ITI	n/a	n/a	n/a	n/a	n/a	n/a	n/a	n/a
135.1408	0.5167	FIXCROSS	n/a	n/a	n/a	n/a	n/a	n/a	n/a	n/a
135.6574	0.5	INK	43	Neutral	xxxxxxxxx	xxxxxxxxx	czerwony	red	hit	n/a
136.1281	n/a	RESPONSE	n/a	n/a	n/a	n/a	n/a	n/a	n/a	red
136.1574	1.0167	ITI	n/a	n/a	n/a	n/a	n/a	n/a	n/a	n/a
137.1741	0.5167	FIXCROSS	n/a	n/a	n/a	n/a	n/a	n/a	n/a	n/a
137.6908	0.4833	INK	44	Neutral	xxxxxxxx	xxxxxxxx	żółty	yellow	hit	n/a
138.1425	n/a	RESPONSE	n/a	n/a	n/a	n/a	n/a	n/a	n/a	yellow
138.1741	1.0167	ITI	n/a	n/a	n/a	n/a	n/a	n/a	n/a	n/a
139.1908	0.5167	FIXCROSS	n/a	n/a	n/a	n/a	n/a	n/a	n/a	n/a
139.7075	0.4833	INK	45	Incongruent	żółty	yellow	zielony	green	hit	n/a
140.1567	n/a	RESPONSE	n/a	n/a	n/a	n/a	n/a	n/a	n/a	green
140.1908	1.0167	ITI	n/a	n/a	n/a	n/a	n/a	n/a	n/a	n/a
141.2075	0.5167	FIXCROSS	n/a	n/a	n/a	n/a	n/a	n/a	n/a	n/a
141.7242	0.6	INK	46	Neutral	xxxxxxxx	xxxxxxxx	zielony	green	hit	n/a
142.2989	n/a	RESPONSE	n/a	n/a	n/a	n/a	n/a	n/a	n/a	green
142.3242	1.0167	ITI	n/a	n/a	n/a	n/a	n/a	n/a	n/a	n/a
143.3409	0.5167	FIXCROSS	n/a	n/a	n/a	n/a	n/a	n/a	n/a	n/a
143.8575	0.5667	INK	47	Incongruent	zielony	green	niebieski	blue	hit	n/a
144.3933	n/a	RESPONSE	n/a	n/a	n/a	n/a	n/a	n/a	n/a	blue
144.4242	1.0167	ITI	n/a	n/a	n/a	n/a	n/a	n/a	n/a	n/a
145.4409	0.5167	FIXCROSS	n/a	n/a	n/a	n/a	n/a	n/a	n/a	n/a
145.9576	0.4667	INK	48	Incongruent	żółty	yellow	niebieski	blue	hit	n/a
146.3917	n/a	RESPONSE	n/a	n/a	n/a	n/a	n/a	n/a	n/a	blue
146.4242	1.0167	ITI	n/a	n/a	n/a	n/a	n/a	n/a	n/a	n/a
147.4409	0.5167	FIXCROSS	n/a	n/a	n/a	n/a	n/a	n/a	n/a	n/a
147.9576	0.4667	INK	49	Neutral	xxxxx	xxxxx	czerwony	red	hit	n/a
148.3899	n/a	RESPONSE	n/a	n/a	n/a	n/a	n/a	n/a	n/a	red
148.4243	1.0167	ITI	n/a	n/a	n/a	n/a	n/a	n/a	n/a	n/a
149.4409	0.5167	FIXCROSS	n/a	n/a	n/a	n/a	n/a	n/a	n/a	n/a
149.9576	0.55	INK	50	Incongruent	zielony	green	czerwony	red	hit	n/a
150.4682	n/a	RESPONSE	n/a	n/a	n/a	n/a	n/a	n/a	n/a	red
150.5076	1.0334	ITI	n/a	n/a	n/a	n/a	n/a	n/a	n/a	n/a
151.541	0.5167	FIXCROSS	n/a	n/a	n/a	n/a	n/a	n/a	n/a	n/a
152.0576	0.5167	INK	51	Neutral	xxxxxxx	xxxxxxx	żółty	yellow	hit	n/a
152.5466	n/a	RESPONSE	n/a	n/a	n/a	n/a	n/a	n/a	n/a	yellow
152.5743	1.0167	ITI	n/a	n/a	n/a	n/a	n/a	n/a	n/a	n/a
153.591	0.5167	FIXCROSS	n/a	n/a	n/a	n/a	n/a	n/a	n/a	n/a
154.1077	0.5333	INK	52	Neutral	xxxxxxxxx	xxxxxxxxx	zielony	green	hit	n/a
154.6088	n/a	RESPONSE	n/a	n/a	n/a	n/a	n/a	n/a	n/a	green
154.641	1.0167	ITI	n/a	n/a	n/a	n/a	n/a	n/a	n/a	n/a
155.6577	0.5167	FIXCROSS	n/a	n/a	n/a	n/a	n/a	n/a	n/a	n/a
156.1743	0.4833	INK	53	Incongruent	czerwony	red	żółty	yellow	hit	n/a
156.6232	n/a	RESPONSE	n/a	n/a	n/a	n/a	n/a	n/a	n/a	yellow
156.6577	1.0333	ITI	n/a	n/a	n/a	n/a	n/a	n/a	n/a	n/a
157.691	0.5167	FIXCROSS	n/a	n/a	n/a	n/a	n/a	n/a	n/a	n/a
158.2077	0.5833	INK	54	Incongruent	niebieski	blue	czerwony	red	hit	n/a
158.7654	n/a	RESPONSE	n/a	n/a	n/a	n/a	n/a	n/a	n/a	red
158.791	1.0167	ITI	n/a	n/a	n/a	n/a	n/a	n/a	n/a	n/a
159.8077	0.5167	FIXCROSS	n/a	n/a	n/a	n/a	n/a	n/a	n/a	n/a
160.3244	0.45	INK	55	Neutral	xxxxxxx	xxxxxxx	niebieski	blue	hit	n/a
160.7478	n/a	RESPONSE	n/a	n/a	n/a	n/a	n/a	n/a	n/a	blue
160.7744	1.0167	ITI	n/a	n/a	n/a	n/a	n/a	n/a	n/a	n/a
161.7911	0.5167	FIXCROSS	n/a	n/a	n/a	n/a	n/a	n/a	n/a	n/a
162.3078	0.4333	INK	56	Incongruent	zielony	green	niebieski	blue	hit	n/a
162.7142	n/a	RESPONSE	n/a	n/a	n/a	n/a	n/a	n/a	n/a	blue
162.7411	1.0333	ITI	n/a	n/a	n/a	n/a	n/a	n/a	n/a	n/a
163.7744	0.5167	FIXCROSS	n/a	n/a	n/a	n/a	n/a	n/a	n/a	n/a
164.2911	0.6667	INK	57	Incongruent	zielony	green	żółty	yellow	hit	n/a
164.9204	n/a	RESPONSE	n/a	n/a	n/a	n/a	n/a	n/a	n/a	yellow
164.9578	1.0167	ITI	n/a	n/a	n/a	n/a	n/a	n/a	n/a	n/a
165.9745	0.5167	FIXCROSS	n/a	n/a	n/a	n/a	n/a	n/a	n/a	n/a
166.4911	0.6	INK	58	Incongruent	czerwony	red	zielony	green	hit	n/a
167.0626	n/a	RESPONSE	n/a	n/a	n/a	n/a	n/a	n/a	n/a	green
167.0912	1.0333	ITI	n/a	n/a	n/a	n/a	n/a	n/a	n/a	n/a
168.1245	0.5167	FIXCROSS	n/a	n/a	n/a	n/a	n/a	n/a	n/a	n/a
168.6412	0.65	INK	59	Neutral	xxxxxxxx	xxxxxxxx	niebieski	blue	hit	n/a
169.2527	n/a	RESPONSE	n/a	n/a	n/a	n/a	n/a	n/a	n/a	blue
169.2912	1.0167	ITI	n/a	n/a	n/a	n/a	n/a	n/a	n/a	n/a
170.3078	0.5333	FIXCROSS	n/a	n/a	n/a	n/a	n/a	n/a	n/a	n/a
170.8412	0.6	INK	60	Incongruent	żółty	yellow	czerwony	red	hit	n/a
171.411	n/a	RESPONSE	n/a	n/a	n/a	n/a	n/a	n/a	n/a	red
171.4412	1.0167	ITI	n/a	n/a	n/a	n/a	n/a	n/a	n/a	n/a
172.4579	0.5167	FIXCROSS	n/a	n/a	n/a	n/a	n/a	n/a	n/a	n/a
172.9745	0.7333	INK	61	Incongruent	czerwony	red	żółty	yellow	hit	n/a
173.6812	n/a	RESPONSE	n/a	n/a	n/a	n/a	n/a	n/a	n/a	yellow
173.7079	1.0167	ITI	n/a	n/a	n/a	n/a	n/a	n/a	n/a	n/a
174.7246	0.5333	FIXCROSS	n/a	n/a	n/a	n/a	n/a	n/a	n/a	n/a
175.2579	0.5333	INK	62	Neutral	xxxxx	xxxxx	zielony	green	hit	n/a
175.7595	n/a	RESPONSE	n/a	n/a	n/a	n/a	n/a	n/a	n/a	green
175.7912	1.0333	ITI	n/a	n/a	n/a	n/a	n/a	n/a	n/a	n/a
176.8246	0.5167	FIXCROSS	n/a	n/a	n/a	n/a	n/a	n/a	n/a	n/a
177.3413	0.6	INK	63	Neutral	xxxxx	xxxxx	niebieski	blue	hit	n/a
177.9017	n/a	RESPONSE	n/a	n/a	n/a	n/a	n/a	n/a	n/a	blue
177.9413	1.0167	ITI	n/a	n/a	n/a	n/a	n/a	n/a	n/a	n/a
178.958	0.5167	FIXCROSS	n/a	n/a	n/a	n/a	n/a	n/a	n/a	n/a
179.4746	0.6	INK	64	Neutral	xxxxxxxx	xxxxxxxx	żółty	yellow	hit	n/a
180.0439	n/a	RESPONSE	n/a	n/a	n/a	n/a	n/a	n/a	n/a	yellow
180.0746	1.0167	ITI	n/a	n/a	n/a	n/a	n/a	n/a	n/a	n/a
181.0913	0.5167	FIXCROSS	n/a	n/a	n/a	n/a	n/a	n/a	n/a	n/a
181.608	0.5333	INK	65	Incongruent	czerwony	red	zielony	green	hit	n/a
182.1062	n/a	RESPONSE	n/a	n/a	n/a	n/a	n/a	n/a	n/a	green
182.1413	1.0167	ITI	n/a	n/a	n/a	n/a	n/a	n/a	n/a	n/a
183.158	0.5167	FIXCROSS	n/a	n/a	n/a	n/a	n/a	n/a	n/a	n/a
183.6747	0.5667	INK	66	Incongruent	niebieski	blue	zielony	green	hit	n/a
184.2165	n/a	RESPONSE	n/a	n/a	n/a	n/a	n/a	n/a	n/a	green
184.2414	1.0333	ITI	n/a	n/a	n/a	n/a	n/a	n/a	n/a	n/a
185.2747	0.5167	FIXCROSS	n/a	n/a	n/a	n/a	n/a	n/a	n/a	n/a
185.7914	0.5667	INK	67	Neutral	xxxxxxxxx	xxxxxxxxx	żółty	yellow	hit	n/a
186.3267	n/a	RESPONSE	n/a	n/a	n/a	n/a	n/a	n/a	n/a	yellow
186.358	1.0167	ITI	n/a	n/a	n/a	n/a	n/a	n/a	n/a	n/a
187.3747	0.5167	FIXCROSS	n/a	n/a	n/a	n/a	n/a	n/a	n/a	n/a
187.8914	0.5333	INK	68	Neutral	xxxxxxx	xxxxxxx	czerwony	red	hit	n/a
188.3891	n/a	RESPONSE	n/a	n/a	n/a	n/a	n/a	n/a	n/a	red
188.4247	1.0167	ITI	n/a	n/a	n/a	n/a	n/a	n/a	n/a	n/a
189.4414	0.5167	FIXCROSS	n/a	n/a	n/a	n/a	n/a	n/a	n/a	n/a
189.9581	0.5333	INK	69	Neutral	xxxxx	xxxxx	zielony	green	hit	n/a
190.4673	n/a	RESPONSE	n/a	n/a	n/a	n/a	n/a	n/a	n/a	green
190.4914	1.0333	ITI	n/a	n/a	n/a	n/a	n/a	n/a	n/a	n/a
191.5248	0.5167	FIXCROSS	n/a	n/a	n/a	n/a	n/a	n/a	n/a	n/a
192.0414	0.4	INK	70	Neutral	xxxxx	xxxxx	niebieski	blue	hit	n/a
192.4178	n/a	RESPONSE	n/a	n/a	n/a	n/a	n/a	n/a	n/a	blue
192.4414	1.0334	ITI	n/a	n/a	n/a	n/a	n/a	n/a	n/a	n/a
193.4748	0.5333	FIXCROSS	n/a	n/a	n/a	n/a	n/a	n/a	n/a	n/a
194.0081	0.4833	INK	71	Neutral	xxxxx	xxxxx	zielony	green	hit	n/a
194.4641	n/a	RESPONSE	n/a	n/a	n/a	n/a	n/a	n/a	n/a	green
194.4915	1.0167	ITI	n/a	n/a	n/a	n/a	n/a	n/a	n/a	n/a
195.5082	0.5167	FIXCROSS	n/a	n/a	n/a	n/a	n/a	n/a	n/a	n/a
196.0248	0.5167	INK	72	Incongruent	niebieski	blue	czerwony	red	hit	n/a
196.5104	n/a	RESPONSE	n/a	n/a	n/a	n/a	n/a	n/a	n/a	red
196.5415	1.0834	ITI	n/a	n/a	n/a	n/a	n/a	n/a	n/a	n/a
207.3975	n/a	RESPONSE	n/a	n/a	n/a	n/a	n/a	n/a	n/a	n/a
207.4583	1.0333	ITI	n/a	n/a	n/a	n/a	n/a	n/a	n/a	n/a
208.4916	0.5333	FIXCROSS	n/a	n/a	n/a	n/a	n/a	n/a	n/a	n/a
209.025	1.15	T_COLOR_NAME	1	Incongruent	zielony	green	żółty	yellow	hit	n/a
210.1312	n/a	RESPONSE	n/a	n/a	n/a	n/a	n/a	n/a	n/a	green
210.175	0.5167	FEEDBACK	n/a	n/a	n/a	n/a	n/a	n/a	n/a	n/a
210.6917	1.0167	ITI	n/a	n/a	n/a	n/a	n/a	n/a	n/a	n/a
211.7083	0.5333	FIXCROSS	n/a	n/a	n/a	n/a	n/a	n/a	n/a	n/a
212.2417	0.7334	T_COLOR_NAME	2	Incongruent	czerwony	red	niebieski	blue	hit	n/a
212.9449	n/a	RESPONSE	n/a	n/a	n/a	n/a	n/a	n/a	n/a	red
212.975	0.5167	FEEDBACK	n/a	n/a	n/a	n/a	n/a	n/a	n/a	n/a
213.4917	1.0333	ITI	n/a	n/a	n/a	n/a	n/a	n/a	n/a	n/a
214.525	0.5167	FIXCROSS	n/a	n/a	n/a	n/a	n/a	n/a	n/a	n/a
215.0417	0.6833	T_COLOR_NAME	3	Incongruent	czerwony	red	żółty	yellow	hit	n/a
215.6947	n/a	RESPONSE	n/a	n/a	n/a	n/a	n/a	n/a	n/a	red
215.7251	0.5167	FEEDBACK	n/a	n/a	n/a	n/a	n/a	n/a	n/a	n/a
216.2417	1.0167	ITI	n/a	n/a	n/a	n/a	n/a	n/a	n/a	n/a
217.2584	0.5333	FIXCROSS	n/a	n/a	n/a	n/a	n/a	n/a	n/a	n/a
217.7917	0.5667	T_COLOR_NAME	4	Incongruent	niebieski	blue	zielony	green	hit	n/a
218.3324	n/a	RESPONSE	n/a	n/a	n/a	n/a	n/a	n/a	n/a	blue
218.3584	0.5167	FEEDBACK	n/a	n/a	n/a	n/a	n/a	n/a	n/a	n/a
218.8751	1.0333	ITI	n/a	n/a	n/a	n/a	n/a	n/a	n/a	n/a
219.9084	0.5167	FIXCROSS	n/a	n/a	n/a	n/a	n/a	n/a	n/a	n/a
220.4251	0.5167	T_COLOR_NAME	5	Incongruent	niebieski	blue	żółty	yellow	hit	n/a
220.9063	n/a	RESPONSE	n/a	n/a	n/a	n/a	n/a	n/a	n/a	blue
220.9418	0.5167	FEEDBACK	n/a	n/a	n/a	n/a	n/a	n/a	n/a	n/a
221.4585	1.0167	ITI	n/a	n/a	n/a	n/a	n/a	n/a	n/a	n/a
222.4751	0.5167	FIXCROSS	n/a	n/a	n/a	n/a	n/a	n/a	n/a	n/a
222.9918	0.6333	T_COLOR_NAME	6	Incongruent	czerwony	red	zielony	green	hit	n/a
223.5921	n/a	RESPONSE	n/a	n/a	n/a	n/a	n/a	n/a	n/a	red
223.6252	0.5167	FEEDBACK	n/a	n/a	n/a	n/a	n/a	n/a	n/a	n/a
224.1418	1.0167	ITI	n/a	n/a	n/a	n/a	n/a	n/a	n/a	n/a
225.1585	0.5167	FIXCROSS	n/a	n/a	n/a	n/a	n/a	n/a	n/a	n/a
225.6752	0.5333	T_COLOR_NAME	7	Neutral	niebieski	blue	Neutral	Neutral	hit	n/a
226.182	n/a	RESPONSE	n/a	n/a	n/a	n/a	n/a	n/a	n/a	blue
226.2085	0.5167	FEEDBACK	n/a	n/a	n/a	n/a	n/a	n/a	n/a	n/a
226.7252	1.0333	ITI	n/a	n/a	n/a	n/a	n/a	n/a	n/a	n/a
227.7585	0.5167	FIXCROSS	n/a	n/a	n/a	n/a	n/a	n/a	n/a	n/a
228.2752	0.4333	T_COLOR_NAME	8	Neutral	niebieski	blue	Neutral	Neutral	hit	n/a
228.6759	n/a	RESPONSE	n/a	n/a	n/a	n/a	n/a	n/a	n/a	blue
228.7085	0.5167	FEEDBACK	n/a	n/a	n/a	n/a	n/a	n/a	n/a	n/a
229.2252	1.0167	ITI	n/a	n/a	n/a	n/a	n/a	n/a	n/a	n/a
230.2419	0.5333	FIXCROSS	n/a	n/a	n/a	n/a	n/a	n/a	n/a	n/a
230.7752	0.7167	T_COLOR_NAME	9	Neutral	żółty	yellow	Neutral	Neutral	hit	n/a
231.4577	n/a	RESPONSE	n/a	n/a	n/a	n/a	n/a	n/a	n/a	yellow
231.4919	0.5167	FEEDBACK	n/a	n/a	n/a	n/a	n/a	n/a	n/a	n/a
232.0086	1.0167	ITI	n/a	n/a	n/a	n/a	n/a	n/a	n/a	n/a
233.0253	0.5167	FIXCROSS	n/a	n/a	n/a	n/a	n/a	n/a	n/a	n/a
233.5419	0.5333	T_COLOR_NAME	10	Incongruent	żółty	yellow	czerwony	red	incorrect	n/a
234.0474	n/a	RESPONSE	n/a	n/a	n/a	n/a	n/a	n/a	n/a	red
234.0753	0.5167	FEEDBACK	n/a	n/a	n/a	n/a	n/a	n/a	n/a	n/a
234.5919	1.0167	ITI	n/a	n/a	n/a	n/a	n/a	n/a	n/a	n/a
235.6086	0.5167	FIXCROSS	n/a	n/a	n/a	n/a	n/a	n/a	n/a	n/a
236.1253	0.6	T_COLOR_NAME	11	Neutral	żółty	yellow	Neutral	Neutral	hit	n/a
236.7013	n/a	RESPONSE	n/a	n/a	n/a	n/a	n/a	n/a	n/a	yellow
236.7253	0.5167	FEEDBACK	n/a	n/a	n/a	n/a	n/a	n/a	n/a	n/a
237.242	1.0167	ITI	n/a	n/a	n/a	n/a	n/a	n/a	n/a	n/a
238.2587	0.5167	FIXCROSS	n/a	n/a	n/a	n/a	n/a	n/a	n/a	n/a
238.7753	0.5167	T_COLOR_NAME	12	Neutral	niebieski	blue	Neutral	Neutral	hit	n/a
239.2592	n/a	RESPONSE	n/a	n/a	n/a	n/a	n/a	n/a	n/a	blue
239.292	0.5167	FEEDBACK	n/a	n/a	n/a	n/a	n/a	n/a	n/a	n/a
239.8087	1.0333	ITI	n/a	n/a	n/a	n/a	n/a	n/a	n/a	n/a
244.1512	n/a	RESPONSE	n/a	n/a	n/a	n/a	n/a	n/a	n/a	n/a
244.2087	1.0333	ITI	n/a	n/a	n/a	n/a	n/a	n/a	n/a	n/a
245.2421	0.5167	FIXCROSS	n/a	n/a	n/a	n/a	n/a	n/a	n/a	n/a
245.7587	0.5667	COLOR_NAME	1	Neutral	niebieski	blue	Neutral	Neutral	hit	n/a
246.2934	n/a	RESPONSE	n/a	n/a	n/a	n/a	n/a	n/a	n/a	blue
246.3254	1.0333	ITI	n/a	n/a	n/a	n/a	n/a	n/a	n/a	n/a
247.3588	0.5333	FIXCROSS	n/a	n/a	n/a	n/a	n/a	n/a	n/a	n/a
247.8921	0.4	COLOR_NAME	2	Neutral	niebieski	blue	Neutral	Neutral	hit	n/a
248.2598	n/a	RESPONSE	n/a	n/a	n/a	n/a	n/a	n/a	n/a	blue
248.2921	1.0333	ITI	n/a	n/a	n/a	n/a	n/a	n/a	n/a	n/a
249.3255	0.5167	FIXCROSS	n/a	n/a	n/a	n/a	n/a	n/a	n/a	n/a
249.8421	0.4	COLOR_NAME	3	Neutral	niebieski	blue	Neutral	Neutral	hit	n/a
250.2102	n/a	RESPONSE	n/a	n/a	n/a	n/a	n/a	n/a	n/a	blue
250.2421	1.0167	ITI	n/a	n/a	n/a	n/a	n/a	n/a	n/a	n/a
251.2588	0.5333	FIXCROSS	n/a	n/a	n/a	n/a	n/a	n/a	n/a	n/a
251.7922	0.7667	COLOR_NAME	4	Incongruent	zielony	green	czerwony	red	hit	n/a
252.5283	n/a	RESPONSE	n/a	n/a	n/a	n/a	n/a	n/a	n/a	green
252.5588	1.0333	ITI	n/a	n/a	n/a	n/a	n/a	n/a	n/a	n/a
252.5923	n/a	RESPONSE	n/a	n/a	n/a	n/a	n/a	n/a	n/a	red
253.5922	0.5167	FIXCROSS	n/a	n/a	n/a	n/a	n/a	n/a	n/a	n/a
254.1088	0.6667	COLOR_NAME	5	Incongruent	zielony	green	niebieski	blue	hit	n/a
254.7505	n/a	RESPONSE	n/a	n/a	n/a	n/a	n/a	n/a	n/a	green
254.7755	1.0167	ITI	n/a	n/a	n/a	n/a	n/a	n/a	n/a	n/a
255.7922	0.5167	FIXCROSS	n/a	n/a	n/a	n/a	n/a	n/a	n/a	n/a
256.3089	0.6	COLOR_NAME	6	Neutral	niebieski	blue	Neutral	Neutral	hit	n/a
256.8767	n/a	RESPONSE	n/a	n/a	n/a	n/a	n/a	n/a	n/a	blue
256.9089	1.0167	ITI	n/a	n/a	n/a	n/a	n/a	n/a	n/a	n/a
257.9256	0.5167	FIXCROSS	n/a	n/a	n/a	n/a	n/a	n/a	n/a	n/a
258.4422	0.6167	COLOR_NAME	7	Neutral	czerwony	red	Neutral	Neutral	hit	n/a
259.0348	n/a	RESPONSE	n/a	n/a	n/a	n/a	n/a	n/a	n/a	red
259.0589	1.0333	ITI	n/a	n/a	n/a	n/a	n/a	n/a	n/a	n/a
260.0923	0.5167	FIXCROSS	n/a	n/a	n/a	n/a	n/a	n/a	n/a	n/a
260.6089	0.5167	COLOR_NAME	8	Neutral	czerwony	red	Neutral	Neutral	hit	n/a
261.0972	n/a	RESPONSE	n/a	n/a	n/a	n/a	n/a	n/a	n/a	red
261.1256	1.0167	ITI	n/a	n/a	n/a	n/a	n/a	n/a	n/a	n/a
262.1423	0.5167	FIXCROSS	n/a	n/a	n/a	n/a	n/a	n/a	n/a	n/a
262.6589	0.6167	COLOR_NAME	9	Incongruent	niebieski	blue	żółty	yellow	incorrect	n/a
263.2394	n/a	RESPONSE	n/a	n/a	n/a	n/a	n/a	n/a	n/a	yellow
263.2756	1.0167	ITI	n/a	n/a	n/a	n/a	n/a	n/a	n/a	n/a
264.2923	0.5167	FIXCROSS	n/a	n/a	n/a	n/a	n/a	n/a	n/a	n/a
264.809	0.65	COLOR_NAME	10	Incongruent	czerwony	red	niebieski	blue	hit	n/a
265.4297	n/a	RESPONSE	n/a	n/a	n/a	n/a	n/a	n/a	n/a	red
265.459	1.0334	ITI	n/a	n/a	n/a	n/a	n/a	n/a	n/a	n/a
266.4923	0.5167	FIXCROSS	n/a	n/a	n/a	n/a	n/a	n/a	n/a	n/a
267.009	0.4833	COLOR_NAME	11	Neutral	czerwony	red	Neutral	Neutral	hit	n/a
267.46	n/a	RESPONSE	n/a	n/a	n/a	n/a	n/a	n/a	n/a	red
267.4923	1.0334	ITI	n/a	n/a	n/a	n/a	n/a	n/a	n/a	n/a
268.5257	0.5167	FIXCROSS	n/a	n/a	n/a	n/a	n/a	n/a	n/a	n/a
269.0424	0.4833	COLOR_NAME	12	Incongruent	czerwony	red	niebieski	blue	hit	n/a
269.4903	n/a	RESPONSE	n/a	n/a	n/a	n/a	n/a	n/a	n/a	red
269.5257	1.0167	ITI	n/a	n/a	n/a	n/a	n/a	n/a	n/a	n/a
270.5424	0.5167	FIXCROSS	n/a	n/a	n/a	n/a	n/a	n/a	n/a	n/a
271.059	0.6	COLOR_NAME	13	Incongruent	zielony	green	niebieski	blue	hit	n/a
271.6325	n/a	RESPONSE	n/a	n/a	n/a	n/a	n/a	n/a	n/a	green
271.6591	1.0167	ITI	n/a	n/a	n/a	n/a	n/a	n/a	n/a	n/a
272.6757	0.5333	FIXCROSS	n/a	n/a	n/a	n/a	n/a	n/a	n/a	n/a
273.2091	0.8167	COLOR_NAME	14	Incongruent	czerwony	red	żółty	yellow	incorrect	n/a
273.9986	n/a	RESPONSE	n/a	n/a	n/a	n/a	n/a	n/a	n/a	yellow
274.0257	1.0167	ITI	n/a	n/a	n/a	n/a	n/a	n/a	n/a	n/a
275.0424	0.5167	FIXCROSS	n/a	n/a	n/a	n/a	n/a	n/a	n/a	n/a
275.5591	0.6833	COLOR_NAME	15	Incongruent	zielony	green	żółty	yellow	hit	n/a
276.2047	n/a	RESPONSE	n/a	n/a	n/a	n/a	n/a	n/a	n/a	green
276.2424	1.0333	ITI	n/a	n/a	n/a	n/a	n/a	n/a	n/a	n/a
277.2758	0.5334	FIXCROSS	n/a	n/a	n/a	n/a	n/a	n/a	n/a	n/a
277.8091	0.6	COLOR_NAME	16	Incongruent	zielony	green	czerwony	red	hit	n/a
278.379	n/a	RESPONSE	n/a	n/a	n/a	n/a	n/a	n/a	n/a	green
278.4091	1.0167	ITI	n/a	n/a	n/a	n/a	n/a	n/a	n/a	n/a
279.4258	0.5167	FIXCROSS	n/a	n/a	n/a	n/a	n/a	n/a	n/a	n/a
279.9425	0.6167	COLOR_NAME	17	Incongruent	niebieski	blue	zielony	green	hit	n/a
280.5212	n/a	RESPONSE	n/a	n/a	n/a	n/a	n/a	n/a	n/a	blue
280.5592	1.0333	ITI	n/a	n/a	n/a	n/a	n/a	n/a	n/a	n/a
281.5925	0.5167	FIXCROSS	n/a	n/a	n/a	n/a	n/a	n/a	n/a	n/a
282.1092	0.4833	COLOR_NAME	18	Incongruent	niebieski	blue	czerwony	red	hit	n/a
282.5675	n/a	RESPONSE	n/a	n/a	n/a	n/a	n/a	n/a	n/a	blue
282.5925	1.0167	ITI	n/a	n/a	n/a	n/a	n/a	n/a	n/a	n/a
283.6092	0.5167	FIXCROSS	n/a	n/a	n/a	n/a	n/a	n/a	n/a	n/a
284.1259	0.7333	COLOR_NAME	19	Incongruent	zielony	green	czerwony	red	hit	n/a
284.8217	n/a	RESPONSE	n/a	n/a	n/a	n/a	n/a	n/a	n/a	green
284.8592	1.0333	ITI	n/a	n/a	n/a	n/a	n/a	n/a	n/a	n/a
285.8925	0.5167	FIXCROSS	n/a	n/a	n/a	n/a	n/a	n/a	n/a	n/a
286.4092	0.45	COLOR_NAME	20	Neutral	zielony	green	Neutral	Neutral	hit	n/a
286.82	n/a	RESPONSE	n/a	n/a	n/a	n/a	n/a	n/a	n/a	green
286.8592	1.0167	ITI	n/a	n/a	n/a	n/a	n/a	n/a	n/a	n/a
287.8759	0.5167	FIXCROSS	n/a	n/a	n/a	n/a	n/a	n/a	n/a	n/a
288.3926	0.7333	COLOR_NAME	21	Incongruent	niebieski	blue	czerwony	red	hit	n/a
289.0901	n/a	RESPONSE	n/a	n/a	n/a	n/a	n/a	n/a	n/a	blue
289.1259	1.0333	ITI	n/a	n/a	n/a	n/a	n/a	n/a	n/a	n/a
290.1593	0.5167	FIXCROSS	n/a	n/a	n/a	n/a	n/a	n/a	n/a	n/a
290.6759	0.4833	COLOR_NAME	22	Neutral	niebieski	blue	Neutral	Neutral	hit	n/a
291.1206	n/a	RESPONSE	n/a	n/a	n/a	n/a	n/a	n/a	n/a	blue
291.1593	1.0167	ITI	n/a	n/a	n/a	n/a	n/a	n/a	n/a	n/a
292.176	0.5333	FIXCROSS	n/a	n/a	n/a	n/a	n/a	n/a	n/a	n/a
292.7093	1.65	COLOR_NAME	23	Incongruent	żółty	yellow	niebieski	blue	hit	n/a
294.3338	n/a	RESPONSE	n/a	n/a	n/a	n/a	n/a	n/a	n/a	yellow
294.3593	1.0167	ITI	n/a	n/a	n/a	n/a	n/a	n/a	n/a	n/a
295.376	0.5167	FIXCROSS	n/a	n/a	n/a	n/a	n/a	n/a	n/a	n/a
295.8927	0.5667	COLOR_NAME	24	Incongruent	niebieski	blue	zielony	green	hit	n/a
296.4282	n/a	RESPONSE	n/a	n/a	n/a	n/a	n/a	n/a	n/a	blue
296.4593	1.0167	ITI	n/a	n/a	n/a	n/a	n/a	n/a	n/a	n/a
297.476	0.5167	FIXCROSS	n/a	n/a	n/a	n/a	n/a	n/a	n/a	n/a
297.9927	0.7333	COLOR_NAME	25	Neutral	zielony	green	Neutral	Neutral	hit	n/a
298.6983	n/a	RESPONSE	n/a	n/a	n/a	n/a	n/a	n/a	n/a	green
298.726	1.0167	ITI	n/a	n/a	n/a	n/a	n/a	n/a	n/a	n/a
299.7427	0.5167	FIXCROSS	n/a	n/a	n/a	n/a	n/a	n/a	n/a	n/a
300.2594	0.7667	COLOR_NAME	26	Neutral	żółty	yellow	Neutral	Neutral	hit	n/a
301.0004	n/a	RESPONSE	n/a	n/a	n/a	n/a	n/a	n/a	n/a	yellow
301.0261	1.0333	ITI	n/a	n/a	n/a	n/a	n/a	n/a	n/a	n/a
302.0594	0.5167	FIXCROSS	n/a	n/a	n/a	n/a	n/a	n/a	n/a	n/a
302.5761	0.6333	COLOR_NAME	27	Incongruent	czerwony	red	żółty	yellow	hit	n/a
303.1746	n/a	RESPONSE	n/a	n/a	n/a	n/a	n/a	n/a	n/a	red
303.2094	1.0333	ITI	n/a	n/a	n/a	n/a	n/a	n/a	n/a	n/a
304.2428	0.5167	FIXCROSS	n/a	n/a	n/a	n/a	n/a	n/a	n/a	n/a
304.7594	0.8333	COLOR_NAME	28	Neutral	zielony	green	Neutral	Neutral	hit	n/a
305.5566	n/a	RESPONSE	n/a	n/a	n/a	n/a	n/a	n/a	n/a	green
305.5928	1.0333	ITI	n/a	n/a	n/a	n/a	n/a	n/a	n/a	n/a
306.6261	0.5167	FIXCROSS	n/a	n/a	n/a	n/a	n/a	n/a	n/a	n/a
307.1428	0.4667	COLOR_NAME	29	Neutral	zielony	green	Neutral	Neutral	hit	n/a
307.571	n/a	RESPONSE	n/a	n/a	n/a	n/a	n/a	n/a	n/a	green
307.6095	1.0167	ITI	n/a	n/a	n/a	n/a	n/a	n/a	n/a	n/a
308.6261	0.5167	FIXCROSS	n/a	n/a	n/a	n/a	n/a	n/a	n/a	n/a
309.1428	0.5167	COLOR_NAME	30	Incongruent	niebieski	blue	żółty	yellow	hit	n/a
309.6334	n/a	RESPONSE	n/a	n/a	n/a	n/a	n/a	n/a	n/a	blue
309.6595	1.0167	ITI	n/a	n/a	n/a	n/a	n/a	n/a	n/a	n/a
310.6762	0.5167	FIXCROSS	n/a	n/a	n/a	n/a	n/a	n/a	n/a	n/a
311.1928	0.9	COLOR_NAME	31	Neutral	żółty	yellow	Neutral	Neutral	hit	n/a
312.0633	n/a	RESPONSE	n/a	n/a	n/a	n/a	n/a	n/a	n/a	yellow
312.0929	1.0333	ITI	n/a	n/a	n/a	n/a	n/a	n/a	n/a	n/a
313.1262	0.5167	FIXCROSS	n/a	n/a	n/a	n/a	n/a	n/a	n/a	n/a
313.6429	0.7167	COLOR_NAME	32	Neutral	zielony	green	Neutral	Neutral	hit	n/a
314.3334	n/a	RESPONSE	n/a	n/a	n/a	n/a	n/a	n/a	n/a	green
314.3595	1.0333	ITI	n/a	n/a	n/a	n/a	n/a	n/a	n/a	n/a
315.3929	0.5167	FIXCROSS	n/a	n/a	n/a	n/a	n/a	n/a	n/a	n/a
315.9096	0.4667	COLOR_NAME	33	Incongruent	zielony	green	żółty	yellow	hit	n/a
316.3478	n/a	RESPONSE	n/a	n/a	n/a	n/a	n/a	n/a	n/a	green
316.3762	1.0167	ITI	n/a	n/a	n/a	n/a	n/a	n/a	n/a	n/a
317.3929	0.5167	FIXCROSS	n/a	n/a	n/a	n/a	n/a	n/a	n/a	n/a
317.9096	0.55	COLOR_NAME	34	Neutral	czerwony	red	Neutral	Neutral	hit	n/a
318.426	n/a	RESPONSE	n/a	n/a	n/a	n/a	n/a	n/a	n/a	red
318.4596	1.0333	ITI	n/a	n/a	n/a	n/a	n/a	n/a	n/a	n/a
319.4929	0.5167	FIXCROSS	n/a	n/a	n/a	n/a	n/a	n/a	n/a	n/a
320.0096	0.4167	COLOR_NAME	35	Neutral	czerwony	red	Neutral	Neutral	hit	n/a
320.3924	n/a	RESPONSE	n/a	n/a	n/a	n/a	n/a	n/a	n/a	red
320.4263	1.0334	ITI	n/a	n/a	n/a	n/a	n/a	n/a	n/a	n/a
321.4596	0.5333	FIXCROSS	n/a	n/a	n/a	n/a	n/a	n/a	n/a	n/a
321.993	0.6833	COLOR_NAME	36	Neutral	żółty	yellow	Neutral	Neutral	hit	n/a
322.6466	n/a	RESPONSE	n/a	n/a	n/a	n/a	n/a	n/a	n/a	yellow
322.6763	1.0167	ITI	n/a	n/a	n/a	n/a	n/a	n/a	n/a	n/a
323.693	0.5167	FIXCROSS	n/a	n/a	n/a	n/a	n/a	n/a	n/a	n/a
324.2097	0.65	COLOR_NAME	37	Incongruent	czerwony	red	zielony	green	hit	n/a
324.8207	n/a	RESPONSE	n/a	n/a	n/a	n/a	n/a	n/a	n/a	red
324.8597	1.0167	ITI	n/a	n/a	n/a	n/a	n/a	n/a	n/a	n/a
325.8763	0.5167	FIXCROSS	n/a	n/a	n/a	n/a	n/a	n/a	n/a	n/a
326.393	0.7167	COLOR_NAME	38	Neutral	żółty	yellow	Neutral	Neutral	hit	n/a
327.075	n/a	RESPONSE	n/a	n/a	n/a	n/a	n/a	n/a	n/a	yellow
327.1097	1.0167	ITI	n/a	n/a	n/a	n/a	n/a	n/a	n/a	n/a
328.1264	0.5167	FIXCROSS	n/a	n/a	n/a	n/a	n/a	n/a	n/a	n/a
328.6431	0.7167	COLOR_NAME	39	Neutral	niebieski	blue	Neutral	Neutral	hit	n/a
329.3291	n/a	RESPONSE	n/a	n/a	n/a	n/a	n/a	n/a	n/a	blue
329.3597	1.0167	ITI	n/a	n/a	n/a	n/a	n/a	n/a	n/a	n/a
330.3764	0.5167	FIXCROSS	n/a	n/a	n/a	n/a	n/a	n/a	n/a	n/a
330.8931	0.7333	COLOR_NAME	40	Neutral	czerwony	red	Neutral	Neutral	hit	n/a
331.5993	n/a	RESPONSE	n/a	n/a	n/a	n/a	n/a	n/a	n/a	red
331.6264	1.0167	ITI	n/a	n/a	n/a	n/a	n/a	n/a	n/a	n/a
332.6431	0.5167	FIXCROSS	n/a	n/a	n/a	n/a	n/a	n/a	n/a	n/a
333.1598	0.6333	COLOR_NAME	41	Incongruent	żółty	yellow	niebieski	blue	incorrect	n/a
333.7574	n/a	RESPONSE	n/a	n/a	n/a	n/a	n/a	n/a	n/a	blue
333.7931	1.0167	ITI	n/a	n/a	n/a	n/a	n/a	n/a	n/a	n/a
334.8098	0.5167	FIXCROSS	n/a	n/a	n/a	n/a	n/a	n/a	n/a	n/a
335.3265	0.7667	COLOR_NAME	42	Incongruent	czerwony	red	żółty	yellow	incorrect	n/a
336.0595	n/a	RESPONSE	n/a	n/a	n/a	n/a	n/a	n/a	n/a	yellow
336.0931	1.0167	ITI	n/a	n/a	n/a	n/a	n/a	n/a	n/a	n/a
337.1098	0.5167	FIXCROSS	n/a	n/a	n/a	n/a	n/a	n/a	n/a	n/a
337.6265	0.7	COLOR_NAME	43	Incongruent	żółty	yellow	czerwony	red	hit	n/a
338.2978	n/a	RESPONSE	n/a	n/a	n/a	n/a	n/a	n/a	n/a	yellow
338.3265	1.0334	ITI	n/a	n/a	n/a	n/a	n/a	n/a	n/a	n/a
339.3598	0.5167	FIXCROSS	n/a	n/a	n/a	n/a	n/a	n/a	n/a	n/a
339.8765	0.4833	COLOR_NAME	44	Neutral	żółty	yellow	Neutral	Neutral	hit	n/a
340.328	n/a	RESPONSE	n/a	n/a	n/a	n/a	n/a	n/a	n/a	yellow
340.3598	1.0167	ITI	n/a	n/a	n/a	n/a	n/a	n/a	n/a	n/a
341.3765	0.5167	FIXCROSS	n/a	n/a	n/a	n/a	n/a	n/a	n/a	n/a
341.8932	0.7667	COLOR_NAME	45	Incongruent	niebieski	blue	żółty	yellow	hit	n/a
342.6302	n/a	RESPONSE	n/a	n/a	n/a	n/a	n/a	n/a	n/a	blue
342.6599	1.0167	ITI	n/a	n/a	n/a	n/a	n/a	n/a	n/a	n/a
343.6766	0.5167	FIXCROSS	n/a	n/a	n/a	n/a	n/a	n/a	n/a	n/a
344.1932	0.8	COLOR_NAME	46	Neutral	zielony	green	Neutral	Neutral	hit	n/a
344.9642	n/a	RESPONSE	n/a	n/a	n/a	n/a	n/a	n/a	n/a	green
344.9932	1.0333	ITI	n/a	n/a	n/a	n/a	n/a	n/a	n/a	n/a
346.0266	0.5167	FIXCROSS	n/a	n/a	n/a	n/a	n/a	n/a	n/a	n/a
346.5433	0.4667	COLOR_NAME	47	Incongruent	zielony	green	niebieski	blue	hit	n/a
346.9786	n/a	RESPONSE	n/a	n/a	n/a	n/a	n/a	n/a	n/a	green
347.0099	1.0167	ITI	n/a	n/a	n/a	n/a	n/a	n/a	n/a	n/a
348.0266	0.5167	FIXCROSS	n/a	n/a	n/a	n/a	n/a	n/a	n/a	n/a
348.5433	0.6833	COLOR_NAME	48	Neutral	żółty	yellow	Neutral	Neutral	hit	n/a
349.2007	n/a	RESPONSE	n/a	n/a	n/a	n/a	n/a	n/a	n/a	yellow
349.2266	1.0333	ITI	n/a	n/a	n/a	n/a	n/a	n/a	n/a	n/a
350.26	0.5167	FIXCROSS	n/a	n/a	n/a	n/a	n/a	n/a	n/a	n/a
350.7766	0.5	COLOR_NAME	49	Neutral	żółty	yellow	Neutral	Neutral	hit	n/a
351.247	n/a	RESPONSE	n/a	n/a	n/a	n/a	n/a	n/a	n/a	yellow
351.2767	1.0167	ITI	n/a	n/a	n/a	n/a	n/a	n/a	n/a	n/a
352.2933	0.5167	FIXCROSS	n/a	n/a	n/a	n/a	n/a	n/a	n/a	n/a
352.81	0.6834	COLOR_NAME	50	Incongruent	żółty	yellow	czerwony	red	hit	n/a
353.4692	n/a	RESPONSE	n/a	n/a	n/a	n/a	n/a	n/a	n/a	yellow
353.4933	1.0167	ITI	n/a	n/a	n/a	n/a	n/a	n/a	n/a	n/a
354.51	0.5167	FIXCROSS	n/a	n/a	n/a	n/a	n/a	n/a	n/a	n/a
355.0267	0.65	COLOR_NAME	51	Incongruent	niebieski	blue	czerwony	red	hit	n/a
355.6434	n/a	RESPONSE	n/a	n/a	n/a	n/a	n/a	n/a	n/a	blue
355.6767	1.0167	ITI	n/a	n/a	n/a	n/a	n/a	n/a	n/a	n/a
356.6934	0.5167	FIXCROSS	n/a	n/a	n/a	n/a	n/a	n/a	n/a	n/a
357.21	1.0667	COLOR_NAME	52	Incongruent	żółty	yellow	zielony	green	hit	n/a
358.2492	n/a	RESPONSE	n/a	n/a	n/a	n/a	n/a	n/a	n/a	yellow
358.2767	1.0167	ITI	n/a	n/a	n/a	n/a	n/a	n/a	n/a	n/a
359.2934	0.5167	FIXCROSS	n/a	n/a	n/a	n/a	n/a	n/a	n/a	n/a
359.8101	0.4833	COLOR_NAME	53	Incongruent	żółty	yellow	niebieski	blue	hit	n/a
360.2636	n/a	RESPONSE	n/a	n/a	n/a	n/a	n/a	n/a	n/a	yellow
360.2934	1.0167	ITI	n/a	n/a	n/a	n/a	n/a	n/a	n/a	n/a
361.3101	0.5167	FIXCROSS	n/a	n/a	n/a	n/a	n/a	n/a	n/a	n/a
361.8268	0.45	COLOR_NAME	54	Incongruent	żółty	yellow	zielony	green	hit	n/a
362.2461	n/a	RESPONSE	n/a	n/a	n/a	n/a	n/a	n/a	n/a	yellow
362.2768	1.0167	ITI	n/a	n/a	n/a	n/a	n/a	n/a	n/a	n/a
363.2934	0.5167	FIXCROSS	n/a	n/a	n/a	n/a	n/a	n/a	n/a	n/a
363.8101	0.55	COLOR_NAME	55	Neutral	niebieski	blue	Neutral	Neutral	hit	n/a
364.3243	n/a	RESPONSE	n/a	n/a	n/a	n/a	n/a	n/a	n/a	blue
364.3601	1.0167	ITI	n/a	n/a	n/a	n/a	n/a	n/a	n/a	n/a
365.3768	0.5167	FIXCROSS	n/a	n/a	n/a	n/a	n/a	n/a	n/a	n/a
365.8935	0.8333	COLOR_NAME	56	Neutral	czerwony	red	Neutral	Neutral	hit	n/a
366.6903	n/a	RESPONSE	n/a	n/a	n/a	n/a	n/a	n/a	n/a	red
366.7268	1.0167	ITI	n/a	n/a	n/a	n/a	n/a	n/a	n/a	n/a
367.7435	0.5167	FIXCROSS	n/a	n/a	n/a	n/a	n/a	n/a	n/a	n/a
368.2602	0.65	COLOR_NAME	57	Neutral	zielony	green	Neutral	Neutral	hit	n/a
368.8805	n/a	RESPONSE	n/a	n/a	n/a	n/a	n/a	n/a	n/a	green
368.9102	1.0333	ITI	n/a	n/a	n/a	n/a	n/a	n/a	n/a	n/a
369.9435	0.5167	FIXCROSS	n/a	n/a	n/a	n/a	n/a	n/a	n/a	n/a
370.4602	0.9	COLOR_NAME	58	Neutral	zielony	green	Neutral	Neutral	hit	n/a
371.3265	n/a	RESPONSE	n/a	n/a	n/a	n/a	n/a	n/a	n/a	green
371.3602	1.0167	ITI	n/a	n/a	n/a	n/a	n/a	n/a	n/a	n/a
372.3769	0.5167	FIXCROSS	n/a	n/a	n/a	n/a	n/a	n/a	n/a	n/a
372.8936	0.7333	COLOR_NAME	59	Neutral	niebieski	blue	Neutral	Neutral	hit	n/a
373.5966	n/a	RESPONSE	n/a	n/a	n/a	n/a	n/a	n/a	n/a	blue
373.6269	1.0167	ITI	n/a	n/a	n/a	n/a	n/a	n/a	n/a	n/a
374.6436	0.5167	FIXCROSS	n/a	n/a	n/a	n/a	n/a	n/a	n/a	n/a
375.1603	0.65	COLOR_NAME	60	Incongruent	żółty	yellow	zielony	green	incorrect	n/a
375.7867	n/a	RESPONSE	n/a	n/a	n/a	n/a	n/a	n/a	n/a	green
375.8103	1.0167	ITI	n/a	n/a	n/a	n/a	n/a	n/a	n/a	n/a
376.8269	0.5167	FIXCROSS	n/a	n/a	n/a	n/a	n/a	n/a	n/a	n/a
377.3436	0.7	COLOR_NAME	61	Neutral	czerwony	red	Neutral	Neutral	hit	n/a
378.009	n/a	RESPONSE	n/a	n/a	n/a	n/a	n/a	n/a	n/a	red
378.0436	1.0167	ITI	n/a	n/a	n/a	n/a	n/a	n/a	n/a	n/a
379.0603	0.5167	FIXCROSS	n/a	n/a	n/a	n/a	n/a	n/a	n/a	n/a
379.577	1.25	COLOR_NAME	62	Incongruent	zielony	green	żółty	yellow	hit	n/a
380.7907	n/a	RESPONSE	n/a	n/a	n/a	n/a	n/a	n/a	n/a	green
380.827	1.0333	ITI	n/a	n/a	n/a	n/a	n/a	n/a	n/a	n/a
381.8603	0.5333	FIXCROSS	n/a	n/a	n/a	n/a	n/a	n/a	n/a	n/a
382.3937	0.8167	COLOR_NAME	63	Incongruent	czerwony	red	zielony	green	hit	n/a
383.1727	n/a	RESPONSE	n/a	n/a	n/a	n/a	n/a	n/a	n/a	red
383.2103	1.0167	ITI	n/a	n/a	n/a	n/a	n/a	n/a	n/a	n/a
384.227	0.5333	FIXCROSS	n/a	n/a	n/a	n/a	n/a	n/a	n/a	n/a
384.7604	0.7333	COLOR_NAME	64	Neutral	żółty	yellow	Neutral	Neutral	hit	n/a
385.4589	n/a	RESPONSE	n/a	n/a	n/a	n/a	n/a	n/a	n/a	yellow
385.4937	1.0167	ITI	n/a	n/a	n/a	n/a	n/a	n/a	n/a	n/a
386.5104	0.5167	FIXCROSS	n/a	n/a	n/a	n/a	n/a	n/a	n/a	n/a
387.0271	1.4334	COLOR_NAME	65	Neutral	czerwony	red	Neutral	Neutral	hit	n/a
388.4324	n/a	RESPONSE	n/a	n/a	n/a	n/a	n/a	n/a	n/a	red
388.4604	1.0333	ITI	n/a	n/a	n/a	n/a	n/a	n/a	n/a	n/a
389.4938	0.5167	FIXCROSS	n/a	n/a	n/a	n/a	n/a	n/a	n/a	n/a
390.0104	0.6834	COLOR_NAME	66	Incongruent	czerwony	red	zielony	green	hit	n/a
390.6705	n/a	RESPONSE	n/a	n/a	n/a	n/a	n/a	n/a	n/a	red
390.6938	1.0333	ITI	n/a	n/a	n/a	n/a	n/a	n/a	n/a	n/a
391.7271	0.5167	FIXCROSS	n/a	n/a	n/a	n/a	n/a	n/a	n/a	n/a
392.2438	0.45	COLOR_NAME	67	Incongruent	czerwony	red	niebieski	blue	hit	n/a
392.6688	n/a	RESPONSE	n/a	n/a	n/a	n/a	n/a	n/a	n/a	red
392.6938	1.0167	ITI	n/a	n/a	n/a	n/a	n/a	n/a	n/a	n/a
393.7105	0.5333	FIXCROSS	n/a	n/a	n/a	n/a	n/a	n/a	n/a	n/a
394.2438	0.6167	COLOR_NAME	68	Neutral	żółty	yellow	Neutral	Neutral	hit	n/a
394.8271	n/a	RESPONSE	n/a	n/a	n/a	n/a	n/a	n/a	n/a	yellow
394.8605	1.0167	ITI	n/a	n/a	n/a	n/a	n/a	n/a	n/a	n/a
395.8772	0.5167	FIXCROSS	n/a	n/a	n/a	n/a	n/a	n/a	n/a	n/a
396.3938	0.7834	COLOR_NAME	69	Incongruent	niebieski	blue	zielony	green	hit	n/a
397.1452	n/a	RESPONSE	n/a	n/a	n/a	n/a	n/a	n/a	n/a	blue
397.1772	1.0167	ITI	n/a	n/a	n/a	n/a	n/a	n/a	n/a	n/a
398.1939	0.5333	FIXCROSS	n/a	n/a	n/a	n/a	n/a	n/a	n/a	n/a
398.7272	0.8167	COLOR_NAME	70	Incongruent	żółty	yellow	czerwony	red	hit	n/a
399.5112	n/a	RESPONSE	n/a	n/a	n/a	n/a	n/a	n/a	n/a	yellow
399.5439	1.0167	ITI	n/a	n/a	n/a	n/a	n/a	n/a	n/a	n/a
400.5605	0.5167	FIXCROSS	n/a	n/a	n/a	n/a	n/a	n/a	n/a	n/a
401.0772	0.7667	COLOR_NAME	71	Neutral	zielony	green	Neutral	Neutral	hit	n/a
401.8133	n/a	RESPONSE	n/a	n/a	n/a	n/a	n/a	n/a	n/a	green
401.8439	1.0167	ITI	n/a	n/a	n/a	n/a	n/a	n/a	n/a	n/a
402.8606	0.5167	FIXCROSS	n/a	n/a	n/a	n/a	n/a	n/a	n/a	n/a
403.3773	0.5833	COLOR_NAME	72	Neutral	niebieski	blue	Neutral	Neutral	hit	n/a
403.9237	n/a	RESPONSE	n/a	n/a	n/a	n/a	n/a	n/a	n/a	blue
403.9606	1.0334	ITI	n/a	n/a	n/a	n/a	n/a	n/a	n/a	n/a
414.6188	n/a	RESPONSE	n/a	n/a	n/a	n/a	n/a	n/a	n/a	n/a
