onset	duration	trial_type	trial_number	stroop_condition	stim_text(PL)	stim_text(eng)	stim_color(PL)	stim_color(eng)	response_type	response_color
0.0	n/a	RESPONSE	n/a	n/a	n/a	n/a	n/a	n/a	n/a	n/a
0.0324	1.0166	ITI	n/a	n/a	n/a	n/a	n/a	n/a	n/a	n/a
1.0491	0.5	FIXCROSS	n/a	n/a	n/a	n/a	n/a	n/a	n/a	n/a
1.549	0.65	T_INK	1	Neutral	xxxxxxx	xxxxxxx	czerwony	red	hit	n/a
2.1905	n/a	RESPONSE	n/a	n/a	n/a	n/a	n/a	n/a	n/a	red
2.199	0.5	FEEDBACK	n/a	n/a	n/a	n/a	n/a	n/a	n/a	n/a
2.699	1.0	ITI	n/a	n/a	n/a	n/a	n/a	n/a	n/a	n/a
3.699	0.5	FIXCROSS	n/a	n/a	n/a	n/a	n/a	n/a	n/a	n/a
4.199	0.6667	T_INK	2	Neutral	xxxxx	xxxxx	niebieski	blue	hit	n/a
4.8447	n/a	RESPONSE	n/a	n/a	n/a	n/a	n/a	n/a	n/a	blue
4.8657	0.5	FEEDBACK	n/a	n/a	n/a	n/a	n/a	n/a	n/a	n/a
5.3657	1.0166	ITI	n/a	n/a	n/a	n/a	n/a	n/a	n/a	n/a
6.3823	0.5	FIXCROSS	n/a	n/a	n/a	n/a	n/a	n/a	n/a	n/a
6.8823	1.1166	T_INK	3	Incongruent	żółty	yellow	czerwony	red	hit	n/a
7.9787	n/a	RESPONSE	n/a	n/a	n/a	n/a	n/a	n/a	n/a	red
7.9989	0.5	FEEDBACK	n/a	n/a	n/a	n/a	n/a	n/a	n/a	n/a
8.4989	1.0	ITI	n/a	n/a	n/a	n/a	n/a	n/a	n/a	n/a
9.4989	0.5	FIXCROSS	n/a	n/a	n/a	n/a	n/a	n/a	n/a	n/a
9.9989	0.9	T_INK	4	Neutral	xxxxxxx	xxxxxxx	żółty	yellow	hit	n/a
10.8887	n/a	RESPONSE	n/a	n/a	n/a	n/a	n/a	n/a	n/a	yellow
10.8989	0.5	FEEDBACK	n/a	n/a	n/a	n/a	n/a	n/a	n/a	n/a
11.3989	1.0	ITI	n/a	n/a	n/a	n/a	n/a	n/a	n/a	n/a
12.3989	0.5	FIXCROSS	n/a	n/a	n/a	n/a	n/a	n/a	n/a	n/a
12.8989	0.8166	T_INK	5	Neutral	xxxxxxxx	xxxxxxxx	niebieski	blue	hit	n/a
13.7028	n/a	RESPONSE	n/a	n/a	n/a	n/a	n/a	n/a	n/a	blue
13.7155	0.5	FEEDBACK	n/a	n/a	n/a	n/a	n/a	n/a	n/a	n/a
14.2155	1.0	ITI	n/a	n/a	n/a	n/a	n/a	n/a	n/a	n/a
15.2155	0.5	FIXCROSS	n/a	n/a	n/a	n/a	n/a	n/a	n/a	n/a
15.7155	0.85	T_INK	6	Incongruent	niebieski	blue	zielony	green	hit	n/a
16.5489	n/a	RESPONSE	n/a	n/a	n/a	n/a	n/a	n/a	n/a	green
16.5655	0.5	FEEDBACK	n/a	n/a	n/a	n/a	n/a	n/a	n/a	n/a
17.0655	1.0	ITI	n/a	n/a	n/a	n/a	n/a	n/a	n/a	n/a
18.0654	0.5	FIXCROSS	n/a	n/a	n/a	n/a	n/a	n/a	n/a	n/a
18.5654	0.75	T_INK	7	Neutral	xxxxxxxxx	xxxxxxxxx	żółty	yellow	hit	n/a
19.299	n/a	RESPONSE	n/a	n/a	n/a	n/a	n/a	n/a	n/a	yellow
19.3154	0.5	FEEDBACK	n/a	n/a	n/a	n/a	n/a	n/a	n/a	n/a
19.8154	1.0	ITI	n/a	n/a	n/a	n/a	n/a	n/a	n/a	n/a
20.8154	0.5	FIXCROSS	n/a	n/a	n/a	n/a	n/a	n/a	n/a	n/a
21.3154	0.6667	T_INK	8	Neutral	xxxxxxxxx	xxxxxxxxx	czerwony	red	hit	n/a
21.9693	n/a	RESPONSE	n/a	n/a	n/a	n/a	n/a	n/a	n/a	red
21.982	0.5	FEEDBACK	n/a	n/a	n/a	n/a	n/a	n/a	n/a	n/a
22.482	1.0	ITI	n/a	n/a	n/a	n/a	n/a	n/a	n/a	n/a
23.482	0.5	FIXCROSS	n/a	n/a	n/a	n/a	n/a	n/a	n/a	n/a
23.982	0.8166	T_INK	9	Incongruent	zielony	green	żółty	yellow	hit	n/a
24.7832	n/a	RESPONSE	n/a	n/a	n/a	n/a	n/a	n/a	n/a	yellow
24.7986	0.5	FEEDBACK	n/a	n/a	n/a	n/a	n/a	n/a	n/a	n/a
25.2986	1.0	ITI	n/a	n/a	n/a	n/a	n/a	n/a	n/a	n/a
26.2986	0.5	FIXCROSS	n/a	n/a	n/a	n/a	n/a	n/a	n/a	n/a
26.7986	0.65	T_INK	10	Neutral	xxxxxxxxx	xxxxxxxxx	zielony	green	hit	n/a
27.4376	n/a	RESPONSE	n/a	n/a	n/a	n/a	n/a	n/a	n/a	green
27.4486	0.5	FEEDBACK	n/a	n/a	n/a	n/a	n/a	n/a	n/a	n/a
27.7094	n/a	RESPONSE	n/a	n/a	n/a	n/a	n/a	n/a	n/a	green
27.9486	1.0	ITI	n/a	n/a	n/a	n/a	n/a	n/a	n/a	n/a
28.9486	0.5	FIXCROSS	n/a	n/a	n/a	n/a	n/a	n/a	n/a	n/a
29.4486	0.6	T_INK	11	Neutral	xxxxxxx	xxxxxxx	niebieski	blue	hit	n/a
30.0279	n/a	RESPONSE	n/a	n/a	n/a	n/a	n/a	n/a	n/a	blue
30.0486	0.5	FEEDBACK	n/a	n/a	n/a	n/a	n/a	n/a	n/a	n/a
30.5485	1.0	ITI	n/a	n/a	n/a	n/a	n/a	n/a	n/a	n/a
31.5485	0.5	FIXCROSS	n/a	n/a	n/a	n/a	n/a	n/a	n/a	n/a
32.0485	0.75	T_INK	12	Incongruent	czerwony	red	niebieski	blue	hit	n/a
32.778	n/a	RESPONSE	n/a	n/a	n/a	n/a	n/a	n/a	n/a	blue
32.7985	0.5	FEEDBACK	n/a	n/a	n/a	n/a	n/a	n/a	n/a	n/a
33.2985	1.0	ITI	n/a	n/a	n/a	n/a	n/a	n/a	n/a	n/a
56.7779	n/a	RESPONSE	n/a	n/a	n/a	n/a	n/a	n/a	n/a	n/a
56.7981	1.0	ITI	n/a	n/a	n/a	n/a	n/a	n/a	n/a	n/a
57.7981	0.5	FIXCROSS	n/a	n/a	n/a	n/a	n/a	n/a	n/a	n/a
58.2981	0.65	INK	1	Neutral	xxxxxxx	xxxxxxx	niebieski	blue	hit	n/a
58.9365	n/a	RESPONSE	n/a	n/a	n/a	n/a	n/a	n/a	n/a	blue
58.948	1.0	ITI	n/a	n/a	n/a	n/a	n/a	n/a	n/a	n/a
59.948	0.5	FIXCROSS	n/a	n/a	n/a	n/a	n/a	n/a	n/a	n/a
60.448	0.45	INK	2	Incongruent	żółty	yellow	niebieski	blue	hit	n/a
60.8871	n/a	RESPONSE	n/a	n/a	n/a	n/a	n/a	n/a	n/a	blue
60.898	1.0	ITI	n/a	n/a	n/a	n/a	n/a	n/a	n/a	n/a
61.898	0.5	FIXCROSS	n/a	n/a	n/a	n/a	n/a	n/a	n/a	n/a
62.398	0.5333	INK	3	Incongruent	niebieski	blue	czerwony	red	hit	n/a
62.9177	n/a	RESPONSE	n/a	n/a	n/a	n/a	n/a	n/a	n/a	red
62.9313	1.0	ITI	n/a	n/a	n/a	n/a	n/a	n/a	n/a	n/a
63.9313	0.4982	FIXCROSS	n/a	n/a	n/a	n/a	n/a	n/a	n/a	n/a
64.4295	0.5018	INK	4	Incongruent	żółty	yellow	niebieski	blue	hit	n/a
64.9164	n/a	RESPONSE	n/a	n/a	n/a	n/a	n/a	n/a	n/a	blue
64.9313	1.0	ITI	n/a	n/a	n/a	n/a	n/a	n/a	n/a	n/a
65.9313	0.5	FIXCROSS	n/a	n/a	n/a	n/a	n/a	n/a	n/a	n/a
66.4313	0.3667	INK	5	Neutral	xxxxxxx	xxxxxxx	żółty	yellow	hit	n/a
66.787	n/a	RESPONSE	n/a	n/a	n/a	n/a	n/a	n/a	n/a	yellow
66.7979	1.0	ITI	n/a	n/a	n/a	n/a	n/a	n/a	n/a	n/a
67.7979	0.5	FIXCROSS	n/a	n/a	n/a	n/a	n/a	n/a	n/a	n/a
68.2979	0.5667	INK	6	Incongruent	żółty	yellow	niebieski	blue	hit	n/a
68.8496	n/a	RESPONSE	n/a	n/a	n/a	n/a	n/a	n/a	n/a	blue
68.8645	1.0	ITI	n/a	n/a	n/a	n/a	n/a	n/a	n/a	n/a
69.8645	0.5	FIXCROSS	n/a	n/a	n/a	n/a	n/a	n/a	n/a	n/a
70.3645	0.4333	INK	7	Neutral	xxxxx	xxxxx	czerwony	red	hit	n/a
70.7844	n/a	RESPONSE	n/a	n/a	n/a	n/a	n/a	n/a	n/a	red
70.7978	1.0	ITI	n/a	n/a	n/a	n/a	n/a	n/a	n/a	n/a
71.7978	0.5	FIXCROSS	n/a	n/a	n/a	n/a	n/a	n/a	n/a	n/a
72.2978	0.8333	INK	8	Incongruent	zielony	green	żółty	yellow	hit	n/a
73.1188	n/a	RESPONSE	n/a	n/a	n/a	n/a	n/a	n/a	n/a	yellow
73.1311	1.0	ITI	n/a	n/a	n/a	n/a	n/a	n/a	n/a	n/a
74.1311	0.5	FIXCROSS	n/a	n/a	n/a	n/a	n/a	n/a	n/a	n/a
74.6311	0.4	INK	9	Incongruent	niebieski	blue	żółty	yellow	hit	n/a
75.0216	n/a	RESPONSE	n/a	n/a	n/a	n/a	n/a	n/a	n/a	yellow
75.0311	1.0	ITI	n/a	n/a	n/a	n/a	n/a	n/a	n/a	n/a
76.0311	0.5	FIXCROSS	n/a	n/a	n/a	n/a	n/a	n/a	n/a	n/a
76.5311	0.5	INK	10	Neutral	xxxxxxxxx	xxxxxxxxx	żółty	yellow	hit	n/a
77.0202	n/a	RESPONSE	n/a	n/a	n/a	n/a	n/a	n/a	n/a	yellow
77.0311	1.0	ITI	n/a	n/a	n/a	n/a	n/a	n/a	n/a	n/a
78.031	0.5	FIXCROSS	n/a	n/a	n/a	n/a	n/a	n/a	n/a	n/a
78.531	0.55	INK	11	Incongruent	czerwony	red	zielony	green	hit	n/a
79.0668	n/a	RESPONSE	n/a	n/a	n/a	n/a	n/a	n/a	n/a	green
79.081	1.0	ITI	n/a	n/a	n/a	n/a	n/a	n/a	n/a	n/a
80.081	0.5	FIXCROSS	n/a	n/a	n/a	n/a	n/a	n/a	n/a	n/a
80.581	0.5	INK	12	Neutral	xxxxxxx	xxxxxxx	niebieski	blue	hit	n/a
81.0654	n/a	RESPONSE	n/a	n/a	n/a	n/a	n/a	n/a	n/a	blue
81.081	1.0	ITI	n/a	n/a	n/a	n/a	n/a	n/a	n/a	n/a
82.081	0.5	FIXCROSS	n/a	n/a	n/a	n/a	n/a	n/a	n/a	n/a
82.581	0.5666	INK	13	Incongruent	żółty	yellow	zielony	green	hit	n/a
83.144	n/a	RESPONSE	n/a	n/a	n/a	n/a	n/a	n/a	n/a	green
83.1476	1.0	ITI	n/a	n/a	n/a	n/a	n/a	n/a	n/a	n/a
84.1476	0.5	FIXCROSS	n/a	n/a	n/a	n/a	n/a	n/a	n/a	n/a
84.6476	0.6	INK	14	Neutral	xxxxxxxx	xxxxxxxx	niebieski	blue	hit	n/a
85.2387	n/a	RESPONSE	n/a	n/a	n/a	n/a	n/a	n/a	n/a	blue
85.2476	1.0	ITI	n/a	n/a	n/a	n/a	n/a	n/a	n/a	n/a
86.2476	0.5	FIXCROSS	n/a	n/a	n/a	n/a	n/a	n/a	n/a	n/a
86.7476	0.6	INK	15	Neutral	xxxxxxxxx	xxxxxxxxx	zielony	green	hit	n/a
87.3333	n/a	RESPONSE	n/a	n/a	n/a	n/a	n/a	n/a	n/a	green
87.3476	1.0	ITI	n/a	n/a	n/a	n/a	n/a	n/a	n/a	n/a
88.3475	0.5	FIXCROSS	n/a	n/a	n/a	n/a	n/a	n/a	n/a	n/a
88.8475	0.7333	INK	16	Incongruent	zielony	green	żółty	yellow	hit	n/a
89.5717	n/a	RESPONSE	n/a	n/a	n/a	n/a	n/a	n/a	n/a	yellow
89.5808	1.0	ITI	n/a	n/a	n/a	n/a	n/a	n/a	n/a	n/a
90.5808	0.5	FIXCROSS	n/a	n/a	n/a	n/a	n/a	n/a	n/a	n/a
91.0808	0.6667	INK	17	Incongruent	czerwony	red	żółty	yellow	hit	n/a
91.7302	n/a	RESPONSE	n/a	n/a	n/a	n/a	n/a	n/a	n/a	yellow
91.7475	1.0	ITI	n/a	n/a	n/a	n/a	n/a	n/a	n/a	n/a
92.7475	0.5	FIXCROSS	n/a	n/a	n/a	n/a	n/a	n/a	n/a	n/a
93.2474	0.5167	INK	18	Neutral	xxxxxxxxx	xxxxxxxxx	zielony	green	hit	n/a
93.7608	n/a	RESPONSE	n/a	n/a	n/a	n/a	n/a	n/a	n/a	green
93.7641	1.0	ITI	n/a	n/a	n/a	n/a	n/a	n/a	n/a	n/a
94.7641	0.5	FIXCROSS	n/a	n/a	n/a	n/a	n/a	n/a	n/a	n/a
95.2641	0.5	INK	19	Incongruent	zielony	green	żółty	yellow	hit	n/a
95.7595	n/a	RESPONSE	n/a	n/a	n/a	n/a	n/a	n/a	n/a	yellow
95.7641	1.0	ITI	n/a	n/a	n/a	n/a	n/a	n/a	n/a	n/a
96.764	0.5	FIXCROSS	n/a	n/a	n/a	n/a	n/a	n/a	n/a	n/a
97.264	0.5667	INK	20	Neutral	xxxxxxxx	xxxxxxxx	zielony	green	hit	n/a
97.8222	n/a	RESPONSE	n/a	n/a	n/a	n/a	n/a	n/a	n/a	green
97.8307	0.9999	ITI	n/a	n/a	n/a	n/a	n/a	n/a	n/a	n/a
98.8306	0.5001	FIXCROSS	n/a	n/a	n/a	n/a	n/a	n/a	n/a	n/a
99.3307	0.5833	INK	21	Incongruent	zielony	green	niebieski	blue	hit	n/a
99.9007	n/a	RESPONSE	n/a	n/a	n/a	n/a	n/a	n/a	n/a	blue
99.914	1.0	ITI	n/a	n/a	n/a	n/a	n/a	n/a	n/a	n/a
100.914	0.5	FIXCROSS	n/a	n/a	n/a	n/a	n/a	n/a	n/a	n/a
101.414	0.8833	INK	22	Incongruent	żółty	yellow	zielony	green	hit	n/a
102.2832	n/a	RESPONSE	n/a	n/a	n/a	n/a	n/a	n/a	n/a	green
102.2973	1.0	ITI	n/a	n/a	n/a	n/a	n/a	n/a	n/a	n/a
103.2973	0.5	FIXCROSS	n/a	n/a	n/a	n/a	n/a	n/a	n/a	n/a
103.7973	0.6833	INK	23	Neutral	xxxxxxx	xxxxxxx	żółty	yellow	hit	n/a
104.4736	n/a	RESPONSE	n/a	n/a	n/a	n/a	n/a	n/a	n/a	yellow
104.4806	1.0	ITI	n/a	n/a	n/a	n/a	n/a	n/a	n/a	n/a
105.4806	0.5	FIXCROSS	n/a	n/a	n/a	n/a	n/a	n/a	n/a	n/a
105.9806	0.8166	INK	24	Incongruent	zielony	green	niebieski	blue	hit	n/a
106.7922	n/a	RESPONSE	n/a	n/a	n/a	n/a	n/a	n/a	n/a	blue
106.7972	1.0	ITI	n/a	n/a	n/a	n/a	n/a	n/a	n/a	n/a
107.7972	0.5	FIXCROSS	n/a	n/a	n/a	n/a	n/a	n/a	n/a	n/a
108.2972	0.6333	INK	25	Incongruent	czerwony	red	niebieski	blue	hit	n/a
108.9187	n/a	RESPONSE	n/a	n/a	n/a	n/a	n/a	n/a	n/a	blue
108.9305	1.0	ITI	n/a	n/a	n/a	n/a	n/a	n/a	n/a	n/a
109.9305	0.5	FIXCROSS	n/a	n/a	n/a	n/a	n/a	n/a	n/a	n/a
110.4305	0.6	INK	26	Incongruent	żółty	yellow	zielony	green	hit	n/a
111.0132	n/a	RESPONSE	n/a	n/a	n/a	n/a	n/a	n/a	n/a	green
111.0305	1.0	ITI	n/a	n/a	n/a	n/a	n/a	n/a	n/a	n/a
112.0305	0.5	FIXCROSS	n/a	n/a	n/a	n/a	n/a	n/a	n/a	n/a
112.5304	0.5667	INK	27	Incongruent	żółty	yellow	czerwony	red	hit	n/a
113.0918	n/a	RESPONSE	n/a	n/a	n/a	n/a	n/a	n/a	n/a	red
113.0971	1.0	ITI	n/a	n/a	n/a	n/a	n/a	n/a	n/a	n/a
114.0971	0.5	FIXCROSS	n/a	n/a	n/a	n/a	n/a	n/a	n/a	n/a
114.5971	0.4333	INK	28	Incongruent	żółty	yellow	czerwony	red	hit	n/a
115.0266	n/a	RESPONSE	n/a	n/a	n/a	n/a	n/a	n/a	n/a	red
115.0304	1.0	ITI	n/a	n/a	n/a	n/a	n/a	n/a	n/a	n/a
116.0304	0.5	FIXCROSS	n/a	n/a	n/a	n/a	n/a	n/a	n/a	n/a
116.5304	0.5667	INK	29	Incongruent	czerwony	red	niebieski	blue	hit	n/a
117.0892	n/a	RESPONSE	n/a	n/a	n/a	n/a	n/a	n/a	n/a	blue
117.097	1.0	ITI	n/a	n/a	n/a	n/a	n/a	n/a	n/a	n/a
118.097	0.5	FIXCROSS	n/a	n/a	n/a	n/a	n/a	n/a	n/a	n/a
118.597	0.5167	INK	30	Neutral	xxxxxxxxx	xxxxxxxxx	zielony	green	hit	n/a
119.1038	n/a	RESPONSE	n/a	n/a	n/a	n/a	n/a	n/a	n/a	green
119.1137	1.0	ITI	n/a	n/a	n/a	n/a	n/a	n/a	n/a	n/a
120.1136	0.5	FIXCROSS	n/a	n/a	n/a	n/a	n/a	n/a	n/a	n/a
120.6136	0.5333	INK	31	Incongruent	zielony	green	czerwony	red	hit	n/a
121.1344	n/a	RESPONSE	n/a	n/a	n/a	n/a	n/a	n/a	n/a	red
121.147	1.0	ITI	n/a	n/a	n/a	n/a	n/a	n/a	n/a	n/a
122.1469	0.5	FIXCROSS	n/a	n/a	n/a	n/a	n/a	n/a	n/a	n/a
122.6469	0.6667	INK	32	Incongruent	zielony	green	niebieski	blue	hit	n/a
123.309	n/a	RESPONSE	n/a	n/a	n/a	n/a	n/a	n/a	n/a	blue
123.3136	1.0	ITI	n/a	n/a	n/a	n/a	n/a	n/a	n/a	n/a
124.3136	0.5	FIXCROSS	n/a	n/a	n/a	n/a	n/a	n/a	n/a	n/a
124.8136	0.65	INK	33	Incongruent	żółty	yellow	czerwony	red	hit	n/a
125.4514	n/a	RESPONSE	n/a	n/a	n/a	n/a	n/a	n/a	n/a	red
125.4635	1.0	ITI	n/a	n/a	n/a	n/a	n/a	n/a	n/a	n/a
126.4635	0.5	FIXCROSS	n/a	n/a	n/a	n/a	n/a	n/a	n/a	n/a
126.9635	0.6333	INK	34	Neutral	xxxxx	xxxxx	niebieski	blue	hit	n/a
127.594	n/a	RESPONSE	n/a	n/a	n/a	n/a	n/a	n/a	n/a	blue
127.5968	1.0	ITI	n/a	n/a	n/a	n/a	n/a	n/a	n/a	n/a
128.5968	0.5	FIXCROSS	n/a	n/a	n/a	n/a	n/a	n/a	n/a	n/a
129.0968	0.4667	INK	35	Neutral	xxxxxxxx	xxxxxxxx	żółty	yellow	hit	n/a
129.5446	n/a	RESPONSE	n/a	n/a	n/a	n/a	n/a	n/a	n/a	yellow
129.5635	1.0	ITI	n/a	n/a	n/a	n/a	n/a	n/a	n/a	n/a
130.5635	0.5	FIXCROSS	n/a	n/a	n/a	n/a	n/a	n/a	n/a	n/a
131.0634	0.4833	INK	36	Neutral	xxxxx	xxxxx	czerwony	red	hit	n/a
131.5434	n/a	RESPONSE	n/a	n/a	n/a	n/a	n/a	n/a	n/a	red
131.5468	1.0	ITI	n/a	n/a	n/a	n/a	n/a	n/a	n/a	n/a
132.5468	0.5	FIXCROSS	n/a	n/a	n/a	n/a	n/a	n/a	n/a	n/a
133.0467	0.55	INK	37	Neutral	xxxxx	xxxxx	zielony	green	hit	n/a
133.59	n/a	RESPONSE	n/a	n/a	n/a	n/a	n/a	n/a	n/a	green
133.5967	1.0	ITI	n/a	n/a	n/a	n/a	n/a	n/a	n/a	n/a
134.5967	0.5	FIXCROSS	n/a	n/a	n/a	n/a	n/a	n/a	n/a	n/a
135.0967	0.6666	INK	38	Incongruent	niebieski	blue	żółty	yellow	hit	n/a
135.7485	n/a	RESPONSE	n/a	n/a	n/a	n/a	n/a	n/a	n/a	yellow
135.7634	1.0	ITI	n/a	n/a	n/a	n/a	n/a	n/a	n/a	n/a
136.7633	0.5	FIXCROSS	n/a	n/a	n/a	n/a	n/a	n/a	n/a	n/a
137.2633	0.5833	INK	39	Neutral	xxxxxxx	xxxxxxx	czerwony	red	hit	n/a
137.8431	n/a	RESPONSE	n/a	n/a	n/a	n/a	n/a	n/a	n/a	red
137.8467	1.0	ITI	n/a	n/a	n/a	n/a	n/a	n/a	n/a	n/a
138.8466	0.5	FIXCROSS	n/a	n/a	n/a	n/a	n/a	n/a	n/a	n/a
139.3466	0.5167	INK	40	Incongruent	czerwony	red	żółty	yellow	hit	n/a
139.8577	n/a	RESPONSE	n/a	n/a	n/a	n/a	n/a	n/a	n/a	yellow
139.8633	1.0	ITI	n/a	n/a	n/a	n/a	n/a	n/a	n/a	n/a
140.8633	0.5	FIXCROSS	n/a	n/a	n/a	n/a	n/a	n/a	n/a	n/a
141.3633	0.7833	INK	41	Incongruent	niebieski	blue	czerwony	red	hit	n/a
142.1281	n/a	RESPONSE	n/a	n/a	n/a	n/a	n/a	n/a	n/a	red
142.1466	1.0	ITI	n/a	n/a	n/a	n/a	n/a	n/a	n/a	n/a
143.1466	0.5	FIXCROSS	n/a	n/a	n/a	n/a	n/a	n/a	n/a	n/a
143.6466	0.4833	INK	42	Neutral	xxxxxxxx	xxxxxxxx	zielony	green	hit	n/a
144.1109	n/a	RESPONSE	n/a	n/a	n/a	n/a	n/a	n/a	n/a	green
144.1299	1.0	ITI	n/a	n/a	n/a	n/a	n/a	n/a	n/a	n/a
145.1299	0.5	FIXCROSS	n/a	n/a	n/a	n/a	n/a	n/a	n/a	n/a
145.6298	0.45	INK	43	Incongruent	niebieski	blue	zielony	green	hit	n/a
146.0615	n/a	RESPONSE	n/a	n/a	n/a	n/a	n/a	n/a	n/a	green
146.0799	1.0	ITI	n/a	n/a	n/a	n/a	n/a	n/a	n/a	n/a
147.0798	0.5	FIXCROSS	n/a	n/a	n/a	n/a	n/a	n/a	n/a	n/a
147.5798	0.6	INK	44	Neutral	xxxxxxx	xxxxxxx	niebieski	blue	hit	n/a
148.1722	n/a	RESPONSE	n/a	n/a	n/a	n/a	n/a	n/a	n/a	blue
148.1798	1.0	ITI	n/a	n/a	n/a	n/a	n/a	n/a	n/a	n/a
149.1798	0.5	FIXCROSS	n/a	n/a	n/a	n/a	n/a	n/a	n/a	n/a
149.6798	0.55	INK	45	Incongruent	zielony	green	czerwony	red	hit	n/a
150.2187	n/a	RESPONSE	n/a	n/a	n/a	n/a	n/a	n/a	n/a	red
150.2298	1.0	ITI	n/a	n/a	n/a	n/a	n/a	n/a	n/a	n/a
151.2298	0.5	FIXCROSS	n/a	n/a	n/a	n/a	n/a	n/a	n/a	n/a
151.7297	0.6333	INK	46	Incongruent	niebieski	blue	żółty	yellow	hit	n/a
152.3452	n/a	RESPONSE	n/a	n/a	n/a	n/a	n/a	n/a	n/a	yellow
152.3631	1.0	ITI	n/a	n/a	n/a	n/a	n/a	n/a	n/a	n/a
153.3631	0.5	FIXCROSS	n/a	n/a	n/a	n/a	n/a	n/a	n/a	n/a
153.863	0.3666	INK	47	Neutral	xxxxxxxx	xxxxxxxx	żółty	yellow	hit	n/a
154.2161	n/a	RESPONSE	n/a	n/a	n/a	n/a	n/a	n/a	n/a	yellow
154.2297	1.0	ITI	n/a	n/a	n/a	n/a	n/a	n/a	n/a	n/a
155.2297	0.5	FIXCROSS	n/a	n/a	n/a	n/a	n/a	n/a	n/a	n/a
155.7297	0.4833	INK	48	Neutral	xxxxxxxx	xxxxxxxx	niebieski	blue	hit	n/a
156.1987	n/a	RESPONSE	n/a	n/a	n/a	n/a	n/a	n/a	n/a	blue
156.213	1.0	ITI	n/a	n/a	n/a	n/a	n/a	n/a	n/a	n/a
157.213	0.5	FIXCROSS	n/a	n/a	n/a	n/a	n/a	n/a	n/a	n/a
157.713	0.5333	INK	49	Neutral	xxxxx	xxxxx	niebieski	blue	hit	n/a
158.2294	n/a	RESPONSE	n/a	n/a	n/a	n/a	n/a	n/a	n/a	blue
158.2463	1.0	ITI	n/a	n/a	n/a	n/a	n/a	n/a	n/a	n/a
159.2463	0.5	FIXCROSS	n/a	n/a	n/a	n/a	n/a	n/a	n/a	n/a
159.7463	0.3833	INK	50	Incongruent	niebieski	blue	czerwony	red	hit	n/a
160.1161	n/a	RESPONSE	n/a	n/a	n/a	n/a	n/a	n/a	n/a	red
160.1296	1.0	ITI	n/a	n/a	n/a	n/a	n/a	n/a	n/a	n/a
161.1296	0.5	FIXCROSS	n/a	n/a	n/a	n/a	n/a	n/a	n/a	n/a
161.6296	0.6166	INK	51	Neutral	xxxxx	xxxxx	czerwony	red	hit	n/a
162.2425	n/a	RESPONSE	n/a	n/a	n/a	n/a	n/a	n/a	n/a	red
162.2462	1.0	ITI	n/a	n/a	n/a	n/a	n/a	n/a	n/a	n/a
163.2462	0.5	FIXCROSS	n/a	n/a	n/a	n/a	n/a	n/a	n/a	n/a
163.7462	0.3666	INK	52	Incongruent	czerwony	red	zielony	green	hit	n/a
164.0973	n/a	RESPONSE	n/a	n/a	n/a	n/a	n/a	n/a	n/a	green
164.1129	1.0	ITI	n/a	n/a	n/a	n/a	n/a	n/a	n/a	n/a
165.1128	0.5	FIXCROSS	n/a	n/a	n/a	n/a	n/a	n/a	n/a	n/a
165.6128	0.4167	INK	53	Neutral	xxxxxxxxx	xxxxxxxxx	czerwony	red	hit	n/a
166.016	n/a	RESPONSE	n/a	n/a	n/a	n/a	n/a	n/a	n/a	red
166.0295	1.0	ITI	n/a	n/a	n/a	n/a	n/a	n/a	n/a	n/a
167.0295	0.5	FIXCROSS	n/a	n/a	n/a	n/a	n/a	n/a	n/a	n/a
167.5295	0.65	INK	54	Incongruent	czerwony	red	zielony	green	hit	n/a
168.1746	n/a	RESPONSE	n/a	n/a	n/a	n/a	n/a	n/a	n/a	green
168.1795	1.0	ITI	n/a	n/a	n/a	n/a	n/a	n/a	n/a	n/a
169.1794	0.5	FIXCROSS	n/a	n/a	n/a	n/a	n/a	n/a	n/a	n/a
169.6794	0.4167	INK	55	Neutral	xxxxx	xxxxx	niebieski	blue	hit	n/a
170.0772	n/a	RESPONSE	n/a	n/a	n/a	n/a	n/a	n/a	n/a	blue
170.0961	1.0	ITI	n/a	n/a	n/a	n/a	n/a	n/a	n/a	n/a
171.0961	0.5	FIXCROSS	n/a	n/a	n/a	n/a	n/a	n/a	n/a	n/a
171.5961	0.45	INK	56	Incongruent	niebieski	blue	zielony	green	hit	n/a
172.028	n/a	RESPONSE	n/a	n/a	n/a	n/a	n/a	n/a	n/a	green
172.0461	1.0	ITI	n/a	n/a	n/a	n/a	n/a	n/a	n/a	n/a
173.046	0.5	FIXCROSS	n/a	n/a	n/a	n/a	n/a	n/a	n/a	n/a
173.546	0.4166	INK	57	Neutral	xxxxx	xxxxx	zielony	green	hit	n/a
173.9467	n/a	RESPONSE	n/a	n/a	n/a	n/a	n/a	n/a	n/a	green
173.9627	1.0	ITI	n/a	n/a	n/a	n/a	n/a	n/a	n/a	n/a
174.9627	0.5	FIXCROSS	n/a	n/a	n/a	n/a	n/a	n/a	n/a	n/a
175.4627	0.3833	INK	58	Neutral	xxxxx	xxxxx	zielony	green	hit	n/a
175.8335	n/a	RESPONSE	n/a	n/a	n/a	n/a	n/a	n/a	n/a	green
175.846	1.0	ITI	n/a	n/a	n/a	n/a	n/a	n/a	n/a	n/a
176.846	0.5	FIXCROSS	n/a	n/a	n/a	n/a	n/a	n/a	n/a	n/a
177.346	0.4833	INK	59	Neutral	xxxxxxx	xxxxxxx	czerwony	red	hit	n/a
177.8161	n/a	RESPONSE	n/a	n/a	n/a	n/a	n/a	n/a	n/a	red
177.8293	1.0	ITI	n/a	n/a	n/a	n/a	n/a	n/a	n/a	n/a
178.8293	0.5	FIXCROSS	n/a	n/a	n/a	n/a	n/a	n/a	n/a	n/a
179.3293	0.5333	INK	60	Neutral	xxxxxxxx	xxxxxxxx	zielony	green	hit	n/a
179.8467	n/a	RESPONSE	n/a	n/a	n/a	n/a	n/a	n/a	n/a	green
179.8626	1.0	ITI	n/a	n/a	n/a	n/a	n/a	n/a	n/a	n/a
180.8626	0.5	FIXCROSS	n/a	n/a	n/a	n/a	n/a	n/a	n/a	n/a
181.3626	0.45	INK	61	Neutral	xxxxxxx	xxxxxxx	czerwony	red	hit	n/a
181.7974	n/a	RESPONSE	n/a	n/a	n/a	n/a	n/a	n/a	n/a	red
181.8126	1.0	ITI	n/a	n/a	n/a	n/a	n/a	n/a	n/a	n/a
182.8125	0.5	FIXCROSS	n/a	n/a	n/a	n/a	n/a	n/a	n/a	n/a
183.3125	0.5333	INK	62	Incongruent	czerwony	red	żółty	yellow	hit	n/a
183.828	n/a	RESPONSE	n/a	n/a	n/a	n/a	n/a	n/a	n/a	yellow
183.8459	1.0	ITI	n/a	n/a	n/a	n/a	n/a	n/a	n/a	n/a
184.8458	0.5	FIXCROSS	n/a	n/a	n/a	n/a	n/a	n/a	n/a	n/a
185.3458	0.4333	INK	63	Neutral	xxxxxxx	xxxxxxx	żółty	yellow	hit	n/a
185.7628	n/a	RESPONSE	n/a	n/a	n/a	n/a	n/a	n/a	n/a	yellow
185.7792	1.0	ITI	n/a	n/a	n/a	n/a	n/a	n/a	n/a	n/a
186.7791	0.5	FIXCROSS	n/a	n/a	n/a	n/a	n/a	n/a	n/a	n/a
187.2791	0.4167	INK	64	Neutral	xxxxxxxxx	xxxxxxxxx	żółty	yellow	hit	n/a
187.6814	n/a	RESPONSE	n/a	n/a	n/a	n/a	n/a	n/a	n/a	yellow
187.6958	1.0	ITI	n/a	n/a	n/a	n/a	n/a	n/a	n/a	n/a
188.6958	0.5	FIXCROSS	n/a	n/a	n/a	n/a	n/a	n/a	n/a	n/a
189.1958	0.4333	INK	65	Neutral	xxxxxxxxx	xxxxxxxxx	czerwony	red	hit	n/a
189.6162	n/a	RESPONSE	n/a	n/a	n/a	n/a	n/a	n/a	n/a	red
189.6291	1.0	ITI	n/a	n/a	n/a	n/a	n/a	n/a	n/a	n/a
190.6291	0.5	FIXCROSS	n/a	n/a	n/a	n/a	n/a	n/a	n/a	n/a
191.1291	0.4	INK	66	Neutral	xxxxxxxx	xxxxxxxx	żółty	yellow	hit	n/a
191.5189	n/a	RESPONSE	n/a	n/a	n/a	n/a	n/a	n/a	n/a	yellow
191.5291	1.0	ITI	n/a	n/a	n/a	n/a	n/a	n/a	n/a	n/a
192.529	0.5	FIXCROSS	n/a	n/a	n/a	n/a	n/a	n/a	n/a	n/a
193.029	0.3667	INK	67	Neutral	xxxxxxxxx	xxxxxxxxx	żółty	yellow	hit	n/a
193.3896	n/a	RESPONSE	n/a	n/a	n/a	n/a	n/a	n/a	n/a	yellow
193.3957	1.0	ITI	n/a	n/a	n/a	n/a	n/a	n/a	n/a	n/a
194.3957	0.5	FIXCROSS	n/a	n/a	n/a	n/a	n/a	n/a	n/a	n/a
194.8957	0.5167	INK	68	Incongruent	niebieski	blue	zielony	green	hit	n/a
195.4043	n/a	RESPONSE	n/a	n/a	n/a	n/a	n/a	n/a	n/a	green
195.4123	1.0	ITI	n/a	n/a	n/a	n/a	n/a	n/a	n/a	n/a
196.4123	0.5	FIXCROSS	n/a	n/a	n/a	n/a	n/a	n/a	n/a	n/a
196.9123	0.4833	INK	69	Incongruent	zielony	green	czerwony	red	hit	n/a
197.387	n/a	RESPONSE	n/a	n/a	n/a	n/a	n/a	n/a	n/a	red
197.3956	1.0	ITI	n/a	n/a	n/a	n/a	n/a	n/a	n/a	n/a
198.3956	0.5	FIXCROSS	n/a	n/a	n/a	n/a	n/a	n/a	n/a	n/a
198.8956	0.5167	INK	70	Neutral	xxxxxxxxx	xxxxxxxxx	czerwony	red	hit	n/a
199.4016	n/a	RESPONSE	n/a	n/a	n/a	n/a	n/a	n/a	n/a	red
199.4122	1.0	ITI	n/a	n/a	n/a	n/a	n/a	n/a	n/a	n/a
200.4122	0.5	FIXCROSS	n/a	n/a	n/a	n/a	n/a	n/a	n/a	n/a
200.9122	0.6666	INK	71	Neutral	xxxxxxxx	xxxxxxxx	niebieski	blue	hit	n/a
201.5761	n/a	RESPONSE	n/a	n/a	n/a	n/a	n/a	n/a	n/a	blue
201.5789	1.0	ITI	n/a	n/a	n/a	n/a	n/a	n/a	n/a	n/a
202.5789	0.5	FIXCROSS	n/a	n/a	n/a	n/a	n/a	n/a	n/a	n/a
203.0788	0.4	INK	72	Incongruent	czerwony	red	niebieski	blue	hit	n/a
203.4628	n/a	RESPONSE	n/a	n/a	n/a	n/a	n/a	n/a	n/a	blue
203.4788	1.0333	ITI	n/a	n/a	n/a	n/a	n/a	n/a	n/a	n/a
210.4181	n/a	RESPONSE	n/a	n/a	n/a	n/a	n/a	n/a	n/a	n/a
210.4454	1.0	ITI	n/a	n/a	n/a	n/a	n/a	n/a	n/a	n/a
211.4454	0.5	FIXCROSS	n/a	n/a	n/a	n/a	n/a	n/a	n/a	n/a
211.9453	0.7667	T_COLOR_NAME	1	Neutral	czerwony	red	Neutral	Neutral	hit	n/a
212.7046	n/a	RESPONSE	n/a	n/a	n/a	n/a	n/a	n/a	n/a	red
212.712	0.5	FEEDBACK	n/a	n/a	n/a	n/a	n/a	n/a	n/a	n/a
213.212	1.0	ITI	n/a	n/a	n/a	n/a	n/a	n/a	n/a	n/a
214.212	0.5	FIXCROSS	n/a	n/a	n/a	n/a	n/a	n/a	n/a	n/a
214.712	0.65	T_COLOR_NAME	2	Neutral	niebieski	blue	Neutral	Neutral	hit	n/a
215.3428	n/a	RESPONSE	n/a	n/a	n/a	n/a	n/a	n/a	n/a	blue
215.362	0.5	FEEDBACK	n/a	n/a	n/a	n/a	n/a	n/a	n/a	n/a
215.862	1.0	ITI	n/a	n/a	n/a	n/a	n/a	n/a	n/a	n/a
216.8619	0.5	FIXCROSS	n/a	n/a	n/a	n/a	n/a	n/a	n/a	n/a
217.3619	0.5333	T_COLOR_NAME	3	Neutral	żółty	yellow	Neutral	Neutral	hit	n/a
217.8848	n/a	RESPONSE	n/a	n/a	n/a	n/a	n/a	n/a	n/a	yellow
217.8952	0.5	FEEDBACK	n/a	n/a	n/a	n/a	n/a	n/a	n/a	n/a
218.3952	1.0	ITI	n/a	n/a	n/a	n/a	n/a	n/a	n/a	n/a
219.3952	0.5	FIXCROSS	n/a	n/a	n/a	n/a	n/a	n/a	n/a	n/a
219.8952	0.35	T_COLOR_NAME	4	Incongruent	zielony	green	żółty	yellow	hit	n/a
220.2351	n/a	RESPONSE	n/a	n/a	n/a	n/a	n/a	n/a	n/a	green
220.2452	0.5	FEEDBACK	n/a	n/a	n/a	n/a	n/a	n/a	n/a	n/a
220.7452	1.0	ITI	n/a	n/a	n/a	n/a	n/a	n/a	n/a	n/a
221.7452	0.5	FIXCROSS	n/a	n/a	n/a	n/a	n/a	n/a	n/a	n/a
222.2452	0.6167	T_COLOR_NAME	5	Neutral	niebieski	blue	Neutral	Neutral	hit	n/a
222.8414	n/a	RESPONSE	n/a	n/a	n/a	n/a	n/a	n/a	n/a	blue
222.8618	0.5	FEEDBACK	n/a	n/a	n/a	n/a	n/a	n/a	n/a	n/a
223.3618	1.0	ITI	n/a	n/a	n/a	n/a	n/a	n/a	n/a	n/a
224.3618	0.5	FIXCROSS	n/a	n/a	n/a	n/a	n/a	n/a	n/a	n/a
224.8618	0.6167	T_COLOR_NAME	6	Neutral	zielony	green	Neutral	Neutral	hit	n/a
225.4636	n/a	RESPONSE	n/a	n/a	n/a	n/a	n/a	n/a	n/a	green
225.4784	0.5	FEEDBACK	n/a	n/a	n/a	n/a	n/a	n/a	n/a	n/a
225.9784	1.0	ITI	n/a	n/a	n/a	n/a	n/a	n/a	n/a	n/a
226.9784	0.5	FIXCROSS	n/a	n/a	n/a	n/a	n/a	n/a	n/a	n/a
227.4784	0.6	T_COLOR_NAME	7	Incongruent	czerwony	red	niebieski	blue	hit	n/a
228.0698	n/a	RESPONSE	n/a	n/a	n/a	n/a	n/a	n/a	n/a	red
228.0784	0.5	FEEDBACK	n/a	n/a	n/a	n/a	n/a	n/a	n/a	n/a
228.5784	1.0	ITI	n/a	n/a	n/a	n/a	n/a	n/a	n/a	n/a
229.5784	0.5	FIXCROSS	n/a	n/a	n/a	n/a	n/a	n/a	n/a	n/a
230.0784	0.7333	T_COLOR_NAME	8	Incongruent	żółty	yellow	czerwony	red	hit	n/a
230.8039	n/a	RESPONSE	n/a	n/a	n/a	n/a	n/a	n/a	n/a	yellow
230.8117	0.5	FEEDBACK	n/a	n/a	n/a	n/a	n/a	n/a	n/a	n/a
231.3117	1.0	ITI	n/a	n/a	n/a	n/a	n/a	n/a	n/a	n/a
232.3117	0.5	FIXCROSS	n/a	n/a	n/a	n/a	n/a	n/a	n/a	n/a
232.8117	0.7666	T_COLOR_NAME	9	Neutral	niebieski	blue	Neutral	Neutral	hit	n/a
233.5701	n/a	RESPONSE	n/a	n/a	n/a	n/a	n/a	n/a	n/a	blue
233.5783	0.5	FEEDBACK	n/a	n/a	n/a	n/a	n/a	n/a	n/a	n/a
234.0783	1.0	ITI	n/a	n/a	n/a	n/a	n/a	n/a	n/a	n/a
235.0783	0.5	FIXCROSS	n/a	n/a	n/a	n/a	n/a	n/a	n/a	n/a
235.5783	0.6333	T_COLOR_NAME	10	Neutral	zielony	green	Neutral	Neutral	hit	n/a
236.1923	n/a	RESPONSE	n/a	n/a	n/a	n/a	n/a	n/a	n/a	green
236.2116	0.5	FEEDBACK	n/a	n/a	n/a	n/a	n/a	n/a	n/a	n/a
236.7116	1.0	ITI	n/a	n/a	n/a	n/a	n/a	n/a	n/a	n/a
237.7116	0.5	FIXCROSS	n/a	n/a	n/a	n/a	n/a	n/a	n/a	n/a
238.2116	0.8773	T_COLOR_NAME	11	Incongruent	niebieski	blue	zielony	green	hit	n/a
239.0863	n/a	RESPONSE	n/a	n/a	n/a	n/a	n/a	n/a	n/a	blue
239.0889	0.506	FEEDBACK	n/a	n/a	n/a	n/a	n/a	n/a	n/a	n/a
239.5949	1.0	ITI	n/a	n/a	n/a	n/a	n/a	n/a	n/a	n/a
240.5948	0.5	FIXCROSS	n/a	n/a	n/a	n/a	n/a	n/a	n/a	n/a
241.0948	0.6	T_COLOR_NAME	12	Neutral	zielony	green	Neutral	Neutral	hit	n/a
241.6766	n/a	RESPONSE	n/a	n/a	n/a	n/a	n/a	n/a	n/a	green
241.6948	0.5	FEEDBACK	n/a	n/a	n/a	n/a	n/a	n/a	n/a	n/a
242.1948	1.0	ITI	n/a	n/a	n/a	n/a	n/a	n/a	n/a	n/a
246.2176	n/a	RESPONSE	n/a	n/a	n/a	n/a	n/a	n/a	n/a	n/a
246.2447	1.0	ITI	n/a	n/a	n/a	n/a	n/a	n/a	n/a	n/a
247.2447	0.5	FIXCROSS	n/a	n/a	n/a	n/a	n/a	n/a	n/a	n/a
247.7447	0.6	COLOR_NAME	1	Neutral	czerwony	red	Neutral	Neutral	hit	n/a
248.328	n/a	RESPONSE	n/a	n/a	n/a	n/a	n/a	n/a	n/a	red
248.3447	1.0	ITI	n/a	n/a	n/a	n/a	n/a	n/a	n/a	n/a
249.3447	0.5	FIXCROSS	n/a	n/a	n/a	n/a	n/a	n/a	n/a	n/a
249.8447	0.6166	COLOR_NAME	2	Incongruent	żółty	yellow	niebieski	blue	hit	n/a
250.4547	n/a	RESPONSE	n/a	n/a	n/a	n/a	n/a	n/a	n/a	yellow
250.4613	1.0	ITI	n/a	n/a	n/a	n/a	n/a	n/a	n/a	n/a
251.4613	0.5	FIXCROSS	n/a	n/a	n/a	n/a	n/a	n/a	n/a	n/a
251.9613	0.4667	COLOR_NAME	3	Neutral	żółty	yellow	Neutral	Neutral	hit	n/a
252.4213	n/a	RESPONSE	n/a	n/a	n/a	n/a	n/a	n/a	n/a	yellow
252.428	1.0	ITI	n/a	n/a	n/a	n/a	n/a	n/a	n/a	n/a
253.428	0.5	FIXCROSS	n/a	n/a	n/a	n/a	n/a	n/a	n/a	n/a
253.9279	0.6333	COLOR_NAME	4	Neutral	zielony	green	Neutral	Neutral	hit	n/a
254.5479	n/a	RESPONSE	n/a	n/a	n/a	n/a	n/a	n/a	n/a	green
254.5613	1.0	ITI	n/a	n/a	n/a	n/a	n/a	n/a	n/a	n/a
255.5613	0.5	FIXCROSS	n/a	n/a	n/a	n/a	n/a	n/a	n/a	n/a
256.0612	0.65	COLOR_NAME	5	Incongruent	żółty	yellow	czerwony	red	hit	n/a
256.7061	n/a	RESPONSE	n/a	n/a	n/a	n/a	n/a	n/a	n/a	yellow
256.7112	1.0	ITI	n/a	n/a	n/a	n/a	n/a	n/a	n/a	n/a
257.7112	0.5	FIXCROSS	n/a	n/a	n/a	n/a	n/a	n/a	n/a	n/a
258.2112	0.7333	COLOR_NAME	6	Incongruent	niebieski	blue	zielony	green	hit	n/a
258.9286	n/a	RESPONSE	n/a	n/a	n/a	n/a	n/a	n/a	n/a	blue
258.9445	1.0	ITI	n/a	n/a	n/a	n/a	n/a	n/a	n/a	n/a
259.9445	0.5	FIXCROSS	n/a	n/a	n/a	n/a	n/a	n/a	n/a	n/a
260.4445	0.55	COLOR_NAME	7	Neutral	żółty	yellow	Neutral	Neutral	hit	n/a
260.9752	n/a	RESPONSE	n/a	n/a	n/a	n/a	n/a	n/a	n/a	yellow
260.9945	1.0	ITI	n/a	n/a	n/a	n/a	n/a	n/a	n/a	n/a
261.9945	0.5	FIXCROSS	n/a	n/a	n/a	n/a	n/a	n/a	n/a	n/a
262.4945	0.6167	COLOR_NAME	8	Incongruent	czerwony	red	niebieski	blue	hit	n/a
263.1018	n/a	RESPONSE	n/a	n/a	n/a	n/a	n/a	n/a	n/a	red
263.1111	1.0	ITI	n/a	n/a	n/a	n/a	n/a	n/a	n/a	n/a
264.1111	0.5	FIXCROSS	n/a	n/a	n/a	n/a	n/a	n/a	n/a	n/a
264.6111	0.7666	COLOR_NAME	9	Incongruent	żółty	yellow	zielony	green	hit	n/a
265.3722	n/a	RESPONSE	n/a	n/a	n/a	n/a	n/a	n/a	n/a	yellow
265.3777	1.0	ITI	n/a	n/a	n/a	n/a	n/a	n/a	n/a	n/a
266.3777	0.5	FIXCROSS	n/a	n/a	n/a	n/a	n/a	n/a	n/a	n/a
266.8777	0.5482	COLOR_NAME	10	Neutral	czerwony	red	Neutral	Neutral	hit	n/a
267.4189	n/a	RESPONSE	n/a	n/a	n/a	n/a	n/a	n/a	n/a	red
267.4259	1.0018	ITI	n/a	n/a	n/a	n/a	n/a	n/a	n/a	n/a
268.4277	0.5	FIXCROSS	n/a	n/a	n/a	n/a	n/a	n/a	n/a	n/a
268.9277	0.7166	COLOR_NAME	11	Neutral	zielony	green	Neutral	Neutral	hit	n/a
269.6254	n/a	RESPONSE	n/a	n/a	n/a	n/a	n/a	n/a	n/a	green
269.6443	1.0	ITI	n/a	n/a	n/a	n/a	n/a	n/a	n/a	n/a
270.6443	0.5	FIXCROSS	n/a	n/a	n/a	n/a	n/a	n/a	n/a	n/a
271.1443	0.6167	COLOR_NAME	12	Incongruent	czerwony	red	niebieski	blue	hit	n/a
271.7519	n/a	RESPONSE	n/a	n/a	n/a	n/a	n/a	n/a	n/a	red
271.761	1.0	ITI	n/a	n/a	n/a	n/a	n/a	n/a	n/a	n/a
272.761	0.5	FIXCROSS	n/a	n/a	n/a	n/a	n/a	n/a	n/a	n/a
273.2609	0.6833	COLOR_NAME	13	Neutral	zielony	green	Neutral	Neutral	hit	n/a
273.9265	n/a	RESPONSE	n/a	n/a	n/a	n/a	n/a	n/a	n/a	green
273.9443	1.0	ITI	n/a	n/a	n/a	n/a	n/a	n/a	n/a	n/a
274.9442	0.5	FIXCROSS	n/a	n/a	n/a	n/a	n/a	n/a	n/a	n/a
275.4442	0.6167	COLOR_NAME	14	Neutral	niebieski	blue	Neutral	Neutral	hit	n/a
276.053	n/a	RESPONSE	n/a	n/a	n/a	n/a	n/a	n/a	n/a	blue
276.0609	1.0	ITI	n/a	n/a	n/a	n/a	n/a	n/a	n/a	n/a
277.0609	0.5	FIXCROSS	n/a	n/a	n/a	n/a	n/a	n/a	n/a	n/a
277.5609	0.6333	COLOR_NAME	15	Incongruent	czerwony	red	zielony	green	hit	n/a
278.1796	n/a	RESPONSE	n/a	n/a	n/a	n/a	n/a	n/a	n/a	red
278.1942	1.0	ITI	n/a	n/a	n/a	n/a	n/a	n/a	n/a	n/a
279.1942	0.5	FIXCROSS	n/a	n/a	n/a	n/a	n/a	n/a	n/a	n/a
279.6942	0.5833	COLOR_NAME	16	Neutral	zielony	green	Neutral	Neutral	hit	n/a
280.2742	n/a	RESPONSE	n/a	n/a	n/a	n/a	n/a	n/a	n/a	green
280.2775	1.0	ITI	n/a	n/a	n/a	n/a	n/a	n/a	n/a	n/a
281.2775	0.5	FIXCROSS	n/a	n/a	n/a	n/a	n/a	n/a	n/a	n/a
281.7775	0.6333	COLOR_NAME	17	Incongruent	czerwony	red	żółty	yellow	hit	n/a
282.4007	n/a	RESPONSE	n/a	n/a	n/a	n/a	n/a	n/a	n/a	red
282.4108	1.0	ITI	n/a	n/a	n/a	n/a	n/a	n/a	n/a	n/a
283.4108	0.5	FIXCROSS	n/a	n/a	n/a	n/a	n/a	n/a	n/a	n/a
283.9107	0.65	COLOR_NAME	18	Neutral	niebieski	blue	Neutral	Neutral	hit	n/a
284.5433	n/a	RESPONSE	n/a	n/a	n/a	n/a	n/a	n/a	n/a	blue
284.5607	1.0	ITI	n/a	n/a	n/a	n/a	n/a	n/a	n/a	n/a
285.5607	0.5	FIXCROSS	n/a	n/a	n/a	n/a	n/a	n/a	n/a	n/a
286.0607	0.5166	COLOR_NAME	19	Neutral	niebieski	blue	Neutral	Neutral	hit	n/a
286.574	n/a	RESPONSE	n/a	n/a	n/a	n/a	n/a	n/a	n/a	blue
286.5774	1.0	ITI	n/a	n/a	n/a	n/a	n/a	n/a	n/a	n/a
287.5774	0.5	FIXCROSS	n/a	n/a	n/a	n/a	n/a	n/a	n/a	n/a
288.0774	0.5167	COLOR_NAME	20	Incongruent	niebieski	blue	czerwony	red	hit	n/a
288.5885	n/a	RESPONSE	n/a	n/a	n/a	n/a	n/a	n/a	n/a	blue
288.594	1.0	ITI	n/a	n/a	n/a	n/a	n/a	n/a	n/a	n/a
289.594	0.5	FIXCROSS	n/a	n/a	n/a	n/a	n/a	n/a	n/a	n/a
290.094	0.6166	COLOR_NAME	21	Incongruent	żółty	yellow	czerwony	red	hit	n/a
290.6992	n/a	RESPONSE	n/a	n/a	n/a	n/a	n/a	n/a	n/a	yellow
290.7106	1.0	ITI	n/a	n/a	n/a	n/a	n/a	n/a	n/a	n/a
291.7106	0.5	FIXCROSS	n/a	n/a	n/a	n/a	n/a	n/a	n/a	n/a
292.2106	0.4667	COLOR_NAME	22	Incongruent	niebieski	blue	czerwony	red	hit	n/a
292.6659	n/a	RESPONSE	n/a	n/a	n/a	n/a	n/a	n/a	n/a	blue
292.6773	1.0	ITI	n/a	n/a	n/a	n/a	n/a	n/a	n/a	n/a
293.6772	0.5	FIXCROSS	n/a	n/a	n/a	n/a	n/a	n/a	n/a	n/a
294.1772	0.65	COLOR_NAME	23	Incongruent	zielony	green	żółty	yellow	hit	n/a
294.8244	n/a	RESPONSE	n/a	n/a	n/a	n/a	n/a	n/a	n/a	green
294.8272	1.0	ITI	n/a	n/a	n/a	n/a	n/a	n/a	n/a	n/a
295.8272	0.5	FIXCROSS	n/a	n/a	n/a	n/a	n/a	n/a	n/a	n/a
296.3272	0.5833	COLOR_NAME	24	Incongruent	niebieski	blue	żółty	yellow	hit	n/a
296.903	n/a	RESPONSE	n/a	n/a	n/a	n/a	n/a	n/a	n/a	blue
296.9105	1.0	ITI	n/a	n/a	n/a	n/a	n/a	n/a	n/a	n/a
297.9105	0.5	FIXCROSS	n/a	n/a	n/a	n/a	n/a	n/a	n/a	n/a
298.4105	0.4167	COLOR_NAME	25	Neutral	żółty	yellow	Neutral	Neutral	hit	n/a
298.8217	n/a	RESPONSE	n/a	n/a	n/a	n/a	n/a	n/a	n/a	yellow
298.8272	1.0	ITI	n/a	n/a	n/a	n/a	n/a	n/a	n/a	n/a
299.8271	0.5	FIXCROSS	n/a	n/a	n/a	n/a	n/a	n/a	n/a	n/a
300.3271	0.5333	COLOR_NAME	26	Neutral	żółty	yellow	Neutral	Neutral	hit	n/a
300.8524	n/a	RESPONSE	n/a	n/a	n/a	n/a	n/a	n/a	n/a	yellow
300.8605	1.0	ITI	n/a	n/a	n/a	n/a	n/a	n/a	n/a	n/a
301.8604	0.5	FIXCROSS	n/a	n/a	n/a	n/a	n/a	n/a	n/a	n/a
302.3604	0.5667	COLOR_NAME	27	Incongruent	czerwony	red	zielony	green	hit	n/a
302.9149	n/a	RESPONSE	n/a	n/a	n/a	n/a	n/a	n/a	n/a	red
302.9271	1.0	ITI	n/a	n/a	n/a	n/a	n/a	n/a	n/a	n/a
303.9271	0.5	FIXCROSS	n/a	n/a	n/a	n/a	n/a	n/a	n/a	n/a
304.4271	0.7	COLOR_NAME	28	Incongruent	zielony	green	czerwony	red	hit	n/a
305.1214	n/a	RESPONSE	n/a	n/a	n/a	n/a	n/a	n/a	n/a	green
305.127	1.0	ITI	n/a	n/a	n/a	n/a	n/a	n/a	n/a	n/a
306.127	0.5	FIXCROSS	n/a	n/a	n/a	n/a	n/a	n/a	n/a	n/a
306.627	0.4333	COLOR_NAME	29	Incongruent	zielony	green	czerwony	red	hit	n/a
307.056	n/a	RESPONSE	n/a	n/a	n/a	n/a	n/a	n/a	n/a	green
307.0603	1.0	ITI	n/a	n/a	n/a	n/a	n/a	n/a	n/a	n/a
308.0603	0.5	FIXCROSS	n/a	n/a	n/a	n/a	n/a	n/a	n/a	n/a
308.5603	0.5667	COLOR_NAME	30	Neutral	niebieski	blue	Neutral	Neutral	hit	n/a
309.1186	n/a	RESPONSE	n/a	n/a	n/a	n/a	n/a	n/a	n/a	blue
309.127	1.0	ITI	n/a	n/a	n/a	n/a	n/a	n/a	n/a	n/a
310.127	0.5	FIXCROSS	n/a	n/a	n/a	n/a	n/a	n/a	n/a	n/a
310.6269	0.55	COLOR_NAME	31	Neutral	czerwony	red	Neutral	Neutral	hit	n/a
311.1654	n/a	RESPONSE	n/a	n/a	n/a	n/a	n/a	n/a	n/a	red
311.1769	1.0	ITI	n/a	n/a	n/a	n/a	n/a	n/a	n/a	n/a
312.1769	0.5	FIXCROSS	n/a	n/a	n/a	n/a	n/a	n/a	n/a	n/a
312.6769	0.5667	COLOR_NAME	32	Incongruent	zielony	green	niebieski	blue	hit	n/a
313.228	n/a	RESPONSE	n/a	n/a	n/a	n/a	n/a	n/a	n/a	green
313.2436	1.0	ITI	n/a	n/a	n/a	n/a	n/a	n/a	n/a	n/a
314.2436	0.5	FIXCROSS	n/a	n/a	n/a	n/a	n/a	n/a	n/a	n/a
314.7435	0.6833	COLOR_NAME	33	Incongruent	żółty	yellow	czerwony	red	hit	n/a
315.4186	n/a	RESPONSE	n/a	n/a	n/a	n/a	n/a	n/a	n/a	yellow
315.4269	1.0	ITI	n/a	n/a	n/a	n/a	n/a	n/a	n/a	n/a
316.4269	0.5	FIXCROSS	n/a	n/a	n/a	n/a	n/a	n/a	n/a	n/a
316.9268	1.1666	COLOR_NAME	34	Incongruent	zielony	green	niebieski	blue	hit	n/a
318.0886	n/a	RESPONSE	n/a	n/a	n/a	n/a	n/a	n/a	n/a	green
318.0935	1.0	ITI	n/a	n/a	n/a	n/a	n/a	n/a	n/a	n/a
319.0935	0.5	FIXCROSS	n/a	n/a	n/a	n/a	n/a	n/a	n/a	n/a
319.5934	0.7167	COLOR_NAME	35	Neutral	żółty	yellow	Neutral	Neutral	hit	n/a
320.2952	n/a	RESPONSE	n/a	n/a	n/a	n/a	n/a	n/a	n/a	yellow
320.3101	1.0	ITI	n/a	n/a	n/a	n/a	n/a	n/a	n/a	n/a
321.3101	0.5	FIXCROSS	n/a	n/a	n/a	n/a	n/a	n/a	n/a	n/a
321.8101	0.5833	COLOR_NAME	36	Neutral	zielony	green	Neutral	Neutral	hit	n/a
322.3898	n/a	RESPONSE	n/a	n/a	n/a	n/a	n/a	n/a	n/a	green
322.3934	1.0	ITI	n/a	n/a	n/a	n/a	n/a	n/a	n/a	n/a
323.3934	0.5	FIXCROSS	n/a	n/a	n/a	n/a	n/a	n/a	n/a	n/a
323.8934	0.55	COLOR_NAME	37	Neutral	niebieski	blue	Neutral	Neutral	hit	n/a
324.4365	n/a	RESPONSE	n/a	n/a	n/a	n/a	n/a	n/a	n/a	blue
324.4434	1.0	ITI	n/a	n/a	n/a	n/a	n/a	n/a	n/a	n/a
325.4433	0.5	FIXCROSS	n/a	n/a	n/a	n/a	n/a	n/a	n/a	n/a
325.9433	0.5833	COLOR_NAME	38	Incongruent	żółty	yellow	niebieski	blue	hit	n/a
326.5151	n/a	RESPONSE	n/a	n/a	n/a	n/a	n/a	n/a	n/a	yellow
326.5267	1.0	ITI	n/a	n/a	n/a	n/a	n/a	n/a	n/a	n/a
327.5267	0.5	FIXCROSS	n/a	n/a	n/a	n/a	n/a	n/a	n/a	n/a
328.0267	0.5167	COLOR_NAME	39	Neutral	czerwony	red	Neutral	Neutral	hit	n/a
328.5297	n/a	RESPONSE	n/a	n/a	n/a	n/a	n/a	n/a	n/a	red
328.5433	1.0	ITI	n/a	n/a	n/a	n/a	n/a	n/a	n/a	n/a
329.5433	0.5	FIXCROSS	n/a	n/a	n/a	n/a	n/a	n/a	n/a	n/a
330.0433	0.7166	COLOR_NAME	40	Neutral	niebieski	blue	Neutral	Neutral	hit	n/a
330.7521	n/a	RESPONSE	n/a	n/a	n/a	n/a	n/a	n/a	n/a	blue
330.7599	1.0	ITI	n/a	n/a	n/a	n/a	n/a	n/a	n/a	n/a
331.7599	0.5	FIXCROSS	n/a	n/a	n/a	n/a	n/a	n/a	n/a	n/a
332.2599	0.6167	COLOR_NAME	41	Incongruent	czerwony	red	żółty	yellow	incorrect	n/a
332.8628	n/a	RESPONSE	n/a	n/a	n/a	n/a	n/a	n/a	n/a	yellow
332.8766	1.0	ITI	n/a	n/a	n/a	n/a	n/a	n/a	n/a	n/a
333.8765	0.5	FIXCROSS	n/a	n/a	n/a	n/a	n/a	n/a	n/a	n/a
334.3765	1.3	COLOR_NAME	42	Incongruent	niebieski	blue	zielony	green	hit	n/a
335.6609	n/a	RESPONSE	n/a	n/a	n/a	n/a	n/a	n/a	n/a	blue
335.6765	1.0	ITI	n/a	n/a	n/a	n/a	n/a	n/a	n/a	n/a
336.6765	0.5	FIXCROSS	n/a	n/a	n/a	n/a	n/a	n/a	n/a	n/a
337.1765	0.7	COLOR_NAME	43	Neutral	czerwony	red	Neutral	Neutral	hit	n/a
337.8674	n/a	RESPONSE	n/a	n/a	n/a	n/a	n/a	n/a	n/a	red
337.8765	1.0	ITI	n/a	n/a	n/a	n/a	n/a	n/a	n/a	n/a
338.8765	0.5	FIXCROSS	n/a	n/a	n/a	n/a	n/a	n/a	n/a	n/a
339.3764	0.5167	COLOR_NAME	44	Incongruent	czerwony	red	żółty	yellow	hit	n/a
339.882	n/a	RESPONSE	n/a	n/a	n/a	n/a	n/a	n/a	n/a	red
339.8931	1.0	ITI	n/a	n/a	n/a	n/a	n/a	n/a	n/a	n/a
340.8931	0.5	FIXCROSS	n/a	n/a	n/a	n/a	n/a	n/a	n/a	n/a
341.3931	0.9833	COLOR_NAME	45	Neutral	zielony	green	Neutral	Neutral	hit	n/a
342.3604	n/a	RESPONSE	n/a	n/a	n/a	n/a	n/a	n/a	n/a	green
342.3764	1.0	ITI	n/a	n/a	n/a	n/a	n/a	n/a	n/a	n/a
343.3764	0.5	FIXCROSS	n/a	n/a	n/a	n/a	n/a	n/a	n/a	n/a
343.8764	0.7667	COLOR_NAME	46	Neutral	niebieski	blue	Neutral	Neutral	hit	n/a
344.6309	n/a	RESPONSE	n/a	n/a	n/a	n/a	n/a	n/a	n/a	blue
344.643	1.0	ITI	n/a	n/a	n/a	n/a	n/a	n/a	n/a	n/a
345.643	0.5	FIXCROSS	n/a	n/a	n/a	n/a	n/a	n/a	n/a	n/a
346.143	0.5	COLOR_NAME	47	Neutral	czerwony	red	Neutral	Neutral	hit	n/a
346.6294	n/a	RESPONSE	n/a	n/a	n/a	n/a	n/a	n/a	n/a	red
346.643	1.0	ITI	n/a	n/a	n/a	n/a	n/a	n/a	n/a	n/a
347.643	0.5	FIXCROSS	n/a	n/a	n/a	n/a	n/a	n/a	n/a	n/a
348.143	1.0	COLOR_NAME	48	Incongruent	czerwony	red	niebieski	blue	hit	n/a
349.1397	n/a	RESPONSE	n/a	n/a	n/a	n/a	n/a	n/a	n/a	red
349.1429	1.0	ITI	n/a	n/a	n/a	n/a	n/a	n/a	n/a	n/a
350.1429	0.5	FIXCROSS	n/a	n/a	n/a	n/a	n/a	n/a	n/a	n/a
350.6429	0.4666	COLOR_NAME	49	Neutral	czerwony	red	Neutral	Neutral	hit	n/a
351.1064	n/a	RESPONSE	n/a	n/a	n/a	n/a	n/a	n/a	n/a	red
351.1096	1.0	ITI	n/a	n/a	n/a	n/a	n/a	n/a	n/a	n/a
352.1096	0.5	FIXCROSS	n/a	n/a	n/a	n/a	n/a	n/a	n/a	n/a
352.6095	0.6333	COLOR_NAME	50	Neutral	żółty	yellow	Neutral	Neutral	hit	n/a
353.233	n/a	RESPONSE	n/a	n/a	n/a	n/a	n/a	n/a	n/a	yellow
353.2429	1.0	ITI	n/a	n/a	n/a	n/a	n/a	n/a	n/a	n/a
354.2429	0.5	FIXCROSS	n/a	n/a	n/a	n/a	n/a	n/a	n/a	n/a
354.7428	0.6167	COLOR_NAME	51	Neutral	czerwony	red	Neutral	Neutral	hit	n/a
355.3436	n/a	RESPONSE	n/a	n/a	n/a	n/a	n/a	n/a	n/a	red
355.3595	1.0	ITI	n/a	n/a	n/a	n/a	n/a	n/a	n/a	n/a
356.3595	0.5	FIXCROSS	n/a	n/a	n/a	n/a	n/a	n/a	n/a	n/a
356.8595	0.7	COLOR_NAME	52	Neutral	niebieski	blue	Neutral	Neutral	hit	n/a
357.5501	n/a	RESPONSE	n/a	n/a	n/a	n/a	n/a	n/a	n/a	blue
357.5595	1.0	ITI	n/a	n/a	n/a	n/a	n/a	n/a	n/a	n/a
358.5594	0.5	FIXCROSS	n/a	n/a	n/a	n/a	n/a	n/a	n/a	n/a
359.0594	0.5	COLOR_NAME	53	Neutral	żółty	yellow	Neutral	Neutral	hit	n/a
359.5488	n/a	RESPONSE	n/a	n/a	n/a	n/a	n/a	n/a	n/a	yellow
359.5594	1.0	ITI	n/a	n/a	n/a	n/a	n/a	n/a	n/a	n/a
360.5594	0.5	FIXCROSS	n/a	n/a	n/a	n/a	n/a	n/a	n/a	n/a
361.0594	0.4333	COLOR_NAME	54	Neutral	żółty	yellow	Neutral	Neutral	incorrect	n/a
361.4833	n/a	RESPONSE	n/a	n/a	n/a	n/a	n/a	n/a	n/a	blue
361.4927	1.0	ITI	n/a	n/a	n/a	n/a	n/a	n/a	n/a	n/a
361.4993	n/a	RESPONSE	n/a	n/a	n/a	n/a	n/a	n/a	n/a	yellow
362.4927	0.5	FIXCROSS	n/a	n/a	n/a	n/a	n/a	n/a	n/a	n/a
362.9927	1.5166	COLOR_NAME	55	Incongruent	zielony	green	czerwony	red	hit	n/a
364.5054	n/a	RESPONSE	n/a	n/a	n/a	n/a	n/a	n/a	n/a	green
364.5093	1.0	ITI	n/a	n/a	n/a	n/a	n/a	n/a	n/a	n/a
365.5093	0.5	FIXCROSS	n/a	n/a	n/a	n/a	n/a	n/a	n/a	n/a
366.0093	1.0666	COLOR_NAME	56	Incongruent	niebieski	blue	czerwony	red	hit	n/a
367.0637	n/a	RESPONSE	n/a	n/a	n/a	n/a	n/a	n/a	n/a	blue
367.076	1.0	ITI	n/a	n/a	n/a	n/a	n/a	n/a	n/a	n/a
368.0759	0.5	FIXCROSS	n/a	n/a	n/a	n/a	n/a	n/a	n/a	n/a
368.5759	0.75	COLOR_NAME	57	Incongruent	zielony	green	niebieski	blue	hit	n/a
369.3182	n/a	RESPONSE	n/a	n/a	n/a	n/a	n/a	n/a	n/a	green
369.3259	1.0	ITI	n/a	n/a	n/a	n/a	n/a	n/a	n/a	n/a
370.3259	0.4999	FIXCROSS	n/a	n/a	n/a	n/a	n/a	n/a	n/a	n/a
370.8258	0.5167	COLOR_NAME	58	Neutral	zielony	green	Neutral	Neutral	hit	n/a
371.3328	n/a	RESPONSE	n/a	n/a	n/a	n/a	n/a	n/a	n/a	green
371.3425	1.0	ITI	n/a	n/a	n/a	n/a	n/a	n/a	n/a	n/a
372.3425	0.5	FIXCROSS	n/a	n/a	n/a	n/a	n/a	n/a	n/a	n/a
372.8425	0.7667	COLOR_NAME	59	Neutral	czerwony	red	Neutral	Neutral	hit	n/a
373.6033	n/a	RESPONSE	n/a	n/a	n/a	n/a	n/a	n/a	n/a	red
373.6092	1.0	ITI	n/a	n/a	n/a	n/a	n/a	n/a	n/a	n/a
374.6092	0.5	FIXCROSS	n/a	n/a	n/a	n/a	n/a	n/a	n/a	n/a
375.1091	0.8333	COLOR_NAME	60	Incongruent	żółty	yellow	zielony	green	hit	n/a
375.9378	n/a	RESPONSE	n/a	n/a	n/a	n/a	n/a	n/a	n/a	yellow
375.9425	1.0	ITI	n/a	n/a	n/a	n/a	n/a	n/a	n/a	n/a
376.9424	0.5	FIXCROSS	n/a	n/a	n/a	n/a	n/a	n/a	n/a	n/a
377.4424	0.6333	COLOR_NAME	61	Incongruent	żółty	yellow	zielony	green	hit	n/a
378.0642	n/a	RESPONSE	n/a	n/a	n/a	n/a	n/a	n/a	n/a	yellow
378.0758	1.0	ITI	n/a	n/a	n/a	n/a	n/a	n/a	n/a	n/a
379.0757	0.5	FIXCROSS	n/a	n/a	n/a	n/a	n/a	n/a	n/a	n/a
379.5757	0.8167	COLOR_NAME	62	Incongruent	niebieski	blue	żółty	yellow	hit	n/a
380.3827	n/a	RESPONSE	n/a	n/a	n/a	n/a	n/a	n/a	n/a	blue
380.3924	1.0	ITI	n/a	n/a	n/a	n/a	n/a	n/a	n/a	n/a
381.3924	0.5	FIXCROSS	n/a	n/a	n/a	n/a	n/a	n/a	n/a	n/a
381.8924	0.65	COLOR_NAME	63	Incongruent	żółty	yellow	niebieski	blue	hit	n/a
382.5253	n/a	RESPONSE	n/a	n/a	n/a	n/a	n/a	n/a	n/a	yellow
382.5424	1.0	ITI	n/a	n/a	n/a	n/a	n/a	n/a	n/a	n/a
383.5423	0.5	FIXCROSS	n/a	n/a	n/a	n/a	n/a	n/a	n/a	n/a
384.0423	0.8333	COLOR_NAME	64	Neutral	zielony	green	Neutral	Neutral	hit	n/a
384.8597	n/a	RESPONSE	n/a	n/a	n/a	n/a	n/a	n/a	n/a	green
384.8756	1.0	ITI	n/a	n/a	n/a	n/a	n/a	n/a	n/a	n/a
385.8756	0.5	FIXCROSS	n/a	n/a	n/a	n/a	n/a	n/a	n/a	n/a
386.3756	0.65	COLOR_NAME	65	Neutral	zielony	green	Neutral	Neutral	hit	n/a
387.0183	n/a	RESPONSE	n/a	n/a	n/a	n/a	n/a	n/a	n/a	green
387.0256	1.0	ITI	n/a	n/a	n/a	n/a	n/a	n/a	n/a	n/a
388.0256	0.5	FIXCROSS	n/a	n/a	n/a	n/a	n/a	n/a	n/a	n/a
388.5256	0.65	COLOR_NAME	66	Incongruent	zielony	green	żółty	yellow	hit	n/a
389.1609	n/a	RESPONSE	n/a	n/a	n/a	n/a	n/a	n/a	n/a	green
389.1756	1.0	ITI	n/a	n/a	n/a	n/a	n/a	n/a	n/a	n/a
390.1755	0.5	FIXCROSS	n/a	n/a	n/a	n/a	n/a	n/a	n/a	n/a
390.6755	0.9167	COLOR_NAME	67	Incongruent	niebieski	blue	zielony	green	hit	n/a
391.5753	n/a	RESPONSE	n/a	n/a	n/a	n/a	n/a	n/a	n/a	blue
391.5922	1.0	ITI	n/a	n/a	n/a	n/a	n/a	n/a	n/a	n/a
392.5922	0.5	FIXCROSS	n/a	n/a	n/a	n/a	n/a	n/a	n/a	n/a
393.0922	0.75	COLOR_NAME	68	Neutral	niebieski	blue	Neutral	Neutral	hit	n/a
393.8298	n/a	RESPONSE	n/a	n/a	n/a	n/a	n/a	n/a	n/a	blue
393.8421	1.0	ITI	n/a	n/a	n/a	n/a	n/a	n/a	n/a	n/a
394.8421	0.5	FIXCROSS	n/a	n/a	n/a	n/a	n/a	n/a	n/a	n/a
395.3421	0.8167	COLOR_NAME	69	Incongruent	czerwony	red	zielony	green	hit	n/a
396.1481	n/a	RESPONSE	n/a	n/a	n/a	n/a	n/a	n/a	n/a	red
396.1588	1.0	ITI	n/a	n/a	n/a	n/a	n/a	n/a	n/a	n/a
397.1588	0.5	FIXCROSS	n/a	n/a	n/a	n/a	n/a	n/a	n/a	n/a
397.6587	0.8	COLOR_NAME	70	Incongruent	niebieski	blue	żółty	yellow	hit	n/a
398.4506	n/a	RESPONSE	n/a	n/a	n/a	n/a	n/a	n/a	n/a	blue
398.4587	1.0	ITI	n/a	n/a	n/a	n/a	n/a	n/a	n/a	n/a
399.4587	0.5	FIXCROSS	n/a	n/a	n/a	n/a	n/a	n/a	n/a	n/a
399.9587	0.75	COLOR_NAME	71	Neutral	żółty	yellow	Neutral	Neutral	hit	n/a
400.7051	n/a	RESPONSE	n/a	n/a	n/a	n/a	n/a	n/a	n/a	yellow
400.7087	1.0	ITI	n/a	n/a	n/a	n/a	n/a	n/a	n/a	n/a
401.7087	0.5	FIXCROSS	n/a	n/a	n/a	n/a	n/a	n/a	n/a	n/a
402.2087	0.8167	COLOR_NAME	72	Incongruent	zielony	green	żółty	yellow	hit	n/a
403.0076	n/a	RESPONSE	n/a	n/a	n/a	n/a	n/a	n/a	n/a	green
403.0253	1.0	ITI	n/a	n/a	n/a	n/a	n/a	n/a	n/a	n/a
406.2214	n/a	RESPONSE	n/a	n/a	n/a	n/a	n/a	n/a	n/a	n/a
