onset	duration	trial_type	n_back_condition	trial_number	stimulus	response_type
0.0	n/a	RESPONSE	n/a	n/a	n/a	n/a
0.024	1.0	ISI	n/a	n/a	n/a	n/a
1.024	0.5	DISTRACTOR	1	1	D	Correct Rejection
1.524	1.0	ISI	n/a	n/a	n/a	n/a
2.524	0.5	TARGET	1	2	D	Hit
2.7979	n/a	RESPONSE	n/a	n/a	n/a	n/a
3.024	1.0	ISI	n/a	n/a	n/a	n/a
4.024	0.5	TARGET	1	3	D	Hit
4.3488	n/a	RESPONSE	n/a	n/a	n/a	n/a
4.524	1.0	ISI	n/a	n/a	n/a	n/a
5.5239	0.5	DISTRACTOR	1	4	F	Correct Rejection
6.0239	1.0	ISI	n/a	n/a	n/a	n/a
7.0239	0.5	DISTRACTOR	1	5	C	Correct Rejection
7.5239	1.0	ISI	n/a	n/a	n/a	n/a
8.5239	0.5	TARGET	1	6	C	Hit
8.8737	n/a	RESPONSE	n/a	n/a	n/a	n/a
9.0239	1.0	ISI	n/a	n/a	n/a	n/a
10.0239	0.5	DISTRACTOR	1	7	F	Correct Rejection
10.5238	1.0	ISI	n/a	n/a	n/a	n/a
11.5238	0.5	TARGET	1	8	F	Hit
12.0076	n/a	RESPONSE	n/a	n/a	n/a	n/a
12.0238	1.0	ISI	n/a	n/a	n/a	n/a
13.0238	0.5	DISTRACTOR	1	9	H	Correct Rejection
13.5238	1.0	ISI	n/a	n/a	n/a	n/a
14.5238	0.5	TARGET	1	10	H	Hit
14.8217	n/a	RESPONSE	n/a	n/a	n/a	n/a
15.0238	1.0	ISI	n/a	n/a	n/a	n/a
16.0238	0.5	DISTRACTOR	1	11	F	Correct Rejection
16.5238	1.0	ISI	n/a	n/a	n/a	n/a
17.5237	0.5	DISTRACTOR	1	12	I	Correct Rejection
18.0237	1.0	ISI	n/a	n/a	n/a	n/a
19.0237	0.5	DISTRACTOR	1	13	H	Correct Rejection
19.5237	1.0	ISI	n/a	n/a	n/a	n/a
20.5237	0.5	DISTRACTOR	1	14	C	Correct Rejection
21.0237	1.0	ISI	n/a	n/a	n/a	n/a
22.0237	0.5	DISTRACTOR	1	15	F	Correct Rejection
22.5236	1.0	ISI	n/a	n/a	n/a	n/a
23.5236	0.5	DISTRACTOR	1	16	E	Correct Rejection
24.0236	1.0	ISI	n/a	n/a	n/a	n/a
25.0236	0.5	DISTRACTOR	1	17	C	Correct Rejection
25.5236	1.0	ISI	n/a	n/a	n/a	n/a
26.5236	0.5	DISTRACTOR	1	18	J	Correct Rejection
27.0236	1.0	ISI	n/a	n/a	n/a	n/a
28.0236	0.5	DISTRACTOR	1	19	I	Correct Rejection
28.5235	1.0	ISI	n/a	n/a	n/a	n/a
29.5235	0.5	DISTRACTOR	1	20	H	Correct Rejection
30.0235	1.0	ISI	n/a	n/a	n/a	n/a
31.0235	0.5	DISTRACTOR	1	21	D	Correct Rejection
31.5235	1.0	ISI	n/a	n/a	n/a	n/a
32.5235	0.5	DISTRACTOR	1	22	G	Correct Rejection
33.0235	1.0	ISI	n/a	n/a	n/a	n/a
34.0234	0.5	DISTRACTOR	1	23	F	Correct Rejection
34.5234	1.0	ISI	n/a	n/a	n/a	n/a
35.5234	0.5	DISTRACTOR	1	24	H	Correct Rejection
36.0234	1.0	ISI	n/a	n/a	n/a	n/a
37.0234	0.5	DISTRACTOR	1	25	A	Correct Rejection
37.5234	1.0	ISI	n/a	n/a	n/a	n/a
38.5234	0.5	DISTRACTOR	1	26	E	Correct Rejection
39.0234	1.0	ISI	n/a	n/a	n/a	n/a
40.0233	0.5	DISTRACTOR	1	27	B	Correct Rejection
40.5233	1.0	ISI	n/a	n/a	n/a	n/a
41.5233	0.5	DISTRACTOR	1	28	G	Correct Rejection
42.0233	1.0	ISI	n/a	n/a	n/a	n/a
43.0233	0.5	DISTRACTOR	1	29	I	Correct Rejection
43.5233	1.0	ISI	n/a	n/a	n/a	n/a
44.5233	0.5	DISTRACTOR	1	30	C	Correct Rejection
45.0233	1.0	ISI	n/a	n/a	n/a	n/a
46.0232	0.5	DISTRACTOR	1	31	H	Correct Rejection
46.5232	1.0	ISI	n/a	n/a	n/a	n/a
47.5232	0.5	DISTRACTOR	1	32	C	Correct Rejection
48.0232	1.0	ISI	n/a	n/a	n/a	n/a
49.0232	0.5	DISTRACTOR	1	33	A	Correct Rejection
49.5232	1.0	ISI	n/a	n/a	n/a	n/a
50.5232	0.5	TARGET	1	34	A	Hit
50.9574	n/a	RESPONSE	n/a	n/a	n/a	n/a
51.0232	1.0	ISI	n/a	n/a	n/a	n/a
52.0231	0.5	DISTRACTOR	1	35	D	Correct Rejection
52.5231	1.0	ISI	n/a	n/a	n/a	n/a
53.5231	0.5	TARGET	1	36	D	Hit
53.8035	n/a	RESPONSE	n/a	n/a	n/a	n/a
54.0231	1.0	ISI	n/a	n/a	n/a	n/a
55.0231	0.5	DISTRACTOR	1	37	B	Correct Rejection
55.5231	1.0	ISI	n/a	n/a	n/a	n/a
56.5231	0.5	DISTRACTOR	1	38	A	Correct Rejection
57.0231	1.0	ISI	n/a	n/a	n/a	n/a
58.023	0.5	DISTRACTOR	1	39	G	Correct Rejection
58.523	1.0	ISI	n/a	n/a	n/a	n/a
59.523	0.5	DISTRACTOR	1	40	E	Correct Rejection
60.023	1.0	ISI	n/a	n/a	n/a	n/a
61.023	0.5	DISTRACTOR	1	41	F	Correct Rejection
61.523	1.0	ISI	n/a	n/a	n/a	n/a
62.5229	0.5	DISTRACTOR	1	42	E	False Alarm
62.9334	n/a	RESPONSE	n/a	n/a	n/a	n/a
63.0229	1.0	ISI	n/a	n/a	n/a	n/a
64.0229	0.5	DISTRACTOR	1	43	J	Correct Rejection
64.5229	1.0	ISI	n/a	n/a	n/a	n/a
65.5229	0.5	TARGET	1	44	J	Hit
65.8594	n/a	RESPONSE	n/a	n/a	n/a	n/a
66.0229	1.0	ISI	n/a	n/a	n/a	n/a
67.0229	0.5	TARGET	1	45	J	Hit
67.5229	1.0	ISI	n/a	n/a	n/a	n/a
67.6341	n/a	RESPONSE	n/a	n/a	n/a	n/a
68.5228	0.5	DISTRACTOR	1	46	D	Correct Rejection
69.0228	1.0	ISI	n/a	n/a	n/a	n/a
70.0228	0.5	TARGET	1	47	D	Hit
70.3204	n/a	RESPONSE	n/a	n/a	n/a	n/a
70.5228	1.0	ISI	n/a	n/a	n/a	n/a
71.5228	0.5	DISTRACTOR	1	48	E	Correct Rejection
72.0228	1.0	ISI	n/a	n/a	n/a	n/a
73.0228	0.5	DISTRACTOR	1	49	J	Correct Rejection
73.5228	1.0	ISI	n/a	n/a	n/a	n/a
74.5228	0.5	DISTRACTOR	1	50	I	Correct Rejection
75.0227	1.0666	ISI	n/a	n/a	n/a	n/a
83.3196	n/a	RESPONSE	n/a	n/a	n/a	n/a
83.3559	1.0	ISI	n/a	n/a	n/a	n/a
84.3559	0.5	DISTRACTOR	2	1	J	Correct Rejection
84.8559	1.0	ISI	n/a	n/a	n/a	n/a
85.8559	0.5	DISTRACTOR	2	2	B	Correct Rejection
86.3559	1.0	ISI	n/a	n/a	n/a	n/a
87.3559	0.5	TARGET	2	3	J	Hit
87.7486	n/a	RESPONSE	n/a	n/a	n/a	n/a
87.8558	1.0	ISI	n/a	n/a	n/a	n/a
88.8558	0.5	DISTRACTOR	2	4	J	Correct Rejection
89.3558	1.0	ISI	n/a	n/a	n/a	n/a
90.3558	0.5	DISTRACTOR	2	5	F	False Alarm
90.8558	1.0	ISI	n/a	n/a	n/a	n/a
91.0265	n/a	RESPONSE	n/a	n/a	n/a	n/a
91.8558	0.5	DISTRACTOR	2	6	B	Correct Rejection
92.3558	1.0	ISI	n/a	n/a	n/a	n/a
93.3557	0.5	TARGET	2	7	F	Hit
93.8557	1.0	ISI	n/a	n/a	n/a	n/a
94.0003	n/a	RESPONSE	n/a	n/a	n/a	n/a
94.8557	0.5	DISTRACTOR	2	8	E	Correct Rejection
95.3557	1.0	ISI	n/a	n/a	n/a	n/a
96.3557	0.5	DISTRACTOR	2	9	H	Correct Rejection
96.8557	1.0	ISI	n/a	n/a	n/a	n/a
97.8557	0.5	DISTRACTOR	2	10	F	Correct Rejection
98.3557	1.0	ISI	n/a	n/a	n/a	n/a
99.3556	0.5	DISTRACTOR	2	11	E	Correct Rejection
99.8556	1.0	ISI	n/a	n/a	n/a	n/a
100.8556	0.5	DISTRACTOR	2	12	D	Correct Rejection
101.3556	1.0	ISI	n/a	n/a	n/a	n/a
102.3556	0.5	DISTRACTOR	2	13	B	Correct Rejection
102.8556	1.0	ISI	n/a	n/a	n/a	n/a
103.8556	0.5	DISTRACTOR	2	14	F	Correct Rejection
104.3556	1.0	ISI	n/a	n/a	n/a	n/a
105.3555	0.5	TARGET	2	15	B	Hit
105.8555	1.0	ISI	n/a	n/a	n/a	n/a
105.9923	n/a	RESPONSE	n/a	n/a	n/a	n/a
106.8555	0.5	DISTRACTOR	2	16	B	False Alarm
107.3555	1.0	ISI	n/a	n/a	n/a	n/a
107.4154	n/a	RESPONSE	n/a	n/a	n/a	n/a
108.3555	0.5	DISTRACTOR	2	17	H	Correct Rejection
108.8555	1.0	ISI	n/a	n/a	n/a	n/a
109.8555	0.5	DISTRACTOR	2	18	J	Correct Rejection
110.3555	1.0	ISI	n/a	n/a	n/a	n/a
111.3554	0.5	TARGET	2	19	H	Hit
111.8444	n/a	RESPONSE	n/a	n/a	n/a	n/a
111.8554	1.0	ISI	n/a	n/a	n/a	n/a
112.8554	0.5	DISTRACTOR	2	20	F	Correct Rejection
113.3554	1.0	ISI	n/a	n/a	n/a	n/a
114.3554	0.5	DISTRACTOR	2	21	G	Correct Rejection
114.8554	1.0	ISI	n/a	n/a	n/a	n/a
115.8553	0.5	DISTRACTOR	2	22	D	Correct Rejection
116.3554	1.0	ISI	n/a	n/a	n/a	n/a
117.3553	0.5	DISTRACTOR	2	23	B	Correct Rejection
117.8553	1.0	ISI	n/a	n/a	n/a	n/a
118.8553	0.5	DISTRACTOR	2	24	C	Correct Rejection
119.3553	1.0	ISI	n/a	n/a	n/a	n/a
120.3553	0.5	DISTRACTOR	2	25	E	Correct Rejection
120.8553	1.0	ISI	n/a	n/a	n/a	n/a
121.8553	0.5	DISTRACTOR	2	26	J	Correct Rejection
122.3552	1.0	ISI	n/a	n/a	n/a	n/a
123.3552	0.5	TARGET	2	27	E	Hit
123.7403	n/a	RESPONSE	n/a	n/a	n/a	n/a
123.8552	1.0	ISI	n/a	n/a	n/a	n/a
124.8552	0.5	TARGET	2	28	J	Hit
125.3552	1.0	ISI	n/a	n/a	n/a	n/a
125.435	n/a	RESPONSE	n/a	n/a	n/a	n/a
126.3552	0.5	TARGET	2	29	E	Hit
126.6663	n/a	RESPONSE	n/a	n/a	n/a	n/a
126.8552	1.0	ISI	n/a	n/a	n/a	n/a
127.8551	0.5	DISTRACTOR	2	30	H	Correct Rejection
128.3551	1.0	ISI	n/a	n/a	n/a	n/a
129.3551	0.5	DISTRACTOR	2	31	J	False Alarm
129.6563	n/a	RESPONSE	n/a	n/a	n/a	n/a
129.8551	1.0	ISI	n/a	n/a	n/a	n/a
130.8551	0.5	DISTRACTOR	2	32	B	Correct Rejection
131.3551	1.0	ISI	n/a	n/a	n/a	n/a
132.3551	0.5	TARGET	2	33	J	Hit
132.7262	n/a	RESPONSE	n/a	n/a	n/a	n/a
132.8551	1.0	ISI	n/a	n/a	n/a	n/a
133.855	0.5	DISTRACTOR	2	34	H	Correct Rejection
134.355	1.0	ISI	n/a	n/a	n/a	n/a
135.355	0.5	DISTRACTOR	2	35	I	Correct Rejection
135.855	1.0	ISI	n/a	n/a	n/a	n/a
136.855	0.5	DISTRACTOR	2	36	E	Correct Rejection
137.355	1.0	ISI	n/a	n/a	n/a	n/a
138.355	0.5	DISTRACTOR	2	37	G	Correct Rejection
138.8549	1.0	ISI	n/a	n/a	n/a	n/a
139.8549	0.5	DISTRACTOR	2	38	J	Correct Rejection
140.3549	1.0	ISI	n/a	n/a	n/a	n/a
141.3549	0.5	DISTRACTOR	2	39	C	Correct Rejection
141.8549	1.0	ISI	n/a	n/a	n/a	n/a
142.8549	0.5	DISTRACTOR	2	40	H	Correct Rejection
143.3549	1.0	ISI	n/a	n/a	n/a	n/a
144.3549	0.5	DISTRACTOR	2	41	D	Correct Rejection
144.8548	1.0	ISI	n/a	n/a	n/a	n/a
145.8548	0.5	DISTRACTOR	2	42	G	Correct Rejection
146.3548	1.0	ISI	n/a	n/a	n/a	n/a
147.3548	0.5	DISTRACTOR	2	43	F	Correct Rejection
147.8548	1.0	ISI	n/a	n/a	n/a	n/a
148.8548	0.5	TARGET	2	44	G	Hit
149.291	n/a	RESPONSE	n/a	n/a	n/a	n/a
149.3548	1.0	ISI	n/a	n/a	n/a	n/a
150.3547	0.5	DISTRACTOR	2	45	I	Correct Rejection
150.8547	1.0	ISI	n/a	n/a	n/a	n/a
151.8547	0.5	DISTRACTOR	2	46	F	Correct Rejection
152.3547	1.0	ISI	n/a	n/a	n/a	n/a
153.3547	0.5	DISTRACTOR	2	47	G	False Alarm
153.8547	1.0	ISI	n/a	n/a	n/a	n/a
153.8639	n/a	RESPONSE	n/a	n/a	n/a	n/a
154.8547	0.5	DISTRACTOR	2	48	I	False Alarm
155.3547	1.0	ISI	n/a	n/a	n/a	n/a
155.4627	n/a	RESPONSE	n/a	n/a	n/a	n/a
156.3546	0.5	TARGET	2	49	G	Hit
156.646	n/a	RESPONSE	n/a	n/a	n/a	n/a
156.8546	1.0	ISI	n/a	n/a	n/a	n/a
157.8546	0.5	DISTRACTOR	2	50	H	Correct Rejection
158.3546	1.05	ISI	n/a	n/a	n/a	n/a
167.6946	n/a	RESPONSE	n/a	n/a	n/a	n/a
167.7211	1.0	ISI	n/a	n/a	n/a	n/a
168.7211	0.5	DISTRACTOR	3	1	E	Correct Rejection
169.2211	1.0	ISI	n/a	n/a	n/a	n/a
170.2211	0.5	DISTRACTOR	3	2	H	Correct Rejection
170.7211	1.0	ISI	n/a	n/a	n/a	n/a
171.721	0.5	DISTRACTOR	3	3	F	Correct Rejection
172.221	1.0	ISI	n/a	n/a	n/a	n/a
173.221	0.5	DISTRACTOR	3	4	I	Correct Rejection
173.721	1.0	ISI	n/a	n/a	n/a	n/a
174.721	0.5	TARGET	3	5	H	Hit
175.1615	n/a	RESPONSE	n/a	n/a	n/a	n/a
175.221	1.0	ISI	n/a	n/a	n/a	n/a
176.221	0.5	TARGET	3	6	F	Hit
176.721	1.0	ISI	n/a	n/a	n/a	n/a
176.8563	n/a	RESPONSE	n/a	n/a	n/a	n/a
177.7209	0.5	TARGET	3	7	I	Hit
178.0236	n/a	RESPONSE	n/a	n/a	n/a	n/a
178.2209	1.0	ISI	n/a	n/a	n/a	n/a
179.2209	0.5	DISTRACTOR	3	8	G	Correct Rejection
179.7209	1.0	ISI	n/a	n/a	n/a	n/a
180.7209	0.5	DISTRACTOR	3	9	A	Correct Rejection
181.2209	1.0	ISI	n/a	n/a	n/a	n/a
182.2208	0.5	TARGET	3	10	I	Hit
182.7208	1.0	ISI	n/a	n/a	n/a	n/a
182.7564	n/a	RESPONSE	n/a	n/a	n/a	n/a
183.7208	0.5	DISTRACTOR	3	11	J	Correct Rejection
184.2208	1.0	ISI	n/a	n/a	n/a	n/a
185.2208	0.5	DISTRACTOR	3	12	C	Correct Rejection
185.7208	1.0	ISI	n/a	n/a	n/a	n/a
186.7208	0.5	TARGET	3	13	I	Hit
187.0736	n/a	RESPONSE	n/a	n/a	n/a	n/a
187.2208	1.0	ISI	n/a	n/a	n/a	n/a
188.2208	0.5	DISTRACTOR	3	14	E	Correct Rejection
188.7207	1.0	ISI	n/a	n/a	n/a	n/a
189.7207	0.5	DISTRACTOR	3	15	H	Correct Rejection
190.2207	1.0	ISI	n/a	n/a	n/a	n/a
191.2207	0.5	DISTRACTOR	3	16	H	Correct Rejection
191.7207	1.0	ISI	n/a	n/a	n/a	n/a
192.7207	0.5	DISTRACTOR	3	17	I	Correct Rejection
193.2207	1.0	ISI	n/a	n/a	n/a	n/a
194.2206	0.5	DISTRACTOR	3	18	F	Correct Rejection
194.7206	1.0	ISI	n/a	n/a	n/a	n/a
195.7206	0.5	DISTRACTOR	3	19	J	Correct Rejection
196.2206	1.0	ISI	n/a	n/a	n/a	n/a
197.2206	0.5	DISTRACTOR	3	20	D	Correct Rejection
197.7206	1.0	ISI	n/a	n/a	n/a	n/a
198.7206	0.5	TARGET	3	21	F	Hit
199.2206	1.0	ISI	n/a	n/a	n/a	n/a
199.2573	n/a	RESPONSE	n/a	n/a	n/a	n/a
200.2205	0.5	DISTRACTOR	3	22	I	False Alarm
200.7205	1.0	ISI	n/a	n/a	n/a	n/a
200.7283	n/a	RESPONSE	n/a	n/a	n/a	n/a
201.7205	0.5	DISTRACTOR	3	23	J	Correct Rejection
202.2205	1.0	ISI	n/a	n/a	n/a	n/a
203.2205	0.5	DISTRACTOR	3	24	A	Correct Rejection
203.7205	1.0	ISI	n/a	n/a	n/a	n/a
204.7205	0.5	DISTRACTOR	3	25	D	Correct Rejection
205.2205	1.0	ISI	n/a	n/a	n/a	n/a
206.2204	0.5	DISTRACTOR	3	26	F	Correct Rejection
206.7204	1.0	ISI	n/a	n/a	n/a	n/a
207.7204	0.5	DISTRACTOR	3	27	C	Correct Rejection
208.2204	0.9999	ISI	n/a	n/a	n/a	n/a
209.2203	0.5	TARGET	3	28	D	Miss
209.7204	1.0	ISI	n/a	n/a	n/a	n/a
210.7204	0.5	TARGET	3	29	F	Hit
211.2203	1.0	ISI	n/a	n/a	n/a	n/a
211.601	n/a	RESPONSE	n/a	n/a	n/a	n/a
212.2203	0.5	DISTRACTOR	3	30	E	Correct Rejection
212.7203	1.0	ISI	n/a	n/a	n/a	n/a
213.7203	0.5	DISTRACTOR	3	31	A	Correct Rejection
214.2203	1.0	ISI	n/a	n/a	n/a	n/a
215.2203	0.5	TARGET	3	32	F	Miss
215.7202	1.0	ISI	n/a	n/a	n/a	n/a
216.7202	0.5	DISTRACTOR	3	33	G	Correct Rejection
217.2202	1.0	ISI	n/a	n/a	n/a	n/a
218.2202	0.4999	DISTRACTOR	3	34	E	Correct Rejection
218.7202	1.0	ISI	n/a	n/a	n/a	n/a
219.7202	0.5	DISTRACTOR	3	35	A	Correct Rejection
220.2202	1.0	ISI	n/a	n/a	n/a	n/a
221.2202	0.5	DISTRACTOR	3	36	D	Correct Rejection
221.7202	1.0	ISI	n/a	n/a	n/a	n/a
222.7201	0.5	DISTRACTOR	3	37	J	Correct Rejection
223.2201	1.0	ISI	n/a	n/a	n/a	n/a
224.2201	0.5	DISTRACTOR	3	38	I	Correct Rejection
224.7201	1.0	ISI	n/a	n/a	n/a	n/a
225.7201	0.5	DISTRACTOR	3	39	B	Correct Rejection
226.2201	1.0	ISI	n/a	n/a	n/a	n/a
227.2201	0.5	DISTRACTOR	3	40	F	Correct Rejection
227.7201	1.0	ISI	n/a	n/a	n/a	n/a
228.72	0.5	DISTRACTOR	3	41	H	Correct Rejection
229.22	1.0	ISI	n/a	n/a	n/a	n/a
230.22	0.5	DISTRACTOR	3	42	A	False Alarm
230.72	1.0	ISI	n/a	n/a	n/a	n/a
230.724	n/a	RESPONSE	n/a	n/a	n/a	n/a
231.72	0.5	DISTRACTOR	3	43	B	False Alarm
232.22	1.0	ISI	n/a	n/a	n/a	n/a
232.8026	n/a	RESPONSE	n/a	n/a	n/a	n/a
233.22	0.5	DISTRACTOR	3	44	I	False Alarm
233.712	n/a	RESPONSE	n/a	n/a	n/a	n/a
233.72	1.0	ISI	n/a	n/a	n/a	n/a
234.7199	0.5	DISTRACTOR	3	45	H	Correct Rejection
235.2199	1.0	ISI	n/a	n/a	n/a	n/a
236.2199	0.5	DISTRACTOR	3	46	A	Correct Rejection
236.7199	1.0	ISI	n/a	n/a	n/a	n/a
237.7199	0.5	DISTRACTOR	3	47	J	Correct Rejection
238.2199	1.0	ISI	n/a	n/a	n/a	n/a
239.2199	0.5	DISTRACTOR	3	48	A	False Alarm
239.5981	n/a	RESPONSE	n/a	n/a	n/a	n/a
239.7198	1.0	ISI	n/a	n/a	n/a	n/a
240.7198	0.5	DISTRACTOR	3	49	D	Correct Rejection
241.2198	1.0	ISI	n/a	n/a	n/a	n/a
242.2198	0.5	TARGET	3	50	J	Hit
242.6359	n/a	RESPONSE	n/a	n/a	n/a	n/a
242.7198	1.0	ISI	n/a	n/a	n/a	n/a
244.7464	n/a	RESPONSE	n/a	n/a	n/a	n/a
