onset	duration	trial_type	braille_stimulus	targets	response_count
2.018	2.008	CUE_6_DOT	n/a	n/a	n/a
7.018	1.009	FIXCROSS	n/a	n/a	n/a
8.035	5.008	6_DOT_DETECTION	ALCSD	0	n/a
13.068	1.008	FIXCROSS	n/a	n/a	n/a
14.085	5.008	6_DOT_DETECTION	TBLTL	0	n/a
19.118	1.008	FIXCROSS	n/a	n/a	n/a
19.28	n/a	RESPONSE	n/a	n/a	1/0
20.134	5.009	6_DOT_DETECTION	Ł#AUT	1	n/a
22.0	n/a	RESPONSE	n/a	n/a	1/1
25.168	1.008	FIXCROSS	n/a	n/a	n/a
26.184	5.009	6_DOT_DETECTION	T#BYŁ	1	n/a
27.96	n/a	RESPONSE	n/a	n/a	1/1
31.218	1.008	FIXCROSS	n/a	n/a	n/a
32.235	5.008	6_DOT_DETECTION	YUUIC	0	n/a
37.268	1.008	FIXCROSS	n/a	n/a	n/a
38.284	5.009	6_DOT_DETECTION	OLPDT	0	n/a
43.318	1.008	FIXCROSS	n/a	n/a	n/a
44.334	5.009	6_DOT_DETECTION	LUB#L	1	n/a
47.68	n/a	RESPONSE	n/a	n/a	1/1
48.896	n/a	RESPONSE	n/a	n/a	2/1
49.368	1.008	FIXCROSS	n/a	n/a	n/a
50.384	5.009	6_DOT_DETECTION	##BUS	2	n/a
52.28	n/a	RESPONSE	n/a	n/a	1/2
53.4	n/a	RESPONSE	n/a	n/a	2/2
57.426	2.008	CUE_REST	n/a	n/a	n/a
62.426	1.008	FIXCROSS	n/a	n/a	n/a
68.476	1.008	FIXCROSS	n/a	n/a	n/a
75.535	2.008	CUE_6_DOT	n/a	n/a	n/a
80.535	1.008	FIXCROSS	n/a	n/a	n/a
81.551	5.009	6_DOT_DETECTION	PLDYŁ	0	n/a
86.585	1.008	FIXCROSS	n/a	n/a	n/a
87.602	5.008	6_DOT_DETECTION	EKDDK	0	n/a
92.635	1.008	FIXCROSS	n/a	n/a	n/a
93.651	5.009	6_DOT_DETECTION	BEL#A	1	n/a
96.816	n/a	RESPONSE	n/a	n/a	1/1
98.685	1.008	FIXCROSS	n/a	n/a	n/a
99.701	5.009	6_DOT_DETECTION	MYŁ##	2	n/a
101.496	n/a	RESPONSE	n/a	n/a	1/2
102.84	n/a	RESPONSE	n/a	n/a	2/2
103.736	n/a	RESPONSE	n/a	n/a	3/2
104.735	1.008	FIXCROSS	n/a	n/a	n/a
105.751	5.009	6_DOT_DETECTION	#PSA#	2	n/a
106.816	n/a	RESPONSE	n/a	n/a	1/2
109.376	n/a	RESPONSE	n/a	n/a	2/2
110.785	1.008	FIXCROSS	n/a	n/a	n/a
111.801	5.009	6_DOT_DETECTION	LKCKY	0	n/a
116.835	1.008	FIXCROSS	n/a	n/a	n/a
117.851	5.009	6_DOT_DETECTION	##TYK	2	n/a
118.896	n/a	RESPONSE	n/a	n/a	1/2
119.736	n/a	RESPONSE	n/a	n/a	2/2
122.885	1.008	FIXCROSS	n/a	n/a	n/a
123.901	5.009	6_DOT_DETECTION	L#MSY	1	n/a
125.736	n/a	RESPONSE	n/a	n/a	1/1
130.443	2.008	CUE_REST	n/a	n/a	n/a
136.943	1.008	FIXCROSS	n/a	n/a	n/a
142.993	1.008	FIXCROSS	n/a	n/a	n/a
150.552	2.008	CUE_6_DOT	n/a	n/a	n/a
157.052	1.008	FIXCROSS	n/a	n/a	n/a
158.068	5.009	6_DOT_DETECTION	MEM##	2	n/a
160.88	n/a	RESPONSE	n/a	n/a	1/2
162.08	n/a	RESPONSE	n/a	n/a	2/2
163.102	1.008	FIXCROSS	n/a	n/a	n/a
164.118	5.009	6_DOT_DETECTION	##MAP	2	n/a
165.616	n/a	RESPONSE	n/a	n/a	1/2
166.48	n/a	RESPONSE	n/a	n/a	2/2
169.152	1.008	FIXCROSS	n/a	n/a	n/a
170.168	5.008	6_DOT_DETECTION	ETITU	0	n/a
175.202	1.008	FIXCROSS	n/a	n/a	n/a
176.218	5.008	6_DOT_DETECTION	BB#EU	1	n/a
178.0	n/a	RESPONSE	n/a	n/a	1/1
181.252	1.008	FIXCROSS	n/a	n/a	n/a
182.268	5.008	6_DOT_DETECTION	EASLS	0	n/a
187.302	1.008	FIXCROSS	n/a	n/a	n/a
188.318	5.008	6_DOT_DETECTION	#OKA#	2	n/a
189.52	n/a	RESPONSE	n/a	n/a	1/2
191.856	n/a	RESPONSE	n/a	n/a	2/2
193.352	1.008	FIXCROSS	n/a	n/a	n/a
194.368	5.009	6_DOT_DETECTION	##UDA	2	n/a
195.856	n/a	RESPONSE	n/a	n/a	1/2
196.896	n/a	RESPONSE	n/a	n/a	2/2
199.402	1.008	FIXCROSS	n/a	n/a	n/a
200.418	5.008	6_DOT_DETECTION	PTEIŁ	0	n/a
206.96	2.008	CUE_REST	n/a	n/a	n/a
211.46	1.008	FIXCROSS	n/a	n/a	n/a
217.51	1.008	FIXCROSS	n/a	n/a	n/a
225.568	2.008	CUE_6_DOT	n/a	n/a	n/a
231.568	1.008	FIXCROSS	n/a	n/a	n/a
232.584	5.009	6_DOT_DETECTION	UPU#I	1	n/a
235.6	n/a	RESPONSE	n/a	n/a	1/1
237.618	1.008	FIXCROSS	n/a	n/a	n/a
238.635	5.008	6_DOT_DETECTION	PIUCD	0	n/a
243.668	1.008	FIXCROSS	n/a	n/a	n/a
244.685	5.008	6_DOT_DETECTION	DIP##	2	n/a
248.016	n/a	RESPONSE	n/a	n/a	1/2
249.718	1.008	FIXCROSS	n/a	n/a	n/a
249.72	n/a	RESPONSE	n/a	n/a	2/2
250.735	5.008	6_DOT_DETECTION	#EKS#	2	n/a
252.736	n/a	RESPONSE	n/a	n/a	1/2
255.175	n/a	RESPONSE	n/a	n/a	2/2
255.768	1.008	FIXCROSS	n/a	n/a	n/a
256.784	5.009	6_DOT_DETECTION	AOKEB	0	n/a
261.818	1.008	FIXCROSS	n/a	n/a	n/a
262.834	5.009	6_DOT_DETECTION	KC#UT	1	n/a
265.36	n/a	RESPONSE	n/a	n/a	1/1
267.868	1.008	FIXCROSS	n/a	n/a	n/a
268.884	5.009	6_DOT_DETECTION	#BCCL	1	n/a
269.975	n/a	RESPONSE	n/a	n/a	1/1
273.918	1.008	FIXCROSS	n/a	n/a	n/a
274.934	5.009	6_DOT_DETECTION	#LIS#	2	n/a
276.495	n/a	RESPONSE	n/a	n/a	1/2
277.36	n/a	RESPONSE	n/a	n/a	2/2
279.159	n/a	RESPONSE	n/a	n/a	3/2
281.976	2.008	CUE_REST	n/a	n/a	n/a
285.976	1.008	FIXCROSS	n/a	n/a	n/a
292.026	1.008	FIXCROSS	n/a	n/a	n/a
299.585	2.008	CUE_6_DOT	n/a	n/a	n/a
305.085	1.008	FIXCROSS	n/a	n/a	n/a
306.102	5.008	6_DOT_DETECTION	UTIŁT	0	n/a
311.135	1.008	FIXCROSS	n/a	n/a	n/a
312.152	5.008	6_DOT_DETECTION	YBP#L	1	n/a
315.639	n/a	RESPONSE	n/a	n/a	1/1
316.735	n/a	RESPONSE	n/a	n/a	2/1
317.185	1.008	FIXCROSS	n/a	n/a	n/a
318.201	5.009	6_DOT_DETECTION	I#AE#	2	n/a
319.919	n/a	RESPONSE	n/a	n/a	1/2
321.735	n/a	RESPONSE	n/a	n/a	2/2
323.235	1.008	FIXCROSS	n/a	n/a	n/a
324.251	5.009	6_DOT_DETECTION	U#UDO	1	n/a
325.839	n/a	RESPONSE	n/a	n/a	1/1
329.285	1.008	FIXCROSS	n/a	n/a	n/a
330.302	5.008	6_DOT_DETECTION	L#LAŁ	1	n/a
331.799	n/a	RESPONSE	n/a	n/a	1/1
332.839	n/a	RESPONSE	n/a	n/a	2/1
335.335	1.008	FIXCROSS	n/a	n/a	n/a
336.351	5.009	6_DOT_DETECTION	SPA##	2	n/a
338.319	n/a	RESPONSE	n/a	n/a	1/2
339.559	n/a	RESPONSE	n/a	n/a	2/2
341.385	1.008	FIXCROSS	n/a	n/a	n/a
342.402	5.008	6_DOT_DETECTION	#YUPA	1	n/a
343.615	n/a	RESPONSE	n/a	n/a	1/1
344.839	n/a	RESPONSE	n/a	n/a	2/1
347.435	1.008	FIXCROSS	n/a	n/a	n/a
348.451	5.009	6_DOT_DETECTION	Y#ŁYK	1	n/a
350.279	n/a	RESPONSE	n/a	n/a	1/1
354.493	2.008	CUE_REST	n/a	n/a	n/a
360.493	1.008	FIXCROSS	n/a	n/a	n/a
366.543	1.008	FIXCROSS	n/a	n/a	n/a
373.602	2.008	CUE_6_DOT	n/a	n/a	n/a
378.602	1.008	FIXCROSS	n/a	n/a	n/a
379.618	5.008	6_DOT_DETECTION	DKALL	0	n/a
384.652	1.008	FIXCROSS	n/a	n/a	n/a
385.668	5.008	6_DOT_DETECTION	#KAS#	2	n/a
387.039	n/a	RESPONSE	n/a	n/a	1/2
389.759	n/a	RESPONSE	n/a	n/a	2/2
390.702	1.008	FIXCROSS	n/a	n/a	n/a
391.718	5.009	6_DOT_DETECTION	KTO#D	1	n/a
394.815	n/a	RESPONSE	n/a	n/a	1/1
396.752	1.008	FIXCROSS	n/a	n/a	n/a
397.768	5.008	6_DOT_DETECTION	##DAM	2	n/a
399.215	n/a	RESPONSE	n/a	n/a	1/2
400.119	n/a	RESPONSE	n/a	n/a	2/2
402.802	1.008	FIXCROSS	n/a	n/a	n/a
403.818	5.008	6_DOT_DETECTION	SYMTI	0	n/a
408.852	1.008	FIXCROSS	n/a	n/a	n/a
409.868	5.009	6_DOT_DETECTION	MUŁ##	2	n/a
412.439	n/a	RESPONSE	n/a	n/a	1/2
413.255	n/a	RESPONSE	n/a	n/a	2/2
414.902	1.008	FIXCROSS	n/a	n/a	n/a
415.918	5.008	6_DOT_DETECTION	KSSŁK	0	n/a
420.952	1.008	FIXCROSS	n/a	n/a	n/a
421.968	5.009	6_DOT_DETECTION	BUŁ#I	1	n/a
424.279	n/a	RESPONSE	n/a	n/a	1/1
428.01	2.008	CUE_REST	n/a	n/a	n/a
435.01	1.008	FIXCROSS	n/a	n/a	n/a
441.06	1.008	FIXCROSS	n/a	n/a	n/a
