onset	duration	trial_type	trial_number	stroop_condition	stim_text(PL)	stim_text(eng)	stim_color(PL)	stim_color(eng)	response_type	response_color
0.0	n/a	RESPONSE	n/a	n/a	n/a	n/a	n/a	n/a	n/a	n/a
0.0562	1.0333	ITI	n/a	n/a	n/a	n/a	n/a	n/a	n/a	n/a
1.0895	0.5167	FIXCROSS	n/a	n/a	n/a	n/a	n/a	n/a	n/a	n/a
1.6062	1.5334	T_INK	1	Incongruent	żółty	yellow	niebieski	blue	hit	n/a
3.1149	n/a	RESPONSE	n/a	n/a	n/a	n/a	n/a	n/a	n/a	blue
3.1396	0.5167	FEEDBACK	n/a	n/a	n/a	n/a	n/a	n/a	n/a	n/a
3.6562	1.0167	ITI	n/a	n/a	n/a	n/a	n/a	n/a	n/a	n/a
4.6729	0.5167	FIXCROSS	n/a	n/a	n/a	n/a	n/a	n/a	n/a	n/a
5.1896	1.1833	T_INK	2	Neutral	xxxxxxxxx	xxxxxxxxx	żółty	yellow	hit	n/a
6.3419	n/a	RESPONSE	n/a	n/a	n/a	n/a	n/a	n/a	n/a	yellow
6.3729	0.5167	FEEDBACK	n/a	n/a	n/a	n/a	n/a	n/a	n/a	n/a
6.8896	1.0167	ITI	n/a	n/a	n/a	n/a	n/a	n/a	n/a	n/a
7.9063	0.5167	FIXCROSS	n/a	n/a	n/a	n/a	n/a	n/a	n/a	n/a
8.4229	0.7833	T_INK	3	Neutral	xxxxx	xxxxx	czerwony	red	hit	n/a
9.1854	n/a	RESPONSE	n/a	n/a	n/a	n/a	n/a	n/a	n/a	red
9.2063	0.5167	FEEDBACK	n/a	n/a	n/a	n/a	n/a	n/a	n/a	n/a
9.7229	1.0167	ITI	n/a	n/a	n/a	n/a	n/a	n/a	n/a	n/a
10.7396	0.5167	FIXCROSS	n/a	n/a	n/a	n/a	n/a	n/a	n/a	n/a
11.2563	0.7	T_INK	4	Neutral	xxxxxxxx	xxxxxxxx	żółty	yellow	hit	n/a
11.933	n/a	RESPONSE	n/a	n/a	n/a	n/a	n/a	n/a	n/a	yellow
11.9563	0.5167	FEEDBACK	n/a	n/a	n/a	n/a	n/a	n/a	n/a	n/a
12.473	1.0167	ITI	n/a	n/a	n/a	n/a	n/a	n/a	n/a	n/a
13.4896	0.5167	FIXCROSS	n/a	n/a	n/a	n/a	n/a	n/a	n/a	n/a
14.0063	1.05	T_INK	5	Incongruent	niebieski	blue	czerwony	red	hit	n/a
15.0322	n/a	RESPONSE	n/a	n/a	n/a	n/a	n/a	n/a	n/a	red
15.0563	0.5167	FEEDBACK	n/a	n/a	n/a	n/a	n/a	n/a	n/a	n/a
15.573	1.0167	ITI	n/a	n/a	n/a	n/a	n/a	n/a	n/a	n/a
16.5897	0.5167	FIXCROSS	n/a	n/a	n/a	n/a	n/a	n/a	n/a	n/a
17.1063	0.7167	T_INK	6	Neutral	xxxxxxxxx	xxxxxxxxx	czerwony	red	hit	n/a
17.7957	n/a	RESPONSE	n/a	n/a	n/a	n/a	n/a	n/a	n/a	red
17.823	0.5167	FEEDBACK	n/a	n/a	n/a	n/a	n/a	n/a	n/a	n/a
18.3397	1.0167	ITI	n/a	n/a	n/a	n/a	n/a	n/a	n/a	n/a
19.3564	0.5167	FIXCROSS	n/a	n/a	n/a	n/a	n/a	n/a	n/a	n/a
19.873	0.6667	T_INK	7	Incongruent	czerwony	red	niebieski	blue	hit	n/a
20.5113	n/a	RESPONSE	n/a	n/a	n/a	n/a	n/a	n/a	n/a	blue
20.5397	0.5167	FEEDBACK	n/a	n/a	n/a	n/a	n/a	n/a	n/a	n/a
21.0564	1.0167	ITI	n/a	n/a	n/a	n/a	n/a	n/a	n/a	n/a
22.0731	0.5167	FIXCROSS	n/a	n/a	n/a	n/a	n/a	n/a	n/a	n/a
22.5897	0.7834	T_INK	8	Incongruent	niebieski	blue	żółty	yellow	hit	n/a
23.3388	n/a	RESPONSE	n/a	n/a	n/a	n/a	n/a	n/a	n/a	yellow
23.3731	0.5167	FEEDBACK	n/a	n/a	n/a	n/a	n/a	n/a	n/a	n/a
23.8897	1.0167	ITI	n/a	n/a	n/a	n/a	n/a	n/a	n/a	n/a
24.9064	0.5167	FIXCROSS	n/a	n/a	n/a	n/a	n/a	n/a	n/a	n/a
25.4231	0.4833	T_INK	9	Incongruent	żółty	yellow	zielony	green	hit	n/a
25.8788	n/a	RESPONSE	n/a	n/a	n/a	n/a	n/a	n/a	n/a	green
25.9064	0.5167	FEEDBACK	n/a	n/a	n/a	n/a	n/a	n/a	n/a	n/a
26.4231	1.0167	ITI	n/a	n/a	n/a	n/a	n/a	n/a	n/a	n/a
27.4398	0.5167	FIXCROSS	n/a	n/a	n/a	n/a	n/a	n/a	n/a	n/a
27.9564	0.55	T_INK	10	Incongruent	zielony	green	czerwony	red	hit	n/a
28.4827	n/a	RESPONSE	n/a	n/a	n/a	n/a	n/a	n/a	n/a	red
28.5064	0.5167	FEEDBACK	n/a	n/a	n/a	n/a	n/a	n/a	n/a	n/a
29.0231	1.0167	ITI	n/a	n/a	n/a	n/a	n/a	n/a	n/a	n/a
30.0398	0.5167	FIXCROSS	n/a	n/a	n/a	n/a	n/a	n/a	n/a	n/a
30.5565	0.7167	T_INK	11	Incongruent	zielony	green	niebieski	blue	hit	n/a
31.2462	n/a	RESPONSE	n/a	n/a	n/a	n/a	n/a	n/a	n/a	blue
31.2731	0.5167	FEEDBACK	n/a	n/a	n/a	n/a	n/a	n/a	n/a	n/a
31.7898	1.0167	ITI	n/a	n/a	n/a	n/a	n/a	n/a	n/a	n/a
32.8065	0.5167	FIXCROSS	n/a	n/a	n/a	n/a	n/a	n/a	n/a	n/a
33.3231	0.7	T_INK	12	Neutral	xxxxxxxxx	xxxxxxxxx	zielony	green	hit	n/a
33.994	n/a	RESPONSE	n/a	n/a	n/a	n/a	n/a	n/a	n/a	green
34.0231	0.5167	FEEDBACK	n/a	n/a	n/a	n/a	n/a	n/a	n/a	n/a
34.5398	1.0333	ITI	n/a	n/a	n/a	n/a	n/a	n/a	n/a	n/a
39.9205	n/a	RESPONSE	n/a	n/a	n/a	n/a	n/a	n/a	n/a	n/a
39.9732	1.0167	ITI	n/a	n/a	n/a	n/a	n/a	n/a	n/a	n/a
40.9899	0.5167	FIXCROSS	n/a	n/a	n/a	n/a	n/a	n/a	n/a	n/a
41.5066	0.95	INK	1	Neutral	xxxxxxxxx	xxxxxxxxx	zielony	green	hit	n/a
42.4285	n/a	RESPONSE	n/a	n/a	n/a	n/a	n/a	n/a	n/a	green
42.4566	1.0167	ITI	n/a	n/a	n/a	n/a	n/a	n/a	n/a	n/a
43.4732	0.5167	FIXCROSS	n/a	n/a	n/a	n/a	n/a	n/a	n/a	n/a
43.9899	0.55	INK	2	Incongruent	zielony	green	żółty	yellow	hit	n/a
44.5212	n/a	RESPONSE	n/a	n/a	n/a	n/a	n/a	n/a	n/a	yellow
44.5399	1.0167	ITI	n/a	n/a	n/a	n/a	n/a	n/a	n/a	n/a
45.5566	0.5167	FIXCROSS	n/a	n/a	n/a	n/a	n/a	n/a	n/a	n/a
46.0733	0.6333	INK	3	Neutral	xxxxxxxx	xxxxxxxx	zielony	green	hit	n/a
46.6778	n/a	RESPONSE	n/a	n/a	n/a	n/a	n/a	n/a	n/a	green
46.7066	1.0167	ITI	n/a	n/a	n/a	n/a	n/a	n/a	n/a	n/a
47.7233	0.5167	FIXCROSS	n/a	n/a	n/a	n/a	n/a	n/a	n/a	n/a
48.2399	0.45	INK	4	Incongruent	żółty	yellow	niebieski	blue	hit	n/a
48.6587	n/a	RESPONSE	n/a	n/a	n/a	n/a	n/a	n/a	n/a	blue
48.6899	1.0167	ITI	n/a	n/a	n/a	n/a	n/a	n/a	n/a	n/a
49.7066	0.5167	FIXCROSS	n/a	n/a	n/a	n/a	n/a	n/a	n/a	n/a
50.2233	0.5333	INK	5	Neutral	xxxxx	xxxxx	zielony	green	hit	n/a
50.7353	n/a	RESPONSE	n/a	n/a	n/a	n/a	n/a	n/a	n/a	green
50.7566	1.0167	ITI	n/a	n/a	n/a	n/a	n/a	n/a	n/a	n/a
51.7733	0.5167	FIXCROSS	n/a	n/a	n/a	n/a	n/a	n/a	n/a	n/a
52.29	0.5833	INK	6	Incongruent	żółty	yellow	niebieski	blue	hit	n/a
52.844	n/a	RESPONSE	n/a	n/a	n/a	n/a	n/a	n/a	n/a	blue
52.8733	1.0167	ITI	n/a	n/a	n/a	n/a	n/a	n/a	n/a	n/a
53.89	0.5167	FIXCROSS	n/a	n/a	n/a	n/a	n/a	n/a	n/a	n/a
54.4067	0.4167	INK	7	Incongruent	żółty	yellow	czerwony	red	hit	n/a
54.7929	n/a	RESPONSE	n/a	n/a	n/a	n/a	n/a	n/a	n/a	red
54.8233	1.0167	ITI	n/a	n/a	n/a	n/a	n/a	n/a	n/a	n/a
55.84	0.5167	FIXCROSS	n/a	n/a	n/a	n/a	n/a	n/a	n/a	n/a
56.3567	0.4333	INK	8	Incongruent	żółty	yellow	zielony	green	hit	n/a
56.7578	n/a	RESPONSE	n/a	n/a	n/a	n/a	n/a	n/a	n/a	green
56.79	1.0167	ITI	n/a	n/a	n/a	n/a	n/a	n/a	n/a	n/a
57.8067	0.5167	FIXCROSS	n/a	n/a	n/a	n/a	n/a	n/a	n/a	n/a
58.3234	0.4667	INK	9	Incongruent	czerwony	red	żółty	yellow	hit	n/a
58.7707	n/a	RESPONSE	n/a	n/a	n/a	n/a	n/a	n/a	n/a	yellow
58.79	1.0167	ITI	n/a	n/a	n/a	n/a	n/a	n/a	n/a	n/a
59.8067	0.5167	FIXCROSS	n/a	n/a	n/a	n/a	n/a	n/a	n/a	n/a
60.3234	0.5833	INK	10	Neutral	xxxxxxx	xxxxxxx	żółty	yellow	hit	n/a
60.8793	n/a	RESPONSE	n/a	n/a	n/a	n/a	n/a	n/a	n/a	yellow
60.9067	1.0167	ITI	n/a	n/a	n/a	n/a	n/a	n/a	n/a	n/a
61.9234	0.5167	FIXCROSS	n/a	n/a	n/a	n/a	n/a	n/a	n/a	n/a
62.4401	0.8667	INK	11	Incongruent	niebieski	blue	czerwony	red	hit	n/a
63.2756	n/a	RESPONSE	n/a	n/a	n/a	n/a	n/a	n/a	n/a	red
63.3067	1.0167	ITI	n/a	n/a	n/a	n/a	n/a	n/a	n/a	n/a
64.3234	0.5167	FIXCROSS	n/a	n/a	n/a	n/a	n/a	n/a	n/a	n/a
64.8401	0.8333	INK	12	Incongruent	niebieski	blue	żółty	yellow	hit	n/a
65.6399	n/a	RESPONSE	n/a	n/a	n/a	n/a	n/a	n/a	n/a	yellow
65.6734	1.0167	ITI	n/a	n/a	n/a	n/a	n/a	n/a	n/a	n/a
66.6901	0.5167	FIXCROSS	n/a	n/a	n/a	n/a	n/a	n/a	n/a	n/a
67.2068	0.5833	INK	13	Incongruent	zielony	green	czerwony	red	hit	n/a
67.7645	n/a	RESPONSE	n/a	n/a	n/a	n/a	n/a	n/a	n/a	red
67.7901	1.0167	ITI	n/a	n/a	n/a	n/a	n/a	n/a	n/a	n/a
68.8068	0.5167	FIXCROSS	n/a	n/a	n/a	n/a	n/a	n/a	n/a	n/a
69.3235	0.5333	INK	14	Incongruent	niebieski	blue	czerwony	red	hit	n/a
69.8252	n/a	RESPONSE	n/a	n/a	n/a	n/a	n/a	n/a	n/a	red
69.8568	1.0167	ITI	n/a	n/a	n/a	n/a	n/a	n/a	n/a	n/a
70.8735	0.5167	FIXCROSS	n/a	n/a	n/a	n/a	n/a	n/a	n/a	n/a
71.3901	0.4333	INK	15	Neutral	xxxxxxxx	xxxxxxxx	zielony	green	hit	n/a
71.8061	n/a	RESPONSE	n/a	n/a	n/a	n/a	n/a	n/a	n/a	green
71.8235	1.0167	ITI	n/a	n/a	n/a	n/a	n/a	n/a	n/a	n/a
72.8402	0.5167	FIXCROSS	n/a	n/a	n/a	n/a	n/a	n/a	n/a	n/a
73.3568	0.6	INK	16	Neutral	xxxxxxx	xxxxxxx	czerwony	red	hit	n/a
73.9306	n/a	RESPONSE	n/a	n/a	n/a	n/a	n/a	n/a	n/a	red
73.9568	1.0167	ITI	n/a	n/a	n/a	n/a	n/a	n/a	n/a	n/a
74.9735	0.5167	FIXCROSS	n/a	n/a	n/a	n/a	n/a	n/a	n/a	n/a
75.4902	0.6167	INK	17	Incongruent	zielony	green	niebieski	blue	hit	n/a
76.0872	n/a	RESPONSE	n/a	n/a	n/a	n/a	n/a	n/a	n/a	blue
76.1068	1.0167	ITI	n/a	n/a	n/a	n/a	n/a	n/a	n/a	n/a
77.1235	0.5167	FIXCROSS	n/a	n/a	n/a	n/a	n/a	n/a	n/a	n/a
77.6402	0.6333	INK	18	Neutral	xxxxx	xxxxx	zielony	green	hit	n/a
78.2439	n/a	RESPONSE	n/a	n/a	n/a	n/a	n/a	n/a	n/a	green
78.2735	1.0167	ITI	n/a	n/a	n/a	n/a	n/a	n/a	n/a	n/a
79.2902	0.5167	FIXCROSS	n/a	n/a	n/a	n/a	n/a	n/a	n/a	n/a
79.8069	0.5833	INK	19	Incongruent	niebieski	blue	zielony	green	hit	n/a
80.3685	n/a	RESPONSE	n/a	n/a	n/a	n/a	n/a	n/a	n/a	green
80.3902	1.0167	ITI	n/a	n/a	n/a	n/a	n/a	n/a	n/a	n/a
81.4069	0.5167	FIXCROSS	n/a	n/a	n/a	n/a	n/a	n/a	n/a	n/a
81.9236	0.5667	INK	20	Incongruent	niebieski	blue	czerwony	red	hit	n/a
82.4612	n/a	RESPONSE	n/a	n/a	n/a	n/a	n/a	n/a	n/a	red
82.4902	1.0167	ITI	n/a	n/a	n/a	n/a	n/a	n/a	n/a	n/a
83.5069	0.5167	FIXCROSS	n/a	n/a	n/a	n/a	n/a	n/a	n/a	n/a
84.0236	0.5833	INK	21	Neutral	xxxxxxxxx	xxxxxxxxx	czerwony	red	hit	n/a
84.5858	n/a	RESPONSE	n/a	n/a	n/a	n/a	n/a	n/a	n/a	red
84.6069	1.0167	ITI	n/a	n/a	n/a	n/a	n/a	n/a	n/a	n/a
85.6236	0.5167	FIXCROSS	n/a	n/a	n/a	n/a	n/a	n/a	n/a	n/a
86.1403	0.5833	INK	22	Incongruent	czerwony	red	niebieski	blue	hit	n/a
86.6945	n/a	RESPONSE	n/a	n/a	n/a	n/a	n/a	n/a	n/a	blue
86.7236	1.0167	ITI	n/a	n/a	n/a	n/a	n/a	n/a	n/a	n/a
87.7403	0.5167	FIXCROSS	n/a	n/a	n/a	n/a	n/a	n/a	n/a	n/a
88.257	0.5667	INK	23	Neutral	xxxxx	xxxxx	niebieski	blue	hit	n/a
88.8031	n/a	RESPONSE	n/a	n/a	n/a	n/a	n/a	n/a	n/a	blue
88.8236	1.0167	ITI	n/a	n/a	n/a	n/a	n/a	n/a	n/a	n/a
89.8403	0.5167	FIXCROSS	n/a	n/a	n/a	n/a	n/a	n/a	n/a	n/a
90.357	0.55	INK	24	Neutral	xxxxxxxx	xxxxxxxx	niebieski	blue	hit	n/a
90.8798	n/a	RESPONSE	n/a	n/a	n/a	n/a	n/a	n/a	n/a	blue
90.907	1.0167	ITI	n/a	n/a	n/a	n/a	n/a	n/a	n/a	n/a
91.9236	0.5167	FIXCROSS	n/a	n/a	n/a	n/a	n/a	n/a	n/a	n/a
92.4403	0.65	INK	25	Incongruent	zielony	green	czerwony	red	incorrect	n/a
93.0684	n/a	RESPONSE	n/a	n/a	n/a	n/a	n/a	n/a	n/a	green
93.0903	1.0167	ITI	n/a	n/a	n/a	n/a	n/a	n/a	n/a	n/a
94.107	0.5167	FIXCROSS	n/a	n/a	n/a	n/a	n/a	n/a	n/a	n/a
94.6237	0.5667	INK	26	Neutral	xxxxx	xxxxx	czerwony	red	hit	n/a
95.1612	n/a	RESPONSE	n/a	n/a	n/a	n/a	n/a	n/a	n/a	red
95.1903	1.0167	ITI	n/a	n/a	n/a	n/a	n/a	n/a	n/a	n/a
96.207	0.5167	FIXCROSS	n/a	n/a	n/a	n/a	n/a	n/a	n/a	n/a
96.7237	0.4833	INK	27	Neutral	xxxxx	xxxxx	czerwony	red	hit	n/a
97.174	n/a	RESPONSE	n/a	n/a	n/a	n/a	n/a	n/a	n/a	red
97.207	1.0167	ITI	n/a	n/a	n/a	n/a	n/a	n/a	n/a	n/a
98.2237	0.5167	FIXCROSS	n/a	n/a	n/a	n/a	n/a	n/a	n/a	n/a
98.7404	0.6167	INK	28	Incongruent	czerwony	red	zielony	green	hit	n/a
99.3306	n/a	RESPONSE	n/a	n/a	n/a	n/a	n/a	n/a	n/a	green
99.357	1.0167	ITI	n/a	n/a	n/a	n/a	n/a	n/a	n/a	n/a
100.3737	0.5167	FIXCROSS	n/a	n/a	n/a	n/a	n/a	n/a	n/a	n/a
100.8904	0.4833	INK	29	Neutral	xxxxxxxxx	xxxxxxxxx	żółty	yellow	hit	n/a
101.3433	n/a	RESPONSE	n/a	n/a	n/a	n/a	n/a	n/a	n/a	yellow
101.3737	1.0167	ITI	n/a	n/a	n/a	n/a	n/a	n/a	n/a	n/a
102.3904	0.5167	FIXCROSS	n/a	n/a	n/a	n/a	n/a	n/a	n/a	n/a
102.9071	0.4667	INK	30	Neutral	xxxxxxx	xxxxxxx	żółty	yellow	hit	n/a
103.3562	n/a	RESPONSE	n/a	n/a	n/a	n/a	n/a	n/a	n/a	yellow
103.3738	1.0167	ITI	n/a	n/a	n/a	n/a	n/a	n/a	n/a	n/a
104.3904	0.5167	FIXCROSS	n/a	n/a	n/a	n/a	n/a	n/a	n/a	n/a
104.9071	0.6833	INK	31	Neutral	xxxxxxxx	xxxxxxxx	niebieski	blue	hit	n/a
105.5607	n/a	RESPONSE	n/a	n/a	n/a	n/a	n/a	n/a	n/a	blue
105.5904	1.0167	ITI	n/a	n/a	n/a	n/a	n/a	n/a	n/a	n/a
106.6071	0.5167	FIXCROSS	n/a	n/a	n/a	n/a	n/a	n/a	n/a	n/a
107.1238	0.6167	INK	32	Incongruent	niebieski	blue	żółty	yellow	hit	n/a
107.7173	n/a	RESPONSE	n/a	n/a	n/a	n/a	n/a	n/a	n/a	yellow
107.7404	1.0167	ITI	n/a	n/a	n/a	n/a	n/a	n/a	n/a	n/a
108.7571	0.5167	FIXCROSS	n/a	n/a	n/a	n/a	n/a	n/a	n/a	n/a
109.2738	0.6	INK	33	Neutral	xxxxxxxxx	xxxxxxxxx	żółty	yellow	hit	n/a
109.842	n/a	RESPONSE	n/a	n/a	n/a	n/a	n/a	n/a	n/a	yellow
109.8738	1.0167	ITI	n/a	n/a	n/a	n/a	n/a	n/a	n/a	n/a
110.8905	0.5167	FIXCROSS	n/a	n/a	n/a	n/a	n/a	n/a	n/a	n/a
111.4071	0.6167	INK	34	Neutral	xxxxxxxxx	xxxxxxxxx	czerwony	red	hit	n/a
111.9986	n/a	RESPONSE	n/a	n/a	n/a	n/a	n/a	n/a	n/a	red
112.0238	1.0167	ITI	n/a	n/a	n/a	n/a	n/a	n/a	n/a	n/a
113.0405	0.5167	FIXCROSS	n/a	n/a	n/a	n/a	n/a	n/a	n/a	n/a
113.5572	0.6833	INK	35	Neutral	xxxxx	xxxxx	zielony	green	hit	n/a
114.2191	n/a	RESPONSE	n/a	n/a	n/a	n/a	n/a	n/a	n/a	green
114.2405	1.0167	ITI	n/a	n/a	n/a	n/a	n/a	n/a	n/a	n/a
115.2572	0.5167	FIXCROSS	n/a	n/a	n/a	n/a	n/a	n/a	n/a	n/a
115.7739	0.5667	INK	36	Neutral	xxxxxxxx	xxxxxxxx	żółty	yellow	hit	n/a
116.3117	n/a	RESPONSE	n/a	n/a	n/a	n/a	n/a	n/a	n/a	yellow
116.3405	1.0167	ITI	n/a	n/a	n/a	n/a	n/a	n/a	n/a	n/a
117.3572	0.5167	FIXCROSS	n/a	n/a	n/a	n/a	n/a	n/a	n/a	n/a
117.8739	0.4333	INK	37	Neutral	xxxxxxxx	xxxxxxxx	niebieski	blue	hit	n/a
118.2767	n/a	RESPONSE	n/a	n/a	n/a	n/a	n/a	n/a	n/a	blue
118.3072	1.0167	ITI	n/a	n/a	n/a	n/a	n/a	n/a	n/a	n/a
119.3239	0.5167	FIXCROSS	n/a	n/a	n/a	n/a	n/a	n/a	n/a	n/a
119.8406	0.6167	INK	38	Incongruent	czerwony	red	zielony	green	hit	n/a
120.4331	n/a	RESPONSE	n/a	n/a	n/a	n/a	n/a	n/a	n/a	green
120.4572	1.0167	ITI	n/a	n/a	n/a	n/a	n/a	n/a	n/a	n/a
121.4739	0.5167	FIXCROSS	n/a	n/a	n/a	n/a	n/a	n/a	n/a	n/a
121.9906	0.6333	INK	39	Incongruent	czerwony	red	niebieski	blue	hit	n/a
122.6057	n/a	RESPONSE	n/a	n/a	n/a	n/a	n/a	n/a	n/a	blue
122.6239	1.0167	ITI	n/a	n/a	n/a	n/a	n/a	n/a	n/a	n/a
123.6406	0.5167	FIXCROSS	n/a	n/a	n/a	n/a	n/a	n/a	n/a	n/a
124.1573	0.7	INK	40	Neutral	xxxxxxxx	xxxxxxxx	zielony	green	hit	n/a
124.8262	n/a	RESPONSE	n/a	n/a	n/a	n/a	n/a	n/a	n/a	green
124.8573	1.0167	ITI	n/a	n/a	n/a	n/a	n/a	n/a	n/a	n/a
125.8739	0.5167	FIXCROSS	n/a	n/a	n/a	n/a	n/a	n/a	n/a	n/a
126.3906	0.5	INK	41	Neutral	xxxxx	xxxxx	czerwony	red	hit	n/a
126.8709	n/a	RESPONSE	n/a	n/a	n/a	n/a	n/a	n/a	n/a	red
126.8906	1.0167	ITI	n/a	n/a	n/a	n/a	n/a	n/a	n/a	n/a
127.9073	0.5167	FIXCROSS	n/a	n/a	n/a	n/a	n/a	n/a	n/a	n/a
128.424	0.7667	INK	42	Incongruent	niebieski	blue	zielony	green	hit	n/a
129.1713	n/a	RESPONSE	n/a	n/a	n/a	n/a	n/a	n/a	n/a	green
129.1906	1.0167	ITI	n/a	n/a	n/a	n/a	n/a	n/a	n/a	n/a
130.2073	0.5167	FIXCROSS	n/a	n/a	n/a	n/a	n/a	n/a	n/a	n/a
130.724	0.5333	INK	43	Incongruent	zielony	green	żółty	yellow	hit	n/a
131.232	n/a	RESPONSE	n/a	n/a	n/a	n/a	n/a	n/a	n/a	yellow
131.2573	1.0167	ITI	n/a	n/a	n/a	n/a	n/a	n/a	n/a	n/a
132.274	0.5167	FIXCROSS	n/a	n/a	n/a	n/a	n/a	n/a	n/a	n/a
132.7907	0.7167	INK	44	Neutral	xxxxxxxxx	xxxxxxxxx	zielony	green	hit	n/a
133.4845	n/a	RESPONSE	n/a	n/a	n/a	n/a	n/a	n/a	n/a	green
133.5073	1.0167	ITI	n/a	n/a	n/a	n/a	n/a	n/a	n/a	n/a
134.524	0.5167	FIXCROSS	n/a	n/a	n/a	n/a	n/a	n/a	n/a	n/a
135.0407	0.5333	INK	45	Neutral	xxxxxxx	xxxxxxx	niebieski	blue	hit	n/a
135.5452	n/a	RESPONSE	n/a	n/a	n/a	n/a	n/a	n/a	n/a	blue
135.574	1.0167	ITI	n/a	n/a	n/a	n/a	n/a	n/a	n/a	n/a
136.5907	0.5167	FIXCROSS	n/a	n/a	n/a	n/a	n/a	n/a	n/a	n/a
137.1074	0.4667	INK	46	Neutral	xxxxxxx	xxxxxxx	czerwony	red	hit	n/a
137.5421	n/a	RESPONSE	n/a	n/a	n/a	n/a	n/a	n/a	n/a	red
137.574	1.0167	ITI	n/a	n/a	n/a	n/a	n/a	n/a	n/a	n/a
138.5907	0.5167	FIXCROSS	n/a	n/a	n/a	n/a	n/a	n/a	n/a	n/a
139.1074	0.7167	INK	47	Incongruent	niebieski	blue	zielony	green	hit	n/a
139.7945	n/a	RESPONSE	n/a	n/a	n/a	n/a	n/a	n/a	n/a	green
139.8241	1.0167	ITI	n/a	n/a	n/a	n/a	n/a	n/a	n/a	n/a
140.8407	0.5167	FIXCROSS	n/a	n/a	n/a	n/a	n/a	n/a	n/a	n/a
141.3574	0.5333	INK	48	Neutral	xxxxxxxxx	xxxxxxxxx	żółty	yellow	hit	n/a
141.8713	n/a	RESPONSE	n/a	n/a	n/a	n/a	n/a	n/a	n/a	yellow
141.8907	1.0167	ITI	n/a	n/a	n/a	n/a	n/a	n/a	n/a	n/a
142.9074	0.5167	FIXCROSS	n/a	n/a	n/a	n/a	n/a	n/a	n/a	n/a
143.4241	0.7167	INK	49	Incongruent	zielony	green	niebieski	blue	hit	n/a
144.1076	n/a	RESPONSE	n/a	n/a	n/a	n/a	n/a	n/a	n/a	blue
144.1408	1.0167	ITI	n/a	n/a	n/a	n/a	n/a	n/a	n/a	n/a
145.1574	0.5167	FIXCROSS	n/a	n/a	n/a	n/a	n/a	n/a	n/a	n/a
145.6741	0.6333	INK	50	Incongruent	czerwony	red	żółty	yellow	hit	n/a
146.2801	n/a	RESPONSE	n/a	n/a	n/a	n/a	n/a	n/a	n/a	yellow
146.3074	1.0167	ITI	n/a	n/a	n/a	n/a	n/a	n/a	n/a	n/a
147.3241	0.5167	FIXCROSS	n/a	n/a	n/a	n/a	n/a	n/a	n/a	n/a
147.8408	0.5667	INK	51	Incongruent	żółty	yellow	zielony	green	hit	n/a
148.3887	n/a	RESPONSE	n/a	n/a	n/a	n/a	n/a	n/a	n/a	green
148.4075	1.0167	ITI	n/a	n/a	n/a	n/a	n/a	n/a	n/a	n/a
149.4241	0.5167	FIXCROSS	n/a	n/a	n/a	n/a	n/a	n/a	n/a	n/a
149.9408	0.5833	INK	52	Incongruent	żółty	yellow	niebieski	blue	hit	n/a
150.4973	n/a	RESPONSE	n/a	n/a	n/a	n/a	n/a	n/a	n/a	blue
150.5241	1.0167	ITI	n/a	n/a	n/a	n/a	n/a	n/a	n/a	n/a
151.5408	0.5167	FIXCROSS	n/a	n/a	n/a	n/a	n/a	n/a	n/a	n/a
152.0575	0.7333	INK	53	Neutral	xxxxxxxx	xxxxxxxx	żółty	yellow	hit	n/a
152.7656	n/a	RESPONSE	n/a	n/a	n/a	n/a	n/a	n/a	n/a	yellow
152.7908	1.0167	ITI	n/a	n/a	n/a	n/a	n/a	n/a	n/a	n/a
153.8075	0.5167	FIXCROSS	n/a	n/a	n/a	n/a	n/a	n/a	n/a	n/a
154.3242	0.5	INK	54	Neutral	xxxxxxxxx	xxxxxxxxx	zielony	green	hit	n/a
154.7945	n/a	RESPONSE	n/a	n/a	n/a	n/a	n/a	n/a	n/a	green
154.8242	1.0167	ITI	n/a	n/a	n/a	n/a	n/a	n/a	n/a	n/a
155.8409	0.5167	FIXCROSS	n/a	n/a	n/a	n/a	n/a	n/a	n/a	n/a
156.3575	0.6167	INK	55	Incongruent	niebieski	blue	żółty	yellow	hit	n/a
156.951	n/a	RESPONSE	n/a	n/a	n/a	n/a	n/a	n/a	n/a	yellow
156.9742	1.0167	ITI	n/a	n/a	n/a	n/a	n/a	n/a	n/a	n/a
157.9909	0.5167	FIXCROSS	n/a	n/a	n/a	n/a	n/a	n/a	n/a	n/a
158.5076	0.5833	INK	56	Incongruent	czerwony	red	żółty	yellow	hit	n/a
159.0597	n/a	RESPONSE	n/a	n/a	n/a	n/a	n/a	n/a	n/a	yellow
159.0909	1.0167	ITI	n/a	n/a	n/a	n/a	n/a	n/a	n/a	n/a
160.1076	0.5167	FIXCROSS	n/a	n/a	n/a	n/a	n/a	n/a	n/a	n/a
160.6242	0.6833	INK	57	Incongruent	żółty	yellow	zielony	green	hit	n/a
161.2803	n/a	RESPONSE	n/a	n/a	n/a	n/a	n/a	n/a	n/a	green
161.3076	1.0167	ITI	n/a	n/a	n/a	n/a	n/a	n/a	n/a	n/a
162.3242	0.5167	FIXCROSS	n/a	n/a	n/a	n/a	n/a	n/a	n/a	n/a
162.8409	0.5667	INK	58	Incongruent	zielony	green	żółty	yellow	hit	n/a
163.3889	n/a	RESPONSE	n/a	n/a	n/a	n/a	n/a	n/a	n/a	yellow
163.4076	1.0167	ITI	n/a	n/a	n/a	n/a	n/a	n/a	n/a	n/a
164.4243	0.5167	FIXCROSS	n/a	n/a	n/a	n/a	n/a	n/a	n/a	n/a
164.9409	0.5167	INK	59	Incongruent	zielony	green	czerwony	red	hit	n/a
165.4337	n/a	RESPONSE	n/a	n/a	n/a	n/a	n/a	n/a	n/a	red
165.4576	1.0167	ITI	n/a	n/a	n/a	n/a	n/a	n/a	n/a	n/a
166.4743	0.5167	FIXCROSS	n/a	n/a	n/a	n/a	n/a	n/a	n/a	n/a
166.991	0.5167	INK	60	Neutral	xxxxxxx	xxxxxxx	niebieski	blue	hit	n/a
167.4782	n/a	RESPONSE	n/a	n/a	n/a	n/a	n/a	n/a	n/a	blue
167.5076	1.0167	ITI	n/a	n/a	n/a	n/a	n/a	n/a	n/a	n/a
168.5243	0.5167	FIXCROSS	n/a	n/a	n/a	n/a	n/a	n/a	n/a	n/a
169.041	0.5	INK	61	Incongruent	żółty	yellow	czerwony	red	hit	n/a
169.523	n/a	RESPONSE	n/a	n/a	n/a	n/a	n/a	n/a	n/a	red
169.541	1.0167	ITI	n/a	n/a	n/a	n/a	n/a	n/a	n/a	n/a
170.5576	0.5167	FIXCROSS	n/a	n/a	n/a	n/a	n/a	n/a	n/a	n/a
171.0743	0.5833	INK	62	Neutral	xxxxx	xxxxx	niebieski	blue	hit	n/a
171.6316	n/a	RESPONSE	n/a	n/a	n/a	n/a	n/a	n/a	n/a	blue
171.6577	1.0167	ITI	n/a	n/a	n/a	n/a	n/a	n/a	n/a	n/a
172.6743	0.5167	FIXCROSS	n/a	n/a	n/a	n/a	n/a	n/a	n/a	n/a
173.191	0.6167	INK	63	Neutral	xxxxxxx	xxxxxxx	czerwony	red	hit	n/a
173.788	n/a	RESPONSE	n/a	n/a	n/a	n/a	n/a	n/a	n/a	red
173.8077	1.0167	ITI	n/a	n/a	n/a	n/a	n/a	n/a	n/a	n/a
174.8243	0.5167	FIXCROSS	n/a	n/a	n/a	n/a	n/a	n/a	n/a	n/a
175.341	0.6333	INK	64	Neutral	xxxxxxx	xxxxxxx	żółty	yellow	hit	n/a
175.9446	n/a	RESPONSE	n/a	n/a	n/a	n/a	n/a	n/a	n/a	yellow
175.9744	1.0167	ITI	n/a	n/a	n/a	n/a	n/a	n/a	n/a	n/a
176.991	0.5167	FIXCROSS	n/a	n/a	n/a	n/a	n/a	n/a	n/a	n/a
177.5077	0.6667	INK	65	Neutral	xxxxx	xxxxx	niebieski	blue	hit	n/a
178.1492	n/a	RESPONSE	n/a	n/a	n/a	n/a	n/a	n/a	n/a	blue
178.1744	1.0167	ITI	n/a	n/a	n/a	n/a	n/a	n/a	n/a	n/a
179.1911	0.5167	FIXCROSS	n/a	n/a	n/a	n/a	n/a	n/a	n/a	n/a
179.7077	0.55	INK	66	Incongruent	zielony	green	niebieski	blue	hit	n/a
180.226	n/a	RESPONSE	n/a	n/a	n/a	n/a	n/a	n/a	n/a	blue
180.2577	1.0167	ITI	n/a	n/a	n/a	n/a	n/a	n/a	n/a	n/a
181.2744	0.5167	FIXCROSS	n/a	n/a	n/a	n/a	n/a	n/a	n/a	n/a
181.7911	0.5167	INK	67	Incongruent	czerwony	red	niebieski	blue	hit	n/a
182.2867	n/a	RESPONSE	n/a	n/a	n/a	n/a	n/a	n/a	n/a	blue
182.3077	1.0167	ITI	n/a	n/a	n/a	n/a	n/a	n/a	n/a	n/a
183.3244	0.5167	FIXCROSS	n/a	n/a	n/a	n/a	n/a	n/a	n/a	n/a
183.8411	0.4	INK	68	Incongruent	żółty	yellow	czerwony	red	hit	n/a
184.2197	n/a	RESPONSE	n/a	n/a	n/a	n/a	n/a	n/a	n/a	red
184.2411	1.0167	ITI	n/a	n/a	n/a	n/a	n/a	n/a	n/a	n/a
185.2578	0.5167	FIXCROSS	n/a	n/a	n/a	n/a	n/a	n/a	n/a	n/a
185.7744	0.45	INK	69	Neutral	xxxxxxxx	xxxxxxxx	żółty	yellow	hit	n/a
186.2006	n/a	RESPONSE	n/a	n/a	n/a	n/a	n/a	n/a	n/a	yellow
186.2244	1.0167	ITI	n/a	n/a	n/a	n/a	n/a	n/a	n/a	n/a
187.2411	0.5167	FIXCROSS	n/a	n/a	n/a	n/a	n/a	n/a	n/a	n/a
187.7578	0.4	INK	70	Incongruent	czerwony	red	zielony	green	hit	n/a
188.1335	n/a	RESPONSE	n/a	n/a	n/a	n/a	n/a	n/a	n/a	green
188.1578	1.0167	ITI	n/a	n/a	n/a	n/a	n/a	n/a	n/a	n/a
189.1745	0.5167	FIXCROSS	n/a	n/a	n/a	n/a	n/a	n/a	n/a	n/a
189.6911	0.5667	INK	71	Neutral	xxxxxxx	xxxxxxx	niebieski	blue	hit	n/a
190.2262	n/a	RESPONSE	n/a	n/a	n/a	n/a	n/a	n/a	n/a	blue
190.2578	1.0167	ITI	n/a	n/a	n/a	n/a	n/a	n/a	n/a	n/a
191.2745	0.5167	FIXCROSS	n/a	n/a	n/a	n/a	n/a	n/a	n/a	n/a
191.7912	0.4667	INK	72	Neutral	xxxxxxxxx	xxxxxxxxx	czerwony	red	hit	n/a
192.2391	n/a	RESPONSE	n/a	n/a	n/a	n/a	n/a	n/a	n/a	red
192.2578	1.0833	ITI	n/a	n/a	n/a	n/a	n/a	n/a	n/a	n/a
210.818	n/a	RESPONSE	n/a	n/a	n/a	n/a	n/a	n/a	n/a	n/a
210.8747	1.0167	ITI	n/a	n/a	n/a	n/a	n/a	n/a	n/a	n/a
211.8913	0.5167	FIXCROSS	n/a	n/a	n/a	n/a	n/a	n/a	n/a	n/a
212.408	0.9167	T_COLOR_NAME	1	Neutral	czerwony	red	Neutral	Neutral	hit	n/a
213.2941	n/a	RESPONSE	n/a	n/a	n/a	n/a	n/a	n/a	n/a	red
213.3247	0.5167	FEEDBACK	n/a	n/a	n/a	n/a	n/a	n/a	n/a	n/a
213.8413	1.0167	ITI	n/a	n/a	n/a	n/a	n/a	n/a	n/a	n/a
214.858	0.5167	FIXCROSS	n/a	n/a	n/a	n/a	n/a	n/a	n/a	n/a
215.3747	1.45	T_COLOR_NAME	2	Incongruent	czerwony	red	niebieski	blue	hit	n/a
216.7927	n/a	RESPONSE	n/a	n/a	n/a	n/a	n/a	n/a	n/a	red
216.8247	0.5166	FEEDBACK	n/a	n/a	n/a	n/a	n/a	n/a	n/a	n/a
217.3413	1.0167	ITI	n/a	n/a	n/a	n/a	n/a	n/a	n/a	n/a
218.358	0.5167	FIXCROSS	n/a	n/a	n/a	n/a	n/a	n/a	n/a	n/a
218.8747	0.75	T_COLOR_NAME	3	Incongruent	niebieski	blue	żółty	yellow	hit	n/a
219.6043	n/a	RESPONSE	n/a	n/a	n/a	n/a	n/a	n/a	n/a	blue
219.6247	0.5167	FEEDBACK	n/a	n/a	n/a	n/a	n/a	n/a	n/a	n/a
220.1414	1.0167	ITI	n/a	n/a	n/a	n/a	n/a	n/a	n/a	n/a
221.1581	0.5167	FIXCROSS	n/a	n/a	n/a	n/a	n/a	n/a	n/a	n/a
221.6747	0.6	T_COLOR_NAME	4	Neutral	niebieski	blue	Neutral	Neutral	hit	n/a
222.2402	n/a	RESPONSE	n/a	n/a	n/a	n/a	n/a	n/a	n/a	blue
222.2747	0.5167	FEEDBACK	n/a	n/a	n/a	n/a	n/a	n/a	n/a	n/a
222.7914	1.0167	ITI	n/a	n/a	n/a	n/a	n/a	n/a	n/a	n/a
223.8081	0.5167	FIXCROSS	n/a	n/a	n/a	n/a	n/a	n/a	n/a	n/a
224.3248	0.6	T_COLOR_NAME	5	Neutral	żółty	yellow	Neutral	Neutral	hit	n/a
224.892	n/a	RESPONSE	n/a	n/a	n/a	n/a	n/a	n/a	n/a	yellow
224.9248	0.5167	FEEDBACK	n/a	n/a	n/a	n/a	n/a	n/a	n/a	n/a
225.4414	1.0167	ITI	n/a	n/a	n/a	n/a	n/a	n/a	n/a	n/a
226.4581	0.5167	FIXCROSS	n/a	n/a	n/a	n/a	n/a	n/a	n/a	n/a
226.9748	0.7833	T_COLOR_NAME	6	Incongruent	żółty	yellow	zielony	green	hit	n/a
227.7356	n/a	RESPONSE	n/a	n/a	n/a	n/a	n/a	n/a	n/a	yellow
227.7581	0.5167	FEEDBACK	n/a	n/a	n/a	n/a	n/a	n/a	n/a	n/a
228.2748	1.0167	ITI	n/a	n/a	n/a	n/a	n/a	n/a	n/a	n/a
229.2915	0.5167	FIXCROSS	n/a	n/a	n/a	n/a	n/a	n/a	n/a	n/a
229.8081	0.7667	T_COLOR_NAME	7	Incongruent	żółty	yellow	niebieski	blue	hit	n/a
230.5472	n/a	RESPONSE	n/a	n/a	n/a	n/a	n/a	n/a	n/a	yellow
230.5748	0.5167	FEEDBACK	n/a	n/a	n/a	n/a	n/a	n/a	n/a	n/a
231.0915	1.0167	ITI	n/a	n/a	n/a	n/a	n/a	n/a	n/a	n/a
232.1081	0.5167	FIXCROSS	n/a	n/a	n/a	n/a	n/a	n/a	n/a	n/a
232.6248	0.7833	T_COLOR_NAME	8	Incongruent	niebieski	blue	czerwony	red	hit	n/a
233.3747	n/a	RESPONSE	n/a	n/a	n/a	n/a	n/a	n/a	n/a	blue
233.4082	0.5167	FEEDBACK	n/a	n/a	n/a	n/a	n/a	n/a	n/a	n/a
233.9248	1.0167	ITI	n/a	n/a	n/a	n/a	n/a	n/a	n/a	n/a
234.9415	0.5167	FIXCROSS	n/a	n/a	n/a	n/a	n/a	n/a	n/a	n/a
235.4582	0.5333	T_COLOR_NAME	9	Neutral	niebieski	blue	Neutral	Neutral	hit	n/a
235.9627	n/a	RESPONSE	n/a	n/a	n/a	n/a	n/a	n/a	n/a	blue
235.9915	0.5167	FEEDBACK	n/a	n/a	n/a	n/a	n/a	n/a	n/a	n/a
236.5082	1.0167	ITI	n/a	n/a	n/a	n/a	n/a	n/a	n/a	n/a
237.5249	0.5167	FIXCROSS	n/a	n/a	n/a	n/a	n/a	n/a	n/a	n/a
238.0415	0.8	T_COLOR_NAME	10	Incongruent	zielony	green	czerwony	red	hit	n/a
238.8222	n/a	RESPONSE	n/a	n/a	n/a	n/a	n/a	n/a	n/a	green
238.8415	0.5167	FEEDBACK	n/a	n/a	n/a	n/a	n/a	n/a	n/a	n/a
239.3582	1.0167	ITI	n/a	n/a	n/a	n/a	n/a	n/a	n/a	n/a
240.3749	0.5167	FIXCROSS	n/a	n/a	n/a	n/a	n/a	n/a	n/a	n/a
240.8916	0.6333	T_COLOR_NAME	11	Neutral	niebieski	blue	Neutral	Neutral	hit	n/a
241.49	n/a	RESPONSE	n/a	n/a	n/a	n/a	n/a	n/a	n/a	blue
241.5249	0.5167	FEEDBACK	n/a	n/a	n/a	n/a	n/a	n/a	n/a	n/a
242.0416	1.0167	ITI	n/a	n/a	n/a	n/a	n/a	n/a	n/a	n/a
243.0582	0.5167	FIXCROSS	n/a	n/a	n/a	n/a	n/a	n/a	n/a	n/a
243.5749	0.8	T_COLOR_NAME	12	Incongruent	zielony	green	niebieski	blue	hit	n/a
244.3496	n/a	RESPONSE	n/a	n/a	n/a	n/a	n/a	n/a	n/a	green
244.3749	0.5167	FEEDBACK	n/a	n/a	n/a	n/a	n/a	n/a	n/a	n/a
244.8916	1.0333	ITI	n/a	n/a	n/a	n/a	n/a	n/a	n/a	n/a
249.5096	n/a	RESPONSE	n/a	n/a	n/a	n/a	n/a	n/a	n/a	n/a
249.575	1.0167	ITI	n/a	n/a	n/a	n/a	n/a	n/a	n/a	n/a
250.5916	0.5167	FIXCROSS	n/a	n/a	n/a	n/a	n/a	n/a	n/a	n/a
251.1083	0.8833	COLOR_NAME	1	Incongruent	żółty	yellow	niebieski	blue	hit	n/a
251.9699	n/a	RESPONSE	n/a	n/a	n/a	n/a	n/a	n/a	n/a	yellow
251.9917	1.0167	ITI	n/a	n/a	n/a	n/a	n/a	n/a	n/a	n/a
253.0083	0.5167	FIXCROSS	n/a	n/a	n/a	n/a	n/a	n/a	n/a	n/a
253.525	0.6333	COLOR_NAME	2	Neutral	czerwony	red	Neutral	Neutral	hit	n/a
254.1268	n/a	RESPONSE	n/a	n/a	n/a	n/a	n/a	n/a	n/a	red
254.1583	1.0167	ITI	n/a	n/a	n/a	n/a	n/a	n/a	n/a	n/a
255.175	0.5167	FIXCROSS	n/a	n/a	n/a	n/a	n/a	n/a	n/a	n/a
255.6917	0.5167	COLOR_NAME	3	Neutral	żółty	yellow	Neutral	Neutral	hit	n/a
256.1876	n/a	RESPONSE	n/a	n/a	n/a	n/a	n/a	n/a	n/a	yellow
256.2083	1.0167	ITI	n/a	n/a	n/a	n/a	n/a	n/a	n/a	n/a
257.225	0.5167	FIXCROSS	n/a	n/a	n/a	n/a	n/a	n/a	n/a	n/a
257.7417	0.5833	COLOR_NAME	4	Neutral	zielony	green	Neutral	Neutral	hit	n/a
258.2963	n/a	RESPONSE	n/a	n/a	n/a	n/a	n/a	n/a	n/a	green
258.325	1.0167	ITI	n/a	n/a	n/a	n/a	n/a	n/a	n/a	n/a
259.3417	0.5167	FIXCROSS	n/a	n/a	n/a	n/a	n/a	n/a	n/a	n/a
259.8584	0.6333	COLOR_NAME	5	Incongruent	zielony	green	czerwony	red	hit	n/a
260.4689	n/a	RESPONSE	n/a	n/a	n/a	n/a	n/a	n/a	n/a	green
260.4917	1.0167	ITI	n/a	n/a	n/a	n/a	n/a	n/a	n/a	n/a
261.5084	0.5167	FIXCROSS	n/a	n/a	n/a	n/a	n/a	n/a	n/a	n/a
262.0251	0.6833	COLOR_NAME	6	Neutral	żółty	yellow	Neutral	Neutral	hit	n/a
262.6894	n/a	RESPONSE	n/a	n/a	n/a	n/a	n/a	n/a	n/a	yellow
262.7084	1.0167	ITI	n/a	n/a	n/a	n/a	n/a	n/a	n/a	n/a
263.7251	0.5167	FIXCROSS	n/a	n/a	n/a	n/a	n/a	n/a	n/a	n/a
264.2417	0.6	COLOR_NAME	7	Incongruent	zielony	green	żółty	yellow	hit	n/a
264.8141	n/a	RESPONSE	n/a	n/a	n/a	n/a	n/a	n/a	n/a	green
264.8418	1.0167	ITI	n/a	n/a	n/a	n/a	n/a	n/a	n/a	n/a
265.8584	0.5167	FIXCROSS	n/a	n/a	n/a	n/a	n/a	n/a	n/a	n/a
266.3751	0.5	COLOR_NAME	8	Neutral	czerwony	red	Neutral	Neutral	hit	n/a
266.843	n/a	RESPONSE	n/a	n/a	n/a	n/a	n/a	n/a	n/a	red
266.8751	1.0167	ITI	n/a	n/a	n/a	n/a	n/a	n/a	n/a	n/a
267.8918	0.5167	FIXCROSS	n/a	n/a	n/a	n/a	n/a	n/a	n/a	n/a
268.4084	0.4667	COLOR_NAME	9	Neutral	czerwony	red	Neutral	Neutral	hit	n/a
268.8557	n/a	RESPONSE	n/a	n/a	n/a	n/a	n/a	n/a	n/a	red
268.8751	1.0167	ITI	n/a	n/a	n/a	n/a	n/a	n/a	n/a	n/a
269.8918	0.5167	FIXCROSS	n/a	n/a	n/a	n/a	n/a	n/a	n/a	n/a
270.4085	0.5667	COLOR_NAME	10	Incongruent	czerwony	red	niebieski	blue	hit	n/a
270.9486	n/a	RESPONSE	n/a	n/a	n/a	n/a	n/a	n/a	n/a	red
270.9751	1.0167	ITI	n/a	n/a	n/a	n/a	n/a	n/a	n/a	n/a
271.9918	0.5167	FIXCROSS	n/a	n/a	n/a	n/a	n/a	n/a	n/a	n/a
272.5085	0.4333	COLOR_NAME	11	Neutral	niebieski	blue	Neutral	Neutral	hit	n/a
272.9134	n/a	RESPONSE	n/a	n/a	n/a	n/a	n/a	n/a	n/a	blue
272.9418	1.0167	ITI	n/a	n/a	n/a	n/a	n/a	n/a	n/a	n/a
273.9585	0.5167	FIXCROSS	n/a	n/a	n/a	n/a	n/a	n/a	n/a	n/a
274.4752	0.55	COLOR_NAME	12	Neutral	żółty	yellow	Neutral	Neutral	hit	n/a
275.0062	n/a	RESPONSE	n/a	n/a	n/a	n/a	n/a	n/a	n/a	yellow
275.0252	1.0167	ITI	n/a	n/a	n/a	n/a	n/a	n/a	n/a	n/a
276.0418	0.5167	FIXCROSS	n/a	n/a	n/a	n/a	n/a	n/a	n/a	n/a
276.5585	0.7833	COLOR_NAME	13	Neutral	niebieski	blue	Neutral	Neutral	hit	n/a
277.3225	n/a	RESPONSE	n/a	n/a	n/a	n/a	n/a	n/a	n/a	blue
277.3419	1.0167	ITI	n/a	n/a	n/a	n/a	n/a	n/a	n/a	n/a
278.3585	0.5167	FIXCROSS	n/a	n/a	n/a	n/a	n/a	n/a	n/a	n/a
278.8752	0.7	COLOR_NAME	14	Incongruent	żółty	yellow	czerwony	red	hit	n/a
279.543	n/a	RESPONSE	n/a	n/a	n/a	n/a	n/a	n/a	n/a	yellow
279.5752	1.0167	ITI	n/a	n/a	n/a	n/a	n/a	n/a	n/a	n/a
280.5919	0.5167	FIXCROSS	n/a	n/a	n/a	n/a	n/a	n/a	n/a	n/a
281.1086	0.6167	COLOR_NAME	15	Neutral	zielony	green	Neutral	Neutral	hit	n/a
281.6997	n/a	RESPONSE	n/a	n/a	n/a	n/a	n/a	n/a	n/a	green
281.7252	1.0167	ITI	n/a	n/a	n/a	n/a	n/a	n/a	n/a	n/a
282.7419	0.5167	FIXCROSS	n/a	n/a	n/a	n/a	n/a	n/a	n/a	n/a
283.2586	0.5833	COLOR_NAME	16	Neutral	czerwony	red	Neutral	Neutral	hit	n/a
283.8083	n/a	RESPONSE	n/a	n/a	n/a	n/a	n/a	n/a	n/a	red
283.8419	1.0167	ITI	n/a	n/a	n/a	n/a	n/a	n/a	n/a	n/a
284.8586	0.5167	FIXCROSS	n/a	n/a	n/a	n/a	n/a	n/a	n/a	n/a
285.3753	0.7333	COLOR_NAME	17	Incongruent	niebieski	blue	czerwony	red	hit	n/a
286.0768	n/a	RESPONSE	n/a	n/a	n/a	n/a	n/a	n/a	n/a	blue
286.1086	1.0167	ITI	n/a	n/a	n/a	n/a	n/a	n/a	n/a	n/a
287.1253	0.5167	FIXCROSS	n/a	n/a	n/a	n/a	n/a	n/a	n/a	n/a
287.6419	0.85	COLOR_NAME	18	Neutral	zielony	green	Neutral	Neutral	hit	n/a
288.4731	n/a	RESPONSE	n/a	n/a	n/a	n/a	n/a	n/a	n/a	green
288.4919	1.0167	ITI	n/a	n/a	n/a	n/a	n/a	n/a	n/a	n/a
289.5086	0.5167	FIXCROSS	n/a	n/a	n/a	n/a	n/a	n/a	n/a	n/a
290.0253	0.75	COLOR_NAME	19	Neutral	niebieski	blue	Neutral	Neutral	hit	n/a
290.7576	n/a	RESPONSE	n/a	n/a	n/a	n/a	n/a	n/a	n/a	blue
290.7753	1.0167	ITI	n/a	n/a	n/a	n/a	n/a	n/a	n/a	n/a
291.792	0.5167	FIXCROSS	n/a	n/a	n/a	n/a	n/a	n/a	n/a	n/a
292.3086	0.5666	COLOR_NAME	20	Neutral	czerwony	red	Neutral	Neutral	hit	n/a
292.8503	n/a	RESPONSE	n/a	n/a	n/a	n/a	n/a	n/a	n/a	red
292.8753	1.0167	ITI	n/a	n/a	n/a	n/a	n/a	n/a	n/a	n/a
293.892	0.5167	FIXCROSS	n/a	n/a	n/a	n/a	n/a	n/a	n/a	n/a
294.4087	0.85	COLOR_NAME	21	Incongruent	niebieski	blue	żółty	yellow	hit	n/a
295.2306	n/a	RESPONSE	n/a	n/a	n/a	n/a	n/a	n/a	n/a	blue
295.2587	1.0167	ITI	n/a	n/a	n/a	n/a	n/a	n/a	n/a	n/a
296.2753	0.5167	FIXCROSS	n/a	n/a	n/a	n/a	n/a	n/a	n/a	n/a
296.792	0.5333	COLOR_NAME	22	Incongruent	żółty	yellow	zielony	green	incorrect	n/a
297.3074	n/a	RESPONSE	n/a	n/a	n/a	n/a	n/a	n/a	n/a	green
297.3254	1.0167	ITI	n/a	n/a	n/a	n/a	n/a	n/a	n/a	n/a
298.342	0.5167	FIXCROSS	n/a	n/a	n/a	n/a	n/a	n/a	n/a	n/a
298.8587	0.6667	COLOR_NAME	23	Neutral	zielony	green	Neutral	Neutral	hit	n/a
299.496	n/a	RESPONSE	n/a	n/a	n/a	n/a	n/a	n/a	n/a	green
299.5254	1.0167	ITI	n/a	n/a	n/a	n/a	n/a	n/a	n/a	n/a
300.542	0.5167	FIXCROSS	n/a	n/a	n/a	n/a	n/a	n/a	n/a	n/a
301.0587	0.6667	COLOR_NAME	24	Incongruent	niebieski	blue	czerwony	red	hit	n/a
301.7006	n/a	RESPONSE	n/a	n/a	n/a	n/a	n/a	n/a	n/a	blue
301.7254	1.0167	ITI	n/a	n/a	n/a	n/a	n/a	n/a	n/a	n/a
302.7421	0.5167	FIXCROSS	n/a	n/a	n/a	n/a	n/a	n/a	n/a	n/a
303.2587	0.4667	COLOR_NAME	25	Incongruent	czerwony	red	zielony	green	hit	n/a
303.6975	n/a	RESPONSE	n/a	n/a	n/a	n/a	n/a	n/a	n/a	red
303.7254	1.0167	ITI	n/a	n/a	n/a	n/a	n/a	n/a	n/a	n/a
304.7421	0.5167	FIXCROSS	n/a	n/a	n/a	n/a	n/a	n/a	n/a	n/a
305.2587	0.5667	COLOR_NAME	26	Neutral	niebieski	blue	Neutral	Neutral	hit	n/a
305.8062	n/a	RESPONSE	n/a	n/a	n/a	n/a	n/a	n/a	n/a	blue
305.8254	1.0167	ITI	n/a	n/a	n/a	n/a	n/a	n/a	n/a	n/a
306.8421	0.5167	FIXCROSS	n/a	n/a	n/a	n/a	n/a	n/a	n/a	n/a
307.3588	0.5667	COLOR_NAME	27	Neutral	czerwony	red	Neutral	Neutral	hit	n/a
307.8991	n/a	RESPONSE	n/a	n/a	n/a	n/a	n/a	n/a	n/a	red
307.9254	1.0167	ITI	n/a	n/a	n/a	n/a	n/a	n/a	n/a	n/a
308.9421	0.5167	FIXCROSS	n/a	n/a	n/a	n/a	n/a	n/a	n/a	n/a
309.4588	0.6	COLOR_NAME	28	Neutral	zielony	green	Neutral	Neutral	hit	n/a
310.0396	n/a	RESPONSE	n/a	n/a	n/a	n/a	n/a	n/a	n/a	green
310.0588	1.0167	ITI	n/a	n/a	n/a	n/a	n/a	n/a	n/a	n/a
311.0755	0.5167	FIXCROSS	n/a	n/a	n/a	n/a	n/a	n/a	n/a	n/a
311.5921	0.55	COLOR_NAME	29	Incongruent	żółty	yellow	zielony	green	hit	n/a
312.1165	n/a	RESPONSE	n/a	n/a	n/a	n/a	n/a	n/a	n/a	yellow
312.1421	1.0167	ITI	n/a	n/a	n/a	n/a	n/a	n/a	n/a	n/a
313.1588	0.5167	FIXCROSS	n/a	n/a	n/a	n/a	n/a	n/a	n/a	n/a
313.6755	0.6333	COLOR_NAME	30	Neutral	żółty	yellow	Neutral	Neutral	hit	n/a
314.2891	n/a	RESPONSE	n/a	n/a	n/a	n/a	n/a	n/a	n/a	yellow
314.3088	1.0167	ITI	n/a	n/a	n/a	n/a	n/a	n/a	n/a	n/a
315.3255	0.5167	FIXCROSS	n/a	n/a	n/a	n/a	n/a	n/a	n/a	n/a
315.8422	0.55	COLOR_NAME	31	Neutral	niebieski	blue	Neutral	Neutral	hit	n/a
316.3658	n/a	RESPONSE	n/a	n/a	n/a	n/a	n/a	n/a	n/a	blue
316.3922	1.0167	ITI	n/a	n/a	n/a	n/a	n/a	n/a	n/a	n/a
317.4089	0.5167	FIXCROSS	n/a	n/a	n/a	n/a	n/a	n/a	n/a	n/a
317.9255	0.85	COLOR_NAME	32	Incongruent	zielony	green	żółty	yellow	hit	n/a
318.7462	n/a	RESPONSE	n/a	n/a	n/a	n/a	n/a	n/a	n/a	green
318.7755	1.0167	ITI	n/a	n/a	n/a	n/a	n/a	n/a	n/a	n/a
319.7922	0.5167	FIXCROSS	n/a	n/a	n/a	n/a	n/a	n/a	n/a	n/a
320.3089	0.5833	COLOR_NAME	33	Neutral	zielony	green	Neutral	Neutral	hit	n/a
320.8709	n/a	RESPONSE	n/a	n/a	n/a	n/a	n/a	n/a	n/a	green
320.8922	1.0167	ITI	n/a	n/a	n/a	n/a	n/a	n/a	n/a	n/a
321.9089	0.5167	FIXCROSS	n/a	n/a	n/a	n/a	n/a	n/a	n/a	n/a
322.4256	0.65	COLOR_NAME	34	Incongruent	niebieski	blue	żółty	yellow	hit	n/a
323.0435	n/a	RESPONSE	n/a	n/a	n/a	n/a	n/a	n/a	n/a	blue
323.0756	1.0167	ITI	n/a	n/a	n/a	n/a	n/a	n/a	n/a	n/a
324.0922	0.5167	FIXCROSS	n/a	n/a	n/a	n/a	n/a	n/a	n/a	n/a
324.6089	0.6	COLOR_NAME	35	Incongruent	czerwony	red	żółty	yellow	hit	n/a
325.1842	n/a	RESPONSE	n/a	n/a	n/a	n/a	n/a	n/a	n/a	red
325.2089	1.0167	ITI	n/a	n/a	n/a	n/a	n/a	n/a	n/a	n/a
326.2256	0.5167	FIXCROSS	n/a	n/a	n/a	n/a	n/a	n/a	n/a	n/a
326.7423	0.5167	COLOR_NAME	36	Incongruent	czerwony	red	żółty	yellow	hit	n/a
327.229	n/a	RESPONSE	n/a	n/a	n/a	n/a	n/a	n/a	n/a	red
327.2589	1.0167	ITI	n/a	n/a	n/a	n/a	n/a	n/a	n/a	n/a
328.2756	0.5167	FIXCROSS	n/a	n/a	n/a	n/a	n/a	n/a	n/a	n/a
328.7923	0.65	COLOR_NAME	37	Incongruent	zielony	green	żółty	yellow	hit	n/a
329.4177	n/a	RESPONSE	n/a	n/a	n/a	n/a	n/a	n/a	n/a	green
329.4423	1.0167	ITI	n/a	n/a	n/a	n/a	n/a	n/a	n/a	n/a
330.459	0.5167	FIXCROSS	n/a	n/a	n/a	n/a	n/a	n/a	n/a	n/a
330.9756	0.5833	COLOR_NAME	38	Neutral	żółty	yellow	Neutral	Neutral	hit	n/a
331.5263	n/a	RESPONSE	n/a	n/a	n/a	n/a	n/a	n/a	n/a	yellow
331.559	1.0167	ITI	n/a	n/a	n/a	n/a	n/a	n/a	n/a	n/a
332.5756	0.5167	FIXCROSS	n/a	n/a	n/a	n/a	n/a	n/a	n/a	n/a
333.0923	0.5667	COLOR_NAME	39	Incongruent	czerwony	red	zielony	green	hit	n/a
333.6351	n/a	RESPONSE	n/a	n/a	n/a	n/a	n/a	n/a	n/a	red
333.659	1.0167	ITI	n/a	n/a	n/a	n/a	n/a	n/a	n/a	n/a
334.6757	0.5167	FIXCROSS	n/a	n/a	n/a	n/a	n/a	n/a	n/a	n/a
335.1923	0.6333	COLOR_NAME	40	Incongruent	żółty	yellow	zielony	green	hit	n/a
335.8077	n/a	RESPONSE	n/a	n/a	n/a	n/a	n/a	n/a	n/a	yellow
335.8257	1.0167	ITI	n/a	n/a	n/a	n/a	n/a	n/a	n/a	n/a
336.8423	0.5167	FIXCROSS	n/a	n/a	n/a	n/a	n/a	n/a	n/a	n/a
337.359	0.5167	COLOR_NAME	41	Neutral	niebieski	blue	Neutral	Neutral	hit	n/a
337.8526	n/a	RESPONSE	n/a	n/a	n/a	n/a	n/a	n/a	n/a	blue
337.8757	1.0167	ITI	n/a	n/a	n/a	n/a	n/a	n/a	n/a	n/a
338.8924	0.5167	FIXCROSS	n/a	n/a	n/a	n/a	n/a	n/a	n/a	n/a
339.409	0.6667	COLOR_NAME	42	Incongruent	zielony	green	czerwony	red	hit	n/a
340.0571	n/a	RESPONSE	n/a	n/a	n/a	n/a	n/a	n/a	n/a	green
340.0757	1.0167	ITI	n/a	n/a	n/a	n/a	n/a	n/a	n/a	n/a
341.0924	0.5167	FIXCROSS	n/a	n/a	n/a	n/a	n/a	n/a	n/a	n/a
341.6091	0.6333	COLOR_NAME	43	Incongruent	niebieski	blue	żółty	yellow	hit	n/a
342.2138	n/a	RESPONSE	n/a	n/a	n/a	n/a	n/a	n/a	n/a	blue
342.2424	1.0167	ITI	n/a	n/a	n/a	n/a	n/a	n/a	n/a	n/a
343.2591	0.5167	FIXCROSS	n/a	n/a	n/a	n/a	n/a	n/a	n/a	n/a
343.7757	0.65	COLOR_NAME	44	Incongruent	żółty	yellow	niebieski	blue	hit	n/a
344.4024	n/a	RESPONSE	n/a	n/a	n/a	n/a	n/a	n/a	n/a	yellow
344.4257	1.0167	ITI	n/a	n/a	n/a	n/a	n/a	n/a	n/a	n/a
345.4424	0.5167	FIXCROSS	n/a	n/a	n/a	n/a	n/a	n/a	n/a	n/a
345.9591	0.65	COLOR_NAME	45	Incongruent	zielony	green	niebieski	blue	hit	n/a
346.591	n/a	RESPONSE	n/a	n/a	n/a	n/a	n/a	n/a	n/a	green
346.6091	1.0167	ITI	n/a	n/a	n/a	n/a	n/a	n/a	n/a	n/a
347.6258	0.5167	FIXCROSS	n/a	n/a	n/a	n/a	n/a	n/a	n/a	n/a
348.1424	0.5833	COLOR_NAME	46	Incongruent	czerwony	red	żółty	yellow	hit	n/a
348.6997	n/a	RESPONSE	n/a	n/a	n/a	n/a	n/a	n/a	n/a	red
348.7258	1.0167	ITI	n/a	n/a	n/a	n/a	n/a	n/a	n/a	n/a
349.7424	0.5167	FIXCROSS	n/a	n/a	n/a	n/a	n/a	n/a	n/a	n/a
350.2591	0.6333	COLOR_NAME	47	Incongruent	żółty	yellow	czerwony	red	hit	n/a
350.8724	n/a	RESPONSE	n/a	n/a	n/a	n/a	n/a	n/a	n/a	yellow
350.8925	1.0167	ITI	n/a	n/a	n/a	n/a	n/a	n/a	n/a	n/a
351.9091	0.5167	FIXCROSS	n/a	n/a	n/a	n/a	n/a	n/a	n/a	n/a
352.4258	0.7	COLOR_NAME	48	Neutral	zielony	green	Neutral	Neutral	hit	n/a
353.093	n/a	RESPONSE	n/a	n/a	n/a	n/a	n/a	n/a	n/a	green
353.1258	1.0167	ITI	n/a	n/a	n/a	n/a	n/a	n/a	n/a	n/a
354.1425	0.5167	FIXCROSS	n/a	n/a	n/a	n/a	n/a	n/a	n/a	n/a
354.6591	0.55	COLOR_NAME	49	Neutral	zielony	green	Neutral	Neutral	hit	n/a
355.1857	n/a	RESPONSE	n/a	n/a	n/a	n/a	n/a	n/a	n/a	green
355.2092	1.0167	ITI	n/a	n/a	n/a	n/a	n/a	n/a	n/a	n/a
356.2258	0.5167	FIXCROSS	n/a	n/a	n/a	n/a	n/a	n/a	n/a	n/a
356.7425	0.6333	COLOR_NAME	50	Neutral	żółty	yellow	Neutral	Neutral	hit	n/a
357.3425	n/a	RESPONSE	n/a	n/a	n/a	n/a	n/a	n/a	n/a	yellow
357.3758	1.0167	ITI	n/a	n/a	n/a	n/a	n/a	n/a	n/a	n/a
358.3925	0.5167	FIXCROSS	n/a	n/a	n/a	n/a	n/a	n/a	n/a	n/a
358.9092	0.6167	COLOR_NAME	51	Incongruent	niebieski	blue	zielony	green	hit	n/a
359.4991	n/a	RESPONSE	n/a	n/a	n/a	n/a	n/a	n/a	n/a	blue
359.5259	1.0167	ITI	n/a	n/a	n/a	n/a	n/a	n/a	n/a	n/a
360.5425	0.5167	FIXCROSS	n/a	n/a	n/a	n/a	n/a	n/a	n/a	n/a
361.0592	0.4667	COLOR_NAME	52	Incongruent	czerwony	red	niebieski	blue	hit	n/a
361.4961	n/a	RESPONSE	n/a	n/a	n/a	n/a	n/a	n/a	n/a	red
361.5259	1.0167	ITI	n/a	n/a	n/a	n/a	n/a	n/a	n/a	n/a
362.5426	0.5167	FIXCROSS	n/a	n/a	n/a	n/a	n/a	n/a	n/a	n/a
363.0592	0.4833	COLOR_NAME	53	Neutral	czerwony	red	Neutral	Neutral	hit	n/a
363.5249	n/a	RESPONSE	n/a	n/a	n/a	n/a	n/a	n/a	n/a	red
363.5426	1.0167	ITI	n/a	n/a	n/a	n/a	n/a	n/a	n/a	n/a
364.5592	0.5167	FIXCROSS	n/a	n/a	n/a	n/a	n/a	n/a	n/a	n/a
365.0759	0.6	COLOR_NAME	54	Incongruent	zielony	green	czerwony	red	hit	n/a
365.6496	n/a	RESPONSE	n/a	n/a	n/a	n/a	n/a	n/a	n/a	green
365.6759	1.0167	ITI	n/a	n/a	n/a	n/a	n/a	n/a	n/a	n/a
366.6926	0.5167	FIXCROSS	n/a	n/a	n/a	n/a	n/a	n/a	n/a	n/a
367.2093	0.65	COLOR_NAME	55	Neutral	niebieski	blue	Neutral	Neutral	hit	n/a
367.8382	n/a	RESPONSE	n/a	n/a	n/a	n/a	n/a	n/a	n/a	blue
367.8593	1.0167	ITI	n/a	n/a	n/a	n/a	n/a	n/a	n/a	n/a
368.8759	0.5167	FIXCROSS	n/a	n/a	n/a	n/a	n/a	n/a	n/a	n/a
369.3926	0.4667	COLOR_NAME	56	Incongruent	żółty	yellow	niebieski	blue	hit	n/a
369.8352	n/a	RESPONSE	n/a	n/a	n/a	n/a	n/a	n/a	n/a	yellow
369.8593	1.0167	ITI	n/a	n/a	n/a	n/a	n/a	n/a	n/a	n/a
370.8759	0.5167	FIXCROSS	n/a	n/a	n/a	n/a	n/a	n/a	n/a	n/a
371.3926	0.6	COLOR_NAME	57	Neutral	niebieski	blue	Neutral	Neutral	hit	n/a
371.9599	n/a	RESPONSE	n/a	n/a	n/a	n/a	n/a	n/a	n/a	blue
371.9926	1.0167	ITI	n/a	n/a	n/a	n/a	n/a	n/a	n/a	n/a
373.0093	0.5167	FIXCROSS	n/a	n/a	n/a	n/a	n/a	n/a	n/a	n/a
373.526	0.5333	COLOR_NAME	58	Neutral	żółty	yellow	Neutral	Neutral	hit	n/a
374.0367	n/a	RESPONSE	n/a	n/a	n/a	n/a	n/a	n/a	n/a	yellow
374.0593	1.0167	ITI	n/a	n/a	n/a	n/a	n/a	n/a	n/a	n/a
375.076	0.5167	FIXCROSS	n/a	n/a	n/a	n/a	n/a	n/a	n/a	n/a
375.5927	0.7167	COLOR_NAME	59	Incongruent	żółty	yellow	czerwony	red	hit	n/a
376.2892	n/a	RESPONSE	n/a	n/a	n/a	n/a	n/a	n/a	n/a	yellow
376.3093	1.0167	ITI	n/a	n/a	n/a	n/a	n/a	n/a	n/a	n/a
377.326	0.5167	FIXCROSS	n/a	n/a	n/a	n/a	n/a	n/a	n/a	n/a
377.8427	0.6667	COLOR_NAME	60	Neutral	niebieski	blue	Neutral	Neutral	hit	n/a
378.4778	n/a	RESPONSE	n/a	n/a	n/a	n/a	n/a	n/a	n/a	blue
378.5093	1.0167	ITI	n/a	n/a	n/a	n/a	n/a	n/a	n/a	n/a
379.526	0.5167	FIXCROSS	n/a	n/a	n/a	n/a	n/a	n/a	n/a	n/a
380.0427	0.4333	COLOR_NAME	61	Incongruent	czerwony	red	zielony	green	hit	n/a
380.4427	n/a	RESPONSE	n/a	n/a	n/a	n/a	n/a	n/a	n/a	red
380.476	1.0167	ITI	n/a	n/a	n/a	n/a	n/a	n/a	n/a	n/a
381.4927	0.5167	FIXCROSS	n/a	n/a	n/a	n/a	n/a	n/a	n/a	n/a
382.0094	0.65	COLOR_NAME	62	Incongruent	zielony	green	niebieski	blue	hit	n/a
382.6313	n/a	RESPONSE	n/a	n/a	n/a	n/a	n/a	n/a	n/a	green
382.6594	1.0167	ITI	n/a	n/a	n/a	n/a	n/a	n/a	n/a	n/a
383.6761	0.5167	FIXCROSS	n/a	n/a	n/a	n/a	n/a	n/a	n/a	n/a
384.1927	0.6833	COLOR_NAME	63	Incongruent	niebieski	blue	zielony	green	hit	n/a
384.8519	n/a	RESPONSE	n/a	n/a	n/a	n/a	n/a	n/a	n/a	blue
384.8761	1.0167	ITI	n/a	n/a	n/a	n/a	n/a	n/a	n/a	n/a
385.8927	0.5167	FIXCROSS	n/a	n/a	n/a	n/a	n/a	n/a	n/a	n/a
386.4094	0.5833	COLOR_NAME	64	Incongruent	niebieski	blue	zielony	green	hit	n/a
386.9607	n/a	RESPONSE	n/a	n/a	n/a	n/a	n/a	n/a	n/a	blue
386.9927	1.0167	ITI	n/a	n/a	n/a	n/a	n/a	n/a	n/a	n/a
388.0094	0.5167	FIXCROSS	n/a	n/a	n/a	n/a	n/a	n/a	n/a	n/a
388.5261	0.65	COLOR_NAME	65	Neutral	zielony	green	Neutral	Neutral	hit	n/a
389.1491	n/a	RESPONSE	n/a	n/a	n/a	n/a	n/a	n/a	n/a	green
389.1761	1.0167	ITI	n/a	n/a	n/a	n/a	n/a	n/a	n/a	n/a
390.1928	0.5167	FIXCROSS	n/a	n/a	n/a	n/a	n/a	n/a	n/a	n/a
390.7094	0.5333	COLOR_NAME	66	Neutral	żółty	yellow	Neutral	Neutral	incorrect	n/a
391.21	n/a	RESPONSE	n/a	n/a	n/a	n/a	n/a	n/a	n/a	blue
391.2428	1.0167	ITI	n/a	n/a	n/a	n/a	n/a	n/a	n/a	n/a
392.2595	0.5167	FIXCROSS	n/a	n/a	n/a	n/a	n/a	n/a	n/a	n/a
392.7761	0.6	COLOR_NAME	67	Neutral	czerwony	red	Neutral	Neutral	hit	n/a
393.3507	n/a	RESPONSE	n/a	n/a	n/a	n/a	n/a	n/a	n/a	red
393.3761	1.0167	ITI	n/a	n/a	n/a	n/a	n/a	n/a	n/a	n/a
394.3928	0.5167	FIXCROSS	n/a	n/a	n/a	n/a	n/a	n/a	n/a	n/a
394.9095	0.5833	COLOR_NAME	68	Neutral	czerwony	red	Neutral	Neutral	hit	n/a
395.4753	n/a	RESPONSE	n/a	n/a	n/a	n/a	n/a	n/a	n/a	red
395.4928	1.0167	ITI	n/a	n/a	n/a	n/a	n/a	n/a	n/a	n/a
396.5095	0.5167	FIXCROSS	n/a	n/a	n/a	n/a	n/a	n/a	n/a	n/a
397.0262	1.1833	COLOR_NAME	69	Incongruent	niebieski	blue	czerwony	red	hit	n/a
398.1752	n/a	RESPONSE	n/a	n/a	n/a	n/a	n/a	n/a	n/a	blue
398.2095	1.0167	ITI	n/a	n/a	n/a	n/a	n/a	n/a	n/a	n/a
399.2262	0.5167	FIXCROSS	n/a	n/a	n/a	n/a	n/a	n/a	n/a	n/a
399.7428	0.7167	COLOR_NAME	70	Incongruent	zielony	green	niebieski	blue	hit	n/a
400.4277	n/a	RESPONSE	n/a	n/a	n/a	n/a	n/a	n/a	n/a	green
400.4595	1.0167	ITI	n/a	n/a	n/a	n/a	n/a	n/a	n/a	n/a
401.4762	0.5167	FIXCROSS	n/a	n/a	n/a	n/a	n/a	n/a	n/a	n/a
401.9929	0.8	COLOR_NAME	71	Incongruent	czerwony	red	niebieski	blue	hit	n/a
402.7601	n/a	RESPONSE	n/a	n/a	n/a	n/a	n/a	n/a	n/a	red
402.7929	1.0167	ITI	n/a	n/a	n/a	n/a	n/a	n/a	n/a	n/a
403.8095	0.5167	FIXCROSS	n/a	n/a	n/a	n/a	n/a	n/a	n/a	n/a
404.3262	0.5333	COLOR_NAME	72	Neutral	żółty	yellow	Neutral	Neutral	hit	n/a
404.8368	n/a	RESPONSE	n/a	n/a	n/a	n/a	n/a	n/a	n/a	yellow
404.8596	1.0334	ITI	n/a	n/a	n/a	n/a	n/a	n/a	n/a	n/a
409.5017	n/a	RESPONSE	n/a	n/a	n/a	n/a	n/a	n/a	n/a	n/a
