onset	duration	trial_type	trial_number	stroop_condition	stim_text(PL)	stim_text(eng)	stim_color(PL)	stim_color(eng)	response_type	response_color
0.0	n/a	RESPONSE	n/a	n/a	n/a	n/a	n/a	n/a	n/a	n/a
0.0691	1.0333	ITI	n/a	n/a	n/a	n/a	n/a	n/a	n/a	n/a
1.1025	0.5167	FIXCROSS	n/a	n/a	n/a	n/a	n/a	n/a	n/a	n/a
1.6191	1.4167	T_INK	1	Neutral	xxxxxxx	xxxxxxx	niebieski	blue	hit	n/a
3.0035	n/a	RESPONSE	n/a	n/a	n/a	n/a	n/a	n/a	n/a	blue
3.0358	0.5167	FEEDBACK	n/a	n/a	n/a	n/a	n/a	n/a	n/a	n/a
3.5525	1.0167	ITI	n/a	n/a	n/a	n/a	n/a	n/a	n/a	n/a
4.5692	0.5167	FIXCROSS	n/a	n/a	n/a	n/a	n/a	n/a	n/a	n/a
5.0858	0.8	T_INK	2	Neutral	xxxxxxxx	xxxxxxxx	niebieski	blue	hit	n/a
5.8632	n/a	RESPONSE	n/a	n/a	n/a	n/a	n/a	n/a	n/a	blue
5.8858	0.5167	FEEDBACK	n/a	n/a	n/a	n/a	n/a	n/a	n/a	n/a
6.4025	1.0167	ITI	n/a	n/a	n/a	n/a	n/a	n/a	n/a	n/a
7.4192	0.5167	FIXCROSS	n/a	n/a	n/a	n/a	n/a	n/a	n/a	n/a
7.9359	0.7167	T_INK	3	Neutral	xxxxxxx	xxxxxxx	żółty	yellow	hit	n/a
8.627	n/a	RESPONSE	n/a	n/a	n/a	n/a	n/a	n/a	n/a	yellow
8.6525	0.5167	FEEDBACK	n/a	n/a	n/a	n/a	n/a	n/a	n/a	n/a
9.1692	1.0167	ITI	n/a	n/a	n/a	n/a	n/a	n/a	n/a	n/a
10.1859	0.5167	FIXCROSS	n/a	n/a	n/a	n/a	n/a	n/a	n/a	n/a
10.7025	1.5667	T_INK	4	Incongruent	niebieski	blue	zielony	green	hit	n/a
12.2377	n/a	RESPONSE	n/a	n/a	n/a	n/a	n/a	n/a	n/a	green
12.2692	0.5167	FEEDBACK	n/a	n/a	n/a	n/a	n/a	n/a	n/a	n/a
12.7859	1.0167	ITI	n/a	n/a	n/a	n/a	n/a	n/a	n/a	n/a
13.8026	0.5167	FIXCROSS	n/a	n/a	n/a	n/a	n/a	n/a	n/a	n/a
14.3192	0.75	T_INK	5	Neutral	xxxxxxx	xxxxxxx	czerwony	red	hit	n/a
15.0495	n/a	RESPONSE	n/a	n/a	n/a	n/a	n/a	n/a	n/a	red
15.0692	0.5167	FEEDBACK	n/a	n/a	n/a	n/a	n/a	n/a	n/a	n/a
15.5859	1.0167	ITI	n/a	n/a	n/a	n/a	n/a	n/a	n/a	n/a
16.6026	0.5167	FIXCROSS	n/a	n/a	n/a	n/a	n/a	n/a	n/a	n/a
17.1193	0.6833	T_INK	6	Neutral	xxxxxxxxx	xxxxxxxxx	czerwony	red	hit	n/a
17.7815	n/a	RESPONSE	n/a	n/a	n/a	n/a	n/a	n/a	n/a	red
17.8026	0.5167	FEEDBACK	n/a	n/a	n/a	n/a	n/a	n/a	n/a	n/a
18.3193	1.0167	ITI	n/a	n/a	n/a	n/a	n/a	n/a	n/a	n/a
19.336	0.5167	FIXCROSS	n/a	n/a	n/a	n/a	n/a	n/a	n/a	n/a
19.8526	1.25	T_INK	7	Incongruent	niebieski	blue	czerwony	red	hit	n/a
21.0725	n/a	RESPONSE	n/a	n/a	n/a	n/a	n/a	n/a	n/a	red
21.1026	0.5167	FEEDBACK	n/a	n/a	n/a	n/a	n/a	n/a	n/a	n/a
21.6193	1.0167	ITI	n/a	n/a	n/a	n/a	n/a	n/a	n/a	n/a
22.636	0.5167	FIXCROSS	n/a	n/a	n/a	n/a	n/a	n/a	n/a	n/a
23.1527	1.3333	T_INK	8	Incongruent	zielony	green	niebieski	blue	hit	n/a
24.4594	n/a	RESPONSE	n/a	n/a	n/a	n/a	n/a	n/a	n/a	blue
24.486	0.5167	FEEDBACK	n/a	n/a	n/a	n/a	n/a	n/a	n/a	n/a
25.0027	1.0167	ITI	n/a	n/a	n/a	n/a	n/a	n/a	n/a	n/a
26.0193	0.5167	FIXCROSS	n/a	n/a	n/a	n/a	n/a	n/a	n/a	n/a
26.536	0.9667	T_INK	9	Incongruent	zielony	green	żółty	yellow	hit	n/a
27.479	n/a	RESPONSE	n/a	n/a	n/a	n/a	n/a	n/a	n/a	yellow
27.5027	0.5167	FEEDBACK	n/a	n/a	n/a	n/a	n/a	n/a	n/a	n/a
28.0193	1.0167	ITI	n/a	n/a	n/a	n/a	n/a	n/a	n/a	n/a
29.036	0.5167	FIXCROSS	n/a	n/a	n/a	n/a	n/a	n/a	n/a	n/a
29.5527	0.9667	T_INK	10	Neutral	xxxxxxxx	xxxxxxxx	zielony	green	hit	n/a
30.4984	n/a	RESPONSE	n/a	n/a	n/a	n/a	n/a	n/a	n/a	green
30.5194	0.5167	FEEDBACK	n/a	n/a	n/a	n/a	n/a	n/a	n/a	n/a
31.036	1.0167	ITI	n/a	n/a	n/a	n/a	n/a	n/a	n/a	n/a
32.0527	0.5167	FIXCROSS	n/a	n/a	n/a	n/a	n/a	n/a	n/a	n/a
32.5694	0.9333	T_INK	11	Incongruent	czerwony	red	zielony	green	hit	n/a
33.47	n/a	RESPONSE	n/a	n/a	n/a	n/a	n/a	n/a	n/a	green
33.5027	0.5167	FEEDBACK	n/a	n/a	n/a	n/a	n/a	n/a	n/a	n/a
34.0194	1.0167	ITI	n/a	n/a	n/a	n/a	n/a	n/a	n/a	n/a
35.0361	0.5167	FIXCROSS	n/a	n/a	n/a	n/a	n/a	n/a	n/a	n/a
35.5528	1.2833	T_INK	12	Incongruent	żółty	yellow	niebieski	blue	hit	n/a
36.8091	n/a	RESPONSE	n/a	n/a	n/a	n/a	n/a	n/a	n/a	blue
36.8361	0.5167	FEEDBACK	n/a	n/a	n/a	n/a	n/a	n/a	n/a	n/a
37.3528	1.0333	ITI	n/a	n/a	n/a	n/a	n/a	n/a	n/a	n/a
43.3594	n/a	RESPONSE	n/a	n/a	n/a	n/a	n/a	n/a	n/a	n/a
43.4195	1.0167	ITI	n/a	n/a	n/a	n/a	n/a	n/a	n/a	n/a
44.4361	0.5167	FIXCROSS	n/a	n/a	n/a	n/a	n/a	n/a	n/a	n/a
44.9528	1.15	INK	1	Incongruent	niebieski	blue	czerwony	red	hit	n/a
46.0756	n/a	RESPONSE	n/a	n/a	n/a	n/a	n/a	n/a	n/a	red
46.1028	1.0167	ITI	n/a	n/a	n/a	n/a	n/a	n/a	n/a	n/a
47.1195	0.5167	FIXCROSS	n/a	n/a	n/a	n/a	n/a	n/a	n/a	n/a
47.6362	0.8	INK	2	Incongruent	żółty	yellow	niebieski	blue	hit	n/a
48.4081	n/a	RESPONSE	n/a	n/a	n/a	n/a	n/a	n/a	n/a	blue
48.4362	1.0167	ITI	n/a	n/a	n/a	n/a	n/a	n/a	n/a	n/a
49.4529	0.5167	FIXCROSS	n/a	n/a	n/a	n/a	n/a	n/a	n/a	n/a
49.9695	0.8167	INK	3	Neutral	xxxxxxxxx	xxxxxxxxx	żółty	yellow	hit	n/a
50.7568	n/a	RESPONSE	n/a	n/a	n/a	n/a	n/a	n/a	n/a	yellow
50.7862	1.0167	ITI	n/a	n/a	n/a	n/a	n/a	n/a	n/a	n/a
51.8029	0.5167	FIXCROSS	n/a	n/a	n/a	n/a	n/a	n/a	n/a	n/a
52.3196	0.8667	INK	4	Neutral	xxxxx	xxxxx	niebieski	blue	hit	n/a
53.1534	n/a	RESPONSE	n/a	n/a	n/a	n/a	n/a	n/a	n/a	blue
53.1862	1.0167	ITI	n/a	n/a	n/a	n/a	n/a	n/a	n/a	n/a
54.2029	0.5167	FIXCROSS	n/a	n/a	n/a	n/a	n/a	n/a	n/a	n/a
54.7196	0.9167	INK	5	Incongruent	niebieski	blue	czerwony	red	hit	n/a
55.6138	n/a	RESPONSE	n/a	n/a	n/a	n/a	n/a	n/a	n/a	red
55.6362	1.0167	ITI	n/a	n/a	n/a	n/a	n/a	n/a	n/a	n/a
56.6529	0.5167	FIXCROSS	n/a	n/a	n/a	n/a	n/a	n/a	n/a	n/a
57.1696	0.7667	INK	6	Neutral	xxxxxxxx	xxxxxxxx	zielony	green	hit	n/a
57.9144	n/a	RESPONSE	n/a	n/a	n/a	n/a	n/a	n/a	n/a	green
57.9363	1.0167	ITI	n/a	n/a	n/a	n/a	n/a	n/a	n/a	n/a
58.9529	0.5167	FIXCROSS	n/a	n/a	n/a	n/a	n/a	n/a	n/a	n/a
59.4696	0.85	INK	7	Incongruent	zielony	green	niebieski	blue	hit	n/a
60.2948	n/a	RESPONSE	n/a	n/a	n/a	n/a	n/a	n/a	n/a	blue
60.3196	1.0167	ITI	n/a	n/a	n/a	n/a	n/a	n/a	n/a	n/a
61.3363	0.5167	FIXCROSS	n/a	n/a	n/a	n/a	n/a	n/a	n/a	n/a
61.8529	0.6833	INK	8	Incongruent	niebieski	blue	żółty	yellow	hit	n/a
62.5156	n/a	RESPONSE	n/a	n/a	n/a	n/a	n/a	n/a	n/a	yellow
62.5363	1.0167	ITI	n/a	n/a	n/a	n/a	n/a	n/a	n/a	n/a
63.553	0.5167	FIXCROSS	n/a	n/a	n/a	n/a	n/a	n/a	n/a	n/a
64.0696	0.7167	INK	9	Incongruent	niebieski	blue	żółty	yellow	hit	n/a
64.7683	n/a	RESPONSE	n/a	n/a	n/a	n/a	n/a	n/a	n/a	yellow
64.7863	1.0167	ITI	n/a	n/a	n/a	n/a	n/a	n/a	n/a	n/a
65.803	0.5167	FIXCROSS	n/a	n/a	n/a	n/a	n/a	n/a	n/a	n/a
66.3197	0.7667	INK	10	Incongruent	czerwony	red	żółty	yellow	hit	n/a
67.0529	n/a	RESPONSE	n/a	n/a	n/a	n/a	n/a	n/a	n/a	yellow
67.0863	1.0167	ITI	n/a	n/a	n/a	n/a	n/a	n/a	n/a	n/a
68.103	0.5167	FIXCROSS	n/a	n/a	n/a	n/a	n/a	n/a	n/a	n/a
68.6197	0.7833	INK	11	Incongruent	żółty	yellow	zielony	green	hit	n/a
69.3855	n/a	RESPONSE	n/a	n/a	n/a	n/a	n/a	n/a	n/a	green
69.403	1.0167	ITI	n/a	n/a	n/a	n/a	n/a	n/a	n/a	n/a
70.4197	0.5167	FIXCROSS	n/a	n/a	n/a	n/a	n/a	n/a	n/a	n/a
70.9364	0.8333	INK	12	Incongruent	zielony	green	czerwony	red	hit	n/a
71.75	n/a	RESPONSE	n/a	n/a	n/a	n/a	n/a	n/a	n/a	red
71.7697	1.0167	ITI	n/a	n/a	n/a	n/a	n/a	n/a	n/a	n/a
72.7864	0.5167	FIXCROSS	n/a	n/a	n/a	n/a	n/a	n/a	n/a	n/a
73.303	0.85	INK	13	Incongruent	czerwony	red	zielony	green	hit	n/a
74.1304	n/a	RESPONSE	n/a	n/a	n/a	n/a	n/a	n/a	n/a	green
74.153	1.0167	ITI	n/a	n/a	n/a	n/a	n/a	n/a	n/a	n/a
75.1697	0.5167	FIXCROSS	n/a	n/a	n/a	n/a	n/a	n/a	n/a	n/a
75.6864	0.7333	INK	14	Neutral	xxxxxxxx	xxxxxxxx	żółty	yellow	hit	n/a
76.3992	n/a	RESPONSE	n/a	n/a	n/a	n/a	n/a	n/a	n/a	yellow
76.4197	1.0167	ITI	n/a	n/a	n/a	n/a	n/a	n/a	n/a	n/a
77.4364	0.5167	FIXCROSS	n/a	n/a	n/a	n/a	n/a	n/a	n/a	n/a
77.9531	0.85	INK	15	Neutral	xxxxx	xxxxx	czerwony	red	hit	n/a
78.7796	n/a	RESPONSE	n/a	n/a	n/a	n/a	n/a	n/a	n/a	red
78.8031	1.0167	ITI	n/a	n/a	n/a	n/a	n/a	n/a	n/a	n/a
79.8198	0.5167	FIXCROSS	n/a	n/a	n/a	n/a	n/a	n/a	n/a	n/a
80.3364	0.95	INK	16	Incongruent	niebieski	blue	zielony	green	hit	n/a
81.2561	n/a	RESPONSE	n/a	n/a	n/a	n/a	n/a	n/a	n/a	green
81.2864	1.0167	ITI	n/a	n/a	n/a	n/a	n/a	n/a	n/a	n/a
82.3031	0.5167	FIXCROSS	n/a	n/a	n/a	n/a	n/a	n/a	n/a	n/a
82.8198	0.7	INK	17	Neutral	xxxxxxxxx	xxxxxxxxx	czerwony	red	hit	n/a
83.4927	n/a	RESPONSE	n/a	n/a	n/a	n/a	n/a	n/a	n/a	red
83.5198	1.0167	ITI	n/a	n/a	n/a	n/a	n/a	n/a	n/a	n/a
84.5365	0.5167	FIXCROSS	n/a	n/a	n/a	n/a	n/a	n/a	n/a	n/a
85.0531	0.6833	INK	18	Neutral	xxxxx	xxxxx	czerwony	red	hit	n/a
85.7134	n/a	RESPONSE	n/a	n/a	n/a	n/a	n/a	n/a	n/a	red
85.7365	1.0167	ITI	n/a	n/a	n/a	n/a	n/a	n/a	n/a	n/a
86.7531	0.5167	FIXCROSS	n/a	n/a	n/a	n/a	n/a	n/a	n/a	n/a
87.2698	0.8667	INK	19	Incongruent	zielony	green	niebieski	blue	hit	n/a
88.11	n/a	RESPONSE	n/a	n/a	n/a	n/a	n/a	n/a	n/a	blue
88.1365	1.0167	ITI	n/a	n/a	n/a	n/a	n/a	n/a	n/a	n/a
89.1532	0.5167	FIXCROSS	n/a	n/a	n/a	n/a	n/a	n/a	n/a	n/a
89.6698	0.6333	INK	20	Incongruent	czerwony	red	żółty	yellow	hit	n/a
90.2829	n/a	RESPONSE	n/a	n/a	n/a	n/a	n/a	n/a	n/a	yellow
90.3032	1.0167	ITI	n/a	n/a	n/a	n/a	n/a	n/a	n/a	n/a
91.3199	0.5167	FIXCROSS	n/a	n/a	n/a	n/a	n/a	n/a	n/a	n/a
91.8365	1.0667	INK	21	Incongruent	czerwony	red	niebieski	blue	hit	n/a
92.8711	n/a	RESPONSE	n/a	n/a	n/a	n/a	n/a	n/a	n/a	blue
92.9032	1.0167	ITI	n/a	n/a	n/a	n/a	n/a	n/a	n/a	n/a
93.9199	0.5167	FIXCROSS	n/a	n/a	n/a	n/a	n/a	n/a	n/a	n/a
94.4365	0.6833	INK	22	Neutral	xxxxxxx	xxxxxxx	żółty	yellow	hit	n/a
95.0918	n/a	RESPONSE	n/a	n/a	n/a	n/a	n/a	n/a	n/a	yellow
95.1199	1.0167	ITI	n/a	n/a	n/a	n/a	n/a	n/a	n/a	n/a
96.1366	0.5167	FIXCROSS	n/a	n/a	n/a	n/a	n/a	n/a	n/a	n/a
96.6532	0.7833	INK	23	Incongruent	czerwony	red	zielony	green	hit	n/a
97.4084	n/a	RESPONSE	n/a	n/a	n/a	n/a	n/a	n/a	n/a	green
97.4366	1.0167	ITI	n/a	n/a	n/a	n/a	n/a	n/a	n/a	n/a
98.4532	0.5167	FIXCROSS	n/a	n/a	n/a	n/a	n/a	n/a	n/a	n/a
98.9699	0.9	INK	24	Incongruent	czerwony	red	niebieski	blue	hit	n/a
99.8369	n/a	RESPONSE	n/a	n/a	n/a	n/a	n/a	n/a	n/a	blue
99.8699	1.0167	ITI	n/a	n/a	n/a	n/a	n/a	n/a	n/a	n/a
100.8866	0.5167	FIXCROSS	n/a	n/a	n/a	n/a	n/a	n/a	n/a	n/a
101.4033	0.8	INK	25	Incongruent	niebieski	blue	zielony	green	hit	n/a
102.1855	n/a	RESPONSE	n/a	n/a	n/a	n/a	n/a	n/a	n/a	green
102.2033	1.0167	ITI	n/a	n/a	n/a	n/a	n/a	n/a	n/a	n/a
103.2199	0.5167	FIXCROSS	n/a	n/a	n/a	n/a	n/a	n/a	n/a	n/a
103.7366	0.7333	INK	26	Neutral	xxxxx	xxxxx	niebieski	blue	hit	n/a
104.4382	n/a	RESPONSE	n/a	n/a	n/a	n/a	n/a	n/a	n/a	blue
104.4699	1.0167	ITI	n/a	n/a	n/a	n/a	n/a	n/a	n/a	n/a
105.4866	0.5167	FIXCROSS	n/a	n/a	n/a	n/a	n/a	n/a	n/a	n/a
106.0033	0.8167	INK	27	Incongruent	zielony	green	niebieski	blue	hit	n/a
106.7868	n/a	RESPONSE	n/a	n/a	n/a	n/a	n/a	n/a	n/a	blue
106.82	1.0167	ITI	n/a	n/a	n/a	n/a	n/a	n/a	n/a	n/a
107.8366	0.5167	FIXCROSS	n/a	n/a	n/a	n/a	n/a	n/a	n/a	n/a
108.3533	0.7667	INK	28	Neutral	xxxxxxxxx	xxxxxxxxx	czerwony	red	hit	n/a
109.0875	n/a	RESPONSE	n/a	n/a	n/a	n/a	n/a	n/a	n/a	red
109.12	1.0167	ITI	n/a	n/a	n/a	n/a	n/a	n/a	n/a	n/a
110.1367	0.5167	FIXCROSS	n/a	n/a	n/a	n/a	n/a	n/a	n/a	n/a
110.6533	0.7667	INK	29	Incongruent	czerwony	red	niebieski	blue	hit	n/a
111.3881	n/a	RESPONSE	n/a	n/a	n/a	n/a	n/a	n/a	n/a	blue
111.42	1.0167	ITI	n/a	n/a	n/a	n/a	n/a	n/a	n/a	n/a
112.4367	0.5167	FIXCROSS	n/a	n/a	n/a	n/a	n/a	n/a	n/a	n/a
112.9534	0.7333	INK	30	Incongruent	żółty	yellow	niebieski	blue	hit	n/a
113.6568	n/a	RESPONSE	n/a	n/a	n/a	n/a	n/a	n/a	n/a	blue
113.6867	1.0167	ITI	n/a	n/a	n/a	n/a	n/a	n/a	n/a	n/a
114.7034	0.5167	FIXCROSS	n/a	n/a	n/a	n/a	n/a	n/a	n/a	n/a
115.22	0.8833	INK	31	Incongruent	czerwony	red	zielony	green	hit	n/a
116.0853	n/a	RESPONSE	n/a	n/a	n/a	n/a	n/a	n/a	n/a	green
116.1034	1.0167	ITI	n/a	n/a	n/a	n/a	n/a	n/a	n/a	n/a
117.12	0.5167	FIXCROSS	n/a	n/a	n/a	n/a	n/a	n/a	n/a	n/a
117.6367	0.5333	INK	32	Neutral	xxxxxxx	xxxxxxx	żółty	yellow	hit	n/a
118.1463	n/a	RESPONSE	n/a	n/a	n/a	n/a	n/a	n/a	n/a	yellow
118.1701	1.0167	ITI	n/a	n/a	n/a	n/a	n/a	n/a	n/a	n/a
119.1867	0.5167	FIXCROSS	n/a	n/a	n/a	n/a	n/a	n/a	n/a	n/a
119.7034	0.6333	INK	33	Neutral	xxxxxxxxx	xxxxxxxxx	żółty	yellow	hit	n/a
120.3192	n/a	RESPONSE	n/a	n/a	n/a	n/a	n/a	n/a	n/a	yellow
120.3367	1.0167	ITI	n/a	n/a	n/a	n/a	n/a	n/a	n/a	n/a
121.3534	0.5167	FIXCROSS	n/a	n/a	n/a	n/a	n/a	n/a	n/a	n/a
121.8701	0.8833	INK	34	Neutral	xxxxxxx	xxxxxxx	niebieski	blue	hit	n/a
122.7316	n/a	RESPONSE	n/a	n/a	n/a	n/a	n/a	n/a	n/a	blue
122.7534	1.0167	ITI	n/a	n/a	n/a	n/a	n/a	n/a	n/a	n/a
123.7701	0.5167	FIXCROSS	n/a	n/a	n/a	n/a	n/a	n/a	n/a	n/a
124.2868	0.6833	INK	35	Incongruent	żółty	yellow	niebieski	blue	hit	n/a
124.9366	n/a	RESPONSE	n/a	n/a	n/a	n/a	n/a	n/a	n/a	blue
124.9701	1.0167	ITI	n/a	n/a	n/a	n/a	n/a	n/a	n/a	n/a
125.9868	0.5167	FIXCROSS	n/a	n/a	n/a	n/a	n/a	n/a	n/a	n/a
126.5035	0.5833	INK	36	Incongruent	zielony	green	żółty	yellow	hit	n/a
127.0615	n/a	RESPONSE	n/a	n/a	n/a	n/a	n/a	n/a	n/a	yellow
127.0868	1.0167	ITI	n/a	n/a	n/a	n/a	n/a	n/a	n/a	n/a
128.1035	0.5167	FIXCROSS	n/a	n/a	n/a	n/a	n/a	n/a	n/a	n/a
128.6201	0.8	INK	37	Neutral	xxxxx	xxxxx	zielony	green	hit	n/a
129.3941	n/a	RESPONSE	n/a	n/a	n/a	n/a	n/a	n/a	n/a	green
129.4201	1.0167	ITI	n/a	n/a	n/a	n/a	n/a	n/a	n/a	n/a
130.4368	0.5167	FIXCROSS	n/a	n/a	n/a	n/a	n/a	n/a	n/a	n/a
130.9535	0.7333	INK	38	Neutral	xxxxxxx	xxxxxxx	czerwony	red	hit	n/a
131.6628	n/a	RESPONSE	n/a	n/a	n/a	n/a	n/a	n/a	n/a	red
131.6868	1.0167	ITI	n/a	n/a	n/a	n/a	n/a	n/a	n/a	n/a
132.7035	0.5167	FIXCROSS	n/a	n/a	n/a	n/a	n/a	n/a	n/a	n/a
133.2202	0.95	INK	39	Neutral	xxxxxxxx	xxxxxxxx	zielony	green	hit	n/a
134.1393	n/a	RESPONSE	n/a	n/a	n/a	n/a	n/a	n/a	n/a	green
134.1702	1.0167	ITI	n/a	n/a	n/a	n/a	n/a	n/a	n/a	n/a
135.1868	0.5167	FIXCROSS	n/a	n/a	n/a	n/a	n/a	n/a	n/a	n/a
135.7035	0.7333	INK	40	Incongruent	żółty	yellow	zielony	green	hit	n/a
136.408	n/a	RESPONSE	n/a	n/a	n/a	n/a	n/a	n/a	n/a	green
136.4369	1.0167	ITI	n/a	n/a	n/a	n/a	n/a	n/a	n/a	n/a
137.4535	0.5167	FIXCROSS	n/a	n/a	n/a	n/a	n/a	n/a	n/a	n/a
137.9702	0.6167	INK	41	Neutral	xxxxx	xxxxx	zielony	green	hit	n/a
138.5649	n/a	RESPONSE	n/a	n/a	n/a	n/a	n/a	n/a	n/a	green
138.5869	1.0167	ITI	n/a	n/a	n/a	n/a	n/a	n/a	n/a	n/a
139.6036	0.5167	FIXCROSS	n/a	n/a	n/a	n/a	n/a	n/a	n/a	n/a
140.1202	0.6667	INK	42	Incongruent	zielony	green	żółty	yellow	hit	n/a
140.7696	n/a	RESPONSE	n/a	n/a	n/a	n/a	n/a	n/a	n/a	yellow
140.7869	1.0167	ITI	n/a	n/a	n/a	n/a	n/a	n/a	n/a	n/a
141.8036	0.5167	FIXCROSS	n/a	n/a	n/a	n/a	n/a	n/a	n/a	n/a
142.3202	0.8	INK	43	Neutral	xxxxxxxx	xxxxxxxx	niebieski	blue	hit	n/a
143.1023	n/a	RESPONSE	n/a	n/a	n/a	n/a	n/a	n/a	n/a	blue
143.1202	1.0167	ITI	n/a	n/a	n/a	n/a	n/a	n/a	n/a	n/a
144.1369	0.5167	FIXCROSS	n/a	n/a	n/a	n/a	n/a	n/a	n/a	n/a
144.6536	0.6833	INK	44	Incongruent	zielony	green	żółty	yellow	hit	n/a
145.307	n/a	RESPONSE	n/a	n/a	n/a	n/a	n/a	n/a	n/a	yellow
145.3369	1.0167	ITI	n/a	n/a	n/a	n/a	n/a	n/a	n/a	n/a
146.3536	0.5167	FIXCROSS	n/a	n/a	n/a	n/a	n/a	n/a	n/a	n/a
146.8703	0.75	INK	45	Neutral	xxxxxxx	xxxxxxx	niebieski	blue	hit	n/a
147.5917	n/a	RESPONSE	n/a	n/a	n/a	n/a	n/a	n/a	n/a	blue
147.6203	1.0167	ITI	n/a	n/a	n/a	n/a	n/a	n/a	n/a	n/a
148.637	0.5167	FIXCROSS	n/a	n/a	n/a	n/a	n/a	n/a	n/a	n/a
149.1536	0.7667	INK	46	Neutral	xxxxxxxxx	xxxxxxxxx	żółty	yellow	hit	n/a
149.8925	n/a	RESPONSE	n/a	n/a	n/a	n/a	n/a	n/a	n/a	yellow
149.9203	1.0167	ITI	n/a	n/a	n/a	n/a	n/a	n/a	n/a	n/a
150.937	0.5167	FIXCROSS	n/a	n/a	n/a	n/a	n/a	n/a	n/a	n/a
151.4536	0.7333	INK	47	Neutral	xxxxxxxx	xxxxxxxx	niebieski	blue	hit	n/a
152.1611	n/a	RESPONSE	n/a	n/a	n/a	n/a	n/a	n/a	n/a	blue
152.187	1.0167	ITI	n/a	n/a	n/a	n/a	n/a	n/a	n/a	n/a
153.2037	0.5167	FIXCROSS	n/a	n/a	n/a	n/a	n/a	n/a	n/a	n/a
153.7203	0.5833	INK	48	Neutral	xxxxxxxx	xxxxxxxx	żółty	yellow	hit	n/a
154.27	n/a	RESPONSE	n/a	n/a	n/a	n/a	n/a	n/a	n/a	yellow
154.3037	1.0167	ITI	n/a	n/a	n/a	n/a	n/a	n/a	n/a	n/a
155.3203	0.5167	FIXCROSS	n/a	n/a	n/a	n/a	n/a	n/a	n/a	n/a
155.837	0.75	INK	49	Incongruent	żółty	yellow	czerwony	red	hit	n/a
156.5546	n/a	RESPONSE	n/a	n/a	n/a	n/a	n/a	n/a	n/a	red
156.587	1.0167	ITI	n/a	n/a	n/a	n/a	n/a	n/a	n/a	n/a
157.6037	0.5167	FIXCROSS	n/a	n/a	n/a	n/a	n/a	n/a	n/a	n/a
158.1204	0.6167	INK	50	Neutral	xxxxxxx	xxxxxxx	czerwony	red	hit	n/a
158.7115	n/a	RESPONSE	n/a	n/a	n/a	n/a	n/a	n/a	n/a	red
158.737	1.0167	ITI	n/a	n/a	n/a	n/a	n/a	n/a	n/a	n/a
159.7537	0.5167	FIXCROSS	n/a	n/a	n/a	n/a	n/a	n/a	n/a	n/a
160.2704	0.5667	INK	51	Incongruent	zielony	green	czerwony	red	hit	n/a
160.8044	n/a	RESPONSE	n/a	n/a	n/a	n/a	n/a	n/a	n/a	red
160.8371	1.0167	ITI	n/a	n/a	n/a	n/a	n/a	n/a	n/a	n/a
161.8537	0.5167	FIXCROSS	n/a	n/a	n/a	n/a	n/a	n/a	n/a	n/a
162.3704	0.5833	INK	52	Neutral	xxxxxxxxx	xxxxxxxxx	czerwony	red	hit	n/a
162.9293	n/a	RESPONSE	n/a	n/a	n/a	n/a	n/a	n/a	n/a	red
162.9537	1.0167	ITI	n/a	n/a	n/a	n/a	n/a	n/a	n/a	n/a
163.9704	0.5167	FIXCROSS	n/a	n/a	n/a	n/a	n/a	n/a	n/a	n/a
164.4871	0.6	INK	53	Incongruent	żółty	yellow	czerwony	red	hit	n/a
165.0542	n/a	RESPONSE	n/a	n/a	n/a	n/a	n/a	n/a	n/a	red
165.0871	1.0167	ITI	n/a	n/a	n/a	n/a	n/a	n/a	n/a	n/a
166.1038	0.5167	FIXCROSS	n/a	n/a	n/a	n/a	n/a	n/a	n/a	n/a
166.6204	0.6667	INK	54	Neutral	xxxxx	xxxxx	zielony	green	hit	n/a
167.2589	n/a	RESPONSE	n/a	n/a	n/a	n/a	n/a	n/a	n/a	green
167.2871	1.0167	ITI	n/a	n/a	n/a	n/a	n/a	n/a	n/a	n/a
168.3038	0.5167	FIXCROSS	n/a	n/a	n/a	n/a	n/a	n/a	n/a	n/a
168.8204	0.75	INK	55	Incongruent	niebieski	blue	czerwony	red	hit	n/a
169.5436	n/a	RESPONSE	n/a	n/a	n/a	n/a	n/a	n/a	n/a	red
169.5704	1.0167	ITI	n/a	n/a	n/a	n/a	n/a	n/a	n/a	n/a
170.5871	0.5167	FIXCROSS	n/a	n/a	n/a	n/a	n/a	n/a	n/a	n/a
171.1038	0.5833	INK	56	Neutral	xxxxxxx	xxxxxxx	niebieski	blue	hit	n/a
171.6685	n/a	RESPONSE	n/a	n/a	n/a	n/a	n/a	n/a	n/a	blue
171.6871	1.0167	ITI	n/a	n/a	n/a	n/a	n/a	n/a	n/a	n/a
172.7038	0.5167	FIXCROSS	n/a	n/a	n/a	n/a	n/a	n/a	n/a	n/a
173.2205	0.75	INK	57	Incongruent	niebieski	blue	zielony	green	hit	n/a
173.9532	n/a	RESPONSE	n/a	n/a	n/a	n/a	n/a	n/a	n/a	green
173.9705	1.0167	ITI	n/a	n/a	n/a	n/a	n/a	n/a	n/a	n/a
174.9872	0.5167	FIXCROSS	n/a	n/a	n/a	n/a	n/a	n/a	n/a	n/a
175.5038	0.75	INK	58	Incongruent	żółty	yellow	zielony	green	hit	n/a
176.2218	n/a	RESPONSE	n/a	n/a	n/a	n/a	n/a	n/a	n/a	green
176.2538	1.0167	ITI	n/a	n/a	n/a	n/a	n/a	n/a	n/a	n/a
177.2705	0.5167	FIXCROSS	n/a	n/a	n/a	n/a	n/a	n/a	n/a	n/a
177.7872	0.7	INK	59	Incongruent	żółty	yellow	czerwony	red	hit	n/a
178.4587	n/a	RESPONSE	n/a	n/a	n/a	n/a	n/a	n/a	n/a	red
178.4872	1.0167	ITI	n/a	n/a	n/a	n/a	n/a	n/a	n/a	n/a
179.5039	0.5167	FIXCROSS	n/a	n/a	n/a	n/a	n/a	n/a	n/a	n/a
180.0205	0.8833	INK	60	Neutral	xxxxxxxxx	xxxxxxxxx	zielony	green	hit	n/a
180.8711	n/a	RESPONSE	n/a	n/a	n/a	n/a	n/a	n/a	n/a	green
180.9039	1.0167	ITI	n/a	n/a	n/a	n/a	n/a	n/a	n/a	n/a
181.9206	0.5167	FIXCROSS	n/a	n/a	n/a	n/a	n/a	n/a	n/a	n/a
182.4372	0.7167	INK	61	Incongruent	czerwony	red	żółty	yellow	hit	n/a
183.1238	n/a	RESPONSE	n/a	n/a	n/a	n/a	n/a	n/a	n/a	yellow
183.1539	1.0167	ITI	n/a	n/a	n/a	n/a	n/a	n/a	n/a	n/a
184.1706	0.5167	FIXCROSS	n/a	n/a	n/a	n/a	n/a	n/a	n/a	n/a
184.6872	0.6833	INK	62	Incongruent	zielony	green	czerwony	red	hit	n/a
185.3447	n/a	RESPONSE	n/a	n/a	n/a	n/a	n/a	n/a	n/a	red
185.3706	1.0167	ITI	n/a	n/a	n/a	n/a	n/a	n/a	n/a	n/a
186.3872	0.5167	FIXCROSS	n/a	n/a	n/a	n/a	n/a	n/a	n/a	n/a
186.9039	0.7167	INK	63	Neutral	xxxxxxxxx	xxxxxxxxx	zielony	green	hit	n/a
187.5973	n/a	RESPONSE	n/a	n/a	n/a	n/a	n/a	n/a	n/a	green
187.6206	1.0167	ITI	n/a	n/a	n/a	n/a	n/a	n/a	n/a	n/a
188.6373	0.5167	FIXCROSS	n/a	n/a	n/a	n/a	n/a	n/a	n/a	n/a
189.1539	0.6333	INK	64	Neutral	xxxxx	xxxxx	czerwony	red	hit	n/a
189.7543	n/a	RESPONSE	n/a	n/a	n/a	n/a	n/a	n/a	n/a	red
189.7873	1.0167	ITI	n/a	n/a	n/a	n/a	n/a	n/a	n/a	n/a
190.804	0.5167	FIXCROSS	n/a	n/a	n/a	n/a	n/a	n/a	n/a	n/a
191.3206	0.7167	INK	65	Neutral	xxxxxxxxx	xxxxxxxxx	zielony	green	hit	n/a
192.0069	n/a	RESPONSE	n/a	n/a	n/a	n/a	n/a	n/a	n/a	green
192.0373	1.0167	ITI	n/a	n/a	n/a	n/a	n/a	n/a	n/a	n/a
193.054	0.5167	FIXCROSS	n/a	n/a	n/a	n/a	n/a	n/a	n/a	n/a
193.5706	0.7667	INK	66	Neutral	xxxxx	xxxxx	niebieski	blue	hit	n/a
194.3076	n/a	RESPONSE	n/a	n/a	n/a	n/a	n/a	n/a	n/a	blue
194.3373	1.0167	ITI	n/a	n/a	n/a	n/a	n/a	n/a	n/a	n/a
195.354	0.5167	FIXCROSS	n/a	n/a	n/a	n/a	n/a	n/a	n/a	n/a
195.8706	0.6333	INK	67	Neutral	xxxxxxx	xxxxxxx	czerwony	red	hit	n/a
196.4803	n/a	RESPONSE	n/a	n/a	n/a	n/a	n/a	n/a	n/a	red
196.504	1.0167	ITI	n/a	n/a	n/a	n/a	n/a	n/a	n/a	n/a
197.5207	0.5167	FIXCROSS	n/a	n/a	n/a	n/a	n/a	n/a	n/a	n/a
198.0373	0.6333	INK	68	Neutral	xxxxxxxx	xxxxxxxx	żółty	yellow	hit	n/a
198.6532	n/a	RESPONSE	n/a	n/a	n/a	n/a	n/a	n/a	n/a	yellow
198.6707	1.0167	ITI	n/a	n/a	n/a	n/a	n/a	n/a	n/a	n/a
199.6873	0.5167	FIXCROSS	n/a	n/a	n/a	n/a	n/a	n/a	n/a	n/a
200.204	0.65	INK	69	Incongruent	niebieski	blue	żółty	yellow	hit	n/a
200.826	n/a	RESPONSE	n/a	n/a	n/a	n/a	n/a	n/a	n/a	yellow
200.854	1.0167	ITI	n/a	n/a	n/a	n/a	n/a	n/a	n/a	n/a
201.8707	0.5167	FIXCROSS	n/a	n/a	n/a	n/a	n/a	n/a	n/a	n/a
202.3874	0.7167	INK	70	Neutral	xxxxxxxx	xxxxxxxx	zielony	green	hit	n/a
203.0789	n/a	RESPONSE	n/a	n/a	n/a	n/a	n/a	n/a	n/a	green
203.104	1.0167	ITI	n/a	n/a	n/a	n/a	n/a	n/a	n/a	n/a
204.1207	0.5167	FIXCROSS	n/a	n/a	n/a	n/a	n/a	n/a	n/a	n/a
204.6374	0.7833	INK	71	Neutral	xxxxxxx	xxxxxxx	żółty	yellow	hit	n/a
205.3955	n/a	RESPONSE	n/a	n/a	n/a	n/a	n/a	n/a	n/a	yellow
205.4207	1.0167	ITI	n/a	n/a	n/a	n/a	n/a	n/a	n/a	n/a
206.4374	0.5167	FIXCROSS	n/a	n/a	n/a	n/a	n/a	n/a	n/a	n/a
206.9541	0.6167	INK	72	Neutral	xxxxxxxx	xxxxxxxx	niebieski	blue	hit	n/a
207.5523	n/a	RESPONSE	n/a	n/a	n/a	n/a	n/a	n/a	n/a	blue
207.5707	1.0833	ITI	n/a	n/a	n/a	n/a	n/a	n/a	n/a	n/a
236.2474	n/a	RESPONSE	n/a	n/a	n/a	n/a	n/a	n/a	n/a	n/a
236.3043	1.0167	ITI	n/a	n/a	n/a	n/a	n/a	n/a	n/a	n/a
237.321	0.5167	FIXCROSS	n/a	n/a	n/a	n/a	n/a	n/a	n/a	n/a
237.8376	0.8667	T_COLOR_NAME	1	Incongruent	żółty	yellow	niebieski	blue	hit	n/a
238.6757	n/a	RESPONSE	n/a	n/a	n/a	n/a	n/a	n/a	n/a	yellow
238.7043	0.5167	FEEDBACK	n/a	n/a	n/a	n/a	n/a	n/a	n/a	n/a
239.221	1.0167	ITI	n/a	n/a	n/a	n/a	n/a	n/a	n/a	n/a
240.2376	0.5167	FIXCROSS	n/a	n/a	n/a	n/a	n/a	n/a	n/a	n/a
240.7543	0.9167	T_COLOR_NAME	2	Incongruent	czerwony	red	zielony	green	hit	n/a
241.6474	n/a	RESPONSE	n/a	n/a	n/a	n/a	n/a	n/a	n/a	red
241.671	0.5167	FEEDBACK	n/a	n/a	n/a	n/a	n/a	n/a	n/a	n/a
242.1877	1.0167	ITI	n/a	n/a	n/a	n/a	n/a	n/a	n/a	n/a
243.2043	0.5167	FIXCROSS	n/a	n/a	n/a	n/a	n/a	n/a	n/a	n/a
243.721	0.8833	T_COLOR_NAME	3	Incongruent	niebieski	blue	czerwony	red	hit	n/a
244.5713	n/a	RESPONSE	n/a	n/a	n/a	n/a	n/a	n/a	n/a	blue
244.6044	0.5167	FEEDBACK	n/a	n/a	n/a	n/a	n/a	n/a	n/a	n/a
245.121	1.0167	ITI	n/a	n/a	n/a	n/a	n/a	n/a	n/a	n/a
246.1377	0.5167	FIXCROSS	n/a	n/a	n/a	n/a	n/a	n/a	n/a	n/a
246.6544	1.0167	T_COLOR_NAME	4	Incongruent	niebieski	blue	zielony	green	hit	n/a
247.6388	n/a	RESPONSE	n/a	n/a	n/a	n/a	n/a	n/a	n/a	blue
247.671	0.5167	FEEDBACK	n/a	n/a	n/a	n/a	n/a	n/a	n/a	n/a
248.1877	1.0167	ITI	n/a	n/a	n/a	n/a	n/a	n/a	n/a	n/a
249.2044	0.5167	FIXCROSS	n/a	n/a	n/a	n/a	n/a	n/a	n/a	n/a
249.7211	1.2333	T_COLOR_NAME	5	Neutral	niebieski	blue	Neutral	Neutral	hit	n/a
250.9301	n/a	RESPONSE	n/a	n/a	n/a	n/a	n/a	n/a	n/a	blue
250.9544	0.5167	FEEDBACK	n/a	n/a	n/a	n/a	n/a	n/a	n/a	n/a
251.4711	1.0167	ITI	n/a	n/a	n/a	n/a	n/a	n/a	n/a	n/a
252.4877	0.5167	FIXCROSS	n/a	n/a	n/a	n/a	n/a	n/a	n/a	n/a
253.0044	1.1333	T_COLOR_NAME	6	Incongruent	zielony	green	żółty	yellow	hit	n/a
254.1096	n/a	RESPONSE	n/a	n/a	n/a	n/a	n/a	n/a	n/a	green
254.1378	0.5167	FEEDBACK	n/a	n/a	n/a	n/a	n/a	n/a	n/a	n/a
254.6544	1.0167	ITI	n/a	n/a	n/a	n/a	n/a	n/a	n/a	n/a
255.6711	0.5167	FIXCROSS	n/a	n/a	n/a	n/a	n/a	n/a	n/a	n/a
256.1878	0.75	T_COLOR_NAME	7	Neutral	zielony	green	Neutral	Neutral	hit	n/a
256.9055	n/a	RESPONSE	n/a	n/a	n/a	n/a	n/a	n/a	n/a	green
256.9378	0.5167	FEEDBACK	n/a	n/a	n/a	n/a	n/a	n/a	n/a	n/a
257.4544	1.0167	ITI	n/a	n/a	n/a	n/a	n/a	n/a	n/a	n/a
258.4711	0.5167	FIXCROSS	n/a	n/a	n/a	n/a	n/a	n/a	n/a	n/a
258.9878	0.7833	T_COLOR_NAME	8	Neutral	czerwony	red	Neutral	Neutral	hit	n/a
259.7495	n/a	RESPONSE	n/a	n/a	n/a	n/a	n/a	n/a	n/a	red
259.7711	0.5167	FEEDBACK	n/a	n/a	n/a	n/a	n/a	n/a	n/a	n/a
260.2878	1.0167	ITI	n/a	n/a	n/a	n/a	n/a	n/a	n/a	n/a
261.3045	0.5167	FIXCROSS	n/a	n/a	n/a	n/a	n/a	n/a	n/a	n/a
261.8211	0.95	T_COLOR_NAME	9	Incongruent	zielony	green	niebieski	blue	hit	n/a
262.7372	n/a	RESPONSE	n/a	n/a	n/a	n/a	n/a	n/a	n/a	green
262.7712	0.5167	FEEDBACK	n/a	n/a	n/a	n/a	n/a	n/a	n/a	n/a
263.2878	1.0167	ITI	n/a	n/a	n/a	n/a	n/a	n/a	n/a	n/a
264.3045	0.5167	FIXCROSS	n/a	n/a	n/a	n/a	n/a	n/a	n/a	n/a
264.8212	0.7	T_COLOR_NAME	10	Neutral	zielony	green	Neutral	Neutral	hit	n/a
265.5012	n/a	RESPONSE	n/a	n/a	n/a	n/a	n/a	n/a	n/a	green
265.5212	0.5167	FEEDBACK	n/a	n/a	n/a	n/a	n/a	n/a	n/a	n/a
266.0378	1.0167	ITI	n/a	n/a	n/a	n/a	n/a	n/a	n/a	n/a
267.0545	0.5167	FIXCROSS	n/a	n/a	n/a	n/a	n/a	n/a	n/a	n/a
267.5712	0.9833	T_COLOR_NAME	11	Neutral	czerwony	red	Neutral	Neutral	hit	n/a
268.5209	n/a	RESPONSE	n/a	n/a	n/a	n/a	n/a	n/a	n/a	red
268.5545	0.5167	FEEDBACK	n/a	n/a	n/a	n/a	n/a	n/a	n/a	n/a
269.0712	1.0167	ITI	n/a	n/a	n/a	n/a	n/a	n/a	n/a	n/a
270.0879	0.5167	FIXCROSS	n/a	n/a	n/a	n/a	n/a	n/a	n/a	n/a
270.6046	0.8	T_COLOR_NAME	12	Neutral	zielony	green	Neutral	Neutral	hit	n/a
271.3807	n/a	RESPONSE	n/a	n/a	n/a	n/a	n/a	n/a	n/a	green
271.4046	0.5167	FEEDBACK	n/a	n/a	n/a	n/a	n/a	n/a	n/a	n/a
271.9212	1.0333	ITI	n/a	n/a	n/a	n/a	n/a	n/a	n/a	n/a
274.9916	n/a	RESPONSE	n/a	n/a	n/a	n/a	n/a	n/a	n/a	n/a
275.0546	1.0167	ITI	n/a	n/a	n/a	n/a	n/a	n/a	n/a	n/a
276.0713	0.5167	FIXCROSS	n/a	n/a	n/a	n/a	n/a	n/a	n/a	n/a
276.5879	0.8	COLOR_NAME	1	Neutral	żółty	yellow	Neutral	Neutral	hit	n/a
277.356	n/a	RESPONSE	n/a	n/a	n/a	n/a	n/a	n/a	n/a	yellow
277.3879	1.0167	ITI	n/a	n/a	n/a	n/a	n/a	n/a	n/a	n/a
278.4046	0.5167	FIXCROSS	n/a	n/a	n/a	n/a	n/a	n/a	n/a	n/a
278.9213	0.8333	COLOR_NAME	2	Incongruent	czerwony	red	niebieski	blue	hit	n/a
279.7366	n/a	RESPONSE	n/a	n/a	n/a	n/a	n/a	n/a	n/a	red
279.7546	1.0167	ITI	n/a	n/a	n/a	n/a	n/a	n/a	n/a	n/a
280.7713	0.5167	FIXCROSS	n/a	n/a	n/a	n/a	n/a	n/a	n/a	n/a
281.288	0.9833	COLOR_NAME	3	Incongruent	niebieski	blue	czerwony	red	hit	n/a
282.2451	n/a	RESPONSE	n/a	n/a	n/a	n/a	n/a	n/a	n/a	blue
282.2713	1.0167	ITI	n/a	n/a	n/a	n/a	n/a	n/a	n/a	n/a
283.288	0.5167	FIXCROSS	n/a	n/a	n/a	n/a	n/a	n/a	n/a	n/a
283.8046	0.9167	COLOR_NAME	4	Incongruent	zielony	green	niebieski	blue	incorrect	n/a
284.6896	n/a	RESPONSE	n/a	n/a	n/a	n/a	n/a	n/a	n/a	red
284.7213	1.0167	ITI	n/a	n/a	n/a	n/a	n/a	n/a	n/a	n/a
285.738	0.5167	FIXCROSS	n/a	n/a	n/a	n/a	n/a	n/a	n/a	n/a
286.2547	1.1333	COLOR_NAME	5	Incongruent	zielony	green	żółty	yellow	hit	n/a
287.3577	n/a	RESPONSE	n/a	n/a	n/a	n/a	n/a	n/a	n/a	green
287.388	1.0167	ITI	n/a	n/a	n/a	n/a	n/a	n/a	n/a	n/a
288.4047	0.5167	FIXCROSS	n/a	n/a	n/a	n/a	n/a	n/a	n/a	n/a
288.9214	1.15	COLOR_NAME	6	Neutral	żółty	yellow	Neutral	Neutral	hit	n/a
290.0419	n/a	RESPONSE	n/a	n/a	n/a	n/a	n/a	n/a	n/a	yellow
290.0714	1.0167	ITI	n/a	n/a	n/a	n/a	n/a	n/a	n/a	n/a
291.088	0.5167	FIXCROSS	n/a	n/a	n/a	n/a	n/a	n/a	n/a	n/a
291.6047	1.1833	COLOR_NAME	7	Neutral	zielony	green	Neutral	Neutral	hit	n/a
292.758	n/a	RESPONSE	n/a	n/a	n/a	n/a	n/a	n/a	n/a	green
292.788	1.0167	ITI	n/a	n/a	n/a	n/a	n/a	n/a	n/a	n/a
293.8047	0.5167	FIXCROSS	n/a	n/a	n/a	n/a	n/a	n/a	n/a	n/a
294.3214	1.0333	COLOR_NAME	8	Neutral	zielony	green	Neutral	Neutral	hit	n/a
295.3303	n/a	RESPONSE	n/a	n/a	n/a	n/a	n/a	n/a	n/a	green
295.3547	1.0167	ITI	n/a	n/a	n/a	n/a	n/a	n/a	n/a	n/a
296.3714	0.5167	FIXCROSS	n/a	n/a	n/a	n/a	n/a	n/a	n/a	n/a
296.8881	1.5334	COLOR_NAME	9	Incongruent	niebieski	blue	czerwony	red	hit	n/a
298.398	n/a	RESPONSE	n/a	n/a	n/a	n/a	n/a	n/a	n/a	blue
298.4214	1.0167	ITI	n/a	n/a	n/a	n/a	n/a	n/a	n/a	n/a
299.4381	0.5167	FIXCROSS	n/a	n/a	n/a	n/a	n/a	n/a	n/a	n/a
299.9548	1.0833	COLOR_NAME	10	Incongruent	żółty	yellow	zielony	green	hit	n/a
301.0181	n/a	RESPONSE	n/a	n/a	n/a	n/a	n/a	n/a	n/a	yellow
301.0381	1.0167	ITI	n/a	n/a	n/a	n/a	n/a	n/a	n/a	n/a
302.0548	0.5167	FIXCROSS	n/a	n/a	n/a	n/a	n/a	n/a	n/a	n/a
302.5715	0.9167	COLOR_NAME	11	Incongruent	żółty	yellow	niebieski	blue	hit	n/a
303.4626	n/a	RESPONSE	n/a	n/a	n/a	n/a	n/a	n/a	n/a	yellow
303.4881	1.0167	ITI	n/a	n/a	n/a	n/a	n/a	n/a	n/a	n/a
304.5048	0.5167	FIXCROSS	n/a	n/a	n/a	n/a	n/a	n/a	n/a	n/a
305.0215	0.9833	COLOR_NAME	12	Neutral	niebieski	blue	Neutral	Neutral	hit	n/a
305.987	n/a	RESPONSE	n/a	n/a	n/a	n/a	n/a	n/a	n/a	blue
306.0048	1.0167	ITI	n/a	n/a	n/a	n/a	n/a	n/a	n/a	n/a
307.0215	0.5167	FIXCROSS	n/a	n/a	n/a	n/a	n/a	n/a	n/a	n/a
307.5382	1.15	COLOR_NAME	13	Neutral	zielony	green	Neutral	Neutral	hit	n/a
308.6552	n/a	RESPONSE	n/a	n/a	n/a	n/a	n/a	n/a	n/a	green
308.6881	1.0167	ITI	n/a	n/a	n/a	n/a	n/a	n/a	n/a	n/a
309.7048	0.5167	FIXCROSS	n/a	n/a	n/a	n/a	n/a	n/a	n/a	n/a
310.2215	0.9	COLOR_NAME	14	Incongruent	żółty	yellow	zielony	green	hit	n/a
311.0997	n/a	RESPONSE	n/a	n/a	n/a	n/a	n/a	n/a	n/a	yellow
311.1215	1.0167	ITI	n/a	n/a	n/a	n/a	n/a	n/a	n/a	n/a
312.1382	0.5167	FIXCROSS	n/a	n/a	n/a	n/a	n/a	n/a	n/a	n/a
312.6549	0.9833	COLOR_NAME	15	Neutral	niebieski	blue	Neutral	Neutral	hit	n/a
313.6081	n/a	RESPONSE	n/a	n/a	n/a	n/a	n/a	n/a	n/a	blue
313.6382	1.0167	ITI	n/a	n/a	n/a	n/a	n/a	n/a	n/a	n/a
314.6549	0.5167	FIXCROSS	n/a	n/a	n/a	n/a	n/a	n/a	n/a	n/a
315.1715	0.8667	COLOR_NAME	16	Neutral	zielony	green	Neutral	Neutral	hit	n/a
316.0206	n/a	RESPONSE	n/a	n/a	n/a	n/a	n/a	n/a	n/a	green
316.0382	1.0167	ITI	n/a	n/a	n/a	n/a	n/a	n/a	n/a	n/a
317.0549	0.5167	FIXCROSS	n/a	n/a	n/a	n/a	n/a	n/a	n/a	n/a
317.5716	1.0	COLOR_NAME	17	Incongruent	czerwony	red	zielony	green	hit	n/a
318.545	n/a	RESPONSE	n/a	n/a	n/a	n/a	n/a	n/a	n/a	red
318.5716	1.0167	ITI	n/a	n/a	n/a	n/a	n/a	n/a	n/a	n/a
319.5882	0.5167	FIXCROSS	n/a	n/a	n/a	n/a	n/a	n/a	n/a	n/a
320.1049	1.0167	COLOR_NAME	18	Neutral	czerwony	red	Neutral	Neutral	hit	n/a
321.1014	n/a	RESPONSE	n/a	n/a	n/a	n/a	n/a	n/a	n/a	red
321.1216	1.0167	ITI	n/a	n/a	n/a	n/a	n/a	n/a	n/a	n/a
322.1383	0.5167	FIXCROSS	n/a	n/a	n/a	n/a	n/a	n/a	n/a	n/a
322.6549	1.0667	COLOR_NAME	19	Neutral	zielony	green	Neutral	Neutral	hit	n/a
323.6897	n/a	RESPONSE	n/a	n/a	n/a	n/a	n/a	n/a	n/a	green
323.7216	1.0167	ITI	n/a	n/a	n/a	n/a	n/a	n/a	n/a	n/a
324.7383	0.5167	FIXCROSS	n/a	n/a	n/a	n/a	n/a	n/a	n/a	n/a
325.255	1.0167	COLOR_NAME	20	Incongruent	zielony	green	niebieski	blue	hit	n/a
326.246	n/a	RESPONSE	n/a	n/a	n/a	n/a	n/a	n/a	n/a	green
326.2716	1.0167	ITI	n/a	n/a	n/a	n/a	n/a	n/a	n/a	n/a
327.2883	0.5167	FIXCROSS	n/a	n/a	n/a	n/a	n/a	n/a	n/a	n/a
327.805	0.8333	COLOR_NAME	21	Incongruent	zielony	green	żółty	yellow	hit	n/a
328.6107	n/a	RESPONSE	n/a	n/a	n/a	n/a	n/a	n/a	n/a	green
328.6383	1.0167	ITI	n/a	n/a	n/a	n/a	n/a	n/a	n/a	n/a
329.655	0.5167	FIXCROSS	n/a	n/a	n/a	n/a	n/a	n/a	n/a	n/a
330.1717	1.0333	COLOR_NAME	22	Incongruent	niebieski	blue	żółty	yellow	hit	n/a
331.1831	n/a	RESPONSE	n/a	n/a	n/a	n/a	n/a	n/a	n/a	blue
331.205	1.0167	ITI	n/a	n/a	n/a	n/a	n/a	n/a	n/a	n/a
332.2217	0.5167	FIXCROSS	n/a	n/a	n/a	n/a	n/a	n/a	n/a	n/a
332.7383	1.1167	COLOR_NAME	23	Neutral	niebieski	blue	Neutral	Neutral	hit	n/a
333.8353	n/a	RESPONSE	n/a	n/a	n/a	n/a	n/a	n/a	n/a	blue
333.855	1.0167	ITI	n/a	n/a	n/a	n/a	n/a	n/a	n/a	n/a
334.8717	0.5167	FIXCROSS	n/a	n/a	n/a	n/a	n/a	n/a	n/a	n/a
335.3884	1.05	COLOR_NAME	24	Incongruent	czerwony	red	niebieski	blue	hit	n/a
336.4076	n/a	RESPONSE	n/a	n/a	n/a	n/a	n/a	n/a	n/a	red
336.4384	1.0167	ITI	n/a	n/a	n/a	n/a	n/a	n/a	n/a	n/a
337.455	0.5167	FIXCROSS	n/a	n/a	n/a	n/a	n/a	n/a	n/a	n/a
337.9717	0.9167	COLOR_NAME	25	Incongruent	żółty	yellow	niebieski	blue	hit	n/a
338.8682	n/a	RESPONSE	n/a	n/a	n/a	n/a	n/a	n/a	n/a	yellow
338.8884	1.0167	ITI	n/a	n/a	n/a	n/a	n/a	n/a	n/a	n/a
339.9051	0.5167	FIXCROSS	n/a	n/a	n/a	n/a	n/a	n/a	n/a	n/a
340.4217	0.7167	COLOR_NAME	26	Neutral	żółty	yellow	Neutral	Neutral	hit	n/a
341.105	n/a	RESPONSE	n/a	n/a	n/a	n/a	n/a	n/a	n/a	yellow
341.1384	1.0167	ITI	n/a	n/a	n/a	n/a	n/a	n/a	n/a	n/a
342.1551	0.5167	FIXCROSS	n/a	n/a	n/a	n/a	n/a	n/a	n/a	n/a
342.6718	0.65	COLOR_NAME	27	Incongruent	żółty	yellow	czerwony	red	hit	n/a
343.2938	n/a	RESPONSE	n/a	n/a	n/a	n/a	n/a	n/a	n/a	yellow
343.3218	1.0167	ITI	n/a	n/a	n/a	n/a	n/a	n/a	n/a	n/a
344.3384	0.5167	FIXCROSS	n/a	n/a	n/a	n/a	n/a	n/a	n/a	n/a
344.8551	0.8667	COLOR_NAME	28	Neutral	czerwony	red	Neutral	Neutral	hit	n/a
345.6904	n/a	RESPONSE	n/a	n/a	n/a	n/a	n/a	n/a	n/a	red
345.7218	1.0167	ITI	n/a	n/a	n/a	n/a	n/a	n/a	n/a	n/a
346.7385	0.5167	FIXCROSS	n/a	n/a	n/a	n/a	n/a	n/a	n/a	n/a
347.2551	1.1	COLOR_NAME	29	Neutral	niebieski	blue	Neutral	Neutral	hit	n/a
348.3266	n/a	RESPONSE	n/a	n/a	n/a	n/a	n/a	n/a	n/a	blue
348.3551	1.0167	ITI	n/a	n/a	n/a	n/a	n/a	n/a	n/a	n/a
349.3718	0.5167	FIXCROSS	n/a	n/a	n/a	n/a	n/a	n/a	n/a	n/a
349.8885	0.9333	COLOR_NAME	30	Incongruent	czerwony	red	zielony	green	hit	n/a
350.8031	n/a	RESPONSE	n/a	n/a	n/a	n/a	n/a	n/a	n/a	red
350.8218	1.0167	ITI	n/a	n/a	n/a	n/a	n/a	n/a	n/a	n/a
351.8385	0.5167	FIXCROSS	n/a	n/a	n/a	n/a	n/a	n/a	n/a	n/a
352.3552	0.85	COLOR_NAME	31	Incongruent	żółty	yellow	niebieski	blue	hit	n/a
353.1838	n/a	RESPONSE	n/a	n/a	n/a	n/a	n/a	n/a	n/a	yellow
353.2052	1.0167	ITI	n/a	n/a	n/a	n/a	n/a	n/a	n/a	n/a
354.2218	0.5167	FIXCROSS	n/a	n/a	n/a	n/a	n/a	n/a	n/a	n/a
354.7385	0.8333	COLOR_NAME	32	Neutral	czerwony	red	Neutral	Neutral	hit	n/a
355.5484	n/a	RESPONSE	n/a	n/a	n/a	n/a	n/a	n/a	n/a	red
355.5719	1.0167	ITI	n/a	n/a	n/a	n/a	n/a	n/a	n/a	n/a
356.5885	0.5167	FIXCROSS	n/a	n/a	n/a	n/a	n/a	n/a	n/a	n/a
357.1052	1.05	COLOR_NAME	33	Incongruent	zielony	green	czerwony	red	hit	n/a
358.1368	n/a	RESPONSE	n/a	n/a	n/a	n/a	n/a	n/a	n/a	green
358.1552	1.0167	ITI	n/a	n/a	n/a	n/a	n/a	n/a	n/a	n/a
359.1719	0.5167	FIXCROSS	n/a	n/a	n/a	n/a	n/a	n/a	n/a	n/a
359.6886	0.95	COLOR_NAME	34	Neutral	niebieski	blue	Neutral	Neutral	hit	n/a
360.6134	n/a	RESPONSE	n/a	n/a	n/a	n/a	n/a	n/a	n/a	blue
360.6386	1.0167	ITI	n/a	n/a	n/a	n/a	n/a	n/a	n/a	n/a
361.6552	0.5167	FIXCROSS	n/a	n/a	n/a	n/a	n/a	n/a	n/a	n/a
362.1719	0.9667	COLOR_NAME	35	Incongruent	niebieski	blue	czerwony	red	hit	n/a
363.1058	n/a	RESPONSE	n/a	n/a	n/a	n/a	n/a	n/a	n/a	blue
363.1386	1.0167	ITI	n/a	n/a	n/a	n/a	n/a	n/a	n/a	n/a
364.1552	0.5167	FIXCROSS	n/a	n/a	n/a	n/a	n/a	n/a	n/a	n/a
364.6719	0.85	COLOR_NAME	36	Neutral	żółty	yellow	Neutral	Neutral	hit	n/a
365.5023	n/a	RESPONSE	n/a	n/a	n/a	n/a	n/a	n/a	n/a	yellow
365.5219	1.0167	ITI	n/a	n/a	n/a	n/a	n/a	n/a	n/a	n/a
366.5386	0.5167	FIXCROSS	n/a	n/a	n/a	n/a	n/a	n/a	n/a	n/a
367.0553	0.95	COLOR_NAME	37	Neutral	czerwony	red	Neutral	Neutral	hit	n/a
367.9789	n/a	RESPONSE	n/a	n/a	n/a	n/a	n/a	n/a	n/a	red
368.0053	1.0167	ITI	n/a	n/a	n/a	n/a	n/a	n/a	n/a	n/a
369.0219	0.5167	FIXCROSS	n/a	n/a	n/a	n/a	n/a	n/a	n/a	n/a
369.5386	0.8667	COLOR_NAME	38	Incongruent	niebieski	blue	zielony	green	hit	n/a
370.3755	n/a	RESPONSE	n/a	n/a	n/a	n/a	n/a	n/a	n/a	blue
370.4053	1.0167	ITI	n/a	n/a	n/a	n/a	n/a	n/a	n/a	n/a
371.422	0.5167	FIXCROSS	n/a	n/a	n/a	n/a	n/a	n/a	n/a	n/a
371.9386	0.9667	COLOR_NAME	39	Incongruent	czerwony	red	żółty	yellow	hit	n/a
372.8839	n/a	RESPONSE	n/a	n/a	n/a	n/a	n/a	n/a	n/a	red
372.9053	1.0167	ITI	n/a	n/a	n/a	n/a	n/a	n/a	n/a	n/a
373.922	0.5167	FIXCROSS	n/a	n/a	n/a	n/a	n/a	n/a	n/a	n/a
374.4387	0.8833	COLOR_NAME	40	Incongruent	żółty	yellow	zielony	green	hit	n/a
375.2965	n/a	RESPONSE	n/a	n/a	n/a	n/a	n/a	n/a	n/a	yellow
375.322	1.0167	ITI	n/a	n/a	n/a	n/a	n/a	n/a	n/a	n/a
376.3387	0.5167	FIXCROSS	n/a	n/a	n/a	n/a	n/a	n/a	n/a	n/a
376.8553	0.7667	COLOR_NAME	41	Incongruent	czerwony	red	zielony	green	hit	n/a
377.5973	n/a	RESPONSE	n/a	n/a	n/a	n/a	n/a	n/a	n/a	red
377.622	1.0167	ITI	n/a	n/a	n/a	n/a	n/a	n/a	n/a	n/a
378.6387	0.5167	FIXCROSS	n/a	n/a	n/a	n/a	n/a	n/a	n/a	n/a
379.1554	0.7	COLOR_NAME	42	Neutral	czerwony	red	Neutral	Neutral	hit	n/a
379.834	n/a	RESPONSE	n/a	n/a	n/a	n/a	n/a	n/a	n/a	red
379.8554	1.0167	ITI	n/a	n/a	n/a	n/a	n/a	n/a	n/a	n/a
380.872	0.5167	FIXCROSS	n/a	n/a	n/a	n/a	n/a	n/a	n/a	n/a
381.3887	0.75	COLOR_NAME	43	Neutral	niebieski	blue	Neutral	Neutral	hit	n/a
382.1188	n/a	RESPONSE	n/a	n/a	n/a	n/a	n/a	n/a	n/a	blue
382.1387	1.0167	ITI	n/a	n/a	n/a	n/a	n/a	n/a	n/a	n/a
383.1554	0.5167	FIXCROSS	n/a	n/a	n/a	n/a	n/a	n/a	n/a	n/a
383.6721	0.7167	COLOR_NAME	44	Neutral	czerwony	red	Neutral	Neutral	hit	n/a
384.3556	n/a	RESPONSE	n/a	n/a	n/a	n/a	n/a	n/a	n/a	red
384.3887	1.0167	ITI	n/a	n/a	n/a	n/a	n/a	n/a	n/a	n/a
385.4054	0.5167	FIXCROSS	n/a	n/a	n/a	n/a	n/a	n/a	n/a	n/a
385.9221	0.8	COLOR_NAME	45	Neutral	niebieski	blue	Neutral	Neutral	hit	n/a
386.6882	n/a	RESPONSE	n/a	n/a	n/a	n/a	n/a	n/a	n/a	blue
386.7221	1.0167	ITI	n/a	n/a	n/a	n/a	n/a	n/a	n/a	n/a
387.7388	0.5167	FIXCROSS	n/a	n/a	n/a	n/a	n/a	n/a	n/a	n/a
388.2554	0.8	COLOR_NAME	46	Neutral	niebieski	blue	Neutral	Neutral	hit	n/a
389.0368	n/a	RESPONSE	n/a	n/a	n/a	n/a	n/a	n/a	n/a	blue
389.0554	1.0167	ITI	n/a	n/a	n/a	n/a	n/a	n/a	n/a	n/a
390.0721	0.5167	FIXCROSS	n/a	n/a	n/a	n/a	n/a	n/a	n/a	n/a
390.5888	0.6667	COLOR_NAME	47	Incongruent	niebieski	blue	zielony	green	hit	n/a
391.2256	n/a	RESPONSE	n/a	n/a	n/a	n/a	n/a	n/a	n/a	blue
391.2554	1.0167	ITI	n/a	n/a	n/a	n/a	n/a	n/a	n/a	n/a
392.2721	0.5167	FIXCROSS	n/a	n/a	n/a	n/a	n/a	n/a	n/a	n/a
392.7888	0.6833	COLOR_NAME	48	Incongruent	czerwony	red	żółty	yellow	hit	n/a
393.4466	n/a	RESPONSE	n/a	n/a	n/a	n/a	n/a	n/a	n/a	red
393.4721	1.0167	ITI	n/a	n/a	n/a	n/a	n/a	n/a	n/a	n/a
394.4888	0.5167	FIXCROSS	n/a	n/a	n/a	n/a	n/a	n/a	n/a	n/a
395.0055	0.9833	COLOR_NAME	49	Neutral	żółty	yellow	Neutral	Neutral	hit	n/a
395.955	n/a	RESPONSE	n/a	n/a	n/a	n/a	n/a	n/a	n/a	yellow
395.9888	1.0167	ITI	n/a	n/a	n/a	n/a	n/a	n/a	n/a	n/a
397.0055	0.5167	FIXCROSS	n/a	n/a	n/a	n/a	n/a	n/a	n/a	n/a
397.5222	0.6	COLOR_NAME	50	Neutral	żółty	yellow	Neutral	Neutral	hit	n/a
398.0959	n/a	RESPONSE	n/a	n/a	n/a	n/a	n/a	n/a	n/a	yellow
398.1222	1.0167	ITI	n/a	n/a	n/a	n/a	n/a	n/a	n/a	n/a
399.1388	0.5167	FIXCROSS	n/a	n/a	n/a	n/a	n/a	n/a	n/a	n/a
399.6555	0.55	COLOR_NAME	51	Neutral	żółty	yellow	Neutral	Neutral	hit	n/a
400.1731	n/a	RESPONSE	n/a	n/a	n/a	n/a	n/a	n/a	n/a	yellow
400.2055	1.0167	ITI	n/a	n/a	n/a	n/a	n/a	n/a	n/a	n/a
401.2222	0.5167	FIXCROSS	n/a	n/a	n/a	n/a	n/a	n/a	n/a	n/a
401.7389	0.8	COLOR_NAME	52	Incongruent	niebieski	blue	zielony	green	hit	n/a
402.5058	n/a	RESPONSE	n/a	n/a	n/a	n/a	n/a	n/a	n/a	blue
402.5389	1.0167	ITI	n/a	n/a	n/a	n/a	n/a	n/a	n/a	n/a
403.5555	0.5167	FIXCROSS	n/a	n/a	n/a	n/a	n/a	n/a	n/a	n/a
404.0722	0.9	COLOR_NAME	53	Incongruent	zielony	green	żółty	yellow	hit	n/a
404.9504	n/a	RESPONSE	n/a	n/a	n/a	n/a	n/a	n/a	n/a	green
404.9722	1.0167	ITI	n/a	n/a	n/a	n/a	n/a	n/a	n/a	n/a
405.9889	0.5167	FIXCROSS	n/a	n/a	n/a	n/a	n/a	n/a	n/a	n/a
406.5056	0.8167	COLOR_NAME	54	Neutral	żółty	yellow	Neutral	Neutral	hit	n/a
407.299	n/a	RESPONSE	n/a	n/a	n/a	n/a	n/a	n/a	n/a	yellow
407.3222	1.0167	ITI	n/a	n/a	n/a	n/a	n/a	n/a	n/a	n/a
408.3389	0.5167	FIXCROSS	n/a	n/a	n/a	n/a	n/a	n/a	n/a	n/a
408.8556	0.8167	COLOR_NAME	55	Incongruent	żółty	yellow	czerwony	red	hit	n/a
409.6477	n/a	RESPONSE	n/a	n/a	n/a	n/a	n/a	n/a	n/a	yellow
409.6723	1.0167	ITI	n/a	n/a	n/a	n/a	n/a	n/a	n/a	n/a
410.6889	0.5167	FIXCROSS	n/a	n/a	n/a	n/a	n/a	n/a	n/a	n/a
411.2056	0.6667	COLOR_NAME	56	Incongruent	żółty	yellow	czerwony	red	hit	n/a
411.8525	n/a	RESPONSE	n/a	n/a	n/a	n/a	n/a	n/a	n/a	yellow
411.8723	1.0167	ITI	n/a	n/a	n/a	n/a	n/a	n/a	n/a	n/a
412.8889	0.5167	FIXCROSS	n/a	n/a	n/a	n/a	n/a	n/a	n/a	n/a
413.4056	0.8167	COLOR_NAME	57	Neutral	zielony	green	Neutral	Neutral	hit	n/a
414.2011	n/a	RESPONSE	n/a	n/a	n/a	n/a	n/a	n/a	n/a	green
414.2223	1.0167	ITI	n/a	n/a	n/a	n/a	n/a	n/a	n/a	n/a
415.239	0.5167	FIXCROSS	n/a	n/a	n/a	n/a	n/a	n/a	n/a	n/a
415.7556	0.6	COLOR_NAME	58	Neutral	zielony	green	Neutral	Neutral	hit	n/a
416.3261	n/a	RESPONSE	n/a	n/a	n/a	n/a	n/a	n/a	n/a	green
416.3556	1.0167	ITI	n/a	n/a	n/a	n/a	n/a	n/a	n/a	n/a
417.3723	0.5167	FIXCROSS	n/a	n/a	n/a	n/a	n/a	n/a	n/a	n/a
417.889	0.8833	COLOR_NAME	59	Incongruent	niebieski	blue	żółty	yellow	hit	n/a
418.7387	n/a	RESPONSE	n/a	n/a	n/a	n/a	n/a	n/a	n/a	blue
418.7723	1.0167	ITI	n/a	n/a	n/a	n/a	n/a	n/a	n/a	n/a
419.789	0.5167	FIXCROSS	n/a	n/a	n/a	n/a	n/a	n/a	n/a	n/a
420.3057	0.7334	COLOR_NAME	60	Neutral	czerwony	red	Neutral	Neutral	hit	n/a
421.0074	n/a	RESPONSE	n/a	n/a	n/a	n/a	n/a	n/a	n/a	red
421.039	1.0167	ITI	n/a	n/a	n/a	n/a	n/a	n/a	n/a	n/a
422.0557	0.5167	FIXCROSS	n/a	n/a	n/a	n/a	n/a	n/a	n/a	n/a
422.5723	0.7833	COLOR_NAME	61	Incongruent	zielony	green	czerwony	red	hit	n/a
423.3243	n/a	RESPONSE	n/a	n/a	n/a	n/a	n/a	n/a	n/a	green
423.3557	1.0167	ITI	n/a	n/a	n/a	n/a	n/a	n/a	n/a	n/a
424.3724	0.5167	FIXCROSS	n/a	n/a	n/a	n/a	n/a	n/a	n/a	n/a
424.889	0.7834	COLOR_NAME	62	Incongruent	zielony	green	czerwony	red	hit	n/a
425.641	n/a	RESPONSE	n/a	n/a	n/a	n/a	n/a	n/a	n/a	green
425.6724	1.0167	ITI	n/a	n/a	n/a	n/a	n/a	n/a	n/a	n/a
426.689	0.5167	FIXCROSS	n/a	n/a	n/a	n/a	n/a	n/a	n/a	n/a
427.2057	0.6	COLOR_NAME	63	Neutral	zielony	green	Neutral	Neutral	hit	n/a
427.782	n/a	RESPONSE	n/a	n/a	n/a	n/a	n/a	n/a	n/a	green
427.8057	1.0167	ITI	n/a	n/a	n/a	n/a	n/a	n/a	n/a	n/a
428.8224	0.5167	FIXCROSS	n/a	n/a	n/a	n/a	n/a	n/a	n/a	n/a
429.3391	0.85	COLOR_NAME	64	Neutral	czerwony	red	Neutral	Neutral	hit	n/a
430.1626	n/a	RESPONSE	n/a	n/a	n/a	n/a	n/a	n/a	n/a	red
430.1891	1.0167	ITI	n/a	n/a	n/a	n/a	n/a	n/a	n/a	n/a
431.2057	0.5167	FIXCROSS	n/a	n/a	n/a	n/a	n/a	n/a	n/a	n/a
431.7224	0.75	COLOR_NAME	65	Neutral	niebieski	blue	Neutral	Neutral	hit	n/a
432.4474	n/a	RESPONSE	n/a	n/a	n/a	n/a	n/a	n/a	n/a	blue
432.4724	1.0167	ITI	n/a	n/a	n/a	n/a	n/a	n/a	n/a	n/a
433.4891	0.5167	FIXCROSS	n/a	n/a	n/a	n/a	n/a	n/a	n/a	n/a
434.0058	0.6	COLOR_NAME	66	Neutral	żółty	yellow	Neutral	Neutral	hit	n/a
434.5883	n/a	RESPONSE	n/a	n/a	n/a	n/a	n/a	n/a	n/a	yellow
434.6058	1.0167	ITI	n/a	n/a	n/a	n/a	n/a	n/a	n/a	n/a
435.6224	0.5167	FIXCROSS	n/a	n/a	n/a	n/a	n/a	n/a	n/a	n/a
436.1391	0.8	COLOR_NAME	67	Neutral	czerwony	red	Neutral	Neutral	hit	n/a
436.9051	n/a	RESPONSE	n/a	n/a	n/a	n/a	n/a	n/a	n/a	red
436.9391	1.0167	ITI	n/a	n/a	n/a	n/a	n/a	n/a	n/a	n/a
437.9558	0.5167	FIXCROSS	n/a	n/a	n/a	n/a	n/a	n/a	n/a	n/a
438.4725	0.8667	COLOR_NAME	68	Incongruent	niebieski	blue	żółty	yellow	hit	n/a
439.3176	n/a	RESPONSE	n/a	n/a	n/a	n/a	n/a	n/a	n/a	blue
439.3391	1.0167	ITI	n/a	n/a	n/a	n/a	n/a	n/a	n/a	n/a
440.3558	0.5167	FIXCROSS	n/a	n/a	n/a	n/a	n/a	n/a	n/a	n/a
440.8725	0.85	COLOR_NAME	69	Neutral	zielony	green	Neutral	Neutral	hit	n/a
441.6983	n/a	RESPONSE	n/a	n/a	n/a	n/a	n/a	n/a	n/a	green
441.7225	1.0167	ITI	n/a	n/a	n/a	n/a	n/a	n/a	n/a	n/a
442.7392	0.5167	FIXCROSS	n/a	n/a	n/a	n/a	n/a	n/a	n/a	n/a
443.2558	0.7833	COLOR_NAME	70	Incongruent	czerwony	red	niebieski	blue	hit	n/a
444.0151	n/a	RESPONSE	n/a	n/a	n/a	n/a	n/a	n/a	n/a	red
444.0392	1.0167	ITI	n/a	n/a	n/a	n/a	n/a	n/a	n/a	n/a
445.0559	0.5167	FIXCROSS	n/a	n/a	n/a	n/a	n/a	n/a	n/a	n/a
445.5725	0.75	COLOR_NAME	71	Incongruent	czerwony	red	żółty	yellow	hit	n/a
446.2998	n/a	RESPONSE	n/a	n/a	n/a	n/a	n/a	n/a	n/a	red
446.3225	1.0167	ITI	n/a	n/a	n/a	n/a	n/a	n/a	n/a	n/a
447.3392	0.5167	FIXCROSS	n/a	n/a	n/a	n/a	n/a	n/a	n/a	n/a
447.8559	0.9	COLOR_NAME	72	Incongruent	zielony	green	niebieski	blue	hit	n/a
448.7283	n/a	RESPONSE	n/a	n/a	n/a	n/a	n/a	n/a	n/a	green
448.7559	1.0333	ITI	n/a	n/a	n/a	n/a	n/a	n/a	n/a	n/a
453.6175	n/a	RESPONSE	n/a	n/a	n/a	n/a	n/a	n/a	n/a	n/a
