onset	duration	trial_type	trial_number	stroop_condition	stim_text(PL)	stim_text(eng)	stim_color(PL)	stim_color(eng)	response_type	response_color
0.0	n/a	RESPONSE	n/a	n/a	n/a	n/a	n/a	n/a	n/a	n/a
0.0247	1.0167	ITI	n/a	n/a	n/a	n/a	n/a	n/a	n/a	n/a
1.0414	0.5	FIXCROSS	n/a	n/a	n/a	n/a	n/a	n/a	n/a	n/a
1.5414	0.5833	T_INK	1	Neutral	xxxxxxx	xxxxxxx	niebieski	blue	hit	n/a
2.1081	n/a	RESPONSE	n/a	n/a	n/a	n/a	n/a	n/a	n/a	blue
2.1248	0.5	FEEDBACK	n/a	n/a	n/a	n/a	n/a	n/a	n/a	n/a
2.6248	1.0	ITI	n/a	n/a	n/a	n/a	n/a	n/a	n/a	n/a
3.6248	0.5	FIXCROSS	n/a	n/a	n/a	n/a	n/a	n/a	n/a	n/a
4.1248	0.6167	T_INK	2	Neutral	xxxxxxx	xxxxxxx	czerwony	red	hit	n/a
4.7271	n/a	RESPONSE	n/a	n/a	n/a	n/a	n/a	n/a	n/a	red
4.7415	0.5	FEEDBACK	n/a	n/a	n/a	n/a	n/a	n/a	n/a	n/a
5.2415	1.0167	ITI	n/a	n/a	n/a	n/a	n/a	n/a	n/a	n/a
6.2581	0.5	FIXCROSS	n/a	n/a	n/a	n/a	n/a	n/a	n/a	n/a
6.7581	0.7167	T_INK	3	Incongruent	żółty	yellow	czerwony	red	hit	n/a
7.458	n/a	RESPONSE	n/a	n/a	n/a	n/a	n/a	n/a	n/a	red
7.4748	0.5	FEEDBACK	n/a	n/a	n/a	n/a	n/a	n/a	n/a	n/a
7.9748	1.0	ITI	n/a	n/a	n/a	n/a	n/a	n/a	n/a	n/a
8.9748	0.5	FIXCROSS	n/a	n/a	n/a	n/a	n/a	n/a	n/a	n/a
9.4749	0.6	T_INK	4	Neutral	xxxxxxx	xxxxxxx	żółty	yellow	hit	n/a
10.0611	n/a	RESPONSE	n/a	n/a	n/a	n/a	n/a	n/a	n/a	yellow
10.0749	0.5	FEEDBACK	n/a	n/a	n/a	n/a	n/a	n/a	n/a	n/a
10.5749	1.0	ITI	n/a	n/a	n/a	n/a	n/a	n/a	n/a	n/a
11.5749	0.5	FIXCROSS	n/a	n/a	n/a	n/a	n/a	n/a	n/a	n/a
12.0749	0.4667	T_INK	5	Neutral	xxxxx	xxxxx	czerwony	red	hit	n/a
12.5363	n/a	RESPONSE	n/a	n/a	n/a	n/a	n/a	n/a	n/a	red
12.5416	0.5	FEEDBACK	n/a	n/a	n/a	n/a	n/a	n/a	n/a	n/a
13.0416	1.0	ITI	n/a	n/a	n/a	n/a	n/a	n/a	n/a	n/a
14.0416	0.5	FIXCROSS	n/a	n/a	n/a	n/a	n/a	n/a	n/a	n/a
14.5416	0.4	T_INK	6	Neutral	xxxxx	xxxxx	niebieski	blue	hit	n/a
14.9318	n/a	RESPONSE	n/a	n/a	n/a	n/a	n/a	n/a	n/a	blue
14.9416	0.5	FEEDBACK	n/a	n/a	n/a	n/a	n/a	n/a	n/a	n/a
15.4416	1.0	ITI	n/a	n/a	n/a	n/a	n/a	n/a	n/a	n/a
16.4416	0.5	FIXCROSS	n/a	n/a	n/a	n/a	n/a	n/a	n/a	n/a
16.9416	0.5333	T_INK	7	Neutral	xxxxxxxx	xxxxxxxx	niebieski	blue	hit	n/a
17.455	n/a	RESPONSE	n/a	n/a	n/a	n/a	n/a	n/a	n/a	blue
17.475	0.5	FEEDBACK	n/a	n/a	n/a	n/a	n/a	n/a	n/a	n/a
17.975	1.0	ITI	n/a	n/a	n/a	n/a	n/a	n/a	n/a	n/a
18.975	0.5	FIXCROSS	n/a	n/a	n/a	n/a	n/a	n/a	n/a	n/a
19.475	0.5333	T_INK	8	Incongruent	czerwony	red	żółty	yellow	hit	n/a
19.9942	n/a	RESPONSE	n/a	n/a	n/a	n/a	n/a	n/a	n/a	yellow
20.0083	0.5	FEEDBACK	n/a	n/a	n/a	n/a	n/a	n/a	n/a	n/a
20.5083	1.0	ITI	n/a	n/a	n/a	n/a	n/a	n/a	n/a	n/a
21.5084	0.5	FIXCROSS	n/a	n/a	n/a	n/a	n/a	n/a	n/a	n/a
22.0083	0.7167	T_INK	9	Neutral	xxxxxxxxx	xxxxxxxxx	zielony	green	hit	n/a
22.6931	n/a	RESPONSE	n/a	n/a	n/a	n/a	n/a	n/a	n/a	green
22.725	0.5333	FEEDBACK	n/a	n/a	n/a	n/a	n/a	n/a	n/a	n/a
23.2584	1.0333	ITI	n/a	n/a	n/a	n/a	n/a	n/a	n/a	n/a
24.2917	0.5333	FIXCROSS	n/a	n/a	n/a	n/a	n/a	n/a	n/a	n/a
24.8251	0.6667	T_INK	10	Incongruent	niebieski	blue	zielony	green	hit	n/a
25.4558	n/a	RESPONSE	n/a	n/a	n/a	n/a	n/a	n/a	n/a	green
25.4917	0.5333	FEEDBACK	n/a	n/a	n/a	n/a	n/a	n/a	n/a	n/a
26.0251	1.0333	ITI	n/a	n/a	n/a	n/a	n/a	n/a	n/a	n/a
27.0584	0.5333	FIXCROSS	n/a	n/a	n/a	n/a	n/a	n/a	n/a	n/a
27.5918	0.5833	T_INK	11	Incongruent	zielony	green	niebieski	blue	incorrect	n/a
28.1387	n/a	RESPONSE	n/a	n/a	n/a	n/a	n/a	n/a	n/a	green
28.1751	0.5333	FEEDBACK	n/a	n/a	n/a	n/a	n/a	n/a	n/a	n/a
28.2824	n/a	RESPONSE	n/a	n/a	n/a	n/a	n/a	n/a	n/a	blue
28.7084	1.0333	ITI	n/a	n/a	n/a	n/a	n/a	n/a	n/a	n/a
29.7418	0.5333	FIXCROSS	n/a	n/a	n/a	n/a	n/a	n/a	n/a	n/a
30.2751	0.7334	T_INK	12	Neutral	xxxxx	xxxxx	zielony	green	hit	n/a
30.9654	n/a	RESPONSE	n/a	n/a	n/a	n/a	n/a	n/a	n/a	green
31.0085	0.5333	FEEDBACK	n/a	n/a	n/a	n/a	n/a	n/a	n/a	n/a
31.5418	1.05	ITI	n/a	n/a	n/a	n/a	n/a	n/a	n/a	n/a
39.6689	n/a	RESPONSE	n/a	n/a	n/a	n/a	n/a	n/a	n/a	n/a
39.7419	1.0	ITI	n/a	n/a	n/a	n/a	n/a	n/a	n/a	n/a
40.7419	0.5	FIXCROSS	n/a	n/a	n/a	n/a	n/a	n/a	n/a	n/a
41.2419	0.5667	INK	1	Incongruent	zielony	green	niebieski	blue	hit	n/a
41.7928	n/a	RESPONSE	n/a	n/a	n/a	n/a	n/a	n/a	n/a	blue
41.8086	1.0	ITI	n/a	n/a	n/a	n/a	n/a	n/a	n/a	n/a
42.8086	0.5	FIXCROSS	n/a	n/a	n/a	n/a	n/a	n/a	n/a	n/a
43.3086	0.45	INK	2	Neutral	xxxxxxx	xxxxxxx	czerwony	red	hit	n/a
43.7412	n/a	RESPONSE	n/a	n/a	n/a	n/a	n/a	n/a	n/a	red
43.7586	1.0	ITI	n/a	n/a	n/a	n/a	n/a	n/a	n/a	n/a
44.7586	0.5	FIXCROSS	n/a	n/a	n/a	n/a	n/a	n/a	n/a	n/a
45.2587	0.55	INK	3	Incongruent	zielony	green	niebieski	blue	hit	n/a
45.8012	n/a	RESPONSE	n/a	n/a	n/a	n/a	n/a	n/a	n/a	blue
45.8087	1.0	ITI	n/a	n/a	n/a	n/a	n/a	n/a	n/a	n/a
46.8087	0.5	FIXCROSS	n/a	n/a	n/a	n/a	n/a	n/a	n/a	n/a
47.3087	0.55	INK	4	Neutral	xxxxxxx	xxxxxxx	żółty	yellow	hit	n/a
47.8453	n/a	RESPONSE	n/a	n/a	n/a	n/a	n/a	n/a	n/a	yellow
47.8587	1.0	ITI	n/a	n/a	n/a	n/a	n/a	n/a	n/a	n/a
48.8587	0.5	FIXCROSS	n/a	n/a	n/a	n/a	n/a	n/a	n/a	n/a
49.3587	0.6667	INK	5	Incongruent	niebieski	blue	zielony	green	hit	n/a
50.0173	n/a	RESPONSE	n/a	n/a	n/a	n/a	n/a	n/a	n/a	green
50.0254	1.0	ITI	n/a	n/a	n/a	n/a	n/a	n/a	n/a	n/a
51.0254	0.5	FIXCROSS	n/a	n/a	n/a	n/a	n/a	n/a	n/a	n/a
51.5254	0.6833	INK	6	Incongruent	żółty	yellow	niebieski	blue	hit	n/a
52.1892	n/a	RESPONSE	n/a	n/a	n/a	n/a	n/a	n/a	n/a	blue
52.2087	1.0	ITI	n/a	n/a	n/a	n/a	n/a	n/a	n/a	n/a
53.2087	0.5	FIXCROSS	n/a	n/a	n/a	n/a	n/a	n/a	n/a	n/a
53.7088	0.4	INK	7	Incongruent	żółty	yellow	czerwony	red	hit	n/a
54.0895	n/a	RESPONSE	n/a	n/a	n/a	n/a	n/a	n/a	n/a	red
54.1088	1.0	ITI	n/a	n/a	n/a	n/a	n/a	n/a	n/a	n/a
55.1088	0.5	FIXCROSS	n/a	n/a	n/a	n/a	n/a	n/a	n/a	n/a
55.6088	0.4167	INK	8	Incongruent	niebieski	blue	żółty	yellow	hit	n/a
56.006	n/a	RESPONSE	n/a	n/a	n/a	n/a	n/a	n/a	n/a	yellow
56.0255	1.0	ITI	n/a	n/a	n/a	n/a	n/a	n/a	n/a	n/a
57.0255	0.5	FIXCROSS	n/a	n/a	n/a	n/a	n/a	n/a	n/a	n/a
57.5255	0.6167	INK	9	Incongruent	czerwony	red	niebieski	blue	hit	n/a
58.1298	n/a	RESPONSE	n/a	n/a	n/a	n/a	n/a	n/a	n/a	blue
58.1421	1.0	ITI	n/a	n/a	n/a	n/a	n/a	n/a	n/a	n/a
59.1422	0.5	FIXCROSS	n/a	n/a	n/a	n/a	n/a	n/a	n/a	n/a
59.6422	0.45	INK	10	Neutral	xxxxxxxxx	xxxxxxxxx	żółty	yellow	hit	n/a
60.0782	n/a	RESPONSE	n/a	n/a	n/a	n/a	n/a	n/a	n/a	yellow
60.0922	1.0	ITI	n/a	n/a	n/a	n/a	n/a	n/a	n/a	n/a
61.0922	0.5	FIXCROSS	n/a	n/a	n/a	n/a	n/a	n/a	n/a	n/a
61.5922	0.5333	INK	11	Neutral	xxxxxxxx	xxxxxxxx	zielony	green	hit	n/a
62.1063	n/a	RESPONSE	n/a	n/a	n/a	n/a	n/a	n/a	n/a	green
62.1255	1.0	ITI	n/a	n/a	n/a	n/a	n/a	n/a	n/a	n/a
63.1255	0.5	FIXCROSS	n/a	n/a	n/a	n/a	n/a	n/a	n/a	n/a
63.6256	0.5667	INK	12	Incongruent	żółty	yellow	zielony	green	hit	n/a
64.1824	n/a	RESPONSE	n/a	n/a	n/a	n/a	n/a	n/a	n/a	green
64.1922	1.0	ITI	n/a	n/a	n/a	n/a	n/a	n/a	n/a	n/a
65.1922	0.5	FIXCROSS	n/a	n/a	n/a	n/a	n/a	n/a	n/a	n/a
65.6922	0.5167	INK	13	Neutral	xxxxxxx	xxxxxxx	żółty	yellow	hit	n/a
66.1946	n/a	RESPONSE	n/a	n/a	n/a	n/a	n/a	n/a	n/a	yellow
66.2089	1.0	ITI	n/a	n/a	n/a	n/a	n/a	n/a	n/a	n/a
67.2089	0.5	FIXCROSS	n/a	n/a	n/a	n/a	n/a	n/a	n/a	n/a
67.7089	0.4333	INK	14	Neutral	xxxxxxxxx	xxxxxxxxx	żółty	yellow	hit	n/a
68.1269	n/a	RESPONSE	n/a	n/a	n/a	n/a	n/a	n/a	n/a	yellow
68.1423	1.0	ITI	n/a	n/a	n/a	n/a	n/a	n/a	n/a	n/a
69.1423	0.5333	FIXCROSS	n/a	n/a	n/a	n/a	n/a	n/a	n/a	n/a
69.6756	0.4667	INK	15	Incongruent	niebieski	blue	czerwony	red	hit	n/a
70.1071	n/a	RESPONSE	n/a	n/a	n/a	n/a	n/a	n/a	n/a	red
70.1423	1.0333	ITI	n/a	n/a	n/a	n/a	n/a	n/a	n/a	n/a
71.1757	0.5333	FIXCROSS	n/a	n/a	n/a	n/a	n/a	n/a	n/a	n/a
71.709	0.4667	INK	16	Neutral	xxxxxxxx	xxxxxxxx	niebieski	blue	hit	n/a
72.1354	n/a	RESPONSE	n/a	n/a	n/a	n/a	n/a	n/a	n/a	blue
72.1757	1.0333	ITI	n/a	n/a	n/a	n/a	n/a	n/a	n/a	n/a
73.209	0.5333	FIXCROSS	n/a	n/a	n/a	n/a	n/a	n/a	n/a	n/a
73.7424	0.5167	INK	17	Incongruent	niebieski	blue	czerwony	red	hit	n/a
74.2274	n/a	RESPONSE	n/a	n/a	n/a	n/a	n/a	n/a	n/a	red
74.259	1.0334	ITI	n/a	n/a	n/a	n/a	n/a	n/a	n/a	n/a
75.2924	0.5333	FIXCROSS	n/a	n/a	n/a	n/a	n/a	n/a	n/a	n/a
75.8257	0.6667	INK	18	Neutral	xxxxx	xxxxx	zielony	green	hit	n/a
76.4631	n/a	RESPONSE	n/a	n/a	n/a	n/a	n/a	n/a	n/a	green
76.4924	1.0333	ITI	n/a	n/a	n/a	n/a	n/a	n/a	n/a	n/a
77.5257	0.5333	FIXCROSS	n/a	n/a	n/a	n/a	n/a	n/a	n/a	n/a
78.0591	0.4833	INK	19	Neutral	xxxxxxxx	xxxxxxxx	niebieski	blue	hit	n/a
78.5073	n/a	RESPONSE	n/a	n/a	n/a	n/a	n/a	n/a	n/a	blue
78.5424	1.0333	ITI	n/a	n/a	n/a	n/a	n/a	n/a	n/a	n/a
79.5758	0.5333	FIXCROSS	n/a	n/a	n/a	n/a	n/a	n/a	n/a	n/a
80.1091	0.5333	INK	20	Neutral	xxxxxxxx	xxxxxxxx	żółty	yellow	hit	n/a
80.5993	n/a	RESPONSE	n/a	n/a	n/a	n/a	n/a	n/a	n/a	yellow
80.6424	1.0333	ITI	n/a	n/a	n/a	n/a	n/a	n/a	n/a	n/a
81.6758	0.5333	FIXCROSS	n/a	n/a	n/a	n/a	n/a	n/a	n/a	n/a
82.2091	0.55	INK	21	Neutral	xxxxxxxx	xxxxxxxx	zielony	green	incorrect	n/a
82.7233	n/a	RESPONSE	n/a	n/a	n/a	n/a	n/a	n/a	n/a	red
82.7591	1.0333	ITI	n/a	n/a	n/a	n/a	n/a	n/a	n/a	n/a
82.9308	n/a	RESPONSE	n/a	n/a	n/a	n/a	n/a	n/a	n/a	green
83.7925	0.5333	FIXCROSS	n/a	n/a	n/a	n/a	n/a	n/a	n/a	n/a
84.3258	0.7833	INK	22	Incongruent	czerwony	red	zielony	green	hit	n/a
85.0708	n/a	RESPONSE	n/a	n/a	n/a	n/a	n/a	n/a	n/a	green
85.1092	1.0333	ITI	n/a	n/a	n/a	n/a	n/a	n/a	n/a	n/a
86.1425	0.5333	FIXCROSS	n/a	n/a	n/a	n/a	n/a	n/a	n/a	n/a
86.6758	0.6	INK	23	Neutral	xxxxx	xxxxx	zielony	green	hit	n/a
87.2426	n/a	RESPONSE	n/a	n/a	n/a	n/a	n/a	n/a	n/a	green
87.2759	1.0333	ITI	n/a	n/a	n/a	n/a	n/a	n/a	n/a	n/a
88.3092	0.5333	FIXCROSS	n/a	n/a	n/a	n/a	n/a	n/a	n/a	n/a
88.8426	0.5	INK	24	Neutral	xxxxxxxxx	xxxxxxxxx	zielony	green	hit	n/a
89.3028	n/a	RESPONSE	n/a	n/a	n/a	n/a	n/a	n/a	n/a	green
89.3425	1.0333	ITI	n/a	n/a	n/a	n/a	n/a	n/a	n/a	n/a
90.3759	0.5333	FIXCROSS	n/a	n/a	n/a	n/a	n/a	n/a	n/a	n/a
90.9092	0.4667	INK	25	Neutral	xxxxxxxxx	xxxxxxxxx	czerwony	red	hit	n/a
91.3469	n/a	RESPONSE	n/a	n/a	n/a	n/a	n/a	n/a	n/a	red
91.3759	1.0333	ITI	n/a	n/a	n/a	n/a	n/a	n/a	n/a	n/a
92.4093	0.5333	FIXCROSS	n/a	n/a	n/a	n/a	n/a	n/a	n/a	n/a
92.9426	0.55	INK	26	Incongruent	czerwony	red	zielony	green	hit	n/a
93.4549	n/a	RESPONSE	n/a	n/a	n/a	n/a	n/a	n/a	n/a	green
93.4926	1.0333	ITI	n/a	n/a	n/a	n/a	n/a	n/a	n/a	n/a
94.5259	0.5333	FIXCROSS	n/a	n/a	n/a	n/a	n/a	n/a	n/a	n/a
95.0593	0.4833	INK	27	Incongruent	niebieski	blue	zielony	green	hit	n/a
95.499	n/a	RESPONSE	n/a	n/a	n/a	n/a	n/a	n/a	n/a	green
95.5426	1.0334	ITI	n/a	n/a	n/a	n/a	n/a	n/a	n/a	n/a
96.576	0.5333	FIXCROSS	n/a	n/a	n/a	n/a	n/a	n/a	n/a	n/a
97.1093	0.4167	INK	28	Incongruent	niebieski	blue	żółty	yellow	hit	n/a
97.4952	n/a	RESPONSE	n/a	n/a	n/a	n/a	n/a	n/a	n/a	yellow
97.526	1.0334	ITI	n/a	n/a	n/a	n/a	n/a	n/a	n/a	n/a
98.5593	0.5333	FIXCROSS	n/a	n/a	n/a	n/a	n/a	n/a	n/a	n/a
99.0927	0.4667	INK	29	Neutral	xxxxx	xxxxx	czerwony	red	hit	n/a
99.5233	n/a	RESPONSE	n/a	n/a	n/a	n/a	n/a	n/a	n/a	red
99.5593	1.0334	ITI	n/a	n/a	n/a	n/a	n/a	n/a	n/a	n/a
100.5927	0.5333	FIXCROSS	n/a	n/a	n/a	n/a	n/a	n/a	n/a	n/a
101.126	0.4167	INK	30	Neutral	xxxxxxx	xxxxxxx	niebieski	blue	hit	n/a
101.5037	n/a	RESPONSE	n/a	n/a	n/a	n/a	n/a	n/a	n/a	blue
101.5427	1.0333	ITI	n/a	n/a	n/a	n/a	n/a	n/a	n/a	n/a
102.5761	0.5333	FIXCROSS	n/a	n/a	n/a	n/a	n/a	n/a	n/a	n/a
103.1094	0.4834	INK	31	Neutral	xxxxx	xxxxx	niebieski	blue	hit	n/a
103.5636	n/a	RESPONSE	n/a	n/a	n/a	n/a	n/a	n/a	n/a	blue
103.5927	1.0333	ITI	n/a	n/a	n/a	n/a	n/a	n/a	n/a	n/a
104.6261	0.5333	FIXCROSS	n/a	n/a	n/a	n/a	n/a	n/a	n/a	n/a
105.1594	0.55	INK	32	Incongruent	zielony	green	żółty	yellow	hit	n/a
105.6716	n/a	RESPONSE	n/a	n/a	n/a	n/a	n/a	n/a	n/a	yellow
105.7094	1.0333	ITI	n/a	n/a	n/a	n/a	n/a	n/a	n/a	n/a
106.7428	0.5333	FIXCROSS	n/a	n/a	n/a	n/a	n/a	n/a	n/a	n/a
107.2761	0.65	INK	33	Incongruent	czerwony	red	niebieski	blue	hit	n/a
107.8915	n/a	RESPONSE	n/a	n/a	n/a	n/a	n/a	n/a	n/a	blue
107.9261	1.0334	ITI	n/a	n/a	n/a	n/a	n/a	n/a	n/a	n/a
108.9595	0.5333	FIXCROSS	n/a	n/a	n/a	n/a	n/a	n/a	n/a	n/a
109.4928	0.5667	INK	34	Incongruent	żółty	yellow	zielony	green	hit	n/a
110.0313	n/a	RESPONSE	n/a	n/a	n/a	n/a	n/a	n/a	n/a	green
110.0595	1.0334	ITI	n/a	n/a	n/a	n/a	n/a	n/a	n/a	n/a
111.0928	0.5333	FIXCROSS	n/a	n/a	n/a	n/a	n/a	n/a	n/a	n/a
111.6262	0.5333	INK	35	Neutral	xxxxx	xxxxx	niebieski	blue	hit	n/a
112.1235	n/a	RESPONSE	n/a	n/a	n/a	n/a	n/a	n/a	n/a	blue
112.1595	1.0333	ITI	n/a	n/a	n/a	n/a	n/a	n/a	n/a	n/a
113.1929	0.5333	FIXCROSS	n/a	n/a	n/a	n/a	n/a	n/a	n/a	n/a
113.7262	0.45	INK	36	Incongruent	żółty	yellow	czerwony	red	hit	n/a
114.1356	n/a	RESPONSE	n/a	n/a	n/a	n/a	n/a	n/a	n/a	red
114.1762	1.0333	ITI	n/a	n/a	n/a	n/a	n/a	n/a	n/a	n/a
115.2095	0.5333	FIXCROSS	n/a	n/a	n/a	n/a	n/a	n/a	n/a	n/a
115.7429	0.45	INK	37	Neutral	xxxxxxx	xxxxxxx	czerwony	red	hit	n/a
116.1638	n/a	RESPONSE	n/a	n/a	n/a	n/a	n/a	n/a	n/a	red
116.1929	1.0333	ITI	n/a	n/a	n/a	n/a	n/a	n/a	n/a	n/a
117.2262	0.5333	FIXCROSS	n/a	n/a	n/a	n/a	n/a	n/a	n/a	n/a
117.7596	0.5	INK	38	Incongruent	zielony	green	czerwony	red	hit	n/a
118.2239	n/a	RESPONSE	n/a	n/a	n/a	n/a	n/a	n/a	n/a	red
118.2596	1.0333	ITI	n/a	n/a	n/a	n/a	n/a	n/a	n/a	n/a
119.2929	0.5333	FIXCROSS	n/a	n/a	n/a	n/a	n/a	n/a	n/a	n/a
119.8263	0.5667	INK	39	Neutral	xxxxxxxx	xxxxxxxx	zielony	green	incorrect	n/a
120.3638	n/a	RESPONSE	n/a	n/a	n/a	n/a	n/a	n/a	n/a	yellow
120.3929	1.0333	ITI	n/a	n/a	n/a	n/a	n/a	n/a	n/a	n/a
121.4263	0.5334	FIXCROSS	n/a	n/a	n/a	n/a	n/a	n/a	n/a	n/a
121.9596	0.5	INK	40	Incongruent	żółty	yellow	niebieski	blue	hit	n/a
122.4239	n/a	RESPONSE	n/a	n/a	n/a	n/a	n/a	n/a	n/a	blue
122.4596	1.0333	ITI	n/a	n/a	n/a	n/a	n/a	n/a	n/a	n/a
123.493	0.5333	FIXCROSS	n/a	n/a	n/a	n/a	n/a	n/a	n/a	n/a
124.0263	0.5667	INK	41	Incongruent	żółty	yellow	niebieski	blue	hit	n/a
124.5478	n/a	RESPONSE	n/a	n/a	n/a	n/a	n/a	n/a	n/a	blue
124.593	1.0334	ITI	n/a	n/a	n/a	n/a	n/a	n/a	n/a	n/a
125.6263	0.5333	FIXCROSS	n/a	n/a	n/a	n/a	n/a	n/a	n/a	n/a
126.1597	0.7	INK	42	Neutral	xxxxxxx	xxxxxxx	żółty	yellow	hit	n/a
126.8156	n/a	RESPONSE	n/a	n/a	n/a	n/a	n/a	n/a	n/a	yellow
126.8597	1.0334	ITI	n/a	n/a	n/a	n/a	n/a	n/a	n/a	n/a
127.893	0.5333	FIXCROSS	n/a	n/a	n/a	n/a	n/a	n/a	n/a	n/a
128.4264	0.9	INK	43	Neutral	xxxxxxx	xxxxxxx	niebieski	blue	hit	n/a
129.2908	n/a	RESPONSE	n/a	n/a	n/a	n/a	n/a	n/a	n/a	blue
129.3264	1.0334	ITI	n/a	n/a	n/a	n/a	n/a	n/a	n/a	n/a
130.3597	0.5333	FIXCROSS	n/a	n/a	n/a	n/a	n/a	n/a	n/a	n/a
130.8931	0.5833	INK	44	Incongruent	czerwony	red	zielony	green	hit	n/a
131.4468	n/a	RESPONSE	n/a	n/a	n/a	n/a	n/a	n/a	n/a	green
131.4764	1.0333	ITI	n/a	n/a	n/a	n/a	n/a	n/a	n/a	n/a
132.5098	0.5333	FIXCROSS	n/a	n/a	n/a	n/a	n/a	n/a	n/a	n/a
133.0431	0.4667	INK	45	Incongruent	żółty	yellow	zielony	green	hit	n/a
133.4749	n/a	RESPONSE	n/a	n/a	n/a	n/a	n/a	n/a	n/a	green
133.5098	1.0334	ITI	n/a	n/a	n/a	n/a	n/a	n/a	n/a	n/a
134.5431	0.5333	FIXCROSS	n/a	n/a	n/a	n/a	n/a	n/a	n/a	n/a
135.0765	0.45	INK	46	Neutral	xxxxxxxxx	xxxxxxxxx	zielony	green	hit	n/a
135.4872	n/a	RESPONSE	n/a	n/a	n/a	n/a	n/a	n/a	n/a	green
135.5265	1.0334	ITI	n/a	n/a	n/a	n/a	n/a	n/a	n/a	n/a
136.5598	0.5333	FIXCROSS	n/a	n/a	n/a	n/a	n/a	n/a	n/a	n/a
137.0932	0.4167	INK	47	Incongruent	zielony	green	żółty	yellow	hit	n/a
137.4674	n/a	RESPONSE	n/a	n/a	n/a	n/a	n/a	n/a	n/a	yellow
137.5098	1.0333	ITI	n/a	n/a	n/a	n/a	n/a	n/a	n/a	n/a
138.5432	0.5333	FIXCROSS	n/a	n/a	n/a	n/a	n/a	n/a	n/a	n/a
139.0765	0.6833	INK	48	Incongruent	czerwony	red	żółty	yellow	hit	n/a
139.7191	n/a	RESPONSE	n/a	n/a	n/a	n/a	n/a	n/a	n/a	yellow
139.7598	1.0334	ITI	n/a	n/a	n/a	n/a	n/a	n/a	n/a	n/a
140.7932	0.5333	FIXCROSS	n/a	n/a	n/a	n/a	n/a	n/a	n/a	n/a
141.3265	0.4667	INK	49	Neutral	xxxxxxx	xxxxxxx	niebieski	blue	hit	n/a
141.7631	n/a	RESPONSE	n/a	n/a	n/a	n/a	n/a	n/a	n/a	blue
141.7932	1.0333	ITI	n/a	n/a	n/a	n/a	n/a	n/a	n/a	n/a
142.8266	0.5334	FIXCROSS	n/a	n/a	n/a	n/a	n/a	n/a	n/a	n/a
143.3599	0.4833	INK	50	Neutral	xxxxxxxxx	xxxxxxxxx	czerwony	red	hit	n/a
143.8073	n/a	RESPONSE	n/a	n/a	n/a	n/a	n/a	n/a	n/a	red
143.8432	1.0334	ITI	n/a	n/a	n/a	n/a	n/a	n/a	n/a	n/a
144.8766	0.5333	FIXCROSS	n/a	n/a	n/a	n/a	n/a	n/a	n/a	n/a
145.4099	0.55	INK	51	Neutral	xxxxx	xxxxx	zielony	green	hit	n/a
145.9313	n/a	RESPONSE	n/a	n/a	n/a	n/a	n/a	n/a	n/a	green
145.9599	1.0334	ITI	n/a	n/a	n/a	n/a	n/a	n/a	n/a	n/a
146.9933	0.5333	FIXCROSS	n/a	n/a	n/a	n/a	n/a	n/a	n/a	n/a
147.5266	0.6833	INK	52	Incongruent	niebieski	blue	czerwony	red	hit	n/a
148.1669	n/a	RESPONSE	n/a	n/a	n/a	n/a	n/a	n/a	n/a	red
148.21	1.0333	ITI	n/a	n/a	n/a	n/a	n/a	n/a	n/a	n/a
149.2433	0.5334	FIXCROSS	n/a	n/a	n/a	n/a	n/a	n/a	n/a	n/a
149.7767	0.5167	INK	53	Neutral	xxxxx	xxxxx	niebieski	blue	hit	n/a
150.259	n/a	RESPONSE	n/a	n/a	n/a	n/a	n/a	n/a	n/a	blue
150.2933	1.0333	ITI	n/a	n/a	n/a	n/a	n/a	n/a	n/a	n/a
151.3267	0.5333	FIXCROSS	n/a	n/a	n/a	n/a	n/a	n/a	n/a	n/a
151.86	0.6	INK	54	Incongruent	niebieski	blue	żółty	yellow	hit	n/a
152.4309	n/a	RESPONSE	n/a	n/a	n/a	n/a	n/a	n/a	n/a	yellow
152.46	1.0333	ITI	n/a	n/a	n/a	n/a	n/a	n/a	n/a	n/a
153.4934	0.5333	FIXCROSS	n/a	n/a	n/a	n/a	n/a	n/a	n/a	n/a
154.0267	0.5833	INK	55	Incongruent	zielony	green	niebieski	blue	hit	n/a
154.5709	n/a	RESPONSE	n/a	n/a	n/a	n/a	n/a	n/a	n/a	blue
154.61	1.0333	ITI	n/a	n/a	n/a	n/a	n/a	n/a	n/a	n/a
155.6434	0.5333	FIXCROSS	n/a	n/a	n/a	n/a	n/a	n/a	n/a	n/a
156.1767	0.6167	INK	56	Incongruent	czerwony	red	niebieski	blue	hit	n/a
156.7588	n/a	RESPONSE	n/a	n/a	n/a	n/a	n/a	n/a	n/a	blue
156.7934	1.0333	ITI	n/a	n/a	n/a	n/a	n/a	n/a	n/a	n/a
157.8267	0.5333	FIXCROSS	n/a	n/a	n/a	n/a	n/a	n/a	n/a	n/a
158.3601	0.4833	INK	57	Neutral	xxxxxxxxx	xxxxxxxxx	zielony	green	hit	n/a
158.8029	n/a	RESPONSE	n/a	n/a	n/a	n/a	n/a	n/a	n/a	green
158.8434	1.0333	ITI	n/a	n/a	n/a	n/a	n/a	n/a	n/a	n/a
159.8768	0.5333	FIXCROSS	n/a	n/a	n/a	n/a	n/a	n/a	n/a	n/a
160.4101	0.4	INK	58	Incongruent	żółty	yellow	czerwony	red	hit	n/a
160.7672	n/a	RESPONSE	n/a	n/a	n/a	n/a	n/a	n/a	n/a	red
160.8101	1.0334	ITI	n/a	n/a	n/a	n/a	n/a	n/a	n/a	n/a
161.8435	0.5333	FIXCROSS	n/a	n/a	n/a	n/a	n/a	n/a	n/a	n/a
162.3768	0.45	INK	59	Neutral	xxxxxxxx	xxxxxxxx	żółty	yellow	hit	n/a
162.7952	n/a	RESPONSE	n/a	n/a	n/a	n/a	n/a	n/a	n/a	yellow
162.8268	1.0334	ITI	n/a	n/a	n/a	n/a	n/a	n/a	n/a	n/a
163.8602	0.5333	FIXCROSS	n/a	n/a	n/a	n/a	n/a	n/a	n/a	n/a
164.3935	0.5667	INK	60	Neutral	xxxxxxx	xxxxxxx	czerwony	red	hit	n/a
164.9192	n/a	RESPONSE	n/a	n/a	n/a	n/a	n/a	n/a	n/a	red
164.9602	1.0333	ITI	n/a	n/a	n/a	n/a	n/a	n/a	n/a	n/a
165.9935	0.5333	FIXCROSS	n/a	n/a	n/a	n/a	n/a	n/a	n/a	n/a
166.5269	0.6833	INK	61	Incongruent	zielony	green	czerwony	red	incorrect	n/a
167.1709	n/a	RESPONSE	n/a	n/a	n/a	n/a	n/a	n/a	n/a	green
167.2102	1.0333	ITI	n/a	n/a	n/a	n/a	n/a	n/a	n/a	n/a
168.2435	0.5333	FIXCROSS	n/a	n/a	n/a	n/a	n/a	n/a	n/a	n/a
168.7769	0.55	INK	62	Neutral	xxxxxxxx	xxxxxxxx	niebieski	blue	hit	n/a
169.2949	n/a	RESPONSE	n/a	n/a	n/a	n/a	n/a	n/a	n/a	blue
169.3269	1.0333	ITI	n/a	n/a	n/a	n/a	n/a	n/a	n/a	n/a
170.3602	0.5333	FIXCROSS	n/a	n/a	n/a	n/a	n/a	n/a	n/a	n/a
170.8936	0.7167	INK	63	Incongruent	niebieski	blue	zielony	green	incorrect	n/a
171.5785	n/a	RESPONSE	n/a	n/a	n/a	n/a	n/a	n/a	n/a	blue
171.6103	1.0333	ITI	n/a	n/a	n/a	n/a	n/a	n/a	n/a	n/a
172.6436	0.5333	FIXCROSS	n/a	n/a	n/a	n/a	n/a	n/a	n/a	n/a
173.1769	0.7	INK	64	Incongruent	zielony	green	czerwony	red	hit	n/a
173.8463	n/a	RESPONSE	n/a	n/a	n/a	n/a	n/a	n/a	n/a	red
173.8769	1.0334	ITI	n/a	n/a	n/a	n/a	n/a	n/a	n/a	n/a
174.9103	0.5333	FIXCROSS	n/a	n/a	n/a	n/a	n/a	n/a	n/a	n/a
175.4436	0.4833	INK	65	Neutral	xxxxx	xxxxx	czerwony	red	hit	n/a
175.8904	n/a	RESPONSE	n/a	n/a	n/a	n/a	n/a	n/a	n/a	red
175.927	1.0333	ITI	n/a	n/a	n/a	n/a	n/a	n/a	n/a	n/a
176.9603	0.5334	FIXCROSS	n/a	n/a	n/a	n/a	n/a	n/a	n/a	n/a
177.4937	0.5167	INK	66	Incongruent	zielony	green	żółty	yellow	hit	n/a
177.9823	n/a	RESPONSE	n/a	n/a	n/a	n/a	n/a	n/a	n/a	yellow
178.0103	1.0333	ITI	n/a	n/a	n/a	n/a	n/a	n/a	n/a	n/a
179.0437	0.5333	FIXCROSS	n/a	n/a	n/a	n/a	n/a	n/a	n/a	n/a
179.577	0.45	INK	67	Neutral	xxxxxxxx	xxxxxxxx	żółty	yellow	hit	n/a
179.9946	n/a	RESPONSE	n/a	n/a	n/a	n/a	n/a	n/a	n/a	yellow
180.027	1.0334	ITI	n/a	n/a	n/a	n/a	n/a	n/a	n/a	n/a
181.0604	0.5333	FIXCROSS	n/a	n/a	n/a	n/a	n/a	n/a	n/a	n/a
181.5937	0.6	INK	68	Incongruent	czerwony	red	żółty	yellow	incorrect	n/a
182.1504	n/a	RESPONSE	n/a	n/a	n/a	n/a	n/a	n/a	n/a	red
182.1937	1.0334	ITI	n/a	n/a	n/a	n/a	n/a	n/a	n/a	n/a
183.2271	0.5333	FIXCROSS	n/a	n/a	n/a	n/a	n/a	n/a	n/a	n/a
183.7604	1.0	INK	69	Neutral	xxxxx	xxxxx	czerwony	red	hit	n/a
184.7215	n/a	RESPONSE	n/a	n/a	n/a	n/a	n/a	n/a	n/a	red
184.7604	1.0333	ITI	n/a	n/a	n/a	n/a	n/a	n/a	n/a	n/a
185.7938	0.5334	FIXCROSS	n/a	n/a	n/a	n/a	n/a	n/a	n/a	n/a
186.3271	0.5667	INK	70	Incongruent	czerwony	red	żółty	yellow	hit	n/a
186.8615	n/a	RESPONSE	n/a	n/a	n/a	n/a	n/a	n/a	n/a	yellow
186.8938	1.0333	ITI	n/a	n/a	n/a	n/a	n/a	n/a	n/a	n/a
187.9271	0.5334	FIXCROSS	n/a	n/a	n/a	n/a	n/a	n/a	n/a	n/a
188.4605	0.5	INK	71	Neutral	xxxxxxxxx	xxxxxxxxx	żółty	yellow	hit	n/a
188.9215	n/a	RESPONSE	n/a	n/a	n/a	n/a	n/a	n/a	n/a	yellow
188.9605	1.0334	ITI	n/a	n/a	n/a	n/a	n/a	n/a	n/a	n/a
189.9938	0.5333	FIXCROSS	n/a	n/a	n/a	n/a	n/a	n/a	n/a	n/a
190.5272	0.5667	INK	72	Neutral	xxxxxxxxx	xxxxxxxxx	czerwony	red	hit	n/a
191.0615	n/a	RESPONSE	n/a	n/a	n/a	n/a	n/a	n/a	n/a	red
191.0938	1.0833	ITI	n/a	n/a	n/a	n/a	n/a	n/a	n/a	n/a
199.9407	n/a	RESPONSE	n/a	n/a	n/a	n/a	n/a	n/a	n/a	n/a
200.0106	1.0	ITI	n/a	n/a	n/a	n/a	n/a	n/a	n/a	n/a
201.0106	0.5	FIXCROSS	n/a	n/a	n/a	n/a	n/a	n/a	n/a	n/a
201.5106	0.5833	T_COLOR_NAME	1	Neutral	niebieski	blue	Neutral	Neutral	hit	n/a
202.0806	n/a	RESPONSE	n/a	n/a	n/a	n/a	n/a	n/a	n/a	blue
202.094	0.5	FEEDBACK	n/a	n/a	n/a	n/a	n/a	n/a	n/a	n/a
202.594	1.0	ITI	n/a	n/a	n/a	n/a	n/a	n/a	n/a	n/a
203.594	0.5	FIXCROSS	n/a	n/a	n/a	n/a	n/a	n/a	n/a	n/a
204.094	0.4834	T_COLOR_NAME	2	Neutral	żółty	yellow	Neutral	Neutral	hit	n/a
204.5719	n/a	RESPONSE	n/a	n/a	n/a	n/a	n/a	n/a	n/a	yellow
204.5773	0.5	FEEDBACK	n/a	n/a	n/a	n/a	n/a	n/a	n/a	n/a
205.0773	1.0	ITI	n/a	n/a	n/a	n/a	n/a	n/a	n/a	n/a
206.0773	0.5	FIXCROSS	n/a	n/a	n/a	n/a	n/a	n/a	n/a	n/a
206.5773	0.3833	T_COLOR_NAME	3	Incongruent	czerwony	red	żółty	yellow	hit	n/a
206.9513	n/a	RESPONSE	n/a	n/a	n/a	n/a	n/a	n/a	n/a	red
206.9607	0.5	FEEDBACK	n/a	n/a	n/a	n/a	n/a	n/a	n/a	n/a
207.4607	1.0	ITI	n/a	n/a	n/a	n/a	n/a	n/a	n/a	n/a
208.4607	0.5	FIXCROSS	n/a	n/a	n/a	n/a	n/a	n/a	n/a	n/a
208.9607	0.5167	T_COLOR_NAME	4	Neutral	żółty	yellow	Neutral	Neutral	hit	n/a
209.4586	n/a	RESPONSE	n/a	n/a	n/a	n/a	n/a	n/a	n/a	yellow
209.4774	0.5	FEEDBACK	n/a	n/a	n/a	n/a	n/a	n/a	n/a	n/a
209.9774	1.0	ITI	n/a	n/a	n/a	n/a	n/a	n/a	n/a	n/a
210.9774	0.5	FIXCROSS	n/a	n/a	n/a	n/a	n/a	n/a	n/a	n/a
211.4774	0.5333	T_COLOR_NAME	5	Incongruent	zielony	green	niebieski	blue	hit	n/a
211.9978	n/a	RESPONSE	n/a	n/a	n/a	n/a	n/a	n/a	n/a	green
212.0108	0.5	FEEDBACK	n/a	n/a	n/a	n/a	n/a	n/a	n/a	n/a
212.5107	1.0	ITI	n/a	n/a	n/a	n/a	n/a	n/a	n/a	n/a
213.5108	0.5	FIXCROSS	n/a	n/a	n/a	n/a	n/a	n/a	n/a	n/a
214.0108	0.5667	T_COLOR_NAME	6	Neutral	zielony	green	Neutral	Neutral	hit	n/a
214.569	n/a	RESPONSE	n/a	n/a	n/a	n/a	n/a	n/a	n/a	green
214.5774	0.5	FEEDBACK	n/a	n/a	n/a	n/a	n/a	n/a	n/a	n/a
215.0775	1.0	ITI	n/a	n/a	n/a	n/a	n/a	n/a	n/a	n/a
216.0775	0.5	FIXCROSS	n/a	n/a	n/a	n/a	n/a	n/a	n/a	n/a
216.5775	0.4167	T_COLOR_NAME	7	Neutral	zielony	green	Neutral	Neutral	hit	n/a
216.9803	n/a	RESPONSE	n/a	n/a	n/a	n/a	n/a	n/a	n/a	green
216.9941	0.5	FEEDBACK	n/a	n/a	n/a	n/a	n/a	n/a	n/a	n/a
217.4941	1.0	ITI	n/a	n/a	n/a	n/a	n/a	n/a	n/a	n/a
218.4942	0.5	FIXCROSS	n/a	n/a	n/a	n/a	n/a	n/a	n/a	n/a
218.9942	0.4167	T_COLOR_NAME	8	Neutral	zielony	green	Neutral	Neutral	hit	n/a
219.3918	n/a	RESPONSE	n/a	n/a	n/a	n/a	n/a	n/a	n/a	green
219.4108	0.5	FEEDBACK	n/a	n/a	n/a	n/a	n/a	n/a	n/a	n/a
219.9108	1.0	ITI	n/a	n/a	n/a	n/a	n/a	n/a	n/a	n/a
220.9109	0.5	FIXCROSS	n/a	n/a	n/a	n/a	n/a	n/a	n/a	n/a
221.4109	0.5167	T_COLOR_NAME	9	Neutral	czerwony	red	Neutral	Neutral	hit	n/a
221.915	n/a	RESPONSE	n/a	n/a	n/a	n/a	n/a	n/a	n/a	red
221.9275	0.5	FEEDBACK	n/a	n/a	n/a	n/a	n/a	n/a	n/a	n/a
222.4275	1.0	ITI	n/a	n/a	n/a	n/a	n/a	n/a	n/a	n/a
223.4276	0.5	FIXCROSS	n/a	n/a	n/a	n/a	n/a	n/a	n/a	n/a
223.9276	0.65	T_COLOR_NAME	10	Neutral	żółty	yellow	Neutral	Neutral	hit	n/a
224.566	n/a	RESPONSE	n/a	n/a	n/a	n/a	n/a	n/a	n/a	yellow
224.5776	0.5	FEEDBACK	n/a	n/a	n/a	n/a	n/a	n/a	n/a	n/a
225.0776	1.0	ITI	n/a	n/a	n/a	n/a	n/a	n/a	n/a	n/a
226.0776	0.5	FIXCROSS	n/a	n/a	n/a	n/a	n/a	n/a	n/a	n/a
226.5776	0.8	T_COLOR_NAME	11	Incongruent	żółty	yellow	czerwony	red	hit	n/a
227.3607	n/a	RESPONSE	n/a	n/a	n/a	n/a	n/a	n/a	n/a	yellow
227.3776	0.5	FEEDBACK	n/a	n/a	n/a	n/a	n/a	n/a	n/a	n/a
227.8776	1.0	ITI	n/a	n/a	n/a	n/a	n/a	n/a	n/a	n/a
228.8776	0.5	FIXCROSS	n/a	n/a	n/a	n/a	n/a	n/a	n/a	n/a
229.3776	0.6167	T_COLOR_NAME	12	Incongruent	niebieski	blue	zielony	green	hit	n/a
229.9797	n/a	RESPONSE	n/a	n/a	n/a	n/a	n/a	n/a	n/a	blue
229.9943	0.5	FEEDBACK	n/a	n/a	n/a	n/a	n/a	n/a	n/a	n/a
230.4943	1.0	ITI	n/a	n/a	n/a	n/a	n/a	n/a	n/a	n/a
234.1957	n/a	RESPONSE	n/a	n/a	n/a	n/a	n/a	n/a	n/a	n/a
234.2277	1.0	ITI	n/a	n/a	n/a	n/a	n/a	n/a	n/a	n/a
235.2277	0.5	FIXCROSS	n/a	n/a	n/a	n/a	n/a	n/a	n/a	n/a
235.7277	0.6333	COLOR_NAME	1	Neutral	zielony	green	Neutral	Neutral	hit	n/a
236.3517	n/a	RESPONSE	n/a	n/a	n/a	n/a	n/a	n/a	n/a	green
236.361	1.0	ITI	n/a	n/a	n/a	n/a	n/a	n/a	n/a	n/a
237.3611	0.5	FIXCROSS	n/a	n/a	n/a	n/a	n/a	n/a	n/a	n/a
237.8611	0.6167	COLOR_NAME	2	Incongruent	niebieski	blue	żółty	yellow	hit	n/a
238.4597	n/a	RESPONSE	n/a	n/a	n/a	n/a	n/a	n/a	n/a	blue
238.4777	1.0	ITI	n/a	n/a	n/a	n/a	n/a	n/a	n/a	n/a
239.4777	0.5	FIXCROSS	n/a	n/a	n/a	n/a	n/a	n/a	n/a	n/a
239.9778	0.5167	COLOR_NAME	3	Neutral	zielony	green	Neutral	Neutral	hit	n/a
240.4878	n/a	RESPONSE	n/a	n/a	n/a	n/a	n/a	n/a	n/a	green
240.4944	1.0	ITI	n/a	n/a	n/a	n/a	n/a	n/a	n/a	n/a
241.4944	0.5	FIXCROSS	n/a	n/a	n/a	n/a	n/a	n/a	n/a	n/a
241.9944	0.55	COLOR_NAME	4	Neutral	zielony	green	Neutral	Neutral	hit	n/a
242.5319	n/a	RESPONSE	n/a	n/a	n/a	n/a	n/a	n/a	n/a	green
242.5445	1.0	ITI	n/a	n/a	n/a	n/a	n/a	n/a	n/a	n/a
243.5445	0.5	FIXCROSS	n/a	n/a	n/a	n/a	n/a	n/a	n/a	n/a
244.0445	0.4667	COLOR_NAME	5	Incongruent	czerwony	red	zielony	green	hit	n/a
244.4961	n/a	RESPONSE	n/a	n/a	n/a	n/a	n/a	n/a	n/a	red
244.5111	1.0167	ITI	n/a	n/a	n/a	n/a	n/a	n/a	n/a	n/a
245.5278	0.5333	FIXCROSS	n/a	n/a	n/a	n/a	n/a	n/a	n/a	n/a
246.0612	0.5167	COLOR_NAME	6	Neutral	czerwony	red	Neutral	Neutral	hit	n/a
246.5402	n/a	RESPONSE	n/a	n/a	n/a	n/a	n/a	n/a	n/a	red
246.5778	1.0334	ITI	n/a	n/a	n/a	n/a	n/a	n/a	n/a	n/a
247.6112	0.5333	FIXCROSS	n/a	n/a	n/a	n/a	n/a	n/a	n/a	n/a
248.1445	0.6167	COLOR_NAME	7	Neutral	niebieski	blue	Neutral	Neutral	hit	n/a
248.7281	n/a	RESPONSE	n/a	n/a	n/a	n/a	n/a	n/a	n/a	blue
248.7612	1.0333	ITI	n/a	n/a	n/a	n/a	n/a	n/a	n/a	n/a
249.7945	0.5333	FIXCROSS	n/a	n/a	n/a	n/a	n/a	n/a	n/a	n/a
250.3279	0.5833	COLOR_NAME	8	Incongruent	żółty	yellow	zielony	green	hit	n/a
250.8679	n/a	RESPONSE	n/a	n/a	n/a	n/a	n/a	n/a	n/a	yellow
250.9112	1.0334	ITI	n/a	n/a	n/a	n/a	n/a	n/a	n/a	n/a
251.9446	0.5333	FIXCROSS	n/a	n/a	n/a	n/a	n/a	n/a	n/a	n/a
252.4779	0.6167	COLOR_NAME	9	Neutral	niebieski	blue	Neutral	Neutral	hit	n/a
253.0558	n/a	RESPONSE	n/a	n/a	n/a	n/a	n/a	n/a	n/a	blue
253.0946	1.0334	ITI	n/a	n/a	n/a	n/a	n/a	n/a	n/a	n/a
254.1279	0.5333	FIXCROSS	n/a	n/a	n/a	n/a	n/a	n/a	n/a	n/a
254.6613	0.5667	COLOR_NAME	10	Neutral	żółty	yellow	Neutral	Neutral	hit	n/a
255.1958	n/a	RESPONSE	n/a	n/a	n/a	n/a	n/a	n/a	n/a	yellow
255.2279	1.0334	ITI	n/a	n/a	n/a	n/a	n/a	n/a	n/a	n/a
256.2613	0.5333	FIXCROSS	n/a	n/a	n/a	n/a	n/a	n/a	n/a	n/a
256.7946	0.65	COLOR_NAME	11	Neutral	czerwony	red	Neutral	Neutral	hit	n/a
257.4156	n/a	RESPONSE	n/a	n/a	n/a	n/a	n/a	n/a	n/a	red
257.4446	1.0333	ITI	n/a	n/a	n/a	n/a	n/a	n/a	n/a	n/a
258.478	0.5333	FIXCROSS	n/a	n/a	n/a	n/a	n/a	n/a	n/a	n/a
259.0113	1.2834	COLOR_NAME	12	Incongruent	żółty	yellow	czerwony	red	hit	n/a
260.2581	n/a	RESPONSE	n/a	n/a	n/a	n/a	n/a	n/a	n/a	yellow
260.2947	1.0333	ITI	n/a	n/a	n/a	n/a	n/a	n/a	n/a	n/a
261.328	0.5333	FIXCROSS	n/a	n/a	n/a	n/a	n/a	n/a	n/a	n/a
261.8614	0.5667	COLOR_NAME	13	Incongruent	czerwony	red	niebieski	blue	hit	n/a
262.3981	n/a	RESPONSE	n/a	n/a	n/a	n/a	n/a	n/a	n/a	red
262.428	1.0333	ITI	n/a	n/a	n/a	n/a	n/a	n/a	n/a	n/a
263.4614	0.5333	FIXCROSS	n/a	n/a	n/a	n/a	n/a	n/a	n/a	n/a
263.9947	0.6	COLOR_NAME	14	Incongruent	niebieski	blue	czerwony	red	hit	n/a
264.554	n/a	RESPONSE	n/a	n/a	n/a	n/a	n/a	n/a	n/a	blue
264.5947	1.0334	ITI	n/a	n/a	n/a	n/a	n/a	n/a	n/a	n/a
265.6281	0.5333	FIXCROSS	n/a	n/a	n/a	n/a	n/a	n/a	n/a	n/a
266.1614	0.55	COLOR_NAME	15	Neutral	zielony	green	Neutral	Neutral	hit	n/a
266.678	n/a	RESPONSE	n/a	n/a	n/a	n/a	n/a	n/a	n/a	green
266.7114	1.0333	ITI	n/a	n/a	n/a	n/a	n/a	n/a	n/a	n/a
267.7448	0.5333	FIXCROSS	n/a	n/a	n/a	n/a	n/a	n/a	n/a	n/a
268.2781	0.6	COLOR_NAME	16	Neutral	niebieski	blue	Neutral	Neutral	hit	n/a
268.8339	n/a	RESPONSE	n/a	n/a	n/a	n/a	n/a	n/a	n/a	blue
268.8781	1.0333	ITI	n/a	n/a	n/a	n/a	n/a	n/a	n/a	n/a
269.9115	0.5334	FIXCROSS	n/a	n/a	n/a	n/a	n/a	n/a	n/a	n/a
270.4448	0.6	COLOR_NAME	17	Incongruent	zielony	green	czerwony	red	hit	n/a
271.0058	n/a	RESPONSE	n/a	n/a	n/a	n/a	n/a	n/a	n/a	green
271.0448	1.0333	ITI	n/a	n/a	n/a	n/a	n/a	n/a	n/a	n/a
272.0782	0.5333	FIXCROSS	n/a	n/a	n/a	n/a	n/a	n/a	n/a	n/a
272.6115	0.65	COLOR_NAME	18	Incongruent	niebieski	blue	żółty	yellow	hit	n/a
273.2255	n/a	RESPONSE	n/a	n/a	n/a	n/a	n/a	n/a	n/a	blue
273.2615	1.0333	ITI	n/a	n/a	n/a	n/a	n/a	n/a	n/a	n/a
274.2948	0.5333	FIXCROSS	n/a	n/a	n/a	n/a	n/a	n/a	n/a	n/a
274.8282	0.5	COLOR_NAME	19	Neutral	niebieski	blue	Neutral	Neutral	hit	n/a
275.2856	n/a	RESPONSE	n/a	n/a	n/a	n/a	n/a	n/a	n/a	blue
275.3282	1.0333	ITI	n/a	n/a	n/a	n/a	n/a	n/a	n/a	n/a
276.3615	0.5333	FIXCROSS	n/a	n/a	n/a	n/a	n/a	n/a	n/a	n/a
276.8949	0.5167	COLOR_NAME	20	Neutral	żółty	yellow	Neutral	Neutral	hit	n/a
277.3776	n/a	RESPONSE	n/a	n/a	n/a	n/a	n/a	n/a	n/a	yellow
277.4116	1.0333	ITI	n/a	n/a	n/a	n/a	n/a	n/a	n/a	n/a
278.4449	0.5333	FIXCROSS	n/a	n/a	n/a	n/a	n/a	n/a	n/a	n/a
278.9782	0.5167	COLOR_NAME	21	Incongruent	niebieski	blue	żółty	yellow	hit	n/a
279.4537	n/a	RESPONSE	n/a	n/a	n/a	n/a	n/a	n/a	n/a	blue
279.4949	1.0334	ITI	n/a	n/a	n/a	n/a	n/a	n/a	n/a	n/a
280.5283	0.5333	FIXCROSS	n/a	n/a	n/a	n/a	n/a	n/a	n/a	n/a
281.0616	0.7	COLOR_NAME	22	Incongruent	zielony	green	czerwony	red	hit	n/a
281.7213	n/a	RESPONSE	n/a	n/a	n/a	n/a	n/a	n/a	n/a	green
281.7616	1.0333	ITI	n/a	n/a	n/a	n/a	n/a	n/a	n/a	n/a
282.795	0.5333	FIXCROSS	n/a	n/a	n/a	n/a	n/a	n/a	n/a	n/a
283.3283	0.4833	COLOR_NAME	23	Incongruent	zielony	green	żółty	yellow	hit	n/a
283.7815	n/a	RESPONSE	n/a	n/a	n/a	n/a	n/a	n/a	n/a	green
283.8116	1.0333	ITI	n/a	n/a	n/a	n/a	n/a	n/a	n/a	n/a
284.845	0.5334	FIXCROSS	n/a	n/a	n/a	n/a	n/a	n/a	n/a	n/a
285.3783	0.5167	COLOR_NAME	24	Neutral	zielony	green	Neutral	Neutral	hit	n/a
285.8575	n/a	RESPONSE	n/a	n/a	n/a	n/a	n/a	n/a	n/a	green
285.895	1.0333	ITI	n/a	n/a	n/a	n/a	n/a	n/a	n/a	n/a
286.9283	0.5333	FIXCROSS	n/a	n/a	n/a	n/a	n/a	n/a	n/a	n/a
287.4617	0.4667	COLOR_NAME	25	Incongruent	zielony	green	żółty	yellow	hit	n/a
287.8857	n/a	RESPONSE	n/a	n/a	n/a	n/a	n/a	n/a	n/a	green
287.9284	1.0333	ITI	n/a	n/a	n/a	n/a	n/a	n/a	n/a	n/a
288.9617	0.5333	FIXCROSS	n/a	n/a	n/a	n/a	n/a	n/a	n/a	n/a
289.495	0.4833	COLOR_NAME	26	Incongruent	czerwony	red	zielony	green	hit	n/a
289.9458	n/a	RESPONSE	n/a	n/a	n/a	n/a	n/a	n/a	n/a	red
289.9784	1.0333	ITI	n/a	n/a	n/a	n/a	n/a	n/a	n/a	n/a
291.0117	0.5333	FIXCROSS	n/a	n/a	n/a	n/a	n/a	n/a	n/a	n/a
291.5451	0.5	COLOR_NAME	27	Neutral	żółty	yellow	Neutral	Neutral	hit	n/a
292.0058	n/a	RESPONSE	n/a	n/a	n/a	n/a	n/a	n/a	n/a	yellow
292.0451	1.0333	ITI	n/a	n/a	n/a	n/a	n/a	n/a	n/a	n/a
293.0784	0.5333	FIXCROSS	n/a	n/a	n/a	n/a	n/a	n/a	n/a	n/a
293.6118	0.5333	COLOR_NAME	28	Incongruent	żółty	yellow	zielony	green	hit	n/a
294.1137	n/a	RESPONSE	n/a	n/a	n/a	n/a	n/a	n/a	n/a	yellow
294.1451	1.0333	ITI	n/a	n/a	n/a	n/a	n/a	n/a	n/a	n/a
295.1784	0.5334	FIXCROSS	n/a	n/a	n/a	n/a	n/a	n/a	n/a	n/a
295.7118	0.45	COLOR_NAME	29	Incongruent	niebieski	blue	zielony	green	hit	n/a
296.126	n/a	RESPONSE	n/a	n/a	n/a	n/a	n/a	n/a	n/a	blue
296.1618	1.0333	ITI	n/a	n/a	n/a	n/a	n/a	n/a	n/a	n/a
297.1951	0.5334	FIXCROSS	n/a	n/a	n/a	n/a	n/a	n/a	n/a	n/a
297.7285	0.45	COLOR_NAME	30	Incongruent	niebieski	blue	czerwony	red	hit	n/a
298.1382	n/a	RESPONSE	n/a	n/a	n/a	n/a	n/a	n/a	n/a	blue
298.1785	1.0333	ITI	n/a	n/a	n/a	n/a	n/a	n/a	n/a	n/a
299.2118	0.5333	FIXCROSS	n/a	n/a	n/a	n/a	n/a	n/a	n/a	n/a
299.7452	0.4667	COLOR_NAME	31	Incongruent	zielony	green	niebieski	blue	hit	n/a
300.1822	n/a	RESPONSE	n/a	n/a	n/a	n/a	n/a	n/a	n/a	green
300.2118	1.0333	ITI	n/a	n/a	n/a	n/a	n/a	n/a	n/a	n/a
301.2452	0.5333	FIXCROSS	n/a	n/a	n/a	n/a	n/a	n/a	n/a	n/a
301.7785	0.65	COLOR_NAME	32	Neutral	żółty	yellow	Neutral	Neutral	hit	n/a
302.3861	n/a	RESPONSE	n/a	n/a	n/a	n/a	n/a	n/a	n/a	yellow
302.4285	1.0333	ITI	n/a	n/a	n/a	n/a	n/a	n/a	n/a	n/a
303.4619	0.5333	FIXCROSS	n/a	n/a	n/a	n/a	n/a	n/a	n/a	n/a
303.9952	0.4833	COLOR_NAME	33	Incongruent	czerwony	red	niebieski	blue	hit	n/a
304.4462	n/a	RESPONSE	n/a	n/a	n/a	n/a	n/a	n/a	n/a	red
304.4786	1.0333	ITI	n/a	n/a	n/a	n/a	n/a	n/a	n/a	n/a
305.5119	0.5333	FIXCROSS	n/a	n/a	n/a	n/a	n/a	n/a	n/a	n/a
306.0453	0.4667	COLOR_NAME	34	Neutral	czerwony	red	Neutral	Neutral	hit	n/a
306.4743	n/a	RESPONSE	n/a	n/a	n/a	n/a	n/a	n/a	n/a	red
306.5119	1.0333	ITI	n/a	n/a	n/a	n/a	n/a	n/a	n/a	n/a
307.5453	0.5333	FIXCROSS	n/a	n/a	n/a	n/a	n/a	n/a	n/a	n/a
308.0786	0.7	COLOR_NAME	35	Neutral	zielony	green	Neutral	Neutral	hit	n/a
308.7419	n/a	RESPONSE	n/a	n/a	n/a	n/a	n/a	n/a	n/a	green
308.7786	1.0333	ITI	n/a	n/a	n/a	n/a	n/a	n/a	n/a	n/a
309.812	0.5333	FIXCROSS	n/a	n/a	n/a	n/a	n/a	n/a	n/a	n/a
310.3453	0.5167	COLOR_NAME	36	Incongruent	żółty	yellow	zielony	green	hit	n/a
310.834	n/a	RESPONSE	n/a	n/a	n/a	n/a	n/a	n/a	n/a	yellow
310.862	1.0333	ITI	n/a	n/a	n/a	n/a	n/a	n/a	n/a	n/a
311.8953	0.5333	FIXCROSS	n/a	n/a	n/a	n/a	n/a	n/a	n/a	n/a
312.4287	0.5833	COLOR_NAME	37	Incongruent	żółty	yellow	czerwony	red	hit	n/a
312.9738	n/a	RESPONSE	n/a	n/a	n/a	n/a	n/a	n/a	n/a	yellow
313.012	1.0333	ITI	n/a	n/a	n/a	n/a	n/a	n/a	n/a	n/a
314.0453	0.5333	FIXCROSS	n/a	n/a	n/a	n/a	n/a	n/a	n/a	n/a
314.5787	0.5	COLOR_NAME	38	Neutral	niebieski	blue	Neutral	Neutral	hit	n/a
315.05	n/a	RESPONSE	n/a	n/a	n/a	n/a	n/a	n/a	n/a	blue
315.0787	1.0334	ITI	n/a	n/a	n/a	n/a	n/a	n/a	n/a	n/a
316.112	0.5333	FIXCROSS	n/a	n/a	n/a	n/a	n/a	n/a	n/a	n/a
316.6454	0.5333	COLOR_NAME	39	Neutral	niebieski	blue	Neutral	Neutral	hit	n/a
317.142	n/a	RESPONSE	n/a	n/a	n/a	n/a	n/a	n/a	n/a	blue
317.1787	1.0333	ITI	n/a	n/a	n/a	n/a	n/a	n/a	n/a	n/a
318.2121	0.5333	FIXCROSS	n/a	n/a	n/a	n/a	n/a	n/a	n/a	n/a
318.7454	0.5167	COLOR_NAME	40	Neutral	czerwony	red	Neutral	Neutral	hit	n/a
319.2341	n/a	RESPONSE	n/a	n/a	n/a	n/a	n/a	n/a	n/a	red
319.2621	1.0333	ITI	n/a	n/a	n/a	n/a	n/a	n/a	n/a	n/a
320.2954	0.5333	FIXCROSS	n/a	n/a	n/a	n/a	n/a	n/a	n/a	n/a
320.8288	0.5333	COLOR_NAME	41	Neutral	zielony	green	Neutral	Neutral	hit	n/a
321.3261	n/a	RESPONSE	n/a	n/a	n/a	n/a	n/a	n/a	n/a	green
321.3621	1.0333	ITI	n/a	n/a	n/a	n/a	n/a	n/a	n/a	n/a
322.3954	0.5333	FIXCROSS	n/a	n/a	n/a	n/a	n/a	n/a	n/a	n/a
322.9288	0.55	COLOR_NAME	42	Neutral	żółty	yellow	Neutral	Neutral	hit	n/a
323.45	n/a	RESPONSE	n/a	n/a	n/a	n/a	n/a	n/a	n/a	yellow
323.4788	1.0333	ITI	n/a	n/a	n/a	n/a	n/a	n/a	n/a	n/a
324.5121	0.5333	FIXCROSS	n/a	n/a	n/a	n/a	n/a	n/a	n/a	n/a
325.0455	0.65	COLOR_NAME	43	Neutral	czerwony	red	Neutral	Neutral	hit	n/a
325.6538	n/a	RESPONSE	n/a	n/a	n/a	n/a	n/a	n/a	n/a	red
325.6955	1.0333	ITI	n/a	n/a	n/a	n/a	n/a	n/a	n/a	n/a
326.7288	0.5333	FIXCROSS	n/a	n/a	n/a	n/a	n/a	n/a	n/a	n/a
327.2622	0.55	COLOR_NAME	44	Incongruent	czerwony	red	niebieski	blue	hit	n/a
327.7778	n/a	RESPONSE	n/a	n/a	n/a	n/a	n/a	n/a	n/a	red
327.8122	1.0333	ITI	n/a	n/a	n/a	n/a	n/a	n/a	n/a	n/a
328.8455	0.5333	FIXCROSS	n/a	n/a	n/a	n/a	n/a	n/a	n/a	n/a
329.3789	0.6333	COLOR_NAME	45	Incongruent	zielony	green	czerwony	red	hit	n/a
329.9815	n/a	RESPONSE	n/a	n/a	n/a	n/a	n/a	n/a	n/a	green
330.0122	1.0333	ITI	n/a	n/a	n/a	n/a	n/a	n/a	n/a	n/a
331.0456	0.5333	FIXCROSS	n/a	n/a	n/a	n/a	n/a	n/a	n/a	n/a
331.5789	0.4667	COLOR_NAME	46	Neutral	niebieski	blue	Neutral	Neutral	hit	n/a
332.0097	n/a	RESPONSE	n/a	n/a	n/a	n/a	n/a	n/a	n/a	blue
332.0456	1.0333	ITI	n/a	n/a	n/a	n/a	n/a	n/a	n/a	n/a
333.0789	0.5333	FIXCROSS	n/a	n/a	n/a	n/a	n/a	n/a	n/a	n/a
333.6122	0.5333	COLOR_NAME	47	Incongruent	żółty	yellow	czerwony	red	hit	n/a
334.1017	n/a	RESPONSE	n/a	n/a	n/a	n/a	n/a	n/a	n/a	yellow
334.1456	1.0334	ITI	n/a	n/a	n/a	n/a	n/a	n/a	n/a	n/a
335.1789	0.5333	FIXCROSS	n/a	n/a	n/a	n/a	n/a	n/a	n/a	n/a
335.7123	0.6	COLOR_NAME	48	Neutral	czerwony	red	Neutral	Neutral	hit	n/a
336.2736	n/a	RESPONSE	n/a	n/a	n/a	n/a	n/a	n/a	n/a	red
336.3123	1.0333	ITI	n/a	n/a	n/a	n/a	n/a	n/a	n/a	n/a
337.3456	0.5333	FIXCROSS	n/a	n/a	n/a	n/a	n/a	n/a	n/a	n/a
337.879	0.6	COLOR_NAME	49	Incongruent	żółty	yellow	niebieski	blue	hit	n/a
338.4454	n/a	RESPONSE	n/a	n/a	n/a	n/a	n/a	n/a	n/a	yellow
338.479	1.0334	ITI	n/a	n/a	n/a	n/a	n/a	n/a	n/a	n/a
339.5123	0.5333	FIXCROSS	n/a	n/a	n/a	n/a	n/a	n/a	n/a	n/a
340.0457	0.5333	COLOR_NAME	50	Neutral	czerwony	red	Neutral	Neutral	hit	n/a
340.5374	n/a	RESPONSE	n/a	n/a	n/a	n/a	n/a	n/a	n/a	red
340.579	1.0334	ITI	n/a	n/a	n/a	n/a	n/a	n/a	n/a	n/a
341.6123	0.5333	FIXCROSS	n/a	n/a	n/a	n/a	n/a	n/a	n/a	n/a
342.1457	0.5333	COLOR_NAME	51	Incongruent	niebieski	blue	zielony	green	hit	n/a
342.6454	n/a	RESPONSE	n/a	n/a	n/a	n/a	n/a	n/a	n/a	blue
342.679	1.0333	ITI	n/a	n/a	n/a	n/a	n/a	n/a	n/a	n/a
343.7124	0.5333	FIXCROSS	n/a	n/a	n/a	n/a	n/a	n/a	n/a	n/a
344.2457	0.6834	COLOR_NAME	52	Incongruent	czerwony	red	zielony	green	hit	n/a
344.8971	n/a	RESPONSE	n/a	n/a	n/a	n/a	n/a	n/a	n/a	red
344.9291	1.0333	ITI	n/a	n/a	n/a	n/a	n/a	n/a	n/a	n/a
345.9624	0.5333	FIXCROSS	n/a	n/a	n/a	n/a	n/a	n/a	n/a	n/a
346.4957	0.5333	COLOR_NAME	53	Neutral	czerwony	red	Neutral	Neutral	hit	n/a
346.9891	n/a	RESPONSE	n/a	n/a	n/a	n/a	n/a	n/a	n/a	red
347.0291	1.0333	ITI	n/a	n/a	n/a	n/a	n/a	n/a	n/a	n/a
348.0624	0.5333	FIXCROSS	n/a	n/a	n/a	n/a	n/a	n/a	n/a	n/a
348.5958	0.5833	COLOR_NAME	54	Neutral	zielony	green	Neutral	Neutral	hit	n/a
349.1451	n/a	RESPONSE	n/a	n/a	n/a	n/a	n/a	n/a	n/a	green
349.1791	1.0334	ITI	n/a	n/a	n/a	n/a	n/a	n/a	n/a	n/a
350.2125	0.5333	FIXCROSS	n/a	n/a	n/a	n/a	n/a	n/a	n/a	n/a
350.7458	0.5833	COLOR_NAME	55	Neutral	żółty	yellow	Neutral	Neutral	hit	n/a
351.301	n/a	RESPONSE	n/a	n/a	n/a	n/a	n/a	n/a	n/a	yellow
351.3291	1.0333	ITI	n/a	n/a	n/a	n/a	n/a	n/a	n/a	n/a
352.3625	0.5333	FIXCROSS	n/a	n/a	n/a	n/a	n/a	n/a	n/a	n/a
352.8958	0.9333	COLOR_NAME	56	Incongruent	zielony	green	żółty	yellow	hit	n/a
353.7922	n/a	RESPONSE	n/a	n/a	n/a	n/a	n/a	n/a	n/a	green
353.8292	1.0333	ITI	n/a	n/a	n/a	n/a	n/a	n/a	n/a	n/a
354.8625	0.5333	FIXCROSS	n/a	n/a	n/a	n/a	n/a	n/a	n/a	n/a
355.3959	0.5667	COLOR_NAME	57	Neutral	żółty	yellow	Neutral	Neutral	hit	n/a
355.9322	n/a	RESPONSE	n/a	n/a	n/a	n/a	n/a	n/a	n/a	yellow
355.9625	1.0333	ITI	n/a	n/a	n/a	n/a	n/a	n/a	n/a	n/a
356.9959	0.5333	FIXCROSS	n/a	n/a	n/a	n/a	n/a	n/a	n/a	n/a
357.5292	0.6333	COLOR_NAME	58	Neutral	zielony	green	Neutral	Neutral	hit	n/a
358.1199	n/a	RESPONSE	n/a	n/a	n/a	n/a	n/a	n/a	n/a	green
358.1625	1.0334	ITI	n/a	n/a	n/a	n/a	n/a	n/a	n/a	n/a
359.1959	0.5333	FIXCROSS	n/a	n/a	n/a	n/a	n/a	n/a	n/a	n/a
359.7292	0.5833	COLOR_NAME	59	Incongruent	niebieski	blue	czerwony	red	hit	n/a
360.2759	n/a	RESPONSE	n/a	n/a	n/a	n/a	n/a	n/a	n/a	blue
360.3126	1.0333	ITI	n/a	n/a	n/a	n/a	n/a	n/a	n/a	n/a
361.3459	0.5333	FIXCROSS	n/a	n/a	n/a	n/a	n/a	n/a	n/a	n/a
361.8793	0.5333	COLOR_NAME	60	Incongruent	niebieski	blue	zielony	green	hit	n/a
362.3839	n/a	RESPONSE	n/a	n/a	n/a	n/a	n/a	n/a	n/a	blue
362.4126	1.0333	ITI	n/a	n/a	n/a	n/a	n/a	n/a	n/a	n/a
363.4459	0.5333	FIXCROSS	n/a	n/a	n/a	n/a	n/a	n/a	n/a	n/a
363.9793	0.55	COLOR_NAME	61	Neutral	żółty	yellow	Neutral	Neutral	hit	n/a
364.4919	n/a	RESPONSE	n/a	n/a	n/a	n/a	n/a	n/a	n/a	yellow
364.5293	1.0334	ITI	n/a	n/a	n/a	n/a	n/a	n/a	n/a	n/a
365.5626	0.5333	FIXCROSS	n/a	n/a	n/a	n/a	n/a	n/a	n/a	n/a
366.096	0.6167	COLOR_NAME	62	Incongruent	zielony	green	niebieski	blue	hit	n/a
366.6797	n/a	RESPONSE	n/a	n/a	n/a	n/a	n/a	n/a	n/a	green
366.7126	1.0334	ITI	n/a	n/a	n/a	n/a	n/a	n/a	n/a	n/a
367.746	0.5333	FIXCROSS	n/a	n/a	n/a	n/a	n/a	n/a	n/a	n/a
368.2793	0.6333	COLOR_NAME	63	Incongruent	zielony	green	niebieski	blue	hit	n/a
368.8834	n/a	RESPONSE	n/a	n/a	n/a	n/a	n/a	n/a	n/a	green
368.9127	1.0333	ITI	n/a	n/a	n/a	n/a	n/a	n/a	n/a	n/a
369.946	0.5333	FIXCROSS	n/a	n/a	n/a	n/a	n/a	n/a	n/a	n/a
370.4794	0.5167	COLOR_NAME	64	Neutral	czerwony	red	Neutral	Neutral	hit	n/a
370.9594	n/a	RESPONSE	n/a	n/a	n/a	n/a	n/a	n/a	n/a	red
370.996	1.0333	ITI	n/a	n/a	n/a	n/a	n/a	n/a	n/a	n/a
372.0294	0.5333	FIXCROSS	n/a	n/a	n/a	n/a	n/a	n/a	n/a	n/a
372.5627	0.6333	COLOR_NAME	65	Incongruent	czerwony	red	żółty	yellow	hit	n/a
373.1633	n/a	RESPONSE	n/a	n/a	n/a	n/a	n/a	n/a	n/a	red
373.1961	1.0333	ITI	n/a	n/a	n/a	n/a	n/a	n/a	n/a	n/a
374.2294	0.5333	FIXCROSS	n/a	n/a	n/a	n/a	n/a	n/a	n/a	n/a
374.7627	0.5833	COLOR_NAME	66	Incongruent	żółty	yellow	niebieski	blue	hit	n/a
375.3032	n/a	RESPONSE	n/a	n/a	n/a	n/a	n/a	n/a	n/a	yellow
375.3461	1.0333	ITI	n/a	n/a	n/a	n/a	n/a	n/a	n/a	n/a
376.3794	0.5334	FIXCROSS	n/a	n/a	n/a	n/a	n/a	n/a	n/a	n/a
376.9128	0.4833	COLOR_NAME	67	Neutral	niebieski	blue	Neutral	Neutral	hit	n/a
377.3633	n/a	RESPONSE	n/a	n/a	n/a	n/a	n/a	n/a	n/a	blue
377.3961	1.0333	ITI	n/a	n/a	n/a	n/a	n/a	n/a	n/a	n/a
378.4295	0.5333	FIXCROSS	n/a	n/a	n/a	n/a	n/a	n/a	n/a	n/a
378.9628	0.5667	COLOR_NAME	68	Neutral	niebieski	blue	Neutral	Neutral	hit	n/a
379.4873	n/a	RESPONSE	n/a	n/a	n/a	n/a	n/a	n/a	n/a	blue
379.5295	1.0333	ITI	n/a	n/a	n/a	n/a	n/a	n/a	n/a	n/a
380.5628	0.5333	FIXCROSS	n/a	n/a	n/a	n/a	n/a	n/a	n/a	n/a
381.0962	0.65	COLOR_NAME	69	Incongruent	czerwony	red	żółty	yellow	hit	n/a
381.707	n/a	RESPONSE	n/a	n/a	n/a	n/a	n/a	n/a	n/a	red
381.7462	1.0333	ITI	n/a	n/a	n/a	n/a	n/a	n/a	n/a	n/a
382.7795	0.5333	FIXCROSS	n/a	n/a	n/a	n/a	n/a	n/a	n/a	n/a
383.3129	0.5333	COLOR_NAME	70	Neutral	żółty	yellow	Neutral	Neutral	hit	n/a
383.815	n/a	RESPONSE	n/a	n/a	n/a	n/a	n/a	n/a	n/a	yellow
383.8462	1.0333	ITI	n/a	n/a	n/a	n/a	n/a	n/a	n/a	n/a
384.8795	0.5333	FIXCROSS	n/a	n/a	n/a	n/a	n/a	n/a	n/a	n/a
385.4129	0.45	COLOR_NAME	71	Incongruent	żółty	yellow	niebieski	blue	hit	n/a
385.8272	n/a	RESPONSE	n/a	n/a	n/a	n/a	n/a	n/a	n/a	yellow
385.8629	1.0333	ITI	n/a	n/a	n/a	n/a	n/a	n/a	n/a	n/a
386.8962	0.5333	FIXCROSS	n/a	n/a	n/a	n/a	n/a	n/a	n/a	n/a
387.4296	0.4834	COLOR_NAME	72	Incongruent	czerwony	red	żółty	yellow	hit	n/a
387.8713	n/a	RESPONSE	n/a	n/a	n/a	n/a	n/a	n/a	n/a	red
387.9129	1.05	ITI	n/a	n/a	n/a	n/a	n/a	n/a	n/a	n/a
391.177	n/a	RESPONSE	n/a	n/a	n/a	n/a	n/a	n/a	n/a	n/a
