onset	duration	trial_type	melody_number	melody_part	key	sound	action
0.0	14.088	CUE_START	n/a	n/a	n/a	n/a	n/a
14.088	7.76	FIXCROSS	n/a	n/a	n/a	n/a	n/a
17.742	n/a	RESPONSE	        n/a	n/a	07	G3	press
21.848	6.315	CUE_LISTEN	M1	1	n/a	n/a	n/a
23.0	n/a	RESPONSE	n/a	n/a	07	G3	release
28.163	7.758	FIXCROSS	n/a	n/a	n/a	n/a	n/a
35.922	6.317	CUE_PLAYBACK_RIGHT_HAND	M1	1	n/a	n/a	n/a
36.687	n/a	RESPONSE	M1	1	19	G4	press
37.268	n/a	RESPONSE	M1	1	16	E4	press
37.56	n/a	RESPONSE	M1	1	16	E4	release
37.6	n/a	RESPONSE	M1	1	19	G4	release
37.832	n/a	RESPONSE	M1	1	16	E4	press
38.323	n/a	RESPONSE	M1	1	16	E4	release
38.374	n/a	RESPONSE	M1	1	19	G4	press
38.738	n/a	RESPONSE	M1	1	19	G4	release
39.109	n/a	RESPONSE	M1	1	19	G4	press
39.448	n/a	RESPONSE	M1	1	16	E4	press
39.562	n/a	RESPONSE	M1	1	19	G4	release
39.68	n/a	RESPONSE	M1	1	16	E4	release
39.863	n/a	RESPONSE	M1	1	16	E4	press
40.253	n/a	RESPONSE	M1	1	16	E4	release
40.324	n/a	RESPONSE	M1	1	12	C4	press
40.697	n/a	RESPONSE	M1	1	12	C4	release
40.817	n/a	RESPONSE	M1	1	17	F4	press
41.278	n/a	RESPONSE	M1	1	16	E4	press
41.409	n/a	RESPONSE	M1	1	17	F4	release
41.519	n/a	RESPONSE	M1	1	16	E4	release
41.938	n/a	RESPONSE	M1	1	19	G4	press
42.238	7.758	FIXCROSS	n/a	n/a	n/a	n/a	n/a
42.287	n/a	RESPONSE	M1	1	16	E4	press
42.366	n/a	RESPONSE	M1	1	19	G4	release
42.614	n/a	RESPONSE	M1	1	16	E4	release
49.997	6.325	CUE_LISTEN	        M1	2	n/a	n/a	n/a
56.322	7.758	FIXCROSS	n/a	n/a	n/a	n/a	n/a
64.08	6.317	CUE_PLAYBACK_RIGHT_HAND	        M1	2	n/a	n/a	n/a
64.574	n/a	RESPONSE	        M1	2	19	G4	press
65.035	n/a	RESPONSE	        M1	2	16	E4	press
65.145	n/a	RESPONSE	        M1	2	19	G4	release
65.338	n/a	RESPONSE	        M1	2	16	E4	release
65.509	n/a	RESPONSE	        M1	2	16	E4	press
65.963	n/a	RESPONSE	        M1	2	16	E4	release
65.972	n/a	RESPONSE	        M1	2	17	F4	press
66.425	n/a	RESPONSE	        M1	2	14	D4	press
66.534	n/a	RESPONSE	        M1	2	17	F4	release
66.675	n/a	RESPONSE	        M1	2	14	D4	release
66.877	n/a	RESPONSE	        M1	2	14	D4	press
67.168	n/a	RESPONSE	        M1	2	14	D4	release
67.282	n/a	RESPONSE	        M1	2	12	C4	press
67.523	n/a	RESPONSE	        M1	2	16	E4	press
67.593	n/a	RESPONSE	        M1	2	12	C4	release
67.773	n/a	RESPONSE	        M1	2	12	C4	press
67.957	n/a	RESPONSE	        M1	2	16	E4	release
68.256	n/a	RESPONSE	        M1	2	12	C4	release
70.397	7.758	FIXCROSS	n/a	n/a	n/a	n/a	n/a
78.155	6.317	CUE_LISTEN	        M7	1	n/a	n/a	n/a
84.472	7.758	FIXCROSS	n/a	n/a	n/a	n/a	n/a
92.23	6.325	CUE_PLAYBACK_BOTH_HANDS	        M7	1	n/a	n/a	n/a
93.099	n/a	RESPONSE	        M7	1	07	G3	press
93.123	n/a	RESPONSE	        M7	1	22	A#4	press
93.648	n/a	RESPONSE	        M7	1	21	A4	press
94.183	n/a	RESPONSE	        M7	1	22	A#4	release
94.192	n/a	RESPONSE	        M7	1	19	G4	press
94.264	n/a	RESPONSE	        M7	1	21	A4	release
94.708	n/a	RESPONSE	        M7	1	05	F3	press
94.717	n/a	RESPONSE	        M7	1	21	A4	press
94.795	n/a	RESPONSE	        M7	1	07	G3	release
94.804	n/a	RESPONSE	        M7	1	19	G4	release
95.254	n/a	RESPONSE	        M7	1	14	D4	press
95.556	n/a	RESPONSE	        M7	1	21	A4	release
95.569	n/a	RESPONSE	        M7	1	14	D4	release
95.82	n/a	RESPONSE	        M7	1	14	D4	press
96.379	n/a	RESPONSE	        M7	1	03	D#3	press
96.383	n/a	RESPONSE	        M7	1	19	G4	press
96.424	n/a	RESPONSE	        M7	1	05	F3	release
96.455	n/a	RESPONSE	        M7	1	14	D4	release
97.024	n/a	RESPONSE	        M7	1	09	A3	press
97.296	n/a	RESPONSE	        M7	1	19	G4	release
97.497	n/a	RESPONSE	        M7	1	09	A3	release
97.648	n/a	RESPONSE	        M7	1	07	G3	press
97.999	n/a	RESPONSE	        M7	1	09	A3	press
98.002	n/a	RESPONSE	        M7	1	07	G3	release
98.342	n/a	RESPONSE	        M7	1	10	A#3	press
98.475	n/a	RESPONSE	        M7	1	09	A3	release
98.555	7.758	FIXCROSS	n/a	n/a	n/a	n/a	n/a
98.584	n/a	RESPONSE	        M7	1	12	C4	press
98.665	n/a	RESPONSE	        M7	1	10	A#3	release
98.957	n/a	RESPONSE	        M7	1	14	D4	press
99.158	n/a	RESPONSE	        M7	1	12	C4	release
99.749	n/a	RESPONSE	        M7	1	03	D#3	release
100.04	n/a	RESPONSE	        M7	1	14	D4	release
106.314	6.317	CUE_LISTEN	        M7	2	n/a	n/a	n/a
112.63	7.758	FIXCROSS	n/a	n/a	n/a	n/a	n/a
120.389	6.317	CUE_PLAYBACK_BOTH_HANDS	        M7	2	n/a	n/a	n/a
120.829	n/a	RESPONSE	        M7	2	07	G3	press
120.87	n/a	RESPONSE	        M7	2	10	A#3	press
120.874	n/a	RESPONSE	        M7	2	15	D#4	press
121.403	n/a	RESPONSE	        M7	2	17	F4	press
121.474	n/a	RESPONSE	        M7	2	15	D#4	release
121.708	n/a	RESPONSE	        M7	2	15	D#4	press
121.773	n/a	RESPONSE	        M7	2	17	F4	release
122.017	n/a	RESPONSE	        M7	2	14	D4	press
122.019	n/a	RESPONSE	        M7	2	09	A3	press
122.054	n/a	RESPONSE	        M7	2	10	A#3	release
122.083	n/a	RESPONSE	        M7	2	07	G3	release
122.218	n/a	RESPONSE	        M7	2	15	D#4	release
122.325	n/a	RESPONSE	        M7	2	12	C4	press
122.404	n/a	RESPONSE	        M7	2	14	D4	release
122.648	n/a	RESPONSE	        M7	2	10	A#3	press
122.655	n/a	RESPONSE	        M7	2	14	D4	press
122.668	n/a	RESPONSE	        M7	2	12	C4	release
122.71	n/a	RESPONSE	        M7	2	09	A3	release
123.223	n/a	RESPONSE	        M7	2	15	D#4	press
123.293	n/a	RESPONSE	        M7	2	14	D4	release
123.509	n/a	RESPONSE	        M7	2	14	D4	press
123.784	n/a	RESPONSE	        M7	2	07	G3	press
123.812	n/a	RESPONSE	        M7	2	12	C4	press
123.82	n/a	RESPONSE	        M7	2	15	D#4	release
123.835	n/a	RESPONSE	        M7	2	10	A#3	release
123.873	n/a	RESPONSE	        M7	2	14	D4	release
124.119	n/a	RESPONSE	        M7	2	10	A#3	press
124.26	n/a	RESPONSE	        M7	2	12	C4	release
124.393	n/a	RESPONSE	        M7	2	09	A3	press
124.395	n/a	RESPONSE	        M7	2	12	C4	press
124.419	n/a	RESPONSE	        M7	2	10	A#3	release
124.467	n/a	RESPONSE	        M7	2	07	G3	release
124.989	n/a	RESPONSE	        M7	2	14	D4	press
125.008	n/a	RESPONSE	        M7	2	06	F#3	press
125.065	n/a	RESPONSE	        M7	2	12	C4	release
125.088	n/a	RESPONSE	        M7	2	09	A3	release
125.267	n/a	RESPONSE	        M7	2	12	C4	press
125.319	n/a	RESPONSE	        M7	2	14	D4	release
125.559	n/a	RESPONSE	        M7	2	07	G3	press
125.583	n/a	RESPONSE	        M7	2	10	A#3	press
125.682	n/a	RESPONSE	        M7	2	06	F#3	release
125.693	n/a	RESPONSE	        M7	2	12	C4	release
125.834	n/a	RESPONSE	        M7	2	10	A#3	release
125.845	n/a	RESPONSE	        M7	2	12	C4	press
126.177	n/a	RESPONSE	        M7	2	04	E3	press
126.189	n/a	RESPONSE	        M7	2	09	A3	press
126.202	n/a	RESPONSE	        M7	2	11	B3	press
126.21	n/a	RESPONSE	        M7	2	02	D3	press
126.223	n/a	RESPONSE	        M7	2	07	G3	release
126.288	n/a	RESPONSE	        M7	2	12	C4	release
126.427	n/a	RESPONSE	        M7	2	11	B3	release
126.579	n/a	RESPONSE	        M7	2	02	D3	release
126.669	n/a	RESPONSE	        M7	2	09	A3	release
126.705	7.758	FIXCROSS	n/a	n/a	n/a	n/a	n/a
126.75	n/a	RESPONSE	        M7	2	04	E3	release
126.863	n/a	RESPONSE	        M7	2	11	B3	press
126.873	n/a	RESPONSE	        M7	2	02	D3	press
127.494	n/a	RESPONSE	        M7	2	02	D3	release
127.545	n/a	RESPONSE	        M7	2	11	B3	release
134.464	6.325	CUE_LISTEN	        M5	1	n/a	n/a	n/a
140.789	7.758	FIXCROSS	n/a	n/a	n/a	n/a	n/a
148.547	6.317	CUE_PLAYBACK_RIGHT_HAND	        M5	1	n/a	n/a	n/a
148.983	n/a	RESPONSE	        M5	1	21	A4	press
149.226	n/a	RESPONSE	        M5	1	21	A4	release
149.314	n/a	RESPONSE	        M5	1	21	A4	press
149.545	n/a	RESPONSE	        M5	1	21	A4	release
149.667	n/a	RESPONSE	        M5	1	21	A4	press
150.168	n/a	RESPONSE	        M5	1	21	A4	release
150.302	n/a	RESPONSE	        M5	1	21	A4	press
150.543	n/a	RESPONSE	        M5	1	21	A4	release
150.672	n/a	RESPONSE	        M5	1	21	A4	press
150.875	n/a	RESPONSE	        M5	1	21	A4	release
151.004	n/a	RESPONSE	        M5	1	21	A4	press
151.455	n/a	RESPONSE	        M5	1	21	A4	release
151.604	n/a	RESPONSE	        M5	1	21	A4	press
151.93	n/a	RESPONSE	        M5	1	24	C5	press
151.962	n/a	RESPONSE	        M5	1	23	B4	press
152.2	n/a	RESPONSE	        M5	1	23	B4	release
152.204	n/a	RESPONSE	        M5	1	24	C5	release
152.517	n/a	RESPONSE	        M5	1	21	A4	release
152.674	n/a	RESPONSE	        M5	1	21	A4	press
152.939	n/a	RESPONSE	        M5	1	24	C5	press
153.078	n/a	RESPONSE	        M5	1	21	A4	release
153.258	n/a	RESPONSE	        M5	1	16	E4	press
153.594	n/a	RESPONSE	        M5	1	24	C5	release
153.67	n/a	RESPONSE	        M5	1	17	F4	press
153.725	n/a	RESPONSE	        M5	1	16	E4	release
154.018	n/a	RESPONSE	        M5	1	19	G4	press
154.443	n/a	RESPONSE	        M5	1	21	A4	press
154.503	n/a	RESPONSE	        M5	1	17	F4	release
154.604	n/a	RESPONSE	        M5	1	19	G4	release
154.864	7.758	FIXCROSS	n/a	n/a	n/a	n/a	n/a
155.222	n/a	RESPONSE	        M5	1	21	A4	release
162.622	6.317	CUE_LISTEN	        M5	2	n/a	n/a	n/a
168.939	7.758	FIXCROSS	n/a	n/a	n/a	n/a	n/a
176.697	6.325	CUE_PLAYBACK_RIGHT_HAND	        M5	2	n/a	n/a	n/a
177.354	n/a	RESPONSE	        M5	2	22	A#4	press
177.575	n/a	RESPONSE	        M5	2	22	A#4	release
177.699	n/a	RESPONSE	        M5	2	22	A#4	press
177.98	n/a	RESPONSE	        M5	2	22	A#4	release
178.089	n/a	RESPONSE	        M5	2	22	A#4	press
178.323	n/a	RESPONSE	        M5	2	22	A#4	release
178.452	n/a	RESPONSE	        M5	2	22	A#4	press
178.813	n/a	RESPONSE	        M5	2	21	A4	press
178.854	n/a	RESPONSE	        M5	2	22	A#4	release
179.048	n/a	RESPONSE	        M5	2	21	A4	release
179.187	n/a	RESPONSE	        M5	2	21	A4	press
179.378	n/a	RESPONSE	        M5	2	21	A4	release
179.54	n/a	RESPONSE	        M5	2	21	A4	press
179.75	n/a	RESPONSE	        M5	2	21	A4	release
179.883	n/a	RESPONSE	        M5	2	21	A4	press
180.183	n/a	RESPONSE	        M5	2	24	C5	press
180.194	n/a	RESPONSE	        M5	2	21	A4	release
180.555	n/a	RESPONSE	        M5	2	16	E4	press
180.877	n/a	RESPONSE	        M5	2	16	E4	release
180.918	n/a	RESPONSE	        M5	2	24	C5	release
181.149	n/a	RESPONSE	        M5	2	24	C5	press
181.48	n/a	RESPONSE	        M5	2	17	F4	press
181.793	n/a	RESPONSE	        M5	2	24	C5	release
181.843	n/a	RESPONSE	        M5	2	17	F4	release
182.019	n/a	RESPONSE	        M5	2	24	C5	press
182.372	n/a	RESPONSE	        M5	2	21	A4	press
182.525	n/a	RESPONSE	        M5	2	21	A4	release
182.769	n/a	RESPONSE	        M5	2	24	C5	release
183.022	7.758	FIXCROSS	n/a	n/a	n/a	n/a	n/a
183.037	n/a	RESPONSE	        M5	2	19	G4	press
183.344	n/a	RESPONSE	        M5	2	19	G4	release
183.38	n/a	RESPONSE	        M5	2	21	A4	press
183.797	n/a	RESPONSE	        M5	2	21	A4	release
190.78	6.317	CUE_LISTEN	        M3	1	n/a	n/a	n/a
197.097	7.758	FIXCROSS	n/a	n/a	n/a	n/a	n/a
201.21	n/a	RESPONSE	        M3	1	00	C3	press
202.048	n/a	RESPONSE	        M3	1	00	C3	release
204.855	6.317	CUE_PLAYBACK_BOTH_HANDS	        M3	1	n/a	n/a	n/a
205.898	n/a	RESPONSE	        M3	1	00	C3	press
205.908	n/a	RESPONSE	        M3	1	12	C4	press
206.232	n/a	RESPONSE	        M3	1	07	G3	press
206.29	n/a	RESPONSE	        M3	1	14	D4	press
206.462	n/a	RESPONSE	        M3	1	12	C4	release
206.603	n/a	RESPONSE	        M3	1	00	C3	release
206.614	n/a	RESPONSE	        M3	1	04	E3	press
206.628	n/a	RESPONSE	        M3	1	16	E4	press
206.697	n/a	RESPONSE	        M3	1	07	G3	release
206.699	n/a	RESPONSE	        M3	1	14	D4	release
206.972	n/a	RESPONSE	        M3	1	07	G3	press
207.01	n/a	RESPONSE	        M3	1	12	C4	press
207.172	n/a	RESPONSE	        M3	1	04	E3	release
207.174	n/a	RESPONSE	        M3	1	16	E4	release
207.244	n/a	RESPONSE	        M3	1	12	C4	release
207.347	n/a	RESPONSE	        M3	1	00	C3	press
207.357	n/a	RESPONSE	        M3	1	07	G3	release
207.38	n/a	RESPONSE	        M3	1	12	C4	press
207.729	n/a	RESPONSE	        M3	1	07	G3	press
207.842	n/a	RESPONSE	        M3	1	14	D4	press
207.912	n/a	RESPONSE	        M3	1	00	C3	release
207.923	n/a	RESPONSE	        M3	1	12	C4	release
208.135	n/a	RESPONSE	        M3	1	16	E4	press
208.145	n/a	RESPONSE	        M3	1	04	E3	press
208.207	n/a	RESPONSE	        M3	1	07	G3	release
208.238	n/a	RESPONSE	        M3	1	14	D4	release
208.512	n/a	RESPONSE	        M3	1	07	G3	press
208.55	n/a	RESPONSE	        M3	1	12	C4	press
208.632	n/a	RESPONSE	        M3	1	04	E3	release
208.635	n/a	RESPONSE	        M3	1	16	E4	release
208.884	n/a	RESPONSE	        M3	1	12	C4	release
208.887	n/a	RESPONSE	        M3	1	00	C3	press
208.908	n/a	RESPONSE	        M3	1	16	E4	press
208.97	n/a	RESPONSE	        M3	1	07	G3	release
209.249	n/a	RESPONSE	        M3	1	07	G3	press
209.262	n/a	RESPONSE	        M3	1	17	F4	press
209.352	n/a	RESPONSE	        M3	1	00	C3	release
209.354	n/a	RESPONSE	        M3	1	16	E4	release
209.644	n/a	RESPONSE	        M3	1	04	E3	press
209.647	n/a	RESPONSE	        M3	1	19	G4	press
209.717	n/a	RESPONSE	        M3	1	07	G3	release
209.728	n/a	RESPONSE	        M3	1	17	F4	release
210.039	n/a	RESPONSE	        M3	1	07	G3	press
210.15	n/a	RESPONSE	        M3	1	04	E3	release
210.304	n/a	RESPONSE	        M3	1	19	G4	release
210.383	n/a	RESPONSE	        M3	1	00	C3	press
210.404	n/a	RESPONSE	        M3	1	16	E4	press
210.475	n/a	RESPONSE	        M3	1	07	G3	release
210.717	n/a	RESPONSE	        M3	1	07	G3	press
210.748	n/a	RESPONSE	        M3	1	17	F4	press
210.802	n/a	RESPONSE	        M3	1	16	E4	release
210.82	n/a	RESPONSE	        M3	1	00	C3	release
211.103	n/a	RESPONSE	        M3	1	04	E3	press
211.113	n/a	RESPONSE	        M3	1	19	G4	press
211.172	7.758	FIXCROSS	n/a	n/a	n/a	n/a	n/a
211.174	n/a	RESPONSE	        M3	1	07	G3	release
211.513	n/a	RESPONSE	        M3	1	07	G3	press
211.593	n/a	RESPONSE	        M3	1	17	F4	release
211.604	n/a	RESPONSE	        M3	1	04	E3	release
211.879	n/a	RESPONSE	        M3	1	19	G4	release
212.27	n/a	RESPONSE	        M3	1	07	G3	release
218.93	6.325	CUE_LISTEN	        M3	2	n/a	n/a	n/a
225.255	7.758	FIXCROSS	n/a	n/a	n/a	n/a	n/a
233.014	6.317	CUE_PLAYBACK_BOTH_HANDS	        M3	2	n/a	n/a	n/a
233.828	n/a	RESPONSE	        M3	2	00	C3	press
233.859	n/a	RESPONSE	        M3	2	19	G4	press
234.057	n/a	RESPONSE	        M3	2	21	A4	press
234.09	n/a	RESPONSE	        M3	2	07	G3	press
234.173	n/a	RESPONSE	        M3	2	19	G4	release
234.317	n/a	RESPONSE	        M3	2	00	C3	release
234.404	n/a	RESPONSE	        M3	2	21	A4	release
234.477	n/a	RESPONSE	        M3	2	07	G3	release
234.56	n/a	RESPONSE	        M3	2	00	C3	press
234.578	n/a	RESPONSE	        M3	2	19	G4	press
234.805	n/a	RESPONSE	        M3	2	21	A4	press
234.813	n/a	RESPONSE	        M3	2	07	G3	press
234.908	n/a	RESPONSE	        M3	2	19	G4	release
235.013	n/a	RESPONSE	        M3	2	00	C3	release
235.055	n/a	RESPONSE	        M3	2	19	G4	press
235.087	n/a	RESPONSE	        M3	2	04	E3	press
235.173	n/a	RESPONSE	        M3	2	07	G3	release
235.273	n/a	RESPONSE	        M3	2	21	A4	release
235.277	n/a	RESPONSE	        M3	2	17	F4	press
235.345	n/a	RESPONSE	        M3	2	19	G4	release
235.567	n/a	RESPONSE	        M3	2	16	E4	press
235.569	n/a	RESPONSE	        M3	2	07	G3	press
235.659	n/a	RESPONSE	        M3	2	04	E3	release
235.69	n/a	RESPONSE	        M3	2	17	F4	release
236.032	n/a	RESPONSE	        M3	2	00	C3	press
236.044	n/a	RESPONSE	        M3	2	12	C4	press
236.054	n/a	RESPONSE	        M3	2	14	D4	press
236.115	n/a	RESPONSE	        M3	2	16	E4	release
236.127	n/a	RESPONSE	        M3	2	07	G3	release
236.358	n/a	RESPONSE	        M3	2	14	D4	release
236.36	n/a	RESPONSE	        M3	2	12	C4	release
236.44	n/a	RESPONSE	        M3	2	00	C3	release
236.514	n/a	RESPONSE	        M3	2	00	C3	press
236.523	n/a	RESPONSE	        M3	2	19	G4	press
236.745	n/a	RESPONSE	        M3	2	21	A4	press
236.797	n/a	RESPONSE	        M3	2	19	G4	release
236.948	n/a	RESPONSE	        M3	2	07	G3	press
236.969	n/a	RESPONSE	        M3	2	19	G4	press
237.05	n/a	RESPONSE	        M3	2	00	C3	release
237.064	n/a	RESPONSE	        M3	2	21	A4	release
237.184	n/a	RESPONSE	        M3	2	17	F4	press
237.284	n/a	RESPONSE	        M3	2	04	E3	press
237.315	n/a	RESPONSE	        M3	2	19	G4	release
237.347	n/a	RESPONSE	        M3	2	07	G3	release
237.449	n/a	RESPONSE	        M3	2	16	E4	press
237.552	n/a	RESPONSE	        M3	2	17	F4	release
237.85	n/a	RESPONSE	        M3	2	07	G3	press
237.922	n/a	RESPONSE	        M3	2	12	C4	press
237.924	n/a	RESPONSE	        M3	2	04	E3	release
237.974	n/a	RESPONSE	        M3	2	16	E4	release
238.238	n/a	RESPONSE	        M3	2	12	C4	release
238.267	n/a	RESPONSE	        M3	2	07	G3	release
238.288	n/a	RESPONSE	        M3	2	00	C3	press
238.342	n/a	RESPONSE	        M3	2	12	C4	press
238.76	n/a	RESPONSE	        M3	2	07	G3	press
238.832	n/a	RESPONSE	        M3	2	00	C3	release
238.993	n/a	RESPONSE	        M3	2	12	C4	release
239.164	n/a	RESPONSE	        M3	2	00	C3	press
239.205	n/a	RESPONSE	        M3	2	12	C4	press
239.227	n/a	RESPONSE	        M3	2	07	G3	release
239.33	7.758	FIXCROSS	n/a	n/a	n/a	n/a	n/a
239.688	n/a	RESPONSE	        M3	2	00	C3	release
239.69	n/a	RESPONSE	        M3	2	12	C4	release
239.86	n/a	RESPONSE	        M3	2	00	C3	press
239.912	n/a	RESPONSE	        M3	2	12	C4	press
240.263	n/a	RESPONSE	        M3	2	07	G3	press
240.335	n/a	RESPONSE	        M3	2	00	C3	release
240.375	n/a	RESPONSE	        M3	2	12	C4	release
240.609	n/a	RESPONSE	        M3	2	00	C3	press
240.648	n/a	RESPONSE	        M3	2	12	C4	press
240.709	n/a	RESPONSE	        M3	2	07	G3	release
241.07	n/a	RESPONSE	        M3	2	12	C4	release
241.102	n/a	RESPONSE	        M3	2	00	C3	release
247.089	6.325	CUE_LISTEN	        M6	1	n/a	n/a	n/a
253.414	7.758	FIXCROSS	n/a	n/a	n/a	n/a	n/a
254.418	n/a	RESPONSE	        M6	1	04	E3	press
255.227	n/a	RESPONSE	        M6	1	04	E3	release
257.848	n/a	RESPONSE	        M6	1	04	E3	press
258.609	n/a	RESPONSE	        M6	1	16	E4	press
259.79	n/a	RESPONSE	        M6	1	16	E4	release
261.172	6.317	CUE_PLAYBACK_BOTH_HANDS	        M6	1	n/a	n/a	n/a
261.762	n/a	RESPONSE	        M6	1	16	E4	press
262.118	n/a	RESPONSE	        M6	1	11	B3	press
262.143	n/a	RESPONSE	        M6	1	19	G4	press
262.264	n/a	RESPONSE	        M6	1	18	F#4	press
262.338	n/a	RESPONSE	        M6	1	16	E4	release
262.349	n/a	RESPONSE	        M6	1	19	G4	release
262.489	n/a	RESPONSE	        M6	1	19	G4	press
262.522	n/a	RESPONSE	        M6	1	18	F#4	release
262.543	n/a	RESPONSE	        M6	1	16	E4	press
262.578	n/a	RESPONSE	        M6	1	04	E3	release
262.687	n/a	RESPONSE	        M6	1	07	G3	press
262.753	n/a	RESPONSE	        M6	1	09	A3	press
262.882	n/a	RESPONSE	        M6	1	23	B4	press
262.9	n/a	RESPONSE	        M6	1	11	B3	release
262.977	n/a	RESPONSE	        M6	1	19	G4	release
263.048	n/a	RESPONSE	        M6	1	24	C5	press
263.167	n/a	RESPONSE	        M6	1	23	B4	release
263.22	n/a	RESPONSE	        M6	1	23	B4	press
263.233	n/a	RESPONSE	        M6	1	09	A3	release
263.248	n/a	RESPONSE	        M6	1	04	E3	press
263.299	n/a	RESPONSE	        M6	1	07	G3	release
263.365	n/a	RESPONSE	        M6	1	14	D4	press
263.663	n/a	RESPONSE	        M6	1	11	B3	press
263.692	n/a	RESPONSE	        M6	1	24	C5	release
263.75	n/a	RESPONSE	        M6	1	14	D4	release
263.79	n/a	RESPONSE	        M6	1	04	E3	release
263.802	n/a	RESPONSE	        M6	1	16	E4	release
264.082	n/a	RESPONSE	        M6	1	16	E4	press
264.088	n/a	RESPONSE	        M6	1	07	G3	press
264.134	n/a	RESPONSE	        M6	1	14	D4	press
264.332	n/a	RESPONSE	        M6	1	11	B3	release
264.459	n/a	RESPONSE	        M6	1	14	D4	release
264.489	n/a	RESPONSE	        M6	1	11	B3	press
264.509	n/a	RESPONSE	        M6	1	16	E4	release
264.882	n/a	RESPONSE	        M6	1	11	B3	release
264.89	n/a	RESPONSE	        M6	1	14	D4	press
264.907	n/a	RESPONSE	        M6	1	02	D3	press
264.923	n/a	RESPONSE	        M6	1	23	B4	release
264.957	n/a	RESPONSE	        M6	1	04	E3	press
264.968	n/a	RESPONSE	        M6	1	07	G3	release
265.258	n/a	RESPONSE	        M6	1	18	F#4	press
265.268	n/a	RESPONSE	        M6	1	11	B3	press
265.349	n/a	RESPONSE	        M6	1	04	E3	release
265.36	n/a	RESPONSE	        M6	1	02	D3	release
265.432	n/a	RESPONSE	        M6	1	18	F#4	release
265.443	n/a	RESPONSE	        M6	1	16	E4	press
265.524	n/a	RESPONSE	        M6	1	14	D4	release
265.655	n/a	RESPONSE	        M6	1	18	F#4	press
265.71	n/a	RESPONSE	        M6	1	07	G3	press
265.729	n/a	RESPONSE	        M6	1	16	E4	release
265.74	n/a	RESPONSE	        M6	1	14	D4	press
265.822	n/a	RESPONSE	        M6	1	11	B3	release
266.063	n/a	RESPONSE	        M6	1	18	F#4	release
266.065	n/a	RESPONSE	        M6	1	19	G4	press
266.095	n/a	RESPONSE	        M6	1	11	B3	press
266.147	n/a	RESPONSE	        M6	1	21	A4	press
266.229	n/a	RESPONSE	        M6	1	19	G4	release
266.289	n/a	RESPONSE	        M6	1	14	D4	release
266.37	n/a	RESPONSE	        M6	1	19	G4	press
266.442	n/a	RESPONSE	        M6	1	21	A4	release
266.513	n/a	RESPONSE	        M6	1	14	D4	press
266.525	n/a	RESPONSE	        M6	1	04	E3	press
266.535	n/a	RESPONSE	        M6	1	02	D3	press
266.558	n/a	RESPONSE	        M6	1	07	G3	release
266.568	n/a	RESPONSE	        M6	1	11	B3	release
266.859	n/a	RESPONSE	        M6	1	02	D3	release
266.87	n/a	RESPONSE	        M6	1	11	B3	press
266.873	n/a	RESPONSE	        M6	1	04	E3	release
267.003	n/a	RESPONSE	        M6	1	14	D4	release
267.277	n/a	RESPONSE	        M6	1	07	G3	press
267.295	n/a	RESPONSE	        M6	1	14	D4	press
267.338	n/a	RESPONSE	        M6	1	12	C4	press
267.369	n/a	RESPONSE	        M6	1	11	B3	release
267.489	7.758	FIXCROSS	n/a	n/a	n/a	n/a	n/a
267.712	n/a	RESPONSE	        M6	1	12	C4	release
267.72	n/a	RESPONSE	        M6	1	11	B3	press
267.813	n/a	RESPONSE	        M6	1	14	D4	release
267.874	n/a	RESPONSE	        M6	1	19	G4	release
268.365	n/a	RESPONSE	        M6	1	11	B3	release
275.247	6.317	CUE_LISTEN	        M6	2	n/a	n/a	n/a
277.19	n/a	RESPONSE	        M6	2	07	G3	release
281.564	7.758	FIXCROSS	n/a	n/a	n/a	n/a	n/a
282.238	n/a	RESPONSE	        M6	2	04	E3	press
282.488	n/a	RESPONSE	        M6	2	04	E3	release
282.664	n/a	RESPONSE	        M6	2	04	E3	press
283.474	n/a	RESPONSE	        M6	2	16	E4	press
283.559	n/a	RESPONSE	        M6	2	04	E3	release
286.559	n/a	RESPONSE	        M6	2	16	E4	release
288.41	n/a	RESPONSE	        M6	2	04	E3	press
289.322	6.325	CUE_PLAYBACK_BOTH_HANDS	        M6	2	n/a	n/a	n/a
289.892	n/a	RESPONSE	        M6	2	23	B4	press
289.894	n/a	RESPONSE	        M6	2	16	E4	press
290.284	n/a	RESPONSE	        M6	2	12	C4	press
290.405	n/a	RESPONSE	        M6	2	11	B3	press
290.447	n/a	RESPONSE	        M6	2	16	E4	release
290.498	n/a	RESPONSE	        M6	2	04	E3	release
290.662	n/a	RESPONSE	        M6	2	11	B3	release
290.7	n/a	RESPONSE	        M6	2	09	A3	press
290.792	n/a	RESPONSE	        M6	2	12	C4	release
290.813	n/a	RESPONSE	        M6	2	16	E4	press
291.004	n/a	RESPONSE	        M6	2	23	B4	release
291.105	n/a	RESPONSE	        M6	2	12	C4	press
291.109	n/a	RESPONSE	        M6	2	19	G4	press
291.279	n/a	RESPONSE	        M6	2	16	E4	release
291.502	n/a	RESPONSE	        M6	2	16	E4	press
291.54	n/a	RESPONSE	        M6	2	04	E3	press
291.548	n/a	RESPONSE	        M6	2	12	C4	release
291.627	n/a	RESPONSE	        M6	2	09	A3	release
291.895	n/a	RESPONSE	        M6	2	11	B3	press
292.026	n/a	RESPONSE	        M6	2	16	E4	release
292.029	n/a	RESPONSE	        M6	2	04	E3	release
292.227	n/a	RESPONSE	        M6	2	09	A3	press
292.29	n/a	RESPONSE	        M6	2	16	E4	press
292.373	n/a	RESPONSE	        M6	2	11	B3	release
292.65	n/a	RESPONSE	        M6	2	11	B3	press
292.673	n/a	RESPONSE	        M6	2	16	E4	release
292.922	n/a	RESPONSE	        M6	2	09	A3	release
292.995	n/a	RESPONSE	        M6	2	23	B4	press
293.005	n/a	RESPONSE	        M6	2	11	B3	release
293.015	n/a	RESPONSE	        M6	2	14	D4	press
293.023	n/a	RESPONSE	        M6	2	04	E3	press
293.027	n/a	RESPONSE	        M6	2	02	D3	press
293.029	n/a	RESPONSE	        M6	2	19	G4	release
293.392	n/a	RESPONSE	        M6	2	11	B3	press
293.499	n/a	RESPONSE	        M6	2	02	D3	release
293.502	n/a	RESPONSE	        M6	2	04	E3	release
293.599	n/a	RESPONSE	        M6	2	14	D4	release
293.762	n/a	RESPONSE	        M6	2	07	G3	press
293.798	n/a	RESPONSE	        M6	2	14	D4	press
293.915	n/a	RESPONSE	        M6	2	11	B3	release
294.142	n/a	RESPONSE	        M6	2	19	G4	press
294.153	n/a	RESPONSE	        M6	2	11	B3	press
294.184	n/a	RESPONSE	        M6	2	23	B4	release
294.223	n/a	RESPONSE	        M6	2	14	D4	release
294.518	n/a	RESPONSE	        M6	2	14	D4	press
294.533	n/a	RESPONSE	        M6	2	02	D3	press
294.54	n/a	RESPONSE	        M6	2	07	G3	release
294.559	n/a	RESPONSE	        M6	2	04	E3	press
294.622	n/a	RESPONSE	        M6	2	11	B3	release
294.798	n/a	RESPONSE	        M6	2	11	B3	press
294.818	n/a	RESPONSE	        M6	2	04	E3	release
294.838	n/a	RESPONSE	        M6	2	02	D3	release
294.922	n/a	RESPONSE	        M6	2	14	D4	release
295.239	n/a	RESPONSE	        M6	2	07	G3	press
295.29	n/a	RESPONSE	        M6	2	14	D4	press
295.302	n/a	RESPONSE	        M6	2	11	B3	release
295.304	n/a	RESPONSE	        M6	2	23	B4	press
295.464	n/a	RESPONSE	        M6	2	19	G4	release
295.647	7.758	FIXCROSS	n/a	n/a	n/a	n/a	n/a
295.745	n/a	RESPONSE	        M6	2	11	B3	press
295.808	n/a	RESPONSE	        M6	2	23	B4	release
296.098	n/a	RESPONSE	        M6	2	02	D3	press
296.14	n/a	RESPONSE	        M6	2	07	G3	release
296.143	n/a	RESPONSE	        M6	2	11	B3	release
296.192	n/a	RESPONSE	        M6	2	14	D4	release
296.303	n/a	RESPONSE	        M6	2	02	D3	release
303.406	6.317	CUE_LISTEN	        M2	1	n/a	n/a	n/a
307.442	n/a	RESPONSE	        M2	1	24	C5	press
308.383	n/a	RESPONSE	        M2	1	24	C5	release
309.722	7.758	FIXCROSS	n/a	n/a	n/a	n/a	n/a
317.481	6.325	CUE_PLAYBACK_RIGHT_HAND	        M2	1	n/a	n/a	n/a
317.934	n/a	RESPONSE	        M2	1	24	C5	press
318.304	n/a	RESPONSE	        M2	1	19	G4	press
318.325	n/a	RESPONSE	        M2	1	21	A4	press
318.497	n/a	RESPONSE	        M2	1	21	A4	release
318.499	n/a	RESPONSE	        M2	1	19	G4	release
318.569	n/a	RESPONSE	        M2	1	24	C5	release
318.67	n/a	RESPONSE	        M2	1	24	C5	press
318.982	n/a	RESPONSE	        M2	1	19	G4	press
319.213	n/a	RESPONSE	        M2	1	19	G4	release
319.305	n/a	RESPONSE	        M2	1	24	C5	release
319.348	n/a	RESPONSE	        M2	1	19	G4	press
319.887	n/a	RESPONSE	        M2	1	17	F4	press
319.929	n/a	RESPONSE	        M2	1	19	G4	release
320.21	n/a	RESPONSE	        M2	1	16	E4	press
320.29	n/a	RESPONSE	        M2	1	17	F4	release
320.564	n/a	RESPONSE	        M2	1	17	F4	press
320.583	n/a	RESPONSE	        M2	1	16	E4	release
320.906	n/a	RESPONSE	        M2	1	19	G4	press
321.355	n/a	RESPONSE	        M2	1	17	F4	release
321.437	n/a	RESPONSE	        M2	1	19	G4	release
321.593	n/a	RESPONSE	        M2	1	24	C5	press
321.929	n/a	RESPONSE	        M2	1	19	G4	press
322.07	n/a	RESPONSE	        M2	1	24	C5	release
322.155	n/a	RESPONSE	        M2	1	19	G4	release
322.295	n/a	RESPONSE	        M2	1	19	G4	press
322.582	n/a	RESPONSE	        M2	1	17	F4	press
322.742	n/a	RESPONSE	        M2	1	19	G4	release
322.929	n/a	RESPONSE	        M2	1	16	E4	press
322.994	n/a	RESPONSE	        M2	1	17	F4	release
323.234	n/a	RESPONSE	        M2	1	14	D4	press
323.389	n/a	RESPONSE	        M2	1	16	E4	release
323.599	n/a	RESPONSE	        M2	1	12	C4	press
323.726	n/a	RESPONSE	        M2	1	14	D4	release
323.806	7.758	FIXCROSS	n/a	n/a	n/a	n/a	n/a
324.166	n/a	RESPONSE	        M2	1	12	C4	release
331.564	6.317	CUE_LISTEN	        M2	2	n/a	n/a	n/a
337.881	7.758	FIXCROSS	n/a	n/a	n/a	n/a	n/a
345.639	6.317	CUE_PLAYBACK_RIGHT_HAND	        M2	2	n/a	n/a	n/a
346.049	n/a	RESPONSE	        M2	2	12	C4	press
346.402	n/a	RESPONSE	        M2	2	14	D4	press
346.662	n/a	RESPONSE	        M2	2	12	C4	release
346.773	n/a	RESPONSE	        M2	2	16	E4	press
346.844	n/a	RESPONSE	        M2	2	14	D4	release
347.125	n/a	RESPONSE	        M2	2	14	D4	press
347.166	n/a	RESPONSE	        M2	2	16	E4	release
347.508	n/a	RESPONSE	        M2	2	16	E4	press
347.709	n/a	RESPONSE	        M2	2	14	D4	release
347.86	n/a	RESPONSE	        M2	2	17	F4	press
348.212	n/a	RESPONSE	        M2	2	19	G4	press
348.264	n/a	RESPONSE	        M2	2	16	E4	release
348.326	n/a	RESPONSE	        M2	2	17	F4	release
348.725	n/a	RESPONSE	        M2	2	19	G4	release
348.946	n/a	RESPONSE	        M2	2	16	E4	press
349.278	n/a	RESPONSE	        M2	2	19	G4	press
349.469	n/a	RESPONSE	        M2	2	16	E4	release
349.55	n/a	RESPONSE	        M2	2	19	G4	release
349.662	n/a	RESPONSE	        M2	2	19	G4	press
349.993	n/a	RESPONSE	        M2	2	17	F4	press
350.316	n/a	RESPONSE	        M2	2	19	G4	release
350.346	n/a	RESPONSE	        M2	2	16	E4	press
350.656	n/a	RESPONSE	        M2	2	14	D4	press
350.67	n/a	RESPONSE	        M2	2	17	F4	release
350.81	n/a	RESPONSE	        M2	2	16	E4	release
351.04	n/a	RESPONSE	        M2	2	12	C4	press
351.122	n/a	RESPONSE	        M2	2	14	D4	release
351.664	n/a	RESPONSE	        M2	2	12	C4	release
351.956	7.758	FIXCROSS	n/a	n/a	n/a	n/a	n/a
359.714	6.325	CUE_LISTEN	        M8	1	n/a	n/a	n/a
366.039	7.758	FIXCROSS	n/a	n/a	n/a	n/a	n/a
368.07	n/a	RESPONSE	        M8	1	16	E4	press
368.702	n/a	RESPONSE	        M8	1	16	E4	release
373.798	6.317	CUE_PLAYBACK_RIGHT_HAND	        M8	1	n/a	n/a	n/a
374.195	n/a	RESPONSE	        M8	1	16	E4	press
374.486	n/a	RESPONSE	        M8	1	19	G4	press
374.776	n/a	RESPONSE	        M8	1	23	B4	press
374.842	n/a	RESPONSE	        M8	1	16	E4	release
374.994	n/a	RESPONSE	        M8	1	19	G4	release
375.107	n/a	RESPONSE	        M8	1	23	B4	release
375.283	n/a	RESPONSE	        M8	1	23	B4	press
375.844	n/a	RESPONSE	        M8	1	18	F#4	press
375.905	n/a	RESPONSE	        M8	1	23	B4	release
376.326	n/a	RESPONSE	        M8	1	21	A4	press
376.448	n/a	RESPONSE	        M8	1	18	F#4	release
377.302	n/a	RESPONSE	        M8	1	23	B4	press
377.39	n/a	RESPONSE	        M8	1	21	A4	release
377.922	n/a	RESPONSE	        M8	1	21	A4	press
378.273	n/a	RESPONSE	        M8	1	23	B4	release
378.314	n/a	RESPONSE	        M8	1	18	F#4	press
378.446	n/a	RESPONSE	        M8	1	21	A4	release
378.709	n/a	RESPONSE	        M8	1	18	F#4	release
378.758	n/a	RESPONSE	        M8	1	21	A4	press
379.18	n/a	RESPONSE	        M8	1	18	F#4	press
379.33	n/a	RESPONSE	        M8	1	21	A4	release
379.442	n/a	RESPONSE	        M8	1	16	E4	press
379.593	n/a	RESPONSE	        M8	1	18	F#4	release
380.114	7.758	FIXCROSS	n/a	n/a	n/a	n/a	n/a
380.124	n/a	RESPONSE	        M8	1	23	B4	press
380.275	n/a	RESPONSE	        M8	1	16	E4	release
380.537	n/a	RESPONSE	        M8	1	23	B4	release
387.872	6.317	CUE_LISTEN	        M8	2	n/a	n/a	n/a
393.804	n/a	RESPONSE	        M8	2	16	E4	press
394.189	7.759	FIXCROSS	n/a	n/a	n/a	n/a	n/a
394.778	n/a	RESPONSE	        M8	2	16	E4	release
401.948	6.317	CUE_PLAYBACK_RIGHT_HAND	        M8	2	n/a	n/a	n/a
402.393	n/a	RESPONSE	        M8	2	16	E4	press
402.674	n/a	RESPONSE	        M8	2	19	G4	press
402.942	n/a	RESPONSE	        M8	2	23	B4	press
403.164	n/a	RESPONSE	        M8	2	19	G4	release
403.18	n/a	RESPONSE	        M8	2	16	E4	release
403.305	n/a	RESPONSE	        M8	2	23	B4	release
403.426	n/a	RESPONSE	        M8	2	23	B4	press
403.964	n/a	RESPONSE	        M8	2	18	F#4	press
404.033	n/a	RESPONSE	        M8	2	23	B4	release
404.472	n/a	RESPONSE	        M8	2	21	A4	press
404.612	n/a	RESPONSE	        M8	2	18	F#4	release
405.153	n/a	RESPONSE	        M8	2	21	A4	release
405.365	n/a	RESPONSE	        M8	2	23	B4	press
406.018	n/a	RESPONSE	        M8	2	21	A4	press
406.318	n/a	RESPONSE	        M8	2	23	B4	release
406.339	n/a	RESPONSE	        M8	2	18	F#4	press
406.412	n/a	RESPONSE	        M8	2	21	A4	release
406.812	n/a	RESPONSE	        M8	2	18	F#4	release
406.853	n/a	RESPONSE	        M8	2	23	B4	press
407.296	n/a	RESPONSE	        M8	2	21	A4	press
407.528	n/a	RESPONSE	        M8	2	19	G4	press
407.636	n/a	RESPONSE	        M8	2	23	B4	release
407.928	n/a	RESPONSE	        M8	2	18	F#4	press
407.969	n/a	RESPONSE	        M8	2	21	A4	release
408.11	n/a	RESPONSE	        M8	2	19	G4	release
408.264	7.758	FIXCROSS	n/a	n/a	n/a	n/a	n/a
409.052	n/a	RESPONSE	        M8	2	16	E4	press
409.163	n/a	RESPONSE	        M8	2	18	F#4	release
409.974	n/a	RESPONSE	        M8	2	19	G4	press
410.015	n/a	RESPONSE	        M8	2	16	E4	release
410.408	n/a	RESPONSE	        M8	2	16	E4	press
410.448	n/a	RESPONSE	        M8	2	19	G4	release
410.79	n/a	RESPONSE	        M8	2	16	E4	release
416.023	6.325	CUE_LISTEN	        M4	1	n/a	n/a	n/a
421.28	n/a	RESPONSE	        M4	1	05	F3	press
421.972	n/a	RESPONSE	        M4	1	09	A3	press
422.348	7.758	FIXCROSS	n/a	n/a	n/a	n/a	n/a
424.392	n/a	RESPONSE	        M4	1	09	A3	release
425.699	n/a	RESPONSE	        M4	1	05	F3	release
430.106	6.317	CUE_PLAYBACK_BOTH_HANDS	        M4	1	n/a	n/a	n/a
430.663	n/a	RESPONSE	        M4	1	05	F3	press
430.694	n/a	RESPONSE	        M4	1	09	A3	press
430.698	n/a	RESPONSE	        M4	1	12	C4	press
431.056	n/a	RESPONSE	        M4	1	17	F4	press
431.438	n/a	RESPONSE	        M4	1	21	A4	press
431.553	n/a	RESPONSE	        M4	1	17	F4	release
431.789	n/a	RESPONSE	        M4	1	19	G4	press
432.132	n/a	RESPONSE	        M4	1	17	F4	press
432.332	n/a	RESPONSE	        M4	1	19	G4	release
432.532	n/a	RESPONSE	        M4	1	16	E4	press
432.658	n/a	RESPONSE	        M4	1	17	F4	release
432.874	n/a	RESPONSE	        M4	1	21	A4	release
432.886	n/a	RESPONSE	        M4	1	17	F4	press
432.933	n/a	RESPONSE	        M4	1	16	E4	release
433.166	n/a	RESPONSE	        M4	1	05	F3	release
433.174	n/a	RESPONSE	        M4	1	12	C4	release
433.259	n/a	RESPONSE	        M4	1	09	A3	release
433.328	n/a	RESPONSE	        M4	1	17	F4	release
433.562	n/a	RESPONSE	        M4	1	09	A3	press
433.57	n/a	RESPONSE	        M4	1	05	F3	press
433.573	n/a	RESPONSE	        M4	1	12	C4	press
433.953	n/a	RESPONSE	        M4	1	17	F4	press
434.32	n/a	RESPONSE	        M4	1	21	A4	press
434.424	n/a	RESPONSE	        M4	1	17	F4	release
434.7	n/a	RESPONSE	        M4	1	19	G4	press
435.05	n/a	RESPONSE	        M4	1	17	F4	press
435.349	n/a	RESPONSE	        M4	1	19	G4	release
435.41	n/a	RESPONSE	        M4	1	16	E4	press
435.522	n/a	RESPONSE	        M4	1	17	F4	release
435.795	n/a	RESPONSE	        M4	1	17	F4	press
435.894	n/a	RESPONSE	        M4	1	16	E4	release
436.245	n/a	RESPONSE	        M4	1	05	F3	release
436.258	n/a	RESPONSE	        M4	1	12	C4	release
436.368	n/a	RESPONSE	        M4	1	09	A3	release
436.409	n/a	RESPONSE	        M4	1	21	A4	release
436.423	7.758	FIXCROSS	n/a	n/a	n/a	n/a	n/a
436.43	n/a	RESPONSE	        M4	1	17	F4	release
444.181	6.317	CUE_LISTEN	        M4	2	n/a	n/a	n/a
450.498	7.758	FIXCROSS	n/a	n/a	n/a	n/a	n/a
458.256	6.325	CUE_PLAYBACK_BOTH_HANDS	        M4	2	n/a	n/a	n/a
458.833	n/a	RESPONSE	        M4	2	05	F3	press
458.844	n/a	RESPONSE	        M4	2	09	A3	press
458.846	n/a	RESPONSE	        M4	2	12	C4	press
459.238	n/a	RESPONSE	        M4	2	17	F4	press
459.65	n/a	RESPONSE	        M4	2	21	A4	press
459.989	n/a	RESPONSE	        M4	2	24	C5	press
460.01	n/a	RESPONSE	        M4	2	17	F4	release
460.163	n/a	RESPONSE	        M4	2	21	A4	release
460.203	n/a	RESPONSE	        M4	2	05	F3	release
460.254	n/a	RESPONSE	        M4	2	09	A3	release
460.325	n/a	RESPONSE	        M4	2	24	C5	release
460.366	n/a	RESPONSE	        M4	2	04	E3	press
460.518	n/a	RESPONSE	        M4	2	07	G3	press
460.529	n/a	RESPONSE	        M4	2	22	A#4	press
460.88	n/a	RESPONSE	        M4	2	21	A4	press
461.242	n/a	RESPONSE	        M4	2	19	G4	press
461.285	n/a	RESPONSE	        M4	2	22	A#4	release
461.714	n/a	RESPONSE	        M4	2	12	C4	release
461.72	n/a	RESPONSE	        M4	2	21	A4	release
461.796	n/a	RESPONSE	        M4	2	07	G3	release
461.814	n/a	RESPONSE	        M4	2	19	G4	release
461.946	n/a	RESPONSE	        M4	2	07	G3	press
461.95	n/a	RESPONSE	        M4	2	12	C4	press
462.493	n/a	RESPONSE	        M4	2	17	F4	press
462.93	n/a	RESPONSE	        M4	2	21	A4	press
463.195	n/a	RESPONSE	        M4	2	04	E3	release
463.223	n/a	RESPONSE	        M4	2	07	G3	release
463.468	n/a	RESPONSE	        M4	2	22	A#4	press
463.495	n/a	RESPONSE	        M4	2	17	F4	release
463.601	n/a	RESPONSE	        M4	2	21	A4	release
464.031	n/a	RESPONSE	        M4	2	22	A#4	release
464.038	n/a	RESPONSE	        M4	2	05	F3	press
464.098	n/a	RESPONSE	        M4	2	09	A3	press
464.1	n/a	RESPONSE	        M4	2	21	A4	press
464.494	n/a	RESPONSE	        M4	2	19	G4	press
464.581	7.758	FIXCROSS	n/a	n/a	n/a	n/a	n/a
464.858	n/a	RESPONSE	        M4	2	17	F4	press
465.355	n/a	RESPONSE	        M4	2	19	G4	release
465.476	n/a	RESPONSE	        M4	2	21	A4	release
465.528	n/a	RESPONSE	        M4	2	12	C4	release
465.539	n/a	RESPONSE	        M4	2	05	F3	release
465.571	n/a	RESPONSE	        M4	2	17	F4	release
465.694	n/a	RESPONSE	        M4	2	09	A3	release
472.339	6.317	CUE_LISTEN	        M3	1	n/a	n/a	n/a
478.656	7.758	FIXCROSS	n/a	n/a	n/a	n/a	n/a
486.414	6.325	CUE_PLAYBACK_RIGHT_HAND	        M3	1	n/a	n/a	n/a
486.906	n/a	RESPONSE	        M3	1	12	C4	press
487.278	n/a	RESPONSE	        M3	1	14	D4	press
487.641	n/a	RESPONSE	        M3	1	16	E4	press
487.69	n/a	RESPONSE	        M3	1	12	C4	release
487.761	n/a	RESPONSE	        M3	1	14	D4	release
488.124	n/a	RESPONSE	        M3	1	12	C4	press
488.266	n/a	RESPONSE	        M3	1	16	E4	release
488.305	n/a	RESPONSE	        M3	1	17	F4	press
488.346	n/a	RESPONSE	        M3	1	12	C4	release
488.71	n/a	RESPONSE	        M3	1	17	F4	release
488.759	n/a	RESPONSE	        M3	1	12	C4	press
489.133	n/a	RESPONSE	        M3	1	14	D4	press
489.181	n/a	RESPONSE	        M3	1	12	C4	release
489.473	n/a	RESPONSE	        M3	1	16	E4	press
489.594	n/a	RESPONSE	        M3	1	14	D4	release
489.828	n/a	RESPONSE	        M3	1	12	C4	press
490.036	n/a	RESPONSE	        M3	1	16	E4	release
490.068	n/a	RESPONSE	        M3	1	12	C4	release
490.22	n/a	RESPONSE	        M3	1	16	E4	press
490.54	n/a	RESPONSE	        M3	1	17	F4	press
490.891	n/a	RESPONSE	        M3	1	19	G4	press
490.933	n/a	RESPONSE	        M3	1	16	E4	release
490.994	n/a	RESPONSE	        M3	1	17	F4	release
491.524	n/a	RESPONSE	        M3	1	19	G4	release
491.653	n/a	RESPONSE	        M3	1	16	E4	press
492.002	n/a	RESPONSE	        M3	1	17	F4	press
492.369	n/a	RESPONSE	        M3	1	19	G4	press
492.433	n/a	RESPONSE	        M3	1	16	E4	release
492.528	n/a	RESPONSE	        M3	1	17	F4	release
492.739	7.758	FIXCROSS	n/a	n/a	n/a	n/a	n/a
492.911	n/a	RESPONSE	        M3	1	19	G4	release
500.498	6.317	CUE_LISTEN	        M3	2	n/a	n/a	n/a
505.096	n/a	RESPONSE	        M3	2	00	C3	press
505.508	n/a	RESPONSE	        M3	2	00	C3	release
506.814	7.758	FIXCROSS	n/a	n/a	n/a	n/a	n/a
514.573	6.317	CUE_PLAYBACK_RIGHT_HAND	        M3	2	n/a	n/a	n/a
515.42	n/a	RESPONSE	        M3	2	19	G4	press
515.631	n/a	RESPONSE	        M3	2	21	A4	press
515.723	n/a	RESPONSE	        M3	2	19	G4	release
515.875	n/a	RESPONSE	        M3	2	19	G4	press
516.135	n/a	RESPONSE	        M3	2	17	F4	press
516.148	n/a	RESPONSE	        M3	2	21	A4	release
516.398	n/a	RESPONSE	        M3	2	19	G4	release
516.719	n/a	RESPONSE	        M3	2	16	E4	press
516.89	n/a	RESPONSE	        M3	2	17	F4	release
517.171	n/a	RESPONSE	        M3	2	12	C4	press
517.385	n/a	RESPONSE	        M3	2	16	E4	release
517.544	n/a	RESPONSE	        M3	2	12	C4	release
517.586	n/a	RESPONSE	        M3	2	19	G4	press
517.806	n/a	RESPONSE	        M3	2	21	A4	press
517.86	n/a	RESPONSE	        M3	2	19	G4	release
518.039	n/a	RESPONSE	        M3	2	19	G4	press
518.23	n/a	RESPONSE	        M3	2	21	A4	release
518.261	n/a	RESPONSE	        M3	2	17	F4	press
518.443	n/a	RESPONSE	        M3	2	19	G4	release
518.515	n/a	RESPONSE	        M3	2	16	E4	press
518.656	n/a	RESPONSE	        M3	2	17	F4	release
518.946	n/a	RESPONSE	        M3	2	12	C4	press
519.13	n/a	RESPONSE	        M3	2	16	E4	release
519.309	n/a	RESPONSE	        M3	2	12	C4	release
519.39	n/a	RESPONSE	        M3	2	12	C4	press
519.821	n/a	RESPONSE	        M3	2	09	A3	press
519.964	n/a	RESPONSE	        M3	2	12	C4	release
520.344	n/a	RESPONSE	        M3	2	12	C4	press
520.455	n/a	RESPONSE	        M3	2	09	A3	release
520.889	7.758	FIXCROSS	n/a	n/a	n/a	n/a	n/a
520.976	n/a	RESPONSE	        M3	2	12	C4	release
521.699	n/a	RESPONSE	        M3	2	12	C4	press
522.094	n/a	RESPONSE	        M3	2	07	G3	press
522.28	n/a	RESPONSE	        M3	2	12	C4	release
522.475	n/a	RESPONSE	        M3	2	12	C4	press
522.82	n/a	RESPONSE	        M3	2	07	G3	release
523.155	n/a	RESPONSE	        M3	2	12	C4	release
528.648	6.325	CUE_LISTEN	        M5	1	n/a	n/a	n/a
534.973	7.758	FIXCROSS	n/a	n/a	n/a	n/a	n/a
536.874	n/a	RESPONSE	        M5	1	05	F3	press
537.345	n/a	RESPONSE	        M5	1	09	A3	press
537.586	n/a	RESPONSE	        M5	1	09	A3	release
537.728	n/a	RESPONSE	        M5	1	05	F3	release
542.731	6.317	CUE_PLAYBACK_BOTH_HANDS	        M5	1	n/a	n/a	n/a
543.223	n/a	RESPONSE	        M5	1	21	A4	press
543.225	n/a	RESPONSE	        M5	1	05	F3	press
543.479	n/a	RESPONSE	        M5	1	21	A4	release
543.555	n/a	RESPONSE	        M5	1	09	A3	press
543.571	n/a	RESPONSE	        M5	1	21	A4	press
543.664	n/a	RESPONSE	        M5	1	05	F3	release
543.796	n/a	RESPONSE	        M5	1	21	A4	release
543.918	n/a	RESPONSE	        M5	1	04	E3	press
543.933	n/a	RESPONSE	        M5	1	21	A4	press
543.936	n/a	RESPONSE	        M5	1	09	A3	release
544.301	n/a	RESPONSE	        M5	1	09	A3	press
544.486	n/a	RESPONSE	        M5	1	04	E3	release
544.5	n/a	RESPONSE	        M5	1	21	A4	release
544.651	n/a	RESPONSE	        M5	1	21	A4	press
544.656	n/a	RESPONSE	        M5	1	02	D3	press
544.683	n/a	RESPONSE	        M5	1	09	A3	release
544.925	n/a	RESPONSE	        M5	1	21	A4	release
544.999	n/a	RESPONSE	        M5	1	09	A3	press
545.031	n/a	RESPONSE	        M5	1	02	D3	release
545.034	n/a	RESPONSE	        M5	1	21	A4	press
545.225	n/a	RESPONSE	        M5	1	21	A4	release
545.346	n/a	RESPONSE	        M5	1	00	C3	press
545.369	n/a	RESPONSE	        M5	1	21	A4	press
545.409	n/a	RESPONSE	        M5	1	09	A3	release
545.713	n/a	RESPONSE	        M5	1	09	A3	press
545.811	n/a	RESPONSE	        M5	1	00	C3	release
545.873	n/a	RESPONSE	        M5	1	21	A4	release
546.044	n/a	RESPONSE	        M5	1	05	F3	press
546.065	n/a	RESPONSE	        M5	1	21	A4	press
546.076	n/a	RESPONSE	        M5	1	09	A3	release
546.358	n/a	RESPONSE	        M5	1	24	C5	press
546.4	n/a	RESPONSE	        M5	1	09	A3	press
546.48	n/a	RESPONSE	        M5	1	05	F3	release
546.523	n/a	RESPONSE	        M5	1	21	A4	release
546.735	n/a	RESPONSE	        M5	1	17	F4	press
546.764	n/a	RESPONSE	        M5	1	04	E3	press
546.835	n/a	RESPONSE	        M5	1	09	A3	release
547.078	n/a	RESPONSE	        M5	1	24	C5	release
547.098	n/a	RESPONSE	        M5	1	09	A3	press
547.149	n/a	RESPONSE	        M5	1	19	G4	press
547.19	n/a	RESPONSE	        M5	1	04	E3	release
547.201	n/a	RESPONSE	        M5	1	17	F4	release
547.485	n/a	RESPONSE	        M5	1	02	D3	press
547.494	n/a	RESPONSE	        M5	1	21	A4	press
547.535	n/a	RESPONSE	        M5	1	09	A3	release
547.589	n/a	RESPONSE	        M5	1	19	G4	release
547.84	n/a	RESPONSE	        M5	1	09	A3	press
547.929	n/a	RESPONSE	        M5	1	02	D3	release
548.19	n/a	RESPONSE	        M5	1	00	C3	press
548.291	n/a	RESPONSE	        M5	1	09	A3	release
548.533	n/a	RESPONSE	        M5	1	09	A3	press
548.595	n/a	RESPONSE	        M5	1	00	C3	release
549.045	n/a	RESPONSE	        M5	1	09	A3	release
549.048	7.758	FIXCROSS	n/a	n/a	n/a	n/a	n/a
549.066	n/a	RESPONSE	        M5	1	21	A4	release
556.806	6.317	CUE_LISTEN	        M5	2	n/a	n/a	n/a
563.123	7.759	FIXCROSS	n/a	n/a	n/a	n/a	n/a
570.881	6.325	CUE_PLAYBACK_BOTH_HANDS	        M5	2	n/a	n/a	n/a
571.698	n/a	RESPONSE	        M5	2	04	E3	press
571.706	n/a	RESPONSE	        M5	2	22	A#4	press
572.013	n/a	RESPONSE	        M5	2	22	A#4	release
572.06	n/a	RESPONSE	        M5	2	08	G#3	press
572.113	n/a	RESPONSE	        M5	2	22	A#4	press
572.228	n/a	RESPONSE	        M5	2	04	E3	release
572.266	n/a	RESPONSE	        M5	2	08	G#3	release
572.319	n/a	RESPONSE	        M5	2	22	A#4	release
572.525	n/a	RESPONSE	        M5	2	22	A#4	press
572.528	n/a	RESPONSE	        M5	2	04	E3	press
572.77	n/a	RESPONSE	        M5	2	22	A#4	release
572.89	n/a	RESPONSE	        M5	2	08	G#3	press
572.896	n/a	RESPONSE	        M5	2	22	A#4	press
573.011	n/a	RESPONSE	        M5	2	08	G#3	release
573.089	n/a	RESPONSE	        M5	2	22	A#4	release
573.235	n/a	RESPONSE	        M5	2	04	E3	release
573.729	n/a	RESPONSE	        M5	2	22	A#4	press
573.773	n/a	RESPONSE	        M5	2	04	E3	press
573.958	n/a	RESPONSE	        M5	2	22	A#4	release
574.014	n/a	RESPONSE	        M5	2	08	G#3	press
574.049	n/a	RESPONSE	        M5	2	22	A#4	press
574.195	n/a	RESPONSE	        M5	2	04	E3	release
574.233	n/a	RESPONSE	        M5	2	22	A#4	release
574.345	n/a	RESPONSE	        M5	2	08	G#3	release
574.429	n/a	RESPONSE	        M5	2	22	A#4	press
574.61	n/a	RESPONSE	        M5	2	02	D3	press
574.694	n/a	RESPONSE	        M5	2	22	A#4	release
574.859	n/a	RESPONSE	        M5	2	22	A#4	press
574.875	n/a	RESPONSE	        M5	2	08	G#3	press
574.886	n/a	RESPONSE	        M5	2	02	D3	release
575.064	n/a	RESPONSE	        M5	2	22	A#4	release
575.188	n/a	RESPONSE	        M5	2	08	G#3	release
575.2	n/a	RESPONSE	        M5	2	22	A#4	press
575.571	n/a	RESPONSE	        M5	2	07	G3	press
575.603	n/a	RESPONSE	        M5	2	21	A4	press
575.615	n/a	RESPONSE	        M5	2	22	A#4	release
575.815	n/a	RESPONSE	        M5	2	21	A4	release
575.956	n/a	RESPONSE	        M5	2	21	A4	press
575.988	n/a	RESPONSE	        M5	2	07	G3	release
576.021	n/a	RESPONSE	        M5	2	00	C3	press
576.12	n/a	RESPONSE	        M5	2	00	C3	release
576.191	n/a	RESPONSE	        M5	2	21	A4	release
576.385	n/a	RESPONSE	        M5	2	21	A4	press
576.394	n/a	RESPONSE	        M5	2	00	C3	press
576.658	n/a	RESPONSE	        M5	2	00	C3	release
576.716	n/a	RESPONSE	        M5	2	21	A4	release
576.778	n/a	RESPONSE	        M5	2	24	C5	press
576.809	n/a	RESPONSE	        M5	2	00	C3	press
577.07	n/a	RESPONSE	        M5	2	24	C5	release
577.151	n/a	RESPONSE	        M5	2	07	G3	press
577.154	n/a	RESPONSE	        M5	2	24	C5	press
577.206	7.758	FIXCROSS	n/a	n/a	n/a	n/a	n/a
577.355	n/a	RESPONSE	        M5	2	24	C5	release
577.375	n/a	RESPONSE	        M5	2	00	C3	release
577.556	n/a	RESPONSE	        M5	2	22	A#4	press
577.559	n/a	RESPONSE	        M5	2	04	E3	press
577.689	n/a	RESPONSE	        M5	2	07	G3	release
577.94	n/a	RESPONSE	        M5	2	07	G3	press
577.943	n/a	RESPONSE	        M5	2	19	G4	press
578.093	n/a	RESPONSE	        M5	2	04	E3	release
578.154	n/a	RESPONSE	        M5	2	22	A#4	release
578.275	n/a	RESPONSE	        M5	2	17	F4	press
578.296	n/a	RESPONSE	        M5	2	05	F3	press
578.368	n/a	RESPONSE	        M5	2	19	G4	release
578.379	n/a	RESPONSE	        M5	2	07	G3	release
578.86	n/a	RESPONSE	        M5	2	05	F3	release
579.043	n/a	RESPONSE	        M5	2	17	F4	release
584.965	6.317	CUE_LISTEN	        M1	1	n/a	n/a	n/a
590.028	n/a	RESPONSE	        M1	1	00	C3	press
591.281	7.759	FIXCROSS	n/a	n/a	n/a	n/a	n/a
592.04	n/a	RESPONSE	        M1	1	00	C3	release
599.04	6.317	CUE_PLAYBACK_BOTH_HANDS	        M1	1	n/a	n/a	n/a
599.655	n/a	RESPONSE	        M1	1	04	E3	press
599.664	n/a	RESPONSE	        M1	1	19	G4	press
599.676	n/a	RESPONSE	        M1	1	07	G3	press
600.159	n/a	RESPONSE	        M1	1	16	E4	press
600.22	n/a	RESPONSE	        M1	1	19	G4	release
600.443	n/a	RESPONSE	        M1	1	16	E4	release
600.603	n/a	RESPONSE	        M1	1	16	E4	press
600.774	n/a	RESPONSE	        M1	1	04	E3	release
600.865	n/a	RESPONSE	        M1	1	16	E4	release
600.986	n/a	RESPONSE	        M1	1	02	D3	press
600.998	n/a	RESPONSE	        M1	1	17	F4	press
601.039	n/a	RESPONSE	        M1	1	05	F3	press
601.46	n/a	RESPONSE	        M1	1	14	D4	press
601.635	n/a	RESPONSE	        M1	1	17	F4	release
601.723	n/a	RESPONSE	        M1	1	14	D4	release
601.879	n/a	RESPONSE	        M1	1	14	D4	press
602.073	n/a	RESPONSE	        M1	1	05	F3	release
602.108	n/a	RESPONSE	        M1	1	14	D4	release
602.115	n/a	RESPONSE	        M1	1	02	D3	release
602.191	n/a	RESPONSE	        M1	1	07	G3	release
602.244	n/a	RESPONSE	        M1	1	04	E3	press
602.251	n/a	RESPONSE	        M1	1	12	C4	press
602.314	n/a	RESPONSE	        M1	1	00	C3	press
602.321	n/a	RESPONSE	        M1	1	07	G3	press
602.513	n/a	RESPONSE	        M1	1	16	E4	press
602.618	n/a	RESPONSE	        M1	1	12	C4	release
602.74	n/a	RESPONSE	        M1	1	19	G4	press
603.068	n/a	RESPONSE	        M1	1	16	E4	release
603.39	n/a	RESPONSE	        M1	1	19	G4	release
603.419	n/a	RESPONSE	        M1	1	00	C3	release
604.348	n/a	RESPONSE	        M1	1	07	G3	release
604.48	n/a	RESPONSE	        M1	1	04	E3	release
605.356	7.758	FIXCROSS	n/a	n/a	n/a	n/a	n/a
613.115	6.325	CUE_LISTEN	        M1	2	n/a	n/a	n/a
619.44	7.758	FIXCROSS	n/a	n/a	n/a	n/a	n/a
627.198	6.317	CUE_PLAYBACK_BOTH_HANDS	        M1	2	n/a	n/a	n/a
627.716	n/a	RESPONSE	        M1	2	19	G4	press
627.719	n/a	RESPONSE	        M1	2	04	E3	press
627.721	n/a	RESPONSE	        M1	2	07	G3	press
627.993	n/a	RESPONSE	        M1	2	00	C3	press
628.183	n/a	RESPONSE	        M1	2	16	E4	press
628.293	n/a	RESPONSE	        M1	2	19	G4	release
628.474	n/a	RESPONSE	        M1	2	16	E4	release
628.576	n/a	RESPONSE	        M1	2	00	C3	release
628.636	n/a	RESPONSE	        M1	2	16	E4	press
628.808	n/a	RESPONSE	        M1	2	04	E3	release
628.879	n/a	RESPONSE	        M1	2	16	E4	release
629.01	n/a	RESPONSE	        M1	2	02	D3	press
629.021	n/a	RESPONSE	        M1	2	17	F4	press
629.033	n/a	RESPONSE	        M1	2	05	F3	press
629.454	n/a	RESPONSE	        M1	2	14	D4	press
629.545	n/a	RESPONSE	        M1	2	17	F4	release
629.666	n/a	RESPONSE	        M1	2	14	D4	release
629.848	n/a	RESPONSE	        M1	2	14	D4	press
630.089	n/a	RESPONSE	        M1	2	05	F3	release
630.12	n/a	RESPONSE	        M1	2	02	D3	release
630.123	n/a	RESPONSE	        M1	2	14	D4	release
630.153	n/a	RESPONSE	        M1	2	07	G3	release
630.264	n/a	RESPONSE	        M1	2	04	E3	press
630.266	n/a	RESPONSE	        M1	2	12	C4	press
630.278	n/a	RESPONSE	        M1	2	00	C3	press
630.298	n/a	RESPONSE	        M1	2	07	G3	press
630.51	n/a	RESPONSE	        M1	2	16	E4	press
630.6	n/a	RESPONSE	        M1	2	12	C4	release
630.761	n/a	RESPONSE	        M1	2	12	C4	press
630.833	n/a	RESPONSE	        M1	2	16	E4	release
631.364	n/a	RESPONSE	        M1	2	12	C4	release
631.386	n/a	RESPONSE	        M1	2	04	E3	release
631.446	n/a	RESPONSE	        M1	2	07	G3	release
631.478	n/a	RESPONSE	        M1	2	00	C3	release
633.515	7.758	FIXCROSS	n/a	n/a	n/a	n/a	n/a
641.273	6.317	CUE_LISTEN	        M7	1	n/a	n/a	n/a
647.59	7.758	FIXCROSS	n/a	n/a	n/a	n/a	n/a
655.348	6.325	CUE_PLAYBACK_RIGHT_HAND	        M7	1	n/a	n/a	n/a
656.15	n/a	RESPONSE	        M7	1	22	A#4	press
656.72	n/a	RESPONSE	        M7	1	21	A4	press
657.271	n/a	RESPONSE	        M7	1	19	G4	press
657.323	n/a	RESPONSE	        M7	1	22	A#4	release
657.354	n/a	RESPONSE	        M7	1	21	A4	release
657.855	n/a	RESPONSE	        M7	1	21	A4	press
657.906	n/a	RESPONSE	        M7	1	19	G4	release
658.449	n/a	RESPONSE	        M7	1	14	D4	press
658.649	n/a	RESPONSE	        M7	1	21	A4	release
658.812	n/a	RESPONSE	        M7	1	14	D4	release
659.061	n/a	RESPONSE	        M7	1	14	D4	press
659.585	n/a	RESPONSE	        M7	1	14	D4	release
659.634	n/a	RESPONSE	        M7	1	19	G4	press
660.175	n/a	RESPONSE	        M7	1	19	G4	release
660.236	n/a	RESPONSE	        M7	1	07	G3	press
660.25	n/a	RESPONSE	        M7	1	09	A3	press
660.439	n/a	RESPONSE	        M7	1	09	A3	release
660.59	n/a	RESPONSE	        M7	1	07	G3	release
660.751	n/a	RESPONSE	        M7	1	07	G3	press
661.092	n/a	RESPONSE	        M7	1	07	G3	release
661.124	n/a	RESPONSE	        M7	1	09	A3	press
661.388	n/a	RESPONSE	        M7	1	10	A#3	press
661.486	n/a	RESPONSE	        M7	1	09	A3	release
661.673	7.758	FIXCROSS	n/a	n/a	n/a	n/a	n/a
661.683	n/a	RESPONSE	        M7	1	12	C4	press
661.744	n/a	RESPONSE	        M7	1	10	A#3	release
662.001	n/a	RESPONSE	        M7	1	14	D4	press
662.069	n/a	RESPONSE	        M7	1	12	C4	release
663.858	n/a	RESPONSE	        M7	1	14	D4	release
669.432	6.317	CUE_LISTEN	        M7	2	n/a	n/a	n/a
675.748	7.758	FIXCROSS	n/a	n/a	n/a	n/a	n/a
683.506	6.317	CUE_PLAYBACK_RIGHT_HAND	        M7	2	n/a	n/a	n/a
684.28	n/a	RESPONSE	        M7	2	15	D#4	press
684.783	n/a	RESPONSE	        M7	2	17	F4	press
684.884	n/a	RESPONSE	        M7	2	15	D#4	release
685.099	n/a	RESPONSE	        M7	2	15	D#4	press
685.365	n/a	RESPONSE	        M7	2	14	D4	press
685.404	n/a	RESPONSE	        M7	2	17	F4	release
685.515	n/a	RESPONSE	        M7	2	15	D#4	release
685.656	n/a	RESPONSE	        M7	2	12	C4	press
685.788	n/a	RESPONSE	        M7	2	14	D4	release
685.999	n/a	RESPONSE	        M7	2	14	D4	press
686.041	n/a	RESPONSE	        M7	2	12	C4	release
686.541	n/a	RESPONSE	        M7	2	15	D#4	press
686.634	n/a	RESPONSE	        M7	2	14	D4	release
686.824	n/a	RESPONSE	        M7	2	17	F4	press
686.925	n/a	RESPONSE	        M7	2	15	D#4	release
687.336	n/a	RESPONSE	        M7	2	17	F4	release
687.408	n/a	RESPONSE	        M7	2	15	D#4	press
687.689	n/a	RESPONSE	        M7	2	14	D4	press
687.903	n/a	RESPONSE	        M7	2	15	D#4	release
687.961	n/a	RESPONSE	        M7	2	12	C4	press
688.053	n/a	RESPONSE	        M7	2	14	D4	release
688.284	n/a	RESPONSE	        M7	2	12	C4	release
688.336	n/a	RESPONSE	        M7	2	15	D#4	press
689.196	n/a	RESPONSE	        M7	2	15	D#4	release
689.738	n/a	RESPONSE	        M7	2	17	F4	press
689.823	7.758	FIXCROSS	n/a	n/a	n/a	n/a	n/a
690.309	n/a	RESPONSE	        M7	2	17	F4	release
697.582	6.325	CUE_LISTEN	        M4	1	n/a	n/a	n/a
703.906	7.758	FIXCROSS	n/a	n/a	n/a	n/a	n/a
711.665	6.317	CUE_PLAYBACK_RIGHT_HAND	        M4	1	n/a	n/a	n/a
712.09	n/a	RESPONSE	        M4	1	14	D4	press
712.605	n/a	RESPONSE	        M4	1	14	D4	release
712.794	n/a	RESPONSE	        M4	1	14	D4	press
712.972	n/a	RESPONSE	        M4	1	14	D4	release
713.099	n/a	RESPONSE	        M4	1	12	C4	press
713.128	n/a	RESPONSE	        M4	1	14	D4	press
713.471	n/a	RESPONSE	        M4	1	14	D4	release
713.526	n/a	RESPONSE	        M4	1	12	C4	release
713.612	n/a	RESPONSE	        M4	1	19	G4	press
714.19	n/a	RESPONSE	        M4	1	19	G4	release
714.415	n/a	RESPONSE	        M4	1	17	F4	press
714.788	n/a	RESPONSE	        M4	1	21	A4	press
714.89	n/a	RESPONSE	        M4	1	17	F4	release
714.932	n/a	RESPONSE	        M4	1	23	B4	press
715.419	n/a	RESPONSE	        M4	1	19	G4	press
715.461	n/a	RESPONSE	        M4	1	23	B4	release
715.57	n/a	RESPONSE	        M4	1	21	A4	release
715.691	n/a	RESPONSE	        M4	1	17	F4	press
715.802	n/a	RESPONSE	        M4	1	19	G4	release
716.044	n/a	RESPONSE	        M4	1	16	E4	press
716.235	n/a	RESPONSE	        M4	1	17	F4	release
716.396	n/a	RESPONSE	        M4	1	16	E4	release
717.982	7.758	FIXCROSS	n/a	n/a	n/a	n/a	n/a
719.599	n/a	RESPONSE	        M4	1	17	F4	press
721.48	n/a	RESPONSE	        M4	1	17	F4	release
725.74	6.325	CUE_LISTEN	        M4	2	n/a	n/a	n/a
732.065	7.758	FIXCROSS	n/a	n/a	n/a	n/a	n/a
732.722	n/a	RESPONSE	        M4	2	16	E4	press
733.172	n/a	RESPONSE	        M4	2	16	E4	release
733.605	n/a	RESPONSE	        M4	2	17	F4	press
735.439	n/a	RESPONSE	        M4	2	17	F4	release
739.823	6.317	CUE_PLAYBACK_RIGHT_HAND	        M4	2	n/a	n/a	n/a
740.182	n/a	RESPONSE	        M4	2	17	F4	press
740.624	n/a	RESPONSE	        M4	2	21	A4	press
741.155	n/a	RESPONSE	        M4	2	22	A#4	press
741.246	n/a	RESPONSE	        M4	2	21	A4	release
741.309	n/a	RESPONSE	        M4	2	17	F4	release
741.59	n/a	RESPONSE	        M4	2	21	A4	press
742.198	n/a	RESPONSE	        M4	2	22	A#4	release
742.224	n/a	RESPONSE	        M4	2	19	G4	press
742.264	n/a	RESPONSE	        M4	2	21	A4	release
742.604	n/a	RESPONSE	        M4	2	16	E4	press
742.764	n/a	RESPONSE	        M4	2	19	G4	release
743.129	n/a	RESPONSE	        M4	2	19	G4	press
743.186	n/a	RESPONSE	        M4	2	16	E4	release
743.541	n/a	RESPONSE	        M4	2	19	G4	release
743.812	n/a	RESPONSE	        M4	2	14	D4	press
744.561	n/a	RESPONSE	        M4	2	17	F4	press
744.572	n/a	RESPONSE	        M4	2	14	D4	release
745.362	n/a	RESPONSE	        M4	2	17	F4	release
745.654	n/a	RESPONSE	        M4	2	23	B4	press
746.14	7.758	FIXCROSS	n/a	n/a	n/a	n/a	n/a
746.495	n/a	RESPONSE	        M4	2	23	B4	release
753.898	6.317	CUE_LISTEN	        M2	1	n/a	n/a	n/a
760.215	7.758	FIXCROSS	n/a	n/a	n/a	n/a	n/a
760.735	n/a	RESPONSE	        M2	1	00	C3	press
761.236	n/a	RESPONSE	        M2	1	00	C3	release
761.338	n/a	RESPONSE	        M2	1	02	D3	press
761.499	n/a	RESPONSE	        M2	1	04	E3	press
761.6	n/a	RESPONSE	        M2	1	02	D3	release
765.444	n/a	RESPONSE	        M2	1	04	E3	release
767.973	6.325	CUE_PLAYBACK_BOTH_HANDS	        M2	1	n/a	n/a	n/a
768.528	n/a	RESPONSE	        M2	1	00	C3	press
768.53	n/a	RESPONSE	        M2	1	24	C5	press
768.549	n/a	RESPONSE	        M2	1	07	G3	press
768.892	n/a	RESPONSE	        M2	1	19	G4	press
768.921	n/a	RESPONSE	        M2	1	21	A4	press
769.102	n/a	RESPONSE	        M2	1	21	A4	release
769.126	n/a	RESPONSE	        M2	1	07	G3	release
769.135	n/a	RESPONSE	        M2	1	19	G4	release
769.186	n/a	RESPONSE	        M2	1	00	C3	release
769.278	n/a	RESPONSE	        M2	1	24	C5	release
769.35	n/a	RESPONSE	        M2	1	24	C5	press
769.352	n/a	RESPONSE	        M2	1	00	C3	press
769.371	n/a	RESPONSE	        M2	1	07	G3	press
769.692	n/a	RESPONSE	        M2	1	21	A4	press
769.704	n/a	RESPONSE	        M2	1	19	G4	press
769.895	n/a	RESPONSE	        M2	1	19	G4	release
769.916	n/a	RESPONSE	        M2	1	21	A4	release
770.008	n/a	RESPONSE	        M2	1	07	G3	release
770.011	n/a	RESPONSE	        M2	1	00	C3	release
770.2	n/a	RESPONSE	        M2	1	24	C5	release
770.291	n/a	RESPONSE	        M2	1	24	C5	press
770.302	n/a	RESPONSE	        M2	1	00	C3	press
770.305	n/a	RESPONSE	        M2	1	07	G3	press
770.565	n/a	RESPONSE	        M2	1	19	G4	press
770.766	n/a	RESPONSE	        M2	1	19	G4	release
770.769	n/a	RESPONSE	        M2	1	07	G3	release
770.779	n/a	RESPONSE	        M2	1	00	C3	release
770.89	n/a	RESPONSE	        M2	1	00	C3	press
770.892	n/a	RESPONSE	        M2	1	19	G4	press
770.902	n/a	RESPONSE	        M2	1	07	G3	press
771.154	n/a	RESPONSE	        M2	1	17	F4	press
771.325	n/a	RESPONSE	        M2	1	19	G4	release
771.346	n/a	RESPONSE	        M2	1	07	G3	release
771.35	n/a	RESPONSE	        M2	1	00	C3	release
771.479	n/a	RESPONSE	        M2	1	07	G3	press
771.483	n/a	RESPONSE	        M2	1	16	E4	press
771.501	n/a	RESPONSE	        M2	1	00	C3	press
771.609	n/a	RESPONSE	        M2	1	16	E4	release
771.741	n/a	RESPONSE	        M2	1	17	F4	release
771.839	n/a	RESPONSE	        M2	1	24	C5	release
771.851	n/a	RESPONSE	        M2	1	17	F4	press
771.911	n/a	RESPONSE	        M2	1	00	C3	release
772.084	n/a	RESPONSE	        M2	1	07	G3	release
772.159	n/a	RESPONSE	        M2	1	19	G4	press
772.161	n/a	RESPONSE	        M2	1	00	C3	press
772.178	n/a	RESPONSE	        M2	1	07	G3	press
772.245	n/a	RESPONSE	        M2	1	17	F4	release
772.534	n/a	RESPONSE	        M2	1	19	G4	release
772.595	n/a	RESPONSE	        M2	1	00	C3	release
772.651	n/a	RESPONSE	        M2	1	07	G3	release
772.708	n/a	RESPONSE	        M2	1	24	C5	press
772.725	n/a	RESPONSE	        M2	1	00	C3	press
772.755	n/a	RESPONSE	        M2	1	07	G3	press
773.05	n/a	RESPONSE	        M2	1	19	G4	press
773.241	n/a	RESPONSE	        M2	1	07	G3	release
773.249	n/a	RESPONSE	        M2	1	00	C3	release
773.261	n/a	RESPONSE	        M2	1	24	C5	release
773.295	n/a	RESPONSE	        M2	1	19	G4	release
773.36	n/a	RESPONSE	        M2	1	00	C3	press
773.372	n/a	RESPONSE	        M2	1	07	G3	press
773.382	n/a	RESPONSE	        M2	1	19	G4	press
773.654	n/a	RESPONSE	        M2	1	17	F4	press
773.746	n/a	RESPONSE	        M2	1	19	G4	release
773.835	n/a	RESPONSE	        M2	1	07	G3	release
773.862	n/a	RESPONSE	        M2	1	00	C3	release
773.945	n/a	RESPONSE	        M2	1	16	E4	press
773.948	n/a	RESPONSE	        M2	1	07	G3	press
773.96	n/a	RESPONSE	        M2	1	00	C3	press
773.982	n/a	RESPONSE	        M2	1	17	F4	release
774.216	n/a	RESPONSE	        M2	1	14	D4	press
774.298	7.758	FIXCROSS	n/a	n/a	n/a	n/a	n/a
774.365	n/a	RESPONSE	        M2	1	16	E4	release
774.368	n/a	RESPONSE	        M2	1	00	C3	release
774.395	n/a	RESPONSE	        M2	1	07	G3	release
774.522	n/a	RESPONSE	        M2	1	00	C3	press
774.528	n/a	RESPONSE	        M2	1	07	G3	press
774.548	n/a	RESPONSE	        M2	1	12	C4	press
774.639	n/a	RESPONSE	        M2	1	14	D4	release
775.014	n/a	RESPONSE	        M2	1	00	C3	release
775.136	n/a	RESPONSE	        M2	1	12	C4	release
778.538	n/a	RESPONSE	        M2	1	07	G3	release
782.057	6.317	CUE_LISTEN	        M2	2	n/a	n/a	n/a
788.373	7.758	FIXCROSS	n/a	n/a	n/a	n/a	n/a
796.132	6.317	CUE_PLAYBACK_BOTH_HANDS	        M2	2	n/a	n/a	n/a
797.011	n/a	RESPONSE	        M2	2	00	C3	press
797.042	n/a	RESPONSE	        M2	2	07	G3	press
797.046	n/a	RESPONSE	        M2	2	12	C4	press
797.415	n/a	RESPONSE	        M2	2	14	D4	press
797.466	n/a	RESPONSE	        M2	2	12	C4	release
797.598	n/a	RESPONSE	        M2	2	07	G3	release
797.65	n/a	RESPONSE	        M2	2	00	C3	release
797.741	n/a	RESPONSE	        M2	2	00	C3	press
797.761	n/a	RESPONSE	        M2	2	16	E4	press
797.765	n/a	RESPONSE	        M2	2	07	G3	press
797.785	n/a	RESPONSE	        M2	2	14	D4	release
798.115	n/a	RESPONSE	        M2	2	14	D4	press
798.176	n/a	RESPONSE	        M2	2	16	E4	release
798.24	n/a	RESPONSE	        M2	2	00	C3	release
798.319	n/a	RESPONSE	        M2	2	07	G3	release
798.46	n/a	RESPONSE	        M2	2	16	E4	press
798.462	n/a	RESPONSE	        M2	2	00	C3	press
798.465	n/a	RESPONSE	        M2	2	14	D4	release
798.474	n/a	RESPONSE	        M2	2	07	G3	press
798.805	n/a	RESPONSE	        M2	2	17	F4	press
798.916	n/a	RESPONSE	        M2	2	16	E4	release
798.948	n/a	RESPONSE	        M2	2	00	C3	release
798.969	n/a	RESPONSE	        M2	2	07	G3	release
799.14	n/a	RESPONSE	        M2	2	19	G4	press
799.154	n/a	RESPONSE	        M2	2	00	C3	press
799.172	n/a	RESPONSE	        M2	2	07	G3	press
799.214	n/a	RESPONSE	        M2	2	17	F4	release
799.625	n/a	RESPONSE	        M2	2	00	C3	release
799.646	n/a	RESPONSE	        M2	2	07	G3	release
799.65	n/a	RESPONSE	        M2	2	19	G4	release
799.809	n/a	RESPONSE	        M2	2	00	C3	press
799.82	n/a	RESPONSE	        M2	2	07	G3	press
799.834	n/a	RESPONSE	        M2	2	16	E4	press
800.142	n/a	RESPONSE	        M2	2	19	G4	press
800.244	n/a	RESPONSE	        M2	2	16	E4	release
800.315	n/a	RESPONSE	        M2	2	00	C3	release
800.396	n/a	RESPONSE	        M2	2	07	G3	release
800.408	n/a	RESPONSE	        M2	2	19	G4	release
800.509	n/a	RESPONSE	        M2	2	00	C3	press
800.52	n/a	RESPONSE	        M2	2	07	G3	press
800.522	n/a	RESPONSE	        M2	2	19	G4	press
800.854	n/a	RESPONSE	        M2	2	17	F4	press
800.994	n/a	RESPONSE	        M2	2	00	C3	release
801.005	n/a	RESPONSE	        M2	2	07	G3	release
801.136	n/a	RESPONSE	        M2	2	19	G4	release
801.178	n/a	RESPONSE	        M2	2	00	C3	press
801.19	n/a	RESPONSE	        M2	2	07	G3	press
801.222	n/a	RESPONSE	        M2	2	16	E4	press
801.321	n/a	RESPONSE	        M2	2	17	F4	release
801.531	n/a	RESPONSE	        M2	2	14	D4	press
801.582	n/a	RESPONSE	        M2	2	16	E4	release
801.638	n/a	RESPONSE	        M2	2	00	C3	release
801.65	n/a	RESPONSE	        M2	2	07	G3	release
801.832	n/a	RESPONSE	        M2	2	00	C3	press
801.851	n/a	RESPONSE	        M2	2	07	G3	press
801.882	n/a	RESPONSE	        M2	2	12	C4	press
801.959	n/a	RESPONSE	        M2	2	14	D4	release
802.448	7.758	FIXCROSS	n/a	n/a	n/a	n/a	n/a
802.466	n/a	RESPONSE	        M2	2	00	C3	release
802.486	n/a	RESPONSE	        M2	2	12	C4	release
802.53	n/a	RESPONSE	        M2	2	07	G3	release
810.207	6.325	CUE_LISTEN	        M8	1	n/a	n/a	n/a
816.532	7.759	FIXCROSS	n/a	n/a	n/a	n/a	n/a
818.324	n/a	RESPONSE	        M8	1	16	E4	press
819.566	n/a	RESPONSE	        M8	1	14	D4	press
819.815	n/a	RESPONSE	        M8	1	16	E4	release
819.966	n/a	RESPONSE	        M8	1	14	D4	release
824.29	6.317	CUE_PLAYBACK_BOTH_HANDS	        M8	1	n/a	n/a	n/a
824.708	n/a	RESPONSE	        M8	1	16	E4	press
824.984	n/a	RESPONSE	        M8	1	19	G4	press
825.272	n/a	RESPONSE	        M8	1	23	B4	press
825.342	n/a	RESPONSE	        M8	1	16	E4	release
825.516	n/a	RESPONSE	        M8	1	19	G4	release
825.678	n/a	RESPONSE	        M8	1	23	B4	release
825.766	n/a	RESPONSE	        M8	1	23	B4	press
826.219	n/a	RESPONSE	        M8	1	09	A3	press
826.221	n/a	RESPONSE	        M8	1	18	F#4	press
826.342	n/a	RESPONSE	        M8	1	23	B4	release
826.491	n/a	RESPONSE	        M8	1	12	C4	press
826.732	n/a	RESPONSE	        M8	1	09	A3	release
826.765	n/a	RESPONSE	        M8	1	21	A4	press
826.795	n/a	RESPONSE	        M8	1	16	E4	press
826.876	n/a	RESPONSE	        M8	1	12	C4	release
826.88	n/a	RESPONSE	        M8	1	18	F#4	release
827.099	n/a	RESPONSE	        M8	1	16	E4	release
827.28	n/a	RESPONSE	        M8	1	16	E4	press
827.721	n/a	RESPONSE	        M8	1	23	B4	press
827.732	n/a	RESPONSE	        M8	1	15	D#4	press
827.804	n/a	RESPONSE	        M8	1	16	E4	release
827.825	n/a	RESPONSE	        M8	1	21	A4	release
828.219	n/a	RESPONSE	        M8	1	11	B3	press
828.358	n/a	RESPONSE	        M8	1	15	D#4	release
828.36	n/a	RESPONSE	        M8	1	21	A4	press
828.66	n/a	RESPONSE	        M8	1	19	G4	press
828.681	n/a	RESPONSE	        M8	1	23	B4	release
828.902	n/a	RESPONSE	        M8	1	11	B3	release
828.916	n/a	RESPONSE	        M8	1	18	F#4	press
829.035	n/a	RESPONSE	        M8	1	21	A4	release
829.157	n/a	RESPONSE	        M8	1	19	G4	release
829.458	n/a	RESPONSE	        M8	1	18	F#4	release
829.46	n/a	RESPONSE	        M8	1	19	G4	press
829.94	n/a	RESPONSE	        M8	1	16	E4	press
829.944	n/a	RESPONSE	        M8	1	19	G4	release
830.414	n/a	RESPONSE	        M8	1	12	C4	press
830.607	7.758	FIXCROSS	n/a	n/a	n/a	n/a	n/a
830.914	n/a	RESPONSE	        M8	1	23	B4	press
830.925	n/a	RESPONSE	        M8	1	11	B3	press
830.976	n/a	RESPONSE	        M8	1	12	C4	release
831.248	n/a	RESPONSE	        M8	1	11	B3	release
831.321	n/a	RESPONSE	        M8	1	16	E4	release
831.34	n/a	RESPONSE	        M8	1	23	B4	release
831.394	n/a	RESPONSE	        M8	1	23	B4	press
831.912	n/a	RESPONSE	        M8	1	23	B4	release
838.365	6.317	CUE_LISTEN	        M8	2	n/a	n/a	n/a
844.682	7.758	FIXCROSS	n/a	n/a	n/a	n/a	n/a
852.44	6.325	CUE_PLAYBACK_BOTH_HANDS	        M8	2	n/a	n/a	n/a
852.779	n/a	RESPONSE	        M8	2	16	E4	press
853.011	n/a	RESPONSE	        M8	2	19	G4	press
853.274	n/a	RESPONSE	        M8	2	23	B4	press
853.366	n/a	RESPONSE	        M8	2	16	E4	release
853.488	n/a	RESPONSE	        M8	2	19	G4	release
853.612	n/a	RESPONSE	        M8	2	23	B4	release
853.734	n/a	RESPONSE	        M8	2	23	B4	press
854.194	n/a	RESPONSE	        M8	2	18	F#4	press
854.196	n/a	RESPONSE	        M8	2	09	A3	press
854.329	n/a	RESPONSE	        M8	2	23	B4	release
854.472	n/a	RESPONSE	        M8	2	12	C4	press
854.729	n/a	RESPONSE	        M8	2	21	A4	press
854.755	n/a	RESPONSE	        M8	2	16	E4	press
854.846	n/a	RESPONSE	        M8	2	18	F#4	release
854.864	n/a	RESPONSE	        M8	2	12	C4	release
854.906	n/a	RESPONSE	        M8	2	09	A3	release
855.007	n/a	RESPONSE	        M8	2	16	E4	release
855.226	n/a	RESPONSE	        M8	2	16	E4	press
855.659	n/a	RESPONSE	        M8	2	23	B4	press
855.669	n/a	RESPONSE	        M8	2	15	D#4	press
855.752	n/a	RESPONSE	        M8	2	21	A4	release
855.801	n/a	RESPONSE	        M8	2	16	E4	release
856.182	n/a	RESPONSE	        M8	2	11	B3	press
856.206	n/a	RESPONSE	        M8	2	12	C4	press
856.295	n/a	RESPONSE	        M8	2	15	D#4	release
856.356	n/a	RESPONSE	        M8	2	12	C4	release
856.359	n/a	RESPONSE	        M8	2	21	A4	press
856.669	n/a	RESPONSE	        M8	2	19	G4	press
856.682	n/a	RESPONSE	        M8	2	23	B4	release
856.854	n/a	RESPONSE	        M8	2	11	B3	release
856.964	n/a	RESPONSE	        M8	2	18	F#4	press
857.064	n/a	RESPONSE	        M8	2	19	G4	release
857.086	n/a	RESPONSE	        M8	2	21	A4	release
857.236	n/a	RESPONSE	        M8	2	19	G4	press
857.808	n/a	RESPONSE	        M8	2	12	C4	press
858.05	n/a	RESPONSE	        M8	2	19	G4	release
858.15	n/a	RESPONSE	        M8	2	18	F#4	release
858.292	n/a	RESPONSE	        M8	2	11	B3	press
858.312	n/a	RESPONSE	        M8	2	16	E4	press
858.354	n/a	RESPONSE	        M8	2	12	C4	release
858.765	7.758	FIXCROSS	n/a	n/a	n/a	n/a	n/a
858.785	n/a	RESPONSE	        M8	2	07	G3	press
859.169	n/a	RESPONSE	        M8	2	04	E3	press
859.257	n/a	RESPONSE	        M8	2	05	F3	press
859.789	n/a	RESPONSE	        M8	2	05	F3	release
859.81	n/a	RESPONSE	        M8	2	11	B3	release
859.831	n/a	RESPONSE	        M8	2	07	G3	release
859.882	n/a	RESPONSE	        M8	2	04	E3	release
860.514	n/a	RESPONSE	        M8	2	16	E4	release
866.524	6.317	CUE_LISTEN	        M6	1	n/a	n/a	n/a
872.84	7.758	FIXCROSS	n/a	n/a	n/a	n/a	n/a
880.599	6.317	CUE_PLAYBACK_RIGHT_HAND	        M6	1	n/a	n/a	n/a
881.074	n/a	RESPONSE	        M6	1	19	G4	press
881.265	n/a	RESPONSE	        M6	1	18	F#4	press
881.356	n/a	RESPONSE	        M6	1	19	G4	release
881.497	n/a	RESPONSE	        M6	1	19	G4	press
881.544	n/a	RESPONSE	        M6	1	18	F#4	release
881.855	n/a	RESPONSE	        M6	1	23	B4	press
881.965	n/a	RESPONSE	        M6	1	19	G4	release
882.061	n/a	RESPONSE	        M6	1	24	C5	press
882.149	n/a	RESPONSE	        M6	1	23	B4	release
882.286	n/a	RESPONSE	        M6	1	23	B4	press
882.471	n/a	RESPONSE	        M6	1	24	C5	release
882.934	n/a	RESPONSE	        M6	1	23	B4	release
883.256	n/a	RESPONSE	        M6	1	18	F#4	press
883.469	n/a	RESPONSE	        M6	1	16	E4	press
883.535	n/a	RESPONSE	        M6	1	18	F#4	release
883.701	n/a	RESPONSE	        M6	1	18	F#4	press
883.792	n/a	RESPONSE	        M6	1	16	E4	release
884.066	n/a	RESPONSE	        M6	1	19	G4	press
884.106	n/a	RESPONSE	        M6	1	18	F#4	release
884.255	n/a	RESPONSE	        M6	1	21	A4	press
884.326	n/a	RESPONSE	        M6	1	19	G4	release
884.485	n/a	RESPONSE	        M6	1	19	G4	press
884.562	n/a	RESPONSE	        M6	1	21	A4	release
885.199	n/a	RESPONSE	        M6	1	19	G4	release
886.915	7.758	FIXCROSS	n/a	n/a	n/a	n/a	n/a
894.674	6.325	CUE_LISTEN	        M6	2	n/a	n/a	n/a
900.999	7.758	FIXCROSS	n/a	n/a	n/a	n/a	n/a
908.757	189.944	CUE_PLAYBACK_RIGHT_HAND	        M6	2	n/a	n/a	n/a
909.545	n/a	RESPONSE	        M6	2	24	C5	press
909.986	n/a	RESPONSE	        M6	2	24	C5	release
910.148	n/a	RESPONSE	        M6	2	23	B4	press
911.07	n/a	RESPONSE	        M6	2	21	A4	press
911.14	n/a	RESPONSE	        M6	2	23	B4	release
912.3	n/a	RESPONSE	        M6	2	21	A4	release
912.671	n/a	RESPONSE	        M6	2	23	B4	press
913.256	n/a	FIXCROSS	n/a	n/a	n/a	n/a	n/a
913.477	n/a	RESPONSE	        M6	2	21	A4	press
913.597	n/a	RESPONSE	        M6	2	23	B4	release
914.081	n/a	RESPONSE	        M6	2	21	A4	release
914.234	n/a	RESPONSE	        M6	2	23	B4	press
914.67	n/a	RESPONSE	        M6	2	20	G#4	press
914.744	n/a	RESPONSE	        M6	2	23	B4	release
915.154	n/a	RESPONSE	        M6	2	20	G#4	release
