onset	duration	trial_type	trial_number	stroop_condition	stim_text(PL)	stim_text(eng)	stim_color(PL)	stim_color(eng)	response_type	response_color
0.0	n/a	RESPONSE	n/a	n/a	n/a	n/a	n/a	n/a	n/a	n/a
0.0588	1.0167	ITI	n/a	n/a	n/a	n/a	n/a	n/a	n/a	n/a
1.0754	0.5167	FIXCROSS	n/a	n/a	n/a	n/a	n/a	n/a	n/a	n/a
1.5921	1.6167	T_INK	1	Neutral	xxxxxxxx	xxxxxxxx	niebieski	blue	hit	n/a
3.1791	n/a	RESPONSE	n/a	n/a	n/a	n/a	n/a	n/a	n/a	blue
3.2088	0.5167	FEEDBACK	n/a	n/a	n/a	n/a	n/a	n/a	n/a	n/a
3.7254	1.0167	ITI	n/a	n/a	n/a	n/a	n/a	n/a	n/a	n/a
4.7421	0.5167	FIXCROSS	n/a	n/a	n/a	n/a	n/a	n/a	n/a	n/a
5.2588	0.7833	T_INK	2	Neutral	xxxxx	xxxxx	niebieski	blue	hit	n/a
6.0067	n/a	RESPONSE	n/a	n/a	n/a	n/a	n/a	n/a	n/a	blue
6.0421	0.5167	FEEDBACK	n/a	n/a	n/a	n/a	n/a	n/a	n/a	n/a
6.5588	1.0167	ITI	n/a	n/a	n/a	n/a	n/a	n/a	n/a	n/a
7.5755	0.5167	FIXCROSS	n/a	n/a	n/a	n/a	n/a	n/a	n/a	n/a
8.0921	1.2667	T_INK	3	Incongruent	żółty	yellow	zielony	green	incorrect	n/a
9.3295	n/a	RESPONSE	n/a	n/a	n/a	n/a	n/a	n/a	n/a	yellow
9.3588	0.5167	FEEDBACK	n/a	n/a	n/a	n/a	n/a	n/a	n/a	n/a
9.8755	1.0167	ITI	n/a	n/a	n/a	n/a	n/a	n/a	n/a	n/a
10.8922	0.5167	FIXCROSS	n/a	n/a	n/a	n/a	n/a	n/a	n/a	n/a
11.4088	0.9333	T_INK	4	Neutral	xxxxxxxx	xxxxxxxx	żółty	yellow	hit	n/a
12.3169	n/a	RESPONSE	n/a	n/a	n/a	n/a	n/a	n/a	n/a	yellow
12.3422	0.5167	FEEDBACK	n/a	n/a	n/a	n/a	n/a	n/a	n/a	n/a
12.8589	1.0167	ITI	n/a	n/a	n/a	n/a	n/a	n/a	n/a	n/a
13.8755	0.5167	FIXCROSS	n/a	n/a	n/a	n/a	n/a	n/a	n/a	n/a
14.3922	1.2667	T_INK	5	Neutral	xxxxx	xxxxx	zielony	green	hit	n/a
15.6236	n/a	RESPONSE	n/a	n/a	n/a	n/a	n/a	n/a	n/a	green
15.6589	0.5167	FEEDBACK	n/a	n/a	n/a	n/a	n/a	n/a	n/a	n/a
16.1756	1.0167	ITI	n/a	n/a	n/a	n/a	n/a	n/a	n/a	n/a
17.1922	0.5167	FIXCROSS	n/a	n/a	n/a	n/a	n/a	n/a	n/a	n/a
17.7089	1.15	T_INK	6	Incongruent	czerwony	red	żółty	yellow	hit	n/a
18.8347	n/a	RESPONSE	n/a	n/a	n/a	n/a	n/a	n/a	n/a	yellow
18.8589	0.5167	FEEDBACK	n/a	n/a	n/a	n/a	n/a	n/a	n/a	n/a
19.3756	1.0167	ITI	n/a	n/a	n/a	n/a	n/a	n/a	n/a	n/a
20.3923	0.5167	FIXCROSS	n/a	n/a	n/a	n/a	n/a	n/a	n/a	n/a
20.9089	0.8167	T_INK	7	Neutral	xxxxx	xxxxx	czerwony	red	hit	n/a
21.6943	n/a	RESPONSE	n/a	n/a	n/a	n/a	n/a	n/a	n/a	red
21.7256	0.5167	FEEDBACK	n/a	n/a	n/a	n/a	n/a	n/a	n/a	n/a
22.2423	1.0167	ITI	n/a	n/a	n/a	n/a	n/a	n/a	n/a	n/a
23.2589	0.5167	FIXCROSS	n/a	n/a	n/a	n/a	n/a	n/a	n/a	n/a
23.7756	1.05	T_INK	8	Neutral	xxxxxxxxx	xxxxxxxxx	zielony	green	hit	n/a
24.7935	n/a	RESPONSE	n/a	n/a	n/a	n/a	n/a	n/a	n/a	green
24.8256	0.5167	FEEDBACK	n/a	n/a	n/a	n/a	n/a	n/a	n/a	n/a
25.3423	1.0167	ITI	n/a	n/a	n/a	n/a	n/a	n/a	n/a	n/a
26.359	0.5167	FIXCROSS	n/a	n/a	n/a	n/a	n/a	n/a	n/a	n/a
26.8757	1.0	T_INK	9	Neutral	xxxxxxxxx	xxxxxxxxx	czerwony	red	hit	n/a
27.8448	n/a	RESPONSE	n/a	n/a	n/a	n/a	n/a	n/a	n/a	red
27.8757	0.5167	FEEDBACK	n/a	n/a	n/a	n/a	n/a	n/a	n/a	n/a
28.3923	1.0167	ITI	n/a	n/a	n/a	n/a	n/a	n/a	n/a	n/a
29.409	0.5167	FIXCROSS	n/a	n/a	n/a	n/a	n/a	n/a	n/a	n/a
29.9257	1.3	T_INK	10	Incongruent	niebieski	blue	zielony	green	hit	n/a
31.1997	n/a	RESPONSE	n/a	n/a	n/a	n/a	n/a	n/a	n/a	green
31.2257	0.5167	FEEDBACK	n/a	n/a	n/a	n/a	n/a	n/a	n/a	n/a
31.7424	1.0167	ITI	n/a	n/a	n/a	n/a	n/a	n/a	n/a	n/a
32.759	0.5167	FIXCROSS	n/a	n/a	n/a	n/a	n/a	n/a	n/a	n/a
33.2757	0.9833	T_INK	11	Incongruent	niebieski	blue	czerwony	red	hit	n/a
34.2349	n/a	RESPONSE	n/a	n/a	n/a	n/a	n/a	n/a	n/a	red
34.259	0.5167	FEEDBACK	n/a	n/a	n/a	n/a	n/a	n/a	n/a	n/a
34.7757	1.0167	ITI	n/a	n/a	n/a	n/a	n/a	n/a	n/a	n/a
35.7924	0.5167	FIXCROSS	n/a	n/a	n/a	n/a	n/a	n/a	n/a	n/a
36.3091	0.95	T_INK	12	Incongruent	zielony	green	czerwony	red	hit	n/a
37.2384	n/a	RESPONSE	n/a	n/a	n/a	n/a	n/a	n/a	n/a	red
37.2591	0.5167	FEEDBACK	n/a	n/a	n/a	n/a	n/a	n/a	n/a	n/a
37.7757	1.0333	ITI	n/a	n/a	n/a	n/a	n/a	n/a	n/a	n/a
46.472	n/a	RESPONSE	n/a	n/a	n/a	n/a	n/a	n/a	n/a	n/a
46.5258	1.0167	ITI	n/a	n/a	n/a	n/a	n/a	n/a	n/a	n/a
47.5425	0.5167	FIXCROSS	n/a	n/a	n/a	n/a	n/a	n/a	n/a	n/a
48.0592	1.1333	INK	1	Neutral	xxxxxxxxx	xxxxxxxxx	zielony	green	hit	n/a
49.1718	n/a	RESPONSE	n/a	n/a	n/a	n/a	n/a	n/a	n/a	green
49.1925	1.0167	ITI	n/a	n/a	n/a	n/a	n/a	n/a	n/a	n/a
50.2092	0.5167	FIXCROSS	n/a	n/a	n/a	n/a	n/a	n/a	n/a	n/a
50.7258	0.8334	INK	2	Incongruent	żółty	yellow	czerwony	red	hit	n/a
51.5362	n/a	RESPONSE	n/a	n/a	n/a	n/a	n/a	n/a	n/a	red
51.5592	1.0167	ITI	n/a	n/a	n/a	n/a	n/a	n/a	n/a	n/a
52.5759	0.5167	FIXCROSS	n/a	n/a	n/a	n/a	n/a	n/a	n/a	n/a
53.0925	0.5333	INK	3	Incongruent	żółty	yellow	czerwony	red	hit	n/a
53.597	n/a	RESPONSE	n/a	n/a	n/a	n/a	n/a	n/a	n/a	red
53.6259	1.0167	ITI	n/a	n/a	n/a	n/a	n/a	n/a	n/a	n/a
54.6425	0.5167	FIXCROSS	n/a	n/a	n/a	n/a	n/a	n/a	n/a	n/a
55.1592	0.6	INK	4	Neutral	xxxxxxxxx	xxxxxxxxx	zielony	green	hit	n/a
55.7378	n/a	RESPONSE	n/a	n/a	n/a	n/a	n/a	n/a	n/a	green
55.7592	1.0167	ITI	n/a	n/a	n/a	n/a	n/a	n/a	n/a	n/a
56.7759	0.5167	FIXCROSS	n/a	n/a	n/a	n/a	n/a	n/a	n/a	n/a
57.2926	0.65	INK	5	Neutral	xxxxxxxx	xxxxxxxx	zielony	green	hit	n/a
57.9105	n/a	RESPONSE	n/a	n/a	n/a	n/a	n/a	n/a	n/a	green
57.9426	1.0167	ITI	n/a	n/a	n/a	n/a	n/a	n/a	n/a	n/a
58.9592	0.5167	FIXCROSS	n/a	n/a	n/a	n/a	n/a	n/a	n/a	n/a
59.4759	0.75	INK	6	Neutral	xxxxxxxx	xxxxxxxx	żółty	yellow	hit	n/a
60.1949	n/a	RESPONSE	n/a	n/a	n/a	n/a	n/a	n/a	n/a	yellow
60.2259	1.0167	ITI	n/a	n/a	n/a	n/a	n/a	n/a	n/a	n/a
61.2426	0.5167	FIXCROSS	n/a	n/a	n/a	n/a	n/a	n/a	n/a	n/a
61.7593	0.5667	INK	7	Neutral	xxxxx	xxxxx	czerwony	red	hit	n/a
62.3036	n/a	RESPONSE	n/a	n/a	n/a	n/a	n/a	n/a	n/a	red
62.3259	1.0167	ITI	n/a	n/a	n/a	n/a	n/a	n/a	n/a	n/a
63.3426	0.5167	FIXCROSS	n/a	n/a	n/a	n/a	n/a	n/a	n/a	n/a
63.8593	0.75	INK	8	Incongruent	niebieski	blue	zielony	green	hit	n/a
64.5881	n/a	RESPONSE	n/a	n/a	n/a	n/a	n/a	n/a	n/a	green
64.6093	1.0167	ITI	n/a	n/a	n/a	n/a	n/a	n/a	n/a	n/a
65.626	0.5167	FIXCROSS	n/a	n/a	n/a	n/a	n/a	n/a	n/a	n/a
66.1426	0.7	INK	9	Neutral	xxxxxxxxx	xxxxxxxxx	żółty	yellow	hit	n/a
66.8245	n/a	RESPONSE	n/a	n/a	n/a	n/a	n/a	n/a	n/a	yellow
66.8427	1.0167	ITI	n/a	n/a	n/a	n/a	n/a	n/a	n/a	n/a
67.8593	0.5167	FIXCROSS	n/a	n/a	n/a	n/a	n/a	n/a	n/a	n/a
68.376	1.1833	INK	10	Incongruent	zielony	green	niebieski	blue	hit	n/a
69.5404	n/a	RESPONSE	n/a	n/a	n/a	n/a	n/a	n/a	n/a	blue
69.5593	1.0167	ITI	n/a	n/a	n/a	n/a	n/a	n/a	n/a	n/a
70.576	0.5167	FIXCROSS	n/a	n/a	n/a	n/a	n/a	n/a	n/a	n/a
71.0927	0.8667	INK	11	Neutral	xxxxxxx	xxxxxxx	niebieski	blue	hit	n/a
71.9367	n/a	RESPONSE	n/a	n/a	n/a	n/a	n/a	n/a	n/a	blue
71.9594	1.0167	ITI	n/a	n/a	n/a	n/a	n/a	n/a	n/a	n/a
72.976	0.5167	FIXCROSS	n/a	n/a	n/a	n/a	n/a	n/a	n/a	n/a
73.4927	0.95	INK	12	Incongruent	żółty	yellow	zielony	green	hit	n/a
74.413	n/a	RESPONSE	n/a	n/a	n/a	n/a	n/a	n/a	n/a	green
74.4427	1.0167	ITI	n/a	n/a	n/a	n/a	n/a	n/a	n/a	n/a
75.4594	0.5167	FIXCROSS	n/a	n/a	n/a	n/a	n/a	n/a	n/a	n/a
75.9761	0.8667	INK	13	Incongruent	czerwony	red	niebieski	blue	hit	n/a
76.8093	n/a	RESPONSE	n/a	n/a	n/a	n/a	n/a	n/a	n/a	blue
76.8427	1.0167	ITI	n/a	n/a	n/a	n/a	n/a	n/a	n/a	n/a
77.8594	0.5167	FIXCROSS	n/a	n/a	n/a	n/a	n/a	n/a	n/a	n/a
78.3761	0.65	INK	14	Neutral	xxxxxxx	xxxxxxx	żółty	yellow	hit	n/a
78.9979	n/a	RESPONSE	n/a	n/a	n/a	n/a	n/a	n/a	n/a	yellow
79.0261	1.0167	ITI	n/a	n/a	n/a	n/a	n/a	n/a	n/a	n/a
80.0428	0.5167	FIXCROSS	n/a	n/a	n/a	n/a	n/a	n/a	n/a	n/a
80.5594	0.9	INK	15	Incongruent	niebieski	blue	zielony	green	hit	n/a
81.4261	n/a	RESPONSE	n/a	n/a	n/a	n/a	n/a	n/a	n/a	green
81.4594	1.0167	ITI	n/a	n/a	n/a	n/a	n/a	n/a	n/a	n/a
82.4761	0.5167	FIXCROSS	n/a	n/a	n/a	n/a	n/a	n/a	n/a	n/a
82.9928	0.9667	INK	16	Incongruent	żółty	yellow	niebieski	blue	hit	n/a
83.9342	n/a	RESPONSE	n/a	n/a	n/a	n/a	n/a	n/a	n/a	blue
83.9595	1.0167	ITI	n/a	n/a	n/a	n/a	n/a	n/a	n/a	n/a
84.9761	0.5167	FIXCROSS	n/a	n/a	n/a	n/a	n/a	n/a	n/a	n/a
85.4928	0.75	INK	17	Neutral	xxxxxxx	xxxxxxx	czerwony	red	hit	n/a
86.2187	n/a	RESPONSE	n/a	n/a	n/a	n/a	n/a	n/a	n/a	red
86.2428	1.0167	ITI	n/a	n/a	n/a	n/a	n/a	n/a	n/a	n/a
87.2595	0.5167	FIXCROSS	n/a	n/a	n/a	n/a	n/a	n/a	n/a	n/a
87.7762	0.6833	INK	18	Incongruent	niebieski	blue	czerwony	red	hit	n/a
88.4234	n/a	RESPONSE	n/a	n/a	n/a	n/a	n/a	n/a	n/a	red
88.4595	1.0167	ITI	n/a	n/a	n/a	n/a	n/a	n/a	n/a	n/a
89.4762	0.5167	FIXCROSS	n/a	n/a	n/a	n/a	n/a	n/a	n/a	n/a
89.9928	0.7833	INK	19	Incongruent	niebieski	blue	żółty	yellow	hit	n/a
90.7558	n/a	RESPONSE	n/a	n/a	n/a	n/a	n/a	n/a	n/a	yellow
90.7762	1.0167	ITI	n/a	n/a	n/a	n/a	n/a	n/a	n/a	n/a
91.7928	0.5167	FIXCROSS	n/a	n/a	n/a	n/a	n/a	n/a	n/a	n/a
92.3095	0.7833	INK	20	Neutral	xxxxx	xxxxx	niebieski	blue	hit	n/a
93.0722	n/a	RESPONSE	n/a	n/a	n/a	n/a	n/a	n/a	n/a	blue
93.0929	1.0167	ITI	n/a	n/a	n/a	n/a	n/a	n/a	n/a	n/a
94.1095	0.5167	FIXCROSS	n/a	n/a	n/a	n/a	n/a	n/a	n/a	n/a
94.6262	0.7	INK	21	Neutral	xxxxxxxx	xxxxxxxx	niebieski	blue	hit	n/a
95.3087	n/a	RESPONSE	n/a	n/a	n/a	n/a	n/a	n/a	n/a	blue
95.3262	1.0167	ITI	n/a	n/a	n/a	n/a	n/a	n/a	n/a	n/a
96.3429	0.5167	FIXCROSS	n/a	n/a	n/a	n/a	n/a	n/a	n/a	n/a
96.8596	1.0	INK	22	Incongruent	czerwony	red	zielony	green	hit	n/a
97.8329	n/a	RESPONSE	n/a	n/a	n/a	n/a	n/a	n/a	n/a	green
97.8596	1.0167	ITI	n/a	n/a	n/a	n/a	n/a	n/a	n/a	n/a
98.8762	0.5167	FIXCROSS	n/a	n/a	n/a	n/a	n/a	n/a	n/a	n/a
99.3929	0.8333	INK	23	Neutral	xxxxx	xxxxx	niebieski	blue	hit	n/a
100.1973	n/a	RESPONSE	n/a	n/a	n/a	n/a	n/a	n/a	n/a	blue
100.2263	1.0167	ITI	n/a	n/a	n/a	n/a	n/a	n/a	n/a	n/a
101.2429	0.5167	FIXCROSS	n/a	n/a	n/a	n/a	n/a	n/a	n/a	n/a
101.7596	0.7333	INK	24	Neutral	xxxxxxxxx	xxxxxxxxx	czerwony	red	hit	n/a
102.4658	n/a	RESPONSE	n/a	n/a	n/a	n/a	n/a	n/a	n/a	red
102.4929	1.0167	ITI	n/a	n/a	n/a	n/a	n/a	n/a	n/a	n/a
103.5096	0.5167	FIXCROSS	n/a	n/a	n/a	n/a	n/a	n/a	n/a	n/a
104.0263	0.6333	INK	25	Incongruent	czerwony	red	żółty	yellow	hit	n/a
104.6385	n/a	RESPONSE	n/a	n/a	n/a	n/a	n/a	n/a	n/a	yellow
104.6596	1.0167	ITI	n/a	n/a	n/a	n/a	n/a	n/a	n/a	n/a
105.6763	0.5167	FIXCROSS	n/a	n/a	n/a	n/a	n/a	n/a	n/a	n/a
106.193	0.7667	INK	26	Neutral	xxxxx	xxxxx	niebieski	blue	hit	n/a
106.939	n/a	RESPONSE	n/a	n/a	n/a	n/a	n/a	n/a	n/a	blue
106.9596	1.0167	ITI	n/a	n/a	n/a	n/a	n/a	n/a	n/a	n/a
107.9763	0.5167	FIXCROSS	n/a	n/a	n/a	n/a	n/a	n/a	n/a	n/a
108.493	0.7	INK	27	Incongruent	czerwony	red	niebieski	blue	hit	n/a
109.1756	n/a	RESPONSE	n/a	n/a	n/a	n/a	n/a	n/a	n/a	blue
109.193	1.0167	ITI	n/a	n/a	n/a	n/a	n/a	n/a	n/a	n/a
110.2097	0.5167	FIXCROSS	n/a	n/a	n/a	n/a	n/a	n/a	n/a	n/a
110.7264	0.9167	INK	28	Neutral	xxxxx	xxxxx	zielony	green	hit	n/a
111.6198	n/a	RESPONSE	n/a	n/a	n/a	n/a	n/a	n/a	n/a	green
111.643	1.0167	ITI	n/a	n/a	n/a	n/a	n/a	n/a	n/a	n/a
112.6597	0.5167	FIXCROSS	n/a	n/a	n/a	n/a	n/a	n/a	n/a	n/a
113.1764	0.6667	INK	29	Neutral	xxxxxxxxx	xxxxxxxxx	czerwony	red	hit	n/a
113.8244	n/a	RESPONSE	n/a	n/a	n/a	n/a	n/a	n/a	n/a	red
113.843	1.0167	ITI	n/a	n/a	n/a	n/a	n/a	n/a	n/a	n/a
114.8597	0.5167	FIXCROSS	n/a	n/a	n/a	n/a	n/a	n/a	n/a	n/a
115.3764	0.8	INK	30	Neutral	xxxxx	xxxxx	zielony	green	hit	n/a
116.1569	n/a	RESPONSE	n/a	n/a	n/a	n/a	n/a	n/a	n/a	green
116.1764	1.0167	ITI	n/a	n/a	n/a	n/a	n/a	n/a	n/a	n/a
117.1931	0.5167	FIXCROSS	n/a	n/a	n/a	n/a	n/a	n/a	n/a	n/a
117.7097	0.7333	INK	31	Neutral	xxxxxxxx	xxxxxxxx	żółty	yellow	hit	n/a
118.4253	n/a	RESPONSE	n/a	n/a	n/a	n/a	n/a	n/a	n/a	yellow
118.4431	1.0167	ITI	n/a	n/a	n/a	n/a	n/a	n/a	n/a	n/a
119.4597	0.5167	FIXCROSS	n/a	n/a	n/a	n/a	n/a	n/a	n/a	n/a
119.9764	0.65	INK	32	Incongruent	czerwony	red	niebieski	blue	incorrect	n/a
120.5981	n/a	RESPONSE	n/a	n/a	n/a	n/a	n/a	n/a	n/a	red
120.6264	1.0167	ITI	n/a	n/a	n/a	n/a	n/a	n/a	n/a	n/a
121.6431	0.5167	FIXCROSS	n/a	n/a	n/a	n/a	n/a	n/a	n/a	n/a
122.1598	1.05	INK	33	Neutral	xxxxxxxxx	xxxxxxxxx	zielony	green	hit	n/a
123.186	n/a	RESPONSE	n/a	n/a	n/a	n/a	n/a	n/a	n/a	green
123.2098	1.0167	ITI	n/a	n/a	n/a	n/a	n/a	n/a	n/a	n/a
124.2265	0.5167	FIXCROSS	n/a	n/a	n/a	n/a	n/a	n/a	n/a	n/a
124.7431	0.9	INK	34	Incongruent	niebieski	blue	żółty	yellow	hit	n/a
125.6144	n/a	RESPONSE	n/a	n/a	n/a	n/a	n/a	n/a	n/a	yellow
125.6431	1.0167	ITI	n/a	n/a	n/a	n/a	n/a	n/a	n/a	n/a
126.6598	0.5167	FIXCROSS	n/a	n/a	n/a	n/a	n/a	n/a	n/a	n/a
127.1765	0.65	INK	35	Incongruent	czerwony	red	żółty	yellow	hit	n/a
127.803	n/a	RESPONSE	n/a	n/a	n/a	n/a	n/a	n/a	n/a	yellow
127.8265	1.0167	ITI	n/a	n/a	n/a	n/a	n/a	n/a	n/a	n/a
128.8432	0.5167	FIXCROSS	n/a	n/a	n/a	n/a	n/a	n/a	n/a	n/a
129.3598	0.9	INK	36	Neutral	xxxxxxxx	xxxxxxxx	zielony	green	hit	n/a
130.2312	n/a	RESPONSE	n/a	n/a	n/a	n/a	n/a	n/a	n/a	green
130.2598	1.0167	ITI	n/a	n/a	n/a	n/a	n/a	n/a	n/a	n/a
131.2765	0.5167	FIXCROSS	n/a	n/a	n/a	n/a	n/a	n/a	n/a	n/a
131.7932	0.65	INK	37	Incongruent	czerwony	red	zielony	green	hit	n/a
132.4199	n/a	RESPONSE	n/a	n/a	n/a	n/a	n/a	n/a	n/a	green
132.4432	1.0167	ITI	n/a	n/a	n/a	n/a	n/a	n/a	n/a	n/a
133.4599	0.5167	FIXCROSS	n/a	n/a	n/a	n/a	n/a	n/a	n/a	n/a
133.9765	0.7667	INK	38	Incongruent	zielony	green	niebieski	blue	hit	n/a
134.7204	n/a	RESPONSE	n/a	n/a	n/a	n/a	n/a	n/a	n/a	blue
134.7432	1.0167	ITI	n/a	n/a	n/a	n/a	n/a	n/a	n/a	n/a
135.7599	0.5167	FIXCROSS	n/a	n/a	n/a	n/a	n/a	n/a	n/a	n/a
136.2766	1.0333	INK	39	Incongruent	żółty	yellow	zielony	green	hit	n/a
137.2924	n/a	RESPONSE	n/a	n/a	n/a	n/a	n/a	n/a	n/a	green
137.3099	1.0167	ITI	n/a	n/a	n/a	n/a	n/a	n/a	n/a	n/a
138.3266	0.5167	FIXCROSS	n/a	n/a	n/a	n/a	n/a	n/a	n/a	n/a
138.8432	0.8667	INK	40	Neutral	xxxxxxxx	xxxxxxxx	niebieski	blue	hit	n/a
139.6887	n/a	RESPONSE	n/a	n/a	n/a	n/a	n/a	n/a	n/a	blue
139.7099	1.0167	ITI	n/a	n/a	n/a	n/a	n/a	n/a	n/a	n/a
140.7266	0.5167	FIXCROSS	n/a	n/a	n/a	n/a	n/a	n/a	n/a	n/a
141.2433	0.75	INK	41	Neutral	xxxxxxxxx	xxxxxxxxx	żółty	yellow	hit	n/a
141.9732	n/a	RESPONSE	n/a	n/a	n/a	n/a	n/a	n/a	n/a	yellow
141.9933	1.0167	ITI	n/a	n/a	n/a	n/a	n/a	n/a	n/a	n/a
143.0099	0.5167	FIXCROSS	n/a	n/a	n/a	n/a	n/a	n/a	n/a	n/a
143.5266	0.8	INK	42	Incongruent	czerwony	red	zielony	green	hit	n/a
144.3055	n/a	RESPONSE	n/a	n/a	n/a	n/a	n/a	n/a	n/a	green
144.3266	1.0167	ITI	n/a	n/a	n/a	n/a	n/a	n/a	n/a	n/a
145.3433	0.5167	FIXCROSS	n/a	n/a	n/a	n/a	n/a	n/a	n/a	n/a
145.86	0.7	INK	43	Incongruent	czerwony	red	żółty	yellow	hit	n/a
146.5261	n/a	RESPONSE	n/a	n/a	n/a	n/a	n/a	n/a	n/a	yellow
146.56	1.0167	ITI	n/a	n/a	n/a	n/a	n/a	n/a	n/a	n/a
147.5766	0.5167	FIXCROSS	n/a	n/a	n/a	n/a	n/a	n/a	n/a	n/a
148.0933	0.6167	INK	44	Incongruent	zielony	green	żółty	yellow	hit	n/a
148.6829	n/a	RESPONSE	n/a	n/a	n/a	n/a	n/a	n/a	n/a	yellow
148.71	1.0167	ITI	n/a	n/a	n/a	n/a	n/a	n/a	n/a	n/a
149.7267	0.5167	FIXCROSS	n/a	n/a	n/a	n/a	n/a	n/a	n/a	n/a
150.2433	0.9333	INK	45	Incongruent	niebieski	blue	czerwony	red	hit	n/a
151.1591	n/a	RESPONSE	n/a	n/a	n/a	n/a	n/a	n/a	n/a	red
151.1767	1.0167	ITI	n/a	n/a	n/a	n/a	n/a	n/a	n/a	n/a
152.1933	0.5167	FIXCROSS	n/a	n/a	n/a	n/a	n/a	n/a	n/a	n/a
152.71	0.75	INK	46	Neutral	xxxxxxx	xxxxxxx	czerwony	red	hit	n/a
153.4276	n/a	RESPONSE	n/a	n/a	n/a	n/a	n/a	n/a	n/a	red
153.46	1.0167	ITI	n/a	n/a	n/a	n/a	n/a	n/a	n/a	n/a
154.4767	0.5167	FIXCROSS	n/a	n/a	n/a	n/a	n/a	n/a	n/a	n/a
154.9934	0.7667	INK	47	Neutral	xxxxxxxxx	xxxxxxxxx	żółty	yellow	hit	n/a
155.728	n/a	RESPONSE	n/a	n/a	n/a	n/a	n/a	n/a	n/a	yellow
155.76	1.0167	ITI	n/a	n/a	n/a	n/a	n/a	n/a	n/a	n/a
156.7767	0.5167	FIXCROSS	n/a	n/a	n/a	n/a	n/a	n/a	n/a	n/a
157.2934	0.9334	INK	48	Incongruent	niebieski	blue	zielony	green	hit	n/a
158.2043	n/a	RESPONSE	n/a	n/a	n/a	n/a	n/a	n/a	n/a	green
158.2267	1.0167	ITI	n/a	n/a	n/a	n/a	n/a	n/a	n/a	n/a
159.2434	0.5167	FIXCROSS	n/a	n/a	n/a	n/a	n/a	n/a	n/a	n/a
159.7601	0.6833	INK	49	Incongruent	żółty	yellow	zielony	green	hit	n/a
160.4249	n/a	RESPONSE	n/a	n/a	n/a	n/a	n/a	n/a	n/a	green
160.4434	1.0167	ITI	n/a	n/a	n/a	n/a	n/a	n/a	n/a	n/a
161.4601	0.5167	FIXCROSS	n/a	n/a	n/a	n/a	n/a	n/a	n/a	n/a
161.9768	0.75	INK	50	Incongruent	niebieski	blue	żółty	yellow	hit	n/a
162.6934	n/a	RESPONSE	n/a	n/a	n/a	n/a	n/a	n/a	n/a	yellow
162.7268	1.0167	ITI	n/a	n/a	n/a	n/a	n/a	n/a	n/a	n/a
163.7434	0.5167	FIXCROSS	n/a	n/a	n/a	n/a	n/a	n/a	n/a	n/a
164.2601	0.85	INK	51	Incongruent	zielony	green	niebieski	blue	hit	n/a
165.0897	n/a	RESPONSE	n/a	n/a	n/a	n/a	n/a	n/a	n/a	blue
165.1101	1.0167	ITI	n/a	n/a	n/a	n/a	n/a	n/a	n/a	n/a
166.1268	0.5167	FIXCROSS	n/a	n/a	n/a	n/a	n/a	n/a	n/a	n/a
166.6435	0.7667	INK	52	Neutral	xxxxx	xxxxx	czerwony	red	hit	n/a
167.39	n/a	RESPONSE	n/a	n/a	n/a	n/a	n/a	n/a	n/a	red
167.4101	1.0167	ITI	n/a	n/a	n/a	n/a	n/a	n/a	n/a	n/a
168.4268	0.5167	FIXCROSS	n/a	n/a	n/a	n/a	n/a	n/a	n/a	n/a
168.9435	0.7167	INK	53	Incongruent	żółty	yellow	niebieski	blue	hit	n/a
169.6426	n/a	RESPONSE	n/a	n/a	n/a	n/a	n/a	n/a	n/a	blue
169.6602	1.0167	ITI	n/a	n/a	n/a	n/a	n/a	n/a	n/a	n/a
170.6768	0.5167	FIXCROSS	n/a	n/a	n/a	n/a	n/a	n/a	n/a	n/a
171.1935	1.0167	INK	54	Neutral	xxxxxxx	xxxxxxx	żółty	yellow	hit	n/a
172.1827	n/a	RESPONSE	n/a	n/a	n/a	n/a	n/a	n/a	n/a	yellow
172.2102	1.0167	ITI	n/a	n/a	n/a	n/a	n/a	n/a	n/a	n/a
173.2268	0.5167	FIXCROSS	n/a	n/a	n/a	n/a	n/a	n/a	n/a	n/a
173.7435	0.5833	INK	55	Neutral	xxxxxxx	xxxxxxx	niebieski	blue	hit	n/a
174.3075	n/a	RESPONSE	n/a	n/a	n/a	n/a	n/a	n/a	n/a	blue
174.3269	1.0167	ITI	n/a	n/a	n/a	n/a	n/a	n/a	n/a	n/a
175.3435	0.5167	FIXCROSS	n/a	n/a	n/a	n/a	n/a	n/a	n/a	n/a
175.8602	0.7333	INK	56	Incongruent	żółty	yellow	niebieski	blue	hit	n/a
176.5601	n/a	RESPONSE	n/a	n/a	n/a	n/a	n/a	n/a	n/a	blue
176.5936	1.0167	ITI	n/a	n/a	n/a	n/a	n/a	n/a	n/a	n/a
177.6102	0.5167	FIXCROSS	n/a	n/a	n/a	n/a	n/a	n/a	n/a	n/a
178.1269	0.7833	INK	57	Neutral	xxxxxxxxx	xxxxxxxxx	czerwony	red	hit	n/a
178.8765	n/a	RESPONSE	n/a	n/a	n/a	n/a	n/a	n/a	n/a	red
178.9102	1.0167	ITI	n/a	n/a	n/a	n/a	n/a	n/a	n/a	n/a
179.9269	0.5167	FIXCROSS	n/a	n/a	n/a	n/a	n/a	n/a	n/a	n/a
180.4436	0.7	INK	58	Incongruent	zielony	green	czerwony	red	hit	n/a
181.1131	n/a	RESPONSE	n/a	n/a	n/a	n/a	n/a	n/a	n/a	red
181.1436	1.0167	ITI	n/a	n/a	n/a	n/a	n/a	n/a	n/a	n/a
182.1603	0.5167	FIXCROSS	n/a	n/a	n/a	n/a	n/a	n/a	n/a	n/a
182.6769	0.6333	INK	59	Incongruent	zielony	green	czerwony	red	hit	n/a
183.2857	n/a	RESPONSE	n/a	n/a	n/a	n/a	n/a	n/a	n/a	red
183.3103	1.0167	ITI	n/a	n/a	n/a	n/a	n/a	n/a	n/a	n/a
184.3269	0.5167	FIXCROSS	n/a	n/a	n/a	n/a	n/a	n/a	n/a	n/a
184.8436	0.5333	INK	60	Incongruent	zielony	green	czerwony	red	hit	n/a
185.3466	n/a	RESPONSE	n/a	n/a	n/a	n/a	n/a	n/a	n/a	red
185.377	1.0167	ITI	n/a	n/a	n/a	n/a	n/a	n/a	n/a	n/a
186.3936	0.5167	FIXCROSS	n/a	n/a	n/a	n/a	n/a	n/a	n/a	n/a
186.9103	0.65	INK	61	Neutral	xxxxxxx	xxxxxxx	czerwony	red	hit	n/a
187.5353	n/a	RESPONSE	n/a	n/a	n/a	n/a	n/a	n/a	n/a	red
187.5603	1.0167	ITI	n/a	n/a	n/a	n/a	n/a	n/a	n/a	n/a
188.577	0.5167	FIXCROSS	n/a	n/a	n/a	n/a	n/a	n/a	n/a	n/a
189.0936	0.8167	INK	62	Neutral	xxxxxxxx	xxxxxxxx	żółty	yellow	hit	n/a
189.8837	n/a	RESPONSE	n/a	n/a	n/a	n/a	n/a	n/a	n/a	yellow
189.9103	1.0167	ITI	n/a	n/a	n/a	n/a	n/a	n/a	n/a	n/a
190.927	0.5167	FIXCROSS	n/a	n/a	n/a	n/a	n/a	n/a	n/a	n/a
191.4437	0.7167	INK	63	Neutral	xxxxxxx	xxxxxxx	niebieski	blue	hit	n/a
192.1363	n/a	RESPONSE	n/a	n/a	n/a	n/a	n/a	n/a	n/a	blue
192.1603	1.0167	ITI	n/a	n/a	n/a	n/a	n/a	n/a	n/a	n/a
193.177	0.5167	FIXCROSS	n/a	n/a	n/a	n/a	n/a	n/a	n/a	n/a
193.6937	0.7167	INK	64	Neutral	xxxxxxxx	xxxxxxxx	niebieski	blue	hit	n/a
194.3887	n/a	RESPONSE	n/a	n/a	n/a	n/a	n/a	n/a	n/a	blue
194.4103	1.0167	ITI	n/a	n/a	n/a	n/a	n/a	n/a	n/a	n/a
195.427	0.5167	FIXCROSS	n/a	n/a	n/a	n/a	n/a	n/a	n/a	n/a
195.9437	0.75	INK	65	Incongruent	zielony	green	żółty	yellow	hit	n/a
196.6733	n/a	RESPONSE	n/a	n/a	n/a	n/a	n/a	n/a	n/a	yellow
196.6937	1.0167	ITI	n/a	n/a	n/a	n/a	n/a	n/a	n/a	n/a
197.7104	0.5167	FIXCROSS	n/a	n/a	n/a	n/a	n/a	n/a	n/a	n/a
198.227	1.1833	INK	66	Incongruent	niebieski	blue	czerwony	red	hit	n/a
199.3892	n/a	RESPONSE	n/a	n/a	n/a	n/a	n/a	n/a	n/a	red
199.4104	1.0167	ITI	n/a	n/a	n/a	n/a	n/a	n/a	n/a	n/a
200.4271	0.5167	FIXCROSS	n/a	n/a	n/a	n/a	n/a	n/a	n/a	n/a
200.9437	0.85	INK	67	Neutral	xxxxxxxx	xxxxxxxx	zielony	green	hit	n/a
201.7695	n/a	RESPONSE	n/a	n/a	n/a	n/a	n/a	n/a	n/a	green
201.7937	1.0167	ITI	n/a	n/a	n/a	n/a	n/a	n/a	n/a	n/a
202.8104	0.5167	FIXCROSS	n/a	n/a	n/a	n/a	n/a	n/a	n/a	n/a
203.3271	0.6333	INK	68	Incongruent	zielony	green	żółty	yellow	hit	n/a
203.9421	n/a	RESPONSE	n/a	n/a	n/a	n/a	n/a	n/a	n/a	yellow
203.9604	1.0167	ITI	n/a	n/a	n/a	n/a	n/a	n/a	n/a	n/a
204.9771	0.5167	FIXCROSS	n/a	n/a	n/a	n/a	n/a	n/a	n/a	n/a
205.4938	0.7167	INK	69	Neutral	xxxxxxx	xxxxxxx	żółty	yellow	hit	n/a
206.1789	n/a	RESPONSE	n/a	n/a	n/a	n/a	n/a	n/a	n/a	yellow
206.2104	1.0167	ITI	n/a	n/a	n/a	n/a	n/a	n/a	n/a	n/a
207.2271	0.5167	FIXCROSS	n/a	n/a	n/a	n/a	n/a	n/a	n/a	n/a
207.7438	0.6833	INK	70	Neutral	xxxxx	xxxxx	zielony	green	hit	n/a
208.3994	n/a	RESPONSE	n/a	n/a	n/a	n/a	n/a	n/a	n/a	green
208.4271	1.0167	ITI	n/a	n/a	n/a	n/a	n/a	n/a	n/a	n/a
209.4438	0.5167	FIXCROSS	n/a	n/a	n/a	n/a	n/a	n/a	n/a	n/a
209.9605	0.9833	INK	71	Incongruent	żółty	yellow	czerwony	red	hit	n/a
210.9237	n/a	RESPONSE	n/a	n/a	n/a	n/a	n/a	n/a	n/a	red
210.9438	1.0167	ITI	n/a	n/a	n/a	n/a	n/a	n/a	n/a	n/a
211.9605	0.5167	FIXCROSS	n/a	n/a	n/a	n/a	n/a	n/a	n/a	n/a
212.4772	0.6	INK	72	Neutral	xxxxx	xxxxx	czerwony	red	hit	n/a
213.0484	n/a	RESPONSE	n/a	n/a	n/a	n/a	n/a	n/a	n/a	red
213.0772	1.0833	ITI	n/a	n/a	n/a	n/a	n/a	n/a	n/a	n/a
240.5608	n/a	RESPONSE	n/a	n/a	n/a	n/a	n/a	n/a	n/a	n/a
240.6274	1.0167	ITI	n/a	n/a	n/a	n/a	n/a	n/a	n/a	n/a
241.6441	0.5167	FIXCROSS	n/a	n/a	n/a	n/a	n/a	n/a	n/a	n/a
242.1607	1.9834	T_COLOR_NAME	1	Incongruent	niebieski	blue	zielony	green	hit	n/a
244.1079	n/a	RESPONSE	n/a	n/a	n/a	n/a	n/a	n/a	n/a	blue
244.1441	0.5167	FEEDBACK	n/a	n/a	n/a	n/a	n/a	n/a	n/a	n/a
244.6608	1.0167	ITI	n/a	n/a	n/a	n/a	n/a	n/a	n/a	n/a
245.6774	0.5167	FIXCROSS	n/a	n/a	n/a	n/a	n/a	n/a	n/a	n/a
246.1941	1.1333	T_COLOR_NAME	2	Neutral	czerwony	red	Neutral	Neutral	hit	n/a
247.3035	n/a	RESPONSE	n/a	n/a	n/a	n/a	n/a	n/a	n/a	red
247.3274	0.5167	FEEDBACK	n/a	n/a	n/a	n/a	n/a	n/a	n/a	n/a
247.8441	1.0167	ITI	n/a	n/a	n/a	n/a	n/a	n/a	n/a	n/a
248.8608	0.5167	FIXCROSS	n/a	n/a	n/a	n/a	n/a	n/a	n/a	n/a
249.3775	0.9	T_COLOR_NAME	3	Neutral	niebieski	blue	Neutral	Neutral	hit	n/a
250.2434	n/a	RESPONSE	n/a	n/a	n/a	n/a	n/a	n/a	n/a	blue
250.2775	0.5167	FEEDBACK	n/a	n/a	n/a	n/a	n/a	n/a	n/a	n/a
250.7941	1.0167	ITI	n/a	n/a	n/a	n/a	n/a	n/a	n/a	n/a
251.8108	0.5167	FIXCROSS	n/a	n/a	n/a	n/a	n/a	n/a	n/a	n/a
252.3275	1.1667	T_COLOR_NAME	4	Incongruent	czerwony	red	żółty	yellow	hit	n/a
253.4709	n/a	RESPONSE	n/a	n/a	n/a	n/a	n/a	n/a	n/a	red
253.4942	0.5167	FEEDBACK	n/a	n/a	n/a	n/a	n/a	n/a	n/a	n/a
254.0108	1.0167	ITI	n/a	n/a	n/a	n/a	n/a	n/a	n/a	n/a
255.0275	0.5167	FIXCROSS	n/a	n/a	n/a	n/a	n/a	n/a	n/a	n/a
255.5442	1.0333	T_COLOR_NAME	5	Neutral	żółty	yellow	Neutral	Neutral	hit	n/a
256.5548	n/a	RESPONSE	n/a	n/a	n/a	n/a	n/a	n/a	n/a	yellow
256.5775	0.5167	FEEDBACK	n/a	n/a	n/a	n/a	n/a	n/a	n/a	n/a
257.0942	1.0167	ITI	n/a	n/a	n/a	n/a	n/a	n/a	n/a	n/a
258.1109	0.5167	FIXCROSS	n/a	n/a	n/a	n/a	n/a	n/a	n/a	n/a
258.6275	0.6667	T_COLOR_NAME	6	Incongruent	żółty	yellow	zielony	green	hit	n/a
259.2709	n/a	RESPONSE	n/a	n/a	n/a	n/a	n/a	n/a	n/a	yellow
259.2942	0.5167	FEEDBACK	n/a	n/a	n/a	n/a	n/a	n/a	n/a	n/a
259.8109	1.0167	ITI	n/a	n/a	n/a	n/a	n/a	n/a	n/a	n/a
260.8276	0.5167	FIXCROSS	n/a	n/a	n/a	n/a	n/a	n/a	n/a	n/a
261.3442	0.8333	T_COLOR_NAME	7	Incongruent	niebieski	blue	czerwony	red	hit	n/a
262.1466	n/a	RESPONSE	n/a	n/a	n/a	n/a	n/a	n/a	n/a	blue
262.1776	0.5167	FEEDBACK	n/a	n/a	n/a	n/a	n/a	n/a	n/a	n/a
262.6942	1.0167	ITI	n/a	n/a	n/a	n/a	n/a	n/a	n/a	n/a
263.7109	0.5167	FIXCROSS	n/a	n/a	n/a	n/a	n/a	n/a	n/a	n/a
264.2276	0.7	T_COLOR_NAME	8	Neutral	żółty	yellow	Neutral	Neutral	hit	n/a
264.8946	n/a	RESPONSE	n/a	n/a	n/a	n/a	n/a	n/a	n/a	yellow
264.9276	0.5167	FEEDBACK	n/a	n/a	n/a	n/a	n/a	n/a	n/a	n/a
265.4443	1.0167	ITI	n/a	n/a	n/a	n/a	n/a	n/a	n/a	n/a
266.4609	0.5167	FIXCROSS	n/a	n/a	n/a	n/a	n/a	n/a	n/a	n/a
266.9776	0.9167	T_COLOR_NAME	9	Neutral	żółty	yellow	Neutral	Neutral	hit	n/a
267.8662	n/a	RESPONSE	n/a	n/a	n/a	n/a	n/a	n/a	n/a	yellow
267.8943	0.5167	FEEDBACK	n/a	n/a	n/a	n/a	n/a	n/a	n/a	n/a
268.4109	1.0167	ITI	n/a	n/a	n/a	n/a	n/a	n/a	n/a	n/a
269.4276	0.5167	FIXCROSS	n/a	n/a	n/a	n/a	n/a	n/a	n/a	n/a
269.9443	0.5833	T_COLOR_NAME	10	Neutral	niebieski	blue	Neutral	Neutral	hit	n/a
270.5023	n/a	RESPONSE	n/a	n/a	n/a	n/a	n/a	n/a	n/a	blue
270.5276	0.5167	FEEDBACK	n/a	n/a	n/a	n/a	n/a	n/a	n/a	n/a
271.0443	1.0167	ITI	n/a	n/a	n/a	n/a	n/a	n/a	n/a	n/a
272.061	0.5167	FIXCROSS	n/a	n/a	n/a	n/a	n/a	n/a	n/a	n/a
272.5776	0.5	T_COLOR_NAME	11	Neutral	czerwony	red	Neutral	Neutral	hit	n/a
273.0425	n/a	RESPONSE	n/a	n/a	n/a	n/a	n/a	n/a	n/a	red
273.0776	0.5167	FEEDBACK	n/a	n/a	n/a	n/a	n/a	n/a	n/a	n/a
273.5943	1.0167	ITI	n/a	n/a	n/a	n/a	n/a	n/a	n/a	n/a
274.611	0.5167	FIXCROSS	n/a	n/a	n/a	n/a	n/a	n/a	n/a	n/a
275.1277	0.5833	T_COLOR_NAME	12	Incongruent	zielony	green	czerwony	red	hit	n/a
275.6785	n/a	RESPONSE	n/a	n/a	n/a	n/a	n/a	n/a	n/a	green
275.711	0.5167	FEEDBACK	n/a	n/a	n/a	n/a	n/a	n/a	n/a	n/a
276.2277	1.0333	ITI	n/a	n/a	n/a	n/a	n/a	n/a	n/a	n/a
281.1583	n/a	RESPONSE	n/a	n/a	n/a	n/a	n/a	n/a	n/a	n/a
281.211	1.0167	ITI	n/a	n/a	n/a	n/a	n/a	n/a	n/a	n/a
282.2277	0.5167	FIXCROSS	n/a	n/a	n/a	n/a	n/a	n/a	n/a	n/a
282.7444	1.15	COLOR_NAME	1	Neutral	niebieski	blue	Neutral	Neutral	hit	n/a
283.8741	n/a	RESPONSE	n/a	n/a	n/a	n/a	n/a	n/a	n/a	blue
283.8944	1.0167	ITI	n/a	n/a	n/a	n/a	n/a	n/a	n/a	n/a
284.9111	0.5167	FIXCROSS	n/a	n/a	n/a	n/a	n/a	n/a	n/a	n/a
285.4277	0.75	COLOR_NAME	2	Incongruent	żółty	yellow	zielony	green	hit	n/a
286.1587	n/a	RESPONSE	n/a	n/a	n/a	n/a	n/a	n/a	n/a	yellow
286.1777	1.0167	ITI	n/a	n/a	n/a	n/a	n/a	n/a	n/a	n/a
287.1944	0.5167	FIXCROSS	n/a	n/a	n/a	n/a	n/a	n/a	n/a	n/a
287.7111	0.6667	COLOR_NAME	3	Neutral	niebieski	blue	Neutral	Neutral	hit	n/a
288.3474	n/a	RESPONSE	n/a	n/a	n/a	n/a	n/a	n/a	n/a	blue
288.3778	1.0167	ITI	n/a	n/a	n/a	n/a	n/a	n/a	n/a	n/a
289.3945	0.5167	FIXCROSS	n/a	n/a	n/a	n/a	n/a	n/a	n/a	n/a
289.9111	1.2	COLOR_NAME	4	Incongruent	zielony	green	niebieski	blue	hit	n/a
291.0794	n/a	RESPONSE	n/a	n/a	n/a	n/a	n/a	n/a	n/a	green
291.1111	1.0167	ITI	n/a	n/a	n/a	n/a	n/a	n/a	n/a	n/a
292.1278	0.5167	FIXCROSS	n/a	n/a	n/a	n/a	n/a	n/a	n/a	n/a
292.6445	1.0	COLOR_NAME	5	Incongruent	zielony	green	żółty	yellow	hit	n/a
293.6195	n/a	RESPONSE	n/a	n/a	n/a	n/a	n/a	n/a	n/a	green
293.6445	1.0167	ITI	n/a	n/a	n/a	n/a	n/a	n/a	n/a	n/a
294.6612	0.5167	FIXCROSS	n/a	n/a	n/a	n/a	n/a	n/a	n/a	n/a
295.1778	0.6833	COLOR_NAME	6	Neutral	żółty	yellow	Neutral	Neutral	hit	n/a
295.8401	n/a	RESPONSE	n/a	n/a	n/a	n/a	n/a	n/a	n/a	yellow
295.8612	1.0167	ITI	n/a	n/a	n/a	n/a	n/a	n/a	n/a	n/a
296.8778	0.5167	FIXCROSS	n/a	n/a	n/a	n/a	n/a	n/a	n/a	n/a
297.3945	0.7333	COLOR_NAME	7	Incongruent	zielony	green	żółty	yellow	hit	n/a
298.1088	n/a	RESPONSE	n/a	n/a	n/a	n/a	n/a	n/a	n/a	green
298.1278	1.0167	ITI	n/a	n/a	n/a	n/a	n/a	n/a	n/a	n/a
299.1445	0.5167	FIXCROSS	n/a	n/a	n/a	n/a	n/a	n/a	n/a	n/a
299.6612	0.9667	COLOR_NAME	8	Neutral	zielony	green	Neutral	Neutral	hit	n/a
300.6011	n/a	RESPONSE	n/a	n/a	n/a	n/a	n/a	n/a	n/a	green
300.6279	1.0167	ITI	n/a	n/a	n/a	n/a	n/a	n/a	n/a	n/a
301.6445	0.5167	FIXCROSS	n/a	n/a	n/a	n/a	n/a	n/a	n/a	n/a
302.1612	0.65	COLOR_NAME	9	Neutral	żółty	yellow	Neutral	Neutral	hit	n/a
302.7897	n/a	RESPONSE	n/a	n/a	n/a	n/a	n/a	n/a	n/a	yellow
302.8112	1.0167	ITI	n/a	n/a	n/a	n/a	n/a	n/a	n/a	n/a
303.8279	0.5167	FIXCROSS	n/a	n/a	n/a	n/a	n/a	n/a	n/a	n/a
304.3446	1.25	COLOR_NAME	10	Neutral	niebieski	blue	Neutral	Neutral	hit	n/a
305.5695	n/a	RESPONSE	n/a	n/a	n/a	n/a	n/a	n/a	n/a	blue
305.5946	1.0167	ITI	n/a	n/a	n/a	n/a	n/a	n/a	n/a	n/a
306.6112	0.5167	FIXCROSS	n/a	n/a	n/a	n/a	n/a	n/a	n/a	n/a
307.1279	0.75	COLOR_NAME	11	Incongruent	niebieski	blue	zielony	green	hit	n/a
307.8541	n/a	RESPONSE	n/a	n/a	n/a	n/a	n/a	n/a	n/a	blue
307.8779	1.0167	ITI	n/a	n/a	n/a	n/a	n/a	n/a	n/a	n/a
308.8946	0.5167	FIXCROSS	n/a	n/a	n/a	n/a	n/a	n/a	n/a	n/a
309.4113	1.0167	COLOR_NAME	12	Incongruent	czerwony	red	niebieski	blue	hit	n/a
310.4102	n/a	RESPONSE	n/a	n/a	n/a	n/a	n/a	n/a	n/a	red
310.428	1.0167	ITI	n/a	n/a	n/a	n/a	n/a	n/a	n/a	n/a
311.4446	0.5167	FIXCROSS	n/a	n/a	n/a	n/a	n/a	n/a	n/a	n/a
311.9613	0.45	COLOR_NAME	13	Neutral	czerwony	red	Neutral	Neutral	hit	n/a
312.3912	n/a	RESPONSE	n/a	n/a	n/a	n/a	n/a	n/a	n/a	red
312.4113	1.0167	ITI	n/a	n/a	n/a	n/a	n/a	n/a	n/a	n/a
313.428	0.5167	FIXCROSS	n/a	n/a	n/a	n/a	n/a	n/a	n/a	n/a
313.9446	0.7667	COLOR_NAME	14	Incongruent	żółty	yellow	zielony	green	hit	n/a
314.6916	n/a	RESPONSE	n/a	n/a	n/a	n/a	n/a	n/a	n/a	yellow
314.7113	1.0167	ITI	n/a	n/a	n/a	n/a	n/a	n/a	n/a	n/a
315.728	0.5167	FIXCROSS	n/a	n/a	n/a	n/a	n/a	n/a	n/a	n/a
316.2447	0.65	COLOR_NAME	15	Incongruent	niebieski	blue	czerwony	red	hit	n/a
316.8644	n/a	RESPONSE	n/a	n/a	n/a	n/a	n/a	n/a	n/a	blue
316.8947	1.0167	ITI	n/a	n/a	n/a	n/a	n/a	n/a	n/a	n/a
317.9113	0.5167	FIXCROSS	n/a	n/a	n/a	n/a	n/a	n/a	n/a	n/a
318.428	1.2834	COLOR_NAME	16	Incongruent	czerwony	red	zielony	green	hit	n/a
319.6921	n/a	RESPONSE	n/a	n/a	n/a	n/a	n/a	n/a	n/a	red
319.7114	1.0167	ITI	n/a	n/a	n/a	n/a	n/a	n/a	n/a	n/a
320.728	0.5166	FIXCROSS	n/a	n/a	n/a	n/a	n/a	n/a	n/a	n/a
321.2447	0.8167	COLOR_NAME	17	Neutral	niebieski	blue	Neutral	Neutral	hit	n/a
322.0406	n/a	RESPONSE	n/a	n/a	n/a	n/a	n/a	n/a	n/a	blue
322.0614	1.0167	ITI	n/a	n/a	n/a	n/a	n/a	n/a	n/a	n/a
323.078	0.5167	FIXCROSS	n/a	n/a	n/a	n/a	n/a	n/a	n/a	n/a
323.5947	0.85	COLOR_NAME	18	Incongruent	niebieski	blue	żółty	yellow	hit	n/a
324.4209	n/a	RESPONSE	n/a	n/a	n/a	n/a	n/a	n/a	n/a	blue
324.4447	1.0167	ITI	n/a	n/a	n/a	n/a	n/a	n/a	n/a	n/a
325.4614	0.5167	FIXCROSS	n/a	n/a	n/a	n/a	n/a	n/a	n/a	n/a
325.9781	0.7667	COLOR_NAME	19	Neutral	czerwony	red	Neutral	Neutral	hit	n/a
326.7215	n/a	RESPONSE	n/a	n/a	n/a	n/a	n/a	n/a	n/a	red
326.7447	1.0167	ITI	n/a	n/a	n/a	n/a	n/a	n/a	n/a	n/a
327.7614	0.5167	FIXCROSS	n/a	n/a	n/a	n/a	n/a	n/a	n/a	n/a
328.2781	0.6667	COLOR_NAME	20	Incongruent	niebieski	blue	czerwony	red	hit	n/a
328.9261	n/a	RESPONSE	n/a	n/a	n/a	n/a	n/a	n/a	n/a	blue
328.9448	1.0167	ITI	n/a	n/a	n/a	n/a	n/a	n/a	n/a	n/a
329.9614	0.5167	FIXCROSS	n/a	n/a	n/a	n/a	n/a	n/a	n/a	n/a
330.4781	0.9667	COLOR_NAME	21	Neutral	zielony	green	Neutral	Neutral	hit	n/a
331.4185	n/a	RESPONSE	n/a	n/a	n/a	n/a	n/a	n/a	n/a	green
331.4448	1.0167	ITI	n/a	n/a	n/a	n/a	n/a	n/a	n/a	n/a
332.4615	0.5167	FIXCROSS	n/a	n/a	n/a	n/a	n/a	n/a	n/a	n/a
332.9781	0.6667	COLOR_NAME	22	Neutral	niebieski	blue	Neutral	Neutral	hit	n/a
333.6231	n/a	RESPONSE	n/a	n/a	n/a	n/a	n/a	n/a	n/a	blue
333.6448	1.0167	ITI	n/a	n/a	n/a	n/a	n/a	n/a	n/a	n/a
334.6615	0.5167	FIXCROSS	n/a	n/a	n/a	n/a	n/a	n/a	n/a	n/a
335.1781	0.6667	COLOR_NAME	23	Incongruent	żółty	yellow	niebieski	blue	hit	n/a
335.8118	n/a	RESPONSE	n/a	n/a	n/a	n/a	n/a	n/a	n/a	yellow
335.8448	1.0167	ITI	n/a	n/a	n/a	n/a	n/a	n/a	n/a	n/a
336.8615	0.5167	FIXCROSS	n/a	n/a	n/a	n/a	n/a	n/a	n/a	n/a
337.3782	0.7667	COLOR_NAME	24	Incongruent	czerwony	red	żółty	yellow	hit	n/a
338.1124	n/a	RESPONSE	n/a	n/a	n/a	n/a	n/a	n/a	n/a	red
338.1448	1.0167	ITI	n/a	n/a	n/a	n/a	n/a	n/a	n/a	n/a
339.1615	0.5167	FIXCROSS	n/a	n/a	n/a	n/a	n/a	n/a	n/a	n/a
339.6782	0.6667	COLOR_NAME	25	Neutral	zielony	green	Neutral	Neutral	hit	n/a
340.317	n/a	RESPONSE	n/a	n/a	n/a	n/a	n/a	n/a	n/a	green
340.3448	1.0167	ITI	n/a	n/a	n/a	n/a	n/a	n/a	n/a	n/a
341.3615	0.5167	FIXCROSS	n/a	n/a	n/a	n/a	n/a	n/a	n/a	n/a
341.8782	0.8333	COLOR_NAME	26	Incongruent	czerwony	red	żółty	yellow	hit	n/a
342.6813	n/a	RESPONSE	n/a	n/a	n/a	n/a	n/a	n/a	n/a	red
342.7115	1.0167	ITI	n/a	n/a	n/a	n/a	n/a	n/a	n/a	n/a
343.7282	0.5167	FIXCROSS	n/a	n/a	n/a	n/a	n/a	n/a	n/a	n/a
344.2449	0.8667	COLOR_NAME	27	Neutral	niebieski	blue	Neutral	Neutral	hit	n/a
345.0778	n/a	RESPONSE	n/a	n/a	n/a	n/a	n/a	n/a	n/a	blue
345.1116	1.0167	ITI	n/a	n/a	n/a	n/a	n/a	n/a	n/a	n/a
346.1282	0.5167	FIXCROSS	n/a	n/a	n/a	n/a	n/a	n/a	n/a	n/a
346.6449	0.8333	COLOR_NAME	28	Neutral	czerwony	red	Neutral	Neutral	hit	n/a
347.4582	n/a	RESPONSE	n/a	n/a	n/a	n/a	n/a	n/a	n/a	red
347.4782	1.0167	ITI	n/a	n/a	n/a	n/a	n/a	n/a	n/a	n/a
348.4949	0.5167	FIXCROSS	n/a	n/a	n/a	n/a	n/a	n/a	n/a	n/a
349.0116	0.4833	COLOR_NAME	29	Neutral	zielony	green	Neutral	Neutral	hit	n/a
349.4711	n/a	RESPONSE	n/a	n/a	n/a	n/a	n/a	n/a	n/a	green
349.4949	1.0167	ITI	n/a	n/a	n/a	n/a	n/a	n/a	n/a	n/a
350.5116	0.5167	FIXCROSS	n/a	n/a	n/a	n/a	n/a	n/a	n/a	n/a
351.0283	0.7167	COLOR_NAME	30	Incongruent	zielony	green	niebieski	blue	hit	n/a
351.7236	n/a	RESPONSE	n/a	n/a	n/a	n/a	n/a	n/a	n/a	green
351.7449	1.0167	ITI	n/a	n/a	n/a	n/a	n/a	n/a	n/a	n/a
352.7616	0.5167	FIXCROSS	n/a	n/a	n/a	n/a	n/a	n/a	n/a	n/a
353.2783	0.5	COLOR_NAME	31	Neutral	żółty	yellow	Neutral	Neutral	hit	n/a
353.7526	n/a	RESPONSE	n/a	n/a	n/a	n/a	n/a	n/a	n/a	yellow
353.7783	1.0167	ITI	n/a	n/a	n/a	n/a	n/a	n/a	n/a	n/a
354.795	0.5167	FIXCROSS	n/a	n/a	n/a	n/a	n/a	n/a	n/a	n/a
355.3116	0.9333	COLOR_NAME	32	Incongruent	czerwony	red	niebieski	blue	hit	n/a
356.2128	n/a	RESPONSE	n/a	n/a	n/a	n/a	n/a	n/a	n/a	red
356.245	1.0167	ITI	n/a	n/a	n/a	n/a	n/a	n/a	n/a	n/a
357.2616	0.5167	FIXCROSS	n/a	n/a	n/a	n/a	n/a	n/a	n/a	n/a
357.7783	0.8	COLOR_NAME	33	Neutral	czerwony	red	Neutral	Neutral	hit	n/a
358.5453	n/a	RESPONSE	n/a	n/a	n/a	n/a	n/a	n/a	n/a	red
358.5783	1.0167	ITI	n/a	n/a	n/a	n/a	n/a	n/a	n/a	n/a
359.595	0.5167	FIXCROSS	n/a	n/a	n/a	n/a	n/a	n/a	n/a	n/a
360.1117	0.5333	COLOR_NAME	34	Neutral	czerwony	red	Neutral	Neutral	hit	n/a
360.6221	n/a	RESPONSE	n/a	n/a	n/a	n/a	n/a	n/a	n/a	red
360.645	1.0167	ITI	n/a	n/a	n/a	n/a	n/a	n/a	n/a	n/a
361.6617	0.5167	FIXCROSS	n/a	n/a	n/a	n/a	n/a	n/a	n/a	n/a
362.1783	0.5333	COLOR_NAME	35	Neutral	czerwony	red	Neutral	Neutral	hit	n/a
362.683	n/a	RESPONSE	n/a	n/a	n/a	n/a	n/a	n/a	n/a	red
362.7117	1.0167	ITI	n/a	n/a	n/a	n/a	n/a	n/a	n/a	n/a
363.7284	0.5167	FIXCROSS	n/a	n/a	n/a	n/a	n/a	n/a	n/a	n/a
364.245	0.8	COLOR_NAME	36	Incongruent	żółty	yellow	niebieski	blue	hit	n/a
365.0153	n/a	RESPONSE	n/a	n/a	n/a	n/a	n/a	n/a	n/a	yellow
365.045	1.0167	ITI	n/a	n/a	n/a	n/a	n/a	n/a	n/a	n/a
366.0617	0.5167	FIXCROSS	n/a	n/a	n/a	n/a	n/a	n/a	n/a	n/a
366.5784	1.0167	COLOR_NAME	37	Incongruent	zielony	green	żółty	yellow	hit	n/a
367.5714	n/a	RESPONSE	n/a	n/a	n/a	n/a	n/a	n/a	n/a	green
367.5951	1.0167	ITI	n/a	n/a	n/a	n/a	n/a	n/a	n/a	n/a
368.6117	0.5167	FIXCROSS	n/a	n/a	n/a	n/a	n/a	n/a	n/a	n/a
369.1284	0.6333	COLOR_NAME	38	Neutral	zielony	green	Neutral	Neutral	hit	n/a
369.744	n/a	RESPONSE	n/a	n/a	n/a	n/a	n/a	n/a	n/a	green
369.7617	1.0167	ITI	n/a	n/a	n/a	n/a	n/a	n/a	n/a	n/a
370.7784	0.5167	FIXCROSS	n/a	n/a	n/a	n/a	n/a	n/a	n/a	n/a
371.2951	0.85	COLOR_NAME	39	Neutral	żółty	yellow	Neutral	Neutral	hit	n/a
372.1245	n/a	RESPONSE	n/a	n/a	n/a	n/a	n/a	n/a	n/a	yellow
372.1451	1.0167	ITI	n/a	n/a	n/a	n/a	n/a	n/a	n/a	n/a
373.1618	0.5167	FIXCROSS	n/a	n/a	n/a	n/a	n/a	n/a	n/a	n/a
373.6785	0.9333	COLOR_NAME	40	Neutral	niebieski	blue	Neutral	Neutral	incorrect	n/a
374.5847	n/a	RESPONSE	n/a	n/a	n/a	n/a	n/a	n/a	n/a	red
374.6118	1.0167	ITI	n/a	n/a	n/a	n/a	n/a	n/a	n/a	n/a
375.6285	0.5167	FIXCROSS	n/a	n/a	n/a	n/a	n/a	n/a	n/a	n/a
376.1451	1.6334	COLOR_NAME	41	Neutral	zielony	green	Neutral	Neutral	hit	n/a
377.7479	n/a	RESPONSE	n/a	n/a	n/a	n/a	n/a	n/a	n/a	green
377.7785	1.0167	ITI	n/a	n/a	n/a	n/a	n/a	n/a	n/a	n/a
378.7952	0.5167	FIXCROSS	n/a	n/a	n/a	n/a	n/a	n/a	n/a	n/a
379.3118	0.9	COLOR_NAME	42	Neutral	żółty	yellow	Neutral	Neutral	hit	n/a
380.1922	n/a	RESPONSE	n/a	n/a	n/a	n/a	n/a	n/a	n/a	yellow
380.2118	1.0167	ITI	n/a	n/a	n/a	n/a	n/a	n/a	n/a	n/a
381.2285	0.5167	FIXCROSS	n/a	n/a	n/a	n/a	n/a	n/a	n/a	n/a
381.7452	0.9333	COLOR_NAME	43	Incongruent	żółty	yellow	niebieski	blue	hit	n/a
382.6525	n/a	RESPONSE	n/a	n/a	n/a	n/a	n/a	n/a	n/a	yellow
382.6785	1.0167	ITI	n/a	n/a	n/a	n/a	n/a	n/a	n/a	n/a
383.6952	0.5167	FIXCROSS	n/a	n/a	n/a	n/a	n/a	n/a	n/a	n/a
384.2119	1.2167	COLOR_NAME	44	Incongruent	czerwony	red	zielony	green	hit	n/a
385.4002	n/a	RESPONSE	n/a	n/a	n/a	n/a	n/a	n/a	n/a	red
385.4285	1.0167	ITI	n/a	n/a	n/a	n/a	n/a	n/a	n/a	n/a
386.4452	0.5167	FIXCROSS	n/a	n/a	n/a	n/a	n/a	n/a	n/a	n/a
386.9619	0.8667	COLOR_NAME	45	Neutral	czerwony	red	Neutral	Neutral	hit	n/a
387.7966	n/a	RESPONSE	n/a	n/a	n/a	n/a	n/a	n/a	n/a	red
387.8286	1.0167	ITI	n/a	n/a	n/a	n/a	n/a	n/a	n/a	n/a
388.8452	0.5167	FIXCROSS	n/a	n/a	n/a	n/a	n/a	n/a	n/a	n/a
389.3619	0.7833	COLOR_NAME	46	Neutral	zielony	green	Neutral	Neutral	hit	n/a
390.1131	n/a	RESPONSE	n/a	n/a	n/a	n/a	n/a	n/a	n/a	green
390.1452	1.0167	ITI	n/a	n/a	n/a	n/a	n/a	n/a	n/a	n/a
391.1619	0.5167	FIXCROSS	n/a	n/a	n/a	n/a	n/a	n/a	n/a	n/a
391.6786	0.8167	COLOR_NAME	47	Incongruent	zielony	green	czerwony	red	hit	n/a
392.4615	n/a	RESPONSE	n/a	n/a	n/a	n/a	n/a	n/a	n/a	green
392.4953	1.0167	ITI	n/a	n/a	n/a	n/a	n/a	n/a	n/a	n/a
393.5119	0.5167	FIXCROSS	n/a	n/a	n/a	n/a	n/a	n/a	n/a	n/a
394.0286	0.6167	COLOR_NAME	48	Incongruent	niebieski	blue	żółty	yellow	hit	n/a
394.6183	n/a	RESPONSE	n/a	n/a	n/a	n/a	n/a	n/a	n/a	blue
394.6453	1.0167	ITI	n/a	n/a	n/a	n/a	n/a	n/a	n/a	n/a
395.6619	0.5167	FIXCROSS	n/a	n/a	n/a	n/a	n/a	n/a	n/a	n/a
396.1786	0.6167	COLOR_NAME	49	Incongruent	żółty	yellow	zielony	green	hit	n/a
396.775	n/a	RESPONSE	n/a	n/a	n/a	n/a	n/a	n/a	n/a	yellow
396.7953	1.0167	ITI	n/a	n/a	n/a	n/a	n/a	n/a	n/a	n/a
397.812	0.5167	FIXCROSS	n/a	n/a	n/a	n/a	n/a	n/a	n/a	n/a
398.3286	0.9	COLOR_NAME	50	Incongruent	zielony	green	czerwony	red	hit	n/a
399.2033	n/a	RESPONSE	n/a	n/a	n/a	n/a	n/a	n/a	n/a	green
399.2286	1.0167	ITI	n/a	n/a	n/a	n/a	n/a	n/a	n/a	n/a
400.2453	0.5167	FIXCROSS	n/a	n/a	n/a	n/a	n/a	n/a	n/a	n/a
400.762	0.8167	COLOR_NAME	51	Incongruent	żółty	yellow	czerwony	red	hit	n/a
401.5518	n/a	RESPONSE	n/a	n/a	n/a	n/a	n/a	n/a	n/a	yellow
401.5787	1.0167	ITI	n/a	n/a	n/a	n/a	n/a	n/a	n/a	n/a
402.5953	0.5167	FIXCROSS	n/a	n/a	n/a	n/a	n/a	n/a	n/a	n/a
403.112	0.8833	COLOR_NAME	52	Neutral	żółty	yellow	Neutral	Neutral	hit	n/a
403.9643	n/a	RESPONSE	n/a	n/a	n/a	n/a	n/a	n/a	n/a	yellow
403.9953	1.0167	ITI	n/a	n/a	n/a	n/a	n/a	n/a	n/a	n/a
405.012	0.5167	FIXCROSS	n/a	n/a	n/a	n/a	n/a	n/a	n/a	n/a
405.5287	0.8333	COLOR_NAME	53	Neutral	niebieski	blue	Neutral	Neutral	hit	n/a
406.3288	n/a	RESPONSE	n/a	n/a	n/a	n/a	n/a	n/a	n/a	blue
406.362	1.0167	ITI	n/a	n/a	n/a	n/a	n/a	n/a	n/a	n/a
407.3787	0.5167	FIXCROSS	n/a	n/a	n/a	n/a	n/a	n/a	n/a	n/a
407.8954	0.5833	COLOR_NAME	54	Neutral	niebieski	blue	Neutral	Neutral	hit	n/a
408.4536	n/a	RESPONSE	n/a	n/a	n/a	n/a	n/a	n/a	n/a	blue
408.4787	1.0167	ITI	n/a	n/a	n/a	n/a	n/a	n/a	n/a	n/a
409.4954	0.5167	FIXCROSS	n/a	n/a	n/a	n/a	n/a	n/a	n/a	n/a
410.0121	0.6667	COLOR_NAME	55	Incongruent	żółty	yellow	czerwony	red	hit	n/a
410.6582	n/a	RESPONSE	n/a	n/a	n/a	n/a	n/a	n/a	n/a	yellow
410.6787	1.0167	ITI	n/a	n/a	n/a	n/a	n/a	n/a	n/a	n/a
411.6954	0.5167	FIXCROSS	n/a	n/a	n/a	n/a	n/a	n/a	n/a	n/a
412.2121	0.9167	COLOR_NAME	56	Incongruent	zielony	green	czerwony	red	hit	n/a
413.1026	n/a	RESPONSE	n/a	n/a	n/a	n/a	n/a	n/a	n/a	green
413.1288	1.0167	ITI	n/a	n/a	n/a	n/a	n/a	n/a	n/a	n/a
414.1454	0.5167	FIXCROSS	n/a	n/a	n/a	n/a	n/a	n/a	n/a	n/a
414.6621	0.7833	COLOR_NAME	57	Neutral	żółty	yellow	Neutral	Neutral	hit	n/a
415.4191	n/a	RESPONSE	n/a	n/a	n/a	n/a	n/a	n/a	n/a	yellow
415.4454	1.0167	ITI	n/a	n/a	n/a	n/a	n/a	n/a	n/a	n/a
416.4621	0.5167	FIXCROSS	n/a	n/a	n/a	n/a	n/a	n/a	n/a	n/a
416.9788	0.65	COLOR_NAME	58	Neutral	zielony	green	Neutral	Neutral	hit	n/a
417.6077	n/a	RESPONSE	n/a	n/a	n/a	n/a	n/a	n/a	n/a	green
417.6288	1.0167	ITI	n/a	n/a	n/a	n/a	n/a	n/a	n/a	n/a
418.6455	0.5167	FIXCROSS	n/a	n/a	n/a	n/a	n/a	n/a	n/a	n/a
419.1621	0.6667	COLOR_NAME	59	Incongruent	niebieski	blue	żółty	yellow	hit	n/a
419.7965	n/a	RESPONSE	n/a	n/a	n/a	n/a	n/a	n/a	n/a	blue
419.8288	1.0167	ITI	n/a	n/a	n/a	n/a	n/a	n/a	n/a	n/a
420.8455	0.5167	FIXCROSS	n/a	n/a	n/a	n/a	n/a	n/a	n/a	n/a
421.3622	0.65	COLOR_NAME	60	Incongruent	żółty	yellow	czerwony	red	hit	n/a
421.9852	n/a	RESPONSE	n/a	n/a	n/a	n/a	n/a	n/a	n/a	yellow
422.0122	1.0167	ITI	n/a	n/a	n/a	n/a	n/a	n/a	n/a	n/a
423.0288	0.5167	FIXCROSS	n/a	n/a	n/a	n/a	n/a	n/a	n/a	n/a
423.5455	0.7333	COLOR_NAME	61	Neutral	czerwony	red	Neutral	Neutral	hit	n/a
424.2539	n/a	RESPONSE	n/a	n/a	n/a	n/a	n/a	n/a	n/a	red
424.2788	1.0167	ITI	n/a	n/a	n/a	n/a	n/a	n/a	n/a	n/a
425.2955	0.5167	FIXCROSS	n/a	n/a	n/a	n/a	n/a	n/a	n/a	n/a
425.8122	0.9	COLOR_NAME	62	Incongruent	niebieski	blue	zielony	green	hit	n/a
426.6825	n/a	RESPONSE	n/a	n/a	n/a	n/a	n/a	n/a	n/a	blue
426.7122	1.0167	ITI	n/a	n/a	n/a	n/a	n/a	n/a	n/a	n/a
427.7289	0.5167	FIXCROSS	n/a	n/a	n/a	n/a	n/a	n/a	n/a	n/a
428.2455	0.65	COLOR_NAME	63	Incongruent	zielony	green	niebieski	blue	hit	n/a
428.8715	n/a	RESPONSE	n/a	n/a	n/a	n/a	n/a	n/a	n/a	green
428.8955	1.0167	ITI	n/a	n/a	n/a	n/a	n/a	n/a	n/a	n/a
429.9122	0.5167	FIXCROSS	n/a	n/a	n/a	n/a	n/a	n/a	n/a	n/a
430.4289	0.7167	COLOR_NAME	64	Neutral	zielony	green	Neutral	Neutral	hit	n/a
431.1243	n/a	RESPONSE	n/a	n/a	n/a	n/a	n/a	n/a	n/a	green
431.1456	1.0167	ITI	n/a	n/a	n/a	n/a	n/a	n/a	n/a	n/a
432.1622	0.5167	FIXCROSS	n/a	n/a	n/a	n/a	n/a	n/a	n/a	n/a
432.6789	0.6333	COLOR_NAME	65	Neutral	żółty	yellow	Neutral	Neutral	hit	n/a
433.2813	n/a	RESPONSE	n/a	n/a	n/a	n/a	n/a	n/a	n/a	yellow
433.3122	1.0167	ITI	n/a	n/a	n/a	n/a	n/a	n/a	n/a	n/a
434.3289	0.5167	FIXCROSS	n/a	n/a	n/a	n/a	n/a	n/a	n/a	n/a
434.8456	0.7833	COLOR_NAME	66	Incongruent	niebieski	blue	zielony	green	hit	n/a
435.5982	n/a	RESPONSE	n/a	n/a	n/a	n/a	n/a	n/a	n/a	blue
435.6289	1.0167	ITI	n/a	n/a	n/a	n/a	n/a	n/a	n/a	n/a
436.6456	0.5167	FIXCROSS	n/a	n/a	n/a	n/a	n/a	n/a	n/a	n/a
437.1623	0.8167	COLOR_NAME	67	Neutral	czerwony	red	Neutral	Neutral	hit	n/a
437.9469	n/a	RESPONSE	n/a	n/a	n/a	n/a	n/a	n/a	n/a	red
437.979	1.0167	ITI	n/a	n/a	n/a	n/a	n/a	n/a	n/a	n/a
438.9956	0.5167	FIXCROSS	n/a	n/a	n/a	n/a	n/a	n/a	n/a	n/a
439.5123	0.7667	COLOR_NAME	68	Incongruent	niebieski	blue	czerwony	red	hit	n/a
440.2477	n/a	RESPONSE	n/a	n/a	n/a	n/a	n/a	n/a	n/a	blue
440.279	1.0167	ITI	n/a	n/a	n/a	n/a	n/a	n/a	n/a	n/a
441.2956	0.5167	FIXCROSS	n/a	n/a	n/a	n/a	n/a	n/a	n/a	n/a
441.8123	1.2167	COLOR_NAME	69	Incongruent	czerwony	red	zielony	green	hit	n/a
442.996	n/a	RESPONSE	n/a	n/a	n/a	n/a	n/a	n/a	n/a	red
443.029	1.0167	ITI	n/a	n/a	n/a	n/a	n/a	n/a	n/a	n/a
444.0457	0.5167	FIXCROSS	n/a	n/a	n/a	n/a	n/a	n/a	n/a	n/a
444.5623	0.85	COLOR_NAME	70	Neutral	żółty	yellow	Neutral	Neutral	hit	n/a
445.3927	n/a	RESPONSE	n/a	n/a	n/a	n/a	n/a	n/a	n/a	yellow
445.4123	1.0167	ITI	n/a	n/a	n/a	n/a	n/a	n/a	n/a	n/a
446.429	0.5167	FIXCROSS	n/a	n/a	n/a	n/a	n/a	n/a	n/a	n/a
446.9457	1.45	COLOR_NAME	71	Incongruent	czerwony	red	żółty	yellow	hit	n/a
448.3647	n/a	RESPONSE	n/a	n/a	n/a	n/a	n/a	n/a	n/a	red
448.3957	1.0167	ITI	n/a	n/a	n/a	n/a	n/a	n/a	n/a	n/a
449.4124	0.5167	FIXCROSS	n/a	n/a	n/a	n/a	n/a	n/a	n/a	n/a
449.929	0.7667	COLOR_NAME	72	Incongruent	czerwony	red	niebieski	blue	hit	n/a
450.6655	n/a	RESPONSE	n/a	n/a	n/a	n/a	n/a	n/a	n/a	red
450.6957	1.0333	ITI	n/a	n/a	n/a	n/a	n/a	n/a	n/a	n/a
454.1807	n/a	RESPONSE	n/a	n/a	n/a	n/a	n/a	n/a	n/a	n/a
