onset	duration	trial_type	melody_number	melody_part	key	sound	action
0.0	14.087	CUE_START	n/a	n/a	n/a	n/a	n/a
14.087	7.76	FIXCROSS	n/a	n/a	n/a	n/a	n/a
21.847	6.316	CUE_LISTEN	M1	1	n/a	n/a	n/a
28.162	7.758	FIXCROSS	n/a	n/a	n/a	n/a	n/a
35.92	6.317	CUE_PLAYBACK_RIGHT_HAND	M1	1	n/a	n/a	n/a
36.734	n/a	RESPONSE	M1	1	19	G4	press
37.226	n/a	RESPONSE	M1	1	16	E4	press
37.289	n/a	RESPONSE	M1	1	19	G4	release
37.438	n/a	RESPONSE	M1	1	16	E4	release
37.719	n/a	RESPONSE	M1	1	16	E4	press
38.211	n/a	RESPONSE	M1	1	17	F4	press
38.232	n/a	RESPONSE	M1	1	16	E4	release
38.723	n/a	RESPONSE	M1	1	14	D4	press
38.774	n/a	RESPONSE	M1	1	17	F4	release
38.906	n/a	RESPONSE	M1	1	14	D4	release
39.197	n/a	RESPONSE	M1	1	14	D4	press
39.698	n/a	RESPONSE	M1	1	12	C4	press
39.799	n/a	RESPONSE	M1	1	14	D4	release
39.943	n/a	RESPONSE	M1	1	16	E4	press
40.004	n/a	RESPONSE	M1	1	12	C4	release
40.183	n/a	RESPONSE	M1	1	19	G4	press
40.214	n/a	RESPONSE	M1	1	16	E4	release
40.906	n/a	RESPONSE	M1	1	19	G4	release
42.237	7.758	FIXCROSS	n/a	n/a	n/a	n/a	n/a
49.996	6.325	CUE_LISTEN	M1	2	n/a	n/a	n/a
56.32	7.758	FIXCROSS	n/a	n/a	n/a	n/a	n/a
64.079	6.317	CUE_PLAYBACK_RIGHT_HAND	M1	2	n/a	n/a	n/a
64.674	n/a	RESPONSE	M1	2	19	G4	press
65.179	n/a	RESPONSE	M1	2	16	E4	press
65.248	n/a	RESPONSE	M1	2	19	G4	release
65.412	n/a	RESPONSE	M1	2	16	E4	release
65.707	n/a	RESPONSE	M1	2	16	E4	press
66.222	n/a	RESPONSE	M1	2	17	F4	press
66.233	n/a	RESPONSE	M1	2	16	E4	release
66.719	n/a	RESPONSE	M1	2	14	D4	press
66.762	n/a	RESPONSE	M1	2	17	F4	release
66.882	n/a	RESPONSE	M1	2	14	D4	release
67.223	n/a	RESPONSE	M1	2	14	D4	press
67.744	n/a	RESPONSE	M1	2	12	C4	press
67.938	n/a	RESPONSE	M1	2	14	D4	release
67.997	n/a	RESPONSE	M1	2	16	E4	press
68.038	n/a	RESPONSE	M1	2	12	C4	release
68.249	n/a	RESPONSE	M1	2	12	C4	press
68.253	n/a	RESPONSE	M1	2	16	E4	release
69.232	n/a	RESPONSE	M1	2	12	C4	release
70.396	7.758	FIXCROSS	n/a	n/a	n/a	n/a	n/a
78.154	6.317	CUE_LISTEN	M2	1	n/a	n/a	n/a
84.47	7.758	FIXCROSS	n/a	n/a	n/a	n/a	n/a
92.229	6.325	CUE_PLAYBACK_BOTH_HANDS	M2	1	n/a	n/a	n/a
92.927	n/a	RESPONSE	M2	1	00	C3	press
92.929	n/a	RESPONSE	M2	1	23	B4	press
92.938	n/a	RESPONSE	M2	1	07	G3	press
93.376	n/a	RESPONSE	M2	1	23	B4	release
93.472	n/a	RESPONSE	M2	1	00	C3	release
93.486	n/a	RESPONSE	M2	1	07	G3	release
93.902	n/a	RESPONSE	M2	1	24	C5	press
93.931	n/a	RESPONSE	M2	1	00	C3	press
93.939	n/a	RESPONSE	M2	1	07	G3	press
94.401	n/a	RESPONSE	M2	1	19	G4	press
94.527	n/a	RESPONSE	M2	1	24	C5	release
94.583	n/a	RESPONSE	M2	1	07	G3	release
94.589	n/a	RESPONSE	M2	1	19	G4	release
94.626	n/a	RESPONSE	M2	1	00	C3	release
94.886	n/a	RESPONSE	M2	1	19	G4	press
94.891	n/a	RESPONSE	M2	1	07	G3	press
94.894	n/a	RESPONSE	M2	1	00	C3	press
95.369	n/a	RESPONSE	M2	1	17	F4	press
95.422	n/a	RESPONSE	M2	1	19	G4	release
95.487	n/a	RESPONSE	M2	1	00	C3	release
95.512	n/a	RESPONSE	M2	1	07	G3	release
95.862	n/a	RESPONSE	M2	1	07	G3	press
95.864	n/a	RESPONSE	M2	1	16	E4	press
95.869	n/a	RESPONSE	M2	1	00	C3	press
95.928	n/a	RESPONSE	M2	1	17	F4	release
96.336	n/a	RESPONSE	M2	1	17	F4	press
96.399	n/a	RESPONSE	M2	1	16	E4	release
96.449	n/a	RESPONSE	M2	1	00	C3	release
96.467	n/a	RESPONSE	M2	1	07	G3	release
96.836	n/a	RESPONSE	M2	1	19	G4	press
96.844	n/a	RESPONSE	M2	1	07	G3	press
96.856	n/a	RESPONSE	M2	1	00	C3	press
96.887	n/a	RESPONSE	M2	1	17	F4	release
97.678	n/a	RESPONSE	M2	1	07	G3	release
97.699	n/a	RESPONSE	M2	1	00	C3	release
97.731	n/a	RESPONSE	M2	1	19	G4	release
98.554	7.758	FIXCROSS	n/a	n/a	n/a	n/a	n/a
106.312	6.317	CUE_LISTEN	M2	2	n/a	n/a	n/a
112.629	7.758	FIXCROSS	n/a	n/a	n/a	n/a	n/a
120.387	6.317	CUE_PLAYBACK_BOTH_HANDS	M2	2	n/a	n/a	n/a
121.159	n/a	RESPONSE	M2	2	07	G3	press
121.169	n/a	RESPONSE	M2	2	00	C3	press
121.172	n/a	RESPONSE	M2	2	23	B4	press
121.632	n/a	RESPONSE	M2	2	23	B4	release
121.783	n/a	RESPONSE	M2	2	00	C3	release
121.787	n/a	RESPONSE	M2	2	07	G3	release
122.126	n/a	RESPONSE	M2	2	07	G3	press
122.128	n/a	RESPONSE	M2	2	00	C3	press
122.131	n/a	RESPONSE	M2	2	24	C5	press
122.642	n/a	RESPONSE	M2	2	24	C5	release
122.901	n/a	RESPONSE	M2	2	00	C3	release
122.914	n/a	RESPONSE	M2	2	07	G3	release
123.071	n/a	RESPONSE	M2	2	24	C5	press
123.073	n/a	RESPONSE	M2	2	00	C3	press
123.076	n/a	RESPONSE	M2	2	07	G3	press
123.497	n/a	RESPONSE	M2	2	19	G4	press
123.602	n/a	RESPONSE	M2	2	24	C5	release
123.707	n/a	RESPONSE	M2	2	00	C3	release
123.712	n/a	RESPONSE	M2	2	19	G4	release
123.719	n/a	RESPONSE	M2	2	07	G3	release
124.041	n/a	RESPONSE	M2	2	07	G3	press
124.047	n/a	RESPONSE	M2	2	00	C3	press
124.049	n/a	RESPONSE	M2	2	19	G4	press
124.523	n/a	RESPONSE	M2	2	17	F4	press
124.582	n/a	RESPONSE	M2	2	19	G4	release
124.631	n/a	RESPONSE	M2	2	00	C3	release
124.649	n/a	RESPONSE	M2	2	07	G3	release
125.023	n/a	RESPONSE	M2	2	00	C3	press
125.026	n/a	RESPONSE	M2	2	07	G3	press
125.042	n/a	RESPONSE	M2	2	16	E4	press
125.096	n/a	RESPONSE	M2	2	17	F4	release
125.519	n/a	RESPONSE	M2	2	14	D4	press
125.596	n/a	RESPONSE	M2	2	16	E4	release
125.617	n/a	RESPONSE	M2	2	07	G3	release
125.619	n/a	RESPONSE	M2	2	00	C3	release
126.027	n/a	RESPONSE	M2	2	12	C4	press
126.037	n/a	RESPONSE	M2	2	07	G3	press
126.041	n/a	RESPONSE	M2	2	00	C3	press
126.089	n/a	RESPONSE	M2	2	14	D4	release
126.704	7.758	FIXCROSS	n/a	n/a	n/a	n/a	n/a
126.978	n/a	RESPONSE	M2	2	00	C3	release
126.992	n/a	RESPONSE	M2	2	12	C4	release
127.063	n/a	RESPONSE	M2	2	07	G3	release
134.462	6.325	CUE_LISTEN	M2	1	n/a	n/a	n/a
140.787	7.758	FIXCROSS	n/a	n/a	n/a	n/a	n/a
148.546	6.317	CUE_PLAYBACK_BOTH_HANDS	M2	1	n/a	n/a	n/a
149.291	n/a	RESPONSE	M2	1	07	G3	press
149.302	n/a	RESPONSE	M2	1	12	C4	press
149.304	n/a	RESPONSE	M2	1	00	C3	press
149.834	n/a	RESPONSE	M2	1	14	D4	press
149.906	n/a	RESPONSE	M2	1	12	C4	release
149.917	n/a	RESPONSE	M2	1	07	G3	release
149.958	n/a	RESPONSE	M2	1	00	C3	release
150.299	n/a	RESPONSE	M2	1	07	G3	press
150.302	n/a	RESPONSE	M2	1	00	C3	press
150.322	n/a	RESPONSE	M2	1	16	E4	press
150.373	n/a	RESPONSE	M2	1	14	D4	release
150.834	n/a	RESPONSE	M2	1	14	D4	press
150.876	n/a	RESPONSE	M2	1	16	E4	release
150.899	n/a	RESPONSE	M2	1	00	C3	release
150.938	n/a	RESPONSE	M2	1	07	G3	release
151.282	n/a	RESPONSE	M2	1	07	G3	press
151.291	n/a	RESPONSE	M2	1	00	C3	press
151.302	n/a	RESPONSE	M2	1	16	E4	press
151.354	n/a	RESPONSE	M2	1	14	D4	release
151.784	n/a	RESPONSE	M2	1	17	F4	press
151.806	n/a	RESPONSE	M2	1	16	E4	release
151.867	n/a	RESPONSE	M2	1	00	C3	release
151.888	n/a	RESPONSE	M2	1	07	G3	release
152.279	n/a	RESPONSE	M2	1	07	G3	press
152.282	n/a	RESPONSE	M2	1	00	C3	press
152.292	n/a	RESPONSE	M2	1	19	G4	press
152.334	n/a	RESPONSE	M2	1	17	F4	release
153.034	n/a	RESPONSE	M2	1	19	G4	release
153.046	n/a	RESPONSE	M2	1	00	C3	release
153.064	n/a	RESPONSE	M2	1	07	G3	release
154.862	7.758	FIXCROSS	n/a	n/a	n/a	n/a	n/a
162.621	6.325	CUE_LISTEN	M2	2	n/a	n/a	n/a
168.946	7.758	FIXCROSS	n/a	n/a	n/a	n/a	n/a
176.704	6.317	CUE_PLAYBACK_BOTH_HANDS	M2	2	n/a	n/a	n/a
177.493	n/a	RESPONSE	M2	2	16	E4	press
177.504	n/a	RESPONSE	M2	2	07	G3	press
177.516	n/a	RESPONSE	M2	2	00	C3	press
178.047	n/a	RESPONSE	M2	2	19	G4	press
178.101	n/a	RESPONSE	M2	2	16	E4	release
178.199	n/a	RESPONSE	M2	2	07	G3	release
178.202	n/a	RESPONSE	M2	2	00	C3	release
178.232	n/a	RESPONSE	M2	2	19	G4	release
178.513	n/a	RESPONSE	M2	2	07	G3	press
178.516	n/a	RESPONSE	M2	2	00	C3	press
178.536	n/a	RESPONSE	M2	2	19	G4	press
179.007	n/a	RESPONSE	M2	2	17	F4	press
179.048	n/a	RESPONSE	M2	2	19	G4	release
179.159	n/a	RESPONSE	M2	2	00	C3	release
179.173	n/a	RESPONSE	M2	2	07	G3	release
179.484	n/a	RESPONSE	M2	2	00	C3	press
179.493	n/a	RESPONSE	M2	2	07	G3	press
179.496	n/a	RESPONSE	M2	2	16	E4	press
179.538	n/a	RESPONSE	M2	2	17	F4	release
180.027	n/a	RESPONSE	M2	2	14	D4	press
180.068	n/a	RESPONSE	M2	2	16	E4	release
180.089	n/a	RESPONSE	M2	2	07	G3	release
180.101	n/a	RESPONSE	M2	2	00	C3	release
180.522	n/a	RESPONSE	M2	2	00	C3	press
180.524	n/a	RESPONSE	M2	2	07	G3	press
180.527	n/a	RESPONSE	M2	2	12	C4	press
180.599	n/a	RESPONSE	M2	2	14	D4	release
181.508	n/a	RESPONSE	M2	2	12	C4	release
181.511	n/a	RESPONSE	M2	2	00	C3	release
181.531	n/a	RESPONSE	M2	2	07	G3	release
183.021	7.758	FIXCROSS	n/a	n/a	n/a	n/a	n/a
190.779	6.317	CUE_LISTEN	M1	1	n/a	n/a	n/a
197.096	7.758	FIXCROSS	n/a	n/a	n/a	n/a	n/a
204.854	6.325	CUE_PLAYBACK_RIGHT_HAND	M1	1	n/a	n/a	n/a
205.436	n/a	RESPONSE	M1	1	19	G4	press
205.919	n/a	RESPONSE	M1	1	16	E4	press
205.973	n/a	RESPONSE	M1	1	19	G4	release
206.102	n/a	RESPONSE	M1	1	16	E4	release
206.422	n/a	RESPONSE	M1	1	16	E4	press
206.902	n/a	RESPONSE	M1	1	17	F4	press
206.931	n/a	RESPONSE	M1	1	16	E4	release
207.402	n/a	RESPONSE	M1	1	14	D4	press
207.453	n/a	RESPONSE	M1	1	17	F4	release
207.574	n/a	RESPONSE	M1	1	14	D4	release
207.876	n/a	RESPONSE	M1	1	14	D4	press
208.357	n/a	RESPONSE	M1	1	12	C4	press
208.391	n/a	RESPONSE	M1	1	14	D4	release
208.589	n/a	RESPONSE	M1	1	16	E4	press
208.661	n/a	RESPONSE	M1	1	12	C4	release
208.822	n/a	RESPONSE	M1	1	19	G4	press
208.846	n/a	RESPONSE	M1	1	16	E4	release
209.554	n/a	RESPONSE	M1	1	19	G4	release
211.179	7.758	FIXCROSS	n/a	n/a	n/a	n/a	n/a
218.938	6.317	CUE_LISTEN	M1	2	n/a	n/a	n/a
225.254	7.758	FIXCROSS	n/a	n/a	n/a	n/a	n/a
233.012	6.317	CUE_PLAYBACK_RIGHT_HAND	M1	2	n/a	n/a	n/a
233.678	n/a	RESPONSE	M1	2	19	G4	press
234.163	n/a	RESPONSE	M1	2	16	E4	press
234.221	n/a	RESPONSE	M1	2	19	G4	release
234.347	n/a	RESPONSE	M1	2	16	E4	release
234.661	n/a	RESPONSE	M1	2	16	E4	press
235.161	n/a	RESPONSE	M1	2	17	F4	press
235.191	n/a	RESPONSE	M1	2	16	E4	release
235.609	n/a	RESPONSE	M1	2	14	D4	press
235.658	n/a	RESPONSE	M1	2	17	F4	release
235.762	n/a	RESPONSE	M1	2	14	D4	release
236.081	n/a	RESPONSE	M1	2	14	D4	press
236.552	n/a	RESPONSE	M1	2	12	C4	press
236.593	n/a	RESPONSE	M1	2	14	D4	release
236.782	n/a	RESPONSE	M1	2	16	E4	press
236.822	n/a	RESPONSE	M1	2	12	C4	release
237.043	n/a	RESPONSE	M1	2	12	C4	press
237.054	n/a	RESPONSE	M1	2	16	E4	release
237.986	n/a	RESPONSE	M1	2	12	C4	release
239.329	7.758	FIXCROSS	n/a	n/a	n/a	n/a	n/a
247.088	6.325	CUE_LISTEN	M3	1	n/a	n/a	n/a
253.412	7.758	FIXCROSS	n/a	n/a	n/a	n/a	n/a
261.171	6.317	CUE_PLAYBACK_RIGHT_HAND	M3	1	n/a	n/a	n/a
261.887	n/a	RESPONSE	M3	1	12	C4	press
262.388	n/a	RESPONSE	M3	1	14	D4	press
262.449	n/a	RESPONSE	M3	1	12	C4	release
262.931	n/a	RESPONSE	M3	1	16	E4	press
262.992	n/a	RESPONSE	M3	1	14	D4	release
263.432	n/a	RESPONSE	M3	1	12	C4	press
263.451	n/a	RESPONSE	M3	1	16	E4	release
263.597	n/a	RESPONSE	M3	1	12	C4	release
263.927	n/a	RESPONSE	M3	1	12	C4	press
264.423	n/a	RESPONSE	M3	1	14	D4	press
264.476	n/a	RESPONSE	M3	1	12	C4	release
264.901	n/a	RESPONSE	M3	1	16	E4	press
264.951	n/a	RESPONSE	M3	1	14	D4	release
265.397	n/a	RESPONSE	M3	1	12	C4	press
265.442	n/a	RESPONSE	M3	1	16	E4	release
265.727	n/a	RESPONSE	M3	1	12	C4	release
267.488	7.758	FIXCROSS	n/a	n/a	n/a	n/a	n/a
275.246	6.325	CUE_LISTEN	M3	2	n/a	n/a	n/a
281.571	7.758	FIXCROSS	n/a	n/a	n/a	n/a	n/a
289.329	6.317	CUE_PLAYBACK_RIGHT_HAND	M3	2	n/a	n/a	n/a
289.981	n/a	RESPONSE	M3	2	16	E4	press
290.482	n/a	RESPONSE	M3	2	17	F4	press
290.503	n/a	RESPONSE	M3	2	16	E4	release
290.977	n/a	RESPONSE	M3	2	19	G4	press
291.006	n/a	RESPONSE	M3	2	17	F4	release
291.997	n/a	RESPONSE	M3	2	16	E4	press
292.018	n/a	RESPONSE	M3	2	19	G4	release
292.509	n/a	RESPONSE	M3	2	17	F4	press
292.541	n/a	RESPONSE	M3	2	16	E4	release
292.992	n/a	RESPONSE	M3	2	19	G4	press
293.033	n/a	RESPONSE	M3	2	17	F4	release
294.119	n/a	RESPONSE	M3	2	19	G4	release
295.646	7.758	FIXCROSS	n/a	n/a	n/a	n/a	n/a
303.404	6.317	CUE_LISTEN	M3	1	n/a	n/a	n/a
309.721	7.758	FIXCROSS	n/a	n/a	n/a	n/a	n/a
317.479	6.317	CUE_PLAYBACK_RIGHT_HAND	M3	1	n/a	n/a	n/a
318.213	n/a	RESPONSE	M3	1	19	G4	press
318.464	n/a	RESPONSE	M3	1	21	A4	press
318.498	n/a	RESPONSE	M3	1	19	G4	release
318.707	n/a	RESPONSE	M3	1	19	G4	press
318.788	n/a	RESPONSE	M3	1	21	A4	release
318.919	n/a	RESPONSE	M3	1	17	F4	press
319.031	n/a	RESPONSE	M3	1	19	G4	release
319.192	n/a	RESPONSE	M3	1	16	E4	press
319.233	n/a	RESPONSE	M3	1	17	F4	release
319.664	n/a	RESPONSE	M3	1	12	C4	press
319.728	n/a	RESPONSE	M3	1	16	E4	release
320.167	n/a	RESPONSE	M3	1	19	G4	press
320.208	n/a	RESPONSE	M3	1	12	C4	release
320.402	n/a	RESPONSE	M3	1	21	A4	press
320.461	n/a	RESPONSE	M3	1	19	G4	release
320.632	n/a	RESPONSE	M3	1	19	G4	press
320.703	n/a	RESPONSE	M3	1	21	A4	release
320.856	n/a	RESPONSE	M3	1	17	F4	press
320.926	n/a	RESPONSE	M3	1	19	G4	release
321.107	n/a	RESPONSE	M3	1	16	E4	press
321.158	n/a	RESPONSE	M3	1	17	F4	release
321.579	n/a	RESPONSE	M3	1	12	C4	press
321.601	n/a	RESPONSE	M3	1	16	E4	release
322.472	n/a	RESPONSE	M3	1	12	C4	release
323.796	7.758	FIXCROSS	n/a	n/a	n/a	n/a	n/a
331.554	6.325	CUE_LISTEN	M3	2	n/a	n/a	n/a
337.879	7.758	FIXCROSS	n/a	n/a	n/a	n/a	n/a
345.638	6.317	CUE_PLAYBACK_RIGHT_HAND	M3	2	n/a	n/a	n/a
346.172	n/a	RESPONSE	M3	2	12	C4	press
346.551	n/a	RESPONSE	M3	2	12	C4	release
346.947	n/a	RESPONSE	M3	2	07	G3	press
347.357	n/a	RESPONSE	M3	2	07	G3	release
347.788	n/a	RESPONSE	M3	2	14	D4	press
348.029	n/a	RESPONSE	M3	2	14	D4	release
348.131	n/a	RESPONSE	M3	2	12	C4	press
348.902	n/a	RESPONSE	M3	2	12	C4	release
349.233	n/a	RESPONSE	M3	2	12	C4	press
349.637	n/a	RESPONSE	M3	2	12	C4	release
349.948	n/a	RESPONSE	M3	2	07	G3	press
350.437	n/a	RESPONSE	M3	2	07	G3	release
350.838	n/a	RESPONSE	M3	2	12	C4	press
351.954	7.758	FIXCROSS	n/a	n/a	n/a	n/a	n/a
352.309	n/a	RESPONSE	M3	2	12	C4	release
359.713	6.325	CUE_LISTEN	M1	1	n/a	n/a	n/a
366.038	7.758	FIXCROSS	n/a	n/a	n/a	n/a	n/a
373.796	6.317	CUE_PLAYBACK_BOTH_HANDS	M1	1	n/a	n/a	n/a
374.712	n/a	RESPONSE	M1	1	00	C3	press
374.714	n/a	RESPONSE	M1	1	19	G4	press
374.717	n/a	RESPONSE	M1	1	07	G3	press
374.736	n/a	RESPONSE	M1	1	04	E3	press
375.239	n/a	RESPONSE	M1	1	16	E4	press
375.288	n/a	RESPONSE	M1	1	19	G4	release
375.386	n/a	RESPONSE	M1	1	16	E4	release
375.734	n/a	RESPONSE	M1	1	16	E4	press
375.796	n/a	RESPONSE	M1	1	04	E3	release
375.803	n/a	RESPONSE	M1	1	00	C3	release
375.991	n/a	RESPONSE	M1	1	07	G3	release
376.231	n/a	RESPONSE	M1	1	07	G3	press
376.233	n/a	RESPONSE	M1	1	02	D3	press
376.243	n/a	RESPONSE	M1	1	05	F3	press
376.271	n/a	RESPONSE	M1	1	17	F4	press
376.298	n/a	RESPONSE	M1	1	16	E4	release
376.752	n/a	RESPONSE	M1	1	14	D4	press
376.776	n/a	RESPONSE	M1	1	17	F4	release
376.874	n/a	RESPONSE	M1	1	14	D4	release
377.256	n/a	RESPONSE	M1	1	14	D4	press
377.367	n/a	RESPONSE	M1	1	02	D3	release
377.398	n/a	RESPONSE	M1	1	05	F3	release
377.669	n/a	RESPONSE	M1	1	07	G3	release
377.781	n/a	RESPONSE	M1	1	12	C4	press
377.783	n/a	RESPONSE	M1	1	07	G3	press
377.793	n/a	RESPONSE	M1	1	00	C3	press
377.804	n/a	RESPONSE	M1	1	04	E3	press
377.856	n/a	RESPONSE	M1	1	14	D4	release
378.047	n/a	RESPONSE	M1	1	16	E4	press
378.148	n/a	RESPONSE	M1	1	12	C4	release
378.292	n/a	RESPONSE	M1	1	19	G4	press
378.333	n/a	RESPONSE	M1	1	16	E4	release
379.162	n/a	RESPONSE	M1	1	19	G4	release
379.193	n/a	RESPONSE	M1	1	04	E3	release
379.196	n/a	RESPONSE	M1	1	07	G3	release
379.218	n/a	RESPONSE	M1	1	00	C3	release
380.113	7.758	FIXCROSS	n/a	n/a	n/a	n/a	n/a
387.871	6.325	CUE_LISTEN	M1	2	n/a	n/a	n/a
394.196	7.758	FIXCROSS	n/a	n/a	n/a	n/a	n/a
401.954	6.317	CUE_PLAYBACK_BOTH_HANDS	M1	2	n/a	n/a	n/a
403.171	n/a	RESPONSE	M1	2	04	E3	press
403.183	n/a	RESPONSE	M1	2	19	G4	press
403.196	n/a	RESPONSE	M1	2	07	G3	press
403.207	n/a	RESPONSE	M1	2	00	C3	press
403.673	n/a	RESPONSE	M1	2	16	E4	press
403.727	n/a	RESPONSE	M1	2	19	G4	release
403.833	n/a	RESPONSE	M1	2	16	E4	release
404.204	n/a	RESPONSE	M1	2	16	E4	press
404.256	n/a	RESPONSE	M1	2	04	E3	release
404.268	n/a	RESPONSE	M1	2	00	C3	release
404.386	n/a	RESPONSE	M1	2	07	G3	release
404.696	n/a	RESPONSE	M1	2	07	G3	press
404.702	n/a	RESPONSE	M1	2	02	D3	press
404.706	n/a	RESPONSE	M1	2	05	F3	press
404.756	n/a	RESPONSE	M1	2	17	F4	press
404.792	n/a	RESPONSE	M1	2	16	E4	release
405.219	n/a	RESPONSE	M1	2	14	D4	press
405.249	n/a	RESPONSE	M1	2	17	F4	release
405.346	n/a	RESPONSE	M1	2	14	D4	release
405.706	n/a	RESPONSE	M1	2	14	D4	press
405.779	n/a	RESPONSE	M1	2	05	F3	release
405.827	n/a	RESPONSE	M1	2	02	D3	release
406.056	n/a	RESPONSE	M1	2	07	G3	release
406.244	n/a	RESPONSE	M1	2	12	C4	press
406.247	n/a	RESPONSE	M1	2	07	G3	press
406.266	n/a	RESPONSE	M1	2	04	E3	press
406.273	n/a	RESPONSE	M1	2	00	C3	press
406.314	n/a	RESPONSE	M1	2	14	D4	release
406.491	n/a	RESPONSE	M1	2	16	E4	press
406.548	n/a	RESPONSE	M1	2	12	C4	release
406.786	n/a	RESPONSE	M1	2	12	C4	press
406.788	n/a	RESPONSE	M1	2	16	E4	release
407.738	n/a	RESPONSE	M1	2	12	C4	release
407.759	n/a	RESPONSE	M1	2	00	C3	release
407.813	n/a	RESPONSE	M1	2	04	E3	release
407.832	n/a	RESPONSE	M1	2	07	G3	release
408.271	7.758	FIXCROSS	n/a	n/a	n/a	n/a	n/a
416.03	6.317	CUE_LISTEN	M2	1	n/a	n/a	n/a
422.346	7.758	FIXCROSS	n/a	n/a	n/a	n/a	n/a
430.105	6.317	CUE_PLAYBACK_RIGHT_HAND	M2	1	n/a	n/a	n/a
430.639	n/a	RESPONSE	M2	1	23	B4	press
430.941	n/a	RESPONSE	M2	1	23	B4	release
431.762	n/a	RESPONSE	M2	1	24	C5	press
432.246	n/a	RESPONSE	M2	1	17	F4	press
432.324	n/a	RESPONSE	M2	1	24	C5	release
432.496	n/a	RESPONSE	M2	1	17	F4	release
433.091	n/a	RESPONSE	M2	1	24	C5	press
433.461	n/a	RESPONSE	M2	1	24	C5	release
433.703	n/a	RESPONSE	M2	1	24	C5	press
434.203	n/a	RESPONSE	M2	1	19	G4	press
434.337	n/a	RESPONSE	M2	1	24	C5	release
434.409	n/a	RESPONSE	M2	1	19	G4	release
434.688	n/a	RESPONSE	M2	1	19	G4	press
435.171	n/a	RESPONSE	M2	1	17	F4	press
435.212	n/a	RESPONSE	M2	1	19	G4	release
435.678	n/a	RESPONSE	M2	1	16	E4	press
435.752	n/a	RESPONSE	M2	1	17	F4	release
436.162	n/a	RESPONSE	M2	1	17	F4	press
436.231	n/a	RESPONSE	M2	1	16	E4	release
436.421	7.758	FIXCROSS	n/a	n/a	n/a	n/a	n/a
436.649	n/a	RESPONSE	M2	1	19	G4	press
436.693	n/a	RESPONSE	M2	1	17	F4	release
437.713	n/a	RESPONSE	M2	1	19	G4	release
444.18	6.325	CUE_LISTEN	M2	2	n/a	n/a	n/a
450.504	7.758	FIXCROSS	n/a	n/a	n/a	n/a	n/a
458.263	6.317	CUE_PLAYBACK_RIGHT_HAND	M2	2	n/a	n/a	n/a
458.774	n/a	RESPONSE	M2	2	24	C5	press
459.286	n/a	RESPONSE	M2	2	19	G4	press
459.367	n/a	RESPONSE	M2	2	24	C5	release
459.468	n/a	RESPONSE	M2	2	19	G4	release
459.779	n/a	RESPONSE	M2	2	19	G4	press
460.271	n/a	RESPONSE	M2	2	17	F4	press
460.302	n/a	RESPONSE	M2	2	19	G4	release
460.773	n/a	RESPONSE	M2	2	16	E4	press
460.814	n/a	RESPONSE	M2	2	17	F4	release
461.246	n/a	RESPONSE	M2	2	14	D4	press
461.297	n/a	RESPONSE	M2	2	16	E4	release
461.731	n/a	RESPONSE	M2	2	12	C4	press
461.769	n/a	RESPONSE	M2	2	14	D4	release
462.821	n/a	RESPONSE	M2	2	12	C4	release
464.58	7.758	FIXCROSS	n/a	n/a	n/a	n/a	n/a
472.338	6.317	CUE_LISTEN	M2	1	n/a	n/a	n/a
478.655	7.758	FIXCROSS	n/a	n/a	n/a	n/a	n/a
486.413	6.325	CUE_PLAYBACK_RIGHT_HAND	M2	1	n/a	n/a	n/a
486.966	n/a	RESPONSE	M2	1	12	C4	press
487.439	n/a	RESPONSE	M2	1	14	D4	press
487.541	n/a	RESPONSE	M2	1	12	C4	release
487.949	n/a	RESPONSE	M2	1	16	E4	press
488.001	n/a	RESPONSE	M2	1	14	D4	release
488.474	n/a	RESPONSE	M2	1	14	D4	press
488.506	n/a	RESPONSE	M2	1	16	E4	release
488.984	n/a	RESPONSE	M2	1	16	E4	press
489.037	n/a	RESPONSE	M2	1	14	D4	release
489.507	n/a	RESPONSE	M2	1	17	F4	press
489.518	n/a	RESPONSE	M2	1	16	E4	release
490.049	n/a	RESPONSE	M2	1	19	G4	press
490.081	n/a	RESPONSE	M2	1	17	F4	release
491.002	n/a	RESPONSE	M2	1	19	G4	release
492.738	7.758	FIXCROSS	n/a	n/a	n/a	n/a	n/a
500.496	6.317	CUE_LISTEN	M2	2	n/a	n/a	n/a
506.813	7.758	FIXCROSS	n/a	n/a	n/a	n/a	n/a
514.571	6.317	CUE_PLAYBACK_RIGHT_HAND	M2	2	n/a	n/a	n/a
515.066	n/a	RESPONSE	M2	2	16	E4	press
515.612	n/a	RESPONSE	M2	2	19	G4	press
515.646	n/a	RESPONSE	M2	2	16	E4	release
515.846	n/a	RESPONSE	M2	2	19	G4	release
516.093	n/a	RESPONSE	M2	2	19	G4	press
516.561	n/a	RESPONSE	M2	2	17	F4	press
516.599	n/a	RESPONSE	M2	2	19	G4	release
517.043	n/a	RESPONSE	M2	2	16	E4	press
517.092	n/a	RESPONSE	M2	2	17	F4	release
517.523	n/a	RESPONSE	M2	2	14	D4	press
517.554	n/a	RESPONSE	M2	2	16	E4	release
518.016	n/a	RESPONSE	M2	2	12	C4	press
518.018	n/a	RESPONSE	M2	2	14	D4	release
519.088	n/a	RESPONSE	M2	2	12	C4	release
520.888	7.758	FIXCROSS	n/a	n/a	n/a	n/a	n/a
528.646	6.325	CUE_LISTEN	M3	1	n/a	n/a	n/a
534.971	7.758	FIXCROSS	n/a	n/a	n/a	n/a	n/a
542.73	6.317	CUE_PLAYBACK_BOTH_HANDS	M3	1	n/a	n/a	n/a
543.453	n/a	RESPONSE	M3	1	00	C3	press
543.463	n/a	RESPONSE	M3	1	12	C4	press
543.952	n/a	RESPONSE	M3	1	07	G3	press
543.967	n/a	RESPONSE	M3	1	14	D4	press
544.016	n/a	RESPONSE	M3	1	00	C3	release
544.046	n/a	RESPONSE	M3	1	12	C4	release
544.442	n/a	RESPONSE	M3	1	04	E3	press
544.459	n/a	RESPONSE	M3	1	16	E4	press
544.529	n/a	RESPONSE	M3	1	07	G3	release
544.538	n/a	RESPONSE	M3	1	14	D4	release
544.968	n/a	RESPONSE	M3	1	07	G3	press
544.973	n/a	RESPONSE	M3	1	12	C4	press
545.014	n/a	RESPONSE	M3	1	16	E4	release
545.037	n/a	RESPONSE	M3	1	04	E3	release
545.132	n/a	RESPONSE	M3	1	12	C4	release
545.496	n/a	RESPONSE	M3	1	00	C3	press
545.498	n/a	RESPONSE	M3	1	12	C4	press
545.567	n/a	RESPONSE	M3	1	07	G3	release
546.011	n/a	RESPONSE	M3	1	14	D4	press
546.013	n/a	RESPONSE	M3	1	07	G3	press
546.061	n/a	RESPONSE	M3	1	00	C3	release
546.074	n/a	RESPONSE	M3	1	12	C4	release
546.487	n/a	RESPONSE	M3	1	04	E3	press
546.502	n/a	RESPONSE	M3	1	16	E4	press
546.549	n/a	RESPONSE	M3	1	14	D4	release
546.558	n/a	RESPONSE	M3	1	07	G3	release
546.986	n/a	RESPONSE	M3	1	07	G3	press
547.017	n/a	RESPONSE	M3	1	12	C4	press
547.028	n/a	RESPONSE	M3	1	16	E4	release
547.031	n/a	RESPONSE	M3	1	04	E3	release
547.531	n/a	RESPONSE	M3	1	12	C4	release
547.632	n/a	RESPONSE	M3	1	07	G3	release
549.046	7.759	FIXCROSS	n/a	n/a	n/a	n/a	n/a
556.805	6.317	CUE_LISTEN	M3	2	n/a	n/a	n/a
563.121	7.758	FIXCROSS	n/a	n/a	n/a	n/a	n/a
570.88	6.325	CUE_PLAYBACK_BOTH_HANDS	M3	2	n/a	n/a	n/a
571.661	n/a	RESPONSE	M3	2	00	C3	press
571.672	n/a	RESPONSE	M3	2	16	E4	press
572.173	n/a	RESPONSE	M3	2	07	G3	press
572.194	n/a	RESPONSE	M3	2	17	F4	press
572.216	n/a	RESPONSE	M3	2	00	C3	release
572.239	n/a	RESPONSE	M3	2	16	E4	release
572.701	n/a	RESPONSE	M3	2	04	E3	press
572.722	n/a	RESPONSE	M3	2	19	G4	press
572.764	n/a	RESPONSE	M3	2	17	F4	release
572.783	n/a	RESPONSE	M3	2	07	G3	release
573.231	n/a	RESPONSE	M3	2	07	G3	press
573.287	n/a	RESPONSE	M3	2	04	E3	release
573.344	n/a	RESPONSE	M3	2	19	G4	release
573.731	n/a	RESPONSE	M3	2	00	C3	press
573.753	n/a	RESPONSE	M3	2	16	E4	press
573.776	n/a	RESPONSE	M3	2	07	G3	release
574.236	n/a	RESPONSE	M3	2	07	G3	press
574.266	n/a	RESPONSE	M3	2	17	F4	press
574.281	n/a	RESPONSE	M3	2	00	C3	release
574.294	n/a	RESPONSE	M3	2	16	E4	release
574.791	n/a	RESPONSE	M3	2	04	E3	press
574.793	n/a	RESPONSE	M3	2	19	G4	press
574.821	n/a	RESPONSE	M3	2	17	F4	release
574.844	n/a	RESPONSE	M3	2	07	G3	release
575.271	n/a	RESPONSE	M3	2	07	G3	press
575.326	n/a	RESPONSE	M3	2	04	E3	release
575.978	n/a	RESPONSE	M3	2	19	G4	release
576.05	n/a	RESPONSE	M3	2	07	G3	release
577.205	7.758	FIXCROSS	n/a	n/a	n/a	n/a	n/a
584.963	6.317	CUE_LISTEN	M3	1	n/a	n/a	n/a
591.28	7.758	FIXCROSS	n/a	n/a	n/a	n/a	n/a
599.038	6.325	CUE_PLAYBACK_BOTH_HANDS	M3	1	n/a	n/a	n/a
599.813	n/a	RESPONSE	M3	1	00	C3	press
599.826	n/a	RESPONSE	M3	1	19	G4	press
600.066	n/a	RESPONSE	M3	1	21	A4	press
600.097	n/a	RESPONSE	M3	1	19	G4	release
600.328	n/a	RESPONSE	M3	1	07	G3	press
600.331	n/a	RESPONSE	M3	1	19	G4	press
600.391	n/a	RESPONSE	M3	1	21	A4	release
600.394	n/a	RESPONSE	M3	1	00	C3	release
600.593	n/a	RESPONSE	M3	1	17	F4	press
600.694	n/a	RESPONSE	M3	1	19	G4	release
600.846	n/a	RESPONSE	M3	1	04	E3	press
600.879	n/a	RESPONSE	M3	1	16	E4	press
600.928	n/a	RESPONSE	M3	1	17	F4	release
600.939	n/a	RESPONSE	M3	1	07	G3	release
601.341	n/a	RESPONSE	M3	1	07	G3	press
601.352	n/a	RESPONSE	M3	1	14	D4	press
601.366	n/a	RESPONSE	M3	1	16	E4	release
601.394	n/a	RESPONSE	M3	1	04	E3	release
601.656	n/a	RESPONSE	M3	1	14	D4	release
601.777	n/a	RESPONSE	M3	1	12	C4	press
602.138	n/a	RESPONSE	M3	1	07	G3	release
602.199	n/a	RESPONSE	M3	1	12	C4	release
602.331	n/a	RESPONSE	M3	1	00	C3	press
602.342	n/a	RESPONSE	M3	1	19	G4	press
602.586	n/a	RESPONSE	M3	1	21	A4	press
602.634	n/a	RESPONSE	M3	1	19	G4	release
602.856	n/a	RESPONSE	M3	1	19	G4	press
602.887	n/a	RESPONSE	M3	1	07	G3	press
602.918	n/a	RESPONSE	M3	1	21	A4	release
602.959	n/a	RESPONSE	M3	1	00	C3	release
603.103	n/a	RESPONSE	M3	1	17	F4	press
603.157	n/a	RESPONSE	M3	1	19	G4	release
603.399	n/a	RESPONSE	M3	1	04	E3	press
603.409	n/a	RESPONSE	M3	1	16	E4	press
603.463	n/a	RESPONSE	M3	1	17	F4	release
603.467	n/a	RESPONSE	M3	1	07	G3	release
603.918	n/a	RESPONSE	M3	1	07	G3	press
603.926	n/a	RESPONSE	M3	1	12	C4	press
603.967	n/a	RESPONSE	M3	1	16	E4	release
603.976	n/a	RESPONSE	M3	1	04	E3	release
604.586	n/a	RESPONSE	M3	1	12	C4	release
604.691	n/a	RESPONSE	M3	1	07	G3	release
605.363	7.758	FIXCROSS	n/a	n/a	n/a	n/a	n/a
613.122	6.317	CUE_LISTEN	M3	2	n/a	n/a	n/a
619.438	7.758	FIXCROSS	n/a	n/a	n/a	n/a	n/a
627.197	6.317	CUE_PLAYBACK_BOTH_HANDS	M3	2	n/a	n/a	n/a
627.897	n/a	RESPONSE	M3	2	00	C3	press
627.908	n/a	RESPONSE	M3	2	12	C4	press
628.439	n/a	RESPONSE	M3	2	07	G3	press
628.551	n/a	RESPONSE	M3	2	12	C4	release
628.774	n/a	RESPONSE	M3	2	00	C3	release
629.034	n/a	RESPONSE	M3	2	07	G3	release
629.084	n/a	RESPONSE	M3	2	00	C3	press
629.096	n/a	RESPONSE	M3	2	12	C4	press
629.857	n/a	RESPONSE	M3	2	12	C4	release
629.859	n/a	RESPONSE	M3	2	00	C3	release
630.169	n/a	RESPONSE	M3	2	00	C3	press
630.183	n/a	RESPONSE	M3	2	12	C4	press
630.712	n/a	RESPONSE	M3	2	07	G3	press
630.786	n/a	RESPONSE	M3	2	00	C3	release
630.814	n/a	RESPONSE	M3	2	12	C4	release
631.356	n/a	RESPONSE	M3	2	07	G3	release
631.389	n/a	RESPONSE	M3	2	00	C3	press
631.398	n/a	RESPONSE	M3	2	12	C4	press
632.429	n/a	RESPONSE	M3	2	12	C4	release
632.481	n/a	RESPONSE	M3	2	00	C3	release
633.513	7.759	FIXCROSS	n/a	n/a	n/a	n/a	n/a
641.272	6.325	CUE_LISTEN	M1	1	n/a	n/a	n/a
647.597	7.758	FIXCROSS	n/a	n/a	n/a	n/a	n/a
655.355	6.317	CUE_PLAYBACK_BOTH_HANDS	M1	1	n/a	n/a	n/a
656.297	n/a	RESPONSE	M1	1	04	E3	press
656.324	n/a	RESPONSE	M1	1	07	G3	press
656.329	n/a	RESPONSE	M1	1	19	G4	press
656.332	n/a	RESPONSE	M1	1	00	C3	press
656.808	n/a	RESPONSE	M1	1	16	E4	press
656.859	n/a	RESPONSE	M1	1	19	G4	release
656.961	n/a	RESPONSE	M1	1	16	E4	release
657.352	n/a	RESPONSE	M1	1	16	E4	press
657.443	n/a	RESPONSE	M1	1	04	E3	release
657.447	n/a	RESPONSE	M1	1	00	C3	release
657.536	n/a	RESPONSE	M1	1	07	G3	release
657.847	n/a	RESPONSE	M1	1	02	D3	press
657.849	n/a	RESPONSE	M1	1	07	G3	press
657.852	n/a	RESPONSE	M1	1	05	F3	press
657.872	n/a	RESPONSE	M1	1	17	F4	press
657.994	n/a	RESPONSE	M1	1	16	E4	release
658.403	n/a	RESPONSE	M1	1	14	D4	press
658.434	n/a	RESPONSE	M1	1	17	F4	release
658.556	n/a	RESPONSE	M1	1	14	D4	release
658.917	n/a	RESPONSE	M1	1	14	D4	press
659.039	n/a	RESPONSE	M1	1	05	F3	release
659.081	n/a	RESPONSE	M1	1	02	D3	release
659.111	n/a	RESPONSE	M1	1	07	G3	release
659.434	n/a	RESPONSE	M1	1	12	C4	press
659.443	n/a	RESPONSE	M1	1	07	G3	press
659.446	n/a	RESPONSE	M1	1	00	C3	press
659.448	n/a	RESPONSE	M1	1	04	E3	press
659.477	n/a	RESPONSE	M1	1	14	D4	release
659.688	n/a	RESPONSE	M1	1	16	E4	press
659.739	n/a	RESPONSE	M1	1	12	C4	release
659.951	n/a	RESPONSE	M1	1	19	G4	press
659.962	n/a	RESPONSE	M1	1	16	E4	release
660.834	n/a	RESPONSE	M1	1	19	G4	release
660.867	n/a	RESPONSE	M1	1	04	E3	release
660.876	n/a	RESPONSE	M1	1	07	G3	release
660.879	n/a	RESPONSE	M1	1	00	C3	release
661.672	7.758	FIXCROSS	n/a	n/a	n/a	n/a	n/a
669.43	6.317	CUE_LISTEN	M1	2	n/a	n/a	n/a
675.747	7.758	FIXCROSS	n/a	n/a	n/a	n/a	n/a
683.505	6.325	CUE_PLAYBACK_BOTH_HANDS	M1	2	n/a	n/a	n/a
684.302	n/a	RESPONSE	M1	2	19	G4	press
684.322	n/a	RESPONSE	M1	2	07	G3	press
684.324	n/a	RESPONSE	M1	2	00	C3	press
684.331	n/a	RESPONSE	M1	2	04	E3	press
684.814	n/a	RESPONSE	M1	2	16	E4	press
684.844	n/a	RESPONSE	M1	2	19	G4	release
684.944	n/a	RESPONSE	M1	2	16	E4	release
685.366	n/a	RESPONSE	M1	2	16	E4	press
685.429	n/a	RESPONSE	M1	2	04	E3	release
685.462	n/a	RESPONSE	M1	2	00	C3	release
685.516	n/a	RESPONSE	M1	2	07	G3	release
685.842	n/a	RESPONSE	M1	2	07	G3	press
685.853	n/a	RESPONSE	M1	2	02	D3	press
685.873	n/a	RESPONSE	M1	2	05	F3	press
685.892	n/a	RESPONSE	M1	2	17	F4	press
685.923	n/a	RESPONSE	M1	2	16	E4	release
686.399	n/a	RESPONSE	M1	2	14	D4	press
686.418	n/a	RESPONSE	M1	2	17	F4	release
686.512	n/a	RESPONSE	M1	2	14	D4	release
686.907	n/a	RESPONSE	M1	2	14	D4	press
686.968	n/a	RESPONSE	M1	2	02	D3	release
687.017	n/a	RESPONSE	M1	2	05	F3	release
687.048	n/a	RESPONSE	M1	2	07	G3	release
687.432	n/a	RESPONSE	M1	2	07	G3	press
687.441	n/a	RESPONSE	M1	2	12	C4	press
687.443	n/a	RESPONSE	M1	2	04	E3	press
687.446	n/a	RESPONSE	M1	2	00	C3	press
687.477	n/a	RESPONSE	M1	2	14	D4	release
687.709	n/a	RESPONSE	M1	2	16	E4	press
687.761	n/a	RESPONSE	M1	2	12	C4	release
687.989	n/a	RESPONSE	M1	2	12	C4	press
687.992	n/a	RESPONSE	M1	2	16	E4	release
689.182	n/a	RESPONSE	M1	2	12	C4	release
689.193	n/a	RESPONSE	M1	2	07	G3	release
689.264	n/a	RESPONSE	M1	2	04	E3	release
689.366	n/a	RESPONSE	M1	2	00	C3	release
689.83	7.758	FIXCROSS	n/a	n/a	n/a	n/a	n/a
697.588	6.317	CUE_LISTEN	M2	1	n/a	n/a	n/a
703.905	7.758	FIXCROSS	n/a	n/a	n/a	n/a	n/a
711.663	6.317	CUE_PLAYBACK_BOTH_HANDS	M2	1	n/a	n/a	n/a
712.252	n/a	RESPONSE	M2	1	00	C3	press
712.262	n/a	RESPONSE	M2	1	07	G3	press
712.282	n/a	RESPONSE	M2	1	23	B4	press
712.603	n/a	RESPONSE	M2	1	23	B4	release
712.744	n/a	RESPONSE	M2	1	07	G3	release
712.747	n/a	RESPONSE	M2	1	00	C3	release
713.007	n/a	RESPONSE	M2	1	00	C3	press
713.009	n/a	RESPONSE	M2	1	24	C5	press
713.012	n/a	RESPONSE	M2	1	07	G3	press
713.529	n/a	RESPONSE	M2	1	19	G4	press
713.646	n/a	RESPONSE	M2	1	24	C5	release
713.692	n/a	RESPONSE	M2	1	00	C3	release
713.697	n/a	RESPONSE	M2	1	07	G3	release
713.704	n/a	RESPONSE	M2	1	19	G4	release
714.058	n/a	RESPONSE	M2	1	07	G3	press
714.061	n/a	RESPONSE	M2	1	00	C3	press
714.063	n/a	RESPONSE	M2	1	19	G4	press
714.554	n/a	RESPONSE	M2	1	17	F4	press
714.607	n/a	RESPONSE	M2	1	19	G4	release
714.678	n/a	RESPONSE	M2	1	00	C3	release
714.696	n/a	RESPONSE	M2	1	07	G3	release
715.031	n/a	RESPONSE	M2	1	16	E4	press
715.052	n/a	RESPONSE	M2	1	07	G3	press
715.061	n/a	RESPONSE	M2	1	00	C3	press
715.094	n/a	RESPONSE	M2	1	17	F4	release
715.542	n/a	RESPONSE	M2	1	17	F4	press
715.592	n/a	RESPONSE	M2	1	16	E4	release
715.643	n/a	RESPONSE	M2	1	00	C3	release
715.647	n/a	RESPONSE	M2	1	07	G3	release
716.038	n/a	RESPONSE	M2	1	19	G4	press
716.044	n/a	RESPONSE	M2	1	07	G3	press
716.051	n/a	RESPONSE	M2	1	00	C3	press
716.077	n/a	RESPONSE	M2	1	17	F4	release
716.981	n/a	RESPONSE	M2	1	00	C3	release
717.052	n/a	RESPONSE	M2	1	07	G3	release
717.281	n/a	RESPONSE	M2	1	19	G4	release
717.98	7.758	FIXCROSS	n/a	n/a	n/a	n/a	n/a
725.738	6.325	CUE_LISTEN	M2	2	n/a	n/a	n/a
732.063	7.758	FIXCROSS	n/a	n/a	n/a	n/a	n/a
739.822	6.317	CUE_PLAYBACK_BOTH_HANDS	M2	2	n/a	n/a	n/a
740.713	n/a	RESPONSE	M2	2	00	C3	press
740.716	n/a	RESPONSE	M2	2	07	G3	press
740.726	n/a	RESPONSE	M2	2	24	C5	press
741.219	n/a	RESPONSE	M2	2	19	G4	press
741.378	n/a	RESPONSE	M2	2	24	C5	release
741.439	n/a	RESPONSE	M2	2	19	G4	release
741.443	n/a	RESPONSE	M2	2	07	G3	release
741.472	n/a	RESPONSE	M2	2	00	C3	release
741.753	n/a	RESPONSE	M2	2	19	G4	press
741.757	n/a	RESPONSE	M2	2	00	C3	press
741.766	n/a	RESPONSE	M2	2	07	G3	press
742.247	n/a	RESPONSE	M2	2	17	F4	press
742.308	n/a	RESPONSE	M2	2	19	G4	release
742.359	n/a	RESPONSE	M2	2	00	C3	release
742.362	n/a	RESPONSE	M2	2	07	G3	release
742.723	n/a	RESPONSE	M2	2	07	G3	press
742.733	n/a	RESPONSE	M2	2	00	C3	press
742.744	n/a	RESPONSE	M2	2	16	E4	press
742.796	n/a	RESPONSE	M2	2	17	F4	release
743.224	n/a	RESPONSE	M2	2	14	D4	press
743.296	n/a	RESPONSE	M2	2	00	C3	release
743.301	n/a	RESPONSE	M2	2	16	E4	release
743.312	n/a	RESPONSE	M2	2	07	G3	release
743.731	n/a	RESPONSE	M2	2	07	G3	press
743.752	n/a	RESPONSE	M2	2	00	C3	press
743.754	n/a	RESPONSE	M2	2	12	C4	press
743.901	n/a	RESPONSE	M2	2	14	D4	release
744.778	n/a	RESPONSE	M2	2	00	C3	release
744.824	n/a	RESPONSE	M2	2	07	G3	release
744.827	n/a	RESPONSE	M2	2	12	C4	release
746.138	7.758	FIXCROSS	n/a	n/a	n/a	n/a	n/a
753.897	6.317	CUE_LISTEN	M2	1	n/a	n/a	n/a
760.214	7.758	FIXCROSS	n/a	n/a	n/a	n/a	n/a
767.972	6.325	CUE_PLAYBACK_BOTH_HANDS	M2	1	n/a	n/a	n/a
768.689	n/a	RESPONSE	M2	1	00	C3	press
768.698	n/a	RESPONSE	M2	1	07	G3	press
768.71	n/a	RESPONSE	M2	1	12	C4	press
769.242	n/a	RESPONSE	M2	1	14	D4	press
769.316	n/a	RESPONSE	M2	1	12	C4	release
769.354	n/a	RESPONSE	M2	1	00	C3	release
769.366	n/a	RESPONSE	M2	1	07	G3	release
769.718	n/a	RESPONSE	M2	1	00	C3	press
769.721	n/a	RESPONSE	M2	1	07	G3	press
769.729	n/a	RESPONSE	M2	1	16	E4	press
769.781	n/a	RESPONSE	M2	1	14	D4	release
770.254	n/a	RESPONSE	M2	1	14	D4	press
770.296	n/a	RESPONSE	M2	1	16	E4	release
770.304	n/a	RESPONSE	M2	1	00	C3	release
770.316	n/a	RESPONSE	M2	1	07	G3	release
770.717	n/a	RESPONSE	M2	1	07	G3	press
770.719	n/a	RESPONSE	M2	1	00	C3	press
770.729	n/a	RESPONSE	M2	1	16	E4	press
770.781	n/a	RESPONSE	M2	1	14	D4	release
771.232	n/a	RESPONSE	M2	1	17	F4	press
771.264	n/a	RESPONSE	M2	1	16	E4	release
771.364	n/a	RESPONSE	M2	1	00	C3	release
771.367	n/a	RESPONSE	M2	1	07	G3	release
771.738	n/a	RESPONSE	M2	1	19	G4	press
771.741	n/a	RESPONSE	M2	1	07	G3	press
771.749	n/a	RESPONSE	M2	1	00	C3	press
771.781	n/a	RESPONSE	M2	1	17	F4	release
772.634	n/a	RESPONSE	M2	1	00	C3	release
772.663	n/a	RESPONSE	M2	1	07	G3	release
772.674	n/a	RESPONSE	M2	1	19	G4	release
774.297	7.758	FIXCROSS	n/a	n/a	n/a	n/a	n/a
782.055	6.317	CUE_LISTEN	M2	2	n/a	n/a	n/a
788.372	7.759	FIXCROSS	n/a	n/a	n/a	n/a	n/a
796.13	6.325	CUE_PLAYBACK_BOTH_HANDS	M2	2	n/a	n/a	n/a
796.829	n/a	RESPONSE	M2	2	00	C3	press
796.832	n/a	RESPONSE	M2	2	07	G3	press
796.843	n/a	RESPONSE	M2	2	16	E4	press
797.383	n/a	RESPONSE	M2	2	19	G4	press
797.434	n/a	RESPONSE	M2	2	16	E4	release
797.538	n/a	RESPONSE	M2	2	00	C3	release
797.547	n/a	RESPONSE	M2	2	07	G3	release
797.628	n/a	RESPONSE	M2	2	19	G4	release
797.889	n/a	RESPONSE	M2	2	19	G4	press
797.892	n/a	RESPONSE	M2	2	00	C3	press
797.894	n/a	RESPONSE	M2	2	07	G3	press
798.393	n/a	RESPONSE	M2	2	17	F4	press
798.424	n/a	RESPONSE	M2	2	19	G4	release
798.478	n/a	RESPONSE	M2	2	00	C3	release
798.507	n/a	RESPONSE	M2	2	07	G3	release
798.871	n/a	RESPONSE	M2	2	00	C3	press
798.879	n/a	RESPONSE	M2	2	07	G3	press
798.883	n/a	RESPONSE	M2	2	16	E4	press
798.934	n/a	RESPONSE	M2	2	17	F4	release
799.423	n/a	RESPONSE	M2	2	14	D4	press
799.464	n/a	RESPONSE	M2	2	16	E4	release
799.476	n/a	RESPONSE	M2	2	00	C3	release
799.497	n/a	RESPONSE	M2	2	07	G3	release
799.918	n/a	RESPONSE	M2	2	00	C3	press
799.92	n/a	RESPONSE	M2	2	07	G3	press
799.929	n/a	RESPONSE	M2	2	12	C4	press
799.952	n/a	RESPONSE	M2	2	14	D4	release
800.794	n/a	RESPONSE	M2	2	00	C3	release
800.814	n/a	RESPONSE	M2	2	07	G3	release
800.817	n/a	RESPONSE	M2	2	12	C4	release
802.455	7.758	FIXCROSS	n/a	n/a	n/a	n/a	n/a
810.214	6.317	CUE_LISTEN	M3	1	n/a	n/a	n/a
816.53	7.758	FIXCROSS	n/a	n/a	n/a	n/a	n/a
824.289	6.325	CUE_PLAYBACK_RIGHT_HAND	M3	1	n/a	n/a	n/a
824.924	n/a	RESPONSE	M3	1	12	C4	press
825.424	n/a	RESPONSE	M3	1	14	D4	press
825.483	n/a	RESPONSE	M3	1	12	C4	release
825.933	n/a	RESPONSE	M3	1	16	E4	press
825.979	n/a	RESPONSE	M3	1	14	D4	release
826.449	n/a	RESPONSE	M3	1	12	C4	press
826.477	n/a	RESPONSE	M3	1	16	E4	release
826.603	n/a	RESPONSE	M3	1	12	C4	release
826.954	n/a	RESPONSE	M3	1	12	C4	press
827.446	n/a	RESPONSE	M3	1	14	D4	press
827.499	n/a	RESPONSE	M3	1	12	C4	release
827.931	n/a	RESPONSE	M3	1	16	E4	press
827.989	n/a	RESPONSE	M3	1	14	D4	release
828.431	n/a	RESPONSE	M3	1	12	C4	press
828.452	n/a	RESPONSE	M3	1	16	E4	release
828.963	n/a	RESPONSE	M3	1	12	C4	release
830.614	7.758	FIXCROSS	n/a	n/a	n/a	n/a	n/a
838.372	6.317	CUE_LISTEN	M3	2	n/a	n/a	n/a
844.689	7.758	FIXCROSS	n/a	n/a	n/a	n/a	n/a
852.447	6.317	CUE_PLAYBACK_RIGHT_HAND	M3	2	n/a	n/a	n/a
853.028	n/a	RESPONSE	M3	2	16	E4	press
853.541	n/a	RESPONSE	M3	2	17	F4	press
853.572	n/a	RESPONSE	M3	2	16	E4	release
854.057	n/a	RESPONSE	M3	2	19	G4	press
854.067	n/a	RESPONSE	M3	2	17	F4	release
855.096	n/a	RESPONSE	M3	2	16	E4	press
855.114	n/a	RESPONSE	M3	2	19	G4	release
855.623	n/a	RESPONSE	M3	2	17	F4	press
855.639	n/a	RESPONSE	M3	2	16	E4	release
856.144	n/a	RESPONSE	M3	2	19	G4	press
856.172	n/a	RESPONSE	M3	2	17	F4	release
857.108	n/a	RESPONSE	M3	2	19	G4	release
858.764	7.759	FIXCROSS	n/a	n/a	n/a	n/a	n/a
866.522	6.317	CUE_LISTEN	M3	1	n/a	n/a	n/a
872.839	7.758	FIXCROSS	n/a	n/a	n/a	n/a	n/a
880.597	6.325	CUE_PLAYBACK_RIGHT_HAND	M3	1	n/a	n/a	n/a
881.173	n/a	RESPONSE	M3	1	19	G4	press
881.404	n/a	RESPONSE	M3	1	21	A4	press
881.446	n/a	RESPONSE	M3	1	19	G4	release
881.637	n/a	RESPONSE	M3	1	19	G4	press
881.691	n/a	RESPONSE	M3	1	21	A4	release
881.869	n/a	RESPONSE	M3	1	17	F4	press
881.941	n/a	RESPONSE	M3	1	19	G4	release
882.152	n/a	RESPONSE	M3	1	16	E4	press
882.184	n/a	RESPONSE	M3	1	17	F4	release
882.614	n/a	RESPONSE	M3	1	12	C4	press
882.647	n/a	RESPONSE	M3	1	16	E4	release
883.156	n/a	RESPONSE	M3	1	19	G4	press
883.183	n/a	RESPONSE	M3	1	12	C4	release
883.373	n/a	RESPONSE	M3	1	21	A4	press
883.408	n/a	RESPONSE	M3	1	19	G4	release
883.598	n/a	RESPONSE	M3	1	19	G4	press
883.666	n/a	RESPONSE	M3	1	21	A4	release
883.841	n/a	RESPONSE	M3	1	17	F4	press
883.889	n/a	RESPONSE	M3	1	19	G4	release
884.116	n/a	RESPONSE	M3	1	16	E4	press
884.164	n/a	RESPONSE	M3	1	17	F4	release
884.576	n/a	RESPONSE	M3	1	12	C4	press
884.584	n/a	RESPONSE	M3	1	16	E4	release
885.451	n/a	RESPONSE	M3	1	12	C4	release
886.922	7.758	FIXCROSS	n/a	n/a	n/a	n/a	n/a
894.68	6.317	CUE_LISTEN	M3	2	n/a	n/a	n/a
900.997	7.759	FIXCROSS	n/a	n/a	n/a	n/a	n/a
908.756	45.205	CUE_PLAYBACK_RIGHT_HAND	M3	2	n/a	n/a	n/a
909.336	n/a	RESPONSE	M3	2	12	C4	press
909.677	n/a	RESPONSE	M3	2	12	C4	release
909.988	n/a	RESPONSE	M3	2	07	G3	press
910.369	n/a	RESPONSE	M3	2	07	G3	release
910.691	n/a	RESPONSE	M3	2	12	C4	press
911.553	n/a	RESPONSE	M3	2	12	C4	release
911.833	n/a	RESPONSE	M3	2	12	C4	press
912.194	n/a	RESPONSE	M3	2	12	C4	release
912.426	n/a	RESPONSE	M3	2	07	G3	press
912.867	n/a	RESPONSE	M3	2	07	G3	release
913.019	n/a	RESPONSE	M3	2	12	C4	press
913.254	n/a	FIXCROSS	n/a	n/a	n/a	n/a	n/a
914.334	n/a	RESPONSE	M3	2	12	C4	release
