onset	duration	trial_type	braille_stimulus	targets	response_count
2.014	2.008	CUE_REST	n/a	n/a	n/a
7.014	1.008	FIXCROSS	n/a	n/a	n/a
13.064	1.008	FIXCROSS	n/a	n/a	n/a
21.122	2.008	CUE_6_DOT	n/a	n/a	n/a
26.122	1.008	FIXCROSS	n/a	n/a	n/a
27.139	5.008	6_DOT_DETECTION	USLLM	0	n/a
32.172	1.008	FIXCROSS	n/a	n/a	n/a
33.189	5.008	6_DOT_DETECTION	BAŁ#Ł	1	n/a
36.664	n/a	RESPONSE	n/a	n/a	1/1
38.222	1.008	FIXCROSS	n/a	n/a	n/a
39.239	5.008	6_DOT_DETECTION	#IŁPM	1	n/a
40.464	n/a	RESPONSE	n/a	n/a	1/1
44.272	1.008	FIXCROSS	n/a	n/a	n/a
45.289	5.008	6_DOT_DETECTION	BAT##	2	n/a
47.76	n/a	RESPONSE	n/a	n/a	1/2
48.784	n/a	RESPONSE	n/a	n/a	2/2
50.322	1.008	FIXCROSS	n/a	n/a	n/a
51.338	5.009	6_DOT_DETECTION	LACIC	0	n/a
56.372	1.008	FIXCROSS	n/a	n/a	n/a
57.389	5.008	6_DOT_DETECTION	I#YUK	1	n/a
58.984	n/a	RESPONSE	n/a	n/a	1/1
62.422	1.008	FIXCROSS	n/a	n/a	n/a
63.439	5.008	6_DOT_DETECTION	IDY#K	1	n/a
67.464	n/a	RESPONSE	n/a	n/a	1/1
68.16	n/a	RESPONSE	n/a	n/a	2/1
68.472	1.008	FIXCROSS	n/a	n/a	n/a
69.489	5.008	6_DOT_DETECTION	I#TUL	1	n/a
71.32	n/a	RESPONSE	n/a	n/a	1/1
76.03	2.008	CUE_REST	n/a	n/a	n/a
82.53	1.008	FIXCROSS	n/a	n/a	n/a
88.581	1.008	FIXCROSS	n/a	n/a	n/a
95.639	2.008	CUE_6_DOT	n/a	n/a	n/a
100.639	1.008	FIXCROSS	n/a	n/a	n/a
101.656	5.008	6_DOT_DETECTION	#CYK#	2	n/a
103.2	n/a	RESPONSE	n/a	n/a	1/2
104.84	n/a	RESPONSE	n/a	n/a	2/2
106.689	1.008	FIXCROSS	n/a	n/a	n/a
107.705	5.009	6_DOT_DETECTION	BOI##	2	n/a
110.28	n/a	RESPONSE	n/a	n/a	1/2
111.48	n/a	RESPONSE	n/a	n/a	2/2
112.739	1.008	FIXCROSS	n/a	n/a	n/a
113.755	5.009	6_DOT_DETECTION	PM#LA	1	n/a
116.064	n/a	RESPONSE	n/a	n/a	1/1
118.789	1.008	FIXCROSS	n/a	n/a	n/a
119.806	5.008	6_DOT_DETECTION	O#KUP	1	n/a
122.304	n/a	RESPONSE	n/a	n/a	1/1
124.839	1.008	FIXCROSS	n/a	n/a	n/a
125.856	5.008	6_DOT_DETECTION	#PSY#	2	n/a
126.944	n/a	RESPONSE	n/a	n/a	1/2
130.12	n/a	RESPONSE	n/a	n/a	2/2
130.889	1.008	FIXCROSS	n/a	n/a	n/a
131.905	5.009	6_DOT_DETECTION	IE##T	2	n/a
134.72	n/a	RESPONSE	n/a	n/a	1/2
135.624	n/a	RESPONSE	n/a	n/a	2/2
136.939	1.008	FIXCROSS	n/a	n/a	n/a
137.955	5.009	6_DOT_DETECTION	##ŁAT	2	n/a
138.96	n/a	RESPONSE	n/a	n/a	1/2
140.824	n/a	RESPONSE	n/a	n/a	2/2
142.989	1.008	FIXCROSS	n/a	n/a	n/a
144.005	5.009	6_DOT_DETECTION	IEYYŁ	0	n/a
150.547	2.008	CUE_REST	n/a	n/a	n/a
155.047	1.008	FIXCROSS	n/a	n/a	n/a
161.097	1.008	FIXCROSS	n/a	n/a	n/a
168.656	2.008	CUE_6_DOT	n/a	n/a	n/a
175.156	1.008	FIXCROSS	n/a	n/a	n/a
176.172	5.009	6_DOT_DETECTION	PUŁTM	0	n/a
181.206	1.008	FIXCROSS	n/a	n/a	n/a
182.222	5.008	6_DOT_DETECTION	PAS##	2	n/a
186.6	n/a	RESPONSE	n/a	n/a	1/2
187.256	1.008	FIXCROSS	n/a	n/a	n/a
188.272	5.008	6_DOT_DETECTION	#SIŁ#	2	n/a
189.4	n/a	RESPONSE	n/a	n/a	1/2
191.72	n/a	RESPONSE	n/a	n/a	2/2
193.306	1.008	FIXCROSS	n/a	n/a	n/a
194.322	5.008	6_DOT_DETECTION	#SOS#	2	n/a
195.32	n/a	RESPONSE	n/a	n/a	1/2
197.144	n/a	RESPONSE	n/a	n/a	2/2
199.356	1.008	FIXCROSS	n/a	n/a	n/a
200.372	5.008	6_DOT_DETECTION	##TOM	2	n/a
201.384	n/a	RESPONSE	n/a	n/a	1/2
202.504	n/a	RESPONSE	n/a	n/a	2/2
205.406	1.008	FIXCROSS	n/a	n/a	n/a
206.422	5.009	6_DOT_DETECTION	LLCSO	0	n/a
211.456	1.008	FIXCROSS	n/a	n/a	n/a
212.472	5.009	6_DOT_DETECTION	LUD#A	1	n/a
215.536	n/a	RESPONSE	n/a	n/a	1/1
217.506	1.008	FIXCROSS	n/a	n/a	n/a
218.522	5.009	6_DOT_DETECTION	##ALE	2	n/a
219.6	n/a	RESPONSE	n/a	n/a	1/2
220.4	n/a	RESPONSE	n/a	n/a	2/2
225.564	2.008	CUE_REST	n/a	n/a	n/a
229.564	1.008	FIXCROSS	n/a	n/a	n/a
235.614	1.008	FIXCROSS	n/a	n/a	n/a
243.673	2.008	CUE_6_DOT	n/a	n/a	n/a
249.673	1.008	FIXCROSS	n/a	n/a	n/a
250.689	5.008	6_DOT_DETECTION	ŁDKID	0	n/a
255.723	1.008	FIXCROSS	n/a	n/a	n/a
256.739	5.008	6_DOT_DETECTION	LIP##	2	n/a
259.48	n/a	RESPONSE	n/a	n/a	1/2
260.576	n/a	RESPONSE	n/a	n/a	2/2
261.773	1.008	FIXCROSS	n/a	n/a	n/a
262.789	5.008	6_DOT_DETECTION	TOP#C	1	n/a
266.416	n/a	RESPONSE	n/a	n/a	1/1
267.822	1.008	FIXCROSS	n/a	n/a	n/a
268.839	5.009	6_DOT_DETECTION	ŁL#BM	1	n/a
270.656	n/a	RESPONSE	n/a	n/a	1/1
273.873	1.008	FIXCROSS	n/a	n/a	n/a
274.889	5.009	6_DOT_DETECTION	##ŁOM	2	n/a
275.856	n/a	RESPONSE	n/a	n/a	1/2
276.76	n/a	RESPONSE	n/a	n/a	2/2
279.923	1.008	FIXCROSS	n/a	n/a	n/a
280.939	5.008	6_DOT_DETECTION	U#TŁA	1	n/a
282.536	n/a	RESPONSE	n/a	n/a	1/1
285.973	1.008	FIXCROSS	n/a	n/a	n/a
286.989	5.008	6_DOT_DETECTION	##BAS	2	n/a
288.096	n/a	RESPONSE	n/a	n/a	1/2
289.016	n/a	RESPONSE	n/a	n/a	2/2
292.023	1.008	FIXCROSS	n/a	n/a	n/a
293.039	5.008	6_DOT_DETECTION	PMSPB	0	n/a
299.081	2.008	CUE_REST	n/a	n/a	n/a
305.081	1.008	FIXCROSS	n/a	n/a	n/a
311.131	1.008	FIXCROSS	n/a	n/a	n/a
318.689	2.008	CUE_6_DOT	n/a	n/a	n/a
324.189	1.008	FIXCROSS	n/a	n/a	n/a
325.205	5.009	6_DOT_DETECTION	KOD#S	1	n/a
329.256	n/a	RESPONSE	n/a	n/a	1/1
330.239	1.008	FIXCROSS	n/a	n/a	n/a
331.256	5.009	6_DOT_DETECTION	IIOLD	0	n/a
336.289	1.008	FIXCROSS	n/a	n/a	n/a
337.306	5.008	6_DOT_DETECTION	LUK#C	1	n/a
340.216	n/a	RESPONSE	n/a	n/a	1/1
342.34	1.008	FIXCROSS	n/a	n/a	n/a
343.356	5.008	6_DOT_DETECTION	ICE#D	1	n/a
345.616	n/a	RESPONSE	n/a	n/a	1/1
348.39	1.008	FIXCROSS	n/a	n/a	n/a
349.406	5.008	6_DOT_DETECTION	DB#A#	2	n/a
350.96	n/a	RESPONSE	n/a	n/a	1/2
352.096	n/a	RESPONSE	n/a	n/a	2/2
354.44	1.008	FIXCROSS	n/a	n/a	n/a
355.456	5.009	6_DOT_DETECTION	AKŁKŁ	0	n/a
360.49	1.008	FIXCROSS	n/a	n/a	n/a
361.506	5.009	6_DOT_DETECTION	ŁBTŁB	0	n/a
366.54	1.008	FIXCROSS	n/a	n/a	n/a
367.556	5.008	6_DOT_DETECTION	IŁPDU	0	n/a
373.598	2.008	CUE_REST	n/a	n/a	n/a
380.598	1.008	FIXCROSS	n/a	n/a	n/a
386.648	1.008	FIXCROSS	n/a	n/a	n/a
393.706	2.008	CUE_6_DOT	n/a	n/a	n/a
398.706	1.008	FIXCROSS	n/a	n/a	n/a
399.723	5.008	6_DOT_DETECTION	LDCCE	0	n/a
404.756	1.008	FIXCROSS	n/a	n/a	n/a
405.773	5.008	6_DOT_DETECTION	UM#LD	1	n/a
407.496	n/a	RESPONSE	n/a	n/a	1/1
408.336	n/a	RESPONSE	n/a	n/a	2/1
410.806	1.008	FIXCROSS	n/a	n/a	n/a
411.822	5.009	6_DOT_DETECTION	ŁYYŁT	0	n/a
415.84	n/a	RESPONSE	n/a	n/a	1/0
416.856	1.008	FIXCROSS	n/a	n/a	n/a
417.872	5.009	6_DOT_DETECTION	AŁUAI	0	n/a
422.906	1.008	FIXCROSS	n/a	n/a	n/a
423.923	5.008	6_DOT_DETECTION	KUL##	2	n/a
426.8	n/a	RESPONSE	n/a	n/a	1/2
428.136	n/a	RESPONSE	n/a	n/a	2/2
428.956	1.008	FIXCROSS	n/a	n/a	n/a
429.973	5.008	6_DOT_DETECTION	MTCUE	0	n/a
435.006	1.008	FIXCROSS	n/a	n/a	n/a
436.023	5.008	6_DOT_DETECTION	ŁLTŁP	0	n/a
441.056	1.008	FIXCROSS	n/a	n/a	n/a
442.073	5.008	6_DOT_DETECTION	L#OSY	1	n/a
444.08	n/a	RESPONSE	n/a	n/a	1/1
