onset	duration	trial_type	melody_number	melody_part	key	sound	action
0.0	14.083	CUE_START	n/a	n/a	n/a	n/a	n/a
14.083	7.76	FIXCROSS	n/a	n/a	n/a	n/a	n/a
21.843	6.316	CUE_LISTEN	M1	1	n/a	n/a	n/a
26.364	n/a	RESPONSE	M1	1	00	C3	press
26.785	n/a	RESPONSE	M1	1	07	G3	press
27.186	n/a	RESPONSE	M1	1	04	E3	press
27.258	n/a	RESPONSE	M1	1	07	G3	release
27.611	n/a	RESPONSE	M1	1	07	G3	press
27.761	n/a	RESPONSE	M1	1	00	C3	release
27.851	n/a	RESPONSE	M1	1	04	E3	release
28.022	n/a	RESPONSE	M1	1	07	G3	release
28.158	7.758	FIXCROSS	n/a	n/a	n/a	n/a	n/a
29.064	n/a	RESPONSE	M1	1	17	F4	press
29.545	n/a	RESPONSE	M1	1	17	F4	release
31.635	n/a	RESPONSE	M1	1	17	F4	press
31.994	n/a	RESPONSE	M1	1	17	F4	release
35.916	6.325	CUE_PLAYBACK_RIGHT_HAND	M1	1	n/a	n/a	n/a
37.318	n/a	RESPONSE	M1	1	17	F4	press
37.911	n/a	RESPONSE	M1	1	17	F4	release
39.17	n/a	RESPONSE	M1	1	19	G4	press
39.691	n/a	RESPONSE	M1	1	16	E4	press
39.942	n/a	RESPONSE	M1	1	19	G4	release
40.074	n/a	RESPONSE	M1	1	16	E4	release
40.215	n/a	RESPONSE	M1	1	16	E4	press
40.699	n/a	RESPONSE	M1	1	17	F4	press
40.768	n/a	RESPONSE	M1	1	16	E4	release
41.201	n/a	RESPONSE	M1	1	12	C4	press
41.491	n/a	RESPONSE	M1	1	17	F4	release
41.591	n/a	RESPONSE	M1	1	12	C4	release
41.778	n/a	RESPONSE	M1	1	19	G4	press
42.186	n/a	RESPONSE	M1	1	17	F4	press
42.242	7.758	FIXCROSS	n/a	n/a	n/a	n/a	n/a
42.675	n/a	RESPONSE	M1	1	17	F4	release
42.678	n/a	RESPONSE	M1	1	19	G4	release
42.846	n/a	RESPONSE	M1	1	19	G4	press
43.329	n/a	RESPONSE	M1	1	16	E4	press
43.641	n/a	RESPONSE	M1	1	19	G4	release
43.725	n/a	RESPONSE	M1	1	16	E4	release
43.828	n/a	RESPONSE	M1	1	16	E4	press
44.276	n/a	RESPONSE	M1	1	17	F4	press
44.321	n/a	RESPONSE	M1	1	16	E4	release
45.388	n/a	RESPONSE	M1	1	12	C4	press
45.59	n/a	RESPONSE	M1	1	17	F4	release
45.799	n/a	RESPONSE	M1	1	12	C4	release
45.95	n/a	RESPONSE	M1	1	12	C4	press
46.222	n/a	RESPONSE	M1	1	16	E4	press
46.332	n/a	RESPONSE	M1	1	12	C4	release
46.444	n/a	RESPONSE	M1	1	19	G4	press
46.485	n/a	RESPONSE	M1	1	16	E4	release
47.066	n/a	RESPONSE	M1	1	19	G4	release
50.0	6.317	CUE_LISTEN	        M1	2	n/a	n/a	n/a
56.316	7.758	FIXCROSS	n/a	n/a	n/a	n/a	n/a
64.075	6.325	CUE_PLAYBACK_RIGHT_HAND	        M1	2	n/a	n/a	n/a
64.726	n/a	RESPONSE	        M1	2	19	G4	press
65.252	n/a	RESPONSE	        M1	2	16	E4	press
65.561	n/a	RESPONSE	        M1	2	19	G4	release
65.662	n/a	RESPONSE	        M1	2	16	E4	release
65.834	n/a	RESPONSE	        M1	2	16	E4	press
66.395	n/a	RESPONSE	        M1	2	17	F4	press
66.468	n/a	RESPONSE	        M1	2	16	E4	release
66.948	n/a	RESPONSE	        M1	2	19	G4	press
67.189	n/a	RESPONSE	        M1	2	17	F4	release
67.271	n/a	RESPONSE	        M1	2	19	G4	release
67.411	n/a	RESPONSE	        M1	2	19	G4	press
67.822	n/a	RESPONSE	        M1	2	17	F4	press
68.234	n/a	RESPONSE	        M1	2	19	G4	release
68.275	n/a	RESPONSE	        M1	2	17	F4	release
68.378	n/a	RESPONSE	        M1	2	19	G4	press
68.828	n/a	RESPONSE	        M1	2	16	E4	press
69.119	n/a	RESPONSE	        M1	2	19	G4	release
69.2	n/a	RESPONSE	        M1	2	16	E4	release
69.341	n/a	RESPONSE	        M1	2	16	E4	press
69.862	n/a	RESPONSE	        M1	2	17	F4	press
69.916	n/a	RESPONSE	        M1	2	16	E4	release
70.4	7.758	FIXCROSS	n/a	n/a	n/a	n/a	n/a
70.835	n/a	RESPONSE	        M1	2	16	E4	press
71.056	n/a	RESPONSE	        M1	2	17	F4	release
71.204	n/a	RESPONSE	        M1	2	16	E4	release
72.602	n/a	RESPONSE	        M1	2	19	G4	press
73.251	n/a	RESPONSE	        M1	2	19	G4	release
73.455	n/a	RESPONSE	        M1	2	16	E4	press
73.83	n/a	RESPONSE	        M1	2	16	E4	release
74.025	n/a	RESPONSE	        M1	2	17	F4	press
74.391	n/a	RESPONSE	        M1	2	17	F4	release
74.879	n/a	RESPONSE	        M1	2	12	C4	press
75.16	n/a	RESPONSE	        M1	2	12	C4	release
75.171	n/a	RESPONSE	        M1	2	16	E4	press
75.312	n/a	RESPONSE	        M1	2	16	E4	release
75.325	n/a	RESPONSE	        M1	2	19	G4	press
75.526	n/a	RESPONSE	        M1	2	12	C4	press
75.608	n/a	RESPONSE	        M1	2	19	G4	release
76.229	n/a	RESPONSE	        M1	2	12	C4	release
78.158	6.317	CUE_LISTEN	        M7	1	n/a	n/a	n/a
84.475	7.758	FIXCROSS	n/a	n/a	n/a	n/a	n/a
92.233	6.317	CUE_PLAYBACK_BOTH_HANDS	        M7	1	n/a	n/a	n/a
93.59	n/a	RESPONSE	        M7	1	07	G3	press
93.62	n/a	RESPONSE	        M7	1	22	A#4	press
94.165	n/a	RESPONSE	        M7	1	21	A4	press
94.301	n/a	RESPONSE	        M7	1	22	A#4	release
94.731	n/a	RESPONSE	        M7	1	19	G4	press
94.835	n/a	RESPONSE	        M7	1	21	A4	release
95.285	n/a	RESPONSE	        M7	1	21	A4	press
95.296	n/a	RESPONSE	        M7	1	05	F3	press
95.378	n/a	RESPONSE	        M7	1	19	G4	release
95.39	n/a	RESPONSE	        M7	1	07	G3	release
95.85	n/a	RESPONSE	        M7	1	14	D4	press
96.074	n/a	RESPONSE	        M7	1	21	A4	release
96.762	n/a	RESPONSE	        M7	1	14	D4	release
96.854	n/a	RESPONSE	        M7	1	14	D4	press
97.425	n/a	RESPONSE	        M7	1	19	G4	press
97.436	n/a	RESPONSE	        M7	1	03	D#3	press
97.458	n/a	RESPONSE	        M7	1	05	F3	release
97.469	n/a	RESPONSE	        M7	1	14	D4	release
98.291	n/a	RESPONSE	        M7	1	09	A3	press
98.494	n/a	RESPONSE	        M7	1	19	G4	release
98.55	7.758	FIXCROSS	n/a	n/a	n/a	n/a	n/a
98.722	n/a	RESPONSE	        M7	1	09	A3	release
98.904	n/a	RESPONSE	        M7	1	07	G3	press
99.245	n/a	RESPONSE	        M7	1	09	A3	press
99.326	n/a	RESPONSE	        M7	1	07	G3	release
99.498	n/a	RESPONSE	        M7	1	10	A#3	press
99.659	n/a	RESPONSE	        M7	1	09	A3	release
99.811	n/a	RESPONSE	        M7	1	12	C4	press
99.871	n/a	RESPONSE	        M7	1	10	A#3	release
100.095	n/a	RESPONSE	        M7	1	14	D4	press
100.134	n/a	RESPONSE	        M7	1	02	D3	press
100.175	n/a	RESPONSE	        M7	1	12	C4	release
100.256	n/a	RESPONSE	        M7	1	03	D#3	release
101.282	n/a	RESPONSE	        M7	1	02	D3	release
101.302	n/a	RESPONSE	        M7	1	14	D4	release
106.308	6.325	CUE_LISTEN	        M7	2	n/a	n/a	n/a
112.633	7.758	FIXCROSS	n/a	n/a	n/a	n/a	n/a
113.886	n/a	RESPONSE	        M7	2	09	A3	press
113.946	n/a	RESPONSE	        M7	2	12	C4	press
114.482	n/a	RESPONSE	        M7	2	09	A3	release
114.51	n/a	RESPONSE	        M7	2	12	C4	release
115.225	n/a	RESPONSE	        M7	2	17	F4	press
115.716	n/a	RESPONSE	        M7	2	17	F4	release
117.158	n/a	RESPONSE	        M7	2	11	B3	press
117.16	n/a	RESPONSE	        M7	2	14	D4	press
117.551	n/a	RESPONSE	        M7	2	11	B3	release
117.681	n/a	RESPONSE	        M7	2	14	D4	release
120.392	6.317	CUE_PLAYBACK_BOTH_HANDS	        M7	2	n/a	n/a	n/a
121.344	n/a	RESPONSE	        M7	2	09	A3	press
121.351	n/a	RESPONSE	        M7	2	12	C4	press
121.354	n/a	RESPONSE	        M7	2	17	F4	press
121.886	n/a	RESPONSE	        M7	2	19	G4	press
121.974	n/a	RESPONSE	        M7	2	17	F4	release
122.236	n/a	RESPONSE	        M7	2	17	F4	press
122.356	n/a	RESPONSE	        M7	2	19	G4	release
122.476	n/a	RESPONSE	        M7	2	19	G4	press
122.716	n/a	RESPONSE	        M7	2	05	F3	press
122.752	n/a	RESPONSE	        M7	2	15	D#4	press
122.814	n/a	RESPONSE	        M7	2	12	C4	release
122.836	n/a	RESPONSE	        M7	2	19	G4	release
122.969	n/a	RESPONSE	        M7	2	17	F4	release
123.119	n/a	RESPONSE	        M7	2	12	C4	press
123.135	n/a	RESPONSE	        M7	2	09	A3	release
123.14	n/a	RESPONSE	        M7	2	11	B3	press
123.142	n/a	RESPONSE	        M7	2	15	D#4	release
123.471	n/a	RESPONSE	        M7	2	05	F3	release
123.626	n/a	RESPONSE	        M7	2	12	C4	release
123.749	n/a	RESPONSE	        M7	2	11	B3	release
124.34	n/a	RESPONSE	        M7	2	11	B3	press
124.388	n/a	RESPONSE	        M7	2	12	C4	press
124.406	n/a	RESPONSE	        M7	2	07	G3	press
124.858	n/a	RESPONSE	        M7	2	13	C#4	press
124.92	n/a	RESPONSE	        M7	2	12	C4	release
125.14	n/a	RESPONSE	        M7	2	13	C#4	release
125.142	n/a	RESPONSE	        M7	2	16	E4	press
125.322	n/a	RESPONSE	        M7	2	11	B3	release
125.394	n/a	RESPONSE	        M7	2	07	G3	release
125.455	n/a	RESPONSE	        M7	2	13	C#4	press
125.486	n/a	RESPONSE	        M7	2	06	F#3	press
125.558	n/a	RESPONSE	        M7	2	16	E4	release
125.859	n/a	RESPONSE	        M7	2	13	C#4	release
125.861	n/a	RESPONSE	        M7	2	06	F#3	release
126.708	7.758	FIXCROSS	n/a	n/a	n/a	n/a	n/a
126.732	n/a	RESPONSE	        M7	2	17	F4	press
126.744	n/a	RESPONSE	        M7	2	03	D#3	press
127.095	n/a	RESPONSE	        M7	2	03	D#3	release
127.136	n/a	RESPONSE	        M7	2	17	F4	release
127.509	n/a	RESPONSE	        M7	2	04	E3	press
127.519	n/a	RESPONSE	        M7	2	07	G3	press
127.53	n/a	RESPONSE	        M7	2	12	C4	press
127.871	n/a	RESPONSE	        M7	2	04	E3	release
127.874	n/a	RESPONSE	        M7	2	12	C4	release
127.906	n/a	RESPONSE	        M7	2	07	G3	release
128.255	n/a	RESPONSE	        M7	2	10	A#3	press
128.996	n/a	RESPONSE	        M7	2	10	A#3	release
134.467	6.317	CUE_LISTEN	        M5	1	n/a	n/a	n/a
140.334	n/a	RESPONSE	        M5	1	05	F3	press
140.696	n/a	RESPONSE	        M5	1	09	A3	press
140.783	7.758	FIXCROSS	n/a	n/a	n/a	n/a	n/a
140.896	n/a	RESPONSE	        M5	1	05	F3	release
141.037	n/a	RESPONSE	        M5	1	04	E3	press
141.089	n/a	RESPONSE	        M5	1	09	A3	release
141.396	n/a	RESPONSE	        M5	1	09	A3	press
141.556	n/a	RESPONSE	        M5	1	04	E3	release
141.585	n/a	RESPONSE	        M5	1	09	A3	release
142.451	n/a	RESPONSE	        M5	1	19	G4	press
142.721	n/a	RESPONSE	        M5	1	19	G4	release
143.191	n/a	RESPONSE	        M5	1	17	F4	press
143.225	n/a	RESPONSE	        M5	1	05	F3	press
143.501	n/a	RESPONSE	        M5	1	17	F4	release
143.511	n/a	RESPONSE	        M5	1	05	F3	release
143.689	n/a	RESPONSE	        M5	1	17	F4	press
143.769	n/a	RESPONSE	        M5	1	09	A3	press
143.964	n/a	RESPONSE	        M5	1	17	F4	release
143.966	n/a	RESPONSE	        M5	1	09	A3	release
145.031	n/a	RESPONSE	        M5	1	17	F4	press
145.082	n/a	RESPONSE	        M5	1	05	F3	press
145.334	n/a	RESPONSE	        M5	1	17	F4	release
145.436	n/a	RESPONSE	        M5	1	05	F3	release
147.089	n/a	RESPONSE	        M5	1	21	A4	press
147.12	n/a	RESPONSE	        M5	1	05	F3	press
147.429	n/a	RESPONSE	        M5	1	05	F3	release
147.44	n/a	RESPONSE	        M5	1	21	A4	release
148.542	6.325	CUE_PLAYBACK_RIGHT_HAND	        M5	1	n/a	n/a	n/a
149.812	n/a	RESPONSE	        M5	1	21	A4	press
150.094	n/a	RESPONSE	        M5	1	21	A4	release
150.166	n/a	RESPONSE	        M5	1	21	A4	press
150.426	n/a	RESPONSE	        M5	1	21	A4	release
150.557	n/a	RESPONSE	        M5	1	21	A4	press
151.111	n/a	RESPONSE	        M5	1	21	A4	release
151.289	n/a	RESPONSE	        M5	1	21	A4	press
151.509	n/a	RESPONSE	        M5	1	21	A4	release
151.624	n/a	RESPONSE	        M5	1	21	A4	press
151.866	n/a	RESPONSE	        M5	1	21	A4	release
152.006	n/a	RESPONSE	        M5	1	21	A4	press
152.481	n/a	RESPONSE	        M5	1	21	A4	release
152.666	n/a	RESPONSE	        M5	1	21	A4	press
152.96	n/a	RESPONSE	        M5	1	24	C5	press
153.029	n/a	RESPONSE	        M5	1	21	A4	release
153.314	n/a	RESPONSE	        M5	1	16	E4	press
153.656	n/a	RESPONSE	        M5	1	17	F4	press
153.659	n/a	RESPONSE	        M5	1	19	G4	press
153.712	n/a	RESPONSE	        M5	1	24	C5	release
153.988	n/a	RESPONSE	        M5	1	16	E4	release
154.01	n/a	RESPONSE	        M5	1	21	A4	press
154.075	n/a	RESPONSE	        M5	1	17	F4	release
154.449	n/a	RESPONSE	        M5	1	19	G4	release
154.451	n/a	RESPONSE	        M5	1	21	A4	release
154.867	7.758	FIXCROSS	n/a	n/a	n/a	n/a	n/a
162.625	6.317	CUE_LISTEN	        M5	2	n/a	n/a	n/a
168.942	7.758	FIXCROSS	n/a	n/a	n/a	n/a	n/a
176.7	6.325	CUE_PLAYBACK_RIGHT_HAND	        M5	2	n/a	n/a	n/a
176.996	n/a	RESPONSE	        M5	2	21	A4	press
177.037	n/a	RESPONSE	        M5	2	07	G3	press
177.329	n/a	RESPONSE	        M5	2	21	A4	release
177.39	n/a	RESPONSE	        M5	2	07	G3	release
178.461	n/a	RESPONSE	        M5	2	21	A4	press
178.765	n/a	RESPONSE	        M5	2	21	A4	release
178.925	n/a	RESPONSE	        M5	2	21	A4	press
179.165	n/a	RESPONSE	        M5	2	21	A4	release
179.306	n/a	RESPONSE	        M5	2	21	A4	press
179.557	n/a	RESPONSE	        M5	2	21	A4	release
179.709	n/a	RESPONSE	        M5	2	21	A4	press
179.92	n/a	RESPONSE	        M5	2	21	A4	release
180.161	n/a	RESPONSE	        M5	2	21	A4	press
180.265	n/a	RESPONSE	        M5	2	21	A4	release
180.614	n/a	RESPONSE	        M5	2	21	A4	press
180.825	n/a	RESPONSE	        M5	2	24	C5	press
180.857	n/a	RESPONSE	        M5	2	21	A4	release
181.117	n/a	RESPONSE	        M5	2	16	E4	press
181.251	n/a	RESPONSE	        M5	2	24	C5	release
181.466	n/a	RESPONSE	        M5	2	19	G4	press
181.535	n/a	RESPONSE	        M5	2	16	E4	release
181.676	n/a	RESPONSE	        M5	2	21	A4	press
181.714	n/a	RESPONSE	        M5	2	19	G4	release
181.92	n/a	RESPONSE	        M5	2	21	A4	release
182.542	n/a	RESPONSE	        M5	2	22	A#4	press
182.827	n/a	RESPONSE	        M5	2	22	A#4	release
183.025	7.758	FIXCROSS	n/a	n/a	n/a	n/a	n/a
183.036	n/a	RESPONSE	        M5	2	22	A#4	press
183.244	n/a	RESPONSE	        M5	2	22	A#4	release
183.427	n/a	RESPONSE	        M5	2	22	A#4	press
183.636	n/a	RESPONSE	        M5	2	22	A#4	release
183.831	n/a	RESPONSE	        M5	2	22	A#4	press
184.03	n/a	RESPONSE	        M5	2	22	A#4	release
184.234	n/a	RESPONSE	        M5	2	22	A#4	press
184.436	n/a	RESPONSE	        M5	2	22	A#4	release
184.625	n/a	RESPONSE	        M5	2	22	A#4	press
184.817	n/a	RESPONSE	        M5	2	22	A#4	release
185.31	n/a	RESPONSE	        M5	2	21	A4	press
185.749	n/a	RESPONSE	        M5	2	21	A4	release
185.801	n/a	RESPONSE	        M5	2	24	C5	press
186.041	n/a	RESPONSE	        M5	2	24	C5	release
186.422	n/a	RESPONSE	        M5	2	22	A#4	press
186.754	n/a	RESPONSE	        M5	2	21	A4	press
186.815	n/a	RESPONSE	        M5	2	22	A#4	release
187.137	n/a	RESPONSE	        M5	2	19	G4	press
187.237	n/a	RESPONSE	        M5	2	21	A4	release
187.429	n/a	RESPONSE	        M5	2	19	G4	release
187.872	n/a	RESPONSE	        M5	2	21	A4	press
188.272	n/a	RESPONSE	        M5	2	21	A4	release
188.375	n/a	RESPONSE	        M5	2	24	C5	press
188.844	n/a	RESPONSE	        M5	2	24	C5	release
190.784	6.317	CUE_LISTEN	        M3	1	n/a	n/a	n/a
197.1	7.758	FIXCROSS	n/a	n/a	n/a	n/a	n/a
202.52	n/a	RESPONSE	        M3	1	00	C3	press
203.081	n/a	RESPONSE	        M3	1	00	C3	release
204.859	6.317	CUE_PLAYBACK_BOTH_HANDS	        M3	1	n/a	n/a	n/a
205.367	n/a	RESPONSE	        M3	1	00	C3	press
205.759	n/a	RESPONSE	        M3	1	07	G3	press
206.121	n/a	RESPONSE	        M3	1	04	E3	press
206.184	n/a	RESPONSE	        M3	1	07	G3	release
206.494	n/a	RESPONSE	        M3	1	07	G3	press
206.745	n/a	RESPONSE	        M3	1	04	E3	release
206.757	n/a	RESPONSE	        M3	1	07	G3	release
207.678	n/a	RESPONSE	        M3	1	10	A#3	press
207.899	n/a	RESPONSE	        M3	1	10	A#3	release
208.67	n/a	RESPONSE	        M3	1	15	D#4	press
208.941	n/a	RESPONSE	        M3	1	15	D#4	release
209.282	n/a	RESPONSE	        M3	1	00	C3	press
209.305	n/a	RESPONSE	        M3	1	12	C4	press
209.645	n/a	RESPONSE	        M3	1	14	D4	press
209.647	n/a	RESPONSE	        M3	1	07	G3	press
209.957	n/a	RESPONSE	        M3	1	12	C4	release
210.069	n/a	RESPONSE	        M3	1	04	E3	press
210.072	n/a	RESPONSE	        M3	1	16	E4	press
210.122	n/a	RESPONSE	        M3	1	14	D4	release
210.132	n/a	RESPONSE	        M3	1	07	G3	release
210.524	n/a	RESPONSE	        M3	1	07	G3	press
210.545	n/a	RESPONSE	        M3	1	12	C4	press
210.619	n/a	RESPONSE	        M3	1	16	E4	release
210.687	n/a	RESPONSE	        M3	1	00	C3	release
210.829	n/a	RESPONSE	        M3	1	04	E3	release
210.88	n/a	RESPONSE	        M3	1	12	C4	release
210.932	n/a	RESPONSE	        M3	1	07	G3	release
211.025	n/a	RESPONSE	        M3	1	00	C3	press
211.064	n/a	RESPONSE	        M3	1	12	C4	press
211.175	7.758	FIXCROSS	n/a	n/a	n/a	n/a	n/a
211.439	n/a	RESPONSE	        M3	1	07	G3	press
211.46	n/a	RESPONSE	        M3	1	14	D4	press
211.52	n/a	RESPONSE	        M3	1	12	C4	release
211.554	n/a	RESPONSE	        M3	1	00	C3	release
211.815	n/a	RESPONSE	        M3	1	04	E3	press
211.831	n/a	RESPONSE	        M3	1	16	E4	press
211.869	n/a	RESPONSE	        M3	1	14	D4	release
211.875	n/a	RESPONSE	        M3	1	07	G3	release
212.245	n/a	RESPONSE	        M3	1	07	G3	press
212.271	n/a	RESPONSE	        M3	1	12	C4	press
212.311	n/a	RESPONSE	        M3	1	16	E4	release
212.355	n/a	RESPONSE	        M3	1	04	E3	release
212.811	n/a	RESPONSE	        M3	1	12	C4	release
213.01	n/a	RESPONSE	        M3	1	07	G3	release
218.934	6.317	CUE_LISTEN	        M3	2	n/a	n/a	n/a
224.76	n/a	RESPONSE	        M3	2	12	C4	press
225.132	n/a	RESPONSE	        M3	2	12	C4	release
225.224	n/a	RESPONSE	        M3	2	16	E4	press
225.25	7.758	FIXCROSS	n/a	n/a	n/a	n/a	n/a
225.555	n/a	RESPONSE	        M3	2	16	E4	release
225.896	n/a	RESPONSE	        M3	2	12	C4	press
226.147	n/a	RESPONSE	        M3	2	12	C4	release
226.5	n/a	RESPONSE	        M3	2	16	E4	press
226.77	n/a	RESPONSE	        M3	2	16	E4	release
228.321	n/a	RESPONSE	        M3	2	12	C4	press
228.632	n/a	RESPONSE	        M3	2	12	C4	release
228.645	n/a	RESPONSE	        M3	2	14	D4	press
228.875	n/a	RESPONSE	        M3	2	14	D4	release
228.906	n/a	RESPONSE	        M3	2	16	E4	press
229.119	n/a	RESPONSE	        M3	2	16	E4	release
230.731	n/a	RESPONSE	        M3	2	17	F4	press
231.1	n/a	RESPONSE	        M3	2	17	F4	release
233.009	6.325	CUE_PLAYBACK_BOTH_HANDS	        M3	2	n/a	n/a	n/a
233.547	n/a	RESPONSE	        M3	2	12	C4	press
233.822	n/a	RESPONSE	        M3	2	14	D4	press
233.887	n/a	RESPONSE	        M3	2	12	C4	release
234.047	n/a	RESPONSE	        M3	2	16	E4	press
234.086	n/a	RESPONSE	        M3	2	14	D4	release
234.302	n/a	RESPONSE	        M3	2	12	C4	press
234.347	n/a	RESPONSE	        M3	2	16	E4	release
234.506	n/a	RESPONSE	        M3	2	12	C4	release
234.689	n/a	RESPONSE	        M3	2	12	C4	press
234.871	n/a	RESPONSE	        M3	2	14	D4	press
234.912	n/a	RESPONSE	        M3	2	12	C4	release
235.034	n/a	RESPONSE	        M3	2	16	E4	press
235.058	n/a	RESPONSE	        M3	2	14	D4	release
235.286	n/a	RESPONSE	        M3	2	12	C4	press
235.297	n/a	RESPONSE	        M3	2	16	E4	release
235.5	n/a	RESPONSE	        M3	2	12	C4	release
235.85	n/a	RESPONSE	        M3	2	12	C4	press
236.271	n/a	RESPONSE	        M3	2	12	C4	release
236.522	n/a	RESPONSE	        M3	2	17	F4	press
236.764	n/a	RESPONSE	        M3	2	19	G4	press
236.836	n/a	RESPONSE	        M3	2	17	F4	release
237.006	n/a	RESPONSE	        M3	2	17	F4	press
237.167	n/a	RESPONSE	        M3	2	19	G4	release
237.22	n/a	RESPONSE	        M3	2	17	F4	release
237.51	n/a	RESPONSE	        M3	2	00	C3	press
237.521	n/a	RESPONSE	        M3	2	17	F4	press
237.772	n/a	RESPONSE	        M3	2	19	G4	press
237.815	n/a	RESPONSE	        M3	2	17	F4	release
237.995	n/a	RESPONSE	        M3	2	17	F4	press
238.016	n/a	RESPONSE	        M3	2	07	G3	press
238.209	n/a	RESPONSE	        M3	2	16	E4	press
238.289	n/a	RESPONSE	        M3	2	00	C3	release
238.33	n/a	RESPONSE	        M3	2	19	G4	release
238.341	n/a	RESPONSE	        M3	2	17	F4	release
238.452	n/a	RESPONSE	        M3	2	04	E3	press
238.494	n/a	RESPONSE	        M3	2	17	F4	press
238.545	n/a	RESPONSE	        M3	2	07	G3	release
238.966	n/a	RESPONSE	        M3	2	07	G3	press
238.987	n/a	RESPONSE	        M3	2	12	C4	press
239.039	n/a	RESPONSE	        M3	2	16	E4	release
239.18	n/a	RESPONSE	        M3	2	17	F4	release
239.261	n/a	RESPONSE	        M3	2	04	E3	release
239.275	n/a	RESPONSE	        M3	2	12	C4	release
239.324	n/a	RESPONSE	        M3	2	07	G3	release
239.334	7.758	FIXCROSS	n/a	n/a	n/a	n/a	n/a
239.515	n/a	RESPONSE	        M3	2	17	F4	press
239.526	n/a	RESPONSE	        M3	2	00	C3	press
239.757	n/a	RESPONSE	        M3	2	19	G4	press
239.799	n/a	RESPONSE	        M3	2	21	A4	press
239.801	n/a	RESPONSE	        M3	2	17	F4	release
239.871	n/a	RESPONSE	        M3	2	21	A4	release
239.962	n/a	RESPONSE	        M3	2	17	F4	press
240.054	n/a	RESPONSE	        M3	2	07	G3	press
240.066	n/a	RESPONSE	        M3	2	19	G4	release
240.166	n/a	RESPONSE	        M3	2	16	E4	press
240.327	n/a	RESPONSE	        M3	2	00	C3	release
240.429	n/a	RESPONSE	        M3	2	04	E3	press
240.45	n/a	RESPONSE	        M3	2	14	D4	press
240.452	n/a	RESPONSE	        M3	2	12	C4	press
240.482	n/a	RESPONSE	        M3	2	17	F4	release
240.496	n/a	RESPONSE	        M3	2	16	E4	release
240.575	n/a	RESPONSE	        M3	2	07	G3	release
240.746	n/a	RESPONSE	        M3	2	12	C4	release
240.749	n/a	RESPONSE	        M3	2	14	D4	release
240.92	n/a	RESPONSE	        M3	2	07	G3	press
241.0	n/a	RESPONSE	        M3	2	12	C4	press
241.242	n/a	RESPONSE	        M3	2	04	E3	release
241.324	n/a	RESPONSE	        M3	2	12	C4	release
241.349	n/a	RESPONSE	        M3	2	07	G3	release
247.092	6.317	CUE_LISTEN	        M6	1	n/a	n/a	n/a
251.156	n/a	RESPONSE	        M6	1	16	E4	press
251.204	n/a	RESPONSE	        M6	1	04	E3	press
251.536	n/a	RESPONSE	        M6	1	04	E3	release
251.74	n/a	RESPONSE	        M6	1	16	E4	release
253.409	7.758	FIXCROSS	n/a	n/a	n/a	n/a	n/a
253.917	n/a	RESPONSE	        M6	1	18	F#4	press
254.145	n/a	RESPONSE	        M6	1	18	F#4	release
256.154	n/a	RESPONSE	        M6	1	04	E3	press
256.516	n/a	RESPONSE	        M6	1	04	E3	release
256.686	n/a	RESPONSE	        M6	1	04	E3	press
257.567	n/a	RESPONSE	        M6	1	16	E4	press
257.979	n/a	RESPONSE	        M6	1	04	E3	release
258.091	n/a	RESPONSE	        M6	1	16	E4	release
258.224	n/a	RESPONSE	        M6	1	04	E3	press
258.242	n/a	RESPONSE	        M6	1	16	E4	press
258.966	n/a	RESPONSE	        M6	1	11	B3	press
259.355	n/a	RESPONSE	        M6	1	11	B3	release
259.956	n/a	RESPONSE	        M6	1	20	G#4	press
260.16	n/a	RESPONSE	        M6	1	20	G#4	release
260.719	n/a	RESPONSE	        M6	1	21	A4	press
261.1	n/a	RESPONSE	        M6	1	20	G#4	press
261.167	6.317	CUE_PLAYBACK_BOTH_HANDS	        M6	1	n/a	n/a	n/a
261.292	n/a	RESPONSE	        M6	1	21	A4	release
261.331	n/a	RESPONSE	        M6	1	20	G#4	release
261.95	n/a	RESPONSE	        M6	1	23	B4	press
262.327	n/a	RESPONSE	        M6	1	04	E3	release
262.336	n/a	RESPONSE	        M6	1	16	E4	release
262.342	n/a	RESPONSE	        M6	1	23	B4	release
262.574	n/a	RESPONSE	        M6	1	04	E3	press
262.59	n/a	RESPONSE	        M6	1	16	E4	press
263.157	n/a	RESPONSE	        M6	1	11	B3	press
263.16	n/a	RESPONSE	        M6	1	23	B4	press
263.382	n/a	RESPONSE	        M6	1	22	A#4	press
263.556	n/a	RESPONSE	        M6	1	22	A#4	release
263.574	n/a	RESPONSE	        M6	1	23	B4	release
263.687	n/a	RESPONSE	        M6	1	11	B3	release
264.437	n/a	RESPONSE	        M6	1	18	F#4	press
264.68	n/a	RESPONSE	        M6	1	18	F#4	release
266.025	n/a	RESPONSE	        M6	1	20	G#4	press
266.136	n/a	RESPONSE	        M6	1	18	F#4	press
266.347	n/a	RESPONSE	        M6	1	18	F#4	release
266.369	n/a	RESPONSE	        M6	1	20	G#4	release
267.2	n/a	RESPONSE	        M6	1	19	G4	press
267.424	n/a	RESPONSE	        M6	1	18	F#4	press
267.484	7.758	FIXCROSS	n/a	n/a	n/a	n/a	n/a
267.532	n/a	RESPONSE	        M6	1	19	G4	release
267.664	n/a	RESPONSE	        M6	1	18	F#4	release
267.677	n/a	RESPONSE	        M6	1	16	E4	release
267.806	n/a	RESPONSE	        M6	1	16	E4	press
268.307	n/a	RESPONSE	        M6	1	19	G4	press
268.339	n/a	RESPONSE	        M6	1	11	B3	press
268.43	n/a	RESPONSE	        M6	1	18	F#4	press
268.571	n/a	RESPONSE	        M6	1	19	G4	release
268.612	n/a	RESPONSE	        M6	1	16	E4	release
268.625	n/a	RESPONSE	        M6	1	04	E3	release
268.825	n/a	RESPONSE	        M6	1	19	G4	press
268.827	n/a	RESPONSE	        M6	1	07	G3	press
268.837	n/a	RESPONSE	        M6	1	18	F#4	release
268.84	n/a	RESPONSE	        M6	1	16	E4	press
268.92	n/a	RESPONSE	        M6	1	11	B3	release
269.292	n/a	RESPONSE	        M6	1	23	B4	press
269.332	n/a	RESPONSE	        M6	1	11	B3	press
269.505	n/a	RESPONSE	        M6	1	24	C5	press
269.585	n/a	RESPONSE	        M6	1	23	B4	release
269.617	n/a	RESPONSE	        M6	1	19	G4	release
269.777	n/a	RESPONSE	        M6	1	23	B4	press
269.78	n/a	RESPONSE	        M6	1	04	E3	press
269.851	n/a	RESPONSE	        M6	1	07	G3	release
269.861	n/a	RESPONSE	        M6	1	11	B3	release
269.872	n/a	RESPONSE	        M6	1	24	C5	release
270.314	n/a	RESPONSE	        M6	1	11	B3	press
270.415	n/a	RESPONSE	        M6	1	04	E3	release
270.787	n/a	RESPONSE	        M6	1	07	G3	press
270.827	n/a	RESPONSE	        M6	1	11	B3	release
271.215	n/a	RESPONSE	        M6	1	11	B3	press
271.292	n/a	RESPONSE	        M6	1	16	E4	release
271.664	n/a	RESPONSE	        M6	1	14	D4	press
271.701	n/a	RESPONSE	        M6	1	02	D3	press
271.742	n/a	RESPONSE	        M6	1	07	G3	release
271.75	n/a	RESPONSE	        M6	1	23	B4	release
271.797	n/a	RESPONSE	        M6	1	11	B3	release
272.167	n/a	RESPONSE	        M6	1	15	D#4	press
272.17	n/a	RESPONSE	        M6	1	11	B3	press
272.457	n/a	RESPONSE	        M6	1	02	D3	release
272.47	n/a	RESPONSE	        M6	1	15	D#4	release
272.925	n/a	RESPONSE	        M6	1	11	B3	release
273.44	n/a	RESPONSE	        M6	1	14	D4	release
275.242	6.325	CUE_LISTEN	        M6	2	n/a	n/a	n/a
280.21	n/a	RESPONSE	        M6	2	16	E4	press
280.224	n/a	RESPONSE	        M6	2	04	E3	press
280.662	n/a	RESPONSE	        M6	2	04	E3	release
280.764	n/a	RESPONSE	        M6	2	16	E4	release
281.202	n/a	RESPONSE	        M6	2	16	E4	press
281.567	7.758	FIXCROSS	n/a	n/a	n/a	n/a	n/a
282.239	n/a	RESPONSE	        M6	2	06	F#3	press
282.492	n/a	RESPONSE	        M6	2	06	F#3	release
283.257	n/a	RESPONSE	        M6	2	16	E4	release
283.414	n/a	RESPONSE	        M6	2	16	E4	press
283.416	n/a	RESPONSE	        M6	2	04	E3	press
283.815	n/a	RESPONSE	        M6	2	11	B3	press
284.125	n/a	RESPONSE	        M6	2	11	B3	release
284.229	n/a	RESPONSE	        M6	2	04	E3	release
284.541	n/a	RESPONSE	        M6	2	16	E4	release
284.869	n/a	RESPONSE	        M6	2	04	E3	press
284.871	n/a	RESPONSE	        M6	2	16	E4	press
285.241	n/a	RESPONSE	        M6	2	11	B3	press
285.512	n/a	RESPONSE	        M6	2	11	B3	release
285.654	n/a	RESPONSE	        M6	2	23	B4	press
286.015	n/a	RESPONSE	        M6	2	23	B4	release
286.496	n/a	RESPONSE	        M6	2	16	E4	release
289.325	6.317	CUE_PLAYBACK_BOTH_HANDS	        M6	2	n/a	n/a	n/a
290.041	n/a	RESPONSE	        M6	2	04	E3	release
290.28	n/a	RESPONSE	        M6	2	04	E3	press
290.292	n/a	RESPONSE	        M6	2	16	E4	press
290.302	n/a	RESPONSE	        M6	2	23	B4	press
290.804	n/a	RESPONSE	        M6	2	11	B3	press
290.965	n/a	RESPONSE	        M6	2	04	E3	release
291.314	n/a	RESPONSE	        M6	2	07	G3	press
291.372	n/a	RESPONSE	        M6	2	11	B3	release
291.78	n/a	RESPONSE	        M6	2	11	B3	press
291.788	n/a	RESPONSE	        M6	2	19	G4	press
291.886	n/a	RESPONSE	        M6	2	23	B4	release
292.21	n/a	RESPONSE	        M6	2	04	E3	press
292.279	n/a	RESPONSE	        M6	2	07	G3	release
292.326	n/a	RESPONSE	        M6	2	11	B3	release
292.719	n/a	RESPONSE	        M6	2	11	B3	press
292.83	n/a	RESPONSE	        M6	2	04	E3	release
292.876	n/a	RESPONSE	        M6	2	16	E4	release
293.184	n/a	RESPONSE	        M6	2	07	G3	press
293.199	n/a	RESPONSE	        M6	2	16	E4	press
293.229	n/a	RESPONSE	        M6	2	11	B3	release
293.642	n/a	RESPONSE	        M6	2	11	B3	press
293.76	n/a	RESPONSE	        M6	2	16	E4	release
294.095	n/a	RESPONSE	        M6	2	07	G3	release
294.102	n/a	RESPONSE	        M6	2	23	B4	press
294.111	n/a	RESPONSE	        M6	2	02	D3	press
294.12	n/a	RESPONSE	        M6	2	04	E3	press
294.126	n/a	RESPONSE	        M6	2	16	E4	press
294.129	n/a	RESPONSE	        M6	2	14	D4	press
294.151	n/a	RESPONSE	        M6	2	11	B3	release
294.166	n/a	RESPONSE	        M6	2	19	G4	release
294.171	n/a	RESPONSE	        M6	2	16	E4	release
294.247	n/a	RESPONSE	        M6	2	04	E3	release
294.574	n/a	RESPONSE	        M6	2	11	B3	press
294.754	n/a	RESPONSE	        M6	2	14	D4	release
294.922	n/a	RESPONSE	        M6	2	02	D3	release
295.081	n/a	RESPONSE	        M6	2	07	G3	press
295.092	n/a	RESPONSE	        M6	2	14	D4	press
295.126	n/a	RESPONSE	        M6	2	11	B3	release
295.525	n/a	RESPONSE	        M6	2	11	B3	press
295.539	n/a	RESPONSE	        M6	2	19	G4	press
295.627	n/a	RESPONSE	        M6	2	23	B4	release
295.642	7.759	FIXCROSS	n/a	n/a	n/a	n/a	n/a
295.999	n/a	RESPONSE	        M6	2	02	D3	press
296.052	n/a	RESPONSE	        M6	2	07	G3	release
296.131	n/a	RESPONSE	        M6	2	11	B3	release
296.462	n/a	RESPONSE	        M6	2	11	B3	press
296.575	n/a	RESPONSE	        M6	2	02	D3	release
296.597	n/a	RESPONSE	        M6	2	14	D4	release
296.906	n/a	RESPONSE	        M6	2	14	D4	press
296.917	n/a	RESPONSE	        M6	2	07	G3	press
296.939	n/a	RESPONSE	        M6	2	11	B3	release
297.33	n/a	RESPONSE	        M6	2	11	B3	press
297.684	n/a	RESPONSE	        M6	2	14	D4	release
297.942	n/a	RESPONSE	        M6	2	07	G3	release
298.004	n/a	RESPONSE	        M6	2	19	G4	release
298.255	n/a	RESPONSE	        M6	2	11	B3	release
303.4	6.325	CUE_LISTEN	        M2	1	n/a	n/a	n/a
306.142	n/a	RESPONSE	        M2	1	00	C3	press
306.594	n/a	RESPONSE	        M2	1	09	A3	press
307.055	n/a	RESPONSE	        M2	1	09	A3	release
307.066	n/a	RESPONSE	        M2	1	04	E3	press
307.358	n/a	RESPONSE	        M2	1	00	C3	release
307.458	n/a	RESPONSE	        M2	1	04	E3	release
308.172	n/a	RESPONSE	        M2	1	00	C3	press
308.511	n/a	RESPONSE	        M2	1	09	A3	press
308.952	n/a	RESPONSE	        M2	1	04	E3	press
308.964	n/a	RESPONSE	        M2	1	09	A3	release
308.975	n/a	RESPONSE	        M2	1	05	F3	press
309.156	n/a	RESPONSE	        M2	1	05	F3	release
309.22	n/a	RESPONSE	        M2	1	04	E3	release
309.269	n/a	RESPONSE	        M2	1	00	C3	release
309.71	n/a	RESPONSE	        M2	1	02	D3	press
309.725	7.767	FIXCROSS	n/a	n/a	n/a	n/a	n/a
310.282	n/a	RESPONSE	        M2	1	02	D3	release
310.725	n/a	RESPONSE	        M2	1	00	C3	press
311.056	n/a	RESPONSE	        M2	1	07	G3	press
311.434	n/a	RESPONSE	        M2	1	04	E3	press
311.53	n/a	RESPONSE	        M2	1	07	G3	release
311.791	n/a	RESPONSE	        M2	1	07	G3	press
311.877	n/a	RESPONSE	        M2	1	00	C3	release
311.947	n/a	RESPONSE	        M2	1	04	E3	release
312.065	n/a	RESPONSE	        M2	1	07	G3	release
312.262	n/a	RESPONSE	        M2	1	23	B4	press
312.635	n/a	RESPONSE	        M2	1	23	B4	release
314.139	n/a	RESPONSE	        M2	1	24	C5	press
314.56	n/a	RESPONSE	        M2	1	24	C5	release
314.881	n/a	RESPONSE	        M2	1	24	C5	press
314.902	n/a	RESPONSE	        M2	1	00	C3	press
314.914	n/a	RESPONSE	        M2	1	07	G3	press
314.916	n/a	RESPONSE	        M2	1	04	E3	press
315.329	n/a	RESPONSE	        M2	1	00	C3	release
315.408	n/a	RESPONSE	        M2	1	24	C5	release
315.508	n/a	RESPONSE	        M2	1	07	G3	release
316.7	n/a	RESPONSE	        M2	1	24	C5	press
317.011	n/a	RESPONSE	        M2	1	21	A4	press
317.392	n/a	RESPONSE	        M2	1	21	A4	release
317.492	6.308	CUE_PLAYBACK_RIGHT_HAND	        M2	1	n/a	n/a	n/a
317.505	n/a	RESPONSE	        M2	1	04	E3	release
318.555	n/a	RESPONSE	        M2	1	24	C5	release
318.636	n/a	RESPONSE	        M2	1	24	C5	press
319.187	n/a	RESPONSE	        M2	1	19	G4	press
319.53	n/a	RESPONSE	        M2	1	24	C5	release
319.542	n/a	RESPONSE	        M2	1	19	G4	release
319.701	n/a	RESPONSE	        M2	1	19	G4	press
320.154	n/a	RESPONSE	        M2	1	17	F4	press
320.304	n/a	RESPONSE	        M2	1	19	G4	release
320.645	n/a	RESPONSE	        M2	1	19	G4	press
321.036	n/a	RESPONSE	        M2	1	17	F4	release
321.067	n/a	RESPONSE	        M2	1	19	G4	release
321.25	n/a	RESPONSE	        M2	1	24	C5	press
321.696	n/a	RESPONSE	        M2	1	19	G4	press
321.846	n/a	RESPONSE	        M2	1	24	C5	release
322.02	n/a	RESPONSE	        M2	1	19	G4	release
322.135	n/a	RESPONSE	        M2	1	19	G4	press
322.49	n/a	RESPONSE	        M2	1	17	F4	press
322.821	n/a	RESPONSE	        M2	1	19	G4	release
322.874	n/a	RESPONSE	        M2	1	16	E4	press
322.941	n/a	RESPONSE	        M2	1	17	F4	release
323.152	n/a	RESPONSE	        M2	1	17	F4	press
323.26	n/a	RESPONSE	        M2	1	16	E4	release
323.431	n/a	RESPONSE	        M2	1	19	G4	press
323.555	n/a	RESPONSE	        M2	1	17	F4	release
323.8	7.758	FIXCROSS	n/a	n/a	n/a	n/a	n/a
323.945	n/a	RESPONSE	        M2	1	19	G4	release
324.155	n/a	RESPONSE	        M2	1	24	C5	press
324.455	n/a	RESPONSE	        M2	1	19	G4	press
324.68	n/a	RESPONSE	        M2	1	24	C5	release
324.727	n/a	RESPONSE	        M2	1	19	G4	release
324.826	n/a	RESPONSE	        M2	1	19	G4	press
325.117	n/a	RESPONSE	        M2	1	17	F4	press
325.35	n/a	RESPONSE	        M2	1	19	G4	release
325.44	n/a	RESPONSE	        M2	1	16	E4	press
325.531	n/a	RESPONSE	        M2	1	17	F4	release
325.705	n/a	RESPONSE	        M2	1	17	F4	press
325.794	n/a	RESPONSE	        M2	1	16	E4	release
326.015	n/a	RESPONSE	        M2	1	19	G4	press
326.066	n/a	RESPONSE	        M2	1	17	F4	release
326.147	n/a	RESPONSE	        M2	1	19	G4	release
331.559	6.317	CUE_LISTEN	        M2	2	n/a	n/a	n/a
337.876	7.758	FIXCROSS	n/a	n/a	n/a	n/a	n/a
342.145	n/a	RESPONSE	        M2	2	14	D4	press
342.676	n/a	RESPONSE	        M2	2	16	E4	press
342.906	n/a	RESPONSE	        M2	2	14	D4	release
343.064	n/a	RESPONSE	        M2	2	17	F4	press
343.081	n/a	RESPONSE	        M2	2	16	E4	release
343.434	n/a	RESPONSE	        M2	2	17	F4	release
345.634	6.325	CUE_PLAYBACK_RIGHT_HAND	        M2	2	n/a	n/a	n/a
346.901	n/a	RESPONSE	        M2	2	14	D4	press
347.241	n/a	RESPONSE	        M2	2	16	E4	press
347.402	n/a	RESPONSE	        M2	2	14	D4	release
347.564	n/a	RESPONSE	        M2	2	17	F4	press
347.635	n/a	RESPONSE	        M2	2	16	E4	release
347.926	n/a	RESPONSE	        M2	2	14	D4	press
348.188	n/a	RESPONSE	        M2	2	17	F4	release
348.201	n/a	RESPONSE	        M2	2	14	D4	release
348.41	n/a	RESPONSE	        M2	2	14	D4	press
348.741	n/a	RESPONSE	        M2	2	16	E4	press
348.842	n/a	RESPONSE	        M2	2	14	D4	release
349.064	n/a	RESPONSE	        M2	2	17	F4	press
349.175	n/a	RESPONSE	        M2	2	16	E4	release
349.396	n/a	RESPONSE	        M2	2	19	G4	press
349.427	n/a	RESPONSE	        M2	2	17	F4	release
349.751	n/a	RESPONSE	        M2	2	17	F4	press
350.01	n/a	RESPONSE	        M2	2	19	G4	release
350.081	n/a	RESPONSE	        M2	2	16	E4	press
350.114	n/a	RESPONSE	        M2	2	17	F4	release
350.384	n/a	RESPONSE	        M2	2	16	E4	release
350.406	n/a	RESPONSE	        M2	2	17	F4	press
350.848	n/a	RESPONSE	        M2	2	17	F4	release
351.63	n/a	RESPONSE	        M2	2	14	D4	press
351.959	7.759	FIXCROSS	n/a	n/a	n/a	n/a	n/a
351.967	n/a	RESPONSE	        M2	2	14	D4	release
352.279	n/a	RESPONSE	        M2	2	14	D4	press
352.581	n/a	RESPONSE	        M2	2	16	E4	press
352.624	n/a	RESPONSE	        M2	2	14	D4	release
352.921	n/a	RESPONSE	        M2	2	17	F4	press
352.95	n/a	RESPONSE	        M2	2	16	E4	release
353.746	n/a	RESPONSE	        M2	2	17	F4	release
353.77	n/a	RESPONSE	        M2	2	19	G4	press
354.39	n/a	RESPONSE	        M2	2	19	G4	release
354.909	n/a	RESPONSE	        M2	2	17	F4	press
355.32	n/a	RESPONSE	        M2	2	21	A4	press
355.361	n/a	RESPONSE	        M2	2	17	F4	release
355.634	n/a	RESPONSE	        M2	2	21	A4	release
355.754	n/a	RESPONSE	        M2	2	21	A4	press
356.115	n/a	RESPONSE	        M2	2	19	G4	press
356.446	n/a	RESPONSE	        M2	2	17	F4	press
356.697	n/a	RESPONSE	        M2	2	19	G4	release
356.818	n/a	RESPONSE	        M2	2	16	E4	press
356.89	n/a	RESPONSE	        M2	2	21	A4	release
357.191	n/a	RESPONSE	        M2	2	17	F4	release
357.222	n/a	RESPONSE	        M2	2	16	E4	release
357.244	n/a	RESPONSE	        M2	2	14	D4	press
357.726	n/a	RESPONSE	        M2	2	14	D4	release
359.717	6.317	CUE_LISTEN	        M8	1	n/a	n/a	n/a
363.65	n/a	RESPONSE	        M8	1	09	A3	press
364.01	n/a	RESPONSE	        M8	1	12	C4	press
364.275	n/a	RESPONSE	        M8	1	16	E4	press
364.587	n/a	RESPONSE	        M8	1	16	E4	release
364.602	n/a	RESPONSE	        M8	1	12	C4	release
364.618	n/a	RESPONSE	        M8	1	09	A3	release
365.018	n/a	RESPONSE	        M8	1	14	D4	press
365.24	n/a	RESPONSE	        M8	1	17	F4	press
365.521	n/a	RESPONSE	        M8	1	14	D4	release
365.572	n/a	RESPONSE	        M8	1	21	A4	press
365.724	n/a	RESPONSE	        M8	1	17	F4	release
365.885	n/a	RESPONSE	        M8	1	21	A4	release
366.034	7.758	FIXCROSS	n/a	n/a	n/a	n/a	n/a
366.356	n/a	RESPONSE	        M8	1	16	E4	press
366.577	n/a	RESPONSE	        M8	1	19	G4	press
366.701	n/a	RESPONSE	        M8	1	16	E4	release
366.83	n/a	RESPONSE	        M8	1	23	B4	press
366.961	n/a	RESPONSE	        M8	1	19	G4	release
367.104	n/a	RESPONSE	        M8	1	23	B4	release
367.614	n/a	RESPONSE	        M8	1	16	E4	press
367.805	n/a	RESPONSE	        M8	1	19	G4	press
367.936	n/a	RESPONSE	        M8	1	16	E4	release
368.098	n/a	RESPONSE	        M8	1	23	B4	press
368.281	n/a	RESPONSE	        M8	1	19	G4	release
368.4	n/a	RESPONSE	        M8	1	23	B4	release
368.531	n/a	RESPONSE	        M8	1	09	A3	press
368.762	n/a	RESPONSE	        M8	1	12	C4	press
368.996	n/a	RESPONSE	        M8	1	16	E4	press
369.265	n/a	RESPONSE	        M8	1	12	C4	release
369.267	n/a	RESPONSE	        M8	1	09	A3	release
369.367	n/a	RESPONSE	        M8	1	16	E4	release
369.58	n/a	RESPONSE	        M8	1	16	E4	press
369.79	n/a	RESPONSE	        M8	1	19	G4	press
369.912	n/a	RESPONSE	        M8	1	16	E4	release
370.012	n/a	RESPONSE	        M8	1	23	B4	press
370.144	n/a	RESPONSE	        M8	1	19	G4	release
370.335	n/a	RESPONSE	        M8	1	23	B4	release
372.487	n/a	RESPONSE	        M8	1	12	C4	press
372.702	n/a	RESPONSE	        M8	1	16	E4	press
372.952	n/a	RESPONSE	        M8	1	12	C4	release
373.027	n/a	RESPONSE	        M8	1	16	E4	release
373.221	n/a	RESPONSE	        M8	1	09	A3	press
373.468	n/a	RESPONSE	        M8	1	12	C4	press
373.665	n/a	RESPONSE	        M8	1	16	E4	press
373.792	6.317	CUE_PLAYBACK_RIGHT_HAND	        M8	1	n/a	n/a	n/a
373.841	n/a	RESPONSE	        M8	1	12	C4	release
373.865	n/a	RESPONSE	        M8	1	09	A3	release
373.954	n/a	RESPONSE	        M8	1	16	E4	release
374.24	n/a	RESPONSE	        M8	1	16	E4	press
374.46	n/a	RESPONSE	        M8	1	19	G4	press
374.618	n/a	RESPONSE	        M8	1	16	E4	release
374.668	n/a	RESPONSE	        M8	1	23	B4	press
374.77	n/a	RESPONSE	        M8	1	19	G4	release
375.031	n/a	RESPONSE	        M8	1	23	B4	release
375.162	n/a	RESPONSE	        M8	1	23	B4	press
376.145	n/a	RESPONSE	        M8	1	16	E4	press
376.175	n/a	RESPONSE	        M8	1	23	B4	release
376.348	n/a	RESPONSE	        M8	1	19	G4	press
376.447	n/a	RESPONSE	        M8	1	16	E4	release
376.548	n/a	RESPONSE	        M8	1	23	B4	press
376.64	n/a	RESPONSE	        M8	1	19	G4	release
376.861	n/a	RESPONSE	        M8	1	23	B4	release
377.015	n/a	RESPONSE	        M8	1	23	B4	press
377.435	n/a	RESPONSE	        M8	1	18	F#4	press
377.555	n/a	RESPONSE	        M8	1	23	B4	release
377.936	n/a	RESPONSE	        M8	1	21	A4	press
377.967	n/a	RESPONSE	        M8	1	18	F#4	release
378.499	n/a	RESPONSE	        M8	1	21	A4	release
378.69	n/a	RESPONSE	        M8	1	23	B4	press
379.331	n/a	RESPONSE	        M8	1	21	A4	press
379.542	n/a	RESPONSE	        M8	1	19	G4	press
379.804	n/a	RESPONSE	        M8	1	18	F#4	press
379.835	n/a	RESPONSE	        M8	1	23	B4	release
379.837	n/a	RESPONSE	        M8	1	21	A4	release
379.89	n/a	RESPONSE	        M8	1	19	G4	release
380.008	n/a	RESPONSE	        M8	1	19	G4	press
380.05	n/a	RESPONSE	        M8	1	18	F#4	release
380.109	7.758	FIXCROSS	n/a	n/a	n/a	n/a	n/a
380.504	n/a	RESPONSE	        M8	1	16	E4	press
380.535	n/a	RESPONSE	        M8	1	19	G4	release
381.194	n/a	RESPONSE	        M8	1	16	E4	release
387.867	6.325	CUE_LISTEN	        M8	2	n/a	n/a	n/a
393.681	n/a	RESPONSE	        M8	2	14	D4	press
394.068	n/a	RESPONSE	        M8	2	14	D4	release
394.192	7.758	FIXCROSS	n/a	n/a	n/a	n/a	n/a
394.597	n/a	RESPONSE	        M8	2	16	E4	press
394.862	n/a	RESPONSE	        M8	2	19	G4	press
394.906	n/a	RESPONSE	        M8	2	16	E4	release
395.085	n/a	RESPONSE	        M8	2	23	B4	press
395.126	n/a	RESPONSE	        M8	2	19	G4	release
395.407	n/a	RESPONSE	        M8	2	23	B4	release
395.558	n/a	RESPONSE	        M8	2	09	A3	press
395.85	n/a	RESPONSE	        M8	2	12	C4	press
396.582	n/a	RESPONSE	        M8	2	16	E4	press
396.872	n/a	RESPONSE	        M8	2	09	A3	release
396.884	n/a	RESPONSE	        M8	2	12	C4	release
396.985	n/a	RESPONSE	        M8	2	16	E4	release
397.728	n/a	RESPONSE	        M8	2	16	E4	press
398.038	n/a	RESPONSE	        M8	2	19	G4	press
398.108	n/a	RESPONSE	        M8	2	16	E4	release
398.2	n/a	RESPONSE	        M8	2	23	B4	press
398.242	n/a	RESPONSE	        M8	2	19	G4	release
398.552	n/a	RESPONSE	        M8	2	23	B4	release
401.951	6.317	CUE_PLAYBACK_RIGHT_HAND	        M8	2	n/a	n/a	n/a
402.571	n/a	RESPONSE	        M8	2	16	E4	press
402.784	n/a	RESPONSE	        M8	2	19	G4	press
402.934	n/a	RESPONSE	        M8	2	16	E4	release
403.012	n/a	RESPONSE	        M8	2	23	B4	press
403.075	n/a	RESPONSE	        M8	2	19	G4	release
403.345	n/a	RESPONSE	        M8	2	23	B4	release
403.507	n/a	RESPONSE	        M8	2	23	B4	press
404.08	n/a	RESPONSE	        M8	2	21	A4	press
404.45	n/a	RESPONSE	        M8	2	23	B4	release
404.452	n/a	RESPONSE	        M8	2	21	A4	release
404.628	n/a	RESPONSE	        M8	2	16	E4	press
404.826	n/a	RESPONSE	        M8	2	19	G4	press
404.935	n/a	RESPONSE	        M8	2	16	E4	release
405.016	n/a	RESPONSE	        M8	2	23	B4	press
405.078	n/a	RESPONSE	        M8	2	19	G4	release
405.268	n/a	RESPONSE	        M8	2	23	B4	release
405.42	n/a	RESPONSE	        M8	2	23	B4	press
405.831	n/a	RESPONSE	        M8	2	18	F#4	press
405.942	n/a	RESPONSE	        M8	2	23	B4	release
406.204	n/a	RESPONSE	        M8	2	21	A4	press
406.275	n/a	RESPONSE	        M8	2	18	F#4	release
406.706	n/a	RESPONSE	        M8	2	23	B4	press
406.768	n/a	RESPONSE	        M8	2	21	A4	release
407.11	n/a	RESPONSE	        M8	2	21	A4	press
407.41	n/a	RESPONSE	        M8	2	19	G4	press
407.661	n/a	RESPONSE	        M8	2	18	F#4	press
407.702	n/a	RESPONSE	        M8	2	19	G4	release
407.714	n/a	RESPONSE	        M8	2	21	A4	release
407.805	n/a	RESPONSE	        M8	2	23	B4	release
407.926	n/a	RESPONSE	        M8	2	19	G4	press
407.967	n/a	RESPONSE	        M8	2	18	F#4	release
408.267	7.758	FIXCROSS	n/a	n/a	n/a	n/a	n/a
408.448	n/a	RESPONSE	        M8	2	16	E4	press
408.451	n/a	RESPONSE	        M8	2	19	G4	release
409.131	n/a	RESPONSE	        M8	2	16	E4	release
410.402	n/a	RESPONSE	        M8	2	14	D4	press
410.754	n/a	RESPONSE	        M8	2	14	D4	release
411.368	n/a	RESPONSE	        M8	2	16	E4	press
411.682	n/a	RESPONSE	        M8	2	19	G4	press
411.784	n/a	RESPONSE	        M8	2	16	E4	release
411.948	n/a	RESPONSE	        M8	2	19	G4	release
412.88	n/a	RESPONSE	        M8	2	16	E4	press
413.287	n/a	RESPONSE	        M8	2	19	G4	press
413.341	n/a	RESPONSE	        M8	2	16	E4	release
413.686	n/a	RESPONSE	        M8	2	19	G4	release
413.708	n/a	RESPONSE	        M8	2	23	B4	press
414.068	n/a	RESPONSE	        M8	2	23	B4	release
416.026	6.317	CUE_LISTEN	        M4	1	n/a	n/a	n/a
418.998	n/a	RESPONSE	        M4	1	04	E3	press
419.4	n/a	RESPONSE	        M4	1	07	G3	press
419.704	n/a	RESPONSE	        M4	1	11	B3	press
419.935	n/a	RESPONSE	        M4	1	04	E3	release
419.945	n/a	RESPONSE	        M4	1	11	B3	release
419.966	n/a	RESPONSE	        M4	1	07	G3	release
421.766	n/a	RESPONSE	        M4	1	12	C4	press
422.288	n/a	RESPONSE	        M4	1	12	C4	release
422.342	7.758	FIXCROSS	n/a	n/a	n/a	n/a	n/a
423.028	n/a	RESPONSE	        M4	1	12	C4	press
423.886	n/a	RESPONSE	        M4	1	07	G3	press
424.394	n/a	RESPONSE	        M4	1	12	C4	release
424.538	n/a	RESPONSE	        M4	1	07	G3	release
424.602	n/a	RESPONSE	        M4	1	04	E3	press
424.605	n/a	RESPONSE	        M4	1	07	G3	press
424.616	n/a	RESPONSE	        M4	1	12	C4	press
424.621	n/a	RESPONSE	        M4	1	02	D3	press
424.808	n/a	RESPONSE	        M4	1	02	D3	release
424.94	n/a	RESPONSE	        M4	1	04	E3	release
424.951	n/a	RESPONSE	        M4	1	07	G3	release
425.442	n/a	RESPONSE	        M4	1	04	E3	press
425.446	n/a	RESPONSE	        M4	1	07	G3	press
425.755	n/a	RESPONSE	        M4	1	04	E3	release
425.787	n/a	RESPONSE	        M4	1	07	G3	release
426.188	n/a	RESPONSE	        M4	1	02	D3	press
426.198	n/a	RESPONSE	        M4	1	05	F3	press
426.5	n/a	RESPONSE	        M4	1	02	D3	release
426.511	n/a	RESPONSE	        M4	1	05	F3	release
426.884	n/a	RESPONSE	        M4	1	04	E3	press
426.896	n/a	RESPONSE	        M4	1	07	G3	press
427.315	n/a	RESPONSE	        M4	1	04	E3	release
427.366	n/a	RESPONSE	        M4	1	07	G3	release
427.447	n/a	RESPONSE	        M4	1	12	C4	release
428.348	n/a	RESPONSE	        M4	1	17	F4	press
428.59	n/a	RESPONSE	        M4	1	17	F4	release
430.101	6.325	CUE_PLAYBACK_BOTH_HANDS	        M4	1	n/a	n/a	n/a
430.902	n/a	RESPONSE	        M4	1	04	E3	press
430.905	n/a	RESPONSE	        M4	1	07	G3	press
430.915	n/a	RESPONSE	        M4	1	12	C4	press
431.396	n/a	RESPONSE	        M4	1	17	F4	press
431.798	n/a	RESPONSE	        M4	1	21	A4	press
431.848	n/a	RESPONSE	        M4	1	17	F4	release
432.15	n/a	RESPONSE	        M4	1	19	G4	press
432.505	n/a	RESPONSE	        M4	1	17	F4	press
432.66	n/a	RESPONSE	        M4	1	21	A4	release
432.716	n/a	RESPONSE	        M4	1	19	G4	release
432.844	n/a	RESPONSE	        M4	1	16	E4	press
432.941	n/a	RESPONSE	        M4	1	17	F4	release
433.238	n/a	RESPONSE	        M4	1	17	F4	press
433.287	n/a	RESPONSE	        M4	1	16	E4	release
433.791	n/a	RESPONSE	        M4	1	17	F4	release
433.814	n/a	RESPONSE	        M4	1	04	E3	release
433.833	n/a	RESPONSE	        M4	1	07	G3	release
433.941	n/a	RESPONSE	        M4	1	12	C4	release
434.058	n/a	RESPONSE	        M4	1	07	G3	press
434.061	n/a	RESPONSE	        M4	1	04	E3	press
434.071	n/a	RESPONSE	        M4	1	12	C4	press
434.425	n/a	RESPONSE	        M4	1	17	F4	press
434.762	n/a	RESPONSE	        M4	1	21	A4	press
434.83	n/a	RESPONSE	        M4	1	17	F4	release
435.091	n/a	RESPONSE	        M4	1	19	G4	press
435.383	n/a	RESPONSE	        M4	1	17	F4	press
435.525	n/a	RESPONSE	        M4	1	21	A4	release
435.615	n/a	RESPONSE	        M4	1	19	G4	release
435.718	n/a	RESPONSE	        M4	1	16	E4	press
435.818	n/a	RESPONSE	        M4	1	17	F4	release
436.188	n/a	RESPONSE	        M4	1	17	F4	press
436.24	n/a	RESPONSE	        M4	1	16	E4	release
436.426	7.758	FIXCROSS	n/a	n/a	n/a	n/a	n/a
437.254	n/a	RESPONSE	        M4	1	17	F4	release
437.325	n/a	RESPONSE	        M4	1	07	G3	release
437.344	n/a	RESPONSE	        M4	1	04	E3	release
437.365	n/a	RESPONSE	        M4	1	12	C4	release
444.184	6.317	CUE_LISTEN	        M4	2	n/a	n/a	n/a
450.501	7.758	FIXCROSS	n/a	n/a	n/a	n/a	n/a
458.259	6.317	CUE_PLAYBACK_BOTH_HANDS	        M4	2	n/a	n/a	n/a
459.095	n/a	RESPONSE	        M4	2	07	G3	press
459.097	n/a	RESPONSE	        M4	2	04	E3	press
459.117	n/a	RESPONSE	        M4	2	17	F4	press
459.12	n/a	RESPONSE	        M4	2	12	C4	press
459.612	n/a	RESPONSE	        M4	2	17	F4	release
459.664	n/a	RESPONSE	        M4	2	04	E3	release
459.674	n/a	RESPONSE	        M4	2	12	C4	release
459.794	n/a	RESPONSE	        M4	2	07	G3	release
460.005	n/a	RESPONSE	        M4	2	07	G3	press
460.007	n/a	RESPONSE	        M4	2	12	C4	press
460.01	n/a	RESPONSE	        M4	2	04	E3	press
460.448	n/a	RESPONSE	        M4	2	17	F4	press
460.88	n/a	RESPONSE	        M4	2	21	A4	press
461.121	n/a	RESPONSE	        M4	2	17	F4	release
461.338	n/a	RESPONSE	        M4	2	24	C5	press
461.618	n/a	RESPONSE	        M4	2	21	A4	release
461.718	n/a	RESPONSE	        M4	2	04	E3	release
461.885	n/a	RESPONSE	        M4	2	24	C5	release
461.912	n/a	RESPONSE	        M4	2	07	G3	release
462.104	n/a	RESPONSE	        M4	2	05	F3	press
462.106	n/a	RESPONSE	        M4	2	02	D3	press
462.125	n/a	RESPONSE	        M4	2	22	A#4	press
462.542	n/a	RESPONSE	        M4	2	21	A4	press
462.757	n/a	RESPONSE	        M4	2	22	A#4	release
462.944	n/a	RESPONSE	        M4	2	19	G4	press
463.548	n/a	RESPONSE	        M4	2	02	D3	release
463.561	n/a	RESPONSE	        M4	2	21	A4	release
463.6	n/a	RESPONSE	        M4	2	05	F3	release
463.611	n/a	RESPONSE	        M4	2	19	G4	release
463.641	n/a	RESPONSE	        M4	2	12	C4	release
463.836	n/a	RESPONSE	        M4	2	12	C4	press
463.838	n/a	RESPONSE	        M4	2	05	F3	press
463.857	n/a	RESPONSE	        M4	2	02	D3	press
464.242	n/a	RESPONSE	        M4	2	16	E4	press
464.576	7.758	FIXCROSS	n/a	n/a	n/a	n/a	n/a
464.625	n/a	RESPONSE	        M4	2	19	G4	press
464.736	n/a	RESPONSE	        M4	2	16	E4	release
465.292	n/a	RESPONSE	        M4	2	22	A#4	press
465.436	n/a	RESPONSE	        M4	2	02	D3	release
465.455	n/a	RESPONSE	        M4	2	05	F3	release
465.466	n/a	RESPONSE	        M4	2	19	G4	release
465.737	n/a	RESPONSE	        M4	2	07	G3	press
465.758	n/a	RESPONSE	        M4	2	04	E3	press
465.761	n/a	RESPONSE	        M4	2	21	A4	press
465.764	n/a	RESPONSE	        M4	2	19	G4	press
465.965	n/a	RESPONSE	        M4	2	22	A#4	release
466.614	n/a	RESPONSE	        M4	2	19	G4	release
466.645	n/a	RESPONSE	        M4	2	21	A4	release
466.726	n/a	RESPONSE	        M4	2	19	G4	press
467.257	n/a	RESPONSE	        M4	2	17	F4	press
467.308	n/a	RESPONSE	        M4	2	19	G4	release
467.891	n/a	RESPONSE	        M4	2	12	C4	release
467.894	n/a	RESPONSE	        M4	2	04	E3	release
467.902	n/a	RESPONSE	        M4	2	07	G3	release
468.024	n/a	RESPONSE	        M4	2	17	F4	release
472.334	6.325	CUE_LISTEN	        M3	1	n/a	n/a	n/a
475.807	n/a	RESPONSE	        M3	1	00	C3	press
476.496	n/a	RESPONSE	        M3	1	00	C3	release
476.628	n/a	RESPONSE	        M3	1	00	C3	press
476.958	n/a	RESPONSE	        M3	1	09	A3	press
477.35	n/a	RESPONSE	        M3	1	04	E3	press
477.411	n/a	RESPONSE	        M3	1	09	A3	release
477.612	n/a	RESPONSE	        M3	1	00	C3	release
477.634	n/a	RESPONSE	        M3	1	04	E3	release
477.835	n/a	RESPONSE	        M3	1	00	C3	press
478.188	n/a	RESPONSE	        M3	1	07	G3	press
478.507	n/a	RESPONSE	        M3	1	04	E3	press
478.598	n/a	RESPONSE	        M3	1	07	G3	release
478.659	7.758	FIXCROSS	n/a	n/a	n/a	n/a	n/a
478.86	n/a	RESPONSE	        M3	1	07	G3	press
478.931	n/a	RESPONSE	        M3	1	00	C3	release
479.002	n/a	RESPONSE	        M3	1	04	E3	release
479.136	n/a	RESPONSE	        M3	1	07	G3	release
480.216	n/a	RESPONSE	        M3	1	12	C4	press
480.548	n/a	RESPONSE	        M3	1	14	D4	press
480.608	n/a	RESPONSE	        M3	1	12	C4	release
480.881	n/a	RESPONSE	        M3	1	14	D4	release
480.941	n/a	RESPONSE	        M3	1	17	F4	press
481.172	n/a	RESPONSE	        M3	1	17	F4	release
482.031	n/a	RESPONSE	        M3	1	11	B3	press
482.367	n/a	RESPONSE	        M3	1	12	C4	press
482.524	n/a	RESPONSE	        M3	1	12	C4	release
482.54	n/a	RESPONSE	        M3	1	11	B3	release
483.086	n/a	RESPONSE	        M3	1	12	C4	press
483.371	n/a	RESPONSE	        M3	1	14	D4	press
483.468	n/a	RESPONSE	        M3	1	12	C4	release
483.713	n/a	RESPONSE	        M3	1	16	E4	press
483.752	n/a	RESPONSE	        M3	1	14	D4	release
484.075	n/a	RESPONSE	        M3	1	12	C4	press
484.115	n/a	RESPONSE	        M3	1	16	E4	release
484.353	n/a	RESPONSE	        M3	1	12	C4	release
486.418	6.317	CUE_PLAYBACK_RIGHT_HAND	        M3	1	n/a	n/a	n/a
487.267	n/a	RESPONSE	        M3	1	12	C4	press
487.578	n/a	RESPONSE	        M3	1	14	D4	press
487.858	n/a	RESPONSE	        M3	1	12	C4	release
487.93	n/a	RESPONSE	        M3	1	16	E4	press
487.971	n/a	RESPONSE	        M3	1	14	D4	release
488.302	n/a	RESPONSE	        M3	1	12	C4	press
488.493	n/a	RESPONSE	        M3	1	16	E4	release
488.575	n/a	RESPONSE	        M3	1	12	C4	release
488.736	n/a	RESPONSE	        M3	1	12	C4	press
489.018	n/a	RESPONSE	        M3	1	14	D4	press
489.088	n/a	RESPONSE	        M3	1	12	C4	release
489.34	n/a	RESPONSE	        M3	1	16	E4	press
489.363	n/a	RESPONSE	        M3	1	14	D4	release
489.662	n/a	RESPONSE	        M3	1	12	C4	press
489.713	n/a	RESPONSE	        M3	1	16	E4	release
490.006	n/a	RESPONSE	        M3	1	16	E4	press
490.056	n/a	RESPONSE	        M3	1	12	C4	release
490.34	n/a	RESPONSE	        M3	1	17	F4	press
490.388	n/a	RESPONSE	        M3	1	16	E4	release
490.71	n/a	RESPONSE	        M3	1	19	G4	press
490.771	n/a	RESPONSE	        M3	1	17	F4	release
491.227	n/a	RESPONSE	        M3	1	19	G4	release
491.604	n/a	RESPONSE	        M3	1	16	E4	press
491.97	n/a	RESPONSE	        M3	1	17	F4	press
492.026	n/a	RESPONSE	        M3	1	16	E4	release
492.347	n/a	RESPONSE	        M3	1	19	G4	press
492.4	n/a	RESPONSE	        M3	1	17	F4	release
492.734	7.758	FIXCROSS	n/a	n/a	n/a	n/a	n/a
492.991	n/a	RESPONSE	        M3	1	19	G4	release
495.488	n/a	RESPONSE	        M3	1	12	C4	press
495.752	n/a	RESPONSE	        M3	1	12	C4	release
500.493	6.317	CUE_LISTEN	        M3	2	n/a	n/a	n/a
505.06	n/a	RESPONSE	        M3	2	19	G4	press
505.451	n/a	RESPONSE	        M3	2	21	A4	press
505.465	n/a	RESPONSE	        M3	2	19	G4	release
505.735	n/a	RESPONSE	        M3	2	21	A4	release
506.015	n/a	RESPONSE	        M3	2	19	G4	press
506.278	n/a	RESPONSE	        M3	2	21	A4	press
506.497	n/a	RESPONSE	        M3	2	19	G4	release
506.528	n/a	RESPONSE	        M3	2	23	B4	press
506.59	n/a	RESPONSE	        M3	2	21	A4	release
506.809	7.758	FIXCROSS	n/a	n/a	n/a	n/a	n/a
507.031	n/a	RESPONSE	        M3	2	23	B4	release
507.702	n/a	RESPONSE	        M3	2	17	F4	press
507.953	n/a	RESPONSE	        M3	2	19	G4	press
507.985	n/a	RESPONSE	        M3	2	17	F4	release
508.187	n/a	RESPONSE	        M3	2	19	G4	release
508.717	n/a	RESPONSE	        M3	2	19	G4	press
508.948	n/a	RESPONSE	        M3	2	21	A4	press
509.001	n/a	RESPONSE	        M3	2	19	G4	release
509.223	n/a	RESPONSE	        M3	2	19	G4	press
509.472	n/a	RESPONSE	        M3	2	21	A4	release
509.484	n/a	RESPONSE	        M3	2	17	F4	press
509.565	n/a	RESPONSE	        M3	2	19	G4	release
509.846	n/a	RESPONSE	        M3	2	16	E4	press
509.878	n/a	RESPONSE	        M3	2	17	F4	release
509.881	n/a	RESPONSE	        M3	2	14	D4	press
510.13	n/a	RESPONSE	        M3	2	14	D4	release
510.151	n/a	RESPONSE	        M3	2	16	E4	release
510.582	n/a	RESPONSE	        M3	2	19	G4	press
510.783	n/a	RESPONSE	        M3	2	21	A4	press
510.815	n/a	RESPONSE	        M3	2	19	G4	release
510.976	n/a	RESPONSE	        M3	2	19	G4	press
511.158	n/a	RESPONSE	        M3	2	17	F4	press
511.237	n/a	RESPONSE	        M3	2	21	A4	release
511.401	n/a	RESPONSE	        M3	2	19	G4	release
511.456	n/a	RESPONSE	        M3	2	14	D4	press
511.552	n/a	RESPONSE	        M3	2	17	F4	release
511.833	n/a	RESPONSE	        M3	2	14	D4	release
512.1	n/a	RESPONSE	        M3	2	19	G4	press
512.36	n/a	RESPONSE	        M3	2	21	A4	press
512.378	n/a	RESPONSE	        M3	2	19	G4	release
512.578	n/a	RESPONSE	        M3	2	19	G4	press
512.797	n/a	RESPONSE	        M3	2	17	F4	press
512.856	n/a	RESPONSE	        M3	2	21	A4	release
513.108	n/a	RESPONSE	        M3	2	19	G4	release
513.203	n/a	RESPONSE	        M3	2	17	F4	release
513.823	n/a	RESPONSE	        M3	2	17	F4	press
514.216	n/a	RESPONSE	        M3	2	17	F4	release
514.568	6.325	CUE_PLAYBACK_RIGHT_HAND	        M3	2	n/a	n/a	n/a
515.178	n/a	RESPONSE	        M3	2	19	G4	press
515.52	n/a	RESPONSE	        M3	2	21	A4	press
515.623	n/a	RESPONSE	        M3	2	19	G4	release
515.862	n/a	RESPONSE	        M3	2	19	G4	press
516.144	n/a	RESPONSE	        M3	2	17	F4	press
516.187	n/a	RESPONSE	        M3	2	21	A4	release
516.538	n/a	RESPONSE	        M3	2	16	E4	press
516.668	n/a	RESPONSE	        M3	2	17	F4	release
516.828	n/a	RESPONSE	        M3	2	19	G4	release
517.96	n/a	RESPONSE	        M3	2	09	A3	press
517.971	n/a	RESPONSE	        M3	2	16	E4	release
518.343	n/a	RESPONSE	        M3	2	09	A3	release
518.703	n/a	RESPONSE	        M3	2	19	G4	press
518.946	n/a	RESPONSE	        M3	2	21	A4	press
518.988	n/a	RESPONSE	        M3	2	19	G4	release
519.177	n/a	RESPONSE	        M3	2	19	G4	press
519.418	n/a	RESPONSE	        M3	2	17	F4	press
519.7	n/a	RESPONSE	        M3	2	16	E4	press
519.741	n/a	RESPONSE	        M3	2	17	F4	release
519.782	n/a	RESPONSE	        M3	2	19	G4	release
520.223	n/a	RESPONSE	        M3	2	07	G3	press
520.326	n/a	RESPONSE	        M3	2	21	A4	release
520.687	n/a	RESPONSE	        M3	2	07	G3	release
520.707	n/a	RESPONSE	        M3	2	16	E4	release
520.893	7.758	FIXCROSS	n/a	n/a	n/a	n/a	n/a
521.171	n/a	RESPONSE	        M3	2	07	G3	press
521.603	n/a	RESPONSE	        M3	2	07	G3	release
522.236	n/a	RESPONSE	        M3	2	09	A3	press
522.822	n/a	RESPONSE	        M3	2	09	A3	release
528.651	6.317	CUE_LISTEN	        M5	1	n/a	n/a	n/a
531.127	n/a	RESPONSE	        M5	1	05	F3	press
531.45	n/a	RESPONSE	        M5	1	09	A3	press
531.613	n/a	RESPONSE	        M5	1	05	F3	release
531.767	n/a	RESPONSE	        M5	1	04	E3	press
531.822	n/a	RESPONSE	        M5	1	09	A3	release
532.053	n/a	RESPONSE	        M5	1	09	A3	press
532.132	n/a	RESPONSE	        M5	1	04	E3	release
532.311	n/a	RESPONSE	        M5	1	02	D3	press
532.332	n/a	RESPONSE	        M5	1	09	A3	release
532.542	n/a	RESPONSE	        M5	1	09	A3	press
532.568	n/a	RESPONSE	        M5	1	02	D3	release
532.768	n/a	RESPONSE	        M5	1	09	A3	release
532.806	n/a	RESPONSE	        M5	1	00	C3	press
532.99	n/a	RESPONSE	        M5	1	09	A3	press
533.061	n/a	RESPONSE	        M5	1	00	C3	release
533.211	n/a	RESPONSE	        M5	1	09	A3	release
533.401	n/a	RESPONSE	        M5	1	05	F3	press
533.653	n/a	RESPONSE	        M5	1	09	A3	press
533.727	n/a	RESPONSE	        M5	1	05	F3	release
534.006	n/a	RESPONSE	        M5	1	09	A3	release
534.718	n/a	RESPONSE	        M5	1	23	B4	press
534.968	7.758	FIXCROSS	n/a	n/a	n/a	n/a	n/a
535.046	n/a	RESPONSE	        M5	1	23	B4	release
535.755	n/a	RESPONSE	        M5	1	23	B4	press
536.147	n/a	RESPONSE	        M5	1	23	B4	release
537.267	n/a	RESPONSE	        M5	1	23	B4	press
537.298	n/a	RESPONSE	        M5	1	05	F3	press
537.56	n/a	RESPONSE	        M5	1	23	B4	release
537.571	n/a	RESPONSE	        M5	1	05	F3	release
538.195	n/a	RESPONSE	        M5	1	21	A4	press
538.213	n/a	RESPONSE	        M5	1	05	F3	press
538.516	n/a	RESPONSE	        M5	1	05	F3	release
538.547	n/a	RESPONSE	        M5	1	21	A4	release
542.726	6.325	CUE_PLAYBACK_BOTH_HANDS	        M5	1	n/a	n/a	n/a
543.46	n/a	RESPONSE	        M5	1	21	A4	press
543.476	n/a	RESPONSE	        M5	1	05	F3	press
543.836	n/a	RESPONSE	        M5	1	21	A4	release
543.871	n/a	RESPONSE	        M5	1	05	F3	release
543.988	n/a	RESPONSE	        M5	1	21	A4	press
544.0	n/a	RESPONSE	        M5	1	09	A3	press
544.338	n/a	RESPONSE	        M5	1	09	A3	release
544.341	n/a	RESPONSE	        M5	1	21	A4	release
544.481	n/a	RESPONSE	        M5	1	21	A4	press
544.491	n/a	RESPONSE	        M5	1	04	E3	press
545.005	n/a	RESPONSE	        M5	1	09	A3	press
545.175	n/a	RESPONSE	        M5	1	04	E3	release
545.227	n/a	RESPONSE	        M5	1	21	A4	release
545.417	n/a	RESPONSE	        M5	1	09	A3	release
545.488	n/a	RESPONSE	        M5	1	02	D3	press
545.492	n/a	RESPONSE	        M5	1	21	A4	press
545.861	n/a	RESPONSE	        M5	1	21	A4	release
545.882	n/a	RESPONSE	        M5	1	02	D3	release
545.995	n/a	RESPONSE	        M5	1	09	A3	press
546.015	n/a	RESPONSE	        M5	1	21	A4	press
546.316	n/a	RESPONSE	        M5	1	09	A3	release
546.318	n/a	RESPONSE	        M5	1	21	A4	release
546.491	n/a	RESPONSE	        M5	1	21	A4	press
546.52	n/a	RESPONSE	        M5	1	00	C3	press
547.011	n/a	RESPONSE	        M5	1	09	A3	press
547.182	n/a	RESPONSE	        M5	1	00	C3	release
547.295	n/a	RESPONSE	        M5	1	21	A4	release
547.375	n/a	RESPONSE	        M5	1	09	A3	release
547.528	n/a	RESPONSE	        M5	1	05	F3	press
547.547	n/a	RESPONSE	        M5	1	21	A4	press
547.998	n/a	RESPONSE	        M5	1	24	C5	press
548.01	n/a	RESPONSE	        M5	1	09	A3	press
548.061	n/a	RESPONSE	        M5	1	21	A4	release
548.072	n/a	RESPONSE	        M5	1	05	F3	release
548.473	n/a	RESPONSE	        M5	1	04	E3	press
548.476	n/a	RESPONSE	        M5	1	17	F4	press
548.557	n/a	RESPONSE	        M5	1	09	A3	release
548.608	n/a	RESPONSE	        M5	1	24	C5	release
548.95	n/a	RESPONSE	        M5	1	19	G4	press
548.97	n/a	RESPONSE	        M5	1	09	A3	press
549.031	n/a	RESPONSE	        M5	1	17	F4	release
549.033	n/a	RESPONSE	        M5	1	04	E3	release
549.051	7.758	FIXCROSS	n/a	n/a	n/a	n/a	n/a
549.463	n/a	RESPONSE	        M5	1	21	A4	press
549.475	n/a	RESPONSE	        M5	1	02	D3	press
549.526	n/a	RESPONSE	        M5	1	19	G4	release
549.528	n/a	RESPONSE	        M5	1	09	A3	release
550.018	n/a	RESPONSE	        M5	1	09	A3	press
550.03	n/a	RESPONSE	        M5	1	02	D3	release
550.551	n/a	RESPONSE	        M5	1	00	C3	press
550.575	n/a	RESPONSE	        M5	1	09	A3	release
551.056	n/a	RESPONSE	        M5	1	09	A3	press
551.125	n/a	RESPONSE	        M5	1	00	C3	release
551.507	n/a	RESPONSE	        M5	1	09	A3	release
551.525	n/a	RESPONSE	        M5	1	21	A4	release
556.809	6.317	CUE_LISTEN	        M5	2	n/a	n/a	n/a
562.023	n/a	RESPONSE	        M5	2	04	E3	press
562.04	n/a	RESPONSE	        M5	2	22	A#4	press
562.326	n/a	RESPONSE	        M5	2	22	A#4	release
562.755	n/a	RESPONSE	        M5	2	04	E3	release
562.993	n/a	RESPONSE	        M5	2	04	E3	press
563.003	n/a	RESPONSE	        M5	2	22	A#4	press
563.126	7.758	FIXCROSS	n/a	n/a	n/a	n/a	n/a
563.257	n/a	RESPONSE	        M5	2	22	A#4	release
563.353	n/a	RESPONSE	        M5	2	04	E3	release
563.468	n/a	RESPONSE	        M5	2	08	G#3	press
563.471	n/a	RESPONSE	        M5	2	22	A#4	press
563.771	n/a	RESPONSE	        M5	2	22	A#4	release
564.001	n/a	RESPONSE	        M5	2	08	G#3	release
564.748	n/a	RESPONSE	        M5	2	22	A#4	press
564.778	n/a	RESPONSE	        M5	2	05	F3	press
565.027	n/a	RESPONSE	        M5	2	05	F3	release
565.038	n/a	RESPONSE	        M5	2	22	A#4	release
565.27	n/a	RESPONSE	        M5	2	22	A#4	press
565.282	n/a	RESPONSE	        M5	2	08	G#3	press
565.552	n/a	RESPONSE	        M5	2	22	A#4	release
565.595	n/a	RESPONSE	        M5	2	08	G#3	release
565.755	n/a	RESPONSE	        M5	2	04	E3	press
565.766	n/a	RESPONSE	        M5	2	22	A#4	press
566.037	n/a	RESPONSE	        M5	2	22	A#4	release
566.268	n/a	RESPONSE	        M5	2	22	A#4	press
566.28	n/a	RESPONSE	        M5	2	08	G#3	press
566.531	n/a	RESPONSE	        M5	2	04	E3	release
566.575	n/a	RESPONSE	        M5	2	22	A#4	release
566.663	n/a	RESPONSE	        M5	2	08	G#3	release
569.606	n/a	RESPONSE	        M5	2	07	G3	press
569.608	n/a	RESPONSE	        M5	2	22	A#4	press
569.881	n/a	RESPONSE	        M5	2	22	A#4	release
570.04	n/a	RESPONSE	        M5	2	22	A#4	press
570.331	n/a	RESPONSE	        M5	2	22	A#4	release
570.502	n/a	RESPONSE	        M5	2	10	A#3	press
570.505	n/a	RESPONSE	        M5	2	22	A#4	press
570.755	n/a	RESPONSE	        M5	2	07	G3	release
570.786	n/a	RESPONSE	        M5	2	22	A#4	release
570.857	n/a	RESPONSE	        M5	2	10	A#3	release
570.884	6.317	CUE_PLAYBACK_BOTH_HANDS	        M5	2	n/a	n/a	n/a
571.438	n/a	RESPONSE	        M5	2	22	A#4	press
571.441	n/a	RESPONSE	        M5	2	07	G3	press
571.74	n/a	RESPONSE	        M5	2	22	A#4	release
571.812	n/a	RESPONSE	        M5	2	07	G3	release
571.943	n/a	RESPONSE	        M5	2	22	A#4	press
571.948	n/a	RESPONSE	        M5	2	10	A#3	press
572.231	n/a	RESPONSE	        M5	2	22	A#4	release
572.343	n/a	RESPONSE	        M5	2	10	A#3	release
572.415	n/a	RESPONSE	        M5	2	22	A#4	press
572.475	n/a	RESPONSE	        M5	2	05	F3	press
572.753	n/a	RESPONSE	        M5	2	22	A#4	release
572.801	n/a	RESPONSE	        M5	2	05	F3	release
572.932	n/a	RESPONSE	        M5	2	22	A#4	press
572.938	n/a	RESPONSE	        M5	2	10	A#3	press
573.178	n/a	RESPONSE	        M5	2	22	A#4	release
573.181	n/a	RESPONSE	        M5	2	10	A#3	release
573.41	n/a	RESPONSE	        M5	2	22	A#4	press
573.412	n/a	RESPONSE	        M5	2	05	F3	press
573.641	n/a	RESPONSE	        M5	2	22	A#4	release
573.9	n/a	RESPONSE	        M5	2	21	A4	press
573.91	n/a	RESPONSE	        M5	2	09	A3	press
574.171	n/a	RESPONSE	        M5	2	05	F3	release
574.2	n/a	RESPONSE	        M5	2	21	A4	release
574.236	n/a	RESPONSE	        M5	2	09	A3	release
574.351	n/a	RESPONSE	        M5	2	00	C3	press
574.353	n/a	RESPONSE	        M5	2	21	A4	press
574.711	n/a	RESPONSE	        M5	2	21	A4	release
574.766	n/a	RESPONSE	        M5	2	00	C3	release
574.84	n/a	RESPONSE	        M5	2	09	A3	press
574.861	n/a	RESPONSE	        M5	2	21	A4	press
575.165	n/a	RESPONSE	        M5	2	09	A3	release
575.213	n/a	RESPONSE	        M5	2	21	A4	release
575.325	n/a	RESPONSE	        M5	2	00	C3	press
575.346	n/a	RESPONSE	        M5	2	24	C5	press
575.667	n/a	RESPONSE	        M5	2	24	C5	release
575.708	n/a	RESPONSE	        M5	2	00	C3	release
575.83	n/a	RESPONSE	        M5	2	24	C5	press
575.841	n/a	RESPONSE	        M5	2	07	G3	press
576.352	n/a	RESPONSE	        M5	2	22	A#4	press
576.355	n/a	RESPONSE	        M5	2	04	E3	press
576.415	n/a	RESPONSE	        M5	2	07	G3	release
576.816	n/a	RESPONSE	        M5	2	07	G3	press
576.827	n/a	RESPONSE	        M5	2	19	G4	press
576.838	n/a	RESPONSE	        M5	2	21	A4	press
577.18	n/a	RESPONSE	        M5	2	21	A4	release
577.201	n/a	RESPONSE	        M5	2	04	E3	release
577.201	7.758	FIXCROSS	n/a	n/a	n/a	n/a	n/a
577.203	n/a	RESPONSE	        M5	2	19	G4	release
577.403	n/a	RESPONSE	        M5	2	04	E3	press
577.406	n/a	RESPONSE	        M5	2	21	A4	press
577.408	n/a	RESPONSE	        M5	2	07	G3	release
577.517	n/a	RESPONSE	        M5	2	24	C5	release
577.868	n/a	RESPONSE	        M5	2	07	G3	press
577.95	n/a	RESPONSE	        M5	2	17	F4	press
577.952	n/a	RESPONSE	        M5	2	19	G4	press
578.002	n/a	RESPONSE	        M5	2	21	A4	release
578.005	n/a	RESPONSE	        M5	2	04	E3	release
578.405	n/a	RESPONSE	        M5	2	19	G4	release
578.486	n/a	RESPONSE	        M5	2	17	F4	release
578.637	n/a	RESPONSE	        M5	2	07	G3	release
578.838	n/a	RESPONSE	        M5	2	17	F4	press
578.93	n/a	RESPONSE	        M5	2	04	E3	press
579.122	n/a	RESPONSE	        M5	2	04	E3	release
579.153	n/a	RESPONSE	        M5	2	17	F4	release
579.163	n/a	RESPONSE	        M5	2	22	A#4	release
580.805	n/a	RESPONSE	        M5	2	17	F4	press
580.846	n/a	RESPONSE	        M5	2	05	F3	press
581.272	n/a	RESPONSE	        M5	2	05	F3	release
581.317	n/a	RESPONSE	        M5	2	17	F4	release
584.959	6.325	CUE_LISTEN	        M1	1	n/a	n/a	n/a
588.421	n/a	RESPONSE	        M1	1	00	C3	press
588.882	n/a	RESPONSE	        M1	1	00	C3	release
589.053	n/a	RESPONSE	        M1	1	00	C3	press
589.735	n/a	RESPONSE	        M1	1	00	C3	release
589.886	n/a	RESPONSE	        M1	1	00	C3	press
590.187	n/a	RESPONSE	        M1	1	09	A3	press
590.518	n/a	RESPONSE	        M1	1	05	F3	press
590.6	n/a	RESPONSE	        M1	1	09	A3	release
590.761	n/a	RESPONSE	        M1	1	05	F3	release
590.815	n/a	RESPONSE	        M1	1	00	C3	release
591.284	7.758	FIXCROSS	n/a	n/a	n/a	n/a	n/a
591.558	n/a	RESPONSE	        M1	1	00	C3	press
591.923	n/a	RESPONSE	        M1	1	07	G3	press
592.32	n/a	RESPONSE	        M1	1	04	E3	press
592.398	n/a	RESPONSE	        M1	1	07	G3	release
592.647	n/a	RESPONSE	        M1	1	00	C3	release
592.665	n/a	RESPONSE	        M1	1	07	G3	press
592.698	n/a	RESPONSE	        M1	1	04	E3	release
593.016	n/a	RESPONSE	        M1	1	07	G3	release
594.63	n/a	RESPONSE	        M1	1	19	G4	press
595.003	n/a	RESPONSE	        M1	1	19	G4	release
599.043	6.317	CUE_PLAYBACK_BOTH_HANDS	        M1	1	n/a	n/a	n/a
600.358	n/a	RESPONSE	        M1	1	19	G4	press
600.378	n/a	RESPONSE	        M1	1	07	G3	press
600.381	n/a	RESPONSE	        M1	1	00	C3	press
600.384	n/a	RESPONSE	        M1	1	04	E3	press
600.862	n/a	RESPONSE	        M1	1	16	E4	press
601.163	n/a	RESPONSE	        M1	1	19	G4	release
601.223	n/a	RESPONSE	        M1	1	16	E4	release
601.381	n/a	RESPONSE	        M1	1	16	E4	press
601.673	n/a	RESPONSE	        M1	1	00	C3	release
601.762	n/a	RESPONSE	        M1	1	04	E3	release
601.848	n/a	RESPONSE	        M1	1	16	E4	release
601.898	n/a	RESPONSE	        M1	1	17	F4	press
601.902	n/a	RESPONSE	        M1	1	02	D3	press
601.926	n/a	RESPONSE	        M1	1	05	F3	press
602.417	n/a	RESPONSE	        M1	1	14	D4	press
602.651	n/a	RESPONSE	        M1	1	17	F4	release
602.72	n/a	RESPONSE	        M1	1	14	D4	release
602.92	n/a	RESPONSE	        M1	1	14	D4	press
603.185	n/a	RESPONSE	        M1	1	05	F3	release
603.192	n/a	RESPONSE	        M1	1	14	D4	release
603.21	n/a	RESPONSE	        M1	1	02	D3	release
603.398	n/a	RESPONSE	        M1	1	04	E3	press
603.401	n/a	RESPONSE	        M1	1	12	C4	press
603.442	n/a	RESPONSE	        M1	1	00	C3	press
603.603	n/a	RESPONSE	        M1	1	16	E4	press
603.738	n/a	RESPONSE	        M1	1	12	C4	release
603.856	n/a	RESPONSE	        M1	1	19	G4	press
603.915	n/a	RESPONSE	        M1	1	16	E4	release
604.416	n/a	RESPONSE	        M1	1	19	G4	release
604.441	n/a	RESPONSE	        M1	1	00	C3	release
604.516	n/a	RESPONSE	        M1	1	04	E3	release
604.57	n/a	RESPONSE	        M1	1	07	G3	release
605.359	7.758	FIXCROSS	n/a	n/a	n/a	n/a	n/a
613.118	6.317	CUE_LISTEN	        M1	2	n/a	n/a	n/a
619.434	7.759	FIXCROSS	n/a	n/a	n/a	n/a	n/a
627.193	6.325	CUE_PLAYBACK_BOTH_HANDS	        M1	2	n/a	n/a	n/a
627.938	n/a	RESPONSE	        M1	2	19	G4	press
627.941	n/a	RESPONSE	        M1	2	07	G3	press
627.943	n/a	RESPONSE	        M1	2	00	C3	press
627.952	n/a	RESPONSE	        M1	2	04	E3	press
628.453	n/a	RESPONSE	        M1	2	16	E4	press
628.805	n/a	RESPONSE	        M1	2	19	G4	release
628.827	n/a	RESPONSE	        M1	2	16	E4	release
628.997	n/a	RESPONSE	        M1	2	16	E4	press
629.25	n/a	RESPONSE	        M1	2	00	C3	release
629.401	n/a	RESPONSE	        M1	2	04	E3	release
629.441	n/a	RESPONSE	        M1	2	16	E4	release
629.533	n/a	RESPONSE	        M1	2	02	D3	press
629.536	n/a	RESPONSE	        M1	2	17	F4	press
629.547	n/a	RESPONSE	        M1	2	05	F3	press
630.057	n/a	RESPONSE	        M1	2	14	D4	press
630.257	n/a	RESPONSE	        M1	2	17	F4	release
630.418	n/a	RESPONSE	        M1	2	14	D4	release
630.62	n/a	RESPONSE	        M1	2	14	D4	press
630.901	n/a	RESPONSE	        M1	2	05	F3	release
630.905	n/a	RESPONSE	        M1	2	14	D4	release
630.953	n/a	RESPONSE	        M1	2	02	D3	release
631.125	n/a	RESPONSE	        M1	2	04	E3	press
631.156	n/a	RESPONSE	        M1	2	12	C4	press
631.168	n/a	RESPONSE	        M1	2	00	C3	press
631.415	n/a	RESPONSE	        M1	2	16	E4	press
631.503	n/a	RESPONSE	        M1	2	12	C4	release
631.706	n/a	RESPONSE	        M1	2	12	C4	press
631.735	n/a	RESPONSE	        M1	2	16	E4	release
632.833	n/a	RESPONSE	        M1	2	00	C3	release
632.946	n/a	RESPONSE	        M1	2	12	C4	release
633.155	n/a	RESPONSE	        M1	2	07	G3	release
633.215	n/a	RESPONSE	        M1	2	04	E3	release
633.518	7.758	FIXCROSS	n/a	n/a	n/a	n/a	n/a
641.276	6.317	CUE_LISTEN	        M7	1	n/a	n/a	n/a
647.402	n/a	RESPONSE	        M7	1	07	G3	press
647.473	n/a	RESPONSE	        M7	1	22	A#4	press
647.593	7.759	FIXCROSS	n/a	n/a	n/a	n/a	n/a
647.812	n/a	RESPONSE	        M7	1	22	A#4	release
648.123	n/a	RESPONSE	        M7	1	07	G3	release
655.351	6.317	CUE_PLAYBACK_RIGHT_HAND	        M7	1	n/a	n/a	n/a
656.19	n/a	RESPONSE	        M7	1	22	A#4	press
656.731	n/a	RESPONSE	        M7	1	21	A4	press
657.232	n/a	RESPONSE	        M7	1	22	A#4	release
657.273	n/a	RESPONSE	        M7	1	19	G4	press
657.697	n/a	RESPONSE	        M7	1	19	G4	release
657.706	n/a	RESPONSE	        M7	1	21	A4	release
657.877	n/a	RESPONSE	        M7	1	19	G4	press
658.418	n/a	RESPONSE	        M7	1	23	B4	press
658.421	n/a	RESPONSE	        M7	1	19	G4	release
658.451	n/a	RESPONSE	        M7	1	24	C5	press
658.533	n/a	RESPONSE	        M7	1	24	C5	release
659.003	n/a	RESPONSE	        M7	1	14	D4	press
659.105	n/a	RESPONSE	        M7	1	23	B4	release
659.786	n/a	RESPONSE	        M7	1	14	D4	release
659.978	n/a	RESPONSE	        M7	1	14	D4	press
660.261	n/a	RESPONSE	        M7	1	17	F4	press
660.5	n/a	RESPONSE	        M7	1	14	D4	release
660.511	n/a	RESPONSE	        M7	1	18	F#4	press
660.712	n/a	RESPONSE	        M7	1	17	F4	release
660.823	n/a	RESPONSE	        M7	1	19	G4	press
661.035	n/a	RESPONSE	        M7	1	21	A4	press
661.056	n/a	RESPONSE	        M7	1	18	F#4	release
661.108	n/a	RESPONSE	        M7	1	19	G4	release
661.518	n/a	RESPONSE	        M7	1	21	A4	release
661.668	7.758	FIXCROSS	n/a	n/a	n/a	n/a	n/a
669.426	6.325	CUE_LISTEN	        M7	2	n/a	n/a	n/a
675.751	7.758	FIXCROSS	n/a	n/a	n/a	n/a	n/a
676.246	n/a	RESPONSE	        M7	2	11	B3	press
676.278	n/a	RESPONSE	        M7	2	12	C4	press
676.56	n/a	RESPONSE	        M7	2	12	C4	release
676.568	n/a	RESPONSE	        M7	2	11	B3	release
676.982	n/a	RESPONSE	        M7	2	14	D4	press
677.001	n/a	RESPONSE	        M7	2	11	B3	press
677.452	n/a	RESPONSE	        M7	2	11	B3	release
677.606	n/a	RESPONSE	        M7	2	14	D4	release
678.615	n/a	RESPONSE	        M7	2	11	B3	press
678.627	n/a	RESPONSE	        M7	2	17	F4	press
678.63	n/a	RESPONSE	        M7	2	14	D4	press
679.18	n/a	RESPONSE	        M7	2	19	G4	press
679.213	n/a	RESPONSE	        M7	2	17	F4	release
679.552	n/a	RESPONSE	        M7	2	19	G4	release
679.623	n/a	RESPONSE	        M7	2	11	B3	release
680.145	n/a	RESPONSE	        M7	2	14	D4	release
683.51	6.317	CUE_PLAYBACK_RIGHT_HAND	        M7	2	n/a	n/a	n/a
684.807	n/a	RESPONSE	        M7	2	17	F4	press
685.262	n/a	RESPONSE	        M7	2	19	G4	press
685.333	n/a	RESPONSE	        M7	2	17	F4	release
685.505	n/a	RESPONSE	        M7	2	17	F4	press
685.767	n/a	RESPONSE	        M7	2	16	E4	press
685.77	n/a	RESPONSE	        M7	2	19	G4	release
685.978	n/a	RESPONSE	        M7	2	16	E4	release
686.07	n/a	RESPONSE	        M7	2	17	F4	release
686.291	n/a	RESPONSE	        M7	2	17	F4	press
686.702	n/a	RESPONSE	        M7	2	19	G4	press
686.743	n/a	RESPONSE	        M7	2	17	F4	release
686.897	n/a	RESPONSE	        M7	2	17	F4	press
687.207	n/a	RESPONSE	        M7	2	15	D#4	press
687.417	n/a	RESPONSE	        M7	2	14	D4	press
687.471	n/a	RESPONSE	        M7	2	17	F4	release
687.49	n/a	RESPONSE	        M7	2	15	D#4	release
687.571	n/a	RESPONSE	        M7	2	19	G4	release
687.682	n/a	RESPONSE	        M7	2	12	C4	press
687.735	n/a	RESPONSE	        M7	2	14	D4	release
688.147	n/a	RESPONSE	        M7	2	12	C4	release
688.797	n/a	RESPONSE	        M7	2	17	F4	press
689.207	n/a	RESPONSE	        M7	2	19	G4	press
689.258	n/a	RESPONSE	        M7	2	17	F4	release
689.41	n/a	RESPONSE	        M7	2	17	F4	press
689.671	n/a	RESPONSE	        M7	2	15	D#4	press
689.826	7.758	FIXCROSS	n/a	n/a	n/a	n/a	n/a
689.852	n/a	RESPONSE	        M7	2	14	D4	press
689.903	n/a	RESPONSE	        M7	2	17	F4	release
689.915	n/a	RESPONSE	        M7	2	15	D#4	release
690.096	n/a	RESPONSE	        M7	2	19	G4	release
690.107	n/a	RESPONSE	        M7	2	15	D#4	press
690.178	n/a	RESPONSE	        M7	2	14	D4	release
690.532	n/a	RESPONSE	        M7	2	17	F4	press
690.553	n/a	RESPONSE	        M7	2	15	D#4	release
690.712	n/a	RESPONSE	        M7	2	15	D#4	press
690.913	n/a	RESPONSE	        M7	2	14	D4	press
690.956	n/a	RESPONSE	        M7	2	17	F4	release
691.148	n/a	RESPONSE	        M7	2	12	C4	press
691.19	n/a	RESPONSE	        M7	2	14	D4	release
691.242	n/a	RESPONSE	        M7	2	15	D#4	release
691.355	n/a	RESPONSE	        M7	2	14	D4	press
691.438	n/a	RESPONSE	        M7	2	12	C4	release
691.97	n/a	RESPONSE	        M7	2	19	G4	press
692.015	n/a	RESPONSE	        M7	2	14	D4	release
692.586	n/a	RESPONSE	        M7	2	14	D4	press
692.618	n/a	RESPONSE	        M7	2	19	G4	release
692.621	n/a	RESPONSE	        M7	2	12	C4	press
692.858	n/a	RESPONSE	        M7	2	12	C4	release
693.182	n/a	RESPONSE	        M7	2	14	D4	release
693.637	n/a	RESPONSE	        M7	2	10	A#3	press
694.2	n/a	RESPONSE	        M7	2	10	A#3	release
697.585	6.325	CUE_LISTEN	        M4	1	n/a	n/a	n/a
702.576	n/a	RESPONSE	        M4	1	04	E3	press
703.022	n/a	RESPONSE	        M4	1	04	E3	release
703.317	n/a	RESPONSE	        M4	1	04	E3	press
703.478	n/a	RESPONSE	        M4	1	04	E3	release
703.91	7.758	FIXCROSS	n/a	n/a	n/a	n/a	n/a
704.341	n/a	RESPONSE	        M4	1	11	B3	press
704.877	n/a	RESPONSE	        M4	1	11	B3	release
707.28	n/a	RESPONSE	        M4	1	12	C4	press
707.621	n/a	RESPONSE	        M4	1	16	E4	press
707.742	n/a	RESPONSE	        M4	1	12	C4	release
707.913	n/a	RESPONSE	        M4	1	19	G4	press
707.975	n/a	RESPONSE	        M4	1	16	E4	release
708.196	n/a	RESPONSE	        M4	1	19	G4	release
708.627	n/a	RESPONSE	        M4	1	12	C4	press
710.028	n/a	RESPONSE	        M4	1	07	G3	press
710.77	n/a	RESPONSE	        M4	1	04	E3	press
711.101	n/a	RESPONSE	        M4	1	04	E3	release
711.115	n/a	RESPONSE	        M4	1	07	G3	release
711.445	n/a	RESPONSE	        M4	1	04	E3	press
711.447	n/a	RESPONSE	        M4	1	07	G3	press
711.668	6.317	CUE_PLAYBACK_RIGHT_HAND	        M4	1	n/a	n/a	n/a
711.962	n/a	RESPONSE	        M4	1	04	E3	release
711.987	n/a	RESPONSE	        M4	1	07	G3	release
712.083	n/a	RESPONSE	        M4	1	12	C4	release
712.476	n/a	RESPONSE	        M4	1	12	C4	press
712.816	n/a	RESPONSE	        M4	1	16	E4	press
712.961	n/a	RESPONSE	        M4	1	12	C4	release
713.144	n/a	RESPONSE	        M4	1	19	G4	press
713.201	n/a	RESPONSE	        M4	1	16	E4	release
713.45	n/a	RESPONSE	        M4	1	17	F4	press
713.784	n/a	RESPONSE	        M4	1	16	E4	press
714.056	n/a	RESPONSE	        M4	1	17	F4	release
714.084	n/a	RESPONSE	        M4	1	14	D4	press
714.161	n/a	RESPONSE	        M4	1	16	E4	release
714.203	n/a	RESPONSE	        M4	1	19	G4	release
714.427	n/a	RESPONSE	        M4	1	16	E4	press
714.458	n/a	RESPONSE	        M4	1	14	D4	release
714.93	n/a	RESPONSE	        M4	1	16	E4	release
715.221	n/a	RESPONSE	        M4	1	11	B3	press
715.655	n/a	RESPONSE	        M4	1	11	B3	release
715.833	n/a	RESPONSE	        M4	1	12	C4	press
716.095	n/a	RESPONSE	        M4	1	16	E4	press
716.217	n/a	RESPONSE	        M4	1	12	C4	release
716.377	n/a	RESPONSE	        M4	1	19	G4	press
716.431	n/a	RESPONSE	        M4	1	16	E4	release
716.65	n/a	RESPONSE	        M4	1	17	F4	press
716.901	n/a	RESPONSE	        M4	1	16	E4	press
717.102	n/a	RESPONSE	        M4	1	17	F4	release
717.163	n/a	RESPONSE	        M4	1	14	D4	press
717.205	n/a	RESPONSE	        M4	1	19	G4	release
717.238	n/a	RESPONSE	        M4	1	16	E4	release
717.497	n/a	RESPONSE	        M4	1	16	E4	press
717.518	n/a	RESPONSE	        M4	1	14	D4	release
717.985	7.758	FIXCROSS	n/a	n/a	n/a	n/a	n/a
718.552	n/a	RESPONSE	        M4	1	16	E4	release
725.743	6.317	CUE_LISTEN	        M4	2	n/a	n/a	n/a
728.623	n/a	RESPONSE	        M4	2	11	B3	press
728.944	n/a	RESPONSE	        M4	2	16	E4	press
729.103	n/a	RESPONSE	        M4	2	11	B3	release
729.217	n/a	RESPONSE	        M4	2	16	E4	release
729.736	n/a	RESPONSE	        M4	2	12	C4	press
730.117	n/a	RESPONSE	        M4	2	12	C4	release
731.882	n/a	RESPONSE	        M4	2	11	B3	press
732.06	7.758	FIXCROSS	n/a	n/a	n/a	n/a	n/a
732.37	n/a	RESPONSE	        M4	2	16	E4	press
732.796	n/a	RESPONSE	        M4	2	11	B3	release
732.81	n/a	RESPONSE	        M4	2	19	G4	press
732.865	n/a	RESPONSE	        M4	2	16	E4	release
733.152	n/a	RESPONSE	        M4	2	17	F4	press
733.44	n/a	RESPONSE	        M4	2	16	E4	press
733.594	n/a	RESPONSE	        M4	2	17	F4	release
733.748	n/a	RESPONSE	        M4	2	14	D4	press
733.751	n/a	RESPONSE	        M4	2	19	G4	release
733.817	n/a	RESPONSE	        M4	2	16	E4	release
734.061	n/a	RESPONSE	        M4	2	16	E4	press
734.095	n/a	RESPONSE	        M4	2	14	D4	release
734.411	n/a	RESPONSE	        M4	2	16	E4	release
734.853	n/a	RESPONSE	        M4	2	11	B3	press
735.425	n/a	RESPONSE	        M4	2	07	G3	press
735.784	n/a	RESPONSE	        M4	2	11	B3	release
736.055	n/a	RESPONSE	        M4	2	04	E3	press
736.086	n/a	RESPONSE	        M4	2	11	B3	press
736.457	n/a	RESPONSE	        M4	2	04	E3	release
736.47	n/a	RESPONSE	        M4	2	07	G3	release
736.51	n/a	RESPONSE	        M4	2	11	B3	release
736.701	n/a	RESPONSE	        M4	2	07	G3	press
736.712	n/a	RESPONSE	        M4	2	04	E3	press
736.715	n/a	RESPONSE	        M4	2	11	B3	press
737.164	n/a	RESPONSE	        M4	2	04	E3	release
737.177	n/a	RESPONSE	        M4	2	07	G3	release
737.237	n/a	RESPONSE	        M4	2	11	B3	release
739.818	6.317	CUE_PLAYBACK_RIGHT_HAND	        M4	2	n/a	n/a	n/a
740.74	n/a	RESPONSE	        M4	2	11	B3	press
741.141	n/a	RESPONSE	        M4	2	16	E4	press
741.241	n/a	RESPONSE	        M4	2	11	B3	release
741.631	n/a	RESPONSE	        M4	2	19	G4	press
741.901	n/a	RESPONSE	        M4	2	16	E4	release
742.142	n/a	RESPONSE	        M4	2	21	A4	press
742.254	n/a	RESPONSE	        M4	2	19	G4	release
742.416	n/a	RESPONSE	        M4	2	21	A4	release
743.223	n/a	RESPONSE	        M4	2	22	A#4	press
743.596	n/a	RESPONSE	        M4	2	21	A4	press
743.807	n/a	RESPONSE	        M4	2	22	A#4	release
743.841	n/a	RESPONSE	        M4	2	21	A4	release
744.096	n/a	RESPONSE	        M4	2	21	A4	press
744.44	n/a	RESPONSE	        M4	2	19	G4	press
744.718	n/a	RESPONSE	        M4	2	17	F4	press
744.913	n/a	RESPONSE	        M4	2	21	A4	release
745.067	n/a	RESPONSE	        M4	2	19	G4	release
745.106	n/a	RESPONSE	        M4	2	17	F4	release
745.707	n/a	RESPONSE	        M4	2	11	B3	press
746.058	n/a	RESPONSE	        M4	2	16	E4	press
746.135	7.758	FIXCROSS	n/a	n/a	n/a	n/a	n/a
746.282	n/a	RESPONSE	        M4	2	11	B3	release
746.401	n/a	RESPONSE	        M4	2	19	G4	press
746.472	n/a	RESPONSE	        M4	2	16	E4	release
746.683	n/a	RESPONSE	        M4	2	19	G4	release
747.064	n/a	RESPONSE	        M4	2	22	A#4	press
747.437	n/a	RESPONSE	        M4	2	21	A4	press
747.808	n/a	RESPONSE	        M4	2	19	G4	press
747.928	n/a	RESPONSE	        M4	2	22	A#4	release
748.232	n/a	RESPONSE	        M4	2	17	F4	press
748.331	n/a	RESPONSE	        M4	2	21	A4	release
748.465	n/a	RESPONSE	        M4	2	19	G4	release
749.033	n/a	RESPONSE	        M4	2	17	F4	release
753.893	6.325	CUE_LISTEN	        M2	1	n/a	n/a	n/a
755.923	n/a	RESPONSE	        M2	1	00	C3	press
756.614	n/a	RESPONSE	        M2	1	00	C3	release
756.806	n/a	RESPONSE	        M2	1	00	C3	press
757.15	n/a	RESPONSE	        M2	1	09	A3	press
757.558	n/a	RESPONSE	        M2	1	09	A3	release
757.59	n/a	RESPONSE	        M2	1	04	E3	press
757.793	n/a	RESPONSE	        M2	1	00	C3	release
757.832	n/a	RESPONSE	        M2	1	04	E3	release
758.056	n/a	RESPONSE	        M2	1	00	C3	press
758.544	n/a	RESPONSE	        M2	1	07	G3	press
758.997	n/a	RESPONSE	        M2	1	00	C3	release
759.007	n/a	RESPONSE	        M2	1	07	G3	release
759.418	n/a	RESPONSE	        M2	1	00	C3	press
759.79	n/a	RESPONSE	        M2	1	07	G3	press
760.101	n/a	RESPONSE	        M2	1	04	E3	press
760.172	n/a	RESPONSE	        M2	1	07	G3	release
760.218	7.758	FIXCROSS	n/a	n/a	n/a	n/a	n/a
760.363	n/a	RESPONSE	        M2	1	00	C3	release
760.487	n/a	RESPONSE	        M2	1	04	E3	release
761.677	n/a	RESPONSE	        M2	1	24	C5	press
761.724	n/a	RESPONSE	        M2	1	00	C3	press
761.731	n/a	RESPONSE	        M2	1	04	E3	press
761.734	n/a	RESPONSE	        M2	1	07	G3	press
762.083	n/a	RESPONSE	        M2	1	00	C3	release
762.09	n/a	RESPONSE	        M2	1	04	E3	release
762.174	n/a	RESPONSE	        M2	1	07	G3	release
762.192	n/a	RESPONSE	        M2	1	24	C5	release
762.666	n/a	RESPONSE	        M2	1	24	C5	press
762.736	n/a	RESPONSE	        M2	1	19	G4	press
763.082	n/a	RESPONSE	        M2	1	24	C5	release
763.092	n/a	RESPONSE	        M2	1	19	G4	release
767.976	6.317	CUE_PLAYBACK_BOTH_HANDS	        M2	1	n/a	n/a	n/a
768.488	n/a	RESPONSE	        M2	1	24	C5	press
768.52	n/a	RESPONSE	        M2	1	00	C3	press
768.522	n/a	RESPONSE	        M2	1	07	G3	press
768.524	n/a	RESPONSE	        M2	1	04	E3	press
769.163	n/a	RESPONSE	        M2	1	04	E3	release
769.174	n/a	RESPONSE	        M2	1	00	C3	release
769.187	n/a	RESPONSE	        M2	1	07	G3	release
769.44	n/a	RESPONSE	        M2	1	00	C3	press
769.448	n/a	RESPONSE	        M2	1	07	G3	press
769.451	n/a	RESPONSE	        M2	1	04	E3	press
769.841	n/a	RESPONSE	        M2	1	04	E3	release
769.942	n/a	RESPONSE	        M2	1	00	C3	release
769.953	n/a	RESPONSE	        M2	1	07	G3	release
770.054	n/a	RESPONSE	        M2	1	24	C5	release
770.226	n/a	RESPONSE	        M2	1	24	C5	press
770.228	n/a	RESPONSE	        M2	1	07	G3	press
770.238	n/a	RESPONSE	        M2	1	00	C3	press
770.71	n/a	RESPONSE	        M2	1	19	G4	press
770.852	n/a	RESPONSE	        M2	1	24	C5	release
771.102	n/a	RESPONSE	        M2	1	19	G4	release
771.113	n/a	RESPONSE	        M2	1	00	C3	release
771.144	n/a	RESPONSE	        M2	1	07	G3	release
771.224	n/a	RESPONSE	        M2	1	19	G4	press
771.243	n/a	RESPONSE	        M2	1	07	G3	press
771.25	n/a	RESPONSE	        M2	1	00	C3	press
771.673	n/a	RESPONSE	        M2	1	17	F4	press
771.891	n/a	RESPONSE	        M2	1	00	C3	release
771.918	n/a	RESPONSE	        M2	1	07	G3	release
772.11	n/a	RESPONSE	        M2	1	07	G3	press
772.124	n/a	RESPONSE	        M2	1	00	C3	press
772.136	n/a	RESPONSE	        M2	1	16	E4	press
772.182	n/a	RESPONSE	        M2	1	17	F4	release
772.185	n/a	RESPONSE	        M2	1	19	G4	release
772.531	n/a	RESPONSE	        M2	1	17	F4	press
772.612	n/a	RESPONSE	        M2	1	16	E4	release
772.658	n/a	RESPONSE	        M2	1	00	C3	release
772.741	n/a	RESPONSE	        M2	1	07	G3	release
772.97	n/a	RESPONSE	        M2	1	07	G3	press
772.983	n/a	RESPONSE	        M2	1	00	C3	press
772.986	n/a	RESPONSE	        M2	1	19	G4	press
773.082	n/a	RESPONSE	        M2	1	17	F4	release
773.582	n/a	RESPONSE	        M2	1	00	C3	release
773.622	n/a	RESPONSE	        M2	1	07	G3	release
773.66	n/a	RESPONSE	        M2	1	19	G4	release
773.887	n/a	RESPONSE	        M2	1	00	C3	press
773.89	n/a	RESPONSE	        M2	1	24	C5	press
773.892	n/a	RESPONSE	        M2	1	07	G3	press
774.292	n/a	RESPONSE	        M2	1	19	G4	press
774.293	7.758	FIXCROSS	n/a	n/a	n/a	n/a	n/a
774.392	n/a	RESPONSE	        M2	1	24	C5	release
774.547	n/a	RESPONSE	        M2	1	00	C3	release
774.56	n/a	RESPONSE	        M2	1	07	G3	release
774.584	n/a	RESPONSE	        M2	1	19	G4	release
774.728	n/a	RESPONSE	        M2	1	00	C3	press
774.731	n/a	RESPONSE	        M2	1	19	G4	press
774.733	n/a	RESPONSE	        M2	1	07	G3	press
775.107	n/a	RESPONSE	        M2	1	17	F4	press
775.256	n/a	RESPONSE	        M2	1	00	C3	release
775.267	n/a	RESPONSE	        M2	1	07	G3	release
775.488	n/a	RESPONSE	        M2	1	19	G4	release
775.512	n/a	RESPONSE	        M2	1	07	G3	press
775.522	n/a	RESPONSE	        M2	1	00	C3	press
775.534	n/a	RESPONSE	        M2	1	16	E4	press
775.593	n/a	RESPONSE	        M2	1	17	F4	release
775.914	n/a	RESPONSE	        M2	1	14	D4	press
776.096	n/a	RESPONSE	        M2	1	00	C3	release
776.098	n/a	RESPONSE	        M2	1	16	E4	release
776.121	n/a	RESPONSE	        M2	1	07	G3	release
776.3	n/a	RESPONSE	        M2	1	07	G3	press
776.311	n/a	RESPONSE	        M2	1	00	C3	press
776.323	n/a	RESPONSE	        M2	1	12	C4	press
776.833	n/a	RESPONSE	        M2	1	00	C3	release
776.836	n/a	RESPONSE	        M2	1	14	D4	release
776.886	n/a	RESPONSE	        M2	1	12	C4	release
776.917	n/a	RESPONSE	        M2	1	07	G3	release
782.052	6.325	CUE_LISTEN	        M2	2	n/a	n/a	n/a
788.376	7.758	FIXCROSS	n/a	n/a	n/a	n/a	n/a
796.135	6.317	CUE_PLAYBACK_BOTH_HANDS	        M2	2	n/a	n/a	n/a
796.772	n/a	RESPONSE	        M2	2	07	G3	press
796.775	n/a	RESPONSE	        M2	2	00	C3	press
796.783	n/a	RESPONSE	        M2	2	12	C4	press
797.164	n/a	RESPONSE	        M2	2	14	D4	press
797.236	n/a	RESPONSE	        M2	2	12	C4	release
797.447	n/a	RESPONSE	        M2	2	00	C3	release
797.508	n/a	RESPONSE	        M2	2	07	G3	release
797.54	n/a	RESPONSE	        M2	2	14	D4	release
797.601	n/a	RESPONSE	        M2	2	07	G3	press
797.603	n/a	RESPONSE	        M2	2	12	C4	press
797.606	n/a	RESPONSE	        M2	2	00	C3	press
797.946	n/a	RESPONSE	        M2	2	12	C4	release
797.956	n/a	RESPONSE	        M2	2	00	C3	release
797.958	n/a	RESPONSE	        M2	2	07	G3	release
798.128	n/a	RESPONSE	        M2	2	07	G3	press
798.14	n/a	RESPONSE	        M2	2	00	C3	press
798.142	n/a	RESPONSE	        M2	2	12	C4	press
798.483	n/a	RESPONSE	        M2	2	14	D4	press
798.543	n/a	RESPONSE	        M2	2	12	C4	release
798.714	n/a	RESPONSE	        M2	2	00	C3	release
798.766	n/a	RESPONSE	        M2	2	07	G3	release
798.89	n/a	RESPONSE	        M2	2	16	E4	press
798.898	n/a	RESPONSE	        M2	2	00	C3	press
798.901	n/a	RESPONSE	        M2	2	07	G3	press
798.911	n/a	RESPONSE	        M2	2	14	D4	release
799.212	n/a	RESPONSE	        M2	2	14	D4	press
799.323	n/a	RESPONSE	        M2	2	16	E4	release
799.354	n/a	RESPONSE	        M2	2	00	C3	release
799.386	n/a	RESPONSE	        M2	2	07	G3	release
799.59	n/a	RESPONSE	        M2	2	07	G3	press
799.598	n/a	RESPONSE	        M2	2	16	E4	press
799.601	n/a	RESPONSE	        M2	2	00	C3	press
799.652	n/a	RESPONSE	        M2	2	14	D4	release
799.934	n/a	RESPONSE	        M2	2	17	F4	press
800.143	n/a	RESPONSE	        M2	2	00	C3	release
800.154	n/a	RESPONSE	        M2	2	07	G3	release
800.326	n/a	RESPONSE	        M2	2	19	G4	press
800.328	n/a	RESPONSE	        M2	2	00	C3	press
800.331	n/a	RESPONSE	        M2	2	07	G3	press
800.34	n/a	RESPONSE	        M2	2	16	E4	release
800.391	n/a	RESPONSE	        M2	2	17	F4	release
800.842	n/a	RESPONSE	        M2	2	00	C3	release
800.844	n/a	RESPONSE	        M2	2	07	G3	release
800.854	n/a	RESPONSE	        M2	2	19	G4	release
801.066	n/a	RESPONSE	        M2	2	19	G4	press
801.068	n/a	RESPONSE	        M2	2	07	G3	press
801.071	n/a	RESPONSE	        M2	2	00	C3	press
801.506	n/a	RESPONSE	        M2	2	00	C3	release
801.534	n/a	RESPONSE	        M2	2	07	G3	release
801.562	n/a	RESPONSE	        M2	2	19	G4	release
801.902	n/a	RESPONSE	        M2	2	16	E4	press
801.904	n/a	RESPONSE	        M2	2	07	G3	press
801.91	n/a	RESPONSE	        M2	2	00	C3	press
802.18	n/a	RESPONSE	        M2	2	19	G4	press
802.262	n/a	RESPONSE	        M2	2	16	E4	release
802.354	n/a	RESPONSE	        M2	2	07	G3	release
802.357	n/a	RESPONSE	        M2	2	00	C3	release
802.407	n/a	RESPONSE	        M2	2	19	G4	release
802.452	7.758	FIXCROSS	n/a	n/a	n/a	n/a	n/a
802.532	n/a	RESPONSE	        M2	2	19	G4	press
802.534	n/a	RESPONSE	        M2	2	00	C3	press
802.537	n/a	RESPONSE	        M2	2	07	G3	press
802.804	n/a	RESPONSE	        M2	2	17	F4	press
803.06	n/a	RESPONSE	        M2	2	00	C3	release
803.068	n/a	RESPONSE	        M2	2	07	G3	release
803.202	n/a	RESPONSE	        M2	2	16	E4	press
803.221	n/a	RESPONSE	        M2	2	07	G3	press
803.223	n/a	RESPONSE	        M2	2	00	C3	press
803.251	n/a	RESPONSE	        M2	2	19	G4	release
803.492	n/a	RESPONSE	        M2	2	14	D4	press
803.502	n/a	RESPONSE	        M2	2	17	F4	release
803.64	n/a	RESPONSE	        M2	2	00	C3	release
803.661	n/a	RESPONSE	        M2	2	07	G3	release
803.812	n/a	RESPONSE	        M2	2	16	E4	release
803.857	n/a	RESPONSE	        M2	2	07	G3	press
803.87	n/a	RESPONSE	        M2	2	00	C3	press
803.886	n/a	RESPONSE	        M2	2	12	C4	press
803.892	n/a	RESPONSE	        M2	2	14	D4	release
804.446	n/a	RESPONSE	        M2	2	00	C3	release
804.463	n/a	RESPONSE	        M2	2	12	C4	release
804.473	n/a	RESPONSE	        M2	2	07	G3	release
810.21	6.317	CUE_LISTEN	        M8	1	n/a	n/a	n/a
812.847	n/a	RESPONSE	        M8	1	07	G3	press
813.257	n/a	RESPONSE	        M8	1	07	G3	release
813.568	n/a	RESPONSE	        M8	1	09	A3	press
813.982	n/a	RESPONSE	        M8	1	09	A3	release
814.176	n/a	RESPONSE	        M8	1	09	A3	press
814.502	n/a	RESPONSE	        M8	1	12	C4	press
814.757	n/a	RESPONSE	        M8	1	16	E4	press
814.942	n/a	RESPONSE	        M8	1	12	C4	release
814.954	n/a	RESPONSE	        M8	1	09	A3	release
814.964	n/a	RESPONSE	        M8	1	16	E4	release
815.356	n/a	RESPONSE	        M8	1	14	D4	press
815.557	n/a	RESPONSE	        M8	1	17	F4	press
815.748	n/a	RESPONSE	        M8	1	14	D4	release
815.8	n/a	RESPONSE	        M8	1	21	A4	press
815.941	n/a	RESPONSE	        M8	1	17	F4	release
816.022	n/a	RESPONSE	        M8	1	21	A4	release
816.353	n/a	RESPONSE	        M8	1	16	E4	press
816.527	7.758	FIXCROSS	n/a	n/a	n/a	n/a	n/a
816.574	n/a	RESPONSE	        M8	1	19	G4	press
816.586	n/a	RESPONSE	        M8	1	17	F4	press
816.847	n/a	RESPONSE	        M8	1	17	F4	release
816.868	n/a	RESPONSE	        M8	1	19	G4	release
816.872	n/a	RESPONSE	        M8	1	16	E4	release
817.152	n/a	RESPONSE	        M8	1	16	E4	press
817.362	n/a	RESPONSE	        M8	1	19	G4	press
817.533	n/a	RESPONSE	        M8	1	16	E4	release
817.594	n/a	RESPONSE	        M8	1	23	B4	press
817.676	n/a	RESPONSE	        M8	1	19	G4	release
817.807	n/a	RESPONSE	        M8	1	23	B4	release
818.05	n/a	RESPONSE	        M8	1	09	A3	press
818.28	n/a	RESPONSE	        M8	1	12	C4	press
818.491	n/a	RESPONSE	        M8	1	16	E4	press
818.682	n/a	RESPONSE	        M8	1	12	C4	release
818.703	n/a	RESPONSE	        M8	1	09	A3	release
818.757	n/a	RESPONSE	        M8	1	16	E4	release
819.006	n/a	RESPONSE	        M8	1	16	E4	press
819.227	n/a	RESPONSE	        M8	1	19	G4	press
819.36	n/a	RESPONSE	        M8	1	16	E4	release
819.45	n/a	RESPONSE	        M8	1	23	B4	press
819.591	n/a	RESPONSE	        M8	1	19	G4	release
819.732	n/a	RESPONSE	        M8	1	23	B4	release
824.285	6.325	CUE_PLAYBACK_BOTH_HANDS	        M8	1	n/a	n/a	n/a
824.757	n/a	RESPONSE	        M8	1	16	E4	press
824.996	n/a	RESPONSE	        M8	1	19	G4	press
825.234	n/a	RESPONSE	        M8	1	23	B4	press
825.237	n/a	RESPONSE	        M8	1	16	E4	release
825.377	n/a	RESPONSE	        M8	1	19	G4	release
825.508	n/a	RESPONSE	        M8	1	23	B4	release
825.709	n/a	RESPONSE	        M8	1	23	B4	press
825.791	n/a	RESPONSE	        M8	1	09	A3	press
826.162	n/a	RESPONSE	        M8	1	18	F#4	press
826.164	n/a	RESPONSE	        M8	1	12	C4	press
826.347	n/a	RESPONSE	        M8	1	23	B4	release
826.446	n/a	RESPONSE	        M8	1	16	E4	press
826.597	n/a	RESPONSE	        M8	1	19	G4	press
826.638	n/a	RESPONSE	        M8	1	21	A4	press
826.821	n/a	RESPONSE	        M8	1	09	A3	release
826.831	n/a	RESPONSE	        M8	1	12	C4	release
826.862	n/a	RESPONSE	        M8	1	21	A4	release
826.864	n/a	RESPONSE	        M8	1	18	F#4	release
826.894	n/a	RESPONSE	        M8	1	19	G4	release
826.926	n/a	RESPONSE	        M8	1	16	E4	release
827.107	n/a	RESPONSE	        M8	1	16	E4	press
827.121	n/a	RESPONSE	        M8	1	19	G4	press
827.15	n/a	RESPONSE	        M8	1	21	A4	press
827.571	n/a	RESPONSE	        M8	1	21	A4	release
827.652	n/a	RESPONSE	        M8	1	23	B4	press
827.654	n/a	RESPONSE	        M8	1	21	A4	press
827.657	n/a	RESPONSE	        M8	1	15	D#4	press
827.736	n/a	RESPONSE	        M8	1	19	G4	release
827.867	n/a	RESPONSE	        M8	1	19	G4	press
827.978	n/a	RESPONSE	        M8	1	23	B4	release
828.192	n/a	RESPONSE	        M8	1	19	G4	release
828.261	n/a	RESPONSE	        M8	1	11	B3	press
828.292	n/a	RESPONSE	        M8	1	16	E4	release
828.373	n/a	RESPONSE	        M8	1	19	G4	press
828.486	n/a	RESPONSE	        M8	1	15	D#4	release
828.546	n/a	RESPONSE	        M8	1	17	F4	press
828.758	n/a	RESPONSE	        M8	1	21	A4	release
828.808	n/a	RESPONSE	        M8	1	16	E4	press
828.92	n/a	RESPONSE	        M8	1	19	G4	release
829.081	n/a	RESPONSE	        M8	1	16	E4	release
829.592	n/a	RESPONSE	        M8	1	12	C4	press
829.683	n/a	RESPONSE	        M8	1	11	B3	release
829.714	n/a	RESPONSE	        M8	1	17	F4	release
829.967	n/a	RESPONSE	        M8	1	12	C4	release
830.027	n/a	RESPONSE	        M8	1	11	B3	press
830.038	n/a	RESPONSE	        M8	1	14	D4	press
830.43	n/a	RESPONSE	        M8	1	11	B3	release
830.511	n/a	RESPONSE	        M8	1	14	D4	release
830.61	7.758	FIXCROSS	n/a	n/a	n/a	n/a	n/a
830.613	n/a	RESPONSE	        M8	1	11	B3	press
830.616	n/a	RESPONSE	        M8	1	14	D4	press
831.124	n/a	RESPONSE	        M8	1	11	B3	release
831.217	n/a	RESPONSE	        M8	1	14	D4	release
831.492	n/a	RESPONSE	        M8	1	09	A3	press
831.764	n/a	RESPONSE	        M8	1	12	C4	press
831.991	n/a	RESPONSE	        M8	1	16	E4	press
832.176	n/a	RESPONSE	        M8	1	09	A3	release
832.194	n/a	RESPONSE	        M8	1	12	C4	release
832.197	n/a	RESPONSE	        M8	1	16	E4	release
833.604	n/a	RESPONSE	        M8	1	09	A3	press
833.914	n/a	RESPONSE	        M8	1	12	C4	press
834.117	n/a	RESPONSE	        M8	1	16	E4	press
834.347	n/a	RESPONSE	        M8	1	09	A3	release
834.352	n/a	RESPONSE	        M8	1	16	E4	release
834.362	n/a	RESPONSE	        M8	1	12	C4	release
834.746	n/a	RESPONSE	        M8	1	16	E4	press
834.997	n/a	RESPONSE	        M8	1	19	G4	press
835.156	n/a	RESPONSE	        M8	1	16	E4	release
835.307	n/a	RESPONSE	        M8	1	23	B4	press
835.388	n/a	RESPONSE	        M8	1	19	G4	release
835.612	n/a	RESPONSE	        M8	1	23	B4	release
838.368	6.317	CUE_LISTEN	        M8	2	n/a	n/a	n/a
844.685	7.758	FIXCROSS	n/a	n/a	n/a	n/a	n/a
847.616	n/a	RESPONSE	        M8	2	16	E4	press
847.917	n/a	RESPONSE	        M8	2	19	G4	press
847.998	n/a	RESPONSE	        M8	2	16	E4	release
848.16	n/a	RESPONSE	        M8	2	23	B4	press
848.191	n/a	RESPONSE	        M8	2	19	G4	release
848.462	n/a	RESPONSE	        M8	2	23	B4	release
852.443	6.317	CUE_PLAYBACK_BOTH_HANDS	        M8	2	n/a	n/a	n/a
852.847	n/a	RESPONSE	        M8	2	16	E4	press
853.094	n/a	RESPONSE	        M8	2	19	G4	press
853.311	n/a	RESPONSE	        M8	2	16	E4	release
853.359	n/a	RESPONSE	        M8	2	23	B4	press
853.489	n/a	RESPONSE	        M8	2	19	G4	release
853.703	n/a	RESPONSE	        M8	2	23	B4	release
853.848	n/a	RESPONSE	        M8	2	23	B4	press
854.312	n/a	RESPONSE	        M8	2	09	A3	press
854.341	n/a	RESPONSE	        M8	2	18	F#4	press
854.516	n/a	RESPONSE	        M8	2	23	B4	release
854.602	n/a	RESPONSE	        M8	2	12	C4	press
854.693	n/a	RESPONSE	        M8	2	14	D4	press
854.782	n/a	RESPONSE	        M8	2	14	D4	release
854.907	n/a	RESPONSE	        M8	2	21	A4	press
854.949	n/a	RESPONSE	        M8	2	16	E4	press
855.09	n/a	RESPONSE	        M8	2	18	F#4	release
855.153	n/a	RESPONSE	        M8	2	09	A3	release
855.162	n/a	RESPONSE	        M8	2	12	C4	release
855.273	n/a	RESPONSE	        M8	2	16	E4	release
855.297	n/a	RESPONSE	        M8	2	21	A4	release
855.486	n/a	RESPONSE	        M8	2	16	E4	press
855.488	n/a	RESPONSE	        M8	2	21	A4	press
856.048	n/a	RESPONSE	        M8	2	15	D#4	press
856.059	n/a	RESPONSE	        M8	2	23	B4	press
856.151	n/a	RESPONSE	        M8	2	21	A4	release
856.702	n/a	RESPONSE	        M8	2	11	B3	press
856.923	n/a	RESPONSE	        M8	2	16	E4	release
856.994	n/a	RESPONSE	        M8	2	21	A4	press
857.186	n/a	RESPONSE	        M8	2	15	D#4	release
857.237	n/a	RESPONSE	        M8	2	19	G4	press
857.278	n/a	RESPONSE	        M8	2	23	B4	release
857.532	n/a	RESPONSE	        M8	2	18	F#4	press
857.622	n/a	RESPONSE	        M8	2	21	A4	release
857.654	n/a	RESPONSE	        M8	2	19	G4	release
857.833	n/a	RESPONSE	        M8	2	19	G4	press
857.904	n/a	RESPONSE	        M8	2	18	F#4	release
858.276	n/a	RESPONSE	        M8	2	12	C4	press
858.327	n/a	RESPONSE	        M8	2	11	B3	release
858.76	7.758	FIXCROSS	n/a	n/a	n/a	n/a	n/a
858.828	n/a	RESPONSE	        M8	2	11	B3	press
858.839	n/a	RESPONSE	        M8	2	16	E4	press
858.911	n/a	RESPONSE	        M8	2	19	G4	release
859.412	n/a	RESPONSE	        M8	2	07	G3	press
859.503	n/a	RESPONSE	        M8	2	12	C4	release
859.514	n/a	RESPONSE	        M8	2	11	B3	release
860.077	n/a	RESPONSE	        M8	2	04	E3	press
860.148	n/a	RESPONSE	        M8	2	07	G3	release
861.407	n/a	RESPONSE	        M8	2	04	E3	release
862.03	n/a	RESPONSE	        M8	2	16	E4	release
866.518	6.325	CUE_LISTEN	        M6	1	n/a	n/a	n/a
870.051	n/a	RESPONSE	        M6	1	04	E3	press
870.482	n/a	RESPONSE	        M6	1	04	E3	release
872.843	7.758	FIXCROSS	n/a	n/a	n/a	n/a	n/a
874.73	n/a	RESPONSE	        M6	1	04	E3	press
874.736	n/a	RESPONSE	        M6	1	14	D4	press
875.091	n/a	RESPONSE	        M6	1	04	E3	release
875.242	n/a	RESPONSE	        M6	1	14	D4	release
875.492	n/a	RESPONSE	        M6	1	04	E3	press
875.513	n/a	RESPONSE	        M6	1	14	D4	press
875.894	n/a	RESPONSE	        M6	1	04	E3	release
876.366	n/a	RESPONSE	        M6	1	02	D3	press
876.697	n/a	RESPONSE	        M6	1	02	D3	release
876.758	n/a	RESPONSE	        M6	1	14	D4	release
876.93	n/a	RESPONSE	        M6	1	14	D4	press
876.932	n/a	RESPONSE	        M6	1	02	D3	press
877.254	n/a	RESPONSE	        M6	1	09	A3	press
877.473	n/a	RESPONSE	        M6	1	02	D3	release
877.627	n/a	RESPONSE	        M6	1	09	A3	release
877.916	n/a	RESPONSE	        M6	1	14	D4	release
878.517	n/a	RESPONSE	        M6	1	04	E3	press
878.519	n/a	RESPONSE	        M6	1	16	E4	press
879.089	n/a	RESPONSE	        M6	1	11	B3	press
879.452	n/a	RESPONSE	        M6	1	11	B3	release
879.462	n/a	RESPONSE	        M6	1	04	E3	release
880.602	6.317	CUE_PLAYBACK_RIGHT_HAND	        M6	1	n/a	n/a	n/a
880.893	n/a	RESPONSE	        M6	1	21	A4	press
881.116	n/a	RESPONSE	        M6	1	20	G#4	press
881.256	n/a	RESPONSE	        M6	1	21	A4	release
881.363	n/a	RESPONSE	        M6	1	20	G#4	release
881.418	n/a	RESPONSE	        M6	1	16	E4	release
882.94	n/a	RESPONSE	        M6	1	19	G4	press
883.219	n/a	RESPONSE	        M6	1	18	F#4	press
883.392	n/a	RESPONSE	        M6	1	19	G4	release
883.554	n/a	RESPONSE	        M6	1	19	G4	press
883.557	n/a	RESPONSE	        M6	1	18	F#4	release
884.206	n/a	RESPONSE	        M6	1	24	C5	press
884.589	n/a	RESPONSE	        M6	1	24	C5	release
884.716	n/a	RESPONSE	        M6	1	19	G4	release
885.012	n/a	RESPONSE	        M6	1	19	G4	press
885.273	n/a	RESPONSE	        M6	1	18	F#4	press
885.394	n/a	RESPONSE	        M6	1	18	F#4	release
885.466	n/a	RESPONSE	        M6	1	19	G4	release
885.777	n/a	RESPONSE	        M6	1	19	G4	press
885.998	n/a	RESPONSE	        M6	1	18	F#4	press
886.119	n/a	RESPONSE	        M6	1	19	G4	release
886.262	n/a	RESPONSE	        M6	1	19	G4	press
886.342	n/a	RESPONSE	        M6	1	18	F#4	release
886.693	n/a	RESPONSE	        M6	1	16	E4	press
886.918	7.758	FIXCROSS	n/a	n/a	n/a	n/a	n/a
886.924	n/a	RESPONSE	        M6	1	19	G4	release
887.136	n/a	RESPONSE	        M6	1	16	E4	release
887.329	n/a	RESPONSE	        M6	1	17	F4	press
887.869	n/a	RESPONSE	        M6	1	17	F4	release
889.302	n/a	RESPONSE	        M6	1	19	G4	press
889.611	n/a	RESPONSE	        M6	1	18	F#4	press
889.752	n/a	RESPONSE	        M6	1	19	G4	release
889.936	n/a	RESPONSE	        M6	1	18	F#4	release
890.394	n/a	RESPONSE	        M6	1	19	G4	press
890.686	n/a	RESPONSE	        M6	1	18	F#4	press
890.867	n/a	RESPONSE	        M6	1	19	G4	release
890.988	n/a	RESPONSE	        M6	1	19	G4	press
890.991	n/a	RESPONSE	        M6	1	18	F#4	release
891.833	n/a	RESPONSE	        M6	1	23	B4	press
892.054	n/a	RESPONSE	        M6	1	24	C5	press
892.129	n/a	RESPONSE	        M6	1	23	B4	release
892.313	n/a	RESPONSE	        M6	1	23	B4	press
892.352	n/a	RESPONSE	        M6	1	19	G4	release
892.471	n/a	RESPONSE	        M6	1	24	C5	release
892.944	n/a	RESPONSE	        M6	1	23	B4	release
893.217	n/a	RESPONSE	        M6	1	19	G4	press
893.733	n/a	RESPONSE	        M6	1	19	G4	release
894.094	n/a	RESPONSE	        M6	1	18	F#4	press
894.316	n/a	RESPONSE	        M6	1	16	E4	press
894.377	n/a	RESPONSE	        M6	1	18	F#4	release
894.568	n/a	RESPONSE	        M6	1	18	F#4	press
894.669	n/a	RESPONSE	        M6	1	16	E4	release
