onset	duration	trial_type	trial_number	stroop_condition	stim_text(PL)	stim_text(eng)	stim_color(PL)	stim_color(eng)	response_type	response_color
0.0	n/a	RESPONSE	n/a	n/a	n/a	n/a	n/a	n/a	n/a	n/a
0.0594	1.0334	ITI	n/a	n/a	n/a	n/a	n/a	n/a	n/a	n/a
1.0928	0.5166	FIXCROSS	n/a	n/a	n/a	n/a	n/a	n/a	n/a	n/a
1.6095	1.8833	T_INK	1	Incongruent	zielony	green	niebieski	blue	incorrect	n/a
3.4641	n/a	RESPONSE	n/a	n/a	n/a	n/a	n/a	n/a	n/a	green
3.4928	0.5167	FEEDBACK	n/a	n/a	n/a	n/a	n/a	n/a	n/a	n/a
4.0095	1.0167	ITI	n/a	n/a	n/a	n/a	n/a	n/a	n/a	n/a
5.0262	0.5167	FIXCROSS	n/a	n/a	n/a	n/a	n/a	n/a	n/a	n/a
5.5428	3.05	T_INK	2	Neutral	xxxxxxxxx	xxxxxxxxx	zielony	green	hit	n/a
8.5569	n/a	RESPONSE	n/a	n/a	n/a	n/a	n/a	n/a	n/a	green
8.5929	0.5166	FEEDBACK	n/a	n/a	n/a	n/a	n/a	n/a	n/a	n/a
9.1095	1.0334	ITI	n/a	n/a	n/a	n/a	n/a	n/a	n/a	n/a
10.1429	0.5167	FIXCROSS	n/a	n/a	n/a	n/a	n/a	n/a	n/a	n/a
10.6595	1.4	T_INK	3	Incongruent	żółty	yellow	czerwony	red	hit	n/a
12.0211	n/a	RESPONSE	n/a	n/a	n/a	n/a	n/a	n/a	n/a	red
12.0596	0.5167	FEEDBACK	n/a	n/a	n/a	n/a	n/a	n/a	n/a	n/a
12.5762	1.0167	ITI	n/a	n/a	n/a	n/a	n/a	n/a	n/a	n/a
13.5929	0.5167	FIXCROSS	n/a	n/a	n/a	n/a	n/a	n/a	n/a	n/a
14.1096	1.0667	T_INK	4	Incongruent	niebieski	blue	czerwony	red	incorrect	n/a
15.1501	n/a	RESPONSE	n/a	n/a	n/a	n/a	n/a	n/a	n/a	blue
15.1763	0.5167	FEEDBACK	n/a	n/a	n/a	n/a	n/a	n/a	n/a	n/a
15.3258	n/a	RESPONSE	n/a	n/a	n/a	n/a	n/a	n/a	n/a	blue
15.6929	1.0166	ITI	n/a	n/a	n/a	n/a	n/a	n/a	n/a	n/a
16.7096	0.5167	FIXCROSS	n/a	n/a	n/a	n/a	n/a	n/a	n/a	n/a
17.2263	1.1	T_INK	5	Incongruent	żółty	yellow	zielony	green	hit	n/a
18.2951	n/a	RESPONSE	n/a	n/a	n/a	n/a	n/a	n/a	n/a	green
18.3263	0.5167	FEEDBACK	n/a	n/a	n/a	n/a	n/a	n/a	n/a	n/a
18.8429	1.0167	ITI	n/a	n/a	n/a	n/a	n/a	n/a	n/a	n/a
19.8596	0.5167	FIXCROSS	n/a	n/a	n/a	n/a	n/a	n/a	n/a	n/a
20.3763	1.1	T_INK	6	Incongruent	zielony	green	czerwony	red	hit	n/a
21.4401	n/a	RESPONSE	n/a	n/a	n/a	n/a	n/a	n/a	n/a	red
21.4763	0.5166	FEEDBACK	n/a	n/a	n/a	n/a	n/a	n/a	n/a	n/a
21.9929	1.0167	ITI	n/a	n/a	n/a	n/a	n/a	n/a	n/a	n/a
23.0096	0.5167	FIXCROSS	n/a	n/a	n/a	n/a	n/a	n/a	n/a	n/a
23.5263	0.8833	T_INK	7	Neutral	xxxxxxxxx	xxxxxxxxx	żółty	yellow	hit	n/a
24.3776	n/a	RESPONSE	n/a	n/a	n/a	n/a	n/a	n/a	n/a	yellow
24.4096	0.5167	FEEDBACK	n/a	n/a	n/a	n/a	n/a	n/a	n/a	n/a
24.9263	1.0167	ITI	n/a	n/a	n/a	n/a	n/a	n/a	n/a	n/a
25.943	0.5167	FIXCROSS	n/a	n/a	n/a	n/a	n/a	n/a	n/a	n/a
26.4597	0.9	T_INK	8	Neutral	xxxxx	xxxxx	zielony	green	hit	n/a
27.331	n/a	RESPONSE	n/a	n/a	n/a	n/a	n/a	n/a	n/a	green
27.3596	0.5167	FEEDBACK	n/a	n/a	n/a	n/a	n/a	n/a	n/a	n/a
27.8763	1.0167	ITI	n/a	n/a	n/a	n/a	n/a	n/a	n/a	n/a
28.893	0.5167	FIXCROSS	n/a	n/a	n/a	n/a	n/a	n/a	n/a	n/a
29.4097	0.9	T_INK	9	Neutral	xxxxxxxx	xxxxxxxx	żółty	yellow	hit	n/a
30.2843	n/a	RESPONSE	n/a	n/a	n/a	n/a	n/a	n/a	n/a	yellow
30.3097	0.5166	FEEDBACK	n/a	n/a	n/a	n/a	n/a	n/a	n/a	n/a
30.8263	1.0167	ITI	n/a	n/a	n/a	n/a	n/a	n/a	n/a	n/a
31.843	0.5167	FIXCROSS	n/a	n/a	n/a	n/a	n/a	n/a	n/a	n/a
32.3597	1.1166	T_INK	10	Incongruent	zielony	green	żółty	yellow	hit	n/a
33.4453	n/a	RESPONSE	n/a	n/a	n/a	n/a	n/a	n/a	n/a	yellow
33.4763	0.5167	FEEDBACK	n/a	n/a	n/a	n/a	n/a	n/a	n/a	n/a
33.993	1.0167	ITI	n/a	n/a	n/a	n/a	n/a	n/a	n/a	n/a
35.0097	0.5167	FIXCROSS	n/a	n/a	n/a	n/a	n/a	n/a	n/a	n/a
35.5264	1.3	T_INK	11	Neutral	xxxxxxx	xxxxxxx	niebieski	blue	hit	n/a
36.7978	n/a	RESPONSE	n/a	n/a	n/a	n/a	n/a	n/a	n/a	blue
36.8264	0.5167	FEEDBACK	n/a	n/a	n/a	n/a	n/a	n/a	n/a	n/a
37.3431	1.0167	ITI	n/a	n/a	n/a	n/a	n/a	n/a	n/a	n/a
38.3597	0.5167	FIXCROSS	n/a	n/a	n/a	n/a	n/a	n/a	n/a	n/a
38.8764	1.1333	T_INK	12	Incongruent	czerwony	red	niebieski	blue	hit	n/a
39.9747	n/a	RESPONSE	n/a	n/a	n/a	n/a	n/a	n/a	n/a	blue
40.0098	0.5167	FEEDBACK	n/a	n/a	n/a	n/a	n/a	n/a	n/a	n/a
40.5264	1.0333	ITI	n/a	n/a	n/a	n/a	n/a	n/a	n/a	n/a
48.9306	n/a	RESPONSE	n/a	n/a	n/a	n/a	n/a	n/a	n/a	n/a
48.9932	1.0167	ITI	n/a	n/a	n/a	n/a	n/a	n/a	n/a	n/a
50.0098	0.5167	FIXCROSS	n/a	n/a	n/a	n/a	n/a	n/a	n/a	n/a
50.5265	1.3334	INK	1	Incongruent	zielony	green	czerwony	red	hit	n/a
51.8361	n/a	RESPONSE	n/a	n/a	n/a	n/a	n/a	n/a	n/a	red
51.8599	1.0166	ITI	n/a	n/a	n/a	n/a	n/a	n/a	n/a	n/a
52.8765	0.5167	FIXCROSS	n/a	n/a	n/a	n/a	n/a	n/a	n/a	n/a
53.3932	0.7833	INK	2	Incongruent	żółty	yellow	czerwony	red	hit	n/a
54.151	n/a	RESPONSE	n/a	n/a	n/a	n/a	n/a	n/a	n/a	red
54.1765	1.0166	ITI	n/a	n/a	n/a	n/a	n/a	n/a	n/a	n/a
55.1932	0.5167	FIXCROSS	n/a	n/a	n/a	n/a	n/a	n/a	n/a	n/a
55.7099	1.0	INK	3	Incongruent	żółty	yellow	niebieski	blue	hit	n/a
56.6893	n/a	RESPONSE	n/a	n/a	n/a	n/a	n/a	n/a	n/a	blue
56.7099	1.0167	ITI	n/a	n/a	n/a	n/a	n/a	n/a	n/a	n/a
57.7266	0.5167	FIXCROSS	n/a	n/a	n/a	n/a	n/a	n/a	n/a	n/a
58.2432	0.75	INK	4	Incongruent	zielony	green	niebieski	blue	hit	n/a
58.9722	n/a	RESPONSE	n/a	n/a	n/a	n/a	n/a	n/a	n/a	blue
58.9932	1.0167	ITI	n/a	n/a	n/a	n/a	n/a	n/a	n/a	n/a
60.0099	0.5166	FIXCROSS	n/a	n/a	n/a	n/a	n/a	n/a	n/a	n/a
60.5265	0.75	INK	5	Incongruent	żółty	yellow	zielony	green	hit	n/a
61.2551	n/a	RESPONSE	n/a	n/a	n/a	n/a	n/a	n/a	n/a	green
61.2766	1.0167	ITI	n/a	n/a	n/a	n/a	n/a	n/a	n/a	n/a
62.2932	0.5167	FIXCROSS	n/a	n/a	n/a	n/a	n/a	n/a	n/a	n/a
62.8099	0.8	INK	6	Incongruent	zielony	green	niebieski	blue	hit	n/a
63.586	n/a	RESPONSE	n/a	n/a	n/a	n/a	n/a	n/a	n/a	blue
63.6099	1.0167	ITI	n/a	n/a	n/a	n/a	n/a	n/a	n/a	n/a
64.6266	0.5167	FIXCROSS	n/a	n/a	n/a	n/a	n/a	n/a	n/a	n/a
65.1433	0.8	INK	7	Neutral	xxxxxxxxx	xxxxxxxxx	zielony	green	hit	n/a
65.9166	n/a	RESPONSE	n/a	n/a	n/a	n/a	n/a	n/a	n/a	green
65.9433	1.0167	ITI	n/a	n/a	n/a	n/a	n/a	n/a	n/a	n/a
66.96	0.5167	FIXCROSS	n/a	n/a	n/a	n/a	n/a	n/a	n/a	n/a
67.4766	0.6666	INK	8	Neutral	xxxxxxxx	xxxxxxxx	niebieski	blue	hit	n/a
68.1197	n/a	RESPONSE	n/a	n/a	n/a	n/a	n/a	n/a	n/a	blue
68.1433	1.0167	ITI	n/a	n/a	n/a	n/a	n/a	n/a	n/a	n/a
69.16	0.5167	FIXCROSS	n/a	n/a	n/a	n/a	n/a	n/a	n/a	n/a
69.6766	0.6667	INK	9	Neutral	xxxxx	xxxxx	czerwony	red	hit	n/a
70.3229	n/a	RESPONSE	n/a	n/a	n/a	n/a	n/a	n/a	n/a	red
70.3433	1.0167	ITI	n/a	n/a	n/a	n/a	n/a	n/a	n/a	n/a
71.36	0.5166	FIXCROSS	n/a	n/a	n/a	n/a	n/a	n/a	n/a	n/a
71.8766	1.05	INK	10	Incongruent	czerwony	red	żółty	yellow	hit	n/a
72.9091	n/a	RESPONSE	n/a	n/a	n/a	n/a	n/a	n/a	n/a	yellow
72.9266	1.0167	ITI	n/a	n/a	n/a	n/a	n/a	n/a	n/a	n/a
73.9433	0.5167	FIXCROSS	n/a	n/a	n/a	n/a	n/a	n/a	n/a	n/a
74.46	0.75	INK	11	Incongruent	niebieski	blue	zielony	green	hit	n/a
75.1919	n/a	RESPONSE	n/a	n/a	n/a	n/a	n/a	n/a	n/a	green
75.21	1.0166	ITI	n/a	n/a	n/a	n/a	n/a	n/a	n/a	n/a
76.2267	0.5167	FIXCROSS	n/a	n/a	n/a	n/a	n/a	n/a	n/a	n/a
76.7434	1.25	INK	12	Incongruent	czerwony	red	zielony	green	hit	n/a
77.9698	n/a	RESPONSE	n/a	n/a	n/a	n/a	n/a	n/a	n/a	green
77.9934	1.0167	ITI	n/a	n/a	n/a	n/a	n/a	n/a	n/a	n/a
79.01	0.5166	FIXCROSS	n/a	n/a	n/a	n/a	n/a	n/a	n/a	n/a
79.5267	0.6	INK	13	Neutral	xxxxxxx	xxxxxxx	niebieski	blue	hit	n/a
80.109	n/a	RESPONSE	n/a	n/a	n/a	n/a	n/a	n/a	n/a	blue
80.1267	1.0167	ITI	n/a	n/a	n/a	n/a	n/a	n/a	n/a	n/a
81.1434	0.5165	FIXCROSS	n/a	n/a	n/a	n/a	n/a	n/a	n/a	n/a
81.6599	0.7835	INK	14	Neutral	xxxxxxxxx	xxxxxxxxx	zielony	green	hit	n/a
82.4078	n/a	RESPONSE	n/a	n/a	n/a	n/a	n/a	n/a	n/a	green
82.4434	1.0167	ITI	n/a	n/a	n/a	n/a	n/a	n/a	n/a	n/a
83.4601	0.5167	FIXCROSS	n/a	n/a	n/a	n/a	n/a	n/a	n/a	n/a
83.9767	0.6833	INK	15	Neutral	xxxxxxxx	xxxxxxxx	zielony	green	hit	n/a
84.6428	n/a	RESPONSE	n/a	n/a	n/a	n/a	n/a	n/a	n/a	green
84.6601	1.0167	ITI	n/a	n/a	n/a	n/a	n/a	n/a	n/a	n/a
85.6768	0.5167	FIXCROSS	n/a	n/a	n/a	n/a	n/a	n/a	n/a	n/a
86.1934	0.7167	INK	16	Neutral	xxxxxxx	xxxxxxx	żółty	yellow	hit	n/a
86.8778	n/a	RESPONSE	n/a	n/a	n/a	n/a	n/a	n/a	n/a	yellow
86.9101	1.0167	ITI	n/a	n/a	n/a	n/a	n/a	n/a	n/a	n/a
87.9268	0.5167	FIXCROSS	n/a	n/a	n/a	n/a	n/a	n/a	n/a	n/a
88.4434	0.6167	INK	17	Neutral	xxxxxxxxx	xxxxxxxxx	żółty	yellow	hit	n/a
89.033	n/a	RESPONSE	n/a	n/a	n/a	n/a	n/a	n/a	n/a	yellow
89.0601	1.0167	ITI	n/a	n/a	n/a	n/a	n/a	n/a	n/a	n/a
90.0768	0.5166	FIXCROSS	n/a	n/a	n/a	n/a	n/a	n/a	n/a	n/a
90.5934	0.9167	INK	18	Incongruent	niebieski	blue	żółty	yellow	hit	n/a
91.4916	n/a	RESPONSE	n/a	n/a	n/a	n/a	n/a	n/a	n/a	yellow
91.5101	1.0167	ITI	n/a	n/a	n/a	n/a	n/a	n/a	n/a	n/a
92.5268	0.5167	FIXCROSS	n/a	n/a	n/a	n/a	n/a	n/a	n/a	n/a
93.0435	0.8667	INK	19	Neutral	xxxxx	xxxxx	niebieski	blue	hit	n/a
93.8862	n/a	RESPONSE	n/a	n/a	n/a	n/a	n/a	n/a	n/a	blue
93.9102	1.0167	ITI	n/a	n/a	n/a	n/a	n/a	n/a	n/a	n/a
94.9268	0.5167	FIXCROSS	n/a	n/a	n/a	n/a	n/a	n/a	n/a	n/a
95.4435	0.65	INK	20	Neutral	xxxxx	xxxxx	czerwony	red	hit	n/a
96.0733	n/a	RESPONSE	n/a	n/a	n/a	n/a	n/a	n/a	n/a	red
96.0935	1.0167	ITI	n/a	n/a	n/a	n/a	n/a	n/a	n/a	n/a
97.1102	0.5167	FIXCROSS	n/a	n/a	n/a	n/a	n/a	n/a	n/a	n/a
97.6269	0.7667	INK	21	Incongruent	czerwony	red	niebieski	blue	hit	n/a
98.3721	n/a	RESPONSE	n/a	n/a	n/a	n/a	n/a	n/a	n/a	blue
98.3935	1.0167	ITI	n/a	n/a	n/a	n/a	n/a	n/a	n/a	n/a
99.4102	0.5167	FIXCROSS	n/a	n/a	n/a	n/a	n/a	n/a	n/a	n/a
99.9269	1.8333	INK	22	Incongruent	niebieski	blue	czerwony	red	hit	n/a
101.7406	n/a	RESPONSE	n/a	n/a	n/a	n/a	n/a	n/a	n/a	red
101.7602	1.0166	ITI	n/a	n/a	n/a	n/a	n/a	n/a	n/a	n/a
102.7769	0.5167	FIXCROSS	n/a	n/a	n/a	n/a	n/a	n/a	n/a	n/a
103.2936	0.6666	INK	23	Incongruent	żółty	yellow	zielony	green	hit	n/a
103.9277	n/a	RESPONSE	n/a	n/a	n/a	n/a	n/a	n/a	n/a	green
103.9602	1.0167	ITI	n/a	n/a	n/a	n/a	n/a	n/a	n/a	n/a
104.9769	0.5167	FIXCROSS	n/a	n/a	n/a	n/a	n/a	n/a	n/a	n/a
105.4936	0.9	INK	24	Incongruent	czerwony	red	żółty	yellow	hit	n/a
106.3702	n/a	RESPONSE	n/a	n/a	n/a	n/a	n/a	n/a	n/a	yellow
106.3936	1.0167	ITI	n/a	n/a	n/a	n/a	n/a	n/a	n/a	n/a
107.4103	0.5166	FIXCROSS	n/a	n/a	n/a	n/a	n/a	n/a	n/a	n/a
107.9269	0.7667	INK	25	Neutral	xxxxx	xxxxx	niebieski	blue	hit	n/a
108.669	n/a	RESPONSE	n/a	n/a	n/a	n/a	n/a	n/a	n/a	blue
108.6936	1.0167	ITI	n/a	n/a	n/a	n/a	n/a	n/a	n/a	n/a
109.7103	0.5167	FIXCROSS	n/a	n/a	n/a	n/a	n/a	n/a	n/a	n/a
110.2269	0.7833	INK	26	Incongruent	niebieski	blue	żółty	yellow	hit	n/a
110.9838	n/a	RESPONSE	n/a	n/a	n/a	n/a	n/a	n/a	n/a	yellow
111.0103	1.0167	ITI	n/a	n/a	n/a	n/a	n/a	n/a	n/a	n/a
112.027	0.5167	FIXCROSS	n/a	n/a	n/a	n/a	n/a	n/a	n/a	n/a
112.5436	0.9	INK	27	Incongruent	czerwony	red	zielony	green	hit	n/a
113.4104	n/a	RESPONSE	n/a	n/a	n/a	n/a	n/a	n/a	n/a	green
113.4436	1.0167	ITI	n/a	n/a	n/a	n/a	n/a	n/a	n/a	n/a
114.4603	0.5167	FIXCROSS	n/a	n/a	n/a	n/a	n/a	n/a	n/a	n/a
114.977	0.85	INK	28	Incongruent	żółty	yellow	czerwony	red	incorrect	n/a
115.8052	n/a	RESPONSE	n/a	n/a	n/a	n/a	n/a	n/a	n/a	yellow
115.827	1.0167	ITI	n/a	n/a	n/a	n/a	n/a	n/a	n/a	n/a
116.8437	0.5167	FIXCROSS	n/a	n/a	n/a	n/a	n/a	n/a	n/a	n/a
117.3603	0.9167	INK	29	Neutral	xxxxxxx	xxxxxxx	czerwony	red	hit	n/a
118.2476	n/a	RESPONSE	n/a	n/a	n/a	n/a	n/a	n/a	n/a	red
118.277	1.0167	ITI	n/a	n/a	n/a	n/a	n/a	n/a	n/a	n/a
119.2937	0.5167	FIXCROSS	n/a	n/a	n/a	n/a	n/a	n/a	n/a	n/a
119.8103	0.7833	INK	30	Neutral	xxxxxxxxx	xxxxxxxxx	żółty	yellow	hit	n/a
120.5625	n/a	RESPONSE	n/a	n/a	n/a	n/a	n/a	n/a	n/a	yellow
120.5936	1.0167	ITI	n/a	n/a	n/a	n/a	n/a	n/a	n/a	n/a
121.6104	0.5167	FIXCROSS	n/a	n/a	n/a	n/a	n/a	n/a	n/a	n/a
122.127	0.7333	INK	31	Incongruent	żółty	yellow	niebieski	blue	incorrect	n/a
122.8295	n/a	RESPONSE	n/a	n/a	n/a	n/a	n/a	n/a	n/a	green
122.8603	1.0167	ITI	n/a	n/a	n/a	n/a	n/a	n/a	n/a	n/a
123.877	0.5167	FIXCROSS	n/a	n/a	n/a	n/a	n/a	n/a	n/a	n/a
124.3937	0.8667	INK	32	Incongruent	zielony	green	niebieski	blue	hit	n/a
125.2403	n/a	RESPONSE	n/a	n/a	n/a	n/a	n/a	n/a	n/a	blue
125.2604	1.0167	ITI	n/a	n/a	n/a	n/a	n/a	n/a	n/a	n/a
126.2771	0.5166	FIXCROSS	n/a	n/a	n/a	n/a	n/a	n/a	n/a	n/a
126.7937	0.7667	INK	33	Neutral	xxxxx	xxxxx	zielony	green	hit	n/a
127.539	n/a	RESPONSE	n/a	n/a	n/a	n/a	n/a	n/a	n/a	green
127.5604	1.0166	ITI	n/a	n/a	n/a	n/a	n/a	n/a	n/a	n/a
128.577	0.5167	FIXCROSS	n/a	n/a	n/a	n/a	n/a	n/a	n/a	n/a
129.0937	1.15	INK	34	Incongruent	czerwony	red	zielony	green	hit	n/a
130.221	n/a	RESPONSE	n/a	n/a	n/a	n/a	n/a	n/a	n/a	green
130.2438	1.0167	ITI	n/a	n/a	n/a	n/a	n/a	n/a	n/a	n/a
131.2604	0.5167	FIXCROSS	n/a	n/a	n/a	n/a	n/a	n/a	n/a	n/a
131.7771	0.5667	INK	35	Neutral	xxxxxxxxx	xxxxxxxxx	czerwony	red	hit	n/a
132.3122	n/a	RESPONSE	n/a	n/a	n/a	n/a	n/a	n/a	n/a	red
132.3438	1.0167	ITI	n/a	n/a	n/a	n/a	n/a	n/a	n/a	n/a
133.3604	0.5167	FIXCROSS	n/a	n/a	n/a	n/a	n/a	n/a	n/a	n/a
133.8771	0.7833	INK	36	Neutral	xxxxxxxx	xxxxxxxx	niebieski	blue	hit	n/a
134.6272	n/a	RESPONSE	n/a	n/a	n/a	n/a	n/a	n/a	n/a	blue
134.6604	1.0167	ITI	n/a	n/a	n/a	n/a	n/a	n/a	n/a	n/a
135.6771	0.5167	FIXCROSS	n/a	n/a	n/a	n/a	n/a	n/a	n/a	n/a
136.1938	0.6333	INK	37	Neutral	xxxxxxxx	xxxxxxxx	zielony	green	hit	n/a
136.7983	n/a	RESPONSE	n/a	n/a	n/a	n/a	n/a	n/a	n/a	green
136.8271	1.0166	ITI	n/a	n/a	n/a	n/a	n/a	n/a	n/a	n/a
137.8438	0.5167	FIXCROSS	n/a	n/a	n/a	n/a	n/a	n/a	n/a	n/a
138.3605	0.75	INK	38	Neutral	xxxxxxxxx	xxxxxxxxx	czerwony	red	hit	n/a
139.0812	n/a	RESPONSE	n/a	n/a	n/a	n/a	n/a	n/a	n/a	red
139.1105	1.0167	ITI	n/a	n/a	n/a	n/a	n/a	n/a	n/a	n/a
140.1272	0.5167	FIXCROSS	n/a	n/a	n/a	n/a	n/a	n/a	n/a	n/a
140.6438	0.9333	INK	39	Incongruent	niebieski	blue	żółty	yellow	hit	n/a
141.5557	n/a	RESPONSE	n/a	n/a	n/a	n/a	n/a	n/a	n/a	yellow
141.5772	1.0167	ITI	n/a	n/a	n/a	n/a	n/a	n/a	n/a	n/a
142.5938	0.5167	FIXCROSS	n/a	n/a	n/a	n/a	n/a	n/a	n/a	n/a
143.1105	0.9	INK	40	Incongruent	niebieski	blue	zielony	green	hit	n/a
143.9822	n/a	RESPONSE	n/a	n/a	n/a	n/a	n/a	n/a	n/a	green
144.0105	1.0167	ITI	n/a	n/a	n/a	n/a	n/a	n/a	n/a	n/a
145.0272	0.5166	FIXCROSS	n/a	n/a	n/a	n/a	n/a	n/a	n/a	n/a
145.5438	0.8667	INK	41	Neutral	xxxxx	xxxxx	czerwony	red	hit	n/a
146.377	n/a	RESPONSE	n/a	n/a	n/a	n/a	n/a	n/a	n/a	red
146.4105	1.0167	ITI	n/a	n/a	n/a	n/a	n/a	n/a	n/a	n/a
147.4272	0.5166	FIXCROSS	n/a	n/a	n/a	n/a	n/a	n/a	n/a	n/a
147.9438	0.7	INK	42	Neutral	xxxxxxx	xxxxxxx	żółty	yellow	hit	n/a
148.6119	n/a	RESPONSE	n/a	n/a	n/a	n/a	n/a	n/a	n/a	yellow
148.6439	1.0167	ITI	n/a	n/a	n/a	n/a	n/a	n/a	n/a	n/a
149.6606	0.5167	FIXCROSS	n/a	n/a	n/a	n/a	n/a	n/a	n/a	n/a
150.1772	0.5167	INK	43	Neutral	xxxxxxx	xxxxxxx	żółty	yellow	hit	n/a
150.6713	n/a	RESPONSE	n/a	n/a	n/a	n/a	n/a	n/a	n/a	yellow
150.6939	1.0167	ITI	n/a	n/a	n/a	n/a	n/a	n/a	n/a	n/a
151.7106	0.5166	FIXCROSS	n/a	n/a	n/a	n/a	n/a	n/a	n/a	n/a
152.2272	0.9667	INK	44	Incongruent	zielony	green	żółty	yellow	hit	n/a
153.1617	n/a	RESPONSE	n/a	n/a	n/a	n/a	n/a	n/a	n/a	yellow
153.1939	1.0166	ITI	n/a	n/a	n/a	n/a	n/a	n/a	n/a	n/a
154.2106	0.5167	FIXCROSS	n/a	n/a	n/a	n/a	n/a	n/a	n/a	n/a
154.7273	0.6333	INK	45	Neutral	xxxxxxx	xxxxxxx	czerwony	red	hit	n/a
155.3329	n/a	RESPONSE	n/a	n/a	n/a	n/a	n/a	n/a	n/a	red
155.3606	1.0166	ITI	n/a	n/a	n/a	n/a	n/a	n/a	n/a	n/a
156.3772	0.5167	FIXCROSS	n/a	n/a	n/a	n/a	n/a	n/a	n/a	n/a
156.8939	0.4333	INK	46	Neutral	xxxxxxxx	xxxxxxxx	żółty	yellow	hit	n/a
157.2964	n/a	RESPONSE	n/a	n/a	n/a	n/a	n/a	n/a	n/a	yellow
157.3273	1.0166	ITI	n/a	n/a	n/a	n/a	n/a	n/a	n/a	n/a
158.3439	0.5167	FIXCROSS	n/a	n/a	n/a	n/a	n/a	n/a	n/a	n/a
158.8606	1.1333	INK	47	Incongruent	zielony	green	czerwony	red	hit	n/a
159.9625	n/a	RESPONSE	n/a	n/a	n/a	n/a	n/a	n/a	n/a	red
159.9939	1.0167	ITI	n/a	n/a	n/a	n/a	n/a	n/a	n/a	n/a
161.0106	0.5166	FIXCROSS	n/a	n/a	n/a	n/a	n/a	n/a	n/a	n/a
161.5273	0.7	INK	48	Neutral	xxxxx	xxxxx	zielony	green	hit	n/a
162.1975	n/a	RESPONSE	n/a	n/a	n/a	n/a	n/a	n/a	n/a	green
162.2273	1.0167	ITI	n/a	n/a	n/a	n/a	n/a	n/a	n/a	n/a
163.244	0.5167	FIXCROSS	n/a	n/a	n/a	n/a	n/a	n/a	n/a	n/a
163.7607	1.1	INK	49	Incongruent	żółty	yellow	zielony	green	hit	n/a
164.8317	n/a	RESPONSE	n/a	n/a	n/a	n/a	n/a	n/a	n/a	green
164.8607	1.0167	ITI	n/a	n/a	n/a	n/a	n/a	n/a	n/a	n/a
165.8773	0.5167	FIXCROSS	n/a	n/a	n/a	n/a	n/a	n/a	n/a	n/a
166.394	0.75	INK	50	Neutral	xxxxxxx	xxxxxxx	niebieski	blue	hit	n/a
167.1146	n/a	RESPONSE	n/a	n/a	n/a	n/a	n/a	n/a	n/a	blue
167.144	1.0167	ITI	n/a	n/a	n/a	n/a	n/a	n/a	n/a	n/a
168.1607	0.5167	FIXCROSS	n/a	n/a	n/a	n/a	n/a	n/a	n/a	n/a
168.6774	0.6333	INK	51	Neutral	xxxxxxxx	xxxxxxxx	żółty	yellow	hit	n/a
169.2857	n/a	RESPONSE	n/a	n/a	n/a	n/a	n/a	n/a	n/a	yellow
169.3107	1.0167	ITI	n/a	n/a	n/a	n/a	n/a	n/a	n/a	n/a
170.3274	0.5166	FIXCROSS	n/a	n/a	n/a	n/a	n/a	n/a	n/a	n/a
170.844	1.4	INK	52	Incongruent	czerwony	red	niebieski	blue	hit	n/a
172.2232	n/a	RESPONSE	n/a	n/a	n/a	n/a	n/a	n/a	n/a	blue
172.2441	1.0166	ITI	n/a	n/a	n/a	n/a	n/a	n/a	n/a	n/a
173.2607	0.5167	FIXCROSS	n/a	n/a	n/a	n/a	n/a	n/a	n/a	n/a
173.7774	1.55	INK	53	Incongruent	niebieski	blue	czerwony	red	hit	n/a
175.3042	n/a	RESPONSE	n/a	n/a	n/a	n/a	n/a	n/a	n/a	red
175.3274	1.0167	ITI	n/a	n/a	n/a	n/a	n/a	n/a	n/a	n/a
176.3441	0.5167	FIXCROSS	n/a	n/a	n/a	n/a	n/a	n/a	n/a	n/a
176.8608	0.6667	INK	54	Neutral	xxxxxxxxx	xxxxxxxxx	żółty	yellow	hit	n/a
177.5073	n/a	RESPONSE	n/a	n/a	n/a	n/a	n/a	n/a	n/a	yellow
177.5274	1.0166	ITI	n/a	n/a	n/a	n/a	n/a	n/a	n/a	n/a
178.5441	0.5167	FIXCROSS	n/a	n/a	n/a	n/a	n/a	n/a	n/a	n/a
179.0608	0.8	INK	55	Neutral	xxxxxxxx	xxxxxxxx	zielony	green	hit	n/a
179.8382	n/a	RESPONSE	n/a	n/a	n/a	n/a	n/a	n/a	n/a	green
179.8608	1.0166	ITI	n/a	n/a	n/a	n/a	n/a	n/a	n/a	n/a
180.8774	0.5167	FIXCROSS	n/a	n/a	n/a	n/a	n/a	n/a	n/a	n/a
181.3941	1.1333	INK	56	Incongruent	niebieski	blue	czerwony	red	hit	n/a
182.5043	n/a	RESPONSE	n/a	n/a	n/a	n/a	n/a	n/a	n/a	red
182.5274	1.0167	ITI	n/a	n/a	n/a	n/a	n/a	n/a	n/a	n/a
183.5441	0.5166	FIXCROSS	n/a	n/a	n/a	n/a	n/a	n/a	n/a	n/a
184.0608	0.7167	INK	57	Incongruent	czerwony	red	żółty	yellow	hit	n/a
184.7552	n/a	RESPONSE	n/a	n/a	n/a	n/a	n/a	n/a	n/a	yellow
184.7774	1.0167	ITI	n/a	n/a	n/a	n/a	n/a	n/a	n/a	n/a
185.7942	0.5167	FIXCROSS	n/a	n/a	n/a	n/a	n/a	n/a	n/a	n/a
186.3108	0.6333	INK	58	Incongruent	zielony	green	czerwony	red	incorrect	n/a
186.9263	n/a	RESPONSE	n/a	n/a	n/a	n/a	n/a	n/a	n/a	green
186.9441	1.0167	ITI	n/a	n/a	n/a	n/a	n/a	n/a	n/a	n/a
187.9608	0.5167	FIXCROSS	n/a	n/a	n/a	n/a	n/a	n/a	n/a	n/a
188.4775	0.5833	INK	59	Neutral	xxxxx	xxxxx	zielony	green	hit	n/a
189.0337	n/a	RESPONSE	n/a	n/a	n/a	n/a	n/a	n/a	n/a	green
189.0608	1.0166	ITI	n/a	n/a	n/a	n/a	n/a	n/a	n/a	n/a
190.0775	0.5167	FIXCROSS	n/a	n/a	n/a	n/a	n/a	n/a	n/a	n/a
190.5942	0.4666	INK	60	Neutral	xxxxxxxxx	xxxxxxxxx	czerwony	red	hit	n/a
191.0292	n/a	RESPONSE	n/a	n/a	n/a	n/a	n/a	n/a	n/a	red
191.0608	1.0167	ITI	n/a	n/a	n/a	n/a	n/a	n/a	n/a	n/a
192.0775	0.5167	FIXCROSS	n/a	n/a	n/a	n/a	n/a	n/a	n/a	n/a
192.5942	0.9333	INK	61	Incongruent	żółty	yellow	czerwony	red	hit	n/a
193.5036	n/a	RESPONSE	n/a	n/a	n/a	n/a	n/a	n/a	n/a	red
193.5275	1.0167	ITI	n/a	n/a	n/a	n/a	n/a	n/a	n/a	n/a
194.5442	0.5167	FIXCROSS	n/a	n/a	n/a	n/a	n/a	n/a	n/a	n/a
195.0609	1.0166	INK	62	Incongruent	niebieski	blue	zielony	green	hit	n/a
196.058	n/a	RESPONSE	n/a	n/a	n/a	n/a	n/a	n/a	n/a	green
196.0775	1.0167	ITI	n/a	n/a	n/a	n/a	n/a	n/a	n/a	n/a
197.0942	0.5167	FIXCROSS	n/a	n/a	n/a	n/a	n/a	n/a	n/a	n/a
197.6109	0.6333	INK	63	Neutral	xxxxxxxxx	xxxxxxxxx	zielony	green	hit	n/a
198.2132	n/a	RESPONSE	n/a	n/a	n/a	n/a	n/a	n/a	n/a	green
198.2442	1.0167	ITI	n/a	n/a	n/a	n/a	n/a	n/a	n/a	n/a
199.2609	0.5167	FIXCROSS	n/a	n/a	n/a	n/a	n/a	n/a	n/a	n/a
199.7776	0.9167	INK	64	Neutral	xxxxxxxx	xxxxxxxx	niebieski	blue	hit	n/a
200.6717	n/a	RESPONSE	n/a	n/a	n/a	n/a	n/a	n/a	n/a	blue
200.6943	1.0166	ITI	n/a	n/a	n/a	n/a	n/a	n/a	n/a	n/a
201.7109	0.5167	FIXCROSS	n/a	n/a	n/a	n/a	n/a	n/a	n/a	n/a
202.2276	0.6	INK	65	Neutral	xxxxxxx	xxxxxxx	czerwony	red	hit	n/a
202.7949	n/a	RESPONSE	n/a	n/a	n/a	n/a	n/a	n/a	n/a	red
202.8276	1.0167	ITI	n/a	n/a	n/a	n/a	n/a	n/a	n/a	n/a
203.8443	0.5167	FIXCROSS	n/a	n/a	n/a	n/a	n/a	n/a	n/a	n/a
204.361	0.65	INK	66	Neutral	xxxxxxxx	xxxxxxxx	żółty	yellow	incorrect	n/a
204.982	n/a	RESPONSE	n/a	n/a	n/a	n/a	n/a	n/a	n/a	green
205.011	1.0167	ITI	n/a	n/a	n/a	n/a	n/a	n/a	n/a	n/a
206.0276	0.5167	FIXCROSS	n/a	n/a	n/a	n/a	n/a	n/a	n/a	n/a
206.5443	0.7667	INK	67	Incongruent	zielony	green	żółty	yellow	hit	n/a
207.281	n/a	RESPONSE	n/a	n/a	n/a	n/a	n/a	n/a	n/a	yellow
207.311	1.0167	ITI	n/a	n/a	n/a	n/a	n/a	n/a	n/a	n/a
208.3276	0.5167	FIXCROSS	n/a	n/a	n/a	n/a	n/a	n/a	n/a	n/a
208.8443	0.4333	INK	68	Incongruent	zielony	green	żółty	yellow	hit	n/a
209.2446	n/a	RESPONSE	n/a	n/a	n/a	n/a	n/a	n/a	n/a	yellow
209.2777	1.0167	ITI	n/a	n/a	n/a	n/a	n/a	n/a	n/a	n/a
210.2943	0.5166	FIXCROSS	n/a	n/a	n/a	n/a	n/a	n/a	n/a	n/a
210.811	0.6334	INK	69	Neutral	xxxxx	xxxxx	niebieski	blue	hit	n/a
211.4158	n/a	RESPONSE	n/a	n/a	n/a	n/a	n/a	n/a	n/a	blue
211.4443	1.0166	ITI	n/a	n/a	n/a	n/a	n/a	n/a	n/a	n/a
212.461	0.5167	FIXCROSS	n/a	n/a	n/a	n/a	n/a	n/a	n/a	n/a
212.9777	0.4333	INK	70	Neutral	xxxxxxx	xxxxxxx	niebieski	blue	hit	n/a
213.3794	n/a	RESPONSE	n/a	n/a	n/a	n/a	n/a	n/a	n/a	blue
213.411	1.0167	ITI	n/a	n/a	n/a	n/a	n/a	n/a	n/a	n/a
214.4277	0.5167	FIXCROSS	n/a	n/a	n/a	n/a	n/a	n/a	n/a	n/a
214.9444	0.6833	INK	71	Incongruent	żółty	yellow	niebieski	blue	incorrect	n/a
215.5984	n/a	RESPONSE	n/a	n/a	n/a	n/a	n/a	n/a	n/a	yellow
215.6277	1.0167	ITI	n/a	n/a	n/a	n/a	n/a	n/a	n/a	n/a
216.6444	0.5166	FIXCROSS	n/a	n/a	n/a	n/a	n/a	n/a	n/a	n/a
217.161	0.75	INK	72	Incongruent	czerwony	red	niebieski	blue	hit	n/a
217.8812	n/a	RESPONSE	n/a	n/a	n/a	n/a	n/a	n/a	n/a	blue
217.911	1.1	ITI	n/a	n/a	n/a	n/a	n/a	n/a	n/a	n/a
238.5713	n/a	RESPONSE	n/a	n/a	n/a	n/a	n/a	n/a	n/a	n/a
238.6278	1.0167	ITI	n/a	n/a	n/a	n/a	n/a	n/a	n/a	n/a
239.6445	0.5167	FIXCROSS	n/a	n/a	n/a	n/a	n/a	n/a	n/a	n/a
240.1612	0.8667	T_COLOR_NAME	1	Neutral	niebieski	blue	Neutral	Neutral	hit	n/a
240.9978	n/a	RESPONSE	n/a	n/a	n/a	n/a	n/a	n/a	n/a	blue
241.0279	0.5166	FEEDBACK	n/a	n/a	n/a	n/a	n/a	n/a	n/a	n/a
241.5445	1.0167	ITI	n/a	n/a	n/a	n/a	n/a	n/a	n/a	n/a
242.5612	0.5167	FIXCROSS	n/a	n/a	n/a	n/a	n/a	n/a	n/a	n/a
243.0779	0.8167	T_COLOR_NAME	2	Neutral	żółty	yellow	Neutral	Neutral	hit	n/a
243.8714	n/a	RESPONSE	n/a	n/a	n/a	n/a	n/a	n/a	n/a	yellow
243.8946	0.5167	FEEDBACK	n/a	n/a	n/a	n/a	n/a	n/a	n/a	n/a
244.4112	1.0167	ITI	n/a	n/a	n/a	n/a	n/a	n/a	n/a	n/a
245.4279	0.5167	FIXCROSS	n/a	n/a	n/a	n/a	n/a	n/a	n/a	n/a
245.9446	0.8167	T_COLOR_NAME	3	Incongruent	żółty	yellow	czerwony	red	hit	n/a
246.729	n/a	RESPONSE	n/a	n/a	n/a	n/a	n/a	n/a	n/a	yellow
246.7613	0.5167	FEEDBACK	n/a	n/a	n/a	n/a	n/a	n/a	n/a	n/a
247.2779	1.0167	ITI	n/a	n/a	n/a	n/a	n/a	n/a	n/a	n/a
248.2946	0.5167	FIXCROSS	n/a	n/a	n/a	n/a	n/a	n/a	n/a	n/a
248.8113	0.7167	T_COLOR_NAME	4	Neutral	czerwony	red	Neutral	Neutral	hit	n/a
249.5067	n/a	RESPONSE	n/a	n/a	n/a	n/a	n/a	n/a	n/a	red
249.5279	0.5167	FEEDBACK	n/a	n/a	n/a	n/a	n/a	n/a	n/a	n/a
250.0446	1.0166	ITI	n/a	n/a	n/a	n/a	n/a	n/a	n/a	n/a
251.0613	0.5167	FIXCROSS	n/a	n/a	n/a	n/a	n/a	n/a	n/a	n/a
251.578	1.0167	T_COLOR_NAME	5	Incongruent	zielony	green	żółty	yellow	hit	n/a
252.5719	n/a	RESPONSE	n/a	n/a	n/a	n/a	n/a	n/a	n/a	green
252.5946	0.5167	FEEDBACK	n/a	n/a	n/a	n/a	n/a	n/a	n/a	n/a
253.1113	1.0166	ITI	n/a	n/a	n/a	n/a	n/a	n/a	n/a	n/a
254.128	0.5167	FIXCROSS	n/a	n/a	n/a	n/a	n/a	n/a	n/a	n/a
254.6446	0.8334	T_COLOR_NAME	6	Incongruent	zielony	green	czerwony	red	hit	n/a
255.4455	n/a	RESPONSE	n/a	n/a	n/a	n/a	n/a	n/a	n/a	green
255.478	0.5167	FEEDBACK	n/a	n/a	n/a	n/a	n/a	n/a	n/a	n/a
255.9947	1.0167	ITI	n/a	n/a	n/a	n/a	n/a	n/a	n/a	n/a
257.0113	0.5167	FIXCROSS	n/a	n/a	n/a	n/a	n/a	n/a	n/a	n/a
257.528	0.8	T_COLOR_NAME	7	Incongruent	żółty	yellow	zielony	green	hit	n/a
258.3031	n/a	RESPONSE	n/a	n/a	n/a	n/a	n/a	n/a	n/a	yellow
258.328	0.5167	FEEDBACK	n/a	n/a	n/a	n/a	n/a	n/a	n/a	n/a
258.8446	1.0167	ITI	n/a	n/a	n/a	n/a	n/a	n/a	n/a	n/a
259.8614	0.5166	FIXCROSS	n/a	n/a	n/a	n/a	n/a	n/a	n/a	n/a
260.378	0.65	T_COLOR_NAME	8	Neutral	niebieski	blue	Neutral	Neutral	hit	n/a
261.0011	n/a	RESPONSE	n/a	n/a	n/a	n/a	n/a	n/a	n/a	blue
261.028	0.5167	FEEDBACK	n/a	n/a	n/a	n/a	n/a	n/a	n/a	n/a
261.5447	1.0167	ITI	n/a	n/a	n/a	n/a	n/a	n/a	n/a	n/a
262.5614	0.5167	FIXCROSS	n/a	n/a	n/a	n/a	n/a	n/a	n/a	n/a
263.078	0.8667	T_COLOR_NAME	9	Incongruent	czerwony	red	niebieski	blue	hit	n/a
263.9226	n/a	RESPONSE	n/a	n/a	n/a	n/a	n/a	n/a	n/a	red
263.9447	0.5167	FEEDBACK	n/a	n/a	n/a	n/a	n/a	n/a	n/a	n/a
264.4614	1.0166	ITI	n/a	n/a	n/a	n/a	n/a	n/a	n/a	n/a
265.478	0.5167	FIXCROSS	n/a	n/a	n/a	n/a	n/a	n/a	n/a	n/a
265.9947	0.7333	T_COLOR_NAME	10	Incongruent	zielony	green	niebieski	blue	incorrect	n/a
266.7004	n/a	RESPONSE	n/a	n/a	n/a	n/a	n/a	n/a	n/a	blue
266.728	0.5167	FEEDBACK	n/a	n/a	n/a	n/a	n/a	n/a	n/a	n/a
267.2447	1.0167	ITI	n/a	n/a	n/a	n/a	n/a	n/a	n/a	n/a
268.2614	0.5167	FIXCROSS	n/a	n/a	n/a	n/a	n/a	n/a	n/a	n/a
268.7781	0.7167	T_COLOR_NAME	11	Neutral	zielony	green	Neutral	Neutral	hit	n/a
269.4622	n/a	RESPONSE	n/a	n/a	n/a	n/a	n/a	n/a	n/a	green
269.4948	0.5167	FEEDBACK	n/a	n/a	n/a	n/a	n/a	n/a	n/a	n/a
270.0114	1.0167	ITI	n/a	n/a	n/a	n/a	n/a	n/a	n/a	n/a
271.0281	0.5166	FIXCROSS	n/a	n/a	n/a	n/a	n/a	n/a	n/a	n/a
271.5447	0.7667	T_COLOR_NAME	12	Incongruent	niebieski	blue	czerwony	red	hit	n/a
272.2878	n/a	RESPONSE	n/a	n/a	n/a	n/a	n/a	n/a	n/a	blue
272.3114	0.5167	FEEDBACK	n/a	n/a	n/a	n/a	n/a	n/a	n/a	n/a
272.8281	1.0333	ITI	n/a	n/a	n/a	n/a	n/a	n/a	n/a	n/a
276.2949	n/a	RESPONSE	n/a	n/a	n/a	n/a	n/a	n/a	n/a	n/a
276.3614	1.0167	ITI	n/a	n/a	n/a	n/a	n/a	n/a	n/a	n/a
277.3781	0.5166	FIXCROSS	n/a	n/a	n/a	n/a	n/a	n/a	n/a	n/a
277.8948	0.6834	COLOR_NAME	1	Incongruent	żółty	yellow	czerwony	red	hit	n/a
278.5459	n/a	RESPONSE	n/a	n/a	n/a	n/a	n/a	n/a	n/a	yellow
278.5782	1.0166	ITI	n/a	n/a	n/a	n/a	n/a	n/a	n/a	n/a
279.5948	0.5167	FIXCROSS	n/a	n/a	n/a	n/a	n/a	n/a	n/a	n/a
280.1115	0.5666	COLOR_NAME	2	Neutral	żółty	yellow	Neutral	Neutral	hit	n/a
280.6532	n/a	RESPONSE	n/a	n/a	n/a	n/a	n/a	n/a	n/a	yellow
280.6781	1.0167	ITI	n/a	n/a	n/a	n/a	n/a	n/a	n/a	n/a
281.6948	0.5167	FIXCROSS	n/a	n/a	n/a	n/a	n/a	n/a	n/a	n/a
282.2115	0.4667	COLOR_NAME	3	Incongruent	żółty	yellow	czerwony	red	hit	n/a
282.6488	n/a	RESPONSE	n/a	n/a	n/a	n/a	n/a	n/a	n/a	yellow
282.6782	1.0166	ITI	n/a	n/a	n/a	n/a	n/a	n/a	n/a	n/a
283.6948	0.5167	FIXCROSS	n/a	n/a	n/a	n/a	n/a	n/a	n/a	n/a
284.2115	0.4333	COLOR_NAME	4	Incongruent	żółty	yellow	zielony	green	hit	n/a
284.6123	n/a	RESPONSE	n/a	n/a	n/a	n/a	n/a	n/a	n/a	yellow
284.6448	1.0167	ITI	n/a	n/a	n/a	n/a	n/a	n/a	n/a	n/a
285.6615	0.5166	FIXCROSS	n/a	n/a	n/a	n/a	n/a	n/a	n/a	n/a
286.1782	0.7334	COLOR_NAME	5	Incongruent	czerwony	red	żółty	yellow	hit	n/a
286.8793	n/a	RESPONSE	n/a	n/a	n/a	n/a	n/a	n/a	n/a	red
286.9116	1.0167	ITI	n/a	n/a	n/a	n/a	n/a	n/a	n/a	n/a
287.9282	0.5167	FIXCROSS	n/a	n/a	n/a	n/a	n/a	n/a	n/a	n/a
288.4449	0.7	COLOR_NAME	6	Incongruent	żółty	yellow	niebieski	blue	hit	n/a
289.1142	n/a	RESPONSE	n/a	n/a	n/a	n/a	n/a	n/a	n/a	yellow
289.1449	1.0167	ITI	n/a	n/a	n/a	n/a	n/a	n/a	n/a	n/a
290.1616	0.5167	FIXCROSS	n/a	n/a	n/a	n/a	n/a	n/a	n/a	n/a
290.6782	0.75	COLOR_NAME	7	Incongruent	czerwony	red	żółty	yellow	hit	n/a
291.3972	n/a	RESPONSE	n/a	n/a	n/a	n/a	n/a	n/a	n/a	red
291.4282	1.0167	ITI	n/a	n/a	n/a	n/a	n/a	n/a	n/a	n/a
292.4449	0.5166	FIXCROSS	n/a	n/a	n/a	n/a	n/a	n/a	n/a	n/a
292.9616	0.6834	COLOR_NAME	8	Incongruent	żółty	yellow	niebieski	blue	hit	n/a
293.6162	n/a	RESPONSE	n/a	n/a	n/a	n/a	n/a	n/a	n/a	yellow
293.6449	1.0167	ITI	n/a	n/a	n/a	n/a	n/a	n/a	n/a	n/a
294.6616	0.5167	FIXCROSS	n/a	n/a	n/a	n/a	n/a	n/a	n/a	n/a
295.1783	0.5833	COLOR_NAME	9	Incongruent	zielony	green	czerwony	red	hit	n/a
295.7394	n/a	RESPONSE	n/a	n/a	n/a	n/a	n/a	n/a	n/a	green
295.7616	1.0167	ITI	n/a	n/a	n/a	n/a	n/a	n/a	n/a	n/a
296.7783	0.5167	FIXCROSS	n/a	n/a	n/a	n/a	n/a	n/a	n/a	n/a
297.295	0.7167	COLOR_NAME	10	Incongruent	niebieski	blue	czerwony	red	hit	n/a
297.9904	n/a	RESPONSE	n/a	n/a	n/a	n/a	n/a	n/a	n/a	blue
298.0116	1.0167	ITI	n/a	n/a	n/a	n/a	n/a	n/a	n/a	n/a
299.0283	0.5167	FIXCROSS	n/a	n/a	n/a	n/a	n/a	n/a	n/a	n/a
299.545	0.7333	COLOR_NAME	11	Neutral	zielony	green	Neutral	Neutral	hit	n/a
300.2574	n/a	RESPONSE	n/a	n/a	n/a	n/a	n/a	n/a	n/a	green
300.2783	1.0167	ITI	n/a	n/a	n/a	n/a	n/a	n/a	n/a	n/a
301.295	0.5166	FIXCROSS	n/a	n/a	n/a	n/a	n/a	n/a	n/a	n/a
301.8116	0.65	COLOR_NAME	12	Neutral	żółty	yellow	Neutral	Neutral	hit	n/a
302.4285	n/a	RESPONSE	n/a	n/a	n/a	n/a	n/a	n/a	n/a	yellow
302.4617	1.0167	ITI	n/a	n/a	n/a	n/a	n/a	n/a	n/a	n/a
303.4783	0.5167	FIXCROSS	n/a	n/a	n/a	n/a	n/a	n/a	n/a	n/a
303.995	0.6333	COLOR_NAME	13	Incongruent	zielony	green	niebieski	blue	hit	n/a
304.5995	n/a	RESPONSE	n/a	n/a	n/a	n/a	n/a	n/a	n/a	green
304.6283	1.0167	ITI	n/a	n/a	n/a	n/a	n/a	n/a	n/a	n/a
305.645	0.5167	FIXCROSS	n/a	n/a	n/a	n/a	n/a	n/a	n/a	n/a
306.1617	0.8	COLOR_NAME	14	Incongruent	niebieski	blue	czerwony	red	hit	n/a
306.9304	n/a	RESPONSE	n/a	n/a	n/a	n/a	n/a	n/a	n/a	blue
306.9617	1.0167	ITI	n/a	n/a	n/a	n/a	n/a	n/a	n/a	n/a
307.9784	0.5167	FIXCROSS	n/a	n/a	n/a	n/a	n/a	n/a	n/a	n/a
308.495	0.7167	COLOR_NAME	15	Neutral	czerwony	red	Neutral	Neutral	hit	n/a
309.1814	n/a	RESPONSE	n/a	n/a	n/a	n/a	n/a	n/a	n/a	red
309.2117	1.0167	ITI	n/a	n/a	n/a	n/a	n/a	n/a	n/a	n/a
310.2284	0.5167	FIXCROSS	n/a	n/a	n/a	n/a	n/a	n/a	n/a	n/a
310.7451	0.6833	COLOR_NAME	16	Neutral	czerwony	red	Neutral	Neutral	hit	n/a
311.4004	n/a	RESPONSE	n/a	n/a	n/a	n/a	n/a	n/a	n/a	red
311.4284	1.0167	ITI	n/a	n/a	n/a	n/a	n/a	n/a	n/a	n/a
312.4451	0.5167	FIXCROSS	n/a	n/a	n/a	n/a	n/a	n/a	n/a	n/a
312.9617	0.7333	COLOR_NAME	17	Neutral	zielony	green	Neutral	Neutral	hit	n/a
313.6673	n/a	RESPONSE	n/a	n/a	n/a	n/a	n/a	n/a	n/a	green
313.6951	1.0167	ITI	n/a	n/a	n/a	n/a	n/a	n/a	n/a	n/a
314.7118	0.5167	FIXCROSS	n/a	n/a	n/a	n/a	n/a	n/a	n/a	n/a
315.2284	0.6	COLOR_NAME	18	Neutral	niebieski	blue	Neutral	Neutral	hit	n/a
315.8065	n/a	RESPONSE	n/a	n/a	n/a	n/a	n/a	n/a	n/a	blue
315.8284	1.0167	ITI	n/a	n/a	n/a	n/a	n/a	n/a	n/a	n/a
316.8451	0.5167	FIXCROSS	n/a	n/a	n/a	n/a	n/a	n/a	n/a	n/a
317.3618	0.6333	COLOR_NAME	19	Incongruent	czerwony	red	niebieski	blue	hit	n/a
317.9778	n/a	RESPONSE	n/a	n/a	n/a	n/a	n/a	n/a	n/a	red
317.9951	1.0167	ITI	n/a	n/a	n/a	n/a	n/a	n/a	n/a	n/a
319.0118	0.5166	FIXCROSS	n/a	n/a	n/a	n/a	n/a	n/a	n/a	n/a
319.5284	0.5334	COLOR_NAME	20	Neutral	czerwony	red	Neutral	Neutral	hit	n/a
320.0371	n/a	RESPONSE	n/a	n/a	n/a	n/a	n/a	n/a	n/a	red
320.0618	1.0166	ITI	n/a	n/a	n/a	n/a	n/a	n/a	n/a	n/a
321.0784	0.5167	FIXCROSS	n/a	n/a	n/a	n/a	n/a	n/a	n/a	n/a
321.5951	0.6167	COLOR_NAME	21	Incongruent	żółty	yellow	niebieski	blue	hit	n/a
322.1922	n/a	RESPONSE	n/a	n/a	n/a	n/a	n/a	n/a	n/a	yellow
322.2118	1.0166	ITI	n/a	n/a	n/a	n/a	n/a	n/a	n/a	n/a
323.2284	0.5167	FIXCROSS	n/a	n/a	n/a	n/a	n/a	n/a	n/a	n/a
323.7452	0.5833	COLOR_NAME	22	Neutral	czerwony	red	Neutral	Neutral	hit	n/a
324.2996	n/a	RESPONSE	n/a	n/a	n/a	n/a	n/a	n/a	n/a	red
324.3285	1.0167	ITI	n/a	n/a	n/a	n/a	n/a	n/a	n/a	n/a
325.3452	0.5167	FIXCROSS	n/a	n/a	n/a	n/a	n/a	n/a	n/a	n/a
325.8618	0.8	COLOR_NAME	23	Incongruent	zielony	green	żółty	yellow	hit	n/a
326.6304	n/a	RESPONSE	n/a	n/a	n/a	n/a	n/a	n/a	n/a	green
326.6618	1.0166	ITI	n/a	n/a	n/a	n/a	n/a	n/a	n/a	n/a
327.6785	0.5167	FIXCROSS	n/a	n/a	n/a	n/a	n/a	n/a	n/a	n/a
328.1951	0.6334	COLOR_NAME	24	Incongruent	czerwony	red	żółty	yellow	hit	n/a
328.8015	n/a	RESPONSE	n/a	n/a	n/a	n/a	n/a	n/a	n/a	red
328.8285	1.0167	ITI	n/a	n/a	n/a	n/a	n/a	n/a	n/a	n/a
329.8452	0.5167	FIXCROSS	n/a	n/a	n/a	n/a	n/a	n/a	n/a	n/a
330.3619	0.8	COLOR_NAME	25	Neutral	zielony	green	Neutral	Neutral	hit	n/a
331.1324	n/a	RESPONSE	n/a	n/a	n/a	n/a	n/a	n/a	n/a	green
331.1619	1.0167	ITI	n/a	n/a	n/a	n/a	n/a	n/a	n/a	n/a
332.1785	0.5167	FIXCROSS	n/a	n/a	n/a	n/a	n/a	n/a	n/a	n/a
332.6952	0.4667	COLOR_NAME	26	Neutral	niebieski	blue	Neutral	Neutral	hit	n/a
333.1438	n/a	RESPONSE	n/a	n/a	n/a	n/a	n/a	n/a	n/a	blue
333.1619	1.0167	ITI	n/a	n/a	n/a	n/a	n/a	n/a	n/a	n/a
334.1786	0.5166	FIXCROSS	n/a	n/a	n/a	n/a	n/a	n/a	n/a	n/a
334.6952	0.45	COLOR_NAME	27	Neutral	niebieski	blue	Neutral	Neutral	hit	n/a
335.1234	n/a	RESPONSE	n/a	n/a	n/a	n/a	n/a	n/a	n/a	blue
335.1452	1.0167	ITI	n/a	n/a	n/a	n/a	n/a	n/a	n/a	n/a
336.1619	0.5166	FIXCROSS	n/a	n/a	n/a	n/a	n/a	n/a	n/a	n/a
336.6785	0.55	COLOR_NAME	28	Neutral	czerwony	red	Neutral	Neutral	hit	n/a
337.1988	n/a	RESPONSE	n/a	n/a	n/a	n/a	n/a	n/a	n/a	red
337.2286	1.0167	ITI	n/a	n/a	n/a	n/a	n/a	n/a	n/a	n/a
338.2452	0.5167	FIXCROSS	n/a	n/a	n/a	n/a	n/a	n/a	n/a	n/a
338.7619	0.8667	COLOR_NAME	29	Incongruent	niebieski	blue	żółty	yellow	hit	n/a
339.6094	n/a	RESPONSE	n/a	n/a	n/a	n/a	n/a	n/a	n/a	blue
339.6286	1.0167	ITI	n/a	n/a	n/a	n/a	n/a	n/a	n/a	n/a
340.6453	0.5167	FIXCROSS	n/a	n/a	n/a	n/a	n/a	n/a	n/a	n/a
341.1619	0.6333	COLOR_NAME	30	Neutral	niebieski	blue	Neutral	Neutral	hit	n/a
341.7646	n/a	RESPONSE	n/a	n/a	n/a	n/a	n/a	n/a	n/a	blue
341.7952	1.0167	ITI	n/a	n/a	n/a	n/a	n/a	n/a	n/a	n/a
342.8119	0.5167	FIXCROSS	n/a	n/a	n/a	n/a	n/a	n/a	n/a	n/a
343.3286	0.7	COLOR_NAME	31	Neutral	zielony	green	Neutral	Neutral	hit	n/a
343.9996	n/a	RESPONSE	n/a	n/a	n/a	n/a	n/a	n/a	n/a	green
344.0286	1.0167	ITI	n/a	n/a	n/a	n/a	n/a	n/a	n/a	n/a
345.0453	0.5166	FIXCROSS	n/a	n/a	n/a	n/a	n/a	n/a	n/a	n/a
345.5619	0.6	COLOR_NAME	32	Neutral	niebieski	blue	Neutral	Neutral	hit	n/a
346.1388	n/a	RESPONSE	n/a	n/a	n/a	n/a	n/a	n/a	n/a	blue
346.1619	1.0167	ITI	n/a	n/a	n/a	n/a	n/a	n/a	n/a	n/a
347.1786	0.5166	FIXCROSS	n/a	n/a	n/a	n/a	n/a	n/a	n/a	n/a
347.6953	0.5667	COLOR_NAME	33	Neutral	czerwony	red	Neutral	Neutral	hit	n/a
348.23	n/a	RESPONSE	n/a	n/a	n/a	n/a	n/a	n/a	n/a	red
348.262	1.0166	ITI	n/a	n/a	n/a	n/a	n/a	n/a	n/a	n/a
349.2786	0.5167	FIXCROSS	n/a	n/a	n/a	n/a	n/a	n/a	n/a	n/a
349.7953	0.6167	COLOR_NAME	34	Neutral	czerwony	red	Neutral	Neutral	hit	n/a
350.3853	n/a	RESPONSE	n/a	n/a	n/a	n/a	n/a	n/a	n/a	red
350.412	1.0166	ITI	n/a	n/a	n/a	n/a	n/a	n/a	n/a	n/a
351.4286	0.5167	FIXCROSS	n/a	n/a	n/a	n/a	n/a	n/a	n/a	n/a
351.9453	0.8167	COLOR_NAME	35	Incongruent	zielony	green	czerwony	red	hit	n/a
352.732	n/a	RESPONSE	n/a	n/a	n/a	n/a	n/a	n/a	n/a	green
352.762	1.0167	ITI	n/a	n/a	n/a	n/a	n/a	n/a	n/a	n/a
353.7787	0.5167	FIXCROSS	n/a	n/a	n/a	n/a	n/a	n/a	n/a	n/a
354.2954	0.4	COLOR_NAME	36	Neutral	zielony	green	Neutral	Neutral	hit	n/a
354.6637	n/a	RESPONSE	n/a	n/a	n/a	n/a	n/a	n/a	n/a	green
354.6953	1.0167	ITI	n/a	n/a	n/a	n/a	n/a	n/a	n/a	n/a
355.712	0.5167	FIXCROSS	n/a	n/a	n/a	n/a	n/a	n/a	n/a	n/a
356.2287	0.7667	COLOR_NAME	37	Incongruent	niebieski	blue	czerwony	red	hit	n/a
356.9626	n/a	RESPONSE	n/a	n/a	n/a	n/a	n/a	n/a	n/a	blue
356.9954	1.0166	ITI	n/a	n/a	n/a	n/a	n/a	n/a	n/a	n/a
358.012	0.5167	FIXCROSS	n/a	n/a	n/a	n/a	n/a	n/a	n/a	n/a
358.5287	0.7333	COLOR_NAME	38	Incongruent	niebieski	blue	żółty	yellow	hit	n/a
359.2295	n/a	RESPONSE	n/a	n/a	n/a	n/a	n/a	n/a	n/a	blue
359.2621	1.0167	ITI	n/a	n/a	n/a	n/a	n/a	n/a	n/a	n/a
360.2787	0.5167	FIXCROSS	n/a	n/a	n/a	n/a	n/a	n/a	n/a	n/a
360.7954	0.9333	COLOR_NAME	39	Incongruent	zielony	green	żółty	yellow	hit	n/a
361.704	n/a	RESPONSE	n/a	n/a	n/a	n/a	n/a	n/a	n/a	green
361.7288	1.0167	ITI	n/a	n/a	n/a	n/a	n/a	n/a	n/a	n/a
362.7454	0.5167	FIXCROSS	n/a	n/a	n/a	n/a	n/a	n/a	n/a	n/a
363.2621	0.5667	COLOR_NAME	40	Neutral	niebieski	blue	Neutral	Neutral	hit	n/a
363.8113	n/a	RESPONSE	n/a	n/a	n/a	n/a	n/a	n/a	n/a	blue
363.8288	1.0166	ITI	n/a	n/a	n/a	n/a	n/a	n/a	n/a	n/a
364.8454	0.5167	FIXCROSS	n/a	n/a	n/a	n/a	n/a	n/a	n/a	n/a
365.3621	0.6833	COLOR_NAME	41	Incongruent	czerwony	red	zielony	green	hit	n/a
366.0143	n/a	RESPONSE	n/a	n/a	n/a	n/a	n/a	n/a	n/a	red
366.0454	1.0167	ITI	n/a	n/a	n/a	n/a	n/a	n/a	n/a	n/a
367.0621	0.5167	FIXCROSS	n/a	n/a	n/a	n/a	n/a	n/a	n/a	n/a
367.5788	0.6166	COLOR_NAME	42	Neutral	zielony	green	Neutral	Neutral	hit	n/a
368.1696	n/a	RESPONSE	n/a	n/a	n/a	n/a	n/a	n/a	n/a	green
368.1954	1.0167	ITI	n/a	n/a	n/a	n/a	n/a	n/a	n/a	n/a
369.2121	0.5167	FIXCROSS	n/a	n/a	n/a	n/a	n/a	n/a	n/a	n/a
369.7288	0.6833	COLOR_NAME	43	Neutral	żółty	yellow	Neutral	Neutral	hit	n/a
370.3885	n/a	RESPONSE	n/a	n/a	n/a	n/a	n/a	n/a	n/a	yellow
370.4121	1.0167	ITI	n/a	n/a	n/a	n/a	n/a	n/a	n/a	n/a
371.4288	0.5167	FIXCROSS	n/a	n/a	n/a	n/a	n/a	n/a	n/a	n/a
371.9455	0.55	COLOR_NAME	44	Incongruent	żółty	yellow	czerwony	red	hit	n/a
372.464	n/a	RESPONSE	n/a	n/a	n/a	n/a	n/a	n/a	n/a	yellow
372.4955	1.0167	ITI	n/a	n/a	n/a	n/a	n/a	n/a	n/a	n/a
373.5122	0.5166	FIXCROSS	n/a	n/a	n/a	n/a	n/a	n/a	n/a	n/a
374.0288	0.55	COLOR_NAME	45	Incongruent	niebieski	blue	zielony	green	incorrect	n/a
374.5554	n/a	RESPONSE	n/a	n/a	n/a	n/a	n/a	n/a	n/a	red
374.5788	1.0167	ITI	n/a	n/a	n/a	n/a	n/a	n/a	n/a	n/a
375.5955	0.5167	FIXCROSS	n/a	n/a	n/a	n/a	n/a	n/a	n/a	n/a
376.1122	0.75	COLOR_NAME	46	Neutral	zielony	green	Neutral	Neutral	hit	n/a
376.8382	n/a	RESPONSE	n/a	n/a	n/a	n/a	n/a	n/a	n/a	green
376.8622	1.0167	ITI	n/a	n/a	n/a	n/a	n/a	n/a	n/a	n/a
377.8788	0.5167	FIXCROSS	n/a	n/a	n/a	n/a	n/a	n/a	n/a	n/a
378.3955	0.7	COLOR_NAME	47	Neutral	żółty	yellow	Neutral	Neutral	hit	n/a
379.0732	n/a	RESPONSE	n/a	n/a	n/a	n/a	n/a	n/a	n/a	yellow
379.0955	1.0167	ITI	n/a	n/a	n/a	n/a	n/a	n/a	n/a	n/a
380.1122	0.5167	FIXCROSS	n/a	n/a	n/a	n/a	n/a	n/a	n/a	n/a
380.6289	0.6833	COLOR_NAME	48	Incongruent	niebieski	blue	zielony	green	hit	n/a
381.2922	n/a	RESPONSE	n/a	n/a	n/a	n/a	n/a	n/a	n/a	blue
381.3122	1.0167	ITI	n/a	n/a	n/a	n/a	n/a	n/a	n/a	n/a
382.3289	0.5167	FIXCROSS	n/a	n/a	n/a	n/a	n/a	n/a	n/a	n/a
382.8456	0.6333	COLOR_NAME	49	Incongruent	czerwony	red	zielony	green	hit	n/a
383.4474	n/a	RESPONSE	n/a	n/a	n/a	n/a	n/a	n/a	n/a	red
383.4789	1.0167	ITI	n/a	n/a	n/a	n/a	n/a	n/a	n/a	n/a
384.4956	0.5167	FIXCROSS	n/a	n/a	n/a	n/a	n/a	n/a	n/a	n/a
385.0122	0.6667	COLOR_NAME	50	Neutral	zielony	green	Neutral	Neutral	hit	n/a
385.6505	n/a	RESPONSE	n/a	n/a	n/a	n/a	n/a	n/a	n/a	green
385.6789	1.0167	ITI	n/a	n/a	n/a	n/a	n/a	n/a	n/a	n/a
386.6956	0.5167	FIXCROSS	n/a	n/a	n/a	n/a	n/a	n/a	n/a	n/a
387.2123	0.8333	COLOR_NAME	51	Neutral	żółty	yellow	Neutral	Neutral	hit	n/a
388.0132	n/a	RESPONSE	n/a	n/a	n/a	n/a	n/a	n/a	n/a	yellow
388.0456	1.0167	ITI	n/a	n/a	n/a	n/a	n/a	n/a	n/a	n/a
389.0623	0.5167	FIXCROSS	n/a	n/a	n/a	n/a	n/a	n/a	n/a	n/a
389.5789	0.7	COLOR_NAME	52	Incongruent	czerwony	red	niebieski	blue	hit	n/a
390.2483	n/a	RESPONSE	n/a	n/a	n/a	n/a	n/a	n/a	n/a	red
390.2789	1.0167	ITI	n/a	n/a	n/a	n/a	n/a	n/a	n/a	n/a
391.2956	0.5167	FIXCROSS	n/a	n/a	n/a	n/a	n/a	n/a	n/a	n/a
391.8123	0.5833	COLOR_NAME	53	Neutral	czerwony	red	Neutral	Neutral	hit	n/a
392.3715	n/a	RESPONSE	n/a	n/a	n/a	n/a	n/a	n/a	n/a	red
392.3956	1.0167	ITI	n/a	n/a	n/a	n/a	n/a	n/a	n/a	n/a
393.4123	0.5167	FIXCROSS	n/a	n/a	n/a	n/a	n/a	n/a	n/a	n/a
393.929	0.6833	COLOR_NAME	54	Incongruent	zielony	green	niebieski	blue	hit	n/a
394.5905	n/a	RESPONSE	n/a	n/a	n/a	n/a	n/a	n/a	n/a	green
394.6123	1.0167	ITI	n/a	n/a	n/a	n/a	n/a	n/a	n/a	n/a
395.629	0.5167	FIXCROSS	n/a	n/a	n/a	n/a	n/a	n/a	n/a	n/a
396.1457	0.65	COLOR_NAME	55	Neutral	zielony	green	Neutral	Neutral	hit	n/a
396.7617	n/a	RESPONSE	n/a	n/a	n/a	n/a	n/a	n/a	n/a	green
396.7956	1.0167	ITI	n/a	n/a	n/a	n/a	n/a	n/a	n/a	n/a
397.8123	0.5167	FIXCROSS	n/a	n/a	n/a	n/a	n/a	n/a	n/a	n/a
398.329	0.7166	COLOR_NAME	56	Neutral	żółty	yellow	Neutral	Neutral	hit	n/a
399.0126	n/a	RESPONSE	n/a	n/a	n/a	n/a	n/a	n/a	n/a	yellow
399.0457	1.0167	ITI	n/a	n/a	n/a	n/a	n/a	n/a	n/a	n/a
400.0624	0.5167	FIXCROSS	n/a	n/a	n/a	n/a	n/a	n/a	n/a	n/a
400.579	1.1333	COLOR_NAME	57	Incongruent	zielony	green	czerwony	red	hit	n/a
401.6946	n/a	RESPONSE	n/a	n/a	n/a	n/a	n/a	n/a	n/a	green
401.7124	1.0167	ITI	n/a	n/a	n/a	n/a	n/a	n/a	n/a	n/a
402.7291	0.5167	FIXCROSS	n/a	n/a	n/a	n/a	n/a	n/a	n/a	n/a
403.2457	0.6666	COLOR_NAME	58	Neutral	czerwony	red	Neutral	Neutral	hit	n/a
403.8819	n/a	RESPONSE	n/a	n/a	n/a	n/a	n/a	n/a	n/a	red
403.9124	1.0167	ITI	n/a	n/a	n/a	n/a	n/a	n/a	n/a	n/a
404.929	0.5167	FIXCROSS	n/a	n/a	n/a	n/a	n/a	n/a	n/a	n/a
405.4457	0.5166	COLOR_NAME	59	Neutral	niebieski	blue	Neutral	Neutral	hit	n/a
405.9411	n/a	RESPONSE	n/a	n/a	n/a	n/a	n/a	n/a	n/a	blue
405.9624	1.0167	ITI	n/a	n/a	n/a	n/a	n/a	n/a	n/a	n/a
406.9791	0.5167	FIXCROSS	n/a	n/a	n/a	n/a	n/a	n/a	n/a	n/a
407.4957	0.7167	COLOR_NAME	60	Incongruent	niebieski	blue	żółty	yellow	hit	n/a
408.1921	n/a	RESPONSE	n/a	n/a	n/a	n/a	n/a	n/a	n/a	blue
408.2124	1.0167	ITI	n/a	n/a	n/a	n/a	n/a	n/a	n/a	n/a
409.2291	0.5167	FIXCROSS	n/a	n/a	n/a	n/a	n/a	n/a	n/a	n/a
409.7458	0.65	COLOR_NAME	61	Neutral	żółty	yellow	Neutral	Neutral	hit	n/a
410.3633	n/a	RESPONSE	n/a	n/a	n/a	n/a	n/a	n/a	n/a	yellow
410.3958	1.0167	ITI	n/a	n/a	n/a	n/a	n/a	n/a	n/a	n/a
411.4124	0.5167	FIXCROSS	n/a	n/a	n/a	n/a	n/a	n/a	n/a	n/a
411.9291	0.7666	COLOR_NAME	62	Incongruent	żółty	yellow	zielony	green	hit	n/a
412.662	n/a	RESPONSE	n/a	n/a	n/a	n/a	n/a	n/a	n/a	yellow
412.6958	1.0167	ITI	n/a	n/a	n/a	n/a	n/a	n/a	n/a	n/a
413.7124	0.5167	FIXCROSS	n/a	n/a	n/a	n/a	n/a	n/a	n/a	n/a
414.2291	0.7667	COLOR_NAME	63	Incongruent	czerwony	red	zielony	green	hit	n/a
414.9769	n/a	RESPONSE	n/a	n/a	n/a	n/a	n/a	n/a	n/a	red
414.9958	1.0167	ITI	n/a	n/a	n/a	n/a	n/a	n/a	n/a	n/a
416.0125	0.5166	FIXCROSS	n/a	n/a	n/a	n/a	n/a	n/a	n/a	n/a
416.5291	0.7167	COLOR_NAME	64	Neutral	żółty	yellow	Neutral	Neutral	hit	n/a
417.2278	n/a	RESPONSE	n/a	n/a	n/a	n/a	n/a	n/a	n/a	yellow
417.2458	1.0167	ITI	n/a	n/a	n/a	n/a	n/a	n/a	n/a	n/a
418.2625	0.5167	FIXCROSS	n/a	n/a	n/a	n/a	n/a	n/a	n/a	n/a
418.7792	0.6	COLOR_NAME	65	Incongruent	czerwony	red	niebieski	blue	hit	n/a
419.3511	n/a	RESPONSE	n/a	n/a	n/a	n/a	n/a	n/a	n/a	red
419.3791	1.0167	ITI	n/a	n/a	n/a	n/a	n/a	n/a	n/a	n/a
420.3958	0.5167	FIXCROSS	n/a	n/a	n/a	n/a	n/a	n/a	n/a	n/a
420.9125	0.6667	COLOR_NAME	66	Neutral	niebieski	blue	Neutral	Neutral	hit	n/a
421.5541	n/a	RESPONSE	n/a	n/a	n/a	n/a	n/a	n/a	n/a	blue
421.5792	1.0167	ITI	n/a	n/a	n/a	n/a	n/a	n/a	n/a	n/a
422.5959	0.5166	FIXCROSS	n/a	n/a	n/a	n/a	n/a	n/a	n/a	n/a
423.1125	0.5	COLOR_NAME	67	Incongruent	żółty	yellow	zielony	green	hit	n/a
423.5816	n/a	RESPONSE	n/a	n/a	n/a	n/a	n/a	n/a	n/a	yellow
423.6125	1.0166	ITI	n/a	n/a	n/a	n/a	n/a	n/a	n/a	n/a
424.6292	0.5167	FIXCROSS	n/a	n/a	n/a	n/a	n/a	n/a	n/a	n/a
425.1459	0.7166	COLOR_NAME	68	Incongruent	zielony	green	niebieski	blue	hit	n/a
425.8326	n/a	RESPONSE	n/a	n/a	n/a	n/a	n/a	n/a	n/a	green
425.8625	1.0167	ITI	n/a	n/a	n/a	n/a	n/a	n/a	n/a	n/a
426.8792	0.5167	FIXCROSS	n/a	n/a	n/a	n/a	n/a	n/a	n/a	n/a
427.3959	0.7	COLOR_NAME	69	Incongruent	niebieski	blue	zielony	green	hit	n/a
428.0677	n/a	RESPONSE	n/a	n/a	n/a	n/a	n/a	n/a	n/a	blue
428.0959	1.0166	ITI	n/a	n/a	n/a	n/a	n/a	n/a	n/a	n/a
429.1125	0.5167	FIXCROSS	n/a	n/a	n/a	n/a	n/a	n/a	n/a	n/a
429.6292	0.5333	COLOR_NAME	70	Neutral	niebieski	blue	Neutral	Neutral	hit	n/a
430.1429	n/a	RESPONSE	n/a	n/a	n/a	n/a	n/a	n/a	n/a	blue
430.1626	1.0166	ITI	n/a	n/a	n/a	n/a	n/a	n/a	n/a	n/a
431.1792	0.5167	FIXCROSS	n/a	n/a	n/a	n/a	n/a	n/a	n/a	n/a
431.6959	0.6333	COLOR_NAME	71	Neutral	żółty	yellow	Neutral	Neutral	hit	n/a
432.2982	n/a	RESPONSE	n/a	n/a	n/a	n/a	n/a	n/a	n/a	yellow
432.3292	1.0167	ITI	n/a	n/a	n/a	n/a	n/a	n/a	n/a	n/a
433.3459	0.5166	FIXCROSS	n/a	n/a	n/a	n/a	n/a	n/a	n/a	n/a
433.8626	0.8	COLOR_NAME	72	Incongruent	zielony	green	żółty	yellow	hit	n/a
434.6449	n/a	RESPONSE	n/a	n/a	n/a	n/a	n/a	n/a	n/a	green
434.6626	1.0333	ITI	n/a	n/a	n/a	n/a	n/a	n/a	n/a	n/a
439.0351	n/a	RESPONSE	n/a	n/a	n/a	n/a	n/a	n/a	n/a	n/a
