onset	duration	trial_type	trial_number	stroop_condition	stim_text(PL)	stim_text(eng)	stim_color(PL)	stim_color(eng)	response_type	response_color
0.0	n/a	RESPONSE	n/a	n/a	n/a	n/a	n/a	n/a	n/a	green
0.8145	n/a	RESPONSE	n/a	n/a	n/a	n/a	n/a	n/a	n/a	n/a
0.8928	1.0167	ITI	n/a	n/a	n/a	n/a	n/a	n/a	n/a	n/a
1.9095	0.5	FIXCROSS	n/a	n/a	n/a	n/a	n/a	n/a	n/a	n/a
2.4095	1.6334	T_INK	1	Neutral	xxxxxxxxx	xxxxxxxxx	czerwony	red	hit	n/a
4.0243	n/a	RESPONSE	n/a	n/a	n/a	n/a	n/a	n/a	n/a	red
4.0428	0.5	FEEDBACK	n/a	n/a	n/a	n/a	n/a	n/a	n/a	n/a
4.5429	1.0	ITI	n/a	n/a	n/a	n/a	n/a	n/a	n/a	n/a
5.5429	0.5	FIXCROSS	n/a	n/a	n/a	n/a	n/a	n/a	n/a	n/a
6.0429	1.1167	T_INK	2	Neutral	xxxxxxxx	xxxxxxxx	zielony	green	hit	n/a
7.1384	n/a	RESPONSE	n/a	n/a	n/a	n/a	n/a	n/a	n/a	green
7.1596	0.5	FEEDBACK	n/a	n/a	n/a	n/a	n/a	n/a	n/a	n/a
7.6596	1.0	ITI	n/a	n/a	n/a	n/a	n/a	n/a	n/a	n/a
8.6596	0.5	FIXCROSS	n/a	n/a	n/a	n/a	n/a	n/a	n/a	n/a
9.1596	1.0833	T_INK	3	Incongruent	zielony	green	czerwony	red	hit	n/a
10.2364	n/a	RESPONSE	n/a	n/a	n/a	n/a	n/a	n/a	n/a	red
10.2429	0.5	FEEDBACK	n/a	n/a	n/a	n/a	n/a	n/a	n/a	n/a
10.7429	1.0	ITI	n/a	n/a	n/a	n/a	n/a	n/a	n/a	n/a
11.743	0.5	FIXCROSS	n/a	n/a	n/a	n/a	n/a	n/a	n/a	n/a
12.243	0.9167	T_INK	4	Neutral	xxxxxxx	xxxxxxx	niebieski	blue	hit	n/a
13.143	n/a	RESPONSE	n/a	n/a	n/a	n/a	n/a	n/a	n/a	blue
13.1596	0.5	FEEDBACK	n/a	n/a	n/a	n/a	n/a	n/a	n/a	n/a
13.6596	1.0	ITI	n/a	n/a	n/a	n/a	n/a	n/a	n/a	n/a
14.6596	0.5	FIXCROSS	n/a	n/a	n/a	n/a	n/a	n/a	n/a	n/a
15.1597	0.8167	T_INK	5	Incongruent	niebieski	blue	żółty	yellow	hit	n/a
15.9696	n/a	RESPONSE	n/a	n/a	n/a	n/a	n/a	n/a	n/a	yellow
15.9763	0.5	FEEDBACK	n/a	n/a	n/a	n/a	n/a	n/a	n/a	n/a
16.4763	1.0	ITI	n/a	n/a	n/a	n/a	n/a	n/a	n/a	n/a
17.4763	0.5	FIXCROSS	n/a	n/a	n/a	n/a	n/a	n/a	n/a	n/a
17.9764	0.6	T_INK	6	Neutral	xxxxxxx	xxxxxxx	żółty	yellow	hit	n/a
18.5566	n/a	RESPONSE	n/a	n/a	n/a	n/a	n/a	n/a	n/a	yellow
18.5764	0.5	FEEDBACK	n/a	n/a	n/a	n/a	n/a	n/a	n/a	n/a
19.0764	1.0	ITI	n/a	n/a	n/a	n/a	n/a	n/a	n/a	n/a
20.0764	0.5	FIXCROSS	n/a	n/a	n/a	n/a	n/a	n/a	n/a	n/a
20.5764	0.7	T_INK	7	Neutral	xxxxxxxx	xxxxxxxx	niebieski	blue	hit	n/a
21.2555	n/a	RESPONSE	n/a	n/a	n/a	n/a	n/a	n/a	n/a	blue
21.2764	0.5	FEEDBACK	n/a	n/a	n/a	n/a	n/a	n/a	n/a	n/a
21.7764	1.0	ITI	n/a	n/a	n/a	n/a	n/a	n/a	n/a	n/a
22.7764	0.5	FIXCROSS	n/a	n/a	n/a	n/a	n/a	n/a	n/a	n/a
23.2764	0.6667	T_INK	8	Neutral	xxxxxxxx	xxxxxxxx	żółty	yellow	hit	n/a
23.9224	n/a	RESPONSE	n/a	n/a	n/a	n/a	n/a	n/a	n/a	yellow
23.9431	0.5	FEEDBACK	n/a	n/a	n/a	n/a	n/a	n/a	n/a	n/a
24.4431	1.0	ITI	n/a	n/a	n/a	n/a	n/a	n/a	n/a	n/a
25.4431	0.5	FIXCROSS	n/a	n/a	n/a	n/a	n/a	n/a	n/a	n/a
25.9431	0.8167	T_INK	9	Neutral	xxxxx	xxxxx	niebieski	blue	hit	n/a
26.749	n/a	RESPONSE	n/a	n/a	n/a	n/a	n/a	n/a	n/a	blue
26.7598	0.5	FEEDBACK	n/a	n/a	n/a	n/a	n/a	n/a	n/a	n/a
27.2598	1.0	ITI	n/a	n/a	n/a	n/a	n/a	n/a	n/a	n/a
28.2598	0.5	FIXCROSS	n/a	n/a	n/a	n/a	n/a	n/a	n/a	n/a
28.7598	0.8	T_INK	10	Incongruent	zielony	green	żółty	yellow	hit	n/a
29.5438	n/a	RESPONSE	n/a	n/a	n/a	n/a	n/a	n/a	n/a	yellow
29.5598	0.5	FEEDBACK	n/a	n/a	n/a	n/a	n/a	n/a	n/a	n/a
30.0598	1.0	ITI	n/a	n/a	n/a	n/a	n/a	n/a	n/a	n/a
31.0599	0.5	FIXCROSS	n/a	n/a	n/a	n/a	n/a	n/a	n/a	n/a
31.5599	1.3834	T_INK	11	Incongruent	czerwony	red	zielony	green	hit	n/a
32.9292	n/a	RESPONSE	n/a	n/a	n/a	n/a	n/a	n/a	n/a	green
32.9432	0.5333	FEEDBACK	n/a	n/a	n/a	n/a	n/a	n/a	n/a	n/a
33.4766	1.0333	ITI	n/a	n/a	n/a	n/a	n/a	n/a	n/a	n/a
34.5099	0.5333	FIXCROSS	n/a	n/a	n/a	n/a	n/a	n/a	n/a	n/a
35.0432	0.8333	T_INK	12	Incongruent	czerwony	red	niebieski	blue	hit	n/a
35.8357	n/a	RESPONSE	n/a	n/a	n/a	n/a	n/a	n/a	n/a	blue
35.8766	0.5333	FEEDBACK	n/a	n/a	n/a	n/a	n/a	n/a	n/a	n/a
36.4099	1.05	ITI	n/a	n/a	n/a	n/a	n/a	n/a	n/a	n/a
39.7483	n/a	RESPONSE	n/a	n/a	n/a	n/a	n/a	n/a	n/a	n/a
39.8266	1.0333	ITI	n/a	n/a	n/a	n/a	n/a	n/a	n/a	n/a
40.86	0.5333	FIXCROSS	n/a	n/a	n/a	n/a	n/a	n/a	n/a	n/a
41.3933	1.25	INK	1	Neutral	xxxxxxx	xxxxxxx	żółty	yellow	hit	n/a
42.6068	n/a	RESPONSE	n/a	n/a	n/a	n/a	n/a	n/a	n/a	yellow
42.6433	1.0334	ITI	n/a	n/a	n/a	n/a	n/a	n/a	n/a	n/a
43.6767	0.5333	FIXCROSS	n/a	n/a	n/a	n/a	n/a	n/a	n/a	n/a
44.21	0.5667	INK	2	Incongruent	czerwony	red	niebieski	blue	hit	n/a
44.7468	n/a	RESPONSE	n/a	n/a	n/a	n/a	n/a	n/a	n/a	blue
44.7767	1.0334	ITI	n/a	n/a	n/a	n/a	n/a	n/a	n/a	n/a
45.8101	0.5333	FIXCROSS	n/a	n/a	n/a	n/a	n/a	n/a	n/a	n/a
46.3434	0.75	INK	3	Incongruent	zielony	green	czerwony	red	hit	n/a
47.0624	n/a	RESPONSE	n/a	n/a	n/a	n/a	n/a	n/a	n/a	red
47.0934	1.0334	ITI	n/a	n/a	n/a	n/a	n/a	n/a	n/a	n/a
48.1267	0.5333	FIXCROSS	n/a	n/a	n/a	n/a	n/a	n/a	n/a	n/a
48.6601	0.8	INK	4	Neutral	xxxxxxx	xxxxxxx	czerwony	red	hit	n/a
49.4259	n/a	RESPONSE	n/a	n/a	n/a	n/a	n/a	n/a	n/a	red
49.4601	1.0333	ITI	n/a	n/a	n/a	n/a	n/a	n/a	n/a	n/a
50.4934	0.5333	FIXCROSS	n/a	n/a	n/a	n/a	n/a	n/a	n/a	n/a
51.0268	0.6333	INK	5	Neutral	xxxxxxxx	xxxxxxxx	żółty	yellow	hit	n/a
51.6137	n/a	RESPONSE	n/a	n/a	n/a	n/a	n/a	n/a	n/a	yellow
51.6601	1.0333	ITI	n/a	n/a	n/a	n/a	n/a	n/a	n/a	n/a
52.6935	0.5333	FIXCROSS	n/a	n/a	n/a	n/a	n/a	n/a	n/a	n/a
53.2268	0.7167	INK	6	Neutral	xxxxxxxxx	xxxxxxxxx	żółty	yellow	hit	n/a
53.8973	n/a	RESPONSE	n/a	n/a	n/a	n/a	n/a	n/a	n/a	yellow
53.9435	1.0333	ITI	n/a	n/a	n/a	n/a	n/a	n/a	n/a	n/a
54.9768	0.5333	FIXCROSS	n/a	n/a	n/a	n/a	n/a	n/a	n/a	n/a
55.5101	0.95	INK	7	Incongruent	niebieski	blue	żółty	yellow	hit	n/a
56.4206	n/a	RESPONSE	n/a	n/a	n/a	n/a	n/a	n/a	n/a	yellow
56.4602	1.0333	ITI	n/a	n/a	n/a	n/a	n/a	n/a	n/a	n/a
57.4935	0.5333	FIXCROSS	n/a	n/a	n/a	n/a	n/a	n/a	n/a	n/a
58.0269	0.8	INK	8	Incongruent	czerwony	red	żółty	yellow	hit	n/a
58.784	n/a	RESPONSE	n/a	n/a	n/a	n/a	n/a	n/a	n/a	yellow
58.8269	1.0334	ITI	n/a	n/a	n/a	n/a	n/a	n/a	n/a	n/a
59.8602	0.5333	FIXCROSS	n/a	n/a	n/a	n/a	n/a	n/a	n/a	n/a
60.3936	1.0	INK	9	Neutral	xxxxx	xxxxx	zielony	green	hit	n/a
61.3551	n/a	RESPONSE	n/a	n/a	n/a	n/a	n/a	n/a	n/a	green
61.3936	1.0333	ITI	n/a	n/a	n/a	n/a	n/a	n/a	n/a	n/a
62.4269	0.5333	FIXCROSS	n/a	n/a	n/a	n/a	n/a	n/a	n/a	n/a
62.9603	0.8167	INK	10	Incongruent	czerwony	red	niebieski	blue	hit	n/a
63.7346	n/a	RESPONSE	n/a	n/a	n/a	n/a	n/a	n/a	n/a	blue
63.7769	1.0333	ITI	n/a	n/a	n/a	n/a	n/a	n/a	n/a	n/a
64.8103	0.5333	FIXCROSS	n/a	n/a	n/a	n/a	n/a	n/a	n/a	n/a
65.3436	0.9667	INK	11	Incongruent	zielony	green	niebieski	blue	hit	n/a
66.2739	n/a	RESPONSE	n/a	n/a	n/a	n/a	n/a	n/a	n/a	blue
66.3103	1.0333	ITI	n/a	n/a	n/a	n/a	n/a	n/a	n/a	n/a
67.3436	0.5333	FIXCROSS	n/a	n/a	n/a	n/a	n/a	n/a	n/a	n/a
67.877	0.9	INK	12	Incongruent	niebieski	blue	zielony	green	hit	n/a
68.7331	n/a	RESPONSE	n/a	n/a	n/a	n/a	n/a	n/a	n/a	green
68.777	1.0334	ITI	n/a	n/a	n/a	n/a	n/a	n/a	n/a	n/a
69.8104	0.5333	FIXCROSS	n/a	n/a	n/a	n/a	n/a	n/a	n/a	n/a
70.3437	0.7	INK	13	Neutral	xxxxxxxxx	xxxxxxxxx	żółty	yellow	hit	n/a
71.0008	n/a	RESPONSE	n/a	n/a	n/a	n/a	n/a	n/a	n/a	yellow
71.0437	1.0333	ITI	n/a	n/a	n/a	n/a	n/a	n/a	n/a	n/a
72.077	0.5333	FIXCROSS	n/a	n/a	n/a	n/a	n/a	n/a	n/a	n/a
72.6104	0.8333	INK	14	Neutral	xxxxxxx	xxxxxxx	niebieski	blue	hit	n/a
73.4122	n/a	RESPONSE	n/a	n/a	n/a	n/a	n/a	n/a	n/a	blue
73.4437	1.0333	ITI	n/a	n/a	n/a	n/a	n/a	n/a	n/a	n/a
74.4771	0.5333	FIXCROSS	n/a	n/a	n/a	n/a	n/a	n/a	n/a	n/a
75.0104	0.5833	INK	15	Neutral	xxxxxxxxx	xxxxxxxxx	żółty	yellow	hit	n/a
75.5522	n/a	RESPONSE	n/a	n/a	n/a	n/a	n/a	n/a	n/a	yellow
75.5938	1.0334	ITI	n/a	n/a	n/a	n/a	n/a	n/a	n/a	n/a
76.6271	0.5333	FIXCROSS	n/a	n/a	n/a	n/a	n/a	n/a	n/a	n/a
77.1604	0.75	INK	16	Neutral	xxxxxxx	xxxxxxx	czerwony	red	hit	n/a
77.8678	n/a	RESPONSE	n/a	n/a	n/a	n/a	n/a	n/a	n/a	red
77.9105	1.0333	ITI	n/a	n/a	n/a	n/a	n/a	n/a	n/a	n/a
78.9438	0.5333	FIXCROSS	n/a	n/a	n/a	n/a	n/a	n/a	n/a	n/a
79.4771	1.05	INK	17	Incongruent	czerwony	red	niebieski	blue	hit	n/a
80.4867	n/a	RESPONSE	n/a	n/a	n/a	n/a	n/a	n/a	n/a	blue
80.5272	1.0334	ITI	n/a	n/a	n/a	n/a	n/a	n/a	n/a	n/a
81.5605	0.5333	FIXCROSS	n/a	n/a	n/a	n/a	n/a	n/a	n/a	n/a
82.0938	0.6833	INK	18	Neutral	xxxxxxxx	xxxxxxxx	żółty	yellow	hit	n/a
82.7385	n/a	RESPONSE	n/a	n/a	n/a	n/a	n/a	n/a	n/a	yellow
82.7772	1.0333	ITI	n/a	n/a	n/a	n/a	n/a	n/a	n/a	n/a
83.8105	0.5333	FIXCROSS	n/a	n/a	n/a	n/a	n/a	n/a	n/a	n/a
84.3439	0.7667	INK	19	Neutral	xxxxx	xxxxx	niebieski	blue	hit	n/a
85.07	n/a	RESPONSE	n/a	n/a	n/a	n/a	n/a	n/a	n/a	blue
85.1105	1.0333	ITI	n/a	n/a	n/a	n/a	n/a	n/a	n/a	n/a
86.1439	0.5333	FIXCROSS	n/a	n/a	n/a	n/a	n/a	n/a	n/a	n/a
86.6772	0.8333	INK	20	Incongruent	czerwony	red	zielony	green	hit	n/a
87.4815	n/a	RESPONSE	n/a	n/a	n/a	n/a	n/a	n/a	n/a	green
87.5106	1.0333	ITI	n/a	n/a	n/a	n/a	n/a	n/a	n/a	n/a
88.5439	0.5333	FIXCROSS	n/a	n/a	n/a	n/a	n/a	n/a	n/a	n/a
89.0773	0.7	INK	21	Neutral	xxxxxxx	xxxxxxx	żółty	yellow	hit	n/a
89.7492	n/a	RESPONSE	n/a	n/a	n/a	n/a	n/a	n/a	n/a	yellow
89.7773	1.0333	ITI	n/a	n/a	n/a	n/a	n/a	n/a	n/a	n/a
90.8106	0.5333	FIXCROSS	n/a	n/a	n/a	n/a	n/a	n/a	n/a	n/a
91.344	0.9667	INK	22	Incongruent	niebieski	blue	czerwony	red	hit	n/a
92.2723	n/a	RESPONSE	n/a	n/a	n/a	n/a	n/a	n/a	n/a	red
92.3106	1.0334	ITI	n/a	n/a	n/a	n/a	n/a	n/a	n/a	n/a
93.344	0.5333	FIXCROSS	n/a	n/a	n/a	n/a	n/a	n/a	n/a	n/a
93.8773	0.7	INK	23	Incongruent	zielony	green	czerwony	red	hit	n/a
94.54	n/a	RESPONSE	n/a	n/a	n/a	n/a	n/a	n/a	n/a	red
94.5773	1.0333	ITI	n/a	n/a	n/a	n/a	n/a	n/a	n/a	n/a
95.6107	0.5334	FIXCROSS	n/a	n/a	n/a	n/a	n/a	n/a	n/a	n/a
96.144	0.7333	INK	24	Incongruent	zielony	green	żółty	yellow	hit	n/a
96.8396	n/a	RESPONSE	n/a	n/a	n/a	n/a	n/a	n/a	n/a	yellow
96.8774	1.0333	ITI	n/a	n/a	n/a	n/a	n/a	n/a	n/a	n/a
97.9107	0.5333	FIXCROSS	n/a	n/a	n/a	n/a	n/a	n/a	n/a	n/a
98.444	0.8667	INK	25	Incongruent	czerwony	red	zielony	green	hit	n/a
99.267	n/a	RESPONSE	n/a	n/a	n/a	n/a	n/a	n/a	n/a	green
99.3107	1.0333	ITI	n/a	n/a	n/a	n/a	n/a	n/a	n/a	n/a
100.3441	0.5333	FIXCROSS	n/a	n/a	n/a	n/a	n/a	n/a	n/a	n/a
100.8774	0.8667	INK	26	Incongruent	niebieski	blue	czerwony	red	hit	n/a
101.7104	n/a	RESPONSE	n/a	n/a	n/a	n/a	n/a	n/a	n/a	red
101.7441	1.0333	ITI	n/a	n/a	n/a	n/a	n/a	n/a	n/a	n/a
102.7774	0.5333	FIXCROSS	n/a	n/a	n/a	n/a	n/a	n/a	n/a	n/a
103.3108	0.9	INK	27	Neutral	xxxxx	xxxxx	niebieski	blue	hit	n/a
104.1696	n/a	RESPONSE	n/a	n/a	n/a	n/a	n/a	n/a	n/a	blue
104.2108	1.0334	ITI	n/a	n/a	n/a	n/a	n/a	n/a	n/a	n/a
105.2441	0.5333	FIXCROSS	n/a	n/a	n/a	n/a	n/a	n/a	n/a	n/a
105.7775	0.6667	INK	28	Neutral	xxxxxxx	xxxxxxx	czerwony	red	hit	n/a
106.4054	n/a	RESPONSE	n/a	n/a	n/a	n/a	n/a	n/a	n/a	red
106.4441	1.0333	ITI	n/a	n/a	n/a	n/a	n/a	n/a	n/a	n/a
107.4775	0.5334	FIXCROSS	n/a	n/a	n/a	n/a	n/a	n/a	n/a	n/a
108.0108	0.85	INK	29	Neutral	xxxxxxxx	xxxxxxxx	zielony	green	hit	n/a
108.8328	n/a	RESPONSE	n/a	n/a	n/a	n/a	n/a	n/a	n/a	green
108.8608	1.0333	ITI	n/a	n/a	n/a	n/a	n/a	n/a	n/a	n/a
109.8942	0.5333	FIXCROSS	n/a	n/a	n/a	n/a	n/a	n/a	n/a	n/a
110.4275	0.7167	INK	30	Neutral	xxxxxxxx	xxxxxxxx	niebieski	blue	hit	n/a
111.1005	n/a	RESPONSE	n/a	n/a	n/a	n/a	n/a	n/a	n/a	blue
111.1442	1.0333	ITI	n/a	n/a	n/a	n/a	n/a	n/a	n/a	n/a
112.1775	0.5333	FIXCROSS	n/a	n/a	n/a	n/a	n/a	n/a	n/a	n/a
112.7109	0.7167	INK	31	Neutral	xxxxxxxxx	xxxxxxxxx	czerwony	red	hit	n/a
113.3841	n/a	RESPONSE	n/a	n/a	n/a	n/a	n/a	n/a	n/a	red
113.4276	1.0334	ITI	n/a	n/a	n/a	n/a	n/a	n/a	n/a	n/a
113.6397	n/a	RESPONSE	n/a	n/a	n/a	n/a	n/a	n/a	n/a	red
114.4609	0.5333	FIXCROSS	n/a	n/a	n/a	n/a	n/a	n/a	n/a	n/a
114.9942	0.8167	INK	32	Incongruent	czerwony	red	zielony	green	hit	n/a
115.7795	n/a	RESPONSE	n/a	n/a	n/a	n/a	n/a	n/a	n/a	green
115.8109	1.0333	ITI	n/a	n/a	n/a	n/a	n/a	n/a	n/a	n/a
116.8443	0.5333	FIXCROSS	n/a	n/a	n/a	n/a	n/a	n/a	n/a	n/a
117.3776	1.05	INK	33	Incongruent	żółty	yellow	czerwony	red	hit	n/a
118.3986	n/a	RESPONSE	n/a	n/a	n/a	n/a	n/a	n/a	n/a	red
118.4276	1.0334	ITI	n/a	n/a	n/a	n/a	n/a	n/a	n/a	n/a
119.461	0.5333	FIXCROSS	n/a	n/a	n/a	n/a	n/a	n/a	n/a	n/a
119.9943	1.1833	INK	34	Neutral	xxxxxxxx	xxxxxxxx	niebieski	blue	hit	n/a
121.1453	n/a	RESPONSE	n/a	n/a	n/a	n/a	n/a	n/a	n/a	blue
121.1777	1.0333	ITI	n/a	n/a	n/a	n/a	n/a	n/a	n/a	n/a
122.211	0.5333	FIXCROSS	n/a	n/a	n/a	n/a	n/a	n/a	n/a	n/a
122.7443	0.7	INK	35	Neutral	xxxxxxxx	xxxxxxxx	zielony	green	hit	n/a
123.4129	n/a	RESPONSE	n/a	n/a	n/a	n/a	n/a	n/a	n/a	green
123.4443	1.0333	ITI	n/a	n/a	n/a	n/a	n/a	n/a	n/a	n/a
124.4777	0.5333	FIXCROSS	n/a	n/a	n/a	n/a	n/a	n/a	n/a	n/a
125.011	0.9833	INK	36	Incongruent	niebieski	blue	zielony	green	hit	n/a
125.9521	n/a	RESPONSE	n/a	n/a	n/a	n/a	n/a	n/a	n/a	green
125.9944	1.0333	ITI	n/a	n/a	n/a	n/a	n/a	n/a	n/a	n/a
127.0277	0.5333	FIXCROSS	n/a	n/a	n/a	n/a	n/a	n/a	n/a	n/a
127.5611	0.7	INK	37	Incongruent	zielony	green	czerwony	red	hit	n/a
128.2198	n/a	RESPONSE	n/a	n/a	n/a	n/a	n/a	n/a	n/a	red
128.2611	1.0334	ITI	n/a	n/a	n/a	n/a	n/a	n/a	n/a	n/a
129.2944	0.5333	FIXCROSS	n/a	n/a	n/a	n/a	n/a	n/a	n/a	n/a
129.8278	0.7833	INK	38	Incongruent	niebieski	blue	żółty	yellow	hit	n/a
130.5674	n/a	RESPONSE	n/a	n/a	n/a	n/a	n/a	n/a	n/a	yellow
130.6111	1.0333	ITI	n/a	n/a	n/a	n/a	n/a	n/a	n/a	n/a
131.6444	0.5333	FIXCROSS	n/a	n/a	n/a	n/a	n/a	n/a	n/a	n/a
132.1778	0.65	INK	39	Incongruent	zielony	green	żółty	yellow	hit	n/a
132.7871	n/a	RESPONSE	n/a	n/a	n/a	n/a	n/a	n/a	n/a	yellow
132.8278	1.0333	ITI	n/a	n/a	n/a	n/a	n/a	n/a	n/a	n/a
133.8611	0.5333	FIXCROSS	n/a	n/a	n/a	n/a	n/a	n/a	n/a	n/a
134.3945	1.1667	INK	40	Incongruent	żółty	yellow	zielony	green	hit	n/a
135.518	n/a	RESPONSE	n/a	n/a	n/a	n/a	n/a	n/a	n/a	green
135.5612	1.0334	ITI	n/a	n/a	n/a	n/a	n/a	n/a	n/a	n/a
136.5945	0.5333	FIXCROSS	n/a	n/a	n/a	n/a	n/a	n/a	n/a	n/a
137.1279	1.0667	INK	41	Incongruent	zielony	green	żółty	yellow	hit	n/a
138.153	n/a	RESPONSE	n/a	n/a	n/a	n/a	n/a	n/a	n/a	yellow
138.1945	1.0333	ITI	n/a	n/a	n/a	n/a	n/a	n/a	n/a	n/a
139.2279	0.5334	FIXCROSS	n/a	n/a	n/a	n/a	n/a	n/a	n/a	n/a
139.7612	0.6667	INK	42	Neutral	xxxxx	xxxxx	czerwony	red	hit	n/a
140.3886	n/a	RESPONSE	n/a	n/a	n/a	n/a	n/a	n/a	n/a	red
140.4279	1.0333	ITI	n/a	n/a	n/a	n/a	n/a	n/a	n/a	n/a
141.4612	0.5333	FIXCROSS	n/a	n/a	n/a	n/a	n/a	n/a	n/a	n/a
141.9946	0.8333	INK	43	Neutral	xxxxxxxx	xxxxxxxx	żółty	yellow	hit	n/a
142.7841	n/a	RESPONSE	n/a	n/a	n/a	n/a	n/a	n/a	n/a	yellow
142.8279	1.0333	ITI	n/a	n/a	n/a	n/a	n/a	n/a	n/a	n/a
143.8613	0.5333	FIXCROSS	n/a	n/a	n/a	n/a	n/a	n/a	n/a	n/a
144.3946	1.35	INK	44	Incongruent	niebieski	blue	żółty	yellow	hit	n/a
145.7065	n/a	RESPONSE	n/a	n/a	n/a	n/a	n/a	n/a	n/a	yellow
145.7446	1.0333	ITI	n/a	n/a	n/a	n/a	n/a	n/a	n/a	n/a
146.778	0.5333	FIXCROSS	n/a	n/a	n/a	n/a	n/a	n/a	n/a	n/a
147.3113	0.7667	INK	45	Neutral	xxxxx	xxxxx	zielony	green	hit	n/a
148.0381	n/a	RESPONSE	n/a	n/a	n/a	n/a	n/a	n/a	n/a	green
148.078	1.0334	ITI	n/a	n/a	n/a	n/a	n/a	n/a	n/a	n/a
149.1113	0.5333	FIXCROSS	n/a	n/a	n/a	n/a	n/a	n/a	n/a	n/a
149.6447	0.7833	INK	46	Neutral	xxxxxxxx	xxxxxxxx	niebieski	blue	hit	n/a
150.3856	n/a	RESPONSE	n/a	n/a	n/a	n/a	n/a	n/a	n/a	blue
150.428	1.0333	ITI	n/a	n/a	n/a	n/a	n/a	n/a	n/a	n/a
151.4614	0.5333	FIXCROSS	n/a	n/a	n/a	n/a	n/a	n/a	n/a	n/a
151.9947	0.8833	INK	47	Neutral	xxxxxxxxx	xxxxxxxxx	czerwony	red	hit	n/a
152.8449	n/a	RESPONSE	n/a	n/a	n/a	n/a	n/a	n/a	n/a	red
152.878	1.0333	ITI	n/a	n/a	n/a	n/a	n/a	n/a	n/a	n/a
153.9114	0.5333	FIXCROSS	n/a	n/a	n/a	n/a	n/a	n/a	n/a	n/a
154.4447	0.8	INK	48	Neutral	xxxxxxx	xxxxxxx	żółty	yellow	hit	n/a
155.2084	n/a	RESPONSE	n/a	n/a	n/a	n/a	n/a	n/a	n/a	yellow
155.2447	1.0334	ITI	n/a	n/a	n/a	n/a	n/a	n/a	n/a	n/a
156.2781	0.5333	FIXCROSS	n/a	n/a	n/a	n/a	n/a	n/a	n/a	n/a
156.8114	0.9167	INK	49	Neutral	xxxxxxx	xxxxxxx	niebieski	blue	hit	n/a
157.6997	n/a	RESPONSE	n/a	n/a	n/a	n/a	n/a	n/a	n/a	blue
157.7281	1.0334	ITI	n/a	n/a	n/a	n/a	n/a	n/a	n/a	n/a
158.7615	0.5333	FIXCROSS	n/a	n/a	n/a	n/a	n/a	n/a	n/a	n/a
159.2948	0.85	INK	50	Neutral	xxxxxxxx	xxxxxxxx	zielony	green	hit	n/a
160.1111	n/a	RESPONSE	n/a	n/a	n/a	n/a	n/a	n/a	n/a	green
160.1448	1.0333	ITI	n/a	n/a	n/a	n/a	n/a	n/a	n/a	n/a
161.1781	0.5334	FIXCROSS	n/a	n/a	n/a	n/a	n/a	n/a	n/a	n/a
161.7115	0.8	INK	51	Incongruent	zielony	green	niebieski	blue	hit	n/a
162.4747	n/a	RESPONSE	n/a	n/a	n/a	n/a	n/a	n/a	n/a	blue
162.5115	1.0333	ITI	n/a	n/a	n/a	n/a	n/a	n/a	n/a	n/a
163.5448	0.5333	FIXCROSS	n/a	n/a	n/a	n/a	n/a	n/a	n/a	n/a
164.0782	0.7667	INK	52	Incongruent	zielony	green	niebieski	blue	hit	n/a
164.8063	n/a	RESPONSE	n/a	n/a	n/a	n/a	n/a	n/a	n/a	blue
164.8449	1.0333	ITI	n/a	n/a	n/a	n/a	n/a	n/a	n/a	n/a
165.8782	0.5333	FIXCROSS	n/a	n/a	n/a	n/a	n/a	n/a	n/a	n/a
166.4115	0.8667	INK	53	Neutral	xxxxxxxxx	xxxxxxxxx	zielony	green	hit	n/a
167.2496	n/a	RESPONSE	n/a	n/a	n/a	n/a	n/a	n/a	n/a	green
167.2782	1.0334	ITI	n/a	n/a	n/a	n/a	n/a	n/a	n/a	n/a
168.3116	0.5333	FIXCROSS	n/a	n/a	n/a	n/a	n/a	n/a	n/a	n/a
168.8449	0.8167	INK	54	Incongruent	niebieski	blue	zielony	green	hit	n/a
169.6291	n/a	RESPONSE	n/a	n/a	n/a	n/a	n/a	n/a	n/a	green
169.6616	1.0333	ITI	n/a	n/a	n/a	n/a	n/a	n/a	n/a	n/a
170.6949	0.5333	FIXCROSS	n/a	n/a	n/a	n/a	n/a	n/a	n/a	n/a
171.2283	0.7	INK	55	Neutral	xxxxxxxxx	xxxxxxxxx	zielony	green	hit	n/a
171.8967	n/a	RESPONSE	n/a	n/a	n/a	n/a	n/a	n/a	n/a	green
171.9283	1.0334	ITI	n/a	n/a	n/a	n/a	n/a	n/a	n/a	n/a
172.9616	0.5333	FIXCROSS	n/a	n/a	n/a	n/a	n/a	n/a	n/a	n/a
173.495	2.0	INK	56	Incongruent	czerwony	red	żółty	yellow	hit	n/a
175.458	n/a	RESPONSE	n/a	n/a	n/a	n/a	n/a	n/a	n/a	yellow
175.495	1.0334	ITI	n/a	n/a	n/a	n/a	n/a	n/a	n/a	n/a
176.5283	0.5333	FIXCROSS	n/a	n/a	n/a	n/a	n/a	n/a	n/a	n/a
177.0617	0.8833	INK	57	Neutral	xxxxxxxxx	xxxxxxxxx	czerwony	red	hit	n/a
177.9013	n/a	RESPONSE	n/a	n/a	n/a	n/a	n/a	n/a	n/a	red
177.945	1.0333	ITI	n/a	n/a	n/a	n/a	n/a	n/a	n/a	n/a
178.9784	0.5333	FIXCROSS	n/a	n/a	n/a	n/a	n/a	n/a	n/a	n/a
179.5117	0.7333	INK	58	Neutral	xxxxx	xxxxx	czerwony	red	hit	n/a
180.2009	n/a	RESPONSE	n/a	n/a	n/a	n/a	n/a	n/a	n/a	red
180.2451	1.0333	ITI	n/a	n/a	n/a	n/a	n/a	n/a	n/a	n/a
181.2784	0.5333	FIXCROSS	n/a	n/a	n/a	n/a	n/a	n/a	n/a	n/a
181.8117	1.4167	INK	59	Incongruent	żółty	yellow	zielony	green	hit	n/a
183.1873	n/a	RESPONSE	n/a	n/a	n/a	n/a	n/a	n/a	n/a	green
183.2284	1.0333	ITI	n/a	n/a	n/a	n/a	n/a	n/a	n/a	n/a
184.2618	0.5333	FIXCROSS	n/a	n/a	n/a	n/a	n/a	n/a	n/a	n/a
184.7951	1.6833	INK	60	Incongruent	żółty	yellow	niebieski	blue	hit	n/a
186.445	n/a	RESPONSE	n/a	n/a	n/a	n/a	n/a	n/a	n/a	blue
186.4784	1.0334	ITI	n/a	n/a	n/a	n/a	n/a	n/a	n/a	n/a
187.5118	0.5333	FIXCROSS	n/a	n/a	n/a	n/a	n/a	n/a	n/a	n/a
188.0451	0.9834	INK	61	Incongruent	czerwony	red	żółty	yellow	hit	n/a
189.0001	n/a	RESPONSE	n/a	n/a	n/a	n/a	n/a	n/a	n/a	yellow
189.0285	1.0333	ITI	n/a	n/a	n/a	n/a	n/a	n/a	n/a	n/a
190.0618	0.5333	FIXCROSS	n/a	n/a	n/a	n/a	n/a	n/a	n/a	n/a
190.5952	0.9167	INK	62	Incongruent	żółty	yellow	niebieski	blue	hit	n/a
191.4754	n/a	RESPONSE	n/a	n/a	n/a	n/a	n/a	n/a	n/a	blue
191.5119	1.0333	ITI	n/a	n/a	n/a	n/a	n/a	n/a	n/a	n/a
192.5452	0.5333	FIXCROSS	n/a	n/a	n/a	n/a	n/a	n/a	n/a	n/a
193.0785	0.85	INK	63	Neutral	xxxxx	xxxxx	zielony	green	hit	n/a
193.8868	n/a	RESPONSE	n/a	n/a	n/a	n/a	n/a	n/a	n/a	green
193.9285	1.0333	ITI	n/a	n/a	n/a	n/a	n/a	n/a	n/a	n/a
194.9619	0.5333	FIXCROSS	n/a	n/a	n/a	n/a	n/a	n/a	n/a	n/a
195.4952	0.9167	INK	64	Incongruent	żółty	yellow	niebieski	blue	hit	n/a
196.378	n/a	RESPONSE	n/a	n/a	n/a	n/a	n/a	n/a	n/a	blue
196.4119	1.0333	ITI	n/a	n/a	n/a	n/a	n/a	n/a	n/a	n/a
197.4453	0.5333	FIXCROSS	n/a	n/a	n/a	n/a	n/a	n/a	n/a	n/a
197.9786	0.8667	INK	65	Neutral	xxxxx	xxxxx	czerwony	red	hit	n/a
198.8055	n/a	RESPONSE	n/a	n/a	n/a	n/a	n/a	n/a	n/a	red
198.8453	1.0333	ITI	n/a	n/a	n/a	n/a	n/a	n/a	n/a	n/a
199.8786	0.5333	FIXCROSS	n/a	n/a	n/a	n/a	n/a	n/a	n/a	n/a
200.412	0.7833	INK	66	Neutral	xxxxxxx	xxxxxxx	niebieski	blue	hit	n/a
201.153	n/a	RESPONSE	n/a	n/a	n/a	n/a	n/a	n/a	n/a	blue
201.1953	1.0333	ITI	n/a	n/a	n/a	n/a	n/a	n/a	n/a	n/a
202.2286	0.5333	FIXCROSS	n/a	n/a	n/a	n/a	n/a	n/a	n/a	n/a
202.762	0.95	INK	67	Incongruent	żółty	yellow	czerwony	red	hit	n/a
203.6762	n/a	RESPONSE	n/a	n/a	n/a	n/a	n/a	n/a	n/a	red
203.712	1.0333	ITI	n/a	n/a	n/a	n/a	n/a	n/a	n/a	n/a
204.7453	0.5333	FIXCROSS	n/a	n/a	n/a	n/a	n/a	n/a	n/a	n/a
205.2787	0.7667	INK	68	Incongruent	żółty	yellow	czerwony	red	hit	n/a
206.0078	n/a	RESPONSE	n/a	n/a	n/a	n/a	n/a	n/a	n/a	red
206.0454	1.0333	ITI	n/a	n/a	n/a	n/a	n/a	n/a	n/a	n/a
207.0787	0.5334	FIXCROSS	n/a	n/a	n/a	n/a	n/a	n/a	n/a	n/a
207.6121	0.5	INK	69	Incongruent	niebieski	blue	czerwony	red	hit	n/a
208.0678	n/a	RESPONSE	n/a	n/a	n/a	n/a	n/a	n/a	n/a	red
208.112	1.0334	ITI	n/a	n/a	n/a	n/a	n/a	n/a	n/a	n/a
209.1454	0.5333	FIXCROSS	n/a	n/a	n/a	n/a	n/a	n/a	n/a	n/a
209.6787	0.6	INK	70	Neutral	xxxxx	xxxxx	niebieski	blue	hit	n/a
210.2397	n/a	RESPONSE	n/a	n/a	n/a	n/a	n/a	n/a	n/a	blue
210.2787	1.0333	ITI	n/a	n/a	n/a	n/a	n/a	n/a	n/a	n/a
211.3121	0.5333	FIXCROSS	n/a	n/a	n/a	n/a	n/a	n/a	n/a	n/a
211.8454	0.8833	INK	71	Incongruent	żółty	yellow	zielony	green	hit	n/a
212.6991	n/a	RESPONSE	n/a	n/a	n/a	n/a	n/a	n/a	n/a	green
212.7288	1.0333	ITI	n/a	n/a	n/a	n/a	n/a	n/a	n/a	n/a
213.7621	0.5333	FIXCROSS	n/a	n/a	n/a	n/a	n/a	n/a	n/a	n/a
214.2955	0.5333	INK	72	Neutral	xxxxxxxxx	xxxxxxxxx	zielony	green	hit	n/a
214.791	n/a	RESPONSE	n/a	n/a	n/a	n/a	n/a	n/a	n/a	green
214.8288	1.1	ITI	n/a	n/a	n/a	n/a	n/a	n/a	n/a	n/a
218.7036	n/a	RESPONSE	n/a	n/a	n/a	n/a	n/a	n/a	n/a	n/a
218.7288	1.0	ITI	n/a	n/a	n/a	n/a	n/a	n/a	n/a	n/a
219.7289	0.5	FIXCROSS	n/a	n/a	n/a	n/a	n/a	n/a	n/a	n/a
220.2289	0.9834	T_COLOR_NAME	1	Incongruent	niebieski	blue	żółty	yellow	hit	n/a
221.1949	n/a	RESPONSE	n/a	n/a	n/a	n/a	n/a	n/a	n/a	blue
221.2122	0.5333	FEEDBACK	n/a	n/a	n/a	n/a	n/a	n/a	n/a	n/a
221.7456	1.0333	ITI	n/a	n/a	n/a	n/a	n/a	n/a	n/a	n/a
222.7789	0.5333	FIXCROSS	n/a	n/a	n/a	n/a	n/a	n/a	n/a	n/a
223.3122	0.7667	T_COLOR_NAME	2	Neutral	czerwony	red	Neutral	Neutral	hit	n/a
224.0375	n/a	RESPONSE	n/a	n/a	n/a	n/a	n/a	n/a	n/a	red
224.0789	0.5333	FEEDBACK	n/a	n/a	n/a	n/a	n/a	n/a	n/a	n/a
224.6122	1.0334	ITI	n/a	n/a	n/a	n/a	n/a	n/a	n/a	n/a
225.6456	0.5333	FIXCROSS	n/a	n/a	n/a	n/a	n/a	n/a	n/a	n/a
226.1789	0.8833	T_COLOR_NAME	3	Incongruent	zielony	green	czerwony	red	hit	n/a
227.0238	n/a	RESPONSE	n/a	n/a	n/a	n/a	n/a	n/a	n/a	green
227.0623	0.5333	FEEDBACK	n/a	n/a	n/a	n/a	n/a	n/a	n/a	n/a
227.5956	1.0334	ITI	n/a	n/a	n/a	n/a	n/a	n/a	n/a	n/a
228.629	0.5333	FIXCROSS	n/a	n/a	n/a	n/a	n/a	n/a	n/a	n/a
229.1623	0.6	T_COLOR_NAME	4	Neutral	zielony	green	Neutral	Neutral	hit	n/a
229.7227	n/a	RESPONSE	n/a	n/a	n/a	n/a	n/a	n/a	n/a	green
229.7623	0.5333	FEEDBACK	n/a	n/a	n/a	n/a	n/a	n/a	n/a	n/a
230.2957	1.0334	ITI	n/a	n/a	n/a	n/a	n/a	n/a	n/a	n/a
231.329	0.5333	FIXCROSS	n/a	n/a	n/a	n/a	n/a	n/a	n/a	n/a
231.8623	0.6	T_COLOR_NAME	5	Neutral	zielony	green	Neutral	Neutral	hit	n/a
232.4215	n/a	RESPONSE	n/a	n/a	n/a	n/a	n/a	n/a	n/a	green
232.4623	0.5333	FEEDBACK	n/a	n/a	n/a	n/a	n/a	n/a	n/a	n/a
232.9957	1.0333	ITI	n/a	n/a	n/a	n/a	n/a	n/a	n/a	n/a
234.029	0.5333	FIXCROSS	n/a	n/a	n/a	n/a	n/a	n/a	n/a	n/a
234.5624	0.7667	T_COLOR_NAME	6	Neutral	czerwony	red	Neutral	Neutral	incorrect	n/a
235.296	n/a	RESPONSE	n/a	n/a	n/a	n/a	n/a	n/a	n/a	blue
235.329	0.5333	FEEDBACK	n/a	n/a	n/a	n/a	n/a	n/a	n/a	n/a
235.8624	1.0334	ITI	n/a	n/a	n/a	n/a	n/a	n/a	n/a	n/a
236.8957	0.5333	FIXCROSS	n/a	n/a	n/a	n/a	n/a	n/a	n/a	n/a
237.4291	1.9167	T_COLOR_NAME	7	Incongruent	czerwony	red	zielony	green	hit	n/a
239.3043	n/a	RESPONSE	n/a	n/a	n/a	n/a	n/a	n/a	n/a	red
239.3458	0.5333	FEEDBACK	n/a	n/a	n/a	n/a	n/a	n/a	n/a	n/a
239.8791	1.0334	ITI	n/a	n/a	n/a	n/a	n/a	n/a	n/a	n/a
240.9125	0.5333	FIXCROSS	n/a	n/a	n/a	n/a	n/a	n/a	n/a	n/a
241.4458	0.6167	T_COLOR_NAME	8	Neutral	czerwony	red	Neutral	Neutral	hit	n/a
242.0192	n/a	RESPONSE	n/a	n/a	n/a	n/a	n/a	n/a	n/a	red
242.0625	0.5333	FEEDBACK	n/a	n/a	n/a	n/a	n/a	n/a	n/a	n/a
242.5958	1.0334	ITI	n/a	n/a	n/a	n/a	n/a	n/a	n/a	n/a
243.6292	0.5333	FIXCROSS	n/a	n/a	n/a	n/a	n/a	n/a	n/a	n/a
244.1625	1.0667	T_COLOR_NAME	9	Incongruent	zielony	green	żółty	yellow	hit	n/a
245.1972	n/a	RESPONSE	n/a	n/a	n/a	n/a	n/a	n/a	n/a	green
245.2292	0.5333	FEEDBACK	n/a	n/a	n/a	n/a	n/a	n/a	n/a	n/a
245.7625	1.0333	ITI	n/a	n/a	n/a	n/a	n/a	n/a	n/a	n/a
246.7959	0.5333	FIXCROSS	n/a	n/a	n/a	n/a	n/a	n/a	n/a	n/a
247.3292	0.8667	T_COLOR_NAME	10	Neutral	żółty	yellow	Neutral	Neutral	hit	n/a
248.1515	n/a	RESPONSE	n/a	n/a	n/a	n/a	n/a	n/a	n/a	yellow
248.1959	0.5333	FEEDBACK	n/a	n/a	n/a	n/a	n/a	n/a	n/a	n/a
248.7292	1.0333	ITI	n/a	n/a	n/a	n/a	n/a	n/a	n/a	n/a
249.7626	0.5333	FIXCROSS	n/a	n/a	n/a	n/a	n/a	n/a	n/a	n/a
250.2959	0.7667	T_COLOR_NAME	11	Neutral	niebieski	blue	Neutral	Neutral	hit	n/a
251.026	n/a	RESPONSE	n/a	n/a	n/a	n/a	n/a	n/a	n/a	blue
251.0626	0.5333	FEEDBACK	n/a	n/a	n/a	n/a	n/a	n/a	n/a	n/a
251.5959	1.0333	ITI	n/a	n/a	n/a	n/a	n/a	n/a	n/a	n/a
252.6293	0.5333	FIXCROSS	n/a	n/a	n/a	n/a	n/a	n/a	n/a	n/a
253.1626	1.6	T_COLOR_NAME	12	Incongruent	czerwony	red	niebieski	blue	hit	n/a
254.731	n/a	RESPONSE	n/a	n/a	n/a	n/a	n/a	n/a	n/a	red
254.7626	0.5333	FEEDBACK	n/a	n/a	n/a	n/a	n/a	n/a	n/a	n/a
255.296	1.05	ITI	n/a	n/a	n/a	n/a	n/a	n/a	n/a	n/a
256.9987	n/a	RESPONSE	n/a	n/a	n/a	n/a	n/a	n/a	n/a	n/a
257.0626	1.0	ITI	n/a	n/a	n/a	n/a	n/a	n/a	n/a	n/a
258.0627	0.5	FIXCROSS	n/a	n/a	n/a	n/a	n/a	n/a	n/a	n/a
258.5627	0.9833	COLOR_NAME	1	Incongruent	żółty	yellow	niebieski	blue	hit	n/a
259.5378	n/a	RESPONSE	n/a	n/a	n/a	n/a	n/a	n/a	n/a	yellow
259.546	1.0	ITI	n/a	n/a	n/a	n/a	n/a	n/a	n/a	n/a
260.546	0.5	FIXCROSS	n/a	n/a	n/a	n/a	n/a	n/a	n/a	n/a
261.046	1.05	COLOR_NAME	2	Incongruent	niebieski	blue	czerwony	red	hit	n/a
262.0769	n/a	RESPONSE	n/a	n/a	n/a	n/a	n/a	n/a	n/a	blue
262.096	1.0	ITI	n/a	n/a	n/a	n/a	n/a	n/a	n/a	n/a
263.096	0.5	FIXCROSS	n/a	n/a	n/a	n/a	n/a	n/a	n/a	n/a
263.5961	0.9	COLOR_NAME	3	Neutral	zielony	green	Neutral	Neutral	hit	n/a
264.4884	n/a	RESPONSE	n/a	n/a	n/a	n/a	n/a	n/a	n/a	green
264.4961	1.0	ITI	n/a	n/a	n/a	n/a	n/a	n/a	n/a	n/a
265.4961	0.5	FIXCROSS	n/a	n/a	n/a	n/a	n/a	n/a	n/a	n/a
265.9961	0.9667	COLOR_NAME	4	Neutral	żółty	yellow	Neutral	Neutral	hit	n/a
266.9476	n/a	RESPONSE	n/a	n/a	n/a	n/a	n/a	n/a	n/a	yellow
266.9628	1.0	ITI	n/a	n/a	n/a	n/a	n/a	n/a	n/a	n/a
267.9628	0.5	FIXCROSS	n/a	n/a	n/a	n/a	n/a	n/a	n/a	n/a
268.4628	1.5333	COLOR_NAME	5	Incongruent	czerwony	red	żółty	yellow	hit	n/a
269.9819	n/a	RESPONSE	n/a	n/a	n/a	n/a	n/a	n/a	n/a	red
269.9961	1.0333	ITI	n/a	n/a	n/a	n/a	n/a	n/a	n/a	n/a
271.0295	0.5333	FIXCROSS	n/a	n/a	n/a	n/a	n/a	n/a	n/a	n/a
271.5628	1.0167	COLOR_NAME	6	Neutral	niebieski	blue	Neutral	Neutral	hit	n/a
272.537	n/a	RESPONSE	n/a	n/a	n/a	n/a	n/a	n/a	n/a	blue
272.5795	1.0333	ITI	n/a	n/a	n/a	n/a	n/a	n/a	n/a	n/a
273.6128	0.5333	FIXCROSS	n/a	n/a	n/a	n/a	n/a	n/a	n/a	n/a
274.1462	0.9667	COLOR_NAME	7	Incongruent	żółty	yellow	czerwony	red	hit	n/a
275.0762	n/a	RESPONSE	n/a	n/a	n/a	n/a	n/a	n/a	n/a	yellow
275.1129	1.0333	ITI	n/a	n/a	n/a	n/a	n/a	n/a	n/a	n/a
276.1462	0.5333	FIXCROSS	n/a	n/a	n/a	n/a	n/a	n/a	n/a	n/a
276.6795	0.7333	COLOR_NAME	8	Neutral	czerwony	red	Neutral	Neutral	hit	n/a
277.3758	n/a	RESPONSE	n/a	n/a	n/a	n/a	n/a	n/a	n/a	red
277.4129	1.0333	ITI	n/a	n/a	n/a	n/a	n/a	n/a	n/a	n/a
278.4462	0.5333	FIXCROSS	n/a	n/a	n/a	n/a	n/a	n/a	n/a	n/a
278.9796	0.9333	COLOR_NAME	9	Incongruent	zielony	green	czerwony	red	hit	n/a
279.8831	n/a	RESPONSE	n/a	n/a	n/a	n/a	n/a	n/a	n/a	green
279.9129	1.0334	ITI	n/a	n/a	n/a	n/a	n/a	n/a	n/a	n/a
280.9463	0.5333	FIXCROSS	n/a	n/a	n/a	n/a	n/a	n/a	n/a	n/a
281.4796	0.8167	COLOR_NAME	10	Neutral	czerwony	red	Neutral	Neutral	hit	n/a
282.2625	n/a	RESPONSE	n/a	n/a	n/a	n/a	n/a	n/a	n/a	red
282.2963	1.0333	ITI	n/a	n/a	n/a	n/a	n/a	n/a	n/a	n/a
283.3296	0.5333	FIXCROSS	n/a	n/a	n/a	n/a	n/a	n/a	n/a	n/a
283.863	0.9833	COLOR_NAME	11	Incongruent	żółty	yellow	czerwony	red	hit	n/a
284.8175	n/a	RESPONSE	n/a	n/a	n/a	n/a	n/a	n/a	n/a	yellow
284.8463	1.0333	ITI	n/a	n/a	n/a	n/a	n/a	n/a	n/a	n/a
285.8797	0.5333	FIXCROSS	n/a	n/a	n/a	n/a	n/a	n/a	n/a	n/a
286.413	1.0333	COLOR_NAME	12	Incongruent	niebieski	blue	żółty	yellow	hit	n/a
287.4046	n/a	RESPONSE	n/a	n/a	n/a	n/a	n/a	n/a	n/a	blue
287.4463	1.0333	ITI	n/a	n/a	n/a	n/a	n/a	n/a	n/a	n/a
288.4797	0.5333	FIXCROSS	n/a	n/a	n/a	n/a	n/a	n/a	n/a	n/a
289.013	0.9167	COLOR_NAME	13	Neutral	żółty	yellow	Neutral	Neutral	hit	n/a
289.8958	n/a	RESPONSE	n/a	n/a	n/a	n/a	n/a	n/a	n/a	yellow
289.9297	1.0333	ITI	n/a	n/a	n/a	n/a	n/a	n/a	n/a	n/a
290.963	0.5333	FIXCROSS	n/a	n/a	n/a	n/a	n/a	n/a	n/a	n/a
291.4964	0.8167	COLOR_NAME	14	Neutral	żółty	yellow	Neutral	Neutral	hit	n/a
292.2753	n/a	RESPONSE	n/a	n/a	n/a	n/a	n/a	n/a	n/a	yellow
292.3131	1.0333	ITI	n/a	n/a	n/a	n/a	n/a	n/a	n/a	n/a
293.3464	0.5333	FIXCROSS	n/a	n/a	n/a	n/a	n/a	n/a	n/a	n/a
293.8798	1.0167	COLOR_NAME	15	Neutral	zielony	green	Neutral	Neutral	hit	n/a
294.8624	n/a	RESPONSE	n/a	n/a	n/a	n/a	n/a	n/a	n/a	green
294.8964	1.0333	ITI	n/a	n/a	n/a	n/a	n/a	n/a	n/a	n/a
295.9298	0.5333	FIXCROSS	n/a	n/a	n/a	n/a	n/a	n/a	n/a	n/a
296.4631	0.9667	COLOR_NAME	16	Neutral	niebieski	blue	Neutral	Neutral	hit	n/a
297.3856	n/a	RESPONSE	n/a	n/a	n/a	n/a	n/a	n/a	n/a	blue
297.4298	1.0334	ITI	n/a	n/a	n/a	n/a	n/a	n/a	n/a	n/a
298.4631	0.5333	FIXCROSS	n/a	n/a	n/a	n/a	n/a	n/a	n/a	n/a
298.9965	0.8	COLOR_NAME	17	Incongruent	niebieski	blue	zielony	green	hit	n/a
299.7652	n/a	RESPONSE	n/a	n/a	n/a	n/a	n/a	n/a	n/a	blue
299.7965	1.0334	ITI	n/a	n/a	n/a	n/a	n/a	n/a	n/a	n/a
300.8298	0.5333	FIXCROSS	n/a	n/a	n/a	n/a	n/a	n/a	n/a	n/a
301.3632	1.0	COLOR_NAME	18	Incongruent	zielony	green	niebieski	blue	hit	n/a
302.3201	n/a	RESPONSE	n/a	n/a	n/a	n/a	n/a	n/a	n/a	green
302.3632	1.0333	ITI	n/a	n/a	n/a	n/a	n/a	n/a	n/a	n/a
303.3965	0.5334	FIXCROSS	n/a	n/a	n/a	n/a	n/a	n/a	n/a	n/a
303.9299	0.8333	COLOR_NAME	19	Neutral	niebieski	blue	Neutral	Neutral	hit	n/a
304.7316	n/a	RESPONSE	n/a	n/a	n/a	n/a	n/a	n/a	n/a	blue
304.7632	1.0333	ITI	n/a	n/a	n/a	n/a	n/a	n/a	n/a	n/a
305.7966	0.5333	FIXCROSS	n/a	n/a	n/a	n/a	n/a	n/a	n/a	n/a
306.3299	1.0333	COLOR_NAME	20	Incongruent	zielony	green	czerwony	red	hit	n/a
307.3187	n/a	RESPONSE	n/a	n/a	n/a	n/a	n/a	n/a	n/a	green
307.3632	1.0334	ITI	n/a	n/a	n/a	n/a	n/a	n/a	n/a	n/a
308.3966	0.5333	FIXCROSS	n/a	n/a	n/a	n/a	n/a	n/a	n/a	n/a
308.9299	0.9667	COLOR_NAME	21	Neutral	żółty	yellow	Neutral	Neutral	hit	n/a
309.8578	n/a	RESPONSE	n/a	n/a	n/a	n/a	n/a	n/a	n/a	yellow
309.8966	1.0333	ITI	n/a	n/a	n/a	n/a	n/a	n/a	n/a	n/a
310.93	0.5333	FIXCROSS	n/a	n/a	n/a	n/a	n/a	n/a	n/a	n/a
311.4633	0.7167	COLOR_NAME	22	Neutral	żółty	yellow	Neutral	Neutral	hit	n/a
312.1415	n/a	RESPONSE	n/a	n/a	n/a	n/a	n/a	n/a	n/a	yellow
312.18	1.0334	ITI	n/a	n/a	n/a	n/a	n/a	n/a	n/a	n/a
313.2133	0.5333	FIXCROSS	n/a	n/a	n/a	n/a	n/a	n/a	n/a	n/a
313.7467	0.8667	COLOR_NAME	23	Incongruent	żółty	yellow	zielony	green	hit	n/a
314.5689	n/a	RESPONSE	n/a	n/a	n/a	n/a	n/a	n/a	n/a	yellow
314.6133	1.0333	ITI	n/a	n/a	n/a	n/a	n/a	n/a	n/a	n/a
315.6467	0.5333	FIXCROSS	n/a	n/a	n/a	n/a	n/a	n/a	n/a	n/a
316.18	0.8167	COLOR_NAME	24	Neutral	czerwony	red	Neutral	Neutral	hit	n/a
316.9643	n/a	RESPONSE	n/a	n/a	n/a	n/a	n/a	n/a	n/a	red
316.9967	1.0334	ITI	n/a	n/a	n/a	n/a	n/a	n/a	n/a	n/a
318.03	0.5333	FIXCROSS	n/a	n/a	n/a	n/a	n/a	n/a	n/a	n/a
318.5634	1.0	COLOR_NAME	25	Incongruent	niebieski	blue	żółty	yellow	hit	n/a
319.5194	n/a	RESPONSE	n/a	n/a	n/a	n/a	n/a	n/a	n/a	blue
319.5634	1.0333	ITI	n/a	n/a	n/a	n/a	n/a	n/a	n/a	n/a
320.5967	0.5333	FIXCROSS	n/a	n/a	n/a	n/a	n/a	n/a	n/a	n/a
321.1301	0.8667	COLOR_NAME	26	Neutral	czerwony	red	Neutral	Neutral	hit	n/a
321.9627	n/a	RESPONSE	n/a	n/a	n/a	n/a	n/a	n/a	n/a	red
321.9968	1.0333	ITI	n/a	n/a	n/a	n/a	n/a	n/a	n/a	n/a
323.0301	0.5333	FIXCROSS	n/a	n/a	n/a	n/a	n/a	n/a	n/a	n/a
323.5634	1.0167	COLOR_NAME	27	Neutral	niebieski	blue	Neutral	Neutral	hit	n/a
324.5498	n/a	RESPONSE	n/a	n/a	n/a	n/a	n/a	n/a	n/a	blue
324.5801	1.0333	ITI	n/a	n/a	n/a	n/a	n/a	n/a	n/a	n/a
325.6135	0.5333	FIXCROSS	n/a	n/a	n/a	n/a	n/a	n/a	n/a	n/a
326.1468	0.75	COLOR_NAME	28	Neutral	niebieski	blue	Neutral	Neutral	hit	n/a
326.8655	n/a	RESPONSE	n/a	n/a	n/a	n/a	n/a	n/a	n/a	blue
326.8968	1.0333	ITI	n/a	n/a	n/a	n/a	n/a	n/a	n/a	n/a
327.9302	0.5333	FIXCROSS	n/a	n/a	n/a	n/a	n/a	n/a	n/a	n/a
328.4635	0.9	COLOR_NAME	29	Incongruent	czerwony	red	żółty	yellow	hit	n/a
329.3248	n/a	RESPONSE	n/a	n/a	n/a	n/a	n/a	n/a	n/a	red
329.3635	1.0333	ITI	n/a	n/a	n/a	n/a	n/a	n/a	n/a	n/a
330.3969	0.5333	FIXCROSS	n/a	n/a	n/a	n/a	n/a	n/a	n/a	n/a
330.9302	0.6	COLOR_NAME	30	Neutral	czerwony	red	Neutral	Neutral	hit	n/a
331.4967	n/a	RESPONSE	n/a	n/a	n/a	n/a	n/a	n/a	n/a	red
331.5302	1.0333	ITI	n/a	n/a	n/a	n/a	n/a	n/a	n/a	n/a
332.5635	0.5334	FIXCROSS	n/a	n/a	n/a	n/a	n/a	n/a	n/a	n/a
333.0969	0.8833	COLOR_NAME	31	Incongruent	zielony	green	żółty	yellow	hit	n/a
333.94	n/a	RESPONSE	n/a	n/a	n/a	n/a	n/a	n/a	n/a	green
333.9802	1.0334	ITI	n/a	n/a	n/a	n/a	n/a	n/a	n/a	n/a
335.0136	0.5333	FIXCROSS	n/a	n/a	n/a	n/a	n/a	n/a	n/a	n/a
335.5469	1.05	COLOR_NAME	32	Incongruent	niebieski	blue	czerwony	red	hit	n/a
336.559	n/a	RESPONSE	n/a	n/a	n/a	n/a	n/a	n/a	n/a	blue
336.5969	1.0333	ITI	n/a	n/a	n/a	n/a	n/a	n/a	n/a	n/a
337.6303	0.5333	FIXCROSS	n/a	n/a	n/a	n/a	n/a	n/a	n/a	n/a
338.1636	1.15	COLOR_NAME	33	Neutral	żółty	yellow	Neutral	Neutral	hit	n/a
339.2739	n/a	RESPONSE	n/a	n/a	n/a	n/a	n/a	n/a	n/a	yellow
339.3136	1.0334	ITI	n/a	n/a	n/a	n/a	n/a	n/a	n/a	n/a
340.347	0.5333	FIXCROSS	n/a	n/a	n/a	n/a	n/a	n/a	n/a	n/a
340.8803	0.9	COLOR_NAME	34	Neutral	zielony	green	Neutral	Neutral	hit	n/a
341.7491	n/a	RESPONSE	n/a	n/a	n/a	n/a	n/a	n/a	n/a	green
341.7803	1.0333	ITI	n/a	n/a	n/a	n/a	n/a	n/a	n/a	n/a
342.8137	0.5333	FIXCROSS	n/a	n/a	n/a	n/a	n/a	n/a	n/a	n/a
343.347	0.8667	COLOR_NAME	35	Incongruent	niebieski	blue	czerwony	red	hit	n/a
344.1765	n/a	RESPONSE	n/a	n/a	n/a	n/a	n/a	n/a	n/a	blue
344.2137	1.0333	ITI	n/a	n/a	n/a	n/a	n/a	n/a	n/a	n/a
345.247	0.5333	FIXCROSS	n/a	n/a	n/a	n/a	n/a	n/a	n/a	n/a
345.7804	0.75	COLOR_NAME	36	Incongruent	czerwony	red	zielony	green	hit	n/a
346.4921	n/a	RESPONSE	n/a	n/a	n/a	n/a	n/a	n/a	n/a	red
346.5304	1.0333	ITI	n/a	n/a	n/a	n/a	n/a	n/a	n/a	n/a
347.5637	0.5333	FIXCROSS	n/a	n/a	n/a	n/a	n/a	n/a	n/a	n/a
348.0971	0.9	COLOR_NAME	37	Neutral	zielony	green	Neutral	Neutral	hit	n/a
348.9673	n/a	RESPONSE	n/a	n/a	n/a	n/a	n/a	n/a	n/a	green
348.9971	1.0334	ITI	n/a	n/a	n/a	n/a	n/a	n/a	n/a	n/a
350.0304	0.5333	FIXCROSS	n/a	n/a	n/a	n/a	n/a	n/a	n/a	n/a
350.5638	0.6333	COLOR_NAME	38	Incongruent	zielony	green	żółty	yellow	hit	n/a
351.1552	n/a	RESPONSE	n/a	n/a	n/a	n/a	n/a	n/a	n/a	green
351.1971	1.0333	ITI	n/a	n/a	n/a	n/a	n/a	n/a	n/a	n/a
352.2305	0.5333	FIXCROSS	n/a	n/a	n/a	n/a	n/a	n/a	n/a	n/a
352.7638	0.7833	COLOR_NAME	39	Incongruent	czerwony	red	zielony	green	hit	n/a
353.5188	n/a	RESPONSE	n/a	n/a	n/a	n/a	n/a	n/a	n/a	red
353.5471	1.0333	ITI	n/a	n/a	n/a	n/a	n/a	n/a	n/a	n/a
354.5805	0.5333	FIXCROSS	n/a	n/a	n/a	n/a	n/a	n/a	n/a	n/a
355.1138	0.8167	COLOR_NAME	40	Neutral	zielony	green	Neutral	Neutral	hit	n/a
355.8983	n/a	RESPONSE	n/a	n/a	n/a	n/a	n/a	n/a	n/a	green
355.9305	1.0334	ITI	n/a	n/a	n/a	n/a	n/a	n/a	n/a	n/a
356.9638	0.5333	FIXCROSS	n/a	n/a	n/a	n/a	n/a	n/a	n/a	n/a
357.4972	0.9667	COLOR_NAME	41	Neutral	czerwony	red	Neutral	Neutral	hit	n/a
358.4214	n/a	RESPONSE	n/a	n/a	n/a	n/a	n/a	n/a	n/a	red
358.4639	1.0334	ITI	n/a	n/a	n/a	n/a	n/a	n/a	n/a	n/a
359.4972	0.5333	FIXCROSS	n/a	n/a	n/a	n/a	n/a	n/a	n/a	n/a
360.0305	0.6	COLOR_NAME	42	Incongruent	czerwony	red	niebieski	blue	hit	n/a
360.5932	n/a	RESPONSE	n/a	n/a	n/a	n/a	n/a	n/a	n/a	red
360.6306	1.0333	ITI	n/a	n/a	n/a	n/a	n/a	n/a	n/a	n/a
361.6639	0.5333	FIXCROSS	n/a	n/a	n/a	n/a	n/a	n/a	n/a	n/a
362.1972	0.5167	COLOR_NAME	43	Neutral	czerwony	red	Neutral	Neutral	hit	n/a
362.6852	n/a	RESPONSE	n/a	n/a	n/a	n/a	n/a	n/a	n/a	red
362.7139	1.0333	ITI	n/a	n/a	n/a	n/a	n/a	n/a	n/a	n/a
363.7473	0.5333	FIXCROSS	n/a	n/a	n/a	n/a	n/a	n/a	n/a	n/a
364.2806	1.4	COLOR_NAME	44	Incongruent	żółty	yellow	niebieski	blue	hit	n/a
365.6397	n/a	RESPONSE	n/a	n/a	n/a	n/a	n/a	n/a	n/a	yellow
365.6806	1.0334	ITI	n/a	n/a	n/a	n/a	n/a	n/a	n/a	n/a
366.714	0.5333	FIXCROSS	n/a	n/a	n/a	n/a	n/a	n/a	n/a	n/a
367.2473	0.8667	COLOR_NAME	45	Neutral	zielony	green	Neutral	Neutral	hit	n/a
368.083	n/a	RESPONSE	n/a	n/a	n/a	n/a	n/a	n/a	n/a	green
368.114	1.0333	ITI	n/a	n/a	n/a	n/a	n/a	n/a	n/a	n/a
369.1473	0.5333	FIXCROSS	n/a	n/a	n/a	n/a	n/a	n/a	n/a	n/a
369.6807	0.5167	COLOR_NAME	46	Incongruent	zielony	green	niebieski	blue	hit	n/a
370.159	n/a	RESPONSE	n/a	n/a	n/a	n/a	n/a	n/a	n/a	green
370.1973	1.0334	ITI	n/a	n/a	n/a	n/a	n/a	n/a	n/a	n/a
371.2307	0.5333	FIXCROSS	n/a	n/a	n/a	n/a	n/a	n/a	n/a	n/a
371.764	0.65	COLOR_NAME	47	Incongruent	zielony	green	czerwony	red	hit	n/a
372.3788	n/a	RESPONSE	n/a	n/a	n/a	n/a	n/a	n/a	n/a	green
372.414	1.0333	ITI	n/a	n/a	n/a	n/a	n/a	n/a	n/a	n/a
373.4474	0.5333	FIXCROSS	n/a	n/a	n/a	n/a	n/a	n/a	n/a	n/a
373.9807	0.9333	COLOR_NAME	48	Incongruent	żółty	yellow	niebieski	blue	hit	n/a
374.87	n/a	RESPONSE	n/a	n/a	n/a	n/a	n/a	n/a	n/a	yellow
374.9141	1.0333	ITI	n/a	n/a	n/a	n/a	n/a	n/a	n/a	n/a
375.9474	0.5333	FIXCROSS	n/a	n/a	n/a	n/a	n/a	n/a	n/a	n/a
376.4808	0.8	COLOR_NAME	49	Incongruent	czerwony	red	żółty	yellow	hit	n/a
377.2496	n/a	RESPONSE	n/a	n/a	n/a	n/a	n/a	n/a	n/a	red
377.2807	1.0334	ITI	n/a	n/a	n/a	n/a	n/a	n/a	n/a	n/a
378.3141	0.5333	FIXCROSS	n/a	n/a	n/a	n/a	n/a	n/a	n/a	n/a
378.8474	0.85	COLOR_NAME	50	Incongruent	niebieski	blue	żółty	yellow	hit	n/a
379.661	n/a	RESPONSE	n/a	n/a	n/a	n/a	n/a	n/a	n/a	blue
379.6974	1.0334	ITI	n/a	n/a	n/a	n/a	n/a	n/a	n/a	n/a
380.7308	0.5333	FIXCROSS	n/a	n/a	n/a	n/a	n/a	n/a	n/a	n/a
381.2641	0.7333	COLOR_NAME	51	Neutral	zielony	green	Neutral	Neutral	hit	n/a
381.9606	n/a	RESPONSE	n/a	n/a	n/a	n/a	n/a	n/a	n/a	green
381.9975	1.0334	ITI	n/a	n/a	n/a	n/a	n/a	n/a	n/a	n/a
383.0308	0.5333	FIXCROSS	n/a	n/a	n/a	n/a	n/a	n/a	n/a	n/a
383.5642	0.9	COLOR_NAME	52	Incongruent	żółty	yellow	czerwony	red	hit	n/a
384.4358	n/a	RESPONSE	n/a	n/a	n/a	n/a	n/a	n/a	n/a	yellow
384.4642	1.0333	ITI	n/a	n/a	n/a	n/a	n/a	n/a	n/a	n/a
385.4975	0.5333	FIXCROSS	n/a	n/a	n/a	n/a	n/a	n/a	n/a	n/a
386.0309	0.7167	COLOR_NAME	53	Incongruent	czerwony	red	niebieski	blue	hit	n/a
386.7195	n/a	RESPONSE	n/a	n/a	n/a	n/a	n/a	n/a	n/a	red
386.7475	1.0333	ITI	n/a	n/a	n/a	n/a	n/a	n/a	n/a	n/a
387.7809	0.5333	FIXCROSS	n/a	n/a	n/a	n/a	n/a	n/a	n/a	n/a
388.3142	0.8333	COLOR_NAME	54	Neutral	niebieski	blue	Neutral	Neutral	hit	n/a
389.1149	n/a	RESPONSE	n/a	n/a	n/a	n/a	n/a	n/a	n/a	blue
389.1476	1.0334	ITI	n/a	n/a	n/a	n/a	n/a	n/a	n/a	n/a
390.1809	0.5333	FIXCROSS	n/a	n/a	n/a	n/a	n/a	n/a	n/a	n/a
390.7142	0.7334	COLOR_NAME	55	Neutral	zielony	green	Neutral	Neutral	hit	n/a
391.4145	n/a	RESPONSE	n/a	n/a	n/a	n/a	n/a	n/a	n/a	green
391.4476	1.0333	ITI	n/a	n/a	n/a	n/a	n/a	n/a	n/a	n/a
392.4809	0.5333	FIXCROSS	n/a	n/a	n/a	n/a	n/a	n/a	n/a	n/a
393.0143	0.7833	COLOR_NAME	56	Neutral	zielony	green	Neutral	Neutral	hit	n/a
393.7621	n/a	RESPONSE	n/a	n/a	n/a	n/a	n/a	n/a	n/a	green
393.7976	1.0333	ITI	n/a	n/a	n/a	n/a	n/a	n/a	n/a	n/a
394.831	0.5333	FIXCROSS	n/a	n/a	n/a	n/a	n/a	n/a	n/a	n/a
395.3643	0.7167	COLOR_NAME	57	Neutral	żółty	yellow	Neutral	Neutral	hit	n/a
396.0457	n/a	RESPONSE	n/a	n/a	n/a	n/a	n/a	n/a	n/a	yellow
396.081	1.0334	ITI	n/a	n/a	n/a	n/a	n/a	n/a	n/a	n/a
397.1143	0.5333	FIXCROSS	n/a	n/a	n/a	n/a	n/a	n/a	n/a	n/a
397.6477	0.75	COLOR_NAME	58	Neutral	czerwony	red	Neutral	Neutral	hit	n/a
398.3613	n/a	RESPONSE	n/a	n/a	n/a	n/a	n/a	n/a	n/a	red
398.3977	1.0333	ITI	n/a	n/a	n/a	n/a	n/a	n/a	n/a	n/a
399.431	0.5333	FIXCROSS	n/a	n/a	n/a	n/a	n/a	n/a	n/a	n/a
399.9644	0.95	COLOR_NAME	59	Incongruent	niebieski	blue	zielony	green	hit	n/a
400.8845	n/a	RESPONSE	n/a	n/a	n/a	n/a	n/a	n/a	n/a	blue
400.9144	1.0333	ITI	n/a	n/a	n/a	n/a	n/a	n/a	n/a	n/a
401.9477	0.5333	FIXCROSS	n/a	n/a	n/a	n/a	n/a	n/a	n/a	n/a
402.4811	0.8333	COLOR_NAME	60	Neutral	żółty	yellow	Neutral	Neutral	hit	n/a
403.2799	n/a	RESPONSE	n/a	n/a	n/a	n/a	n/a	n/a	n/a	yellow
403.3144	1.0333	ITI	n/a	n/a	n/a	n/a	n/a	n/a	n/a	n/a
404.3477	0.5333	FIXCROSS	n/a	n/a	n/a	n/a	n/a	n/a	n/a	n/a
404.8811	0.7667	COLOR_NAME	61	Incongruent	czerwony	red	zielony	green	hit	n/a
405.6115	n/a	RESPONSE	n/a	n/a	n/a	n/a	n/a	n/a	n/a	red
405.6478	1.0333	ITI	n/a	n/a	n/a	n/a	n/a	n/a	n/a	n/a
406.6811	0.5333	FIXCROSS	n/a	n/a	n/a	n/a	n/a	n/a	n/a	n/a
407.2144	0.7333	COLOR_NAME	62	Incongruent	zielony	green	żółty	yellow	hit	n/a
407.9111	n/a	RESPONSE	n/a	n/a	n/a	n/a	n/a	n/a	n/a	green
407.9478	1.0333	ITI	n/a	n/a	n/a	n/a	n/a	n/a	n/a	n/a
408.9811	0.5333	FIXCROSS	n/a	n/a	n/a	n/a	n/a	n/a	n/a	n/a
409.5145	0.8	COLOR_NAME	63	Incongruent	żółty	yellow	zielony	green	hit	n/a
410.2746	n/a	RESPONSE	n/a	n/a	n/a	n/a	n/a	n/a	n/a	yellow
410.3145	1.0333	ITI	n/a	n/a	n/a	n/a	n/a	n/a	n/a	n/a
411.3478	0.5333	FIXCROSS	n/a	n/a	n/a	n/a	n/a	n/a	n/a	n/a
411.8812	0.8667	COLOR_NAME	64	Incongruent	czerwony	red	niebieski	blue	hit	n/a
412.718	n/a	RESPONSE	n/a	n/a	n/a	n/a	n/a	n/a	n/a	red
412.7478	1.0333	ITI	n/a	n/a	n/a	n/a	n/a	n/a	n/a	n/a
413.7812	0.5333	FIXCROSS	n/a	n/a	n/a	n/a	n/a	n/a	n/a	n/a
414.3145	0.8667	COLOR_NAME	65	Neutral	niebieski	blue	Neutral	Neutral	hit	n/a
415.1453	n/a	RESPONSE	n/a	n/a	n/a	n/a	n/a	n/a	n/a	blue
415.1812	1.0333	ITI	n/a	n/a	n/a	n/a	n/a	n/a	n/a	n/a
416.2145	0.5334	FIXCROSS	n/a	n/a	n/a	n/a	n/a	n/a	n/a	n/a
416.7479	0.8	COLOR_NAME	66	Incongruent	zielony	green	niebieski	blue	hit	n/a
417.5088	n/a	RESPONSE	n/a	n/a	n/a	n/a	n/a	n/a	n/a	green
417.5479	1.0333	ITI	n/a	n/a	n/a	n/a	n/a	n/a	n/a	n/a
418.5812	0.5333	FIXCROSS	n/a	n/a	n/a	n/a	n/a	n/a	n/a	n/a
419.1146	0.85	COLOR_NAME	67	Incongruent	żółty	yellow	zielony	green	hit	n/a
419.9363	n/a	RESPONSE	n/a	n/a	n/a	n/a	n/a	n/a	n/a	yellow
419.9646	1.0333	ITI	n/a	n/a	n/a	n/a	n/a	n/a	n/a	n/a
420.9979	0.5333	FIXCROSS	n/a	n/a	n/a	n/a	n/a	n/a	n/a	n/a
421.5313	0.8167	COLOR_NAME	68	Neutral	niebieski	blue	Neutral	Neutral	hit	n/a
422.3157	n/a	RESPONSE	n/a	n/a	n/a	n/a	n/a	n/a	n/a	blue
422.348	1.0334	ITI	n/a	n/a	n/a	n/a	n/a	n/a	n/a	n/a
423.3813	0.5333	FIXCROSS	n/a	n/a	n/a	n/a	n/a	n/a	n/a	n/a
423.9146	0.8833	COLOR_NAME	69	Incongruent	niebieski	blue	zielony	green	hit	n/a
424.759	n/a	RESPONSE	n/a	n/a	n/a	n/a	n/a	n/a	n/a	blue
424.798	1.0334	ITI	n/a	n/a	n/a	n/a	n/a	n/a	n/a	n/a
425.8313	0.5333	FIXCROSS	n/a	n/a	n/a	n/a	n/a	n/a	n/a	n/a
426.3647	0.8	COLOR_NAME	70	Neutral	czerwony	red	Neutral	Neutral	hit	n/a
427.1225	n/a	RESPONSE	n/a	n/a	n/a	n/a	n/a	n/a	n/a	red
427.1647	1.0333	ITI	n/a	n/a	n/a	n/a	n/a	n/a	n/a	n/a
428.198	0.5333	FIXCROSS	n/a	n/a	n/a	n/a	n/a	n/a	n/a	n/a
428.7314	0.7333	COLOR_NAME	71	Neutral	żółty	yellow	Neutral	Neutral	hit	n/a
429.4221	n/a	RESPONSE	n/a	n/a	n/a	n/a	n/a	n/a	n/a	yellow
429.4647	1.0333	ITI	n/a	n/a	n/a	n/a	n/a	n/a	n/a	n/a
430.4981	0.5333	FIXCROSS	n/a	n/a	n/a	n/a	n/a	n/a	n/a	n/a
431.0314	0.7667	COLOR_NAME	72	Neutral	niebieski	blue	Neutral	Neutral	hit	n/a
431.7696	n/a	RESPONSE	n/a	n/a	n/a	n/a	n/a	n/a	n/a	blue
431.7981	1.05	ITI	n/a	n/a	n/a	n/a	n/a	n/a	n/a	n/a
436.0973	n/a	RESPONSE	n/a	n/a	n/a	n/a	n/a	n/a	n/a	n/a
