onset	duration	trial_type	trial_number	stroop_condition	stim_text(PL)	stim_text(eng)	stim_color(PL)	stim_color(eng)	response_type	response_color
0.0	n/a	RESPONSE	n/a	n/a	n/a	n/a	n/a	n/a	n/a	yellow
50.9458	n/a	RESPONSE	n/a	n/a	n/a	n/a	n/a	n/a	n/a	n/a
51.0001	1.0333	ITI	n/a	n/a	n/a	n/a	n/a	n/a	n/a	n/a
52.0334	0.5167	FIXCROSS	n/a	n/a	n/a	n/a	n/a	n/a	n/a	n/a
52.5501	1.1167	T_INK	1	Neutral	xxxxxxxxx	xxxxxxxxx	czerwony	red	hit	n/a
53.6303	n/a	RESPONSE	n/a	n/a	n/a	n/a	n/a	n/a	n/a	red
53.6668	0.5167	FEEDBACK	n/a	n/a	n/a	n/a	n/a	n/a	n/a	n/a
54.1834	1.0167	ITI	n/a	n/a	n/a	n/a	n/a	n/a	n/a	n/a
55.2001	0.5167	FIXCROSS	n/a	n/a	n/a	n/a	n/a	n/a	n/a	n/a
55.7168	0.8667	T_INK	2	Neutral	xxxxxxx	xxxxxxx	niebieski	blue	hit	n/a
56.5544	n/a	RESPONSE	n/a	n/a	n/a	n/a	n/a	n/a	n/a	blue
56.5835	0.5167	FEEDBACK	n/a	n/a	n/a	n/a	n/a	n/a	n/a	n/a
57.1001	1.0167	ITI	n/a	n/a	n/a	n/a	n/a	n/a	n/a	n/a
58.1168	0.5167	FIXCROSS	n/a	n/a	n/a	n/a	n/a	n/a	n/a	n/a
58.6335	0.8667	T_INK	3	Incongruent	zielony	green	czerwony	red	hit	n/a
59.4784	n/a	RESPONSE	n/a	n/a	n/a	n/a	n/a	n/a	n/a	red
59.5001	0.5167	FEEDBACK	n/a	n/a	n/a	n/a	n/a	n/a	n/a	n/a
60.0168	1.0167	ITI	n/a	n/a	n/a	n/a	n/a	n/a	n/a	n/a
61.0335	0.5167	FIXCROSS	n/a	n/a	n/a	n/a	n/a	n/a	n/a	n/a
61.5502	0.8833	T_INK	4	Incongruent	żółty	yellow	zielony	green	hit	n/a
62.4025	n/a	RESPONSE	n/a	n/a	n/a	n/a	n/a	n/a	n/a	green
62.4335	0.5167	FEEDBACK	n/a	n/a	n/a	n/a	n/a	n/a	n/a	n/a
62.9502	1.0167	ITI	n/a	n/a	n/a	n/a	n/a	n/a	n/a	n/a
63.9668	0.5167	FIXCROSS	n/a	n/a	n/a	n/a	n/a	n/a	n/a	n/a
64.4835	0.7667	T_INK	5	Neutral	xxxxxxxx	xxxxxxxx	żółty	yellow	hit	n/a
65.2307	n/a	RESPONSE	n/a	n/a	n/a	n/a	n/a	n/a	n/a	yellow
65.2502	0.5167	FEEDBACK	n/a	n/a	n/a	n/a	n/a	n/a	n/a	n/a
65.7669	1.0167	ITI	n/a	n/a	n/a	n/a	n/a	n/a	n/a	n/a
66.7835	0.5167	FIXCROSS	n/a	n/a	n/a	n/a	n/a	n/a	n/a	n/a
67.3002	0.6333	T_INK	6	Neutral	xxxxxxx	xxxxxxx	żółty	yellow	hit	n/a
67.8992	n/a	RESPONSE	n/a	n/a	n/a	n/a	n/a	n/a	n/a	yellow
67.9335	0.5167	FEEDBACK	n/a	n/a	n/a	n/a	n/a	n/a	n/a	n/a
68.4502	1.0167	ITI	n/a	n/a	n/a	n/a	n/a	n/a	n/a	n/a
69.4669	0.5167	FIXCROSS	n/a	n/a	n/a	n/a	n/a	n/a	n/a	n/a
69.9836	0.7167	T_INK	7	Neutral	xxxxx	xxxxx	niebieski	blue	hit	n/a
70.6794	n/a	RESPONSE	n/a	n/a	n/a	n/a	n/a	n/a	n/a	blue
70.7002	0.5167	FEEDBACK	n/a	n/a	n/a	n/a	n/a	n/a	n/a	n/a
71.2169	1.0167	ITI	n/a	n/a	n/a	n/a	n/a	n/a	n/a	n/a
72.2336	0.5167	FIXCROSS	n/a	n/a	n/a	n/a	n/a	n/a	n/a	n/a
72.7502	0.5167	T_INK	8	Neutral	xxxxx	xxxxx	czerwony	red	hit	n/a
73.236	n/a	RESPONSE	n/a	n/a	n/a	n/a	n/a	n/a	n/a	red
73.2669	0.5167	FEEDBACK	n/a	n/a	n/a	n/a	n/a	n/a	n/a	n/a
73.7836	1.0167	ITI	n/a	n/a	n/a	n/a	n/a	n/a	n/a	n/a
74.8003	0.5167	FIXCROSS	n/a	n/a	n/a	n/a	n/a	n/a	n/a	n/a
75.3169	0.7167	T_INK	9	Neutral	xxxxxxxx	xxxxxxxx	zielony	green	hit	n/a
76.0004	n/a	RESPONSE	n/a	n/a	n/a	n/a	n/a	n/a	n/a	green
76.0336	0.5167	FEEDBACK	n/a	n/a	n/a	n/a	n/a	n/a	n/a	n/a
76.5503	1.0167	ITI	n/a	n/a	n/a	n/a	n/a	n/a	n/a	n/a
77.5669	0.5167	FIXCROSS	n/a	n/a	n/a	n/a	n/a	n/a	n/a	n/a
78.0836	0.9667	T_INK	10	Neutral	xxxxxxxx	xxxxxxxx	niebieski	blue	hit	n/a
79.0203	n/a	RESPONSE	n/a	n/a	n/a	n/a	n/a	n/a	n/a	blue
79.0503	0.5167	FEEDBACK	n/a	n/a	n/a	n/a	n/a	n/a	n/a	n/a
79.567	1.0167	ITI	n/a	n/a	n/a	n/a	n/a	n/a	n/a	n/a
80.5836	0.5167	FIXCROSS	n/a	n/a	n/a	n/a	n/a	n/a	n/a	n/a
81.1003	0.5667	T_INK	11	Incongruent	czerwony	red	żółty	yellow	hit	n/a
81.6408	n/a	RESPONSE	n/a	n/a	n/a	n/a	n/a	n/a	n/a	yellow
81.667	0.5167	FEEDBACK	n/a	n/a	n/a	n/a	n/a	n/a	n/a	n/a
82.1837	1.0167	ITI	n/a	n/a	n/a	n/a	n/a	n/a	n/a	n/a
83.2003	0.5167	FIXCROSS	n/a	n/a	n/a	n/a	n/a	n/a	n/a	n/a
83.717	0.8	T_INK	12	Incongruent	niebieski	blue	czerwony	red	hit	n/a
84.485	n/a	RESPONSE	n/a	n/a	n/a	n/a	n/a	n/a	n/a	red
84.517	0.5167	FEEDBACK	n/a	n/a	n/a	n/a	n/a	n/a	n/a	n/a
85.0337	1.0333	ITI	n/a	n/a	n/a	n/a	n/a	n/a	n/a	n/a
96.2295	n/a	RESPONSE	n/a	n/a	n/a	n/a	n/a	n/a	n/a	n/a
96.2838	1.0167	ITI	n/a	n/a	n/a	n/a	n/a	n/a	n/a	n/a
97.3004	0.5167	FIXCROSS	n/a	n/a	n/a	n/a	n/a	n/a	n/a	n/a
97.8171	0.85	INK	1	Incongruent	niebieski	blue	zielony	green	hit	n/a
98.6422	n/a	RESPONSE	n/a	n/a	n/a	n/a	n/a	n/a	n/a	green
98.6671	1.0167	ITI	n/a	n/a	n/a	n/a	n/a	n/a	n/a	n/a
99.6838	0.5167	FIXCROSS	n/a	n/a	n/a	n/a	n/a	n/a	n/a	n/a
100.2005	0.9167	INK	2	Incongruent	czerwony	red	żółty	yellow	hit	n/a
101.0871	n/a	RESPONSE	n/a	n/a	n/a	n/a	n/a	n/a	n/a	yellow
101.1171	1.0167	ITI	n/a	n/a	n/a	n/a	n/a	n/a	n/a	n/a
102.1338	0.5167	FIXCROSS	n/a	n/a	n/a	n/a	n/a	n/a	n/a	n/a
102.6505	0.8	INK	3	Neutral	xxxxx	xxxxx	niebieski	blue	hit	n/a
103.4199	n/a	RESPONSE	n/a	n/a	n/a	n/a	n/a	n/a	n/a	blue
103.4505	1.0167	ITI	n/a	n/a	n/a	n/a	n/a	n/a	n/a	n/a
104.4672	0.5167	FIXCROSS	n/a	n/a	n/a	n/a	n/a	n/a	n/a	n/a
104.9838	0.7167	INK	4	Incongruent	czerwony	red	zielony	green	hit	n/a
105.6729	n/a	RESPONSE	n/a	n/a	n/a	n/a	n/a	n/a	n/a	green
105.7005	1.0167	ITI	n/a	n/a	n/a	n/a	n/a	n/a	n/a	n/a
106.7172	0.5167	FIXCROSS	n/a	n/a	n/a	n/a	n/a	n/a	n/a	n/a
107.2338	0.95	INK	5	Incongruent	żółty	yellow	niebieski	blue	hit	n/a
108.1656	n/a	RESPONSE	n/a	n/a	n/a	n/a	n/a	n/a	n/a	blue
108.1838	1.0167	ITI	n/a	n/a	n/a	n/a	n/a	n/a	n/a	n/a
109.2005	0.5167	FIXCROSS	n/a	n/a	n/a	n/a	n/a	n/a	n/a	n/a
109.7172	0.7667	INK	6	Incongruent	niebieski	blue	zielony	green	hit	n/a
110.4506	n/a	RESPONSE	n/a	n/a	n/a	n/a	n/a	n/a	n/a	green
110.4839	1.0167	ITI	n/a	n/a	n/a	n/a	n/a	n/a	n/a	n/a
111.5005	0.5166	FIXCROSS	n/a	n/a	n/a	n/a	n/a	n/a	n/a	n/a
112.0172	0.55	INK	7	Neutral	xxxxxxxx	xxxxxxxx	żółty	yellow	hit	n/a
112.5438	n/a	RESPONSE	n/a	n/a	n/a	n/a	n/a	n/a	n/a	yellow
112.5672	1.0167	ITI	n/a	n/a	n/a	n/a	n/a	n/a	n/a	n/a
113.5839	0.5167	FIXCROSS	n/a	n/a	n/a	n/a	n/a	n/a	n/a	n/a
114.1006	0.5	INK	8	Neutral	xxxxxxx	xxxxxxx	żółty	yellow	hit	n/a
114.573	n/a	RESPONSE	n/a	n/a	n/a	n/a	n/a	n/a	n/a	yellow
114.6006	1.0167	ITI	n/a	n/a	n/a	n/a	n/a	n/a	n/a	n/a
115.6172	0.5167	FIXCROSS	n/a	n/a	n/a	n/a	n/a	n/a	n/a	n/a
116.1339	0.7667	INK	9	Incongruent	żółty	yellow	niebieski	blue	hit	n/a
116.874	n/a	RESPONSE	n/a	n/a	n/a	n/a	n/a	n/a	n/a	blue
116.9006	1.0167	ITI	n/a	n/a	n/a	n/a	n/a	n/a	n/a	n/a
117.9173	0.5167	FIXCROSS	n/a	n/a	n/a	n/a	n/a	n/a	n/a	n/a
118.4339	0.6333	INK	10	Neutral	xxxxx	xxxxx	czerwony	red	hit	n/a
119.0471	n/a	RESPONSE	n/a	n/a	n/a	n/a	n/a	n/a	n/a	red
119.0673	1.0167	ITI	n/a	n/a	n/a	n/a	n/a	n/a	n/a	n/a
120.0839	0.5167	FIXCROSS	n/a	n/a	n/a	n/a	n/a	n/a	n/a	n/a
120.6006	0.6333	INK	11	Incongruent	żółty	yellow	zielony	green	hit	n/a
121.2043	n/a	RESPONSE	n/a	n/a	n/a	n/a	n/a	n/a	n/a	green
121.2339	1.0167	ITI	n/a	n/a	n/a	n/a	n/a	n/a	n/a	n/a
122.2506	0.5167	FIXCROSS	n/a	n/a	n/a	n/a	n/a	n/a	n/a	n/a
122.7673	0.6	INK	12	Neutral	xxxxxxxxx	xxxxxxxxx	zielony	green	hit	n/a
123.3454	n/a	RESPONSE	n/a	n/a	n/a	n/a	n/a	n/a	n/a	green
123.3673	1.0167	ITI	n/a	n/a	n/a	n/a	n/a	n/a	n/a	n/a
124.384	0.5167	FIXCROSS	n/a	n/a	n/a	n/a	n/a	n/a	n/a	n/a
124.9006	0.7667	INK	13	Neutral	xxxxxxxxx	xxxxxxxxx	żółty	yellow	hit	n/a
125.6464	n/a	RESPONSE	n/a	n/a	n/a	n/a	n/a	n/a	n/a	yellow
125.6673	1.0167	ITI	n/a	n/a	n/a	n/a	n/a	n/a	n/a	n/a
126.684	0.5167	FIXCROSS	n/a	n/a	n/a	n/a	n/a	n/a	n/a	n/a
127.2007	0.7333	INK	14	Incongruent	czerwony	red	niebieski	blue	hit	n/a
127.9154	n/a	RESPONSE	n/a	n/a	n/a	n/a	n/a	n/a	n/a	blue
127.934	1.0167	ITI	n/a	n/a	n/a	n/a	n/a	n/a	n/a	n/a
128.9507	0.5167	FIXCROSS	n/a	n/a	n/a	n/a	n/a	n/a	n/a	n/a
129.4673	0.7333	INK	15	Incongruent	czerwony	red	zielony	green	hit	n/a
130.1684	n/a	RESPONSE	n/a	n/a	n/a	n/a	n/a	n/a	n/a	green
130.2007	1.0167	ITI	n/a	n/a	n/a	n/a	n/a	n/a	n/a	n/a
131.2173	0.5167	FIXCROSS	n/a	n/a	n/a	n/a	n/a	n/a	n/a	n/a
131.734	0.65	INK	16	Incongruent	żółty	yellow	zielony	green	hit	n/a
132.3575	n/a	RESPONSE	n/a	n/a	n/a	n/a	n/a	n/a	n/a	green
132.384	1.0167	ITI	n/a	n/a	n/a	n/a	n/a	n/a	n/a	n/a
133.4007	0.5167	FIXCROSS	n/a	n/a	n/a	n/a	n/a	n/a	n/a	n/a
133.9174	0.5	INK	17	Incongruent	niebieski	blue	zielony	green	hit	n/a
134.3867	n/a	RESPONSE	n/a	n/a	n/a	n/a	n/a	n/a	n/a	green
134.4174	1.0167	ITI	n/a	n/a	n/a	n/a	n/a	n/a	n/a	n/a
135.4341	0.5167	FIXCROSS	n/a	n/a	n/a	n/a	n/a	n/a	n/a	n/a
135.9507	0.7167	INK	18	Incongruent	niebieski	blue	żółty	yellow	hit	n/a
136.6398	n/a	RESPONSE	n/a	n/a	n/a	n/a	n/a	n/a	n/a	yellow
136.6674	1.0167	ITI	n/a	n/a	n/a	n/a	n/a	n/a	n/a	n/a
137.6841	0.5167	FIXCROSS	n/a	n/a	n/a	n/a	n/a	n/a	n/a	n/a
138.2007	0.7667	INK	19	Incongruent	niebieski	blue	czerwony	red	hit	n/a
138.9406	n/a	RESPONSE	n/a	n/a	n/a	n/a	n/a	n/a	n/a	red
138.9674	1.0167	ITI	n/a	n/a	n/a	n/a	n/a	n/a	n/a	n/a
139.9841	0.5167	FIXCROSS	n/a	n/a	n/a	n/a	n/a	n/a	n/a	n/a
140.5008	0.5	INK	20	Neutral	xxxxx	xxxxx	czerwony	red	hit	n/a
140.9699	n/a	RESPONSE	n/a	n/a	n/a	n/a	n/a	n/a	n/a	red
141.0008	1.0167	ITI	n/a	n/a	n/a	n/a	n/a	n/a	n/a	n/a
142.0174	0.5167	FIXCROSS	n/a	n/a	n/a	n/a	n/a	n/a	n/a	n/a
142.5341	0.7667	INK	21	Neutral	xxxxxxxxx	xxxxxxxxx	żółty	yellow	hit	n/a
143.2709	n/a	RESPONSE	n/a	n/a	n/a	n/a	n/a	n/a	n/a	yellow
143.3008	1.0167	ITI	n/a	n/a	n/a	n/a	n/a	n/a	n/a	n/a
144.3174	0.5167	FIXCROSS	n/a	n/a	n/a	n/a	n/a	n/a	n/a	n/a
144.8341	0.8333	INK	22	Neutral	xxxxx	xxxxx	zielony	green	hit	n/a
145.6357	n/a	RESPONSE	n/a	n/a	n/a	n/a	n/a	n/a	n/a	green
145.6675	1.0167	ITI	n/a	n/a	n/a	n/a	n/a	n/a	n/a	n/a
146.6841	0.5167	FIXCROSS	n/a	n/a	n/a	n/a	n/a	n/a	n/a	n/a
147.2008	0.5667	INK	23	Incongruent	czerwony	red	niebieski	blue	hit	n/a
147.745	n/a	RESPONSE	n/a	n/a	n/a	n/a	n/a	n/a	n/a	blue
147.7675	1.0167	ITI	n/a	n/a	n/a	n/a	n/a	n/a	n/a	n/a
148.7841	0.5167	FIXCROSS	n/a	n/a	n/a	n/a	n/a	n/a	n/a	n/a
149.3008	0.5	INK	24	Neutral	xxxxxxxxx	xxxxxxxxx	czerwony	red	hit	n/a
149.7742	n/a	RESPONSE	n/a	n/a	n/a	n/a	n/a	n/a	n/a	red
149.8008	1.0167	ITI	n/a	n/a	n/a	n/a	n/a	n/a	n/a	n/a
150.8175	0.5167	FIXCROSS	n/a	n/a	n/a	n/a	n/a	n/a	n/a	n/a
151.3342	0.4667	INK	25	Incongruent	żółty	yellow	czerwony	red	hit	n/a
151.7716	n/a	RESPONSE	n/a	n/a	n/a	n/a	n/a	n/a	n/a	red
151.8008	1.0167	ITI	n/a	n/a	n/a	n/a	n/a	n/a	n/a	n/a
152.8175	0.5167	FIXCROSS	n/a	n/a	n/a	n/a	n/a	n/a	n/a	n/a
153.3342	0.7	INK	26	Incongruent	zielony	green	żółty	yellow	hit	n/a
154.0087	n/a	RESPONSE	n/a	n/a	n/a	n/a	n/a	n/a	n/a	yellow
154.0342	1.0167	ITI	n/a	n/a	n/a	n/a	n/a	n/a	n/a	n/a
155.0509	0.5167	FIXCROSS	n/a	n/a	n/a	n/a	n/a	n/a	n/a	n/a
155.5675	0.8	INK	27	Incongruent	zielony	green	czerwony	red	hit	n/a
156.3415	n/a	RESPONSE	n/a	n/a	n/a	n/a	n/a	n/a	n/a	red
156.3675	1.0167	ITI	n/a	n/a	n/a	n/a	n/a	n/a	n/a	n/a
157.3842	0.5167	FIXCROSS	n/a	n/a	n/a	n/a	n/a	n/a	n/a	n/a
157.9009	0.7667	INK	28	Incongruent	zielony	green	niebieski	blue	hit	n/a
158.6425	n/a	RESPONSE	n/a	n/a	n/a	n/a	n/a	n/a	n/a	blue
158.6675	1.0167	ITI	n/a	n/a	n/a	n/a	n/a	n/a	n/a	n/a
159.6842	0.5167	FIXCROSS	n/a	n/a	n/a	n/a	n/a	n/a	n/a	n/a
160.2009	0.8333	INK	29	Incongruent	zielony	green	żółty	yellow	hit	n/a
161.0074	n/a	RESPONSE	n/a	n/a	n/a	n/a	n/a	n/a	n/a	yellow
161.0342	1.0167	ITI	n/a	n/a	n/a	n/a	n/a	n/a	n/a	n/a
162.0509	0.5167	FIXCROSS	n/a	n/a	n/a	n/a	n/a	n/a	n/a	n/a
162.5676	0.9	INK	30	Neutral	xxxxx	xxxxx	niebieski	blue	hit	n/a
163.4362	n/a	RESPONSE	n/a	n/a	n/a	n/a	n/a	n/a	n/a	blue
163.4676	1.0167	ITI	n/a	n/a	n/a	n/a	n/a	n/a	n/a	n/a
164.4843	0.5167	FIXCROSS	n/a	n/a	n/a	n/a	n/a	n/a	n/a	n/a
165.0009	0.7	INK	31	Incongruent	zielony	green	niebieski	blue	hit	n/a
165.6733	n/a	RESPONSE	n/a	n/a	n/a	n/a	n/a	n/a	n/a	blue
165.7009	1.0167	ITI	n/a	n/a	n/a	n/a	n/a	n/a	n/a	n/a
166.7176	0.5167	FIXCROSS	n/a	n/a	n/a	n/a	n/a	n/a	n/a	n/a
167.2343	0.8	INK	32	Incongruent	czerwony	red	zielony	green	hit	n/a
168.0061	n/a	RESPONSE	n/a	n/a	n/a	n/a	n/a	n/a	n/a	green
168.0343	1.0167	ITI	n/a	n/a	n/a	n/a	n/a	n/a	n/a	n/a
169.051	0.5167	FIXCROSS	n/a	n/a	n/a	n/a	n/a	n/a	n/a	n/a
169.5676	0.7667	INK	33	Incongruent	żółty	yellow	niebieski	blue	hit	n/a
170.3071	n/a	RESPONSE	n/a	n/a	n/a	n/a	n/a	n/a	n/a	blue
170.3343	1.0167	ITI	n/a	n/a	n/a	n/a	n/a	n/a	n/a	n/a
171.351	0.5167	FIXCROSS	n/a	n/a	n/a	n/a	n/a	n/a	n/a	n/a
171.8676	0.6667	INK	34	Neutral	xxxxxxxxx	xxxxxxxxx	czerwony	red	hit	n/a
172.5122	n/a	RESPONSE	n/a	n/a	n/a	n/a	n/a	n/a	n/a	red
172.5343	1.0167	ITI	n/a	n/a	n/a	n/a	n/a	n/a	n/a	n/a
173.551	0.5167	FIXCROSS	n/a	n/a	n/a	n/a	n/a	n/a	n/a	n/a
174.0677	0.65	INK	35	Neutral	xxxxxxxx	xxxxxxxx	żółty	yellow	hit	n/a
174.6853	n/a	RESPONSE	n/a	n/a	n/a	n/a	n/a	n/a	n/a	yellow
174.7177	1.0167	ITI	n/a	n/a	n/a	n/a	n/a	n/a	n/a	n/a
175.7343	0.5167	FIXCROSS	n/a	n/a	n/a	n/a	n/a	n/a	n/a	n/a
176.251	0.6167	INK	36	Incongruent	czerwony	red	żółty	yellow	hit	n/a
176.8424	n/a	RESPONSE	n/a	n/a	n/a	n/a	n/a	n/a	n/a	yellow
176.8677	1.0167	ITI	n/a	n/a	n/a	n/a	n/a	n/a	n/a	n/a
177.8844	0.5167	FIXCROSS	n/a	n/a	n/a	n/a	n/a	n/a	n/a	n/a
178.401	0.7833	INK	37	Neutral	xxxxx	xxxxx	niebieski	blue	hit	n/a
179.1594	n/a	RESPONSE	n/a	n/a	n/a	n/a	n/a	n/a	n/a	blue
179.1844	1.0167	ITI	n/a	n/a	n/a	n/a	n/a	n/a	n/a	n/a
180.201	0.5167	FIXCROSS	n/a	n/a	n/a	n/a	n/a	n/a	n/a	n/a
180.7177	0.65	INK	38	Incongruent	żółty	yellow	czerwony	red	hit	n/a
181.3485	n/a	RESPONSE	n/a	n/a	n/a	n/a	n/a	n/a	n/a	red
181.3677	1.0167	ITI	n/a	n/a	n/a	n/a	n/a	n/a	n/a	n/a
182.3844	0.5167	FIXCROSS	n/a	n/a	n/a	n/a	n/a	n/a	n/a	n/a
182.9011	0.7667	INK	39	Neutral	xxxxxxx	xxxxxxx	niebieski	blue	hit	n/a
183.6495	n/a	RESPONSE	n/a	n/a	n/a	n/a	n/a	n/a	n/a	blue
183.6677	1.0167	ITI	n/a	n/a	n/a	n/a	n/a	n/a	n/a	n/a
184.6844	0.5167	FIXCROSS	n/a	n/a	n/a	n/a	n/a	n/a	n/a	n/a
185.2011	0.7667	INK	40	Incongruent	zielony	green	czerwony	red	hit	n/a
185.9503	n/a	RESPONSE	n/a	n/a	n/a	n/a	n/a	n/a	n/a	red
185.9678	1.0167	ITI	n/a	n/a	n/a	n/a	n/a	n/a	n/a	n/a
186.9844	0.5167	FIXCROSS	n/a	n/a	n/a	n/a	n/a	n/a	n/a	n/a
187.5011	0.7667	INK	41	Neutral	xxxxxxxx	xxxxxxxx	niebieski	blue	hit	n/a
188.2353	n/a	RESPONSE	n/a	n/a	n/a	n/a	n/a	n/a	n/a	blue
188.2678	1.0167	ITI	n/a	n/a	n/a	n/a	n/a	n/a	n/a	n/a
189.2844	0.5167	FIXCROSS	n/a	n/a	n/a	n/a	n/a	n/a	n/a	n/a
189.8011	0.6833	INK	42	Neutral	xxxxxxx	xxxxxxx	czerwony	red	hit	n/a
190.4564	n/a	RESPONSE	n/a	n/a	n/a	n/a	n/a	n/a	n/a	red
190.4845	1.0167	ITI	n/a	n/a	n/a	n/a	n/a	n/a	n/a	n/a
191.5011	0.5167	FIXCROSS	n/a	n/a	n/a	n/a	n/a	n/a	n/a	n/a
192.0178	0.6833	INK	43	Incongruent	niebieski	blue	żółty	yellow	hit	n/a
192.6775	n/a	RESPONSE	n/a	n/a	n/a	n/a	n/a	n/a	n/a	yellow
192.7011	1.0167	ITI	n/a	n/a	n/a	n/a	n/a	n/a	n/a	n/a
193.7178	0.5167	FIXCROSS	n/a	n/a	n/a	n/a	n/a	n/a	n/a	n/a
194.2345	0.6333	INK	44	Incongruent	niebieski	blue	czerwony	red	hit	n/a
194.8346	n/a	RESPONSE	n/a	n/a	n/a	n/a	n/a	n/a	n/a	red
194.8678	1.0167	ITI	n/a	n/a	n/a	n/a	n/a	n/a	n/a	n/a
195.8845	0.5167	FIXCROSS	n/a	n/a	n/a	n/a	n/a	n/a	n/a	n/a
196.4012	0.8	INK	45	Neutral	xxxxxxx	xxxxxxx	niebieski	blue	hit	n/a
197.1835	n/a	RESPONSE	n/a	n/a	n/a	n/a	n/a	n/a	n/a	blue
197.2012	1.0167	ITI	n/a	n/a	n/a	n/a	n/a	n/a	n/a	n/a
198.2178	0.5167	FIXCROSS	n/a	n/a	n/a	n/a	n/a	n/a	n/a	n/a
198.7345	0.7833	INK	46	Neutral	xxxxxxxx	xxxxxxxx	niebieski	blue	hit	n/a
199.4844	n/a	RESPONSE	n/a	n/a	n/a	n/a	n/a	n/a	n/a	blue
199.5178	1.0167	ITI	n/a	n/a	n/a	n/a	n/a	n/a	n/a	n/a
200.5345	0.5167	FIXCROSS	n/a	n/a	n/a	n/a	n/a	n/a	n/a	n/a
201.0512	0.9	INK	47	Neutral	xxxxxxxxx	xxxxxxxxx	żółty	yellow	hit	n/a
201.9291	n/a	RESPONSE	n/a	n/a	n/a	n/a	n/a	n/a	n/a	yellow
201.9512	1.0167	ITI	n/a	n/a	n/a	n/a	n/a	n/a	n/a	n/a
202.9679	0.5167	FIXCROSS	n/a	n/a	n/a	n/a	n/a	n/a	n/a	n/a
203.4845	0.7	INK	48	Incongruent	czerwony	red	żółty	yellow	hit	n/a
204.1662	n/a	RESPONSE	n/a	n/a	n/a	n/a	n/a	n/a	n/a	yellow
204.1845	1.0167	ITI	n/a	n/a	n/a	n/a	n/a	n/a	n/a	n/a
205.2012	0.5167	FIXCROSS	n/a	n/a	n/a	n/a	n/a	n/a	n/a	n/a
205.7179	0.65	INK	49	Neutral	xxxxxxx	xxxxxxx	żółty	yellow	hit	n/a
206.3393	n/a	RESPONSE	n/a	n/a	n/a	n/a	n/a	n/a	n/a	yellow
206.3679	1.0167	ITI	n/a	n/a	n/a	n/a	n/a	n/a	n/a	n/a
207.3846	0.5167	FIXCROSS	n/a	n/a	n/a	n/a	n/a	n/a	n/a	n/a
207.9012	0.4667	INK	50	Neutral	xxxxxxxxx	xxxxxxxxx	czerwony	red	hit	n/a
208.3366	n/a	RESPONSE	n/a	n/a	n/a	n/a	n/a	n/a	n/a	red
208.3679	1.0167	ITI	n/a	n/a	n/a	n/a	n/a	n/a	n/a	n/a
209.3846	0.5167	FIXCROSS	n/a	n/a	n/a	n/a	n/a	n/a	n/a	n/a
209.9013	0.7667	INK	51	Neutral	xxxxxxxxx	xxxxxxxxx	zielony	green	hit	n/a
210.6375	n/a	RESPONSE	n/a	n/a	n/a	n/a	n/a	n/a	n/a	green
210.6679	1.0167	ITI	n/a	n/a	n/a	n/a	n/a	n/a	n/a	n/a
211.6846	0.5167	FIXCROSS	n/a	n/a	n/a	n/a	n/a	n/a	n/a	n/a
212.2013	0.7	INK	52	Incongruent	zielony	green	niebieski	blue	hit	n/a
212.8746	n/a	RESPONSE	n/a	n/a	n/a	n/a	n/a	n/a	n/a	blue
212.9013	1.0167	ITI	n/a	n/a	n/a	n/a	n/a	n/a	n/a	n/a
213.9179	0.5167	FIXCROSS	n/a	n/a	n/a	n/a	n/a	n/a	n/a	n/a
214.4346	0.8	INK	53	Neutral	xxxxxxxx	xxxxxxxx	zielony	green	hit	n/a
215.2075	n/a	RESPONSE	n/a	n/a	n/a	n/a	n/a	n/a	n/a	green
215.2346	1.0167	ITI	n/a	n/a	n/a	n/a	n/a	n/a	n/a	n/a
216.2513	0.5167	FIXCROSS	n/a	n/a	n/a	n/a	n/a	n/a	n/a	n/a
216.768	0.8833	INK	54	Incongruent	czerwony	red	niebieski	blue	hit	n/a
217.6203	n/a	RESPONSE	n/a	n/a	n/a	n/a	n/a	n/a	n/a	blue
217.6513	1.0167	ITI	n/a	n/a	n/a	n/a	n/a	n/a	n/a	n/a
218.668	0.5167	FIXCROSS	n/a	n/a	n/a	n/a	n/a	n/a	n/a	n/a
219.1847	0.65	INK	55	Incongruent	żółty	yellow	czerwony	red	hit	n/a
219.8093	n/a	RESPONSE	n/a	n/a	n/a	n/a	n/a	n/a	n/a	red
219.8347	1.0167	ITI	n/a	n/a	n/a	n/a	n/a	n/a	n/a	n/a
220.8513	0.5167	FIXCROSS	n/a	n/a	n/a	n/a	n/a	n/a	n/a	n/a
221.368	0.7667	INK	56	Neutral	xxxxxxx	xxxxxxx	niebieski	blue	hit	n/a
222.1102	n/a	RESPONSE	n/a	n/a	n/a	n/a	n/a	n/a	n/a	blue
222.1347	1.0167	ITI	n/a	n/a	n/a	n/a	n/a	n/a	n/a	n/a
223.1514	0.5167	FIXCROSS	n/a	n/a	n/a	n/a	n/a	n/a	n/a	n/a
223.668	0.75	INK	57	Incongruent	niebieski	blue	żółty	yellow	hit	n/a
224.3952	n/a	RESPONSE	n/a	n/a	n/a	n/a	n/a	n/a	n/a	yellow
224.418	1.0167	ITI	n/a	n/a	n/a	n/a	n/a	n/a	n/a	n/a
225.4347	0.5167	FIXCROSS	n/a	n/a	n/a	n/a	n/a	n/a	n/a	n/a
225.9514	0.6667	INK	58	Incongruent	zielony	green	żółty	yellow	hit	n/a
226.5843	n/a	RESPONSE	n/a	n/a	n/a	n/a	n/a	n/a	n/a	yellow
226.6181	1.0167	ITI	n/a	n/a	n/a	n/a	n/a	n/a	n/a	n/a
227.6347	0.5167	FIXCROSS	n/a	n/a	n/a	n/a	n/a	n/a	n/a	n/a
228.1514	0.6833	INK	59	Neutral	xxxxxxxx	xxxxxxxx	zielony	green	hit	n/a
228.8053	n/a	RESPONSE	n/a	n/a	n/a	n/a	n/a	n/a	n/a	green
228.8347	1.0167	ITI	n/a	n/a	n/a	n/a	n/a	n/a	n/a	n/a
229.8514	0.5167	FIXCROSS	n/a	n/a	n/a	n/a	n/a	n/a	n/a	n/a
230.3681	0.6167	INK	60	Neutral	xxxxxxxx	xxxxxxxx	zielony	green	hit	n/a
230.9625	n/a	RESPONSE	n/a	n/a	n/a	n/a	n/a	n/a	n/a	green
230.9847	1.0167	ITI	n/a	n/a	n/a	n/a	n/a	n/a	n/a	n/a
232.0014	0.5167	FIXCROSS	n/a	n/a	n/a	n/a	n/a	n/a	n/a	n/a
232.5181	0.8	INK	61	Neutral	xxxxxxx	xxxxxxx	żółty	yellow	hit	n/a
233.2955	n/a	RESPONSE	n/a	n/a	n/a	n/a	n/a	n/a	n/a	yellow
233.3181	1.0167	ITI	n/a	n/a	n/a	n/a	n/a	n/a	n/a	n/a
234.3348	0.5167	FIXCROSS	n/a	n/a	n/a	n/a	n/a	n/a	n/a	n/a
234.8514	0.75	INK	62	Neutral	xxxxxxx	xxxxxxx	czerwony	red	hit	n/a
235.5803	n/a	RESPONSE	n/a	n/a	n/a	n/a	n/a	n/a	n/a	red
235.6014	1.0167	ITI	n/a	n/a	n/a	n/a	n/a	n/a	n/a	n/a
236.6181	0.5167	FIXCROSS	n/a	n/a	n/a	n/a	n/a	n/a	n/a	n/a
237.1348	0.7833	INK	63	Neutral	xxxxxxxxx	xxxxxxxxx	zielony	green	hit	n/a
237.8973	n/a	RESPONSE	n/a	n/a	n/a	n/a	n/a	n/a	n/a	green
237.9181	1.0167	ITI	n/a	n/a	n/a	n/a	n/a	n/a	n/a	n/a
238.9348	0.5167	FIXCROSS	n/a	n/a	n/a	n/a	n/a	n/a	n/a	n/a
239.4515	0.8667	INK	64	Neutral	xxxxxxxx	xxxxxxxx	żółty	yellow	hit	n/a
240.2942	n/a	RESPONSE	n/a	n/a	n/a	n/a	n/a	n/a	n/a	yellow
240.3181	1.0167	ITI	n/a	n/a	n/a	n/a	n/a	n/a	n/a	n/a
241.3348	0.5167	FIXCROSS	n/a	n/a	n/a	n/a	n/a	n/a	n/a	n/a
241.8515	0.7333	INK	65	Neutral	xxxxx	xxxxx	zielony	green	hit	n/a
242.563	n/a	RESPONSE	n/a	n/a	n/a	n/a	n/a	n/a	n/a	green
242.5848	1.0167	ITI	n/a	n/a	n/a	n/a	n/a	n/a	n/a	n/a
243.6015	0.5167	FIXCROSS	n/a	n/a	n/a	n/a	n/a	n/a	n/a	n/a
244.1182	0.6333	INK	66	Neutral	xxxxx	xxxxx	zielony	green	hit	n/a
244.7202	n/a	RESPONSE	n/a	n/a	n/a	n/a	n/a	n/a	n/a	green
244.7515	1.0167	ITI	n/a	n/a	n/a	n/a	n/a	n/a	n/a	n/a
245.7682	0.5167	FIXCROSS	n/a	n/a	n/a	n/a	n/a	n/a	n/a	n/a
246.2848	0.6167	INK	67	Neutral	xxxxx	xxxxx	czerwony	red	hit	n/a
246.8773	n/a	RESPONSE	n/a	n/a	n/a	n/a	n/a	n/a	n/a	red
246.9015	1.0167	ITI	n/a	n/a	n/a	n/a	n/a	n/a	n/a	n/a
247.9182	0.5167	FIXCROSS	n/a	n/a	n/a	n/a	n/a	n/a	n/a	n/a
248.4349	0.7833	INK	68	Incongruent	żółty	yellow	zielony	green	hit	n/a
249.1943	n/a	RESPONSE	n/a	n/a	n/a	n/a	n/a	n/a	n/a	green
249.2182	1.0167	ITI	n/a	n/a	n/a	n/a	n/a	n/a	n/a	n/a
250.2349	0.5167	FIXCROSS	n/a	n/a	n/a	n/a	n/a	n/a	n/a	n/a
250.7516	0.7833	INK	69	Neutral	xxxxxxxx	xxxxxxxx	niebieski	blue	hit	n/a
251.5111	n/a	RESPONSE	n/a	n/a	n/a	n/a	n/a	n/a	n/a	blue
251.5349	1.0167	ITI	n/a	n/a	n/a	n/a	n/a	n/a	n/a	n/a
252.5516	0.5167	FIXCROSS	n/a	n/a	n/a	n/a	n/a	n/a	n/a	n/a
253.0682	0.7833	INK	70	Incongruent	zielony	green	czerwony	red	hit	n/a
253.8281	n/a	RESPONSE	n/a	n/a	n/a	n/a	n/a	n/a	n/a	red
253.8516	1.0167	ITI	n/a	n/a	n/a	n/a	n/a	n/a	n/a	n/a
254.8682	0.5167	FIXCROSS	n/a	n/a	n/a	n/a	n/a	n/a	n/a	n/a
255.3849	0.7167	INK	71	Incongruent	niebieski	blue	czerwony	red	hit	n/a
256.0812	n/a	RESPONSE	n/a	n/a	n/a	n/a	n/a	n/a	n/a	red
256.1016	1.0167	ITI	n/a	n/a	n/a	n/a	n/a	n/a	n/a	n/a
257.1183	0.5167	FIXCROSS	n/a	n/a	n/a	n/a	n/a	n/a	n/a	n/a
257.6349	0.4333	INK	72	Neutral	xxxxxxx	xxxxxxx	czerwony	red	hit	n/a
258.0465	n/a	RESPONSE	n/a	n/a	n/a	n/a	n/a	n/a	n/a	red
258.0683	1.0833	ITI	n/a	n/a	n/a	n/a	n/a	n/a	n/a	n/a
285.6101	n/a	RESPONSE	n/a	n/a	n/a	n/a	n/a	n/a	n/a	n/a
285.6685	1.0167	ITI	n/a	n/a	n/a	n/a	n/a	n/a	n/a	n/a
286.6851	0.5167	FIXCROSS	n/a	n/a	n/a	n/a	n/a	n/a	n/a	n/a
287.2018	1.45	T_COLOR_NAME	1	Incongruent	żółty	yellow	zielony	green	hit	n/a
288.6142	n/a	RESPONSE	n/a	n/a	n/a	n/a	n/a	n/a	n/a	yellow
288.6518	0.5167	FEEDBACK	n/a	n/a	n/a	n/a	n/a	n/a	n/a	n/a
289.1685	1.0167	ITI	n/a	n/a	n/a	n/a	n/a	n/a	n/a	n/a
290.1852	0.5167	FIXCROSS	n/a	n/a	n/a	n/a	n/a	n/a	n/a	n/a
290.7018	0.85	T_COLOR_NAME	2	Incongruent	czerwony	red	żółty	yellow	hit	n/a
291.5223	n/a	RESPONSE	n/a	n/a	n/a	n/a	n/a	n/a	n/a	red
291.5518	0.5167	FEEDBACK	n/a	n/a	n/a	n/a	n/a	n/a	n/a	n/a
292.0685	1.0167	ITI	n/a	n/a	n/a	n/a	n/a	n/a	n/a	n/a
293.0852	0.5167	FIXCROSS	n/a	n/a	n/a	n/a	n/a	n/a	n/a	n/a
293.6019	0.9167	T_COLOR_NAME	3	Neutral	żółty	yellow	Neutral	Neutral	hit	n/a
294.4944	n/a	RESPONSE	n/a	n/a	n/a	n/a	n/a	n/a	n/a	yellow
294.5185	0.5167	FEEDBACK	n/a	n/a	n/a	n/a	n/a	n/a	n/a	n/a
295.0352	1.0167	ITI	n/a	n/a	n/a	n/a	n/a	n/a	n/a	n/a
296.0519	0.5167	FIXCROSS	n/a	n/a	n/a	n/a	n/a	n/a	n/a	n/a
296.5685	1.0167	T_COLOR_NAME	4	Neutral	zielony	green	Neutral	Neutral	hit	n/a
297.5624	n/a	RESPONSE	n/a	n/a	n/a	n/a	n/a	n/a	n/a	green
297.5852	0.5167	FEEDBACK	n/a	n/a	n/a	n/a	n/a	n/a	n/a	n/a
298.1019	1.0167	ITI	n/a	n/a	n/a	n/a	n/a	n/a	n/a	n/a
299.1186	0.5167	FIXCROSS	n/a	n/a	n/a	n/a	n/a	n/a	n/a	n/a
299.6352	0.9333	T_COLOR_NAME	5	Neutral	niebieski	blue	Neutral	Neutral	hit	n/a
300.5344	n/a	RESPONSE	n/a	n/a	n/a	n/a	n/a	n/a	n/a	blue
300.5686	0.5167	FEEDBACK	n/a	n/a	n/a	n/a	n/a	n/a	n/a	n/a
301.0852	1.0167	ITI	n/a	n/a	n/a	n/a	n/a	n/a	n/a	n/a
302.1019	0.5167	FIXCROSS	n/a	n/a	n/a	n/a	n/a	n/a	n/a	n/a
302.6186	0.6833	T_COLOR_NAME	6	Neutral	czerwony	red	Neutral	Neutral	hit	n/a
303.2668	n/a	RESPONSE	n/a	n/a	n/a	n/a	n/a	n/a	n/a	red
303.3019	0.5167	FEEDBACK	n/a	n/a	n/a	n/a	n/a	n/a	n/a	n/a
303.8186	1.0167	ITI	n/a	n/a	n/a	n/a	n/a	n/a	n/a	n/a
304.8353	0.5167	FIXCROSS	n/a	n/a	n/a	n/a	n/a	n/a	n/a	n/a
305.3519	1.0833	T_COLOR_NAME	7	Incongruent	zielony	green	czerwony	red	hit	n/a
306.4146	n/a	RESPONSE	n/a	n/a	n/a	n/a	n/a	n/a	n/a	green
306.4353	0.5167	FEEDBACK	n/a	n/a	n/a	n/a	n/a	n/a	n/a	n/a
306.9519	1.0167	ITI	n/a	n/a	n/a	n/a	n/a	n/a	n/a	n/a
307.9686	0.5167	FIXCROSS	n/a	n/a	n/a	n/a	n/a	n/a	n/a	n/a
308.4853	0.9	T_COLOR_NAME	8	Neutral	żółty	yellow	Neutral	Neutral	hit	n/a
309.3547	n/a	RESPONSE	n/a	n/a	n/a	n/a	n/a	n/a	n/a	yellow
309.3853	0.5167	FEEDBACK	n/a	n/a	n/a	n/a	n/a	n/a	n/a	n/a
309.902	1.0167	ITI	n/a	n/a	n/a	n/a	n/a	n/a	n/a	n/a
310.9186	0.5167	FIXCROSS	n/a	n/a	n/a	n/a	n/a	n/a	n/a	n/a
311.4353	0.8833	T_COLOR_NAME	9	Neutral	zielony	green	Neutral	Neutral	hit	n/a
312.2948	n/a	RESPONSE	n/a	n/a	n/a	n/a	n/a	n/a	n/a	green
312.3187	0.5167	FEEDBACK	n/a	n/a	n/a	n/a	n/a	n/a	n/a	n/a
312.8353	1.0167	ITI	n/a	n/a	n/a	n/a	n/a	n/a	n/a	n/a
313.852	0.5167	FIXCROSS	n/a	n/a	n/a	n/a	n/a	n/a	n/a	n/a
314.3687	0.7	T_COLOR_NAME	10	Neutral	czerwony	red	Neutral	Neutral	hit	n/a
315.0431	n/a	RESPONSE	n/a	n/a	n/a	n/a	n/a	n/a	n/a	red
315.0687	0.5167	FEEDBACK	n/a	n/a	n/a	n/a	n/a	n/a	n/a	n/a
315.5854	1.0167	ITI	n/a	n/a	n/a	n/a	n/a	n/a	n/a	n/a
316.602	0.5167	FIXCROSS	n/a	n/a	n/a	n/a	n/a	n/a	n/a	n/a
317.1187	0.7167	T_COLOR_NAME	11	Neutral	czerwony	red	Neutral	Neutral	hit	n/a
317.8075	n/a	RESPONSE	n/a	n/a	n/a	n/a	n/a	n/a	n/a	red
317.8354	0.5167	FEEDBACK	n/a	n/a	n/a	n/a	n/a	n/a	n/a	n/a
318.352	1.0167	ITI	n/a	n/a	n/a	n/a	n/a	n/a	n/a	n/a
319.3687	0.5167	FIXCROSS	n/a	n/a	n/a	n/a	n/a	n/a	n/a	n/a
319.8854	1.05	T_COLOR_NAME	12	Incongruent	niebieski	blue	czerwony	red	hit	n/a
320.9074	n/a	RESPONSE	n/a	n/a	n/a	n/a	n/a	n/a	n/a	blue
320.9354	0.5167	FEEDBACK	n/a	n/a	n/a	n/a	n/a	n/a	n/a	n/a
321.452	1.0333	ITI	n/a	n/a	n/a	n/a	n/a	n/a	n/a	n/a
325.8609	n/a	RESPONSE	n/a	n/a	n/a	n/a	n/a	n/a	n/a	n/a
325.9188	1.0167	ITI	n/a	n/a	n/a	n/a	n/a	n/a	n/a	n/a
326.9354	0.5167	FIXCROSS	n/a	n/a	n/a	n/a	n/a	n/a	n/a	n/a
327.4521	0.6667	COLOR_NAME	1	Neutral	czerwony	red	Neutral	Neutral	hit	n/a
328.0979	n/a	RESPONSE	n/a	n/a	n/a	n/a	n/a	n/a	n/a	red
328.1188	1.0167	ITI	n/a	n/a	n/a	n/a	n/a	n/a	n/a	n/a
329.1354	0.5167	FIXCROSS	n/a	n/a	n/a	n/a	n/a	n/a	n/a	n/a
329.6521	0.75	COLOR_NAME	2	Neutral	żółty	yellow	Neutral	Neutral	hit	n/a
330.3828	n/a	RESPONSE	n/a	n/a	n/a	n/a	n/a	n/a	n/a	yellow
330.4021	1.0167	ITI	n/a	n/a	n/a	n/a	n/a	n/a	n/a	n/a
331.4188	0.5167	FIXCROSS	n/a	n/a	n/a	n/a	n/a	n/a	n/a	n/a
331.9355	0.7	COLOR_NAME	3	Incongruent	czerwony	red	żółty	yellow	hit	n/a
332.6039	n/a	RESPONSE	n/a	n/a	n/a	n/a	n/a	n/a	n/a	red
332.6355	1.0167	ITI	n/a	n/a	n/a	n/a	n/a	n/a	n/a	n/a
333.6521	0.5166	FIXCROSS	n/a	n/a	n/a	n/a	n/a	n/a	n/a	n/a
334.1687	0.7835	COLOR_NAME	4	Neutral	żółty	yellow	Neutral	Neutral	hit	n/a
334.9208	n/a	RESPONSE	n/a	n/a	n/a	n/a	n/a	n/a	n/a	yellow
334.9522	1.0167	ITI	n/a	n/a	n/a	n/a	n/a	n/a	n/a	n/a
335.9688	0.5167	FIXCROSS	n/a	n/a	n/a	n/a	n/a	n/a	n/a	n/a
336.4855	0.75	COLOR_NAME	5	Incongruent	czerwony	red	zielony	green	hit	n/a
337.2058	n/a	RESPONSE	n/a	n/a	n/a	n/a	n/a	n/a	n/a	red
337.2355	1.0167	ITI	n/a	n/a	n/a	n/a	n/a	n/a	n/a	n/a
338.2522	0.5167	FIXCROSS	n/a	n/a	n/a	n/a	n/a	n/a	n/a	n/a
338.7688	0.85	COLOR_NAME	6	Neutral	żółty	yellow	Neutral	Neutral	hit	n/a
339.5866	n/a	RESPONSE	n/a	n/a	n/a	n/a	n/a	n/a	n/a	yellow
339.6188	1.0167	ITI	n/a	n/a	n/a	n/a	n/a	n/a	n/a	n/a
340.6355	0.5167	FIXCROSS	n/a	n/a	n/a	n/a	n/a	n/a	n/a	n/a
341.1522	0.7833	COLOR_NAME	7	Neutral	zielony	green	Neutral	Neutral	hit	n/a
341.9036	n/a	RESPONSE	n/a	n/a	n/a	n/a	n/a	n/a	n/a	green
341.9355	1.0167	ITI	n/a	n/a	n/a	n/a	n/a	n/a	n/a	n/a
342.9522	0.5167	FIXCROSS	n/a	n/a	n/a	n/a	n/a	n/a	n/a	n/a
343.4689	0.7333	COLOR_NAME	8	Neutral	niebieski	blue	Neutral	Neutral	hit	n/a
344.1725	n/a	RESPONSE	n/a	n/a	n/a	n/a	n/a	n/a	n/a	blue
344.2022	1.0167	ITI	n/a	n/a	n/a	n/a	n/a	n/a	n/a	n/a
345.2189	0.5167	FIXCROSS	n/a	n/a	n/a	n/a	n/a	n/a	n/a	n/a
345.7356	1.0833	COLOR_NAME	9	Neutral	zielony	green	Neutral	Neutral	hit	n/a
346.7931	n/a	RESPONSE	n/a	n/a	n/a	n/a	n/a	n/a	n/a	green
346.8189	1.0167	ITI	n/a	n/a	n/a	n/a	n/a	n/a	n/a	n/a
347.8356	0.5167	FIXCROSS	n/a	n/a	n/a	n/a	n/a	n/a	n/a	n/a
348.3522	0.8333	COLOR_NAME	10	Neutral	żółty	yellow	Neutral	Neutral	hit	n/a
349.158	n/a	RESPONSE	n/a	n/a	n/a	n/a	n/a	n/a	n/a	yellow
349.1856	1.0167	ITI	n/a	n/a	n/a	n/a	n/a	n/a	n/a	n/a
350.2023	0.5167	FIXCROSS	n/a	n/a	n/a	n/a	n/a	n/a	n/a	n/a
350.7189	0.9667	COLOR_NAME	11	Neutral	zielony	green	Neutral	Neutral	hit	n/a
351.6667	n/a	RESPONSE	n/a	n/a	n/a	n/a	n/a	n/a	n/a	green
351.6856	1.0167	ITI	n/a	n/a	n/a	n/a	n/a	n/a	n/a	n/a
352.7023	0.5167	FIXCROSS	n/a	n/a	n/a	n/a	n/a	n/a	n/a	n/a
353.2189	1.5667	COLOR_NAME	12	Incongruent	żółty	yellow	czerwony	red	hit	n/a
354.7665	n/a	RESPONSE	n/a	n/a	n/a	n/a	n/a	n/a	n/a	yellow
354.7856	1.0167	ITI	n/a	n/a	n/a	n/a	n/a	n/a	n/a	n/a
355.8023	0.5167	FIXCROSS	n/a	n/a	n/a	n/a	n/a	n/a	n/a	n/a
356.319	0.8667	COLOR_NAME	13	Incongruent	zielony	green	niebieski	blue	hit	n/a
357.1634	n/a	RESPONSE	n/a	n/a	n/a	n/a	n/a	n/a	n/a	green
357.1856	1.0167	ITI	n/a	n/a	n/a	n/a	n/a	n/a	n/a	n/a
358.2023	0.5167	FIXCROSS	n/a	n/a	n/a	n/a	n/a	n/a	n/a	n/a
358.719	0.9833	COLOR_NAME	14	Incongruent	żółty	yellow	zielony	green	hit	n/a
359.6721	n/a	RESPONSE	n/a	n/a	n/a	n/a	n/a	n/a	n/a	yellow
359.7023	1.0167	ITI	n/a	n/a	n/a	n/a	n/a	n/a	n/a	n/a
360.719	0.5167	FIXCROSS	n/a	n/a	n/a	n/a	n/a	n/a	n/a	n/a
361.2357	0.8333	COLOR_NAME	15	Incongruent	zielony	green	czerwony	red	hit	n/a
362.0369	n/a	RESPONSE	n/a	n/a	n/a	n/a	n/a	n/a	n/a	green
362.069	1.0167	ITI	n/a	n/a	n/a	n/a	n/a	n/a	n/a	n/a
363.0857	0.5167	FIXCROSS	n/a	n/a	n/a	n/a	n/a	n/a	n/a	n/a
363.6024	0.7	COLOR_NAME	16	Neutral	czerwony	red	Neutral	Neutral	hit	n/a
364.2741	n/a	RESPONSE	n/a	n/a	n/a	n/a	n/a	n/a	n/a	red
364.3023	1.0167	ITI	n/a	n/a	n/a	n/a	n/a	n/a	n/a	n/a
365.319	0.5167	FIXCROSS	n/a	n/a	n/a	n/a	n/a	n/a	n/a	n/a
365.8357	0.8667	COLOR_NAME	17	Neutral	żółty	yellow	Neutral	Neutral	hit	n/a
366.6709	n/a	RESPONSE	n/a	n/a	n/a	n/a	n/a	n/a	n/a	yellow
366.7024	1.0167	ITI	n/a	n/a	n/a	n/a	n/a	n/a	n/a	n/a
367.719	0.5167	FIXCROSS	n/a	n/a	n/a	n/a	n/a	n/a	n/a	n/a
368.2357	0.7333	COLOR_NAME	18	Incongruent	zielony	green	żółty	yellow	hit	n/a
368.9398	n/a	RESPONSE	n/a	n/a	n/a	n/a	n/a	n/a	n/a	green
368.969	1.0167	ITI	n/a	n/a	n/a	n/a	n/a	n/a	n/a	n/a
369.9857	0.5167	FIXCROSS	n/a	n/a	n/a	n/a	n/a	n/a	n/a	n/a
370.5024	0.8167	COLOR_NAME	19	Neutral	żółty	yellow	Neutral	Neutral	hit	n/a
371.2888	n/a	RESPONSE	n/a	n/a	n/a	n/a	n/a	n/a	n/a	yellow
371.3191	1.0167	ITI	n/a	n/a	n/a	n/a	n/a	n/a	n/a	n/a
372.3357	0.5167	FIXCROSS	n/a	n/a	n/a	n/a	n/a	n/a	n/a	n/a
372.8524	0.6667	COLOR_NAME	20	Neutral	czerwony	red	Neutral	Neutral	hit	n/a
373.4938	n/a	RESPONSE	n/a	n/a	n/a	n/a	n/a	n/a	n/a	red
373.5191	1.0167	ITI	n/a	n/a	n/a	n/a	n/a	n/a	n/a	n/a
374.5358	0.5167	FIXCROSS	n/a	n/a	n/a	n/a	n/a	n/a	n/a	n/a
375.0524	0.7667	COLOR_NAME	21	Neutral	czerwony	red	Neutral	Neutral	hit	n/a
375.7948	n/a	RESPONSE	n/a	n/a	n/a	n/a	n/a	n/a	n/a	red
375.8191	1.0167	ITI	n/a	n/a	n/a	n/a	n/a	n/a	n/a	n/a
376.8358	0.5167	FIXCROSS	n/a	n/a	n/a	n/a	n/a	n/a	n/a	n/a
377.3524	0.7833	COLOR_NAME	22	Neutral	zielony	green	Neutral	Neutral	hit	n/a
378.1118	n/a	RESPONSE	n/a	n/a	n/a	n/a	n/a	n/a	n/a	green
378.1358	1.0167	ITI	n/a	n/a	n/a	n/a	n/a	n/a	n/a	n/a
379.1525	0.5167	FIXCROSS	n/a	n/a	n/a	n/a	n/a	n/a	n/a	n/a
379.6691	0.7167	COLOR_NAME	23	Neutral	czerwony	red	Neutral	Neutral	hit	n/a
380.3647	n/a	RESPONSE	n/a	n/a	n/a	n/a	n/a	n/a	n/a	red
380.3858	1.0167	ITI	n/a	n/a	n/a	n/a	n/a	n/a	n/a	n/a
381.4025	0.5167	FIXCROSS	n/a	n/a	n/a	n/a	n/a	n/a	n/a	n/a
381.9191	0.65	COLOR_NAME	24	Neutral	czerwony	red	Neutral	Neutral	hit	n/a
382.5378	n/a	RESPONSE	n/a	n/a	n/a	n/a	n/a	n/a	n/a	red
382.5691	1.0167	ITI	n/a	n/a	n/a	n/a	n/a	n/a	n/a	n/a
383.5858	0.5167	FIXCROSS	n/a	n/a	n/a	n/a	n/a	n/a	n/a	n/a
384.1025	0.7167	COLOR_NAME	25	Incongruent	niebieski	blue	zielony	green	hit	n/a
384.7909	n/a	RESPONSE	n/a	n/a	n/a	n/a	n/a	n/a	n/a	blue
384.8192	1.0167	ITI	n/a	n/a	n/a	n/a	n/a	n/a	n/a	n/a
385.8358	0.5167	FIXCROSS	n/a	n/a	n/a	n/a	n/a	n/a	n/a	n/a
386.3525	0.8333	COLOR_NAME	26	Incongruent	żółty	yellow	niebieski	blue	hit	n/a
387.1558	n/a	RESPONSE	n/a	n/a	n/a	n/a	n/a	n/a	n/a	yellow
387.1858	1.0167	ITI	n/a	n/a	n/a	n/a	n/a	n/a	n/a	n/a
388.2025	0.5167	FIXCROSS	n/a	n/a	n/a	n/a	n/a	n/a	n/a	n/a
388.7192	0.7333	COLOR_NAME	27	Incongruent	czerwony	red	zielony	green	hit	n/a
389.4248	n/a	RESPONSE	n/a	n/a	n/a	n/a	n/a	n/a	n/a	red
389.4525	1.0167	ITI	n/a	n/a	n/a	n/a	n/a	n/a	n/a	n/a
390.4692	0.5167	FIXCROSS	n/a	n/a	n/a	n/a	n/a	n/a	n/a	n/a
390.9859	0.9833	COLOR_NAME	28	Neutral	niebieski	blue	Neutral	Neutral	hit	n/a
391.9494	n/a	RESPONSE	n/a	n/a	n/a	n/a	n/a	n/a	n/a	blue
391.9692	1.0167	ITI	n/a	n/a	n/a	n/a	n/a	n/a	n/a	n/a
392.9859	0.5167	FIXCROSS	n/a	n/a	n/a	n/a	n/a	n/a	n/a	n/a
393.5026	0.8833	COLOR_NAME	29	Incongruent	czerwony	red	niebieski	blue	hit	n/a
394.3622	n/a	RESPONSE	n/a	n/a	n/a	n/a	n/a	n/a	n/a	red
394.3859	1.0167	ITI	n/a	n/a	n/a	n/a	n/a	n/a	n/a	n/a
395.4026	0.5167	FIXCROSS	n/a	n/a	n/a	n/a	n/a	n/a	n/a	n/a
395.9192	0.9334	COLOR_NAME	30	Incongruent	niebieski	blue	czerwony	red	hit	n/a
396.8229	n/a	RESPONSE	n/a	n/a	n/a	n/a	n/a	n/a	n/a	blue
396.8526	1.0167	ITI	n/a	n/a	n/a	n/a	n/a	n/a	n/a	n/a
397.8693	0.5167	FIXCROSS	n/a	n/a	n/a	n/a	n/a	n/a	n/a	n/a
398.3859	0.7	COLOR_NAME	31	Neutral	zielony	green	Neutral	Neutral	hit	n/a
399.0599	n/a	RESPONSE	n/a	n/a	n/a	n/a	n/a	n/a	n/a	green
399.0859	1.0167	ITI	n/a	n/a	n/a	n/a	n/a	n/a	n/a	n/a
400.1026	0.5167	FIXCROSS	n/a	n/a	n/a	n/a	n/a	n/a	n/a	n/a
400.6193	0.7167	COLOR_NAME	32	Neutral	czerwony	red	Neutral	Neutral	hit	n/a
401.313	n/a	RESPONSE	n/a	n/a	n/a	n/a	n/a	n/a	n/a	red
401.3359	1.0167	ITI	n/a	n/a	n/a	n/a	n/a	n/a	n/a	n/a
402.3526	0.5167	FIXCROSS	n/a	n/a	n/a	n/a	n/a	n/a	n/a	n/a
402.8693	0.8333	COLOR_NAME	33	Neutral	niebieski	blue	Neutral	Neutral	hit	n/a
403.6778	n/a	RESPONSE	n/a	n/a	n/a	n/a	n/a	n/a	n/a	blue
403.7026	1.0167	ITI	n/a	n/a	n/a	n/a	n/a	n/a	n/a	n/a
404.7193	0.5167	FIXCROSS	n/a	n/a	n/a	n/a	n/a	n/a	n/a	n/a
405.236	0.8333	COLOR_NAME	34	Neutral	niebieski	blue	Neutral	Neutral	hit	n/a
406.0427	n/a	RESPONSE	n/a	n/a	n/a	n/a	n/a	n/a	n/a	blue
406.0693	1.0167	ITI	n/a	n/a	n/a	n/a	n/a	n/a	n/a	n/a
407.086	0.5167	FIXCROSS	n/a	n/a	n/a	n/a	n/a	n/a	n/a	n/a
407.6027	0.95	COLOR_NAME	35	Incongruent	zielony	green	żółty	yellow	incorrect	n/a
408.5354	n/a	RESPONSE	n/a	n/a	n/a	n/a	n/a	n/a	n/a	yellow
408.5527	1.0167	ITI	n/a	n/a	n/a	n/a	n/a	n/a	n/a	n/a
409.5693	0.5167	FIXCROSS	n/a	n/a	n/a	n/a	n/a	n/a	n/a	n/a
410.086	1.1	COLOR_NAME	36	Neutral	niebieski	blue	Neutral	Neutral	hit	n/a
411.1559	n/a	RESPONSE	n/a	n/a	n/a	n/a	n/a	n/a	n/a	blue
411.186	1.0167	ITI	n/a	n/a	n/a	n/a	n/a	n/a	n/a	n/a
412.2027	0.5167	FIXCROSS	n/a	n/a	n/a	n/a	n/a	n/a	n/a	n/a
412.7194	1.1	COLOR_NAME	37	Incongruent	czerwony	red	niebieski	blue	hit	n/a
413.7925	n/a	RESPONSE	n/a	n/a	n/a	n/a	n/a	n/a	n/a	red
413.8194	1.0167	ITI	n/a	n/a	n/a	n/a	n/a	n/a	n/a	n/a
414.836	0.5167	FIXCROSS	n/a	n/a	n/a	n/a	n/a	n/a	n/a	n/a
415.3527	1.7167	COLOR_NAME	38	Incongruent	żółty	yellow	zielony	green	hit	n/a
417.0362	n/a	RESPONSE	n/a	n/a	n/a	n/a	n/a	n/a	n/a	yellow
417.0694	1.0167	ITI	n/a	n/a	n/a	n/a	n/a	n/a	n/a	n/a
418.0861	0.5167	FIXCROSS	n/a	n/a	n/a	n/a	n/a	n/a	n/a	n/a
418.6027	0.8	COLOR_NAME	39	Incongruent	czerwony	red	zielony	green	hit	n/a
419.369	n/a	RESPONSE	n/a	n/a	n/a	n/a	n/a	n/a	n/a	red
419.4027	1.0167	ITI	n/a	n/a	n/a	n/a	n/a	n/a	n/a	n/a
420.4194	0.5167	FIXCROSS	n/a	n/a	n/a	n/a	n/a	n/a	n/a	n/a
420.9361	0.9667	COLOR_NAME	40	Incongruent	niebieski	blue	czerwony	red	hit	n/a
421.8777	n/a	RESPONSE	n/a	n/a	n/a	n/a	n/a	n/a	n/a	blue
421.9028	1.0167	ITI	n/a	n/a	n/a	n/a	n/a	n/a	n/a	n/a
422.9194	0.5167	FIXCROSS	n/a	n/a	n/a	n/a	n/a	n/a	n/a	n/a
423.4361	0.75	COLOR_NAME	41	Neutral	zielony	green	Neutral	Neutral	hit	n/a
424.1627	n/a	RESPONSE	n/a	n/a	n/a	n/a	n/a	n/a	n/a	green
424.1861	1.0167	ITI	n/a	n/a	n/a	n/a	n/a	n/a	n/a	n/a
425.2028	0.5167	FIXCROSS	n/a	n/a	n/a	n/a	n/a	n/a	n/a	n/a
425.7194	0.6667	COLOR_NAME	42	Neutral	zielony	green	Neutral	Neutral	hit	n/a
426.3678	n/a	RESPONSE	n/a	n/a	n/a	n/a	n/a	n/a	n/a	green
426.3861	1.0167	ITI	n/a	n/a	n/a	n/a	n/a	n/a	n/a	n/a
427.4028	0.5167	FIXCROSS	n/a	n/a	n/a	n/a	n/a	n/a	n/a	n/a
427.9195	0.9833	COLOR_NAME	43	Incongruent	niebieski	blue	żółty	yellow	hit	n/a
428.8765	n/a	RESPONSE	n/a	n/a	n/a	n/a	n/a	n/a	n/a	blue
428.9028	1.0167	ITI	n/a	n/a	n/a	n/a	n/a	n/a	n/a	n/a
429.9195	0.5167	FIXCROSS	n/a	n/a	n/a	n/a	n/a	n/a	n/a	n/a
430.4362	0.8	COLOR_NAME	44	Incongruent	niebieski	blue	zielony	green	hit	n/a
431.2094	n/a	RESPONSE	n/a	n/a	n/a	n/a	n/a	n/a	n/a	blue
431.2362	1.0167	ITI	n/a	n/a	n/a	n/a	n/a	n/a	n/a	n/a
432.2528	0.5167	FIXCROSS	n/a	n/a	n/a	n/a	n/a	n/a	n/a	n/a
432.7695	0.8	COLOR_NAME	45	Neutral	czerwony	red	Neutral	Neutral	hit	n/a
433.5423	n/a	RESPONSE	n/a	n/a	n/a	n/a	n/a	n/a	n/a	red
433.5695	1.0167	ITI	n/a	n/a	n/a	n/a	n/a	n/a	n/a	n/a
434.5862	0.5167	FIXCROSS	n/a	n/a	n/a	n/a	n/a	n/a	n/a	n/a
435.1028	0.95	COLOR_NAME	46	Incongruent	zielony	green	żółty	yellow	incorrect	n/a
436.0351	n/a	RESPONSE	n/a	n/a	n/a	n/a	n/a	n/a	n/a	yellow
436.0529	1.0167	ITI	n/a	n/a	n/a	n/a	n/a	n/a	n/a	n/a
437.0695	0.5167	FIXCROSS	n/a	n/a	n/a	n/a	n/a	n/a	n/a	n/a
437.5862	1.05	COLOR_NAME	47	Neutral	niebieski	blue	Neutral	Neutral	hit	n/a
438.6075	n/a	RESPONSE	n/a	n/a	n/a	n/a	n/a	n/a	n/a	blue
438.6362	1.0167	ITI	n/a	n/a	n/a	n/a	n/a	n/a	n/a	n/a
439.6529	0.5167	FIXCROSS	n/a	n/a	n/a	n/a	n/a	n/a	n/a	n/a
440.1695	1.5833	COLOR_NAME	48	Incongruent	zielony	green	czerwony	red	hit	n/a
441.7235	n/a	RESPONSE	n/a	n/a	n/a	n/a	n/a	n/a	n/a	green
441.7529	1.0167	ITI	n/a	n/a	n/a	n/a	n/a	n/a	n/a	n/a
442.7696	0.5167	FIXCROSS	n/a	n/a	n/a	n/a	n/a	n/a	n/a	n/a
443.2862	0.9333	COLOR_NAME	49	Neutral	niebieski	blue	Neutral	Neutral	hit	n/a
444.2002	n/a	RESPONSE	n/a	n/a	n/a	n/a	n/a	n/a	n/a	blue
444.2196	1.0167	ITI	n/a	n/a	n/a	n/a	n/a	n/a	n/a	n/a
445.2362	0.5167	FIXCROSS	n/a	n/a	n/a	n/a	n/a	n/a	n/a	n/a
445.7529	1.3	COLOR_NAME	50	Incongruent	niebieski	blue	czerwony	red	hit	n/a
447.0284	n/a	RESPONSE	n/a	n/a	n/a	n/a	n/a	n/a	n/a	blue
447.0529	1.0167	ITI	n/a	n/a	n/a	n/a	n/a	n/a	n/a	n/a
448.0696	0.5167	FIXCROSS	n/a	n/a	n/a	n/a	n/a	n/a	n/a	n/a
448.5863	0.9167	COLOR_NAME	51	Incongruent	żółty	yellow	zielony	green	hit	n/a
449.4732	n/a	RESPONSE	n/a	n/a	n/a	n/a	n/a	n/a	n/a	yellow
449.5029	1.0167	ITI	n/a	n/a	n/a	n/a	n/a	n/a	n/a	n/a
450.5196	0.5167	FIXCROSS	n/a	n/a	n/a	n/a	n/a	n/a	n/a	n/a
451.0363	0.9167	COLOR_NAME	52	Neutral	zielony	green	Neutral	Neutral	hit	n/a
451.9339	n/a	RESPONSE	n/a	n/a	n/a	n/a	n/a	n/a	n/a	green
451.953	1.0167	ITI	n/a	n/a	n/a	n/a	n/a	n/a	n/a	n/a
452.9696	0.5167	FIXCROSS	n/a	n/a	n/a	n/a	n/a	n/a	n/a	n/a
453.4863	1.1333	COLOR_NAME	53	Incongruent	czerwony	red	żółty	yellow	hit	n/a
454.6023	n/a	RESPONSE	n/a	n/a	n/a	n/a	n/a	n/a	n/a	red
454.6197	1.0167	ITI	n/a	n/a	n/a	n/a	n/a	n/a	n/a	n/a
455.6363	0.5167	FIXCROSS	n/a	n/a	n/a	n/a	n/a	n/a	n/a	n/a
456.153	1.2	COLOR_NAME	54	Incongruent	żółty	yellow	niebieski	blue	hit	n/a
457.3348	n/a	RESPONSE	n/a	n/a	n/a	n/a	n/a	n/a	n/a	yellow
457.353	1.0167	ITI	n/a	n/a	n/a	n/a	n/a	n/a	n/a	n/a
458.3697	0.5167	FIXCROSS	n/a	n/a	n/a	n/a	n/a	n/a	n/a	n/a
458.8863	1.0	COLOR_NAME	55	Incongruent	zielony	green	czerwony	red	hit	n/a
459.8594	n/a	RESPONSE	n/a	n/a	n/a	n/a	n/a	n/a	n/a	green
459.8863	1.0167	ITI	n/a	n/a	n/a	n/a	n/a	n/a	n/a	n/a
460.903	0.5167	FIXCROSS	n/a	n/a	n/a	n/a	n/a	n/a	n/a	n/a
461.4197	0.9833	COLOR_NAME	56	Incongruent	niebieski	blue	zielony	green	hit	n/a
462.3841	n/a	RESPONSE	n/a	n/a	n/a	n/a	n/a	n/a	n/a	blue
462.403	1.0167	ITI	n/a	n/a	n/a	n/a	n/a	n/a	n/a	n/a
463.4197	0.5167	FIXCROSS	n/a	n/a	n/a	n/a	n/a	n/a	n/a	n/a
463.9364	0.8167	COLOR_NAME	57	Neutral	niebieski	blue	Neutral	Neutral	hit	n/a
464.7329	n/a	RESPONSE	n/a	n/a	n/a	n/a	n/a	n/a	n/a	blue
464.753	1.0167	ITI	n/a	n/a	n/a	n/a	n/a	n/a	n/a	n/a
465.7697	0.5167	FIXCROSS	n/a	n/a	n/a	n/a	n/a	n/a	n/a	n/a
466.2864	0.9167	COLOR_NAME	58	Neutral	żółty	yellow	Neutral	Neutral	hit	n/a
467.1778	n/a	RESPONSE	n/a	n/a	n/a	n/a	n/a	n/a	n/a	yellow
467.2031	1.0167	ITI	n/a	n/a	n/a	n/a	n/a	n/a	n/a	n/a
468.2197	0.5167	FIXCROSS	n/a	n/a	n/a	n/a	n/a	n/a	n/a	n/a
468.7364	1.1667	COLOR_NAME	59	Incongruent	niebieski	blue	żółty	yellow	hit	n/a
469.8783	n/a	RESPONSE	n/a	n/a	n/a	n/a	n/a	n/a	n/a	blue
469.9031	1.0167	ITI	n/a	n/a	n/a	n/a	n/a	n/a	n/a	n/a
470.9198	0.5167	FIXCROSS	n/a	n/a	n/a	n/a	n/a	n/a	n/a	n/a
471.4364	0.8333	COLOR_NAME	60	Neutral	żółty	yellow	Neutral	Neutral	hit	n/a
472.2431	n/a	RESPONSE	n/a	n/a	n/a	n/a	n/a	n/a	n/a	yellow
472.2698	1.0167	ITI	n/a	n/a	n/a	n/a	n/a	n/a	n/a	n/a
473.2865	0.5167	FIXCROSS	n/a	n/a	n/a	n/a	n/a	n/a	n/a	n/a
473.8031	1.5167	COLOR_NAME	61	Neutral	zielony	green	Neutral	Neutral	hit	n/a
475.2951	n/a	RESPONSE	n/a	n/a	n/a	n/a	n/a	n/a	n/a	green
475.3198	1.0167	ITI	n/a	n/a	n/a	n/a	n/a	n/a	n/a	n/a
476.3365	0.5167	FIXCROSS	n/a	n/a	n/a	n/a	n/a	n/a	n/a	n/a
476.8531	0.8167	COLOR_NAME	62	Incongruent	żółty	yellow	czerwony	red	hit	n/a
477.6439	n/a	RESPONSE	n/a	n/a	n/a	n/a	n/a	n/a	n/a	yellow
477.6698	1.0167	ITI	n/a	n/a	n/a	n/a	n/a	n/a	n/a	n/a
478.6865	0.5167	FIXCROSS	n/a	n/a	n/a	n/a	n/a	n/a	n/a	n/a
479.2031	1.0334	COLOR_NAME	63	Incongruent	niebieski	blue	żółty	yellow	hit	n/a
480.2165	n/a	RESPONSE	n/a	n/a	n/a	n/a	n/a	n/a	n/a	blue
480.2365	1.0167	ITI	n/a	n/a	n/a	n/a	n/a	n/a	n/a	n/a
481.2532	0.5167	FIXCROSS	n/a	n/a	n/a	n/a	n/a	n/a	n/a	n/a
481.7698	0.7667	COLOR_NAME	64	Incongruent	zielony	green	niebieski	blue	hit	n/a
482.5175	n/a	RESPONSE	n/a	n/a	n/a	n/a	n/a	n/a	n/a	green
482.5365	1.0167	ITI	n/a	n/a	n/a	n/a	n/a	n/a	n/a	n/a
483.5532	0.5167	FIXCROSS	n/a	n/a	n/a	n/a	n/a	n/a	n/a	n/a
484.0699	0.8167	COLOR_NAME	65	Neutral	żółty	yellow	Neutral	Neutral	hit	n/a
484.8664	n/a	RESPONSE	n/a	n/a	n/a	n/a	n/a	n/a	n/a	yellow
484.8865	1.0167	ITI	n/a	n/a	n/a	n/a	n/a	n/a	n/a	n/a
485.9032	0.5167	FIXCROSS	n/a	n/a	n/a	n/a	n/a	n/a	n/a	n/a
486.4199	0.8	COLOR_NAME	66	Incongruent	żółty	yellow	czerwony	red	hit	n/a
487.1993	n/a	RESPONSE	n/a	n/a	n/a	n/a	n/a	n/a	n/a	yellow
487.2199	1.0167	ITI	n/a	n/a	n/a	n/a	n/a	n/a	n/a	n/a
488.2365	0.5167	FIXCROSS	n/a	n/a	n/a	n/a	n/a	n/a	n/a	n/a
488.7532	0.7833	COLOR_NAME	67	Incongruent	czerwony	red	niebieski	blue	hit	n/a
489.5162	n/a	RESPONSE	n/a	n/a	n/a	n/a	n/a	n/a	n/a	red
489.5366	1.0167	ITI	n/a	n/a	n/a	n/a	n/a	n/a	n/a	n/a
490.5532	0.5167	FIXCROSS	n/a	n/a	n/a	n/a	n/a	n/a	n/a	n/a
491.0699	0.7167	COLOR_NAME	68	Incongruent	czerwony	red	żółty	yellow	hit	n/a
491.7533	n/a	RESPONSE	n/a	n/a	n/a	n/a	n/a	n/a	n/a	red
491.7866	1.0167	ITI	n/a	n/a	n/a	n/a	n/a	n/a	n/a	n/a
492.8032	0.5167	FIXCROSS	n/a	n/a	n/a	n/a	n/a	n/a	n/a	n/a
493.3199	0.7833	COLOR_NAME	69	Incongruent	żółty	yellow	niebieski	blue	hit	n/a
494.0702	n/a	RESPONSE	n/a	n/a	n/a	n/a	n/a	n/a	n/a	yellow
494.1033	1.0167	ITI	n/a	n/a	n/a	n/a	n/a	n/a	n/a	n/a
495.1199	0.5167	FIXCROSS	n/a	n/a	n/a	n/a	n/a	n/a	n/a	n/a
495.6366	0.6834	COLOR_NAME	70	Neutral	czerwony	red	Neutral	Neutral	hit	n/a
496.2913	n/a	RESPONSE	n/a	n/a	n/a	n/a	n/a	n/a	n/a	red
496.3199	1.0167	ITI	n/a	n/a	n/a	n/a	n/a	n/a	n/a	n/a
497.3366	0.5167	FIXCROSS	n/a	n/a	n/a	n/a	n/a	n/a	n/a	n/a
497.8533	1.0667	COLOR_NAME	71	Neutral	niebieski	blue	Neutral	Neutral	hit	n/a
498.8958	n/a	RESPONSE	n/a	n/a	n/a	n/a	n/a	n/a	n/a	blue
498.92	1.0167	ITI	n/a	n/a	n/a	n/a	n/a	n/a	n/a	n/a
499.9366	0.5167	FIXCROSS	n/a	n/a	n/a	n/a	n/a	n/a	n/a	n/a
500.4533	0.9	COLOR_NAME	72	Incongruent	zielony	green	niebieski	blue	hit	n/a
501.3246	n/a	RESPONSE	n/a	n/a	n/a	n/a	n/a	n/a	n/a	green
501.3533	1.0333	ITI	n/a	n/a	n/a	n/a	n/a	n/a	n/a	n/a
505.4312	n/a	RESPONSE	n/a	n/a	n/a	n/a	n/a	n/a	n/a	n/a
