onset	duration	trial_type	melody_number	melody_part	key	sound	action
0.0	14.08	CUE_START	n/a	n/a	n/a	n/a	n/a
14.081	7.759	FIXCROSS	n/a	n/a	n/a	n/a	n/a
21.84	6.324	CUE_LISTEN	M4	1	n/a	n/a	n/a
28.164	7.758	FIXCROSS	n/a	n/a	n/a	n/a	n/a
35.922	6.317	CUE_PLAYBACK_RIGHT_HAND	M4	1	n/a	n/a	n/a
36.644	n/a	RESPONSE	M4	1	21	A4	press
36.827	n/a	RESPONSE	M4	1	21	A4	release
36.897	n/a	RESPONSE	M4	1	21	A4	press
37.078	n/a	RESPONSE	M4	1	21	A4	release
37.161	n/a	RESPONSE	M4	1	21	A4	press
37.441	n/a	RESPONSE	M4	1	21	A4	release
37.594	n/a	RESPONSE	M4	1	21	A4	press
37.773	n/a	RESPONSE	M4	1	21	A4	release
37.864	n/a	RESPONSE	M4	1	21	A4	press
38.036	n/a	RESPONSE	M4	1	21	A4	release
38.107	n/a	RESPONSE	M4	1	21	A4	press
38.358	n/a	RESPONSE	M4	1	21	A4	release
38.502	n/a	RESPONSE	M4	1	21	A4	press
38.751	n/a	RESPONSE	M4	1	24	C5	press
38.842	n/a	RESPONSE	M4	1	21	A4	release
39.023	n/a	RESPONSE	M4	1	17	F4	press
39.274	n/a	RESPONSE	M4	1	24	C5	release
39.336	n/a	RESPONSE	M4	1	17	F4	release
39.517	n/a	RESPONSE	M4	1	19	G4	press
39.631	n/a	RESPONSE	M4	1	21	A4	press
39.772	n/a	RESPONSE	M4	1	19	G4	release
40.531	n/a	RESPONSE	M4	1	21	A4	release
42.239	7.758	FIXCROSS	n/a	n/a	n/a	n/a	n/a
49.998	6.317	CUE_LISTEN	M4	2	n/a	n/a	n/a
56.314	7.758	FIXCROSS	n/a	n/a	n/a	n/a	n/a
64.073	6.325	CUE_PLAYBACK_RIGHT_HAND	M4	2	n/a	n/a	n/a
64.771	n/a	RESPONSE	M4	2	22	A#4	press
64.957	n/a	RESPONSE	M4	2	22	A#4	release
65.008	n/a	RESPONSE	M4	2	22	A#4	press
65.184	n/a	RESPONSE	M4	2	22	A#4	release
65.246	n/a	RESPONSE	M4	2	22	A#4	press
65.394	n/a	RESPONSE	M4	2	22	A#4	release
65.473	n/a	RESPONSE	M4	2	22	A#4	press
65.626	n/a	RESPONSE	M4	2	22	A#4	release
65.723	n/a	RESPONSE	M4	2	22	A#4	press
65.982	n/a	RESPONSE	M4	2	21	A4	press
66.095	n/a	RESPONSE	M4	2	22	A#4	release
66.173	n/a	RESPONSE	M4	2	21	A4	release
66.228	n/a	RESPONSE	M4	2	21	A4	press
66.395	n/a	RESPONSE	M4	2	21	A4	release
66.46	n/a	RESPONSE	M4	2	21	A4	press
66.71	n/a	RESPONSE	M4	2	19	G4	press
66.78	n/a	RESPONSE	M4	2	21	A4	release
66.901	n/a	RESPONSE	M4	2	19	G4	release
67.592	n/a	RESPONSE	M4	2	21	A4	press
67.863	n/a	RESPONSE	M4	2	19	G4	press
67.954	n/a	RESPONSE	M4	2	21	A4	release
68.058	n/a	RESPONSE	M4	2	19	G4	release
68.167	n/a	RESPONSE	M4	2	19	G4	press
68.45	n/a	RESPONSE	M4	2	21	A4	press
68.54	n/a	RESPONSE	M4	2	19	G4	release
68.991	n/a	RESPONSE	M4	2	19	G4	press
69.113	n/a	RESPONSE	M4	2	21	A4	release
69.653	n/a	RESPONSE	M4	2	24	C5	press
69.724	n/a	RESPONSE	M4	2	19	G4	release
70.398	7.758	FIXCROSS	n/a	n/a	n/a	n/a	n/a
70.836	n/a	RESPONSE	M4	2	24	C5	release
78.156	6.317	CUE_LISTEN	M1	1	n/a	n/a	n/a
84.473	7.758	FIXCROSS	n/a	n/a	n/a	n/a	n/a
92.231	6.325	CUE_PLAYBACK_RIGHT_HAND	M1	1	n/a	n/a	n/a
92.946	n/a	RESPONSE	M1	1	21	A4	press
93.133	n/a	RESPONSE	M1	1	21	A4	release
93.208	n/a	RESPONSE	M1	1	21	A4	press
93.38	n/a	RESPONSE	M1	1	21	A4	release
93.462	n/a	RESPONSE	M1	1	21	A4	press
93.762	n/a	RESPONSE	M1	1	21	A4	release
93.936	n/a	RESPONSE	M1	1	21	A4	press
94.116	n/a	RESPONSE	M1	1	21	A4	release
94.203	n/a	RESPONSE	M1	1	21	A4	press
94.35	n/a	RESPONSE	M1	1	21	A4	release
94.451	n/a	RESPONSE	M1	1	21	A4	press
94.714	n/a	RESPONSE	M1	1	21	A4	release
94.893	n/a	RESPONSE	M1	1	21	A4	press
95.153	n/a	RESPONSE	M1	1	24	C5	press
95.232	n/a	RESPONSE	M1	1	21	A4	release
95.455	n/a	RESPONSE	M1	1	17	F4	press
95.597	n/a	RESPONSE	M1	1	24	C5	release
95.898	n/a	RESPONSE	M1	1	19	G4	press
96.024	n/a	RESPONSE	M1	1	17	F4	release
96.063	n/a	RESPONSE	M1	1	21	A4	press
96.722	n/a	RESPONSE	M1	1	19	G4	release
97.053	n/a	RESPONSE	M1	1	21	A4	release
98.556	7.758	FIXCROSS	n/a	n/a	n/a	n/a	n/a
106.314	6.325	CUE_LISTEN	M1	2	n/a	n/a	n/a
112.639	7.758	FIXCROSS	n/a	n/a	n/a	n/a	n/a
120.398	6.308	CUE_PLAYBACK_RIGHT_HAND	M1	2	n/a	n/a	n/a
120.988	n/a	RESPONSE	M1	2	22	A#4	press
121.45	n/a	RESPONSE	M1	2	22	A#4	release
121.941	n/a	RESPONSE	M1	2	22	A#4	press
122.402	n/a	RESPONSE	M1	2	22	A#4	release
122.526	n/a	RESPONSE	M1	2	22	A#4	press
122.734	n/a	RESPONSE	M1	2	22	A#4	release
122.846	n/a	RESPONSE	M1	2	22	A#4	press
123.035	n/a	RESPONSE	M1	2	22	A#4	release
123.162	n/a	RESPONSE	M1	2	22	A#4	press
123.326	n/a	RESPONSE	M1	2	22	A#4	release
123.453	n/a	RESPONSE	M1	2	22	A#4	press
123.757	n/a	RESPONSE	M1	2	22	A#4	release
123.786	n/a	RESPONSE	M1	2	21	A4	press
123.992	n/a	RESPONSE	M1	2	21	A4	release
124.086	n/a	RESPONSE	M1	2	21	A4	press
124.29	n/a	RESPONSE	M1	2	21	A4	release
124.416	n/a	RESPONSE	M1	2	21	A4	press
124.745	n/a	RESPONSE	M1	2	24	C5	press
124.807	n/a	RESPONSE	M1	2	21	A4	release
125.93	n/a	RESPONSE	M1	2	24	C5	release
126.021	n/a	RESPONSE	M1	2	24	C5	press
126.362	n/a	RESPONSE	M1	2	22	A#4	press
126.706	7.758	FIXCROSS	n/a	n/a	n/a	n/a	n/a
126.747	n/a	RESPONSE	M1	2	19	G4	press
126.778	n/a	RESPONSE	M1	2	24	C5	release
127.1	n/a	RESPONSE	M1	2	17	F4	press
127.281	n/a	RESPONSE	M1	2	22	A#4	release
127.595	n/a	RESPONSE	M1	2	19	G4	release
128.535	n/a	RESPONSE	M1	2	17	F4	release
134.464	6.325	CUE_LISTEN	M5	1	n/a	n/a	n/a
140.789	7.758	FIXCROSS	n/a	n/a	n/a	n/a	n/a
148.548	6.317	CUE_PLAYBACK_BOTH_HANDS	M5	1	n/a	n/a	n/a
149.222	n/a	RESPONSE	M5	1	07	G3	press
149.232	n/a	RESPONSE	M5	1	00	C3	press
149.234	n/a	RESPONSE	M5	1	19	G4	press
149.247	n/a	RESPONSE	M5	1	04	E3	press
149.776	n/a	RESPONSE	M5	1	16	E4	press
150.027	n/a	RESPONSE	M5	1	16	E4	release
150.228	n/a	RESPONSE	M5	1	16	E4	press
150.29	n/a	RESPONSE	M5	1	19	G4	release
150.371	n/a	RESPONSE	M5	1	00	C3	release
150.412	n/a	RESPONSE	M5	1	04	E3	release
150.446	n/a	RESPONSE	M5	1	16	E4	release
150.454	n/a	RESPONSE	M5	1	07	G3	release
150.638	n/a	RESPONSE	M5	1	02	D3	press
150.67	n/a	RESPONSE	M5	1	05	F3	press
150.678	n/a	RESPONSE	M5	1	17	F4	press
150.701	n/a	RESPONSE	M5	1	07	G3	press
151.142	n/a	RESPONSE	M5	1	14	D4	press
151.365	n/a	RESPONSE	M5	1	14	D4	release
151.563	n/a	RESPONSE	M5	1	14	D4	press
151.726	n/a	RESPONSE	M5	1	17	F4	release
151.736	n/a	RESPONSE	M5	1	02	D3	release
151.747	n/a	RESPONSE	M5	1	14	D4	release
151.768	n/a	RESPONSE	M5	1	07	G3	release
151.83	n/a	RESPONSE	M5	1	05	F3	release
151.981	n/a	RESPONSE	M5	1	00	C3	press
152.002	n/a	RESPONSE	M5	1	07	G3	press
152.023	n/a	RESPONSE	M5	1	12	C4	press
152.026	n/a	RESPONSE	M5	1	04	E3	press
152.207	n/a	RESPONSE	M5	1	16	E4	press
152.357	n/a	RESPONSE	M5	1	12	C4	release
152.478	n/a	RESPONSE	M5	1	19	G4	press
152.59	n/a	RESPONSE	M5	1	16	E4	release
153.995	n/a	RESPONSE	M5	1	19	G4	release
154.158	n/a	RESPONSE	M5	1	04	E3	release
154.281	n/a	RESPONSE	M5	1	00	C3	release
154.321	n/a	RESPONSE	M5	1	07	G3	release
154.864	7.758	FIXCROSS	n/a	n/a	n/a	n/a	n/a
162.623	6.325	CUE_LISTEN	M5	2	n/a	n/a	n/a
168.948	7.758	FIXCROSS	n/a	n/a	n/a	n/a	n/a
176.706	6.317	CUE_PLAYBACK_BOTH_HANDS	M5	2	n/a	n/a	n/a
177.255	n/a	RESPONSE	M5	2	00	C3	press
177.266	n/a	RESPONSE	M5	2	19	G4	press
177.268	n/a	RESPONSE	M5	2	04	E3	press
177.298	n/a	RESPONSE	M5	2	07	G3	press
177.81	n/a	RESPONSE	M5	2	16	E4	press
178.123	n/a	RESPONSE	M5	2	16	E4	release
178.302	n/a	RESPONSE	M5	2	16	E4	press
178.435	n/a	RESPONSE	M5	2	19	G4	release
178.587	n/a	RESPONSE	M5	2	16	E4	release
178.596	n/a	RESPONSE	M5	2	00	C3	release
178.598	n/a	RESPONSE	M5	2	04	E3	release
178.758	n/a	RESPONSE	M5	2	02	D3	press
178.77	n/a	RESPONSE	M5	2	05	F3	press
178.781	n/a	RESPONSE	M5	2	17	F4	press
179.252	n/a	RESPONSE	M5	2	14	D4	press
179.453	n/a	RESPONSE	M5	2	14	D4	release
179.677	n/a	RESPONSE	M5	2	14	D4	press
179.836	n/a	RESPONSE	M5	2	17	F4	release
179.86	n/a	RESPONSE	M5	2	02	D3	release
179.898	n/a	RESPONSE	M5	2	07	G3	release
179.901	n/a	RESPONSE	M5	2	14	D4	release
179.931	n/a	RESPONSE	M5	2	05	F3	release
180.072	n/a	RESPONSE	M5	2	00	C3	press
180.143	n/a	RESPONSE	M5	2	04	E3	press
180.146	n/a	RESPONSE	M5	2	07	G3	press
180.186	n/a	RESPONSE	M5	2	12	C4	press
180.377	n/a	RESPONSE	M5	2	16	E4	press
180.468	n/a	RESPONSE	M5	2	12	C4	release
180.63	n/a	RESPONSE	M5	2	12	C4	press
180.713	n/a	RESPONSE	M5	2	16	E4	release
182.712	n/a	RESPONSE	M5	2	04	E3	release
182.743	n/a	RESPONSE	M5	2	12	C4	release
182.747	n/a	RESPONSE	M5	2	00	C3	release
182.836	n/a	RESPONSE	M5	2	07	G3	release
183.023	7.758	FIXCROSS	n/a	n/a	n/a	n/a	n/a
190.781	6.317	CUE_LISTEN	M5	1	n/a	n/a	n/a
197.098	7.758	FIXCROSS	n/a	n/a	n/a	n/a	n/a
204.856	6.317	CUE_PLAYBACK_RIGHT_HAND	M5	1	n/a	n/a	n/a
205.47	n/a	RESPONSE	M5	1	12	C4	press
205.843	n/a	RESPONSE	M5	1	16	E4	press
206.008	n/a	RESPONSE	M5	1	12	C4	release
206.298	n/a	RESPONSE	M5	1	16	E4	release
206.508	n/a	RESPONSE	M5	1	12	C4	press
207.01	n/a	RESPONSE	M5	1	17	F4	press
207.481	n/a	RESPONSE	M5	1	21	A4	press
207.525	n/a	RESPONSE	M5	1	17	F4	release
207.563	n/a	RESPONSE	M5	1	12	C4	release
207.975	n/a	RESPONSE	M5	1	19	G4	press
208.116	n/a	RESPONSE	M5	1	21	A4	release
208.407	n/a	RESPONSE	M5	1	17	F4	press
208.538	n/a	RESPONSE	M5	1	19	G4	release
208.81	n/a	RESPONSE	M5	1	16	E4	press
208.882	n/a	RESPONSE	M5	1	17	F4	release
209.172	n/a	RESPONSE	M5	1	17	F4	press
209.243	n/a	RESPONSE	M5	1	16	E4	release
209.785	n/a	RESPONSE	M5	1	17	F4	release
209.967	n/a	RESPONSE	M5	1	12	C4	press
210.637	n/a	RESPONSE	M5	1	17	F4	press
210.808	n/a	RESPONSE	M5	1	12	C4	release
211.07	n/a	RESPONSE	M5	1	21	A4	press
211.163	n/a	RESPONSE	M5	1	17	F4	release
211.173	7.758	FIXCROSS	n/a	n/a	n/a	n/a	n/a
211.463	n/a	RESPONSE	M5	1	19	G4	press
211.573	n/a	RESPONSE	M5	1	21	A4	release
211.846	n/a	RESPONSE	M5	1	17	F4	press
212.018	n/a	RESPONSE	M5	1	19	G4	release
212.24	n/a	RESPONSE	M5	1	16	E4	press
212.348	n/a	RESPONSE	M5	1	17	F4	release
212.611	n/a	RESPONSE	M5	1	17	F4	press
212.701	n/a	RESPONSE	M5	1	16	E4	release
214.313	n/a	RESPONSE	M5	1	17	F4	release
218.931	6.325	CUE_LISTEN	M5	2	n/a	n/a	n/a
225.256	7.758	FIXCROSS	n/a	n/a	n/a	n/a	n/a
233.015	6.317	CUE_PLAYBACK_RIGHT_HAND	M5	2	n/a	n/a	n/a
233.486	n/a	RESPONSE	M5	2	12	C4	press
233.891	n/a	RESPONSE	M5	2	17	F4	press
233.992	n/a	RESPONSE	M5	2	12	C4	release
234.91	n/a	RESPONSE	M5	2	21	A4	press
235.148	n/a	RESPONSE	M5	2	17	F4	release
235.397	n/a	RESPONSE	M5	2	24	C5	press
235.487	n/a	RESPONSE	M5	2	21	A4	release
236.052	n/a	RESPONSE	M5	2	22	A#4	press
236.473	n/a	RESPONSE	M5	2	19	G4	press
236.551	n/a	RESPONSE	M5	2	24	C5	release
236.952	n/a	RESPONSE	M5	2	19	G4	release
237.043	n/a	RESPONSE	M5	2	22	A#4	release
237.165	n/a	RESPONSE	M5	2	24	C5	press
237.207	n/a	RESPONSE	M5	2	22	A#4	press
237.617	n/a	RESPONSE	M5	2	21	A4	press
237.81	n/a	RESPONSE	M5	2	24	C5	release
237.9	n/a	RESPONSE	M5	2	22	A#4	release
237.971	n/a	RESPONSE	M5	2	19	G4	press
238.343	n/a	RESPONSE	M5	2	21	A4	release
238.666	n/a	RESPONSE	M5	2	19	G4	release
239.315	n/a	RESPONSE	M5	2	14	D4	press
239.331	7.758	FIXCROSS	n/a	n/a	n/a	n/a	n/a
239.876	n/a	RESPONSE	M5	2	14	D4	release
240.037	n/a	RESPONSE	M5	2	12	C4	press
240.448	n/a	RESPONSE	M5	2	16	E4	press
240.58	n/a	RESPONSE	M5	2	12	C4	release
241.371	n/a	RESPONSE	M5	2	19	G4	press
241.552	n/a	RESPONSE	M5	2	16	E4	release
241.863	n/a	RESPONSE	M5	2	20	G#4	press
241.945	n/a	RESPONSE	M5	2	19	G4	release
242.606	n/a	RESPONSE	M5	2	20	G#4	release
242.848	n/a	RESPONSE	M5	2	22	A#4	press
243.275	n/a	RESPONSE	M5	2	21	A4	press
243.396	n/a	RESPONSE	M5	2	22	A#4	release
243.636	n/a	RESPONSE	M5	2	19	G4	press
243.852	n/a	RESPONSE	M5	2	21	A4	release
244.142	n/a	RESPONSE	M5	2	16	E4	press
244.15	n/a	RESPONSE	M5	2	17	F4	press
244.596	n/a	RESPONSE	M5	2	16	E4	release
244.953	n/a	RESPONSE	M5	2	19	G4	release
244.981	n/a	RESPONSE	M5	2	17	F4	release
247.09	6.317	CUE_LISTEN	M2	1	n/a	n/a	n/a
253.406	7.758	FIXCROSS	n/a	n/a	n/a	n/a	n/a
261.165	6.325	CUE_PLAYBACK_BOTH_HANDS	M2	1	n/a	n/a	n/a
261.72	n/a	RESPONSE	M2	1	24	C5	press
261.722	n/a	RESPONSE	M2	1	00	C3	press
261.725	n/a	RESPONSE	M2	1	07	G3	press
262.253	n/a	RESPONSE	M2	1	21	A4	press
262.265	n/a	RESPONSE	M2	1	19	G4	press
262.426	n/a	RESPONSE	M2	1	19	G4	release
262.637	n/a	RESPONSE	M2	1	21	A4	release
262.73	n/a	RESPONSE	M2	1	24	C5	release
262.79	n/a	RESPONSE	M2	1	07	G3	release
262.871	n/a	RESPONSE	M2	1	00	C3	release
263.162	n/a	RESPONSE	M2	1	00	C3	press
263.167	n/a	RESPONSE	M2	1	07	G3	press
263.172	n/a	RESPONSE	M2	1	24	C5	press
263.727	n/a	RESPONSE	M2	1	21	A4	press
264.066	n/a	RESPONSE	M2	1	21	A4	release
264.257	n/a	RESPONSE	M2	1	24	C5	release
264.381	n/a	RESPONSE	M2	1	24	C5	press
265.001	n/a	RESPONSE	M2	1	24	C5	release
265.096	n/a	RESPONSE	M2	1	00	C3	release
265.135	n/a	RESPONSE	M2	1	07	G3	release
265.337	n/a	RESPONSE	M2	1	24	C5	press
265.357	n/a	RESPONSE	M2	1	00	C3	press
265.36	n/a	RESPONSE	M2	1	07	G3	press
265.901	n/a	RESPONSE	M2	1	19	G4	press
266.19	n/a	RESPONSE	M2	1	24	C5	release
266.266	n/a	RESPONSE	M2	1	07	G3	release
266.447	n/a	RESPONSE	M2	1	19	G4	release
266.987	n/a	RESPONSE	M2	1	19	G4	press
266.99	n/a	RESPONSE	M2	1	07	G3	press
267.49	7.758	FIXCROSS	n/a	n/a	n/a	n/a	n/a
267.52	n/a	RESPONSE	M2	1	17	F4	press
267.681	n/a	RESPONSE	M2	1	19	G4	release
267.783	n/a	RESPONSE	M2	1	07	G3	release
268.063	n/a	RESPONSE	M2	1	07	G3	press
268.066	n/a	RESPONSE	M2	1	16	E4	press
268.238	n/a	RESPONSE	M2	1	17	F4	release
268.607	n/a	RESPONSE	M2	1	17	F4	press
268.84	n/a	RESPONSE	M2	1	16	E4	release
268.97	n/a	RESPONSE	M2	1	07	G3	release
269.071	n/a	RESPONSE	M2	1	00	C3	release
269.132	n/a	RESPONSE	M2	1	19	G4	press
269.146	n/a	RESPONSE	M2	1	00	C3	press
269.155	n/a	RESPONSE	M2	1	07	G3	press
269.636	n/a	RESPONSE	M2	1	17	F4	release
270.578	n/a	RESPONSE	M2	1	19	G4	release
270.938	n/a	RESPONSE	M2	1	07	G3	release
275.248	6.325	CUE_LISTEN	M2	2	n/a	n/a	n/a
281.091	n/a	RESPONSE	M2	2	00	C3	release
281.573	7.758	FIXCROSS	n/a	n/a	n/a	n/a	n/a
289.332	6.308	CUE_PLAYBACK_BOTH_HANDS	M2	2	n/a	n/a	n/a
290.102	n/a	RESPONSE	M2	2	24	C5	press
290.113	n/a	RESPONSE	M2	2	00	C3	press
290.116	n/a	RESPONSE	M2	2	07	G3	press
290.616	n/a	RESPONSE	M2	2	19	G4	press
290.808	n/a	RESPONSE	M2	2	24	C5	release
290.838	n/a	RESPONSE	M2	2	00	C3	release
290.89	n/a	RESPONSE	M2	2	07	G3	release
290.902	n/a	RESPONSE	M2	2	19	G4	release
291.472	n/a	RESPONSE	M2	2	07	G3	press
291.483	n/a	RESPONSE	M2	2	00	C3	press
291.486	n/a	RESPONSE	M2	2	19	G4	press
291.976	n/a	RESPONSE	M2	2	17	F4	press
292.137	n/a	RESPONSE	M2	2	19	G4	release
292.14	n/a	RESPONSE	M2	2	07	G3	release
292.24	n/a	RESPONSE	M2	2	00	C3	release
292.511	n/a	RESPONSE	M2	2	16	E4	press
292.513	n/a	RESPONSE	M2	2	07	G3	press
292.533	n/a	RESPONSE	M2	2	00	C3	press
292.615	n/a	RESPONSE	M2	2	17	F4	release
293.012	n/a	RESPONSE	M2	2	14	D4	press
293.118	n/a	RESPONSE	M2	2	16	E4	release
293.242	n/a	RESPONSE	M2	2	07	G3	release
293.245	n/a	RESPONSE	M2	2	00	C3	release
293.518	n/a	RESPONSE	M2	2	12	C4	press
293.535	n/a	RESPONSE	M2	2	07	G3	press
293.551	n/a	RESPONSE	M2	2	00	C3	press
294.172	n/a	RESPONSE	M2	2	14	D4	release
295.022	n/a	RESPONSE	M2	2	12	C4	release
295.253	n/a	RESPONSE	M2	2	07	G3	release
295.575	n/a	RESPONSE	M2	2	00	C3	release
295.64	7.758	FIXCROSS	n/a	n/a	n/a	n/a	n/a
303.398	6.325	CUE_LISTEN	M2	1	n/a	n/a	n/a
309.723	7.758	FIXCROSS	n/a	n/a	n/a	n/a	n/a
317.482	6.317	CUE_PLAYBACK_BOTH_HANDS	M2	1	n/a	n/a	n/a
318.203	n/a	RESPONSE	M2	1	00	C3	press
318.207	n/a	RESPONSE	M2	1	07	G3	press
318.236	n/a	RESPONSE	M2	1	12	C4	press
318.767	n/a	RESPONSE	M2	1	14	D4	press
318.878	n/a	RESPONSE	M2	1	12	C4	release
318.99	n/a	RESPONSE	M2	1	00	C3	release
319.133	n/a	RESPONSE	M2	1	07	G3	release
319.233	n/a	RESPONSE	M2	1	16	E4	press
319.283	n/a	RESPONSE	M2	1	00	C3	press
319.295	n/a	RESPONSE	M2	1	07	G3	press
319.316	n/a	RESPONSE	M2	1	14	D4	release
319.797	n/a	RESPONSE	M2	1	14	D4	press
319.888	n/a	RESPONSE	M2	1	16	E4	release
319.92	n/a	RESPONSE	M2	1	00	C3	release
319.952	n/a	RESPONSE	M2	1	07	G3	release
320.252	n/a	RESPONSE	M2	1	16	E4	press
320.273	n/a	RESPONSE	M2	1	07	G3	press
320.276	n/a	RESPONSE	M2	1	00	C3	press
320.306	n/a	RESPONSE	M2	1	14	D4	release
320.811	n/a	RESPONSE	M2	1	17	F4	press
320.91	n/a	RESPONSE	M2	1	16	E4	release
320.981	n/a	RESPONSE	M2	1	00	C3	release
321.062	n/a	RESPONSE	M2	1	07	G3	release
321.283	n/a	RESPONSE	M2	1	19	G4	press
321.286	n/a	RESPONSE	M2	1	07	G3	press
321.288	n/a	RESPONSE	M2	1	00	C3	press
321.327	n/a	RESPONSE	M2	1	17	F4	release
322.548	n/a	RESPONSE	M2	1	19	G4	release
322.63	n/a	RESPONSE	M2	1	07	G3	release
323.633	n/a	RESPONSE	M2	1	00	C3	release
323.798	7.758	FIXCROSS	n/a	n/a	n/a	n/a	n/a
331.557	6.325	CUE_LISTEN	M2	2	n/a	n/a	n/a
337.882	7.758	FIXCROSS	n/a	n/a	n/a	n/a	n/a
345.64	6.317	CUE_PLAYBACK_BOTH_HANDS	M2	2	n/a	n/a	n/a
346.307	n/a	RESPONSE	M2	2	07	G3	press
346.322	n/a	RESPONSE	M2	2	00	C3	press
346.33	n/a	RESPONSE	M2	2	16	E4	press
346.816	n/a	RESPONSE	M2	2	19	G4	press
346.947	n/a	RESPONSE	M2	2	16	E4	release
347.048	n/a	RESPONSE	M2	2	19	G4	release
347.112	n/a	RESPONSE	M2	2	00	C3	release
347.151	n/a	RESPONSE	M2	2	07	G3	release
347.272	n/a	RESPONSE	M2	2	07	G3	press
347.275	n/a	RESPONSE	M2	2	00	C3	press
347.295	n/a	RESPONSE	M2	2	19	G4	press
347.827	n/a	RESPONSE	M2	2	17	F4	press
347.877	n/a	RESPONSE	M2	2	16	E4	press
347.948	n/a	RESPONSE	M2	2	16	E4	release
348.15	n/a	RESPONSE	M2	2	07	G3	release
348.211	n/a	RESPONSE	M2	2	19	G4	release
348.262	n/a	RESPONSE	M2	2	07	G3	press
348.283	n/a	RESPONSE	M2	2	16	E4	press
348.415	n/a	RESPONSE	M2	2	17	F4	release
348.808	n/a	RESPONSE	M2	2	14	D4	press
349.007	n/a	RESPONSE	M2	2	00	C3	release
349.011	n/a	RESPONSE	M2	2	16	E4	release
349.322	n/a	RESPONSE	M2	2	12	C4	press
349.331	n/a	RESPONSE	M2	2	00	C3	press
349.502	n/a	RESPONSE	M2	2	14	D4	release
350.773	n/a	RESPONSE	M2	2	12	C4	release
350.907	n/a	RESPONSE	M2	2	07	G3	release
350.916	n/a	RESPONSE	M2	2	00	C3	release
351.957	7.758	FIXCROSS	n/a	n/a	n/a	n/a	n/a
359.715	6.317	CUE_LISTEN	M3	1	n/a	n/a	n/a
366.032	7.758	FIXCROSS	n/a	n/a	n/a	n/a	n/a
373.79	6.325	CUE_PLAYBACK_RIGHT_HAND	M3	1	n/a	n/a	n/a
374.362	n/a	RESPONSE	M3	1	12	C4	press
374.853	n/a	RESPONSE	M3	1	14	D4	press
374.953	n/a	RESPONSE	M3	1	12	C4	release
375.312	n/a	RESPONSE	M3	1	16	E4	press
375.433	n/a	RESPONSE	M3	1	14	D4	release
375.787	n/a	RESPONSE	M3	1	12	C4	press
375.798	n/a	RESPONSE	M3	1	16	E4	release
376.007	n/a	RESPONSE	M3	1	12	C4	release
376.298	n/a	RESPONSE	M3	1	12	C4	press
376.783	n/a	RESPONSE	M3	1	14	D4	press
376.872	n/a	RESPONSE	M3	1	12	C4	release
377.253	n/a	RESPONSE	M3	1	16	E4	press
377.365	n/a	RESPONSE	M3	1	14	D4	release
377.776	n/a	RESPONSE	M3	1	12	C4	press
377.787	n/a	RESPONSE	M3	1	16	E4	release
378.248	n/a	RESPONSE	M3	1	12	C4	release
380.115	7.758	FIXCROSS	n/a	n/a	n/a	n/a	n/a
387.873	6.317	CUE_LISTEN	M3	2	n/a	n/a	n/a
394.19	7.758	FIXCROSS	n/a	n/a	n/a	n/a	n/a
401.948	6.317	CUE_PLAYBACK_RIGHT_HAND	M3	2	n/a	n/a	n/a
402.537	n/a	RESPONSE	M3	2	16	E4	press
403.011	n/a	RESPONSE	M3	2	17	F4	press
403.136	n/a	RESPONSE	M3	2	16	E4	release
403.498	n/a	RESPONSE	M3	2	19	G4	press
403.547	n/a	RESPONSE	M3	2	17	F4	release
404.181	n/a	RESPONSE	M3	2	19	G4	release
404.471	n/a	RESPONSE	M3	2	16	E4	press
404.963	n/a	RESPONSE	M3	2	17	F4	press
405.045	n/a	RESPONSE	M3	2	16	E4	release
405.463	n/a	RESPONSE	M3	2	19	G4	press
405.524	n/a	RESPONSE	M3	2	17	F4	release
406.985	n/a	RESPONSE	M3	2	19	G4	release
408.265	7.758	FIXCROSS	n/a	n/a	n/a	n/a	n/a
416.024	6.325	CUE_LISTEN	M3	1	n/a	n/a	n/a
422.348	7.758	FIXCROSS	n/a	n/a	n/a	n/a	n/a
430.107	6.317	CUE_PLAYBACK_RIGHT_HAND	M3	1	n/a	n/a	n/a
430.761	n/a	RESPONSE	M3	1	19	G4	press
431.032	n/a	RESPONSE	M3	1	21	A4	press
431.103	n/a	RESPONSE	M3	1	19	G4	release
431.297	n/a	RESPONSE	M3	1	19	G4	press
431.437	n/a	RESPONSE	M3	1	21	A4	release
431.577	n/a	RESPONSE	M3	1	17	F4	press
431.838	n/a	RESPONSE	M3	1	16	E4	press
432.04	n/a	RESPONSE	M3	1	19	G4	release
432.231	n/a	RESPONSE	M3	1	16	E4	release
432.242	n/a	RESPONSE	M3	1	17	F4	release
432.493	n/a	RESPONSE	M3	1	12	C4	press
432.867	n/a	RESPONSE	M3	1	12	C4	release
433.066	n/a	RESPONSE	M3	1	19	G4	press
433.292	n/a	RESPONSE	M3	1	21	A4	press
433.368	n/a	RESPONSE	M3	1	19	G4	release
433.532	n/a	RESPONSE	M3	1	19	G4	press
433.758	n/a	RESPONSE	M3	1	21	A4	release
433.814	n/a	RESPONSE	M3	1	17	F4	press
434.077	n/a	RESPONSE	M3	1	16	E4	press
434.227	n/a	RESPONSE	M3	1	19	G4	release
434.377	n/a	RESPONSE	M3	1	17	F4	release
434.647	n/a	RESPONSE	M3	1	12	C4	press
435.192	n/a	RESPONSE	M3	1	16	E4	release
435.267	n/a	RESPONSE	M3	1	12	C4	release
436.424	7.758	FIXCROSS	n/a	n/a	n/a	n/a	n/a
444.182	6.317	CUE_LISTEN	M3	2	n/a	n/a	n/a
450.498	7.758	FIXCROSS	n/a	n/a	n/a	n/a	n/a
458.257	6.325	CUE_PLAYBACK_RIGHT_HAND	M3	2	n/a	n/a	n/a
459.035	n/a	RESPONSE	M3	2	12	C4	press
459.557	n/a	RESPONSE	M3	2	07	G3	press
459.767	n/a	RESPONSE	M3	2	12	C4	release
460.078	n/a	RESPONSE	M3	2	12	C4	press
460.16	n/a	RESPONSE	M3	2	07	G3	release
460.751	n/a	RESPONSE	M3	2	12	C4	release
461.062	n/a	RESPONSE	M3	2	12	C4	press
461.493	n/a	RESPONSE	M3	2	07	G3	press
461.625	n/a	RESPONSE	M3	2	12	C4	release
462.036	n/a	RESPONSE	M3	2	12	C4	press
462.147	n/a	RESPONSE	M3	2	07	G3	release
463.364	n/a	RESPONSE	M3	2	12	C4	release
464.582	7.758	FIXCROSS	n/a	n/a	n/a	n/a	n/a
472.34	6.317	CUE_LISTEN	M5	1	n/a	n/a	n/a
478.657	7.758	FIXCROSS	n/a	n/a	n/a	n/a	n/a
486.415	6.325	CUE_PLAYBACK_BOTH_HANDS	M5	1	n/a	n/a	n/a
487.207	n/a	RESPONSE	M5	1	12	C4	press
487.218	n/a	RESPONSE	M5	1	09	A3	press
487.24	n/a	RESPONSE	M5	1	05	F3	press
487.532	n/a	RESPONSE	M5	1	17	F4	press
487.965	n/a	RESPONSE	M5	1	21	A4	press
488.005	n/a	RESPONSE	M5	1	19	G4	press
488.035	n/a	RESPONSE	M5	1	17	F4	release
488.238	n/a	RESPONSE	M5	1	19	G4	release
488.457	n/a	RESPONSE	M5	1	21	A4	release
488.59	n/a	RESPONSE	M5	1	05	F3	release
488.6	n/a	RESPONSE	M5	1	09	A3	release
488.602	n/a	RESPONSE	M5	1	12	C4	release
488.942	n/a	RESPONSE	M5	1	12	C4	press
488.954	n/a	RESPONSE	M5	1	05	F3	press
488.956	n/a	RESPONSE	M5	1	09	A3	press
489.356	n/a	RESPONSE	M5	1	17	F4	press
489.707	n/a	RESPONSE	M5	1	21	A4	press
489.818	n/a	RESPONSE	M5	1	17	F4	release
490.07	n/a	RESPONSE	M5	1	19	G4	press
490.291	n/a	RESPONSE	M5	1	21	A4	release
490.412	n/a	RESPONSE	M5	1	17	F4	press
490.724	n/a	RESPONSE	M5	1	15	D#4	press
490.775	n/a	RESPONSE	M5	1	16	E4	press
490.786	n/a	RESPONSE	M5	1	15	D#4	release
490.82	n/a	RESPONSE	M5	1	19	G4	release
491.151	n/a	RESPONSE	M5	1	14	D4	press
491.74	n/a	RESPONSE	M5	1	14	D4	release
491.742	n/a	RESPONSE	M5	1	17	F4	release
491.762	n/a	RESPONSE	M5	1	16	E4	release
491.765	n/a	RESPONSE	M5	1	12	C4	release
491.805	n/a	RESPONSE	M5	1	09	A3	release
491.856	n/a	RESPONSE	M5	1	05	F3	release
492.307	n/a	RESPONSE	M5	1	12	C4	press
492.331	n/a	RESPONSE	M5	1	09	A3	press
492.34	n/a	RESPONSE	M5	1	05	F3	press
492.692	n/a	RESPONSE	M5	1	12	C4	release
492.74	7.758	FIXCROSS	n/a	n/a	n/a	n/a	n/a
493.612	n/a	RESPONSE	M5	1	09	A3	release
493.982	n/a	RESPONSE	M5	1	05	F3	release
500.499	6.317	CUE_LISTEN	M5	2	n/a	n/a	n/a
506.815	7.758	FIXCROSS	n/a	n/a	n/a	n/a	n/a
514.574	6.317	CUE_PLAYBACK_BOTH_HANDS	M5	2	n/a	n/a	n/a
515.117	n/a	RESPONSE	M5	2	12	C4	press
515.186	n/a	RESPONSE	M5	2	05	F3	press
515.252	n/a	RESPONSE	M5	2	09	A3	press
515.842	n/a	RESPONSE	M5	2	17	F4	press
516.421	n/a	RESPONSE	M5	2	23	B4	press
516.602	n/a	RESPONSE	M5	2	17	F4	release
516.874	n/a	RESPONSE	M5	2	23	B4	release
517.065	n/a	RESPONSE	M5	2	17	F4	press
517.257	n/a	RESPONSE	M5	2	21	A4	press
517.367	n/a	RESPONSE	M5	2	17	F4	release
517.629	n/a	RESPONSE	M5	2	19	G4	press
517.701	n/a	RESPONSE	M5	2	21	A4	release
518.131	n/a	RESPONSE	M5	2	19	G4	release
518.262	n/a	RESPONSE	M5	2	21	A4	press
518.686	n/a	RESPONSE	M5	2	20	G#4	press
519.135	n/a	RESPONSE	M5	2	17	F4	press
519.586	n/a	RESPONSE	M5	2	20	G#4	release
519.588	n/a	RESPONSE	M5	2	17	F4	release
519.609	n/a	RESPONSE	M5	2	21	A4	release
519.752	n/a	RESPONSE	M5	2	12	C4	release
519.772	n/a	RESPONSE	M5	2	09	A3	release
519.952	n/a	RESPONSE	M5	2	05	F3	release
520.124	n/a	RESPONSE	M5	2	12	C4	press
520.145	n/a	RESPONSE	M5	2	09	A3	press
520.156	n/a	RESPONSE	M5	2	05	F3	press
520.89	7.758	FIXCROSS	n/a	n/a	n/a	n/a	n/a
520.897	n/a	RESPONSE	M5	2	17	F4	press
521.568	n/a	RESPONSE	M5	2	17	F4	release
522.2	n/a	RESPONSE	M5	2	09	A3	release
522.251	n/a	RESPONSE	M5	2	12	C4	release
522.294	n/a	RESPONSE	M5	2	05	F3	release
528.649	6.325	CUE_LISTEN	M5	1	n/a	n/a	n/a
534.974	7.758	FIXCROSS	n/a	n/a	n/a	n/a	n/a
542.732	6.317	CUE_PLAYBACK_RIGHT_HAND	M5	1	n/a	n/a	n/a
543.247	n/a	RESPONSE	M5	1	19	G4	press
543.707	n/a	RESPONSE	M5	1	19	G4	release
543.814	n/a	RESPONSE	M5	1	19	G4	press
544.364	n/a	RESPONSE	M5	1	16	E4	press
544.522	n/a	RESPONSE	M5	1	19	G4	release
544.671	n/a	RESPONSE	M5	1	16	E4	release
544.84	n/a	RESPONSE	M5	1	16	E4	press
545.322	n/a	RESPONSE	M5	1	17	F4	press
545.388	n/a	RESPONSE	M5	1	16	E4	release
545.805	n/a	RESPONSE	M5	1	14	D4	press
545.916	n/a	RESPONSE	M5	1	17	F4	release
546.092	n/a	RESPONSE	M5	1	14	D4	release
546.306	n/a	RESPONSE	M5	1	14	D4	press
546.805	n/a	RESPONSE	M5	1	12	C4	press
546.895	n/a	RESPONSE	M5	1	14	D4	release
547.086	n/a	RESPONSE	M5	1	16	E4	press
547.197	n/a	RESPONSE	M5	1	12	C4	release
547.418	n/a	RESPONSE	M5	1	19	G4	press
547.52	n/a	RESPONSE	M5	1	16	E4	release
549.049	7.758	FIXCROSS	n/a	n/a	n/a	n/a	n/a
549.052	n/a	RESPONSE	M5	1	19	G4	release
556.807	6.317	CUE_LISTEN	M5	2	n/a	n/a	n/a
563.124	7.758	FIXCROSS	n/a	n/a	n/a	n/a	n/a
570.882	6.325	CUE_PLAYBACK_RIGHT_HAND	M5	2	n/a	n/a	n/a
571.531	n/a	RESPONSE	M5	2	19	G4	press
572.102	n/a	RESPONSE	M5	2	16	E4	press
572.314	n/a	RESPONSE	M5	2	19	G4	release
572.405	n/a	RESPONSE	M5	2	16	E4	release
572.566	n/a	RESPONSE	M5	2	16	E4	press
573.056	n/a	RESPONSE	M5	2	17	F4	press
573.122	n/a	RESPONSE	M5	2	16	E4	release
573.527	n/a	RESPONSE	M5	2	14	D4	press
573.635	n/a	RESPONSE	M5	2	17	F4	release
573.835	n/a	RESPONSE	M5	2	14	D4	release
574.011	n/a	RESPONSE	M5	2	14	D4	press
574.506	n/a	RESPONSE	M5	2	12	C4	press
574.57	n/a	RESPONSE	M5	2	14	D4	release
574.764	n/a	RESPONSE	M5	2	16	E4	press
574.822	n/a	RESPONSE	M5	2	12	C4	release
575.007	n/a	RESPONSE	M5	2	12	C4	press
575.105	n/a	RESPONSE	M5	2	16	E4	release
576.2	n/a	RESPONSE	M5	2	12	C4	release
577.207	7.759	FIXCROSS	n/a	n/a	n/a	n/a	n/a
584.966	6.317	CUE_LISTEN	M1	1	n/a	n/a	n/a
591.282	7.758	FIXCROSS	n/a	n/a	n/a	n/a	n/a
599.041	6.317	CUE_PLAYBACK_RIGHT_HAND	M1	1	n/a	n/a	n/a
599.664	n/a	RESPONSE	M1	1	07	G3	press
599.696	n/a	RESPONSE	M1	1	21	A4	press
600.386	n/a	RESPONSE	M1	1	21	A4	release
600.707	n/a	RESPONSE	M1	1	21	A4	press
600.718	n/a	RESPONSE	M1	1	11	B3	press
600.88	n/a	RESPONSE	M1	1	07	G3	release
600.891	n/a	RESPONSE	M1	1	21	A4	release
601.545	n/a	RESPONSE	M1	1	11	B3	release
602.234	n/a	RESPONSE	M1	1	07	G3	press
602.347	n/a	RESPONSE	M1	1	21	A4	press
602.666	n/a	RESPONSE	M1	1	21	A4	release
603.106	n/a	RESPONSE	M1	1	07	G3	release
603.261	n/a	RESPONSE	M1	1	07	G3	press
603.307	n/a	RESPONSE	M1	1	21	A4	press
603.727	n/a	RESPONSE	M1	1	21	A4	release
603.8	n/a	RESPONSE	M1	1	07	G3	release
604.032	n/a	RESPONSE	M1	1	05	F3	press
604.201	n/a	RESPONSE	M1	1	21	A4	press
604.461	n/a	RESPONSE	M1	1	21	A4	release
604.51	n/a	RESPONSE	M1	1	05	F3	release
604.806	n/a	RESPONSE	M1	1	21	A4	press
604.81	n/a	RESPONSE	M1	1	05	F3	press
605.064	n/a	RESPONSE	M1	1	21	A4	release
605.192	n/a	RESPONSE	M1	1	21	A4	press
605.246	n/a	RESPONSE	M1	1	09	A3	press
605.252	n/a	RESPONSE	M1	1	11	B3	press
605.357	7.758	FIXCROSS	n/a	n/a	n/a	n/a	n/a
605.385	n/a	RESPONSE	M1	1	05	F3	release
605.426	n/a	RESPONSE	M1	1	21	A4	release
605.567	n/a	RESPONSE	M1	1	11	B3	release
605.587	n/a	RESPONSE	M1	1	04	E3	press
605.602	n/a	RESPONSE	M1	1	09	A3	release
605.625	n/a	RESPONSE	M1	1	21	A4	press
605.841	n/a	RESPONSE	M1	1	21	A4	release
606.131	n/a	RESPONSE	M1	1	04	E3	release
613.116	6.325	CUE_LISTEN	M1	2	n/a	n/a	n/a
619.441	7.758	FIXCROSS	n/a	n/a	n/a	n/a	n/a
627.199	6.317	CUE_PLAYBACK_RIGHT_HAND	M1	2	n/a	n/a	n/a
627.738	n/a	RESPONSE	M1	2	22	A#4	press
627.741	n/a	RESPONSE	M1	2	07	G3	press
627.981	n/a	RESPONSE	M1	2	22	A#4	release
628.182	n/a	RESPONSE	M1	2	22	A#4	press
628.234	n/a	RESPONSE	M1	2	10	A#3	press
628.365	n/a	RESPONSE	M1	2	07	G3	release
628.396	n/a	RESPONSE	M1	2	22	A#4	release
628.637	n/a	RESPONSE	M1	2	04	E3	press
628.641	n/a	RESPONSE	M1	2	22	A#4	press
628.731	n/a	RESPONSE	M1	2	10	A#3	release
628.901	n/a	RESPONSE	M1	2	22	A#4	release
629.094	n/a	RESPONSE	M1	2	10	A#3	press
629.114	n/a	RESPONSE	M1	2	22	A#4	press
629.175	n/a	RESPONSE	M1	2	04	E3	release
629.266	n/a	RESPONSE	M1	2	22	A#4	release
629.627	n/a	RESPONSE	M1	2	22	A#4	press
629.699	n/a	RESPONSE	M1	2	05	F3	press
629.8	n/a	RESPONSE	M1	2	10	A#3	release
630.451	n/a	RESPONSE	M1	2	09	A3	press
630.462	n/a	RESPONSE	M1	2	21	A4	press
630.535	n/a	RESPONSE	M1	2	22	A#4	release
630.575	n/a	RESPONSE	M1	2	05	F3	release
630.698	n/a	RESPONSE	M1	2	21	A4	release
631.157	n/a	RESPONSE	M1	2	00	C3	press
631.16	n/a	RESPONSE	M1	2	21	A4	press
631.32	n/a	RESPONSE	M1	2	09	A3	release
631.392	n/a	RESPONSE	M1	2	21	A4	release
631.652	n/a	RESPONSE	M1	2	21	A4	press
631.664	n/a	RESPONSE	M1	2	09	A3	press
631.795	n/a	RESPONSE	M1	2	00	C3	release
632.097	n/a	RESPONSE	M1	2	21	A4	release
632.617	n/a	RESPONSE	M1	2	05	F3	press
632.648	n/a	RESPONSE	M1	2	19	G4	press
632.74	n/a	RESPONSE	M1	2	09	A3	release
633.516	7.758	FIXCROSS	n/a	n/a	n/a	n/a	n/a
634.235	n/a	RESPONSE	M1	2	19	G4	release
635.186	n/a	RESPONSE	M1	2	05	F3	release
641.274	6.317	CUE_LISTEN	M4	1	n/a	n/a	n/a
647.591	7.758	FIXCROSS	n/a	n/a	n/a	n/a	n/a
655.349	6.325	CUE_PLAYBACK_BOTH_HANDS	M4	1	n/a	n/a	n/a
655.935	n/a	RESPONSE	M4	1	05	F3	press
655.941	n/a	RESPONSE	M4	1	21	A4	press
656.147	n/a	RESPONSE	M4	1	21	A4	release
656.297	n/a	RESPONSE	M4	1	09	A3	press
656.334	n/a	RESPONSE	M4	1	21	A4	press
656.411	n/a	RESPONSE	M4	1	05	F3	release
656.57	n/a	RESPONSE	M4	1	21	A4	release
656.692	n/a	RESPONSE	M4	1	04	E3	press
656.722	n/a	RESPONSE	M4	1	21	A4	press
656.834	n/a	RESPONSE	M4	1	09	A3	release
656.917	n/a	RESPONSE	M4	1	21	A4	release
657.087	n/a	RESPONSE	M4	1	09	A3	press
657.167	n/a	RESPONSE	M4	1	04	E3	release
657.449	n/a	RESPONSE	M4	1	02	D3	press
657.48	n/a	RESPONSE	M4	1	21	A4	press
657.601	n/a	RESPONSE	M4	1	09	A3	release
657.672	n/a	RESPONSE	M4	1	21	A4	release
657.826	n/a	RESPONSE	M4	1	21	A4	press
657.845	n/a	RESPONSE	M4	1	09	A3	press
657.929	n/a	RESPONSE	M4	1	02	D3	release
658.007	n/a	RESPONSE	M4	1	21	A4	release
658.181	n/a	RESPONSE	M4	1	00	C3	press
658.2	n/a	RESPONSE	M4	1	21	A4	press
658.311	n/a	RESPONSE	M4	1	09	A3	release
658.432	n/a	RESPONSE	M4	1	21	A4	release
658.514	n/a	RESPONSE	M4	1	09	A3	press
658.605	n/a	RESPONSE	M4	1	00	C3	release
658.867	n/a	RESPONSE	M4	1	05	F3	press
658.917	n/a	RESPONSE	M4	1	21	A4	press
659.018	n/a	RESPONSE	M4	1	09	A3	release
659.21	n/a	RESPONSE	M4	1	24	C5	press
659.291	n/a	RESPONSE	M4	1	09	A3	press
659.312	n/a	RESPONSE	M4	1	21	A4	release
659.374	n/a	RESPONSE	M4	1	05	F3	release
659.717	n/a	RESPONSE	M4	1	17	F4	press
659.736	n/a	RESPONSE	M4	1	04	E3	press
659.777	n/a	RESPONSE	M4	1	24	C5	release
659.928	n/a	RESPONSE	M4	1	09	A3	release
660.14	n/a	RESPONSE	M4	1	19	G4	press
660.201	n/a	RESPONSE	M4	1	09	A3	press
660.204	n/a	RESPONSE	M4	1	11	B3	press
660.216	n/a	RESPONSE	M4	1	17	F4	release
660.295	n/a	RESPONSE	M4	1	04	E3	release
660.356	n/a	RESPONSE	M4	1	11	B3	release
660.617	n/a	RESPONSE	M4	1	21	A4	press
660.629	n/a	RESPONSE	M4	1	02	D3	press
660.74	n/a	RESPONSE	M4	1	19	G4	release
660.761	n/a	RESPONSE	M4	1	09	A3	release
661.022	n/a	RESPONSE	M4	1	09	A3	press
661.125	n/a	RESPONSE	M4	1	02	D3	release
661.395	n/a	RESPONSE	M4	1	00	C3	press
661.537	n/a	RESPONSE	M4	1	09	A3	release
661.674	7.758	FIXCROSS	n/a	n/a	n/a	n/a	n/a
661.757	n/a	RESPONSE	M4	1	09	A3	press
661.848	n/a	RESPONSE	M4	1	00	C3	release
663.437	n/a	RESPONSE	M4	1	09	A3	release
663.56	n/a	RESPONSE	M4	1	21	A4	release
669.432	6.317	CUE_LISTEN	M4	2	n/a	n/a	n/a
675.749	14.075	FIXCROSS	n/a	n/a	n/a	n/a	n/a
683.508	n/a	CUE_PLAYBACK_BOTH_HANDS	M4	2	n/a	n/a	n/a
684.206	n/a	RESPONSE	M4	2	07	G3	press
684.248	n/a	RESPONSE	M4	2	22	A#4	press
684.466	n/a	RESPONSE	M4	2	22	A#4	release
684.636	n/a	RESPONSE	M4	2	10	A#3	press
684.639	n/a	RESPONSE	M4	2	22	A#4	press
684.789	n/a	RESPONSE	M4	2	07	G3	release
684.82	n/a	RESPONSE	M4	2	22	A#4	release
685.107	n/a	RESPONSE	M4	2	22	A#4	press
685.126	n/a	RESPONSE	M4	2	04	E3	press
685.182	n/a	RESPONSE	M4	2	10	A#3	release
685.356	n/a	RESPONSE	M4	2	22	A#4	release
685.541	n/a	RESPONSE	M4	2	22	A#4	press
685.546	n/a	RESPONSE	M4	2	10	A#3	press
685.61	n/a	RESPONSE	M4	2	04	E3	release
685.711	n/a	RESPONSE	M4	2	22	A#4	release
686.031	n/a	RESPONSE	M4	2	22	A#4	press
686.034	n/a	RESPONSE	M4	2	05	F3	press
686.071	n/a	RESPONSE	M4	2	10	A#3	release
686.604	n/a	RESPONSE	M4	2	09	A3	press
686.637	n/a	RESPONSE	M4	2	21	A4	press
686.726	n/a	RESPONSE	M4	2	22	A#4	release
686.74	n/a	RESPONSE	M4	2	05	F3	release
686.859	n/a	RESPONSE	M4	2	21	A4	release
687.15	n/a	RESPONSE	M4	2	00	C3	press
687.171	n/a	RESPONSE	M4	2	21	A4	press
687.265	n/a	RESPONSE	M4	2	09	A3	release
687.404	n/a	RESPONSE	M4	2	21	A4	release
687.635	n/a	RESPONSE	M4	2	21	A4	press
687.666	n/a	RESPONSE	M4	2	09	A3	press
687.768	n/a	RESPONSE	M4	2	00	C3	release
688.46	n/a	RESPONSE	M4	2	00	C3	press
688.481	n/a	RESPONSE	M4	2	24	C5	press
688.555	n/a	RESPONSE	M4	2	09	A3	release
688.564	n/a	RESPONSE	M4	2	21	A4	release
689.125	n/a	RESPONSE	M4	2	24	C5	release
689.316	n/a	RESPONSE	M4	2	24	C5	press
689.319	n/a	RESPONSE	M4	2	07	G3	press
689.321	n/a	RESPONSE	M4	2	05	F3	press
689.75	n/a	RESPONSE	M4	2	00	C3	release
689.761	n/a	RESPONSE	M4	2	07	G3	release
689.824	7.758	FIXCROSS	n/a	n/a	n/a	n/a	n/a
690.202	n/a	RESPONSE	M4	2	02	D3	press
690.254	n/a	RESPONSE	M4	2	22	A#4	press
690.355	n/a	RESPONSE	M4	2	05	F3	release
691.196	n/a	RESPONSE	M4	2	05	F3	press
691.217	n/a	RESPONSE	M4	2	21	A4	press
691.38	n/a	RESPONSE	M4	2	02	D3	release
692.111	n/a	RESPONSE	M4	2	04	E3	press
692.114	n/a	RESPONSE	M4	2	19	G4	press
692.192	n/a	RESPONSE	M4	2	24	C5	release
692.214	n/a	RESPONSE	M4	2	05	F3	release
692.295	n/a	RESPONSE	M4	2	21	A4	release
692.686	n/a	RESPONSE	M4	2	19	G4	release
692.829	n/a	RESPONSE	M4	2	04	E3	release
692.929	n/a	RESPONSE	M4	2	22	A#4	release
697.582	6.325	CUE_LISTEN	M2	1	n/a	n/a	n/a
703.908	7.758	FIXCROSS	n/a	n/a	n/a	n/a	n/a
711.666	6.317	CUE_PLAYBACK_RIGHT_HAND	M2	1	n/a	n/a	n/a
712.25	n/a	RESPONSE	M2	1	24	C5	press
712.761	n/a	RESPONSE	M2	1	21	A4	press
712.805	n/a	RESPONSE	M2	1	24	C5	release
713.061	n/a	RESPONSE	M2	1	21	A4	release
713.651	n/a	RESPONSE	M2	1	24	C5	press
714.13	n/a	RESPONSE	M2	1	19	G4	press
714.314	n/a	RESPONSE	M2	1	24	C5	release
714.375	n/a	RESPONSE	M2	1	19	G4	release
714.585	n/a	RESPONSE	M2	1	19	G4	press
715.049	n/a	RESPONSE	M2	1	17	F4	press
715.152	n/a	RESPONSE	M2	1	19	G4	release
715.54	n/a	RESPONSE	M2	1	16	E4	press
715.669	n/a	RESPONSE	M2	1	17	F4	release
715.977	n/a	RESPONSE	M2	1	17	F4	press
716.076	n/a	RESPONSE	M2	1	16	E4	release
716.416	n/a	RESPONSE	M2	1	19	G4	press
716.899	n/a	RESPONSE	M2	1	17	F4	release
717.929	n/a	RESPONSE	M2	1	19	G4	release
717.982	7.758	FIXCROSS	n/a	n/a	n/a	n/a	n/a
725.741	6.325	CUE_LISTEN	M2	2	n/a	n/a	n/a
732.066	7.758	FIXCROSS	n/a	n/a	n/a	n/a	n/a
739.824	6.317	CUE_PLAYBACK_RIGHT_HAND	M2	2	n/a	n/a	n/a
740.436	n/a	RESPONSE	M2	2	24	C5	press
740.996	n/a	RESPONSE	M2	2	19	G4	press
741.106	n/a	RESPONSE	M2	2	24	C5	release
741.237	n/a	RESPONSE	M2	2	19	G4	release
741.489	n/a	RESPONSE	M2	2	19	G4	press
741.94	n/a	RESPONSE	M2	2	17	F4	press
742.061	n/a	RESPONSE	M2	2	19	G4	release
742.452	n/a	RESPONSE	M2	2	16	E4	press
742.555	n/a	RESPONSE	M2	2	17	F4	release
742.945	n/a	RESPONSE	M2	2	14	D4	press
743.03	n/a	RESPONSE	M2	2	16	E4	release
743.446	n/a	RESPONSE	M2	2	12	C4	press
744.501	n/a	RESPONSE	M2	2	14	D4	release
744.757	n/a	RESPONSE	M2	2	12	C4	release
746.141	7.758	FIXCROSS	n/a	n/a	n/a	n/a	n/a
753.899	6.317	CUE_LISTEN	M2	1	n/a	n/a	n/a
760.216	7.758	FIXCROSS	n/a	n/a	n/a	n/a	n/a
767.974	6.325	CUE_PLAYBACK_RIGHT_HAND	M2	1	n/a	n/a	n/a
768.627	n/a	RESPONSE	M2	1	12	C4	press
769.149	n/a	RESPONSE	M2	1	14	D4	press
769.241	n/a	RESPONSE	M2	1	12	C4	release
769.631	n/a	RESPONSE	M2	1	16	E4	press
769.722	n/a	RESPONSE	M2	1	14	D4	release
770.264	n/a	RESPONSE	M2	1	14	D4	press
770.315	n/a	RESPONSE	M2	1	16	E4	release
770.816	n/a	RESPONSE	M2	1	16	E4	press
770.857	n/a	RESPONSE	M2	1	14	D4	release
771.309	n/a	RESPONSE	M2	1	17	F4	press
771.36	n/a	RESPONSE	M2	1	16	E4	release
771.851	n/a	RESPONSE	M2	1	19	G4	press
771.902	n/a	RESPONSE	M2	1	17	F4	release
773.23	n/a	RESPONSE	M2	1	19	G4	release
774.299	7.758	FIXCROSS	n/a	n/a	n/a	n/a	n/a
782.058	6.317	CUE_LISTEN	M2	2	n/a	n/a	n/a
788.374	7.758	FIXCROSS	n/a	n/a	n/a	n/a	n/a
796.133	6.317	CUE_PLAYBACK_RIGHT_HAND	M2	2	n/a	n/a	n/a
796.821	n/a	RESPONSE	M2	2	16	E4	press
797.532	n/a	RESPONSE	M2	2	16	E4	release
797.694	n/a	RESPONSE	M2	2	19	G4	press
798.102	n/a	RESPONSE	M2	2	19	G4	release
798.234	n/a	RESPONSE	M2	2	19	G4	press
798.737	n/a	RESPONSE	M2	2	17	F4	press
798.867	n/a	RESPONSE	M2	2	19	G4	release
799.247	n/a	RESPONSE	M2	2	16	E4	press
799.339	n/a	RESPONSE	M2	2	17	F4	release
799.76	n/a	RESPONSE	M2	2	14	D4	press
799.884	n/a	RESPONSE	M2	2	16	E4	release
800.324	n/a	RESPONSE	M2	2	12	C4	press
800.434	n/a	RESPONSE	M2	2	14	D4	release
801.785	n/a	RESPONSE	M2	2	12	C4	release
802.449	7.758	FIXCROSS	n/a	n/a	n/a	n/a	n/a
810.208	6.332	CUE_LISTEN	M3	1	n/a	n/a	n/a
816.54	7.759	FIXCROSS	n/a	n/a	n/a	n/a	n/a
824.3	6.308	CUE_PLAYBACK_BOTH_HANDS	M3	1	n/a	n/a	n/a
824.839	n/a	RESPONSE	M3	1	00	C3	press
824.866	n/a	RESPONSE	M3	1	12	C4	press
825.341	n/a	RESPONSE	M3	1	07	G3	press
825.37	n/a	RESPONSE	M3	1	14	D4	press
825.526	n/a	RESPONSE	M3	1	12	C4	release
825.841	n/a	RESPONSE	M3	1	04	E3	press
825.924	n/a	RESPONSE	M3	1	16	E4	press
825.945	n/a	RESPONSE	M3	1	07	G3	release
826.105	n/a	RESPONSE	M3	1	14	D4	release
826.419	n/a	RESPONSE	M3	1	07	G3	press
826.46	n/a	RESPONSE	M3	1	12	C4	press
826.512	n/a	RESPONSE	M3	1	00	C3	release
826.532	n/a	RESPONSE	M3	1	16	E4	release
826.582	n/a	RESPONSE	M3	1	04	E3	release
826.706	n/a	RESPONSE	M3	1	12	C4	release
826.815	n/a	RESPONSE	M3	1	07	G3	release
826.976	n/a	RESPONSE	M3	1	00	C3	press
826.997	n/a	RESPONSE	M3	1	12	C4	press
827.469	n/a	RESPONSE	M3	1	07	G3	press
827.52	n/a	RESPONSE	M3	1	14	D4	press
827.634	n/a	RESPONSE	M3	1	12	C4	release
827.712	n/a	RESPONSE	M3	1	00	C3	release
827.996	n/a	RESPONSE	M3	1	04	E3	press
828.025	n/a	RESPONSE	M3	1	16	E4	press
828.096	n/a	RESPONSE	M3	1	07	G3	release
828.099	n/a	RESPONSE	M3	1	14	D4	release
828.521	n/a	RESPONSE	M3	1	07	G3	press
828.55	n/a	RESPONSE	M3	1	12	C4	press
828.641	n/a	RESPONSE	M3	1	16	E4	release
828.705	n/a	RESPONSE	M3	1	04	E3	release
829.024	n/a	RESPONSE	M3	1	12	C4	release
829.085	n/a	RESPONSE	M3	1	07	G3	release
830.608	7.758	FIXCROSS	n/a	n/a	n/a	n/a	n/a
838.366	6.317	CUE_LISTEN	M3	2	n/a	n/a	n/a
844.683	7.758	FIXCROSS	n/a	n/a	n/a	n/a	n/a
852.441	6.325	CUE_PLAYBACK_BOTH_HANDS	M3	2	n/a	n/a	n/a
853.11	n/a	RESPONSE	M3	2	00	C3	press
853.125	n/a	RESPONSE	M3	2	19	G4	press
853.389	n/a	RESPONSE	M3	2	21	A4	press
853.494	n/a	RESPONSE	M3	2	19	G4	release
853.646	n/a	RESPONSE	M3	2	07	G3	press
853.692	n/a	RESPONSE	M3	2	19	G4	press
853.905	n/a	RESPONSE	M3	2	21	A4	release
853.971	n/a	RESPONSE	M3	2	17	F4	press
854.275	n/a	RESPONSE	M3	2	04	E3	press
854.311	n/a	RESPONSE	M3	2	19	G4	release
854.315	n/a	RESPONSE	M3	2	16	E4	press
854.4	n/a	RESPONSE	M3	2	07	G3	release
854.839	n/a	RESPONSE	M3	2	07	G3	press
854.866	n/a	RESPONSE	M3	2	12	C4	press
854.925	n/a	RESPONSE	M3	2	14	D4	press
855.136	n/a	RESPONSE	M3	2	14	D4	release
855.162	n/a	RESPONSE	M3	2	16	E4	release
855.165	n/a	RESPONSE	M3	2	00	C3	release
855.172	n/a	RESPONSE	M3	2	12	C4	release
855.179	n/a	RESPONSE	M3	2	04	E3	release
855.181	n/a	RESPONSE	M3	2	17	F4	release
855.215	n/a	RESPONSE	M3	2	07	G3	release
855.469	n/a	RESPONSE	M3	2	17	F4	press
855.492	n/a	RESPONSE	M3	2	00	C3	press
855.895	n/a	RESPONSE	M3	2	17	F4	release
856.015	n/a	RESPONSE	M3	2	00	C3	release
856.387	n/a	RESPONSE	M3	2	19	G4	press
856.397	n/a	RESPONSE	M3	2	00	C3	press
856.649	n/a	RESPONSE	M3	2	21	A4	press
856.732	n/a	RESPONSE	M3	2	19	G4	release
856.931	n/a	RESPONSE	M3	2	07	G3	press
856.942	n/a	RESPONSE	M3	2	19	G4	press
857.075	n/a	RESPONSE	M3	2	21	A4	release
857.175	n/a	RESPONSE	M3	2	17	F4	press
857.306	n/a	RESPONSE	M3	2	00	C3	release
857.477	n/a	RESPONSE	M3	2	04	E3	press
857.539	n/a	RESPONSE	M3	2	16	E4	press
857.56	n/a	RESPONSE	M3	2	07	G3	release
857.611	n/a	RESPONSE	M3	2	19	G4	release
858.092	n/a	RESPONSE	M3	2	07	G3	press
858.104	n/a	RESPONSE	M3	2	12	C4	press
858.115	n/a	RESPONSE	M3	2	17	F4	release
858.146	n/a	RESPONSE	M3	2	16	E4	release
858.39	n/a	RESPONSE	M3	2	04	E3	release
858.419	n/a	RESPONSE	M3	2	12	C4	release
858.43	n/a	RESPONSE	M3	2	07	G3	release
858.766	7.758	FIXCROSS	n/a	n/a	n/a	n/a	n/a
866.525	6.317	CUE_LISTEN	M3	1	n/a	n/a	n/a
872.841	7.759	FIXCROSS	n/a	n/a	n/a	n/a	n/a
880.6	6.317	CUE_PLAYBACK_BOTH_HANDS	M3	1	n/a	n/a	n/a
881.885	n/a	RESPONSE	M3	1	00	C3	press
881.896	n/a	RESPONSE	M3	1	19	G4	press
882.107	n/a	RESPONSE	M3	1	21	A4	press
882.219	n/a	RESPONSE	M3	1	19	G4	release
882.39	n/a	RESPONSE	M3	1	07	G3	press
882.421	n/a	RESPONSE	M3	1	19	G4	press
882.584	n/a	RESPONSE	M3	1	21	A4	release
882.684	n/a	RESPONSE	M3	1	17	F4	press
882.966	n/a	RESPONSE	M3	1	04	E3	press
883.007	n/a	RESPONSE	M3	1	19	G4	release
883.01	n/a	RESPONSE	M3	1	16	E4	press
883.074	n/a	RESPONSE	M3	1	07	G3	release
883.509	n/a	RESPONSE	M3	1	07	G3	press
883.527	n/a	RESPONSE	M3	1	12	C4	press
883.636	n/a	RESPONSE	M3	1	16	E4	release
883.69	n/a	RESPONSE	M3	1	04	E3	release
883.734	n/a	RESPONSE	M3	1	17	F4	release
883.746	n/a	RESPONSE	M3	1	12	C4	release
883.785	n/a	RESPONSE	M3	1	00	C3	release
883.795	n/a	RESPONSE	M3	1	07	G3	release
884.582	n/a	RESPONSE	M3	1	00	C3	press
884.596	n/a	RESPONSE	M3	1	19	G4	press
885.071	n/a	RESPONSE	M3	1	19	G4	release
885.166	n/a	RESPONSE	M3	1	00	C3	release
885.286	n/a	RESPONSE	M3	1	19	G4	press
885.297	n/a	RESPONSE	M3	1	00	C3	press
885.567	n/a	RESPONSE	M3	1	21	A4	press
885.659	n/a	RESPONSE	M3	1	19	G4	release
885.852	n/a	RESPONSE	M3	1	07	G3	press
885.861	n/a	RESPONSE	M3	1	19	G4	press
886.035	n/a	RESPONSE	M3	1	21	A4	release
886.161	n/a	RESPONSE	M3	1	17	F4	press
886.439	n/a	RESPONSE	M3	1	04	E3	press
886.505	n/a	RESPONSE	M3	1	16	E4	press
886.57	n/a	RESPONSE	M3	1	07	G3	release
886.731	n/a	RESPONSE	M3	1	19	G4	release
886.916	7.758	FIXCROSS	n/a	n/a	n/a	n/a	n/a
886.972	n/a	RESPONSE	M3	1	17	F4	release
887.054	n/a	RESPONSE	M3	1	07	G3	press
887.075	n/a	RESPONSE	M3	1	12	C4	press
887.427	n/a	RESPONSE	M3	1	04	E3	release
887.459	n/a	RESPONSE	M3	1	07	G3	release
887.469	n/a	RESPONSE	M3	1	16	E4	release
887.49	n/a	RESPONSE	M3	1	12	C4	release
887.591	n/a	RESPONSE	M3	1	00	C3	release
894.675	6.325	CUE_LISTEN	M3	2	n/a	n/a	n/a
901.0	7.759	FIXCROSS	n/a	n/a	n/a	n/a	n/a
908.758	191.966	CUE_PLAYBACK_BOTH_HANDS	M3	2	n/a	n/a	n/a
909.626	n/a	RESPONSE	M3	2	00	C3	press
909.657	n/a	RESPONSE	M3	2	12	C4	press
910.15	n/a	RESPONSE	M3	2	07	G3	press
910.312	n/a	RESPONSE	M3	2	12	C4	release
910.372	n/a	RESPONSE	M3	2	00	C3	release
910.452	n/a	RESPONSE	M3	2	07	G3	release
910.636	n/a	RESPONSE	M3	2	00	C3	press
910.677	n/a	RESPONSE	M3	2	12	C4	press
911.346	n/a	RESPONSE	M3	2	12	C4	release
911.349	n/a	RESPONSE	M3	2	00	C3	release
911.619	n/a	RESPONSE	M3	2	00	C3	press
911.66	n/a	RESPONSE	M3	2	12	C4	press
912.131	n/a	RESPONSE	M3	2	07	G3	press
912.312	n/a	RESPONSE	M3	2	12	C4	release
912.376	n/a	RESPONSE	M3	2	00	C3	release
912.415	n/a	RESPONSE	M3	2	07	G3	release
912.606	n/a	RESPONSE	M3	2	00	C3	press
912.627	n/a	RESPONSE	M3	2	12	C4	press
913.251	n/a	FIXCROSS	n/a	n/a	n/a	n/a	n/a
913.961	n/a	RESPONSE	M3	2	12	C4	release
914.941	n/a	RESPONSE	M3	2	00	C3	release
