onset	duration	trial_type	melody_number	melody_part	key	sound	action
0.0	14.084	CUE_START	n/a	n/a	n/a	n/a	n/a
14.085	7.76	FIXCROSS	n/a	n/a	n/a	n/a	n/a
21.844	6.324	CUE_LISTEN	M1	1	n/a	n/a	n/a
28.168	7.758	FIXCROSS	n/a	n/a	n/a	n/a	n/a
35.926	6.317	CUE_PLAYBACK_RIGHT_HAND	M1	1	n/a	n/a	n/a
36.742	n/a	RESPONSE	M1	1	00	C3	press
36.758	n/a	RESPONSE	M1	1	12	C4	press
37.187	n/a	RESPONSE	M1	1	14	D4	press
37.214	n/a	RESPONSE	M1	1	04	E3	press
37.324	n/a	RESPONSE	M1	1	00	C3	release
37.353	n/a	RESPONSE	M1	1	12	C4	release
37.671	n/a	RESPONSE	M1	1	16	E4	press
37.673	n/a	RESPONSE	M1	1	07	G3	press
37.716	n/a	RESPONSE	M1	1	04	E3	release
37.731	n/a	RESPONSE	M1	1	14	D4	release
38.102	n/a	RESPONSE	M1	1	00	C3	press
38.104	n/a	RESPONSE	M1	1	12	C4	press
38.173	n/a	RESPONSE	M1	1	16	E4	release
38.216	n/a	RESPONSE	M1	1	07	G3	release
38.341	n/a	RESPONSE	M1	1	00	C3	release
38.356	n/a	RESPONSE	M1	1	12	C4	release
38.508	n/a	RESPONSE	M1	1	00	C3	press
38.551	n/a	RESPONSE	M1	1	12	C4	press
38.926	n/a	RESPONSE	M1	1	07	G3	press
38.938	n/a	RESPONSE	M1	1	14	D4	press
38.982	n/a	RESPONSE	M1	1	00	C3	release
39.051	n/a	RESPONSE	M1	1	12	C4	release
39.327	n/a	RESPONSE	M1	1	04	E3	press
39.344	n/a	RESPONSE	M1	1	16	E4	press
39.442	n/a	RESPONSE	M1	1	07	G3	release
39.482	n/a	RESPONSE	M1	1	14	D4	release
39.731	n/a	RESPONSE	M1	1	07	G3	press
39.759	n/a	RESPONSE	M1	1	12	C4	press
39.83	n/a	RESPONSE	M1	1	04	E3	release
39.833	n/a	RESPONSE	M1	1	16	E4	release
39.97	n/a	RESPONSE	M1	1	12	C4	release
39.972	n/a	RESPONSE	M1	1	07	G3	release
40.151	n/a	RESPONSE	M1	1	00	C3	press
40.153	n/a	RESPONSE	M1	1	16	E4	press
40.554	n/a	RESPONSE	M1	1	17	F4	press
40.557	n/a	RESPONSE	M1	1	07	G3	press
40.626	n/a	RESPONSE	M1	1	00	C3	release
40.63	n/a	RESPONSE	M1	1	16	E4	release
40.944	n/a	RESPONSE	M1	1	04	E3	press
40.959	n/a	RESPONSE	M1	1	19	G4	press
41.018	n/a	RESPONSE	M1	1	17	F4	release
41.031	n/a	RESPONSE	M1	1	07	G3	release
41.326	n/a	RESPONSE	M1	1	07	G3	press
41.409	n/a	RESPONSE	M1	1	04	E3	release
41.521	n/a	RESPONSE	M1	1	19	G4	release
41.536	n/a	RESPONSE	M1	1	07	G3	release
41.743	n/a	RESPONSE	M1	1	00	C3	press
41.758	n/a	RESPONSE	M1	1	16	E4	press
42.131	n/a	RESPONSE	M1	1	07	G3	press
42.147	n/a	RESPONSE	M1	1	17	F4	press
42.188	n/a	RESPONSE	M1	1	00	C3	release
42.243	7.758	FIXCROSS	n/a	n/a	n/a	n/a	n/a
42.244	n/a	RESPONSE	M1	1	16	E4	release
42.562	n/a	RESPONSE	M1	1	04	E3	press
42.577	n/a	RESPONSE	M1	1	19	G4	press
42.652	n/a	RESPONSE	M1	1	17	F4	release
42.668	n/a	RESPONSE	M1	1	07	G3	release
42.82	n/a	RESPONSE	M1	1	04	E3	release
42.888	n/a	RESPONSE	M1	1	19	G4	release
50.001	6.317	CUE_LISTEN	        M1	2	n/a	n/a	n/a
56.318	7.758	FIXCROSS	n/a	n/a	n/a	n/a	n/a
64.076	6.317	CUE_PLAYBACK_RIGHT_HAND	        M1	2	n/a	n/a	n/a
64.799	n/a	RESPONSE	        M1	2	19	G4	press
65.041	n/a	RESPONSE	        M1	2	21	A4	press
65.184	n/a	RESPONSE	        M1	2	19	G4	release
65.247	n/a	RESPONSE	        M1	2	19	G4	press
65.301	n/a	RESPONSE	        M1	2	21	A4	release
65.49	n/a	RESPONSE	        M1	2	17	F4	press
65.648	n/a	RESPONSE	        M1	2	19	G4	release
65.709	n/a	RESPONSE	        M1	2	16	E4	press
65.846	n/a	RESPONSE	        M1	2	17	F4	release
66.119	n/a	RESPONSE	        M1	2	12	C4	press
66.208	n/a	RESPONSE	        M1	2	16	E4	release
66.533	n/a	RESPONSE	        M1	2	12	C4	release
66.549	n/a	RESPONSE	        M1	2	16	E4	press
66.621	n/a	RESPONSE	        M1	2	19	G4	press
66.691	n/a	RESPONSE	        M1	2	16	E4	release
66.953	n/a	RESPONSE	        M1	2	21	A4	press
67.023	n/a	RESPONSE	        M1	2	19	G4	release
67.148	n/a	RESPONSE	        M1	2	19	G4	press
67.262	n/a	RESPONSE	        M1	2	21	A4	release
67.413	n/a	RESPONSE	        M1	2	17	F4	press
67.538	n/a	RESPONSE	        M1	2	19	G4	release
67.636	n/a	RESPONSE	        M1	2	16	E4	press
67.774	n/a	RESPONSE	        M1	2	17	F4	release
68.092	n/a	RESPONSE	        M1	2	12	C4	press
68.189	n/a	RESPONSE	        M1	2	16	E4	release
68.397	n/a	RESPONSE	        M1	2	12	C4	release
68.549	n/a	RESPONSE	        M1	2	12	C4	press
68.922	n/a	RESPONSE	        M1	2	12	C4	release
68.992	n/a	RESPONSE	        M1	2	07	G3	press
69.464	n/a	RESPONSE	        M1	2	07	G3	release
69.481	n/a	RESPONSE	        M1	2	12	C4	press
70.057	n/a	RESPONSE	        M1	2	12	C4	release
70.349	n/a	RESPONSE	        M1	2	12	C4	press
70.393	7.758	FIXCROSS	n/a	n/a	n/a	n/a	n/a
70.818	n/a	RESPONSE	        M1	2	12	C4	release
70.971	n/a	RESPONSE	        M1	2	07	G3	press
71.276	n/a	RESPONSE	        M1	2	07	G3	release
71.332	n/a	RESPONSE	        M1	2	12	C4	press
71.638	n/a	RESPONSE	        M1	2	12	C4	release
75.041	n/a	RESPONSE	        M1	2	14	D4	press
75.64	n/a	RESPONSE	        M1	2	14	D4	release
78.151	6.325	CUE_LISTEN	        M7	1	n/a	n/a	n/a
84.476	7.759	FIXCROSS	n/a	n/a	n/a	n/a	n/a
92.235	6.317	CUE_PLAYBACK_BOTH_HANDS	        M7	1	n/a	n/a	n/a
93.132	n/a	RESPONSE	        M7	1	05	F3	press
93.134	n/a	RESPONSE	        M7	1	21	A4	press
93.406	n/a	RESPONSE	        M7	1	21	A4	release
93.534	n/a	RESPONSE	        M7	1	21	A4	press
93.568	n/a	RESPONSE	        M7	1	09	A3	press
93.672	n/a	RESPONSE	        M7	1	05	F3	release
93.779	n/a	RESPONSE	        M7	1	21	A4	release
93.931	n/a	RESPONSE	        M7	1	04	E3	press
93.938	n/a	RESPONSE	        M7	1	21	A4	press
94.022	n/a	RESPONSE	        M7	1	09	A3	release
94.338	n/a	RESPONSE	        M7	1	09	A3	press
94.409	n/a	RESPONSE	        M7	1	04	E3	release
94.453	n/a	RESPONSE	        M7	1	21	A4	release
94.704	n/a	RESPONSE	        M7	1	02	D3	press
94.711	n/a	RESPONSE	        M7	1	21	A4	press
94.787	n/a	RESPONSE	        M7	1	09	A3	release
94.917	n/a	RESPONSE	        M7	1	21	A4	release
95.082	n/a	RESPONSE	        M7	1	09	A3	press
95.084	n/a	RESPONSE	        M7	1	21	A4	press
95.129	n/a	RESPONSE	        M7	1	02	D3	release
95.287	n/a	RESPONSE	        M7	1	21	A4	release
95.461	n/a	RESPONSE	        M7	1	00	C3	press
95.472	n/a	RESPONSE	        M7	1	21	A4	press
95.561	n/a	RESPONSE	        M7	1	09	A3	release
95.847	n/a	RESPONSE	        M7	1	09	A3	press
95.901	n/a	RESPONSE	        M7	1	00	C3	release
95.942	n/a	RESPONSE	        M7	1	21	A4	release
96.224	n/a	RESPONSE	        M7	1	21	A4	press
96.227	n/a	RESPONSE	        M7	1	05	F3	press
96.337	n/a	RESPONSE	        M7	1	09	A3	release
96.6	n/a	RESPONSE	        M7	1	24	C5	press
96.631	n/a	RESPONSE	        M7	1	09	A3	press
96.674	n/a	RESPONSE	        M7	1	21	A4	release
96.678	n/a	RESPONSE	        M7	1	05	F3	release
96.968	n/a	RESPONSE	        M7	1	04	E3	press
96.981	n/a	RESPONSE	        M7	1	17	F4	press
97.092	n/a	RESPONSE	        M7	1	24	C5	release
97.094	n/a	RESPONSE	        M7	1	09	A3	release
97.344	n/a	RESPONSE	        M7	1	19	G4	press
97.358	n/a	RESPONSE	        M7	1	09	A3	press
97.414	n/a	RESPONSE	        M7	1	17	F4	release
97.432	n/a	RESPONSE	        M7	1	04	E3	release
97.706	n/a	RESPONSE	        M7	1	02	D3	press
97.708	n/a	RESPONSE	        M7	1	21	A4	press
97.791	n/a	RESPONSE	        M7	1	09	A3	release
97.794	n/a	RESPONSE	        M7	1	19	G4	release
98.069	n/a	RESPONSE	        M7	1	09	A3	press
98.124	n/a	RESPONSE	        M7	1	02	D3	release
98.442	n/a	RESPONSE	        M7	1	00	C3	press
98.513	n/a	RESPONSE	        M7	1	09	A3	release
98.551	7.758	FIXCROSS	n/a	n/a	n/a	n/a	n/a
98.829	n/a	RESPONSE	        M7	1	09	A3	press
98.872	n/a	RESPONSE	        M7	1	00	C3	release
99.024	n/a	RESPONSE	        M7	1	21	A4	release
99.149	n/a	RESPONSE	        M7	1	09	A3	release
106.31	6.317	CUE_LISTEN	        M7	2	n/a	n/a	n/a
112.626	7.758	FIXCROSS	n/a	n/a	n/a	n/a	n/a
120.385	6.325	CUE_PLAYBACK_BOTH_HANDS	        M7	2	n/a	n/a	n/a
120.998	n/a	RESPONSE	        M7	2	22	A#4	press
121.001	n/a	RESPONSE	        M7	2	07	G3	press
121.234	n/a	RESPONSE	        M7	2	22	A#4	release
121.416	n/a	RESPONSE	        M7	2	22	A#4	press
121.513	n/a	RESPONSE	        M7	2	10	A#3	press
121.638	n/a	RESPONSE	        M7	2	07	G3	release
121.694	n/a	RESPONSE	        M7	2	22	A#4	release
121.861	n/a	RESPONSE	        M7	2	04	E3	press
121.878	n/a	RESPONSE	        M7	2	10	A#3	release
121.891	n/a	RESPONSE	        M7	2	22	A#4	press
122.249	n/a	RESPONSE	        M7	2	22	A#4	release
122.306	n/a	RESPONSE	        M7	2	10	A#3	press
122.321	n/a	RESPONSE	        M7	2	22	A#4	press
122.391	n/a	RESPONSE	        M7	2	04	E3	release
122.543	n/a	RESPONSE	        M7	2	22	A#4	release
122.688	n/a	RESPONSE	        M7	2	22	A#4	press
122.691	n/a	RESPONSE	        M7	2	05	F3	press
122.734	n/a	RESPONSE	        M7	2	10	A#3	release
123.111	n/a	RESPONSE	        M7	2	09	A3	press
123.127	n/a	RESPONSE	        M7	2	21	A4	press
123.206	n/a	RESPONSE	        M7	2	05	F3	release
123.302	n/a	RESPONSE	        M7	2	22	A#4	release
123.332	n/a	RESPONSE	        M7	2	21	A4	release
123.567	n/a	RESPONSE	        M7	2	00	C3	press
123.576	n/a	RESPONSE	        M7	2	21	A4	press
123.734	n/a	RESPONSE	        M7	2	09	A3	release
123.809	n/a	RESPONSE	        M7	2	21	A4	release
124.028	n/a	RESPONSE	        M7	2	21	A4	press
124.061	n/a	RESPONSE	        M7	2	09	A3	press
124.143	n/a	RESPONSE	        M7	2	00	C3	release
124.282	n/a	RESPONSE	        M7	2	21	A4	release
124.551	n/a	RESPONSE	        M7	2	21	A4	press
124.553	n/a	RESPONSE	        M7	2	07	G3	press
124.658	n/a	RESPONSE	        M7	2	09	A3	release
125.012	n/a	RESPONSE	        M7	2	11	B3	press
125.023	n/a	RESPONSE	        M7	2	19	G4	press
125.106	n/a	RESPONSE	        M7	2	07	G3	release
125.146	n/a	RESPONSE	        M7	2	21	A4	release
125.293	n/a	RESPONSE	        M7	2	19	G4	release
125.632	n/a	RESPONSE	        M7	2	11	B3	release
126.397	n/a	RESPONSE	        M7	2	19	G4	press
126.412	n/a	RESPONSE	        M7	2	00	C3	press
126.71	7.758	FIXCROSS	n/a	n/a	n/a	n/a	n/a
127.042	n/a	RESPONSE	        M7	2	24	C5	press
127.098	n/a	RESPONSE	        M7	2	19	G4	release
127.101	n/a	RESPONSE	        M7	2	07	G3	press
127.213	n/a	RESPONSE	        M7	2	00	C3	release
127.407	n/a	RESPONSE	        M7	2	24	C5	release
127.656	n/a	RESPONSE	        M7	2	04	E3	press
127.684	n/a	RESPONSE	        M7	2	24	C5	press
127.796	n/a	RESPONSE	        M7	2	07	G3	release
128.374	n/a	RESPONSE	        M7	2	04	E3	release
128.431	n/a	RESPONSE	        M7	2	24	C5	release
134.468	6.317	CUE_LISTEN	        M5	1	n/a	n/a	n/a
140.785	7.758	FIXCROSS	n/a	n/a	n/a	n/a	n/a
148.543	6.325	CUE_PLAYBACK_BOTH_HANDS	        M5	1	n/a	n/a	n/a
149.134	n/a	RESPONSE	        M5	1	04	E3	press
149.137	n/a	RESPONSE	        M5	1	07	G3	press
149.139	n/a	RESPONSE	        M5	1	19	G4	press
149.152	n/a	RESPONSE	        M5	1	00	C3	press
149.501	n/a	RESPONSE	        M5	1	19	G4	release
149.679	n/a	RESPONSE	        M5	1	16	E4	press
149.928	n/a	RESPONSE	        M5	1	16	E4	release
150.177	n/a	RESPONSE	        M5	1	16	E4	press
150.352	n/a	RESPONSE	        M5	1	00	C3	release
150.449	n/a	RESPONSE	        M5	1	04	E3	release
150.452	n/a	RESPONSE	        M5	1	16	E4	release
150.631	n/a	RESPONSE	        M5	1	02	D3	press
150.633	n/a	RESPONSE	        M5	1	05	F3	press
150.661	n/a	RESPONSE	        M5	1	17	F4	press
150.964	n/a	RESPONSE	        M5	1	17	F4	release
151.161	n/a	RESPONSE	        M5	1	14	D4	press
151.379	n/a	RESPONSE	        M5	1	14	D4	release
151.669	n/a	RESPONSE	        M5	1	14	D4	press
151.808	n/a	RESPONSE	        M5	1	02	D3	release
151.823	n/a	RESPONSE	        M5	1	05	F3	release
151.866	n/a	RESPONSE	        M5	1	14	D4	release
151.936	n/a	RESPONSE	        M5	1	07	G3	release
152.143	n/a	RESPONSE	        M5	1	07	G3	press
152.147	n/a	RESPONSE	        M5	1	04	E3	press
152.159	n/a	RESPONSE	        M5	1	12	C4	press
152.162	n/a	RESPONSE	        M5	1	00	C3	press
152.409	n/a	RESPONSE	        M5	1	16	E4	press
152.493	n/a	RESPONSE	        M5	1	12	C4	release
152.681	n/a	RESPONSE	        M5	1	19	G4	press
152.707	n/a	RESPONSE	        M5	1	16	E4	release
153.383	n/a	RESPONSE	        M5	1	19	G4	release
153.434	n/a	RESPONSE	        M5	1	00	C3	release
153.601	n/a	RESPONSE	        M5	1	07	G3	release
153.632	n/a	RESPONSE	        M5	1	04	E3	release
154.868	7.758	FIXCROSS	n/a	n/a	n/a	n/a	n/a
162.627	6.317	CUE_LISTEN	        M5	2	n/a	n/a	n/a
168.943	7.758	FIXCROSS	n/a	n/a	n/a	n/a	n/a
176.702	6.317	CUE_PLAYBACK_BOTH_HANDS	        M5	2	n/a	n/a	n/a
177.344	n/a	RESPONSE	        M5	2	19	G4	press
177.357	n/a	RESPONSE	        M5	2	04	E3	press
177.359	n/a	RESPONSE	        M5	2	00	C3	press
177.362	n/a	RESPONSE	        M5	2	07	G3	press
177.663	n/a	RESPONSE	        M5	2	19	G4	release
177.872	n/a	RESPONSE	        M5	2	16	E4	press
178.119	n/a	RESPONSE	        M5	2	16	E4	release
178.384	n/a	RESPONSE	        M5	2	16	E4	press
178.576	n/a	RESPONSE	        M5	2	00	C3	release
178.593	n/a	RESPONSE	        M5	2	04	E3	release
178.647	n/a	RESPONSE	        M5	2	16	E4	release
178.689	n/a	RESPONSE	        M5	2	07	G3	release
178.801	n/a	RESPONSE	        M5	2	05	F3	press
178.803	n/a	RESPONSE	        M5	2	02	D3	press
178.844	n/a	RESPONSE	        M5	2	07	G3	press
178.859	n/a	RESPONSE	        M5	2	17	F4	press
179.149	n/a	RESPONSE	        M5	2	17	F4	release
179.371	n/a	RESPONSE	        M5	2	14	D4	press
179.564	n/a	RESPONSE	        M5	2	14	D4	release
179.882	n/a	RESPONSE	        M5	2	14	D4	press
180.048	n/a	RESPONSE	        M5	2	05	F3	release
180.051	n/a	RESPONSE	        M5	2	02	D3	release
180.067	n/a	RESPONSE	        M5	2	14	D4	release
180.162	n/a	RESPONSE	        M5	2	07	G3	release
180.346	n/a	RESPONSE	        M5	2	07	G3	press
180.348	n/a	RESPONSE	        M5	2	00	C3	press
180.351	n/a	RESPONSE	        M5	2	04	E3	press
180.364	n/a	RESPONSE	        M5	2	12	C4	press
180.628	n/a	RESPONSE	        M5	2	16	E4	press
180.696	n/a	RESPONSE	        M5	2	12	C4	release
180.917	n/a	RESPONSE	        M5	2	12	C4	press
180.932	n/a	RESPONSE	        M5	2	16	E4	release
181.513	n/a	RESPONSE	        M5	2	00	C3	release
181.622	n/a	RESPONSE	        M5	2	12	C4	release
181.664	n/a	RESPONSE	        M5	2	07	G3	release
181.749	n/a	RESPONSE	        M5	2	04	E3	release
183.018	7.758	FIXCROSS	n/a	n/a	n/a	n/a	n/a
190.777	6.325	CUE_LISTEN	        M3	1	n/a	n/a	n/a
197.102	7.758	FIXCROSS	n/a	n/a	n/a	n/a	n/a
204.86	6.317	CUE_PLAYBACK_RIGHT_HAND	        M3	1	n/a	n/a	n/a
205.588	n/a	RESPONSE	        M3	1	22	A#4	press
206.132	n/a	RESPONSE	        M3	1	21	A4	press
206.276	n/a	RESPONSE	        M3	1	22	A#4	release
206.692	n/a	RESPONSE	        M3	1	19	G4	press
206.818	n/a	RESPONSE	        M3	1	21	A4	release
207.244	n/a	RESPONSE	        M3	1	21	A4	press
207.328	n/a	RESPONSE	        M3	1	19	G4	release
207.824	n/a	RESPONSE	        M3	1	14	D4	press
208.061	n/a	RESPONSE	        M3	1	14	D4	release
208.419	n/a	RESPONSE	        M3	1	14	D4	press
208.461	n/a	RESPONSE	        M3	1	21	A4	release
208.998	n/a	RESPONSE	        M3	1	19	G4	press
209.109	n/a	RESPONSE	        M3	1	14	D4	release
209.578	n/a	RESPONSE	        M3	1	09	A3	press
209.758	n/a	RESPONSE	        M3	1	19	G4	release
209.911	n/a	RESPONSE	        M3	1	11	B3	press
210.201	n/a	RESPONSE	        M3	1	09	A3	release
210.476	n/a	RESPONSE	        M3	1	11	B3	release
210.766	n/a	RESPONSE	        M3	1	07	G3	press
211.177	7.758	FIXCROSS	n/a	n/a	n/a	n/a	n/a
211.179	n/a	RESPONSE	        M3	1	09	A3	press
211.252	n/a	RESPONSE	        M3	1	07	G3	release
211.663	n/a	RESPONSE	        M3	1	10	A#3	press
211.692	n/a	RESPONSE	        M3	1	09	A3	release
211.927	n/a	RESPONSE	        M3	1	12	C4	press
212.053	n/a	RESPONSE	        M3	1	10	A#3	release
212.397	n/a	RESPONSE	        M3	1	14	D4	press
212.494	n/a	RESPONSE	        M3	1	12	C4	release
212.932	n/a	RESPONSE	        M3	1	14	D4	release
214.378	n/a	RESPONSE	        M3	1	12	C4	press
214.754	n/a	RESPONSE	        M3	1	14	D4	press
214.763	n/a	RESPONSE	        M3	1	12	C4	release
215.102	n/a	RESPONSE	        M3	1	14	D4	release
218.935	6.317	CUE_LISTEN	        M3	2	n/a	n/a	n/a
225.252	7.758	FIXCROSS	n/a	n/a	n/a	n/a	n/a
233.01	6.325	CUE_PLAYBACK_RIGHT_HAND	        M3	2	n/a	n/a	n/a
233.649	n/a	RESPONSE	        M3	2	13	C#4	press
234.138	n/a	RESPONSE	        M3	2	13	C#4	release
235.862	n/a	RESPONSE	        M3	2	15	D#4	press
236.461	n/a	RESPONSE	        M3	2	17	F4	press
236.531	n/a	RESPONSE	        M3	2	15	D#4	release
236.763	n/a	RESPONSE	        M3	2	15	D#4	press
236.819	n/a	RESPONSE	        M3	2	17	F4	release
237.043	n/a	RESPONSE	        M3	2	14	D4	press
237.126	n/a	RESPONSE	        M3	2	15	D#4	release
237.318	n/a	RESPONSE	        M3	2	12	C4	press
237.374	n/a	RESPONSE	        M3	2	14	D4	release
237.623	n/a	RESPONSE	        M3	2	14	D4	press
237.652	n/a	RESPONSE	        M3	2	12	C4	release
238.217	n/a	RESPONSE	        M3	2	15	D#4	press
238.287	n/a	RESPONSE	        M3	2	14	D4	release
238.494	n/a	RESPONSE	        M3	2	14	D4	press
238.594	n/a	RESPONSE	        M3	2	15	D#4	release
238.758	n/a	RESPONSE	        M3	2	12	C4	press
238.803	n/a	RESPONSE	        M3	2	14	D4	release
239.022	n/a	RESPONSE	        M3	2	10	A#3	press
239.119	n/a	RESPONSE	        M3	2	12	C4	release
239.313	n/a	RESPONSE	        M3	2	12	C4	press
239.335	7.758	FIXCROSS	n/a	n/a	n/a	n/a	n/a
239.342	n/a	RESPONSE	        M3	2	10	A#3	release
239.963	n/a	RESPONSE	        M3	2	14	D4	press
240.046	n/a	RESPONSE	        M3	2	12	C4	release
240.239	n/a	RESPONSE	        M3	2	12	C4	press
240.298	n/a	RESPONSE	        M3	2	14	D4	release
240.602	n/a	RESPONSE	        M3	2	10	A#3	press
240.686	n/a	RESPONSE	        M3	2	12	C4	release
241.293	n/a	RESPONSE	        M3	2	12	C4	press
241.433	n/a	RESPONSE	        M3	2	10	A#3	release
241.693	n/a	RESPONSE	        M3	2	09	A3	press
241.763	n/a	RESPONSE	        M3	2	12	C4	release
242.383	n/a	RESPONSE	        M3	2	09	A3	release
247.093	6.317	CUE_LISTEN	        M6	1	n/a	n/a	n/a
253.41	7.758	FIXCROSS	n/a	n/a	n/a	n/a	n/a
261.168	6.317	CUE_PLAYBACK_RIGHT_HAND	        M6	1	n/a	n/a	n/a
261.971	n/a	RESPONSE	        M6	1	12	C4	press
262.3	n/a	RESPONSE	        M6	1	17	F4	press
262.441	n/a	RESPONSE	        M6	1	12	C4	release
262.683	n/a	RESPONSE	        M6	1	19	G4	press
262.692	n/a	RESPONSE	        M6	1	21	A4	press
262.737	n/a	RESPONSE	        M6	1	17	F4	release
262.866	n/a	RESPONSE	        M6	1	21	A4	release
263.054	n/a	RESPONSE	        M6	1	17	F4	press
263.327	n/a	RESPONSE	        M6	1	19	G4	release
263.439	n/a	RESPONSE	        M6	1	16	E4	press
263.553	n/a	RESPONSE	        M6	1	17	F4	release
263.788	n/a	RESPONSE	        M6	1	14	D4	press
263.956	n/a	RESPONSE	        M6	1	16	E4	release
264.149	n/a	RESPONSE	        M6	1	14	D4	release
264.556	n/a	RESPONSE	        M6	1	12	C4	press
264.842	n/a	RESPONSE	        M6	1	17	F4	press
264.933	n/a	RESPONSE	        M6	1	12	C4	release
265.288	n/a	RESPONSE	        M6	1	21	A4	press
265.462	n/a	RESPONSE	        M6	1	17	F4	release
265.651	n/a	RESPONSE	        M6	1	19	G4	press
265.848	n/a	RESPONSE	        M6	1	21	A4	release
266.006	n/a	RESPONSE	        M6	1	17	F4	press
266.179	n/a	RESPONSE	        M6	1	19	G4	release
266.328	n/a	RESPONSE	        M6	1	16	E4	press
266.414	n/a	RESPONSE	        M6	1	17	F4	release
266.704	n/a	RESPONSE	        M6	1	17	F4	press
266.761	n/a	RESPONSE	        M6	1	16	E4	release
267.217	n/a	RESPONSE	        M6	1	17	F4	release
267.382	n/a	RESPONSE	        M6	1	12	C4	press
267.485	7.758	FIXCROSS	n/a	n/a	n/a	n/a	n/a
267.727	n/a	RESPONSE	        M6	1	17	F4	press
267.866	n/a	RESPONSE	        M6	1	12	C4	release
268.073	n/a	RESPONSE	        M6	1	19	G4	press
268.212	n/a	RESPONSE	        M6	1	17	F4	release
268.474	n/a	RESPONSE	        M6	1	19	G4	release
268.558	n/a	RESPONSE	        M6	1	21	A4	press
268.889	n/a	RESPONSE	        M6	1	19	G4	press
269.001	n/a	RESPONSE	        M6	1	21	A4	release
269.208	n/a	RESPONSE	        M6	1	17	F4	press
269.374	n/a	RESPONSE	        M6	1	19	G4	release
269.472	n/a	RESPONSE	        M6	1	16	E4	press
269.558	n/a	RESPONSE	        M6	1	17	F4	release
269.777	n/a	RESPONSE	        M6	1	17	F4	press
269.806	n/a	RESPONSE	        M6	1	16	E4	release
269.999	n/a	RESPONSE	        M6	1	17	F4	release
275.243	6.325	CUE_LISTEN	        M6	2	n/a	n/a	n/a
281.568	7.758	FIXCROSS	n/a	n/a	n/a	n/a	n/a
289.327	6.317	CUE_PLAYBACK_RIGHT_HAND	        M6	2	n/a	n/a	n/a
290.008	n/a	RESPONSE	        M6	2	12	C4	press
290.386	n/a	RESPONSE	        M6	2	17	F4	press
290.538	n/a	RESPONSE	        M6	2	12	C4	release
290.787	n/a	RESPONSE	        M6	2	21	A4	press
290.967	n/a	RESPONSE	        M6	2	17	F4	release
291.119	n/a	RESPONSE	        M6	2	23	B4	press
291.233	n/a	RESPONSE	        M6	2	21	A4	release
291.686	n/a	RESPONSE	        M6	2	23	B4	release
291.921	n/a	RESPONSE	        M6	2	24	C5	press
292.499	n/a	RESPONSE	        M6	2	22	A#4	press
292.809	n/a	RESPONSE	        M6	2	24	C5	release
292.838	n/a	RESPONSE	        M6	2	21	A4	press
293.021	n/a	RESPONSE	        M6	2	22	A#4	release
293.261	n/a	RESPONSE	        M6	2	19	G4	press
293.457	n/a	RESPONSE	        M6	2	21	A4	release
293.723	n/a	RESPONSE	        M6	2	19	G4	release
294.082	n/a	RESPONSE	        M6	2	12	C4	press
294.736	n/a	RESPONSE	        M6	2	17	F4	press
294.894	n/a	RESPONSE	        M6	2	17	F4	release
295.196	n/a	RESPONSE	        M6	2	12	C4	release
295.353	n/a	RESPONSE	        M6	2	12	C4	press
295.643	7.758	FIXCROSS	n/a	n/a	n/a	n/a	n/a
295.872	n/a	RESPONSE	        M6	2	16	E4	press
296.051	n/a	RESPONSE	        M6	2	12	C4	release
296.209	n/a	RESPONSE	        M6	2	16	E4	release
296.252	n/a	RESPONSE	        M6	2	12	C4	press
296.418	n/a	RESPONSE	        M6	2	12	C4	release
296.626	n/a	RESPONSE	        M6	2	12	C4	press
296.959	n/a	RESPONSE	        M6	2	16	E4	press
297.128	n/a	RESPONSE	        M6	2	12	C4	release
297.512	n/a	RESPONSE	        M6	2	19	G4	press
297.623	n/a	RESPONSE	        M6	2	16	E4	release
297.913	n/a	RESPONSE	        M6	2	22	A#4	press
297.969	n/a	RESPONSE	        M6	2	19	G4	release
298.287	n/a	RESPONSE	        M6	2	21	A4	press
298.428	n/a	RESPONSE	        M6	2	22	A#4	release
298.661	n/a	RESPONSE	        M6	2	19	G4	press
298.827	n/a	RESPONSE	        M6	2	21	A4	release
298.993	n/a	RESPONSE	        M6	2	17	F4	press
299.091	n/a	RESPONSE	        M6	2	19	G4	release
299.711	n/a	RESPONSE	        M6	2	17	F4	release
303.402	6.317	CUE_LISTEN	        M2	1	n/a	n/a	n/a
305.398	n/a	RESPONSE	        M2	1	00	C3	press
305.623	n/a	RESPONSE	        M2	1	00	C3	release
309.718	7.758	FIXCROSS	n/a	n/a	n/a	n/a	n/a
317.477	6.325	CUE_PLAYBACK_BOTH_HANDS	        M2	1	n/a	n/a	n/a
318.116	n/a	RESPONSE	        M2	1	24	C5	press
318.144	n/a	RESPONSE	        M2	1	07	G3	press
318.147	n/a	RESPONSE	        M2	1	00	C3	press
318.489	n/a	RESPONSE	        M2	1	17	F4	press
318.547	n/a	RESPONSE	        M2	1	00	C3	release
318.574	n/a	RESPONSE	        M2	1	24	C5	release
318.617	n/a	RESPONSE	        M2	1	07	G3	release
318.687	n/a	RESPONSE	        M2	1	17	F4	release
319.156	n/a	RESPONSE	        M2	1	24	C5	press
319.158	n/a	RESPONSE	        M2	1	00	C3	press
319.16	n/a	RESPONSE	        M2	1	07	G3	press
319.517	n/a	RESPONSE	        M2	1	19	G4	press
319.614	n/a	RESPONSE	        M2	1	24	C5	release
319.67	n/a	RESPONSE	        M2	1	00	C3	release
319.713	n/a	RESPONSE	        M2	1	07	G3	release
319.716	n/a	RESPONSE	        M2	1	19	G4	release
319.868	n/a	RESPONSE	        M2	1	19	G4	press
319.882	n/a	RESPONSE	        M2	1	00	C3	press
319.884	n/a	RESPONSE	        M2	1	07	G3	press
320.218	n/a	RESPONSE	        M2	1	17	F4	press
320.318	n/a	RESPONSE	        M2	1	00	C3	release
320.358	n/a	RESPONSE	        M2	1	07	G3	release
320.36	n/a	RESPONSE	        M2	1	19	G4	release
320.539	n/a	RESPONSE	        M2	1	16	E4	press
320.568	n/a	RESPONSE	        M2	1	07	G3	press
320.57	n/a	RESPONSE	        M2	1	00	C3	press
320.777	n/a	RESPONSE	        M2	1	17	F4	release
320.876	n/a	RESPONSE	        M2	1	17	F4	press
320.944	n/a	RESPONSE	        M2	1	16	E4	release
320.962	n/a	RESPONSE	        M2	1	00	C3	release
321.003	n/a	RESPONSE	        M2	1	07	G3	release
321.209	n/a	RESPONSE	        M2	1	19	G4	press
321.224	n/a	RESPONSE	        M2	1	07	G3	press
321.227	n/a	RESPONSE	        M2	1	00	C3	press
321.282	n/a	RESPONSE	        M2	1	17	F4	release
321.627	n/a	RESPONSE	        M2	1	19	G4	release
321.63	n/a	RESPONSE	        M2	1	00	C3	release
321.67	n/a	RESPONSE	        M2	1	07	G3	release
321.933	n/a	RESPONSE	        M2	1	00	C3	press
321.936	n/a	RESPONSE	        M2	1	07	G3	press
321.963	n/a	RESPONSE	        M2	1	24	C5	press
322.28	n/a	RESPONSE	        M2	1	19	G4	press
322.337	n/a	RESPONSE	        M2	1	24	C5	release
322.339	n/a	RESPONSE	        M2	1	00	C3	release
322.367	n/a	RESPONSE	        M2	1	07	G3	release
322.464	n/a	RESPONSE	        M2	1	19	G4	release
322.628	n/a	RESPONSE	        M2	1	19	G4	press
322.644	n/a	RESPONSE	        M2	1	07	G3	press
322.652	n/a	RESPONSE	        M2	1	00	C3	press
322.938	n/a	RESPONSE	        M2	1	17	F4	press
323.059	n/a	RESPONSE	        M2	1	19	G4	release
323.062	n/a	RESPONSE	        M2	1	00	C3	release
323.077	n/a	RESPONSE	        M2	1	07	G3	release
323.266	n/a	RESPONSE	        M2	1	16	E4	press
323.312	n/a	RESPONSE	        M2	1	07	G3	press
323.314	n/a	RESPONSE	        M2	1	00	C3	press
323.368	n/a	RESPONSE	        M2	1	17	F4	release
323.608	n/a	RESPONSE	        M2	1	14	D4	press
323.677	n/a	RESPONSE	        M2	1	00	C3	release
323.702	n/a	RESPONSE	        M2	1	16	E4	release
323.712	n/a	RESPONSE	        M2	1	07	G3	release
323.802	7.758	FIXCROSS	n/a	n/a	n/a	n/a	n/a
323.936	n/a	RESPONSE	        M2	1	12	C4	press
323.967	n/a	RESPONSE	        M2	1	00	C3	press
323.969	n/a	RESPONSE	        M2	1	07	G3	press
324.143	n/a	RESPONSE	        M2	1	14	D4	release
324.49	n/a	RESPONSE	        M2	1	00	C3	release
324.512	n/a	RESPONSE	        M2	1	12	C4	release
324.523	n/a	RESPONSE	        M2	1	07	G3	release
331.56	6.325	CUE_LISTEN	        M2	2	n/a	n/a	n/a
337.885	7.758	FIXCROSS	n/a	n/a	n/a	n/a	n/a
345.644	6.308	CUE_PLAYBACK_BOTH_HANDS	        M2	2	n/a	n/a	n/a
346.337	n/a	RESPONSE	        M2	2	07	G3	press
346.339	n/a	RESPONSE	        M2	2	00	C3	press
346.342	n/a	RESPONSE	        M2	2	12	C4	press
346.707	n/a	RESPONSE	        M2	2	14	D4	press
346.766	n/a	RESPONSE	        M2	2	12	C4	release
346.819	n/a	RESPONSE	        M2	2	00	C3	release
346.876	n/a	RESPONSE	        M2	2	07	G3	release
347.083	n/a	RESPONSE	        M2	2	07	G3	press
347.086	n/a	RESPONSE	        M2	2	16	E4	press
347.088	n/a	RESPONSE	        M2	2	00	C3	press
347.156	n/a	RESPONSE	        M2	2	14	D4	release
347.446	n/a	RESPONSE	        M2	2	14	D4	press
347.488	n/a	RESPONSE	        M2	2	16	E4	release
347.503	n/a	RESPONSE	        M2	2	00	C3	release
347.573	n/a	RESPONSE	        M2	2	07	G3	release
347.794	n/a	RESPONSE	        M2	2	16	E4	press
347.797	n/a	RESPONSE	        M2	2	07	G3	press
347.81	n/a	RESPONSE	        M2	2	00	C3	press
347.853	n/a	RESPONSE	        M2	2	14	D4	release
348.143	n/a	RESPONSE	        M2	2	17	F4	press
348.213	n/a	RESPONSE	        M2	2	16	E4	release
348.228	n/a	RESPONSE	        M2	2	00	C3	release
348.257	n/a	RESPONSE	        M2	2	07	G3	release
348.492	n/a	RESPONSE	        M2	2	19	G4	press
348.507	n/a	RESPONSE	        M2	2	00	C3	press
348.509	n/a	RESPONSE	        M2	2	07	G3	press
348.537	n/a	RESPONSE	        M2	2	17	F4	release
348.923	n/a	RESPONSE	        M2	2	19	G4	release
348.926	n/a	RESPONSE	        M2	2	00	C3	release
348.967	n/a	RESPONSE	        M2	2	07	G3	release
349.174	n/a	RESPONSE	        M2	2	16	E4	press
349.177	n/a	RESPONSE	        M2	2	07	G3	press
349.19	n/a	RESPONSE	        M2	2	00	C3	press
349.536	n/a	RESPONSE	        M2	2	19	G4	press
349.592	n/a	RESPONSE	        M2	2	00	C3	release
349.594	n/a	RESPONSE	        M2	2	16	E4	release
349.636	n/a	RESPONSE	        M2	2	07	G3	release
349.707	n/a	RESPONSE	        M2	2	19	G4	release
349.873	n/a	RESPONSE	        M2	2	19	G4	press
349.876	n/a	RESPONSE	        M2	2	07	G3	press
349.888	n/a	RESPONSE	        M2	2	00	C3	press
350.247	n/a	RESPONSE	        M2	2	17	F4	press
350.323	n/a	RESPONSE	        M2	2	00	C3	release
350.336	n/a	RESPONSE	        M2	2	19	G4	release
350.433	n/a	RESPONSE	        M2	2	07	G3	release
350.572	n/a	RESPONSE	        M2	2	16	E4	press
350.602	n/a	RESPONSE	        M2	2	07	G3	press
350.616	n/a	RESPONSE	        M2	2	00	C3	press
350.672	n/a	RESPONSE	        M2	2	17	F4	release
350.92	n/a	RESPONSE	        M2	2	14	D4	press
350.992	n/a	RESPONSE	        M2	2	07	G3	release
350.994	n/a	RESPONSE	        M2	2	00	C3	release
351.02	n/a	RESPONSE	        M2	2	16	E4	release
351.257	n/a	RESPONSE	        M2	2	12	C4	press
351.27	n/a	RESPONSE	        M2	2	07	G3	press
351.273	n/a	RESPONSE	        M2	2	00	C3	press
351.383	n/a	RESPONSE	        M2	2	14	D4	release
351.952	7.758	FIXCROSS	n/a	n/a	n/a	n/a	n/a
352.099	n/a	RESPONSE	        M2	2	12	C4	release
352.114	n/a	RESPONSE	        M2	2	00	C3	release
352.157	n/a	RESPONSE	        M2	2	07	G3	release
359.71	6.325	CUE_LISTEN	        M8	1	n/a	n/a	n/a
366.035	7.758	FIXCROSS	n/a	n/a	n/a	n/a	n/a
372.244	n/a	RESPONSE	        M8	1	12	C4	press
373.546	n/a	RESPONSE	        M8	1	12	C4	release
373.794	6.317	CUE_PLAYBACK_BOTH_HANDS	        M8	1	n/a	n/a	n/a
375.168	n/a	RESPONSE	        M8	1	16	E4	press
375.472	n/a	RESPONSE	        M8	1	19	G4	press
375.593	n/a	RESPONSE	        M8	1	16	E4	release
375.723	n/a	RESPONSE	        M8	1	23	B4	press
375.786	n/a	RESPONSE	        M8	1	19	G4	release
375.987	n/a	RESPONSE	        M8	1	23	B4	release
376.227	n/a	RESPONSE	        M8	1	23	B4	press
376.717	n/a	RESPONSE	        M8	1	09	A3	press
376.746	n/a	RESPONSE	        M8	1	18	F#4	press
376.898	n/a	RESPONSE	        M8	1	23	B4	release
376.996	n/a	RESPONSE	        M8	1	11	B3	press
377.108	n/a	RESPONSE	        M8	1	09	A3	release
377.314	n/a	RESPONSE	        M8	1	21	A4	press
377.329	n/a	RESPONSE	        M8	1	16	E4	press
377.427	n/a	RESPONSE	        M8	1	18	F#4	release
377.469	n/a	RESPONSE	        M8	1	11	B3	release
377.58	n/a	RESPONSE	        M8	1	16	E4	release
377.912	n/a	RESPONSE	        M8	1	16	E4	press
378.504	n/a	RESPONSE	        M8	1	15	D#4	press
378.507	n/a	RESPONSE	        M8	1	23	B4	press
378.576	n/a	RESPONSE	        M8	1	16	E4	release
378.607	n/a	RESPONSE	        M8	1	21	A4	release
379.087	n/a	RESPONSE	        M8	1	11	B3	press
379.184	n/a	RESPONSE	        M8	1	15	D#4	release
379.793	n/a	RESPONSE	        M8	1	21	A4	press
379.943	n/a	RESPONSE	        M8	1	23	B4	release
380.083	n/a	RESPONSE	        M8	1	19	G4	press
380.11	7.758	FIXCROSS	n/a	n/a	n/a	n/a	n/a
380.267	n/a	RESPONSE	        M8	1	21	A4	release
380.406	n/a	RESPONSE	        M8	1	18	F#4	press
380.53	n/a	RESPONSE	        M8	1	19	G4	release
381.04	n/a	RESPONSE	        M8	1	11	B3	release
381.097	n/a	RESPONSE	        M8	1	18	F#4	release
387.868	6.325	CUE_LISTEN	        M8	2	n/a	n/a	n/a
394.194	7.758	FIXCROSS	n/a	n/a	n/a	n/a	n/a
401.952	6.317	CUE_PLAYBACK_BOTH_HANDS	        M8	2	n/a	n/a	n/a
402.637	n/a	RESPONSE	        M8	2	16	E4	press
402.922	n/a	RESPONSE	        M8	2	19	G4	press
403.049	n/a	RESPONSE	        M8	2	16	E4	release
403.193	n/a	RESPONSE	        M8	2	23	B4	press
403.242	n/a	RESPONSE	        M8	2	19	G4	release
403.476	n/a	RESPONSE	        M8	2	23	B4	release
403.732	n/a	RESPONSE	        M8	2	23	B4	press
404.24	n/a	RESPONSE	        M8	2	09	A3	press
404.272	n/a	RESPONSE	        M8	2	18	F#4	press
404.396	n/a	RESPONSE	        M8	2	23	B4	release
404.532	n/a	RESPONSE	        M8	2	12	C4	press
404.62	n/a	RESPONSE	        M8	2	09	A3	release
404.847	n/a	RESPONSE	        M8	2	21	A4	press
404.856	n/a	RESPONSE	        M8	2	16	E4	press
404.924	n/a	RESPONSE	        M8	2	18	F#4	release
404.963	n/a	RESPONSE	        M8	2	12	C4	release
405.167	n/a	RESPONSE	        M8	2	16	E4	release
405.399	n/a	RESPONSE	        M8	2	16	E4	press
405.912	n/a	RESPONSE	        M8	2	15	D#4	press
405.934	n/a	RESPONSE	        M8	2	23	B4	press
405.957	n/a	RESPONSE	        M8	2	16	E4	release
406.02	n/a	RESPONSE	        M8	2	21	A4	release
406.42	n/a	RESPONSE	        M8	2	11	B3	press
406.573	n/a	RESPONSE	        M8	2	15	D#4	release
407.047	n/a	RESPONSE	        M8	2	21	A4	press
407.169	n/a	RESPONSE	        M8	2	23	B4	release
407.336	n/a	RESPONSE	        M8	2	19	G4	press
407.46	n/a	RESPONSE	        M8	2	21	A4	release
407.627	n/a	RESPONSE	        M8	2	18	F#4	press
407.697	n/a	RESPONSE	        M8	2	19	G4	release
407.904	n/a	RESPONSE	        M8	2	19	G4	press
407.947	n/a	RESPONSE	        M8	2	18	F#4	release
408.212	n/a	RESPONSE	        M8	2	12	C4	press
408.268	7.758	FIXCROSS	n/a	n/a	n/a	n/a	n/a
408.279	n/a	RESPONSE	        M8	2	11	B3	release
408.707	n/a	RESPONSE	        M8	2	16	E4	press
408.709	n/a	RESPONSE	        M8	2	11	B3	press
408.806	n/a	RESPONSE	        M8	2	12	C4	release
408.972	n/a	RESPONSE	        M8	2	19	G4	release
409.11	n/a	RESPONSE	        M8	2	07	G3	press
409.263	n/a	RESPONSE	        M8	2	11	B3	release
409.484	n/a	RESPONSE	        M8	2	04	E3	press
409.623	n/a	RESPONSE	        M8	2	07	G3	release
410.527	n/a	RESPONSE	        M8	2	16	E4	release
410.542	n/a	RESPONSE	        M8	2	04	E3	release
416.027	6.317	CUE_LISTEN	        M4	1	n/a	n/a	n/a
419.733	n/a	RESPONSE	        M4	1	04	E3	press
421.843	n/a	RESPONSE	        M4	1	04	E3	release
422.344	7.758	FIXCROSS	n/a	n/a	n/a	n/a	n/a
430.102	6.325	CUE_PLAYBACK_RIGHT_HAND	        M4	1	n/a	n/a	n/a
430.749	n/a	RESPONSE	        M4	1	19	G4	press
431.024	n/a	RESPONSE	        M4	1	18	F#4	press
431.053	n/a	RESPONSE	        M4	1	19	G4	release
431.247	n/a	RESPONSE	        M4	1	19	G4	press
431.289	n/a	RESPONSE	        M4	1	18	F#4	release
431.717	n/a	RESPONSE	        M4	1	23	B4	press
431.759	n/a	RESPONSE	        M4	1	19	G4	release
431.953	n/a	RESPONSE	        M4	1	24	C5	press
432.023	n/a	RESPONSE	        M4	1	23	B4	release
432.203	n/a	RESPONSE	        M4	1	23	B4	press
432.259	n/a	RESPONSE	        M4	1	24	C5	release
433.852	n/a	RESPONSE	        M4	1	18	F#4	press
433.953	n/a	RESPONSE	        M4	1	23	B4	release
434.058	n/a	RESPONSE	        M4	1	16	E4	press
434.118	n/a	RESPONSE	        M4	1	18	F#4	release
434.359	n/a	RESPONSE	        M4	1	18	F#4	press
434.399	n/a	RESPONSE	        M4	1	16	E4	release
434.798	n/a	RESPONSE	        M4	1	19	G4	press
434.866	n/a	RESPONSE	        M4	1	18	F#4	release
434.949	n/a	RESPONSE	        M4	1	21	A4	press
434.988	n/a	RESPONSE	        M4	1	19	G4	release
435.226	n/a	RESPONSE	        M4	1	19	G4	press
435.323	n/a	RESPONSE	        M4	1	21	A4	release
436.229	n/a	RESPONSE	        M4	1	19	G4	release
436.427	7.758	FIXCROSS	n/a	n/a	n/a	n/a	n/a
440.788	n/a	RESPONSE	        M4	1	04	E3	press
441.917	n/a	RESPONSE	        M4	1	04	E3	release
444.185	6.317	CUE_LISTEN	        M4	2	n/a	n/a	n/a
450.502	7.758	FIXCROSS	n/a	n/a	n/a	n/a	n/a
458.26	6.317	CUE_PLAYBACK_RIGHT_HAND	        M4	2	n/a	n/a	n/a
458.982	n/a	RESPONSE	        M4	2	23	B4	press
460.014	n/a	RESPONSE	        M4	2	18	F#4	press
460.154	n/a	RESPONSE	        M4	2	23	B4	release
461.532	n/a	RESPONSE	        M4	2	23	B4	press
461.629	n/a	RESPONSE	        M4	2	18	F#4	release
462.524	n/a	RESPONSE	        M4	2	21	A4	press
462.654	n/a	RESPONSE	        M4	2	23	B4	release
463.974	n/a	RESPONSE	        M4	2	21	A4	release
464.577	7.758	FIXCROSS	n/a	n/a	n/a	n/a	n/a
469.887	n/a	RESPONSE	        M4	2	04	E3	press
470.204	n/a	RESPONSE	        M4	2	04	E3	release
472.335	6.325	CUE_LISTEN	        M3	1	n/a	n/a	n/a
478.66	7.758	FIXCROSS	n/a	n/a	n/a	n/a	n/a
486.419	6.317	CUE_PLAYBACK_RIGHT_HAND	        M3	1	n/a	n/a	n/a
487.223	n/a	RESPONSE	        M3	1	19	G4	press
487.582	n/a	RESPONSE	        M3	1	19	G4	release
487.734	n/a	RESPONSE	        M3	1	16	E4	press
487.955	n/a	RESPONSE	        M3	1	16	E4	release
488.247	n/a	RESPONSE	        M3	1	16	E4	press
488.535	n/a	RESPONSE	        M3	1	16	E4	release
488.717	n/a	RESPONSE	        M3	1	17	F4	press
488.992	n/a	RESPONSE	        M3	1	17	F4	release
489.254	n/a	RESPONSE	        M3	1	14	D4	press
489.475	n/a	RESPONSE	        M3	1	14	D4	release
489.752	n/a	RESPONSE	        M3	1	14	D4	press
489.959	n/a	RESPONSE	        M3	1	14	D4	release
490.208	n/a	RESPONSE	        M3	1	12	C4	press
490.458	n/a	RESPONSE	        M3	1	16	E4	press
490.555	n/a	RESPONSE	        M3	1	12	C4	release
490.68	n/a	RESPONSE	        M3	1	19	G4	press
490.683	n/a	RESPONSE	        M3	1	16	E4	release
491.068	n/a	RESPONSE	        M3	1	19	G4	release
492.735	7.758	FIXCROSS	n/a	n/a	n/a	n/a	n/a
500.494	6.317	CUE_LISTEN	        M3	2	n/a	n/a	n/a
506.81	7.759	FIXCROSS	n/a	n/a	n/a	n/a	n/a
514.569	6.325	CUE_PLAYBACK_RIGHT_HAND	        M3	2	n/a	n/a	n/a
515.139	n/a	RESPONSE	        M3	2	19	G4	press
515.412	n/a	RESPONSE	        M3	2	19	G4	release
515.632	n/a	RESPONSE	        M3	2	16	E4	press
515.857	n/a	RESPONSE	        M3	2	16	E4	release
516.15	n/a	RESPONSE	        M3	2	16	E4	press
516.398	n/a	RESPONSE	        M3	2	16	E4	release
516.677	n/a	RESPONSE	        M3	2	17	F4	press
516.912	n/a	RESPONSE	        M3	2	17	F4	release
517.202	n/a	RESPONSE	        M3	2	14	D4	press
517.409	n/a	RESPONSE	        M3	2	14	D4	release
517.727	n/a	RESPONSE	        M3	2	14	D4	press
517.948	n/a	RESPONSE	        M3	2	14	D4	release
518.268	n/a	RESPONSE	        M3	2	12	C4	press
518.514	n/a	RESPONSE	        M3	2	16	E4	press
518.57	n/a	RESPONSE	        M3	2	12	C4	release
518.805	n/a	RESPONSE	        M3	2	12	C4	press
518.82	n/a	RESPONSE	        M3	2	16	E4	release
519.317	n/a	RESPONSE	        M3	2	12	C4	release
520.894	7.758	FIXCROSS	n/a	n/a	n/a	n/a	n/a
528.652	6.317	CUE_LISTEN	        M5	1	n/a	n/a	n/a
534.969	7.758	FIXCROSS	n/a	n/a	n/a	n/a	n/a
542.727	6.317	CUE_PLAYBACK_BOTH_HANDS	        M5	1	n/a	n/a	n/a
543.337	n/a	RESPONSE	        M5	1	22	A#4	press
543.345	n/a	RESPONSE	        M5	1	07	G3	press
543.955	n/a	RESPONSE	        M5	1	21	A4	press
544.053	n/a	RESPONSE	        M5	1	22	A#4	release
544.439	n/a	RESPONSE	        M5	1	19	G4	press
544.498	n/a	RESPONSE	        M5	1	21	A4	release
545.009	n/a	RESPONSE	        M5	1	21	A4	press
545.012	n/a	RESPONSE	        M5	1	05	F3	press
545.079	n/a	RESPONSE	        M5	1	19	G4	release
545.103	n/a	RESPONSE	        M5	1	07	G3	release
545.557	n/a	RESPONSE	        M5	1	14	D4	press
545.56	n/a	RESPONSE	        M5	1	12	C4	press
545.672	n/a	RESPONSE	        M5	1	12	C4	release
545.795	n/a	RESPONSE	        M5	1	14	D4	release
546.178	n/a	RESPONSE	        M5	1	14	D4	press
546.354	n/a	RESPONSE	        M5	1	21	A4	release
546.787	n/a	RESPONSE	        M5	1	17	F4	press
546.79	n/a	RESPONSE	        M5	1	03	D#3	press
546.86	n/a	RESPONSE	        M5	1	14	D4	release
546.9	n/a	RESPONSE	        M5	1	05	F3	release
547.317	n/a	RESPONSE	        M5	1	03	D#3	release
547.33	n/a	RESPONSE	        M5	1	17	F4	release
547.482	n/a	RESPONSE	        M5	1	17	F4	press
547.484	n/a	RESPONSE	        M5	1	03	D#3	press
547.622	n/a	RESPONSE	        M5	1	04	E3	press
547.678	n/a	RESPONSE	        M5	1	03	D#3	release
547.693	n/a	RESPONSE	        M5	1	04	E3	release
547.873	n/a	RESPONSE	        M5	1	17	F4	release
548.245	n/a	RESPONSE	        M5	1	19	G4	press
548.26	n/a	RESPONSE	        M5	1	03	D#3	press
548.825	n/a	RESPONSE	        M5	1	07	G3	press
548.909	n/a	RESPONSE	        M5	1	19	G4	release
549.044	7.758	FIXCROSS	n/a	n/a	n/a	n/a	n/a
549.144	n/a	RESPONSE	        M5	1	09	A3	press
549.228	n/a	RESPONSE	        M5	1	07	G3	release
549.49	n/a	RESPONSE	        M5	1	09	A3	release
549.547	n/a	RESPONSE	        M5	1	10	A#3	press
549.837	n/a	RESPONSE	        M5	1	12	C4	press
549.893	n/a	RESPONSE	        M5	1	10	A#3	release
550.142	n/a	RESPONSE	        M5	1	14	D4	press
550.157	n/a	RESPONSE	        M5	1	02	D3	press
550.185	n/a	RESPONSE	        M5	1	12	C4	release
550.202	n/a	RESPONSE	        M5	1	03	D#3	release
552.033	n/a	RESPONSE	        M5	1	02	D3	release
552.035	n/a	RESPONSE	        M5	1	14	D4	release
556.802	6.325	CUE_LISTEN	        M5	2	n/a	n/a	n/a
563.127	7.758	FIXCROSS	n/a	n/a	n/a	n/a	n/a
567.008	n/a	RESPONSE	        M5	2	09	A3	press
567.477	n/a	RESPONSE	        M5	2	09	A3	release
569.032	n/a	RESPONSE	        M5	2	07	G3	press
569.115	n/a	RESPONSE	        M5	2	10	A#3	press
569.449	n/a	RESPONSE	        M5	2	10	A#3	release
569.489	n/a	RESPONSE	        M5	2	07	G3	release
570.886	6.317	CUE_PLAYBACK_BOTH_HANDS	        M5	2	n/a	n/a	n/a
571.649	n/a	RESPONSE	        M5	2	15	D#4	press
571.663	n/a	RESPONSE	        M5	2	07	G3	press
571.665	n/a	RESPONSE	        M5	2	10	A#3	press
572.229	n/a	RESPONSE	        M5	2	17	F4	press
572.272	n/a	RESPONSE	        M5	2	15	D#4	release
572.534	n/a	RESPONSE	        M5	2	15	D#4	press
572.62	n/a	RESPONSE	        M5	2	17	F4	release
572.81	n/a	RESPONSE	        M5	2	14	D4	press
572.813	n/a	RESPONSE	        M5	2	09	A3	press
572.849	n/a	RESPONSE	        M5	2	07	G3	release
572.852	n/a	RESPONSE	        M5	2	15	D#4	release
572.874	n/a	RESPONSE	        M5	2	10	A#3	release
573.138	n/a	RESPONSE	        M5	2	12	C4	press
573.199	n/a	RESPONSE	        M5	2	14	D4	release
573.433	n/a	RESPONSE	        M5	2	14	D4	press
573.442	n/a	RESPONSE	        M5	2	10	A#3	press
573.465	n/a	RESPONSE	        M5	2	12	C4	release
573.528	n/a	RESPONSE	        M5	2	09	A3	release
574.06	n/a	RESPONSE	        M5	2	15	D#4	press
574.132	n/a	RESPONSE	        M5	2	14	D4	release
574.348	n/a	RESPONSE	        M5	2	14	D4	press
574.387	n/a	RESPONSE	        M5	2	15	D#4	release
574.658	n/a	RESPONSE	        M5	2	07	G3	press
574.66	n/a	RESPONSE	        M5	2	12	C4	press
574.728	n/a	RESPONSE	        M5	2	14	D4	release
574.737	n/a	RESPONSE	        M5	2	10	A#3	release
574.97	n/a	RESPONSE	        M5	2	14	D4	press
575.024	n/a	RESPONSE	        M5	2	12	C4	release
575.545	n/a	RESPONSE	        M5	2	14	D4	release
576.025	n/a	RESPONSE	        M5	2	07	G3	release
577.109	n/a	RESPONSE	        M5	2	09	A3	press
577.112	n/a	RESPONSE	        M5	2	12	C4	press
577.202	7.758	FIXCROSS	n/a	n/a	n/a	n/a	n/a
578.597	n/a	RESPONSE	        M5	2	12	C4	release
578.667	n/a	RESPONSE	        M5	2	09	A3	release
584.96	6.317	CUE_LISTEN	        M1	1	n/a	n/a	n/a
591.277	7.758	FIXCROSS	n/a	n/a	n/a	n/a	n/a
599.036	6.325	CUE_PLAYBACK_RIGHT_HAND	        M1	1	n/a	n/a	n/a
599.623	n/a	RESPONSE	        M1	1	21	A4	press
599.844	n/a	RESPONSE	        M1	1	21	A4	release
599.997	n/a	RESPONSE	        M1	1	21	A4	press
600.179	n/a	RESPONSE	        M1	1	21	A4	release
600.363	n/a	RESPONSE	        M1	1	21	A4	press
600.832	n/a	RESPONSE	        M1	1	21	A4	release
601.067	n/a	RESPONSE	        M1	1	21	A4	press
601.274	n/a	RESPONSE	        M1	1	21	A4	release
601.44	n/a	RESPONSE	        M1	1	21	A4	press
601.62	n/a	RESPONSE	        M1	1	21	A4	release
601.802	n/a	RESPONSE	        M1	1	21	A4	press
602.187	n/a	RESPONSE	        M1	1	21	A4	release
602.49	n/a	RESPONSE	        M1	1	21	A4	press
602.842	n/a	RESPONSE	        M1	1	24	C5	press
602.895	n/a	RESPONSE	        M1	1	21	A4	release
603.182	n/a	RESPONSE	        M1	1	17	F4	press
603.22	n/a	RESPONSE	        M1	1	24	C5	release
603.529	n/a	RESPONSE	        M1	1	19	G4	press
603.673	n/a	RESPONSE	        M1	1	17	F4	release
603.862	n/a	RESPONSE	        M1	1	21	A4	press
603.893	n/a	RESPONSE	        M1	1	19	G4	release
604.539	n/a	RESPONSE	        M1	1	21	A4	release
605.36	7.759	FIXCROSS	n/a	n/a	n/a	n/a	n/a
613.119	6.317	CUE_LISTEN	        M1	2	n/a	n/a	n/a
619.436	7.758	FIXCROSS	n/a	n/a	n/a	n/a	n/a
627.194	6.325	CUE_PLAYBACK_RIGHT_HAND	        M1	2	n/a	n/a	n/a
628.155	n/a	RESPONSE	        M1	2	22	A#4	press
628.338	n/a	RESPONSE	        M1	2	22	A#4	release
628.489	n/a	RESPONSE	        M1	2	22	A#4	press
628.682	n/a	RESPONSE	        M1	2	22	A#4	release
628.862	n/a	RESPONSE	        M1	2	22	A#4	press
629.028	n/a	RESPONSE	        M1	2	22	A#4	release
629.208	n/a	RESPONSE	        M1	2	22	A#4	press
629.374	n/a	RESPONSE	        M1	2	22	A#4	release
629.595	n/a	RESPONSE	        M1	2	22	A#4	press
629.818	n/a	RESPONSE	        M1	2	22	A#4	release
629.928	n/a	RESPONSE	        M1	2	21	A4	press
630.122	n/a	RESPONSE	        M1	2	21	A4	release
630.292	n/a	RESPONSE	        M1	2	21	A4	press
630.473	n/a	RESPONSE	        M1	2	21	A4	release
630.664	n/a	RESPONSE	        M1	2	21	A4	press
630.847	n/a	RESPONSE	        M1	2	21	A4	release
630.983	n/a	RESPONSE	        M1	2	24	C5	press
631.204	n/a	RESPONSE	        M1	2	24	C5	release
631.329	n/a	RESPONSE	        M1	2	24	C5	press
631.578	n/a	RESPONSE	        M1	2	24	C5	release
631.717	n/a	RESPONSE	        M1	2	16	E4	press
631.965	n/a	RESPONSE	        M1	2	16	E4	release
632.284	n/a	RESPONSE	        M1	2	24	C5	press
632.559	n/a	RESPONSE	        M1	2	24	C5	release
632.679	n/a	RESPONSE	        M1	2	24	C5	press
633.283	n/a	RESPONSE	        M1	2	24	C5	release
633.519	7.758	FIXCROSS	n/a	n/a	n/a	n/a	n/a
633.537	n/a	RESPONSE	        M1	2	21	A4	press
633.764	n/a	RESPONSE	        M1	2	21	A4	release
635.748	n/a	RESPONSE	        M1	2	22	A#4	press
635.962	n/a	RESPONSE	        M1	2	22	A#4	release
636.758	n/a	RESPONSE	        M1	2	19	G4	press
637.088	n/a	RESPONSE	        M1	2	19	G4	release
637.268	n/a	RESPONSE	        M1	2	17	F4	press
638.273	n/a	RESPONSE	        M1	2	17	F4	release
640.727	n/a	RESPONSE	        M1	2	17	F4	press
641.019	n/a	RESPONSE	        M1	2	17	F4	release
641.277	6.317	CUE_LISTEN	        M7	1	n/a	n/a	n/a
643.943	n/a	RESPONSE	        M7	1	07	G3	press
645.242	n/a	RESPONSE	        M7	1	07	G3	release
647.594	7.758	FIXCROSS	n/a	n/a	n/a	n/a	n/a
647.668	n/a	RESPONSE	        M7	1	04	E3	press
654.409	n/a	RESPONSE	        M7	1	04	E3	release
655.352	6.317	CUE_PLAYBACK_BOTH_HANDS	        M7	1	n/a	n/a	n/a
656.073	n/a	RESPONSE	        M7	1	00	C3	press
656.094	n/a	RESPONSE	        M7	1	12	C4	press
656.477	n/a	RESPONSE	        M7	1	07	G3	press
656.479	n/a	RESPONSE	        M7	1	14	D4	press
656.535	n/a	RESPONSE	        M7	1	00	C3	release
656.593	n/a	RESPONSE	        M7	1	12	C4	release
656.83	n/a	RESPONSE	        M7	1	04	E3	press
656.86	n/a	RESPONSE	        M7	1	16	E4	press
656.943	n/a	RESPONSE	        M7	1	07	G3	release
656.972	n/a	RESPONSE	        M7	1	14	D4	release
657.22	n/a	RESPONSE	        M7	1	07	G3	press
657.235	n/a	RESPONSE	        M7	1	12	C4	press
657.292	n/a	RESPONSE	        M7	1	04	E3	release
657.334	n/a	RESPONSE	        M7	1	16	E4	release
657.418	n/a	RESPONSE	        M7	1	07	G3	release
657.447	n/a	RESPONSE	        M7	1	12	C4	release
657.599	n/a	RESPONSE	        M7	1	00	C3	press
657.614	n/a	RESPONSE	        M7	1	12	C4	press
657.973	n/a	RESPONSE	        M7	1	07	G3	press
657.988	n/a	RESPONSE	        M7	1	14	D4	press
658.03	n/a	RESPONSE	        M7	1	00	C3	release
658.088	n/a	RESPONSE	        M7	1	12	C4	release
658.335	n/a	RESPONSE	        M7	1	04	E3	press
658.35	n/a	RESPONSE	        M7	1	16	E4	press
658.448	n/a	RESPONSE	        M7	1	07	G3	release
658.45	n/a	RESPONSE	        M7	1	14	D4	release
658.698	n/a	RESPONSE	        M7	1	07	G3	press
658.713	n/a	RESPONSE	        M7	1	12	C4	press
658.769	n/a	RESPONSE	        M7	1	16	E4	release
658.812	n/a	RESPONSE	        M7	1	04	E3	release
658.895	n/a	RESPONSE	        M7	1	07	G3	release
658.91	n/a	RESPONSE	        M7	1	12	C4	release
659.077	n/a	RESPONSE	        M7	1	16	E4	press
659.079	n/a	RESPONSE	        M7	1	00	C3	press
659.437	n/a	RESPONSE	        M7	1	17	F4	press
659.439	n/a	RESPONSE	        M7	1	07	G3	press
659.535	n/a	RESPONSE	        M7	1	00	C3	release
659.539	n/a	RESPONSE	        M7	1	16	E4	release
659.854	n/a	RESPONSE	        M7	1	04	E3	press
659.858	n/a	RESPONSE	        M7	1	19	G4	press
659.925	n/a	RESPONSE	        M7	1	17	F4	release
659.928	n/a	RESPONSE	        M7	1	07	G3	release
660.232	n/a	RESPONSE	        M7	1	07	G3	press
660.302	n/a	RESPONSE	        M7	1	04	E3	release
660.413	n/a	RESPONSE	        M7	1	19	G4	release
660.469	n/a	RESPONSE	        M7	1	07	G3	release
660.61	n/a	RESPONSE	        M7	1	00	C3	press
660.637	n/a	RESPONSE	        M7	1	16	E4	press
660.982	n/a	RESPONSE	        M7	1	17	F4	press
660.998	n/a	RESPONSE	        M7	1	07	G3	press
661.053	n/a	RESPONSE	        M7	1	00	C3	release
661.068	n/a	RESPONSE	        M7	1	16	E4	release
661.346	n/a	RESPONSE	        M7	1	04	E3	press
661.4	n/a	RESPONSE	        M7	1	19	G4	press
661.458	n/a	RESPONSE	        M7	1	17	F4	release
661.46	n/a	RESPONSE	        M7	1	07	G3	release
661.669	7.758	FIXCROSS	n/a	n/a	n/a	n/a	n/a
661.762	n/a	RESPONSE	        M7	1	07	G3	press
661.804	n/a	RESPONSE	        M7	1	04	E3	release
661.943	n/a	RESPONSE	        M7	1	19	G4	release
661.999	n/a	RESPONSE	        M7	1	07	G3	release
665.49	n/a	RESPONSE	        M7	1	19	G4	press
665.897	n/a	RESPONSE	        M7	1	19	G4	release
669.427	6.325	CUE_LISTEN	        M7	2	n/a	n/a	n/a
675.752	7.758	FIXCROSS	n/a	n/a	n/a	n/a	n/a
683.511	6.317	CUE_PLAYBACK_BOTH_HANDS	        M7	2	n/a	n/a	n/a
684.668	n/a	RESPONSE	        M7	2	00	C3	press
684.676	n/a	RESPONSE	        M7	2	19	G4	press
684.933	n/a	RESPONSE	        M7	2	21	A4	press
685.032	n/a	RESPONSE	        M7	2	19	G4	release
685.168	n/a	RESPONSE	        M7	2	19	G4	press
685.176	n/a	RESPONSE	        M7	2	07	G3	press
685.217	n/a	RESPONSE	        M7	2	00	C3	release
685.233	n/a	RESPONSE	        M7	2	21	A4	release
685.409	n/a	RESPONSE	        M7	2	17	F4	press
685.573	n/a	RESPONSE	        M7	2	19	G4	release
685.627	n/a	RESPONSE	        M7	2	04	E3	press
685.658	n/a	RESPONSE	        M7	2	16	E4	press
685.735	n/a	RESPONSE	        M7	2	07	G3	release
685.818	n/a	RESPONSE	        M7	2	17	F4	release
686.067	n/a	RESPONSE	        M7	2	07	G3	press
686.075	n/a	RESPONSE	        M7	2	12	C4	press
686.115	n/a	RESPONSE	        M7	2	04	E3	release
686.163	n/a	RESPONSE	        M7	2	16	E4	release
686.31	n/a	RESPONSE	        M7	2	12	C4	release
686.313	n/a	RESPONSE	        M7	2	07	G3	release
686.508	n/a	RESPONSE	        M7	2	00	C3	press
686.534	n/a	RESPONSE	        M7	2	19	G4	press
686.744	n/a	RESPONSE	        M7	2	21	A4	press
686.76	n/a	RESPONSE	        M7	2	19	G4	release
686.953	n/a	RESPONSE	        M7	2	19	G4	press
686.969	n/a	RESPONSE	        M7	2	07	G3	press
687.01	n/a	RESPONSE	        M7	2	00	C3	release
687.053	n/a	RESPONSE	        M7	2	21	A4	release
687.18	n/a	RESPONSE	        M7	2	17	F4	press
687.33	n/a	RESPONSE	        M7	2	19	G4	release
687.373	n/a	RESPONSE	        M7	2	04	E3	press
687.404	n/a	RESPONSE	        M7	2	16	E4	press
687.472	n/a	RESPONSE	        M7	2	07	G3	release
687.612	n/a	RESPONSE	        M7	2	17	F4	release
687.804	n/a	RESPONSE	        M7	2	07	G3	press
687.806	n/a	RESPONSE	        M7	2	12	C4	press
687.889	n/a	RESPONSE	        M7	2	16	E4	release
687.892	n/a	RESPONSE	        M7	2	04	E3	release
688.139	n/a	RESPONSE	        M7	2	12	C4	release
688.182	n/a	RESPONSE	        M7	2	07	G3	release
688.815	n/a	RESPONSE	        M7	2	12	C4	press
688.844	n/a	RESPONSE	        M7	2	00	C3	press
689.164	n/a	RESPONSE	        M7	2	12	C4	release
689.177	n/a	RESPONSE	        M7	2	07	G3	press
689.247	n/a	RESPONSE	        M7	2	00	C3	release
689.539	n/a	RESPONSE	        M7	2	00	C3	press
689.579	n/a	RESPONSE	        M7	2	12	C4	press
689.583	n/a	RESPONSE	        M7	2	07	G3	release
689.827	7.758	FIXCROSS	n/a	n/a	n/a	n/a	n/a
689.925	n/a	RESPONSE	        M7	2	12	C4	release
689.968	n/a	RESPONSE	        M7	2	00	C3	release
697.586	6.317	CUE_LISTEN	        M4	1	n/a	n/a	n/a
703.902	7.758	FIXCROSS	n/a	n/a	n/a	n/a	n/a
704.904	n/a	RESPONSE	        M4	1	04	E3	press
705.048	n/a	RESPONSE	        M4	1	16	E4	press
705.418	n/a	RESPONSE	        M4	1	16	E4	release
705.592	n/a	RESPONSE	        M4	1	04	E3	release
711.661	6.325	CUE_PLAYBACK_BOTH_HANDS	        M4	1	n/a	n/a	n/a
712.674	n/a	RESPONSE	        M4	1	04	E3	press
712.685	n/a	RESPONSE	        M4	1	16	E4	press
713.202	n/a	RESPONSE	        M4	1	11	B3	press
713.225	n/a	RESPONSE	        M4	1	19	G4	press
713.272	n/a	RESPONSE	        M4	1	18	F#4	press
713.298	n/a	RESPONSE	        M4	1	04	E3	release
713.306	n/a	RESPONSE	        M4	1	16	E4	release
713.329	n/a	RESPONSE	        M4	1	19	G4	release
713.48	n/a	RESPONSE	        M4	1	19	G4	press
713.573	n/a	RESPONSE	        M4	1	18	F#4	release
714.089	n/a	RESPONSE	        M4	1	07	G3	press
714.092	n/a	RESPONSE	        M4	1	23	B4	press
714.1	n/a	RESPONSE	        M4	1	16	E4	press
714.168	n/a	RESPONSE	        M4	1	19	G4	release
714.176	n/a	RESPONSE	        M4	1	11	B3	release
714.33	n/a	RESPONSE	        M4	1	24	C5	press
714.399	n/a	RESPONSE	        M4	1	23	B4	release
714.555	n/a	RESPONSE	        M4	1	23	B4	press
714.617	n/a	RESPONSE	        M4	1	11	B3	press
714.648	n/a	RESPONSE	        M4	1	24	C5	release
714.686	n/a	RESPONSE	        M4	1	07	G3	release
714.703	n/a	RESPONSE	        M4	1	16	E4	release
715.074	n/a	RESPONSE	        M4	1	04	E3	press
715.088	n/a	RESPONSE	        M4	1	16	E4	press
715.142	n/a	RESPONSE	        M4	1	11	B3	release
715.535	n/a	RESPONSE	        M4	1	11	B3	press
715.635	n/a	RESPONSE	        M4	1	16	E4	release
715.643	n/a	RESPONSE	        M4	1	04	E3	release
716.057	n/a	RESPONSE	        M4	1	14	D4	press
716.188	n/a	RESPONSE	        M4	1	07	G3	press
716.202	n/a	RESPONSE	        M4	1	11	B3	release
716.465	n/a	RESPONSE	        M4	1	07	G3	release
716.535	n/a	RESPONSE	        M4	1	11	B3	press
716.579	n/a	RESPONSE	        M4	1	14	D4	release
717.09	n/a	RESPONSE	        M4	1	14	D4	press
717.093	n/a	RESPONSE	        M4	1	02	D3	press
717.106	n/a	RESPONSE	        M4	1	18	F#4	press
717.109	n/a	RESPONSE	        M4	1	04	E3	press
717.112	n/a	RESPONSE	        M4	1	11	B3	release
717.222	n/a	RESPONSE	        M4	1	04	E3	release
717.496	n/a	RESPONSE	        M4	1	23	B4	release
717.746	n/a	RESPONSE	        M4	1	16	E4	press
717.802	n/a	RESPONSE	        M4	1	18	F#4	release
717.804	n/a	RESPONSE	        M4	1	11	B3	press
717.875	n/a	RESPONSE	        M4	1	02	D3	release
717.944	n/a	RESPONSE	        M4	1	14	D4	release
717.986	7.767	FIXCROSS	n/a	n/a	n/a	n/a	n/a
718.013	n/a	RESPONSE	        M4	1	18	F#4	press
718.042	n/a	RESPONSE	        M4	1	16	E4	release
719.074	n/a	RESPONSE	        M4	1	07	G3	press
719.076	n/a	RESPONSE	        M4	1	19	G4	press
719.093	n/a	RESPONSE	        M4	1	14	D4	press
719.12	n/a	RESPONSE	        M4	1	18	F#4	release
719.189	n/a	RESPONSE	        M4	1	11	B3	release
719.33	n/a	RESPONSE	        M4	1	21	A4	press
719.398	n/a	RESPONSE	        M4	1	19	G4	release
719.58	n/a	RESPONSE	        M4	1	19	G4	press
719.62	n/a	RESPONSE	        M4	1	11	B3	press
719.704	n/a	RESPONSE	        M4	1	21	A4	release
719.722	n/a	RESPONSE	        M4	1	07	G3	release
719.734	n/a	RESPONSE	        M4	1	14	D4	release
720.162	n/a	RESPONSE	        M4	1	14	D4	press
720.26	n/a	RESPONSE	        M4	1	11	B3	release
720.303	n/a	RESPONSE	        M4	1	02	D3	press
720.62	n/a	RESPONSE	        M4	1	02	D3	release
720.704	n/a	RESPONSE	        M4	1	11	B3	press
720.856	n/a	RESPONSE	        M4	1	14	D4	release
721.325	n/a	RESPONSE	        M4	1	19	G4	release
721.354	n/a	RESPONSE	        M4	1	11	B3	release
725.753	6.308	CUE_LISTEN	        M4	2	n/a	n/a	n/a
732.061	7.758	FIXCROSS	n/a	n/a	n/a	n/a	n/a
739.819	6.317	CUE_PLAYBACK_BOTH_HANDS	        M4	2	n/a	n/a	n/a
740.683	n/a	RESPONSE	        M4	2	04	E3	press
740.698	n/a	RESPONSE	        M4	2	23	B4	press
740.7	n/a	RESPONSE	        M4	2	16	E4	press
741.126	n/a	RESPONSE	        M4	2	11	B3	press
741.349	n/a	RESPONSE	        M4	2	16	E4	release
741.39	n/a	RESPONSE	        M4	2	04	E3	release
741.625	n/a	RESPONSE	        M4	2	16	E4	press
741.709	n/a	RESPONSE	        M4	2	09	A3	press
741.738	n/a	RESPONSE	        M4	2	07	G3	press
741.753	n/a	RESPONSE	        M4	2	11	B3	release
741.962	n/a	RESPONSE	        M4	2	07	G3	release
742.114	n/a	RESPONSE	        M4	2	12	C4	press
742.143	n/a	RESPONSE	        M4	2	19	G4	press
742.185	n/a	RESPONSE	        M4	2	09	A3	release
742.228	n/a	RESPONSE	        M4	2	23	B4	release
742.23	n/a	RESPONSE	        M4	2	16	E4	release
742.546	n/a	RESPONSE	        M4	2	04	E3	press
742.55	n/a	RESPONSE	        M4	2	16	E4	press
742.616	n/a	RESPONSE	        M4	2	12	C4	release
742.912	n/a	RESPONSE	        M4	2	12	C4	press
742.986	n/a	RESPONSE	        M4	2	04	E3	release
743.033	n/a	RESPONSE	        M4	2	16	E4	release
743.328	n/a	RESPONSE	        M4	2	09	A3	press
743.375	n/a	RESPONSE	        M4	2	16	E4	press
743.43	n/a	RESPONSE	        M4	2	12	C4	release
743.549	n/a	RESPONSE	        M4	2	09	A3	release
743.603	n/a	RESPONSE	        M4	2	16	E4	release
743.859	n/a	RESPONSE	        M4	2	04	E3	press
743.92	n/a	RESPONSE	        M4	2	16	E4	press
744.456	n/a	RESPONSE	        M4	2	16	E4	release
744.665	n/a	RESPONSE	        M4	2	04	E3	release
744.689	n/a	RESPONSE	        M4	2	19	G4	release
744.795	n/a	RESPONSE	        M4	2	02	D3	press
744.812	n/a	RESPONSE	        M4	2	14	D4	press
744.82	n/a	RESPONSE	        M4	2	23	B4	press
745.26	n/a	RESPONSE	        M4	2	02	D3	release
745.419	n/a	RESPONSE	        M4	2	12	C4	press
745.48	n/a	RESPONSE	        M4	2	14	D4	release
745.804	n/a	RESPONSE	        M4	2	09	A3	press
745.895	n/a	RESPONSE	        M4	2	14	D4	press
745.949	n/a	RESPONSE	        M4	2	12	C4	release
746.136	7.758	FIXCROSS	n/a	n/a	n/a	n/a	n/a
746.372	n/a	RESPONSE	        M4	2	09	A3	release
746.524	n/a	RESPONSE	        M4	2	21	A4	press
746.553	n/a	RESPONSE	        M4	2	02	D3	press
746.555	n/a	RESPONSE	        M4	2	04	E3	press
746.64	n/a	RESPONSE	        M4	2	23	B4	release
746.89	n/a	RESPONSE	        M4	2	04	E3	release
746.918	n/a	RESPONSE	        M4	2	02	D3	release
747.114	n/a	RESPONSE	        M4	2	11	B3	press
747.126	n/a	RESPONSE	        M4	2	12	C4	press
747.155	n/a	RESPONSE	        M4	2	14	D4	release
747.393	n/a	RESPONSE	        M4	2	11	B3	release
747.694	n/a	RESPONSE	        M4	2	12	C4	release
747.874	n/a	RESPONSE	        M4	2	21	A4	release
753.894	6.325	CUE_LISTEN	        M2	1	n/a	n/a	n/a
760.219	7.758	FIXCROSS	n/a	n/a	n/a	n/a	n/a
767.977	6.317	CUE_PLAYBACK_RIGHT_HAND	        M2	1	n/a	n/a	n/a
768.669	n/a	RESPONSE	        M2	1	24	C5	press
769.055	n/a	RESPONSE	        M2	1	19	G4	press
769.126	n/a	RESPONSE	        M2	1	24	C5	release
769.25	n/a	RESPONSE	        M2	1	19	G4	release
769.444	n/a	RESPONSE	        M2	1	19	G4	press
769.789	n/a	RESPONSE	        M2	1	17	F4	press
769.873	n/a	RESPONSE	        M2	1	19	G4	release
770.096	n/a	RESPONSE	        M2	1	16	E4	press
770.263	n/a	RESPONSE	        M2	1	17	F4	release
770.455	n/a	RESPONSE	        M2	1	17	F4	press
770.525	n/a	RESPONSE	        M2	1	16	E4	release
770.788	n/a	RESPONSE	        M2	1	19	G4	press
770.899	n/a	RESPONSE	        M2	1	17	F4	release
771.272	n/a	RESPONSE	        M2	1	19	G4	release
771.452	n/a	RESPONSE	        M2	1	24	C5	press
771.81	n/a	RESPONSE	        M2	1	19	G4	press
771.825	n/a	RESPONSE	        M2	1	24	C5	release
772.005	n/a	RESPONSE	        M2	1	19	G4	release
772.186	n/a	RESPONSE	        M2	1	19	G4	press
772.489	n/a	RESPONSE	        M2	1	17	F4	press
772.602	n/a	RESPONSE	        M2	1	19	G4	release
772.828	n/a	RESPONSE	        M2	1	16	E4	press
772.889	n/a	RESPONSE	        M2	1	17	F4	release
773.146	n/a	RESPONSE	        M2	1	14	D4	press
773.176	n/a	RESPONSE	        M2	1	16	E4	release
773.493	n/a	RESPONSE	        M2	1	12	C4	press
773.629	n/a	RESPONSE	        M2	1	14	D4	release
774.05	n/a	RESPONSE	        M2	1	12	C4	release
774.294	7.758	FIXCROSS	n/a	n/a	n/a	n/a	n/a
782.052	6.325	CUE_LISTEN	        M2	2	n/a	n/a	n/a
788.377	7.758	FIXCROSS	n/a	n/a	n/a	n/a	n/a
796.136	6.317	CUE_PLAYBACK_RIGHT_HAND	        M2	2	n/a	n/a	n/a
796.77	n/a	RESPONSE	        M2	2	12	C4	press
797.116	n/a	RESPONSE	        M2	2	14	D4	press
797.158	n/a	RESPONSE	        M2	2	12	C4	release
797.489	n/a	RESPONSE	        M2	2	16	E4	press
797.545	n/a	RESPONSE	        M2	2	14	D4	release
797.838	n/a	RESPONSE	        M2	2	14	D4	press
797.878	n/a	RESPONSE	        M2	2	16	E4	release
798.183	n/a	RESPONSE	        M2	2	16	E4	press
798.225	n/a	RESPONSE	        M2	2	14	D4	release
798.541	n/a	RESPONSE	        M2	2	17	F4	press
798.625	n/a	RESPONSE	        M2	2	16	E4	release
798.903	n/a	RESPONSE	        M2	2	19	G4	press
798.958	n/a	RESPONSE	        M2	2	17	F4	release
799.372	n/a	RESPONSE	        M2	2	19	G4	release
799.62	n/a	RESPONSE	        M2	2	16	E4	press
799.94	n/a	RESPONSE	        M2	2	16	E4	release
799.966	n/a	RESPONSE	        M2	2	19	G4	press
800.16	n/a	RESPONSE	        M2	2	19	G4	release
800.348	n/a	RESPONSE	        M2	2	19	G4	press
800.693	n/a	RESPONSE	        M2	2	17	F4	press
800.79	n/a	RESPONSE	        M2	2	19	G4	release
801.04	n/a	RESPONSE	        M2	2	16	E4	press
801.123	n/a	RESPONSE	        M2	2	17	F4	release
801.4	n/a	RESPONSE	        M2	2	14	D4	press
801.484	n/a	RESPONSE	        M2	2	16	E4	release
801.745	n/a	RESPONSE	        M2	2	12	C4	press
801.774	n/a	RESPONSE	        M2	2	14	D4	release
802.259	n/a	RESPONSE	        M2	2	12	C4	release
802.452	7.758	FIXCROSS	n/a	n/a	n/a	n/a	n/a
810.211	6.317	CUE_LISTEN	        M8	1	n/a	n/a	n/a
816.527	7.758	FIXCROSS	n/a	n/a	n/a	n/a	n/a
824.286	6.325	CUE_PLAYBACK_RIGHT_HAND	        M8	1	n/a	n/a	n/a
825.044	n/a	RESPONSE	        M8	1	16	E4	press
825.336	n/a	RESPONSE	        M8	1	19	G4	press
825.458	n/a	RESPONSE	        M8	1	16	E4	release
825.619	n/a	RESPONSE	        M8	1	23	B4	press
825.685	n/a	RESPONSE	        M8	1	19	G4	release
825.889	n/a	RESPONSE	        M8	1	23	B4	release
826.17	n/a	RESPONSE	        M8	1	23	B4	press
826.706	n/a	RESPONSE	        M8	1	18	F#4	press
826.831	n/a	RESPONSE	        M8	1	23	B4	release
827.204	n/a	RESPONSE	        M8	1	21	A4	press
827.3	n/a	RESPONSE	        M8	1	18	F#4	release
828.072	n/a	RESPONSE	        M8	1	23	B4	press
828.128	n/a	RESPONSE	        M8	1	21	A4	release
828.693	n/a	RESPONSE	        M8	1	21	A4	press
828.818	n/a	RESPONSE	        M8	1	23	B4	release
828.956	n/a	RESPONSE	        M8	1	19	G4	press
829.095	n/a	RESPONSE	        M8	1	21	A4	release
829.22	n/a	RESPONSE	        M8	1	18	F#4	press
829.306	n/a	RESPONSE	        M8	1	19	G4	release
829.458	n/a	RESPONSE	        M8	1	16	E4	press
829.514	n/a	RESPONSE	        M8	1	18	F#4	release
829.872	n/a	RESPONSE	        M8	1	23	B4	press
830.024	n/a	RESPONSE	        M8	1	16	E4	release
830.611	7.758	FIXCROSS	n/a	n/a	n/a	n/a	n/a
830.66	n/a	RESPONSE	        M8	1	23	B4	release
838.369	6.317	CUE_LISTEN	        M8	2	n/a	n/a	n/a
844.686	7.758	FIXCROSS	n/a	n/a	n/a	n/a	n/a
852.444	6.317	CUE_PLAYBACK_RIGHT_HAND	        M8	2	n/a	n/a	n/a
853.079	n/a	RESPONSE	        M8	2	16	E4	press
853.35	n/a	RESPONSE	        M8	2	19	G4	press
853.479	n/a	RESPONSE	        M8	2	16	E4	release
853.63	n/a	RESPONSE	        M8	2	23	B4	press
853.706	n/a	RESPONSE	        M8	2	19	G4	release
853.888	n/a	RESPONSE	        M8	2	23	B4	release
854.151	n/a	RESPONSE	        M8	2	23	B4	press
854.633	n/a	RESPONSE	        M8	2	18	F#4	press
854.731	n/a	RESPONSE	        M8	2	23	B4	release
855.138	n/a	RESPONSE	        M8	2	21	A4	press
855.214	n/a	RESPONSE	        M8	2	18	F#4	release
855.99	n/a	RESPONSE	        M8	2	23	B4	press
856.05	n/a	RESPONSE	        M8	2	21	A4	release
856.601	n/a	RESPONSE	        M8	2	21	A4	press
856.703	n/a	RESPONSE	        M8	2	23	B4	release
856.896	n/a	RESPONSE	        M8	2	19	G4	press
857.021	n/a	RESPONSE	        M8	2	21	A4	release
857.16	n/a	RESPONSE	        M8	2	18	F#4	press
857.203	n/a	RESPONSE	        M8	2	19	G4	release
857.385	n/a	RESPONSE	        M8	2	19	G4	press
857.453	n/a	RESPONSE	        M8	2	18	F#4	release
857.839	n/a	RESPONSE	        M8	2	16	E4	press
857.895	n/a	RESPONSE	        M8	2	19	G4	release
858.653	n/a	RESPONSE	        M8	2	16	E4	release
858.761	7.758	FIXCROSS	n/a	n/a	n/a	n/a	n/a
866.519	6.325	CUE_LISTEN	        M6	1	n/a	n/a	n/a
872.844	7.758	FIXCROSS	n/a	n/a	n/a	n/a	n/a
880.603	6.317	CUE_PLAYBACK_BOTH_HANDS	        M6	1	n/a	n/a	n/a
881.564	n/a	RESPONSE	        M6	1	12	C4	press
881.579	n/a	RESPONSE	        M6	1	09	A3	press
881.581	n/a	RESPONSE	        M6	1	05	F3	press
881.925	n/a	RESPONSE	        M6	1	17	F4	press
882.298	n/a	RESPONSE	        M6	1	19	G4	press
882.354	n/a	RESPONSE	        M6	1	17	F4	release
882.893	n/a	RESPONSE	        M6	1	19	G4	release
882.895	n/a	RESPONSE	        M6	1	05	F3	release
883.001	n/a	RESPONSE	        M6	1	12	C4	release
883.076	n/a	RESPONSE	        M6	1	12	C4	press
883.109	n/a	RESPONSE	        M6	1	05	F3	press
883.464	n/a	RESPONSE	        M6	1	19	G4	press
883.928	n/a	RESPONSE	        M6	1	19	G4	release
884.059	n/a	RESPONSE	        M6	1	05	F3	release
884.133	n/a	RESPONSE	        M6	1	09	A3	release
884.174	n/a	RESPONSE	        M6	1	12	C4	release
884.248	n/a	RESPONSE	        M6	1	05	F3	press
884.25	n/a	RESPONSE	        M6	1	09	A3	press
884.259	n/a	RESPONSE	        M6	1	12	C4	press
884.583	n/a	RESPONSE	        M6	1	17	F4	press
884.938	n/a	RESPONSE	        M6	1	19	G4	press
884.996	n/a	RESPONSE	        M6	1	17	F4	release
885.339	n/a	RESPONSE	        M6	1	17	F4	press
885.49	n/a	RESPONSE	        M6	1	19	G4	release
885.694	n/a	RESPONSE	        M6	1	16	E4	press
885.86	n/a	RESPONSE	        M6	1	17	F4	release
886.036	n/a	RESPONSE	        M6	1	14	D4	press
886.163	n/a	RESPONSE	        M6	1	16	E4	release
886.389	n/a	RESPONSE	        M6	1	16	E4	press
886.42	n/a	RESPONSE	        M6	1	14	D4	release
886.724	n/a	RESPONSE	        M6	1	16	E4	release
886.753	n/a	RESPONSE	        M6	1	05	F3	release
886.85	n/a	RESPONSE	        M6	1	09	A3	release
886.919	7.758	FIXCROSS	n/a	n/a	n/a	n/a	n/a
886.92	n/a	RESPONSE	        M6	1	12	C4	release
887.073	n/a	RESPONSE	        M6	1	05	F3	press
887.075	n/a	RESPONSE	        M6	1	12	C4	press
887.078	n/a	RESPONSE	        M6	1	09	A3	press
887.489	n/a	RESPONSE	        M6	1	05	F3	release
887.518	n/a	RESPONSE	        M6	1	09	A3	release
887.589	n/a	RESPONSE	        M6	1	12	C4	release
887.809	n/a	RESPONSE	        M6	1	17	F4	press
888.388	n/a	RESPONSE	        M6	1	17	F4	release
888.416	n/a	RESPONSE	        M6	1	21	A4	press
889.009	n/a	RESPONSE	        M6	1	21	A4	release
889.011	n/a	RESPONSE	        M6	1	19	G4	press
889.52	n/a	RESPONSE	        M6	1	17	F4	press
889.563	n/a	RESPONSE	        M6	1	19	G4	release
889.909	n/a	RESPONSE	        M6	1	17	F4	release
890.268	n/a	RESPONSE	        M6	1	17	F4	press
890.764	n/a	RESPONSE	        M6	1	17	F4	release
894.678	6.317	CUE_LISTEN	        M6	2	n/a	n/a	n/a
900.994	7.759	FIXCROSS	n/a	n/a	n/a	n/a	n/a
908.753	203.013	CUE_PLAYBACK_BOTH_HANDS	        M6	2	n/a	n/a	n/a
909.419	n/a	RESPONSE	        M6	2	05	F3	press
909.421	n/a	RESPONSE	        M6	2	09	A3	press
909.424	n/a	RESPONSE	        M6	2	12	C4	press
909.809	n/a	RESPONSE	        M6	2	17	F4	press
910.181	n/a	RESPONSE	        M6	2	21	A4	press
910.418	n/a	RESPONSE	        M6	2	17	F4	release
910.57	n/a	RESPONSE	        M6	2	24	C5	press
910.573	n/a	RESPONSE	        M6	2	23	B4	press
910.641	n/a	RESPONSE	        M6	2	05	F3	release
910.656	n/a	RESPONSE	        M6	2	09	A3	release
910.671	n/a	RESPONSE	        M6	2	21	A4	release
910.7	n/a	RESPONSE	        M6	2	12	C4	release
910.881	n/a	RESPONSE	        M6	2	24	C5	release
910.978	n/a	RESPONSE	        M6	2	07	G3	press
911.006	n/a	RESPONSE	        M6	2	04	E3	press
911.049	n/a	RESPONSE	        M6	2	12	C4	press
911.449	n/a	RESPONSE	        M6	2	04	E3	release
911.464	n/a	RESPONSE	        M6	2	12	C4	release
911.52	n/a	RESPONSE	        M6	2	23	B4	release
911.728	n/a	RESPONSE	        M6	2	23	B4	press
911.743	n/a	RESPONSE	        M6	2	04	E3	press
911.758	n/a	RESPONSE	        M6	2	12	C4	press
912.144	n/a	RESPONSE	        M6	2	20	G#4	press
912.283	n/a	RESPONSE	        M6	2	23	B4	release
912.504	n/a	RESPONSE	        M6	2	19	G4	press
912.56	n/a	RESPONSE	        M6	2	20	G#4	release
913.015	n/a	RESPONSE	        M6	2	19	G4	release
913.084	n/a	RESPONSE	        M6	2	04	E3	release
913.093	n/a	RESPONSE	        M6	2	12	C4	release
913.229	n/a	RESPONSE	        M6	2	07	G3	release
913.243	n/a	FIXCROSS	n/a	n/a	n/a	n/a	n/a
914.31	n/a	RESPONSE	        M6	2	04	E3	press
914.313	n/a	RESPONSE	        M6	2	07	G3	press
914.335	n/a	RESPONSE	        M6	2	12	C4	press
914.809	n/a	RESPONSE	        M6	2	17	F4	press
914.835	n/a	RESPONSE	        M6	2	16	E4	press
915.098	n/a	RESPONSE	        M6	2	17	F4	release
915.173	n/a	RESPONSE	        M6	2	17	F4	press
915.196	n/a	RESPONSE	        M6	2	16	E4	release
915.529	n/a	RESPONSE	        M6	2	21	A4	press
915.531	n/a	RESPONSE	        M6	2	17	F4	release
915.539	n/a	RESPONSE	        M6	2	19	G4	press
915.743	n/a	RESPONSE	        M6	2	19	G4	release
915.821	n/a	RESPONSE	        M6	2	21	A4	release
916.369	n/a	RESPONSE	        M6	2	22	A#4	press
916.466	n/a	RESPONSE	        M6	2	04	E3	release
916.484	n/a	RESPONSE	        M6	2	07	G3	release
916.665	n/a	RESPONSE	        M6	2	12	C4	release
916.683	n/a	RESPONSE	        M6	2	22	A#4	release
917.053	n/a	RESPONSE	        M6	2	09	A3	press
917.055	n/a	RESPONSE	        M6	2	22	A#4	press
917.069	n/a	RESPONSE	        M6	2	05	F3	press
917.071	n/a	RESPONSE	        M6	2	12	C4	press
917.649	n/a	RESPONSE	        M6	2	19	G4	press
918.255	n/a	RESPONSE	        M6	2	17	F4	press
918.27	n/a	RESPONSE	        M6	2	22	A#4	release
918.34	n/a	RESPONSE	        M6	2	19	G4	release
918.575	n/a	RESPONSE	        M6	2	17	F4	release
918.769	n/a	RESPONSE	        M6	2	09	A3	release
918.784	n/a	RESPONSE	        M6	2	05	F3	release
918.813	n/a	RESPONSE	        M6	2	12	C4	release
