onset	duration	trial_type	trial_number	stroop_condition	stim_text(PL)	stim_text(eng)	stim_color(PL)	stim_color(eng)	response_type	response_color
0.0	n/a	RESPONSE	n/a	n/a	n/a	n/a	n/a	n/a	n/a	n/a
0.0678	1.0333	ITI	n/a	n/a	n/a	n/a	n/a	n/a	n/a	n/a
1.1011	0.5167	FIXCROSS	n/a	n/a	n/a	n/a	n/a	n/a	n/a	n/a
1.6178	0.8833	T_INK	1	Neutral	xxxxxxx	xxxxxxx	żółty	yellow	hit	n/a
2.4771	n/a	RESPONSE	n/a	n/a	n/a	n/a	n/a	n/a	n/a	yellow
2.5011	0.5167	FEEDBACK	n/a	n/a	n/a	n/a	n/a	n/a	n/a	n/a
3.0178	1.0167	ITI	n/a	n/a	n/a	n/a	n/a	n/a	n/a	n/a
4.0345	0.5167	FIXCROSS	n/a	n/a	n/a	n/a	n/a	n/a	n/a	n/a
4.5511	0.8833	T_INK	2	Neutral	xxxxxxx	xxxxxxx	czerwony	red	hit	n/a
5.4019	n/a	RESPONSE	n/a	n/a	n/a	n/a	n/a	n/a	n/a	red
5.4345	0.5167	FEEDBACK	n/a	n/a	n/a	n/a	n/a	n/a	n/a	n/a
5.9511	1.0167	ITI	n/a	n/a	n/a	n/a	n/a	n/a	n/a	n/a
6.9678	0.5167	FIXCROSS	n/a	n/a	n/a	n/a	n/a	n/a	n/a	n/a
7.4845	1.15	T_INK	3	Incongruent	czerwony	red	zielony	green	hit	n/a
8.5982	n/a	RESPONSE	n/a	n/a	n/a	n/a	n/a	n/a	n/a	green
8.6345	0.5167	FEEDBACK	n/a	n/a	n/a	n/a	n/a	n/a	n/a	n/a
9.1512	1.0167	ITI	n/a	n/a	n/a	n/a	n/a	n/a	n/a	n/a
10.1678	0.5167	FIXCROSS	n/a	n/a	n/a	n/a	n/a	n/a	n/a	n/a
10.6845	1.0	T_INK	4	Incongruent	żółty	yellow	niebieski	blue	hit	n/a
11.6506	n/a	RESPONSE	n/a	n/a	n/a	n/a	n/a	n/a	n/a	blue
11.6845	0.5167	FEEDBACK	n/a	n/a	n/a	n/a	n/a	n/a	n/a	n/a
12.2012	1.0167	ITI	n/a	n/a	n/a	n/a	n/a	n/a	n/a	n/a
13.2179	0.5167	FIXCROSS	n/a	n/a	n/a	n/a	n/a	n/a	n/a	n/a
13.7345	0.7833	T_INK	5	Neutral	xxxxxxxxx	xxxxxxxxx	czerwony	red	hit	n/a
14.4954	n/a	RESPONSE	n/a	n/a	n/a	n/a	n/a	n/a	n/a	red
14.5179	0.5167	FEEDBACK	n/a	n/a	n/a	n/a	n/a	n/a	n/a	n/a
15.0345	1.0167	ITI	n/a	n/a	n/a	n/a	n/a	n/a	n/a	n/a
16.0512	0.5166	FIXCROSS	n/a	n/a	n/a	n/a	n/a	n/a	n/a	n/a
16.5678	1.2834	T_INK	6	Incongruent	żółty	yellow	zielony	green	hit	n/a
17.8196	n/a	RESPONSE	n/a	n/a	n/a	n/a	n/a	n/a	n/a	green
17.8512	0.5167	FEEDBACK	n/a	n/a	n/a	n/a	n/a	n/a	n/a	n/a
18.3679	1.0167	ITI	n/a	n/a	n/a	n/a	n/a	n/a	n/a	n/a
19.3846	0.5167	FIXCROSS	n/a	n/a	n/a	n/a	n/a	n/a	n/a	n/a
19.9012	0.9667	T_INK	7	Neutral	xxxxxxxxx	xxxxxxxxx	żółty	yellow	hit	n/a
20.8402	n/a	RESPONSE	n/a	n/a	n/a	n/a	n/a	n/a	n/a	yellow
20.8679	0.5167	FEEDBACK	n/a	n/a	n/a	n/a	n/a	n/a	n/a	n/a
21.3846	1.0167	ITI	n/a	n/a	n/a	n/a	n/a	n/a	n/a	n/a
22.4013	0.5167	FIXCROSS	n/a	n/a	n/a	n/a	n/a	n/a	n/a	n/a
22.9179	1.0333	T_INK	8	Incongruent	niebieski	blue	żółty	yellow	hit	n/a
23.9246	n/a	RESPONSE	n/a	n/a	n/a	n/a	n/a	n/a	n/a	yellow
23.9513	0.5167	FEEDBACK	n/a	n/a	n/a	n/a	n/a	n/a	n/a	n/a
24.468	1.0167	ITI	n/a	n/a	n/a	n/a	n/a	n/a	n/a	n/a
25.4846	0.5167	FIXCROSS	n/a	n/a	n/a	n/a	n/a	n/a	n/a	n/a
26.0013	0.8667	T_INK	9	Neutral	xxxxxxxx	xxxxxxxx	niebieski	blue	hit	n/a
26.8492	n/a	RESPONSE	n/a	n/a	n/a	n/a	n/a	n/a	n/a	blue
26.868	0.5167	FEEDBACK	n/a	n/a	n/a	n/a	n/a	n/a	n/a	n/a
27.3846	1.0167	ITI	n/a	n/a	n/a	n/a	n/a	n/a	n/a	n/a
28.4013	0.5167	FIXCROSS	n/a	n/a	n/a	n/a	n/a	n/a	n/a	n/a
28.918	0.95	T_INK	10	Incongruent	żółty	yellow	czerwony	red	hit	n/a
29.8378	n/a	RESPONSE	n/a	n/a	n/a	n/a	n/a	n/a	n/a	red
29.868	0.5167	FEEDBACK	n/a	n/a	n/a	n/a	n/a	n/a	n/a	n/a
30.3847	1.0167	ITI	n/a	n/a	n/a	n/a	n/a	n/a	n/a	n/a
31.4013	0.5167	FIXCROSS	n/a	n/a	n/a	n/a	n/a	n/a	n/a	n/a
31.918	0.7833	T_INK	11	Neutral	xxxxxxxxx	xxxxxxxxx	zielony	green	hit	n/a
32.6665	n/a	RESPONSE	n/a	n/a	n/a	n/a	n/a	n/a	n/a	green
32.7013	0.5167	FEEDBACK	n/a	n/a	n/a	n/a	n/a	n/a	n/a	n/a
33.218	1.0167	ITI	n/a	n/a	n/a	n/a	n/a	n/a	n/a	n/a
34.2347	0.5167	FIXCROSS	n/a	n/a	n/a	n/a	n/a	n/a	n/a	n/a
34.7514	0.7667	T_INK	12	Incongruent	czerwony	red	żółty	yellow	hit	n/a
35.4954	n/a	RESPONSE	n/a	n/a	n/a	n/a	n/a	n/a	n/a	yellow
35.518	0.5167	FEEDBACK	n/a	n/a	n/a	n/a	n/a	n/a	n/a	n/a
36.0347	1.0333	ITI	n/a	n/a	n/a	n/a	n/a	n/a	n/a	n/a
47.5775	n/a	RESPONSE	n/a	n/a	n/a	n/a	n/a	n/a	n/a	n/a
47.6348	1.0167	ITI	n/a	n/a	n/a	n/a	n/a	n/a	n/a	n/a
48.6515	0.5167	FIXCROSS	n/a	n/a	n/a	n/a	n/a	n/a	n/a	n/a
49.1681	0.8333	INK	1	Neutral	xxxxxxxx	xxxxxxxx	zielony	green	hit	n/a
49.9748	n/a	RESPONSE	n/a	n/a	n/a	n/a	n/a	n/a	n/a	green
50.0015	1.0167	ITI	n/a	n/a	n/a	n/a	n/a	n/a	n/a	n/a
51.0182	0.5167	FIXCROSS	n/a	n/a	n/a	n/a	n/a	n/a	n/a	n/a
51.5348	0.9167	INK	2	Incongruent	niebieski	blue	zielony	green	hit	n/a
52.42	n/a	RESPONSE	n/a	n/a	n/a	n/a	n/a	n/a	n/a	green
52.4515	1.0167	ITI	n/a	n/a	n/a	n/a	n/a	n/a	n/a	n/a
53.4682	0.5167	FIXCROSS	n/a	n/a	n/a	n/a	n/a	n/a	n/a	n/a
53.9848	0.8167	INK	3	Incongruent	czerwony	red	zielony	green	hit	n/a
54.7694	n/a	RESPONSE	n/a	n/a	n/a	n/a	n/a	n/a	n/a	green
54.8015	1.0333	ITI	n/a	n/a	n/a	n/a	n/a	n/a	n/a	n/a
55.8348	0.5167	FIXCROSS	n/a	n/a	n/a	n/a	n/a	n/a	n/a	n/a
56.3515	0.8333	INK	4	Incongruent	żółty	yellow	niebieski	blue	hit	n/a
57.1666	n/a	RESPONSE	n/a	n/a	n/a	n/a	n/a	n/a	n/a	blue
57.1849	1.0167	ITI	n/a	n/a	n/a	n/a	n/a	n/a	n/a	n/a
58.2015	0.5167	FIXCROSS	n/a	n/a	n/a	n/a	n/a	n/a	n/a	n/a
58.7182	0.9167	INK	5	Incongruent	żółty	yellow	zielony	green	hit	n/a
59.6118	n/a	RESPONSE	n/a	n/a	n/a	n/a	n/a	n/a	n/a	green
59.6349	1.0167	ITI	n/a	n/a	n/a	n/a	n/a	n/a	n/a	n/a
60.6516	0.5167	FIXCROSS	n/a	n/a	n/a	n/a	n/a	n/a	n/a	n/a
61.1682	0.8333	INK	6	Neutral	xxxxxxxx	xxxxxxxx	niebieski	blue	hit	n/a
61.9772	n/a	RESPONSE	n/a	n/a	n/a	n/a	n/a	n/a	n/a	blue
62.0016	1.0167	ITI	n/a	n/a	n/a	n/a	n/a	n/a	n/a	n/a
63.0182	0.5167	FIXCROSS	n/a	n/a	n/a	n/a	n/a	n/a	n/a	n/a
63.5349	0.7667	INK	7	Incongruent	czerwony	red	żółty	yellow	hit	n/a
64.2785	n/a	RESPONSE	n/a	n/a	n/a	n/a	n/a	n/a	n/a	yellow
64.3016	1.0167	ITI	n/a	n/a	n/a	n/a	n/a	n/a	n/a	n/a
65.3183	0.5167	FIXCROSS	n/a	n/a	n/a	n/a	n/a	n/a	n/a	n/a
65.8349	0.75	INK	8	Neutral	xxxxxxxxx	xxxxxxxxx	zielony	green	hit	n/a
66.5639	n/a	RESPONSE	n/a	n/a	n/a	n/a	n/a	n/a	n/a	green
66.5849	1.0167	ITI	n/a	n/a	n/a	n/a	n/a	n/a	n/a	n/a
67.6016	0.5167	FIXCROSS	n/a	n/a	n/a	n/a	n/a	n/a	n/a	n/a
68.1183	0.8167	INK	9	Incongruent	zielony	green	niebieski	blue	hit	n/a
68.9132	n/a	RESPONSE	n/a	n/a	n/a	n/a	n/a	n/a	n/a	blue
68.935	1.0167	ITI	n/a	n/a	n/a	n/a	n/a	n/a	n/a	n/a
69.9516	0.5167	FIXCROSS	n/a	n/a	n/a	n/a	n/a	n/a	n/a	n/a
70.4683	0.7667	INK	10	Incongruent	zielony	green	żółty	yellow	hit	n/a
71.2146	n/a	RESPONSE	n/a	n/a	n/a	n/a	n/a	n/a	n/a	yellow
71.235	1.0167	ITI	n/a	n/a	n/a	n/a	n/a	n/a	n/a	n/a
72.2516	0.5167	FIXCROSS	n/a	n/a	n/a	n/a	n/a	n/a	n/a	n/a
72.7683	0.8833	INK	11	Incongruent	niebieski	blue	czerwony	red	hit	n/a
73.6279	n/a	RESPONSE	n/a	n/a	n/a	n/a	n/a	n/a	n/a	red
73.6517	1.0167	ITI	n/a	n/a	n/a	n/a	n/a	n/a	n/a	n/a
74.6683	0.5167	FIXCROSS	n/a	n/a	n/a	n/a	n/a	n/a	n/a	n/a
75.185	0.75	INK	12	Neutral	xxxxxxx	xxxxxxx	żółty	yellow	hit	n/a
75.9133	n/a	RESPONSE	n/a	n/a	n/a	n/a	n/a	n/a	n/a	yellow
75.935	1.0167	ITI	n/a	n/a	n/a	n/a	n/a	n/a	n/a	n/a
76.9517	0.5167	FIXCROSS	n/a	n/a	n/a	n/a	n/a	n/a	n/a	n/a
77.4684	0.85	INK	13	Incongruent	żółty	yellow	czerwony	red	hit	n/a
78.2945	n/a	RESPONSE	n/a	n/a	n/a	n/a	n/a	n/a	n/a	red
78.3184	1.0167	ITI	n/a	n/a	n/a	n/a	n/a	n/a	n/a	n/a
79.335	0.5167	FIXCROSS	n/a	n/a	n/a	n/a	n/a	n/a	n/a	n/a
79.8517	0.9167	INK	14	Neutral	xxxxxxx	xxxxxxx	niebieski	blue	hit	n/a
80.7397	n/a	RESPONSE	n/a	n/a	n/a	n/a	n/a	n/a	n/a	blue
80.7684	1.0167	ITI	n/a	n/a	n/a	n/a	n/a	n/a	n/a	n/a
81.785	0.5167	FIXCROSS	n/a	n/a	n/a	n/a	n/a	n/a	n/a	n/a
82.3017	0.9333	INK	15	Incongruent	zielony	green	niebieski	blue	hit	n/a
83.2169	n/a	RESPONSE	n/a	n/a	n/a	n/a	n/a	n/a	n/a	blue
83.2351	1.0167	ITI	n/a	n/a	n/a	n/a	n/a	n/a	n/a	n/a
84.2517	0.5167	FIXCROSS	n/a	n/a	n/a	n/a	n/a	n/a	n/a	n/a
84.7684	0.7833	INK	16	Neutral	xxxxxxxx	xxxxxxxx	żółty	yellow	hit	n/a
85.5183	n/a	RESPONSE	n/a	n/a	n/a	n/a	n/a	n/a	n/a	yellow
85.5518	1.0167	ITI	n/a	n/a	n/a	n/a	n/a	n/a	n/a	n/a
86.5684	0.5167	FIXCROSS	n/a	n/a	n/a	n/a	n/a	n/a	n/a	n/a
87.0851	0.85	INK	17	Incongruent	zielony	green	czerwony	red	hit	n/a
87.9155	n/a	RESPONSE	n/a	n/a	n/a	n/a	n/a	n/a	n/a	red
87.9351	1.0167	ITI	n/a	n/a	n/a	n/a	n/a	n/a	n/a	n/a
88.9518	0.5167	FIXCROSS	n/a	n/a	n/a	n/a	n/a	n/a	n/a	n/a
89.4684	0.9667	INK	18	Incongruent	żółty	yellow	zielony	green	hit	n/a
90.4087	n/a	RESPONSE	n/a	n/a	n/a	n/a	n/a	n/a	n/a	green
90.4351	1.0167	ITI	n/a	n/a	n/a	n/a	n/a	n/a	n/a	n/a
91.4518	0.5167	FIXCROSS	n/a	n/a	n/a	n/a	n/a	n/a	n/a	n/a
91.9685	0.6667	INK	19	Neutral	xxxxxxxxx	xxxxxxxxx	zielony	green	hit	n/a
92.6142	n/a	RESPONSE	n/a	n/a	n/a	n/a	n/a	n/a	n/a	green
92.6351	1.0167	ITI	n/a	n/a	n/a	n/a	n/a	n/a	n/a	n/a
93.6518	0.5167	FIXCROSS	n/a	n/a	n/a	n/a	n/a	n/a	n/a	n/a
94.1685	0.8	INK	20	Incongruent	niebieski	blue	zielony	green	hit	n/a
94.9475	n/a	RESPONSE	n/a	n/a	n/a	n/a	n/a	n/a	n/a	green
94.9685	1.0167	ITI	n/a	n/a	n/a	n/a	n/a	n/a	n/a	n/a
95.9852	0.5167	FIXCROSS	n/a	n/a	n/a	n/a	n/a	n/a	n/a	n/a
96.5018	0.7333	INK	21	Incongruent	zielony	green	żółty	yellow	hit	n/a
97.2168	n/a	RESPONSE	n/a	n/a	n/a	n/a	n/a	n/a	n/a	yellow
97.2352	1.0167	ITI	n/a	n/a	n/a	n/a	n/a	n/a	n/a	n/a
98.2518	0.5167	FIXCROSS	n/a	n/a	n/a	n/a	n/a	n/a	n/a	n/a
98.7685	0.8167	INK	22	Incongruent	żółty	yellow	czerwony	red	hit	n/a
99.5662	n/a	RESPONSE	n/a	n/a	n/a	n/a	n/a	n/a	n/a	red
99.5852	1.0167	ITI	n/a	n/a	n/a	n/a	n/a	n/a	n/a	n/a
100.6019	0.5167	FIXCROSS	n/a	n/a	n/a	n/a	n/a	n/a	n/a	n/a
101.1185	0.6167	INK	23	Neutral	xxxxxxxxx	xxxxxxxxx	czerwony	red	hit	n/a
101.7077	n/a	RESPONSE	n/a	n/a	n/a	n/a	n/a	n/a	n/a	red
101.7352	1.0167	ITI	n/a	n/a	n/a	n/a	n/a	n/a	n/a	n/a
102.7519	0.5167	FIXCROSS	n/a	n/a	n/a	n/a	n/a	n/a	n/a	n/a
103.2685	0.75	INK	24	Neutral	xxxxxxxx	xxxxxxxx	żółty	yellow	hit	n/a
103.9931	n/a	RESPONSE	n/a	n/a	n/a	n/a	n/a	n/a	n/a	yellow
104.0185	1.0167	ITI	n/a	n/a	n/a	n/a	n/a	n/a	n/a	n/a
105.0352	0.5167	FIXCROSS	n/a	n/a	n/a	n/a	n/a	n/a	n/a	n/a
105.5519	0.65	INK	25	Neutral	xxxxx	xxxxx	niebieski	blue	hit	n/a
106.1825	n/a	RESPONSE	n/a	n/a	n/a	n/a	n/a	n/a	n/a	blue
106.2019	1.0167	ITI	n/a	n/a	n/a	n/a	n/a	n/a	n/a	n/a
107.2186	0.5167	FIXCROSS	n/a	n/a	n/a	n/a	n/a	n/a	n/a	n/a
107.7352	0.7333	INK	26	Neutral	xxxxxxxx	xxxxxxxx	zielony	green	hit	n/a
108.4359	n/a	RESPONSE	n/a	n/a	n/a	n/a	n/a	n/a	n/a	green
108.4686	1.0167	ITI	n/a	n/a	n/a	n/a	n/a	n/a	n/a	n/a
109.4853	0.5167	FIXCROSS	n/a	n/a	n/a	n/a	n/a	n/a	n/a	n/a
110.0019	0.7833	INK	27	Incongruent	niebieski	blue	czerwony	red	hit	n/a
110.7532	n/a	RESPONSE	n/a	n/a	n/a	n/a	n/a	n/a	n/a	red
110.7853	1.0167	ITI	n/a	n/a	n/a	n/a	n/a	n/a	n/a	n/a
111.8019	0.5167	FIXCROSS	n/a	n/a	n/a	n/a	n/a	n/a	n/a	n/a
112.3186	0.6333	INK	28	Neutral	xxxxxxx	xxxxxxx	żółty	yellow	hit	n/a
112.9267	n/a	RESPONSE	n/a	n/a	n/a	n/a	n/a	n/a	n/a	yellow
112.952	1.0167	ITI	n/a	n/a	n/a	n/a	n/a	n/a	n/a	n/a
113.9686	0.5167	FIXCROSS	n/a	n/a	n/a	n/a	n/a	n/a	n/a	n/a
114.4853	0.7833	INK	29	Incongruent	żółty	yellow	zielony	green	hit	n/a
115.244	n/a	RESPONSE	n/a	n/a	n/a	n/a	n/a	n/a	n/a	green
115.2686	1.0167	ITI	n/a	n/a	n/a	n/a	n/a	n/a	n/a	n/a
116.2853	0.5167	FIXCROSS	n/a	n/a	n/a	n/a	n/a	n/a	n/a	n/a
116.802	0.7833	INK	30	Neutral	xxxxxxxx	xxxxxxxx	niebieski	blue	hit	n/a
117.5613	n/a	RESPONSE	n/a	n/a	n/a	n/a	n/a	n/a	n/a	blue
117.5853	1.0167	ITI	n/a	n/a	n/a	n/a	n/a	n/a	n/a	n/a
118.602	0.5167	FIXCROSS	n/a	n/a	n/a	n/a	n/a	n/a	n/a	n/a
119.1187	0.7333	INK	31	Neutral	xxxxxxxxx	xxxxxxxxx	żółty	yellow	hit	n/a
119.8308	n/a	RESPONSE	n/a	n/a	n/a	n/a	n/a	n/a	n/a	yellow
119.852	1.0167	ITI	n/a	n/a	n/a	n/a	n/a	n/a	n/a	n/a
120.8687	0.5167	FIXCROSS	n/a	n/a	n/a	n/a	n/a	n/a	n/a	n/a
121.3853	0.8	INK	32	Incongruent	czerwony	red	żółty	yellow	hit	n/a
122.164	n/a	RESPONSE	n/a	n/a	n/a	n/a	n/a	n/a	n/a	yellow
122.1854	1.0167	ITI	n/a	n/a	n/a	n/a	n/a	n/a	n/a	n/a
123.202	0.5167	FIXCROSS	n/a	n/a	n/a	n/a	n/a	n/a	n/a	n/a
123.7187	0.6333	INK	33	Incongruent	niebieski	blue	żółty	yellow	hit	n/a
124.3214	n/a	RESPONSE	n/a	n/a	n/a	n/a	n/a	n/a	n/a	yellow
124.352	1.0167	ITI	n/a	n/a	n/a	n/a	n/a	n/a	n/a	n/a
125.3687	0.5167	FIXCROSS	n/a	n/a	n/a	n/a	n/a	n/a	n/a	n/a
125.8854	0.7333	INK	34	Neutral	xxxxx	xxxxx	czerwony	red	hit	n/a
126.5909	n/a	RESPONSE	n/a	n/a	n/a	n/a	n/a	n/a	n/a	red
126.6187	1.0167	ITI	n/a	n/a	n/a	n/a	n/a	n/a	n/a	n/a
127.6354	0.5167	FIXCROSS	n/a	n/a	n/a	n/a	n/a	n/a	n/a	n/a
128.1521	0.7833	INK	35	Neutral	xxxxxxxx	xxxxxxxx	niebieski	blue	hit	n/a
128.9081	n/a	RESPONSE	n/a	n/a	n/a	n/a	n/a	n/a	n/a	blue
128.9354	1.0167	ITI	n/a	n/a	n/a	n/a	n/a	n/a	n/a	n/a
129.9521	0.5167	FIXCROSS	n/a	n/a	n/a	n/a	n/a	n/a	n/a	n/a
130.4687	0.7833	INK	36	Neutral	xxxxxxx	xxxxxxx	czerwony	red	hit	n/a
131.2255	n/a	RESPONSE	n/a	n/a	n/a	n/a	n/a	n/a	n/a	red
131.2521	1.0167	ITI	n/a	n/a	n/a	n/a	n/a	n/a	n/a	n/a
132.2688	0.5167	FIXCROSS	n/a	n/a	n/a	n/a	n/a	n/a	n/a	n/a
132.7854	0.7	INK	37	Neutral	xxxxxxx	xxxxxxx	żółty	yellow	hit	n/a
133.4628	n/a	RESPONSE	n/a	n/a	n/a	n/a	n/a	n/a	n/a	yellow
133.4854	1.0167	ITI	n/a	n/a	n/a	n/a	n/a	n/a	n/a	n/a
134.5021	0.5167	FIXCROSS	n/a	n/a	n/a	n/a	n/a	n/a	n/a	n/a
135.0188	0.7667	INK	38	Neutral	xxxxxxx	xxxxxxx	czerwony	red	hit	n/a
135.7643	n/a	RESPONSE	n/a	n/a	n/a	n/a	n/a	n/a	n/a	red
135.7855	1.0167	ITI	n/a	n/a	n/a	n/a	n/a	n/a	n/a	n/a
136.8021	0.5167	FIXCROSS	n/a	n/a	n/a	n/a	n/a	n/a	n/a	n/a
137.3188	0.7167	INK	39	Neutral	xxxxxxxxx	xxxxxxxxx	żółty	yellow	hit	n/a
138.0177	n/a	RESPONSE	n/a	n/a	n/a	n/a	n/a	n/a	n/a	yellow
138.0355	1.0167	ITI	n/a	n/a	n/a	n/a	n/a	n/a	n/a	n/a
139.0521	0.5167	FIXCROSS	n/a	n/a	n/a	n/a	n/a	n/a	n/a	n/a
139.5688	0.8333	INK	40	Incongruent	zielony	green	czerwony	red	hit	n/a
140.3829	n/a	RESPONSE	n/a	n/a	n/a	n/a	n/a	n/a	n/a	red
140.4021	1.0167	ITI	n/a	n/a	n/a	n/a	n/a	n/a	n/a	n/a
141.4188	0.5167	FIXCROSS	n/a	n/a	n/a	n/a	n/a	n/a	n/a	n/a
141.9355	0.6833	INK	41	Neutral	xxxxxxx	xxxxxxx	czerwony	red	hit	n/a
142.5883	n/a	RESPONSE	n/a	n/a	n/a	n/a	n/a	n/a	n/a	red
142.6188	1.0167	ITI	n/a	n/a	n/a	n/a	n/a	n/a	n/a	n/a
143.6355	0.5167	FIXCROSS	n/a	n/a	n/a	n/a	n/a	n/a	n/a	n/a
144.1522	0.7667	INK	42	Incongruent	niebieski	blue	żółty	yellow	hit	n/a
144.8896	n/a	RESPONSE	n/a	n/a	n/a	n/a	n/a	n/a	n/a	yellow
144.9188	1.0167	ITI	n/a	n/a	n/a	n/a	n/a	n/a	n/a	n/a
145.9355	0.5167	FIXCROSS	n/a	n/a	n/a	n/a	n/a	n/a	n/a	n/a
146.4522	0.7667	INK	43	Incongruent	czerwony	red	zielony	green	hit	n/a
147.1909	n/a	RESPONSE	n/a	n/a	n/a	n/a	n/a	n/a	n/a	green
147.2189	1.0167	ITI	n/a	n/a	n/a	n/a	n/a	n/a	n/a	n/a
148.2355	0.5167	FIXCROSS	n/a	n/a	n/a	n/a	n/a	n/a	n/a	n/a
148.7522	0.6167	INK	44	Neutral	xxxxx	xxxxx	czerwony	red	hit	n/a
149.3485	n/a	RESPONSE	n/a	n/a	n/a	n/a	n/a	n/a	n/a	red
149.3689	1.0167	ITI	n/a	n/a	n/a	n/a	n/a	n/a	n/a	n/a
150.3855	0.5167	FIXCROSS	n/a	n/a	n/a	n/a	n/a	n/a	n/a	n/a
150.9022	0.7667	INK	45	Neutral	xxxxxxxxx	xxxxxxxxx	czerwony	red	hit	n/a
151.6499	n/a	RESPONSE	n/a	n/a	n/a	n/a	n/a	n/a	n/a	red
151.6689	1.0167	ITI	n/a	n/a	n/a	n/a	n/a	n/a	n/a	n/a
152.6856	0.5167	FIXCROSS	n/a	n/a	n/a	n/a	n/a	n/a	n/a	n/a
153.2022	0.8167	INK	46	Neutral	xxxxxxx	xxxxxxx	niebieski	blue	hit	n/a
153.9991	n/a	RESPONSE	n/a	n/a	n/a	n/a	n/a	n/a	n/a	blue
154.0189	1.0167	ITI	n/a	n/a	n/a	n/a	n/a	n/a	n/a	n/a
155.0356	0.5167	FIXCROSS	n/a	n/a	n/a	n/a	n/a	n/a	n/a	n/a
155.5523	0.7333	INK	47	Neutral	xxxxx	xxxxx	zielony	green	hit	n/a
156.2524	n/a	RESPONSE	n/a	n/a	n/a	n/a	n/a	n/a	n/a	green
156.2856	1.0167	ITI	n/a	n/a	n/a	n/a	n/a	n/a	n/a	n/a
157.3023	0.5167	FIXCROSS	n/a	n/a	n/a	n/a	n/a	n/a	n/a	n/a
157.8189	0.9	INK	48	Neutral	xxxxx	xxxxx	niebieski	blue	hit	n/a
158.6977	n/a	RESPONSE	n/a	n/a	n/a	n/a	n/a	n/a	n/a	blue
158.719	1.0167	ITI	n/a	n/a	n/a	n/a	n/a	n/a	n/a	n/a
159.7356	0.5167	FIXCROSS	n/a	n/a	n/a	n/a	n/a	n/a	n/a	n/a
160.2523	0.7	INK	49	Neutral	xxxxxxxxx	xxxxxxxxx	żółty	yellow	hit	n/a
160.919	n/a	RESPONSE	n/a	n/a	n/a	n/a	n/a	n/a	n/a	yellow
160.9523	1.0167	ITI	n/a	n/a	n/a	n/a	n/a	n/a	n/a	n/a
161.969	0.5167	FIXCROSS	n/a	n/a	n/a	n/a	n/a	n/a	n/a	n/a
162.4856	0.8667	INK	50	Incongruent	zielony	green	niebieski	blue	hit	n/a
163.3322	n/a	RESPONSE	n/a	n/a	n/a	n/a	n/a	n/a	n/a	blue
163.3523	1.0167	ITI	n/a	n/a	n/a	n/a	n/a	n/a	n/a	n/a
164.369	0.5167	FIXCROSS	n/a	n/a	n/a	n/a	n/a	n/a	n/a	n/a
164.8857	0.9	INK	51	Incongruent	czerwony	red	niebieski	blue	hit	n/a
165.7614	n/a	RESPONSE	n/a	n/a	n/a	n/a	n/a	n/a	n/a	blue
165.7857	1.0167	ITI	n/a	n/a	n/a	n/a	n/a	n/a	n/a	n/a
166.8023	0.5167	FIXCROSS	n/a	n/a	n/a	n/a	n/a	n/a	n/a	n/a
167.319	0.8833	INK	52	Incongruent	niebieski	blue	czerwony	red	hit	n/a
168.1747	n/a	RESPONSE	n/a	n/a	n/a	n/a	n/a	n/a	n/a	red
168.2024	1.0167	ITI	n/a	n/a	n/a	n/a	n/a	n/a	n/a	n/a
169.219	0.5167	FIXCROSS	n/a	n/a	n/a	n/a	n/a	n/a	n/a	n/a
169.7357	0.8667	INK	53	Incongruent	żółty	yellow	czerwony	red	hit	n/a
170.5719	n/a	RESPONSE	n/a	n/a	n/a	n/a	n/a	n/a	n/a	red
170.6024	1.0167	ITI	n/a	n/a	n/a	n/a	n/a	n/a	n/a	n/a
171.619	0.5167	FIXCROSS	n/a	n/a	n/a	n/a	n/a	n/a	n/a	n/a
172.1357	1.0833	INK	54	Incongruent	czerwony	red	niebieski	blue	hit	n/a
173.1928	n/a	RESPONSE	n/a	n/a	n/a	n/a	n/a	n/a	n/a	blue
173.2191	1.0167	ITI	n/a	n/a	n/a	n/a	n/a	n/a	n/a	n/a
174.2357	0.5167	FIXCROSS	n/a	n/a	n/a	n/a	n/a	n/a	n/a	n/a
174.7524	0.8333	INK	55	Incongruent	czerwony	red	zielony	green	hit	n/a
175.5581	n/a	RESPONSE	n/a	n/a	n/a	n/a	n/a	n/a	n/a	green
175.5857	1.0167	ITI	n/a	n/a	n/a	n/a	n/a	n/a	n/a	n/a
176.6024	0.5167	FIXCROSS	n/a	n/a	n/a	n/a	n/a	n/a	n/a	n/a
177.1191	0.75	INK	56	Neutral	xxxxxxxx	xxxxxxxx	zielony	green	hit	n/a
177.8434	n/a	RESPONSE	n/a	n/a	n/a	n/a	n/a	n/a	n/a	green
177.8691	1.0167	ITI	n/a	n/a	n/a	n/a	n/a	n/a	n/a	n/a
178.8858	0.5167	FIXCROSS	n/a	n/a	n/a	n/a	n/a	n/a	n/a	n/a
179.4024	0.9167	INK	57	Incongruent	zielony	green	czerwony	red	hit	n/a
180.2885	n/a	RESPONSE	n/a	n/a	n/a	n/a	n/a	n/a	n/a	red
180.3191	1.0167	ITI	n/a	n/a	n/a	n/a	n/a	n/a	n/a	n/a
181.3358	0.5167	FIXCROSS	n/a	n/a	n/a	n/a	n/a	n/a	n/a	n/a
181.8524	0.95	INK	58	Incongruent	niebieski	blue	zielony	green	hit	n/a
182.7817	n/a	RESPONSE	n/a	n/a	n/a	n/a	n/a	n/a	n/a	green
182.8025	1.0167	ITI	n/a	n/a	n/a	n/a	n/a	n/a	n/a	n/a
183.8191	0.5167	FIXCROSS	n/a	n/a	n/a	n/a	n/a	n/a	n/a	n/a
184.3358	0.7167	INK	59	Neutral	xxxxx	xxxxx	zielony	green	hit	n/a
185.0191	n/a	RESPONSE	n/a	n/a	n/a	n/a	n/a	n/a	n/a	green
185.0525	1.0167	ITI	n/a	n/a	n/a	n/a	n/a	n/a	n/a	n/a
186.0691	0.5167	FIXCROSS	n/a	n/a	n/a	n/a	n/a	n/a	n/a	n/a
186.5858	0.7833	INK	60	Incongruent	zielony	green	żółty	yellow	hit	n/a
187.3364	n/a	RESPONSE	n/a	n/a	n/a	n/a	n/a	n/a	n/a	yellow
187.3692	1.0167	ITI	n/a	n/a	n/a	n/a	n/a	n/a	n/a	n/a
188.3858	0.5167	FIXCROSS	n/a	n/a	n/a	n/a	n/a	n/a	n/a	n/a
188.9025	0.6667	INK	61	Incongruent	czerwony	red	żółty	yellow	hit	n/a
189.5419	n/a	RESPONSE	n/a	n/a	n/a	n/a	n/a	n/a	n/a	yellow
189.5692	1.0167	ITI	n/a	n/a	n/a	n/a	n/a	n/a	n/a	n/a
190.5858	0.5167	FIXCROSS	n/a	n/a	n/a	n/a	n/a	n/a	n/a	n/a
191.1025	0.5333	INK	62	Neutral	xxxxxxxx	xxxxxxxx	żółty	yellow	hit	n/a
191.6036	n/a	RESPONSE	n/a	n/a	n/a	n/a	n/a	n/a	n/a	yellow
191.6359	1.0167	ITI	n/a	n/a	n/a	n/a	n/a	n/a	n/a	n/a
192.6525	0.5167	FIXCROSS	n/a	n/a	n/a	n/a	n/a	n/a	n/a	n/a
193.1692	0.7167	INK	63	Neutral	xxxxx	xxxxx	zielony	green	hit	n/a
193.8569	n/a	RESPONSE	n/a	n/a	n/a	n/a	n/a	n/a	n/a	green
193.8859	1.0167	ITI	n/a	n/a	n/a	n/a	n/a	n/a	n/a	n/a
194.9025	0.5167	FIXCROSS	n/a	n/a	n/a	n/a	n/a	n/a	n/a	n/a
195.4192	0.8667	INK	64	Incongruent	czerwony	red	niebieski	blue	hit	n/a
196.2543	n/a	RESPONSE	n/a	n/a	n/a	n/a	n/a	n/a	n/a	blue
196.2859	1.0167	ITI	n/a	n/a	n/a	n/a	n/a	n/a	n/a	n/a
197.3026	0.5167	FIXCROSS	n/a	n/a	n/a	n/a	n/a	n/a	n/a	n/a
197.8192	0.8	INK	65	Incongruent	żółty	yellow	niebieski	blue	hit	n/a
198.5876	n/a	RESPONSE	n/a	n/a	n/a	n/a	n/a	n/a	n/a	blue
198.6192	1.0167	ITI	n/a	n/a	n/a	n/a	n/a	n/a	n/a	n/a
199.6359	0.5167	FIXCROSS	n/a	n/a	n/a	n/a	n/a	n/a	n/a	n/a
200.1526	0.8667	INK	66	Neutral	xxxxxxxxx	xxxxxxxxx	zielony	green	hit	n/a
201.0009	n/a	RESPONSE	n/a	n/a	n/a	n/a	n/a	n/a	n/a	green
201.0193	1.0167	ITI	n/a	n/a	n/a	n/a	n/a	n/a	n/a	n/a
202.0359	0.5167	FIXCROSS	n/a	n/a	n/a	n/a	n/a	n/a	n/a	n/a
202.5526	0.8	INK	67	Incongruent	niebieski	blue	żółty	yellow	hit	n/a
203.3342	n/a	RESPONSE	n/a	n/a	n/a	n/a	n/a	n/a	n/a	yellow
203.3526	1.0167	ITI	n/a	n/a	n/a	n/a	n/a	n/a	n/a	n/a
204.3693	0.5167	FIXCROSS	n/a	n/a	n/a	n/a	n/a	n/a	n/a	n/a
204.8859	0.9167	INK	68	Incongruent	żółty	yellow	niebieski	blue	hit	n/a
205.7795	n/a	RESPONSE	n/a	n/a	n/a	n/a	n/a	n/a	n/a	blue
205.8026	1.0167	ITI	n/a	n/a	n/a	n/a	n/a	n/a	n/a	n/a
206.8193	0.5167	FIXCROSS	n/a	n/a	n/a	n/a	n/a	n/a	n/a	n/a
207.336	0.8	INK	69	Neutral	xxxxxxxxx	xxxxxxxxx	czerwony	red	hit	n/a
208.1127	n/a	RESPONSE	n/a	n/a	n/a	n/a	n/a	n/a	n/a	red
208.136	1.0167	ITI	n/a	n/a	n/a	n/a	n/a	n/a	n/a	n/a
209.1527	0.5167	FIXCROSS	n/a	n/a	n/a	n/a	n/a	n/a	n/a	n/a
209.6693	0.8167	INK	70	Neutral	xxxxxxx	xxxxxxx	niebieski	blue	hit	n/a
210.462	n/a	RESPONSE	n/a	n/a	n/a	n/a	n/a	n/a	n/a	blue
210.486	1.0167	ITI	n/a	n/a	n/a	n/a	n/a	n/a	n/a	n/a
211.5027	0.5167	FIXCROSS	n/a	n/a	n/a	n/a	n/a	n/a	n/a	n/a
212.0193	0.8	INK	71	Neutral	xxxxx	xxxxx	czerwony	red	hit	n/a
212.7954	n/a	RESPONSE	n/a	n/a	n/a	n/a	n/a	n/a	n/a	red
212.8194	1.0167	ITI	n/a	n/a	n/a	n/a	n/a	n/a	n/a	n/a
213.836	0.5167	FIXCROSS	n/a	n/a	n/a	n/a	n/a	n/a	n/a	n/a
214.3527	0.8	INK	72	Neutral	xxxxx	xxxxx	niebieski	blue	hit	n/a
215.1287	n/a	RESPONSE	n/a	n/a	n/a	n/a	n/a	n/a	n/a	blue
215.1527	1.0833	ITI	n/a	n/a	n/a	n/a	n/a	n/a	n/a	n/a
242.5535	n/a	RESPONSE	n/a	n/a	n/a	n/a	n/a	n/a	n/a	n/a
242.6196	1.0167	ITI	n/a	n/a	n/a	n/a	n/a	n/a	n/a	n/a
243.6362	0.5167	FIXCROSS	n/a	n/a	n/a	n/a	n/a	n/a	n/a	n/a
244.1529	1.0667	T_COLOR_NAME	1	Incongruent	niebieski	blue	żółty	yellow	hit	n/a
245.1905	n/a	RESPONSE	n/a	n/a	n/a	n/a	n/a	n/a	n/a	blue
245.2196	0.5167	FEEDBACK	n/a	n/a	n/a	n/a	n/a	n/a	n/a	n/a
245.7362	1.0167	ITI	n/a	n/a	n/a	n/a	n/a	n/a	n/a	n/a
246.7529	0.5167	FIXCROSS	n/a	n/a	n/a	n/a	n/a	n/a	n/a	n/a
247.2696	1.1	T_COLOR_NAME	2	Incongruent	żółty	yellow	czerwony	red	hit	n/a
248.3389	n/a	RESPONSE	n/a	n/a	n/a	n/a	n/a	n/a	n/a	yellow
248.3696	0.5167	FEEDBACK	n/a	n/a	n/a	n/a	n/a	n/a	n/a	n/a
248.8863	1.0167	ITI	n/a	n/a	n/a	n/a	n/a	n/a	n/a	n/a
249.903	0.5167	FIXCROSS	n/a	n/a	n/a	n/a	n/a	n/a	n/a	n/a
250.4196	0.95	T_COLOR_NAME	3	Neutral	niebieski	blue	Neutral	Neutral	hit	n/a
251.3435	n/a	RESPONSE	n/a	n/a	n/a	n/a	n/a	n/a	n/a	blue
251.3696	0.5167	FEEDBACK	n/a	n/a	n/a	n/a	n/a	n/a	n/a	n/a
251.8863	1.0167	ITI	n/a	n/a	n/a	n/a	n/a	n/a	n/a	n/a
252.903	0.5167	FIXCROSS	n/a	n/a	n/a	n/a	n/a	n/a	n/a	n/a
253.4196	0.9167	T_COLOR_NAME	4	Neutral	niebieski	blue	Neutral	Neutral	hit	n/a
254.3161	n/a	RESPONSE	n/a	n/a	n/a	n/a	n/a	n/a	n/a	blue
254.3363	0.5167	FEEDBACK	n/a	n/a	n/a	n/a	n/a	n/a	n/a	n/a
254.853	1.0167	ITI	n/a	n/a	n/a	n/a	n/a	n/a	n/a	n/a
255.8697	0.5167	FIXCROSS	n/a	n/a	n/a	n/a	n/a	n/a	n/a	n/a
256.3863	0.8333	T_COLOR_NAME	5	Incongruent	żółty	yellow	niebieski	blue	hit	n/a
257.1928	n/a	RESPONSE	n/a	n/a	n/a	n/a	n/a	n/a	n/a	yellow
257.2197	0.5167	FEEDBACK	n/a	n/a	n/a	n/a	n/a	n/a	n/a	n/a
257.7363	1.0167	ITI	n/a	n/a	n/a	n/a	n/a	n/a	n/a	n/a
258.753	0.5167	FIXCROSS	n/a	n/a	n/a	n/a	n/a	n/a	n/a	n/a
259.2697	0.8667	T_COLOR_NAME	6	Neutral	zielony	green	Neutral	Neutral	hit	n/a
260.1015	n/a	RESPONSE	n/a	n/a	n/a	n/a	n/a	n/a	n/a	green
260.1364	0.5167	FEEDBACK	n/a	n/a	n/a	n/a	n/a	n/a	n/a	n/a
260.653	1.0167	ITI	n/a	n/a	n/a	n/a	n/a	n/a	n/a	n/a
261.6697	0.5167	FIXCROSS	n/a	n/a	n/a	n/a	n/a	n/a	n/a	n/a
262.1864	0.95	T_COLOR_NAME	7	Incongruent	czerwony	red	zielony	green	hit	n/a
263.1061	n/a	RESPONSE	n/a	n/a	n/a	n/a	n/a	n/a	n/a	red
263.1364	0.5167	FEEDBACK	n/a	n/a	n/a	n/a	n/a	n/a	n/a	n/a
263.6531	1.0167	ITI	n/a	n/a	n/a	n/a	n/a	n/a	n/a	n/a
264.6697	0.5167	FIXCROSS	n/a	n/a	n/a	n/a	n/a	n/a	n/a	n/a
265.1864	0.8667	T_COLOR_NAME	8	Neutral	niebieski	blue	Neutral	Neutral	hit	n/a
266.0309	n/a	RESPONSE	n/a	n/a	n/a	n/a	n/a	n/a	n/a	blue
266.0531	0.5167	FEEDBACK	n/a	n/a	n/a	n/a	n/a	n/a	n/a	n/a
266.5697	1.0167	ITI	n/a	n/a	n/a	n/a	n/a	n/a	n/a	n/a
267.5864	0.5167	FIXCROSS	n/a	n/a	n/a	n/a	n/a	n/a	n/a	n/a
268.1031	0.7667	T_COLOR_NAME	9	Incongruent	żółty	yellow	zielony	green	hit	n/a
268.8437	n/a	RESPONSE	n/a	n/a	n/a	n/a	n/a	n/a	n/a	yellow
268.8697	0.5167	FEEDBACK	n/a	n/a	n/a	n/a	n/a	n/a	n/a	n/a
269.3864	1.0167	ITI	n/a	n/a	n/a	n/a	n/a	n/a	n/a	n/a
270.4031	0.5167	FIXCROSS	n/a	n/a	n/a	n/a	n/a	n/a	n/a	n/a
270.9198	0.8667	T_COLOR_NAME	10	Incongruent	czerwony	red	żółty	yellow	hit	n/a
271.7523	n/a	RESPONSE	n/a	n/a	n/a	n/a	n/a	n/a	n/a	red
271.7864	0.5167	FEEDBACK	n/a	n/a	n/a	n/a	n/a	n/a	n/a	n/a
272.3031	1.0167	ITI	n/a	n/a	n/a	n/a	n/a	n/a	n/a	n/a
273.3198	0.5167	FIXCROSS	n/a	n/a	n/a	n/a	n/a	n/a	n/a	n/a
273.8365	0.85	T_COLOR_NAME	11	Neutral	czerwony	red	Neutral	Neutral	hit	n/a
274.661	n/a	RESPONSE	n/a	n/a	n/a	n/a	n/a	n/a	n/a	red
274.6865	0.5167	FEEDBACK	n/a	n/a	n/a	n/a	n/a	n/a	n/a	n/a
275.2031	1.0167	ITI	n/a	n/a	n/a	n/a	n/a	n/a	n/a	n/a
276.2198	0.5167	FIXCROSS	n/a	n/a	n/a	n/a	n/a	n/a	n/a	n/a
276.7365	0.8833	T_COLOR_NAME	12	Neutral	zielony	green	Neutral	Neutral	hit	n/a
277.5857	n/a	RESPONSE	n/a	n/a	n/a	n/a	n/a	n/a	n/a	green
277.6198	0.5167	FEEDBACK	n/a	n/a	n/a	n/a	n/a	n/a	n/a	n/a
278.1365	1.0333	ITI	n/a	n/a	n/a	n/a	n/a	n/a	n/a	n/a
282.2044	n/a	RESPONSE	n/a	n/a	n/a	n/a	n/a	n/a	n/a	n/a
282.2699	1.0167	ITI	n/a	n/a	n/a	n/a	n/a	n/a	n/a	n/a
283.2865	0.5167	FIXCROSS	n/a	n/a	n/a	n/a	n/a	n/a	n/a	n/a
283.8032	0.75	COLOR_NAME	1	Neutral	żółty	yellow	Neutral	Neutral	hit	n/a
284.5218	n/a	RESPONSE	n/a	n/a	n/a	n/a	n/a	n/a	n/a	yellow
284.5532	1.0167	ITI	n/a	n/a	n/a	n/a	n/a	n/a	n/a	n/a
285.5699	0.5167	FIXCROSS	n/a	n/a	n/a	n/a	n/a	n/a	n/a	n/a
286.0865	0.8833	COLOR_NAME	2	Neutral	niebieski	blue	Neutral	Neutral	hit	n/a
286.951	n/a	RESPONSE	n/a	n/a	n/a	n/a	n/a	n/a	n/a	blue
286.9699	1.0167	ITI	n/a	n/a	n/a	n/a	n/a	n/a	n/a	n/a
287.9865	0.5167	FIXCROSS	n/a	n/a	n/a	n/a	n/a	n/a	n/a	n/a
288.5032	1.0	COLOR_NAME	3	Incongruent	zielony	green	żółty	yellow	hit	n/a
289.4761	n/a	RESPONSE	n/a	n/a	n/a	n/a	n/a	n/a	n/a	green
289.5032	1.0167	ITI	n/a	n/a	n/a	n/a	n/a	n/a	n/a	n/a
290.5199	0.5167	FIXCROSS	n/a	n/a	n/a	n/a	n/a	n/a	n/a	n/a
291.0366	0.9167	COLOR_NAME	4	Incongruent	niebieski	blue	zielony	green	hit	n/a
291.9214	n/a	RESPONSE	n/a	n/a	n/a	n/a	n/a	n/a	n/a	blue
291.9532	1.0167	ITI	n/a	n/a	n/a	n/a	n/a	n/a	n/a	n/a
292.9699	0.5167	FIXCROSS	n/a	n/a	n/a	n/a	n/a	n/a	n/a	n/a
293.4866	0.85	COLOR_NAME	5	Neutral	czerwony	red	Neutral	Neutral	hit	n/a
294.3027	n/a	RESPONSE	n/a	n/a	n/a	n/a	n/a	n/a	n/a	red
294.3366	1.0167	ITI	n/a	n/a	n/a	n/a	n/a	n/a	n/a	n/a
295.3533	0.5167	FIXCROSS	n/a	n/a	n/a	n/a	n/a	n/a	n/a	n/a
295.8699	0.8833	COLOR_NAME	6	Incongruent	niebieski	blue	czerwony	red	hit	n/a
296.7319	n/a	RESPONSE	n/a	n/a	n/a	n/a	n/a	n/a	n/a	blue
296.7533	1.0167	ITI	n/a	n/a	n/a	n/a	n/a	n/a	n/a	n/a
297.77	0.5167	FIXCROSS	n/a	n/a	n/a	n/a	n/a	n/a	n/a	n/a
298.2866	0.8333	COLOR_NAME	7	Incongruent	żółty	yellow	czerwony	red	hit	n/a
299.0972	n/a	RESPONSE	n/a	n/a	n/a	n/a	n/a	n/a	n/a	yellow
299.12	1.0167	ITI	n/a	n/a	n/a	n/a	n/a	n/a	n/a	n/a
300.1366	0.5167	FIXCROSS	n/a	n/a	n/a	n/a	n/a	n/a	n/a	n/a
300.6533	0.8667	COLOR_NAME	8	Incongruent	czerwony	red	żółty	yellow	hit	n/a
301.4946	n/a	RESPONSE	n/a	n/a	n/a	n/a	n/a	n/a	n/a	red
301.52	1.0167	ITI	n/a	n/a	n/a	n/a	n/a	n/a	n/a	n/a
302.5367	0.5167	FIXCROSS	n/a	n/a	n/a	n/a	n/a	n/a	n/a	n/a
303.0533	0.85	COLOR_NAME	9	Incongruent	niebieski	blue	zielony	green	hit	n/a
303.8758	n/a	RESPONSE	n/a	n/a	n/a	n/a	n/a	n/a	n/a	blue
303.9033	1.0167	ITI	n/a	n/a	n/a	n/a	n/a	n/a	n/a	n/a
304.92	0.5167	FIXCROSS	n/a	n/a	n/a	n/a	n/a	n/a	n/a	n/a
305.4367	0.7	COLOR_NAME	10	Incongruent	żółty	yellow	czerwony	red	hit	n/a
306.1133	n/a	RESPONSE	n/a	n/a	n/a	n/a	n/a	n/a	n/a	yellow
306.1367	1.0167	ITI	n/a	n/a	n/a	n/a	n/a	n/a	n/a	n/a
307.1534	0.5167	FIXCROSS	n/a	n/a	n/a	n/a	n/a	n/a	n/a	n/a
307.67	0.8333	COLOR_NAME	11	Neutral	zielony	green	Neutral	Neutral	hit	n/a
308.4786	n/a	RESPONSE	n/a	n/a	n/a	n/a	n/a	n/a	n/a	green
308.5034	1.0167	ITI	n/a	n/a	n/a	n/a	n/a	n/a	n/a	n/a
309.52	0.5167	FIXCROSS	n/a	n/a	n/a	n/a	n/a	n/a	n/a	n/a
310.0367	0.9667	COLOR_NAME	12	Neutral	niebieski	blue	Neutral	Neutral	hit	n/a
310.9717	n/a	RESPONSE	n/a	n/a	n/a	n/a	n/a	n/a	n/a	blue
311.0034	1.0167	ITI	n/a	n/a	n/a	n/a	n/a	n/a	n/a	n/a
312.0201	0.5167	FIXCROSS	n/a	n/a	n/a	n/a	n/a	n/a	n/a	n/a
312.5367	0.8667	COLOR_NAME	13	Incongruent	czerwony	red	niebieski	blue	hit	n/a
313.3849	n/a	RESPONSE	n/a	n/a	n/a	n/a	n/a	n/a	n/a	red
313.4034	1.0167	ITI	n/a	n/a	n/a	n/a	n/a	n/a	n/a	n/a
314.4201	0.5167	FIXCROSS	n/a	n/a	n/a	n/a	n/a	n/a	n/a	n/a
314.9367	0.85	COLOR_NAME	14	Neutral	zielony	green	Neutral	Neutral	hit	n/a
315.7663	n/a	RESPONSE	n/a	n/a	n/a	n/a	n/a	n/a	n/a	green
315.7867	1.0166	ITI	n/a	n/a	n/a	n/a	n/a	n/a	n/a	n/a
316.8034	0.5167	FIXCROSS	n/a	n/a	n/a	n/a	n/a	n/a	n/a	n/a
317.3201	0.8833	COLOR_NAME	15	Incongruent	czerwony	red	zielony	green	hit	n/a
318.1795	n/a	RESPONSE	n/a	n/a	n/a	n/a	n/a	n/a	n/a	red
318.2034	1.0167	ITI	n/a	n/a	n/a	n/a	n/a	n/a	n/a	n/a
319.2201	0.5167	FIXCROSS	n/a	n/a	n/a	n/a	n/a	n/a	n/a	n/a
319.7368	0.9	COLOR_NAME	16	Incongruent	zielony	green	niebieski	blue	hit	n/a
320.6088	n/a	RESPONSE	n/a	n/a	n/a	n/a	n/a	n/a	n/a	green
320.6368	1.0167	ITI	n/a	n/a	n/a	n/a	n/a	n/a	n/a	n/a
321.6535	0.5167	FIXCROSS	n/a	n/a	n/a	n/a	n/a	n/a	n/a	n/a
322.1701	0.8333	COLOR_NAME	17	Neutral	czerwony	red	Neutral	Neutral	hit	n/a
322.9741	n/a	RESPONSE	n/a	n/a	n/a	n/a	n/a	n/a	n/a	red
323.0035	1.0167	ITI	n/a	n/a	n/a	n/a	n/a	n/a	n/a	n/a
324.0201	0.5167	FIXCROSS	n/a	n/a	n/a	n/a	n/a	n/a	n/a	n/a
324.5368	0.8167	COLOR_NAME	18	Incongruent	żółty	yellow	niebieski	blue	hit	n/a
325.3234	n/a	RESPONSE	n/a	n/a	n/a	n/a	n/a	n/a	n/a	yellow
325.3535	1.0167	ITI	n/a	n/a	n/a	n/a	n/a	n/a	n/a	n/a
326.3702	0.5167	FIXCROSS	n/a	n/a	n/a	n/a	n/a	n/a	n/a	n/a
326.8868	0.8167	COLOR_NAME	19	Incongruent	zielony	green	niebieski	blue	hit	n/a
327.6728	n/a	RESPONSE	n/a	n/a	n/a	n/a	n/a	n/a	n/a	green
327.7035	1.0167	ITI	n/a	n/a	n/a	n/a	n/a	n/a	n/a	n/a
328.7202	0.5167	FIXCROSS	n/a	n/a	n/a	n/a	n/a	n/a	n/a	n/a
329.2368	0.7834	COLOR_NAME	20	Incongruent	żółty	yellow	czerwony	red	hit	n/a
329.9901	n/a	RESPONSE	n/a	n/a	n/a	n/a	n/a	n/a	n/a	yellow
330.0202	1.0167	ITI	n/a	n/a	n/a	n/a	n/a	n/a	n/a	n/a
331.0369	0.5167	FIXCROSS	n/a	n/a	n/a	n/a	n/a	n/a	n/a	n/a
331.5535	0.9333	COLOR_NAME	21	Neutral	niebieski	blue	Neutral	Neutral	hit	n/a
332.4673	n/a	RESPONSE	n/a	n/a	n/a	n/a	n/a	n/a	n/a	blue
332.4869	1.0167	ITI	n/a	n/a	n/a	n/a	n/a	n/a	n/a	n/a
333.5035	0.5167	FIXCROSS	n/a	n/a	n/a	n/a	n/a	n/a	n/a	n/a
334.0202	0.85	COLOR_NAME	22	Incongruent	zielony	green	czerwony	red	hit	n/a
334.8487	n/a	RESPONSE	n/a	n/a	n/a	n/a	n/a	n/a	n/a	green
334.8702	1.0167	ITI	n/a	n/a	n/a	n/a	n/a	n/a	n/a	n/a
335.8869	0.5167	FIXCROSS	n/a	n/a	n/a	n/a	n/a	n/a	n/a	n/a
336.4036	0.8333	COLOR_NAME	23	Incongruent	żółty	yellow	zielony	green	hit	n/a
337.214	n/a	RESPONSE	n/a	n/a	n/a	n/a	n/a	n/a	n/a	yellow
337.2369	1.0167	ITI	n/a	n/a	n/a	n/a	n/a	n/a	n/a	n/a
338.2536	0.5167	FIXCROSS	n/a	n/a	n/a	n/a	n/a	n/a	n/a	n/a
338.7702	0.75	COLOR_NAME	24	Neutral	żółty	yellow	Neutral	Neutral	hit	n/a
339.4994	n/a	RESPONSE	n/a	n/a	n/a	n/a	n/a	n/a	n/a	yellow
339.5203	1.0167	ITI	n/a	n/a	n/a	n/a	n/a	n/a	n/a	n/a
340.5369	0.5167	FIXCROSS	n/a	n/a	n/a	n/a	n/a	n/a	n/a	n/a
341.0536	0.9833	COLOR_NAME	25	Incongruent	czerwony	red	niebieski	blue	hit	n/a
342.0085	n/a	RESPONSE	n/a	n/a	n/a	n/a	n/a	n/a	n/a	red
342.0369	1.0167	ITI	n/a	n/a	n/a	n/a	n/a	n/a	n/a	n/a
343.0536	0.5167	FIXCROSS	n/a	n/a	n/a	n/a	n/a	n/a	n/a	n/a
343.5703	0.8833	COLOR_NAME	26	Neutral	niebieski	blue	Neutral	Neutral	hit	n/a
344.4217	n/a	RESPONSE	n/a	n/a	n/a	n/a	n/a	n/a	n/a	blue
344.4536	1.0167	ITI	n/a	n/a	n/a	n/a	n/a	n/a	n/a	n/a
345.4703	0.5167	FIXCROSS	n/a	n/a	n/a	n/a	n/a	n/a	n/a	n/a
345.987	0.8	COLOR_NAME	27	Neutral	żółty	yellow	Neutral	Neutral	hit	n/a
346.755	n/a	RESPONSE	n/a	n/a	n/a	n/a	n/a	n/a	n/a	yellow
346.787	1.0167	ITI	n/a	n/a	n/a	n/a	n/a	n/a	n/a	n/a
347.8036	0.5167	FIXCROSS	n/a	n/a	n/a	n/a	n/a	n/a	n/a	n/a
348.3203	0.8167	COLOR_NAME	28	Incongruent	zielony	green	czerwony	red	hit	n/a
349.1044	n/a	RESPONSE	n/a	n/a	n/a	n/a	n/a	n/a	n/a	green
349.137	1.0167	ITI	n/a	n/a	n/a	n/a	n/a	n/a	n/a	n/a
350.1537	0.5167	FIXCROSS	n/a	n/a	n/a	n/a	n/a	n/a	n/a	n/a
350.6703	0.9	COLOR_NAME	29	Incongruent	czerwony	red	zielony	green	hit	n/a
351.5495	n/a	RESPONSE	n/a	n/a	n/a	n/a	n/a	n/a	n/a	red
351.5703	1.0167	ITI	n/a	n/a	n/a	n/a	n/a	n/a	n/a	n/a
352.587	0.5167	FIXCROSS	n/a	n/a	n/a	n/a	n/a	n/a	n/a	n/a
353.1037	0.7167	COLOR_NAME	30	Incongruent	żółty	yellow	zielony	green	hit	n/a
353.7869	n/a	RESPONSE	n/a	n/a	n/a	n/a	n/a	n/a	n/a	yellow
353.8203	1.0167	ITI	n/a	n/a	n/a	n/a	n/a	n/a	n/a	n/a
354.837	0.5167	FIXCROSS	n/a	n/a	n/a	n/a	n/a	n/a	n/a	n/a
355.3537	0.8667	COLOR_NAME	31	Neutral	niebieski	blue	Neutral	Neutral	hit	n/a
356.2002	n/a	RESPONSE	n/a	n/a	n/a	n/a	n/a	n/a	n/a	blue
356.2204	1.0167	ITI	n/a	n/a	n/a	n/a	n/a	n/a	n/a	n/a
357.237	0.5167	FIXCROSS	n/a	n/a	n/a	n/a	n/a	n/a	n/a	n/a
357.7537	0.7333	COLOR_NAME	32	Neutral	niebieski	blue	Neutral	Neutral	hit	n/a
358.4695	n/a	RESPONSE	n/a	n/a	n/a	n/a	n/a	n/a	n/a	blue
358.487	1.0167	ITI	n/a	n/a	n/a	n/a	n/a	n/a	n/a	n/a
359.5037	0.5167	FIXCROSS	n/a	n/a	n/a	n/a	n/a	n/a	n/a	n/a
360.0204	0.6667	COLOR_NAME	33	Neutral	żółty	yellow	Neutral	Neutral	hit	n/a
360.659	n/a	RESPONSE	n/a	n/a	n/a	n/a	n/a	n/a	n/a	yellow
360.6871	1.0167	ITI	n/a	n/a	n/a	n/a	n/a	n/a	n/a	n/a
361.7037	0.5167	FIXCROSS	n/a	n/a	n/a	n/a	n/a	n/a	n/a	n/a
362.2204	0.8167	COLOR_NAME	34	Incongruent	zielony	green	żółty	yellow	hit	n/a
363.0082	n/a	RESPONSE	n/a	n/a	n/a	n/a	n/a	n/a	n/a	green
363.0371	1.0167	ITI	n/a	n/a	n/a	n/a	n/a	n/a	n/a	n/a
364.0538	0.5167	FIXCROSS	n/a	n/a	n/a	n/a	n/a	n/a	n/a	n/a
364.5704	0.8167	COLOR_NAME	35	Neutral	niebieski	blue	Neutral	Neutral	hit	n/a
365.3576	n/a	RESPONSE	n/a	n/a	n/a	n/a	n/a	n/a	n/a	blue
365.3871	1.0167	ITI	n/a	n/a	n/a	n/a	n/a	n/a	n/a	n/a
366.4038	0.5167	FIXCROSS	n/a	n/a	n/a	n/a	n/a	n/a	n/a	n/a
366.9204	0.8833	COLOR_NAME	36	Incongruent	czerwony	red	żółty	yellow	hit	n/a
367.7708	n/a	RESPONSE	n/a	n/a	n/a	n/a	n/a	n/a	n/a	red
367.8038	1.0167	ITI	n/a	n/a	n/a	n/a	n/a	n/a	n/a	n/a
368.8205	0.5167	FIXCROSS	n/a	n/a	n/a	n/a	n/a	n/a	n/a	n/a
369.3371	1.0	COLOR_NAME	37	Incongruent	niebieski	blue	czerwony	red	hit	n/a
370.3117	n/a	RESPONSE	n/a	n/a	n/a	n/a	n/a	n/a	n/a	blue
370.3371	1.0167	ITI	n/a	n/a	n/a	n/a	n/a	n/a	n/a	n/a
371.3538	0.5167	FIXCROSS	n/a	n/a	n/a	n/a	n/a	n/a	n/a	n/a
371.8705	0.7333	COLOR_NAME	38	Incongruent	niebieski	blue	czerwony	red	hit	n/a
372.5812	n/a	RESPONSE	n/a	n/a	n/a	n/a	n/a	n/a	n/a	blue
372.6038	1.0167	ITI	n/a	n/a	n/a	n/a	n/a	n/a	n/a	n/a
373.6205	0.5167	FIXCROSS	n/a	n/a	n/a	n/a	n/a	n/a	n/a	n/a
374.1372	0.7667	COLOR_NAME	39	Incongruent	zielony	green	niebieski	blue	hit	n/a
374.8826	n/a	RESPONSE	n/a	n/a	n/a	n/a	n/a	n/a	n/a	green
374.9038	1.0167	ITI	n/a	n/a	n/a	n/a	n/a	n/a	n/a	n/a
375.9205	0.5167	FIXCROSS	n/a	n/a	n/a	n/a	n/a	n/a	n/a	n/a
376.4372	0.75	COLOR_NAME	40	Neutral	zielony	green	Neutral	Neutral	hit	n/a
377.152	n/a	RESPONSE	n/a	n/a	n/a	n/a	n/a	n/a	n/a	green
377.1872	1.0167	ITI	n/a	n/a	n/a	n/a	n/a	n/a	n/a	n/a
378.2038	0.5167	FIXCROSS	n/a	n/a	n/a	n/a	n/a	n/a	n/a	n/a
378.7205	0.65	COLOR_NAME	41	Neutral	zielony	green	Neutral	Neutral	hit	n/a
379.3415	n/a	RESPONSE	n/a	n/a	n/a	n/a	n/a	n/a	n/a	green
379.3705	1.0167	ITI	n/a	n/a	n/a	n/a	n/a	n/a	n/a	n/a
380.3872	0.5167	FIXCROSS	n/a	n/a	n/a	n/a	n/a	n/a	n/a	n/a
380.9039	0.8833	COLOR_NAME	42	Incongruent	czerwony	red	niebieski	blue	hit	n/a
381.7549	n/a	RESPONSE	n/a	n/a	n/a	n/a	n/a	n/a	n/a	red
381.7872	1.0167	ITI	n/a	n/a	n/a	n/a	n/a	n/a	n/a	n/a
382.8039	0.5167	FIXCROSS	n/a	n/a	n/a	n/a	n/a	n/a	n/a	n/a
383.3206	0.9	COLOR_NAME	43	Neutral	zielony	green	Neutral	Neutral	hit	n/a
384.2	n/a	RESPONSE	n/a	n/a	n/a	n/a	n/a	n/a	n/a	green
384.2206	1.0167	ITI	n/a	n/a	n/a	n/a	n/a	n/a	n/a	n/a
385.2372	0.5167	FIXCROSS	n/a	n/a	n/a	n/a	n/a	n/a	n/a	n/a
385.7539	0.8	COLOR_NAME	44	Incongruent	żółty	yellow	niebieski	blue	hit	n/a
386.5333	n/a	RESPONSE	n/a	n/a	n/a	n/a	n/a	n/a	n/a	yellow
386.5539	1.0167	ITI	n/a	n/a	n/a	n/a	n/a	n/a	n/a	n/a
387.5706	0.5167	FIXCROSS	n/a	n/a	n/a	n/a	n/a	n/a	n/a	n/a
388.0873	0.8833	COLOR_NAME	45	Neutral	czerwony	red	Neutral	Neutral	hit	n/a
388.9465	n/a	RESPONSE	n/a	n/a	n/a	n/a	n/a	n/a	n/a	red
388.9706	1.0167	ITI	n/a	n/a	n/a	n/a	n/a	n/a	n/a	n/a
389.9873	0.5167	FIXCROSS	n/a	n/a	n/a	n/a	n/a	n/a	n/a	n/a
390.5039	0.8	COLOR_NAME	46	Neutral	żółty	yellow	Neutral	Neutral	hit	n/a
391.2799	n/a	RESPONSE	n/a	n/a	n/a	n/a	n/a	n/a	n/a	yellow
391.3039	1.0167	ITI	n/a	n/a	n/a	n/a	n/a	n/a	n/a	n/a
392.3206	0.5167	FIXCROSS	n/a	n/a	n/a	n/a	n/a	n/a	n/a	n/a
392.8373	0.7167	COLOR_NAME	47	Neutral	żółty	yellow	Neutral	Neutral	hit	n/a
393.5332	n/a	RESPONSE	n/a	n/a	n/a	n/a	n/a	n/a	n/a	yellow
393.554	1.0167	ITI	n/a	n/a	n/a	n/a	n/a	n/a	n/a	n/a
394.5706	0.5167	FIXCROSS	n/a	n/a	n/a	n/a	n/a	n/a	n/a	n/a
395.0873	0.9167	COLOR_NAME	48	Neutral	czerwony	red	Neutral	Neutral	hit	n/a
395.9784	n/a	RESPONSE	n/a	n/a	n/a	n/a	n/a	n/a	n/a	red
396.004	1.0167	ITI	n/a	n/a	n/a	n/a	n/a	n/a	n/a	n/a
397.0206	0.5167	FIXCROSS	n/a	n/a	n/a	n/a	n/a	n/a	n/a	n/a
397.5373	0.7667	COLOR_NAME	49	Neutral	żółty	yellow	Neutral	Neutral	hit	n/a
398.2798	n/a	RESPONSE	n/a	n/a	n/a	n/a	n/a	n/a	n/a	yellow
398.304	1.0167	ITI	n/a	n/a	n/a	n/a	n/a	n/a	n/a	n/a
399.3207	0.5167	FIXCROSS	n/a	n/a	n/a	n/a	n/a	n/a	n/a	n/a
399.8373	0.7833	COLOR_NAME	50	Incongruent	żółty	yellow	niebieski	blue	hit	n/a
400.5971	n/a	RESPONSE	n/a	n/a	n/a	n/a	n/a	n/a	n/a	yellow
400.6207	1.0167	ITI	n/a	n/a	n/a	n/a	n/a	n/a	n/a	n/a
401.6374	0.5167	FIXCROSS	n/a	n/a	n/a	n/a	n/a	n/a	n/a	n/a
402.154	0.9333	COLOR_NAME	51	Neutral	zielony	green	Neutral	Neutral	hit	n/a
403.0584	n/a	RESPONSE	n/a	n/a	n/a	n/a	n/a	n/a	n/a	green
403.0874	1.0167	ITI	n/a	n/a	n/a	n/a	n/a	n/a	n/a	n/a
404.104	0.5167	FIXCROSS	n/a	n/a	n/a	n/a	n/a	n/a	n/a	n/a
404.6207	0.8667	COLOR_NAME	52	Neutral	niebieski	blue	Neutral	Neutral	hit	n/a
405.4556	n/a	RESPONSE	n/a	n/a	n/a	n/a	n/a	n/a	n/a	blue
405.4874	1.0167	ITI	n/a	n/a	n/a	n/a	n/a	n/a	n/a	n/a
406.5041	0.5167	FIXCROSS	n/a	n/a	n/a	n/a	n/a	n/a	n/a	n/a
407.0207	0.9667	COLOR_NAME	53	Incongruent	niebieski	blue	żółty	yellow	hit	n/a
407.9647	n/a	RESPONSE	n/a	n/a	n/a	n/a	n/a	n/a	n/a	blue
407.9874	1.0167	ITI	n/a	n/a	n/a	n/a	n/a	n/a	n/a	n/a
409.0041	0.5167	FIXCROSS	n/a	n/a	n/a	n/a	n/a	n/a	n/a	n/a
409.5207	0.8667	COLOR_NAME	54	Incongruent	niebieski	blue	żółty	yellow	hit	n/a
410.3619	n/a	RESPONSE	n/a	n/a	n/a	n/a	n/a	n/a	n/a	blue
410.3874	1.0167	ITI	n/a	n/a	n/a	n/a	n/a	n/a	n/a	n/a
411.4041	0.5167	FIXCROSS	n/a	n/a	n/a	n/a	n/a	n/a	n/a	n/a
411.9208	0.9	COLOR_NAME	55	Neutral	czerwony	red	Neutral	Neutral	hit	n/a
412.7911	n/a	RESPONSE	n/a	n/a	n/a	n/a	n/a	n/a	n/a	red
412.8208	1.0167	ITI	n/a	n/a	n/a	n/a	n/a	n/a	n/a	n/a
413.8374	0.5167	FIXCROSS	n/a	n/a	n/a	n/a	n/a	n/a	n/a	n/a
414.3541	0.7833	COLOR_NAME	56	Incongruent	żółty	yellow	zielony	green	hit	n/a
415.1085	n/a	RESPONSE	n/a	n/a	n/a	n/a	n/a	n/a	n/a	yellow
415.1374	1.0167	ITI	n/a	n/a	n/a	n/a	n/a	n/a	n/a	n/a
416.1541	0.5167	FIXCROSS	n/a	n/a	n/a	n/a	n/a	n/a	n/a	n/a
416.6708	0.6667	COLOR_NAME	57	Neutral	żółty	yellow	Neutral	Neutral	hit	n/a
417.3139	n/a	RESPONSE	n/a	n/a	n/a	n/a	n/a	n/a	n/a	yellow
417.3375	1.0167	ITI	n/a	n/a	n/a	n/a	n/a	n/a	n/a	n/a
418.3541	0.5167	FIXCROSS	n/a	n/a	n/a	n/a	n/a	n/a	n/a	n/a
418.8708	0.8667	COLOR_NAME	58	Neutral	niebieski	blue	Neutral	Neutral	hit	n/a
419.711	n/a	RESPONSE	n/a	n/a	n/a	n/a	n/a	n/a	n/a	blue
419.7375	1.0167	ITI	n/a	n/a	n/a	n/a	n/a	n/a	n/a	n/a
420.7542	0.5167	FIXCROSS	n/a	n/a	n/a	n/a	n/a	n/a	n/a	n/a
421.2708	0.7833	COLOR_NAME	59	Neutral	zielony	green	Neutral	Neutral	hit	n/a
422.0284	n/a	RESPONSE	n/a	n/a	n/a	n/a	n/a	n/a	n/a	green
422.0542	1.0167	ITI	n/a	n/a	n/a	n/a	n/a	n/a	n/a	n/a
423.0708	0.5167	FIXCROSS	n/a	n/a	n/a	n/a	n/a	n/a	n/a	n/a
423.5875	0.8667	COLOR_NAME	60	Incongruent	czerwony	red	żółty	yellow	hit	n/a
424.4256	n/a	RESPONSE	n/a	n/a	n/a	n/a	n/a	n/a	n/a	red
424.4542	1.0167	ITI	n/a	n/a	n/a	n/a	n/a	n/a	n/a	n/a
425.4709	0.5167	FIXCROSS	n/a	n/a	n/a	n/a	n/a	n/a	n/a	n/a
425.9875	0.7	COLOR_NAME	61	Neutral	czerwony	red	Neutral	Neutral	hit	n/a
426.6629	n/a	RESPONSE	n/a	n/a	n/a	n/a	n/a	n/a	n/a	red
426.6875	1.0167	ITI	n/a	n/a	n/a	n/a	n/a	n/a	n/a	n/a
427.7042	0.5167	FIXCROSS	n/a	n/a	n/a	n/a	n/a	n/a	n/a	n/a
428.2209	0.65	COLOR_NAME	62	Neutral	czerwony	red	Neutral	Neutral	hit	n/a
428.8524	n/a	RESPONSE	n/a	n/a	n/a	n/a	n/a	n/a	n/a	red
428.8709	1.0167	ITI	n/a	n/a	n/a	n/a	n/a	n/a	n/a	n/a
429.8876	0.5167	FIXCROSS	n/a	n/a	n/a	n/a	n/a	n/a	n/a	n/a
430.4042	0.6333	COLOR_NAME	63	Incongruent	czerwony	red	zielony	green	hit	n/a
431.0099	n/a	RESPONSE	n/a	n/a	n/a	n/a	n/a	n/a	n/a	red
431.0376	1.0167	ITI	n/a	n/a	n/a	n/a	n/a	n/a	n/a	n/a
432.0542	0.5167	FIXCROSS	n/a	n/a	n/a	n/a	n/a	n/a	n/a	n/a
432.5709	0.9167	COLOR_NAME	64	Neutral	zielony	green	Neutral	Neutral	hit	n/a
433.4551	n/a	RESPONSE	n/a	n/a	n/a	n/a	n/a	n/a	n/a	green
433.4876	1.0167	ITI	n/a	n/a	n/a	n/a	n/a	n/a	n/a	n/a
434.5043	0.5167	FIXCROSS	n/a	n/a	n/a	n/a	n/a	n/a	n/a	n/a
435.0209	0.9667	COLOR_NAME	65	Incongruent	niebieski	blue	żółty	yellow	hit	n/a
435.9642	n/a	RESPONSE	n/a	n/a	n/a	n/a	n/a	n/a	n/a	blue
435.9876	1.0167	ITI	n/a	n/a	n/a	n/a	n/a	n/a	n/a	n/a
437.0043	0.5167	FIXCROSS	n/a	n/a	n/a	n/a	n/a	n/a	n/a	n/a
437.5209	0.9333	COLOR_NAME	66	Neutral	zielony	green	Neutral	Neutral	hit	n/a
438.4253	n/a	RESPONSE	n/a	n/a	n/a	n/a	n/a	n/a	n/a	green
438.4543	1.0167	ITI	n/a	n/a	n/a	n/a	n/a	n/a	n/a	n/a
439.4709	0.5167	FIXCROSS	n/a	n/a	n/a	n/a	n/a	n/a	n/a	n/a
439.9876	0.6667	COLOR_NAME	67	Incongruent	zielony	green	żółty	yellow	hit	n/a
440.6308	n/a	RESPONSE	n/a	n/a	n/a	n/a	n/a	n/a	n/a	green
440.6543	1.0167	ITI	n/a	n/a	n/a	n/a	n/a	n/a	n/a	n/a
441.671	0.5167	FIXCROSS	n/a	n/a	n/a	n/a	n/a	n/a	n/a	n/a
442.1876	0.8167	COLOR_NAME	68	Neutral	żółty	yellow	Neutral	Neutral	hit	n/a
442.9799	n/a	RESPONSE	n/a	n/a	n/a	n/a	n/a	n/a	n/a	yellow
443.0043	1.0167	ITI	n/a	n/a	n/a	n/a	n/a	n/a	n/a	n/a
444.021	0.5167	FIXCROSS	n/a	n/a	n/a	n/a	n/a	n/a	n/a	n/a
444.5377	0.9667	COLOR_NAME	69	Incongruent	niebieski	blue	zielony	green	hit	n/a
445.4731	n/a	RESPONSE	n/a	n/a	n/a	n/a	n/a	n/a	n/a	blue
445.5043	1.0167	ITI	n/a	n/a	n/a	n/a	n/a	n/a	n/a	n/a
446.521	0.5167	FIXCROSS	n/a	n/a	n/a	n/a	n/a	n/a	n/a	n/a
447.0377	0.8167	COLOR_NAME	70	Incongruent	zielony	green	czerwony	red	hit	n/a
447.8224	n/a	RESPONSE	n/a	n/a	n/a	n/a	n/a	n/a	n/a	green
447.8544	1.0167	ITI	n/a	n/a	n/a	n/a	n/a	n/a	n/a	n/a
448.871	0.5167	FIXCROSS	n/a	n/a	n/a	n/a	n/a	n/a	n/a	n/a
449.3877	0.8333	COLOR_NAME	71	Neutral	czerwony	red	Neutral	Neutral	hit	n/a
450.2037	n/a	RESPONSE	n/a	n/a	n/a	n/a	n/a	n/a	n/a	red
450.221	1.0167	ITI	n/a	n/a	n/a	n/a	n/a	n/a	n/a	n/a
451.2377	0.5167	FIXCROSS	n/a	n/a	n/a	n/a	n/a	n/a	n/a	n/a
451.7544	0.7667	COLOR_NAME	72	Neutral	czerwony	red	Neutral	Neutral	hit	n/a
452.489	n/a	RESPONSE	n/a	n/a	n/a	n/a	n/a	n/a	n/a	red
452.521	1.0334	ITI	n/a	n/a	n/a	n/a	n/a	n/a	n/a	n/a
456.9478	n/a	RESPONSE	n/a	n/a	n/a	n/a	n/a	n/a	n/a	n/a
