onset	duration	trial_type	melody_number	melody_part	key	sound	action
0.0	14.088	CUE_START	n/a	n/a	n/a	n/a	n/a
14.088	7.76	FIXCROSS	n/a	n/a	n/a	n/a	n/a
21.848	6.316	CUE_LISTEN	M3	1	n/a	n/a	n/a
28.163	7.758	FIXCROSS	n/a	n/a	n/a	n/a	n/a
35.922	6.317	CUE_PLAYBACK_BOTH_HANDS	M3	1	n/a	n/a	n/a
36.735	n/a	RESPONSE	M3	1	00	C3	press
36.786	n/a	RESPONSE	M3	1	12	C4	press
37.247	n/a	RESPONSE	M3	1	07	G3	press
37.299	n/a	RESPONSE	M3	1	14	D4	press
37.336	n/a	RESPONSE	M3	1	00	C3	release
37.382	n/a	RESPONSE	M3	1	12	C4	release
37.709	n/a	RESPONSE	M3	1	14	D4	release
37.804	n/a	RESPONSE	M3	1	16	E4	press
37.806	n/a	RESPONSE	M3	1	04	E3	press
37.814	n/a	RESPONSE	M3	1	07	G3	release
38.247	n/a	RESPONSE	M3	1	16	E4	release
38.287	n/a	RESPONSE	M3	1	07	G3	press
38.295	n/a	RESPONSE	M3	1	12	C4	press
38.361	n/a	RESPONSE	M3	1	04	E3	release
38.584	n/a	RESPONSE	M3	1	12	C4	release
38.627	n/a	RESPONSE	M3	1	07	G3	release
38.755	n/a	RESPONSE	M3	1	00	C3	press
38.811	n/a	RESPONSE	M3	1	12	C4	press
39.286	n/a	RESPONSE	M3	1	07	G3	press
39.317	n/a	RESPONSE	M3	1	14	D4	press
39.351	n/a	RESPONSE	M3	1	00	C3	release
39.38	n/a	RESPONSE	M3	1	12	C4	release
39.741	n/a	RESPONSE	M3	1	07	G3	release
39.772	n/a	RESPONSE	M3	1	16	E4	press
39.775	n/a	RESPONSE	M3	1	04	E3	press
39.777	n/a	RESPONSE	M3	1	14	D4	release
40.236	n/a	RESPONSE	M3	1	16	E4	release
40.247	n/a	RESPONSE	M3	1	07	G3	press
40.25	n/a	RESPONSE	M3	1	12	C4	press
40.3	n/a	RESPONSE	M3	1	04	E3	release
40.731	n/a	RESPONSE	M3	1	12	C4	release
42.238	7.758	FIXCROSS	n/a	n/a	n/a	n/a	n/a
47.494	n/a	RESPONSE	M3	1	07	G3	release
49.996	6.325	CUE_LISTEN	M3	2	n/a	n/a	n/a
56.321	7.758	FIXCROSS	n/a	n/a	n/a	n/a	n/a
64.08	6.317	CUE_PLAYBACK_BOTH_HANDS	M3	2	n/a	n/a	n/a
64.691	n/a	RESPONSE	M3	2	00	C3	press
64.742	n/a	RESPONSE	M3	2	16	E4	press
65.184	n/a	RESPONSE	M3	2	07	G3	press
65.225	n/a	RESPONSE	M3	2	17	F4	press
65.306	n/a	RESPONSE	M3	2	16	E4	release
65.317	n/a	RESPONSE	M3	2	00	C3	release
65.684	n/a	RESPONSE	M3	2	04	E3	press
65.699	n/a	RESPONSE	M3	2	19	G4	press
65.759	n/a	RESPONSE	M3	2	07	G3	release
65.856	n/a	RESPONSE	M3	2	17	F4	release
66.159	n/a	RESPONSE	M3	2	07	G3	press
66.429	n/a	RESPONSE	M3	2	04	E3	release
66.57	n/a	RESPONSE	M3	2	07	G3	release
66.59	n/a	RESPONSE	M3	2	19	G4	release
66.652	n/a	RESPONSE	M3	2	16	E4	press
66.655	n/a	RESPONSE	M3	2	00	C3	press
67.132	n/a	RESPONSE	M3	2	07	G3	press
67.144	n/a	RESPONSE	M3	2	17	F4	press
67.179	n/a	RESPONSE	M3	2	16	E4	release
67.209	n/a	RESPONSE	M3	2	00	C3	release
67.621	n/a	RESPONSE	M3	2	19	G4	press
67.687	n/a	RESPONSE	M3	2	07	G3	release
67.702	n/a	RESPONSE	M3	2	04	E3	press
67.801	n/a	RESPONSE	M3	2	17	F4	release
68.194	n/a	RESPONSE	M3	2	07	G3	press
68.404	n/a	RESPONSE	M3	2	04	E3	release
68.887	n/a	RESPONSE	M3	2	07	G3	release
68.934	n/a	RESPONSE	M3	2	19	G4	release
70.396	7.758	FIXCROSS	n/a	n/a	n/a	n/a	n/a
78.155	6.317	CUE_LISTEN	M3	1	n/a	n/a	n/a
84.472	7.758	FIXCROSS	n/a	n/a	n/a	n/a	n/a
92.23	6.325	CUE_PLAYBACK_BOTH_HANDS	M3	1	n/a	n/a	n/a
93.114	n/a	RESPONSE	M3	1	00	C3	press
93.225	n/a	RESPONSE	M3	1	19	G4	press
93.486	n/a	RESPONSE	M3	1	21	A4	press
93.54	n/a	RESPONSE	M3	1	19	G4	release
93.57	n/a	RESPONSE	M3	1	07	G3	press
93.681	n/a	RESPONSE	M3	1	00	C3	release
93.755	n/a	RESPONSE	M3	1	21	A4	release
93.774	n/a	RESPONSE	M3	1	19	G4	press
94.425	n/a	RESPONSE	M3	1	17	F4	press
94.539	n/a	RESPONSE	M3	1	19	G4	release
94.689	n/a	RESPONSE	M3	1	04	E3	press
94.709	n/a	RESPONSE	M3	1	16	E4	press
94.751	n/a	RESPONSE	M3	1	07	G3	release
94.841	n/a	RESPONSE	M3	1	17	F4	release
95.252	n/a	RESPONSE	M3	1	07	G3	press
95.305	n/a	RESPONSE	M3	1	12	C4	press
95.317	n/a	RESPONSE	M3	1	14	D4	press
95.416	n/a	RESPONSE	M3	1	16	E4	release
95.419	n/a	RESPONSE	M3	1	04	E3	release
95.645	n/a	RESPONSE	M3	1	14	D4	release
95.675	n/a	RESPONSE	M3	1	12	C4	release
95.774	n/a	RESPONSE	M3	1	07	G3	release
95.964	n/a	RESPONSE	M3	1	00	C3	press
95.991	n/a	RESPONSE	M3	1	19	G4	press
96.236	n/a	RESPONSE	M3	1	21	A4	press
96.284	n/a	RESPONSE	M3	1	19	G4	release
96.467	n/a	RESPONSE	M3	1	07	G3	press
96.47	n/a	RESPONSE	M3	1	21	A4	release
96.479	n/a	RESPONSE	M3	1	19	G4	press
96.487	n/a	RESPONSE	M3	1	00	C3	release
96.689	n/a	RESPONSE	M3	1	17	F4	press
96.777	n/a	RESPONSE	M3	1	19	G4	release
96.946	n/a	RESPONSE	M3	1	16	E4	press
96.956	n/a	RESPONSE	M3	1	04	E3	press
97.022	n/a	RESPONSE	M3	1	07	G3	release
97.427	n/a	RESPONSE	M3	1	07	G3	press
97.439	n/a	RESPONSE	M3	1	12	C4	press
97.651	n/a	RESPONSE	M3	1	16	E4	release
97.67	n/a	RESPONSE	M3	1	04	E3	release
97.74	n/a	RESPONSE	M3	1	17	F4	release
97.921	n/a	RESPONSE	M3	1	12	C4	release
97.934	n/a	RESPONSE	M3	1	07	G3	release
98.555	7.758	FIXCROSS	n/a	n/a	n/a	n/a	n/a
106.313	6.317	CUE_LISTEN	M3	2	n/a	n/a	n/a
112.63	7.758	FIXCROSS	n/a	n/a	n/a	n/a	n/a
120.388	6.325	CUE_PLAYBACK_BOTH_HANDS	M3	2	n/a	n/a	n/a
121.076	n/a	RESPONSE	M3	2	00	C3	press
121.097	n/a	RESPONSE	M3	2	12	C4	press
121.409	n/a	RESPONSE	M3	2	12	C4	release
121.65	n/a	RESPONSE	M3	2	07	G3	press
121.951	n/a	RESPONSE	M3	2	07	G3	release
122.062	n/a	RESPONSE	M3	2	00	C3	release
122.234	n/a	RESPONSE	M3	2	12	C4	press
122.255	n/a	RESPONSE	M3	2	00	C3	press
123.146	n/a	RESPONSE	M3	2	12	C4	release
123.157	n/a	RESPONSE	M3	2	00	C3	release
123.449	n/a	RESPONSE	M3	2	00	C3	press
123.46	n/a	RESPONSE	M3	2	12	C4	press
123.782	n/a	RESPONSE	M3	2	12	C4	release
124.044	n/a	RESPONSE	M3	2	07	G3	press
124.345	n/a	RESPONSE	M3	2	07	G3	release
124.416	n/a	RESPONSE	M3	2	00	C3	release
124.637	n/a	RESPONSE	M3	2	12	C4	press
124.64	n/a	RESPONSE	M3	2	00	C3	press
125.721	n/a	RESPONSE	M3	2	12	C4	release
125.745	n/a	RESPONSE	M3	2	00	C3	release
126.713	7.758	FIXCROSS	n/a	n/a	n/a	n/a	n/a
134.472	6.317	CUE_LISTEN	M1	1	n/a	n/a	n/a
140.788	7.758	FIXCROSS	n/a	n/a	n/a	n/a	n/a
148.547	6.317	CUE_PLAYBACK_BOTH_HANDS	M1	1	n/a	n/a	n/a
149.76	n/a	RESPONSE	M1	1	04	E3	press
149.762	n/a	RESPONSE	M1	1	00	C3	press
149.765	n/a	RESPONSE	M1	1	21	A4	press
149.774	n/a	RESPONSE	M1	1	07	G3	press
150.285	n/a	RESPONSE	M1	1	17	F4	press
150.316	n/a	RESPONSE	M1	1	16	E4	press
150.47	n/a	RESPONSE	M1	1	16	E4	release
150.578	n/a	RESPONSE	M1	1	21	A4	release
150.61	n/a	RESPONSE	M1	1	17	F4	release
150.771	n/a	RESPONSE	M1	1	17	F4	press
150.872	n/a	RESPONSE	M1	1	00	C3	release
151.104	n/a	RESPONSE	M1	1	04	E3	release
151.125	n/a	RESPONSE	M1	1	07	G3	release
151.136	n/a	RESPONSE	M1	1	17	F4	release
152.849	n/a	RESPONSE	M1	1	02	D3	press
152.888	n/a	RESPONSE	M1	1	07	G3	press
152.96	n/a	RESPONSE	M1	1	19	G4	press
152.971	n/a	RESPONSE	M1	1	05	F3	press
153.584	n/a	RESPONSE	M1	1	14	D4	press
153.715	n/a	RESPONSE	M1	1	19	G4	release
153.816	n/a	RESPONSE	M1	1	14	D4	release
153.99	n/a	RESPONSE	M1	1	14	D4	press
154.249	n/a	RESPONSE	M1	1	14	D4	release
154.29	n/a	RESPONSE	M1	1	02	D3	release
154.311	n/a	RESPONSE	M1	1	05	F3	release
154.422	n/a	RESPONSE	M1	1	07	G3	release
154.634	n/a	RESPONSE	M1	1	21	A4	press
154.685	n/a	RESPONSE	M1	1	04	E3	press
154.688	n/a	RESPONSE	M1	1	00	C3	press
154.707	n/a	RESPONSE	M1	1	07	G3	press
154.863	7.758	FIXCROSS	n/a	n/a	n/a	n/a	n/a
155.329	n/a	RESPONSE	M1	1	21	A4	release
155.5	n/a	RESPONSE	M1	1	00	C3	release
156.046	n/a	RESPONSE	M1	1	04	E3	release
156.312	n/a	RESPONSE	M1	1	07	G3	release
162.622	6.317	CUE_LISTEN	M1	2	n/a	n/a	n/a
168.938	7.758	FIXCROSS	n/a	n/a	n/a	n/a	n/a
176.697	6.325	CUE_PLAYBACK_BOTH_HANDS	M1	2	n/a	n/a	n/a
177.356	n/a	RESPONSE	M1	2	04	E3	press
177.375	n/a	RESPONSE	M1	2	19	G4	press
177.411	n/a	RESPONSE	M1	2	07	G3	press
177.414	n/a	RESPONSE	M1	2	00	C3	press
177.935	n/a	RESPONSE	M1	2	16	E4	press
178.028	n/a	RESPONSE	M1	2	19	G4	release
178.198	n/a	RESPONSE	M1	2	16	E4	release
178.414	n/a	RESPONSE	M1	2	16	E4	press
178.64	n/a	RESPONSE	M1	2	00	C3	release
178.682	n/a	RESPONSE	M1	2	16	E4	release
178.71	n/a	RESPONSE	M1	2	04	E3	release
178.755	n/a	RESPONSE	M1	2	07	G3	release
179.011	n/a	RESPONSE	M1	2	07	G3	press
179.016	n/a	RESPONSE	M1	2	05	F3	press
179.018	n/a	RESPONSE	M1	2	17	F4	press
179.047	n/a	RESPONSE	M1	2	02	D3	press
179.554	n/a	RESPONSE	M1	2	17	F4	release
179.556	n/a	RESPONSE	M1	2	14	D4	press
179.566	n/a	RESPONSE	M1	2	12	C4	press
179.698	n/a	RESPONSE	M1	2	12	C4	release
179.838	n/a	RESPONSE	M1	2	14	D4	release
180.1	n/a	RESPONSE	M1	2	14	D4	press
180.341	n/a	RESPONSE	M1	2	14	D4	release
180.355	n/a	RESPONSE	M1	2	02	D3	release
180.394	n/a	RESPONSE	M1	2	05	F3	release
180.695	n/a	RESPONSE	M1	2	04	E3	press
180.697	n/a	RESPONSE	M1	2	00	C3	press
180.737	n/a	RESPONSE	M1	2	12	C4	press
181.031	n/a	RESPONSE	M1	2	16	E4	press
181.131	n/a	RESPONSE	M1	2	12	C4	release
181.311	n/a	RESPONSE	M1	2	12	C4	press
181.352	n/a	RESPONSE	M1	2	16	E4	release
182.274	n/a	RESPONSE	M1	2	12	C4	release
182.415	n/a	RESPONSE	M1	2	00	C3	release
182.576	n/a	RESPONSE	M1	2	04	E3	release
183.022	7.758	FIXCROSS	n/a	n/a	n/a	n/a	n/a
184.189	n/a	RESPONSE	M1	2	07	G3	release
190.78	6.317	CUE_LISTEN	M2	1	n/a	n/a	n/a
197.097	7.758	FIXCROSS	n/a	n/a	n/a	n/a	n/a
204.855	6.317	CUE_PLAYBACK_BOTH_HANDS	M2	1	n/a	n/a	n/a
205.704	n/a	RESPONSE	M2	1	07	G3	press
205.706	n/a	RESPONSE	M2	1	00	C3	press
205.726	n/a	RESPONSE	M2	1	24	C5	press
206.197	n/a	RESPONSE	M2	1	19	G4	press
206.291	n/a	RESPONSE	M2	1	24	C5	release
206.406	n/a	RESPONSE	M2	1	19	G4	release
206.424	n/a	RESPONSE	M2	1	00	C3	release
206.495	n/a	RESPONSE	M2	1	07	G3	release
206.616	n/a	RESPONSE	M2	1	07	G3	press
206.625	n/a	RESPONSE	M2	1	00	C3	press
206.627	n/a	RESPONSE	M2	1	19	G4	press
207.081	n/a	RESPONSE	M2	1	17	F4	press
207.224	n/a	RESPONSE	M2	1	19	G4	release
207.318	n/a	RESPONSE	M2	1	00	C3	release
207.337	n/a	RESPONSE	M2	1	17	F4	release
207.375	n/a	RESPONSE	M2	1	07	G3	release
207.56	n/a	RESPONSE	M2	1	16	E4	press
207.565	n/a	RESPONSE	M2	1	07	G3	press
207.579	n/a	RESPONSE	M2	1	00	C3	press
208.042	n/a	RESPONSE	M2	1	17	F4	press
208.106	n/a	RESPONSE	M2	1	16	E4	release
208.272	n/a	RESPONSE	M2	1	17	F4	release
208.31	n/a	RESPONSE	M2	1	07	G3	release
208.33	n/a	RESPONSE	M2	1	00	C3	release
208.459	n/a	RESPONSE	M2	1	00	C3	press
208.462	n/a	RESPONSE	M2	1	07	G3	press
208.465	n/a	RESPONSE	M2	1	19	G4	press
209.409	n/a	RESPONSE	M2	1	19	G4	release
209.469	n/a	RESPONSE	M2	1	00	C3	release
211.172	7.758	FIXCROSS	n/a	n/a	n/a	n/a	n/a
218.93	6.325	CUE_LISTEN	M2	2	n/a	n/a	n/a
225.255	7.758	FIXCROSS	n/a	n/a	n/a	n/a	n/a
226.789	n/a	RESPONSE	M2	2	07	G3	release
233.014	6.317	CUE_PLAYBACK_BOTH_HANDS	M2	2	n/a	n/a	n/a
233.645	n/a	RESPONSE	M2	2	24	C5	press
233.647	n/a	RESPONSE	M2	2	00	C3	press
233.65	n/a	RESPONSE	M2	2	07	G3	press
234.118	n/a	RESPONSE	M2	2	19	G4	press
234.17	n/a	RESPONSE	M2	2	24	C5	release
234.301	n/a	RESPONSE	M2	2	00	C3	release
234.304	n/a	RESPONSE	M2	2	19	G4	release
234.315	n/a	RESPONSE	M2	2	07	G3	release
234.557	n/a	RESPONSE	M2	2	07	G3	press
234.566	n/a	RESPONSE	M2	2	00	C3	press
234.577	n/a	RESPONSE	M2	2	19	G4	press
235.019	n/a	RESPONSE	M2	2	17	F4	press
235.1	n/a	RESPONSE	M2	2	19	G4	release
235.222	n/a	RESPONSE	M2	2	00	C3	release
235.272	n/a	RESPONSE	M2	2	17	F4	release
235.275	n/a	RESPONSE	M2	2	07	G3	release
235.512	n/a	RESPONSE	M2	2	16	E4	press
235.535	n/a	RESPONSE	M2	2	07	G3	press
235.552	n/a	RESPONSE	M2	2	00	C3	press
236.16	n/a	RESPONSE	M2	2	14	D4	press
236.406	n/a	RESPONSE	M2	2	14	D4	release
236.578	n/a	RESPONSE	M2	2	16	E4	release
236.658	n/a	RESPONSE	M2	2	00	C3	release
236.704	n/a	RESPONSE	M2	2	07	G3	release
236.838	n/a	RESPONSE	M2	2	14	D4	press
236.902	n/a	RESPONSE	M2	2	07	G3	press
236.91	n/a	RESPONSE	M2	2	00	C3	press
237.927	n/a	RESPONSE	M2	2	14	D4	release
238.032	n/a	RESPONSE	M2	2	00	C3	release
239.33	7.758	FIXCROSS	n/a	n/a	n/a	n/a	n/a
247.088	6.325	CUE_LISTEN	M2	1	n/a	n/a	n/a
248.695	n/a	RESPONSE	M2	1	07	G3	release
253.414	7.758	FIXCROSS	n/a	n/a	n/a	n/a	n/a
261.172	6.317	CUE_PLAYBACK_BOTH_HANDS	M2	1	n/a	n/a	n/a
261.736	n/a	RESPONSE	M2	1	00	C3	press
261.757	n/a	RESPONSE	M2	1	07	G3	press
261.779	n/a	RESPONSE	M2	1	12	C4	press
262.271	n/a	RESPONSE	M2	1	14	D4	press
262.362	n/a	RESPONSE	M2	1	12	C4	release
262.532	n/a	RESPONSE	M2	1	14	D4	release
262.554	n/a	RESPONSE	M2	1	00	C3	release
262.576	n/a	RESPONSE	M2	1	07	G3	release
262.726	n/a	RESPONSE	M2	1	00	C3	press
262.74	n/a	RESPONSE	M2	1	16	E4	press
262.748	n/a	RESPONSE	M2	1	07	G3	press
263.212	n/a	RESPONSE	M2	1	16	E4	release
263.221	n/a	RESPONSE	M2	1	14	D4	press
263.474	n/a	RESPONSE	M2	1	14	D4	release
263.476	n/a	RESPONSE	M2	1	00	C3	release
263.531	n/a	RESPONSE	M2	1	07	G3	release
263.672	n/a	RESPONSE	M2	1	16	E4	press
263.684	n/a	RESPONSE	M2	1	00	C3	press
263.686	n/a	RESPONSE	M2	1	07	G3	press
264.186	n/a	RESPONSE	M2	1	17	F4	press
264.188	n/a	RESPONSE	M2	1	16	E4	release
264.438	n/a	RESPONSE	M2	1	17	F4	release
264.45	n/a	RESPONSE	M2	1	00	C3	release
264.454	n/a	RESPONSE	M2	1	07	G3	release
264.642	n/a	RESPONSE	M2	1	19	G4	press
264.654	n/a	RESPONSE	M2	1	00	C3	press
264.675	n/a	RESPONSE	M2	1	07	G3	press
265.557	n/a	RESPONSE	M2	1	19	G4	release
265.685	n/a	RESPONSE	M2	1	00	C3	release
267.488	7.758	FIXCROSS	n/a	n/a	n/a	n/a	n/a
275.247	6.317	CUE_LISTEN	M2	2	n/a	n/a	n/a
281.564	7.759	FIXCROSS	n/a	n/a	n/a	n/a	n/a
282.842	n/a	RESPONSE	M2	2	07	G3	release
289.322	6.325	CUE_PLAYBACK_BOTH_HANDS	M2	2	n/a	n/a	n/a
289.921	n/a	RESPONSE	M2	2	00	C3	press
289.932	n/a	RESPONSE	M2	2	16	E4	press
289.935	n/a	RESPONSE	M2	2	07	G3	press
290.385	n/a	RESPONSE	M2	2	19	G4	press
290.456	n/a	RESPONSE	M2	2	16	E4	release
290.639	n/a	RESPONSE	M2	2	00	C3	release
290.649	n/a	RESPONSE	M2	2	19	G4	release
290.651	n/a	RESPONSE	M2	2	07	G3	release
290.841	n/a	RESPONSE	M2	2	00	C3	press
290.844	n/a	RESPONSE	M2	2	19	G4	press
290.855	n/a	RESPONSE	M2	2	07	G3	press
291.317	n/a	RESPONSE	M2	2	17	F4	press
291.397	n/a	RESPONSE	M2	2	19	G4	release
291.557	n/a	RESPONSE	M2	2	17	F4	release
291.611	n/a	RESPONSE	M2	2	00	C3	release
291.642	n/a	RESPONSE	M2	2	07	G3	release
291.752	n/a	RESPONSE	M2	2	16	E4	press
291.762	n/a	RESPONSE	M2	2	00	C3	press
291.776	n/a	RESPONSE	M2	2	07	G3	press
292.236	n/a	RESPONSE	M2	2	14	D4	press
292.307	n/a	RESPONSE	M2	2	16	E4	release
292.457	n/a	RESPONSE	M2	2	00	C3	release
292.479	n/a	RESPONSE	M2	2	14	D4	release
292.5	n/a	RESPONSE	M2	2	07	G3	release
292.681	n/a	RESPONSE	M2	2	12	C4	press
292.684	n/a	RESPONSE	M2	2	00	C3	press
292.686	n/a	RESPONSE	M2	2	07	G3	press
293.756	n/a	RESPONSE	M2	2	12	C4	release
293.897	n/a	RESPONSE	M2	2	00	C3	release
295.647	7.758	FIXCROSS	n/a	n/a	n/a	n/a	n/a
302.101	n/a	RESPONSE	M2	2	07	G3	release
303.405	6.317	CUE_LISTEN	M3	1	n/a	n/a	n/a
309.722	7.767	FIXCROSS	n/a	n/a	n/a	n/a	n/a
317.489	6.308	CUE_PLAYBACK_RIGHT_HAND	M3	1	n/a	n/a	n/a
317.954	n/a	RESPONSE	M3	1	00	C3	press
317.994	n/a	RESPONSE	M3	1	12	C4	press
318.352	n/a	RESPONSE	M3	1	00	C3	release
318.356	n/a	RESPONSE	M3	1	12	C4	release
318.592	n/a	RESPONSE	M3	1	12	C4	press
319.124	n/a	RESPONSE	M3	1	14	D4	press
319.207	n/a	RESPONSE	M3	1	12	C4	release
319.606	n/a	RESPONSE	M3	1	16	E4	press
319.677	n/a	RESPONSE	M3	1	14	D4	release
320.049	n/a	RESPONSE	M3	1	16	E4	release
320.121	n/a	RESPONSE	M3	1	12	C4	press
320.421	n/a	RESPONSE	M3	1	12	C4	release
320.652	n/a	RESPONSE	M3	1	12	C4	press
321.166	n/a	RESPONSE	M3	1	14	D4	press
321.265	n/a	RESPONSE	M3	1	12	C4	release
321.599	n/a	RESPONSE	M3	1	16	E4	press
321.647	n/a	RESPONSE	M3	1	14	D4	release
322.08	n/a	RESPONSE	M3	1	16	E4	release
322.09	n/a	RESPONSE	M3	1	12	C4	press
322.591	n/a	RESPONSE	M3	1	12	C4	release
323.797	7.758	FIXCROSS	n/a	n/a	n/a	n/a	n/a
331.555	6.325	CUE_LISTEN	M3	2	n/a	n/a	n/a
337.88	7.758	FIXCROSS	n/a	n/a	n/a	n/a	n/a
345.639	6.317	CUE_PLAYBACK_RIGHT_HAND	M3	2	n/a	n/a	n/a
346.304	n/a	RESPONSE	M3	2	16	E4	press
346.771	n/a	RESPONSE	M3	2	17	F4	press
346.845	n/a	RESPONSE	M3	2	16	E4	release
347.177	n/a	RESPONSE	M3	2	17	F4	release
347.191	n/a	RESPONSE	M3	2	19	G4	press
348.042	n/a	RESPONSE	M3	2	19	G4	release
348.156	n/a	RESPONSE	M3	2	16	E4	press
348.516	n/a	RESPONSE	M3	2	16	E4	release
348.605	n/a	RESPONSE	M3	2	17	F4	press
348.925	n/a	RESPONSE	M3	2	17	F4	release
348.994	n/a	RESPONSE	M3	2	19	G4	press
350.138	n/a	RESPONSE	M3	2	19	G4	release
351.955	7.758	FIXCROSS	n/a	n/a	n/a	n/a	n/a
359.714	6.317	CUE_LISTEN	M3	1	n/a	n/a	n/a
366.03	7.758	FIXCROSS	n/a	n/a	n/a	n/a	n/a
373.789	6.325	CUE_PLAYBACK_RIGHT_HAND	M3	1	n/a	n/a	n/a
374.284	n/a	RESPONSE	M3	1	19	G4	press
374.545	n/a	RESPONSE	M3	1	21	A4	press
374.566	n/a	RESPONSE	M3	1	19	G4	release
374.807	n/a	RESPONSE	M3	1	19	G4	press
374.819	n/a	RESPONSE	M3	1	21	A4	release
375.19	n/a	RESPONSE	M3	1	17	F4	press
375.314	n/a	RESPONSE	M3	1	19	G4	release
375.531	n/a	RESPONSE	M3	1	16	E4	press
376.126	n/a	RESPONSE	M3	1	16	E4	release
376.128	n/a	RESPONSE	M3	1	12	C4	press
376.385	n/a	RESPONSE	M3	1	12	C4	release
376.48	n/a	RESPONSE	M3	1	17	F4	release
376.721	n/a	RESPONSE	M3	1	19	G4	press
376.958	n/a	RESPONSE	M3	1	19	G4	release
377.007	n/a	RESPONSE	M3	1	21	A4	press
377.325	n/a	RESPONSE	M3	1	19	G4	press
377.327	n/a	RESPONSE	M3	1	21	A4	release
377.622	n/a	RESPONSE	M3	1	17	F4	press
377.722	n/a	RESPONSE	M3	1	19	G4	release
377.956	n/a	RESPONSE	M3	1	16	E4	press
378.127	n/a	RESPONSE	M3	1	17	F4	release
378.57	n/a	RESPONSE	M3	1	12	C4	press
378.68	n/a	RESPONSE	M3	1	16	E4	release
378.982	n/a	RESPONSE	M3	1	12	C4	release
380.114	7.758	FIXCROSS	n/a	n/a	n/a	n/a	n/a
387.872	6.317	CUE_LISTEN	M3	2	n/a	n/a	n/a
394.189	7.758	FIXCROSS	n/a	n/a	n/a	n/a	n/a
401.947	6.317	CUE_PLAYBACK_RIGHT_HAND	M3	2	n/a	n/a	n/a
402.447	n/a	RESPONSE	M3	2	12	C4	press
402.837	n/a	RESPONSE	M3	2	12	C4	release
403.068	n/a	RESPONSE	M3	2	07	G3	press
403.09	n/a	RESPONSE	M3	2	09	A3	press
403.392	n/a	RESPONSE	M3	2	09	A3	release
403.462	n/a	RESPONSE	M3	2	07	G3	release
403.827	n/a	RESPONSE	M3	2	12	C4	press
404.879	n/a	RESPONSE	M3	2	12	C4	release
405.148	n/a	RESPONSE	M3	2	12	C4	press
405.579	n/a	RESPONSE	M3	2	12	C4	release
405.826	n/a	RESPONSE	M3	2	07	G3	press
406.187	n/a	RESPONSE	M3	2	07	G3	release
406.451	n/a	RESPONSE	M3	2	12	C4	press
407.767	n/a	RESPONSE	M3	2	12	C4	release
408.264	7.758	FIXCROSS	n/a	n/a	n/a	n/a	n/a
416.022	6.325	CUE_LISTEN	M1	1	n/a	n/a	n/a
422.347	7.758	FIXCROSS	n/a	n/a	n/a	n/a	n/a
430.106	6.317	CUE_PLAYBACK_RIGHT_HAND	M1	1	n/a	n/a	n/a
430.768	n/a	RESPONSE	M1	1	19	G4	press
431.29	n/a	RESPONSE	M1	1	16	E4	press
431.331	n/a	RESPONSE	M1	1	19	G4	release
431.624	n/a	RESPONSE	M1	1	16	E4	release
431.756	n/a	RESPONSE	M1	1	16	E4	press
432.105	n/a	RESPONSE	M1	1	16	E4	release
432.216	n/a	RESPONSE	M1	1	17	F4	press
432.717	n/a	RESPONSE	M1	1	17	F4	release
432.72	n/a	RESPONSE	M1	1	14	D4	press
433.51	n/a	RESPONSE	M1	1	14	D4	release
433.584	n/a	RESPONSE	M1	1	14	D4	press
433.904	n/a	RESPONSE	M1	1	14	D4	release
434.025	n/a	RESPONSE	M1	1	12	C4	press
434.366	n/a	RESPONSE	M1	1	12	C4	release
434.429	n/a	RESPONSE	M1	1	16	E4	press
434.779	n/a	RESPONSE	M1	1	16	E4	release
434.781	n/a	RESPONSE	M1	1	19	G4	press
435.815	n/a	RESPONSE	M1	1	19	G4	release
436.422	7.759	FIXCROSS	n/a	n/a	n/a	n/a	n/a
444.181	6.333	CUE_LISTEN	M1	2	n/a	n/a	n/a
450.514	7.758	FIXCROSS	n/a	n/a	n/a	n/a	n/a
458.272	6.308	CUE_PLAYBACK_RIGHT_HAND	M1	2	n/a	n/a	n/a
459.125	n/a	RESPONSE	M1	2	19	G4	press
459.605	n/a	RESPONSE	M1	2	16	E4	press
459.625	n/a	RESPONSE	M1	2	19	G4	release
459.997	n/a	RESPONSE	M1	2	16	E4	release
460.067	n/a	RESPONSE	M1	2	16	E4	press
460.409	n/a	RESPONSE	M1	2	16	E4	release
460.55	n/a	RESPONSE	M1	2	17	F4	press
461.054	n/a	RESPONSE	M1	2	17	F4	release
461.082	n/a	RESPONSE	M1	2	14	D4	press
461.095	n/a	RESPONSE	M1	2	12	C4	press
461.215	n/a	RESPONSE	M1	2	12	C4	release
461.456	n/a	RESPONSE	M1	2	14	D4	release
461.617	n/a	RESPONSE	M1	2	14	D4	press
461.93	n/a	RESPONSE	M1	2	14	D4	release
462.08	n/a	RESPONSE	M1	2	12	C4	press
462.362	n/a	RESPONSE	M1	2	12	C4	release
462.375	n/a	RESPONSE	M1	2	16	E4	press
462.666	n/a	RESPONSE	M1	2	12	C4	press
462.725	n/a	RESPONSE	M1	2	16	E4	release
463.677	n/a	RESPONSE	M1	2	12	C4	release
464.58	7.759	FIXCROSS	n/a	n/a	n/a	n/a	n/a
472.339	6.317	CUE_LISTEN	M2	1	n/a	n/a	n/a
478.656	7.758	FIXCROSS	n/a	n/a	n/a	n/a	n/a
486.414	6.325	CUE_PLAYBACK_BOTH_HANDS	M2	1	n/a	n/a	n/a
487.806	n/a	RESPONSE	M2	1	00	C3	press
487.81	n/a	RESPONSE	M2	1	24	C5	press
487.827	n/a	RESPONSE	M2	1	07	G3	press
488.331	n/a	RESPONSE	M2	1	24	C5	release
488.334	n/a	RESPONSE	M2	1	19	G4	press
488.535	n/a	RESPONSE	M2	1	07	G3	release
488.554	n/a	RESPONSE	M2	1	19	G4	release
488.584	n/a	RESPONSE	M2	1	00	C3	release
488.845	n/a	RESPONSE	M2	1	00	C3	press
488.85	n/a	RESPONSE	M2	1	07	G3	press
488.855	n/a	RESPONSE	M2	1	19	G4	press
489.31	n/a	RESPONSE	M2	1	17	F4	press
489.468	n/a	RESPONSE	M2	1	19	G4	release
489.55	n/a	RESPONSE	M2	1	00	C3	release
489.601	n/a	RESPONSE	M2	1	17	F4	release
489.614	n/a	RESPONSE	M2	1	07	G3	release
489.915	n/a	RESPONSE	M2	1	16	E4	press
489.925	n/a	RESPONSE	M2	1	07	G3	press
489.936	n/a	RESPONSE	M2	1	00	C3	press
490.42	n/a	RESPONSE	M2	1	17	F4	press
490.498	n/a	RESPONSE	M2	1	16	E4	release
490.68	n/a	RESPONSE	M2	1	17	F4	release
490.691	n/a	RESPONSE	M2	1	00	C3	release
490.705	n/a	RESPONSE	M2	1	07	G3	release
490.864	n/a	RESPONSE	M2	1	19	G4	press
490.866	n/a	RESPONSE	M2	1	00	C3	press
490.876	n/a	RESPONSE	M2	1	07	G3	press
491.697	n/a	RESPONSE	M2	1	19	G4	release
491.759	n/a	RESPONSE	M2	1	00	C3	release
492.739	7.758	FIXCROSS	n/a	n/a	n/a	n/a	n/a
496.502	n/a	RESPONSE	M2	1	07	G3	release
500.497	6.317	CUE_LISTEN	M2	2	n/a	n/a	n/a
506.814	7.759	FIXCROSS	n/a	n/a	n/a	n/a	n/a
514.572	6.317	CUE_PLAYBACK_BOTH_HANDS	M2	2	n/a	n/a	n/a
515.252	n/a	RESPONSE	M2	2	24	C5	press
515.255	n/a	RESPONSE	M2	2	00	C3	press
515.265	n/a	RESPONSE	M2	2	07	G3	press
515.789	n/a	RESPONSE	M2	2	19	G4	press
515.827	n/a	RESPONSE	M2	2	24	C5	release
515.921	n/a	RESPONSE	M2	2	00	C3	release
515.942	n/a	RESPONSE	M2	2	07	G3	release
515.995	n/a	RESPONSE	M2	2	19	G4	release
516.231	n/a	RESPONSE	M2	2	00	C3	press
516.237	n/a	RESPONSE	M2	2	07	G3	press
516.265	n/a	RESPONSE	M2	2	19	G4	press
516.75	n/a	RESPONSE	M2	2	17	F4	press
516.851	n/a	RESPONSE	M2	2	19	G4	release
516.966	n/a	RESPONSE	M2	2	00	C3	release
517.02	n/a	RESPONSE	M2	2	17	F4	release
517.041	n/a	RESPONSE	M2	2	07	G3	release
517.235	n/a	RESPONSE	M2	2	16	E4	press
517.246	n/a	RESPONSE	M2	2	07	G3	press
517.252	n/a	RESPONSE	M2	2	00	C3	press
517.741	n/a	RESPONSE	M2	2	14	D4	press
517.815	n/a	RESPONSE	M2	2	16	E4	release
517.991	n/a	RESPONSE	M2	2	07	G3	release
518.016	n/a	RESPONSE	M2	2	00	C3	release
518.026	n/a	RESPONSE	M2	2	14	D4	release
518.211	n/a	RESPONSE	M2	2	00	C3	press
518.214	n/a	RESPONSE	M2	2	07	G3	press
518.224	n/a	RESPONSE	M2	2	12	C4	press
518.262	n/a	RESPONSE	M2	2	14	D4	press
519.036	n/a	RESPONSE	M2	2	14	D4	release
519.454	n/a	RESPONSE	M2	2	00	C3	release
519.574	n/a	RESPONSE	M2	2	07	G3	release
519.605	n/a	RESPONSE	M2	2	12	C4	release
520.889	7.758	FIXCROSS	n/a	n/a	n/a	n/a	n/a
528.647	6.325	CUE_LISTEN	M2	1	n/a	n/a	n/a
534.972	7.758	FIXCROSS	n/a	n/a	n/a	n/a	n/a
542.731	6.317	CUE_PLAYBACK_BOTH_HANDS	M2	1	n/a	n/a	n/a
543.549	n/a	RESPONSE	M2	1	00	C3	press
543.569	n/a	RESPONSE	M2	1	07	G3	press
543.58	n/a	RESPONSE	M2	1	12	C4	press
544.051	n/a	RESPONSE	M2	1	14	D4	press
544.122	n/a	RESPONSE	M2	1	12	C4	release
544.296	n/a	RESPONSE	M2	1	07	G3	release
544.306	n/a	RESPONSE	M2	1	00	C3	release
544.308	n/a	RESPONSE	M2	1	14	D4	release
544.518	n/a	RESPONSE	M2	1	00	C3	press
544.521	n/a	RESPONSE	M2	1	07	G3	press
544.524	n/a	RESPONSE	M2	1	16	E4	press
545.012	n/a	RESPONSE	M2	1	14	D4	press
545.034	n/a	RESPONSE	M2	1	16	E4	release
545.205	n/a	RESPONSE	M2	1	00	C3	release
545.246	n/a	RESPONSE	M2	1	14	D4	release
545.26	n/a	RESPONSE	M2	1	07	G3	release
545.448	n/a	RESPONSE	M2	1	16	E4	press
545.451	n/a	RESPONSE	M2	1	00	C3	press
545.461	n/a	RESPONSE	M2	1	07	G3	press
545.909	n/a	RESPONSE	M2	1	17	F4	press
545.984	n/a	RESPONSE	M2	1	16	E4	release
546.151	n/a	RESPONSE	M2	1	17	F4	release
546.174	n/a	RESPONSE	M2	1	00	C3	release
546.184	n/a	RESPONSE	M2	1	07	G3	release
546.328	n/a	RESPONSE	M2	1	19	G4	press
546.345	n/a	RESPONSE	M2	1	00	C3	press
546.36	n/a	RESPONSE	M2	1	07	G3	press
547.244	n/a	RESPONSE	M2	1	19	G4	release
547.262	n/a	RESPONSE	M2	1	00	C3	release
549.047	7.758	FIXCROSS	n/a	n/a	n/a	n/a	n/a
556.806	6.317	CUE_LISTEN	M2	2	n/a	n/a	n/a
559.606	n/a	RESPONSE	M2	2	07	G3	release
563.122	7.758	FIXCROSS	n/a	n/a	n/a	n/a	n/a
570.881	6.325	CUE_PLAYBACK_BOTH_HANDS	M2	2	n/a	n/a	n/a
572.471	n/a	RESPONSE	M2	2	00	C3	press
572.501	n/a	RESPONSE	M2	2	07	G3	press
572.512	n/a	RESPONSE	M2	2	16	E4	press
572.976	n/a	RESPONSE	M2	2	19	G4	press
573.025	n/a	RESPONSE	M2	2	16	E4	release
573.236	n/a	RESPONSE	M2	2	19	G4	release
573.257	n/a	RESPONSE	M2	2	00	C3	release
573.3	n/a	RESPONSE	M2	2	07	G3	release
573.46	n/a	RESPONSE	M2	2	19	G4	press
573.471	n/a	RESPONSE	M2	2	00	C3	press
573.485	n/a	RESPONSE	M2	2	07	G3	press
573.957	n/a	RESPONSE	M2	2	17	F4	press
574.036	n/a	RESPONSE	M2	2	19	G4	release
574.247	n/a	RESPONSE	M2	2	17	F4	release
574.269	n/a	RESPONSE	M2	2	00	C3	release
574.34	n/a	RESPONSE	M2	2	07	G3	release
574.441	n/a	RESPONSE	M2	2	16	E4	press
574.452	n/a	RESPONSE	M2	2	00	C3	press
574.464	n/a	RESPONSE	M2	2	07	G3	press
574.915	n/a	RESPONSE	M2	2	14	D4	press
574.997	n/a	RESPONSE	M2	2	16	E4	release
575.157	n/a	RESPONSE	M2	2	00	C3	release
575.179	n/a	RESPONSE	M2	2	14	D4	release
575.19	n/a	RESPONSE	M2	2	07	G3	release
575.391	n/a	RESPONSE	M2	2	12	C4	press
575.394	n/a	RESPONSE	M2	2	07	G3	press
575.396	n/a	RESPONSE	M2	2	00	C3	press
576.434	n/a	RESPONSE	M2	2	00	C3	release
576.451	n/a	RESPONSE	M2	2	12	C4	release
577.206	7.758	FIXCROSS	n/a	n/a	n/a	n/a	n/a
583.736	n/a	RESPONSE	M2	2	07	G3	release
584.964	6.317	CUE_LISTEN	M1	1	n/a	n/a	n/a
591.281	7.758	FIXCROSS	n/a	n/a	n/a	n/a	n/a
599.039	6.325	CUE_PLAYBACK_RIGHT_HAND	M1	1	n/a	n/a	n/a
600.101	n/a	RESPONSE	M1	1	19	G4	press
600.665	n/a	RESPONSE	M1	1	16	E4	press
600.674	n/a	RESPONSE	M1	1	19	G4	release
600.935	n/a	RESPONSE	M1	1	16	E4	release
601.127	n/a	RESPONSE	M1	1	16	E4	press
601.457	n/a	RESPONSE	M1	1	16	E4	release
601.618	n/a	RESPONSE	M1	1	17	F4	press
602.16	n/a	RESPONSE	M1	1	14	D4	press
602.181	n/a	RESPONSE	M1	1	17	F4	release
602.432	n/a	RESPONSE	M1	1	14	D4	release
602.674	n/a	RESPONSE	M1	1	14	D4	press
602.955	n/a	RESPONSE	M1	1	14	D4	release
603.116	n/a	RESPONSE	M1	1	12	C4	press
603.367	n/a	RESPONSE	M1	1	16	E4	press
603.389	n/a	RESPONSE	M1	1	12	C4	release
603.662	n/a	RESPONSE	M1	1	19	G4	press
603.694	n/a	RESPONSE	M1	1	16	E4	release
604.275	n/a	RESPONSE	M1	1	19	G4	release
605.364	7.759	FIXCROSS	n/a	n/a	n/a	n/a	n/a
613.123	6.317	CUE_LISTEN	M1	2	n/a	n/a	n/a
619.439	7.758	FIXCROSS	n/a	n/a	n/a	n/a	n/a
627.198	6.317	CUE_PLAYBACK_RIGHT_HAND	M1	2	n/a	n/a	n/a
627.818	n/a	RESPONSE	M1	2	19	G4	press
628.326	n/a	RESPONSE	M1	2	16	E4	press
628.37	n/a	RESPONSE	M1	2	19	G4	release
628.621	n/a	RESPONSE	M1	2	16	E4	release
628.765	n/a	RESPONSE	M1	2	16	E4	press
629.085	n/a	RESPONSE	M1	2	16	E4	release
629.205	n/a	RESPONSE	M1	2	17	F4	press
629.706	n/a	RESPONSE	M1	2	14	D4	press
629.727	n/a	RESPONSE	M1	2	17	F4	release
630.018	n/a	RESPONSE	M1	2	14	D4	release
630.17	n/a	RESPONSE	M1	2	14	D4	press
630.521	n/a	RESPONSE	M1	2	14	D4	release
630.592	n/a	RESPONSE	M1	2	12	C4	press
630.865	n/a	RESPONSE	M1	2	16	E4	press
630.886	n/a	RESPONSE	M1	2	12	C4	release
631.118	n/a	RESPONSE	M1	2	12	C4	press
631.17	n/a	RESPONSE	M1	2	16	E4	release
631.87	n/a	RESPONSE	M1	2	12	C4	release
633.514	7.758	FIXCROSS	n/a	n/a	n/a	n/a	n/a
641.273	6.325	CUE_LISTEN	M3	1	n/a	n/a	n/a
647.598	7.758	FIXCROSS	n/a	n/a	n/a	n/a	n/a
655.356	6.317	CUE_PLAYBACK_RIGHT_HAND	M3	1	n/a	n/a	n/a
656.036	n/a	RESPONSE	M3	1	12	C4	press
656.561	n/a	RESPONSE	M3	1	14	D4	press
656.644	n/a	RESPONSE	M3	1	12	C4	release
657.001	n/a	RESPONSE	M3	1	16	E4	press
657.011	n/a	RESPONSE	M3	1	14	D4	release
657.451	n/a	RESPONSE	M3	1	14	D4	press
657.506	n/a	RESPONSE	M3	1	16	E4	release
657.802	n/a	RESPONSE	M3	1	14	D4	release
658.018	n/a	RESPONSE	M3	1	12	C4	press
658.466	n/a	RESPONSE	M3	1	14	D4	press
658.484	n/a	RESPONSE	M3	1	12	C4	release
658.846	n/a	RESPONSE	M3	1	16	E4	press
658.852	n/a	RESPONSE	M3	1	14	D4	release
659.271	n/a	RESPONSE	M3	1	16	E4	release
659.32	n/a	RESPONSE	M3	1	12	C4	press
659.771	n/a	RESPONSE	M3	1	12	C4	release
661.673	7.758	FIXCROSS	n/a	n/a	n/a	n/a	n/a
669.431	6.317	CUE_LISTEN	M3	2	n/a	n/a	n/a
675.748	7.758	FIXCROSS	n/a	n/a	n/a	n/a	n/a
683.506	6.325	CUE_PLAYBACK_RIGHT_HAND	M3	2	n/a	n/a	n/a
684.126	n/a	RESPONSE	M3	2	16	E4	press
684.617	n/a	RESPONSE	M3	2	17	F4	press
684.708	n/a	RESPONSE	M3	2	16	E4	release
684.991	n/a	RESPONSE	M3	2	17	F4	release
685.022	n/a	RESPONSE	M3	2	19	G4	press
685.837	n/a	RESPONSE	M3	2	19	G4	release
686.006	n/a	RESPONSE	M3	2	16	E4	press
686.421	n/a	RESPONSE	M3	2	16	E4	release
686.46	n/a	RESPONSE	M3	2	17	F4	press
686.81	n/a	RESPONSE	M3	2	17	F4	release
686.872	n/a	RESPONSE	M3	2	19	G4	press
687.905	n/a	RESPONSE	M3	2	19	G4	release
689.831	7.758	FIXCROSS	n/a	n/a	n/a	n/a	n/a
697.589	6.317	CUE_LISTEN	M3	1	n/a	n/a	n/a
703.906	7.758	FIXCROSS	n/a	n/a	n/a	n/a	n/a
711.664	6.317	CUE_PLAYBACK_RIGHT_HAND	M3	1	n/a	n/a	n/a
712.157	n/a	RESPONSE	M3	1	19	G4	press
712.398	n/a	RESPONSE	M3	1	21	A4	press
712.47	n/a	RESPONSE	M3	1	19	G4	release
712.691	n/a	RESPONSE	M3	1	19	G4	press
712.694	n/a	RESPONSE	M3	1	21	A4	release
712.964	n/a	RESPONSE	M3	1	17	F4	press
713.085	n/a	RESPONSE	M3	1	19	G4	release
713.276	n/a	RESPONSE	M3	1	16	E4	press
713.79	n/a	RESPONSE	M3	1	12	C4	press
713.8	n/a	RESPONSE	M3	1	17	F4	release
713.831	n/a	RESPONSE	M3	1	16	E4	release
714.065	n/a	RESPONSE	M3	1	12	C4	release
714.326	n/a	RESPONSE	M3	1	19	G4	press
714.576	n/a	RESPONSE	M3	1	19	G4	release
714.597	n/a	RESPONSE	M3	1	21	A4	press
714.848	n/a	RESPONSE	M3	1	19	G4	press
714.86	n/a	RESPONSE	M3	1	21	A4	release
715.152	n/a	RESPONSE	M3	1	17	F4	press
715.282	n/a	RESPONSE	M3	1	19	G4	release
715.464	n/a	RESPONSE	M3	1	16	E4	press
715.992	n/a	RESPONSE	M3	1	17	F4	release
716.007	n/a	RESPONSE	M3	1	12	C4	press
716.051	n/a	RESPONSE	M3	1	16	E4	release
717.981	7.758	FIXCROSS	n/a	n/a	n/a	n/a	n/a
725.739	6.325	CUE_LISTEN	M3	2	n/a	n/a	n/a
732.064	7.758	FIXCROSS	n/a	n/a	n/a	n/a	n/a
739.823	6.317	CUE_PLAYBACK_RIGHT_HAND	M3	2	n/a	n/a	n/a
740.401	n/a	RESPONSE	M3	2	12	C4	press
740.732	n/a	RESPONSE	M3	2	12	C4	release
741.025	n/a	RESPONSE	M3	2	07	G3	press
741.066	n/a	RESPONSE	M3	2	09	A3	press
741.376	n/a	RESPONSE	M3	2	09	A3	release
741.46	n/a	RESPONSE	M3	2	07	G3	release
741.779	n/a	RESPONSE	M3	2	11	B3	press
741.781	n/a	RESPONSE	M3	2	12	C4	press
741.871	n/a	RESPONSE	M3	2	11	B3	release
742.722	n/a	RESPONSE	M3	2	12	C4	release
743.054	n/a	RESPONSE	M3	2	12	C4	press
743.427	n/a	RESPONSE	M3	2	12	C4	release
743.71	n/a	RESPONSE	M3	2	07	G3	press
744.071	n/a	RESPONSE	M3	2	07	G3	release
744.382	n/a	RESPONSE	M3	2	12	C4	press
745.374	n/a	RESPONSE	M3	2	12	C4	release
746.139	7.758	FIXCROSS	n/a	n/a	n/a	n/a	n/a
753.898	6.317	CUE_LISTEN	M1	1	n/a	n/a	n/a
760.214	7.759	FIXCROSS	n/a	n/a	n/a	n/a	n/a
767.973	6.325	CUE_PLAYBACK_BOTH_HANDS	M1	1	n/a	n/a	n/a
768.977	n/a	RESPONSE	M1	1	00	C3	press
768.987	n/a	RESPONSE	M1	1	04	E3	press
768.99	n/a	RESPONSE	M1	1	19	G4	press
769.0	n/a	RESPONSE	M1	1	07	G3	press
769.526	n/a	RESPONSE	M1	1	16	E4	press
769.567	n/a	RESPONSE	M1	1	19	G4	release
769.848	n/a	RESPONSE	M1	1	16	E4	release
770.05	n/a	RESPONSE	M1	1	16	E4	press
770.331	n/a	RESPONSE	M1	1	07	G3	release
770.342	n/a	RESPONSE	M1	1	16	E4	release
770.384	n/a	RESPONSE	M1	1	04	E3	release
770.405	n/a	RESPONSE	M1	1	00	C3	release
770.786	n/a	RESPONSE	M1	1	07	G3	press
770.797	n/a	RESPONSE	M1	1	02	D3	press
770.8	n/a	RESPONSE	M1	1	17	F4	press
770.802	n/a	RESPONSE	M1	1	05	F3	press
771.334	n/a	RESPONSE	M1	1	14	D4	press
771.372	n/a	RESPONSE	M1	1	17	F4	release
771.564	n/a	RESPONSE	M1	1	14	D4	release
771.815	n/a	RESPONSE	M1	1	14	D4	press
772.046	n/a	RESPONSE	M1	1	14	D4	release
772.057	n/a	RESPONSE	M1	1	05	F3	release
772.069	n/a	RESPONSE	M1	1	02	D3	release
772.321	n/a	RESPONSE	M1	1	19	G4	press
772.331	n/a	RESPONSE	M1	1	04	E3	press
772.404	n/a	RESPONSE	M1	1	00	C3	press
772.975	n/a	RESPONSE	M1	1	19	G4	release
773.055	n/a	RESPONSE	M1	1	00	C3	release
773.246	n/a	RESPONSE	M1	1	14	D4	press
773.257	n/a	RESPONSE	M1	1	00	C3	press
773.499	n/a	RESPONSE	M1	1	14	D4	release
773.711	n/a	RESPONSE	M1	1	00	C3	release
773.932	n/a	RESPONSE	M1	1	12	C4	press
773.984	n/a	RESPONSE	M1	1	00	C3	press
774.298	7.758	FIXCROSS	n/a	n/a	n/a	n/a	n/a
774.565	n/a	RESPONSE	M1	1	16	E4	press
774.586	n/a	RESPONSE	M1	1	12	C4	release
774.837	n/a	RESPONSE	M1	1	16	E4	release
774.908	n/a	RESPONSE	M1	1	19	G4	press
775.6	n/a	RESPONSE	M1	1	19	G4	release
775.677	n/a	RESPONSE	M1	1	00	C3	release
775.748	n/a	RESPONSE	M1	1	04	E3	release
782.056	6.317	CUE_LISTEN	M1	2	n/a	n/a	n/a
788.373	7.758	FIXCROSS	n/a	n/a	n/a	n/a	n/a
795.605	n/a	RESPONSE	M1	2	07	G3	release
796.131	6.317	CUE_PLAYBACK_BOTH_HANDS	M1	2	n/a	n/a	n/a
796.937	n/a	RESPONSE	M1	2	04	E3	press
796.972	n/a	RESPONSE	M1	2	19	G4	press
797.001	n/a	RESPONSE	M1	2	00	C3	press
797.01	n/a	RESPONSE	M1	2	07	G3	press
797.554	n/a	RESPONSE	M1	2	16	E4	press
797.641	n/a	RESPONSE	M1	2	19	G4	release
797.837	n/a	RESPONSE	M1	2	16	E4	release
798.005	n/a	RESPONSE	M1	2	16	E4	press
798.2	n/a	RESPONSE	M1	2	00	C3	release
798.264	n/a	RESPONSE	M1	2	16	E4	release
798.36	n/a	RESPONSE	M1	2	04	E3	release
798.406	n/a	RESPONSE	M1	2	07	G3	release
798.618	n/a	RESPONSE	M1	2	05	F3	press
798.621	n/a	RESPONSE	M1	2	17	F4	press
798.632	n/a	RESPONSE	M1	2	02	D3	press
798.652	n/a	RESPONSE	M1	2	07	G3	press
799.18	n/a	RESPONSE	M1	2	14	D4	press
799.221	n/a	RESPONSE	M1	2	17	F4	release
799.414	n/a	RESPONSE	M1	2	14	D4	release
799.652	n/a	RESPONSE	M1	2	14	D4	press
799.894	n/a	RESPONSE	M1	2	14	D4	release
799.916	n/a	RESPONSE	M1	2	02	D3	release
799.927	n/a	RESPONSE	M1	2	05	F3	release
800.18	n/a	RESPONSE	M1	2	12	C4	press
800.188	n/a	RESPONSE	M1	2	04	E3	press
800.204	n/a	RESPONSE	M1	2	00	C3	press
800.482	n/a	RESPONSE	M1	2	16	E4	press
800.566	n/a	RESPONSE	M1	2	12	C4	release
800.785	n/a	RESPONSE	M1	2	12	C4	press
800.796	n/a	RESPONSE	M1	2	16	E4	release
801.707	n/a	RESPONSE	M1	2	00	C3	release
801.718	n/a	RESPONSE	M1	2	12	C4	release
801.74	n/a	RESPONSE	M1	2	04	E3	release
802.448	7.758	FIXCROSS	n/a	n/a	n/a	n/a	n/a
805.494	n/a	RESPONSE	M1	2	07	G3	release
810.206	6.325	CUE_LISTEN	M2	1	n/a	n/a	n/a
816.531	7.758	FIXCROSS	n/a	n/a	n/a	n/a	n/a
824.29	6.317	CUE_PLAYBACK_RIGHT_HAND	M2	1	n/a	n/a	n/a
824.898	n/a	RESPONSE	M2	1	24	C5	press
825.37	n/a	RESPONSE	M2	1	24	C5	release
825.454	n/a	RESPONSE	M2	1	19	G4	press
825.704	n/a	RESPONSE	M2	1	19	G4	release
825.945	n/a	RESPONSE	M2	1	19	G4	press
826.4	n/a	RESPONSE	M2	1	19	G4	release
826.405	n/a	RESPONSE	M2	1	17	F4	press
826.898	n/a	RESPONSE	M2	1	16	E4	press
826.91	n/a	RESPONSE	M2	1	17	F4	release
827.36	n/a	RESPONSE	M2	1	17	F4	press
827.385	n/a	RESPONSE	M2	1	16	E4	release
827.765	n/a	RESPONSE	M2	1	17	F4	release
827.777	n/a	RESPONSE	M2	1	19	G4	press
828.681	n/a	RESPONSE	M2	1	19	G4	release
830.606	7.759	FIXCROSS	n/a	n/a	n/a	n/a	n/a
838.365	6.325	CUE_LISTEN	M2	2	n/a	n/a	n/a
844.69	7.758	FIXCROSS	n/a	n/a	n/a	n/a	n/a
852.448	6.317	CUE_PLAYBACK_RIGHT_HAND	M2	2	n/a	n/a	n/a
853.191	n/a	RESPONSE	M2	2	24	C5	press
853.704	n/a	RESPONSE	M2	2	24	C5	release
853.775	n/a	RESPONSE	M2	2	19	G4	press
853.826	n/a	RESPONSE	M2	2	17	F4	press
853.977	n/a	RESPONSE	M2	2	17	F4	release
854.108	n/a	RESPONSE	M2	2	19	G4	release
854.3	n/a	RESPONSE	M2	2	19	G4	press
854.741	n/a	RESPONSE	M2	2	19	G4	release
854.782	n/a	RESPONSE	M2	2	17	F4	press
855.224	n/a	RESPONSE	M2	2	17	F4	release
855.265	n/a	RESPONSE	M2	2	16	E4	press
855.702	n/a	RESPONSE	M2	2	14	D4	press
855.749	n/a	RESPONSE	M2	2	16	E4	release
856.165	n/a	RESPONSE	M2	2	14	D4	release
856.177	n/a	RESPONSE	M2	2	12	C4	press
856.231	n/a	RESPONSE	M2	2	14	D4	press
856.655	n/a	RESPONSE	M2	2	14	D4	release
857.63	n/a	RESPONSE	M2	2	12	C4	release
858.765	7.758	FIXCROSS	n/a	n/a	n/a	n/a	n/a
866.523	6.317	CUE_LISTEN	M2	1	n/a	n/a	n/a
872.84	7.758	FIXCROSS	n/a	n/a	n/a	n/a	n/a
880.598	6.325	CUE_PLAYBACK_RIGHT_HAND	M2	1	n/a	n/a	n/a
881.211	n/a	RESPONSE	M2	1	12	C4	press
881.694	n/a	RESPONSE	M2	1	14	D4	press
881.765	n/a	RESPONSE	M2	1	12	C4	release
882.115	n/a	RESPONSE	M2	1	16	E4	press
882.136	n/a	RESPONSE	M2	1	14	D4	release
882.637	n/a	RESPONSE	M2	1	14	D4	press
882.668	n/a	RESPONSE	M2	1	16	E4	release
883.11	n/a	RESPONSE	M2	1	16	E4	press
883.131	n/a	RESPONSE	M2	1	14	D4	release
883.584	n/a	RESPONSE	M2	1	17	F4	press
883.665	n/a	RESPONSE	M2	1	16	E4	release
884.067	n/a	RESPONSE	M2	1	19	G4	press
884.097	n/a	RESPONSE	M2	1	17	F4	release
885.049	n/a	RESPONSE	M2	1	19	G4	release
886.923	7.758	FIXCROSS	n/a	n/a	n/a	n/a	n/a
894.681	6.317	CUE_LISTEN	M2	2	n/a	n/a	n/a
900.998	7.758	FIXCROSS	n/a	n/a	n/a	n/a	n/a
908.756	42.55	CUE_PLAYBACK_RIGHT_HAND	M2	2	n/a	n/a	n/a
909.417	n/a	RESPONSE	M2	2	16	E4	press
909.908	n/a	RESPONSE	M2	2	19	G4	press
909.93	n/a	RESPONSE	M2	2	16	E4	release
910.201	n/a	RESPONSE	M2	2	19	G4	release
910.375	n/a	RESPONSE	M2	2	19	G4	press
910.795	n/a	RESPONSE	M2	2	19	G4	release
910.855	n/a	RESPONSE	M2	2	17	F4	press
911.317	n/a	RESPONSE	M2	2	16	E4	press
911.347	n/a	RESPONSE	M2	2	17	F4	release
911.838	n/a	RESPONSE	M2	2	14	D4	press
911.93	n/a	RESPONSE	M2	2	16	E4	release
912.301	n/a	RESPONSE	M2	2	12	C4	press
912.355	n/a	RESPONSE	M2	2	14	D4	release
913.224	n/a	RESPONSE	M2	2	12	C4	release
913.256	n/a	FIXCROSS	n/a	n/a	n/a	n/a	n/a
