onset	duration	trial_type	trial_number	stroop_condition	stim_text(PL)	stim_text(eng)	stim_color(PL)	stim_color(eng)	response_type	response_color
0.0	n/a	RESPONSE	n/a	n/a	n/a	n/a	n/a	n/a	n/a	n/a
0.0612	1.0333	ITI	n/a	n/a	n/a	n/a	n/a	n/a	n/a	n/a
1.0946	0.5167	FIXCROSS	n/a	n/a	n/a	n/a	n/a	n/a	n/a	n/a
1.6112	1.1834	T_INK	1	Neutral	xxxxxxx	xxxxxxx	niebieski	blue	hit	n/a
2.7674	n/a	RESPONSE	n/a	n/a	n/a	n/a	n/a	n/a	n/a	blue
2.7946	0.5167	FEEDBACK	n/a	n/a	n/a	n/a	n/a	n/a	n/a	n/a
3.3112	1.0167	ITI	n/a	n/a	n/a	n/a	n/a	n/a	n/a	n/a
4.3279	0.5167	FIXCROSS	n/a	n/a	n/a	n/a	n/a	n/a	n/a	n/a
4.8446	0.8167	T_INK	2	Neutral	xxxxxxxxx	xxxxxxxxx	czerwony	red	hit	n/a
5.6307	n/a	RESPONSE	n/a	n/a	n/a	n/a	n/a	n/a	n/a	red
5.6613	0.5167	FEEDBACK	n/a	n/a	n/a	n/a	n/a	n/a	n/a	n/a
6.1779	1.0167	ITI	n/a	n/a	n/a	n/a	n/a	n/a	n/a	n/a
7.1946	0.5167	FIXCROSS	n/a	n/a	n/a	n/a	n/a	n/a	n/a	n/a
7.7113	1.3834	T_INK	3	Incongruent	czerwony	red	niebieski	blue	hit	n/a
9.0699	n/a	RESPONSE	n/a	n/a	n/a	n/a	n/a	n/a	n/a	blue
9.0947	0.5167	FEEDBACK	n/a	n/a	n/a	n/a	n/a	n/a	n/a	n/a
9.6113	1.0167	ITI	n/a	n/a	n/a	n/a	n/a	n/a	n/a	n/a
10.628	0.5167	FIXCROSS	n/a	n/a	n/a	n/a	n/a	n/a	n/a	n/a
11.1447	1.05	T_INK	4	Neutral	xxxxxxxxx	xxxxxxxxx	żółty	yellow	hit	n/a
12.1731	n/a	RESPONSE	n/a	n/a	n/a	n/a	n/a	n/a	n/a	yellow
12.1947	0.5167	FEEDBACK	n/a	n/a	n/a	n/a	n/a	n/a	n/a	n/a
12.7114	1.0167	ITI	n/a	n/a	n/a	n/a	n/a	n/a	n/a	n/a
13.728	0.5167	FIXCROSS	n/a	n/a	n/a	n/a	n/a	n/a	n/a	n/a
14.2447	0.9	T_INK	5	Neutral	xxxxx	xxxxx	czerwony	red	hit	n/a
15.1164	n/a	RESPONSE	n/a	n/a	n/a	n/a	n/a	n/a	n/a	red
15.1447	0.5167	FEEDBACK	n/a	n/a	n/a	n/a	n/a	n/a	n/a	n/a
15.6614	1.0167	ITI	n/a	n/a	n/a	n/a	n/a	n/a	n/a	n/a
16.6781	0.5167	FIXCROSS	n/a	n/a	n/a	n/a	n/a	n/a	n/a	n/a
17.1947	1.1167	T_INK	6	Incongruent	żółty	yellow	czerwony	red	hit	n/a
18.2836	n/a	RESPONSE	n/a	n/a	n/a	n/a	n/a	n/a	n/a	red
18.3114	0.5167	FEEDBACK	n/a	n/a	n/a	n/a	n/a	n/a	n/a	n/a
18.8281	1.0167	ITI	n/a	n/a	n/a	n/a	n/a	n/a	n/a	n/a
19.8448	0.5167	FIXCROSS	n/a	n/a	n/a	n/a	n/a	n/a	n/a	n/a
20.3615	1.3	T_INK	7	Incongruent	niebieski	blue	żółty	yellow	hit	n/a
21.6268	n/a	RESPONSE	n/a	n/a	n/a	n/a	n/a	n/a	n/a	yellow
21.6615	0.5167	FEEDBACK	n/a	n/a	n/a	n/a	n/a	n/a	n/a	n/a
22.1781	1.0167	ITI	n/a	n/a	n/a	n/a	n/a	n/a	n/a	n/a
23.1948	0.5167	FIXCROSS	n/a	n/a	n/a	n/a	n/a	n/a	n/a	n/a
23.7115	1.2	T_INK	8	Incongruent	czerwony	red	zielony	green	hit	n/a
24.8901	n/a	RESPONSE	n/a	n/a	n/a	n/a	n/a	n/a	n/a	green
24.9115	0.5167	FEEDBACK	n/a	n/a	n/a	n/a	n/a	n/a	n/a	n/a
25.4282	1.0167	ITI	n/a	n/a	n/a	n/a	n/a	n/a	n/a	n/a
26.4449	0.5167	FIXCROSS	n/a	n/a	n/a	n/a	n/a	n/a	n/a	n/a
26.9615	0.9667	T_INK	9	Neutral	xxxxxxxxx	xxxxxxxxx	zielony	green	hit	n/a
27.8973	n/a	RESPONSE	n/a	n/a	n/a	n/a	n/a	n/a	n/a	green
27.9282	0.5167	FEEDBACK	n/a	n/a	n/a	n/a	n/a	n/a	n/a	n/a
28.4449	1.0167	ITI	n/a	n/a	n/a	n/a	n/a	n/a	n/a	n/a
29.4616	0.5167	FIXCROSS	n/a	n/a	n/a	n/a	n/a	n/a	n/a	n/a
29.9782	0.95	T_INK	10	Neutral	xxxxxxxx	xxxxxxxx	niebieski	blue	hit	n/a
30.9046	n/a	RESPONSE	n/a	n/a	n/a	n/a	n/a	n/a	n/a	blue
30.9282	0.5167	FEEDBACK	n/a	n/a	n/a	n/a	n/a	n/a	n/a	n/a
31.4449	1.0167	ITI	n/a	n/a	n/a	n/a	n/a	n/a	n/a	n/a
32.4616	0.5167	FIXCROSS	n/a	n/a	n/a	n/a	n/a	n/a	n/a	n/a
32.9783	1.0333	T_INK	11	Incongruent	żółty	yellow	niebieski	blue	hit	n/a
33.9918	n/a	RESPONSE	n/a	n/a	n/a	n/a	n/a	n/a	n/a	blue
34.0116	0.5167	FEEDBACK	n/a	n/a	n/a	n/a	n/a	n/a	n/a	n/a
34.5283	1.0167	ITI	n/a	n/a	n/a	n/a	n/a	n/a	n/a	n/a
35.545	0.5167	FIXCROSS	n/a	n/a	n/a	n/a	n/a	n/a	n/a	n/a
36.0616	1.0333	T_INK	12	Incongruent	niebieski	blue	zielony	green	hit	n/a
37.0631	n/a	RESPONSE	n/a	n/a	n/a	n/a	n/a	n/a	n/a	green
37.095	0.5167	FEEDBACK	n/a	n/a	n/a	n/a	n/a	n/a	n/a	n/a
37.6117	1.0333	ITI	n/a	n/a	n/a	n/a	n/a	n/a	n/a	n/a
41.462	n/a	RESPONSE	n/a	n/a	n/a	n/a	n/a	n/a	n/a	n/a
41.5284	1.0167	ITI	n/a	n/a	n/a	n/a	n/a	n/a	n/a	n/a
42.545	0.5167	FIXCROSS	n/a	n/a	n/a	n/a	n/a	n/a	n/a	n/a
43.0617	1.0834	INK	1	Neutral	xxxxx	xxxxx	zielony	green	hit	n/a
44.1174	n/a	RESPONSE	n/a	n/a	n/a	n/a	n/a	n/a	n/a	green
44.1451	1.0167	ITI	n/a	n/a	n/a	n/a	n/a	n/a	n/a	n/a
45.1618	0.5167	FIXCROSS	n/a	n/a	n/a	n/a	n/a	n/a	n/a	n/a
45.6784	1.0334	INK	2	Incongruent	czerwony	red	żółty	yellow	hit	n/a
46.6928	n/a	RESPONSE	n/a	n/a	n/a	n/a	n/a	n/a	n/a	yellow
46.7118	1.0167	ITI	n/a	n/a	n/a	n/a	n/a	n/a	n/a	n/a
47.7284	0.5167	FIXCROSS	n/a	n/a	n/a	n/a	n/a	n/a	n/a	n/a
48.2451	0.9667	INK	3	Neutral	xxxxxxxx	xxxxxxxx	niebieski	blue	hit	n/a
49.1881	n/a	RESPONSE	n/a	n/a	n/a	n/a	n/a	n/a	n/a	blue
49.2118	1.0167	ITI	n/a	n/a	n/a	n/a	n/a	n/a	n/a	n/a
50.2285	0.5167	FIXCROSS	n/a	n/a	n/a	n/a	n/a	n/a	n/a	n/a
50.7452	0.85	INK	4	Neutral	xxxxx	xxxxx	czerwony	red	hit	n/a
51.5716	n/a	RESPONSE	n/a	n/a	n/a	n/a	n/a	n/a	n/a	red
51.5952	1.0167	ITI	n/a	n/a	n/a	n/a	n/a	n/a	n/a	n/a
52.6118	0.5167	FIXCROSS	n/a	n/a	n/a	n/a	n/a	n/a	n/a	n/a
53.1285	0.9167	INK	5	Incongruent	zielony	green	niebieski	blue	hit	n/a
54.019	n/a	RESPONSE	n/a	n/a	n/a	n/a	n/a	n/a	n/a	blue
54.0452	1.0167	ITI	n/a	n/a	n/a	n/a	n/a	n/a	n/a	n/a
55.0619	0.5167	FIXCROSS	n/a	n/a	n/a	n/a	n/a	n/a	n/a	n/a
55.5785	1.0999	INK	6	Incongruent	niebieski	blue	zielony	green	hit	n/a
56.6583	n/a	RESPONSE	n/a	n/a	n/a	n/a	n/a	n/a	n/a	green
56.6785	1.0168	ITI	n/a	n/a	n/a	n/a	n/a	n/a	n/a	n/a
57.6952	0.5167	FIXCROSS	n/a	n/a	n/a	n/a	n/a	n/a	n/a	n/a
58.2119	0.85	INK	7	Neutral	xxxxxxx	xxxxxxx	czerwony	red	hit	n/a
59.0418	n/a	RESPONSE	n/a	n/a	n/a	n/a	n/a	n/a	n/a	red
59.0619	1.0167	ITI	n/a	n/a	n/a	n/a	n/a	n/a	n/a	n/a
60.0786	0.5167	FIXCROSS	n/a	n/a	n/a	n/a	n/a	n/a	n/a	n/a
60.5953	1.0833	INK	8	Incongruent	niebieski	blue	czerwony	red	hit	n/a
61.6492	n/a	RESPONSE	n/a	n/a	n/a	n/a	n/a	n/a	n/a	red
61.6786	1.0167	ITI	n/a	n/a	n/a	n/a	n/a	n/a	n/a	n/a
62.6953	0.5167	FIXCROSS	n/a	n/a	n/a	n/a	n/a	n/a	n/a	n/a
63.212	1.1167	INK	9	Neutral	xxxxx	xxxxx	zielony	green	hit	n/a
64.3046	n/a	RESPONSE	n/a	n/a	n/a	n/a	n/a	n/a	n/a	green
64.3287	1.0167	ITI	n/a	n/a	n/a	n/a	n/a	n/a	n/a	n/a
65.3453	0.5167	FIXCROSS	n/a	n/a	n/a	n/a	n/a	n/a	n/a	n/a
65.862	0.7167	INK	10	Neutral	xxxxxxxx	xxxxxxxx	zielony	green	hit	n/a
66.5599	n/a	RESPONSE	n/a	n/a	n/a	n/a	n/a	n/a	n/a	green
66.5787	1.0167	ITI	n/a	n/a	n/a	n/a	n/a	n/a	n/a	n/a
67.5954	0.5167	FIXCROSS	n/a	n/a	n/a	n/a	n/a	n/a	n/a	n/a
68.112	0.8833	INK	11	Neutral	xxxxxxxxx	xxxxxxxxx	czerwony	red	hit	n/a
68.9754	n/a	RESPONSE	n/a	n/a	n/a	n/a	n/a	n/a	n/a	red
68.9954	1.0167	ITI	n/a	n/a	n/a	n/a	n/a	n/a	n/a	n/a
70.012	0.5167	FIXCROSS	n/a	n/a	n/a	n/a	n/a	n/a	n/a	n/a
70.5287	1.3333	INK	12	Incongruent	czerwony	red	zielony	green	hit	n/a
71.8387	n/a	RESPONSE	n/a	n/a	n/a	n/a	n/a	n/a	n/a	green
71.8621	1.0167	ITI	n/a	n/a	n/a	n/a	n/a	n/a	n/a	n/a
72.8787	0.5167	FIXCROSS	n/a	n/a	n/a	n/a	n/a	n/a	n/a	n/a
73.3954	1.2833	INK	13	Incongruent	czerwony	red	żółty	yellow	hit	n/a
74.654	n/a	RESPONSE	n/a	n/a	n/a	n/a	n/a	n/a	n/a	yellow
74.6788	1.0167	ITI	n/a	n/a	n/a	n/a	n/a	n/a	n/a	n/a
75.6954	0.5167	FIXCROSS	n/a	n/a	n/a	n/a	n/a	n/a	n/a	n/a
76.2121	1.0	INK	14	Neutral	xxxxxxxx	xxxxxxxx	żółty	yellow	hit	n/a
77.1814	n/a	RESPONSE	n/a	n/a	n/a	n/a	n/a	n/a	n/a	yellow
77.2121	1.0167	ITI	n/a	n/a	n/a	n/a	n/a	n/a	n/a	n/a
78.2288	0.5167	FIXCROSS	n/a	n/a	n/a	n/a	n/a	n/a	n/a	n/a
78.7455	1.05	INK	15	Incongruent	żółty	yellow	zielony	green	hit	n/a
79.7727	n/a	RESPONSE	n/a	n/a	n/a	n/a	n/a	n/a	n/a	green
79.7955	1.0167	ITI	n/a	n/a	n/a	n/a	n/a	n/a	n/a	n/a
80.8122	0.5167	FIXCROSS	n/a	n/a	n/a	n/a	n/a	n/a	n/a	n/a
81.3288	0.75	INK	16	Neutral	xxxxxxxx	xxxxxxxx	zielony	green	hit	n/a
82.0602	n/a	RESPONSE	n/a	n/a	n/a	n/a	n/a	n/a	n/a	green
82.0788	1.0167	ITI	n/a	n/a	n/a	n/a	n/a	n/a	n/a	n/a
83.0955	0.5167	FIXCROSS	n/a	n/a	n/a	n/a	n/a	n/a	n/a	n/a
83.6122	0.8334	INK	17	Neutral	xxxxxxxxx	xxxxxxxxx	żółty	yellow	hit	n/a
84.4276	n/a	RESPONSE	n/a	n/a	n/a	n/a	n/a	n/a	n/a	yellow
84.4456	1.0167	ITI	n/a	n/a	n/a	n/a	n/a	n/a	n/a	n/a
85.4622	0.5167	FIXCROSS	n/a	n/a	n/a	n/a	n/a	n/a	n/a	n/a
85.9789	0.9167	INK	18	Neutral	xxxxxxx	xxxxxxx	czerwony	red	hit	n/a
86.875	n/a	RESPONSE	n/a	n/a	n/a	n/a	n/a	n/a	n/a	red
86.8956	1.0167	ITI	n/a	n/a	n/a	n/a	n/a	n/a	n/a	n/a
87.9123	0.5167	FIXCROSS	n/a	n/a	n/a	n/a	n/a	n/a	n/a	n/a
88.4289	1.0	INK	19	Incongruent	zielony	green	czerwony	red	hit	n/a
89.4024	n/a	RESPONSE	n/a	n/a	n/a	n/a	n/a	n/a	n/a	red
89.4289	1.0167	ITI	n/a	n/a	n/a	n/a	n/a	n/a	n/a	n/a
90.4456	0.5167	FIXCROSS	n/a	n/a	n/a	n/a	n/a	n/a	n/a	n/a
90.9623	1.0167	INK	20	Incongruent	żółty	yellow	zielony	green	hit	n/a
91.9458	n/a	RESPONSE	n/a	n/a	n/a	n/a	n/a	n/a	n/a	green
91.979	1.0167	ITI	n/a	n/a	n/a	n/a	n/a	n/a	n/a	n/a
92.9956	0.5167	FIXCROSS	n/a	n/a	n/a	n/a	n/a	n/a	n/a	n/a
93.5123	1.0167	INK	21	Neutral	xxxxx	xxxxx	niebieski	blue	hit	n/a
94.5052	n/a	RESPONSE	n/a	n/a	n/a	n/a	n/a	n/a	n/a	blue
94.529	1.0167	ITI	n/a	n/a	n/a	n/a	n/a	n/a	n/a	n/a
95.5457	0.5167	FIXCROSS	n/a	n/a	n/a	n/a	n/a	n/a	n/a	n/a
96.0624	1.3667	INK	22	Incongruent	niebieski	blue	zielony	green	hit	n/a
97.4005	n/a	RESPONSE	n/a	n/a	n/a	n/a	n/a	n/a	n/a	green
97.429	1.0167	ITI	n/a	n/a	n/a	n/a	n/a	n/a	n/a	n/a
98.4457	0.5167	FIXCROSS	n/a	n/a	n/a	n/a	n/a	n/a	n/a	n/a
98.9624	0.8667	INK	23	Neutral	xxxxx	xxxxx	zielony	green	hit	n/a
99.7999	n/a	RESPONSE	n/a	n/a	n/a	n/a	n/a	n/a	n/a	green
99.8291	1.0167	ITI	n/a	n/a	n/a	n/a	n/a	n/a	n/a	n/a
100.8458	0.5167	FIXCROSS	n/a	n/a	n/a	n/a	n/a	n/a	n/a	n/a
101.3624	1.3	INK	24	Incongruent	czerwony	red	zielony	green	hit	n/a
102.6312	n/a	RESPONSE	n/a	n/a	n/a	n/a	n/a	n/a	n/a	green
102.6624	1.0167	ITI	n/a	n/a	n/a	n/a	n/a	n/a	n/a	n/a
103.6791	0.5167	FIXCROSS	n/a	n/a	n/a	n/a	n/a	n/a	n/a	n/a
104.1958	1.4833	INK	25	Neutral	xxxxxxx	xxxxxxx	niebieski	blue	hit	n/a
105.6545	n/a	RESPONSE	n/a	n/a	n/a	n/a	n/a	n/a	n/a	blue
105.6791	1.0167	ITI	n/a	n/a	n/a	n/a	n/a	n/a	n/a	n/a
106.6958	0.5167	FIXCROSS	n/a	n/a	n/a	n/a	n/a	n/a	n/a	n/a
107.2125	1.1667	INK	26	Incongruent	zielony	green	czerwony	red	hit	n/a
108.3578	n/a	RESPONSE	n/a	n/a	n/a	n/a	n/a	n/a	n/a	red
108.3792	1.0167	ITI	n/a	n/a	n/a	n/a	n/a	n/a	n/a	n/a
109.3958	0.5167	FIXCROSS	n/a	n/a	n/a	n/a	n/a	n/a	n/a	n/a
109.9125	1.0833	INK	27	Neutral	xxxxxxx	xxxxxxx	żółty	yellow	hit	n/a
110.9652	n/a	RESPONSE	n/a	n/a	n/a	n/a	n/a	n/a	n/a	yellow
110.9959	1.0167	ITI	n/a	n/a	n/a	n/a	n/a	n/a	n/a	n/a
112.0125	0.5167	FIXCROSS	n/a	n/a	n/a	n/a	n/a	n/a	n/a	n/a
112.5292	0.9167	INK	28	Neutral	xxxxxxxxx	xxxxxxxxx	żółty	yellow	hit	n/a
113.4286	n/a	RESPONSE	n/a	n/a	n/a	n/a	n/a	n/a	n/a	yellow
113.4459	1.0167	ITI	n/a	n/a	n/a	n/a	n/a	n/a	n/a	n/a
114.4626	0.5167	FIXCROSS	n/a	n/a	n/a	n/a	n/a	n/a	n/a	n/a
114.9792	0.95	INK	29	Neutral	xxxxxxxxx	xxxxxxxxx	czerwony	red	hit	n/a
115.908	n/a	RESPONSE	n/a	n/a	n/a	n/a	n/a	n/a	n/a	red
115.9293	1.0167	ITI	n/a	n/a	n/a	n/a	n/a	n/a	n/a	n/a
116.9459	0.5167	FIXCROSS	n/a	n/a	n/a	n/a	n/a	n/a	n/a	n/a
117.4626	0.7167	INK	30	Neutral	xxxxx	xxxxx	czerwony	red	hit	n/a
118.1475	n/a	RESPONSE	n/a	n/a	n/a	n/a	n/a	n/a	n/a	red
118.1793	1.0167	ITI	n/a	n/a	n/a	n/a	n/a	n/a	n/a	n/a
119.196	0.5167	FIXCROSS	n/a	n/a	n/a	n/a	n/a	n/a	n/a	n/a
119.7126	1.0667	INK	31	Incongruent	czerwony	red	niebieski	blue	hit	n/a
120.7548	n/a	RESPONSE	n/a	n/a	n/a	n/a	n/a	n/a	n/a	blue
120.7793	1.0167	ITI	n/a	n/a	n/a	n/a	n/a	n/a	n/a	n/a
121.796	0.5167	FIXCROSS	n/a	n/a	n/a	n/a	n/a	n/a	n/a	n/a
122.3127	1.0834	INK	32	Incongruent	niebieski	blue	żółty	yellow	hit	n/a
123.3622	n/a	RESPONSE	n/a	n/a	n/a	n/a	n/a	n/a	n/a	yellow
123.396	1.0167	ITI	n/a	n/a	n/a	n/a	n/a	n/a	n/a	n/a
124.4127	0.5167	FIXCROSS	n/a	n/a	n/a	n/a	n/a	n/a	n/a	n/a
124.9294	0.7	INK	33	Neutral	xxxxxxxx	xxxxxxxx	żółty	yellow	hit	n/a
125.6017	n/a	RESPONSE	n/a	n/a	n/a	n/a	n/a	n/a	n/a	yellow
125.6294	1.0167	ITI	n/a	n/a	n/a	n/a	n/a	n/a	n/a	n/a
126.646	0.5167	FIXCROSS	n/a	n/a	n/a	n/a	n/a	n/a	n/a	n/a
127.1627	0.7833	INK	34	Neutral	xxxxxxxxx	xxxxxxxxx	żółty	yellow	hit	n/a
127.9211	n/a	RESPONSE	n/a	n/a	n/a	n/a	n/a	n/a	n/a	yellow
127.9461	1.0167	ITI	n/a	n/a	n/a	n/a	n/a	n/a	n/a	n/a
128.9627	0.5167	FIXCROSS	n/a	n/a	n/a	n/a	n/a	n/a	n/a	n/a
129.4794	1.3333	INK	35	Incongruent	czerwony	red	niebieski	blue	hit	n/a
130.7844	n/a	RESPONSE	n/a	n/a	n/a	n/a	n/a	n/a	n/a	blue
130.8128	1.0167	ITI	n/a	n/a	n/a	n/a	n/a	n/a	n/a	n/a
131.8294	0.5167	FIXCROSS	n/a	n/a	n/a	n/a	n/a	n/a	n/a	n/a
132.3461	0.9833	INK	36	Neutral	xxxxxxx	xxxxxxx	czerwony	red	hit	n/a
133.2958	n/a	RESPONSE	n/a	n/a	n/a	n/a	n/a	n/a	n/a	red
133.3295	1.0167	ITI	n/a	n/a	n/a	n/a	n/a	n/a	n/a	n/a
134.3461	0.5167	FIXCROSS	n/a	n/a	n/a	n/a	n/a	n/a	n/a	n/a
134.8628	0.85	INK	37	Neutral	xxxxx	xxxxx	niebieski	blue	hit	n/a
135.6792	n/a	RESPONSE	n/a	n/a	n/a	n/a	n/a	n/a	n/a	blue
135.7128	1.0167	ITI	n/a	n/a	n/a	n/a	n/a	n/a	n/a	n/a
136.7295	0.5167	FIXCROSS	n/a	n/a	n/a	n/a	n/a	n/a	n/a	n/a
137.2462	0.75	INK	38	Neutral	xxxxxxxxx	xxxxxxxxx	zielony	green	hit	n/a
137.9667	n/a	RESPONSE	n/a	n/a	n/a	n/a	n/a	n/a	n/a	green
137.9962	1.0167	ITI	n/a	n/a	n/a	n/a	n/a	n/a	n/a	n/a
139.0129	0.5167	FIXCROSS	n/a	n/a	n/a	n/a	n/a	n/a	n/a	n/a
139.5295	0.7333	INK	39	Neutral	xxxxxxxxx	xxxxxxxxx	czerwony	red	hit	n/a
140.2381	n/a	RESPONSE	n/a	n/a	n/a	n/a	n/a	n/a	n/a	red
140.2629	1.0167	ITI	n/a	n/a	n/a	n/a	n/a	n/a	n/a	n/a
141.2796	0.5167	FIXCROSS	n/a	n/a	n/a	n/a	n/a	n/a	n/a	n/a
141.7962	0.8	INK	40	Neutral	xxxxxxxxx	xxxxxxxxx	zielony	green	hit	n/a
142.5736	n/a	RESPONSE	n/a	n/a	n/a	n/a	n/a	n/a	n/a	green
142.5962	1.0167	ITI	n/a	n/a	n/a	n/a	n/a	n/a	n/a	n/a
143.6129	0.5167	FIXCROSS	n/a	n/a	n/a	n/a	n/a	n/a	n/a	n/a
144.1296	1.1167	INK	41	Neutral	xxxxxxxx	xxxxxxxx	niebieski	blue	hit	n/a
145.2129	n/a	RESPONSE	n/a	n/a	n/a	n/a	n/a	n/a	n/a	blue
145.2463	1.0167	ITI	n/a	n/a	n/a	n/a	n/a	n/a	n/a	n/a
146.2629	0.5167	FIXCROSS	n/a	n/a	n/a	n/a	n/a	n/a	n/a	n/a
146.7796	0.7667	INK	42	Neutral	xxxxxxx	xxxxxxx	niebieski	blue	hit	n/a
147.5164	n/a	RESPONSE	n/a	n/a	n/a	n/a	n/a	n/a	n/a	blue
147.5463	1.0167	ITI	n/a	n/a	n/a	n/a	n/a	n/a	n/a	n/a
148.563	0.5167	FIXCROSS	n/a	n/a	n/a	n/a	n/a	n/a	n/a	n/a
149.0796	0.9667	INK	43	Neutral	xxxxxxxx	xxxxxxxx	żółty	yellow	hit	n/a
150.0277	n/a	RESPONSE	n/a	n/a	n/a	n/a	n/a	n/a	n/a	yellow
150.0463	1.0167	ITI	n/a	n/a	n/a	n/a	n/a	n/a	n/a	n/a
151.063	0.5167	FIXCROSS	n/a	n/a	n/a	n/a	n/a	n/a	n/a	n/a
151.5797	1.0333	INK	44	Incongruent	żółty	yellow	niebieski	blue	hit	n/a
152.5871	n/a	RESPONSE	n/a	n/a	n/a	n/a	n/a	n/a	n/a	blue
152.613	1.0167	ITI	n/a	n/a	n/a	n/a	n/a	n/a	n/a	n/a
153.6297	0.5167	FIXCROSS	n/a	n/a	n/a	n/a	n/a	n/a	n/a	n/a
154.1464	1.0834	INK	45	Incongruent	żółty	yellow	czerwony	red	hit	n/a
155.1945	n/a	RESPONSE	n/a	n/a	n/a	n/a	n/a	n/a	n/a	red
155.2297	1.0167	ITI	n/a	n/a	n/a	n/a	n/a	n/a	n/a	n/a
156.2464	0.5167	FIXCROSS	n/a	n/a	n/a	n/a	n/a	n/a	n/a	n/a
156.7631	1.05	INK	46	Incongruent	zielony	green	żółty	yellow	hit	n/a
157.7859	n/a	RESPONSE	n/a	n/a	n/a	n/a	n/a	n/a	n/a	yellow
157.8131	1.0167	ITI	n/a	n/a	n/a	n/a	n/a	n/a	n/a	n/a
158.8298	0.5167	FIXCROSS	n/a	n/a	n/a	n/a	n/a	n/a	n/a	n/a
159.3464	1.05	INK	47	Incongruent	zielony	green	żółty	yellow	hit	n/a
160.3772	n/a	RESPONSE	n/a	n/a	n/a	n/a	n/a	n/a	n/a	yellow
160.3964	1.0167	ITI	n/a	n/a	n/a	n/a	n/a	n/a	n/a	n/a
161.4131	0.5167	FIXCROSS	n/a	n/a	n/a	n/a	n/a	n/a	n/a	n/a
161.9298	0.9833	INK	48	Neutral	xxxxxxxxx	xxxxxxxxx	zielony	green	hit	n/a
162.8886	n/a	RESPONSE	n/a	n/a	n/a	n/a	n/a	n/a	n/a	green
162.9131	1.0167	ITI	n/a	n/a	n/a	n/a	n/a	n/a	n/a	n/a
163.9298	0.5167	FIXCROSS	n/a	n/a	n/a	n/a	n/a	n/a	n/a	n/a
164.4465	0.9	INK	49	Incongruent	żółty	yellow	czerwony	red	hit	n/a
165.3201	n/a	RESPONSE	n/a	n/a	n/a	n/a	n/a	n/a	n/a	red
165.3465	1.0167	ITI	n/a	n/a	n/a	n/a	n/a	n/a	n/a	n/a
166.3632	0.5167	FIXCROSS	n/a	n/a	n/a	n/a	n/a	n/a	n/a	n/a
166.8799	0.95	INK	50	Incongruent	czerwony	red	zielony	green	hit	n/a
167.7994	n/a	RESPONSE	n/a	n/a	n/a	n/a	n/a	n/a	n/a	green
167.8299	1.0167	ITI	n/a	n/a	n/a	n/a	n/a	n/a	n/a	n/a
168.8465	0.5167	FIXCROSS	n/a	n/a	n/a	n/a	n/a	n/a	n/a	n/a
169.3632	1.05	INK	51	Incongruent	zielony	green	niebieski	blue	hit	n/a
170.3908	n/a	RESPONSE	n/a	n/a	n/a	n/a	n/a	n/a	n/a	blue
170.4132	1.0167	ITI	n/a	n/a	n/a	n/a	n/a	n/a	n/a	n/a
171.4299	0.5167	FIXCROSS	n/a	n/a	n/a	n/a	n/a	n/a	n/a	n/a
171.9466	0.8667	INK	52	Incongruent	żółty	yellow	zielony	green	hit	n/a
172.7902	n/a	RESPONSE	n/a	n/a	n/a	n/a	n/a	n/a	n/a	green
172.8132	1.0167	ITI	n/a	n/a	n/a	n/a	n/a	n/a	n/a	n/a
173.8299	0.5167	FIXCROSS	n/a	n/a	n/a	n/a	n/a	n/a	n/a	n/a
174.3466	1.0167	INK	53	Incongruent	niebieski	blue	żółty	yellow	hit	n/a
175.3336	n/a	RESPONSE	n/a	n/a	n/a	n/a	n/a	n/a	n/a	yellow
175.3633	1.0167	ITI	n/a	n/a	n/a	n/a	n/a	n/a	n/a	n/a
176.38	0.5167	FIXCROSS	n/a	n/a	n/a	n/a	n/a	n/a	n/a	n/a
176.8966	1.2333	INK	54	Incongruent	niebieski	blue	czerwony	red	hit	n/a
178.101	n/a	RESPONSE	n/a	n/a	n/a	n/a	n/a	n/a	n/a	red
178.13	1.0167	ITI	n/a	n/a	n/a	n/a	n/a	n/a	n/a	n/a
179.1467	0.5167	FIXCROSS	n/a	n/a	n/a	n/a	n/a	n/a	n/a	n/a
179.6633	1.1	INK	55	Incongruent	czerwony	red	żółty	yellow	hit	n/a
180.7403	n/a	RESPONSE	n/a	n/a	n/a	n/a	n/a	n/a	n/a	yellow
180.7633	1.0167	ITI	n/a	n/a	n/a	n/a	n/a	n/a	n/a	n/a
181.78	0.5167	FIXCROSS	n/a	n/a	n/a	n/a	n/a	n/a	n/a	n/a
182.2967	0.9167	INK	56	Neutral	xxxxxxxx	xxxxxxxx	niebieski	blue	hit	n/a
183.1877	n/a	RESPONSE	n/a	n/a	n/a	n/a	n/a	n/a	n/a	blue
183.2134	1.0167	ITI	n/a	n/a	n/a	n/a	n/a	n/a	n/a	n/a
184.2301	0.5167	FIXCROSS	n/a	n/a	n/a	n/a	n/a	n/a	n/a	n/a
184.7467	0.7833	INK	57	Incongruent	zielony	green	żółty	yellow	hit	n/a
185.5071	n/a	RESPONSE	n/a	n/a	n/a	n/a	n/a	n/a	n/a	yellow
185.5301	1.0167	ITI	n/a	n/a	n/a	n/a	n/a	n/a	n/a	n/a
186.5467	0.5167	FIXCROSS	n/a	n/a	n/a	n/a	n/a	n/a	n/a	n/a
187.0634	1.0	INK	58	Neutral	xxxxx	xxxxx	niebieski	blue	hit	n/a
188.0346	n/a	RESPONSE	n/a	n/a	n/a	n/a	n/a	n/a	n/a	blue
188.0634	1.0167	ITI	n/a	n/a	n/a	n/a	n/a	n/a	n/a	n/a
189.0801	0.5167	FIXCROSS	n/a	n/a	n/a	n/a	n/a	n/a	n/a	n/a
189.5968	0.8	INK	59	Incongruent	czerwony	red	niebieski	blue	hit	n/a
190.37	n/a	RESPONSE	n/a	n/a	n/a	n/a	n/a	n/a	n/a	blue
190.3968	1.0167	ITI	n/a	n/a	n/a	n/a	n/a	n/a	n/a	n/a
191.4135	0.5167	FIXCROSS	n/a	n/a	n/a	n/a	n/a	n/a	n/a	n/a
191.9301	0.9333	INK	60	Incongruent	niebieski	blue	zielony	green	hit	n/a
192.8334	n/a	RESPONSE	n/a	n/a	n/a	n/a	n/a	n/a	n/a	green
192.8635	1.0167	ITI	n/a	n/a	n/a	n/a	n/a	n/a	n/a	n/a
193.8802	0.5167	FIXCROSS	n/a	n/a	n/a	n/a	n/a	n/a	n/a	n/a
194.3968	0.8	INK	61	Neutral	xxxxxxx	xxxxxxx	żółty	yellow	hit	n/a
195.1688	n/a	RESPONSE	n/a	n/a	n/a	n/a	n/a	n/a	n/a	yellow
195.1969	1.0167	ITI	n/a	n/a	n/a	n/a	n/a	n/a	n/a	n/a
196.2135	0.5167	FIXCROSS	n/a	n/a	n/a	n/a	n/a	n/a	n/a	n/a
196.7302	0.9667	INK	62	Neutral	xxxxxxxx	xxxxxxxx	zielony	green	hit	n/a
197.6642	n/a	RESPONSE	n/a	n/a	n/a	n/a	n/a	n/a	n/a	green
197.6969	1.0167	ITI	n/a	n/a	n/a	n/a	n/a	n/a	n/a	n/a
198.7136	0.5167	FIXCROSS	n/a	n/a	n/a	n/a	n/a	n/a	n/a	n/a
199.2302	1.0667	INK	63	Incongruent	żółty	yellow	czerwony	red	hit	n/a
200.2715	n/a	RESPONSE	n/a	n/a	n/a	n/a	n/a	n/a	n/a	red
200.2969	1.0167	ITI	n/a	n/a	n/a	n/a	n/a	n/a	n/a	n/a
201.3136	0.5167	FIXCROSS	n/a	n/a	n/a	n/a	n/a	n/a	n/a	n/a
201.8303	0.8667	INK	64	Incongruent	niebieski	blue	żółty	yellow	hit	n/a
202.671	n/a	RESPONSE	n/a	n/a	n/a	n/a	n/a	n/a	n/a	yellow
202.6969	1.0167	ITI	n/a	n/a	n/a	n/a	n/a	n/a	n/a	n/a
203.7136	0.5167	FIXCROSS	n/a	n/a	n/a	n/a	n/a	n/a	n/a	n/a
204.2303	1.0333	INK	65	Incongruent	żółty	yellow	niebieski	blue	hit	n/a
205.2304	n/a	RESPONSE	n/a	n/a	n/a	n/a	n/a	n/a	n/a	blue
205.2636	1.0167	ITI	n/a	n/a	n/a	n/a	n/a	n/a	n/a	n/a
206.2803	0.5167	FIXCROSS	n/a	n/a	n/a	n/a	n/a	n/a	n/a	n/a
206.797	0.85	INK	66	Incongruent	zielony	green	niebieski	blue	hit	n/a
207.6138	n/a	RESPONSE	n/a	n/a	n/a	n/a	n/a	n/a	n/a	blue
207.647	1.0167	ITI	n/a	n/a	n/a	n/a	n/a	n/a	n/a	n/a
208.6637	0.5167	FIXCROSS	n/a	n/a	n/a	n/a	n/a	n/a	n/a	n/a
209.1803	0.8167	INK	67	Neutral	xxxxxxx	xxxxxxx	żółty	yellow	hit	n/a
209.9652	n/a	RESPONSE	n/a	n/a	n/a	n/a	n/a	n/a	n/a	yellow
209.997	1.0167	ITI	n/a	n/a	n/a	n/a	n/a	n/a	n/a	n/a
211.0137	0.5167	FIXCROSS	n/a	n/a	n/a	n/a	n/a	n/a	n/a	n/a
211.5304	0.8667	INK	68	Incongruent	niebieski	blue	czerwony	red	hit	n/a
212.3646	n/a	RESPONSE	n/a	n/a	n/a	n/a	n/a	n/a	n/a	red
212.397	1.0167	ITI	n/a	n/a	n/a	n/a	n/a	n/a	n/a	n/a
213.4137	0.5167	FIXCROSS	n/a	n/a	n/a	n/a	n/a	n/a	n/a	n/a
213.9304	0.8	INK	69	Incongruent	zielony	green	czerwony	red	hit	n/a
214.7001	n/a	RESPONSE	n/a	n/a	n/a	n/a	n/a	n/a	n/a	red
214.7304	1.0167	ITI	n/a	n/a	n/a	n/a	n/a	n/a	n/a	n/a
215.7471	0.5167	FIXCROSS	n/a	n/a	n/a	n/a	n/a	n/a	n/a	n/a
216.2638	0.5667	INK	70	Neutral	xxxxx	xxxxx	czerwony	red	hit	n/a
216.8116	n/a	RESPONSE	n/a	n/a	n/a	n/a	n/a	n/a	n/a	red
216.8304	1.0167	ITI	n/a	n/a	n/a	n/a	n/a	n/a	n/a	n/a
217.8471	0.5167	FIXCROSS	n/a	n/a	n/a	n/a	n/a	n/a	n/a	n/a
218.3638	0.9167	INK	71	Neutral	xxxxxxx	xxxxxxx	niebieski	blue	hit	n/a
219.259	n/a	RESPONSE	n/a	n/a	n/a	n/a	n/a	n/a	n/a	blue
219.2805	1.0167	ITI	n/a	n/a	n/a	n/a	n/a	n/a	n/a	n/a
220.2971	0.5167	FIXCROSS	n/a	n/a	n/a	n/a	n/a	n/a	n/a	n/a
220.8138	0.8	INK	72	Incongruent	żółty	yellow	niebieski	blue	hit	n/a
221.5944	n/a	RESPONSE	n/a	n/a	n/a	n/a	n/a	n/a	n/a	blue
221.6138	1.0833	ITI	n/a	n/a	n/a	n/a	n/a	n/a	n/a	n/a
233.7035	n/a	RESPONSE	n/a	n/a	n/a	n/a	n/a	n/a	n/a	n/a
233.764	1.0167	ITI	n/a	n/a	n/a	n/a	n/a	n/a	n/a	n/a
234.7806	0.5167	FIXCROSS	n/a	n/a	n/a	n/a	n/a	n/a	n/a	n/a
235.2973	1.0667	T_COLOR_NAME	1	Incongruent	czerwony	red	zielony	green	hit	n/a
236.3429	n/a	RESPONSE	n/a	n/a	n/a	n/a	n/a	n/a	n/a	red
236.364	0.5167	FEEDBACK	n/a	n/a	n/a	n/a	n/a	n/a	n/a	n/a
236.8807	1.0167	ITI	n/a	n/a	n/a	n/a	n/a	n/a	n/a	n/a
237.8973	0.5167	FIXCROSS	n/a	n/a	n/a	n/a	n/a	n/a	n/a	n/a
238.414	1.15	T_COLOR_NAME	2	Incongruent	niebieski	blue	zielony	green	hit	n/a
239.5421	n/a	RESPONSE	n/a	n/a	n/a	n/a	n/a	n/a	n/a	blue
239.564	0.5167	FEEDBACK	n/a	n/a	n/a	n/a	n/a	n/a	n/a	n/a
240.0807	1.0167	ITI	n/a	n/a	n/a	n/a	n/a	n/a	n/a	n/a
241.0974	0.5167	FIXCROSS	n/a	n/a	n/a	n/a	n/a	n/a	n/a	n/a
241.6141	1.0667	T_COLOR_NAME	3	Incongruent	czerwony	red	niebieski	blue	hit	n/a
242.6453	n/a	RESPONSE	n/a	n/a	n/a	n/a	n/a	n/a	n/a	red
242.6807	0.5167	FEEDBACK	n/a	n/a	n/a	n/a	n/a	n/a	n/a	n/a
243.1974	1.0167	ITI	n/a	n/a	n/a	n/a	n/a	n/a	n/a	n/a
244.2141	0.5167	FIXCROSS	n/a	n/a	n/a	n/a	n/a	n/a	n/a	n/a
244.7308	1.35	T_COLOR_NAME	4	Neutral	zielony	green	Neutral	Neutral	hit	n/a
246.0525	n/a	RESPONSE	n/a	n/a	n/a	n/a	n/a	n/a	n/a	green
246.0808	0.5167	FEEDBACK	n/a	n/a	n/a	n/a	n/a	n/a	n/a	n/a
246.5975	1.0167	ITI	n/a	n/a	n/a	n/a	n/a	n/a	n/a	n/a
247.6141	0.5167	FIXCROSS	n/a	n/a	n/a	n/a	n/a	n/a	n/a	n/a
248.1308	1.0167	T_COLOR_NAME	5	Neutral	niebieski	blue	Neutral	Neutral	hit	n/a
249.1237	n/a	RESPONSE	n/a	n/a	n/a	n/a	n/a	n/a	n/a	blue
249.1475	0.5167	FEEDBACK	n/a	n/a	n/a	n/a	n/a	n/a	n/a	n/a
249.6641	1.0167	ITI	n/a	n/a	n/a	n/a	n/a	n/a	n/a	n/a
250.6808	0.5167	FIXCROSS	n/a	n/a	n/a	n/a	n/a	n/a	n/a	n/a
251.1975	1.0	T_COLOR_NAME	6	Neutral	niebieski	blue	Neutral	Neutral	hit	n/a
252.163	n/a	RESPONSE	n/a	n/a	n/a	n/a	n/a	n/a	n/a	blue
252.1975	0.5167	FEEDBACK	n/a	n/a	n/a	n/a	n/a	n/a	n/a	n/a
252.7142	1.0167	ITI	n/a	n/a	n/a	n/a	n/a	n/a	n/a	n/a
253.7309	0.5167	FIXCROSS	n/a	n/a	n/a	n/a	n/a	n/a	n/a	n/a
254.2475	0.9667	T_COLOR_NAME	7	Neutral	żółty	yellow	Neutral	Neutral	hit	n/a
255.1863	n/a	RESPONSE	n/a	n/a	n/a	n/a	n/a	n/a	n/a	yellow
255.2142	0.5167	FEEDBACK	n/a	n/a	n/a	n/a	n/a	n/a	n/a	n/a
255.7309	1.0167	ITI	n/a	n/a	n/a	n/a	n/a	n/a	n/a	n/a
256.7476	0.5167	FIXCROSS	n/a	n/a	n/a	n/a	n/a	n/a	n/a	n/a
257.2642	0.9833	T_COLOR_NAME	8	Neutral	niebieski	blue	Neutral	Neutral	hit	n/a
258.2255	n/a	RESPONSE	n/a	n/a	n/a	n/a	n/a	n/a	n/a	blue
258.2476	0.5167	FEEDBACK	n/a	n/a	n/a	n/a	n/a	n/a	n/a	n/a
258.7643	1.0167	ITI	n/a	n/a	n/a	n/a	n/a	n/a	n/a	n/a
259.7809	0.5167	FIXCROSS	n/a	n/a	n/a	n/a	n/a	n/a	n/a	n/a
260.2976	1.1	T_COLOR_NAME	9	Incongruent	żółty	yellow	czerwony	red	hit	n/a
261.3768	n/a	RESPONSE	n/a	n/a	n/a	n/a	n/a	n/a	n/a	yellow
261.3976	0.5167	FEEDBACK	n/a	n/a	n/a	n/a	n/a	n/a	n/a	n/a
261.9143	1.0167	ITI	n/a	n/a	n/a	n/a	n/a	n/a	n/a	n/a
262.931	0.5167	FIXCROSS	n/a	n/a	n/a	n/a	n/a	n/a	n/a	n/a
263.4476	0.9167	T_COLOR_NAME	10	Neutral	czerwony	red	Neutral	Neutral	hit	n/a
264.3361	n/a	RESPONSE	n/a	n/a	n/a	n/a	n/a	n/a	n/a	red
264.3643	0.5167	FEEDBACK	n/a	n/a	n/a	n/a	n/a	n/a	n/a	n/a
264.881	1.0167	ITI	n/a	n/a	n/a	n/a	n/a	n/a	n/a	n/a
265.8977	0.5167	FIXCROSS	n/a	n/a	n/a	n/a	n/a	n/a	n/a	n/a
266.4143	1.25	T_COLOR_NAME	11	Incongruent	żółty	yellow	niebieski	blue	hit	n/a
267.6313	n/a	RESPONSE	n/a	n/a	n/a	n/a	n/a	n/a	n/a	yellow
267.6644	0.5167	FEEDBACK	n/a	n/a	n/a	n/a	n/a	n/a	n/a	n/a
268.181	1.0167	ITI	n/a	n/a	n/a	n/a	n/a	n/a	n/a	n/a
269.1977	0.5167	FIXCROSS	n/a	n/a	n/a	n/a	n/a	n/a	n/a	n/a
269.7144	1.1167	T_COLOR_NAME	12	Incongruent	niebieski	blue	żółty	yellow	hit	n/a
270.7985	n/a	RESPONSE	n/a	n/a	n/a	n/a	n/a	n/a	n/a	blue
270.8311	0.5167	FEEDBACK	n/a	n/a	n/a	n/a	n/a	n/a	n/a	n/a
271.3477	1.0167	ITI	n/a	n/a	n/a	n/a	n/a	n/a	n/a	n/a
274.6216	n/a	RESPONSE	n/a	n/a	n/a	n/a	n/a	n/a	n/a	n/a
274.6811	1.0167	ITI	n/a	n/a	n/a	n/a	n/a	n/a	n/a	n/a
275.6978	0.5167	FIXCROSS	n/a	n/a	n/a	n/a	n/a	n/a	n/a	n/a
276.2145	0.9667	COLOR_NAME	1	Neutral	czerwony	red	Neutral	Neutral	hit	n/a
277.149	n/a	RESPONSE	n/a	n/a	n/a	n/a	n/a	n/a	n/a	red
277.1811	1.0167	ITI	n/a	n/a	n/a	n/a	n/a	n/a	n/a	n/a
278.1978	0.5167	FIXCROSS	n/a	n/a	n/a	n/a	n/a	n/a	n/a	n/a
278.7145	0.9334	COLOR_NAME	2	Neutral	zielony	green	Neutral	Neutral	hit	n/a
279.6283	n/a	RESPONSE	n/a	n/a	n/a	n/a	n/a	n/a	n/a	green
279.6478	1.0167	ITI	n/a	n/a	n/a	n/a	n/a	n/a	n/a	n/a
280.6645	0.5167	FIXCROSS	n/a	n/a	n/a	n/a	n/a	n/a	n/a	n/a
281.1812	0.8167	COLOR_NAME	3	Neutral	zielony	green	Neutral	Neutral	hit	n/a
281.9798	n/a	RESPONSE	n/a	n/a	n/a	n/a	n/a	n/a	n/a	green
281.9979	1.0167	ITI	n/a	n/a	n/a	n/a	n/a	n/a	n/a	n/a
283.0145	0.5167	FIXCROSS	n/a	n/a	n/a	n/a	n/a	n/a	n/a	n/a
283.5312	1.2333	COLOR_NAME	4	Incongruent	żółty	yellow	niebieski	blue	hit	n/a
284.7311	n/a	RESPONSE	n/a	n/a	n/a	n/a	n/a	n/a	n/a	yellow
284.7646	1.0167	ITI	n/a	n/a	n/a	n/a	n/a	n/a	n/a	n/a
285.7812	0.5167	FIXCROSS	n/a	n/a	n/a	n/a	n/a	n/a	n/a	n/a
286.2979	1.15	COLOR_NAME	5	Incongruent	zielony	green	niebieski	blue	hit	n/a
287.4185	n/a	RESPONSE	n/a	n/a	n/a	n/a	n/a	n/a	n/a	green
287.4479	1.0167	ITI	n/a	n/a	n/a	n/a	n/a	n/a	n/a	n/a
288.4646	0.5167	FIXCROSS	n/a	n/a	n/a	n/a	n/a	n/a	n/a	n/a
288.9813	0.9833	COLOR_NAME	6	Incongruent	zielony	green	czerwony	red	hit	n/a
289.9459	n/a	RESPONSE	n/a	n/a	n/a	n/a	n/a	n/a	n/a	green
289.9646	1.0167	ITI	n/a	n/a	n/a	n/a	n/a	n/a	n/a	n/a
290.9813	0.5167	FIXCROSS	n/a	n/a	n/a	n/a	n/a	n/a	n/a	n/a
291.498	0.9333	COLOR_NAME	7	Incongruent	żółty	yellow	zielony	green	hit	n/a
292.4093	n/a	RESPONSE	n/a	n/a	n/a	n/a	n/a	n/a	n/a	yellow
292.4313	1.0167	ITI	n/a	n/a	n/a	n/a	n/a	n/a	n/a	n/a
293.448	0.5167	FIXCROSS	n/a	n/a	n/a	n/a	n/a	n/a	n/a	n/a
293.9647	1.0667	COLOR_NAME	8	Neutral	niebieski	blue	Neutral	Neutral	hit	n/a
295.0007	n/a	RESPONSE	n/a	n/a	n/a	n/a	n/a	n/a	n/a	blue
295.0313	1.0167	ITI	n/a	n/a	n/a	n/a	n/a	n/a	n/a	n/a
296.048	0.5167	FIXCROSS	n/a	n/a	n/a	n/a	n/a	n/a	n/a	n/a
296.5647	1.05	COLOR_NAME	9	Incongruent	niebieski	blue	żółty	yellow	hit	n/a
297.592	n/a	RESPONSE	n/a	n/a	n/a	n/a	n/a	n/a	n/a	blue
297.6147	1.0167	ITI	n/a	n/a	n/a	n/a	n/a	n/a	n/a	n/a
298.6314	0.5167	FIXCROSS	n/a	n/a	n/a	n/a	n/a	n/a	n/a	n/a
299.1481	0.9333	COLOR_NAME	10	Incongruent	żółty	yellow	zielony	green	hit	n/a
300.0554	n/a	RESPONSE	n/a	n/a	n/a	n/a	n/a	n/a	n/a	yellow
300.0814	1.0167	ITI	n/a	n/a	n/a	n/a	n/a	n/a	n/a	n/a
301.0981	0.5167	FIXCROSS	n/a	n/a	n/a	n/a	n/a	n/a	n/a	n/a
301.6147	0.9834	COLOR_NAME	11	Incongruent	czerwony	red	żółty	yellow	hit	n/a
302.5668	n/a	RESPONSE	n/a	n/a	n/a	n/a	n/a	n/a	n/a	red
302.5981	1.0167	ITI	n/a	n/a	n/a	n/a	n/a	n/a	n/a	n/a
303.6148	0.5167	FIXCROSS	n/a	n/a	n/a	n/a	n/a	n/a	n/a	n/a
304.1314	1.0	COLOR_NAME	12	Neutral	czerwony	red	Neutral	Neutral	hit	n/a
305.1102	n/a	RESPONSE	n/a	n/a	n/a	n/a	n/a	n/a	n/a	red
305.1315	1.0167	ITI	n/a	n/a	n/a	n/a	n/a	n/a	n/a	n/a
306.1481	0.5167	FIXCROSS	n/a	n/a	n/a	n/a	n/a	n/a	n/a	n/a
306.6648	1.15	COLOR_NAME	13	Neutral	zielony	green	Neutral	Neutral	hit	n/a
307.7815	n/a	RESPONSE	n/a	n/a	n/a	n/a	n/a	n/a	n/a	green
307.8148	1.0167	ITI	n/a	n/a	n/a	n/a	n/a	n/a	n/a	n/a
308.8315	0.5167	FIXCROSS	n/a	n/a	n/a	n/a	n/a	n/a	n/a	n/a
309.3482	1.0667	COLOR_NAME	14	Neutral	żółty	yellow	Neutral	Neutral	hit	n/a
310.3889	n/a	RESPONSE	n/a	n/a	n/a	n/a	n/a	n/a	n/a	yellow
310.4149	1.0167	ITI	n/a	n/a	n/a	n/a	n/a	n/a	n/a	n/a
311.4315	0.5167	FIXCROSS	n/a	n/a	n/a	n/a	n/a	n/a	n/a	n/a
311.9482	1.3167	COLOR_NAME	15	Incongruent	zielony	green	żółty	yellow	hit	n/a
313.2362	n/a	RESPONSE	n/a	n/a	n/a	n/a	n/a	n/a	n/a	green
313.2649	1.0167	ITI	n/a	n/a	n/a	n/a	n/a	n/a	n/a	n/a
314.2816	0.5167	FIXCROSS	n/a	n/a	n/a	n/a	n/a	n/a	n/a	n/a
314.7982	0.9833	COLOR_NAME	16	Incongruent	czerwony	red	niebieski	blue	hit	n/a
315.7476	n/a	RESPONSE	n/a	n/a	n/a	n/a	n/a	n/a	n/a	red
315.7816	1.0167	ITI	n/a	n/a	n/a	n/a	n/a	n/a	n/a	n/a
316.7983	0.5167	FIXCROSS	n/a	n/a	n/a	n/a	n/a	n/a	n/a	n/a
317.3149	0.9833	COLOR_NAME	17	Neutral	żółty	yellow	Neutral	Neutral	hit	n/a
318.275	n/a	RESPONSE	n/a	n/a	n/a	n/a	n/a	n/a	n/a	yellow
318.2983	1.0167	ITI	n/a	n/a	n/a	n/a	n/a	n/a	n/a	n/a
319.315	0.5167	FIXCROSS	n/a	n/a	n/a	n/a	n/a	n/a	n/a	n/a
319.8316	1.15	COLOR_NAME	18	Incongruent	zielony	green	niebieski	blue	hit	n/a
320.9464	n/a	RESPONSE	n/a	n/a	n/a	n/a	n/a	n/a	n/a	green
320.9816	1.0167	ITI	n/a	n/a	n/a	n/a	n/a	n/a	n/a	n/a
321.9983	0.5167	FIXCROSS	n/a	n/a	n/a	n/a	n/a	n/a	n/a	n/a
322.515	1.2	COLOR_NAME	19	Incongruent	niebieski	blue	czerwony	red	hit	n/a
323.6817	n/a	RESPONSE	n/a	n/a	n/a	n/a	n/a	n/a	n/a	blue
323.715	1.0167	ITI	n/a	n/a	n/a	n/a	n/a	n/a	n/a	n/a
324.7317	0.5167	FIXCROSS	n/a	n/a	n/a	n/a	n/a	n/a	n/a	n/a
325.2484	0.9334	COLOR_NAME	20	Neutral	niebieski	blue	Neutral	Neutral	hit	n/a
326.1611	n/a	RESPONSE	n/a	n/a	n/a	n/a	n/a	n/a	n/a	blue
326.1817	1.0167	ITI	n/a	n/a	n/a	n/a	n/a	n/a	n/a	n/a
327.1984	0.5167	FIXCROSS	n/a	n/a	n/a	n/a	n/a	n/a	n/a	n/a
327.7151	0.8	COLOR_NAME	21	Neutral	żółty	yellow	Neutral	Neutral	hit	n/a
328.4965	n/a	RESPONSE	n/a	n/a	n/a	n/a	n/a	n/a	n/a	yellow
328.5151	1.0167	ITI	n/a	n/a	n/a	n/a	n/a	n/a	n/a	n/a
329.5317	0.5167	FIXCROSS	n/a	n/a	n/a	n/a	n/a	n/a	n/a	n/a
330.0484	1.0	COLOR_NAME	22	Incongruent	żółty	yellow	czerwony	red	hit	n/a
331.0239	n/a	RESPONSE	n/a	n/a	n/a	n/a	n/a	n/a	n/a	yellow
331.0484	1.0167	ITI	n/a	n/a	n/a	n/a	n/a	n/a	n/a	n/a
332.0651	0.5167	FIXCROSS	n/a	n/a	n/a	n/a	n/a	n/a	n/a	n/a
332.5818	1.0	COLOR_NAME	23	Incongruent	czerwony	red	żółty	yellow	hit	n/a
333.5513	n/a	RESPONSE	n/a	n/a	n/a	n/a	n/a	n/a	n/a	red
333.5818	1.0167	ITI	n/a	n/a	n/a	n/a	n/a	n/a	n/a	n/a
334.5985	0.5167	FIXCROSS	n/a	n/a	n/a	n/a	n/a	n/a	n/a	n/a
335.1151	1.25	COLOR_NAME	24	Neutral	niebieski	blue	Neutral	Neutral	hit	n/a
336.3347	n/a	RESPONSE	n/a	n/a	n/a	n/a	n/a	n/a	n/a	blue
336.3652	1.0167	ITI	n/a	n/a	n/a	n/a	n/a	n/a	n/a	n/a
337.3818	0.5167	FIXCROSS	n/a	n/a	n/a	n/a	n/a	n/a	n/a	n/a
337.8985	1.1834	COLOR_NAME	25	Neutral	zielony	green	Neutral	Neutral	hit	n/a
339.054	n/a	RESPONSE	n/a	n/a	n/a	n/a	n/a	n/a	n/a	green
339.0819	1.0167	ITI	n/a	n/a	n/a	n/a	n/a	n/a	n/a	n/a
340.0985	0.5167	FIXCROSS	n/a	n/a	n/a	n/a	n/a	n/a	n/a	n/a
340.6152	1.0	COLOR_NAME	26	Neutral	czerwony	red	Neutral	Neutral	hit	n/a
341.5814	n/a	RESPONSE	n/a	n/a	n/a	n/a	n/a	n/a	n/a	red
341.6152	1.0167	ITI	n/a	n/a	n/a	n/a	n/a	n/a	n/a	n/a
342.6319	0.5167	FIXCROSS	n/a	n/a	n/a	n/a	n/a	n/a	n/a	n/a
343.1486	1.0333	COLOR_NAME	27	Neutral	zielony	green	Neutral	Neutral	hit	n/a
344.1567	n/a	RESPONSE	n/a	n/a	n/a	n/a	n/a	n/a	n/a	green
344.1819	1.0167	ITI	n/a	n/a	n/a	n/a	n/a	n/a	n/a	n/a
345.1986	0.5167	FIXCROSS	n/a	n/a	n/a	n/a	n/a	n/a	n/a	n/a
345.7153	0.8167	COLOR_NAME	28	Neutral	czerwony	red	Neutral	Neutral	hit	n/a
346.5082	n/a	RESPONSE	n/a	n/a	n/a	n/a	n/a	n/a	n/a	red
346.5319	1.0167	ITI	n/a	n/a	n/a	n/a	n/a	n/a	n/a	n/a
347.5486	0.5167	FIXCROSS	n/a	n/a	n/a	n/a	n/a	n/a	n/a	n/a
348.0653	1.2667	COLOR_NAME	29	Incongruent	niebieski	blue	czerwony	red	hit	n/a
349.3075	n/a	RESPONSE	n/a	n/a	n/a	n/a	n/a	n/a	n/a	blue
349.332	1.0167	ITI	n/a	n/a	n/a	n/a	n/a	n/a	n/a	n/a
350.3487	0.5167	FIXCROSS	n/a	n/a	n/a	n/a	n/a	n/a	n/a	n/a
350.8653	0.8167	COLOR_NAME	30	Neutral	niebieski	blue	Neutral	Neutral	hit	n/a
351.6589	n/a	RESPONSE	n/a	n/a	n/a	n/a	n/a	n/a	n/a	blue
351.682	1.0167	ITI	n/a	n/a	n/a	n/a	n/a	n/a	n/a	n/a
352.6987	0.5167	FIXCROSS	n/a	n/a	n/a	n/a	n/a	n/a	n/a	n/a
353.2153	1.0667	COLOR_NAME	31	Incongruent	czerwony	red	zielony	green	hit	n/a
354.2503	n/a	RESPONSE	n/a	n/a	n/a	n/a	n/a	n/a	n/a	red
354.282	1.0167	ITI	n/a	n/a	n/a	n/a	n/a	n/a	n/a	n/a
355.2987	0.5167	FIXCROSS	n/a	n/a	n/a	n/a	n/a	n/a	n/a	n/a
355.8154	0.95	COLOR_NAME	32	Neutral	żółty	yellow	Neutral	Neutral	hit	n/a
356.7457	n/a	RESPONSE	n/a	n/a	n/a	n/a	n/a	n/a	n/a	yellow
356.7654	1.0167	ITI	n/a	n/a	n/a	n/a	n/a	n/a	n/a	n/a
357.7821	0.5167	FIXCROSS	n/a	n/a	n/a	n/a	n/a	n/a	n/a	n/a
358.2987	1.05	COLOR_NAME	33	Neutral	niebieski	blue	Neutral	Neutral	hit	n/a
359.321	n/a	RESPONSE	n/a	n/a	n/a	n/a	n/a	n/a	n/a	blue
359.3488	1.0167	ITI	n/a	n/a	n/a	n/a	n/a	n/a	n/a	n/a
360.3654	0.5167	FIXCROSS	n/a	n/a	n/a	n/a	n/a	n/a	n/a	n/a
360.8821	0.9667	COLOR_NAME	34	Neutral	żółty	yellow	Neutral	Neutral	hit	n/a
361.8165	n/a	RESPONSE	n/a	n/a	n/a	n/a	n/a	n/a	n/a	yellow
361.8488	1.0167	ITI	n/a	n/a	n/a	n/a	n/a	n/a	n/a	n/a
362.8655	0.5167	FIXCROSS	n/a	n/a	n/a	n/a	n/a	n/a	n/a	n/a
363.3821	0.9167	COLOR_NAME	35	Neutral	żółty	yellow	Neutral	Neutral	hit	n/a
364.2799	n/a	RESPONSE	n/a	n/a	n/a	n/a	n/a	n/a	n/a	yellow
364.2988	1.0167	ITI	n/a	n/a	n/a	n/a	n/a	n/a	n/a	n/a
365.3155	0.5167	FIXCROSS	n/a	n/a	n/a	n/a	n/a	n/a	n/a	n/a
365.8322	0.9833	COLOR_NAME	36	Incongruent	czerwony	red	żółty	yellow	hit	n/a
366.7913	n/a	RESPONSE	n/a	n/a	n/a	n/a	n/a	n/a	n/a	red
366.8155	1.0167	ITI	n/a	n/a	n/a	n/a	n/a	n/a	n/a	n/a
367.8322	0.5167	FIXCROSS	n/a	n/a	n/a	n/a	n/a	n/a	n/a	n/a
368.3489	1.0167	COLOR_NAME	37	Incongruent	czerwony	red	niebieski	blue	hit	n/a
369.3346	n/a	RESPONSE	n/a	n/a	n/a	n/a	n/a	n/a	n/a	red
369.3655	1.0167	ITI	n/a	n/a	n/a	n/a	n/a	n/a	n/a	n/a
370.3822	0.5167	FIXCROSS	n/a	n/a	n/a	n/a	n/a	n/a	n/a	n/a
370.8989	1.1667	COLOR_NAME	38	Incongruent	niebieski	blue	zielony	green	hit	n/a
372.038	n/a	RESPONSE	n/a	n/a	n/a	n/a	n/a	n/a	n/a	blue
372.0656	1.0167	ITI	n/a	n/a	n/a	n/a	n/a	n/a	n/a	n/a
373.0823	0.5167	FIXCROSS	n/a	n/a	n/a	n/a	n/a	n/a	n/a	n/a
373.5989	0.9667	COLOR_NAME	39	Neutral	niebieski	blue	Neutral	Neutral	hit	n/a
374.5334	n/a	RESPONSE	n/a	n/a	n/a	n/a	n/a	n/a	n/a	blue
374.5656	1.0167	ITI	n/a	n/a	n/a	n/a	n/a	n/a	n/a	n/a
375.5823	0.5167	FIXCROSS	n/a	n/a	n/a	n/a	n/a	n/a	n/a	n/a
376.0989	0.9334	COLOR_NAME	40	Neutral	żółty	yellow	Neutral	Neutral	hit	n/a
377.0128	n/a	RESPONSE	n/a	n/a	n/a	n/a	n/a	n/a	n/a	yellow
377.0323	1.0167	ITI	n/a	n/a	n/a	n/a	n/a	n/a	n/a	n/a
378.049	0.5167	FIXCROSS	n/a	n/a	n/a	n/a	n/a	n/a	n/a	n/a
378.5657	0.9833	COLOR_NAME	41	Incongruent	zielony	green	żółty	yellow	hit	n/a
379.5241	n/a	RESPONSE	n/a	n/a	n/a	n/a	n/a	n/a	n/a	green
379.549	1.0167	ITI	n/a	n/a	n/a	n/a	n/a	n/a	n/a	n/a
380.5657	0.5167	FIXCROSS	n/a	n/a	n/a	n/a	n/a	n/a	n/a	n/a
381.0823	0.9167	COLOR_NAME	42	Incongruent	zielony	green	czerwony	red	hit	n/a
381.9716	n/a	RESPONSE	n/a	n/a	n/a	n/a	n/a	n/a	n/a	green
381.999	1.0167	ITI	n/a	n/a	n/a	n/a	n/a	n/a	n/a	n/a
383.0157	0.5167	FIXCROSS	n/a	n/a	n/a	n/a	n/a	n/a	n/a	n/a
383.5324	1.0	COLOR_NAME	43	Incongruent	niebieski	blue	żółty	yellow	hit	n/a
384.515	n/a	RESPONSE	n/a	n/a	n/a	n/a	n/a	n/a	n/a	blue
384.5324	1.0167	ITI	n/a	n/a	n/a	n/a	n/a	n/a	n/a	n/a
385.5491	0.5167	FIXCROSS	n/a	n/a	n/a	n/a	n/a	n/a	n/a	n/a
386.0657	0.9667	COLOR_NAME	44	Neutral	czerwony	red	Neutral	Neutral	hit	n/a
387.0103	n/a	RESPONSE	n/a	n/a	n/a	n/a	n/a	n/a	n/a	red
387.0324	1.0167	ITI	n/a	n/a	n/a	n/a	n/a	n/a	n/a	n/a
388.0491	0.5167	FIXCROSS	n/a	n/a	n/a	n/a	n/a	n/a	n/a	n/a
388.5658	0.8667	COLOR_NAME	45	Neutral	niebieski	blue	Neutral	Neutral	hit	n/a
389.4098	n/a	RESPONSE	n/a	n/a	n/a	n/a	n/a	n/a	n/a	blue
389.4324	1.0167	ITI	n/a	n/a	n/a	n/a	n/a	n/a	n/a	n/a
390.4491	0.5167	FIXCROSS	n/a	n/a	n/a	n/a	n/a	n/a	n/a	n/a
390.9658	1.2	COLOR_NAME	46	Incongruent	zielony	green	niebieski	blue	hit	n/a
392.1451	n/a	RESPONSE	n/a	n/a	n/a	n/a	n/a	n/a	n/a	green
392.1658	1.0167	ITI	n/a	n/a	n/a	n/a	n/a	n/a	n/a	n/a
393.1825	0.5167	FIXCROSS	n/a	n/a	n/a	n/a	n/a	n/a	n/a	n/a
393.6992	0.8832	COLOR_NAME	47	Incongruent	żółty	yellow	czerwony	red	hit	n/a
394.5605	n/a	RESPONSE	n/a	n/a	n/a	n/a	n/a	n/a	n/a	yellow
394.5824	1.0168	ITI	n/a	n/a	n/a	n/a	n/a	n/a	n/a	n/a
395.5992	0.5167	FIXCROSS	n/a	n/a	n/a	n/a	n/a	n/a	n/a	n/a
396.1158	1.0834	COLOR_NAME	48	Neutral	czerwony	red	Neutral	Neutral	hit	n/a
397.1679	n/a	RESPONSE	n/a	n/a	n/a	n/a	n/a	n/a	n/a	red
397.1992	1.0167	ITI	n/a	n/a	n/a	n/a	n/a	n/a	n/a	n/a
398.2159	0.5167	FIXCROSS	n/a	n/a	n/a	n/a	n/a	n/a	n/a	n/a
398.7325	1.15	COLOR_NAME	49	Incongruent	czerwony	red	zielony	green	hit	n/a
399.8552	n/a	RESPONSE	n/a	n/a	n/a	n/a	n/a	n/a	n/a	red
399.8826	1.0167	ITI	n/a	n/a	n/a	n/a	n/a	n/a	n/a	n/a
400.8992	0.5167	FIXCROSS	n/a	n/a	n/a	n/a	n/a	n/a	n/a	n/a
401.4159	1.4334	COLOR_NAME	50	Incongruent	czerwony	red	niebieski	blue	hit	n/a
402.8305	n/a	RESPONSE	n/a	n/a	n/a	n/a	n/a	n/a	n/a	red
402.8493	1.0167	ITI	n/a	n/a	n/a	n/a	n/a	n/a	n/a	n/a
403.8659	0.5167	FIXCROSS	n/a	n/a	n/a	n/a	n/a	n/a	n/a	n/a
404.3826	0.95	COLOR_NAME	51	Neutral	czerwony	red	Neutral	Neutral	hit	n/a
405.3099	n/a	RESPONSE	n/a	n/a	n/a	n/a	n/a	n/a	n/a	red
405.3326	1.0167	ITI	n/a	n/a	n/a	n/a	n/a	n/a	n/a	n/a
406.3493	0.5167	FIXCROSS	n/a	n/a	n/a	n/a	n/a	n/a	n/a	n/a
406.866	1.2667	COLOR_NAME	52	Neutral	zielony	green	Neutral	Neutral	hit	n/a
408.1093	n/a	RESPONSE	n/a	n/a	n/a	n/a	n/a	n/a	n/a	green
408.1327	1.0167	ITI	n/a	n/a	n/a	n/a	n/a	n/a	n/a	n/a
409.1493	0.5167	FIXCROSS	n/a	n/a	n/a	n/a	n/a	n/a	n/a	n/a
409.666	0.9	COLOR_NAME	53	Incongruent	zielony	green	czerwony	red	hit	n/a
410.5406	n/a	RESPONSE	n/a	n/a	n/a	n/a	n/a	n/a	n/a	green
410.566	1.0167	ITI	n/a	n/a	n/a	n/a	n/a	n/a	n/a	n/a
411.5827	0.5167	FIXCROSS	n/a	n/a	n/a	n/a	n/a	n/a	n/a	n/a
412.0994	1.0	COLOR_NAME	54	Neutral	niebieski	blue	Neutral	Neutral	hit	n/a
413.0681	n/a	RESPONSE	n/a	n/a	n/a	n/a	n/a	n/a	n/a	blue
413.0994	1.0167	ITI	n/a	n/a	n/a	n/a	n/a	n/a	n/a	n/a
414.1161	0.5167	FIXCROSS	n/a	n/a	n/a	n/a	n/a	n/a	n/a	n/a
414.6327	0.9	COLOR_NAME	55	Neutral	czerwony	red	Neutral	Neutral	hit	n/a
415.4994	n/a	RESPONSE	n/a	n/a	n/a	n/a	n/a	n/a	n/a	red
415.5327	1.0167	ITI	n/a	n/a	n/a	n/a	n/a	n/a	n/a	n/a
416.5494	0.5167	FIXCROSS	n/a	n/a	n/a	n/a	n/a	n/a	n/a	n/a
417.0661	1.05	COLOR_NAME	56	Incongruent	żółty	yellow	zielony	green	hit	n/a
418.0908	n/a	RESPONSE	n/a	n/a	n/a	n/a	n/a	n/a	n/a	yellow
418.1161	1.0167	ITI	n/a	n/a	n/a	n/a	n/a	n/a	n/a	n/a
419.1328	0.5167	FIXCROSS	n/a	n/a	n/a	n/a	n/a	n/a	n/a	n/a
419.6494	1.1	COLOR_NAME	57	Incongruent	niebieski	blue	zielony	green	hit	n/a
420.7142	n/a	RESPONSE	n/a	n/a	n/a	n/a	n/a	n/a	n/a	blue
420.7495	1.0167	ITI	n/a	n/a	n/a	n/a	n/a	n/a	n/a	n/a
421.7662	0.5167	FIXCROSS	n/a	n/a	n/a	n/a	n/a	n/a	n/a	n/a
422.2828	0.8833	COLOR_NAME	58	Incongruent	żółty	yellow	niebieski	blue	hit	n/a
423.1456	n/a	RESPONSE	n/a	n/a	n/a	n/a	n/a	n/a	n/a	yellow
423.1662	1.0167	ITI	n/a	n/a	n/a	n/a	n/a	n/a	n/a	n/a
424.1828	0.5167	FIXCROSS	n/a	n/a	n/a	n/a	n/a	n/a	n/a	n/a
424.6995	0.8667	COLOR_NAME	59	Neutral	żółty	yellow	Neutral	Neutral	hit	n/a
425.545	n/a	RESPONSE	n/a	n/a	n/a	n/a	n/a	n/a	n/a	yellow
425.5662	1.0167	ITI	n/a	n/a	n/a	n/a	n/a	n/a	n/a	n/a
426.5829	0.5167	FIXCROSS	n/a	n/a	n/a	n/a	n/a	n/a	n/a	n/a
427.0995	1.1167	COLOR_NAME	60	Incongruent	niebieski	blue	żółty	yellow	hit	n/a
428.1844	n/a	RESPONSE	n/a	n/a	n/a	n/a	n/a	n/a	n/a	blue
428.2162	1.0167	ITI	n/a	n/a	n/a	n/a	n/a	n/a	n/a	n/a
429.2329	0.5167	FIXCROSS	n/a	n/a	n/a	n/a	n/a	n/a	n/a	n/a
429.7496	0.8333	COLOR_NAME	61	Neutral	żółty	yellow	Neutral	Neutral	hit	n/a
430.5518	n/a	RESPONSE	n/a	n/a	n/a	n/a	n/a	n/a	n/a	yellow
430.5829	1.0167	ITI	n/a	n/a	n/a	n/a	n/a	n/a	n/a	n/a
431.5996	0.5167	FIXCROSS	n/a	n/a	n/a	n/a	n/a	n/a	n/a	n/a
432.1163	1.1667	COLOR_NAME	62	Incongruent	niebieski	blue	czerwony	red	hit	n/a
433.2551	n/a	RESPONSE	n/a	n/a	n/a	n/a	n/a	n/a	n/a	blue
433.2829	1.0167	ITI	n/a	n/a	n/a	n/a	n/a	n/a	n/a	n/a
434.2996	0.5167	FIXCROSS	n/a	n/a	n/a	n/a	n/a	n/a	n/a	n/a
434.8163	0.8167	COLOR_NAME	63	Incongruent	czerwony	red	zielony	green	hit	n/a
435.6066	n/a	RESPONSE	n/a	n/a	n/a	n/a	n/a	n/a	n/a	red
435.633	1.0167	ITI	n/a	n/a	n/a	n/a	n/a	n/a	n/a	n/a
436.6496	0.5167	FIXCROSS	n/a	n/a	n/a	n/a	n/a	n/a	n/a	n/a
437.1663	0.9333	COLOR_NAME	64	Incongruent	żółty	yellow	czerwony	red	hit	n/a
438.07	n/a	RESPONSE	n/a	n/a	n/a	n/a	n/a	n/a	n/a	yellow
438.0997	1.0167	ITI	n/a	n/a	n/a	n/a	n/a	n/a	n/a	n/a
439.1164	0.5167	FIXCROSS	n/a	n/a	n/a	n/a	n/a	n/a	n/a	n/a
439.633	0.95	COLOR_NAME	65	Neutral	zielony	green	Neutral	Neutral	hit	n/a
440.5654	n/a	RESPONSE	n/a	n/a	n/a	n/a	n/a	n/a	n/a	green
440.583	1.0167	ITI	n/a	n/a	n/a	n/a	n/a	n/a	n/a	n/a
441.5997	0.5167	FIXCROSS	n/a	n/a	n/a	n/a	n/a	n/a	n/a	n/a
442.1164	0.9833	COLOR_NAME	66	Incongruent	żółty	yellow	niebieski	blue	hit	n/a
443.0768	n/a	RESPONSE	n/a	n/a	n/a	n/a	n/a	n/a	n/a	yellow
443.0997	1.0167	ITI	n/a	n/a	n/a	n/a	n/a	n/a	n/a	n/a
444.1164	0.5167	FIXCROSS	n/a	n/a	n/a	n/a	n/a	n/a	n/a	n/a
444.6331	0.9167	COLOR_NAME	67	Incongruent	niebieski	blue	zielony	green	hit	n/a
445.5242	n/a	RESPONSE	n/a	n/a	n/a	n/a	n/a	n/a	n/a	blue
445.5498	1.0167	ITI	n/a	n/a	n/a	n/a	n/a	n/a	n/a	n/a
446.5664	0.5167	FIXCROSS	n/a	n/a	n/a	n/a	n/a	n/a	n/a	n/a
447.0831	1.05	COLOR_NAME	68	Neutral	zielony	green	Neutral	Neutral	hit	n/a
448.0996	n/a	RESPONSE	n/a	n/a	n/a	n/a	n/a	n/a	n/a	green
448.1331	1.0167	ITI	n/a	n/a	n/a	n/a	n/a	n/a	n/a	n/a
449.1498	0.5167	FIXCROSS	n/a	n/a	n/a	n/a	n/a	n/a	n/a	n/a
449.6665	0.85	COLOR_NAME	69	Incongruent	zielony	green	żółty	yellow	hit	n/a
450.483	n/a	RESPONSE	n/a	n/a	n/a	n/a	n/a	n/a	n/a	green
450.5165	1.0167	ITI	n/a	n/a	n/a	n/a	n/a	n/a	n/a	n/a
451.5332	0.5167	FIXCROSS	n/a	n/a	n/a	n/a	n/a	n/a	n/a	n/a
452.0498	0.9167	COLOR_NAME	70	Neutral	niebieski	blue	Neutral	Neutral	hit	n/a
452.9464	n/a	RESPONSE	n/a	n/a	n/a	n/a	n/a	n/a	n/a	blue
452.9665	1.0167	ITI	n/a	n/a	n/a	n/a	n/a	n/a	n/a	n/a
453.9832	0.5167	FIXCROSS	n/a	n/a	n/a	n/a	n/a	n/a	n/a	n/a
454.4999	0.85	COLOR_NAME	71	Neutral	zielony	green	Neutral	Neutral	hit	n/a
455.3298	n/a	RESPONSE	n/a	n/a	n/a	n/a	n/a	n/a	n/a	green
455.3499	1.0167	ITI	n/a	n/a	n/a	n/a	n/a	n/a	n/a	n/a
456.3666	0.5167	FIXCROSS	n/a	n/a	n/a	n/a	n/a	n/a	n/a	n/a
456.8832	0.8167	COLOR_NAME	72	Neutral	czerwony	red	Neutral	Neutral	hit	n/a
457.6812	n/a	RESPONSE	n/a	n/a	n/a	n/a	n/a	n/a	n/a	red
457.6999	1.0334	ITI	n/a	n/a	n/a	n/a	n/a	n/a	n/a	n/a
461.5203	n/a	RESPONSE	n/a	n/a	n/a	n/a	n/a	n/a	n/a	n/a
