onset	duration	trial_type	melody_number	melody_part	key	sound	action
0.0	14.082	CUE_START	n/a	n/a	n/a	n/a	n/a
14.083	7.76	FIXCROSS	n/a	n/a	n/a	n/a	n/a
21.842	6.324	CUE_LISTEN	M1	1	n/a	n/a	n/a
28.166	7.758	FIXCROSS	n/a	n/a	n/a	n/a	n/a
35.924	6.317	CUE_PLAYBACK_RIGHT_HAND	M1	1	n/a	n/a	n/a
36.502	n/a	RESPONSE	M1	1	19	G4	press
36.943	n/a	RESPONSE	M1	1	16	E4	press
37.016	n/a	RESPONSE	M1	1	19	G4	release
37.196	n/a	RESPONSE	M1	1	16	E4	release
37.599	n/a	RESPONSE	M1	1	16	E4	press
37.908	n/a	RESPONSE	M1	1	16	E4	release
38.099	n/a	RESPONSE	M1	1	17	F4	press
38.511	n/a	RESPONSE	M1	1	14	D4	press
38.533	n/a	RESPONSE	M1	1	17	F4	release
38.743	n/a	RESPONSE	M1	1	14	D4	release
39.014	n/a	RESPONSE	M1	1	14	D4	press
39.356	n/a	RESPONSE	M1	1	14	D4	release
39.547	n/a	RESPONSE	M1	1	12	C4	press
39.678	n/a	RESPONSE	M1	1	16	E4	press
39.84	n/a	RESPONSE	M1	1	12	C4	release
40.061	n/a	RESPONSE	M1	1	19	G4	press
40.112	n/a	RESPONSE	M1	1	16	E4	release
40.873	n/a	RESPONSE	M1	1	19	G4	release
42.241	7.758	FIXCROSS	n/a	n/a	n/a	n/a	n/a
50.0	6.317	CUE_LISTEN	        M1	2	n/a	n/a	n/a
56.316	7.758	FIXCROSS	n/a	n/a	n/a	n/a	n/a
64.074	6.325	CUE_PLAYBACK_RIGHT_HAND	        M1	2	n/a	n/a	n/a
64.546	n/a	RESPONSE	        M1	2	19	G4	press
64.997	n/a	RESPONSE	        M1	2	16	E4	press
65.038	n/a	RESPONSE	        M1	2	19	G4	release
65.269	n/a	RESPONSE	        M1	2	16	E4	release
65.451	n/a	RESPONSE	        M1	2	16	E4	press
65.782	n/a	RESPONSE	        M1	2	16	E4	release
65.843	n/a	RESPONSE	        M1	2	17	F4	press
66.304	n/a	RESPONSE	        M1	2	14	D4	press
66.316	n/a	RESPONSE	        M1	2	17	F4	release
66.557	n/a	RESPONSE	        M1	2	14	D4	release
66.778	n/a	RESPONSE	        M1	2	14	D4	press
67.289	n/a	RESPONSE	        M1	2	14	D4	release
67.351	n/a	RESPONSE	        M1	2	12	C4	press
67.622	n/a	RESPONSE	        M1	2	16	E4	press
67.693	n/a	RESPONSE	        M1	2	12	C4	release
67.876	n/a	RESPONSE	        M1	2	12	C4	press
67.966	n/a	RESPONSE	        M1	2	16	E4	release
68.747	n/a	RESPONSE	        M1	2	12	C4	release
70.399	7.758	FIXCROSS	n/a	n/a	n/a	n/a	n/a
78.158	6.317	CUE_LISTEN	        M7	1	n/a	n/a	n/a
84.474	7.758	FIXCROSS	n/a	n/a	n/a	n/a	n/a
92.233	6.317	CUE_PLAYBACK_BOTH_HANDS	        M7	1	n/a	n/a	n/a
92.789	n/a	RESPONSE	        M7	1	22	A#4	press
92.792	n/a	RESPONSE	        M7	1	07	G3	press
93.363	n/a	RESPONSE	        M7	1	21	A4	press
93.443	n/a	RESPONSE	        M7	1	22	A#4	release
93.92	n/a	RESPONSE	        M7	1	19	G4	press
93.963	n/a	RESPONSE	        M7	1	21	A4	release
94.51	n/a	RESPONSE	        M7	1	05	F3	press
94.532	n/a	RESPONSE	        M7	1	21	A4	press
94.573	n/a	RESPONSE	        M7	1	19	G4	release
94.594	n/a	RESPONSE	        M7	1	07	G3	release
95.177	n/a	RESPONSE	        M7	1	16	E4	press
95.187	n/a	RESPONSE	        M7	1	14	D4	press
95.288	n/a	RESPONSE	        M7	1	21	A4	release
95.409	n/a	RESPONSE	        M7	1	14	D4	release
95.681	n/a	RESPONSE	        M7	1	16	E4	release
95.962	n/a	RESPONSE	        M7	1	14	D4	press
96.843	n/a	RESPONSE	        M7	1	19	G4	press
96.846	n/a	RESPONSE	        M7	1	03	D#3	press
96.936	n/a	RESPONSE	        M7	1	14	D4	release
96.967	n/a	RESPONSE	        M7	1	05	F3	release
98.059	n/a	RESPONSE	        M7	1	07	G3	press
98.062	n/a	RESPONSE	        M7	1	09	A3	press
98.381	n/a	RESPONSE	        M7	1	09	A3	release
98.522	n/a	RESPONSE	        M7	1	19	G4	release
98.55	7.758	FIXCROSS	n/a	n/a	n/a	n/a	n/a
98.693	n/a	RESPONSE	        M7	1	09	A3	press
98.874	n/a	RESPONSE	        M7	1	07	G3	release
99.286	n/a	RESPONSE	        M7	1	09	A3	release
99.397	n/a	RESPONSE	        M7	1	03	D#3	release
106.308	6.325	CUE_LISTEN	        M7	2	n/a	n/a	n/a
112.633	7.758	FIXCROSS	n/a	n/a	n/a	n/a	n/a
120.391	6.317	CUE_PLAYBACK_BOTH_HANDS	        M7	2	n/a	n/a	n/a
120.858	n/a	RESPONSE	        M7	2	07	G3	press
120.88	n/a	RESPONSE	        M7	2	14	D4	press
120.883	n/a	RESPONSE	        M7	2	10	A#3	press
121.787	n/a	RESPONSE	        M7	2	14	D4	release
121.804	n/a	RESPONSE	        M7	2	07	G3	release
121.826	n/a	RESPONSE	        M7	2	10	A#3	release
122.14	n/a	RESPONSE	        M7	2	07	G3	press
122.154	n/a	RESPONSE	        M7	2	14	D4	press
122.157	n/a	RESPONSE	        M7	2	10	A#3	press
122.693	n/a	RESPONSE	        M7	2	16	E4	press
122.756	n/a	RESPONSE	        M7	2	14	D4	release
123.023	n/a	RESPONSE	        M7	2	14	D4	press
123.089	n/a	RESPONSE	        M7	2	16	E4	release
123.26	n/a	RESPONSE	        M7	2	12	C4	press
123.359	n/a	RESPONSE	        M7	2	14	D4	release
123.796	n/a	RESPONSE	        M7	2	07	G3	release
123.929	n/a	RESPONSE	        M7	2	09	A3	press
123.972	n/a	RESPONSE	        M7	2	13	C#4	press
124.012	n/a	RESPONSE	        M7	2	10	A#3	release
124.056	n/a	RESPONSE	        M7	2	12	C4	release
124.554	n/a	RESPONSE	        M7	2	09	A3	release
124.616	n/a	RESPONSE	        M7	2	13	C#4	release
124.927	n/a	RESPONSE	        M7	2	07	G3	press
124.948	n/a	RESPONSE	        M7	2	16	E4	press
125.009	n/a	RESPONSE	        M7	2	10	A#3	press
125.49	n/a	RESPONSE	        M7	2	14	D4	press
125.532	n/a	RESPONSE	        M7	2	16	E4	release
125.823	n/a	RESPONSE	        M7	2	11	B3	press
125.924	n/a	RESPONSE	        M7	2	12	C4	press
126.086	n/a	RESPONSE	        M7	2	10	A#3	release
126.137	n/a	RESPONSE	        M7	2	11	B3	release
126.298	n/a	RESPONSE	        M7	2	14	D4	release
126.389	n/a	RESPONSE	        M7	2	07	G3	release
126.473	n/a	RESPONSE	        M7	2	12	C4	release
126.563	n/a	RESPONSE	        M7	2	09	A3	press
126.603	n/a	RESPONSE	        M7	2	12	C4	press
126.708	7.758	FIXCROSS	n/a	n/a	n/a	n/a	n/a
127.284	n/a	RESPONSE	        M7	2	12	C4	release
127.398	n/a	RESPONSE	        M7	2	09	A3	release
127.407	n/a	RESPONSE	        M7	2	17	F4	press
127.538	n/a	RESPONSE	        M7	2	17	F4	release
128.419	n/a	RESPONSE	        M7	2	16	E4	press
128.48	n/a	RESPONSE	        M7	2	05	F3	press
128.762	n/a	RESPONSE	        M7	2	16	E4	release
128.774	n/a	RESPONSE	        M7	2	05	F3	release
134.466	6.317	CUE_LISTEN	        M5	1	n/a	n/a	n/a
140.783	7.758	FIXCROSS	n/a	n/a	n/a	n/a	n/a
148.541	6.325	CUE_PLAYBACK_RIGHT_HAND	        M5	1	n/a	n/a	n/a
148.958	n/a	RESPONSE	        M5	1	21	A4	press
149.189	n/a	RESPONSE	        M5	1	21	A4	release
149.32	n/a	RESPONSE	        M5	1	21	A4	press
149.512	n/a	RESPONSE	        M5	1	21	A4	release
149.633	n/a	RESPONSE	        M5	1	21	A4	press
150.084	n/a	RESPONSE	        M5	1	21	A4	release
150.257	n/a	RESPONSE	        M5	1	21	A4	press
150.453	n/a	RESPONSE	        M5	1	21	A4	release
150.588	n/a	RESPONSE	        M5	1	21	A4	press
150.767	n/a	RESPONSE	        M5	1	21	A4	release
150.952	n/a	RESPONSE	        M5	1	21	A4	press
151.373	n/a	RESPONSE	        M5	1	21	A4	release
151.593	n/a	RESPONSE	        M5	1	21	A4	press
151.883	n/a	RESPONSE	        M5	1	24	C5	press
151.968	n/a	RESPONSE	        M5	1	21	A4	release
152.238	n/a	RESPONSE	        M5	1	17	F4	press
152.407	n/a	RESPONSE	        M5	1	24	C5	release
152.552	n/a	RESPONSE	        M5	1	19	G4	press
152.659	n/a	RESPONSE	        M5	1	17	F4	release
152.873	n/a	RESPONSE	        M5	1	21	A4	press
152.894	n/a	RESPONSE	        M5	1	19	G4	release
154.866	7.758	FIXCROSS	n/a	n/a	n/a	n/a	n/a
154.966	n/a	RESPONSE	        M5	1	21	A4	release
162.625	6.317	CUE_LISTEN	        M5	2	n/a	n/a	n/a
168.941	7.758	FIXCROSS	n/a	n/a	n/a	n/a	n/a
176.7	6.317	CUE_PLAYBACK_RIGHT_HAND	        M5	2	n/a	n/a	n/a
177.17	n/a	RESPONSE	        M5	2	22	A#4	press
177.382	n/a	RESPONSE	        M5	2	22	A#4	release
177.503	n/a	RESPONSE	        M5	2	22	A#4	press
177.714	n/a	RESPONSE	        M5	2	22	A#4	release
177.836	n/a	RESPONSE	        M5	2	22	A#4	press
178.067	n/a	RESPONSE	        M5	2	22	A#4	release
178.188	n/a	RESPONSE	        M5	2	22	A#4	press
178.359	n/a	RESPONSE	        M5	2	22	A#4	release
178.543	n/a	RESPONSE	        M5	2	22	A#4	press
178.902	n/a	RESPONSE	        M5	2	21	A4	press
178.973	n/a	RESPONSE	        M5	2	22	A#4	release
179.076	n/a	RESPONSE	        M5	2	21	A4	release
179.278	n/a	RESPONSE	        M5	2	21	A4	press
179.417	n/a	RESPONSE	        M5	2	21	A4	release
179.63	n/a	RESPONSE	        M5	2	21	A4	press
179.971	n/a	RESPONSE	        M5	2	19	G4	press
180.001	n/a	RESPONSE	        M5	2	21	A4	release
180.212	n/a	RESPONSE	        M5	2	19	G4	release
180.414	n/a	RESPONSE	        M5	2	24	C5	press
180.643	n/a	RESPONSE	        M5	2	24	C5	release
180.773	n/a	RESPONSE	        M5	2	24	C5	press
181.588	n/a	RESPONSE	        M5	2	22	A#4	press
181.633	n/a	RESPONSE	        M5	2	24	C5	release
182.013	n/a	RESPONSE	        M5	2	19	G4	press
182.14	n/a	RESPONSE	        M5	2	22	A#4	release
182.41	n/a	RESPONSE	        M5	2	17	F4	press
182.476	n/a	RESPONSE	        M5	2	19	G4	release
183.016	7.758	FIXCROSS	n/a	n/a	n/a	n/a	n/a
185.324	n/a	RESPONSE	        M5	2	17	F4	release
190.775	6.325	CUE_LISTEN	        M3	1	n/a	n/a	n/a
197.1	7.758	FIXCROSS	n/a	n/a	n/a	n/a	n/a
198.477	n/a	RESPONSE	        M3	1	12	C4	press
199.168	n/a	RESPONSE	        M3	1	12	C4	release
204.858	6.317	CUE_PLAYBACK_BOTH_HANDS	        M3	1	n/a	n/a	n/a
205.296	n/a	RESPONSE	        M3	1	00	C3	press
205.336	n/a	RESPONSE	        M3	1	12	C4	press
205.707	n/a	RESPONSE	        M3	1	07	G3	press
205.71	n/a	RESPONSE	        M3	1	14	D4	press
205.929	n/a	RESPONSE	        M3	1	00	C3	release
206.08	n/a	RESPONSE	        M3	1	04	E3	press
206.092	n/a	RESPONSE	        M3	1	12	C4	release
206.133	n/a	RESPONSE	        M3	1	16	E4	press
206.176	n/a	RESPONSE	        M3	1	07	G3	release
206.209	n/a	RESPONSE	        M3	1	14	D4	release
206.488	n/a	RESPONSE	        M3	1	07	G3	press
206.509	n/a	RESPONSE	        M3	1	12	C4	press
206.57	n/a	RESPONSE	        M3	1	04	E3	release
206.612	n/a	RESPONSE	        M3	1	16	E4	release
206.813	n/a	RESPONSE	        M3	1	12	C4	release
206.834	n/a	RESPONSE	        M3	1	07	G3	release
206.898	n/a	RESPONSE	        M3	1	00	C3	press
206.937	n/a	RESPONSE	        M3	1	12	C4	press
207.288	n/a	RESPONSE	        M3	1	07	G3	press
207.309	n/a	RESPONSE	        M3	1	14	D4	press
207.41	n/a	RESPONSE	        M3	1	00	C3	release
207.414	n/a	RESPONSE	        M3	1	12	C4	release
207.664	n/a	RESPONSE	        M3	1	04	E3	press
207.698	n/a	RESPONSE	        M3	1	16	E4	press
207.737	n/a	RESPONSE	        M3	1	07	G3	release
207.788	n/a	RESPONSE	        M3	1	14	D4	release
208.069	n/a	RESPONSE	        M3	1	07	G3	press
208.09	n/a	RESPONSE	        M3	1	12	C4	press
208.153	n/a	RESPONSE	        M3	1	04	E3	release
208.233	n/a	RESPONSE	        M3	1	16	E4	release
208.384	n/a	RESPONSE	        M3	1	07	G3	release
208.436	n/a	RESPONSE	        M3	1	12	C4	release
208.447	n/a	RESPONSE	        M3	1	00	C3	press
208.458	n/a	RESPONSE	        M3	1	16	E4	press
208.809	n/a	RESPONSE	        M3	1	17	F4	press
208.82	n/a	RESPONSE	        M3	1	07	G3	press
208.892	n/a	RESPONSE	        M3	1	16	E4	release
208.943	n/a	RESPONSE	        M3	1	00	C3	release
209.184	n/a	RESPONSE	        M3	1	19	G4	press
209.196	n/a	RESPONSE	        M3	1	04	E3	press
209.258	n/a	RESPONSE	        M3	1	07	G3	release
209.269	n/a	RESPONSE	        M3	1	17	F4	release
209.582	n/a	RESPONSE	        M3	1	07	G3	press
209.67	n/a	RESPONSE	        M3	1	04	E3	release
209.972	n/a	RESPONSE	        M3	1	16	E4	press
209.974	n/a	RESPONSE	        M3	1	00	C3	press
210.016	n/a	RESPONSE	        M3	1	19	G4	release
210.037	n/a	RESPONSE	        M3	1	07	G3	release
210.338	n/a	RESPONSE	        M3	1	17	F4	press
210.342	n/a	RESPONSE	        M3	1	07	G3	press
210.414	n/a	RESPONSE	        M3	1	16	E4	release
210.454	n/a	RESPONSE	        M3	1	00	C3	release
210.686	n/a	RESPONSE	        M3	1	04	E3	press
210.692	n/a	RESPONSE	        M3	1	19	G4	press
210.75	n/a	RESPONSE	        M3	1	17	F4	release
210.76	n/a	RESPONSE	        M3	1	07	G3	release
211.064	n/a	RESPONSE	        M3	1	07	G3	press
211.13	n/a	RESPONSE	        M3	1	04	E3	release
211.175	7.758	FIXCROSS	n/a	n/a	n/a	n/a	n/a
211.393	n/a	RESPONSE	        M3	1	19	G4	release
211.444	n/a	RESPONSE	        M3	1	07	G3	release
218.933	6.317	CUE_LISTEN	        M3	2	n/a	n/a	n/a
225.25	7.758	FIXCROSS	n/a	n/a	n/a	n/a	n/a
233.008	6.325	CUE_PLAYBACK_BOTH_HANDS	        M3	2	n/a	n/a	n/a
233.416	n/a	RESPONSE	        M3	2	19	G4	press
233.418	n/a	RESPONSE	        M3	2	00	C3	press
233.683	n/a	RESPONSE	        M3	2	21	A4	press
233.756	n/a	RESPONSE	        M3	2	19	G4	release
233.943	n/a	RESPONSE	        M3	2	21	A4	release
233.946	n/a	RESPONSE	        M3	2	19	G4	press
233.95	n/a	RESPONSE	        M3	2	07	G3	press
234.089	n/a	RESPONSE	        M3	2	00	C3	release
234.21	n/a	RESPONSE	        M3	2	17	F4	press
234.272	n/a	RESPONSE	        M3	2	19	G4	release
234.423	n/a	RESPONSE	        M3	2	04	E3	press
234.444	n/a	RESPONSE	        M3	2	16	E4	press
234.508	n/a	RESPONSE	        M3	2	07	G3	release
234.608	n/a	RESPONSE	        M3	2	17	F4	release
234.878	n/a	RESPONSE	        M3	2	12	C4	press
234.899	n/a	RESPONSE	        M3	2	07	G3	press
234.973	n/a	RESPONSE	        M3	2	16	E4	release
234.982	n/a	RESPONSE	        M3	2	04	E3	release
235.283	n/a	RESPONSE	        M3	2	07	G3	release
235.304	n/a	RESPONSE	        M3	2	12	C4	release
235.336	n/a	RESPONSE	        M3	2	19	G4	press
235.339	n/a	RESPONSE	        M3	2	00	C3	press
235.54	n/a	RESPONSE	        M3	2	21	A4	press
235.649	n/a	RESPONSE	        M3	2	19	G4	release
235.803	n/a	RESPONSE	        M3	2	19	G4	press
235.832	n/a	RESPONSE	        M3	2	21	A4	release
235.846	n/a	RESPONSE	        M3	2	07	G3	press
236.004	n/a	RESPONSE	        M3	2	00	C3	release
236.086	n/a	RESPONSE	        M3	2	17	F4	press
236.127	n/a	RESPONSE	        M3	2	19	G4	release
236.288	n/a	RESPONSE	        M3	2	04	E3	press
236.342	n/a	RESPONSE	        M3	2	07	G3	release
236.352	n/a	RESPONSE	        M3	2	16	E4	press
236.464	n/a	RESPONSE	        M3	2	17	F4	release
236.763	n/a	RESPONSE	        M3	2	07	G3	press
236.786	n/a	RESPONSE	        M3	2	12	C4	press
236.846	n/a	RESPONSE	        M3	2	04	E3	release
236.869	n/a	RESPONSE	        M3	2	16	E4	release
237.108	n/a	RESPONSE	        M3	2	07	G3	release
237.119	n/a	RESPONSE	        M3	2	12	C4	release
237.2	n/a	RESPONSE	        M3	2	00	C3	press
237.232	n/a	RESPONSE	        M3	2	12	C4	press
237.673	n/a	RESPONSE	        M3	2	07	G3	press
237.784	n/a	RESPONSE	        M3	2	00	C3	release
238.076	n/a	RESPONSE	        M3	2	12	C4	release
238.107	n/a	RESPONSE	        M3	2	07	G3	release
238.15	n/a	RESPONSE	        M3	2	00	C3	press
238.169	n/a	RESPONSE	        M3	2	12	C4	press
238.763	n/a	RESPONSE	        M3	2	00	C3	release
238.792	n/a	RESPONSE	        M3	2	12	C4	release
238.993	n/a	RESPONSE	        M3	2	00	C3	press
239.004	n/a	RESPONSE	        M3	2	12	C4	press
239.333	7.758	FIXCROSS	n/a	n/a	n/a	n/a	n/a
239.436	n/a	RESPONSE	        M3	2	07	G3	press
239.557	n/a	RESPONSE	        M3	2	00	C3	release
239.829	n/a	RESPONSE	        M3	2	12	C4	release
239.869	n/a	RESPONSE	        M3	2	07	G3	release
239.882	n/a	RESPONSE	        M3	2	00	C3	press
239.913	n/a	RESPONSE	        M3	2	12	C4	press
240.464	n/a	RESPONSE	        M3	2	00	C3	release
240.512	n/a	RESPONSE	        M3	2	12	C4	release
247.092	6.317	CUE_LISTEN	        M6	1	n/a	n/a	n/a
250.796	n/a	RESPONSE	        M6	1	07	G3	press
250.903	n/a	RESPONSE	        M6	1	07	G3	release
251.08	n/a	RESPONSE	        M6	1	07	G3	press
251.159	n/a	RESPONSE	        M6	1	07	G3	release
253.408	7.758	FIXCROSS	n/a	n/a	n/a	n/a	n/a
256.774	n/a	RESPONSE	        M6	1	04	E3	press
261.167	6.325	CUE_PLAYBACK_BOTH_HANDS	        M6	1	n/a	n/a	n/a
261.617	n/a	RESPONSE	        M6	1	16	E4	press
262.025	n/a	RESPONSE	        M6	1	19	G4	press
262.053	n/a	RESPONSE	        M6	1	11	B3	press
262.153	n/a	RESPONSE	        M6	1	18	F#4	press
262.248	n/a	RESPONSE	        M6	1	16	E4	release
262.274	n/a	RESPONSE	        M6	1	04	E3	release
262.284	n/a	RESPONSE	        M6	1	19	G4	release
262.409	n/a	RESPONSE	        M6	1	19	G4	press
262.422	n/a	RESPONSE	        M6	1	16	E4	press
262.444	n/a	RESPONSE	        M6	1	07	G3	press
262.449	n/a	RESPONSE	        M6	1	18	F#4	release
262.568	n/a	RESPONSE	        M6	1	11	B3	release
262.817	n/a	RESPONSE	        M6	1	23	B4	press
262.832	n/a	RESPONSE	        M6	1	11	B3	press
262.93	n/a	RESPONSE	        M6	1	19	G4	release
262.955	n/a	RESPONSE	        M6	1	24	C5	press
262.987	n/a	RESPONSE	        M6	1	07	G3	release
263.01	n/a	RESPONSE	        M6	1	23	B4	release
263.143	n/a	RESPONSE	        M6	1	23	B4	press
263.225	n/a	RESPONSE	        M6	1	24	C5	release
263.229	n/a	RESPONSE	        M6	1	04	E3	press
263.25	n/a	RESPONSE	        M6	1	11	B3	release
263.319	n/a	RESPONSE	        M6	1	24	C5	press
263.419	n/a	RESPONSE	        M6	1	23	B4	release
263.683	n/a	RESPONSE	        M6	1	11	B3	press
263.759	n/a	RESPONSE	        M6	1	23	B4	press
263.828	n/a	RESPONSE	        M6	1	24	C5	release
263.852	n/a	RESPONSE	        M6	1	04	E3	release
263.858	n/a	RESPONSE	        M6	1	16	E4	release
264.127	n/a	RESPONSE	        M6	1	07	G3	press
264.186	n/a	RESPONSE	        M6	1	16	E4	press
264.247	n/a	RESPONSE	        M6	1	11	B3	release
264.618	n/a	RESPONSE	        M6	1	11	B3	press
264.692	n/a	RESPONSE	        M6	1	07	G3	release
264.7	n/a	RESPONSE	        M6	1	16	E4	release
264.832	n/a	RESPONSE	        M6	1	11	B3	release
264.963	n/a	RESPONSE	        M6	1	14	D4	press
264.997	n/a	RESPONSE	        M6	1	02	D3	press
265.035	n/a	RESPONSE	        M6	1	04	E3	press
265.328	n/a	RESPONSE	        M6	1	18	F#4	press
265.35	n/a	RESPONSE	        M6	1	23	B4	release
265.359	n/a	RESPONSE	        M6	1	09	A3	press
265.37	n/a	RESPONSE	        M6	1	04	E3	release
265.402	n/a	RESPONSE	        M6	1	02	D3	release
265.433	n/a	RESPONSE	        M6	1	11	B3	press
265.454	n/a	RESPONSE	        M6	1	16	E4	press
265.516	n/a	RESPONSE	        M6	1	18	F#4	release
265.647	n/a	RESPONSE	        M6	1	07	G3	press
265.668	n/a	RESPONSE	        M6	1	18	F#4	press
265.67	n/a	RESPONSE	        M6	1	09	A3	release
265.7	n/a	RESPONSE	        M6	1	14	D4	release
265.732	n/a	RESPONSE	        M6	1	16	E4	release
265.913	n/a	RESPONSE	        M6	1	11	B3	release
266.124	n/a	RESPONSE	        M6	1	11	B3	press
266.235	n/a	RESPONSE	        M6	1	07	G3	release
266.327	n/a	RESPONSE	        M6	1	19	G4	press
266.37	n/a	RESPONSE	        M6	1	18	F#4	release
266.379	n/a	RESPONSE	        M6	1	11	B3	release
266.46	n/a	RESPONSE	        M6	1	21	A4	press
266.494	n/a	RESPONSE	        M6	1	14	D4	press
266.503	n/a	RESPONSE	        M6	1	19	G4	release
266.524	n/a	RESPONSE	        M6	1	04	E3	press
266.535	n/a	RESPONSE	        M6	1	02	D3	press
266.697	n/a	RESPONSE	        M6	1	19	G4	press
266.768	n/a	RESPONSE	        M6	1	21	A4	release
266.779	n/a	RESPONSE	        M6	1	02	D3	release
266.782	n/a	RESPONSE	        M6	1	05	F3	press
267.043	n/a	RESPONSE	        M6	1	05	F3	release
267.083	n/a	RESPONSE	        M6	1	11	B3	press
267.124	n/a	RESPONSE	        M6	1	04	E3	release
267.295	n/a	RESPONSE	        M6	1	07	G3	press
267.367	n/a	RESPONSE	        M6	1	14	D4	release
267.468	n/a	RESPONSE	        M6	1	14	D4	press
267.492	7.758	FIXCROSS	n/a	n/a	n/a	n/a	n/a
267.519	n/a	RESPONSE	        M6	1	11	B3	release
267.84	n/a	RESPONSE	        M6	1	11	B3	press
267.924	n/a	RESPONSE	        M6	1	07	G3	release
267.953	n/a	RESPONSE	        M6	1	14	D4	release
268.214	n/a	RESPONSE	        M6	1	11	B3	release
268.626	n/a	RESPONSE	        M6	1	19	G4	release
275.25	6.317	CUE_LISTEN	        M6	2	n/a	n/a	n/a
281.567	7.758	FIXCROSS	n/a	n/a	n/a	n/a	n/a
286.138	n/a	RESPONSE	        M6	2	04	E3	press
288.159	n/a	RESPONSE	        M6	2	04	E3	release
288.902	n/a	RESPONSE	        M6	2	04	E3	press
289.325	6.317	CUE_PLAYBACK_BOTH_HANDS	        M6	2	n/a	n/a	n/a
289.69	n/a	RESPONSE	        M6	2	16	E4	press
290.172	n/a	RESPONSE	        M6	2	11	B3	press
290.323	n/a	RESPONSE	        M6	2	11	B3	release
290.354	n/a	RESPONSE	        M6	2	16	E4	release
290.403	n/a	RESPONSE	        M6	2	04	E3	release
290.519	n/a	RESPONSE	        M6	2	04	E3	press
290.523	n/a	RESPONSE	        M6	2	11	B3	press
290.548	n/a	RESPONSE	        M6	2	24	C5	press
290.629	n/a	RESPONSE	        M6	2	16	E4	press
290.643	n/a	RESPONSE	        M6	2	14	D4	press
290.73	n/a	RESPONSE	        M6	2	11	B3	release
290.917	n/a	RESPONSE	        M6	2	11	B3	press
291.024	n/a	RESPONSE	        M6	2	14	D4	release
291.06	n/a	RESPONSE	        M6	2	16	E4	release
291.142	n/a	RESPONSE	        M6	2	04	E3	release
291.283	n/a	RESPONSE	        M6	2	07	G3	press
291.463	n/a	RESPONSE	        M6	2	16	E4	press
291.524	n/a	RESPONSE	        M6	2	11	B3	release
291.764	n/a	RESPONSE	        M6	2	21	A4	press
291.773	n/a	RESPONSE	        M6	2	11	B3	press
291.862	n/a	RESPONSE	        M6	2	24	C5	release
291.864	n/a	RESPONSE	        M6	2	07	G3	release
291.867	n/a	RESPONSE	        M6	2	16	E4	release
292.044	n/a	RESPONSE	        M6	2	11	B3	release
292.155	n/a	RESPONSE	        M6	2	14	D4	press
292.164	n/a	RESPONSE	        M6	2	04	E3	press
292.288	n/a	RESPONSE	        M6	2	14	D4	release
292.535	n/a	RESPONSE	        M6	2	11	B3	press
292.593	n/a	RESPONSE	        M6	2	14	D4	press
292.882	n/a	RESPONSE	        M6	2	14	D4	release
292.889	n/a	RESPONSE	        M6	2	04	E3	release
293.128	n/a	RESPONSE	        M6	2	07	G3	press
293.165	n/a	RESPONSE	        M6	2	14	D4	press
293.189	n/a	RESPONSE	        M6	2	11	B3	release
293.48	n/a	RESPONSE	        M6	2	11	B3	press
293.567	n/a	RESPONSE	        M6	2	07	G3	release
293.588	n/a	RESPONSE	        M6	2	14	D4	release
293.659	n/a	RESPONSE	        M6	2	11	B3	release
293.85	n/a	RESPONSE	        M6	2	24	C5	press
293.869	n/a	RESPONSE	        M6	2	02	D3	press
293.879	n/a	RESPONSE	        M6	2	14	D4	press
293.882	n/a	RESPONSE	        M6	2	04	E3	press
293.933	n/a	RESPONSE	        M6	2	21	A4	release
294.156	n/a	RESPONSE	        M6	2	04	E3	release
294.247	n/a	RESPONSE	        M6	2	09	A3	press
294.328	n/a	RESPONSE	        M6	2	02	D3	release
294.449	n/a	RESPONSE	        M6	2	11	B3	press
294.5	n/a	RESPONSE	        M6	2	07	G3	press
294.554	n/a	RESPONSE	        M6	2	11	B3	release
294.563	n/a	RESPONSE	        M6	2	09	A3	release
294.894	n/a	RESPONSE	        M6	2	11	B3	press
294.985	n/a	RESPONSE	        M6	2	07	G3	release
294.988	n/a	RESPONSE	        M6	2	21	A4	press
294.99	n/a	RESPONSE	        M6	2	19	G4	press
294.999	n/a	RESPONSE	        M6	2	14	D4	release
295.08	n/a	RESPONSE	        M6	2	24	C5	release
295.212	n/a	RESPONSE	        M6	2	11	B3	release
295.303	n/a	RESPONSE	        M6	2	14	D4	press
295.324	n/a	RESPONSE	        M6	2	04	E3	press
295.355	n/a	RESPONSE	        M6	2	02	D3	press
295.642	7.758	FIXCROSS	n/a	n/a	n/a	n/a	n/a
295.767	n/a	RESPONSE	        M6	2	02	D3	release
295.878	n/a	RESPONSE	        M6	2	11	B3	press
295.88	n/a	RESPONSE	        M6	2	04	E3	release
295.94	n/a	RESPONSE	        M6	2	14	D4	release
296.142	n/a	RESPONSE	        M6	2	07	G3	press
296.173	n/a	RESPONSE	        M6	2	19	G4	release
296.264	n/a	RESPONSE	        M6	2	14	D4	press
296.287	n/a	RESPONSE	        M6	2	11	B3	release
296.437	n/a	RESPONSE	        M6	2	21	A4	release
296.609	n/a	RESPONSE	        M6	2	11	B3	press
296.659	n/a	RESPONSE	        M6	2	07	G3	release
296.69	n/a	RESPONSE	        M6	2	14	D4	release
296.752	n/a	RESPONSE	        M6	2	11	B3	release
303.4	6.325	CUE_LISTEN	        M2	1	n/a	n/a	n/a
309.725	7.758	FIXCROSS	n/a	n/a	n/a	n/a	n/a
317.483	6.317	CUE_PLAYBACK_RIGHT_HAND	        M2	1	n/a	n/a	n/a
317.864	n/a	RESPONSE	        M2	1	00	C3	press
317.874	n/a	RESPONSE	        M2	1	24	C5	press
317.894	n/a	RESPONSE	        M2	1	07	G3	press
318.195	n/a	RESPONSE	        M2	1	19	G4	press
318.297	n/a	RESPONSE	        M2	1	24	C5	release
318.398	n/a	RESPONSE	        M2	1	00	C3	release
318.409	n/a	RESPONSE	        M2	1	07	G3	release
318.412	n/a	RESPONSE	        M2	1	19	G4	release
318.564	n/a	RESPONSE	        M2	1	07	G3	press
318.573	n/a	RESPONSE	        M2	1	00	C3	press
318.575	n/a	RESPONSE	        M2	1	19	G4	press
318.916	n/a	RESPONSE	        M2	1	00	C3	release
318.937	n/a	RESPONSE	        M2	1	07	G3	release
319.129	n/a	RESPONSE	        M2	1	17	F4	press
319.229	n/a	RESPONSE	        M2	1	19	G4	release
319.433	n/a	RESPONSE	        M2	1	16	E4	press
319.642	n/a	RESPONSE	        M2	1	17	F4	release
319.813	n/a	RESPONSE	        M2	1	17	F4	press
319.925	n/a	RESPONSE	        M2	1	16	E4	release
320.155	n/a	RESPONSE	        M2	1	19	G4	press
320.217	n/a	RESPONSE	        M2	1	17	F4	release
320.757	n/a	RESPONSE	        M2	1	19	G4	release
320.925	n/a	RESPONSE	        M2	1	24	C5	press
321.212	n/a	RESPONSE	        M2	1	19	G4	press
321.309	n/a	RESPONSE	        M2	1	24	C5	release
321.423	n/a	RESPONSE	        M2	1	19	G4	release
321.59	n/a	RESPONSE	        M2	1	19	G4	press
321.928	n/a	RESPONSE	        M2	1	17	F4	press
322.067	n/a	RESPONSE	        M2	1	19	G4	release
322.273	n/a	RESPONSE	        M2	1	16	E4	press
322.378	n/a	RESPONSE	        M2	1	17	F4	release
322.664	n/a	RESPONSE	        M2	1	14	D4	press
322.672	n/a	RESPONSE	        M2	1	12	C4	press
322.768	n/a	RESPONSE	        M2	1	16	E4	release
322.857	n/a	RESPONSE	        M2	1	12	C4	release
323.06	n/a	RESPONSE	        M2	1	12	C4	press
323.618	n/a	RESPONSE	        M2	1	14	D4	release
323.71	n/a	RESPONSE	        M2	1	12	C4	release
323.8	7.758	FIXCROSS	n/a	n/a	n/a	n/a	n/a
331.558	6.317	CUE_LISTEN	        M2	2	n/a	n/a	n/a
337.875	7.758	FIXCROSS	n/a	n/a	n/a	n/a	n/a
345.634	6.325	CUE_PLAYBACK_RIGHT_HAND	        M2	2	n/a	n/a	n/a
346.088	n/a	RESPONSE	        M2	2	12	C4	press
346.467	n/a	RESPONSE	        M2	2	14	D4	press
346.568	n/a	RESPONSE	        M2	2	12	C4	release
346.869	n/a	RESPONSE	        M2	2	16	E4	press
346.92	n/a	RESPONSE	        M2	2	14	D4	release
347.242	n/a	RESPONSE	        M2	2	14	D4	press
347.293	n/a	RESPONSE	        M2	2	16	E4	release
347.634	n/a	RESPONSE	        M2	2	16	E4	press
347.705	n/a	RESPONSE	        M2	2	14	D4	release
348.017	n/a	RESPONSE	        M2	2	17	F4	press
348.118	n/a	RESPONSE	        M2	2	16	E4	release
348.379	n/a	RESPONSE	        M2	2	19	G4	press
348.45	n/a	RESPONSE	        M2	2	17	F4	release
349.102	n/a	RESPONSE	        M2	2	16	E4	press
349.123	n/a	RESPONSE	        M2	2	19	G4	release
349.574	n/a	RESPONSE	        M2	2	19	G4	press
349.615	n/a	RESPONSE	        M2	2	16	E4	release
349.807	n/a	RESPONSE	        M2	2	19	G4	release
349.918	n/a	RESPONSE	        M2	2	19	G4	press
350.25	n/a	RESPONSE	        M2	2	17	F4	press
350.322	n/a	RESPONSE	        M2	2	19	G4	release
350.587	n/a	RESPONSE	        M2	2	16	E4	press
350.628	n/a	RESPONSE	        M2	2	17	F4	release
350.933	n/a	RESPONSE	        M2	2	14	D4	press
351.032	n/a	RESPONSE	        M2	2	16	E4	release
351.262	n/a	RESPONSE	        M2	2	12	C4	press
351.335	n/a	RESPONSE	        M2	2	14	D4	release
351.958	7.759	FIXCROSS	n/a	n/a	n/a	n/a	n/a
352.037	n/a	RESPONSE	        M2	2	12	C4	release
359.717	6.317	CUE_LISTEN	        M8	1	n/a	n/a	n/a
366.034	7.758	FIXCROSS	n/a	n/a	n/a	n/a	n/a
373.792	6.317	CUE_PLAYBACK_RIGHT_HAND	        M8	1	n/a	n/a	n/a
374.16	n/a	RESPONSE	        M8	1	17	F4	press
374.629	n/a	RESPONSE	        M8	1	17	F4	release
374.98	n/a	RESPONSE	        M8	1	16	E4	press
375.232	n/a	RESPONSE	        M8	1	19	G4	press
375.333	n/a	RESPONSE	        M8	1	16	E4	release
375.514	n/a	RESPONSE	        M8	1	23	B4	press
375.575	n/a	RESPONSE	        M8	1	19	G4	release
375.757	n/a	RESPONSE	        M8	1	23	B4	release
375.949	n/a	RESPONSE	        M8	1	23	B4	press
376.439	n/a	RESPONSE	        M8	1	18	F#4	press
376.552	n/a	RESPONSE	        M8	1	23	B4	release
376.882	n/a	RESPONSE	        M8	1	21	A4	press
376.955	n/a	RESPONSE	        M8	1	18	F#4	release
377.604	n/a	RESPONSE	        M8	1	23	B4	press
377.675	n/a	RESPONSE	        M8	1	21	A4	release
378.137	n/a	RESPONSE	        M8	1	21	A4	press
378.258	n/a	RESPONSE	        M8	1	23	B4	release
378.429	n/a	RESPONSE	        M8	1	19	G4	press
378.51	n/a	RESPONSE	        M8	1	21	A4	release
378.722	n/a	RESPONSE	        M8	1	18	F#4	press
378.825	n/a	RESPONSE	        M8	1	19	G4	release
378.934	n/a	RESPONSE	        M8	1	16	E4	press
378.997	n/a	RESPONSE	        M8	1	18	F#4	release
379.368	n/a	RESPONSE	        M8	1	23	B4	press
379.479	n/a	RESPONSE	        M8	1	16	E4	release
380.108	7.758	FIXCROSS	n/a	n/a	n/a	n/a	n/a
380.202	n/a	RESPONSE	        M8	1	23	B4	release
387.867	6.325	CUE_LISTEN	        M8	2	n/a	n/a	n/a
394.192	7.758	FIXCROSS	n/a	n/a	n/a	n/a	n/a
401.95	6.317	CUE_PLAYBACK_RIGHT_HAND	        M8	2	n/a	n/a	n/a
402.612	n/a	RESPONSE	        M8	2	16	E4	press
402.909	n/a	RESPONSE	        M8	2	19	G4	press
403.03	n/a	RESPONSE	        M8	2	16	E4	release
403.282	n/a	RESPONSE	        M8	2	23	B4	press
403.335	n/a	RESPONSE	        M8	2	19	G4	release
403.537	n/a	RESPONSE	        M8	2	23	B4	release
403.749	n/a	RESPONSE	        M8	2	23	B4	press
404.28	n/a	RESPONSE	        M8	2	18	F#4	press
404.372	n/a	RESPONSE	        M8	2	23	B4	release
404.753	n/a	RESPONSE	        M8	2	21	A4	press
404.804	n/a	RESPONSE	        M8	2	18	F#4	release
405.468	n/a	RESPONSE	        M8	2	23	B4	press
405.537	n/a	RESPONSE	        M8	2	21	A4	release
406.089	n/a	RESPONSE	        M8	2	21	A4	press
406.19	n/a	RESPONSE	        M8	2	23	B4	release
406.41	n/a	RESPONSE	        M8	2	19	G4	press
406.472	n/a	RESPONSE	        M8	2	21	A4	release
406.703	n/a	RESPONSE	        M8	2	18	F#4	press
406.844	n/a	RESPONSE	        M8	2	19	G4	release
407.037	n/a	RESPONSE	        M8	2	19	G4	press
407.108	n/a	RESPONSE	        M8	2	18	F#4	release
407.508	n/a	RESPONSE	        M8	2	16	E4	press
407.582	n/a	RESPONSE	        M8	2	19	G4	release
408.267	7.758	FIXCROSS	n/a	n/a	n/a	n/a	n/a
408.42	n/a	RESPONSE	        M8	2	16	E4	release
416.025	6.317	CUE_LISTEN	        M4	1	n/a	n/a	n/a
422.342	7.758	FIXCROSS	n/a	n/a	n/a	n/a	n/a
430.1	6.325	CUE_PLAYBACK_BOTH_HANDS	        M4	1	n/a	n/a	n/a
430.492	n/a	RESPONSE	        M4	1	09	A3	press
430.499	n/a	RESPONSE	        M4	1	05	F3	press
430.505	n/a	RESPONSE	        M4	1	12	C4	press
430.833	n/a	RESPONSE	        M4	1	16	E4	press
431.189	n/a	RESPONSE	        M4	1	19	G4	press
431.212	n/a	RESPONSE	        M4	1	21	A4	press
431.244	n/a	RESPONSE	        M4	1	16	E4	release
431.399	n/a	RESPONSE	        M4	1	21	A4	release
431.408	n/a	RESPONSE	        M4	1	19	G4	release
431.785	n/a	RESPONSE	        M4	1	09	A3	release
431.789	n/a	RESPONSE	        M4	1	12	C4	release
431.844	n/a	RESPONSE	        M4	1	17	F4	press
431.853	n/a	RESPONSE	        M4	1	09	A3	press
431.867	n/a	RESPONSE	        M4	1	12	C4	press
432.035	n/a	RESPONSE	        M4	1	21	A4	press
432.12	n/a	RESPONSE	        M4	1	17	F4	release
432.31	n/a	RESPONSE	        M4	1	19	G4	press
432.375	n/a	RESPONSE	        M4	1	21	A4	release
432.597	n/a	RESPONSE	        M4	1	17	F4	press
432.635	n/a	RESPONSE	        M4	1	19	G4	release
432.91	n/a	RESPONSE	        M4	1	16	E4	press
432.948	n/a	RESPONSE	        M4	1	17	F4	release
433.227	n/a	RESPONSE	        M4	1	17	F4	press
433.284	n/a	RESPONSE	        M4	1	16	E4	release
433.565	n/a	RESPONSE	        M4	1	05	F3	release
433.568	n/a	RESPONSE	        M4	1	09	A3	release
433.577	n/a	RESPONSE	        M4	1	17	F4	release
433.622	n/a	RESPONSE	        M4	1	12	C4	release
433.773	n/a	RESPONSE	        M4	1	09	A3	press
433.777	n/a	RESPONSE	        M4	1	12	C4	press
433.784	n/a	RESPONSE	        M4	1	05	F3	press
434.177	n/a	RESPONSE	        M4	1	17	F4	press
434.447	n/a	RESPONSE	        M4	1	21	A4	press
434.528	n/a	RESPONSE	        M4	1	17	F4	release
434.779	n/a	RESPONSE	        M4	1	19	G4	press
434.85	n/a	RESPONSE	        M4	1	21	A4	release
435.102	n/a	RESPONSE	        M4	1	17	F4	press
435.143	n/a	RESPONSE	        M4	1	19	G4	release
435.414	n/a	RESPONSE	        M4	1	16	E4	press
435.465	n/a	RESPONSE	        M4	1	17	F4	release
435.707	n/a	RESPONSE	        M4	1	17	F4	press
435.768	n/a	RESPONSE	        M4	1	16	E4	release
436.319	n/a	RESPONSE	        M4	1	17	F4	release
436.425	7.758	FIXCROSS	n/a	n/a	n/a	n/a	n/a
436.69	n/a	RESPONSE	        M4	1	05	F3	release
436.752	n/a	RESPONSE	        M4	1	09	A3	release
437.333	n/a	RESPONSE	        M4	1	12	C4	release
444.184	6.317	CUE_LISTEN	        M4	2	n/a	n/a	n/a
450.5	7.758	FIXCROSS	n/a	n/a	n/a	n/a	n/a
458.259	6.325	CUE_PLAYBACK_BOTH_HANDS	        M4	2	n/a	n/a	n/a
458.762	n/a	RESPONSE	        M4	2	09	A3	press
458.775	n/a	RESPONSE	        M4	2	12	C4	press
458.794	n/a	RESPONSE	        M4	2	05	F3	press
459.125	n/a	RESPONSE	        M4	2	17	F4	press
459.477	n/a	RESPONSE	        M4	2	21	A4	press
459.628	n/a	RESPONSE	        M4	2	17	F4	release
459.87	n/a	RESPONSE	        M4	2	23	B4	press
459.873	n/a	RESPONSE	        M4	2	24	C5	press
459.942	n/a	RESPONSE	        M4	2	21	A4	release
460.123	n/a	RESPONSE	        M4	2	05	F3	release
460.125	n/a	RESPONSE	        M4	2	09	A3	release
460.128	n/a	RESPONSE	        M4	2	24	C5	release
460.187	n/a	RESPONSE	        M4	2	12	C4	release
460.328	n/a	RESPONSE	        M4	2	20	G#4	press
460.422	n/a	RESPONSE	        M4	2	04	E3	press
460.438	n/a	RESPONSE	        M4	2	07	G3	press
460.459	n/a	RESPONSE	        M4	2	23	B4	release
460.463	n/a	RESPONSE	        M4	2	12	C4	press
460.839	n/a	RESPONSE	        M4	2	19	G4	press
460.9	n/a	RESPONSE	        M4	2	20	G#4	release
461.152	n/a	RESPONSE	        M4	2	17	F4	press
461.257	n/a	RESPONSE	        M4	2	19	G4	release
461.723	n/a	RESPONSE	        M4	2	17	F4	release
461.773	n/a	RESPONSE	        M4	2	07	G3	release
461.784	n/a	RESPONSE	        M4	2	12	C4	release
461.788	n/a	RESPONSE	        M4	2	04	E3	release
462.248	n/a	RESPONSE	        M4	2	07	G3	press
462.25	n/a	RESPONSE	        M4	2	04	E3	press
462.258	n/a	RESPONSE	        M4	2	12	C4	press
462.632	n/a	RESPONSE	        M4	2	16	E4	press
462.972	n/a	RESPONSE	        M4	2	19	G4	press
462.995	n/a	RESPONSE	        M4	2	17	F4	press
463.036	n/a	RESPONSE	        M4	2	16	E4	release
463.649	n/a	RESPONSE	        M4	2	17	F4	release
463.694	n/a	RESPONSE	        M4	2	20	G#4	press
463.772	n/a	RESPONSE	        M4	2	19	G4	release
463.896	n/a	RESPONSE	        M4	2	07	G3	release
463.915	n/a	RESPONSE	        M4	2	04	E3	release
463.982	n/a	RESPONSE	        M4	2	12	C4	release
464.203	n/a	RESPONSE	        M4	2	05	F3	press
464.234	n/a	RESPONSE	        M4	2	19	G4	press
464.253	n/a	RESPONSE	        M4	2	09	A3	press
464.285	n/a	RESPONSE	        M4	2	20	G#4	release
464.288	n/a	RESPONSE	        M4	2	12	C4	press
464.584	7.758	FIXCROSS	n/a	n/a	n/a	n/a	n/a
464.607	n/a	RESPONSE	        M4	2	17	F4	press
464.728	n/a	RESPONSE	        M4	2	19	G4	release
464.879	n/a	RESPONSE	        M4	2	16	E4	press
465.08	n/a	RESPONSE	        M4	2	17	F4	release
465.812	n/a	RESPONSE	        M4	2	05	F3	release
465.933	n/a	RESPONSE	        M4	2	09	A3	release
466.085	n/a	RESPONSE	        M4	2	12	C4	release
466.095	n/a	RESPONSE	        M4	2	16	E4	release
472.342	6.317	CUE_LISTEN	        M3	1	n/a	n/a	n/a
478.659	7.758	FIXCROSS	n/a	n/a	n/a	n/a	n/a
486.417	6.317	CUE_PLAYBACK_RIGHT_HAND	        M3	1	n/a	n/a	n/a
486.924	n/a	RESPONSE	        M3	1	12	C4	press
487.276	n/a	RESPONSE	        M3	1	14	D4	press
487.396	n/a	RESPONSE	        M3	1	12	C4	release
487.668	n/a	RESPONSE	        M3	1	16	E4	press
487.749	n/a	RESPONSE	        M3	1	14	D4	release
488.06	n/a	RESPONSE	        M3	1	12	C4	press
488.134	n/a	RESPONSE	        M3	1	16	E4	release
488.344	n/a	RESPONSE	        M3	1	12	C4	release
488.464	n/a	RESPONSE	        M3	1	12	C4	press
488.808	n/a	RESPONSE	        M3	1	14	D4	press
488.896	n/a	RESPONSE	        M3	1	12	C4	release
489.179	n/a	RESPONSE	        M3	1	16	E4	press
489.23	n/a	RESPONSE	        M3	1	14	D4	release
489.59	n/a	RESPONSE	        M3	1	12	C4	press
489.702	n/a	RESPONSE	        M3	1	16	E4	release
489.933	n/a	RESPONSE	        M3	1	12	C4	release
490.046	n/a	RESPONSE	        M3	1	12	C4	press
490.265	n/a	RESPONSE	        M3	1	12	C4	release
490.376	n/a	RESPONSE	        M3	1	16	E4	press
490.706	n/a	RESPONSE	        M3	1	17	F4	press
490.752	n/a	RESPONSE	        M3	1	16	E4	release
491.066	n/a	RESPONSE	        M3	1	19	G4	press
491.133	n/a	RESPONSE	        M3	1	17	F4	release
491.692	n/a	RESPONSE	        M3	1	19	G4	release
491.788	n/a	RESPONSE	        M3	1	16	E4	press
492.395	n/a	RESPONSE	        M3	1	17	F4	press
492.419	n/a	RESPONSE	        M3	1	16	E4	release
492.702	n/a	RESPONSE	        M3	1	19	G4	press
492.734	7.758	FIXCROSS	n/a	n/a	n/a	n/a	n/a
492.736	n/a	RESPONSE	        M3	1	17	F4	release
493.384	n/a	RESPONSE	        M3	1	19	G4	release
500.492	6.325	CUE_LISTEN	        M3	2	n/a	n/a	n/a
506.817	7.758	FIXCROSS	n/a	n/a	n/a	n/a	n/a
514.576	6.317	CUE_PLAYBACK_RIGHT_HAND	        M3	2	n/a	n/a	n/a
514.988	n/a	RESPONSE	        M3	2	19	G4	press
515.239	n/a	RESPONSE	        M3	2	21	A4	press
515.3	n/a	RESPONSE	        M3	2	19	G4	release
515.484	n/a	RESPONSE	        M3	2	19	G4	press
515.553	n/a	RESPONSE	        M3	2	21	A4	release
515.734	n/a	RESPONSE	        M3	2	17	F4	press
515.745	n/a	RESPONSE	        M3	2	16	E4	press
515.797	n/a	RESPONSE	        M3	2	19	G4	release
515.87	n/a	RESPONSE	        M3	2	16	E4	release
516.109	n/a	RESPONSE	        M3	2	16	E4	press
516.131	n/a	RESPONSE	        M3	2	14	D4	press
516.192	n/a	RESPONSE	        M3	2	17	F4	release
516.383	n/a	RESPONSE	        M3	2	12	C4	press
516.445	n/a	RESPONSE	        M3	2	16	E4	release
516.598	n/a	RESPONSE	        M3	2	14	D4	release
516.856	n/a	RESPONSE	        M3	2	12	C4	release
517.048	n/a	RESPONSE	        M3	2	19	G4	press
517.059	n/a	RESPONSE	        M3	2	17	F4	press
517.15	n/a	RESPONSE	        M3	2	17	F4	release
517.342	n/a	RESPONSE	        M3	2	21	A4	press
517.373	n/a	RESPONSE	        M3	2	19	G4	release
517.626	n/a	RESPONSE	        M3	2	19	G4	press
517.675	n/a	RESPONSE	        M3	2	21	A4	release
517.866	n/a	RESPONSE	        M3	2	17	F4	press
517.93	n/a	RESPONSE	        M3	2	19	G4	release
518.219	n/a	RESPONSE	        M3	2	16	E4	press
518.222	n/a	RESPONSE	        M3	2	14	D4	press
518.302	n/a	RESPONSE	        M3	2	17	F4	release
518.784	n/a	RESPONSE	        M3	2	12	C4	press
518.866	n/a	RESPONSE	        M3	2	16	E4	release
519.315	n/a	RESPONSE	        M3	2	12	C4	release
519.606	n/a	RESPONSE	        M3	2	14	D4	release
520.424	n/a	RESPONSE	        M3	2	12	C4	press
520.8	n/a	RESPONSE	        M3	2	07	G3	press
520.881	n/a	RESPONSE	        M3	2	07	G3	release
520.892	7.758	FIXCROSS	n/a	n/a	n/a	n/a	n/a
521.082	n/a	RESPONSE	        M3	2	12	C4	release
528.651	6.317	CUE_LISTEN	        M5	1	n/a	n/a	n/a
534.329	n/a	RESPONSE	        M5	1	07	G3	press
534.47	n/a	RESPONSE	        M5	1	07	G3	release
534.967	7.758	FIXCROSS	n/a	n/a	n/a	n/a	n/a
542.726	6.325	CUE_PLAYBACK_BOTH_HANDS	        M5	1	n/a	n/a	n/a
543.118	n/a	RESPONSE	        M5	1	05	F3	press
543.126	n/a	RESPONSE	        M5	1	21	A4	press
543.332	n/a	RESPONSE	        M5	1	21	A4	release
543.392	n/a	RESPONSE	        M5	1	09	A3	press
543.445	n/a	RESPONSE	        M5	1	05	F3	release
543.449	n/a	RESPONSE	        M5	1	21	A4	press
543.626	n/a	RESPONSE	        M5	1	21	A4	release
543.752	n/a	RESPONSE	        M5	1	04	E3	press
543.766	n/a	RESPONSE	        M5	1	21	A4	press
543.827	n/a	RESPONSE	        M5	1	09	A3	release
544.109	n/a	RESPONSE	        M5	1	09	A3	press
544.21	n/a	RESPONSE	        M5	1	04	E3	release
544.352	n/a	RESPONSE	        M5	1	21	A4	release
544.413	n/a	RESPONSE	        M5	1	02	D3	press
544.454	n/a	RESPONSE	        M5	1	21	A4	press
544.485	n/a	RESPONSE	        M5	1	09	A3	release
544.626	n/a	RESPONSE	        M5	1	21	A4	release
544.768	n/a	RESPONSE	        M5	1	21	A4	press
544.792	n/a	RESPONSE	        M5	1	09	A3	press
544.833	n/a	RESPONSE	        M5	1	02	D3	release
544.932	n/a	RESPONSE	        M5	1	21	A4	release
545.083	n/a	RESPONSE	        M5	1	21	A4	press
545.104	n/a	RESPONSE	        M5	1	00	C3	press
545.175	n/a	RESPONSE	        M5	1	09	A3	release
545.439	n/a	RESPONSE	        M5	1	09	A3	press
545.568	n/a	RESPONSE	        M5	1	00	C3	release
545.599	n/a	RESPONSE	        M5	1	21	A4	release
545.78	n/a	RESPONSE	        M5	1	21	A4	press
545.783	n/a	RESPONSE	        M5	1	05	F3	press
545.833	n/a	RESPONSE	        M5	1	09	A3	release
546.084	n/a	RESPONSE	        M5	1	09	A3	press
546.095	n/a	RESPONSE	        M5	1	24	C5	press
546.146	n/a	RESPONSE	        M5	1	05	F3	release
546.17	n/a	RESPONSE	        M5	1	21	A4	release
546.439	n/a	RESPONSE	        M5	1	04	E3	press
546.442	n/a	RESPONSE	        M5	1	17	F4	press
546.514	n/a	RESPONSE	        M5	1	09	A3	release
546.583	n/a	RESPONSE	        M5	1	24	C5	release
546.764	n/a	RESPONSE	        M5	1	09	A3	press
546.766	n/a	RESPONSE	        M5	1	19	G4	press
546.826	n/a	RESPONSE	        M5	1	04	E3	release
546.868	n/a	RESPONSE	        M5	1	17	F4	release
547.052	n/a	RESPONSE	        M5	1	21	A4	press
547.07	n/a	RESPONSE	        M5	1	02	D3	press
547.142	n/a	RESPONSE	        M5	1	09	A3	release
547.144	n/a	RESPONSE	        M5	1	19	G4	release
547.426	n/a	RESPONSE	        M5	1	09	A3	press
547.478	n/a	RESPONSE	        M5	1	02	D3	release
547.756	n/a	RESPONSE	        M5	1	00	C3	press
547.83	n/a	RESPONSE	        M5	1	09	A3	release
548.099	n/a	RESPONSE	        M5	1	09	A3	press
548.19	n/a	RESPONSE	        M5	1	00	C3	release
548.552	n/a	RESPONSE	        M5	1	09	A3	release
548.733	n/a	RESPONSE	        M5	1	21	A4	release
549.051	7.758	FIXCROSS	n/a	n/a	n/a	n/a	n/a
556.809	6.317	CUE_LISTEN	        M5	2	n/a	n/a	n/a
563.126	7.758	FIXCROSS	n/a	n/a	n/a	n/a	n/a
570.884	6.317	CUE_PLAYBACK_BOTH_HANDS	        M5	2	n/a	n/a	n/a
571.33	n/a	RESPONSE	        M5	2	05	F3	press
571.339	n/a	RESPONSE	        M5	2	22	A#4	press
571.682	n/a	RESPONSE	        M5	2	22	A#4	release
571.733	n/a	RESPONSE	        M5	2	08	G#3	press
571.75	n/a	RESPONSE	        M5	2	22	A#4	press
571.858	n/a	RESPONSE	        M5	2	05	F3	release
572.028	n/a	RESPONSE	        M5	2	22	A#4	release
572.12	n/a	RESPONSE	        M5	2	02	D3	press
572.123	n/a	RESPONSE	        M5	2	22	A#4	press
572.143	n/a	RESPONSE	        M5	2	08	G#3	release
572.376	n/a	RESPONSE	        M5	2	22	A#4	release
572.459	n/a	RESPONSE	        M5	2	02	D3	release
572.463	n/a	RESPONSE	        M5	2	08	G#3	press
572.513	n/a	RESPONSE	        M5	2	22	A#4	press
572.804	n/a	RESPONSE	        M5	2	22	A#4	release
572.844	n/a	RESPONSE	        M5	2	08	G#3	release
573.032	n/a	RESPONSE	        M5	2	04	E3	press
573.166	n/a	RESPONSE	        M5	2	04	E3	release
573.252	n/a	RESPONSE	        M5	2	04	E3	press
573.254	n/a	RESPONSE	        M5	2	22	A#4	press
573.758	n/a	RESPONSE	        M5	2	21	A4	press
573.766	n/a	RESPONSE	        M5	2	07	G3	press
573.842	n/a	RESPONSE	        M5	2	22	A#4	release
573.844	n/a	RESPONSE	        M5	2	04	E3	release
574.036	n/a	RESPONSE	        M5	2	21	A4	release
574.228	n/a	RESPONSE	        M5	2	21	A4	press
574.25	n/a	RESPONSE	        M5	2	00	C3	press
574.33	n/a	RESPONSE	        M5	2	07	G3	release
574.472	n/a	RESPONSE	        M5	2	21	A4	release
574.703	n/a	RESPONSE	        M5	2	07	G3	press
574.716	n/a	RESPONSE	        M5	2	21	A4	press
574.735	n/a	RESPONSE	        M5	2	00	C3	release
574.966	n/a	RESPONSE	        M5	2	21	A4	release
575.029	n/a	RESPONSE	        M5	2	07	G3	release
575.07	n/a	RESPONSE	        M5	2	24	C5	press
575.09	n/a	RESPONSE	        M5	2	00	C3	press
575.312	n/a	RESPONSE	        M5	2	24	C5	release
575.525	n/a	RESPONSE	        M5	2	24	C5	press
575.584	n/a	RESPONSE	        M5	2	07	G3	press
575.745	n/a	RESPONSE	        M5	2	00	C3	release
575.826	n/a	RESPONSE	        M5	2	24	C5	release
576.069	n/a	RESPONSE	        M5	2	04	E3	press
576.159	n/a	RESPONSE	        M5	2	22	A#4	press
576.26	n/a	RESPONSE	        M5	2	07	G3	release
576.584	n/a	RESPONSE	        M5	2	19	G4	press
576.593	n/a	RESPONSE	        M5	2	07	G3	press
576.678	n/a	RESPONSE	        M5	2	22	A#4	release
576.786	n/a	RESPONSE	        M5	2	04	E3	release
576.979	n/a	RESPONSE	        M5	2	17	F4	press
577.02	n/a	RESPONSE	        M5	2	05	F3	press
577.06	n/a	RESPONSE	        M5	2	19	G4	release
577.083	n/a	RESPONSE	        M5	2	07	G3	release
577.201	7.758	FIXCROSS	n/a	n/a	n/a	n/a	n/a
578.513	n/a	RESPONSE	        M5	2	05	F3	release
578.984	n/a	RESPONSE	        M5	2	17	F4	release
584.959	6.325	CUE_LISTEN	        M1	1	n/a	n/a	n/a
591.284	7.758	FIXCROSS	n/a	n/a	n/a	n/a	n/a
599.042	6.317	CUE_PLAYBACK_BOTH_HANDS	        M1	1	n/a	n/a	n/a
599.49	n/a	RESPONSE	        M1	1	19	G4	press
599.494	n/a	RESPONSE	        M1	1	07	G3	press
599.503	n/a	RESPONSE	        M1	1	00	C3	press
599.505	n/a	RESPONSE	        M1	1	04	E3	press
599.916	n/a	RESPONSE	        M1	1	16	E4	press
599.999	n/a	RESPONSE	        M1	1	19	G4	release
600.16	n/a	RESPONSE	        M1	1	16	E4	release
600.32	n/a	RESPONSE	        M1	1	16	E4	press
600.514	n/a	RESPONSE	        M1	1	00	C3	release
600.53	n/a	RESPONSE	        M1	1	04	E3	release
600.552	n/a	RESPONSE	        M1	1	16	E4	release
600.623	n/a	RESPONSE	        M1	1	07	G3	release
600.732	n/a	RESPONSE	        M1	1	02	D3	press
600.749	n/a	RESPONSE	        M1	1	17	F4	press
600.763	n/a	RESPONSE	        M1	1	07	G3	press
600.794	n/a	RESPONSE	        M1	1	05	F3	press
601.169	n/a	RESPONSE	        M1	1	14	D4	press
601.232	n/a	RESPONSE	        M1	1	17	F4	release
601.416	n/a	RESPONSE	        M1	1	14	D4	release
601.582	n/a	RESPONSE	        M1	1	14	D4	press
601.788	n/a	RESPONSE	        M1	1	02	D3	release
601.82	n/a	RESPONSE	        M1	1	14	D4	release
601.86	n/a	RESPONSE	        M1	1	05	F3	release
601.876	n/a	RESPONSE	        M1	1	07	G3	release
602.084	n/a	RESPONSE	        M1	1	12	C4	press
602.092	n/a	RESPONSE	        M1	1	07	G3	press
602.109	n/a	RESPONSE	        M1	1	04	E3	press
602.12	n/a	RESPONSE	        M1	1	00	C3	press
602.223	n/a	RESPONSE	        M1	1	16	E4	press
602.349	n/a	RESPONSE	        M1	1	12	C4	release
602.472	n/a	RESPONSE	        M1	1	19	G4	press
602.539	n/a	RESPONSE	        M1	1	16	E4	release
603.075	n/a	RESPONSE	        M1	1	19	G4	release
603.173	n/a	RESPONSE	        M1	1	00	C3	release
603.429	n/a	RESPONSE	        M1	1	07	G3	release
603.805	n/a	RESPONSE	        M1	1	04	E3	release
605.359	7.758	FIXCROSS	n/a	n/a	n/a	n/a	n/a
613.117	6.325	CUE_LISTEN	        M1	2	n/a	n/a	n/a
619.442	7.758	FIXCROSS	n/a	n/a	n/a	n/a	n/a
627.201	6.317	CUE_PLAYBACK_BOTH_HANDS	        M1	2	n/a	n/a	n/a
627.524	n/a	RESPONSE	        M1	2	19	G4	press
627.558	n/a	RESPONSE	        M1	2	00	C3	press
627.576	n/a	RESPONSE	        M1	2	07	G3	press
627.598	n/a	RESPONSE	        M1	2	04	E3	press
628.04	n/a	RESPONSE	        M1	2	16	E4	press
628.103	n/a	RESPONSE	        M1	2	19	G4	release
628.213	n/a	RESPONSE	        M1	2	16	E4	release
628.425	n/a	RESPONSE	        M1	2	16	E4	press
628.614	n/a	RESPONSE	        M1	2	00	C3	release
628.616	n/a	RESPONSE	        M1	2	04	E3	release
628.619	n/a	RESPONSE	        M1	2	16	E4	release
628.698	n/a	RESPONSE	        M1	2	07	G3	release
628.83	n/a	RESPONSE	        M1	2	02	D3	press
628.84	n/a	RESPONSE	        M1	2	07	G3	press
628.871	n/a	RESPONSE	        M1	2	17	F4	press
628.923	n/a	RESPONSE	        M1	2	05	F3	press
629.316	n/a	RESPONSE	        M1	2	14	D4	press
629.368	n/a	RESPONSE	        M1	2	17	F4	release
629.526	n/a	RESPONSE	        M1	2	14	D4	release
629.7	n/a	RESPONSE	        M1	2	14	D4	press
629.93	n/a	RESPONSE	        M1	2	02	D3	release
629.983	n/a	RESPONSE	        M1	2	14	D4	release
629.991	n/a	RESPONSE	        M1	2	05	F3	release
630.024	n/a	RESPONSE	        M1	2	07	G3	release
630.225	n/a	RESPONSE	        M1	2	12	C4	press
630.228	n/a	RESPONSE	        M1	2	07	G3	press
630.238	n/a	RESPONSE	        M1	2	04	E3	press
630.24	n/a	RESPONSE	        M1	2	00	C3	press
630.444	n/a	RESPONSE	        M1	2	16	E4	press
630.531	n/a	RESPONSE	        M1	2	12	C4	release
630.67	n/a	RESPONSE	        M1	2	12	C4	press
630.734	n/a	RESPONSE	        M1	2	16	E4	release
631.245	n/a	RESPONSE	        M1	2	00	C3	release
631.423	n/a	RESPONSE	        M1	2	12	C4	release
631.475	n/a	RESPONSE	        M1	2	07	G3	release
631.555	n/a	RESPONSE	        M1	2	04	E3	release
633.517	7.758	FIXCROSS	n/a	n/a	n/a	n/a	n/a
641.276	6.317	CUE_LISTEN	        M7	1	n/a	n/a	n/a
647.592	7.767	FIXCROSS	n/a	n/a	n/a	n/a	n/a
655.359	6.308	CUE_PLAYBACK_RIGHT_HAND	        M7	1	n/a	n/a	n/a
655.778	n/a	RESPONSE	        M7	1	22	A#4	press
656.299	n/a	RESPONSE	        M7	1	21	A4	press
656.371	n/a	RESPONSE	        M7	1	22	A#4	release
656.894	n/a	RESPONSE	        M7	1	19	G4	press
656.983	n/a	RESPONSE	        M7	1	21	A4	release
657.476	n/a	RESPONSE	        M7	1	21	A4	press
657.528	n/a	RESPONSE	        M7	1	19	G4	release
658.549	n/a	RESPONSE	        M7	1	12	C4	press
658.578	n/a	RESPONSE	        M7	1	21	A4	release
658.999	n/a	RESPONSE	        M7	1	12	C4	release
659.43	n/a	RESPONSE	        M7	1	11	B3	press
659.581	n/a	RESPONSE	        M7	1	11	B3	release
659.953	n/a	RESPONSE	        M7	1	14	D4	press
660.509	n/a	RESPONSE	        M7	1	14	D4	release
660.569	n/a	RESPONSE	        M7	1	14	D4	press
661.01	n/a	RESPONSE	        M7	1	19	G4	press
661.071	n/a	RESPONSE	        M7	1	14	D4	release
661.668	7.758	FIXCROSS	n/a	n/a	n/a	n/a	n/a
661.738	n/a	RESPONSE	        M7	1	07	G3	press
661.929	n/a	RESPONSE	        M7	1	19	G4	release
662.095	n/a	RESPONSE	        M7	1	11	B3	press
662.1	n/a	RESPONSE	        M7	1	07	G3	release
662.68	n/a	RESPONSE	        M7	1	11	B3	release
669.426	6.325	CUE_LISTEN	        M7	2	n/a	n/a	n/a
675.751	7.758	FIXCROSS	n/a	n/a	n/a	n/a	n/a
683.509	6.317	CUE_PLAYBACK_RIGHT_HAND	        M7	2	n/a	n/a	n/a
683.868	n/a	RESPONSE	        M7	2	14	D4	press
684.401	n/a	RESPONSE	        M7	2	14	D4	release
685.203	n/a	RESPONSE	        M7	2	16	E4	press
685.334	n/a	RESPONSE	        M7	2	16	E4	release
685.585	n/a	RESPONSE	        M7	2	14	D4	press
686.046	n/a	RESPONSE	        M7	2	17	F4	press
686.078	n/a	RESPONSE	        M7	2	14	D4	release
686.359	n/a	RESPONSE	        M7	2	16	E4	press
686.41	n/a	RESPONSE	        M7	2	17	F4	release
686.621	n/a	RESPONSE	        M7	2	14	D4	press
686.673	n/a	RESPONSE	        M7	2	16	E4	release
686.935	n/a	RESPONSE	        M7	2	14	D4	release
686.955	n/a	RESPONSE	        M7	2	12	C4	press
687.246	n/a	RESPONSE	        M7	2	11	B3	press
687.258	n/a	RESPONSE	        M7	2	09	A3	press
687.269	n/a	RESPONSE	        M7	2	12	C4	release
687.341	n/a	RESPONSE	        M7	2	09	A3	release
687.941	n/a	RESPONSE	        M7	2	12	C4	press
687.973	n/a	RESPONSE	        M7	2	11	B3	release
688.244	n/a	RESPONSE	        M7	2	12	C4	release
688.246	n/a	RESPONSE	        M7	2	14	D4	press
688.556	n/a	RESPONSE	        M7	2	14	D4	release
688.66	n/a	RESPONSE	        M7	2	11	B3	press
689.449	n/a	RESPONSE	        M7	2	10	A#3	press
689.611	n/a	RESPONSE	        M7	2	11	B3	release
689.674	n/a	RESPONSE	        M7	2	10	A#3	release
689.826	7.758	FIXCROSS	n/a	n/a	n/a	n/a	n/a
697.584	6.325	CUE_LISTEN	        M4	1	n/a	n/a	n/a
703.05	n/a	RESPONSE	        M4	1	24	C5	press
703.566	n/a	RESPONSE	        M4	1	24	C5	release
703.909	7.758	FIXCROSS	n/a	n/a	n/a	n/a	n/a
711.668	6.317	CUE_PLAYBACK_RIGHT_HAND	        M4	1	n/a	n/a	n/a
712.625	n/a	RESPONSE	        M4	1	24	C5	press
713.15	n/a	RESPONSE	        M4	1	24	C5	release
714.514	n/a	RESPONSE	        M4	1	11	B3	press
714.764	n/a	RESPONSE	        M4	1	14	D4	press
714.885	n/a	RESPONSE	        M4	1	11	B3	release
715.106	n/a	RESPONSE	        M4	1	14	D4	release
715.138	n/a	RESPONSE	        M4	1	17	F4	press
715.33	n/a	RESPONSE	        M4	1	17	F4	release
715.55	n/a	RESPONSE	        M4	1	17	F4	press
716.831	n/a	RESPONSE	        M4	1	17	F4	release
716.843	n/a	RESPONSE	        M4	1	15	D#4	press
717.094	n/a	RESPONSE	        M4	1	15	D#4	release
717.355	n/a	RESPONSE	        M4	1	14	D4	press
717.686	n/a	RESPONSE	        M4	1	16	E4	press
717.759	n/a	RESPONSE	        M4	1	14	D4	release
717.89	n/a	RESPONSE	        M4	1	17	F4	press
717.94	n/a	RESPONSE	        M4	1	16	E4	release
717.984	7.758	FIXCROSS	n/a	n/a	n/a	n/a	n/a
718.381	n/a	RESPONSE	        M4	1	17	F4	release
725.743	6.317	CUE_LISTEN	        M4	2	n/a	n/a	n/a
732.059	7.758	FIXCROSS	n/a	n/a	n/a	n/a	n/a
739.818	6.325	CUE_PLAYBACK_RIGHT_HAND	        M4	2	n/a	n/a	n/a
740.231	n/a	RESPONSE	        M4	2	12	C4	press
740.59	n/a	RESPONSE	        M4	2	16	E4	press
740.765	n/a	RESPONSE	        M4	2	12	C4	release
741.015	n/a	RESPONSE	        M4	2	19	G4	press
741.138	n/a	RESPONSE	        M4	2	16	E4	release
741.376	n/a	RESPONSE	        M4	2	21	A4	press
741.46	n/a	RESPONSE	        M4	2	19	G4	release
741.965	n/a	RESPONSE	        M4	2	18	F#4	press
742.069	n/a	RESPONSE	        M4	2	21	A4	release
742.574	n/a	RESPONSE	        M4	2	17	F4	press
742.578	n/a	RESPONSE	        M4	2	16	E4	press
742.639	n/a	RESPONSE	        M4	2	18	F#4	release
742.679	n/a	RESPONSE	        M4	2	16	E4	release
742.783	n/a	RESPONSE	        M4	2	18	F#4	press
743.074	n/a	RESPONSE	        M4	2	17	F4	release
743.19	n/a	RESPONSE	        M4	2	16	E4	press
743.541	n/a	RESPONSE	        M4	2	14	D4	press
743.561	n/a	RESPONSE	        M4	2	18	F#4	release
743.631	n/a	RESPONSE	        M4	2	16	E4	release
744.076	n/a	RESPONSE	        M4	2	14	D4	release
744.318	n/a	RESPONSE	        M4	2	11	B3	press
744.759	n/a	RESPONSE	        M4	2	12	C4	press
744.92	n/a	RESPONSE	        M4	2	11	B3	release
745.033	n/a	RESPONSE	        M4	2	11	B3	press
745.223	n/a	RESPONSE	        M4	2	12	C4	release
745.355	n/a	RESPONSE	        M4	2	14	D4	press
745.496	n/a	RESPONSE	        M4	2	11	B3	release
746.143	7.758	FIXCROSS	n/a	n/a	n/a	n/a	n/a
746.266	n/a	RESPONSE	        M4	2	18	F#4	press
746.348	n/a	RESPONSE	        M4	2	14	D4	release
746.641	n/a	RESPONSE	        M4	2	17	F4	press
746.7	n/a	RESPONSE	        M4	2	16	E4	press
746.721	n/a	RESPONSE	        M4	2	18	F#4	release
747.023	n/a	RESPONSE	        M4	2	17	F4	release
747.385	n/a	RESPONSE	        M4	2	14	D4	press
747.495	n/a	RESPONSE	        M4	2	16	E4	release
747.726	n/a	RESPONSE	        M4	2	12	C4	press
747.89	n/a	RESPONSE	        M4	2	14	D4	release
748.07	n/a	RESPONSE	        M4	2	12	C4	release
753.901	6.317	CUE_LISTEN	        M2	1	n/a	n/a	n/a
760.074	n/a	RESPONSE	        M2	1	24	C5	press
760.218	7.758	FIXCROSS	n/a	n/a	n/a	n/a	n/a
760.665	n/a	RESPONSE	        M2	1	24	C5	release
762.325	n/a	RESPONSE	        M2	1	24	C5	press
764.655	n/a	RESPONSE	        M2	1	24	C5	release
767.976	6.325	CUE_PLAYBACK_BOTH_HANDS	        M2	1	n/a	n/a	n/a
768.515	n/a	RESPONSE	        M2	1	00	C3	press
768.518	n/a	RESPONSE	        M2	1	07	G3	press
768.52	n/a	RESPONSE	        M2	1	24	C5	press
768.869	n/a	RESPONSE	        M2	1	19	G4	press
769.06	n/a	RESPONSE	        M2	1	24	C5	release
769.063	n/a	RESPONSE	        M2	1	19	G4	release
769.083	n/a	RESPONSE	        M2	1	07	G3	release
769.104	n/a	RESPONSE	        M2	1	00	C3	release
769.226	n/a	RESPONSE	        M2	1	00	C3	press
769.229	n/a	RESPONSE	        M2	1	19	G4	press
769.241	n/a	RESPONSE	        M2	1	07	G3	press
769.58	n/a	RESPONSE	        M2	1	17	F4	press
769.721	n/a	RESPONSE	        M2	1	19	G4	release
769.774	n/a	RESPONSE	        M2	1	07	G3	release
769.784	n/a	RESPONSE	        M2	1	00	C3	release
769.865	n/a	RESPONSE	        M2	1	17	F4	release
769.946	n/a	RESPONSE	        M2	1	16	E4	press
769.959	n/a	RESPONSE	        M2	1	07	G3	press
769.979	n/a	RESPONSE	        M2	1	00	C3	press
770.27	n/a	RESPONSE	        M2	1	17	F4	press
770.395	n/a	RESPONSE	        M2	1	16	E4	release
770.431	n/a	RESPONSE	        M2	1	00	C3	release
770.456	n/a	RESPONSE	        M2	1	07	G3	release
770.51	n/a	RESPONSE	        M2	1	17	F4	release
770.63	n/a	RESPONSE	        M2	1	19	G4	press
770.633	n/a	RESPONSE	        M2	1	07	G3	press
770.635	n/a	RESPONSE	        M2	1	00	C3	press
771.053	n/a	RESPONSE	        M2	1	19	G4	release
771.079	n/a	RESPONSE	        M2	1	07	G3	release
771.099	n/a	RESPONSE	        M2	1	00	C3	release
771.249	n/a	RESPONSE	        M2	1	24	C5	press
771.31	n/a	RESPONSE	        M2	1	00	C3	press
771.32	n/a	RESPONSE	        M2	1	07	G3	press
771.688	n/a	RESPONSE	        M2	1	19	G4	press
771.798	n/a	RESPONSE	        M2	1	24	C5	release
771.868	n/a	RESPONSE	        M2	1	00	C3	release
771.871	n/a	RESPONSE	        M2	1	19	G4	release
771.889	n/a	RESPONSE	        M2	1	07	G3	release
772.034	n/a	RESPONSE	        M2	1	19	G4	press
772.036	n/a	RESPONSE	        M2	1	07	G3	press
772.039	n/a	RESPONSE	        M2	1	00	C3	press
772.388	n/a	RESPONSE	        M2	1	17	F4	press
772.404	n/a	RESPONSE	        M2	1	16	E4	press
772.499	n/a	RESPONSE	        M2	1	19	G4	release
772.564	n/a	RESPONSE	        M2	1	16	E4	release
772.566	n/a	RESPONSE	        M2	1	00	C3	release
772.581	n/a	RESPONSE	        M2	1	07	G3	release
772.698	n/a	RESPONSE	        M2	1	17	F4	release
772.766	n/a	RESPONSE	        M2	1	07	G3	press
772.796	n/a	RESPONSE	        M2	1	14	D4	press
772.806	n/a	RESPONSE	        M2	1	00	C3	press
772.819	n/a	RESPONSE	        M2	1	16	E4	press
773.248	n/a	RESPONSE	        M2	1	16	E4	release
773.575	n/a	RESPONSE	        M2	1	12	C4	press
773.746	n/a	RESPONSE	        M2	1	14	D4	release
773.779	n/a	RESPONSE	        M2	1	00	C3	release
773.938	n/a	RESPONSE	        M2	1	07	G3	release
774.124	n/a	RESPONSE	        M2	1	12	C4	release
774.301	7.758	FIXCROSS	n/a	n/a	n/a	n/a	n/a
782.06	6.317	CUE_LISTEN	        M2	2	n/a	n/a	n/a
788.376	7.758	FIXCROSS	n/a	n/a	n/a	n/a	n/a
796.134	6.317	CUE_PLAYBACK_BOTH_HANDS	        M2	2	n/a	n/a	n/a
796.546	n/a	RESPONSE	        M2	2	00	C3	press
796.559	n/a	RESPONSE	        M2	2	07	G3	press
796.579	n/a	RESPONSE	        M2	2	12	C4	press
796.95	n/a	RESPONSE	        M2	2	14	D4	press
797.101	n/a	RESPONSE	        M2	2	12	C4	release
797.195	n/a	RESPONSE	        M2	2	00	C3	release
797.205	n/a	RESPONSE	        M2	2	07	G3	release
797.278	n/a	RESPONSE	        M2	2	14	D4	release
797.318	n/a	RESPONSE	        M2	2	16	E4	press
797.328	n/a	RESPONSE	        M2	2	00	C3	press
797.331	n/a	RESPONSE	        M2	2	07	G3	press
797.71	n/a	RESPONSE	        M2	2	14	D4	press
797.741	n/a	RESPONSE	        M2	2	12	C4	press
797.745	n/a	RESPONSE	        M2	2	16	E4	release
797.906	n/a	RESPONSE	        M2	2	12	C4	release
798.055	n/a	RESPONSE	        M2	2	14	D4	release
798.066	n/a	RESPONSE	        M2	2	07	G3	release
798.069	n/a	RESPONSE	        M2	2	00	C3	release
798.281	n/a	RESPONSE	        M2	2	00	C3	press
798.29	n/a	RESPONSE	        M2	2	07	G3	press
798.301	n/a	RESPONSE	        M2	2	16	E4	press
798.603	n/a	RESPONSE	        M2	2	17	F4	press
798.764	n/a	RESPONSE	        M2	2	16	E4	release
798.925	n/a	RESPONSE	        M2	2	07	G3	release
798.936	n/a	RESPONSE	        M2	2	00	C3	release
798.988	n/a	RESPONSE	        M2	2	17	F4	release
799.019	n/a	RESPONSE	        M2	2	19	G4	press
799.04	n/a	RESPONSE	        M2	2	00	C3	press
799.042	n/a	RESPONSE	        M2	2	07	G3	press
799.553	n/a	RESPONSE	        M2	2	19	G4	release
799.564	n/a	RESPONSE	        M2	2	07	G3	release
799.575	n/a	RESPONSE	        M2	2	00	C3	release
799.726	n/a	RESPONSE	        M2	2	16	E4	press
799.729	n/a	RESPONSE	        M2	2	00	C3	press
799.731	n/a	RESPONSE	        M2	2	07	G3	press
800.07	n/a	RESPONSE	        M2	2	19	G4	press
800.104	n/a	RESPONSE	        M2	2	16	E4	release
800.205	n/a	RESPONSE	        M2	2	07	G3	release
800.244	n/a	RESPONSE	        M2	2	00	C3	release
800.286	n/a	RESPONSE	        M2	2	19	G4	release
800.41	n/a	RESPONSE	        M2	2	00	C3	press
800.413	n/a	RESPONSE	        M2	2	07	G3	press
800.434	n/a	RESPONSE	        M2	2	19	G4	press
800.808	n/a	RESPONSE	        M2	2	17	F4	press
800.876	n/a	RESPONSE	        M2	2	19	G4	release
801.044	n/a	RESPONSE	        M2	2	00	C3	release
801.046	n/a	RESPONSE	        M2	2	07	G3	release
801.078	n/a	RESPONSE	        M2	2	17	F4	release
801.159	n/a	RESPONSE	        M2	2	00	C3	press
801.169	n/a	RESPONSE	        M2	2	07	G3	press
801.186	n/a	RESPONSE	        M2	2	16	E4	press
801.51	n/a	RESPONSE	        M2	2	14	D4	press
801.615	n/a	RESPONSE	        M2	2	16	E4	release
801.735	n/a	RESPONSE	        M2	2	00	C3	release
801.745	n/a	RESPONSE	        M2	2	07	G3	release
801.801	n/a	RESPONSE	        M2	2	14	D4	release
801.859	n/a	RESPONSE	        M2	2	12	C4	press
801.871	n/a	RESPONSE	        M2	2	07	G3	press
801.881	n/a	RESPONSE	        M2	2	00	C3	press
802.451	7.759	FIXCROSS	n/a	n/a	n/a	n/a	n/a
802.631	n/a	RESPONSE	        M2	2	12	C4	release
803.013	n/a	RESPONSE	        M2	2	07	G3	release
803.049	n/a	RESPONSE	        M2	2	00	C3	release
810.21	6.317	CUE_LISTEN	        M8	1	n/a	n/a	n/a
816.526	7.758	FIXCROSS	n/a	n/a	n/a	n/a	n/a
824.261	n/a	RESPONSE	        M8	1	16	E4	press
824.285	6.325	CUE_PLAYBACK_BOTH_HANDS	        M8	1	n/a	n/a	n/a
824.571	n/a	RESPONSE	        M8	1	16	E4	release
825.093	n/a	RESPONSE	        M8	1	14	D4	press
825.434	n/a	RESPONSE	        M8	1	17	F4	press
825.456	n/a	RESPONSE	        M8	1	19	G4	press
825.526	n/a	RESPONSE	        M8	1	14	D4	release
825.549	n/a	RESPONSE	        M8	1	19	G4	release
825.709	n/a	RESPONSE	        M8	1	17	F4	release
826.14	n/a	RESPONSE	        M8	1	14	D4	press
826.381	n/a	RESPONSE	        M8	1	19	G4	press
826.384	n/a	RESPONSE	        M8	1	17	F4	press
826.504	n/a	RESPONSE	        M8	1	14	D4	release
826.555	n/a	RESPONSE	        M8	1	19	G4	release
826.596	n/a	RESPONSE	        M8	1	21	A4	press
826.638	n/a	RESPONSE	        M8	1	17	F4	release
826.841	n/a	RESPONSE	        M8	1	21	A4	release
827.021	n/a	RESPONSE	        M8	1	21	A4	press
827.921	n/a	RESPONSE	        M8	1	09	A3	press
827.983	n/a	RESPONSE	        M8	1	18	F#4	press
828.074	n/a	RESPONSE	        M8	1	21	A4	release
828.585	n/a	RESPONSE	        M8	1	12	C4	press
828.636	n/a	RESPONSE	        M8	1	09	A3	release
829.03	n/a	RESPONSE	        M8	1	16	E4	press
829.079	n/a	RESPONSE	        M8	1	23	B4	press
829.081	n/a	RESPONSE	        M8	1	21	A4	press
829.101	n/a	RESPONSE	        M8	1	12	C4	release
829.172	n/a	RESPONSE	        M8	1	18	F#4	release
829.334	n/a	RESPONSE	        M8	1	23	B4	release
829.465	n/a	RESPONSE	        M8	1	16	E4	release
829.646	n/a	RESPONSE	        M8	1	16	E4	press
830.138	n/a	RESPONSE	        M8	1	15	D#4	press
830.149	n/a	RESPONSE	        M8	1	23	B4	press
830.21	n/a	RESPONSE	        M8	1	16	E4	release
830.212	n/a	RESPONSE	        M8	1	21	A4	release
830.274	n/a	RESPONSE	        M8	1	11	B3	press
830.405	n/a	RESPONSE	        M8	1	15	D#4	release
830.61	7.758	FIXCROSS	n/a	n/a	n/a	n/a	n/a
830.846	n/a	RESPONSE	        M8	1	21	A4	press
830.93	n/a	RESPONSE	        M8	1	23	B4	release
831.056	n/a	RESPONSE	        M8	1	19	G4	press
831.098	n/a	RESPONSE	        M8	1	21	A4	release
831.3	n/a	RESPONSE	        M8	1	18	F#4	press
831.375	n/a	RESPONSE	        M8	1	19	G4	release
831.478	n/a	RESPONSE	        M8	1	16	E4	press
831.481	n/a	RESPONSE	        M8	1	18	F#4	release
831.523	n/a	RESPONSE	        M8	1	11	B3	release
832.07	n/a	RESPONSE	        M8	1	11	B3	press
832.238	n/a	RESPONSE	        M8	1	11	B3	release
832.271	n/a	RESPONSE	        M8	1	16	E4	release
838.368	6.317	CUE_LISTEN	        M8	2	n/a	n/a	n/a
844.685	7.758	FIXCROSS	n/a	n/a	n/a	n/a	n/a
852.443	6.317	CUE_PLAYBACK_BOTH_HANDS	        M8	2	n/a	n/a	n/a
852.871	n/a	RESPONSE	        M8	2	14	D4	press
853.405	n/a	RESPONSE	        M8	2	17	F4	press
853.408	n/a	RESPONSE	        M8	2	14	D4	release
853.678	n/a	RESPONSE	        M8	2	21	A4	press
853.719	n/a	RESPONSE	        M8	2	17	F4	release
853.928	n/a	RESPONSE	        M8	2	21	A4	release
854.104	n/a	RESPONSE	        M8	2	21	A4	press
854.854	n/a	RESPONSE	        M8	2	21	A4	release
854.895	n/a	RESPONSE	        M8	2	09	A3	press
854.916	n/a	RESPONSE	        M8	2	18	F#4	press
855.369	n/a	RESPONSE	        M8	2	12	C4	press
855.439	n/a	RESPONSE	        M8	2	09	A3	release
855.731	n/a	RESPONSE	        M8	2	16	E4	press
855.761	n/a	RESPONSE	        M8	2	21	A4	press
855.785	n/a	RESPONSE	        M8	2	12	C4	release
855.844	n/a	RESPONSE	        M8	2	18	F#4	release
855.975	n/a	RESPONSE	        M8	2	16	E4	release
856.216	n/a	RESPONSE	        M8	2	16	E4	press
856.828	n/a	RESPONSE	        M8	2	13	C#4	press
856.869	n/a	RESPONSE	        M8	2	23	B4	press
856.93	n/a	RESPONSE	        M8	2	16	E4	release
856.961	n/a	RESPONSE	        M8	2	21	A4	release
857.605	n/a	RESPONSE	        M8	2	21	A4	press
857.744	n/a	RESPONSE	        M8	2	23	B4	release
858.295	n/a	RESPONSE	        M8	2	19	G4	press
858.388	n/a	RESPONSE	        M8	2	21	A4	release
858.558	n/a	RESPONSE	        M8	2	18	F#4	press
858.679	n/a	RESPONSE	        M8	2	19	G4	release
858.76	7.758	FIXCROSS	n/a	n/a	n/a	n/a	n/a
858.95	n/a	RESPONSE	        M8	2	13	C#4	release
859.031	n/a	RESPONSE	        M8	2	11	B3	press
859.043	n/a	RESPONSE	        M8	2	16	E4	press
859.114	n/a	RESPONSE	        M8	2	18	F#4	release
859.275	n/a	RESPONSE	        M8	2	19	G4	press
859.366	n/a	RESPONSE	        M8	2	16	E4	release
859.76	n/a	RESPONSE	        M8	2	16	E4	press
859.83	n/a	RESPONSE	        M8	2	09	A3	press
859.86	n/a	RESPONSE	        M8	2	11	B3	release
859.863	n/a	RESPONSE	        M8	2	19	G4	release
860.345	n/a	RESPONSE	        M8	2	09	A3	release
860.628	n/a	RESPONSE	        M8	2	16	E4	release
866.518	6.325	CUE_LISTEN	        M6	1	n/a	n/a	n/a
872.843	7.758	FIXCROSS	n/a	n/a	n/a	n/a	n/a
880.601	6.317	CUE_PLAYBACK_RIGHT_HAND	        M6	1	n/a	n/a	n/a
880.968	n/a	RESPONSE	        M6	1	19	G4	press
881.144	n/a	RESPONSE	        M6	1	18	F#4	press
881.269	n/a	RESPONSE	        M6	1	19	G4	release
881.409	n/a	RESPONSE	        M6	1	19	G4	press
881.501	n/a	RESPONSE	        M6	1	18	F#4	release
882.121	n/a	RESPONSE	        M6	1	23	B4	press
882.319	n/a	RESPONSE	        M6	1	24	C5	press
882.336	n/a	RESPONSE	        M6	1	19	G4	release
882.392	n/a	RESPONSE	        M6	1	23	B4	release
882.549	n/a	RESPONSE	        M6	1	23	B4	press
882.618	n/a	RESPONSE	        M6	1	24	C5	release
883.751	n/a	RESPONSE	        M6	1	23	B4	release
883.79	n/a	RESPONSE	        M6	1	18	F#4	press
883.964	n/a	RESPONSE	        M6	1	16	E4	press
884.03	n/a	RESPONSE	        M6	1	18	F#4	release
884.201	n/a	RESPONSE	        M6	1	18	F#4	press
884.34	n/a	RESPONSE	        M6	1	16	E4	release
884.671	n/a	RESPONSE	        M6	1	19	G4	press
884.722	n/a	RESPONSE	        M6	1	18	F#4	release
884.824	n/a	RESPONSE	        M6	1	21	A4	press
884.866	n/a	RESPONSE	        M6	1	19	G4	release
885.059	n/a	RESPONSE	        M6	1	19	G4	press
885.11	n/a	RESPONSE	        M6	1	21	A4	release
886.589	n/a	RESPONSE	        M6	1	19	G4	release
886.918	7.758	FIXCROSS	n/a	n/a	n/a	n/a	n/a
894.676	6.325	CUE_LISTEN	        M6	2	n/a	n/a	n/a
896.54	n/a	RESPONSE	        M6	2	24	C5	press
896.734	n/a	RESPONSE	        M6	2	24	C5	release
901.001	7.758	FIXCROSS	n/a	n/a	n/a	n/a	n/a
908.76	195.796	CUE_PLAYBACK_RIGHT_HAND	        M6	2	n/a	n/a	n/a
909.214	n/a	RESPONSE	        M6	2	24	C5	press
910.204	n/a	RESPONSE	        M6	2	20	G#4	press
910.265	n/a	RESPONSE	        M6	2	24	C5	release
911.794	n/a	RESPONSE	        M6	2	20	G#4	release
911.964	n/a	RESPONSE	        M6	2	24	C5	press
912.952	n/a	RESPONSE	        M6	2	23	B4	press
912.975	n/a	RESPONSE	        M6	2	21	A4	press
913.004	n/a	RESPONSE	        M6	2	24	C5	release
913.186	n/a	RESPONSE	        M6	2	21	A4	release
913.252	n/a	FIXCROSS	n/a	n/a	n/a	n/a	n/a
914.106	n/a	RESPONSE	        M6	2	23	B4	release
