onset	duration	trial_type	trial_number	stroop_condition	stim_text(PL)	stim_text(eng)	stim_color(PL)	stim_color(eng)	response_type	response_color
0.0	n/a	RESPONSE	n/a	n/a	n/a	n/a	n/a	n/a	n/a	n/a
0.0546	1.0167	ITI	n/a	n/a	n/a	n/a	n/a	n/a	n/a	n/a
1.0713	0.5167	FIXCROSS	n/a	n/a	n/a	n/a	n/a	n/a	n/a	n/a
1.5879	1.2	T_INK	1	Neutral	xxxxxxxxx	xxxxxxxxx	zielony	green	hit	n/a
2.7654	n/a	RESPONSE	n/a	n/a	n/a	n/a	n/a	n/a	n/a	green
2.788	0.5167	FEEDBACK	n/a	n/a	n/a	n/a	n/a	n/a	n/a	n/a
3.3046	1.0167	ITI	n/a	n/a	n/a	n/a	n/a	n/a	n/a	n/a
4.3213	0.5167	FIXCROSS	n/a	n/a	n/a	n/a	n/a	n/a	n/a	n/a
4.838	0.6667	T_INK	2	Neutral	xxxxx	xxxxx	czerwony	red	hit	n/a
5.4668	n/a	RESPONSE	n/a	n/a	n/a	n/a	n/a	n/a	n/a	red
5.5047	0.5167	FEEDBACK	n/a	n/a	n/a	n/a	n/a	n/a	n/a	n/a
6.0213	1.0167	ITI	n/a	n/a	n/a	n/a	n/a	n/a	n/a	n/a
7.038	0.5167	FIXCROSS	n/a	n/a	n/a	n/a	n/a	n/a	n/a	n/a
7.5547	0.5167	T_INK	3	Neutral	xxxxxxxx	xxxxxxxx	niebieski	blue	hit	n/a
8.0404	n/a	RESPONSE	n/a	n/a	n/a	n/a	n/a	n/a	n/a	blue
8.0713	0.5167	FEEDBACK	n/a	n/a	n/a	n/a	n/a	n/a	n/a	n/a
8.588	1.0167	ITI	n/a	n/a	n/a	n/a	n/a	n/a	n/a	n/a
9.6047	0.5167	FIXCROSS	n/a	n/a	n/a	n/a	n/a	n/a	n/a	n/a
10.1214	0.4333	T_INK	4	Neutral	xxxxxxxxx	xxxxxxxxx	żółty	yellow	hit	n/a
10.518	n/a	RESPONSE	n/a	n/a	n/a	n/a	n/a	n/a	n/a	yellow
10.5547	0.5167	FEEDBACK	n/a	n/a	n/a	n/a	n/a	n/a	n/a	n/a
11.0714	1.0167	ITI	n/a	n/a	n/a	n/a	n/a	n/a	n/a	n/a
12.0881	0.5167	FIXCROSS	n/a	n/a	n/a	n/a	n/a	n/a	n/a	n/a
12.6047	0.4167	T_INK	5	Incongruent	żółty	yellow	zielony	green	hit	n/a
12.9957	n/a	RESPONSE	n/a	n/a	n/a	n/a	n/a	n/a	n/a	green
13.0214	0.5167	FEEDBACK	n/a	n/a	n/a	n/a	n/a	n/a	n/a	n/a
13.5381	1.0167	ITI	n/a	n/a	n/a	n/a	n/a	n/a	n/a	n/a
14.5548	0.5167	FIXCROSS	n/a	n/a	n/a	n/a	n/a	n/a	n/a	n/a
15.0714	0.6333	T_INK	6	Incongruent	zielony	green	żółty	yellow	hit	n/a
15.6812	n/a	RESPONSE	n/a	n/a	n/a	n/a	n/a	n/a	n/a	yellow
15.7048	0.5167	FEEDBACK	n/a	n/a	n/a	n/a	n/a	n/a	n/a	n/a
16.2215	1.0167	ITI	n/a	n/a	n/a	n/a	n/a	n/a	n/a	n/a
17.2381	0.5167	FIXCROSS	n/a	n/a	n/a	n/a	n/a	n/a	n/a	n/a
17.7548	0.7667	T_INK	7	Neutral	xxxxxxxx	xxxxxxxx	zielony	green	hit	n/a
18.4944	n/a	RESPONSE	n/a	n/a	n/a	n/a	n/a	n/a	n/a	green
18.5215	0.5167	FEEDBACK	n/a	n/a	n/a	n/a	n/a	n/a	n/a	n/a
19.0382	1.0167	ITI	n/a	n/a	n/a	n/a	n/a	n/a	n/a	n/a
20.0548	0.5167	FIXCROSS	n/a	n/a	n/a	n/a	n/a	n/a	n/a	n/a
20.5715	0.5833	T_INK	8	Incongruent	niebieski	blue	zielony	green	hit	n/a
21.1319	n/a	RESPONSE	n/a	n/a	n/a	n/a	n/a	n/a	n/a	green
21.1548	0.5167	FEEDBACK	n/a	n/a	n/a	n/a	n/a	n/a	n/a	n/a
21.6715	1.0167	ITI	n/a	n/a	n/a	n/a	n/a	n/a	n/a	n/a
22.6882	0.5167	FIXCROSS	n/a	n/a	n/a	n/a	n/a	n/a	n/a	n/a
23.2049	0.6167	T_INK	9	Incongruent	czerwony	red	zielony	green	hit	n/a
23.8015	n/a	RESPONSE	n/a	n/a	n/a	n/a	n/a	n/a	n/a	green
23.8215	0.5167	FEEDBACK	n/a	n/a	n/a	n/a	n/a	n/a	n/a	n/a
24.3382	1.0167	ITI	n/a	n/a	n/a	n/a	n/a	n/a	n/a	n/a
25.3549	0.5167	FIXCROSS	n/a	n/a	n/a	n/a	n/a	n/a	n/a	n/a
25.8716	0.7167	T_INK	10	Incongruent	żółty	yellow	czerwony	red	hit	n/a
26.5669	n/a	RESPONSE	n/a	n/a	n/a	n/a	n/a	n/a	n/a	red
26.5882	0.5167	FEEDBACK	n/a	n/a	n/a	n/a	n/a	n/a	n/a	n/a
27.1049	1.0167	ITI	n/a	n/a	n/a	n/a	n/a	n/a	n/a	n/a
28.1216	0.5167	FIXCROSS	n/a	n/a	n/a	n/a	n/a	n/a	n/a	n/a
28.6383	0.5333	T_INK	11	Neutral	xxxxx	xxxxx	zielony	green	hit	n/a
29.1403	n/a	RESPONSE	n/a	n/a	n/a	n/a	n/a	n/a	n/a	green
29.1716	0.5167	FEEDBACK	n/a	n/a	n/a	n/a	n/a	n/a	n/a	n/a
29.6883	1.0167	ITI	n/a	n/a	n/a	n/a	n/a	n/a	n/a	n/a
30.705	0.5167	FIXCROSS	n/a	n/a	n/a	n/a	n/a	n/a	n/a	n/a
31.2216	0.6167	T_INK	12	Incongruent	niebieski	blue	żółty	yellow	hit	n/a
31.8098	n/a	RESPONSE	n/a	n/a	n/a	n/a	n/a	n/a	n/a	yellow
31.8383	0.5167	FEEDBACK	n/a	n/a	n/a	n/a	n/a	n/a	n/a	n/a
32.355	1.0333	ITI	n/a	n/a	n/a	n/a	n/a	n/a	n/a	n/a
55.4194	n/a	RESPONSE	n/a	n/a	n/a	n/a	n/a	n/a	n/a	n/a
55.4886	1.0167	ITI	n/a	n/a	n/a	n/a	n/a	n/a	n/a	n/a
56.5053	0.5167	FIXCROSS	n/a	n/a	n/a	n/a	n/a	n/a	n/a	n/a
57.0219	1.4167	INK	1	Neutral	xxxxxxxxx	xxxxxxxxx	zielony	green	hit	n/a
58.4086	n/a	RESPONSE	n/a	n/a	n/a	n/a	n/a	n/a	n/a	green
58.4386	1.0167	ITI	n/a	n/a	n/a	n/a	n/a	n/a	n/a	n/a
59.4553	0.5167	FIXCROSS	n/a	n/a	n/a	n/a	n/a	n/a	n/a	n/a
59.972	0.6	INK	2	Neutral	xxxxxxxx	xxxxxxxx	zielony	green	hit	n/a
60.5505	n/a	RESPONSE	n/a	n/a	n/a	n/a	n/a	n/a	n/a	green
60.572	1.0167	ITI	n/a	n/a	n/a	n/a	n/a	n/a	n/a	n/a
61.5887	0.5167	FIXCROSS	n/a	n/a	n/a	n/a	n/a	n/a	n/a	n/a
62.1053	0.7333	INK	3	Incongruent	zielony	green	czerwony	red	hit	n/a
62.8203	n/a	RESPONSE	n/a	n/a	n/a	n/a	n/a	n/a	n/a	red
62.8387	1.0167	ITI	n/a	n/a	n/a	n/a	n/a	n/a	n/a	n/a
63.8554	0.5167	FIXCROSS	n/a	n/a	n/a	n/a	n/a	n/a	n/a	n/a
64.372	0.8167	INK	4	Incongruent	niebieski	blue	żółty	yellow	hit	n/a
65.1701	n/a	RESPONSE	n/a	n/a	n/a	n/a	n/a	n/a	n/a	yellow
65.1887	1.0167	ITI	n/a	n/a	n/a	n/a	n/a	n/a	n/a	n/a
66.2054	0.5167	FIXCROSS	n/a	n/a	n/a	n/a	n/a	n/a	n/a	n/a
66.7221	0.5667	INK	5	Incongruent	niebieski	blue	żółty	yellow	hit	n/a
67.2641	n/a	RESPONSE	n/a	n/a	n/a	n/a	n/a	n/a	n/a	yellow
67.2887	1.0167	ITI	n/a	n/a	n/a	n/a	n/a	n/a	n/a	n/a
68.3054	0.5167	FIXCROSS	n/a	n/a	n/a	n/a	n/a	n/a	n/a	n/a
68.8221	1.0	INK	6	Incongruent	żółty	yellow	niebieski	blue	hit	n/a
69.7897	n/a	RESPONSE	n/a	n/a	n/a	n/a	n/a	n/a	n/a	blue
69.8221	1.0167	ITI	n/a	n/a	n/a	n/a	n/a	n/a	n/a	n/a
70.8388	0.5167	FIXCROSS	n/a	n/a	n/a	n/a	n/a	n/a	n/a	n/a
71.3554	0.45	INK	7	Incongruent	żółty	yellow	czerwony	red	hit	n/a
71.7878	n/a	RESPONSE	n/a	n/a	n/a	n/a	n/a	n/a	n/a	red
71.8055	1.0167	ITI	n/a	n/a	n/a	n/a	n/a	n/a	n/a	n/a
72.8221	0.5167	FIXCROSS	n/a	n/a	n/a	n/a	n/a	n/a	n/a	n/a
73.3388	0.5833	INK	8	Incongruent	niebieski	blue	zielony	green	hit	n/a
73.8978	n/a	RESPONSE	n/a	n/a	n/a	n/a	n/a	n/a	n/a	green
73.9221	1.0167	ITI	n/a	n/a	n/a	n/a	n/a	n/a	n/a	n/a
74.9388	0.5167	FIXCROSS	n/a	n/a	n/a	n/a	n/a	n/a	n/a	n/a
75.4555	0.55	INK	9	Incongruent	zielony	green	czerwony	red	hit	n/a
75.9759	n/a	RESPONSE	n/a	n/a	n/a	n/a	n/a	n/a	n/a	red
76.0055	1.0167	ITI	n/a	n/a	n/a	n/a	n/a	n/a	n/a	n/a
77.0222	0.5167	FIXCROSS	n/a	n/a	n/a	n/a	n/a	n/a	n/a	n/a
77.5389	0.65	INK	10	Incongruent	żółty	yellow	niebieski	blue	hit	n/a
78.1657	n/a	RESPONSE	n/a	n/a	n/a	n/a	n/a	n/a	n/a	blue
78.1889	1.0167	ITI	n/a	n/a	n/a	n/a	n/a	n/a	n/a	n/a
79.2055	0.5167	FIXCROSS	n/a	n/a	n/a	n/a	n/a	n/a	n/a	n/a
79.7222	0.6	INK	11	Incongruent	zielony	green	czerwony	red	hit	n/a
80.2917	n/a	RESPONSE	n/a	n/a	n/a	n/a	n/a	n/a	n/a	red
80.3222	1.0167	ITI	n/a	n/a	n/a	n/a	n/a	n/a	n/a	n/a
81.3389	0.5167	FIXCROSS	n/a	n/a	n/a	n/a	n/a	n/a	n/a	n/a
81.8556	0.6833	INK	12	Incongruent	czerwony	red	niebieski	blue	hit	n/a
82.5136	n/a	RESPONSE	n/a	n/a	n/a	n/a	n/a	n/a	n/a	blue
82.5389	1.0167	ITI	n/a	n/a	n/a	n/a	n/a	n/a	n/a	n/a
83.5556	0.5167	FIXCROSS	n/a	n/a	n/a	n/a	n/a	n/a	n/a	n/a
84.0723	0.5167	INK	13	Incongruent	czerwony	red	niebieski	blue	hit	n/a
84.5597	n/a	RESPONSE	n/a	n/a	n/a	n/a	n/a	n/a	n/a	blue
84.5889	1.0167	ITI	n/a	n/a	n/a	n/a	n/a	n/a	n/a	n/a
85.6056	0.5167	FIXCROSS	n/a	n/a	n/a	n/a	n/a	n/a	n/a	n/a
86.1223	0.55	INK	14	Neutral	xxxxxxxxx	xxxxxxxxx	czerwony	red	hit	n/a
86.6537	n/a	RESPONSE	n/a	n/a	n/a	n/a	n/a	n/a	n/a	red
86.6723	1.0167	ITI	n/a	n/a	n/a	n/a	n/a	n/a	n/a	n/a
87.689	0.5167	FIXCROSS	n/a	n/a	n/a	n/a	n/a	n/a	n/a	n/a
88.2056	0.7	INK	15	Neutral	xxxxxxx	xxxxxxx	niebieski	blue	hit	n/a
88.8755	n/a	RESPONSE	n/a	n/a	n/a	n/a	n/a	n/a	n/a	blue
88.9056	1.0167	ITI	n/a	n/a	n/a	n/a	n/a	n/a	n/a	n/a
89.9223	0.5167	FIXCROSS	n/a	n/a	n/a	n/a	n/a	n/a	n/a	n/a
90.439	0.6167	INK	16	Neutral	xxxxxxxx	xxxxxxxx	żółty	yellow	hit	n/a
91.0335	n/a	RESPONSE	n/a	n/a	n/a	n/a	n/a	n/a	n/a	yellow
91.0557	1.0167	ITI	n/a	n/a	n/a	n/a	n/a	n/a	n/a	n/a
92.0724	0.5167	FIXCROSS	n/a	n/a	n/a	n/a	n/a	n/a	n/a	n/a
92.589	0.4833	INK	17	Neutral	xxxxx	xxxxx	zielony	green	hit	n/a
93.0476	n/a	RESPONSE	n/a	n/a	n/a	n/a	n/a	n/a	n/a	green
93.0724	1.0167	ITI	n/a	n/a	n/a	n/a	n/a	n/a	n/a	n/a
94.089	0.5167	FIXCROSS	n/a	n/a	n/a	n/a	n/a	n/a	n/a	n/a
94.6057	0.6167	INK	18	Neutral	xxxxxxxx	xxxxxxxx	żółty	yellow	hit	n/a
95.1895	n/a	RESPONSE	n/a	n/a	n/a	n/a	n/a	n/a	n/a	yellow
95.2224	1.0167	ITI	n/a	n/a	n/a	n/a	n/a	n/a	n/a	n/a
96.2391	0.5167	FIXCROSS	n/a	n/a	n/a	n/a	n/a	n/a	n/a	n/a
96.7557	0.4667	INK	19	Neutral	xxxxxxxx	xxxxxxxx	niebieski	blue	hit	n/a
97.2036	n/a	RESPONSE	n/a	n/a	n/a	n/a	n/a	n/a	n/a	blue
97.2224	1.0167	ITI	n/a	n/a	n/a	n/a	n/a	n/a	n/a	n/a
98.2391	0.5167	FIXCROSS	n/a	n/a	n/a	n/a	n/a	n/a	n/a	n/a
98.7558	0.5	INK	20	Neutral	xxxxxxxx	xxxxxxxx	niebieski	blue	hit	n/a
99.2337	n/a	RESPONSE	n/a	n/a	n/a	n/a	n/a	n/a	n/a	blue
99.2558	1.0167	ITI	n/a	n/a	n/a	n/a	n/a	n/a	n/a	n/a
100.2724	0.5167	FIXCROSS	n/a	n/a	n/a	n/a	n/a	n/a	n/a	n/a
100.7891	0.55	INK	21	Incongruent	czerwony	red	żółty	yellow	hit	n/a
101.3117	n/a	RESPONSE	n/a	n/a	n/a	n/a	n/a	n/a	n/a	yellow
101.3391	1.0167	ITI	n/a	n/a	n/a	n/a	n/a	n/a	n/a	n/a
102.3558	0.5167	FIXCROSS	n/a	n/a	n/a	n/a	n/a	n/a	n/a	n/a
102.8725	0.85	INK	22	Incongruent	zielony	green	niebieski	blue	hit	n/a
103.6934	n/a	RESPONSE	n/a	n/a	n/a	n/a	n/a	n/a	n/a	blue
103.7225	1.0167	ITI	n/a	n/a	n/a	n/a	n/a	n/a	n/a	n/a
104.7392	0.5167	FIXCROSS	n/a	n/a	n/a	n/a	n/a	n/a	n/a	n/a
105.2558	0.7167	INK	23	Incongruent	zielony	green	żółty	yellow	hit	n/a
105.9472	n/a	RESPONSE	n/a	n/a	n/a	n/a	n/a	n/a	n/a	yellow
105.9725	1.0167	ITI	n/a	n/a	n/a	n/a	n/a	n/a	n/a	n/a
106.9892	0.5167	FIXCROSS	n/a	n/a	n/a	n/a	n/a	n/a	n/a	n/a
107.5059	0.5833	INK	24	Neutral	xxxxx	xxxxx	czerwony	red	hit	n/a
108.0573	n/a	RESPONSE	n/a	n/a	n/a	n/a	n/a	n/a	n/a	red
108.0892	1.0167	ITI	n/a	n/a	n/a	n/a	n/a	n/a	n/a	n/a
109.1059	0.5167	FIXCROSS	n/a	n/a	n/a	n/a	n/a	n/a	n/a	n/a
109.6226	0.45	INK	25	Neutral	xxxxxxx	xxxxxxx	czerwony	red	hit	n/a
110.0554	n/a	RESPONSE	n/a	n/a	n/a	n/a	n/a	n/a	n/a	red
110.0726	1.0167	ITI	n/a	n/a	n/a	n/a	n/a	n/a	n/a	n/a
111.0893	0.5167	FIXCROSS	n/a	n/a	n/a	n/a	n/a	n/a	n/a	n/a
111.6059	0.9333	INK	26	Incongruent	żółty	yellow	zielony	green	hit	n/a
112.517	n/a	RESPONSE	n/a	n/a	n/a	n/a	n/a	n/a	n/a	green
112.5393	1.0167	ITI	n/a	n/a	n/a	n/a	n/a	n/a	n/a	n/a
113.5559	0.5167	FIXCROSS	n/a	n/a	n/a	n/a	n/a	n/a	n/a	n/a
114.0726	0.6333	INK	27	Incongruent	czerwony	red	zielony	green	hit	n/a
114.675	n/a	RESPONSE	n/a	n/a	n/a	n/a	n/a	n/a	n/a	green
114.706	1.0167	ITI	n/a	n/a	n/a	n/a	n/a	n/a	n/a	n/a
115.7226	0.5167	FIXCROSS	n/a	n/a	n/a	n/a	n/a	n/a	n/a	n/a
116.2393	0.4833	INK	28	Incongruent	żółty	yellow	zielony	green	hit	n/a
116.689	n/a	RESPONSE	n/a	n/a	n/a	n/a	n/a	n/a	n/a	green
116.7226	1.0167	ITI	n/a	n/a	n/a	n/a	n/a	n/a	n/a	n/a
117.7393	0.5167	FIXCROSS	n/a	n/a	n/a	n/a	n/a	n/a	n/a	n/a
118.256	0.7333	INK	29	Incongruent	zielony	green	niebieski	blue	hit	n/a
118.9589	n/a	RESPONSE	n/a	n/a	n/a	n/a	n/a	n/a	n/a	blue
118.9893	1.0167	ITI	n/a	n/a	n/a	n/a	n/a	n/a	n/a	n/a
120.006	0.5167	FIXCROSS	n/a	n/a	n/a	n/a	n/a	n/a	n/a	n/a
120.5227	0.6167	INK	30	Neutral	xxxxxxxxx	xxxxxxxxx	czerwony	red	hit	n/a
121.1169	n/a	RESPONSE	n/a	n/a	n/a	n/a	n/a	n/a	n/a	red
121.1394	1.0167	ITI	n/a	n/a	n/a	n/a	n/a	n/a	n/a	n/a
122.156	0.5167	FIXCROSS	n/a	n/a	n/a	n/a	n/a	n/a	n/a	n/a
122.6727	0.9834	INK	31	Incongruent	niebieski	blue	żółty	yellow	hit	n/a
123.6265	n/a	RESPONSE	n/a	n/a	n/a	n/a	n/a	n/a	n/a	yellow
123.6561	1.0167	ITI	n/a	n/a	n/a	n/a	n/a	n/a	n/a	n/a
124.6727	0.5167	FIXCROSS	n/a	n/a	n/a	n/a	n/a	n/a	n/a	n/a
125.1894	0.7	INK	32	Neutral	xxxxxxxxx	xxxxxxxxx	zielony	green	hit	n/a
125.8644	n/a	RESPONSE	n/a	n/a	n/a	n/a	n/a	n/a	n/a	green
125.8894	1.0167	ITI	n/a	n/a	n/a	n/a	n/a	n/a	n/a	n/a
126.9061	0.5167	FIXCROSS	n/a	n/a	n/a	n/a	n/a	n/a	n/a	n/a
127.4228	0.8667	INK	33	Incongruent	czerwony	red	żółty	yellow	hit	n/a
128.2621	n/a	RESPONSE	n/a	n/a	n/a	n/a	n/a	n/a	n/a	yellow
128.2894	1.0167	ITI	n/a	n/a	n/a	n/a	n/a	n/a	n/a	n/a
129.3061	0.5167	FIXCROSS	n/a	n/a	n/a	n/a	n/a	n/a	n/a	n/a
129.8228	0.6333	INK	34	Incongruent	niebieski	blue	zielony	green	hit	n/a
130.4361	n/a	RESPONSE	n/a	n/a	n/a	n/a	n/a	n/a	n/a	green
130.4561	1.0167	ITI	n/a	n/a	n/a	n/a	n/a	n/a	n/a	n/a
131.4728	0.5167	FIXCROSS	n/a	n/a	n/a	n/a	n/a	n/a	n/a	n/a
131.9895	0.65	INK	35	Neutral	xxxxx	xxxxx	niebieski	blue	hit	n/a
132.6101	n/a	RESPONSE	n/a	n/a	n/a	n/a	n/a	n/a	n/a	blue
132.6395	1.0167	ITI	n/a	n/a	n/a	n/a	n/a	n/a	n/a	n/a
133.6562	0.5167	FIXCROSS	n/a	n/a	n/a	n/a	n/a	n/a	n/a	n/a
134.1728	0.6834	INK	36	Neutral	xxxxxxxx	xxxxxxxx	niebieski	blue	hit	n/a
134.8319	n/a	RESPONSE	n/a	n/a	n/a	n/a	n/a	n/a	n/a	blue
134.8562	1.0167	ITI	n/a	n/a	n/a	n/a	n/a	n/a	n/a	n/a
135.8729	0.5167	FIXCROSS	n/a	n/a	n/a	n/a	n/a	n/a	n/a	n/a
136.3895	0.8167	INK	37	Incongruent	niebieski	blue	czerwony	red	hit	n/a
137.1817	n/a	RESPONSE	n/a	n/a	n/a	n/a	n/a	n/a	n/a	red
137.2062	1.0167	ITI	n/a	n/a	n/a	n/a	n/a	n/a	n/a	n/a
138.2229	0.5167	FIXCROSS	n/a	n/a	n/a	n/a	n/a	n/a	n/a	n/a
138.7396	0.75	INK	38	Incongruent	zielony	green	żółty	yellow	hit	n/a
139.4675	n/a	RESPONSE	n/a	n/a	n/a	n/a	n/a	n/a	n/a	yellow
139.4896	1.0167	ITI	n/a	n/a	n/a	n/a	n/a	n/a	n/a	n/a
140.5062	0.5167	FIXCROSS	n/a	n/a	n/a	n/a	n/a	n/a	n/a	n/a
141.0229	0.8	INK	39	Neutral	xxxxxxx	xxxxxxx	niebieski	blue	hit	n/a
141.8013	n/a	RESPONSE	n/a	n/a	n/a	n/a	n/a	n/a	n/a	blue
141.8229	1.0167	ITI	n/a	n/a	n/a	n/a	n/a	n/a	n/a	n/a
142.8396	0.5167	FIXCROSS	n/a	n/a	n/a	n/a	n/a	n/a	n/a	n/a
143.3563	0.6667	INK	40	Incongruent	żółty	yellow	czerwony	red	hit	n/a
143.9912	n/a	RESPONSE	n/a	n/a	n/a	n/a	n/a	n/a	n/a	red
144.023	1.0167	ITI	n/a	n/a	n/a	n/a	n/a	n/a	n/a	n/a
145.0396	0.5167	FIXCROSS	n/a	n/a	n/a	n/a	n/a	n/a	n/a	n/a
145.5563	0.8333	INK	41	Neutral	xxxxxxxxx	xxxxxxxxx	żółty	yellow	hit	n/a
146.357	n/a	RESPONSE	n/a	n/a	n/a	n/a	n/a	n/a	n/a	yellow
146.3897	1.0167	ITI	n/a	n/a	n/a	n/a	n/a	n/a	n/a	n/a
147.4063	0.5167	FIXCROSS	n/a	n/a	n/a	n/a	n/a	n/a	n/a	n/a
147.923	0.55	INK	42	Neutral	xxxxxxxx	xxxxxxxx	żółty	yellow	hit	n/a
148.451	n/a	RESPONSE	n/a	n/a	n/a	n/a	n/a	n/a	n/a	yellow
148.473	1.0167	ITI	n/a	n/a	n/a	n/a	n/a	n/a	n/a	n/a
149.4897	0.5167	FIXCROSS	n/a	n/a	n/a	n/a	n/a	n/a	n/a	n/a
150.0064	0.5667	INK	43	Neutral	xxxxx	xxxxx	czerwony	red	hit	n/a
150.5449	n/a	RESPONSE	n/a	n/a	n/a	n/a	n/a	n/a	n/a	red
150.573	1.0167	ITI	n/a	n/a	n/a	n/a	n/a	n/a	n/a	n/a
151.5897	0.5167	FIXCROSS	n/a	n/a	n/a	n/a	n/a	n/a	n/a	n/a
152.1064	0.9	INK	44	Incongruent	czerwony	red	zielony	green	hit	n/a
152.9747	n/a	RESPONSE	n/a	n/a	n/a	n/a	n/a	n/a	n/a	green
153.0064	1.0167	ITI	n/a	n/a	n/a	n/a	n/a	n/a	n/a	n/a
154.0231	0.5167	FIXCROSS	n/a	n/a	n/a	n/a	n/a	n/a	n/a	n/a
154.5397	0.6167	INK	45	Neutral	xxxxxxx	xxxxxxx	żółty	yellow	hit	n/a
155.1325	n/a	RESPONSE	n/a	n/a	n/a	n/a	n/a	n/a	n/a	yellow
155.1564	1.0167	ITI	n/a	n/a	n/a	n/a	n/a	n/a	n/a	n/a
156.1731	0.5167	FIXCROSS	n/a	n/a	n/a	n/a	n/a	n/a	n/a	n/a
156.6898	0.55	INK	46	Neutral	xxxxxxx	xxxxxxx	żółty	yellow	hit	n/a
157.2106	n/a	RESPONSE	n/a	n/a	n/a	n/a	n/a	n/a	n/a	yellow
157.2398	1.0167	ITI	n/a	n/a	n/a	n/a	n/a	n/a	n/a	n/a
158.2565	0.5167	FIXCROSS	n/a	n/a	n/a	n/a	n/a	n/a	n/a	n/a
158.7731	0.5833	INK	47	Neutral	xxxxxxx	xxxxxxx	niebieski	blue	hit	n/a
159.3365	n/a	RESPONSE	n/a	n/a	n/a	n/a	n/a	n/a	n/a	blue
159.3565	1.0167	ITI	n/a	n/a	n/a	n/a	n/a	n/a	n/a	n/a
160.3731	0.5167	FIXCROSS	n/a	n/a	n/a	n/a	n/a	n/a	n/a	n/a
160.8898	0.4667	INK	48	Neutral	xxxxx	xxxxx	czerwony	red	hit	n/a
161.3346	n/a	RESPONSE	n/a	n/a	n/a	n/a	n/a	n/a	n/a	red
161.3565	1.0167	ITI	n/a	n/a	n/a	n/a	n/a	n/a	n/a	n/a
162.3732	0.5167	FIXCROSS	n/a	n/a	n/a	n/a	n/a	n/a	n/a	n/a
162.8898	0.8333	INK	49	Neutral	xxxxx	xxxxx	zielony	green	hit	n/a
163.7005	n/a	RESPONSE	n/a	n/a	n/a	n/a	n/a	n/a	n/a	green
163.7232	1.0167	ITI	n/a	n/a	n/a	n/a	n/a	n/a	n/a	n/a
164.7399	0.5167	FIXCROSS	n/a	n/a	n/a	n/a	n/a	n/a	n/a	n/a
165.2565	0.6	INK	50	Incongruent	zielony	green	niebieski	blue	hit	n/a
165.8264	n/a	RESPONSE	n/a	n/a	n/a	n/a	n/a	n/a	n/a	blue
165.8565	1.0167	ITI	n/a	n/a	n/a	n/a	n/a	n/a	n/a	n/a
166.8732	0.5167	FIXCROSS	n/a	n/a	n/a	n/a	n/a	n/a	n/a	n/a
167.3899	0.6667	INK	51	Neutral	xxxxxxxx	xxxxxxxx	zielony	green	hit	n/a
168.0323	n/a	RESPONSE	n/a	n/a	n/a	n/a	n/a	n/a	n/a	green
168.0566	1.0167	ITI	n/a	n/a	n/a	n/a	n/a	n/a	n/a	n/a
169.0733	0.5167	FIXCROSS	n/a	n/a	n/a	n/a	n/a	n/a	n/a	n/a
169.5899	0.6167	INK	52	Incongruent	żółty	yellow	czerwony	red	hit	n/a
170.1743	n/a	RESPONSE	n/a	n/a	n/a	n/a	n/a	n/a	n/a	red
170.2066	1.0167	ITI	n/a	n/a	n/a	n/a	n/a	n/a	n/a	n/a
171.2233	0.5167	FIXCROSS	n/a	n/a	n/a	n/a	n/a	n/a	n/a	n/a
171.7399	0.6333	INK	53	Neutral	xxxxxxx	xxxxxxx	czerwony	red	hit	n/a
172.3482	n/a	RESPONSE	n/a	n/a	n/a	n/a	n/a	n/a	n/a	red
172.3733	1.0167	ITI	n/a	n/a	n/a	n/a	n/a	n/a	n/a	n/a
173.39	0.5167	FIXCROSS	n/a	n/a	n/a	n/a	n/a	n/a	n/a	n/a
173.9066	0.5167	INK	54	Neutral	xxxxxxxxx	xxxxxxxxx	czerwony	red	hit	n/a
174.3943	n/a	RESPONSE	n/a	n/a	n/a	n/a	n/a	n/a	n/a	red
174.4233	1.0167	ITI	n/a	n/a	n/a	n/a	n/a	n/a	n/a	n/a
175.44	0.5167	FIXCROSS	n/a	n/a	n/a	n/a	n/a	n/a	n/a	n/a
175.9567	0.6167	INK	55	Incongruent	czerwony	red	zielony	green	hit	n/a
176.5523	n/a	RESPONSE	n/a	n/a	n/a	n/a	n/a	n/a	n/a	green
176.5733	1.0167	ITI	n/a	n/a	n/a	n/a	n/a	n/a	n/a	n/a
177.59	0.5167	FIXCROSS	n/a	n/a	n/a	n/a	n/a	n/a	n/a	n/a
178.1067	0.6167	INK	56	Incongruent	czerwony	red	niebieski	blue	hit	n/a
178.6942	n/a	RESPONSE	n/a	n/a	n/a	n/a	n/a	n/a	n/a	blue
178.7234	1.0167	ITI	n/a	n/a	n/a	n/a	n/a	n/a	n/a	n/a
179.74	0.5167	FIXCROSS	n/a	n/a	n/a	n/a	n/a	n/a	n/a	n/a
180.2567	0.4833	INK	57	Neutral	xxxxx	xxxxx	niebieski	blue	hit	n/a
180.7082	n/a	RESPONSE	n/a	n/a	n/a	n/a	n/a	n/a	n/a	blue
180.7401	1.0167	ITI	n/a	n/a	n/a	n/a	n/a	n/a	n/a	n/a
181.7567	0.5167	FIXCROSS	n/a	n/a	n/a	n/a	n/a	n/a	n/a	n/a
182.2734	0.5667	INK	58	Neutral	xxxxxxxxx	xxxxxxxxx	żółty	yellow	hit	n/a
182.8182	n/a	RESPONSE	n/a	n/a	n/a	n/a	n/a	n/a	n/a	yellow
182.8401	1.0167	ITI	n/a	n/a	n/a	n/a	n/a	n/a	n/a	n/a
183.8568	0.5167	FIXCROSS	n/a	n/a	n/a	n/a	n/a	n/a	n/a	n/a
184.3734	0.4833	INK	59	Neutral	xxxxxxx	xxxxxxx	żółty	yellow	hit	n/a
184.8323	n/a	RESPONSE	n/a	n/a	n/a	n/a	n/a	n/a	n/a	yellow
184.8568	1.0167	ITI	n/a	n/a	n/a	n/a	n/a	n/a	n/a	n/a
185.8734	0.5167	FIXCROSS	n/a	n/a	n/a	n/a	n/a	n/a	n/a	n/a
186.3901	0.6167	INK	60	Incongruent	żółty	yellow	niebieski	blue	hit	n/a
186.9743	n/a	RESPONSE	n/a	n/a	n/a	n/a	n/a	n/a	n/a	blue
187.0068	1.0167	ITI	n/a	n/a	n/a	n/a	n/a	n/a	n/a	n/a
188.0235	0.5167	FIXCROSS	n/a	n/a	n/a	n/a	n/a	n/a	n/a	n/a
188.5401	0.5167	INK	61	Neutral	xxxxxxxx	xxxxxxxx	zielony	green	hit	n/a
189.0364	n/a	RESPONSE	n/a	n/a	n/a	n/a	n/a	n/a	n/a	green
189.0568	1.0167	ITI	n/a	n/a	n/a	n/a	n/a	n/a	n/a	n/a
190.0735	0.5167	FIXCROSS	n/a	n/a	n/a	n/a	n/a	n/a	n/a	n/a
190.5902	0.5833	INK	62	Incongruent	zielony	green	żółty	yellow	hit	n/a
191.1464	n/a	RESPONSE	n/a	n/a	n/a	n/a	n/a	n/a	n/a	yellow
191.1735	1.0167	ITI	n/a	n/a	n/a	n/a	n/a	n/a	n/a	n/a
192.1902	0.5167	FIXCROSS	n/a	n/a	n/a	n/a	n/a	n/a	n/a	n/a
192.7069	0.55	INK	63	Incongruent	czerwony	red	żółty	yellow	hit	n/a
193.2244	n/a	RESPONSE	n/a	n/a	n/a	n/a	n/a	n/a	n/a	yellow
193.2569	1.0167	ITI	n/a	n/a	n/a	n/a	n/a	n/a	n/a	n/a
194.2735	0.5167	FIXCROSS	n/a	n/a	n/a	n/a	n/a	n/a	n/a	n/a
194.7902	0.9	INK	64	Incongruent	niebieski	blue	czerwony	red	hit	n/a
195.6701	n/a	RESPONSE	n/a	n/a	n/a	n/a	n/a	n/a	n/a	red
195.6902	1.0167	ITI	n/a	n/a	n/a	n/a	n/a	n/a	n/a	n/a
196.7069	0.5167	FIXCROSS	n/a	n/a	n/a	n/a	n/a	n/a	n/a	n/a
197.2236	0.7667	INK	65	Incongruent	żółty	yellow	zielony	green	hit	n/a
197.9718	n/a	RESPONSE	n/a	n/a	n/a	n/a	n/a	n/a	n/a	green
197.9902	1.0167	ITI	n/a	n/a	n/a	n/a	n/a	n/a	n/a	n/a
199.0069	0.5167	FIXCROSS	n/a	n/a	n/a	n/a	n/a	n/a	n/a	n/a
199.5236	0.7167	INK	66	Incongruent	niebieski	blue	zielony	green	hit	n/a
200.2097	n/a	RESPONSE	n/a	n/a	n/a	n/a	n/a	n/a	n/a	green
200.2403	1.0167	ITI	n/a	n/a	n/a	n/a	n/a	n/a	n/a	n/a
201.2569	0.5167	FIXCROSS	n/a	n/a	n/a	n/a	n/a	n/a	n/a	n/a
201.7736	0.6167	INK	67	Neutral	xxxxx	xxxxx	niebieski	blue	hit	n/a
202.3677	n/a	RESPONSE	n/a	n/a	n/a	n/a	n/a	n/a	n/a	blue
202.3903	1.0167	ITI	n/a	n/a	n/a	n/a	n/a	n/a	n/a	n/a
203.407	0.5167	FIXCROSS	n/a	n/a	n/a	n/a	n/a	n/a	n/a	n/a
203.9237	0.5	INK	68	Neutral	xxxxxxx	xxxxxxx	czerwony	red	hit	n/a
204.3978	n/a	RESPONSE	n/a	n/a	n/a	n/a	n/a	n/a	n/a	red
204.4236	1.0167	ITI	n/a	n/a	n/a	n/a	n/a	n/a	n/a	n/a
205.4403	0.5167	FIXCROSS	n/a	n/a	n/a	n/a	n/a	n/a	n/a	n/a
205.957	0.7833	INK	69	Neutral	xxxxx	xxxxx	zielony	green	hit	n/a
206.7155	n/a	RESPONSE	n/a	n/a	n/a	n/a	n/a	n/a	n/a	green
206.7403	1.0167	ITI	n/a	n/a	n/a	n/a	n/a	n/a	n/a	n/a
207.757	0.5167	FIXCROSS	n/a	n/a	n/a	n/a	n/a	n/a	n/a	n/a
208.2737	0.4833	INK	70	Neutral	xxxxxxxxx	xxxxxxxxx	żółty	yellow	hit	n/a
208.7296	n/a	RESPONSE	n/a	n/a	n/a	n/a	n/a	n/a	n/a	yellow
208.757	1.0167	ITI	n/a	n/a	n/a	n/a	n/a	n/a	n/a	n/a
209.7737	0.5167	FIXCROSS	n/a	n/a	n/a	n/a	n/a	n/a	n/a	n/a
210.2904	0.5833	INK	71	Incongruent	niebieski	blue	czerwony	red	hit	n/a
210.8556	n/a	RESPONSE	n/a	n/a	n/a	n/a	n/a	n/a	n/a	red
210.8737	1.0167	ITI	n/a	n/a	n/a	n/a	n/a	n/a	n/a	n/a
211.8904	0.5167	FIXCROSS	n/a	n/a	n/a	n/a	n/a	n/a	n/a	n/a
212.4071	0.55	INK	72	Neutral	xxxxxxxxx	xxxxxxxxx	zielony	green	hit	n/a
212.9336	n/a	RESPONSE	n/a	n/a	n/a	n/a	n/a	n/a	n/a	green
212.9571	1.0834	ITI	n/a	n/a	n/a	n/a	n/a	n/a	n/a	n/a
249.313	n/a	RESPONSE	n/a	n/a	n/a	n/a	n/a	n/a	n/a	n/a
249.3742	1.0167	ITI	n/a	n/a	n/a	n/a	n/a	n/a	n/a	n/a
250.3908	0.5167	FIXCROSS	n/a	n/a	n/a	n/a	n/a	n/a	n/a	n/a
250.9075	1.4	T_COLOR_NAME	1	Incongruent	żółty	yellow	czerwony	red	hit	n/a
252.2702	n/a	RESPONSE	n/a	n/a	n/a	n/a	n/a	n/a	n/a	yellow
252.3075	0.5167	FEEDBACK	n/a	n/a	n/a	n/a	n/a	n/a	n/a	n/a
252.8242	1.0167	ITI	n/a	n/a	n/a	n/a	n/a	n/a	n/a	n/a
253.8409	0.5167	FIXCROSS	n/a	n/a	n/a	n/a	n/a	n/a	n/a	n/a
254.3576	1.0333	T_COLOR_NAME	2	Neutral	żółty	yellow	Neutral	Neutral	hit	n/a
255.3552	n/a	RESPONSE	n/a	n/a	n/a	n/a	n/a	n/a	n/a	yellow
255.3909	0.5167	FEEDBACK	n/a	n/a	n/a	n/a	n/a	n/a	n/a	n/a
255.9076	1.0167	ITI	n/a	n/a	n/a	n/a	n/a	n/a	n/a	n/a
256.9242	0.5167	FIXCROSS	n/a	n/a	n/a	n/a	n/a	n/a	n/a	n/a
257.4409	0.7667	T_COLOR_NAME	3	Neutral	niebieski	blue	Neutral	Neutral	hit	n/a
258.1845	n/a	RESPONSE	n/a	n/a	n/a	n/a	n/a	n/a	n/a	blue
258.2076	0.5167	FEEDBACK	n/a	n/a	n/a	n/a	n/a	n/a	n/a	n/a
258.7243	1.0167	ITI	n/a	n/a	n/a	n/a	n/a	n/a	n/a	n/a
259.7409	0.5167	FIXCROSS	n/a	n/a	n/a	n/a	n/a	n/a	n/a	n/a
260.2576	0.85	T_COLOR_NAME	4	Incongruent	niebieski	blue	żółty	yellow	hit	n/a
261.0777	n/a	RESPONSE	n/a	n/a	n/a	n/a	n/a	n/a	n/a	blue
261.1076	0.5167	FEEDBACK	n/a	n/a	n/a	n/a	n/a	n/a	n/a	n/a
261.6243	1.0167	ITI	n/a	n/a	n/a	n/a	n/a	n/a	n/a	n/a
262.641	0.5167	FIXCROSS	n/a	n/a	n/a	n/a	n/a	n/a	n/a	n/a
263.1577	0.95	T_COLOR_NAME	5	Incongruent	zielony	green	żółty	yellow	hit	n/a
264.0829	n/a	RESPONSE	n/a	n/a	n/a	n/a	n/a	n/a	n/a	green
264.1077	0.5167	FEEDBACK	n/a	n/a	n/a	n/a	n/a	n/a	n/a	n/a
264.6243	1.0167	ITI	n/a	n/a	n/a	n/a	n/a	n/a	n/a	n/a
265.641	0.5167	FIXCROSS	n/a	n/a	n/a	n/a	n/a	n/a	n/a	n/a
266.1577	1.55	T_COLOR_NAME	6	Incongruent	niebieski	blue	zielony	green	hit	n/a
267.6795	n/a	RESPONSE	n/a	n/a	n/a	n/a	n/a	n/a	n/a	blue
267.7077	0.5167	FEEDBACK	n/a	n/a	n/a	n/a	n/a	n/a	n/a	n/a
268.2244	1.0167	ITI	n/a	n/a	n/a	n/a	n/a	n/a	n/a	n/a
269.2411	0.5167	FIXCROSS	n/a	n/a	n/a	n/a	n/a	n/a	n/a	n/a
269.7577	0.7833	T_COLOR_NAME	7	Neutral	czerwony	red	Neutral	Neutral	hit	n/a
270.5089	n/a	RESPONSE	n/a	n/a	n/a	n/a	n/a	n/a	n/a	red
270.5411	0.5167	FEEDBACK	n/a	n/a	n/a	n/a	n/a	n/a	n/a	n/a
271.0577	1.0167	ITI	n/a	n/a	n/a	n/a	n/a	n/a	n/a	n/a
272.0744	0.5167	FIXCROSS	n/a	n/a	n/a	n/a	n/a	n/a	n/a	n/a
272.5911	0.6167	T_COLOR_NAME	8	Incongruent	czerwony	red	zielony	green	hit	n/a
273.1783	n/a	RESPONSE	n/a	n/a	n/a	n/a	n/a	n/a	n/a	red
273.2078	0.5167	FEEDBACK	n/a	n/a	n/a	n/a	n/a	n/a	n/a	n/a
273.7244	1.0167	ITI	n/a	n/a	n/a	n/a	n/a	n/a	n/a	n/a
274.7411	0.5167	FIXCROSS	n/a	n/a	n/a	n/a	n/a	n/a	n/a	n/a
275.2578	0.7167	T_COLOR_NAME	9	Incongruent	żółty	yellow	zielony	green	hit	n/a
275.9437	n/a	RESPONSE	n/a	n/a	n/a	n/a	n/a	n/a	n/a	yellow
275.9745	0.5167	FEEDBACK	n/a	n/a	n/a	n/a	n/a	n/a	n/a	n/a
276.4911	1.0167	ITI	n/a	n/a	n/a	n/a	n/a	n/a	n/a	n/a
277.5078	0.5167	FIXCROSS	n/a	n/a	n/a	n/a	n/a	n/a	n/a	n/a
278.0245	0.75	T_COLOR_NAME	10	Neutral	czerwony	red	Neutral	Neutral	hit	n/a
278.741	n/a	RESPONSE	n/a	n/a	n/a	n/a	n/a	n/a	n/a	red
278.7745	0.5167	FEEDBACK	n/a	n/a	n/a	n/a	n/a	n/a	n/a	n/a
279.2912	1.0167	ITI	n/a	n/a	n/a	n/a	n/a	n/a	n/a	n/a
280.3078	0.5167	FIXCROSS	n/a	n/a	n/a	n/a	n/a	n/a	n/a	n/a
280.8245	0.6167	T_COLOR_NAME	11	Neutral	żółty	yellow	Neutral	Neutral	hit	n/a
281.4105	n/a	RESPONSE	n/a	n/a	n/a	n/a	n/a	n/a	n/a	yellow
281.4412	0.5167	FEEDBACK	n/a	n/a	n/a	n/a	n/a	n/a	n/a	n/a
281.9579	1.0167	ITI	n/a	n/a	n/a	n/a	n/a	n/a	n/a	n/a
282.9745	0.5167	FIXCROSS	n/a	n/a	n/a	n/a	n/a	n/a	n/a	n/a
283.4912	0.6167	T_COLOR_NAME	12	Neutral	niebieski	blue	Neutral	Neutral	hit	n/a
284.08	n/a	RESPONSE	n/a	n/a	n/a	n/a	n/a	n/a	n/a	blue
284.1079	0.5167	FEEDBACK	n/a	n/a	n/a	n/a	n/a	n/a	n/a	n/a
284.6246	1.0333	ITI	n/a	n/a	n/a	n/a	n/a	n/a	n/a	n/a
288.348	n/a	RESPONSE	n/a	n/a	n/a	n/a	n/a	n/a	n/a	n/a
288.4079	1.0167	ITI	n/a	n/a	n/a	n/a	n/a	n/a	n/a	n/a
289.4246	0.5167	FIXCROSS	n/a	n/a	n/a	n/a	n/a	n/a	n/a	n/a
289.9413	0.8834	COLOR_NAME	1	Incongruent	niebieski	blue	zielony	green	hit	n/a
290.7935	n/a	RESPONSE	n/a	n/a	n/a	n/a	n/a	n/a	n/a	blue
290.8246	1.0167	ITI	n/a	n/a	n/a	n/a	n/a	n/a	n/a	n/a
291.8413	0.5167	FIXCROSS	n/a	n/a	n/a	n/a	n/a	n/a	n/a	n/a
292.358	0.5667	COLOR_NAME	2	Incongruent	niebieski	blue	czerwony	red	hit	n/a
292.9035	n/a	RESPONSE	n/a	n/a	n/a	n/a	n/a	n/a	n/a	blue
292.9246	1.0167	ITI	n/a	n/a	n/a	n/a	n/a	n/a	n/a	n/a
293.9413	0.5167	FIXCROSS	n/a	n/a	n/a	n/a	n/a	n/a	n/a	n/a
294.458	0.8833	COLOR_NAME	3	Incongruent	niebieski	blue	żółty	yellow	hit	n/a
295.3173	n/a	RESPONSE	n/a	n/a	n/a	n/a	n/a	n/a	n/a	blue
295.3413	1.0167	ITI	n/a	n/a	n/a	n/a	n/a	n/a	n/a	n/a
296.358	0.5167	FIXCROSS	n/a	n/a	n/a	n/a	n/a	n/a	n/a	n/a
296.8747	0.6333	COLOR_NAME	4	Neutral	zielony	green	Neutral	Neutral	hit	n/a
297.4752	n/a	RESPONSE	n/a	n/a	n/a	n/a	n/a	n/a	n/a	green
297.508	1.0167	ITI	n/a	n/a	n/a	n/a	n/a	n/a	n/a	n/a
298.5247	0.5167	FIXCROSS	n/a	n/a	n/a	n/a	n/a	n/a	n/a	n/a
299.0414	0.6833	COLOR_NAME	5	Neutral	niebieski	blue	Neutral	Neutral	hit	n/a
299.697	n/a	RESPONSE	n/a	n/a	n/a	n/a	n/a	n/a	n/a	blue
299.7247	1.0167	ITI	n/a	n/a	n/a	n/a	n/a	n/a	n/a	n/a
300.7414	0.5167	FIXCROSS	n/a	n/a	n/a	n/a	n/a	n/a	n/a	n/a
301.2581	0.6	COLOR_NAME	6	Neutral	czerwony	red	Neutral	Neutral	hit	n/a
301.8389	n/a	RESPONSE	n/a	n/a	n/a	n/a	n/a	n/a	n/a	red
301.8581	1.0167	ITI	n/a	n/a	n/a	n/a	n/a	n/a	n/a	n/a
302.8748	0.5167	FIXCROSS	n/a	n/a	n/a	n/a	n/a	n/a	n/a	n/a
303.3914	0.55	COLOR_NAME	7	Neutral	czerwony	red	Neutral	Neutral	hit	n/a
303.9169	n/a	RESPONSE	n/a	n/a	n/a	n/a	n/a	n/a	n/a	red
303.9414	1.0167	ITI	n/a	n/a	n/a	n/a	n/a	n/a	n/a	n/a
304.9581	0.5167	FIXCROSS	n/a	n/a	n/a	n/a	n/a	n/a	n/a	n/a
305.4748	0.6	COLOR_NAME	8	Incongruent	czerwony	red	niebieski	blue	hit	n/a
306.0428	n/a	RESPONSE	n/a	n/a	n/a	n/a	n/a	n/a	n/a	red
306.0748	1.0167	ITI	n/a	n/a	n/a	n/a	n/a	n/a	n/a	n/a
307.0915	0.5167	FIXCROSS	n/a	n/a	n/a	n/a	n/a	n/a	n/a	n/a
307.6082	1.1333	COLOR_NAME	9	Neutral	żółty	yellow	Neutral	Neutral	hit	n/a
308.7123	n/a	RESPONSE	n/a	n/a	n/a	n/a	n/a	n/a	n/a	yellow
308.7415	1.0167	ITI	n/a	n/a	n/a	n/a	n/a	n/a	n/a	n/a
309.7582	0.5167	FIXCROSS	n/a	n/a	n/a	n/a	n/a	n/a	n/a	n/a
310.2749	0.55	COLOR_NAME	10	Neutral	czerwony	red	Neutral	Neutral	hit	n/a
310.8063	n/a	RESPONSE	n/a	n/a	n/a	n/a	n/a	n/a	n/a	red
310.8249	1.0167	ITI	n/a	n/a	n/a	n/a	n/a	n/a	n/a	n/a
311.8415	0.5167	FIXCROSS	n/a	n/a	n/a	n/a	n/a	n/a	n/a	n/a
312.3582	0.9167	COLOR_NAME	11	Incongruent	czerwony	red	niebieski	blue	hit	n/a
313.252	n/a	RESPONSE	n/a	n/a	n/a	n/a	n/a	n/a	n/a	red
313.2749	1.0167	ITI	n/a	n/a	n/a	n/a	n/a	n/a	n/a	n/a
314.2916	0.5167	FIXCROSS	n/a	n/a	n/a	n/a	n/a	n/a	n/a	n/a
314.8082	0.6333	COLOR_NAME	12	Incongruent	czerwony	red	zielony	green	hit	n/a
315.4099	n/a	RESPONSE	n/a	n/a	n/a	n/a	n/a	n/a	n/a	red
315.4416	1.0167	ITI	n/a	n/a	n/a	n/a	n/a	n/a	n/a	n/a
316.4582	0.5167	FIXCROSS	n/a	n/a	n/a	n/a	n/a	n/a	n/a	n/a
316.9749	0.8167	COLOR_NAME	13	Incongruent	zielony	green	czerwony	red	hit	n/a
317.7597	n/a	RESPONSE	n/a	n/a	n/a	n/a	n/a	n/a	n/a	green
317.7916	1.0167	ITI	n/a	n/a	n/a	n/a	n/a	n/a	n/a	n/a
318.8083	0.5167	FIXCROSS	n/a	n/a	n/a	n/a	n/a	n/a	n/a	n/a
319.3249	0.9	COLOR_NAME	14	Incongruent	żółty	yellow	niebieski	blue	hit	n/a
320.2054	n/a	RESPONSE	n/a	n/a	n/a	n/a	n/a	n/a	n/a	yellow
320.225	1.0167	ITI	n/a	n/a	n/a	n/a	n/a	n/a	n/a	n/a
321.2416	0.5167	FIXCROSS	n/a	n/a	n/a	n/a	n/a	n/a	n/a	n/a
321.7583	0.8167	COLOR_NAME	15	Neutral	czerwony	red	Neutral	Neutral	hit	n/a
322.5552	n/a	RESPONSE	n/a	n/a	n/a	n/a	n/a	n/a	n/a	red
322.575	1.0167	ITI	n/a	n/a	n/a	n/a	n/a	n/a	n/a	n/a
323.5917	0.5167	FIXCROSS	n/a	n/a	n/a	n/a	n/a	n/a	n/a	n/a
324.1083	0.6333	COLOR_NAME	16	Neutral	żółty	yellow	Neutral	Neutral	hit	n/a
324.7132	n/a	RESPONSE	n/a	n/a	n/a	n/a	n/a	n/a	n/a	yellow
324.7417	1.0167	ITI	n/a	n/a	n/a	n/a	n/a	n/a	n/a	n/a
325.7584	0.5167	FIXCROSS	n/a	n/a	n/a	n/a	n/a	n/a	n/a	n/a
326.275	0.65	COLOR_NAME	17	Neutral	niebieski	blue	Neutral	Neutral	hit	n/a
326.903	n/a	RESPONSE	n/a	n/a	n/a	n/a	n/a	n/a	n/a	blue
326.925	1.0167	ITI	n/a	n/a	n/a	n/a	n/a	n/a	n/a	n/a
327.9417	0.5167	FIXCROSS	n/a	n/a	n/a	n/a	n/a	n/a	n/a	n/a
328.4584	0.6667	COLOR_NAME	18	Neutral	żółty	yellow	Neutral	Neutral	hit	n/a
329.093	n/a	RESPONSE	n/a	n/a	n/a	n/a	n/a	n/a	n/a	yellow
329.1251	1.0167	ITI	n/a	n/a	n/a	n/a	n/a	n/a	n/a	n/a
330.1417	0.5167	FIXCROSS	n/a	n/a	n/a	n/a	n/a	n/a	n/a	n/a
330.6584	0.4667	COLOR_NAME	19	Neutral	zielony	green	Neutral	Neutral	hit	n/a
331.107	n/a	RESPONSE	n/a	n/a	n/a	n/a	n/a	n/a	n/a	green
331.1251	1.0167	ITI	n/a	n/a	n/a	n/a	n/a	n/a	n/a	n/a
332.1418	0.5167	FIXCROSS	n/a	n/a	n/a	n/a	n/a	n/a	n/a	n/a
332.6584	0.45	COLOR_NAME	20	Incongruent	czerwony	red	żółty	yellow	hit	n/a
333.089	n/a	RESPONSE	n/a	n/a	n/a	n/a	n/a	n/a	n/a	red
333.1084	1.0167	ITI	n/a	n/a	n/a	n/a	n/a	n/a	n/a	n/a
334.1251	0.5167	FIXCROSS	n/a	n/a	n/a	n/a	n/a	n/a	n/a	n/a
334.6418	0.9333	COLOR_NAME	21	Incongruent	niebieski	blue	żółty	yellow	hit	n/a
335.5506	n/a	RESPONSE	n/a	n/a	n/a	n/a	n/a	n/a	n/a	blue
335.5751	1.0167	ITI	n/a	n/a	n/a	n/a	n/a	n/a	n/a	n/a
336.5918	0.5167	FIXCROSS	n/a	n/a	n/a	n/a	n/a	n/a	n/a	n/a
337.1085	0.85	COLOR_NAME	22	Neutral	niebieski	blue	Neutral	Neutral	hit	n/a
337.9321	n/a	RESPONSE	n/a	n/a	n/a	n/a	n/a	n/a	n/a	blue
337.9585	1.0167	ITI	n/a	n/a	n/a	n/a	n/a	n/a	n/a	n/a
338.9752	0.5167	FIXCROSS	n/a	n/a	n/a	n/a	n/a	n/a	n/a	n/a
339.4918	0.8167	COLOR_NAME	23	Incongruent	zielony	green	żółty	yellow	hit	n/a
340.2817	n/a	RESPONSE	n/a	n/a	n/a	n/a	n/a	n/a	n/a	green
340.3085	1.0167	ITI	n/a	n/a	n/a	n/a	n/a	n/a	n/a	n/a
341.3252	0.5167	FIXCROSS	n/a	n/a	n/a	n/a	n/a	n/a	n/a	n/a
341.8419	0.6167	COLOR_NAME	24	Neutral	żółty	yellow	Neutral	Neutral	hit	n/a
342.4395	n/a	RESPONSE	n/a	n/a	n/a	n/a	n/a	n/a	n/a	yellow
342.4585	1.0167	ITI	n/a	n/a	n/a	n/a	n/a	n/a	n/a	n/a
343.4752	0.5167	FIXCROSS	n/a	n/a	n/a	n/a	n/a	n/a	n/a	n/a
343.9919	0.9333	COLOR_NAME	25	Incongruent	żółty	yellow	niebieski	blue	incorrect	n/a
344.901	n/a	RESPONSE	n/a	n/a	n/a	n/a	n/a	n/a	n/a	green
344.9252	1.0167	ITI	n/a	n/a	n/a	n/a	n/a	n/a	n/a	n/a
345.9419	0.5167	FIXCROSS	n/a	n/a	n/a	n/a	n/a	n/a	n/a	n/a
346.4586	0.9667	COLOR_NAME	26	Incongruent	żółty	yellow	czerwony	red	hit	n/a
347.3945	n/a	RESPONSE	n/a	n/a	n/a	n/a	n/a	n/a	n/a	yellow
347.4253	1.0167	ITI	n/a	n/a	n/a	n/a	n/a	n/a	n/a	n/a
348.442	0.5167	FIXCROSS	n/a	n/a	n/a	n/a	n/a	n/a	n/a	n/a
348.9586	0.8667	COLOR_NAME	27	Neutral	niebieski	blue	Neutral	Neutral	hit	n/a
349.7921	n/a	RESPONSE	n/a	n/a	n/a	n/a	n/a	n/a	n/a	blue
349.8253	1.0167	ITI	n/a	n/a	n/a	n/a	n/a	n/a	n/a	n/a
350.842	0.5167	FIXCROSS	n/a	n/a	n/a	n/a	n/a	n/a	n/a	n/a
351.3586	1.0333	COLOR_NAME	28	Incongruent	niebieski	blue	czerwony	red	hit	n/a
352.3654	n/a	RESPONSE	n/a	n/a	n/a	n/a	n/a	n/a	n/a	blue
352.392	1.0167	ITI	n/a	n/a	n/a	n/a	n/a	n/a	n/a	n/a
353.4087	0.5167	FIXCROSS	n/a	n/a	n/a	n/a	n/a	n/a	n/a	n/a
353.9253	0.8	COLOR_NAME	29	Neutral	czerwony	red	Neutral	Neutral	hit	n/a
354.6992	n/a	RESPONSE	n/a	n/a	n/a	n/a	n/a	n/a	n/a	red
354.7254	1.0167	ITI	n/a	n/a	n/a	n/a	n/a	n/a	n/a	n/a
355.742	0.5167	FIXCROSS	n/a	n/a	n/a	n/a	n/a	n/a	n/a	n/a
356.2587	0.7667	COLOR_NAME	30	Incongruent	czerwony	red	zielony	green	hit	n/a
357.0008	n/a	RESPONSE	n/a	n/a	n/a	n/a	n/a	n/a	n/a	red
357.0254	1.0167	ITI	n/a	n/a	n/a	n/a	n/a	n/a	n/a	n/a
358.0421	0.5167	FIXCROSS	n/a	n/a	n/a	n/a	n/a	n/a	n/a	n/a
358.5587	0.65	COLOR_NAME	31	Incongruent	czerwony	red	żółty	yellow	hit	n/a
359.1905	n/a	RESPONSE	n/a	n/a	n/a	n/a	n/a	n/a	n/a	red
359.2087	1.0167	ITI	n/a	n/a	n/a	n/a	n/a	n/a	n/a	n/a
360.2254	0.5167	FIXCROSS	n/a	n/a	n/a	n/a	n/a	n/a	n/a	n/a
360.7421	0.9	COLOR_NAME	32	Neutral	żółty	yellow	Neutral	Neutral	hit	n/a
361.6201	n/a	RESPONSE	n/a	n/a	n/a	n/a	n/a	n/a	n/a	yellow
361.6421	1.0167	ITI	n/a	n/a	n/a	n/a	n/a	n/a	n/a	n/a
362.6588	0.5167	FIXCROSS	n/a	n/a	n/a	n/a	n/a	n/a	n/a	n/a
363.1754	0.7	COLOR_NAME	33	Neutral	zielony	green	Neutral	Neutral	hit	n/a
363.8579	n/a	RESPONSE	n/a	n/a	n/a	n/a	n/a	n/a	n/a	green
363.8754	1.0167	ITI	n/a	n/a	n/a	n/a	n/a	n/a	n/a	n/a
364.8921	0.5167	FIXCROSS	n/a	n/a	n/a	n/a	n/a	n/a	n/a	n/a
365.4088	0.6	COLOR_NAME	34	Neutral	zielony	green	Neutral	Neutral	hit	n/a
365.9837	n/a	RESPONSE	n/a	n/a	n/a	n/a	n/a	n/a	n/a	green
366.0088	1.0167	ITI	n/a	n/a	n/a	n/a	n/a	n/a	n/a	n/a
367.0255	0.5167	FIXCROSS	n/a	n/a	n/a	n/a	n/a	n/a	n/a	n/a
367.5422	0.6	COLOR_NAME	35	Neutral	czerwony	red	Neutral	Neutral	hit	n/a
368.1096	n/a	RESPONSE	n/a	n/a	n/a	n/a	n/a	n/a	n/a	red
368.1422	1.0167	ITI	n/a	n/a	n/a	n/a	n/a	n/a	n/a	n/a
369.1588	0.5167	FIXCROSS	n/a	n/a	n/a	n/a	n/a	n/a	n/a	n/a
369.6755	0.6667	COLOR_NAME	36	Incongruent	zielony	green	niebieski	blue	hit	n/a
370.3153	n/a	RESPONSE	n/a	n/a	n/a	n/a	n/a	n/a	n/a	green
370.3422	1.0167	ITI	n/a	n/a	n/a	n/a	n/a	n/a	n/a	n/a
371.3589	0.5167	FIXCROSS	n/a	n/a	n/a	n/a	n/a	n/a	n/a	n/a
371.8755	0.7333	COLOR_NAME	37	Incongruent	zielony	green	żółty	yellow	hit	n/a
372.5849	n/a	RESPONSE	n/a	n/a	n/a	n/a	n/a	n/a	n/a	green
372.6089	1.0167	ITI	n/a	n/a	n/a	n/a	n/a	n/a	n/a	n/a
373.6256	0.5167	FIXCROSS	n/a	n/a	n/a	n/a	n/a	n/a	n/a	n/a
374.1422	0.7667	COLOR_NAME	38	Incongruent	żółty	yellow	niebieski	blue	hit	n/a
374.8867	n/a	RESPONSE	n/a	n/a	n/a	n/a	n/a	n/a	n/a	yellow
374.9089	1.0167	ITI	n/a	n/a	n/a	n/a	n/a	n/a	n/a	n/a
375.9256	0.5167	FIXCROSS	n/a	n/a	n/a	n/a	n/a	n/a	n/a	n/a
376.4423	0.6	COLOR_NAME	39	Neutral	niebieski	blue	Neutral	Neutral	hit	n/a
377.0125	n/a	RESPONSE	n/a	n/a	n/a	n/a	n/a	n/a	n/a	blue
377.0423	1.0167	ITI	n/a	n/a	n/a	n/a	n/a	n/a	n/a	n/a
378.0589	0.5167	FIXCROSS	n/a	n/a	n/a	n/a	n/a	n/a	n/a	n/a
378.5756	0.65	COLOR_NAME	40	Neutral	żółty	yellow	Neutral	Neutral	hit	n/a
379.2023	n/a	RESPONSE	n/a	n/a	n/a	n/a	n/a	n/a	n/a	yellow
379.2256	1.0167	ITI	n/a	n/a	n/a	n/a	n/a	n/a	n/a	n/a
380.2423	0.5167	FIXCROSS	n/a	n/a	n/a	n/a	n/a	n/a	n/a	n/a
380.759	0.55	COLOR_NAME	41	Neutral	żółty	yellow	Neutral	Neutral	hit	n/a
381.2801	n/a	RESPONSE	n/a	n/a	n/a	n/a	n/a	n/a	n/a	yellow
381.309	1.0167	ITI	n/a	n/a	n/a	n/a	n/a	n/a	n/a	n/a
382.3257	0.5167	FIXCROSS	n/a	n/a	n/a	n/a	n/a	n/a	n/a	n/a
382.8423	0.7333	COLOR_NAME	42	Neutral	niebieski	blue	Neutral	Neutral	hit	n/a
383.5499	n/a	RESPONSE	n/a	n/a	n/a	n/a	n/a	n/a	n/a	blue
383.5757	1.0167	ITI	n/a	n/a	n/a	n/a	n/a	n/a	n/a	n/a
384.5923	0.5167	FIXCROSS	n/a	n/a	n/a	n/a	n/a	n/a	n/a	n/a
385.109	1.0667	COLOR_NAME	43	Incongruent	zielony	green	czerwony	red	hit	n/a
386.1552	n/a	RESPONSE	n/a	n/a	n/a	n/a	n/a	n/a	n/a	green
386.1757	1.0167	ITI	n/a	n/a	n/a	n/a	n/a	n/a	n/a	n/a
387.1924	0.5167	FIXCROSS	n/a	n/a	n/a	n/a	n/a	n/a	n/a	n/a
387.709	0.5833	COLOR_NAME	44	Incongruent	żółty	yellow	zielony	green	hit	n/a
388.2652	n/a	RESPONSE	n/a	n/a	n/a	n/a	n/a	n/a	n/a	yellow
388.2924	1.0167	ITI	n/a	n/a	n/a	n/a	n/a	n/a	n/a	n/a
389.3091	0.5167	FIXCROSS	n/a	n/a	n/a	n/a	n/a	n/a	n/a	n/a
389.8257	0.7	COLOR_NAME	45	Incongruent	niebieski	blue	zielony	green	hit	n/a
390.503	n/a	RESPONSE	n/a	n/a	n/a	n/a	n/a	n/a	n/a	blue
390.5258	1.0167	ITI	n/a	n/a	n/a	n/a	n/a	n/a	n/a	n/a
391.5424	0.5167	FIXCROSS	n/a	n/a	n/a	n/a	n/a	n/a	n/a	n/a
392.0591	0.7833	COLOR_NAME	46	Neutral	zielony	green	Neutral	Neutral	hit	n/a
392.8205	n/a	RESPONSE	n/a	n/a	n/a	n/a	n/a	n/a	n/a	green
392.8424	1.0167	ITI	n/a	n/a	n/a	n/a	n/a	n/a	n/a	n/a
393.8591	0.5167	FIXCROSS	n/a	n/a	n/a	n/a	n/a	n/a	n/a	n/a
394.3758	0.7333	COLOR_NAME	47	Incongruent	zielony	green	czerwony	red	hit	n/a
395.0903	n/a	RESPONSE	n/a	n/a	n/a	n/a	n/a	n/a	n/a	green
395.1091	1.0167	ITI	n/a	n/a	n/a	n/a	n/a	n/a	n/a	n/a
396.1258	0.5167	FIXCROSS	n/a	n/a	n/a	n/a	n/a	n/a	n/a	n/a
396.6425	0.6833	COLOR_NAME	48	Incongruent	czerwony	red	żółty	yellow	hit	n/a
397.296	n/a	RESPONSE	n/a	n/a	n/a	n/a	n/a	n/a	n/a	red
397.3258	1.0167	ITI	n/a	n/a	n/a	n/a	n/a	n/a	n/a	n/a
398.3425	0.5167	FIXCROSS	n/a	n/a	n/a	n/a	n/a	n/a	n/a	n/a
398.8592	0.9333	COLOR_NAME	49	Incongruent	żółty	yellow	czerwony	red	hit	n/a
399.7735	n/a	RESPONSE	n/a	n/a	n/a	n/a	n/a	n/a	n/a	yellow
399.7925	1.0167	ITI	n/a	n/a	n/a	n/a	n/a	n/a	n/a	n/a
400.8092	0.5167	FIXCROSS	n/a	n/a	n/a	n/a	n/a	n/a	n/a	n/a
401.3259	0.7667	COLOR_NAME	50	Neutral	czerwony	red	Neutral	Neutral	hit	n/a
402.0751	n/a	RESPONSE	n/a	n/a	n/a	n/a	n/a	n/a	n/a	red
402.0925	1.0167	ITI	n/a	n/a	n/a	n/a	n/a	n/a	n/a	n/a
403.1092	0.5167	FIXCROSS	n/a	n/a	n/a	n/a	n/a	n/a	n/a	n/a
403.6259	0.9	COLOR_NAME	51	Incongruent	żółty	yellow	zielony	green	hit	n/a
404.5045	n/a	RESPONSE	n/a	n/a	n/a	n/a	n/a	n/a	n/a	yellow
404.5259	1.0167	ITI	n/a	n/a	n/a	n/a	n/a	n/a	n/a	n/a
405.5426	0.5167	FIXCROSS	n/a	n/a	n/a	n/a	n/a	n/a	n/a	n/a
406.0592	1.1	COLOR_NAME	52	Neutral	niebieski	blue	Neutral	Neutral	hit	n/a
407.1259	n/a	RESPONSE	n/a	n/a	n/a	n/a	n/a	n/a	n/a	blue
407.1593	1.0167	ITI	n/a	n/a	n/a	n/a	n/a	n/a	n/a	n/a
408.176	0.5167	FIXCROSS	n/a	n/a	n/a	n/a	n/a	n/a	n/a	n/a
408.6926	0.6334	COLOR_NAME	53	Neutral	czerwony	red	Neutral	Neutral	hit	n/a
409.2997	n/a	RESPONSE	n/a	n/a	n/a	n/a	n/a	n/a	n/a	red
409.326	1.0167	ITI	n/a	n/a	n/a	n/a	n/a	n/a	n/a	n/a
410.3426	0.5167	FIXCROSS	n/a	n/a	n/a	n/a	n/a	n/a	n/a	n/a
410.8593	1.0	COLOR_NAME	54	Neutral	zielony	green	Neutral	Neutral	hit	n/a
411.8252	n/a	RESPONSE	n/a	n/a	n/a	n/a	n/a	n/a	n/a	green
411.8593	1.0167	ITI	n/a	n/a	n/a	n/a	n/a	n/a	n/a	n/a
412.876	0.5167	FIXCROSS	n/a	n/a	n/a	n/a	n/a	n/a	n/a	n/a
413.3927	0.6	COLOR_NAME	55	Neutral	żółty	yellow	Neutral	Neutral	hit	n/a
413.967	n/a	RESPONSE	n/a	n/a	n/a	n/a	n/a	n/a	n/a	yellow
413.9927	1.0167	ITI	n/a	n/a	n/a	n/a	n/a	n/a	n/a	n/a
415.0094	0.5167	FIXCROSS	n/a	n/a	n/a	n/a	n/a	n/a	n/a	n/a
415.526	0.8667	COLOR_NAME	56	Incongruent	niebieski	blue	żółty	yellow	hit	n/a
416.3645	n/a	RESPONSE	n/a	n/a	n/a	n/a	n/a	n/a	n/a	blue
416.3927	1.0167	ITI	n/a	n/a	n/a	n/a	n/a	n/a	n/a	n/a
417.4094	0.5167	FIXCROSS	n/a	n/a	n/a	n/a	n/a	n/a	n/a	n/a
417.9261	2.1167	COLOR_NAME	57	Incongruent	czerwony	red	zielony	green	hit	n/a
420.0087	n/a	RESPONSE	n/a	n/a	n/a	n/a	n/a	n/a	n/a	red
420.0427	1.0167	ITI	n/a	n/a	n/a	n/a	n/a	n/a	n/a	n/a
421.0594	0.5167	FIXCROSS	n/a	n/a	n/a	n/a	n/a	n/a	n/a	n/a
421.5761	0.7667	COLOR_NAME	58	Neutral	czerwony	red	Neutral	Neutral	hit	n/a
422.3105	n/a	RESPONSE	n/a	n/a	n/a	n/a	n/a	n/a	n/a	red
422.3428	1.0167	ITI	n/a	n/a	n/a	n/a	n/a	n/a	n/a	n/a
423.3595	0.5167	FIXCROSS	n/a	n/a	n/a	n/a	n/a	n/a	n/a	n/a
423.8761	0.6833	COLOR_NAME	59	Neutral	zielony	green	Neutral	Neutral	hit	n/a
424.532	n/a	RESPONSE	n/a	n/a	n/a	n/a	n/a	n/a	n/a	green
424.5595	1.0167	ITI	n/a	n/a	n/a	n/a	n/a	n/a	n/a	n/a
425.5761	0.5167	FIXCROSS	n/a	n/a	n/a	n/a	n/a	n/a	n/a	n/a
426.0928	0.9834	COLOR_NAME	60	Incongruent	niebieski	blue	czerwony	red	hit	n/a
427.0575	n/a	RESPONSE	n/a	n/a	n/a	n/a	n/a	n/a	n/a	blue
427.0762	1.0167	ITI	n/a	n/a	n/a	n/a	n/a	n/a	n/a	n/a
428.0928	0.5167	FIXCROSS	n/a	n/a	n/a	n/a	n/a	n/a	n/a	n/a
428.6095	0.6833	COLOR_NAME	61	Incongruent	żółty	yellow	zielony	green	hit	n/a
429.2633	n/a	RESPONSE	n/a	n/a	n/a	n/a	n/a	n/a	n/a	yellow
429.2929	1.0167	ITI	n/a	n/a	n/a	n/a	n/a	n/a	n/a	n/a
430.3095	0.5167	FIXCROSS	n/a	n/a	n/a	n/a	n/a	n/a	n/a	n/a
430.8262	0.75	COLOR_NAME	62	Incongruent	czerwony	red	niebieski	blue	hit	n/a
431.5488	n/a	RESPONSE	n/a	n/a	n/a	n/a	n/a	n/a	n/a	red
431.5762	1.0167	ITI	n/a	n/a	n/a	n/a	n/a	n/a	n/a	n/a
432.5929	0.5167	FIXCROSS	n/a	n/a	n/a	n/a	n/a	n/a	n/a	n/a
433.1096	0.7167	COLOR_NAME	63	Incongruent	niebieski	blue	zielony	green	hit	n/a
433.8026	n/a	RESPONSE	n/a	n/a	n/a	n/a	n/a	n/a	n/a	blue
433.8262	1.0167	ITI	n/a	n/a	n/a	n/a	n/a	n/a	n/a	n/a
434.8429	0.5167	FIXCROSS	n/a	n/a	n/a	n/a	n/a	n/a	n/a	n/a
435.3596	0.7333	COLOR_NAME	64	Incongruent	żółty	yellow	czerwony	red	hit	n/a
436.0722	n/a	RESPONSE	n/a	n/a	n/a	n/a	n/a	n/a	n/a	yellow
436.0929	1.0167	ITI	n/a	n/a	n/a	n/a	n/a	n/a	n/a	n/a
437.1096	0.5167	FIXCROSS	n/a	n/a	n/a	n/a	n/a	n/a	n/a	n/a
437.6263	0.9	COLOR_NAME	65	Neutral	zielony	green	Neutral	Neutral	hit	n/a
438.5018	n/a	RESPONSE	n/a	n/a	n/a	n/a	n/a	n/a	n/a	green
438.5263	1.0167	ITI	n/a	n/a	n/a	n/a	n/a	n/a	n/a	n/a
439.543	0.5167	FIXCROSS	n/a	n/a	n/a	n/a	n/a	n/a	n/a	n/a
440.0596	0.6333	COLOR_NAME	66	Neutral	zielony	green	Neutral	Neutral	hit	n/a
440.6596	n/a	RESPONSE	n/a	n/a	n/a	n/a	n/a	n/a	n/a	green
440.693	1.0167	ITI	n/a	n/a	n/a	n/a	n/a	n/a	n/a	n/a
441.7097	0.5167	FIXCROSS	n/a	n/a	n/a	n/a	n/a	n/a	n/a	n/a
442.2263	0.5	COLOR_NAME	67	Incongruent	zielony	green	niebieski	blue	hit	n/a
442.7054	n/a	RESPONSE	n/a	n/a	n/a	n/a	n/a	n/a	n/a	green
442.7263	1.0167	ITI	n/a	n/a	n/a	n/a	n/a	n/a	n/a	n/a
443.743	0.5167	FIXCROSS	n/a	n/a	n/a	n/a	n/a	n/a	n/a	n/a
444.2597	0.5	COLOR_NAME	68	Incongruent	zielony	green	żółty	yellow	hit	n/a
444.7354	n/a	RESPONSE	n/a	n/a	n/a	n/a	n/a	n/a	n/a	green
444.7597	1.0167	ITI	n/a	n/a	n/a	n/a	n/a	n/a	n/a	n/a
445.7764	0.5167	FIXCROSS	n/a	n/a	n/a	n/a	n/a	n/a	n/a	n/a
446.293	0.9	COLOR_NAME	69	Neutral	żółty	yellow	Neutral	Neutral	hit	n/a
447.1649	n/a	RESPONSE	n/a	n/a	n/a	n/a	n/a	n/a	n/a	yellow
447.1931	1.0167	ITI	n/a	n/a	n/a	n/a	n/a	n/a	n/a	n/a
448.2097	0.5167	FIXCROSS	n/a	n/a	n/a	n/a	n/a	n/a	n/a	n/a
448.7264	0.8167	COLOR_NAME	70	Neutral	niebieski	blue	Neutral	Neutral	hit	n/a
449.5144	n/a	RESPONSE	n/a	n/a	n/a	n/a	n/a	n/a	n/a	blue
449.5431	1.0167	ITI	n/a	n/a	n/a	n/a	n/a	n/a	n/a	n/a
450.5598	0.5167	FIXCROSS	n/a	n/a	n/a	n/a	n/a	n/a	n/a	n/a
451.0764	0.5333	COLOR_NAME	71	Neutral	niebieski	blue	Neutral	Neutral	hit	n/a
451.5764	n/a	RESPONSE	n/a	n/a	n/a	n/a	n/a	n/a	n/a	blue
451.6098	1.0167	ITI	n/a	n/a	n/a	n/a	n/a	n/a	n/a	n/a
452.6264	0.5167	FIXCROSS	n/a	n/a	n/a	n/a	n/a	n/a	n/a	n/a
453.1431	0.6667	COLOR_NAME	72	Incongruent	zielony	green	niebieski	blue	hit	n/a
453.7822	n/a	RESPONSE	n/a	n/a	n/a	n/a	n/a	n/a	n/a	green
453.8098	1.0334	ITI	n/a	n/a	n/a	n/a	n/a	n/a	n/a	n/a
457.4746	n/a	RESPONSE	n/a	n/a	n/a	n/a	n/a	n/a	n/a	n/a
