onset	duration	trial_type	braille_stimulus	targets	response_count
2.017	2.008	CUE_6_DOT	n/a	n/a	n/a
7.017	1.008	FIXCROSS	n/a	n/a	n/a
8.034	5.008	6_DOT_DETECTION	C#CEŁ	1	n/a
13.068	1.008	FIXCROSS	n/a	n/a	n/a
14.084	5.008	6_DOT_DETECTION	ITŁEM	0	n/a
19.118	1.008	FIXCROSS	n/a	n/a	n/a
20.134	5.009	6_DOT_DETECTION	TEK##	2	n/a
23.336	n/a	RESPONSE	n/a	n/a	1/2
24.696	n/a	RESPONSE	n/a	n/a	2/2
25.168	1.008	FIXCROSS	n/a	n/a	n/a
26.184	5.008	6_DOT_DETECTION	O#LAS	1	n/a
27.84	n/a	RESPONSE	n/a	n/a	1/1
31.218	1.008	FIXCROSS	n/a	n/a	n/a
32.234	5.008	6_DOT_DETECTION	KOP#M	1	n/a
35.56	n/a	RESPONSE	n/a	n/a	1/1
37.268	1.008	FIXCROSS	n/a	n/a	n/a
38.284	5.008	6_DOT_DETECTION	SB#OL	1	n/a
40.456	n/a	RESPONSE	n/a	n/a	1/1
43.318	1.008	FIXCROSS	n/a	n/a	n/a
44.334	5.008	6_DOT_DETECTION	##KAT	2	n/a
45.4	n/a	RESPONSE	n/a	n/a	1/2
46.736	n/a	RESPONSE	n/a	n/a	2/2
49.368	1.008	FIXCROSS	n/a	n/a	n/a
50.384	5.008	6_DOT_DETECTION	DTIDI	0	n/a
57.426	2.008	CUE_REST	n/a	n/a	n/a
62.426	1.008	FIXCROSS	n/a	n/a	n/a
68.476	1.008	FIXCROSS	n/a	n/a	n/a
75.534	2.008	CUE_6_DOT	n/a	n/a	n/a
80.534	1.008	FIXCROSS	n/a	n/a	n/a
81.551	5.008	6_DOT_DETECTION	BUT##	2	n/a
84.376	n/a	RESPONSE	n/a	n/a	1/2
85.6	n/a	RESPONSE	n/a	n/a	2/2
86.584	1.008	FIXCROSS	n/a	n/a	n/a
87.6	5.009	6_DOT_DETECTION	APD#C	1	n/a
90.296	n/a	RESPONSE	n/a	n/a	1/1
92.634	1.008	FIXCROSS	n/a	n/a	n/a
93.651	5.008	6_DOT_DETECTION	EUBEC	0	n/a
98.684	1.008	FIXCROSS	n/a	n/a	n/a
99.701	5.008	6_DOT_DETECTION	KMŁKM	0	n/a
104.734	1.008	FIXCROSS	n/a	n/a	n/a
105.751	5.008	6_DOT_DETECTION	#PSU#	2	n/a
107.936	n/a	RESPONSE	n/a	n/a	1/2
110.784	1.008	FIXCROSS	n/a	n/a	n/a
110.976	n/a	RESPONSE	n/a	n/a	2/2
111.801	5.008	6_DOT_DETECTION	PMSKK	0	n/a
116.834	1.008	FIXCROSS	n/a	n/a	n/a
117.851	5.009	6_DOT_DETECTION	T#BUD	1	n/a
119.92	n/a	RESPONSE	n/a	n/a	1/1
122.884	1.008	FIXCROSS	n/a	n/a	n/a
123.901	5.008	6_DOT_DETECTION	#KMBŁ	1	n/a
125.256	n/a	RESPONSE	n/a	n/a	1/1
130.443	2.008	CUE_REST	n/a	n/a	n/a
136.943	1.008	FIXCROSS	n/a	n/a	n/a
142.993	1.008	FIXCROSS	n/a	n/a	n/a
150.551	2.008	CUE_6_DOT	n/a	n/a	n/a
157.051	1.008	FIXCROSS	n/a	n/a	n/a
158.067	5.009	6_DOT_DETECTION	A#ŁAP	1	n/a
159.88	n/a	RESPONSE	n/a	n/a	1/1
163.101	1.008	FIXCROSS	n/a	n/a	n/a
164.118	5.008	6_DOT_DETECTION	TYŁ##	2	n/a
166.2	n/a	RESPONSE	n/a	n/a	1/2
167.84	n/a	RESPONSE	n/a	n/a	2/2
169.151	1.008	FIXCROSS	n/a	n/a	n/a
169.32	n/a	RESPONSE	n/a	n/a	3/2
170.168	5.008	6_DOT_DETECTION	TOK##	2	n/a
173.44	n/a	RESPONSE	n/a	n/a	1/2
174.336	n/a	RESPONSE	n/a	n/a	2/2
175.201	1.008	FIXCROSS	n/a	n/a	n/a
176.218	5.009	6_DOT_DETECTION	DBA#C	1	n/a
180.08	n/a	RESPONSE	n/a	n/a	1/1
181.251	1.008	FIXCROSS	n/a	n/a	n/a
182.268	5.008	6_DOT_DETECTION	KTIŁŁ	0	n/a
187.301	1.008	FIXCROSS	n/a	n/a	n/a
188.318	5.008	6_DOT_DETECTION	BLCLK	0	n/a
193.351	1.008	FIXCROSS	n/a	n/a	n/a
194.368	5.008	6_DOT_DETECTION	ESY##	2	n/a
196.96	n/a	RESPONSE	n/a	n/a	1/2
198.216	n/a	RESPONSE	n/a	n/a	2/2
199.401	1.008	FIXCROSS	n/a	n/a	n/a
199.496	n/a	RESPONSE	n/a	n/a	3/2
200.418	5.008	6_DOT_DETECTION	STO#E	1	n/a
203.856	n/a	RESPONSE	n/a	n/a	1/1
206.96	2.008	CUE_REST	n/a	n/a	n/a
211.46	1.008	FIXCROSS	n/a	n/a	n/a
217.51	1.008	FIXCROSS	n/a	n/a	n/a
225.568	2.008	CUE_6_DOT	n/a	n/a	n/a
231.568	1.008	FIXCROSS	n/a	n/a	n/a
232.585	5.008	6_DOT_DETECTION	#ULE#	2	n/a
234.696	n/a	RESPONSE	n/a	n/a	1/2
237.336	n/a	RESPONSE	n/a	n/a	2/2
237.618	1.008	FIXCROSS	n/a	n/a	n/a
238.634	5.009	6_DOT_DETECTION	#SAD#	2	n/a
240.376	n/a	RESPONSE	n/a	n/a	1/2
242.92	n/a	RESPONSE	n/a	n/a	2/2
243.668	1.008	FIXCROSS	n/a	n/a	n/a
244.685	5.008	6_DOT_DETECTION	AŁDLK	0	n/a
249.718	1.008	FIXCROSS	n/a	n/a	n/a
250.735	5.008	6_DOT_DETECTION	##PYŁ	2	n/a
252.016	n/a	RESPONSE	n/a	n/a	1/2
253.2	n/a	RESPONSE	n/a	n/a	2/2
254.856	n/a	RESPONSE	n/a	n/a	3/2
255.768	1.008	FIXCROSS	n/a	n/a	n/a
256.785	5.008	6_DOT_DETECTION	ŁPPTY	0	n/a
260.776	n/a	RESPONSE	n/a	n/a	1/0
261.818	1.008	FIXCROSS	n/a	n/a	n/a
262.835	5.008	6_DOT_DETECTION	ŁY#SE	1	n/a
264.92	n/a	RESPONSE	n/a	n/a	1/1
267.868	1.008	FIXCROSS	n/a	n/a	n/a
268.885	5.008	6_DOT_DETECTION	CIKUE	0	n/a
273.918	1.008	FIXCROSS	n/a	n/a	n/a
274.935	5.008	6_DOT_DETECTION	P#ŁUY	1	n/a
277.176	n/a	RESPONSE	n/a	n/a	1/1
280.056	n/a	RESPONSE	n/a	n/a	2/1
281.977	2.008	CUE_REST	n/a	n/a	n/a
285.977	1.008	FIXCROSS	n/a	n/a	n/a
292.027	1.008	FIXCROSS	n/a	n/a	n/a
299.585	2.008	CUE_6_DOT	n/a	n/a	n/a
305.085	1.008	FIXCROSS	n/a	n/a	n/a
306.101	5.009	6_DOT_DETECTION	LLACB	0	n/a
311.135	1.008	FIXCROSS	n/a	n/a	n/a
312.151	5.009	6_DOT_DETECTION	OAICU	0	n/a
317.185	1.008	FIXCROSS	n/a	n/a	n/a
318.202	5.008	6_DOT_DETECTION	#MIS#	2	n/a
319.576	n/a	RESPONSE	n/a	n/a	1/2
323.12	n/a	RESPONSE	n/a	n/a	2/2
323.235	1.008	FIXCROSS	n/a	n/a	n/a
324.251	5.009	6_DOT_DETECTION	ŁCDCA	0	n/a
329.285	1.008	FIXCROSS	n/a	n/a	n/a
330.301	5.009	6_DOT_DETECTION	Y#LEK	1	n/a
332.536	n/a	RESPONSE	n/a	n/a	1/1
335.335	1.008	FIXCROSS	n/a	n/a	n/a
336.351	5.009	6_DOT_DETECTION	TAK#P	1	n/a
339.976	n/a	RESPONSE	n/a	n/a	1/1
341.385	1.008	FIXCROSS	n/a	n/a	n/a
342.402	5.008	6_DOT_DETECTION	LSC##	2	n/a
345.776	n/a	RESPONSE	n/a	n/a	1/2
347.0	n/a	RESPONSE	n/a	n/a	2/2
347.435	1.008	FIXCROSS	n/a	n/a	n/a
348.452	5.008	6_DOT_DETECTION	BSEBL	0	n/a
354.494	2.008	CUE_REST	n/a	n/a	n/a
360.494	1.008	FIXCROSS	n/a	n/a	n/a
366.544	1.008	FIXCROSS	n/a	n/a	n/a
373.602	2.008	CUE_6_DOT	n/a	n/a	n/a
378.602	1.008	FIXCROSS	n/a	n/a	n/a
379.619	5.008	6_DOT_DETECTION	#DAT#	2	n/a
384.296	n/a	RESPONSE	n/a	n/a	1/2
384.652	1.008	FIXCROSS	n/a	n/a	n/a
385.669	5.008	6_DOT_DETECTION	YEAAK	0	n/a
390.702	1.008	FIXCROSS	n/a	n/a	n/a
391.719	5.008	6_DOT_DETECTION	##IEY	2	n/a
392.856	n/a	RESPONSE	n/a	n/a	1/2
394.496	n/a	RESPONSE	n/a	n/a	2/2
396.752	1.008	FIXCROSS	n/a	n/a	n/a
396.832	n/a	RESPONSE	n/a	n/a	3/2
397.769	5.008	6_DOT_DETECTION	SOK#Ł	1	n/a
400.896	n/a	RESPONSE	n/a	n/a	1/1
402.802	1.008	FIXCROSS	n/a	n/a	n/a
403.819	5.008	6_DOT_DETECTION	##MAK	2	n/a
405.576	n/a	RESPONSE	n/a	n/a	1/2
406.656	n/a	RESPONSE	n/a	n/a	2/2
408.852	1.008	FIXCROSS	n/a	n/a	n/a
409.869	5.008	6_DOT_DETECTION	OYŁ#Ł	1	n/a
413.752	n/a	RESPONSE	n/a	n/a	1/1
414.902	1.008	FIXCROSS	n/a	n/a	n/a
415.918	5.009	6_DOT_DETECTION	##POP	2	n/a
417.736	n/a	RESPONSE	n/a	n/a	1/2
418.992	n/a	RESPONSE	n/a	n/a	2/2
420.952	1.008	FIXCROSS	n/a	n/a	n/a
421.969	5.008	6_DOT_DETECTION	ŁSCPT	0	n/a
428.01	2.008	CUE_REST	n/a	n/a	n/a
435.01	1.008	FIXCROSS	n/a	n/a	n/a
441.06	1.008	FIXCROSS	n/a	n/a	n/a
