onset	duration	trial_type	trial_number	stroop_condition	stim_text(PL)	stim_text(eng)	stim_color(PL)	stim_color(eng)	response_type	response_color
0.0	n/a	RESPONSE	n/a	n/a	n/a	n/a	n/a	n/a	n/a	n/a
0.0585	1.0334	ITI	n/a	n/a	n/a	n/a	n/a	n/a	n/a	n/a
1.0919	0.5166	FIXCROSS	n/a	n/a	n/a	n/a	n/a	n/a	n/a	n/a
1.6085	1.2	T_INK	1	Neutral	xxxxxxxxx	xxxxxxxxx	zielony	green	hit	n/a
2.7779	n/a	RESPONSE	n/a	n/a	n/a	n/a	n/a	n/a	n/a	green
2.8085	0.5167	FEEDBACK	n/a	n/a	n/a	n/a	n/a	n/a	n/a	n/a
3.3252	1.0167	ITI	n/a	n/a	n/a	n/a	n/a	n/a	n/a	n/a
4.3419	0.5166	FIXCROSS	n/a	n/a	n/a	n/a	n/a	n/a	n/a	n/a
4.8585	1.6834	T_INK	2	Incongruent	czerwony	red	zielony	green	incorrect	n/a
6.5134	n/a	RESPONSE	n/a	n/a	n/a	n/a	n/a	n/a	n/a	red
6.5419	0.5167	FEEDBACK	n/a	n/a	n/a	n/a	n/a	n/a	n/a	n/a
7.0586	1.0167	ITI	n/a	n/a	n/a	n/a	n/a	n/a	n/a	n/a
8.0753	0.5167	FIXCROSS	n/a	n/a	n/a	n/a	n/a	n/a	n/a	n/a
8.5919	2.5	T_INK	3	Incongruent	żółty	yellow	czerwony	red	hit	n/a
11.0633	n/a	RESPONSE	n/a	n/a	n/a	n/a	n/a	n/a	n/a	red
11.0919	0.5167	FEEDBACK	n/a	n/a	n/a	n/a	n/a	n/a	n/a	n/a
11.6086	1.0167	ITI	n/a	n/a	n/a	n/a	n/a	n/a	n/a	n/a
12.6253	0.5167	FIXCROSS	n/a	n/a	n/a	n/a	n/a	n/a	n/a	n/a
13.142	0.9167	T_INK	4	Neutral	xxxxxxxxx	xxxxxxxxx	żółty	yellow	hit	n/a
14.0327	n/a	RESPONSE	n/a	n/a	n/a	n/a	n/a	n/a	n/a	yellow
14.0586	0.5167	FEEDBACK	n/a	n/a	n/a	n/a	n/a	n/a	n/a	n/a
14.5753	1.0167	ITI	n/a	n/a	n/a	n/a	n/a	n/a	n/a	n/a
15.592	0.5167	FIXCROSS	n/a	n/a	n/a	n/a	n/a	n/a	n/a	n/a
16.1087	1.25	T_INK	5	Incongruent	żółty	yellow	niebieski	blue	hit	n/a
17.3373	n/a	RESPONSE	n/a	n/a	n/a	n/a	n/a	n/a	n/a	blue
17.3587	0.5167	FEEDBACK	n/a	n/a	n/a	n/a	n/a	n/a	n/a	n/a
17.8753	1.0167	ITI	n/a	n/a	n/a	n/a	n/a	n/a	n/a	n/a
18.892	0.5167	FIXCROSS	n/a	n/a	n/a	n/a	n/a	n/a	n/a	n/a
19.4087	0.9167	T_INK	6	Incongruent	żółty	yellow	zielony	green	hit	n/a
20.2908	n/a	RESPONSE	n/a	n/a	n/a	n/a	n/a	n/a	n/a	green
20.3254	0.5167	FEEDBACK	n/a	n/a	n/a	n/a	n/a	n/a	n/a	n/a
20.842	1.0166	ITI	n/a	n/a	n/a	n/a	n/a	n/a	n/a	n/a
21.8587	0.5167	FIXCROSS	n/a	n/a	n/a	n/a	n/a	n/a	n/a	n/a
22.3753	0.9834	T_INK	7	Neutral	xxxxx	xxxxx	czerwony	red	hit	n/a
23.3399	n/a	RESPONSE	n/a	n/a	n/a	n/a	n/a	n/a	n/a	red
23.3587	0.5167	FEEDBACK	n/a	n/a	n/a	n/a	n/a	n/a	n/a	n/a
23.8754	1.0167	ITI	n/a	n/a	n/a	n/a	n/a	n/a	n/a	n/a
24.892	0.5167	FIXCROSS	n/a	n/a	n/a	n/a	n/a	n/a	n/a	n/a
25.4087	0.9167	T_INK	8	Incongruent	zielony	green	niebieski	blue	hit	n/a
26.2933	n/a	RESPONSE	n/a	n/a	n/a	n/a	n/a	n/a	n/a	blue
26.3254	0.5167	FEEDBACK	n/a	n/a	n/a	n/a	n/a	n/a	n/a	n/a
26.8421	1.0167	ITI	n/a	n/a	n/a	n/a	n/a	n/a	n/a	n/a
27.8588	0.5166	FIXCROSS	n/a	n/a	n/a	n/a	n/a	n/a	n/a	n/a
28.3754	0.7167	T_INK	9	Incongruent	niebieski	blue	zielony	green	hit	n/a
29.0712	n/a	RESPONSE	n/a	n/a	n/a	n/a	n/a	n/a	n/a	green
29.0921	0.5167	FEEDBACK	n/a	n/a	n/a	n/a	n/a	n/a	n/a	n/a
29.6087	1.0167	ITI	n/a	n/a	n/a	n/a	n/a	n/a	n/a	n/a
30.6254	0.5167	FIXCROSS	n/a	n/a	n/a	n/a	n/a	n/a	n/a	n/a
31.1421	0.8	T_INK	10	Neutral	xxxxxxx	xxxxxxx	niebieski	blue	hit	n/a
31.9128	n/a	RESPONSE	n/a	n/a	n/a	n/a	n/a	n/a	n/a	blue
31.9421	0.5167	FEEDBACK	n/a	n/a	n/a	n/a	n/a	n/a	n/a	n/a
32.4588	1.0167	ITI	n/a	n/a	n/a	n/a	n/a	n/a	n/a	n/a
33.4754	0.5167	FIXCROSS	n/a	n/a	n/a	n/a	n/a	n/a	n/a	n/a
33.9921	0.7334	T_INK	11	Neutral	xxxxx	xxxxx	zielony	green	hit	n/a
34.6906	n/a	RESPONSE	n/a	n/a	n/a	n/a	n/a	n/a	n/a	green
34.7255	0.5167	FEEDBACK	n/a	n/a	n/a	n/a	n/a	n/a	n/a	n/a
35.2421	1.0167	ITI	n/a	n/a	n/a	n/a	n/a	n/a	n/a	n/a
36.2588	0.5167	FIXCROSS	n/a	n/a	n/a	n/a	n/a	n/a	n/a	n/a
36.7755	0.7167	T_INK	12	Neutral	xxxxx	xxxxx	niebieski	blue	hit	n/a
37.4685	n/a	RESPONSE	n/a	n/a	n/a	n/a	n/a	n/a	n/a	blue
37.4921	0.5166	FEEDBACK	n/a	n/a	n/a	n/a	n/a	n/a	n/a	n/a
38.0088	1.0333	ITI	n/a	n/a	n/a	n/a	n/a	n/a	n/a	n/a
48.755	n/a	RESPONSE	n/a	n/a	n/a	n/a	n/a	n/a	n/a	n/a
48.8256	1.0167	ITI	n/a	n/a	n/a	n/a	n/a	n/a	n/a	n/a
49.8422	0.5167	FIXCROSS	n/a	n/a	n/a	n/a	n/a	n/a	n/a	n/a
50.3589	0.7833	INK	1	Incongruent	czerwony	red	zielony	green	hit	n/a
51.1179	n/a	RESPONSE	n/a	n/a	n/a	n/a	n/a	n/a	n/a	green
51.1422	1.0166	ITI	n/a	n/a	n/a	n/a	n/a	n/a	n/a	n/a
52.1589	0.5167	FIXCROSS	n/a	n/a	n/a	n/a	n/a	n/a	n/a	n/a
52.6756	0.6667	INK	2	Neutral	xxxxxxxxx	xxxxxxxxx	zielony	green	hit	n/a
53.3209	n/a	RESPONSE	n/a	n/a	n/a	n/a	n/a	n/a	n/a	green
53.3423	1.0166	ITI	n/a	n/a	n/a	n/a	n/a	n/a	n/a	n/a
54.3589	0.5167	FIXCROSS	n/a	n/a	n/a	n/a	n/a	n/a	n/a	n/a
54.8756	0.75	INK	3	Neutral	xxxxxxx	xxxxxxx	niebieski	blue	hit	n/a
55.6039	n/a	RESPONSE	n/a	n/a	n/a	n/a	n/a	n/a	n/a	blue
55.6256	1.0167	ITI	n/a	n/a	n/a	n/a	n/a	n/a	n/a	n/a
56.6423	0.5167	FIXCROSS	n/a	n/a	n/a	n/a	n/a	n/a	n/a	n/a
57.159	0.6666	INK	4	Neutral	xxxxxxx	xxxxxxx	czerwony	red	hit	n/a
57.807	n/a	RESPONSE	n/a	n/a	n/a	n/a	n/a	n/a	n/a	red
57.8256	1.0167	ITI	n/a	n/a	n/a	n/a	n/a	n/a	n/a	n/a
58.8423	0.5167	FIXCROSS	n/a	n/a	n/a	n/a	n/a	n/a	n/a	n/a
59.3589	0.7667	INK	5	Incongruent	żółty	yellow	czerwony	red	hit	n/a
60.1058	n/a	RESPONSE	n/a	n/a	n/a	n/a	n/a	n/a	n/a	red
60.1256	1.0167	ITI	n/a	n/a	n/a	n/a	n/a	n/a	n/a	n/a
61.1423	0.5166	FIXCROSS	n/a	n/a	n/a	n/a	n/a	n/a	n/a	n/a
61.659	0.7333	INK	6	Neutral	xxxxxxxxx	xxxxxxxxx	zielony	green	hit	n/a
62.3727	n/a	RESPONSE	n/a	n/a	n/a	n/a	n/a	n/a	n/a	green
62.3923	1.0167	ITI	n/a	n/a	n/a	n/a	n/a	n/a	n/a	n/a
63.409	0.5167	FIXCROSS	n/a	n/a	n/a	n/a	n/a	n/a	n/a	n/a
63.9257	0.65	INK	7	Incongruent	czerwony	red	żółty	yellow	hit	n/a
64.5439	n/a	RESPONSE	n/a	n/a	n/a	n/a	n/a	n/a	n/a	yellow
64.5757	1.0167	ITI	n/a	n/a	n/a	n/a	n/a	n/a	n/a	n/a
65.5923	0.5167	FIXCROSS	n/a	n/a	n/a	n/a	n/a	n/a	n/a	n/a
66.109	0.6333	INK	8	Neutral	xxxxxxxx	xxxxxxxx	zielony	green	hit	n/a
66.7151	n/a	RESPONSE	n/a	n/a	n/a	n/a	n/a	n/a	n/a	green
66.7424	1.0167	ITI	n/a	n/a	n/a	n/a	n/a	n/a	n/a	n/a
67.759	0.5166	FIXCROSS	n/a	n/a	n/a	n/a	n/a	n/a	n/a	n/a
68.2757	0.6334	INK	9	Incongruent	niebieski	blue	czerwony	red	hit	n/a
68.8862	n/a	RESPONSE	n/a	n/a	n/a	n/a	n/a	n/a	n/a	red
68.909	1.0167	ITI	n/a	n/a	n/a	n/a	n/a	n/a	n/a	n/a
69.9257	0.5167	FIXCROSS	n/a	n/a	n/a	n/a	n/a	n/a	n/a	n/a
70.4424	0.6834	INK	10	Incongruent	zielony	green	czerwony	red	hit	n/a
71.1053	n/a	RESPONSE	n/a	n/a	n/a	n/a	n/a	n/a	n/a	red
71.1257	1.0167	ITI	n/a	n/a	n/a	n/a	n/a	n/a	n/a	n/a
72.1424	0.5167	FIXCROSS	n/a	n/a	n/a	n/a	n/a	n/a	n/a	n/a
72.6591	0.5833	INK	11	Neutral	xxxxxxxxx	xxxxxxxxx	zielony	green	hit	n/a
73.2125	n/a	RESPONSE	n/a	n/a	n/a	n/a	n/a	n/a	n/a	green
73.2424	1.0167	ITI	n/a	n/a	n/a	n/a	n/a	n/a	n/a	n/a
74.2591	0.5167	FIXCROSS	n/a	n/a	n/a	n/a	n/a	n/a	n/a	n/a
74.7757	0.6667	INK	12	Incongruent	czerwony	red	zielony	green	hit	n/a
75.4157	n/a	RESPONSE	n/a	n/a	n/a	n/a	n/a	n/a	n/a	green
75.4424	1.0167	ITI	n/a	n/a	n/a	n/a	n/a	n/a	n/a	n/a
76.4591	0.5167	FIXCROSS	n/a	n/a	n/a	n/a	n/a	n/a	n/a	n/a
76.9758	0.4167	INK	13	Neutral	xxxxxxxx	xxxxxxxx	żółty	yellow	hit	n/a
77.3633	n/a	RESPONSE	n/a	n/a	n/a	n/a	n/a	n/a	n/a	yellow
77.3924	1.0167	ITI	n/a	n/a	n/a	n/a	n/a	n/a	n/a	n/a
78.4091	0.5167	FIXCROSS	n/a	n/a	n/a	n/a	n/a	n/a	n/a	n/a
78.9258	0.7666	INK	14	Incongruent	niebieski	blue	zielony	green	hit	n/a
79.6622	n/a	RESPONSE	n/a	n/a	n/a	n/a	n/a	n/a	n/a	green
79.6924	1.0167	ITI	n/a	n/a	n/a	n/a	n/a	n/a	n/a	n/a
80.7091	0.5167	FIXCROSS	n/a	n/a	n/a	n/a	n/a	n/a	n/a	n/a
81.2258	0.85	INK	15	Incongruent	zielony	green	niebieski	blue	hit	n/a
82.0569	n/a	RESPONSE	n/a	n/a	n/a	n/a	n/a	n/a	n/a	blue
82.0758	1.0167	ITI	n/a	n/a	n/a	n/a	n/a	n/a	n/a	n/a
83.0924	0.5167	FIXCROSS	n/a	n/a	n/a	n/a	n/a	n/a	n/a	n/a
83.6091	0.7166	INK	16	Incongruent	niebieski	blue	żółty	yellow	hit	n/a
84.3079	n/a	RESPONSE	n/a	n/a	n/a	n/a	n/a	n/a	n/a	yellow
84.3258	1.0167	ITI	n/a	n/a	n/a	n/a	n/a	n/a	n/a	n/a
85.3425	0.5167	FIXCROSS	n/a	n/a	n/a	n/a	n/a	n/a	n/a	n/a
85.8592	0.7	INK	17	Incongruent	niebieski	blue	czerwony	red	hit	n/a
86.527	n/a	RESPONSE	n/a	n/a	n/a	n/a	n/a	n/a	n/a	red
86.5592	1.0167	ITI	n/a	n/a	n/a	n/a	n/a	n/a	n/a	n/a
87.5758	0.5167	FIXCROSS	n/a	n/a	n/a	n/a	n/a	n/a	n/a	n/a
88.0925	0.7167	INK	18	Incongruent	żółty	yellow	niebieski	blue	hit	n/a
88.7778	n/a	RESPONSE	n/a	n/a	n/a	n/a	n/a	n/a	n/a	blue
88.8092	1.0167	ITI	n/a	n/a	n/a	n/a	n/a	n/a	n/a	n/a
89.8259	0.5166	FIXCROSS	n/a	n/a	n/a	n/a	n/a	n/a	n/a	n/a
90.3425	0.6667	INK	19	Incongruent	żółty	yellow	czerwony	red	hit	n/a
90.9809	n/a	RESPONSE	n/a	n/a	n/a	n/a	n/a	n/a	n/a	red
91.0092	1.0167	ITI	n/a	n/a	n/a	n/a	n/a	n/a	n/a	n/a
92.0259	0.5166	FIXCROSS	n/a	n/a	n/a	n/a	n/a	n/a	n/a	n/a
92.5425	0.5667	INK	20	Neutral	xxxxxxxxx	xxxxxxxxx	czerwony	red	hit	n/a
93.0883	n/a	RESPONSE	n/a	n/a	n/a	n/a	n/a	n/a	n/a	red
93.1092	1.0167	ITI	n/a	n/a	n/a	n/a	n/a	n/a	n/a	n/a
94.1259	0.5166	FIXCROSS	n/a	n/a	n/a	n/a	n/a	n/a	n/a	n/a
94.6425	0.6833	INK	21	Incongruent	zielony	green	żółty	yellow	hit	n/a
95.3074	n/a	RESPONSE	n/a	n/a	n/a	n/a	n/a	n/a	n/a	yellow
95.3259	1.0167	ITI	n/a	n/a	n/a	n/a	n/a	n/a	n/a	n/a
96.3425	0.5167	FIXCROSS	n/a	n/a	n/a	n/a	n/a	n/a	n/a	n/a
96.8592	0.5333	INK	22	Incongruent	zielony	green	niebieski	blue	hit	n/a
97.3667	n/a	RESPONSE	n/a	n/a	n/a	n/a	n/a	n/a	n/a	blue
97.3925	1.0167	ITI	n/a	n/a	n/a	n/a	n/a	n/a	n/a	n/a
98.4093	0.5167	FIXCROSS	n/a	n/a	n/a	n/a	n/a	n/a	n/a	n/a
98.9259	0.7	INK	23	Incongruent	niebieski	blue	żółty	yellow	hit	n/a
99.6018	n/a	RESPONSE	n/a	n/a	n/a	n/a	n/a	n/a	n/a	yellow
99.6259	1.0167	ITI	n/a	n/a	n/a	n/a	n/a	n/a	n/a	n/a
100.6426	0.5167	FIXCROSS	n/a	n/a	n/a	n/a	n/a	n/a	n/a	n/a
101.1593	0.7667	INK	24	Incongruent	żółty	yellow	czerwony	red	hit	n/a
101.9007	n/a	RESPONSE	n/a	n/a	n/a	n/a	n/a	n/a	n/a	red
101.9259	1.0167	ITI	n/a	n/a	n/a	n/a	n/a	n/a	n/a	n/a
102.9426	0.5167	FIXCROSS	n/a	n/a	n/a	n/a	n/a	n/a	n/a	n/a
103.4593	0.6333	INK	25	Neutral	xxxxx	xxxxx	zielony	green	hit	n/a
104.0719	n/a	RESPONSE	n/a	n/a	n/a	n/a	n/a	n/a	n/a	green
104.0926	1.0167	ITI	n/a	n/a	n/a	n/a	n/a	n/a	n/a	n/a
105.1093	0.5166	FIXCROSS	n/a	n/a	n/a	n/a	n/a	n/a	n/a	n/a
105.6259	0.8834	INK	26	Neutral	xxxxx	xxxxx	czerwony	red	hit	n/a
106.4825	n/a	RESPONSE	n/a	n/a	n/a	n/a	n/a	n/a	n/a	red
106.5093	1.0166	ITI	n/a	n/a	n/a	n/a	n/a	n/a	n/a	n/a
107.5259	0.5167	FIXCROSS	n/a	n/a	n/a	n/a	n/a	n/a	n/a	n/a
108.0426	0.65	INK	27	Incongruent	żółty	yellow	niebieski	blue	hit	n/a
108.6696	n/a	RESPONSE	n/a	n/a	n/a	n/a	n/a	n/a	n/a	blue
108.6927	1.0166	ITI	n/a	n/a	n/a	n/a	n/a	n/a	n/a	n/a
109.7093	0.5167	FIXCROSS	n/a	n/a	n/a	n/a	n/a	n/a	n/a	n/a
110.226	0.6333	INK	28	Neutral	xxxxxxx	xxxxxxx	żółty	yellow	hit	n/a
110.8408	n/a	RESPONSE	n/a	n/a	n/a	n/a	n/a	n/a	n/a	yellow
110.8593	1.0167	ITI	n/a	n/a	n/a	n/a	n/a	n/a	n/a	n/a
111.876	0.5166	FIXCROSS	n/a	n/a	n/a	n/a	n/a	n/a	n/a	n/a
112.3926	0.6834	INK	29	Incongruent	zielony	green	czerwony	red	hit	n/a
113.0438	n/a	RESPONSE	n/a	n/a	n/a	n/a	n/a	n/a	n/a	red
113.076	1.0166	ITI	n/a	n/a	n/a	n/a	n/a	n/a	n/a	n/a
114.0927	0.5167	FIXCROSS	n/a	n/a	n/a	n/a	n/a	n/a	n/a	n/a
114.6094	0.65	INK	30	Neutral	xxxxxxxx	xxxxxxxx	zielony	green	hit	n/a
115.231	n/a	RESPONSE	n/a	n/a	n/a	n/a	n/a	n/a	n/a	green
115.2593	1.0167	ITI	n/a	n/a	n/a	n/a	n/a	n/a	n/a	n/a
116.276	0.5167	FIXCROSS	n/a	n/a	n/a	n/a	n/a	n/a	n/a	n/a
116.7927	0.6167	INK	31	Neutral	xxxxxxxx	xxxxxxxx	zielony	green	hit	n/a
117.3861	n/a	RESPONSE	n/a	n/a	n/a	n/a	n/a	n/a	n/a	green
117.4094	1.0167	ITI	n/a	n/a	n/a	n/a	n/a	n/a	n/a	n/a
118.4261	0.5167	FIXCROSS	n/a	n/a	n/a	n/a	n/a	n/a	n/a	n/a
118.9427	0.7333	INK	32	Incongruent	niebieski	blue	zielony	green	hit	n/a
119.6531	n/a	RESPONSE	n/a	n/a	n/a	n/a	n/a	n/a	n/a	green
119.6761	1.0167	ITI	n/a	n/a	n/a	n/a	n/a	n/a	n/a	n/a
120.6927	0.5167	FIXCROSS	n/a	n/a	n/a	n/a	n/a	n/a	n/a	n/a
121.2094	0.6166	INK	33	Neutral	xxxxxxxxx	xxxxxxxxx	żółty	yellow	hit	n/a
121.7925	n/a	RESPONSE	n/a	n/a	n/a	n/a	n/a	n/a	n/a	yellow
121.8261	1.0167	ITI	n/a	n/a	n/a	n/a	n/a	n/a	n/a	n/a
122.8428	0.5167	FIXCROSS	n/a	n/a	n/a	n/a	n/a	n/a	n/a	n/a
123.3594	0.6667	INK	34	Incongruent	niebieski	blue	czerwony	red	hit	n/a
123.9954	n/a	RESPONSE	n/a	n/a	n/a	n/a	n/a	n/a	n/a	red
124.0261	1.0167	ITI	n/a	n/a	n/a	n/a	n/a	n/a	n/a	n/a
125.0428	0.5167	FIXCROSS	n/a	n/a	n/a	n/a	n/a	n/a	n/a	n/a
125.5594	0.55	INK	35	Neutral	xxxxxxxxx	xxxxxxxxx	czerwony	red	hit	n/a
126.0867	n/a	RESPONSE	n/a	n/a	n/a	n/a	n/a	n/a	n/a	red
126.1094	1.0167	ITI	n/a	n/a	n/a	n/a	n/a	n/a	n/a	n/a
127.1261	0.5167	FIXCROSS	n/a	n/a	n/a	n/a	n/a	n/a	n/a	n/a
127.6428	0.6833	INK	36	Neutral	xxxxxxx	xxxxxxx	żółty	yellow	hit	n/a
128.3059	n/a	RESPONSE	n/a	n/a	n/a	n/a	n/a	n/a	n/a	yellow
128.3261	1.0167	ITI	n/a	n/a	n/a	n/a	n/a	n/a	n/a	n/a
129.3428	0.5167	FIXCROSS	n/a	n/a	n/a	n/a	n/a	n/a	n/a	n/a
129.8595	0.55	INK	37	Neutral	xxxxx	xxxxx	niebieski	blue	hit	n/a
130.3812	n/a	RESPONSE	n/a	n/a	n/a	n/a	n/a	n/a	n/a	blue
130.4095	1.0167	ITI	n/a	n/a	n/a	n/a	n/a	n/a	n/a	n/a
131.4262	0.5167	FIXCROSS	n/a	n/a	n/a	n/a	n/a	n/a	n/a	n/a
131.9428	0.6166	INK	38	Neutral	xxxxxxx	xxxxxxx	czerwony	red	hit	n/a
132.5364	n/a	RESPONSE	n/a	n/a	n/a	n/a	n/a	n/a	n/a	red
132.5595	1.0167	ITI	n/a	n/a	n/a	n/a	n/a	n/a	n/a	n/a
133.5762	0.5166	FIXCROSS	n/a	n/a	n/a	n/a	n/a	n/a	n/a	n/a
134.0928	0.6334	INK	39	Neutral	xxxxxxx	xxxxxxx	czerwony	red	hit	n/a
134.6917	n/a	RESPONSE	n/a	n/a	n/a	n/a	n/a	n/a	n/a	red
134.7262	1.0167	ITI	n/a	n/a	n/a	n/a	n/a	n/a	n/a	n/a
135.7428	0.5167	FIXCROSS	n/a	n/a	n/a	n/a	n/a	n/a	n/a	n/a
136.2595	0.7	INK	40	Incongruent	zielony	green	żółty	yellow	hit	n/a
136.9266	n/a	RESPONSE	n/a	n/a	n/a	n/a	n/a	n/a	n/a	yellow
136.9595	1.0167	ITI	n/a	n/a	n/a	n/a	n/a	n/a	n/a	n/a
137.9762	0.5167	FIXCROSS	n/a	n/a	n/a	n/a	n/a	n/a	n/a	n/a
138.4929	0.6167	INK	41	Incongruent	czerwony	red	żółty	yellow	hit	n/a
139.0818	n/a	RESPONSE	n/a	n/a	n/a	n/a	n/a	n/a	n/a	yellow
139.1095	1.0167	ITI	n/a	n/a	n/a	n/a	n/a	n/a	n/a	n/a
140.1262	0.5167	FIXCROSS	n/a	n/a	n/a	n/a	n/a	n/a	n/a	n/a
140.6429	0.6	INK	42	Incongruent	żółty	yellow	zielony	green	incorrect	n/a
141.2212	n/a	RESPONSE	n/a	n/a	n/a	n/a	n/a	n/a	n/a	red
141.2429	1.0167	ITI	n/a	n/a	n/a	n/a	n/a	n/a	n/a	n/a
142.2596	0.5166	FIXCROSS	n/a	n/a	n/a	n/a	n/a	n/a	n/a	n/a
142.7762	0.9	INK	43	Incongruent	żółty	yellow	zielony	green	hit	n/a
143.6478	n/a	RESPONSE	n/a	n/a	n/a	n/a	n/a	n/a	n/a	green
143.6762	1.0167	ITI	n/a	n/a	n/a	n/a	n/a	n/a	n/a	n/a
144.6929	0.5167	FIXCROSS	n/a	n/a	n/a	n/a	n/a	n/a	n/a	n/a
145.2096	0.6333	INK	44	Neutral	xxxxxxx	xxxxxxx	niebieski	blue	hit	n/a
145.8189	n/a	RESPONSE	n/a	n/a	n/a	n/a	n/a	n/a	n/a	blue
145.8429	1.0167	ITI	n/a	n/a	n/a	n/a	n/a	n/a	n/a	n/a
146.8596	0.5167	FIXCROSS	n/a	n/a	n/a	n/a	n/a	n/a	n/a	n/a
147.3763	0.65	INK	45	Neutral	xxxxx	xxxxx	zielony	green	hit	n/a
148.0061	n/a	RESPONSE	n/a	n/a	n/a	n/a	n/a	n/a	n/a	green
148.0263	1.0167	ITI	n/a	n/a	n/a	n/a	n/a	n/a	n/a	n/a
149.043	0.5167	FIXCROSS	n/a	n/a	n/a	n/a	n/a	n/a	n/a	n/a
149.5596	0.65	INK	46	Incongruent	niebieski	blue	żółty	yellow	hit	n/a
150.1773	n/a	RESPONSE	n/a	n/a	n/a	n/a	n/a	n/a	n/a	yellow
150.2096	1.0167	ITI	n/a	n/a	n/a	n/a	n/a	n/a	n/a	n/a
151.2263	0.5167	FIXCROSS	n/a	n/a	n/a	n/a	n/a	n/a	n/a	n/a
151.743	0.7	INK	47	Incongruent	czerwony	red	zielony	green	hit	n/a
152.4123	n/a	RESPONSE	n/a	n/a	n/a	n/a	n/a	n/a	n/a	green
152.443	1.0167	ITI	n/a	n/a	n/a	n/a	n/a	n/a	n/a	n/a
153.4596	0.5167	FIXCROSS	n/a	n/a	n/a	n/a	n/a	n/a	n/a	n/a
153.9763	0.6	INK	48	Neutral	xxxxx	xxxxx	zielony	green	hit	n/a
154.5515	n/a	RESPONSE	n/a	n/a	n/a	n/a	n/a	n/a	n/a	green
154.5763	1.0166	ITI	n/a	n/a	n/a	n/a	n/a	n/a	n/a	n/a
155.5929	0.5167	FIXCROSS	n/a	n/a	n/a	n/a	n/a	n/a	n/a	n/a
156.1097	0.8666	INK	49	Neutral	xxxxx	xxxxx	czerwony	red	hit	n/a
156.9461	n/a	RESPONSE	n/a	n/a	n/a	n/a	n/a	n/a	n/a	red
156.9763	1.0167	ITI	n/a	n/a	n/a	n/a	n/a	n/a	n/a	n/a
157.993	0.5167	FIXCROSS	n/a	n/a	n/a	n/a	n/a	n/a	n/a	n/a
158.5097	0.6334	INK	50	Neutral	xxxxxxxx	xxxxxxxx	niebieski	blue	hit	n/a
159.1174	n/a	RESPONSE	n/a	n/a	n/a	n/a	n/a	n/a	n/a	blue
159.143	1.0166	ITI	n/a	n/a	n/a	n/a	n/a	n/a	n/a	n/a
160.1597	0.5167	FIXCROSS	n/a	n/a	n/a	n/a	n/a	n/a	n/a	n/a
160.6764	0.6333	INK	51	Neutral	xxxxxxxx	xxxxxxxx	niebieski	blue	hit	n/a
161.2884	n/a	RESPONSE	n/a	n/a	n/a	n/a	n/a	n/a	n/a	blue
161.3097	1.0166	ITI	n/a	n/a	n/a	n/a	n/a	n/a	n/a	n/a
162.3263	0.5167	FIXCROSS	n/a	n/a	n/a	n/a	n/a	n/a	n/a	n/a
162.843	0.65	INK	52	Neutral	xxxxxxx	xxxxxxx	niebieski	blue	hit	n/a
163.4596	n/a	RESPONSE	n/a	n/a	n/a	n/a	n/a	n/a	n/a	blue
163.4931	1.0167	ITI	n/a	n/a	n/a	n/a	n/a	n/a	n/a	n/a
164.5097	0.5166	FIXCROSS	n/a	n/a	n/a	n/a	n/a	n/a	n/a	n/a
165.0264	0.6667	INK	53	Incongruent	czerwony	red	niebieski	blue	hit	n/a
165.6628	n/a	RESPONSE	n/a	n/a	n/a	n/a	n/a	n/a	n/a	blue
165.6931	1.0167	ITI	n/a	n/a	n/a	n/a	n/a	n/a	n/a	n/a
166.7097	0.5167	FIXCROSS	n/a	n/a	n/a	n/a	n/a	n/a	n/a	n/a
167.2264	0.7167	INK	54	Neutral	xxxxxxxxx	xxxxxxxxx	żółty	yellow	hit	n/a
167.9138	n/a	RESPONSE	n/a	n/a	n/a	n/a	n/a	n/a	n/a	yellow
167.9431	1.0167	ITI	n/a	n/a	n/a	n/a	n/a	n/a	n/a	n/a
168.9598	0.5167	FIXCROSS	n/a	n/a	n/a	n/a	n/a	n/a	n/a	n/a
169.4764	0.65	INK	55	Incongruent	żółty	yellow	zielony	green	hit	n/a
170.1008	n/a	RESPONSE	n/a	n/a	n/a	n/a	n/a	n/a	n/a	green
170.1264	1.0167	ITI	n/a	n/a	n/a	n/a	n/a	n/a	n/a	n/a
171.1431	0.5166	FIXCROSS	n/a	n/a	n/a	n/a	n/a	n/a	n/a	n/a
171.6597	0.8334	INK	56	Neutral	xxxxxxxxx	xxxxxxxxx	czerwony	red	hit	n/a
172.4636	n/a	RESPONSE	n/a	n/a	n/a	n/a	n/a	n/a	n/a	red
172.4931	1.0167	ITI	n/a	n/a	n/a	n/a	n/a	n/a	n/a	n/a
173.5098	0.5167	FIXCROSS	n/a	n/a	n/a	n/a	n/a	n/a	n/a	n/a
174.0265	0.8	INK	57	Neutral	xxxxxxxxx	xxxxxxxxx	żółty	yellow	hit	n/a
174.7944	n/a	RESPONSE	n/a	n/a	n/a	n/a	n/a	n/a	n/a	yellow
174.8265	1.0166	ITI	n/a	n/a	n/a	n/a	n/a	n/a	n/a	n/a
175.8431	0.5167	FIXCROSS	n/a	n/a	n/a	n/a	n/a	n/a	n/a	n/a
176.3598	0.6333	INK	58	Incongruent	czerwony	red	żółty	yellow	hit	n/a
176.9655	n/a	RESPONSE	n/a	n/a	n/a	n/a	n/a	n/a	n/a	yellow
176.9931	1.0167	ITI	n/a	n/a	n/a	n/a	n/a	n/a	n/a	n/a
178.0098	0.5166	FIXCROSS	n/a	n/a	n/a	n/a	n/a	n/a	n/a	n/a
178.5265	0.6667	INK	59	Neutral	xxxxx	xxxxx	niebieski	blue	hit	n/a
179.1686	n/a	RESPONSE	n/a	n/a	n/a	n/a	n/a	n/a	n/a	blue
179.1932	1.0167	ITI	n/a	n/a	n/a	n/a	n/a	n/a	n/a	n/a
180.2098	0.5167	FIXCROSS	n/a	n/a	n/a	n/a	n/a	n/a	n/a	n/a
180.7265	0.6667	INK	60	Incongruent	zielony	green	żółty	yellow	hit	n/a
181.3717	n/a	RESPONSE	n/a	n/a	n/a	n/a	n/a	n/a	n/a	yellow
181.3932	1.0167	ITI	n/a	n/a	n/a	n/a	n/a	n/a	n/a	n/a
182.4099	0.5167	FIXCROSS	n/a	n/a	n/a	n/a	n/a	n/a	n/a	n/a
182.9265	0.6	INK	61	Neutral	xxxxxxxx	xxxxxxxx	żółty	yellow	hit	n/a
183.4951	n/a	RESPONSE	n/a	n/a	n/a	n/a	n/a	n/a	n/a	yellow
183.5265	1.0167	ITI	n/a	n/a	n/a	n/a	n/a	n/a	n/a	n/a
184.5432	0.5167	FIXCROSS	n/a	n/a	n/a	n/a	n/a	n/a	n/a	n/a
185.0599	0.65	INK	62	Incongruent	czerwony	red	niebieski	blue	hit	n/a
185.6821	n/a	RESPONSE	n/a	n/a	n/a	n/a	n/a	n/a	n/a	blue
185.7099	1.0166	ITI	n/a	n/a	n/a	n/a	n/a	n/a	n/a	n/a
186.7265	0.5167	FIXCROSS	n/a	n/a	n/a	n/a	n/a	n/a	n/a	n/a
187.2432	0.65	INK	63	Neutral	xxxxx	xxxxx	czerwony	red	hit	n/a
187.8692	n/a	RESPONSE	n/a	n/a	n/a	n/a	n/a	n/a	n/a	red
187.8932	1.0167	ITI	n/a	n/a	n/a	n/a	n/a	n/a	n/a	n/a
188.9099	0.5166	FIXCROSS	n/a	n/a	n/a	n/a	n/a	n/a	n/a	n/a
189.4265	0.6334	INK	64	Incongruent	zielony	green	niebieski	blue	hit	n/a
190.0245	n/a	RESPONSE	n/a	n/a	n/a	n/a	n/a	n/a	n/a	blue
190.0599	1.0166	ITI	n/a	n/a	n/a	n/a	n/a	n/a	n/a	n/a
191.0765	0.5167	FIXCROSS	n/a	n/a	n/a	n/a	n/a	n/a	n/a	n/a
191.5932	0.7167	INK	65	Incongruent	niebieski	blue	zielony	green	hit	n/a
192.2915	n/a	RESPONSE	n/a	n/a	n/a	n/a	n/a	n/a	n/a	green
192.3099	1.0167	ITI	n/a	n/a	n/a	n/a	n/a	n/a	n/a	n/a
193.3266	0.5166	FIXCROSS	n/a	n/a	n/a	n/a	n/a	n/a	n/a	n/a
193.8432	0.5833	INK	66	Neutral	xxxxxxx	xxxxxxx	żółty	yellow	hit	n/a
194.3987	n/a	RESPONSE	n/a	n/a	n/a	n/a	n/a	n/a	n/a	yellow
194.4266	1.0167	ITI	n/a	n/a	n/a	n/a	n/a	n/a	n/a	n/a
195.4433	0.5167	FIXCROSS	n/a	n/a	n/a	n/a	n/a	n/a	n/a	n/a
195.9599	0.7333	INK	67	Incongruent	zielony	green	czerwony	red	hit	n/a
196.6657	n/a	RESPONSE	n/a	n/a	n/a	n/a	n/a	n/a	n/a	red
196.6933	1.0167	ITI	n/a	n/a	n/a	n/a	n/a	n/a	n/a	n/a
197.71	0.5167	FIXCROSS	n/a	n/a	n/a	n/a	n/a	n/a	n/a	n/a
198.2266	0.65	INK	68	Incongruent	czerwony	red	niebieski	blue	hit	n/a
198.8528	n/a	RESPONSE	n/a	n/a	n/a	n/a	n/a	n/a	n/a	blue
198.8766	1.0167	ITI	n/a	n/a	n/a	n/a	n/a	n/a	n/a	n/a
199.8933	0.5167	FIXCROSS	n/a	n/a	n/a	n/a	n/a	n/a	n/a	n/a
200.41	0.5833	INK	69	Neutral	xxxxx	xxxxx	niebieski	blue	hit	n/a
200.9601	n/a	RESPONSE	n/a	n/a	n/a	n/a	n/a	n/a	n/a	blue
200.9933	1.0166	ITI	n/a	n/a	n/a	n/a	n/a	n/a	n/a	n/a
202.01	0.5167	FIXCROSS	n/a	n/a	n/a	n/a	n/a	n/a	n/a	n/a
202.5267	0.55	INK	70	Neutral	xxxxxxxx	xxxxxxxx	żółty	yellow	hit	n/a
203.0514	n/a	RESPONSE	n/a	n/a	n/a	n/a	n/a	n/a	n/a	yellow
203.0767	1.0166	ITI	n/a	n/a	n/a	n/a	n/a	n/a	n/a	n/a
204.0933	0.5167	FIXCROSS	n/a	n/a	n/a	n/a	n/a	n/a	n/a	n/a
204.61	0.5834	INK	71	Neutral	xxxxxxxx	xxxxxxxx	niebieski	blue	hit	n/a
205.1747	n/a	RESPONSE	n/a	n/a	n/a	n/a	n/a	n/a	n/a	blue
205.1934	1.0167	ITI	n/a	n/a	n/a	n/a	n/a	n/a	n/a	n/a
206.21	0.5167	FIXCROSS	n/a	n/a	n/a	n/a	n/a	n/a	n/a	n/a
206.7267	0.6334	INK	72	Incongruent	żółty	yellow	niebieski	blue	hit	n/a
207.3299	n/a	RESPONSE	n/a	n/a	n/a	n/a	n/a	n/a	n/a	blue
207.36	1.0833	ITI	n/a	n/a	n/a	n/a	n/a	n/a	n/a	n/a
218.3136	n/a	RESPONSE	n/a	n/a	n/a	n/a	n/a	n/a	n/a	n/a
218.3768	1.0167	ITI	n/a	n/a	n/a	n/a	n/a	n/a	n/a	n/a
219.3934	0.5167	FIXCROSS	n/a	n/a	n/a	n/a	n/a	n/a	n/a	n/a
219.9101	1.1833	T_COLOR_NAME	1	Incongruent	żółty	yellow	niebieski	blue	hit	n/a
221.0594	n/a	RESPONSE	n/a	n/a	n/a	n/a	n/a	n/a	n/a	yellow
221.0934	0.5167	FEEDBACK	n/a	n/a	n/a	n/a	n/a	n/a	n/a	n/a
221.6101	1.0167	ITI	n/a	n/a	n/a	n/a	n/a	n/a	n/a	n/a
222.6268	0.5167	FIXCROSS	n/a	n/a	n/a	n/a	n/a	n/a	n/a	n/a
223.1435	1.6334	T_COLOR_NAME	2	Neutral	żółty	yellow	Neutral	Neutral	hit	n/a
224.7472	n/a	RESPONSE	n/a	n/a	n/a	n/a	n/a	n/a	n/a	yellow
224.7768	0.5167	FEEDBACK	n/a	n/a	n/a	n/a	n/a	n/a	n/a	n/a
225.2935	1.0166	ITI	n/a	n/a	n/a	n/a	n/a	n/a	n/a	n/a
226.3101	0.5167	FIXCROSS	n/a	n/a	n/a	n/a	n/a	n/a	n/a	n/a
226.8268	0.9667	T_COLOR_NAME	3	Incongruent	żółty	yellow	czerwony	red	hit	n/a
227.7645	n/a	RESPONSE	n/a	n/a	n/a	n/a	n/a	n/a	n/a	yellow
227.7935	0.5167	FEEDBACK	n/a	n/a	n/a	n/a	n/a	n/a	n/a	n/a
228.3102	1.0166	ITI	n/a	n/a	n/a	n/a	n/a	n/a	n/a	n/a
229.3268	0.5167	FIXCROSS	n/a	n/a	n/a	n/a	n/a	n/a	n/a	n/a
229.8435	1.1333	T_COLOR_NAME	4	Incongruent	niebieski	blue	zielony	green	hit	n/a
230.9414	n/a	RESPONSE	n/a	n/a	n/a	n/a	n/a	n/a	n/a	blue
230.9769	0.5166	FEEDBACK	n/a	n/a	n/a	n/a	n/a	n/a	n/a	n/a
231.4935	1.0167	ITI	n/a	n/a	n/a	n/a	n/a	n/a	n/a	n/a
232.5102	0.5167	FIXCROSS	n/a	n/a	n/a	n/a	n/a	n/a	n/a	n/a
233.0269	2.2	T_COLOR_NAME	5	Incongruent	zielony	green	niebieski	blue	hit	n/a
235.204	n/a	RESPONSE	n/a	n/a	n/a	n/a	n/a	n/a	n/a	green
235.2269	0.5167	FEEDBACK	n/a	n/a	n/a	n/a	n/a	n/a	n/a	n/a
235.7436	1.0166	ITI	n/a	n/a	n/a	n/a	n/a	n/a	n/a	n/a
236.7602	0.5167	FIXCROSS	n/a	n/a	n/a	n/a	n/a	n/a	n/a	n/a
237.2769	1.25	T_COLOR_NAME	6	Neutral	niebieski	blue	Neutral	Neutral	hit	n/a
238.4925	n/a	RESPONSE	n/a	n/a	n/a	n/a	n/a	n/a	n/a	blue
238.5269	0.5166	FEEDBACK	n/a	n/a	n/a	n/a	n/a	n/a	n/a	n/a
239.0436	1.0167	ITI	n/a	n/a	n/a	n/a	n/a	n/a	n/a	n/a
240.0603	0.5167	FIXCROSS	n/a	n/a	n/a	n/a	n/a	n/a	n/a	n/a
240.5769	0.9833	T_COLOR_NAME	7	Incongruent	żółty	yellow	zielony	green	hit	n/a
241.5259	n/a	RESPONSE	n/a	n/a	n/a	n/a	n/a	n/a	n/a	yellow
241.5602	0.5167	FEEDBACK	n/a	n/a	n/a	n/a	n/a	n/a	n/a	n/a
242.0769	1.0167	ITI	n/a	n/a	n/a	n/a	n/a	n/a	n/a	n/a
243.0936	0.5167	FIXCROSS	n/a	n/a	n/a	n/a	n/a	n/a	n/a	n/a
243.6103	1.1834	T_COLOR_NAME	8	Incongruent	czerwony	red	zielony	green	hit	n/a
244.7666	n/a	RESPONSE	n/a	n/a	n/a	n/a	n/a	n/a	n/a	red
244.7936	0.5167	FEEDBACK	n/a	n/a	n/a	n/a	n/a	n/a	n/a	n/a
245.3103	1.0167	ITI	n/a	n/a	n/a	n/a	n/a	n/a	n/a	n/a
246.327	0.5167	FIXCROSS	n/a	n/a	n/a	n/a	n/a	n/a	n/a	n/a
246.8436	1.1	T_COLOR_NAME	9	Neutral	żółty	yellow	Neutral	Neutral	hit	n/a
247.9116	n/a	RESPONSE	n/a	n/a	n/a	n/a	n/a	n/a	n/a	yellow
247.9436	0.5167	FEEDBACK	n/a	n/a	n/a	n/a	n/a	n/a	n/a	n/a
248.4603	1.0167	ITI	n/a	n/a	n/a	n/a	n/a	n/a	n/a	n/a
249.477	0.5167	FIXCROSS	n/a	n/a	n/a	n/a	n/a	n/a	n/a	n/a
249.9937	1.1	T_COLOR_NAME	10	Neutral	niebieski	blue	Neutral	Neutral	hit	n/a
251.0727	n/a	RESPONSE	n/a	n/a	n/a	n/a	n/a	n/a	n/a	blue
251.0937	0.5167	FEEDBACK	n/a	n/a	n/a	n/a	n/a	n/a	n/a	n/a
251.6103	1.0167	ITI	n/a	n/a	n/a	n/a	n/a	n/a	n/a	n/a
252.627	0.5167	FIXCROSS	n/a	n/a	n/a	n/a	n/a	n/a	n/a	n/a
253.1437	1.05	T_COLOR_NAME	11	Neutral	zielony	green	Neutral	Neutral	hit	n/a
254.1697	n/a	RESPONSE	n/a	n/a	n/a	n/a	n/a	n/a	n/a	green
254.1937	0.5167	FEEDBACK	n/a	n/a	n/a	n/a	n/a	n/a	n/a	n/a
254.7104	1.0167	ITI	n/a	n/a	n/a	n/a	n/a	n/a	n/a	n/a
255.727	0.5167	FIXCROSS	n/a	n/a	n/a	n/a	n/a	n/a	n/a	n/a
256.2437	1.25	T_COLOR_NAME	12	Neutral	żółty	yellow	Neutral	Neutral	hit	n/a
257.4743	n/a	RESPONSE	n/a	n/a	n/a	n/a	n/a	n/a	n/a	yellow
257.4937	0.5167	FEEDBACK	n/a	n/a	n/a	n/a	n/a	n/a	n/a	n/a
258.0103	1.0334	ITI	n/a	n/a	n/a	n/a	n/a	n/a	n/a	n/a
268.6973	n/a	RESPONSE	n/a	n/a	n/a	n/a	n/a	n/a	n/a	n/a
268.7605	1.0167	ITI	n/a	n/a	n/a	n/a	n/a	n/a	n/a	n/a
269.7771	0.5167	FIXCROSS	n/a	n/a	n/a	n/a	n/a	n/a	n/a	n/a
270.2938	1.6	COLOR_NAME	1	Incongruent	zielony	green	czerwony	red	hit	n/a
271.8741	n/a	RESPONSE	n/a	n/a	n/a	n/a	n/a	n/a	n/a	green
271.8938	1.0167	ITI	n/a	n/a	n/a	n/a	n/a	n/a	n/a	n/a
272.9105	0.5167	FIXCROSS	n/a	n/a	n/a	n/a	n/a	n/a	n/a	n/a
273.4272	1.0167	COLOR_NAME	2	Incongruent	niebieski	blue	czerwony	red	hit	n/a
274.4126	n/a	RESPONSE	n/a	n/a	n/a	n/a	n/a	n/a	n/a	blue
274.4438	1.0167	ITI	n/a	n/a	n/a	n/a	n/a	n/a	n/a	n/a
275.4605	0.5166	FIXCROSS	n/a	n/a	n/a	n/a	n/a	n/a	n/a	n/a
275.9771	1.35	COLOR_NAME	3	Incongruent	zielony	green	żółty	yellow	hit	n/a
276.9987	n/a	RESPONSE	n/a	n/a	n/a	n/a	n/a	n/a	n/a	green
277.3272	1.0167	ITI	n/a	n/a	n/a	n/a	n/a	n/a	n/a	n/a
278.3439	0.5167	FIXCROSS	n/a	n/a	n/a	n/a	n/a	n/a	n/a	n/a
278.8605	0.85	COLOR_NAME	4	Incongruent	niebieski	blue	żółty	yellow	hit	n/a
279.6808	n/a	RESPONSE	n/a	n/a	n/a	n/a	n/a	n/a	n/a	blue
279.7105	1.0167	ITI	n/a	n/a	n/a	n/a	n/a	n/a	n/a	n/a
280.7272	0.5167	FIXCROSS	n/a	n/a	n/a	n/a	n/a	n/a	n/a	n/a
281.2439	1.0	COLOR_NAME	5	Incongruent	czerwony	red	zielony	green	hit	n/a
282.2191	n/a	RESPONSE	n/a	n/a	n/a	n/a	n/a	n/a	n/a	red
282.2439	1.0167	ITI	n/a	n/a	n/a	n/a	n/a	n/a	n/a	n/a
283.2606	0.5167	FIXCROSS	n/a	n/a	n/a	n/a	n/a	n/a	n/a	n/a
283.7772	1.0833	COLOR_NAME	6	Neutral	żółty	yellow	Neutral	Neutral	hit	n/a
284.8372	n/a	RESPONSE	n/a	n/a	n/a	n/a	n/a	n/a	n/a	yellow
284.8606	1.0167	ITI	n/a	n/a	n/a	n/a	n/a	n/a	n/a	n/a
285.8773	0.5166	FIXCROSS	n/a	n/a	n/a	n/a	n/a	n/a	n/a	n/a
286.3939	0.8334	COLOR_NAME	7	Incongruent	żółty	yellow	czerwony	red	hit	n/a
287.2	n/a	RESPONSE	n/a	n/a	n/a	n/a	n/a	n/a	n/a	yellow
287.2273	1.0167	ITI	n/a	n/a	n/a	n/a	n/a	n/a	n/a	n/a
288.2439	0.5167	FIXCROSS	n/a	n/a	n/a	n/a	n/a	n/a	n/a	n/a
288.7606	0.9	COLOR_NAME	8	Incongruent	czerwony	red	żółty	yellow	hit	n/a
289.6266	n/a	RESPONSE	n/a	n/a	n/a	n/a	n/a	n/a	n/a	red
289.6606	1.0167	ITI	n/a	n/a	n/a	n/a	n/a	n/a	n/a	n/a
290.6773	0.5167	FIXCROSS	n/a	n/a	n/a	n/a	n/a	n/a	n/a	n/a
291.194	0.7667	COLOR_NAME	9	Incongruent	niebieski	blue	zielony	green	hit	n/a
291.9415	n/a	RESPONSE	n/a	n/a	n/a	n/a	n/a	n/a	n/a	blue
291.9606	1.0167	ITI	n/a	n/a	n/a	n/a	n/a	n/a	n/a	n/a
292.9773	0.5167	FIXCROSS	n/a	n/a	n/a	n/a	n/a	n/a	n/a	n/a
293.494	0.7167	COLOR_NAME	10	Neutral	niebieski	blue	Neutral	Neutral	hit	n/a
294.1925	n/a	RESPONSE	n/a	n/a	n/a	n/a	n/a	n/a	n/a	blue
294.2107	1.0167	ITI	n/a	n/a	n/a	n/a	n/a	n/a	n/a	n/a
295.2273	0.5167	FIXCROSS	n/a	n/a	n/a	n/a	n/a	n/a	n/a	n/a
295.744	0.6833	COLOR_NAME	11	Neutral	żółty	yellow	Neutral	Neutral	hit	n/a
296.3956	n/a	RESPONSE	n/a	n/a	n/a	n/a	n/a	n/a	n/a	yellow
296.4273	1.0167	ITI	n/a	n/a	n/a	n/a	n/a	n/a	n/a	n/a
297.444	0.5166	FIXCROSS	n/a	n/a	n/a	n/a	n/a	n/a	n/a	n/a
297.9606	0.7	COLOR_NAME	12	Incongruent	żółty	yellow	niebieski	blue	hit	n/a
298.6305	n/a	RESPONSE	n/a	n/a	n/a	n/a	n/a	n/a	n/a	yellow
298.6607	1.0167	ITI	n/a	n/a	n/a	n/a	n/a	n/a	n/a	n/a
299.6774	0.5167	FIXCROSS	n/a	n/a	n/a	n/a	n/a	n/a	n/a	n/a
300.194	0.8167	COLOR_NAME	13	Neutral	czerwony	red	Neutral	Neutral	hit	n/a
300.9773	n/a	RESPONSE	n/a	n/a	n/a	n/a	n/a	n/a	n/a	red
301.0107	1.0167	ITI	n/a	n/a	n/a	n/a	n/a	n/a	n/a	n/a
302.0274	0.5167	FIXCROSS	n/a	n/a	n/a	n/a	n/a	n/a	n/a	n/a
302.544	0.6167	COLOR_NAME	14	Incongruent	czerwony	red	zielony	green	hit	n/a
303.1325	n/a	RESPONSE	n/a	n/a	n/a	n/a	n/a	n/a	n/a	red
303.1607	1.0167	ITI	n/a	n/a	n/a	n/a	n/a	n/a	n/a	n/a
304.1774	0.5167	FIXCROSS	n/a	n/a	n/a	n/a	n/a	n/a	n/a	n/a
304.6941	0.8167	COLOR_NAME	15	Neutral	zielony	green	Neutral	Neutral	hit	n/a
305.4793	n/a	RESPONSE	n/a	n/a	n/a	n/a	n/a	n/a	n/a	green
305.5107	1.0167	ITI	n/a	n/a	n/a	n/a	n/a	n/a	n/a	n/a
306.5274	0.5167	FIXCROSS	n/a	n/a	n/a	n/a	n/a	n/a	n/a	n/a
307.0441	0.6999	COLOR_NAME	16	Neutral	zielony	green	Neutral	Neutral	hit	n/a
307.7142	n/a	RESPONSE	n/a	n/a	n/a	n/a	n/a	n/a	n/a	green
307.7439	1.0168	ITI	n/a	n/a	n/a	n/a	n/a	n/a	n/a	n/a
308.7607	0.5167	FIXCROSS	n/a	n/a	n/a	n/a	n/a	n/a	n/a	n/a
309.2774	0.95	COLOR_NAME	17	Incongruent	zielony	green	niebieski	blue	hit	n/a
310.2047	n/a	RESPONSE	n/a	n/a	n/a	n/a	n/a	n/a	n/a	green
310.2274	1.0167	ITI	n/a	n/a	n/a	n/a	n/a	n/a	n/a	n/a
311.2441	0.5167	FIXCROSS	n/a	n/a	n/a	n/a	n/a	n/a	n/a	n/a
311.7608	0.7833	COLOR_NAME	18	Neutral	żółty	yellow	Neutral	Neutral	hit	n/a
312.5195	n/a	RESPONSE	n/a	n/a	n/a	n/a	n/a	n/a	n/a	yellow
312.5441	1.0167	ITI	n/a	n/a	n/a	n/a	n/a	n/a	n/a	n/a
313.5608	0.5167	FIXCROSS	n/a	n/a	n/a	n/a	n/a	n/a	n/a	n/a
314.0775	0.8	COLOR_NAME	19	Neutral	czerwony	red	Neutral	Neutral	hit	n/a
314.8504	n/a	RESPONSE	n/a	n/a	n/a	n/a	n/a	n/a	n/a	red
314.8775	1.0167	ITI	n/a	n/a	n/a	n/a	n/a	n/a	n/a	n/a
315.8941	0.5167	FIXCROSS	n/a	n/a	n/a	n/a	n/a	n/a	n/a	n/a
316.4108	0.7333	COLOR_NAME	20	Neutral	niebieski	blue	Neutral	Neutral	hit	n/a
317.1173	n/a	RESPONSE	n/a	n/a	n/a	n/a	n/a	n/a	n/a	blue
317.1441	1.0167	ITI	n/a	n/a	n/a	n/a	n/a	n/a	n/a	n/a
318.1608	0.5166	FIXCROSS	n/a	n/a	n/a	n/a	n/a	n/a	n/a	n/a
318.6775	0.95	COLOR_NAME	21	Neutral	zielony	green	Neutral	Neutral	hit	n/a
319.5918	n/a	RESPONSE	n/a	n/a	n/a	n/a	n/a	n/a	n/a	green
319.6275	1.0167	ITI	n/a	n/a	n/a	n/a	n/a	n/a	n/a	n/a
320.6442	0.5167	FIXCROSS	n/a	n/a	n/a	n/a	n/a	n/a	n/a	n/a
321.1608	0.6166	COLOR_NAME	22	Neutral	zielony	green	Neutral	Neutral	hit	n/a
321.747	n/a	RESPONSE	n/a	n/a	n/a	n/a	n/a	n/a	n/a	green
321.7775	1.0167	ITI	n/a	n/a	n/a	n/a	n/a	n/a	n/a	n/a
322.7942	0.5167	FIXCROSS	n/a	n/a	n/a	n/a	n/a	n/a	n/a	n/a
323.3108	0.65	COLOR_NAME	23	Neutral	zielony	green	Neutral	Neutral	hit	n/a
323.9341	n/a	RESPONSE	n/a	n/a	n/a	n/a	n/a	n/a	n/a	green
323.9609	1.0167	ITI	n/a	n/a	n/a	n/a	n/a	n/a	n/a	n/a
324.9775	0.5167	FIXCROSS	n/a	n/a	n/a	n/a	n/a	n/a	n/a	n/a
325.4942	1.1833	COLOR_NAME	24	Incongruent	niebieski	blue	czerwony	red	hit	n/a
326.6481	n/a	RESPONSE	n/a	n/a	n/a	n/a	n/a	n/a	n/a	blue
326.6775	1.0167	ITI	n/a	n/a	n/a	n/a	n/a	n/a	n/a	n/a
327.6942	0.5166	FIXCROSS	n/a	n/a	n/a	n/a	n/a	n/a	n/a	n/a
328.2109	0.85	COLOR_NAME	25	Incongruent	czerwony	red	niebieski	blue	hit	n/a
329.0427	n/a	RESPONSE	n/a	n/a	n/a	n/a	n/a	n/a	n/a	red
329.0609	1.0167	ITI	n/a	n/a	n/a	n/a	n/a	n/a	n/a	n/a
330.0776	0.5167	FIXCROSS	n/a	n/a	n/a	n/a	n/a	n/a	n/a	n/a
330.5942	0.9167	COLOR_NAME	26	Neutral	zielony	green	Neutral	Neutral	hit	n/a
331.4853	n/a	RESPONSE	n/a	n/a	n/a	n/a	n/a	n/a	n/a	green
331.5109	1.0167	ITI	n/a	n/a	n/a	n/a	n/a	n/a	n/a	n/a
332.5276	0.5166	FIXCROSS	n/a	n/a	n/a	n/a	n/a	n/a	n/a	n/a
333.0442	0.75	COLOR_NAME	27	Neutral	czerwony	red	Neutral	Neutral	hit	n/a
333.7683	n/a	RESPONSE	n/a	n/a	n/a	n/a	n/a	n/a	n/a	red
333.7942	1.0167	ITI	n/a	n/a	n/a	n/a	n/a	n/a	n/a	n/a
334.8109	0.5167	FIXCROSS	n/a	n/a	n/a	n/a	n/a	n/a	n/a	n/a
335.3276	0.8167	COLOR_NAME	28	Neutral	niebieski	blue	Neutral	Neutral	hit	n/a
336.115	n/a	RESPONSE	n/a	n/a	n/a	n/a	n/a	n/a	n/a	blue
336.1443	1.0167	ITI	n/a	n/a	n/a	n/a	n/a	n/a	n/a	n/a
337.1609	0.5167	FIXCROSS	n/a	n/a	n/a	n/a	n/a	n/a	n/a	n/a
337.6776	0.7667	COLOR_NAME	29	Incongruent	zielony	green	żółty	yellow	hit	n/a
338.4138	n/a	RESPONSE	n/a	n/a	n/a	n/a	n/a	n/a	n/a	green
338.4443	1.0166	ITI	n/a	n/a	n/a	n/a	n/a	n/a	n/a	n/a
339.4609	0.5167	FIXCROSS	n/a	n/a	n/a	n/a	n/a	n/a	n/a	n/a
339.9776	0.8167	COLOR_NAME	30	Incongruent	niebieski	blue	czerwony	red	hit	n/a
340.7766	n/a	RESPONSE	n/a	n/a	n/a	n/a	n/a	n/a	n/a	blue
340.7943	1.0167	ITI	n/a	n/a	n/a	n/a	n/a	n/a	n/a	n/a
341.811	0.5166	FIXCROSS	n/a	n/a	n/a	n/a	n/a	n/a	n/a	n/a
342.3276	0.8667	COLOR_NAME	31	Incongruent	zielony	green	żółty	yellow	hit	n/a
343.1712	n/a	RESPONSE	n/a	n/a	n/a	n/a	n/a	n/a	n/a	green
343.1943	1.0167	ITI	n/a	n/a	n/a	n/a	n/a	n/a	n/a	n/a
344.211	0.5167	FIXCROSS	n/a	n/a	n/a	n/a	n/a	n/a	n/a	n/a
344.7277	0.7833	COLOR_NAME	32	Neutral	czerwony	red	Neutral	Neutral	hit	n/a
345.486	n/a	RESPONSE	n/a	n/a	n/a	n/a	n/a	n/a	n/a	red
345.511	1.0167	ITI	n/a	n/a	n/a	n/a	n/a	n/a	n/a	n/a
346.5277	0.5167	FIXCROSS	n/a	n/a	n/a	n/a	n/a	n/a	n/a	n/a
347.0444	0.9833	COLOR_NAME	33	Incongruent	żółty	yellow	czerwony	red	hit	n/a
348.0085	n/a	RESPONSE	n/a	n/a	n/a	n/a	n/a	n/a	n/a	yellow
348.0277	1.0167	ITI	n/a	n/a	n/a	n/a	n/a	n/a	n/a	n/a
349.0444	0.5167	FIXCROSS	n/a	n/a	n/a	n/a	n/a	n/a	n/a	n/a
349.561	1.6	COLOR_NAME	34	Incongruent	niebieski	blue	zielony	green	hit	n/a
351.1374	n/a	RESPONSE	n/a	n/a	n/a	n/a	n/a	n/a	n/a	blue
351.1611	1.0167	ITI	n/a	n/a	n/a	n/a	n/a	n/a	n/a	n/a
352.1777	0.5167	FIXCROSS	n/a	n/a	n/a	n/a	n/a	n/a	n/a	n/a
352.6944	0.8166	COLOR_NAME	35	Neutral	zielony	green	Neutral	Neutral	hit	n/a
353.4841	n/a	RESPONSE	n/a	n/a	n/a	n/a	n/a	n/a	n/a	green
353.511	1.0167	ITI	n/a	n/a	n/a	n/a	n/a	n/a	n/a	n/a
354.5277	0.5167	FIXCROSS	n/a	n/a	n/a	n/a	n/a	n/a	n/a	n/a
355.0444	1.3333	COLOR_NAME	36	Incongruent	niebieski	blue	żółty	yellow	hit	n/a
356.3578	n/a	RESPONSE	n/a	n/a	n/a	n/a	n/a	n/a	n/a	blue
356.3777	1.0167	ITI	n/a	n/a	n/a	n/a	n/a	n/a	n/a	n/a
357.3944	0.5167	FIXCROSS	n/a	n/a	n/a	n/a	n/a	n/a	n/a	n/a
357.9111	0.8	COLOR_NAME	37	Neutral	żółty	yellow	Neutral	Neutral	hit	n/a
358.6886	n/a	RESPONSE	n/a	n/a	n/a	n/a	n/a	n/a	n/a	yellow
358.7111	1.0167	ITI	n/a	n/a	n/a	n/a	n/a	n/a	n/a	n/a
359.7278	0.5166	FIXCROSS	n/a	n/a	n/a	n/a	n/a	n/a	n/a	n/a
360.2444	1.0667	COLOR_NAME	38	Neutral	żółty	yellow	Neutral	Neutral	hit	n/a
361.2907	n/a	RESPONSE	n/a	n/a	n/a	n/a	n/a	n/a	n/a	yellow
361.3111	1.0166	ITI	n/a	n/a	n/a	n/a	n/a	n/a	n/a	n/a
362.3278	0.5167	FIXCROSS	n/a	n/a	n/a	n/a	n/a	n/a	n/a	n/a
362.8444	0.9834	COLOR_NAME	39	Neutral	żółty	yellow	Neutral	Neutral	hit	n/a
363.797	n/a	RESPONSE	n/a	n/a	n/a	n/a	n/a	n/a	n/a	yellow
363.8278	1.0167	ITI	n/a	n/a	n/a	n/a	n/a	n/a	n/a	n/a
364.8445	0.5166	FIXCROSS	n/a	n/a	n/a	n/a	n/a	n/a	n/a	n/a
365.3611	0.6813	COLOR_NAME	40	Neutral	niebieski	blue	Neutral	Neutral	hit	n/a
366.0162	n/a	RESPONSE	n/a	n/a	n/a	n/a	n/a	n/a	n/a	blue
366.0424	1.0188	ITI	n/a	n/a	n/a	n/a	n/a	n/a	n/a	n/a
367.0612	0.5167	FIXCROSS	n/a	n/a	n/a	n/a	n/a	n/a	n/a	n/a
367.5778	0.9333	COLOR_NAME	41	Incongruent	żółty	yellow	zielony	green	hit	n/a
368.4906	n/a	RESPONSE	n/a	n/a	n/a	n/a	n/a	n/a	n/a	yellow
368.5112	1.0167	ITI	n/a	n/a	n/a	n/a	n/a	n/a	n/a	n/a
369.5279	0.515	FIXCROSS	n/a	n/a	n/a	n/a	n/a	n/a	n/a	n/a
370.0429	0.885	COLOR_NAME	42	Incongruent	żółty	yellow	niebieski	blue	hit	n/a
370.9012	n/a	RESPONSE	n/a	n/a	n/a	n/a	n/a	n/a	n/a	yellow
370.9279	1.0167	ITI	n/a	n/a	n/a	n/a	n/a	n/a	n/a	n/a
371.9445	0.5167	FIXCROSS	n/a	n/a	n/a	n/a	n/a	n/a	n/a	n/a
372.4612	0.8166	COLOR_NAME	43	Incongruent	czerwony	red	niebieski	blue	hit	n/a
373.2479	n/a	RESPONSE	n/a	n/a	n/a	n/a	n/a	n/a	n/a	red
373.2778	1.0167	ITI	n/a	n/a	n/a	n/a	n/a	n/a	n/a	n/a
374.2946	0.5167	FIXCROSS	n/a	n/a	n/a	n/a	n/a	n/a	n/a	n/a
374.8112	1.0333	COLOR_NAME	44	Neutral	niebieski	blue	Neutral	Neutral	hit	n/a
375.8181	n/a	RESPONSE	n/a	n/a	n/a	n/a	n/a	n/a	n/a	blue
375.8446	1.0167	ITI	n/a	n/a	n/a	n/a	n/a	n/a	n/a	n/a
376.8612	0.5166	FIXCROSS	n/a	n/a	n/a	n/a	n/a	n/a	n/a	n/a
377.3779	1.1834	COLOR_NAME	45	Neutral	czerwony	red	Neutral	Neutral	hit	n/a
378.532	n/a	RESPONSE	n/a	n/a	n/a	n/a	n/a	n/a	n/a	red
378.5613	1.0166	ITI	n/a	n/a	n/a	n/a	n/a	n/a	n/a	n/a
379.5779	0.5167	FIXCROSS	n/a	n/a	n/a	n/a	n/a	n/a	n/a	n/a
380.0946	0.8667	COLOR_NAME	46	Neutral	niebieski	blue	Neutral	Neutral	hit	n/a
380.9427	n/a	RESPONSE	n/a	n/a	n/a	n/a	n/a	n/a	n/a	blue
380.9613	1.0167	ITI	n/a	n/a	n/a	n/a	n/a	n/a	n/a	n/a
381.9779	0.5167	FIXCROSS	n/a	n/a	n/a	n/a	n/a	n/a	n/a	n/a
382.4946	1.6	COLOR_NAME	47	Incongruent	niebieski	blue	żółty	yellow	hit	n/a
384.0717	n/a	RESPONSE	n/a	n/a	n/a	n/a	n/a	n/a	n/a	blue
384.0946	1.0167	ITI	n/a	n/a	n/a	n/a	n/a	n/a	n/a	n/a
385.1113	0.5167	FIXCROSS	n/a	n/a	n/a	n/a	n/a	n/a	n/a	n/a
385.628	1.2333	COLOR_NAME	48	Incongruent	zielony	green	czerwony	red	hit	n/a
386.8335	n/a	RESPONSE	n/a	n/a	n/a	n/a	n/a	n/a	n/a	green
386.8613	1.0167	ITI	n/a	n/a	n/a	n/a	n/a	n/a	n/a	n/a
387.878	0.5166	FIXCROSS	n/a	n/a	n/a	n/a	n/a	n/a	n/a	n/a
388.3946	1.1667	COLOR_NAME	49	Neutral	czerwony	red	Neutral	Neutral	hit	n/a
389.5315	n/a	RESPONSE	n/a	n/a	n/a	n/a	n/a	n/a	n/a	red
389.5613	1.0167	ITI	n/a	n/a	n/a	n/a	n/a	n/a	n/a	n/a
390.578	0.5167	FIXCROSS	n/a	n/a	n/a	n/a	n/a	n/a	n/a	n/a
391.0947	0.6	COLOR_NAME	50	Neutral	czerwony	red	Neutral	Neutral	hit	n/a
391.6707	n/a	RESPONSE	n/a	n/a	n/a	n/a	n/a	n/a	n/a	red
391.6947	1.0167	ITI	n/a	n/a	n/a	n/a	n/a	n/a	n/a	n/a
392.7113	0.5166	FIXCROSS	n/a	n/a	n/a	n/a	n/a	n/a	n/a	n/a
393.228	0.6834	COLOR_NAME	51	Incongruent	czerwony	red	zielony	green	hit	n/a
393.8897	n/a	RESPONSE	n/a	n/a	n/a	n/a	n/a	n/a	n/a	red
393.9114	1.0167	ITI	n/a	n/a	n/a	n/a	n/a	n/a	n/a	n/a
394.928	0.5166	FIXCROSS	n/a	n/a	n/a	n/a	n/a	n/a	n/a	n/a
395.4447	0.7	COLOR_NAME	52	Incongruent	żółty	yellow	czerwony	red	hit	n/a
396.1247	n/a	RESPONSE	n/a	n/a	n/a	n/a	n/a	n/a	n/a	yellow
396.1447	1.0167	ITI	n/a	n/a	n/a	n/a	n/a	n/a	n/a	n/a
397.1614	0.5167	FIXCROSS	n/a	n/a	n/a	n/a	n/a	n/a	n/a	n/a
397.6781	0.9	COLOR_NAME	53	Incongruent	zielony	green	niebieski	blue	hit	n/a
398.5512	n/a	RESPONSE	n/a	n/a	n/a	n/a	n/a	n/a	n/a	green
398.5781	1.0166	ITI	n/a	n/a	n/a	n/a	n/a	n/a	n/a	n/a
399.5947	0.5167	FIXCROSS	n/a	n/a	n/a	n/a	n/a	n/a	n/a	n/a
400.1114	0.7	COLOR_NAME	54	Neutral	niebieski	blue	Neutral	Neutral	hit	n/a
400.7862	n/a	RESPONSE	n/a	n/a	n/a	n/a	n/a	n/a	n/a	blue
400.8114	1.0167	ITI	n/a	n/a	n/a	n/a	n/a	n/a	n/a	n/a
401.8281	0.5167	FIXCROSS	n/a	n/a	n/a	n/a	n/a	n/a	n/a	n/a
402.3447	0.9834	COLOR_NAME	55	Incongruent	zielony	green	niebieski	blue	hit	n/a
403.2927	n/a	RESPONSE	n/a	n/a	n/a	n/a	n/a	n/a	n/a	green
403.3281	1.0167	ITI	n/a	n/a	n/a	n/a	n/a	n/a	n/a	n/a
404.3448	0.5167	FIXCROSS	n/a	n/a	n/a	n/a	n/a	n/a	n/a	n/a
404.8614	0.6833	COLOR_NAME	56	Neutral	żółty	yellow	Neutral	Neutral	hit	n/a
405.5117	n/a	RESPONSE	n/a	n/a	n/a	n/a	n/a	n/a	n/a	yellow
405.5448	1.0166	ITI	n/a	n/a	n/a	n/a	n/a	n/a	n/a	n/a
406.5614	0.5167	FIXCROSS	n/a	n/a	n/a	n/a	n/a	n/a	n/a	n/a
407.0781	0.7333	COLOR_NAME	57	Neutral	niebieski	blue	Neutral	Neutral	hit	n/a
407.7787	n/a	RESPONSE	n/a	n/a	n/a	n/a	n/a	n/a	n/a	blue
407.8115	1.0167	ITI	n/a	n/a	n/a	n/a	n/a	n/a	n/a	n/a
408.8281	0.5167	FIXCROSS	n/a	n/a	n/a	n/a	n/a	n/a	n/a	n/a
409.3448	1.0	COLOR_NAME	58	Neutral	zielony	green	Neutral	Neutral	hit	n/a
410.317	n/a	RESPONSE	n/a	n/a	n/a	n/a	n/a	n/a	n/a	green
410.3448	1.0167	ITI	n/a	n/a	n/a	n/a	n/a	n/a	n/a	n/a
411.3615	0.5167	FIXCROSS	n/a	n/a	n/a	n/a	n/a	n/a	n/a	n/a
411.8781	0.8	COLOR_NAME	59	Incongruent	żółty	yellow	niebieski	blue	hit	n/a
412.6477	n/a	RESPONSE	n/a	n/a	n/a	n/a	n/a	n/a	n/a	yellow
412.6782	1.0167	ITI	n/a	n/a	n/a	n/a	n/a	n/a	n/a	n/a
413.6948	0.5167	FIXCROSS	n/a	n/a	n/a	n/a	n/a	n/a	n/a	n/a
414.2115	0.8167	COLOR_NAME	60	Incongruent	niebieski	blue	zielony	green	hit	n/a
415.0104	n/a	RESPONSE	n/a	n/a	n/a	n/a	n/a	n/a	n/a	blue
415.0282	1.0166	ITI	n/a	n/a	n/a	n/a	n/a	n/a	n/a	n/a
416.0448	0.5167	FIXCROSS	n/a	n/a	n/a	n/a	n/a	n/a	n/a	n/a
416.5615	1.0667	COLOR_NAME	61	Neutral	żółty	yellow	Neutral	Neutral	hit	n/a
417.5965	n/a	RESPONSE	n/a	n/a	n/a	n/a	n/a	n/a	n/a	yellow
417.6282	1.0167	ITI	n/a	n/a	n/a	n/a	n/a	n/a	n/a	n/a
418.6449	0.5167	FIXCROSS	n/a	n/a	n/a	n/a	n/a	n/a	n/a	n/a
419.1615	1.05	COLOR_NAME	62	Neutral	czerwony	red	Neutral	Neutral	hit	n/a
420.1828	n/a	RESPONSE	n/a	n/a	n/a	n/a	n/a	n/a	n/a	red
420.2115	1.0167	ITI	n/a	n/a	n/a	n/a	n/a	n/a	n/a	n/a
421.2282	0.5166	FIXCROSS	n/a	n/a	n/a	n/a	n/a	n/a	n/a	n/a
421.7449	0.75	COLOR_NAME	63	Neutral	żółty	yellow	Neutral	Neutral	hit	n/a
422.4657	n/a	RESPONSE	n/a	n/a	n/a	n/a	n/a	n/a	n/a	yellow
422.4949	1.0166	ITI	n/a	n/a	n/a	n/a	n/a	n/a	n/a	n/a
423.5115	0.5167	FIXCROSS	n/a	n/a	n/a	n/a	n/a	n/a	n/a	n/a
424.0282	0.9167	COLOR_NAME	64	Incongruent	czerwony	red	żółty	yellow	hit	n/a
424.9242	n/a	RESPONSE	n/a	n/a	n/a	n/a	n/a	n/a	n/a	red
424.9449	1.0167	ITI	n/a	n/a	n/a	n/a	n/a	n/a	n/a	n/a
425.9616	0.5167	FIXCROSS	n/a	n/a	n/a	n/a	n/a	n/a	n/a	n/a
426.4783	0.8667	COLOR_NAME	65	Neutral	zielony	green	Neutral	Neutral	hit	n/a
427.3188	n/a	RESPONSE	n/a	n/a	n/a	n/a	n/a	n/a	n/a	green
427.3449	1.0167	ITI	n/a	n/a	n/a	n/a	n/a	n/a	n/a	n/a
428.3616	0.5167	FIXCROSS	n/a	n/a	n/a	n/a	n/a	n/a	n/a	n/a
428.8783	0.8667	COLOR_NAME	66	Neutral	czerwony	red	Neutral	Neutral	hit	n/a
429.7134	n/a	RESPONSE	n/a	n/a	n/a	n/a	n/a	n/a	n/a	red
429.7449	1.0167	ITI	n/a	n/a	n/a	n/a	n/a	n/a	n/a	n/a
430.7616	0.5167	FIXCROSS	n/a	n/a	n/a	n/a	n/a	n/a	n/a	n/a
431.2783	1.0	COLOR_NAME	67	Incongruent	żółty	yellow	zielony	green	hit	n/a
432.2517	n/a	RESPONSE	n/a	n/a	n/a	n/a	n/a	n/a	n/a	yellow
432.2783	1.0167	ITI	n/a	n/a	n/a	n/a	n/a	n/a	n/a	n/a
433.295	0.5167	FIXCROSS	n/a	n/a	n/a	n/a	n/a	n/a	n/a	n/a
433.8117	1.15	COLOR_NAME	68	Incongruent	zielony	green	czerwony	red	hit	n/a
434.9337	n/a	RESPONSE	n/a	n/a	n/a	n/a	n/a	n/a	n/a	green
434.9617	1.0167	ITI	n/a	n/a	n/a	n/a	n/a	n/a	n/a	n/a
435.9783	0.5167	FIXCROSS	n/a	n/a	n/a	n/a	n/a	n/a	n/a	n/a
436.495	1.1333	COLOR_NAME	69	Incongruent	czerwony	red	niebieski	blue	hit	n/a
437.5998	n/a	RESPONSE	n/a	n/a	n/a	n/a	n/a	n/a	n/a	red
437.6283	1.0167	ITI	n/a	n/a	n/a	n/a	n/a	n/a	n/a	n/a
438.645	0.5166	FIXCROSS	n/a	n/a	n/a	n/a	n/a	n/a	n/a	n/a
439.1616	1.3167	COLOR_NAME	70	Incongruent	czerwony	red	żółty	yellow	hit	n/a
440.4574	n/a	RESPONSE	n/a	n/a	n/a	n/a	n/a	n/a	n/a	red
440.4784	1.0167	ITI	n/a	n/a	n/a	n/a	n/a	n/a	n/a	n/a
441.495	0.5166	FIXCROSS	n/a	n/a	n/a	n/a	n/a	n/a	n/a	n/a
442.0117	0.7667	COLOR_NAME	71	Incongruent	żółty	yellow	zielony	green	hit	n/a
442.7562	n/a	RESPONSE	n/a	n/a	n/a	n/a	n/a	n/a	n/a	yellow
442.7784	1.0167	ITI	n/a	n/a	n/a	n/a	n/a	n/a	n/a	n/a
443.7951	0.5167	FIXCROSS	n/a	n/a	n/a	n/a	n/a	n/a	n/a	n/a
444.3117	1.1666	COLOR_NAME	72	Neutral	niebieski	blue	Neutral	Neutral	hit	n/a
445.4542	n/a	RESPONSE	n/a	n/a	n/a	n/a	n/a	n/a	n/a	blue
445.4784	1.0334	ITI	n/a	n/a	n/a	n/a	n/a	n/a	n/a	n/a
448.7588	n/a	RESPONSE	n/a	n/a	n/a	n/a	n/a	n/a	n/a	n/a
