onset	duration	trial_type	melody_number	melody_part	key	sound	action
0.0	14.081	CUE_START	n/a	n/a	n/a	n/a	n/a
14.082	7.76	FIXCROSS	n/a	n/a	n/a	n/a	n/a
21.841	6.324	CUE_LISTEN	M1	1	n/a	n/a	n/a
28.165	7.758	FIXCROSS	n/a	n/a	n/a	n/a	n/a
35.924	6.317	CUE_PLAYBACK_RIGHT_HAND	M1	1	n/a	n/a	n/a
36.646	n/a	RESPONSE	M1	1	19	G4	press
37.146	n/a	RESPONSE	M1	1	16	E4	press
37.198	n/a	RESPONSE	M1	1	19	G4	release
37.319	n/a	RESPONSE	M1	1	16	E4	release
37.64	n/a	RESPONSE	M1	1	16	E4	press
38.143	n/a	RESPONSE	M1	1	17	F4	press
38.174	n/a	RESPONSE	M1	1	16	E4	release
38.635	n/a	RESPONSE	M1	1	14	D4	press
38.676	n/a	RESPONSE	M1	1	17	F4	release
38.808	n/a	RESPONSE	M1	1	14	D4	release
39.151	n/a	RESPONSE	M1	1	14	D4	press
39.651	n/a	RESPONSE	M1	1	12	C4	press
39.821	n/a	RESPONSE	M1	1	14	D4	release
39.893	n/a	RESPONSE	M1	1	16	E4	press
39.915	n/a	RESPONSE	M1	1	12	C4	release
40.158	n/a	RESPONSE	M1	1	19	G4	press
40.186	n/a	RESPONSE	M1	1	16	E4	release
40.978	n/a	RESPONSE	M1	1	19	G4	release
42.24	7.758	FIXCROSS	n/a	n/a	n/a	n/a	n/a
49.999	6.317	CUE_LISTEN	M1	2	n/a	n/a	n/a
56.315	7.758	FIXCROSS	n/a	n/a	n/a	n/a	n/a
64.074	6.325	CUE_PLAYBACK_RIGHT_HAND	M1	2	n/a	n/a	n/a
64.894	n/a	RESPONSE	M1	2	19	G4	press
65.433	n/a	RESPONSE	M1	2	16	E4	press
65.493	n/a	RESPONSE	M1	2	19	G4	release
65.635	n/a	RESPONSE	M1	2	16	E4	release
65.939	n/a	RESPONSE	M1	2	16	E4	press
66.468	n/a	RESPONSE	M1	2	17	F4	press
66.511	n/a	RESPONSE	M1	2	16	E4	release
66.96	n/a	RESPONSE	M1	2	14	D4	press
66.981	n/a	RESPONSE	M1	2	17	F4	release
67.124	n/a	RESPONSE	M1	2	14	D4	release
67.496	n/a	RESPONSE	M1	2	14	D4	press
68.026	n/a	RESPONSE	M1	2	12	C4	press
68.098	n/a	RESPONSE	M1	2	14	D4	release
68.271	n/a	RESPONSE	M1	2	16	E4	press
68.32	n/a	RESPONSE	M1	2	12	C4	release
68.561	n/a	RESPONSE	M1	2	12	C4	press
68.572	n/a	RESPONSE	M1	2	16	E4	release
69.394	n/a	RESPONSE	M1	2	12	C4	release
70.399	7.758	FIXCROSS	n/a	n/a	n/a	n/a	n/a
78.157	6.317	CUE_LISTEN	M1	1	n/a	n/a	n/a
84.474	7.758	FIXCROSS	n/a	n/a	n/a	n/a	n/a
92.232	6.317	CUE_PLAYBACK_BOTH_HANDS	M1	1	n/a	n/a	n/a
92.979	n/a	RESPONSE	M1	1	07	G3	press
93.001	n/a	RESPONSE	M1	1	19	G4	press
93.484	n/a	RESPONSE	M1	1	04	E3	press
93.521	n/a	RESPONSE	M1	1	16	E4	press
93.558	n/a	RESPONSE	M1	1	07	G3	release
93.632	n/a	RESPONSE	M1	1	19	G4	release
93.73	n/a	RESPONSE	M1	1	16	E4	release
93.744	n/a	RESPONSE	M1	1	04	E3	release
93.999	n/a	RESPONSE	M1	1	16	E4	press
94.001	n/a	RESPONSE	M1	1	04	E3	press
94.501	n/a	RESPONSE	M1	1	05	F3	press
94.509	n/a	RESPONSE	M1	1	17	F4	press
94.559	n/a	RESPONSE	M1	1	16	E4	release
94.564	n/a	RESPONSE	M1	1	04	E3	release
94.991	n/a	RESPONSE	M1	1	02	D3	press
95.031	n/a	RESPONSE	M1	1	14	D4	press
95.078	n/a	RESPONSE	M1	1	17	F4	release
95.126	n/a	RESPONSE	M1	1	05	F3	release
95.218	n/a	RESPONSE	M1	1	02	D3	release
95.22	n/a	RESPONSE	M1	1	14	D4	release
95.524	n/a	RESPONSE	M1	1	02	D3	press
95.538	n/a	RESPONSE	M1	1	14	D4	press
96.041	n/a	RESPONSE	M1	1	00	C3	press
96.061	n/a	RESPONSE	M1	1	02	D3	release
96.082	n/a	RESPONSE	M1	1	12	C4	press
96.164	n/a	RESPONSE	M1	1	14	D4	release
96.298	n/a	RESPONSE	M1	1	04	E3	press
96.336	n/a	RESPONSE	M1	1	16	E4	press
96.368	n/a	RESPONSE	M1	1	00	C3	release
96.389	n/a	RESPONSE	M1	1	12	C4	release
96.57	n/a	RESPONSE	M1	1	07	G3	press
96.581	n/a	RESPONSE	M1	1	19	G4	press
96.622	n/a	RESPONSE	M1	1	16	E4	release
96.634	n/a	RESPONSE	M1	1	04	E3	release
97.455	n/a	RESPONSE	M1	1	07	G3	release
97.536	n/a	RESPONSE	M1	1	19	G4	release
98.549	7.758	FIXCROSS	n/a	n/a	n/a	n/a	n/a
106.307	6.325	CUE_LISTEN	M1	2	n/a	n/a	n/a
112.632	7.758	FIXCROSS	n/a	n/a	n/a	n/a	n/a
120.39	6.317	CUE_PLAYBACK_BOTH_HANDS	M1	2	n/a	n/a	n/a
121.048	n/a	RESPONSE	M1	2	07	G3	press
121.069	n/a	RESPONSE	M1	2	19	G4	press
121.55	n/a	RESPONSE	M1	2	04	E3	press
121.591	n/a	RESPONSE	M1	2	16	E4	press
121.642	n/a	RESPONSE	M1	2	07	G3	release
121.664	n/a	RESPONSE	M1	2	19	G4	release
121.778	n/a	RESPONSE	M1	2	16	E4	release
121.806	n/a	RESPONSE	M1	2	04	E3	release
122.072	n/a	RESPONSE	M1	2	16	E4	press
122.092	n/a	RESPONSE	M1	2	04	E3	press
122.59	n/a	RESPONSE	M1	2	17	F4	press
122.595	n/a	RESPONSE	M1	2	05	F3	press
122.642	n/a	RESPONSE	M1	2	16	E4	release
122.662	n/a	RESPONSE	M1	2	04	E3	release
123.096	n/a	RESPONSE	M1	2	02	D3	press
123.099	n/a	RESPONSE	M1	2	14	D4	press
123.145	n/a	RESPONSE	M1	2	17	F4	release
123.212	n/a	RESPONSE	M1	2	05	F3	release
123.276	n/a	RESPONSE	M1	2	14	D4	release
123.292	n/a	RESPONSE	M1	2	02	D3	release
123.599	n/a	RESPONSE	M1	2	02	D3	press
123.612	n/a	RESPONSE	M1	2	14	D4	press
124.119	n/a	RESPONSE	M1	2	00	C3	press
124.155	n/a	RESPONSE	M1	2	02	D3	release
124.159	n/a	RESPONSE	M1	2	12	C4	press
124.204	n/a	RESPONSE	M1	2	14	D4	release
124.344	n/a	RESPONSE	M1	2	04	E3	press
124.412	n/a	RESPONSE	M1	2	16	E4	press
124.428	n/a	RESPONSE	M1	2	00	C3	release
124.442	n/a	RESPONSE	M1	2	12	C4	release
124.654	n/a	RESPONSE	M1	2	12	C4	press
124.675	n/a	RESPONSE	M1	2	00	C3	press
124.68	n/a	RESPONSE	M1	2	16	E4	release
124.734	n/a	RESPONSE	M1	2	04	E3	release
125.544	n/a	RESPONSE	M1	2	12	C4	release
125.609	n/a	RESPONSE	M1	2	00	C3	release
126.707	7.758	FIXCROSS	n/a	n/a	n/a	n/a	n/a
134.466	6.317	CUE_LISTEN	M1	1	n/a	n/a	n/a
140.782	7.758	FIXCROSS	n/a	n/a	n/a	n/a	n/a
148.541	6.325	CUE_PLAYBACK_RIGHT_HAND	M1	1	n/a	n/a	n/a
149.2	n/a	RESPONSE	M1	1	19	G4	press
149.714	n/a	RESPONSE	M1	1	16	E4	press
149.782	n/a	RESPONSE	M1	1	19	G4	release
149.924	n/a	RESPONSE	M1	1	16	E4	release
150.225	n/a	RESPONSE	M1	1	16	E4	press
150.719	n/a	RESPONSE	M1	1	17	F4	press
150.768	n/a	RESPONSE	M1	1	16	E4	release
151.229	n/a	RESPONSE	M1	1	14	D4	press
151.26	n/a	RESPONSE	M1	1	17	F4	release
151.391	n/a	RESPONSE	M1	1	14	D4	release
151.732	n/a	RESPONSE	M1	1	14	D4	press
152.229	n/a	RESPONSE	M1	1	12	C4	press
152.319	n/a	RESPONSE	M1	1	14	D4	release
152.518	n/a	RESPONSE	M1	1	16	E4	press
152.53	n/a	RESPONSE	M1	1	12	C4	release
152.754	n/a	RESPONSE	M1	1	19	G4	press
152.785	n/a	RESPONSE	M1	1	16	E4	release
153.595	n/a	RESPONSE	M1	1	19	G4	release
154.866	7.758	FIXCROSS	n/a	n/a	n/a	n/a	n/a
162.624	6.317	CUE_LISTEN	M1	2	n/a	n/a	n/a
168.94	7.758	FIXCROSS	n/a	n/a	n/a	n/a	n/a
176.699	6.325	CUE_PLAYBACK_RIGHT_HAND	M1	2	n/a	n/a	n/a
177.411	n/a	RESPONSE	M1	2	19	G4	press
177.904	n/a	RESPONSE	M1	2	16	E4	press
177.965	n/a	RESPONSE	M1	2	19	G4	release
178.088	n/a	RESPONSE	M1	2	16	E4	release
178.397	n/a	RESPONSE	M1	2	16	E4	press
178.9	n/a	RESPONSE	M1	2	17	F4	press
178.931	n/a	RESPONSE	M1	2	16	E4	release
179.411	n/a	RESPONSE	M1	2	14	D4	press
179.442	n/a	RESPONSE	M1	2	17	F4	release
179.564	n/a	RESPONSE	M1	2	14	D4	release
179.885	n/a	RESPONSE	M1	2	14	D4	press
180.386	n/a	RESPONSE	M1	2	12	C4	press
180.457	n/a	RESPONSE	M1	2	14	D4	release
180.669	n/a	RESPONSE	M1	2	16	E4	press
180.68	n/a	RESPONSE	M1	2	12	C4	release
180.901	n/a	RESPONSE	M1	2	12	C4	press
180.962	n/a	RESPONSE	M1	2	16	E4	release
181.934	n/a	RESPONSE	M1	2	12	C4	release
183.024	7.758	FIXCROSS	n/a	n/a	n/a	n/a	n/a
190.782	6.317	CUE_LISTEN	M1	1	n/a	n/a	n/a
197.099	7.758	FIXCROSS	n/a	n/a	n/a	n/a	n/a
204.857	6.317	CUE_PLAYBACK_BOTH_HANDS	M1	1	n/a	n/a	n/a
205.519	n/a	RESPONSE	M1	1	07	G3	press
205.521	n/a	RESPONSE	M1	1	19	G4	press
206.034	n/a	RESPONSE	M1	1	04	E3	press
206.075	n/a	RESPONSE	M1	1	16	E4	press
206.126	n/a	RESPONSE	M1	1	07	G3	release
206.199	n/a	RESPONSE	M1	1	19	G4	release
206.27	n/a	RESPONSE	M1	1	16	E4	release
206.291	n/a	RESPONSE	M1	1	04	E3	release
206.531	n/a	RESPONSE	M1	1	16	E4	press
206.552	n/a	RESPONSE	M1	1	04	E3	press
207.024	n/a	RESPONSE	M1	1	05	F3	press
207.036	n/a	RESPONSE	M1	1	17	F4	press
207.076	n/a	RESPONSE	M1	1	16	E4	release
207.079	n/a	RESPONSE	M1	1	04	E3	release
207.509	n/a	RESPONSE	M1	1	02	D3	press
207.53	n/a	RESPONSE	M1	1	14	D4	press
207.571	n/a	RESPONSE	M1	1	17	F4	release
207.632	n/a	RESPONSE	M1	1	05	F3	release
207.704	n/a	RESPONSE	M1	1	14	D4	release
207.707	n/a	RESPONSE	M1	1	02	D3	release
208.007	n/a	RESPONSE	M1	1	14	D4	press
208.01	n/a	RESPONSE	M1	1	02	D3	press
208.51	n/a	RESPONSE	M1	1	00	C3	press
208.541	n/a	RESPONSE	M1	1	02	D3	release
208.544	n/a	RESPONSE	M1	1	12	C4	press
208.604	n/a	RESPONSE	M1	1	14	D4	release
208.765	n/a	RESPONSE	M1	1	04	E3	press
208.796	n/a	RESPONSE	M1	1	16	E4	press
208.819	n/a	RESPONSE	M1	1	00	C3	release
208.849	n/a	RESPONSE	M1	1	12	C4	release
209.042	n/a	RESPONSE	M1	1	07	G3	press
209.061	n/a	RESPONSE	M1	1	19	G4	press
209.092	n/a	RESPONSE	M1	1	04	E3	release
209.095	n/a	RESPONSE	M1	1	16	E4	release
209.895	n/a	RESPONSE	M1	1	19	G4	release
209.906	n/a	RESPONSE	M1	1	07	G3	release
211.174	7.758	FIXCROSS	n/a	n/a	n/a	n/a	n/a
218.932	6.325	CUE_LISTEN	M1	2	n/a	n/a	n/a
225.257	7.758	FIXCROSS	n/a	n/a	n/a	n/a	n/a
233.016	6.317	CUE_PLAYBACK_BOTH_HANDS	M1	2	n/a	n/a	n/a
233.672	n/a	RESPONSE	M1	2	19	G4	press
233.68	n/a	RESPONSE	M1	2	07	G3	press
234.149	n/a	RESPONSE	M1	2	04	E3	press
234.197	n/a	RESPONSE	M1	2	16	E4	press
234.246	n/a	RESPONSE	M1	2	07	G3	release
234.311	n/a	RESPONSE	M1	2	19	G4	release
234.39	n/a	RESPONSE	M1	2	16	E4	release
234.394	n/a	RESPONSE	M1	2	04	E3	release
234.677	n/a	RESPONSE	M1	2	16	E4	press
234.685	n/a	RESPONSE	M1	2	04	E3	press
235.169	n/a	RESPONSE	M1	2	17	F4	press
235.174	n/a	RESPONSE	M1	2	05	F3	press
235.229	n/a	RESPONSE	M1	2	04	E3	release
235.232	n/a	RESPONSE	M1	2	16	E4	release
235.67	n/a	RESPONSE	M1	2	02	D3	press
235.691	n/a	RESPONSE	M1	2	14	D4	press
235.742	n/a	RESPONSE	M1	2	17	F4	release
235.764	n/a	RESPONSE	M1	2	05	F3	release
235.866	n/a	RESPONSE	M1	2	14	D4	release
235.876	n/a	RESPONSE	M1	2	02	D3	release
236.187	n/a	RESPONSE	M1	2	02	D3	press
236.199	n/a	RESPONSE	M1	2	14	D4	press
236.66	n/a	RESPONSE	M1	2	00	C3	press
236.691	n/a	RESPONSE	M1	2	02	D3	release
236.702	n/a	RESPONSE	M1	2	12	C4	press
236.796	n/a	RESPONSE	M1	2	14	D4	release
236.935	n/a	RESPONSE	M1	2	04	E3	press
236.946	n/a	RESPONSE	M1	2	16	E4	press
236.98	n/a	RESPONSE	M1	2	12	C4	release
236.991	n/a	RESPONSE	M1	2	00	C3	release
237.19	n/a	RESPONSE	M1	2	12	C4	press
237.202	n/a	RESPONSE	M1	2	00	C3	press
237.222	n/a	RESPONSE	M1	2	16	E4	release
237.235	n/a	RESPONSE	M1	2	04	E3	release
238.036	n/a	RESPONSE	M1	2	00	C3	release
238.039	n/a	RESPONSE	M1	2	12	C4	release
239.332	7.758	FIXCROSS	n/a	n/a	n/a	n/a	n/a
247.091	6.317	CUE_LISTEN	M1	1	n/a	n/a	n/a
253.407	7.758	FIXCROSS	n/a	n/a	n/a	n/a	n/a
261.166	6.325	CUE_PLAYBACK_RIGHT_HAND	M1	1	n/a	n/a	n/a
261.736	n/a	RESPONSE	M1	1	19	G4	press
262.239	n/a	RESPONSE	M1	1	16	E4	press
262.326	n/a	RESPONSE	M1	1	19	G4	release
262.424	n/a	RESPONSE	M1	1	16	E4	release
262.719	n/a	RESPONSE	M1	1	16	E4	press
263.212	n/a	RESPONSE	M1	1	17	F4	press
263.255	n/a	RESPONSE	M1	1	16	E4	release
263.732	n/a	RESPONSE	M1	1	14	D4	press
263.764	n/a	RESPONSE	M1	1	17	F4	release
263.886	n/a	RESPONSE	M1	1	14	D4	release
264.224	n/a	RESPONSE	M1	1	14	D4	press
264.719	n/a	RESPONSE	M1	1	12	C4	press
264.79	n/a	RESPONSE	M1	1	14	D4	release
264.986	n/a	RESPONSE	M1	1	16	E4	press
265.025	n/a	RESPONSE	M1	1	12	C4	release
265.239	n/a	RESPONSE	M1	1	19	G4	press
265.257	n/a	RESPONSE	M1	1	16	E4	release
265.927	n/a	RESPONSE	M1	1	19	G4	release
267.491	7.758	FIXCROSS	n/a	n/a	n/a	n/a	n/a
275.249	6.317	CUE_LISTEN	M1	2	n/a	n/a	n/a
281.566	7.758	FIXCROSS	n/a	n/a	n/a	n/a	n/a
289.324	6.317	CUE_PLAYBACK_RIGHT_HAND	M1	2	n/a	n/a	n/a
289.862	n/a	RESPONSE	M1	2	19	G4	press
290.361	n/a	RESPONSE	M1	2	16	E4	press
290.432	n/a	RESPONSE	M1	2	19	G4	release
290.546	n/a	RESPONSE	M1	2	16	E4	release
290.855	n/a	RESPONSE	M1	2	16	E4	press
291.346	n/a	RESPONSE	M1	2	17	F4	press
291.377	n/a	RESPONSE	M1	2	16	E4	release
291.859	n/a	RESPONSE	M1	2	14	D4	press
291.9	n/a	RESPONSE	M1	2	17	F4	release
292.011	n/a	RESPONSE	M1	2	14	D4	release
292.351	n/a	RESPONSE	M1	2	14	D4	press
292.836	n/a	RESPONSE	M1	2	12	C4	press
292.884	n/a	RESPONSE	M1	2	14	D4	release
293.121	n/a	RESPONSE	M1	2	16	E4	press
293.14	n/a	RESPONSE	M1	2	12	C4	release
293.351	n/a	RESPONSE	M1	2	12	C4	press
293.395	n/a	RESPONSE	M1	2	16	E4	release
294.136	n/a	RESPONSE	M1	2	12	C4	release
295.641	7.758	FIXCROSS	n/a	n/a	n/a	n/a	n/a
303.399	6.325	CUE_LISTEN	M1	1	n/a	n/a	n/a
309.724	7.758	FIXCROSS	n/a	n/a	n/a	n/a	n/a
317.482	6.317	CUE_PLAYBACK_BOTH_HANDS	M1	1	n/a	n/a	n/a
318.092	n/a	RESPONSE	M1	1	19	G4	press
318.095	n/a	RESPONSE	M1	1	07	G3	press
318.575	n/a	RESPONSE	M1	1	04	E3	press
318.626	n/a	RESPONSE	M1	1	16	E4	press
318.667	n/a	RESPONSE	M1	1	07	G3	release
318.721	n/a	RESPONSE	M1	1	19	G4	release
318.801	n/a	RESPONSE	M1	1	16	E4	release
318.832	n/a	RESPONSE	M1	1	04	E3	release
319.094	n/a	RESPONSE	M1	1	16	E4	press
319.105	n/a	RESPONSE	M1	1	04	E3	press
319.606	n/a	RESPONSE	M1	1	17	F4	press
319.617	n/a	RESPONSE	M1	1	05	F3	press
319.641	n/a	RESPONSE	M1	1	16	E4	release
319.65	n/a	RESPONSE	M1	1	04	E3	release
320.075	n/a	RESPONSE	M1	1	02	D3	press
320.114	n/a	RESPONSE	M1	1	14	D4	press
320.166	n/a	RESPONSE	M1	1	17	F4	release
320.196	n/a	RESPONSE	M1	1	05	F3	release
320.277	n/a	RESPONSE	M1	1	14	D4	release
320.291	n/a	RESPONSE	M1	1	02	D3	release
320.58	n/a	RESPONSE	M1	1	02	D3	press
320.592	n/a	RESPONSE	M1	1	14	D4	press
321.064	n/a	RESPONSE	M1	1	00	C3	press
321.114	n/a	RESPONSE	M1	1	12	C4	press
321.116	n/a	RESPONSE	M1	1	02	D3	release
321.206	n/a	RESPONSE	M1	1	14	D4	release
321.34	n/a	RESPONSE	M1	1	16	E4	press
321.349	n/a	RESPONSE	M1	1	04	E3	press
321.39	n/a	RESPONSE	M1	1	00	C3	release
321.401	n/a	RESPONSE	M1	1	12	C4	release
321.582	n/a	RESPONSE	M1	1	07	G3	press
321.614	n/a	RESPONSE	M1	1	19	G4	press
321.635	n/a	RESPONSE	M1	1	04	E3	release
321.646	n/a	RESPONSE	M1	1	16	E4	release
322.402	n/a	RESPONSE	M1	1	07	G3	release
322.405	n/a	RESPONSE	M1	1	19	G4	release
323.799	7.758	FIXCROSS	n/a	n/a	n/a	n/a	n/a
331.558	6.317	CUE_LISTEN	M1	2	n/a	n/a	n/a
337.874	7.758	FIXCROSS	n/a	n/a	n/a	n/a	n/a
345.633	6.325	CUE_PLAYBACK_BOTH_HANDS	M1	2	n/a	n/a	n/a
346.275	n/a	RESPONSE	M1	2	19	G4	press
346.277	n/a	RESPONSE	M1	2	07	G3	press
346.777	n/a	RESPONSE	M1	2	04	E3	press
346.818	n/a	RESPONSE	M1	2	16	E4	press
346.85	n/a	RESPONSE	M1	2	07	G3	release
346.931	n/a	RESPONSE	M1	2	19	G4	release
347.005	n/a	RESPONSE	M1	2	16	E4	release
347.014	n/a	RESPONSE	M1	2	04	E3	release
347.295	n/a	RESPONSE	M1	2	16	E4	press
347.306	n/a	RESPONSE	M1	2	04	E3	press
347.79	n/a	RESPONSE	M1	2	17	F4	press
347.81	n/a	RESPONSE	M1	2	05	F3	press
347.842	n/a	RESPONSE	M1	2	04	E3	release
347.852	n/a	RESPONSE	M1	2	16	E4	release
348.274	n/a	RESPONSE	M1	2	02	D3	press
348.295	n/a	RESPONSE	M1	2	14	D4	press
348.348	n/a	RESPONSE	M1	2	17	F4	release
348.387	n/a	RESPONSE	M1	2	05	F3	release
348.468	n/a	RESPONSE	M1	2	14	D4	release
348.471	n/a	RESPONSE	M1	2	02	D3	release
348.771	n/a	RESPONSE	M1	2	02	D3	press
348.775	n/a	RESPONSE	M1	2	14	D4	press
349.246	n/a	RESPONSE	M1	2	00	C3	press
349.295	n/a	RESPONSE	M1	2	12	C4	press
349.297	n/a	RESPONSE	M1	2	02	D3	release
349.357	n/a	RESPONSE	M1	2	14	D4	release
349.518	n/a	RESPONSE	M1	2	04	E3	press
349.55	n/a	RESPONSE	M1	2	16	E4	press
349.571	n/a	RESPONSE	M1	2	12	C4	release
349.592	n/a	RESPONSE	M1	2	00	C3	release
349.774	n/a	RESPONSE	M1	2	12	C4	press
349.785	n/a	RESPONSE	M1	2	00	C3	press
349.798	n/a	RESPONSE	M1	2	16	E4	release
349.817	n/a	RESPONSE	M1	2	04	E3	release
350.611	n/a	RESPONSE	M1	2	00	C3	release
350.62	n/a	RESPONSE	M1	2	12	C4	release
351.958	7.758	FIXCROSS	n/a	n/a	n/a	n/a	n/a
359.716	6.317	CUE_LISTEN	M1	1	n/a	n/a	n/a
366.033	7.758	FIXCROSS	n/a	n/a	n/a	n/a	n/a
373.791	6.317	CUE_PLAYBACK_RIGHT_HAND	M1	1	n/a	n/a	n/a
374.326	n/a	RESPONSE	M1	1	19	G4	press
374.815	n/a	RESPONSE	M1	1	16	E4	press
374.871	n/a	RESPONSE	M1	1	19	G4	release
374.98	n/a	RESPONSE	M1	1	16	E4	release
375.328	n/a	RESPONSE	M1	1	16	E4	press
375.822	n/a	RESPONSE	M1	1	17	F4	press
375.851	n/a	RESPONSE	M1	1	16	E4	release
376.334	n/a	RESPONSE	M1	1	14	D4	press
376.375	n/a	RESPONSE	M1	1	17	F4	release
376.495	n/a	RESPONSE	M1	1	14	D4	release
376.836	n/a	RESPONSE	M1	1	14	D4	press
377.338	n/a	RESPONSE	M1	1	12	C4	press
377.408	n/a	RESPONSE	M1	1	14	D4	release
377.61	n/a	RESPONSE	M1	1	16	E4	press
377.621	n/a	RESPONSE	M1	1	12	C4	release
377.844	n/a	RESPONSE	M1	1	19	G4	press
377.865	n/a	RESPONSE	M1	1	16	E4	release
378.746	n/a	RESPONSE	M1	1	19	G4	release
380.108	7.758	FIXCROSS	n/a	n/a	n/a	n/a	n/a
387.866	6.325	CUE_LISTEN	M1	2	n/a	n/a	n/a
394.191	7.758	FIXCROSS	n/a	n/a	n/a	n/a	n/a
401.949	6.325	CUE_PLAYBACK_RIGHT_HAND	M1	2	n/a	n/a	n/a
402.65	n/a	RESPONSE	M1	2	19	G4	press
403.172	n/a	RESPONSE	M1	2	16	E4	press
403.241	n/a	RESPONSE	M1	2	19	G4	release
403.362	n/a	RESPONSE	M1	2	16	E4	release
403.66	n/a	RESPONSE	M1	2	16	E4	press
404.187	n/a	RESPONSE	M1	2	17	F4	press
404.215	n/a	RESPONSE	M1	2	16	E4	release
404.695	n/a	RESPONSE	M1	2	14	D4	press
404.738	n/a	RESPONSE	M1	2	17	F4	release
404.852	n/a	RESPONSE	M1	2	14	D4	release
405.172	n/a	RESPONSE	M1	2	14	D4	press
405.667	n/a	RESPONSE	M1	2	12	C4	press
405.717	n/a	RESPONSE	M1	2	14	D4	release
405.917	n/a	RESPONSE	M1	2	16	E4	press
405.958	n/a	RESPONSE	M1	2	12	C4	release
406.14	n/a	RESPONSE	M1	2	12	C4	press
406.161	n/a	RESPONSE	M1	2	16	E4	release
407.092	n/a	RESPONSE	M1	2	12	C4	release
408.274	7.758	FIXCROSS	n/a	n/a	n/a	n/a	n/a
416.033	6.317	CUE_LISTEN	M1	1	n/a	n/a	n/a
422.349	7.758	FIXCROSS	n/a	n/a	n/a	n/a	n/a
430.108	6.317	CUE_PLAYBACK_BOTH_HANDS	M1	1	n/a	n/a	n/a
430.872	n/a	RESPONSE	M1	1	19	G4	press
430.875	n/a	RESPONSE	M1	1	07	G3	press
431.385	n/a	RESPONSE	M1	1	04	E3	press
431.426	n/a	RESPONSE	M1	1	16	E4	press
431.487	n/a	RESPONSE	M1	1	07	G3	release
431.528	n/a	RESPONSE	M1	1	19	G4	release
431.601	n/a	RESPONSE	M1	1	04	E3	release
431.621	n/a	RESPONSE	M1	1	16	E4	release
431.895	n/a	RESPONSE	M1	1	04	E3	press
431.914	n/a	RESPONSE	M1	1	16	E4	press
432.392	n/a	RESPONSE	M1	1	05	F3	press
432.417	n/a	RESPONSE	M1	1	17	F4	press
432.436	n/a	RESPONSE	M1	1	04	E3	release
432.47	n/a	RESPONSE	M1	1	16	E4	release
432.877	n/a	RESPONSE	M1	1	02	D3	press
432.906	n/a	RESPONSE	M1	1	14	D4	press
432.947	n/a	RESPONSE	M1	1	17	F4	release
432.981	n/a	RESPONSE	M1	1	05	F3	release
433.067	n/a	RESPONSE	M1	1	14	D4	release
433.086	n/a	RESPONSE	M1	1	02	D3	release
433.381	n/a	RESPONSE	M1	1	02	D3	press
433.387	n/a	RESPONSE	M1	1	14	D4	press
433.874	n/a	RESPONSE	M1	1	00	C3	press
433.9	n/a	RESPONSE	M1	1	12	C4	press
433.925	n/a	RESPONSE	M1	1	02	D3	release
433.97	n/a	RESPONSE	M1	1	14	D4	release
434.156	n/a	RESPONSE	M1	1	04	E3	press
434.158	n/a	RESPONSE	M1	1	16	E4	press
434.197	n/a	RESPONSE	M1	1	12	C4	release
434.2	n/a	RESPONSE	M1	1	00	C3	release
434.395	n/a	RESPONSE	M1	1	07	G3	press
434.415	n/a	RESPONSE	M1	1	19	G4	press
434.436	n/a	RESPONSE	M1	1	04	E3	release
434.442	n/a	RESPONSE	M1	1	16	E4	release
435.215	n/a	RESPONSE	M1	1	19	G4	release
435.224	n/a	RESPONSE	M1	1	07	G3	release
436.424	7.758	FIXCROSS	n/a	n/a	n/a	n/a	n/a
444.183	6.325	CUE_LISTEN	M1	2	n/a	n/a	n/a
450.508	7.758	FIXCROSS	n/a	n/a	n/a	n/a	n/a
458.266	6.317	CUE_PLAYBACK_BOTH_HANDS	M1	2	n/a	n/a	n/a
458.875	n/a	RESPONSE	M1	2	07	G3	press
458.897	n/a	RESPONSE	M1	2	19	G4	press
459.376	n/a	RESPONSE	M1	2	04	E3	press
459.407	n/a	RESPONSE	M1	2	16	E4	press
459.458	n/a	RESPONSE	M1	2	07	G3	release
459.51	n/a	RESPONSE	M1	2	19	G4	release
459.592	n/a	RESPONSE	M1	2	16	E4	release
459.595	n/a	RESPONSE	M1	2	04	E3	release
459.884	n/a	RESPONSE	M1	2	04	E3	press
459.895	n/a	RESPONSE	M1	2	16	E4	press
460.408	n/a	RESPONSE	M1	2	05	F3	press
460.417	n/a	RESPONSE	M1	2	17	F4	press
460.458	n/a	RESPONSE	M1	2	04	E3	release
460.461	n/a	RESPONSE	M1	2	16	E4	release
460.892	n/a	RESPONSE	M1	2	02	D3	press
460.922	n/a	RESPONSE	M1	2	14	D4	press
460.975	n/a	RESPONSE	M1	2	17	F4	release
460.985	n/a	RESPONSE	M1	2	05	F3	release
461.096	n/a	RESPONSE	M1	2	14	D4	release
461.098	n/a	RESPONSE	M1	2	02	D3	release
461.388	n/a	RESPONSE	M1	2	02	D3	press
461.402	n/a	RESPONSE	M1	2	14	D4	press
461.931	n/a	RESPONSE	M1	2	00	C3	press
461.934	n/a	RESPONSE	M1	2	12	C4	press
461.984	n/a	RESPONSE	M1	2	02	D3	release
461.995	n/a	RESPONSE	M1	2	14	D4	release
462.188	n/a	RESPONSE	M1	2	16	E4	press
462.198	n/a	RESPONSE	M1	2	04	E3	press
462.232	n/a	RESPONSE	M1	2	12	C4	release
462.256	n/a	RESPONSE	M1	2	00	C3	release
462.433	n/a	RESPONSE	M1	2	12	C4	press
462.44	n/a	RESPONSE	M1	2	00	C3	press
462.451	n/a	RESPONSE	M1	2	16	E4	release
462.48	n/a	RESPONSE	M1	2	04	E3	release
463.34	n/a	RESPONSE	M1	2	00	C3	release
463.37	n/a	RESPONSE	M1	2	12	C4	release
464.583	7.758	FIXCROSS	n/a	n/a	n/a	n/a	n/a
472.341	6.317	CUE_LISTEN	M1	1	n/a	n/a	n/a
478.658	7.758	FIXCROSS	n/a	n/a	n/a	n/a	n/a
486.416	6.317	CUE_PLAYBACK_RIGHT_HAND	M1	1	n/a	n/a	n/a
487.023	n/a	RESPONSE	M1	1	19	G4	press
487.515	n/a	RESPONSE	M1	1	16	E4	press
487.576	n/a	RESPONSE	M1	1	19	G4	release
487.687	n/a	RESPONSE	M1	1	16	E4	release
488.0	n/a	RESPONSE	M1	1	16	E4	press
488.513	n/a	RESPONSE	M1	1	17	F4	press
488.535	n/a	RESPONSE	M1	1	16	E4	release
488.996	n/a	RESPONSE	M1	1	14	D4	press
489.035	n/a	RESPONSE	M1	1	17	F4	release
489.126	n/a	RESPONSE	M1	1	14	D4	release
489.517	n/a	RESPONSE	M1	1	14	D4	press
489.988	n/a	RESPONSE	M1	1	12	C4	press
490.032	n/a	RESPONSE	M1	1	14	D4	release
490.232	n/a	RESPONSE	M1	1	16	E4	press
490.282	n/a	RESPONSE	M1	1	12	C4	release
490.483	n/a	RESPONSE	M1	1	19	G4	press
490.495	n/a	RESPONSE	M1	1	16	E4	release
491.416	n/a	RESPONSE	M1	1	19	G4	release
492.733	7.758	FIXCROSS	n/a	n/a	n/a	n/a	n/a
500.491	6.325	CUE_LISTEN	M1	2	n/a	n/a	n/a
506.816	7.758	FIXCROSS	n/a	n/a	n/a	n/a	n/a
514.574	6.317	CUE_PLAYBACK_RIGHT_HAND	M1	2	n/a	n/a	n/a
515.053	n/a	RESPONSE	M1	2	19	G4	press
515.545	n/a	RESPONSE	M1	2	16	E4	press
515.615	n/a	RESPONSE	M1	2	19	G4	release
515.717	n/a	RESPONSE	M1	2	16	E4	release
516.038	n/a	RESPONSE	M1	2	16	E4	press
516.542	n/a	RESPONSE	M1	2	17	F4	press
516.571	n/a	RESPONSE	M1	2	16	E4	release
517.042	n/a	RESPONSE	M1	2	14	D4	press
517.073	n/a	RESPONSE	M1	2	17	F4	release
517.195	n/a	RESPONSE	M1	2	14	D4	release
517.566	n/a	RESPONSE	M1	2	14	D4	press
518.07	n/a	RESPONSE	M1	2	12	C4	press
518.13	n/a	RESPONSE	M1	2	14	D4	release
518.311	n/a	RESPONSE	M1	2	16	E4	press
518.352	n/a	RESPONSE	M1	2	12	C4	release
518.585	n/a	RESPONSE	M1	2	12	C4	press
518.605	n/a	RESPONSE	M1	2	16	E4	release
519.516	n/a	RESPONSE	M1	2	12	C4	release
520.891	7.758	FIXCROSS	n/a	n/a	n/a	n/a	n/a
528.65	6.317	CUE_LISTEN	M1	1	n/a	n/a	n/a
534.966	7.758	FIXCROSS	n/a	n/a	n/a	n/a	n/a
542.725	6.325	CUE_PLAYBACK_BOTH_HANDS	M1	1	n/a	n/a	n/a
543.511	n/a	RESPONSE	M1	1	07	G3	press
543.523	n/a	RESPONSE	M1	1	19	G4	press
544.012	n/a	RESPONSE	M1	1	04	E3	press
544.046	n/a	RESPONSE	M1	1	16	E4	press
544.103	n/a	RESPONSE	M1	1	07	G3	release
544.131	n/a	RESPONSE	M1	1	19	G4	release
544.207	n/a	RESPONSE	M1	1	04	E3	release
544.216	n/a	RESPONSE	M1	1	16	E4	release
544.503	n/a	RESPONSE	M1	1	04	E3	press
544.526	n/a	RESPONSE	M1	1	16	E4	press
545.018	n/a	RESPONSE	M1	1	05	F3	press
545.035	n/a	RESPONSE	M1	1	17	F4	press
545.068	n/a	RESPONSE	M1	1	16	E4	release
545.081	n/a	RESPONSE	M1	1	04	E3	release
545.497	n/a	RESPONSE	M1	1	02	D3	press
545.521	n/a	RESPONSE	M1	1	14	D4	press
545.573	n/a	RESPONSE	M1	1	17	F4	release
545.623	n/a	RESPONSE	M1	1	05	F3	release
545.673	n/a	RESPONSE	M1	1	14	D4	release
545.705	n/a	RESPONSE	M1	1	02	D3	release
545.996	n/a	RESPONSE	M1	1	02	D3	press
546.017	n/a	RESPONSE	M1	1	14	D4	press
546.498	n/a	RESPONSE	M1	1	00	C3	press
546.52	n/a	RESPONSE	M1	1	12	C4	press
546.541	n/a	RESPONSE	M1	1	02	D3	release
546.582	n/a	RESPONSE	M1	1	14	D4	release
546.764	n/a	RESPONSE	M1	1	04	E3	press
546.785	n/a	RESPONSE	M1	1	16	E4	press
546.826	n/a	RESPONSE	M1	1	12	C4	release
546.837	n/a	RESPONSE	M1	1	00	C3	release
547.04	n/a	RESPONSE	M1	1	07	G3	press
547.05	n/a	RESPONSE	M1	1	19	G4	press
547.081	n/a	RESPONSE	M1	1	16	E4	release
547.092	n/a	RESPONSE	M1	1	04	E3	release
547.795	n/a	RESPONSE	M1	1	19	G4	release
547.828	n/a	RESPONSE	M1	1	07	G3	release
549.05	7.758	FIXCROSS	n/a	n/a	n/a	n/a	n/a
556.808	6.317	CUE_LISTEN	M1	2	n/a	n/a	n/a
563.125	7.758	FIXCROSS	n/a	n/a	n/a	n/a	n/a
570.883	6.317	CUE_PLAYBACK_BOTH_HANDS	M1	2	n/a	n/a	n/a
571.568	n/a	RESPONSE	M1	2	07	G3	press
571.571	n/a	RESPONSE	M1	2	19	G4	press
572.062	n/a	RESPONSE	M1	2	04	E3	press
572.103	n/a	RESPONSE	M1	2	16	E4	press
572.172	n/a	RESPONSE	M1	2	07	G3	release
572.216	n/a	RESPONSE	M1	2	19	G4	release
572.285	n/a	RESPONSE	M1	2	04	E3	release
572.288	n/a	RESPONSE	M1	2	16	E4	release
572.573	n/a	RESPONSE	M1	2	04	E3	press
572.587	n/a	RESPONSE	M1	2	16	E4	press
573.073	n/a	RESPONSE	M1	2	05	F3	press
573.083	n/a	RESPONSE	M1	2	17	F4	press
573.123	n/a	RESPONSE	M1	2	04	E3	release
573.127	n/a	RESPONSE	M1	2	16	E4	release
573.522	n/a	RESPONSE	M1	2	02	D3	press
573.571	n/a	RESPONSE	M1	2	14	D4	press
573.621	n/a	RESPONSE	M1	2	05	F3	release
573.623	n/a	RESPONSE	M1	2	17	F4	release
573.725	n/a	RESPONSE	M1	2	14	D4	release
573.733	n/a	RESPONSE	M1	2	02	D3	release
574.055	n/a	RESPONSE	M1	2	02	D3	press
574.075	n/a	RESPONSE	M1	2	14	D4	press
574.548	n/a	RESPONSE	M1	2	00	C3	press
574.581	n/a	RESPONSE	M1	2	12	C4	press
574.585	n/a	RESPONSE	M1	2	02	D3	release
574.64	n/a	RESPONSE	M1	2	14	D4	release
574.806	n/a	RESPONSE	M1	2	04	E3	press
574.818	n/a	RESPONSE	M1	2	16	E4	press
574.86	n/a	RESPONSE	M1	2	12	C4	release
574.866	n/a	RESPONSE	M1	2	00	C3	release
575.065	n/a	RESPONSE	M1	2	00	C3	press
575.067	n/a	RESPONSE	M1	2	12	C4	press
575.08	n/a	RESPONSE	M1	2	16	E4	release
575.126	n/a	RESPONSE	M1	2	04	E3	release
575.837	n/a	RESPONSE	M1	2	00	C3	release
575.87	n/a	RESPONSE	M1	2	12	C4	release
577.2	7.758	FIXCROSS	n/a	n/a	n/a	n/a	n/a
584.958	6.325	CUE_LISTEN	M1	1	n/a	n/a	n/a
591.283	7.758	FIXCROSS	n/a	n/a	n/a	n/a	n/a
599.041	6.317	CUE_PLAYBACK_RIGHT_HAND	M1	1	n/a	n/a	n/a
599.622	n/a	RESPONSE	M1	1	19	G4	press
600.103	n/a	RESPONSE	M1	1	16	E4	press
600.165	n/a	RESPONSE	M1	1	19	G4	release
600.286	n/a	RESPONSE	M1	1	16	E4	release
600.617	n/a	RESPONSE	M1	1	16	E4	press
601.111	n/a	RESPONSE	M1	1	17	F4	press
601.14	n/a	RESPONSE	M1	1	16	E4	release
601.571	n/a	RESPONSE	M1	1	14	D4	press
601.602	n/a	RESPONSE	M1	1	17	F4	release
601.723	n/a	RESPONSE	M1	1	14	D4	release
602.088	n/a	RESPONSE	M1	1	14	D4	press
602.59	n/a	RESPONSE	M1	1	12	C4	press
602.662	n/a	RESPONSE	M1	1	14	D4	release
602.832	n/a	RESPONSE	M1	1	16	E4	press
602.867	n/a	RESPONSE	M1	1	12	C4	release
603.078	n/a	RESPONSE	M1	1	19	G4	press
603.098	n/a	RESPONSE	M1	1	16	E4	release
603.765	n/a	RESPONSE	M1	1	19	G4	release
605.358	7.758	FIXCROSS	n/a	n/a	n/a	n/a	n/a
613.116	6.317	CUE_LISTEN	M1	2	n/a	n/a	n/a
619.433	7.758	FIXCROSS	n/a	n/a	n/a	n/a	n/a
627.191	6.325	CUE_PLAYBACK_RIGHT_HAND	M1	2	n/a	n/a	n/a
627.844	n/a	RESPONSE	M1	2	19	G4	press
628.327	n/a	RESPONSE	M1	2	16	E4	press
628.377	n/a	RESPONSE	M1	2	19	G4	release
628.481	n/a	RESPONSE	M1	2	16	E4	release
628.82	n/a	RESPONSE	M1	2	16	E4	press
629.321	n/a	RESPONSE	M1	2	17	F4	press
629.343	n/a	RESPONSE	M1	2	16	E4	release
629.813	n/a	RESPONSE	M1	2	14	D4	press
629.844	n/a	RESPONSE	M1	2	17	F4	release
629.976	n/a	RESPONSE	M1	2	14	D4	release
630.297	n/a	RESPONSE	M1	2	14	D4	press
630.818	n/a	RESPONSE	M1	2	12	C4	press
630.841	n/a	RESPONSE	M1	2	14	D4	release
631.101	n/a	RESPONSE	M1	2	16	E4	press
631.122	n/a	RESPONSE	M1	2	12	C4	release
631.343	n/a	RESPONSE	M1	2	12	C4	press
631.374	n/a	RESPONSE	M1	2	16	E4	release
632.086	n/a	RESPONSE	M1	2	12	C4	release
633.516	7.758	FIXCROSS	n/a	n/a	n/a	n/a	n/a
641.275	6.317	CUE_LISTEN	M1	1	n/a	n/a	n/a
647.591	7.758	FIXCROSS	n/a	n/a	n/a	n/a	n/a
655.35	6.325	CUE_PLAYBACK_BOTH_HANDS	M1	1	n/a	n/a	n/a
656.217	n/a	RESPONSE	M1	1	07	G3	press
656.23	n/a	RESPONSE	M1	1	19	G4	press
656.71	n/a	RESPONSE	M1	1	04	E3	press
656.741	n/a	RESPONSE	M1	1	16	E4	press
656.804	n/a	RESPONSE	M1	1	07	G3	release
656.853	n/a	RESPONSE	M1	1	19	G4	release
656.924	n/a	RESPONSE	M1	1	04	E3	release
656.927	n/a	RESPONSE	M1	1	16	E4	release
657.207	n/a	RESPONSE	M1	1	04	E3	press
657.21	n/a	RESPONSE	M1	1	16	E4	press
657.72	n/a	RESPONSE	M1	1	05	F3	press
657.723	n/a	RESPONSE	M1	1	17	F4	press
657.76	n/a	RESPONSE	M1	1	04	E3	release
657.768	n/a	RESPONSE	M1	1	16	E4	release
658.18	n/a	RESPONSE	M1	1	02	D3	press
658.221	n/a	RESPONSE	M1	1	14	D4	press
658.272	n/a	RESPONSE	M1	1	17	F4	release
658.286	n/a	RESPONSE	M1	1	05	F3	release
658.374	n/a	RESPONSE	M1	1	14	D4	release
658.398	n/a	RESPONSE	M1	1	02	D3	release
658.69	n/a	RESPONSE	M1	1	02	D3	press
658.708	n/a	RESPONSE	M1	1	14	D4	press
659.19	n/a	RESPONSE	M1	1	00	C3	press
659.203	n/a	RESPONSE	M1	1	12	C4	press
659.224	n/a	RESPONSE	M1	1	02	D3	release
659.283	n/a	RESPONSE	M1	1	14	D4	release
659.454	n/a	RESPONSE	M1	1	04	E3	press
659.466	n/a	RESPONSE	M1	1	16	E4	press
659.517	n/a	RESPONSE	M1	1	00	C3	release
659.52	n/a	RESPONSE	M1	1	12	C4	release
659.7	n/a	RESPONSE	M1	1	07	G3	press
659.733	n/a	RESPONSE	M1	1	19	G4	press
659.752	n/a	RESPONSE	M1	1	16	E4	release
659.754	n/a	RESPONSE	M1	1	04	E3	release
660.507	n/a	RESPONSE	M1	1	19	G4	release
660.566	n/a	RESPONSE	M1	1	07	G3	release
661.675	7.758	FIXCROSS	n/a	n/a	n/a	n/a	n/a
669.433	6.317	CUE_LISTEN	M1	2	n/a	n/a	n/a
675.75	7.758	FIXCROSS	n/a	n/a	n/a	n/a	n/a
683.508	6.317	CUE_PLAYBACK_BOTH_HANDS	M1	2	n/a	n/a	n/a
684.21	n/a	RESPONSE	M1	2	19	G4	press
684.212	n/a	RESPONSE	M1	2	07	G3	press
684.681	n/a	RESPONSE	M1	2	04	E3	press
684.72	n/a	RESPONSE	M1	2	16	E4	press
684.787	n/a	RESPONSE	M1	2	07	G3	release
684.83	n/a	RESPONSE	M1	2	19	G4	release
684.894	n/a	RESPONSE	M1	2	16	E4	release
684.901	n/a	RESPONSE	M1	2	04	E3	release
685.203	n/a	RESPONSE	M1	2	04	E3	press
685.208	n/a	RESPONSE	M1	2	16	E4	press
685.691	n/a	RESPONSE	M1	2	05	F3	press
685.693	n/a	RESPONSE	M1	2	17	F4	press
685.733	n/a	RESPONSE	M1	2	04	E3	release
685.744	n/a	RESPONSE	M1	2	16	E4	release
686.146	n/a	RESPONSE	M1	2	02	D3	press
686.187	n/a	RESPONSE	M1	2	14	D4	press
686.238	n/a	RESPONSE	M1	2	17	F4	release
686.25	n/a	RESPONSE	M1	2	05	F3	release
686.351	n/a	RESPONSE	M1	2	14	D4	release
686.353	n/a	RESPONSE	M1	2	02	D3	release
686.634	n/a	RESPONSE	M1	2	02	D3	press
686.656	n/a	RESPONSE	M1	2	14	D4	press
687.126	n/a	RESPONSE	M1	2	00	C3	press
687.137	n/a	RESPONSE	M1	2	12	C4	press
687.188	n/a	RESPONSE	M1	2	02	D3	release
687.21	n/a	RESPONSE	M1	2	14	D4	release
687.401	n/a	RESPONSE	M1	2	16	E4	press
687.403	n/a	RESPONSE	M1	2	04	E3	press
687.434	n/a	RESPONSE	M1	2	12	C4	release
687.456	n/a	RESPONSE	M1	2	00	C3	release
687.626	n/a	RESPONSE	M1	2	12	C4	press
687.647	n/a	RESPONSE	M1	2	00	C3	press
687.658	n/a	RESPONSE	M1	2	16	E4	release
687.701	n/a	RESPONSE	M1	2	04	E3	release
688.452	n/a	RESPONSE	M1	2	12	C4	release
688.473	n/a	RESPONSE	M1	2	00	C3	release
689.825	7.758	FIXCROSS	n/a	n/a	n/a	n/a	n/a
697.583	6.325	CUE_LISTEN	M1	1	n/a	n/a	n/a
703.908	7.758	FIXCROSS	n/a	n/a	n/a	n/a	n/a
711.667	6.317	CUE_PLAYBACK_RIGHT_HAND	M1	1	n/a	n/a	n/a
712.143	n/a	RESPONSE	M1	1	19	G4	press
712.661	n/a	RESPONSE	M1	1	16	E4	press
712.714	n/a	RESPONSE	M1	1	19	G4	release
712.856	n/a	RESPONSE	M1	1	16	E4	release
713.141	n/a	RESPONSE	M1	1	16	E4	press
713.641	n/a	RESPONSE	M1	1	17	F4	press
713.676	n/a	RESPONSE	M1	1	16	E4	release
714.098	n/a	RESPONSE	M1	1	14	D4	press
714.13	n/a	RESPONSE	M1	1	17	F4	release
714.297	n/a	RESPONSE	M1	1	14	D4	release
714.614	n/a	RESPONSE	M1	1	14	D4	press
715.103	n/a	RESPONSE	M1	1	12	C4	press
715.176	n/a	RESPONSE	M1	1	14	D4	release
715.352	n/a	RESPONSE	M1	1	16	E4	press
715.378	n/a	RESPONSE	M1	1	12	C4	release
715.603	n/a	RESPONSE	M1	1	19	G4	press
715.646	n/a	RESPONSE	M1	1	16	E4	release
716.408	n/a	RESPONSE	M1	1	19	G4	release
717.983	7.758	FIXCROSS	n/a	n/a	n/a	n/a	n/a
725.742	6.325	CUE_LISTEN	M1	2	n/a	n/a	n/a
732.067	7.758	FIXCROSS	n/a	n/a	n/a	n/a	n/a
739.825	6.317	CUE_PLAYBACK_RIGHT_HAND	M1	2	n/a	n/a	n/a
740.293	n/a	RESPONSE	M1	2	19	G4	press
740.782	n/a	RESPONSE	M1	2	16	E4	press
740.863	n/a	RESPONSE	M1	2	19	G4	release
741.004	n/a	RESPONSE	M1	2	16	E4	release
741.286	n/a	RESPONSE	M1	2	16	E4	press
741.807	n/a	RESPONSE	M1	2	17	F4	press
741.838	n/a	RESPONSE	M1	2	16	E4	release
742.279	n/a	RESPONSE	M1	2	14	D4	press
742.317	n/a	RESPONSE	M1	2	17	F4	release
742.456	n/a	RESPONSE	M1	2	14	D4	release
742.763	n/a	RESPONSE	M1	2	14	D4	press
743.259	n/a	RESPONSE	M1	2	12	C4	press
743.287	n/a	RESPONSE	M1	2	14	D4	release
743.534	n/a	RESPONSE	M1	2	16	E4	press
743.557	n/a	RESPONSE	M1	2	12	C4	release
743.783	n/a	RESPONSE	M1	2	12	C4	press
743.796	n/a	RESPONSE	M1	2	16	E4	release
744.618	n/a	RESPONSE	M1	2	12	C4	release
746.142	7.758	FIXCROSS	n/a	n/a	n/a	n/a	n/a
753.9	6.317	CUE_LISTEN	M1	1	n/a	n/a	n/a
760.217	7.758	FIXCROSS	n/a	n/a	n/a	n/a	n/a
767.975	6.317	CUE_PLAYBACK_BOTH_HANDS	M1	1	n/a	n/a	n/a
768.624	n/a	RESPONSE	M1	1	07	G3	press
768.627	n/a	RESPONSE	M1	1	19	G4	press
769.077	n/a	RESPONSE	M1	1	04	E3	press
769.118	n/a	RESPONSE	M1	1	16	E4	press
769.171	n/a	RESPONSE	M1	1	07	G3	release
769.233	n/a	RESPONSE	M1	1	19	G4	release
769.292	n/a	RESPONSE	M1	1	04	E3	release
769.313	n/a	RESPONSE	M1	1	16	E4	release
769.576	n/a	RESPONSE	M1	1	04	E3	press
769.596	n/a	RESPONSE	M1	1	16	E4	press
770.077	n/a	RESPONSE	M1	1	05	F3	press
770.079	n/a	RESPONSE	M1	1	17	F4	press
770.112	n/a	RESPONSE	M1	1	04	E3	release
770.131	n/a	RESPONSE	M1	1	16	E4	release
770.532	n/a	RESPONSE	M1	1	02	D3	press
770.563	n/a	RESPONSE	M1	1	14	D4	press
770.604	n/a	RESPONSE	M1	1	17	F4	release
770.626	n/a	RESPONSE	M1	1	05	F3	release
770.727	n/a	RESPONSE	M1	1	14	D4	release
770.738	n/a	RESPONSE	M1	1	02	D3	release
771.029	n/a	RESPONSE	M1	1	02	D3	press
771.051	n/a	RESPONSE	M1	1	14	D4	press
771.523	n/a	RESPONSE	M1	1	00	C3	press
771.543	n/a	RESPONSE	M1	1	12	C4	press
771.584	n/a	RESPONSE	M1	1	02	D3	release
771.616	n/a	RESPONSE	M1	1	14	D4	release
771.787	n/a	RESPONSE	M1	1	04	E3	press
771.798	n/a	RESPONSE	M1	1	16	E4	press
771.849	n/a	RESPONSE	M1	1	00	C3	release
771.852	n/a	RESPONSE	M1	1	12	C4	release
772.002	n/a	RESPONSE	M1	1	07	G3	press
772.061	n/a	RESPONSE	M1	1	19	G4	press
772.072	n/a	RESPONSE	M1	1	16	E4	release
772.077	n/a	RESPONSE	M1	1	04	E3	release
772.871	n/a	RESPONSE	M1	1	19	G4	release
772.912	n/a	RESPONSE	M1	1	07	G3	release
774.292	7.758	FIXCROSS	n/a	n/a	n/a	n/a	n/a
782.05	6.325	CUE_LISTEN	M1	2	n/a	n/a	n/a
788.375	7.758	FIXCROSS	n/a	n/a	n/a	n/a	n/a
796.133	6.317	CUE_PLAYBACK_BOTH_HANDS	M1	2	n/a	n/a	n/a
796.808	n/a	RESPONSE	M1	2	07	G3	press
796.819	n/a	RESPONSE	M1	2	19	G4	press
797.311	n/a	RESPONSE	M1	2	04	E3	press
797.342	n/a	RESPONSE	M1	2	16	E4	press
797.403	n/a	RESPONSE	M1	2	07	G3	release
797.454	n/a	RESPONSE	M1	2	19	G4	release
797.527	n/a	RESPONSE	M1	2	16	E4	release
797.537	n/a	RESPONSE	M1	2	04	E3	release
797.819	n/a	RESPONSE	M1	2	16	E4	press
797.831	n/a	RESPONSE	M1	2	04	E3	press
798.322	n/a	RESPONSE	M1	2	05	F3	press
798.324	n/a	RESPONSE	M1	2	17	F4	press
798.364	n/a	RESPONSE	M1	2	16	E4	release
798.376	n/a	RESPONSE	M1	2	04	E3	release
798.769	n/a	RESPONSE	M1	2	02	D3	press
798.808	n/a	RESPONSE	M1	2	14	D4	press
798.849	n/a	RESPONSE	M1	2	17	F4	release
798.871	n/a	RESPONSE	M1	2	05	F3	release
798.973	n/a	RESPONSE	M1	2	14	D4	release
798.993	n/a	RESPONSE	M1	2	02	D3	release
799.274	n/a	RESPONSE	M1	2	02	D3	press
799.296	n/a	RESPONSE	M1	2	14	D4	press
799.767	n/a	RESPONSE	M1	2	00	C3	press
799.778	n/a	RESPONSE	M1	2	12	C4	press
799.809	n/a	RESPONSE	M1	2	02	D3	release
799.961	n/a	RESPONSE	M1	2	14	D4	release
800.022	n/a	RESPONSE	M1	2	16	E4	press
800.024	n/a	RESPONSE	M1	2	04	E3	press
800.064	n/a	RESPONSE	M1	2	12	C4	release
800.086	n/a	RESPONSE	M1	2	00	C3	release
800.257	n/a	RESPONSE	M1	2	12	C4	press
800.259	n/a	RESPONSE	M1	2	00	C3	press
800.279	n/a	RESPONSE	M1	2	16	E4	release
800.321	n/a	RESPONSE	M1	2	04	E3	release
801.022	n/a	RESPONSE	M1	2	00	C3	release
801.073	n/a	RESPONSE	M1	2	12	C4	release
802.45	7.758	FIXCROSS	n/a	n/a	n/a	n/a	n/a
810.208	6.317	CUE_LISTEN	M1	1	n/a	n/a	n/a
816.525	7.758	FIXCROSS	n/a	n/a	n/a	n/a	n/a
824.283	6.325	CUE_PLAYBACK_RIGHT_HAND	M1	1	n/a	n/a	n/a
824.751	n/a	RESPONSE	M1	1	19	G4	press
825.236	n/a	RESPONSE	M1	1	16	E4	press
825.287	n/a	RESPONSE	M1	1	19	G4	release
825.396	n/a	RESPONSE	M1	1	16	E4	release
825.711	n/a	RESPONSE	M1	1	16	E4	press
826.212	n/a	RESPONSE	M1	1	17	F4	press
826.233	n/a	RESPONSE	M1	1	16	E4	release
826.674	n/a	RESPONSE	M1	1	14	D4	press
826.716	n/a	RESPONSE	M1	1	17	F4	release
826.809	n/a	RESPONSE	M1	1	14	D4	release
827.158	n/a	RESPONSE	M1	1	14	D4	press
827.619	n/a	RESPONSE	M1	1	12	C4	press
827.691	n/a	RESPONSE	M1	1	14	D4	release
827.856	n/a	RESPONSE	M1	1	16	E4	press
827.877	n/a	RESPONSE	M1	1	12	C4	release
828.086	n/a	RESPONSE	M1	1	19	G4	press
828.107	n/a	RESPONSE	M1	1	16	E4	release
828.868	n/a	RESPONSE	M1	1	19	G4	release
830.608	7.758	FIXCROSS	n/a	n/a	n/a	n/a	n/a
838.367	6.317	CUE_LISTEN	M1	2	n/a	n/a	n/a
844.683	7.758	FIXCROSS	n/a	n/a	n/a	n/a	n/a
852.442	6.325	CUE_PLAYBACK_RIGHT_HAND	M1	2	n/a	n/a	n/a
852.887	n/a	RESPONSE	M1	2	19	G4	press
853.389	n/a	RESPONSE	M1	2	16	E4	press
853.436	n/a	RESPONSE	M1	2	19	G4	release
853.556	n/a	RESPONSE	M1	2	16	E4	release
853.861	n/a	RESPONSE	M1	2	16	E4	press
854.356	n/a	RESPONSE	M1	2	17	F4	press
854.373	n/a	RESPONSE	M1	2	16	E4	release
854.869	n/a	RESPONSE	M1	2	14	D4	press
854.882	n/a	RESPONSE	M1	2	17	F4	release
854.999	n/a	RESPONSE	M1	2	14	D4	release
855.359	n/a	RESPONSE	M1	2	14	D4	press
855.874	n/a	RESPONSE	M1	2	12	C4	press
855.906	n/a	RESPONSE	M1	2	14	D4	release
856.149	n/a	RESPONSE	M1	2	16	E4	press
856.168	n/a	RESPONSE	M1	2	12	C4	release
856.409	n/a	RESPONSE	M1	2	12	C4	press
856.421	n/a	RESPONSE	M1	2	16	E4	release
857.284	n/a	RESPONSE	M1	2	12	C4	release
858.767	7.758	FIXCROSS	n/a	n/a	n/a	n/a	n/a
866.525	6.317	CUE_LISTEN	M1	1	n/a	n/a	n/a
872.842	7.758	FIXCROSS	n/a	n/a	n/a	n/a	n/a
880.6	6.317	CUE_PLAYBACK_BOTH_HANDS	M1	1	n/a	n/a	n/a
881.373	n/a	RESPONSE	M1	1	07	G3	press
881.377	n/a	RESPONSE	M1	1	19	G4	press
881.906	n/a	RESPONSE	M1	1	04	E3	press
881.919	n/a	RESPONSE	M1	1	16	E4	press
882.008	n/a	RESPONSE	M1	1	07	G3	release
882.043	n/a	RESPONSE	M1	1	19	G4	release
882.12	n/a	RESPONSE	M1	1	16	E4	release
882.15	n/a	RESPONSE	M1	1	04	E3	release
882.417	n/a	RESPONSE	M1	1	04	E3	press
882.423	n/a	RESPONSE	M1	1	16	E4	press
882.919	n/a	RESPONSE	M1	1	17	F4	press
882.933	n/a	RESPONSE	M1	1	05	F3	press
882.967	n/a	RESPONSE	M1	1	16	E4	release
882.984	n/a	RESPONSE	M1	1	04	E3	release
883.349	n/a	RESPONSE	M1	1	02	D3	press
883.391	n/a	RESPONSE	M1	1	14	D4	press
883.442	n/a	RESPONSE	M1	1	05	F3	release
883.446	n/a	RESPONSE	M1	1	17	F4	release
883.561	n/a	RESPONSE	M1	1	14	D4	release
883.573	n/a	RESPONSE	M1	1	02	D3	release
883.869	n/a	RESPONSE	M1	1	02	D3	press
883.899	n/a	RESPONSE	M1	1	14	D4	press
884.379	n/a	RESPONSE	M1	1	00	C3	press
884.382	n/a	RESPONSE	M1	1	12	C4	press
884.431	n/a	RESPONSE	M1	1	02	D3	release
884.441	n/a	RESPONSE	M1	1	14	D4	release
884.631	n/a	RESPONSE	M1	1	04	E3	press
884.642	n/a	RESPONSE	M1	1	16	E4	press
884.674	n/a	RESPONSE	M1	1	12	C4	release
884.691	n/a	RESPONSE	M1	1	00	C3	release
884.886	n/a	RESPONSE	M1	1	07	G3	press
884.899	n/a	RESPONSE	M1	1	19	G4	press
884.923	n/a	RESPONSE	M1	1	04	E3	release
884.934	n/a	RESPONSE	M1	1	16	E4	release
885.877	n/a	RESPONSE	M1	1	07	G3	release
885.879	n/a	RESPONSE	M1	1	19	G4	release
886.917	7.758	FIXCROSS	n/a	n/a	n/a	n/a	n/a
894.675	6.325	CUE_LISTEN	M1	2	n/a	n/a	n/a
901.0	7.758	FIXCROSS	n/a	n/a	n/a	n/a	n/a
908.759	53.458	CUE_PLAYBACK_BOTH_HANDS	M1	2	n/a	n/a	n/a
909.406	n/a	RESPONSE	M1	2	07	G3	press
909.409	n/a	RESPONSE	M1	2	19	G4	press
909.888	n/a	RESPONSE	M1	2	04	E3	press
909.909	n/a	RESPONSE	M1	2	16	E4	press
909.992	n/a	RESPONSE	M1	2	07	G3	release
910.012	n/a	RESPONSE	M1	2	19	G4	release
910.093	n/a	RESPONSE	M1	2	04	E3	release
910.096	n/a	RESPONSE	M1	2	16	E4	release
910.367	n/a	RESPONSE	M1	2	04	E3	press
910.369	n/a	RESPONSE	M1	2	16	E4	press
910.868	n/a	RESPONSE	M1	2	05	F3	press
910.87	n/a	RESPONSE	M1	2	17	F4	press
910.902	n/a	RESPONSE	M1	2	04	E3	release
910.913	n/a	RESPONSE	M1	2	16	E4	release
911.313	n/a	RESPONSE	M1	2	02	D3	press
911.366	n/a	RESPONSE	M1	2	14	D4	press
911.406	n/a	RESPONSE	M1	2	05	F3	release
911.417	n/a	RESPONSE	M1	2	17	F4	release
911.518	n/a	RESPONSE	M1	2	14	D4	release
911.529	n/a	RESPONSE	M1	2	02	D3	release
911.813	n/a	RESPONSE	M1	2	02	D3	press
911.842	n/a	RESPONSE	M1	2	14	D4	press
912.314	n/a	RESPONSE	M1	2	00	C3	press
912.326	n/a	RESPONSE	M1	2	12	C4	press
912.351	n/a	RESPONSE	M1	2	02	D3	release
912.393	n/a	RESPONSE	M1	2	14	D4	release
912.557	n/a	RESPONSE	M1	2	16	E4	press
912.561	n/a	RESPONSE	M1	2	04	E3	press
912.612	n/a	RESPONSE	M1	2	12	C4	release
912.614	n/a	RESPONSE	M1	2	00	C3	release
912.799	n/a	RESPONSE	M1	2	12	C4	press
912.82	n/a	RESPONSE	M1	2	00	C3	press
912.823	n/a	RESPONSE	M1	2	16	E4	release
912.854	n/a	RESPONSE	M1	2	04	E3	release
913.253	n/a	FIXCROSS	n/a	n/a	n/a	n/a	n/a
913.697	n/a	RESPONSE	M1	2	00	C3	release
913.732	n/a	RESPONSE	M1	2	12	C4	release
