onset	duration	trial_type	n_back_condition	trial_number	stimulus	response_type
0.0	n/a	RESPONSE	n/a	n/a	n/a	n/a
0.0284	1.0	ISI	n/a	n/a	n/a	n/a
1.0284	0.5	DISTRACTOR	1	1	J	Correct Rejection
1.5284	1.0	ISI	n/a	n/a	n/a	n/a
2.5284	0.5	TARGET	1	2	J	Hit
3.0205	n/a	RESPONSE	n/a	n/a	n/a	n/a
3.0284	1.0	ISI	n/a	n/a	n/a	n/a
4.0284	0.5	DISTRACTOR	1	3	A	Correct Rejection
4.5285	1.0	ISI	n/a	n/a	n/a	n/a
5.5285	0.5	DISTRACTOR	1	4	H	Correct Rejection
6.0285	1.0	ISI	n/a	n/a	n/a	n/a
7.0285	0.5	DISTRACTOR	1	5	G	Correct Rejection
7.5285	1.0	ISI	n/a	n/a	n/a	n/a
8.5285	0.5	DISTRACTOR	1	6	E	Correct Rejection
9.0285	1.0333	ISI	n/a	n/a	n/a	n/a
10.0618	0.5167	DISTRACTOR	1	7	A	Correct Rejection
10.5785	1.0167	ISI	n/a	n/a	n/a	n/a
11.5952	0.5167	DISTRACTOR	1	8	E	Correct Rejection
12.1118	1.0167	ISI	n/a	n/a	n/a	n/a
13.1285	0.5167	DISTRACTOR	1	9	A	Correct Rejection
13.6452	1.0167	ISI	n/a	n/a	n/a	n/a
14.6619	0.5167	TARGET	1	10	A	Hit
15.0867	n/a	RESPONSE	n/a	n/a	n/a	n/a
15.1785	1.0167	ISI	n/a	n/a	n/a	n/a
16.1952	0.5167	DISTRACTOR	1	11	D	Correct Rejection
16.7119	1.0167	ISI	n/a	n/a	n/a	n/a
17.7286	0.5167	DISTRACTOR	1	12	E	Correct Rejection
18.2452	1.0167	ISI	n/a	n/a	n/a	n/a
19.2619	0.5167	DISTRACTOR	1	13	A	Correct Rejection
19.7786	1.0167	ISI	n/a	n/a	n/a	n/a
20.7952	0.5167	DISTRACTOR	1	14	H	Correct Rejection
21.3119	1.0167	ISI	n/a	n/a	n/a	n/a
22.3286	0.5167	DISTRACTOR	1	15	F	Correct Rejection
22.8453	1.0167	ISI	n/a	n/a	n/a	n/a
23.8619	0.5167	DISTRACTOR	1	16	A	Correct Rejection
24.3786	1.0167	ISI	n/a	n/a	n/a	n/a
25.3953	0.5167	TARGET	1	17	A	Hit
25.912	1.0167	ISI	n/a	n/a	n/a	n/a
25.9543	n/a	RESPONSE	n/a	n/a	n/a	n/a
26.9286	0.5167	DISTRACTOR	1	18	B	Correct Rejection
27.4453	1.0167	ISI	n/a	n/a	n/a	n/a
28.462	0.5167	DISTRACTOR	1	19	D	Correct Rejection
28.9786	1.0167	ISI	n/a	n/a	n/a	n/a
29.9953	0.5167	DISTRACTOR	1	20	I	Correct Rejection
30.512	1.0167	ISI	n/a	n/a	n/a	n/a
31.5287	0.5167	TARGET	1	21	I	Hit
31.8676	n/a	RESPONSE	n/a	n/a	n/a	n/a
32.0453	1.0167	ISI	n/a	n/a	n/a	n/a
33.062	0.5167	TARGET	1	22	I	Hit
33.5787	1.0167	ISI	n/a	n/a	n/a	n/a
33.6256	n/a	RESPONSE	n/a	n/a	n/a	n/a
34.5954	0.5167	DISTRACTOR	1	23	C	Correct Rejection
35.112	1.0167	ISI	n/a	n/a	n/a	n/a
36.1287	0.5167	DISTRACTOR	1	24	E	Correct Rejection
36.6454	1.0167	ISI	n/a	n/a	n/a	n/a
37.662	0.5167	TARGET	1	25	E	Hit
38.0206	n/a	RESPONSE	n/a	n/a	n/a	n/a
38.1787	1.0167	ISI	n/a	n/a	n/a	n/a
39.1954	0.5167	DISTRACTOR	1	26	B	Correct Rejection
39.7121	1.0167	ISI	n/a	n/a	n/a	n/a
40.7287	0.5167	DISTRACTOR	1	27	E	Correct Rejection
41.2454	1.0167	ISI	n/a	n/a	n/a	n/a
42.2621	0.5167	DISTRACTOR	1	28	J	Correct Rejection
42.7788	1.0167	ISI	n/a	n/a	n/a	n/a
43.7954	0.5167	DISTRACTOR	1	29	G	Correct Rejection
44.3121	1.0167	ISI	n/a	n/a	n/a	n/a
45.3288	0.5167	DISTRACTOR	1	30	F	Correct Rejection
45.8454	1.0167	ISI	n/a	n/a	n/a	n/a
46.8621	0.5167	DISTRACTOR	1	31	G	Correct Rejection
47.3788	1.0167	ISI	n/a	n/a	n/a	n/a
48.3955	0.5167	DISTRACTOR	1	32	D	Correct Rejection
48.9121	1.0167	ISI	n/a	n/a	n/a	n/a
49.9288	0.5167	DISTRACTOR	1	33	J	Correct Rejection
50.4455	1.0167	ISI	n/a	n/a	n/a	n/a
51.4621	0.5167	DISTRACTOR	1	34	I	Correct Rejection
51.9788	1.0167	ISI	n/a	n/a	n/a	n/a
52.9955	0.5167	DISTRACTOR	1	35	F	Correct Rejection
53.5122	1.0167	ISI	n/a	n/a	n/a	n/a
54.5288	0.5167	DISTRACTOR	1	36	D	Correct Rejection
55.0455	1.0167	ISI	n/a	n/a	n/a	n/a
56.0622	0.5167	TARGET	1	37	D	Hit
56.4793	n/a	RESPONSE	n/a	n/a	n/a	n/a
56.5789	1.0167	ISI	n/a	n/a	n/a	n/a
57.5955	0.5167	DISTRACTOR	1	38	E	Correct Rejection
58.1122	1.0167	ISI	n/a	n/a	n/a	n/a
59.1289	0.5167	TARGET	1	39	E	Hit
59.6455	1.0167	ISI	n/a	n/a	n/a	n/a
59.8195	n/a	RESPONSE	n/a	n/a	n/a	n/a
60.6622	0.5167	DISTRACTOR	1	40	B	Correct Rejection
61.1789	1.0167	ISI	n/a	n/a	n/a	n/a
62.1956	0.5167	DISTRACTOR	1	41	D	Correct Rejection
62.7122	1.0167	ISI	n/a	n/a	n/a	n/a
63.7289	0.5167	TARGET	1	42	D	Hit
64.2456	1.0167	ISI	n/a	n/a	n/a	n/a
64.2624	n/a	RESPONSE	n/a	n/a	n/a	n/a
65.2622	0.5167	DISTRACTOR	1	43	B	Correct Rejection
65.7789	1.0167	ISI	n/a	n/a	n/a	n/a
66.7956	0.5167	TARGET	1	44	B	Hit
67.1871	n/a	RESPONSE	n/a	n/a	n/a	n/a
67.3123	1.0167	ISI	n/a	n/a	n/a	n/a
68.3289	0.5167	DISTRACTOR	1	45	G	Correct Rejection
68.8456	1.0167	ISI	n/a	n/a	n/a	n/a
69.8623	0.5167	DISTRACTOR	1	46	E	Correct Rejection
70.379	1.0167	ISI	n/a	n/a	n/a	n/a
71.3956	0.5167	DISTRACTOR	1	47	C	Correct Rejection
71.9123	1.0167	ISI	n/a	n/a	n/a	n/a
72.929	0.5167	DISTRACTOR	1	48	A	Correct Rejection
73.4456	1.0167	ISI	n/a	n/a	n/a	n/a
74.4623	0.5167	DISTRACTOR	1	49	H	Correct Rejection
74.979	1.0167	ISI	n/a	n/a	n/a	n/a
75.9957	0.5167	DISTRACTOR	1	50	E	Correct Rejection
76.5123	1.1167	ISI	n/a	n/a	n/a	n/a
94.8191	n/a	RESPONSE	n/a	n/a	n/a	n/a
94.8791	1.0167	ISI	n/a	n/a	n/a	n/a
95.8958	0.5167	DISTRACTOR	2	1	I	Correct Rejection
96.4125	1.0167	ISI	n/a	n/a	n/a	n/a
97.4292	0.5167	DISTRACTOR	2	2	E	Correct Rejection
97.9458	1.0167	ISI	n/a	n/a	n/a	n/a
98.9625	0.5167	TARGET	2	3	I	Hit
99.4792	1.0167	ISI	n/a	n/a	n/a	n/a
99.5977	n/a	RESPONSE	n/a	n/a	n/a	n/a
100.4959	0.5167	DISTRACTOR	2	4	F	Correct Rejection
101.0125	1.0167	ISI	n/a	n/a	n/a	n/a
102.0292	0.5167	TARGET	2	5	I	Hit
102.4584	n/a	RESPONSE	n/a	n/a	n/a	n/a
102.5459	1.0167	ISI	n/a	n/a	n/a	n/a
103.5625	0.5167	DISTRACTOR	2	6	J	Correct Rejection
104.0792	1.0167	ISI	n/a	n/a	n/a	n/a
105.0959	0.5167	DISTRACTOR	2	7	H	Correct Rejection
105.6125	1.0167	ISI	n/a	n/a	n/a	n/a
106.6292	0.5167	DISTRACTOR	2	8	C	Correct Rejection
107.1459	1.0167	ISI	n/a	n/a	n/a	n/a
108.1626	0.5167	DISTRACTOR	2	9	J	Correct Rejection
108.6793	1.0167	ISI	n/a	n/a	n/a	n/a
109.6959	0.5167	DISTRACTOR	2	10	G	Correct Rejection
110.2126	1.0167	ISI	n/a	n/a	n/a	n/a
111.2293	0.5167	DISTRACTOR	2	11	E	Correct Rejection
111.7459	1.0167	ISI	n/a	n/a	n/a	n/a
112.7626	0.5167	DISTRACTOR	2	12	E	Correct Rejection
113.2793	1.0167	ISI	n/a	n/a	n/a	n/a
114.296	0.5167	TARGET	2	13	E	Hit
114.8126	1.0167	ISI	n/a	n/a	n/a	n/a
115.0039	n/a	RESPONSE	n/a	n/a	n/a	n/a
115.8293	0.5167	DISTRACTOR	2	14	I	Correct Rejection
116.346	1.0167	ISI	n/a	n/a	n/a	n/a
117.3626	0.5167	DISTRACTOR	2	15	B	Correct Rejection
117.8793	1.0167	ISI	n/a	n/a	n/a	n/a
118.896	0.5167	DISTRACTOR	2	16	B	False Alarm
119.4127	1.0167	ISI	n/a	n/a	n/a	n/a
119.5106	n/a	RESPONSE	n/a	n/a	n/a	n/a
120.4293	0.5167	DISTRACTOR	2	17	J	Correct Rejection
120.946	1.0167	ISI	n/a	n/a	n/a	n/a
121.9627	0.5167	DISTRACTOR	2	18	J	Correct Rejection
122.4793	1.0167	ISI	n/a	n/a	n/a	n/a
123.496	0.5167	DISTRACTOR	2	19	B	Correct Rejection
124.0127	1.0167	ISI	n/a	n/a	n/a	n/a
125.0294	0.5167	DISTRACTOR	2	20	I	Correct Rejection
125.546	1.0167	ISI	n/a	n/a	n/a	n/a
126.5627	0.5167	DISTRACTOR	2	21	C	Correct Rejection
127.0794	1.0167	ISI	n/a	n/a	n/a	n/a
128.0961	0.5167	DISTRACTOR	2	22	A	Correct Rejection
128.6127	1.0167	ISI	n/a	n/a	n/a	n/a
129.6294	0.5167	TARGET	2	23	C	Hit
130.1461	1.0167	ISI	n/a	n/a	n/a	n/a
130.5857	n/a	RESPONSE	n/a	n/a	n/a	n/a
131.1627	0.5167	DISTRACTOR	2	24	I	Correct Rejection
131.6794	1.0167	ISI	n/a	n/a	n/a	n/a
132.6961	0.5167	DISTRACTOR	2	25	B	Correct Rejection
133.2128	1.0167	ISI	n/a	n/a	n/a	n/a
134.2294	0.5167	DISTRACTOR	2	26	F	Correct Rejection
134.7461	1.0167	ISI	n/a	n/a	n/a	n/a
135.7628	0.5167	DISTRACTOR	2	27	I	Correct Rejection
136.2795	1.0167	ISI	n/a	n/a	n/a	n/a
137.2961	0.5167	TARGET	2	28	F	Hit
137.8128	1.0167	ISI	n/a	n/a	n/a	n/a
137.8894	n/a	RESPONSE	n/a	n/a	n/a	n/a
138.8295	0.5167	DISTRACTOR	2	29	E	Correct Rejection
139.3461	1.0167	ISI	n/a	n/a	n/a	n/a
140.3628	0.5167	DISTRACTOR	2	30	J	Correct Rejection
140.8795	1.0167	ISI	n/a	n/a	n/a	n/a
141.8962	0.5167	DISTRACTOR	2	31	B	Correct Rejection
142.4128	1.0167	ISI	n/a	n/a	n/a	n/a
143.4295	0.5167	DISTRACTOR	2	32	D	Correct Rejection
143.9462	1.0167	ISI	n/a	n/a	n/a	n/a
144.9628	0.5167	DISTRACTOR	2	33	J	Correct Rejection
145.4795	1.0167	ISI	n/a	n/a	n/a	n/a
146.4962	0.5167	TARGET	2	34	D	Hit
147.0129	1.0167	ISI	n/a	n/a	n/a	n/a
147.0468	n/a	RESPONSE	n/a	n/a	n/a	n/a
148.0295	0.5167	TARGET	2	35	J	Hit
148.5462	1.0167	ISI	n/a	n/a	n/a	n/a
148.7729	n/a	RESPONSE	n/a	n/a	n/a	n/a
149.5629	0.5167	TARGET	2	36	D	Hit
150.0795	1.0167	ISI	n/a	n/a	n/a	n/a
150.4988	n/a	RESPONSE	n/a	n/a	n/a	n/a
151.0962	0.5167	DISTRACTOR	2	37	G	Correct Rejection
151.6129	1.0167	ISI	n/a	n/a	n/a	n/a
152.6296	0.5167	DISTRACTOR	2	38	F	Correct Rejection
153.1462	1.0167	ISI	n/a	n/a	n/a	n/a
154.1629	0.5167	TARGET	2	39	G	Hit
154.6796	1.0167	ISI	n/a	n/a	n/a	n/a
154.7499	n/a	RESPONSE	n/a	n/a	n/a	n/a
155.6963	0.5167	DISTRACTOR	2	40	E	Correct Rejection
156.2129	1.0167	ISI	n/a	n/a	n/a	n/a
157.2296	0.5167	DISTRACTOR	2	41	B	Correct Rejection
157.7463	1.0167	ISI	n/a	n/a	n/a	n/a
158.763	0.5167	DISTRACTOR	2	42	D	Correct Rejection
159.2796	1.0167	ISI	n/a	n/a	n/a	n/a
160.2963	0.5167	DISTRACTOR	2	43	A	Correct Rejection
160.813	1.0167	ISI	n/a	n/a	n/a	n/a
161.8296	0.5167	DISTRACTOR	2	44	A	Correct Rejection
162.3463	1.0167	ISI	n/a	n/a	n/a	n/a
163.363	0.5167	DISTRACTOR	2	45	F	Correct Rejection
163.8797	1.0167	ISI	n/a	n/a	n/a	n/a
164.8963	0.5167	DISTRACTOR	2	46	I	Correct Rejection
165.413	1.0167	ISI	n/a	n/a	n/a	n/a
166.4297	0.5167	DISTRACTOR	2	47	B	Correct Rejection
166.9463	1.0167	ISI	n/a	n/a	n/a	n/a
167.963	0.5167	DISTRACTOR	2	48	D	Correct Rejection
168.4797	1.0167	ISI	n/a	n/a	n/a	n/a
169.4964	0.5167	DISTRACTOR	2	49	G	Correct Rejection
170.013	1.0167	ISI	n/a	n/a	n/a	n/a
171.0297	0.5167	TARGET	2	50	D	Hit
171.5464	1.1	ISI	n/a	n/a	n/a	n/a
171.7063	n/a	RESPONSE	n/a	n/a	n/a	n/a
184.2518	n/a	RESPONSE	n/a	n/a	n/a	n/a
184.3131	1.0167	ISI	n/a	n/a	n/a	n/a
185.3298	0.5167	DISTRACTOR	3	1	F	Correct Rejection
185.8465	1.0167	ISI	n/a	n/a	n/a	n/a
186.8632	0.5167	DISTRACTOR	3	2	J	Correct Rejection
187.3798	1.0167	ISI	n/a	n/a	n/a	n/a
188.3965	0.5167	DISTRACTOR	3	3	C	Correct Rejection
188.9132	1.0167	ISI	n/a	n/a	n/a	n/a
189.9298	0.5167	DISTRACTOR	3	4	A	Correct Rejection
190.4465	1.0167	ISI	n/a	n/a	n/a	n/a
191.4632	0.5167	DISTRACTOR	3	5	C	False Alarm
191.8271	n/a	RESPONSE	n/a	n/a	n/a	n/a
191.9799	1.0167	ISI	n/a	n/a	n/a	n/a
192.9965	0.5167	TARGET	3	6	C	Miss
193.5132	1.0167	ISI	n/a	n/a	n/a	n/a
194.5299	0.5167	TARGET	3	7	A	Hit
195.0466	1.0167	ISI	n/a	n/a	n/a	n/a
195.2632	n/a	RESPONSE	n/a	n/a	n/a	n/a
196.0632	0.5167	DISTRACTOR	3	8	F	Correct Rejection
196.5799	1.0167	ISI	n/a	n/a	n/a	n/a
197.5966	0.5167	TARGET	3	9	C	Miss
198.1132	1.0167	ISI	n/a	n/a	n/a	n/a
199.1299	0.5167	TARGET	3	10	A	Hit
199.6466	1.0167	ISI	n/a	n/a	n/a	n/a
199.8977	n/a	RESPONSE	n/a	n/a	n/a	n/a
200.6633	0.5167	TARGET	3	11	F	Hit
201.1799	1.0167	ISI	n/a	n/a	n/a	n/a
201.3681	n/a	RESPONSE	n/a	n/a	n/a	n/a
202.1966	0.5167	DISTRACTOR	3	12	D	Correct Rejection
202.7133	1.0167	ISI	n/a	n/a	n/a	n/a
203.7299	0.5167	DISTRACTOR	3	13	D	Correct Rejection
204.2466	1.0167	ISI	n/a	n/a	n/a	n/a
205.2633	0.5167	DISTRACTOR	3	14	I	Correct Rejection
205.78	1.0167	ISI	n/a	n/a	n/a	n/a
206.7966	0.5167	DISTRACTOR	3	15	H	Correct Rejection
207.3133	1.0167	ISI	n/a	n/a	n/a	n/a
208.33	0.5167	DISTRACTOR	3	16	I	False Alarm
208.8466	1.0167	ISI	n/a	n/a	n/a	n/a
209.199	n/a	RESPONSE	n/a	n/a	n/a	n/a
209.8633	0.5167	TARGET	3	17	I	Miss
210.38	1.0167	ISI	n/a	n/a	n/a	n/a
211.3967	0.5167	DISTRACTOR	3	18	F	Correct Rejection
211.9133	1.0167	ISI	n/a	n/a	n/a	n/a
212.93	0.5167	DISTRACTOR	3	19	D	Correct Rejection
213.4467	1.0167	ISI	n/a	n/a	n/a	n/a
214.4634	0.5167	TARGET	3	20	I	Miss
214.98	1.0167	ISI	n/a	n/a	n/a	n/a
215.9967	0.5167	DISTRACTOR	3	21	A	Correct Rejection
216.5134	1.0167	ISI	n/a	n/a	n/a	n/a
217.53	0.5167	DISTRACTOR	3	22	B	Correct Rejection
218.0467	1.0167	ISI	n/a	n/a	n/a	n/a
219.0634	0.5167	DISTRACTOR	3	23	F	Correct Rejection
219.5801	1.0167	ISI	n/a	n/a	n/a	n/a
220.5967	0.5167	DISTRACTOR	3	24	I	False Alarm
221.1134	1.0167	ISI	n/a	n/a	n/a	n/a
221.265	n/a	RESPONSE	n/a	n/a	n/a	n/a
222.1301	0.5167	DISTRACTOR	3	25	D	Correct Rejection
222.6467	1.0167	ISI	n/a	n/a	n/a	n/a
223.6634	0.5167	DISTRACTOR	3	26	J	Correct Rejection
224.1801	1.0167	ISI	n/a	n/a	n/a	n/a
225.1968	0.5167	DISTRACTOR	3	27	D	Correct Rejection
225.7134	1.0167	ISI	n/a	n/a	n/a	n/a
226.7301	0.5167	DISTRACTOR	3	28	H	Correct Rejection
227.2468	1.0167	ISI	n/a	n/a	n/a	n/a
228.2635	0.5167	TARGET	3	29	J	Hit
228.7801	1.0167	ISI	n/a	n/a	n/a	n/a
229.0959	n/a	RESPONSE	n/a	n/a	n/a	n/a
229.7968	0.5167	DISTRACTOR	3	30	I	Correct Rejection
230.3135	1.0167	ISI	n/a	n/a	n/a	n/a
231.3302	0.5167	DISTRACTOR	3	31	G	Correct Rejection
231.8468	1.0167	ISI	n/a	n/a	n/a	n/a
232.8635	0.5167	DISTRACTOR	3	32	I	Correct Rejection
233.3802	1.0167	ISI	n/a	n/a	n/a	n/a
234.3968	0.5167	DISTRACTOR	3	33	G	False Alarm
234.9135	1.0167	ISI	n/a	n/a	n/a	n/a
235.4885	n/a	RESPONSE	n/a	n/a	n/a	n/a
235.9302	0.5167	DISTRACTOR	3	34	H	Correct Rejection
236.4469	1.0167	ISI	n/a	n/a	n/a	n/a
237.4635	0.5167	DISTRACTOR	3	35	F	Correct Rejection
237.9802	1.0167	ISI	n/a	n/a	n/a	n/a
238.9969	0.5167	TARGET	3	36	G	Miss
239.5135	1.0167	ISI	n/a	n/a	n/a	n/a
240.5302	0.5167	DISTRACTOR	3	37	G	False Alarm
241.0469	1.0167	ISI	n/a	n/a	n/a	n/a
241.2739	n/a	RESPONSE	n/a	n/a	n/a	n/a
242.0636	0.5167	DISTRACTOR	3	38	B	Correct Rejection
242.5802	1.0167	ISI	n/a	n/a	n/a	n/a
243.5969	0.5167	DISTRACTOR	3	39	H	Correct Rejection
244.1136	1.0167	ISI	n/a	n/a	n/a	n/a
245.1302	0.5167	TARGET	3	40	G	Miss
245.6469	1.0167	ISI	n/a	n/a	n/a	n/a
246.6636	0.5167	DISTRACTOR	3	41	I	Correct Rejection
247.1803	1.0167	ISI	n/a	n/a	n/a	n/a
248.1969	0.5167	DISTRACTOR	3	42	C	Correct Rejection
248.7136	1.0167	ISI	n/a	n/a	n/a	n/a
249.7303	0.5167	DISTRACTOR	3	43	E	Correct Rejection
250.247	1.0167	ISI	n/a	n/a	n/a	n/a
251.2636	0.5167	DISTRACTOR	3	44	F	Correct Rejection
251.7803	1.0167	ISI	n/a	n/a	n/a	n/a
252.797	0.5167	DISTRACTOR	3	45	D	Correct Rejection
253.3136	1.0167	ISI	n/a	n/a	n/a	n/a
254.3303	0.5167	DISTRACTOR	3	46	I	Correct Rejection
254.847	1.0167	ISI	n/a	n/a	n/a	n/a
255.8637	0.5167	DISTRACTOR	3	47	H	Correct Rejection
256.3803	1.0167	ISI	n/a	n/a	n/a	n/a
257.397	0.5167	DISTRACTOR	3	48	J	Correct Rejection
257.9137	1.0167	ISI	n/a	n/a	n/a	n/a
258.9304	0.5167	DISTRACTOR	3	49	H	Correct Rejection
259.447	1.0167	ISI	n/a	n/a	n/a	n/a
260.4637	0.5167	DISTRACTOR	3	50	D	Correct Rejection
260.9804	1.0333	ISI	n/a	n/a	n/a	n/a
263.856	n/a	RESPONSE	n/a	n/a	n/a	n/a
