onset	duration	trial_type	trial_number	stroop_condition	stim_text(PL)	stim_text(eng)	stim_color(PL)	stim_color(eng)	response_type	response_color
0.0	n/a	RESPONSE	n/a	n/a	n/a	n/a	n/a	n/a	n/a	n/a
0.0608	1.0333	ITI	n/a	n/a	n/a	n/a	n/a	n/a	n/a	n/a
1.0942	0.5167	FIXCROSS	n/a	n/a	n/a	n/a	n/a	n/a	n/a	n/a
1.6108	1.9333	T_INK	1	Incongruent	czerwony	red	żółty	yellow	hit	n/a
3.516	n/a	RESPONSE	n/a	n/a	n/a	n/a	n/a	n/a	n/a	yellow
3.5442	0.5167	FEEDBACK	n/a	n/a	n/a	n/a	n/a	n/a	n/a	n/a
4.0609	1.0167	ITI	n/a	n/a	n/a	n/a	n/a	n/a	n/a	n/a
5.0775	0.5167	FIXCROSS	n/a	n/a	n/a	n/a	n/a	n/a	n/a	n/a
5.5942	1.25	T_INK	2	Incongruent	niebieski	blue	zielony	green	hit	n/a
6.8082	n/a	RESPONSE	n/a	n/a	n/a	n/a	n/a	n/a	n/a	green
6.8442	0.5167	FEEDBACK	n/a	n/a	n/a	n/a	n/a	n/a	n/a	n/a
7.3609	1.0167	ITI	n/a	n/a	n/a	n/a	n/a	n/a	n/a	n/a
8.3776	0.5167	FIXCROSS	n/a	n/a	n/a	n/a	n/a	n/a	n/a	n/a
8.8942	0.8333	T_INK	3	Incongruent	żółty	yellow	czerwony	red	hit	n/a
9.7008	n/a	RESPONSE	n/a	n/a	n/a	n/a	n/a	n/a	n/a	red
9.7276	0.5167	FEEDBACK	n/a	n/a	n/a	n/a	n/a	n/a	n/a	n/a
10.2442	1.0167	ITI	n/a	n/a	n/a	n/a	n/a	n/a	n/a	n/a
11.2609	0.5167	FIXCROSS	n/a	n/a	n/a	n/a	n/a	n/a	n/a	n/a
11.7776	1.1167	T_INK	4	Neutral	xxxxx	xxxxx	niebieski	blue	hit	n/a
12.8651	n/a	RESPONSE	n/a	n/a	n/a	n/a	n/a	n/a	n/a	blue
12.8943	0.5167	FEEDBACK	n/a	n/a	n/a	n/a	n/a	n/a	n/a	n/a
13.4109	1.0167	ITI	n/a	n/a	n/a	n/a	n/a	n/a	n/a	n/a
14.4276	0.5167	FIXCROSS	n/a	n/a	n/a	n/a	n/a	n/a	n/a	n/a
14.9443	0.8833	T_INK	5	Neutral	xxxxxxxx	xxxxxxxx	niebieski	blue	hit	n/a
15.8058	n/a	RESPONSE	n/a	n/a	n/a	n/a	n/a	n/a	n/a	blue
15.8276	0.5167	FEEDBACK	n/a	n/a	n/a	n/a	n/a	n/a	n/a	n/a
16.3443	1.0167	ITI	n/a	n/a	n/a	n/a	n/a	n/a	n/a	n/a
17.3609	0.5167	FIXCROSS	n/a	n/a	n/a	n/a	n/a	n/a	n/a	n/a
17.8776	1.05	T_INK	6	Incongruent	zielony	green	czerwony	red	hit	n/a
18.9063	n/a	RESPONSE	n/a	n/a	n/a	n/a	n/a	n/a	n/a	red
18.9276	0.5167	FEEDBACK	n/a	n/a	n/a	n/a	n/a	n/a	n/a	n/a
19.4443	1.0167	ITI	n/a	n/a	n/a	n/a	n/a	n/a	n/a	n/a
20.461	0.5167	FIXCROSS	n/a	n/a	n/a	n/a	n/a	n/a	n/a	n/a
20.9776	0.9167	T_INK	7	Incongruent	żółty	yellow	niebieski	blue	hit	n/a
21.8629	n/a	RESPONSE	n/a	n/a	n/a	n/a	n/a	n/a	n/a	blue
21.8943	0.5167	FEEDBACK	n/a	n/a	n/a	n/a	n/a	n/a	n/a	n/a
22.411	1.0167	ITI	n/a	n/a	n/a	n/a	n/a	n/a	n/a	n/a
23.4277	0.5167	FIXCROSS	n/a	n/a	n/a	n/a	n/a	n/a	n/a	n/a
23.9443	0.9	T_INK	8	Incongruent	czerwony	red	niebieski	blue	hit	n/a
24.8195	n/a	RESPONSE	n/a	n/a	n/a	n/a	n/a	n/a	n/a	blue
24.8443	0.5167	FEEDBACK	n/a	n/a	n/a	n/a	n/a	n/a	n/a	n/a
25.361	1.0167	ITI	n/a	n/a	n/a	n/a	n/a	n/a	n/a	n/a
26.3777	0.5167	FIXCROSS	n/a	n/a	n/a	n/a	n/a	n/a	n/a	n/a
26.8943	0.6167	T_INK	9	Incongruent	zielony	green	żółty	yellow	hit	n/a
27.4883	n/a	RESPONSE	n/a	n/a	n/a	n/a	n/a	n/a	n/a	yellow
27.511	0.5167	FEEDBACK	n/a	n/a	n/a	n/a	n/a	n/a	n/a	n/a
28.0277	1.0167	ITI	n/a	n/a	n/a	n/a	n/a	n/a	n/a	n/a
29.0444	0.5167	FIXCROSS	n/a	n/a	n/a	n/a	n/a	n/a	n/a	n/a
29.561	0.6	T_INK	10	Neutral	xxxxx	xxxxx	czerwony	red	incorrect	n/a
30.1253	n/a	RESPONSE	n/a	n/a	n/a	n/a	n/a	n/a	n/a	green
30.161	0.5167	FEEDBACK	n/a	n/a	n/a	n/a	n/a	n/a	n/a	n/a
30.6777	1.0167	ITI	n/a	n/a	n/a	n/a	n/a	n/a	n/a	n/a
31.6944	0.5167	FIXCROSS	n/a	n/a	n/a	n/a	n/a	n/a	n/a	n/a
32.2111	3.1334	T_INK	11	Neutral	xxxxxxx	xxxxxxx	żółty	yellow	hit	n/a
35.3192	n/a	RESPONSE	n/a	n/a	n/a	n/a	n/a	n/a	n/a	yellow
35.3444	0.5167	FEEDBACK	n/a	n/a	n/a	n/a	n/a	n/a	n/a	n/a
35.8611	1.0167	ITI	n/a	n/a	n/a	n/a	n/a	n/a	n/a	n/a
36.8778	0.5167	FIXCROSS	n/a	n/a	n/a	n/a	n/a	n/a	n/a	n/a
37.3944	0.5833	T_INK	12	Neutral	xxxxxxxxx	xxxxxxxxx	czerwony	red	hit	n/a
37.9562	n/a	RESPONSE	n/a	n/a	n/a	n/a	n/a	n/a	n/a	red
37.9778	0.5167	FEEDBACK	n/a	n/a	n/a	n/a	n/a	n/a	n/a	n/a
38.4944	1.0333	ITI	n/a	n/a	n/a	n/a	n/a	n/a	n/a	n/a
42.5907	n/a	RESPONSE	n/a	n/a	n/a	n/a	n/a	n/a	n/a	n/a
42.6445	1.0167	ITI	n/a	n/a	n/a	n/a	n/a	n/a	n/a	n/a
43.6611	0.5167	FIXCROSS	n/a	n/a	n/a	n/a	n/a	n/a	n/a	n/a
44.1778	0.8	INK	1	Incongruent	zielony	green	żółty	yellow	hit	n/a
44.956	n/a	RESPONSE	n/a	n/a	n/a	n/a	n/a	n/a	n/a	yellow
44.9778	1.0167	ITI	n/a	n/a	n/a	n/a	n/a	n/a	n/a	n/a
45.9945	0.5167	FIXCROSS	n/a	n/a	n/a	n/a	n/a	n/a	n/a	n/a
46.5112	0.8833	INK	2	Incongruent	czerwony	red	niebieski	blue	hit	n/a
47.3692	n/a	RESPONSE	n/a	n/a	n/a	n/a	n/a	n/a	n/a	blue
47.3945	1.0167	ITI	n/a	n/a	n/a	n/a	n/a	n/a	n/a	n/a
48.4112	0.5167	FIXCROSS	n/a	n/a	n/a	n/a	n/a	n/a	n/a	n/a
48.9279	0.75	INK	3	Incongruent	żółty	yellow	zielony	green	hit	n/a
49.6544	n/a	RESPONSE	n/a	n/a	n/a	n/a	n/a	n/a	n/a	green
49.6778	1.0167	ITI	n/a	n/a	n/a	n/a	n/a	n/a	n/a	n/a
50.6945	0.5167	FIXCROSS	n/a	n/a	n/a	n/a	n/a	n/a	n/a	n/a
51.2112	0.9333	INK	4	Incongruent	niebieski	blue	zielony	green	hit	n/a
52.1155	n/a	RESPONSE	n/a	n/a	n/a	n/a	n/a	n/a	n/a	green
52.1445	1.0167	ITI	n/a	n/a	n/a	n/a	n/a	n/a	n/a	n/a
53.1612	0.5167	FIXCROSS	n/a	n/a	n/a	n/a	n/a	n/a	n/a	n/a
53.6779	0.8333	INK	5	Incongruent	niebieski	blue	czerwony	red	hit	n/a
54.4809	n/a	RESPONSE	n/a	n/a	n/a	n/a	n/a	n/a	n/a	red
54.5112	1.0167	ITI	n/a	n/a	n/a	n/a	n/a	n/a	n/a	n/a
55.5279	0.5167	FIXCROSS	n/a	n/a	n/a	n/a	n/a	n/a	n/a	n/a
56.0446	0.75	INK	6	Neutral	xxxxxxxxx	xxxxxxxxx	zielony	green	hit	n/a
56.7662	n/a	RESPONSE	n/a	n/a	n/a	n/a	n/a	n/a	n/a	green
56.7946	1.0167	ITI	n/a	n/a	n/a	n/a	n/a	n/a	n/a	n/a
57.8112	0.5167	FIXCROSS	n/a	n/a	n/a	n/a	n/a	n/a	n/a	n/a
58.3279	1.0333	INK	7	Neutral	xxxxxxxxx	xxxxxxxxx	czerwony	red	hit	n/a
59.3391	n/a	RESPONSE	n/a	n/a	n/a	n/a	n/a	n/a	n/a	red
59.3613	1.0167	ITI	n/a	n/a	n/a	n/a	n/a	n/a	n/a	n/a
60.3779	0.5167	FIXCROSS	n/a	n/a	n/a	n/a	n/a	n/a	n/a	n/a
60.8946	0.7667	INK	8	Incongruent	żółty	yellow	czerwony	red	hit	n/a
61.6405	n/a	RESPONSE	n/a	n/a	n/a	n/a	n/a	n/a	n/a	red
61.6613	1.0167	ITI	n/a	n/a	n/a	n/a	n/a	n/a	n/a	n/a
62.6779	0.5167	FIXCROSS	n/a	n/a	n/a	n/a	n/a	n/a	n/a	n/a
63.1946	0.5667	INK	9	Incongruent	niebieski	blue	żółty	yellow	hit	n/a
63.7341	n/a	RESPONSE	n/a	n/a	n/a	n/a	n/a	n/a	n/a	yellow
63.7613	1.0167	ITI	n/a	n/a	n/a	n/a	n/a	n/a	n/a	n/a
64.778	0.5167	FIXCROSS	n/a	n/a	n/a	n/a	n/a	n/a	n/a	n/a
65.2946	0.6	INK	10	Incongruent	żółty	yellow	zielony	green	hit	n/a
65.8596	n/a	RESPONSE	n/a	n/a	n/a	n/a	n/a	n/a	n/a	green
65.8946	1.0167	ITI	n/a	n/a	n/a	n/a	n/a	n/a	n/a	n/a
66.9113	0.5167	FIXCROSS	n/a	n/a	n/a	n/a	n/a	n/a	n/a	n/a
67.428	0.6333	INK	11	Neutral	xxxxxxxx	xxxxxxxx	niebieski	blue	hit	n/a
68.0331	n/a	RESPONSE	n/a	n/a	n/a	n/a	n/a	n/a	n/a	blue
68.0613	1.0167	ITI	n/a	n/a	n/a	n/a	n/a	n/a	n/a	n/a
69.078	0.5167	FIXCROSS	n/a	n/a	n/a	n/a	n/a	n/a	n/a	n/a
69.5947	0.6333	INK	12	Incongruent	czerwony	red	zielony	green	hit	n/a
70.2065	n/a	RESPONSE	n/a	n/a	n/a	n/a	n/a	n/a	n/a	green
70.228	1.0167	ITI	n/a	n/a	n/a	n/a	n/a	n/a	n/a	n/a
71.2447	0.5167	FIXCROSS	n/a	n/a	n/a	n/a	n/a	n/a	n/a	n/a
71.7613	0.4	INK	13	Incongruent	zielony	green	żółty	yellow	hit	n/a
72.1403	n/a	RESPONSE	n/a	n/a	n/a	n/a	n/a	n/a	n/a	yellow
72.1613	1.0167	ITI	n/a	n/a	n/a	n/a	n/a	n/a	n/a	n/a
73.178	0.5167	FIXCROSS	n/a	n/a	n/a	n/a	n/a	n/a	n/a	n/a
73.6947	0.8333	INK	14	Incongruent	zielony	green	niebieski	blue	hit	n/a
74.5055	n/a	RESPONSE	n/a	n/a	n/a	n/a	n/a	n/a	n/a	blue
74.528	1.0167	ITI	n/a	n/a	n/a	n/a	n/a	n/a	n/a	n/a
75.5447	0.5167	FIXCROSS	n/a	n/a	n/a	n/a	n/a	n/a	n/a	n/a
76.0614	0.7	INK	15	Neutral	xxxxxxxxx	xxxxxxxxx	czerwony	red	hit	n/a
76.743	n/a	RESPONSE	n/a	n/a	n/a	n/a	n/a	n/a	n/a	red
76.7614	1.0167	ITI	n/a	n/a	n/a	n/a	n/a	n/a	n/a	n/a
77.7781	0.5167	FIXCROSS	n/a	n/a	n/a	n/a	n/a	n/a	n/a	n/a
78.2947	0.7	INK	16	Incongruent	zielony	green	czerwony	red	hit	n/a
78.9643	n/a	RESPONSE	n/a	n/a	n/a	n/a	n/a	n/a	n/a	red
78.9947	1.0167	ITI	n/a	n/a	n/a	n/a	n/a	n/a	n/a	n/a
80.0114	0.5167	FIXCROSS	n/a	n/a	n/a	n/a	n/a	n/a	n/a	n/a
80.5281	0.55	INK	17	Neutral	xxxxx	xxxxx	zielony	green	hit	n/a
81.0579	n/a	RESPONSE	n/a	n/a	n/a	n/a	n/a	n/a	n/a	green
81.0781	1.0167	ITI	n/a	n/a	n/a	n/a	n/a	n/a	n/a	n/a
82.0948	0.5167	FIXCROSS	n/a	n/a	n/a	n/a	n/a	n/a	n/a	n/a
82.6114	0.6	INK	18	Neutral	xxxxxxxx	xxxxxxxx	niebieski	blue	hit	n/a
83.1833	n/a	RESPONSE	n/a	n/a	n/a	n/a	n/a	n/a	n/a	blue
83.2114	1.0167	ITI	n/a	n/a	n/a	n/a	n/a	n/a	n/a	n/a
84.2281	0.5167	FIXCROSS	n/a	n/a	n/a	n/a	n/a	n/a	n/a	n/a
84.7448	0.6167	INK	19	Incongruent	żółty	yellow	niebieski	blue	hit	n/a
85.341	n/a	RESPONSE	n/a	n/a	n/a	n/a	n/a	n/a	n/a	blue
85.3615	1.0167	ITI	n/a	n/a	n/a	n/a	n/a	n/a	n/a	n/a
86.3781	0.5167	FIXCROSS	n/a	n/a	n/a	n/a	n/a	n/a	n/a	n/a
86.8948	0.5	INK	20	Neutral	xxxxx	xxxxx	niebieski	blue	hit	n/a
87.3706	n/a	RESPONSE	n/a	n/a	n/a	n/a	n/a	n/a	n/a	blue
87.3948	1.0167	ITI	n/a	n/a	n/a	n/a	n/a	n/a	n/a	n/a
88.4115	0.5167	FIXCROSS	n/a	n/a	n/a	n/a	n/a	n/a	n/a	n/a
88.9281	0.5833	INK	21	Incongruent	czerwony	red	żółty	yellow	hit	n/a
89.4802	n/a	RESPONSE	n/a	n/a	n/a	n/a	n/a	n/a	n/a	yellow
89.5115	1.0167	ITI	n/a	n/a	n/a	n/a	n/a	n/a	n/a	n/a
90.5281	0.5167	FIXCROSS	n/a	n/a	n/a	n/a	n/a	n/a	n/a	n/a
91.0448	0.4833	INK	22	Neutral	xxxxx	xxxxx	niebieski	blue	hit	n/a
91.5098	n/a	RESPONSE	n/a	n/a	n/a	n/a	n/a	n/a	n/a	blue
91.5282	1.0167	ITI	n/a	n/a	n/a	n/a	n/a	n/a	n/a	n/a
92.5448	0.5167	FIXCROSS	n/a	n/a	n/a	n/a	n/a	n/a	n/a	n/a
93.0615	0.6333	INK	23	Neutral	xxxxxxxxx	xxxxxxxxx	zielony	green	hit	n/a
93.6673	n/a	RESPONSE	n/a	n/a	n/a	n/a	n/a	n/a	n/a	green
93.6948	1.0167	ITI	n/a	n/a	n/a	n/a	n/a	n/a	n/a	n/a
94.7115	0.5167	FIXCROSS	n/a	n/a	n/a	n/a	n/a	n/a	n/a	n/a
95.2282	0.55	INK	24	Neutral	xxxxxxxxx	xxxxxxxxx	żółty	yellow	hit	n/a
95.7449	n/a	RESPONSE	n/a	n/a	n/a	n/a	n/a	n/a	n/a	yellow
95.7782	1.0167	ITI	n/a	n/a	n/a	n/a	n/a	n/a	n/a	n/a
96.7949	0.5167	FIXCROSS	n/a	n/a	n/a	n/a	n/a	n/a	n/a	n/a
97.3115	0.5	INK	25	Incongruent	czerwony	red	żółty	yellow	hit	n/a
97.7905	n/a	RESPONSE	n/a	n/a	n/a	n/a	n/a	n/a	n/a	yellow
97.8115	1.0167	ITI	n/a	n/a	n/a	n/a	n/a	n/a	n/a	n/a
98.8282	0.5167	FIXCROSS	n/a	n/a	n/a	n/a	n/a	n/a	n/a	n/a
99.3449	0.5333	INK	26	Neutral	xxxxx	xxxxx	zielony	green	hit	n/a
99.8521	n/a	RESPONSE	n/a	n/a	n/a	n/a	n/a	n/a	n/a	green
99.8782	1.0167	ITI	n/a	n/a	n/a	n/a	n/a	n/a	n/a	n/a
100.8949	0.5167	FIXCROSS	n/a	n/a	n/a	n/a	n/a	n/a	n/a	n/a
101.4116	0.6167	INK	27	Neutral	xxxxxxxx	xxxxxxxx	niebieski	blue	hit	n/a
102.0095	n/a	RESPONSE	n/a	n/a	n/a	n/a	n/a	n/a	n/a	blue
102.0282	1.0167	ITI	n/a	n/a	n/a	n/a	n/a	n/a	n/a	n/a
103.0449	0.5167	FIXCROSS	n/a	n/a	n/a	n/a	n/a	n/a	n/a	n/a
103.5616	0.5667	INK	28	Incongruent	czerwony	red	zielony	green	incorrect	n/a
104.1031	n/a	RESPONSE	n/a	n/a	n/a	n/a	n/a	n/a	n/a	yellow
104.1283	1.0167	ITI	n/a	n/a	n/a	n/a	n/a	n/a	n/a	n/a
105.1449	0.5167	FIXCROSS	n/a	n/a	n/a	n/a	n/a	n/a	n/a	n/a
105.6616	0.7667	INK	29	Incongruent	żółty	yellow	zielony	green	hit	n/a
106.4044	n/a	RESPONSE	n/a	n/a	n/a	n/a	n/a	n/a	n/a	green
106.4283	1.0167	ITI	n/a	n/a	n/a	n/a	n/a	n/a	n/a	n/a
107.4449	0.5167	FIXCROSS	n/a	n/a	n/a	n/a	n/a	n/a	n/a	n/a
107.9616	0.45	INK	30	Incongruent	niebieski	blue	żółty	yellow	hit	n/a
108.3861	n/a	RESPONSE	n/a	n/a	n/a	n/a	n/a	n/a	n/a	yellow
108.4116	1.0167	ITI	n/a	n/a	n/a	n/a	n/a	n/a	n/a	n/a
109.4283	0.5167	FIXCROSS	n/a	n/a	n/a	n/a	n/a	n/a	n/a	n/a
109.945	0.5833	INK	31	Neutral	xxxxxxxxx	xxxxxxxxx	zielony	green	hit	n/a
110.4957	n/a	RESPONSE	n/a	n/a	n/a	n/a	n/a	n/a	n/a	green
110.5283	1.0167	ITI	n/a	n/a	n/a	n/a	n/a	n/a	n/a	n/a
111.545	0.5167	FIXCROSS	n/a	n/a	n/a	n/a	n/a	n/a	n/a	n/a
112.0616	0.5167	INK	32	Neutral	xxxxx	xxxxx	czerwony	red	hit	n/a
112.5572	n/a	RESPONSE	n/a	n/a	n/a	n/a	n/a	n/a	n/a	red
112.5783	1.0167	ITI	n/a	n/a	n/a	n/a	n/a	n/a	n/a	n/a
113.595	0.5167	FIXCROSS	n/a	n/a	n/a	n/a	n/a	n/a	n/a	n/a
114.1117	0.4833	INK	33	Neutral	xxxxxxxx	xxxxxxxx	zielony	green	hit	n/a
114.571	n/a	RESPONSE	n/a	n/a	n/a	n/a	n/a	n/a	n/a	green
114.595	1.0167	ITI	n/a	n/a	n/a	n/a	n/a	n/a	n/a	n/a
115.6117	0.5167	FIXCROSS	n/a	n/a	n/a	n/a	n/a	n/a	n/a	n/a
116.1283	0.5667	INK	34	Incongruent	niebieski	blue	żółty	yellow	hit	n/a
116.6644	n/a	RESPONSE	n/a	n/a	n/a	n/a	n/a	n/a	n/a	yellow
116.695	1.0167	ITI	n/a	n/a	n/a	n/a	n/a	n/a	n/a	n/a
117.7117	0.5167	FIXCROSS	n/a	n/a	n/a	n/a	n/a	n/a	n/a	n/a
118.2284	0.65	INK	35	Incongruent	niebieski	blue	czerwony	red	hit	n/a
118.8539	n/a	RESPONSE	n/a	n/a	n/a	n/a	n/a	n/a	n/a	red
118.8783	1.0167	ITI	n/a	n/a	n/a	n/a	n/a	n/a	n/a	n/a
119.895	0.5167	FIXCROSS	n/a	n/a	n/a	n/a	n/a	n/a	n/a	n/a
120.4117	0.45	INK	36	Neutral	xxxxx	xxxxx	niebieski	blue	hit	n/a
120.8357	n/a	RESPONSE	n/a	n/a	n/a	n/a	n/a	n/a	n/a	blue
120.8617	1.0167	ITI	n/a	n/a	n/a	n/a	n/a	n/a	n/a	n/a
121.8784	0.5167	FIXCROSS	n/a	n/a	n/a	n/a	n/a	n/a	n/a	n/a
122.395	0.5	INK	37	Neutral	xxxxxxxx	xxxxxxxx	żółty	yellow	hit	n/a
122.8653	n/a	RESPONSE	n/a	n/a	n/a	n/a	n/a	n/a	n/a	yellow
122.895	1.0167	ITI	n/a	n/a	n/a	n/a	n/a	n/a	n/a	n/a
123.9117	0.5167	FIXCROSS	n/a	n/a	n/a	n/a	n/a	n/a	n/a	n/a
124.4284	0.6333	INK	38	Incongruent	żółty	yellow	niebieski	blue	hit	n/a
125.0389	n/a	RESPONSE	n/a	n/a	n/a	n/a	n/a	n/a	n/a	blue
125.0617	1.0167	ITI	n/a	n/a	n/a	n/a	n/a	n/a	n/a	n/a
126.0784	0.5167	FIXCROSS	n/a	n/a	n/a	n/a	n/a	n/a	n/a	n/a
126.5951	0.75	INK	39	Neutral	xxxxxxx	xxxxxxx	czerwony	red	hit	n/a
127.3242	n/a	RESPONSE	n/a	n/a	n/a	n/a	n/a	n/a	n/a	red
127.3451	1.0167	ITI	n/a	n/a	n/a	n/a	n/a	n/a	n/a	n/a
128.3618	0.5167	FIXCROSS	n/a	n/a	n/a	n/a	n/a	n/a	n/a	n/a
128.8784	0.6833	INK	40	Incongruent	żółty	yellow	niebieski	blue	hit	n/a
129.5296	n/a	RESPONSE	n/a	n/a	n/a	n/a	n/a	n/a	n/a	blue
129.5618	1.0167	ITI	n/a	n/a	n/a	n/a	n/a	n/a	n/a	n/a
130.5784	0.5167	FIXCROSS	n/a	n/a	n/a	n/a	n/a	n/a	n/a	n/a
131.0951	0.5667	INK	41	Incongruent	czerwony	red	niebieski	blue	hit	n/a
131.6392	n/a	RESPONSE	n/a	n/a	n/a	n/a	n/a	n/a	n/a	blue
131.6618	1.0167	ITI	n/a	n/a	n/a	n/a	n/a	n/a	n/a	n/a
132.6785	0.5167	FIXCROSS	n/a	n/a	n/a	n/a	n/a	n/a	n/a	n/a
133.1951	0.4333	INK	42	Neutral	xxxxxxx	xxxxxxx	niebieski	blue	hit	n/a
133.6049	n/a	RESPONSE	n/a	n/a	n/a	n/a	n/a	n/a	n/a	blue
133.6285	1.0167	ITI	n/a	n/a	n/a	n/a	n/a	n/a	n/a	n/a
134.6451	0.5167	FIXCROSS	n/a	n/a	n/a	n/a	n/a	n/a	n/a	n/a
135.1618	0.7333	INK	43	Incongruent	zielony	green	czerwony	red	hit	n/a
135.8743	n/a	RESPONSE	n/a	n/a	n/a	n/a	n/a	n/a	n/a	red
135.8951	1.0167	ITI	n/a	n/a	n/a	n/a	n/a	n/a	n/a	n/a
136.9118	0.5167	FIXCROSS	n/a	n/a	n/a	n/a	n/a	n/a	n/a	n/a
137.4285	0.4333	INK	44	Neutral	xxxxxxxx	xxxxxxxx	zielony	green	hit	n/a
137.84	n/a	RESPONSE	n/a	n/a	n/a	n/a	n/a	n/a	n/a	green
137.8618	1.0167	ITI	n/a	n/a	n/a	n/a	n/a	n/a	n/a	n/a
138.8785	0.5167	FIXCROSS	n/a	n/a	n/a	n/a	n/a	n/a	n/a	n/a
139.3952	0.5	INK	45	Incongruent	czerwony	red	niebieski	blue	hit	n/a
139.8696	n/a	RESPONSE	n/a	n/a	n/a	n/a	n/a	n/a	n/a	blue
139.8952	1.0167	ITI	n/a	n/a	n/a	n/a	n/a	n/a	n/a	n/a
140.9118	0.5167	FIXCROSS	n/a	n/a	n/a	n/a	n/a	n/a	n/a	n/a
141.4285	0.6333	INK	46	Neutral	xxxxxxx	xxxxxxx	żółty	yellow	hit	n/a
142.0431	n/a	RESPONSE	n/a	n/a	n/a	n/a	n/a	n/a	n/a	yellow
142.0619	1.0167	ITI	n/a	n/a	n/a	n/a	n/a	n/a	n/a	n/a
143.0785	0.5167	FIXCROSS	n/a	n/a	n/a	n/a	n/a	n/a	n/a	n/a
143.5952	0.5833	INK	47	Neutral	xxxxx	xxxxx	zielony	green	hit	n/a
144.1525	n/a	RESPONSE	n/a	n/a	n/a	n/a	n/a	n/a	n/a	green
144.1785	1.0167	ITI	n/a	n/a	n/a	n/a	n/a	n/a	n/a	n/a
145.1952	0.5167	FIXCROSS	n/a	n/a	n/a	n/a	n/a	n/a	n/a	n/a
145.7119	0.6333	INK	48	Incongruent	niebieski	blue	zielony	green	hit	n/a
146.3261	n/a	RESPONSE	n/a	n/a	n/a	n/a	n/a	n/a	n/a	green
146.3452	1.0167	ITI	n/a	n/a	n/a	n/a	n/a	n/a	n/a	n/a
147.3619	0.5167	FIXCROSS	n/a	n/a	n/a	n/a	n/a	n/a	n/a	n/a
147.8786	0.6167	INK	49	Incongruent	niebieski	blue	czerwony	red	hit	n/a
148.4676	n/a	RESPONSE	n/a	n/a	n/a	n/a	n/a	n/a	n/a	red
148.4952	1.0167	ITI	n/a	n/a	n/a	n/a	n/a	n/a	n/a	n/a
149.5119	0.5167	FIXCROSS	n/a	n/a	n/a	n/a	n/a	n/a	n/a	n/a
150.0286	0.5167	INK	50	Incongruent	czerwony	red	zielony	green	hit	n/a
150.5132	n/a	RESPONSE	n/a	n/a	n/a	n/a	n/a	n/a	n/a	green
150.5452	1.0167	ITI	n/a	n/a	n/a	n/a	n/a	n/a	n/a	n/a
151.5619	0.5167	FIXCROSS	n/a	n/a	n/a	n/a	n/a	n/a	n/a	n/a
152.0786	0.65	INK	51	Neutral	xxxxx	xxxxx	czerwony	red	hit	n/a
152.7026	n/a	RESPONSE	n/a	n/a	n/a	n/a	n/a	n/a	n/a	red
152.7286	1.0167	ITI	n/a	n/a	n/a	n/a	n/a	n/a	n/a	n/a
153.7453	0.5167	FIXCROSS	n/a	n/a	n/a	n/a	n/a	n/a	n/a	n/a
154.2619	0.5	INK	52	Incongruent	zielony	green	żółty	yellow	incorrect	n/a
154.7322	n/a	RESPONSE	n/a	n/a	n/a	n/a	n/a	n/a	n/a	green
154.7619	1.0167	ITI	n/a	n/a	n/a	n/a	n/a	n/a	n/a	n/a
155.7786	0.5167	FIXCROSS	n/a	n/a	n/a	n/a	n/a	n/a	n/a	n/a
156.2953	0.7333	INK	53	Incongruent	żółty	yellow	czerwony	red	hit	n/a
157.0016	n/a	RESPONSE	n/a	n/a	n/a	n/a	n/a	n/a	n/a	red
157.0286	1.0167	ITI	n/a	n/a	n/a	n/a	n/a	n/a	n/a	n/a
158.0453	0.5167	FIXCROSS	n/a	n/a	n/a	n/a	n/a	n/a	n/a	n/a
158.562	0.6667	INK	54	Incongruent	zielony	green	niebieski	blue	hit	n/a
159.207	n/a	RESPONSE	n/a	n/a	n/a	n/a	n/a	n/a	n/a	blue
159.2286	1.0167	ITI	n/a	n/a	n/a	n/a	n/a	n/a	n/a	n/a
160.2453	0.5167	FIXCROSS	n/a	n/a	n/a	n/a	n/a	n/a	n/a	n/a
160.762	0.6667	INK	55	Neutral	xxxxxxx	xxxxxxx	żółty	yellow	hit	n/a
161.3964	n/a	RESPONSE	n/a	n/a	n/a	n/a	n/a	n/a	n/a	yellow
161.4287	1.0167	ITI	n/a	n/a	n/a	n/a	n/a	n/a	n/a	n/a
162.4453	0.5167	FIXCROSS	n/a	n/a	n/a	n/a	n/a	n/a	n/a	n/a
162.962	0.6833	INK	56	Neutral	xxxxxxx	xxxxxxx	niebieski	blue	hit	n/a
163.6178	n/a	RESPONSE	n/a	n/a	n/a	n/a	n/a	n/a	n/a	blue
163.6453	1.0167	ITI	n/a	n/a	n/a	n/a	n/a	n/a	n/a	n/a
164.662	0.5167	FIXCROSS	n/a	n/a	n/a	n/a	n/a	n/a	n/a	n/a
165.1787	0.45	INK	57	Incongruent	czerwony	red	żółty	yellow	hit	n/a
165.5995	n/a	RESPONSE	n/a	n/a	n/a	n/a	n/a	n/a	n/a	yellow
165.6287	1.0167	ITI	n/a	n/a	n/a	n/a	n/a	n/a	n/a	n/a
166.6454	0.5167	FIXCROSS	n/a	n/a	n/a	n/a	n/a	n/a	n/a	n/a
167.162	0.65	INK	58	Neutral	xxxxxxx	xxxxxxx	czerwony	red	hit	n/a
167.789	n/a	RESPONSE	n/a	n/a	n/a	n/a	n/a	n/a	n/a	red
167.812	1.0167	ITI	n/a	n/a	n/a	n/a	n/a	n/a	n/a	n/a
168.8287	0.5167	FIXCROSS	n/a	n/a	n/a	n/a	n/a	n/a	n/a	n/a
169.3454	0.5667	INK	59	Neutral	xxxxxxx	xxxxxxx	żółty	yellow	hit	n/a
169.8826	n/a	RESPONSE	n/a	n/a	n/a	n/a	n/a	n/a	n/a	yellow
169.9121	1.0167	ITI	n/a	n/a	n/a	n/a	n/a	n/a	n/a	n/a
170.9287	0.5167	FIXCROSS	n/a	n/a	n/a	n/a	n/a	n/a	n/a	n/a
171.4454	0.5167	INK	60	Neutral	xxxxxxx	xxxxxxx	niebieski	blue	hit	n/a
171.9442	n/a	RESPONSE	n/a	n/a	n/a	n/a	n/a	n/a	n/a	blue
171.9621	1.0167	ITI	n/a	n/a	n/a	n/a	n/a	n/a	n/a	n/a
172.9787	0.5167	FIXCROSS	n/a	n/a	n/a	n/a	n/a	n/a	n/a	n/a
173.4954	0.5167	INK	61	Neutral	xxxxxxx	xxxxxxx	czerwony	red	hit	n/a
173.9898	n/a	RESPONSE	n/a	n/a	n/a	n/a	n/a	n/a	n/a	red
174.0121	1.0167	ITI	n/a	n/a	n/a	n/a	n/a	n/a	n/a	n/a
175.0288	0.5167	FIXCROSS	n/a	n/a	n/a	n/a	n/a	n/a	n/a	n/a
175.5454	0.6	INK	62	Incongruent	zielony	green	czerwony	red	hit	n/a
176.1153	n/a	RESPONSE	n/a	n/a	n/a	n/a	n/a	n/a	n/a	red
176.1454	1.0167	ITI	n/a	n/a	n/a	n/a	n/a	n/a	n/a	n/a
177.1621	0.5167	FIXCROSS	n/a	n/a	n/a	n/a	n/a	n/a	n/a	n/a
177.6788	0.4333	INK	63	Neutral	xxxxx	xxxxx	czerwony	red	hit	n/a
178.081	n/a	RESPONSE	n/a	n/a	n/a	n/a	n/a	n/a	n/a	red
178.1121	1.0167	ITI	n/a	n/a	n/a	n/a	n/a	n/a	n/a	n/a
179.1288	0.5167	FIXCROSS	n/a	n/a	n/a	n/a	n/a	n/a	n/a	n/a
179.6455	0.6667	INK	64	Neutral	xxxxxxxxx	xxxxxxxxx	żółty	yellow	hit	n/a
180.2863	n/a	RESPONSE	n/a	n/a	n/a	n/a	n/a	n/a	n/a	yellow
180.3121	1.0167	ITI	n/a	n/a	n/a	n/a	n/a	n/a	n/a	n/a
181.3288	0.5166	FIXCROSS	n/a	n/a	n/a	n/a	n/a	n/a	n/a	n/a
181.8454	0.4167	INK	65	Neutral	xxxxxxxx	xxxxxxxx	żółty	yellow	hit	n/a
182.2362	n/a	RESPONSE	n/a	n/a	n/a	n/a	n/a	n/a	n/a	yellow
182.2621	1.0167	ITI	n/a	n/a	n/a	n/a	n/a	n/a	n/a	n/a
183.2788	0.5167	FIXCROSS	n/a	n/a	n/a	n/a	n/a	n/a	n/a	n/a
183.7955	0.5333	INK	66	Incongruent	zielony	green	niebieski	blue	hit	n/a
184.2978	n/a	RESPONSE	n/a	n/a	n/a	n/a	n/a	n/a	n/a	blue
184.3288	1.0167	ITI	n/a	n/a	n/a	n/a	n/a	n/a	n/a	n/a
185.3455	0.5167	FIXCROSS	n/a	n/a	n/a	n/a	n/a	n/a	n/a	n/a
185.8622	0.75	INK	67	Incongruent	żółty	yellow	czerwony	red	hit	n/a
186.5831	n/a	RESPONSE	n/a	n/a	n/a	n/a	n/a	n/a	n/a	red
186.6122	1.0167	ITI	n/a	n/a	n/a	n/a	n/a	n/a	n/a	n/a
187.6288	0.5167	FIXCROSS	n/a	n/a	n/a	n/a	n/a	n/a	n/a	n/a
188.1455	0.6667	INK	68	Neutral	xxxxxxxxx	xxxxxxxxx	żółty	yellow	hit	n/a
188.7885	n/a	RESPONSE	n/a	n/a	n/a	n/a	n/a	n/a	n/a	yellow
188.8122	1.0167	ITI	n/a	n/a	n/a	n/a	n/a	n/a	n/a	n/a
189.8289	0.5167	FIXCROSS	n/a	n/a	n/a	n/a	n/a	n/a	n/a	n/a
190.3455	0.7667	INK	69	Incongruent	niebieski	blue	zielony	green	hit	n/a
191.0898	n/a	RESPONSE	n/a	n/a	n/a	n/a	n/a	n/a	n/a	green
191.1122	1.0167	ITI	n/a	n/a	n/a	n/a	n/a	n/a	n/a	n/a
192.1289	0.5167	FIXCROSS	n/a	n/a	n/a	n/a	n/a	n/a	n/a	n/a
192.6455	0.8833	INK	70	Neutral	xxxxxxxxx	xxxxxxxxx	czerwony	red	hit	n/a
193.5031	n/a	RESPONSE	n/a	n/a	n/a	n/a	n/a	n/a	n/a	red
193.5289	1.0167	ITI	n/a	n/a	n/a	n/a	n/a	n/a	n/a	n/a
194.5456	0.5167	FIXCROSS	n/a	n/a	n/a	n/a	n/a	n/a	n/a	n/a
195.0622	0.5333	INK	71	Neutral	xxxxxxxx	xxxxxxxx	żółty	yellow	hit	n/a
195.5647	n/a	RESPONSE	n/a	n/a	n/a	n/a	n/a	n/a	n/a	yellow
195.5956	1.0167	ITI	n/a	n/a	n/a	n/a	n/a	n/a	n/a	n/a
196.6123	0.5167	FIXCROSS	n/a	n/a	n/a	n/a	n/a	n/a	n/a	n/a
197.1289	0.5167	INK	72	Neutral	xxxxxxxx	xxxxxxxx	zielony	green	hit	n/a
197.6263	n/a	RESPONSE	n/a	n/a	n/a	n/a	n/a	n/a	n/a	green
197.6456	1.0833	ITI	n/a	n/a	n/a	n/a	n/a	n/a	n/a	n/a
223.8838	n/a	RESPONSE	n/a	n/a	n/a	n/a	n/a	n/a	n/a	n/a
223.9458	1.0167	ITI	n/a	n/a	n/a	n/a	n/a	n/a	n/a	n/a
224.9624	0.5167	FIXCROSS	n/a	n/a	n/a	n/a	n/a	n/a	n/a	n/a
225.4791	0.7833	T_COLOR_NAME	1	Neutral	żółty	yellow	Neutral	Neutral	hit	n/a
226.2331	n/a	RESPONSE	n/a	n/a	n/a	n/a	n/a	n/a	n/a	yellow
226.2625	0.5167	FEEDBACK	n/a	n/a	n/a	n/a	n/a	n/a	n/a	n/a
226.7791	1.0167	ITI	n/a	n/a	n/a	n/a	n/a	n/a	n/a	n/a
227.7958	0.5167	FIXCROSS	n/a	n/a	n/a	n/a	n/a	n/a	n/a	n/a
228.3125	0.6667	T_COLOR_NAME	2	Incongruent	żółty	yellow	czerwony	red	hit	n/a
228.9499	n/a	RESPONSE	n/a	n/a	n/a	n/a	n/a	n/a	n/a	yellow
228.9791	0.5167	FEEDBACK	n/a	n/a	n/a	n/a	n/a	n/a	n/a	n/a
229.4958	1.0167	ITI	n/a	n/a	n/a	n/a	n/a	n/a	n/a	n/a
230.5125	0.5167	FIXCROSS	n/a	n/a	n/a	n/a	n/a	n/a	n/a	n/a
231.0292	0.5833	T_COLOR_NAME	3	Incongruent	żółty	yellow	niebieski	blue	hit	n/a
231.5869	n/a	RESPONSE	n/a	n/a	n/a	n/a	n/a	n/a	n/a	yellow
231.6125	0.5167	FEEDBACK	n/a	n/a	n/a	n/a	n/a	n/a	n/a	n/a
232.1292	1.0167	ITI	n/a	n/a	n/a	n/a	n/a	n/a	n/a	n/a
233.1458	0.5167	FIXCROSS	n/a	n/a	n/a	n/a	n/a	n/a	n/a	n/a
233.6625	0.8833	T_COLOR_NAME	4	Neutral	zielony	green	Neutral	Neutral	hit	n/a
234.5114	n/a	RESPONSE	n/a	n/a	n/a	n/a	n/a	n/a	n/a	green
234.5458	0.5167	FEEDBACK	n/a	n/a	n/a	n/a	n/a	n/a	n/a	n/a
235.0625	1.0167	ITI	n/a	n/a	n/a	n/a	n/a	n/a	n/a	n/a
236.0792	0.5167	FIXCROSS	n/a	n/a	n/a	n/a	n/a	n/a	n/a	n/a
236.5959	0.7167	T_COLOR_NAME	5	Incongruent	czerwony	red	niebieski	blue	hit	n/a
237.2922	n/a	RESPONSE	n/a	n/a	n/a	n/a	n/a	n/a	n/a	red
237.3125	0.5167	FEEDBACK	n/a	n/a	n/a	n/a	n/a	n/a	n/a	n/a
237.8292	1.0167	ITI	n/a	n/a	n/a	n/a	n/a	n/a	n/a	n/a
238.8459	0.5167	FIXCROSS	n/a	n/a	n/a	n/a	n/a	n/a	n/a	n/a
239.3626	0.8667	T_COLOR_NAME	6	Incongruent	zielony	green	czerwony	red	hit	n/a
240.2009	n/a	RESPONSE	n/a	n/a	n/a	n/a	n/a	n/a	n/a	green
240.2292	0.5167	FEEDBACK	n/a	n/a	n/a	n/a	n/a	n/a	n/a	n/a
240.7459	1.0167	ITI	n/a	n/a	n/a	n/a	n/a	n/a	n/a	n/a
241.7626	0.5167	FIXCROSS	n/a	n/a	n/a	n/a	n/a	n/a	n/a	n/a
242.2792	0.6333	T_COLOR_NAME	7	Neutral	żółty	yellow	Neutral	Neutral	hit	n/a
242.8859	n/a	RESPONSE	n/a	n/a	n/a	n/a	n/a	n/a	n/a	yellow
242.9126	0.5167	FEEDBACK	n/a	n/a	n/a	n/a	n/a	n/a	n/a	n/a
243.4292	1.0167	ITI	n/a	n/a	n/a	n/a	n/a	n/a	n/a	n/a
244.4459	0.5167	FIXCROSS	n/a	n/a	n/a	n/a	n/a	n/a	n/a	n/a
244.9626	0.85	T_COLOR_NAME	8	Incongruent	czerwony	red	żółty	yellow	hit	n/a
245.7785	n/a	RESPONSE	n/a	n/a	n/a	n/a	n/a	n/a	n/a	red
245.8126	0.5167	FEEDBACK	n/a	n/a	n/a	n/a	n/a	n/a	n/a	n/a
246.3293	1.0167	ITI	n/a	n/a	n/a	n/a	n/a	n/a	n/a	n/a
247.3459	0.5167	FIXCROSS	n/a	n/a	n/a	n/a	n/a	n/a	n/a	n/a
247.8626	0.6	T_COLOR_NAME	9	Neutral	czerwony	red	Neutral	Neutral	hit	n/a
248.4314	n/a	RESPONSE	n/a	n/a	n/a	n/a	n/a	n/a	n/a	red
248.4626	0.5167	FEEDBACK	n/a	n/a	n/a	n/a	n/a	n/a	n/a	n/a
248.9793	1.0167	ITI	n/a	n/a	n/a	n/a	n/a	n/a	n/a	n/a
249.996	0.5167	FIXCROSS	n/a	n/a	n/a	n/a	n/a	n/a	n/a	n/a
250.5126	0.6833	T_COLOR_NAME	10	Neutral	niebieski	blue	Neutral	Neutral	hit	n/a
251.1643	n/a	RESPONSE	n/a	n/a	n/a	n/a	n/a	n/a	n/a	blue
251.196	0.5167	FEEDBACK	n/a	n/a	n/a	n/a	n/a	n/a	n/a	n/a
251.7126	1.0167	ITI	n/a	n/a	n/a	n/a	n/a	n/a	n/a	n/a
252.7293	0.5167	FIXCROSS	n/a	n/a	n/a	n/a	n/a	n/a	n/a	n/a
253.246	0.85	T_COLOR_NAME	11	Incongruent	zielony	green	żółty	yellow	hit	n/a
254.0728	n/a	RESPONSE	n/a	n/a	n/a	n/a	n/a	n/a	n/a	green
254.096	0.5167	FEEDBACK	n/a	n/a	n/a	n/a	n/a	n/a	n/a	n/a
254.6127	1.0167	ITI	n/a	n/a	n/a	n/a	n/a	n/a	n/a	n/a
255.6293	0.5167	FIXCROSS	n/a	n/a	n/a	n/a	n/a	n/a	n/a	n/a
256.146	0.95	T_COLOR_NAME	12	Incongruent	niebieski	blue	zielony	green	hit	n/a
257.0613	n/a	RESPONSE	n/a	n/a	n/a	n/a	n/a	n/a	n/a	blue
257.096	0.5167	FEEDBACK	n/a	n/a	n/a	n/a	n/a	n/a	n/a	n/a
257.6127	1.0333	ITI	n/a	n/a	n/a	n/a	n/a	n/a	n/a	n/a
260.1458	n/a	RESPONSE	n/a	n/a	n/a	n/a	n/a	n/a	n/a	n/a
260.2127	1.0167	ITI	n/a	n/a	n/a	n/a	n/a	n/a	n/a	n/a
261.2294	0.5167	FIXCROSS	n/a	n/a	n/a	n/a	n/a	n/a	n/a	n/a
261.7461	0.7667	COLOR_NAME	1	Neutral	niebieski	blue	Neutral	Neutral	hit	n/a
262.4791	n/a	RESPONSE	n/a	n/a	n/a	n/a	n/a	n/a	n/a	blue
262.5127	1.0167	ITI	n/a	n/a	n/a	n/a	n/a	n/a	n/a	n/a
263.5294	0.5167	FIXCROSS	n/a	n/a	n/a	n/a	n/a	n/a	n/a	n/a
264.0461	1.1167	COLOR_NAME	2	Incongruent	zielony	green	niebieski	blue	hit	n/a
265.132	n/a	RESPONSE	n/a	n/a	n/a	n/a	n/a	n/a	n/a	green
265.1627	1.0167	ITI	n/a	n/a	n/a	n/a	n/a	n/a	n/a	n/a
266.1794	0.5167	FIXCROSS	n/a	n/a	n/a	n/a	n/a	n/a	n/a	n/a
266.6961	0.5833	COLOR_NAME	3	Neutral	niebieski	blue	Neutral	Neutral	hit	n/a
267.2576	n/a	RESPONSE	n/a	n/a	n/a	n/a	n/a	n/a	n/a	blue
267.2794	1.0167	ITI	n/a	n/a	n/a	n/a	n/a	n/a	n/a	n/a
268.2961	0.5167	FIXCROSS	n/a	n/a	n/a	n/a	n/a	n/a	n/a	n/a
268.8128	0.4667	COLOR_NAME	4	Neutral	zielony	green	Neutral	Neutral	hit	n/a
269.2552	n/a	RESPONSE	n/a	n/a	n/a	n/a	n/a	n/a	n/a	green
269.2794	1.0167	ITI	n/a	n/a	n/a	n/a	n/a	n/a	n/a	n/a
270.2961	0.5167	FIXCROSS	n/a	n/a	n/a	n/a	n/a	n/a	n/a	n/a
270.8128	0.6	COLOR_NAME	5	Incongruent	niebieski	blue	żółty	yellow	hit	n/a
271.3808	n/a	RESPONSE	n/a	n/a	n/a	n/a	n/a	n/a	n/a	blue
271.4128	1.0167	ITI	n/a	n/a	n/a	n/a	n/a	n/a	n/a	n/a
272.4295	0.5167	FIXCROSS	n/a	n/a	n/a	n/a	n/a	n/a	n/a	n/a
272.9461	0.4167	COLOR_NAME	6	Neutral	zielony	green	Neutral	Neutral	hit	n/a
273.3305	n/a	RESPONSE	n/a	n/a	n/a	n/a	n/a	n/a	n/a	green
273.3628	1.0167	ITI	n/a	n/a	n/a	n/a	n/a	n/a	n/a	n/a
274.3795	0.5167	FIXCROSS	n/a	n/a	n/a	n/a	n/a	n/a	n/a	n/a
274.8961	0.6333	COLOR_NAME	7	Neutral	zielony	green	Neutral	Neutral	hit	n/a
275.504	n/a	RESPONSE	n/a	n/a	n/a	n/a	n/a	n/a	n/a	green
275.5295	1.0167	ITI	n/a	n/a	n/a	n/a	n/a	n/a	n/a	n/a
276.5462	0.5167	FIXCROSS	n/a	n/a	n/a	n/a	n/a	n/a	n/a	n/a
277.0628	0.6	COLOR_NAME	8	Incongruent	niebieski	blue	czerwony	red	hit	n/a
277.6454	n/a	RESPONSE	n/a	n/a	n/a	n/a	n/a	n/a	n/a	blue
277.6628	1.0167	ITI	n/a	n/a	n/a	n/a	n/a	n/a	n/a	n/a
278.6795	0.5167	FIXCROSS	n/a	n/a	n/a	n/a	n/a	n/a	n/a	n/a
279.1962	0.6167	COLOR_NAME	9	Incongruent	zielony	green	żółty	yellow	hit	n/a
279.7869	n/a	RESPONSE	n/a	n/a	n/a	n/a	n/a	n/a	n/a	green
279.8128	1.0167	ITI	n/a	n/a	n/a	n/a	n/a	n/a	n/a	n/a
280.8295	0.5167	FIXCROSS	n/a	n/a	n/a	n/a	n/a	n/a	n/a	n/a
281.3462	0.8667	COLOR_NAME	10	Incongruent	czerwony	red	zielony	green	hit	n/a
282.1841	n/a	RESPONSE	n/a	n/a	n/a	n/a	n/a	n/a	n/a	red
282.2129	1.0167	ITI	n/a	n/a	n/a	n/a	n/a	n/a	n/a	n/a
283.2295	0.5167	FIXCROSS	n/a	n/a	n/a	n/a	n/a	n/a	n/a	n/a
283.7462	0.6333	COLOR_NAME	11	Neutral	czerwony	red	Neutral	Neutral	hit	n/a
284.3576	n/a	RESPONSE	n/a	n/a	n/a	n/a	n/a	n/a	n/a	red
284.3795	1.0167	ITI	n/a	n/a	n/a	n/a	n/a	n/a	n/a	n/a
285.3962	0.5167	FIXCROSS	n/a	n/a	n/a	n/a	n/a	n/a	n/a	n/a
285.9129	0.5167	COLOR_NAME	12	Neutral	żółty	yellow	Neutral	Neutral	hit	n/a
286.4032	n/a	RESPONSE	n/a	n/a	n/a	n/a	n/a	n/a	n/a	yellow
286.4296	1.0167	ITI	n/a	n/a	n/a	n/a	n/a	n/a	n/a	n/a
287.4462	0.5167	FIXCROSS	n/a	n/a	n/a	n/a	n/a	n/a	n/a	n/a
287.9629	0.6667	COLOR_NAME	13	Neutral	niebieski	blue	Neutral	Neutral	hit	n/a
288.6086	n/a	RESPONSE	n/a	n/a	n/a	n/a	n/a	n/a	n/a	blue
288.6296	1.0167	ITI	n/a	n/a	n/a	n/a	n/a	n/a	n/a	n/a
289.6462	0.5167	FIXCROSS	n/a	n/a	n/a	n/a	n/a	n/a	n/a	n/a
290.1629	0.4	COLOR_NAME	14	Neutral	zielony	green	Neutral	Neutral	hit	n/a
290.5424	n/a	RESPONSE	n/a	n/a	n/a	n/a	n/a	n/a	n/a	green
290.5629	1.0167	ITI	n/a	n/a	n/a	n/a	n/a	n/a	n/a	n/a
291.5796	0.5167	FIXCROSS	n/a	n/a	n/a	n/a	n/a	n/a	n/a	n/a
292.0963	0.45	COLOR_NAME	15	Neutral	niebieski	blue	Neutral	Neutral	hit	n/a
292.524	n/a	RESPONSE	n/a	n/a	n/a	n/a	n/a	n/a	n/a	blue
292.5463	1.0167	ITI	n/a	n/a	n/a	n/a	n/a	n/a	n/a	n/a
293.5629	0.5167	FIXCROSS	n/a	n/a	n/a	n/a	n/a	n/a	n/a	n/a
294.0796	0.5	COLOR_NAME	16	Neutral	zielony	green	Neutral	Neutral	hit	n/a
294.5537	n/a	RESPONSE	n/a	n/a	n/a	n/a	n/a	n/a	n/a	green
294.5796	1.0167	ITI	n/a	n/a	n/a	n/a	n/a	n/a	n/a	n/a
295.5963	0.5167	FIXCROSS	n/a	n/a	n/a	n/a	n/a	n/a	n/a	n/a
296.113	0.6833	COLOR_NAME	17	Neutral	żółty	yellow	Neutral	Neutral	hit	n/a
296.7752	n/a	RESPONSE	n/a	n/a	n/a	n/a	n/a	n/a	n/a	yellow
296.7963	1.0167	ITI	n/a	n/a	n/a	n/a	n/a	n/a	n/a	n/a
297.813	0.5167	FIXCROSS	n/a	n/a	n/a	n/a	n/a	n/a	n/a	n/a
298.3296	0.7667	COLOR_NAME	18	Neutral	niebieski	blue	Neutral	Neutral	hit	n/a
299.0764	n/a	RESPONSE	n/a	n/a	n/a	n/a	n/a	n/a	n/a	blue
299.0963	1.0167	ITI	n/a	n/a	n/a	n/a	n/a	n/a	n/a	n/a
300.113	0.5167	FIXCROSS	n/a	n/a	n/a	n/a	n/a	n/a	n/a	n/a
300.6297	0.7167	COLOR_NAME	19	Neutral	czerwony	red	Neutral	Neutral	hit	n/a
301.3139	n/a	RESPONSE	n/a	n/a	n/a	n/a	n/a	n/a	n/a	red
301.3463	1.0167	ITI	n/a	n/a	n/a	n/a	n/a	n/a	n/a	n/a
302.363	0.5167	FIXCROSS	n/a	n/a	n/a	n/a	n/a	n/a	n/a	n/a
302.8797	0.4667	COLOR_NAME	20	Neutral	czerwony	red	Neutral	Neutral	hit	n/a
303.3275	n/a	RESPONSE	n/a	n/a	n/a	n/a	n/a	n/a	n/a	red
303.3463	1.0167	ITI	n/a	n/a	n/a	n/a	n/a	n/a	n/a	n/a
304.363	0.5167	FIXCROSS	n/a	n/a	n/a	n/a	n/a	n/a	n/a	n/a
304.8797	0.5667	COLOR_NAME	21	Neutral	niebieski	blue	Neutral	Neutral	hit	n/a
305.4211	n/a	RESPONSE	n/a	n/a	n/a	n/a	n/a	n/a	n/a	blue
305.4464	1.0167	ITI	n/a	n/a	n/a	n/a	n/a	n/a	n/a	n/a
306.463	0.5167	FIXCROSS	n/a	n/a	n/a	n/a	n/a	n/a	n/a	n/a
306.9797	0.55	COLOR_NAME	22	Incongruent	zielony	green	żółty	yellow	incorrect	n/a
307.4987	n/a	RESPONSE	n/a	n/a	n/a	n/a	n/a	n/a	n/a	yellow
307.5297	1.0167	ITI	n/a	n/a	n/a	n/a	n/a	n/a	n/a	n/a
308.5464	0.5167	FIXCROSS	n/a	n/a	n/a	n/a	n/a	n/a	n/a	n/a
309.0631	0.8333	COLOR_NAME	23	Incongruent	zielony	green	czerwony	red	hit	n/a
309.8641	n/a	RESPONSE	n/a	n/a	n/a	n/a	n/a	n/a	n/a	green
309.8964	1.0167	ITI	n/a	n/a	n/a	n/a	n/a	n/a	n/a	n/a
310.9131	0.5167	FIXCROSS	n/a	n/a	n/a	n/a	n/a	n/a	n/a	n/a
311.4297	0.85	COLOR_NAME	24	Incongruent	czerwony	red	żółty	yellow	hit	n/a
312.2612	n/a	RESPONSE	n/a	n/a	n/a	n/a	n/a	n/a	n/a	red
312.2797	1.0167	ITI	n/a	n/a	n/a	n/a	n/a	n/a	n/a	n/a
313.2964	0.5167	FIXCROSS	n/a	n/a	n/a	n/a	n/a	n/a	n/a	n/a
313.8131	0.4667	COLOR_NAME	25	Neutral	żółty	yellow	Neutral	Neutral	hit	n/a
314.2589	n/a	RESPONSE	n/a	n/a	n/a	n/a	n/a	n/a	n/a	yellow
314.2798	1.0167	ITI	n/a	n/a	n/a	n/a	n/a	n/a	n/a	n/a
315.2964	0.5167	FIXCROSS	n/a	n/a	n/a	n/a	n/a	n/a	n/a	n/a
315.8131	0.45	COLOR_NAME	26	Neutral	żółty	yellow	Neutral	Neutral	hit	n/a
316.2406	n/a	RESPONSE	n/a	n/a	n/a	n/a	n/a	n/a	n/a	yellow
316.2631	1.0167	ITI	n/a	n/a	n/a	n/a	n/a	n/a	n/a	n/a
317.2798	0.5167	FIXCROSS	n/a	n/a	n/a	n/a	n/a	n/a	n/a	n/a
317.7964	0.4167	COLOR_NAME	27	Neutral	żółty	yellow	Neutral	Neutral	hit	n/a
318.1903	n/a	RESPONSE	n/a	n/a	n/a	n/a	n/a	n/a	n/a	yellow
318.2131	1.0167	ITI	n/a	n/a	n/a	n/a	n/a	n/a	n/a	n/a
319.2298	0.5167	FIXCROSS	n/a	n/a	n/a	n/a	n/a	n/a	n/a	n/a
319.7465	0.9167	COLOR_NAME	28	Incongruent	czerwony	red	zielony	green	hit	n/a
320.6354	n/a	RESPONSE	n/a	n/a	n/a	n/a	n/a	n/a	n/a	red
320.6631	1.0167	ITI	n/a	n/a	n/a	n/a	n/a	n/a	n/a	n/a
321.6798	0.5167	FIXCROSS	n/a	n/a	n/a	n/a	n/a	n/a	n/a	n/a
322.1965	0.4833	COLOR_NAME	29	Neutral	czerwony	red	Neutral	Neutral	hit	n/a
322.6492	n/a	RESPONSE	n/a	n/a	n/a	n/a	n/a	n/a	n/a	red
322.6798	1.0167	ITI	n/a	n/a	n/a	n/a	n/a	n/a	n/a	n/a
323.6965	0.5167	FIXCROSS	n/a	n/a	n/a	n/a	n/a	n/a	n/a	n/a
324.2132	0.6167	COLOR_NAME	30	Incongruent	niebieski	blue	żółty	yellow	hit	n/a
324.8066	n/a	RESPONSE	n/a	n/a	n/a	n/a	n/a	n/a	n/a	blue
324.8298	1.0167	ITI	n/a	n/a	n/a	n/a	n/a	n/a	n/a	n/a
325.8465	0.5167	FIXCROSS	n/a	n/a	n/a	n/a	n/a	n/a	n/a	n/a
326.3632	0.5167	COLOR_NAME	31	Neutral	żółty	yellow	Neutral	Neutral	hit	n/a
326.8522	n/a	RESPONSE	n/a	n/a	n/a	n/a	n/a	n/a	n/a	yellow
326.8798	1.0167	ITI	n/a	n/a	n/a	n/a	n/a	n/a	n/a	n/a
327.8965	0.5167	FIXCROSS	n/a	n/a	n/a	n/a	n/a	n/a	n/a	n/a
328.4132	0.7333	COLOR_NAME	32	Incongruent	czerwony	red	żółty	yellow	hit	n/a
329.1215	n/a	RESPONSE	n/a	n/a	n/a	n/a	n/a	n/a	n/a	red
329.1465	1.0167	ITI	n/a	n/a	n/a	n/a	n/a	n/a	n/a	n/a
330.1632	0.5167	FIXCROSS	n/a	n/a	n/a	n/a	n/a	n/a	n/a	n/a
330.6799	0.6333	COLOR_NAME	33	Neutral	zielony	green	Neutral	Neutral	hit	n/a
331.2951	n/a	RESPONSE	n/a	n/a	n/a	n/a	n/a	n/a	n/a	green
331.3132	1.0167	ITI	n/a	n/a	n/a	n/a	n/a	n/a	n/a	n/a
332.3299	0.5167	FIXCROSS	n/a	n/a	n/a	n/a	n/a	n/a	n/a	n/a
332.8466	0.5667	COLOR_NAME	34	Incongruent	żółty	yellow	niebieski	blue	hit	n/a
333.3888	n/a	RESPONSE	n/a	n/a	n/a	n/a	n/a	n/a	n/a	yellow
333.4132	1.0167	ITI	n/a	n/a	n/a	n/a	n/a	n/a	n/a	n/a
334.4299	0.5167	FIXCROSS	n/a	n/a	n/a	n/a	n/a	n/a	n/a	n/a
334.9466	0.7833	COLOR_NAME	35	Incongruent	niebieski	blue	zielony	green	hit	n/a
335.706	n/a	RESPONSE	n/a	n/a	n/a	n/a	n/a	n/a	n/a	blue
335.7299	1.0167	ITI	n/a	n/a	n/a	n/a	n/a	n/a	n/a	n/a
336.7466	0.5167	FIXCROSS	n/a	n/a	n/a	n/a	n/a	n/a	n/a	n/a
337.2633	0.5833	COLOR_NAME	36	Neutral	żółty	yellow	Neutral	Neutral	hit	n/a
337.8156	n/a	RESPONSE	n/a	n/a	n/a	n/a	n/a	n/a	n/a	yellow
337.8466	1.0166	ITI	n/a	n/a	n/a	n/a	n/a	n/a	n/a	n/a
338.8632	0.5167	FIXCROSS	n/a	n/a	n/a	n/a	n/a	n/a	n/a	n/a
339.3799	0.7167	COLOR_NAME	37	Neutral	żółty	yellow	Neutral	Neutral	hit	n/a
340.0689	n/a	RESPONSE	n/a	n/a	n/a	n/a	n/a	n/a	n/a	yellow
340.0966	1.0167	ITI	n/a	n/a	n/a	n/a	n/a	n/a	n/a	n/a
341.1133	0.5167	FIXCROSS	n/a	n/a	n/a	n/a	n/a	n/a	n/a	n/a
341.6299	0.6	COLOR_NAME	38	Neutral	niebieski	blue	Neutral	Neutral	hit	n/a
342.2104	n/a	RESPONSE	n/a	n/a	n/a	n/a	n/a	n/a	n/a	blue
342.23	1.0167	ITI	n/a	n/a	n/a	n/a	n/a	n/a	n/a	n/a
343.2466	0.5167	FIXCROSS	n/a	n/a	n/a	n/a	n/a	n/a	n/a	n/a
343.7633	0.7167	COLOR_NAME	39	Incongruent	żółty	yellow	zielony	green	hit	n/a
344.4479	n/a	RESPONSE	n/a	n/a	n/a	n/a	n/a	n/a	n/a	yellow
344.48	1.0167	ITI	n/a	n/a	n/a	n/a	n/a	n/a	n/a	n/a
345.4967	0.5167	FIXCROSS	n/a	n/a	n/a	n/a	n/a	n/a	n/a	n/a
346.0133	0.6333	COLOR_NAME	40	Incongruent	czerwony	red	zielony	green	hit	n/a
346.6214	n/a	RESPONSE	n/a	n/a	n/a	n/a	n/a	n/a	n/a	red
346.6467	1.0167	ITI	n/a	n/a	n/a	n/a	n/a	n/a	n/a	n/a
347.6633	0.5167	FIXCROSS	n/a	n/a	n/a	n/a	n/a	n/a	n/a	n/a
348.18	0.6667	COLOR_NAME	41	Incongruent	niebieski	blue	czerwony	red	hit	n/a
348.8267	n/a	RESPONSE	n/a	n/a	n/a	n/a	n/a	n/a	n/a	blue
348.8467	1.0167	ITI	n/a	n/a	n/a	n/a	n/a	n/a	n/a	n/a
349.8633	0.5167	FIXCROSS	n/a	n/a	n/a	n/a	n/a	n/a	n/a	n/a
350.38	0.7	COLOR_NAME	42	Incongruent	zielony	green	żółty	yellow	hit	n/a
351.0482	n/a	RESPONSE	n/a	n/a	n/a	n/a	n/a	n/a	n/a	green
351.08	1.0167	ITI	n/a	n/a	n/a	n/a	n/a	n/a	n/a	n/a
352.0967	0.5167	FIXCROSS	n/a	n/a	n/a	n/a	n/a	n/a	n/a	n/a
352.6134	0.8	COLOR_NAME	43	Incongruent	żółty	yellow	czerwony	red	hit	n/a
353.3815	n/a	RESPONSE	n/a	n/a	n/a	n/a	n/a	n/a	n/a	yellow
353.4134	1.0167	ITI	n/a	n/a	n/a	n/a	n/a	n/a	n/a	n/a
354.43	0.5167	FIXCROSS	n/a	n/a	n/a	n/a	n/a	n/a	n/a	n/a
354.9467	0.7833	COLOR_NAME	44	Incongruent	czerwony	red	niebieski	blue	hit	n/a
355.6988	n/a	RESPONSE	n/a	n/a	n/a	n/a	n/a	n/a	n/a	red
355.7301	1.0167	ITI	n/a	n/a	n/a	n/a	n/a	n/a	n/a	n/a
356.7467	0.5167	FIXCROSS	n/a	n/a	n/a	n/a	n/a	n/a	n/a	n/a
357.2634	0.55	COLOR_NAME	45	Incongruent	żółty	yellow	zielony	green	hit	n/a
357.7925	n/a	RESPONSE	n/a	n/a	n/a	n/a	n/a	n/a	n/a	yellow
357.8134	1.0167	ITI	n/a	n/a	n/a	n/a	n/a	n/a	n/a	n/a
358.8301	0.5167	FIXCROSS	n/a	n/a	n/a	n/a	n/a	n/a	n/a	n/a
359.3467	0.6167	COLOR_NAME	46	Neutral	niebieski	blue	Neutral	Neutral	hit	n/a
359.934	n/a	RESPONSE	n/a	n/a	n/a	n/a	n/a	n/a	n/a	blue
359.9634	1.0167	ITI	n/a	n/a	n/a	n/a	n/a	n/a	n/a	n/a
360.9801	0.5167	FIXCROSS	n/a	n/a	n/a	n/a	n/a	n/a	n/a	n/a
361.4968	0.5333	COLOR_NAME	47	Incongruent	żółty	yellow	niebieski	blue	hit	n/a
362.0114	n/a	RESPONSE	n/a	n/a	n/a	n/a	n/a	n/a	n/a	yellow
362.0301	1.0167	ITI	n/a	n/a	n/a	n/a	n/a	n/a	n/a	n/a
363.0468	0.5167	FIXCROSS	n/a	n/a	n/a	n/a	n/a	n/a	n/a	n/a
363.5634	0.5667	COLOR_NAME	48	Incongruent	niebieski	blue	czerwony	red	hit	n/a
364.105	n/a	RESPONSE	n/a	n/a	n/a	n/a	n/a	n/a	n/a	blue
364.1301	1.0167	ITI	n/a	n/a	n/a	n/a	n/a	n/a	n/a	n/a
365.1468	0.5167	FIXCROSS	n/a	n/a	n/a	n/a	n/a	n/a	n/a	n/a
365.6635	0.5667	COLOR_NAME	49	Neutral	czerwony	red	Neutral	Neutral	incorrect	n/a
366.1986	n/a	RESPONSE	n/a	n/a	n/a	n/a	n/a	n/a	n/a	green
366.2301	1.0167	ITI	n/a	n/a	n/a	n/a	n/a	n/a	n/a	n/a
367.1095	n/a	RESPONSE	n/a	n/a	n/a	n/a	n/a	n/a	n/a	red
367.2468	0.5167	FIXCROSS	n/a	n/a	n/a	n/a	n/a	n/a	n/a	n/a
367.7635	0.7167	COLOR_NAME	50	Incongruent	czerwony	red	niebieski	blue	hit	n/a
368.452	n/a	RESPONSE	n/a	n/a	n/a	n/a	n/a	n/a	n/a	red
368.4801	1.0167	ITI	n/a	n/a	n/a	n/a	n/a	n/a	n/a	n/a
369.4968	0.5167	FIXCROSS	n/a	n/a	n/a	n/a	n/a	n/a	n/a	n/a
370.0135	0.7833	COLOR_NAME	51	Neutral	zielony	green	Neutral	Neutral	hit	n/a
370.7693	n/a	RESPONSE	n/a	n/a	n/a	n/a	n/a	n/a	n/a	green
370.7968	1.0167	ITI	n/a	n/a	n/a	n/a	n/a	n/a	n/a	n/a
371.8135	0.5167	FIXCROSS	n/a	n/a	n/a	n/a	n/a	n/a	n/a	n/a
372.3302	0.6667	COLOR_NAME	52	Neutral	niebieski	blue	Neutral	Neutral	hit	n/a
372.9747	n/a	RESPONSE	n/a	n/a	n/a	n/a	n/a	n/a	n/a	blue
372.9968	1.0167	ITI	n/a	n/a	n/a	n/a	n/a	n/a	n/a	n/a
374.0135	0.5164	FIXCROSS	n/a	n/a	n/a	n/a	n/a	n/a	n/a	n/a
374.5299	0.7003	COLOR_NAME	53	Incongruent	żółty	yellow	czerwony	red	hit	n/a
375.212	n/a	RESPONSE	n/a	n/a	n/a	n/a	n/a	n/a	n/a	yellow
375.2302	1.0167	ITI	n/a	n/a	n/a	n/a	n/a	n/a	n/a	n/a
376.2469	0.5167	FIXCROSS	n/a	n/a	n/a	n/a	n/a	n/a	n/a	n/a
376.7635	0.75	COLOR_NAME	54	Incongruent	zielony	green	czerwony	red	hit	n/a
377.4815	n/a	RESPONSE	n/a	n/a	n/a	n/a	n/a	n/a	n/a	green
377.5135	1.0167	ITI	n/a	n/a	n/a	n/a	n/a	n/a	n/a	n/a
378.5302	0.5167	FIXCROSS	n/a	n/a	n/a	n/a	n/a	n/a	n/a	n/a
379.0469	0.45	COLOR_NAME	55	Incongruent	zielony	green	czerwony	red	hit	n/a
379.4632	n/a	RESPONSE	n/a	n/a	n/a	n/a	n/a	n/a	n/a	green
379.4969	1.0167	ITI	n/a	n/a	n/a	n/a	n/a	n/a	n/a	n/a
380.5136	0.5167	FIXCROSS	n/a	n/a	n/a	n/a	n/a	n/a	n/a	n/a
381.0302	0.5667	COLOR_NAME	56	Neutral	żółty	yellow	Neutral	Neutral	hit	n/a
381.5727	n/a	RESPONSE	n/a	n/a	n/a	n/a	n/a	n/a	n/a	yellow
381.5969	1.0167	ITI	n/a	n/a	n/a	n/a	n/a	n/a	n/a	n/a
382.6136	0.5167	FIXCROSS	n/a	n/a	n/a	n/a	n/a	n/a	n/a	n/a
383.1303	0.6333	COLOR_NAME	57	Incongruent	czerwony	red	żółty	yellow	hit	n/a
383.7461	n/a	RESPONSE	n/a	n/a	n/a	n/a	n/a	n/a	n/a	red
383.7636	1.0167	ITI	n/a	n/a	n/a	n/a	n/a	n/a	n/a	n/a
384.7803	0.5167	FIXCROSS	n/a	n/a	n/a	n/a	n/a	n/a	n/a	n/a
385.2969	0.8	COLOR_NAME	58	Incongruent	żółty	yellow	czerwony	red	hit	n/a
386.0635	n/a	RESPONSE	n/a	n/a	n/a	n/a	n/a	n/a	n/a	yellow
386.0969	1.0167	ITI	n/a	n/a	n/a	n/a	n/a	n/a	n/a	n/a
387.1136	0.5167	FIXCROSS	n/a	n/a	n/a	n/a	n/a	n/a	n/a	n/a
387.6303	0.7	COLOR_NAME	59	Neutral	czerwony	red	Neutral	Neutral	hit	n/a
388.3009	n/a	RESPONSE	n/a	n/a	n/a	n/a	n/a	n/a	n/a	red
388.3303	1.0167	ITI	n/a	n/a	n/a	n/a	n/a	n/a	n/a	n/a
389.347	0.5167	FIXCROSS	n/a	n/a	n/a	n/a	n/a	n/a	n/a	n/a
389.8636	0.65	COLOR_NAME	60	Neutral	zielony	green	Neutral	Neutral	hit	n/a
390.4903	n/a	RESPONSE	n/a	n/a	n/a	n/a	n/a	n/a	n/a	green
390.5136	1.0167	ITI	n/a	n/a	n/a	n/a	n/a	n/a	n/a	n/a
391.5303	0.5167	FIXCROSS	n/a	n/a	n/a	n/a	n/a	n/a	n/a	n/a
392.047	0.6667	COLOR_NAME	61	Neutral	czerwony	red	Neutral	Neutral	hit	n/a
392.6798	n/a	RESPONSE	n/a	n/a	n/a	n/a	n/a	n/a	n/a	red
392.7137	1.0167	ITI	n/a	n/a	n/a	n/a	n/a	n/a	n/a	n/a
393.7303	0.5167	FIXCROSS	n/a	n/a	n/a	n/a	n/a	n/a	n/a	n/a
394.247	0.65	COLOR_NAME	62	Incongruent	zielony	green	niebieski	blue	hit	n/a
394.8693	n/a	RESPONSE	n/a	n/a	n/a	n/a	n/a	n/a	n/a	green
394.897	1.0167	ITI	n/a	n/a	n/a	n/a	n/a	n/a	n/a	n/a
395.9137	0.5167	FIXCROSS	n/a	n/a	n/a	n/a	n/a	n/a	n/a	n/a
396.4303	0.5	COLOR_NAME	63	Incongruent	niebieski	blue	żółty	yellow	hit	n/a
396.899	n/a	RESPONSE	n/a	n/a	n/a	n/a	n/a	n/a	n/a	blue
396.9303	1.0167	ITI	n/a	n/a	n/a	n/a	n/a	n/a	n/a	n/a
397.947	0.5167	FIXCROSS	n/a	n/a	n/a	n/a	n/a	n/a	n/a	n/a
398.4637	0.7167	COLOR_NAME	64	Incongruent	zielony	green	niebieski	blue	hit	n/a
399.1523	n/a	RESPONSE	n/a	n/a	n/a	n/a	n/a	n/a	n/a	green
399.1804	1.0167	ITI	n/a	n/a	n/a	n/a	n/a	n/a	n/a	n/a
400.197	0.5167	FIXCROSS	n/a	n/a	n/a	n/a	n/a	n/a	n/a	n/a
400.7137	0.5833	COLOR_NAME	65	Incongruent	żółty	yellow	niebieski	blue	hit	n/a
401.278	n/a	RESPONSE	n/a	n/a	n/a	n/a	n/a	n/a	n/a	yellow
401.297	1.0167	ITI	n/a	n/a	n/a	n/a	n/a	n/a	n/a	n/a
402.3137	0.5167	FIXCROSS	n/a	n/a	n/a	n/a	n/a	n/a	n/a	n/a
402.8304	0.5667	COLOR_NAME	66	Neutral	zielony	green	Neutral	Neutral	hit	n/a
403.3714	n/a	RESPONSE	n/a	n/a	n/a	n/a	n/a	n/a	n/a	green
403.3971	1.0167	ITI	n/a	n/a	n/a	n/a	n/a	n/a	n/a	n/a
404.4137	0.5167	FIXCROSS	n/a	n/a	n/a	n/a	n/a	n/a	n/a	n/a
404.9304	0.6	COLOR_NAME	67	Incongruent	żółty	yellow	zielony	green	hit	n/a
405.5129	n/a	RESPONSE	n/a	n/a	n/a	n/a	n/a	n/a	n/a	yellow
405.5304	1.0167	ITI	n/a	n/a	n/a	n/a	n/a	n/a	n/a	n/a
406.5471	0.5167	FIXCROSS	n/a	n/a	n/a	n/a	n/a	n/a	n/a	n/a
407.0638	0.65	COLOR_NAME	68	Neutral	czerwony	red	Neutral	Neutral	hit	n/a
407.6864	n/a	RESPONSE	n/a	n/a	n/a	n/a	n/a	n/a	n/a	red
407.7138	1.0167	ITI	n/a	n/a	n/a	n/a	n/a	n/a	n/a	n/a
408.7304	0.5167	FIXCROSS	n/a	n/a	n/a	n/a	n/a	n/a	n/a	n/a
409.2471	0.7667	COLOR_NAME	69	Incongruent	niebieski	blue	zielony	green	hit	n/a
409.9877	n/a	RESPONSE	n/a	n/a	n/a	n/a	n/a	n/a	n/a	blue
410.0138	1.0167	ITI	n/a	n/a	n/a	n/a	n/a	n/a	n/a	n/a
411.0305	0.5167	FIXCROSS	n/a	n/a	n/a	n/a	n/a	n/a	n/a	n/a
411.5471	0.7833	COLOR_NAME	70	Incongruent	czerwony	red	niebieski	blue	hit	n/a
412.305	n/a	RESPONSE	n/a	n/a	n/a	n/a	n/a	n/a	n/a	red
412.3305	1.0167	ITI	n/a	n/a	n/a	n/a	n/a	n/a	n/a	n/a
413.3471	0.5167	FIXCROSS	n/a	n/a	n/a	n/a	n/a	n/a	n/a	n/a
413.8638	0.5167	COLOR_NAME	71	Neutral	czerwony	red	Neutral	Neutral	hit	n/a
414.3507	n/a	RESPONSE	n/a	n/a	n/a	n/a	n/a	n/a	n/a	red
414.3805	1.0167	ITI	n/a	n/a	n/a	n/a	n/a	n/a	n/a	n/a
415.3971	0.5167	FIXCROSS	n/a	n/a	n/a	n/a	n/a	n/a	n/a	n/a
415.9138	0.5833	COLOR_NAME	72	Incongruent	niebieski	blue	zielony	green	hit	n/a
416.4761	n/a	RESPONSE	n/a	n/a	n/a	n/a	n/a	n/a	n/a	blue
416.4972	1.0333	ITI	n/a	n/a	n/a	n/a	n/a	n/a	n/a	n/a
420.5195	n/a	RESPONSE	n/a	n/a	n/a	n/a	n/a	n/a	n/a	n/a
