onset	duration	trial_type	melody_number	melody_part	key	sound	action
0.0	14.08	CUE_START	n/a	n/a	n/a	n/a	n/a
14.081	7.76	FIXCROSS	n/a	n/a	n/a	n/a	n/a
21.84	6.324	CUE_LISTEN	M1	1	n/a	n/a	n/a
28.164	7.758	FIXCROSS	n/a	n/a	n/a	n/a	n/a
35.922	6.317	CUE_PLAYBACK_RIGHT_HAND	M1	1	n/a	n/a	n/a
36.79	n/a	RESPONSE	M1	1	19	G4	press
37.222	n/a	RESPONSE	M1	1	19	G4	release
37.35	n/a	RESPONSE	M1	1	16	E4	press
37.607	n/a	RESPONSE	M1	1	16	E4	release
37.863	n/a	RESPONSE	M1	1	16	E4	press
38.17	n/a	RESPONSE	M1	1	16	E4	release
38.426	n/a	RESPONSE	M1	1	17	F4	press
38.743	n/a	RESPONSE	M1	1	17	F4	release
39.006	n/a	RESPONSE	M1	1	14	D4	press
39.228	n/a	RESPONSE	M1	1	14	D4	release
39.58	n/a	RESPONSE	M1	1	14	D4	press
39.894	n/a	RESPONSE	M1	1	14	D4	release
40.202	n/a	RESPONSE	M1	1	12	C4	press
40.496	n/a	RESPONSE	M1	1	12	C4	release
40.532	n/a	RESPONSE	M1	1	16	E4	press
40.884	n/a	RESPONSE	M1	1	16	E4	release
40.892	n/a	RESPONSE	M1	1	19	G4	press
41.748	n/a	RESPONSE	M1	1	19	G4	release
42.239	7.759	FIXCROSS	n/a	n/a	n/a	n/a	n/a
49.998	6.316	CUE_LISTEN	M1	2	n/a	n/a	n/a
56.314	7.758	FIXCROSS	n/a	n/a	n/a	n/a	n/a
64.073	6.325	CUE_PLAYBACK_RIGHT_HAND	M1	2	n/a	n/a	n/a
65.077	n/a	RESPONSE	M1	2	19	G4	press
65.488	n/a	RESPONSE	M1	2	19	G4	release
65.639	n/a	RESPONSE	M1	2	16	E4	press
65.879	n/a	RESPONSE	M1	2	16	E4	release
66.17	n/a	RESPONSE	M1	2	16	E4	press
66.482	n/a	RESPONSE	M1	2	16	E4	release
66.713	n/a	RESPONSE	M1	2	17	F4	press
67.054	n/a	RESPONSE	M1	2	17	F4	release
67.266	n/a	RESPONSE	M1	2	14	D4	press
67.517	n/a	RESPONSE	M1	2	14	D4	release
67.822	n/a	RESPONSE	M1	2	14	D4	press
68.12	n/a	RESPONSE	M1	2	14	D4	release
68.416	n/a	RESPONSE	M1	2	12	C4	press
68.714	n/a	RESPONSE	M1	2	12	C4	release
68.773	n/a	RESPONSE	M1	2	16	E4	press
68.787	n/a	RESPONSE	M1	2	17	F4	press
68.96	n/a	RESPONSE	M1	2	17	F4	release
69.12	n/a	RESPONSE	M1	2	16	E4	release
69.187	n/a	RESPONSE	M1	2	12	C4	press
70.398	7.758	FIXCROSS	n/a	n/a	n/a	n/a	n/a
70.447	n/a	RESPONSE	M1	2	12	C4	release
78.156	6.325	CUE_LISTEN	M1	1	n/a	n/a	n/a
84.481	7.758	FIXCROSS	n/a	n/a	n/a	n/a	n/a
92.239	6.317	CUE_PLAYBACK_BOTH_HANDS	M1	1	n/a	n/a	n/a
92.967	n/a	RESPONSE	M1	1	07	G3	press
92.969	n/a	RESPONSE	M1	1	19	G4	press
93.362	n/a	RESPONSE	M1	1	19	G4	release
93.37	n/a	RESPONSE	M1	1	07	G3	release
93.522	n/a	RESPONSE	M1	1	04	E3	press
93.543	n/a	RESPONSE	M1	1	16	E4	press
93.794	n/a	RESPONSE	M1	1	16	E4	release
93.806	n/a	RESPONSE	M1	1	04	E3	release
94.057	n/a	RESPONSE	M1	1	04	E3	press
94.068	n/a	RESPONSE	M1	1	16	E4	press
94.389	n/a	RESPONSE	M1	1	04	E3	release
94.4	n/a	RESPONSE	M1	1	16	E4	release
94.602	n/a	RESPONSE	M1	1	05	F3	press
94.613	n/a	RESPONSE	M1	1	17	F4	press
94.904	n/a	RESPONSE	M1	1	17	F4	release
94.926	n/a	RESPONSE	M1	1	05	F3	release
95.137	n/a	RESPONSE	M1	1	02	D3	press
95.158	n/a	RESPONSE	M1	1	14	D4	press
95.399	n/a	RESPONSE	M1	1	14	D4	release
95.43	n/a	RESPONSE	M1	1	02	D3	release
95.713	n/a	RESPONSE	M1	1	02	D3	press
95.733	n/a	RESPONSE	M1	1	14	D4	press
95.986	n/a	RESPONSE	M1	1	02	D3	release
95.996	n/a	RESPONSE	M1	1	14	D4	release
96.277	n/a	RESPONSE	M1	1	00	C3	press
96.29	n/a	RESPONSE	M1	1	12	C4	press
96.512	n/a	RESPONSE	M1	1	00	C3	release
96.531	n/a	RESPONSE	M1	1	12	C4	release
96.612	n/a	RESPONSE	M1	1	04	E3	press
96.633	n/a	RESPONSE	M1	1	16	E4	press
96.826	n/a	RESPONSE	M1	1	16	E4	release
96.846	n/a	RESPONSE	M1	1	04	E3	release
96.957	n/a	RESPONSE	M1	1	12	C4	press
96.959	n/a	RESPONSE	M1	1	00	C3	press
97.739	n/a	RESPONSE	M1	1	12	C4	release
97.786	n/a	RESPONSE	M1	1	00	C3	release
98.556	7.758	FIXCROSS	n/a	n/a	n/a	n/a	n/a
106.314	6.317	CUE_LISTEN	M1	2	n/a	n/a	n/a
112.631	7.758	FIXCROSS	n/a	n/a	n/a	n/a	n/a
120.39	6.317	CUE_PLAYBACK_BOTH_HANDS	M1	2	n/a	n/a	n/a
120.971	n/a	RESPONSE	M1	2	07	G3	press
120.982	n/a	RESPONSE	M1	2	19	G4	press
121.343	n/a	RESPONSE	M1	2	19	G4	release
121.384	n/a	RESPONSE	M1	2	07	G3	release
121.506	n/a	RESPONSE	M1	2	04	E3	press
121.518	n/a	RESPONSE	M1	2	14	D4	press
121.738	n/a	RESPONSE	M1	2	14	D4	release
121.769	n/a	RESPONSE	M1	2	04	E3	release
122.051	n/a	RESPONSE	M1	2	04	E3	press
122.102	n/a	RESPONSE	M1	2	14	D4	press
122.303	n/a	RESPONSE	M1	2	14	D4	release
122.334	n/a	RESPONSE	M1	2	04	E3	release
122.636	n/a	RESPONSE	M1	2	05	F3	press
122.667	n/a	RESPONSE	M1	2	17	F4	press
122.948	n/a	RESPONSE	M1	2	17	F4	release
123.029	n/a	RESPONSE	M1	2	05	F3	release
123.902	n/a	RESPONSE	M1	2	02	D3	press
123.912	n/a	RESPONSE	M1	2	14	D4	press
124.256	n/a	RESPONSE	M1	2	14	D4	release
124.264	n/a	RESPONSE	M1	2	02	D3	release
124.517	n/a	RESPONSE	M1	2	02	D3	press
124.537	n/a	RESPONSE	M1	2	14	D4	press
124.838	n/a	RESPONSE	M1	2	14	D4	release
124.849	n/a	RESPONSE	M1	2	02	D3	release
125.122	n/a	RESPONSE	M1	2	00	C3	press
125.152	n/a	RESPONSE	M1	2	12	C4	press
125.433	n/a	RESPONSE	M1	2	12	C4	release
125.436	n/a	RESPONSE	M1	2	00	C3	release
125.596	n/a	RESPONSE	M1	2	04	E3	press
125.637	n/a	RESPONSE	M1	2	16	E4	press
125.888	n/a	RESPONSE	M1	2	16	E4	release
125.899	n/a	RESPONSE	M1	2	04	E3	release
126.131	n/a	RESPONSE	M1	2	00	C3	press
126.134	n/a	RESPONSE	M1	2	12	C4	press
126.706	7.758	FIXCROSS	n/a	n/a	n/a	n/a	n/a
127.063	n/a	RESPONSE	M1	2	00	C3	release
127.244	n/a	RESPONSE	M1	2	12	C4	release
134.465	6.325	CUE_LISTEN	M1	1	n/a	n/a	n/a
140.79	7.758	FIXCROSS	n/a	n/a	n/a	n/a	n/a
148.548	6.317	CUE_PLAYBACK_RIGHT_HAND	M1	1	n/a	n/a	n/a
149.212	n/a	RESPONSE	M1	1	19	G4	press
149.679	n/a	RESPONSE	M1	1	19	G4	release
149.774	n/a	RESPONSE	M1	1	16	E4	press
149.999	n/a	RESPONSE	M1	1	16	E4	release
150.292	n/a	RESPONSE	M1	1	16	E4	press
150.672	n/a	RESPONSE	M1	1	16	E4	release
150.834	n/a	RESPONSE	M1	1	17	F4	press
151.216	n/a	RESPONSE	M1	1	17	F4	release
151.379	n/a	RESPONSE	M1	1	14	D4	press
151.618	n/a	RESPONSE	M1	1	14	D4	release
151.939	n/a	RESPONSE	M1	1	14	D4	press
152.261	n/a	RESPONSE	M1	1	14	D4	release
152.532	n/a	RESPONSE	M1	1	12	C4	press
152.823	n/a	RESPONSE	M1	1	12	C4	release
152.834	n/a	RESPONSE	M1	1	16	E4	press
153.136	n/a	RESPONSE	M1	1	19	G4	press
153.157	n/a	RESPONSE	M1	1	16	E4	release
153.838	n/a	RESPONSE	M1	1	19	G4	release
154.865	7.758	FIXCROSS	n/a	n/a	n/a	n/a	n/a
162.623	6.317	CUE_LISTEN	M1	2	n/a	n/a	n/a
168.94	7.758	FIXCROSS	n/a	n/a	n/a	n/a	n/a
176.698	6.325	CUE_PLAYBACK_RIGHT_HAND	M1	2	n/a	n/a	n/a
177.171	n/a	RESPONSE	M1	2	19	G4	press
177.578	n/a	RESPONSE	M1	2	19	G4	release
177.679	n/a	RESPONSE	M1	2	16	E4	press
177.936	n/a	RESPONSE	M1	2	16	E4	release
178.229	n/a	RESPONSE	M1	2	16	E4	press
178.532	n/a	RESPONSE	M1	2	16	E4	release
178.736	n/a	RESPONSE	M1	2	17	F4	press
179.082	n/a	RESPONSE	M1	2	17	F4	release
179.299	n/a	RESPONSE	M1	2	14	D4	press
179.541	n/a	RESPONSE	M1	2	14	D4	release
179.892	n/a	RESPONSE	M1	2	14	D4	press
180.197	n/a	RESPONSE	M1	2	14	D4	release
180.526	n/a	RESPONSE	M1	2	12	C4	press
180.821	n/a	RESPONSE	M1	2	12	C4	release
180.856	n/a	RESPONSE	M1	2	16	E4	press
181.182	n/a	RESPONSE	M1	2	16	E4	release
181.221	n/a	RESPONSE	M1	2	12	C4	press
182.574	n/a	RESPONSE	M1	2	12	C4	release
183.023	7.758	FIXCROSS	n/a	n/a	n/a	n/a	n/a
190.782	6.317	CUE_LISTEN	M1	1	n/a	n/a	n/a
197.098	7.758	FIXCROSS	n/a	n/a	n/a	n/a	n/a
204.856	6.317	CUE_PLAYBACK_BOTH_HANDS	M1	1	n/a	n/a	n/a
205.566	n/a	RESPONSE	M1	1	07	G3	press
205.574	n/a	RESPONSE	M1	1	19	G4	press
205.966	n/a	RESPONSE	M1	1	19	G4	release
205.987	n/a	RESPONSE	M1	1	07	G3	release
206.108	n/a	RESPONSE	M1	1	04	E3	press
206.112	n/a	RESPONSE	M1	1	16	E4	press
206.371	n/a	RESPONSE	M1	1	16	E4	release
206.422	n/a	RESPONSE	M1	1	04	E3	release
206.653	n/a	RESPONSE	M1	1	04	E3	press
206.667	n/a	RESPONSE	M1	1	16	E4	press
206.957	n/a	RESPONSE	M1	1	04	E3	release
206.967	n/a	RESPONSE	M1	1	16	E4	release
207.208	n/a	RESPONSE	M1	1	05	F3	press
207.229	n/a	RESPONSE	M1	1	17	F4	press
207.556	n/a	RESPONSE	M1	1	17	F4	release
207.574	n/a	RESPONSE	M1	1	05	F3	release
207.794	n/a	RESPONSE	M1	1	02	D3	press
207.811	n/a	RESPONSE	M1	1	14	D4	press
208.05	n/a	RESPONSE	M1	1	02	D3	release
208.083	n/a	RESPONSE	M1	1	14	D4	release
208.4	n/a	RESPONSE	M1	1	02	D3	press
208.422	n/a	RESPONSE	M1	1	14	D4	press
208.664	n/a	RESPONSE	M1	1	02	D3	release
208.704	n/a	RESPONSE	M1	1	14	D4	release
209.027	n/a	RESPONSE	M1	1	00	C3	press
209.061	n/a	RESPONSE	M1	1	12	C4	press
209.26	n/a	RESPONSE	M1	1	00	C3	release
209.28	n/a	RESPONSE	M1	1	12	C4	release
209.404	n/a	RESPONSE	M1	1	04	E3	press
209.429	n/a	RESPONSE	M1	1	16	E4	press
209.628	n/a	RESPONSE	M1	1	16	E4	release
209.643	n/a	RESPONSE	M1	1	04	E3	release
209.797	n/a	RESPONSE	M1	1	05	F3	press
209.8	n/a	RESPONSE	M1	1	19	G4	press
210.476	n/a	RESPONSE	M1	1	19	G4	release
210.714	n/a	RESPONSE	M1	1	05	F3	release
211.173	7.758	FIXCROSS	n/a	n/a	n/a	n/a	n/a
218.932	6.325	CUE_LISTEN	M1	2	n/a	n/a	n/a
225.256	7.758	FIXCROSS	n/a	n/a	n/a	n/a	n/a
233.015	6.317	CUE_PLAYBACK_BOTH_HANDS	M1	2	n/a	n/a	n/a
234.081	n/a	RESPONSE	M1	2	07	G3	press
234.11	n/a	RESPONSE	M1	2	19	G4	press
234.421	n/a	RESPONSE	M1	2	19	G4	release
234.493	n/a	RESPONSE	M1	2	07	G3	release
234.653	n/a	RESPONSE	M1	2	04	E3	press
234.664	n/a	RESPONSE	M1	2	16	E4	press
234.916	n/a	RESPONSE	M1	2	16	E4	release
234.947	n/a	RESPONSE	M1	2	04	E3	release
235.22	n/a	RESPONSE	M1	2	04	E3	press
235.222	n/a	RESPONSE	M1	2	16	E4	press
235.511	n/a	RESPONSE	M1	2	04	E3	release
235.513	n/a	RESPONSE	M1	2	16	E4	release
235.803	n/a	RESPONSE	M1	2	05	F3	press
235.806	n/a	RESPONSE	M1	2	17	F4	press
236.118	n/a	RESPONSE	M1	2	17	F4	release
236.137	n/a	RESPONSE	M1	2	05	F3	release
236.38	n/a	RESPONSE	M1	2	02	D3	press
236.4	n/a	RESPONSE	M1	2	14	D4	press
236.643	n/a	RESPONSE	M1	2	02	D3	release
236.653	n/a	RESPONSE	M1	2	14	D4	release
236.976	n/a	RESPONSE	M1	2	02	D3	press
236.984	n/a	RESPONSE	M1	2	14	D4	press
237.236	n/a	RESPONSE	M1	2	02	D3	release
237.267	n/a	RESPONSE	M1	2	14	D4	release
237.584	n/a	RESPONSE	M1	2	00	C3	press
237.613	n/a	RESPONSE	M1	2	12	C4	press
237.872	n/a	RESPONSE	M1	2	00	C3	release
237.881	n/a	RESPONSE	M1	2	12	C4	release
238.027	n/a	RESPONSE	M1	2	05	F3	press
238.058	n/a	RESPONSE	M1	2	17	F4	press
238.064	n/a	RESPONSE	M1	2	04	E3	press
238.071	n/a	RESPONSE	M1	2	16	E4	press
238.237	n/a	RESPONSE	M1	2	16	E4	release
238.268	n/a	RESPONSE	M1	2	04	E3	release
238.274	n/a	RESPONSE	M1	2	17	F4	release
238.317	n/a	RESPONSE	M1	2	05	F3	release
238.566	n/a	RESPONSE	M1	2	00	C3	press
238.581	n/a	RESPONSE	M1	2	12	C4	press
239.332	7.767	FIXCROSS	n/a	n/a	n/a	n/a	n/a
239.462	n/a	RESPONSE	M1	2	00	C3	release
239.473	n/a	RESPONSE	M1	2	12	C4	release
241.366	n/a	RESPONSE	M1	2	00	C3	press
241.66	n/a	RESPONSE	M1	2	00	C3	release
247.098	6.308	CUE_LISTEN	M1	1	n/a	n/a	n/a
253.407	7.758	FIXCROSS	n/a	n/a	n/a	n/a	n/a
261.165	6.325	CUE_PLAYBACK_RIGHT_HAND	M1	1	n/a	n/a	n/a
261.671	n/a	RESPONSE	M1	1	19	G4	press
262.115	n/a	RESPONSE	M1	1	19	G4	release
262.173	n/a	RESPONSE	M1	1	16	E4	press
262.427	n/a	RESPONSE	M1	1	16	E4	release
262.686	n/a	RESPONSE	M1	1	16	E4	press
263.067	n/a	RESPONSE	M1	1	16	E4	release
263.218	n/a	RESPONSE	M1	1	17	F4	press
263.55	n/a	RESPONSE	M1	1	17	F4	release
263.761	n/a	RESPONSE	M1	1	14	D4	press
263.962	n/a	RESPONSE	M1	1	14	D4	release
264.305	n/a	RESPONSE	M1	1	14	D4	press
264.587	n/a	RESPONSE	M1	1	14	D4	release
264.896	n/a	RESPONSE	M1	1	12	C4	press
265.2	n/a	RESPONSE	M1	1	12	C4	release
265.208	n/a	RESPONSE	M1	1	16	E4	press
265.531	n/a	RESPONSE	M1	1	19	G4	press
265.562	n/a	RESPONSE	M1	1	16	E4	release
266.333	n/a	RESPONSE	M1	1	19	G4	release
267.49	7.758	FIXCROSS	n/a	n/a	n/a	n/a	n/a
275.248	6.317	CUE_LISTEN	M1	2	n/a	n/a	n/a
281.565	7.758	FIXCROSS	n/a	n/a	n/a	n/a	n/a
289.324	6.325	CUE_PLAYBACK_RIGHT_HAND	M1	2	n/a	n/a	n/a
290.835	n/a	RESPONSE	M1	2	19	G4	press
291.265	n/a	RESPONSE	M1	2	19	G4	release
291.396	n/a	RESPONSE	M1	2	16	E4	press
291.638	n/a	RESPONSE	M1	2	16	E4	release
291.888	n/a	RESPONSE	M1	2	16	E4	press
292.36	n/a	RESPONSE	M1	2	16	E4	release
292.441	n/a	RESPONSE	M1	2	17	F4	press
292.832	n/a	RESPONSE	M1	2	17	F4	release
292.953	n/a	RESPONSE	M1	2	14	D4	press
293.165	n/a	RESPONSE	M1	2	14	D4	release
293.506	n/a	RESPONSE	M1	2	14	D4	press
293.857	n/a	RESPONSE	M1	2	14	D4	release
294.078	n/a	RESPONSE	M1	2	12	C4	press
294.36	n/a	RESPONSE	M1	2	12	C4	release
294.391	n/a	RESPONSE	M1	2	16	E4	press
294.702	n/a	RESPONSE	M1	2	16	E4	release
294.723	n/a	RESPONSE	M1	2	12	C4	press
295.648	7.759	FIXCROSS	n/a	n/a	n/a	n/a	n/a
295.995	n/a	RESPONSE	M1	2	12	C4	release
303.407	6.317	CUE_LISTEN	M1	1	n/a	n/a	n/a
309.724	7.759	FIXCROSS	n/a	n/a	n/a	n/a	n/a
317.482	6.325	CUE_PLAYBACK_BOTH_HANDS	M1	1	n/a	n/a	n/a
318.037	n/a	RESPONSE	M1	1	19	G4	press
318.067	n/a	RESPONSE	M1	1	07	G3	press
318.461	n/a	RESPONSE	M1	1	19	G4	release
318.477	n/a	RESPONSE	M1	1	07	G3	release
318.61	n/a	RESPONSE	M1	1	04	E3	press
318.618	n/a	RESPONSE	M1	1	14	D4	press
318.868	n/a	RESPONSE	M1	1	14	D4	release
318.896	n/a	RESPONSE	M1	1	04	E3	release
319.135	n/a	RESPONSE	M1	1	04	E3	press
319.17	n/a	RESPONSE	M1	1	14	D4	press
319.443	n/a	RESPONSE	M1	1	14	D4	release
319.447	n/a	RESPONSE	M1	1	04	E3	release
319.673	n/a	RESPONSE	M1	1	05	F3	press
319.683	n/a	RESPONSE	M1	1	16	E4	press
320.036	n/a	RESPONSE	M1	1	16	E4	release
320.045	n/a	RESPONSE	M1	1	05	F3	release
320.691	n/a	RESPONSE	M1	1	07	G3	press
320.71	n/a	RESPONSE	M1	1	19	G4	press
321.13	n/a	RESPONSE	M1	1	19	G4	release
321.181	n/a	RESPONSE	M1	1	07	G3	release
321.282	n/a	RESPONSE	M1	1	04	E3	press
321.483	n/a	RESPONSE	M1	1	04	E3	release
321.817	n/a	RESPONSE	M1	1	04	E3	press
321.856	n/a	RESPONSE	M1	1	14	D4	press
322.067	n/a	RESPONSE	M1	1	04	E3	release
322.07	n/a	RESPONSE	M1	1	14	D4	release
322.36	n/a	RESPONSE	M1	1	05	F3	press
322.381	n/a	RESPONSE	M1	1	17	F4	press
322.663	n/a	RESPONSE	M1	1	17	F4	release
322.713	n/a	RESPONSE	M1	1	05	F3	release
322.935	n/a	RESPONSE	M1	1	02	D3	press
322.986	n/a	RESPONSE	M1	1	12	C4	press
323.22	n/a	RESPONSE	M1	1	12	C4	release
323.228	n/a	RESPONSE	M1	1	02	D3	release
323.807	7.759	FIXCROSS	n/a	n/a	n/a	n/a	n/a
331.565	6.317	CUE_LISTEN	M1	2	n/a	n/a	n/a
337.882	7.758	FIXCROSS	n/a	n/a	n/a	n/a	n/a
338.28	n/a	RESPONSE	M1	2	07	G3	press
338.796	n/a	RESPONSE	M1	2	07	G3	release
345.64	6.317	CUE_PLAYBACK_BOTH_HANDS	M1	2	n/a	n/a	n/a
346.185	n/a	RESPONSE	M1	2	07	G3	press
346.193	n/a	RESPONSE	M1	2	19	G4	press
346.615	n/a	RESPONSE	M1	2	19	G4	release
346.638	n/a	RESPONSE	M1	2	07	G3	release
346.76	n/a	RESPONSE	M1	2	04	E3	press
346.778	n/a	RESPONSE	M1	2	14	D4	press
347.07	n/a	RESPONSE	M1	2	04	E3	release
347.091	n/a	RESPONSE	M1	2	14	D4	release
347.414	n/a	RESPONSE	M1	2	14	D4	press
347.432	n/a	RESPONSE	M1	2	04	E3	press
347.776	n/a	RESPONSE	M1	2	04	E3	release
347.82	n/a	RESPONSE	M1	2	14	D4	release
348.067	n/a	RESPONSE	M1	2	05	F3	press
348.076	n/a	RESPONSE	M1	2	17	F4	press
348.458	n/a	RESPONSE	M1	2	17	F4	release
348.505	n/a	RESPONSE	M1	2	05	F3	release
348.727	n/a	RESPONSE	M1	2	02	D3	press
348.736	n/a	RESPONSE	M1	2	14	D4	press
349.037	n/a	RESPONSE	M1	2	14	D4	release
349.072	n/a	RESPONSE	M1	2	02	D3	release
349.341	n/a	RESPONSE	M1	2	14	D4	press
349.343	n/a	RESPONSE	M1	2	02	D3	press
349.697	n/a	RESPONSE	M1	2	14	D4	release
349.745	n/a	RESPONSE	M1	2	02	D3	release
350.006	n/a	RESPONSE	M1	2	00	C3	press
350.008	n/a	RESPONSE	M1	2	12	C4	press
350.298	n/a	RESPONSE	M1	2	00	C3	release
350.363	n/a	RESPONSE	M1	2	12	C4	release
350.407	n/a	RESPONSE	M1	2	04	E3	press
350.43	n/a	RESPONSE	M1	2	16	E4	press
350.711	n/a	RESPONSE	M1	2	16	E4	release
350.737	n/a	RESPONSE	M1	2	04	E3	release
350.856	n/a	RESPONSE	M1	2	07	G3	press
350.858	n/a	RESPONSE	M1	2	19	G4	press
351.641	n/a	RESPONSE	M1	2	19	G4	release
351.957	7.759	FIXCROSS	n/a	n/a	n/a	n/a	n/a
351.985	n/a	RESPONSE	M1	2	07	G3	release
354.083	n/a	RESPONSE	M1	2	07	G3	press
354.355	n/a	RESPONSE	M1	2	07	G3	release
354.766	n/a	RESPONSE	M1	2	07	G3	press
355.118	n/a	RESPONSE	M1	2	05	F3	press
355.168	n/a	RESPONSE	M1	2	14	D4	press
355.19	n/a	RESPONSE	M1	2	07	G3	release
355.451	n/a	RESPONSE	M1	2	05	F3	release
355.562	n/a	RESPONSE	M1	2	14	D4	release
359.716	6.317	CUE_LISTEN	M1	1	n/a	n/a	n/a
366.032	7.758	FIXCROSS	n/a	n/a	n/a	n/a	n/a
373.79	6.325	CUE_PLAYBACK_RIGHT_HAND	M1	1	n/a	n/a	n/a
374.598	n/a	RESPONSE	M1	1	19	G4	press
375.05	n/a	RESPONSE	M1	1	19	G4	release
375.131	n/a	RESPONSE	M1	1	16	E4	press
375.392	n/a	RESPONSE	M1	1	16	E4	release
375.673	n/a	RESPONSE	M1	1	16	E4	press
376.015	n/a	RESPONSE	M1	1	16	E4	release
376.206	n/a	RESPONSE	M1	1	17	F4	press
376.547	n/a	RESPONSE	M1	1	17	F4	release
376.75	n/a	RESPONSE	M1	1	14	D4	press
377.01	n/a	RESPONSE	M1	1	14	D4	release
377.314	n/a	RESPONSE	M1	1	14	D4	press
377.604	n/a	RESPONSE	M1	1	14	D4	release
377.901	n/a	RESPONSE	M1	1	12	C4	press
378.225	n/a	RESPONSE	M1	1	12	C4	release
378.227	n/a	RESPONSE	M1	1	16	E4	press
378.521	n/a	RESPONSE	M1	1	19	G4	press
378.557	n/a	RESPONSE	M1	1	16	E4	release
379.397	n/a	RESPONSE	M1	1	19	G4	release
380.115	7.758	FIXCROSS	n/a	n/a	n/a	n/a	n/a
387.874	6.317	CUE_LISTEN	M1	2	n/a	n/a	n/a
394.19	7.759	FIXCROSS	n/a	n/a	n/a	n/a	n/a
401.949	6.316	CUE_PLAYBACK_RIGHT_HAND	M1	2	n/a	n/a	n/a
402.58	n/a	RESPONSE	M1	2	19	G4	press
403.001	n/a	RESPONSE	M1	2	19	G4	release
403.102	n/a	RESPONSE	M1	2	16	E4	press
403.344	n/a	RESPONSE	M1	2	16	E4	release
403.645	n/a	RESPONSE	M1	2	16	E4	press
404.116	n/a	RESPONSE	M1	2	16	E4	release
404.157	n/a	RESPONSE	M1	2	17	F4	press
404.618	n/a	RESPONSE	M1	2	17	F4	release
404.65	n/a	RESPONSE	M1	2	14	D4	press
404.864	n/a	RESPONSE	M1	2	14	D4	release
405.222	n/a	RESPONSE	M1	2	14	D4	press
405.544	n/a	RESPONSE	M1	2	14	D4	release
405.795	n/a	RESPONSE	M1	2	12	C4	press
406.126	n/a	RESPONSE	M1	2	16	E4	press
406.128	n/a	RESPONSE	M1	2	12	C4	release
406.138	n/a	RESPONSE	M1	2	17	F4	press
406.4	n/a	RESPONSE	M1	2	17	F4	release
406.411	n/a	RESPONSE	M1	2	16	E4	release
406.525	n/a	RESPONSE	M1	2	12	C4	press
407.488	n/a	RESPONSE	M1	2	12	C4	release
408.266	7.759	FIXCROSS	n/a	n/a	n/a	n/a	n/a
416.024	6.325	CUE_LISTEN	M1	1	n/a	n/a	n/a
422.349	7.758	FIXCROSS	n/a	n/a	n/a	n/a	n/a
430.107	6.317	CUE_PLAYBACK_BOTH_HANDS	M1	1	n/a	n/a	n/a
430.749	n/a	RESPONSE	M1	1	07	G3	press
430.762	n/a	RESPONSE	M1	1	19	G4	press
431.112	n/a	RESPONSE	M1	1	19	G4	release
431.154	n/a	RESPONSE	M1	1	07	G3	release
431.275	n/a	RESPONSE	M1	1	16	E4	press
431.286	n/a	RESPONSE	M1	1	04	E3	press
431.557	n/a	RESPONSE	M1	1	16	E4	release
431.58	n/a	RESPONSE	M1	1	04	E3	release
431.83	n/a	RESPONSE	M1	1	04	E3	press
431.832	n/a	RESPONSE	M1	1	16	E4	press
432.172	n/a	RESPONSE	M1	1	04	E3	release
432.175	n/a	RESPONSE	M1	1	16	E4	release
432.385	n/a	RESPONSE	M1	1	05	F3	press
432.396	n/a	RESPONSE	M1	1	17	F4	press
432.71	n/a	RESPONSE	M1	1	17	F4	release
432.719	n/a	RESPONSE	M1	1	05	F3	release
432.93	n/a	RESPONSE	M1	1	02	D3	press
432.942	n/a	RESPONSE	M1	1	14	D4	press
433.202	n/a	RESPONSE	M1	1	14	D4	release
433.254	n/a	RESPONSE	M1	1	02	D3	release
433.515	n/a	RESPONSE	M1	1	02	D3	press
433.526	n/a	RESPONSE	M1	1	14	D4	press
433.797	n/a	RESPONSE	M1	1	02	D3	release
433.809	n/a	RESPONSE	M1	1	14	D4	release
434.12	n/a	RESPONSE	M1	1	00	C3	press
434.131	n/a	RESPONSE	M1	1	12	C4	press
434.364	n/a	RESPONSE	M1	1	12	C4	release
434.394	n/a	RESPONSE	M1	1	00	C3	release
434.485	n/a	RESPONSE	M1	1	04	E3	press
434.516	n/a	RESPONSE	M1	1	16	E4	press
434.707	n/a	RESPONSE	M1	1	16	E4	release
434.751	n/a	RESPONSE	M1	1	04	E3	release
434.871	n/a	RESPONSE	M1	1	19	G4	press
434.882	n/a	RESPONSE	M1	1	05	F3	press
435.522	n/a	RESPONSE	M1	1	19	G4	release
435.664	n/a	RESPONSE	M1	1	05	F3	release
436.424	7.759	FIXCROSS	n/a	n/a	n/a	n/a	n/a
444.182	6.317	CUE_LISTEN	M1	2	n/a	n/a	n/a
450.499	7.758	FIXCROSS	n/a	n/a	n/a	n/a	n/a
458.258	6.325	CUE_PLAYBACK_BOTH_HANDS	M1	2	n/a	n/a	n/a
459.112	n/a	RESPONSE	M1	2	07	G3	press
459.129	n/a	RESPONSE	M1	2	19	G4	press
459.499	n/a	RESPONSE	M1	2	19	G4	release
459.501	n/a	RESPONSE	M1	2	07	G3	release
459.667	n/a	RESPONSE	M1	2	04	E3	press
459.677	n/a	RESPONSE	M1	2	16	E4	press
459.935	n/a	RESPONSE	M1	2	16	E4	release
459.966	n/a	RESPONSE	M1	2	04	E3	release
460.227	n/a	RESPONSE	M1	2	04	E3	press
460.237	n/a	RESPONSE	M1	2	16	E4	press
460.535	n/a	RESPONSE	M1	2	16	E4	release
460.542	n/a	RESPONSE	M1	2	04	E3	release
460.795	n/a	RESPONSE	M1	2	05	F3	press
460.802	n/a	RESPONSE	M1	2	17	F4	press
461.116	n/a	RESPONSE	M1	2	17	F4	release
461.127	n/a	RESPONSE	M1	2	05	F3	release
461.369	n/a	RESPONSE	M1	2	02	D3	press
461.381	n/a	RESPONSE	M1	2	14	D4	press
461.682	n/a	RESPONSE	M1	2	14	D4	release
461.685	n/a	RESPONSE	M1	2	02	D3	release
462.034	n/a	RESPONSE	M1	2	02	D3	press
462.036	n/a	RESPONSE	M1	2	14	D4	press
462.319	n/a	RESPONSE	M1	2	02	D3	release
462.327	n/a	RESPONSE	M1	2	14	D4	release
462.63	n/a	RESPONSE	M1	2	00	C3	press
462.65	n/a	RESPONSE	M1	2	12	C4	press
462.901	n/a	RESPONSE	M1	2	12	C4	release
462.912	n/a	RESPONSE	M1	2	00	C3	release
463.044	n/a	RESPONSE	M1	2	04	E3	press
463.097	n/a	RESPONSE	M1	2	17	F4	press
463.106	n/a	RESPONSE	M1	2	16	E4	press
463.297	n/a	RESPONSE	M1	2	17	F4	release
463.3	n/a	RESPONSE	M1	2	16	E4	release
463.351	n/a	RESPONSE	M1	2	04	E3	release
463.531	n/a	RESPONSE	M1	2	12	C4	press
463.534	n/a	RESPONSE	M1	2	00	C3	press
464.534	n/a	RESPONSE	M1	2	00	C3	release
464.536	n/a	RESPONSE	M1	2	12	C4	release
464.582	7.758	FIXCROSS	n/a	n/a	n/a	n/a	n/a
467.49	n/a	RESPONSE	M1	2	07	G3	press
468.218	n/a	RESPONSE	M1	2	07	G3	release
472.341	6.317	CUE_LISTEN	M1	1	n/a	n/a	n/a
478.658	7.758	FIXCROSS	n/a	n/a	n/a	n/a	n/a
486.416	6.317	CUE_PLAYBACK_RIGHT_HAND	M1	1	n/a	n/a	n/a
487.112	n/a	RESPONSE	M1	1	19	G4	press
487.51	n/a	RESPONSE	M1	1	19	G4	release
487.684	n/a	RESPONSE	M1	1	16	E4	press
487.931	n/a	RESPONSE	M1	1	16	E4	release
488.26	n/a	RESPONSE	M1	1	16	E4	press
488.652	n/a	RESPONSE	M1	1	16	E4	release
488.816	n/a	RESPONSE	M1	1	17	F4	press
489.184	n/a	RESPONSE	M1	1	17	F4	release
489.376	n/a	RESPONSE	M1	1	14	D4	press
489.629	n/a	RESPONSE	M1	1	14	D4	release
489.977	n/a	RESPONSE	M1	1	14	D4	press
490.27	n/a	RESPONSE	M1	1	14	D4	release
490.572	n/a	RESPONSE	M1	1	12	C4	press
490.809	n/a	RESPONSE	M1	1	12	C4	release
490.904	n/a	RESPONSE	M1	1	16	E4	press
491.232	n/a	RESPONSE	M1	1	16	E4	release
491.284	n/a	RESPONSE	M1	1	19	G4	press
491.985	n/a	RESPONSE	M1	1	19	G4	release
492.732	7.758	FIXCROSS	n/a	n/a	n/a	n/a	n/a
500.491	6.325	CUE_LISTEN	M1	2	n/a	n/a	n/a
506.816	7.758	FIXCROSS	n/a	n/a	n/a	n/a	n/a
514.574	6.325	CUE_PLAYBACK_RIGHT_HAND	M1	2	n/a	n/a	n/a
515.297	n/a	RESPONSE	M1	2	19	G4	press
515.689	n/a	RESPONSE	M1	2	19	G4	release
515.82	n/a	RESPONSE	M1	2	16	E4	press
516.041	n/a	RESPONSE	M1	2	16	E4	release
516.334	n/a	RESPONSE	M1	2	16	E4	press
516.676	n/a	RESPONSE	M1	2	16	E4	release
516.865	n/a	RESPONSE	M1	2	17	F4	press
517.156	n/a	RESPONSE	M1	2	17	F4	release
517.38	n/a	RESPONSE	M1	2	14	D4	press
517.619	n/a	RESPONSE	M1	2	14	D4	release
517.954	n/a	RESPONSE	M1	2	14	D4	press
518.184	n/a	RESPONSE	M1	2	14	D4	release
518.497	n/a	RESPONSE	M1	2	12	C4	press
518.769	n/a	RESPONSE	M1	2	12	C4	release
518.806	n/a	RESPONSE	M1	2	16	E4	press
519.074	n/a	RESPONSE	M1	2	16	E4	release
519.088	n/a	RESPONSE	M1	2	12	C4	press
520.009	n/a	RESPONSE	M1	2	12	C4	release
520.899	7.758	FIXCROSS	n/a	n/a	n/a	n/a	n/a
528.658	6.317	CUE_LISTEN	M1	1	n/a	n/a	n/a
534.974	7.759	FIXCROSS	n/a	n/a	n/a	n/a	n/a
542.733	6.317	CUE_PLAYBACK_BOTH_HANDS	M1	1	n/a	n/a	n/a
543.431	n/a	RESPONSE	M1	1	07	G3	press
543.462	n/a	RESPONSE	M1	1	19	G4	press
543.794	n/a	RESPONSE	M1	1	19	G4	release
543.796	n/a	RESPONSE	M1	1	07	G3	release
544.006	n/a	RESPONSE	M1	1	04	E3	press
544.019	n/a	RESPONSE	M1	1	16	E4	press
544.27	n/a	RESPONSE	M1	1	16	E4	release
544.3	n/a	RESPONSE	M1	1	04	E3	release
544.552	n/a	RESPONSE	M1	1	04	E3	press
544.565	n/a	RESPONSE	M1	1	16	E4	press
544.864	n/a	RESPONSE	M1	1	16	E4	release
544.875	n/a	RESPONSE	M1	1	04	E3	release
545.116	n/a	RESPONSE	M1	1	05	F3	press
545.119	n/a	RESPONSE	M1	1	17	F4	press
545.429	n/a	RESPONSE	M1	1	17	F4	release
545.44	n/a	RESPONSE	M1	1	05	F3	release
545.681	n/a	RESPONSE	M1	1	02	D3	press
545.695	n/a	RESPONSE	M1	1	14	D4	press
545.964	n/a	RESPONSE	M1	1	14	D4	release
545.995	n/a	RESPONSE	M1	1	02	D3	release
546.316	n/a	RESPONSE	M1	1	14	D4	press
546.319	n/a	RESPONSE	M1	1	02	D3	press
546.541	n/a	RESPONSE	M1	1	14	D4	release
546.55	n/a	RESPONSE	M1	1	02	D3	release
546.894	n/a	RESPONSE	M1	1	00	C3	press
546.902	n/a	RESPONSE	M1	1	12	C4	press
547.124	n/a	RESPONSE	M1	1	12	C4	release
547.135	n/a	RESPONSE	M1	1	00	C3	release
547.256	n/a	RESPONSE	M1	1	16	E4	press
547.26	n/a	RESPONSE	M1	1	05	F3	press
547.269	n/a	RESPONSE	M1	1	04	E3	press
547.476	n/a	RESPONSE	M1	1	04	E3	release
547.504	n/a	RESPONSE	M1	1	05	F3	release
547.506	n/a	RESPONSE	M1	1	16	E4	release
547.629	n/a	RESPONSE	M1	1	19	G4	press
547.661	n/a	RESPONSE	M1	1	07	G3	press
548.358	n/a	RESPONSE	M1	1	19	G4	release
548.586	n/a	RESPONSE	M1	1	07	G3	release
549.049	7.758	FIXCROSS	n/a	n/a	n/a	n/a	n/a
556.808	6.317	CUE_LISTEN	M1	2	n/a	n/a	n/a
563.124	7.758	FIXCROSS	n/a	n/a	n/a	n/a	n/a
570.883	6.325	CUE_PLAYBACK_BOTH_HANDS	M1	2	n/a	n/a	n/a
571.444	n/a	RESPONSE	M1	2	07	G3	press
571.475	n/a	RESPONSE	M1	2	19	G4	press
571.879	n/a	RESPONSE	M1	2	19	G4	release
571.898	n/a	RESPONSE	M1	2	07	G3	release
572.031	n/a	RESPONSE	M1	2	04	E3	press
572.06	n/a	RESPONSE	M1	2	14	D4	press
572.291	n/a	RESPONSE	M1	2	14	D4	release
572.332	n/a	RESPONSE	M1	2	04	E3	release
572.614	n/a	RESPONSE	M1	2	04	E3	press
572.655	n/a	RESPONSE	M1	2	14	D4	press
572.896	n/a	RESPONSE	M1	2	04	E3	release
572.908	n/a	RESPONSE	M1	2	14	D4	release
573.291	n/a	RESPONSE	M1	2	17	F4	press
573.3	n/a	RESPONSE	M1	2	05	F3	press
573.661	n/a	RESPONSE	M1	2	17	F4	release
573.712	n/a	RESPONSE	M1	2	05	F3	release
573.914	n/a	RESPONSE	M1	2	02	D3	press
573.925	n/a	RESPONSE	M1	2	14	D4	press
574.129	n/a	RESPONSE	M1	2	14	D4	release
574.168	n/a	RESPONSE	M1	2	02	D3	release
574.539	n/a	RESPONSE	M1	2	02	D3	press
574.55	n/a	RESPONSE	M1	2	14	D4	press
574.822	n/a	RESPONSE	M1	2	02	D3	release
574.852	n/a	RESPONSE	M1	2	14	D4	release
575.184	n/a	RESPONSE	M1	2	00	C3	press
575.198	n/a	RESPONSE	M1	2	12	C4	press
575.446	n/a	RESPONSE	M1	2	00	C3	release
575.449	n/a	RESPONSE	M1	2	12	C4	release
575.589	n/a	RESPONSE	M1	2	04	E3	press
575.62	n/a	RESPONSE	M1	2	16	E4	press
575.834	n/a	RESPONSE	M1	2	04	E3	release
575.842	n/a	RESPONSE	M1	2	16	E4	release
576.026	n/a	RESPONSE	M1	2	00	C3	press
576.045	n/a	RESPONSE	M1	2	12	C4	press
577.016	n/a	RESPONSE	M1	2	12	C4	release
577.088	n/a	RESPONSE	M1	2	00	C3	release
577.208	7.759	FIXCROSS	n/a	n/a	n/a	n/a	n/a
584.966	6.317	CUE_LISTEN	M1	1	n/a	n/a	n/a
591.283	7.758	FIXCROSS	n/a	n/a	n/a	n/a	n/a
599.041	6.317	CUE_PLAYBACK_RIGHT_HAND	M1	1	n/a	n/a	n/a
599.734	n/a	RESPONSE	M1	1	19	G4	press
600.132	n/a	RESPONSE	M1	1	19	G4	release
600.269	n/a	RESPONSE	M1	1	16	E4	press
600.544	n/a	RESPONSE	M1	1	16	E4	release
600.793	n/a	RESPONSE	M1	1	16	E4	press
601.119	n/a	RESPONSE	M1	1	16	E4	release
601.33	n/a	RESPONSE	M1	1	17	F4	press
601.643	n/a	RESPONSE	M1	1	17	F4	release
601.843	n/a	RESPONSE	M1	1	14	D4	press
602.094	n/a	RESPONSE	M1	1	14	D4	release
602.405	n/a	RESPONSE	M1	1	14	D4	press
602.696	n/a	RESPONSE	M1	1	14	D4	release
603.018	n/a	RESPONSE	M1	1	12	C4	press
603.279	n/a	RESPONSE	M1	1	12	C4	release
603.641	n/a	RESPONSE	M1	1	16	E4	press
603.841	n/a	RESPONSE	M1	1	16	E4	release
604.264	n/a	RESPONSE	M1	1	17	F4	press
604.564	n/a	RESPONSE	M1	1	17	F4	release
604.785	n/a	RESPONSE	M1	1	19	G4	press
605.358	7.759	FIXCROSS	n/a	n/a	n/a	n/a	n/a
605.546	n/a	RESPONSE	M1	1	19	G4	release
613.116	6.325	CUE_LISTEN	M1	2	n/a	n/a	n/a
619.441	7.759	FIXCROSS	n/a	n/a	n/a	n/a	n/a
627.2	6.317	CUE_PLAYBACK_RIGHT_HAND	M1	2	n/a	n/a	n/a
627.838	n/a	RESPONSE	M1	2	19	G4	press
628.216	n/a	RESPONSE	M1	2	19	G4	release
628.38	n/a	RESPONSE	M1	2	16	E4	press
628.643	n/a	RESPONSE	M1	2	16	E4	release
628.888	n/a	RESPONSE	M1	2	16	E4	press
629.26	n/a	RESPONSE	M1	2	16	E4	release
629.448	n/a	RESPONSE	M1	2	17	F4	press
629.775	n/a	RESPONSE	M1	2	17	F4	release
629.976	n/a	RESPONSE	M1	2	14	D4	press
630.24	n/a	RESPONSE	M1	2	14	D4	release
630.56	n/a	RESPONSE	M1	2	14	D4	press
630.921	n/a	RESPONSE	M1	2	14	D4	release
631.163	n/a	RESPONSE	M1	2	12	C4	press
631.434	n/a	RESPONSE	M1	2	12	C4	release
631.495	n/a	RESPONSE	M1	2	16	E4	press
631.809	n/a	RESPONSE	M1	2	16	E4	release
631.888	n/a	RESPONSE	M1	2	12	C4	press
632.739	n/a	RESPONSE	M1	2	12	C4	release
633.516	7.758	FIXCROSS	n/a	n/a	n/a	n/a	n/a
641.275	6.317	CUE_LISTEN	M1	1	n/a	n/a	n/a
647.591	7.759	FIXCROSS	n/a	n/a	n/a	n/a	n/a
655.35	6.325	CUE_PLAYBACK_BOTH_HANDS	M1	1	n/a	n/a	n/a
656.059	n/a	RESPONSE	M1	1	19	G4	press
656.061	n/a	RESPONSE	M1	1	07	G3	press
656.431	n/a	RESPONSE	M1	1	19	G4	release
656.454	n/a	RESPONSE	M1	1	07	G3	release
656.594	n/a	RESPONSE	M1	1	02	D3	press
656.875	n/a	RESPONSE	M1	1	02	D3	release
657.431	n/a	RESPONSE	M1	1	07	G3	press
657.449	n/a	RESPONSE	M1	1	19	G4	press
657.833	n/a	RESPONSE	M1	1	19	G4	release
657.95	n/a	RESPONSE	M1	1	07	G3	release
657.97	n/a	RESPONSE	M1	1	04	E3	press
657.98	n/a	RESPONSE	M1	1	16	E4	press
658.243	n/a	RESPONSE	M1	1	04	E3	release
658.261	n/a	RESPONSE	M1	1	16	E4	release
658.518	n/a	RESPONSE	M1	1	04	E3	press
658.533	n/a	RESPONSE	M1	1	16	E4	press
658.848	n/a	RESPONSE	M1	1	16	E4	release
658.851	n/a	RESPONSE	M1	1	04	E3	release
659.069	n/a	RESPONSE	M1	1	05	F3	press
659.08	n/a	RESPONSE	M1	1	17	F4	press
659.396	n/a	RESPONSE	M1	1	17	F4	release
659.41	n/a	RESPONSE	M1	1	05	F3	release
659.619	n/a	RESPONSE	M1	1	02	D3	press
659.638	n/a	RESPONSE	M1	1	14	D4	press
659.89	n/a	RESPONSE	M1	1	14	D4	release
659.893	n/a	RESPONSE	M1	1	02	D3	release
660.16	n/a	RESPONSE	M1	1	02	D3	press
660.171	n/a	RESPONSE	M1	1	14	D4	press
660.428	n/a	RESPONSE	M1	1	14	D4	release
660.43	n/a	RESPONSE	M1	1	02	D3	release
660.726	n/a	RESPONSE	M1	1	00	C3	press
660.733	n/a	RESPONSE	M1	1	12	C4	press
660.975	n/a	RESPONSE	M1	1	12	C4	release
660.996	n/a	RESPONSE	M1	1	00	C3	release
661.098	n/a	RESPONSE	M1	1	04	E3	press
661.1	n/a	RESPONSE	M1	1	16	E4	press
661.32	n/a	RESPONSE	M1	1	16	E4	release
661.344	n/a	RESPONSE	M1	1	04	E3	release
661.495	n/a	RESPONSE	M1	1	19	G4	press
661.504	n/a	RESPONSE	M1	1	07	G3	press
661.675	7.759	FIXCROSS	n/a	n/a	n/a	n/a	n/a
662.305	n/a	RESPONSE	M1	1	19	G4	release
662.466	n/a	RESPONSE	M1	1	07	G3	release
669.433	6.317	CUE_LISTEN	M1	2	n/a	n/a	n/a
675.75	7.758	FIXCROSS	n/a	n/a	n/a	n/a	n/a
683.508	6.317	CUE_PLAYBACK_BOTH_HANDS	M1	2	n/a	n/a	n/a
684.29	n/a	RESPONSE	M1	2	07	G3	press
684.293	n/a	RESPONSE	M1	2	19	G4	press
684.653	n/a	RESPONSE	M1	2	19	G4	release
684.664	n/a	RESPONSE	M1	2	07	G3	release
684.805	n/a	RESPONSE	M1	2	04	E3	press
684.808	n/a	RESPONSE	M1	2	16	E4	press
685.068	n/a	RESPONSE	M1	2	16	E4	release
685.07	n/a	RESPONSE	M1	2	04	E3	release
685.332	n/a	RESPONSE	M1	2	04	E3	press
685.342	n/a	RESPONSE	M1	2	16	E4	press
685.663	n/a	RESPONSE	M1	2	16	E4	release
685.674	n/a	RESPONSE	M1	2	04	E3	release
685.865	n/a	RESPONSE	M1	2	05	F3	press
685.876	n/a	RESPONSE	M1	2	17	F4	press
686.178	n/a	RESPONSE	M1	2	17	F4	release
686.192	n/a	RESPONSE	M1	2	05	F3	release
686.42	n/a	RESPONSE	M1	2	02	D3	press
686.423	n/a	RESPONSE	M1	2	14	D4	press
686.703	n/a	RESPONSE	M1	2	14	D4	release
686.735	n/a	RESPONSE	M1	2	02	D3	release
686.995	n/a	RESPONSE	M1	2	02	D3	press
686.999	n/a	RESPONSE	M1	2	14	D4	press
687.308	n/a	RESPONSE	M1	2	02	D3	release
687.339	n/a	RESPONSE	M1	2	14	D4	release
687.558	n/a	RESPONSE	M1	2	00	C3	press
687.572	n/a	RESPONSE	M1	2	12	C4	press
687.8	n/a	RESPONSE	M1	2	12	C4	release
687.814	n/a	RESPONSE	M1	2	00	C3	release
687.895	n/a	RESPONSE	M1	2	04	E3	press
687.909	n/a	RESPONSE	M1	2	16	E4	press
688.12	n/a	RESPONSE	M1	2	04	E3	release
688.132	n/a	RESPONSE	M1	2	16	E4	release
688.295	n/a	RESPONSE	M1	2	12	C4	press
688.302	n/a	RESPONSE	M1	2	00	C3	press
689.136	n/a	RESPONSE	M1	2	12	C4	release
689.339	n/a	RESPONSE	M1	2	00	C3	release
689.825	7.767	FIXCROSS	n/a	n/a	n/a	n/a	n/a
697.592	6.317	CUE_LISTEN	M1	1	n/a	n/a	n/a
703.908	7.758	FIXCROSS	n/a	n/a	n/a	n/a	n/a
711.667	6.317	CUE_PLAYBACK_RIGHT_HAND	M1	1	n/a	n/a	n/a
712.464	n/a	RESPONSE	M1	1	19	G4	press
712.884	n/a	RESPONSE	M1	1	19	G4	release
712.998	n/a	RESPONSE	M1	1	16	E4	press
713.256	n/a	RESPONSE	M1	1	16	E4	release
713.509	n/a	RESPONSE	M1	1	16	E4	press
713.87	n/a	RESPONSE	M1	1	16	E4	release
714.05	n/a	RESPONSE	M1	1	17	F4	press
714.382	n/a	RESPONSE	M1	1	17	F4	release
714.553	n/a	RESPONSE	M1	1	14	D4	press
714.824	n/a	RESPONSE	M1	1	14	D4	release
715.128	n/a	RESPONSE	M1	1	14	D4	press
715.376	n/a	RESPONSE	M1	1	14	D4	release
715.678	n/a	RESPONSE	M1	1	12	C4	press
715.919	n/a	RESPONSE	M1	1	12	C4	release
715.99	n/a	RESPONSE	M1	1	16	E4	press
716.252	n/a	RESPONSE	M1	1	16	E4	release
716.313	n/a	RESPONSE	M1	1	19	G4	press
716.914	n/a	RESPONSE	M1	1	19	G4	release
717.983	7.759	FIXCROSS	n/a	n/a	n/a	n/a	n/a
725.742	6.317	CUE_LISTEN	M1	2	n/a	n/a	n/a
732.058	7.759	FIXCROSS	n/a	n/a	n/a	n/a	n/a
739.817	6.325	CUE_PLAYBACK_RIGHT_HAND	M1	2	n/a	n/a	n/a
740.353	n/a	RESPONSE	M1	2	19	G4	press
740.774	n/a	RESPONSE	M1	2	19	G4	release
740.868	n/a	RESPONSE	M1	2	16	E4	press
741.148	n/a	RESPONSE	M1	2	16	E4	release
741.402	n/a	RESPONSE	M1	2	16	E4	press
741.753	n/a	RESPONSE	M1	2	16	E4	release
741.952	n/a	RESPONSE	M1	2	17	F4	press
742.273	n/a	RESPONSE	M1	2	17	F4	release
742.554	n/a	RESPONSE	M1	2	14	D4	press
742.777	n/a	RESPONSE	M1	2	14	D4	release
743.146	n/a	RESPONSE	M1	2	14	D4	press
743.478	n/a	RESPONSE	M1	2	14	D4	release
743.749	n/a	RESPONSE	M1	2	12	C4	press
743.98	n/a	RESPONSE	M1	2	12	C4	release
744.082	n/a	RESPONSE	M1	2	16	E4	press
744.323	n/a	RESPONSE	M1	2	16	E4	release
744.464	n/a	RESPONSE	M1	2	12	C4	press
745.295	n/a	RESPONSE	M1	2	12	C4	release
746.142	7.759	FIXCROSS	n/a	n/a	n/a	n/a	n/a
753.9	6.317	CUE_LISTEN	M1	1	n/a	n/a	n/a
760.217	7.758	FIXCROSS	n/a	n/a	n/a	n/a	n/a
767.975	6.325	CUE_PLAYBACK_BOTH_HANDS	M1	1	n/a	n/a	n/a
768.52	n/a	RESPONSE	M1	1	07	G3	press
768.538	n/a	RESPONSE	M1	1	19	G4	press
768.918	n/a	RESPONSE	M1	1	19	G4	release
768.967	n/a	RESPONSE	M1	1	07	G3	release
769.065	n/a	RESPONSE	M1	1	02	D3	press
769.07	n/a	RESPONSE	M1	1	16	E4	press
769.343	n/a	RESPONSE	M1	1	16	E4	release
769.369	n/a	RESPONSE	M1	1	02	D3	release
769.648	n/a	RESPONSE	M1	1	02	D3	press
769.654	n/a	RESPONSE	M1	1	16	E4	press
769.932	n/a	RESPONSE	M1	1	02	D3	release
769.948	n/a	RESPONSE	M1	1	16	E4	release
770.223	n/a	RESPONSE	M1	1	04	E3	press
770.225	n/a	RESPONSE	M1	1	17	F4	press
770.552	n/a	RESPONSE	M1	1	17	F4	release
770.595	n/a	RESPONSE	M1	1	04	E3	release
770.828	n/a	RESPONSE	M1	1	02	D3	press
770.88	n/a	RESPONSE	M1	1	12	C4	press
771.003	n/a	RESPONSE	M1	1	12	C4	release
771.152	n/a	RESPONSE	M1	1	02	D3	release
771.464	n/a	RESPONSE	M1	1	14	D4	press
771.475	n/a	RESPONSE	M1	1	02	D3	press
771.777	n/a	RESPONSE	M1	1	14	D4	release
771.787	n/a	RESPONSE	M1	1	02	D3	release
772.068	n/a	RESPONSE	M1	1	00	C3	press
772.099	n/a	RESPONSE	M1	1	12	C4	press
772.33	n/a	RESPONSE	M1	1	00	C3	release
772.342	n/a	RESPONSE	M1	1	12	C4	release
772.463	n/a	RESPONSE	M1	1	04	E3	press
772.484	n/a	RESPONSE	M1	1	16	E4	press
772.715	n/a	RESPONSE	M1	1	16	E4	release
772.747	n/a	RESPONSE	M1	1	04	E3	release
772.87	n/a	RESPONSE	M1	1	07	G3	press
772.879	n/a	RESPONSE	M1	1	19	G4	press
773.653	n/a	RESPONSE	M1	1	19	G4	release
773.892	n/a	RESPONSE	M1	1	07	G3	release
774.3	7.758	FIXCROSS	n/a	n/a	n/a	n/a	n/a
782.059	6.317	CUE_LISTEN	M1	2	n/a	n/a	n/a
788.375	7.758	FIXCROSS	n/a	n/a	n/a	n/a	n/a
793.044	n/a	RESPONSE	M1	2	07	G3	press
793.227	n/a	RESPONSE	M1	2	07	G3	release
795.419	n/a	RESPONSE	M1	2	07	G3	press
795.62	n/a	RESPONSE	M1	2	07	G3	release
796.134	6.317	CUE_PLAYBACK_BOTH_HANDS	M1	2	n/a	n/a	n/a
796.922	n/a	RESPONSE	M1	2	19	G4	press
796.932	n/a	RESPONSE	M1	2	07	G3	press
797.293	n/a	RESPONSE	M1	2	19	G4	release
797.314	n/a	RESPONSE	M1	2	07	G3	release
797.503	n/a	RESPONSE	M1	2	04	E3	press
797.519	n/a	RESPONSE	M1	2	16	E4	press
797.735	n/a	RESPONSE	M1	2	16	E4	release
797.767	n/a	RESPONSE	M1	2	04	E3	release
798.083	n/a	RESPONSE	M1	2	04	E3	press
798.085	n/a	RESPONSE	M1	2	16	E4	press
798.463	n/a	RESPONSE	M1	2	04	E3	release
798.504	n/a	RESPONSE	M1	2	16	E4	release
798.678	n/a	RESPONSE	M1	2	17	F4	press
798.683	n/a	RESPONSE	M1	2	05	F3	press
799.018	n/a	RESPONSE	M1	2	05	F3	release
799.032	n/a	RESPONSE	M1	2	17	F4	release
799.272	n/a	RESPONSE	M1	2	02	D3	press
799.289	n/a	RESPONSE	M1	2	14	D4	press
799.543	n/a	RESPONSE	M1	2	02	D3	release
799.579	n/a	RESPONSE	M1	2	14	D4	release
799.884	n/a	RESPONSE	M1	2	02	D3	press
799.888	n/a	RESPONSE	M1	2	14	D4	press
800.224	n/a	RESPONSE	M1	2	02	D3	release
800.227	n/a	RESPONSE	M1	2	14	D4	release
800.523	n/a	RESPONSE	M1	2	00	C3	press
800.53	n/a	RESPONSE	M1	2	12	C4	press
800.794	n/a	RESPONSE	M1	2	00	C3	release
800.809	n/a	RESPONSE	M1	2	12	C4	release
800.913	n/a	RESPONSE	M1	2	04	E3	press
800.932	n/a	RESPONSE	M1	2	16	E4	press
801.165	n/a	RESPONSE	M1	2	04	E3	release
801.168	n/a	RESPONSE	M1	2	16	E4	release
801.338	n/a	RESPONSE	M1	2	00	C3	press
801.349	n/a	RESPONSE	M1	2	12	C4	press
802.45	7.759	FIXCROSS	n/a	n/a	n/a	n/a	n/a
802.46	n/a	RESPONSE	M1	2	00	C3	release
802.482	n/a	RESPONSE	M1	2	12	C4	release
810.209	6.325	CUE_LISTEN	M1	1	n/a	n/a	n/a
816.534	7.758	FIXCROSS	n/a	n/a	n/a	n/a	n/a
824.292	6.317	CUE_PLAYBACK_RIGHT_HAND	M1	1	n/a	n/a	n/a
824.88	n/a	RESPONSE	M1	1	19	G4	press
825.3	n/a	RESPONSE	M1	1	19	G4	release
825.444	n/a	RESPONSE	M1	1	16	E4	press
825.733	n/a	RESPONSE	M1	1	16	E4	release
826.004	n/a	RESPONSE	M1	1	16	E4	press
826.405	n/a	RESPONSE	M1	1	16	E4	release
826.578	n/a	RESPONSE	M1	1	17	F4	press
826.948	n/a	RESPONSE	M1	1	17	F4	release
827.12	n/a	RESPONSE	M1	1	14	D4	press
827.379	n/a	RESPONSE	M1	1	14	D4	release
827.717	n/a	RESPONSE	M1	1	14	D4	press
827.998	n/a	RESPONSE	M1	1	14	D4	release
828.288	n/a	RESPONSE	M1	1	12	C4	press
828.538	n/a	RESPONSE	M1	1	12	C4	release
828.619	n/a	RESPONSE	M1	1	16	E4	press
828.862	n/a	RESPONSE	M1	1	16	E4	release
828.963	n/a	RESPONSE	M1	1	19	G4	press
829.53	n/a	RESPONSE	M1	1	19	G4	release
830.609	7.759	FIXCROSS	n/a	n/a	n/a	n/a	n/a
838.367	6.317	CUE_LISTEN	M1	2	n/a	n/a	n/a
844.684	7.759	FIXCROSS	n/a	n/a	n/a	n/a	n/a
852.442	6.325	CUE_PLAYBACK_RIGHT_HAND	M1	2	n/a	n/a	n/a
852.987	n/a	RESPONSE	M1	2	19	G4	press
853.376	n/a	RESPONSE	M1	2	19	G4	release
853.527	n/a	RESPONSE	M1	2	16	E4	press
853.788	n/a	RESPONSE	M1	2	16	E4	release
854.069	n/a	RESPONSE	M1	2	16	E4	press
854.39	n/a	RESPONSE	M1	2	16	E4	release
854.622	n/a	RESPONSE	M1	2	17	F4	press
854.943	n/a	RESPONSE	M1	2	17	F4	release
855.174	n/a	RESPONSE	M1	2	14	D4	press
855.466	n/a	RESPONSE	M1	2	14	D4	release
855.747	n/a	RESPONSE	M1	2	14	D4	press
856.038	n/a	RESPONSE	M1	2	14	D4	release
856.339	n/a	RESPONSE	M1	2	12	C4	press
856.59	n/a	RESPONSE	M1	2	12	C4	release
856.702	n/a	RESPONSE	M1	2	16	E4	press
856.736	n/a	RESPONSE	M1	2	17	F4	press
856.884	n/a	RESPONSE	M1	2	17	F4	release
856.956	n/a	RESPONSE	M1	2	16	E4	release
857.107	n/a	RESPONSE	M1	2	12	C4	press
858.04	n/a	RESPONSE	M1	2	12	C4	release
858.767	7.758	FIXCROSS	n/a	n/a	n/a	n/a	n/a
866.526	6.317	CUE_LISTEN	M1	1	n/a	n/a	n/a
872.842	7.759	FIXCROSS	n/a	n/a	n/a	n/a	n/a
880.601	6.316	CUE_PLAYBACK_BOTH_HANDS	M1	1	n/a	n/a	n/a
881.267	n/a	RESPONSE	M1	1	07	G3	press
881.278	n/a	RESPONSE	M1	1	19	G4	press
881.679	n/a	RESPONSE	M1	1	19	G4	release
881.702	n/a	RESPONSE	M1	1	07	G3	release
881.842	n/a	RESPONSE	M1	1	04	E3	press
881.844	n/a	RESPONSE	M1	1	16	E4	press
882.084	n/a	RESPONSE	M1	1	16	E4	release
882.136	n/a	RESPONSE	M1	1	04	E3	release
882.387	n/a	RESPONSE	M1	1	04	E3	press
882.398	n/a	RESPONSE	M1	1	16	E4	press
882.719	n/a	RESPONSE	M1	1	16	E4	release
882.74	n/a	RESPONSE	M1	1	04	E3	release
882.954	n/a	RESPONSE	M1	1	05	F3	press
882.973	n/a	RESPONSE	M1	1	17	F4	press
883.314	n/a	RESPONSE	M1	1	05	F3	release
883.317	n/a	RESPONSE	M1	1	17	F4	release
883.507	n/a	RESPONSE	M1	1	02	D3	press
883.518	n/a	RESPONSE	M1	1	14	D4	press
883.819	n/a	RESPONSE	M1	1	14	D4	release
883.822	n/a	RESPONSE	M1	1	02	D3	release
884.082	n/a	RESPONSE	M1	1	02	D3	press
884.103	n/a	RESPONSE	M1	1	14	D4	press
884.374	n/a	RESPONSE	M1	1	02	D3	release
884.406	n/a	RESPONSE	M1	1	14	D4	release
884.667	n/a	RESPONSE	M1	1	00	C3	press
884.678	n/a	RESPONSE	M1	1	12	C4	press
884.919	n/a	RESPONSE	M1	1	12	C4	release
884.96	n/a	RESPONSE	M1	1	00	C3	release
885.013	n/a	RESPONSE	M1	1	04	E3	press
885.053	n/a	RESPONSE	M1	1	16	E4	press
885.267	n/a	RESPONSE	M1	1	16	E4	release
885.308	n/a	RESPONSE	M1	1	04	E3	release
885.408	n/a	RESPONSE	M1	1	07	G3	press
885.418	n/a	RESPONSE	M1	1	19	G4	press
886.239	n/a	RESPONSE	M1	1	19	G4	release
886.341	n/a	RESPONSE	M1	1	07	G3	release
886.917	7.758	FIXCROSS	n/a	n/a	n/a	n/a	n/a
894.676	6.325	CUE_LISTEN	M1	2	n/a	n/a	n/a
901.001	7.758	FIXCROSS	n/a	n/a	n/a	n/a	n/a
908.759	108.688	CUE_PLAYBACK_BOTH_HANDS	M1	2	n/a	n/a	n/a
909.346	n/a	RESPONSE	M1	2	07	G3	press
909.356	n/a	RESPONSE	M1	2	19	G4	press
909.756	n/a	RESPONSE	M1	2	19	G4	release
909.776	n/a	RESPONSE	M1	2	07	G3	release
909.917	n/a	RESPONSE	M1	2	04	E3	press
909.928	n/a	RESPONSE	M1	2	16	E4	press
910.188	n/a	RESPONSE	M1	2	16	E4	release
910.201	n/a	RESPONSE	M1	2	04	E3	release
910.482	n/a	RESPONSE	M1	2	04	E3	press
910.493	n/a	RESPONSE	M1	2	16	E4	press
910.798	n/a	RESPONSE	M1	2	16	E4	release
910.807	n/a	RESPONSE	M1	2	04	E3	release
911.043	n/a	RESPONSE	M1	2	05	F3	press
911.053	n/a	RESPONSE	M1	2	17	F4	press
911.364	n/a	RESPONSE	M1	2	17	F4	release
911.396	n/a	RESPONSE	M1	2	05	F3	release
911.617	n/a	RESPONSE	M1	2	02	D3	press
911.619	n/a	RESPONSE	M1	2	14	D4	press
911.889	n/a	RESPONSE	M1	2	02	D3	release
911.892	n/a	RESPONSE	M1	2	14	D4	release
912.182	n/a	RESPONSE	M1	2	02	D3	press
912.193	n/a	RESPONSE	M1	2	14	D4	press
912.506	n/a	RESPONSE	M1	2	02	D3	release
912.546	n/a	RESPONSE	M1	2	14	D4	release
912.777	n/a	RESPONSE	M1	2	00	C3	press
912.801	n/a	RESPONSE	M1	2	12	C4	press
913.029	n/a	RESPONSE	M1	2	12	C4	release
913.032	n/a	RESPONSE	M1	2	00	C3	release
913.152	n/a	RESPONSE	M1	2	04	E3	press
913.176	n/a	RESPONSE	M1	2	16	E4	press
913.256	n/a	FIXCROSS	n/a	n/a	n/a	n/a	n/a
913.404	n/a	RESPONSE	M1	2	16	E4	release
913.407	n/a	RESPONSE	M1	2	04	E3	release
913.577	n/a	RESPONSE	M1	2	12	C4	press
913.579	n/a	RESPONSE	M1	2	00	C3	press
914.759	n/a	RESPONSE	M1	2	00	C3	release
914.892	n/a	RESPONSE	M1	2	12	C4	release
965.16	n/a	RESPONSE	M1	2	04	E3	press
965.211	n/a	RESPONSE	M1	2	02	D3	press
965.232	n/a	RESPONSE	M1	2	04	E3	release
965.284	n/a	RESPONSE	M1	2	02	D3	release
