onset	duration	trial_type	trial_number	stroop_condition	stim_text(PL)	stim_text(eng)	stim_color(PL)	stim_color(eng)	response_type	response_color
0.0	n/a	RESPONSE	n/a	n/a	n/a	n/a	n/a	n/a	n/a	n/a
0.0634	1.0167	ITI	n/a	n/a	n/a	n/a	n/a	n/a	n/a	n/a
1.0801	0.5167	FIXCROSS	n/a	n/a	n/a	n/a	n/a	n/a	n/a	n/a
1.5968	1.35	T_INK	1	Incongruent	niebieski	blue	żółty	yellow	hit	n/a
2.9214	n/a	RESPONSE	n/a	n/a	n/a	n/a	n/a	n/a	n/a	yellow
2.9467	0.5167	FEEDBACK	n/a	n/a	n/a	n/a	n/a	n/a	n/a	n/a
3.4634	1.0167	ITI	n/a	n/a	n/a	n/a	n/a	n/a	n/a	n/a
4.4801	0.5167	FIXCROSS	n/a	n/a	n/a	n/a	n/a	n/a	n/a	n/a
4.9968	0.8166	T_INK	2	Neutral	xxxxx	xxxxx	czerwony	red	hit	n/a
5.7788	n/a	RESPONSE	n/a	n/a	n/a	n/a	n/a	n/a	n/a	red
5.8134	0.5167	FEEDBACK	n/a	n/a	n/a	n/a	n/a	n/a	n/a	n/a
6.3301	1.0167	ITI	n/a	n/a	n/a	n/a	n/a	n/a	n/a	n/a
7.3468	0.5167	FIXCROSS	n/a	n/a	n/a	n/a	n/a	n/a	n/a	n/a
7.8635	0.6166	T_INK	3	Neutral	xxxxxxxxx	xxxxxxxxx	zielony	green	hit	n/a
8.4448	n/a	RESPONSE	n/a	n/a	n/a	n/a	n/a	n/a	n/a	green
8.4801	0.5167	FEEDBACK	n/a	n/a	n/a	n/a	n/a	n/a	n/a	n/a
8.9968	1.0167	ITI	n/a	n/a	n/a	n/a	n/a	n/a	n/a	n/a
10.0135	0.5167	FIXCROSS	n/a	n/a	n/a	n/a	n/a	n/a	n/a	n/a
10.5302	0.6	T_INK	4	Incongruent	żółty	yellow	niebieski	blue	hit	n/a
11.0948	n/a	RESPONSE	n/a	n/a	n/a	n/a	n/a	n/a	n/a	blue
11.1302	0.5166	FEEDBACK	n/a	n/a	n/a	n/a	n/a	n/a	n/a	n/a
11.6468	1.0167	ITI	n/a	n/a	n/a	n/a	n/a	n/a	n/a	n/a
12.6635	0.5167	FIXCROSS	n/a	n/a	n/a	n/a	n/a	n/a	n/a	n/a
13.1802	1.0334	T_INK	5	Incongruent	czerwony	red	niebieski	blue	hit	n/a
14.1917	n/a	RESPONSE	n/a	n/a	n/a	n/a	n/a	n/a	n/a	blue
14.2135	0.5167	FEEDBACK	n/a	n/a	n/a	n/a	n/a	n/a	n/a	n/a
14.7302	1.0166	ITI	n/a	n/a	n/a	n/a	n/a	n/a	n/a	n/a
15.7468	0.5167	FIXCROSS	n/a	n/a	n/a	n/a	n/a	n/a	n/a	n/a
16.2635	1.0667	T_INK	6	Incongruent	niebieski	blue	czerwony	red	hit	n/a
17.3046	n/a	RESPONSE	n/a	n/a	n/a	n/a	n/a	n/a	n/a	red
17.3302	0.5167	FEEDBACK	n/a	n/a	n/a	n/a	n/a	n/a	n/a	n/a
17.8469	1.0167	ITI	n/a	n/a	n/a	n/a	n/a	n/a	n/a	n/a
18.8636	0.5167	FIXCROSS	n/a	n/a	n/a	n/a	n/a	n/a	n/a	n/a
19.3802	0.7166	T_INK	7	Neutral	xxxxx	xxxxx	niebieski	blue	hit	n/a
20.0663	n/a	RESPONSE	n/a	n/a	n/a	n/a	n/a	n/a	n/a	blue
20.0969	0.5167	FEEDBACK	n/a	n/a	n/a	n/a	n/a	n/a	n/a	n/a
20.6135	1.0167	ITI	n/a	n/a	n/a	n/a	n/a	n/a	n/a	n/a
21.6302	0.5167	FIXCROSS	n/a	n/a	n/a	n/a	n/a	n/a	n/a	n/a
22.1469	0.8167	T_INK	8	Incongruent	zielony	green	czerwony	red	hit	n/a
22.9397	n/a	RESPONSE	n/a	n/a	n/a	n/a	n/a	n/a	n/a	red
22.9636	0.5167	FEEDBACK	n/a	n/a	n/a	n/a	n/a	n/a	n/a	n/a
23.4803	1.0167	ITI	n/a	n/a	n/a	n/a	n/a	n/a	n/a	n/a
24.4969	0.5167	FIXCROSS	n/a	n/a	n/a	n/a	n/a	n/a	n/a	n/a
25.0136	0.8667	T_INK	9	Neutral	xxxxx	xxxxx	zielony	green	hit	n/a
25.845	n/a	RESPONSE	n/a	n/a	n/a	n/a	n/a	n/a	n/a	green
25.8803	0.5167	FEEDBACK	n/a	n/a	n/a	n/a	n/a	n/a	n/a	n/a
26.3969	1.0166	ITI	n/a	n/a	n/a	n/a	n/a	n/a	n/a	n/a
27.4136	0.5167	FIXCROSS	n/a	n/a	n/a	n/a	n/a	n/a	n/a	n/a
27.9302	0.8167	T_INK	10	Neutral	xxxxxxx	xxxxxxx	żółty	yellow	hit	n/a
28.7186	n/a	RESPONSE	n/a	n/a	n/a	n/a	n/a	n/a	n/a	yellow
28.7469	0.5167	FEEDBACK	n/a	n/a	n/a	n/a	n/a	n/a	n/a	n/a
29.2636	1.0167	ITI	n/a	n/a	n/a	n/a	n/a	n/a	n/a	n/a
30.2803	0.5167	FIXCROSS	n/a	n/a	n/a	n/a	n/a	n/a	n/a	n/a
30.797	0.7	T_INK	11	Neutral	xxxxxxxx	xxxxxxxx	niebieski	blue	hit	n/a
31.4643	n/a	RESPONSE	n/a	n/a	n/a	n/a	n/a	n/a	n/a	blue
31.497	0.5167	FEEDBACK	n/a	n/a	n/a	n/a	n/a	n/a	n/a	n/a
32.0136	1.0167	ITI	n/a	n/a	n/a	n/a	n/a	n/a	n/a	n/a
33.0303	0.5167	FIXCROSS	n/a	n/a	n/a	n/a	n/a	n/a	n/a	n/a
33.547	1.3	T_INK	12	Incongruent	czerwony	red	żółty	yellow	hit	n/a
34.8166	n/a	RESPONSE	n/a	n/a	n/a	n/a	n/a	n/a	n/a	yellow
34.847	0.5167	FEEDBACK	n/a	n/a	n/a	n/a	n/a	n/a	n/a	n/a
35.3637	1.0333	ITI	n/a	n/a	n/a	n/a	n/a	n/a	n/a	n/a
42.4472	n/a	RESPONSE	n/a	n/a	n/a	n/a	n/a	n/a	n/a	n/a
42.5137	1.0166	ITI	n/a	n/a	n/a	n/a	n/a	n/a	n/a	n/a
43.5304	0.5167	FIXCROSS	n/a	n/a	n/a	n/a	n/a	n/a	n/a	n/a
44.0471	0.65	INK	1	Neutral	xxxxxxxx	xxxxxxxx	niebieski	blue	hit	n/a
44.6661	n/a	RESPONSE	n/a	n/a	n/a	n/a	n/a	n/a	n/a	blue
44.697	1.0167	ITI	n/a	n/a	n/a	n/a	n/a	n/a	n/a	n/a
45.7137	0.5167	FIXCROSS	n/a	n/a	n/a	n/a	n/a	n/a	n/a	n/a
46.2304	0.85	INK	2	Incongruent	niebieski	blue	żółty	yellow	hit	n/a
47.0606	n/a	RESPONSE	n/a	n/a	n/a	n/a	n/a	n/a	n/a	yellow
47.0804	1.0167	ITI	n/a	n/a	n/a	n/a	n/a	n/a	n/a	n/a
48.0971	0.5167	FIXCROSS	n/a	n/a	n/a	n/a	n/a	n/a	n/a	n/a
48.6138	0.65	INK	3	Incongruent	niebieski	blue	zielony	green	hit	n/a
49.2317	n/a	RESPONSE	n/a	n/a	n/a	n/a	n/a	n/a	n/a	green
49.2638	1.0167	ITI	n/a	n/a	n/a	n/a	n/a	n/a	n/a	n/a
50.2804	0.5167	FIXCROSS	n/a	n/a	n/a	n/a	n/a	n/a	n/a	n/a
50.7971	0.5833	INK	4	Neutral	xxxxxxxx	xxxxxxxx	żółty	yellow	hit	n/a
51.3548	n/a	RESPONSE	n/a	n/a	n/a	n/a	n/a	n/a	n/a	yellow
51.3805	1.0167	ITI	n/a	n/a	n/a	n/a	n/a	n/a	n/a	n/a
52.3971	0.5167	FIXCROSS	n/a	n/a	n/a	n/a	n/a	n/a	n/a	n/a
52.9138	0.65	INK	5	Neutral	xxxxxxxxx	xxxxxxxxx	czerwony	red	hit	n/a
53.5417	n/a	RESPONSE	n/a	n/a	n/a	n/a	n/a	n/a	n/a	red
53.5638	1.0167	ITI	n/a	n/a	n/a	n/a	n/a	n/a	n/a	n/a
54.5805	0.5166	FIXCROSS	n/a	n/a	n/a	n/a	n/a	n/a	n/a	n/a
55.0971	0.65	INK	6	Neutral	xxxxxxxxx	xxxxxxxxx	zielony	green	hit	n/a
55.7288	n/a	RESPONSE	n/a	n/a	n/a	n/a	n/a	n/a	n/a	green
55.7471	1.0167	ITI	n/a	n/a	n/a	n/a	n/a	n/a	n/a	n/a
56.7638	0.5167	FIXCROSS	n/a	n/a	n/a	n/a	n/a	n/a	n/a	n/a
57.2805	0.5	INK	7	Neutral	xxxxxxxxx	xxxxxxxxx	zielony	green	hit	n/a
57.7562	n/a	RESPONSE	n/a	n/a	n/a	n/a	n/a	n/a	n/a	green
57.7805	1.0166	ITI	n/a	n/a	n/a	n/a	n/a	n/a	n/a	n/a
58.7971	0.5167	FIXCROSS	n/a	n/a	n/a	n/a	n/a	n/a	n/a	n/a
59.3138	0.9667	INK	8	Incongruent	czerwony	red	żółty	yellow	hit	n/a
60.2465	n/a	RESPONSE	n/a	n/a	n/a	n/a	n/a	n/a	n/a	yellow
60.2805	1.0167	ITI	n/a	n/a	n/a	n/a	n/a	n/a	n/a	n/a
61.2972	0.5167	FIXCROSS	n/a	n/a	n/a	n/a	n/a	n/a	n/a	n/a
61.8138	0.8	INK	9	Neutral	xxxxxxxxx	xxxxxxxxx	żółty	yellow	hit	n/a
62.5931	n/a	RESPONSE	n/a	n/a	n/a	n/a	n/a	n/a	n/a	yellow
62.6139	1.0167	ITI	n/a	n/a	n/a	n/a	n/a	n/a	n/a	n/a
63.6305	0.5167	FIXCROSS	n/a	n/a	n/a	n/a	n/a	n/a	n/a	n/a
64.1472	0.7167	INK	10	Incongruent	zielony	green	czerwony	red	hit	n/a
64.844	n/a	RESPONSE	n/a	n/a	n/a	n/a	n/a	n/a	n/a	red
64.8639	1.0167	ITI	n/a	n/a	n/a	n/a	n/a	n/a	n/a	n/a
65.8805	0.5167	FIXCROSS	n/a	n/a	n/a	n/a	n/a	n/a	n/a	n/a
66.3972	0.8167	INK	11	Incongruent	zielony	green	niebieski	blue	hit	n/a
67.1906	n/a	RESPONSE	n/a	n/a	n/a	n/a	n/a	n/a	n/a	blue
67.2139	1.0166	ITI	n/a	n/a	n/a	n/a	n/a	n/a	n/a	n/a
68.2305	0.5167	FIXCROSS	n/a	n/a	n/a	n/a	n/a	n/a	n/a	n/a
68.7472	0.7333	INK	12	Neutral	xxxxx	xxxxx	niebieski	blue	hit	n/a
69.4575	n/a	RESPONSE	n/a	n/a	n/a	n/a	n/a	n/a	n/a	blue
69.4806	1.0167	ITI	n/a	n/a	n/a	n/a	n/a	n/a	n/a	n/a
70.4972	0.5167	FIXCROSS	n/a	n/a	n/a	n/a	n/a	n/a	n/a	n/a
71.0139	1.05	INK	13	Incongruent	czerwony	red	niebieski	blue	hit	n/a
72.0435	n/a	RESPONSE	n/a	n/a	n/a	n/a	n/a	n/a	n/a	blue
72.0639	1.0167	ITI	n/a	n/a	n/a	n/a	n/a	n/a	n/a	n/a
73.0806	0.5167	FIXCROSS	n/a	n/a	n/a	n/a	n/a	n/a	n/a	n/a
73.5973	0.9833	INK	14	Incongruent	czerwony	red	żółty	yellow	hit	n/a
74.5498	n/a	RESPONSE	n/a	n/a	n/a	n/a	n/a	n/a	n/a	yellow
74.5806	1.0167	ITI	n/a	n/a	n/a	n/a	n/a	n/a	n/a	n/a
75.5973	0.5167	FIXCROSS	n/a	n/a	n/a	n/a	n/a	n/a	n/a	n/a
76.114	0.9333	INK	15	Incongruent	czerwony	red	niebieski	blue	hit	n/a
77.0241	n/a	RESPONSE	n/a	n/a	n/a	n/a	n/a	n/a	n/a	blue
77.0473	1.0167	ITI	n/a	n/a	n/a	n/a	n/a	n/a	n/a	n/a
78.0639	0.5167	FIXCROSS	n/a	n/a	n/a	n/a	n/a	n/a	n/a	n/a
78.5806	0.6998	INK	16	Incongruent	niebieski	blue	czerwony	red	hit	n/a
79.259	n/a	RESPONSE	n/a	n/a	n/a	n/a	n/a	n/a	n/a	red
79.2805	1.0168	ITI	n/a	n/a	n/a	n/a	n/a	n/a	n/a	n/a
80.2973	0.5166	FIXCROSS	n/a	n/a	n/a	n/a	n/a	n/a	n/a	n/a
80.8139	0.8334	INK	17	Incongruent	żółty	yellow	zielony	green	hit	n/a
81.6216	n/a	RESPONSE	n/a	n/a	n/a	n/a	n/a	n/a	n/a	green
81.6473	1.0166	ITI	n/a	n/a	n/a	n/a	n/a	n/a	n/a	n/a
82.664	0.5167	FIXCROSS	n/a	n/a	n/a	n/a	n/a	n/a	n/a	n/a
83.1806	0.5667	INK	18	Neutral	xxxxxxxx	xxxxxxxx	zielony	green	hit	n/a
83.7288	n/a	RESPONSE	n/a	n/a	n/a	n/a	n/a	n/a	n/a	green
83.7473	1.0167	ITI	n/a	n/a	n/a	n/a	n/a	n/a	n/a	n/a
84.764	0.5167	FIXCROSS	n/a	n/a	n/a	n/a	n/a	n/a	n/a	n/a
85.2807	0.6833	INK	19	Neutral	xxxxxxxxx	xxxxxxxxx	czerwony	red	hit	n/a
85.9318	n/a	RESPONSE	n/a	n/a	n/a	n/a	n/a	n/a	n/a	red
85.964	1.0167	ITI	n/a	n/a	n/a	n/a	n/a	n/a	n/a	n/a
86.9807	0.5167	FIXCROSS	n/a	n/a	n/a	n/a	n/a	n/a	n/a	n/a
87.4974	0.7667	INK	20	Neutral	xxxxxxx	xxxxxxx	niebieski	blue	hit	n/a
88.2465	n/a	RESPONSE	n/a	n/a	n/a	n/a	n/a	n/a	n/a	blue
88.264	1.0167	ITI	n/a	n/a	n/a	n/a	n/a	n/a	n/a	n/a
89.2807	0.5167	FIXCROSS	n/a	n/a	n/a	n/a	n/a	n/a	n/a	n/a
89.7973	0.5834	INK	21	Neutral	xxxxxxx	xxxxxxx	niebieski	blue	hit	n/a
90.3536	n/a	RESPONSE	n/a	n/a	n/a	n/a	n/a	n/a	n/a	blue
90.3807	1.0167	ITI	n/a	n/a	n/a	n/a	n/a	n/a	n/a	n/a
91.3974	0.5166	FIXCROSS	n/a	n/a	n/a	n/a	n/a	n/a	n/a	n/a
91.914	0.8834	INK	22	Neutral	xxxxx	xxxxx	zielony	green	hit	n/a
92.7642	n/a	RESPONSE	n/a	n/a	n/a	n/a	n/a	n/a	n/a	green
92.7974	1.0167	ITI	n/a	n/a	n/a	n/a	n/a	n/a	n/a	n/a
93.8141	0.5166	FIXCROSS	n/a	n/a	n/a	n/a	n/a	n/a	n/a	n/a
94.3307	0.6667	INK	23	Neutral	xxxxxxxxx	xxxxxxxxx	żółty	yellow	hit	n/a
94.967	n/a	RESPONSE	n/a	n/a	n/a	n/a	n/a	n/a	n/a	yellow
94.9974	1.0167	ITI	n/a	n/a	n/a	n/a	n/a	n/a	n/a	n/a
96.0141	0.5166	FIXCROSS	n/a	n/a	n/a	n/a	n/a	n/a	n/a	n/a
96.5307	0.6834	INK	24	Neutral	xxxxxxx	xxxxxxx	czerwony	red	hit	n/a
97.186	n/a	RESPONSE	n/a	n/a	n/a	n/a	n/a	n/a	n/a	red
97.2141	1.0167	ITI	n/a	n/a	n/a	n/a	n/a	n/a	n/a	n/a
98.2308	0.5166	FIXCROSS	n/a	n/a	n/a	n/a	n/a	n/a	n/a	n/a
98.7474	0.7	INK	25	Neutral	xxxxxxxx	xxxxxxxx	niebieski	blue	hit	n/a
99.4208	n/a	RESPONSE	n/a	n/a	n/a	n/a	n/a	n/a	n/a	blue
99.4474	1.0167	ITI	n/a	n/a	n/a	n/a	n/a	n/a	n/a	n/a
100.4641	0.5167	FIXCROSS	n/a	n/a	n/a	n/a	n/a	n/a	n/a	n/a
100.9808	0.7667	INK	26	Incongruent	żółty	yellow	zielony	green	hit	n/a
101.7197	n/a	RESPONSE	n/a	n/a	n/a	n/a	n/a	n/a	n/a	green
101.7475	1.0167	ITI	n/a	n/a	n/a	n/a	n/a	n/a	n/a	n/a
102.7641	0.5166	FIXCROSS	n/a	n/a	n/a	n/a	n/a	n/a	n/a	n/a
103.2808	0.65	INK	27	Neutral	xxxxx	xxxxx	czerwony	red	hit	n/a
103.9066	n/a	RESPONSE	n/a	n/a	n/a	n/a	n/a	n/a	n/a	red
103.9308	1.0167	ITI	n/a	n/a	n/a	n/a	n/a	n/a	n/a	n/a
104.9475	0.5167	FIXCROSS	n/a	n/a	n/a	n/a	n/a	n/a	n/a	n/a
105.4641	0.75	INK	28	Neutral	xxxxxxx	xxxxxxx	żółty	yellow	hit	n/a
106.1894	n/a	RESPONSE	n/a	n/a	n/a	n/a	n/a	n/a	n/a	yellow
106.2142	1.0167	ITI	n/a	n/a	n/a	n/a	n/a	n/a	n/a	n/a
107.2308	0.5166	FIXCROSS	n/a	n/a	n/a	n/a	n/a	n/a	n/a	n/a
107.7475	0.75	INK	29	Incongruent	czerwony	red	niebieski	blue	hit	n/a
108.4722	n/a	RESPONSE	n/a	n/a	n/a	n/a	n/a	n/a	n/a	blue
108.4975	1.0166	ITI	n/a	n/a	n/a	n/a	n/a	n/a	n/a	n/a
109.5142	0.5167	FIXCROSS	n/a	n/a	n/a	n/a	n/a	n/a	n/a	n/a
110.0309	0.6167	INK	30	Neutral	xxxxx	xxxxx	zielony	green	hit	n/a
110.6274	n/a	RESPONSE	n/a	n/a	n/a	n/a	n/a	n/a	n/a	green
110.6475	1.0167	ITI	n/a	n/a	n/a	n/a	n/a	n/a	n/a	n/a
111.6642	0.5167	FIXCROSS	n/a	n/a	n/a	n/a	n/a	n/a	n/a	n/a
112.1809	0.6833	INK	31	Incongruent	zielony	green	żółty	yellow	hit	n/a
112.8462	n/a	RESPONSE	n/a	n/a	n/a	n/a	n/a	n/a	n/a	yellow
112.8642	1.0167	ITI	n/a	n/a	n/a	n/a	n/a	n/a	n/a	n/a
113.8809	0.5167	FIXCROSS	n/a	n/a	n/a	n/a	n/a	n/a	n/a	n/a
114.3975	0.6334	INK	32	Neutral	xxxxx	xxxxx	zielony	green	hit	n/a
115.0013	n/a	RESPONSE	n/a	n/a	n/a	n/a	n/a	n/a	n/a	green
115.0309	1.0167	ITI	n/a	n/a	n/a	n/a	n/a	n/a	n/a	n/a
116.0476	0.5167	FIXCROSS	n/a	n/a	n/a	n/a	n/a	n/a	n/a	n/a
116.5642	0.8167	INK	33	Incongruent	zielony	green	żółty	yellow	hit	n/a
117.3479	n/a	RESPONSE	n/a	n/a	n/a	n/a	n/a	n/a	n/a	yellow
117.3809	1.0167	ITI	n/a	n/a	n/a	n/a	n/a	n/a	n/a	n/a
118.3976	0.5167	FIXCROSS	n/a	n/a	n/a	n/a	n/a	n/a	n/a	n/a
118.9143	0.4167	INK	34	Neutral	xxxxx	xxxxx	czerwony	red	hit	n/a
119.3115	n/a	RESPONSE	n/a	n/a	n/a	n/a	n/a	n/a	n/a	red
119.3309	1.0166	ITI	n/a	n/a	n/a	n/a	n/a	n/a	n/a	n/a
120.3476	0.5167	FIXCROSS	n/a	n/a	n/a	n/a	n/a	n/a	n/a	n/a
120.8643	0.7	INK	35	Neutral	xxxxxxxx	xxxxxxxx	zielony	green	hit	n/a
121.5463	n/a	RESPONSE	n/a	n/a	n/a	n/a	n/a	n/a	n/a	green
121.5642	1.0159	ITI	n/a	n/a	n/a	n/a	n/a	n/a	n/a	n/a
122.5801	0.5175	FIXCROSS	n/a	n/a	n/a	n/a	n/a	n/a	n/a	n/a
123.0976	0.4667	INK	36	Neutral	xxxxx	xxxxx	niebieski	blue	hit	n/a
123.5417	n/a	RESPONSE	n/a	n/a	n/a	n/a	n/a	n/a	n/a	blue
123.5643	1.0167	ITI	n/a	n/a	n/a	n/a	n/a	n/a	n/a	n/a
124.581	0.5167	FIXCROSS	n/a	n/a	n/a	n/a	n/a	n/a	n/a	n/a
125.0976	0.7167	INK	37	Neutral	xxxxxxx	xxxxxxx	żółty	yellow	hit	n/a
125.7926	n/a	RESPONSE	n/a	n/a	n/a	n/a	n/a	n/a	n/a	yellow
125.8143	1.0167	ITI	n/a	n/a	n/a	n/a	n/a	n/a	n/a	n/a
126.831	0.5166	FIXCROSS	n/a	n/a	n/a	n/a	n/a	n/a	n/a	n/a
127.3476	0.7	INK	38	Incongruent	zielony	green	niebieski	blue	hit	n/a
128.0275	n/a	RESPONSE	n/a	n/a	n/a	n/a	n/a	n/a	n/a	blue
128.0476	1.0167	ITI	n/a	n/a	n/a	n/a	n/a	n/a	n/a	n/a
129.0643	0.5167	FIXCROSS	n/a	n/a	n/a	n/a	n/a	n/a	n/a	n/a
129.581	0.8333	INK	39	Incongruent	żółty	yellow	niebieski	blue	hit	n/a
130.3901	n/a	RESPONSE	n/a	n/a	n/a	n/a	n/a	n/a	n/a	blue
130.4143	1.0167	ITI	n/a	n/a	n/a	n/a	n/a	n/a	n/a	n/a
131.431	0.5167	FIXCROSS	n/a	n/a	n/a	n/a	n/a	n/a	n/a	n/a
131.9477	0.4167	INK	40	Neutral	xxxxxxxxx	xxxxxxxxx	zielony	green	hit	n/a
132.3376	n/a	RESPONSE	n/a	n/a	n/a	n/a	n/a	n/a	n/a	green
132.3643	1.0167	ITI	n/a	n/a	n/a	n/a	n/a	n/a	n/a	n/a
133.381	0.5167	FIXCROSS	n/a	n/a	n/a	n/a	n/a	n/a	n/a	n/a
133.8977	0.4	INK	41	Neutral	xxxxx	xxxxx	czerwony	red	hit	n/a
134.2693	n/a	RESPONSE	n/a	n/a	n/a	n/a	n/a	n/a	n/a	red
134.2977	1.0167	ITI	n/a	n/a	n/a	n/a	n/a	n/a	n/a	n/a
135.3144	0.5167	FIXCROSS	n/a	n/a	n/a	n/a	n/a	n/a	n/a	n/a
135.831	0.9667	INK	42	Incongruent	żółty	yellow	zielony	green	hit	n/a
136.7755	n/a	RESPONSE	n/a	n/a	n/a	n/a	n/a	n/a	n/a	green
136.7977	1.0166	ITI	n/a	n/a	n/a	n/a	n/a	n/a	n/a	n/a
137.8143	0.5167	FIXCROSS	n/a	n/a	n/a	n/a	n/a	n/a	n/a	n/a
138.331	0.3833	INK	43	Incongruent	zielony	green	niebieski	blue	hit	n/a
138.6913	n/a	RESPONSE	n/a	n/a	n/a	n/a	n/a	n/a	n/a	blue
138.7144	1.0167	ITI	n/a	n/a	n/a	n/a	n/a	n/a	n/a	n/a
139.7311	0.5167	FIXCROSS	n/a	n/a	n/a	n/a	n/a	n/a	n/a	n/a
140.2477	0.7166	INK	44	Incongruent	czerwony	red	zielony	green	hit	n/a
140.9421	n/a	RESPONSE	n/a	n/a	n/a	n/a	n/a	n/a	n/a	green
140.9644	1.0167	ITI	n/a	n/a	n/a	n/a	n/a	n/a	n/a	n/a
141.9811	0.5167	FIXCROSS	n/a	n/a	n/a	n/a	n/a	n/a	n/a	n/a
142.4977	0.5333	INK	45	Neutral	xxxxxxxx	xxxxxxxx	żółty	yellow	hit	n/a
143.0013	n/a	RESPONSE	n/a	n/a	n/a	n/a	n/a	n/a	n/a	yellow
143.0311	1.0167	ITI	n/a	n/a	n/a	n/a	n/a	n/a	n/a	n/a
144.0478	0.5167	FIXCROSS	n/a	n/a	n/a	n/a	n/a	n/a	n/a	n/a
144.5644	0.65	INK	46	Incongruent	żółty	yellow	niebieski	blue	hit	n/a
145.1884	n/a	RESPONSE	n/a	n/a	n/a	n/a	n/a	n/a	n/a	blue
145.2144	1.0166	ITI	n/a	n/a	n/a	n/a	n/a	n/a	n/a	n/a
146.2311	0.5167	FIXCROSS	n/a	n/a	n/a	n/a	n/a	n/a	n/a	n/a
146.7477	1.3	INK	47	Incongruent	czerwony	red	zielony	green	hit	n/a
148.0139	n/a	RESPONSE	n/a	n/a	n/a	n/a	n/a	n/a	n/a	green
148.0478	1.0167	ITI	n/a	n/a	n/a	n/a	n/a	n/a	n/a	n/a
149.0645	0.5167	FIXCROSS	n/a	n/a	n/a	n/a	n/a	n/a	n/a	n/a
149.5811	0.5833	INK	48	Incongruent	zielony	green	czerwony	red	hit	n/a
150.1371	n/a	RESPONSE	n/a	n/a	n/a	n/a	n/a	n/a	n/a	red
150.1644	1.0167	ITI	n/a	n/a	n/a	n/a	n/a	n/a	n/a	n/a
151.1811	0.5166	FIXCROSS	n/a	n/a	n/a	n/a	n/a	n/a	n/a	n/a
151.6978	0.9333	INK	49	Incongruent	czerwony	red	zielony	green	hit	n/a
152.6115	n/a	RESPONSE	n/a	n/a	n/a	n/a	n/a	n/a	n/a	green
152.6311	1.0167	ITI	n/a	n/a	n/a	n/a	n/a	n/a	n/a	n/a
153.6478	0.5167	FIXCROSS	n/a	n/a	n/a	n/a	n/a	n/a	n/a	n/a
154.1645	0.5833	INK	50	Neutral	xxxxx	xxxxx	niebieski	blue	hit	n/a
154.7185	n/a	RESPONSE	n/a	n/a	n/a	n/a	n/a	n/a	n/a	blue
154.7478	1.0167	ITI	n/a	n/a	n/a	n/a	n/a	n/a	n/a	n/a
155.7645	0.5167	FIXCROSS	n/a	n/a	n/a	n/a	n/a	n/a	n/a	n/a
156.2812	0.5667	INK	51	Neutral	xxxxxxxx	xxxxxxxx	żółty	yellow	hit	n/a
156.8258	n/a	RESPONSE	n/a	n/a	n/a	n/a	n/a	n/a	n/a	yellow
156.8478	1.0167	ITI	n/a	n/a	n/a	n/a	n/a	n/a	n/a	n/a
157.8645	0.5166	FIXCROSS	n/a	n/a	n/a	n/a	n/a	n/a	n/a	n/a
158.3812	0.9333	INK	52	Incongruent	niebieski	blue	czerwony	red	hit	n/a
159.2841	n/a	RESPONSE	n/a	n/a	n/a	n/a	n/a	n/a	n/a	red
159.3145	1.0167	ITI	n/a	n/a	n/a	n/a	n/a	n/a	n/a	n/a
160.3312	0.5167	FIXCROSS	n/a	n/a	n/a	n/a	n/a	n/a	n/a	n/a
160.8479	0.6167	INK	53	Neutral	xxxxxxxx	xxxxxxxx	zielony	green	hit	n/a
161.4393	n/a	RESPONSE	n/a	n/a	n/a	n/a	n/a	n/a	n/a	green
161.4645	1.0166	ITI	n/a	n/a	n/a	n/a	n/a	n/a	n/a	n/a
162.4812	0.5167	FIXCROSS	n/a	n/a	n/a	n/a	n/a	n/a	n/a	n/a
162.9978	0.7167	INK	54	Incongruent	niebieski	blue	żółty	yellow	hit	n/a
163.6902	n/a	RESPONSE	n/a	n/a	n/a	n/a	n/a	n/a	n/a	yellow
163.7146	1.0166	ITI	n/a	n/a	n/a	n/a	n/a	n/a	n/a	n/a
164.7312	0.5167	FIXCROSS	n/a	n/a	n/a	n/a	n/a	n/a	n/a	n/a
165.2479	0.8667	INK	55	Incongruent	zielony	green	czerwony	red	hit	n/a
166.0847	n/a	RESPONSE	n/a	n/a	n/a	n/a	n/a	n/a	n/a	red
166.1146	1.0167	ITI	n/a	n/a	n/a	n/a	n/a	n/a	n/a	n/a
167.1312	0.5167	FIXCROSS	n/a	n/a	n/a	n/a	n/a	n/a	n/a	n/a
167.6479	0.5167	INK	56	Incongruent	żółty	yellow	czerwony	red	hit	n/a
168.144	n/a	RESPONSE	n/a	n/a	n/a	n/a	n/a	n/a	n/a	red
168.1646	1.0167	ITI	n/a	n/a	n/a	n/a	n/a	n/a	n/a	n/a
169.1813	0.5167	FIXCROSS	n/a	n/a	n/a	n/a	n/a	n/a	n/a	n/a
169.6979	0.75	INK	57	Incongruent	niebieski	blue	żółty	yellow	hit	n/a
170.4267	n/a	RESPONSE	n/a	n/a	n/a	n/a	n/a	n/a	n/a	yellow
170.4479	1.0167	ITI	n/a	n/a	n/a	n/a	n/a	n/a	n/a	n/a
171.4646	0.5167	FIXCROSS	n/a	n/a	n/a	n/a	n/a	n/a	n/a	n/a
171.9813	0.5167	INK	58	Incongruent	żółty	yellow	czerwony	red	hit	n/a
172.4701	n/a	RESPONSE	n/a	n/a	n/a	n/a	n/a	n/a	n/a	red
172.498	1.0167	ITI	n/a	n/a	n/a	n/a	n/a	n/a	n/a	n/a
173.5146	0.5167	FIXCROSS	n/a	n/a	n/a	n/a	n/a	n/a	n/a	n/a
174.0313	0.8167	INK	59	Incongruent	czerwony	red	żółty	yellow	hit	n/a
174.8169	n/a	RESPONSE	n/a	n/a	n/a	n/a	n/a	n/a	n/a	yellow
174.848	1.0166	ITI	n/a	n/a	n/a	n/a	n/a	n/a	n/a	n/a
175.8646	0.5167	FIXCROSS	n/a	n/a	n/a	n/a	n/a	n/a	n/a	n/a
176.3813	0.6667	INK	60	Incongruent	niebieski	blue	czerwony	red	hit	n/a
177.0197	n/a	RESPONSE	n/a	n/a	n/a	n/a	n/a	n/a	n/a	red
177.048	1.0167	ITI	n/a	n/a	n/a	n/a	n/a	n/a	n/a	n/a
178.0647	0.5	FIXCROSS	n/a	n/a	n/a	n/a	n/a	n/a	n/a	n/a
178.5647	0.3833	INK	61	Incongruent	zielony	green	żółty	yellow	hit	n/a
178.9193	n/a	RESPONSE	n/a	n/a	n/a	n/a	n/a	n/a	n/a	yellow
178.948	1.0167	ITI	n/a	n/a	n/a	n/a	n/a	n/a	n/a	n/a
179.9647	0.5166	FIXCROSS	n/a	n/a	n/a	n/a	n/a	n/a	n/a	n/a
180.4813	0.4333	INK	62	Neutral	xxxxxxxxx	xxxxxxxxx	czerwony	red	hit	n/a
180.8828	n/a	RESPONSE	n/a	n/a	n/a	n/a	n/a	n/a	n/a	red
180.9146	1.0167	ITI	n/a	n/a	n/a	n/a	n/a	n/a	n/a	n/a
181.9313	0.5167	FIXCROSS	n/a	n/a	n/a	n/a	n/a	n/a	n/a	n/a
182.448	0.6167	INK	63	Incongruent	niebieski	blue	zielony	green	hit	n/a
183.0379	n/a	RESPONSE	n/a	n/a	n/a	n/a	n/a	n/a	n/a	green
183.0647	1.0166	ITI	n/a	n/a	n/a	n/a	n/a	n/a	n/a	n/a
184.0813	0.5167	FIXCROSS	n/a	n/a	n/a	n/a	n/a	n/a	n/a	n/a
184.598	1.0	INK	64	Incongruent	niebieski	blue	zielony	green	hit	n/a
185.5761	n/a	RESPONSE	n/a	n/a	n/a	n/a	n/a	n/a	n/a	green
185.598	1.0167	ITI	n/a	n/a	n/a	n/a	n/a	n/a	n/a	n/a
186.6147	0.5167	FIXCROSS	n/a	n/a	n/a	n/a	n/a	n/a	n/a	n/a
187.1314	0.3833	INK	65	Neutral	xxxxxxxx	xxxxxxxx	niebieski	blue	hit	n/a
187.4917	n/a	RESPONSE	n/a	n/a	n/a	n/a	n/a	n/a	n/a	blue
187.5147	1.0167	ITI	n/a	n/a	n/a	n/a	n/a	n/a	n/a	n/a
188.5314	0.5167	FIXCROSS	n/a	n/a	n/a	n/a	n/a	n/a	n/a	n/a
189.048	0.7834	INK	66	Neutral	xxxxxxx	xxxxxxx	żółty	yellow	hit	n/a
189.8064	n/a	RESPONSE	n/a	n/a	n/a	n/a	n/a	n/a	n/a	yellow
189.8314	1.0167	ITI	n/a	n/a	n/a	n/a	n/a	n/a	n/a	n/a
190.8481	0.5167	FIXCROSS	n/a	n/a	n/a	n/a	n/a	n/a	n/a	n/a
191.3648	0.4667	INK	67	Neutral	xxxxxxx	xxxxxxx	czerwony	red	hit	n/a
191.8019	n/a	RESPONSE	n/a	n/a	n/a	n/a	n/a	n/a	n/a	red
191.8314	1.0167	ITI	n/a	n/a	n/a	n/a	n/a	n/a	n/a	n/a
192.8481	0.5167	FIXCROSS	n/a	n/a	n/a	n/a	n/a	n/a	n/a	n/a
193.3648	0.8334	INK	68	Incongruent	żółty	yellow	niebieski	blue	hit	n/a
194.1645	n/a	RESPONSE	n/a	n/a	n/a	n/a	n/a	n/a	n/a	blue
194.1981	1.0166	ITI	n/a	n/a	n/a	n/a	n/a	n/a	n/a	n/a
195.2148	0.5167	FIXCROSS	n/a	n/a	n/a	n/a	n/a	n/a	n/a	n/a
195.7314	0.75	INK	69	Neutral	xxxxxxx	xxxxxxx	niebieski	blue	hit	n/a
196.4632	n/a	RESPONSE	n/a	n/a	n/a	n/a	n/a	n/a	n/a	blue
196.4815	1.0166	ITI	n/a	n/a	n/a	n/a	n/a	n/a	n/a	n/a
197.4981	0.5167	FIXCROSS	n/a	n/a	n/a	n/a	n/a	n/a	n/a	n/a
198.0148	0.7167	INK	70	Neutral	xxxxxxx	xxxxxxx	czerwony	red	hit	n/a
198.7141	n/a	RESPONSE	n/a	n/a	n/a	n/a	n/a	n/a	n/a	red
198.7315	1.0166	ITI	n/a	n/a	n/a	n/a	n/a	n/a	n/a	n/a
199.7481	0.5167	FIXCROSS	n/a	n/a	n/a	n/a	n/a	n/a	n/a	n/a
200.2648	0.6667	INK	71	Incongruent	żółty	yellow	czerwony	red	hit	n/a
200.9011	n/a	RESPONSE	n/a	n/a	n/a	n/a	n/a	n/a	n/a	red
200.9315	1.0166	ITI	n/a	n/a	n/a	n/a	n/a	n/a	n/a	n/a
201.9481	0.5167	FIXCROSS	n/a	n/a	n/a	n/a	n/a	n/a	n/a	n/a
202.4648	0.85	INK	72	Neutral	xxxxxxxxx	xxxxxxxxx	żółty	yellow	hit	n/a
203.2957	n/a	RESPONSE	n/a	n/a	n/a	n/a	n/a	n/a	n/a	yellow
203.3148	1.0833	ITI	n/a	n/a	n/a	n/a	n/a	n/a	n/a	n/a
243.7791	n/a	RESPONSE	n/a	n/a	n/a	n/a	n/a	n/a	n/a	n/a
243.8484	1.0167	ITI	n/a	n/a	n/a	n/a	n/a	n/a	n/a	n/a
244.8651	0.5167	FIXCROSS	n/a	n/a	n/a	n/a	n/a	n/a	n/a	n/a
245.3818	1.3667	T_COLOR_NAME	1	Incongruent	żółty	yellow	niebieski	blue	hit	n/a
246.7165	n/a	RESPONSE	n/a	n/a	n/a	n/a	n/a	n/a	n/a	yellow
246.7485	0.5167	FEEDBACK	n/a	n/a	n/a	n/a	n/a	n/a	n/a	n/a
247.2651	1.0166	ITI	n/a	n/a	n/a	n/a	n/a	n/a	n/a	n/a
248.2818	0.5167	FIXCROSS	n/a	n/a	n/a	n/a	n/a	n/a	n/a	n/a
248.7985	1.1333	T_COLOR_NAME	2	Neutral	zielony	green	Neutral	Neutral	hit	n/a
249.9092	n/a	RESPONSE	n/a	n/a	n/a	n/a	n/a	n/a	n/a	green
249.9318	0.5167	FEEDBACK	n/a	n/a	n/a	n/a	n/a	n/a	n/a	n/a
250.4485	1.0167	ITI	n/a	n/a	n/a	n/a	n/a	n/a	n/a	n/a
251.4651	0.5167	FIXCROSS	n/a	n/a	n/a	n/a	n/a	n/a	n/a	n/a
251.9818	1.4333	T_COLOR_NAME	3	Incongruent	niebieski	blue	żółty	yellow	hit	n/a
253.3893	n/a	RESPONSE	n/a	n/a	n/a	n/a	n/a	n/a	n/a	blue
253.4152	0.5166	FEEDBACK	n/a	n/a	n/a	n/a	n/a	n/a	n/a	n/a
253.9318	1.0167	ITI	n/a	n/a	n/a	n/a	n/a	n/a	n/a	n/a
254.9485	0.5167	FIXCROSS	n/a	n/a	n/a	n/a	n/a	n/a	n/a	n/a
255.4652	0.6	T_COLOR_NAME	4	Neutral	niebieski	blue	Neutral	Neutral	hit	n/a
256.0394	n/a	RESPONSE	n/a	n/a	n/a	n/a	n/a	n/a	n/a	blue
256.0652	0.5166	FEEDBACK	n/a	n/a	n/a	n/a	n/a	n/a	n/a	n/a
256.5818	1.0167	ITI	n/a	n/a	n/a	n/a	n/a	n/a	n/a	n/a
257.5985	0.5167	FIXCROSS	n/a	n/a	n/a	n/a	n/a	n/a	n/a	n/a
258.1152	1.2666	T_COLOR_NAME	5	Incongruent	niebieski	blue	czerwony	red	hit	n/a
259.3598	n/a	RESPONSE	n/a	n/a	n/a	n/a	n/a	n/a	n/a	blue
259.3819	0.5167	FEEDBACK	n/a	n/a	n/a	n/a	n/a	n/a	n/a	n/a
259.8985	1.0167	ITI	n/a	n/a	n/a	n/a	n/a	n/a	n/a	n/a
260.9152	0.5167	FIXCROSS	n/a	n/a	n/a	n/a	n/a	n/a	n/a	n/a
261.4319	0.6333	T_COLOR_NAME	6	Incongruent	czerwony	red	żółty	yellow	hit	n/a
262.0417	n/a	RESPONSE	n/a	n/a	n/a	n/a	n/a	n/a	n/a	red
262.0652	0.5166	FEEDBACK	n/a	n/a	n/a	n/a	n/a	n/a	n/a	n/a
262.5819	1.0167	ITI	n/a	n/a	n/a	n/a	n/a	n/a	n/a	n/a
263.5986	0.5167	FIXCROSS	n/a	n/a	n/a	n/a	n/a	n/a	n/a	n/a
264.1153	0.9166	T_COLOR_NAME	7	Incongruent	zielony	green	czerwony	red	hit	n/a
265.0109	n/a	RESPONSE	n/a	n/a	n/a	n/a	n/a	n/a	n/a	green
265.0319	0.5167	FEEDBACK	n/a	n/a	n/a	n/a	n/a	n/a	n/a	n/a
265.5486	1.0167	ITI	n/a	n/a	n/a	n/a	n/a	n/a	n/a	n/a
266.5653	0.5167	FIXCROSS	n/a	n/a	n/a	n/a	n/a	n/a	n/a	n/a
267.0819	1.55	T_COLOR_NAME	8	Incongruent	czerwony	red	niebieski	blue	hit	n/a
268.6027	n/a	RESPONSE	n/a	n/a	n/a	n/a	n/a	n/a	n/a	red
268.632	0.5166	FEEDBACK	n/a	n/a	n/a	n/a	n/a	n/a	n/a	n/a
269.1486	1.0167	ITI	n/a	n/a	n/a	n/a	n/a	n/a	n/a	n/a
270.1653	0.5167	FIXCROSS	n/a	n/a	n/a	n/a	n/a	n/a	n/a	n/a
270.682	0.6167	T_COLOR_NAME	9	Neutral	czerwony	red	Neutral	Neutral	hit	n/a
271.2686	n/a	RESPONSE	n/a	n/a	n/a	n/a	n/a	n/a	n/a	red
271.2986	0.5167	FEEDBACK	n/a	n/a	n/a	n/a	n/a	n/a	n/a	n/a
271.8153	1.0167	ITI	n/a	n/a	n/a	n/a	n/a	n/a	n/a	n/a
272.832	0.5167	FIXCROSS	n/a	n/a	n/a	n/a	n/a	n/a	n/a	n/a
273.3487	0.6833	T_COLOR_NAME	10	Neutral	żółty	yellow	Neutral	Neutral	hit	n/a
273.9983	n/a	RESPONSE	n/a	n/a	n/a	n/a	n/a	n/a	n/a	yellow
274.032	0.5167	FEEDBACK	n/a	n/a	n/a	n/a	n/a	n/a	n/a	n/a
274.5487	1.0167	ITI	n/a	n/a	n/a	n/a	n/a	n/a	n/a	n/a
275.5653	0.5167	FIXCROSS	n/a	n/a	n/a	n/a	n/a	n/a	n/a	n/a
276.082	1.1167	T_COLOR_NAME	11	Neutral	żółty	yellow	Neutral	Neutral	hit	n/a
277.1751	n/a	RESPONSE	n/a	n/a	n/a	n/a	n/a	n/a	n/a	yellow
277.1987	0.5167	FEEDBACK	n/a	n/a	n/a	n/a	n/a	n/a	n/a	n/a
277.7154	1.0167	ITI	n/a	n/a	n/a	n/a	n/a	n/a	n/a	n/a
278.732	0.5167	FIXCROSS	n/a	n/a	n/a	n/a	n/a	n/a	n/a	n/a
279.2487	0.6167	T_COLOR_NAME	12	Neutral	żółty	yellow	Neutral	Neutral	hit	n/a
279.8409	n/a	RESPONSE	n/a	n/a	n/a	n/a	n/a	n/a	n/a	yellow
279.8654	0.5166	FEEDBACK	n/a	n/a	n/a	n/a	n/a	n/a	n/a	n/a
280.382	1.0333	ITI	n/a	n/a	n/a	n/a	n/a	n/a	n/a	n/a
283.752	n/a	RESPONSE	n/a	n/a	n/a	n/a	n/a	n/a	n/a	n/a
283.8154	1.0167	ITI	n/a	n/a	n/a	n/a	n/a	n/a	n/a	n/a
284.8321	0.5167	FIXCROSS	n/a	n/a	n/a	n/a	n/a	n/a	n/a	n/a
285.3487	0.7833	COLOR_NAME	1	Neutral	niebieski	blue	Neutral	Neutral	hit	n/a
286.1146	n/a	RESPONSE	n/a	n/a	n/a	n/a	n/a	n/a	n/a	blue
286.1321	1.0167	ITI	n/a	n/a	n/a	n/a	n/a	n/a	n/a	n/a
287.1487	0.5166	FIXCROSS	n/a	n/a	n/a	n/a	n/a	n/a	n/a	n/a
287.6654	0.4667	COLOR_NAME	2	Neutral	niebieski	blue	Neutral	Neutral	hit	n/a
288.1101	n/a	RESPONSE	n/a	n/a	n/a	n/a	n/a	n/a	n/a	blue
288.1321	1.0167	ITI	n/a	n/a	n/a	n/a	n/a	n/a	n/a	n/a
289.1488	0.5167	FIXCROSS	n/a	n/a	n/a	n/a	n/a	n/a	n/a	n/a
289.6654	0.8333	COLOR_NAME	3	Neutral	zielony	green	Neutral	Neutral	hit	n/a
290.4727	n/a	RESPONSE	n/a	n/a	n/a	n/a	n/a	n/a	n/a	green
290.4987	1.0167	ITI	n/a	n/a	n/a	n/a	n/a	n/a	n/a	n/a
291.5154	0.5167	FIXCROSS	n/a	n/a	n/a	n/a	n/a	n/a	n/a	n/a
292.0321	0.5333	COLOR_NAME	4	Neutral	zielony	green	Neutral	Neutral	hit	n/a
292.532	n/a	RESPONSE	n/a	n/a	n/a	n/a	n/a	n/a	n/a	green
292.5654	1.0167	ITI	n/a	n/a	n/a	n/a	n/a	n/a	n/a	n/a
293.5821	0.5166	FIXCROSS	n/a	n/a	n/a	n/a	n/a	n/a	n/a	n/a
294.0988	0.8167	COLOR_NAME	5	Neutral	żółty	yellow	Neutral	Neutral	hit	n/a
294.8947	n/a	RESPONSE	n/a	n/a	n/a	n/a	n/a	n/a	n/a	yellow
294.9155	1.0167	ITI	n/a	n/a	n/a	n/a	n/a	n/a	n/a	n/a
295.9321	0.5167	FIXCROSS	n/a	n/a	n/a	n/a	n/a	n/a	n/a	n/a
296.4488	0.7	COLOR_NAME	6	Neutral	zielony	green	Neutral	Neutral	hit	n/a
297.1296	n/a	RESPONSE	n/a	n/a	n/a	n/a	n/a	n/a	n/a	green
297.1488	1.0166	ITI	n/a	n/a	n/a	n/a	n/a	n/a	n/a	n/a
298.1655	0.5167	FIXCROSS	n/a	n/a	n/a	n/a	n/a	n/a	n/a	n/a
298.6822	1.2166	COLOR_NAME	7	Incongruent	żółty	yellow	czerwony	red	hit	n/a
299.8753	n/a	RESPONSE	n/a	n/a	n/a	n/a	n/a	n/a	n/a	yellow
299.8988	1.0167	ITI	n/a	n/a	n/a	n/a	n/a	n/a	n/a	n/a
300.9155	0.5167	FIXCROSS	n/a	n/a	n/a	n/a	n/a	n/a	n/a	n/a
301.4322	0.65	COLOR_NAME	8	Neutral	niebieski	blue	Neutral	Neutral	hit	n/a
302.0463	n/a	RESPONSE	n/a	n/a	n/a	n/a	n/a	n/a	n/a	blue
302.0822	1.0167	ITI	n/a	n/a	n/a	n/a	n/a	n/a	n/a	n/a
303.0989	0.5167	FIXCROSS	n/a	n/a	n/a	n/a	n/a	n/a	n/a	n/a
303.6155	0.85	COLOR_NAME	9	Incongruent	czerwony	red	zielony	green	hit	n/a
304.4408	n/a	RESPONSE	n/a	n/a	n/a	n/a	n/a	n/a	n/a	red
304.4655	1.0167	ITI	n/a	n/a	n/a	n/a	n/a	n/a	n/a	n/a
305.4822	0.5167	FIXCROSS	n/a	n/a	n/a	n/a	n/a	n/a	n/a	n/a
305.9989	1.3	COLOR_NAME	10	Incongruent	żółty	yellow	zielony	green	hit	n/a
307.2664	n/a	RESPONSE	n/a	n/a	n/a	n/a	n/a	n/a	n/a	yellow
307.2989	1.0167	ITI	n/a	n/a	n/a	n/a	n/a	n/a	n/a	n/a
308.3156	0.5167	FIXCROSS	n/a	n/a	n/a	n/a	n/a	n/a	n/a	n/a
308.8322	0.8667	COLOR_NAME	11	Incongruent	niebieski	blue	czerwony	red	hit	n/a
309.6768	n/a	RESPONSE	n/a	n/a	n/a	n/a	n/a	n/a	n/a	blue
309.6989	1.0167	ITI	n/a	n/a	n/a	n/a	n/a	n/a	n/a	n/a
310.7156	0.5166	FIXCROSS	n/a	n/a	n/a	n/a	n/a	n/a	n/a	n/a
311.2322	0.95	COLOR_NAME	12	Neutral	żółty	yellow	Neutral	Neutral	hit	n/a
312.1512	n/a	RESPONSE	n/a	n/a	n/a	n/a	n/a	n/a	n/a	yellow
312.1823	1.0166	ITI	n/a	n/a	n/a	n/a	n/a	n/a	n/a	n/a
313.1989	0.5167	FIXCROSS	n/a	n/a	n/a	n/a	n/a	n/a	n/a	n/a
313.7156	1.1833	COLOR_NAME	13	Neutral	czerwony	red	Neutral	Neutral	hit	n/a
314.8651	n/a	RESPONSE	n/a	n/a	n/a	n/a	n/a	n/a	n/a	red
314.8989	1.0167	ITI	n/a	n/a	n/a	n/a	n/a	n/a	n/a	n/a
315.9156	0.5167	FIXCROSS	n/a	n/a	n/a	n/a	n/a	n/a	n/a	n/a
316.4323	1.05	COLOR_NAME	14	Neutral	czerwony	red	Neutral	Neutral	hit	n/a
317.4511	n/a	RESPONSE	n/a	n/a	n/a	n/a	n/a	n/a	n/a	red
317.4823	1.0167	ITI	n/a	n/a	n/a	n/a	n/a	n/a	n/a	n/a
318.499	0.5167	FIXCROSS	n/a	n/a	n/a	n/a	n/a	n/a	n/a	n/a
319.0156	1.7667	COLOR_NAME	15	Incongruent	zielony	green	żółty	yellow	hit	n/a
320.7556	n/a	RESPONSE	n/a	n/a	n/a	n/a	n/a	n/a	n/a	green
320.7823	1.0167	ITI	n/a	n/a	n/a	n/a	n/a	n/a	n/a	n/a
321.799	0.5167	FIXCROSS	n/a	n/a	n/a	n/a	n/a	n/a	n/a	n/a
322.3157	0.75	COLOR_NAME	16	Incongruent	czerwony	red	żółty	yellow	hit	n/a
323.0384	n/a	RESPONSE	n/a	n/a	n/a	n/a	n/a	n/a	n/a	red
323.0657	1.0167	ITI	n/a	n/a	n/a	n/a	n/a	n/a	n/a	n/a
324.0823	0.5167	FIXCROSS	n/a	n/a	n/a	n/a	n/a	n/a	n/a	n/a
324.599	0.6833	COLOR_NAME	17	Incongruent	niebieski	blue	żółty	yellow	hit	n/a
325.2574	n/a	RESPONSE	n/a	n/a	n/a	n/a	n/a	n/a	n/a	blue
325.2823	1.0166	ITI	n/a	n/a	n/a	n/a	n/a	n/a	n/a	n/a
326.299	0.5167	FIXCROSS	n/a	n/a	n/a	n/a	n/a	n/a	n/a	n/a
326.8157	1.05	COLOR_NAME	18	Incongruent	zielony	green	niebieski	blue	hit	n/a
327.8434	n/a	RESPONSE	n/a	n/a	n/a	n/a	n/a	n/a	n/a	green
327.8657	1.0167	ITI	n/a	n/a	n/a	n/a	n/a	n/a	n/a	n/a
328.8824	0.5167	FIXCROSS	n/a	n/a	n/a	n/a	n/a	n/a	n/a	n/a
329.399	0.75	COLOR_NAME	19	Incongruent	czerwony	red	niebieski	blue	hit	n/a
330.1262	n/a	RESPONSE	n/a	n/a	n/a	n/a	n/a	n/a	n/a	red
330.149	1.0167	ITI	n/a	n/a	n/a	n/a	n/a	n/a	n/a	n/a
331.1657	0.5167	FIXCROSS	n/a	n/a	n/a	n/a	n/a	n/a	n/a	n/a
331.6824	1.4666	COLOR_NAME	20	Incongruent	zielony	green	czerwony	red	hit	n/a
333.1273	n/a	RESPONSE	n/a	n/a	n/a	n/a	n/a	n/a	n/a	green
333.149	1.0167	ITI	n/a	n/a	n/a	n/a	n/a	n/a	n/a	n/a
334.1657	0.5167	FIXCROSS	n/a	n/a	n/a	n/a	n/a	n/a	n/a	n/a
334.6824	0.7333	COLOR_NAME	21	Incongruent	zielony	green	niebieski	blue	hit	n/a
335.3942	n/a	RESPONSE	n/a	n/a	n/a	n/a	n/a	n/a	n/a	green
335.4157	1.0167	ITI	n/a	n/a	n/a	n/a	n/a	n/a	n/a	n/a
336.4324	0.5166	FIXCROSS	n/a	n/a	n/a	n/a	n/a	n/a	n/a	n/a
336.9491	0.7667	COLOR_NAME	22	Incongruent	czerwony	red	żółty	yellow	hit	n/a
337.6929	n/a	RESPONSE	n/a	n/a	n/a	n/a	n/a	n/a	n/a	red
337.7158	1.0167	ITI	n/a	n/a	n/a	n/a	n/a	n/a	n/a	n/a
338.7324	0.5166	FIXCROSS	n/a	n/a	n/a	n/a	n/a	n/a	n/a	n/a
339.2491	0.65	COLOR_NAME	23	Neutral	czerwony	red	Neutral	Neutral	hit	n/a
339.8798	n/a	RESPONSE	n/a	n/a	n/a	n/a	n/a	n/a	n/a	red
339.8991	1.0167	ITI	n/a	n/a	n/a	n/a	n/a	n/a	n/a	n/a
340.9158	0.5167	FIXCROSS	n/a	n/a	n/a	n/a	n/a	n/a	n/a	n/a
341.4325	1.0667	COLOR_NAME	24	Neutral	niebieski	blue	Neutral	Neutral	hit	n/a
342.466	n/a	RESPONSE	n/a	n/a	n/a	n/a	n/a	n/a	n/a	blue
342.4991	1.0167	ITI	n/a	n/a	n/a	n/a	n/a	n/a	n/a	n/a
343.5158	0.5166	FIXCROSS	n/a	n/a	n/a	n/a	n/a	n/a	n/a	n/a
344.0324	3.8001	COLOR_NAME	25	Incongruent	żółty	yellow	niebieski	blue	hit	n/a
347.8137	n/a	RESPONSE	n/a	n/a	n/a	n/a	n/a	n/a	n/a	yellow
347.8325	1.0167	ITI	n/a	n/a	n/a	n/a	n/a	n/a	n/a	n/a
348.8492	0.5167	FIXCROSS	n/a	n/a	n/a	n/a	n/a	n/a	n/a	n/a
349.3658	0.7833	COLOR_NAME	26	Incongruent	niebieski	blue	czerwony	red	hit	n/a
350.1285	n/a	RESPONSE	n/a	n/a	n/a	n/a	n/a	n/a	n/a	blue
350.1492	1.0167	ITI	n/a	n/a	n/a	n/a	n/a	n/a	n/a	n/a
351.1659	0.5167	FIXCROSS	n/a	n/a	n/a	n/a	n/a	n/a	n/a	n/a
351.6825	1.2667	COLOR_NAME	27	Neutral	żółty	yellow	Neutral	Neutral	hit	n/a
352.922	n/a	RESPONSE	n/a	n/a	n/a	n/a	n/a	n/a	n/a	yellow
352.9492	1.0166	ITI	n/a	n/a	n/a	n/a	n/a	n/a	n/a	n/a
353.9658	0.5167	FIXCROSS	n/a	n/a	n/a	n/a	n/a	n/a	n/a	n/a
354.4825	1.05	COLOR_NAME	28	Neutral	żółty	yellow	Neutral	Neutral	hit	n/a
355.5082	n/a	RESPONSE	n/a	n/a	n/a	n/a	n/a	n/a	n/a	yellow
355.5325	1.0167	ITI	n/a	n/a	n/a	n/a	n/a	n/a	n/a	n/a
356.5492	0.5167	FIXCROSS	n/a	n/a	n/a	n/a	n/a	n/a	n/a	n/a
357.0659	0.5833	COLOR_NAME	29	Neutral	czerwony	red	Neutral	Neutral	hit	n/a
357.6314	n/a	RESPONSE	n/a	n/a	n/a	n/a	n/a	n/a	n/a	red
357.6492	1.0167	ITI	n/a	n/a	n/a	n/a	n/a	n/a	n/a	n/a
358.6659	0.5167	FIXCROSS	n/a	n/a	n/a	n/a	n/a	n/a	n/a	n/a
359.1826	0.7333	COLOR_NAME	30	Neutral	żółty	yellow	Neutral	Neutral	hit	n/a
359.8824	n/a	RESPONSE	n/a	n/a	n/a	n/a	n/a	n/a	n/a	yellow
359.9159	1.0167	ITI	n/a	n/a	n/a	n/a	n/a	n/a	n/a	n/a
360.9326	0.5167	FIXCROSS	n/a	n/a	n/a	n/a	n/a	n/a	n/a	n/a
361.4493	1.1834	COLOR_NAME	31	Neutral	czerwony	red	Neutral	Neutral	hit	n/a
362.6122	n/a	RESPONSE	n/a	n/a	n/a	n/a	n/a	n/a	n/a	red
362.6326	1.0167	ITI	n/a	n/a	n/a	n/a	n/a	n/a	n/a	n/a
363.6493	0.5167	FIXCROSS	n/a	n/a	n/a	n/a	n/a	n/a	n/a	n/a
364.1659	1.7167	COLOR_NAME	32	Incongruent	zielony	green	żółty	yellow	hit	n/a
365.8528	n/a	RESPONSE	n/a	n/a	n/a	n/a	n/a	n/a	n/a	green
365.8826	1.0167	ITI	n/a	n/a	n/a	n/a	n/a	n/a	n/a	n/a
366.8993	0.5167	FIXCROSS	n/a	n/a	n/a	n/a	n/a	n/a	n/a	n/a
367.416	0.85	COLOR_NAME	33	Incongruent	żółty	yellow	czerwony	red	hit	n/a
368.2472	n/a	RESPONSE	n/a	n/a	n/a	n/a	n/a	n/a	n/a	yellow
368.266	1.0167	ITI	n/a	n/a	n/a	n/a	n/a	n/a	n/a	n/a
369.2827	0.5167	FIXCROSS	n/a	n/a	n/a	n/a	n/a	n/a	n/a	n/a
369.7993	0.8167	COLOR_NAME	34	Incongruent	żółty	yellow	niebieski	blue	hit	n/a
370.5939	n/a	RESPONSE	n/a	n/a	n/a	n/a	n/a	n/a	n/a	yellow
370.616	1.0167	ITI	n/a	n/a	n/a	n/a	n/a	n/a	n/a	n/a
371.6327	0.5167	FIXCROSS	n/a	n/a	n/a	n/a	n/a	n/a	n/a	n/a
372.1493	1.05	COLOR_NAME	35	Neutral	niebieski	blue	Neutral	Neutral	hit	n/a
373.18	n/a	RESPONSE	n/a	n/a	n/a	n/a	n/a	n/a	n/a	blue
373.1993	1.0167	ITI	n/a	n/a	n/a	n/a	n/a	n/a	n/a	n/a
374.216	0.5167	FIXCROSS	n/a	n/a	n/a	n/a	n/a	n/a	n/a	n/a
374.7327	1.0	COLOR_NAME	36	Incongruent	niebieski	blue	zielony	green	hit	n/a
375.7022	n/a	RESPONSE	n/a	n/a	n/a	n/a	n/a	n/a	n/a	blue
375.7327	1.0166	ITI	n/a	n/a	n/a	n/a	n/a	n/a	n/a	n/a
376.7493	0.5167	FIXCROSS	n/a	n/a	n/a	n/a	n/a	n/a	n/a	n/a
377.266	1.6167	COLOR_NAME	37	Incongruent	zielony	green	niebieski	blue	hit	n/a
378.863	n/a	RESPONSE	n/a	n/a	n/a	n/a	n/a	n/a	n/a	green
378.8827	1.0167	ITI	n/a	n/a	n/a	n/a	n/a	n/a	n/a	n/a
379.8994	0.5167	FIXCROSS	n/a	n/a	n/a	n/a	n/a	n/a	n/a	n/a
380.416	0.8167	COLOR_NAME	38	Neutral	niebieski	blue	Neutral	Neutral	hit	n/a
381.2096	n/a	RESPONSE	n/a	n/a	n/a	n/a	n/a	n/a	n/a	blue
381.2327	1.0167	ITI	n/a	n/a	n/a	n/a	n/a	n/a	n/a	n/a
382.2494	0.5167	FIXCROSS	n/a	n/a	n/a	n/a	n/a	n/a	n/a	n/a
382.7661	0.9333	COLOR_NAME	39	Neutral	żółty	yellow	Neutral	Neutral	hit	n/a
383.668	n/a	RESPONSE	n/a	n/a	n/a	n/a	n/a	n/a	n/a	yellow
383.6994	1.0167	ITI	n/a	n/a	n/a	n/a	n/a	n/a	n/a	n/a
384.7161	0.5167	FIXCROSS	n/a	n/a	n/a	n/a	n/a	n/a	n/a	n/a
385.2328	0.6	COLOR_NAME	40	Incongruent	czerwony	red	zielony	green	hit	n/a
385.8071	n/a	RESPONSE	n/a	n/a	n/a	n/a	n/a	n/a	n/a	red
385.8327	1.0167	ITI	n/a	n/a	n/a	n/a	n/a	n/a	n/a	n/a
386.8494	0.5167	FIXCROSS	n/a	n/a	n/a	n/a	n/a	n/a	n/a	n/a
387.3661	0.55	COLOR_NAME	41	Incongruent	czerwony	red	zielony	green	hit	n/a
387.8824	n/a	RESPONSE	n/a	n/a	n/a	n/a	n/a	n/a	n/a	red
387.9161	1.0167	ITI	n/a	n/a	n/a	n/a	n/a	n/a	n/a	n/a
388.9328	0.5166	FIXCROSS	n/a	n/a	n/a	n/a	n/a	n/a	n/a	n/a
389.4494	0.4834	COLOR_NAME	42	Neutral	czerwony	red	Neutral	Neutral	hit	n/a
389.9098	n/a	RESPONSE	n/a	n/a	n/a	n/a	n/a	n/a	n/a	red
389.9328	1.0167	ITI	n/a	n/a	n/a	n/a	n/a	n/a	n/a	n/a
390.9495	0.5167	FIXCROSS	n/a	n/a	n/a	n/a	n/a	n/a	n/a	n/a
391.4661	0.7	COLOR_NAME	43	Incongruent	żółty	yellow	zielony	green	hit	n/a
392.1446	n/a	RESPONSE	n/a	n/a	n/a	n/a	n/a	n/a	n/a	yellow
392.1661	1.0167	ITI	n/a	n/a	n/a	n/a	n/a	n/a	n/a	n/a
393.1828	0.5167	FIXCROSS	n/a	n/a	n/a	n/a	n/a	n/a	n/a	n/a
393.6995	0.5333	COLOR_NAME	44	Neutral	czerwony	red	Neutral	Neutral	hit	n/a
394.204	n/a	RESPONSE	n/a	n/a	n/a	n/a	n/a	n/a	n/a	red
394.2328	1.0167	ITI	n/a	n/a	n/a	n/a	n/a	n/a	n/a	n/a
395.2495	0.5166	FIXCROSS	n/a	n/a	n/a	n/a	n/a	n/a	n/a	n/a
395.7661	0.5333	COLOR_NAME	45	Incongruent	czerwony	red	niebieski	blue	hit	n/a
396.2792	n/a	RESPONSE	n/a	n/a	n/a	n/a	n/a	n/a	n/a	red
396.2995	1.0167	ITI	n/a	n/a	n/a	n/a	n/a	n/a	n/a	n/a
397.3162	0.5167	FIXCROSS	n/a	n/a	n/a	n/a	n/a	n/a	n/a	n/a
397.8329	0.6833	COLOR_NAME	46	Neutral	żółty	yellow	Neutral	Neutral	hit	n/a
398.4981	n/a	RESPONSE	n/a	n/a	n/a	n/a	n/a	n/a	n/a	yellow
398.5162	1.0167	ITI	n/a	n/a	n/a	n/a	n/a	n/a	n/a	n/a
399.5329	0.5166	FIXCROSS	n/a	n/a	n/a	n/a	n/a	n/a	n/a	n/a
400.0495	0.95	COLOR_NAME	47	Incongruent	zielony	green	żółty	yellow	hit	n/a
400.9724	n/a	RESPONSE	n/a	n/a	n/a	n/a	n/a	n/a	n/a	green
400.9995	1.0167	ITI	n/a	n/a	n/a	n/a	n/a	n/a	n/a	n/a
402.0162	0.5167	FIXCROSS	n/a	n/a	n/a	n/a	n/a	n/a	n/a	n/a
402.5329	1.2833	COLOR_NAME	48	Neutral	niebieski	blue	Neutral	Neutral	hit	n/a
403.7978	n/a	RESPONSE	n/a	n/a	n/a	n/a	n/a	n/a	n/a	blue
403.8162	1.0167	ITI	n/a	n/a	n/a	n/a	n/a	n/a	n/a	n/a
404.8329	0.5166	FIXCROSS	n/a	n/a	n/a	n/a	n/a	n/a	n/a	n/a
405.3495	1.0834	COLOR_NAME	49	Incongruent	czerwony	red	żółty	yellow	hit	n/a
406.4	n/a	RESPONSE	n/a	n/a	n/a	n/a	n/a	n/a	n/a	red
406.4329	1.0166	ITI	n/a	n/a	n/a	n/a	n/a	n/a	n/a	n/a
407.4495	0.5167	FIXCROSS	n/a	n/a	n/a	n/a	n/a	n/a	n/a	n/a
407.9663	1.4333	COLOR_NAME	50	Incongruent	żółty	yellow	czerwony	red	hit	n/a
409.3693	n/a	RESPONSE	n/a	n/a	n/a	n/a	n/a	n/a	n/a	yellow
409.3996	1.0167	ITI	n/a	n/a	n/a	n/a	n/a	n/a	n/a	n/a
410.4163	0.5167	FIXCROSS	n/a	n/a	n/a	n/a	n/a	n/a	n/a	n/a
410.9329	0.7333	COLOR_NAME	51	Neutral	niebieski	blue	Neutral	Neutral	hit	n/a
411.636	n/a	RESPONSE	n/a	n/a	n/a	n/a	n/a	n/a	n/a	blue
411.6663	1.0167	ITI	n/a	n/a	n/a	n/a	n/a	n/a	n/a	n/a
412.683	0.5166	FIXCROSS	n/a	n/a	n/a	n/a	n/a	n/a	n/a	n/a
413.1996	1.2	COLOR_NAME	52	Incongruent	zielony	green	czerwony	red	hit	n/a
414.3658	n/a	RESPONSE	n/a	n/a	n/a	n/a	n/a	n/a	n/a	green
414.3996	1.0167	ITI	n/a	n/a	n/a	n/a	n/a	n/a	n/a	n/a
415.4163	0.5167	FIXCROSS	n/a	n/a	n/a	n/a	n/a	n/a	n/a	n/a
415.933	0.7833	COLOR_NAME	53	Neutral	niebieski	blue	Neutral	Neutral	hit	n/a
416.6964	n/a	RESPONSE	n/a	n/a	n/a	n/a	n/a	n/a	n/a	blue
416.7163	1.0167	ITI	n/a	n/a	n/a	n/a	n/a	n/a	n/a	n/a
417.733	0.5167	FIXCROSS	n/a	n/a	n/a	n/a	n/a	n/a	n/a	n/a
418.2497	0.9333	COLOR_NAME	54	Incongruent	niebieski	blue	żółty	yellow	hit	n/a
419.1549	n/a	RESPONSE	n/a	n/a	n/a	n/a	n/a	n/a	n/a	blue
419.183	1.0166	ITI	n/a	n/a	n/a	n/a	n/a	n/a	n/a	n/a
420.1996	0.5167	FIXCROSS	n/a	n/a	n/a	n/a	n/a	n/a	n/a	n/a
420.7163	0.9	COLOR_NAME	55	Incongruent	niebieski	blue	czerwony	red	hit	n/a
421.5972	n/a	RESPONSE	n/a	n/a	n/a	n/a	n/a	n/a	n/a	blue
421.6163	1.0167	ITI	n/a	n/a	n/a	n/a	n/a	n/a	n/a	n/a
422.633	0.5167	FIXCROSS	n/a	n/a	n/a	n/a	n/a	n/a	n/a	n/a
423.1497	0.7	COLOR_NAME	56	Neutral	zielony	green	Neutral	Neutral	hit	n/a
423.8161	n/a	RESPONSE	n/a	n/a	n/a	n/a	n/a	n/a	n/a	green
423.8497	1.0167	ITI	n/a	n/a	n/a	n/a	n/a	n/a	n/a	n/a
424.8664	0.5166	FIXCROSS	n/a	n/a	n/a	n/a	n/a	n/a	n/a	n/a
425.383	3.7834	COLOR_NAME	57	Incongruent	niebieski	blue	zielony	green	hit	n/a
429.132	n/a	RESPONSE	n/a	n/a	n/a	n/a	n/a	n/a	n/a	blue
429.1664	1.0167	ITI	n/a	n/a	n/a	n/a	n/a	n/a	n/a	n/a
430.1831	0.5167	FIXCROSS	n/a	n/a	n/a	n/a	n/a	n/a	n/a	n/a
430.6997	1.4333	COLOR_NAME	58	Neutral	czerwony	red	Neutral	Neutral	hit	n/a
432.1013	n/a	RESPONSE	n/a	n/a	n/a	n/a	n/a	n/a	n/a	red
432.1331	1.0167	ITI	n/a	n/a	n/a	n/a	n/a	n/a	n/a	n/a
433.1497	0.5167	FIXCROSS	n/a	n/a	n/a	n/a	n/a	n/a	n/a	n/a
433.6664	0.9667	COLOR_NAME	59	Neutral	zielony	green	Neutral	Neutral	hit	n/a
434.6074	n/a	RESPONSE	n/a	n/a	n/a	n/a	n/a	n/a	n/a	green
434.6331	1.0167	ITI	n/a	n/a	n/a	n/a	n/a	n/a	n/a	n/a
435.6498	0.5167	FIXCROSS	n/a	n/a	n/a	n/a	n/a	n/a	n/a	n/a
436.1665	0.8167	COLOR_NAME	60	Neutral	zielony	green	Neutral	Neutral	hit	n/a
436.9541	n/a	RESPONSE	n/a	n/a	n/a	n/a	n/a	n/a	n/a	green
436.9831	1.0167	ITI	n/a	n/a	n/a	n/a	n/a	n/a	n/a	n/a
437.9998	0.5167	FIXCROSS	n/a	n/a	n/a	n/a	n/a	n/a	n/a	n/a
438.5165	0.75	COLOR_NAME	61	Neutral	żółty	yellow	Neutral	Neutral	hit	n/a
439.2369	n/a	RESPONSE	n/a	n/a	n/a	n/a	n/a	n/a	n/a	yellow
439.2665	1.0166	ITI	n/a	n/a	n/a	n/a	n/a	n/a	n/a	n/a
440.2831	0.5167	FIXCROSS	n/a	n/a	n/a	n/a	n/a	n/a	n/a	n/a
440.7998	0.55	COLOR_NAME	62	Incongruent	czerwony	red	niebieski	blue	hit	n/a
441.3282	n/a	RESPONSE	n/a	n/a	n/a	n/a	n/a	n/a	n/a	red
441.3498	1.0167	ITI	n/a	n/a	n/a	n/a	n/a	n/a	n/a	n/a
442.3665	0.5167	FIXCROSS	n/a	n/a	n/a	n/a	n/a	n/a	n/a	n/a
442.8832	0.8667	COLOR_NAME	63	Neutral	zielony	green	Neutral	Neutral	hit	n/a
443.7226	n/a	RESPONSE	n/a	n/a	n/a	n/a	n/a	n/a	n/a	green
443.7498	1.0167	ITI	n/a	n/a	n/a	n/a	n/a	n/a	n/a	n/a
444.7665	0.5167	FIXCROSS	n/a	n/a	n/a	n/a	n/a	n/a	n/a	n/a
445.2832	0.6333	COLOR_NAME	64	Neutral	żółty	yellow	Neutral	Neutral	hit	n/a
445.8937	n/a	RESPONSE	n/a	n/a	n/a	n/a	n/a	n/a	n/a	yellow
445.9165	1.0167	ITI	n/a	n/a	n/a	n/a	n/a	n/a	n/a	n/a
446.9332	0.5167	FIXCROSS	n/a	n/a	n/a	n/a	n/a	n/a	n/a	n/a
447.4499	0.8	COLOR_NAME	65	Neutral	zielony	green	Neutral	Neutral	hit	n/a
448.2244	n/a	RESPONSE	n/a	n/a	n/a	n/a	n/a	n/a	n/a	green
448.2499	1.0167	ITI	n/a	n/a	n/a	n/a	n/a	n/a	n/a	n/a
449.2665	0.5166	FIXCROSS	n/a	n/a	n/a	n/a	n/a	n/a	n/a	n/a
449.7832	0.5834	COLOR_NAME	66	Incongruent	niebieski	blue	żółty	yellow	hit	n/a
450.3475	n/a	RESPONSE	n/a	n/a	n/a	n/a	n/a	n/a	n/a	blue
450.3666	1.0167	ITI	n/a	n/a	n/a	n/a	n/a	n/a	n/a	n/a
451.3832	0.5167	FIXCROSS	n/a	n/a	n/a	n/a	n/a	n/a	n/a	n/a
451.8999	1.0167	COLOR_NAME	67	Incongruent	niebieski	blue	zielony	green	hit	n/a
452.8858	n/a	RESPONSE	n/a	n/a	n/a	n/a	n/a	n/a	n/a	blue
452.9166	1.0167	ITI	n/a	n/a	n/a	n/a	n/a	n/a	n/a	n/a
453.9332	0.5167	FIXCROSS	n/a	n/a	n/a	n/a	n/a	n/a	n/a	n/a
454.4499	0.9833	COLOR_NAME	68	Incongruent	żółty	yellow	zielony	green	hit	n/a
455.408	n/a	RESPONSE	n/a	n/a	n/a	n/a	n/a	n/a	n/a	yellow
455.4333	1.0167	ITI	n/a	n/a	n/a	n/a	n/a	n/a	n/a	n/a
456.4499	0.5166	FIXCROSS	n/a	n/a	n/a	n/a	n/a	n/a	n/a	n/a
456.9666	0.75	COLOR_NAME	69	Neutral	zielony	green	Neutral	Neutral	hit	n/a
457.6908	n/a	RESPONSE	n/a	n/a	n/a	n/a	n/a	n/a	n/a	green
457.7166	1.0167	ITI	n/a	n/a	n/a	n/a	n/a	n/a	n/a	n/a
458.7332	0.5167	FIXCROSS	n/a	n/a	n/a	n/a	n/a	n/a	n/a	n/a
459.2499	0.55	COLOR_NAME	70	Neutral	czerwony	red	Neutral	Neutral	hit	n/a
459.7661	n/a	RESPONSE	n/a	n/a	n/a	n/a	n/a	n/a	n/a	red
459.7999	1.0166	ITI	n/a	n/a	n/a	n/a	n/a	n/a	n/a	n/a
460.8166	0.5167	FIXCROSS	n/a	n/a	n/a	n/a	n/a	n/a	n/a	n/a
461.3333	0.6333	COLOR_NAME	71	Incongruent	żółty	yellow	niebieski	blue	hit	n/a
461.9372	n/a	RESPONSE	n/a	n/a	n/a	n/a	n/a	n/a	n/a	yellow
461.9666	1.0167	ITI	n/a	n/a	n/a	n/a	n/a	n/a	n/a	n/a
462.9833	0.5167	FIXCROSS	n/a	n/a	n/a	n/a	n/a	n/a	n/a	n/a
463.5	0.8333	COLOR_NAME	72	Incongruent	zielony	green	czerwony	red	hit	n/a
464.3158	n/a	RESPONSE	n/a	n/a	n/a	n/a	n/a	n/a	n/a	green
464.3333	1.0333	ITI	n/a	n/a	n/a	n/a	n/a	n/a	n/a	n/a
535.5766	n/a	RESPONSE	n/a	n/a	n/a	n/a	n/a	n/a	n/a	n/a
