onset	duration	trial_type	trial_number	stroop_condition	stim_text(PL)	stim_text(eng)	stim_color(PL)	stim_color(eng)	response_type	response_color
0.0	n/a	RESPONSE	n/a	n/a	n/a	n/a	n/a	n/a	n/a	n/a
0.0637	1.0333	ITI	n/a	n/a	n/a	n/a	n/a	n/a	n/a	n/a
1.097	0.5167	FIXCROSS	n/a	n/a	n/a	n/a	n/a	n/a	n/a	n/a
1.6137	1.1333	T_INK	1	Incongruent	żółty	yellow	czerwony	red	hit	n/a
2.7154	n/a	RESPONSE	n/a	n/a	n/a	n/a	n/a	n/a	n/a	red
2.747	0.5167	FEEDBACK	n/a	n/a	n/a	n/a	n/a	n/a	n/a	n/a
3.2637	1.0167	ITI	n/a	n/a	n/a	n/a	n/a	n/a	n/a	n/a
4.2804	0.5167	FIXCROSS	n/a	n/a	n/a	n/a	n/a	n/a	n/a	n/a
4.797	0.9	T_INK	2	Incongruent	niebieski	blue	żółty	yellow	hit	n/a
5.6707	n/a	RESPONSE	n/a	n/a	n/a	n/a	n/a	n/a	n/a	yellow
5.6971	0.5167	FEEDBACK	n/a	n/a	n/a	n/a	n/a	n/a	n/a	n/a
6.2137	1.0167	ITI	n/a	n/a	n/a	n/a	n/a	n/a	n/a	n/a
7.2304	0.5167	FIXCROSS	n/a	n/a	n/a	n/a	n/a	n/a	n/a	n/a
7.7471	0.8333	T_INK	3	Incongruent	zielony	green	żółty	yellow	hit	n/a
8.5458	n/a	RESPONSE	n/a	n/a	n/a	n/a	n/a	n/a	n/a	yellow
8.5804	0.5167	FEEDBACK	n/a	n/a	n/a	n/a	n/a	n/a	n/a	n/a
9.0971	1.0167	ITI	n/a	n/a	n/a	n/a	n/a	n/a	n/a	n/a
10.1137	0.5167	FIXCROSS	n/a	n/a	n/a	n/a	n/a	n/a	n/a	n/a
10.6304	0.9167	T_INK	4	Incongruent	żółty	yellow	zielony	green	hit	n/a
11.5168	n/a	RESPONSE	n/a	n/a	n/a	n/a	n/a	n/a	n/a	green
11.5471	0.5167	FEEDBACK	n/a	n/a	n/a	n/a	n/a	n/a	n/a	n/a
12.0638	1.0167	ITI	n/a	n/a	n/a	n/a	n/a	n/a	n/a	n/a
13.0804	0.5167	FIXCROSS	n/a	n/a	n/a	n/a	n/a	n/a	n/a	n/a
13.5971	0.8167	T_INK	5	Incongruent	czerwony	red	niebieski	blue	hit	n/a
14.3922	n/a	RESPONSE	n/a	n/a	n/a	n/a	n/a	n/a	n/a	blue
14.4138	0.5167	FEEDBACK	n/a	n/a	n/a	n/a	n/a	n/a	n/a	n/a
14.9304	1.0167	ITI	n/a	n/a	n/a	n/a	n/a	n/a	n/a	n/a
15.9471	0.5167	FIXCROSS	n/a	n/a	n/a	n/a	n/a	n/a	n/a	n/a
16.4638	0.7667	T_INK	6	Incongruent	zielony	green	niebieski	blue	hit	n/a
17.2035	n/a	RESPONSE	n/a	n/a	n/a	n/a	n/a	n/a	n/a	blue
17.2305	0.5167	FEEDBACK	n/a	n/a	n/a	n/a	n/a	n/a	n/a	n/a
17.7471	1.0167	ITI	n/a	n/a	n/a	n/a	n/a	n/a	n/a	n/a
18.7638	0.5167	FIXCROSS	n/a	n/a	n/a	n/a	n/a	n/a	n/a	n/a
19.2805	1.1	T_INK	7	Neutral	xxxxxxxxx	xxxxxxxxx	czerwony	red	hit	n/a
20.3502	n/a	RESPONSE	n/a	n/a	n/a	n/a	n/a	n/a	n/a	red
20.3805	0.5167	FEEDBACK	n/a	n/a	n/a	n/a	n/a	n/a	n/a	n/a
20.8972	1.0167	ITI	n/a	n/a	n/a	n/a	n/a	n/a	n/a	n/a
21.9138	0.5167	FIXCROSS	n/a	n/a	n/a	n/a	n/a	n/a	n/a	n/a
22.4305	0.8667	T_INK	8	Neutral	xxxxxxx	xxxxxxx	czerwony	red	hit	n/a
23.2734	n/a	RESPONSE	n/a	n/a	n/a	n/a	n/a	n/a	n/a	red
23.2972	0.5167	FEEDBACK	n/a	n/a	n/a	n/a	n/a	n/a	n/a	n/a
23.8138	1.0167	ITI	n/a	n/a	n/a	n/a	n/a	n/a	n/a	n/a
24.8305	0.5167	FIXCROSS	n/a	n/a	n/a	n/a	n/a	n/a	n/a	n/a
25.3472	0.9333	T_INK	9	Incongruent	czerwony	red	zielony	green	hit	n/a
26.2604	n/a	RESPONSE	n/a	n/a	n/a	n/a	n/a	n/a	n/a	green
26.2805	0.5167	FEEDBACK	n/a	n/a	n/a	n/a	n/a	n/a	n/a	n/a
26.7972	1.0167	ITI	n/a	n/a	n/a	n/a	n/a	n/a	n/a	n/a
27.8139	0.5167	FIXCROSS	n/a	n/a	n/a	n/a	n/a	n/a	n/a	n/a
28.3305	0.65	T_INK	10	Incongruent	zielony	green	czerwony	red	hit	n/a
28.96	n/a	RESPONSE	n/a	n/a	n/a	n/a	n/a	n/a	n/a	red
28.9805	0.5167	FEEDBACK	n/a	n/a	n/a	n/a	n/a	n/a	n/a	n/a
29.4972	1.0167	ITI	n/a	n/a	n/a	n/a	n/a	n/a	n/a	n/a
30.5139	0.5167	FIXCROSS	n/a	n/a	n/a	n/a	n/a	n/a	n/a	n/a
31.0306	0.7833	T_INK	11	Incongruent	niebieski	blue	czerwony	red	hit	n/a
31.7873	n/a	RESPONSE	n/a	n/a	n/a	n/a	n/a	n/a	n/a	red
31.8139	0.5167	FEEDBACK	n/a	n/a	n/a	n/a	n/a	n/a	n/a	n/a
32.3306	1.0167	ITI	n/a	n/a	n/a	n/a	n/a	n/a	n/a	n/a
33.3472	0.5167	FIXCROSS	n/a	n/a	n/a	n/a	n/a	n/a	n/a	n/a
33.8639	0.7	T_INK	12	Neutral	xxxxx	xxxxx	zielony	green	hit	n/a
34.5347	n/a	RESPONSE	n/a	n/a	n/a	n/a	n/a	n/a	n/a	green
34.5639	0.5167	FEEDBACK	n/a	n/a	n/a	n/a	n/a	n/a	n/a	n/a
35.0806	1.0333	ITI	n/a	n/a	n/a	n/a	n/a	n/a	n/a	n/a
47.01	n/a	RESPONSE	n/a	n/a	n/a	n/a	n/a	n/a	n/a	n/a
47.064	1.0167	ITI	n/a	n/a	n/a	n/a	n/a	n/a	n/a	n/a
48.0807	0.5167	FIXCROSS	n/a	n/a	n/a	n/a	n/a	n/a	n/a	n/a
48.5973	0.8333	INK	1	Neutral	xxxxxxx	xxxxxxx	czerwony	red	hit	n/a
49.4061	n/a	RESPONSE	n/a	n/a	n/a	n/a	n/a	n/a	n/a	red
49.4307	1.0167	ITI	n/a	n/a	n/a	n/a	n/a	n/a	n/a	n/a
50.4474	0.5167	FIXCROSS	n/a	n/a	n/a	n/a	n/a	n/a	n/a	n/a
50.964	0.7167	INK	2	Neutral	xxxxxxxx	xxxxxxxx	zielony	green	hit	n/a
51.6583	n/a	RESPONSE	n/a	n/a	n/a	n/a	n/a	n/a	n/a	green
51.6807	1.0167	ITI	n/a	n/a	n/a	n/a	n/a	n/a	n/a	n/a
52.6974	0.5167	FIXCROSS	n/a	n/a	n/a	n/a	n/a	n/a	n/a	n/a
53.2141	0.7167	INK	3	Incongruent	czerwony	red	żółty	yellow	hit	n/a
53.9105	n/a	RESPONSE	n/a	n/a	n/a	n/a	n/a	n/a	n/a	yellow
53.9307	1.0167	ITI	n/a	n/a	n/a	n/a	n/a	n/a	n/a	n/a
54.9474	0.5167	FIXCROSS	n/a	n/a	n/a	n/a	n/a	n/a	n/a	n/a
55.4641	0.9333	INK	4	Incongruent	niebieski	blue	zielony	green	hit	n/a
56.3705	n/a	RESPONSE	n/a	n/a	n/a	n/a	n/a	n/a	n/a	green
56.3974	1.0167	ITI	n/a	n/a	n/a	n/a	n/a	n/a	n/a	n/a
57.4141	0.5167	FIXCROSS	n/a	n/a	n/a	n/a	n/a	n/a	n/a	n/a
57.9307	0.6667	INK	5	Incongruent	czerwony	red	zielony	green	hit	n/a
58.5748	n/a	RESPONSE	n/a	n/a	n/a	n/a	n/a	n/a	n/a	green
58.5974	1.0167	ITI	n/a	n/a	n/a	n/a	n/a	n/a	n/a	n/a
59.6141	0.5167	FIXCROSS	n/a	n/a	n/a	n/a	n/a	n/a	n/a	n/a
60.1308	0.7	INK	6	Incongruent	żółty	yellow	niebieski	blue	hit	n/a
60.8111	n/a	RESPONSE	n/a	n/a	n/a	n/a	n/a	n/a	n/a	blue
60.8308	1.0167	ITI	n/a	n/a	n/a	n/a	n/a	n/a	n/a	n/a
61.8474	0.5167	FIXCROSS	n/a	n/a	n/a	n/a	n/a	n/a	n/a	n/a
62.3641	0.8	INK	7	Incongruent	zielony	green	niebieski	blue	hit	n/a
63.1433	n/a	RESPONSE	n/a	n/a	n/a	n/a	n/a	n/a	n/a	blue
63.1641	1.0167	ITI	n/a	n/a	n/a	n/a	n/a	n/a	n/a	n/a
64.1808	0.5167	FIXCROSS	n/a	n/a	n/a	n/a	n/a	n/a	n/a	n/a
64.6975	0.8	INK	8	Neutral	xxxxxxx	xxxxxxx	żółty	yellow	hit	n/a
65.4754	n/a	RESPONSE	n/a	n/a	n/a	n/a	n/a	n/a	n/a	yellow
65.4975	1.0167	ITI	n/a	n/a	n/a	n/a	n/a	n/a	n/a	n/a
66.5141	0.5167	FIXCROSS	n/a	n/a	n/a	n/a	n/a	n/a	n/a	n/a
67.0308	0.7333	INK	9	Incongruent	zielony	green	żółty	yellow	hit	n/a
67.7436	n/a	RESPONSE	n/a	n/a	n/a	n/a	n/a	n/a	n/a	yellow
67.7641	1.0167	ITI	n/a	n/a	n/a	n/a	n/a	n/a	n/a	n/a
68.7808	0.5167	FIXCROSS	n/a	n/a	n/a	n/a	n/a	n/a	n/a	n/a
69.2975	0.65	INK	10	Incongruent	czerwony	red	żółty	yellow	hit	n/a
69.9161	n/a	RESPONSE	n/a	n/a	n/a	n/a	n/a	n/a	n/a	yellow
69.9475	1.0167	ITI	n/a	n/a	n/a	n/a	n/a	n/a	n/a	n/a
70.9642	0.5167	FIXCROSS	n/a	n/a	n/a	n/a	n/a	n/a	n/a	n/a
71.4808	0.6333	INK	11	Neutral	xxxxxxxxx	xxxxxxxxx	żółty	yellow	hit	n/a
72.0884	n/a	RESPONSE	n/a	n/a	n/a	n/a	n/a	n/a	n/a	yellow
72.1142	1.0167	ITI	n/a	n/a	n/a	n/a	n/a	n/a	n/a	n/a
73.1309	0.5167	FIXCROSS	n/a	n/a	n/a	n/a	n/a	n/a	n/a	n/a
73.6475	0.6667	INK	12	Incongruent	zielony	green	czerwony	red	hit	n/a
74.2928	n/a	RESPONSE	n/a	n/a	n/a	n/a	n/a	n/a	n/a	red
74.3142	1.0167	ITI	n/a	n/a	n/a	n/a	n/a	n/a	n/a	n/a
75.3309	0.5167	FIXCROSS	n/a	n/a	n/a	n/a	n/a	n/a	n/a	n/a
75.8475	0.7167	INK	13	Neutral	xxxxxxxxx	xxxxxxxxx	czerwony	red	hit	n/a
76.5451	n/a	RESPONSE	n/a	n/a	n/a	n/a	n/a	n/a	n/a	red
76.5642	1.0167	ITI	n/a	n/a	n/a	n/a	n/a	n/a	n/a	n/a
77.5809	0.5167	FIXCROSS	n/a	n/a	n/a	n/a	n/a	n/a	n/a	n/a
78.0975	0.9167	INK	14	Neutral	xxxxx	xxxxx	zielony	green	hit	n/a
78.989	n/a	RESPONSE	n/a	n/a	n/a	n/a	n/a	n/a	n/a	green
79.0142	1.0167	ITI	n/a	n/a	n/a	n/a	n/a	n/a	n/a	n/a
80.0309	0.5167	FIXCROSS	n/a	n/a	n/a	n/a	n/a	n/a	n/a	n/a
80.5476	0.7	INK	15	Neutral	xxxxxxxx	xxxxxxxx	niebieski	blue	hit	n/a
81.2253	n/a	RESPONSE	n/a	n/a	n/a	n/a	n/a	n/a	n/a	blue
81.2476	1.0167	ITI	n/a	n/a	n/a	n/a	n/a	n/a	n/a	n/a
82.2642	0.5167	FIXCROSS	n/a	n/a	n/a	n/a	n/a	n/a	n/a	n/a
82.7809	0.7667	INK	16	Incongruent	niebieski	blue	zielony	green	hit	n/a
83.5255	n/a	RESPONSE	n/a	n/a	n/a	n/a	n/a	n/a	n/a	green
83.5476	1.0167	ITI	n/a	n/a	n/a	n/a	n/a	n/a	n/a	n/a
84.5643	0.5167	FIXCROSS	n/a	n/a	n/a	n/a	n/a	n/a	n/a	n/a
85.0809	0.7	INK	17	Neutral	xxxxx	xxxxx	niebieski	blue	hit	n/a
85.7618	n/a	RESPONSE	n/a	n/a	n/a	n/a	n/a	n/a	n/a	blue
85.7809	1.0167	ITI	n/a	n/a	n/a	n/a	n/a	n/a	n/a	n/a
86.7976	0.5167	FIXCROSS	n/a	n/a	n/a	n/a	n/a	n/a	n/a	n/a
87.3143	1.0167	INK	18	Neutral	xxxxx	xxxxx	czerwony	red	hit	n/a
88.3016	n/a	RESPONSE	n/a	n/a	n/a	n/a	n/a	n/a	n/a	red
88.3309	1.0167	ITI	n/a	n/a	n/a	n/a	n/a	n/a	n/a	n/a
89.3476	0.5167	FIXCROSS	n/a	n/a	n/a	n/a	n/a	n/a	n/a	n/a
89.8643	0.7	INK	19	Incongruent	żółty	yellow	niebieski	blue	hit	n/a
90.5379	n/a	RESPONSE	n/a	n/a	n/a	n/a	n/a	n/a	n/a	blue
90.5643	1.0167	ITI	n/a	n/a	n/a	n/a	n/a	n/a	n/a	n/a
91.581	0.5167	FIXCROSS	n/a	n/a	n/a	n/a	n/a	n/a	n/a	n/a
92.0976	0.7833	INK	20	Incongruent	czerwony	red	niebieski	blue	hit	n/a
92.854	n/a	RESPONSE	n/a	n/a	n/a	n/a	n/a	n/a	n/a	blue
92.881	1.0167	ITI	n/a	n/a	n/a	n/a	n/a	n/a	n/a	n/a
93.8976	0.5167	FIXCROSS	n/a	n/a	n/a	n/a	n/a	n/a	n/a	n/a
94.4143	0.9	INK	21	Neutral	xxxxxxxxx	xxxxxxxxx	zielony	green	hit	n/a
95.282	n/a	RESPONSE	n/a	n/a	n/a	n/a	n/a	n/a	n/a	green
95.3143	1.0167	ITI	n/a	n/a	n/a	n/a	n/a	n/a	n/a	n/a
96.331	0.5167	FIXCROSS	n/a	n/a	n/a	n/a	n/a	n/a	n/a	n/a
96.8477	0.8333	INK	22	Neutral	xxxxxxx	xxxxxxx	żółty	yellow	hit	n/a
97.6621	n/a	RESPONSE	n/a	n/a	n/a	n/a	n/a	n/a	n/a	yellow
97.681	1.0167	ITI	n/a	n/a	n/a	n/a	n/a	n/a	n/a	n/a
98.6977	0.5167	FIXCROSS	n/a	n/a	n/a	n/a	n/a	n/a	n/a	n/a
99.2144	0.85	INK	23	Neutral	xxxxx	xxxxx	niebieski	blue	hit	n/a
100.0421	n/a	RESPONSE	n/a	n/a	n/a	n/a	n/a	n/a	n/a	blue
100.0644	1.0167	ITI	n/a	n/a	n/a	n/a	n/a	n/a	n/a	n/a
101.081	0.5167	FIXCROSS	n/a	n/a	n/a	n/a	n/a	n/a	n/a	n/a
101.5977	0.8167	INK	24	Incongruent	żółty	yellow	zielony	green	hit	n/a
102.3903	n/a	RESPONSE	n/a	n/a	n/a	n/a	n/a	n/a	n/a	green
102.4144	1.0167	ITI	n/a	n/a	n/a	n/a	n/a	n/a	n/a	n/a
103.431	0.5167	FIXCROSS	n/a	n/a	n/a	n/a	n/a	n/a	n/a	n/a
103.9477	0.85	INK	25	Incongruent	niebieski	blue	żółty	yellow	hit	n/a
104.7704	n/a	RESPONSE	n/a	n/a	n/a	n/a	n/a	n/a	n/a	yellow
104.7977	1.0167	ITI	n/a	n/a	n/a	n/a	n/a	n/a	n/a	n/a
105.8144	0.5167	FIXCROSS	n/a	n/a	n/a	n/a	n/a	n/a	n/a	n/a
106.3311	0.85	INK	26	Neutral	xxxxxxxx	xxxxxxxx	żółty	yellow	hit	n/a
107.1504	n/a	RESPONSE	n/a	n/a	n/a	n/a	n/a	n/a	n/a	yellow
107.1811	1.0167	ITI	n/a	n/a	n/a	n/a	n/a	n/a	n/a	n/a
108.1977	0.5167	FIXCROSS	n/a	n/a	n/a	n/a	n/a	n/a	n/a	n/a
108.7144	0.9833	INK	27	Incongruent	czerwony	red	niebieski	blue	hit	n/a
109.6742	n/a	RESPONSE	n/a	n/a	n/a	n/a	n/a	n/a	n/a	blue
109.6978	1.0167	ITI	n/a	n/a	n/a	n/a	n/a	n/a	n/a	n/a
110.7144	0.5167	FIXCROSS	n/a	n/a	n/a	n/a	n/a	n/a	n/a	n/a
111.2311	1.0333	INK	28	Incongruent	czerwony	red	żółty	yellow	hit	n/a
112.2459	n/a	RESPONSE	n/a	n/a	n/a	n/a	n/a	n/a	n/a	yellow
112.2644	1.0167	ITI	n/a	n/a	n/a	n/a	n/a	n/a	n/a	n/a
113.2811	0.5167	FIXCROSS	n/a	n/a	n/a	n/a	n/a	n/a	n/a	n/a
113.7978	0.7333	INK	29	Neutral	xxxxxxxx	xxxxxxxx	żółty	yellow	hit	n/a
114.4982	n/a	RESPONSE	n/a	n/a	n/a	n/a	n/a	n/a	n/a	yellow
114.5311	1.0167	ITI	n/a	n/a	n/a	n/a	n/a	n/a	n/a	n/a
115.5478	0.5167	FIXCROSS	n/a	n/a	n/a	n/a	n/a	n/a	n/a	n/a
116.0645	0.75	INK	30	Neutral	xxxxxxx	xxxxxxx	niebieski	blue	hit	n/a
116.7825	n/a	RESPONSE	n/a	n/a	n/a	n/a	n/a	n/a	n/a	blue
116.8145	1.0167	ITI	n/a	n/a	n/a	n/a	n/a	n/a	n/a	n/a
117.8311	0.5167	FIXCROSS	n/a	n/a	n/a	n/a	n/a	n/a	n/a	n/a
118.3478	0.95	INK	31	Neutral	xxxxxxxx	xxxxxxxx	zielony	green	hit	n/a
119.2743	n/a	RESPONSE	n/a	n/a	n/a	n/a	n/a	n/a	n/a	green
119.2978	1.0167	ITI	n/a	n/a	n/a	n/a	n/a	n/a	n/a	n/a
120.3145	0.5167	FIXCROSS	n/a	n/a	n/a	n/a	n/a	n/a	n/a	n/a
120.8312	0.8667	INK	32	Incongruent	zielony	green	żółty	yellow	hit	n/a
121.6704	n/a	RESPONSE	n/a	n/a	n/a	n/a	n/a	n/a	n/a	yellow
121.6978	1.0167	ITI	n/a	n/a	n/a	n/a	n/a	n/a	n/a	n/a
122.7145	0.5167	FIXCROSS	n/a	n/a	n/a	n/a	n/a	n/a	n/a	n/a
123.2312	0.8333	INK	33	Neutral	xxxxx	xxxxx	zielony	green	hit	n/a
124.0345	n/a	RESPONSE	n/a	n/a	n/a	n/a	n/a	n/a	n/a	green
124.0645	1.0167	ITI	n/a	n/a	n/a	n/a	n/a	n/a	n/a	n/a
125.0812	0.5167	FIXCROSS	n/a	n/a	n/a	n/a	n/a	n/a	n/a	n/a
125.5979	0.8	INK	34	Neutral	xxxxxxx	xxxxxxx	niebieski	blue	hit	n/a
126.3667	n/a	RESPONSE	n/a	n/a	n/a	n/a	n/a	n/a	n/a	blue
126.3979	1.0167	ITI	n/a	n/a	n/a	n/a	n/a	n/a	n/a	n/a
127.4145	0.5167	FIXCROSS	n/a	n/a	n/a	n/a	n/a	n/a	n/a	n/a
127.9312	0.7833	INK	35	Neutral	xxxxx	xxxxx	niebieski	blue	hit	n/a
128.6828	n/a	RESPONSE	n/a	n/a	n/a	n/a	n/a	n/a	n/a	blue
128.7145	1.0167	ITI	n/a	n/a	n/a	n/a	n/a	n/a	n/a	n/a
129.7312	0.5167	FIXCROSS	n/a	n/a	n/a	n/a	n/a	n/a	n/a	n/a
130.2479	0.7167	INK	36	Incongruent	żółty	yellow	czerwony	red	hit	n/a
130.9352	n/a	RESPONSE	n/a	n/a	n/a	n/a	n/a	n/a	n/a	red
130.9646	1.0167	ITI	n/a	n/a	n/a	n/a	n/a	n/a	n/a	n/a
131.9812	0.5167	FIXCROSS	n/a	n/a	n/a	n/a	n/a	n/a	n/a	n/a
132.4979	0.8833	INK	37	Neutral	xxxxxxxxx	xxxxxxxxx	zielony	green	hit	n/a
133.3631	n/a	RESPONSE	n/a	n/a	n/a	n/a	n/a	n/a	n/a	green
133.3813	1.0167	ITI	n/a	n/a	n/a	n/a	n/a	n/a	n/a	n/a
134.3979	0.5167	FIXCROSS	n/a	n/a	n/a	n/a	n/a	n/a	n/a	n/a
134.9146	0.8667	INK	38	Neutral	xxxxx	xxxxx	czerwony	red	hit	n/a
135.7592	n/a	RESPONSE	n/a	n/a	n/a	n/a	n/a	n/a	n/a	red
135.7813	1.0167	ITI	n/a	n/a	n/a	n/a	n/a	n/a	n/a	n/a
136.7979	0.5167	FIXCROSS	n/a	n/a	n/a	n/a	n/a	n/a	n/a	n/a
137.3146	0.8833	INK	39	Incongruent	żółty	yellow	zielony	green	hit	n/a
138.1712	n/a	RESPONSE	n/a	n/a	n/a	n/a	n/a	n/a	n/a	green
138.1979	1.0167	ITI	n/a	n/a	n/a	n/a	n/a	n/a	n/a	n/a
139.2146	0.5167	FIXCROSS	n/a	n/a	n/a	n/a	n/a	n/a	n/a	n/a
139.7313	0.8667	INK	40	Incongruent	żółty	yellow	czerwony	red	hit	n/a
140.5673	n/a	RESPONSE	n/a	n/a	n/a	n/a	n/a	n/a	n/a	red
140.598	1.0167	ITI	n/a	n/a	n/a	n/a	n/a	n/a	n/a	n/a
141.6146	0.5167	FIXCROSS	n/a	n/a	n/a	n/a	n/a	n/a	n/a	n/a
142.1313	1.0167	INK	41	Neutral	xxxxxxxx	xxxxxxxx	zielony	green	hit	n/a
143.123	n/a	RESPONSE	n/a	n/a	n/a	n/a	n/a	n/a	n/a	green
143.148	1.0167	ITI	n/a	n/a	n/a	n/a	n/a	n/a	n/a	n/a
144.1647	0.5167	FIXCROSS	n/a	n/a	n/a	n/a	n/a	n/a	n/a	n/a
144.6813	0.9667	INK	42	Neutral	xxxxxxxxx	xxxxxxxxx	czerwony	red	hit	n/a
145.615	n/a	RESPONSE	n/a	n/a	n/a	n/a	n/a	n/a	n/a	red
145.648	1.0167	ITI	n/a	n/a	n/a	n/a	n/a	n/a	n/a	n/a
146.6647	0.5167	FIXCROSS	n/a	n/a	n/a	n/a	n/a	n/a	n/a	n/a
147.1813	0.8167	INK	43	Incongruent	niebieski	blue	zielony	green	hit	n/a
147.9789	n/a	RESPONSE	n/a	n/a	n/a	n/a	n/a	n/a	n/a	green
147.998	1.0167	ITI	n/a	n/a	n/a	n/a	n/a	n/a	n/a	n/a
149.0147	0.5167	FIXCROSS	n/a	n/a	n/a	n/a	n/a	n/a	n/a	n/a
149.5313	0.9667	INK	44	Neutral	xxxxxxxxx	xxxxxxxxx	zielony	green	hit	n/a
150.4709	n/a	RESPONSE	n/a	n/a	n/a	n/a	n/a	n/a	n/a	green
150.498	1.0167	ITI	n/a	n/a	n/a	n/a	n/a	n/a	n/a	n/a
151.5147	0.5167	FIXCROSS	n/a	n/a	n/a	n/a	n/a	n/a	n/a	n/a
152.0314	0.8333	INK	45	Neutral	xxxxxxxxx	xxxxxxxxx	czerwony	red	hit	n/a
152.835	n/a	RESPONSE	n/a	n/a	n/a	n/a	n/a	n/a	n/a	red
152.8647	1.0167	ITI	n/a	n/a	n/a	n/a	n/a	n/a	n/a	n/a
153.8814	0.5167	FIXCROSS	n/a	n/a	n/a	n/a	n/a	n/a	n/a	n/a
154.3981	0.8667	INK	46	Neutral	xxxxxxx	xxxxxxx	czerwony	red	hit	n/a
155.231	n/a	RESPONSE	n/a	n/a	n/a	n/a	n/a	n/a	n/a	red
155.2647	1.0167	ITI	n/a	n/a	n/a	n/a	n/a	n/a	n/a	n/a
156.2814	0.5167	FIXCROSS	n/a	n/a	n/a	n/a	n/a	n/a	n/a	n/a
156.7981	1.0667	INK	47	Incongruent	niebieski	blue	żółty	yellow	hit	n/a
157.8347	n/a	RESPONSE	n/a	n/a	n/a	n/a	n/a	n/a	n/a	yellow
157.8647	1.0167	ITI	n/a	n/a	n/a	n/a	n/a	n/a	n/a	n/a
158.8814	0.5167	FIXCROSS	n/a	n/a	n/a	n/a	n/a	n/a	n/a	n/a
159.3981	0.95	INK	48	Neutral	xxxxxxxxx	xxxxxxxxx	żółty	yellow	hit	n/a
160.3266	n/a	RESPONSE	n/a	n/a	n/a	n/a	n/a	n/a	n/a	yellow
160.3481	1.0167	ITI	n/a	n/a	n/a	n/a	n/a	n/a	n/a	n/a
161.3648	0.5167	FIXCROSS	n/a	n/a	n/a	n/a	n/a	n/a	n/a	n/a
161.8814	0.8833	INK	49	Neutral	xxxxx	xxxxx	czerwony	red	hit	n/a
162.7386	n/a	RESPONSE	n/a	n/a	n/a	n/a	n/a	n/a	n/a	red
162.7648	1.0167	ITI	n/a	n/a	n/a	n/a	n/a	n/a	n/a	n/a
163.7815	0.5167	FIXCROSS	n/a	n/a	n/a	n/a	n/a	n/a	n/a	n/a
164.2981	1.1	INK	50	Incongruent	zielony	green	niebieski	blue	hit	n/a
165.3744	n/a	RESPONSE	n/a	n/a	n/a	n/a	n/a	n/a	n/a	blue
165.3981	1.0167	ITI	n/a	n/a	n/a	n/a	n/a	n/a	n/a	n/a
166.4148	0.5167	FIXCROSS	n/a	n/a	n/a	n/a	n/a	n/a	n/a	n/a
166.9315	0.85	INK	51	Neutral	xxxxxxxxx	xxxxxxxxx	żółty	yellow	hit	n/a
167.7545	n/a	RESPONSE	n/a	n/a	n/a	n/a	n/a	n/a	n/a	yellow
167.7815	1.0167	ITI	n/a	n/a	n/a	n/a	n/a	n/a	n/a	n/a
168.7981	0.5167	FIXCROSS	n/a	n/a	n/a	n/a	n/a	n/a	n/a	n/a
169.3148	0.7667	INK	52	Incongruent	zielony	green	niebieski	blue	hit	n/a
170.0547	n/a	RESPONSE	n/a	n/a	n/a	n/a	n/a	n/a	n/a	blue
170.0815	1.0167	ITI	n/a	n/a	n/a	n/a	n/a	n/a	n/a	n/a
171.0982	0.5166	FIXCROSS	n/a	n/a	n/a	n/a	n/a	n/a	n/a	n/a
171.6148	0.8334	INK	53	Neutral	xxxxxxxx	xxxxxxxx	żółty	yellow	hit	n/a
172.4187	n/a	RESPONSE	n/a	n/a	n/a	n/a	n/a	n/a	n/a	yellow
172.4482	1.0167	ITI	n/a	n/a	n/a	n/a	n/a	n/a	n/a	n/a
173.4648	0.5167	FIXCROSS	n/a	n/a	n/a	n/a	n/a	n/a	n/a	n/a
173.9815	0.8167	INK	54	Incongruent	żółty	yellow	zielony	green	hit	n/a
174.7669	n/a	RESPONSE	n/a	n/a	n/a	n/a	n/a	n/a	n/a	green
174.7982	1.0167	ITI	n/a	n/a	n/a	n/a	n/a	n/a	n/a	n/a
175.8149	0.5167	FIXCROSS	n/a	n/a	n/a	n/a	n/a	n/a	n/a	n/a
176.3315	0.7833	INK	55	Neutral	xxxxxxx	xxxxxxx	czerwony	red	hit	n/a
177.0831	n/a	RESPONSE	n/a	n/a	n/a	n/a	n/a	n/a	n/a	red
177.1149	1.0167	ITI	n/a	n/a	n/a	n/a	n/a	n/a	n/a	n/a
178.1315	0.5167	FIXCROSS	n/a	n/a	n/a	n/a	n/a	n/a	n/a	n/a
178.6482	0.7167	INK	56	Neutral	xxxxx	xxxxx	zielony	green	hit	n/a
179.3354	n/a	RESPONSE	n/a	n/a	n/a	n/a	n/a	n/a	n/a	green
179.3649	1.0167	ITI	n/a	n/a	n/a	n/a	n/a	n/a	n/a	n/a
180.3815	0.5167	FIXCROSS	n/a	n/a	n/a	n/a	n/a	n/a	n/a	n/a
180.8982	0.8	INK	57	Neutral	xxxxxxxx	xxxxxxxx	niebieski	blue	hit	n/a
181.6675	n/a	RESPONSE	n/a	n/a	n/a	n/a	n/a	n/a	n/a	blue
181.6982	1.0167	ITI	n/a	n/a	n/a	n/a	n/a	n/a	n/a	n/a
182.7149	0.5167	FIXCROSS	n/a	n/a	n/a	n/a	n/a	n/a	n/a	n/a
183.2316	0.6667	INK	58	Incongruent	żółty	yellow	czerwony	red	hit	n/a
183.8719	n/a	RESPONSE	n/a	n/a	n/a	n/a	n/a	n/a	n/a	red
183.8982	1.0167	ITI	n/a	n/a	n/a	n/a	n/a	n/a	n/a	n/a
184.9149	0.5167	FIXCROSS	n/a	n/a	n/a	n/a	n/a	n/a	n/a	n/a
185.4316	0.8833	INK	59	Incongruent	niebieski	blue	czerwony	red	hit	n/a
186.2838	n/a	RESPONSE	n/a	n/a	n/a	n/a	n/a	n/a	n/a	red
186.3149	1.0167	ITI	n/a	n/a	n/a	n/a	n/a	n/a	n/a	n/a
187.3316	0.5167	FIXCROSS	n/a	n/a	n/a	n/a	n/a	n/a	n/a	n/a
187.8483	0.8667	INK	60	Incongruent	żółty	yellow	niebieski	blue	hit	n/a
188.6959	n/a	RESPONSE	n/a	n/a	n/a	n/a	n/a	n/a	n/a	blue
188.7149	1.0167	ITI	n/a	n/a	n/a	n/a	n/a	n/a	n/a	n/a
189.7316	0.5167	FIXCROSS	n/a	n/a	n/a	n/a	n/a	n/a	n/a	n/a
190.2483	0.8	INK	61	Incongruent	czerwony	red	zielony	green	hit	n/a
191.028	n/a	RESPONSE	n/a	n/a	n/a	n/a	n/a	n/a	n/a	green
191.0483	1.0167	ITI	n/a	n/a	n/a	n/a	n/a	n/a	n/a	n/a
192.065	0.5167	FIXCROSS	n/a	n/a	n/a	n/a	n/a	n/a	n/a	n/a
192.5816	0.85	INK	62	Incongruent	zielony	green	czerwony	red	hit	n/a
193.4081	n/a	RESPONSE	n/a	n/a	n/a	n/a	n/a	n/a	n/a	red
193.4316	1.0167	ITI	n/a	n/a	n/a	n/a	n/a	n/a	n/a	n/a
194.4483	0.5167	FIXCROSS	n/a	n/a	n/a	n/a	n/a	n/a	n/a	n/a
194.965	0.8667	INK	63	Incongruent	czerwony	red	zielony	green	hit	n/a
195.8042	n/a	RESPONSE	n/a	n/a	n/a	n/a	n/a	n/a	n/a	green
195.8317	1.0167	ITI	n/a	n/a	n/a	n/a	n/a	n/a	n/a	n/a
196.8483	0.5167	FIXCROSS	n/a	n/a	n/a	n/a	n/a	n/a	n/a	n/a
197.365	1.0	INK	64	Neutral	xxxxxxx	xxxxxxx	żółty	yellow	hit	n/a
198.3439	n/a	RESPONSE	n/a	n/a	n/a	n/a	n/a	n/a	n/a	yellow
198.365	1.0167	ITI	n/a	n/a	n/a	n/a	n/a	n/a	n/a	n/a
199.3817	0.5167	FIXCROSS	n/a	n/a	n/a	n/a	n/a	n/a	n/a	n/a
199.8984	1.2667	INK	65	Neutral	xxxxxxx	xxxxxxx	niebieski	blue	hit	n/a
201.1394	n/a	RESPONSE	n/a	n/a	n/a	n/a	n/a	n/a	n/a	blue
201.165	1.0167	ITI	n/a	n/a	n/a	n/a	n/a	n/a	n/a	n/a
202.1817	0.5167	FIXCROSS	n/a	n/a	n/a	n/a	n/a	n/a	n/a	n/a
202.6984	0.9167	INK	66	Incongruent	zielony	green	żółty	yellow	hit	n/a
203.5834	n/a	RESPONSE	n/a	n/a	n/a	n/a	n/a	n/a	n/a	yellow
203.615	1.0167	ITI	n/a	n/a	n/a	n/a	n/a	n/a	n/a	n/a
204.6317	0.5167	FIXCROSS	n/a	n/a	n/a	n/a	n/a	n/a	n/a	n/a
205.1484	1.0333	INK	67	Incongruent	niebieski	blue	czerwony	red	hit	n/a
206.1551	n/a	RESPONSE	n/a	n/a	n/a	n/a	n/a	n/a	n/a	red
206.1817	1.0167	ITI	n/a	n/a	n/a	n/a	n/a	n/a	n/a	n/a
207.1984	0.5167	FIXCROSS	n/a	n/a	n/a	n/a	n/a	n/a	n/a	n/a
207.7151	0.7333	INK	68	Incongruent	niebieski	blue	czerwony	red	hit	n/a
208.4234	n/a	RESPONSE	n/a	n/a	n/a	n/a	n/a	n/a	n/a	red
208.4484	1.0167	ITI	n/a	n/a	n/a	n/a	n/a	n/a	n/a	n/a
209.4651	0.5167	FIXCROSS	n/a	n/a	n/a	n/a	n/a	n/a	n/a	n/a
209.9817	0.75	INK	69	Incongruent	zielony	green	czerwony	red	hit	n/a
210.7077	n/a	RESPONSE	n/a	n/a	n/a	n/a	n/a	n/a	n/a	red
210.7317	1.0167	ITI	n/a	n/a	n/a	n/a	n/a	n/a	n/a	n/a
211.7484	0.5167	FIXCROSS	n/a	n/a	n/a	n/a	n/a	n/a	n/a	n/a
212.2651	0.85	INK	70	Incongruent	niebieski	blue	żółty	yellow	hit	n/a
213.0877	n/a	RESPONSE	n/a	n/a	n/a	n/a	n/a	n/a	n/a	yellow
213.1151	1.0167	ITI	n/a	n/a	n/a	n/a	n/a	n/a	n/a	n/a
214.1318	0.5167	FIXCROSS	n/a	n/a	n/a	n/a	n/a	n/a	n/a	n/a
214.6484	0.65	INK	71	Incongruent	czerwony	red	niebieski	blue	hit	n/a
215.2762	n/a	RESPONSE	n/a	n/a	n/a	n/a	n/a	n/a	n/a	blue
215.2985	1.0167	ITI	n/a	n/a	n/a	n/a	n/a	n/a	n/a	n/a
216.3151	0.5167	FIXCROSS	n/a	n/a	n/a	n/a	n/a	n/a	n/a	n/a
216.8318	0.7833	INK	72	Neutral	xxxxxxxx	xxxxxxxx	niebieski	blue	hit	n/a
217.5923	n/a	RESPONSE	n/a	n/a	n/a	n/a	n/a	n/a	n/a	blue
217.6151	1.0833	ITI	n/a	n/a	n/a	n/a	n/a	n/a	n/a	n/a
233.4387	n/a	RESPONSE	n/a	n/a	n/a	n/a	n/a	n/a	n/a	n/a
233.4986	1.0167	ITI	n/a	n/a	n/a	n/a	n/a	n/a	n/a	n/a
234.5152	0.5167	FIXCROSS	n/a	n/a	n/a	n/a	n/a	n/a	n/a	n/a
235.0319	1.3	T_COLOR_NAME	1	Incongruent	zielony	green	czerwony	red	hit	n/a
236.298	n/a	RESPONSE	n/a	n/a	n/a	n/a	n/a	n/a	n/a	green
236.3319	0.5167	FEEDBACK	n/a	n/a	n/a	n/a	n/a	n/a	n/a	n/a
236.8486	1.0167	ITI	n/a	n/a	n/a	n/a	n/a	n/a	n/a	n/a
237.8653	0.5167	FIXCROSS	n/a	n/a	n/a	n/a	n/a	n/a	n/a	n/a
238.3819	0.8333	T_COLOR_NAME	2	Incongruent	zielony	green	żółty	yellow	hit	n/a
239.1894	n/a	RESPONSE	n/a	n/a	n/a	n/a	n/a	n/a	n/a	green
239.2153	0.5167	FEEDBACK	n/a	n/a	n/a	n/a	n/a	n/a	n/a	n/a
239.7319	1.0167	ITI	n/a	n/a	n/a	n/a	n/a	n/a	n/a	n/a
240.7486	0.5167	FIXCROSS	n/a	n/a	n/a	n/a	n/a	n/a	n/a	n/a
241.2653	0.85	T_COLOR_NAME	3	Neutral	żółty	yellow	Neutral	Neutral	hit	n/a
242.0807	n/a	RESPONSE	n/a	n/a	n/a	n/a	n/a	n/a	n/a	yellow
242.1153	0.5167	FEEDBACK	n/a	n/a	n/a	n/a	n/a	n/a	n/a	n/a
242.632	1.0167	ITI	n/a	n/a	n/a	n/a	n/a	n/a	n/a	n/a
243.6486	0.5167	FIXCROSS	n/a	n/a	n/a	n/a	n/a	n/a	n/a	n/a
244.1653	0.8	T_COLOR_NAME	4	Incongruent	czerwony	red	niebieski	blue	hit	n/a
244.9401	n/a	RESPONSE	n/a	n/a	n/a	n/a	n/a	n/a	n/a	red
244.9653	0.5167	FEEDBACK	n/a	n/a	n/a	n/a	n/a	n/a	n/a	n/a
245.482	1.0167	ITI	n/a	n/a	n/a	n/a	n/a	n/a	n/a	n/a
246.4986	0.5167	FIXCROSS	n/a	n/a	n/a	n/a	n/a	n/a	n/a	n/a
247.0153	0.8333	T_COLOR_NAME	5	Incongruent	niebieski	blue	żółty	yellow	hit	n/a
247.8154	n/a	RESPONSE	n/a	n/a	n/a	n/a	n/a	n/a	n/a	blue
247.8487	0.5167	FEEDBACK	n/a	n/a	n/a	n/a	n/a	n/a	n/a	n/a
248.3653	1.0167	ITI	n/a	n/a	n/a	n/a	n/a	n/a	n/a	n/a
249.382	0.5167	FIXCROSS	n/a	n/a	n/a	n/a	n/a	n/a	n/a	n/a
249.8987	0.7167	T_COLOR_NAME	6	Incongruent	zielony	green	niebieski	blue	hit	n/a
250.5949	n/a	RESPONSE	n/a	n/a	n/a	n/a	n/a	n/a	n/a	green
250.6153	0.5167	FEEDBACK	n/a	n/a	n/a	n/a	n/a	n/a	n/a	n/a
251.132	1.0167	ITI	n/a	n/a	n/a	n/a	n/a	n/a	n/a	n/a
252.1487	0.5167	FIXCROSS	n/a	n/a	n/a	n/a	n/a	n/a	n/a	n/a
252.6654	0.7	T_COLOR_NAME	7	Incongruent	żółty	yellow	zielony	green	hit	n/a
253.3425	n/a	RESPONSE	n/a	n/a	n/a	n/a	n/a	n/a	n/a	yellow
253.3654	0.5167	FEEDBACK	n/a	n/a	n/a	n/a	n/a	n/a	n/a	n/a
253.882	1.0167	ITI	n/a	n/a	n/a	n/a	n/a	n/a	n/a	n/a
254.8987	0.5167	FIXCROSS	n/a	n/a	n/a	n/a	n/a	n/a	n/a	n/a
255.4154	0.8167	T_COLOR_NAME	8	Incongruent	niebieski	blue	czerwony	red	hit	n/a
256.2018	n/a	RESPONSE	n/a	n/a	n/a	n/a	n/a	n/a	n/a	blue
256.232	0.5167	FEEDBACK	n/a	n/a	n/a	n/a	n/a	n/a	n/a	n/a
256.7487	1.0167	ITI	n/a	n/a	n/a	n/a	n/a	n/a	n/a	n/a
257.7654	0.5167	FIXCROSS	n/a	n/a	n/a	n/a	n/a	n/a	n/a	n/a
258.2821	0.9	T_COLOR_NAME	9	Incongruent	żółty	yellow	czerwony	red	hit	n/a
259.157	n/a	RESPONSE	n/a	n/a	n/a	n/a	n/a	n/a	n/a	yellow
259.1821	0.5167	FEEDBACK	n/a	n/a	n/a	n/a	n/a	n/a	n/a	n/a
259.6987	1.0167	ITI	n/a	n/a	n/a	n/a	n/a	n/a	n/a	n/a
260.7154	0.5167	FIXCROSS	n/a	n/a	n/a	n/a	n/a	n/a	n/a	n/a
261.2321	0.7667	T_COLOR_NAME	10	Neutral	zielony	green	Neutral	Neutral	hit	n/a
261.9685	n/a	RESPONSE	n/a	n/a	n/a	n/a	n/a	n/a	n/a	green
261.9987	0.5167	FEEDBACK	n/a	n/a	n/a	n/a	n/a	n/a	n/a	n/a
262.5154	1.0167	ITI	n/a	n/a	n/a	n/a	n/a	n/a	n/a	n/a
263.5321	0.5167	FIXCROSS	n/a	n/a	n/a	n/a	n/a	n/a	n/a	n/a
264.0488	0.7	T_COLOR_NAME	11	Neutral	niebieski	blue	Neutral	Neutral	hit	n/a
264.7161	n/a	RESPONSE	n/a	n/a	n/a	n/a	n/a	n/a	n/a	blue
264.7488	0.5167	FEEDBACK	n/a	n/a	n/a	n/a	n/a	n/a	n/a	n/a
265.2654	1.0167	ITI	n/a	n/a	n/a	n/a	n/a	n/a	n/a	n/a
266.2821	0.5167	FIXCROSS	n/a	n/a	n/a	n/a	n/a	n/a	n/a	n/a
266.7988	0.7667	T_COLOR_NAME	12	Incongruent	czerwony	red	zielony	green	hit	n/a
267.5434	n/a	RESPONSE	n/a	n/a	n/a	n/a	n/a	n/a	n/a	red
267.5655	0.5167	FEEDBACK	n/a	n/a	n/a	n/a	n/a	n/a	n/a	n/a
268.0821	1.0333	ITI	n/a	n/a	n/a	n/a	n/a	n/a	n/a	n/a
271.6807	n/a	RESPONSE	n/a	n/a	n/a	n/a	n/a	n/a	n/a	n/a
271.7488	1.0167	ITI	n/a	n/a	n/a	n/a	n/a	n/a	n/a	n/a
272.7655	0.5167	FIXCROSS	n/a	n/a	n/a	n/a	n/a	n/a	n/a	n/a
273.2822	0.8833	COLOR_NAME	1	Neutral	zielony	green	Neutral	Neutral	hit	n/a
274.1408	n/a	RESPONSE	n/a	n/a	n/a	n/a	n/a	n/a	n/a	green
274.1655	1.0167	ITI	n/a	n/a	n/a	n/a	n/a	n/a	n/a	n/a
275.1822	0.5167	FIXCROSS	n/a	n/a	n/a	n/a	n/a	n/a	n/a	n/a
275.6988	0.8167	COLOR_NAME	2	Neutral	zielony	green	Neutral	Neutral	hit	n/a
276.4891	n/a	RESPONSE	n/a	n/a	n/a	n/a	n/a	n/a	n/a	green
276.5155	1.0167	ITI	n/a	n/a	n/a	n/a	n/a	n/a	n/a	n/a
277.5322	0.5167	FIXCROSS	n/a	n/a	n/a	n/a	n/a	n/a	n/a	n/a
278.0488	0.7334	COLOR_NAME	3	Neutral	żółty	yellow	Neutral	Neutral	hit	n/a
278.7574	n/a	RESPONSE	n/a	n/a	n/a	n/a	n/a	n/a	n/a	yellow
278.7822	1.0167	ITI	n/a	n/a	n/a	n/a	n/a	n/a	n/a	n/a
279.7989	0.5167	FIXCROSS	n/a	n/a	n/a	n/a	n/a	n/a	n/a	n/a
280.3155	0.75	COLOR_NAME	4	Incongruent	żółty	yellow	zielony	green	hit	n/a
281.0416	n/a	RESPONSE	n/a	n/a	n/a	n/a	n/a	n/a	n/a	yellow
281.0655	1.0167	ITI	n/a	n/a	n/a	n/a	n/a	n/a	n/a	n/a
282.0822	0.5167	FIXCROSS	n/a	n/a	n/a	n/a	n/a	n/a	n/a	n/a
282.5989	0.7667	COLOR_NAME	5	Incongruent	niebieski	blue	żółty	yellow	hit	n/a
283.342	n/a	RESPONSE	n/a	n/a	n/a	n/a	n/a	n/a	n/a	blue
283.3655	1.0167	ITI	n/a	n/a	n/a	n/a	n/a	n/a	n/a	n/a
284.3822	0.5167	FIXCROSS	n/a	n/a	n/a	n/a	n/a	n/a	n/a	n/a
284.8989	0.7167	COLOR_NAME	6	Incongruent	czerwony	red	niebieski	blue	hit	n/a
285.5943	n/a	RESPONSE	n/a	n/a	n/a	n/a	n/a	n/a	n/a	red
285.6156	1.0167	ITI	n/a	n/a	n/a	n/a	n/a	n/a	n/a	n/a
286.6322	0.5167	FIXCROSS	n/a	n/a	n/a	n/a	n/a	n/a	n/a	n/a
287.1489	0.7833	COLOR_NAME	7	Incongruent	zielony	green	niebieski	blue	hit	n/a
287.9107	n/a	RESPONSE	n/a	n/a	n/a	n/a	n/a	n/a	n/a	green
287.9322	1.0167	ITI	n/a	n/a	n/a	n/a	n/a	n/a	n/a	n/a
288.9489	0.5167	FIXCROSS	n/a	n/a	n/a	n/a	n/a	n/a	n/a	n/a
289.4656	0.6833	COLOR_NAME	8	Incongruent	żółty	yellow	niebieski	blue	hit	n/a
290.131	n/a	RESPONSE	n/a	n/a	n/a	n/a	n/a	n/a	n/a	yellow
290.1489	1.0167	ITI	n/a	n/a	n/a	n/a	n/a	n/a	n/a	n/a
291.1656	0.5167	FIXCROSS	n/a	n/a	n/a	n/a	n/a	n/a	n/a	n/a
291.6823	0.8167	COLOR_NAME	9	Neutral	niebieski	blue	Neutral	Neutral	hit	n/a
292.4792	n/a	RESPONSE	n/a	n/a	n/a	n/a	n/a	n/a	n/a	blue
292.4989	1.0167	ITI	n/a	n/a	n/a	n/a	n/a	n/a	n/a	n/a
293.5156	0.5167	FIXCROSS	n/a	n/a	n/a	n/a	n/a	n/a	n/a	n/a
294.0323	1.1167	COLOR_NAME	10	Incongruent	czerwony	red	żółty	yellow	hit	n/a
295.1309	n/a	RESPONSE	n/a	n/a	n/a	n/a	n/a	n/a	n/a	red
295.149	1.0167	ITI	n/a	n/a	n/a	n/a	n/a	n/a	n/a	n/a
296.1656	0.5167	FIXCROSS	n/a	n/a	n/a	n/a	n/a	n/a	n/a	n/a
296.6823	0.7333	COLOR_NAME	11	Incongruent	czerwony	red	żółty	yellow	hit	n/a
297.3831	n/a	RESPONSE	n/a	n/a	n/a	n/a	n/a	n/a	n/a	red
297.4156	1.0167	ITI	n/a	n/a	n/a	n/a	n/a	n/a	n/a	n/a
298.4323	0.5167	FIXCROSS	n/a	n/a	n/a	n/a	n/a	n/a	n/a	n/a
298.949	0.6833	COLOR_NAME	12	Neutral	czerwony	red	Neutral	Neutral	hit	n/a
299.6036	n/a	RESPONSE	n/a	n/a	n/a	n/a	n/a	n/a	n/a	red
299.6323	1.0167	ITI	n/a	n/a	n/a	n/a	n/a	n/a	n/a	n/a
300.649	0.5167	FIXCROSS	n/a	n/a	n/a	n/a	n/a	n/a	n/a	n/a
301.1657	0.7167	COLOR_NAME	13	Incongruent	żółty	yellow	niebieski	blue	hit	n/a
301.8558	n/a	RESPONSE	n/a	n/a	n/a	n/a	n/a	n/a	n/a	yellow
301.8823	1.0167	ITI	n/a	n/a	n/a	n/a	n/a	n/a	n/a	n/a
302.899	0.5167	FIXCROSS	n/a	n/a	n/a	n/a	n/a	n/a	n/a	n/a
303.4157	0.8667	COLOR_NAME	14	Incongruent	zielony	green	czerwony	red	hit	n/a
304.2519	n/a	RESPONSE	n/a	n/a	n/a	n/a	n/a	n/a	n/a	green
304.2824	1.0167	ITI	n/a	n/a	n/a	n/a	n/a	n/a	n/a	n/a
305.299	0.5167	FIXCROSS	n/a	n/a	n/a	n/a	n/a	n/a	n/a	n/a
305.8157	0.7	COLOR_NAME	15	Neutral	żółty	yellow	Neutral	Neutral	hit	n/a
306.4883	n/a	RESPONSE	n/a	n/a	n/a	n/a	n/a	n/a	n/a	yellow
306.5157	1.0167	ITI	n/a	n/a	n/a	n/a	n/a	n/a	n/a	n/a
307.5324	0.5167	FIXCROSS	n/a	n/a	n/a	n/a	n/a	n/a	n/a	n/a
308.049	0.75	COLOR_NAME	16	Neutral	niebieski	blue	Neutral	Neutral	hit	n/a
308.7725	n/a	RESPONSE	n/a	n/a	n/a	n/a	n/a	n/a	n/a	blue
308.799	1.0167	ITI	n/a	n/a	n/a	n/a	n/a	n/a	n/a	n/a
309.8157	0.5167	FIXCROSS	n/a	n/a	n/a	n/a	n/a	n/a	n/a	n/a
310.3324	0.7	COLOR_NAME	17	Neutral	żółty	yellow	Neutral	Neutral	hit	n/a
311.0089	n/a	RESPONSE	n/a	n/a	n/a	n/a	n/a	n/a	n/a	yellow
311.0324	1.0167	ITI	n/a	n/a	n/a	n/a	n/a	n/a	n/a	n/a
312.0491	0.5167	FIXCROSS	n/a	n/a	n/a	n/a	n/a	n/a	n/a	n/a
312.5657	0.8167	COLOR_NAME	18	Incongruent	zielony	green	żółty	yellow	hit	n/a
313.3571	n/a	RESPONSE	n/a	n/a	n/a	n/a	n/a	n/a	n/a	green
313.3824	1.0167	ITI	n/a	n/a	n/a	n/a	n/a	n/a	n/a	n/a
314.3991	0.5167	FIXCROSS	n/a	n/a	n/a	n/a	n/a	n/a	n/a	n/a
314.9158	0.8	COLOR_NAME	19	Incongruent	zielony	green	czerwony	red	hit	n/a
315.6893	n/a	RESPONSE	n/a	n/a	n/a	n/a	n/a	n/a	n/a	green
315.7157	1.0167	ITI	n/a	n/a	n/a	n/a	n/a	n/a	n/a	n/a
316.7324	0.5167	FIXCROSS	n/a	n/a	n/a	n/a	n/a	n/a	n/a	n/a
317.2491	0.7167	COLOR_NAME	20	Neutral	niebieski	blue	Neutral	Neutral	hit	n/a
317.9416	n/a	RESPONSE	n/a	n/a	n/a	n/a	n/a	n/a	n/a	blue
317.9658	1.0167	ITI	n/a	n/a	n/a	n/a	n/a	n/a	n/a	n/a
318.9824	0.5167	FIXCROSS	n/a	n/a	n/a	n/a	n/a	n/a	n/a	n/a
319.4991	0.6833	COLOR_NAME	21	Incongruent	czerwony	red	żółty	yellow	hit	n/a
320.162	n/a	RESPONSE	n/a	n/a	n/a	n/a	n/a	n/a	n/a	red
320.1824	1.0167	ITI	n/a	n/a	n/a	n/a	n/a	n/a	n/a	n/a
321.1991	0.5167	FIXCROSS	n/a	n/a	n/a	n/a	n/a	n/a	n/a	n/a
321.7158	0.7667	COLOR_NAME	22	Neutral	zielony	green	Neutral	Neutral	hit	n/a
322.4622	n/a	RESPONSE	n/a	n/a	n/a	n/a	n/a	n/a	n/a	green
322.4825	1.0167	ITI	n/a	n/a	n/a	n/a	n/a	n/a	n/a	n/a
323.4991	0.5167	FIXCROSS	n/a	n/a	n/a	n/a	n/a	n/a	n/a	n/a
324.0158	0.7833	COLOR_NAME	23	Neutral	niebieski	blue	Neutral	Neutral	hit	n/a
324.7784	n/a	RESPONSE	n/a	n/a	n/a	n/a	n/a	n/a	n/a	blue
324.7991	1.0167	ITI	n/a	n/a	n/a	n/a	n/a	n/a	n/a	n/a
325.8158	0.5167	FIXCROSS	n/a	n/a	n/a	n/a	n/a	n/a	n/a	n/a
326.3325	0.7833	COLOR_NAME	24	Incongruent	czerwony	red	zielony	green	hit	n/a
327.0945	n/a	RESPONSE	n/a	n/a	n/a	n/a	n/a	n/a	n/a	red
327.1158	1.0167	ITI	n/a	n/a	n/a	n/a	n/a	n/a	n/a	n/a
328.1325	0.5167	FIXCROSS	n/a	n/a	n/a	n/a	n/a	n/a	n/a	n/a
328.6492	0.6833	COLOR_NAME	25	Neutral	czerwony	red	Neutral	Neutral	hit	n/a
329.3149	n/a	RESPONSE	n/a	n/a	n/a	n/a	n/a	n/a	n/a	red
329.3325	1.0167	ITI	n/a	n/a	n/a	n/a	n/a	n/a	n/a	n/a
330.3492	0.5167	FIXCROSS	n/a	n/a	n/a	n/a	n/a	n/a	n/a	n/a
330.8658	0.65	COLOR_NAME	26	Neutral	czerwony	red	Neutral	Neutral	hit	n/a
331.4874	n/a	RESPONSE	n/a	n/a	n/a	n/a	n/a	n/a	n/a	red
331.5159	1.0167	ITI	n/a	n/a	n/a	n/a	n/a	n/a	n/a	n/a
332.5325	0.5167	FIXCROSS	n/a	n/a	n/a	n/a	n/a	n/a	n/a	n/a
333.0492	0.8	COLOR_NAME	27	Incongruent	żółty	yellow	zielony	green	hit	n/a
333.8195	n/a	RESPONSE	n/a	n/a	n/a	n/a	n/a	n/a	n/a	yellow
333.8492	1.0167	ITI	n/a	n/a	n/a	n/a	n/a	n/a	n/a	n/a
334.8659	0.5167	FIXCROSS	n/a	n/a	n/a	n/a	n/a	n/a	n/a	n/a
335.3825	0.9667	COLOR_NAME	28	Incongruent	zielony	green	niebieski	blue	hit	n/a
336.3275	n/a	RESPONSE	n/a	n/a	n/a	n/a	n/a	n/a	n/a	green
336.3492	1.0167	ITI	n/a	n/a	n/a	n/a	n/a	n/a	n/a	n/a
337.3659	0.5167	FIXCROSS	n/a	n/a	n/a	n/a	n/a	n/a	n/a	n/a
337.8826	0.8333	COLOR_NAME	29	Neutral	zielony	green	Neutral	Neutral	hit	n/a
338.6916	n/a	RESPONSE	n/a	n/a	n/a	n/a	n/a	n/a	n/a	green
338.7159	1.0167	ITI	n/a	n/a	n/a	n/a	n/a	n/a	n/a	n/a
339.7326	0.5167	FIXCROSS	n/a	n/a	n/a	n/a	n/a	n/a	n/a	n/a
340.2492	0.85	COLOR_NAME	30	Incongruent	niebieski	blue	czerwony	red	hit	n/a
341.0717	n/a	RESPONSE	n/a	n/a	n/a	n/a	n/a	n/a	n/a	blue
341.0992	1.0167	ITI	n/a	n/a	n/a	n/a	n/a	n/a	n/a	n/a
342.1159	0.5167	FIXCROSS	n/a	n/a	n/a	n/a	n/a	n/a	n/a	n/a
342.6326	0.6833	COLOR_NAME	31	Neutral	zielony	green	Neutral	Neutral	hit	n/a
343.2921	n/a	RESPONSE	n/a	n/a	n/a	n/a	n/a	n/a	n/a	green
343.3159	1.0167	ITI	n/a	n/a	n/a	n/a	n/a	n/a	n/a	n/a
344.3326	0.5167	FIXCROSS	n/a	n/a	n/a	n/a	n/a	n/a	n/a	n/a
344.8493	0.7667	COLOR_NAME	32	Incongruent	zielony	green	żółty	yellow	hit	n/a
345.5923	n/a	RESPONSE	n/a	n/a	n/a	n/a	n/a	n/a	n/a	green
345.6159	1.0167	ITI	n/a	n/a	n/a	n/a	n/a	n/a	n/a	n/a
346.6326	0.5167	FIXCROSS	n/a	n/a	n/a	n/a	n/a	n/a	n/a	n/a
347.1493	0.8833	COLOR_NAME	33	Incongruent	niebieski	blue	zielony	green	hit	n/a
348.0044	n/a	RESPONSE	n/a	n/a	n/a	n/a	n/a	n/a	n/a	blue
348.0326	1.0167	ITI	n/a	n/a	n/a	n/a	n/a	n/a	n/a	n/a
349.0493	0.5167	FIXCROSS	n/a	n/a	n/a	n/a	n/a	n/a	n/a	n/a
349.566	0.8	COLOR_NAME	34	Incongruent	niebieski	blue	zielony	green	hit	n/a
350.3365	n/a	RESPONSE	n/a	n/a	n/a	n/a	n/a	n/a	n/a	blue
350.366	1.0167	ITI	n/a	n/a	n/a	n/a	n/a	n/a	n/a	n/a
351.3826	0.5167	FIXCROSS	n/a	n/a	n/a	n/a	n/a	n/a	n/a	n/a
351.8993	0.8	COLOR_NAME	35	Incongruent	czerwony	red	zielony	green	hit	n/a
352.6687	n/a	RESPONSE	n/a	n/a	n/a	n/a	n/a	n/a	n/a	red
352.6993	1.0167	ITI	n/a	n/a	n/a	n/a	n/a	n/a	n/a	n/a
353.716	0.5167	FIXCROSS	n/a	n/a	n/a	n/a	n/a	n/a	n/a	n/a
354.2327	0.9333	COLOR_NAME	36	Incongruent	żółty	yellow	zielony	green	hit	n/a
355.1447	n/a	RESPONSE	n/a	n/a	n/a	n/a	n/a	n/a	n/a	yellow
355.166	1.0167	ITI	n/a	n/a	n/a	n/a	n/a	n/a	n/a	n/a
356.1827	0.5167	FIXCROSS	n/a	n/a	n/a	n/a	n/a	n/a	n/a	n/a
356.6994	0.7333	COLOR_NAME	37	Neutral	żółty	yellow	Neutral	Neutral	hit	n/a
357.4129	n/a	RESPONSE	n/a	n/a	n/a	n/a	n/a	n/a	n/a	yellow
357.4327	1.0167	ITI	n/a	n/a	n/a	n/a	n/a	n/a	n/a	n/a
358.4494	0.5167	FIXCROSS	n/a	n/a	n/a	n/a	n/a	n/a	n/a	n/a
358.966	0.7	COLOR_NAME	38	Incongruent	zielony	green	niebieski	blue	hit	n/a
359.6333	n/a	RESPONSE	n/a	n/a	n/a	n/a	n/a	n/a	n/a	green
359.666	1.0167	ITI	n/a	n/a	n/a	n/a	n/a	n/a	n/a	n/a
360.6827	0.5167	FIXCROSS	n/a	n/a	n/a	n/a	n/a	n/a	n/a	n/a
361.1994	0.8	COLOR_NAME	39	Incongruent	żółty	yellow	niebieski	blue	hit	n/a
361.9814	n/a	RESPONSE	n/a	n/a	n/a	n/a	n/a	n/a	n/a	yellow
361.9994	1.0167	ITI	n/a	n/a	n/a	n/a	n/a	n/a	n/a	n/a
363.0161	0.5167	FIXCROSS	n/a	n/a	n/a	n/a	n/a	n/a	n/a	n/a
363.5327	0.6333	COLOR_NAME	40	Neutral	czerwony	red	Neutral	Neutral	hit	n/a
364.138	n/a	RESPONSE	n/a	n/a	n/a	n/a	n/a	n/a	n/a	red
364.1661	1.0167	ITI	n/a	n/a	n/a	n/a	n/a	n/a	n/a	n/a
365.1827	0.5167	FIXCROSS	n/a	n/a	n/a	n/a	n/a	n/a	n/a	n/a
365.6994	0.85	COLOR_NAME	41	Incongruent	żółty	yellow	czerwony	red	hit	n/a
366.5182	n/a	RESPONSE	n/a	n/a	n/a	n/a	n/a	n/a	n/a	yellow
366.5494	1.0167	ITI	n/a	n/a	n/a	n/a	n/a	n/a	n/a	n/a
367.5661	0.5167	FIXCROSS	n/a	n/a	n/a	n/a	n/a	n/a	n/a	n/a
368.0827	0.6833	COLOR_NAME	42	Incongruent	niebieski	blue	żółty	yellow	hit	n/a
368.7385	n/a	RESPONSE	n/a	n/a	n/a	n/a	n/a	n/a	n/a	blue
368.7661	1.0167	ITI	n/a	n/a	n/a	n/a	n/a	n/a	n/a	n/a
369.7828	0.5167	FIXCROSS	n/a	n/a	n/a	n/a	n/a	n/a	n/a	n/a
370.2994	0.7167	COLOR_NAME	43	Neutral	niebieski	blue	Neutral	Neutral	hit	n/a
370.9908	n/a	RESPONSE	n/a	n/a	n/a	n/a	n/a	n/a	n/a	blue
371.0161	1.0167	ITI	n/a	n/a	n/a	n/a	n/a	n/a	n/a	n/a
372.0328	0.5167	FIXCROSS	n/a	n/a	n/a	n/a	n/a	n/a	n/a	n/a
372.5494	0.6833	COLOR_NAME	44	Incongruent	czerwony	red	niebieski	blue	hit	n/a
373.2112	n/a	RESPONSE	n/a	n/a	n/a	n/a	n/a	n/a	n/a	red
373.2328	1.0167	ITI	n/a	n/a	n/a	n/a	n/a	n/a	n/a	n/a
374.2494	0.5167	FIXCROSS	n/a	n/a	n/a	n/a	n/a	n/a	n/a	n/a
374.7661	0.9	COLOR_NAME	45	Incongruent	niebieski	blue	żółty	yellow	hit	n/a
375.6392	n/a	RESPONSE	n/a	n/a	n/a	n/a	n/a	n/a	n/a	blue
375.6661	1.0167	ITI	n/a	n/a	n/a	n/a	n/a	n/a	n/a	n/a
376.6828	0.5167	FIXCROSS	n/a	n/a	n/a	n/a	n/a	n/a	n/a	n/a
377.1995	0.8333	COLOR_NAME	46	Neutral	niebieski	blue	Neutral	Neutral	hit	n/a
378.0032	n/a	RESPONSE	n/a	n/a	n/a	n/a	n/a	n/a	n/a	blue
378.0328	1.0167	ITI	n/a	n/a	n/a	n/a	n/a	n/a	n/a	n/a
379.0495	0.5167	FIXCROSS	n/a	n/a	n/a	n/a	n/a	n/a	n/a	n/a
379.5661	0.7833	COLOR_NAME	47	Neutral	żółty	yellow	Neutral	Neutral	hit	n/a
380.3194	n/a	RESPONSE	n/a	n/a	n/a	n/a	n/a	n/a	n/a	yellow
380.3495	1.0167	ITI	n/a	n/a	n/a	n/a	n/a	n/a	n/a	n/a
381.3662	0.5167	FIXCROSS	n/a	n/a	n/a	n/a	n/a	n/a	n/a	n/a
381.8828	0.7167	COLOR_NAME	48	Neutral	niebieski	blue	Neutral	Neutral	hit	n/a
382.5718	n/a	RESPONSE	n/a	n/a	n/a	n/a	n/a	n/a	n/a	blue
382.5995	1.0167	ITI	n/a	n/a	n/a	n/a	n/a	n/a	n/a	n/a
383.6162	0.5167	FIXCROSS	n/a	n/a	n/a	n/a	n/a	n/a	n/a	n/a
384.1328	0.8667	COLOR_NAME	49	Incongruent	zielony	green	czerwony	red	hit	n/a
384.9679	n/a	RESPONSE	n/a	n/a	n/a	n/a	n/a	n/a	n/a	green
384.9995	1.0167	ITI	n/a	n/a	n/a	n/a	n/a	n/a	n/a	n/a
386.0162	0.5167	FIXCROSS	n/a	n/a	n/a	n/a	n/a	n/a	n/a	n/a
386.5329	0.7833	COLOR_NAME	50	Neutral	zielony	green	Neutral	Neutral	hit	n/a
387.2841	n/a	RESPONSE	n/a	n/a	n/a	n/a	n/a	n/a	n/a	green
387.3162	1.0167	ITI	n/a	n/a	n/a	n/a	n/a	n/a	n/a	n/a
388.3329	0.5167	FIXCROSS	n/a	n/a	n/a	n/a	n/a	n/a	n/a	n/a
388.8495	1.1333	COLOR_NAME	51	Neutral	niebieski	blue	Neutral	Neutral	hit	n/a
389.9517	n/a	RESPONSE	n/a	n/a	n/a	n/a	n/a	n/a	n/a	blue
389.9829	1.0167	ITI	n/a	n/a	n/a	n/a	n/a	n/a	n/a	n/a
390.9996	0.5167	FIXCROSS	n/a	n/a	n/a	n/a	n/a	n/a	n/a	n/a
391.5162	0.8	COLOR_NAME	52	Neutral	zielony	green	Neutral	Neutral	hit	n/a
392.2839	n/a	RESPONSE	n/a	n/a	n/a	n/a	n/a	n/a	n/a	green
392.3162	1.0167	ITI	n/a	n/a	n/a	n/a	n/a	n/a	n/a	n/a
393.3329	0.5167	FIXCROSS	n/a	n/a	n/a	n/a	n/a	n/a	n/a	n/a
393.8496	0.8667	COLOR_NAME	53	Incongruent	niebieski	blue	czerwony	red	hit	n/a
394.6959	n/a	RESPONSE	n/a	n/a	n/a	n/a	n/a	n/a	n/a	blue
394.7163	1.0167	ITI	n/a	n/a	n/a	n/a	n/a	n/a	n/a	n/a
395.7329	0.5167	FIXCROSS	n/a	n/a	n/a	n/a	n/a	n/a	n/a	n/a
396.2496	0.8667	COLOR_NAME	54	Incongruent	zielony	green	żółty	yellow	hit	n/a
397.092	n/a	RESPONSE	n/a	n/a	n/a	n/a	n/a	n/a	n/a	green
397.1163	1.0167	ITI	n/a	n/a	n/a	n/a	n/a	n/a	n/a	n/a
398.1329	0.5167	FIXCROSS	n/a	n/a	n/a	n/a	n/a	n/a	n/a	n/a
398.6496	0.6833	COLOR_NAME	55	Neutral	czerwony	red	Neutral	Neutral	hit	n/a
399.3123	n/a	RESPONSE	n/a	n/a	n/a	n/a	n/a	n/a	n/a	red
399.333	1.0167	ITI	n/a	n/a	n/a	n/a	n/a	n/a	n/a	n/a
400.3496	0.5167	FIXCROSS	n/a	n/a	n/a	n/a	n/a	n/a	n/a	n/a
400.8663	0.9167	COLOR_NAME	56	Incongruent	żółty	yellow	czerwony	red	hit	n/a
401.7563	n/a	RESPONSE	n/a	n/a	n/a	n/a	n/a	n/a	n/a	yellow
401.783	1.0167	ITI	n/a	n/a	n/a	n/a	n/a	n/a	n/a	n/a
402.7996	0.5167	FIXCROSS	n/a	n/a	n/a	n/a	n/a	n/a	n/a	n/a
403.3163	0.8667	COLOR_NAME	57	Neutral	żółty	yellow	Neutral	Neutral	hit	n/a
404.1525	n/a	RESPONSE	n/a	n/a	n/a	n/a	n/a	n/a	n/a	yellow
404.183	1.0167	ITI	n/a	n/a	n/a	n/a	n/a	n/a	n/a	n/a
405.1996	0.5167	FIXCROSS	n/a	n/a	n/a	n/a	n/a	n/a	n/a	n/a
405.7163	0.9	COLOR_NAME	58	Incongruent	czerwony	red	niebieski	blue	hit	n/a
406.5965	n/a	RESPONSE	n/a	n/a	n/a	n/a	n/a	n/a	n/a	red
406.6163	1.0167	ITI	n/a	n/a	n/a	n/a	n/a	n/a	n/a	n/a
407.633	0.5167	FIXCROSS	n/a	n/a	n/a	n/a	n/a	n/a	n/a	n/a
408.1497	0.7	COLOR_NAME	59	Neutral	czerwony	red	Neutral	Neutral	hit	n/a
408.8167	n/a	RESPONSE	n/a	n/a	n/a	n/a	n/a	n/a	n/a	red
408.8497	1.0167	ITI	n/a	n/a	n/a	n/a	n/a	n/a	n/a	n/a
409.8663	0.5167	FIXCROSS	n/a	n/a	n/a	n/a	n/a	n/a	n/a	n/a
410.383	0.6833	COLOR_NAME	60	Neutral	zielony	green	Neutral	Neutral	hit	n/a
411.0372	n/a	RESPONSE	n/a	n/a	n/a	n/a	n/a	n/a	n/a	green
411.0664	1.0167	ITI	n/a	n/a	n/a	n/a	n/a	n/a	n/a	n/a
412.083	0.5167	FIXCROSS	n/a	n/a	n/a	n/a	n/a	n/a	n/a	n/a
412.5997	0.7667	COLOR_NAME	61	Neutral	czerwony	red	Neutral	Neutral	hit	n/a
413.3374	n/a	RESPONSE	n/a	n/a	n/a	n/a	n/a	n/a	n/a	red
413.3664	1.0167	ITI	n/a	n/a	n/a	n/a	n/a	n/a	n/a	n/a
414.383	0.5167	FIXCROSS	n/a	n/a	n/a	n/a	n/a	n/a	n/a	n/a
414.8997	0.9667	COLOR_NAME	62	Incongruent	niebieski	blue	czerwony	red	hit	n/a
415.8453	n/a	RESPONSE	n/a	n/a	n/a	n/a	n/a	n/a	n/a	blue
415.8664	1.0167	ITI	n/a	n/a	n/a	n/a	n/a	n/a	n/a	n/a
416.8831	0.5167	FIXCROSS	n/a	n/a	n/a	n/a	n/a	n/a	n/a	n/a
417.3997	0.9667	COLOR_NAME	63	Incongruent	czerwony	red	zielony	green	hit	n/a
418.3372	n/a	RESPONSE	n/a	n/a	n/a	n/a	n/a	n/a	n/a	red
418.3664	1.0167	ITI	n/a	n/a	n/a	n/a	n/a	n/a	n/a	n/a
419.3831	0.5167	FIXCROSS	n/a	n/a	n/a	n/a	n/a	n/a	n/a	n/a
419.8997	0.7	COLOR_NAME	64	Incongruent	niebieski	blue	zielony	green	hit	n/a
420.5736	n/a	RESPONSE	n/a	n/a	n/a	n/a	n/a	n/a	n/a	blue
420.5997	1.0167	ITI	n/a	n/a	n/a	n/a	n/a	n/a	n/a	n/a
421.6164	0.5167	FIXCROSS	n/a	n/a	n/a	n/a	n/a	n/a	n/a	n/a
422.1331	0.8833	COLOR_NAME	65	Neutral	czerwony	red	Neutral	Neutral	hit	n/a
422.9855	n/a	RESPONSE	n/a	n/a	n/a	n/a	n/a	n/a	n/a	red
423.0164	1.0167	ITI	n/a	n/a	n/a	n/a	n/a	n/a	n/a	n/a
424.0331	0.5167	FIXCROSS	n/a	n/a	n/a	n/a	n/a	n/a	n/a	n/a
424.5498	0.6333	COLOR_NAME	66	Neutral	żółty	yellow	Neutral	Neutral	hit	n/a
425.158	n/a	RESPONSE	n/a	n/a	n/a	n/a	n/a	n/a	n/a	yellow
425.1831	1.0167	ITI	n/a	n/a	n/a	n/a	n/a	n/a	n/a	n/a
426.1998	0.5167	FIXCROSS	n/a	n/a	n/a	n/a	n/a	n/a	n/a	n/a
426.7165	0.8833	COLOR_NAME	67	Neutral	zielony	green	Neutral	Neutral	hit	n/a
427.5701	n/a	RESPONSE	n/a	n/a	n/a	n/a	n/a	n/a	n/a	green
427.5998	1.0167	ITI	n/a	n/a	n/a	n/a	n/a	n/a	n/a	n/a
428.6165	0.5167	FIXCROSS	n/a	n/a	n/a	n/a	n/a	n/a	n/a	n/a
429.1331	0.6167	COLOR_NAME	68	Neutral	żółty	yellow	Neutral	Neutral	hit	n/a
429.7264	n/a	RESPONSE	n/a	n/a	n/a	n/a	n/a	n/a	n/a	yellow
429.7498	1.0167	ITI	n/a	n/a	n/a	n/a	n/a	n/a	n/a	n/a
430.7665	0.5167	FIXCROSS	n/a	n/a	n/a	n/a	n/a	n/a	n/a	n/a
431.2831	0.7	COLOR_NAME	69	Incongruent	żółty	yellow	czerwony	red	hit	n/a
431.9628	n/a	RESPONSE	n/a	n/a	n/a	n/a	n/a	n/a	n/a	yellow
431.9831	1.0167	ITI	n/a	n/a	n/a	n/a	n/a	n/a	n/a	n/a
432.9998	0.5167	FIXCROSS	n/a	n/a	n/a	n/a	n/a	n/a	n/a	n/a
433.5165	0.7833	COLOR_NAME	70	Neutral	czerwony	red	Neutral	Neutral	hit	n/a
434.279	n/a	RESPONSE	n/a	n/a	n/a	n/a	n/a	n/a	n/a	red
434.2998	1.0167	ITI	n/a	n/a	n/a	n/a	n/a	n/a	n/a	n/a
435.3165	0.5167	FIXCROSS	n/a	n/a	n/a	n/a	n/a	n/a	n/a	n/a
435.8332	0.6167	COLOR_NAME	71	Neutral	żółty	yellow	Neutral	Neutral	hit	n/a
436.4195	n/a	RESPONSE	n/a	n/a	n/a	n/a	n/a	n/a	n/a	yellow
436.4498	1.0167	ITI	n/a	n/a	n/a	n/a	n/a	n/a	n/a	n/a
437.4665	0.5167	FIXCROSS	n/a	n/a	n/a	n/a	n/a	n/a	n/a	n/a
437.9832	0.6167	COLOR_NAME	72	Neutral	niebieski	blue	Neutral	Neutral	hit	n/a
438.5761	n/a	RESPONSE	n/a	n/a	n/a	n/a	n/a	n/a	n/a	blue
438.5999	1.0333	ITI	n/a	n/a	n/a	n/a	n/a	n/a	n/a	n/a
441.7708	n/a	RESPONSE	n/a	n/a	n/a	n/a	n/a	n/a	n/a	n/a
