onset	duration	trial_type	trial_number	stroop_condition	stim_text(PL)	stim_text(eng)	stim_color(PL)	stim_color(eng)	response_type	response_color
0.0	n/a	RESPONSE	n/a	n/a	n/a	n/a	n/a	n/a	n/a	n/a
0.0545	1.0167	ITI	n/a	n/a	n/a	n/a	n/a	n/a	n/a	n/a
1.0712	0.5167	FIXCROSS	n/a	n/a	n/a	n/a	n/a	n/a	n/a	n/a
1.5879	1.45	T_INK	1	Incongruent	żółty	yellow	czerwony	red	hit	n/a
3.0041	n/a	RESPONSE	n/a	n/a	n/a	n/a	n/a	n/a	n/a	red
3.0379	0.5167	FEEDBACK	n/a	n/a	n/a	n/a	n/a	n/a	n/a	n/a
3.5546	1.0167	ITI	n/a	n/a	n/a	n/a	n/a	n/a	n/a	n/a
4.5712	0.5167	FIXCROSS	n/a	n/a	n/a	n/a	n/a	n/a	n/a	n/a
5.0879	1.4333	T_INK	2	Neutral	xxxxx	xxxxx	niebieski	blue	hit	n/a
6.4874	n/a	RESPONSE	n/a	n/a	n/a	n/a	n/a	n/a	n/a	blue
6.5213	0.5167	FEEDBACK	n/a	n/a	n/a	n/a	n/a	n/a	n/a	n/a
7.0379	1.0167	ITI	n/a	n/a	n/a	n/a	n/a	n/a	n/a	n/a
8.0546	0.5167	FIXCROSS	n/a	n/a	n/a	n/a	n/a	n/a	n/a	n/a
8.5713	0.9667	T_INK	3	Incongruent	zielony	green	niebieski	blue	incorrect	n/a
9.5074	n/a	RESPONSE	n/a	n/a	n/a	n/a	n/a	n/a	n/a	green
9.5379	0.5167	FEEDBACK	n/a	n/a	n/a	n/a	n/a	n/a	n/a	n/a
10.0546	1.0167	ITI	n/a	n/a	n/a	n/a	n/a	n/a	n/a	n/a
11.0713	0.5167	FIXCROSS	n/a	n/a	n/a	n/a	n/a	n/a	n/a	n/a
11.588	0.9	T_INK	4	Incongruent	zielony	green	żółty	yellow	hit	n/a
12.4635	n/a	RESPONSE	n/a	n/a	n/a	n/a	n/a	n/a	n/a	yellow
12.488	0.5167	FEEDBACK	n/a	n/a	n/a	n/a	n/a	n/a	n/a	n/a
13.0046	1.0167	ITI	n/a	n/a	n/a	n/a	n/a	n/a	n/a	n/a
14.0213	0.5167	FIXCROSS	n/a	n/a	n/a	n/a	n/a	n/a	n/a	n/a
14.538	0.7333	T_INK	5	Incongruent	niebieski	blue	czerwony	red	hit	n/a
15.2438	n/a	RESPONSE	n/a	n/a	n/a	n/a	n/a	n/a	n/a	red
15.2713	0.5167	FEEDBACK	n/a	n/a	n/a	n/a	n/a	n/a	n/a	n/a
15.788	1.0167	ITI	n/a	n/a	n/a	n/a	n/a	n/a	n/a	n/a
16.8047	0.5167	FIXCROSS	n/a	n/a	n/a	n/a	n/a	n/a	n/a	n/a
17.3213	0.65	T_INK	6	Neutral	xxxxxxxx	xxxxxxxx	niebieski	blue	hit	n/a
17.9443	n/a	RESPONSE	n/a	n/a	n/a	n/a	n/a	n/a	n/a	blue
17.9713	0.5167	FEEDBACK	n/a	n/a	n/a	n/a	n/a	n/a	n/a	n/a
18.488	1.0167	ITI	n/a	n/a	n/a	n/a	n/a	n/a	n/a	n/a
19.5047	0.5167	FIXCROSS	n/a	n/a	n/a	n/a	n/a	n/a	n/a	n/a
20.0214	1.0334	T_INK	7	Neutral	xxxxxxxx	xxxxxxxx	żółty	yellow	hit	n/a
21.0281	n/a	RESPONSE	n/a	n/a	n/a	n/a	n/a	n/a	n/a	yellow
21.0547	0.5167	FEEDBACK	n/a	n/a	n/a	n/a	n/a	n/a	n/a	n/a
21.5714	1.0167	ITI	n/a	n/a	n/a	n/a	n/a	n/a	n/a	n/a
22.588	0.5167	FIXCROSS	n/a	n/a	n/a	n/a	n/a	n/a	n/a	n/a
23.1047	0.8833	T_INK	8	Incongruent	zielony	green	czerwony	red	hit	n/a
23.9682	n/a	RESPONSE	n/a	n/a	n/a	n/a	n/a	n/a	n/a	red
23.9881	0.5167	FEEDBACK	n/a	n/a	n/a	n/a	n/a	n/a	n/a	n/a
24.5047	1.0167	ITI	n/a	n/a	n/a	n/a	n/a	n/a	n/a	n/a
25.5214	0.5167	FIXCROSS	n/a	n/a	n/a	n/a	n/a	n/a	n/a	n/a
26.0381	0.9667	T_INK	9	Incongruent	niebieski	blue	zielony	green	hit	n/a
26.9723	n/a	RESPONSE	n/a	n/a	n/a	n/a	n/a	n/a	n/a	green
27.0047	0.5167	FEEDBACK	n/a	n/a	n/a	n/a	n/a	n/a	n/a	n/a
27.5214	1.0167	ITI	n/a	n/a	n/a	n/a	n/a	n/a	n/a	n/a
28.5381	0.5167	FIXCROSS	n/a	n/a	n/a	n/a	n/a	n/a	n/a	n/a
29.0548	0.7167	T_INK	10	Neutral	xxxxxxxxx	xxxxxxxxx	żółty	yellow	hit	n/a
29.7367	n/a	RESPONSE	n/a	n/a	n/a	n/a	n/a	n/a	n/a	yellow
29.7714	0.5167	FEEDBACK	n/a	n/a	n/a	n/a	n/a	n/a	n/a	n/a
30.2881	1.0167	ITI	n/a	n/a	n/a	n/a	n/a	n/a	n/a	n/a
31.3048	0.5167	FIXCROSS	n/a	n/a	n/a	n/a	n/a	n/a	n/a	n/a
31.8214	1.1	T_INK	11	Incongruent	czerwony	red	niebieski	blue	hit	n/a
32.9005	n/a	RESPONSE	n/a	n/a	n/a	n/a	n/a	n/a	n/a	blue
32.9215	0.5167	FEEDBACK	n/a	n/a	n/a	n/a	n/a	n/a	n/a	n/a
33.4381	1.0167	ITI	n/a	n/a	n/a	n/a	n/a	n/a	n/a	n/a
34.4548	0.5167	FIXCROSS	n/a	n/a	n/a	n/a	n/a	n/a	n/a	n/a
34.9715	0.7833	T_INK	12	Neutral	xxxxxxxxx	xxxxxxxxx	czerwony	red	hit	n/a
35.7287	n/a	RESPONSE	n/a	n/a	n/a	n/a	n/a	n/a	n/a	red
35.7548	0.5167	FEEDBACK	n/a	n/a	n/a	n/a	n/a	n/a	n/a	n/a
36.2715	1.0333	ITI	n/a	n/a	n/a	n/a	n/a	n/a	n/a	n/a
44.4851	n/a	RESPONSE	n/a	n/a	n/a	n/a	n/a	n/a	n/a	n/a
44.5382	1.0167	ITI	n/a	n/a	n/a	n/a	n/a	n/a	n/a	n/a
45.5549	0.5167	FIXCROSS	n/a	n/a	n/a	n/a	n/a	n/a	n/a	n/a
46.0715	0.9333	INK	1	Incongruent	niebieski	blue	żółty	yellow	hit	n/a
46.9778	n/a	RESPONSE	n/a	n/a	n/a	n/a	n/a	n/a	n/a	yellow
47.0049	1.0167	ITI	n/a	n/a	n/a	n/a	n/a	n/a	n/a	n/a
48.0216	0.5167	FIXCROSS	n/a	n/a	n/a	n/a	n/a	n/a	n/a	n/a
48.5382	0.7167	INK	2	Neutral	xxxxx	xxxxx	zielony	green	incorrect	n/a
49.2308	n/a	RESPONSE	n/a	n/a	n/a	n/a	n/a	n/a	n/a	red
49.2549	1.0167	ITI	n/a	n/a	n/a	n/a	n/a	n/a	n/a	n/a
50.2716	0.5167	FIXCROSS	n/a	n/a	n/a	n/a	n/a	n/a	n/a	n/a
50.7883	0.8833	INK	3	Neutral	xxxxxxxx	xxxxxxxx	żółty	yellow	hit	n/a
51.6437	n/a	RESPONSE	n/a	n/a	n/a	n/a	n/a	n/a	n/a	yellow
51.6716	1.0167	ITI	n/a	n/a	n/a	n/a	n/a	n/a	n/a	n/a
52.6883	0.5167	FIXCROSS	n/a	n/a	n/a	n/a	n/a	n/a	n/a	n/a
53.2049	0.7167	INK	4	Neutral	xxxxxxxxx	xxxxxxxxx	czerwony	red	hit	n/a
53.8966	n/a	RESPONSE	n/a	n/a	n/a	n/a	n/a	n/a	n/a	red
53.9216	1.0167	ITI	n/a	n/a	n/a	n/a	n/a	n/a	n/a	n/a
54.9383	0.5167	FIXCROSS	n/a	n/a	n/a	n/a	n/a	n/a	n/a	n/a
55.4549	1.1833	INK	5	Neutral	xxxxxxxxx	xxxxxxxxx	czerwony	red	hit	n/a
56.6132	n/a	RESPONSE	n/a	n/a	n/a	n/a	n/a	n/a	n/a	red
56.6383	1.0167	ITI	n/a	n/a	n/a	n/a	n/a	n/a	n/a	n/a
57.655	0.5167	FIXCROSS	n/a	n/a	n/a	n/a	n/a	n/a	n/a	n/a
58.1716	1.2167	INK	6	Incongruent	żółty	yellow	czerwony	red	hit	n/a
59.3614	n/a	RESPONSE	n/a	n/a	n/a	n/a	n/a	n/a	n/a	red
59.3883	1.0167	ITI	n/a	n/a	n/a	n/a	n/a	n/a	n/a	n/a
60.405	0.5167	FIXCROSS	n/a	n/a	n/a	n/a	n/a	n/a	n/a	n/a
60.9217	0.6833	INK	7	Incongruent	zielony	green	żółty	yellow	hit	n/a
61.5825	n/a	RESPONSE	n/a	n/a	n/a	n/a	n/a	n/a	n/a	yellow
61.605	1.0167	ITI	n/a	n/a	n/a	n/a	n/a	n/a	n/a	n/a
62.6217	0.5167	FIXCROSS	n/a	n/a	n/a	n/a	n/a	n/a	n/a	n/a
63.1383	1.0167	INK	8	Neutral	xxxxx	xxxxx	czerwony	red	hit	n/a
64.1233	n/a	RESPONSE	n/a	n/a	n/a	n/a	n/a	n/a	n/a	red
64.155	1.0167	ITI	n/a	n/a	n/a	n/a	n/a	n/a	n/a	n/a
65.1717	0.5167	FIXCROSS	n/a	n/a	n/a	n/a	n/a	n/a	n/a	n/a
65.6884	0.7	INK	9	Neutral	xxxxxxx	xxxxxxx	niebieski	blue	hit	n/a
66.3602	n/a	RESPONSE	n/a	n/a	n/a	n/a	n/a	n/a	n/a	blue
66.3884	1.0167	ITI	n/a	n/a	n/a	n/a	n/a	n/a	n/a	n/a
67.405	0.5167	FIXCROSS	n/a	n/a	n/a	n/a	n/a	n/a	n/a	n/a
67.9217	0.8667	INK	10	Incongruent	żółty	yellow	zielony	green	hit	n/a
68.7571	n/a	RESPONSE	n/a	n/a	n/a	n/a	n/a	n/a	n/a	green
68.7884	1.0167	ITI	n/a	n/a	n/a	n/a	n/a	n/a	n/a	n/a
69.8051	0.5167	FIXCROSS	n/a	n/a	n/a	n/a	n/a	n/a	n/a	n/a
70.3217	0.8167	INK	11	Incongruent	żółty	yellow	niebieski	blue	hit	n/a
71.106	n/a	RESPONSE	n/a	n/a	n/a	n/a	n/a	n/a	n/a	blue
71.1384	1.0167	ITI	n/a	n/a	n/a	n/a	n/a	n/a	n/a	n/a
72.1551	0.5167	FIXCROSS	n/a	n/a	n/a	n/a	n/a	n/a	n/a	n/a
72.6717	0.8667	INK	12	Neutral	xxxxxxxxx	xxxxxxxxx	czerwony	red	hit	n/a
73.5188	n/a	RESPONSE	n/a	n/a	n/a	n/a	n/a	n/a	n/a	red
73.5384	1.0167	ITI	n/a	n/a	n/a	n/a	n/a	n/a	n/a	n/a
74.5551	0.5167	FIXCROSS	n/a	n/a	n/a	n/a	n/a	n/a	n/a	n/a
75.0718	1.1333	INK	13	Neutral	xxxxx	xxxxx	zielony	green	hit	n/a
76.1872	n/a	RESPONSE	n/a	n/a	n/a	n/a	n/a	n/a	n/a	green
76.2051	1.0167	ITI	n/a	n/a	n/a	n/a	n/a	n/a	n/a	n/a
77.2218	0.5167	FIXCROSS	n/a	n/a	n/a	n/a	n/a	n/a	n/a	n/a
77.7384	0.95	INK	14	Neutral	xxxxxxx	xxxxxxx	czerwony	red	hit	n/a
78.6639	n/a	RESPONSE	n/a	n/a	n/a	n/a	n/a	n/a	n/a	red
78.6885	1.0167	ITI	n/a	n/a	n/a	n/a	n/a	n/a	n/a	n/a
79.7051	0.5167	FIXCROSS	n/a	n/a	n/a	n/a	n/a	n/a	n/a	n/a
80.2218	0.95	INK	15	Incongruent	żółty	yellow	niebieski	blue	hit	n/a
81.1407	n/a	RESPONSE	n/a	n/a	n/a	n/a	n/a	n/a	n/a	blue
81.1718	1.0167	ITI	n/a	n/a	n/a	n/a	n/a	n/a	n/a	n/a
82.1885	0.5167	FIXCROSS	n/a	n/a	n/a	n/a	n/a	n/a	n/a	n/a
82.7051	0.7667	INK	16	Neutral	xxxxxxx	xxxxxxx	żółty	yellow	hit	n/a
83.4416	n/a	RESPONSE	n/a	n/a	n/a	n/a	n/a	n/a	n/a	yellow
83.4718	1.0167	ITI	n/a	n/a	n/a	n/a	n/a	n/a	n/a	n/a
84.4885	0.5167	FIXCROSS	n/a	n/a	n/a	n/a	n/a	n/a	n/a	n/a
85.0052	0.7333	INK	17	Incongruent	niebieski	blue	zielony	green	hit	n/a
85.7106	n/a	RESPONSE	n/a	n/a	n/a	n/a	n/a	n/a	n/a	green
85.7385	1.0167	ITI	n/a	n/a	n/a	n/a	n/a	n/a	n/a	n/a
86.7552	0.5167	FIXCROSS	n/a	n/a	n/a	n/a	n/a	n/a	n/a	n/a
87.2718	0.6	INK	18	Incongruent	niebieski	blue	zielony	green	hit	n/a
87.8518	n/a	RESPONSE	n/a	n/a	n/a	n/a	n/a	n/a	n/a	green
87.8718	1.0167	ITI	n/a	n/a	n/a	n/a	n/a	n/a	n/a	n/a
88.8885	0.5167	FIXCROSS	n/a	n/a	n/a	n/a	n/a	n/a	n/a	n/a
89.4052	0.5667	INK	19	Neutral	xxxxxxxxx	xxxxxxxxx	zielony	green	hit	n/a
89.9451	n/a	RESPONSE	n/a	n/a	n/a	n/a	n/a	n/a	n/a	green
89.9719	1.0167	ITI	n/a	n/a	n/a	n/a	n/a	n/a	n/a	n/a
90.9885	0.5167	FIXCROSS	n/a	n/a	n/a	n/a	n/a	n/a	n/a	n/a
91.5052	0.5333	INK	20	Neutral	xxxxx	xxxxx	zielony	green	hit	n/a
92.0062	n/a	RESPONSE	n/a	n/a	n/a	n/a	n/a	n/a	n/a	green
92.0385	1.0167	ITI	n/a	n/a	n/a	n/a	n/a	n/a	n/a	n/a
93.0552	0.5167	FIXCROSS	n/a	n/a	n/a	n/a	n/a	n/a	n/a	n/a
93.5719	0.9	INK	21	Incongruent	żółty	yellow	niebieski	blue	hit	n/a
94.4511	n/a	RESPONSE	n/a	n/a	n/a	n/a	n/a	n/a	n/a	blue
94.4719	1.0167	ITI	n/a	n/a	n/a	n/a	n/a	n/a	n/a	n/a
95.4886	0.5167	FIXCROSS	n/a	n/a	n/a	n/a	n/a	n/a	n/a	n/a
96.0052	0.6833	INK	22	Incongruent	czerwony	red	niebieski	blue	hit	n/a
96.6561	n/a	RESPONSE	n/a	n/a	n/a	n/a	n/a	n/a	n/a	blue
96.6886	1.0167	ITI	n/a	n/a	n/a	n/a	n/a	n/a	n/a	n/a
97.7053	0.5167	FIXCROSS	n/a	n/a	n/a	n/a	n/a	n/a	n/a	n/a
98.2219	0.8167	INK	23	Neutral	xxxxxxxxx	xxxxxxxxx	zielony	green	incorrect	n/a
99.0051	n/a	RESPONSE	n/a	n/a	n/a	n/a	n/a	n/a	n/a	red
99.0386	1.0167	ITI	n/a	n/a	n/a	n/a	n/a	n/a	n/a	n/a
100.0553	0.5167	FIXCROSS	n/a	n/a	n/a	n/a	n/a	n/a	n/a	n/a
100.5719	0.7833	INK	24	Incongruent	czerwony	red	żółty	yellow	hit	n/a
101.3219	n/a	RESPONSE	n/a	n/a	n/a	n/a	n/a	n/a	n/a	yellow
101.3553	1.0167	ITI	n/a	n/a	n/a	n/a	n/a	n/a	n/a	n/a
102.372	0.5167	FIXCROSS	n/a	n/a	n/a	n/a	n/a	n/a	n/a	n/a
102.8886	0.6333	INK	25	Neutral	xxxxxxxx	xxxxxxxx	żółty	yellow	hit	n/a
103.4951	n/a	RESPONSE	n/a	n/a	n/a	n/a	n/a	n/a	n/a	yellow
103.522	1.0167	ITI	n/a	n/a	n/a	n/a	n/a	n/a	n/a	n/a
104.5386	0.5167	FIXCROSS	n/a	n/a	n/a	n/a	n/a	n/a	n/a	n/a
105.0553	0.9833	INK	26	Incongruent	czerwony	red	zielony	green	hit	n/a
106.0198	n/a	RESPONSE	n/a	n/a	n/a	n/a	n/a	n/a	n/a	green
106.0386	1.0167	ITI	n/a	n/a	n/a	n/a	n/a	n/a	n/a	n/a
107.0553	0.5167	FIXCROSS	n/a	n/a	n/a	n/a	n/a	n/a	n/a	n/a
107.572	0.8	INK	27	Incongruent	zielony	green	niebieski	blue	hit	n/a
108.3527	n/a	RESPONSE	n/a	n/a	n/a	n/a	n/a	n/a	n/a	blue
108.372	1.0167	ITI	n/a	n/a	n/a	n/a	n/a	n/a	n/a	n/a
109.3887	0.5167	FIXCROSS	n/a	n/a	n/a	n/a	n/a	n/a	n/a	n/a
109.9053	0.7167	INK	28	Neutral	xxxxxxxxx	xxxxxxxxx	żółty	yellow	hit	n/a
110.5898	n/a	RESPONSE	n/a	n/a	n/a	n/a	n/a	n/a	n/a	yellow
110.622	1.0167	ITI	n/a	n/a	n/a	n/a	n/a	n/a	n/a	n/a
111.6387	0.5167	FIXCROSS	n/a	n/a	n/a	n/a	n/a	n/a	n/a	n/a
112.1554	0.5667	INK	29	Neutral	xxxxx	xxxxx	niebieski	blue	hit	n/a
112.699	n/a	RESPONSE	n/a	n/a	n/a	n/a	n/a	n/a	n/a	blue
112.722	1.0167	ITI	n/a	n/a	n/a	n/a	n/a	n/a	n/a	n/a
113.7387	0.5167	FIXCROSS	n/a	n/a	n/a	n/a	n/a	n/a	n/a	n/a
114.2554	0.7333	INK	30	Neutral	xxxxxxxxx	xxxxxxxxx	zielony	green	hit	n/a
114.968	n/a	RESPONSE	n/a	n/a	n/a	n/a	n/a	n/a	n/a	green
114.9886	1.0168	ITI	n/a	n/a	n/a	n/a	n/a	n/a	n/a	n/a
116.0054	0.5167	FIXCROSS	n/a	n/a	n/a	n/a	n/a	n/a	n/a	n/a
116.5221	0.4167	INK	31	Incongruent	żółty	yellow	czerwony	red	hit	n/a
116.9175	n/a	RESPONSE	n/a	n/a	n/a	n/a	n/a	n/a	n/a	red
116.9387	1.0167	ITI	n/a	n/a	n/a	n/a	n/a	n/a	n/a	n/a
117.9554	0.5167	FIXCROSS	n/a	n/a	n/a	n/a	n/a	n/a	n/a	n/a
118.4721	0.7	INK	32	Incongruent	czerwony	red	żółty	yellow	hit	n/a
119.1545	n/a	RESPONSE	n/a	n/a	n/a	n/a	n/a	n/a	n/a	yellow
119.1721	1.0167	ITI	n/a	n/a	n/a	n/a	n/a	n/a	n/a	n/a
120.1887	0.5167	FIXCROSS	n/a	n/a	n/a	n/a	n/a	n/a	n/a	n/a
120.7054	0.7167	INK	33	Neutral	xxxxx	xxxxx	czerwony	red	hit	n/a
121.3914	n/a	RESPONSE	n/a	n/a	n/a	n/a	n/a	n/a	n/a	red
121.4221	1.0167	ITI	n/a	n/a	n/a	n/a	n/a	n/a	n/a	n/a
122.4388	0.5167	FIXCROSS	n/a	n/a	n/a	n/a	n/a	n/a	n/a	n/a
122.9554	0.7833	INK	34	Incongruent	niebieski	blue	czerwony	red	hit	n/a
123.7084	n/a	RESPONSE	n/a	n/a	n/a	n/a	n/a	n/a	n/a	red
123.7388	1.0167	ITI	n/a	n/a	n/a	n/a	n/a	n/a	n/a	n/a
124.7554	0.5167	FIXCROSS	n/a	n/a	n/a	n/a	n/a	n/a	n/a	n/a
125.2721	1.2	INK	35	Neutral	xxxxx	xxxxx	niebieski	blue	hit	n/a
126.4407	n/a	RESPONSE	n/a	n/a	n/a	n/a	n/a	n/a	n/a	blue
126.4721	1.0167	ITI	n/a	n/a	n/a	n/a	n/a	n/a	n/a	n/a
127.4888	0.5167	FIXCROSS	n/a	n/a	n/a	n/a	n/a	n/a	n/a	n/a
128.0055	0.7334	INK	36	Incongruent	zielony	green	żółty	yellow	hit	n/a
128.7099	n/a	RESPONSE	n/a	n/a	n/a	n/a	n/a	n/a	n/a	yellow
128.7388	1.0167	ITI	n/a	n/a	n/a	n/a	n/a	n/a	n/a	n/a
129.7555	0.5167	FIXCROSS	n/a	n/a	n/a	n/a	n/a	n/a	n/a	n/a
130.2722	0.4667	INK	37	Neutral	xxxxxxxxx	xxxxxxxxx	żółty	yellow	hit	n/a
130.7072	n/a	RESPONSE	n/a	n/a	n/a	n/a	n/a	n/a	n/a	yellow
130.7388	1.0167	ITI	n/a	n/a	n/a	n/a	n/a	n/a	n/a	n/a
131.7555	0.5167	FIXCROSS	n/a	n/a	n/a	n/a	n/a	n/a	n/a	n/a
132.2722	0.5333	INK	38	Incongruent	czerwony	red	zielony	green	hit	n/a
132.7844	n/a	RESPONSE	n/a	n/a	n/a	n/a	n/a	n/a	n/a	green
132.8055	1.0167	ITI	n/a	n/a	n/a	n/a	n/a	n/a	n/a	n/a
133.8222	0.5167	FIXCROSS	n/a	n/a	n/a	n/a	n/a	n/a	n/a	n/a
134.3388	0.75	INK	39	Incongruent	niebieski	blue	czerwony	red	hit	n/a
135.0694	n/a	RESPONSE	n/a	n/a	n/a	n/a	n/a	n/a	n/a	red
135.0889	1.0167	ITI	n/a	n/a	n/a	n/a	n/a	n/a	n/a	n/a
136.1055	0.5167	FIXCROSS	n/a	n/a	n/a	n/a	n/a	n/a	n/a	n/a
136.6222	0.7167	INK	40	Neutral	xxxxxxx	xxxxxxx	żółty	yellow	hit	n/a
137.3065	n/a	RESPONSE	n/a	n/a	n/a	n/a	n/a	n/a	n/a	yellow
137.3389	1.0167	ITI	n/a	n/a	n/a	n/a	n/a	n/a	n/a	n/a
138.3555	0.5167	FIXCROSS	n/a	n/a	n/a	n/a	n/a	n/a	n/a	n/a
138.8722	0.5333	INK	41	Incongruent	niebieski	blue	żółty	yellow	hit	n/a
139.3837	n/a	RESPONSE	n/a	n/a	n/a	n/a	n/a	n/a	n/a	yellow
139.4056	1.0167	ITI	n/a	n/a	n/a	n/a	n/a	n/a	n/a	n/a
140.4222	0.5167	FIXCROSS	n/a	n/a	n/a	n/a	n/a	n/a	n/a	n/a
140.9389	0.4833	INK	42	Neutral	xxxxxxxxx	xxxxxxxxx	żółty	yellow	hit	n/a
141.397	n/a	RESPONSE	n/a	n/a	n/a	n/a	n/a	n/a	n/a	yellow
141.4222	1.0167	ITI	n/a	n/a	n/a	n/a	n/a	n/a	n/a	n/a
142.4389	0.5167	FIXCROSS	n/a	n/a	n/a	n/a	n/a	n/a	n/a	n/a
142.9556	1.0	INK	43	Incongruent	zielony	green	niebieski	blue	hit	n/a
143.9375	n/a	RESPONSE	n/a	n/a	n/a	n/a	n/a	n/a	n/a	blue
143.9556	1.0167	ITI	n/a	n/a	n/a	n/a	n/a	n/a	n/a	n/a
144.9723	0.5167	FIXCROSS	n/a	n/a	n/a	n/a	n/a	n/a	n/a	n/a
145.4889	1.0333	INK	44	Incongruent	czerwony	red	zielony	green	hit	n/a
146.4941	n/a	RESPONSE	n/a	n/a	n/a	n/a	n/a	n/a	n/a	green
146.5223	1.0167	ITI	n/a	n/a	n/a	n/a	n/a	n/a	n/a	n/a
147.5389	0.5167	FIXCROSS	n/a	n/a	n/a	n/a	n/a	n/a	n/a	n/a
148.0556	0.6333	INK	45	Neutral	xxxxxxxx	xxxxxxxx	żółty	yellow	hit	n/a
148.6672	n/a	RESPONSE	n/a	n/a	n/a	n/a	n/a	n/a	n/a	yellow
148.6889	1.0167	ITI	n/a	n/a	n/a	n/a	n/a	n/a	n/a	n/a
149.7056	0.5167	FIXCROSS	n/a	n/a	n/a	n/a	n/a	n/a	n/a	n/a
150.2223	0.7333	INK	46	Neutral	xxxxxxxx	xxxxxxxx	niebieski	blue	hit	n/a
150.9363	n/a	RESPONSE	n/a	n/a	n/a	n/a	n/a	n/a	n/a	blue
150.9556	1.0167	ITI	n/a	n/a	n/a	n/a	n/a	n/a	n/a	n/a
151.9723	0.5167	FIXCROSS	n/a	n/a	n/a	n/a	n/a	n/a	n/a	n/a
152.489	0.85	INK	47	Neutral	xxxxxxx	xxxxxxx	czerwony	red	hit	n/a
153.3172	n/a	RESPONSE	n/a	n/a	n/a	n/a	n/a	n/a	n/a	red
153.339	1.0167	ITI	n/a	n/a	n/a	n/a	n/a	n/a	n/a	n/a
154.3557	0.5167	FIXCROSS	n/a	n/a	n/a	n/a	n/a	n/a	n/a	n/a
154.8723	0.6333	INK	48	Incongruent	zielony	green	niebieski	blue	hit	n/a
155.4743	n/a	RESPONSE	n/a	n/a	n/a	n/a	n/a	n/a	n/a	blue
155.5057	1.0167	ITI	n/a	n/a	n/a	n/a	n/a	n/a	n/a	n/a
156.5223	0.5167	FIXCROSS	n/a	n/a	n/a	n/a	n/a	n/a	n/a	n/a
157.039	0.6333	INK	49	Incongruent	zielony	green	czerwony	red	hit	n/a
157.6474	n/a	RESPONSE	n/a	n/a	n/a	n/a	n/a	n/a	n/a	red
157.6723	1.0167	ITI	n/a	n/a	n/a	n/a	n/a	n/a	n/a	n/a
158.689	0.5167	FIXCROSS	n/a	n/a	n/a	n/a	n/a	n/a	n/a	n/a
159.2057	0.85	INK	50	Neutral	xxxxxxx	xxxxxxx	żółty	yellow	hit	n/a
160.0282	n/a	RESPONSE	n/a	n/a	n/a	n/a	n/a	n/a	n/a	yellow
160.0557	1.0167	ITI	n/a	n/a	n/a	n/a	n/a	n/a	n/a	n/a
161.0724	0.5167	FIXCROSS	n/a	n/a	n/a	n/a	n/a	n/a	n/a	n/a
161.589	0.95	INK	51	Incongruent	zielony	green	czerwony	red	hit	n/a
162.521	n/a	RESPONSE	n/a	n/a	n/a	n/a	n/a	n/a	n/a	red
162.5391	1.0167	ITI	n/a	n/a	n/a	n/a	n/a	n/a	n/a	n/a
163.5557	0.5167	FIXCROSS	n/a	n/a	n/a	n/a	n/a	n/a	n/a	n/a
164.0724	0.7	INK	52	Neutral	xxxxxxxx	xxxxxxxx	zielony	green	hit	n/a
164.7419	n/a	RESPONSE	n/a	n/a	n/a	n/a	n/a	n/a	n/a	green
164.7724	1.0167	ITI	n/a	n/a	n/a	n/a	n/a	n/a	n/a	n/a
165.7891	0.5167	FIXCROSS	n/a	n/a	n/a	n/a	n/a	n/a	n/a	n/a
166.3057	1.2833	INK	53	Incongruent	żółty	yellow	zielony	green	hit	n/a
167.5701	n/a	RESPONSE	n/a	n/a	n/a	n/a	n/a	n/a	n/a	green
167.5891	1.0167	ITI	n/a	n/a	n/a	n/a	n/a	n/a	n/a	n/a
168.6058	0.5167	FIXCROSS	n/a	n/a	n/a	n/a	n/a	n/a	n/a	n/a
169.1224	0.5833	INK	54	Neutral	xxxxxxx	xxxxxxx	niebieski	blue	hit	n/a
169.6794	n/a	RESPONSE	n/a	n/a	n/a	n/a	n/a	n/a	n/a	blue
169.7058	1.0167	ITI	n/a	n/a	n/a	n/a	n/a	n/a	n/a	n/a
170.7224	0.5167	FIXCROSS	n/a	n/a	n/a	n/a	n/a	n/a	n/a	n/a
171.2391	1.0833	INK	55	Neutral	xxxxxxxx	xxxxxxxx	zielony	green	hit	n/a
172.2998	n/a	RESPONSE	n/a	n/a	n/a	n/a	n/a	n/a	n/a	green
172.3224	1.0167	ITI	n/a	n/a	n/a	n/a	n/a	n/a	n/a	n/a
173.3391	0.5167	FIXCROSS	n/a	n/a	n/a	n/a	n/a	n/a	n/a	n/a
173.8558	0.6167	INK	56	Neutral	xxxxxxxx	xxxxxxxx	niebieski	blue	hit	n/a
174.4409	n/a	RESPONSE	n/a	n/a	n/a	n/a	n/a	n/a	n/a	blue
174.4725	1.0167	ITI	n/a	n/a	n/a	n/a	n/a	n/a	n/a	n/a
175.4891	0.5167	FIXCROSS	n/a	n/a	n/a	n/a	n/a	n/a	n/a	n/a
176.0058	0.95	INK	57	Incongruent	zielony	green	żółty	yellow	hit	n/a
176.9338	n/a	RESPONSE	n/a	n/a	n/a	n/a	n/a	n/a	n/a	yellow
176.9558	1.0167	ITI	n/a	n/a	n/a	n/a	n/a	n/a	n/a	n/a
177.9725	0.5167	FIXCROSS	n/a	n/a	n/a	n/a	n/a	n/a	n/a	n/a
178.4892	0.7667	INK	58	Incongruent	niebieski	blue	czerwony	red	hit	n/a
179.2346	n/a	RESPONSE	n/a	n/a	n/a	n/a	n/a	n/a	n/a	red
179.2558	1.0167	ITI	n/a	n/a	n/a	n/a	n/a	n/a	n/a	n/a
180.2725	0.5167	FIXCROSS	n/a	n/a	n/a	n/a	n/a	n/a	n/a	n/a
180.7892	0.8667	INK	59	Neutral	xxxxxxx	xxxxxxx	niebieski	blue	hit	n/a
181.6313	n/a	RESPONSE	n/a	n/a	n/a	n/a	n/a	n/a	n/a	blue
181.6558	1.0167	ITI	n/a	n/a	n/a	n/a	n/a	n/a	n/a	n/a
182.6725	0.5167	FIXCROSS	n/a	n/a	n/a	n/a	n/a	n/a	n/a	n/a
183.1892	0.9	INK	60	Neutral	xxxxxxx	xxxxxxx	czerwony	red	hit	n/a
184.0601	n/a	RESPONSE	n/a	n/a	n/a	n/a	n/a	n/a	n/a	red
184.0892	1.0167	ITI	n/a	n/a	n/a	n/a	n/a	n/a	n/a	n/a
184.2519	n/a	RESPONSE	n/a	n/a	n/a	n/a	n/a	n/a	n/a	red
185.1059	0.5167	FIXCROSS	n/a	n/a	n/a	n/a	n/a	n/a	n/a	n/a
185.6225	1.0333	INK	61	Incongruent	czerwony	red	niebieski	blue	hit	n/a
186.6328	n/a	RESPONSE	n/a	n/a	n/a	n/a	n/a	n/a	n/a	blue
186.6559	1.0167	ITI	n/a	n/a	n/a	n/a	n/a	n/a	n/a	n/a
187.6726	0.5167	FIXCROSS	n/a	n/a	n/a	n/a	n/a	n/a	n/a	n/a
188.1892	0.3	INK	62	Neutral	xxxxx	xxxxx	niebieski	blue	hit	n/a
188.4703	n/a	RESPONSE	n/a	n/a	n/a	n/a	n/a	n/a	n/a	blue
188.4892	1.0167	ITI	n/a	n/a	n/a	n/a	n/a	n/a	n/a	n/a
189.5059	0.5167	FIXCROSS	n/a	n/a	n/a	n/a	n/a	n/a	n/a	n/a
190.0226	0.7333	INK	63	Incongruent	niebieski	blue	zielony	green	hit	n/a
190.7232	n/a	RESPONSE	n/a	n/a	n/a	n/a	n/a	n/a	n/a	green
190.7559	1.0167	ITI	n/a	n/a	n/a	n/a	n/a	n/a	n/a	n/a
191.7726	0.5167	FIXCROSS	n/a	n/a	n/a	n/a	n/a	n/a	n/a	n/a
192.2893	0.7	INK	64	Neutral	xxxxxxxx	xxxxxxxx	niebieski	blue	hit	n/a
192.9603	n/a	RESPONSE	n/a	n/a	n/a	n/a	n/a	n/a	n/a	blue
192.9893	1.0167	ITI	n/a	n/a	n/a	n/a	n/a	n/a	n/a	n/a
194.0059	0.5167	FIXCROSS	n/a	n/a	n/a	n/a	n/a	n/a	n/a	n/a
194.5226	0.8167	INK	65	Incongruent	zielony	green	czerwony	red	hit	n/a
195.3092	n/a	RESPONSE	n/a	n/a	n/a	n/a	n/a	n/a	n/a	red
195.3393	1.0167	ITI	n/a	n/a	n/a	n/a	n/a	n/a	n/a	n/a
196.356	0.5167	FIXCROSS	n/a	n/a	n/a	n/a	n/a	n/a	n/a	n/a
196.8726	1.05	INK	66	Neutral	xxxxxxxx	xxxxxxxx	zielony	green	hit	n/a
197.8977	n/a	RESPONSE	n/a	n/a	n/a	n/a	n/a	n/a	n/a	green
197.9226	1.0167	ITI	n/a	n/a	n/a	n/a	n/a	n/a	n/a	n/a
198.9393	0.5167	FIXCROSS	n/a	n/a	n/a	n/a	n/a	n/a	n/a	n/a
199.456	0.6167	INK	67	Incongruent	czerwony	red	żółty	yellow	hit	n/a
200.0549	n/a	RESPONSE	n/a	n/a	n/a	n/a	n/a	n/a	n/a	yellow
200.0726	1.0167	ITI	n/a	n/a	n/a	n/a	n/a	n/a	n/a	n/a
201.0893	0.5167	FIXCROSS	n/a	n/a	n/a	n/a	n/a	n/a	n/a	n/a
201.606	0.8167	INK	68	Incongruent	żółty	yellow	czerwony	red	hit	n/a
202.4037	n/a	RESPONSE	n/a	n/a	n/a	n/a	n/a	n/a	n/a	red
202.4227	1.0167	ITI	n/a	n/a	n/a	n/a	n/a	n/a	n/a	n/a
203.4393	0.5167	FIXCROSS	n/a	n/a	n/a	n/a	n/a	n/a	n/a	n/a
203.956	0.8167	INK	69	Neutral	xxxxx	xxxxx	czerwony	red	hit	n/a
204.7526	n/a	RESPONSE	n/a	n/a	n/a	n/a	n/a	n/a	n/a	red
204.7727	1.0167	ITI	n/a	n/a	n/a	n/a	n/a	n/a	n/a	n/a
205.7893	0.5167	FIXCROSS	n/a	n/a	n/a	n/a	n/a	n/a	n/a	n/a
206.306	0.8333	INK	70	Incongruent	żółty	yellow	zielony	green	hit	n/a
207.1174	n/a	RESPONSE	n/a	n/a	n/a	n/a	n/a	n/a	n/a	green
207.1394	1.0167	ITI	n/a	n/a	n/a	n/a	n/a	n/a	n/a	n/a
208.156	0.5167	FIXCROSS	n/a	n/a	n/a	n/a	n/a	n/a	n/a	n/a
208.6727	0.9834	INK	71	Incongruent	niebieski	blue	żółty	yellow	hit	n/a
209.626	n/a	RESPONSE	n/a	n/a	n/a	n/a	n/a	n/a	n/a	yellow
209.6561	1.0167	ITI	n/a	n/a	n/a	n/a	n/a	n/a	n/a	n/a
210.6727	0.5167	FIXCROSS	n/a	n/a	n/a	n/a	n/a	n/a	n/a	n/a
211.1894	0.5833	INK	72	Incongruent	czerwony	red	niebieski	blue	hit	n/a
211.7512	n/a	RESPONSE	n/a	n/a	n/a	n/a	n/a	n/a	n/a	blue
211.7727	1.0834	ITI	n/a	n/a	n/a	n/a	n/a	n/a	n/a	n/a
221.3225	n/a	RESPONSE	n/a	n/a	n/a	n/a	n/a	n/a	n/a	n/a
221.3895	1.0167	ITI	n/a	n/a	n/a	n/a	n/a	n/a	n/a	n/a
222.4061	0.5167	FIXCROSS	n/a	n/a	n/a	n/a	n/a	n/a	n/a	n/a
222.9228	0.8833	T_COLOR_NAME	1	Neutral	niebieski	blue	Neutral	Neutral	hit	n/a
223.7832	n/a	RESPONSE	n/a	n/a	n/a	n/a	n/a	n/a	n/a	blue
223.8061	0.5167	FEEDBACK	n/a	n/a	n/a	n/a	n/a	n/a	n/a	n/a
224.3228	1.0167	ITI	n/a	n/a	n/a	n/a	n/a	n/a	n/a	n/a
225.3395	0.5167	FIXCROSS	n/a	n/a	n/a	n/a	n/a	n/a	n/a	n/a
225.8562	0.7167	T_COLOR_NAME	2	Incongruent	żółty	yellow	czerwony	red	hit	n/a
226.5476	n/a	RESPONSE	n/a	n/a	n/a	n/a	n/a	n/a	n/a	yellow
226.5728	0.5167	FEEDBACK	n/a	n/a	n/a	n/a	n/a	n/a	n/a	n/a
227.0895	1.0167	ITI	n/a	n/a	n/a	n/a	n/a	n/a	n/a	n/a
228.1062	0.5167	FIXCROSS	n/a	n/a	n/a	n/a	n/a	n/a	n/a	n/a
228.6228	1.3667	T_COLOR_NAME	3	Neutral	czerwony	red	Neutral	Neutral	hit	n/a
229.9669	n/a	RESPONSE	n/a	n/a	n/a	n/a	n/a	n/a	n/a	red
229.9895	0.5167	FEEDBACK	n/a	n/a	n/a	n/a	n/a	n/a	n/a	n/a
230.5062	1.0167	ITI	n/a	n/a	n/a	n/a	n/a	n/a	n/a	n/a
231.5229	0.5167	FIXCROSS	n/a	n/a	n/a	n/a	n/a	n/a	n/a	n/a
232.0395	0.7	T_COLOR_NAME	4	Neutral	czerwony	red	Neutral	Neutral	hit	n/a
232.7152	n/a	RESPONSE	n/a	n/a	n/a	n/a	n/a	n/a	n/a	red
232.7395	0.5167	FEEDBACK	n/a	n/a	n/a	n/a	n/a	n/a	n/a	n/a
233.2562	1.0167	ITI	n/a	n/a	n/a	n/a	n/a	n/a	n/a	n/a
234.2729	0.5167	FIXCROSS	n/a	n/a	n/a	n/a	n/a	n/a	n/a	n/a
234.7896	0.7167	T_COLOR_NAME	5	Neutral	niebieski	blue	Neutral	Neutral	hit	n/a
235.4796	n/a	RESPONSE	n/a	n/a	n/a	n/a	n/a	n/a	n/a	blue
235.5062	0.5167	FEEDBACK	n/a	n/a	n/a	n/a	n/a	n/a	n/a	n/a
236.0229	1.0167	ITI	n/a	n/a	n/a	n/a	n/a	n/a	n/a	n/a
237.0396	0.5167	FIXCROSS	n/a	n/a	n/a	n/a	n/a	n/a	n/a	n/a
237.5562	1.1333	T_COLOR_NAME	6	Incongruent	zielony	green	niebieski	blue	hit	n/a
238.6594	n/a	RESPONSE	n/a	n/a	n/a	n/a	n/a	n/a	n/a	green
238.6896	0.5167	FEEDBACK	n/a	n/a	n/a	n/a	n/a	n/a	n/a	n/a
239.2063	1.0167	ITI	n/a	n/a	n/a	n/a	n/a	n/a	n/a	n/a
240.2229	0.5167	FIXCROSS	n/a	n/a	n/a	n/a	n/a	n/a	n/a	n/a
240.7396	1.1	T_COLOR_NAME	7	Incongruent	zielony	green	żółty	yellow	hit	n/a
241.8071	n/a	RESPONSE	n/a	n/a	n/a	n/a	n/a	n/a	n/a	green
241.8396	0.5167	FEEDBACK	n/a	n/a	n/a	n/a	n/a	n/a	n/a	n/a
242.3563	1.0167	ITI	n/a	n/a	n/a	n/a	n/a	n/a	n/a	n/a
243.373	0.5167	FIXCROSS	n/a	n/a	n/a	n/a	n/a	n/a	n/a	n/a
243.8896	0.9167	T_COLOR_NAME	8	Incongruent	niebieski	blue	zielony	green	hit	n/a
244.7792	n/a	RESPONSE	n/a	n/a	n/a	n/a	n/a	n/a	n/a	blue
244.8063	0.5167	FEEDBACK	n/a	n/a	n/a	n/a	n/a	n/a	n/a	n/a
245.323	1.0167	ITI	n/a	n/a	n/a	n/a	n/a	n/a	n/a	n/a
246.3396	0.5167	FIXCROSS	n/a	n/a	n/a	n/a	n/a	n/a	n/a	n/a
246.8563	0.8667	T_COLOR_NAME	9	Incongruent	zielony	green	czerwony	red	hit	n/a
247.7033	n/a	RESPONSE	n/a	n/a	n/a	n/a	n/a	n/a	n/a	green
247.723	0.5167	FEEDBACK	n/a	n/a	n/a	n/a	n/a	n/a	n/a	n/a
248.2397	1.0167	ITI	n/a	n/a	n/a	n/a	n/a	n/a	n/a	n/a
249.2563	0.5167	FIXCROSS	n/a	n/a	n/a	n/a	n/a	n/a	n/a	n/a
249.773	0.45	T_COLOR_NAME	10	Incongruent	czerwony	red	niebieski	blue	hit	n/a
250.196	n/a	RESPONSE	n/a	n/a	n/a	n/a	n/a	n/a	n/a	red
250.223	0.5167	FEEDBACK	n/a	n/a	n/a	n/a	n/a	n/a	n/a	n/a
250.7397	1.0167	ITI	n/a	n/a	n/a	n/a	n/a	n/a	n/a	n/a
251.7564	0.5167	FIXCROSS	n/a	n/a	n/a	n/a	n/a	n/a	n/a	n/a
252.273	0.75	T_COLOR_NAME	11	Incongruent	niebieski	blue	czerwony	red	hit	n/a
252.9924	n/a	RESPONSE	n/a	n/a	n/a	n/a	n/a	n/a	n/a	blue
253.023	0.5167	FEEDBACK	n/a	n/a	n/a	n/a	n/a	n/a	n/a	n/a
253.5397	1.0167	ITI	n/a	n/a	n/a	n/a	n/a	n/a	n/a	n/a
254.5564	0.5167	FIXCROSS	n/a	n/a	n/a	n/a	n/a	n/a	n/a	n/a
255.073	0.7667	T_COLOR_NAME	12	Neutral	żółty	yellow	Neutral	Neutral	hit	n/a
255.8206	n/a	RESPONSE	n/a	n/a	n/a	n/a	n/a	n/a	n/a	yellow
255.8397	0.5167	FEEDBACK	n/a	n/a	n/a	n/a	n/a	n/a	n/a	n/a
256.3564	1.0333	ITI	n/a	n/a	n/a	n/a	n/a	n/a	n/a	n/a
260.3108	n/a	RESPONSE	n/a	n/a	n/a	n/a	n/a	n/a	n/a	n/a
260.3731	1.0167	ITI	n/a	n/a	n/a	n/a	n/a	n/a	n/a	n/a
261.3897	0.5167	FIXCROSS	n/a	n/a	n/a	n/a	n/a	n/a	n/a	n/a
261.9064	1.3167	COLOR_NAME	1	Incongruent	czerwony	red	żółty	yellow	hit	n/a
263.2029	n/a	RESPONSE	n/a	n/a	n/a	n/a	n/a	n/a	n/a	red
263.2231	1.0167	ITI	n/a	n/a	n/a	n/a	n/a	n/a	n/a	n/a
264.2398	0.5167	FIXCROSS	n/a	n/a	n/a	n/a	n/a	n/a	n/a	n/a
264.7564	0.7833	COLOR_NAME	2	Neutral	żółty	yellow	Neutral	Neutral	hit	n/a
265.5198	n/a	RESPONSE	n/a	n/a	n/a	n/a	n/a	n/a	n/a	yellow
265.5398	1.0167	ITI	n/a	n/a	n/a	n/a	n/a	n/a	n/a	n/a
266.5564	0.5167	FIXCROSS	n/a	n/a	n/a	n/a	n/a	n/a	n/a	n/a
267.0731	0.6	COLOR_NAME	3	Neutral	czerwony	red	Neutral	Neutral	hit	n/a
267.6451	n/a	RESPONSE	n/a	n/a	n/a	n/a	n/a	n/a	n/a	red
267.6731	1.0167	ITI	n/a	n/a	n/a	n/a	n/a	n/a	n/a	n/a
268.6898	0.5167	FIXCROSS	n/a	n/a	n/a	n/a	n/a	n/a	n/a	n/a
269.2065	1.0833	COLOR_NAME	4	Neutral	zielony	green	Neutral	Neutral	hit	n/a
270.2657	n/a	RESPONSE	n/a	n/a	n/a	n/a	n/a	n/a	n/a	green
270.2898	1.0167	ITI	n/a	n/a	n/a	n/a	n/a	n/a	n/a	n/a
271.3065	0.5167	FIXCROSS	n/a	n/a	n/a	n/a	n/a	n/a	n/a	n/a
271.8232	0.8	COLOR_NAME	5	Incongruent	czerwony	red	zielony	green	hit	n/a
272.5985	n/a	RESPONSE	n/a	n/a	n/a	n/a	n/a	n/a	n/a	red
272.6232	1.0167	ITI	n/a	n/a	n/a	n/a	n/a	n/a	n/a	n/a
273.6398	0.5167	FIXCROSS	n/a	n/a	n/a	n/a	n/a	n/a	n/a	n/a
274.1565	0.7	COLOR_NAME	6	Incongruent	żółty	yellow	zielony	green	hit	n/a
274.8356	n/a	RESPONSE	n/a	n/a	n/a	n/a	n/a	n/a	n/a	yellow
274.8565	1.0167	ITI	n/a	n/a	n/a	n/a	n/a	n/a	n/a	n/a
275.8732	0.5167	FIXCROSS	n/a	n/a	n/a	n/a	n/a	n/a	n/a	n/a
276.3899	1.0	COLOR_NAME	7	Incongruent	zielony	green	niebieski	blue	hit	n/a
277.3602	n/a	RESPONSE	n/a	n/a	n/a	n/a	n/a	n/a	n/a	green
277.3899	1.0167	ITI	n/a	n/a	n/a	n/a	n/a	n/a	n/a	n/a
278.4065	0.5167	FIXCROSS	n/a	n/a	n/a	n/a	n/a	n/a	n/a	n/a
278.9232	0.7333	COLOR_NAME	8	Incongruent	czerwony	red	zielony	green	hit	n/a
279.6292	n/a	RESPONSE	n/a	n/a	n/a	n/a	n/a	n/a	n/a	red
279.6565	1.0167	ITI	n/a	n/a	n/a	n/a	n/a	n/a	n/a	n/a
280.6732	0.5167	FIXCROSS	n/a	n/a	n/a	n/a	n/a	n/a	n/a	n/a
281.1899	0.7667	COLOR_NAME	9	Neutral	żółty	yellow	Neutral	Neutral	hit	n/a
281.9301	n/a	RESPONSE	n/a	n/a	n/a	n/a	n/a	n/a	n/a	yellow
281.9566	1.0167	ITI	n/a	n/a	n/a	n/a	n/a	n/a	n/a	n/a
282.9732	0.5167	FIXCROSS	n/a	n/a	n/a	n/a	n/a	n/a	n/a	n/a
283.4899	0.8	COLOR_NAME	10	Neutral	żółty	yellow	Neutral	Neutral	hit	n/a
284.2631	n/a	RESPONSE	n/a	n/a	n/a	n/a	n/a	n/a	n/a	yellow
284.2899	1.0167	ITI	n/a	n/a	n/a	n/a	n/a	n/a	n/a	n/a
285.3066	0.5167	FIXCROSS	n/a	n/a	n/a	n/a	n/a	n/a	n/a	n/a
285.8233	1.3833	COLOR_NAME	11	Incongruent	zielony	green	żółty	yellow	hit	n/a
287.1872	n/a	RESPONSE	n/a	n/a	n/a	n/a	n/a	n/a	n/a	green
287.2066	1.0167	ITI	n/a	n/a	n/a	n/a	n/a	n/a	n/a	n/a
288.2233	0.5167	FIXCROSS	n/a	n/a	n/a	n/a	n/a	n/a	n/a	n/a
288.7399	0.6	COLOR_NAME	12	Incongruent	niebieski	blue	czerwony	red	hit	n/a
289.3124	n/a	RESPONSE	n/a	n/a	n/a	n/a	n/a	n/a	n/a	blue
289.3399	1.0167	ITI	n/a	n/a	n/a	n/a	n/a	n/a	n/a	n/a
290.3566	0.5167	FIXCROSS	n/a	n/a	n/a	n/a	n/a	n/a	n/a	n/a
290.8733	0.5667	COLOR_NAME	13	Neutral	niebieski	blue	Neutral	Neutral	hit	n/a
291.4217	n/a	RESPONSE	n/a	n/a	n/a	n/a	n/a	n/a	n/a	blue
291.44	1.0167	ITI	n/a	n/a	n/a	n/a	n/a	n/a	n/a	n/a
292.4566	0.5167	FIXCROSS	n/a	n/a	n/a	n/a	n/a	n/a	n/a	n/a
292.9733	0.7833	COLOR_NAME	14	Incongruent	żółty	yellow	czerwony	red	hit	n/a
293.7227	n/a	RESPONSE	n/a	n/a	n/a	n/a	n/a	n/a	n/a	yellow
293.7567	1.0167	ITI	n/a	n/a	n/a	n/a	n/a	n/a	n/a	n/a
294.7733	0.5167	FIXCROSS	n/a	n/a	n/a	n/a	n/a	n/a	n/a	n/a
295.29	0.6167	COLOR_NAME	15	Neutral	czerwony	red	Neutral	Neutral	hit	n/a
295.8799	n/a	RESPONSE	n/a	n/a	n/a	n/a	n/a	n/a	n/a	red
295.9067	1.0167	ITI	n/a	n/a	n/a	n/a	n/a	n/a	n/a	n/a
296.9233	0.5167	FIXCROSS	n/a	n/a	n/a	n/a	n/a	n/a	n/a	n/a
297.44	0.5667	COLOR_NAME	16	Incongruent	zielony	green	czerwony	red	hit	n/a
297.9731	n/a	RESPONSE	n/a	n/a	n/a	n/a	n/a	n/a	n/a	green
298.0067	1.0167	ITI	n/a	n/a	n/a	n/a	n/a	n/a	n/a	n/a
299.0233	0.5167	FIXCROSS	n/a	n/a	n/a	n/a	n/a	n/a	n/a	n/a
299.54	0.65	COLOR_NAME	17	Incongruent	zielony	green	czerwony	red	hit	n/a
300.1622	n/a	RESPONSE	n/a	n/a	n/a	n/a	n/a	n/a	n/a	green
300.19	1.0167	ITI	n/a	n/a	n/a	n/a	n/a	n/a	n/a	n/a
301.2067	0.5167	FIXCROSS	n/a	n/a	n/a	n/a	n/a	n/a	n/a	n/a
301.7234	0.7	COLOR_NAME	18	Neutral	żółty	yellow	Neutral	Neutral	hit	n/a
302.3992	n/a	RESPONSE	n/a	n/a	n/a	n/a	n/a	n/a	n/a	yellow
302.4234	1.0167	ITI	n/a	n/a	n/a	n/a	n/a	n/a	n/a	n/a
303.44	0.5167	FIXCROSS	n/a	n/a	n/a	n/a	n/a	n/a	n/a	n/a
303.9567	1.45	COLOR_NAME	19	Neutral	czerwony	red	Neutral	Neutral	hit	n/a
305.3872	n/a	RESPONSE	n/a	n/a	n/a	n/a	n/a	n/a	n/a	red
305.4067	1.0167	ITI	n/a	n/a	n/a	n/a	n/a	n/a	n/a	n/a
306.4234	0.5167	FIXCROSS	n/a	n/a	n/a	n/a	n/a	n/a	n/a	n/a
306.9401	0.7333	COLOR_NAME	20	Neutral	żółty	yellow	Neutral	Neutral	hit	n/a
307.6403	n/a	RESPONSE	n/a	n/a	n/a	n/a	n/a	n/a	n/a	yellow
307.6734	1.0167	ITI	n/a	n/a	n/a	n/a	n/a	n/a	n/a	n/a
308.6901	0.5167	FIXCROSS	n/a	n/a	n/a	n/a	n/a	n/a	n/a	n/a
309.2068	0.6833	COLOR_NAME	21	Incongruent	niebieski	blue	czerwony	red	hit	n/a
309.8613	n/a	RESPONSE	n/a	n/a	n/a	n/a	n/a	n/a	n/a	blue
309.8901	1.0167	ITI	n/a	n/a	n/a	n/a	n/a	n/a	n/a	n/a
310.9068	0.5167	FIXCROSS	n/a	n/a	n/a	n/a	n/a	n/a	n/a	n/a
311.4234	0.6	COLOR_NAME	22	Incongruent	zielony	green	niebieski	blue	hit	n/a
312.0025	n/a	RESPONSE	n/a	n/a	n/a	n/a	n/a	n/a	n/a	green
312.0234	1.0167	ITI	n/a	n/a	n/a	n/a	n/a	n/a	n/a	n/a
313.0401	0.5167	FIXCROSS	n/a	n/a	n/a	n/a	n/a	n/a	n/a	n/a
313.5568	1.65	COLOR_NAME	23	Incongruent	czerwony	red	żółty	yellow	hit	n/a
315.1824	n/a	RESPONSE	n/a	n/a	n/a	n/a	n/a	n/a	n/a	red
315.2068	1.0167	ITI	n/a	n/a	n/a	n/a	n/a	n/a	n/a	n/a
316.2235	0.5167	FIXCROSS	n/a	n/a	n/a	n/a	n/a	n/a	n/a	n/a
316.7401	0.75	COLOR_NAME	24	Incongruent	żółty	yellow	zielony	green	hit	n/a
317.4673	n/a	RESPONSE	n/a	n/a	n/a	n/a	n/a	n/a	n/a	yellow
317.4901	1.0167	ITI	n/a	n/a	n/a	n/a	n/a	n/a	n/a	n/a
318.5068	0.5167	FIXCROSS	n/a	n/a	n/a	n/a	n/a	n/a	n/a	n/a
319.0235	0.9333	COLOR_NAME	25	Neutral	zielony	green	Neutral	Neutral	hit	n/a
319.9281	n/a	RESPONSE	n/a	n/a	n/a	n/a	n/a	n/a	n/a	green
319.9568	1.0167	ITI	n/a	n/a	n/a	n/a	n/a	n/a	n/a	n/a
320.9735	0.5167	FIXCROSS	n/a	n/a	n/a	n/a	n/a	n/a	n/a	n/a
321.4902	1.0333	COLOR_NAME	26	Incongruent	czerwony	red	niebieski	blue	hit	n/a
322.5008	n/a	RESPONSE	n/a	n/a	n/a	n/a	n/a	n/a	n/a	red
322.5235	1.0167	ITI	n/a	n/a	n/a	n/a	n/a	n/a	n/a	n/a
323.5402	0.5167	FIXCROSS	n/a	n/a	n/a	n/a	n/a	n/a	n/a	n/a
324.0569	0.65	COLOR_NAME	27	Neutral	czerwony	red	Neutral	Neutral	hit	n/a
324.6739	n/a	RESPONSE	n/a	n/a	n/a	n/a	n/a	n/a	n/a	red
324.7069	1.0167	ITI	n/a	n/a	n/a	n/a	n/a	n/a	n/a	n/a
325.7235	0.5167	FIXCROSS	n/a	n/a	n/a	n/a	n/a	n/a	n/a	n/a
326.2402	0.8167	COLOR_NAME	28	Incongruent	niebieski	blue	zielony	green	hit	n/a
327.0387	n/a	RESPONSE	n/a	n/a	n/a	n/a	n/a	n/a	n/a	blue
327.0569	1.0167	ITI	n/a	n/a	n/a	n/a	n/a	n/a	n/a	n/a
328.0736	0.5167	FIXCROSS	n/a	n/a	n/a	n/a	n/a	n/a	n/a	n/a
328.5902	0.85	COLOR_NAME	29	Incongruent	żółty	yellow	niebieski	blue	hit	n/a
329.4197	n/a	RESPONSE	n/a	n/a	n/a	n/a	n/a	n/a	n/a	yellow
329.4402	1.0167	ITI	n/a	n/a	n/a	n/a	n/a	n/a	n/a	n/a
330.4569	0.5167	FIXCROSS	n/a	n/a	n/a	n/a	n/a	n/a	n/a	n/a
330.9736	1.5667	COLOR_NAME	30	Neutral	zielony	green	Neutral	Neutral	hit	n/a
332.5195	n/a	RESPONSE	n/a	n/a	n/a	n/a	n/a	n/a	n/a	green
332.5403	1.0167	ITI	n/a	n/a	n/a	n/a	n/a	n/a	n/a	n/a
333.5569	0.5167	FIXCROSS	n/a	n/a	n/a	n/a	n/a	n/a	n/a	n/a
334.0736	1.55	COLOR_NAME	31	Neutral	niebieski	blue	Neutral	Neutral	hit	n/a
335.6035	n/a	RESPONSE	n/a	n/a	n/a	n/a	n/a	n/a	n/a	blue
335.6236	1.0167	ITI	n/a	n/a	n/a	n/a	n/a	n/a	n/a	n/a
336.6403	0.5167	FIXCROSS	n/a	n/a	n/a	n/a	n/a	n/a	n/a	n/a
337.1569	0.6333	COLOR_NAME	32	Neutral	niebieski	blue	Neutral	Neutral	hit	n/a
337.7607	n/a	RESPONSE	n/a	n/a	n/a	n/a	n/a	n/a	n/a	blue
337.7903	1.0167	ITI	n/a	n/a	n/a	n/a	n/a	n/a	n/a	n/a
338.807	0.5167	FIXCROSS	n/a	n/a	n/a	n/a	n/a	n/a	n/a	n/a
339.3236	0.8333	COLOR_NAME	33	Neutral	żółty	yellow	Neutral	Neutral	hit	n/a
340.1256	n/a	RESPONSE	n/a	n/a	n/a	n/a	n/a	n/a	n/a	yellow
340.157	1.0167	ITI	n/a	n/a	n/a	n/a	n/a	n/a	n/a	n/a
341.1736	0.5167	FIXCROSS	n/a	n/a	n/a	n/a	n/a	n/a	n/a	n/a
341.6903	1.6667	COLOR_NAME	34	Incongruent	czerwony	red	żółty	yellow	hit	n/a
343.3214	n/a	RESPONSE	n/a	n/a	n/a	n/a	n/a	n/a	n/a	red
343.357	1.0167	ITI	n/a	n/a	n/a	n/a	n/a	n/a	n/a	n/a
344.3737	0.5167	FIXCROSS	n/a	n/a	n/a	n/a	n/a	n/a	n/a	n/a
344.8903	0.8833	COLOR_NAME	35	Incongruent	żółty	yellow	czerwony	red	hit	n/a
345.7501	n/a	RESPONSE	n/a	n/a	n/a	n/a	n/a	n/a	n/a	yellow
345.7737	1.0167	ITI	n/a	n/a	n/a	n/a	n/a	n/a	n/a	n/a
346.7903	0.5167	FIXCROSS	n/a	n/a	n/a	n/a	n/a	n/a	n/a	n/a
347.307	0.9167	COLOR_NAME	36	Neutral	zielony	green	Neutral	Neutral	hit	n/a
348.195	n/a	RESPONSE	n/a	n/a	n/a	n/a	n/a	n/a	n/a	green
348.2237	1.0167	ITI	n/a	n/a	n/a	n/a	n/a	n/a	n/a	n/a
349.2404	0.5167	FIXCROSS	n/a	n/a	n/a	n/a	n/a	n/a	n/a	n/a
349.757	1.0167	COLOR_NAME	37	Neutral	żółty	yellow	Neutral	Neutral	hit	n/a
350.7517	n/a	RESPONSE	n/a	n/a	n/a	n/a	n/a	n/a	n/a	yellow
350.7737	1.0167	ITI	n/a	n/a	n/a	n/a	n/a	n/a	n/a	n/a
351.7904	0.5167	FIXCROSS	n/a	n/a	n/a	n/a	n/a	n/a	n/a	n/a
352.3071	0.9667	COLOR_NAME	38	Incongruent	zielony	green	żółty	yellow	hit	n/a
353.2443	n/a	RESPONSE	n/a	n/a	n/a	n/a	n/a	n/a	n/a	green
353.2737	1.0167	ITI	n/a	n/a	n/a	n/a	n/a	n/a	n/a	n/a
354.2904	0.5167	FIXCROSS	n/a	n/a	n/a	n/a	n/a	n/a	n/a	n/a
354.8071	0.85	COLOR_NAME	39	Incongruent	niebieski	blue	zielony	green	hit	n/a
355.6252	n/a	RESPONSE	n/a	n/a	n/a	n/a	n/a	n/a	n/a	blue
355.6571	1.0167	ITI	n/a	n/a	n/a	n/a	n/a	n/a	n/a	n/a
356.6737	0.5167	FIXCROSS	n/a	n/a	n/a	n/a	n/a	n/a	n/a	n/a
357.1904	1.4167	COLOR_NAME	40	Incongruent	żółty	yellow	czerwony	red	hit	n/a
358.5812	n/a	RESPONSE	n/a	n/a	n/a	n/a	n/a	n/a	n/a	yellow
358.6071	1.0167	ITI	n/a	n/a	n/a	n/a	n/a	n/a	n/a	n/a
359.6238	0.5167	FIXCROSS	n/a	n/a	n/a	n/a	n/a	n/a	n/a	n/a
360.1404	0.9833	COLOR_NAME	41	Incongruent	czerwony	red	niebieski	blue	hit	n/a
361.09	n/a	RESPONSE	n/a	n/a	n/a	n/a	n/a	n/a	n/a	red
361.1238	1.0167	ITI	n/a	n/a	n/a	n/a	n/a	n/a	n/a	n/a
362.1405	0.5167	FIXCROSS	n/a	n/a	n/a	n/a	n/a	n/a	n/a	n/a
362.6571	1.3167	COLOR_NAME	42	Incongruent	niebieski	blue	żółty	yellow	hit	n/a
363.9502	n/a	RESPONSE	n/a	n/a	n/a	n/a	n/a	n/a	n/a	blue
363.9738	1.0167	ITI	n/a	n/a	n/a	n/a	n/a	n/a	n/a	n/a
364.9905	0.5167	FIXCROSS	n/a	n/a	n/a	n/a	n/a	n/a	n/a	n/a
365.5072	0.55	COLOR_NAME	43	Neutral	zielony	green	Neutral	Neutral	hit	n/a
366.0275	n/a	RESPONSE	n/a	n/a	n/a	n/a	n/a	n/a	n/a	green
366.0571	1.0167	ITI	n/a	n/a	n/a	n/a	n/a	n/a	n/a	n/a
367.0738	0.5167	FIXCROSS	n/a	n/a	n/a	n/a	n/a	n/a	n/a	n/a
367.5905	0.8833	COLOR_NAME	44	Neutral	czerwony	red	Neutral	Neutral	hit	n/a
368.4562	n/a	RESPONSE	n/a	n/a	n/a	n/a	n/a	n/a	n/a	red
368.4738	1.0167	ITI	n/a	n/a	n/a	n/a	n/a	n/a	n/a	n/a
369.4905	0.5167	FIXCROSS	n/a	n/a	n/a	n/a	n/a	n/a	n/a	n/a
370.0072	0.8333	COLOR_NAME	45	Neutral	niebieski	blue	Neutral	Neutral	hit	n/a
370.8212	n/a	RESPONSE	n/a	n/a	n/a	n/a	n/a	n/a	n/a	blue
370.8405	1.0167	ITI	n/a	n/a	n/a	n/a	n/a	n/a	n/a	n/a
371.8572	0.5167	FIXCROSS	n/a	n/a	n/a	n/a	n/a	n/a	n/a	n/a
372.3739	0.5	COLOR_NAME	46	Incongruent	żółty	yellow	niebieski	blue	hit	n/a
372.8504	n/a	RESPONSE	n/a	n/a	n/a	n/a	n/a	n/a	n/a	yellow
372.8739	1.0167	ITI	n/a	n/a	n/a	n/a	n/a	n/a	n/a	n/a
373.8905	0.5167	FIXCROSS	n/a	n/a	n/a	n/a	n/a	n/a	n/a	n/a
374.4072	0.9333	COLOR_NAME	47	Incongruent	niebieski	blue	żółty	yellow	hit	n/a
375.3112	n/a	RESPONSE	n/a	n/a	n/a	n/a	n/a	n/a	n/a	blue
375.3405	1.0167	ITI	n/a	n/a	n/a	n/a	n/a	n/a	n/a	n/a
376.3572	0.5167	FIXCROSS	n/a	n/a	n/a	n/a	n/a	n/a	n/a	n/a
376.8739	0.65	COLOR_NAME	48	Neutral	niebieski	blue	Neutral	Neutral	hit	n/a
377.5003	n/a	RESPONSE	n/a	n/a	n/a	n/a	n/a	n/a	n/a	blue
377.5239	1.0167	ITI	n/a	n/a	n/a	n/a	n/a	n/a	n/a	n/a
378.5406	0.5167	FIXCROSS	n/a	n/a	n/a	n/a	n/a	n/a	n/a	n/a
379.0572	0.7	COLOR_NAME	49	Incongruent	niebieski	blue	zielony	green	hit	n/a
379.7375	n/a	RESPONSE	n/a	n/a	n/a	n/a	n/a	n/a	n/a	blue
379.7572	1.0167	ITI	n/a	n/a	n/a	n/a	n/a	n/a	n/a	n/a
380.7739	0.5167	FIXCROSS	n/a	n/a	n/a	n/a	n/a	n/a	n/a	n/a
381.2906	0.9	COLOR_NAME	50	Neutral	zielony	green	Neutral	Neutral	incorrect	n/a
382.1663	n/a	RESPONSE	n/a	n/a	n/a	n/a	n/a	n/a	n/a	red
382.1906	1.0167	ITI	n/a	n/a	n/a	n/a	n/a	n/a	n/a	n/a
383.2073	0.5167	FIXCROSS	n/a	n/a	n/a	n/a	n/a	n/a	n/a	n/a
383.7239	2.0333	COLOR_NAME	51	Incongruent	zielony	green	czerwony	red	hit	n/a
385.7295	n/a	RESPONSE	n/a	n/a	n/a	n/a	n/a	n/a	n/a	green
385.7573	1.0167	ITI	n/a	n/a	n/a	n/a	n/a	n/a	n/a	n/a
386.774	0.5167	FIXCROSS	n/a	n/a	n/a	n/a	n/a	n/a	n/a	n/a
387.2906	0.7833	COLOR_NAME	52	Neutral	czerwony	red	Neutral	Neutral	hit	n/a
388.0465	n/a	RESPONSE	n/a	n/a	n/a	n/a	n/a	n/a	n/a	red
388.074	1.0167	ITI	n/a	n/a	n/a	n/a	n/a	n/a	n/a	n/a
389.0907	0.5167	FIXCROSS	n/a	n/a	n/a	n/a	n/a	n/a	n/a	n/a
389.6073	1.0	COLOR_NAME	53	Neutral	zielony	green	Neutral	Neutral	hit	n/a
390.5872	n/a	RESPONSE	n/a	n/a	n/a	n/a	n/a	n/a	n/a	green
390.6073	1.0167	ITI	n/a	n/a	n/a	n/a	n/a	n/a	n/a	n/a
391.624	0.5167	FIXCROSS	n/a	n/a	n/a	n/a	n/a	n/a	n/a	n/a
392.1407	0.7167	COLOR_NAME	54	Neutral	czerwony	red	Neutral	Neutral	hit	n/a
392.8242	n/a	RESPONSE	n/a	n/a	n/a	n/a	n/a	n/a	n/a	red
392.8573	1.0167	ITI	n/a	n/a	n/a	n/a	n/a	n/a	n/a	n/a
393.874	0.5167	FIXCROSS	n/a	n/a	n/a	n/a	n/a	n/a	n/a	n/a
394.3907	0.8	COLOR_NAME	55	Incongruent	żółty	yellow	niebieski	blue	hit	n/a
395.1572	n/a	RESPONSE	n/a	n/a	n/a	n/a	n/a	n/a	n/a	yellow
395.1907	1.0167	ITI	n/a	n/a	n/a	n/a	n/a	n/a	n/a	n/a
396.2074	0.5167	FIXCROSS	n/a	n/a	n/a	n/a	n/a	n/a	n/a	n/a
396.724	1.0167	COLOR_NAME	56	Neutral	niebieski	blue	Neutral	Neutral	hit	n/a
397.7137	n/a	RESPONSE	n/a	n/a	n/a	n/a	n/a	n/a	n/a	blue
397.7407	1.0167	ITI	n/a	n/a	n/a	n/a	n/a	n/a	n/a	n/a
398.7574	0.5167	FIXCROSS	n/a	n/a	n/a	n/a	n/a	n/a	n/a	n/a
399.274	1.1333	COLOR_NAME	57	Incongruent	zielony	green	niebieski	blue	hit	n/a
400.3824	n/a	RESPONSE	n/a	n/a	n/a	n/a	n/a	n/a	n/a	green
400.4074	1.0167	ITI	n/a	n/a	n/a	n/a	n/a	n/a	n/a	n/a
401.4241	0.5167	FIXCROSS	n/a	n/a	n/a	n/a	n/a	n/a	n/a	n/a
401.9407	0.7	COLOR_NAME	58	Incongruent	niebieski	blue	żółty	yellow	hit	n/a
402.6193	n/a	RESPONSE	n/a	n/a	n/a	n/a	n/a	n/a	n/a	blue
402.6407	1.0167	ITI	n/a	n/a	n/a	n/a	n/a	n/a	n/a	n/a
403.6574	0.5167	FIXCROSS	n/a	n/a	n/a	n/a	n/a	n/a	n/a	n/a
404.1741	0.7	COLOR_NAME	59	Neutral	niebieski	blue	Neutral	Neutral	hit	n/a
404.8404	n/a	RESPONSE	n/a	n/a	n/a	n/a	n/a	n/a	n/a	blue
404.8741	1.0167	ITI	n/a	n/a	n/a	n/a	n/a	n/a	n/a	n/a
405.8908	0.5167	FIXCROSS	n/a	n/a	n/a	n/a	n/a	n/a	n/a	n/a
406.4074	0.6167	COLOR_NAME	60	Neutral	niebieski	blue	Neutral	Neutral	hit	n/a
406.9976	n/a	RESPONSE	n/a	n/a	n/a	n/a	n/a	n/a	n/a	blue
407.0241	1.0167	ITI	n/a	n/a	n/a	n/a	n/a	n/a	n/a	n/a
408.0408	0.5167	FIXCROSS	n/a	n/a	n/a	n/a	n/a	n/a	n/a	n/a
408.5574	1.5667	COLOR_NAME	61	Neutral	żółty	yellow	Neutral	Neutral	hit	n/a
410.0975	n/a	RESPONSE	n/a	n/a	n/a	n/a	n/a	n/a	n/a	yellow
410.1241	1.0167	ITI	n/a	n/a	n/a	n/a	n/a	n/a	n/a	n/a
411.1408	0.5167	FIXCROSS	n/a	n/a	n/a	n/a	n/a	n/a	n/a	n/a
411.6575	1.1667	COLOR_NAME	62	Incongruent	niebieski	blue	czerwony	red	hit	n/a
412.798	n/a	RESPONSE	n/a	n/a	n/a	n/a	n/a	n/a	n/a	blue
412.8241	1.0167	ITI	n/a	n/a	n/a	n/a	n/a	n/a	n/a	n/a
413.8408	0.5167	FIXCROSS	n/a	n/a	n/a	n/a	n/a	n/a	n/a	n/a
414.3575	1.4167	COLOR_NAME	63	Incongruent	czerwony	red	zielony	green	hit	n/a
415.7541	n/a	RESPONSE	n/a	n/a	n/a	n/a	n/a	n/a	n/a	red
415.7742	1.0167	ITI	n/a	n/a	n/a	n/a	n/a	n/a	n/a	n/a
416.7908	0.5167	FIXCROSS	n/a	n/a	n/a	n/a	n/a	n/a	n/a	n/a
417.3075	0.8	COLOR_NAME	64	Neutral	żółty	yellow	Neutral	Neutral	hit	n/a
418.0871	n/a	RESPONSE	n/a	n/a	n/a	n/a	n/a	n/a	n/a	yellow
418.1075	1.0167	ITI	n/a	n/a	n/a	n/a	n/a	n/a	n/a	n/a
419.1242	0.5167	FIXCROSS	n/a	n/a	n/a	n/a	n/a	n/a	n/a	n/a
419.6409	1.9333	COLOR_NAME	65	Incongruent	czerwony	red	niebieski	blue	hit	n/a
421.5546	n/a	RESPONSE	n/a	n/a	n/a	n/a	n/a	n/a	n/a	red
421.5742	1.0167	ITI	n/a	n/a	n/a	n/a	n/a	n/a	n/a	n/a
422.5909	0.5167	FIXCROSS	n/a	n/a	n/a	n/a	n/a	n/a	n/a	n/a
423.1075	0.6333	COLOR_NAME	66	Neutral	czerwony	red	Neutral	Neutral	hit	n/a
423.7118	n/a	RESPONSE	n/a	n/a	n/a	n/a	n/a	n/a	n/a	red
423.7409	1.0167	ITI	n/a	n/a	n/a	n/a	n/a	n/a	n/a	n/a
424.7576	0.5167	FIXCROSS	n/a	n/a	n/a	n/a	n/a	n/a	n/a	n/a
425.2742	1.0833	COLOR_NAME	67	Incongruent	żółty	yellow	zielony	green	hit	n/a
426.3323	n/a	RESPONSE	n/a	n/a	n/a	n/a	n/a	n/a	n/a	yellow
426.3576	1.0167	ITI	n/a	n/a	n/a	n/a	n/a	n/a	n/a	n/a
427.3742	0.5167	FIXCROSS	n/a	n/a	n/a	n/a	n/a	n/a	n/a	n/a
427.8909	0.9833	COLOR_NAME	68	Neutral	zielony	green	Neutral	Neutral	hit	n/a
428.857	n/a	RESPONSE	n/a	n/a	n/a	n/a	n/a	n/a	n/a	green
428.8742	1.0167	ITI	n/a	n/a	n/a	n/a	n/a	n/a	n/a	n/a
429.8909	0.5167	FIXCROSS	n/a	n/a	n/a	n/a	n/a	n/a	n/a	n/a
430.4076	0.8667	COLOR_NAME	69	Neutral	czerwony	red	Neutral	Neutral	hit	n/a
431.2538	n/a	RESPONSE	n/a	n/a	n/a	n/a	n/a	n/a	n/a	red
431.2743	1.0167	ITI	n/a	n/a	n/a	n/a	n/a	n/a	n/a	n/a
432.2909	0.5167	FIXCROSS	n/a	n/a	n/a	n/a	n/a	n/a	n/a	n/a
432.8076	1.3167	COLOR_NAME	70	Neutral	zielony	green	Neutral	Neutral	hit	n/a
434.098	n/a	RESPONSE	n/a	n/a	n/a	n/a	n/a	n/a	n/a	green
434.1243	1.0167	ITI	n/a	n/a	n/a	n/a	n/a	n/a	n/a	n/a
435.141	0.5167	FIXCROSS	n/a	n/a	n/a	n/a	n/a	n/a	n/a	n/a
435.6576	0.95	COLOR_NAME	71	Neutral	niebieski	blue	Neutral	Neutral	hit	n/a
436.5748	n/a	RESPONSE	n/a	n/a	n/a	n/a	n/a	n/a	n/a	blue
436.6076	1.0167	ITI	n/a	n/a	n/a	n/a	n/a	n/a	n/a	n/a
437.6243	0.5167	FIXCROSS	n/a	n/a	n/a	n/a	n/a	n/a	n/a	n/a
438.141	1.5	COLOR_NAME	72	Incongruent	zielony	green	żółty	yellow	hit	n/a
439.6108	n/a	RESPONSE	n/a	n/a	n/a	n/a	n/a	n/a	n/a	green
439.641	1.0333	ITI	n/a	n/a	n/a	n/a	n/a	n/a	n/a	n/a
443.9251	n/a	RESPONSE	n/a	n/a	n/a	n/a	n/a	n/a	n/a	n/a
