onset	duration	trial_type	trial_number	stroop_condition	stim_text(PL)	stim_text(eng)	stim_color(PL)	stim_color(eng)	response_type	response_color
0.0	n/a	RESPONSE	n/a	n/a	n/a	n/a	n/a	n/a	n/a	n/a
0.0551	1.0333	ITI	n/a	n/a	n/a	n/a	n/a	n/a	n/a	n/a
1.0884	0.5167	FIXCROSS	n/a	n/a	n/a	n/a	n/a	n/a	n/a	n/a
1.6051	1.4167	T_INK	1	Neutral	xxxxxxxx	xxxxxxxx	zielony	green	hit	n/a
2.9914	n/a	RESPONSE	n/a	n/a	n/a	n/a	n/a	n/a	n/a	green
3.0218	0.5167	FEEDBACK	n/a	n/a	n/a	n/a	n/a	n/a	n/a	n/a
3.5385	1.0167	ITI	n/a	n/a	n/a	n/a	n/a	n/a	n/a	n/a
4.5551	0.5167	FIXCROSS	n/a	n/a	n/a	n/a	n/a	n/a	n/a	n/a
5.0718	0.7167	T_INK	2	Neutral	xxxxxxxxx	xxxxxxxxx	zielony	green	hit	n/a
5.7589	n/a	RESPONSE	n/a	n/a	n/a	n/a	n/a	n/a	n/a	green
5.7885	0.5167	FEEDBACK	n/a	n/a	n/a	n/a	n/a	n/a	n/a	n/a
6.3051	1.0167	ITI	n/a	n/a	n/a	n/a	n/a	n/a	n/a	n/a
7.3218	0.5167	FIXCROSS	n/a	n/a	n/a	n/a	n/a	n/a	n/a	n/a
7.8385	0.9333	T_INK	3	Neutral	xxxxxxxx	xxxxxxxx	niebieski	blue	hit	n/a
8.7342	n/a	RESPONSE	n/a	n/a	n/a	n/a	n/a	n/a	n/a	blue
8.7718	0.5167	FEEDBACK	n/a	n/a	n/a	n/a	n/a	n/a	n/a	n/a
9.2885	1.0167	ITI	n/a	n/a	n/a	n/a	n/a	n/a	n/a	n/a
10.3052	0.5167	FIXCROSS	n/a	n/a	n/a	n/a	n/a	n/a	n/a	n/a
10.8218	0.6167	T_INK	4	Neutral	xxxxxxxxx	xxxxxxxxx	żółty	yellow	hit	n/a
11.4056	n/a	RESPONSE	n/a	n/a	n/a	n/a	n/a	n/a	n/a	yellow
11.4385	0.5167	FEEDBACK	n/a	n/a	n/a	n/a	n/a	n/a	n/a	n/a
11.9552	1.0167	ITI	n/a	n/a	n/a	n/a	n/a	n/a	n/a	n/a
12.9719	0.5167	FIXCROSS	n/a	n/a	n/a	n/a	n/a	n/a	n/a	n/a
13.4885	1.7667	T_INK	5	Incongruent	żółty	yellow	czerwony	red	hit	n/a
15.2289	n/a	RESPONSE	n/a	n/a	n/a	n/a	n/a	n/a	n/a	red
15.2552	0.5167	FEEDBACK	n/a	n/a	n/a	n/a	n/a	n/a	n/a	n/a
15.7719	1.0167	ITI	n/a	n/a	n/a	n/a	n/a	n/a	n/a	n/a
16.7886	0.5167	FIXCROSS	n/a	n/a	n/a	n/a	n/a	n/a	n/a	n/a
17.3052	0.75	T_INK	6	Incongruent	czerwony	red	zielony	green	hit	n/a
18.0282	n/a	RESPONSE	n/a	n/a	n/a	n/a	n/a	n/a	n/a	green
18.0552	0.5167	FEEDBACK	n/a	n/a	n/a	n/a	n/a	n/a	n/a	n/a
18.5719	1.0167	ITI	n/a	n/a	n/a	n/a	n/a	n/a	n/a	n/a
19.5886	0.5167	FIXCROSS	n/a	n/a	n/a	n/a	n/a	n/a	n/a	n/a
20.1053	0.7833	T_INK	7	Incongruent	żółty	yellow	niebieski	blue	hit	n/a
20.8597	n/a	RESPONSE	n/a	n/a	n/a	n/a	n/a	n/a	n/a	blue
20.8886	0.5167	FEEDBACK	n/a	n/a	n/a	n/a	n/a	n/a	n/a	n/a
21.4052	1.0167	ITI	n/a	n/a	n/a	n/a	n/a	n/a	n/a	n/a
22.4219	0.5167	FIXCROSS	n/a	n/a	n/a	n/a	n/a	n/a	n/a	n/a
22.9386	0.7	T_INK	8	Incongruent	zielony	green	czerwony	red	hit	n/a
23.6111	n/a	RESPONSE	n/a	n/a	n/a	n/a	n/a	n/a	n/a	red
23.6386	0.5167	FEEDBACK	n/a	n/a	n/a	n/a	n/a	n/a	n/a	n/a
24.1553	1.0167	ITI	n/a	n/a	n/a	n/a	n/a	n/a	n/a	n/a
25.1719	0.5167	FIXCROSS	n/a	n/a	n/a	n/a	n/a	n/a	n/a	n/a
25.6886	0.65	T_INK	9	Neutral	xxxxxxx	xxxxxxx	czerwony	red	hit	n/a
26.3145	n/a	RESPONSE	n/a	n/a	n/a	n/a	n/a	n/a	n/a	red
26.3386	0.5167	FEEDBACK	n/a	n/a	n/a	n/a	n/a	n/a	n/a	n/a
26.8553	1.0167	ITI	n/a	n/a	n/a	n/a	n/a	n/a	n/a	n/a
27.872	0.5167	FIXCROSS	n/a	n/a	n/a	n/a	n/a	n/a	n/a	n/a
28.3886	0.7167	T_INK	10	Incongruent	zielony	green	niebieski	blue	hit	n/a
29.0819	n/a	RESPONSE	n/a	n/a	n/a	n/a	n/a	n/a	n/a	blue
29.1053	0.5167	FEEDBACK	n/a	n/a	n/a	n/a	n/a	n/a	n/a	n/a
29.622	1.0167	ITI	n/a	n/a	n/a	n/a	n/a	n/a	n/a	n/a
30.6387	0.5167	FIXCROSS	n/a	n/a	n/a	n/a	n/a	n/a	n/a	n/a
31.1553	0.6333	T_INK	11	Incongruent	zielony	green	żółty	yellow	hit	n/a
31.7534	n/a	RESPONSE	n/a	n/a	n/a	n/a	n/a	n/a	n/a	yellow
31.7887	0.5167	FEEDBACK	n/a	n/a	n/a	n/a	n/a	n/a	n/a	n/a
32.3053	1.0167	ITI	n/a	n/a	n/a	n/a	n/a	n/a	n/a	n/a
33.322	0.5167	FIXCROSS	n/a	n/a	n/a	n/a	n/a	n/a	n/a	n/a
33.8387	0.6	T_INK	12	Neutral	xxxxxxxxx	xxxxxxxxx	czerwony	red	hit	n/a
34.4088	n/a	RESPONSE	n/a	n/a	n/a	n/a	n/a	n/a	n/a	red
34.4387	0.5167	FEEDBACK	n/a	n/a	n/a	n/a	n/a	n/a	n/a	n/a
34.9553	1.0333	ITI	n/a	n/a	n/a	n/a	n/a	n/a	n/a	n/a
47.1581	n/a	RESPONSE	n/a	n/a	n/a	n/a	n/a	n/a	n/a	n/a
47.2221	1.0167	ITI	n/a	n/a	n/a	n/a	n/a	n/a	n/a	n/a
48.2388	0.5167	FIXCROSS	n/a	n/a	n/a	n/a	n/a	n/a	n/a	n/a
48.7554	0.8667	INK	1	Incongruent	czerwony	red	zielony	green	hit	n/a
49.5896	n/a	RESPONSE	n/a	n/a	n/a	n/a	n/a	n/a	n/a	green
49.6221	1.0167	ITI	n/a	n/a	n/a	n/a	n/a	n/a	n/a	n/a
50.6388	0.5167	FIXCROSS	n/a	n/a	n/a	n/a	n/a	n/a	n/a	n/a
51.1555	0.7167	INK	2	Neutral	xxxxx	xxxxx	niebieski	blue	hit	n/a
51.8451	n/a	RESPONSE	n/a	n/a	n/a	n/a	n/a	n/a	n/a	blue
51.8721	1.0167	ITI	n/a	n/a	n/a	n/a	n/a	n/a	n/a	n/a
52.8888	0.5167	FIXCROSS	n/a	n/a	n/a	n/a	n/a	n/a	n/a	n/a
53.4055	0.65	INK	3	Neutral	xxxxxxxx	xxxxxxxx	niebieski	blue	hit	n/a
54.0367	n/a	RESPONSE	n/a	n/a	n/a	n/a	n/a	n/a	n/a	blue
54.0555	1.0167	ITI	n/a	n/a	n/a	n/a	n/a	n/a	n/a	n/a
55.0722	0.5167	FIXCROSS	n/a	n/a	n/a	n/a	n/a	n/a	n/a	n/a
55.5888	0.8167	INK	4	Neutral	xxxxxxxxx	xxxxxxxxx	zielony	green	hit	n/a
56.3882	n/a	RESPONSE	n/a	n/a	n/a	n/a	n/a	n/a	n/a	green
56.4055	1.0167	ITI	n/a	n/a	n/a	n/a	n/a	n/a	n/a	n/a
57.4222	0.5167	FIXCROSS	n/a	n/a	n/a	n/a	n/a	n/a	n/a	n/a
57.9388	0.6667	INK	5	Neutral	xxxxxxx	xxxxxxx	niebieski	blue	hit	n/a
58.5797	n/a	RESPONSE	n/a	n/a	n/a	n/a	n/a	n/a	n/a	blue
58.6055	1.0167	ITI	n/a	n/a	n/a	n/a	n/a	n/a	n/a	n/a
59.6222	0.5167	FIXCROSS	n/a	n/a	n/a	n/a	n/a	n/a	n/a	n/a
60.1389	0.6833	INK	6	Neutral	xxxxxxxx	xxxxxxxx	żółty	yellow	hit	n/a
60.8033	n/a	RESPONSE	n/a	n/a	n/a	n/a	n/a	n/a	n/a	yellow
60.8222	1.0167	ITI	n/a	n/a	n/a	n/a	n/a	n/a	n/a	n/a
61.8389	0.5167	FIXCROSS	n/a	n/a	n/a	n/a	n/a	n/a	n/a	n/a
62.3555	0.6	INK	7	Incongruent	zielony	green	żółty	yellow	hit	n/a
62.9308	n/a	RESPONSE	n/a	n/a	n/a	n/a	n/a	n/a	n/a	yellow
62.9555	1.0167	ITI	n/a	n/a	n/a	n/a	n/a	n/a	n/a	n/a
63.9722	0.5167	FIXCROSS	n/a	n/a	n/a	n/a	n/a	n/a	n/a	n/a
64.4889	0.9333	INK	8	Neutral	xxxxxxx	xxxxxxx	niebieski	blue	hit	n/a
65.3943	n/a	RESPONSE	n/a	n/a	n/a	n/a	n/a	n/a	n/a	blue
65.4222	1.0167	ITI	n/a	n/a	n/a	n/a	n/a	n/a	n/a	n/a
66.4389	0.5167	FIXCROSS	n/a	n/a	n/a	n/a	n/a	n/a	n/a	n/a
66.9556	0.5833	INK	9	Neutral	xxxxxxxx	xxxxxxxx	żółty	yellow	hit	n/a
67.5059	n/a	RESPONSE	n/a	n/a	n/a	n/a	n/a	n/a	n/a	yellow
67.5389	1.0167	ITI	n/a	n/a	n/a	n/a	n/a	n/a	n/a	n/a
68.5556	0.5167	FIXCROSS	n/a	n/a	n/a	n/a	n/a	n/a	n/a	n/a
69.0723	0.4	INK	10	Neutral	xxxxxxxxx	xxxxxxxxx	żółty	yellow	hit	n/a
69.4414	n/a	RESPONSE	n/a	n/a	n/a	n/a	n/a	n/a	n/a	yellow
69.4723	1.0167	ITI	n/a	n/a	n/a	n/a	n/a	n/a	n/a	n/a
70.4889	0.5167	FIXCROSS	n/a	n/a	n/a	n/a	n/a	n/a	n/a	n/a
71.0056	0.4333	INK	11	Incongruent	czerwony	red	żółty	yellow	hit	n/a
71.409	n/a	RESPONSE	n/a	n/a	n/a	n/a	n/a	n/a	n/a	yellow
71.4389	1.0167	ITI	n/a	n/a	n/a	n/a	n/a	n/a	n/a	n/a
72.4556	0.5167	FIXCROSS	n/a	n/a	n/a	n/a	n/a	n/a	n/a	n/a
72.9723	0.45	INK	12	Neutral	xxxxxxx	xxxxxxx	żółty	yellow	hit	n/a
73.3926	n/a	RESPONSE	n/a	n/a	n/a	n/a	n/a	n/a	n/a	yellow
73.4223	1.0167	ITI	n/a	n/a	n/a	n/a	n/a	n/a	n/a	n/a
74.439	0.5167	FIXCROSS	n/a	n/a	n/a	n/a	n/a	n/a	n/a	n/a
74.9556	0.6	INK	13	Incongruent	żółty	yellow	czerwony	red	hit	n/a
75.5361	n/a	RESPONSE	n/a	n/a	n/a	n/a	n/a	n/a	n/a	red
75.5556	1.0167	ITI	n/a	n/a	n/a	n/a	n/a	n/a	n/a	n/a
76.5723	0.5167	FIXCROSS	n/a	n/a	n/a	n/a	n/a	n/a	n/a	n/a
77.089	0.6333	INK	14	Incongruent	zielony	green	żółty	yellow	hit	n/a
77.6957	n/a	RESPONSE	n/a	n/a	n/a	n/a	n/a	n/a	n/a	yellow
77.7223	1.0167	ITI	n/a	n/a	n/a	n/a	n/a	n/a	n/a	n/a
78.739	0.5167	FIXCROSS	n/a	n/a	n/a	n/a	n/a	n/a	n/a	n/a
79.2557	0.5833	INK	15	Incongruent	żółty	yellow	czerwony	red	hit	n/a
79.8072	n/a	RESPONSE	n/a	n/a	n/a	n/a	n/a	n/a	n/a	red
79.839	1.0167	ITI	n/a	n/a	n/a	n/a	n/a	n/a	n/a	n/a
80.8557	0.5167	FIXCROSS	n/a	n/a	n/a	n/a	n/a	n/a	n/a	n/a
81.3723	0.65	INK	16	Incongruent	niebieski	blue	czerwony	red	hit	n/a
81.9988	n/a	RESPONSE	n/a	n/a	n/a	n/a	n/a	n/a	n/a	red
82.0223	1.0167	ITI	n/a	n/a	n/a	n/a	n/a	n/a	n/a	n/a
83.039	0.5167	FIXCROSS	n/a	n/a	n/a	n/a	n/a	n/a	n/a	n/a
83.5557	0.4	INK	17	Neutral	xxxxxxxxx	xxxxxxxxx	czerwony	red	hit	n/a
83.9344	n/a	RESPONSE	n/a	n/a	n/a	n/a	n/a	n/a	n/a	red
83.9557	1.0167	ITI	n/a	n/a	n/a	n/a	n/a	n/a	n/a	n/a
84.9724	0.5167	FIXCROSS	n/a	n/a	n/a	n/a	n/a	n/a	n/a	n/a
85.489	0.6	INK	18	Incongruent	niebieski	blue	czerwony	red	hit	n/a
86.0619	n/a	RESPONSE	n/a	n/a	n/a	n/a	n/a	n/a	n/a	red
86.089	1.0167	ITI	n/a	n/a	n/a	n/a	n/a	n/a	n/a	n/a
87.1057	0.5167	FIXCROSS	n/a	n/a	n/a	n/a	n/a	n/a	n/a	n/a
87.6224	0.6	INK	19	Neutral	xxxxxxxx	xxxxxxxx	żółty	yellow	hit	n/a
88.1895	n/a	RESPONSE	n/a	n/a	n/a	n/a	n/a	n/a	n/a	yellow
88.2224	1.0167	ITI	n/a	n/a	n/a	n/a	n/a	n/a	n/a	n/a
89.2391	0.5167	FIXCROSS	n/a	n/a	n/a	n/a	n/a	n/a	n/a	n/a
89.7557	0.7	INK	20	Incongruent	niebieski	blue	zielony	green	hit	n/a
90.429	n/a	RESPONSE	n/a	n/a	n/a	n/a	n/a	n/a	n/a	green
90.4557	1.0167	ITI	n/a	n/a	n/a	n/a	n/a	n/a	n/a	n/a
91.4724	0.5167	FIXCROSS	n/a	n/a	n/a	n/a	n/a	n/a	n/a	n/a
91.9891	0.5833	INK	21	Neutral	xxxxxxxxx	xxxxxxxxx	żółty	yellow	hit	n/a
92.5406	n/a	RESPONSE	n/a	n/a	n/a	n/a	n/a	n/a	n/a	yellow
92.5724	1.0167	ITI	n/a	n/a	n/a	n/a	n/a	n/a	n/a	n/a
93.5891	0.5167	FIXCROSS	n/a	n/a	n/a	n/a	n/a	n/a	n/a	n/a
94.1058	0.7	INK	22	Incongruent	zielony	green	niebieski	blue	hit	n/a
94.7801	n/a	RESPONSE	n/a	n/a	n/a	n/a	n/a	n/a	n/a	blue
94.8058	1.0167	ITI	n/a	n/a	n/a	n/a	n/a	n/a	n/a	n/a
95.8224	0.5167	FIXCROSS	n/a	n/a	n/a	n/a	n/a	n/a	n/a	n/a
96.3391	0.6	INK	23	Incongruent	niebieski	blue	czerwony	red	hit	n/a
96.9077	n/a	RESPONSE	n/a	n/a	n/a	n/a	n/a	n/a	n/a	red
96.9391	1.0167	ITI	n/a	n/a	n/a	n/a	n/a	n/a	n/a	n/a
97.9558	0.5167	FIXCROSS	n/a	n/a	n/a	n/a	n/a	n/a	n/a	n/a
98.4725	0.5833	INK	24	Incongruent	żółty	yellow	zielony	green	hit	n/a
99.0352	n/a	RESPONSE	n/a	n/a	n/a	n/a	n/a	n/a	n/a	green
99.0558	1.0167	ITI	n/a	n/a	n/a	n/a	n/a	n/a	n/a	n/a
100.0725	0.5167	FIXCROSS	n/a	n/a	n/a	n/a	n/a	n/a	n/a	n/a
100.5891	0.65	INK	25	Neutral	xxxxxxxxx	xxxxxxxxx	zielony	green	hit	n/a
101.2107	n/a	RESPONSE	n/a	n/a	n/a	n/a	n/a	n/a	n/a	green
101.2391	1.0167	ITI	n/a	n/a	n/a	n/a	n/a	n/a	n/a	n/a
102.2558	0.5167	FIXCROSS	n/a	n/a	n/a	n/a	n/a	n/a	n/a	n/a
102.7725	0.5833	INK	26	Incongruent	czerwony	red	niebieski	blue	hit	n/a
103.3383	n/a	RESPONSE	n/a	n/a	n/a	n/a	n/a	n/a	n/a	blue
103.3558	1.0167	ITI	n/a	n/a	n/a	n/a	n/a	n/a	n/a	n/a
104.3725	0.5167	FIXCROSS	n/a	n/a	n/a	n/a	n/a	n/a	n/a	n/a
104.8892	0.7667	INK	27	Incongruent	zielony	green	niebieski	blue	hit	n/a
105.6258	n/a	RESPONSE	n/a	n/a	n/a	n/a	n/a	n/a	n/a	blue
105.6558	1.0167	ITI	n/a	n/a	n/a	n/a	n/a	n/a	n/a	n/a
106.6725	0.5167	FIXCROSS	n/a	n/a	n/a	n/a	n/a	n/a	n/a	n/a
107.1892	0.7833	INK	28	Neutral	xxxxx	xxxxx	zielony	green	hit	n/a
107.9453	n/a	RESPONSE	n/a	n/a	n/a	n/a	n/a	n/a	n/a	green
107.9725	1.0167	ITI	n/a	n/a	n/a	n/a	n/a	n/a	n/a	n/a
108.9892	0.5167	FIXCROSS	n/a	n/a	n/a	n/a	n/a	n/a	n/a	n/a
109.5059	0.45	INK	29	Neutral	xxxxxxxx	xxxxxxxx	zielony	green	hit	n/a
109.9289	n/a	RESPONSE	n/a	n/a	n/a	n/a	n/a	n/a	n/a	green
109.9559	1.0167	ITI	n/a	n/a	n/a	n/a	n/a	n/a	n/a	n/a
110.9725	0.5167	FIXCROSS	n/a	n/a	n/a	n/a	n/a	n/a	n/a	n/a
111.4892	0.5333	INK	30	Neutral	xxxxxxx	xxxxxxx	czerwony	red	hit	n/a
111.9925	n/a	RESPONSE	n/a	n/a	n/a	n/a	n/a	n/a	n/a	red
112.0226	1.0167	ITI	n/a	n/a	n/a	n/a	n/a	n/a	n/a	n/a
113.0392	0.5167	FIXCROSS	n/a	n/a	n/a	n/a	n/a	n/a	n/a	n/a
113.5559	0.9167	INK	31	Incongruent	żółty	yellow	niebieski	blue	hit	n/a
114.44	n/a	RESPONSE	n/a	n/a	n/a	n/a	n/a	n/a	n/a	blue
114.4726	1.0167	ITI	n/a	n/a	n/a	n/a	n/a	n/a	n/a	n/a
115.4892	0.5166	FIXCROSS	n/a	n/a	n/a	n/a	n/a	n/a	n/a	n/a
116.0059	0.65	INK	32	Incongruent	niebieski	blue	żółty	yellow	hit	n/a
116.6315	n/a	RESPONSE	n/a	n/a	n/a	n/a	n/a	n/a	n/a	yellow
116.6559	1.0167	ITI	n/a	n/a	n/a	n/a	n/a	n/a	n/a	n/a
117.6726	0.5167	FIXCROSS	n/a	n/a	n/a	n/a	n/a	n/a	n/a	n/a
118.1893	0.6333	INK	33	Incongruent	żółty	yellow	zielony	green	hit	n/a
118.791	n/a	RESPONSE	n/a	n/a	n/a	n/a	n/a	n/a	n/a	green
118.8226	1.0167	ITI	n/a	n/a	n/a	n/a	n/a	n/a	n/a	n/a
119.8393	0.5167	FIXCROSS	n/a	n/a	n/a	n/a	n/a	n/a	n/a	n/a
120.3559	0.6167	INK	34	Neutral	xxxxx	xxxxx	niebieski	blue	hit	n/a
120.9506	n/a	RESPONSE	n/a	n/a	n/a	n/a	n/a	n/a	n/a	blue
120.9726	1.0167	ITI	n/a	n/a	n/a	n/a	n/a	n/a	n/a	n/a
121.9893	0.5167	FIXCROSS	n/a	n/a	n/a	n/a	n/a	n/a	n/a	n/a
122.506	0.6	INK	35	Incongruent	niebieski	blue	żółty	yellow	hit	n/a
123.0782	n/a	RESPONSE	n/a	n/a	n/a	n/a	n/a	n/a	n/a	yellow
123.106	1.0167	ITI	n/a	n/a	n/a	n/a	n/a	n/a	n/a	n/a
124.1226	0.5167	FIXCROSS	n/a	n/a	n/a	n/a	n/a	n/a	n/a	n/a
124.6393	0.7833	INK	36	Incongruent	czerwony	red	niebieski	blue	hit	n/a
125.3976	n/a	RESPONSE	n/a	n/a	n/a	n/a	n/a	n/a	n/a	blue
125.4226	1.0167	ITI	n/a	n/a	n/a	n/a	n/a	n/a	n/a	n/a
126.4393	0.5167	FIXCROSS	n/a	n/a	n/a	n/a	n/a	n/a	n/a	n/a
126.956	0.6	INK	37	Incongruent	zielony	green	czerwony	red	hit	n/a
127.5252	n/a	RESPONSE	n/a	n/a	n/a	n/a	n/a	n/a	n/a	red
127.556	1.0167	ITI	n/a	n/a	n/a	n/a	n/a	n/a	n/a	n/a
128.5727	0.5167	FIXCROSS	n/a	n/a	n/a	n/a	n/a	n/a	n/a	n/a
129.0893	0.5333	INK	38	Neutral	xxxxxxxxx	xxxxxxxxx	czerwony	red	hit	n/a
129.6048	n/a	RESPONSE	n/a	n/a	n/a	n/a	n/a	n/a	n/a	red
129.6227	1.0167	ITI	n/a	n/a	n/a	n/a	n/a	n/a	n/a	n/a
130.6394	0.5167	FIXCROSS	n/a	n/a	n/a	n/a	n/a	n/a	n/a	n/a
131.156	0.5333	INK	39	Neutral	xxxxx	xxxxx	czerwony	red	hit	n/a
131.6683	n/a	RESPONSE	n/a	n/a	n/a	n/a	n/a	n/a	n/a	red
131.6894	1.0167	ITI	n/a	n/a	n/a	n/a	n/a	n/a	n/a	n/a
132.706	0.5167	FIXCROSS	n/a	n/a	n/a	n/a	n/a	n/a	n/a	n/a
133.2227	0.5667	INK	40	Incongruent	zielony	green	czerwony	red	hit	n/a
133.7639	n/a	RESPONSE	n/a	n/a	n/a	n/a	n/a	n/a	n/a	red
133.7894	1.0167	ITI	n/a	n/a	n/a	n/a	n/a	n/a	n/a	n/a
134.806	0.5167	FIXCROSS	n/a	n/a	n/a	n/a	n/a	n/a	n/a	n/a
135.3227	0.6833	INK	41	Incongruent	czerwony	red	niebieski	blue	hit	n/a
135.9874	n/a	RESPONSE	n/a	n/a	n/a	n/a	n/a	n/a	n/a	blue
136.0061	1.0167	ITI	n/a	n/a	n/a	n/a	n/a	n/a	n/a	n/a
137.0227	0.5167	FIXCROSS	n/a	n/a	n/a	n/a	n/a	n/a	n/a	n/a
137.5394	0.65	INK	42	Neutral	xxxxxxx	xxxxxxx	czerwony	red	hit	n/a
138.163	n/a	RESPONSE	n/a	n/a	n/a	n/a	n/a	n/a	n/a	red
138.1894	1.0167	ITI	n/a	n/a	n/a	n/a	n/a	n/a	n/a	n/a
139.2061	0.5167	FIXCROSS	n/a	n/a	n/a	n/a	n/a	n/a	n/a	n/a
139.7227	0.55	INK	43	Neutral	xxxxx	xxxxx	zielony	green	incorrect	n/a
140.2425	n/a	RESPONSE	n/a	n/a	n/a	n/a	n/a	n/a	n/a	yellow
140.2728	1.0167	ITI	n/a	n/a	n/a	n/a	n/a	n/a	n/a	n/a
141.2894	0.5167	FIXCROSS	n/a	n/a	n/a	n/a	n/a	n/a	n/a	n/a
141.8061	1.0	INK	44	Neutral	xxxxxxx	xxxxxxx	czerwony	red	hit	n/a
142.786	n/a	RESPONSE	n/a	n/a	n/a	n/a	n/a	n/a	n/a	red
142.8061	1.0167	ITI	n/a	n/a	n/a	n/a	n/a	n/a	n/a	n/a
143.8228	0.5167	FIXCROSS	n/a	n/a	n/a	n/a	n/a	n/a	n/a	n/a
144.3394	0.5167	INK	45	Neutral	xxxxxxxxx	xxxxxxxxx	czerwony	red	hit	n/a
144.8336	n/a	RESPONSE	n/a	n/a	n/a	n/a	n/a	n/a	n/a	red
144.8561	1.0167	ITI	n/a	n/a	n/a	n/a	n/a	n/a	n/a	n/a
145.8728	0.5167	FIXCROSS	n/a	n/a	n/a	n/a	n/a	n/a	n/a	n/a
146.3895	0.7167	INK	46	Neutral	xxxxxxxx	xxxxxxxx	zielony	green	hit	n/a
147.0731	n/a	RESPONSE	n/a	n/a	n/a	n/a	n/a	n/a	n/a	green
147.1061	1.0167	ITI	n/a	n/a	n/a	n/a	n/a	n/a	n/a	n/a
148.1228	0.5167	FIXCROSS	n/a	n/a	n/a	n/a	n/a	n/a	n/a	n/a
148.6395	0.6333	INK	47	Incongruent	czerwony	red	zielony	green	hit	n/a
149.2486	n/a	RESPONSE	n/a	n/a	n/a	n/a	n/a	n/a	n/a	green
149.2728	1.0167	ITI	n/a	n/a	n/a	n/a	n/a	n/a	n/a	n/a
150.2895	0.5167	FIXCROSS	n/a	n/a	n/a	n/a	n/a	n/a	n/a	n/a
150.8062	0.75	INK	48	Incongruent	żółty	yellow	niebieski	blue	hit	n/a
151.5361	n/a	RESPONSE	n/a	n/a	n/a	n/a	n/a	n/a	n/a	blue
151.5562	1.0167	ITI	n/a	n/a	n/a	n/a	n/a	n/a	n/a	n/a
152.5728	0.5167	FIXCROSS	n/a	n/a	n/a	n/a	n/a	n/a	n/a	n/a
153.0895	0.6833	INK	49	Neutral	xxxxxxxx	xxxxxxxx	zielony	green	hit	n/a
153.7436	n/a	RESPONSE	n/a	n/a	n/a	n/a	n/a	n/a	n/a	green
153.7728	1.0167	ITI	n/a	n/a	n/a	n/a	n/a	n/a	n/a	n/a
154.7895	0.5167	FIXCROSS	n/a	n/a	n/a	n/a	n/a	n/a	n/a	n/a
155.3062	0.55	INK	50	Neutral	xxxxx	xxxxx	zielony	green	hit	n/a
155.8233	n/a	RESPONSE	n/a	n/a	n/a	n/a	n/a	n/a	n/a	green
155.8562	1.0167	ITI	n/a	n/a	n/a	n/a	n/a	n/a	n/a	n/a
156.8729	0.5167	FIXCROSS	n/a	n/a	n/a	n/a	n/a	n/a	n/a	n/a
157.3895	0.7167	INK	51	Incongruent	zielony	green	niebieski	blue	hit	n/a
158.0788	n/a	RESPONSE	n/a	n/a	n/a	n/a	n/a	n/a	n/a	blue
158.1062	1.0167	ITI	n/a	n/a	n/a	n/a	n/a	n/a	n/a	n/a
159.1229	0.5167	FIXCROSS	n/a	n/a	n/a	n/a	n/a	n/a	n/a	n/a
159.6396	0.6	INK	52	Incongruent	niebieski	blue	żółty	yellow	hit	n/a
160.2223	n/a	RESPONSE	n/a	n/a	n/a	n/a	n/a	n/a	n/a	yellow
160.2396	1.0167	ITI	n/a	n/a	n/a	n/a	n/a	n/a	n/a	n/a
161.2562	0.5167	FIXCROSS	n/a	n/a	n/a	n/a	n/a	n/a	n/a	n/a
161.7729	0.5833	INK	53	Neutral	xxxxx	xxxxx	niebieski	blue	hit	n/a
162.3339	n/a	RESPONSE	n/a	n/a	n/a	n/a	n/a	n/a	n/a	blue
162.3562	1.0167	ITI	n/a	n/a	n/a	n/a	n/a	n/a	n/a	n/a
163.3729	0.5167	FIXCROSS	n/a	n/a	n/a	n/a	n/a	n/a	n/a	n/a
163.8896	0.7167	INK	54	Incongruent	czerwony	red	zielony	green	hit	n/a
164.5734	n/a	RESPONSE	n/a	n/a	n/a	n/a	n/a	n/a	n/a	green
164.6063	1.0167	ITI	n/a	n/a	n/a	n/a	n/a	n/a	n/a	n/a
165.6229	0.5167	FIXCROSS	n/a	n/a	n/a	n/a	n/a	n/a	n/a	n/a
166.1396	0.6	INK	55	Incongruent	żółty	yellow	czerwony	red	hit	n/a
166.7169	n/a	RESPONSE	n/a	n/a	n/a	n/a	n/a	n/a	n/a	red
166.7396	1.0167	ITI	n/a	n/a	n/a	n/a	n/a	n/a	n/a	n/a
167.7563	0.5167	FIXCROSS	n/a	n/a	n/a	n/a	n/a	n/a	n/a	n/a
168.273	0.5833	INK	56	Incongruent	czerwony	red	żółty	yellow	hit	n/a
168.8285	n/a	RESPONSE	n/a	n/a	n/a	n/a	n/a	n/a	n/a	yellow
168.8563	1.0167	ITI	n/a	n/a	n/a	n/a	n/a	n/a	n/a	n/a
169.873	0.5167	FIXCROSS	n/a	n/a	n/a	n/a	n/a	n/a	n/a	n/a
170.3896	0.55	INK	57	Neutral	xxxxxxx	xxxxxxx	żółty	yellow	hit	n/a
170.908	n/a	RESPONSE	n/a	n/a	n/a	n/a	n/a	n/a	n/a	yellow
170.9396	1.0167	ITI	n/a	n/a	n/a	n/a	n/a	n/a	n/a	n/a
171.9563	0.5167	FIXCROSS	n/a	n/a	n/a	n/a	n/a	n/a	n/a	n/a
172.473	0.5333	INK	58	Neutral	xxxxx	xxxxx	czerwony	red	hit	n/a
172.9876	n/a	RESPONSE	n/a	n/a	n/a	n/a	n/a	n/a	n/a	red
173.0063	1.0167	ITI	n/a	n/a	n/a	n/a	n/a	n/a	n/a	n/a
174.023	0.5167	FIXCROSS	n/a	n/a	n/a	n/a	n/a	n/a	n/a	n/a
174.5397	0.75	INK	59	Neutral	xxxxxxxx	xxxxxxxx	niebieski	blue	hit	n/a
175.2591	n/a	RESPONSE	n/a	n/a	n/a	n/a	n/a	n/a	n/a	blue
175.2897	1.0167	ITI	n/a	n/a	n/a	n/a	n/a	n/a	n/a	n/a
176.3063	0.5167	FIXCROSS	n/a	n/a	n/a	n/a	n/a	n/a	n/a	n/a
176.823	0.5333	INK	60	Incongruent	zielony	green	żółty	yellow	hit	n/a
177.3227	n/a	RESPONSE	n/a	n/a	n/a	n/a	n/a	n/a	n/a	yellow
177.3563	1.0167	ITI	n/a	n/a	n/a	n/a	n/a	n/a	n/a	n/a
178.373	0.5167	FIXCROSS	n/a	n/a	n/a	n/a	n/a	n/a	n/a	n/a
178.8897	0.45	INK	61	Neutral	xxxxxxxxx	xxxxxxxxx	żółty	yellow	hit	n/a
179.3223	n/a	RESPONSE	n/a	n/a	n/a	n/a	n/a	n/a	n/a	yellow
179.3397	1.0167	ITI	n/a	n/a	n/a	n/a	n/a	n/a	n/a	n/a
180.3564	0.5167	FIXCROSS	n/a	n/a	n/a	n/a	n/a	n/a	n/a	n/a
180.873	0.7167	INK	62	Incongruent	żółty	yellow	niebieski	blue	hit	n/a
181.5618	n/a	RESPONSE	n/a	n/a	n/a	n/a	n/a	n/a	n/a	blue
181.5897	1.0167	ITI	n/a	n/a	n/a	n/a	n/a	n/a	n/a	n/a
182.6064	0.5167	FIXCROSS	n/a	n/a	n/a	n/a	n/a	n/a	n/a	n/a
183.1231	0.7333	INK	63	Incongruent	zielony	green	czerwony	red	hit	n/a
183.8333	n/a	RESPONSE	n/a	n/a	n/a	n/a	n/a	n/a	n/a	red
183.8564	1.0167	ITI	n/a	n/a	n/a	n/a	n/a	n/a	n/a	n/a
184.8731	0.5167	FIXCROSS	n/a	n/a	n/a	n/a	n/a	n/a	n/a	n/a
185.3897	0.5833	INK	64	Neutral	xxxxxxxxx	xxxxxxxxx	zielony	green	hit	n/a
185.9449	n/a	RESPONSE	n/a	n/a	n/a	n/a	n/a	n/a	n/a	green
185.9731	1.0167	ITI	n/a	n/a	n/a	n/a	n/a	n/a	n/a	n/a
186.9897	0.5167	FIXCROSS	n/a	n/a	n/a	n/a	n/a	n/a	n/a	n/a
187.5064	0.6167	INK	65	Incongruent	niebieski	blue	zielony	green	hit	n/a
188.1044	n/a	RESPONSE	n/a	n/a	n/a	n/a	n/a	n/a	n/a	green
188.1231	1.0167	ITI	n/a	n/a	n/a	n/a	n/a	n/a	n/a	n/a
189.1398	0.5167	FIXCROSS	n/a	n/a	n/a	n/a	n/a	n/a	n/a	n/a
189.6564	0.6667	INK	66	Incongruent	czerwony	red	żółty	yellow	hit	n/a
190.296	n/a	RESPONSE	n/a	n/a	n/a	n/a	n/a	n/a	n/a	yellow
190.3231	1.0167	ITI	n/a	n/a	n/a	n/a	n/a	n/a	n/a	n/a
191.3398	0.5167	FIXCROSS	n/a	n/a	n/a	n/a	n/a	n/a	n/a	n/a
191.8564	0.5833	INK	67	Neutral	xxxxxxx	xxxxxxx	żółty	yellow	hit	n/a
192.4075	n/a	RESPONSE	n/a	n/a	n/a	n/a	n/a	n/a	n/a	yellow
192.4398	1.0167	ITI	n/a	n/a	n/a	n/a	n/a	n/a	n/a	n/a
193.4565	0.5167	FIXCROSS	n/a	n/a	n/a	n/a	n/a	n/a	n/a	n/a
193.9731	0.8	INK	68	Neutral	xxxxxxx	xxxxxxx	niebieski	blue	hit	n/a
194.743	n/a	RESPONSE	n/a	n/a	n/a	n/a	n/a	n/a	n/a	blue
194.7731	1.0167	ITI	n/a	n/a	n/a	n/a	n/a	n/a	n/a	n/a
195.7898	0.5167	FIXCROSS	n/a	n/a	n/a	n/a	n/a	n/a	n/a	n/a
196.3065	0.5833	INK	69	Incongruent	niebieski	blue	zielony	green	hit	n/a
196.8706	n/a	RESPONSE	n/a	n/a	n/a	n/a	n/a	n/a	n/a	green
196.8898	1.0167	ITI	n/a	n/a	n/a	n/a	n/a	n/a	n/a	n/a
197.9065	0.5167	FIXCROSS	n/a	n/a	n/a	n/a	n/a	n/a	n/a	n/a
198.4232	0.65	INK	70	Neutral	xxxxxxxx	xxxxxxxx	niebieski	blue	hit	n/a
199.0461	n/a	RESPONSE	n/a	n/a	n/a	n/a	n/a	n/a	n/a	blue
199.0732	1.0167	ITI	n/a	n/a	n/a	n/a	n/a	n/a	n/a	n/a
200.0898	0.5167	FIXCROSS	n/a	n/a	n/a	n/a	n/a	n/a	n/a	n/a
200.6065	0.5667	INK	71	Neutral	xxxxx	xxxxx	czerwony	red	hit	n/a
201.1417	n/a	RESPONSE	n/a	n/a	n/a	n/a	n/a	n/a	n/a	red
201.1732	1.0167	ITI	n/a	n/a	n/a	n/a	n/a	n/a	n/a	n/a
202.1898	0.5167	FIXCROSS	n/a	n/a	n/a	n/a	n/a	n/a	n/a	n/a
202.7065	0.95	INK	72	Incongruent	żółty	yellow	zielony	green	hit	n/a
203.6372	n/a	RESPONSE	n/a	n/a	n/a	n/a	n/a	n/a	n/a	green
203.6565	1.0834	ITI	n/a	n/a	n/a	n/a	n/a	n/a	n/a	n/a
228.5279	n/a	RESPONSE	n/a	n/a	n/a	n/a	n/a	n/a	n/a	n/a
228.59	1.0167	ITI	n/a	n/a	n/a	n/a	n/a	n/a	n/a	n/a
229.6067	0.5167	FIXCROSS	n/a	n/a	n/a	n/a	n/a	n/a	n/a	n/a
230.1234	1.0667	T_COLOR_NAME	1	Neutral	czerwony	red	Neutral	Neutral	hit	n/a
231.1514	n/a	RESPONSE	n/a	n/a	n/a	n/a	n/a	n/a	n/a	red
231.19	0.5167	FEEDBACK	n/a	n/a	n/a	n/a	n/a	n/a	n/a	n/a
231.7067	1.0166	ITI	n/a	n/a	n/a	n/a	n/a	n/a	n/a	n/a
232.7234	0.5167	FIXCROSS	n/a	n/a	n/a	n/a	n/a	n/a	n/a	n/a
233.2401	0.7833	T_COLOR_NAME	2	Neutral	zielony	green	Neutral	Neutral	hit	n/a
233.9988	n/a	RESPONSE	n/a	n/a	n/a	n/a	n/a	n/a	n/a	green
234.0234	0.5167	FEEDBACK	n/a	n/a	n/a	n/a	n/a	n/a	n/a	n/a
234.5401	1.0167	ITI	n/a	n/a	n/a	n/a	n/a	n/a	n/a	n/a
235.5567	0.5167	FIXCROSS	n/a	n/a	n/a	n/a	n/a	n/a	n/a	n/a
236.0734	0.7167	T_COLOR_NAME	3	Neutral	czerwony	red	Neutral	Neutral	hit	n/a
236.7662	n/a	RESPONSE	n/a	n/a	n/a	n/a	n/a	n/a	n/a	red
236.7901	0.5167	FEEDBACK	n/a	n/a	n/a	n/a	n/a	n/a	n/a	n/a
237.3068	1.0167	ITI	n/a	n/a	n/a	n/a	n/a	n/a	n/a	n/a
238.3234	0.5167	FIXCROSS	n/a	n/a	n/a	n/a	n/a	n/a	n/a	n/a
238.8401	1.5333	T_COLOR_NAME	4	Incongruent	zielony	green	czerwony	red	hit	n/a
240.3494	n/a	RESPONSE	n/a	n/a	n/a	n/a	n/a	n/a	n/a	green
240.3734	0.5167	FEEDBACK	n/a	n/a	n/a	n/a	n/a	n/a	n/a	n/a
240.8901	1.0167	ITI	n/a	n/a	n/a	n/a	n/a	n/a	n/a	n/a
241.9068	0.5167	FIXCROSS	n/a	n/a	n/a	n/a	n/a	n/a	n/a	n/a
242.4235	0.8	T_COLOR_NAME	5	Neutral	niebieski	blue	Neutral	Neutral	hit	n/a
243.1968	n/a	RESPONSE	n/a	n/a	n/a	n/a	n/a	n/a	n/a	blue
243.2235	0.5167	FEEDBACK	n/a	n/a	n/a	n/a	n/a	n/a	n/a	n/a
243.7401	1.0167	ITI	n/a	n/a	n/a	n/a	n/a	n/a	n/a	n/a
244.7568	0.5167	FIXCROSS	n/a	n/a	n/a	n/a	n/a	n/a	n/a	n/a
245.2735	1.0	T_COLOR_NAME	6	Incongruent	żółty	yellow	czerwony	red	hit	n/a
246.2522	n/a	RESPONSE	n/a	n/a	n/a	n/a	n/a	n/a	n/a	yellow
246.2735	0.5167	FEEDBACK	n/a	n/a	n/a	n/a	n/a	n/a	n/a	n/a
246.7902	1.0167	ITI	n/a	n/a	n/a	n/a	n/a	n/a	n/a	n/a
247.8068	0.5167	FIXCROSS	n/a	n/a	n/a	n/a	n/a	n/a	n/a	n/a
248.3235	0.8667	T_COLOR_NAME	7	Neutral	niebieski	blue	Neutral	Neutral	hit	n/a
249.1636	n/a	RESPONSE	n/a	n/a	n/a	n/a	n/a	n/a	n/a	blue
249.1902	0.5167	FEEDBACK	n/a	n/a	n/a	n/a	n/a	n/a	n/a	n/a
249.7069	1.0167	ITI	n/a	n/a	n/a	n/a	n/a	n/a	n/a	n/a
250.7235	0.5167	FIXCROSS	n/a	n/a	n/a	n/a	n/a	n/a	n/a	n/a
251.2402	1.0167	T_COLOR_NAME	8	Neutral	niebieski	blue	Neutral	Neutral	hit	n/a
252.2349	n/a	RESPONSE	n/a	n/a	n/a	n/a	n/a	n/a	n/a	blue
252.2569	0.5167	FEEDBACK	n/a	n/a	n/a	n/a	n/a	n/a	n/a	n/a
252.7735	1.0167	ITI	n/a	n/a	n/a	n/a	n/a	n/a	n/a	n/a
253.7902	0.5167	FIXCROSS	n/a	n/a	n/a	n/a	n/a	n/a	n/a	n/a
254.3069	1.0167	T_COLOR_NAME	9	Incongruent	zielony	green	żółty	yellow	incorrect	n/a
255.2903	n/a	RESPONSE	n/a	n/a	n/a	n/a	n/a	n/a	n/a	yellow
255.3236	0.5167	FEEDBACK	n/a	n/a	n/a	n/a	n/a	n/a	n/a	n/a
255.8402	1.0167	ITI	n/a	n/a	n/a	n/a	n/a	n/a	n/a	n/a
256.8569	0.5167	FIXCROSS	n/a	n/a	n/a	n/a	n/a	n/a	n/a	n/a
257.3736	2.0834	T_COLOR_NAME	10	Incongruent	żółty	yellow	niebieski	blue	hit	n/a
259.4334	n/a	RESPONSE	n/a	n/a	n/a	n/a	n/a	n/a	n/a	yellow
259.4569	0.5167	FEEDBACK	n/a	n/a	n/a	n/a	n/a	n/a	n/a	n/a
259.9736	1.0167	ITI	n/a	n/a	n/a	n/a	n/a	n/a	n/a	n/a
260.9902	0.5167	FIXCROSS	n/a	n/a	n/a	n/a	n/a	n/a	n/a	n/a
261.5069	1.1	T_COLOR_NAME	11	Incongruent	czerwony	red	zielony	green	hit	n/a
262.5847	n/a	RESPONSE	n/a	n/a	n/a	n/a	n/a	n/a	n/a	red
262.6069	0.5167	FEEDBACK	n/a	n/a	n/a	n/a	n/a	n/a	n/a	n/a
263.1236	1.0167	ITI	n/a	n/a	n/a	n/a	n/a	n/a	n/a	n/a
264.1403	0.5167	FIXCROSS	n/a	n/a	n/a	n/a	n/a	n/a	n/a	n/a
264.6569	1.0333	T_COLOR_NAME	12	Incongruent	zielony	green	niebieski	blue	hit	n/a
265.6561	n/a	RESPONSE	n/a	n/a	n/a	n/a	n/a	n/a	n/a	green
265.6903	0.5167	FEEDBACK	n/a	n/a	n/a	n/a	n/a	n/a	n/a	n/a
266.207	1.0333	ITI	n/a	n/a	n/a	n/a	n/a	n/a	n/a	n/a
269.6713	n/a	RESPONSE	n/a	n/a	n/a	n/a	n/a	n/a	n/a	n/a
269.7236	1.0167	ITI	n/a	n/a	n/a	n/a	n/a	n/a	n/a	n/a
270.7403	0.5167	FIXCROSS	n/a	n/a	n/a	n/a	n/a	n/a	n/a	n/a
271.257	0.9333	COLOR_NAME	1	Neutral	zielony	green	Neutral	Neutral	hit	n/a
272.1667	n/a	RESPONSE	n/a	n/a	n/a	n/a	n/a	n/a	n/a	green
272.1903	1.0167	ITI	n/a	n/a	n/a	n/a	n/a	n/a	n/a	n/a
273.207	0.5167	FIXCROSS	n/a	n/a	n/a	n/a	n/a	n/a	n/a	n/a
273.7237	0.6167	COLOR_NAME	2	Neutral	zielony	green	Neutral	Neutral	hit	n/a
274.3103	n/a	RESPONSE	n/a	n/a	n/a	n/a	n/a	n/a	n/a	green
274.3403	1.0167	ITI	n/a	n/a	n/a	n/a	n/a	n/a	n/a	n/a
275.357	0.5167	FIXCROSS	n/a	n/a	n/a	n/a	n/a	n/a	n/a	n/a
275.8737	0.8	COLOR_NAME	3	Neutral	żółty	yellow	Neutral	Neutral	hit	n/a
276.6458	n/a	RESPONSE	n/a	n/a	n/a	n/a	n/a	n/a	n/a	yellow
276.6737	1.0167	ITI	n/a	n/a	n/a	n/a	n/a	n/a	n/a	n/a
277.6904	0.5167	FIXCROSS	n/a	n/a	n/a	n/a	n/a	n/a	n/a	n/a
278.207	0.9167	COLOR_NAME	4	Incongruent	żółty	yellow	zielony	green	hit	n/a
279.0933	n/a	RESPONSE	n/a	n/a	n/a	n/a	n/a	n/a	n/a	yellow
279.1237	1.0167	ITI	n/a	n/a	n/a	n/a	n/a	n/a	n/a	n/a
280.1404	0.5167	FIXCROSS	n/a	n/a	n/a	n/a	n/a	n/a	n/a	n/a
280.6571	0.5833	COLOR_NAME	5	Incongruent	żółty	yellow	zielony	green	hit	n/a
281.2208	n/a	RESPONSE	n/a	n/a	n/a	n/a	n/a	n/a	n/a	yellow
281.2404	1.0167	ITI	n/a	n/a	n/a	n/a	n/a	n/a	n/a	n/a
282.2571	0.5167	FIXCROSS	n/a	n/a	n/a	n/a	n/a	n/a	n/a	n/a
282.7737	0.5833	COLOR_NAME	6	Neutral	niebieski	blue	Neutral	Neutral	hit	n/a
283.3324	n/a	RESPONSE	n/a	n/a	n/a	n/a	n/a	n/a	n/a	blue
283.3571	1.0167	ITI	n/a	n/a	n/a	n/a	n/a	n/a	n/a	n/a
284.3737	0.5167	FIXCROSS	n/a	n/a	n/a	n/a	n/a	n/a	n/a	n/a
284.8904	0.7	COLOR_NAME	7	Incongruent	żółty	yellow	niebieski	blue	hit	n/a
285.5719	n/a	RESPONSE	n/a	n/a	n/a	n/a	n/a	n/a	n/a	yellow
285.5904	1.0167	ITI	n/a	n/a	n/a	n/a	n/a	n/a	n/a	n/a
286.6071	0.5167	FIXCROSS	n/a	n/a	n/a	n/a	n/a	n/a	n/a	n/a
287.1238	0.7833	COLOR_NAME	8	Incongruent	niebieski	blue	zielony	green	hit	n/a
287.8754	n/a	RESPONSE	n/a	n/a	n/a	n/a	n/a	n/a	n/a	blue
287.9071	1.0167	ITI	n/a	n/a	n/a	n/a	n/a	n/a	n/a	n/a
288.9238	0.5167	FIXCROSS	n/a	n/a	n/a	n/a	n/a	n/a	n/a	n/a
289.4404	1.2	COLOR_NAME	9	Incongruent	zielony	green	czerwony	red	hit	n/a
290.6108	n/a	RESPONSE	n/a	n/a	n/a	n/a	n/a	n/a	n/a	green
290.6405	1.0167	ITI	n/a	n/a	n/a	n/a	n/a	n/a	n/a	n/a
291.6571	0.5167	FIXCROSS	n/a	n/a	n/a	n/a	n/a	n/a	n/a	n/a
292.1738	0.95	COLOR_NAME	10	Incongruent	zielony	green	żółty	yellow	hit	n/a
293.0903	n/a	RESPONSE	n/a	n/a	n/a	n/a	n/a	n/a	n/a	green
293.1238	1.0167	ITI	n/a	n/a	n/a	n/a	n/a	n/a	n/a	n/a
294.1405	0.5167	FIXCROSS	n/a	n/a	n/a	n/a	n/a	n/a	n/a	n/a
294.6571	0.8	COLOR_NAME	11	Incongruent	niebieski	blue	żółty	yellow	hit	n/a
295.4258	n/a	RESPONSE	n/a	n/a	n/a	n/a	n/a	n/a	n/a	blue
295.4572	1.0167	ITI	n/a	n/a	n/a	n/a	n/a	n/a	n/a	n/a
296.4738	0.5167	FIXCROSS	n/a	n/a	n/a	n/a	n/a	n/a	n/a	n/a
296.9905	0.75	COLOR_NAME	12	Incongruent	niebieski	blue	czerwony	red	hit	n/a
297.7134	n/a	RESPONSE	n/a	n/a	n/a	n/a	n/a	n/a	n/a	blue
297.7405	1.0167	ITI	n/a	n/a	n/a	n/a	n/a	n/a	n/a	n/a
298.7572	0.5167	FIXCROSS	n/a	n/a	n/a	n/a	n/a	n/a	n/a	n/a
299.2739	0.7	COLOR_NAME	13	Incongruent	czerwony	red	żółty	yellow	hit	n/a
299.9529	n/a	RESPONSE	n/a	n/a	n/a	n/a	n/a	n/a	n/a	red
299.9738	1.0167	ITI	n/a	n/a	n/a	n/a	n/a	n/a	n/a	n/a
300.9905	0.5167	FIXCROSS	n/a	n/a	n/a	n/a	n/a	n/a	n/a	n/a
301.5072	0.6333	COLOR_NAME	14	Incongruent	czerwony	red	zielony	green	hit	n/a
302.1124	n/a	RESPONSE	n/a	n/a	n/a	n/a	n/a	n/a	n/a	red
302.1405	1.0167	ITI	n/a	n/a	n/a	n/a	n/a	n/a	n/a	n/a
303.1572	0.5167	FIXCROSS	n/a	n/a	n/a	n/a	n/a	n/a	n/a	n/a
303.6739	0.5833	COLOR_NAME	15	Neutral	czerwony	red	Neutral	Neutral	hit	n/a
304.224	n/a	RESPONSE	n/a	n/a	n/a	n/a	n/a	n/a	n/a	red
304.2572	1.0167	ITI	n/a	n/a	n/a	n/a	n/a	n/a	n/a	n/a
305.2739	0.5167	FIXCROSS	n/a	n/a	n/a	n/a	n/a	n/a	n/a	n/a
305.7906	0.6333	COLOR_NAME	16	Incongruent	żółty	yellow	czerwony	red	hit	n/a
306.3995	n/a	RESPONSE	n/a	n/a	n/a	n/a	n/a	n/a	n/a	yellow
306.4239	1.0167	ITI	n/a	n/a	n/a	n/a	n/a	n/a	n/a	n/a
307.4406	0.5167	FIXCROSS	n/a	n/a	n/a	n/a	n/a	n/a	n/a	n/a
307.9572	0.65	COLOR_NAME	17	Neutral	czerwony	red	Neutral	Neutral	hit	n/a
308.5751	n/a	RESPONSE	n/a	n/a	n/a	n/a	n/a	n/a	n/a	red
308.6072	1.0167	ITI	n/a	n/a	n/a	n/a	n/a	n/a	n/a	n/a
309.6239	0.5167	FIXCROSS	n/a	n/a	n/a	n/a	n/a	n/a	n/a	n/a
310.1406	0.85	COLOR_NAME	18	Neutral	niebieski	blue	Neutral	Neutral	hit	n/a
310.9586	n/a	RESPONSE	n/a	n/a	n/a	n/a	n/a	n/a	n/a	blue
310.9906	1.0167	ITI	n/a	n/a	n/a	n/a	n/a	n/a	n/a	n/a
312.0073	0.5167	FIXCROSS	n/a	n/a	n/a	n/a	n/a	n/a	n/a	n/a
312.5239	1.0833	COLOR_NAME	19	Incongruent	zielony	green	żółty	yellow	hit	n/a
313.582	n/a	RESPONSE	n/a	n/a	n/a	n/a	n/a	n/a	n/a	green
313.6073	1.0167	ITI	n/a	n/a	n/a	n/a	n/a	n/a	n/a	n/a
314.6239	0.5167	FIXCROSS	n/a	n/a	n/a	n/a	n/a	n/a	n/a	n/a
315.1406	1.0833	COLOR_NAME	20	Incongruent	niebieski	blue	żółty	yellow	hit	n/a
316.2055	n/a	RESPONSE	n/a	n/a	n/a	n/a	n/a	n/a	n/a	blue
316.224	1.0167	ITI	n/a	n/a	n/a	n/a	n/a	n/a	n/a	n/a
317.2406	0.5167	FIXCROSS	n/a	n/a	n/a	n/a	n/a	n/a	n/a	n/a
317.7573	0.7333	COLOR_NAME	21	Incongruent	czerwony	red	niebieski	blue	hit	n/a
318.461	n/a	RESPONSE	n/a	n/a	n/a	n/a	n/a	n/a	n/a	red
318.4906	1.0167	ITI	n/a	n/a	n/a	n/a	n/a	n/a	n/a	n/a
319.5073	0.5167	FIXCROSS	n/a	n/a	n/a	n/a	n/a	n/a	n/a	n/a
320.024	0.6333	COLOR_NAME	22	Neutral	żółty	yellow	Neutral	Neutral	hit	n/a
320.6365	n/a	RESPONSE	n/a	n/a	n/a	n/a	n/a	n/a	n/a	yellow
320.6573	1.0167	ITI	n/a	n/a	n/a	n/a	n/a	n/a	n/a	n/a
321.674	0.5167	FIXCROSS	n/a	n/a	n/a	n/a	n/a	n/a	n/a	n/a
322.1907	0.6833	COLOR_NAME	23	Neutral	czerwony	red	Neutral	Neutral	hit	n/a
322.8441	n/a	RESPONSE	n/a	n/a	n/a	n/a	n/a	n/a	n/a	red
322.874	1.0167	ITI	n/a	n/a	n/a	n/a	n/a	n/a	n/a	n/a
323.8907	0.5167	FIXCROSS	n/a	n/a	n/a	n/a	n/a	n/a	n/a	n/a
324.4074	0.7167	COLOR_NAME	24	Incongruent	zielony	green	żółty	yellow	hit	n/a
325.0996	n/a	RESPONSE	n/a	n/a	n/a	n/a	n/a	n/a	n/a	green
325.124	1.0167	ITI	n/a	n/a	n/a	n/a	n/a	n/a	n/a	n/a
326.1407	0.5167	FIXCROSS	n/a	n/a	n/a	n/a	n/a	n/a	n/a	n/a
326.6574	0.8167	COLOR_NAME	25	Incongruent	niebieski	blue	zielony	green	hit	n/a
327.4511	n/a	RESPONSE	n/a	n/a	n/a	n/a	n/a	n/a	n/a	blue
327.474	1.0167	ITI	n/a	n/a	n/a	n/a	n/a	n/a	n/a	n/a
328.4907	0.5167	FIXCROSS	n/a	n/a	n/a	n/a	n/a	n/a	n/a	n/a
329.0074	0.6667	COLOR_NAME	26	Incongruent	niebieski	blue	zielony	green	hit	n/a
329.6426	n/a	RESPONSE	n/a	n/a	n/a	n/a	n/a	n/a	n/a	blue
329.6741	1.0167	ITI	n/a	n/a	n/a	n/a	n/a	n/a	n/a	n/a
330.6907	0.5167	FIXCROSS	n/a	n/a	n/a	n/a	n/a	n/a	n/a	n/a
331.2074	0.75	COLOR_NAME	27	Neutral	żółty	yellow	Neutral	Neutral	hit	n/a
331.9302	n/a	RESPONSE	n/a	n/a	n/a	n/a	n/a	n/a	n/a	yellow
331.9574	1.0167	ITI	n/a	n/a	n/a	n/a	n/a	n/a	n/a	n/a
332.9741	0.5167	FIXCROSS	n/a	n/a	n/a	n/a	n/a	n/a	n/a	n/a
333.4907	0.6	COLOR_NAME	28	Incongruent	żółty	yellow	zielony	green	hit	n/a
334.0577	n/a	RESPONSE	n/a	n/a	n/a	n/a	n/a	n/a	n/a	yellow
334.0908	1.0167	ITI	n/a	n/a	n/a	n/a	n/a	n/a	n/a	n/a
335.1074	0.5167	FIXCROSS	n/a	n/a	n/a	n/a	n/a	n/a	n/a	n/a
335.6241	0.65	COLOR_NAME	29	Neutral	niebieski	blue	Neutral	Neutral	hit	n/a
336.2493	n/a	RESPONSE	n/a	n/a	n/a	n/a	n/a	n/a	n/a	blue
336.2741	1.0167	ITI	n/a	n/a	n/a	n/a	n/a	n/a	n/a	n/a
337.2908	0.5167	FIXCROSS	n/a	n/a	n/a	n/a	n/a	n/a	n/a	n/a
337.8074	1.1833	COLOR_NAME	30	Incongruent	czerwony	red	żółty	yellow	hit	n/a
338.9687	n/a	RESPONSE	n/a	n/a	n/a	n/a	n/a	n/a	n/a	red
338.9908	1.0167	ITI	n/a	n/a	n/a	n/a	n/a	n/a	n/a	n/a
340.0075	0.5167	FIXCROSS	n/a	n/a	n/a	n/a	n/a	n/a	n/a	n/a
340.5241	0.9167	COLOR_NAME	31	Incongruent	żółty	yellow	czerwony	red	hit	n/a
341.4162	n/a	RESPONSE	n/a	n/a	n/a	n/a	n/a	n/a	n/a	yellow
341.4408	1.0167	ITI	n/a	n/a	n/a	n/a	n/a	n/a	n/a	n/a
342.4575	0.5167	FIXCROSS	n/a	n/a	n/a	n/a	n/a	n/a	n/a	n/a
342.9741	0.8667	COLOR_NAME	32	Neutral	niebieski	blue	Neutral	Neutral	hit	n/a
343.8157	n/a	RESPONSE	n/a	n/a	n/a	n/a	n/a	n/a	n/a	blue
343.8408	1.0167	ITI	n/a	n/a	n/a	n/a	n/a	n/a	n/a	n/a
344.8575	0.5167	FIXCROSS	n/a	n/a	n/a	n/a	n/a	n/a	n/a	n/a
345.3742	0.9333	COLOR_NAME	33	Incongruent	zielony	green	niebieski	blue	hit	n/a
346.2791	n/a	RESPONSE	n/a	n/a	n/a	n/a	n/a	n/a	n/a	green
346.3075	1.0167	ITI	n/a	n/a	n/a	n/a	n/a	n/a	n/a	n/a
347.3242	0.5167	FIXCROSS	n/a	n/a	n/a	n/a	n/a	n/a	n/a	n/a
347.8408	0.7167	COLOR_NAME	34	Incongruent	żółty	yellow	niebieski	blue	hit	n/a
348.5347	n/a	RESPONSE	n/a	n/a	n/a	n/a	n/a	n/a	n/a	yellow
348.5575	1.0167	ITI	n/a	n/a	n/a	n/a	n/a	n/a	n/a	n/a
349.5742	0.5167	FIXCROSS	n/a	n/a	n/a	n/a	n/a	n/a	n/a	n/a
350.0909	0.5333	COLOR_NAME	35	Incongruent	żółty	yellow	niebieski	blue	hit	n/a
350.5982	n/a	RESPONSE	n/a	n/a	n/a	n/a	n/a	n/a	n/a	yellow
350.6242	1.0167	ITI	n/a	n/a	n/a	n/a	n/a	n/a	n/a	n/a
351.6409	0.5167	FIXCROSS	n/a	n/a	n/a	n/a	n/a	n/a	n/a	n/a
352.1575	0.7667	COLOR_NAME	36	Incongruent	niebieski	blue	czerwony	red	hit	n/a
352.9017	n/a	RESPONSE	n/a	n/a	n/a	n/a	n/a	n/a	n/a	blue
352.9242	1.0167	ITI	n/a	n/a	n/a	n/a	n/a	n/a	n/a	n/a
353.9409	0.5167	FIXCROSS	n/a	n/a	n/a	n/a	n/a	n/a	n/a	n/a
354.4576	0.7	COLOR_NAME	37	Incongruent	żółty	yellow	czerwony	red	hit	n/a
355.1253	n/a	RESPONSE	n/a	n/a	n/a	n/a	n/a	n/a	n/a	yellow
355.1576	1.0166	ITI	n/a	n/a	n/a	n/a	n/a	n/a	n/a	n/a
356.1742	0.5167	FIXCROSS	n/a	n/a	n/a	n/a	n/a	n/a	n/a	n/a
356.6909	1.0	COLOR_NAME	38	Neutral	czerwony	red	Neutral	Neutral	hit	n/a
357.6687	n/a	RESPONSE	n/a	n/a	n/a	n/a	n/a	n/a	n/a	red
357.6909	1.0167	ITI	n/a	n/a	n/a	n/a	n/a	n/a	n/a	n/a
358.7076	0.5167	FIXCROSS	n/a	n/a	n/a	n/a	n/a	n/a	n/a	n/a
359.2243	0.8	COLOR_NAME	39	Incongruent	zielony	green	niebieski	blue	hit	n/a
360.0042	n/a	RESPONSE	n/a	n/a	n/a	n/a	n/a	n/a	n/a	green
360.0243	1.0167	ITI	n/a	n/a	n/a	n/a	n/a	n/a	n/a	n/a
361.0409	0.5167	FIXCROSS	n/a	n/a	n/a	n/a	n/a	n/a	n/a	n/a
361.5576	0.8	COLOR_NAME	40	Neutral	niebieski	blue	Neutral	Neutral	hit	n/a
362.3398	n/a	RESPONSE	n/a	n/a	n/a	n/a	n/a	n/a	n/a	blue
362.3576	1.0167	ITI	n/a	n/a	n/a	n/a	n/a	n/a	n/a	n/a
363.3743	0.5167	FIXCROSS	n/a	n/a	n/a	n/a	n/a	n/a	n/a	n/a
363.891	0.6834	COLOR_NAME	41	Neutral	czerwony	red	Neutral	Neutral	hit	n/a
364.5473	n/a	RESPONSE	n/a	n/a	n/a	n/a	n/a	n/a	n/a	red
364.5743	1.0167	ITI	n/a	n/a	n/a	n/a	n/a	n/a	n/a	n/a
365.591	0.5167	FIXCROSS	n/a	n/a	n/a	n/a	n/a	n/a	n/a	n/a
366.1076	0.6833	COLOR_NAME	42	Neutral	zielony	green	Neutral	Neutral	hit	n/a
366.7708	n/a	RESPONSE	n/a	n/a	n/a	n/a	n/a	n/a	n/a	green
366.791	1.0167	ITI	n/a	n/a	n/a	n/a	n/a	n/a	n/a	n/a
367.8076	0.5167	FIXCROSS	n/a	n/a	n/a	n/a	n/a	n/a	n/a	n/a
368.3243	0.6833	COLOR_NAME	43	Incongruent	czerwony	red	niebieski	blue	hit	n/a
368.9784	n/a	RESPONSE	n/a	n/a	n/a	n/a	n/a	n/a	n/a	red
369.0077	1.0167	ITI	n/a	n/a	n/a	n/a	n/a	n/a	n/a	n/a
370.0243	0.5167	FIXCROSS	n/a	n/a	n/a	n/a	n/a	n/a	n/a	n/a
370.541	0.6333	COLOR_NAME	44	Neutral	czerwony	red	Neutral	Neutral	hit	n/a
371.1539	n/a	RESPONSE	n/a	n/a	n/a	n/a	n/a	n/a	n/a	red
371.1743	1.0167	ITI	n/a	n/a	n/a	n/a	n/a	n/a	n/a	n/a
372.191	0.5167	FIXCROSS	n/a	n/a	n/a	n/a	n/a	n/a	n/a	n/a
372.7077	0.5833	COLOR_NAME	45	Incongruent	czerwony	red	żółty	yellow	hit	n/a
373.2654	n/a	RESPONSE	n/a	n/a	n/a	n/a	n/a	n/a	n/a	red
373.291	1.0167	ITI	n/a	n/a	n/a	n/a	n/a	n/a	n/a	n/a
374.3077	0.5167	FIXCROSS	n/a	n/a	n/a	n/a	n/a	n/a	n/a	n/a
374.8244	0.5167	COLOR_NAME	46	Incongruent	czerwony	red	zielony	green	hit	n/a
375.3131	n/a	RESPONSE	n/a	n/a	n/a	n/a	n/a	n/a	n/a	red
375.341	1.0167	ITI	n/a	n/a	n/a	n/a	n/a	n/a	n/a	n/a
376.3577	0.5167	FIXCROSS	n/a	n/a	n/a	n/a	n/a	n/a	n/a	n/a
376.8744	0.4667	COLOR_NAME	47	Incongruent	czerwony	red	zielony	green	hit	n/a
377.3126	n/a	RESPONSE	n/a	n/a	n/a	n/a	n/a	n/a	n/a	red
377.341	1.0167	ITI	n/a	n/a	n/a	n/a	n/a	n/a	n/a	n/a
378.3577	0.5167	FIXCROSS	n/a	n/a	n/a	n/a	n/a	n/a	n/a	n/a
378.8744	0.7333	COLOR_NAME	48	Neutral	niebieski	blue	Neutral	Neutral	hit	n/a
379.5841	n/a	RESPONSE	n/a	n/a	n/a	n/a	n/a	n/a	n/a	blue
379.6077	1.0167	ITI	n/a	n/a	n/a	n/a	n/a	n/a	n/a	n/a
380.6244	0.5167	FIXCROSS	n/a	n/a	n/a	n/a	n/a	n/a	n/a	n/a
381.1411	0.6167	COLOR_NAME	49	Neutral	żółty	yellow	Neutral	Neutral	hit	n/a
381.7277	n/a	RESPONSE	n/a	n/a	n/a	n/a	n/a	n/a	n/a	yellow
381.7577	1.0167	ITI	n/a	n/a	n/a	n/a	n/a	n/a	n/a	n/a
382.7744	0.5167	FIXCROSS	n/a	n/a	n/a	n/a	n/a	n/a	n/a	n/a
383.2911	0.8334	COLOR_NAME	50	Neutral	zielony	green	Neutral	Neutral	hit	n/a
384.0952	n/a	RESPONSE	n/a	n/a	n/a	n/a	n/a	n/a	n/a	green
384.1244	1.0167	ITI	n/a	n/a	n/a	n/a	n/a	n/a	n/a	n/a
385.1411	0.5167	FIXCROSS	n/a	n/a	n/a	n/a	n/a	n/a	n/a	n/a
385.6578	0.6833	COLOR_NAME	51	Neutral	czerwony	red	Neutral	Neutral	hit	n/a
386.3187	n/a	RESPONSE	n/a	n/a	n/a	n/a	n/a	n/a	n/a	red
386.3411	1.0167	ITI	n/a	n/a	n/a	n/a	n/a	n/a	n/a	n/a
387.3578	0.5167	FIXCROSS	n/a	n/a	n/a	n/a	n/a	n/a	n/a	n/a
387.8744	1.05	COLOR_NAME	52	Incongruent	niebieski	blue	czerwony	red	hit	n/a
388.8942	n/a	RESPONSE	n/a	n/a	n/a	n/a	n/a	n/a	n/a	blue
388.9245	1.0167	ITI	n/a	n/a	n/a	n/a	n/a	n/a	n/a	n/a
389.9411	0.5167	FIXCROSS	n/a	n/a	n/a	n/a	n/a	n/a	n/a	n/a
390.4578	0.9333	COLOR_NAME	53	Neutral	zielony	green	Neutral	Neutral	hit	n/a
391.3576	n/a	RESPONSE	n/a	n/a	n/a	n/a	n/a	n/a	n/a	green
391.3911	1.0167	ITI	n/a	n/a	n/a	n/a	n/a	n/a	n/a	n/a
392.4078	0.5167	FIXCROSS	n/a	n/a	n/a	n/a	n/a	n/a	n/a	n/a
392.9245	0.7	COLOR_NAME	54	Neutral	żółty	yellow	Neutral	Neutral	hit	n/a
393.5972	n/a	RESPONSE	n/a	n/a	n/a	n/a	n/a	n/a	n/a	yellow
393.6245	1.0167	ITI	n/a	n/a	n/a	n/a	n/a	n/a	n/a	n/a
394.6412	0.5167	FIXCROSS	n/a	n/a	n/a	n/a	n/a	n/a	n/a	n/a
395.1578	0.65	COLOR_NAME	55	Neutral	niebieski	blue	Neutral	Neutral	hit	n/a
395.7727	n/a	RESPONSE	n/a	n/a	n/a	n/a	n/a	n/a	n/a	blue
395.8078	1.0167	ITI	n/a	n/a	n/a	n/a	n/a	n/a	n/a	n/a
396.8245	0.5167	FIXCROSS	n/a	n/a	n/a	n/a	n/a	n/a	n/a	n/a
397.3412	0.5333	COLOR_NAME	56	Neutral	niebieski	blue	Neutral	Neutral	hit	n/a
397.8523	n/a	RESPONSE	n/a	n/a	n/a	n/a	n/a	n/a	n/a	blue
397.8745	1.0167	ITI	n/a	n/a	n/a	n/a	n/a	n/a	n/a	n/a
398.8912	0.5167	FIXCROSS	n/a	n/a	n/a	n/a	n/a	n/a	n/a	n/a
399.4079	0.6167	COLOR_NAME	57	Neutral	żółty	yellow	Neutral	Neutral	hit	n/a
399.9958	n/a	RESPONSE	n/a	n/a	n/a	n/a	n/a	n/a	n/a	yellow
400.0245	1.0167	ITI	n/a	n/a	n/a	n/a	n/a	n/a	n/a	n/a
401.0412	0.5167	FIXCROSS	n/a	n/a	n/a	n/a	n/a	n/a	n/a	n/a
401.5579	1.1167	COLOR_NAME	58	Incongruent	zielony	green	czerwony	red	hit	n/a
402.6513	n/a	RESPONSE	n/a	n/a	n/a	n/a	n/a	n/a	n/a	green
402.6746	1.0167	ITI	n/a	n/a	n/a	n/a	n/a	n/a	n/a	n/a
403.6912	0.5167	FIXCROSS	n/a	n/a	n/a	n/a	n/a	n/a	n/a	n/a
404.2079	0.7167	COLOR_NAME	59	Neutral	zielony	green	Neutral	Neutral	hit	n/a
404.9068	n/a	RESPONSE	n/a	n/a	n/a	n/a	n/a	n/a	n/a	green
404.9246	1.0167	ITI	n/a	n/a	n/a	n/a	n/a	n/a	n/a	n/a
405.9412	0.5167	FIXCROSS	n/a	n/a	n/a	n/a	n/a	n/a	n/a	n/a
406.4579	0.6333	COLOR_NAME	60	Incongruent	zielony	green	czerwony	red	hit	n/a
407.0663	n/a	RESPONSE	n/a	n/a	n/a	n/a	n/a	n/a	n/a	green
407.0913	1.0167	ITI	n/a	n/a	n/a	n/a	n/a	n/a	n/a	n/a
408.1079	0.5167	FIXCROSS	n/a	n/a	n/a	n/a	n/a	n/a	n/a	n/a
408.6246	0.65	COLOR_NAME	61	Neutral	żółty	yellow	Neutral	Neutral	hit	n/a
409.2419	n/a	RESPONSE	n/a	n/a	n/a	n/a	n/a	n/a	n/a	yellow
409.2746	1.0167	ITI	n/a	n/a	n/a	n/a	n/a	n/a	n/a	n/a
410.2913	0.5167	FIXCROSS	n/a	n/a	n/a	n/a	n/a	n/a	n/a	n/a
410.8079	0.7333	COLOR_NAME	62	Neutral	zielony	green	Neutral	Neutral	hit	n/a
411.5134	n/a	RESPONSE	n/a	n/a	n/a	n/a	n/a	n/a	n/a	green
411.5413	1.0167	ITI	n/a	n/a	n/a	n/a	n/a	n/a	n/a	n/a
412.558	0.5167	FIXCROSS	n/a	n/a	n/a	n/a	n/a	n/a	n/a	n/a
413.0746	0.7	COLOR_NAME	63	Neutral	żółty	yellow	Neutral	Neutral	hit	n/a
413.7529	n/a	RESPONSE	n/a	n/a	n/a	n/a	n/a	n/a	n/a	yellow
413.7746	1.0167	ITI	n/a	n/a	n/a	n/a	n/a	n/a	n/a	n/a
414.7913	0.5167	FIXCROSS	n/a	n/a	n/a	n/a	n/a	n/a	n/a	n/a
415.308	0.4667	COLOR_NAME	64	Incongruent	zielony	green	niebieski	blue	hit	n/a
415.7525	n/a	RESPONSE	n/a	n/a	n/a	n/a	n/a	n/a	n/a	green
415.7746	1.0167	ITI	n/a	n/a	n/a	n/a	n/a	n/a	n/a	n/a
416.7913	0.5167	FIXCROSS	n/a	n/a	n/a	n/a	n/a	n/a	n/a	n/a
417.308	0.6333	COLOR_NAME	65	Neutral	czerwony	red	Neutral	Neutral	hit	n/a
417.912	n/a	RESPONSE	n/a	n/a	n/a	n/a	n/a	n/a	n/a	red
417.9413	1.0167	ITI	n/a	n/a	n/a	n/a	n/a	n/a	n/a	n/a
418.958	0.5167	FIXCROSS	n/a	n/a	n/a	n/a	n/a	n/a	n/a	n/a
419.4747	0.5167	COLOR_NAME	66	Neutral	czerwony	red	Neutral	Neutral	hit	n/a
419.9596	n/a	RESPONSE	n/a	n/a	n/a	n/a	n/a	n/a	n/a	red
419.9913	1.0167	ITI	n/a	n/a	n/a	n/a	n/a	n/a	n/a	n/a
421.008	0.5167	FIXCROSS	n/a	n/a	n/a	n/a	n/a	n/a	n/a	n/a
421.5247	0.6667	COLOR_NAME	67	Neutral	zielony	green	Neutral	Neutral	hit	n/a
422.1672	n/a	RESPONSE	n/a	n/a	n/a	n/a	n/a	n/a	n/a	green
422.1914	1.0167	ITI	n/a	n/a	n/a	n/a	n/a	n/a	n/a	n/a
423.208	0.5167	FIXCROSS	n/a	n/a	n/a	n/a	n/a	n/a	n/a	n/a
423.7247	0.8167	COLOR_NAME	68	Incongruent	niebieski	blue	żółty	yellow	hit	n/a
424.5186	n/a	RESPONSE	n/a	n/a	n/a	n/a	n/a	n/a	n/a	blue
424.5414	1.0167	ITI	n/a	n/a	n/a	n/a	n/a	n/a	n/a	n/a
425.558	0.5167	FIXCROSS	n/a	n/a	n/a	n/a	n/a	n/a	n/a	n/a
426.0747	0.7667	COLOR_NAME	69	Neutral	zielony	green	Neutral	Neutral	hit	n/a
426.8222	n/a	RESPONSE	n/a	n/a	n/a	n/a	n/a	n/a	n/a	green
426.8414	1.0167	ITI	n/a	n/a	n/a	n/a	n/a	n/a	n/a	n/a
427.8581	0.5167	FIXCROSS	n/a	n/a	n/a	n/a	n/a	n/a	n/a	n/a
428.3747	0.7167	COLOR_NAME	70	Neutral	niebieski	blue	Neutral	Neutral	hit	n/a
429.0617	n/a	RESPONSE	n/a	n/a	n/a	n/a	n/a	n/a	n/a	blue
429.0914	1.0167	ITI	n/a	n/a	n/a	n/a	n/a	n/a	n/a	n/a
430.1081	0.5167	FIXCROSS	n/a	n/a	n/a	n/a	n/a	n/a	n/a	n/a
430.6247	0.9667	COLOR_NAME	71	Incongruent	czerwony	red	niebieski	blue	hit	n/a
431.5732	n/a	RESPONSE	n/a	n/a	n/a	n/a	n/a	n/a	n/a	red
431.5914	1.0167	ITI	n/a	n/a	n/a	n/a	n/a	n/a	n/a	n/a
432.6081	0.5167	FIXCROSS	n/a	n/a	n/a	n/a	n/a	n/a	n/a	n/a
433.1248	0.65	COLOR_NAME	72	Neutral	żółty	yellow	Neutral	Neutral	hit	n/a
433.7487	n/a	RESPONSE	n/a	n/a	n/a	n/a	n/a	n/a	n/a	yellow
433.7748	1.0333	ITI	n/a	n/a	n/a	n/a	n/a	n/a	n/a	n/a
438.0838	n/a	RESPONSE	n/a	n/a	n/a	n/a	n/a	n/a	n/a	n/a
