onset	duration	trial_type	trial_number	stroop_condition	stim_text(PL)	stim_text(eng)	stim_color(PL)	stim_color(eng)	response_type	response_color
0.0	n/a	RESPONSE	n/a	n/a	n/a	n/a	n/a	n/a	n/a	n/a
0.0384	1.0167	ITI	n/a	n/a	n/a	n/a	n/a	n/a	n/a	n/a
1.055	0.5	FIXCROSS	n/a	n/a	n/a	n/a	n/a	n/a	n/a	n/a
1.555	1.2667	T_INK	1	Incongruent	zielony	green	niebieski	blue	hit	n/a
2.8133	n/a	RESPONSE	n/a	n/a	n/a	n/a	n/a	n/a	n/a	blue
2.8217	0.5	FEEDBACK	n/a	n/a	n/a	n/a	n/a	n/a	n/a	n/a
3.3217	1.0	ITI	n/a	n/a	n/a	n/a	n/a	n/a	n/a	n/a
4.3218	0.5	FIXCROSS	n/a	n/a	n/a	n/a	n/a	n/a	n/a	n/a
4.8218	0.7	T_INK	2	Neutral	xxxxx	xxxxx	niebieski	blue	hit	n/a
5.5148	n/a	RESPONSE	n/a	n/a	n/a	n/a	n/a	n/a	n/a	blue
5.5218	0.5	FEEDBACK	n/a	n/a	n/a	n/a	n/a	n/a	n/a	n/a
6.0218	1.0	ITI	n/a	n/a	n/a	n/a	n/a	n/a	n/a	n/a
7.0218	0.5	FIXCROSS	n/a	n/a	n/a	n/a	n/a	n/a	n/a	n/a
7.5218	0.7333	T_INK	3	Incongruent	zielony	green	czerwony	red	hit	n/a
8.2322	n/a	RESPONSE	n/a	n/a	n/a	n/a	n/a	n/a	n/a	red
8.2551	0.5	FEEDBACK	n/a	n/a	n/a	n/a	n/a	n/a	n/a	n/a
8.7551	1.0333	ITI	n/a	n/a	n/a	n/a	n/a	n/a	n/a	n/a
9.7885	0.5333	FIXCROSS	n/a	n/a	n/a	n/a	n/a	n/a	n/a	n/a
10.3218	0.7	T_INK	4	Incongruent	czerwony	red	niebieski	blue	hit	n/a
10.9818	n/a	RESPONSE	n/a	n/a	n/a	n/a	n/a	n/a	n/a	blue
11.0218	0.5333	FEEDBACK	n/a	n/a	n/a	n/a	n/a	n/a	n/a	n/a
11.5552	1.0333	ITI	n/a	n/a	n/a	n/a	n/a	n/a	n/a	n/a
12.5885	0.5333	FIXCROSS	n/a	n/a	n/a	n/a	n/a	n/a	n/a	n/a
13.1219	0.8333	T_INK	5	Incongruent	czerwony	red	zielony	green	hit	n/a
13.9229	n/a	RESPONSE	n/a	n/a	n/a	n/a	n/a	n/a	n/a	green
13.9552	0.5333	FEEDBACK	n/a	n/a	n/a	n/a	n/a	n/a	n/a	n/a
14.4885	1.0333	ITI	n/a	n/a	n/a	n/a	n/a	n/a	n/a	n/a
15.5219	0.5333	FIXCROSS	n/a	n/a	n/a	n/a	n/a	n/a	n/a	n/a
16.0552	0.6667	T_INK	6	Neutral	xxxxx	xxxxx	czerwony	red	hit	n/a
16.6882	n/a	RESPONSE	n/a	n/a	n/a	n/a	n/a	n/a	n/a	red
16.7219	0.5333	FEEDBACK	n/a	n/a	n/a	n/a	n/a	n/a	n/a	n/a
17.2552	1.0333	ITI	n/a	n/a	n/a	n/a	n/a	n/a	n/a	n/a
18.2886	0.5333	FIXCROSS	n/a	n/a	n/a	n/a	n/a	n/a	n/a	n/a
18.8219	0.7167	T_INK	7	Incongruent	żółty	yellow	niebieski	blue	hit	n/a
19.5017	n/a	RESPONSE	n/a	n/a	n/a	n/a	n/a	n/a	n/a	blue
19.5386	0.5333	FEEDBACK	n/a	n/a	n/a	n/a	n/a	n/a	n/a	n/a
20.072	1.0333	ITI	n/a	n/a	n/a	n/a	n/a	n/a	n/a	n/a
21.1053	0.5333	FIXCROSS	n/a	n/a	n/a	n/a	n/a	n/a	n/a	n/a
21.6386	0.8333	T_INK	8	Neutral	xxxxxxxx	xxxxxxxx	żółty	yellow	hit	n/a
22.4269	n/a	RESPONSE	n/a	n/a	n/a	n/a	n/a	n/a	n/a	yellow
22.472	0.5333	FEEDBACK	n/a	n/a	n/a	n/a	n/a	n/a	n/a	n/a
23.0053	1.0333	ITI	n/a	n/a	n/a	n/a	n/a	n/a	n/a	n/a
24.0387	0.5333	FIXCROSS	n/a	n/a	n/a	n/a	n/a	n/a	n/a	n/a
24.572	0.7834	T_INK	9	Neutral	xxxxxxx	xxxxxxx	czerwony	red	hit	n/a
25.3202	n/a	RESPONSE	n/a	n/a	n/a	n/a	n/a	n/a	n/a	red
25.3554	0.5333	FEEDBACK	n/a	n/a	n/a	n/a	n/a	n/a	n/a	n/a
25.8887	1.0334	ITI	n/a	n/a	n/a	n/a	n/a	n/a	n/a	n/a
26.922	0.5333	FIXCROSS	n/a	n/a	n/a	n/a	n/a	n/a	n/a	n/a
27.4554	0.7667	T_INK	10	Neutral	xxxxxxx	xxxxxxx	żółty	yellow	hit	n/a
28.1815	n/a	RESPONSE	n/a	n/a	n/a	n/a	n/a	n/a	n/a	yellow
28.2221	0.5333	FEEDBACK	n/a	n/a	n/a	n/a	n/a	n/a	n/a	n/a
28.7554	1.0334	ITI	n/a	n/a	n/a	n/a	n/a	n/a	n/a	n/a
29.7887	0.5333	FIXCROSS	n/a	n/a	n/a	n/a	n/a	n/a	n/a	n/a
30.3221	0.45	T_INK	11	Neutral	xxxxx	xxxxx	zielony	green	hit	n/a
30.7391	n/a	RESPONSE	n/a	n/a	n/a	n/a	n/a	n/a	n/a	green
30.7721	0.5333	FEEDBACK	n/a	n/a	n/a	n/a	n/a	n/a	n/a	n/a
31.3054	1.0334	ITI	n/a	n/a	n/a	n/a	n/a	n/a	n/a	n/a
32.3388	0.5333	FIXCROSS	n/a	n/a	n/a	n/a	n/a	n/a	n/a	n/a
32.8721	1.0333	T_INK	12	Incongruent	niebieski	blue	żółty	yellow	hit	n/a
33.8721	n/a	RESPONSE	n/a	n/a	n/a	n/a	n/a	n/a	n/a	yellow
33.9055	0.5333	FEEDBACK	n/a	n/a	n/a	n/a	n/a	n/a	n/a	n/a
34.4388	1.05	ITI	n/a	n/a	n/a	n/a	n/a	n/a	n/a	n/a
41.6089	n/a	RESPONSE	n/a	n/a	n/a	n/a	n/a	n/a	n/a	n/a
41.6889	1.0333	ITI	n/a	n/a	n/a	n/a	n/a	n/a	n/a	n/a
42.7222	0.5333	FIXCROSS	n/a	n/a	n/a	n/a	n/a	n/a	n/a	n/a
43.2556	1.6167	INK	1	Incongruent	zielony	green	żółty	yellow	hit	n/a
44.8379	n/a	RESPONSE	n/a	n/a	n/a	n/a	n/a	n/a	n/a	yellow
44.8723	1.0334	ITI	n/a	n/a	n/a	n/a	n/a	n/a	n/a	n/a
45.9056	0.5333	FIXCROSS	n/a	n/a	n/a	n/a	n/a	n/a	n/a	n/a
46.4389	0.7	INK	2	Neutral	xxxxxxx	xxxxxxx	czerwony	red	hit	n/a
47.1077	n/a	RESPONSE	n/a	n/a	n/a	n/a	n/a	n/a	n/a	red
47.139	1.0334	ITI	n/a	n/a	n/a	n/a	n/a	n/a	n/a	n/a
48.1723	0.5333	FIXCROSS	n/a	n/a	n/a	n/a	n/a	n/a	n/a	n/a
48.7056	0.8167	INK	3	Incongruent	niebieski	blue	żółty	yellow	hit	n/a
49.4895	n/a	RESPONSE	n/a	n/a	n/a	n/a	n/a	n/a	n/a	yellow
49.5223	1.0333	ITI	n/a	n/a	n/a	n/a	n/a	n/a	n/a	n/a
50.5557	0.5333	FIXCROSS	n/a	n/a	n/a	n/a	n/a	n/a	n/a	n/a
51.089	0.65	INK	4	Incongruent	czerwony	red	niebieski	blue	hit	n/a
51.6955	n/a	RESPONSE	n/a	n/a	n/a	n/a	n/a	n/a	n/a	blue
51.739	1.0333	ITI	n/a	n/a	n/a	n/a	n/a	n/a	n/a	n/a
52.7724	0.5333	FIXCROSS	n/a	n/a	n/a	n/a	n/a	n/a	n/a	n/a
53.3057	0.8333	INK	5	Incongruent	zielony	green	żółty	yellow	hit	n/a
54.1091	n/a	RESPONSE	n/a	n/a	n/a	n/a	n/a	n/a	n/a	yellow
54.139	1.0333	ITI	n/a	n/a	n/a	n/a	n/a	n/a	n/a	n/a
55.1724	0.5333	FIXCROSS	n/a	n/a	n/a	n/a	n/a	n/a	n/a	n/a
55.7057	0.45	INK	6	Incongruent	czerwony	red	żółty	yellow	hit	n/a
56.1232	n/a	RESPONSE	n/a	n/a	n/a	n/a	n/a	n/a	n/a	yellow
56.1557	1.0334	ITI	n/a	n/a	n/a	n/a	n/a	n/a	n/a	n/a
57.1891	0.5333	FIXCROSS	n/a	n/a	n/a	n/a	n/a	n/a	n/a	n/a
57.7224	0.45	INK	7	Neutral	xxxxxxxx	xxxxxxxx	żółty	yellow	hit	n/a
58.1373	n/a	RESPONSE	n/a	n/a	n/a	n/a	n/a	n/a	n/a	yellow
58.1724	1.0333	ITI	n/a	n/a	n/a	n/a	n/a	n/a	n/a	n/a
59.2058	0.5333	FIXCROSS	n/a	n/a	n/a	n/a	n/a	n/a	n/a	n/a
59.7391	0.85	INK	8	Neutral	xxxxxxxxx	xxxxxxxxx	zielony	green	hit	n/a
60.551	n/a	RESPONSE	n/a	n/a	n/a	n/a	n/a	n/a	n/a	green
60.5891	1.0333	ITI	n/a	n/a	n/a	n/a	n/a	n/a	n/a	n/a
61.6225	0.5333	FIXCROSS	n/a	n/a	n/a	n/a	n/a	n/a	n/a	n/a
62.1558	0.5333	INK	9	Neutral	xxxxxxx	xxxxxxx	żółty	yellow	incorrect	n/a
62.645	n/a	RESPONSE	n/a	n/a	n/a	n/a	n/a	n/a	n/a	green
62.6892	1.0334	ITI	n/a	n/a	n/a	n/a	n/a	n/a	n/a	n/a
63.7225	0.5333	FIXCROSS	n/a	n/a	n/a	n/a	n/a	n/a	n/a	n/a
64.2558	1.0167	INK	10	Neutral	xxxxxxxx	xxxxxxxx	niebieski	blue	hit	n/a
65.2346	n/a	RESPONSE	n/a	n/a	n/a	n/a	n/a	n/a	n/a	blue
65.2725	1.0333	ITI	n/a	n/a	n/a	n/a	n/a	n/a	n/a	n/a
66.3059	0.5333	FIXCROSS	n/a	n/a	n/a	n/a	n/a	n/a	n/a	n/a
66.8392	0.8167	INK	11	Neutral	xxxxx	xxxxx	czerwony	red	hit	n/a
67.6163	n/a	RESPONSE	n/a	n/a	n/a	n/a	n/a	n/a	n/a	red
67.6559	1.0333	ITI	n/a	n/a	n/a	n/a	n/a	n/a	n/a	n/a
68.6892	0.5333	FIXCROSS	n/a	n/a	n/a	n/a	n/a	n/a	n/a	n/a
69.2226	0.8	INK	12	Neutral	xxxxxxx	xxxxxxx	niebieski	blue	hit	n/a
69.9821	n/a	RESPONSE	n/a	n/a	n/a	n/a	n/a	n/a	n/a	blue
70.0226	1.0333	ITI	n/a	n/a	n/a	n/a	n/a	n/a	n/a	n/a
71.0559	0.5333	FIXCROSS	n/a	n/a	n/a	n/a	n/a	n/a	n/a	n/a
71.5893	1.25	INK	13	Neutral	xxxxxxxxx	xxxxxxxxx	zielony	green	hit	n/a
72.7954	n/a	RESPONSE	n/a	n/a	n/a	n/a	n/a	n/a	n/a	green
72.8393	1.0334	ITI	n/a	n/a	n/a	n/a	n/a	n/a	n/a	n/a
73.8726	0.5333	FIXCROSS	n/a	n/a	n/a	n/a	n/a	n/a	n/a	n/a
74.406	0.6333	INK	14	Incongruent	niebieski	blue	zielony	green	hit	n/a
75.0014	n/a	RESPONSE	n/a	n/a	n/a	n/a	n/a	n/a	n/a	green
75.0393	1.0334	ITI	n/a	n/a	n/a	n/a	n/a	n/a	n/a	n/a
76.0727	0.5333	FIXCROSS	n/a	n/a	n/a	n/a	n/a	n/a	n/a	n/a
76.606	0.8334	INK	15	Incongruent	żółty	yellow	niebieski	blue	hit	n/a
77.3991	n/a	RESPONSE	n/a	n/a	n/a	n/a	n/a	n/a	n/a	blue
77.4393	1.0333	ITI	n/a	n/a	n/a	n/a	n/a	n/a	n/a	n/a
78.4727	0.5333	FIXCROSS	n/a	n/a	n/a	n/a	n/a	n/a	n/a	n/a
79.006	0.7	INK	16	Neutral	xxxxx	xxxxx	niebieski	blue	hit	n/a
79.669	n/a	RESPONSE	n/a	n/a	n/a	n/a	n/a	n/a	n/a	blue
79.706	1.0333	ITI	n/a	n/a	n/a	n/a	n/a	n/a	n/a	n/a
80.7394	0.5333	FIXCROSS	n/a	n/a	n/a	n/a	n/a	n/a	n/a	n/a
81.2727	0.7333	INK	17	Incongruent	niebieski	blue	czerwony	red	hit	n/a
81.9708	n/a	RESPONSE	n/a	n/a	n/a	n/a	n/a	n/a	n/a	red
82.0061	1.0334	ITI	n/a	n/a	n/a	n/a	n/a	n/a	n/a	n/a
83.0394	0.5333	FIXCROSS	n/a	n/a	n/a	n/a	n/a	n/a	n/a	n/a
83.5728	0.8167	INK	18	Neutral	xxxxxxxxx	xxxxxxxxx	zielony	green	hit	n/a
84.3526	n/a	RESPONSE	n/a	n/a	n/a	n/a	n/a	n/a	n/a	green
84.3894	1.0333	ITI	n/a	n/a	n/a	n/a	n/a	n/a	n/a	n/a
85.4228	0.5333	FIXCROSS	n/a	n/a	n/a	n/a	n/a	n/a	n/a	n/a
85.9561	0.6333	INK	19	Incongruent	żółty	yellow	zielony	green	hit	n/a
86.5424	n/a	RESPONSE	n/a	n/a	n/a	n/a	n/a	n/a	n/a	green
86.5895	1.0333	ITI	n/a	n/a	n/a	n/a	n/a	n/a	n/a	n/a
87.6228	0.5333	FIXCROSS	n/a	n/a	n/a	n/a	n/a	n/a	n/a	n/a
88.1561	0.7333	INK	20	Incongruent	czerwony	red	niebieski	blue	hit	n/a
88.8603	n/a	RESPONSE	n/a	n/a	n/a	n/a	n/a	n/a	n/a	blue
88.8895	1.0333	ITI	n/a	n/a	n/a	n/a	n/a	n/a	n/a	n/a
89.9228	0.5333	FIXCROSS	n/a	n/a	n/a	n/a	n/a	n/a	n/a	n/a
90.4562	0.75	INK	21	Incongruent	zielony	green	niebieski	blue	hit	n/a
91.1782	n/a	RESPONSE	n/a	n/a	n/a	n/a	n/a	n/a	n/a	blue
91.2062	1.0334	ITI	n/a	n/a	n/a	n/a	n/a	n/a	n/a	n/a
92.2395	0.5333	FIXCROSS	n/a	n/a	n/a	n/a	n/a	n/a	n/a	n/a
92.7729	0.7167	INK	22	Neutral	xxxxxxx	xxxxxxx	czerwony	red	hit	n/a
93.448	n/a	RESPONSE	n/a	n/a	n/a	n/a	n/a	n/a	n/a	red
93.4895	1.0333	ITI	n/a	n/a	n/a	n/a	n/a	n/a	n/a	n/a
94.5229	0.5333	FIXCROSS	n/a	n/a	n/a	n/a	n/a	n/a	n/a	n/a
95.0562	0.6334	INK	23	Neutral	xxxxxxxx	xxxxxxxx	zielony	green	hit	n/a
95.6539	n/a	RESPONSE	n/a	n/a	n/a	n/a	n/a	n/a	n/a	green
95.6896	1.0333	ITI	n/a	n/a	n/a	n/a	n/a	n/a	n/a	n/a
96.7229	0.5333	FIXCROSS	n/a	n/a	n/a	n/a	n/a	n/a	n/a	n/a
97.2563	0.55	INK	24	Neutral	xxxxxxxxx	xxxxxxxxx	żółty	yellow	hit	n/a
97.764	n/a	RESPONSE	n/a	n/a	n/a	n/a	n/a	n/a	n/a	yellow
97.8063	1.0333	ITI	n/a	n/a	n/a	n/a	n/a	n/a	n/a	n/a
98.8396	0.5333	FIXCROSS	n/a	n/a	n/a	n/a	n/a	n/a	n/a	n/a
99.3729	0.6833	INK	25	Neutral	xxxxxxxxx	xxxxxxxxx	czerwony	red	hit	n/a
100.0179	n/a	RESPONSE	n/a	n/a	n/a	n/a	n/a	n/a	n/a	red
100.0563	1.0333	ITI	n/a	n/a	n/a	n/a	n/a	n/a	n/a	n/a
101.0896	0.5334	FIXCROSS	n/a	n/a	n/a	n/a	n/a	n/a	n/a	n/a
101.623	0.6667	INK	26	Neutral	xxxxxxxxx	xxxxxxxxx	żółty	yellow	hit	n/a
102.2557	n/a	RESPONSE	n/a	n/a	n/a	n/a	n/a	n/a	n/a	yellow
102.2896	1.0334	ITI	n/a	n/a	n/a	n/a	n/a	n/a	n/a	n/a
103.323	0.5333	FIXCROSS	n/a	n/a	n/a	n/a	n/a	n/a	n/a	n/a
103.8563	0.6333	INK	27	Neutral	xxxxxxx	xxxxxxx	niebieski	blue	hit	n/a
104.4457	n/a	RESPONSE	n/a	n/a	n/a	n/a	n/a	n/a	n/a	blue
104.4897	1.0333	ITI	n/a	n/a	n/a	n/a	n/a	n/a	n/a	n/a
105.523	0.5333	FIXCROSS	n/a	n/a	n/a	n/a	n/a	n/a	n/a	n/a
106.0564	0.7833	INK	28	Incongruent	niebieski	blue	czerwony	red	hit	n/a
106.8114	n/a	RESPONSE	n/a	n/a	n/a	n/a	n/a	n/a	n/a	red
106.8397	1.0333	ITI	n/a	n/a	n/a	n/a	n/a	n/a	n/a	n/a
107.873	0.5333	FIXCROSS	n/a	n/a	n/a	n/a	n/a	n/a	n/a	n/a
108.4064	0.7	INK	29	Incongruent	niebieski	blue	żółty	yellow	hit	n/a
109.0653	n/a	RESPONSE	n/a	n/a	n/a	n/a	n/a	n/a	n/a	yellow
109.1064	1.0333	ITI	n/a	n/a	n/a	n/a	n/a	n/a	n/a	n/a
110.1397	0.5333	FIXCROSS	n/a	n/a	n/a	n/a	n/a	n/a	n/a	n/a
110.6731	0.85	INK	30	Incongruent	zielony	green	czerwony	red	hit	n/a
111.479	n/a	RESPONSE	n/a	n/a	n/a	n/a	n/a	n/a	n/a	red
111.5231	1.0334	ITI	n/a	n/a	n/a	n/a	n/a	n/a	n/a	n/a
111.7668	n/a	RESPONSE	n/a	n/a	n/a	n/a	n/a	n/a	n/a	red
112.5564	0.5333	FIXCROSS	n/a	n/a	n/a	n/a	n/a	n/a	n/a	n/a
113.0898	0.7667	INK	31	Neutral	xxxxx	xxxxx	niebieski	blue	hit	n/a
113.8129	n/a	RESPONSE	n/a	n/a	n/a	n/a	n/a	n/a	n/a	blue
113.8564	1.0334	ITI	n/a	n/a	n/a	n/a	n/a	n/a	n/a	n/a
114.8898	0.5333	FIXCROSS	n/a	n/a	n/a	n/a	n/a	n/a	n/a	n/a
115.4231	0.6667	INK	32	Incongruent	zielony	green	niebieski	blue	hit	n/a
116.0507	n/a	RESPONSE	n/a	n/a	n/a	n/a	n/a	n/a	n/a	blue
116.0898	1.0333	ITI	n/a	n/a	n/a	n/a	n/a	n/a	n/a	n/a
117.1232	0.5333	FIXCROSS	n/a	n/a	n/a	n/a	n/a	n/a	n/a	n/a
117.6565	0.6833	INK	33	Neutral	xxxxxxx	xxxxxxx	żółty	yellow	hit	n/a
118.3046	n/a	RESPONSE	n/a	n/a	n/a	n/a	n/a	n/a	n/a	yellow
118.3398	1.0333	ITI	n/a	n/a	n/a	n/a	n/a	n/a	n/a	n/a
119.3732	0.5333	FIXCROSS	n/a	n/a	n/a	n/a	n/a	n/a	n/a	n/a
119.9065	0.5333	INK	34	Neutral	xxxxx	xxxxx	niebieski	blue	hit	n/a
120.3986	n/a	RESPONSE	n/a	n/a	n/a	n/a	n/a	n/a	n/a	blue
120.4399	1.0334	ITI	n/a	n/a	n/a	n/a	n/a	n/a	n/a	n/a
121.4732	0.5333	FIXCROSS	n/a	n/a	n/a	n/a	n/a	n/a	n/a	n/a
122.0066	0.9167	INK	35	Neutral	xxxxx	xxxxx	czerwony	red	hit	n/a
122.8923	n/a	RESPONSE	n/a	n/a	n/a	n/a	n/a	n/a	n/a	red
122.9232	1.0333	ITI	n/a	n/a	n/a	n/a	n/a	n/a	n/a	n/a
123.9566	0.5333	FIXCROSS	n/a	n/a	n/a	n/a	n/a	n/a	n/a	n/a
124.4899	0.7833	INK	36	Incongruent	żółty	yellow	zielony	green	hit	n/a
125.2421	n/a	RESPONSE	n/a	n/a	n/a	n/a	n/a	n/a	n/a	green
125.2733	1.0334	ITI	n/a	n/a	n/a	n/a	n/a	n/a	n/a	n/a
126.3066	0.5333	FIXCROSS	n/a	n/a	n/a	n/a	n/a	n/a	n/a	n/a
126.8399	0.7	INK	37	Neutral	xxxxxxxx	xxxxxxxx	zielony	green	hit	n/a
127.5119	n/a	RESPONSE	n/a	n/a	n/a	n/a	n/a	n/a	n/a	green
127.54	1.0333	ITI	n/a	n/a	n/a	n/a	n/a	n/a	n/a	n/a
128.5733	0.5333	FIXCROSS	n/a	n/a	n/a	n/a	n/a	n/a	n/a	n/a
129.1066	0.7	INK	38	Neutral	xxxxxxxxx	xxxxxxxxx	czerwony	red	hit	n/a
129.7659	n/a	RESPONSE	n/a	n/a	n/a	n/a	n/a	n/a	n/a	red
129.8067	1.0333	ITI	n/a	n/a	n/a	n/a	n/a	n/a	n/a	n/a
130.84	0.5333	FIXCROSS	n/a	n/a	n/a	n/a	n/a	n/a	n/a	n/a
131.3733	0.8167	INK	39	Incongruent	czerwony	red	zielony	green	hit	n/a
132.1476	n/a	RESPONSE	n/a	n/a	n/a	n/a	n/a	n/a	n/a	green
132.19	1.0333	ITI	n/a	n/a	n/a	n/a	n/a	n/a	n/a	n/a
133.2234	0.5333	FIXCROSS	n/a	n/a	n/a	n/a	n/a	n/a	n/a	n/a
133.7567	0.8333	INK	40	Neutral	xxxxxxxx	xxxxxxxx	niebieski	blue	hit	n/a
134.5613	n/a	RESPONSE	n/a	n/a	n/a	n/a	n/a	n/a	n/a	blue
134.59	1.0333	ITI	n/a	n/a	n/a	n/a	n/a	n/a	n/a	n/a
135.6234	0.5333	FIXCROSS	n/a	n/a	n/a	n/a	n/a	n/a	n/a	n/a
136.1567	0.7333	INK	41	Neutral	xxxxxxx	xxxxxxx	niebieski	blue	hit	n/a
136.8472	n/a	RESPONSE	n/a	n/a	n/a	n/a	n/a	n/a	n/a	blue
136.8901	1.0334	ITI	n/a	n/a	n/a	n/a	n/a	n/a	n/a	n/a
137.9234	0.5333	FIXCROSS	n/a	n/a	n/a	n/a	n/a	n/a	n/a	n/a
138.4568	0.7167	INK	42	Incongruent	zielony	green	żółty	yellow	hit	n/a
139.1331	n/a	RESPONSE	n/a	n/a	n/a	n/a	n/a	n/a	n/a	yellow
139.1734	1.0334	ITI	n/a	n/a	n/a	n/a	n/a	n/a	n/a	n/a
140.2068	0.5333	FIXCROSS	n/a	n/a	n/a	n/a	n/a	n/a	n/a	n/a
140.7401	0.7667	INK	43	Neutral	xxxxx	xxxxx	zielony	green	hit	n/a
141.4668	n/a	RESPONSE	n/a	n/a	n/a	n/a	n/a	n/a	n/a	green
141.5068	1.0333	ITI	n/a	n/a	n/a	n/a	n/a	n/a	n/a	n/a
142.5401	0.5333	FIXCROSS	n/a	n/a	n/a	n/a	n/a	n/a	n/a	n/a
143.0735	0.8167	INK	44	Incongruent	zielony	green	czerwony	red	hit	n/a
143.8487	n/a	RESPONSE	n/a	n/a	n/a	n/a	n/a	n/a	n/a	red
143.8902	1.0334	ITI	n/a	n/a	n/a	n/a	n/a	n/a	n/a	n/a
144.9235	0.5333	FIXCROSS	n/a	n/a	n/a	n/a	n/a	n/a	n/a	n/a
145.4568	0.75	INK	45	Neutral	xxxxx	xxxxx	zielony	green	hit	n/a
146.1664	n/a	RESPONSE	n/a	n/a	n/a	n/a	n/a	n/a	n/a	green
146.2068	1.0333	ITI	n/a	n/a	n/a	n/a	n/a	n/a	n/a	n/a
147.2402	0.5333	FIXCROSS	n/a	n/a	n/a	n/a	n/a	n/a	n/a	n/a
147.7735	1.9834	INK	46	Incongruent	żółty	yellow	czerwony	red	hit	n/a
149.7151	n/a	RESPONSE	n/a	n/a	n/a	n/a	n/a	n/a	n/a	red
149.7569	1.0333	ITI	n/a	n/a	n/a	n/a	n/a	n/a	n/a	n/a
150.7902	0.5333	FIXCROSS	n/a	n/a	n/a	n/a	n/a	n/a	n/a	n/a
151.3236	0.85	INK	47	Incongruent	żółty	yellow	niebieski	blue	hit	n/a
152.1449	n/a	RESPONSE	n/a	n/a	n/a	n/a	n/a	n/a	n/a	blue
152.1736	1.0333	ITI	n/a	n/a	n/a	n/a	n/a	n/a	n/a	n/a
153.2069	0.5333	FIXCROSS	n/a	n/a	n/a	n/a	n/a	n/a	n/a	n/a
153.7403	0.7667	INK	48	Neutral	xxxxxxxx	xxxxxxxx	niebieski	blue	hit	n/a
154.4627	n/a	RESPONSE	n/a	n/a	n/a	n/a	n/a	n/a	n/a	blue
154.507	1.0333	ITI	n/a	n/a	n/a	n/a	n/a	n/a	n/a	n/a
155.5403	0.5333	FIXCROSS	n/a	n/a	n/a	n/a	n/a	n/a	n/a	n/a
156.0736	0.75	INK	49	Neutral	xxxxxxxxx	xxxxxxxxx	czerwony	red	hit	n/a
156.7804	n/a	RESPONSE	n/a	n/a	n/a	n/a	n/a	n/a	n/a	red
156.8236	1.0333	ITI	n/a	n/a	n/a	n/a	n/a	n/a	n/a	n/a
157.857	0.5333	FIXCROSS	n/a	n/a	n/a	n/a	n/a	n/a	n/a	n/a
158.3903	0.7667	INK	50	Incongruent	niebieski	blue	zielony	green	hit	n/a
159.1143	n/a	RESPONSE	n/a	n/a	n/a	n/a	n/a	n/a	n/a	green
159.157	1.0333	ITI	n/a	n/a	n/a	n/a	n/a	n/a	n/a	n/a
160.1903	0.5334	FIXCROSS	n/a	n/a	n/a	n/a	n/a	n/a	n/a	n/a
160.7237	0.65	INK	51	Incongruent	niebieski	blue	zielony	green	hit	n/a
161.3362	n/a	RESPONSE	n/a	n/a	n/a	n/a	n/a	n/a	n/a	green
161.3737	1.0333	ITI	n/a	n/a	n/a	n/a	n/a	n/a	n/a	n/a
162.407	0.5333	FIXCROSS	n/a	n/a	n/a	n/a	n/a	n/a	n/a	n/a
162.9404	0.8833	INK	52	Incongruent	zielony	green	niebieski	blue	hit	n/a
163.7819	n/a	RESPONSE	n/a	n/a	n/a	n/a	n/a	n/a	n/a	blue
163.8237	1.0333	ITI	n/a	n/a	n/a	n/a	n/a	n/a	n/a	n/a
164.8571	0.5333	FIXCROSS	n/a	n/a	n/a	n/a	n/a	n/a	n/a	n/a
165.3904	0.7834	INK	53	Incongruent	zielony	green	czerwony	red	hit	n/a
166.1316	n/a	RESPONSE	n/a	n/a	n/a	n/a	n/a	n/a	n/a	red
166.1738	1.0333	ITI	n/a	n/a	n/a	n/a	n/a	n/a	n/a	n/a
167.2071	0.5333	FIXCROSS	n/a	n/a	n/a	n/a	n/a	n/a	n/a	n/a
167.7404	0.5333	INK	54	Neutral	xxxxx	xxxxx	czerwony	red	hit	n/a
168.2417	n/a	RESPONSE	n/a	n/a	n/a	n/a	n/a	n/a	n/a	red
168.2738	1.0333	ITI	n/a	n/a	n/a	n/a	n/a	n/a	n/a	n/a
169.3071	0.5333	FIXCROSS	n/a	n/a	n/a	n/a	n/a	n/a	n/a	n/a
169.8405	1.2833	INK	55	Incongruent	niebieski	blue	żółty	yellow	hit	n/a
171.087	n/a	RESPONSE	n/a	n/a	n/a	n/a	n/a	n/a	n/a	yellow
171.1238	1.0334	ITI	n/a	n/a	n/a	n/a	n/a	n/a	n/a	n/a
172.1572	0.5333	FIXCROSS	n/a	n/a	n/a	n/a	n/a	n/a	n/a	n/a
172.6905	1.2	INK	56	Incongruent	czerwony	red	żółty	yellow	hit	n/a
173.8524	n/a	RESPONSE	n/a	n/a	n/a	n/a	n/a	n/a	n/a	yellow
173.8905	1.0334	ITI	n/a	n/a	n/a	n/a	n/a	n/a	n/a	n/a
174.9239	0.5333	FIXCROSS	n/a	n/a	n/a	n/a	n/a	n/a	n/a	n/a
175.4572	0.7333	INK	57	Incongruent	żółty	yellow	czerwony	red	hit	n/a
176.1543	n/a	RESPONSE	n/a	n/a	n/a	n/a	n/a	n/a	n/a	red
176.1905	1.0333	ITI	n/a	n/a	n/a	n/a	n/a	n/a	n/a	n/a
177.2239	0.5333	FIXCROSS	n/a	n/a	n/a	n/a	n/a	n/a	n/a	n/a
177.7572	0.65	INK	58	Neutral	xxxxxxx	xxxxxxx	żółty	yellow	hit	n/a
178.3762	n/a	RESPONSE	n/a	n/a	n/a	n/a	n/a	n/a	n/a	yellow
178.4072	1.0334	ITI	n/a	n/a	n/a	n/a	n/a	n/a	n/a	n/a
179.4406	0.5333	FIXCROSS	n/a	n/a	n/a	n/a	n/a	n/a	n/a	n/a
179.9739	0.75	INK	59	Incongruent	czerwony	red	zielony	green	hit	n/a
180.694	n/a	RESPONSE	n/a	n/a	n/a	n/a	n/a	n/a	n/a	green
180.7239	1.0333	ITI	n/a	n/a	n/a	n/a	n/a	n/a	n/a	n/a
180.9018	n/a	RESPONSE	n/a	n/a	n/a	n/a	n/a	n/a	n/a	green
181.7573	0.5333	FIXCROSS	n/a	n/a	n/a	n/a	n/a	n/a	n/a	n/a
182.2906	0.65	INK	60	Incongruent	niebieski	blue	czerwony	red	hit	n/a
182.8999	n/a	RESPONSE	n/a	n/a	n/a	n/a	n/a	n/a	n/a	red
182.9406	1.0334	ITI	n/a	n/a	n/a	n/a	n/a	n/a	n/a	n/a
183.974	0.5333	FIXCROSS	n/a	n/a	n/a	n/a	n/a	n/a	n/a	n/a
184.5073	0.85	INK	61	Incongruent	czerwony	red	żółty	yellow	hit	n/a
185.3136	n/a	RESPONSE	n/a	n/a	n/a	n/a	n/a	n/a	n/a	yellow
185.3573	1.0333	ITI	n/a	n/a	n/a	n/a	n/a	n/a	n/a	n/a
186.3907	0.5333	FIXCROSS	n/a	n/a	n/a	n/a	n/a	n/a	n/a	n/a
186.924	0.5167	INK	62	Neutral	xxxxxxxx	xxxxxxxx	żółty	yellow	hit	n/a
187.4077	n/a	RESPONSE	n/a	n/a	n/a	n/a	n/a	n/a	n/a	yellow
187.4407	1.0333	ITI	n/a	n/a	n/a	n/a	n/a	n/a	n/a	n/a
188.474	0.5333	FIXCROSS	n/a	n/a	n/a	n/a	n/a	n/a	n/a	n/a
189.0074	0.6167	INK	63	Incongruent	żółty	yellow	niebieski	blue	hit	n/a
189.5816	n/a	RESPONSE	n/a	n/a	n/a	n/a	n/a	n/a	n/a	blue
189.624	1.0333	ITI	n/a	n/a	n/a	n/a	n/a	n/a	n/a	n/a
190.6574	0.5333	FIXCROSS	n/a	n/a	n/a	n/a	n/a	n/a	n/a	n/a
191.1907	1.1167	INK	64	Neutral	xxxxxxx	xxxxxxx	czerwony	red	hit	n/a
192.2671	n/a	RESPONSE	n/a	n/a	n/a	n/a	n/a	n/a	n/a	red
192.3074	1.0333	ITI	n/a	n/a	n/a	n/a	n/a	n/a	n/a	n/a
193.3408	0.5333	FIXCROSS	n/a	n/a	n/a	n/a	n/a	n/a	n/a	n/a
193.8741	0.8333	INK	65	Incongruent	czerwony	red	niebieski	blue	hit	n/a
194.6648	n/a	RESPONSE	n/a	n/a	n/a	n/a	n/a	n/a	n/a	blue
194.7074	1.0334	ITI	n/a	n/a	n/a	n/a	n/a	n/a	n/a	n/a
195.7408	0.5333	FIXCROSS	n/a	n/a	n/a	n/a	n/a	n/a	n/a	n/a
196.2741	0.9167	INK	66	Neutral	xxxxxxxx	xxxxxxxx	zielony	green	hit	n/a
197.1584	n/a	RESPONSE	n/a	n/a	n/a	n/a	n/a	n/a	n/a	green
197.1908	1.0333	ITI	n/a	n/a	n/a	n/a	n/a	n/a	n/a	n/a
198.2242	0.5333	FIXCROSS	n/a	n/a	n/a	n/a	n/a	n/a	n/a	n/a
198.7575	0.5833	INK	67	Neutral	xxxxx	xxxxx	zielony	green	hit	n/a
199.3004	n/a	RESPONSE	n/a	n/a	n/a	n/a	n/a	n/a	n/a	green
199.3408	1.0333	ITI	n/a	n/a	n/a	n/a	n/a	n/a	n/a	n/a
200.3742	0.5333	FIXCROSS	n/a	n/a	n/a	n/a	n/a	n/a	n/a	n/a
200.9075	0.5167	INK	68	Incongruent	czerwony	red	zielony	green	hit	n/a
201.3945	n/a	RESPONSE	n/a	n/a	n/a	n/a	n/a	n/a	n/a	green
201.4242	1.0333	ITI	n/a	n/a	n/a	n/a	n/a	n/a	n/a	n/a
202.4575	0.5333	FIXCROSS	n/a	n/a	n/a	n/a	n/a	n/a	n/a	n/a
202.9909	0.75	INK	69	Neutral	xxxxxxxx	xxxxxxxx	żółty	yellow	hit	n/a
203.7123	n/a	RESPONSE	n/a	n/a	n/a	n/a	n/a	n/a	n/a	yellow
203.7409	1.0333	ITI	n/a	n/a	n/a	n/a	n/a	n/a	n/a	n/a
204.7742	0.5333	FIXCROSS	n/a	n/a	n/a	n/a	n/a	n/a	n/a	n/a
205.3076	0.7167	INK	70	Incongruent	żółty	yellow	czerwony	red	hit	n/a
205.9821	n/a	RESPONSE	n/a	n/a	n/a	n/a	n/a	n/a	n/a	red
206.0242	1.0333	ITI	n/a	n/a	n/a	n/a	n/a	n/a	n/a	n/a
207.0576	0.5333	FIXCROSS	n/a	n/a	n/a	n/a	n/a	n/a	n/a	n/a
207.5909	0.5833	INK	71	Neutral	xxxxxxxxx	xxxxxxxxx	żółty	yellow	hit	n/a
208.1401	n/a	RESPONSE	n/a	n/a	n/a	n/a	n/a	n/a	n/a	yellow
208.1743	1.0334	ITI	n/a	n/a	n/a	n/a	n/a	n/a	n/a	n/a
209.2076	0.5333	FIXCROSS	n/a	n/a	n/a	n/a	n/a	n/a	n/a	n/a
209.7409	0.5	INK	72	Incongruent	żółty	yellow	zielony	green	hit	n/a
210.2022	n/a	RESPONSE	n/a	n/a	n/a	n/a	n/a	n/a	n/a	green
210.241	1.0833	ITI	n/a	n/a	n/a	n/a	n/a	n/a	n/a	n/a
222.0631	n/a	RESPONSE	n/a	n/a	n/a	n/a	n/a	n/a	n/a	n/a
222.1411	1.0334	ITI	n/a	n/a	n/a	n/a	n/a	n/a	n/a	n/a
223.1745	0.5333	FIXCROSS	n/a	n/a	n/a	n/a	n/a	n/a	n/a	n/a
223.7078	1.4333	T_COLOR_NAME	1	Incongruent	żółty	yellow	niebieski	blue	hit	n/a
225.1002	n/a	RESPONSE	n/a	n/a	n/a	n/a	n/a	n/a	n/a	yellow
225.1411	0.5333	FEEDBACK	n/a	n/a	n/a	n/a	n/a	n/a	n/a	n/a
225.6745	1.0334	ITI	n/a	n/a	n/a	n/a	n/a	n/a	n/a	n/a
226.7078	0.5333	FIXCROSS	n/a	n/a	n/a	n/a	n/a	n/a	n/a	n/a
227.2412	1.0333	T_COLOR_NAME	2	Incongruent	niebieski	blue	żółty	yellow	hit	n/a
228.2333	n/a	RESPONSE	n/a	n/a	n/a	n/a	n/a	n/a	n/a	blue
228.2745	0.5333	FEEDBACK	n/a	n/a	n/a	n/a	n/a	n/a	n/a	n/a
228.8078	1.0333	ITI	n/a	n/a	n/a	n/a	n/a	n/a	n/a	n/a
229.8412	0.5333	FIXCROSS	n/a	n/a	n/a	n/a	n/a	n/a	n/a	n/a
230.3745	1.1167	T_COLOR_NAME	3	Neutral	czerwony	red	Neutral	Neutral	hit	n/a
231.4463	n/a	RESPONSE	n/a	n/a	n/a	n/a	n/a	n/a	n/a	red
231.4912	0.5333	FEEDBACK	n/a	n/a	n/a	n/a	n/a	n/a	n/a	n/a
232.0245	1.0333	ITI	n/a	n/a	n/a	n/a	n/a	n/a	n/a	n/a
233.0579	0.5333	FIXCROSS	n/a	n/a	n/a	n/a	n/a	n/a	n/a	n/a
233.5912	0.7	T_COLOR_NAME	4	Neutral	żółty	yellow	Neutral	Neutral	hit	n/a
234.2436	n/a	RESPONSE	n/a	n/a	n/a	n/a	n/a	n/a	n/a	yellow
234.2912	0.5333	FEEDBACK	n/a	n/a	n/a	n/a	n/a	n/a	n/a	n/a
234.8246	1.0334	ITI	n/a	n/a	n/a	n/a	n/a	n/a	n/a	n/a
235.8579	0.5333	FIXCROSS	n/a	n/a	n/a	n/a	n/a	n/a	n/a	n/a
236.3913	0.4167	T_COLOR_NAME	5	Neutral	żółty	yellow	Neutral	Neutral	hit	n/a
236.7692	n/a	RESPONSE	n/a	n/a	n/a	n/a	n/a	n/a	n/a	yellow
236.8079	0.5333	FEEDBACK	n/a	n/a	n/a	n/a	n/a	n/a	n/a	n/a
237.3413	1.0333	ITI	n/a	n/a	n/a	n/a	n/a	n/a	n/a	n/a
238.3746	0.5333	FIXCROSS	n/a	n/a	n/a	n/a	n/a	n/a	n/a	n/a
238.908	1.0833	T_COLOR_NAME	6	Incongruent	zielony	green	niebieski	blue	hit	n/a
239.9502	n/a	RESPONSE	n/a	n/a	n/a	n/a	n/a	n/a	n/a	green
239.9913	0.5333	FEEDBACK	n/a	n/a	n/a	n/a	n/a	n/a	n/a	n/a
240.5247	1.0333	ITI	n/a	n/a	n/a	n/a	n/a	n/a	n/a	n/a
241.558	0.5333	FIXCROSS	n/a	n/a	n/a	n/a	n/a	n/a	n/a	n/a
242.0913	0.7167	T_COLOR_NAME	7	Incongruent	zielony	green	czerwony	red	hit	n/a
242.7636	n/a	RESPONSE	n/a	n/a	n/a	n/a	n/a	n/a	n/a	green
242.808	0.5334	FEEDBACK	n/a	n/a	n/a	n/a	n/a	n/a	n/a	n/a
243.3414	1.0333	ITI	n/a	n/a	n/a	n/a	n/a	n/a	n/a	n/a
244.3747	0.5333	FIXCROSS	n/a	n/a	n/a	n/a	n/a	n/a	n/a	n/a
244.908	0.6167	T_COLOR_NAME	8	Neutral	zielony	green	Neutral	Neutral	hit	n/a
245.4811	n/a	RESPONSE	n/a	n/a	n/a	n/a	n/a	n/a	n/a	green
245.5247	0.5333	FEEDBACK	n/a	n/a	n/a	n/a	n/a	n/a	n/a	n/a
246.058	1.0333	ITI	n/a	n/a	n/a	n/a	n/a	n/a	n/a	n/a
247.0914	0.5333	FIXCROSS	n/a	n/a	n/a	n/a	n/a	n/a	n/a	n/a
247.6247	0.5167	T_COLOR_NAME	9	Neutral	zielony	green	Neutral	Neutral	hit	n/a
248.1025	n/a	RESPONSE	n/a	n/a	n/a	n/a	n/a	n/a	n/a	green
248.1414	0.5333	FEEDBACK	n/a	n/a	n/a	n/a	n/a	n/a	n/a	n/a
248.6748	1.0333	ITI	n/a	n/a	n/a	n/a	n/a	n/a	n/a	n/a
249.7081	0.5333	FIXCROSS	n/a	n/a	n/a	n/a	n/a	n/a	n/a	n/a
250.2414	1.2167	T_COLOR_NAME	10	Incongruent	czerwony	red	niebieski	blue	hit	n/a
251.4274	n/a	RESPONSE	n/a	n/a	n/a	n/a	n/a	n/a	n/a	red
251.4581	0.5333	FEEDBACK	n/a	n/a	n/a	n/a	n/a	n/a	n/a	n/a
251.9915	1.0333	ITI	n/a	n/a	n/a	n/a	n/a	n/a	n/a	n/a
253.0248	0.5333	FIXCROSS	n/a	n/a	n/a	n/a	n/a	n/a	n/a	n/a
253.5581	1.4167	T_COLOR_NAME	11	Incongruent	czerwony	red	zielony	green	hit	n/a
254.9441	n/a	RESPONSE	n/a	n/a	n/a	n/a	n/a	n/a	n/a	red
254.9748	0.5333	FEEDBACK	n/a	n/a	n/a	n/a	n/a	n/a	n/a	n/a
255.5082	1.0333	ITI	n/a	n/a	n/a	n/a	n/a	n/a	n/a	n/a
256.5415	0.5333	FIXCROSS	n/a	n/a	n/a	n/a	n/a	n/a	n/a	n/a
257.0748	0.6333	T_COLOR_NAME	12	Neutral	żółty	yellow	Neutral	Neutral	hit	n/a
257.6776	n/a	RESPONSE	n/a	n/a	n/a	n/a	n/a	n/a	n/a	yellow
257.7082	0.5333	FEEDBACK	n/a	n/a	n/a	n/a	n/a	n/a	n/a	n/a
258.2415	1.05	ITI	n/a	n/a	n/a	n/a	n/a	n/a	n/a	n/a
261.1783	n/a	RESPONSE	n/a	n/a	n/a	n/a	n/a	n/a	n/a	n/a
261.2416	1.0	ITI	n/a	n/a	n/a	n/a	n/a	n/a	n/a	n/a
262.2416	0.5	FIXCROSS	n/a	n/a	n/a	n/a	n/a	n/a	n/a	n/a
262.7416	0.7333	COLOR_NAME	1	Neutral	czerwony	red	Neutral	Neutral	hit	n/a
263.4642	n/a	RESPONSE	n/a	n/a	n/a	n/a	n/a	n/a	n/a	red
263.4749	1.0	ITI	n/a	n/a	n/a	n/a	n/a	n/a	n/a	n/a
264.4749	0.5	FIXCROSS	n/a	n/a	n/a	n/a	n/a	n/a	n/a	n/a
264.9749	0.65	COLOR_NAME	2	Neutral	żółty	yellow	Neutral	Neutral	hit	n/a
265.606	n/a	RESPONSE	n/a	n/a	n/a	n/a	n/a	n/a	n/a	yellow
265.625	1.0	ITI	n/a	n/a	n/a	n/a	n/a	n/a	n/a	n/a
266.625	0.5333	FIXCROSS	n/a	n/a	n/a	n/a	n/a	n/a	n/a	n/a
267.1583	0.7667	COLOR_NAME	3	Incongruent	niebieski	blue	żółty	yellow	hit	n/a
267.8919	n/a	RESPONSE	n/a	n/a	n/a	n/a	n/a	n/a	n/a	blue
267.925	1.0333	ITI	n/a	n/a	n/a	n/a	n/a	n/a	n/a	n/a
268.9583	0.5333	FIXCROSS	n/a	n/a	n/a	n/a	n/a	n/a	n/a	n/a
269.4917	0.9334	COLOR_NAME	4	Incongruent	czerwony	red	zielony	green	hit	n/a
270.3856	n/a	RESPONSE	n/a	n/a	n/a	n/a	n/a	n/a	n/a	red
270.425	1.0333	ITI	n/a	n/a	n/a	n/a	n/a	n/a	n/a	n/a
271.4584	0.5333	FIXCROSS	n/a	n/a	n/a	n/a	n/a	n/a	n/a	n/a
271.9917	0.7167	COLOR_NAME	5	Neutral	niebieski	blue	Neutral	Neutral	hit	n/a
272.6715	n/a	RESPONSE	n/a	n/a	n/a	n/a	n/a	n/a	n/a	blue
272.7084	1.0333	ITI	n/a	n/a	n/a	n/a	n/a	n/a	n/a	n/a
273.7417	0.5333	FIXCROSS	n/a	n/a	n/a	n/a	n/a	n/a	n/a	n/a
274.2751	0.6	COLOR_NAME	6	Incongruent	żółty	yellow	niebieski	blue	hit	n/a
274.8455	n/a	RESPONSE	n/a	n/a	n/a	n/a	n/a	n/a	n/a	yellow
274.8751	1.0333	ITI	n/a	n/a	n/a	n/a	n/a	n/a	n/a	n/a
275.9084	0.5333	FIXCROSS	n/a	n/a	n/a	n/a	n/a	n/a	n/a	n/a
276.4417	0.9667	COLOR_NAME	7	Incongruent	niebieski	blue	zielony	green	hit	n/a
277.371	n/a	RESPONSE	n/a	n/a	n/a	n/a	n/a	n/a	n/a	blue
277.4084	1.0333	ITI	n/a	n/a	n/a	n/a	n/a	n/a	n/a	n/a
278.4418	0.5333	FIXCROSS	n/a	n/a	n/a	n/a	n/a	n/a	n/a	n/a
278.9751	0.6833	COLOR_NAME	8	Incongruent	żółty	yellow	niebieski	blue	hit	n/a
279.6249	n/a	RESPONSE	n/a	n/a	n/a	n/a	n/a	n/a	n/a	yellow
279.6584	1.0333	ITI	n/a	n/a	n/a	n/a	n/a	n/a	n/a	n/a
280.6918	0.5333	FIXCROSS	n/a	n/a	n/a	n/a	n/a	n/a	n/a	n/a
281.2251	0.8833	COLOR_NAME	9	Neutral	czerwony	red	Neutral	Neutral	hit	n/a
282.0707	n/a	RESPONSE	n/a	n/a	n/a	n/a	n/a	n/a	n/a	red
282.1085	1.0334	ITI	n/a	n/a	n/a	n/a	n/a	n/a	n/a	n/a
283.1418	0.5333	FIXCROSS	n/a	n/a	n/a	n/a	n/a	n/a	n/a	n/a
283.6752	0.9333	COLOR_NAME	10	Incongruent	żółty	yellow	czerwony	red	hit	n/a
284.5803	n/a	RESPONSE	n/a	n/a	n/a	n/a	n/a	n/a	n/a	yellow
284.6085	1.0333	ITI	n/a	n/a	n/a	n/a	n/a	n/a	n/a	n/a
285.6419	0.5333	FIXCROSS	n/a	n/a	n/a	n/a	n/a	n/a	n/a	n/a
286.1752	0.9167	COLOR_NAME	11	Incongruent	czerwony	red	niebieski	blue	hit	n/a
287.058	n/a	RESPONSE	n/a	n/a	n/a	n/a	n/a	n/a	n/a	red
287.0919	1.0333	ITI	n/a	n/a	n/a	n/a	n/a	n/a	n/a	n/a
288.1252	0.5333	FIXCROSS	n/a	n/a	n/a	n/a	n/a	n/a	n/a	n/a
288.6586	0.5333	COLOR_NAME	12	Neutral	niebieski	blue	Neutral	Neutral	hit	n/a
289.152	n/a	RESPONSE	n/a	n/a	n/a	n/a	n/a	n/a	n/a	blue
289.1919	1.0334	ITI	n/a	n/a	n/a	n/a	n/a	n/a	n/a	n/a
290.2253	0.5333	FIXCROSS	n/a	n/a	n/a	n/a	n/a	n/a	n/a	n/a
290.7586	0.5833	COLOR_NAME	13	Neutral	żółty	yellow	Neutral	Neutral	hit	n/a
291.31	n/a	RESPONSE	n/a	n/a	n/a	n/a	n/a	n/a	n/a	yellow
291.3419	1.0333	ITI	n/a	n/a	n/a	n/a	n/a	n/a	n/a	n/a
292.3753	0.5333	FIXCROSS	n/a	n/a	n/a	n/a	n/a	n/a	n/a	n/a
292.9086	0.6833	COLOR_NAME	14	Incongruent	czerwony	red	żółty	yellow	hit	n/a
293.5638	n/a	RESPONSE	n/a	n/a	n/a	n/a	n/a	n/a	n/a	red
293.5919	1.0334	ITI	n/a	n/a	n/a	n/a	n/a	n/a	n/a	n/a
294.6253	0.5333	FIXCROSS	n/a	n/a	n/a	n/a	n/a	n/a	n/a	n/a
295.1586	0.7	COLOR_NAME	15	Incongruent	niebieski	blue	zielony	green	hit	n/a
295.8177	n/a	RESPONSE	n/a	n/a	n/a	n/a	n/a	n/a	n/a	blue
295.8586	1.0334	ITI	n/a	n/a	n/a	n/a	n/a	n/a	n/a	n/a
296.892	0.5333	FIXCROSS	n/a	n/a	n/a	n/a	n/a	n/a	n/a	n/a
297.4253	0.7167	COLOR_NAME	16	Neutral	żółty	yellow	Neutral	Neutral	hit	n/a
298.1036	n/a	RESPONSE	n/a	n/a	n/a	n/a	n/a	n/a	n/a	yellow
298.142	1.0333	ITI	n/a	n/a	n/a	n/a	n/a	n/a	n/a	n/a
299.1753	0.5333	FIXCROSS	n/a	n/a	n/a	n/a	n/a	n/a	n/a	n/a
299.7087	1.2	COLOR_NAME	17	Incongruent	zielony	green	żółty	yellow	hit	n/a
300.869	n/a	RESPONSE	n/a	n/a	n/a	n/a	n/a	n/a	n/a	green
300.9087	1.0333	ITI	n/a	n/a	n/a	n/a	n/a	n/a	n/a	n/a
301.942	0.5333	FIXCROSS	n/a	n/a	n/a	n/a	n/a	n/a	n/a	n/a
302.4754	1.25	COLOR_NAME	18	Neutral	żółty	yellow	Neutral	Neutral	hit	n/a
303.6824	n/a	RESPONSE	n/a	n/a	n/a	n/a	n/a	n/a	n/a	yellow
303.7254	1.0334	ITI	n/a	n/a	n/a	n/a	n/a	n/a	n/a	n/a
304.7588	0.5333	FIXCROSS	n/a	n/a	n/a	n/a	n/a	n/a	n/a	n/a
305.2921	0.5667	COLOR_NAME	19	Neutral	czerwony	red	Neutral	Neutral	hit	n/a
305.8244	n/a	RESPONSE	n/a	n/a	n/a	n/a	n/a	n/a	n/a	red
305.8588	1.0333	ITI	n/a	n/a	n/a	n/a	n/a	n/a	n/a	n/a
306.8921	0.5333	FIXCROSS	n/a	n/a	n/a	n/a	n/a	n/a	n/a	n/a
307.4254	0.7	COLOR_NAME	20	Neutral	żółty	yellow	Neutral	Neutral	hit	n/a
308.0942	n/a	RESPONSE	n/a	n/a	n/a	n/a	n/a	n/a	n/a	yellow
308.1255	1.0333	ITI	n/a	n/a	n/a	n/a	n/a	n/a	n/a	n/a
309.1588	0.5333	FIXCROSS	n/a	n/a	n/a	n/a	n/a	n/a	n/a	n/a
309.6921	0.7	COLOR_NAME	21	Incongruent	zielony	green	czerwony	red	hit	n/a
310.3641	n/a	RESPONSE	n/a	n/a	n/a	n/a	n/a	n/a	n/a	green
310.3921	1.0334	ITI	n/a	n/a	n/a	n/a	n/a	n/a	n/a	n/a
311.4255	0.5333	FIXCROSS	n/a	n/a	n/a	n/a	n/a	n/a	n/a	n/a
311.9588	0.6667	COLOR_NAME	22	Neutral	żółty	yellow	Neutral	Neutral	hit	n/a
312.5859	n/a	RESPONSE	n/a	n/a	n/a	n/a	n/a	n/a	n/a	yellow
312.6255	1.0334	ITI	n/a	n/a	n/a	n/a	n/a	n/a	n/a	n/a
313.6589	0.5333	FIXCROSS	n/a	n/a	n/a	n/a	n/a	n/a	n/a	n/a
314.1922	0.8834	COLOR_NAME	23	Incongruent	zielony	green	czerwony	red	hit	n/a
315.0316	n/a	RESPONSE	n/a	n/a	n/a	n/a	n/a	n/a	n/a	green
315.0755	1.0333	ITI	n/a	n/a	n/a	n/a	n/a	n/a	n/a	n/a
316.1089	0.5333	FIXCROSS	n/a	n/a	n/a	n/a	n/a	n/a	n/a	n/a
316.6422	0.7333	COLOR_NAME	24	Incongruent	czerwony	red	zielony	green	hit	n/a
317.3335	n/a	RESPONSE	n/a	n/a	n/a	n/a	n/a	n/a	n/a	red
317.3756	1.0333	ITI	n/a	n/a	n/a	n/a	n/a	n/a	n/a	n/a
318.4089	0.5333	FIXCROSS	n/a	n/a	n/a	n/a	n/a	n/a	n/a	n/a
318.9422	0.6667	COLOR_NAME	25	Incongruent	czerwony	red	zielony	green	hit	n/a
319.5714	n/a	RESPONSE	n/a	n/a	n/a	n/a	n/a	n/a	n/a	red
319.6089	1.0334	ITI	n/a	n/a	n/a	n/a	n/a	n/a	n/a	n/a
320.6423	0.5333	FIXCROSS	n/a	n/a	n/a	n/a	n/a	n/a	n/a	n/a
321.1756	0.6667	COLOR_NAME	26	Neutral	czerwony	red	Neutral	Neutral	hit	n/a
321.8092	n/a	RESPONSE	n/a	n/a	n/a	n/a	n/a	n/a	n/a	red
321.8423	1.0333	ITI	n/a	n/a	n/a	n/a	n/a	n/a	n/a	n/a
322.8756	0.5333	FIXCROSS	n/a	n/a	n/a	n/a	n/a	n/a	n/a	n/a
323.409	0.7833	COLOR_NAME	27	Incongruent	zielony	green	żółty	yellow	hit	n/a
324.1589	n/a	RESPONSE	n/a	n/a	n/a	n/a	n/a	n/a	n/a	green
324.1923	1.0334	ITI	n/a	n/a	n/a	n/a	n/a	n/a	n/a	n/a
325.2257	0.5333	FIXCROSS	n/a	n/a	n/a	n/a	n/a	n/a	n/a	n/a
325.759	0.7667	COLOR_NAME	28	Neutral	czerwony	red	Neutral	Neutral	hit	n/a
326.4928	n/a	RESPONSE	n/a	n/a	n/a	n/a	n/a	n/a	n/a	red
326.5257	1.0334	ITI	n/a	n/a	n/a	n/a	n/a	n/a	n/a	n/a
327.559	0.5333	FIXCROSS	n/a	n/a	n/a	n/a	n/a	n/a	n/a	n/a
328.0924	0.6833	COLOR_NAME	29	Incongruent	niebieski	blue	czerwony	red	hit	n/a
328.7467	n/a	RESPONSE	n/a	n/a	n/a	n/a	n/a	n/a	n/a	blue
328.7757	1.0333	ITI	n/a	n/a	n/a	n/a	n/a	n/a	n/a	n/a
329.809	0.5333	FIXCROSS	n/a	n/a	n/a	n/a	n/a	n/a	n/a	n/a
330.3424	0.7333	COLOR_NAME	30	Neutral	żółty	yellow	Neutral	Neutral	hit	n/a
331.0324	n/a	RESPONSE	n/a	n/a	n/a	n/a	n/a	n/a	n/a	yellow
331.0757	1.0333	ITI	n/a	n/a	n/a	n/a	n/a	n/a	n/a	n/a
332.1091	0.5333	FIXCROSS	n/a	n/a	n/a	n/a	n/a	n/a	n/a	n/a
332.6424	1.2333	COLOR_NAME	31	Incongruent	zielony	green	niebieski	blue	hit	n/a
333.8299	n/a	RESPONSE	n/a	n/a	n/a	n/a	n/a	n/a	n/a	green
333.8758	1.0333	ITI	n/a	n/a	n/a	n/a	n/a	n/a	n/a	n/a
334.9091	0.5333	FIXCROSS	n/a	n/a	n/a	n/a	n/a	n/a	n/a	n/a
335.4425	0.9167	COLOR_NAME	32	Neutral	niebieski	blue	Neutral	Neutral	hit	n/a
336.3235	n/a	RESPONSE	n/a	n/a	n/a	n/a	n/a	n/a	n/a	blue
336.3591	1.0334	ITI	n/a	n/a	n/a	n/a	n/a	n/a	n/a	n/a
337.3925	0.5333	FIXCROSS	n/a	n/a	n/a	n/a	n/a	n/a	n/a	n/a
337.9258	0.9333	COLOR_NAME	33	Neutral	zielony	green	Neutral	Neutral	hit	n/a
338.8171	n/a	RESPONSE	n/a	n/a	n/a	n/a	n/a	n/a	n/a	green
338.8592	1.0333	ITI	n/a	n/a	n/a	n/a	n/a	n/a	n/a	n/a
339.8925	0.5333	FIXCROSS	n/a	n/a	n/a	n/a	n/a	n/a	n/a	n/a
340.4258	0.8333	COLOR_NAME	34	Neutral	zielony	green	Neutral	Neutral	hit	n/a
341.2308	n/a	RESPONSE	n/a	n/a	n/a	n/a	n/a	n/a	n/a	green
341.2592	1.0333	ITI	n/a	n/a	n/a	n/a	n/a	n/a	n/a	n/a
342.2925	0.5333	FIXCROSS	n/a	n/a	n/a	n/a	n/a	n/a	n/a	n/a
342.8259	0.7333	COLOR_NAME	35	Incongruent	niebieski	blue	czerwony	red	hit	n/a
343.5167	n/a	RESPONSE	n/a	n/a	n/a	n/a	n/a	n/a	n/a	blue
343.5592	1.0334	ITI	n/a	n/a	n/a	n/a	n/a	n/a	n/a	n/a
344.5926	0.5333	FIXCROSS	n/a	n/a	n/a	n/a	n/a	n/a	n/a	n/a
345.1259	0.9167	COLOR_NAME	36	Neutral	żółty	yellow	Neutral	Neutral	hit	n/a
346.0103	n/a	RESPONSE	n/a	n/a	n/a	n/a	n/a	n/a	n/a	yellow
346.0426	1.0334	ITI	n/a	n/a	n/a	n/a	n/a	n/a	n/a	n/a
347.0759	0.5333	FIXCROSS	n/a	n/a	n/a	n/a	n/a	n/a	n/a	n/a
347.6093	0.55	COLOR_NAME	37	Incongruent	żółty	yellow	niebieski	blue	hit	n/a
348.1204	n/a	RESPONSE	n/a	n/a	n/a	n/a	n/a	n/a	n/a	yellow
348.1593	1.0333	ITI	n/a	n/a	n/a	n/a	n/a	n/a	n/a	n/a
349.1926	0.5333	FIXCROSS	n/a	n/a	n/a	n/a	n/a	n/a	n/a	n/a
349.7259	0.6	COLOR_NAME	38	Incongruent	niebieski	blue	zielony	green	hit	n/a
350.2943	n/a	RESPONSE	n/a	n/a	n/a	n/a	n/a	n/a	n/a	blue
350.326	1.0333	ITI	n/a	n/a	n/a	n/a	n/a	n/a	n/a	n/a
351.3593	0.5333	FIXCROSS	n/a	n/a	n/a	n/a	n/a	n/a	n/a	n/a
351.8926	0.6833	COLOR_NAME	39	Incongruent	niebieski	blue	czerwony	red	hit	n/a
352.5323	n/a	RESPONSE	n/a	n/a	n/a	n/a	n/a	n/a	n/a	blue
352.576	1.0334	ITI	n/a	n/a	n/a	n/a	n/a	n/a	n/a	n/a
353.6093	0.5333	FIXCROSS	n/a	n/a	n/a	n/a	n/a	n/a	n/a	n/a
354.1427	0.75	COLOR_NAME	40	Incongruent	zielony	green	żółty	yellow	hit	n/a
354.85	n/a	RESPONSE	n/a	n/a	n/a	n/a	n/a	n/a	n/a	green
354.8927	1.0333	ITI	n/a	n/a	n/a	n/a	n/a	n/a	n/a	n/a
355.926	0.5333	FIXCROSS	n/a	n/a	n/a	n/a	n/a	n/a	n/a	n/a
356.4594	0.85	COLOR_NAME	41	Neutral	zielony	green	Neutral	Neutral	hit	n/a
357.2797	n/a	RESPONSE	n/a	n/a	n/a	n/a	n/a	n/a	n/a	green
357.3094	1.0333	ITI	n/a	n/a	n/a	n/a	n/a	n/a	n/a	n/a
358.3427	0.5333	FIXCROSS	n/a	n/a	n/a	n/a	n/a	n/a	n/a	n/a
358.8761	0.9167	COLOR_NAME	42	Incongruent	czerwony	red	żółty	yellow	hit	n/a
359.7575	n/a	RESPONSE	n/a	n/a	n/a	n/a	n/a	n/a	n/a	red
359.7927	1.0333	ITI	n/a	n/a	n/a	n/a	n/a	n/a	n/a	n/a
360.8261	0.5333	FIXCROSS	n/a	n/a	n/a	n/a	n/a	n/a	n/a	n/a
361.3594	0.8667	COLOR_NAME	43	Neutral	zielony	green	Neutral	Neutral	hit	n/a
362.1872	n/a	RESPONSE	n/a	n/a	n/a	n/a	n/a	n/a	n/a	green
362.2261	1.0333	ITI	n/a	n/a	n/a	n/a	n/a	n/a	n/a	n/a
363.2594	0.5333	FIXCROSS	n/a	n/a	n/a	n/a	n/a	n/a	n/a	n/a
363.7928	0.6833	COLOR_NAME	44	Neutral	niebieski	blue	Neutral	Neutral	hit	n/a
364.441	n/a	RESPONSE	n/a	n/a	n/a	n/a	n/a	n/a	n/a	blue
364.4761	1.0333	ITI	n/a	n/a	n/a	n/a	n/a	n/a	n/a	n/a
365.5095	0.5333	FIXCROSS	n/a	n/a	n/a	n/a	n/a	n/a	n/a	n/a
366.0428	0.5667	COLOR_NAME	45	Neutral	niebieski	blue	Neutral	Neutral	hit	n/a
366.567	n/a	RESPONSE	n/a	n/a	n/a	n/a	n/a	n/a	n/a	blue
366.6095	1.0333	ITI	n/a	n/a	n/a	n/a	n/a	n/a	n/a	n/a
367.6428	0.5333	FIXCROSS	n/a	n/a	n/a	n/a	n/a	n/a	n/a	n/a
368.1762	0.85	COLOR_NAME	46	Incongruent	czerwony	red	niebieski	blue	hit	n/a
368.9968	n/a	RESPONSE	n/a	n/a	n/a	n/a	n/a	n/a	n/a	red
369.0262	1.0333	ITI	n/a	n/a	n/a	n/a	n/a	n/a	n/a	n/a
370.0595	0.5333	FIXCROSS	n/a	n/a	n/a	n/a	n/a	n/a	n/a	n/a
370.5929	0.7167	COLOR_NAME	47	Neutral	niebieski	blue	Neutral	Neutral	hit	n/a
371.2666	n/a	RESPONSE	n/a	n/a	n/a	n/a	n/a	n/a	n/a	blue
371.3095	1.0333	ITI	n/a	n/a	n/a	n/a	n/a	n/a	n/a	n/a
372.3429	0.5333	FIXCROSS	n/a	n/a	n/a	n/a	n/a	n/a	n/a	n/a
372.8762	0.7833	COLOR_NAME	48	Neutral	zielony	green	Neutral	Neutral	hit	n/a
373.6164	n/a	RESPONSE	n/a	n/a	n/a	n/a	n/a	n/a	n/a	green
373.6596	1.0333	ITI	n/a	n/a	n/a	n/a	n/a	n/a	n/a	n/a
374.6929	0.5333	FIXCROSS	n/a	n/a	n/a	n/a	n/a	n/a	n/a	n/a
375.2262	0.7334	COLOR_NAME	49	Neutral	niebieski	blue	Neutral	Neutral	hit	n/a
375.9182	n/a	RESPONSE	n/a	n/a	n/a	n/a	n/a	n/a	n/a	blue
375.9596	1.0333	ITI	n/a	n/a	n/a	n/a	n/a	n/a	n/a	n/a
376.9929	0.5333	FIXCROSS	n/a	n/a	n/a	n/a	n/a	n/a	n/a	n/a
377.5263	0.8	COLOR_NAME	50	Neutral	zielony	green	Neutral	Neutral	hit	n/a
378.2839	n/a	RESPONSE	n/a	n/a	n/a	n/a	n/a	n/a	n/a	green
378.3263	1.0333	ITI	n/a	n/a	n/a	n/a	n/a	n/a	n/a	n/a
379.3596	0.5333	FIXCROSS	n/a	n/a	n/a	n/a	n/a	n/a	n/a	n/a
379.893	0.8833	COLOR_NAME	51	Incongruent	czerwony	red	niebieski	blue	hit	n/a
380.7455	n/a	RESPONSE	n/a	n/a	n/a	n/a	n/a	n/a	n/a	red
380.7763	1.0333	ITI	n/a	n/a	n/a	n/a	n/a	n/a	n/a	n/a
381.8097	0.5333	FIXCROSS	n/a	n/a	n/a	n/a	n/a	n/a	n/a	n/a
382.343	0.7167	COLOR_NAME	52	Neutral	zielony	green	Neutral	Neutral	hit	n/a
383.0154	n/a	RESPONSE	n/a	n/a	n/a	n/a	n/a	n/a	n/a	green
383.0597	1.0334	ITI	n/a	n/a	n/a	n/a	n/a	n/a	n/a	n/a
384.093	0.5333	FIXCROSS	n/a	n/a	n/a	n/a	n/a	n/a	n/a	n/a
384.6264	0.6667	COLOR_NAME	53	Neutral	czerwony	red	Neutral	Neutral	hit	n/a
385.2534	n/a	RESPONSE	n/a	n/a	n/a	n/a	n/a	n/a	n/a	red
385.293	1.0333	ITI	n/a	n/a	n/a	n/a	n/a	n/a	n/a	n/a
386.3264	0.5333	FIXCROSS	n/a	n/a	n/a	n/a	n/a	n/a	n/a	n/a
386.8597	0.7333	COLOR_NAME	54	Neutral	zielony	green	Neutral	Neutral	hit	n/a
387.5553	n/a	RESPONSE	n/a	n/a	n/a	n/a	n/a	n/a	n/a	green
387.5931	1.0334	ITI	n/a	n/a	n/a	n/a	n/a	n/a	n/a	n/a
388.6264	0.5333	FIXCROSS	n/a	n/a	n/a	n/a	n/a	n/a	n/a	n/a
389.1597	0.7	COLOR_NAME	55	Incongruent	żółty	yellow	czerwony	red	hit	n/a
389.825	n/a	RESPONSE	n/a	n/a	n/a	n/a	n/a	n/a	n/a	yellow
389.8597	1.0334	ITI	n/a	n/a	n/a	n/a	n/a	n/a	n/a	n/a
390.8931	0.5333	FIXCROSS	n/a	n/a	n/a	n/a	n/a	n/a	n/a	n/a
391.4264	0.8667	COLOR_NAME	56	Incongruent	zielony	green	niebieski	blue	hit	n/a
392.2547	n/a	RESPONSE	n/a	n/a	n/a	n/a	n/a	n/a	n/a	green
392.2931	1.0333	ITI	n/a	n/a	n/a	n/a	n/a	n/a	n/a	n/a
393.3265	0.5333	FIXCROSS	n/a	n/a	n/a	n/a	n/a	n/a	n/a	n/a
393.8598	0.7833	COLOR_NAME	57	Incongruent	żółty	yellow	zielony	green	hit	n/a
394.6046	n/a	RESPONSE	n/a	n/a	n/a	n/a	n/a	n/a	n/a	yellow
394.6432	1.0333	ITI	n/a	n/a	n/a	n/a	n/a	n/a	n/a	n/a
395.6765	0.5333	FIXCROSS	n/a	n/a	n/a	n/a	n/a	n/a	n/a	n/a
396.2098	0.6833	COLOR_NAME	58	Neutral	żółty	yellow	Neutral	Neutral	hit	n/a
396.8584	n/a	RESPONSE	n/a	n/a	n/a	n/a	n/a	n/a	n/a	yellow
396.8932	1.0333	ITI	n/a	n/a	n/a	n/a	n/a	n/a	n/a	n/a
397.9265	0.5333	FIXCROSS	n/a	n/a	n/a	n/a	n/a	n/a	n/a	n/a
398.4599	0.7	COLOR_NAME	59	Incongruent	czerwony	red	żółty	yellow	hit	n/a
399.1283	n/a	RESPONSE	n/a	n/a	n/a	n/a	n/a	n/a	n/a	red
399.1599	1.0333	ITI	n/a	n/a	n/a	n/a	n/a	n/a	n/a	n/a
400.1932	0.5333	FIXCROSS	n/a	n/a	n/a	n/a	n/a	n/a	n/a	n/a
400.7265	0.6833	COLOR_NAME	60	Neutral	czerwony	red	Neutral	Neutral	hit	n/a
401.3662	n/a	RESPONSE	n/a	n/a	n/a	n/a	n/a	n/a	n/a	red
401.4099	1.0333	ITI	n/a	n/a	n/a	n/a	n/a	n/a	n/a	n/a
402.4432	0.5333	FIXCROSS	n/a	n/a	n/a	n/a	n/a	n/a	n/a	n/a
402.9766	0.55	COLOR_NAME	61	Neutral	czerwony	red	Neutral	Neutral	hit	n/a
403.4923	n/a	RESPONSE	n/a	n/a	n/a	n/a	n/a	n/a	n/a	red
403.5266	1.0334	ITI	n/a	n/a	n/a	n/a	n/a	n/a	n/a	n/a
404.5599	0.5333	FIXCROSS	n/a	n/a	n/a	n/a	n/a	n/a	n/a	n/a
405.0933	0.6667	COLOR_NAME	62	Neutral	niebieski	blue	Neutral	Neutral	hit	n/a
405.7301	n/a	RESPONSE	n/a	n/a	n/a	n/a	n/a	n/a	n/a	blue
405.7599	1.0333	ITI	n/a	n/a	n/a	n/a	n/a	n/a	n/a	n/a
406.7933	0.5333	FIXCROSS	n/a	n/a	n/a	n/a	n/a	n/a	n/a	n/a
407.3266	0.5833	COLOR_NAME	63	Neutral	czerwony	red	Neutral	Neutral	hit	n/a
407.8721	n/a	RESPONSE	n/a	n/a	n/a	n/a	n/a	n/a	n/a	red
407.91	1.0333	ITI	n/a	n/a	n/a	n/a	n/a	n/a	n/a	n/a
408.9433	0.5333	FIXCROSS	n/a	n/a	n/a	n/a	n/a	n/a	n/a	n/a
409.4766	0.8	COLOR_NAME	64	Incongruent	niebieski	blue	żółty	yellow	hit	n/a
410.2378	n/a	RESPONSE	n/a	n/a	n/a	n/a	n/a	n/a	n/a	blue
410.2767	1.0333	ITI	n/a	n/a	n/a	n/a	n/a	n/a	n/a	n/a
411.31	0.5333	FIXCROSS	n/a	n/a	n/a	n/a	n/a	n/a	n/a	n/a
411.8433	0.55	COLOR_NAME	65	Neutral	niebieski	blue	Neutral	Neutral	hit	n/a
412.3639	n/a	RESPONSE	n/a	n/a	n/a	n/a	n/a	n/a	n/a	blue
412.3933	1.0334	ITI	n/a	n/a	n/a	n/a	n/a	n/a	n/a	n/a
413.4267	0.5333	FIXCROSS	n/a	n/a	n/a	n/a	n/a	n/a	n/a	n/a
413.96	0.5333	COLOR_NAME	66	Incongruent	niebieski	blue	żółty	yellow	hit	n/a
414.4579	n/a	RESPONSE	n/a	n/a	n/a	n/a	n/a	n/a	n/a	blue
414.4934	1.0333	ITI	n/a	n/a	n/a	n/a	n/a	n/a	n/a	n/a
415.5267	0.5334	FIXCROSS	n/a	n/a	n/a	n/a	n/a	n/a	n/a	n/a
416.0601	0.95	COLOR_NAME	67	Incongruent	zielony	green	niebieski	blue	hit	n/a
416.9675	n/a	RESPONSE	n/a	n/a	n/a	n/a	n/a	n/a	n/a	green
417.0101	1.0333	ITI	n/a	n/a	n/a	n/a	n/a	n/a	n/a	n/a
418.0434	0.5333	FIXCROSS	n/a	n/a	n/a	n/a	n/a	n/a	n/a	n/a
418.5768	0.8167	COLOR_NAME	68	Neutral	zielony	green	Neutral	Neutral	hit	n/a
419.3493	n/a	RESPONSE	n/a	n/a	n/a	n/a	n/a	n/a	n/a	green
419.3934	1.0333	ITI	n/a	n/a	n/a	n/a	n/a	n/a	n/a	n/a
420.4268	0.5333	FIXCROSS	n/a	n/a	n/a	n/a	n/a	n/a	n/a	n/a
420.9601	0.75	COLOR_NAME	69	Incongruent	żółty	yellow	zielony	green	hit	n/a
421.6671	n/a	RESPONSE	n/a	n/a	n/a	n/a	n/a	n/a	n/a	yellow
421.7101	1.0333	ITI	n/a	n/a	n/a	n/a	n/a	n/a	n/a	n/a
422.7435	0.5333	FIXCROSS	n/a	n/a	n/a	n/a	n/a	n/a	n/a	n/a
423.2768	0.8167	COLOR_NAME	70	Incongruent	zielony	green	czerwony	red	hit	n/a
424.0649	n/a	RESPONSE	n/a	n/a	n/a	n/a	n/a	n/a	n/a	green
424.0935	1.0333	ITI	n/a	n/a	n/a	n/a	n/a	n/a	n/a	n/a
425.1268	0.5333	FIXCROSS	n/a	n/a	n/a	n/a	n/a	n/a	n/a	n/a
425.6602	1.4667	COLOR_NAME	71	Incongruent	żółty	yellow	czerwony	red	hit	n/a
427.086	n/a	RESPONSE	n/a	n/a	n/a	n/a	n/a	n/a	n/a	yellow
427.1269	1.0333	ITI	n/a	n/a	n/a	n/a	n/a	n/a	n/a	n/a
428.1602	0.5333	FIXCROSS	n/a	n/a	n/a	n/a	n/a	n/a	n/a	n/a
428.6935	0.55	COLOR_NAME	72	Incongruent	żółty	yellow	zielony	green	hit	n/a
429.2121	n/a	RESPONSE	n/a	n/a	n/a	n/a	n/a	n/a	n/a	yellow
429.2435	1.05	ITI	n/a	n/a	n/a	n/a	n/a	n/a	n/a	n/a
432.3451	n/a	RESPONSE	n/a	n/a	n/a	n/a	n/a	n/a	n/a	n/a
