onset	duration	trial_type	melody_number	melody_part	key	sound	action
0.0	14.083	CUE_START	n/a	n/a	n/a	n/a	n/a
14.084	7.76	FIXCROSS	n/a	n/a	n/a	n/a	n/a
21.843	6.316	CUE_LISTEN	M4	1	n/a	n/a	n/a
28.159	7.758	FIXCROSS	n/a	n/a	n/a	n/a	n/a
35.917	6.325	CUE_PLAYBACK_BOTH_HANDS	M4	1	n/a	n/a	n/a
40.365	n/a	RESPONSE	M4	1	04	E3	press
40.368	n/a	RESPONSE	M4	1	12	C4	press
40.388	n/a	RESPONSE	M4	1	11	B3	press
40.39	n/a	RESPONSE	M4	1	07	G3	press
41.023	n/a	RESPONSE	M4	1	07	G3	release
41.412	n/a	RESPONSE	M4	1	16	E4	press
41.463	n/a	RESPONSE	M4	1	12	C4	release
42.242	7.758	FIXCROSS	n/a	n/a	n/a	n/a	n/a
42.486	n/a	RESPONSE	M4	1	16	E4	release
43.208	n/a	RESPONSE	M4	1	12	C4	press
43.818	n/a	RESPONSE	M4	1	16	E4	press
43.882	n/a	RESPONSE	M4	1	12	C4	release
44.793	n/a	RESPONSE	M4	1	19	G4	press
45.035	n/a	RESPONSE	M4	1	16	E4	release
45.37	n/a	RESPONSE	M4	1	17	F4	press
45.48	n/a	RESPONSE	M4	1	19	G4	release
45.935	n/a	RESPONSE	M4	1	11	B3	release
45.965	n/a	RESPONSE	M4	1	16	E4	press
46.095	n/a	RESPONSE	M4	1	17	F4	release
46.682	n/a	RESPONSE	M4	1	14	D4	press
46.83	n/a	RESPONSE	M4	1	14	D4	release
46.938	n/a	RESPONSE	M4	1	16	E4	release
47.119	n/a	RESPONSE	M4	1	16	E4	press
47.832	n/a	RESPONSE	M4	1	17	F4	press
48.06	n/a	RESPONSE	M4	1	16	E4	release
48.515	n/a	RESPONSE	M4	1	19	G4	press
48.578	n/a	RESPONSE	M4	1	17	F4	release
49.3	n/a	RESPONSE	M4	1	19	G4	release
49.499	n/a	RESPONSE	M4	1	04	E3	release
50.001	6.317	CUE_LISTEN	M4	2	n/a	n/a	n/a
56.317	7.758	FIXCROSS	n/a	n/a	n/a	n/a	n/a
64.076	6.317	CUE_PLAYBACK_BOTH_HANDS	M4	2	n/a	n/a	n/a
64.635	n/a	RESPONSE	M4	2	12	C4	press
64.655	n/a	RESPONSE	M4	2	05	F3	press
64.669	n/a	RESPONSE	M4	2	09	A3	press
65.556	n/a	RESPONSE	M4	2	16	E4	press
65.652	n/a	RESPONSE	M4	2	16	E4	release
66.184	n/a	RESPONSE	M4	2	17	F4	press
66.908	n/a	RESPONSE	M4	2	21	A4	press
67.0	n/a	RESPONSE	M4	2	17	F4	release
67.72	n/a	RESPONSE	M4	2	24	C5	press
67.822	n/a	RESPONSE	M4	2	21	A4	release
67.925	n/a	RESPONSE	M4	2	09	A3	release
67.942	n/a	RESPONSE	M4	2	05	F3	release
68.59	n/a	RESPONSE	M4	2	04	E3	press
68.593	n/a	RESPONSE	M4	2	07	G3	press
68.603	n/a	RESPONSE	M4	2	22	A#4	press
68.704	n/a	RESPONSE	M4	2	24	C5	release
69.365	n/a	RESPONSE	M4	2	19	G4	press
69.368	n/a	RESPONSE	M4	2	21	A4	press
69.488	n/a	RESPONSE	M4	2	22	A#4	release
69.749	n/a	RESPONSE	M4	2	19	G4	release
70.123	n/a	RESPONSE	M4	2	19	G4	press
70.222	n/a	RESPONSE	M4	2	21	A4	release
70.392	7.758	FIXCROSS	n/a	n/a	n/a	n/a	n/a
70.973	n/a	RESPONSE	M4	2	19	G4	release
71.134	n/a	RESPONSE	M4	2	12	C4	release
71.165	n/a	RESPONSE	M4	2	07	G3	release
71.456	n/a	RESPONSE	M4	2	04	E3	release
71.55	n/a	RESPONSE	M4	2	12	C4	press
71.559	n/a	RESPONSE	M4	2	04	E3	press
71.562	n/a	RESPONSE	M4	2	07	G3	press
73.173	n/a	RESPONSE	M4	2	17	F4	press
74.034	n/a	RESPONSE	M4	2	21	A4	press
74.118	n/a	RESPONSE	M4	2	17	F4	release
75.629	n/a	RESPONSE	M4	2	22	A#4	press
75.714	n/a	RESPONSE	M4	2	21	A4	release
76.323	n/a	RESPONSE	M4	2	07	G3	release
76.383	n/a	RESPONSE	M4	2	04	E3	release
76.879	n/a	RESPONSE	M4	2	05	F3	press
76.902	n/a	RESPONSE	M4	2	21	A4	press
76.904	n/a	RESPONSE	M4	2	22	A#4	release
76.919	n/a	RESPONSE	M4	2	09	A3	press
77.669	n/a	RESPONSE	M4	2	19	G4	press
77.786	n/a	RESPONSE	M4	2	21	A4	release
78.151	6.325	CUE_LISTEN	M1	1	n/a	n/a	n/a
78.389	n/a	RESPONSE	M1	1	17	F4	press
78.53	n/a	RESPONSE	M1	1	19	G4	release
78.982	n/a	RESPONSE	M1	1	05	F3	release
78.984	n/a	RESPONSE	M1	1	09	A3	release
79.024	n/a	RESPONSE	M1	1	17	F4	release
79.168	n/a	RESPONSE	M1	1	12	C4	release
84.476	7.758	FIXCROSS	n/a	n/a	n/a	n/a	n/a
92.234	6.317	CUE_PLAYBACK_RIGHT_HAND	M1	1	n/a	n/a	n/a
93.546	n/a	RESPONSE	M1	1	19	G4	press
94.125	n/a	RESPONSE	M1	1	16	E4	press
94.206	n/a	RESPONSE	M1	1	19	G4	release
94.538	n/a	RESPONSE	M1	1	16	E4	release
94.722	n/a	RESPONSE	M1	1	16	E4	press
95.37	n/a	RESPONSE	M1	1	17	F4	press
95.413	n/a	RESPONSE	M1	1	16	E4	release
96.019	n/a	RESPONSE	M1	1	14	D4	press
96.065	n/a	RESPONSE	M1	1	17	F4	release
96.458	n/a	RESPONSE	M1	1	14	D4	release
96.649	n/a	RESPONSE	M1	1	14	D4	press
97.302	n/a	RESPONSE	M1	1	12	C4	press
97.383	n/a	RESPONSE	M1	1	14	D4	release
97.639	n/a	RESPONSE	M1	1	16	E4	press
97.743	n/a	RESPONSE	M1	1	12	C4	release
98.023	n/a	RESPONSE	M1	1	19	G4	press
98.09	n/a	RESPONSE	M1	1	16	E4	release
98.551	7.758	FIXCROSS	n/a	n/a	n/a	n/a	n/a
98.937	n/a	RESPONSE	M1	1	19	G4	release
106.309	6.325	CUE_LISTEN	M1	2	n/a	n/a	n/a
112.634	7.758	FIXCROSS	n/a	n/a	n/a	n/a	n/a
120.392	6.317	CUE_PLAYBACK_RIGHT_HAND	M1	2	n/a	n/a	n/a
121.188	n/a	RESPONSE	M1	2	19	G4	press
121.758	n/a	RESPONSE	M1	2	16	E4	press
121.899	n/a	RESPONSE	M1	2	19	G4	release
122.14	n/a	RESPONSE	M1	2	16	E4	release
122.313	n/a	RESPONSE	M1	2	16	E4	press
122.904	n/a	RESPONSE	M1	2	17	F4	press
122.955	n/a	RESPONSE	M1	2	16	E4	release
123.489	n/a	RESPONSE	M1	2	14	D4	press
123.558	n/a	RESPONSE	M1	2	17	F4	release
123.819	n/a	RESPONSE	M1	2	14	D4	release
124.05	n/a	RESPONSE	M1	2	14	D4	press
124.683	n/a	RESPONSE	M1	2	12	C4	press
124.746	n/a	RESPONSE	M1	2	14	D4	release
124.955	n/a	RESPONSE	M1	2	16	E4	press
125.043	n/a	RESPONSE	M1	2	12	C4	release
125.243	n/a	RESPONSE	M1	2	12	C4	press
125.31	n/a	RESPONSE	M1	2	16	E4	release
126.117	n/a	RESPONSE	M1	2	12	C4	release
126.709	7.758	FIXCROSS	n/a	n/a	n/a	n/a	n/a
134.468	6.317	CUE_LISTEN	M5	1	n/a	n/a	n/a
140.784	7.758	FIXCROSS	n/a	n/a	n/a	n/a	n/a
148.542	6.325	CUE_PLAYBACK_BOTH_HANDS	M5	1	n/a	n/a	n/a
148.989	n/a	RESPONSE	M5	1	07	G3	press
149.0	n/a	RESPONSE	M5	1	19	G4	press
149.443	n/a	RESPONSE	M5	1	19	G4	release
149.673	n/a	RESPONSE	M5	1	19	G4	press
149.675	n/a	RESPONSE	M5	1	11	B3	press
150.265	n/a	RESPONSE	M5	1	19	G4	release
150.388	n/a	RESPONSE	M5	1	05	F3	press
150.4	n/a	RESPONSE	M5	1	19	G4	press
150.439	n/a	RESPONSE	M5	1	11	B3	release
151.04	n/a	RESPONSE	M5	1	11	B3	press
151.222	n/a	RESPONSE	M5	1	19	G4	release
151.283	n/a	RESPONSE	M5	1	05	F3	release
151.344	n/a	RESPONSE	M5	1	07	G3	release
151.375	n/a	RESPONSE	M5	1	11	B3	release
152.778	n/a	RESPONSE	M5	1	23	B4	press
152.78	n/a	RESPONSE	M5	1	07	G3	press
153.29	n/a	RESPONSE	M5	1	23	B4	release
153.472	n/a	RESPONSE	M5	1	11	B3	press
153.483	n/a	RESPONSE	M5	1	23	B4	press
154.115	n/a	RESPONSE	M5	1	23	B4	release
154.175	n/a	RESPONSE	M5	1	11	B3	release
154.357	n/a	RESPONSE	M5	1	21	A4	press
154.42	n/a	RESPONSE	M5	1	07	G3	release
154.79	n/a	RESPONSE	M5	1	21	A4	release
154.868	7.758	FIXCROSS	n/a	n/a	n/a	n/a	n/a
154.94	n/a	RESPONSE	M5	1	21	A4	press
155.118	n/a	RESPONSE	M5	1	21	A4	release
157.033	n/a	RESPONSE	M5	1	07	G3	press
157.044	n/a	RESPONSE	M5	1	21	A4	press
157.422	n/a	RESPONSE	M5	1	21	A4	release
157.703	n/a	RESPONSE	M5	1	11	B3	press
157.715	n/a	RESPONSE	M5	1	21	A4	press
158.13	n/a	RESPONSE	M5	1	21	A4	release
158.492	n/a	RESPONSE	M5	1	11	B3	release
158.914	n/a	RESPONSE	M5	1	07	G3	release
162.626	6.317	CUE_LISTEN	M5	2	n/a	n/a	n/a
168.942	7.758	FIXCROSS	n/a	n/a	n/a	n/a	n/a
176.701	6.317	CUE_PLAYBACK_BOTH_HANDS	M5	2	n/a	n/a	n/a
177.408	n/a	RESPONSE	M5	2	07	G3	press
177.41	n/a	RESPONSE	M5	2	22	A#4	press
177.794	n/a	RESPONSE	M5	2	22	A#4	release
178.047	n/a	RESPONSE	M5	2	10	A#3	press
178.052	n/a	RESPONSE	M5	2	22	A#4	press
178.475	n/a	RESPONSE	M5	2	22	A#4	release
178.717	n/a	RESPONSE	M5	2	10	A#3	release
178.72	n/a	RESPONSE	M5	2	22	A#4	press
178.742	n/a	RESPONSE	M5	2	05	F3	press
178.93	n/a	RESPONSE	M5	2	07	G3	release
178.952	n/a	RESPONSE	M5	2	05	F3	release
179.253	n/a	RESPONSE	M5	2	22	A#4	release
179.424	n/a	RESPONSE	M5	2	10	A#3	press
179.437	n/a	RESPONSE	M5	2	22	A#4	press
179.907	n/a	RESPONSE	M5	2	22	A#4	release
179.988	n/a	RESPONSE	M5	2	10	A#3	release
180.15	n/a	RESPONSE	M5	2	07	G3	press
180.16	n/a	RESPONSE	M5	2	22	A#4	press
181.014	n/a	RESPONSE	M5	2	21	A4	press
181.023	n/a	RESPONSE	M5	2	11	B3	press
181.134	n/a	RESPONSE	M5	2	22	A#4	release
181.605	n/a	RESPONSE	M5	2	21	A4	release
182.508	n/a	RESPONSE	M5	2	02	D3	press
182.51	n/a	RESPONSE	M5	2	21	A4	press
182.6	n/a	RESPONSE	M5	2	11	B3	release
182.982	n/a	RESPONSE	M5	2	21	A4	release
183.018	7.758	FIXCROSS	n/a	n/a	n/a	n/a	n/a
183.353	n/a	RESPONSE	M5	2	21	A4	press
183.364	n/a	RESPONSE	M5	2	19	G4	press
183.366	n/a	RESPONSE	M5	2	11	B3	press
183.386	n/a	RESPONSE	M5	2	07	G3	release
183.4	n/a	RESPONSE	M5	2	02	D3	release
183.419	n/a	RESPONSE	M5	2	19	G4	release
187.743	n/a	RESPONSE	M5	2	11	B3	release
187.797	n/a	RESPONSE	M5	2	21	A4	release
190.776	6.325	CUE_LISTEN	M5	1	n/a	n/a	n/a
197.101	7.758	FIXCROSS	n/a	n/a	n/a	n/a	n/a
199.737	n/a	RESPONSE	M5	1	09	A3	press
200.228	n/a	RESPONSE	M5	1	11	B3	press
200.35	n/a	RESPONSE	M5	1	09	A3	release
200.532	n/a	RESPONSE	M5	1	11	B3	release
200.962	n/a	RESPONSE	M5	1	09	A3	press
201.283	n/a	RESPONSE	M5	1	12	C4	press
201.884	n/a	RESPONSE	M5	1	12	C4	release
202.175	n/a	RESPONSE	M5	1	09	A3	release
204.859	6.325	CUE_PLAYBACK_BOTH_HANDS	M5	1	n/a	n/a	n/a
206.847	n/a	RESPONSE	M5	1	23	B4	press
207.295	n/a	RESPONSE	M5	1	23	B4	release
207.584	n/a	RESPONSE	M5	1	21	A4	press
208.229	n/a	RESPONSE	M5	1	21	A4	release
209.17	n/a	RESPONSE	M5	1	05	F3	press
209.182	n/a	RESPONSE	M5	1	21	A4	press
209.194	n/a	RESPONSE	M5	1	07	G3	press
209.324	n/a	RESPONSE	M5	1	07	G3	release
209.545	n/a	RESPONSE	M5	1	21	A4	release
209.857	n/a	RESPONSE	M5	1	11	B3	press
209.868	n/a	RESPONSE	M5	1	21	A4	press
209.969	n/a	RESPONSE	M5	1	05	F3	release
210.25	n/a	RESPONSE	M5	1	21	A4	release
210.492	n/a	RESPONSE	M5	1	04	E3	press
210.505	n/a	RESPONSE	M5	1	21	A4	press
210.534	n/a	RESPONSE	M5	1	11	B3	release
211.135	n/a	RESPONSE	M5	1	11	B3	press
211.184	7.758	FIXCROSS	n/a	n/a	n/a	n/a	n/a
211.307	n/a	RESPONSE	M5	1	04	E3	release
211.488	n/a	RESPONSE	M5	1	21	A4	release
211.749	n/a	RESPONSE	M5	1	11	B3	release
211.81	n/a	RESPONSE	M5	1	04	E3	press
211.822	n/a	RESPONSE	M5	1	02	D3	press
211.824	n/a	RESPONSE	M5	1	21	A4	press
211.954	n/a	RESPONSE	M5	1	02	D3	release
212.205	n/a	RESPONSE	M5	1	21	A4	release
212.458	n/a	RESPONSE	M5	1	21	A4	press
212.479	n/a	RESPONSE	M5	1	11	B3	press
212.61	n/a	RESPONSE	M5	1	04	E3	release
212.862	n/a	RESPONSE	M5	1	21	A4	release
213.143	n/a	RESPONSE	M5	1	00	C3	press
213.145	n/a	RESPONSE	M5	1	02	D3	press
213.148	n/a	RESPONSE	M5	1	21	A4	press
213.168	n/a	RESPONSE	M5	1	11	B3	release
213.768	n/a	RESPONSE	M5	1	11	B3	press
213.839	n/a	RESPONSE	M5	1	02	D3	release
213.85	n/a	RESPONSE	M5	1	00	C3	release
214.132	n/a	RESPONSE	M5	1	21	A4	release
214.637	n/a	RESPONSE	M5	1	11	B3	release
218.943	6.317	CUE_LISTEN	M5	2	n/a	n/a	n/a
225.259	14.075	FIXCROSS	n/a	n/a	n/a	n/a	n/a
233.018	n/a	CUE_PLAYBACK_BOTH_HANDS	M4	2	n/a	n/a	n/a
233.777	n/a	RESPONSE	M5	2	07	G3	press
233.828	n/a	RESPONSE	M5	2	22	A#4	press
234.159	n/a	RESPONSE	M5	2	22	A#4	release
234.37	n/a	RESPONSE	M5	2	10	A#3	press
234.402	n/a	RESPONSE	M5	2	22	A#4	press
234.483	n/a	RESPONSE	M5	2	07	G3	release
234.758	n/a	RESPONSE	M5	2	22	A#4	release
234.963	n/a	RESPONSE	M5	2	04	E3	press
234.984	n/a	RESPONSE	M5	2	22	A#4	press
235.01	n/a	RESPONSE	M5	2	10	A#3	release
235.392	n/a	RESPONSE	M5	2	22	A#4	release
235.613	n/a	RESPONSE	M5	2	22	A#4	press
235.635	n/a	RESPONSE	M5	2	10	A#3	press
235.732	n/a	RESPONSE	M5	2	04	E3	release
235.96	n/a	RESPONSE	M5	2	22	A#4	release
236.244	n/a	RESPONSE	M5	2	10	A#3	release
236.672	n/a	RESPONSE	M5	2	22	A#4	press
236.674	n/a	RESPONSE	M5	2	05	F3	press
237.377	n/a	RESPONSE	M5	2	09	A3	press
237.383	n/a	RESPONSE	M5	2	21	A4	press
237.522	n/a	RESPONSE	M5	2	22	A#4	release
237.847	n/a	RESPONSE	M5	2	21	A4	release
238.713	n/a	RESPONSE	M5	2	05	F3	release
238.777	n/a	RESPONSE	M5	2	09	A3	release
239.265	n/a	RESPONSE	M5	2	00	C3	press
239.297	n/a	RESPONSE	M5	2	21	A4	press
239.334	7.758	FIXCROSS	n/a	n/a	n/a	n/a	n/a
239.728	n/a	RESPONSE	M5	2	21	A4	release
240.229	n/a	RESPONSE	M5	2	09	A3	press
240.232	n/a	RESPONSE	M5	2	21	A4	press
240.292	n/a	RESPONSE	M5	2	00	C3	release
241.303	n/a	RESPONSE	M5	2	21	A4	release
241.485	n/a	RESPONSE	M5	2	09	A3	release
247.093	6.317	CUE_LISTEN	M2	1	n/a	n/a	n/a
253.409	7.758	FIXCROSS	n/a	n/a	n/a	n/a	n/a
254.824	n/a	RESPONSE	M2	1	24	C5	press
258.135	n/a	RESPONSE	M2	1	24	C5	release
261.168	6.317	CUE_PLAYBACK_RIGHT_HAND	M2	1	n/a	n/a	n/a
261.858	n/a	RESPONSE	M2	1	24	C5	press
262.452	n/a	RESPONSE	M2	1	19	G4	press
262.632	n/a	RESPONSE	M2	1	24	C5	release
262.804	n/a	RESPONSE	M2	1	19	G4	release
263.044	n/a	RESPONSE	M2	1	19	G4	press
263.725	n/a	RESPONSE	M2	1	17	F4	press
263.837	n/a	RESPONSE	M2	1	19	G4	release
264.298	n/a	RESPONSE	M2	1	17	F4	release
265.112	n/a	RESPONSE	M2	1	16	E4	press
265.835	n/a	RESPONSE	M2	1	17	F4	press
265.885	n/a	RESPONSE	M2	1	16	E4	release
266.537	n/a	RESPONSE	M2	1	19	G4	press
266.637	n/a	RESPONSE	M2	1	17	F4	release
267.484	7.758	FIXCROSS	n/a	n/a	n/a	n/a	n/a
268.868	n/a	RESPONSE	M2	1	19	G4	release
275.243	6.325	CUE_LISTEN	M2	2	n/a	n/a	n/a
281.568	7.758	FIXCROSS	n/a	n/a	n/a	n/a	n/a
289.326	6.317	CUE_PLAYBACK_RIGHT_HAND	M2	2	n/a	n/a	n/a
290.082	n/a	RESPONSE	M2	2	24	C5	press
290.712	n/a	RESPONSE	M2	2	19	G4	press
290.803	n/a	RESPONSE	M2	2	24	C5	release
291.104	n/a	RESPONSE	M2	2	19	G4	release
291.295	n/a	RESPONSE	M2	2	19	G4	press
291.939	n/a	RESPONSE	M2	2	17	F4	press
292.098	n/a	RESPONSE	M2	2	19	G4	release
292.83	n/a	RESPONSE	M2	2	16	E4	press
293.002	n/a	RESPONSE	M2	2	17	F4	release
293.503	n/a	RESPONSE	M2	2	14	D4	press
293.604	n/a	RESPONSE	M2	2	16	E4	release
294.145	n/a	RESPONSE	M2	2	12	C4	press
294.207	n/a	RESPONSE	M2	2	14	D4	release
295.1	n/a	RESPONSE	M2	2	12	C4	release
295.643	7.758	FIXCROSS	n/a	n/a	n/a	n/a	n/a
303.401	6.325	CUE_LISTEN	M2	1	n/a	n/a	n/a
309.726	7.758	FIXCROSS	n/a	n/a	n/a	n/a	n/a
317.485	6.317	CUE_PLAYBACK_RIGHT_HAND	M2	1	n/a	n/a	n/a
318.677	n/a	RESPONSE	M2	1	12	C4	press
319.257	n/a	RESPONSE	M2	1	14	D4	press
319.339	n/a	RESPONSE	M2	1	12	C4	release
319.849	n/a	RESPONSE	M2	1	16	E4	press
319.92	n/a	RESPONSE	M2	1	14	D4	release
320.442	n/a	RESPONSE	M2	1	14	D4	press
320.513	n/a	RESPONSE	M2	1	16	E4	release
321.025	n/a	RESPONSE	M2	1	16	E4	press
321.105	n/a	RESPONSE	M2	1	14	D4	release
321.657	n/a	RESPONSE	M2	1	17	F4	press
321.739	n/a	RESPONSE	M2	1	16	E4	release
322.289	n/a	RESPONSE	M2	1	19	G4	press
322.292	n/a	RESPONSE	M2	1	21	A4	press
322.352	n/a	RESPONSE	M2	1	17	F4	release
322.854	n/a	RESPONSE	M2	1	21	A4	release
323.337	n/a	RESPONSE	M2	1	19	G4	release
323.801	7.758	FIXCROSS	n/a	n/a	n/a	n/a	n/a
331.56	6.317	CUE_LISTEN	M2	2	n/a	n/a	n/a
337.876	7.758	FIXCROSS	n/a	n/a	n/a	n/a	n/a
345.635	6.325	CUE_PLAYBACK_RIGHT_HAND	M2	2	n/a	n/a	n/a
346.469	n/a	RESPONSE	M2	2	16	E4	press
347.02	n/a	RESPONSE	M2	2	19	G4	press
347.1	n/a	RESPONSE	M2	2	16	E4	release
347.383	n/a	RESPONSE	M2	2	19	G4	release
347.589	n/a	RESPONSE	M2	2	19	G4	press
348.159	n/a	RESPONSE	M2	2	17	F4	press
348.28	n/a	RESPONSE	M2	2	19	G4	release
348.734	n/a	RESPONSE	M2	2	16	E4	press
348.863	n/a	RESPONSE	M2	2	17	F4	release
349.314	n/a	RESPONSE	M2	2	14	D4	press
349.475	n/a	RESPONSE	M2	2	16	E4	release
349.897	n/a	RESPONSE	M2	2	12	C4	press
350.04	n/a	RESPONSE	M2	2	14	D4	release
351.002	n/a	RESPONSE	M2	2	12	C4	release
351.96	7.758	FIXCROSS	n/a	n/a	n/a	n/a	n/a
359.718	6.317	CUE_LISTEN	M3	1	n/a	n/a	n/a
366.035	7.758	FIXCROSS	n/a	n/a	n/a	n/a	n/a
373.793	6.317	CUE_PLAYBACK_BOTH_HANDS	M3	1	n/a	n/a	n/a
376.307	n/a	RESPONSE	M3	1	00	C3	press
376.363	n/a	RESPONSE	M3	1	12	C4	press
376.973	n/a	RESPONSE	M3	1	07	G3	press
377.008	n/a	RESPONSE	M3	1	14	D4	press
377.058	n/a	RESPONSE	M3	1	00	C3	release
377.102	n/a	RESPONSE	M3	1	12	C4	release
377.67	n/a	RESPONSE	M3	1	16	E4	press
377.673	n/a	RESPONSE	M3	1	02	D3	press
377.762	n/a	RESPONSE	M3	1	14	D4	release
377.764	n/a	RESPONSE	M3	1	07	G3	release
378.344	n/a	RESPONSE	M3	1	07	G3	press
378.373	n/a	RESPONSE	M3	1	12	C4	press
378.474	n/a	RESPONSE	M3	1	16	E4	release
378.518	n/a	RESPONSE	M3	1	02	D3	release
378.817	n/a	RESPONSE	M3	1	12	C4	release
378.819	n/a	RESPONSE	M3	1	07	G3	release
379.009	n/a	RESPONSE	M3	1	00	C3	press
379.04	n/a	RESPONSE	M3	1	12	C4	press
379.712	n/a	RESPONSE	M3	1	07	G3	press
379.743	n/a	RESPONSE	M3	1	14	D4	press
379.794	n/a	RESPONSE	M3	1	00	C3	release
379.835	n/a	RESPONSE	M3	1	12	C4	release
380.11	7.758	FIXCROSS	n/a	n/a	n/a	n/a	n/a
380.387	n/a	RESPONSE	M3	1	02	D3	press
380.408	n/a	RESPONSE	M3	1	16	E4	press
380.479	n/a	RESPONSE	M3	1	14	D4	release
380.49	n/a	RESPONSE	M3	1	07	G3	release
381.082	n/a	RESPONSE	M3	1	07	G3	press
381.115	n/a	RESPONSE	M3	1	12	C4	press
381.154	n/a	RESPONSE	M3	1	02	D3	release
381.185	n/a	RESPONSE	M3	1	16	E4	release
381.697	n/a	RESPONSE	M3	1	12	C4	release
382.038	n/a	RESPONSE	M3	1	07	G3	release
382.662	n/a	RESPONSE	M3	1	04	E3	press
387.868	6.325	CUE_LISTEN	M3	2	n/a	n/a	n/a
394.193	7.758	FIXCROSS	n/a	n/a	n/a	n/a	n/a
397.612	n/a	RESPONSE	M3	2	04	E3	release
401.952	6.317	CUE_PLAYBACK_BOTH_HANDS	M3	2	n/a	n/a	n/a
402.579	n/a	RESPONSE	M3	2	00	C3	press
402.6	n/a	RESPONSE	M3	2	16	E4	press
403.253	n/a	RESPONSE	M3	2	07	G3	press
403.273	n/a	RESPONSE	M3	2	17	F4	press
403.334	n/a	RESPONSE	M3	2	16	E4	release
403.475	n/a	RESPONSE	M3	2	00	C3	release
403.987	n/a	RESPONSE	M3	2	04	E3	press
403.998	n/a	RESPONSE	M3	2	16	E4	press
404.059	n/a	RESPONSE	M3	2	07	G3	release
404.07	n/a	RESPONSE	M3	2	17	F4	release
404.492	n/a	RESPONSE	M3	2	16	E4	release
404.534	n/a	RESPONSE	M3	2	04	E3	release
404.798	n/a	RESPONSE	M3	2	00	C3	press
404.8	n/a	RESPONSE	M3	2	16	E4	press
405.487	n/a	RESPONSE	M3	2	17	F4	press
405.512	n/a	RESPONSE	M3	2	07	G3	press
405.56	n/a	RESPONSE	M3	2	00	C3	release
405.647	n/a	RESPONSE	M3	2	16	E4	release
406.209	n/a	RESPONSE	M3	2	19	G4	press
406.237	n/a	RESPONSE	M3	2	04	E3	press
406.285	n/a	RESPONSE	M3	2	17	F4	release
406.339	n/a	RESPONSE	M3	2	07	G3	release
406.365	n/a	RESPONSE	M3	2	04	E3	release
406.914	n/a	RESPONSE	M3	2	07	G3	press
407.587	n/a	RESPONSE	M3	2	19	G4	release
407.603	n/a	RESPONSE	M3	2	07	G3	release
407.849	n/a	RESPONSE	M3	2	00	C3	press
407.858	n/a	RESPONSE	M3	2	16	E4	press
408.268	7.758	FIXCROSS	n/a	n/a	n/a	n/a	n/a
408.585	n/a	RESPONSE	M3	2	07	G3	press
408.588	n/a	RESPONSE	M3	2	17	F4	press
408.638	n/a	RESPONSE	M3	2	00	C3	release
408.669	n/a	RESPONSE	M3	2	16	E4	release
409.72	n/a	RESPONSE	M3	2	02	D3	press
409.732	n/a	RESPONSE	M3	2	19	G4	press
409.833	n/a	RESPONSE	M3	2	17	F4	release
409.844	n/a	RESPONSE	M3	2	07	G3	release
410.555	n/a	RESPONSE	M3	2	07	G3	press
410.627	n/a	RESPONSE	M3	2	02	D3	release
411.178	n/a	RESPONSE	M3	2	19	G4	release
411.349	n/a	RESPONSE	M3	2	07	G3	release
416.026	6.317	CUE_LISTEN	M3	1	n/a	n/a	n/a
419.658	n/a	RESPONSE	M3	1	14	D4	press
419.958	n/a	RESPONSE	M3	1	14	D4	release
421.399	n/a	RESPONSE	M3	1	14	D4	press
421.61	n/a	RESPONSE	M3	1	14	D4	release
422.343	7.759	FIXCROSS	n/a	n/a	n/a	n/a	n/a
422.933	n/a	RESPONSE	M3	1	16	E4	press
423.014	n/a	RESPONSE	M3	1	16	E4	release
425.03	n/a	RESPONSE	M3	1	19	G4	press
425.416	n/a	RESPONSE	M3	1	21	A4	press
425.474	n/a	RESPONSE	M3	1	19	G4	release
425.683	n/a	RESPONSE	M3	1	21	A4	release
430.102	6.325	CUE_PLAYBACK_BOTH_HANDS	M3	1	n/a	n/a	n/a
430.68	n/a	RESPONSE	M3	1	00	C3	press
430.683	n/a	RESPONSE	M3	1	19	G4	press
431.182	n/a	RESPONSE	M3	1	21	A4	press
431.273	n/a	RESPONSE	M3	1	19	G4	release
431.696	n/a	RESPONSE	M3	1	07	G3	press
431.707	n/a	RESPONSE	M3	1	19	G4	press
431.757	n/a	RESPONSE	M3	1	00	C3	release
431.938	n/a	RESPONSE	M3	1	21	A4	release
432.299	n/a	RESPONSE	M3	1	17	F4	press
432.832	n/a	RESPONSE	M3	1	02	D3	press
432.843	n/a	RESPONSE	M3	1	16	E4	press
432.936	n/a	RESPONSE	M3	1	07	G3	release
432.985	n/a	RESPONSE	M3	1	17	F4	release
433.007	n/a	RESPONSE	M3	1	19	G4	release
433.92	n/a	RESPONSE	M3	1	12	C4	press
433.929	n/a	RESPONSE	M3	1	07	G3	press
433.97	n/a	RESPONSE	M3	1	02	D3	release
434.042	n/a	RESPONSE	M3	1	16	E4	release
434.646	n/a	RESPONSE	M3	1	12	C4	release
434.756	n/a	RESPONSE	M3	1	07	G3	release
434.958	n/a	RESPONSE	M3	1	19	G4	press
434.974	n/a	RESPONSE	M3	1	00	C3	press
435.487	n/a	RESPONSE	M3	1	21	A4	press
435.568	n/a	RESPONSE	M3	1	19	G4	release
436.009	n/a	RESPONSE	M3	1	07	G3	press
436.012	n/a	RESPONSE	M3	1	19	G4	press
436.064	n/a	RESPONSE	M3	1	00	C3	release
436.129	n/a	RESPONSE	M3	1	21	A4	release
436.426	7.758	FIXCROSS	n/a	n/a	n/a	n/a	n/a
436.552	n/a	RESPONSE	M3	1	17	F4	press
436.735	n/a	RESPONSE	M3	1	19	G4	release
437.132	n/a	RESPONSE	M3	1	02	D3	press
437.134	n/a	RESPONSE	M3	1	16	E4	press
437.294	n/a	RESPONSE	M3	1	17	F4	release
437.332	n/a	RESPONSE	M3	1	07	G3	release
438.162	n/a	RESPONSE	M3	1	12	C4	press
438.173	n/a	RESPONSE	M3	1	07	G3	press
438.224	n/a	RESPONSE	M3	1	02	D3	release
438.315	n/a	RESPONSE	M3	1	16	E4	release
439.347	n/a	RESPONSE	M3	1	07	G3	release
439.368	n/a	RESPONSE	M3	1	12	C4	release
444.185	6.317	CUE_LISTEN	M3	2	n/a	n/a	n/a
450.502	7.758	FIXCROSS	n/a	n/a	n/a	n/a	n/a
458.26	6.325	CUE_PLAYBACK_BOTH_HANDS	M3	2	n/a	n/a	n/a
458.743	n/a	RESPONSE	M3	2	07	G3	press
458.777	n/a	RESPONSE	M3	2	12	C4	press
459.376	n/a	RESPONSE	M3	2	12	C4	release
459.397	n/a	RESPONSE	M3	2	07	G3	release
459.458	n/a	RESPONSE	M3	2	07	G3	press
460.13	n/a	RESPONSE	M3	2	12	C4	press
461.02	n/a	RESPONSE	M3	2	07	G3	release
461.033	n/a	RESPONSE	M3	2	12	C4	release
461.423	n/a	RESPONSE	M3	2	07	G3	press
461.454	n/a	RESPONSE	M3	2	12	C4	press
462.036	n/a	RESPONSE	M3	2	07	G3	release
462.219	n/a	RESPONSE	M3	2	07	G3	press
462.33	n/a	RESPONSE	M3	2	12	C4	release
462.75	n/a	RESPONSE	M3	2	07	G3	release
462.884	n/a	RESPONSE	M3	2	12	C4	press
462.903	n/a	RESPONSE	M3	2	07	G3	press
463.824	n/a	RESPONSE	M3	2	12	C4	release
463.936	n/a	RESPONSE	M3	2	07	G3	release
464.585	7.758	FIXCROSS	n/a	n/a	n/a	n/a	n/a
472.343	6.317	CUE_LISTEN	M5	1	n/a	n/a	n/a
478.66	7.758	FIXCROSS	n/a	n/a	n/a	n/a	n/a
479.218	n/a	RESPONSE	M5	1	14	D4	press
479.577	n/a	RESPONSE	M5	1	14	D4	release
486.418	6.317	CUE_PLAYBACK_RIGHT_HAND	M5	1	n/a	n/a	n/a
486.88	n/a	RESPONSE	M5	1	19	G4	press
487.256	n/a	RESPONSE	M5	1	19	G4	release
487.556	n/a	RESPONSE	M5	1	21	A4	press
487.998	n/a	RESPONSE	M5	1	21	A4	release
488.607	n/a	RESPONSE	M5	1	21	A4	press
488.838	n/a	RESPONSE	M5	1	21	A4	release
489.029	n/a	RESPONSE	M5	1	21	A4	press
489.19	n/a	RESPONSE	M5	1	21	A4	release
489.332	n/a	RESPONSE	M5	1	21	A4	press
489.883	n/a	RESPONSE	M5	1	21	A4	release
490.017	n/a	RESPONSE	M5	1	21	A4	press
490.196	n/a	RESPONSE	M5	1	21	A4	release
490.337	n/a	RESPONSE	M5	1	21	A4	press
490.519	n/a	RESPONSE	M5	1	21	A4	release
490.679	n/a	RESPONSE	M5	1	21	A4	press
491.02	n/a	RESPONSE	M5	1	21	A4	release
491.333	n/a	RESPONSE	M5	1	21	A4	press
491.653	n/a	RESPONSE	M5	1	24	C5	press
491.726	n/a	RESPONSE	M5	1	21	A4	release
491.936	n/a	RESPONSE	M5	1	17	F4	press
492.207	n/a	RESPONSE	M5	1	24	C5	release
492.318	n/a	RESPONSE	M5	1	19	G4	press
492.45	n/a	RESPONSE	M5	1	17	F4	release
492.654	n/a	RESPONSE	M5	1	21	A4	press
492.735	7.758	FIXCROSS	n/a	n/a	n/a	n/a	n/a
492.834	n/a	RESPONSE	M5	1	19	G4	release
493.606	n/a	RESPONSE	M5	1	21	A4	release
500.493	6.317	CUE_LISTEN	M5	2	n/a	n/a	n/a
506.81	7.758	FIXCROSS	n/a	n/a	n/a	n/a	n/a
514.568	6.325	CUE_PLAYBACK_RIGHT_HAND	M5	2	n/a	n/a	n/a
515.042	n/a	RESPONSE	M5	2	18	F#4	press
515.24	n/a	RESPONSE	M5	2	18	F#4	release
516.214	n/a	RESPONSE	M5	2	20	G#4	press
516.39	n/a	RESPONSE	M5	2	20	G#4	release
517.638	n/a	RESPONSE	M5	2	22	A#4	press
517.978	n/a	RESPONSE	M5	2	22	A#4	release
518.071	n/a	RESPONSE	M5	2	22	A#4	press
518.301	n/a	RESPONSE	M5	2	22	A#4	release
518.492	n/a	RESPONSE	M5	2	22	A#4	press
518.726	n/a	RESPONSE	M5	2	22	A#4	release
518.964	n/a	RESPONSE	M5	2	22	A#4	press
519.436	n/a	RESPONSE	M5	2	21	A4	press
519.749	n/a	RESPONSE	M5	2	22	A#4	release
519.828	n/a	RESPONSE	M5	2	21	A4	release
519.999	n/a	RESPONSE	M5	2	21	A4	press
520.27	n/a	RESPONSE	M5	2	21	A4	release
520.522	n/a	RESPONSE	M5	2	21	A4	press
520.816	n/a	RESPONSE	M5	2	21	A4	release
520.893	7.758	FIXCROSS	n/a	n/a	n/a	n/a	n/a
521.066	n/a	RESPONSE	M5	2	21	A4	press
521.717	n/a	RESPONSE	M5	2	19	G4	press
521.818	n/a	RESPONSE	M5	2	21	A4	release
522.089	n/a	RESPONSE	M5	2	19	G4	release
522.382	n/a	RESPONSE	M5	2	19	G4	press
523.023	n/a	RESPONSE	M5	2	24	C5	press
523.114	n/a	RESPONSE	M5	2	19	G4	release
524.137	n/a	RESPONSE	M5	2	24	C5	release
527.54	n/a	RESPONSE	M5	2	17	F4	press
527.998	n/a	RESPONSE	M5	2	17	F4	release
528.652	6.317	CUE_LISTEN	M5	1	n/a	n/a	n/a
534.968	7.758	FIXCROSS	n/a	n/a	n/a	n/a	n/a
542.727	6.325	CUE_PLAYBACK_RIGHT_HAND	M5	1	n/a	n/a	n/a
543.31	n/a	RESPONSE	M5	1	21	A4	press
543.532	n/a	RESPONSE	M5	1	21	A4	release
543.626	n/a	RESPONSE	M5	1	21	A4	press
543.794	n/a	RESPONSE	M5	1	21	A4	release
543.926	n/a	RESPONSE	M5	1	21	A4	press
544.349	n/a	RESPONSE	M5	1	21	A4	release
544.559	n/a	RESPONSE	M5	1	21	A4	press
544.756	n/a	RESPONSE	M5	1	21	A4	release
544.906	n/a	RESPONSE	M5	1	21	A4	press
545.078	n/a	RESPONSE	M5	1	21	A4	release
545.246	n/a	RESPONSE	M5	1	21	A4	press
545.648	n/a	RESPONSE	M5	1	21	A4	release
545.887	n/a	RESPONSE	M5	1	21	A4	press
546.216	n/a	RESPONSE	M5	1	24	C5	press
546.313	n/a	RESPONSE	M5	1	21	A4	release
546.58	n/a	RESPONSE	M5	1	17	F4	press
546.816	n/a	RESPONSE	M5	1	24	C5	release
546.953	n/a	RESPONSE	M5	1	19	G4	press
547.044	n/a	RESPONSE	M5	1	17	F4	release
547.298	n/a	RESPONSE	M5	1	21	A4	press
547.369	n/a	RESPONSE	M5	1	19	G4	release
548.186	n/a	RESPONSE	M5	1	21	A4	release
549.052	7.758	FIXCROSS	n/a	n/a	n/a	n/a	n/a
554.162	n/a	RESPONSE	M5	1	22	A#4	press
554.402	n/a	RESPONSE	M5	1	22	A#4	release
556.81	6.317	CUE_LISTEN	M5	2	n/a	n/a	n/a
563.127	7.758	FIXCROSS	n/a	n/a	n/a	n/a	n/a
570.885	6.317	CUE_PLAYBACK_RIGHT_HAND	M5	2	n/a	n/a	n/a
571.3	n/a	RESPONSE	M5	2	22	A#4	press
571.563	n/a	RESPONSE	M5	2	22	A#4	release
571.763	n/a	RESPONSE	M5	2	22	A#4	press
571.997	n/a	RESPONSE	M5	2	22	A#4	release
572.226	n/a	RESPONSE	M5	2	22	A#4	press
572.458	n/a	RESPONSE	M5	2	22	A#4	release
572.76	n/a	RESPONSE	M5	2	22	A#4	press
573.32	n/a	RESPONSE	M5	2	21	A4	press
573.453	n/a	RESPONSE	M5	2	22	A#4	release
573.766	n/a	RESPONSE	M5	2	21	A4	release
574.006	n/a	RESPONSE	M5	2	21	A4	press
574.346	n/a	RESPONSE	M5	2	21	A4	release
574.748	n/a	RESPONSE	M5	2	21	A4	press
576.343	n/a	RESPONSE	M5	2	21	A4	release
577.202	7.758	FIXCROSS	n/a	n/a	n/a	n/a	n/a
577.763	n/a	RESPONSE	M5	2	24	C5	press
578.17	n/a	RESPONSE	M5	2	24	C5	release
578.372	n/a	RESPONSE	M5	2	24	C5	press
582.064	n/a	RESPONSE	M5	2	20	G#4	press
582.396	n/a	RESPONSE	M5	2	24	C5	release
582.618	n/a	RESPONSE	M5	2	20	G#4	release
583.189	n/a	RESPONSE	M5	2	24	C5	press
583.412	n/a	RESPONSE	M5	2	24	C5	release
583.542	n/a	RESPONSE	M5	2	24	C5	press
584.074	n/a	RESPONSE	M5	2	22	A#4	press
584.148	n/a	RESPONSE	M5	2	24	C5	release
584.96	6.325	CUE_LISTEN	M1	1	n/a	n/a	n/a
585.313	n/a	RESPONSE	M1	1	21	A4	press
585.422	n/a	RESPONSE	M1	1	22	A#4	release
586.101	n/a	RESPONSE	M1	1	21	A4	release
589.85	n/a	RESPONSE	M1	1	07	G3	press
590.092	n/a	RESPONSE	M1	1	07	G3	release
591.285	7.758	FIXCROSS	n/a	n/a	n/a	n/a	n/a
599.044	6.317	CUE_PLAYBACK_BOTH_HANDS	M1	1	n/a	n/a	n/a
601.167	n/a	RESPONSE	M1	1	19	G4	press
601.17	n/a	RESPONSE	M1	1	00	C3	press
601.179	n/a	RESPONSE	M1	1	07	G3	press
601.202	n/a	RESPONSE	M1	1	04	E3	press
601.802	n/a	RESPONSE	M1	1	16	E4	press
601.944	n/a	RESPONSE	M1	1	19	G4	release
602.196	n/a	RESPONSE	M1	1	16	E4	release
602.406	n/a	RESPONSE	M1	1	16	E4	press
602.59	n/a	RESPONSE	M1	1	00	C3	release
602.729	n/a	RESPONSE	M1	1	04	E3	release
602.82	n/a	RESPONSE	M1	1	16	E4	release
602.912	n/a	RESPONSE	M1	1	07	G3	release
603.063	n/a	RESPONSE	M1	1	05	F3	press
603.066	n/a	RESPONSE	M1	1	17	F4	press
603.076	n/a	RESPONSE	M1	1	07	G3	press
603.089	n/a	RESPONSE	M1	1	02	D3	press
603.75	n/a	RESPONSE	M1	1	14	D4	press
603.869	n/a	RESPONSE	M1	1	17	F4	release
604.153	n/a	RESPONSE	M1	1	14	D4	release
604.372	n/a	RESPONSE	M1	1	14	D4	press
604.7	n/a	RESPONSE	M1	1	02	D3	release
604.733	n/a	RESPONSE	M1	1	05	F3	release
604.807	n/a	RESPONSE	M1	1	14	D4	release
605.014	n/a	RESPONSE	M1	1	04	E3	press
605.017	n/a	RESPONSE	M1	1	00	C3	press
605.036	n/a	RESPONSE	M1	1	12	C4	press
605.36	7.759	FIXCROSS	n/a	n/a	n/a	n/a	n/a
605.413	n/a	RESPONSE	M1	1	16	E4	press
605.503	n/a	RESPONSE	M1	1	12	C4	release
605.736	n/a	RESPONSE	M1	1	19	G4	press
605.829	n/a	RESPONSE	M1	1	16	E4	release
606.71	n/a	RESPONSE	M1	1	19	G4	release
606.784	n/a	RESPONSE	M1	1	00	C3	release
606.809	n/a	RESPONSE	M1	1	04	E3	release
606.996	n/a	RESPONSE	M1	1	07	G3	release
613.119	6.317	CUE_LISTEN	M1	2	n/a	n/a	n/a
619.435	7.758	FIXCROSS	n/a	n/a	n/a	n/a	n/a
627.194	6.325	CUE_PLAYBACK_BOTH_HANDS	M1	2	n/a	n/a	n/a
628.258	n/a	RESPONSE	M1	2	19	G4	press
628.277	n/a	RESPONSE	M1	2	00	C3	press
628.28	n/a	RESPONSE	M1	2	07	G3	press
628.289	n/a	RESPONSE	M1	2	04	E3	press
628.88	n/a	RESPONSE	M1	2	16	E4	press
628.983	n/a	RESPONSE	M1	2	19	G4	release
629.233	n/a	RESPONSE	M1	2	16	E4	release
629.434	n/a	RESPONSE	M1	2	16	E4	press
629.578	n/a	RESPONSE	M1	2	00	C3	release
629.717	n/a	RESPONSE	M1	2	04	E3	release
629.768	n/a	RESPONSE	M1	2	07	G3	release
629.86	n/a	RESPONSE	M1	2	16	E4	release
630.031	n/a	RESPONSE	M1	2	05	F3	press
630.042	n/a	RESPONSE	M1	2	17	F4	press
630.053	n/a	RESPONSE	M1	2	02	D3	press
630.056	n/a	RESPONSE	M1	2	07	G3	press
630.666	n/a	RESPONSE	M1	2	14	D4	press
630.797	n/a	RESPONSE	M1	2	17	F4	release
631.078	n/a	RESPONSE	M1	2	14	D4	release
631.26	n/a	RESPONSE	M1	2	14	D4	press
631.483	n/a	RESPONSE	M1	2	05	F3	release
631.512	n/a	RESPONSE	M1	2	02	D3	release
631.603	n/a	RESPONSE	M1	2	14	D4	release
631.744	n/a	RESPONSE	M1	2	07	G3	release
631.866	n/a	RESPONSE	M1	2	07	G3	press
631.868	n/a	RESPONSE	M1	2	00	C3	press
631.888	n/a	RESPONSE	M1	2	12	C4	press
631.89	n/a	RESPONSE	M1	2	04	E3	press
632.201	n/a	RESPONSE	M1	2	16	E4	press
632.282	n/a	RESPONSE	M1	2	12	C4	release
632.484	n/a	RESPONSE	M1	2	12	C4	press
632.576	n/a	RESPONSE	M1	2	16	E4	release
633.359	n/a	RESPONSE	M1	2	04	E3	release
633.388	n/a	RESPONSE	M1	2	00	C3	release
633.409	n/a	RESPONSE	M1	2	12	C4	release
633.519	7.758	FIXCROSS	n/a	n/a	n/a	n/a	n/a
633.57	n/a	RESPONSE	M1	2	07	G3	release
641.277	6.317	CUE_LISTEN	M4	1	n/a	n/a	n/a
647.594	7.758	FIXCROSS	n/a	n/a	n/a	n/a	n/a
655.352	6.317	CUE_PLAYBACK_RIGHT_HAND	M4	1	n/a	n/a	n/a
656.517	n/a	RESPONSE	M4	1	12	C4	press
657.117	n/a	RESPONSE	M4	1	16	E4	press
657.212	n/a	RESPONSE	M4	1	12	C4	release
658.219	n/a	RESPONSE	M4	1	19	G4	press
658.321	n/a	RESPONSE	M4	1	16	E4	release
659.452	n/a	RESPONSE	M4	1	21	A4	press
659.523	n/a	RESPONSE	M4	1	19	G4	release
659.994	n/a	RESPONSE	M4	1	21	A4	release
661.036	n/a	RESPONSE	M4	1	12	C4	press
661.669	7.758	FIXCROSS	n/a	n/a	n/a	n/a	n/a
661.747	n/a	RESPONSE	M4	1	17	F4	press
661.788	n/a	RESPONSE	M4	1	12	C4	release
662.412	n/a	RESPONSE	M4	1	19	G4	press
662.502	n/a	RESPONSE	M4	1	17	F4	release
663.134	n/a	RESPONSE	M4	1	17	F4	press
663.314	n/a	RESPONSE	M4	1	19	G4	release
663.797	n/a	RESPONSE	M4	1	16	E4	press
663.887	n/a	RESPONSE	M4	1	17	F4	release
664.398	n/a	RESPONSE	M4	1	17	F4	press
664.628	n/a	RESPONSE	M4	1	16	E4	release
665.029	n/a	RESPONSE	M4	1	19	G4	press
665.107	n/a	RESPONSE	M4	1	17	F4	release
665.828	n/a	RESPONSE	M4	1	19	G4	release
666.658	n/a	RESPONSE	M4	1	12	C4	press
667.323	n/a	RESPONSE	M4	1	17	F4	press
667.426	n/a	RESPONSE	M4	1	12	C4	release
667.971	n/a	RESPONSE	M4	1	17	F4	release
669.427	6.325	CUE_LISTEN	M4	2	n/a	n/a	n/a
675.752	7.758	FIXCROSS	n/a	n/a	n/a	n/a	n/a
683.51	6.317	CUE_PLAYBACK_RIGHT_HAND	M4	2	n/a	n/a	n/a
684.127	n/a	RESPONSE	M4	2	12	C4	press
684.148	n/a	RESPONSE	M4	2	14	D4	press
684.379	n/a	RESPONSE	M4	2	14	D4	release
684.713	n/a	RESPONSE	M4	2	12	C4	release
684.917	n/a	RESPONSE	M4	2	12	C4	press
685.798	n/a	RESPONSE	M4	2	17	F4	press
685.8	n/a	RESPONSE	M4	2	12	C4	release
686.599	n/a	RESPONSE	M4	2	21	A4	press
686.713	n/a	RESPONSE	M4	2	17	F4	release
687.373	n/a	RESPONSE	M4	2	24	C5	press
687.454	n/a	RESPONSE	M4	2	21	A4	release
688.214	n/a	RESPONSE	M4	2	22	A#4	press
688.316	n/a	RESPONSE	M4	2	24	C5	release
689.087	n/a	RESPONSE	M4	2	21	A4	press
689.827	7.758	FIXCROSS	n/a	n/a	n/a	n/a	n/a
689.879	n/a	RESPONSE	M4	2	19	G4	press
689.939	n/a	RESPONSE	M4	2	22	A#4	release
689.983	n/a	RESPONSE	M4	2	21	A4	release
690.622	n/a	RESPONSE	M4	2	19	G4	release
691.473	n/a	RESPONSE	M4	2	12	C4	press
692.254	n/a	RESPONSE	M4	2	16	E4	press
692.337	n/a	RESPONSE	M4	2	12	C4	release
693.028	n/a	RESPONSE	M4	2	19	G4	press
693.139	n/a	RESPONSE	M4	2	16	E4	release
693.781	n/a	RESPONSE	M4	2	22	A#4	press
693.852	n/a	RESPONSE	M4	2	19	G4	release
694.636	n/a	RESPONSE	M4	2	21	A4	press
694.767	n/a	RESPONSE	M4	2	22	A#4	release
695.404	n/a	RESPONSE	M4	2	19	G4	press
695.648	n/a	RESPONSE	M4	2	21	A4	release
696.144	n/a	RESPONSE	M4	2	17	F4	press
696.284	n/a	RESPONSE	M4	2	19	G4	release
697.189	n/a	RESPONSE	M4	2	17	F4	release
697.586	6.317	CUE_LISTEN	M2	1	n/a	n/a	n/a
703.902	7.759	FIXCROSS	n/a	n/a	n/a	n/a	n/a
711.661	6.325	CUE_PLAYBACK_BOTH_HANDS	M2	1	n/a	n/a	n/a
714.014	n/a	RESPONSE	M2	1	04	E3	press
714.023	n/a	RESPONSE	M2	1	24	C5	press
714.074	n/a	RESPONSE	M2	1	12	C4	press
714.664	n/a	RESPONSE	M2	1	21	A4	press
715.154	n/a	RESPONSE	M2	1	21	A4	release
715.178	n/a	RESPONSE	M2	1	24	C5	release
715.258	n/a	RESPONSE	M2	1	04	E3	release
715.368	n/a	RESPONSE	M2	1	12	C4	release
716.029	n/a	RESPONSE	M2	1	24	C5	press
716.051	n/a	RESPONSE	M2	1	04	E3	press
716.057	n/a	RESPONSE	M2	1	12	C4	press
716.886	n/a	RESPONSE	M2	1	17	F4	press
717.407	n/a	RESPONSE	M2	1	17	F4	release
717.689	n/a	RESPONSE	M2	1	04	E3	release
717.706	n/a	RESPONSE	M2	1	19	G4	press
717.804	n/a	RESPONSE	M2	1	12	C4	release
717.826	n/a	RESPONSE	M2	1	19	G4	release
717.828	n/a	RESPONSE	M2	1	24	C5	release
717.986	7.758	FIXCROSS	n/a	n/a	n/a	n/a	n/a
717.997	n/a	RESPONSE	M2	1	24	C5	press
718.008	n/a	RESPONSE	M2	1	04	E3	press
718.026	n/a	RESPONSE	M2	1	12	C4	press
718.669	n/a	RESPONSE	M2	1	19	G4	press
718.821	n/a	RESPONSE	M2	1	24	C5	release
719.102	n/a	RESPONSE	M2	1	04	E3	release
719.104	n/a	RESPONSE	M2	1	19	G4	release
719.127	n/a	RESPONSE	M2	1	12	C4	release
719.306	n/a	RESPONSE	M2	1	04	E3	press
719.327	n/a	RESPONSE	M2	1	19	G4	press
719.329	n/a	RESPONSE	M2	1	12	C4	press
719.971	n/a	RESPONSE	M2	1	17	F4	press
720.081	n/a	RESPONSE	M2	1	19	G4	release
720.403	n/a	RESPONSE	M2	1	04	E3	release
720.433	n/a	RESPONSE	M2	1	12	C4	release
720.444	n/a	RESPONSE	M2	1	17	F4	release
721.366	n/a	RESPONSE	M2	1	04	E3	press
721.377	n/a	RESPONSE	M2	1	16	E4	press
721.379	n/a	RESPONSE	M2	1	12	C4	press
722.092	n/a	RESPONSE	M2	1	17	F4	press
722.261	n/a	RESPONSE	M2	1	16	E4	release
722.533	n/a	RESPONSE	M2	1	04	E3	release
722.556	n/a	RESPONSE	M2	1	12	C4	release
722.616	n/a	RESPONSE	M2	1	17	F4	release
722.737	n/a	RESPONSE	M2	1	04	E3	press
722.748	n/a	RESPONSE	M2	1	12	C4	press
722.751	n/a	RESPONSE	M2	1	17	F4	press
722.753	n/a	RESPONSE	M2	1	19	G4	press
723.052	n/a	RESPONSE	M2	1	17	F4	release
723.693	n/a	RESPONSE	M2	1	04	E3	release
723.834	n/a	RESPONSE	M2	1	12	C4	release
724.078	n/a	RESPONSE	M2	1	19	G4	release
725.744	6.317	CUE_LISTEN	M2	2	n/a	n/a	n/a
732.06	7.758	FIXCROSS	n/a	n/a	n/a	n/a	n/a
733.749	n/a	RESPONSE	M2	2	04	E3	press
733.778	n/a	RESPONSE	M2	2	12	C4	press
734.451	n/a	RESPONSE	M2	2	04	E3	release
734.491	n/a	RESPONSE	M2	2	12	C4	release
739.476	n/a	RESPONSE	M2	2	24	C5	press
739.607	n/a	RESPONSE	M2	2	24	C5	release
739.819	6.317	CUE_PLAYBACK_BOTH_HANDS	M2	2	n/a	n/a	n/a
740.277	n/a	RESPONSE	M2	2	04	E3	press
740.287	n/a	RESPONSE	M2	2	24	C5	press
740.289	n/a	RESPONSE	M2	2	12	C4	press
740.931	n/a	RESPONSE	M2	2	19	G4	press
741.192	n/a	RESPONSE	M2	2	24	C5	release
741.362	n/a	RESPONSE	M2	2	04	E3	release
741.366	n/a	RESPONSE	M2	2	12	C4	release
741.374	n/a	RESPONSE	M2	2	19	G4	release
741.576	n/a	RESPONSE	M2	2	04	E3	press
741.587	n/a	RESPONSE	M2	2	12	C4	press
741.591	n/a	RESPONSE	M2	2	19	G4	press
742.329	n/a	RESPONSE	M2	2	17	F4	press
742.472	n/a	RESPONSE	M2	2	19	G4	release
742.844	n/a	RESPONSE	M2	2	12	C4	release
742.847	n/a	RESPONSE	M2	2	04	E3	release
742.868	n/a	RESPONSE	M2	2	17	F4	release
743.047	n/a	RESPONSE	M2	2	16	E4	press
743.049	n/a	RESPONSE	M2	2	04	E3	press
743.059	n/a	RESPONSE	M2	2	12	C4	press
743.761	n/a	RESPONSE	M2	2	14	D4	press
743.902	n/a	RESPONSE	M2	2	16	E4	release
744.293	n/a	RESPONSE	M2	2	14	D4	release
744.304	n/a	RESPONSE	M2	2	12	C4	release
744.336	n/a	RESPONSE	M2	2	04	E3	release
744.566	n/a	RESPONSE	M2	2	12	C4	press
744.572	n/a	RESPONSE	M2	2	04	E3	press
746.117	n/a	RESPONSE	M2	2	04	E3	release
746.136	7.758	FIXCROSS	n/a	n/a	n/a	n/a	n/a
746.218	n/a	RESPONSE	M2	2	12	C4	release
753.894	6.325	CUE_LISTEN	M2	1	n/a	n/a	n/a
760.219	7.759	FIXCROSS	n/a	n/a	n/a	n/a	n/a
767.977	6.317	CUE_PLAYBACK_BOTH_HANDS	M2	1	n/a	n/a	n/a
768.966	n/a	RESPONSE	M2	1	04	E3	press
768.969	n/a	RESPONSE	M2	1	12	C4	press
769.658	n/a	RESPONSE	M2	1	14	D4	press
770.109	n/a	RESPONSE	M2	1	12	C4	release
770.153	n/a	RESPONSE	M2	1	04	E3	release
770.172	n/a	RESPONSE	M2	1	14	D4	release
770.363	n/a	RESPONSE	M2	1	04	E3	press
770.374	n/a	RESPONSE	M2	1	12	C4	press
770.396	n/a	RESPONSE	M2	1	16	E4	press
771.087	n/a	RESPONSE	M2	1	14	D4	press
771.138	n/a	RESPONSE	M2	1	16	E4	release
771.419	n/a	RESPONSE	M2	1	04	E3	release
771.441	n/a	RESPONSE	M2	1	14	D4	release
771.443	n/a	RESPONSE	M2	1	12	C4	release
771.743	n/a	RESPONSE	M2	1	04	E3	press
771.754	n/a	RESPONSE	M2	1	12	C4	press
771.766	n/a	RESPONSE	M2	1	16	E4	press
772.461	n/a	RESPONSE	M2	1	17	F4	press
772.529	n/a	RESPONSE	M2	1	16	E4	release
772.951	n/a	RESPONSE	M2	1	04	E3	release
772.973	n/a	RESPONSE	M2	1	12	C4	release
773.043	n/a	RESPONSE	M2	1	17	F4	release
773.174	n/a	RESPONSE	M2	1	19	G4	press
773.186	n/a	RESPONSE	M2	1	04	E3	press
773.207	n/a	RESPONSE	M2	1	12	C4	press
774.159	n/a	RESPONSE	M2	1	19	G4	release
774.191	n/a	RESPONSE	M2	1	04	E3	release
774.294	7.758	FIXCROSS	n/a	n/a	n/a	n/a	n/a
774.411	n/a	RESPONSE	M2	1	12	C4	release
782.052	6.325	CUE_LISTEN	M2	2	n/a	n/a	n/a
788.377	7.759	FIXCROSS	n/a	n/a	n/a	n/a	n/a
796.136	6.317	CUE_PLAYBACK_BOTH_HANDS	M2	2	n/a	n/a	n/a
797.269	n/a	RESPONSE	M2	2	04	E3	press
797.279	n/a	RESPONSE	M2	2	16	E4	press
797.294	n/a	RESPONSE	M2	2	12	C4	press
797.914	n/a	RESPONSE	M2	2	19	G4	press
798.049	n/a	RESPONSE	M2	2	16	E4	release
798.351	n/a	RESPONSE	M2	2	19	G4	release
798.372	n/a	RESPONSE	M2	2	04	E3	release
798.374	n/a	RESPONSE	M2	2	12	C4	release
798.597	n/a	RESPONSE	M2	2	04	E3	press
798.607	n/a	RESPONSE	M2	2	19	G4	press
798.609	n/a	RESPONSE	M2	2	12	C4	press
799.248	n/a	RESPONSE	M2	2	17	F4	press
799.419	n/a	RESPONSE	M2	2	19	G4	release
799.641	n/a	RESPONSE	M2	2	17	F4	release
799.662	n/a	RESPONSE	M2	2	12	C4	release
799.683	n/a	RESPONSE	M2	2	04	E3	release
799.904	n/a	RESPONSE	M2	2	04	E3	press
799.926	n/a	RESPONSE	M2	2	12	C4	press
799.937	n/a	RESPONSE	M2	2	16	E4	press
800.588	n/a	RESPONSE	M2	2	14	D4	press
800.729	n/a	RESPONSE	M2	2	16	E4	release
800.991	n/a	RESPONSE	M2	2	04	E3	release
800.993	n/a	RESPONSE	M2	2	14	D4	release
800.996	n/a	RESPONSE	M2	2	12	C4	release
801.284	n/a	RESPONSE	M2	2	04	E3	press
801.296	n/a	RESPONSE	M2	2	12	C4	press
802.387	n/a	RESPONSE	M2	2	12	C4	release
802.389	n/a	RESPONSE	M2	2	04	E3	release
802.452	7.758	FIXCROSS	n/a	n/a	n/a	n/a	n/a
810.211	6.317	CUE_LISTEN	M3	1	n/a	n/a	n/a
816.527	7.759	FIXCROSS	n/a	n/a	n/a	n/a	n/a
824.286	6.325	CUE_PLAYBACK_RIGHT_HAND	M3	1	n/a	n/a	n/a
824.829	n/a	RESPONSE	M3	1	12	C4	press
825.391	n/a	RESPONSE	M3	1	14	D4	press
825.488	n/a	RESPONSE	M3	1	12	C4	release
826.019	n/a	RESPONSE	M3	1	16	E4	press
826.114	n/a	RESPONSE	M3	1	14	D4	release
826.593	n/a	RESPONSE	M3	1	12	C4	press
826.663	n/a	RESPONSE	M3	1	16	E4	release
826.937	n/a	RESPONSE	M3	1	12	C4	release
827.178	n/a	RESPONSE	M3	1	12	C4	press
827.782	n/a	RESPONSE	M3	1	14	D4	press
827.874	n/a	RESPONSE	M3	1	12	C4	release
828.344	n/a	RESPONSE	M3	1	16	E4	press
828.417	n/a	RESPONSE	M3	1	14	D4	release
828.946	n/a	RESPONSE	M3	1	12	C4	press
828.997	n/a	RESPONSE	M3	1	16	E4	release
829.488	n/a	RESPONSE	M3	1	12	C4	release
830.611	7.758	FIXCROSS	n/a	n/a	n/a	n/a	n/a
838.369	6.317	CUE_LISTEN	M3	2	n/a	n/a	n/a
844.686	7.758	FIXCROSS	n/a	n/a	n/a	n/a	n/a
852.444	6.317	CUE_PLAYBACK_RIGHT_HAND	M3	2	n/a	n/a	n/a
853.083	n/a	RESPONSE	M3	2	16	E4	press
853.644	n/a	RESPONSE	M3	2	17	F4	press
853.806	n/a	RESPONSE	M3	2	16	E4	release
854.229	n/a	RESPONSE	M3	2	19	G4	press
854.318	n/a	RESPONSE	M3	2	17	F4	release
854.957	n/a	RESPONSE	M3	2	19	G4	release
855.302	n/a	RESPONSE	M3	2	16	E4	press
855.861	n/a	RESPONSE	M3	2	17	F4	press
855.916	n/a	RESPONSE	M3	2	16	E4	release
856.437	n/a	RESPONSE	M3	2	19	G4	press
856.516	n/a	RESPONSE	M3	2	17	F4	release
857.152	n/a	RESPONSE	M3	2	19	G4	release
858.761	7.759	FIXCROSS	n/a	n/a	n/a	n/a	n/a
860.132	n/a	RESPONSE	M3	2	19	G4	press
860.634	n/a	RESPONSE	M3	2	21	A4	press
860.743	n/a	RESPONSE	M3	2	19	G4	release
861.004	n/a	RESPONSE	M3	2	21	A4	release
866.519	6.325	CUE_LISTEN	M3	1	n/a	n/a	n/a
872.844	7.758	FIXCROSS	n/a	n/a	n/a	n/a	n/a
880.603	6.317	CUE_PLAYBACK_RIGHT_HAND	M3	1	n/a	n/a	n/a
881.042	n/a	RESPONSE	M3	1	19	G4	press
881.533	n/a	RESPONSE	M3	1	21	A4	press
881.614	n/a	RESPONSE	M3	1	19	G4	release
882.016	n/a	RESPONSE	M3	1	19	G4	press
882.107	n/a	RESPONSE	M3	1	21	A4	release
882.519	n/a	RESPONSE	M3	1	17	F4	press
882.731	n/a	RESPONSE	M3	1	19	G4	release
883.002	n/a	RESPONSE	M3	1	16	E4	press
883.124	n/a	RESPONSE	M3	1	17	F4	release
883.894	n/a	RESPONSE	M3	1	16	E4	release
883.906	n/a	RESPONSE	M3	1	12	C4	press
884.821	n/a	RESPONSE	M3	1	19	G4	press
884.848	n/a	RESPONSE	M3	1	12	C4	release
885.299	n/a	RESPONSE	M3	1	21	A4	press
885.391	n/a	RESPONSE	M3	1	19	G4	release
885.779	n/a	RESPONSE	M3	1	19	G4	press
885.909	n/a	RESPONSE	M3	1	21	A4	release
886.242	n/a	RESPONSE	M3	1	17	F4	press
886.338	n/a	RESPONSE	M3	1	19	G4	release
886.739	n/a	RESPONSE	M3	1	16	E4	press
886.897	n/a	RESPONSE	M3	1	17	F4	release
886.919	7.758	FIXCROSS	n/a	n/a	n/a	n/a	n/a
887.706	n/a	RESPONSE	M3	1	12	C4	press
887.719	n/a	RESPONSE	M3	1	16	E4	release
888.833	n/a	RESPONSE	M3	1	12	C4	release
894.678	6.317	CUE_LISTEN	M3	2	n/a	n/a	n/a
900.994	7.758	FIXCROSS	n/a	n/a	n/a	n/a	n/a
908.753	198.518	CUE_PLAYBACK_RIGHT_HAND	M3	2	n/a	n/a	n/a
909.196	n/a	RESPONSE	M3	2	12	C4	press
909.786	n/a	RESPONSE	M3	2	09	A3	press
909.857	n/a	RESPONSE	M3	2	12	C4	release
910.609	n/a	RESPONSE	M3	2	09	A3	release
911.681	n/a	RESPONSE	M3	2	12	C4	press
912.452	n/a	RESPONSE	M3	2	12	C4	release
912.774	n/a	RESPONSE	M3	2	12	C4	press
913.249	n/a	FIXCROSS	n/a	n/a	n/a	n/a	n/a
913.436	n/a	RESPONSE	M3	2	12	C4	release
913.967	n/a	RESPONSE	M3	2	12	C4	press
914.048	n/a	RESPONSE	M3	2	07	G3	release
915.021	n/a	RESPONSE	M3	2	12	C4	release
