onset	duration	trial_type	trial_number	stroop_condition	stim_text(PL)	stim_text(eng)	stim_color(PL)	stim_color(eng)	response_type	response_color
0.0	n/a	RESPONSE	n/a	n/a	n/a	n/a	n/a	n/a	n/a	n/a
0.0647	1.0333	ITI	n/a	n/a	n/a	n/a	n/a	n/a	n/a	n/a
1.0981	0.5167	FIXCROSS	n/a	n/a	n/a	n/a	n/a	n/a	n/a	n/a
1.6148	1.7	T_INK	1	Neutral	xxxxx	xxxxx	zielony	green	hit	n/a
3.2792	n/a	RESPONSE	n/a	n/a	n/a	n/a	n/a	n/a	n/a	green
3.3148	0.5167	FEEDBACK	n/a	n/a	n/a	n/a	n/a	n/a	n/a	n/a
3.8315	1.0167	ITI	n/a	n/a	n/a	n/a	n/a	n/a	n/a	n/a
4.8481	0.5167	FIXCROSS	n/a	n/a	n/a	n/a	n/a	n/a	n/a	n/a
5.3648	1.0	T_INK	2	Neutral	xxxxxxxx	xxxxxxxx	niebieski	blue	hit	n/a
6.3346	n/a	RESPONSE	n/a	n/a	n/a	n/a	n/a	n/a	n/a	blue
6.3648	0.5167	FEEDBACK	n/a	n/a	n/a	n/a	n/a	n/a	n/a	n/a
6.8815	1.0167	ITI	n/a	n/a	n/a	n/a	n/a	n/a	n/a	n/a
7.8982	0.5167	FIXCROSS	n/a	n/a	n/a	n/a	n/a	n/a	n/a	n/a
8.4148	0.9167	T_INK	3	Neutral	xxxxx	xxxxx	czerwony	red	hit	n/a
9.2939	n/a	RESPONSE	n/a	n/a	n/a	n/a	n/a	n/a	n/a	red
9.3315	0.5167	FEEDBACK	n/a	n/a	n/a	n/a	n/a	n/a	n/a	n/a
9.8482	1.0167	ITI	n/a	n/a	n/a	n/a	n/a	n/a	n/a	n/a
10.8649	0.5167	FIXCROSS	n/a	n/a	n/a	n/a	n/a	n/a	n/a	n/a
11.3815	0.4333	T_INK	4	Neutral	xxxxxxx	xxxxxxx	żółty	yellow	hit	n/a
11.7894	n/a	RESPONSE	n/a	n/a	n/a	n/a	n/a	n/a	n/a	yellow
11.8149	0.5167	FEEDBACK	n/a	n/a	n/a	n/a	n/a	n/a	n/a	n/a
12.3316	1.0167	ITI	n/a	n/a	n/a	n/a	n/a	n/a	n/a	n/a
13.3482	0.5167	FIXCROSS	n/a	n/a	n/a	n/a	n/a	n/a	n/a	n/a
13.8649	0.9333	T_INK	5	Neutral	xxxxxxx	xxxxxxx	czerwony	red	hit	n/a
14.7648	n/a	RESPONSE	n/a	n/a	n/a	n/a	n/a	n/a	n/a	red
14.7983	0.5167	FEEDBACK	n/a	n/a	n/a	n/a	n/a	n/a	n/a	n/a
15.3149	1.0167	ITI	n/a	n/a	n/a	n/a	n/a	n/a	n/a	n/a
16.3316	0.5167	FIXCROSS	n/a	n/a	n/a	n/a	n/a	n/a	n/a	n/a
16.8483	1.5167	T_INK	6	Incongruent	czerwony	red	niebieski	blue	hit	n/a
18.332	n/a	RESPONSE	n/a	n/a	n/a	n/a	n/a	n/a	n/a	blue
18.365	0.5167	FEEDBACK	n/a	n/a	n/a	n/a	n/a	n/a	n/a	n/a
18.8816	1.0167	ITI	n/a	n/a	n/a	n/a	n/a	n/a	n/a	n/a
19.8983	0.5167	FIXCROSS	n/a	n/a	n/a	n/a	n/a	n/a	n/a	n/a
20.415	0.9833	T_INK	7	Incongruent	zielony	green	żółty	yellow	hit	n/a
21.3713	n/a	RESPONSE	n/a	n/a	n/a	n/a	n/a	n/a	n/a	yellow
21.3983	0.5167	FEEDBACK	n/a	n/a	n/a	n/a	n/a	n/a	n/a	n/a
21.915	1.0167	ITI	n/a	n/a	n/a	n/a	n/a	n/a	n/a	n/a
22.9317	0.5167	FIXCROSS	n/a	n/a	n/a	n/a	n/a	n/a	n/a	n/a
23.4483	1.0	T_INK	8	Neutral	xxxxx	xxxxx	niebieski	blue	hit	n/a
24.4267	n/a	RESPONSE	n/a	n/a	n/a	n/a	n/a	n/a	n/a	blue
24.4484	0.5167	FEEDBACK	n/a	n/a	n/a	n/a	n/a	n/a	n/a	n/a
24.965	1.0167	ITI	n/a	n/a	n/a	n/a	n/a	n/a	n/a	n/a
25.9817	0.5167	FIXCROSS	n/a	n/a	n/a	n/a	n/a	n/a	n/a	n/a
26.4984	1.0	T_INK	9	Neutral	xxxxxxxxx	xxxxxxxxx	żółty	yellow	hit	n/a
27.466	n/a	RESPONSE	n/a	n/a	n/a	n/a	n/a	n/a	n/a	yellow
27.4984	0.5167	FEEDBACK	n/a	n/a	n/a	n/a	n/a	n/a	n/a	n/a
28.0151	1.0167	ITI	n/a	n/a	n/a	n/a	n/a	n/a	n/a	n/a
29.0318	0.5167	FIXCROSS	n/a	n/a	n/a	n/a	n/a	n/a	n/a	n/a
29.5484	0.65	T_INK	10	Neutral	xxxxxxxx	xxxxxxxx	żółty	yellow	hit	n/a
30.1694	n/a	RESPONSE	n/a	n/a	n/a	n/a	n/a	n/a	n/a	yellow
30.1984	0.5167	FEEDBACK	n/a	n/a	n/a	n/a	n/a	n/a	n/a	n/a
30.7151	1.0167	ITI	n/a	n/a	n/a	n/a	n/a	n/a	n/a	n/a
31.7318	0.5167	FIXCROSS	n/a	n/a	n/a	n/a	n/a	n/a	n/a	n/a
32.2485	0.8833	T_INK	11	Incongruent	żółty	yellow	czerwony	red	hit	n/a
33.1128	n/a	RESPONSE	n/a	n/a	n/a	n/a	n/a	n/a	n/a	red
33.1318	0.5167	FEEDBACK	n/a	n/a	n/a	n/a	n/a	n/a	n/a	n/a
33.6485	1.0167	ITI	n/a	n/a	n/a	n/a	n/a	n/a	n/a	n/a
34.6652	0.5167	FIXCROSS	n/a	n/a	n/a	n/a	n/a	n/a	n/a	n/a
35.1818	1.0167	T_INK	12	Incongruent	żółty	yellow	zielony	green	hit	n/a
36.1681	n/a	RESPONSE	n/a	n/a	n/a	n/a	n/a	n/a	n/a	green
36.1985	0.5167	FEEDBACK	n/a	n/a	n/a	n/a	n/a	n/a	n/a	n/a
36.7152	1.0333	ITI	n/a	n/a	n/a	n/a	n/a	n/a	n/a	n/a
40.4072	n/a	RESPONSE	n/a	n/a	n/a	n/a	n/a	n/a	n/a	n/a
40.4652	1.0167	ITI	n/a	n/a	n/a	n/a	n/a	n/a	n/a	n/a
41.4819	0.5167	FIXCROSS	n/a	n/a	n/a	n/a	n/a	n/a	n/a	n/a
41.9986	1.4333	INK	1	Neutral	xxxxxxxxx	xxxxxxxxx	czerwony	red	hit	n/a
43.4146	n/a	RESPONSE	n/a	n/a	n/a	n/a	n/a	n/a	n/a	red
43.4319	1.0167	ITI	n/a	n/a	n/a	n/a	n/a	n/a	n/a	n/a
44.4486	0.5167	FIXCROSS	n/a	n/a	n/a	n/a	n/a	n/a	n/a	n/a
44.9653	1.0	INK	2	Incongruent	żółty	yellow	zielony	green	hit	n/a
45.942	n/a	RESPONSE	n/a	n/a	n/a	n/a	n/a	n/a	n/a	green
45.9653	1.0167	ITI	n/a	n/a	n/a	n/a	n/a	n/a	n/a	n/a
46.982	0.5167	FIXCROSS	n/a	n/a	n/a	n/a	n/a	n/a	n/a	n/a
47.4986	1.0667	INK	3	Neutral	xxxxxxx	xxxxxxx	czerwony	red	hit	n/a
48.5335	n/a	RESPONSE	n/a	n/a	n/a	n/a	n/a	n/a	n/a	red
48.5653	1.0167	ITI	n/a	n/a	n/a	n/a	n/a	n/a	n/a	n/a
49.582	0.5167	FIXCROSS	n/a	n/a	n/a	n/a	n/a	n/a	n/a	n/a
50.0987	0.9167	INK	4	Incongruent	czerwony	red	żółty	yellow	hit	n/a
50.9969	n/a	RESPONSE	n/a	n/a	n/a	n/a	n/a	n/a	n/a	yellow
51.0153	1.0167	ITI	n/a	n/a	n/a	n/a	n/a	n/a	n/a	n/a
52.032	0.5167	FIXCROSS	n/a	n/a	n/a	n/a	n/a	n/a	n/a	n/a
52.5487	1.1333	INK	5	Incongruent	niebieski	blue	zielony	green	hit	n/a
53.6524	n/a	RESPONSE	n/a	n/a	n/a	n/a	n/a	n/a	n/a	green
53.682	1.0167	ITI	n/a	n/a	n/a	n/a	n/a	n/a	n/a	n/a
54.6987	0.5167	FIXCROSS	n/a	n/a	n/a	n/a	n/a	n/a	n/a	n/a
55.2154	0.8167	INK	6	Incongruent	żółty	yellow	zielony	green	hit	n/a
56.0039	n/a	RESPONSE	n/a	n/a	n/a	n/a	n/a	n/a	n/a	green
56.0321	1.0167	ITI	n/a	n/a	n/a	n/a	n/a	n/a	n/a	n/a
57.0487	0.5167	FIXCROSS	n/a	n/a	n/a	n/a	n/a	n/a	n/a	n/a
57.5654	0.4667	INK	7	Incongruent	czerwony	red	zielony	green	hit	n/a
58.0034	n/a	RESPONSE	n/a	n/a	n/a	n/a	n/a	n/a	n/a	green
58.0321	1.0167	ITI	n/a	n/a	n/a	n/a	n/a	n/a	n/a	n/a
59.0488	0.5167	FIXCROSS	n/a	n/a	n/a	n/a	n/a	n/a	n/a	n/a
59.5654	0.4167	INK	8	Neutral	xxxxxxxx	xxxxxxxx	zielony	green	hit	n/a
59.955	n/a	RESPONSE	n/a	n/a	n/a	n/a	n/a	n/a	n/a	green
59.9821	1.0167	ITI	n/a	n/a	n/a	n/a	n/a	n/a	n/a	n/a
60.9988	0.5167	FIXCROSS	n/a	n/a	n/a	n/a	n/a	n/a	n/a	n/a
61.5155	1.0167	INK	9	Incongruent	zielony	green	żółty	yellow	hit	n/a
62.5144	n/a	RESPONSE	n/a	n/a	n/a	n/a	n/a	n/a	n/a	yellow
62.5321	1.0167	ITI	n/a	n/a	n/a	n/a	n/a	n/a	n/a	n/a
63.5488	0.5167	FIXCROSS	n/a	n/a	n/a	n/a	n/a	n/a	n/a	n/a
64.0655	0.8167	INK	10	Neutral	xxxxxxxx	xxxxxxxx	żółty	yellow	hit	n/a
64.8499	n/a	RESPONSE	n/a	n/a	n/a	n/a	n/a	n/a	n/a	yellow
64.8822	1.0167	ITI	n/a	n/a	n/a	n/a	n/a	n/a	n/a	n/a
65.8988	0.5167	FIXCROSS	n/a	n/a	n/a	n/a	n/a	n/a	n/a	n/a
66.4155	0.8667	INK	11	Incongruent	żółty	yellow	czerwony	red	hit	n/a
67.2494	n/a	RESPONSE	n/a	n/a	n/a	n/a	n/a	n/a	n/a	red
67.2822	1.0167	ITI	n/a	n/a	n/a	n/a	n/a	n/a	n/a	n/a
68.2989	0.5167	FIXCROSS	n/a	n/a	n/a	n/a	n/a	n/a	n/a	n/a
68.8155	0.5333	INK	12	Neutral	xxxxxxx	xxxxxxx	czerwony	red	hit	n/a
69.3289	n/a	RESPONSE	n/a	n/a	n/a	n/a	n/a	n/a	n/a	red
69.3489	1.0167	ITI	n/a	n/a	n/a	n/a	n/a	n/a	n/a	n/a
70.3656	0.5167	FIXCROSS	n/a	n/a	n/a	n/a	n/a	n/a	n/a	n/a
70.8822	0.9833	INK	13	Incongruent	niebieski	blue	zielony	green	hit	n/a
71.8404	n/a	RESPONSE	n/a	n/a	n/a	n/a	n/a	n/a	n/a	green
71.8656	1.0167	ITI	n/a	n/a	n/a	n/a	n/a	n/a	n/a	n/a
72.8823	0.5167	FIXCROSS	n/a	n/a	n/a	n/a	n/a	n/a	n/a	n/a
73.3989	0.65	INK	14	Neutral	xxxxxxxxx	xxxxxxxxx	zielony	green	hit	n/a
74.0159	n/a	RESPONSE	n/a	n/a	n/a	n/a	n/a	n/a	n/a	green
74.0489	1.0167	ITI	n/a	n/a	n/a	n/a	n/a	n/a	n/a	n/a
75.0656	0.5167	FIXCROSS	n/a	n/a	n/a	n/a	n/a	n/a	n/a	n/a
75.5823	0.4333	INK	15	Neutral	xxxxxxxxx	xxxxxxxxx	zielony	green	hit	n/a
75.9836	n/a	RESPONSE	n/a	n/a	n/a	n/a	n/a	n/a	n/a	green
76.0156	1.0167	ITI	n/a	n/a	n/a	n/a	n/a	n/a	n/a	n/a
77.0323	0.5167	FIXCROSS	n/a	n/a	n/a	n/a	n/a	n/a	n/a	n/a
77.549	0.8833	INK	16	Incongruent	niebieski	blue	czerwony	red	hit	n/a
78.415	n/a	RESPONSE	n/a	n/a	n/a	n/a	n/a	n/a	n/a	red
78.4323	1.0167	ITI	n/a	n/a	n/a	n/a	n/a	n/a	n/a	n/a
79.449	0.5167	FIXCROSS	n/a	n/a	n/a	n/a	n/a	n/a	n/a	n/a
79.9657	0.8667	INK	17	Neutral	xxxxxxxx	xxxxxxxx	żółty	yellow	hit	n/a
80.7985	n/a	RESPONSE	n/a	n/a	n/a	n/a	n/a	n/a	n/a	yellow
80.8323	1.0167	ITI	n/a	n/a	n/a	n/a	n/a	n/a	n/a	n/a
81.849	0.5167	FIXCROSS	n/a	n/a	n/a	n/a	n/a	n/a	n/a	n/a
82.3657	0.9667	INK	18	Incongruent	niebieski	blue	czerwony	red	hit	n/a
83.3099	n/a	RESPONSE	n/a	n/a	n/a	n/a	n/a	n/a	n/a	red
83.3324	1.0167	ITI	n/a	n/a	n/a	n/a	n/a	n/a	n/a	n/a
84.349	0.5167	FIXCROSS	n/a	n/a	n/a	n/a	n/a	n/a	n/a	n/a
84.8657	1.2334	INK	19	Incongruent	żółty	yellow	niebieski	blue	hit	n/a
86.0773	n/a	RESPONSE	n/a	n/a	n/a	n/a	n/a	n/a	n/a	blue
86.0991	1.0167	ITI	n/a	n/a	n/a	n/a	n/a	n/a	n/a	n/a
87.1158	0.5167	FIXCROSS	n/a	n/a	n/a	n/a	n/a	n/a	n/a	n/a
87.6324	0.8	INK	20	Neutral	xxxxx	xxxxx	czerwony	red	hit	n/a
88.4128	n/a	RESPONSE	n/a	n/a	n/a	n/a	n/a	n/a	n/a	red
88.4324	1.0167	ITI	n/a	n/a	n/a	n/a	n/a	n/a	n/a	n/a
89.4491	0.5167	FIXCROSS	n/a	n/a	n/a	n/a	n/a	n/a	n/a	n/a
89.9658	1.0333	INK	21	Incongruent	niebieski	blue	żółty	yellow	hit	n/a
90.9723	n/a	RESPONSE	n/a	n/a	n/a	n/a	n/a	n/a	n/a	yellow
90.9991	1.0167	ITI	n/a	n/a	n/a	n/a	n/a	n/a	n/a	n/a
92.0158	0.5167	FIXCROSS	n/a	n/a	n/a	n/a	n/a	n/a	n/a	n/a
92.5325	1.0167	INK	22	Neutral	xxxxx	xxxxx	niebieski	blue	hit	n/a
93.5317	n/a	RESPONSE	n/a	n/a	n/a	n/a	n/a	n/a	n/a	blue
93.5492	1.0167	ITI	n/a	n/a	n/a	n/a	n/a	n/a	n/a	n/a
94.5658	0.5167	FIXCROSS	n/a	n/a	n/a	n/a	n/a	n/a	n/a	n/a
95.0825	0.7	INK	23	Incongruent	zielony	green	niebieski	blue	hit	n/a
95.7553	n/a	RESPONSE	n/a	n/a	n/a	n/a	n/a	n/a	n/a	blue
95.7825	1.0167	ITI	n/a	n/a	n/a	n/a	n/a	n/a	n/a	n/a
96.7992	0.5167	FIXCROSS	n/a	n/a	n/a	n/a	n/a	n/a	n/a	n/a
97.3159	0.7	INK	24	Incongruent	zielony	green	czerwony	red	hit	n/a
97.9947	n/a	RESPONSE	n/a	n/a	n/a	n/a	n/a	n/a	n/a	red
98.0159	1.0167	ITI	n/a	n/a	n/a	n/a	n/a	n/a	n/a	n/a
99.0326	0.5167	FIXCROSS	n/a	n/a	n/a	n/a	n/a	n/a	n/a	n/a
99.5492	0.8667	INK	25	Neutral	xxxxxxx	xxxxxxx	żółty	yellow	hit	n/a
100.3942	n/a	RESPONSE	n/a	n/a	n/a	n/a	n/a	n/a	n/a	yellow
100.4159	1.0167	ITI	n/a	n/a	n/a	n/a	n/a	n/a	n/a	n/a
101.4326	0.5167	FIXCROSS	n/a	n/a	n/a	n/a	n/a	n/a	n/a	n/a
101.9493	0.45	INK	26	Neutral	xxxxxxxxx	xxxxxxxxx	żółty	yellow	hit	n/a
102.3778	n/a	RESPONSE	n/a	n/a	n/a	n/a	n/a	n/a	n/a	yellow
102.3993	1.0167	ITI	n/a	n/a	n/a	n/a	n/a	n/a	n/a	n/a
103.4159	0.5167	FIXCROSS	n/a	n/a	n/a	n/a	n/a	n/a	n/a	n/a
103.9326	1.0334	INK	27	Neutral	xxxxx	xxxxx	czerwony	red	hit	n/a
104.9373	n/a	RESPONSE	n/a	n/a	n/a	n/a	n/a	n/a	n/a	red
104.966	1.0167	ITI	n/a	n/a	n/a	n/a	n/a	n/a	n/a	n/a
105.9826	0.5167	FIXCROSS	n/a	n/a	n/a	n/a	n/a	n/a	n/a	n/a
106.4993	0.9	INK	28	Neutral	xxxxxxxxx	xxxxxxxxx	zielony	green	hit	n/a
107.3687	n/a	RESPONSE	n/a	n/a	n/a	n/a	n/a	n/a	n/a	green
107.3993	1.0167	ITI	n/a	n/a	n/a	n/a	n/a	n/a	n/a	n/a
108.416	0.5167	FIXCROSS	n/a	n/a	n/a	n/a	n/a	n/a	n/a	n/a
108.9327	0.45	INK	29	Incongruent	żółty	yellow	zielony	green	hit	n/a
109.3523	n/a	RESPONSE	n/a	n/a	n/a	n/a	n/a	n/a	n/a	green
109.3827	1.0167	ITI	n/a	n/a	n/a	n/a	n/a	n/a	n/a	n/a
110.3994	0.5167	FIXCROSS	n/a	n/a	n/a	n/a	n/a	n/a	n/a	n/a
110.916	0.5	INK	30	Neutral	xxxxxxxx	xxxxxxxx	zielony	green	hit	n/a
111.3839	n/a	RESPONSE	n/a	n/a	n/a	n/a	n/a	n/a	n/a	green
111.416	1.0167	ITI	n/a	n/a	n/a	n/a	n/a	n/a	n/a	n/a
112.4327	0.5167	FIXCROSS	n/a	n/a	n/a	n/a	n/a	n/a	n/a	n/a
112.9494	0.8833	INK	31	Incongruent	żółty	yellow	czerwony	red	hit	n/a
113.7993	n/a	RESPONSE	n/a	n/a	n/a	n/a	n/a	n/a	n/a	red
113.8327	1.0167	ITI	n/a	n/a	n/a	n/a	n/a	n/a	n/a	n/a
114.8494	0.5167	FIXCROSS	n/a	n/a	n/a	n/a	n/a	n/a	n/a	n/a
115.3661	0.5167	INK	32	Neutral	xxxxxxxxx	xxxxxxxxx	czerwony	red	hit	n/a
115.8629	n/a	RESPONSE	n/a	n/a	n/a	n/a	n/a	n/a	n/a	red
115.8828	1.0167	ITI	n/a	n/a	n/a	n/a	n/a	n/a	n/a	n/a
116.8994	0.5167	FIXCROSS	n/a	n/a	n/a	n/a	n/a	n/a	n/a	n/a
117.4161	0.9833	INK	33	Incongruent	zielony	green	niebieski	blue	hit	n/a
118.3743	n/a	RESPONSE	n/a	n/a	n/a	n/a	n/a	n/a	n/a	blue
118.3994	1.0167	ITI	n/a	n/a	n/a	n/a	n/a	n/a	n/a	n/a
119.4161	0.5167	FIXCROSS	n/a	n/a	n/a	n/a	n/a	n/a	n/a	n/a
119.9328	0.4833	INK	34	Incongruent	zielony	green	niebieski	blue	hit	n/a
120.3899	n/a	RESPONSE	n/a	n/a	n/a	n/a	n/a	n/a	n/a	blue
120.4161	1.0167	ITI	n/a	n/a	n/a	n/a	n/a	n/a	n/a	n/a
121.4328	0.5167	FIXCROSS	n/a	n/a	n/a	n/a	n/a	n/a	n/a	n/a
121.9495	0.4167	INK	35	Neutral	xxxxxxxx	xxxxxxxx	niebieski	blue	hit	n/a
122.3415	n/a	RESPONSE	n/a	n/a	n/a	n/a	n/a	n/a	n/a	blue
122.3661	1.0167	ITI	n/a	n/a	n/a	n/a	n/a	n/a	n/a	n/a
123.3828	0.5167	FIXCROSS	n/a	n/a	n/a	n/a	n/a	n/a	n/a	n/a
123.8995	0.8167	INK	36	Incongruent	zielony	green	żółty	yellow	hit	n/a
124.6929	n/a	RESPONSE	n/a	n/a	n/a	n/a	n/a	n/a	n/a	yellow
124.7162	1.0167	ITI	n/a	n/a	n/a	n/a	n/a	n/a	n/a	n/a
125.7329	0.5167	FIXCROSS	n/a	n/a	n/a	n/a	n/a	n/a	n/a	n/a
126.2495	0.5167	INK	37	Incongruent	zielony	green	żółty	yellow	hit	n/a
126.7405	n/a	RESPONSE	n/a	n/a	n/a	n/a	n/a	n/a	n/a	yellow
126.7662	1.0167	ITI	n/a	n/a	n/a	n/a	n/a	n/a	n/a	n/a
127.7829	0.5167	FIXCROSS	n/a	n/a	n/a	n/a	n/a	n/a	n/a	n/a
128.2996	1.0667	INK	38	Neutral	xxxxxxx	xxxxxxx	niebieski	blue	hit	n/a
129.332	n/a	RESPONSE	n/a	n/a	n/a	n/a	n/a	n/a	n/a	blue
129.3662	1.0167	ITI	n/a	n/a	n/a	n/a	n/a	n/a	n/a	n/a
130.3829	0.5167	FIXCROSS	n/a	n/a	n/a	n/a	n/a	n/a	n/a	n/a
130.8996	0.4	INK	39	Incongruent	czerwony	red	niebieski	blue	hit	n/a
131.2675	n/a	RESPONSE	n/a	n/a	n/a	n/a	n/a	n/a	n/a	blue
131.2996	1.0167	ITI	n/a	n/a	n/a	n/a	n/a	n/a	n/a	n/a
132.3163	0.5167	FIXCROSS	n/a	n/a	n/a	n/a	n/a	n/a	n/a	n/a
132.8329	0.75	INK	40	Neutral	xxxxxxxxx	xxxxxxxxx	żółty	yellow	hit	n/a
133.5551	n/a	RESPONSE	n/a	n/a	n/a	n/a	n/a	n/a	n/a	yellow
133.5829	1.0167	ITI	n/a	n/a	n/a	n/a	n/a	n/a	n/a	n/a
134.5996	0.5167	FIXCROSS	n/a	n/a	n/a	n/a	n/a	n/a	n/a	n/a
135.1163	1.0	INK	41	Neutral	xxxxxxxx	xxxxxxxx	zielony	green	hit	n/a
136.0825	n/a	RESPONSE	n/a	n/a	n/a	n/a	n/a	n/a	n/a	green
136.1163	1.0167	ITI	n/a	n/a	n/a	n/a	n/a	n/a	n/a	n/a
137.133	0.5167	FIXCROSS	n/a	n/a	n/a	n/a	n/a	n/a	n/a	n/a
137.6497	0.5667	INK	42	Incongruent	czerwony	red	zielony	green	hit	n/a
138.1941	n/a	RESPONSE	n/a	n/a	n/a	n/a	n/a	n/a	n/a	green
138.2163	1.0167	ITI	n/a	n/a	n/a	n/a	n/a	n/a	n/a	n/a
139.233	0.5167	FIXCROSS	n/a	n/a	n/a	n/a	n/a	n/a	n/a	n/a
139.7497	0.4667	INK	43	Neutral	xxxxx	xxxxx	zielony	green	hit	n/a
140.1936	n/a	RESPONSE	n/a	n/a	n/a	n/a	n/a	n/a	n/a	green
140.2163	1.0167	ITI	n/a	n/a	n/a	n/a	n/a	n/a	n/a	n/a
141.233	0.5167	FIXCROSS	n/a	n/a	n/a	n/a	n/a	n/a	n/a	n/a
141.7497	0.8667	INK	44	Incongruent	niebieski	blue	czerwony	red	hit	n/a
142.5931	n/a	RESPONSE	n/a	n/a	n/a	n/a	n/a	n/a	n/a	red
142.6164	1.0167	ITI	n/a	n/a	n/a	n/a	n/a	n/a	n/a	n/a
143.6331	0.5167	FIXCROSS	n/a	n/a	n/a	n/a	n/a	n/a	n/a	n/a
144.1497	0.3833	INK	45	Neutral	xxxxx	xxxxx	czerwony	red	hit	n/a
144.5127	n/a	RESPONSE	n/a	n/a	n/a	n/a	n/a	n/a	n/a	red
144.5331	1.0167	ITI	n/a	n/a	n/a	n/a	n/a	n/a	n/a	n/a
145.5498	0.5167	FIXCROSS	n/a	n/a	n/a	n/a	n/a	n/a	n/a	n/a
146.0664	0.85	INK	46	Incongruent	czerwony	red	niebieski	blue	hit	n/a
146.8962	n/a	RESPONSE	n/a	n/a	n/a	n/a	n/a	n/a	n/a	blue
146.9164	1.0167	ITI	n/a	n/a	n/a	n/a	n/a	n/a	n/a	n/a
147.9331	0.5167	FIXCROSS	n/a	n/a	n/a	n/a	n/a	n/a	n/a	n/a
148.4498	0.4333	INK	47	Neutral	xxxxxxx	xxxxxxx	niebieski	blue	hit	n/a
148.8637	n/a	RESPONSE	n/a	n/a	n/a	n/a	n/a	n/a	n/a	blue
148.8831	1.0167	ITI	n/a	n/a	n/a	n/a	n/a	n/a	n/a	n/a
149.8998	0.5167	FIXCROSS	n/a	n/a	n/a	n/a	n/a	n/a	n/a	n/a
150.4165	1.2	INK	48	Incongruent	czerwony	red	zielony	green	hit	n/a
151.5831	n/a	RESPONSE	n/a	n/a	n/a	n/a	n/a	n/a	n/a	green
151.6165	1.0167	ITI	n/a	n/a	n/a	n/a	n/a	n/a	n/a	n/a
152.6332	0.5167	FIXCROSS	n/a	n/a	n/a	n/a	n/a	n/a	n/a	n/a
153.1498	0.7	INK	49	Incongruent	zielony	green	czerwony	red	hit	n/a
153.8227	n/a	RESPONSE	n/a	n/a	n/a	n/a	n/a	n/a	n/a	red
153.8498	1.0167	ITI	n/a	n/a	n/a	n/a	n/a	n/a	n/a	n/a
154.8665	0.5167	FIXCROSS	n/a	n/a	n/a	n/a	n/a	n/a	n/a	n/a
155.3832	0.7167	INK	50	Neutral	xxxxxxxxx	xxxxxxxxx	żółty	yellow	hit	n/a
156.0782	n/a	RESPONSE	n/a	n/a	n/a	n/a	n/a	n/a	n/a	yellow
156.0999	1.0167	ITI	n/a	n/a	n/a	n/a	n/a	n/a	n/a	n/a
157.1165	0.5167	FIXCROSS	n/a	n/a	n/a	n/a	n/a	n/a	n/a	n/a
157.6332	0.9	INK	51	Incongruent	żółty	yellow	niebieski	blue	hit	n/a
158.5096	n/a	RESPONSE	n/a	n/a	n/a	n/a	n/a	n/a	n/a	blue
158.5332	1.0167	ITI	n/a	n/a	n/a	n/a	n/a	n/a	n/a	n/a
159.5499	0.5167	FIXCROSS	n/a	n/a	n/a	n/a	n/a	n/a	n/a	n/a
160.0666	0.6833	INK	52	Neutral	xxxxx	xxxxx	zielony	green	incorrect	n/a
160.7172	n/a	RESPONSE	n/a	n/a	n/a	n/a	n/a	n/a	n/a	yellow
160.7499	1.0167	ITI	n/a	n/a	n/a	n/a	n/a	n/a	n/a	n/a
161.7666	0.5167	FIXCROSS	n/a	n/a	n/a	n/a	n/a	n/a	n/a	n/a
162.2833	0.9333	INK	53	Neutral	xxxxxxxx	xxxxxxxx	niebieski	blue	hit	n/a
163.1966	n/a	RESPONSE	n/a	n/a	n/a	n/a	n/a	n/a	n/a	blue
163.2166	1.0167	ITI	n/a	n/a	n/a	n/a	n/a	n/a	n/a	n/a
164.2333	0.5167	FIXCROSS	n/a	n/a	n/a	n/a	n/a	n/a	n/a	n/a
164.75	1.2833	INK	54	Incongruent	czerwony	red	żółty	yellow	hit	n/a
166.012	n/a	RESPONSE	n/a	n/a	n/a	n/a	n/a	n/a	n/a	yellow
166.0333	1.0167	ITI	n/a	n/a	n/a	n/a	n/a	n/a	n/a	n/a
167.05	0.5167	FIXCROSS	n/a	n/a	n/a	n/a	n/a	n/a	n/a	n/a
167.5667	1.4	INK	55	Incongruent	zielony	green	czerwony	red	hit	n/a
168.9394	n/a	RESPONSE	n/a	n/a	n/a	n/a	n/a	n/a	n/a	red
168.9667	1.0167	ITI	n/a	n/a	n/a	n/a	n/a	n/a	n/a	n/a
169.9834	0.5167	FIXCROSS	n/a	n/a	n/a	n/a	n/a	n/a	n/a	n/a
170.5	1.0167	INK	56	Incongruent	niebieski	blue	żółty	yellow	hit	n/a
171.4988	n/a	RESPONSE	n/a	n/a	n/a	n/a	n/a	n/a	n/a	yellow
171.5167	1.0167	ITI	n/a	n/a	n/a	n/a	n/a	n/a	n/a	n/a
172.5334	0.5167	FIXCROSS	n/a	n/a	n/a	n/a	n/a	n/a	n/a	n/a
173.0501	0.7333	INK	57	Incongruent	czerwony	red	żółty	yellow	hit	n/a
173.7543	n/a	RESPONSE	n/a	n/a	n/a	n/a	n/a	n/a	n/a	yellow
173.7834	1.0167	ITI	n/a	n/a	n/a	n/a	n/a	n/a	n/a	n/a
174.8001	0.5167	FIXCROSS	n/a	n/a	n/a	n/a	n/a	n/a	n/a	n/a
175.3168	0.7	INK	58	Neutral	xxxxxxx	xxxxxxx	żółty	yellow	hit	n/a
175.9939	n/a	RESPONSE	n/a	n/a	n/a	n/a	n/a	n/a	n/a	yellow
176.0168	1.0167	ITI	n/a	n/a	n/a	n/a	n/a	n/a	n/a	n/a
177.0334	0.5167	FIXCROSS	n/a	n/a	n/a	n/a	n/a	n/a	n/a	n/a
177.5501	1.1	INK	59	Neutral	xxxxx	xxxxx	niebieski	blue	hit	n/a
178.6173	n/a	RESPONSE	n/a	n/a	n/a	n/a	n/a	n/a	n/a	blue
178.6501	1.0167	ITI	n/a	n/a	n/a	n/a	n/a	n/a	n/a	n/a
179.6668	0.5167	FIXCROSS	n/a	n/a	n/a	n/a	n/a	n/a	n/a	n/a
180.1835	0.8333	INK	60	Neutral	xxxxxxx	xxxxxxx	czerwony	red	hit	n/a
180.9848	n/a	RESPONSE	n/a	n/a	n/a	n/a	n/a	n/a	n/a	red
181.0168	1.0167	ITI	n/a	n/a	n/a	n/a	n/a	n/a	n/a	n/a
182.0335	0.5167	FIXCROSS	n/a	n/a	n/a	n/a	n/a	n/a	n/a	n/a
182.5502	0.95	INK	61	Incongruent	niebieski	blue	żółty	yellow	hit	n/a
183.4802	n/a	RESPONSE	n/a	n/a	n/a	n/a	n/a	n/a	n/a	yellow
183.5002	1.0167	ITI	n/a	n/a	n/a	n/a	n/a	n/a	n/a	n/a
184.5168	0.5167	FIXCROSS	n/a	n/a	n/a	n/a	n/a	n/a	n/a	n/a
185.0335	1.1	INK	62	Incongruent	niebieski	blue	zielony	green	hit	n/a
186.1037	n/a	RESPONSE	n/a	n/a	n/a	n/a	n/a	n/a	n/a	green
186.1335	1.0167	ITI	n/a	n/a	n/a	n/a	n/a	n/a	n/a	n/a
187.1502	0.5167	FIXCROSS	n/a	n/a	n/a	n/a	n/a	n/a	n/a	n/a
187.6669	0.8	INK	63	Neutral	xxxxxxx	xxxxxxx	niebieski	blue	hit	n/a
188.4392	n/a	RESPONSE	n/a	n/a	n/a	n/a	n/a	n/a	n/a	blue
188.4669	1.0167	ITI	n/a	n/a	n/a	n/a	n/a	n/a	n/a	n/a
189.4836	0.5167	FIXCROSS	n/a	n/a	n/a	n/a	n/a	n/a	n/a	n/a
190.0002	0.9667	INK	64	Neutral	xxxxxxx	xxxxxxx	żółty	yellow	hit	n/a
190.9346	n/a	RESPONSE	n/a	n/a	n/a	n/a	n/a	n/a	n/a	yellow
190.9669	1.0167	ITI	n/a	n/a	n/a	n/a	n/a	n/a	n/a	n/a
191.9836	0.5167	FIXCROSS	n/a	n/a	n/a	n/a	n/a	n/a	n/a	n/a
192.5003	0.8667	INK	65	Neutral	xxxxx	xxxxx	zielony	green	hit	n/a
193.3341	n/a	RESPONSE	n/a	n/a	n/a	n/a	n/a	n/a	n/a	green
193.367	1.0167	ITI	n/a	n/a	n/a	n/a	n/a	n/a	n/a	n/a
194.3836	0.5167	FIXCROSS	n/a	n/a	n/a	n/a	n/a	n/a	n/a	n/a
194.9003	0.7333	INK	66	Neutral	xxxxx	xxxxx	niebieski	blue	hit	n/a
195.6057	n/a	RESPONSE	n/a	n/a	n/a	n/a	n/a	n/a	n/a	blue
195.6336	1.0167	ITI	n/a	n/a	n/a	n/a	n/a	n/a	n/a	n/a
196.6503	0.5167	FIXCROSS	n/a	n/a	n/a	n/a	n/a	n/a	n/a	n/a
197.167	0.5833	INK	67	Neutral	xxxxxxxx	xxxxxxxx	niebieski	blue	hit	n/a
197.7171	n/a	RESPONSE	n/a	n/a	n/a	n/a	n/a	n/a	n/a	blue
197.7503	1.0167	ITI	n/a	n/a	n/a	n/a	n/a	n/a	n/a	n/a
198.767	0.5167	FIXCROSS	n/a	n/a	n/a	n/a	n/a	n/a	n/a	n/a
199.2837	0.7	INK	68	Incongruent	czerwony	red	niebieski	blue	hit	n/a
199.9566	n/a	RESPONSE	n/a	n/a	n/a	n/a	n/a	n/a	n/a	blue
199.9837	1.0167	ITI	n/a	n/a	n/a	n/a	n/a	n/a	n/a	n/a
201.0004	0.5167	FIXCROSS	n/a	n/a	n/a	n/a	n/a	n/a	n/a	n/a
201.517	0.8333	INK	69	Neutral	xxxxxxxx	xxxxxxxx	żółty	yellow	hit	n/a
202.3242	n/a	RESPONSE	n/a	n/a	n/a	n/a	n/a	n/a	n/a	yellow
202.3504	1.0167	ITI	n/a	n/a	n/a	n/a	n/a	n/a	n/a	n/a
203.3671	0.5167	FIXCROSS	n/a	n/a	n/a	n/a	n/a	n/a	n/a	n/a
203.8837	0.5333	INK	70	Incongruent	żółty	yellow	niebieski	blue	hit	n/a
204.3877	n/a	RESPONSE	n/a	n/a	n/a	n/a	n/a	n/a	n/a	blue
204.4171	1.0167	ITI	n/a	n/a	n/a	n/a	n/a	n/a	n/a	n/a
205.4337	0.5167	FIXCROSS	n/a	n/a	n/a	n/a	n/a	n/a	n/a	n/a
205.9504	0.7	INK	71	Neutral	xxxxxxxxx	xxxxxxxxx	czerwony	red	hit	n/a
206.6272	n/a	RESPONSE	n/a	n/a	n/a	n/a	n/a	n/a	n/a	red
206.6504	1.0167	ITI	n/a	n/a	n/a	n/a	n/a	n/a	n/a	n/a
207.6671	0.5167	FIXCROSS	n/a	n/a	n/a	n/a	n/a	n/a	n/a	n/a
208.1838	0.7	INK	72	Incongruent	żółty	yellow	czerwony	red	hit	n/a
208.8507	n/a	RESPONSE	n/a	n/a	n/a	n/a	n/a	n/a	n/a	red
208.8838	1.0833	ITI	n/a	n/a	n/a	n/a	n/a	n/a	n/a	n/a
222.8957	n/a	RESPONSE	n/a	n/a	n/a	n/a	n/a	n/a	n/a	n/a
222.9506	1.0167	ITI	n/a	n/a	n/a	n/a	n/a	n/a	n/a	n/a
223.9673	0.5167	FIXCROSS	n/a	n/a	n/a	n/a	n/a	n/a	n/a	n/a
224.484	1.3	T_COLOR_NAME	1	Incongruent	żółty	yellow	czerwony	red	hit	n/a
225.7591	n/a	RESPONSE	n/a	n/a	n/a	n/a	n/a	n/a	n/a	yellow
225.784	0.5167	FEEDBACK	n/a	n/a	n/a	n/a	n/a	n/a	n/a	n/a
226.3007	1.0167	ITI	n/a	n/a	n/a	n/a	n/a	n/a	n/a	n/a
227.3173	0.5167	FIXCROSS	n/a	n/a	n/a	n/a	n/a	n/a	n/a	n/a
227.834	0.85	T_COLOR_NAME	2	Neutral	żółty	yellow	Neutral	Neutral	hit	n/a
228.6544	n/a	RESPONSE	n/a	n/a	n/a	n/a	n/a	n/a	n/a	yellow
228.684	0.5167	FEEDBACK	n/a	n/a	n/a	n/a	n/a	n/a	n/a	n/a
229.2007	1.0167	ITI	n/a	n/a	n/a	n/a	n/a	n/a	n/a	n/a
230.2174	0.5167	FIXCROSS	n/a	n/a	n/a	n/a	n/a	n/a	n/a	n/a
230.734	0.9833	T_COLOR_NAME	3	Neutral	czerwony	red	Neutral	Neutral	hit	n/a
231.6938	n/a	RESPONSE	n/a	n/a	n/a	n/a	n/a	n/a	n/a	red
231.7174	0.5167	FEEDBACK	n/a	n/a	n/a	n/a	n/a	n/a	n/a	n/a
232.2341	1.0167	ITI	n/a	n/a	n/a	n/a	n/a	n/a	n/a	n/a
233.2507	0.5167	FIXCROSS	n/a	n/a	n/a	n/a	n/a	n/a	n/a	n/a
233.7674	1.5167	T_COLOR_NAME	4	Incongruent	czerwony	red	niebieski	blue	hit	n/a
235.261	n/a	RESPONSE	n/a	n/a	n/a	n/a	n/a	n/a	n/a	red
235.2841	0.5167	FEEDBACK	n/a	n/a	n/a	n/a	n/a	n/a	n/a	n/a
235.8008	1.0167	ITI	n/a	n/a	n/a	n/a	n/a	n/a	n/a	n/a
236.8174	0.5167	FIXCROSS	n/a	n/a	n/a	n/a	n/a	n/a	n/a	n/a
237.3341	1.7334	T_COLOR_NAME	5	Neutral	żółty	yellow	Neutral	Neutral	hit	n/a
239.0362	n/a	RESPONSE	n/a	n/a	n/a	n/a	n/a	n/a	n/a	yellow
239.0675	0.5167	FEEDBACK	n/a	n/a	n/a	n/a	n/a	n/a	n/a	n/a
239.5841	1.0167	ITI	n/a	n/a	n/a	n/a	n/a	n/a	n/a	n/a
240.6008	0.5167	FIXCROSS	n/a	n/a	n/a	n/a	n/a	n/a	n/a	n/a
241.1175	0.65	T_COLOR_NAME	6	Neutral	żółty	yellow	Neutral	Neutral	hit	n/a
241.7396	n/a	RESPONSE	n/a	n/a	n/a	n/a	n/a	n/a	n/a	yellow
241.7675	0.5167	FEEDBACK	n/a	n/a	n/a	n/a	n/a	n/a	n/a	n/a
242.2842	1.0167	ITI	n/a	n/a	n/a	n/a	n/a	n/a	n/a	n/a
243.3008	0.5167	FIXCROSS	n/a	n/a	n/a	n/a	n/a	n/a	n/a	n/a
243.8175	1.5	T_COLOR_NAME	7	Incongruent	zielony	green	żółty	yellow	hit	n/a
245.2909	n/a	RESPONSE	n/a	n/a	n/a	n/a	n/a	n/a	n/a	green
245.3175	0.5167	FEEDBACK	n/a	n/a	n/a	n/a	n/a	n/a	n/a	n/a
245.8342	1.0167	ITI	n/a	n/a	n/a	n/a	n/a	n/a	n/a	n/a
246.8509	0.5167	FIXCROSS	n/a	n/a	n/a	n/a	n/a	n/a	n/a	n/a
247.3676	1.9667	T_COLOR_NAME	8	Incongruent	żółty	yellow	zielony	green	hit	n/a
249.306	n/a	RESPONSE	n/a	n/a	n/a	n/a	n/a	n/a	n/a	yellow
249.3343	0.5167	FEEDBACK	n/a	n/a	n/a	n/a	n/a	n/a	n/a	n/a
249.8509	1.0167	ITI	n/a	n/a	n/a	n/a	n/a	n/a	n/a	n/a
250.8676	0.5167	FIXCROSS	n/a	n/a	n/a	n/a	n/a	n/a	n/a	n/a
251.3843	1.0833	T_COLOR_NAME	9	Neutral	zielony	green	Neutral	Neutral	hit	n/a
252.4413	n/a	RESPONSE	n/a	n/a	n/a	n/a	n/a	n/a	n/a	green
252.4676	0.5167	FEEDBACK	n/a	n/a	n/a	n/a	n/a	n/a	n/a	n/a
252.9843	1.0167	ITI	n/a	n/a	n/a	n/a	n/a	n/a	n/a	n/a
254.001	0.5167	FIXCROSS	n/a	n/a	n/a	n/a	n/a	n/a	n/a	n/a
254.5176	2.6334	T_COLOR_NAME	10	Neutral	niebieski	blue	Neutral	Neutral	hit	n/a
257.1283	n/a	RESPONSE	n/a	n/a	n/a	n/a	n/a	n/a	n/a	blue
257.151	0.5167	FEEDBACK	n/a	n/a	n/a	n/a	n/a	n/a	n/a	n/a
257.6677	1.0167	ITI	n/a	n/a	n/a	n/a	n/a	n/a	n/a	n/a
258.6843	0.5167	FIXCROSS	n/a	n/a	n/a	n/a	n/a	n/a	n/a	n/a
259.201	1.1833	T_COLOR_NAME	11	Neutral	zielony	green	Neutral	Neutral	hit	n/a
260.3596	n/a	RESPONSE	n/a	n/a	n/a	n/a	n/a	n/a	n/a	green
260.3844	0.5167	FEEDBACK	n/a	n/a	n/a	n/a	n/a	n/a	n/a	n/a
260.901	1.0167	ITI	n/a	n/a	n/a	n/a	n/a	n/a	n/a	n/a
261.9177	0.5167	FIXCROSS	n/a	n/a	n/a	n/a	n/a	n/a	n/a	n/a
262.4344	0.8333	T_COLOR_NAME	12	Neutral	czerwony	red	Neutral	Neutral	hit	n/a
263.239	n/a	RESPONSE	n/a	n/a	n/a	n/a	n/a	n/a	n/a	red
263.2677	0.5167	FEEDBACK	n/a	n/a	n/a	n/a	n/a	n/a	n/a	n/a
263.7844	1.0334	ITI	n/a	n/a	n/a	n/a	n/a	n/a	n/a	n/a
266.1343	n/a	RESPONSE	n/a	n/a	n/a	n/a	n/a	n/a	n/a	n/a
266.2011	1.0167	ITI	n/a	n/a	n/a	n/a	n/a	n/a	n/a	n/a
267.2178	0.5167	FIXCROSS	n/a	n/a	n/a	n/a	n/a	n/a	n/a	n/a
267.7344	1.05	COLOR_NAME	1	Neutral	czerwony	red	Neutral	Neutral	hit	n/a
268.7578	n/a	RESPONSE	n/a	n/a	n/a	n/a	n/a	n/a	n/a	red
268.7845	1.0167	ITI	n/a	n/a	n/a	n/a	n/a	n/a	n/a	n/a
269.8011	0.5167	FIXCROSS	n/a	n/a	n/a	n/a	n/a	n/a	n/a	n/a
270.3178	1.3	COLOR_NAME	2	Neutral	niebieski	blue	Neutral	Neutral	hit	n/a
271.5891	n/a	RESPONSE	n/a	n/a	n/a	n/a	n/a	n/a	n/a	blue
271.6178	1.0167	ITI	n/a	n/a	n/a	n/a	n/a	n/a	n/a	n/a
272.6345	0.5167	FIXCROSS	n/a	n/a	n/a	n/a	n/a	n/a	n/a	n/a
273.1512	0.8833	COLOR_NAME	3	Incongruent	zielony	green	żółty	yellow	hit	n/a
274.0046	n/a	RESPONSE	n/a	n/a	n/a	n/a	n/a	n/a	n/a	green
274.0345	1.0167	ITI	n/a	n/a	n/a	n/a	n/a	n/a	n/a	n/a
275.0512	0.5167	FIXCROSS	n/a	n/a	n/a	n/a	n/a	n/a	n/a	n/a
275.5679	1.0667	COLOR_NAME	4	Incongruent	zielony	green	niebieski	blue	hit	n/a
276.6121	n/a	RESPONSE	n/a	n/a	n/a	n/a	n/a	n/a	n/a	green
276.6345	1.0167	ITI	n/a	n/a	n/a	n/a	n/a	n/a	n/a	n/a
277.6512	0.5167	FIXCROSS	n/a	n/a	n/a	n/a	n/a	n/a	n/a	n/a
278.1679	0.4833	COLOR_NAME	5	Neutral	zielony	green	Neutral	Neutral	hit	n/a
278.6276	n/a	RESPONSE	n/a	n/a	n/a	n/a	n/a	n/a	n/a	green
278.6512	1.0167	ITI	n/a	n/a	n/a	n/a	n/a	n/a	n/a	n/a
279.6679	0.5167	FIXCROSS	n/a	n/a	n/a	n/a	n/a	n/a	n/a	n/a
280.1846	0.8667	COLOR_NAME	6	Neutral	żółty	yellow	Neutral	Neutral	hit	n/a
281.0271	n/a	RESPONSE	n/a	n/a	n/a	n/a	n/a	n/a	n/a	yellow
281.0513	1.0167	ITI	n/a	n/a	n/a	n/a	n/a	n/a	n/a	n/a
282.068	0.5167	FIXCROSS	n/a	n/a	n/a	n/a	n/a	n/a	n/a	n/a
282.5846	0.5	COLOR_NAME	7	Neutral	żółty	yellow	Neutral	Neutral	hit	n/a
283.0587	n/a	RESPONSE	n/a	n/a	n/a	n/a	n/a	n/a	n/a	yellow
283.0846	1.0167	ITI	n/a	n/a	n/a	n/a	n/a	n/a	n/a	n/a
284.1013	0.5167	FIXCROSS	n/a	n/a	n/a	n/a	n/a	n/a	n/a	n/a
284.618	0.5833	COLOR_NAME	8	Neutral	żółty	yellow	Neutral	Neutral	hit	n/a
285.1702	n/a	RESPONSE	n/a	n/a	n/a	n/a	n/a	n/a	n/a	yellow
285.2013	1.0167	ITI	n/a	n/a	n/a	n/a	n/a	n/a	n/a	n/a
286.218	0.5167	FIXCROSS	n/a	n/a	n/a	n/a	n/a	n/a	n/a	n/a
286.7347	1.05	COLOR_NAME	9	Neutral	niebieski	blue	Neutral	Neutral	hit	n/a
287.7617	n/a	RESPONSE	n/a	n/a	n/a	n/a	n/a	n/a	n/a	blue
287.7847	1.0167	ITI	n/a	n/a	n/a	n/a	n/a	n/a	n/a	n/a
288.8014	0.5167	FIXCROSS	n/a	n/a	n/a	n/a	n/a	n/a	n/a	n/a
289.318	1.3833	COLOR_NAME	10	Incongruent	żółty	yellow	niebieski	blue	hit	n/a
290.673	n/a	RESPONSE	n/a	n/a	n/a	n/a	n/a	n/a	n/a	yellow
290.7014	1.0167	ITI	n/a	n/a	n/a	n/a	n/a	n/a	n/a	n/a
291.718	0.5167	FIXCROSS	n/a	n/a	n/a	n/a	n/a	n/a	n/a	n/a
292.2347	0.9	COLOR_NAME	11	Neutral	zielony	green	Neutral	Neutral	hit	n/a
293.1045	n/a	RESPONSE	n/a	n/a	n/a	n/a	n/a	n/a	n/a	green
293.1347	1.0167	ITI	n/a	n/a	n/a	n/a	n/a	n/a	n/a	n/a
294.1514	0.5167	FIXCROSS	n/a	n/a	n/a	n/a	n/a	n/a	n/a	n/a
294.6681	0.7333	COLOR_NAME	12	Neutral	żółty	yellow	Neutral	Neutral	hit	n/a
295.376	n/a	RESPONSE	n/a	n/a	n/a	n/a	n/a	n/a	n/a	yellow
295.4014	1.0167	ITI	n/a	n/a	n/a	n/a	n/a	n/a	n/a	n/a
296.4181	0.5167	FIXCROSS	n/a	n/a	n/a	n/a	n/a	n/a	n/a	n/a
296.9348	1.2834	COLOR_NAME	13	Incongruent	czerwony	red	niebieski	blue	hit	n/a
298.1914	n/a	RESPONSE	n/a	n/a	n/a	n/a	n/a	n/a	n/a	red
298.2181	1.0167	ITI	n/a	n/a	n/a	n/a	n/a	n/a	n/a	n/a
299.2348	0.5167	FIXCROSS	n/a	n/a	n/a	n/a	n/a	n/a	n/a	n/a
299.7515	1.15	COLOR_NAME	14	Incongruent	żółty	yellow	niebieski	blue	hit	n/a
300.8788	n/a	RESPONSE	n/a	n/a	n/a	n/a	n/a	n/a	n/a	yellow
300.9015	1.0167	ITI	n/a	n/a	n/a	n/a	n/a	n/a	n/a	n/a
301.9182	0.5167	FIXCROSS	n/a	n/a	n/a	n/a	n/a	n/a	n/a	n/a
302.4348	0.7667	COLOR_NAME	15	Neutral	zielony	green	Neutral	Neutral	hit	n/a
303.1823	n/a	RESPONSE	n/a	n/a	n/a	n/a	n/a	n/a	n/a	green
303.2015	1.0167	ITI	n/a	n/a	n/a	n/a	n/a	n/a	n/a	n/a
304.2182	0.5167	FIXCROSS	n/a	n/a	n/a	n/a	n/a	n/a	n/a	n/a
304.7349	1.0	COLOR_NAME	16	Incongruent	czerwony	red	niebieski	blue	hit	n/a
305.7098	n/a	RESPONSE	n/a	n/a	n/a	n/a	n/a	n/a	n/a	red
305.7349	1.0167	ITI	n/a	n/a	n/a	n/a	n/a	n/a	n/a	n/a
306.7515	0.5167	FIXCROSS	n/a	n/a	n/a	n/a	n/a	n/a	n/a	n/a
307.2682	0.6667	COLOR_NAME	17	Neutral	czerwony	red	Neutral	Neutral	hit	n/a
307.9173	n/a	RESPONSE	n/a	n/a	n/a	n/a	n/a	n/a	n/a	red
307.9349	1.0167	ITI	n/a	n/a	n/a	n/a	n/a	n/a	n/a	n/a
308.9516	0.5167	FIXCROSS	n/a	n/a	n/a	n/a	n/a	n/a	n/a	n/a
309.4682	0.95	COLOR_NAME	18	Neutral	niebieski	blue	Neutral	Neutral	hit	n/a
310.3968	n/a	RESPONSE	n/a	n/a	n/a	n/a	n/a	n/a	n/a	blue
310.4183	1.0167	ITI	n/a	n/a	n/a	n/a	n/a	n/a	n/a	n/a
311.4349	0.5167	FIXCROSS	n/a	n/a	n/a	n/a	n/a	n/a	n/a	n/a
311.9516	0.75	COLOR_NAME	19	Incongruent	czerwony	red	niebieski	blue	hit	n/a
312.6683	n/a	RESPONSE	n/a	n/a	n/a	n/a	n/a	n/a	n/a	red
312.7016	1.0167	ITI	n/a	n/a	n/a	n/a	n/a	n/a	n/a	n/a
313.7183	0.5167	FIXCROSS	n/a	n/a	n/a	n/a	n/a	n/a	n/a	n/a
314.235	0.8333	COLOR_NAME	20	Neutral	zielony	green	Neutral	Neutral	hit	n/a
315.0358	n/a	RESPONSE	n/a	n/a	n/a	n/a	n/a	n/a	n/a	green
315.0683	1.0167	ITI	n/a	n/a	n/a	n/a	n/a	n/a	n/a	n/a
316.085	0.5167	FIXCROSS	n/a	n/a	n/a	n/a	n/a	n/a	n/a	n/a
316.6017	0.9	COLOR_NAME	21	Incongruent	żółty	yellow	zielony	green	hit	n/a
317.4832	n/a	RESPONSE	n/a	n/a	n/a	n/a	n/a	n/a	n/a	yellow
317.5017	1.0167	ITI	n/a	n/a	n/a	n/a	n/a	n/a	n/a	n/a
318.5183	0.5167	FIXCROSS	n/a	n/a	n/a	n/a	n/a	n/a	n/a	n/a
319.035	0.5833	COLOR_NAME	22	Neutral	czerwony	red	Neutral	Neutral	hit	n/a
319.5948	n/a	RESPONSE	n/a	n/a	n/a	n/a	n/a	n/a	n/a	red
319.6184	1.0167	ITI	n/a	n/a	n/a	n/a	n/a	n/a	n/a	n/a
320.635	0.5167	FIXCROSS	n/a	n/a	n/a	n/a	n/a	n/a	n/a	n/a
321.1517	0.8333	COLOR_NAME	23	Incongruent	niebieski	blue	zielony	green	hit	n/a
321.9623	n/a	RESPONSE	n/a	n/a	n/a	n/a	n/a	n/a	n/a	blue
321.9851	1.0167	ITI	n/a	n/a	n/a	n/a	n/a	n/a	n/a	n/a
323.0017	0.5167	FIXCROSS	n/a	n/a	n/a	n/a	n/a	n/a	n/a	n/a
323.5184	0.7833	COLOR_NAME	24	Neutral	niebieski	blue	Neutral	Neutral	hit	n/a
324.2818	n/a	RESPONSE	n/a	n/a	n/a	n/a	n/a	n/a	n/a	blue
324.3017	1.0167	ITI	n/a	n/a	n/a	n/a	n/a	n/a	n/a	n/a
325.3184	0.5167	FIXCROSS	n/a	n/a	n/a	n/a	n/a	n/a	n/a	n/a
325.8351	1.1333	COLOR_NAME	25	Incongruent	zielony	green	czerwony	red	incorrect	n/a
326.9372	n/a	RESPONSE	n/a	n/a	n/a	n/a	n/a	n/a	n/a	yellow
326.9684	1.0167	ITI	n/a	n/a	n/a	n/a	n/a	n/a	n/a	n/a
327.9851	0.5167	FIXCROSS	n/a	n/a	n/a	n/a	n/a	n/a	n/a	n/a
328.5018	0.7	COLOR_NAME	26	Neutral	czerwony	red	Neutral	Neutral	hit	n/a
329.1767	n/a	RESPONSE	n/a	n/a	n/a	n/a	n/a	n/a	n/a	red
329.2018	1.0167	ITI	n/a	n/a	n/a	n/a	n/a	n/a	n/a	n/a
330.2185	0.5167	FIXCROSS	n/a	n/a	n/a	n/a	n/a	n/a	n/a	n/a
330.7352	0.7833	COLOR_NAME	27	Neutral	zielony	green	Neutral	Neutral	hit	n/a
331.4962	n/a	RESPONSE	n/a	n/a	n/a	n/a	n/a	n/a	n/a	green
331.5185	1.0167	ITI	n/a	n/a	n/a	n/a	n/a	n/a	n/a	n/a
332.5352	0.5167	FIXCROSS	n/a	n/a	n/a	n/a	n/a	n/a	n/a	n/a
333.0519	0.7333	COLOR_NAME	28	Neutral	żółty	yellow	Neutral	Neutral	hit	n/a
333.7677	n/a	RESPONSE	n/a	n/a	n/a	n/a	n/a	n/a	n/a	yellow
333.7852	1.0167	ITI	n/a	n/a	n/a	n/a	n/a	n/a	n/a	n/a
334.8019	0.5167	FIXCROSS	n/a	n/a	n/a	n/a	n/a	n/a	n/a	n/a
335.3185	0.75	COLOR_NAME	29	Neutral	czerwony	red	Neutral	Neutral	hit	n/a
336.0392	n/a	RESPONSE	n/a	n/a	n/a	n/a	n/a	n/a	n/a	red
336.0685	1.0167	ITI	n/a	n/a	n/a	n/a	n/a	n/a	n/a	n/a
337.0852	0.5167	FIXCROSS	n/a	n/a	n/a	n/a	n/a	n/a	n/a	n/a
337.6019	1.1833	COLOR_NAME	30	Incongruent	zielony	green	żółty	yellow	hit	n/a
338.7586	n/a	RESPONSE	n/a	n/a	n/a	n/a	n/a	n/a	n/a	green
338.7852	1.0167	ITI	n/a	n/a	n/a	n/a	n/a	n/a	n/a	n/a
339.8019	0.5167	FIXCROSS	n/a	n/a	n/a	n/a	n/a	n/a	n/a	n/a
340.3186	0.7	COLOR_NAME	31	Incongruent	czerwony	red	zielony	green	hit	n/a
340.9981	n/a	RESPONSE	n/a	n/a	n/a	n/a	n/a	n/a	n/a	red
341.0186	1.0167	ITI	n/a	n/a	n/a	n/a	n/a	n/a	n/a	n/a
342.0353	0.5167	FIXCROSS	n/a	n/a	n/a	n/a	n/a	n/a	n/a	n/a
342.552	0.8167	COLOR_NAME	32	Neutral	niebieski	blue	Neutral	Neutral	hit	n/a
343.3496	n/a	RESPONSE	n/a	n/a	n/a	n/a	n/a	n/a	n/a	blue
343.3686	1.0167	ITI	n/a	n/a	n/a	n/a	n/a	n/a	n/a	n/a
344.3853	0.5167	FIXCROSS	n/a	n/a	n/a	n/a	n/a	n/a	n/a	n/a
344.902	0.8	COLOR_NAME	33	Incongruent	czerwony	red	zielony	green	hit	n/a
345.6691	n/a	RESPONSE	n/a	n/a	n/a	n/a	n/a	n/a	n/a	red
345.702	1.0167	ITI	n/a	n/a	n/a	n/a	n/a	n/a	n/a	n/a
346.7187	0.5167	FIXCROSS	n/a	n/a	n/a	n/a	n/a	n/a	n/a	n/a
347.2353	0.7167	COLOR_NAME	34	Neutral	żółty	yellow	Neutral	Neutral	hit	n/a
347.9246	n/a	RESPONSE	n/a	n/a	n/a	n/a	n/a	n/a	n/a	yellow
347.952	1.0167	ITI	n/a	n/a	n/a	n/a	n/a	n/a	n/a	n/a
348.9687	0.5167	FIXCROSS	n/a	n/a	n/a	n/a	n/a	n/a	n/a	n/a
349.4854	0.7167	COLOR_NAME	35	Neutral	zielony	green	Neutral	Neutral	hit	n/a
350.1802	n/a	RESPONSE	n/a	n/a	n/a	n/a	n/a	n/a	n/a	green
350.202	1.0167	ITI	n/a	n/a	n/a	n/a	n/a	n/a	n/a	n/a
351.2187	0.5167	FIXCROSS	n/a	n/a	n/a	n/a	n/a	n/a	n/a	n/a
351.7354	0.9	COLOR_NAME	36	Incongruent	niebieski	blue	czerwony	red	hit	n/a
352.6116	n/a	RESPONSE	n/a	n/a	n/a	n/a	n/a	n/a	n/a	blue
352.6354	1.0167	ITI	n/a	n/a	n/a	n/a	n/a	n/a	n/a	n/a
353.6521	0.5167	FIXCROSS	n/a	n/a	n/a	n/a	n/a	n/a	n/a	n/a
354.1687	0.9	COLOR_NAME	37	Incongruent	niebieski	blue	żółty	yellow	hit	n/a
355.0431	n/a	RESPONSE	n/a	n/a	n/a	n/a	n/a	n/a	n/a	blue
355.0688	1.0167	ITI	n/a	n/a	n/a	n/a	n/a	n/a	n/a	n/a
356.0854	0.5167	FIXCROSS	n/a	n/a	n/a	n/a	n/a	n/a	n/a	n/a
356.6021	0.6333	COLOR_NAME	38	Neutral	czerwony	red	Neutral	Neutral	hit	n/a
357.2027	n/a	RESPONSE	n/a	n/a	n/a	n/a	n/a	n/a	n/a	red
357.2355	1.0167	ITI	n/a	n/a	n/a	n/a	n/a	n/a	n/a	n/a
358.2521	0.5167	FIXCROSS	n/a	n/a	n/a	n/a	n/a	n/a	n/a	n/a
358.7688	0.6	COLOR_NAME	39	Neutral	żółty	yellow	Neutral	Neutral	hit	n/a
359.3462	n/a	RESPONSE	n/a	n/a	n/a	n/a	n/a	n/a	n/a	yellow
359.3688	1.0167	ITI	n/a	n/a	n/a	n/a	n/a	n/a	n/a	n/a
360.3855	0.5167	FIXCROSS	n/a	n/a	n/a	n/a	n/a	n/a	n/a	n/a
360.9022	0.9667	COLOR_NAME	40	Neutral	niebieski	blue	Neutral	Neutral	hit	n/a
361.8417	n/a	RESPONSE	n/a	n/a	n/a	n/a	n/a	n/a	n/a	blue
361.8688	1.0167	ITI	n/a	n/a	n/a	n/a	n/a	n/a	n/a	n/a
362.8855	0.5167	FIXCROSS	n/a	n/a	n/a	n/a	n/a	n/a	n/a	n/a
363.4022	0.8333	COLOR_NAME	41	Neutral	zielony	green	Neutral	Neutral	hit	n/a
364.2091	n/a	RESPONSE	n/a	n/a	n/a	n/a	n/a	n/a	n/a	green
364.2355	1.0167	ITI	n/a	n/a	n/a	n/a	n/a	n/a	n/a	n/a
365.2522	0.5167	FIXCROSS	n/a	n/a	n/a	n/a	n/a	n/a	n/a	n/a
365.7689	0.7667	COLOR_NAME	42	Incongruent	zielony	green	czerwony	red	hit	n/a
366.5126	n/a	RESPONSE	n/a	n/a	n/a	n/a	n/a	n/a	n/a	green
366.5356	1.0167	ITI	n/a	n/a	n/a	n/a	n/a	n/a	n/a	n/a
367.5522	0.5167	FIXCROSS	n/a	n/a	n/a	n/a	n/a	n/a	n/a	n/a
368.0689	0.7833	COLOR_NAME	43	Neutral	niebieski	blue	Neutral	Neutral	hit	n/a
368.8322	n/a	RESPONSE	n/a	n/a	n/a	n/a	n/a	n/a	n/a	blue
368.8522	1.0167	ITI	n/a	n/a	n/a	n/a	n/a	n/a	n/a	n/a
369.8689	0.5167	FIXCROSS	n/a	n/a	n/a	n/a	n/a	n/a	n/a	n/a
370.3856	0.6167	COLOR_NAME	44	Neutral	czerwony	red	Neutral	Neutral	hit	n/a
370.9757	n/a	RESPONSE	n/a	n/a	n/a	n/a	n/a	n/a	n/a	red
371.0023	1.0167	ITI	n/a	n/a	n/a	n/a	n/a	n/a	n/a	n/a
372.019	0.5167	FIXCROSS	n/a	n/a	n/a	n/a	n/a	n/a	n/a	n/a
372.5356	1.1	COLOR_NAME	45	Incongruent	niebieski	blue	czerwony	red	hit	n/a
373.6151	n/a	RESPONSE	n/a	n/a	n/a	n/a	n/a	n/a	n/a	blue
373.6356	1.0167	ITI	n/a	n/a	n/a	n/a	n/a	n/a	n/a	n/a
374.6523	0.5167	FIXCROSS	n/a	n/a	n/a	n/a	n/a	n/a	n/a	n/a
375.169	0.8	COLOR_NAME	46	Incongruent	czerwony	red	zielony	green	hit	n/a
375.9506	n/a	RESPONSE	n/a	n/a	n/a	n/a	n/a	n/a	n/a	red
375.969	1.0167	ITI	n/a	n/a	n/a	n/a	n/a	n/a	n/a	n/a
376.9857	0.5167	FIXCROSS	n/a	n/a	n/a	n/a	n/a	n/a	n/a	n/a
377.5023	0.9167	COLOR_NAME	47	Neutral	zielony	green	Neutral	Neutral	hit	n/a
378.3981	n/a	RESPONSE	n/a	n/a	n/a	n/a	n/a	n/a	n/a	green
378.419	1.0167	ITI	n/a	n/a	n/a	n/a	n/a	n/a	n/a	n/a
379.4357	0.5167	FIXCROSS	n/a	n/a	n/a	n/a	n/a	n/a	n/a	n/a
379.9524	0.7	COLOR_NAME	48	Incongruent	czerwony	red	żółty	yellow	hit	n/a
380.6215	n/a	RESPONSE	n/a	n/a	n/a	n/a	n/a	n/a	n/a	red
380.6524	1.0167	ITI	n/a	n/a	n/a	n/a	n/a	n/a	n/a	n/a
381.6691	0.5167	FIXCROSS	n/a	n/a	n/a	n/a	n/a	n/a	n/a	n/a
382.1857	0.9667	COLOR_NAME	49	Incongruent	żółty	yellow	czerwony	red	hit	n/a
383.1171	n/a	RESPONSE	n/a	n/a	n/a	n/a	n/a	n/a	n/a	yellow
383.1524	1.0167	ITI	n/a	n/a	n/a	n/a	n/a	n/a	n/a	n/a
384.1691	0.5167	FIXCROSS	n/a	n/a	n/a	n/a	n/a	n/a	n/a	n/a
384.6858	0.6833	COLOR_NAME	50	Incongruent	czerwony	red	żółty	yellow	hit	n/a
385.3406	n/a	RESPONSE	n/a	n/a	n/a	n/a	n/a	n/a	n/a	red
385.3691	1.0167	ITI	n/a	n/a	n/a	n/a	n/a	n/a	n/a	n/a
386.3858	0.5167	FIXCROSS	n/a	n/a	n/a	n/a	n/a	n/a	n/a	n/a
386.9024	1.3834	COLOR_NAME	51	Incongruent	żółty	yellow	zielony	green	hit	n/a
388.2519	n/a	RESPONSE	n/a	n/a	n/a	n/a	n/a	n/a	n/a	yellow
388.2858	1.0167	ITI	n/a	n/a	n/a	n/a	n/a	n/a	n/a	n/a
389.3025	0.5167	FIXCROSS	n/a	n/a	n/a	n/a	n/a	n/a	n/a	n/a
389.8191	1.0667	COLOR_NAME	52	Incongruent	niebieski	blue	zielony	green	hit	n/a
390.8593	n/a	RESPONSE	n/a	n/a	n/a	n/a	n/a	n/a	n/a	blue
390.8858	1.0167	ITI	n/a	n/a	n/a	n/a	n/a	n/a	n/a	n/a
391.9025	0.5167	FIXCROSS	n/a	n/a	n/a	n/a	n/a	n/a	n/a	n/a
392.4192	0.6333	COLOR_NAME	53	Neutral	czerwony	red	Neutral	Neutral	hit	n/a
393.0189	n/a	RESPONSE	n/a	n/a	n/a	n/a	n/a	n/a	n/a	red
393.0525	1.0167	ITI	n/a	n/a	n/a	n/a	n/a	n/a	n/a	n/a
394.0692	0.5167	FIXCROSS	n/a	n/a	n/a	n/a	n/a	n/a	n/a	n/a
394.5859	0.8667	COLOR_NAME	54	Incongruent	niebieski	blue	żółty	yellow	hit	n/a
395.4344	n/a	RESPONSE	n/a	n/a	n/a	n/a	n/a	n/a	n/a	blue
395.4525	1.0167	ITI	n/a	n/a	n/a	n/a	n/a	n/a	n/a	n/a
396.4692	0.5167	FIXCROSS	n/a	n/a	n/a	n/a	n/a	n/a	n/a	n/a
396.9859	0.7333	COLOR_NAME	55	Neutral	niebieski	blue	Neutral	Neutral	hit	n/a
397.6899	n/a	RESPONSE	n/a	n/a	n/a	n/a	n/a	n/a	n/a	blue
397.7192	1.0167	ITI	n/a	n/a	n/a	n/a	n/a	n/a	n/a	n/a
398.7359	0.5167	FIXCROSS	n/a	n/a	n/a	n/a	n/a	n/a	n/a	n/a
399.2526	0.7667	COLOR_NAME	56	Incongruent	żółty	yellow	zielony	green	hit	n/a
399.9934	n/a	RESPONSE	n/a	n/a	n/a	n/a	n/a	n/a	n/a	yellow
400.0193	1.0167	ITI	n/a	n/a	n/a	n/a	n/a	n/a	n/a	n/a
401.0359	0.5167	FIXCROSS	n/a	n/a	n/a	n/a	n/a	n/a	n/a	n/a
401.5526	0.8333	COLOR_NAME	57	Incongruent	zielony	green	niebieski	blue	hit	n/a
402.3609	n/a	RESPONSE	n/a	n/a	n/a	n/a	n/a	n/a	n/a	green
402.386	1.0167	ITI	n/a	n/a	n/a	n/a	n/a	n/a	n/a	n/a
403.4026	0.5167	FIXCROSS	n/a	n/a	n/a	n/a	n/a	n/a	n/a	n/a
403.9193	0.6667	COLOR_NAME	58	Neutral	czerwony	red	Neutral	Neutral	hit	n/a
404.5684	n/a	RESPONSE	n/a	n/a	n/a	n/a	n/a	n/a	n/a	red
404.586	1.0167	ITI	n/a	n/a	n/a	n/a	n/a	n/a	n/a	n/a
405.6027	0.5167	FIXCROSS	n/a	n/a	n/a	n/a	n/a	n/a	n/a	n/a
406.1193	0.8	COLOR_NAME	59	Neutral	żółty	yellow	Neutral	Neutral	hit	n/a
406.8879	n/a	RESPONSE	n/a	n/a	n/a	n/a	n/a	n/a	n/a	yellow
406.9193	1.0167	ITI	n/a	n/a	n/a	n/a	n/a	n/a	n/a	n/a
407.936	0.5167	FIXCROSS	n/a	n/a	n/a	n/a	n/a	n/a	n/a	n/a
408.4527	0.9167	COLOR_NAME	60	Incongruent	zielony	green	czerwony	red	hit	n/a
409.3514	n/a	RESPONSE	n/a	n/a	n/a	n/a	n/a	n/a	n/a	green
409.3694	1.0167	ITI	n/a	n/a	n/a	n/a	n/a	n/a	n/a	n/a
410.386	0.5167	FIXCROSS	n/a	n/a	n/a	n/a	n/a	n/a	n/a	n/a
410.9027	0.7667	COLOR_NAME	61	Incongruent	żółty	yellow	czerwony	red	hit	n/a
411.6389	n/a	RESPONSE	n/a	n/a	n/a	n/a	n/a	n/a	n/a	yellow
411.6694	1.0167	ITI	n/a	n/a	n/a	n/a	n/a	n/a	n/a	n/a
412.6861	0.5167	FIXCROSS	n/a	n/a	n/a	n/a	n/a	n/a	n/a	n/a
413.2027	0.7333	COLOR_NAME	62	Neutral	niebieski	blue	Neutral	Neutral	hit	n/a
413.9104	n/a	RESPONSE	n/a	n/a	n/a	n/a	n/a	n/a	n/a	blue
413.9361	1.0167	ITI	n/a	n/a	n/a	n/a	n/a	n/a	n/a	n/a
414.9528	0.5167	FIXCROSS	n/a	n/a	n/a	n/a	n/a	n/a	n/a	n/a
415.4694	0.9	COLOR_NAME	63	Incongruent	niebieski	blue	czerwony	red	hit	n/a
416.3419	n/a	RESPONSE	n/a	n/a	n/a	n/a	n/a	n/a	n/a	blue
416.3694	1.0167	ITI	n/a	n/a	n/a	n/a	n/a	n/a	n/a	n/a
417.3861	0.5167	FIXCROSS	n/a	n/a	n/a	n/a	n/a	n/a	n/a	n/a
417.9028	0.9167	COLOR_NAME	64	Incongruent	żółty	yellow	niebieski	blue	hit	n/a
418.7893	n/a	RESPONSE	n/a	n/a	n/a	n/a	n/a	n/a	n/a	yellow
418.8195	1.0167	ITI	n/a	n/a	n/a	n/a	n/a	n/a	n/a	n/a
419.8361	0.5167	FIXCROSS	n/a	n/a	n/a	n/a	n/a	n/a	n/a	n/a
420.3528	0.8833	COLOR_NAME	65	Incongruent	zielony	green	niebieski	blue	hit	n/a
421.2048	n/a	RESPONSE	n/a	n/a	n/a	n/a	n/a	n/a	n/a	green
421.2362	1.0167	ITI	n/a	n/a	n/a	n/a	n/a	n/a	n/a	n/a
422.2528	0.5167	FIXCROSS	n/a	n/a	n/a	n/a	n/a	n/a	n/a	n/a
422.7695	0.7667	COLOR_NAME	66	Incongruent	czerwony	red	żółty	yellow	hit	n/a
423.5083	n/a	RESPONSE	n/a	n/a	n/a	n/a	n/a	n/a	n/a	red
423.5362	1.0167	ITI	n/a	n/a	n/a	n/a	n/a	n/a	n/a	n/a
424.5529	0.5167	FIXCROSS	n/a	n/a	n/a	n/a	n/a	n/a	n/a	n/a
425.0695	0.8667	COLOR_NAME	67	Incongruent	niebieski	blue	żółty	yellow	hit	n/a
425.9078	n/a	RESPONSE	n/a	n/a	n/a	n/a	n/a	n/a	n/a	blue
425.9362	1.0167	ITI	n/a	n/a	n/a	n/a	n/a	n/a	n/a	n/a
426.9529	0.5167	FIXCROSS	n/a	n/a	n/a	n/a	n/a	n/a	n/a	n/a
427.4696	0.5667	COLOR_NAME	68	Neutral	żółty	yellow	Neutral	Neutral	hit	n/a
428.0033	n/a	RESPONSE	n/a	n/a	n/a	n/a	n/a	n/a	n/a	yellow
428.0362	1.0167	ITI	n/a	n/a	n/a	n/a	n/a	n/a	n/a	n/a
429.0529	0.5167	FIXCROSS	n/a	n/a	n/a	n/a	n/a	n/a	n/a	n/a
429.5696	0.6833	COLOR_NAME	69	Incongruent	żółty	yellow	czerwony	red	hit	n/a
430.2269	n/a	RESPONSE	n/a	n/a	n/a	n/a	n/a	n/a	n/a	yellow
430.2529	1.0167	ITI	n/a	n/a	n/a	n/a	n/a	n/a	n/a	n/a
431.2696	0.5167	FIXCROSS	n/a	n/a	n/a	n/a	n/a	n/a	n/a	n/a
431.7863	0.85	COLOR_NAME	70	Incongruent	zielony	green	żółty	yellow	hit	n/a
432.6104	n/a	RESPONSE	n/a	n/a	n/a	n/a	n/a	n/a	n/a	green
432.6363	1.0167	ITI	n/a	n/a	n/a	n/a	n/a	n/a	n/a	n/a
433.653	0.5167	FIXCROSS	n/a	n/a	n/a	n/a	n/a	n/a	n/a	n/a
434.1696	0.6	COLOR_NAME	71	Neutral	zielony	green	Neutral	Neutral	hit	n/a
434.7379	n/a	RESPONSE	n/a	n/a	n/a	n/a	n/a	n/a	n/a	green
434.7697	1.0167	ITI	n/a	n/a	n/a	n/a	n/a	n/a	n/a	n/a
435.7863	0.5167	FIXCROSS	n/a	n/a	n/a	n/a	n/a	n/a	n/a	n/a
436.303	1.0333	COLOR_NAME	72	Incongruent	niebieski	blue	zielony	green	hit	n/a
437.3133	n/a	RESPONSE	n/a	n/a	n/a	n/a	n/a	n/a	n/a	blue
437.3364	1.0333	ITI	n/a	n/a	n/a	n/a	n/a	n/a	n/a	n/a
439.5688	n/a	RESPONSE	n/a	n/a	n/a	n/a	n/a	n/a	n/a	n/a
