onset	duration	trial_type	trial_number	stroop_condition	stim_text(PL)	stim_text(eng)	stim_color(PL)	stim_color(eng)	response_type	response_color
0.0	n/a	RESPONSE	n/a	n/a	n/a	n/a	n/a	n/a	n/a	green
0.0	n/a	RESPONSE	n/a	n/a	n/a	n/a	n/a	n/a	n/a	green
0.0001	n/a	RESPONSE	n/a	n/a	n/a	n/a	n/a	n/a	n/a	blue
0.0001	n/a	RESPONSE	n/a	n/a	n/a	n/a	n/a	n/a	n/a	green
68.0059	n/a	RESPONSE	n/a	n/a	n/a	n/a	n/a	n/a	n/a	n/a
68.0669	1.0167	ITI	n/a	n/a	n/a	n/a	n/a	n/a	n/a	n/a
69.0836	0.5167	FIXCROSS	n/a	n/a	n/a	n/a	n/a	n/a	n/a	n/a
69.6003	1.8333	T_INK	1	Incongruent	żółty	yellow	czerwony	red	incorrect	n/a
71.4096	n/a	RESPONSE	n/a	n/a	n/a	n/a	n/a	n/a	n/a	yellow
71.4336	0.5167	FEEDBACK	n/a	n/a	n/a	n/a	n/a	n/a	n/a	n/a
71.9503	1.0167	ITI	n/a	n/a	n/a	n/a	n/a	n/a	n/a	n/a
72.967	0.5167	FIXCROSS	n/a	n/a	n/a	n/a	n/a	n/a	n/a	n/a
73.4836	2.7	T_INK	2	Incongruent	niebieski	blue	zielony	green	hit	n/a
76.1558	n/a	RESPONSE	n/a	n/a	n/a	n/a	n/a	n/a	n/a	green
76.1836	0.5167	FEEDBACK	n/a	n/a	n/a	n/a	n/a	n/a	n/a	n/a
76.7003	1.0167	ITI	n/a	n/a	n/a	n/a	n/a	n/a	n/a	n/a
77.717	0.5167	FIXCROSS	n/a	n/a	n/a	n/a	n/a	n/a	n/a	n/a
78.2337	1.5334	T_INK	3	Neutral	xxxxxxxx	xxxxxxxx	zielony	green	hit	n/a
79.7354	n/a	RESPONSE	n/a	n/a	n/a	n/a	n/a	n/a	n/a	green
79.767	0.5167	FEEDBACK	n/a	n/a	n/a	n/a	n/a	n/a	n/a	n/a
80.2837	1.0167	ITI	n/a	n/a	n/a	n/a	n/a	n/a	n/a	n/a
81.3004	0.5167	FIXCROSS	n/a	n/a	n/a	n/a	n/a	n/a	n/a	n/a
81.817	0.9833	T_INK	4	Neutral	xxxxx	xxxxx	zielony	green	hit	n/a
82.7716	n/a	RESPONSE	n/a	n/a	n/a	n/a	n/a	n/a	n/a	green
82.8004	0.5167	FEEDBACK	n/a	n/a	n/a	n/a	n/a	n/a	n/a	n/a
83.317	1.0167	ITI	n/a	n/a	n/a	n/a	n/a	n/a	n/a	n/a
84.3337	0.5167	FIXCROSS	n/a	n/a	n/a	n/a	n/a	n/a	n/a	n/a
84.8504	1.05	T_INK	5	Neutral	xxxxxxx	xxxxxxx	niebieski	blue	hit	n/a
85.8718	n/a	RESPONSE	n/a	n/a	n/a	n/a	n/a	n/a	n/a	blue
85.9004	0.5167	FEEDBACK	n/a	n/a	n/a	n/a	n/a	n/a	n/a	n/a
86.4171	1.0167	ITI	n/a	n/a	n/a	n/a	n/a	n/a	n/a	n/a
87.4337	0.5167	FIXCROSS	n/a	n/a	n/a	n/a	n/a	n/a	n/a	n/a
87.9504	1.4167	T_INK	6	Neutral	xxxxxxxxx	xxxxxxxxx	żółty	yellow	hit	n/a
89.3396	n/a	RESPONSE	n/a	n/a	n/a	n/a	n/a	n/a	n/a	yellow
89.3671	0.5167	FEEDBACK	n/a	n/a	n/a	n/a	n/a	n/a	n/a	n/a
89.8838	1.0167	ITI	n/a	n/a	n/a	n/a	n/a	n/a	n/a	n/a
90.9004	0.5167	FIXCROSS	n/a	n/a	n/a	n/a	n/a	n/a	n/a	n/a
91.4171	0.85	T_INK	7	Neutral	xxxxxxxx	xxxxxxxx	żółty	yellow	hit	n/a
92.248	n/a	RESPONSE	n/a	n/a	n/a	n/a	n/a	n/a	n/a	yellow
92.2671	0.5167	FEEDBACK	n/a	n/a	n/a	n/a	n/a	n/a	n/a	n/a
92.7838	1.0167	ITI	n/a	n/a	n/a	n/a	n/a	n/a	n/a	n/a
93.8005	0.5167	FIXCROSS	n/a	n/a	n/a	n/a	n/a	n/a	n/a	n/a
94.3171	2.2167	T_INK	8	Incongruent	niebieski	blue	czerwony	red	hit	n/a
96.5147	n/a	RESPONSE	n/a	n/a	n/a	n/a	n/a	n/a	n/a	red
96.5338	0.5167	FEEDBACK	n/a	n/a	n/a	n/a	n/a	n/a	n/a	n/a
97.0505	1.0167	ITI	n/a	n/a	n/a	n/a	n/a	n/a	n/a	n/a
98.0672	0.5167	FIXCROSS	n/a	n/a	n/a	n/a	n/a	n/a	n/a	n/a
98.5838	1.2	T_INK	9	Incongruent	żółty	yellow	zielony	green	hit	n/a
99.7587	n/a	RESPONSE	n/a	n/a	n/a	n/a	n/a	n/a	n/a	green
99.7838	0.5167	FEEDBACK	n/a	n/a	n/a	n/a	n/a	n/a	n/a	n/a
100.3005	1.0167	ITI	n/a	n/a	n/a	n/a	n/a	n/a	n/a	n/a
101.3172	0.5167	FIXCROSS	n/a	n/a	n/a	n/a	n/a	n/a	n/a	n/a
101.8338	1.3333	T_INK	10	Incongruent	zielony	green	niebieski	blue	hit	n/a
103.1465	n/a	RESPONSE	n/a	n/a	n/a	n/a	n/a	n/a	n/a	blue
103.1672	0.5167	FEEDBACK	n/a	n/a	n/a	n/a	n/a	n/a	n/a	n/a
103.6839	1.0167	ITI	n/a	n/a	n/a	n/a	n/a	n/a	n/a	n/a
104.7005	0.5167	FIXCROSS	n/a	n/a	n/a	n/a	n/a	n/a	n/a	n/a
105.2172	1.1	T_INK	11	Incongruent	niebieski	blue	żółty	yellow	hit	n/a
106.2947	n/a	RESPONSE	n/a	n/a	n/a	n/a	n/a	n/a	n/a	yellow
106.3172	0.5167	FEEDBACK	n/a	n/a	n/a	n/a	n/a	n/a	n/a	n/a
106.8339	1.0167	ITI	n/a	n/a	n/a	n/a	n/a	n/a	n/a	n/a
107.8506	0.5167	FIXCROSS	n/a	n/a	n/a	n/a	n/a	n/a	n/a	n/a
108.3672	0.9	T_INK	12	Incongruent	czerwony	red	żółty	yellow	hit	n/a
109.2351	n/a	RESPONSE	n/a	n/a	n/a	n/a	n/a	n/a	n/a	yellow
109.2672	0.5167	FEEDBACK	n/a	n/a	n/a	n/a	n/a	n/a	n/a	n/a
109.7839	1.0333	ITI	n/a	n/a	n/a	n/a	n/a	n/a	n/a	n/a
116.0746	n/a	RESPONSE	n/a	n/a	n/a	n/a	n/a	n/a	n/a	n/a
116.134	1.0167	ITI	n/a	n/a	n/a	n/a	n/a	n/a	n/a	n/a
117.1506	0.5167	FIXCROSS	n/a	n/a	n/a	n/a	n/a	n/a	n/a	n/a
117.6673	2.6334	INK	1	Neutral	xxxxxxxxx	xxxxxxxxx	zielony	green	hit	n/a
120.2775	n/a	RESPONSE	n/a	n/a	n/a	n/a	n/a	n/a	n/a	green
120.3007	1.0167	ITI	n/a	n/a	n/a	n/a	n/a	n/a	n/a	n/a
121.3173	0.5167	FIXCROSS	n/a	n/a	n/a	n/a	n/a	n/a	n/a	n/a
121.834	0.85	INK	2	Incongruent	czerwony	red	zielony	green	hit	n/a
122.6585	n/a	RESPONSE	n/a	n/a	n/a	n/a	n/a	n/a	n/a	green
122.684	1.0167	ITI	n/a	n/a	n/a	n/a	n/a	n/a	n/a	n/a
123.7007	0.5167	FIXCROSS	n/a	n/a	n/a	n/a	n/a	n/a	n/a	n/a
124.2174	1.1667	INK	3	Incongruent	zielony	green	niebieski	blue	hit	n/a
125.3591	n/a	RESPONSE	n/a	n/a	n/a	n/a	n/a	n/a	n/a	blue
125.384	1.0167	ITI	n/a	n/a	n/a	n/a	n/a	n/a	n/a	n/a
126.4007	0.5167	FIXCROSS	n/a	n/a	n/a	n/a	n/a	n/a	n/a	n/a
126.9174	1.5333	INK	4	Neutral	xxxxx	xxxxx	czerwony	red	hit	n/a
128.4274	n/a	RESPONSE	n/a	n/a	n/a	n/a	n/a	n/a	n/a	red
128.4507	1.0167	ITI	n/a	n/a	n/a	n/a	n/a	n/a	n/a	n/a
129.4674	0.5167	FIXCROSS	n/a	n/a	n/a	n/a	n/a	n/a	n/a	n/a
129.9841	0.8167	INK	5	Neutral	xxxxxxxxx	xxxxxxxxx	czerwony	red	hit	n/a
130.7764	n/a	RESPONSE	n/a	n/a	n/a	n/a	n/a	n/a	n/a	red
130.8007	1.0167	ITI	n/a	n/a	n/a	n/a	n/a	n/a	n/a	n/a
131.8174	0.5167	FIXCROSS	n/a	n/a	n/a	n/a	n/a	n/a	n/a	n/a
132.3341	0.6334	INK	6	Incongruent	żółty	yellow	czerwony	red	hit	n/a
132.9497	n/a	RESPONSE	n/a	n/a	n/a	n/a	n/a	n/a	n/a	red
132.9674	1.0167	ITI	n/a	n/a	n/a	n/a	n/a	n/a	n/a	n/a
133.9841	0.5167	FIXCROSS	n/a	n/a	n/a	n/a	n/a	n/a	n/a	n/a
134.5008	1.0	INK	7	Incongruent	niebieski	blue	zielony	green	hit	n/a
135.4747	n/a	RESPONSE	n/a	n/a	n/a	n/a	n/a	n/a	n/a	green
135.5008	1.0167	ITI	n/a	n/a	n/a	n/a	n/a	n/a	n/a	n/a
136.5175	0.5167	FIXCROSS	n/a	n/a	n/a	n/a	n/a	n/a	n/a	n/a
137.0341	0.6167	INK	8	Incongruent	czerwony	red	zielony	green	hit	n/a
137.6319	n/a	RESPONSE	n/a	n/a	n/a	n/a	n/a	n/a	n/a	green
137.6508	1.0167	ITI	n/a	n/a	n/a	n/a	n/a	n/a	n/a	n/a
138.6675	0.5167	FIXCROSS	n/a	n/a	n/a	n/a	n/a	n/a	n/a	n/a
139.1841	0.65	INK	9	Incongruent	niebieski	blue	zielony	green	hit	n/a
139.8052	n/a	RESPONSE	n/a	n/a	n/a	n/a	n/a	n/a	n/a	green
139.8341	1.0167	ITI	n/a	n/a	n/a	n/a	n/a	n/a	n/a	n/a
140.8508	0.5167	FIXCROSS	n/a	n/a	n/a	n/a	n/a	n/a	n/a	n/a
141.3675	0.75	INK	10	Neutral	xxxxxxxxx	xxxxxxxxx	zielony	green	hit	n/a
142.0903	n/a	RESPONSE	n/a	n/a	n/a	n/a	n/a	n/a	n/a	green
142.1175	1.0167	ITI	n/a	n/a	n/a	n/a	n/a	n/a	n/a	n/a
143.1342	0.5167	FIXCROSS	n/a	n/a	n/a	n/a	n/a	n/a	n/a	n/a
143.6509	0.95	INK	11	Incongruent	żółty	yellow	niebieski	blue	hit	n/a
144.5673	n/a	RESPONSE	n/a	n/a	n/a	n/a	n/a	n/a	n/a	blue
144.6009	1.0167	ITI	n/a	n/a	n/a	n/a	n/a	n/a	n/a	n/a
145.6175	0.5167	FIXCROSS	n/a	n/a	n/a	n/a	n/a	n/a	n/a	n/a
146.1342	0.95	INK	12	Incongruent	czerwony	red	niebieski	blue	hit	n/a
147.0601	n/a	RESPONSE	n/a	n/a	n/a	n/a	n/a	n/a	n/a	blue
147.0842	1.0167	ITI	n/a	n/a	n/a	n/a	n/a	n/a	n/a	n/a
148.1009	0.5167	FIXCROSS	n/a	n/a	n/a	n/a	n/a	n/a	n/a	n/a
148.6176	1.5167	INK	13	Incongruent	niebieski	blue	czerwony	red	hit	n/a
150.1125	n/a	RESPONSE	n/a	n/a	n/a	n/a	n/a	n/a	n/a	red
150.1342	1.0167	ITI	n/a	n/a	n/a	n/a	n/a	n/a	n/a	n/a
151.1509	0.5167	FIXCROSS	n/a	n/a	n/a	n/a	n/a	n/a	n/a	n/a
151.6676	0.9	INK	14	Incongruent	zielony	green	żółty	yellow	hit	n/a
152.5415	n/a	RESPONSE	n/a	n/a	n/a	n/a	n/a	n/a	n/a	yellow
152.5676	1.0167	ITI	n/a	n/a	n/a	n/a	n/a	n/a	n/a	n/a
153.5843	0.5167	FIXCROSS	n/a	n/a	n/a	n/a	n/a	n/a	n/a	n/a
154.1009	0.65	INK	15	Neutral	xxxxxxx	xxxxxxx	żółty	yellow	hit	n/a
154.7307	n/a	RESPONSE	n/a	n/a	n/a	n/a	n/a	n/a	n/a	yellow
154.7509	1.0167	ITI	n/a	n/a	n/a	n/a	n/a	n/a	n/a	n/a
155.7676	0.5167	FIXCROSS	n/a	n/a	n/a	n/a	n/a	n/a	n/a	n/a
156.2843	1.2	INK	16	Neutral	xxxxxxx	xxxxxxx	czerwony	red	incorrect	n/a
157.4634	n/a	RESPONSE	n/a	n/a	n/a	n/a	n/a	n/a	n/a	green
157.4843	1.0167	ITI	n/a	n/a	n/a	n/a	n/a	n/a	n/a	n/a
158.501	0.5167	FIXCROSS	n/a	n/a	n/a	n/a	n/a	n/a	n/a	n/a
159.0176	1.5333	INK	17	Incongruent	niebieski	blue	czerwony	red	hit	n/a
160.5316	n/a	RESPONSE	n/a	n/a	n/a	n/a	n/a	n/a	n/a	red
160.551	1.0167	ITI	n/a	n/a	n/a	n/a	n/a	n/a	n/a	n/a
161.5677	0.5167	FIXCROSS	n/a	n/a	n/a	n/a	n/a	n/a	n/a	n/a
162.0843	0.6333	INK	18	Incongruent	żółty	yellow	czerwony	red	hit	n/a
162.689	n/a	RESPONSE	n/a	n/a	n/a	n/a	n/a	n/a	n/a	red
162.7177	1.0167	ITI	n/a	n/a	n/a	n/a	n/a	n/a	n/a	n/a
163.7343	0.5167	FIXCROSS	n/a	n/a	n/a	n/a	n/a	n/a	n/a	n/a
164.251	1.1	INK	19	Incongruent	zielony	green	niebieski	blue	hit	n/a
165.3258	n/a	RESPONSE	n/a	n/a	n/a	n/a	n/a	n/a	n/a	blue
165.351	1.0167	ITI	n/a	n/a	n/a	n/a	n/a	n/a	n/a	n/a
166.3677	0.5167	FIXCROSS	n/a	n/a	n/a	n/a	n/a	n/a	n/a	n/a
166.8844	0.7833	INK	20	Incongruent	zielony	green	niebieski	blue	hit	n/a
167.6429	n/a	RESPONSE	n/a	n/a	n/a	n/a	n/a	n/a	n/a	blue
167.6677	1.0167	ITI	n/a	n/a	n/a	n/a	n/a	n/a	n/a	n/a
168.6844	0.5167	FIXCROSS	n/a	n/a	n/a	n/a	n/a	n/a	n/a	n/a
169.201	1.5167	INK	21	Incongruent	czerwony	red	zielony	green	hit	n/a
170.6951	n/a	RESPONSE	n/a	n/a	n/a	n/a	n/a	n/a	n/a	green
170.7177	1.0167	ITI	n/a	n/a	n/a	n/a	n/a	n/a	n/a	n/a
171.7344	0.5167	FIXCROSS	n/a	n/a	n/a	n/a	n/a	n/a	n/a	n/a
172.2511	0.8833	INK	22	Incongruent	zielony	green	żółty	yellow	hit	n/a
173.1082	n/a	RESPONSE	n/a	n/a	n/a	n/a	n/a	n/a	n/a	yellow
173.1344	1.0167	ITI	n/a	n/a	n/a	n/a	n/a	n/a	n/a	n/a
174.1511	0.5167	FIXCROSS	n/a	n/a	n/a	n/a	n/a	n/a	n/a	n/a
174.6678	1.05	INK	23	Neutral	xxxxx	xxxxx	niebieski	blue	hit	n/a
175.697	n/a	RESPONSE	n/a	n/a	n/a	n/a	n/a	n/a	n/a	blue
175.7178	1.0167	ITI	n/a	n/a	n/a	n/a	n/a	n/a	n/a	n/a
176.7344	0.5167	FIXCROSS	n/a	n/a	n/a	n/a	n/a	n/a	n/a	n/a
177.2511	1.2833	INK	24	Neutral	xxxxx	xxxxx	zielony	green	hit	n/a
178.5094	n/a	RESPONSE	n/a	n/a	n/a	n/a	n/a	n/a	n/a	green
178.5345	1.0167	ITI	n/a	n/a	n/a	n/a	n/a	n/a	n/a	n/a
179.5511	0.5167	FIXCROSS	n/a	n/a	n/a	n/a	n/a	n/a	n/a	n/a
180.0678	1.0	INK	25	Incongruent	czerwony	red	żółty	yellow	hit	n/a
181.0504	n/a	RESPONSE	n/a	n/a	n/a	n/a	n/a	n/a	n/a	yellow
181.0678	1.0167	ITI	n/a	n/a	n/a	n/a	n/a	n/a	n/a	n/a
182.0845	0.5167	FIXCROSS	n/a	n/a	n/a	n/a	n/a	n/a	n/a	n/a
182.6012	1.0333	INK	26	Neutral	xxxxxxxx	xxxxxxxx	niebieski	blue	hit	n/a
183.6071	n/a	RESPONSE	n/a	n/a	n/a	n/a	n/a	n/a	n/a	blue
183.6345	1.0167	ITI	n/a	n/a	n/a	n/a	n/a	n/a	n/a	n/a
184.6512	0.5167	FIXCROSS	n/a	n/a	n/a	n/a	n/a	n/a	n/a	n/a
185.1678	1.1333	INK	27	Neutral	xxxxxxx	xxxxxxx	czerwony	red	hit	n/a
186.2758	n/a	RESPONSE	n/a	n/a	n/a	n/a	n/a	n/a	n/a	red
186.3012	1.0167	ITI	n/a	n/a	n/a	n/a	n/a	n/a	n/a	n/a
187.3179	0.5167	FIXCROSS	n/a	n/a	n/a	n/a	n/a	n/a	n/a	n/a
187.8345	0.8833	INK	28	Neutral	xxxxxxx	xxxxxxx	żółty	yellow	hit	n/a
188.6889	n/a	RESPONSE	n/a	n/a	n/a	n/a	n/a	n/a	n/a	yellow
188.7179	1.0167	ITI	n/a	n/a	n/a	n/a	n/a	n/a	n/a	n/a
189.7345	0.5167	FIXCROSS	n/a	n/a	n/a	n/a	n/a	n/a	n/a	n/a
190.2512	1.4667	INK	29	Incongruent	żółty	yellow	zielony	green	hit	n/a
191.6932	n/a	RESPONSE	n/a	n/a	n/a	n/a	n/a	n/a	n/a	green
191.7179	1.0167	ITI	n/a	n/a	n/a	n/a	n/a	n/a	n/a	n/a
192.7346	0.5167	FIXCROSS	n/a	n/a	n/a	n/a	n/a	n/a	n/a	n/a
193.2512	1.0167	INK	30	Neutral	xxxxx	xxxxx	niebieski	blue	hit	n/a
194.2341	n/a	RESPONSE	n/a	n/a	n/a	n/a	n/a	n/a	n/a	blue
194.2679	1.0167	ITI	n/a	n/a	n/a	n/a	n/a	n/a	n/a	n/a
195.2846	0.5167	FIXCROSS	n/a	n/a	n/a	n/a	n/a	n/a	n/a	n/a
195.8013	0.9333	INK	31	Incongruent	żółty	yellow	niebieski	blue	hit	n/a
196.711	n/a	RESPONSE	n/a	n/a	n/a	n/a	n/a	n/a	n/a	blue
196.7346	1.0167	ITI	n/a	n/a	n/a	n/a	n/a	n/a	n/a	n/a
197.7513	0.5167	FIXCROSS	n/a	n/a	n/a	n/a	n/a	n/a	n/a	n/a
198.2679	1.3667	INK	32	Incongruent	zielony	green	czerwony	red	hit	n/a
199.6034	n/a	RESPONSE	n/a	n/a	n/a	n/a	n/a	n/a	n/a	red
199.6346	1.0167	ITI	n/a	n/a	n/a	n/a	n/a	n/a	n/a	n/a
200.6513	0.5167	FIXCROSS	n/a	n/a	n/a	n/a	n/a	n/a	n/a	n/a
201.168	0.8833	INK	33	Neutral	xxxxxxxx	xxxxxxxx	żółty	yellow	hit	n/a
202.0324	n/a	RESPONSE	n/a	n/a	n/a	n/a	n/a	n/a	n/a	yellow
202.0513	1.0167	ITI	n/a	n/a	n/a	n/a	n/a	n/a	n/a	n/a
203.068	0.5167	FIXCROSS	n/a	n/a	n/a	n/a	n/a	n/a	n/a	n/a
203.5846	0.8167	INK	34	Neutral	xxxxxxxx	xxxxxxxx	niebieski	blue	hit	n/a
204.3815	n/a	RESPONSE	n/a	n/a	n/a	n/a	n/a	n/a	n/a	blue
204.4013	1.0167	ITI	n/a	n/a	n/a	n/a	n/a	n/a	n/a	n/a
205.418	0.5167	FIXCROSS	n/a	n/a	n/a	n/a	n/a	n/a	n/a	n/a
205.9347	1.0667	INK	35	Incongruent	czerwony	red	żółty	yellow	hit	n/a
206.9704	n/a	RESPONSE	n/a	n/a	n/a	n/a	n/a	n/a	n/a	yellow
207.0013	1.0167	ITI	n/a	n/a	n/a	n/a	n/a	n/a	n/a	n/a
208.018	0.5167	FIXCROSS	n/a	n/a	n/a	n/a	n/a	n/a	n/a	n/a
208.5347	1.2334	INK	36	Incongruent	żółty	yellow	zielony	green	hit	n/a
209.735	n/a	RESPONSE	n/a	n/a	n/a	n/a	n/a	n/a	n/a	green
209.768	1.0167	ITI	n/a	n/a	n/a	n/a	n/a	n/a	n/a	n/a
210.7847	0.5167	FIXCROSS	n/a	n/a	n/a	n/a	n/a	n/a	n/a	n/a
211.3014	1.0834	INK	37	Neutral	xxxxx	xxxxx	czerwony	red	hit	n/a
212.3558	n/a	RESPONSE	n/a	n/a	n/a	n/a	n/a	n/a	n/a	red
212.3847	1.0167	ITI	n/a	n/a	n/a	n/a	n/a	n/a	n/a	n/a
213.4014	0.5167	FIXCROSS	n/a	n/a	n/a	n/a	n/a	n/a	n/a	n/a
213.9181	0.7667	INK	38	Neutral	xxxxxxx	xxxxxxx	niebieski	blue	hit	n/a
214.6569	n/a	RESPONSE	n/a	n/a	n/a	n/a	n/a	n/a	n/a	blue
214.6847	1.0167	ITI	n/a	n/a	n/a	n/a	n/a	n/a	n/a	n/a
215.7014	0.5167	FIXCROSS	n/a	n/a	n/a	n/a	n/a	n/a	n/a	n/a
216.2181	0.8	INK	39	Neutral	xxxxxxx	xxxxxxx	czerwony	red	hit	n/a
216.99	n/a	RESPONSE	n/a	n/a	n/a	n/a	n/a	n/a	n/a	red
217.0181	1.0167	ITI	n/a	n/a	n/a	n/a	n/a	n/a	n/a	n/a
218.0348	0.5167	FIXCROSS	n/a	n/a	n/a	n/a	n/a	n/a	n/a	n/a
218.5514	0.9167	INK	40	Neutral	xxxxx	xxxxx	zielony	green	hit	n/a
219.435	n/a	RESPONSE	n/a	n/a	n/a	n/a	n/a	n/a	n/a	green
219.4681	1.0167	ITI	n/a	n/a	n/a	n/a	n/a	n/a	n/a	n/a
220.4848	0.5167	FIXCROSS	n/a	n/a	n/a	n/a	n/a	n/a	n/a	n/a
221.0015	0.9333	INK	41	Neutral	xxxxxxx	xxxxxxx	żółty	yellow	hit	n/a
221.9119	n/a	RESPONSE	n/a	n/a	n/a	n/a	n/a	n/a	n/a	yellow
221.9348	1.0167	ITI	n/a	n/a	n/a	n/a	n/a	n/a	n/a	n/a
222.9515	0.5167	FIXCROSS	n/a	n/a	n/a	n/a	n/a	n/a	n/a	n/a
223.4681	0.95	INK	42	Neutral	xxxxxxxx	xxxxxxxx	zielony	green	hit	n/a
224.3889	n/a	RESPONSE	n/a	n/a	n/a	n/a	n/a	n/a	n/a	green
224.4181	1.0167	ITI	n/a	n/a	n/a	n/a	n/a	n/a	n/a	n/a
225.4348	0.5167	FIXCROSS	n/a	n/a	n/a	n/a	n/a	n/a	n/a	n/a
225.9515	1.3834	INK	43	Neutral	xxxxxxxxx	xxxxxxxxx	żółty	yellow	hit	n/a
227.3133	n/a	RESPONSE	n/a	n/a	n/a	n/a	n/a	n/a	n/a	yellow
227.3348	1.0167	ITI	n/a	n/a	n/a	n/a	n/a	n/a	n/a	n/a
228.3515	0.5167	FIXCROSS	n/a	n/a	n/a	n/a	n/a	n/a	n/a	n/a
228.8682	0.7167	INK	44	Neutral	xxxxx	xxxxx	zielony	green	hit	n/a
229.5664	n/a	RESPONSE	n/a	n/a	n/a	n/a	n/a	n/a	n/a	green
229.5849	1.0167	ITI	n/a	n/a	n/a	n/a	n/a	n/a	n/a	n/a
230.6015	0.5167	FIXCROSS	n/a	n/a	n/a	n/a	n/a	n/a	n/a	n/a
231.1182	0.7333	INK	45	Neutral	xxxxxxxx	xxxxxxxx	żółty	yellow	hit	n/a
231.8196	n/a	RESPONSE	n/a	n/a	n/a	n/a	n/a	n/a	n/a	yellow
231.8515	1.0167	ITI	n/a	n/a	n/a	n/a	n/a	n/a	n/a	n/a
232.8682	0.5167	FIXCROSS	n/a	n/a	n/a	n/a	n/a	n/a	n/a	n/a
233.3849	0.8667	INK	46	Neutral	xxxxxxxx	xxxxxxxx	niebieski	blue	hit	n/a
234.2327	n/a	RESPONSE	n/a	n/a	n/a	n/a	n/a	n/a	n/a	blue
234.2516	1.0167	ITI	n/a	n/a	n/a	n/a	n/a	n/a	n/a	n/a
235.2682	0.5167	FIXCROSS	n/a	n/a	n/a	n/a	n/a	n/a	n/a	n/a
235.7849	0.85	INK	47	Incongruent	niebieski	blue	żółty	yellow	hit	n/a
236.6137	n/a	RESPONSE	n/a	n/a	n/a	n/a	n/a	n/a	n/a	yellow
236.6349	1.0167	ITI	n/a	n/a	n/a	n/a	n/a	n/a	n/a	n/a
237.6516	0.5167	FIXCROSS	n/a	n/a	n/a	n/a	n/a	n/a	n/a	n/a
238.1683	0.7667	INK	48	Neutral	xxxxxxxxx	xxxxxxxxx	żółty	yellow	hit	n/a
238.9149	n/a	RESPONSE	n/a	n/a	n/a	n/a	n/a	n/a	n/a	yellow
238.9349	1.0167	ITI	n/a	n/a	n/a	n/a	n/a	n/a	n/a	n/a
239.9516	0.5167	FIXCROSS	n/a	n/a	n/a	n/a	n/a	n/a	n/a	n/a
240.4683	1.5	INK	49	Neutral	xxxxxxxxx	xxxxxxxxx	zielony	green	hit	n/a
241.9351	n/a	RESPONSE	n/a	n/a	n/a	n/a	n/a	n/a	n/a	green
241.9683	1.0167	ITI	n/a	n/a	n/a	n/a	n/a	n/a	n/a	n/a
242.985	0.5167	FIXCROSS	n/a	n/a	n/a	n/a	n/a	n/a	n/a	n/a
243.5016	0.8	INK	50	Neutral	xxxxx	xxxxx	czerwony	red	hit	n/a
244.2682	n/a	RESPONSE	n/a	n/a	n/a	n/a	n/a	n/a	n/a	red
244.3016	1.0167	ITI	n/a	n/a	n/a	n/a	n/a	n/a	n/a	n/a
245.3183	0.5167	FIXCROSS	n/a	n/a	n/a	n/a	n/a	n/a	n/a	n/a
245.835	0.8667	INK	51	Incongruent	żółty	yellow	niebieski	blue	hit	n/a
246.6812	n/a	RESPONSE	n/a	n/a	n/a	n/a	n/a	n/a	n/a	blue
246.7017	1.0167	ITI	n/a	n/a	n/a	n/a	n/a	n/a	n/a	n/a
247.7183	0.5167	FIXCROSS	n/a	n/a	n/a	n/a	n/a	n/a	n/a	n/a
248.235	0.6833	INK	52	Incongruent	czerwony	red	niebieski	blue	hit	n/a
248.8864	n/a	RESPONSE	n/a	n/a	n/a	n/a	n/a	n/a	n/a	blue
248.9183	1.0167	ITI	n/a	n/a	n/a	n/a	n/a	n/a	n/a	n/a
249.935	0.5167	FIXCROSS	n/a	n/a	n/a	n/a	n/a	n/a	n/a	n/a
250.4517	1.3167	INK	53	Incongruent	niebieski	blue	zielony	green	hit	n/a
251.7469	n/a	RESPONSE	n/a	n/a	n/a	n/a	n/a	n/a	n/a	green
251.7684	1.0167	ITI	n/a	n/a	n/a	n/a	n/a	n/a	n/a	n/a
252.785	0.5167	FIXCROSS	n/a	n/a	n/a	n/a	n/a	n/a	n/a	n/a
253.3017	0.6833	INK	54	Neutral	xxxxxxxxx	xxxxxxxxx	żółty	yellow	hit	n/a
253.9521	n/a	RESPONSE	n/a	n/a	n/a	n/a	n/a	n/a	n/a	yellow
253.985	1.0167	ITI	n/a	n/a	n/a	n/a	n/a	n/a	n/a	n/a
255.0017	0.5167	FIXCROSS	n/a	n/a	n/a	n/a	n/a	n/a	n/a	n/a
255.5184	1.4667	INK	55	Incongruent	niebieski	blue	czerwony	red	hit	n/a
256.9564	n/a	RESPONSE	n/a	n/a	n/a	n/a	n/a	n/a	n/a	red
256.9851	1.0167	ITI	n/a	n/a	n/a	n/a	n/a	n/a	n/a	n/a
258.0017	0.5167	FIXCROSS	n/a	n/a	n/a	n/a	n/a	n/a	n/a	n/a
258.5184	0.7	INK	56	Incongruent	zielony	green	czerwony	red	hit	n/a
259.1937	n/a	RESPONSE	n/a	n/a	n/a	n/a	n/a	n/a	n/a	red
259.2184	1.0167	ITI	n/a	n/a	n/a	n/a	n/a	n/a	n/a	n/a
260.2351	0.5167	FIXCROSS	n/a	n/a	n/a	n/a	n/a	n/a	n/a	n/a
260.7518	1.0167	INK	57	Incongruent	zielony	green	żółty	yellow	hit	n/a
261.7345	n/a	RESPONSE	n/a	n/a	n/a	n/a	n/a	n/a	n/a	yellow
261.7684	1.0167	ITI	n/a	n/a	n/a	n/a	n/a	n/a	n/a	n/a
262.7851	0.5167	FIXCROSS	n/a	n/a	n/a	n/a	n/a	n/a	n/a	n/a
263.3018	0.6	INK	58	Neutral	xxxxxxxx	xxxxxxxx	żółty	yellow	hit	n/a
263.8759	n/a	RESPONSE	n/a	n/a	n/a	n/a	n/a	n/a	n/a	yellow
263.9018	1.0167	ITI	n/a	n/a	n/a	n/a	n/a	n/a	n/a	n/a
264.9185	0.5167	FIXCROSS	n/a	n/a	n/a	n/a	n/a	n/a	n/a	n/a
265.4351	0.9833	INK	59	Incongruent	żółty	yellow	zielony	green	hit	n/a
266.4007	n/a	RESPONSE	n/a	n/a	n/a	n/a	n/a	n/a	n/a	green
266.4185	1.0167	ITI	n/a	n/a	n/a	n/a	n/a	n/a	n/a	n/a
267.4351	0.5167	FIXCROSS	n/a	n/a	n/a	n/a	n/a	n/a	n/a	n/a
267.9518	1.6167	INK	60	Incongruent	żółty	yellow	czerwony	red	hit	n/a
269.5488	n/a	RESPONSE	n/a	n/a	n/a	n/a	n/a	n/a	n/a	red
269.5685	1.0167	ITI	n/a	n/a	n/a	n/a	n/a	n/a	n/a	n/a
270.5852	0.5167	FIXCROSS	n/a	n/a	n/a	n/a	n/a	n/a	n/a	n/a
271.1018	0.9833	INK	61	Neutral	xxxxxxx	xxxxxxx	niebieski	blue	hit	n/a
272.0576	n/a	RESPONSE	n/a	n/a	n/a	n/a	n/a	n/a	n/a	blue
272.0852	1.0167	ITI	n/a	n/a	n/a	n/a	n/a	n/a	n/a	n/a
273.1019	0.5167	FIXCROSS	n/a	n/a	n/a	n/a	n/a	n/a	n/a	n/a
273.6185	1.35	INK	62	Neutral	xxxxx	xxxxx	niebieski	blue	hit	n/a
274.9501	n/a	RESPONSE	n/a	n/a	n/a	n/a	n/a	n/a	n/a	blue
274.9685	1.0167	ITI	n/a	n/a	n/a	n/a	n/a	n/a	n/a	n/a
275.9852	0.5167	FIXCROSS	n/a	n/a	n/a	n/a	n/a	n/a	n/a	n/a
276.5019	0.6	INK	63	Incongruent	niebieski	blue	żółty	yellow	hit	n/a
277.0755	n/a	RESPONSE	n/a	n/a	n/a	n/a	n/a	n/a	n/a	yellow
277.1019	1.0167	ITI	n/a	n/a	n/a	n/a	n/a	n/a	n/a	n/a
278.1186	0.5167	FIXCROSS	n/a	n/a	n/a	n/a	n/a	n/a	n/a	n/a
278.6352	0.4833	INK	64	Incongruent	czerwony	red	żółty	yellow	hit	n/a
279.0889	n/a	RESPONSE	n/a	n/a	n/a	n/a	n/a	n/a	n/a	yellow
279.1186	1.0167	ITI	n/a	n/a	n/a	n/a	n/a	n/a	n/a	n/a
280.1352	0.5167	FIXCROSS	n/a	n/a	n/a	n/a	n/a	n/a	n/a	n/a
280.6519	1.7333	INK	65	Neutral	xxxxxxxxx	xxxxxxxxx	czerwony	red	hit	n/a
282.3649	n/a	RESPONSE	n/a	n/a	n/a	n/a	n/a	n/a	n/a	red
282.3853	1.0167	ITI	n/a	n/a	n/a	n/a	n/a	n/a	n/a	n/a
283.4019	0.5167	FIXCROSS	n/a	n/a	n/a	n/a	n/a	n/a	n/a	n/a
283.9186	0.4	INK	66	Incongruent	zielony	green	czerwony	red	hit	n/a
284.2985	n/a	RESPONSE	n/a	n/a	n/a	n/a	n/a	n/a	n/a	red
284.3186	1.0167	ITI	n/a	n/a	n/a	n/a	n/a	n/a	n/a	n/a
285.3353	0.5167	FIXCROSS	n/a	n/a	n/a	n/a	n/a	n/a	n/a	n/a
285.852	0.8667	INK	67	Neutral	xxxxxxxx	xxxxxxxx	zielony	green	hit	n/a
286.6955	n/a	RESPONSE	n/a	n/a	n/a	n/a	n/a	n/a	n/a	green
286.7186	1.0167	ITI	n/a	n/a	n/a	n/a	n/a	n/a	n/a	n/a
287.7353	0.5167	FIXCROSS	n/a	n/a	n/a	n/a	n/a	n/a	n/a	n/a
288.252	0.5333	INK	68	Neutral	xxxxxxxx	xxxxxxxx	zielony	green	hit	n/a
288.757	n/a	RESPONSE	n/a	n/a	n/a	n/a	n/a	n/a	n/a	green
288.7853	1.0167	ITI	n/a	n/a	n/a	n/a	n/a	n/a	n/a	n/a
289.802	0.5167	FIXCROSS	n/a	n/a	n/a	n/a	n/a	n/a	n/a	n/a
290.3187	0.5667	INK	69	Incongruent	niebieski	blue	żółty	yellow	hit	n/a
290.8662	n/a	RESPONSE	n/a	n/a	n/a	n/a	n/a	n/a	n/a	yellow
290.8853	1.0167	ITI	n/a	n/a	n/a	n/a	n/a	n/a	n/a	n/a
291.902	0.5167	FIXCROSS	n/a	n/a	n/a	n/a	n/a	n/a	n/a	n/a
292.4187	0.9833	INK	70	Neutral	xxxxxxx	xxxxxxx	niebieski	blue	hit	n/a
293.3751	n/a	RESPONSE	n/a	n/a	n/a	n/a	n/a	n/a	n/a	blue
293.402	1.0167	ITI	n/a	n/a	n/a	n/a	n/a	n/a	n/a	n/a
294.4187	0.5167	FIXCROSS	n/a	n/a	n/a	n/a	n/a	n/a	n/a	n/a
294.9353	1.1333	INK	71	Neutral	xxxxxxxxx	xxxxxxxxx	czerwony	red	hit	n/a
296.0439	n/a	RESPONSE	n/a	n/a	n/a	n/a	n/a	n/a	n/a	red
296.0687	1.0167	ITI	n/a	n/a	n/a	n/a	n/a	n/a	n/a	n/a
297.0854	0.5167	FIXCROSS	n/a	n/a	n/a	n/a	n/a	n/a	n/a	n/a
297.602	1.0667	INK	72	Incongruent	czerwony	red	niebieski	blue	hit	n/a
298.6486	n/a	RESPONSE	n/a	n/a	n/a	n/a	n/a	n/a	n/a	blue
298.6687	1.0833	ITI	n/a	n/a	n/a	n/a	n/a	n/a	n/a	n/a
325.767	n/a	RESPONSE	n/a	n/a	n/a	n/a	n/a	n/a	n/a	n/a
325.8356	1.0167	ITI	n/a	n/a	n/a	n/a	n/a	n/a	n/a	n/a
326.8523	0.5167	FIXCROSS	n/a	n/a	n/a	n/a	n/a	n/a	n/a	n/a
327.3689	1.1667	T_COLOR_NAME	1	Neutral	niebieski	blue	Neutral	Neutral	hit	n/a
328.4996	n/a	RESPONSE	n/a	n/a	n/a	n/a	n/a	n/a	n/a	blue
328.5356	0.5167	FEEDBACK	n/a	n/a	n/a	n/a	n/a	n/a	n/a	n/a
329.0523	1.0167	ITI	n/a	n/a	n/a	n/a	n/a	n/a	n/a	n/a
330.069	0.5167	FIXCROSS	n/a	n/a	n/a	n/a	n/a	n/a	n/a	n/a
330.5856	2.0333	T_COLOR_NAME	2	Incongruent	zielony	green	niebieski	blue	hit	n/a
332.5907	n/a	RESPONSE	n/a	n/a	n/a	n/a	n/a	n/a	n/a	green
332.619	0.5167	FEEDBACK	n/a	n/a	n/a	n/a	n/a	n/a	n/a	n/a
333.1356	1.0167	ITI	n/a	n/a	n/a	n/a	n/a	n/a	n/a	n/a
334.1523	0.5167	FIXCROSS	n/a	n/a	n/a	n/a	n/a	n/a	n/a	n/a
334.669	0.8334	T_COLOR_NAME	3	Neutral	czerwony	red	Neutral	Neutral	hit	n/a
335.4671	n/a	RESPONSE	n/a	n/a	n/a	n/a	n/a	n/a	n/a	red
335.5023	0.5167	FEEDBACK	n/a	n/a	n/a	n/a	n/a	n/a	n/a	n/a
336.019	1.0167	ITI	n/a	n/a	n/a	n/a	n/a	n/a	n/a	n/a
337.0357	0.5167	FIXCROSS	n/a	n/a	n/a	n/a	n/a	n/a	n/a	n/a
337.5523	1.0333	T_COLOR_NAME	4	Incongruent	niebieski	blue	żółty	yellow	hit	n/a
338.5513	n/a	RESPONSE	n/a	n/a	n/a	n/a	n/a	n/a	n/a	blue
338.5857	0.5167	FEEDBACK	n/a	n/a	n/a	n/a	n/a	n/a	n/a	n/a
339.1024	1.0167	ITI	n/a	n/a	n/a	n/a	n/a	n/a	n/a	n/a
340.119	0.5167	FIXCROSS	n/a	n/a	n/a	n/a	n/a	n/a	n/a	n/a
340.6357	0.5667	T_COLOR_NAME	5	Neutral	żółty	yellow	Neutral	Neutral	hit	n/a
341.172	n/a	RESPONSE	n/a	n/a	n/a	n/a	n/a	n/a	n/a	yellow
341.2024	0.5167	FEEDBACK	n/a	n/a	n/a	n/a	n/a	n/a	n/a	n/a
341.719	1.0167	ITI	n/a	n/a	n/a	n/a	n/a	n/a	n/a	n/a
342.7357	0.5167	FIXCROSS	n/a	n/a	n/a	n/a	n/a	n/a	n/a	n/a
343.2524	0.8	T_COLOR_NAME	6	Incongruent	niebieski	blue	zielony	green	hit	n/a
344.0324	n/a	RESPONSE	n/a	n/a	n/a	n/a	n/a	n/a	n/a	blue
344.0524	0.5167	FEEDBACK	n/a	n/a	n/a	n/a	n/a	n/a	n/a	n/a
344.5691	1.0167	ITI	n/a	n/a	n/a	n/a	n/a	n/a	n/a	n/a
345.5857	0.5167	FIXCROSS	n/a	n/a	n/a	n/a	n/a	n/a	n/a	n/a
346.1024	0.6833	T_COLOR_NAME	7	Incongruent	niebieski	blue	czerwony	red	hit	n/a
346.7652	n/a	RESPONSE	n/a	n/a	n/a	n/a	n/a	n/a	n/a	blue
346.7858	0.5167	FEEDBACK	n/a	n/a	n/a	n/a	n/a	n/a	n/a	n/a
347.3024	1.0167	ITI	n/a	n/a	n/a	n/a	n/a	n/a	n/a	n/a
348.3191	0.5167	FIXCROSS	n/a	n/a	n/a	n/a	n/a	n/a	n/a	n/a
348.8358	0.7833	T_COLOR_NAME	8	Incongruent	żółty	yellow	zielony	green	hit	n/a
349.5937	n/a	RESPONSE	n/a	n/a	n/a	n/a	n/a	n/a	n/a	yellow
349.6191	0.5167	FEEDBACK	n/a	n/a	n/a	n/a	n/a	n/a	n/a	n/a
350.1358	1.0167	ITI	n/a	n/a	n/a	n/a	n/a	n/a	n/a	n/a
351.1525	0.5167	FIXCROSS	n/a	n/a	n/a	n/a	n/a	n/a	n/a	n/a
351.6691	0.8333	T_COLOR_NAME	9	Neutral	czerwony	red	Neutral	Neutral	hit	n/a
352.4701	n/a	RESPONSE	n/a	n/a	n/a	n/a	n/a	n/a	n/a	red
352.5025	0.5167	FEEDBACK	n/a	n/a	n/a	n/a	n/a	n/a	n/a	n/a
353.0191	1.0167	ITI	n/a	n/a	n/a	n/a	n/a	n/a	n/a	n/a
354.0358	0.5167	FIXCROSS	n/a	n/a	n/a	n/a	n/a	n/a	n/a	n/a
354.5525	1.0	T_COLOR_NAME	10	Neutral	zielony	green	Neutral	Neutral	hit	n/a
355.5223	n/a	RESPONSE	n/a	n/a	n/a	n/a	n/a	n/a	n/a	green
355.5525	0.5167	FEEDBACK	n/a	n/a	n/a	n/a	n/a	n/a	n/a	n/a
356.0692	1.0167	ITI	n/a	n/a	n/a	n/a	n/a	n/a	n/a	n/a
357.0858	0.5167	FIXCROSS	n/a	n/a	n/a	n/a	n/a	n/a	n/a	n/a
357.6025	1.0667	T_COLOR_NAME	11	Incongruent	czerwony	red	żółty	yellow	hit	n/a
358.6384	n/a	RESPONSE	n/a	n/a	n/a	n/a	n/a	n/a	n/a	red
358.6692	0.5167	FEEDBACK	n/a	n/a	n/a	n/a	n/a	n/a	n/a	n/a
359.1858	1.0167	ITI	n/a	n/a	n/a	n/a	n/a	n/a	n/a	n/a
360.2025	0.5167	FIXCROSS	n/a	n/a	n/a	n/a	n/a	n/a	n/a	n/a
360.7192	1.6	T_COLOR_NAME	12	Incongruent	żółty	yellow	czerwony	red	hit	n/a
362.2979	n/a	RESPONSE	n/a	n/a	n/a	n/a	n/a	n/a	n/a	yellow
362.3192	0.5167	FEEDBACK	n/a	n/a	n/a	n/a	n/a	n/a	n/a	n/a
362.8359	1.0333	ITI	n/a	n/a	n/a	n/a	n/a	n/a	n/a	n/a
365.5098	n/a	RESPONSE	n/a	n/a	n/a	n/a	n/a	n/a	n/a	n/a
365.5692	1.0167	ITI	n/a	n/a	n/a	n/a	n/a	n/a	n/a	n/a
366.5859	0.5167	FIXCROSS	n/a	n/a	n/a	n/a	n/a	n/a	n/a	n/a
367.1026	1.1	COLOR_NAME	1	Neutral	czerwony	red	Neutral	Neutral	hit	n/a
368.1785	n/a	RESPONSE	n/a	n/a	n/a	n/a	n/a	n/a	n/a	red
368.2026	1.0167	ITI	n/a	n/a	n/a	n/a	n/a	n/a	n/a	n/a
369.2193	0.5167	FIXCROSS	n/a	n/a	n/a	n/a	n/a	n/a	n/a	n/a
369.7359	0.6331	COLOR_NAME	2	Neutral	niebieski	blue	Neutral	Neutral	hit	n/a
370.3518	n/a	RESPONSE	n/a	n/a	n/a	n/a	n/a	n/a	n/a	blue
370.369	1.0169	ITI	n/a	n/a	n/a	n/a	n/a	n/a	n/a	n/a
371.3859	0.5167	FIXCROSS	n/a	n/a	n/a	n/a	n/a	n/a	n/a	n/a
371.9026	0.9667	COLOR_NAME	3	Incongruent	zielony	green	niebieski	blue	hit	n/a
372.8448	n/a	RESPONSE	n/a	n/a	n/a	n/a	n/a	n/a	n/a	green
372.8693	1.0167	ITI	n/a	n/a	n/a	n/a	n/a	n/a	n/a	n/a
373.886	0.5167	FIXCROSS	n/a	n/a	n/a	n/a	n/a	n/a	n/a	n/a
374.4026	1.35	COLOR_NAME	4	Neutral	niebieski	blue	Neutral	Neutral	hit	n/a
375.7212	n/a	RESPONSE	n/a	n/a	n/a	n/a	n/a	n/a	n/a	blue
375.7526	1.0167	ITI	n/a	n/a	n/a	n/a	n/a	n/a	n/a	n/a
376.7693	0.5167	FIXCROSS	n/a	n/a	n/a	n/a	n/a	n/a	n/a	n/a
377.286	0.9	COLOR_NAME	5	Neutral	niebieski	blue	Neutral	Neutral	hit	n/a
378.1662	n/a	RESPONSE	n/a	n/a	n/a	n/a	n/a	n/a	n/a	blue
378.186	1.0167	ITI	n/a	n/a	n/a	n/a	n/a	n/a	n/a	n/a
379.2027	0.5167	FIXCROSS	n/a	n/a	n/a	n/a	n/a	n/a	n/a	n/a
379.7193	0.7333	COLOR_NAME	6	Neutral	zielony	green	Neutral	Neutral	hit	n/a
380.4194	n/a	RESPONSE	n/a	n/a	n/a	n/a	n/a	n/a	n/a	green
380.4527	1.0167	ITI	n/a	n/a	n/a	n/a	n/a	n/a	n/a	n/a
381.4693	0.5167	FIXCROSS	n/a	n/a	n/a	n/a	n/a	n/a	n/a	n/a
381.986	0.85	COLOR_NAME	7	Incongruent	żółty	yellow	zielony	green	hit	n/a
382.8164	n/a	RESPONSE	n/a	n/a	n/a	n/a	n/a	n/a	n/a	yellow
382.836	1.0167	ITI	n/a	n/a	n/a	n/a	n/a	n/a	n/a	n/a
383.8527	0.5167	FIXCROSS	n/a	n/a	n/a	n/a	n/a	n/a	n/a	n/a
384.3694	1.0167	COLOR_NAME	8	Incongruent	niebieski	blue	żółty	yellow	hit	n/a
385.3574	n/a	RESPONSE	n/a	n/a	n/a	n/a	n/a	n/a	n/a	blue
385.386	1.0167	ITI	n/a	n/a	n/a	n/a	n/a	n/a	n/a	n/a
386.4027	0.5167	FIXCROSS	n/a	n/a	n/a	n/a	n/a	n/a	n/a	n/a
386.9194	0.5333	COLOR_NAME	9	Incongruent	niebieski	blue	żółty	yellow	hit	n/a
387.4349	n/a	RESPONSE	n/a	n/a	n/a	n/a	n/a	n/a	n/a	blue
387.4527	1.0167	ITI	n/a	n/a	n/a	n/a	n/a	n/a	n/a	n/a
388.4694	0.5167	FIXCROSS	n/a	n/a	n/a	n/a	n/a	n/a	n/a	n/a
388.9861	1.1667	COLOR_NAME	10	Neutral	czerwony	red	Neutral	Neutral	hit	n/a
390.1195	n/a	RESPONSE	n/a	n/a	n/a	n/a	n/a	n/a	n/a	red
390.1528	1.0166	ITI	n/a	n/a	n/a	n/a	n/a	n/a	n/a	n/a
391.1693	0.5168	FIXCROSS	n/a	n/a	n/a	n/a	n/a	n/a	n/a	n/a
391.6861	1.1334	COLOR_NAME	11	Incongruent	zielony	green	żółty	yellow	hit	n/a
392.7882	n/a	RESPONSE	n/a	n/a	n/a	n/a	n/a	n/a	n/a	green
392.8194	1.0167	ITI	n/a	n/a	n/a	n/a	n/a	n/a	n/a	n/a
393.8361	0.5167	FIXCROSS	n/a	n/a	n/a	n/a	n/a	n/a	n/a	n/a
394.3528	0.85	COLOR_NAME	12	Neutral	żółty	yellow	Neutral	Neutral	hit	n/a
395.1851	n/a	RESPONSE	n/a	n/a	n/a	n/a	n/a	n/a	n/a	yellow
395.2028	1.0167	ITI	n/a	n/a	n/a	n/a	n/a	n/a	n/a	n/a
396.2195	0.5167	FIXCROSS	n/a	n/a	n/a	n/a	n/a	n/a	n/a	n/a
396.7361	1.0333	COLOR_NAME	13	Neutral	zielony	green	Neutral	Neutral	hit	n/a
397.742	n/a	RESPONSE	n/a	n/a	n/a	n/a	n/a	n/a	n/a	green
397.7695	1.0167	ITI	n/a	n/a	n/a	n/a	n/a	n/a	n/a	n/a
398.7861	0.5167	FIXCROSS	n/a	n/a	n/a	n/a	n/a	n/a	n/a	n/a
399.3028	0.7167	COLOR_NAME	14	Incongruent	czerwony	red	zielony	green	hit	n/a
399.9952	n/a	RESPONSE	n/a	n/a	n/a	n/a	n/a	n/a	n/a	red
400.0195	1.0167	ITI	n/a	n/a	n/a	n/a	n/a	n/a	n/a	n/a
401.0362	0.5167	FIXCROSS	n/a	n/a	n/a	n/a	n/a	n/a	n/a	n/a
401.5528	0.7	COLOR_NAME	15	Neutral	zielony	green	Neutral	Neutral	hit	n/a
402.2324	n/a	RESPONSE	n/a	n/a	n/a	n/a	n/a	n/a	n/a	green
402.2528	1.0167	ITI	n/a	n/a	n/a	n/a	n/a	n/a	n/a	n/a
403.2695	0.5167	FIXCROSS	n/a	n/a	n/a	n/a	n/a	n/a	n/a	n/a
403.7862	0.55	COLOR_NAME	16	Neutral	żółty	yellow	Neutral	Neutral	hit	n/a
404.3099	n/a	RESPONSE	n/a	n/a	n/a	n/a	n/a	n/a	n/a	yellow
404.3362	1.0167	ITI	n/a	n/a	n/a	n/a	n/a	n/a	n/a	n/a
405.3529	0.5167	FIXCROSS	n/a	n/a	n/a	n/a	n/a	n/a	n/a	n/a
405.8695	0.5667	COLOR_NAME	17	Incongruent	żółty	yellow	niebieski	blue	hit	n/a
406.4033	n/a	RESPONSE	n/a	n/a	n/a	n/a	n/a	n/a	n/a	yellow
406.4362	1.0167	ITI	n/a	n/a	n/a	n/a	n/a	n/a	n/a	n/a
407.4529	0.5167	FIXCROSS	n/a	n/a	n/a	n/a	n/a	n/a	n/a	n/a
407.9695	1.0333	COLOR_NAME	18	Incongruent	czerwony	red	niebieski	blue	hit	n/a
408.9761	n/a	RESPONSE	n/a	n/a	n/a	n/a	n/a	n/a	n/a	red
409.0029	1.0167	ITI	n/a	n/a	n/a	n/a	n/a	n/a	n/a	n/a
410.0196	0.5167	FIXCROSS	n/a	n/a	n/a	n/a	n/a	n/a	n/a	n/a
410.5362	0.6333	COLOR_NAME	19	Neutral	zielony	green	Neutral	Neutral	hit	n/a
411.1495	n/a	RESPONSE	n/a	n/a	n/a	n/a	n/a	n/a	n/a	green
411.1696	1.0167	ITI	n/a	n/a	n/a	n/a	n/a	n/a	n/a	n/a
412.1862	0.5167	FIXCROSS	n/a	n/a	n/a	n/a	n/a	n/a	n/a	n/a
412.7029	0.6833	COLOR_NAME	20	Incongruent	niebieski	blue	czerwony	red	hit	n/a
413.3547	n/a	RESPONSE	n/a	n/a	n/a	n/a	n/a	n/a	n/a	blue
413.3863	1.0167	ITI	n/a	n/a	n/a	n/a	n/a	n/a	n/a	n/a
414.4029	0.5167	FIXCROSS	n/a	n/a	n/a	n/a	n/a	n/a	n/a	n/a
414.9196	0.5167	COLOR_NAME	21	Incongruent	żółty	yellow	czerwony	red	hit	n/a
415.4162	n/a	RESPONSE	n/a	n/a	n/a	n/a	n/a	n/a	n/a	yellow
415.4363	1.0167	ITI	n/a	n/a	n/a	n/a	n/a	n/a	n/a	n/a
416.453	0.5167	FIXCROSS	n/a	n/a	n/a	n/a	n/a	n/a	n/a	n/a
416.9696	0.8833	COLOR_NAME	22	Incongruent	zielony	green	czerwony	red	incorrect	n/a
417.8293	n/a	RESPONSE	n/a	n/a	n/a	n/a	n/a	n/a	n/a	red
417.853	1.0167	ITI	n/a	n/a	n/a	n/a	n/a	n/a	n/a	n/a
418.8696	0.5167	FIXCROSS	n/a	n/a	n/a	n/a	n/a	n/a	n/a	n/a
419.3863	0.7167	COLOR_NAME	23	Neutral	zielony	green	Neutral	Neutral	hit	n/a
420.0825	n/a	RESPONSE	n/a	n/a	n/a	n/a	n/a	n/a	n/a	green
420.103	1.0167	ITI	n/a	n/a	n/a	n/a	n/a	n/a	n/a	n/a
421.1197	0.5167	FIXCROSS	n/a	n/a	n/a	n/a	n/a	n/a	n/a	n/a
421.6363	0.7167	COLOR_NAME	24	Incongruent	czerwony	red	zielony	green	hit	n/a
422.3357	n/a	RESPONSE	n/a	n/a	n/a	n/a	n/a	n/a	n/a	red
422.353	1.0167	ITI	n/a	n/a	n/a	n/a	n/a	n/a	n/a	n/a
423.3697	0.5167	FIXCROSS	n/a	n/a	n/a	n/a	n/a	n/a	n/a	n/a
423.8863	0.7833	COLOR_NAME	25	Incongruent	niebieski	blue	zielony	green	hit	n/a
424.6369	n/a	RESPONSE	n/a	n/a	n/a	n/a	n/a	n/a	n/a	blue
424.6697	1.0167	ITI	n/a	n/a	n/a	n/a	n/a	n/a	n/a	n/a
425.6864	0.5167	FIXCROSS	n/a	n/a	n/a	n/a	n/a	n/a	n/a	n/a
426.203	0.5333	COLOR_NAME	26	Neutral	żółty	yellow	Neutral	Neutral	hit	n/a
426.7144	n/a	RESPONSE	n/a	n/a	n/a	n/a	n/a	n/a	n/a	yellow
426.7364	1.0167	ITI	n/a	n/a	n/a	n/a	n/a	n/a	n/a	n/a
427.753	0.5167	FIXCROSS	n/a	n/a	n/a	n/a	n/a	n/a	n/a	n/a
428.2697	0.85	COLOR_NAME	27	Neutral	niebieski	blue	Neutral	Neutral	hit	n/a
429.0954	n/a	RESPONSE	n/a	n/a	n/a	n/a	n/a	n/a	n/a	blue
429.1197	1.0167	ITI	n/a	n/a	n/a	n/a	n/a	n/a	n/a	n/a
430.1364	0.5167	FIXCROSS	n/a	n/a	n/a	n/a	n/a	n/a	n/a	n/a
430.6531	0.8833	COLOR_NAME	28	Incongruent	żółty	yellow	zielony	green	hit	n/a
431.5084	n/a	RESPONSE	n/a	n/a	n/a	n/a	n/a	n/a	n/a	yellow
431.5364	1.0167	ITI	n/a	n/a	n/a	n/a	n/a	n/a	n/a	n/a
432.5531	0.5167	FIXCROSS	n/a	n/a	n/a	n/a	n/a	n/a	n/a	n/a
433.0697	1.3167	COLOR_NAME	29	Incongruent	czerwony	red	niebieski	blue	hit	n/a
434.3528	n/a	RESPONSE	n/a	n/a	n/a	n/a	n/a	n/a	n/a	red
434.3864	1.0167	ITI	n/a	n/a	n/a	n/a	n/a	n/a	n/a	n/a
435.4031	0.5167	FIXCROSS	n/a	n/a	n/a	n/a	n/a	n/a	n/a	n/a
435.9198	0.5333	COLOR_NAME	30	Neutral	czerwony	red	Neutral	Neutral	hit	n/a
436.4303	n/a	RESPONSE	n/a	n/a	n/a	n/a	n/a	n/a	n/a	red
436.4531	1.0167	ITI	n/a	n/a	n/a	n/a	n/a	n/a	n/a	n/a
437.4698	0.5167	FIXCROSS	n/a	n/a	n/a	n/a	n/a	n/a	n/a	n/a
437.9864	0.7833	COLOR_NAME	31	Neutral	żółty	yellow	Neutral	Neutral	hit	n/a
438.7474	n/a	RESPONSE	n/a	n/a	n/a	n/a	n/a	n/a	n/a	yellow
438.7698	1.0167	ITI	n/a	n/a	n/a	n/a	n/a	n/a	n/a	n/a
439.7865	0.5167	FIXCROSS	n/a	n/a	n/a	n/a	n/a	n/a	n/a	n/a
440.3031	0.4833	COLOR_NAME	32	Neutral	zielony	green	Neutral	Neutral	hit	n/a
440.761	n/a	RESPONSE	n/a	n/a	n/a	n/a	n/a	n/a	n/a	green
440.7865	1.0166	ITI	n/a	n/a	n/a	n/a	n/a	n/a	n/a	n/a
441.8031	0.5167	FIXCROSS	n/a	n/a	n/a	n/a	n/a	n/a	n/a	n/a
442.3198	0.55	COLOR_NAME	33	Neutral	niebieski	blue	Neutral	Neutral	hit	n/a
442.8383	n/a	RESPONSE	n/a	n/a	n/a	n/a	n/a	n/a	n/a	blue
442.8698	1.0167	ITI	n/a	n/a	n/a	n/a	n/a	n/a	n/a	n/a
443.8865	0.5167	FIXCROSS	n/a	n/a	n/a	n/a	n/a	n/a	n/a	n/a
444.4032	1.3833	COLOR_NAME	34	Incongruent	zielony	green	czerwony	red	hit	n/a
445.7628	n/a	RESPONSE	n/a	n/a	n/a	n/a	n/a	n/a	n/a	green
445.7865	1.0167	ITI	n/a	n/a	n/a	n/a	n/a	n/a	n/a	n/a
446.8032	0.5167	FIXCROSS	n/a	n/a	n/a	n/a	n/a	n/a	n/a	n/a
447.3199	0.9	COLOR_NAME	35	Neutral	żółty	yellow	Neutral	Neutral	hit	n/a
448.1918	n/a	RESPONSE	n/a	n/a	n/a	n/a	n/a	n/a	n/a	yellow
448.2199	1.0167	ITI	n/a	n/a	n/a	n/a	n/a	n/a	n/a	n/a
449.2365	0.5167	FIXCROSS	n/a	n/a	n/a	n/a	n/a	n/a	n/a	n/a
449.7532	0.9333	COLOR_NAME	36	Incongruent	czerwony	red	żółty	yellow	hit	n/a
450.6687	n/a	RESPONSE	n/a	n/a	n/a	n/a	n/a	n/a	n/a	red
450.6865	1.0167	ITI	n/a	n/a	n/a	n/a	n/a	n/a	n/a	n/a
451.7032	0.5167	FIXCROSS	n/a	n/a	n/a	n/a	n/a	n/a	n/a	n/a
452.2199	1.05	COLOR_NAME	37	Incongruent	żółty	yellow	czerwony	red	hit	n/a
453.2415	n/a	RESPONSE	n/a	n/a	n/a	n/a	n/a	n/a	n/a	yellow
453.2699	1.0167	ITI	n/a	n/a	n/a	n/a	n/a	n/a	n/a	n/a
454.2866	0.5167	FIXCROSS	n/a	n/a	n/a	n/a	n/a	n/a	n/a	n/a
454.8032	1.15	COLOR_NAME	38	Incongruent	zielony	green	czerwony	red	hit	n/a
455.9262	n/a	RESPONSE	n/a	n/a	n/a	n/a	n/a	n/a	n/a	green
455.9533	1.0167	ITI	n/a	n/a	n/a	n/a	n/a	n/a	n/a	n/a
456.9699	0.5167	FIXCROSS	n/a	n/a	n/a	n/a	n/a	n/a	n/a	n/a
457.4866	0.9333	COLOR_NAME	39	Neutral	żółty	yellow	Neutral	Neutral	hit	n/a
458.3872	n/a	RESPONSE	n/a	n/a	n/a	n/a	n/a	n/a	n/a	yellow
458.4199	1.0167	ITI	n/a	n/a	n/a	n/a	n/a	n/a	n/a	n/a
459.4366	0.5167	FIXCROSS	n/a	n/a	n/a	n/a	n/a	n/a	n/a	n/a
459.9533	0.8167	COLOR_NAME	40	Incongruent	zielony	green	żółty	yellow	hit	n/a
460.7363	n/a	RESPONSE	n/a	n/a	n/a	n/a	n/a	n/a	n/a	green
460.77	1.0167	ITI	n/a	n/a	n/a	n/a	n/a	n/a	n/a	n/a
461.7866	0.5167	FIXCROSS	n/a	n/a	n/a	n/a	n/a	n/a	n/a	n/a
462.3033	0.5333	COLOR_NAME	41	Neutral	żółty	yellow	Neutral	Neutral	hit	n/a
462.8136	n/a	RESPONSE	n/a	n/a	n/a	n/a	n/a	n/a	n/a	yellow
462.8366	1.0167	ITI	n/a	n/a	n/a	n/a	n/a	n/a	n/a	n/a
463.8533	0.5167	FIXCROSS	n/a	n/a	n/a	n/a	n/a	n/a	n/a	n/a
464.37	0.5667	COLOR_NAME	42	Neutral	żółty	yellow	Neutral	Neutral	hit	n/a
464.9071	n/a	RESPONSE	n/a	n/a	n/a	n/a	n/a	n/a	n/a	yellow
464.9366	1.0167	ITI	n/a	n/a	n/a	n/a	n/a	n/a	n/a	n/a
465.9533	0.5167	FIXCROSS	n/a	n/a	n/a	n/a	n/a	n/a	n/a	n/a
466.47	0.5333	COLOR_NAME	43	Incongruent	zielony	green	niebieski	blue	hit	n/a
466.9846	n/a	RESPONSE	n/a	n/a	n/a	n/a	n/a	n/a	n/a	green
467.0033	1.0167	ITI	n/a	n/a	n/a	n/a	n/a	n/a	n/a	n/a
468.02	0.5167	FIXCROSS	n/a	n/a	n/a	n/a	n/a	n/a	n/a	n/a
468.5367	0.5667	COLOR_NAME	44	Incongruent	żółty	yellow	niebieski	blue	hit	n/a
469.0779	n/a	RESPONSE	n/a	n/a	n/a	n/a	n/a	n/a	n/a	yellow
469.1033	1.0167	ITI	n/a	n/a	n/a	n/a	n/a	n/a	n/a	n/a
470.12	0.5167	FIXCROSS	n/a	n/a	n/a	n/a	n/a	n/a	n/a	n/a
470.6367	0.7167	COLOR_NAME	45	Incongruent	czerwony	red	zielony	green	hit	n/a
471.3312	n/a	RESPONSE	n/a	n/a	n/a	n/a	n/a	n/a	n/a	red
471.3534	1.0167	ITI	n/a	n/a	n/a	n/a	n/a	n/a	n/a	n/a
472.37	0.5167	FIXCROSS	n/a	n/a	n/a	n/a	n/a	n/a	n/a	n/a
472.8867	0.8167	COLOR_NAME	46	Neutral	zielony	green	Neutral	Neutral	hit	n/a
473.6803	n/a	RESPONSE	n/a	n/a	n/a	n/a	n/a	n/a	n/a	green
473.7034	1.0167	ITI	n/a	n/a	n/a	n/a	n/a	n/a	n/a	n/a
474.7201	0.5167	FIXCROSS	n/a	n/a	n/a	n/a	n/a	n/a	n/a	n/a
475.2367	0.8667	COLOR_NAME	47	Incongruent	czerwony	red	żółty	yellow	hit	n/a
476.0773	n/a	RESPONSE	n/a	n/a	n/a	n/a	n/a	n/a	n/a	red
476.1034	1.0167	ITI	n/a	n/a	n/a	n/a	n/a	n/a	n/a	n/a
477.1201	0.5167	FIXCROSS	n/a	n/a	n/a	n/a	n/a	n/a	n/a	n/a
477.6367	0.4333	COLOR_NAME	48	Incongruent	czerwony	red	żółty	yellow	hit	n/a
478.0428	n/a	RESPONSE	n/a	n/a	n/a	n/a	n/a	n/a	n/a	red
478.0701	1.0167	ITI	n/a	n/a	n/a	n/a	n/a	n/a	n/a	n/a
479.0868	0.5167	FIXCROSS	n/a	n/a	n/a	n/a	n/a	n/a	n/a	n/a
479.6034	0.4333	COLOR_NAME	49	Neutral	czerwony	red	Neutral	Neutral	hit	n/a
480.0083	n/a	RESPONSE	n/a	n/a	n/a	n/a	n/a	n/a	n/a	red
480.0368	1.0167	ITI	n/a	n/a	n/a	n/a	n/a	n/a	n/a	n/a
481.0534	0.5167	FIXCROSS	n/a	n/a	n/a	n/a	n/a	n/a	n/a	n/a
481.5701	0.4333	COLOR_NAME	50	Incongruent	czerwony	red	niebieski	blue	hit	n/a
481.9739	n/a	RESPONSE	n/a	n/a	n/a	n/a	n/a	n/a	n/a	red
482.0035	1.0167	ITI	n/a	n/a	n/a	n/a	n/a	n/a	n/a	n/a
483.0201	0.5167	FIXCROSS	n/a	n/a	n/a	n/a	n/a	n/a	n/a	n/a
483.5368	0.6833	COLOR_NAME	51	Incongruent	niebieski	blue	zielony	green	hit	n/a
484.1951	n/a	RESPONSE	n/a	n/a	n/a	n/a	n/a	n/a	n/a	blue
484.2201	1.0167	ITI	n/a	n/a	n/a	n/a	n/a	n/a	n/a	n/a
485.2368	0.5167	FIXCROSS	n/a	n/a	n/a	n/a	n/a	n/a	n/a	n/a
485.7535	0.6833	COLOR_NAME	52	Neutral	zielony	green	Neutral	Neutral	hit	n/a
486.4164	n/a	RESPONSE	n/a	n/a	n/a	n/a	n/a	n/a	n/a	green
486.4368	1.0167	ITI	n/a	n/a	n/a	n/a	n/a	n/a	n/a	n/a
487.4535	0.5167	FIXCROSS	n/a	n/a	n/a	n/a	n/a	n/a	n/a	n/a
487.9702	0.55	COLOR_NAME	53	Neutral	niebieski	blue	Neutral	Neutral	hit	n/a
488.4939	n/a	RESPONSE	n/a	n/a	n/a	n/a	n/a	n/a	n/a	blue
488.5202	1.0167	ITI	n/a	n/a	n/a	n/a	n/a	n/a	n/a	n/a
489.5368	0.5167	FIXCROSS	n/a	n/a	n/a	n/a	n/a	n/a	n/a	n/a
490.0535	0.5833	COLOR_NAME	54	Incongruent	niebieski	blue	żółty	yellow	hit	n/a
490.6192	n/a	RESPONSE	n/a	n/a	n/a	n/a	n/a	n/a	n/a	blue
490.6368	1.0167	ITI	n/a	n/a	n/a	n/a	n/a	n/a	n/a	n/a
491.6535	0.5167	FIXCROSS	n/a	n/a	n/a	n/a	n/a	n/a	n/a	n/a
492.1702	0.5833	COLOR_NAME	55	Neutral	czerwony	red	Neutral	Neutral	hit	n/a
492.7287	n/a	RESPONSE	n/a	n/a	n/a	n/a	n/a	n/a	n/a	red
492.7535	1.0167	ITI	n/a	n/a	n/a	n/a	n/a	n/a	n/a	n/a
493.7702	0.5167	FIXCROSS	n/a	n/a	n/a	n/a	n/a	n/a	n/a	n/a
494.2869	0.7667	COLOR_NAME	56	Neutral	niebieski	blue	Neutral	Neutral	hit	n/a
495.0298	n/a	RESPONSE	n/a	n/a	n/a	n/a	n/a	n/a	n/a	blue
495.0535	1.0167	ITI	n/a	n/a	n/a	n/a	n/a	n/a	n/a	n/a
496.0702	0.5167	FIXCROSS	n/a	n/a	n/a	n/a	n/a	n/a	n/a	n/a
496.5869	0.4833	COLOR_NAME	57	Incongruent	żółty	yellow	czerwony	red	hit	n/a
497.0432	n/a	RESPONSE	n/a	n/a	n/a	n/a	n/a	n/a	n/a	yellow
497.0702	1.0167	ITI	n/a	n/a	n/a	n/a	n/a	n/a	n/a	n/a
498.0869	0.5167	FIXCROSS	n/a	n/a	n/a	n/a	n/a	n/a	n/a	n/a
498.6036	0.5	COLOR_NAME	58	Neutral	żółty	yellow	Neutral	Neutral	hit	n/a
499.0727	n/a	RESPONSE	n/a	n/a	n/a	n/a	n/a	n/a	n/a	yellow
499.1036	1.0167	ITI	n/a	n/a	n/a	n/a	n/a	n/a	n/a	n/a
500.1202	0.5167	FIXCROSS	n/a	n/a	n/a	n/a	n/a	n/a	n/a	n/a
500.6369	0.6667	COLOR_NAME	59	Neutral	czerwony	red	Neutral	Neutral	hit	n/a
501.278	n/a	RESPONSE	n/a	n/a	n/a	n/a	n/a	n/a	n/a	red
501.3036	1.0167	ITI	n/a	n/a	n/a	n/a	n/a	n/a	n/a	n/a
502.3203	0.5167	FIXCROSS	n/a	n/a	n/a	n/a	n/a	n/a	n/a	n/a
502.8369	2.3833	COLOR_NAME	60	Incongruent	niebieski	blue	czerwony	red	hit	n/a
505.193	n/a	RESPONSE	n/a	n/a	n/a	n/a	n/a	n/a	n/a	blue
505.2203	1.0167	ITI	n/a	n/a	n/a	n/a	n/a	n/a	n/a	n/a
506.237	0.5167	FIXCROSS	n/a	n/a	n/a	n/a	n/a	n/a	n/a	n/a
506.7536	0.6833	COLOR_NAME	61	Neutral	czerwony	red	Neutral	Neutral	hit	n/a
507.4143	n/a	RESPONSE	n/a	n/a	n/a	n/a	n/a	n/a	n/a	red
507.437	1.0167	ITI	n/a	n/a	n/a	n/a	n/a	n/a	n/a	n/a
508.4536	0.5167	FIXCROSS	n/a	n/a	n/a	n/a	n/a	n/a	n/a	n/a
508.9703	0.65	COLOR_NAME	62	Neutral	niebieski	blue	Neutral	Neutral	hit	n/a
509.5876	n/a	RESPONSE	n/a	n/a	n/a	n/a	n/a	n/a	n/a	blue
509.6203	1.0167	ITI	n/a	n/a	n/a	n/a	n/a	n/a	n/a	n/a
510.637	0.5167	FIXCROSS	n/a	n/a	n/a	n/a	n/a	n/a	n/a	n/a
511.1537	0.4167	COLOR_NAME	63	Neutral	czerwony	red	Neutral	Neutral	hit	n/a
511.5372	n/a	RESPONSE	n/a	n/a	n/a	n/a	n/a	n/a	n/a	red
511.5703	1.0167	ITI	n/a	n/a	n/a	n/a	n/a	n/a	n/a	n/a
512.587	0.5167	FIXCROSS	n/a	n/a	n/a	n/a	n/a	n/a	n/a	n/a
513.1037	0.6333	COLOR_NAME	64	Neutral	zielony	green	Neutral	Neutral	hit	n/a
513.7106	n/a	RESPONSE	n/a	n/a	n/a	n/a	n/a	n/a	n/a	green
513.737	1.0167	ITI	n/a	n/a	n/a	n/a	n/a	n/a	n/a	n/a
514.7537	0.5167	FIXCROSS	n/a	n/a	n/a	n/a	n/a	n/a	n/a	n/a
515.2704	0.6667	COLOR_NAME	65	Incongruent	zielony	green	niebieski	blue	hit	n/a
515.9158	n/a	RESPONSE	n/a	n/a	n/a	n/a	n/a	n/a	n/a	green
515.937	1.0167	ITI	n/a	n/a	n/a	n/a	n/a	n/a	n/a	n/a
516.9537	0.5167	FIXCROSS	n/a	n/a	n/a	n/a	n/a	n/a	n/a	n/a
517.4704	0.8667	COLOR_NAME	66	Neutral	czerwony	red	Neutral	Neutral	hit	n/a
518.3129	n/a	RESPONSE	n/a	n/a	n/a	n/a	n/a	n/a	n/a	red
518.3371	1.0167	ITI	n/a	n/a	n/a	n/a	n/a	n/a	n/a	n/a
519.3537	0.5167	FIXCROSS	n/a	n/a	n/a	n/a	n/a	n/a	n/a	n/a
519.8704	1.1	COLOR_NAME	67	Neutral	niebieski	blue	Neutral	Neutral	hit	n/a
520.9496	n/a	RESPONSE	n/a	n/a	n/a	n/a	n/a	n/a	n/a	blue
520.9704	1.0167	ITI	n/a	n/a	n/a	n/a	n/a	n/a	n/a	n/a
521.9871	0.5167	FIXCROSS	n/a	n/a	n/a	n/a	n/a	n/a	n/a	n/a
522.5037	0.5667	COLOR_NAME	68	Incongruent	żółty	yellow	niebieski	blue	hit	n/a
523.043	n/a	RESPONSE	n/a	n/a	n/a	n/a	n/a	n/a	n/a	yellow
523.0704	1.0167	ITI	n/a	n/a	n/a	n/a	n/a	n/a	n/a	n/a
524.0871	0.5167	FIXCROSS	n/a	n/a	n/a	n/a	n/a	n/a	n/a	n/a
524.6038	0.8167	COLOR_NAME	69	Incongruent	niebieski	blue	zielony	green	hit	n/a
525.3921	n/a	RESPONSE	n/a	n/a	n/a	n/a	n/a	n/a	n/a	blue
525.4204	1.0167	ITI	n/a	n/a	n/a	n/a	n/a	n/a	n/a	n/a
526.4371	0.5167	FIXCROSS	n/a	n/a	n/a	n/a	n/a	n/a	n/a	n/a
526.9538	0.6333	COLOR_NAME	70	Incongruent	niebieski	blue	czerwony	red	hit	n/a
527.5654	n/a	RESPONSE	n/a	n/a	n/a	n/a	n/a	n/a	n/a	blue
527.5871	1.0167	ITI	n/a	n/a	n/a	n/a	n/a	n/a	n/a	n/a
528.6038	0.5167	FIXCROSS	n/a	n/a	n/a	n/a	n/a	n/a	n/a	n/a
529.1205	1.6667	COLOR_NAME	71	Incongruent	zielony	green	żółty	yellow	hit	n/a
530.7615	n/a	RESPONSE	n/a	n/a	n/a	n/a	n/a	n/a	n/a	green
530.7871	1.0167	ITI	n/a	n/a	n/a	n/a	n/a	n/a	n/a	n/a
531.8038	0.5167	FIXCROSS	n/a	n/a	n/a	n/a	n/a	n/a	n/a	n/a
532.3205	0.4833	COLOR_NAME	72	Incongruent	żółty	yellow	zielony	green	hit	n/a
532.775	n/a	RESPONSE	n/a	n/a	n/a	n/a	n/a	n/a	n/a	yellow
532.8038	1.0333	ITI	n/a	n/a	n/a	n/a	n/a	n/a	n/a	n/a
536.4184	n/a	RESPONSE	n/a	n/a	n/a	n/a	n/a	n/a	n/a	n/a
