onset	duration	trial_type	braille_stimulus	targets	response_count
2.014	2.008	CUE_REST	n/a	n/a	n/a
7.014	1.008	FIXCROSS	n/a	n/a	n/a
13.064	1.008	FIXCROSS	n/a	n/a	n/a
21.123	2.008	CUE_6_DOT	n/a	n/a	n/a
26.123	1.008	FIXCROSS	n/a	n/a	n/a
27.139	5.008	6_DOT_DETECTION	ALCSD	0	n/a
32.173	1.008	FIXCROSS	n/a	n/a	n/a
33.189	5.008	6_DOT_DETECTION	TBLTL	0	n/a
36.136	n/a	RESPONSE	n/a	n/a	1/0
38.223	1.008	FIXCROSS	n/a	n/a	n/a
39.239	5.008	6_DOT_DETECTION	Ł#AUT	1	n/a
40.88	n/a	RESPONSE	n/a	n/a	1/1
44.273	1.008	FIXCROSS	n/a	n/a	n/a
45.289	5.008	6_DOT_DETECTION	T#BYŁ	1	n/a
46.936	n/a	RESPONSE	n/a	n/a	1/1
50.323	1.008	FIXCROSS	n/a	n/a	n/a
51.339	5.008	6_DOT_DETECTION	YUUIC	0	n/a
56.373	1.008	FIXCROSS	n/a	n/a	n/a
57.389	5.008	6_DOT_DETECTION	OLPDT	0	n/a
62.423	1.008	FIXCROSS	n/a	n/a	n/a
63.439	5.008	6_DOT_DETECTION	LUB#L	1	n/a
65.64	n/a	RESPONSE	n/a	n/a	1/1
68.473	1.008	FIXCROSS	n/a	n/a	n/a
69.489	5.008	6_DOT_DETECTION	##BUS	2	n/a
70.616	n/a	RESPONSE	n/a	n/a	1/2
71.4	n/a	RESPONSE	n/a	n/a	2/2
76.031	2.008	CUE_REST	n/a	n/a	n/a
82.531	1.008	FIXCROSS	n/a	n/a	n/a
88.581	1.008	FIXCROSS	n/a	n/a	n/a
95.639	2.008	CUE_6_DOT	n/a	n/a	n/a
100.639	1.008	FIXCROSS	n/a	n/a	n/a
101.656	5.008	6_DOT_DETECTION	PLDYŁ	0	n/a
105.136	n/a	RESPONSE	n/a	n/a	1/0
106.689	1.008	FIXCROSS	n/a	n/a	n/a
107.705	5.009	6_DOT_DETECTION	EKDDK	0	n/a
112.739	1.008	FIXCROSS	n/a	n/a	n/a
113.756	5.008	6_DOT_DETECTION	BEL#A	1	n/a
115.84	n/a	RESPONSE	n/a	n/a	1/1
118.789	1.008	FIXCROSS	n/a	n/a	n/a
119.806	5.008	6_DOT_DETECTION	MYŁ##	2	n/a
122.176	n/a	RESPONSE	n/a	n/a	1/2
122.776	n/a	RESPONSE	n/a	n/a	2/2
124.839	1.008	FIXCROSS	n/a	n/a	n/a
125.856	5.008	6_DOT_DETECTION	#PSA#	2	n/a
126.96	n/a	RESPONSE	n/a	n/a	1/2
128.52	n/a	RESPONSE	n/a	n/a	2/2
130.889	1.008	FIXCROSS	n/a	n/a	n/a
131.906	5.008	6_DOT_DETECTION	LKCKY	0	n/a
136.939	1.008	FIXCROSS	n/a	n/a	n/a
137.956	5.008	6_DOT_DETECTION	##TYK	2	n/a
139.136	n/a	RESPONSE	n/a	n/a	1/2
139.8	n/a	RESPONSE	n/a	n/a	2/2
142.989	1.008	FIXCROSS	n/a	n/a	n/a
144.005	5.009	6_DOT_DETECTION	L#MSY	1	n/a
145.72	n/a	RESPONSE	n/a	n/a	1/1
150.548	2.008	CUE_REST	n/a	n/a	n/a
155.048	1.008	FIXCROSS	n/a	n/a	n/a
161.098	1.008	FIXCROSS	n/a	n/a	n/a
168.656	2.008	CUE_6_DOT	n/a	n/a	n/a
175.156	1.008	FIXCROSS	n/a	n/a	n/a
176.173	5.008	6_DOT_DETECTION	MEM##	2	n/a
178.8	n/a	RESPONSE	n/a	n/a	1/2
179.416	n/a	RESPONSE	n/a	n/a	2/2
181.206	1.008	FIXCROSS	n/a	n/a	n/a
182.223	5.008	6_DOT_DETECTION	##MAP	2	n/a
183.92	n/a	RESPONSE	n/a	n/a	1/2
187.256	1.008	FIXCROSS	n/a	n/a	n/a
188.272	5.009	6_DOT_DETECTION	ETITU	0	n/a
193.306	1.008	FIXCROSS	n/a	n/a	n/a
194.322	5.009	6_DOT_DETECTION	BB#EU	1	n/a
196.256	n/a	RESPONSE	n/a	n/a	1/1
199.356	1.008	FIXCROSS	n/a	n/a	n/a
200.372	5.009	6_DOT_DETECTION	EASLS	0	n/a
205.406	1.008	FIXCROSS	n/a	n/a	n/a
206.423	5.008	6_DOT_DETECTION	#OKA#	2	n/a
208.2	n/a	RESPONSE	n/a	n/a	1/2
209.08	n/a	RESPONSE	n/a	n/a	2/2
211.456	1.008	FIXCROSS	n/a	n/a	n/a
212.473	5.008	6_DOT_DETECTION	##UDA	2	n/a
212.88	n/a	RESPONSE	n/a	n/a	1/2
217.506	1.008	FIXCROSS	n/a	n/a	n/a
218.523	5.008	6_DOT_DETECTION	PTEIŁ	0	n/a
225.564	2.008	CUE_REST	n/a	n/a	n/a
229.564	1.008	FIXCROSS	n/a	n/a	n/a
235.614	1.008	FIXCROSS	n/a	n/a	n/a
243.673	2.008	CUE_6_DOT	n/a	n/a	n/a
249.673	1.008	FIXCROSS	n/a	n/a	n/a
250.689	5.008	6_DOT_DETECTION	UPU#I	1	n/a
253.296	n/a	RESPONSE	n/a	n/a	1/1
255.723	1.008	FIXCROSS	n/a	n/a	n/a
256.739	5.008	6_DOT_DETECTION	PIUCD	0	n/a
261.773	1.008	FIXCROSS	n/a	n/a	n/a
262.789	5.008	6_DOT_DETECTION	DIP##	2	n/a
265.119	n/a	RESPONSE	n/a	n/a	1/2
265.671	n/a	RESPONSE	n/a	n/a	2/2
267.823	1.008	FIXCROSS	n/a	n/a	n/a
268.839	5.008	6_DOT_DETECTION	#EKS#	2	n/a
269.991	n/a	RESPONSE	n/a	n/a	1/2
271.351	n/a	RESPONSE	n/a	n/a	2/2
273.873	1.008	FIXCROSS	n/a	n/a	n/a
274.889	5.008	6_DOT_DETECTION	AOKEB	0	n/a
279.923	1.008	FIXCROSS	n/a	n/a	n/a
280.939	5.009	6_DOT_DETECTION	KC#UT	1	n/a
282.991	n/a	RESPONSE	n/a	n/a	1/1
285.973	1.008	FIXCROSS	n/a	n/a	n/a
286.989	5.008	6_DOT_DETECTION	#BCCL	1	n/a
288.255	n/a	RESPONSE	n/a	n/a	1/1
292.023	1.008	FIXCROSS	n/a	n/a	n/a
293.039	5.008	6_DOT_DETECTION	#LIS#	2	n/a
294.255	n/a	RESPONSE	n/a	n/a	1/2
295.751	n/a	RESPONSE	n/a	n/a	2/2
299.081	2.008	CUE_REST	n/a	n/a	n/a
305.081	1.008	FIXCROSS	n/a	n/a	n/a
311.131	1.008	FIXCROSS	n/a	n/a	n/a
318.689	2.008	CUE_6_DOT	n/a	n/a	n/a
324.189	1.008	FIXCROSS	n/a	n/a	n/a
325.206	5.008	6_DOT_DETECTION	UTIŁT	0	n/a
330.239	1.008	FIXCROSS	n/a	n/a	n/a
331.256	5.008	6_DOT_DETECTION	YBP#L	1	n/a
333.535	n/a	RESPONSE	n/a	n/a	1/1
336.289	1.008	FIXCROSS	n/a	n/a	n/a
337.306	5.008	6_DOT_DETECTION	I#AE#	2	n/a
338.991	n/a	RESPONSE	n/a	n/a	1/2
340.215	n/a	RESPONSE	n/a	n/a	2/2
342.339	1.008	FIXCROSS	n/a	n/a	n/a
343.356	5.008	6_DOT_DETECTION	U#UDO	1	n/a
345.071	n/a	RESPONSE	n/a	n/a	1/1
348.389	1.008	FIXCROSS	n/a	n/a	n/a
349.406	5.008	6_DOT_DETECTION	L#LAŁ	1	n/a
351.071	n/a	RESPONSE	n/a	n/a	1/1
354.439	1.008	FIXCROSS	n/a	n/a	n/a
355.456	5.008	6_DOT_DETECTION	SPA##	2	n/a
357.975	n/a	RESPONSE	n/a	n/a	1/2
358.431	n/a	RESPONSE	n/a	n/a	2/2
360.489	1.008	FIXCROSS	n/a	n/a	n/a
361.506	5.008	6_DOT_DETECTION	#YUPA	1	n/a
362.895	n/a	RESPONSE	n/a	n/a	1/1
366.539	1.008	FIXCROSS	n/a	n/a	n/a
367.556	5.008	6_DOT_DETECTION	Y#ŁYK	1	n/a
369.031	n/a	RESPONSE	n/a	n/a	1/1
373.598	2.008	CUE_REST	n/a	n/a	n/a
380.598	1.008	FIXCROSS	n/a	n/a	n/a
386.648	1.008	FIXCROSS	n/a	n/a	n/a
393.706	2.008	CUE_6_DOT	n/a	n/a	n/a
398.706	1.008	FIXCROSS	n/a	n/a	n/a
399.723	5.008	6_DOT_DETECTION	DKALL	0	n/a
404.756	1.008	FIXCROSS	n/a	n/a	n/a
405.773	5.008	6_DOT_DETECTION	#KAS#	2	n/a
408.311	n/a	RESPONSE	n/a	n/a	1/2
410.806	1.008	FIXCROSS	n/a	n/a	n/a
411.822	5.009	6_DOT_DETECTION	KTO#D	1	n/a
414.295	n/a	RESPONSE	n/a	n/a	1/1
416.856	1.008	FIXCROSS	n/a	n/a	n/a
417.872	5.009	6_DOT_DETECTION	##DAM	2	n/a
419.055	n/a	RESPONSE	n/a	n/a	1/2
419.671	n/a	RESPONSE	n/a	n/a	2/2
422.906	1.008	FIXCROSS	n/a	n/a	n/a
423.923	5.008	6_DOT_DETECTION	SYMTI	0	n/a
428.956	1.008	FIXCROSS	n/a	n/a	n/a
429.973	5.008	6_DOT_DETECTION	MUŁ##	2	n/a
432.455	n/a	RESPONSE	n/a	n/a	1/2
432.871	n/a	RESPONSE	n/a	n/a	2/2
435.006	1.008	FIXCROSS	n/a	n/a	n/a
436.023	5.008	6_DOT_DETECTION	KSSŁK	0	n/a
441.056	1.008	FIXCROSS	n/a	n/a	n/a
442.072	5.009	6_DOT_DETECTION	BUŁ#I	1	n/a
444.471	n/a	RESPONSE	n/a	n/a	1/1
