onset	duration	trial_type	braille_stimulus	targets	response_count
2.017	2.008	CUE_6_DOT	n/a	n/a	n/a
7.017	1.008	FIXCROSS	n/a	n/a	n/a
8.034	5.008	6_DOT_DETECTION	ŁKTMO	0	n/a
13.067	1.008	FIXCROSS	n/a	n/a	n/a
14.084	5.008	6_DOT_DETECTION	CKBPD	0	n/a
19.117	1.008	FIXCROSS	n/a	n/a	n/a
20.134	5.008	6_DOT_DETECTION	#TAK#	2	n/a
21.6	n/a	RESPONSE	n/a	n/a	1/2
24.24	n/a	RESPONSE	n/a	n/a	2/2
25.167	1.008	FIXCROSS	n/a	n/a	n/a
26.184	5.008	6_DOT_DETECTION	DBA#Y	1	n/a
29.056	n/a	RESPONSE	n/a	n/a	1/1
30.296	n/a	RESPONSE	n/a	n/a	2/1
31.217	1.008	FIXCROSS	n/a	n/a	n/a
32.234	5.008	6_DOT_DETECTION	LDEAC	0	n/a
37.267	1.008	FIXCROSS	n/a	n/a	n/a
38.284	5.008	6_DOT_DETECTION	ŁMLSI	0	n/a
43.317	1.008	FIXCROSS	n/a	n/a	n/a
44.334	5.008	6_DOT_DETECTION	ULI#Ł	1	n/a
47.336	n/a	RESPONSE	n/a	n/a	1/1
49.367	1.008	FIXCROSS	n/a	n/a	n/a
50.384	5.008	6_DOT_DETECTION	K#SET	1	n/a
52.216	n/a	RESPONSE	n/a	n/a	1/1
57.426	2.008	CUE_REST	n/a	n/a	n/a
62.426	1.008	FIXCROSS	n/a	n/a	n/a
68.476	1.008	FIXCROSS	n/a	n/a	n/a
75.534	2.008	CUE_6_DOT	n/a	n/a	n/a
80.534	1.008	FIXCROSS	n/a	n/a	n/a
81.551	5.008	6_DOT_DETECTION	DLPOO	0	n/a
86.584	1.008	FIXCROSS	n/a	n/a	n/a
87.601	5.008	6_DOT_DETECTION	LDABD	0	n/a
92.634	1.008	FIXCROSS	n/a	n/a	n/a
93.651	5.008	6_DOT_DETECTION	OSA#U	1	n/a
96.52	n/a	RESPONSE	n/a	n/a	1/1
98.684	1.008	FIXCROSS	n/a	n/a	n/a
99.701	5.008	6_DOT_DETECTION	LEK##	2	n/a
102.4	n/a	RESPONSE	n/a	n/a	1/2
103.4	n/a	RESPONSE	n/a	n/a	2/2
104.734	1.008	FIXCROSS	n/a	n/a	n/a
105.751	5.008	6_DOT_DETECTION	#TAM#	2	n/a
106.92	n/a	RESPONSE	n/a	n/a	1/2
109.136	n/a	RESPONSE	n/a	n/a	2/2
110.784	1.008	FIXCROSS	n/a	n/a	n/a
111.801	5.008	6_DOT_DETECTION	ISUEP	0	n/a
116.834	1.008	FIXCROSS	n/a	n/a	n/a
117.851	5.008	6_DOT_DETECTION	K#MYL	1	n/a
119.56	n/a	RESPONSE	n/a	n/a	1/1
121.68	n/a	RESPONSE	n/a	n/a	2/1
122.884	1.008	FIXCROSS	n/a	n/a	n/a
123.901	5.008	6_DOT_DETECTION	ADA#K	1	n/a
126.176	n/a	RESPONSE	n/a	n/a	1/1
130.442	2.008	CUE_REST	n/a	n/a	n/a
136.942	1.008	FIXCROSS	n/a	n/a	n/a
142.992	1.008	FIXCROSS	n/a	n/a	n/a
150.551	2.008	CUE_6_DOT	n/a	n/a	n/a
157.051	1.008	FIXCROSS	n/a	n/a	n/a
158.068	5.008	6_DOT_DETECTION	##BIŁ	2	n/a
160.496	n/a	RESPONSE	n/a	n/a	1/2
161.456	n/a	RESPONSE	n/a	n/a	2/2
163.101	1.008	FIXCROSS	n/a	n/a	n/a
164.118	5.008	6_DOT_DETECTION	K#BUD	1	n/a
166.016	n/a	RESPONSE	n/a	n/a	1/1
169.151	1.008	FIXCROSS	n/a	n/a	n/a
170.168	5.008	6_DOT_DETECTION	SMPMY	0	n/a
175.201	1.008	FIXCROSS	n/a	n/a	n/a
176.218	5.008	6_DOT_DETECTION	#DOBK	1	n/a
177.656	n/a	RESPONSE	n/a	n/a	1/1
181.259	1.008	FIXCROSS	n/a	n/a	n/a
182.276	5.008	6_DOT_DETECTION	TUAIU	0	n/a
187.309	1.008	FIXCROSS	n/a	n/a	n/a
188.326	5.008	6_DOT_DETECTION	P#LOK	1	n/a
190.232	n/a	RESPONSE	n/a	n/a	1/1
193.359	1.008	FIXCROSS	n/a	n/a	n/a
194.376	5.008	6_DOT_DETECTION	#LAT#	2	n/a
195.832	n/a	RESPONSE	n/a	n/a	1/2
198.032	n/a	RESPONSE	n/a	n/a	2/2
199.409	1.008	FIXCROSS	n/a	n/a	n/a
200.426	5.008	6_DOT_DETECTION	IPUTI	0	n/a
206.968	2.008	CUE_REST	n/a	n/a	n/a
211.468	1.008	FIXCROSS	n/a	n/a	n/a
217.518	1.008	FIXCROSS	n/a	n/a	n/a
225.576	2.008	CUE_6_DOT	n/a	n/a	n/a
231.576	1.008	FIXCROSS	n/a	n/a	n/a
232.593	5.008	6_DOT_DETECTION	EBC##	2	n/a
235.552	n/a	RESPONSE	n/a	n/a	1/2
236.896	n/a	RESPONSE	n/a	n/a	2/2
237.626	1.008	FIXCROSS	n/a	n/a	n/a
238.643	5.008	6_DOT_DETECTION	KOYUA	0	n/a
243.676	1.008	FIXCROSS	n/a	n/a	n/a
244.693	5.008	6_DOT_DETECTION	C#PYK	1	n/a
246.696	n/a	RESPONSE	n/a	n/a	1/1
249.726	1.008	FIXCROSS	n/a	n/a	n/a
250.743	5.008	6_DOT_DETECTION	TUB##	2	n/a
253.272	n/a	RESPONSE	n/a	n/a	1/2
254.512	n/a	RESPONSE	n/a	n/a	2/2
255.776	1.008	FIXCROSS	n/a	n/a	n/a
256.793	5.008	6_DOT_DETECTION	TCBMA	0	n/a
261.826	1.008	FIXCROSS	n/a	n/a	n/a
262.843	5.008	6_DOT_DETECTION	#SŁEM	1	n/a
263.976	n/a	RESPONSE	n/a	n/a	1/1
267.876	1.008	FIXCROSS	n/a	n/a	n/a
268.893	5.008	6_DOT_DETECTION	##UBM	2	n/a
270.072	n/a	RESPONSE	n/a	n/a	1/2
271.096	n/a	RESPONSE	n/a	n/a	2/2
273.926	1.008	FIXCROSS	n/a	n/a	n/a
274.943	5.008	6_DOT_DETECTION	MYL#C	1	n/a
278.432	n/a	RESPONSE	n/a	n/a	1/1
281.985	2.008	CUE_REST	n/a	n/a	n/a
285.985	1.008	FIXCROSS	n/a	n/a	n/a
292.035	1.008	FIXCROSS	n/a	n/a	n/a
299.593	2.008	CUE_6_DOT	n/a	n/a	n/a
305.093	1.008	FIXCROSS	n/a	n/a	n/a
306.11	5.008	6_DOT_DETECTION	DBPSO	0	n/a
311.143	1.008	FIXCROSS	n/a	n/a	n/a
312.16	5.008	6_DOT_DETECTION	SU#A#	2	n/a
314.992	n/a	RESPONSE	n/a	n/a	1/2
316.616	n/a	RESPONSE	n/a	n/a	2/2
317.193	1.008	FIXCROSS	n/a	n/a	n/a
318.21	5.008	6_DOT_DETECTION	#C#AB	2	n/a
319.672	n/a	RESPONSE	n/a	n/a	1/2
320.816	n/a	RESPONSE	n/a	n/a	2/2
323.243	1.008	FIXCROSS	n/a	n/a	n/a
324.26	5.008	6_DOT_DETECTION	#TŁU#	2	n/a
325.336	n/a	RESPONSE	n/a	n/a	1/2
327.536	n/a	RESPONSE	n/a	n/a	2/2
329.293	1.008	FIXCROSS	n/a	n/a	n/a
330.31	5.008	6_DOT_DETECTION	#TYP#	2	n/a
331.592	n/a	RESPONSE	n/a	n/a	1/2
334.232	n/a	RESPONSE	n/a	n/a	2/2
335.343	1.008	FIXCROSS	n/a	n/a	n/a
336.36	5.008	6_DOT_DETECTION	MYL#M	1	n/a
339.672	n/a	RESPONSE	n/a	n/a	1/1
341.072	n/a	RESPONSE	n/a	n/a	2/1
341.393	1.008	FIXCROSS	n/a	n/a	n/a
342.41	5.008	6_DOT_DETECTION	EE##I	2	n/a
344.472	n/a	RESPONSE	n/a	n/a	1/2
345.376	n/a	RESPONSE	n/a	n/a	2/2
347.443	1.008	FIXCROSS	n/a	n/a	n/a
348.46	5.008	6_DOT_DETECTION	##SET	2	n/a
349.376	n/a	RESPONSE	n/a	n/a	1/2
350.496	n/a	RESPONSE	n/a	n/a	2/2
354.501	2.008	CUE_REST	n/a	n/a	n/a
360.502	1.008	FIXCROSS	n/a	n/a	n/a
366.552	1.008	FIXCROSS	n/a	n/a	n/a
373.61	2.008	CUE_6_DOT	n/a	n/a	n/a
378.61	1.008	FIXCROSS	n/a	n/a	n/a
379.626	5.008	6_DOT_DETECTION	DOPPI	0	n/a
384.66	1.008	FIXCROSS	n/a	n/a	n/a
385.676	5.008	6_DOT_DETECTION	##BAK	2	n/a
386.976	n/a	RESPONSE	n/a	n/a	1/2
388.056	n/a	RESPONSE	n/a	n/a	2/2
390.71	1.008	FIXCROSS	n/a	n/a	n/a
391.726	5.008	6_DOT_DETECTION	Y#ŁAM	1	n/a
393.736	n/a	RESPONSE	n/a	n/a	1/1
396.76	1.008	FIXCROSS	n/a	n/a	n/a
397.777	5.008	6_DOT_DETECTION	I#LEP	1	n/a
399.576	n/a	RESPONSE	n/a	n/a	1/1
401.392	n/a	RESPONSE	n/a	n/a	2/1
402.81	1.008	FIXCROSS	n/a	n/a	n/a
403.827	5.008	6_DOT_DETECTION	DLOPP	0	n/a
408.86	1.008	FIXCROSS	n/a	n/a	n/a
409.877	5.008	6_DOT_DETECTION	CEL#D	1	n/a
412.096	n/a	RESPONSE	n/a	n/a	1/1
414.91	1.008	FIXCROSS	n/a	n/a	n/a
415.927	5.008	6_DOT_DETECTION	IMKBP	0	n/a
420.96	1.008	FIXCROSS	n/a	n/a	n/a
421.977	5.008	6_DOT_DETECTION	KIT##	2	n/a
425.056	n/a	RESPONSE	n/a	n/a	1/2
426.112	n/a	RESPONSE	n/a	n/a	2/2
428.018	2.008	CUE_REST	n/a	n/a	n/a
435.018	1.008	FIXCROSS	n/a	n/a	n/a
441.068	1.008	FIXCROSS	n/a	n/a	n/a
