onset	duration	trial_type	braille_stimulus	targets	response_count
2.014	2.008	CUE_REST	n/a	n/a	n/a
7.014	1.008	FIXCROSS	n/a	n/a	n/a
13.064	1.008	FIXCROSS	n/a	n/a	n/a
21.122	2.008	CUE_6_DOT	n/a	n/a	n/a
26.122	1.008	FIXCROSS	n/a	n/a	n/a
27.139	5.008	6_DOT_DETECTION	ŁKTMO	0	n/a
32.172	1.008	FIXCROSS	n/a	n/a	n/a
33.189	5.008	6_DOT_DETECTION	CKBPD	0	n/a
38.222	1.008	FIXCROSS	n/a	n/a	n/a
39.239	5.008	6_DOT_DETECTION	#TAK#	2	n/a
40.52	n/a	RESPONSE	n/a	n/a	1/2
42.496	n/a	RESPONSE	n/a	n/a	2/2
44.272	1.008	FIXCROSS	n/a	n/a	n/a
45.289	5.008	6_DOT_DETECTION	DBA#Y	1	n/a
47.52	n/a	RESPONSE	n/a	n/a	1/1
48.68	n/a	RESPONSE	n/a	n/a	2/1
50.322	1.008	FIXCROSS	n/a	n/a	n/a
51.339	5.008	6_DOT_DETECTION	LDEAC	0	n/a
56.372	1.008	FIXCROSS	n/a	n/a	n/a
57.389	5.008	6_DOT_DETECTION	ŁMLSI	0	n/a
62.422	1.008	FIXCROSS	n/a	n/a	n/a
63.439	5.008	6_DOT_DETECTION	ULI#Ł	1	n/a
66.64	n/a	RESPONSE	n/a	n/a	1/1
68.472	1.008	FIXCROSS	n/a	n/a	n/a
69.489	5.008	6_DOT_DETECTION	K#SET	1	n/a
70.776	n/a	RESPONSE	n/a	n/a	1/1
76.031	2.008	CUE_REST	n/a	n/a	n/a
82.531	1.008	FIXCROSS	n/a	n/a	n/a
88.581	1.008	FIXCROSS	n/a	n/a	n/a
95.639	2.008	CUE_6_DOT	n/a	n/a	n/a
100.639	1.008	FIXCROSS	n/a	n/a	n/a
101.656	5.008	6_DOT_DETECTION	DLPOO	0	n/a
106.688	1.009	FIXCROSS	n/a	n/a	n/a
107.705	5.009	6_DOT_DETECTION	LDABD	0	n/a
112.739	1.008	FIXCROSS	n/a	n/a	n/a
113.755	5.009	6_DOT_DETECTION	OSA#U	1	n/a
116.432	n/a	RESPONSE	n/a	n/a	1/1
118.789	1.008	FIXCROSS	n/a	n/a	n/a
119.806	5.008	6_DOT_DETECTION	LEK##	2	n/a
122.792	n/a	RESPONSE	n/a	n/a	1/2
123.672	n/a	RESPONSE	n/a	n/a	2/2
124.839	1.008	FIXCROSS	n/a	n/a	n/a
125.856	5.008	6_DOT_DETECTION	#TAM#	2	n/a
127.096	n/a	RESPONSE	n/a	n/a	1/2
129.112	n/a	RESPONSE	n/a	n/a	2/2
130.889	1.008	FIXCROSS	n/a	n/a	n/a
131.906	5.008	6_DOT_DETECTION	ISUEP	0	n/a
135.552	n/a	RESPONSE	n/a	n/a	1/0
136.939	1.008	FIXCROSS	n/a	n/a	n/a
137.956	5.008	6_DOT_DETECTION	K#MYL	1	n/a
139.072	n/a	RESPONSE	n/a	n/a	1/1
140.152	n/a	RESPONSE	n/a	n/a	2/1
141.072	n/a	RESPONSE	n/a	n/a	3/1
142.989	1.008	FIXCROSS	n/a	n/a	n/a
144.006	5.008	6_DOT_DETECTION	ADA#K	1	n/a
146.352	n/a	RESPONSE	n/a	n/a	1/1
150.548	2.008	CUE_REST	n/a	n/a	n/a
155.048	1.008	FIXCROSS	n/a	n/a	n/a
161.098	1.008	FIXCROSS	n/a	n/a	n/a
168.656	2.008	CUE_6_DOT	n/a	n/a	n/a
175.156	1.008	FIXCROSS	n/a	n/a	n/a
176.173	5.008	6_DOT_DETECTION	##BIŁ	2	n/a
177.592	n/a	RESPONSE	n/a	n/a	1/2
181.206	1.008	FIXCROSS	n/a	n/a	n/a
182.223	5.008	6_DOT_DETECTION	K#BUD	1	n/a
183.952	n/a	RESPONSE	n/a	n/a	1/1
187.256	1.008	FIXCROSS	n/a	n/a	n/a
188.273	5.008	6_DOT_DETECTION	SMPMY	0	n/a
192.112	n/a	RESPONSE	n/a	n/a	1/0
193.306	1.008	FIXCROSS	n/a	n/a	n/a
194.323	5.008	6_DOT_DETECTION	#DOBK	1	n/a
195.272	n/a	RESPONSE	n/a	n/a	1/1
199.356	1.008	FIXCROSS	n/a	n/a	n/a
200.373	5.008	6_DOT_DETECTION	TUAIU	0	n/a
205.406	1.008	FIXCROSS	n/a	n/a	n/a
206.423	5.008	6_DOT_DETECTION	P#LOK	1	n/a
208.056	n/a	RESPONSE	n/a	n/a	1/1
211.456	1.008	FIXCROSS	n/a	n/a	n/a
212.473	5.008	6_DOT_DETECTION	#LAT#	2	n/a
213.352	n/a	RESPONSE	n/a	n/a	1/2
216.056	n/a	RESPONSE	n/a	n/a	2/2
217.506	1.008	FIXCROSS	n/a	n/a	n/a
218.523	5.008	6_DOT_DETECTION	IPUTI	0	n/a
225.564	2.008	CUE_REST	n/a	n/a	n/a
229.564	1.008	FIXCROSS	n/a	n/a	n/a
235.614	1.008	FIXCROSS	n/a	n/a	n/a
243.673	2.008	CUE_6_DOT	n/a	n/a	n/a
249.673	1.008	FIXCROSS	n/a	n/a	n/a
250.689	5.008	6_DOT_DETECTION	EBC##	2	n/a
253.952	n/a	RESPONSE	n/a	n/a	1/2
255.112	n/a	RESPONSE	n/a	n/a	2/2
255.722	1.009	FIXCROSS	n/a	n/a	n/a
256.74	5.008	6_DOT_DETECTION	KOYUA	0	n/a
261.773	1.008	FIXCROSS	n/a	n/a	n/a
262.79	5.008	6_DOT_DETECTION	C#PYK	1	n/a
264.216	n/a	RESPONSE	n/a	n/a	1/1
266.056	n/a	RESPONSE	n/a	n/a	2/1
267.823	1.016	FIXCROSS	n/a	n/a	n/a
268.848	5.008	6_DOT_DETECTION	TUB##	2	n/a
271.392	n/a	RESPONSE	n/a	n/a	1/2
272.176	n/a	RESPONSE	n/a	n/a	2/2
273.881	1.008	FIXCROSS	n/a	n/a	n/a
274.898	5.008	6_DOT_DETECTION	TCBMA	0	n/a
279.931	1.008	FIXCROSS	n/a	n/a	n/a
280.948	5.008	6_DOT_DETECTION	#SŁEM	1	n/a
282.016	n/a	RESPONSE	n/a	n/a	1/1
285.981	1.008	FIXCROSS	n/a	n/a	n/a
286.998	5.008	6_DOT_DETECTION	##UBM	2	n/a
288.136	n/a	RESPONSE	n/a	n/a	1/2
289.152	n/a	RESPONSE	n/a	n/a	2/2
292.031	1.008	FIXCROSS	n/a	n/a	n/a
293.048	5.008	6_DOT_DETECTION	MYL#C	1	n/a
295.976	n/a	RESPONSE	n/a	n/a	1/1
297.072	n/a	RESPONSE	n/a	n/a	2/1
299.09	2.008	CUE_REST	n/a	n/a	n/a
305.09	1.008	FIXCROSS	n/a	n/a	n/a
311.14	1.008	FIXCROSS	n/a	n/a	n/a
318.698	2.008	CUE_6_DOT	n/a	n/a	n/a
324.198	1.008	FIXCROSS	n/a	n/a	n/a
325.215	5.008	6_DOT_DETECTION	DBPSO	0	n/a
330.248	1.008	FIXCROSS	n/a	n/a	n/a
331.265	5.008	6_DOT_DETECTION	SU#A#	2	n/a
333.312	n/a	RESPONSE	n/a	n/a	1/2
334.752	n/a	RESPONSE	n/a	n/a	2/2
336.298	1.008	FIXCROSS	n/a	n/a	n/a
337.315	5.008	6_DOT_DETECTION	#C#AB	2	n/a
338.656	n/a	RESPONSE	n/a	n/a	1/2
339.832	n/a	RESPONSE	n/a	n/a	2/2
342.348	1.008	FIXCROSS	n/a	n/a	n/a
343.365	5.008	6_DOT_DETECTION	#TŁU#	2	n/a
344.352	n/a	RESPONSE	n/a	n/a	1/2
346.776	n/a	RESPONSE	n/a	n/a	2/2
348.398	1.008	FIXCROSS	n/a	n/a	n/a
349.415	5.008	6_DOT_DETECTION	#TYP#	2	n/a
350.576	n/a	RESPONSE	n/a	n/a	1/2
353.432	n/a	RESPONSE	n/a	n/a	2/2
354.448	1.008	FIXCROSS	n/a	n/a	n/a
355.465	5.008	6_DOT_DETECTION	MYL#M	1	n/a
359.136	n/a	RESPONSE	n/a	n/a	1/1
360.498	1.008	FIXCROSS	n/a	n/a	n/a
361.515	5.008	6_DOT_DETECTION	EE##I	2	n/a
363.496	n/a	RESPONSE	n/a	n/a	1/2
364.272	n/a	RESPONSE	n/a	n/a	2/2
366.548	1.008	FIXCROSS	n/a	n/a	n/a
367.565	5.008	6_DOT_DETECTION	##SET	2	n/a
368.472	n/a	RESPONSE	n/a	n/a	1/2
369.256	n/a	RESPONSE	n/a	n/a	2/2
373.606	2.008	CUE_REST	n/a	n/a	n/a
380.606	1.008	FIXCROSS	n/a	n/a	n/a
386.656	1.009	FIXCROSS	n/a	n/a	n/a
393.715	2.008	CUE_6_DOT	n/a	n/a	n/a
398.715	1.008	FIXCROSS	n/a	n/a	n/a
399.732	5.008	6_DOT_DETECTION	DOPPI	0	n/a
404.765	1.008	FIXCROSS	n/a	n/a	n/a
405.782	5.008	6_DOT_DETECTION	##BAK	2	n/a
406.672	n/a	RESPONSE	n/a	n/a	1/2
407.752	n/a	RESPONSE	n/a	n/a	2/2
410.815	1.008	FIXCROSS	n/a	n/a	n/a
411.832	5.008	6_DOT_DETECTION	Y#ŁAM	1	n/a
413.456	n/a	RESPONSE	n/a	n/a	1/1
416.865	1.008	FIXCROSS	n/a	n/a	n/a
417.882	5.008	6_DOT_DETECTION	I#LEP	1	n/a
419.376	n/a	RESPONSE	n/a	n/a	1/1
422.915	1.008	FIXCROSS	n/a	n/a	n/a
423.932	5.008	6_DOT_DETECTION	DLOPP	0	n/a
428.965	1.008	FIXCROSS	n/a	n/a	n/a
429.982	5.008	6_DOT_DETECTION	CEL#D	1	n/a
432.832	n/a	RESPONSE	n/a	n/a	1/1
435.015	1.008	FIXCROSS	n/a	n/a	n/a
436.032	5.008	6_DOT_DETECTION	IMKBP	0	n/a
441.065	1.008	FIXCROSS	n/a	n/a	n/a
442.082	5.008	6_DOT_DETECTION	KIT##	2	n/a
445.712	n/a	RESPONSE	n/a	n/a	1/2
446.592	n/a	RESPONSE	n/a	n/a	2/2
