onset	duration	trial_type	trial_number	stroop_condition	stim_text(PL)	stim_text(eng)	stim_color(PL)	stim_color(eng)	response_type	response_color
0.0	n/a	RESPONSE	n/a	n/a	n/a	n/a	n/a	n/a	n/a	n/a
0.0705	1.05	ITI	n/a	n/a	n/a	n/a	n/a	n/a	n/a	n/a
1.1205	0.5333	FIXCROSS	n/a	n/a	n/a	n/a	n/a	n/a	n/a	n/a
1.6539	1.2	T_INK	1	Neutral	xxxxxxx	xxxxxxx	niebieski	blue	hit	n/a
2.8103	n/a	RESPONSE	n/a	n/a	n/a	n/a	n/a	n/a	n/a	blue
2.8539	0.5333	FEEDBACK	n/a	n/a	n/a	n/a	n/a	n/a	n/a	n/a
3.3872	1.0333	ITI	n/a	n/a	n/a	n/a	n/a	n/a	n/a	n/a
4.4206	0.5334	FIXCROSS	n/a	n/a	n/a	n/a	n/a	n/a	n/a	n/a
4.9539	0.5167	T_INK	2	Neutral	xxxxx	xxxxx	niebieski	blue	hit	n/a
5.4288	n/a	RESPONSE	n/a	n/a	n/a	n/a	n/a	n/a	n/a	blue
5.4706	0.5333	FEEDBACK	n/a	n/a	n/a	n/a	n/a	n/a	n/a	n/a
6.0039	1.0333	ITI	n/a	n/a	n/a	n/a	n/a	n/a	n/a	n/a
7.0372	0.5333	FIXCROSS	n/a	n/a	n/a	n/a	n/a	n/a	n/a	n/a
7.5706	0.3834	T_INK	3	Neutral	xxxxxxx	xxxxxxx	czerwony	red	hit	n/a
7.9199	n/a	RESPONSE	n/a	n/a	n/a	n/a	n/a	n/a	n/a	red
7.954	0.5333	FEEDBACK	n/a	n/a	n/a	n/a	n/a	n/a	n/a	n/a
8.4873	1.0333	ITI	n/a	n/a	n/a	n/a	n/a	n/a	n/a	n/a
9.5206	0.5333	FIXCROSS	n/a	n/a	n/a	n/a	n/a	n/a	n/a	n/a
10.054	2.3334	T_INK	4	Incongruent	czerwony	red	niebieski	blue	incorrect	n/a
12.3428	n/a	RESPONSE	n/a	n/a	n/a	n/a	n/a	n/a	n/a	red
12.3873	0.5333	FEEDBACK	n/a	n/a	n/a	n/a	n/a	n/a	n/a	n/a
12.9207	1.0334	ITI	n/a	n/a	n/a	n/a	n/a	n/a	n/a	n/a
13.954	0.5333	FIXCROSS	n/a	n/a	n/a	n/a	n/a	n/a	n/a	n/a
14.4873	1.4334	T_INK	5	Incongruent	czerwony	red	zielony	green	hit	n/a
15.8875	n/a	RESPONSE	n/a	n/a	n/a	n/a	n/a	n/a	n/a	green
15.9207	0.5333	FEEDBACK	n/a	n/a	n/a	n/a	n/a	n/a	n/a	n/a
16.454	1.0333	ITI	n/a	n/a	n/a	n/a	n/a	n/a	n/a	n/a
17.4874	0.5333	FIXCROSS	n/a	n/a	n/a	n/a	n/a	n/a	n/a	n/a
18.0207	0.85	T_INK	6	Incongruent	żółty	yellow	niebieski	blue	incorrect	n/a
18.8415	n/a	RESPONSE	n/a	n/a	n/a	n/a	n/a	n/a	n/a	red
18.8707	0.5333	FEEDBACK	n/a	n/a	n/a	n/a	n/a	n/a	n/a	n/a
19.4041	1.0333	ITI	n/a	n/a	n/a	n/a	n/a	n/a	n/a	n/a
20.4374	0.5333	FIXCROSS	n/a	n/a	n/a	n/a	n/a	n/a	n/a	n/a
20.9708	0.75	T_INK	7	Incongruent	żółty	yellow	zielony	green	hit	n/a
21.684	n/a	RESPONSE	n/a	n/a	n/a	n/a	n/a	n/a	n/a	green
21.7207	0.5334	FEEDBACK	n/a	n/a	n/a	n/a	n/a	n/a	n/a	n/a
22.2541	1.0333	ITI	n/a	n/a	n/a	n/a	n/a	n/a	n/a	n/a
23.2875	0.5333	FIXCROSS	n/a	n/a	n/a	n/a	n/a	n/a	n/a	n/a
23.8208	0.5833	T_INK	8	Neutral	xxxxxxxx	xxxxxxxx	zielony	green	hit	n/a
24.367	n/a	RESPONSE	n/a	n/a	n/a	n/a	n/a	n/a	n/a	green
24.4041	0.5333	FEEDBACK	n/a	n/a	n/a	n/a	n/a	n/a	n/a	n/a
24.9375	1.0333	ITI	n/a	n/a	n/a	n/a	n/a	n/a	n/a	n/a
25.9708	0.5334	FIXCROSS	n/a	n/a	n/a	n/a	n/a	n/a	n/a	n/a
26.5042	0.75	T_INK	9	Incongruent	zielony	green	żółty	yellow	hit	n/a
27.2092	n/a	RESPONSE	n/a	n/a	n/a	n/a	n/a	n/a	n/a	yellow
27.2542	0.5333	FEEDBACK	n/a	n/a	n/a	n/a	n/a	n/a	n/a	n/a
27.7875	1.0334	ITI	n/a	n/a	n/a	n/a	n/a	n/a	n/a	n/a
28.8209	0.5333	FIXCROSS	n/a	n/a	n/a	n/a	n/a	n/a	n/a	n/a
29.3542	0.5667	T_INK	10	Neutral	xxxxx	xxxxx	czerwony	red	incorrect	n/a
29.8918	n/a	RESPONSE	n/a	n/a	n/a	n/a	n/a	n/a	n/a	blue
29.9209	0.5333	FEEDBACK	n/a	n/a	n/a	n/a	n/a	n/a	n/a	n/a
30.4542	1.0334	ITI	n/a	n/a	n/a	n/a	n/a	n/a	n/a	n/a
31.4876	0.5333	FIXCROSS	n/a	n/a	n/a	n/a	n/a	n/a	n/a	n/a
32.0209	0.6	T_INK	11	Neutral	xxxxxxxx	xxxxxxxx	niebieski	blue	hit	n/a
32.5903	n/a	RESPONSE	n/a	n/a	n/a	n/a	n/a	n/a	n/a	blue
32.6209	0.5334	FEEDBACK	n/a	n/a	n/a	n/a	n/a	n/a	n/a	n/a
33.1542	1.0334	ITI	n/a	n/a	n/a	n/a	n/a	n/a	n/a	n/a
34.1876	0.5333	FIXCROSS	n/a	n/a	n/a	n/a	n/a	n/a	n/a	n/a
34.7209	0.5833	T_INK	12	Incongruent	żółty	yellow	czerwony	red	hit	n/a
35.2729	n/a	RESPONSE	n/a	n/a	n/a	n/a	n/a	n/a	n/a	red
35.3043	0.5333	FEEDBACK	n/a	n/a	n/a	n/a	n/a	n/a	n/a	n/a
35.8376	1.05	ITI	n/a	n/a	n/a	n/a	n/a	n/a	n/a	n/a
61.7627	n/a	RESPONSE	n/a	n/a	n/a	n/a	n/a	n/a	n/a	n/a
61.8379	1.0334	ITI	n/a	n/a	n/a	n/a	n/a	n/a	n/a	n/a
62.8712	0.5333	FIXCROSS	n/a	n/a	n/a	n/a	n/a	n/a	n/a	n/a
63.4045	0.5	INK	1	Neutral	xxxxxxxxx	xxxxxxxxx	zielony	green	hit	n/a
63.8704	n/a	RESPONSE	n/a	n/a	n/a	n/a	n/a	n/a	n/a	green
63.9045	1.0334	ITI	n/a	n/a	n/a	n/a	n/a	n/a	n/a	n/a
64.0941	n/a	RESPONSE	n/a	n/a	n/a	n/a	n/a	n/a	n/a	green
64.9379	0.5333	FIXCROSS	n/a	n/a	n/a	n/a	n/a	n/a	n/a	n/a
65.4712	0.55	INK	2	Neutral	xxxxxxxxx	xxxxxxxxx	żółty	yellow	hit	n/a
65.9782	n/a	RESPONSE	n/a	n/a	n/a	n/a	n/a	n/a	n/a	yellow
66.0212	1.0333	ITI	n/a	n/a	n/a	n/a	n/a	n/a	n/a	n/a
67.0546	0.5333	FIXCROSS	n/a	n/a	n/a	n/a	n/a	n/a	n/a	n/a
67.5879	0.6	INK	3	Incongruent	żółty	yellow	zielony	green	incorrect	n/a
68.1498	n/a	RESPONSE	n/a	n/a	n/a	n/a	n/a	n/a	n/a	yellow
68.1879	1.0333	ITI	n/a	n/a	n/a	n/a	n/a	n/a	n/a	n/a
68.2136	n/a	RESPONSE	n/a	n/a	n/a	n/a	n/a	n/a	n/a	green
69.2213	0.5333	FIXCROSS	n/a	n/a	n/a	n/a	n/a	n/a	n/a	n/a
69.7546	0.5	INK	4	Incongruent	żółty	yellow	niebieski	blue	hit	n/a
70.2255	n/a	RESPONSE	n/a	n/a	n/a	n/a	n/a	n/a	n/a	blue
70.2546	1.0333	ITI	n/a	n/a	n/a	n/a	n/a	n/a	n/a	n/a
71.2879	0.5334	FIXCROSS	n/a	n/a	n/a	n/a	n/a	n/a	n/a	n/a
71.8213	0.4833	INK	5	Neutral	xxxxxxxxx	xxxxxxxxx	zielony	green	hit	n/a
72.2693	n/a	RESPONSE	n/a	n/a	n/a	n/a	n/a	n/a	n/a	green
72.3047	1.0333	ITI	n/a	n/a	n/a	n/a	n/a	n/a	n/a	n/a
73.338	0.5333	FIXCROSS	n/a	n/a	n/a	n/a	n/a	n/a	n/a	n/a
73.8713	0.5333	INK	6	Incongruent	zielony	green	czerwony	red	hit	n/a
74.3611	n/a	RESPONSE	n/a	n/a	n/a	n/a	n/a	n/a	n/a	red
74.4046	1.0334	ITI	n/a	n/a	n/a	n/a	n/a	n/a	n/a	n/a
75.438	0.5333	FIXCROSS	n/a	n/a	n/a	n/a	n/a	n/a	n/a	n/a
75.9713	0.4333	INK	7	Neutral	xxxxxxx	xxxxxxx	czerwony	red	hit	n/a
76.373	n/a	RESPONSE	n/a	n/a	n/a	n/a	n/a	n/a	n/a	red
76.4047	1.0333	ITI	n/a	n/a	n/a	n/a	n/a	n/a	n/a	n/a
77.438	0.5333	FIXCROSS	n/a	n/a	n/a	n/a	n/a	n/a	n/a	n/a
77.9714	0.3667	INK	8	Neutral	xxxxxxx	xxxxxxx	niebieski	blue	hit	n/a
78.305	n/a	RESPONSE	n/a	n/a	n/a	n/a	n/a	n/a	n/a	blue
78.338	1.0333	ITI	n/a	n/a	n/a	n/a	n/a	n/a	n/a	n/a
79.3714	0.5334	FIXCROSS	n/a	n/a	n/a	n/a	n/a	n/a	n/a	n/a
79.9047	0.35	INK	9	Incongruent	żółty	yellow	niebieski	blue	incorrect	n/a
80.2211	n/a	RESPONSE	n/a	n/a	n/a	n/a	n/a	n/a	n/a	green
80.2547	1.0334	ITI	n/a	n/a	n/a	n/a	n/a	n/a	n/a	n/a
81.2881	0.5333	FIXCROSS	n/a	n/a	n/a	n/a	n/a	n/a	n/a	n/a
81.8214	0.5667	INK	10	Incongruent	żółty	yellow	czerwony	red	incorrect	n/a
82.3448	n/a	RESPONSE	n/a	n/a	n/a	n/a	n/a	n/a	n/a	blue
82.3881	1.0333	ITI	n/a	n/a	n/a	n/a	n/a	n/a	n/a	n/a
82.4245	n/a	RESPONSE	n/a	n/a	n/a	n/a	n/a	n/a	n/a	red
83.4214	0.5333	FIXCROSS	n/a	n/a	n/a	n/a	n/a	n/a	n/a	n/a
83.9547	0.5334	INK	11	Incongruent	żółty	yellow	czerwony	red	hit	n/a
84.4525	n/a	RESPONSE	n/a	n/a	n/a	n/a	n/a	n/a	n/a	red
84.4881	1.0333	ITI	n/a	n/a	n/a	n/a	n/a	n/a	n/a	n/a
85.5214	0.5333	FIXCROSS	n/a	n/a	n/a	n/a	n/a	n/a	n/a	n/a
86.0548	0.5333	INK	12	Neutral	xxxxxxx	xxxxxxx	żółty	yellow	incorrect	n/a
86.5601	n/a	RESPONSE	n/a	n/a	n/a	n/a	n/a	n/a	n/a	green
86.5881	1.0334	ITI	n/a	n/a	n/a	n/a	n/a	n/a	n/a	n/a
86.656	n/a	RESPONSE	n/a	n/a	n/a	n/a	n/a	n/a	n/a	yellow
87.6215	0.5333	FIXCROSS	n/a	n/a	n/a	n/a	n/a	n/a	n/a	n/a
88.1548	0.4167	INK	13	Neutral	xxxxxxxxx	xxxxxxxxx	czerwony	red	incorrect	n/a
88.5401	n/a	RESPONSE	n/a	n/a	n/a	n/a	n/a	n/a	n/a	green
88.5715	1.0333	ITI	n/a	n/a	n/a	n/a	n/a	n/a	n/a	n/a
89.6048	0.5333	FIXCROSS	n/a	n/a	n/a	n/a	n/a	n/a	n/a	n/a
90.1382	0.7667	INK	14	Neutral	xxxxxxx	xxxxxxx	żółty	yellow	hit	n/a
90.8714	n/a	RESPONSE	n/a	n/a	n/a	n/a	n/a	n/a	n/a	yellow
90.9048	1.0334	ITI	n/a	n/a	n/a	n/a	n/a	n/a	n/a	n/a
91.9382	0.5333	FIXCROSS	n/a	n/a	n/a	n/a	n/a	n/a	n/a	n/a
92.4715	0.4667	INK	15	Incongruent	zielony	green	niebieski	blue	hit	n/a
92.8992	n/a	RESPONSE	n/a	n/a	n/a	n/a	n/a	n/a	n/a	blue
92.9382	1.0333	ITI	n/a	n/a	n/a	n/a	n/a	n/a	n/a	n/a
93.9715	0.5334	FIXCROSS	n/a	n/a	n/a	n/a	n/a	n/a	n/a	n/a
94.5049	0.8167	INK	16	Incongruent	czerwony	red	żółty	yellow	hit	n/a
95.2783	n/a	RESPONSE	n/a	n/a	n/a	n/a	n/a	n/a	n/a	yellow
95.3216	1.0333	ITI	n/a	n/a	n/a	n/a	n/a	n/a	n/a	n/a
96.3549	0.5333	FIXCROSS	n/a	n/a	n/a	n/a	n/a	n/a	n/a	n/a
96.8883	0.5167	INK	17	Incongruent	niebieski	blue	żółty	yellow	hit	n/a
97.3701	n/a	RESPONSE	n/a	n/a	n/a	n/a	n/a	n/a	n/a	yellow
97.4049	1.0333	ITI	n/a	n/a	n/a	n/a	n/a	n/a	n/a	n/a
98.4383	0.5333	FIXCROSS	n/a	n/a	n/a	n/a	n/a	n/a	n/a	n/a
98.9716	0.7333	INK	18	Neutral	xxxxxxx	xxxxxxx	niebieski	blue	incorrect	n/a
99.6694	n/a	RESPONSE	n/a	n/a	n/a	n/a	n/a	n/a	n/a	green
99.7049	1.0334	ITI	n/a	n/a	n/a	n/a	n/a	n/a	n/a	n/a
99.7972	n/a	RESPONSE	n/a	n/a	n/a	n/a	n/a	n/a	n/a	blue
100.7383	0.5334	FIXCROSS	n/a	n/a	n/a	n/a	n/a	n/a	n/a	n/a
101.2716	0.45	INK	19	Neutral	xxxxxxxxx	xxxxxxxxx	czerwony	red	hit	n/a
101.6813	n/a	RESPONSE	n/a	n/a	n/a	n/a	n/a	n/a	n/a	red
101.7216	1.0333	ITI	n/a	n/a	n/a	n/a	n/a	n/a	n/a	n/a
102.755	0.5333	FIXCROSS	n/a	n/a	n/a	n/a	n/a	n/a	n/a	n/a
103.2883	0.3833	INK	20	Neutral	xxxxxxxx	xxxxxxxx	zielony	green	hit	n/a
103.6294	n/a	RESPONSE	n/a	n/a	n/a	n/a	n/a	n/a	n/a	green
103.6716	1.0334	ITI	n/a	n/a	n/a	n/a	n/a	n/a	n/a	n/a
104.705	0.5334	FIXCROSS	n/a	n/a	n/a	n/a	n/a	n/a	n/a	n/a
105.2383	0.5	INK	21	Neutral	xxxxxxxxx	xxxxxxxxx	zielony	green	incorrect	n/a
105.7051	n/a	RESPONSE	n/a	n/a	n/a	n/a	n/a	n/a	n/a	blue
105.7383	1.0333	ITI	n/a	n/a	n/a	n/a	n/a	n/a	n/a	n/a
105.9446	n/a	RESPONSE	n/a	n/a	n/a	n/a	n/a	n/a	n/a	green
106.7717	0.5333	FIXCROSS	n/a	n/a	n/a	n/a	n/a	n/a	n/a	n/a
107.305	0.65	INK	22	Neutral	xxxxxxxx	xxxxxxxx	niebieski	blue	hit	n/a
107.9246	n/a	RESPONSE	n/a	n/a	n/a	n/a	n/a	n/a	n/a	blue
107.955	1.0333	ITI	n/a	n/a	n/a	n/a	n/a	n/a	n/a	n/a
108.9884	0.5333	FIXCROSS	n/a	n/a	n/a	n/a	n/a	n/a	n/a	n/a
109.5217	0.6334	INK	23	Incongruent	żółty	yellow	zielony	green	hit	n/a
110.1121	n/a	RESPONSE	n/a	n/a	n/a	n/a	n/a	n/a	n/a	green
110.1551	1.0333	ITI	n/a	n/a	n/a	n/a	n/a	n/a	n/a	n/a
111.1884	0.5334	FIXCROSS	n/a	n/a	n/a	n/a	n/a	n/a	n/a	n/a
111.7217	0.5833	INK	24	Incongruent	czerwony	red	żółty	yellow	hit	n/a
112.2677	n/a	RESPONSE	n/a	n/a	n/a	n/a	n/a	n/a	n/a	yellow
112.3051	1.0333	ITI	n/a	n/a	n/a	n/a	n/a	n/a	n/a	n/a
113.3384	0.5334	FIXCROSS	n/a	n/a	n/a	n/a	n/a	n/a	n/a	n/a
113.8718	0.5	INK	25	Incongruent	niebieski	blue	czerwony	red	hit	n/a
114.3434	n/a	RESPONSE	n/a	n/a	n/a	n/a	n/a	n/a	n/a	red
114.3718	1.0333	ITI	n/a	n/a	n/a	n/a	n/a	n/a	n/a	n/a
115.4051	0.5333	FIXCROSS	n/a	n/a	n/a	n/a	n/a	n/a	n/a	n/a
115.9384	1.7334	INK	26	Incongruent	zielony	green	żółty	yellow	hit	n/a
117.6328	n/a	RESPONSE	n/a	n/a	n/a	n/a	n/a	n/a	n/a	yellow
117.6718	1.0333	ITI	n/a	n/a	n/a	n/a	n/a	n/a	n/a	n/a
118.7051	0.5333	FIXCROSS	n/a	n/a	n/a	n/a	n/a	n/a	n/a	n/a
119.2385	0.5167	INK	27	Neutral	xxxxxxx	xxxxxxx	żółty	yellow	hit	n/a
119.7245	n/a	RESPONSE	n/a	n/a	n/a	n/a	n/a	n/a	n/a	yellow
119.7551	1.0334	ITI	n/a	n/a	n/a	n/a	n/a	n/a	n/a	n/a
120.7885	0.5333	FIXCROSS	n/a	n/a	n/a	n/a	n/a	n/a	n/a	n/a
121.3218	0.4667	INK	28	Neutral	xxxxx	xxxxx	zielony	green	hit	n/a
121.7524	n/a	RESPONSE	n/a	n/a	n/a	n/a	n/a	n/a	n/a	green
121.7885	1.0333	ITI	n/a	n/a	n/a	n/a	n/a	n/a	n/a	n/a
122.8219	0.5333	FIXCROSS	n/a	n/a	n/a	n/a	n/a	n/a	n/a	n/a
123.3552	0.4167	INK	29	Incongruent	żółty	yellow	niebieski	blue	hit	n/a
123.7322	n/a	RESPONSE	n/a	n/a	n/a	n/a	n/a	n/a	n/a	blue
123.7719	1.0333	ITI	n/a	n/a	n/a	n/a	n/a	n/a	n/a	n/a
124.8052	0.5334	FIXCROSS	n/a	n/a	n/a	n/a	n/a	n/a	n/a	n/a
125.3385	0.3166	INK	30	Incongruent	zielony	green	czerwony	red	hit	n/a
125.6165	n/a	RESPONSE	n/a	n/a	n/a	n/a	n/a	n/a	n/a	red
125.6552	1.0334	ITI	n/a	n/a	n/a	n/a	n/a	n/a	n/a	n/a
126.6886	0.5333	FIXCROSS	n/a	n/a	n/a	n/a	n/a	n/a	n/a	n/a
127.2219	0.4333	INK	31	Neutral	xxxxxxxx	xxxxxxxx	zielony	green	incorrect	n/a
127.6123	n/a	RESPONSE	n/a	n/a	n/a	n/a	n/a	n/a	n/a	yellow
127.6552	1.0333	ITI	n/a	n/a	n/a	n/a	n/a	n/a	n/a	n/a
128.6886	0.5334	FIXCROSS	n/a	n/a	n/a	n/a	n/a	n/a	n/a	n/a
129.2219	0.5333	INK	32	Neutral	xxxxxxx	xxxxxxx	czerwony	red	incorrect	n/a
129.72	n/a	RESPONSE	n/a	n/a	n/a	n/a	n/a	n/a	n/a	blue
129.7553	1.0333	ITI	n/a	n/a	n/a	n/a	n/a	n/a	n/a	n/a
130.7886	0.5333	FIXCROSS	n/a	n/a	n/a	n/a	n/a	n/a	n/a	n/a
131.3219	0.6834	INK	33	Incongruent	zielony	green	niebieski	blue	hit	n/a
131.9714	n/a	RESPONSE	n/a	n/a	n/a	n/a	n/a	n/a	n/a	blue
132.0053	1.0333	ITI	n/a	n/a	n/a	n/a	n/a	n/a	n/a	n/a
133.0386	0.5334	FIXCROSS	n/a	n/a	n/a	n/a	n/a	n/a	n/a	n/a
133.572	0.5	INK	34	Neutral	xxxxx	xxxxx	niebieski	blue	hit	n/a
134.0311	n/a	RESPONSE	n/a	n/a	n/a	n/a	n/a	n/a	n/a	blue
134.072	1.0333	ITI	n/a	n/a	n/a	n/a	n/a	n/a	n/a	n/a
135.1053	0.5333	FIXCROSS	n/a	n/a	n/a	n/a	n/a	n/a	n/a	n/a
135.6386	0.65	INK	35	Incongruent	czerwony	red	zielony	green	hit	n/a
136.2506	n/a	RESPONSE	n/a	n/a	n/a	n/a	n/a	n/a	n/a	green
136.2887	1.0333	ITI	n/a	n/a	n/a	n/a	n/a	n/a	n/a	n/a
137.322	0.5333	FIXCROSS	n/a	n/a	n/a	n/a	n/a	n/a	n/a	n/a
137.8553	0.5167	INK	36	Incongruent	czerwony	red	zielony	green	hit	n/a
138.3424	n/a	RESPONSE	n/a	n/a	n/a	n/a	n/a	n/a	n/a	green
138.372	1.0333	ITI	n/a	n/a	n/a	n/a	n/a	n/a	n/a	n/a
139.4054	0.5333	FIXCROSS	n/a	n/a	n/a	n/a	n/a	n/a	n/a	n/a
139.9387	0.6333	INK	37	Incongruent	niebieski	blue	żółty	yellow	hit	n/a
140.5299	n/a	RESPONSE	n/a	n/a	n/a	n/a	n/a	n/a	n/a	yellow
140.572	1.0334	ITI	n/a	n/a	n/a	n/a	n/a	n/a	n/a	n/a
141.6054	0.5333	FIXCROSS	n/a	n/a	n/a	n/a	n/a	n/a	n/a	n/a
142.1387	0.5667	INK	38	Neutral	xxxxx	xxxxx	niebieski	blue	hit	n/a
142.6696	n/a	RESPONSE	n/a	n/a	n/a	n/a	n/a	n/a	n/a	blue
142.7054	1.0333	ITI	n/a	n/a	n/a	n/a	n/a	n/a	n/a	n/a
143.7387	0.5333	FIXCROSS	n/a	n/a	n/a	n/a	n/a	n/a	n/a	n/a
144.2721	0.5833	INK	39	Incongruent	niebieski	blue	żółty	yellow	hit	n/a
144.8252	n/a	RESPONSE	n/a	n/a	n/a	n/a	n/a	n/a	n/a	yellow
144.8554	1.0333	ITI	n/a	n/a	n/a	n/a	n/a	n/a	n/a	n/a
145.8888	0.5333	FIXCROSS	n/a	n/a	n/a	n/a	n/a	n/a	n/a	n/a
146.4221	0.5666	INK	40	Incongruent	niebieski	blue	zielony	green	incorrect	n/a
146.9488	n/a	RESPONSE	n/a	n/a	n/a	n/a	n/a	n/a	n/a	red
146.9888	1.0333	ITI	n/a	n/a	n/a	n/a	n/a	n/a	n/a	n/a
148.0221	0.5334	FIXCROSS	n/a	n/a	n/a	n/a	n/a	n/a	n/a	n/a
148.5555	0.7833	INK	41	Neutral	xxxxx	xxxxx	zielony	green	hit	n/a
149.2962	n/a	RESPONSE	n/a	n/a	n/a	n/a	n/a	n/a	n/a	green
149.3388	1.0333	ITI	n/a	n/a	n/a	n/a	n/a	n/a	n/a	n/a
150.3722	0.5333	FIXCROSS	n/a	n/a	n/a	n/a	n/a	n/a	n/a	n/a
150.9055	0.6667	INK	42	Incongruent	czerwony	red	niebieski	blue	hit	n/a
151.5318	n/a	RESPONSE	n/a	n/a	n/a	n/a	n/a	n/a	n/a	blue
151.5722	1.0333	ITI	n/a	n/a	n/a	n/a	n/a	n/a	n/a	n/a
152.6055	0.5333	FIXCROSS	n/a	n/a	n/a	n/a	n/a	n/a	n/a	n/a
153.1388	0.6	INK	43	Incongruent	czerwony	red	zielony	green	hit	n/a
153.7034	n/a	RESPONSE	n/a	n/a	n/a	n/a	n/a	n/a	n/a	green
153.7388	1.0334	ITI	n/a	n/a	n/a	n/a	n/a	n/a	n/a	n/a
154.7722	0.5333	FIXCROSS	n/a	n/a	n/a	n/a	n/a	n/a	n/a	n/a
155.3055	0.5667	INK	44	Incongruent	zielony	green	żółty	yellow	hit	n/a
155.843	n/a	RESPONSE	n/a	n/a	n/a	n/a	n/a	n/a	n/a	yellow
155.8722	1.0333	ITI	n/a	n/a	n/a	n/a	n/a	n/a	n/a	n/a
156.9056	0.5333	FIXCROSS	n/a	n/a	n/a	n/a	n/a	n/a	n/a	n/a
157.4389	0.4667	INK	45	Incongruent	niebieski	blue	czerwony	red	incorrect	n/a
157.8709	n/a	RESPONSE	n/a	n/a	n/a	n/a	n/a	n/a	n/a	green
157.9056	1.0333	ITI	n/a	n/a	n/a	n/a	n/a	n/a	n/a	n/a
158.9389	0.5334	FIXCROSS	n/a	n/a	n/a	n/a	n/a	n/a	n/a	n/a
159.4723	0.4833	INK	46	Neutral	xxxxxxxx	xxxxxxxx	niebieski	blue	hit	n/a
159.9146	n/a	RESPONSE	n/a	n/a	n/a	n/a	n/a	n/a	n/a	blue
159.9556	1.0333	ITI	n/a	n/a	n/a	n/a	n/a	n/a	n/a	n/a
160.9889	0.5333	FIXCROSS	n/a	n/a	n/a	n/a	n/a	n/a	n/a	n/a
161.5222	0.4167	INK	47	Neutral	xxxxxxx	xxxxxxx	czerwony	red	hit	n/a
161.9106	n/a	RESPONSE	n/a	n/a	n/a	n/a	n/a	n/a	n/a	red
161.9389	1.0333	ITI	n/a	n/a	n/a	n/a	n/a	n/a	n/a	n/a
162.9723	0.5333	FIXCROSS	n/a	n/a	n/a	n/a	n/a	n/a	n/a	n/a
163.5056	0.55	INK	48	Incongruent	niebieski	blue	czerwony	red	hit	n/a
164.0183	n/a	RESPONSE	n/a	n/a	n/a	n/a	n/a	n/a	n/a	red
164.0556	1.0334	ITI	n/a	n/a	n/a	n/a	n/a	n/a	n/a	n/a
165.089	0.5333	FIXCROSS	n/a	n/a	n/a	n/a	n/a	n/a	n/a	n/a
165.6223	0.5833	INK	49	Incongruent	niebieski	blue	zielony	green	hit	n/a
166.1739	n/a	RESPONSE	n/a	n/a	n/a	n/a	n/a	n/a	n/a	green
166.2057	1.0333	ITI	n/a	n/a	n/a	n/a	n/a	n/a	n/a	n/a
167.239	0.5333	FIXCROSS	n/a	n/a	n/a	n/a	n/a	n/a	n/a	n/a
167.7723	0.4167	INK	50	Neutral	xxxxx	xxxxx	zielony	green	hit	n/a
168.1538	n/a	RESPONSE	n/a	n/a	n/a	n/a	n/a	n/a	n/a	green
168.189	1.0333	ITI	n/a	n/a	n/a	n/a	n/a	n/a	n/a	n/a
169.2224	0.5333	FIXCROSS	n/a	n/a	n/a	n/a	n/a	n/a	n/a	n/a
169.7557	0.4833	INK	51	Incongruent	zielony	green	żółty	yellow	hit	n/a
170.1977	n/a	RESPONSE	n/a	n/a	n/a	n/a	n/a	n/a	n/a	yellow
170.239	1.0333	ITI	n/a	n/a	n/a	n/a	n/a	n/a	n/a	n/a
171.2724	0.5334	FIXCROSS	n/a	n/a	n/a	n/a	n/a	n/a	n/a	n/a
171.8057	0.6333	INK	52	Neutral	xxxxxxxxx	xxxxxxxxx	czerwony	red	hit	n/a
172.4011	n/a	RESPONSE	n/a	n/a	n/a	n/a	n/a	n/a	n/a	red
172.4391	1.0333	ITI	n/a	n/a	n/a	n/a	n/a	n/a	n/a	n/a
173.4724	0.5333	FIXCROSS	n/a	n/a	n/a	n/a	n/a	n/a	n/a	n/a
174.0057	0.4833	INK	53	Incongruent	żółty	yellow	czerwony	red	hit	n/a
174.4609	n/a	RESPONSE	n/a	n/a	n/a	n/a	n/a	n/a	n/a	red
174.4891	1.0334	ITI	n/a	n/a	n/a	n/a	n/a	n/a	n/a	n/a
175.5224	0.5333	FIXCROSS	n/a	n/a	n/a	n/a	n/a	n/a	n/a	n/a
176.0558	0.45	INK	54	Neutral	xxxxx	xxxxx	czerwony	red	hit	n/a
176.4727	n/a	RESPONSE	n/a	n/a	n/a	n/a	n/a	n/a	n/a	red
176.5057	1.0334	ITI	n/a	n/a	n/a	n/a	n/a	n/a	n/a	n/a
177.5391	0.5333	FIXCROSS	n/a	n/a	n/a	n/a	n/a	n/a	n/a	n/a
178.0724	0.4834	INK	55	Neutral	xxxxxxxx	xxxxxxxx	zielony	green	hit	n/a
178.5166	n/a	RESPONSE	n/a	n/a	n/a	n/a	n/a	n/a	n/a	green
178.5558	1.0333	ITI	n/a	n/a	n/a	n/a	n/a	n/a	n/a	n/a
179.5891	0.5333	FIXCROSS	n/a	n/a	n/a	n/a	n/a	n/a	n/a	n/a
180.1225	0.4167	INK	56	Neutral	xxxxxxxxx	xxxxxxxxx	żółty	yellow	hit	n/a
180.4966	n/a	RESPONSE	n/a	n/a	n/a	n/a	n/a	n/a	n/a	yellow
180.5391	1.0333	ITI	n/a	n/a	n/a	n/a	n/a	n/a	n/a	n/a
181.5725	0.5333	FIXCROSS	n/a	n/a	n/a	n/a	n/a	n/a	n/a	n/a
182.1058	0.6333	INK	57	Incongruent	żółty	yellow	zielony	green	hit	n/a
182.7	n/a	RESPONSE	n/a	n/a	n/a	n/a	n/a	n/a	n/a	green
182.7391	1.0334	ITI	n/a	n/a	n/a	n/a	n/a	n/a	n/a	n/a
183.7725	0.5333	FIXCROSS	n/a	n/a	n/a	n/a	n/a	n/a	n/a	n/a
184.3059	0.5833	INK	58	Neutral	xxxxxxxx	xxxxxxxx	żółty	yellow	hit	n/a
184.8557	n/a	RESPONSE	n/a	n/a	n/a	n/a	n/a	n/a	n/a	yellow
184.8892	1.0333	ITI	n/a	n/a	n/a	n/a	n/a	n/a	n/a	n/a
185.9225	0.5333	FIXCROSS	n/a	n/a	n/a	n/a	n/a	n/a	n/a	n/a
186.4559	0.4167	INK	59	Neutral	xxxxxxx	xxxxxxx	niebieski	blue	hit	n/a
186.8357	n/a	RESPONSE	n/a	n/a	n/a	n/a	n/a	n/a	n/a	blue
186.8725	1.0333	ITI	n/a	n/a	n/a	n/a	n/a	n/a	n/a	n/a
187.9059	0.5333	FIXCROSS	n/a	n/a	n/a	n/a	n/a	n/a	n/a	n/a
188.4392	0.45	INK	60	Incongruent	zielony	green	niebieski	blue	hit	n/a
188.8478	n/a	RESPONSE	n/a	n/a	n/a	n/a	n/a	n/a	n/a	blue
188.8892	1.0333	ITI	n/a	n/a	n/a	n/a	n/a	n/a	n/a	n/a
189.9225	0.5334	FIXCROSS	n/a	n/a	n/a	n/a	n/a	n/a	n/a	n/a
190.4559	0.3833	INK	61	Neutral	xxxxxxxx	xxxxxxxx	niebieski	blue	hit	n/a
190.7957	n/a	RESPONSE	n/a	n/a	n/a	n/a	n/a	n/a	n/a	blue
190.8392	1.0333	ITI	n/a	n/a	n/a	n/a	n/a	n/a	n/a	n/a
191.8726	0.5333	FIXCROSS	n/a	n/a	n/a	n/a	n/a	n/a	n/a	n/a
192.4059	0.4834	INK	62	Neutral	xxxxxxxxx	xxxxxxxxx	żółty	yellow	hit	n/a
192.8556	n/a	RESPONSE	n/a	n/a	n/a	n/a	n/a	n/a	n/a	yellow
192.8893	1.0333	ITI	n/a	n/a	n/a	n/a	n/a	n/a	n/a	n/a
193.9226	0.5334	FIXCROSS	n/a	n/a	n/a	n/a	n/a	n/a	n/a	n/a
194.456	0.4833	INK	63	Neutral	xxxxx	xxxxx	czerwony	red	hit	n/a
194.8993	n/a	RESPONSE	n/a	n/a	n/a	n/a	n/a	n/a	n/a	red
194.9393	1.0333	ITI	n/a	n/a	n/a	n/a	n/a	n/a	n/a	n/a
195.9726	0.5333	FIXCROSS	n/a	n/a	n/a	n/a	n/a	n/a	n/a	n/a
196.506	0.5833	INK	64	Incongruent	czerwony	red	niebieski	blue	hit	n/a
197.0551	n/a	RESPONSE	n/a	n/a	n/a	n/a	n/a	n/a	n/a	blue
197.0893	1.0334	ITI	n/a	n/a	n/a	n/a	n/a	n/a	n/a	n/a
198.1227	0.5333	FIXCROSS	n/a	n/a	n/a	n/a	n/a	n/a	n/a	n/a
198.656	0.4333	INK	65	Incongruent	czerwony	red	żółty	yellow	hit	n/a
199.0508	n/a	RESPONSE	n/a	n/a	n/a	n/a	n/a	n/a	n/a	yellow
199.0894	1.0333	ITI	n/a	n/a	n/a	n/a	n/a	n/a	n/a	n/a
200.1227	0.5333	FIXCROSS	n/a	n/a	n/a	n/a	n/a	n/a	n/a	n/a
200.656	0.4667	INK	66	Neutral	xxxxxxxx	xxxxxxxx	żółty	yellow	hit	n/a
201.0947	n/a	RESPONSE	n/a	n/a	n/a	n/a	n/a	n/a	n/a	yellow
201.1227	1.0333	ITI	n/a	n/a	n/a	n/a	n/a	n/a	n/a	n/a
202.156	0.5333	FIXCROSS	n/a	n/a	n/a	n/a	n/a	n/a	n/a	n/a
202.6894	0.4667	INK	67	Neutral	xxxxx	xxxxx	czerwony	red	hit	n/a
203.1225	n/a	RESPONSE	n/a	n/a	n/a	n/a	n/a	n/a	n/a	red
203.1561	1.0333	ITI	n/a	n/a	n/a	n/a	n/a	n/a	n/a	n/a
204.1894	0.5333	FIXCROSS	n/a	n/a	n/a	n/a	n/a	n/a	n/a	n/a
204.7227	0.4667	INK	68	Incongruent	zielony	green	czerwony	red	hit	n/a
205.1504	n/a	RESPONSE	n/a	n/a	n/a	n/a	n/a	n/a	n/a	red
205.1894	1.0333	ITI	n/a	n/a	n/a	n/a	n/a	n/a	n/a	n/a
206.2227	0.5334	FIXCROSS	n/a	n/a	n/a	n/a	n/a	n/a	n/a	n/a
206.7561	0.4333	INK	69	Incongruent	czerwony	red	niebieski	blue	hit	n/a
207.1464	n/a	RESPONSE	n/a	n/a	n/a	n/a	n/a	n/a	n/a	blue
207.1894	1.0333	ITI	n/a	n/a	n/a	n/a	n/a	n/a	n/a	n/a
208.2228	0.5333	FIXCROSS	n/a	n/a	n/a	n/a	n/a	n/a	n/a	n/a
208.7561	0.5667	INK	70	Neutral	xxxxxxxx	xxxxxxxx	żółty	yellow	hit	n/a
209.286	n/a	RESPONSE	n/a	n/a	n/a	n/a	n/a	n/a	n/a	yellow
209.3228	1.0333	ITI	n/a	n/a	n/a	n/a	n/a	n/a	n/a	n/a
210.3561	0.5333	FIXCROSS	n/a	n/a	n/a	n/a	n/a	n/a	n/a	n/a
210.8895	0.3833	INK	71	Neutral	xxxxx	xxxxx	niebieski	blue	hit	n/a
211.2341	n/a	RESPONSE	n/a	n/a	n/a	n/a	n/a	n/a	n/a	blue
211.2728	1.0334	ITI	n/a	n/a	n/a	n/a	n/a	n/a	n/a	n/a
212.3062	0.5333	FIXCROSS	n/a	n/a	n/a	n/a	n/a	n/a	n/a	n/a
212.8395	0.5833	INK	72	Incongruent	niebieski	blue	zielony	green	hit	n/a
213.3896	n/a	RESPONSE	n/a	n/a	n/a	n/a	n/a	n/a	n/a	green
213.4228	1.0827	ITI	n/a	n/a	n/a	n/a	n/a	n/a	n/a	n/a
232.9818	n/a	RESPONSE	n/a	n/a	n/a	n/a	n/a	n/a	n/a	n/a
233.0564	1.0	ITI	n/a	n/a	n/a	n/a	n/a	n/a	n/a	n/a
234.0564	0.5	FIXCROSS	n/a	n/a	n/a	n/a	n/a	n/a	n/a	n/a
234.5564	0.6833	T_COLOR_NAME	1	Incongruent	zielony	green	żółty	yellow	incorrect	n/a
235.2332	n/a	RESPONSE	n/a	n/a	n/a	n/a	n/a	n/a	n/a	yellow
235.2397	0.5	FEEDBACK	n/a	n/a	n/a	n/a	n/a	n/a	n/a	n/a
235.7397	1.0	ITI	n/a	n/a	n/a	n/a	n/a	n/a	n/a	n/a
236.7398	0.5	FIXCROSS	n/a	n/a	n/a	n/a	n/a	n/a	n/a	n/a
237.2398	1.1334	T_COLOR_NAME	2	Neutral	zielony	green	Neutral	Neutral	hit	n/a
238.3628	n/a	RESPONSE	n/a	n/a	n/a	n/a	n/a	n/a	n/a	green
238.3731	0.5	FEEDBACK	n/a	n/a	n/a	n/a	n/a	n/a	n/a	n/a
238.8731	1.0	ITI	n/a	n/a	n/a	n/a	n/a	n/a	n/a	n/a
239.8731	0.5	FIXCROSS	n/a	n/a	n/a	n/a	n/a	n/a	n/a	n/a
240.3731	1.4834	T_COLOR_NAME	3	Incongruent	czerwony	red	niebieski	blue	hit	n/a
241.8438	n/a	RESPONSE	n/a	n/a	n/a	n/a	n/a	n/a	n/a	red
241.8565	0.5	FEEDBACK	n/a	n/a	n/a	n/a	n/a	n/a	n/a	n/a
242.3565	1.0	ITI	n/a	n/a	n/a	n/a	n/a	n/a	n/a	n/a
243.3565	0.5	FIXCROSS	n/a	n/a	n/a	n/a	n/a	n/a	n/a	n/a
243.8565	0.7167	T_COLOR_NAME	4	Incongruent	żółty	yellow	czerwony	red	hit	n/a
244.5581	n/a	RESPONSE	n/a	n/a	n/a	n/a	n/a	n/a	n/a	yellow
244.5732	0.5	FEEDBACK	n/a	n/a	n/a	n/a	n/a	n/a	n/a	n/a
245.0732	1.3834	ITI	n/a	n/a	n/a	n/a	n/a	n/a	n/a	n/a
246.4565	0.5	FIXCROSS	n/a	n/a	n/a	n/a	n/a	n/a	n/a	n/a
246.9565	0.5667	T_COLOR_NAME	5	Neutral	zielony	green	Neutral	Neutral	hit	n/a
247.5121	n/a	RESPONSE	n/a	n/a	n/a	n/a	n/a	n/a	n/a	green
247.5232	0.5	FEEDBACK	n/a	n/a	n/a	n/a	n/a	n/a	n/a	n/a
248.0232	1.0	ITI	n/a	n/a	n/a	n/a	n/a	n/a	n/a	n/a
249.0232	0.5	FIXCROSS	n/a	n/a	n/a	n/a	n/a	n/a	n/a	n/a
249.5232	1.25	T_COLOR_NAME	6	Incongruent	żółty	yellow	zielony	green	hit	n/a
250.0988	n/a	RESPONSE	n/a	n/a	n/a	n/a	n/a	n/a	n/a	yellow
250.7732	0.5	FEEDBACK	n/a	n/a	n/a	n/a	n/a	n/a	n/a	n/a
251.2732	1.0	ITI	n/a	n/a	n/a	n/a	n/a	n/a	n/a	n/a
252.2733	0.5	FIXCROSS	n/a	n/a	n/a	n/a	n/a	n/a	n/a	n/a
252.7733	0.3667	T_COLOR_NAME	7	Neutral	żółty	yellow	Neutral	Neutral	hit	n/a
253.1326	n/a	RESPONSE	n/a	n/a	n/a	n/a	n/a	n/a	n/a	yellow
253.1399	0.5	FEEDBACK	n/a	n/a	n/a	n/a	n/a	n/a	n/a	n/a
253.6399	1.0	ITI	n/a	n/a	n/a	n/a	n/a	n/a	n/a	n/a
254.64	0.5	FIXCROSS	n/a	n/a	n/a	n/a	n/a	n/a	n/a	n/a
255.14	0.7	T_COLOR_NAME	8	Neutral	czerwony	red	Neutral	Neutral	hit	n/a
255.831	n/a	RESPONSE	n/a	n/a	n/a	n/a	n/a	n/a	n/a	red
255.84	0.5	FEEDBACK	n/a	n/a	n/a	n/a	n/a	n/a	n/a	n/a
256.34	1.0	ITI	n/a	n/a	n/a	n/a	n/a	n/a	n/a	n/a
257.3399	0.5	FIXCROSS	n/a	n/a	n/a	n/a	n/a	n/a	n/a	n/a
257.84	0.4667	T_COLOR_NAME	9	Incongruent	czerwony	red	zielony	green	hit	n/a
258.29	n/a	RESPONSE	n/a	n/a	n/a	n/a	n/a	n/a	n/a	red
258.3067	0.5	FEEDBACK	n/a	n/a	n/a	n/a	n/a	n/a	n/a	n/a
258.8066	1.0	ITI	n/a	n/a	n/a	n/a	n/a	n/a	n/a	n/a
259.8067	0.5	FIXCROSS	n/a	n/a	n/a	n/a	n/a	n/a	n/a	n/a
260.3067	0.3667	T_COLOR_NAME	10	Neutral	czerwony	red	Neutral	Neutral	hit	n/a
260.6531	n/a	RESPONSE	n/a	n/a	n/a	n/a	n/a	n/a	n/a	red
260.6733	0.5	FEEDBACK	n/a	n/a	n/a	n/a	n/a	n/a	n/a	n/a
261.1734	1.0	ITI	n/a	n/a	n/a	n/a	n/a	n/a	n/a	n/a
262.1734	0.5	FIXCROSS	n/a	n/a	n/a	n/a	n/a	n/a	n/a	n/a
262.6733	0.9167	T_COLOR_NAME	11	Incongruent	żółty	yellow	niebieski	blue	incorrect	n/a
263.5751	n/a	RESPONSE	n/a	n/a	n/a	n/a	n/a	n/a	n/a	blue
263.5901	0.5	FEEDBACK	n/a	n/a	n/a	n/a	n/a	n/a	n/a	n/a
264.0901	1.0	ITI	n/a	n/a	n/a	n/a	n/a	n/a	n/a	n/a
265.0901	0.5	FIXCROSS	n/a	n/a	n/a	n/a	n/a	n/a	n/a	n/a
265.5901	0.5167	T_COLOR_NAME	12	Neutral	żółty	yellow	Neutral	Neutral	incorrect	n/a
266.0979	n/a	RESPONSE	n/a	n/a	n/a	n/a	n/a	n/a	n/a	green
266.1067	0.5	FEEDBACK	n/a	n/a	n/a	n/a	n/a	n/a	n/a	n/a
266.6067	1.0167	ITI	n/a	n/a	n/a	n/a	n/a	n/a	n/a	n/a
277.0195	n/a	RESPONSE	n/a	n/a	n/a	n/a	n/a	n/a	n/a	n/a
277.0902	1.0333	ITI	n/a	n/a	n/a	n/a	n/a	n/a	n/a	n/a
278.1235	0.5334	FIXCROSS	n/a	n/a	n/a	n/a	n/a	n/a	n/a	n/a
278.6569	0.4666	COLOR_NAME	1	Neutral	żółty	yellow	Neutral	Neutral	hit	n/a
279.0793	n/a	RESPONSE	n/a	n/a	n/a	n/a	n/a	n/a	n/a	yellow
279.1235	1.0334	ITI	n/a	n/a	n/a	n/a	n/a	n/a	n/a	n/a
280.1569	0.5333	FIXCROSS	n/a	n/a	n/a	n/a	n/a	n/a	n/a	n/a
280.6902	0.6833	COLOR_NAME	2	Neutral	zielony	green	Neutral	Neutral	hit	n/a
281.3307	n/a	RESPONSE	n/a	n/a	n/a	n/a	n/a	n/a	n/a	green
281.3736	1.0333	ITI	n/a	n/a	n/a	n/a	n/a	n/a	n/a	n/a
282.4069	0.5334	FIXCROSS	n/a	n/a	n/a	n/a	n/a	n/a	n/a	n/a
282.9403	0.9	COLOR_NAME	3	Incongruent	niebieski	blue	żółty	yellow	hit	n/a
283.8057	n/a	RESPONSE	n/a	n/a	n/a	n/a	n/a	n/a	n/a	blue
283.8403	1.0333	ITI	n/a	n/a	n/a	n/a	n/a	n/a	n/a	n/a
284.8736	0.5334	FIXCROSS	n/a	n/a	n/a	n/a	n/a	n/a	n/a	n/a
285.407	0.4666	COLOR_NAME	4	Neutral	niebieski	blue	Neutral	Neutral	hit	n/a
285.8336	n/a	RESPONSE	n/a	n/a	n/a	n/a	n/a	n/a	n/a	blue
285.8736	1.0334	ITI	n/a	n/a	n/a	n/a	n/a	n/a	n/a	n/a
286.907	0.5333	FIXCROSS	n/a	n/a	n/a	n/a	n/a	n/a	n/a	n/a
287.4403	0.3667	COLOR_NAME	5	Neutral	niebieski	blue	Neutral	Neutral	hit	n/a
287.7656	n/a	RESPONSE	n/a	n/a	n/a	n/a	n/a	n/a	n/a	blue
287.807	1.0333	ITI	n/a	n/a	n/a	n/a	n/a	n/a	n/a	n/a
288.8403	0.5333	FIXCROSS	n/a	n/a	n/a	n/a	n/a	n/a	n/a	n/a
289.3737	0.4333	COLOR_NAME	6	Neutral	niebieski	blue	Neutral	Neutral	hit	n/a
289.7775	n/a	RESPONSE	n/a	n/a	n/a	n/a	n/a	n/a	n/a	blue
289.807	1.0334	ITI	n/a	n/a	n/a	n/a	n/a	n/a	n/a	n/a
290.8404	0.5333	FIXCROSS	n/a	n/a	n/a	n/a	n/a	n/a	n/a	n/a
291.3737	0.6834	COLOR_NAME	7	Incongruent	żółty	yellow	niebieski	blue	hit	n/a
292.0129	n/a	RESPONSE	n/a	n/a	n/a	n/a	n/a	n/a	n/a	yellow
292.057	1.0333	ITI	n/a	n/a	n/a	n/a	n/a	n/a	n/a	n/a
293.0903	0.5333	FIXCROSS	n/a	n/a	n/a	n/a	n/a	n/a	n/a	n/a
293.6237	0.6833	COLOR_NAME	8	Incongruent	zielony	green	żółty	yellow	hit	n/a
294.2644	n/a	RESPONSE	n/a	n/a	n/a	n/a	n/a	n/a	n/a	green
294.307	1.0333	ITI	n/a	n/a	n/a	n/a	n/a	n/a	n/a	n/a
295.3404	0.5334	FIXCROSS	n/a	n/a	n/a	n/a	n/a	n/a	n/a	n/a
295.8737	0.6166	COLOR_NAME	9	Incongruent	żółty	yellow	zielony	green	hit	n/a
296.4519	n/a	RESPONSE	n/a	n/a	n/a	n/a	n/a	n/a	n/a	yellow
296.4904	1.0334	ITI	n/a	n/a	n/a	n/a	n/a	n/a	n/a	n/a
297.5238	0.5333	FIXCROSS	n/a	n/a	n/a	n/a	n/a	n/a	n/a	n/a
298.0571	0.6667	COLOR_NAME	10	Incongruent	zielony	green	żółty	yellow	hit	n/a
298.6874	n/a	RESPONSE	n/a	n/a	n/a	n/a	n/a	n/a	n/a	green
298.7237	1.0334	ITI	n/a	n/a	n/a	n/a	n/a	n/a	n/a	n/a
299.7571	0.5333	FIXCROSS	n/a	n/a	n/a	n/a	n/a	n/a	n/a	n/a
300.2904	0.55	COLOR_NAME	11	Neutral	czerwony	red	Neutral	Neutral	hit	n/a
300.8109	n/a	RESPONSE	n/a	n/a	n/a	n/a	n/a	n/a	n/a	red
300.8404	1.0334	ITI	n/a	n/a	n/a	n/a	n/a	n/a	n/a	n/a
301.8738	0.5333	FIXCROSS	n/a	n/a	n/a	n/a	n/a	n/a	n/a	n/a
302.4071	0.7167	COLOR_NAME	12	Incongruent	niebieski	blue	żółty	yellow	hit	n/a
303.0943	n/a	RESPONSE	n/a	n/a	n/a	n/a	n/a	n/a	n/a	blue
303.1238	1.0333	ITI	n/a	n/a	n/a	n/a	n/a	n/a	n/a	n/a
304.1572	0.5333	FIXCROSS	n/a	n/a	n/a	n/a	n/a	n/a	n/a	n/a
304.6905	0.6167	COLOR_NAME	13	Neutral	czerwony	red	Neutral	Neutral	hit	n/a
305.2659	n/a	RESPONSE	n/a	n/a	n/a	n/a	n/a	n/a	n/a	red
305.3072	1.0334	ITI	n/a	n/a	n/a	n/a	n/a	n/a	n/a	n/a
306.3405	0.5333	FIXCROSS	n/a	n/a	n/a	n/a	n/a	n/a	n/a	n/a
306.8739	0.5833	COLOR_NAME	14	Neutral	zielony	green	Neutral	Neutral	hit	n/a
307.4214	n/a	RESPONSE	n/a	n/a	n/a	n/a	n/a	n/a	n/a	green
307.4572	1.0334	ITI	n/a	n/a	n/a	n/a	n/a	n/a	n/a	n/a
308.4906	0.5333	FIXCROSS	n/a	n/a	n/a	n/a	n/a	n/a	n/a	n/a
309.0239	0.7	COLOR_NAME	15	Incongruent	zielony	green	czerwony	red	hit	n/a
309.6889	n/a	RESPONSE	n/a	n/a	n/a	n/a	n/a	n/a	n/a	green
309.7239	1.0333	ITI	n/a	n/a	n/a	n/a	n/a	n/a	n/a	n/a
310.7572	0.5334	FIXCROSS	n/a	n/a	n/a	n/a	n/a	n/a	n/a	n/a
311.2906	0.4333	COLOR_NAME	16	Neutral	zielony	green	Neutral	Neutral	hit	n/a
311.6848	n/a	RESPONSE	n/a	n/a	n/a	n/a	n/a	n/a	n/a	green
311.7239	1.0333	ITI	n/a	n/a	n/a	n/a	n/a	n/a	n/a	n/a
312.7573	0.5333	FIXCROSS	n/a	n/a	n/a	n/a	n/a	n/a	n/a	n/a
313.2906	0.6833	COLOR_NAME	17	Incongruent	niebieski	blue	zielony	green	incorrect	n/a
313.9362	n/a	RESPONSE	n/a	n/a	n/a	n/a	n/a	n/a	n/a	red
313.9739	1.0333	ITI	n/a	n/a	n/a	n/a	n/a	n/a	n/a	n/a
315.0073	0.5334	FIXCROSS	n/a	n/a	n/a	n/a	n/a	n/a	n/a	n/a
315.5406	0.6	COLOR_NAME	18	Neutral	czerwony	red	Neutral	Neutral	hit	n/a
316.1077	n/a	RESPONSE	n/a	n/a	n/a	n/a	n/a	n/a	n/a	red
316.1406	1.0333	ITI	n/a	n/a	n/a	n/a	n/a	n/a	n/a	n/a
317.174	0.5334	FIXCROSS	n/a	n/a	n/a	n/a	n/a	n/a	n/a	n/a
317.7073	0.7167	COLOR_NAME	19	Incongruent	czerwony	red	niebieski	blue	hit	n/a
318.391	n/a	RESPONSE	n/a	n/a	n/a	n/a	n/a	n/a	n/a	red
318.424	1.0334	ITI	n/a	n/a	n/a	n/a	n/a	n/a	n/a	n/a
319.4574	0.5333	FIXCROSS	n/a	n/a	n/a	n/a	n/a	n/a	n/a	n/a
319.9907	0.6333	COLOR_NAME	20	Neutral	żółty	yellow	Neutral	Neutral	hit	n/a
320.5945	n/a	RESPONSE	n/a	n/a	n/a	n/a	n/a	n/a	n/a	yellow
320.624	1.0333	ITI	n/a	n/a	n/a	n/a	n/a	n/a	n/a	n/a
321.6573	0.5334	FIXCROSS	n/a	n/a	n/a	n/a	n/a	n/a	n/a	n/a
322.1907	0.6667	COLOR_NAME	21	Incongruent	zielony	green	niebieski	blue	hit	n/a
322.814	n/a	RESPONSE	n/a	n/a	n/a	n/a	n/a	n/a	n/a	green
322.8574	1.0333	ITI	n/a	n/a	n/a	n/a	n/a	n/a	n/a	n/a
323.8907	0.5333	FIXCROSS	n/a	n/a	n/a	n/a	n/a	n/a	n/a	n/a
324.424	0.9167	COLOR_NAME	22	Incongruent	czerwony	red	zielony	green	hit	n/a
325.3049	n/a	RESPONSE	n/a	n/a	n/a	n/a	n/a	n/a	n/a	red
325.3407	1.0334	ITI	n/a	n/a	n/a	n/a	n/a	n/a	n/a	n/a
326.3741	0.5333	FIXCROSS	n/a	n/a	n/a	n/a	n/a	n/a	n/a	n/a
326.9074	0.7	COLOR_NAME	23	Incongruent	żółty	yellow	czerwony	red	hit	n/a
327.5722	n/a	RESPONSE	n/a	n/a	n/a	n/a	n/a	n/a	n/a	yellow
327.6074	1.0333	ITI	n/a	n/a	n/a	n/a	n/a	n/a	n/a	n/a
328.6408	0.5333	FIXCROSS	n/a	n/a	n/a	n/a	n/a	n/a	n/a	n/a
329.1741	0.5833	COLOR_NAME	24	Neutral	niebieski	blue	Neutral	Neutral	hit	n/a
329.7279	n/a	RESPONSE	n/a	n/a	n/a	n/a	n/a	n/a	n/a	blue
329.7574	1.0334	ITI	n/a	n/a	n/a	n/a	n/a	n/a	n/a	n/a
330.7908	0.5333	FIXCROSS	n/a	n/a	n/a	n/a	n/a	n/a	n/a	n/a
331.3241	0.5833	COLOR_NAME	25	Neutral	żółty	yellow	Neutral	Neutral	hit	n/a
331.8674	n/a	RESPONSE	n/a	n/a	n/a	n/a	n/a	n/a	n/a	yellow
331.9075	1.0333	ITI	n/a	n/a	n/a	n/a	n/a	n/a	n/a	n/a
332.9408	0.5334	FIXCROSS	n/a	n/a	n/a	n/a	n/a	n/a	n/a	n/a
333.4742	0.6333	COLOR_NAME	26	Incongruent	niebieski	blue	żółty	yellow	hit	n/a
334.071	n/a	RESPONSE	n/a	n/a	n/a	n/a	n/a	n/a	n/a	blue
334.1075	1.0334	ITI	n/a	n/a	n/a	n/a	n/a	n/a	n/a	n/a
335.1408	0.5334	FIXCROSS	n/a	n/a	n/a	n/a	n/a	n/a	n/a	n/a
335.6742	0.5833	COLOR_NAME	27	Incongruent	czerwony	red	żółty	yellow	hit	n/a
336.2266	n/a	RESPONSE	n/a	n/a	n/a	n/a	n/a	n/a	n/a	red
336.2575	1.0333	ITI	n/a	n/a	n/a	n/a	n/a	n/a	n/a	n/a
337.2909	0.5333	FIXCROSS	n/a	n/a	n/a	n/a	n/a	n/a	n/a	n/a
337.8242	0.6333	COLOR_NAME	28	Incongruent	niebieski	blue	czerwony	red	hit	n/a
338.414	n/a	RESPONSE	n/a	n/a	n/a	n/a	n/a	n/a	n/a	blue
338.4576	1.0333	ITI	n/a	n/a	n/a	n/a	n/a	n/a	n/a	n/a
339.4909	0.5333	FIXCROSS	n/a	n/a	n/a	n/a	n/a	n/a	n/a	n/a
340.0242	0.6333	COLOR_NAME	29	Incongruent	zielony	green	niebieski	blue	hit	n/a
340.6175	n/a	RESPONSE	n/a	n/a	n/a	n/a	n/a	n/a	n/a	green
340.6576	1.0334	ITI	n/a	n/a	n/a	n/a	n/a	n/a	n/a	n/a
341.6909	0.5333	FIXCROSS	n/a	n/a	n/a	n/a	n/a	n/a	n/a	n/a
342.2242	0.7	COLOR_NAME	30	Neutral	żółty	yellow	Neutral	Neutral	hit	n/a
342.885	n/a	RESPONSE	n/a	n/a	n/a	n/a	n/a	n/a	n/a	yellow
342.9242	1.0334	ITI	n/a	n/a	n/a	n/a	n/a	n/a	n/a	n/a
343.9576	0.5333	FIXCROSS	n/a	n/a	n/a	n/a	n/a	n/a	n/a	n/a
344.491	0.65	COLOR_NAME	31	Neutral	zielony	green	Neutral	Neutral	hit	n/a
345.1044	n/a	RESPONSE	n/a	n/a	n/a	n/a	n/a	n/a	n/a	green
345.141	1.0333	ITI	n/a	n/a	n/a	n/a	n/a	n/a	n/a	n/a
346.1743	0.5334	FIXCROSS	n/a	n/a	n/a	n/a	n/a	n/a	n/a	n/a
346.7077	0.7833	COLOR_NAME	32	Incongruent	zielony	green	żółty	yellow	hit	n/a
347.4516	n/a	RESPONSE	n/a	n/a	n/a	n/a	n/a	n/a	n/a	green
347.491	1.0333	ITI	n/a	n/a	n/a	n/a	n/a	n/a	n/a	n/a
348.5243	0.5333	FIXCROSS	n/a	n/a	n/a	n/a	n/a	n/a	n/a	n/a
349.0576	0.5167	COLOR_NAME	33	Neutral	czerwony	red	Neutral	Neutral	hit	n/a
349.5433	n/a	RESPONSE	n/a	n/a	n/a	n/a	n/a	n/a	n/a	red
349.5743	1.0334	ITI	n/a	n/a	n/a	n/a	n/a	n/a	n/a	n/a
350.6077	0.5333	FIXCROSS	n/a	n/a	n/a	n/a	n/a	n/a	n/a	n/a
351.141	0.5333	COLOR_NAME	34	Neutral	zielony	green	Neutral	Neutral	hit	n/a
351.6351	n/a	RESPONSE	n/a	n/a	n/a	n/a	n/a	n/a	n/a	green
351.6743	1.0333	ITI	n/a	n/a	n/a	n/a	n/a	n/a	n/a	n/a
352.7077	0.5333	FIXCROSS	n/a	n/a	n/a	n/a	n/a	n/a	n/a	n/a
353.241	0.6167	COLOR_NAME	35	Incongruent	zielony	green	niebieski	blue	hit	n/a
353.8226	n/a	RESPONSE	n/a	n/a	n/a	n/a	n/a	n/a	n/a	green
353.8577	1.0334	ITI	n/a	n/a	n/a	n/a	n/a	n/a	n/a	n/a
354.8911	0.5333	FIXCROSS	n/a	n/a	n/a	n/a	n/a	n/a	n/a	n/a
355.4244	0.6167	COLOR_NAME	36	Incongruent	żółty	yellow	zielony	green	hit	n/a
356.0102	n/a	RESPONSE	n/a	n/a	n/a	n/a	n/a	n/a	n/a	yellow
356.0411	1.0333	ITI	n/a	n/a	n/a	n/a	n/a	n/a	n/a	n/a
357.0744	0.5333	FIXCROSS	n/a	n/a	n/a	n/a	n/a	n/a	n/a	n/a
357.6078	0.7333	COLOR_NAME	37	Incongruent	zielony	green	czerwony	red	hit	n/a
358.3094	n/a	RESPONSE	n/a	n/a	n/a	n/a	n/a	n/a	n/a	green
358.3411	1.0333	ITI	n/a	n/a	n/a	n/a	n/a	n/a	n/a	n/a
359.3745	0.5333	FIXCROSS	n/a	n/a	n/a	n/a	n/a	n/a	n/a	n/a
359.9078	0.6333	COLOR_NAME	38	Incongruent	żółty	yellow	czerwony	red	hit	n/a
360.5129	n/a	RESPONSE	n/a	n/a	n/a	n/a	n/a	n/a	n/a	yellow
360.5411	1.0333	ITI	n/a	n/a	n/a	n/a	n/a	n/a	n/a	n/a
361.5745	0.5333	FIXCROSS	n/a	n/a	n/a	n/a	n/a	n/a	n/a	n/a
362.1078	0.6833	COLOR_NAME	39	Incongruent	zielony	green	czerwony	red	hit	n/a
362.7483	n/a	RESPONSE	n/a	n/a	n/a	n/a	n/a	n/a	n/a	green
362.7912	1.0333	ITI	n/a	n/a	n/a	n/a	n/a	n/a	n/a	n/a
363.8245	0.5333	FIXCROSS	n/a	n/a	n/a	n/a	n/a	n/a	n/a	n/a
364.3578	0.6667	COLOR_NAME	40	Neutral	żółty	yellow	Neutral	Neutral	hit	n/a
364.9839	n/a	RESPONSE	n/a	n/a	n/a	n/a	n/a	n/a	n/a	yellow
365.0245	1.0333	ITI	n/a	n/a	n/a	n/a	n/a	n/a	n/a	n/a
366.0579	0.5333	FIXCROSS	n/a	n/a	n/a	n/a	n/a	n/a	n/a	n/a
366.5912	0.8667	COLOR_NAME	41	Incongruent	czerwony	red	żółty	yellow	hit	n/a
367.4268	n/a	RESPONSE	n/a	n/a	n/a	n/a	n/a	n/a	n/a	red
367.4579	1.0334	ITI	n/a	n/a	n/a	n/a	n/a	n/a	n/a	n/a
368.4912	0.5333	FIXCROSS	n/a	n/a	n/a	n/a	n/a	n/a	n/a	n/a
369.0245	0.6667	COLOR_NAME	42	Incongruent	niebieski	blue	zielony	green	hit	n/a
369.6623	n/a	RESPONSE	n/a	n/a	n/a	n/a	n/a	n/a	n/a	blue
369.6912	1.0333	ITI	n/a	n/a	n/a	n/a	n/a	n/a	n/a	n/a
370.7246	0.5333	FIXCROSS	n/a	n/a	n/a	n/a	n/a	n/a	n/a	n/a
371.2579	0.55	COLOR_NAME	43	Neutral	zielony	green	Neutral	Neutral	hit	n/a
371.7701	n/a	RESPONSE	n/a	n/a	n/a	n/a	n/a	n/a	n/a	green
371.8079	1.0333	ITI	n/a	n/a	n/a	n/a	n/a	n/a	n/a	n/a
372.8413	0.5333	FIXCROSS	n/a	n/a	n/a	n/a	n/a	n/a	n/a	n/a
373.3746	0.5167	COLOR_NAME	44	Neutral	niebieski	blue	Neutral	Neutral	incorrect	n/a
373.8618	n/a	RESPONSE	n/a	n/a	n/a	n/a	n/a	n/a	n/a	red
373.8913	1.0333	ITI	n/a	n/a	n/a	n/a	n/a	n/a	n/a	n/a
374.9246	0.5333	FIXCROSS	n/a	n/a	n/a	n/a	n/a	n/a	n/a	n/a
375.458	0.55	COLOR_NAME	45	Neutral	niebieski	blue	Neutral	Neutral	hit	n/a
375.9694	n/a	RESPONSE	n/a	n/a	n/a	n/a	n/a	n/a	n/a	blue
376.008	1.0333	ITI	n/a	n/a	n/a	n/a	n/a	n/a	n/a	n/a
377.0413	0.5333	FIXCROSS	n/a	n/a	n/a	n/a	n/a	n/a	n/a	n/a
377.5746	0.7834	COLOR_NAME	46	Neutral	czerwony	red	Neutral	Neutral	hit	n/a
378.3166	n/a	RESPONSE	n/a	n/a	n/a	n/a	n/a	n/a	n/a	red
378.358	1.0333	ITI	n/a	n/a	n/a	n/a	n/a	n/a	n/a	n/a
379.3914	0.5333	FIXCROSS	n/a	n/a	n/a	n/a	n/a	n/a	n/a	n/a
379.9247	0.5833	COLOR_NAME	47	Incongruent	czerwony	red	zielony	green	hit	n/a
380.4722	n/a	RESPONSE	n/a	n/a	n/a	n/a	n/a	n/a	n/a	red
380.508	1.0334	ITI	n/a	n/a	n/a	n/a	n/a	n/a	n/a	n/a
381.5414	0.5333	FIXCROSS	n/a	n/a	n/a	n/a	n/a	n/a	n/a	n/a
382.0747	0.4834	COLOR_NAME	48	Neutral	czerwony	red	Neutral	Neutral	hit	n/a
382.5161	n/a	RESPONSE	n/a	n/a	n/a	n/a	n/a	n/a	n/a	red
382.558	1.0334	ITI	n/a	n/a	n/a	n/a	n/a	n/a	n/a	n/a
383.5914	0.5333	FIXCROSS	n/a	n/a	n/a	n/a	n/a	n/a	n/a	n/a
384.1247	0.5834	COLOR_NAME	49	Neutral	zielony	green	Neutral	Neutral	hit	n/a
384.6717	n/a	RESPONSE	n/a	n/a	n/a	n/a	n/a	n/a	n/a	green
384.7081	1.0333	ITI	n/a	n/a	n/a	n/a	n/a	n/a	n/a	n/a
385.7414	0.5334	FIXCROSS	n/a	n/a	n/a	n/a	n/a	n/a	n/a	n/a
386.2748	0.5333	COLOR_NAME	50	Neutral	zielony	green	Neutral	Neutral	hit	n/a
386.7793	n/a	RESPONSE	n/a	n/a	n/a	n/a	n/a	n/a	n/a	green
386.8081	1.0334	ITI	n/a	n/a	n/a	n/a	n/a	n/a	n/a	n/a
387.8415	0.5333	FIXCROSS	n/a	n/a	n/a	n/a	n/a	n/a	n/a	n/a
388.3748	0.5333	COLOR_NAME	51	Neutral	żółty	yellow	Neutral	Neutral	hit	n/a
388.8711	n/a	RESPONSE	n/a	n/a	n/a	n/a	n/a	n/a	n/a	yellow
388.9081	1.0333	ITI	n/a	n/a	n/a	n/a	n/a	n/a	n/a	n/a
389.9415	0.5333	FIXCROSS	n/a	n/a	n/a	n/a	n/a	n/a	n/a	n/a
390.4748	0.6	COLOR_NAME	52	Incongruent	niebieski	blue	zielony	green	hit	n/a
391.0427	n/a	RESPONSE	n/a	n/a	n/a	n/a	n/a	n/a	n/a	blue
391.0748	1.0333	ITI	n/a	n/a	n/a	n/a	n/a	n/a	n/a	n/a
392.1082	0.5333	FIXCROSS	n/a	n/a	n/a	n/a	n/a	n/a	n/a	n/a
392.6415	0.5833	COLOR_NAME	53	Neutral	czerwony	red	Neutral	Neutral	hit	n/a
393.1823	n/a	RESPONSE	n/a	n/a	n/a	n/a	n/a	n/a	n/a	red
393.2248	1.0333	ITI	n/a	n/a	n/a	n/a	n/a	n/a	n/a	n/a
394.2582	0.5333	FIXCROSS	n/a	n/a	n/a	n/a	n/a	n/a	n/a	n/a
394.7915	0.55	COLOR_NAME	54	Neutral	niebieski	blue	Neutral	Neutral	hit	n/a
395.306	n/a	RESPONSE	n/a	n/a	n/a	n/a	n/a	n/a	n/a	blue
395.3415	1.0333	ITI	n/a	n/a	n/a	n/a	n/a	n/a	n/a	n/a
396.3749	0.5333	FIXCROSS	n/a	n/a	n/a	n/a	n/a	n/a	n/a	n/a
396.9082	0.65	COLOR_NAME	55	Incongruent	czerwony	red	niebieski	blue	hit	n/a
397.5255	n/a	RESPONSE	n/a	n/a	n/a	n/a	n/a	n/a	n/a	red
397.5582	1.0333	ITI	n/a	n/a	n/a	n/a	n/a	n/a	n/a	n/a
398.5915	0.5334	FIXCROSS	n/a	n/a	n/a	n/a	n/a	n/a	n/a	n/a
399.1249	0.6667	COLOR_NAME	56	Incongruent	żółty	yellow	niebieski	blue	hit	n/a
399.7609	n/a	RESPONSE	n/a	n/a	n/a	n/a	n/a	n/a	n/a	yellow
399.7916	1.0333	ITI	n/a	n/a	n/a	n/a	n/a	n/a	n/a	n/a
400.8249	0.5333	FIXCROSS	n/a	n/a	n/a	n/a	n/a	n/a	n/a	n/a
401.3582	0.65	COLOR_NAME	57	Incongruent	żółty	yellow	czerwony	red	hit	n/a
401.9643	n/a	RESPONSE	n/a	n/a	n/a	n/a	n/a	n/a	n/a	yellow
402.0082	1.0334	ITI	n/a	n/a	n/a	n/a	n/a	n/a	n/a	n/a
403.0416	0.5334	FIXCROSS	n/a	n/a	n/a	n/a	n/a	n/a	n/a	n/a
403.5749	0.5333	COLOR_NAME	58	Neutral	niebieski	blue	Neutral	Neutral	hit	n/a
404.0721	n/a	RESPONSE	n/a	n/a	n/a	n/a	n/a	n/a	n/a	blue
404.1083	1.0333	ITI	n/a	n/a	n/a	n/a	n/a	n/a	n/a	n/a
405.1416	0.5334	FIXCROSS	n/a	n/a	n/a	n/a	n/a	n/a	n/a	n/a
405.675	0.5333	COLOR_NAME	59	Neutral	czerwony	red	Neutral	Neutral	hit	n/a
406.1798	n/a	RESPONSE	n/a	n/a	n/a	n/a	n/a	n/a	n/a	red
406.2083	1.0333	ITI	n/a	n/a	n/a	n/a	n/a	n/a	n/a	n/a
407.2416	0.5334	FIXCROSS	n/a	n/a	n/a	n/a	n/a	n/a	n/a	n/a
407.775	0.65	COLOR_NAME	60	Incongruent	niebieski	blue	czerwony	red	hit	n/a
408.3833	n/a	RESPONSE	n/a	n/a	n/a	n/a	n/a	n/a	n/a	blue
408.425	1.0333	ITI	n/a	n/a	n/a	n/a	n/a	n/a	n/a	n/a
409.4583	0.5334	FIXCROSS	n/a	n/a	n/a	n/a	n/a	n/a	n/a	n/a
409.9917	0.5834	COLOR_NAME	61	Neutral	zielony	green	Neutral	Neutral	hit	n/a
410.5389	n/a	RESPONSE	n/a	n/a	n/a	n/a	n/a	n/a	n/a	green
410.575	1.0333	ITI	n/a	n/a	n/a	n/a	n/a	n/a	n/a	n/a
411.6084	0.5333	FIXCROSS	n/a	n/a	n/a	n/a	n/a	n/a	n/a	n/a
412.1417	0.6834	COLOR_NAME	62	Incongruent	czerwony	red	żółty	yellow	incorrect	n/a
412.7903	n/a	RESPONSE	n/a	n/a	n/a	n/a	n/a	n/a	n/a	yellow
412.8251	1.0333	ITI	n/a	n/a	n/a	n/a	n/a	n/a	n/a	n/a
413.8584	0.5333	FIXCROSS	n/a	n/a	n/a	n/a	n/a	n/a	n/a	n/a
414.3917	0.5667	COLOR_NAME	63	Neutral	niebieski	blue	Neutral	Neutral	hit	n/a
414.914	n/a	RESPONSE	n/a	n/a	n/a	n/a	n/a	n/a	n/a	blue
414.9584	1.0333	ITI	n/a	n/a	n/a	n/a	n/a	n/a	n/a	n/a
415.9918	0.5333	FIXCROSS	n/a	n/a	n/a	n/a	n/a	n/a	n/a	n/a
416.5251	0.7833	COLOR_NAME	64	Incongruent	żółty	yellow	zielony	green	hit	n/a
417.2771	n/a	RESPONSE	n/a	n/a	n/a	n/a	n/a	n/a	n/a	yellow
417.3084	1.0333	ITI	n/a	n/a	n/a	n/a	n/a	n/a	n/a	n/a
418.3418	0.5333	FIXCROSS	n/a	n/a	n/a	n/a	n/a	n/a	n/a	n/a
418.8751	0.7334	COLOR_NAME	65	Neutral	żółty	yellow	Neutral	Neutral	hit	n/a
419.5765	n/a	RESPONSE	n/a	n/a	n/a	n/a	n/a	n/a	n/a	yellow
419.6085	1.0334	ITI	n/a	n/a	n/a	n/a	n/a	n/a	n/a	n/a
420.6418	0.5333	FIXCROSS	n/a	n/a	n/a	n/a	n/a	n/a	n/a	n/a
421.1751	0.6333	COLOR_NAME	66	Incongruent	czerwony	red	zielony	green	hit	n/a
421.7639	n/a	RESPONSE	n/a	n/a	n/a	n/a	n/a	n/a	n/a	red
421.8085	1.0333	ITI	n/a	n/a	n/a	n/a	n/a	n/a	n/a	n/a
422.8418	0.5333	FIXCROSS	n/a	n/a	n/a	n/a	n/a	n/a	n/a	n/a
423.3752	0.55	COLOR_NAME	67	Neutral	żółty	yellow	Neutral	Neutral	hit	n/a
423.8877	n/a	RESPONSE	n/a	n/a	n/a	n/a	n/a	n/a	n/a	yellow
423.9252	1.0333	ITI	n/a	n/a	n/a	n/a	n/a	n/a	n/a	n/a
424.9585	0.5334	FIXCROSS	n/a	n/a	n/a	n/a	n/a	n/a	n/a	n/a
425.4919	0.4833	COLOR_NAME	68	Neutral	czerwony	red	Neutral	Neutral	incorrect	n/a
425.9314	n/a	RESPONSE	n/a	n/a	n/a	n/a	n/a	n/a	n/a	blue
425.9752	1.0333	ITI	n/a	n/a	n/a	n/a	n/a	n/a	n/a	n/a
427.0085	0.5334	FIXCROSS	n/a	n/a	n/a	n/a	n/a	n/a	n/a	n/a
427.5419	0.7167	COLOR_NAME	69	Incongruent	niebieski	blue	czerwony	red	hit	n/a
428.2148	n/a	RESPONSE	n/a	n/a	n/a	n/a	n/a	n/a	n/a	blue
428.2586	1.0333	ITI	n/a	n/a	n/a	n/a	n/a	n/a	n/a	n/a
429.2919	0.5334	FIXCROSS	n/a	n/a	n/a	n/a	n/a	n/a	n/a	n/a
429.8252	0.6666	COLOR_NAME	70	Incongruent	żółty	yellow	niebieski	blue	hit	n/a
430.4502	n/a	RESPONSE	n/a	n/a	n/a	n/a	n/a	n/a	n/a	yellow
430.4919	1.0334	ITI	n/a	n/a	n/a	n/a	n/a	n/a	n/a	n/a
431.5253	0.5333	FIXCROSS	n/a	n/a	n/a	n/a	n/a	n/a	n/a	n/a
432.0586	0.6667	COLOR_NAME	71	Incongruent	czerwony	red	niebieski	blue	hit	n/a
432.6857	n/a	RESPONSE	n/a	n/a	n/a	n/a	n/a	n/a	n/a	red
432.7253	1.0333	ITI	n/a	n/a	n/a	n/a	n/a	n/a	n/a	n/a
433.7586	0.5333	FIXCROSS	n/a	n/a	n/a	n/a	n/a	n/a	n/a	n/a
434.2919	0.7	COLOR_NAME	72	Neutral	żółty	yellow	Neutral	Neutral	hit	n/a
434.9531	n/a	RESPONSE	n/a	n/a	n/a	n/a	n/a	n/a	n/a	yellow
434.9919	1.05	ITI	n/a	n/a	n/a	n/a	n/a	n/a	n/a	n/a
440.3341	n/a	RESPONSE	n/a	n/a	n/a	n/a	n/a	n/a	n/a	n/a
