onset	duration	trial_type	trial_number	stroop_condition	stim_text(PL)	stim_text(eng)	stim_color(PL)	stim_color(eng)	response_type	response_color
0.0	n/a	RESPONSE	n/a	n/a	n/a	n/a	n/a	n/a	n/a	n/a
0.0364	1.0167	ITI	n/a	n/a	n/a	n/a	n/a	n/a	n/a	n/a
1.053	0.5	FIXCROSS	n/a	n/a	n/a	n/a	n/a	n/a	n/a	n/a
1.553	2.4	T_INK	1	Neutral	xxxxxxxxx	xxxxxxxxx	zielony	green	hit	n/a
3.9334	n/a	RESPONSE	n/a	n/a	n/a	n/a	n/a	n/a	n/a	green
3.953	0.5	FEEDBACK	n/a	n/a	n/a	n/a	n/a	n/a	n/a	n/a
4.453	1.0	ITI	n/a	n/a	n/a	n/a	n/a	n/a	n/a	n/a
5.4529	0.5	FIXCROSS	n/a	n/a	n/a	n/a	n/a	n/a	n/a	n/a
5.9529	0.7833	T_INK	2	Incongruent	zielony	green	czerwony	red	hit	n/a
6.7315	n/a	RESPONSE	n/a	n/a	n/a	n/a	n/a	n/a	n/a	red
6.7363	0.5	FEEDBACK	n/a	n/a	n/a	n/a	n/a	n/a	n/a	n/a
7.2363	1.0	ITI	n/a	n/a	n/a	n/a	n/a	n/a	n/a	n/a
8.2362	0.5	FIXCROSS	n/a	n/a	n/a	n/a	n/a	n/a	n/a	n/a
8.7362	0.55	T_INK	3	Neutral	xxxxxxxx	xxxxxxxx	niebieski	blue	hit	n/a
9.2738	n/a	RESPONSE	n/a	n/a	n/a	n/a	n/a	n/a	n/a	blue
9.2862	0.5	FEEDBACK	n/a	n/a	n/a	n/a	n/a	n/a	n/a	n/a
9.7862	1.0	ITI	n/a	n/a	n/a	n/a	n/a	n/a	n/a	n/a
10.7862	0.5	FIXCROSS	n/a	n/a	n/a	n/a	n/a	n/a	n/a	n/a
11.2862	0.8167	T_INK	4	Incongruent	czerwony	red	niebieski	blue	hit	n/a
12.0879	n/a	RESPONSE	n/a	n/a	n/a	n/a	n/a	n/a	n/a	blue
12.1028	0.5	FEEDBACK	n/a	n/a	n/a	n/a	n/a	n/a	n/a	n/a
12.6028	1.0	ITI	n/a	n/a	n/a	n/a	n/a	n/a	n/a	n/a
13.6028	0.5	FIXCROSS	n/a	n/a	n/a	n/a	n/a	n/a	n/a	n/a
14.1028	0.55	T_INK	5	Incongruent	żółty	yellow	niebieski	blue	hit	n/a
14.6462	n/a	RESPONSE	n/a	n/a	n/a	n/a	n/a	n/a	n/a	blue
14.6528	0.5	FEEDBACK	n/a	n/a	n/a	n/a	n/a	n/a	n/a	n/a
15.1528	1.0	ITI	n/a	n/a	n/a	n/a	n/a	n/a	n/a	n/a
16.1528	0.5	FIXCROSS	n/a	n/a	n/a	n/a	n/a	n/a	n/a	n/a
16.6528	0.85	T_INK	6	Neutral	xxxxxxx	xxxxxxx	żółty	yellow	hit	n/a
17.4923	n/a	RESPONSE	n/a	n/a	n/a	n/a	n/a	n/a	n/a	yellow
17.5027	0.5	FEEDBACK	n/a	n/a	n/a	n/a	n/a	n/a	n/a	n/a
18.0027	1.0	ITI	n/a	n/a	n/a	n/a	n/a	n/a	n/a	n/a
19.0027	0.5	FIXCROSS	n/a	n/a	n/a	n/a	n/a	n/a	n/a	n/a
19.5027	0.7	T_INK	7	Incongruent	żółty	yellow	zielony	green	hit	n/a
20.1944	n/a	RESPONSE	n/a	n/a	n/a	n/a	n/a	n/a	n/a	green
20.2027	0.5	FEEDBACK	n/a	n/a	n/a	n/a	n/a	n/a	n/a	n/a
20.7027	1.0	ITI	n/a	n/a	n/a	n/a	n/a	n/a	n/a	n/a
21.7027	0.5	FIXCROSS	n/a	n/a	n/a	n/a	n/a	n/a	n/a	n/a
22.2026	0.6	T_INK	8	Incongruent	zielony	green	żółty	yellow	hit	n/a
22.7847	n/a	RESPONSE	n/a	n/a	n/a	n/a	n/a	n/a	n/a	yellow
22.8026	0.5	FEEDBACK	n/a	n/a	n/a	n/a	n/a	n/a	n/a	n/a
23.3026	1.0	ITI	n/a	n/a	n/a	n/a	n/a	n/a	n/a	n/a
24.3026	0.5	FIXCROSS	n/a	n/a	n/a	n/a	n/a	n/a	n/a	n/a
24.8026	0.7667	T_INK	9	Neutral	xxxxx	xxxxx	zielony	green	hit	n/a
25.5509	n/a	RESPONSE	n/a	n/a	n/a	n/a	n/a	n/a	n/a	green
25.5693	0.5	FEEDBACK	n/a	n/a	n/a	n/a	n/a	n/a	n/a	n/a
26.0693	1.0	ITI	n/a	n/a	n/a	n/a	n/a	n/a	n/a	n/a
27.0692	0.5	FIXCROSS	n/a	n/a	n/a	n/a	n/a	n/a	n/a	n/a
27.5692	0.5666	T_INK	10	Incongruent	zielony	green	niebieski	blue	hit	n/a
28.1251	n/a	RESPONSE	n/a	n/a	n/a	n/a	n/a	n/a	n/a	blue
28.1359	0.5	FEEDBACK	n/a	n/a	n/a	n/a	n/a	n/a	n/a	n/a
28.6359	1.0	ITI	n/a	n/a	n/a	n/a	n/a	n/a	n/a	n/a
29.6359	0.5	FIXCROSS	n/a	n/a	n/a	n/a	n/a	n/a	n/a	n/a
30.1358	0.3833	T_INK	11	Incongruent	niebieski	blue	czerwony	red	hit	n/a
30.5075	n/a	RESPONSE	n/a	n/a	n/a	n/a	n/a	n/a	n/a	red
30.5192	0.5	FEEDBACK	n/a	n/a	n/a	n/a	n/a	n/a	n/a	n/a
31.0192	1.0	ITI	n/a	n/a	n/a	n/a	n/a	n/a	n/a	n/a
32.0191	0.5	FIXCROSS	n/a	n/a	n/a	n/a	n/a	n/a	n/a	n/a
32.5191	0.5667	T_INK	12	Neutral	xxxxxxxxx	xxxxxxxxx	czerwony	red	hit	n/a
33.0818	n/a	RESPONSE	n/a	n/a	n/a	n/a	n/a	n/a	n/a	red
33.0858	0.5	FEEDBACK	n/a	n/a	n/a	n/a	n/a	n/a	n/a	n/a
33.5858	1.0167	ITI	n/a	n/a	n/a	n/a	n/a	n/a	n/a	n/a
44.1783	n/a	RESPONSE	n/a	n/a	n/a	n/a	n/a	n/a	n/a	n/a
44.2023	1.0	ITI	n/a	n/a	n/a	n/a	n/a	n/a	n/a	n/a
45.2022	0.5	FIXCROSS	n/a	n/a	n/a	n/a	n/a	n/a	n/a	n/a
45.7022	0.8667	INK	1	Neutral	xxxxx	xxxxx	zielony	green	hit	n/a
46.5606	n/a	RESPONSE	n/a	n/a	n/a	n/a	n/a	n/a	n/a	green
46.5689	1.0	ITI	n/a	n/a	n/a	n/a	n/a	n/a	n/a	n/a
47.5689	0.5	FIXCROSS	n/a	n/a	n/a	n/a	n/a	n/a	n/a	n/a
48.0689	0.5667	INK	2	Incongruent	żółty	yellow	zielony	green	hit	n/a
48.6232	n/a	RESPONSE	n/a	n/a	n/a	n/a	n/a	n/a	n/a	green
48.6355	1.0	ITI	n/a	n/a	n/a	n/a	n/a	n/a	n/a	n/a
49.6355	0.5	FIXCROSS	n/a	n/a	n/a	n/a	n/a	n/a	n/a	n/a
50.1355	0.5333	INK	3	Incongruent	żółty	yellow	niebieski	blue	hit	n/a
50.6538	n/a	RESPONSE	n/a	n/a	n/a	n/a	n/a	n/a	n/a	blue
50.6688	1.0	ITI	n/a	n/a	n/a	n/a	n/a	n/a	n/a	n/a
51.6688	0.5	FIXCROSS	n/a	n/a	n/a	n/a	n/a	n/a	n/a	n/a
52.1688	0.6167	INK	4	Incongruent	czerwony	red	zielony	green	hit	n/a
52.7803	n/a	RESPONSE	n/a	n/a	n/a	n/a	n/a	n/a	n/a	green
52.7855	1.0	ITI	n/a	n/a	n/a	n/a	n/a	n/a	n/a	n/a
53.7854	0.5	FIXCROSS	n/a	n/a	n/a	n/a	n/a	n/a	n/a	n/a
54.2854	0.5	INK	5	Incongruent	zielony	green	czerwony	red	hit	n/a
54.7789	n/a	RESPONSE	n/a	n/a	n/a	n/a	n/a	n/a	n/a	red
54.7854	1.0	ITI	n/a	n/a	n/a	n/a	n/a	n/a	n/a	n/a
55.7854	0.5	FIXCROSS	n/a	n/a	n/a	n/a	n/a	n/a	n/a	n/a
56.2854	0.4833	INK	6	Neutral	xxxxxxx	xxxxxxx	niebieski	blue	hit	n/a
56.7617	n/a	RESPONSE	n/a	n/a	n/a	n/a	n/a	n/a	n/a	blue
56.7687	1.0	ITI	n/a	n/a	n/a	n/a	n/a	n/a	n/a	n/a
57.7687	0.5	FIXCROSS	n/a	n/a	n/a	n/a	n/a	n/a	n/a	n/a
58.2687	0.6166	INK	7	Incongruent	żółty	yellow	niebieski	blue	hit	n/a
58.8722	n/a	RESPONSE	n/a	n/a	n/a	n/a	n/a	n/a	n/a	blue
58.8853	1.0	ITI	n/a	n/a	n/a	n/a	n/a	n/a	n/a	n/a
59.8853	0.5	FIXCROSS	n/a	n/a	n/a	n/a	n/a	n/a	n/a	n/a
60.3853	0.5833	INK	8	Neutral	xxxxxxxxx	xxxxxxxxx	zielony	green	hit	n/a
60.9508	n/a	RESPONSE	n/a	n/a	n/a	n/a	n/a	n/a	n/a	green
60.9686	1.0	ITI	n/a	n/a	n/a	n/a	n/a	n/a	n/a	n/a
61.9686	0.5	FIXCROSS	n/a	n/a	n/a	n/a	n/a	n/a	n/a	n/a
62.4686	0.6333	INK	9	Incongruent	zielony	green	żółty	yellow	hit	n/a
63.0934	n/a	RESPONSE	n/a	n/a	n/a	n/a	n/a	n/a	n/a	yellow
63.1019	1.0	ITI	n/a	n/a	n/a	n/a	n/a	n/a	n/a	n/a
64.1019	0.5	FIXCROSS	n/a	n/a	n/a	n/a	n/a	n/a	n/a	n/a
64.6019	0.6833	INK	10	Incongruent	niebieski	blue	zielony	green	hit	n/a
65.2679	n/a	RESPONSE	n/a	n/a	n/a	n/a	n/a	n/a	n/a	green
65.2852	1.0	ITI	n/a	n/a	n/a	n/a	n/a	n/a	n/a	n/a
66.2852	0.5	FIXCROSS	n/a	n/a	n/a	n/a	n/a	n/a	n/a	n/a
66.7852	0.6667	INK	11	Incongruent	żółty	yellow	zielony	green	hit	n/a
67.4425	n/a	RESPONSE	n/a	n/a	n/a	n/a	n/a	n/a	n/a	green
67.4519	1.0	ITI	n/a	n/a	n/a	n/a	n/a	n/a	n/a	n/a
68.4518	0.5	FIXCROSS	n/a	n/a	n/a	n/a	n/a	n/a	n/a	n/a
68.9518	0.5333	INK	12	Neutral	xxxxxxx	xxxxxxx	niebieski	blue	hit	n/a
69.4731	n/a	RESPONSE	n/a	n/a	n/a	n/a	n/a	n/a	n/a	blue
69.4852	1.0	ITI	n/a	n/a	n/a	n/a	n/a	n/a	n/a	n/a
70.4851	0.5	FIXCROSS	n/a	n/a	n/a	n/a	n/a	n/a	n/a	n/a
70.9851	0.8667	INK	13	Neutral	xxxxxxxxx	xxxxxxxxx	czerwony	red	hit	n/a
71.8396	n/a	RESPONSE	n/a	n/a	n/a	n/a	n/a	n/a	n/a	red
71.8518	1.0	ITI	n/a	n/a	n/a	n/a	n/a	n/a	n/a	n/a
72.8518	0.5	FIXCROSS	n/a	n/a	n/a	n/a	n/a	n/a	n/a	n/a
73.3518	0.7666	INK	14	Incongruent	zielony	green	żółty	yellow	hit	n/a
74.1099	n/a	RESPONSE	n/a	n/a	n/a	n/a	n/a	n/a	n/a	yellow
74.1184	1.0	ITI	n/a	n/a	n/a	n/a	n/a	n/a	n/a	n/a
75.1184	0.5	FIXCROSS	n/a	n/a	n/a	n/a	n/a	n/a	n/a	n/a
75.6184	0.55	INK	15	Neutral	xxxxxxx	xxxxxxx	czerwony	red	hit	n/a
76.1566	n/a	RESPONSE	n/a	n/a	n/a	n/a	n/a	n/a	n/a	red
76.1684	1.0	ITI	n/a	n/a	n/a	n/a	n/a	n/a	n/a	n/a
77.1684	0.5	FIXCROSS	n/a	n/a	n/a	n/a	n/a	n/a	n/a	n/a
77.6684	0.5166	INK	16	Incongruent	zielony	green	niebieski	blue	hit	n/a
78.1713	n/a	RESPONSE	n/a	n/a	n/a	n/a	n/a	n/a	n/a	blue
78.185	1.0	ITI	n/a	n/a	n/a	n/a	n/a	n/a	n/a	n/a
79.185	0.5	FIXCROSS	n/a	n/a	n/a	n/a	n/a	n/a	n/a	n/a
79.685	0.6	INK	17	Neutral	xxxxxxxx	xxxxxxxx	zielony	green	hit	n/a
80.2818	n/a	RESPONSE	n/a	n/a	n/a	n/a	n/a	n/a	n/a	green
80.285	1.0	ITI	n/a	n/a	n/a	n/a	n/a	n/a	n/a	n/a
81.2849	0.5	FIXCROSS	n/a	n/a	n/a	n/a	n/a	n/a	n/a	n/a
81.785	0.95	INK	18	Incongruent	niebieski	blue	zielony	green	hit	n/a
82.7282	n/a	RESPONSE	n/a	n/a	n/a	n/a	n/a	n/a	n/a	green
82.7349	1.0	ITI	n/a	n/a	n/a	n/a	n/a	n/a	n/a	n/a
83.7349	0.5	FIXCROSS	n/a	n/a	n/a	n/a	n/a	n/a	n/a	n/a
84.2349	0.5833	INK	19	Neutral	xxxxxxxx	xxxxxxxx	żółty	yellow	hit	n/a
84.8068	n/a	RESPONSE	n/a	n/a	n/a	n/a	n/a	n/a	n/a	yellow
84.8182	1.0	ITI	n/a	n/a	n/a	n/a	n/a	n/a	n/a	n/a
85.8182	0.5	FIXCROSS	n/a	n/a	n/a	n/a	n/a	n/a	n/a	n/a
86.3182	0.7	INK	20	Incongruent	czerwony	red	zielony	green	hit	n/a
87.0134	n/a	RESPONSE	n/a	n/a	n/a	n/a	n/a	n/a	n/a	green
87.0182	1.0	ITI	n/a	n/a	n/a	n/a	n/a	n/a	n/a	n/a
88.0182	0.5	FIXCROSS	n/a	n/a	n/a	n/a	n/a	n/a	n/a	n/a
88.5182	0.5	INK	21	Incongruent	niebieski	blue	czerwony	red	hit	n/a
89.012	n/a	RESPONSE	n/a	n/a	n/a	n/a	n/a	n/a	n/a	red
89.0181	1.0	ITI	n/a	n/a	n/a	n/a	n/a	n/a	n/a	n/a
90.0181	0.5	FIXCROSS	n/a	n/a	n/a	n/a	n/a	n/a	n/a	n/a
90.5181	0.5833	INK	22	Neutral	xxxxx	xxxxx	zielony	green	hit	n/a
91.0905	n/a	RESPONSE	n/a	n/a	n/a	n/a	n/a	n/a	n/a	green
91.1015	1.0	ITI	n/a	n/a	n/a	n/a	n/a	n/a	n/a	n/a
92.1014	0.5	FIXCROSS	n/a	n/a	n/a	n/a	n/a	n/a	n/a	n/a
92.6014	0.6333	INK	23	Incongruent	zielony	green	niebieski	blue	hit	n/a
93.2171	n/a	RESPONSE	n/a	n/a	n/a	n/a	n/a	n/a	n/a	blue
93.2347	1.0	ITI	n/a	n/a	n/a	n/a	n/a	n/a	n/a	n/a
94.2347	0.5	FIXCROSS	n/a	n/a	n/a	n/a	n/a	n/a	n/a	n/a
94.7347	0.5333	INK	24	Incongruent	żółty	yellow	niebieski	blue	hit	n/a
95.2637	n/a	RESPONSE	n/a	n/a	n/a	n/a	n/a	n/a	n/a	blue
95.268	1.0	ITI	n/a	n/a	n/a	n/a	n/a	n/a	n/a	n/a
96.268	0.5	FIXCROSS	n/a	n/a	n/a	n/a	n/a	n/a	n/a	n/a
96.768	0.6333	INK	25	Neutral	xxxxxxxxx	xxxxxxxxx	żółty	yellow	hit	n/a
97.3903	n/a	RESPONSE	n/a	n/a	n/a	n/a	n/a	n/a	n/a	yellow
97.4013	1.0	ITI	n/a	n/a	n/a	n/a	n/a	n/a	n/a	n/a
98.4013	0.5	FIXCROSS	n/a	n/a	n/a	n/a	n/a	n/a	n/a	n/a
98.9013	0.5	INK	26	Incongruent	żółty	yellow	czerwony	red	hit	n/a
99.3889	n/a	RESPONSE	n/a	n/a	n/a	n/a	n/a	n/a	n/a	red
99.4013	1.0	ITI	n/a	n/a	n/a	n/a	n/a	n/a	n/a	n/a
100.4013	0.5	FIXCROSS	n/a	n/a	n/a	n/a	n/a	n/a	n/a	n/a
100.9013	0.75	INK	27	Neutral	xxxxxxx	xxxxxxx	żółty	yellow	hit	n/a
101.6434	n/a	RESPONSE	n/a	n/a	n/a	n/a	n/a	n/a	n/a	yellow
101.6513	1.0	ITI	n/a	n/a	n/a	n/a	n/a	n/a	n/a	n/a
102.6512	0.5	FIXCROSS	n/a	n/a	n/a	n/a	n/a	n/a	n/a	n/a
103.1512	0.6	INK	28	Incongruent	niebieski	blue	zielony	green	hit	n/a
103.738	n/a	RESPONSE	n/a	n/a	n/a	n/a	n/a	n/a	n/a	green
103.7512	1.0	ITI	n/a	n/a	n/a	n/a	n/a	n/a	n/a	n/a
104.7512	0.5	FIXCROSS	n/a	n/a	n/a	n/a	n/a	n/a	n/a	n/a
105.2512	0.6166	INK	29	Neutral	xxxxxxxx	xxxxxxxx	niebieski	blue	hit	n/a
105.8645	n/a	RESPONSE	n/a	n/a	n/a	n/a	n/a	n/a	n/a	blue
105.8679	1.0	ITI	n/a	n/a	n/a	n/a	n/a	n/a	n/a	n/a
106.8678	0.5	FIXCROSS	n/a	n/a	n/a	n/a	n/a	n/a	n/a	n/a
107.3678	0.6667	INK	30	Neutral	xxxxxxxxx	xxxxxxxxx	zielony	green	hit	n/a
108.0231	n/a	RESPONSE	n/a	n/a	n/a	n/a	n/a	n/a	n/a	green
108.0345	1.0	ITI	n/a	n/a	n/a	n/a	n/a	n/a	n/a	n/a
109.0345	0.5	FIXCROSS	n/a	n/a	n/a	n/a	n/a	n/a	n/a	n/a
109.5345	0.7	INK	31	Incongruent	zielony	green	czerwony	red	hit	n/a
110.2296	n/a	RESPONSE	n/a	n/a	n/a	n/a	n/a	n/a	n/a	red
110.2344	1.0	ITI	n/a	n/a	n/a	n/a	n/a	n/a	n/a	n/a
111.2344	0.5	FIXCROSS	n/a	n/a	n/a	n/a	n/a	n/a	n/a	n/a
111.7344	0.75	INK	32	Incongruent	czerwony	red	niebieski	blue	hit	n/a
112.4681	n/a	RESPONSE	n/a	n/a	n/a	n/a	n/a	n/a	n/a	blue
112.4844	1.0	ITI	n/a	n/a	n/a	n/a	n/a	n/a	n/a	n/a
113.4844	0.5	FIXCROSS	n/a	n/a	n/a	n/a	n/a	n/a	n/a	n/a
113.9844	0.5667	INK	33	Neutral	xxxxxxx	xxxxxxx	żółty	yellow	hit	n/a
114.5467	n/a	RESPONSE	n/a	n/a	n/a	n/a	n/a	n/a	n/a	yellow
114.551	1.0	ITI	n/a	n/a	n/a	n/a	n/a	n/a	n/a	n/a
115.551	0.5	FIXCROSS	n/a	n/a	n/a	n/a	n/a	n/a	n/a	n/a
116.051	0.5167	INK	34	Neutral	xxxxxxxxx	xxxxxxxxx	żółty	yellow	hit	n/a
116.5613	n/a	RESPONSE	n/a	n/a	n/a	n/a	n/a	n/a	n/a	yellow
116.5677	1.0	ITI	n/a	n/a	n/a	n/a	n/a	n/a	n/a	n/a
117.5677	0.5	FIXCROSS	n/a	n/a	n/a	n/a	n/a	n/a	n/a	n/a
118.0676	0.5667	INK	35	Incongruent	żółty	yellow	zielony	green	hit	n/a
118.6239	n/a	RESPONSE	n/a	n/a	n/a	n/a	n/a	n/a	n/a	green
118.6343	1.0	ITI	n/a	n/a	n/a	n/a	n/a	n/a	n/a	n/a
119.6343	0.5	FIXCROSS	n/a	n/a	n/a	n/a	n/a	n/a	n/a	n/a
120.1343	0.75	INK	36	Neutral	xxxxxxxxx	xxxxxxxxx	czerwony	red	hit	n/a
120.8784	n/a	RESPONSE	n/a	n/a	n/a	n/a	n/a	n/a	n/a	red
120.8843	1.0	ITI	n/a	n/a	n/a	n/a	n/a	n/a	n/a	n/a
121.8843	0.5	FIXCROSS	n/a	n/a	n/a	n/a	n/a	n/a	n/a	n/a
122.3842	0.5667	INK	37	Neutral	xxxxx	xxxxx	czerwony	red	hit	n/a
122.941	n/a	RESPONSE	n/a	n/a	n/a	n/a	n/a	n/a	n/a	red
122.9509	1.0	ITI	n/a	n/a	n/a	n/a	n/a	n/a	n/a	n/a
123.9509	0.5	FIXCROSS	n/a	n/a	n/a	n/a	n/a	n/a	n/a	n/a
124.4509	0.5833	INK	38	Neutral	xxxxx	xxxxx	czerwony	red	hit	n/a
125.0196	n/a	RESPONSE	n/a	n/a	n/a	n/a	n/a	n/a	n/a	red
125.0342	1.0	ITI	n/a	n/a	n/a	n/a	n/a	n/a	n/a	n/a
126.0342	0.5	FIXCROSS	n/a	n/a	n/a	n/a	n/a	n/a	n/a	n/a
126.5342	1.2666	INK	39	Incongruent	zielony	green	żółty	yellow	hit	n/a
127.7857	n/a	RESPONSE	n/a	n/a	n/a	n/a	n/a	n/a	n/a	yellow
127.8008	1.0	ITI	n/a	n/a	n/a	n/a	n/a	n/a	n/a	n/a
128.8008	0.5	FIXCROSS	n/a	n/a	n/a	n/a	n/a	n/a	n/a	n/a
129.3008	0.6167	INK	40	Incongruent	niebieski	blue	czerwony	red	hit	n/a
129.9124	n/a	RESPONSE	n/a	n/a	n/a	n/a	n/a	n/a	n/a	red
129.9174	1.0	ITI	n/a	n/a	n/a	n/a	n/a	n/a	n/a	n/a
130.9174	0.5	FIXCROSS	n/a	n/a	n/a	n/a	n/a	n/a	n/a	n/a
131.4174	0.45	INK	41	Neutral	xxxxx	xxxxx	niebieski	blue	hit	n/a
131.863	n/a	RESPONSE	n/a	n/a	n/a	n/a	n/a	n/a	n/a	blue
131.8674	1.0	ITI	n/a	n/a	n/a	n/a	n/a	n/a	n/a	n/a
132.8674	0.5	FIXCROSS	n/a	n/a	n/a	n/a	n/a	n/a	n/a	n/a
133.3674	0.65	INK	42	Neutral	xxxxxxx	xxxxxxx	czerwony	red	hit	n/a
134.0056	n/a	RESPONSE	n/a	n/a	n/a	n/a	n/a	n/a	n/a	red
134.0174	1.0	ITI	n/a	n/a	n/a	n/a	n/a	n/a	n/a	n/a
135.0173	0.5	FIXCROSS	n/a	n/a	n/a	n/a	n/a	n/a	n/a	n/a
135.5173	0.6333	INK	43	Incongruent	czerwony	red	żółty	yellow	hit	n/a
136.1322	n/a	RESPONSE	n/a	n/a	n/a	n/a	n/a	n/a	n/a	yellow
136.1507	1.0	ITI	n/a	n/a	n/a	n/a	n/a	n/a	n/a	n/a
137.1506	0.5	FIXCROSS	n/a	n/a	n/a	n/a	n/a	n/a	n/a	n/a
137.6506	0.6667	INK	44	Incongruent	niebieski	blue	czerwony	red	hit	n/a
138.3067	n/a	RESPONSE	n/a	n/a	n/a	n/a	n/a	n/a	n/a	red
138.3173	1.0	ITI	n/a	n/a	n/a	n/a	n/a	n/a	n/a	n/a
139.3173	0.5	FIXCROSS	n/a	n/a	n/a	n/a	n/a	n/a	n/a	n/a
139.8173	0.5833	INK	45	Incongruent	czerwony	red	żółty	yellow	hit	n/a
140.3852	n/a	RESPONSE	n/a	n/a	n/a	n/a	n/a	n/a	n/a	yellow
140.4006	1.0	ITI	n/a	n/a	n/a	n/a	n/a	n/a	n/a	n/a
141.4006	0.5	FIXCROSS	n/a	n/a	n/a	n/a	n/a	n/a	n/a	n/a
141.9006	0.6166	INK	46	Incongruent	zielony	green	niebieski	blue	hit	n/a
142.5118	n/a	RESPONSE	n/a	n/a	n/a	n/a	n/a	n/a	n/a	blue
142.5172	1.0	ITI	n/a	n/a	n/a	n/a	n/a	n/a	n/a	n/a
143.5172	0.5	FIXCROSS	n/a	n/a	n/a	n/a	n/a	n/a	n/a	n/a
144.0172	1.0	INK	47	Neutral	xxxxxxx	xxxxxxx	czerwony	red	hit	n/a
145.0062	n/a	RESPONSE	n/a	n/a	n/a	n/a	n/a	n/a	n/a	red
145.0172	1.0	ITI	n/a	n/a	n/a	n/a	n/a	n/a	n/a	n/a
146.0172	0.5	FIXCROSS	n/a	n/a	n/a	n/a	n/a	n/a	n/a	n/a
146.5171	0.5667	INK	48	Neutral	xxxxxxxx	xxxxxxxx	żółty	yellow	hit	n/a
147.0686	n/a	RESPONSE	n/a	n/a	n/a	n/a	n/a	n/a	n/a	yellow
147.0838	1.0	ITI	n/a	n/a	n/a	n/a	n/a	n/a	n/a	n/a
148.0838	0.5	FIXCROSS	n/a	n/a	n/a	n/a	n/a	n/a	n/a	n/a
148.5838	0.6167	INK	49	Incongruent	niebieski	blue	żółty	yellow	hit	n/a
149.1952	n/a	RESPONSE	n/a	n/a	n/a	n/a	n/a	n/a	n/a	yellow
149.2004	1.0	ITI	n/a	n/a	n/a	n/a	n/a	n/a	n/a	n/a
150.2004	0.4999	FIXCROSS	n/a	n/a	n/a	n/a	n/a	n/a	n/a	n/a
150.7003	0.6001	INK	50	Neutral	xxxxx	xxxxx	zielony	green	hit	n/a
151.2897	n/a	RESPONSE	n/a	n/a	n/a	n/a	n/a	n/a	n/a	green
151.3004	1.0	ITI	n/a	n/a	n/a	n/a	n/a	n/a	n/a	n/a
152.3004	0.5	FIXCROSS	n/a	n/a	n/a	n/a	n/a	n/a	n/a	n/a
152.8004	0.8	INK	51	Incongruent	żółty	yellow	czerwony	red	hit	n/a
153.5922	n/a	RESPONSE	n/a	n/a	n/a	n/a	n/a	n/a	n/a	red
153.6003	1.0	ITI	n/a	n/a	n/a	n/a	n/a	n/a	n/a	n/a
154.6003	0.5	FIXCROSS	n/a	n/a	n/a	n/a	n/a	n/a	n/a	n/a
155.1003	0.6167	INK	52	Neutral	xxxxxxxx	xxxxxxxx	żółty	yellow	hit	n/a
155.7028	n/a	RESPONSE	n/a	n/a	n/a	n/a	n/a	n/a	n/a	yellow
155.717	1.0	ITI	n/a	n/a	n/a	n/a	n/a	n/a	n/a	n/a
156.717	0.5	FIXCROSS	n/a	n/a	n/a	n/a	n/a	n/a	n/a	n/a
157.217	0.45	INK	53	Neutral	xxxxx	xxxxx	niebieski	blue	hit	n/a
157.6534	n/a	RESPONSE	n/a	n/a	n/a	n/a	n/a	n/a	n/a	blue
157.6669	1.0	ITI	n/a	n/a	n/a	n/a	n/a	n/a	n/a	n/a
158.6669	0.5	FIXCROSS	n/a	n/a	n/a	n/a	n/a	n/a	n/a	n/a
159.1669	0.55	INK	54	Incongruent	czerwony	red	niebieski	blue	hit	n/a
159.7001	n/a	RESPONSE	n/a	n/a	n/a	n/a	n/a	n/a	n/a	blue
159.7169	1.0	ITI	n/a	n/a	n/a	n/a	n/a	n/a	n/a	n/a
160.7169	0.5	FIXCROSS	n/a	n/a	n/a	n/a	n/a	n/a	n/a	n/a
161.2169	0.4333	INK	55	Neutral	xxxxx	xxxxx	niebieski	blue	hit	n/a
161.6348	n/a	RESPONSE	n/a	n/a	n/a	n/a	n/a	n/a	n/a	blue
161.6502	1.0	ITI	n/a	n/a	n/a	n/a	n/a	n/a	n/a	n/a
162.6502	0.5	FIXCROSS	n/a	n/a	n/a	n/a	n/a	n/a	n/a	n/a
163.1502	0.6	INK	56	Incongruent	czerwony	red	zielony	green	hit	n/a
163.7454	n/a	RESPONSE	n/a	n/a	n/a	n/a	n/a	n/a	n/a	green
163.7502	1.0	ITI	n/a	n/a	n/a	n/a	n/a	n/a	n/a	n/a
164.7502	0.5	FIXCROSS	n/a	n/a	n/a	n/a	n/a	n/a	n/a	n/a
165.2502	0.65	INK	57	Neutral	xxxxxxxxx	xxxxxxxxx	żółty	yellow	hit	n/a
165.888	n/a	RESPONSE	n/a	n/a	n/a	n/a	n/a	n/a	n/a	yellow
165.9001	1.0	ITI	n/a	n/a	n/a	n/a	n/a	n/a	n/a	n/a
166.9001	0.5	FIXCROSS	n/a	n/a	n/a	n/a	n/a	n/a	n/a	n/a
167.4001	0.8	INK	58	Neutral	xxxxxxxx	xxxxxxxx	zielony	green	hit	n/a
168.1904	n/a	RESPONSE	n/a	n/a	n/a	n/a	n/a	n/a	n/a	green
168.2001	1.0	ITI	n/a	n/a	n/a	n/a	n/a	n/a	n/a	n/a
169.2001	0.5	FIXCROSS	n/a	n/a	n/a	n/a	n/a	n/a	n/a	n/a
169.7001	0.7	INK	59	Incongruent	niebieski	blue	żółty	yellow	hit	n/a
170.397	n/a	RESPONSE	n/a	n/a	n/a	n/a	n/a	n/a	n/a	yellow
170.4001	1.0	ITI	n/a	n/a	n/a	n/a	n/a	n/a	n/a	n/a
171.4	0.5	FIXCROSS	n/a	n/a	n/a	n/a	n/a	n/a	n/a	n/a
171.9	0.5833	INK	60	Neutral	xxxxxxx	xxxxxxx	niebieski	blue	hit	n/a
172.4755	n/a	RESPONSE	n/a	n/a	n/a	n/a	n/a	n/a	n/a	blue
172.4834	1.0	ITI	n/a	n/a	n/a	n/a	n/a	n/a	n/a	n/a
173.4833	0.5	FIXCROSS	n/a	n/a	n/a	n/a	n/a	n/a	n/a	n/a
173.9833	0.65	INK	61	Incongruent	czerwony	red	żółty	yellow	hit	n/a
174.618	n/a	RESPONSE	n/a	n/a	n/a	n/a	n/a	n/a	n/a	yellow
174.6333	1.0	ITI	n/a	n/a	n/a	n/a	n/a	n/a	n/a	n/a
175.6333	0.5	FIXCROSS	n/a	n/a	n/a	n/a	n/a	n/a	n/a	n/a
176.1333	0.6	INK	62	Neutral	xxxxxxxxx	xxxxxxxxx	czerwony	red	hit	n/a
176.7286	n/a	RESPONSE	n/a	n/a	n/a	n/a	n/a	n/a	n/a	red
176.7333	1.0	ITI	n/a	n/a	n/a	n/a	n/a	n/a	n/a	n/a
177.7333	0.5	FIXCROSS	n/a	n/a	n/a	n/a	n/a	n/a	n/a	n/a
178.2333	0.5833	INK	63	Neutral	xxxxxxx	xxxxxxx	żółty	yellow	hit	n/a
178.8072	n/a	RESPONSE	n/a	n/a	n/a	n/a	n/a	n/a	n/a	yellow
178.8166	1.0	ITI	n/a	n/a	n/a	n/a	n/a	n/a	n/a	n/a
179.8166	0.5	FIXCROSS	n/a	n/a	n/a	n/a	n/a	n/a	n/a	n/a
180.3165	0.5833	INK	64	Incongruent	czerwony	red	niebieski	blue	hit	n/a
180.8858	n/a	RESPONSE	n/a	n/a	n/a	n/a	n/a	n/a	n/a	blue
180.8999	1.0	ITI	n/a	n/a	n/a	n/a	n/a	n/a	n/a	n/a
181.8999	0.5	FIXCROSS	n/a	n/a	n/a	n/a	n/a	n/a	n/a	n/a
182.3999	0.5	INK	65	Incongruent	niebieski	blue	żółty	yellow	hit	n/a
182.8844	n/a	RESPONSE	n/a	n/a	n/a	n/a	n/a	n/a	n/a	yellow
182.8998	1.0	ITI	n/a	n/a	n/a	n/a	n/a	n/a	n/a	n/a
183.8998	0.5	FIXCROSS	n/a	n/a	n/a	n/a	n/a	n/a	n/a	n/a
184.3998	0.5666	INK	66	Incongruent	zielony	green	czerwony	red	hit	n/a
184.9631	n/a	RESPONSE	n/a	n/a	n/a	n/a	n/a	n/a	n/a	red
184.9665	1.0	ITI	n/a	n/a	n/a	n/a	n/a	n/a	n/a	n/a
185.9665	0.5	FIXCROSS	n/a	n/a	n/a	n/a	n/a	n/a	n/a	n/a
186.4664	0.6	INK	67	Neutral	xxxxx	xxxxx	czerwony	red	hit	n/a
187.0577	n/a	RESPONSE	n/a	n/a	n/a	n/a	n/a	n/a	n/a	red
187.0664	1.0	ITI	n/a	n/a	n/a	n/a	n/a	n/a	n/a	n/a
188.0664	0.5	FIXCROSS	n/a	n/a	n/a	n/a	n/a	n/a	n/a	n/a
188.5664	0.5333	INK	68	Neutral	xxxxxxxx	xxxxxxxx	niebieski	blue	hit	n/a
189.0883	n/a	RESPONSE	n/a	n/a	n/a	n/a	n/a	n/a	n/a	blue
189.0997	1.0	ITI	n/a	n/a	n/a	n/a	n/a	n/a	n/a	n/a
190.0997	0.5	FIXCROSS	n/a	n/a	n/a	n/a	n/a	n/a	n/a	n/a
190.5997	0.4833	INK	69	Neutral	xxxxxxxx	xxxxxxxx	niebieski	blue	hit	n/a
191.071	n/a	RESPONSE	n/a	n/a	n/a	n/a	n/a	n/a	n/a	blue
191.083	1.0	ITI	n/a	n/a	n/a	n/a	n/a	n/a	n/a	n/a
192.083	0.5	FIXCROSS	n/a	n/a	n/a	n/a	n/a	n/a	n/a	n/a
192.583	0.6833	INK	70	Incongruent	żółty	yellow	czerwony	red	hit	n/a
193.2615	n/a	RESPONSE	n/a	n/a	n/a	n/a	n/a	n/a	n/a	red
193.2663	1.0	ITI	n/a	n/a	n/a	n/a	n/a	n/a	n/a	n/a
194.2663	0.5	FIXCROSS	n/a	n/a	n/a	n/a	n/a	n/a	n/a	n/a
194.7663	0.75	INK	71	Neutral	xxxxxxxx	xxxxxxxx	zielony	green	hit	n/a
195.5	n/a	RESPONSE	n/a	n/a	n/a	n/a	n/a	n/a	n/a	green
195.5163	1.0	ITI	n/a	n/a	n/a	n/a	n/a	n/a	n/a	n/a
196.5163	0.5	FIXCROSS	n/a	n/a	n/a	n/a	n/a	n/a	n/a	n/a
197.0163	0.4833	INK	72	Neutral	xxxxxxxxx	xxxxxxxxx	zielony	green	hit	n/a
197.4826	n/a	RESPONSE	n/a	n/a	n/a	n/a	n/a	n/a	n/a	green
197.4996	1.0333	ITI	n/a	n/a	n/a	n/a	n/a	n/a	n/a	n/a
213.3279	n/a	RESPONSE	n/a	n/a	n/a	n/a	n/a	n/a	n/a	n/a
213.3493	1.0	ITI	n/a	n/a	n/a	n/a	n/a	n/a	n/a	n/a
214.3493	0.5	FIXCROSS	n/a	n/a	n/a	n/a	n/a	n/a	n/a	n/a
214.8493	1.4	T_COLOR_NAME	1	Incongruent	niebieski	blue	czerwony	red	hit	n/a
216.238	n/a	RESPONSE	n/a	n/a	n/a	n/a	n/a	n/a	n/a	blue
216.2493	0.5	FEEDBACK	n/a	n/a	n/a	n/a	n/a	n/a	n/a	n/a
216.7492	1.0	ITI	n/a	n/a	n/a	n/a	n/a	n/a	n/a	n/a
217.7492	0.5	FIXCROSS	n/a	n/a	n/a	n/a	n/a	n/a	n/a	n/a
218.2492	0.95	T_COLOR_NAME	2	Incongruent	czerwony	red	niebieski	blue	hit	n/a
219.18	n/a	RESPONSE	n/a	n/a	n/a	n/a	n/a	n/a	n/a	red
219.1992	0.5	FEEDBACK	n/a	n/a	n/a	n/a	n/a	n/a	n/a	n/a
219.6992	1.0	ITI	n/a	n/a	n/a	n/a	n/a	n/a	n/a	n/a
220.6992	0.5	FIXCROSS	n/a	n/a	n/a	n/a	n/a	n/a	n/a	n/a
221.1992	0.6167	T_COLOR_NAME	3	Neutral	niebieski	blue	Neutral	Neutral	hit	n/a
221.8022	n/a	RESPONSE	n/a	n/a	n/a	n/a	n/a	n/a	n/a	blue
221.8158	0.5	FEEDBACK	n/a	n/a	n/a	n/a	n/a	n/a	n/a	n/a
222.3158	1.0	ITI	n/a	n/a	n/a	n/a	n/a	n/a	n/a	n/a
223.3158	0.5	FIXCROSS	n/a	n/a	n/a	n/a	n/a	n/a	n/a	n/a
223.8158	0.8167	T_COLOR_NAME	4	Neutral	żółty	yellow	Neutral	Neutral	hit	n/a
224.6163	n/a	RESPONSE	n/a	n/a	n/a	n/a	n/a	n/a	n/a	yellow
224.6324	0.5	FEEDBACK	n/a	n/a	n/a	n/a	n/a	n/a	n/a	n/a
225.1324	1.0	ITI	n/a	n/a	n/a	n/a	n/a	n/a	n/a	n/a
226.1324	0.5	FIXCROSS	n/a	n/a	n/a	n/a	n/a	n/a	n/a	n/a
226.6324	0.7333	T_COLOR_NAME	5	Incongruent	zielony	green	czerwony	red	hit	n/a
227.3504	n/a	RESPONSE	n/a	n/a	n/a	n/a	n/a	n/a	n/a	green
227.3657	0.5	FEEDBACK	n/a	n/a	n/a	n/a	n/a	n/a	n/a	n/a
227.8657	1.0	ITI	n/a	n/a	n/a	n/a	n/a	n/a	n/a	n/a
228.8657	0.5	FIXCROSS	n/a	n/a	n/a	n/a	n/a	n/a	n/a	n/a
229.3657	0.6833	T_COLOR_NAME	6	Neutral	czerwony	red	Neutral	Neutral	hit	n/a
230.0366	n/a	RESPONSE	n/a	n/a	n/a	n/a	n/a	n/a	n/a	red
230.049	0.5	FEEDBACK	n/a	n/a	n/a	n/a	n/a	n/a	n/a	n/a
230.549	1.0	ITI	n/a	n/a	n/a	n/a	n/a	n/a	n/a	n/a
231.549	0.5	FIXCROSS	n/a	n/a	n/a	n/a	n/a	n/a	n/a	n/a
232.049	0.7833	T_COLOR_NAME	7	Incongruent	zielony	green	żółty	yellow	hit	n/a
232.8188	n/a	RESPONSE	n/a	n/a	n/a	n/a	n/a	n/a	n/a	green
232.8323	0.5	FEEDBACK	n/a	n/a	n/a	n/a	n/a	n/a	n/a	n/a
233.3323	1.0	ITI	n/a	n/a	n/a	n/a	n/a	n/a	n/a	n/a
234.3323	0.5	FIXCROSS	n/a	n/a	n/a	n/a	n/a	n/a	n/a	n/a
234.8323	0.4833	T_COLOR_NAME	8	Neutral	niebieski	blue	Neutral	Neutral	hit	n/a
235.297	n/a	RESPONSE	n/a	n/a	n/a	n/a	n/a	n/a	n/a	blue
235.3156	0.5	FEEDBACK	n/a	n/a	n/a	n/a	n/a	n/a	n/a	n/a
235.8156	1.0	ITI	n/a	n/a	n/a	n/a	n/a	n/a	n/a	n/a
236.8156	0.5	FIXCROSS	n/a	n/a	n/a	n/a	n/a	n/a	n/a	n/a
237.3155	0.8	T_COLOR_NAME	9	Incongruent	żółty	yellow	zielony	green	incorrect	n/a
238.1107	n/a	RESPONSE	n/a	n/a	n/a	n/a	n/a	n/a	n/a	green
238.1155	0.5	FEEDBACK	n/a	n/a	n/a	n/a	n/a	n/a	n/a	n/a
238.6155	1.0	ITI	n/a	n/a	n/a	n/a	n/a	n/a	n/a	n/a
239.6155	0.5	FIXCROSS	n/a	n/a	n/a	n/a	n/a	n/a	n/a	n/a
240.1155	1.2833	T_COLOR_NAME	10	Incongruent	zielony	green	niebieski	blue	hit	n/a
241.3886	n/a	RESPONSE	n/a	n/a	n/a	n/a	n/a	n/a	n/a	green
241.3988	0.5	FEEDBACK	n/a	n/a	n/a	n/a	n/a	n/a	n/a	n/a
241.8988	1.0	ITI	n/a	n/a	n/a	n/a	n/a	n/a	n/a	n/a
242.8988	0.5	FIXCROSS	n/a	n/a	n/a	n/a	n/a	n/a	n/a	n/a
243.3988	0.8167	T_COLOR_NAME	11	Incongruent	żółty	yellow	niebieski	blue	hit	n/a
244.2025	n/a	RESPONSE	n/a	n/a	n/a	n/a	n/a	n/a	n/a	yellow
244.2154	0.5	FEEDBACK	n/a	n/a	n/a	n/a	n/a	n/a	n/a	n/a
244.7154	1.0	ITI	n/a	n/a	n/a	n/a	n/a	n/a	n/a	n/a
245.7154	0.5	FIXCROSS	n/a	n/a	n/a	n/a	n/a	n/a	n/a	n/a
246.2154	0.65	T_COLOR_NAME	12	Neutral	zielony	green	Neutral	Neutral	hit	n/a
246.8566	n/a	RESPONSE	n/a	n/a	n/a	n/a	n/a	n/a	n/a	green
246.8654	0.5	FEEDBACK	n/a	n/a	n/a	n/a	n/a	n/a	n/a	n/a
247.3654	1.0	ITI	n/a	n/a	n/a	n/a	n/a	n/a	n/a	n/a
252.3248	n/a	RESPONSE	n/a	n/a	n/a	n/a	n/a	n/a	n/a	n/a
252.3486	1.0	ITI	n/a	n/a	n/a	n/a	n/a	n/a	n/a	n/a
253.3486	0.5	FIXCROSS	n/a	n/a	n/a	n/a	n/a	n/a	n/a	n/a
253.8486	1.0167	COLOR_NAME	1	Neutral	żółty	yellow	Neutral	Neutral	hit	n/a
254.851	n/a	RESPONSE	n/a	n/a	n/a	n/a	n/a	n/a	n/a	yellow
254.8652	1.0	ITI	n/a	n/a	n/a	n/a	n/a	n/a	n/a	n/a
255.8652	0.5	FIXCROSS	n/a	n/a	n/a	n/a	n/a	n/a	n/a	n/a
256.3652	0.65	COLOR_NAME	2	Neutral	czerwony	red	Neutral	Neutral	hit	n/a
257.0096	n/a	RESPONSE	n/a	n/a	n/a	n/a	n/a	n/a	n/a	red
257.0152	1.0	ITI	n/a	n/a	n/a	n/a	n/a	n/a	n/a	n/a
258.0152	0.5	FIXCROSS	n/a	n/a	n/a	n/a	n/a	n/a	n/a	n/a
258.5152	0.6333	COLOR_NAME	3	Neutral	czerwony	red	Neutral	Neutral	hit	n/a
259.1361	n/a	RESPONSE	n/a	n/a	n/a	n/a	n/a	n/a	n/a	red
259.1485	1.0	ITI	n/a	n/a	n/a	n/a	n/a	n/a	n/a	n/a
260.1485	0.5	FIXCROSS	n/a	n/a	n/a	n/a	n/a	n/a	n/a	n/a
260.6485	0.8	COLOR_NAME	4	Incongruent	czerwony	red	zielony	green	hit	n/a
261.4385	n/a	RESPONSE	n/a	n/a	n/a	n/a	n/a	n/a	n/a	red
261.4485	1.0	ITI	n/a	n/a	n/a	n/a	n/a	n/a	n/a	n/a
262.4484	0.5	FIXCROSS	n/a	n/a	n/a	n/a	n/a	n/a	n/a	n/a
262.9484	0.7166	COLOR_NAME	5	Neutral	żółty	yellow	Neutral	Neutral	hit	n/a
263.661	n/a	RESPONSE	n/a	n/a	n/a	n/a	n/a	n/a	n/a	yellow
263.6651	1.0	ITI	n/a	n/a	n/a	n/a	n/a	n/a	n/a	n/a
264.6651	0.5	FIXCROSS	n/a	n/a	n/a	n/a	n/a	n/a	n/a	n/a
265.1651	0.5	COLOR_NAME	6	Incongruent	żółty	yellow	czerwony	red	hit	n/a
265.6596	n/a	RESPONSE	n/a	n/a	n/a	n/a	n/a	n/a	n/a	yellow
265.665	1.0	ITI	n/a	n/a	n/a	n/a	n/a	n/a	n/a	n/a
266.665	0.5	FIXCROSS	n/a	n/a	n/a	n/a	n/a	n/a	n/a	n/a
267.165	0.7666	COLOR_NAME	7	Neutral	czerwony	red	Neutral	Neutral	hit	n/a
267.9142	n/a	RESPONSE	n/a	n/a	n/a	n/a	n/a	n/a	n/a	red
267.9317	1.0	ITI	n/a	n/a	n/a	n/a	n/a	n/a	n/a	n/a
268.9317	0.5	FIXCROSS	n/a	n/a	n/a	n/a	n/a	n/a	n/a	n/a
269.4317	0.6167	COLOR_NAME	8	Incongruent	żółty	yellow	zielony	green	hit	n/a
270.0407	n/a	RESPONSE	n/a	n/a	n/a	n/a	n/a	n/a	n/a	yellow
270.0483	1.0	ITI	n/a	n/a	n/a	n/a	n/a	n/a	n/a	n/a
271.0483	0.5	FIXCROSS	n/a	n/a	n/a	n/a	n/a	n/a	n/a	n/a
271.5483	0.5333	COLOR_NAME	9	Neutral	niebieski	blue	Neutral	Neutral	hit	n/a
272.0714	n/a	RESPONSE	n/a	n/a	n/a	n/a	n/a	n/a	n/a	blue
272.0816	1.0	ITI	n/a	n/a	n/a	n/a	n/a	n/a	n/a	n/a
273.0816	0.5	FIXCROSS	n/a	n/a	n/a	n/a	n/a	n/a	n/a	n/a
273.5816	0.6	COLOR_NAME	10	Incongruent	żółty	yellow	niebieski	blue	hit	n/a
274.166	n/a	RESPONSE	n/a	n/a	n/a	n/a	n/a	n/a	n/a	yellow
274.1816	1.0	ITI	n/a	n/a	n/a	n/a	n/a	n/a	n/a	n/a
275.1815	0.5	FIXCROSS	n/a	n/a	n/a	n/a	n/a	n/a	n/a	n/a
275.6815	0.6	COLOR_NAME	11	Incongruent	zielony	green	niebieski	blue	hit	n/a
276.2766	n/a	RESPONSE	n/a	n/a	n/a	n/a	n/a	n/a	n/a	green
276.2815	1.0	ITI	n/a	n/a	n/a	n/a	n/a	n/a	n/a	n/a
277.2815	0.5	FIXCROSS	n/a	n/a	n/a	n/a	n/a	n/a	n/a	n/a
277.7815	0.6833	COLOR_NAME	12	Neutral	zielony	green	Neutral	Neutral	hit	n/a
278.4511	n/a	RESPONSE	n/a	n/a	n/a	n/a	n/a	n/a	n/a	green
278.4648	1.0	ITI	n/a	n/a	n/a	n/a	n/a	n/a	n/a	n/a
279.4648	0.5	FIXCROSS	n/a	n/a	n/a	n/a	n/a	n/a	n/a	n/a
279.9648	0.6	COLOR_NAME	13	Neutral	żółty	yellow	Neutral	Neutral	hit	n/a
280.5613	n/a	RESPONSE	n/a	n/a	n/a	n/a	n/a	n/a	n/a	yellow
280.5648	1.0	ITI	n/a	n/a	n/a	n/a	n/a	n/a	n/a	n/a
281.5648	0.5	FIXCROSS	n/a	n/a	n/a	n/a	n/a	n/a	n/a	n/a
282.0648	0.45	COLOR_NAME	14	Incongruent	zielony	green	żółty	yellow	hit	n/a
282.512	n/a	RESPONSE	n/a	n/a	n/a	n/a	n/a	n/a	n/a	green
282.5147	1.0	ITI	n/a	n/a	n/a	n/a	n/a	n/a	n/a	n/a
283.5147	0.5	FIXCROSS	n/a	n/a	n/a	n/a	n/a	n/a	n/a	n/a
284.0147	0.9833	COLOR_NAME	15	Incongruent	czerwony	red	żółty	yellow	hit	n/a
284.9903	n/a	RESPONSE	n/a	n/a	n/a	n/a	n/a	n/a	n/a	red
284.998	1.0	ITI	n/a	n/a	n/a	n/a	n/a	n/a	n/a	n/a
285.998	0.5	FIXCROSS	n/a	n/a	n/a	n/a	n/a	n/a	n/a	n/a
286.498	0.65	COLOR_NAME	16	Incongruent	niebieski	blue	żółty	yellow	hit	n/a
287.1329	n/a	RESPONSE	n/a	n/a	n/a	n/a	n/a	n/a	n/a	blue
287.148	1.0	ITI	n/a	n/a	n/a	n/a	n/a	n/a	n/a	n/a
288.148	0.5	FIXCROSS	n/a	n/a	n/a	n/a	n/a	n/a	n/a	n/a
288.648	0.5333	COLOR_NAME	17	Neutral	niebieski	blue	Neutral	Neutral	hit	n/a
289.1635	n/a	RESPONSE	n/a	n/a	n/a	n/a	n/a	n/a	n/a	blue
289.1813	1.0	ITI	n/a	n/a	n/a	n/a	n/a	n/a	n/a	n/a
290.1813	0.5	FIXCROSS	n/a	n/a	n/a	n/a	n/a	n/a	n/a	n/a
290.6813	0.6	COLOR_NAME	18	Neutral	zielony	green	Neutral	Neutral	hit	n/a
291.2741	n/a	RESPONSE	n/a	n/a	n/a	n/a	n/a	n/a	n/a	green
291.2813	1.0	ITI	n/a	n/a	n/a	n/a	n/a	n/a	n/a	n/a
292.2812	0.5	FIXCROSS	n/a	n/a	n/a	n/a	n/a	n/a	n/a	n/a
292.7812	0.65	COLOR_NAME	19	Incongruent	niebieski	blue	zielony	green	hit	n/a
293.4166	n/a	RESPONSE	n/a	n/a	n/a	n/a	n/a	n/a	n/a	blue
293.4312	1.0	ITI	n/a	n/a	n/a	n/a	n/a	n/a	n/a	n/a
294.4312	0.5	FIXCROSS	n/a	n/a	n/a	n/a	n/a	n/a	n/a	n/a
294.9312	0.8333	COLOR_NAME	20	Incongruent	zielony	green	żółty	yellow	hit	n/a
295.7511	n/a	RESPONSE	n/a	n/a	n/a	n/a	n/a	n/a	n/a	green
295.7645	1.0	ITI	n/a	n/a	n/a	n/a	n/a	n/a	n/a	n/a
296.7645	0.5	FIXCROSS	n/a	n/a	n/a	n/a	n/a	n/a	n/a	n/a
297.2645	0.6	COLOR_NAME	21	Neutral	zielony	green	Neutral	Neutral	hit	n/a
297.8457	n/a	RESPONSE	n/a	n/a	n/a	n/a	n/a	n/a	n/a	green
297.8645	1.0	ITI	n/a	n/a	n/a	n/a	n/a	n/a	n/a	n/a
298.8645	0.5	FIXCROSS	n/a	n/a	n/a	n/a	n/a	n/a	n/a	n/a
299.3645	0.5667	COLOR_NAME	22	Neutral	żółty	yellow	Neutral	Neutral	hit	n/a
299.9243	n/a	RESPONSE	n/a	n/a	n/a	n/a	n/a	n/a	n/a	yellow
299.9311	1.0	ITI	n/a	n/a	n/a	n/a	n/a	n/a	n/a	n/a
300.9311	0.5	FIXCROSS	n/a	n/a	n/a	n/a	n/a	n/a	n/a	n/a
301.4311	0.7	COLOR_NAME	23	Neutral	niebieski	blue	Neutral	Neutral	hit	n/a
302.1148	n/a	RESPONSE	n/a	n/a	n/a	n/a	n/a	n/a	n/a	blue
302.1311	1.0	ITI	n/a	n/a	n/a	n/a	n/a	n/a	n/a	n/a
303.1311	0.5	FIXCROSS	n/a	n/a	n/a	n/a	n/a	n/a	n/a	n/a
303.631	0.9	COLOR_NAME	24	Neutral	żółty	yellow	Neutral	Neutral	hit	n/a
304.5132	n/a	RESPONSE	n/a	n/a	n/a	n/a	n/a	n/a	n/a	yellow
304.531	1.0	ITI	n/a	n/a	n/a	n/a	n/a	n/a	n/a	n/a
305.531	0.5	FIXCROSS	n/a	n/a	n/a	n/a	n/a	n/a	n/a	n/a
306.031	0.6	COLOR_NAME	25	Neutral	zielony	green	Neutral	Neutral	hit	n/a
306.6238	n/a	RESPONSE	n/a	n/a	n/a	n/a	n/a	n/a	n/a	green
306.631	1.0	ITI	n/a	n/a	n/a	n/a	n/a	n/a	n/a	n/a
307.631	0.5	FIXCROSS	n/a	n/a	n/a	n/a	n/a	n/a	n/a	n/a
308.131	1.3166	COLOR_NAME	26	Incongruent	niebieski	blue	czerwony	red	hit	n/a
309.4379	n/a	RESPONSE	n/a	n/a	n/a	n/a	n/a	n/a	n/a	blue
309.4476	1.0	ITI	n/a	n/a	n/a	n/a	n/a	n/a	n/a	n/a
310.4476	0.5	FIXCROSS	n/a	n/a	n/a	n/a	n/a	n/a	n/a	n/a
310.9476	0.5165	COLOR_NAME	27	Neutral	czerwony	red	Neutral	Neutral	hit	n/a
311.4525	n/a	RESPONSE	n/a	n/a	n/a	n/a	n/a	n/a	n/a	red
311.4641	1.0001	ITI	n/a	n/a	n/a	n/a	n/a	n/a	n/a	n/a
312.4642	0.5	FIXCROSS	n/a	n/a	n/a	n/a	n/a	n/a	n/a	n/a
312.9642	0.65	COLOR_NAME	28	Incongruent	niebieski	blue	żółty	yellow	hit	n/a
313.6111	n/a	RESPONSE	n/a	n/a	n/a	n/a	n/a	n/a	n/a	blue
313.6142	1.0	ITI	n/a	n/a	n/a	n/a	n/a	n/a	n/a	n/a
314.6142	0.5	FIXCROSS	n/a	n/a	n/a	n/a	n/a	n/a	n/a	n/a
315.1142	0.5167	COLOR_NAME	29	Incongruent	żółty	yellow	niebieski	blue	hit	n/a
315.6257	n/a	RESPONSE	n/a	n/a	n/a	n/a	n/a	n/a	n/a	yellow
315.6308	1.0	ITI	n/a	n/a	n/a	n/a	n/a	n/a	n/a	n/a
316.6308	0.5	FIXCROSS	n/a	n/a	n/a	n/a	n/a	n/a	n/a	n/a
317.1308	0.6333	COLOR_NAME	30	Incongruent	niebieski	blue	czerwony	red	hit	n/a
317.7523	n/a	RESPONSE	n/a	n/a	n/a	n/a	n/a	n/a	n/a	blue
317.7641	1.0	ITI	n/a	n/a	n/a	n/a	n/a	n/a	n/a	n/a
318.7641	0.5	FIXCROSS	n/a	n/a	n/a	n/a	n/a	n/a	n/a	n/a
319.2641	0.5833	COLOR_NAME	31	Incongruent	niebieski	blue	czerwony	red	hit	n/a
319.8309	n/a	RESPONSE	n/a	n/a	n/a	n/a	n/a	n/a	n/a	blue
319.8474	1.0	ITI	n/a	n/a	n/a	n/a	n/a	n/a	n/a	n/a
320.8474	0.5	FIXCROSS	n/a	n/a	n/a	n/a	n/a	n/a	n/a	n/a
321.3474	0.75	COLOR_NAME	32	Neutral	zielony	green	Neutral	Neutral	hit	n/a
322.0855	n/a	RESPONSE	n/a	n/a	n/a	n/a	n/a	n/a	n/a	green
322.0974	1.0	ITI	n/a	n/a	n/a	n/a	n/a	n/a	n/a	n/a
323.0974	0.5	FIXCROSS	n/a	n/a	n/a	n/a	n/a	n/a	n/a	n/a
323.5974	0.65	COLOR_NAME	33	Neutral	czerwony	red	Neutral	Neutral	hit	n/a
324.228	n/a	RESPONSE	n/a	n/a	n/a	n/a	n/a	n/a	n/a	red
324.2473	1.0	ITI	n/a	n/a	n/a	n/a	n/a	n/a	n/a	n/a
325.2473	0.5	FIXCROSS	n/a	n/a	n/a	n/a	n/a	n/a	n/a	n/a
325.7473	0.6	COLOR_NAME	34	Neutral	czerwony	red	Neutral	Neutral	hit	n/a
326.3386	n/a	RESPONSE	n/a	n/a	n/a	n/a	n/a	n/a	n/a	red
326.3473	1.0	ITI	n/a	n/a	n/a	n/a	n/a	n/a	n/a	n/a
327.3473	0.5	FIXCROSS	n/a	n/a	n/a	n/a	n/a	n/a	n/a	n/a
327.8473	0.5333	COLOR_NAME	35	Incongruent	żółty	yellow	czerwony	red	hit	n/a
328.3691	n/a	RESPONSE	n/a	n/a	n/a	n/a	n/a	n/a	n/a	yellow
328.3806	1.0	ITI	n/a	n/a	n/a	n/a	n/a	n/a	n/a	n/a
329.3806	0.5	FIXCROSS	n/a	n/a	n/a	n/a	n/a	n/a	n/a	n/a
329.8806	0.6167	COLOR_NAME	36	Incongruent	czerwony	red	żółty	yellow	hit	n/a
330.4797	n/a	RESPONSE	n/a	n/a	n/a	n/a	n/a	n/a	n/a	red
330.4972	1.0	ITI	n/a	n/a	n/a	n/a	n/a	n/a	n/a	n/a
331.4972	0.5	FIXCROSS	n/a	n/a	n/a	n/a	n/a	n/a	n/a	n/a
331.9972	0.55	COLOR_NAME	37	Neutral	niebieski	blue	Neutral	Neutral	hit	n/a
332.5424	n/a	RESPONSE	n/a	n/a	n/a	n/a	n/a	n/a	n/a	blue
332.5472	1.0	ITI	n/a	n/a	n/a	n/a	n/a	n/a	n/a	n/a
333.5472	0.5	FIXCROSS	n/a	n/a	n/a	n/a	n/a	n/a	n/a	n/a
334.0472	0.4833	COLOR_NAME	38	Incongruent	żółty	yellow	niebieski	blue	hit	n/a
334.525	n/a	RESPONSE	n/a	n/a	n/a	n/a	n/a	n/a	n/a	yellow
334.5305	1.0	ITI	n/a	n/a	n/a	n/a	n/a	n/a	n/a	n/a
335.5305	0.5	FIXCROSS	n/a	n/a	n/a	n/a	n/a	n/a	n/a	n/a
336.0305	0.5	COLOR_NAME	39	Incongruent	żółty	yellow	zielony	green	hit	n/a
336.5236	n/a	RESPONSE	n/a	n/a	n/a	n/a	n/a	n/a	n/a	yellow
336.5305	1.0	ITI	n/a	n/a	n/a	n/a	n/a	n/a	n/a	n/a
337.5304	0.5	FIXCROSS	n/a	n/a	n/a	n/a	n/a	n/a	n/a	n/a
338.0304	0.4667	COLOR_NAME	40	Incongruent	żółty	yellow	czerwony	red	hit	n/a
338.4903	n/a	RESPONSE	n/a	n/a	n/a	n/a	n/a	n/a	n/a	yellow
338.4971	1.0	ITI	n/a	n/a	n/a	n/a	n/a	n/a	n/a	n/a
339.4971	0.5	FIXCROSS	n/a	n/a	n/a	n/a	n/a	n/a	n/a	n/a
339.9971	0.7	COLOR_NAME	41	Incongruent	zielony	green	czerwony	red	hit	n/a
340.6808	n/a	RESPONSE	n/a	n/a	n/a	n/a	n/a	n/a	n/a	green
340.6971	1.0	ITI	n/a	n/a	n/a	n/a	n/a	n/a	n/a	n/a
341.697	0.5	FIXCROSS	n/a	n/a	n/a	n/a	n/a	n/a	n/a	n/a
342.197	0.5333	COLOR_NAME	42	Neutral	zielony	green	Neutral	Neutral	hit	n/a
342.7114	n/a	RESPONSE	n/a	n/a	n/a	n/a	n/a	n/a	n/a	green
342.7304	1.0	ITI	n/a	n/a	n/a	n/a	n/a	n/a	n/a	n/a
343.7303	0.5	FIXCROSS	n/a	n/a	n/a	n/a	n/a	n/a	n/a	n/a
344.2303	0.5667	COLOR_NAME	43	Incongruent	żółty	yellow	zielony	green	hit	n/a
344.79	n/a	RESPONSE	n/a	n/a	n/a	n/a	n/a	n/a	n/a	yellow
344.797	1.0	ITI	n/a	n/a	n/a	n/a	n/a	n/a	n/a	n/a
345.797	0.5	FIXCROSS	n/a	n/a	n/a	n/a	n/a	n/a	n/a	n/a
346.297	0.55	COLOR_NAME	44	Incongruent	niebieski	blue	zielony	green	hit	n/a
346.8366	n/a	RESPONSE	n/a	n/a	n/a	n/a	n/a	n/a	n/a	blue
346.847	1.0	ITI	n/a	n/a	n/a	n/a	n/a	n/a	n/a	n/a
347.8469	0.5	FIXCROSS	n/a	n/a	n/a	n/a	n/a	n/a	n/a	n/a
348.3469	0.6333	COLOR_NAME	45	Neutral	czerwony	red	Neutral	Neutral	hit	n/a
348.9633	n/a	RESPONSE	n/a	n/a	n/a	n/a	n/a	n/a	n/a	red
348.9803	1.0	ITI	n/a	n/a	n/a	n/a	n/a	n/a	n/a	n/a
349.9802	0.5	FIXCROSS	n/a	n/a	n/a	n/a	n/a	n/a	n/a	n/a
350.4802	0.55	COLOR_NAME	46	Incongruent	czerwony	red	żółty	yellow	hit	n/a
351.0259	n/a	RESPONSE	n/a	n/a	n/a	n/a	n/a	n/a	n/a	red
351.0302	1.0	ITI	n/a	n/a	n/a	n/a	n/a	n/a	n/a	n/a
352.0302	0.5	FIXCROSS	n/a	n/a	n/a	n/a	n/a	n/a	n/a	n/a
352.5302	0.6	COLOR_NAME	47	Incongruent	niebieski	blue	żółty	yellow	hit	n/a
353.1205	n/a	RESPONSE	n/a	n/a	n/a	n/a	n/a	n/a	n/a	blue
353.1302	1.0	ITI	n/a	n/a	n/a	n/a	n/a	n/a	n/a	n/a
354.1302	0.5	FIXCROSS	n/a	n/a	n/a	n/a	n/a	n/a	n/a	n/a
354.6301	0.6	COLOR_NAME	48	Incongruent	czerwony	red	niebieski	blue	hit	n/a
355.215	n/a	RESPONSE	n/a	n/a	n/a	n/a	n/a	n/a	n/a	red
355.2301	1.0	ITI	n/a	n/a	n/a	n/a	n/a	n/a	n/a	n/a
356.2301	0.5	FIXCROSS	n/a	n/a	n/a	n/a	n/a	n/a	n/a	n/a
356.7301	0.5166	COLOR_NAME	49	Incongruent	czerwony	red	zielony	green	hit	n/a
357.2296	n/a	RESPONSE	n/a	n/a	n/a	n/a	n/a	n/a	n/a	red
357.2467	1.0	ITI	n/a	n/a	n/a	n/a	n/a	n/a	n/a	n/a
358.2468	0.5	FIXCROSS	n/a	n/a	n/a	n/a	n/a	n/a	n/a	n/a
358.7467	0.4166	COLOR_NAME	50	Neutral	czerwony	red	Neutral	Neutral	hit	n/a
359.1483	n/a	RESPONSE	n/a	n/a	n/a	n/a	n/a	n/a	n/a	red
359.1634	1.0	ITI	n/a	n/a	n/a	n/a	n/a	n/a	n/a	n/a
360.1634	0.5	FIXCROSS	n/a	n/a	n/a	n/a	n/a	n/a	n/a	n/a
360.6634	0.6833	COLOR_NAME	51	Neutral	zielony	green	Neutral	Neutral	incorrect	n/a
361.3389	n/a	RESPONSE	n/a	n/a	n/a	n/a	n/a	n/a	n/a	yellow
361.3467	1.0	ITI	n/a	n/a	n/a	n/a	n/a	n/a	n/a	n/a
362.3467	0.5	FIXCROSS	n/a	n/a	n/a	n/a	n/a	n/a	n/a	n/a
362.8467	0.8167	COLOR_NAME	52	Neutral	żółty	yellow	Neutral	Neutral	hit	n/a
363.6573	n/a	RESPONSE	n/a	n/a	n/a	n/a	n/a	n/a	n/a	yellow
363.6633	1.0	ITI	n/a	n/a	n/a	n/a	n/a	n/a	n/a	n/a
364.6633	0.5	FIXCROSS	n/a	n/a	n/a	n/a	n/a	n/a	n/a	n/a
365.1633	0.5833	COLOR_NAME	53	Neutral	żółty	yellow	Neutral	Neutral	hit	n/a
365.7359	n/a	RESPONSE	n/a	n/a	n/a	n/a	n/a	n/a	n/a	yellow
365.7466	1.0	ITI	n/a	n/a	n/a	n/a	n/a	n/a	n/a	n/a
366.7466	0.5	FIXCROSS	n/a	n/a	n/a	n/a	n/a	n/a	n/a	n/a
367.2466	0.75	COLOR_NAME	54	Incongruent	zielony	green	niebieski	blue	hit	n/a
367.9904	n/a	RESPONSE	n/a	n/a	n/a	n/a	n/a	n/a	n/a	green
367.9966	1.0	ITI	n/a	n/a	n/a	n/a	n/a	n/a	n/a	n/a
368.9966	0.5	FIXCROSS	n/a	n/a	n/a	n/a	n/a	n/a	n/a	n/a
369.4966	0.65	COLOR_NAME	55	Neutral	żółty	yellow	Neutral	Neutral	hit	n/a
370.133	n/a	RESPONSE	n/a	n/a	n/a	n/a	n/a	n/a	n/a	yellow
370.1465	1.0	ITI	n/a	n/a	n/a	n/a	n/a	n/a	n/a	n/a
371.1465	0.5	FIXCROSS	n/a	n/a	n/a	n/a	n/a	n/a	n/a	n/a
371.6465	0.6667	COLOR_NAME	56	Neutral	czerwony	red	Neutral	Neutral	hit	n/a
372.3075	n/a	RESPONSE	n/a	n/a	n/a	n/a	n/a	n/a	n/a	red
372.3132	1.0	ITI	n/a	n/a	n/a	n/a	n/a	n/a	n/a	n/a
373.3132	0.5	FIXCROSS	n/a	n/a	n/a	n/a	n/a	n/a	n/a	n/a
373.8131	0.4667	COLOR_NAME	57	Incongruent	czerwony	red	zielony	green	hit	n/a
374.2742	n/a	RESPONSE	n/a	n/a	n/a	n/a	n/a	n/a	n/a	red
374.2798	1.0	ITI	n/a	n/a	n/a	n/a	n/a	n/a	n/a	n/a
375.2798	0.5	FIXCROSS	n/a	n/a	n/a	n/a	n/a	n/a	n/a	n/a
375.7798	0.7333	COLOR_NAME	58	Neutral	zielony	green	Neutral	Neutral	hit	n/a
376.4967	n/a	RESPONSE	n/a	n/a	n/a	n/a	n/a	n/a	n/a	green
376.5131	1.0	ITI	n/a	n/a	n/a	n/a	n/a	n/a	n/a	n/a
377.5131	0.5	FIXCROSS	n/a	n/a	n/a	n/a	n/a	n/a	n/a	n/a
378.0131	0.4649	COLOR_NAME	59	Neutral	niebieski	blue	Neutral	Neutral	hit	n/a
378.4634	n/a	RESPONSE	n/a	n/a	n/a	n/a	n/a	n/a	n/a	blue
378.4779	1.0016	ITI	n/a	n/a	n/a	n/a	n/a	n/a	n/a	n/a
379.4795	0.5002	FIXCROSS	n/a	n/a	n/a	n/a	n/a	n/a	n/a	n/a
379.9797	0.7833	COLOR_NAME	60	Incongruent	zielony	green	niebieski	blue	hit	n/a
380.7498	n/a	RESPONSE	n/a	n/a	n/a	n/a	n/a	n/a	n/a	green
380.763	1.0	ITI	n/a	n/a	n/a	n/a	n/a	n/a	n/a	n/a
381.763	0.5	FIXCROSS	n/a	n/a	n/a	n/a	n/a	n/a	n/a	n/a
382.263	0.6	COLOR_NAME	61	Incongruent	zielony	green	czerwony	red	hit	n/a
382.8443	n/a	RESPONSE	n/a	n/a	n/a	n/a	n/a	n/a	n/a	green
382.863	1.0	ITI	n/a	n/a	n/a	n/a	n/a	n/a	n/a	n/a
383.863	0.5	FIXCROSS	n/a	n/a	n/a	n/a	n/a	n/a	n/a	n/a
384.363	0.5666	COLOR_NAME	62	Neutral	niebieski	blue	Neutral	Neutral	hit	n/a
384.9229	n/a	RESPONSE	n/a	n/a	n/a	n/a	n/a	n/a	n/a	blue
384.9296	1.0	ITI	n/a	n/a	n/a	n/a	n/a	n/a	n/a	n/a
385.9296	0.5	FIXCROSS	n/a	n/a	n/a	n/a	n/a	n/a	n/a	n/a
386.4296	0.5	COLOR_NAME	63	Neutral	żółty	yellow	Neutral	Neutral	hit	n/a
386.9217	n/a	RESPONSE	n/a	n/a	n/a	n/a	n/a	n/a	n/a	yellow
386.9296	1.0	ITI	n/a	n/a	n/a	n/a	n/a	n/a	n/a	n/a
387.9296	0.5	FIXCROSS	n/a	n/a	n/a	n/a	n/a	n/a	n/a	n/a
388.4296	0.5667	COLOR_NAME	64	Incongruent	czerwony	red	niebieski	blue	hit	n/a
388.9841	n/a	RESPONSE	n/a	n/a	n/a	n/a	n/a	n/a	n/a	red
388.9962	1.0	ITI	n/a	n/a	n/a	n/a	n/a	n/a	n/a	n/a
389.9962	0.5	FIXCROSS	n/a	n/a	n/a	n/a	n/a	n/a	n/a	n/a
390.4962	0.4667	COLOR_NAME	65	Incongruent	czerwony	red	niebieski	blue	hit	n/a
390.9509	n/a	RESPONSE	n/a	n/a	n/a	n/a	n/a	n/a	n/a	red
390.9628	1.0	ITI	n/a	n/a	n/a	n/a	n/a	n/a	n/a	n/a
391.9628	0.5	FIXCROSS	n/a	n/a	n/a	n/a	n/a	n/a	n/a	n/a
392.4628	0.6	COLOR_NAME	66	Neutral	niebieski	blue	Neutral	Neutral	hit	n/a
393.0454	n/a	RESPONSE	n/a	n/a	n/a	n/a	n/a	n/a	n/a	blue
393.0628	1.0	ITI	n/a	n/a	n/a	n/a	n/a	n/a	n/a	n/a
394.0628	0.5	FIXCROSS	n/a	n/a	n/a	n/a	n/a	n/a	n/a	n/a
394.5628	0.5	COLOR_NAME	67	Neutral	niebieski	blue	Neutral	Neutral	hit	n/a
395.0441	n/a	RESPONSE	n/a	n/a	n/a	n/a	n/a	n/a	n/a	blue
395.0628	1.0	ITI	n/a	n/a	n/a	n/a	n/a	n/a	n/a	n/a
396.0628	0.5	FIXCROSS	n/a	n/a	n/a	n/a	n/a	n/a	n/a	n/a
396.5627	0.55	COLOR_NAME	68	Neutral	zielony	green	Neutral	Neutral	hit	n/a
397.1068	n/a	RESPONSE	n/a	n/a	n/a	n/a	n/a	n/a	n/a	green
397.1127	1.0	ITI	n/a	n/a	n/a	n/a	n/a	n/a	n/a	n/a
398.1127	0.5	FIXCROSS	n/a	n/a	n/a	n/a	n/a	n/a	n/a	n/a
398.6127	0.5833	COLOR_NAME	69	Neutral	niebieski	blue	Neutral	Neutral	hit	n/a
399.1852	n/a	RESPONSE	n/a	n/a	n/a	n/a	n/a	n/a	n/a	blue
399.196	1.0	ITI	n/a	n/a	n/a	n/a	n/a	n/a	n/a	n/a
400.196	0.4997	FIXCROSS	n/a	n/a	n/a	n/a	n/a	n/a	n/a	n/a
400.6958	0.6669	COLOR_NAME	70	Incongruent	zielony	green	żółty	yellow	hit	n/a
401.3438	n/a	RESPONSE	n/a	n/a	n/a	n/a	n/a	n/a	n/a	green
401.3627	1.0	ITI	n/a	n/a	n/a	n/a	n/a	n/a	n/a	n/a
402.3626	0.5	FIXCROSS	n/a	n/a	n/a	n/a	n/a	n/a	n/a	n/a
402.8626	0.45	COLOR_NAME	71	Incongruent	niebieski	blue	zielony	green	hit	n/a
403.2944	n/a	RESPONSE	n/a	n/a	n/a	n/a	n/a	n/a	n/a	blue
403.3126	1.0	ITI	n/a	n/a	n/a	n/a	n/a	n/a	n/a	n/a
404.3126	0.5	FIXCROSS	n/a	n/a	n/a	n/a	n/a	n/a	n/a	n/a
404.8126	0.5333	COLOR_NAME	72	Incongruent	zielony	green	czerwony	red	hit	n/a
405.3411	n/a	RESPONSE	n/a	n/a	n/a	n/a	n/a	n/a	n/a	green
405.3459	1.0167	ITI	n/a	n/a	n/a	n/a	n/a	n/a	n/a	n/a
409.5622	n/a	RESPONSE	n/a	n/a	n/a	n/a	n/a	n/a	n/a	n/a
