onset	duration	trial_type	trial_number	stroop_condition	stim_text(PL)	stim_text(eng)	stim_color(PL)	stim_color(eng)	response_type	response_color
0.0	n/a	RESPONSE	n/a	n/a	n/a	n/a	n/a	n/a	n/a	n/a
0.0617	1.0167	ITI	n/a	n/a	n/a	n/a	n/a	n/a	n/a	n/a
1.0783	0.5167	FIXCROSS	n/a	n/a	n/a	n/a	n/a	n/a	n/a	n/a
1.595	0.8	T_INK	1	Neutral	xxxxxxxxx	xxxxxxxxx	żółty	yellow	hit	n/a
2.3675	n/a	RESPONSE	n/a	n/a	n/a	n/a	n/a	n/a	n/a	yellow
2.395	0.5167	FEEDBACK	n/a	n/a	n/a	n/a	n/a	n/a	n/a	n/a
2.9117	1.0167	ITI	n/a	n/a	n/a	n/a	n/a	n/a	n/a	n/a
3.9284	0.5167	FIXCROSS	n/a	n/a	n/a	n/a	n/a	n/a	n/a	n/a
4.445	0.9833	T_INK	2	Incongruent	niebieski	blue	zielony	green	hit	n/a
5.4067	n/a	RESPONSE	n/a	n/a	n/a	n/a	n/a	n/a	n/a	green
5.4284	0.5167	FEEDBACK	n/a	n/a	n/a	n/a	n/a	n/a	n/a	n/a
5.9451	1.0167	ITI	n/a	n/a	n/a	n/a	n/a	n/a	n/a	n/a
6.9617	0.5167	FIXCROSS	n/a	n/a	n/a	n/a	n/a	n/a	n/a	n/a
7.4784	0.7167	T_INK	3	Incongruent	zielony	green	niebieski	blue	hit	n/a
8.1741	n/a	RESPONSE	n/a	n/a	n/a	n/a	n/a	n/a	n/a	blue
8.1951	0.5167	FEEDBACK	n/a	n/a	n/a	n/a	n/a	n/a	n/a	n/a
8.7118	1.0167	ITI	n/a	n/a	n/a	n/a	n/a	n/a	n/a	n/a
9.7284	0.5167	FIXCROSS	n/a	n/a	n/a	n/a	n/a	n/a	n/a	n/a
10.2451	0.4	T_INK	4	Incongruent	żółty	yellow	czerwony	red	hit	n/a
10.6215	n/a	RESPONSE	n/a	n/a	n/a	n/a	n/a	n/a	n/a	red
10.6451	0.5167	FEEDBACK	n/a	n/a	n/a	n/a	n/a	n/a	n/a	n/a
11.1618	1.0167	ITI	n/a	n/a	n/a	n/a	n/a	n/a	n/a	n/a
12.1785	0.5167	FIXCROSS	n/a	n/a	n/a	n/a	n/a	n/a	n/a	n/a
12.6951	0.9333	T_INK	5	Neutral	xxxxxxxx	xxxxxxxx	zielony	green	hit	n/a
13.5967	n/a	RESPONSE	n/a	n/a	n/a	n/a	n/a	n/a	n/a	green
13.6285	0.5167	FEEDBACK	n/a	n/a	n/a	n/a	n/a	n/a	n/a	n/a
14.1452	1.0167	ITI	n/a	n/a	n/a	n/a	n/a	n/a	n/a	n/a
15.1618	0.5167	FIXCROSS	n/a	n/a	n/a	n/a	n/a	n/a	n/a	n/a
15.6785	0.7833	T_INK	6	Neutral	xxxxxxx	xxxxxxx	czerwony	red	hit	n/a
16.428	n/a	RESPONSE	n/a	n/a	n/a	n/a	n/a	n/a	n/a	red
16.4618	0.5167	FEEDBACK	n/a	n/a	n/a	n/a	n/a	n/a	n/a	n/a
16.9785	1.0167	ITI	n/a	n/a	n/a	n/a	n/a	n/a	n/a	n/a
17.9952	0.5167	FIXCROSS	n/a	n/a	n/a	n/a	n/a	n/a	n/a	n/a
18.5119	0.6667	T_INK	7	Neutral	xxxxxxx	xxxxxxx	niebieski	blue	hit	n/a
19.1474	n/a	RESPONSE	n/a	n/a	n/a	n/a	n/a	n/a	n/a	blue
19.1785	0.5167	FEEDBACK	n/a	n/a	n/a	n/a	n/a	n/a	n/a	n/a
19.6952	1.0167	ITI	n/a	n/a	n/a	n/a	n/a	n/a	n/a	n/a
20.7119	0.5167	FIXCROSS	n/a	n/a	n/a	n/a	n/a	n/a	n/a	n/a
21.2286	0.8167	T_INK	8	Incongruent	żółty	yellow	zielony	green	hit	n/a
22.0267	n/a	RESPONSE	n/a	n/a	n/a	n/a	n/a	n/a	n/a	green
22.0452	0.5167	FEEDBACK	n/a	n/a	n/a	n/a	n/a	n/a	n/a	n/a
22.5619	1.0167	ITI	n/a	n/a	n/a	n/a	n/a	n/a	n/a	n/a
23.5786	0.5167	FIXCROSS	n/a	n/a	n/a	n/a	n/a	n/a	n/a	n/a
24.0953	0.7333	T_INK	9	Incongruent	zielony	green	czerwony	red	hit	n/a
24.794	n/a	RESPONSE	n/a	n/a	n/a	n/a	n/a	n/a	n/a	red
24.8286	0.5167	FEEDBACK	n/a	n/a	n/a	n/a	n/a	n/a	n/a	n/a
25.3453	1.0167	ITI	n/a	n/a	n/a	n/a	n/a	n/a	n/a	n/a
26.362	0.5167	FIXCROSS	n/a	n/a	n/a	n/a	n/a	n/a	n/a	n/a
26.8786	0.5167	T_INK	10	Incongruent	niebieski	blue	żółty	yellow	hit	n/a
27.3694	n/a	RESPONSE	n/a	n/a	n/a	n/a	n/a	n/a	n/a	yellow
27.3953	0.5167	FEEDBACK	n/a	n/a	n/a	n/a	n/a	n/a	n/a	n/a
27.912	1.0167	ITI	n/a	n/a	n/a	n/a	n/a	n/a	n/a	n/a
28.9287	0.5167	FIXCROSS	n/a	n/a	n/a	n/a	n/a	n/a	n/a	n/a
29.4453	0.5667	T_INK	11	Neutral	xxxxxxxxx	xxxxxxxxx	czerwony	red	hit	n/a
29.9768	n/a	RESPONSE	n/a	n/a	n/a	n/a	n/a	n/a	n/a	red
30.012	0.5167	FEEDBACK	n/a	n/a	n/a	n/a	n/a	n/a	n/a	n/a
30.5287	1.0167	ITI	n/a	n/a	n/a	n/a	n/a	n/a	n/a	n/a
31.5454	0.5167	FIXCROSS	n/a	n/a	n/a	n/a	n/a	n/a	n/a	n/a
32.062	0.6	T_INK	12	Neutral	xxxxxxxx	xxxxxxxx	żółty	yellow	hit	n/a
32.6321	n/a	RESPONSE	n/a	n/a	n/a	n/a	n/a	n/a	n/a	yellow
32.662	0.5167	FEEDBACK	n/a	n/a	n/a	n/a	n/a	n/a	n/a	n/a
33.1787	1.0333	ITI	n/a	n/a	n/a	n/a	n/a	n/a	n/a	n/a
36.4232	n/a	RESPONSE	n/a	n/a	n/a	n/a	n/a	n/a	n/a	n/a
36.4787	1.0167	ITI	n/a	n/a	n/a	n/a	n/a	n/a	n/a	n/a
37.4954	0.5167	FIXCROSS	n/a	n/a	n/a	n/a	n/a	n/a	n/a	n/a
38.0121	0.6833	INK	1	Neutral	xxxxxxx	xxxxxxx	czerwony	red	hit	n/a
38.6626	n/a	RESPONSE	n/a	n/a	n/a	n/a	n/a	n/a	n/a	red
38.6954	1.0167	ITI	n/a	n/a	n/a	n/a	n/a	n/a	n/a	n/a
39.7121	0.5167	FIXCROSS	n/a	n/a	n/a	n/a	n/a	n/a	n/a	n/a
40.2288	0.4167	INK	2	Neutral	xxxxx	xxxxx	czerwony	red	hit	n/a
40.6142	n/a	RESPONSE	n/a	n/a	n/a	n/a	n/a	n/a	n/a	red
40.6455	1.0167	ITI	n/a	n/a	n/a	n/a	n/a	n/a	n/a	n/a
41.6621	0.5167	FIXCROSS	n/a	n/a	n/a	n/a	n/a	n/a	n/a	n/a
42.1788	0.8	INK	3	Neutral	xxxxxxxx	xxxxxxxx	zielony	green	hit	n/a
42.9496	n/a	RESPONSE	n/a	n/a	n/a	n/a	n/a	n/a	n/a	green
42.9788	1.0167	ITI	n/a	n/a	n/a	n/a	n/a	n/a	n/a	n/a
43.9955	0.5167	FIXCROSS	n/a	n/a	n/a	n/a	n/a	n/a	n/a	n/a
44.5122	0.7333	INK	4	Incongruent	żółty	yellow	zielony	green	hit	n/a
45.2211	n/a	RESPONSE	n/a	n/a	n/a	n/a	n/a	n/a	n/a	green
45.2455	1.0167	ITI	n/a	n/a	n/a	n/a	n/a	n/a	n/a	n/a
46.2622	0.5167	FIXCROSS	n/a	n/a	n/a	n/a	n/a	n/a	n/a	n/a
46.7789	0.5167	INK	5	Incongruent	czerwony	red	zielony	green	hit	n/a
47.2686	n/a	RESPONSE	n/a	n/a	n/a	n/a	n/a	n/a	n/a	green
47.2955	1.0167	ITI	n/a	n/a	n/a	n/a	n/a	n/a	n/a	n/a
48.3122	0.5167	FIXCROSS	n/a	n/a	n/a	n/a	n/a	n/a	n/a	n/a
48.8289	0.7167	INK	6	Incongruent	zielony	green	niebieski	blue	hit	n/a
49.5241	n/a	RESPONSE	n/a	n/a	n/a	n/a	n/a	n/a	n/a	blue
49.5456	1.0167	ITI	n/a	n/a	n/a	n/a	n/a	n/a	n/a	n/a
50.5623	0.5167	FIXCROSS	n/a	n/a	n/a	n/a	n/a	n/a	n/a	n/a
51.0789	0.4	INK	7	Neutral	xxxxxxxxx	xxxxxxxxx	żółty	yellow	hit	n/a
51.4596	n/a	RESPONSE	n/a	n/a	n/a	n/a	n/a	n/a	n/a	yellow
51.4789	1.0167	ITI	n/a	n/a	n/a	n/a	n/a	n/a	n/a	n/a
52.4956	0.5167	FIXCROSS	n/a	n/a	n/a	n/a	n/a	n/a	n/a	n/a
53.0123	0.4333	INK	8	Neutral	xxxxxxxxx	xxxxxxxxx	czerwony	red	hit	n/a
53.4271	n/a	RESPONSE	n/a	n/a	n/a	n/a	n/a	n/a	n/a	red
53.4456	1.0167	ITI	n/a	n/a	n/a	n/a	n/a	n/a	n/a	n/a
54.4623	0.5167	FIXCROSS	n/a	n/a	n/a	n/a	n/a	n/a	n/a	n/a
54.979	0.4833	INK	9	Incongruent	niebieski	blue	żółty	yellow	hit	n/a
55.4426	n/a	RESPONSE	n/a	n/a	n/a	n/a	n/a	n/a	n/a	yellow
55.4623	1.0167	ITI	n/a	n/a	n/a	n/a	n/a	n/a	n/a	n/a
56.479	0.5167	FIXCROSS	n/a	n/a	n/a	n/a	n/a	n/a	n/a	n/a
56.9957	1.0	INK	10	Neutral	xxxxx	xxxxx	niebieski	blue	hit	n/a
57.97	n/a	RESPONSE	n/a	n/a	n/a	n/a	n/a	n/a	n/a	blue
57.9957	1.0167	ITI	n/a	n/a	n/a	n/a	n/a	n/a	n/a	n/a
59.0123	0.5167	FIXCROSS	n/a	n/a	n/a	n/a	n/a	n/a	n/a	n/a
59.529	0.5167	INK	11	Neutral	xxxxxxxxx	xxxxxxxxx	żółty	yellow	hit	n/a
60.0175	n/a	RESPONSE	n/a	n/a	n/a	n/a	n/a	n/a	n/a	yellow
60.0457	1.0167	ITI	n/a	n/a	n/a	n/a	n/a	n/a	n/a	n/a
61.0624	0.5167	FIXCROSS	n/a	n/a	n/a	n/a	n/a	n/a	n/a	n/a
61.579	0.65	INK	12	Incongruent	czerwony	red	niebieski	blue	hit	n/a
62.209	n/a	RESPONSE	n/a	n/a	n/a	n/a	n/a	n/a	n/a	blue
62.229	1.0167	ITI	n/a	n/a	n/a	n/a	n/a	n/a	n/a	n/a
63.2457	0.5167	FIXCROSS	n/a	n/a	n/a	n/a	n/a	n/a	n/a	n/a
63.7624	0.6667	INK	13	Neutral	xxxxxxxxx	xxxxxxxxx	zielony	green	hit	n/a
64.4004	n/a	RESPONSE	n/a	n/a	n/a	n/a	n/a	n/a	n/a	green
64.4291	1.0167	ITI	n/a	n/a	n/a	n/a	n/a	n/a	n/a	n/a
65.4458	0.5167	FIXCROSS	n/a	n/a	n/a	n/a	n/a	n/a	n/a	n/a
65.9624	0.35	INK	14	Neutral	xxxxxxx	xxxxxxx	czerwony	red	hit	n/a
66.288	n/a	RESPONSE	n/a	n/a	n/a	n/a	n/a	n/a	n/a	red
66.3124	1.0167	ITI	n/a	n/a	n/a	n/a	n/a	n/a	n/a	n/a
67.3291	0.5167	FIXCROSS	n/a	n/a	n/a	n/a	n/a	n/a	n/a	n/a
67.8458	0.3667	INK	15	Incongruent	zielony	green	czerwony	red	hit	n/a
68.1915	n/a	RESPONSE	n/a	n/a	n/a	n/a	n/a	n/a	n/a	red
68.2124	1.0167	ITI	n/a	n/a	n/a	n/a	n/a	n/a	n/a	n/a
69.2291	0.5167	FIXCROSS	n/a	n/a	n/a	n/a	n/a	n/a	n/a	n/a
69.7458	0.4	INK	16	Neutral	xxxxxxxxx	xxxxxxxxx	czerwony	red	hit	n/a
70.1271	n/a	RESPONSE	n/a	n/a	n/a	n/a	n/a	n/a	n/a	red
70.1458	1.0167	ITI	n/a	n/a	n/a	n/a	n/a	n/a	n/a	n/a
71.1625	0.5167	FIXCROSS	n/a	n/a	n/a	n/a	n/a	n/a	n/a	n/a
71.6792	0.7333	INK	17	Incongruent	czerwony	red	zielony	green	hit	n/a
72.3826	n/a	RESPONSE	n/a	n/a	n/a	n/a	n/a	n/a	n/a	green
72.4125	1.0167	ITI	n/a	n/a	n/a	n/a	n/a	n/a	n/a	n/a
73.4292	0.5167	FIXCROSS	n/a	n/a	n/a	n/a	n/a	n/a	n/a	n/a
73.9458	0.6167	INK	18	Incongruent	zielony	green	żółty	yellow	hit	n/a
74.542	n/a	RESPONSE	n/a	n/a	n/a	n/a	n/a	n/a	n/a	yellow
74.5625	1.0167	ITI	n/a	n/a	n/a	n/a	n/a	n/a	n/a	n/a
75.5792	0.5167	FIXCROSS	n/a	n/a	n/a	n/a	n/a	n/a	n/a	n/a
76.0959	0.4833	INK	19	Incongruent	niebieski	blue	żółty	yellow	hit	n/a
76.5575	n/a	RESPONSE	n/a	n/a	n/a	n/a	n/a	n/a	n/a	yellow
76.5792	1.0167	ITI	n/a	n/a	n/a	n/a	n/a	n/a	n/a	n/a
77.5959	0.5167	FIXCROSS	n/a	n/a	n/a	n/a	n/a	n/a	n/a	n/a
78.1126	0.45	INK	20	Neutral	xxxxxxx	xxxxxxx	żółty	yellow	hit	n/a
78.541	n/a	RESPONSE	n/a	n/a	n/a	n/a	n/a	n/a	n/a	yellow
78.5626	1.0167	ITI	n/a	n/a	n/a	n/a	n/a	n/a	n/a	n/a
79.5792	0.5167	FIXCROSS	n/a	n/a	n/a	n/a	n/a	n/a	n/a	n/a
80.0959	0.7667	INK	21	Incongruent	niebieski	blue	zielony	green	hit	n/a
80.8445	n/a	RESPONSE	n/a	n/a	n/a	n/a	n/a	n/a	n/a	green
80.8626	1.0167	ITI	n/a	n/a	n/a	n/a	n/a	n/a	n/a	n/a
81.8793	0.5167	FIXCROSS	n/a	n/a	n/a	n/a	n/a	n/a	n/a	n/a
82.3959	0.5167	INK	22	Incongruent	niebieski	blue	zielony	green	hit	n/a
82.892	n/a	RESPONSE	n/a	n/a	n/a	n/a	n/a	n/a	n/a	green
82.9126	1.0167	ITI	n/a	n/a	n/a	n/a	n/a	n/a	n/a	n/a
83.9293	0.5167	FIXCROSS	n/a	n/a	n/a	n/a	n/a	n/a	n/a	n/a
84.446	0.5667	INK	23	Incongruent	żółty	yellow	zielony	green	hit	n/a
84.9875	n/a	RESPONSE	n/a	n/a	n/a	n/a	n/a	n/a	n/a	green
85.0126	1.0167	ITI	n/a	n/a	n/a	n/a	n/a	n/a	n/a	n/a
86.0293	0.5167	FIXCROSS	n/a	n/a	n/a	n/a	n/a	n/a	n/a	n/a
86.546	0.5333	INK	24	Neutral	xxxxxxxxx	xxxxxxxxx	czerwony	red	hit	n/a
87.051	n/a	RESPONSE	n/a	n/a	n/a	n/a	n/a	n/a	n/a	red
87.0793	1.0167	ITI	n/a	n/a	n/a	n/a	n/a	n/a	n/a	n/a
88.096	0.5167	FIXCROSS	n/a	n/a	n/a	n/a	n/a	n/a	n/a	n/a
88.6127	0.5333	INK	25	Neutral	xxxxxxxx	xxxxxxxx	niebieski	blue	hit	n/a
89.1145	n/a	RESPONSE	n/a	n/a	n/a	n/a	n/a	n/a	n/a	blue
89.146	1.0167	ITI	n/a	n/a	n/a	n/a	n/a	n/a	n/a	n/a
90.1627	0.5167	FIXCROSS	n/a	n/a	n/a	n/a	n/a	n/a	n/a	n/a
90.6794	0.45	INK	26	Incongruent	niebieski	blue	żółty	yellow	hit	n/a
91.098	n/a	RESPONSE	n/a	n/a	n/a	n/a	n/a	n/a	n/a	yellow
91.1294	1.0167	ITI	n/a	n/a	n/a	n/a	n/a	n/a	n/a	n/a
92.1461	0.5167	FIXCROSS	n/a	n/a	n/a	n/a	n/a	n/a	n/a	n/a
92.6627	0.5167	INK	27	Incongruent	czerwony	red	niebieski	blue	hit	n/a
93.1615	n/a	RESPONSE	n/a	n/a	n/a	n/a	n/a	n/a	n/a	blue
93.1794	1.0167	ITI	n/a	n/a	n/a	n/a	n/a	n/a	n/a	n/a
94.1961	0.5167	FIXCROSS	n/a	n/a	n/a	n/a	n/a	n/a	n/a	n/a
94.7128	0.5667	INK	28	Neutral	xxxxxxxx	xxxxxxxx	niebieski	blue	hit	n/a
95.257	n/a	RESPONSE	n/a	n/a	n/a	n/a	n/a	n/a	n/a	blue
95.2794	1.0167	ITI	n/a	n/a	n/a	n/a	n/a	n/a	n/a	n/a
96.2961	0.5167	FIXCROSS	n/a	n/a	n/a	n/a	n/a	n/a	n/a	n/a
96.8128	0.6334	INK	29	Neutral	xxxxxxxx	xxxxxxxx	żółty	yellow	hit	n/a
97.4165	n/a	RESPONSE	n/a	n/a	n/a	n/a	n/a	n/a	n/a	yellow
97.4461	1.0167	ITI	n/a	n/a	n/a	n/a	n/a	n/a	n/a	n/a
98.4628	0.5167	FIXCROSS	n/a	n/a	n/a	n/a	n/a	n/a	n/a	n/a
98.9795	0.4167	INK	30	Incongruent	zielony	green	czerwony	red	hit	n/a
99.368	n/a	RESPONSE	n/a	n/a	n/a	n/a	n/a	n/a	n/a	red
99.3961	1.0167	ITI	n/a	n/a	n/a	n/a	n/a	n/a	n/a	n/a
100.4128	0.5167	FIXCROSS	n/a	n/a	n/a	n/a	n/a	n/a	n/a	n/a
100.9295	0.5167	INK	31	Neutral	xxxxxxx	xxxxxxx	żółty	yellow	hit	n/a
101.4155	n/a	RESPONSE	n/a	n/a	n/a	n/a	n/a	n/a	n/a	yellow
101.4462	1.0167	ITI	n/a	n/a	n/a	n/a	n/a	n/a	n/a	n/a
102.4628	0.5167	FIXCROSS	n/a	n/a	n/a	n/a	n/a	n/a	n/a	n/a
102.9795	0.4167	INK	32	Incongruent	zielony	green	żółty	yellow	hit	n/a
103.367	n/a	RESPONSE	n/a	n/a	n/a	n/a	n/a	n/a	n/a	yellow
103.3962	1.0167	ITI	n/a	n/a	n/a	n/a	n/a	n/a	n/a	n/a
104.4129	0.5167	FIXCROSS	n/a	n/a	n/a	n/a	n/a	n/a	n/a	n/a
104.9295	0.7833	INK	33	Neutral	xxxxxxxx	xxxxxxxx	zielony	green	hit	n/a
105.6865	n/a	RESPONSE	n/a	n/a	n/a	n/a	n/a	n/a	n/a	green
105.7129	1.0167	ITI	n/a	n/a	n/a	n/a	n/a	n/a	n/a	n/a
106.7296	0.5167	FIXCROSS	n/a	n/a	n/a	n/a	n/a	n/a	n/a	n/a
107.2462	0.4333	INK	34	Neutral	xxxxxxx	xxxxxxx	niebieski	blue	hit	n/a
107.654	n/a	RESPONSE	n/a	n/a	n/a	n/a	n/a	n/a	n/a	blue
107.6796	1.0167	ITI	n/a	n/a	n/a	n/a	n/a	n/a	n/a	n/a
108.6963	0.5167	FIXCROSS	n/a	n/a	n/a	n/a	n/a	n/a	n/a	n/a
109.2129	0.4167	INK	35	Incongruent	zielony	green	niebieski	blue	hit	n/a
109.6055	n/a	RESPONSE	n/a	n/a	n/a	n/a	n/a	n/a	n/a	blue
109.6296	1.0167	ITI	n/a	n/a	n/a	n/a	n/a	n/a	n/a	n/a
110.6463	0.5167	FIXCROSS	n/a	n/a	n/a	n/a	n/a	n/a	n/a	n/a
111.1629	0.45	INK	36	Incongruent	czerwony	red	żółty	yellow	hit	n/a
111.589	n/a	RESPONSE	n/a	n/a	n/a	n/a	n/a	n/a	n/a	yellow
111.613	1.0167	ITI	n/a	n/a	n/a	n/a	n/a	n/a	n/a	n/a
112.6296	0.5167	FIXCROSS	n/a	n/a	n/a	n/a	n/a	n/a	n/a	n/a
113.1463	0.4	INK	37	Neutral	xxxxxxxx	xxxxxxxx	żółty	yellow	hit	n/a
113.5246	n/a	RESPONSE	n/a	n/a	n/a	n/a	n/a	n/a	n/a	yellow
113.5463	1.0167	ITI	n/a	n/a	n/a	n/a	n/a	n/a	n/a	n/a
114.563	0.5167	FIXCROSS	n/a	n/a	n/a	n/a	n/a	n/a	n/a	n/a
115.0797	0.4667	INK	38	Incongruent	niebieski	blue	czerwony	red	hit	n/a
115.5241	n/a	RESPONSE	n/a	n/a	n/a	n/a	n/a	n/a	n/a	red
115.5463	1.0167	ITI	n/a	n/a	n/a	n/a	n/a	n/a	n/a	n/a
116.563	0.5167	FIXCROSS	n/a	n/a	n/a	n/a	n/a	n/a	n/a	n/a
117.0797	0.7333	INK	39	Neutral	xxxxx	xxxxx	zielony	green	hit	n/a
117.7795	n/a	RESPONSE	n/a	n/a	n/a	n/a	n/a	n/a	n/a	green
117.813	1.0167	ITI	n/a	n/a	n/a	n/a	n/a	n/a	n/a	n/a
118.8297	0.5167	FIXCROSS	n/a	n/a	n/a	n/a	n/a	n/a	n/a	n/a
119.3464	0.4333	INK	40	Incongruent	niebieski	blue	czerwony	red	incorrect	n/a
119.747	n/a	RESPONSE	n/a	n/a	n/a	n/a	n/a	n/a	n/a	yellow
119.7797	1.0167	ITI	n/a	n/a	n/a	n/a	n/a	n/a	n/a	n/a
120.7964	0.5167	FIXCROSS	n/a	n/a	n/a	n/a	n/a	n/a	n/a	n/a
121.3131	0.6167	INK	41	Neutral	xxxxxxx	xxxxxxx	niebieski	blue	hit	n/a
121.9065	n/a	RESPONSE	n/a	n/a	n/a	n/a	n/a	n/a	n/a	blue
121.9297	1.0167	ITI	n/a	n/a	n/a	n/a	n/a	n/a	n/a	n/a
122.9464	0.5167	FIXCROSS	n/a	n/a	n/a	n/a	n/a	n/a	n/a	n/a
123.4631	0.4667	INK	42	Neutral	xxxxxxx	xxxxxxx	żółty	yellow	hit	n/a
123.906	n/a	RESPONSE	n/a	n/a	n/a	n/a	n/a	n/a	n/a	yellow
123.9298	1.0167	ITI	n/a	n/a	n/a	n/a	n/a	n/a	n/a	n/a
124.9464	0.5167	FIXCROSS	n/a	n/a	n/a	n/a	n/a	n/a	n/a	n/a
125.4631	0.9	INK	43	Incongruent	żółty	yellow	niebieski	blue	hit	n/a
126.3374	n/a	RESPONSE	n/a	n/a	n/a	n/a	n/a	n/a	n/a	blue
126.3631	1.0167	ITI	n/a	n/a	n/a	n/a	n/a	n/a	n/a	n/a
127.3798	0.5167	FIXCROSS	n/a	n/a	n/a	n/a	n/a	n/a	n/a	n/a
127.8965	0.5333	INK	44	Neutral	xxxxxxx	xxxxxxx	czerwony	red	hit	n/a
128.401	n/a	RESPONSE	n/a	n/a	n/a	n/a	n/a	n/a	n/a	red
128.4298	1.0167	ITI	n/a	n/a	n/a	n/a	n/a	n/a	n/a	n/a
129.4465	0.5167	FIXCROSS	n/a	n/a	n/a	n/a	n/a	n/a	n/a	n/a
129.9632	0.5833	INK	45	Incongruent	czerwony	red	niebieski	blue	hit	n/a
130.5284	n/a	RESPONSE	n/a	n/a	n/a	n/a	n/a	n/a	n/a	blue
130.5465	1.0167	ITI	n/a	n/a	n/a	n/a	n/a	n/a	n/a	n/a
131.5632	0.5167	FIXCROSS	n/a	n/a	n/a	n/a	n/a	n/a	n/a	n/a
132.0799	0.8167	INK	46	Incongruent	żółty	yellow	zielony	green	hit	n/a
132.8639	n/a	RESPONSE	n/a	n/a	n/a	n/a	n/a	n/a	n/a	green
132.8965	1.0167	ITI	n/a	n/a	n/a	n/a	n/a	n/a	n/a	n/a
133.9132	0.5167	FIXCROSS	n/a	n/a	n/a	n/a	n/a	n/a	n/a	n/a
134.4299	0.5333	INK	47	Incongruent	czerwony	red	zielony	green	hit	n/a
134.9434	n/a	RESPONSE	n/a	n/a	n/a	n/a	n/a	n/a	n/a	green
134.9632	1.0167	ITI	n/a	n/a	n/a	n/a	n/a	n/a	n/a	n/a
135.9799	0.5167	FIXCROSS	n/a	n/a	n/a	n/a	n/a	n/a	n/a	n/a
136.4966	0.5333	INK	48	Neutral	xxxxx	xxxxx	niebieski	blue	hit	n/a
137.0069	n/a	RESPONSE	n/a	n/a	n/a	n/a	n/a	n/a	n/a	blue
137.0299	1.0167	ITI	n/a	n/a	n/a	n/a	n/a	n/a	n/a	n/a
138.0466	0.5167	FIXCROSS	n/a	n/a	n/a	n/a	n/a	n/a	n/a	n/a
138.5633	0.5833	INK	49	Neutral	xxxxxxxx	xxxxxxxx	żółty	yellow	hit	n/a
139.1184	n/a	RESPONSE	n/a	n/a	n/a	n/a	n/a	n/a	n/a	yellow
139.1466	1.0167	ITI	n/a	n/a	n/a	n/a	n/a	n/a	n/a	n/a
140.1633	0.5167	FIXCROSS	n/a	n/a	n/a	n/a	n/a	n/a	n/a	n/a
140.68	0.6167	INK	50	Neutral	xxxxxxxx	xxxxxxxx	niebieski	blue	hit	n/a
141.2778	n/a	RESPONSE	n/a	n/a	n/a	n/a	n/a	n/a	n/a	blue
141.2966	1.0167	ITI	n/a	n/a	n/a	n/a	n/a	n/a	n/a	n/a
142.3133	0.5167	FIXCROSS	n/a	n/a	n/a	n/a	n/a	n/a	n/a	n/a
142.83	0.5667	INK	51	Neutral	xxxxxxxxx	xxxxxxxxx	żółty	yellow	hit	n/a
143.3733	n/a	RESPONSE	n/a	n/a	n/a	n/a	n/a	n/a	n/a	yellow
143.3967	1.0167	ITI	n/a	n/a	n/a	n/a	n/a	n/a	n/a	n/a
144.4133	0.5167	FIXCROSS	n/a	n/a	n/a	n/a	n/a	n/a	n/a	n/a
144.93	0.55	INK	52	Neutral	xxxxxxxx	xxxxxxxx	zielony	green	hit	n/a
145.4528	n/a	RESPONSE	n/a	n/a	n/a	n/a	n/a	n/a	n/a	green
145.48	1.0167	ITI	n/a	n/a	n/a	n/a	n/a	n/a	n/a	n/a
146.4967	0.5167	FIXCROSS	n/a	n/a	n/a	n/a	n/a	n/a	n/a	n/a
147.0134	0.4833	INK	53	Incongruent	żółty	yellow	niebieski	blue	hit	n/a
147.4683	n/a	RESPONSE	n/a	n/a	n/a	n/a	n/a	n/a	n/a	blue
147.4967	1.0167	ITI	n/a	n/a	n/a	n/a	n/a	n/a	n/a	n/a
148.5134	0.5167	FIXCROSS	n/a	n/a	n/a	n/a	n/a	n/a	n/a	n/a
149.03	0.55	INK	54	Neutral	xxxxxxxxx	xxxxxxxxx	zielony	green	hit	n/a
149.5478	n/a	RESPONSE	n/a	n/a	n/a	n/a	n/a	n/a	n/a	green
149.5801	1.0167	ITI	n/a	n/a	n/a	n/a	n/a	n/a	n/a	n/a
150.5967	0.5167	FIXCROSS	n/a	n/a	n/a	n/a	n/a	n/a	n/a	n/a
151.1134	0.5167	INK	55	Neutral	xxxxxxxxx	xxxxxxxxx	zielony	green	hit	n/a
151.6113	n/a	RESPONSE	n/a	n/a	n/a	n/a	n/a	n/a	n/a	green
151.6301	1.0167	ITI	n/a	n/a	n/a	n/a	n/a	n/a	n/a	n/a
152.6468	0.5167	FIXCROSS	n/a	n/a	n/a	n/a	n/a	n/a	n/a	n/a
153.1634	0.6333	INK	56	Incongruent	czerwony	red	żółty	yellow	hit	n/a
153.7708	n/a	RESPONSE	n/a	n/a	n/a	n/a	n/a	n/a	n/a	yellow
153.7968	1.0167	ITI	n/a	n/a	n/a	n/a	n/a	n/a	n/a	n/a
154.8135	0.5167	FIXCROSS	n/a	n/a	n/a	n/a	n/a	n/a	n/a	n/a
155.3301	0.5667	INK	57	Neutral	xxxxxxx	xxxxxxx	niebieski	blue	hit	n/a
155.8663	n/a	RESPONSE	n/a	n/a	n/a	n/a	n/a	n/a	n/a	blue
155.8968	1.0167	ITI	n/a	n/a	n/a	n/a	n/a	n/a	n/a	n/a
156.9135	0.5167	FIXCROSS	n/a	n/a	n/a	n/a	n/a	n/a	n/a	n/a
157.4301	0.3833	INK	58	Incongruent	zielony	green	czerwony	red	hit	n/a
157.7858	n/a	RESPONSE	n/a	n/a	n/a	n/a	n/a	n/a	n/a	red
157.8135	1.0167	ITI	n/a	n/a	n/a	n/a	n/a	n/a	n/a	n/a
158.8302	0.5167	FIXCROSS	n/a	n/a	n/a	n/a	n/a	n/a	n/a	n/a
159.3468	0.7667	INK	59	Incongruent	zielony	green	niebieski	blue	hit	n/a
160.0893	n/a	RESPONSE	n/a	n/a	n/a	n/a	n/a	n/a	n/a	blue
160.1135	1.0167	ITI	n/a	n/a	n/a	n/a	n/a	n/a	n/a	n/a
161.1302	0.5167	FIXCROSS	n/a	n/a	n/a	n/a	n/a	n/a	n/a	n/a
161.6469	0.5167	INK	60	Incongruent	żółty	yellow	czerwony	red	hit	n/a
162.1368	n/a	RESPONSE	n/a	n/a	n/a	n/a	n/a	n/a	n/a	red
162.1635	1.0167	ITI	n/a	n/a	n/a	n/a	n/a	n/a	n/a	n/a
163.1802	0.5167	FIXCROSS	n/a	n/a	n/a	n/a	n/a	n/a	n/a	n/a
163.6969	0.4833	INK	61	Neutral	xxxxx	xxxxx	czerwony	red	hit	n/a
164.1523	n/a	RESPONSE	n/a	n/a	n/a	n/a	n/a	n/a	n/a	red
164.1802	1.0167	ITI	n/a	n/a	n/a	n/a	n/a	n/a	n/a	n/a
165.1969	0.5167	FIXCROSS	n/a	n/a	n/a	n/a	n/a	n/a	n/a	n/a
165.7136	0.6833	INK	62	Incongruent	niebieski	blue	zielony	green	hit	n/a
166.3758	n/a	RESPONSE	n/a	n/a	n/a	n/a	n/a	n/a	n/a	green
166.3969	1.0167	ITI	n/a	n/a	n/a	n/a	n/a	n/a	n/a	n/a
167.4136	0.5167	FIXCROSS	n/a	n/a	n/a	n/a	n/a	n/a	n/a	n/a
167.9303	0.4667	INK	63	Neutral	xxxxx	xxxxx	zielony	green	hit	n/a
168.3753	n/a	RESPONSE	n/a	n/a	n/a	n/a	n/a	n/a	n/a	green
168.3969	1.0167	ITI	n/a	n/a	n/a	n/a	n/a	n/a	n/a	n/a
169.4136	0.5167	FIXCROSS	n/a	n/a	n/a	n/a	n/a	n/a	n/a	n/a
169.9303	0.5833	INK	64	Incongruent	żółty	yellow	niebieski	blue	hit	n/a
170.4868	n/a	RESPONSE	n/a	n/a	n/a	n/a	n/a	n/a	n/a	blue
170.5136	1.0167	ITI	n/a	n/a	n/a	n/a	n/a	n/a	n/a	n/a
171.5303	0.5167	FIXCROSS	n/a	n/a	n/a	n/a	n/a	n/a	n/a	n/a
172.047	0.5833	INK	65	Neutral	xxxxx	xxxxx	czerwony	red	hit	n/a
172.5983	n/a	RESPONSE	n/a	n/a	n/a	n/a	n/a	n/a	n/a	red
172.6303	1.0167	ITI	n/a	n/a	n/a	n/a	n/a	n/a	n/a	n/a
173.647	0.5167	FIXCROSS	n/a	n/a	n/a	n/a	n/a	n/a	n/a	n/a
174.1637	0.4833	INK	66	Incongruent	żółty	yellow	czerwony	red	hit	n/a
174.6298	n/a	RESPONSE	n/a	n/a	n/a	n/a	n/a	n/a	n/a	red
174.647	1.0167	ITI	n/a	n/a	n/a	n/a	n/a	n/a	n/a	n/a
175.6637	0.5167	FIXCROSS	n/a	n/a	n/a	n/a	n/a	n/a	n/a	n/a
176.1804	0.3833	INK	67	Incongruent	czerwony	red	żółty	yellow	hit	n/a
176.5333	n/a	RESPONSE	n/a	n/a	n/a	n/a	n/a	n/a	n/a	yellow
176.5637	1.0167	ITI	n/a	n/a	n/a	n/a	n/a	n/a	n/a	n/a
177.5804	0.5167	FIXCROSS	n/a	n/a	n/a	n/a	n/a	n/a	n/a	n/a
178.097	0.4	INK	68	Incongruent	zielony	green	żółty	yellow	hit	n/a
178.4688	n/a	RESPONSE	n/a	n/a	n/a	n/a	n/a	n/a	n/a	yellow
178.4971	1.0167	ITI	n/a	n/a	n/a	n/a	n/a	n/a	n/a	n/a
179.5137	0.5167	FIXCROSS	n/a	n/a	n/a	n/a	n/a	n/a	n/a	n/a
180.0304	0.55	INK	69	Incongruent	niebieski	blue	czerwony	red	hit	n/a
180.5483	n/a	RESPONSE	n/a	n/a	n/a	n/a	n/a	n/a	n/a	red
180.5804	1.0167	ITI	n/a	n/a	n/a	n/a	n/a	n/a	n/a	n/a
181.5971	0.5167	FIXCROSS	n/a	n/a	n/a	n/a	n/a	n/a	n/a	n/a
182.1138	0.4667	INK	70	Incongruent	żółty	yellow	czerwony	red	hit	n/a
182.5479	n/a	RESPONSE	n/a	n/a	n/a	n/a	n/a	n/a	n/a	red
182.5804	1.0167	ITI	n/a	n/a	n/a	n/a	n/a	n/a	n/a	n/a
183.5971	0.5167	FIXCROSS	n/a	n/a	n/a	n/a	n/a	n/a	n/a	n/a
184.1138	0.55	INK	71	Neutral	xxxxx	xxxxx	niebieski	blue	hit	n/a
184.6433	n/a	RESPONSE	n/a	n/a	n/a	n/a	n/a	n/a	n/a	blue
184.6638	1.0167	ITI	n/a	n/a	n/a	n/a	n/a	n/a	n/a	n/a
185.6805	0.5167	FIXCROSS	n/a	n/a	n/a	n/a	n/a	n/a	n/a	n/a
186.1971	0.5833	INK	72	Neutral	xxxxx	xxxxx	zielony	green	hit	n/a
186.7548	n/a	RESPONSE	n/a	n/a	n/a	n/a	n/a	n/a	n/a	green
186.7805	1.0833	ITI	n/a	n/a	n/a	n/a	n/a	n/a	n/a	n/a
193.0893	n/a	RESPONSE	n/a	n/a	n/a	n/a	n/a	n/a	n/a	n/a
193.1472	1.0167	ITI	n/a	n/a	n/a	n/a	n/a	n/a	n/a	n/a
194.1639	0.5167	FIXCROSS	n/a	n/a	n/a	n/a	n/a	n/a	n/a	n/a
194.6806	0.8167	T_COLOR_NAME	1	Incongruent	żółty	yellow	czerwony	red	hit	n/a
195.4727	n/a	RESPONSE	n/a	n/a	n/a	n/a	n/a	n/a	n/a	yellow
195.4972	0.5167	FEEDBACK	n/a	n/a	n/a	n/a	n/a	n/a	n/a	n/a
196.0139	1.0167	ITI	n/a	n/a	n/a	n/a	n/a	n/a	n/a	n/a
197.0306	0.5167	FIXCROSS	n/a	n/a	n/a	n/a	n/a	n/a	n/a	n/a
197.5473	2.9834	T_COLOR_NAME	2	Neutral	niebieski	blue	Neutral	Neutral	hit	n/a
200.4955	n/a	RESPONSE	n/a	n/a	n/a	n/a	n/a	n/a	n/a	blue
200.5306	0.5167	FEEDBACK	n/a	n/a	n/a	n/a	n/a	n/a	n/a	n/a
201.0473	1.0167	ITI	n/a	n/a	n/a	n/a	n/a	n/a	n/a	n/a
202.064	0.5167	FIXCROSS	n/a	n/a	n/a	n/a	n/a	n/a	n/a	n/a
202.5807	0.6667	T_COLOR_NAME	3	Neutral	czerwony	red	Neutral	Neutral	hit	n/a
203.2149	n/a	RESPONSE	n/a	n/a	n/a	n/a	n/a	n/a	n/a	red
203.2473	0.5167	FEEDBACK	n/a	n/a	n/a	n/a	n/a	n/a	n/a	n/a
203.764	1.0167	ITI	n/a	n/a	n/a	n/a	n/a	n/a	n/a	n/a
204.7807	0.5167	FIXCROSS	n/a	n/a	n/a	n/a	n/a	n/a	n/a	n/a
205.2974	0.75	T_COLOR_NAME	4	Neutral	niebieski	blue	Neutral	Neutral	hit	n/a
206.0142	n/a	RESPONSE	n/a	n/a	n/a	n/a	n/a	n/a	n/a	blue
206.0474	0.5167	FEEDBACK	n/a	n/a	n/a	n/a	n/a	n/a	n/a	n/a
206.564	1.0167	ITI	n/a	n/a	n/a	n/a	n/a	n/a	n/a	n/a
207.5807	0.5167	FIXCROSS	n/a	n/a	n/a	n/a	n/a	n/a	n/a	n/a
208.0974	0.8833	T_COLOR_NAME	5	Incongruent	niebieski	blue	zielony	green	hit	n/a
208.9575	n/a	RESPONSE	n/a	n/a	n/a	n/a	n/a	n/a	n/a	blue
208.9807	0.5167	FEEDBACK	n/a	n/a	n/a	n/a	n/a	n/a	n/a	n/a
209.4974	1.0167	ITI	n/a	n/a	n/a	n/a	n/a	n/a	n/a	n/a
210.5141	0.5167	FIXCROSS	n/a	n/a	n/a	n/a	n/a	n/a	n/a	n/a
211.0308	0.7	T_COLOR_NAME	6	Neutral	zielony	green	Neutral	Neutral	hit	n/a
211.7088	n/a	RESPONSE	n/a	n/a	n/a	n/a	n/a	n/a	n/a	green
211.7308	0.5167	FEEDBACK	n/a	n/a	n/a	n/a	n/a	n/a	n/a	n/a
212.2474	1.0167	ITI	n/a	n/a	n/a	n/a	n/a	n/a	n/a	n/a
213.2641	0.5167	FIXCROSS	n/a	n/a	n/a	n/a	n/a	n/a	n/a	n/a
213.7808	0.8167	T_COLOR_NAME	7	Incongruent	zielony	green	niebieski	blue	hit	n/a
214.5721	n/a	RESPONSE	n/a	n/a	n/a	n/a	n/a	n/a	n/a	green
214.5975	0.5167	FEEDBACK	n/a	n/a	n/a	n/a	n/a	n/a	n/a	n/a
215.1141	1.0167	ITI	n/a	n/a	n/a	n/a	n/a	n/a	n/a	n/a
216.1308	0.5167	FIXCROSS	n/a	n/a	n/a	n/a	n/a	n/a	n/a	n/a
216.6475	0.6	T_COLOR_NAME	8	Incongruent	niebieski	blue	żółty	yellow	incorrect	n/a
217.2114	n/a	RESPONSE	n/a	n/a	n/a	n/a	n/a	n/a	n/a	yellow
217.2475	0.5167	FEEDBACK	n/a	n/a	n/a	n/a	n/a	n/a	n/a	n/a
217.7642	1.0167	ITI	n/a	n/a	n/a	n/a	n/a	n/a	n/a	n/a
218.7808	0.5167	FIXCROSS	n/a	n/a	n/a	n/a	n/a	n/a	n/a	n/a
219.2975	0.5667	T_COLOR_NAME	9	Neutral	czerwony	red	Neutral	Neutral	hit	n/a
219.8348	n/a	RESPONSE	n/a	n/a	n/a	n/a	n/a	n/a	n/a	red
219.8642	0.5167	FEEDBACK	n/a	n/a	n/a	n/a	n/a	n/a	n/a	n/a
220.3809	1.0167	ITI	n/a	n/a	n/a	n/a	n/a	n/a	n/a	n/a
221.3975	0.5167	FIXCROSS	n/a	n/a	n/a	n/a	n/a	n/a	n/a	n/a
221.9142	0.8333	T_COLOR_NAME	10	Neutral	zielony	green	Neutral	Neutral	hit	n/a
222.7141	n/a	RESPONSE	n/a	n/a	n/a	n/a	n/a	n/a	n/a	green
222.7476	0.5167	FEEDBACK	n/a	n/a	n/a	n/a	n/a	n/a	n/a	n/a
223.2642	1.0167	ITI	n/a	n/a	n/a	n/a	n/a	n/a	n/a	n/a
224.2809	0.5167	FIXCROSS	n/a	n/a	n/a	n/a	n/a	n/a	n/a	n/a
224.7976	0.8167	T_COLOR_NAME	11	Incongruent	żółty	yellow	zielony	green	hit	n/a
225.5934	n/a	RESPONSE	n/a	n/a	n/a	n/a	n/a	n/a	n/a	yellow
225.6143	0.5167	FEEDBACK	n/a	n/a	n/a	n/a	n/a	n/a	n/a	n/a
226.1309	1.0167	ITI	n/a	n/a	n/a	n/a	n/a	n/a	n/a	n/a
227.1476	0.5167	FIXCROSS	n/a	n/a	n/a	n/a	n/a	n/a	n/a	n/a
227.6643	1.0167	T_COLOR_NAME	12	Incongruent	zielony	green	czerwony	red	hit	n/a
228.6487	n/a	RESPONSE	n/a	n/a	n/a	n/a	n/a	n/a	n/a	green
228.681	0.5167	FEEDBACK	n/a	n/a	n/a	n/a	n/a	n/a	n/a	n/a
229.1976	1.0333	ITI	n/a	n/a	n/a	n/a	n/a	n/a	n/a	n/a
231.0321	n/a	RESPONSE	n/a	n/a	n/a	n/a	n/a	n/a	n/a	n/a
231.0976	1.0167	ITI	n/a	n/a	n/a	n/a	n/a	n/a	n/a	n/a
232.1143	0.5167	FIXCROSS	n/a	n/a	n/a	n/a	n/a	n/a	n/a	n/a
232.631	0.8333	COLOR_NAME	1	Incongruent	czerwony	red	zielony	green	hit	n/a
233.4315	n/a	RESPONSE	n/a	n/a	n/a	n/a	n/a	n/a	n/a	red
233.4643	1.0167	ITI	n/a	n/a	n/a	n/a	n/a	n/a	n/a	n/a
234.481	0.5167	FIXCROSS	n/a	n/a	n/a	n/a	n/a	n/a	n/a	n/a
234.9977	0.5333	COLOR_NAME	2	Incongruent	żółty	yellow	zielony	green	hit	n/a
235.511	n/a	RESPONSE	n/a	n/a	n/a	n/a	n/a	n/a	n/a	yellow
235.531	1.0167	ITI	n/a	n/a	n/a	n/a	n/a	n/a	n/a	n/a
236.5477	0.5167	FIXCROSS	n/a	n/a	n/a	n/a	n/a	n/a	n/a	n/a
237.0644	0.5833	COLOR_NAME	3	Neutral	żółty	yellow	Neutral	Neutral	hit	n/a
237.6225	n/a	RESPONSE	n/a	n/a	n/a	n/a	n/a	n/a	n/a	yellow
237.6477	1.0167	ITI	n/a	n/a	n/a	n/a	n/a	n/a	n/a	n/a
238.6644	0.5167	FIXCROSS	n/a	n/a	n/a	n/a	n/a	n/a	n/a	n/a
239.1811	0.7	COLOR_NAME	4	Incongruent	niebieski	blue	czerwony	red	hit	n/a
239.862	n/a	RESPONSE	n/a	n/a	n/a	n/a	n/a	n/a	n/a	blue
239.8811	1.0167	ITI	n/a	n/a	n/a	n/a	n/a	n/a	n/a	n/a
240.8978	0.5167	FIXCROSS	n/a	n/a	n/a	n/a	n/a	n/a	n/a	n/a
241.4144	0.55	COLOR_NAME	5	Neutral	żółty	yellow	Neutral	Neutral	hit	n/a
241.9414	n/a	RESPONSE	n/a	n/a	n/a	n/a	n/a	n/a	n/a	yellow
241.9644	1.0167	ITI	n/a	n/a	n/a	n/a	n/a	n/a	n/a	n/a
242.9811	0.5167	FIXCROSS	n/a	n/a	n/a	n/a	n/a	n/a	n/a	n/a
243.4978	0.4167	COLOR_NAME	6	Neutral	żółty	yellow	Neutral	Neutral	hit	n/a
243.893	n/a	RESPONSE	n/a	n/a	n/a	n/a	n/a	n/a	n/a	yellow
243.9145	1.0167	ITI	n/a	n/a	n/a	n/a	n/a	n/a	n/a	n/a
244.9311	0.5167	FIXCROSS	n/a	n/a	n/a	n/a	n/a	n/a	n/a	n/a
245.4478	0.5167	COLOR_NAME	7	Incongruent	czerwony	red	niebieski	blue	hit	n/a
245.9405	n/a	RESPONSE	n/a	n/a	n/a	n/a	n/a	n/a	n/a	red
245.9645	1.0167	ITI	n/a	n/a	n/a	n/a	n/a	n/a	n/a	n/a
246.9812	0.5167	FIXCROSS	n/a	n/a	n/a	n/a	n/a	n/a	n/a	n/a
247.4978	0.6667	COLOR_NAME	8	Neutral	żółty	yellow	Neutral	Neutral	hit	n/a
248.132	n/a	RESPONSE	n/a	n/a	n/a	n/a	n/a	n/a	n/a	yellow
248.1645	1.0167	ITI	n/a	n/a	n/a	n/a	n/a	n/a	n/a	n/a
249.1812	0.5167	FIXCROSS	n/a	n/a	n/a	n/a	n/a	n/a	n/a	n/a
249.6979	0.6	COLOR_NAME	9	Neutral	zielony	green	Neutral	Neutral	hit	n/a
250.2755	n/a	RESPONSE	n/a	n/a	n/a	n/a	n/a	n/a	n/a	green
250.2979	1.0167	ITI	n/a	n/a	n/a	n/a	n/a	n/a	n/a	n/a
251.3146	0.5167	FIXCROSS	n/a	n/a	n/a	n/a	n/a	n/a	n/a	n/a
251.8312	0.7167	COLOR_NAME	10	Incongruent	żółty	yellow	zielony	green	hit	n/a
252.5149	n/a	RESPONSE	n/a	n/a	n/a	n/a	n/a	n/a	n/a	yellow
252.5479	1.0167	ITI	n/a	n/a	n/a	n/a	n/a	n/a	n/a	n/a
253.5646	0.5167	FIXCROSS	n/a	n/a	n/a	n/a	n/a	n/a	n/a	n/a
254.0812	0.55	COLOR_NAME	11	Neutral	żółty	yellow	Neutral	Neutral	hit	n/a
254.6104	n/a	RESPONSE	n/a	n/a	n/a	n/a	n/a	n/a	n/a	yellow
254.6313	1.0167	ITI	n/a	n/a	n/a	n/a	n/a	n/a	n/a	n/a
255.6479	0.5167	FIXCROSS	n/a	n/a	n/a	n/a	n/a	n/a	n/a	n/a
256.1646	0.8	COLOR_NAME	12	Incongruent	zielony	green	czerwony	red	hit	n/a
256.9458	n/a	RESPONSE	n/a	n/a	n/a	n/a	n/a	n/a	n/a	green
256.9646	1.0167	ITI	n/a	n/a	n/a	n/a	n/a	n/a	n/a	n/a
257.9813	0.5167	FIXCROSS	n/a	n/a	n/a	n/a	n/a	n/a	n/a	n/a
258.498	0.5833	COLOR_NAME	13	Neutral	niebieski	blue	Neutral	Neutral	hit	n/a
259.0573	n/a	RESPONSE	n/a	n/a	n/a	n/a	n/a	n/a	n/a	blue
259.0813	1.0167	ITI	n/a	n/a	n/a	n/a	n/a	n/a	n/a	n/a
260.098	0.5167	FIXCROSS	n/a	n/a	n/a	n/a	n/a	n/a	n/a	n/a
260.6147	0.5	COLOR_NAME	14	Neutral	żółty	yellow	Neutral	Neutral	hit	n/a
261.0888	n/a	RESPONSE	n/a	n/a	n/a	n/a	n/a	n/a	n/a	yellow
261.1147	1.0167	ITI	n/a	n/a	n/a	n/a	n/a	n/a	n/a	n/a
262.1313	0.5167	FIXCROSS	n/a	n/a	n/a	n/a	n/a	n/a	n/a	n/a
262.648	0.5667	COLOR_NAME	15	Neutral	niebieski	blue	Neutral	Neutral	hit	n/a
263.1843	n/a	RESPONSE	n/a	n/a	n/a	n/a	n/a	n/a	n/a	blue
263.2147	1.0167	ITI	n/a	n/a	n/a	n/a	n/a	n/a	n/a	n/a
264.2314	0.5167	FIXCROSS	n/a	n/a	n/a	n/a	n/a	n/a	n/a	n/a
264.748	0.5667	COLOR_NAME	16	Incongruent	żółty	yellow	niebieski	blue	hit	n/a
265.2958	n/a	RESPONSE	n/a	n/a	n/a	n/a	n/a	n/a	n/a	yellow
265.3147	1.0167	ITI	n/a	n/a	n/a	n/a	n/a	n/a	n/a	n/a
266.3314	0.5167	FIXCROSS	n/a	n/a	n/a	n/a	n/a	n/a	n/a	n/a
266.8481	0.6834	COLOR_NAME	17	Incongruent	niebieski	blue	żółty	yellow	hit	n/a
267.5033	n/a	RESPONSE	n/a	n/a	n/a	n/a	n/a	n/a	n/a	blue
267.5314	1.0167	ITI	n/a	n/a	n/a	n/a	n/a	n/a	n/a	n/a
268.5481	0.5167	FIXCROSS	n/a	n/a	n/a	n/a	n/a	n/a	n/a	n/a
269.0647	0.6334	COLOR_NAME	18	Incongruent	żółty	yellow	zielony	green	hit	n/a
269.6787	n/a	RESPONSE	n/a	n/a	n/a	n/a	n/a	n/a	n/a	yellow
269.6981	1.0167	ITI	n/a	n/a	n/a	n/a	n/a	n/a	n/a	n/a
270.7148	0.5167	FIXCROSS	n/a	n/a	n/a	n/a	n/a	n/a	n/a	n/a
271.2314	0.8	COLOR_NAME	19	Incongruent	niebieski	blue	zielony	green	hit	n/a
271.9982	n/a	RESPONSE	n/a	n/a	n/a	n/a	n/a	n/a	n/a	blue
272.0315	1.0167	ITI	n/a	n/a	n/a	n/a	n/a	n/a	n/a	n/a
273.0481	0.5167	FIXCROSS	n/a	n/a	n/a	n/a	n/a	n/a	n/a	n/a
273.5648	0.7	COLOR_NAME	20	Incongruent	czerwony	red	niebieski	blue	hit	n/a
274.2377	n/a	RESPONSE	n/a	n/a	n/a	n/a	n/a	n/a	n/a	red
274.2648	1.0167	ITI	n/a	n/a	n/a	n/a	n/a	n/a	n/a	n/a
275.2815	0.5167	FIXCROSS	n/a	n/a	n/a	n/a	n/a	n/a	n/a	n/a
275.7982	0.6167	COLOR_NAME	21	Neutral	żółty	yellow	Neutral	Neutral	hit	n/a
276.3811	n/a	RESPONSE	n/a	n/a	n/a	n/a	n/a	n/a	n/a	yellow
276.4148	1.0167	ITI	n/a	n/a	n/a	n/a	n/a	n/a	n/a	n/a
277.4315	0.5167	FIXCROSS	n/a	n/a	n/a	n/a	n/a	n/a	n/a	n/a
277.9482	0.6833	COLOR_NAME	22	Neutral	zielony	green	Neutral	Neutral	hit	n/a
278.6046	n/a	RESPONSE	n/a	n/a	n/a	n/a	n/a	n/a	n/a	green
278.6315	1.0167	ITI	n/a	n/a	n/a	n/a	n/a	n/a	n/a	n/a
279.6482	0.5167	FIXCROSS	n/a	n/a	n/a	n/a	n/a	n/a	n/a	n/a
280.1649	0.6667	COLOR_NAME	23	Incongruent	niebieski	blue	czerwony	red	hit	n/a
280.812	n/a	RESPONSE	n/a	n/a	n/a	n/a	n/a	n/a	n/a	blue
280.8315	1.0167	ITI	n/a	n/a	n/a	n/a	n/a	n/a	n/a	n/a
281.8482	0.5167	FIXCROSS	n/a	n/a	n/a	n/a	n/a	n/a	n/a	n/a
282.3649	0.6333	COLOR_NAME	24	Neutral	czerwony	red	Neutral	Neutral	hit	n/a
282.9715	n/a	RESPONSE	n/a	n/a	n/a	n/a	n/a	n/a	n/a	red
282.9982	1.0167	ITI	n/a	n/a	n/a	n/a	n/a	n/a	n/a	n/a
284.0149	0.5167	FIXCROSS	n/a	n/a	n/a	n/a	n/a	n/a	n/a	n/a
284.5316	0.7167	COLOR_NAME	25	Neutral	zielony	green	Neutral	Neutral	hit	n/a
285.227	n/a	RESPONSE	n/a	n/a	n/a	n/a	n/a	n/a	n/a	green
285.2483	1.0167	ITI	n/a	n/a	n/a	n/a	n/a	n/a	n/a	n/a
286.265	0.5167	FIXCROSS	n/a	n/a	n/a	n/a	n/a	n/a	n/a	n/a
286.7816	0.5667	COLOR_NAME	26	Neutral	czerwony	red	Neutral	Neutral	hit	n/a
287.3225	n/a	RESPONSE	n/a	n/a	n/a	n/a	n/a	n/a	n/a	red
287.3483	1.0167	ITI	n/a	n/a	n/a	n/a	n/a	n/a	n/a	n/a
288.365	0.5167	FIXCROSS	n/a	n/a	n/a	n/a	n/a	n/a	n/a	n/a
288.8816	0.4667	COLOR_NAME	27	Neutral	żółty	yellow	Neutral	Neutral	hit	n/a
289.322	n/a	RESPONSE	n/a	n/a	n/a	n/a	n/a	n/a	n/a	yellow
289.3483	1.0167	ITI	n/a	n/a	n/a	n/a	n/a	n/a	n/a	n/a
290.365	0.5167	FIXCROSS	n/a	n/a	n/a	n/a	n/a	n/a	n/a	n/a
290.8817	0.8	COLOR_NAME	28	Incongruent	zielony	green	niebieski	blue	hit	n/a
291.6574	n/a	RESPONSE	n/a	n/a	n/a	n/a	n/a	n/a	n/a	green
291.6817	1.0167	ITI	n/a	n/a	n/a	n/a	n/a	n/a	n/a	n/a
292.6984	0.5167	FIXCROSS	n/a	n/a	n/a	n/a	n/a	n/a	n/a	n/a
293.215	0.5834	COLOR_NAME	29	Neutral	niebieski	blue	Neutral	Neutral	hit	n/a
293.7689	n/a	RESPONSE	n/a	n/a	n/a	n/a	n/a	n/a	n/a	blue
293.7984	1.0167	ITI	n/a	n/a	n/a	n/a	n/a	n/a	n/a	n/a
294.815	0.5167	FIXCROSS	n/a	n/a	n/a	n/a	n/a	n/a	n/a	n/a
295.3317	0.5667	COLOR_NAME	30	Incongruent	zielony	green	niebieski	blue	hit	n/a
295.8804	n/a	RESPONSE	n/a	n/a	n/a	n/a	n/a	n/a	n/a	green
295.8984	1.0167	ITI	n/a	n/a	n/a	n/a	n/a	n/a	n/a	n/a
296.9151	0.5167	FIXCROSS	n/a	n/a	n/a	n/a	n/a	n/a	n/a	n/a
297.4317	0.6167	COLOR_NAME	31	Neutral	czerwony	red	Neutral	Neutral	hit	n/a
298.0239	n/a	RESPONSE	n/a	n/a	n/a	n/a	n/a	n/a	n/a	red
298.0484	1.0167	ITI	n/a	n/a	n/a	n/a	n/a	n/a	n/a	n/a
299.0651	0.5167	FIXCROSS	n/a	n/a	n/a	n/a	n/a	n/a	n/a	n/a
299.5818	0.5833	COLOR_NAME	32	Neutral	czerwony	red	Neutral	Neutral	hit	n/a
300.1354	n/a	RESPONSE	n/a	n/a	n/a	n/a	n/a	n/a	n/a	red
300.1651	1.0167	ITI	n/a	n/a	n/a	n/a	n/a	n/a	n/a	n/a
301.1818	0.5167	FIXCROSS	n/a	n/a	n/a	n/a	n/a	n/a	n/a	n/a
301.6985	0.6833	COLOR_NAME	33	Incongruent	czerwony	red	zielony	green	hit	n/a
302.3588	n/a	RESPONSE	n/a	n/a	n/a	n/a	n/a	n/a	n/a	red
302.3818	1.0167	ITI	n/a	n/a	n/a	n/a	n/a	n/a	n/a	n/a
303.3985	0.5167	FIXCROSS	n/a	n/a	n/a	n/a	n/a	n/a	n/a	n/a
303.9151	0.5833	COLOR_NAME	34	Neutral	czerwony	red	Neutral	Neutral	hit	n/a
304.4703	n/a	RESPONSE	n/a	n/a	n/a	n/a	n/a	n/a	n/a	red
304.4985	1.0167	ITI	n/a	n/a	n/a	n/a	n/a	n/a	n/a	n/a
305.5152	0.5167	FIXCROSS	n/a	n/a	n/a	n/a	n/a	n/a	n/a	n/a
306.0318	0.5167	COLOR_NAME	35	Incongruent	czerwony	red	żółty	yellow	hit	n/a
306.5178	n/a	RESPONSE	n/a	n/a	n/a	n/a	n/a	n/a	n/a	red
306.5485	1.0167	ITI	n/a	n/a	n/a	n/a	n/a	n/a	n/a	n/a
307.5652	0.5167	FIXCROSS	n/a	n/a	n/a	n/a	n/a	n/a	n/a	n/a
308.0819	0.85	COLOR_NAME	36	Incongruent	niebieski	blue	żółty	yellow	hit	n/a
308.9012	n/a	RESPONSE	n/a	n/a	n/a	n/a	n/a	n/a	n/a	blue
308.9319	1.0167	ITI	n/a	n/a	n/a	n/a	n/a	n/a	n/a	n/a
309.9485	0.5167	FIXCROSS	n/a	n/a	n/a	n/a	n/a	n/a	n/a	n/a
310.4652	0.55	COLOR_NAME	37	Neutral	zielony	green	Neutral	Neutral	hit	n/a
310.9967	n/a	RESPONSE	n/a	n/a	n/a	n/a	n/a	n/a	n/a	green
311.0152	1.0167	ITI	n/a	n/a	n/a	n/a	n/a	n/a	n/a	n/a
312.0319	0.5167	FIXCROSS	n/a	n/a	n/a	n/a	n/a	n/a	n/a	n/a
312.5486	0.5833	COLOR_NAME	38	Incongruent	czerwony	red	niebieski	blue	hit	n/a
313.1082	n/a	RESPONSE	n/a	n/a	n/a	n/a	n/a	n/a	n/a	red
313.1319	1.0167	ITI	n/a	n/a	n/a	n/a	n/a	n/a	n/a	n/a
314.1486	0.5167	FIXCROSS	n/a	n/a	n/a	n/a	n/a	n/a	n/a	n/a
314.6653	0.8667	COLOR_NAME	39	Incongruent	zielony	green	żółty	yellow	hit	n/a
315.5077	n/a	RESPONSE	n/a	n/a	n/a	n/a	n/a	n/a	n/a	green
315.5319	1.0167	ITI	n/a	n/a	n/a	n/a	n/a	n/a	n/a	n/a
316.5486	0.5167	FIXCROSS	n/a	n/a	n/a	n/a	n/a	n/a	n/a	n/a
317.0653	0.6667	COLOR_NAME	40	Neutral	niebieski	blue	Neutral	Neutral	hit	n/a
317.6991	n/a	RESPONSE	n/a	n/a	n/a	n/a	n/a	n/a	n/a	blue
317.732	1.0167	ITI	n/a	n/a	n/a	n/a	n/a	n/a	n/a	n/a
318.7486	0.5167	FIXCROSS	n/a	n/a	n/a	n/a	n/a	n/a	n/a	n/a
319.2653	0.7	COLOR_NAME	41	Neutral	czerwony	red	Neutral	Neutral	hit	n/a
319.9386	n/a	RESPONSE	n/a	n/a	n/a	n/a	n/a	n/a	n/a	red
319.9653	1.0167	ITI	n/a	n/a	n/a	n/a	n/a	n/a	n/a	n/a
320.982	0.5167	FIXCROSS	n/a	n/a	n/a	n/a	n/a	n/a	n/a	n/a
321.4987	0.6167	COLOR_NAME	42	Neutral	zielony	green	Neutral	Neutral	hit	n/a
322.0821	n/a	RESPONSE	n/a	n/a	n/a	n/a	n/a	n/a	n/a	green
322.1153	1.0167	ITI	n/a	n/a	n/a	n/a	n/a	n/a	n/a	n/a
323.132	0.5167	FIXCROSS	n/a	n/a	n/a	n/a	n/a	n/a	n/a	n/a
323.6487	0.8167	COLOR_NAME	43	Incongruent	zielony	green	czerwony	red	hit	n/a
324.4335	n/a	RESPONSE	n/a	n/a	n/a	n/a	n/a	n/a	n/a	green
324.4654	1.0167	ITI	n/a	n/a	n/a	n/a	n/a	n/a	n/a	n/a
325.4821	0.5167	FIXCROSS	n/a	n/a	n/a	n/a	n/a	n/a	n/a	n/a
325.9987	0.8667	COLOR_NAME	44	Incongruent	zielony	green	żółty	yellow	hit	n/a
326.8329	n/a	RESPONSE	n/a	n/a	n/a	n/a	n/a	n/a	n/a	green
326.8654	1.0167	ITI	n/a	n/a	n/a	n/a	n/a	n/a	n/a	n/a
327.8821	0.5167	FIXCROSS	n/a	n/a	n/a	n/a	n/a	n/a	n/a	n/a
328.3988	0.85	COLOR_NAME	45	Incongruent	czerwony	red	zielony	green	hit	n/a
329.2163	n/a	RESPONSE	n/a	n/a	n/a	n/a	n/a	n/a	n/a	red
329.2488	1.0167	ITI	n/a	n/a	n/a	n/a	n/a	n/a	n/a	n/a
330.2654	0.5167	FIXCROSS	n/a	n/a	n/a	n/a	n/a	n/a	n/a	n/a
330.7821	0.5667	COLOR_NAME	46	Incongruent	żółty	yellow	czerwony	red	hit	n/a
331.3278	n/a	RESPONSE	n/a	n/a	n/a	n/a	n/a	n/a	n/a	yellow
331.3488	1.0167	ITI	n/a	n/a	n/a	n/a	n/a	n/a	n/a	n/a
332.3655	0.5167	FIXCROSS	n/a	n/a	n/a	n/a	n/a	n/a	n/a	n/a
332.8821	0.5333	COLOR_NAME	47	Incongruent	żółty	yellow	niebieski	blue	hit	n/a
333.3913	n/a	RESPONSE	n/a	n/a	n/a	n/a	n/a	n/a	n/a	yellow
333.4155	1.0167	ITI	n/a	n/a	n/a	n/a	n/a	n/a	n/a	n/a
334.4322	0.5167	FIXCROSS	n/a	n/a	n/a	n/a	n/a	n/a	n/a	n/a
334.9488	0.7333	COLOR_NAME	48	Neutral	niebieski	blue	Neutral	Neutral	hit	n/a
335.6628	n/a	RESPONSE	n/a	n/a	n/a	n/a	n/a	n/a	n/a	blue
335.6822	1.0167	ITI	n/a	n/a	n/a	n/a	n/a	n/a	n/a	n/a
336.6988	0.5167	FIXCROSS	n/a	n/a	n/a	n/a	n/a	n/a	n/a	n/a
337.2155	0.6333	COLOR_NAME	49	Incongruent	niebieski	blue	zielony	green	hit	n/a
337.8221	n/a	RESPONSE	n/a	n/a	n/a	n/a	n/a	n/a	n/a	blue
337.8489	1.0167	ITI	n/a	n/a	n/a	n/a	n/a	n/a	n/a	n/a
338.8655	0.5167	FIXCROSS	n/a	n/a	n/a	n/a	n/a	n/a	n/a	n/a
339.3822	0.75	COLOR_NAME	50	Incongruent	zielony	green	niebieski	blue	hit	n/a
340.1097	n/a	RESPONSE	n/a	n/a	n/a	n/a	n/a	n/a	n/a	green
340.1322	1.0167	ITI	n/a	n/a	n/a	n/a	n/a	n/a	n/a	n/a
341.1489	0.5167	FIXCROSS	n/a	n/a	n/a	n/a	n/a	n/a	n/a	n/a
341.6656	0.6	COLOR_NAME	51	Neutral	żółty	yellow	Neutral	Neutral	hit	n/a
342.2372	n/a	RESPONSE	n/a	n/a	n/a	n/a	n/a	n/a	n/a	yellow
342.2656	1.0167	ITI	n/a	n/a	n/a	n/a	n/a	n/a	n/a	n/a
343.2823	0.5167	FIXCROSS	n/a	n/a	n/a	n/a	n/a	n/a	n/a	n/a
343.7989	0.65	COLOR_NAME	52	Incongruent	żółty	yellow	czerwony	red	hit	n/a
344.4287	n/a	RESPONSE	n/a	n/a	n/a	n/a	n/a	n/a	n/a	yellow
344.4489	1.0167	ITI	n/a	n/a	n/a	n/a	n/a	n/a	n/a	n/a
345.4656	0.5167	FIXCROSS	n/a	n/a	n/a	n/a	n/a	n/a	n/a	n/a
345.9823	0.5	COLOR_NAME	53	Incongruent	żółty	yellow	czerwony	red	hit	n/a
346.4602	n/a	RESPONSE	n/a	n/a	n/a	n/a	n/a	n/a	n/a	yellow
346.4823	1.0167	ITI	n/a	n/a	n/a	n/a	n/a	n/a	n/a	n/a
347.499	0.5167	FIXCROSS	n/a	n/a	n/a	n/a	n/a	n/a	n/a	n/a
348.0156	0.7333	COLOR_NAME	54	Incongruent	niebieski	blue	żółty	yellow	hit	n/a
348.7316	n/a	RESPONSE	n/a	n/a	n/a	n/a	n/a	n/a	n/a	blue
348.749	1.0167	ITI	n/a	n/a	n/a	n/a	n/a	n/a	n/a	n/a
349.7657	0.5167	FIXCROSS	n/a	n/a	n/a	n/a	n/a	n/a	n/a	n/a
350.2823	0.7833	COLOR_NAME	55	Incongruent	zielony	green	żółty	yellow	hit	n/a
351.0351	n/a	RESPONSE	n/a	n/a	n/a	n/a	n/a	n/a	n/a	green
351.0657	1.0167	ITI	n/a	n/a	n/a	n/a	n/a	n/a	n/a	n/a
352.0824	0.5167	FIXCROSS	n/a	n/a	n/a	n/a	n/a	n/a	n/a	n/a
352.599	0.7333	COLOR_NAME	56	Incongruent	niebieski	blue	zielony	green	hit	n/a
353.3065	n/a	RESPONSE	n/a	n/a	n/a	n/a	n/a	n/a	n/a	blue
353.3324	1.0167	ITI	n/a	n/a	n/a	n/a	n/a	n/a	n/a	n/a
354.349	0.5167	FIXCROSS	n/a	n/a	n/a	n/a	n/a	n/a	n/a	n/a
354.8657	0.4667	COLOR_NAME	57	Neutral	czerwony	red	Neutral	Neutral	hit	n/a
355.306	n/a	RESPONSE	n/a	n/a	n/a	n/a	n/a	n/a	n/a	red
355.3324	1.0167	ITI	n/a	n/a	n/a	n/a	n/a	n/a	n/a	n/a
356.3491	0.5167	FIXCROSS	n/a	n/a	n/a	n/a	n/a	n/a	n/a	n/a
356.8658	0.4667	COLOR_NAME	58	Neutral	czerwony	red	Neutral	Neutral	hit	n/a
357.3055	n/a	RESPONSE	n/a	n/a	n/a	n/a	n/a	n/a	n/a	red
357.3324	1.0167	ITI	n/a	n/a	n/a	n/a	n/a	n/a	n/a	n/a
358.3491	0.5167	FIXCROSS	n/a	n/a	n/a	n/a	n/a	n/a	n/a	n/a
358.8658	0.4833	COLOR_NAME	59	Incongruent	czerwony	red	żółty	yellow	hit	n/a
359.321	n/a	RESPONSE	n/a	n/a	n/a	n/a	n/a	n/a	n/a	red
359.3491	1.0167	ITI	n/a	n/a	n/a	n/a	n/a	n/a	n/a	n/a
360.3658	0.5167	FIXCROSS	n/a	n/a	n/a	n/a	n/a	n/a	n/a	n/a
360.8825	0.4943	COLOR_NAME	60	Neutral	niebieski	blue	Neutral	Neutral	incorrect	n/a
361.3525	n/a	RESPONSE	n/a	n/a	n/a	n/a	n/a	n/a	n/a	red
361.3767	1.0224	ITI	n/a	n/a	n/a	n/a	n/a	n/a	n/a	n/a
362.3991	0.5167	FIXCROSS	n/a	n/a	n/a	n/a	n/a	n/a	n/a	n/a
362.9158	0.8	COLOR_NAME	61	Incongruent	zielony	green	czerwony	red	hit	n/a
363.688	n/a	RESPONSE	n/a	n/a	n/a	n/a	n/a	n/a	n/a	green
363.7158	1.0167	ITI	n/a	n/a	n/a	n/a	n/a	n/a	n/a	n/a
364.7325	0.5167	FIXCROSS	n/a	n/a	n/a	n/a	n/a	n/a	n/a	n/a
365.2492	0.85	COLOR_NAME	62	Neutral	zielony	green	Neutral	Neutral	hit	n/a
366.0714	n/a	RESPONSE	n/a	n/a	n/a	n/a	n/a	n/a	n/a	green
366.0992	1.0167	ITI	n/a	n/a	n/a	n/a	n/a	n/a	n/a	n/a
367.1159	0.5167	FIXCROSS	n/a	n/a	n/a	n/a	n/a	n/a	n/a	n/a
367.6325	0.7667	COLOR_NAME	63	Incongruent	żółty	yellow	niebieski	blue	hit	n/a
368.3748	n/a	RESPONSE	n/a	n/a	n/a	n/a	n/a	n/a	n/a	yellow
368.3992	1.0167	ITI	n/a	n/a	n/a	n/a	n/a	n/a	n/a	n/a
369.4159	0.5167	FIXCROSS	n/a	n/a	n/a	n/a	n/a	n/a	n/a	n/a
369.9326	0.6333	COLOR_NAME	64	Neutral	niebieski	blue	Neutral	Neutral	hit	n/a
370.5343	n/a	RESPONSE	n/a	n/a	n/a	n/a	n/a	n/a	n/a	blue
370.5659	1.0167	ITI	n/a	n/a	n/a	n/a	n/a	n/a	n/a	n/a
371.5826	0.5167	FIXCROSS	n/a	n/a	n/a	n/a	n/a	n/a	n/a	n/a
372.0993	0.55	COLOR_NAME	65	Neutral	niebieski	blue	Neutral	Neutral	hit	n/a
372.6298	n/a	RESPONSE	n/a	n/a	n/a	n/a	n/a	n/a	n/a	blue
372.6493	1.0167	ITI	n/a	n/a	n/a	n/a	n/a	n/a	n/a	n/a
373.6659	0.5167	FIXCROSS	n/a	n/a	n/a	n/a	n/a	n/a	n/a	n/a
374.1826	0.8	COLOR_NAME	66	Neutral	zielony	green	Neutral	Neutral	hit	n/a
374.9652	n/a	RESPONSE	n/a	n/a	n/a	n/a	n/a	n/a	n/a	green
374.9826	1.0167	ITI	n/a	n/a	n/a	n/a	n/a	n/a	n/a	n/a
375.9993	0.5167	FIXCROSS	n/a	n/a	n/a	n/a	n/a	n/a	n/a	n/a
376.516	0.85	COLOR_NAME	67	Neutral	niebieski	blue	Neutral	Neutral	hit	n/a
377.3327	n/a	RESPONSE	n/a	n/a	n/a	n/a	n/a	n/a	n/a	blue
377.366	1.0167	ITI	n/a	n/a	n/a	n/a	n/a	n/a	n/a	n/a
378.3827	0.5167	FIXCROSS	n/a	n/a	n/a	n/a	n/a	n/a	n/a	n/a
378.8993	0.7834	COLOR_NAME	68	Neutral	zielony	green	Neutral	Neutral	hit	n/a
379.6521	n/a	RESPONSE	n/a	n/a	n/a	n/a	n/a	n/a	n/a	green
379.6827	1.0167	ITI	n/a	n/a	n/a	n/a	n/a	n/a	n/a	n/a
380.6993	0.5167	FIXCROSS	n/a	n/a	n/a	n/a	n/a	n/a	n/a	n/a
381.216	0.65	COLOR_NAME	69	Neutral	zielony	green	Neutral	Neutral	hit	n/a
381.8436	n/a	RESPONSE	n/a	n/a	n/a	n/a	n/a	n/a	n/a	green
381.866	1.0167	ITI	n/a	n/a	n/a	n/a	n/a	n/a	n/a	n/a
382.8827	0.5167	FIXCROSS	n/a	n/a	n/a	n/a	n/a	n/a	n/a	n/a
383.3994	0.7333	COLOR_NAME	70	Incongruent	niebieski	blue	czerwony	red	hit	n/a
384.1151	n/a	RESPONSE	n/a	n/a	n/a	n/a	n/a	n/a	n/a	blue
384.1327	1.0167	ITI	n/a	n/a	n/a	n/a	n/a	n/a	n/a	n/a
385.1494	0.5167	FIXCROSS	n/a	n/a	n/a	n/a	n/a	n/a	n/a	n/a
385.6661	0.7167	COLOR_NAME	71	Incongruent	czerwony	red	żółty	yellow	hit	n/a
386.3545	n/a	RESPONSE	n/a	n/a	n/a	n/a	n/a	n/a	n/a	red
386.3827	1.0167	ITI	n/a	n/a	n/a	n/a	n/a	n/a	n/a	n/a
387.3994	0.5167	FIXCROSS	n/a	n/a	n/a	n/a	n/a	n/a	n/a	n/a
387.9161	0.5333	COLOR_NAME	72	Neutral	czerwony	red	Neutral	Neutral	hit	n/a
388.418	n/a	RESPONSE	n/a	n/a	n/a	n/a	n/a	n/a	n/a	red
388.4494	1.0334	ITI	n/a	n/a	n/a	n/a	n/a	n/a	n/a	n/a
395.4403	n/a	RESPONSE	n/a	n/a	n/a	n/a	n/a	n/a	n/a	n/a
