onset	duration	trial_type	trial_number	stroop_condition	stim_text(PL)	stim_text(eng)	stim_color(PL)	stim_color(eng)	response_type	response_color
0.0	n/a	RESPONSE	n/a	n/a	n/a	n/a	n/a	n/a	n/a	n/a
0.0578	1.0333	ITI	n/a	n/a	n/a	n/a	n/a	n/a	n/a	n/a
1.0911	0.5167	FIXCROSS	n/a	n/a	n/a	n/a	n/a	n/a	n/a	n/a
1.6078	1.4667	T_INK	1	Neutral	xxxxxxx	xxxxxxx	niebieski	blue	hit	n/a
3.0392	n/a	RESPONSE	n/a	n/a	n/a	n/a	n/a	n/a	n/a	blue
3.0745	0.5167	FEEDBACK	n/a	n/a	n/a	n/a	n/a	n/a	n/a	n/a
3.5911	1.0167	ITI	n/a	n/a	n/a	n/a	n/a	n/a	n/a	n/a
4.6078	0.5167	FIXCROSS	n/a	n/a	n/a	n/a	n/a	n/a	n/a	n/a
5.1245	0.7833	T_INK	2	Neutral	xxxxxxx	xxxxxxx	czerwony	red	hit	n/a
5.8865	n/a	RESPONSE	n/a	n/a	n/a	n/a	n/a	n/a	n/a	red
5.9078	0.5167	FEEDBACK	n/a	n/a	n/a	n/a	n/a	n/a	n/a	n/a
6.4245	1.0167	ITI	n/a	n/a	n/a	n/a	n/a	n/a	n/a	n/a
7.4411	0.5167	FIXCROSS	n/a	n/a	n/a	n/a	n/a	n/a	n/a	n/a
7.9578	0.6	T_INK	3	Neutral	xxxxxxxxx	xxxxxxxxx	żółty	yellow	hit	n/a
8.5259	n/a	RESPONSE	n/a	n/a	n/a	n/a	n/a	n/a	n/a	yellow
8.5578	0.5167	FEEDBACK	n/a	n/a	n/a	n/a	n/a	n/a	n/a	n/a
9.0745	1.0104	ITI	n/a	n/a	n/a	n/a	n/a	n/a	n/a	n/a
10.0849	0.523	FIXCROSS	n/a	n/a	n/a	n/a	n/a	n/a	n/a	n/a
10.6078	0.6167	T_INK	4	Neutral	xxxxxxxx	xxxxxxxx	niebieski	blue	hit	n/a
11.1972	n/a	RESPONSE	n/a	n/a	n/a	n/a	n/a	n/a	n/a	blue
11.2245	0.5167	FEEDBACK	n/a	n/a	n/a	n/a	n/a	n/a	n/a	n/a
11.7412	1.0167	ITI	n/a	n/a	n/a	n/a	n/a	n/a	n/a	n/a
12.7579	0.5167	FIXCROSS	n/a	n/a	n/a	n/a	n/a	n/a	n/a	n/a
13.2745	0.9	T_INK	5	Neutral	xxxxxxxx	xxxxxxxx	żółty	yellow	hit	n/a
14.1405	n/a	RESPONSE	n/a	n/a	n/a	n/a	n/a	n/a	n/a	yellow
14.1745	0.5167	FEEDBACK	n/a	n/a	n/a	n/a	n/a	n/a	n/a	n/a
14.6912	1.0167	ITI	n/a	n/a	n/a	n/a	n/a	n/a	n/a	n/a
15.7079	0.5167	FIXCROSS	n/a	n/a	n/a	n/a	n/a	n/a	n/a	n/a
16.2245	0.6	T_INK	6	Neutral	xxxxxxx	xxxxxxx	żółty	yellow	hit	n/a
16.7958	n/a	RESPONSE	n/a	n/a	n/a	n/a	n/a	n/a	n/a	yellow
16.8246	0.5167	FEEDBACK	n/a	n/a	n/a	n/a	n/a	n/a	n/a	n/a
17.3412	1.0167	ITI	n/a	n/a	n/a	n/a	n/a	n/a	n/a	n/a
18.3579	0.5167	FIXCROSS	n/a	n/a	n/a	n/a	n/a	n/a	n/a	n/a
18.8746	1.0	T_INK	7	Neutral	xxxxxxxxx	xxxxxxxxx	czerwony	red	hit	n/a
19.851	n/a	RESPONSE	n/a	n/a	n/a	n/a	n/a	n/a	n/a	red
19.8746	0.5167	FEEDBACK	n/a	n/a	n/a	n/a	n/a	n/a	n/a	n/a
20.3912	1.0167	ITI	n/a	n/a	n/a	n/a	n/a	n/a	n/a	n/a
21.4079	0.5167	FIXCROSS	n/a	n/a	n/a	n/a	n/a	n/a	n/a	n/a
21.9246	1.5167	T_INK	8	Incongruent	zielony	green	niebieski	blue	hit	n/a
23.4181	n/a	RESPONSE	n/a	n/a	n/a	n/a	n/a	n/a	n/a	blue
23.4413	0.5167	FEEDBACK	n/a	n/a	n/a	n/a	n/a	n/a	n/a	n/a
23.9579	1.0167	ITI	n/a	n/a	n/a	n/a	n/a	n/a	n/a	n/a
24.9746	0.5167	FIXCROSS	n/a	n/a	n/a	n/a	n/a	n/a	n/a	n/a
25.4913	0.9833	T_INK	9	Incongruent	żółty	yellow	czerwony	red	hit	n/a
26.4414	n/a	RESPONSE	n/a	n/a	n/a	n/a	n/a	n/a	n/a	red
26.4746	0.5167	FEEDBACK	n/a	n/a	n/a	n/a	n/a	n/a	n/a	n/a
26.9913	1.0167	ITI	n/a	n/a	n/a	n/a	n/a	n/a	n/a	n/a
28.008	0.5167	FIXCROSS	n/a	n/a	n/a	n/a	n/a	n/a	n/a	n/a
28.5246	0.65	T_INK	10	Neutral	xxxxxxxx	xxxxxxxx	zielony	green	hit	n/a
29.1448	n/a	RESPONSE	n/a	n/a	n/a	n/a	n/a	n/a	n/a	green
29.1746	0.5167	FEEDBACK	n/a	n/a	n/a	n/a	n/a	n/a	n/a	n/a
29.6913	1.0167	ITI	n/a	n/a	n/a	n/a	n/a	n/a	n/a	n/a
30.708	0.5167	FIXCROSS	n/a	n/a	n/a	n/a	n/a	n/a	n/a	n/a
31.2247	1.05	T_INK	11	Incongruent	niebieski	blue	zielony	green	hit	n/a
32.248	n/a	RESPONSE	n/a	n/a	n/a	n/a	n/a	n/a	n/a	green
32.2747	0.5167	FEEDBACK	n/a	n/a	n/a	n/a	n/a	n/a	n/a	n/a
32.7913	1.0167	ITI	n/a	n/a	n/a	n/a	n/a	n/a	n/a	n/a
33.808	0.5167	FIXCROSS	n/a	n/a	n/a	n/a	n/a	n/a	n/a	n/a
34.3247	0.6333	T_INK	12	Neutral	xxxxx	xxxxx	czerwony	red	hit	n/a
34.9353	n/a	RESPONSE	n/a	n/a	n/a	n/a	n/a	n/a	n/a	red
34.958	0.5167	FEEDBACK	n/a	n/a	n/a	n/a	n/a	n/a	n/a	n/a
35.4747	1.0333	ITI	n/a	n/a	n/a	n/a	n/a	n/a	n/a	n/a
39.2062	n/a	RESPONSE	n/a	n/a	n/a	n/a	n/a	n/a	n/a	n/a
39.2581	1.0167	ITI	n/a	n/a	n/a	n/a	n/a	n/a	n/a	n/a
40.2747	0.5167	FIXCROSS	n/a	n/a	n/a	n/a	n/a	n/a	n/a	n/a
40.7914	0.7833	INK	1	Incongruent	czerwony	red	zielony	green	hit	n/a
41.5417	n/a	RESPONSE	n/a	n/a	n/a	n/a	n/a	n/a	n/a	green
41.5747	1.0167	ITI	n/a	n/a	n/a	n/a	n/a	n/a	n/a	n/a
42.5914	0.5167	FIXCROSS	n/a	n/a	n/a	n/a	n/a	n/a	n/a	n/a
43.1081	0.5833	INK	2	Incongruent	żółty	yellow	niebieski	blue	hit	n/a
43.6691	n/a	RESPONSE	n/a	n/a	n/a	n/a	n/a	n/a	n/a	blue
43.6914	1.0167	ITI	n/a	n/a	n/a	n/a	n/a	n/a	n/a	n/a
44.7081	0.5167	FIXCROSS	n/a	n/a	n/a	n/a	n/a	n/a	n/a	n/a
45.2248	0.6667	INK	3	Incongruent	niebieski	blue	czerwony	red	hit	n/a
45.8606	n/a	RESPONSE	n/a	n/a	n/a	n/a	n/a	n/a	n/a	red
45.8914	1.0167	ITI	n/a	n/a	n/a	n/a	n/a	n/a	n/a	n/a
46.9081	0.5167	FIXCROSS	n/a	n/a	n/a	n/a	n/a	n/a	n/a	n/a
47.4248	0.5167	INK	4	Incongruent	żółty	yellow	czerwony	red	hit	n/a
47.9081	n/a	RESPONSE	n/a	n/a	n/a	n/a	n/a	n/a	n/a	red
47.9414	1.0167	ITI	n/a	n/a	n/a	n/a	n/a	n/a	n/a	n/a
48.9581	0.5167	FIXCROSS	n/a	n/a	n/a	n/a	n/a	n/a	n/a	n/a
49.4748	0.7667	INK	5	Neutral	xxxxxxxxx	xxxxxxxxx	zielony	green	hit	n/a
50.2115	n/a	RESPONSE	n/a	n/a	n/a	n/a	n/a	n/a	n/a	green
50.2415	1.0167	ITI	n/a	n/a	n/a	n/a	n/a	n/a	n/a	n/a
51.2581	0.5167	FIXCROSS	n/a	n/a	n/a	n/a	n/a	n/a	n/a	n/a
51.7748	0.4833	INK	6	Neutral	xxxxxxxx	xxxxxxxx	zielony	green	hit	n/a
52.227	n/a	RESPONSE	n/a	n/a	n/a	n/a	n/a	n/a	n/a	green
52.2582	1.0167	ITI	n/a	n/a	n/a	n/a	n/a	n/a	n/a	n/a
53.2748	0.5167	FIXCROSS	n/a	n/a	n/a	n/a	n/a	n/a	n/a	n/a
53.7915	1.3167	INK	7	Neutral	xxxxx	xxxxx	czerwony	red	hit	n/a
55.0743	n/a	RESPONSE	n/a	n/a	n/a	n/a	n/a	n/a	n/a	red
55.1082	1.0167	ITI	n/a	n/a	n/a	n/a	n/a	n/a	n/a	n/a
56.1248	0.5167	FIXCROSS	n/a	n/a	n/a	n/a	n/a	n/a	n/a	n/a
56.6415	0.7667	INK	8	Incongruent	żółty	yellow	zielony	green	hit	n/a
57.3778	n/a	RESPONSE	n/a	n/a	n/a	n/a	n/a	n/a	n/a	green
57.4082	1.0167	ITI	n/a	n/a	n/a	n/a	n/a	n/a	n/a	n/a
58.4249	0.5167	FIXCROSS	n/a	n/a	n/a	n/a	n/a	n/a	n/a	n/a
58.9415	0.4333	INK	9	Incongruent	żółty	yellow	niebieski	blue	hit	n/a
59.3453	n/a	RESPONSE	n/a	n/a	n/a	n/a	n/a	n/a	n/a	blue
59.3749	1.0167	ITI	n/a	n/a	n/a	n/a	n/a	n/a	n/a	n/a
60.3915	0.5167	FIXCROSS	n/a	n/a	n/a	n/a	n/a	n/a	n/a	n/a
60.9082	0.7	INK	10	Neutral	xxxxxxxx	xxxxxxxx	żółty	yellow	hit	n/a
61.5847	n/a	RESPONSE	n/a	n/a	n/a	n/a	n/a	n/a	n/a	yellow
61.6082	1.0167	ITI	n/a	n/a	n/a	n/a	n/a	n/a	n/a	n/a
62.6249	0.5167	FIXCROSS	n/a	n/a	n/a	n/a	n/a	n/a	n/a	n/a
63.1416	0.55	INK	11	Neutral	xxxxxxxxx	xxxxxxxxx	czerwony	red	hit	n/a
63.6642	n/a	RESPONSE	n/a	n/a	n/a	n/a	n/a	n/a	n/a	red
63.6916	1.0167	ITI	n/a	n/a	n/a	n/a	n/a	n/a	n/a	n/a
64.7082	0.5167	FIXCROSS	n/a	n/a	n/a	n/a	n/a	n/a	n/a	n/a
65.2249	0.85	INK	12	Incongruent	czerwony	red	niebieski	blue	hit	n/a
66.0476	n/a	RESPONSE	n/a	n/a	n/a	n/a	n/a	n/a	n/a	blue
66.0749	1.0167	ITI	n/a	n/a	n/a	n/a	n/a	n/a	n/a	n/a
67.0916	0.5167	FIXCROSS	n/a	n/a	n/a	n/a	n/a	n/a	n/a	n/a
67.6083	0.5	INK	13	Incongruent	czerwony	red	niebieski	blue	hit	n/a
68.0791	n/a	RESPONSE	n/a	n/a	n/a	n/a	n/a	n/a	n/a	blue
68.1083	1.0167	ITI	n/a	n/a	n/a	n/a	n/a	n/a	n/a	n/a
69.1249	0.5167	FIXCROSS	n/a	n/a	n/a	n/a	n/a	n/a	n/a	n/a
69.6416	0.5833	INK	14	Incongruent	niebieski	blue	czerwony	red	hit	n/a
70.2066	n/a	RESPONSE	n/a	n/a	n/a	n/a	n/a	n/a	n/a	red
70.2249	1.0167	ITI	n/a	n/a	n/a	n/a	n/a	n/a	n/a	n/a
71.2416	0.5167	FIXCROSS	n/a	n/a	n/a	n/a	n/a	n/a	n/a	n/a
71.7583	0.95	INK	15	Neutral	xxxxxxx	xxxxxxx	niebieski	blue	hit	n/a
72.686	n/a	RESPONSE	n/a	n/a	n/a	n/a	n/a	n/a	n/a	blue
72.7083	1.0167	ITI	n/a	n/a	n/a	n/a	n/a	n/a	n/a	n/a
73.725	0.5167	FIXCROSS	n/a	n/a	n/a	n/a	n/a	n/a	n/a	n/a
74.2416	0.8667	INK	16	Incongruent	zielony	green	czerwony	red	hit	n/a
75.0854	n/a	RESPONSE	n/a	n/a	n/a	n/a	n/a	n/a	n/a	red
75.1083	1.0167	ITI	n/a	n/a	n/a	n/a	n/a	n/a	n/a	n/a
76.125	0.5167	FIXCROSS	n/a	n/a	n/a	n/a	n/a	n/a	n/a	n/a
76.6417	0.5333	INK	17	Incongruent	czerwony	red	żółty	yellow	hit	n/a
77.1489	n/a	RESPONSE	n/a	n/a	n/a	n/a	n/a	n/a	n/a	yellow
77.175	1.0167	ITI	n/a	n/a	n/a	n/a	n/a	n/a	n/a	n/a
78.1917	0.5167	FIXCROSS	n/a	n/a	n/a	n/a	n/a	n/a	n/a	n/a
78.7083	0.5	INK	18	Incongruent	czerwony	red	żółty	yellow	hit	n/a
79.1804	n/a	RESPONSE	n/a	n/a	n/a	n/a	n/a	n/a	n/a	yellow
79.2083	1.0167	ITI	n/a	n/a	n/a	n/a	n/a	n/a	n/a	n/a
80.225	0.5167	FIXCROSS	n/a	n/a	n/a	n/a	n/a	n/a	n/a	n/a
80.7417	0.4833	INK	19	Neutral	xxxxxxx	xxxxxxx	żółty	yellow	hit	n/a
81.1959	n/a	RESPONSE	n/a	n/a	n/a	n/a	n/a	n/a	n/a	yellow
81.225	1.0167	ITI	n/a	n/a	n/a	n/a	n/a	n/a	n/a	n/a
82.2417	0.5167	FIXCROSS	n/a	n/a	n/a	n/a	n/a	n/a	n/a	n/a
82.7584	0.5167	INK	20	Incongruent	niebieski	blue	żółty	yellow	hit	n/a
83.2433	n/a	RESPONSE	n/a	n/a	n/a	n/a	n/a	n/a	n/a	yellow
83.275	1.0167	ITI	n/a	n/a	n/a	n/a	n/a	n/a	n/a	n/a
84.2917	0.5167	FIXCROSS	n/a	n/a	n/a	n/a	n/a	n/a	n/a	n/a
84.8084	0.65	INK	21	Neutral	xxxxxxxxx	xxxxxxxxx	czerwony	red	hit	n/a
85.4348	n/a	RESPONSE	n/a	n/a	n/a	n/a	n/a	n/a	n/a	red
85.4584	1.0167	ITI	n/a	n/a	n/a	n/a	n/a	n/a	n/a	n/a
86.4751	0.5167	FIXCROSS	n/a	n/a	n/a	n/a	n/a	n/a	n/a	n/a
86.9917	0.5333	INK	22	Incongruent	żółty	yellow	zielony	green	hit	n/a
87.4983	n/a	RESPONSE	n/a	n/a	n/a	n/a	n/a	n/a	n/a	green
87.5251	1.0167	ITI	n/a	n/a	n/a	n/a	n/a	n/a	n/a	n/a
88.5417	0.5167	FIXCROSS	n/a	n/a	n/a	n/a	n/a	n/a	n/a	n/a
89.0584	0.4667	INK	23	Neutral	xxxxx	xxxxx	niebieski	blue	hit	n/a
89.4978	n/a	RESPONSE	n/a	n/a	n/a	n/a	n/a	n/a	n/a	blue
89.5251	1.0167	ITI	n/a	n/a	n/a	n/a	n/a	n/a	n/a	n/a
90.5418	0.5167	FIXCROSS	n/a	n/a	n/a	n/a	n/a	n/a	n/a	n/a
91.0584	0.9	INK	24	Incongruent	czerwony	red	zielony	green	hit	n/a
91.9292	n/a	RESPONSE	n/a	n/a	n/a	n/a	n/a	n/a	n/a	green
91.9584	1.0167	ITI	n/a	n/a	n/a	n/a	n/a	n/a	n/a	n/a
92.9751	0.5167	FIXCROSS	n/a	n/a	n/a	n/a	n/a	n/a	n/a	n/a
93.4918	0.8333	INK	25	Incongruent	żółty	yellow	czerwony	red	hit	n/a
94.2966	n/a	RESPONSE	n/a	n/a	n/a	n/a	n/a	n/a	n/a	red
94.3251	1.0167	ITI	n/a	n/a	n/a	n/a	n/a	n/a	n/a	n/a
95.3418	0.5167	FIXCROSS	n/a	n/a	n/a	n/a	n/a	n/a	n/a	n/a
95.8585	0.7333	INK	26	Incongruent	niebieski	blue	zielony	green	hit	n/a
96.568	n/a	RESPONSE	n/a	n/a	n/a	n/a	n/a	n/a	n/a	green
96.5918	1.0167	ITI	n/a	n/a	n/a	n/a	n/a	n/a	n/a	n/a
97.6085	0.5167	FIXCROSS	n/a	n/a	n/a	n/a	n/a	n/a	n/a	n/a
98.1251	0.5	INK	27	Neutral	xxxxxxxxx	xxxxxxxxx	zielony	green	hit	n/a
98.5995	n/a	RESPONSE	n/a	n/a	n/a	n/a	n/a	n/a	n/a	green
98.6251	1.0167	ITI	n/a	n/a	n/a	n/a	n/a	n/a	n/a	n/a
99.6418	0.5167	FIXCROSS	n/a	n/a	n/a	n/a	n/a	n/a	n/a	n/a
100.1585	0.7	INK	28	Neutral	xxxxxxx	xxxxxxx	czerwony	red	hit	n/a
100.8389	n/a	RESPONSE	n/a	n/a	n/a	n/a	n/a	n/a	n/a	red
100.8585	1.0167	ITI	n/a	n/a	n/a	n/a	n/a	n/a	n/a	n/a
101.8752	0.5167	FIXCROSS	n/a	n/a	n/a	n/a	n/a	n/a	n/a	n/a
102.3918	1.65	INK	29	Incongruent	żółty	yellow	zielony	green	hit	n/a
104.0222	n/a	RESPONSE	n/a	n/a	n/a	n/a	n/a	n/a	n/a	green
104.0418	1.0167	ITI	n/a	n/a	n/a	n/a	n/a	n/a	n/a	n/a
105.0585	0.5167	FIXCROSS	n/a	n/a	n/a	n/a	n/a	n/a	n/a	n/a
105.5752	0.6167	INK	30	Incongruent	niebieski	blue	czerwony	red	hit	n/a
106.1657	n/a	RESPONSE	n/a	n/a	n/a	n/a	n/a	n/a	n/a	red
106.1919	1.0167	ITI	n/a	n/a	n/a	n/a	n/a	n/a	n/a	n/a
107.2085	0.5167	FIXCROSS	n/a	n/a	n/a	n/a	n/a	n/a	n/a	n/a
107.7252	0.8167	INK	31	Incongruent	zielony	green	czerwony	red	hit	n/a
108.5171	n/a	RESPONSE	n/a	n/a	n/a	n/a	n/a	n/a	n/a	red
108.5419	1.0167	ITI	n/a	n/a	n/a	n/a	n/a	n/a	n/a	n/a
109.5585	0.5167	FIXCROSS	n/a	n/a	n/a	n/a	n/a	n/a	n/a	n/a
110.0752	0.5	INK	32	Neutral	xxxxxxxx	xxxxxxxx	zielony	green	hit	n/a
110.5486	n/a	RESPONSE	n/a	n/a	n/a	n/a	n/a	n/a	n/a	green
110.5752	1.0167	ITI	n/a	n/a	n/a	n/a	n/a	n/a	n/a	n/a
111.5919	0.5167	FIXCROSS	n/a	n/a	n/a	n/a	n/a	n/a	n/a	n/a
112.1086	0.6	INK	33	Neutral	xxxxxxx	xxxxxxx	czerwony	red	hit	n/a
112.676	n/a	RESPONSE	n/a	n/a	n/a	n/a	n/a	n/a	n/a	red
112.7086	1.0167	ITI	n/a	n/a	n/a	n/a	n/a	n/a	n/a	n/a
113.7253	0.5167	FIXCROSS	n/a	n/a	n/a	n/a	n/a	n/a	n/a	n/a
114.2419	0.5833	INK	34	Neutral	xxxxx	xxxxx	zielony	green	hit	n/a
114.8036	n/a	RESPONSE	n/a	n/a	n/a	n/a	n/a	n/a	n/a	green
114.8253	1.0167	ITI	n/a	n/a	n/a	n/a	n/a	n/a	n/a	n/a
115.8419	0.5166	FIXCROSS	n/a	n/a	n/a	n/a	n/a	n/a	n/a	n/a
116.3585	0.4834	INK	35	Neutral	xxxxx	xxxxx	czerwony	red	hit	n/a
116.819	n/a	RESPONSE	n/a	n/a	n/a	n/a	n/a	n/a	n/a	red
116.8419	1.0167	ITI	n/a	n/a	n/a	n/a	n/a	n/a	n/a	n/a
117.8586	0.5167	FIXCROSS	n/a	n/a	n/a	n/a	n/a	n/a	n/a	n/a
118.3753	0.6667	INK	36	Incongruent	zielony	green	niebieski	blue	incorrect	n/a
119.0105	n/a	RESPONSE	n/a	n/a	n/a	n/a	n/a	n/a	n/a	green
119.0419	1.0167	ITI	n/a	n/a	n/a	n/a	n/a	n/a	n/a	n/a
120.0586	0.5167	FIXCROSS	n/a	n/a	n/a	n/a	n/a	n/a	n/a	n/a
120.5753	0.6833	INK	37	Neutral	xxxxxxx	xxxxxxx	żółty	yellow	hit	n/a
121.2339	n/a	RESPONSE	n/a	n/a	n/a	n/a	n/a	n/a	n/a	yellow
121.2586	1.0167	ITI	n/a	n/a	n/a	n/a	n/a	n/a	n/a	n/a
122.2753	0.5167	FIXCROSS	n/a	n/a	n/a	n/a	n/a	n/a	n/a	n/a
122.792	0.6667	INK	38	Neutral	xxxxxxx	xxxxxxx	żółty	yellow	hit	n/a
123.4414	n/a	RESPONSE	n/a	n/a	n/a	n/a	n/a	n/a	n/a	yellow
123.4586	1.0167	ITI	n/a	n/a	n/a	n/a	n/a	n/a	n/a	n/a
124.4753	0.5167	FIXCROSS	n/a	n/a	n/a	n/a	n/a	n/a	n/a	n/a
124.992	0.4667	INK	39	Incongruent	zielony	green	żółty	yellow	hit	n/a
125.4249	n/a	RESPONSE	n/a	n/a	n/a	n/a	n/a	n/a	n/a	yellow
125.4587	1.0167	ITI	n/a	n/a	n/a	n/a	n/a	n/a	n/a	n/a
126.4753	0.5167	FIXCROSS	n/a	n/a	n/a	n/a	n/a	n/a	n/a	n/a
126.992	0.4333	INK	40	Incongruent	niebieski	blue	żółty	yellow	hit	n/a
127.3925	n/a	RESPONSE	n/a	n/a	n/a	n/a	n/a	n/a	n/a	yellow
127.4253	1.0167	ITI	n/a	n/a	n/a	n/a	n/a	n/a	n/a	n/a
128.442	0.5167	FIXCROSS	n/a	n/a	n/a	n/a	n/a	n/a	n/a	n/a
128.9587	0.3833	INK	41	Incongruent	zielony	green	żółty	yellow	hit	n/a
129.312	n/a	RESPONSE	n/a	n/a	n/a	n/a	n/a	n/a	n/a	yellow
129.342	1.0167	ITI	n/a	n/a	n/a	n/a	n/a	n/a	n/a	n/a
130.3587	0.5167	FIXCROSS	n/a	n/a	n/a	n/a	n/a	n/a	n/a	n/a
130.8754	0.35	INK	42	Neutral	xxxxxxxxx	xxxxxxxxx	żółty	yellow	hit	n/a
131.1995	n/a	RESPONSE	n/a	n/a	n/a	n/a	n/a	n/a	n/a	yellow
131.2254	1.0167	ITI	n/a	n/a	n/a	n/a	n/a	n/a	n/a	n/a
132.2421	0.5167	FIXCROSS	n/a	n/a	n/a	n/a	n/a	n/a	n/a	n/a
132.7587	0.35	INK	43	Incongruent	niebieski	blue	żółty	yellow	hit	n/a
133.087	n/a	RESPONSE	n/a	n/a	n/a	n/a	n/a	n/a	n/a	yellow
133.1087	1.0167	ITI	n/a	n/a	n/a	n/a	n/a	n/a	n/a	n/a
134.1254	0.5167	FIXCROSS	n/a	n/a	n/a	n/a	n/a	n/a	n/a	n/a
134.6421	0.85	INK	44	Incongruent	czerwony	red	niebieski	blue	hit	n/a
135.4704	n/a	RESPONSE	n/a	n/a	n/a	n/a	n/a	n/a	n/a	blue
135.4921	1.0167	ITI	n/a	n/a	n/a	n/a	n/a	n/a	n/a	n/a
136.5087	0.5167	FIXCROSS	n/a	n/a	n/a	n/a	n/a	n/a	n/a	n/a
137.0254	0.8167	INK	45	Neutral	xxxxx	xxxxx	zielony	green	hit	n/a
137.8219	n/a	RESPONSE	n/a	n/a	n/a	n/a	n/a	n/a	n/a	green
137.8421	1.0167	ITI	n/a	n/a	n/a	n/a	n/a	n/a	n/a	n/a
138.8588	0.5167	FIXCROSS	n/a	n/a	n/a	n/a	n/a	n/a	n/a	n/a
139.3754	0.55	INK	46	Neutral	xxxxx	xxxxx	zielony	green	hit	n/a
139.9013	n/a	RESPONSE	n/a	n/a	n/a	n/a	n/a	n/a	n/a	green
139.9254	1.0167	ITI	n/a	n/a	n/a	n/a	n/a	n/a	n/a	n/a
140.9421	0.5167	FIXCROSS	n/a	n/a	n/a	n/a	n/a	n/a	n/a	n/a
141.4588	0.75	INK	47	Neutral	xxxxx	xxxxx	niebieski	blue	hit	n/a
142.1887	n/a	RESPONSE	n/a	n/a	n/a	n/a	n/a	n/a	n/a	blue
142.2088	1.0167	ITI	n/a	n/a	n/a	n/a	n/a	n/a	n/a	n/a
143.2255	0.5167	FIXCROSS	n/a	n/a	n/a	n/a	n/a	n/a	n/a	n/a
143.7421	0.6333	INK	48	Incongruent	żółty	yellow	niebieski	blue	hit	n/a
144.3482	n/a	RESPONSE	n/a	n/a	n/a	n/a	n/a	n/a	n/a	blue
144.3755	1.0167	ITI	n/a	n/a	n/a	n/a	n/a	n/a	n/a	n/a
145.3921	0.5167	FIXCROSS	n/a	n/a	n/a	n/a	n/a	n/a	n/a	n/a
145.9088	0.6667	INK	49	Incongruent	czerwony	red	zielony	green	hit	n/a
146.5556	n/a	RESPONSE	n/a	n/a	n/a	n/a	n/a	n/a	n/a	green
146.5755	1.0167	ITI	n/a	n/a	n/a	n/a	n/a	n/a	n/a	n/a
147.5921	0.5167	FIXCROSS	n/a	n/a	n/a	n/a	n/a	n/a	n/a	n/a
148.1088	0.5167	INK	50	Incongruent	zielony	green	niebieski	blue	hit	n/a
148.6032	n/a	RESPONSE	n/a	n/a	n/a	n/a	n/a	n/a	n/a	blue
148.6255	1.0167	ITI	n/a	n/a	n/a	n/a	n/a	n/a	n/a	n/a
149.6422	0.5167	FIXCROSS	n/a	n/a	n/a	n/a	n/a	n/a	n/a	n/a
150.1588	0.5333	INK	51	Incongruent	zielony	green	niebieski	blue	hit	n/a
150.6667	n/a	RESPONSE	n/a	n/a	n/a	n/a	n/a	n/a	n/a	blue
150.6922	1.0167	ITI	n/a	n/a	n/a	n/a	n/a	n/a	n/a	n/a
151.7088	0.5167	FIXCROSS	n/a	n/a	n/a	n/a	n/a	n/a	n/a	n/a
152.2255	0.65	INK	52	Neutral	xxxxxxxxx	xxxxxxxxx	żółty	yellow	hit	n/a
152.8421	n/a	RESPONSE	n/a	n/a	n/a	n/a	n/a	n/a	n/a	yellow
152.8755	1.0167	ITI	n/a	n/a	n/a	n/a	n/a	n/a	n/a	n/a
153.8922	0.5167	FIXCROSS	n/a	n/a	n/a	n/a	n/a	n/a	n/a	n/a
154.4089	0.45	INK	53	Neutral	xxxxxxxxx	xxxxxxxxx	żółty	yellow	hit	n/a
154.8416	n/a	RESPONSE	n/a	n/a	n/a	n/a	n/a	n/a	n/a	yellow
154.8589	1.0167	ITI	n/a	n/a	n/a	n/a	n/a	n/a	n/a	n/a
155.8755	0.5167	FIXCROSS	n/a	n/a	n/a	n/a	n/a	n/a	n/a	n/a
156.3922	0.9333	INK	54	Neutral	xxxxxxxx	xxxxxxxx	niebieski	blue	hit	n/a
157.305	n/a	RESPONSE	n/a	n/a	n/a	n/a	n/a	n/a	n/a	blue
157.3255	1.0167	ITI	n/a	n/a	n/a	n/a	n/a	n/a	n/a	n/a
158.3422	0.5167	FIXCROSS	n/a	n/a	n/a	n/a	n/a	n/a	n/a	n/a
158.8589	0.65	INK	55	Neutral	xxxxxxxxx	xxxxxxxxx	zielony	green	hit	n/a
159.4805	n/a	RESPONSE	n/a	n/a	n/a	n/a	n/a	n/a	n/a	green
159.5089	1.0167	ITI	n/a	n/a	n/a	n/a	n/a	n/a	n/a	n/a
160.5256	0.5167	FIXCROSS	n/a	n/a	n/a	n/a	n/a	n/a	n/a	n/a
161.0422	0.65	INK	56	Incongruent	żółty	yellow	czerwony	red	hit	n/a
161.6719	n/a	RESPONSE	n/a	n/a	n/a	n/a	n/a	n/a	n/a	red
161.6923	1.0167	ITI	n/a	n/a	n/a	n/a	n/a	n/a	n/a	n/a
162.7089	0.5167	FIXCROSS	n/a	n/a	n/a	n/a	n/a	n/a	n/a	n/a
163.2256	0.6167	INK	57	Neutral	xxxxxxx	xxxxxxx	niebieski	blue	hit	n/a
163.8154	n/a	RESPONSE	n/a	n/a	n/a	n/a	n/a	n/a	n/a	blue
163.8423	1.0167	ITI	n/a	n/a	n/a	n/a	n/a	n/a	n/a	n/a
164.8589	0.5167	FIXCROSS	n/a	n/a	n/a	n/a	n/a	n/a	n/a	n/a
165.3756	0.45	INK	58	Neutral	xxxxx	xxxxx	czerwony	red	hit	n/a
165.7989	n/a	RESPONSE	n/a	n/a	n/a	n/a	n/a	n/a	n/a	red
165.8256	1.0167	ITI	n/a	n/a	n/a	n/a	n/a	n/a	n/a	n/a
166.8423	0.5167	FIXCROSS	n/a	n/a	n/a	n/a	n/a	n/a	n/a	n/a
167.359	0.9	INK	59	Neutral	xxxxxxxx	xxxxxxxx	żółty	yellow	hit	n/a
168.2303	n/a	RESPONSE	n/a	n/a	n/a	n/a	n/a	n/a	n/a	yellow
168.259	1.0167	ITI	n/a	n/a	n/a	n/a	n/a	n/a	n/a	n/a
169.2756	0.5167	FIXCROSS	n/a	n/a	n/a	n/a	n/a	n/a	n/a	n/a
169.7923	0.5333	INK	60	Neutral	xxxxxxxx	xxxxxxxx	zielony	green	hit	n/a
170.2938	n/a	RESPONSE	n/a	n/a	n/a	n/a	n/a	n/a	n/a	green
170.3256	1.0167	ITI	n/a	n/a	n/a	n/a	n/a	n/a	n/a	n/a
171.3423	0.5167	FIXCROSS	n/a	n/a	n/a	n/a	n/a	n/a	n/a	n/a
171.859	0.8667	INK	61	Incongruent	niebieski	blue	zielony	green	incorrect	n/a
172.6932	n/a	RESPONSE	n/a	n/a	n/a	n/a	n/a	n/a	n/a	blue
172.7257	1.0167	ITI	n/a	n/a	n/a	n/a	n/a	n/a	n/a	n/a
173.7423	0.5167	FIXCROSS	n/a	n/a	n/a	n/a	n/a	n/a	n/a	n/a
174.259	0.55	INK	62	Neutral	xxxxxxx	xxxxxxx	niebieski	blue	hit	n/a
174.7887	n/a	RESPONSE	n/a	n/a	n/a	n/a	n/a	n/a	n/a	blue
174.809	1.0167	ITI	n/a	n/a	n/a	n/a	n/a	n/a	n/a	n/a
175.8257	0.5167	FIXCROSS	n/a	n/a	n/a	n/a	n/a	n/a	n/a	n/a
176.3423	0.65	INK	63	Neutral	xxxxxxxx	xxxxxxxx	żółty	yellow	hit	n/a
176.9641	n/a	RESPONSE	n/a	n/a	n/a	n/a	n/a	n/a	n/a	yellow
176.9924	1.0167	ITI	n/a	n/a	n/a	n/a	n/a	n/a	n/a	n/a
178.009	0.5167	FIXCROSS	n/a	n/a	n/a	n/a	n/a	n/a	n/a	n/a
178.5257	0.9	INK	64	Incongruent	zielony	green	czerwony	red	hit	n/a
179.3955	n/a	RESPONSE	n/a	n/a	n/a	n/a	n/a	n/a	n/a	red
179.4257	1.0167	ITI	n/a	n/a	n/a	n/a	n/a	n/a	n/a	n/a
180.4424	0.5167	FIXCROSS	n/a	n/a	n/a	n/a	n/a	n/a	n/a	n/a
180.959	0.5833	INK	65	Neutral	xxxxxxxx	xxxxxxxx	niebieski	blue	hit	n/a
181.523	n/a	RESPONSE	n/a	n/a	n/a	n/a	n/a	n/a	n/a	blue
181.5424	1.0167	ITI	n/a	n/a	n/a	n/a	n/a	n/a	n/a	n/a
182.5591	0.5167	FIXCROSS	n/a	n/a	n/a	n/a	n/a	n/a	n/a	n/a
183.0757	0.4167	INK	66	Neutral	xxxxxxxx	xxxxxxxx	niebieski	blue	hit	n/a
183.4745	n/a	RESPONSE	n/a	n/a	n/a	n/a	n/a	n/a	n/a	blue
183.4924	1.0167	ITI	n/a	n/a	n/a	n/a	n/a	n/a	n/a	n/a
184.5091	0.5167	FIXCROSS	n/a	n/a	n/a	n/a	n/a	n/a	n/a	n/a
185.0257	0.9	INK	67	Incongruent	niebieski	blue	zielony	green	hit	n/a
185.9059	n/a	RESPONSE	n/a	n/a	n/a	n/a	n/a	n/a	n/a	green
185.9257	1.0167	ITI	n/a	n/a	n/a	n/a	n/a	n/a	n/a	n/a
186.9424	0.5167	FIXCROSS	n/a	n/a	n/a	n/a	n/a	n/a	n/a	n/a
187.4591	0.6667	INK	68	Neutral	xxxxxxxxx	xxxxxxxxx	czerwony	red	hit	n/a
188.0974	n/a	RESPONSE	n/a	n/a	n/a	n/a	n/a	n/a	n/a	red
188.1258	1.0167	ITI	n/a	n/a	n/a	n/a	n/a	n/a	n/a	n/a
189.1424	0.5167	FIXCROSS	n/a	n/a	n/a	n/a	n/a	n/a	n/a	n/a
189.6591	0.5667	INK	69	Incongruent	czerwony	red	żółty	yellow	hit	n/a
190.1928	n/a	RESPONSE	n/a	n/a	n/a	n/a	n/a	n/a	n/a	yellow
190.2258	1.0167	ITI	n/a	n/a	n/a	n/a	n/a	n/a	n/a	n/a
191.2425	0.5167	FIXCROSS	n/a	n/a	n/a	n/a	n/a	n/a	n/a	n/a
191.7591	0.6667	INK	70	Neutral	xxxxx	xxxxx	niebieski	blue	hit	n/a
192.4003	n/a	RESPONSE	n/a	n/a	n/a	n/a	n/a	n/a	n/a	blue
192.4258	1.0167	ITI	n/a	n/a	n/a	n/a	n/a	n/a	n/a	n/a
193.4425	0.5167	FIXCROSS	n/a	n/a	n/a	n/a	n/a	n/a	n/a	n/a
193.9591	0.5833	INK	71	Neutral	xxxxxxx	xxxxxxx	czerwony	red	hit	n/a
194.5118	n/a	RESPONSE	n/a	n/a	n/a	n/a	n/a	n/a	n/a	red
194.5425	1.0167	ITI	n/a	n/a	n/a	n/a	n/a	n/a	n/a	n/a
195.5591	0.5167	FIXCROSS	n/a	n/a	n/a	n/a	n/a	n/a	n/a	n/a
196.0758	0.6667	INK	72	Incongruent	zielony	green	żółty	yellow	hit	n/a
196.7192	n/a	RESPONSE	n/a	n/a	n/a	n/a	n/a	n/a	n/a	yellow
196.7425	1.0833	ITI	n/a	n/a	n/a	n/a	n/a	n/a	n/a	n/a
220.7293	n/a	RESPONSE	n/a	n/a	n/a	n/a	n/a	n/a	n/a	n/a
220.7926	1.0167	ITI	n/a	n/a	n/a	n/a	n/a	n/a	n/a	n/a
221.8093	0.5167	FIXCROSS	n/a	n/a	n/a	n/a	n/a	n/a	n/a	n/a
222.326	0.8833	T_COLOR_NAME	1	Neutral	czerwony	red	Neutral	Neutral	hit	n/a
223.1767	n/a	RESPONSE	n/a	n/a	n/a	n/a	n/a	n/a	n/a	red
223.2093	0.5167	FEEDBACK	n/a	n/a	n/a	n/a	n/a	n/a	n/a	n/a
223.726	1.0167	ITI	n/a	n/a	n/a	n/a	n/a	n/a	n/a	n/a
224.7427	0.5167	FIXCROSS	n/a	n/a	n/a	n/a	n/a	n/a	n/a	n/a
225.2593	1.5	T_COLOR_NAME	2	Incongruent	zielony	green	niebieski	blue	hit	n/a
226.7278	n/a	RESPONSE	n/a	n/a	n/a	n/a	n/a	n/a	n/a	green
226.7594	0.5167	FEEDBACK	n/a	n/a	n/a	n/a	n/a	n/a	n/a	n/a
227.276	1.0167	ITI	n/a	n/a	n/a	n/a	n/a	n/a	n/a	n/a
228.2927	0.5167	FIXCROSS	n/a	n/a	n/a	n/a	n/a	n/a	n/a	n/a
228.8094	0.5833	T_COLOR_NAME	3	Neutral	żółty	yellow	Neutral	Neutral	hit	n/a
229.3672	n/a	RESPONSE	n/a	n/a	n/a	n/a	n/a	n/a	n/a	yellow
229.3927	0.5167	FEEDBACK	n/a	n/a	n/a	n/a	n/a	n/a	n/a	n/a
229.9094	1.0167	ITI	n/a	n/a	n/a	n/a	n/a	n/a	n/a	n/a
230.926	0.5167	FIXCROSS	n/a	n/a	n/a	n/a	n/a	n/a	n/a	n/a
231.4427	1.0333	T_COLOR_NAME	4	Neutral	czerwony	red	Neutral	Neutral	hit	n/a
232.4544	n/a	RESPONSE	n/a	n/a	n/a	n/a	n/a	n/a	n/a	red
232.4761	0.5167	FEEDBACK	n/a	n/a	n/a	n/a	n/a	n/a	n/a	n/a
232.9927	1.0167	ITI	n/a	n/a	n/a	n/a	n/a	n/a	n/a	n/a
234.0094	0.5167	FIXCROSS	n/a	n/a	n/a	n/a	n/a	n/a	n/a	n/a
234.5261	0.7	T_COLOR_NAME	5	Neutral	zielony	green	Neutral	Neutral	hit	n/a
235.2057	n/a	RESPONSE	n/a	n/a	n/a	n/a	n/a	n/a	n/a	green
235.2261	0.5167	FEEDBACK	n/a	n/a	n/a	n/a	n/a	n/a	n/a	n/a
235.7427	1.0167	ITI	n/a	n/a	n/a	n/a	n/a	n/a	n/a	n/a
236.7594	0.5167	FIXCROSS	n/a	n/a	n/a	n/a	n/a	n/a	n/a	n/a
237.2761	0.7	T_COLOR_NAME	6	Incongruent	niebieski	blue	zielony	green	hit	n/a
237.957	n/a	RESPONSE	n/a	n/a	n/a	n/a	n/a	n/a	n/a	blue
237.9761	0.5167	FEEDBACK	n/a	n/a	n/a	n/a	n/a	n/a	n/a	n/a
238.4928	1.0167	ITI	n/a	n/a	n/a	n/a	n/a	n/a	n/a	n/a
239.5094	0.5167	FIXCROSS	n/a	n/a	n/a	n/a	n/a	n/a	n/a	n/a
240.0261	0.7	T_COLOR_NAME	7	Incongruent	żółty	yellow	czerwony	red	hit	n/a
240.6923	n/a	RESPONSE	n/a	n/a	n/a	n/a	n/a	n/a	n/a	yellow
240.7261	0.5167	FEEDBACK	n/a	n/a	n/a	n/a	n/a	n/a	n/a	n/a
241.2428	1.0167	ITI	n/a	n/a	n/a	n/a	n/a	n/a	n/a	n/a
242.2595	0.5167	FIXCROSS	n/a	n/a	n/a	n/a	n/a	n/a	n/a	n/a
242.7761	0.7667	T_COLOR_NAME	8	Neutral	niebieski	blue	Neutral	Neutral	hit	n/a
243.5236	n/a	RESPONSE	n/a	n/a	n/a	n/a	n/a	n/a	n/a	blue
243.5428	0.5167	FEEDBACK	n/a	n/a	n/a	n/a	n/a	n/a	n/a	n/a
244.0595	1.0167	ITI	n/a	n/a	n/a	n/a	n/a	n/a	n/a	n/a
245.0762	0.5167	FIXCROSS	n/a	n/a	n/a	n/a	n/a	n/a	n/a	n/a
245.5928	0.8	T_COLOR_NAME	9	Neutral	czerwony	red	Neutral	Neutral	hit	n/a
246.371	n/a	RESPONSE	n/a	n/a	n/a	n/a	n/a	n/a	n/a	red
246.3928	0.5167	FEEDBACK	n/a	n/a	n/a	n/a	n/a	n/a	n/a	n/a
246.9095	1.0167	ITI	n/a	n/a	n/a	n/a	n/a	n/a	n/a	n/a
247.9262	0.5167	FIXCROSS	n/a	n/a	n/a	n/a	n/a	n/a	n/a	n/a
248.4428	0.6333	T_COLOR_NAME	10	Neutral	niebieski	blue	Neutral	Neutral	hit	n/a
249.0423	n/a	RESPONSE	n/a	n/a	n/a	n/a	n/a	n/a	n/a	blue
249.0762	0.5167	FEEDBACK	n/a	n/a	n/a	n/a	n/a	n/a	n/a	n/a
249.5929	1.0167	ITI	n/a	n/a	n/a	n/a	n/a	n/a	n/a	n/a
250.6095	0.5167	FIXCROSS	n/a	n/a	n/a	n/a	n/a	n/a	n/a	n/a
251.1262	0.7667	T_COLOR_NAME	11	Neutral	zielony	green	Neutral	Neutral	hit	n/a
251.8736	n/a	RESPONSE	n/a	n/a	n/a	n/a	n/a	n/a	n/a	green
251.8929	0.5167	FEEDBACK	n/a	n/a	n/a	n/a	n/a	n/a	n/a	n/a
252.4095	1.0167	ITI	n/a	n/a	n/a	n/a	n/a	n/a	n/a	n/a
253.4262	0.5167	FIXCROSS	n/a	n/a	n/a	n/a	n/a	n/a	n/a	n/a
253.9429	0.5833	T_COLOR_NAME	12	Neutral	zielony	green	Neutral	Neutral	hit	n/a
254.4969	n/a	RESPONSE	n/a	n/a	n/a	n/a	n/a	n/a	n/a	green
254.5262	0.5167	FEEDBACK	n/a	n/a	n/a	n/a	n/a	n/a	n/a	n/a
255.0429	1.0333	ITI	n/a	n/a	n/a	n/a	n/a	n/a	n/a	n/a
257.2322	n/a	RESPONSE	n/a	n/a	n/a	n/a	n/a	n/a	n/a	n/a
257.2929	1.0167	ITI	n/a	n/a	n/a	n/a	n/a	n/a	n/a	n/a
258.3096	0.5167	FIXCROSS	n/a	n/a	n/a	n/a	n/a	n/a	n/a	n/a
258.8262	0.85	COLOR_NAME	1	Incongruent	niebieski	blue	zielony	green	hit	n/a
259.6476	n/a	RESPONSE	n/a	n/a	n/a	n/a	n/a	n/a	n/a	blue
259.6762	1.0167	ITI	n/a	n/a	n/a	n/a	n/a	n/a	n/a	n/a
260.6929	0.5167	FIXCROSS	n/a	n/a	n/a	n/a	n/a	n/a	n/a	n/a
261.2096	0.8167	COLOR_NAME	2	Neutral	żółty	yellow	Neutral	Neutral	hit	n/a
261.9991	n/a	RESPONSE	n/a	n/a	n/a	n/a	n/a	n/a	n/a	yellow
262.0263	1.0167	ITI	n/a	n/a	n/a	n/a	n/a	n/a	n/a	n/a
263.0429	0.5167	FIXCROSS	n/a	n/a	n/a	n/a	n/a	n/a	n/a	n/a
263.5596	0.5667	COLOR_NAME	3	Neutral	żółty	yellow	Neutral	Neutral	hit	n/a
264.0945	n/a	RESPONSE	n/a	n/a	n/a	n/a	n/a	n/a	n/a	yellow
264.1263	1.0167	ITI	n/a	n/a	n/a	n/a	n/a	n/a	n/a	n/a
265.1429	0.5167	FIXCROSS	n/a	n/a	n/a	n/a	n/a	n/a	n/a	n/a
265.6596	0.7333	COLOR_NAME	4	Neutral	czerwony	red	Neutral	Neutral	hit	n/a
266.366	n/a	RESPONSE	n/a	n/a	n/a	n/a	n/a	n/a	n/a	red
266.393	1.0167	ITI	n/a	n/a	n/a	n/a	n/a	n/a	n/a	n/a
267.4096	0.5167	FIXCROSS	n/a	n/a	n/a	n/a	n/a	n/a	n/a	n/a
267.9263	0.8	COLOR_NAME	5	Neutral	zielony	green	Neutral	Neutral	hit	n/a
268.7014	n/a	RESPONSE	n/a	n/a	n/a	n/a	n/a	n/a	n/a	green
268.7263	1.0167	ITI	n/a	n/a	n/a	n/a	n/a	n/a	n/a	n/a
269.743	0.5167	FIXCROSS	n/a	n/a	n/a	n/a	n/a	n/a	n/a	n/a
270.2597	1.0	COLOR_NAME	6	Incongruent	żółty	yellow	zielony	green	hit	n/a
271.2288	n/a	RESPONSE	n/a	n/a	n/a	n/a	n/a	n/a	n/a	yellow
271.2597	1.0167	ITI	n/a	n/a	n/a	n/a	n/a	n/a	n/a	n/a
272.2763	0.5167	FIXCROSS	n/a	n/a	n/a	n/a	n/a	n/a	n/a	n/a
272.793	0.6167	COLOR_NAME	7	Neutral	niebieski	blue	Neutral	Neutral	hit	n/a
273.3882	n/a	RESPONSE	n/a	n/a	n/a	n/a	n/a	n/a	n/a	blue
273.4097	1.0167	ITI	n/a	n/a	n/a	n/a	n/a	n/a	n/a	n/a
274.4263	0.5167	FIXCROSS	n/a	n/a	n/a	n/a	n/a	n/a	n/a	n/a
274.943	1.4667	COLOR_NAME	8	Incongruent	zielony	green	czerwony	red	hit	n/a
276.3795	n/a	RESPONSE	n/a	n/a	n/a	n/a	n/a	n/a	n/a	green
276.4097	1.0167	ITI	n/a	n/a	n/a	n/a	n/a	n/a	n/a	n/a
277.4264	0.5167	FIXCROSS	n/a	n/a	n/a	n/a	n/a	n/a	n/a	n/a
277.943	0.65	COLOR_NAME	9	Incongruent	niebieski	blue	czerwony	red	hit	n/a
278.571	n/a	RESPONSE	n/a	n/a	n/a	n/a	n/a	n/a	n/a	blue
278.5931	1.0167	ITI	n/a	n/a	n/a	n/a	n/a	n/a	n/a	n/a
279.6097	0.5167	FIXCROSS	n/a	n/a	n/a	n/a	n/a	n/a	n/a	n/a
280.1264	0.7	COLOR_NAME	10	Incongruent	czerwony	red	żółty	yellow	hit	n/a
280.7944	n/a	RESPONSE	n/a	n/a	n/a	n/a	n/a	n/a	n/a	red
280.8264	1.0167	ITI	n/a	n/a	n/a	n/a	n/a	n/a	n/a	n/a
281.8431	0.5167	FIXCROSS	n/a	n/a	n/a	n/a	n/a	n/a	n/a	n/a
282.3597	0.55	COLOR_NAME	11	Incongruent	zielony	green	niebieski	blue	incorrect	n/a
282.8899	n/a	RESPONSE	n/a	n/a	n/a	n/a	n/a	n/a	n/a	blue
282.9097	1.0167	ITI	n/a	n/a	n/a	n/a	n/a	n/a	n/a	n/a
283.9264	0.5167	FIXCROSS	n/a	n/a	n/a	n/a	n/a	n/a	n/a	n/a
284.4431	0.8333	COLOR_NAME	12	Neutral	żółty	yellow	Neutral	Neutral	hit	n/a
285.2573	n/a	RESPONSE	n/a	n/a	n/a	n/a	n/a	n/a	n/a	yellow
285.2764	1.0167	ITI	n/a	n/a	n/a	n/a	n/a	n/a	n/a	n/a
286.2931	0.5167	FIXCROSS	n/a	n/a	n/a	n/a	n/a	n/a	n/a	n/a
286.8098	0.4667	COLOR_NAME	13	Neutral	żółty	yellow	Neutral	Neutral	hit	n/a
287.2568	n/a	RESPONSE	n/a	n/a	n/a	n/a	n/a	n/a	n/a	yellow
287.2764	1.0167	ITI	n/a	n/a	n/a	n/a	n/a	n/a	n/a	n/a
288.2931	0.5167	FIXCROSS	n/a	n/a	n/a	n/a	n/a	n/a	n/a	n/a
288.8098	1.1167	COLOR_NAME	14	Neutral	zielony	green	Neutral	Neutral	hit	n/a
289.8961	n/a	RESPONSE	n/a	n/a	n/a	n/a	n/a	n/a	n/a	green
289.9265	1.0167	ITI	n/a	n/a	n/a	n/a	n/a	n/a	n/a	n/a
290.9431	0.5167	FIXCROSS	n/a	n/a	n/a	n/a	n/a	n/a	n/a	n/a
291.4598	0.85	COLOR_NAME	15	Incongruent	czerwony	red	zielony	green	hit	n/a
292.2795	n/a	RESPONSE	n/a	n/a	n/a	n/a	n/a	n/a	n/a	red
292.3098	1.0167	ITI	n/a	n/a	n/a	n/a	n/a	n/a	n/a	n/a
293.3265	0.5167	FIXCROSS	n/a	n/a	n/a	n/a	n/a	n/a	n/a	n/a
293.8432	0.75	COLOR_NAME	16	Incongruent	czerwony	red	niebieski	blue	hit	n/a
294.567	n/a	RESPONSE	n/a	n/a	n/a	n/a	n/a	n/a	n/a	red
294.5932	1.0167	ITI	n/a	n/a	n/a	n/a	n/a	n/a	n/a	n/a
295.6098	0.5167	FIXCROSS	n/a	n/a	n/a	n/a	n/a	n/a	n/a	n/a
296.1265	0.6167	COLOR_NAME	17	Neutral	niebieski	blue	Neutral	Neutral	hit	n/a
296.7104	n/a	RESPONSE	n/a	n/a	n/a	n/a	n/a	n/a	n/a	blue
296.7432	1.0167	ITI	n/a	n/a	n/a	n/a	n/a	n/a	n/a	n/a
297.7598	0.5167	FIXCROSS	n/a	n/a	n/a	n/a	n/a	n/a	n/a	n/a
298.2765	0.8167	COLOR_NAME	18	Incongruent	zielony	green	czerwony	red	hit	n/a
299.0619	n/a	RESPONSE	n/a	n/a	n/a	n/a	n/a	n/a	n/a	green
299.0932	1.0167	ITI	n/a	n/a	n/a	n/a	n/a	n/a	n/a	n/a
300.1099	0.5167	FIXCROSS	n/a	n/a	n/a	n/a	n/a	n/a	n/a	n/a
300.6265	0.5333	COLOR_NAME	19	Neutral	zielony	green	Neutral	Neutral	hit	n/a
301.1414	n/a	RESPONSE	n/a	n/a	n/a	n/a	n/a	n/a	n/a	green
301.1599	1.0167	ITI	n/a	n/a	n/a	n/a	n/a	n/a	n/a	n/a
302.1765	0.5167	FIXCROSS	n/a	n/a	n/a	n/a	n/a	n/a	n/a	n/a
302.6932	2.2667	COLOR_NAME	20	Neutral	czerwony	red	Neutral	Neutral	hit	n/a
304.9324	n/a	RESPONSE	n/a	n/a	n/a	n/a	n/a	n/a	n/a	red
304.9599	1.0167	ITI	n/a	n/a	n/a	n/a	n/a	n/a	n/a	n/a
305.9766	0.5167	FIXCROSS	n/a	n/a	n/a	n/a	n/a	n/a	n/a	n/a
306.4932	0.65	COLOR_NAME	21	Incongruent	niebieski	blue	żółty	yellow	hit	n/a
307.1239	n/a	RESPONSE	n/a	n/a	n/a	n/a	n/a	n/a	n/a	blue
307.1432	1.0167	ITI	n/a	n/a	n/a	n/a	n/a	n/a	n/a	n/a
308.1599	0.5167	FIXCROSS	n/a	n/a	n/a	n/a	n/a	n/a	n/a	n/a
308.6766	0.5833	COLOR_NAME	22	Neutral	zielony	green	Neutral	Neutral	hit	n/a
309.2354	n/a	RESPONSE	n/a	n/a	n/a	n/a	n/a	n/a	n/a	green
309.2599	1.0167	ITI	n/a	n/a	n/a	n/a	n/a	n/a	n/a	n/a
310.2766	0.5167	FIXCROSS	n/a	n/a	n/a	n/a	n/a	n/a	n/a	n/a
310.7933	1.0	COLOR_NAME	23	Incongruent	niebieski	blue	zielony	green	hit	n/a
311.7627	n/a	RESPONSE	n/a	n/a	n/a	n/a	n/a	n/a	n/a	blue
311.7933	1.0167	ITI	n/a	n/a	n/a	n/a	n/a	n/a	n/a	n/a
312.8099	0.5167	FIXCROSS	n/a	n/a	n/a	n/a	n/a	n/a	n/a	n/a
313.3266	0.5	COLOR_NAME	24	Incongruent	niebieski	blue	czerwony	red	hit	n/a
313.7942	n/a	RESPONSE	n/a	n/a	n/a	n/a	n/a	n/a	n/a	blue
313.8266	1.0167	ITI	n/a	n/a	n/a	n/a	n/a	n/a	n/a	n/a
314.8433	0.5167	FIXCROSS	n/a	n/a	n/a	n/a	n/a	n/a	n/a	n/a
315.36	0.4667	COLOR_NAME	25	Incongruent	niebieski	blue	czerwony	red	hit	n/a
315.7937	n/a	RESPONSE	n/a	n/a	n/a	n/a	n/a	n/a	n/a	blue
315.8266	1.0167	ITI	n/a	n/a	n/a	n/a	n/a	n/a	n/a	n/a
316.8433	0.5167	FIXCROSS	n/a	n/a	n/a	n/a	n/a	n/a	n/a	n/a
317.36	0.7333	COLOR_NAME	26	Incongruent	czerwony	red	żółty	yellow	hit	n/a
318.0651	n/a	RESPONSE	n/a	n/a	n/a	n/a	n/a	n/a	n/a	red
318.0933	1.0167	ITI	n/a	n/a	n/a	n/a	n/a	n/a	n/a	n/a
319.11	0.5167	FIXCROSS	n/a	n/a	n/a	n/a	n/a	n/a	n/a	n/a
319.6267	0.5833	COLOR_NAME	27	Neutral	czerwony	red	Neutral	Neutral	hit	n/a
320.1926	n/a	RESPONSE	n/a	n/a	n/a	n/a	n/a	n/a	n/a	red
320.21	1.0167	ITI	n/a	n/a	n/a	n/a	n/a	n/a	n/a	n/a
321.2267	0.5167	FIXCROSS	n/a	n/a	n/a	n/a	n/a	n/a	n/a	n/a
321.7433	0.4833	COLOR_NAME	28	Incongruent	żółty	yellow	zielony	green	hit	n/a
322.2081	n/a	RESPONSE	n/a	n/a	n/a	n/a	n/a	n/a	n/a	yellow
322.2267	1.0167	ITI	n/a	n/a	n/a	n/a	n/a	n/a	n/a	n/a
323.2434	0.5167	FIXCROSS	n/a	n/a	n/a	n/a	n/a	n/a	n/a	n/a
323.76	0.8667	COLOR_NAME	29	Neutral	niebieski	blue	Neutral	Neutral	hit	n/a
324.6075	n/a	RESPONSE	n/a	n/a	n/a	n/a	n/a	n/a	n/a	blue
324.6267	1.0167	ITI	n/a	n/a	n/a	n/a	n/a	n/a	n/a	n/a
325.6434	0.5167	FIXCROSS	n/a	n/a	n/a	n/a	n/a	n/a	n/a	n/a
326.16	0.5333	COLOR_NAME	30	Neutral	żółty	yellow	Neutral	Neutral	hit	n/a
326.671	n/a	RESPONSE	n/a	n/a	n/a	n/a	n/a	n/a	n/a	yellow
326.6934	1.0167	ITI	n/a	n/a	n/a	n/a	n/a	n/a	n/a	n/a
327.71	0.5167	FIXCROSS	n/a	n/a	n/a	n/a	n/a	n/a	n/a	n/a
328.2267	1.3333	COLOR_NAME	31	Incongruent	czerwony	red	niebieski	blue	hit	n/a
329.5343	n/a	RESPONSE	n/a	n/a	n/a	n/a	n/a	n/a	n/a	red
329.5601	1.0167	ITI	n/a	n/a	n/a	n/a	n/a	n/a	n/a	n/a
330.5767	0.5167	FIXCROSS	n/a	n/a	n/a	n/a	n/a	n/a	n/a	n/a
331.0934	0.6667	COLOR_NAME	32	Incongruent	żółty	yellow	niebieski	blue	hit	n/a
331.7418	n/a	RESPONSE	n/a	n/a	n/a	n/a	n/a	n/a	n/a	yellow
331.7601	1.0167	ITI	n/a	n/a	n/a	n/a	n/a	n/a	n/a	n/a
332.7767	0.5167	FIXCROSS	n/a	n/a	n/a	n/a	n/a	n/a	n/a	n/a
333.2934	0.6833	COLOR_NAME	33	Neutral	zielony	green	Neutral	Neutral	hit	n/a
333.9492	n/a	RESPONSE	n/a	n/a	n/a	n/a	n/a	n/a	n/a	green
333.9767	1.0167	ITI	n/a	n/a	n/a	n/a	n/a	n/a	n/a	n/a
334.9934	0.5167	FIXCROSS	n/a	n/a	n/a	n/a	n/a	n/a	n/a	n/a
335.5101	0.65	COLOR_NAME	34	Incongruent	czerwony	red	niebieski	blue	hit	n/a
336.1407	n/a	RESPONSE	n/a	n/a	n/a	n/a	n/a	n/a	n/a	red
336.1601	1.0167	ITI	n/a	n/a	n/a	n/a	n/a	n/a	n/a	n/a
337.1768	0.5167	FIXCROSS	n/a	n/a	n/a	n/a	n/a	n/a	n/a	n/a
337.6935	0.4833	COLOR_NAME	35	Neutral	czerwony	red	Neutral	Neutral	hit	n/a
338.1562	n/a	RESPONSE	n/a	n/a	n/a	n/a	n/a	n/a	n/a	red
338.1768	1.0166	ITI	n/a	n/a	n/a	n/a	n/a	n/a	n/a	n/a
339.1934	0.5167	FIXCROSS	n/a	n/a	n/a	n/a	n/a	n/a	n/a	n/a
339.7101	0.45	COLOR_NAME	36	Neutral	niebieski	blue	Neutral	Neutral	hit	n/a
340.1397	n/a	RESPONSE	n/a	n/a	n/a	n/a	n/a	n/a	n/a	blue
340.1601	1.0167	ITI	n/a	n/a	n/a	n/a	n/a	n/a	n/a	n/a
341.1768	0.5167	FIXCROSS	n/a	n/a	n/a	n/a	n/a	n/a	n/a	n/a
341.6935	0.4667	COLOR_NAME	37	Neutral	żółty	yellow	Neutral	Neutral	hit	n/a
342.1392	n/a	RESPONSE	n/a	n/a	n/a	n/a	n/a	n/a	n/a	yellow
342.1601	1.0167	ITI	n/a	n/a	n/a	n/a	n/a	n/a	n/a	n/a
343.1768	0.5167	FIXCROSS	n/a	n/a	n/a	n/a	n/a	n/a	n/a	n/a
343.6935	0.5167	COLOR_NAME	38	Neutral	niebieski	blue	Neutral	Neutral	hit	n/a
344.1867	n/a	RESPONSE	n/a	n/a	n/a	n/a	n/a	n/a	n/a	blue
344.2101	1.0167	ITI	n/a	n/a	n/a	n/a	n/a	n/a	n/a	n/a
345.2268	0.5167	FIXCROSS	n/a	n/a	n/a	n/a	n/a	n/a	n/a	n/a
345.7435	0.6333	COLOR_NAME	39	Incongruent	niebieski	blue	żółty	yellow	hit	n/a
346.3462	n/a	RESPONSE	n/a	n/a	n/a	n/a	n/a	n/a	n/a	blue
346.3768	1.0167	ITI	n/a	n/a	n/a	n/a	n/a	n/a	n/a	n/a
347.3935	0.5167	FIXCROSS	n/a	n/a	n/a	n/a	n/a	n/a	n/a	n/a
347.9102	0.6	COLOR_NAME	40	Neutral	czerwony	red	Neutral	Neutral	hit	n/a
348.4896	n/a	RESPONSE	n/a	n/a	n/a	n/a	n/a	n/a	n/a	red
348.5102	1.0167	ITI	n/a	n/a	n/a	n/a	n/a	n/a	n/a	n/a
349.5269	0.5167	FIXCROSS	n/a	n/a	n/a	n/a	n/a	n/a	n/a	n/a
350.0435	0.6	COLOR_NAME	41	Neutral	zielony	green	Neutral	Neutral	hit	n/a
350.6171	n/a	RESPONSE	n/a	n/a	n/a	n/a	n/a	n/a	n/a	green
350.6435	1.0167	ITI	n/a	n/a	n/a	n/a	n/a	n/a	n/a	n/a
351.6602	0.5167	FIXCROSS	n/a	n/a	n/a	n/a	n/a	n/a	n/a	n/a
352.1769	0.5167	COLOR_NAME	42	Incongruent	zielony	green	żółty	yellow	hit	n/a
352.6646	n/a	RESPONSE	n/a	n/a	n/a	n/a	n/a	n/a	n/a	green
352.6936	1.0167	ITI	n/a	n/a	n/a	n/a	n/a	n/a	n/a	n/a
353.7102	0.5167	FIXCROSS	n/a	n/a	n/a	n/a	n/a	n/a	n/a	n/a
354.2269	0.55	COLOR_NAME	43	Incongruent	żółty	yellow	czerwony	red	hit	n/a
354.7441	n/a	RESPONSE	n/a	n/a	n/a	n/a	n/a	n/a	n/a	yellow
354.7769	1.0167	ITI	n/a	n/a	n/a	n/a	n/a	n/a	n/a	n/a
355.7936	0.5167	FIXCROSS	n/a	n/a	n/a	n/a	n/a	n/a	n/a	n/a
356.3102	0.7333	COLOR_NAME	44	Neutral	czerwony	red	Neutral	Neutral	hit	n/a
357.0155	n/a	RESPONSE	n/a	n/a	n/a	n/a	n/a	n/a	n/a	red
357.0436	1.0167	ITI	n/a	n/a	n/a	n/a	n/a	n/a	n/a	n/a
358.0603	0.5167	FIXCROSS	n/a	n/a	n/a	n/a	n/a	n/a	n/a	n/a
358.5769	0.5833	COLOR_NAME	45	Incongruent	czerwony	red	żółty	yellow	hit	n/a
359.127	n/a	RESPONSE	n/a	n/a	n/a	n/a	n/a	n/a	n/a	red
359.1603	1.0167	ITI	n/a	n/a	n/a	n/a	n/a	n/a	n/a	n/a
360.1769	0.5167	FIXCROSS	n/a	n/a	n/a	n/a	n/a	n/a	n/a	n/a
360.6936	0.5667	COLOR_NAME	46	Incongruent	żółty	yellow	czerwony	red	hit	n/a
361.2385	n/a	RESPONSE	n/a	n/a	n/a	n/a	n/a	n/a	n/a	yellow
361.2603	1.0167	ITI	n/a	n/a	n/a	n/a	n/a	n/a	n/a	n/a
362.2769	0.5167	FIXCROSS	n/a	n/a	n/a	n/a	n/a	n/a	n/a	n/a
362.7936	0.4	COLOR_NAME	47	Neutral	żółty	yellow	Neutral	Neutral	hit	n/a
363.174	n/a	RESPONSE	n/a	n/a	n/a	n/a	n/a	n/a	n/a	yellow
363.1936	1.0167	ITI	n/a	n/a	n/a	n/a	n/a	n/a	n/a	n/a
364.2103	0.5167	FIXCROSS	n/a	n/a	n/a	n/a	n/a	n/a	n/a	n/a
364.727	0.4	COLOR_NAME	48	Incongruent	żółty	yellow	zielony	green	hit	n/a
365.0935	n/a	RESPONSE	n/a	n/a	n/a	n/a	n/a	n/a	n/a	yellow
365.127	1.0167	ITI	n/a	n/a	n/a	n/a	n/a	n/a	n/a	n/a
366.1436	0.5167	FIXCROSS	n/a	n/a	n/a	n/a	n/a	n/a	n/a	n/a
366.6603	0.65	COLOR_NAME	49	Neutral	niebieski	blue	Neutral	Neutral	hit	n/a
367.285	n/a	RESPONSE	n/a	n/a	n/a	n/a	n/a	n/a	n/a	blue
367.3103	1.0167	ITI	n/a	n/a	n/a	n/a	n/a	n/a	n/a	n/a
368.327	0.5167	FIXCROSS	n/a	n/a	n/a	n/a	n/a	n/a	n/a	n/a
368.8437	0.5833	COLOR_NAME	50	Incongruent	żółty	yellow	niebieski	blue	hit	n/a
369.3965	n/a	RESPONSE	n/a	n/a	n/a	n/a	n/a	n/a	n/a	yellow
369.427	1.0167	ITI	n/a	n/a	n/a	n/a	n/a	n/a	n/a	n/a
370.4437	0.5167	FIXCROSS	n/a	n/a	n/a	n/a	n/a	n/a	n/a	n/a
370.9603	0.35	COLOR_NAME	51	Neutral	żółty	yellow	Neutral	Neutral	hit	n/a
371.284	n/a	RESPONSE	n/a	n/a	n/a	n/a	n/a	n/a	n/a	yellow
371.3103	1.0167	ITI	n/a	n/a	n/a	n/a	n/a	n/a	n/a	n/a
372.327	0.5167	FIXCROSS	n/a	n/a	n/a	n/a	n/a	n/a	n/a	n/a
372.8437	0.5667	COLOR_NAME	52	Incongruent	czerwony	red	zielony	green	hit	n/a
373.3794	n/a	RESPONSE	n/a	n/a	n/a	n/a	n/a	n/a	n/a	red
373.4104	1.0167	ITI	n/a	n/a	n/a	n/a	n/a	n/a	n/a	n/a
374.427	0.5167	FIXCROSS	n/a	n/a	n/a	n/a	n/a	n/a	n/a	n/a
374.9437	0.5833	COLOR_NAME	53	Incongruent	żółty	yellow	niebieski	blue	hit	n/a
375.5069	n/a	RESPONSE	n/a	n/a	n/a	n/a	n/a	n/a	n/a	yellow
375.527	1.0167	ITI	n/a	n/a	n/a	n/a	n/a	n/a	n/a	n/a
376.5437	0.5167	FIXCROSS	n/a	n/a	n/a	n/a	n/a	n/a	n/a	n/a
377.0604	0.6667	COLOR_NAME	54	Neutral	zielony	green	Neutral	Neutral	incorrect	n/a
377.6984	n/a	RESPONSE	n/a	n/a	n/a	n/a	n/a	n/a	n/a	red
377.727	1.0167	ITI	n/a	n/a	n/a	n/a	n/a	n/a	n/a	n/a
378.7437	0.5167	FIXCROSS	n/a	n/a	n/a	n/a	n/a	n/a	n/a	n/a
379.2604	0.4833	COLOR_NAME	55	Neutral	czerwony	red	Neutral	Neutral	hit	n/a
379.7139	n/a	RESPONSE	n/a	n/a	n/a	n/a	n/a	n/a	n/a	red
379.7437	1.0167	ITI	n/a	n/a	n/a	n/a	n/a	n/a	n/a	n/a
380.7604	0.5167	FIXCROSS	n/a	n/a	n/a	n/a	n/a	n/a	n/a	n/a
381.2771	0.6333	COLOR_NAME	56	Neutral	niebieski	blue	Neutral	Neutral	hit	n/a
381.8894	n/a	RESPONSE	n/a	n/a	n/a	n/a	n/a	n/a	n/a	blue
381.9104	1.0167	ITI	n/a	n/a	n/a	n/a	n/a	n/a	n/a	n/a
382.9271	0.5167	FIXCROSS	n/a	n/a	n/a	n/a	n/a	n/a	n/a	n/a
383.4438	0.85	COLOR_NAME	57	Incongruent	czerwony	red	zielony	green	hit	n/a
384.2728	n/a	RESPONSE	n/a	n/a	n/a	n/a	n/a	n/a	n/a	red
384.2938	1.0167	ITI	n/a	n/a	n/a	n/a	n/a	n/a	n/a	n/a
385.3104	0.5167	FIXCROSS	n/a	n/a	n/a	n/a	n/a	n/a	n/a	n/a
385.8271	0.4167	COLOR_NAME	58	Neutral	czerwony	red	Neutral	Neutral	hit	n/a
386.2243	n/a	RESPONSE	n/a	n/a	n/a	n/a	n/a	n/a	n/a	red
386.2438	1.0167	ITI	n/a	n/a	n/a	n/a	n/a	n/a	n/a	n/a
387.2604	0.5167	FIXCROSS	n/a	n/a	n/a	n/a	n/a	n/a	n/a	n/a
387.7771	0.5833	COLOR_NAME	59	Incongruent	niebieski	blue	zielony	green	hit	n/a
388.3357	n/a	RESPONSE	n/a	n/a	n/a	n/a	n/a	n/a	n/a	blue
388.3605	1.0167	ITI	n/a	n/a	n/a	n/a	n/a	n/a	n/a	n/a
389.3771	0.5167	FIXCROSS	n/a	n/a	n/a	n/a	n/a	n/a	n/a	n/a
389.8938	0.5167	COLOR_NAME	60	Incongruent	żółty	yellow	czerwony	red	hit	n/a
390.3832	n/a	RESPONSE	n/a	n/a	n/a	n/a	n/a	n/a	n/a	yellow
390.4105	1.0167	ITI	n/a	n/a	n/a	n/a	n/a	n/a	n/a	n/a
391.4271	0.5167	FIXCROSS	n/a	n/a	n/a	n/a	n/a	n/a	n/a	n/a
391.9438	0.9667	COLOR_NAME	61	Incongruent	zielony	green	niebieski	blue	hit	n/a
392.8786	n/a	RESPONSE	n/a	n/a	n/a	n/a	n/a	n/a	n/a	green
392.9105	1.0167	ITI	n/a	n/a	n/a	n/a	n/a	n/a	n/a	n/a
393.9272	0.5167	FIXCROSS	n/a	n/a	n/a	n/a	n/a	n/a	n/a	n/a
394.4438	0.4833	COLOR_NAME	62	Incongruent	zielony	green	czerwony	red	hit	n/a
394.8941	n/a	RESPONSE	n/a	n/a	n/a	n/a	n/a	n/a	n/a	green
394.9272	1.0167	ITI	n/a	n/a	n/a	n/a	n/a	n/a	n/a	n/a
395.9438	0.5167	FIXCROSS	n/a	n/a	n/a	n/a	n/a	n/a	n/a	n/a
396.4605	0.55	COLOR_NAME	63	Incongruent	zielony	green	żółty	yellow	hit	n/a
396.9896	n/a	RESPONSE	n/a	n/a	n/a	n/a	n/a	n/a	n/a	green
397.0105	1.0167	ITI	n/a	n/a	n/a	n/a	n/a	n/a	n/a	n/a
398.0272	0.5167	FIXCROSS	n/a	n/a	n/a	n/a	n/a	n/a	n/a	n/a
398.5439	0.6667	COLOR_NAME	64	Neutral	czerwony	red	Neutral	Neutral	hit	n/a
399.1811	n/a	RESPONSE	n/a	n/a	n/a	n/a	n/a	n/a	n/a	red
399.2105	1.0167	ITI	n/a	n/a	n/a	n/a	n/a	n/a	n/a	n/a
400.2272	0.5167	FIXCROSS	n/a	n/a	n/a	n/a	n/a	n/a	n/a	n/a
400.7439	0.7333	COLOR_NAME	65	Neutral	zielony	green	Neutral	Neutral	hit	n/a
401.4525	n/a	RESPONSE	n/a	n/a	n/a	n/a	n/a	n/a	n/a	green
401.4772	1.0167	ITI	n/a	n/a	n/a	n/a	n/a	n/a	n/a	n/a
402.4939	0.5167	FIXCROSS	n/a	n/a	n/a	n/a	n/a	n/a	n/a	n/a
403.0106	0.7	COLOR_NAME	66	Neutral	niebieski	blue	Neutral	Neutral	hit	n/a
403.692	n/a	RESPONSE	n/a	n/a	n/a	n/a	n/a	n/a	n/a	blue
403.7106	1.0167	ITI	n/a	n/a	n/a	n/a	n/a	n/a	n/a	n/a
404.7272	0.5167	FIXCROSS	n/a	n/a	n/a	n/a	n/a	n/a	n/a	n/a
405.2439	0.7833	COLOR_NAME	67	Neutral	zielony	green	Neutral	Neutral	hit	n/a
405.9953	n/a	RESPONSE	n/a	n/a	n/a	n/a	n/a	n/a	n/a	green
406.0272	1.0167	ITI	n/a	n/a	n/a	n/a	n/a	n/a	n/a	n/a
407.0439	0.5167	FIXCROSS	n/a	n/a	n/a	n/a	n/a	n/a	n/a	n/a
407.5606	0.8333	COLOR_NAME	68	Incongruent	zielony	green	żółty	yellow	hit	n/a
408.3628	n/a	RESPONSE	n/a	n/a	n/a	n/a	n/a	n/a	n/a	green
408.3939	1.0167	ITI	n/a	n/a	n/a	n/a	n/a	n/a	n/a	n/a
409.4106	0.5167	FIXCROSS	n/a	n/a	n/a	n/a	n/a	n/a	n/a	n/a
409.9273	0.4833	COLOR_NAME	69	Incongruent	zielony	green	niebieski	blue	hit	n/a
410.3783	n/a	RESPONSE	n/a	n/a	n/a	n/a	n/a	n/a	n/a	green
410.4106	1.0167	ITI	n/a	n/a	n/a	n/a	n/a	n/a	n/a	n/a
411.4273	0.5167	FIXCROSS	n/a	n/a	n/a	n/a	n/a	n/a	n/a	n/a
411.944	0.6333	COLOR_NAME	70	Neutral	niebieski	blue	Neutral	Neutral	hit	n/a
412.5538	n/a	RESPONSE	n/a	n/a	n/a	n/a	n/a	n/a	n/a	blue
412.5773	1.0167	ITI	n/a	n/a	n/a	n/a	n/a	n/a	n/a	n/a
413.594	0.5167	FIXCROSS	n/a	n/a	n/a	n/a	n/a	n/a	n/a	n/a
414.1106	0.4833	COLOR_NAME	71	Incongruent	niebieski	blue	żółty	yellow	hit	n/a
414.5692	n/a	RESPONSE	n/a	n/a	n/a	n/a	n/a	n/a	n/a	blue
414.594	1.0167	ITI	n/a	n/a	n/a	n/a	n/a	n/a	n/a	n/a
415.6106	0.5167	FIXCROSS	n/a	n/a	n/a	n/a	n/a	n/a	n/a	n/a
416.1273	0.5833	COLOR_NAME	72	Neutral	żółty	yellow	Neutral	Neutral	hit	n/a
416.6807	n/a	RESPONSE	n/a	n/a	n/a	n/a	n/a	n/a	n/a	yellow
416.7106	1.0333	ITI	n/a	n/a	n/a	n/a	n/a	n/a	n/a	n/a
420.8237	n/a	RESPONSE	n/a	n/a	n/a	n/a	n/a	n/a	n/a	n/a
