onset	duration	trial_type	melody_number	melody_part	key	sound	action
0.0	14.083	CUE_START	n/a	n/a	n/a	n/a	n/a
14.083	7.76	FIXCROSS	n/a	n/a	n/a	n/a	n/a
21.843	6.316	CUE_LISTEN	M4	1	n/a	n/a	n/a
28.158	7.758	FIXCROSS	n/a	n/a	n/a	n/a	n/a
35.916	6.325	CUE_PLAYBACK_BOTH_HANDS	M4	1	n/a	n/a	n/a
42.07	n/a	RESPONSE	M4	1	04	E3	press
42.129	n/a	RESPONSE	M4	1	17	F4	press
42.241	7.758	FIXCROSS	n/a	n/a	n/a	n/a	n/a
42.762	n/a	RESPONSE	M4	1	17	F4	release
48.015	n/a	RESPONSE	M4	1	04	E3	release
50.0	6.317	CUE_LISTEN	M4	2	n/a	n/a	n/a
56.316	7.758	FIXCROSS	n/a	n/a	n/a	n/a	n/a
64.075	6.325	CUE_PLAYBACK_BOTH_HANDS	M4	2	n/a	n/a	n/a
65.794	n/a	RESPONSE	M4	2	09	A3	press
65.805	n/a	RESPONSE	M4	2	19	G4	press
65.917	n/a	RESPONSE	M4	2	05	F3	press
66.29	n/a	RESPONSE	M4	2	23	B4	press
66.699	n/a	RESPONSE	M4	2	19	G4	release
66.79	n/a	RESPONSE	M4	2	21	A4	press
67.332	n/a	RESPONSE	M4	2	19	G4	press
68.305	n/a	RESPONSE	M4	2	17	F4	press
68.765	n/a	RESPONSE	M4	2	23	B4	release
68.843	n/a	RESPONSE	M4	2	21	A4	release
70.4	7.758	FIXCROSS	n/a	n/a	n/a	n/a	n/a
71.543	n/a	RESPONSE	M4	2	19	G4	release
71.664	n/a	RESPONSE	M4	2	05	F3	release
71.765	n/a	RESPONSE	M4	2	17	F4	release
71.768	n/a	RESPONSE	M4	2	09	A3	release
78.158	6.317	CUE_LISTEN	M1	1	n/a	n/a	n/a
84.475	7.758	FIXCROSS	n/a	n/a	n/a	n/a	n/a
92.233	6.317	CUE_PLAYBACK_RIGHT_HAND	M1	1	n/a	n/a	n/a
93.338	n/a	RESPONSE	M1	1	12	C4	press
93.698	n/a	RESPONSE	M1	1	12	C4	release
93.929	n/a	RESPONSE	M1	1	19	G4	press
94.47	n/a	RESPONSE	M1	1	16	E4	press
94.622	n/a	RESPONSE	M1	1	19	G4	release
94.863	n/a	RESPONSE	M1	1	16	E4	release
95.095	n/a	RESPONSE	M1	1	16	E4	press
95.665	n/a	RESPONSE	M1	1	17	F4	press
95.777	n/a	RESPONSE	M1	1	16	E4	release
96.258	n/a	RESPONSE	M1	1	14	D4	press
96.569	n/a	RESPONSE	M1	1	14	D4	release
96.6	n/a	RESPONSE	M1	1	17	F4	release
96.822	n/a	RESPONSE	M1	1	14	D4	press
97.423	n/a	RESPONSE	M1	1	12	C4	press
97.685	n/a	RESPONSE	M1	1	14	D4	release
97.725	n/a	RESPONSE	M1	1	16	E4	press
97.879	n/a	RESPONSE	M1	1	12	C4	release
98.07	n/a	RESPONSE	M1	1	19	G4	press
98.417	n/a	RESPONSE	M1	1	16	E4	release
98.55	7.759	FIXCROSS	n/a	n/a	n/a	n/a	n/a
98.752	n/a	RESPONSE	M1	1	19	G4	release
106.308	6.325	CUE_LISTEN	M1	2	n/a	n/a	n/a
112.633	7.758	FIXCROSS	n/a	n/a	n/a	n/a	n/a
120.392	6.317	CUE_PLAYBACK_RIGHT_HAND	M1	2	n/a	n/a	n/a
121.233	n/a	RESPONSE	M1	2	19	G4	press
121.778	n/a	RESPONSE	M1	2	16	E4	press
121.999	n/a	RESPONSE	M1	2	19	G4	release
122.1	n/a	RESPONSE	M1	2	16	E4	release
122.345	n/a	RESPONSE	M1	2	16	E4	press
122.894	n/a	RESPONSE	M1	2	17	F4	press
123.018	n/a	RESPONSE	M1	2	16	E4	release
123.437	n/a	RESPONSE	M1	2	14	D4	press
123.578	n/a	RESPONSE	M1	2	17	F4	release
123.762	n/a	RESPONSE	M1	2	14	D4	release
124.03	n/a	RESPONSE	M1	2	14	D4	press
124.652	n/a	RESPONSE	M1	2	12	C4	press
124.883	n/a	RESPONSE	M1	2	14	D4	release
125.034	n/a	RESPONSE	M1	2	16	E4	press
125.155	n/a	RESPONSE	M1	2	12	C4	release
125.367	n/a	RESPONSE	M1	2	12	C4	press
125.618	n/a	RESPONSE	M1	2	16	E4	release
125.849	n/a	RESPONSE	M1	2	12	C4	release
126.708	7.758	FIXCROSS	n/a	n/a	n/a	n/a	n/a
134.467	6.317	CUE_LISTEN	M5	1	n/a	n/a	n/a
140.783	7.758	FIXCROSS	n/a	n/a	n/a	n/a	n/a
148.542	6.325	CUE_PLAYBACK_BOTH_HANDS	M5	1	n/a	n/a	n/a
149.222	n/a	RESPONSE	M5	1	05	F3	press
149.263	n/a	RESPONSE	M5	1	21	A4	press
149.469	n/a	RESPONSE	M5	1	21	A4	release
149.703	n/a	RESPONSE	M5	1	09	A3	press
149.705	n/a	RESPONSE	M5	1	21	A4	press
149.903	n/a	RESPONSE	M5	1	21	A4	release
150.12	n/a	RESPONSE	M5	1	04	E3	press
150.149	n/a	RESPONSE	M5	1	21	A4	press
150.235	n/a	RESPONSE	M5	1	09	A3	release
150.54	n/a	RESPONSE	M5	1	09	A3	press
150.677	n/a	RESPONSE	M5	1	21	A4	release
150.775	n/a	RESPONSE	M5	1	04	E3	release
150.998	n/a	RESPONSE	M5	1	02	D3	press
151.009	n/a	RESPONSE	M5	1	21	A4	press
151.14	n/a	RESPONSE	M5	1	09	A3	release
151.214	n/a	RESPONSE	M5	1	21	A4	release
151.444	n/a	RESPONSE	M5	1	21	A4	press
151.465	n/a	RESPONSE	M5	1	09	A3	press
151.627	n/a	RESPONSE	M5	1	21	A4	release
151.728	n/a	RESPONSE	M5	1	02	D3	release
151.89	n/a	RESPONSE	M5	1	21	A4	press
151.89	n/a	RESPONSE	M5	1	00	C3	press
151.974	n/a	RESPONSE	M5	1	09	A3	release
152.304	n/a	RESPONSE	M5	1	09	A3	press
152.465	n/a	RESPONSE	M5	1	21	A4	release
152.517	n/a	RESPONSE	M5	1	00	C3	release
152.549	n/a	RESPONSE	M5	1	05	F3	release
152.749	n/a	RESPONSE	M5	1	05	F3	press
152.76	n/a	RESPONSE	M5	1	21	A4	press
152.812	n/a	RESPONSE	M5	1	09	A3	release
153.163	n/a	RESPONSE	M5	1	24	C5	press
153.174	n/a	RESPONSE	M5	1	09	A3	press
153.295	n/a	RESPONSE	M5	1	21	A4	release
153.579	n/a	RESPONSE	M5	1	04	E3	press
153.588	n/a	RESPONSE	M5	1	17	F4	press
153.669	n/a	RESPONSE	M5	1	09	A3	release
153.93	n/a	RESPONSE	M5	1	24	C5	release
154.032	n/a	RESPONSE	M5	1	09	A3	press
154.063	n/a	RESPONSE	M5	1	19	G4	press
154.155	n/a	RESPONSE	M5	1	04	E3	release
154.488	n/a	RESPONSE	M5	1	21	A4	press
154.509	n/a	RESPONSE	M5	1	02	D3	press
154.598	n/a	RESPONSE	M5	1	09	A3	release
154.699	n/a	RESPONSE	M5	1	19	G4	release
154.72	n/a	RESPONSE	M5	1	17	F4	release
154.867	7.758	FIXCROSS	n/a	n/a	n/a	n/a	n/a
154.962	n/a	RESPONSE	M5	1	09	A3	press
155.154	n/a	RESPONSE	M5	1	02	D3	release
155.384	n/a	RESPONSE	M5	1	00	C3	press
155.535	n/a	RESPONSE	M5	1	05	F3	release
155.548	n/a	RESPONSE	M5	1	09	A3	release
155.868	n/a	RESPONSE	M5	1	09	A3	press
156.979	n/a	RESPONSE	M5	1	00	C3	release
157.12	n/a	RESPONSE	M5	1	21	A4	release
157.292	n/a	RESPONSE	M5	1	09	A3	release
162.625	6.317	CUE_LISTEN	M5	2	n/a	n/a	n/a
168.942	7.758	FIXCROSS	n/a	n/a	n/a	n/a	n/a
176.7	6.317	CUE_PLAYBACK_BOTH_HANDS	M5	2	n/a	n/a	n/a
178.332	n/a	RESPONSE	M5	2	04	E3	press
178.384	n/a	RESPONSE	M5	2	21	A4	press
178.589	n/a	RESPONSE	M5	2	21	A4	release
178.818	n/a	RESPONSE	M5	2	21	A4	press
178.874	n/a	RESPONSE	M5	2	07	G3	press
178.882	n/a	RESPONSE	M5	2	09	A3	press
179.02	n/a	RESPONSE	M5	2	21	A4	release
179.225	n/a	RESPONSE	M5	2	09	A3	release
179.318	n/a	RESPONSE	M5	2	21	A4	press
179.559	n/a	RESPONSE	M5	2	07	G3	release
179.828	n/a	RESPONSE	M5	2	21	A4	release
179.839	n/a	RESPONSE	M5	2	04	E3	release
180.435	n/a	RESPONSE	M5	2	21	A4	press
180.438	n/a	RESPONSE	M5	2	02	D3	press
180.924	n/a	RESPONSE	M5	2	21	A4	release
181.014	n/a	RESPONSE	M5	2	07	G3	press
181.045	n/a	RESPONSE	M5	2	21	A4	press
181.244	n/a	RESPONSE	M5	2	21	A4	release
181.41	n/a	RESPONSE	M5	2	02	D3	release
181.6	n/a	RESPONSE	M5	2	00	C3	press
181.603	n/a	RESPONSE	M5	2	21	A4	press
181.695	n/a	RESPONSE	M5	2	07	G3	release
182.195	n/a	RESPONSE	M5	2	07	G3	press
182.367	n/a	RESPONSE	M5	2	21	A4	release
182.898	n/a	RESPONSE	M5	2	07	G3	release
182.94	n/a	RESPONSE	M5	2	00	C3	release
183.017	7.758	FIXCROSS	n/a	n/a	n/a	n/a	n/a
190.775	6.325	CUE_LISTEN	M5	1	n/a	n/a	n/a
197.1	7.758	FIXCROSS	n/a	n/a	n/a	n/a	n/a
204.859	6.325	CUE_PLAYBACK_BOTH_HANDS	M5	1	n/a	n/a	n/a
206.707	n/a	RESPONSE	M5	1	05	F3	press
206.749	n/a	RESPONSE	M5	1	21	A4	press
206.93	n/a	RESPONSE	M5	1	21	A4	release
207.189	n/a	RESPONSE	M5	1	09	A3	press
207.193	n/a	RESPONSE	M5	1	21	A4	press
207.363	n/a	RESPONSE	M5	1	21	A4	release
207.739	n/a	RESPONSE	M5	1	04	E3	press
207.747	n/a	RESPONSE	M5	1	21	A4	press
207.797	n/a	RESPONSE	M5	1	09	A3	release
207.833	n/a	RESPONSE	M5	1	05	F3	release
208.158	n/a	RESPONSE	M5	1	09	A3	press
208.23	n/a	RESPONSE	M5	1	21	A4	release
208.365	n/a	RESPONSE	M5	1	04	E3	release
208.603	n/a	RESPONSE	M5	1	21	A4	press
208.614	n/a	RESPONSE	M5	1	02	D3	press
208.737	n/a	RESPONSE	M5	1	09	A3	release
208.792	n/a	RESPONSE	M5	1	21	A4	release
209.024	n/a	RESPONSE	M5	1	21	A4	press
209.035	n/a	RESPONSE	M5	1	09	A3	press
209.21	n/a	RESPONSE	M5	1	21	A4	release
209.224	n/a	RESPONSE	M5	1	02	D3	release
209.448	n/a	RESPONSE	M5	1	00	C3	press
209.484	n/a	RESPONSE	M5	1	21	A4	press
209.548	n/a	RESPONSE	M5	1	09	A3	release
209.85	n/a	RESPONSE	M5	1	09	A3	press
209.99	n/a	RESPONSE	M5	1	21	A4	release
210.039	n/a	RESPONSE	M5	1	00	C3	release
210.254	n/a	RESPONSE	M5	1	05	F3	press
210.265	n/a	RESPONSE	M5	1	21	A4	press
210.297	n/a	RESPONSE	M5	1	09	A3	release
210.664	n/a	RESPONSE	M5	1	24	C5	press
210.668	n/a	RESPONSE	M5	1	09	A3	press
210.864	n/a	RESPONSE	M5	1	05	F3	release
211.07	n/a	RESPONSE	M5	1	17	F4	press
211.099	n/a	RESPONSE	M5	1	04	E3	press
211.137	n/a	RESPONSE	M5	1	21	A4	release
211.159	n/a	RESPONSE	M5	1	09	A3	release
211.184	7.758	FIXCROSS	n/a	n/a	n/a	n/a	n/a
211.465	n/a	RESPONSE	M5	1	09	A3	press
211.514	n/a	RESPONSE	M5	1	19	G4	press
211.525	n/a	RESPONSE	M5	1	24	C5	release
211.538	n/a	RESPONSE	M5	1	04	E3	release
211.868	n/a	RESPONSE	M5	1	21	A4	press
211.879	n/a	RESPONSE	M5	1	02	D3	press
211.96	n/a	RESPONSE	M5	1	09	A3	release
212.002	n/a	RESPONSE	M5	1	17	F4	release
212.334	n/a	RESPONSE	M5	1	09	A3	press
212.405	n/a	RESPONSE	M5	1	02	D3	release
212.557	n/a	RESPONSE	M5	1	00	C3	press
212.579	n/a	RESPONSE	M5	1	19	G4	release
212.712	n/a	RESPONSE	M5	1	09	A3	release
213.1	n/a	RESPONSE	M5	1	21	A4	release
213.582	n/a	RESPONSE	M5	1	00	C3	release
218.942	6.308	CUE_LISTEN	M5	2	n/a	n/a	n/a
225.25	14.083	FIXCROSS	n/a	n/a	n/a	n/a	n/a
233.009	n/a	CUE_PLAYBACK_BOTH_HANDS	M4	2	n/a	n/a	n/a
233.687	n/a	RESPONSE	M5	2	07	G3	press
233.718	n/a	RESPONSE	M5	2	22	A#4	press
233.939	n/a	RESPONSE	M5	2	22	A#4	release
234.13	n/a	RESPONSE	M5	2	22	A#4	press
234.162	n/a	RESPONSE	M5	2	10	A#3	press
234.323	n/a	RESPONSE	M5	2	22	A#4	release
234.574	n/a	RESPONSE	M5	2	04	E3	press
234.585	n/a	RESPONSE	M5	2	22	A#4	press
234.599	n/a	RESPONSE	M5	2	10	A#3	release
234.808	n/a	RESPONSE	M5	2	22	A#4	release
235.099	n/a	RESPONSE	M5	2	10	A#3	press
235.12	n/a	RESPONSE	M5	2	22	A#4	press
235.392	n/a	RESPONSE	M5	2	22	A#4	release
235.394	n/a	RESPONSE	M5	2	04	E3	release
235.464	n/a	RESPONSE	M5	2	07	G3	release
235.488	n/a	RESPONSE	M5	2	10	A#3	release
236.667	n/a	RESPONSE	M5	2	05	F3	press
236.718	n/a	RESPONSE	M5	2	22	A#4	press
237.87	n/a	RESPONSE	M5	2	22	A#4	release
237.932	n/a	RESPONSE	M5	2	21	A4	press
237.945	n/a	RESPONSE	M5	2	09	A3	press
238.062	n/a	RESPONSE	M5	2	05	F3	release
238.179	n/a	RESPONSE	M5	2	21	A4	release
238.692	n/a	RESPONSE	M5	2	00	C3	press
238.703	n/a	RESPONSE	M5	2	21	A4	press
238.862	n/a	RESPONSE	M5	2	09	A3	release
239.059	n/a	RESPONSE	M5	2	21	A4	release
239.334	7.758	FIXCROSS	n/a	n/a	n/a	n/a	n/a
239.395	n/a	RESPONSE	M5	2	21	A4	press
239.417	n/a	RESPONSE	M5	2	09	A3	press
239.577	n/a	RESPONSE	M5	2	00	C3	release
239.989	n/a	RESPONSE	M5	2	00	C3	press
239.997	n/a	RESPONSE	M5	2	24	C5	press
240.12	n/a	RESPONSE	M5	2	09	A3	release
240.163	n/a	RESPONSE	M5	2	21	A4	release
240.315	n/a	RESPONSE	M5	2	24	C5	release
240.622	n/a	RESPONSE	M5	2	24	C5	press
240.635	n/a	RESPONSE	M5	2	07	G3	press
241.279	n/a	RESPONSE	M5	2	00	C3	release
241.678	n/a	RESPONSE	M5	2	24	C5	release
242.047	n/a	RESPONSE	M5	2	07	G3	release
247.092	6.317	CUE_LISTEN	M2	1	n/a	n/a	n/a
253.409	7.758	FIXCROSS	n/a	n/a	n/a	n/a	n/a
261.167	6.325	CUE_PLAYBACK_RIGHT_HAND	M2	1	n/a	n/a	n/a
261.89	n/a	RESPONSE	M2	1	24	C5	press
262.3	n/a	RESPONSE	M2	1	19	G4	press
262.522	n/a	RESPONSE	M2	1	19	G4	release
262.783	n/a	RESPONSE	M2	1	19	G4	press
263.177	n/a	RESPONSE	M2	1	17	F4	press
263.275	n/a	RESPONSE	M2	1	24	C5	release
263.557	n/a	RESPONSE	M2	1	19	G4	release
263.598	n/a	RESPONSE	M2	1	16	E4	press
264.449	n/a	RESPONSE	M2	1	16	E4	release
264.52	n/a	RESPONSE	M2	1	19	G4	press
265.334	n/a	RESPONSE	M2	1	19	G4	release
265.683	n/a	RESPONSE	M2	1	17	F4	release
267.492	7.758	FIXCROSS	n/a	n/a	n/a	n/a	n/a
275.25	6.317	CUE_LISTEN	M2	2	n/a	n/a	n/a
281.567	7.758	FIXCROSS	n/a	n/a	n/a	n/a	n/a
289.326	6.317	CUE_PLAYBACK_RIGHT_HAND	M2	2	n/a	n/a	n/a
289.994	n/a	RESPONSE	M2	2	24	C5	press
290.474	n/a	RESPONSE	M2	2	19	G4	press
290.68	n/a	RESPONSE	M2	2	24	C5	release
290.718	n/a	RESPONSE	M2	2	19	G4	release
290.927	n/a	RESPONSE	M2	2	19	G4	press
291.403	n/a	RESPONSE	M2	2	17	F4	press
291.554	n/a	RESPONSE	M2	2	19	G4	release
291.855	n/a	RESPONSE	M2	2	16	E4	press
291.979	n/a	RESPONSE	M2	2	17	F4	release
292.309	n/a	RESPONSE	M2	2	14	D4	press
292.44	n/a	RESPONSE	M2	2	16	E4	release
292.824	n/a	RESPONSE	M2	2	12	C4	press
293.224	n/a	RESPONSE	M2	2	14	D4	release
293.454	n/a	RESPONSE	M2	2	12	C4	release
295.642	7.758	FIXCROSS	n/a	n/a	n/a	n/a	n/a
303.4	6.325	CUE_LISTEN	M2	1	n/a	n/a	n/a
309.725	7.759	FIXCROSS	n/a	n/a	n/a	n/a	n/a
317.484	6.317	CUE_PLAYBACK_RIGHT_HAND	M2	1	n/a	n/a	n/a
318.232	n/a	RESPONSE	M2	1	12	C4	press
318.715	n/a	RESPONSE	M2	1	14	D4	press
318.989	n/a	RESPONSE	M2	1	12	C4	release
319.228	n/a	RESPONSE	M2	1	16	E4	press
319.392	n/a	RESPONSE	M2	1	14	D4	release
319.748	n/a	RESPONSE	M2	1	14	D4	press
319.928	n/a	RESPONSE	M2	1	16	E4	release
320.262	n/a	RESPONSE	M2	1	16	E4	press
320.384	n/a	RESPONSE	M2	1	14	D4	release
320.804	n/a	RESPONSE	M2	1	17	F4	press
321.296	n/a	RESPONSE	M2	1	19	G4	press
321.439	n/a	RESPONSE	M2	1	16	E4	release
321.478	n/a	RESPONSE	M2	1	17	F4	release
322.25	n/a	RESPONSE	M2	1	19	G4	release
323.8	7.758	FIXCROSS	n/a	n/a	n/a	n/a	n/a
331.559	6.317	CUE_LISTEN	M2	2	n/a	n/a	n/a
337.876	7.758	FIXCROSS	n/a	n/a	n/a	n/a	n/a
345.634	6.325	CUE_PLAYBACK_RIGHT_HAND	M2	2	n/a	n/a	n/a
346.263	n/a	RESPONSE	M2	2	16	E4	press
346.744	n/a	RESPONSE	M2	2	19	G4	press
346.916	n/a	RESPONSE	M2	2	16	E4	release
347.047	n/a	RESPONSE	M2	2	19	G4	release
347.238	n/a	RESPONSE	M2	2	19	G4	press
347.708	n/a	RESPONSE	M2	2	17	F4	press
347.734	n/a	RESPONSE	M2	2	16	E4	press
348.092	n/a	RESPONSE	M2	2	16	E4	release
348.2	n/a	RESPONSE	M2	2	16	E4	press
348.28	n/a	RESPONSE	M2	2	17	F4	release
348.716	n/a	RESPONSE	M2	2	14	D4	press
348.779	n/a	RESPONSE	M2	2	16	E4	release
348.809	n/a	RESPONSE	M2	2	19	G4	release
349.249	n/a	RESPONSE	M2	2	12	C4	press
349.382	n/a	RESPONSE	M2	2	14	D4	release
349.594	n/a	RESPONSE	M2	2	12	C4	release
351.959	7.758	FIXCROSS	n/a	n/a	n/a	n/a	n/a
359.717	6.325	CUE_LISTEN	M3	1	n/a	n/a	n/a
366.042	7.759	FIXCROSS	n/a	n/a	n/a	n/a	n/a
373.801	6.308	CUE_PLAYBACK_BOTH_HANDS	M3	1	n/a	n/a	n/a
374.656	n/a	RESPONSE	M3	1	00	C3	press
374.697	n/a	RESPONSE	M3	1	12	C4	press
375.538	n/a	RESPONSE	M3	1	04	E3	press
375.55	n/a	RESPONSE	M3	1	14	D4	press
375.74	n/a	RESPONSE	M3	1	12	C4	release
376.242	n/a	RESPONSE	M3	1	00	C3	release
376.384	n/a	RESPONSE	M3	1	05	F3	press
376.387	n/a	RESPONSE	M3	1	16	E4	press
376.448	n/a	RESPONSE	M3	1	04	E3	release
376.527	n/a	RESPONSE	M3	1	14	D4	release
376.928	n/a	RESPONSE	M3	1	05	F3	release
376.959	n/a	RESPONSE	M3	1	16	E4	release
378.053	n/a	RESPONSE	M3	1	12	C4	press
379.827	n/a	RESPONSE	M3	1	07	G3	press
379.847	n/a	RESPONSE	M3	1	16	E4	press
380.109	7.758	FIXCROSS	n/a	n/a	n/a	n/a	n/a
380.219	n/a	RESPONSE	M3	1	12	C4	release
380.532	n/a	RESPONSE	M3	1	16	E4	release
380.718	n/a	RESPONSE	M3	1	07	G3	release
387.867	6.325	CUE_LISTEN	M3	2	n/a	n/a	n/a
394.192	7.758	FIXCROSS	n/a	n/a	n/a	n/a	n/a
401.951	6.317	CUE_PLAYBACK_BOTH_HANDS	M3	2	n/a	n/a	n/a
402.969	n/a	RESPONSE	M3	2	00	C3	press
402.992	n/a	RESPONSE	M3	2	16	E4	press
403.552	n/a	RESPONSE	M3	2	17	F4	press
403.554	n/a	RESPONSE	M3	2	07	G3	press
403.854	n/a	RESPONSE	M3	2	00	C3	release
404.136	n/a	RESPONSE	M3	2	04	E3	press
404.147	n/a	RESPONSE	M3	2	19	G4	press
404.26	n/a	RESPONSE	M3	2	07	G3	release
404.759	n/a	RESPONSE	M3	2	07	G3	press
404.8	n/a	RESPONSE	M3	2	16	E4	release
404.972	n/a	RESPONSE	M3	2	04	E3	release
405.333	n/a	RESPONSE	M3	2	00	C3	press
405.357	n/a	RESPONSE	M3	2	16	E4	press
405.446	n/a	RESPONSE	M3	2	19	G4	release
405.448	n/a	RESPONSE	M3	2	07	G3	release
405.538	n/a	RESPONSE	M3	2	17	F4	release
405.969	n/a	RESPONSE	M3	2	17	F4	press
405.973	n/a	RESPONSE	M3	2	07	G3	press
406.122	n/a	RESPONSE	M3	2	00	C3	release
406.543	n/a	RESPONSE	M3	2	04	E3	press
406.584	n/a	RESPONSE	M3	2	19	G4	press
406.656	n/a	RESPONSE	M3	2	07	G3	release
406.739	n/a	RESPONSE	M3	2	16	E4	release
406.858	n/a	RESPONSE	M3	2	17	F4	release
407.189	n/a	RESPONSE	M3	2	07	G3	press
407.373	n/a	RESPONSE	M3	2	04	E3	release
407.682	n/a	RESPONSE	M3	2	19	G4	release
407.779	n/a	RESPONSE	M3	2	07	G3	release
408.267	7.767	FIXCROSS	n/a	n/a	n/a	n/a	n/a
416.034	6.308	CUE_LISTEN	M3	1	n/a	n/a	n/a
422.342	7.758	FIXCROSS	n/a	n/a	n/a	n/a	n/a
430.101	6.325	CUE_PLAYBACK_BOTH_HANDS	M3	1	n/a	n/a	n/a
430.719	n/a	RESPONSE	M3	1	00	C3	press
430.734	n/a	RESPONSE	M3	1	19	G4	press
431.069	n/a	RESPONSE	M3	1	21	A4	press
431.204	n/a	RESPONSE	M3	1	19	G4	release
431.38	n/a	RESPONSE	M3	1	19	G4	press
431.392	n/a	RESPONSE	M3	1	07	G3	press
431.726	n/a	RESPONSE	M3	1	17	F4	press
431.984	n/a	RESPONSE	M3	1	04	E3	press
432.056	n/a	RESPONSE	M3	1	16	E4	press
432.147	n/a	RESPONSE	M3	1	07	G3	release
432.168	n/a	RESPONSE	M3	1	00	C3	release
432.67	n/a	RESPONSE	M3	1	07	G3	press
432.722	n/a	RESPONSE	M3	1	12	C4	press
432.793	n/a	RESPONSE	M3	1	04	E3	release
432.854	n/a	RESPONSE	M3	1	16	E4	release
432.866	n/a	RESPONSE	M3	1	19	G4	release
432.877	n/a	RESPONSE	M3	1	17	F4	release
433.338	n/a	RESPONSE	M3	1	00	C3	press
433.359	n/a	RESPONSE	M3	1	19	G4	press
433.42	n/a	RESPONSE	M3	1	21	A4	release
433.472	n/a	RESPONSE	M3	1	07	G3	release
433.773	n/a	RESPONSE	M3	1	21	A4	press
433.894	n/a	RESPONSE	M3	1	19	G4	release
433.946	n/a	RESPONSE	M3	1	12	C4	release
434.077	n/a	RESPONSE	M3	1	19	G4	press
434.088	n/a	RESPONSE	M3	1	07	G3	press
434.199	n/a	RESPONSE	M3	1	00	C3	release
434.423	n/a	RESPONSE	M3	1	17	F4	press
434.804	n/a	RESPONSE	M3	1	04	E3	press
434.833	n/a	RESPONSE	M3	1	16	E4	press
434.957	n/a	RESPONSE	M3	1	07	G3	release
435.546	n/a	RESPONSE	M3	1	07	G3	press
435.629	n/a	RESPONSE	M3	1	12	C4	press
435.678	n/a	RESPONSE	M3	1	21	A4	release
435.699	n/a	RESPONSE	M3	1	04	E3	release
435.71	n/a	RESPONSE	M3	1	19	G4	release
435.812	n/a	RESPONSE	M3	1	17	F4	release
435.814	n/a	RESPONSE	M3	1	16	E4	release
436.384	n/a	RESPONSE	M3	1	12	C4	release
436.406	n/a	RESPONSE	M3	1	07	G3	release
436.426	7.758	FIXCROSS	n/a	n/a	n/a	n/a	n/a
444.184	6.317	CUE_LISTEN	M3	2	n/a	n/a	n/a
450.501	7.758	FIXCROSS	n/a	n/a	n/a	n/a	n/a
458.259	6.317	CUE_PLAYBACK_BOTH_HANDS	M3	2	n/a	n/a	n/a
458.893	n/a	RESPONSE	M3	2	00	C3	press
458.909	n/a	RESPONSE	M3	2	12	C4	press
459.427	n/a	RESPONSE	M3	2	07	G3	press
459.577	n/a	RESPONSE	M3	2	00	C3	release
459.64	n/a	RESPONSE	M3	2	12	C4	release
459.943	n/a	RESPONSE	M3	2	00	C3	press
459.946	n/a	RESPONSE	M3	2	12	C4	press
460.089	n/a	RESPONSE	M3	2	07	G3	release
460.729	n/a	RESPONSE	M3	2	00	C3	release
460.737	n/a	RESPONSE	M3	2	12	C4	release
461.059	n/a	RESPONSE	M3	2	00	C3	press
461.094	n/a	RESPONSE	M3	2	12	C4	press
461.647	n/a	RESPONSE	M3	2	07	G3	press
461.76	n/a	RESPONSE	M3	2	00	C3	release
461.839	n/a	RESPONSE	M3	2	12	C4	release
462.151	n/a	RESPONSE	M3	2	00	C3	press
462.162	n/a	RESPONSE	M3	2	12	C4	press
462.254	n/a	RESPONSE	M3	2	07	G3	release
462.876	n/a	RESPONSE	M3	2	00	C3	release
462.887	n/a	RESPONSE	M3	2	12	C4	release
464.576	7.758	FIXCROSS	n/a	n/a	n/a	n/a	n/a
472.334	6.325	CUE_LISTEN	M5	1	n/a	n/a	n/a
478.659	7.758	FIXCROSS	n/a	n/a	n/a	n/a	n/a
486.418	6.317	CUE_PLAYBACK_RIGHT_HAND	M5	1	n/a	n/a	n/a
487.136	n/a	RESPONSE	M5	1	21	A4	press
487.317	n/a	RESPONSE	M5	1	21	A4	release
487.46	n/a	RESPONSE	M5	1	21	A4	press
487.639	n/a	RESPONSE	M5	1	21	A4	release
487.818	n/a	RESPONSE	M5	1	21	A4	press
488.226	n/a	RESPONSE	M5	1	21	A4	release
488.423	n/a	RESPONSE	M5	1	21	A4	press
488.636	n/a	RESPONSE	M5	1	21	A4	release
488.772	n/a	RESPONSE	M5	1	21	A4	press
488.953	n/a	RESPONSE	M5	1	21	A4	release
489.109	n/a	RESPONSE	M5	1	21	A4	press
489.47	n/a	RESPONSE	M5	1	21	A4	release
489.683	n/a	RESPONSE	M5	1	21	A4	press
489.972	n/a	RESPONSE	M5	1	24	C5	press
490.104	n/a	RESPONSE	M5	1	21	A4	release
490.277	n/a	RESPONSE	M5	1	17	F4	press
490.593	n/a	RESPONSE	M5	1	19	G4	press
490.714	n/a	RESPONSE	M5	1	24	C5	release
490.953	n/a	RESPONSE	M5	1	21	A4	press
491.072	n/a	RESPONSE	M5	1	17	F4	release
491.39	n/a	RESPONSE	M5	1	19	G4	release
492.243	n/a	RESPONSE	M5	1	21	A4	release
492.734	7.758	FIXCROSS	n/a	n/a	n/a	n/a	n/a
497.497	n/a	RESPONSE	M5	1	21	A4	press
500.493	6.325	CUE_LISTEN	M5	2	n/a	n/a	n/a
503.204	n/a	RESPONSE	M5	2	21	A4	release
506.818	7.758	FIXCROSS	n/a	n/a	n/a	n/a	n/a
514.576	6.317	CUE_PLAYBACK_RIGHT_HAND	M5	2	n/a	n/a	n/a
515.096	n/a	RESPONSE	M5	2	22	A#4	press
515.307	n/a	RESPONSE	M5	2	22	A#4	release
515.458	n/a	RESPONSE	M5	2	22	A#4	press
515.649	n/a	RESPONSE	M5	2	22	A#4	release
515.833	n/a	RESPONSE	M5	2	22	A#4	press
516.052	n/a	RESPONSE	M5	2	22	A#4	release
516.243	n/a	RESPONSE	M5	2	22	A#4	press
516.414	n/a	RESPONSE	M5	2	22	A#4	release
516.626	n/a	RESPONSE	M5	2	22	A#4	press
517.027	n/a	RESPONSE	M5	2	21	A4	press
517.258	n/a	RESPONSE	M5	2	21	A4	release
517.459	n/a	RESPONSE	M5	2	21	A4	press
517.64	n/a	RESPONSE	M5	2	22	A#4	release
517.698	n/a	RESPONSE	M5	2	21	A4	release
517.869	n/a	RESPONSE	M5	2	21	A4	press
518.056	n/a	RESPONSE	M5	2	21	A4	release
518.256	n/a	RESPONSE	M5	2	21	A4	press
518.654	n/a	RESPONSE	M5	2	19	G4	press
518.757	n/a	RESPONSE	M5	2	21	A4	release
518.876	n/a	RESPONSE	M5	2	19	G4	release
519.049	n/a	RESPONSE	M5	2	19	G4	press
519.454	n/a	RESPONSE	M5	2	21	A4	press
519.564	n/a	RESPONSE	M5	2	19	G4	release
519.859	n/a	RESPONSE	M5	2	19	G4	press
520.236	n/a	RESPONSE	M5	2	24	C5	press
520.344	n/a	RESPONSE	M5	2	21	A4	release
520.401	n/a	RESPONSE	M5	2	19	G4	release
520.893	7.758	FIXCROSS	n/a	n/a	n/a	n/a	n/a
520.983	n/a	RESPONSE	M5	2	24	C5	release
528.651	6.317	CUE_LISTEN	M5	1	n/a	n/a	n/a
534.968	7.758	FIXCROSS	n/a	n/a	n/a	n/a	n/a
542.726	6.325	CUE_PLAYBACK_RIGHT_HAND	M5	1	n/a	n/a	n/a
543.319	n/a	RESPONSE	M5	1	21	A4	press
543.54	n/a	RESPONSE	M5	1	21	A4	release
543.634	n/a	RESPONSE	M5	1	21	A4	press
543.836	n/a	RESPONSE	M5	1	21	A4	release
543.974	n/a	RESPONSE	M5	1	21	A4	press
544.366	n/a	RESPONSE	M5	1	21	A4	release
544.547	n/a	RESPONSE	M5	1	21	A4	press
544.738	n/a	RESPONSE	M5	1	21	A4	release
544.859	n/a	RESPONSE	M5	1	21	A4	press
545.061	n/a	RESPONSE	M5	1	21	A4	release
545.202	n/a	RESPONSE	M5	1	21	A4	press
545.566	n/a	RESPONSE	M5	1	21	A4	release
545.774	n/a	RESPONSE	M5	1	21	A4	press
546.086	n/a	RESPONSE	M5	1	24	C5	press
546.178	n/a	RESPONSE	M5	1	21	A4	release
546.428	n/a	RESPONSE	M5	1	17	F4	press
546.731	n/a	RESPONSE	M5	1	24	C5	release
546.74	n/a	RESPONSE	M5	1	19	G4	press
546.972	n/a	RESPONSE	M5	1	17	F4	release
547.053	n/a	RESPONSE	M5	1	21	A4	press
547.264	n/a	RESPONSE	M5	1	19	G4	release
547.992	n/a	RESPONSE	M5	1	21	A4	release
549.051	7.758	FIXCROSS	n/a	n/a	n/a	n/a	n/a
556.81	6.317	CUE_LISTEN	M5	2	n/a	n/a	n/a
563.126	7.758	FIXCROSS	n/a	n/a	n/a	n/a	n/a
570.884	6.317	CUE_PLAYBACK_RIGHT_HAND	M5	2	n/a	n/a	n/a
571.471	n/a	RESPONSE	M5	2	22	A#4	press
571.702	n/a	RESPONSE	M5	2	22	A#4	release
571.803	n/a	RESPONSE	M5	2	22	A#4	press
571.974	n/a	RESPONSE	M5	2	22	A#4	release
572.126	n/a	RESPONSE	M5	2	22	A#4	press
572.308	n/a	RESPONSE	M5	2	22	A#4	release
572.459	n/a	RESPONSE	M5	2	22	A#4	press
572.651	n/a	RESPONSE	M5	2	22	A#4	release
572.852	n/a	RESPONSE	M5	2	22	A#4	press
573.234	n/a	RESPONSE	M5	2	21	A4	press
573.434	n/a	RESPONSE	M5	2	22	A#4	release
573.487	n/a	RESPONSE	M5	2	21	A4	release
573.657	n/a	RESPONSE	M5	2	21	A4	press
573.848	n/a	RESPONSE	M5	2	21	A4	release
574.019	n/a	RESPONSE	M5	2	21	A4	press
574.441	n/a	RESPONSE	M5	2	24	C5	press
574.592	n/a	RESPONSE	M5	2	21	A4	release
574.713	n/a	RESPONSE	M5	2	24	C5	release
574.864	n/a	RESPONSE	M5	2	24	C5	press
575.288	n/a	RESPONSE	M5	2	22	A#4	press
575.377	n/a	RESPONSE	M5	2	24	C5	release
575.728	n/a	RESPONSE	M5	2	19	G4	press
575.892	n/a	RESPONSE	M5	2	22	A#4	release
576.163	n/a	RESPONSE	M5	2	16	E4	press
576.172	n/a	RESPONSE	M5	2	17	F4	press
576.423	n/a	RESPONSE	M5	2	19	G4	release
576.494	n/a	RESPONSE	M5	2	17	F4	release
576.516	n/a	RESPONSE	M5	2	16	E4	release
576.877	n/a	RESPONSE	M5	2	17	F4	press
577.201	7.758	FIXCROSS	n/a	n/a	n/a	n/a	n/a
577.258	n/a	RESPONSE	M5	2	17	F4	release
584.96	6.325	CUE_LISTEN	M1	1	n/a	n/a	n/a
591.284	7.758	FIXCROSS	n/a	n/a	n/a	n/a	n/a
599.043	6.317	CUE_PLAYBACK_BOTH_HANDS	M1	1	n/a	n/a	n/a
599.939	n/a	RESPONSE	M1	1	00	C3	press
599.942	n/a	RESPONSE	M1	1	07	G3	press
599.944	n/a	RESPONSE	M1	1	19	G4	press
599.947	n/a	RESPONSE	M1	1	04	E3	press
600.478	n/a	RESPONSE	M1	1	16	E4	press
600.692	n/a	RESPONSE	M1	1	19	G4	release
600.799	n/a	RESPONSE	M1	1	16	E4	release
601.028	n/a	RESPONSE	M1	1	16	E4	press
601.247	n/a	RESPONSE	M1	1	04	E3	release
601.317	n/a	RESPONSE	M1	1	00	C3	release
601.598	n/a	RESPONSE	M1	1	02	D3	press
601.609	n/a	RESPONSE	M1	1	17	F4	press
601.67	n/a	RESPONSE	M1	1	05	F3	press
601.702	n/a	RESPONSE	M1	1	16	E4	release
602.194	n/a	RESPONSE	M1	1	14	D4	press
602.326	n/a	RESPONSE	M1	1	17	F4	release
602.497	n/a	RESPONSE	M1	1	14	D4	release
602.798	n/a	RESPONSE	M1	1	14	D4	press
603.029	n/a	RESPONSE	M1	1	05	F3	release
603.032	n/a	RESPONSE	M1	1	02	D3	release
603.034	n/a	RESPONSE	M1	1	07	G3	release
603.353	n/a	RESPONSE	M1	1	04	E3	press
603.377	n/a	RESPONSE	M1	1	07	G3	press
603.426	n/a	RESPONSE	M1	1	00	C3	press
603.457	n/a	RESPONSE	M1	1	12	C4	press
603.628	n/a	RESPONSE	M1	1	14	D4	release
603.789	n/a	RESPONSE	M1	1	16	E4	press
603.961	n/a	RESPONSE	M1	1	12	C4	release
604.194	n/a	RESPONSE	M1	1	19	G4	press
604.353	n/a	RESPONSE	M1	1	16	E4	release
604.927	n/a	RESPONSE	M1	1	00	C3	release
604.946	n/a	RESPONSE	M1	1	07	G3	release
605.079	n/a	RESPONSE	M1	1	04	E3	release
605.098	n/a	RESPONSE	M1	1	19	G4	release
605.36	7.758	FIXCROSS	n/a	n/a	n/a	n/a	n/a
613.118	6.325	CUE_LISTEN	M1	2	n/a	n/a	n/a
619.443	7.758	FIXCROSS	n/a	n/a	n/a	n/a	n/a
619.608	n/a	RESPONSE	M1	2	04	E3	press
627.201	6.317	CUE_PLAYBACK_BOTH_HANDS	M1	2	n/a	n/a	n/a
627.387	n/a	RESPONSE	M1	2	04	E3	release
628.472	n/a	RESPONSE	M1	2	19	G4	press
628.477	n/a	RESPONSE	M1	2	04	E3	press
628.486	n/a	RESPONSE	M1	2	07	G3	press
628.501	n/a	RESPONSE	M1	2	00	C3	press
628.997	n/a	RESPONSE	M1	2	16	E4	press
629.214	n/a	RESPONSE	M1	2	19	G4	release
629.279	n/a	RESPONSE	M1	2	16	E4	release
629.538	n/a	RESPONSE	M1	2	16	E4	press
629.707	n/a	RESPONSE	M1	2	00	C3	release
629.793	n/a	RESPONSE	M1	2	04	E3	release
629.803	n/a	RESPONSE	M1	2	07	G3	release
630.058	n/a	RESPONSE	M1	2	07	G3	press
630.078	n/a	RESPONSE	M1	2	17	F4	press
630.087	n/a	RESPONSE	M1	2	04	E3	press
630.109	n/a	RESPONSE	M1	2	02	D3	press
630.179	n/a	RESPONSE	M1	2	16	E4	release
630.327	n/a	RESPONSE	M1	2	04	E3	release
630.652	n/a	RESPONSE	M1	2	14	D4	press
630.761	n/a	RESPONSE	M1	2	17	F4	release
630.952	n/a	RESPONSE	M1	2	14	D4	release
631.201	n/a	RESPONSE	M1	2	14	D4	press
631.371	n/a	RESPONSE	M1	2	02	D3	release
631.422	n/a	RESPONSE	M1	2	07	G3	release
631.763	n/a	RESPONSE	M1	2	07	G3	press
631.766	n/a	RESPONSE	M1	2	04	E3	press
631.776	n/a	RESPONSE	M1	2	00	C3	press
631.778	n/a	RESPONSE	M1	2	12	C4	press
631.938	n/a	RESPONSE	M1	2	14	D4	release
632.101	n/a	RESPONSE	M1	2	16	E4	press
632.202	n/a	RESPONSE	M1	2	12	C4	release
632.443	n/a	RESPONSE	M1	2	12	C4	press
632.837	n/a	RESPONSE	M1	2	16	E4	release
633.306	n/a	RESPONSE	M1	2	07	G3	release
633.337	n/a	RESPONSE	M1	2	00	C3	release
633.371	n/a	RESPONSE	M1	2	12	C4	release
633.391	n/a	RESPONSE	M1	2	04	E3	release
633.518	7.758	FIXCROSS	n/a	n/a	n/a	n/a	n/a
641.276	6.317	CUE_LISTEN	M4	1	n/a	n/a	n/a
647.593	7.758	FIXCROSS	n/a	n/a	n/a	n/a	n/a
655.351	6.325	CUE_PLAYBACK_RIGHT_HAND	M4	1	n/a	n/a	n/a
657.667	n/a	RESPONSE	M4	1	12	C4	press
658.064	n/a	RESPONSE	M4	1	16	E4	press
658.658	n/a	RESPONSE	M4	1	17	F4	press
658.846	n/a	RESPONSE	M4	1	16	E4	release
659.138	n/a	RESPONSE	M4	1	17	F4	release
659.197	n/a	RESPONSE	M4	1	12	C4	release
659.458	n/a	RESPONSE	M4	1	12	C4	press
659.701	n/a	RESPONSE	M4	1	16	E4	press
659.993	n/a	RESPONSE	M4	1	19	G4	press
660.107	n/a	RESPONSE	M4	1	16	E4	release
660.246	n/a	RESPONSE	M4	1	12	C4	release
660.252	n/a	RESPONSE	M4	1	17	F4	press
660.552	n/a	RESPONSE	M4	1	16	E4	press
660.858	n/a	RESPONSE	M4	1	14	D4	press
660.916	n/a	RESPONSE	M4	1	16	E4	release
661.146	n/a	RESPONSE	M4	1	19	G4	release
661.188	n/a	RESPONSE	M4	1	16	E4	press
661.324	n/a	RESPONSE	M4	1	17	F4	release
661.416	n/a	RESPONSE	M4	1	14	D4	release
661.676	7.758	FIXCROSS	n/a	n/a	n/a	n/a	n/a
661.707	n/a	RESPONSE	M4	1	16	E4	release
669.435	6.317	CUE_LISTEN	M4	2	n/a	n/a	n/a
675.751	7.759	FIXCROSS	n/a	n/a	n/a	n/a	n/a
683.51	6.317	CUE_PLAYBACK_RIGHT_HAND	M4	2	n/a	n/a	n/a
684.349	n/a	RESPONSE	M4	2	12	C4	press
684.761	n/a	RESPONSE	M4	2	17	F4	press
685.014	n/a	RESPONSE	M4	2	12	C4	release
685.544	n/a	RESPONSE	M4	2	21	A4	press
685.684	n/a	RESPONSE	M4	2	17	F4	release
686.166	n/a	RESPONSE	M4	2	24	C5	press
686.219	n/a	RESPONSE	M4	2	21	A4	release
686.568	n/a	RESPONSE	M4	2	22	A#4	press
686.589	n/a	RESPONSE	M4	2	24	C5	release
687.681	n/a	RESPONSE	M4	2	19	G4	press
687.843	n/a	RESPONSE	M4	2	22	A#4	release
688.084	n/a	RESPONSE	M4	2	17	F4	press
688.166	n/a	RESPONSE	M4	2	19	G4	release
688.838	n/a	RESPONSE	M4	2	17	F4	release
689.826	7.758	FIXCROSS	n/a	n/a	n/a	n/a	n/a
697.585	6.325	CUE_LISTEN	M2	1	n/a	n/a	n/a
703.91	7.758	FIXCROSS	n/a	n/a	n/a	n/a	n/a
711.668	6.317	CUE_PLAYBACK_BOTH_HANDS	M2	1	n/a	n/a	n/a
715.794	n/a	RESPONSE	M2	1	00	C3	press
715.806	n/a	RESPONSE	M2	1	24	C5	press
715.837	n/a	RESPONSE	M2	1	07	G3	press
716.288	n/a	RESPONSE	M2	1	19	G4	press
716.381	n/a	RESPONSE	M2	1	24	C5	release
716.491	n/a	RESPONSE	M2	1	00	C3	release
716.532	n/a	RESPONSE	M2	1	19	G4	release
716.724	n/a	RESPONSE	M2	1	00	C3	press
716.734	n/a	RESPONSE	M2	1	19	G4	press
717.128	n/a	RESPONSE	M2	1	17	F4	press
717.267	n/a	RESPONSE	M2	1	00	C3	release
717.288	n/a	RESPONSE	M2	1	19	G4	release
717.359	n/a	RESPONSE	M2	1	07	G3	release
717.541	n/a	RESPONSE	M2	1	16	E4	press
717.572	n/a	RESPONSE	M2	1	00	C3	press
717.603	n/a	RESPONSE	M2	1	07	G3	press
717.692	n/a	RESPONSE	M2	1	17	F4	release
717.963	n/a	RESPONSE	M2	1	17	F4	press
717.985	7.758	FIXCROSS	n/a	n/a	n/a	n/a	n/a
718.067	n/a	RESPONSE	M2	1	16	E4	release
718.074	n/a	RESPONSE	M2	1	00	C3	release
718.149	n/a	RESPONSE	M2	1	07	G3	release
718.367	n/a	RESPONSE	M2	1	19	G4	press
718.397	n/a	RESPONSE	M2	1	07	G3	press
718.401	n/a	RESPONSE	M2	1	00	C3	press
718.796	n/a	RESPONSE	M2	1	17	F4	release
718.862	n/a	RESPONSE	M2	1	19	G4	release
718.946	n/a	RESPONSE	M2	1	00	C3	release
719.258	n/a	RESPONSE	M2	1	07	G3	release
725.743	6.325	CUE_LISTEN	M2	2	n/a	n/a	n/a
732.068	7.758	FIXCROSS	n/a	n/a	n/a	n/a	n/a
739.826	6.317	CUE_PLAYBACK_BOTH_HANDS	M2	2	n/a	n/a	n/a
740.546	n/a	RESPONSE	M2	2	00	C3	press
740.572	n/a	RESPONSE	M2	2	07	G3	press
740.593	n/a	RESPONSE	M2	2	24	C5	press
741.081	n/a	RESPONSE	M2	2	19	G4	press
741.268	n/a	RESPONSE	M2	2	24	C5	release
741.293	n/a	RESPONSE	M2	2	00	C3	release
741.357	n/a	RESPONSE	M2	2	19	G4	release
741.397	n/a	RESPONSE	M2	2	07	G3	release
741.527	n/a	RESPONSE	M2	2	07	G3	press
741.529	n/a	RESPONSE	M2	2	00	C3	press
741.569	n/a	RESPONSE	M2	2	19	G4	press
742.023	n/a	RESPONSE	M2	2	17	F4	press
742.143	n/a	RESPONSE	M2	2	00	C3	release
742.173	n/a	RESPONSE	M2	2	19	G4	release
742.206	n/a	RESPONSE	M2	2	07	G3	release
742.499	n/a	RESPONSE	M2	2	07	G3	press
742.522	n/a	RESPONSE	M2	2	00	C3	press
742.531	n/a	RESPONSE	M2	2	16	E4	press
742.684	n/a	RESPONSE	M2	2	17	F4	release
743.003	n/a	RESPONSE	M2	2	14	D4	press
743.144	n/a	RESPONSE	M2	2	00	C3	release
743.147	n/a	RESPONSE	M2	2	16	E4	release
743.189	n/a	RESPONSE	M2	2	07	G3	release
743.508	n/a	RESPONSE	M2	2	00	C3	press
743.519	n/a	RESPONSE	M2	2	07	G3	press
743.522	n/a	RESPONSE	M2	2	12	C4	press
744.312	n/a	RESPONSE	M2	2	14	D4	release
744.473	n/a	RESPONSE	M2	2	12	C4	release
744.544	n/a	RESPONSE	M2	2	00	C3	release
744.946	n/a	RESPONSE	M2	2	07	G3	release
746.143	7.758	FIXCROSS	n/a	n/a	n/a	n/a	n/a
753.902	6.317	CUE_LISTEN	M2	1	n/a	n/a	n/a
760.218	7.758	FIXCROSS	n/a	n/a	n/a	n/a	n/a
767.977	6.317	CUE_PLAYBACK_BOTH_HANDS	M2	1	n/a	n/a	n/a
769.741	n/a	RESPONSE	M2	1	00	C3	press
769.752	n/a	RESPONSE	M2	1	07	G3	press
769.781	n/a	RESPONSE	M2	1	12	C4	press
770.251	n/a	RESPONSE	M2	1	14	D4	press
770.427	n/a	RESPONSE	M2	1	12	C4	release
770.486	n/a	RESPONSE	M2	1	00	C3	release
770.567	n/a	RESPONSE	M2	1	07	G3	release
770.708	n/a	RESPONSE	M2	1	00	C3	press
770.711	n/a	RESPONSE	M2	1	07	G3	press
770.758	n/a	RESPONSE	M2	1	16	E4	press
770.933	n/a	RESPONSE	M2	1	14	D4	release
771.249	n/a	RESPONSE	M2	1	14	D4	press
771.401	n/a	RESPONSE	M2	1	00	C3	release
771.403	n/a	RESPONSE	M2	1	16	E4	release
771.503	n/a	RESPONSE	M2	1	07	G3	release
771.726	n/a	RESPONSE	M2	1	00	C3	press
771.728	n/a	RESPONSE	M2	1	07	G3	press
771.747	n/a	RESPONSE	M2	1	16	E4	press
771.909	n/a	RESPONSE	M2	1	14	D4	release
772.251	n/a	RESPONSE	M2	1	17	F4	press
772.372	n/a	RESPONSE	M2	1	16	E4	release
772.403	n/a	RESPONSE	M2	1	00	C3	release
772.426	n/a	RESPONSE	M2	1	07	G3	release
772.716	n/a	RESPONSE	M2	1	00	C3	press
772.727	n/a	RESPONSE	M2	1	07	G3	press
772.729	n/a	RESPONSE	M2	1	19	G4	press
772.879	n/a	RESPONSE	M2	1	17	F4	release
773.412	n/a	RESPONSE	M2	1	00	C3	release
773.512	n/a	RESPONSE	M2	1	07	G3	release
773.593	n/a	RESPONSE	M2	1	19	G4	release
774.293	7.758	FIXCROSS	n/a	n/a	n/a	n/a	n/a
782.052	6.325	CUE_LISTEN	M2	2	n/a	n/a	n/a
788.377	7.758	FIXCROSS	n/a	n/a	n/a	n/a	n/a
796.135	6.317	CUE_PLAYBACK_BOTH_HANDS	M2	2	n/a	n/a	n/a
797.608	n/a	RESPONSE	M2	2	00	C3	press
797.617	n/a	RESPONSE	M2	2	16	E4	press
797.629	n/a	RESPONSE	M2	2	07	G3	press
798.101	n/a	RESPONSE	M2	2	19	G4	press
798.244	n/a	RESPONSE	M2	2	16	E4	release
798.313	n/a	RESPONSE	M2	2	00	C3	release
798.368	n/a	RESPONSE	M2	2	07	G3	release
798.404	n/a	RESPONSE	M2	2	19	G4	release
798.582	n/a	RESPONSE	M2	2	00	C3	press
798.598	n/a	RESPONSE	M2	2	07	G3	press
798.601	n/a	RESPONSE	M2	2	19	G4	press
799.028	n/a	RESPONSE	M2	2	17	F4	press
799.149	n/a	RESPONSE	M2	2	19	G4	release
799.197	n/a	RESPONSE	M2	2	00	C3	release
799.259	n/a	RESPONSE	M2	2	07	G3	release
799.527	n/a	RESPONSE	M2	2	00	C3	press
799.543	n/a	RESPONSE	M2	2	07	G3	press
799.571	n/a	RESPONSE	M2	2	16	E4	press
800.037	n/a	RESPONSE	M2	2	14	D4	press
800.058	n/a	RESPONSE	M2	2	12	C4	press
800.082	n/a	RESPONSE	M2	2	17	F4	release
800.152	n/a	RESPONSE	M2	2	00	C3	release
800.199	n/a	RESPONSE	M2	2	12	C4	release
800.247	n/a	RESPONSE	M2	2	07	G3	release
800.252	n/a	RESPONSE	M2	2	16	E4	release
800.57	n/a	RESPONSE	M2	2	00	C3	press
800.572	n/a	RESPONSE	M2	2	07	G3	press
800.6	n/a	RESPONSE	M2	2	12	C4	press
801.28	n/a	RESPONSE	M2	2	14	D4	release
801.406	n/a	RESPONSE	M2	2	12	C4	release
801.476	n/a	RESPONSE	M2	2	07	G3	release
801.478	n/a	RESPONSE	M2	2	00	C3	release
802.452	7.759	FIXCROSS	n/a	n/a	n/a	n/a	n/a
810.21	6.317	CUE_LISTEN	M3	1	n/a	n/a	n/a
816.527	7.758	FIXCROSS	n/a	n/a	n/a	n/a	n/a
824.285	6.325	CUE_PLAYBACK_RIGHT_HAND	M3	1	n/a	n/a	n/a
825.089	n/a	RESPONSE	M3	1	12	C4	press
825.511	n/a	RESPONSE	M3	1	14	D4	press
825.672	n/a	RESPONSE	M3	1	12	C4	release
826.003	n/a	RESPONSE	M3	1	16	E4	press
826.184	n/a	RESPONSE	M3	1	14	D4	release
826.487	n/a	RESPONSE	M3	1	12	C4	press
826.707	n/a	RESPONSE	M3	1	16	E4	release
826.808	n/a	RESPONSE	M3	1	12	C4	release
827.019	n/a	RESPONSE	M3	1	12	C4	press
827.472	n/a	RESPONSE	M3	1	14	D4	press
827.642	n/a	RESPONSE	M3	1	12	C4	release
827.941	n/a	RESPONSE	M3	1	16	E4	press
828.077	n/a	RESPONSE	M3	1	14	D4	release
828.461	n/a	RESPONSE	M3	1	12	C4	press
828.729	n/a	RESPONSE	M3	1	16	E4	release
829.05	n/a	RESPONSE	M3	1	12	C4	release
830.61	7.759	FIXCROSS	n/a	n/a	n/a	n/a	n/a
838.368	6.317	CUE_LISTEN	M3	2	n/a	n/a	n/a
844.685	7.758	FIXCROSS	n/a	n/a	n/a	n/a	n/a
852.444	6.317	CUE_PLAYBACK_RIGHT_HAND	M3	2	n/a	n/a	n/a
853.046	n/a	RESPONSE	M3	2	16	E4	press
853.497	n/a	RESPONSE	M3	2	17	F4	press
853.688	n/a	RESPONSE	M3	2	16	E4	release
854.022	n/a	RESPONSE	M3	2	19	G4	press
854.191	n/a	RESPONSE	M3	2	17	F4	release
854.872	n/a	RESPONSE	M3	2	19	G4	release
855.053	n/a	RESPONSE	M3	2	16	E4	press
855.534	n/a	RESPONSE	M3	2	17	F4	press
855.666	n/a	RESPONSE	M3	2	16	E4	release
856.117	n/a	RESPONSE	M3	2	19	G4	press
856.338	n/a	RESPONSE	M3	2	17	F4	release
857.082	n/a	RESPONSE	M3	2	19	G4	release
858.76	7.758	FIXCROSS	n/a	n/a	n/a	n/a	n/a
859.234	n/a	RESPONSE	M3	2	21	A4	press
859.752	n/a	RESPONSE	M3	2	21	A4	release
866.518	6.325	CUE_LISTEN	M3	1	n/a	n/a	n/a
872.844	7.758	FIXCROSS	n/a	n/a	n/a	n/a	n/a
880.602	6.317	CUE_PLAYBACK_RIGHT_HAND	M3	1	n/a	n/a	n/a
881.227	n/a	RESPONSE	M3	1	19	G4	press
881.564	n/a	RESPONSE	M3	1	21	A4	press
881.676	n/a	RESPONSE	M3	1	19	G4	release
881.887	n/a	RESPONSE	M3	1	19	G4	press
882.25	n/a	RESPONSE	M3	1	17	F4	press
883.222	n/a	RESPONSE	M3	1	21	A4	release
883.343	n/a	RESPONSE	M3	1	19	G4	release
883.364	n/a	RESPONSE	M3	1	17	F4	release
883.404	n/a	RESPONSE	M3	1	12	C4	press
884.086	n/a	RESPONSE	M3	1	19	G4	press
884.137	n/a	RESPONSE	M3	1	12	C4	release
884.438	n/a	RESPONSE	M3	1	21	A4	press
884.45	n/a	RESPONSE	M3	1	23	B4	press
884.502	n/a	RESPONSE	M3	1	19	G4	release
884.692	n/a	RESPONSE	M3	1	23	B4	release
884.833	n/a	RESPONSE	M3	1	21	A4	release
885.187	n/a	RESPONSE	M3	1	19	G4	press
885.477	n/a	RESPONSE	M3	1	21	A4	press
885.567	n/a	RESPONSE	M3	1	19	G4	release
885.758	n/a	RESPONSE	M3	1	19	G4	press
886.081	n/a	RESPONSE	M3	1	17	F4	press
886.402	n/a	RESPONSE	M3	1	16	E4	press
886.482	n/a	RESPONSE	M3	1	19	G4	release
886.493	n/a	RESPONSE	M3	1	21	A4	release
886.534	n/a	RESPONSE	M3	1	17	F4	release
886.918	7.758	FIXCROSS	n/a	n/a	n/a	n/a	n/a
887.037	n/a	RESPONSE	M3	1	12	C4	press
887.127	n/a	RESPONSE	M3	1	16	E4	release
887.618	n/a	RESPONSE	M3	1	12	C4	release
894.677	6.325	CUE_LISTEN	M3	2	n/a	n/a	n/a
901.002	7.758	FIXCROSS	n/a	n/a	n/a	n/a	n/a
908.76	197.799	CUE_PLAYBACK_RIGHT_HAND	M3	2	n/a	n/a	n/a
909.418	n/a	RESPONSE	M3	2	12	C4	press
909.94	n/a	RESPONSE	M3	2	07	G3	press
910.127	n/a	RESPONSE	M3	2	12	C4	release
910.44	n/a	RESPONSE	M3	2	12	C4	press
910.602	n/a	RESPONSE	M3	2	07	G3	release
911.156	n/a	RESPONSE	M3	2	12	C4	release
911.627	n/a	RESPONSE	M3	2	12	C4	press
912.13	n/a	RESPONSE	M3	2	07	G3	press
912.343	n/a	RESPONSE	M3	2	12	C4	release
912.632	n/a	RESPONSE	M3	2	12	C4	press
912.783	n/a	RESPONSE	M3	2	07	G3	release
913.26	n/a	FIXCROSS	n/a	n/a	n/a	n/a	n/a
913.624	n/a	RESPONSE	M3	2	12	C4	release
