onset	duration	trial_type	trial_number	stroop_condition	stim_text(PL)	stim_text(eng)	stim_color(PL)	stim_color(eng)	response_type	response_color
0.0	n/a	RESPONSE	n/a	n/a	n/a	n/a	n/a	n/a	n/a	blue
0.0	n/a	RESPONSE	n/a	n/a	n/a	n/a	n/a	n/a	n/a	blue
0.0001	n/a	RESPONSE	n/a	n/a	n/a	n/a	n/a	n/a	n/a	blue
0.0001	n/a	RESPONSE	n/a	n/a	n/a	n/a	n/a	n/a	n/a	yellow
0.0001	n/a	RESPONSE	n/a	n/a	n/a	n/a	n/a	n/a	n/a	n/a
0.0001	n/a	RESPONSE	n/a	n/a	n/a	n/a	n/a	n/a	n/a	yellow
0.0001	n/a	RESPONSE	n/a	n/a	n/a	n/a	n/a	n/a	n/a	blue
0.0001	n/a	RESPONSE	n/a	n/a	n/a	n/a	n/a	n/a	n/a	yellow
0.0002	n/a	RESPONSE	n/a	n/a	n/a	n/a	n/a	n/a	n/a	blue
0.0002	n/a	RESPONSE	n/a	n/a	n/a	n/a	n/a	n/a	n/a	n/a
0.0002	n/a	RESPONSE	n/a	n/a	n/a	n/a	n/a	n/a	n/a	red
0.0002	n/a	RESPONSE	n/a	n/a	n/a	n/a	n/a	n/a	n/a	green
0.0002	n/a	RESPONSE	n/a	n/a	n/a	n/a	n/a	n/a	n/a	yellow
0.0003	n/a	RESPONSE	n/a	n/a	n/a	n/a	n/a	n/a	n/a	green
35.1718	n/a	RESPONSE	n/a	n/a	n/a	n/a	n/a	n/a	n/a	n/a
35.2333	1.0333	ITI	n/a	n/a	n/a	n/a	n/a	n/a	n/a	n/a
36.2666	0.5167	FIXCROSS	n/a	n/a	n/a	n/a	n/a	n/a	n/a	n/a
36.7833	1.6833	T_INK	1	Incongruent	żółty	yellow	niebieski	blue	hit	n/a
38.4442	n/a	RESPONSE	n/a	n/a	n/a	n/a	n/a	n/a	n/a	blue
38.4667	0.5166	FEEDBACK	n/a	n/a	n/a	n/a	n/a	n/a	n/a	n/a
38.9833	1.0167	ITI	n/a	n/a	n/a	n/a	n/a	n/a	n/a	n/a
40.0	0.5167	FIXCROSS	n/a	n/a	n/a	n/a	n/a	n/a	n/a	n/a
40.5167	1.1	T_INK	2	Incongruent	zielony	green	żółty	yellow	hit	n/a
41.5887	n/a	RESPONSE	n/a	n/a	n/a	n/a	n/a	n/a	n/a	yellow
41.6167	0.5166	FEEDBACK	n/a	n/a	n/a	n/a	n/a	n/a	n/a	n/a
42.1333	1.0167	ITI	n/a	n/a	n/a	n/a	n/a	n/a	n/a	n/a
43.15	0.5167	FIXCROSS	n/a	n/a	n/a	n/a	n/a	n/a	n/a	n/a
43.6667	0.8333	T_INK	3	Neutral	xxxxxxxx	xxxxxxxx	żółty	yellow	hit	n/a
44.478	n/a	RESPONSE	n/a	n/a	n/a	n/a	n/a	n/a	n/a	yellow
44.5	0.5167	FEEDBACK	n/a	n/a	n/a	n/a	n/a	n/a	n/a	n/a
45.0167	1.0167	ITI	n/a	n/a	n/a	n/a	n/a	n/a	n/a	n/a
46.0334	0.5166	FIXCROSS	n/a	n/a	n/a	n/a	n/a	n/a	n/a	n/a
46.55	0.45	T_INK	4	Neutral	xxxxxxxx	xxxxxxxx	niebieski	blue	incorrect	n/a
46.9682	n/a	RESPONSE	n/a	n/a	n/a	n/a	n/a	n/a	n/a	green
47.0001	0.5167	FEEDBACK	n/a	n/a	n/a	n/a	n/a	n/a	n/a	n/a
47.5167	1.0167	ITI	n/a	n/a	n/a	n/a	n/a	n/a	n/a	n/a
48.5334	0.5167	FIXCROSS	n/a	n/a	n/a	n/a	n/a	n/a	n/a	n/a
49.0501	0.9667	T_INK	5	Incongruent	czerwony	red	żółty	yellow	hit	n/a
49.9851	n/a	RESPONSE	n/a	n/a	n/a	n/a	n/a	n/a	n/a	yellow
50.0168	0.5167	FEEDBACK	n/a	n/a	n/a	n/a	n/a	n/a	n/a	n/a
50.5334	1.0166	ITI	n/a	n/a	n/a	n/a	n/a	n/a	n/a	n/a
51.5501	0.5167	FIXCROSS	n/a	n/a	n/a	n/a	n/a	n/a	n/a	n/a
52.0667	0.9167	T_INK	6	Neutral	xxxxxxx	xxxxxxx	niebieski	blue	hit	n/a
52.9541	n/a	RESPONSE	n/a	n/a	n/a	n/a	n/a	n/a	n/a	blue
52.9834	0.5167	FEEDBACK	n/a	n/a	n/a	n/a	n/a	n/a	n/a	n/a
53.5001	1.0167	ITI	n/a	n/a	n/a	n/a	n/a	n/a	n/a	n/a
54.5168	0.5167	FIXCROSS	n/a	n/a	n/a	n/a	n/a	n/a	n/a	n/a
55.0335	0.7	T_INK	7	Incongruent	zielony	green	czerwony	red	hit	n/a
55.6997	n/a	RESPONSE	n/a	n/a	n/a	n/a	n/a	n/a	n/a	red
55.7335	0.5167	FEEDBACK	n/a	n/a	n/a	n/a	n/a	n/a	n/a	n/a
56.2501	1.0166	ITI	n/a	n/a	n/a	n/a	n/a	n/a	n/a	n/a
57.2668	0.5167	FIXCROSS	n/a	n/a	n/a	n/a	n/a	n/a	n/a	n/a
57.7835	0.9167	T_INK	8	Incongruent	niebieski	blue	czerwony	red	hit	n/a
58.6688	n/a	RESPONSE	n/a	n/a	n/a	n/a	n/a	n/a	n/a	red
58.7002	0.5167	FEEDBACK	n/a	n/a	n/a	n/a	n/a	n/a	n/a	n/a
59.2168	1.0166	ITI	n/a	n/a	n/a	n/a	n/a	n/a	n/a	n/a
60.2335	0.5167	FIXCROSS	n/a	n/a	n/a	n/a	n/a	n/a	n/a	n/a
60.7501	0.9	T_INK	9	Incongruent	niebieski	blue	zielony	green	hit	n/a
61.6219	n/a	RESPONSE	n/a	n/a	n/a	n/a	n/a	n/a	n/a	green
61.6502	0.5167	FEEDBACK	n/a	n/a	n/a	n/a	n/a	n/a	n/a	n/a
62.1669	1.0167	ITI	n/a	n/a	n/a	n/a	n/a	n/a	n/a	n/a
63.1835	0.5167	FIXCROSS	n/a	n/a	n/a	n/a	n/a	n/a	n/a	n/a
63.7002	0.8667	T_INK	10	Neutral	xxxxx	xxxxx	czerwony	red	hit	n/a
64.5432	n/a	RESPONSE	n/a	n/a	n/a	n/a	n/a	n/a	n/a	red
64.5669	0.5166	FEEDBACK	n/a	n/a	n/a	n/a	n/a	n/a	n/a	n/a
65.0835	1.0167	ITI	n/a	n/a	n/a	n/a	n/a	n/a	n/a	n/a
66.1002	0.5166	FIXCROSS	n/a	n/a	n/a	n/a	n/a	n/a	n/a	n/a
66.6169	0.7334	T_INK	11	Neutral	xxxxxxxxx	xxxxxxxxx	czerwony	red	hit	n/a
67.3206	n/a	RESPONSE	n/a	n/a	n/a	n/a	n/a	n/a	n/a	red
67.3502	0.5167	FEEDBACK	n/a	n/a	n/a	n/a	n/a	n/a	n/a	n/a
67.8669	1.0167	ITI	n/a	n/a	n/a	n/a	n/a	n/a	n/a	n/a
68.8836	0.5167	FIXCROSS	n/a	n/a	n/a	n/a	n/a	n/a	n/a	n/a
69.4002	0.85	T_INK	12	Neutral	xxxxxxxxx	xxxxxxxxx	żółty	yellow	hit	n/a
70.2258	n/a	RESPONSE	n/a	n/a	n/a	n/a	n/a	n/a	n/a	yellow
70.2503	0.5167	FEEDBACK	n/a	n/a	n/a	n/a	n/a	n/a	n/a	n/a
70.7669	1.0333	ITI	n/a	n/a	n/a	n/a	n/a	n/a	n/a	n/a
74.6157	n/a	RESPONSE	n/a	n/a	n/a	n/a	n/a	n/a	n/a	n/a
74.6836	1.0167	ITI	n/a	n/a	n/a	n/a	n/a	n/a	n/a	n/a
75.7003	0.5167	FIXCROSS	n/a	n/a	n/a	n/a	n/a	n/a	n/a	n/a
76.217	0.6833	INK	1	Neutral	xxxxx	xxxxx	zielony	green	hit	n/a
76.8663	n/a	RESPONSE	n/a	n/a	n/a	n/a	n/a	n/a	n/a	green
76.9003	1.0167	ITI	n/a	n/a	n/a	n/a	n/a	n/a	n/a	n/a
77.917	0.5166	FIXCROSS	n/a	n/a	n/a	n/a	n/a	n/a	n/a	n/a
78.4336	0.5834	INK	2	Incongruent	zielony	green	żółty	yellow	hit	n/a
78.9893	n/a	RESPONSE	n/a	n/a	n/a	n/a	n/a	n/a	n/a	yellow
79.017	1.0167	ITI	n/a	n/a	n/a	n/a	n/a	n/a	n/a	n/a
80.0337	0.5167	FIXCROSS	n/a	n/a	n/a	n/a	n/a	n/a	n/a	n/a
80.5503	0.75	INK	3	Incongruent	czerwony	red	niebieski	blue	hit	n/a
81.2721	n/a	RESPONSE	n/a	n/a	n/a	n/a	n/a	n/a	n/a	blue
81.3004	1.0167	ITI	n/a	n/a	n/a	n/a	n/a	n/a	n/a	n/a
82.317	0.5167	FIXCROSS	n/a	n/a	n/a	n/a	n/a	n/a	n/a	n/a
82.8337	0.8166	INK	4	Incongruent	żółty	yellow	zielony	green	hit	n/a
83.6185	n/a	RESPONSE	n/a	n/a	n/a	n/a	n/a	n/a	n/a	green
83.6503	1.0167	ITI	n/a	n/a	n/a	n/a	n/a	n/a	n/a	n/a
84.667	0.5167	FIXCROSS	n/a	n/a	n/a	n/a	n/a	n/a	n/a	n/a
85.1837	0.6833	INK	5	Neutral	xxxxxxxxx	xxxxxxxxx	zielony	green	hit	n/a
85.8372	n/a	RESPONSE	n/a	n/a	n/a	n/a	n/a	n/a	n/a	green
85.8671	1.0166	ITI	n/a	n/a	n/a	n/a	n/a	n/a	n/a	n/a
86.8837	0.5167	FIXCROSS	n/a	n/a	n/a	n/a	n/a	n/a	n/a	n/a
87.4004	1.2	INK	6	Neutral	xxxxxxxx	xxxxxxxx	niebieski	blue	hit	n/a
88.567	n/a	RESPONSE	n/a	n/a	n/a	n/a	n/a	n/a	n/a	blue
88.6004	1.0167	ITI	n/a	n/a	n/a	n/a	n/a	n/a	n/a	n/a
89.6171	0.5167	FIXCROSS	n/a	n/a	n/a	n/a	n/a	n/a	n/a	n/a
90.1338	0.9	INK	7	Neutral	xxxxx	xxxxx	zielony	green	hit	n/a
91.0094	n/a	RESPONSE	n/a	n/a	n/a	n/a	n/a	n/a	n/a	green
91.0337	1.0167	ITI	n/a	n/a	n/a	n/a	n/a	n/a	n/a	n/a
92.0504	0.5167	FIXCROSS	n/a	n/a	n/a	n/a	n/a	n/a	n/a	n/a
92.5671	0.7667	INK	8	Incongruent	niebieski	blue	czerwony	red	hit	n/a
93.308	n/a	RESPONSE	n/a	n/a	n/a	n/a	n/a	n/a	n/a	red
93.3338	1.0166	ITI	n/a	n/a	n/a	n/a	n/a	n/a	n/a	n/a
94.3504	0.5167	FIXCROSS	n/a	n/a	n/a	n/a	n/a	n/a	n/a	n/a
94.8671	0.5667	INK	9	Incongruent	zielony	green	czerwony	red	hit	n/a
95.4151	n/a	RESPONSE	n/a	n/a	n/a	n/a	n/a	n/a	n/a	red
95.4338	1.0167	ITI	n/a	n/a	n/a	n/a	n/a	n/a	n/a	n/a
96.4505	0.5167	FIXCROSS	n/a	n/a	n/a	n/a	n/a	n/a	n/a	n/a
96.9671	0.6167	INK	10	Neutral	xxxxxxxxx	xxxxxxxxx	czerwony	red	hit	n/a
97.554	n/a	RESPONSE	n/a	n/a	n/a	n/a	n/a	n/a	n/a	red
97.5838	1.0167	ITI	n/a	n/a	n/a	n/a	n/a	n/a	n/a	n/a
98.6005	0.5167	FIXCROSS	n/a	n/a	n/a	n/a	n/a	n/a	n/a	n/a
99.1172	0.8167	INK	11	Incongruent	zielony	green	żółty	yellow	hit	n/a
99.9006	n/a	RESPONSE	n/a	n/a	n/a	n/a	n/a	n/a	n/a	yellow
99.9338	1.0167	ITI	n/a	n/a	n/a	n/a	n/a	n/a	n/a	n/a
100.9505	0.5167	FIXCROSS	n/a	n/a	n/a	n/a	n/a	n/a	n/a	n/a
101.4672	0.65	INK	12	Incongruent	zielony	green	czerwony	red	hit	n/a
102.0876	n/a	RESPONSE	n/a	n/a	n/a	n/a	n/a	n/a	n/a	red
102.1172	1.0167	ITI	n/a	n/a	n/a	n/a	n/a	n/a	n/a	n/a
103.1339	0.5167	FIXCROSS	n/a	n/a	n/a	n/a	n/a	n/a	n/a	n/a
103.6505	0.7833	INK	13	Incongruent	żółty	yellow	zielony	green	hit	n/a
104.4021	n/a	RESPONSE	n/a	n/a	n/a	n/a	n/a	n/a	n/a	green
104.4339	1.0167	ITI	n/a	n/a	n/a	n/a	n/a	n/a	n/a	n/a
105.4505	0.5166	FIXCROSS	n/a	n/a	n/a	n/a	n/a	n/a	n/a	n/a
105.9672	1.1833	INK	14	Incongruent	żółty	yellow	zielony	green	hit	n/a
107.1318	n/a	RESPONSE	n/a	n/a	n/a	n/a	n/a	n/a	n/a	green
107.1505	1.0167	ITI	n/a	n/a	n/a	n/a	n/a	n/a	n/a	n/a
108.1672	0.5167	FIXCROSS	n/a	n/a	n/a	n/a	n/a	n/a	n/a	n/a
108.6839	0.7667	INK	15	Incongruent	zielony	green	żółty	yellow	hit	n/a
109.4305	n/a	RESPONSE	n/a	n/a	n/a	n/a	n/a	n/a	n/a	yellow
109.4506	1.0166	ITI	n/a	n/a	n/a	n/a	n/a	n/a	n/a	n/a
110.4672	0.5167	FIXCROSS	n/a	n/a	n/a	n/a	n/a	n/a	n/a	n/a
110.9839	1.3166	INK	16	Incongruent	zielony	green	niebieski	blue	hit	n/a
112.2717	n/a	RESPONSE	n/a	n/a	n/a	n/a	n/a	n/a	n/a	blue
112.3006	1.0167	ITI	n/a	n/a	n/a	n/a	n/a	n/a	n/a	n/a
113.3172	0.5167	FIXCROSS	n/a	n/a	n/a	n/a	n/a	n/a	n/a	n/a
113.834	0.75	INK	17	Neutral	xxxxxxxxx	xxxxxxxxx	zielony	green	hit	n/a
114.5544	n/a	RESPONSE	n/a	n/a	n/a	n/a	n/a	n/a	n/a	green
114.584	1.0167	ITI	n/a	n/a	n/a	n/a	n/a	n/a	n/a	n/a
115.6006	0.5166	FIXCROSS	n/a	n/a	n/a	n/a	n/a	n/a	n/a	n/a
116.1173	0.6667	INK	18	Neutral	xxxxxxx	xxxxxxx	żółty	yellow	hit	n/a
116.7573	n/a	RESPONSE	n/a	n/a	n/a	n/a	n/a	n/a	n/a	yellow
116.784	1.0167	ITI	n/a	n/a	n/a	n/a	n/a	n/a	n/a	n/a
117.8006	0.5167	FIXCROSS	n/a	n/a	n/a	n/a	n/a	n/a	n/a	n/a
118.3173	0.8833	INK	19	Neutral	xxxxxxxxx	xxxxxxxxx	żółty	yellow	hit	n/a
119.1677	n/a	RESPONSE	n/a	n/a	n/a	n/a	n/a	n/a	n/a	yellow
119.2007	1.0167	ITI	n/a	n/a	n/a	n/a	n/a	n/a	n/a	n/a
120.2173	0.5167	FIXCROSS	n/a	n/a	n/a	n/a	n/a	n/a	n/a	n/a
120.734	0.6333	INK	20	Neutral	xxxxx	xxxxx	czerwony	red	hit	n/a
121.3386	n/a	RESPONSE	n/a	n/a	n/a	n/a	n/a	n/a	n/a	red
121.3673	1.0167	ITI	n/a	n/a	n/a	n/a	n/a	n/a	n/a	n/a
122.384	0.5167	FIXCROSS	n/a	n/a	n/a	n/a	n/a	n/a	n/a	n/a
122.9007	0.7333	INK	21	Incongruent	czerwony	red	żółty	yellow	hit	n/a
123.6053	n/a	RESPONSE	n/a	n/a	n/a	n/a	n/a	n/a	n/a	yellow
123.634	1.0167	ITI	n/a	n/a	n/a	n/a	n/a	n/a	n/a	n/a
124.6507	0.5167	FIXCROSS	n/a	n/a	n/a	n/a	n/a	n/a	n/a	n/a
125.1674	0.4333	INK	22	Incongruent	czerwony	red	niebieski	blue	hit	n/a
125.5687	n/a	RESPONSE	n/a	n/a	n/a	n/a	n/a	n/a	n/a	blue
125.6007	1.0166	ITI	n/a	n/a	n/a	n/a	n/a	n/a	n/a	n/a
126.6174	0.5167	FIXCROSS	n/a	n/a	n/a	n/a	n/a	n/a	n/a	n/a
127.1341	0.6667	INK	23	Incongruent	żółty	yellow	niebieski	blue	hit	n/a
127.7715	n/a	RESPONSE	n/a	n/a	n/a	n/a	n/a	n/a	n/a	blue
127.8007	1.0167	ITI	n/a	n/a	n/a	n/a	n/a	n/a	n/a	n/a
128.8174	0.5167	FIXCROSS	n/a	n/a	n/a	n/a	n/a	n/a	n/a	n/a
129.3341	0.6166	INK	24	Neutral	xxxxxxx	xxxxxxx	żółty	yellow	hit	n/a
129.9267	n/a	RESPONSE	n/a	n/a	n/a	n/a	n/a	n/a	n/a	yellow
129.9507	1.0167	ITI	n/a	n/a	n/a	n/a	n/a	n/a	n/a	n/a
130.9674	0.5167	FIXCROSS	n/a	n/a	n/a	n/a	n/a	n/a	n/a	n/a
131.4841	0.9667	INK	25	Incongruent	niebieski	blue	zielony	green	hit	n/a
132.4168	n/a	RESPONSE	n/a	n/a	n/a	n/a	n/a	n/a	n/a	green
132.4508	1.0167	ITI	n/a	n/a	n/a	n/a	n/a	n/a	n/a	n/a
133.4674	0.5167	FIXCROSS	n/a	n/a	n/a	n/a	n/a	n/a	n/a	n/a
133.9841	0.7333	INK	26	Incongruent	czerwony	red	niebieski	blue	hit	n/a
134.6835	n/a	RESPONSE	n/a	n/a	n/a	n/a	n/a	n/a	n/a	blue
134.7175	1.0167	ITI	n/a	n/a	n/a	n/a	n/a	n/a	n/a	n/a
135.7341	0.5166	FIXCROSS	n/a	n/a	n/a	n/a	n/a	n/a	n/a	n/a
136.2507	0.6667	INK	27	Incongruent	niebieski	blue	czerwony	red	hit	n/a
136.8863	n/a	RESPONSE	n/a	n/a	n/a	n/a	n/a	n/a	n/a	red
136.9174	1.0167	ITI	n/a	n/a	n/a	n/a	n/a	n/a	n/a	n/a
137.9341	0.5167	FIXCROSS	n/a	n/a	n/a	n/a	n/a	n/a	n/a	n/a
138.4508	0.6667	INK	28	Neutral	xxxxxxxx	xxxxxxxx	żółty	yellow	hit	n/a
139.0892	n/a	RESPONSE	n/a	n/a	n/a	n/a	n/a	n/a	n/a	yellow
139.1175	1.0167	ITI	n/a	n/a	n/a	n/a	n/a	n/a	n/a	n/a
140.1342	0.5167	FIXCROSS	n/a	n/a	n/a	n/a	n/a	n/a	n/a	n/a
140.6508	1.1	INK	29	Neutral	xxxxx	xxxxx	niebieski	blue	hit	n/a
141.7231	n/a	RESPONSE	n/a	n/a	n/a	n/a	n/a	n/a	n/a	blue
141.7508	1.0167	ITI	n/a	n/a	n/a	n/a	n/a	n/a	n/a	n/a
142.7675	0.5167	FIXCROSS	n/a	n/a	n/a	n/a	n/a	n/a	n/a	n/a
143.2842	0.8833	INK	30	Incongruent	zielony	green	niebieski	blue	hit	n/a
144.1335	n/a	RESPONSE	n/a	n/a	n/a	n/a	n/a	n/a	n/a	blue
144.1675	1.0167	ITI	n/a	n/a	n/a	n/a	n/a	n/a	n/a	n/a
145.1842	0.5167	FIXCROSS	n/a	n/a	n/a	n/a	n/a	n/a	n/a	n/a
145.7009	0.8	INK	31	Neutral	xxxxxxxx	xxxxxxxx	zielony	green	hit	n/a
146.4801	n/a	RESPONSE	n/a	n/a	n/a	n/a	n/a	n/a	n/a	green
146.5009	1.0166	ITI	n/a	n/a	n/a	n/a	n/a	n/a	n/a	n/a
147.5175	0.5167	FIXCROSS	n/a	n/a	n/a	n/a	n/a	n/a	n/a	n/a
148.0342	0.6666	INK	32	Neutral	xxxxxxx	xxxxxxx	czerwony	red	hit	n/a
148.6618	n/a	RESPONSE	n/a	n/a	n/a	n/a	n/a	n/a	n/a	red
148.7009	1.0167	ITI	n/a	n/a	n/a	n/a	n/a	n/a	n/a	n/a
149.7176	0.5167	FIXCROSS	n/a	n/a	n/a	n/a	n/a	n/a	n/a	n/a
150.2342	0.55	INK	33	Neutral	xxxxxxx	xxxxxxx	niebieski	blue	hit	n/a
150.7581	n/a	RESPONSE	n/a	n/a	n/a	n/a	n/a	n/a	n/a	blue
150.7842	1.0167	ITI	n/a	n/a	n/a	n/a	n/a	n/a	n/a	n/a
151.8009	0.5166	FIXCROSS	n/a	n/a	n/a	n/a	n/a	n/a	n/a	n/a
152.3176	0.5334	INK	34	Neutral	xxxxxxx	xxxxxxx	niebieski	blue	hit	n/a
152.8173	n/a	RESPONSE	n/a	n/a	n/a	n/a	n/a	n/a	n/a	blue
152.8509	1.0166	ITI	n/a	n/a	n/a	n/a	n/a	n/a	n/a	n/a
153.8676	0.5167	FIXCROSS	n/a	n/a	n/a	n/a	n/a	n/a	n/a	n/a
154.3842	0.8834	INK	35	Neutral	xxxxxxxx	xxxxxxxx	zielony	green	hit	n/a
155.2436	n/a	RESPONSE	n/a	n/a	n/a	n/a	n/a	n/a	n/a	green
155.2676	1.0167	ITI	n/a	n/a	n/a	n/a	n/a	n/a	n/a	n/a
156.2843	0.5167	FIXCROSS	n/a	n/a	n/a	n/a	n/a	n/a	n/a	n/a
156.801	0.9667	INK	36	Neutral	xxxxxxxxx	xxxxxxxxx	żółty	yellow	hit	n/a
157.7337	n/a	RESPONSE	n/a	n/a	n/a	n/a	n/a	n/a	n/a	yellow
157.7676	1.0167	ITI	n/a	n/a	n/a	n/a	n/a	n/a	n/a	n/a
158.7843	0.5167	FIXCROSS	n/a	n/a	n/a	n/a	n/a	n/a	n/a	n/a
159.301	0.65	INK	37	Incongruent	czerwony	red	żółty	yellow	hit	n/a
159.9207	n/a	RESPONSE	n/a	n/a	n/a	n/a	n/a	n/a	n/a	yellow
159.951	1.0167	ITI	n/a	n/a	n/a	n/a	n/a	n/a	n/a	n/a
160.9677	0.5167	FIXCROSS	n/a	n/a	n/a	n/a	n/a	n/a	n/a	n/a
161.4843	0.95	INK	38	Neutral	xxxxx	xxxxx	zielony	green	hit	n/a
162.4109	n/a	RESPONSE	n/a	n/a	n/a	n/a	n/a	n/a	n/a	green
162.4343	1.0167	ITI	n/a	n/a	n/a	n/a	n/a	n/a	n/a	n/a
163.451	0.5167	FIXCROSS	n/a	n/a	n/a	n/a	n/a	n/a	n/a	n/a
163.9677	0.95	INK	39	Neutral	xxxxxxxx	xxxxxxxx	zielony	green	hit	n/a
164.8852	n/a	RESPONSE	n/a	n/a	n/a	n/a	n/a	n/a	n/a	green
164.9177	1.0167	ITI	n/a	n/a	n/a	n/a	n/a	n/a	n/a	n/a
165.9343	0.5167	FIXCROSS	n/a	n/a	n/a	n/a	n/a	n/a	n/a	n/a
166.451	0.7166	INK	40	Neutral	xxxxxxxx	xxxxxxxx	niebieski	blue	hit	n/a
167.1359	n/a	RESPONSE	n/a	n/a	n/a	n/a	n/a	n/a	n/a	blue
167.1677	1.0167	ITI	n/a	n/a	n/a	n/a	n/a	n/a	n/a	n/a
168.1844	0.5167	FIXCROSS	n/a	n/a	n/a	n/a	n/a	n/a	n/a	n/a
168.7011	0.4667	INK	41	Neutral	xxxxxxx	xxxxxxx	czerwony	red	hit	n/a
169.1472	n/a	RESPONSE	n/a	n/a	n/a	n/a	n/a	n/a	n/a	red
169.1677	1.0167	ITI	n/a	n/a	n/a	n/a	n/a	n/a	n/a	n/a
169.3707	n/a	RESPONSE	n/a	n/a	n/a	n/a	n/a	n/a	n/a	red
170.1844	0.5166	FIXCROSS	n/a	n/a	n/a	n/a	n/a	n/a	n/a	n/a
170.701	0.6834	INK	42	Incongruent	czerwony	red	zielony	green	hit	n/a
171.3659	n/a	RESPONSE	n/a	n/a	n/a	n/a	n/a	n/a	n/a	green
171.3844	1.0166	ITI	n/a	n/a	n/a	n/a	n/a	n/a	n/a	n/a
172.4011	0.5167	FIXCROSS	n/a	n/a	n/a	n/a	n/a	n/a	n/a	n/a
172.9178	0.6667	INK	43	Neutral	xxxxxxx	xxxxxxx	żółty	yellow	hit	n/a
173.5529	n/a	RESPONSE	n/a	n/a	n/a	n/a	n/a	n/a	n/a	yellow
173.5844	1.0167	ITI	n/a	n/a	n/a	n/a	n/a	n/a	n/a	n/a
174.6011	0.5167	FIXCROSS	n/a	n/a	n/a	n/a	n/a	n/a	n/a	n/a
175.1178	0.6166	INK	44	Neutral	xxxxxxxxx	xxxxxxxxx	czerwony	red	hit	n/a
175.7079	n/a	RESPONSE	n/a	n/a	n/a	n/a	n/a	n/a	n/a	red
175.7344	1.0167	ITI	n/a	n/a	n/a	n/a	n/a	n/a	n/a	n/a
176.7511	0.5167	FIXCROSS	n/a	n/a	n/a	n/a	n/a	n/a	n/a	n/a
177.2678	0.7333	INK	45	Neutral	xxxxx	xxxxx	niebieski	blue	hit	n/a
177.9746	n/a	RESPONSE	n/a	n/a	n/a	n/a	n/a	n/a	n/a	blue
178.0011	1.0166	ITI	n/a	n/a	n/a	n/a	n/a	n/a	n/a	n/a
179.0178	0.5167	FIXCROSS	n/a	n/a	n/a	n/a	n/a	n/a	n/a	n/a
179.5345	0.7333	INK	46	Neutral	xxxxxxx	xxxxxxx	niebieski	blue	hit	n/a
180.2414	n/a	RESPONSE	n/a	n/a	n/a	n/a	n/a	n/a	n/a	blue
180.2678	1.0167	ITI	n/a	n/a	n/a	n/a	n/a	n/a	n/a	n/a
181.2845	0.5167	FIXCROSS	n/a	n/a	n/a	n/a	n/a	n/a	n/a	n/a
181.8012	0.5833	INK	47	Incongruent	czerwony	red	zielony	green	hit	n/a
182.3644	n/a	RESPONSE	n/a	n/a	n/a	n/a	n/a	n/a	n/a	green
182.3845	1.0167	ITI	n/a	n/a	n/a	n/a	n/a	n/a	n/a	n/a
183.4012	0.5167	FIXCROSS	n/a	n/a	n/a	n/a	n/a	n/a	n/a	n/a
183.9179	0.9833	INK	48	Incongruent	żółty	yellow	czerwony	red	hit	n/a
184.8705	n/a	RESPONSE	n/a	n/a	n/a	n/a	n/a	n/a	n/a	red
184.9012	1.0167	ITI	n/a	n/a	n/a	n/a	n/a	n/a	n/a	n/a
185.9179	0.5167	FIXCROSS	n/a	n/a	n/a	n/a	n/a	n/a	n/a	n/a
186.4345	0.65	INK	49	Neutral	xxxxx	xxxxx	czerwony	red	hit	n/a
187.0575	n/a	RESPONSE	n/a	n/a	n/a	n/a	n/a	n/a	n/a	red
187.0845	1.0167	ITI	n/a	n/a	n/a	n/a	n/a	n/a	n/a	n/a
188.1012	0.5167	FIXCROSS	n/a	n/a	n/a	n/a	n/a	n/a	n/a	n/a
188.6179	0.9167	INK	50	Neutral	xxxxxxxxx	xxxxxxxxx	zielony	green	hit	n/a
189.4999	n/a	RESPONSE	n/a	n/a	n/a	n/a	n/a	n/a	n/a	green
189.5346	1.0167	ITI	n/a	n/a	n/a	n/a	n/a	n/a	n/a	n/a
190.5512	0.5167	FIXCROSS	n/a	n/a	n/a	n/a	n/a	n/a	n/a	n/a
191.0679	0.5166	INK	51	Neutral	xxxxxxxx	xxxxxxxx	żółty	yellow	hit	n/a
191.5591	n/a	RESPONSE	n/a	n/a	n/a	n/a	n/a	n/a	n/a	yellow
191.5846	1.0167	ITI	n/a	n/a	n/a	n/a	n/a	n/a	n/a	n/a
192.6012	0.5167	FIXCROSS	n/a	n/a	n/a	n/a	n/a	n/a	n/a	n/a
193.1179	0.7666	INK	52	Incongruent	niebieski	blue	żółty	yellow	hit	n/a
193.8577	n/a	RESPONSE	n/a	n/a	n/a	n/a	n/a	n/a	n/a	yellow
193.8846	1.0167	ITI	n/a	n/a	n/a	n/a	n/a	n/a	n/a	n/a
194.9013	0.5166	FIXCROSS	n/a	n/a	n/a	n/a	n/a	n/a	n/a	n/a
195.4179	0.7333	INK	53	Incongruent	zielony	green	czerwony	red	hit	n/a
196.1244	n/a	RESPONSE	n/a	n/a	n/a	n/a	n/a	n/a	n/a	red
196.1513	1.0167	ITI	n/a	n/a	n/a	n/a	n/a	n/a	n/a	n/a
197.1679	0.5167	FIXCROSS	n/a	n/a	n/a	n/a	n/a	n/a	n/a	n/a
197.6846	0.65	INK	54	Incongruent	niebieski	blue	żółty	yellow	hit	n/a
198.3113	n/a	RESPONSE	n/a	n/a	n/a	n/a	n/a	n/a	n/a	yellow
198.3346	1.0167	ITI	n/a	n/a	n/a	n/a	n/a	n/a	n/a	n/a
199.3513	0.5167	FIXCROSS	n/a	n/a	n/a	n/a	n/a	n/a	n/a	n/a
199.868	0.5166	INK	55	Neutral	xxxxx	xxxxx	niebieski	blue	hit	n/a
200.3546	n/a	RESPONSE	n/a	n/a	n/a	n/a	n/a	n/a	n/a	blue
200.3846	1.0167	ITI	n/a	n/a	n/a	n/a	n/a	n/a	n/a	n/a
201.4013	0.5167	FIXCROSS	n/a	n/a	n/a	n/a	n/a	n/a	n/a	n/a
201.918	0.65	INK	56	Incongruent	żółty	yellow	czerwony	red	hit	n/a
202.5415	n/a	RESPONSE	n/a	n/a	n/a	n/a	n/a	n/a	n/a	red
202.568	1.0166	ITI	n/a	n/a	n/a	n/a	n/a	n/a	n/a	n/a
203.5846	0.5167	FIXCROSS	n/a	n/a	n/a	n/a	n/a	n/a	n/a	n/a
204.1013	0.6166	INK	57	Incongruent	żółty	yellow	czerwony	red	hit	n/a
204.6964	n/a	RESPONSE	n/a	n/a	n/a	n/a	n/a	n/a	n/a	red
204.718	1.0167	ITI	n/a	n/a	n/a	n/a	n/a	n/a	n/a	n/a
205.7347	0.5167	FIXCROSS	n/a	n/a	n/a	n/a	n/a	n/a	n/a	n/a
206.2514	0.5833	INK	58	Incongruent	czerwony	red	żółty	yellow	hit	n/a
206.8035	n/a	RESPONSE	n/a	n/a	n/a	n/a	n/a	n/a	n/a	yellow
206.8347	1.0167	ITI	n/a	n/a	n/a	n/a	n/a	n/a	n/a	n/a
207.8514	0.5167	FIXCROSS	n/a	n/a	n/a	n/a	n/a	n/a	n/a	n/a
208.368	0.5833	INK	59	Incongruent	żółty	yellow	niebieski	blue	hit	n/a
208.9267	n/a	RESPONSE	n/a	n/a	n/a	n/a	n/a	n/a	n/a	blue
208.9514	1.0167	ITI	n/a	n/a	n/a	n/a	n/a	n/a	n/a	n/a
209.9681	0.5167	FIXCROSS	n/a	n/a	n/a	n/a	n/a	n/a	n/a	n/a
210.4847	0.7	INK	60	Neutral	xxxxxxxxx	xxxxxxxxx	żółty	yellow	hit	n/a
211.1615	n/a	RESPONSE	n/a	n/a	n/a	n/a	n/a	n/a	n/a	yellow
211.1847	1.0167	ITI	n/a	n/a	n/a	n/a	n/a	n/a	n/a	n/a
212.2014	0.5167	FIXCROSS	n/a	n/a	n/a	n/a	n/a	n/a	n/a	n/a
212.7181	0.7	INK	61	Incongruent	niebieski	blue	żółty	yellow	hit	n/a
213.3964	n/a	RESPONSE	n/a	n/a	n/a	n/a	n/a	n/a	n/a	yellow
213.4181	1.0167	ITI	n/a	n/a	n/a	n/a	n/a	n/a	n/a	n/a
214.4348	0.5166	FIXCROSS	n/a	n/a	n/a	n/a	n/a	n/a	n/a	n/a
214.9514	0.7834	INK	62	Incongruent	niebieski	blue	zielony	green	hit	n/a
215.7109	n/a	RESPONSE	n/a	n/a	n/a	n/a	n/a	n/a	n/a	green
215.7348	1.0167	ITI	n/a	n/a	n/a	n/a	n/a	n/a	n/a	n/a
216.7515	0.5166	FIXCROSS	n/a	n/a	n/a	n/a	n/a	n/a	n/a	n/a
217.2681	0.4834	INK	63	Neutral	xxxxxxxxx	xxxxxxxxx	czerwony	red	hit	n/a
217.7223	n/a	RESPONSE	n/a	n/a	n/a	n/a	n/a	n/a	n/a	red
217.7515	1.0166	ITI	n/a	n/a	n/a	n/a	n/a	n/a	n/a	n/a
218.7681	0.5167	FIXCROSS	n/a	n/a	n/a	n/a	n/a	n/a	n/a	n/a
219.2848	0.45	INK	64	Neutral	xxxxxxxx	xxxxxxxx	niebieski	blue	hit	n/a
219.7017	n/a	RESPONSE	n/a	n/a	n/a	n/a	n/a	n/a	n/a	blue
219.7348	1.0167	ITI	n/a	n/a	n/a	n/a	n/a	n/a	n/a	n/a
220.7515	0.5167	FIXCROSS	n/a	n/a	n/a	n/a	n/a	n/a	n/a	n/a
221.2681	0.95	INK	65	Neutral	xxxxxxxx	xxxxxxxx	żółty	yellow	hit	n/a
222.1919	n/a	RESPONSE	n/a	n/a	n/a	n/a	n/a	n/a	n/a	yellow
222.2182	1.0167	ITI	n/a	n/a	n/a	n/a	n/a	n/a	n/a	n/a
223.2348	0.5167	FIXCROSS	n/a	n/a	n/a	n/a	n/a	n/a	n/a	n/a
223.7515	0.9333	INK	66	Incongruent	niebieski	blue	zielony	green	hit	n/a
224.6661	n/a	RESPONSE	n/a	n/a	n/a	n/a	n/a	n/a	n/a	green
224.6848	1.0167	ITI	n/a	n/a	n/a	n/a	n/a	n/a	n/a	n/a
225.7015	0.5167	FIXCROSS	n/a	n/a	n/a	n/a	n/a	n/a	n/a	n/a
226.2182	0.7667	INK	67	Incongruent	zielony	green	niebieski	blue	hit	n/a
226.9647	n/a	RESPONSE	n/a	n/a	n/a	n/a	n/a	n/a	n/a	blue
226.9849	1.0167	ITI	n/a	n/a	n/a	n/a	n/a	n/a	n/a	n/a
228.0015	0.5167	FIXCROSS	n/a	n/a	n/a	n/a	n/a	n/a	n/a	n/a
228.5182	0.4167	INK	68	Neutral	xxxxxxx	xxxxxxx	czerwony	red	hit	n/a
228.9123	n/a	RESPONSE	n/a	n/a	n/a	n/a	n/a	n/a	n/a	red
228.9349	1.0167	ITI	n/a	n/a	n/a	n/a	n/a	n/a	n/a	n/a
229.9516	0.5167	FIXCROSS	n/a	n/a	n/a	n/a	n/a	n/a	n/a	n/a
230.4682	0.7167	INK	69	Neutral	xxxxx	xxxxx	czerwony	red	hit	n/a
231.163	n/a	RESPONSE	n/a	n/a	n/a	n/a	n/a	n/a	n/a	red
231.1849	1.0166	ITI	n/a	n/a	n/a	n/a	n/a	n/a	n/a	n/a
232.2015	0.5167	FIXCROSS	n/a	n/a	n/a	n/a	n/a	n/a	n/a	n/a
232.7182	0.6666	INK	70	Incongruent	żółty	yellow	niebieski	blue	hit	n/a
233.366	n/a	RESPONSE	n/a	n/a	n/a	n/a	n/a	n/a	n/a	blue
233.3849	1.0167	ITI	n/a	n/a	n/a	n/a	n/a	n/a	n/a	n/a
234.4016	0.5167	FIXCROSS	n/a	n/a	n/a	n/a	n/a	n/a	n/a	n/a
234.9183	0.9333	INK	71	Incongruent	czerwony	red	zielony	green	hit	n/a
235.8242	n/a	RESPONSE	n/a	n/a	n/a	n/a	n/a	n/a	n/a	green
235.8516	1.0167	ITI	n/a	n/a	n/a	n/a	n/a	n/a	n/a	n/a
236.8683	0.5167	FIXCROSS	n/a	n/a	n/a	n/a	n/a	n/a	n/a	n/a
237.385	1.5666	INK	72	Incongruent	niebieski	blue	czerwony	red	hit	n/a
238.9211	n/a	RESPONSE	n/a	n/a	n/a	n/a	n/a	n/a	n/a	red
238.9516	1.0833	ITI	n/a	n/a	n/a	n/a	n/a	n/a	n/a	n/a
260.5987	n/a	RESPONSE	n/a	n/a	n/a	n/a	n/a	n/a	n/a	n/a
260.6684	1.0167	ITI	n/a	n/a	n/a	n/a	n/a	n/a	n/a	n/a
261.6851	0.5167	FIXCROSS	n/a	n/a	n/a	n/a	n/a	n/a	n/a	n/a
262.2018	0.7499	T_COLOR_NAME	1	Incongruent	czerwony	red	żółty	yellow	hit	n/a
262.9133	n/a	RESPONSE	n/a	n/a	n/a	n/a	n/a	n/a	n/a	red
262.9517	0.5168	FEEDBACK	n/a	n/a	n/a	n/a	n/a	n/a	n/a	n/a
263.4685	1.0167	ITI	n/a	n/a	n/a	n/a	n/a	n/a	n/a	n/a
264.4851	0.5167	FIXCROSS	n/a	n/a	n/a	n/a	n/a	n/a	n/a	n/a
265.0018	0.5667	T_COLOR_NAME	2	Neutral	niebieski	blue	Neutral	Neutral	hit	n/a
265.5472	n/a	RESPONSE	n/a	n/a	n/a	n/a	n/a	n/a	n/a	blue
265.5685	0.5167	FEEDBACK	n/a	n/a	n/a	n/a	n/a	n/a	n/a	n/a
266.0852	1.0167	ITI	n/a	n/a	n/a	n/a	n/a	n/a	n/a	n/a
267.1019	0.5166	FIXCROSS	n/a	n/a	n/a	n/a	n/a	n/a	n/a	n/a
267.6185	0.5834	T_COLOR_NAME	3	Neutral	żółty	yellow	Neutral	Neutral	hit	n/a
268.1651	n/a	RESPONSE	n/a	n/a	n/a	n/a	n/a	n/a	n/a	yellow
268.2019	0.5167	FEEDBACK	n/a	n/a	n/a	n/a	n/a	n/a	n/a	n/a
268.7185	1.0167	ITI	n/a	n/a	n/a	n/a	n/a	n/a	n/a	n/a
269.7352	0.5166	FIXCROSS	n/a	n/a	n/a	n/a	n/a	n/a	n/a	n/a
270.2518	0.8667	T_COLOR_NAME	4	Neutral	czerwony	red	Neutral	Neutral	hit	n/a
271.0863	n/a	RESPONSE	n/a	n/a	n/a	n/a	n/a	n/a	n/a	red
271.1185	0.5166	FEEDBACK	n/a	n/a	n/a	n/a	n/a	n/a	n/a	n/a
271.6352	1.0167	ITI	n/a	n/a	n/a	n/a	n/a	n/a	n/a	n/a
272.6519	0.5166	FIXCROSS	n/a	n/a	n/a	n/a	n/a	n/a	n/a	n/a
273.1685	0.6667	T_COLOR_NAME	5	Neutral	czerwony	red	Neutral	Neutral	hit	n/a
273.8159	n/a	RESPONSE	n/a	n/a	n/a	n/a	n/a	n/a	n/a	red
273.8352	0.5167	FEEDBACK	n/a	n/a	n/a	n/a	n/a	n/a	n/a	n/a
274.3519	1.0166	ITI	n/a	n/a	n/a	n/a	n/a	n/a	n/a	n/a
275.3686	0.5167	FIXCROSS	n/a	n/a	n/a	n/a	n/a	n/a	n/a	n/a
275.8852	0.4	T_COLOR_NAME	6	Incongruent	zielony	green	żółty	yellow	hit	n/a
276.2583	n/a	RESPONSE	n/a	n/a	n/a	n/a	n/a	n/a	n/a	green
276.2853	0.5166	FEEDBACK	n/a	n/a	n/a	n/a	n/a	n/a	n/a	n/a
276.8019	1.0167	ITI	n/a	n/a	n/a	n/a	n/a	n/a	n/a	n/a
277.8186	0.5167	FIXCROSS	n/a	n/a	n/a	n/a	n/a	n/a	n/a	n/a
278.3353	0.6667	T_COLOR_NAME	7	Neutral	niebieski	blue	Neutral	Neutral	hit	n/a
278.972	n/a	RESPONSE	n/a	n/a	n/a	n/a	n/a	n/a	n/a	blue
279.002	0.5166	FEEDBACK	n/a	n/a	n/a	n/a	n/a	n/a	n/a	n/a
279.5186	1.0167	ITI	n/a	n/a	n/a	n/a	n/a	n/a	n/a	n/a
280.5353	0.5167	FIXCROSS	n/a	n/a	n/a	n/a	n/a	n/a	n/a	n/a
281.0519	1.1834	T_COLOR_NAME	8	Neutral	zielony	green	Neutral	Neutral	hit	n/a
282.2124	n/a	RESPONSE	n/a	n/a	n/a	n/a	n/a	n/a	n/a	green
282.2353	0.5166	FEEDBACK	n/a	n/a	n/a	n/a	n/a	n/a	n/a	n/a
282.7519	1.0167	ITI	n/a	n/a	n/a	n/a	n/a	n/a	n/a	n/a
283.7686	0.5167	FIXCROSS	n/a	n/a	n/a	n/a	n/a	n/a	n/a	n/a
284.2853	0.9833	T_COLOR_NAME	9	Incongruent	żółty	yellow	niebieski	blue	hit	n/a
285.2454	n/a	RESPONSE	n/a	n/a	n/a	n/a	n/a	n/a	n/a	yellow
285.2687	0.5167	FEEDBACK	n/a	n/a	n/a	n/a	n/a	n/a	n/a	n/a
285.7853	1.0167	ITI	n/a	n/a	n/a	n/a	n/a	n/a	n/a	n/a
286.802	0.5167	FIXCROSS	n/a	n/a	n/a	n/a	n/a	n/a	n/a	n/a
287.3187	0.5	T_COLOR_NAME	10	Incongruent	niebieski	blue	zielony	green	hit	n/a
287.7835	n/a	RESPONSE	n/a	n/a	n/a	n/a	n/a	n/a	n/a	blue
287.8186	0.5167	FEEDBACK	n/a	n/a	n/a	n/a	n/a	n/a	n/a	n/a
288.3354	1.0167	ITI	n/a	n/a	n/a	n/a	n/a	n/a	n/a	n/a
289.352	0.5166	FIXCROSS	n/a	n/a	n/a	n/a	n/a	n/a	n/a	n/a
289.8687	0.6	T_COLOR_NAME	11	Incongruent	niebieski	blue	czerwony	red	hit	n/a
290.4494	n/a	RESPONSE	n/a	n/a	n/a	n/a	n/a	n/a	n/a	blue
290.4687	0.5167	FEEDBACK	n/a	n/a	n/a	n/a	n/a	n/a	n/a	n/a
290.9854	1.0167	ITI	n/a	n/a	n/a	n/a	n/a	n/a	n/a	n/a
292.002	0.5167	FIXCROSS	n/a	n/a	n/a	n/a	n/a	n/a	n/a	n/a
292.5187	1.1	T_COLOR_NAME	12	Incongruent	zielony	green	czerwony	red	incorrect	n/a
293.594	n/a	RESPONSE	n/a	n/a	n/a	n/a	n/a	n/a	n/a	yellow
293.6187	0.5166	FEEDBACK	n/a	n/a	n/a	n/a	n/a	n/a	n/a	n/a
294.1354	1.0333	ITI	n/a	n/a	n/a	n/a	n/a	n/a	n/a	n/a
297.0579	n/a	RESPONSE	n/a	n/a	n/a	n/a	n/a	n/a	n/a	n/a
297.1188	1.0167	ITI	n/a	n/a	n/a	n/a	n/a	n/a	n/a	n/a
298.1354	0.5167	FIXCROSS	n/a	n/a	n/a	n/a	n/a	n/a	n/a	n/a
298.6521	0.85	COLOR_NAME	1	Incongruent	żółty	yellow	niebieski	blue	hit	n/a
299.4684	n/a	RESPONSE	n/a	n/a	n/a	n/a	n/a	n/a	n/a	yellow
299.5021	1.0167	ITI	n/a	n/a	n/a	n/a	n/a	n/a	n/a	n/a
300.5188	0.5167	FIXCROSS	n/a	n/a	n/a	n/a	n/a	n/a	n/a	n/a
301.0354	0.8833	COLOR_NAME	2	Neutral	zielony	green	Neutral	Neutral	hit	n/a
301.8948	n/a	RESPONSE	n/a	n/a	n/a	n/a	n/a	n/a	n/a	green
301.9188	1.0167	ITI	n/a	n/a	n/a	n/a	n/a	n/a	n/a	n/a
302.9355	0.5167	FIXCROSS	n/a	n/a	n/a	n/a	n/a	n/a	n/a	n/a
303.4521	0.6167	COLOR_NAME	3	Incongruent	niebieski	blue	żółty	yellow	hit	n/a
304.0497	n/a	RESPONSE	n/a	n/a	n/a	n/a	n/a	n/a	n/a	blue
304.0688	1.0167	ITI	n/a	n/a	n/a	n/a	n/a	n/a	n/a	n/a
305.0855	0.5166	FIXCROSS	n/a	n/a	n/a	n/a	n/a	n/a	n/a	n/a
305.6021	0.8667	COLOR_NAME	4	Neutral	zielony	green	Neutral	Neutral	hit	n/a
306.4442	n/a	RESPONSE	n/a	n/a	n/a	n/a	n/a	n/a	n/a	green
306.4688	1.0167	ITI	n/a	n/a	n/a	n/a	n/a	n/a	n/a	n/a
307.4855	0.5167	FIXCROSS	n/a	n/a	n/a	n/a	n/a	n/a	n/a	n/a
308.0022	1.0333	COLOR_NAME	5	Neutral	żółty	yellow	Neutral	Neutral	hit	n/a
309.0143	n/a	RESPONSE	n/a	n/a	n/a	n/a	n/a	n/a	n/a	yellow
309.0355	1.0167	ITI	n/a	n/a	n/a	n/a	n/a	n/a	n/a	n/a
310.0522	0.5167	FIXCROSS	n/a	n/a	n/a	n/a	n/a	n/a	n/a	n/a
310.5689	0.7167	COLOR_NAME	6	Neutral	niebieski	blue	Neutral	Neutral	hit	n/a
311.265	n/a	RESPONSE	n/a	n/a	n/a	n/a	n/a	n/a	n/a	blue
311.2855	1.0166	ITI	n/a	n/a	n/a	n/a	n/a	n/a	n/a	n/a
312.3022	0.5167	FIXCROSS	n/a	n/a	n/a	n/a	n/a	n/a	n/a	n/a
312.8189	0.9	COLOR_NAME	7	Incongruent	zielony	green	żółty	yellow	hit	n/a
313.6914	n/a	RESPONSE	n/a	n/a	n/a	n/a	n/a	n/a	n/a	green
313.7189	1.0166	ITI	n/a	n/a	n/a	n/a	n/a	n/a	n/a	n/a
314.7355	0.5167	FIXCROSS	n/a	n/a	n/a	n/a	n/a	n/a	n/a	n/a
315.2522	0.75	COLOR_NAME	8	Incongruent	żółty	yellow	zielony	green	hit	n/a
315.9741	n/a	RESPONSE	n/a	n/a	n/a	n/a	n/a	n/a	n/a	yellow
316.0022	1.0167	ITI	n/a	n/a	n/a	n/a	n/a	n/a	n/a	n/a
317.0189	0.5167	FIXCROSS	n/a	n/a	n/a	n/a	n/a	n/a	n/a	n/a
317.5356	0.4667	COLOR_NAME	9	Incongruent	czerwony	red	zielony	green	hit	n/a
317.9694	n/a	RESPONSE	n/a	n/a	n/a	n/a	n/a	n/a	n/a	red
318.0023	1.0166	ITI	n/a	n/a	n/a	n/a	n/a	n/a	n/a	n/a
319.0189	0.5167	FIXCROSS	n/a	n/a	n/a	n/a	n/a	n/a	n/a	n/a
319.5356	0.6334	COLOR_NAME	10	Neutral	czerwony	red	Neutral	Neutral	hit	n/a
320.1404	n/a	RESPONSE	n/a	n/a	n/a	n/a	n/a	n/a	n/a	red
320.1689	1.0167	ITI	n/a	n/a	n/a	n/a	n/a	n/a	n/a	n/a
321.1856	0.5167	FIXCROSS	n/a	n/a	n/a	n/a	n/a	n/a	n/a	n/a
321.7023	0.85	COLOR_NAME	11	Incongruent	żółty	yellow	niebieski	blue	hit	n/a
322.5348	n/a	RESPONSE	n/a	n/a	n/a	n/a	n/a	n/a	n/a	yellow
322.5523	1.0166	ITI	n/a	n/a	n/a	n/a	n/a	n/a	n/a	n/a
323.5688	0.5168	FIXCROSS	n/a	n/a	n/a	n/a	n/a	n/a	n/a	n/a
324.0856	0.7167	COLOR_NAME	12	Neutral	zielony	green	Neutral	Neutral	hit	n/a
324.7696	n/a	RESPONSE	n/a	n/a	n/a	n/a	n/a	n/a	n/a	green
324.8023	1.0166	ITI	n/a	n/a	n/a	n/a	n/a	n/a	n/a	n/a
325.8189	0.5167	FIXCROSS	n/a	n/a	n/a	n/a	n/a	n/a	n/a	n/a
326.3357	1.0166	COLOR_NAME	13	Incongruent	niebieski	blue	żółty	yellow	hit	n/a
327.3237	n/a	RESPONSE	n/a	n/a	n/a	n/a	n/a	n/a	n/a	blue
327.3523	1.0167	ITI	n/a	n/a	n/a	n/a	n/a	n/a	n/a	n/a
328.369	0.5167	FIXCROSS	n/a	n/a	n/a	n/a	n/a	n/a	n/a	n/a
328.8857	0.6667	COLOR_NAME	14	Neutral	żółty	yellow	Neutral	Neutral	hit	n/a
329.5266	n/a	RESPONSE	n/a	n/a	n/a	n/a	n/a	n/a	n/a	yellow
329.5523	1.0167	ITI	n/a	n/a	n/a	n/a	n/a	n/a	n/a	n/a
330.569	0.5166	FIXCROSS	n/a	n/a	n/a	n/a	n/a	n/a	n/a	n/a
331.0857	0.7	COLOR_NAME	15	Neutral	niebieski	blue	Neutral	Neutral	hit	n/a
331.7613	n/a	RESPONSE	n/a	n/a	n/a	n/a	n/a	n/a	n/a	blue
331.7857	1.0167	ITI	n/a	n/a	n/a	n/a	n/a	n/a	n/a	n/a
332.8024	0.5167	FIXCROSS	n/a	n/a	n/a	n/a	n/a	n/a	n/a	n/a
333.319	0.6167	COLOR_NAME	16	Neutral	żółty	yellow	Neutral	Neutral	hit	n/a
333.9164	n/a	RESPONSE	n/a	n/a	n/a	n/a	n/a	n/a	n/a	yellow
333.9357	1.0167	ITI	n/a	n/a	n/a	n/a	n/a	n/a	n/a	n/a
334.9524	0.5167	FIXCROSS	n/a	n/a	n/a	n/a	n/a	n/a	n/a	n/a
335.4691	0.6667	COLOR_NAME	17	Incongruent	czerwony	red	zielony	green	hit	n/a
336.1032	n/a	RESPONSE	n/a	n/a	n/a	n/a	n/a	n/a	n/a	red
336.1357	1.0166	ITI	n/a	n/a	n/a	n/a	n/a	n/a	n/a	n/a
337.1524	0.5167	FIXCROSS	n/a	n/a	n/a	n/a	n/a	n/a	n/a	n/a
337.6691	0.8167	COLOR_NAME	18	Incongruent	żółty	yellow	czerwony	red	hit	n/a
338.4657	n/a	RESPONSE	n/a	n/a	n/a	n/a	n/a	n/a	n/a	yellow
338.4858	1.0166	ITI	n/a	n/a	n/a	n/a	n/a	n/a	n/a	n/a
339.5024	0.5167	FIXCROSS	n/a	n/a	n/a	n/a	n/a	n/a	n/a	n/a
340.0191	0.6667	COLOR_NAME	19	Incongruent	żółty	yellow	czerwony	red	hit	n/a
340.6525	n/a	RESPONSE	n/a	n/a	n/a	n/a	n/a	n/a	n/a	yellow
340.6857	1.0167	ITI	n/a	n/a	n/a	n/a	n/a	n/a	n/a	n/a
341.7024	0.5167	FIXCROSS	n/a	n/a	n/a	n/a	n/a	n/a	n/a	n/a
342.2191	0.7667	COLOR_NAME	20	Incongruent	zielony	green	niebieski	blue	hit	n/a
342.9671	n/a	RESPONSE	n/a	n/a	n/a	n/a	n/a	n/a	n/a	green
342.9858	1.0167	ITI	n/a	n/a	n/a	n/a	n/a	n/a	n/a	n/a
344.0025	0.5167	FIXCROSS	n/a	n/a	n/a	n/a	n/a	n/a	n/a	n/a
344.5191	0.55	COLOR_NAME	21	Incongruent	zielony	green	niebieski	blue	hit	n/a
345.0424	n/a	RESPONSE	n/a	n/a	n/a	n/a	n/a	n/a	n/a	green
345.0691	1.0167	ITI	n/a	n/a	n/a	n/a	n/a	n/a	n/a	n/a
346.0858	0.5167	FIXCROSS	n/a	n/a	n/a	n/a	n/a	n/a	n/a	n/a
346.6025	0.9	COLOR_NAME	22	Incongruent	czerwony	red	niebieski	blue	hit	n/a
347.4687	n/a	RESPONSE	n/a	n/a	n/a	n/a	n/a	n/a	n/a	red
347.5025	1.0166	ITI	n/a	n/a	n/a	n/a	n/a	n/a	n/a	n/a
348.5191	0.5167	FIXCROSS	n/a	n/a	n/a	n/a	n/a	n/a	n/a	n/a
349.0358	0.9833	COLOR_NAME	23	Neutral	zielony	green	Neutral	Neutral	hit	n/a
349.9908	n/a	RESPONSE	n/a	n/a	n/a	n/a	n/a	n/a	n/a	green
350.0192	1.0167	ITI	n/a	n/a	n/a	n/a	n/a	n/a	n/a	n/a
351.0358	0.5167	FIXCROSS	n/a	n/a	n/a	n/a	n/a	n/a	n/a	n/a
351.5525	0.6667	COLOR_NAME	24	Neutral	czerwony	red	Neutral	Neutral	hit	n/a
352.1938	n/a	RESPONSE	n/a	n/a	n/a	n/a	n/a	n/a	n/a	red
352.2192	1.0167	ITI	n/a	n/a	n/a	n/a	n/a	n/a	n/a	n/a
353.2359	0.5167	FIXCROSS	n/a	n/a	n/a	n/a	n/a	n/a	n/a	n/a
353.7525	0.8833	COLOR_NAME	25	Neutral	zielony	green	Neutral	Neutral	hit	n/a
354.6042	n/a	RESPONSE	n/a	n/a	n/a	n/a	n/a	n/a	n/a	green
354.6359	1.0167	ITI	n/a	n/a	n/a	n/a	n/a	n/a	n/a	n/a
355.6526	0.5167	FIXCROSS	n/a	n/a	n/a	n/a	n/a	n/a	n/a	n/a
356.1692	0.6333	COLOR_NAME	26	Neutral	żółty	yellow	Neutral	Neutral	hit	n/a
356.7751	n/a	RESPONSE	n/a	n/a	n/a	n/a	n/a	n/a	n/a	yellow
356.8026	1.0167	ITI	n/a	n/a	n/a	n/a	n/a	n/a	n/a	n/a
357.8192	0.5166	FIXCROSS	n/a	n/a	n/a	n/a	n/a	n/a	n/a	n/a
358.3359	0.9834	COLOR_NAME	27	Neutral	niebieski	blue	Neutral	Neutral	incorrect	n/a
359.2972	n/a	RESPONSE	n/a	n/a	n/a	n/a	n/a	n/a	n/a	green
359.3192	1.0167	ITI	n/a	n/a	n/a	n/a	n/a	n/a	n/a	n/a
360.3359	0.5166	FIXCROSS	n/a	n/a	n/a	n/a	n/a	n/a	n/a	n/a
360.8526	0.9333	COLOR_NAME	28	Incongruent	zielony	green	czerwony	red	hit	n/a
361.7556	n/a	RESPONSE	n/a	n/a	n/a	n/a	n/a	n/a	n/a	green
361.7859	1.0167	ITI	n/a	n/a	n/a	n/a	n/a	n/a	n/a	n/a
362.8026	0.5167	FIXCROSS	n/a	n/a	n/a	n/a	n/a	n/a	n/a	n/a
363.3193	0.9333	COLOR_NAME	29	Neutral	niebieski	blue	Neutral	Neutral	hit	n/a
364.2298	n/a	RESPONSE	n/a	n/a	n/a	n/a	n/a	n/a	n/a	blue
364.2526	1.0167	ITI	n/a	n/a	n/a	n/a	n/a	n/a	n/a	n/a
365.2693	0.5166	FIXCROSS	n/a	n/a	n/a	n/a	n/a	n/a	n/a	n/a
365.7859	0.95	COLOR_NAME	30	Incongruent	niebieski	blue	żółty	yellow	hit	n/a
366.704	n/a	RESPONSE	n/a	n/a	n/a	n/a	n/a	n/a	n/a	blue
366.736	1.0166	ITI	n/a	n/a	n/a	n/a	n/a	n/a	n/a	n/a
367.7526	0.5167	FIXCROSS	n/a	n/a	n/a	n/a	n/a	n/a	n/a	n/a
368.2693	0.6166	COLOR_NAME	31	Neutral	czerwony	red	Neutral	Neutral	hit	n/a
368.859	n/a	RESPONSE	n/a	n/a	n/a	n/a	n/a	n/a	n/a	red
368.886	1.0167	ITI	n/a	n/a	n/a	n/a	n/a	n/a	n/a	n/a
369.9027	0.5167	FIXCROSS	n/a	n/a	n/a	n/a	n/a	n/a	n/a	n/a
370.4193	0.6167	COLOR_NAME	32	Neutral	zielony	green	Neutral	Neutral	hit	n/a
371.014	n/a	RESPONSE	n/a	n/a	n/a	n/a	n/a	n/a	n/a	green
371.036	1.0167	ITI	n/a	n/a	n/a	n/a	n/a	n/a	n/a	n/a
372.0527	0.5167	FIXCROSS	n/a	n/a	n/a	n/a	n/a	n/a	n/a	n/a
372.5693	0.6667	COLOR_NAME	33	Neutral	niebieski	blue	Neutral	Neutral	hit	n/a
373.217	n/a	RESPONSE	n/a	n/a	n/a	n/a	n/a	n/a	n/a	blue
373.236	1.0167	ITI	n/a	n/a	n/a	n/a	n/a	n/a	n/a	n/a
374.2527	0.5167	FIXCROSS	n/a	n/a	n/a	n/a	n/a	n/a	n/a	n/a
374.7694	1.0	COLOR_NAME	34	Incongruent	żółty	yellow	czerwony	red	hit	n/a
375.7391	n/a	RESPONSE	n/a	n/a	n/a	n/a	n/a	n/a	n/a	yellow
375.7694	1.0167	ITI	n/a	n/a	n/a	n/a	n/a	n/a	n/a	n/a
376.7861	0.5167	FIXCROSS	n/a	n/a	n/a	n/a	n/a	n/a	n/a	n/a
377.3027	0.4333	COLOR_NAME	35	Incongruent	czerwony	red	niebieski	blue	hit	n/a
377.7185	n/a	RESPONSE	n/a	n/a	n/a	n/a	n/a	n/a	n/a	red
377.7361	1.0167	ITI	n/a	n/a	n/a	n/a	n/a	n/a	n/a	n/a
378.7527	0.5167	FIXCROSS	n/a	n/a	n/a	n/a	n/a	n/a	n/a	n/a
379.2694	0.7333	COLOR_NAME	36	Incongruent	czerwony	red	żółty	yellow	hit	n/a
379.9851	n/a	RESPONSE	n/a	n/a	n/a	n/a	n/a	n/a	n/a	red
380.0027	1.0167	ITI	n/a	n/a	n/a	n/a	n/a	n/a	n/a	n/a
381.0194	0.5167	FIXCROSS	n/a	n/a	n/a	n/a	n/a	n/a	n/a	n/a
381.5361	0.65	COLOR_NAME	37	Incongruent	niebieski	blue	czerwony	red	hit	n/a
382.1561	n/a	RESPONSE	n/a	n/a	n/a	n/a	n/a	n/a	n/a	blue
382.1861	1.0167	ITI	n/a	n/a	n/a	n/a	n/a	n/a	n/a	n/a
383.2028	0.5167	FIXCROSS	n/a	n/a	n/a	n/a	n/a	n/a	n/a	n/a
383.7194	0.6167	COLOR_NAME	38	Incongruent	niebieski	blue	czerwony	red	hit	n/a
384.311	n/a	RESPONSE	n/a	n/a	n/a	n/a	n/a	n/a	n/a	blue
384.3361	1.0167	ITI	n/a	n/a	n/a	n/a	n/a	n/a	n/a	n/a
385.3528	0.5167	FIXCROSS	n/a	n/a	n/a	n/a	n/a	n/a	n/a	n/a
385.8695	0.7667	COLOR_NAME	39	Neutral	żółty	yellow	Neutral	Neutral	hit	n/a
386.6098	n/a	RESPONSE	n/a	n/a	n/a	n/a	n/a	n/a	n/a	yellow
386.6361	1.0167	ITI	n/a	n/a	n/a	n/a	n/a	n/a	n/a	n/a
387.6528	0.5167	FIXCROSS	n/a	n/a	n/a	n/a	n/a	n/a	n/a	n/a
388.1695	0.8166	COLOR_NAME	40	Neutral	żółty	yellow	Neutral	Neutral	hit	n/a
388.9564	n/a	RESPONSE	n/a	n/a	n/a	n/a	n/a	n/a	n/a	yellow
388.9861	1.0167	ITI	n/a	n/a	n/a	n/a	n/a	n/a	n/a	n/a
390.0028	0.5167	FIXCROSS	n/a	n/a	n/a	n/a	n/a	n/a	n/a	n/a
390.5195	1.1167	COLOR_NAME	41	Neutral	zielony	green	Neutral	Neutral	hit	n/a
391.6061	n/a	RESPONSE	n/a	n/a	n/a	n/a	n/a	n/a	n/a	green
391.6362	1.0166	ITI	n/a	n/a	n/a	n/a	n/a	n/a	n/a	n/a
392.6528	0.5167	FIXCROSS	n/a	n/a	n/a	n/a	n/a	n/a	n/a	n/a
393.1695	0.5	COLOR_NAME	42	Incongruent	niebieski	blue	zielony	green	hit	n/a
393.6493	n/a	RESPONSE	n/a	n/a	n/a	n/a	n/a	n/a	n/a	blue
393.6695	1.0167	ITI	n/a	n/a	n/a	n/a	n/a	n/a	n/a	n/a
394.6862	0.5167	FIXCROSS	n/a	n/a	n/a	n/a	n/a	n/a	n/a	n/a
395.2029	0.4833	COLOR_NAME	43	Incongruent	czerwony	red	zielony	green	hit	n/a
395.6607	n/a	RESPONSE	n/a	n/a	n/a	n/a	n/a	n/a	n/a	red
395.6862	1.0167	ITI	n/a	n/a	n/a	n/a	n/a	n/a	n/a	n/a
396.7029	0.5166	FIXCROSS	n/a	n/a	n/a	n/a	n/a	n/a	n/a	n/a
397.2195	0.65	COLOR_NAME	44	Neutral	czerwony	red	Neutral	Neutral	hit	n/a
397.8477	n/a	RESPONSE	n/a	n/a	n/a	n/a	n/a	n/a	n/a	red
397.8696	1.0167	ITI	n/a	n/a	n/a	n/a	n/a	n/a	n/a	n/a
398.8862	0.5167	FIXCROSS	n/a	n/a	n/a	n/a	n/a	n/a	n/a	n/a
399.4029	1.2	COLOR_NAME	45	Neutral	żółty	yellow	Neutral	Neutral	hit	n/a
400.5773	n/a	RESPONSE	n/a	n/a	n/a	n/a	n/a	n/a	n/a	yellow
400.6029	1.0167	ITI	n/a	n/a	n/a	n/a	n/a	n/a	n/a	n/a
401.6196	0.5167	FIXCROSS	n/a	n/a	n/a	n/a	n/a	n/a	n/a	n/a
402.1362	0.7	COLOR_NAME	46	Incongruent	niebieski	blue	czerwony	red	hit	n/a
402.8121	n/a	RESPONSE	n/a	n/a	n/a	n/a	n/a	n/a	n/a	blue
402.8363	1.0167	ITI	n/a	n/a	n/a	n/a	n/a	n/a	n/a	n/a
403.8529	0.5166	FIXCROSS	n/a	n/a	n/a	n/a	n/a	n/a	n/a	n/a
404.3696	0.9	COLOR_NAME	47	Incongruent	zielony	green	czerwony	red	hit	n/a
405.2385	n/a	RESPONSE	n/a	n/a	n/a	n/a	n/a	n/a	n/a	green
405.2696	1.0167	ITI	n/a	n/a	n/a	n/a	n/a	n/a	n/a	n/a
406.2863	0.5167	FIXCROSS	n/a	n/a	n/a	n/a	n/a	n/a	n/a	n/a
406.8029	0.8167	COLOR_NAME	48	Neutral	czerwony	red	Neutral	Neutral	hit	n/a
407.6009	n/a	RESPONSE	n/a	n/a	n/a	n/a	n/a	n/a	n/a	red
407.6196	1.0167	ITI	n/a	n/a	n/a	n/a	n/a	n/a	n/a	n/a
408.6363	0.5167	FIXCROSS	n/a	n/a	n/a	n/a	n/a	n/a	n/a	n/a
409.153	0.7833	COLOR_NAME	49	Neutral	niebieski	blue	Neutral	Neutral	hit	n/a
409.9155	n/a	RESPONSE	n/a	n/a	n/a	n/a	n/a	n/a	n/a	blue
409.9363	1.0167	ITI	n/a	n/a	n/a	n/a	n/a	n/a	n/a	n/a
410.953	0.5167	FIXCROSS	n/a	n/a	n/a	n/a	n/a	n/a	n/a	n/a
411.4696	0.8667	COLOR_NAME	50	Incongruent	czerwony	red	żółty	yellow	hit	n/a
412.3099	n/a	RESPONSE	n/a	n/a	n/a	n/a	n/a	n/a	n/a	red
412.3363	1.0167	ITI	n/a	n/a	n/a	n/a	n/a	n/a	n/a	n/a
413.353	0.5166	FIXCROSS	n/a	n/a	n/a	n/a	n/a	n/a	n/a	n/a
413.8696	0.8	COLOR_NAME	51	Incongruent	żółty	yellow	zielony	green	hit	n/a
414.6405	n/a	RESPONSE	n/a	n/a	n/a	n/a	n/a	n/a	n/a	yellow
414.6697	1.0167	ITI	n/a	n/a	n/a	n/a	n/a	n/a	n/a	n/a
415.6863	0.5167	FIXCROSS	n/a	n/a	n/a	n/a	n/a	n/a	n/a	n/a
416.203	0.85	COLOR_NAME	52	Neutral	czerwony	red	Neutral	Neutral	hit	n/a
417.035	n/a	RESPONSE	n/a	n/a	n/a	n/a	n/a	n/a	n/a	red
417.053	1.0166	ITI	n/a	n/a	n/a	n/a	n/a	n/a	n/a	n/a
418.0697	0.5167	FIXCROSS	n/a	n/a	n/a	n/a	n/a	n/a	n/a	n/a
418.5864	0.7167	COLOR_NAME	53	Incongruent	czerwony	red	żółty	yellow	hit	n/a
419.2698	n/a	RESPONSE	n/a	n/a	n/a	n/a	n/a	n/a	n/a	red
419.3031	1.0167	ITI	n/a	n/a	n/a	n/a	n/a	n/a	n/a	n/a
420.3197	0.5167	FIXCROSS	n/a	n/a	n/a	n/a	n/a	n/a	n/a	n/a
420.8364	0.8333	COLOR_NAME	54	Incongruent	zielony	green	czerwony	red	hit	n/a
421.6483	n/a	RESPONSE	n/a	n/a	n/a	n/a	n/a	n/a	n/a	green
421.6697	1.0166	ITI	n/a	n/a	n/a	n/a	n/a	n/a	n/a	n/a
422.6864	0.5167	FIXCROSS	n/a	n/a	n/a	n/a	n/a	n/a	n/a	n/a
423.2031	0.6	COLOR_NAME	55	Neutral	niebieski	blue	Neutral	Neutral	hit	n/a
423.7714	n/a	RESPONSE	n/a	n/a	n/a	n/a	n/a	n/a	n/a	blue
423.8031	1.0167	ITI	n/a	n/a	n/a	n/a	n/a	n/a	n/a	n/a
424.8198	0.5167	FIXCROSS	n/a	n/a	n/a	n/a	n/a	n/a	n/a	n/a
425.3364	1.0833	COLOR_NAME	56	Neutral	żółty	yellow	Neutral	Neutral	hit	n/a
426.3892	n/a	RESPONSE	n/a	n/a	n/a	n/a	n/a	n/a	n/a	yellow
426.4198	1.0167	ITI	n/a	n/a	n/a	n/a	n/a	n/a	n/a	n/a
427.4364	0.5167	FIXCROSS	n/a	n/a	n/a	n/a	n/a	n/a	n/a	n/a
427.9531	0.7666	COLOR_NAME	57	Neutral	zielony	green	Neutral	Neutral	hit	n/a
428.6879	n/a	RESPONSE	n/a	n/a	n/a	n/a	n/a	n/a	n/a	green
428.7197	1.0167	ITI	n/a	n/a	n/a	n/a	n/a	n/a	n/a	n/a
429.7365	0.5167	FIXCROSS	n/a	n/a	n/a	n/a	n/a	n/a	n/a	n/a
430.2531	1.4	COLOR_NAME	58	Incongruent	zielony	green	niebieski	blue	hit	n/a
431.6251	n/a	RESPONSE	n/a	n/a	n/a	n/a	n/a	n/a	n/a	green
431.6532	1.0167	ITI	n/a	n/a	n/a	n/a	n/a	n/a	n/a	n/a
432.6698	0.5167	FIXCROSS	n/a	n/a	n/a	n/a	n/a	n/a	n/a	n/a
433.1865	0.65	COLOR_NAME	59	Neutral	zielony	green	Neutral	Neutral	hit	n/a
433.812	n/a	RESPONSE	n/a	n/a	n/a	n/a	n/a	n/a	n/a	green
433.8365	1.0167	ITI	n/a	n/a	n/a	n/a	n/a	n/a	n/a	n/a
434.8532	0.5166	FIXCROSS	n/a	n/a	n/a	n/a	n/a	n/a	n/a	n/a
435.3698	0.8167	COLOR_NAME	60	Neutral	czerwony	red	Neutral	Neutral	hit	n/a
436.1585	n/a	RESPONSE	n/a	n/a	n/a	n/a	n/a	n/a	n/a	red
436.1865	1.0167	ITI	n/a	n/a	n/a	n/a	n/a	n/a	n/a	n/a
437.2032	0.5167	FIXCROSS	n/a	n/a	n/a	n/a	n/a	n/a	n/a	n/a
437.7199	0.8833	COLOR_NAME	61	Incongruent	zielony	green	żółty	yellow	hit	n/a
438.585	n/a	RESPONSE	n/a	n/a	n/a	n/a	n/a	n/a	n/a	green
438.6032	1.0166	ITI	n/a	n/a	n/a	n/a	n/a	n/a	n/a	n/a
439.6198	0.5167	FIXCROSS	n/a	n/a	n/a	n/a	n/a	n/a	n/a	n/a
440.1365	0.8167	COLOR_NAME	62	Neutral	niebieski	blue	Neutral	Neutral	hit	n/a
440.9315	n/a	RESPONSE	n/a	n/a	n/a	n/a	n/a	n/a	n/a	blue
440.9532	1.0167	ITI	n/a	n/a	n/a	n/a	n/a	n/a	n/a	n/a
441.9699	0.5167	FIXCROSS	n/a	n/a	n/a	n/a	n/a	n/a	n/a	n/a
442.4865	1.0167	COLOR_NAME	63	Incongruent	żółty	yellow	niebieski	blue	hit	n/a
443.4695	n/a	RESPONSE	n/a	n/a	n/a	n/a	n/a	n/a	n/a	yellow
443.5032	1.0167	ITI	n/a	n/a	n/a	n/a	n/a	n/a	n/a	n/a
444.5199	0.5167	FIXCROSS	n/a	n/a	n/a	n/a	n/a	n/a	n/a	n/a
445.0366	0.7	COLOR_NAME	64	Incongruent	czerwony	red	niebieski	blue	hit	n/a
445.7044	n/a	RESPONSE	n/a	n/a	n/a	n/a	n/a	n/a	n/a	red
445.7366	1.0167	ITI	n/a	n/a	n/a	n/a	n/a	n/a	n/a	n/a
446.7533	0.5166	FIXCROSS	n/a	n/a	n/a	n/a	n/a	n/a	n/a	n/a
447.2699	1.0	COLOR_NAME	65	Neutral	żółty	yellow	Neutral	Neutral	hit	n/a
448.2425	n/a	RESPONSE	n/a	n/a	n/a	n/a	n/a	n/a	n/a	yellow
448.2699	1.0167	ITI	n/a	n/a	n/a	n/a	n/a	n/a	n/a	n/a
449.2866	0.5167	FIXCROSS	n/a	n/a	n/a	n/a	n/a	n/a	n/a	n/a
449.8033	0.75	COLOR_NAME	66	Incongruent	niebieski	blue	zielony	green	hit	n/a
450.5251	n/a	RESPONSE	n/a	n/a	n/a	n/a	n/a	n/a	n/a	blue
450.5533	1.0167	ITI	n/a	n/a	n/a	n/a	n/a	n/a	n/a	n/a
451.5699	0.5167	FIXCROSS	n/a	n/a	n/a	n/a	n/a	n/a	n/a	n/a
452.0866	0.6	COLOR_NAME	67	Neutral	czerwony	red	Neutral	Neutral	hit	n/a
452.6642	n/a	RESPONSE	n/a	n/a	n/a	n/a	n/a	n/a	n/a	red
452.6867	1.0167	ITI	n/a	n/a	n/a	n/a	n/a	n/a	n/a	n/a
453.7033	0.5167	FIXCROSS	n/a	n/a	n/a	n/a	n/a	n/a	n/a	n/a
454.22	0.8	COLOR_NAME	68	Neutral	niebieski	blue	Neutral	Neutral	hit	n/a
454.9947	n/a	RESPONSE	n/a	n/a	n/a	n/a	n/a	n/a	n/a	blue
455.02	1.0167	ITI	n/a	n/a	n/a	n/a	n/a	n/a	n/a	n/a
456.0367	0.5167	FIXCROSS	n/a	n/a	n/a	n/a	n/a	n/a	n/a	n/a
456.5533	1.1333	COLOR_NAME	69	Neutral	czerwony	red	Neutral	Neutral	hit	n/a
457.6606	n/a	RESPONSE	n/a	n/a	n/a	n/a	n/a	n/a	n/a	red
457.6867	1.0167	ITI	n/a	n/a	n/a	n/a	n/a	n/a	n/a	n/a
458.7034	0.5167	FIXCROSS	n/a	n/a	n/a	n/a	n/a	n/a	n/a	n/a
459.22	0.55	COLOR_NAME	70	Incongruent	żółty	yellow	zielony	green	hit	n/a
459.7517	n/a	RESPONSE	n/a	n/a	n/a	n/a	n/a	n/a	n/a	yellow
459.77	1.0167	ITI	n/a	n/a	n/a	n/a	n/a	n/a	n/a	n/a
460.7867	0.5167	FIXCROSS	n/a	n/a	n/a	n/a	n/a	n/a	n/a	n/a
461.3034	0.9167	COLOR_NAME	71	Incongruent	zielony	green	żółty	yellow	hit	n/a
462.1939	n/a	RESPONSE	n/a	n/a	n/a	n/a	n/a	n/a	n/a	green
462.22	1.0167	ITI	n/a	n/a	n/a	n/a	n/a	n/a	n/a	n/a
463.2367	0.5167	FIXCROSS	n/a	n/a	n/a	n/a	n/a	n/a	n/a	n/a
463.7534	0.9333	COLOR_NAME	72	Incongruent	niebieski	blue	zielony	green	hit	n/a
464.6683	n/a	RESPONSE	n/a	n/a	n/a	n/a	n/a	n/a	n/a	blue
464.6867	1.0334	ITI	n/a	n/a	n/a	n/a	n/a	n/a	n/a	n/a
468.4992	n/a	RESPONSE	n/a	n/a	n/a	n/a	n/a	n/a	n/a	n/a
