onset	duration	trial_type	braille_stimulus	targets	response_count
2.015	2.008	CUE_6_DOT	n/a	n/a	n/a
7.016	1.008	FIXCROSS	n/a	n/a	n/a
8.032	5.008	6_DOT_DETECTION	POD##	2	n/a
13.066	1.008	FIXCROSS	n/a	n/a	n/a
13.36	n/a	RESPONSE	n/a	n/a	1/2
14.082	5.008	6_DOT_DETECTION	SSTMT	0	n/a
19.116	1.008	FIXCROSS	n/a	n/a	n/a
20.132	5.008	6_DOT_DETECTION	##KOT	2	n/a
21.965	n/a	RESPONSE	n/a	n/a	1/2
22.998	n/a	RESPONSE	n/a	n/a	2/2
25.166	1.008	FIXCROSS	n/a	n/a	n/a
26.182	5.008	6_DOT_DETECTION	OCPPC	0	n/a
31.216	1.008	FIXCROSS	n/a	n/a	n/a
32.232	5.008	6_DOT_DETECTION	AKT##	2	n/a
34.413	n/a	RESPONSE	n/a	n/a	1/2
35.527	n/a	RESPONSE	n/a	n/a	2/2
36.983	n/a	RESPONSE	n/a	n/a	3/2
37.266	1.008	FIXCROSS	n/a	n/a	n/a
38.282	5.008	6_DOT_DETECTION	ODŁSE	0	n/a
43.316	1.008	FIXCROSS	n/a	n/a	n/a
44.332	5.008	6_DOT_DETECTION	#LMCI	1	n/a
45.782	n/a	RESPONSE	n/a	n/a	1/1
49.366	1.008	FIXCROSS	n/a	n/a	n/a
50.382	5.008	6_DOT_DETECTION	##MYK	2	n/a
51.517	n/a	RESPONSE	n/a	n/a	1/2
52.96	n/a	RESPONSE	n/a	n/a	2/2
57.424	2.008	CUE_REST	n/a	n/a	n/a
62.424	1.008	FIXCROSS	n/a	n/a	n/a
68.474	1.008	FIXCROSS	n/a	n/a	n/a
75.532	2.008	CUE_6_DOT	n/a	n/a	n/a
80.532	1.008	FIXCROSS	n/a	n/a	n/a
81.549	5.008	6_DOT_DETECTION	KUŁ##	2	n/a
85.728	n/a	RESPONSE	n/a	n/a	1/2
86.582	1.008	FIXCROSS	n/a	n/a	n/a
87.157	n/a	RESPONSE	n/a	n/a	2/2
87.599	5.008	6_DOT_DETECTION	OALDO	0	n/a
92.014	n/a	RESPONSE	n/a	n/a	1/0
92.632	1.008	FIXCROSS	n/a	n/a	n/a
93.649	5.008	6_DOT_DETECTION	#TLI#	2	n/a
94.76	n/a	RESPONSE	n/a	n/a	1/2
98.337	n/a	RESPONSE	n/a	n/a	2/2
98.682	1.008	FIXCROSS	n/a	n/a	n/a
99.698	5.009	6_DOT_DETECTION	KAAE#	1	n/a
103.732	n/a	RESPONSE	n/a	n/a	1/1
104.732	1.008	FIXCROSS	n/a	n/a	n/a
105.749	5.008	6_DOT_DETECTION	#DLA#	2	n/a
106.733	n/a	RESPONSE	n/a	n/a	1/2
110.029	n/a	RESPONSE	n/a	n/a	2/2
110.782	1.008	FIXCROSS	n/a	n/a	n/a
111.799	5.008	6_DOT_DETECTION	KCCDB	0	n/a
116.832	1.008	FIXCROSS	n/a	n/a	n/a
117.849	5.008	6_DOT_DETECTION	##OKO	2	n/a
119.109	n/a	RESPONSE	n/a	n/a	1/2
122.882	1.008	FIXCROSS	n/a	n/a	n/a
123.899	5.008	6_DOT_DETECTION	TADMM	0	n/a
130.441	2.008	CUE_REST	n/a	n/a	n/a
136.941	1.008	FIXCROSS	n/a	n/a	n/a
142.991	1.008	FIXCROSS	n/a	n/a	n/a
150.549	2.008	CUE_6_DOT	n/a	n/a	n/a
157.049	1.008	FIXCROSS	n/a	n/a	n/a
158.065	5.009	6_DOT_DETECTION	AII#P	1	n/a
161.475	n/a	RESPONSE	n/a	n/a	1/1
163.099	1.008	FIXCROSS	n/a	n/a	n/a
164.116	5.008	6_DOT_DETECTION	#SAM#	2	n/a
165.763	n/a	RESPONSE	n/a	n/a	1/2
168.162	n/a	RESPONSE	n/a	n/a	2/2
169.149	1.008	FIXCROSS	n/a	n/a	n/a
170.166	5.008	6_DOT_DETECTION	SUB#D	1	n/a
172.963	n/a	RESPONSE	n/a	n/a	1/1
175.199	1.008	FIXCROSS	n/a	n/a	n/a
176.216	5.008	6_DOT_DETECTION	#KOK#	2	n/a
177.115	n/a	RESPONSE	n/a	n/a	1/2
179.573	n/a	RESPONSE	n/a	n/a	2/2
181.249	1.008	FIXCROSS	n/a	n/a	n/a
182.266	5.008	6_DOT_DETECTION	TMSŁE	0	n/a
187.299	1.008	FIXCROSS	n/a	n/a	n/a
188.316	5.008	6_DOT_DETECTION	OTO##	2	n/a
191.897	n/a	RESPONSE	n/a	n/a	1/2
193.349	1.008	FIXCROSS	n/a	n/a	n/a
194.366	5.008	6_DOT_DETECTION	#LDDO	1	n/a
199.399	1.008	FIXCROSS	n/a	n/a	n/a
200.415	5.009	6_DOT_DETECTION	##ODA	2	n/a
202.679	n/a	RESPONSE	n/a	n/a	1/2
203.665	n/a	RESPONSE	n/a	n/a	2/2
206.957	2.008	CUE_REST	n/a	n/a	n/a
211.457	1.008	FIXCROSS	n/a	n/a	n/a
217.507	1.008	FIXCROSS	n/a	n/a	n/a
225.566	2.008	CUE_6_DOT	n/a	n/a	n/a
231.566	1.008	FIXCROSS	n/a	n/a	n/a
232.582	5.008	6_DOT_DETECTION	#KIM#	2	n/a
234.504	n/a	RESPONSE	n/a	n/a	1/2
237.616	1.008	FIXCROSS	n/a	n/a	n/a
237.992	n/a	RESPONSE	n/a	n/a	2/2
238.632	5.008	6_DOT_DETECTION	AK#OC	1	n/a
241.018	n/a	RESPONSE	n/a	n/a	1/1
243.666	1.008	FIXCROSS	n/a	n/a	n/a
244.682	5.008	6_DOT_DETECTION	CTP#C	1	n/a
247.168	n/a	RESPONSE	n/a	n/a	1/1
249.716	1.008	FIXCROSS	n/a	n/a	n/a
250.732	5.008	6_DOT_DETECTION	BAL##	2	n/a
254.122	n/a	RESPONSE	n/a	n/a	1/2
255.124	n/a	RESPONSE	n/a	n/a	2/2
255.766	1.008	FIXCROSS	n/a	n/a	n/a
256.782	5.008	6_DOT_DETECTION	#KOC#	2	n/a
259.05	n/a	RESPONSE	n/a	n/a	1/2
261.684	n/a	RESPONSE	n/a	n/a	2/2
261.816	1.008	FIXCROSS	n/a	n/a	n/a
262.832	5.008	6_DOT_DETECTION	BO#BS	1	n/a
265.322	n/a	RESPONSE	n/a	n/a	1/1
267.866	1.008	FIXCROSS	n/a	n/a	n/a
268.882	5.009	6_DOT_DETECTION	#OBA#	2	n/a
270.202	n/a	RESPONSE	n/a	n/a	1/2
273.117	n/a	RESPONSE	n/a	n/a	2/2
273.916	1.008	FIXCROSS	n/a	n/a	n/a
274.932	5.008	6_DOT_DETECTION	CDLD#	1	n/a
279.192	n/a	RESPONSE	n/a	n/a	1/1
281.974	2.008	CUE_REST	n/a	n/a	n/a
285.974	1.008	FIXCROSS	n/a	n/a	n/a
292.024	1.008	FIXCROSS	n/a	n/a	n/a
299.582	2.008	CUE_6_DOT	n/a	n/a	n/a
305.082	1.008	FIXCROSS	n/a	n/a	n/a
306.099	5.008	6_DOT_DETECTION	TE#DK	1	n/a
311.132	1.008	FIXCROSS	n/a	n/a	n/a
312.149	5.008	6_DOT_DETECTION	##LAM	2	n/a
313.181	n/a	RESPONSE	n/a	n/a	1/2
314.331	n/a	RESPONSE	n/a	n/a	2/2
317.182	1.008	FIXCROSS	n/a	n/a	n/a
318.199	5.008	6_DOT_DETECTION	KUC##	2	n/a
320.94	n/a	RESPONSE	n/a	n/a	1/2
321.793	n/a	RESPONSE	n/a	n/a	2/2
323.232	1.008	FIXCROSS	n/a	n/a	n/a
324.249	5.008	6_DOT_DETECTION	ATDUL	0	n/a
328.193	n/a	RESPONSE	n/a	n/a	1/0
329.282	1.008	FIXCROSS	n/a	n/a	n/a
330.299	5.008	6_DOT_DETECTION	##SYK	2	n/a
331.781	n/a	RESPONSE	n/a	n/a	1/2
335.332	1.008	FIXCROSS	n/a	n/a	n/a
336.349	5.008	6_DOT_DETECTION	LBDLS	0	n/a
339.668	n/a	RESPONSE	n/a	n/a	1/0
341.382	1.008	FIXCROSS	n/a	n/a	n/a
342.399	5.008	6_DOT_DETECTION	LIC##	2	n/a
346.068	n/a	RESPONSE	n/a	n/a	1/2
347.432	1.008	FIXCROSS	n/a	n/a	n/a
347.743	n/a	RESPONSE	n/a	n/a	2/2
348.449	5.008	6_DOT_DETECTION	#BBTA	1	n/a
354.491	2.008	CUE_REST	n/a	n/a	n/a
360.491	1.008	FIXCROSS	n/a	n/a	n/a
366.541	1.008	FIXCROSS	n/a	n/a	n/a
373.599	2.008	CUE_6_DOT	n/a	n/a	n/a
378.599	1.008	FIXCROSS	n/a	n/a	n/a
379.615	5.009	6_DOT_DETECTION	PAL##	2	n/a
381.525	n/a	RESPONSE	n/a	n/a	1/2
384.649	1.008	FIXCROSS	n/a	n/a	n/a
384.8	n/a	RESPONSE	n/a	n/a	2/2
385.666	5.008	6_DOT_DETECTION	ACCDB	0	n/a
390.699	1.008	FIXCROSS	n/a	n/a	n/a
391.716	5.008	6_DOT_DETECTION	##PAŁ	2	n/a
393.257	n/a	RESPONSE	n/a	n/a	1/2
394.111	n/a	RESPONSE	n/a	n/a	2/2
396.749	1.008	FIXCROSS	n/a	n/a	n/a
397.766	5.008	6_DOT_DETECTION	CB#CL	1	n/a
400.301	n/a	RESPONSE	n/a	n/a	1/1
402.799	1.008	FIXCROSS	n/a	n/a	n/a
403.815	5.009	6_DOT_DETECTION	##BOK	2	n/a
406.211	n/a	RESPONSE	n/a	n/a	1/2
407.18	n/a	RESPONSE	n/a	n/a	2/2
408.849	1.008	FIXCROSS	n/a	n/a	n/a
409.865	5.009	6_DOT_DETECTION	UUACO	0	n/a
414.899	1.008	FIXCROSS	n/a	n/a	n/a
415.916	5.008	6_DOT_DETECTION	ADAOD	0	n/a
420.949	1.008	FIXCROSS	n/a	n/a	n/a
421.966	5.008	6_DOT_DETECTION	#MOP#	2	n/a
423.086	n/a	RESPONSE	n/a	n/a	1/2
425.843	n/a	RESPONSE	n/a	n/a	2/2
428.008	2.008	CUE_REST	n/a	n/a	n/a
435.008	1.008	FIXCROSS	n/a	n/a	n/a
441.058	1.008	FIXCROSS	n/a	n/a	n/a
