onset	duration	trial_type	trial_number	stroop_condition	stim_text(PL)	stim_text(eng)	stim_color(PL)	stim_color(eng)	response_type	response_color
0.0	n/a	RESPONSE	n/a	n/a	n/a	n/a	n/a	n/a	n/a	n/a
0.0535	1.0333	ITI	n/a	n/a	n/a	n/a	n/a	n/a	n/a	n/a
1.0869	0.5167	FIXCROSS	n/a	n/a	n/a	n/a	n/a	n/a	n/a	n/a
1.6035	1.95	T_INK	1	Incongruent	czerwony	red	zielony	green	hit	n/a
3.5192	n/a	RESPONSE	n/a	n/a	n/a	n/a	n/a	n/a	n/a	green
3.5536	0.5167	FEEDBACK	n/a	n/a	n/a	n/a	n/a	n/a	n/a	n/a
4.0702	1.0167	ITI	n/a	n/a	n/a	n/a	n/a	n/a	n/a	n/a
5.0869	0.5167	FIXCROSS	n/a	n/a	n/a	n/a	n/a	n/a	n/a	n/a
5.6036	1.0167	T_INK	2	Incongruent	zielony	green	żółty	yellow	hit	n/a
6.5905	n/a	RESPONSE	n/a	n/a	n/a	n/a	n/a	n/a	n/a	yellow
6.6203	0.5167	FEEDBACK	n/a	n/a	n/a	n/a	n/a	n/a	n/a	n/a
7.1369	1.0167	ITI	n/a	n/a	n/a	n/a	n/a	n/a	n/a	n/a
8.1536	0.5167	FIXCROSS	n/a	n/a	n/a	n/a	n/a	n/a	n/a	n/a
8.6703	0.5167	T_INK	3	Incongruent	żółty	yellow	niebieski	blue	hit	n/a
9.1658	n/a	RESPONSE	n/a	n/a	n/a	n/a	n/a	n/a	n/a	blue
9.187	0.5167	FEEDBACK	n/a	n/a	n/a	n/a	n/a	n/a	n/a	n/a
9.7036	1.0167	ITI	n/a	n/a	n/a	n/a	n/a	n/a	n/a	n/a
10.7203	0.5167	FIXCROSS	n/a	n/a	n/a	n/a	n/a	n/a	n/a	n/a
11.237	0.7667	T_INK	4	Incongruent	zielony	green	niebieski	blue	hit	n/a
11.9812	n/a	RESPONSE	n/a	n/a	n/a	n/a	n/a	n/a	n/a	blue
12.0037	0.5167	FEEDBACK	n/a	n/a	n/a	n/a	n/a	n/a	n/a	n/a
12.5203	1.0167	ITI	n/a	n/a	n/a	n/a	n/a	n/a	n/a	n/a
13.537	0.5167	FIXCROSS	n/a	n/a	n/a	n/a	n/a	n/a	n/a	n/a
14.0537	0.7833	T_INK	5	Neutral	xxxxxxx	xxxxxxx	czerwony	red	hit	n/a
14.8125	n/a	RESPONSE	n/a	n/a	n/a	n/a	n/a	n/a	n/a	red
14.837	0.5167	FEEDBACK	n/a	n/a	n/a	n/a	n/a	n/a	n/a	n/a
15.3537	1.0167	ITI	n/a	n/a	n/a	n/a	n/a	n/a	n/a	n/a
16.3704	0.5167	FIXCROSS	n/a	n/a	n/a	n/a	n/a	n/a	n/a	n/a
16.8871	0.5333	T_INK	6	Neutral	xxxxxxxx	xxxxxxxx	żółty	yellow	hit	n/a
17.3879	n/a	RESPONSE	n/a	n/a	n/a	n/a	n/a	n/a	n/a	yellow
17.4204	0.5167	FEEDBACK	n/a	n/a	n/a	n/a	n/a	n/a	n/a	n/a
17.9371	1.0167	ITI	n/a	n/a	n/a	n/a	n/a	n/a	n/a	n/a
18.9537	0.5167	FIXCROSS	n/a	n/a	n/a	n/a	n/a	n/a	n/a	n/a
19.4704	0.65	T_INK	7	Incongruent	czerwony	red	żółty	yellow	hit	n/a
20.0912	n/a	RESPONSE	n/a	n/a	n/a	n/a	n/a	n/a	n/a	yellow
20.1204	0.5167	FEEDBACK	n/a	n/a	n/a	n/a	n/a	n/a	n/a	n/a
20.6371	1.0167	ITI	n/a	n/a	n/a	n/a	n/a	n/a	n/a	n/a
21.6538	0.5167	FIXCROSS	n/a	n/a	n/a	n/a	n/a	n/a	n/a	n/a
22.1705	0.5833	T_INK	8	Incongruent	niebieski	blue	czerwony	red	hit	n/a
22.7306	n/a	RESPONSE	n/a	n/a	n/a	n/a	n/a	n/a	n/a	red
22.7538	0.5167	FEEDBACK	n/a	n/a	n/a	n/a	n/a	n/a	n/a	n/a
23.2705	1.0167	ITI	n/a	n/a	n/a	n/a	n/a	n/a	n/a	n/a
24.2872	0.5167	FIXCROSS	n/a	n/a	n/a	n/a	n/a	n/a	n/a	n/a
24.8038	0.7	T_INK	9	Neutral	xxxxxxxxx	xxxxxxxxx	żółty	yellow	hit	n/a
25.4819	n/a	RESPONSE	n/a	n/a	n/a	n/a	n/a	n/a	n/a	yellow
25.5038	0.5167	FEEDBACK	n/a	n/a	n/a	n/a	n/a	n/a	n/a	n/a
26.0205	1.0167	ITI	n/a	n/a	n/a	n/a	n/a	n/a	n/a	n/a
27.0372	0.5167	FIXCROSS	n/a	n/a	n/a	n/a	n/a	n/a	n/a	n/a
27.5539	0.7333	T_INK	10	Incongruent	żółty	yellow	czerwony	red	hit	n/a
28.2653	n/a	RESPONSE	n/a	n/a	n/a	n/a	n/a	n/a	n/a	red
28.2872	0.5167	FEEDBACK	n/a	n/a	n/a	n/a	n/a	n/a	n/a	n/a
28.8039	1.0167	ITI	n/a	n/a	n/a	n/a	n/a	n/a	n/a	n/a
29.8206	0.5167	FIXCROSS	n/a	n/a	n/a	n/a	n/a	n/a	n/a	n/a
30.3372	0.65	T_INK	11	Neutral	xxxxxxxx	xxxxxxxx	niebieski	blue	hit	n/a
30.9526	n/a	RESPONSE	n/a	n/a	n/a	n/a	n/a	n/a	n/a	blue
30.9872	0.5167	FEEDBACK	n/a	n/a	n/a	n/a	n/a	n/a	n/a	n/a
31.5039	1.0167	ITI	n/a	n/a	n/a	n/a	n/a	n/a	n/a	n/a
32.5206	0.5167	FIXCROSS	n/a	n/a	n/a	n/a	n/a	n/a	n/a	n/a
33.0373	0.5833	T_INK	12	Incongruent	czerwony	red	niebieski	blue	hit	n/a
33.592	n/a	RESPONSE	n/a	n/a	n/a	n/a	n/a	n/a	n/a	blue
33.6206	0.5167	FEEDBACK	n/a	n/a	n/a	n/a	n/a	n/a	n/a	n/a
34.1373	1.0333	ITI	n/a	n/a	n/a	n/a	n/a	n/a	n/a	n/a
39.9905	n/a	RESPONSE	n/a	n/a	n/a	n/a	n/a	n/a	n/a	n/a
40.054	1.0167	ITI	n/a	n/a	n/a	n/a	n/a	n/a	n/a	n/a
41.0707	0.5167	FIXCROSS	n/a	n/a	n/a	n/a	n/a	n/a	n/a	n/a
41.5874	0.4833	INK	1	Neutral	xxxxx	xxxxx	niebieski	blue	hit	n/a
42.038	n/a	RESPONSE	n/a	n/a	n/a	n/a	n/a	n/a	n/a	blue
42.0707	1.0167	ITI	n/a	n/a	n/a	n/a	n/a	n/a	n/a	n/a
43.0874	0.5167	FIXCROSS	n/a	n/a	n/a	n/a	n/a	n/a	n/a	n/a
43.604	0.8167	INK	2	Neutral	xxxxxxxxx	xxxxxxxxx	zielony	green	hit	n/a
44.3894	n/a	RESPONSE	n/a	n/a	n/a	n/a	n/a	n/a	n/a	green
44.4207	1.0167	ITI	n/a	n/a	n/a	n/a	n/a	n/a	n/a	n/a
45.4374	0.5167	FIXCROSS	n/a	n/a	n/a	n/a	n/a	n/a	n/a	n/a
45.9541	0.4833	INK	3	Neutral	xxxxx	xxxxx	czerwony	red	hit	n/a
46.4049	n/a	RESPONSE	n/a	n/a	n/a	n/a	n/a	n/a	n/a	red
46.4374	1.0167	ITI	n/a	n/a	n/a	n/a	n/a	n/a	n/a	n/a
47.4541	0.5167	FIXCROSS	n/a	n/a	n/a	n/a	n/a	n/a	n/a	n/a
47.9708	0.6667	INK	4	Incongruent	czerwony	red	zielony	green	hit	n/a
48.6124	n/a	RESPONSE	n/a	n/a	n/a	n/a	n/a	n/a	n/a	green
48.6374	1.0167	ITI	n/a	n/a	n/a	n/a	n/a	n/a	n/a	n/a
49.6541	0.5167	FIXCROSS	n/a	n/a	n/a	n/a	n/a	n/a	n/a	n/a
50.1708	0.4	INK	5	Incongruent	niebieski	blue	żółty	yellow	hit	n/a
50.5479	n/a	RESPONSE	n/a	n/a	n/a	n/a	n/a	n/a	n/a	yellow
50.5708	1.0167	ITI	n/a	n/a	n/a	n/a	n/a	n/a	n/a	n/a
51.5875	0.5167	FIXCROSS	n/a	n/a	n/a	n/a	n/a	n/a	n/a	n/a
52.1041	0.45	INK	6	Neutral	xxxxxxxxx	xxxxxxxxx	czerwony	red	hit	n/a
52.5314	n/a	RESPONSE	n/a	n/a	n/a	n/a	n/a	n/a	n/a	red
52.5542	1.0167	ITI	n/a	n/a	n/a	n/a	n/a	n/a	n/a	n/a
53.5708	0.5167	FIXCROSS	n/a	n/a	n/a	n/a	n/a	n/a	n/a	n/a
54.0875	0.5167	INK	7	Incongruent	żółty	yellow	czerwony	red	hit	n/a
54.5789	n/a	RESPONSE	n/a	n/a	n/a	n/a	n/a	n/a	n/a	red
54.6042	1.0167	ITI	n/a	n/a	n/a	n/a	n/a	n/a	n/a	n/a
55.6209	0.5167	FIXCROSS	n/a	n/a	n/a	n/a	n/a	n/a	n/a	n/a
56.1375	0.5667	INK	8	Incongruent	niebieski	blue	żółty	yellow	hit	n/a
56.6745	n/a	RESPONSE	n/a	n/a	n/a	n/a	n/a	n/a	n/a	yellow
56.7042	1.0167	ITI	n/a	n/a	n/a	n/a	n/a	n/a	n/a	n/a
57.7209	0.5167	FIXCROSS	n/a	n/a	n/a	n/a	n/a	n/a	n/a	n/a
58.2376	0.6	INK	9	Incongruent	czerwony	red	zielony	green	hit	n/a
58.8179	n/a	RESPONSE	n/a	n/a	n/a	n/a	n/a	n/a	n/a	green
58.8376	1.0167	ITI	n/a	n/a	n/a	n/a	n/a	n/a	n/a	n/a
59.8542	0.5167	FIXCROSS	n/a	n/a	n/a	n/a	n/a	n/a	n/a	n/a
60.3709	0.55	INK	10	Neutral	xxxxxxxxx	xxxxxxxxx	czerwony	red	hit	n/a
60.8974	n/a	RESPONSE	n/a	n/a	n/a	n/a	n/a	n/a	n/a	red
60.9209	1.0167	ITI	n/a	n/a	n/a	n/a	n/a	n/a	n/a	n/a
61.9376	0.5167	FIXCROSS	n/a	n/a	n/a	n/a	n/a	n/a	n/a	n/a
62.4543	0.5333	INK	11	Incongruent	żółty	yellow	czerwony	red	hit	n/a
62.9609	n/a	RESPONSE	n/a	n/a	n/a	n/a	n/a	n/a	n/a	red
62.9876	1.0167	ITI	n/a	n/a	n/a	n/a	n/a	n/a	n/a	n/a
64.0043	0.5167	FIXCROSS	n/a	n/a	n/a	n/a	n/a	n/a	n/a	n/a
64.521	0.5667	INK	12	Neutral	xxxxxxxx	xxxxxxxx	zielony	green	incorrect	n/a
65.0564	n/a	RESPONSE	n/a	n/a	n/a	n/a	n/a	n/a	n/a	yellow
65.0876	1.0167	ITI	n/a	n/a	n/a	n/a	n/a	n/a	n/a	n/a
66.1043	0.5167	FIXCROSS	n/a	n/a	n/a	n/a	n/a	n/a	n/a	n/a
66.621	0.4833	INK	13	Neutral	xxxxxxxxx	xxxxxxxxx	zielony	green	hit	n/a
67.072	n/a	RESPONSE	n/a	n/a	n/a	n/a	n/a	n/a	n/a	green
67.1043	1.0167	ITI	n/a	n/a	n/a	n/a	n/a	n/a	n/a	n/a
68.121	0.5167	FIXCROSS	n/a	n/a	n/a	n/a	n/a	n/a	n/a	n/a
68.6377	0.65	INK	14	Neutral	xxxxxxxxx	xxxxxxxxx	żółty	yellow	hit	n/a
69.2634	n/a	RESPONSE	n/a	n/a	n/a	n/a	n/a	n/a	n/a	yellow
69.2877	1.0167	ITI	n/a	n/a	n/a	n/a	n/a	n/a	n/a	n/a
70.3044	0.5167	FIXCROSS	n/a	n/a	n/a	n/a	n/a	n/a	n/a	n/a
70.821	0.5667	INK	15	Neutral	xxxxxxxx	xxxxxxxx	żółty	yellow	hit	n/a
71.3589	n/a	RESPONSE	n/a	n/a	n/a	n/a	n/a	n/a	n/a	yellow
71.3877	1.0167	ITI	n/a	n/a	n/a	n/a	n/a	n/a	n/a	n/a
72.4044	0.5167	FIXCROSS	n/a	n/a	n/a	n/a	n/a	n/a	n/a	n/a
72.9211	0.8333	INK	16	Neutral	xxxxxxx	xxxxxxx	czerwony	red	hit	n/a
73.7263	n/a	RESPONSE	n/a	n/a	n/a	n/a	n/a	n/a	n/a	red
73.7544	1.0167	ITI	n/a	n/a	n/a	n/a	n/a	n/a	n/a	n/a
74.7711	0.5167	FIXCROSS	n/a	n/a	n/a	n/a	n/a	n/a	n/a	n/a
75.2878	0.65	INK	17	Neutral	xxxxx	xxxxx	czerwony	red	hit	n/a
75.9178	n/a	RESPONSE	n/a	n/a	n/a	n/a	n/a	n/a	n/a	red
75.9378	1.0167	ITI	n/a	n/a	n/a	n/a	n/a	n/a	n/a	n/a
76.9544	0.5167	FIXCROSS	n/a	n/a	n/a	n/a	n/a	n/a	n/a	n/a
77.4711	0.5667	INK	18	Incongruent	niebieski	blue	czerwony	red	hit	n/a
78.0133	n/a	RESPONSE	n/a	n/a	n/a	n/a	n/a	n/a	n/a	red
78.0378	1.0166	ITI	n/a	n/a	n/a	n/a	n/a	n/a	n/a	n/a
79.0544	0.5168	FIXCROSS	n/a	n/a	n/a	n/a	n/a	n/a	n/a	n/a
79.5711	0.7333	INK	19	Incongruent	zielony	green	żółty	yellow	hit	n/a
80.2848	n/a	RESPONSE	n/a	n/a	n/a	n/a	n/a	n/a	n/a	yellow
80.3045	1.0167	ITI	n/a	n/a	n/a	n/a	n/a	n/a	n/a	n/a
81.3212	0.5167	FIXCROSS	n/a	n/a	n/a	n/a	n/a	n/a	n/a	n/a
81.8378	0.6167	INK	20	Neutral	xxxxxxxxx	xxxxxxxxx	żółty	yellow	hit	n/a
82.4283	n/a	RESPONSE	n/a	n/a	n/a	n/a	n/a	n/a	n/a	yellow
82.4545	1.0167	ITI	n/a	n/a	n/a	n/a	n/a	n/a	n/a	n/a
83.4712	0.5167	FIXCROSS	n/a	n/a	n/a	n/a	n/a	n/a	n/a	n/a
83.9879	0.5667	INK	21	Incongruent	zielony	green	czerwony	red	hit	n/a
84.5238	n/a	RESPONSE	n/a	n/a	n/a	n/a	n/a	n/a	n/a	red
84.5545	1.0167	ITI	n/a	n/a	n/a	n/a	n/a	n/a	n/a	n/a
85.5712	0.5167	FIXCROSS	n/a	n/a	n/a	n/a	n/a	n/a	n/a	n/a
86.0879	0.5333	INK	22	Incongruent	czerwony	red	żółty	yellow	hit	n/a
86.6033	n/a	RESPONSE	n/a	n/a	n/a	n/a	n/a	n/a	n/a	yellow
86.6212	1.0167	ITI	n/a	n/a	n/a	n/a	n/a	n/a	n/a	n/a
87.6379	0.5167	FIXCROSS	n/a	n/a	n/a	n/a	n/a	n/a	n/a	n/a
88.1546	0.55	INK	23	Incongruent	żółty	yellow	zielony	green	hit	n/a
88.6828	n/a	RESPONSE	n/a	n/a	n/a	n/a	n/a	n/a	n/a	green
88.7046	1.0167	ITI	n/a	n/a	n/a	n/a	n/a	n/a	n/a	n/a
89.7213	0.5167	FIXCROSS	n/a	n/a	n/a	n/a	n/a	n/a	n/a	n/a
90.2379	0.7	INK	24	Incongruent	niebieski	blue	żółty	yellow	hit	n/a
90.9062	n/a	RESPONSE	n/a	n/a	n/a	n/a	n/a	n/a	n/a	yellow
90.9379	1.0167	ITI	n/a	n/a	n/a	n/a	n/a	n/a	n/a	n/a
91.9546	0.5167	FIXCROSS	n/a	n/a	n/a	n/a	n/a	n/a	n/a	n/a
92.4713	0.4167	INK	25	Incongruent	niebieski	blue	czerwony	red	hit	n/a
92.8578	n/a	RESPONSE	n/a	n/a	n/a	n/a	n/a	n/a	n/a	red
92.888	1.0167	ITI	n/a	n/a	n/a	n/a	n/a	n/a	n/a	n/a
93.9046	0.5167	FIXCROSS	n/a	n/a	n/a	n/a	n/a	n/a	n/a	n/a
94.4213	0.6	INK	26	Incongruent	niebieski	blue	czerwony	red	hit	n/a
95.0013	n/a	RESPONSE	n/a	n/a	n/a	n/a	n/a	n/a	n/a	red
95.0213	1.0167	ITI	n/a	n/a	n/a	n/a	n/a	n/a	n/a	n/a
96.038	0.5167	FIXCROSS	n/a	n/a	n/a	n/a	n/a	n/a	n/a	n/a
96.5547	0.5	INK	27	Neutral	xxxxxxxxx	xxxxxxxxx	czerwony	red	hit	n/a
97.0328	n/a	RESPONSE	n/a	n/a	n/a	n/a	n/a	n/a	n/a	red
97.0547	1.0167	ITI	n/a	n/a	n/a	n/a	n/a	n/a	n/a	n/a
98.0714	0.5167	FIXCROSS	n/a	n/a	n/a	n/a	n/a	n/a	n/a	n/a
98.588	0.5167	INK	28	Neutral	xxxxxxx	xxxxxxx	czerwony	red	hit	n/a
99.0803	n/a	RESPONSE	n/a	n/a	n/a	n/a	n/a	n/a	n/a	red
99.1047	1.0167	ITI	n/a	n/a	n/a	n/a	n/a	n/a	n/a	n/a
100.1214	0.5167	FIXCROSS	n/a	n/a	n/a	n/a	n/a	n/a	n/a	n/a
100.6381	0.4833	INK	29	Incongruent	niebieski	blue	zielony	green	hit	n/a
101.0958	n/a	RESPONSE	n/a	n/a	n/a	n/a	n/a	n/a	n/a	green
101.1214	1.0167	ITI	n/a	n/a	n/a	n/a	n/a	n/a	n/a	n/a
102.1381	0.5167	FIXCROSS	n/a	n/a	n/a	n/a	n/a	n/a	n/a	n/a
102.6547	0.5833	INK	30	Incongruent	czerwony	red	niebieski	blue	hit	n/a
103.2073	n/a	RESPONSE	n/a	n/a	n/a	n/a	n/a	n/a	n/a	blue
103.2381	1.0167	ITI	n/a	n/a	n/a	n/a	n/a	n/a	n/a	n/a
104.2548	0.5167	FIXCROSS	n/a	n/a	n/a	n/a	n/a	n/a	n/a	n/a
104.7714	0.5	INK	31	Incongruent	zielony	green	żółty	yellow	hit	n/a
105.2388	n/a	RESPONSE	n/a	n/a	n/a	n/a	n/a	n/a	n/a	yellow
105.2715	1.0167	ITI	n/a	n/a	n/a	n/a	n/a	n/a	n/a	n/a
106.2881	0.5167	FIXCROSS	n/a	n/a	n/a	n/a	n/a	n/a	n/a	n/a
106.8048	0.4667	INK	32	Incongruent	czerwony	red	żółty	yellow	hit	n/a
107.2383	n/a	RESPONSE	n/a	n/a	n/a	n/a	n/a	n/a	n/a	yellow
107.2715	1.0167	ITI	n/a	n/a	n/a	n/a	n/a	n/a	n/a	n/a
108.2882	0.5167	FIXCROSS	n/a	n/a	n/a	n/a	n/a	n/a	n/a	n/a
108.8048	0.4667	INK	33	Neutral	xxxxxxx	xxxxxxx	żółty	yellow	hit	n/a
109.2378	n/a	RESPONSE	n/a	n/a	n/a	n/a	n/a	n/a	n/a	yellow
109.2715	1.0167	ITI	n/a	n/a	n/a	n/a	n/a	n/a	n/a	n/a
110.2882	0.5167	FIXCROSS	n/a	n/a	n/a	n/a	n/a	n/a	n/a	n/a
110.8049	0.5	INK	34	Neutral	xxxxx	xxxxx	niebieski	blue	hit	n/a
111.2854	n/a	RESPONSE	n/a	n/a	n/a	n/a	n/a	n/a	n/a	blue
111.3049	1.0167	ITI	n/a	n/a	n/a	n/a	n/a	n/a	n/a	n/a
112.3215	0.5167	FIXCROSS	n/a	n/a	n/a	n/a	n/a	n/a	n/a	n/a
112.8382	0.7833	INK	35	Neutral	xxxxxxxxx	xxxxxxxxx	zielony	green	incorrect	n/a
113.5888	n/a	RESPONSE	n/a	n/a	n/a	n/a	n/a	n/a	n/a	red
113.6215	1.0167	ITI	n/a	n/a	n/a	n/a	n/a	n/a	n/a	n/a
114.6382	0.5167	FIXCROSS	n/a	n/a	n/a	n/a	n/a	n/a	n/a	n/a
115.1549	0.7167	INK	36	Neutral	xxxxxxx	xxxxxxx	żółty	yellow	hit	n/a
115.8443	n/a	RESPONSE	n/a	n/a	n/a	n/a	n/a	n/a	n/a	yellow
115.8716	1.0167	ITI	n/a	n/a	n/a	n/a	n/a	n/a	n/a	n/a
116.8882	0.5167	FIXCROSS	n/a	n/a	n/a	n/a	n/a	n/a	n/a	n/a
117.4049	0.65	INK	37	Incongruent	niebieski	blue	zielony	green	hit	n/a
118.0357	n/a	RESPONSE	n/a	n/a	n/a	n/a	n/a	n/a	n/a	green
118.0549	1.0167	ITI	n/a	n/a	n/a	n/a	n/a	n/a	n/a	n/a
119.0716	0.5167	FIXCROSS	n/a	n/a	n/a	n/a	n/a	n/a	n/a	n/a
119.5883	0.8167	INK	38	Incongruent	żółty	yellow	niebieski	blue	hit	n/a
120.3872	n/a	RESPONSE	n/a	n/a	n/a	n/a	n/a	n/a	n/a	blue
120.405	1.0167	ITI	n/a	n/a	n/a	n/a	n/a	n/a	n/a	n/a
121.4216	0.5167	FIXCROSS	n/a	n/a	n/a	n/a	n/a	n/a	n/a	n/a
121.9383	0.6667	INK	39	Neutral	xxxxxxx	xxxxxxx	niebieski	blue	hit	n/a
122.5786	n/a	RESPONSE	n/a	n/a	n/a	n/a	n/a	n/a	n/a	blue
122.605	1.0167	ITI	n/a	n/a	n/a	n/a	n/a	n/a	n/a	n/a
123.6217	0.5167	FIXCROSS	n/a	n/a	n/a	n/a	n/a	n/a	n/a	n/a
124.1383	1.0	INK	40	Incongruent	zielony	green	czerwony	red	hit	n/a
125.1061	n/a	RESPONSE	n/a	n/a	n/a	n/a	n/a	n/a	n/a	red
125.1383	1.0167	ITI	n/a	n/a	n/a	n/a	n/a	n/a	n/a	n/a
126.155	0.5167	FIXCROSS	n/a	n/a	n/a	n/a	n/a	n/a	n/a	n/a
126.6717	0.65	INK	41	Neutral	xxxxxxxx	xxxxxxxx	zielony	green	hit	n/a
127.2975	n/a	RESPONSE	n/a	n/a	n/a	n/a	n/a	n/a	n/a	green
127.3217	1.0167	ITI	n/a	n/a	n/a	n/a	n/a	n/a	n/a	n/a
128.3384	0.5167	FIXCROSS	n/a	n/a	n/a	n/a	n/a	n/a	n/a	n/a
128.8551	0.6667	INK	42	Incongruent	zielony	green	niebieski	blue	hit	n/a
129.489	n/a	RESPONSE	n/a	n/a	n/a	n/a	n/a	n/a	n/a	blue
129.5217	1.0167	ITI	n/a	n/a	n/a	n/a	n/a	n/a	n/a	n/a
130.5384	0.5167	FIXCROSS	n/a	n/a	n/a	n/a	n/a	n/a	n/a	n/a
131.0551	0.5167	INK	43	Neutral	xxxxxxx	xxxxxxx	niebieski	blue	hit	n/a
131.5525	n/a	RESPONSE	n/a	n/a	n/a	n/a	n/a	n/a	n/a	blue
131.5718	1.0167	ITI	n/a	n/a	n/a	n/a	n/a	n/a	n/a	n/a
132.5884	0.5167	FIXCROSS	n/a	n/a	n/a	n/a	n/a	n/a	n/a	n/a
133.1051	0.65	INK	44	Incongruent	niebieski	blue	zielony	green	hit	n/a
133.728	n/a	RESPONSE	n/a	n/a	n/a	n/a	n/a	n/a	n/a	green
133.7551	1.0167	ITI	n/a	n/a	n/a	n/a	n/a	n/a	n/a	n/a
134.7718	0.5167	FIXCROSS	n/a	n/a	n/a	n/a	n/a	n/a	n/a	n/a
135.2885	0.5833	INK	45	Neutral	xxxxxxxx	xxxxxxxx	niebieski	blue	hit	n/a
135.8394	n/a	RESPONSE	n/a	n/a	n/a	n/a	n/a	n/a	n/a	blue
135.8718	1.0167	ITI	n/a	n/a	n/a	n/a	n/a	n/a	n/a	n/a
136.8885	0.5167	FIXCROSS	n/a	n/a	n/a	n/a	n/a	n/a	n/a	n/a
137.4052	0.75	INK	46	Incongruent	żółty	yellow	zielony	green	hit	n/a
138.1269	n/a	RESPONSE	n/a	n/a	n/a	n/a	n/a	n/a	n/a	green
138.1552	1.0167	ITI	n/a	n/a	n/a	n/a	n/a	n/a	n/a	n/a
139.1719	0.5167	FIXCROSS	n/a	n/a	n/a	n/a	n/a	n/a	n/a	n/a
139.6885	0.4167	INK	47	Incongruent	żółty	yellow	zielony	green	hit	n/a
140.0785	n/a	RESPONSE	n/a	n/a	n/a	n/a	n/a	n/a	n/a	green
140.1052	1.0167	ITI	n/a	n/a	n/a	n/a	n/a	n/a	n/a	n/a
141.1219	0.5167	FIXCROSS	n/a	n/a	n/a	n/a	n/a	n/a	n/a	n/a
141.6385	0.4333	INK	48	Neutral	xxxxx	xxxxx	zielony	green	hit	n/a
142.046	n/a	RESPONSE	n/a	n/a	n/a	n/a	n/a	n/a	n/a	green
142.0719	1.0167	ITI	n/a	n/a	n/a	n/a	n/a	n/a	n/a	n/a
143.0886	0.5167	FIXCROSS	n/a	n/a	n/a	n/a	n/a	n/a	n/a	n/a
143.6052	0.6	INK	49	Neutral	xxxxxxxx	xxxxxxxx	niebieski	blue	hit	n/a
144.1735	n/a	RESPONSE	n/a	n/a	n/a	n/a	n/a	n/a	n/a	blue
144.2052	1.0167	ITI	n/a	n/a	n/a	n/a	n/a	n/a	n/a	n/a
145.2219	0.5167	FIXCROSS	n/a	n/a	n/a	n/a	n/a	n/a	n/a	n/a
145.7386	0.4	INK	50	Neutral	xxxxx	xxxxx	niebieski	blue	hit	n/a
146.109	n/a	RESPONSE	n/a	n/a	n/a	n/a	n/a	n/a	n/a	blue
146.1386	1.0167	ITI	n/a	n/a	n/a	n/a	n/a	n/a	n/a	n/a
147.1553	0.5167	FIXCROSS	n/a	n/a	n/a	n/a	n/a	n/a	n/a	n/a
147.672	0.7	INK	51	Neutral	xxxxxxx	xxxxxxx	czerwony	red	hit	n/a
148.3485	n/a	RESPONSE	n/a	n/a	n/a	n/a	n/a	n/a	n/a	red
148.372	1.0167	ITI	n/a	n/a	n/a	n/a	n/a	n/a	n/a	n/a
149.3886	0.5167	FIXCROSS	n/a	n/a	n/a	n/a	n/a	n/a	n/a	n/a
149.9053	0.6667	INK	52	Neutral	xxxxxxx	xxxxxxx	niebieski	blue	hit	n/a
150.54	n/a	RESPONSE	n/a	n/a	n/a	n/a	n/a	n/a	n/a	blue
150.572	1.0167	ITI	n/a	n/a	n/a	n/a	n/a	n/a	n/a	n/a
151.5887	0.5167	FIXCROSS	n/a	n/a	n/a	n/a	n/a	n/a	n/a	n/a
152.1053	0.4834	INK	53	Incongruent	żółty	yellow	niebieski	blue	hit	n/a
152.5555	n/a	RESPONSE	n/a	n/a	n/a	n/a	n/a	n/a	n/a	blue
152.5887	1.0167	ITI	n/a	n/a	n/a	n/a	n/a	n/a	n/a	n/a
153.6054	0.5167	FIXCROSS	n/a	n/a	n/a	n/a	n/a	n/a	n/a	n/a
154.122	0.7167	INK	54	Incongruent	żółty	yellow	niebieski	blue	hit	n/a
154.811	n/a	RESPONSE	n/a	n/a	n/a	n/a	n/a	n/a	n/a	blue
154.8387	1.0167	ITI	n/a	n/a	n/a	n/a	n/a	n/a	n/a	n/a
155.8554	0.5167	FIXCROSS	n/a	n/a	n/a	n/a	n/a	n/a	n/a	n/a
156.3721	0.3667	INK	55	Incongruent	czerwony	red	niebieski	blue	hit	n/a
156.7145	n/a	RESPONSE	n/a	n/a	n/a	n/a	n/a	n/a	n/a	blue
156.7387	1.0167	ITI	n/a	n/a	n/a	n/a	n/a	n/a	n/a	n/a
157.7554	0.5167	FIXCROSS	n/a	n/a	n/a	n/a	n/a	n/a	n/a	n/a
158.2721	0.7	INK	56	Incongruent	zielony	green	żółty	yellow	hit	n/a
158.9539	n/a	RESPONSE	n/a	n/a	n/a	n/a	n/a	n/a	n/a	yellow
158.9721	1.0167	ITI	n/a	n/a	n/a	n/a	n/a	n/a	n/a	n/a
159.9888	0.5167	FIXCROSS	n/a	n/a	n/a	n/a	n/a	n/a	n/a	n/a
160.5054	0.4333	INK	57	Neutral	xxxxxxxx	xxxxxxxx	żółty	yellow	hit	n/a
160.9055	n/a	RESPONSE	n/a	n/a	n/a	n/a	n/a	n/a	n/a	yellow
160.9388	1.0167	ITI	n/a	n/a	n/a	n/a	n/a	n/a	n/a	n/a
161.9555	0.5167	FIXCROSS	n/a	n/a	n/a	n/a	n/a	n/a	n/a	n/a
162.4721	0.6	INK	58	Incongruent	zielony	green	niebieski	blue	hit	n/a
163.049	n/a	RESPONSE	n/a	n/a	n/a	n/a	n/a	n/a	n/a	blue
163.0721	1.0167	ITI	n/a	n/a	n/a	n/a	n/a	n/a	n/a	n/a
164.0888	0.5167	FIXCROSS	n/a	n/a	n/a	n/a	n/a	n/a	n/a	n/a
164.6055	0.6	INK	59	Neutral	xxxxxxx	xxxxxxx	żółty	yellow	hit	n/a
165.1764	n/a	RESPONSE	n/a	n/a	n/a	n/a	n/a	n/a	n/a	yellow
165.2055	1.0167	ITI	n/a	n/a	n/a	n/a	n/a	n/a	n/a	n/a
166.2222	0.5167	FIXCROSS	n/a	n/a	n/a	n/a	n/a	n/a	n/a	n/a
166.7388	0.7	INK	60	Neutral	xxxxxxxx	xxxxxxxx	zielony	green	hit	n/a
167.4159	n/a	RESPONSE	n/a	n/a	n/a	n/a	n/a	n/a	n/a	green
167.4389	1.0167	ITI	n/a	n/a	n/a	n/a	n/a	n/a	n/a	n/a
168.4555	0.5167	FIXCROSS	n/a	n/a	n/a	n/a	n/a	n/a	n/a	n/a
168.9722	0.7	INK	61	Neutral	xxxxx	xxxxx	czerwony	red	hit	n/a
169.6394	n/a	RESPONSE	n/a	n/a	n/a	n/a	n/a	n/a	n/a	red
169.6722	1.0167	ITI	n/a	n/a	n/a	n/a	n/a	n/a	n/a	n/a
170.6889	0.5167	FIXCROSS	n/a	n/a	n/a	n/a	n/a	n/a	n/a	n/a
171.2056	0.7333	INK	62	Neutral	xxxxx	xxxxx	zielony	green	hit	n/a
171.9108	n/a	RESPONSE	n/a	n/a	n/a	n/a	n/a	n/a	n/a	green
171.9389	1.0167	ITI	n/a	n/a	n/a	n/a	n/a	n/a	n/a	n/a
172.9556	0.5167	FIXCROSS	n/a	n/a	n/a	n/a	n/a	n/a	n/a	n/a
173.4723	0.4667	INK	63	Incongruent	zielony	green	niebieski	blue	hit	n/a
173.9104	n/a	RESPONSE	n/a	n/a	n/a	n/a	n/a	n/a	n/a	blue
173.9389	1.0167	ITI	n/a	n/a	n/a	n/a	n/a	n/a	n/a	n/a
174.9556	0.5167	FIXCROSS	n/a	n/a	n/a	n/a	n/a	n/a	n/a	n/a
175.4723	0.5	INK	64	Incongruent	czerwony	red	niebieski	blue	hit	n/a
175.9419	n/a	RESPONSE	n/a	n/a	n/a	n/a	n/a	n/a	n/a	blue
175.9723	1.0167	ITI	n/a	n/a	n/a	n/a	n/a	n/a	n/a	n/a
176.989	0.5167	FIXCROSS	n/a	n/a	n/a	n/a	n/a	n/a	n/a	n/a
177.5056	0.8167	INK	65	Neutral	xxxxx	xxxxx	zielony	green	hit	n/a
178.2933	n/a	RESPONSE	n/a	n/a	n/a	n/a	n/a	n/a	n/a	green
178.3223	1.0167	ITI	n/a	n/a	n/a	n/a	n/a	n/a	n/a	n/a
179.339	0.5167	FIXCROSS	n/a	n/a	n/a	n/a	n/a	n/a	n/a	n/a
179.8557	0.6667	INK	66	Incongruent	zielony	green	czerwony	red	hit	n/a
180.5008	n/a	RESPONSE	n/a	n/a	n/a	n/a	n/a	n/a	n/a	red
180.5223	1.0167	ITI	n/a	n/a	n/a	n/a	n/a	n/a	n/a	n/a
181.539	0.5167	FIXCROSS	n/a	n/a	n/a	n/a	n/a	n/a	n/a	n/a
182.0557	0.5167	INK	67	Neutral	xxxxxxxxx	xxxxxxxxx	żółty	yellow	hit	n/a
182.5483	n/a	RESPONSE	n/a	n/a	n/a	n/a	n/a	n/a	n/a	yellow
182.5724	1.0167	ITI	n/a	n/a	n/a	n/a	n/a	n/a	n/a	n/a
183.589	0.5167	FIXCROSS	n/a	n/a	n/a	n/a	n/a	n/a	n/a	n/a
184.1057	1.2333	INK	68	Incongruent	czerwony	red	zielony	green	hit	n/a
185.3156	n/a	RESPONSE	n/a	n/a	n/a	n/a	n/a	n/a	n/a	green
185.3391	1.0167	ITI	n/a	n/a	n/a	n/a	n/a	n/a	n/a	n/a
186.3557	0.5167	FIXCROSS	n/a	n/a	n/a	n/a	n/a	n/a	n/a	n/a
186.8724	0.7334	INK	69	Incongruent	czerwony	red	żółty	yellow	hit	n/a
187.5871	n/a	RESPONSE	n/a	n/a	n/a	n/a	n/a	n/a	n/a	yellow
187.6058	1.0167	ITI	n/a	n/a	n/a	n/a	n/a	n/a	n/a	n/a
188.6224	0.5167	FIXCROSS	n/a	n/a	n/a	n/a	n/a	n/a	n/a	n/a
189.1391	0.6	INK	70	Neutral	xxxxxxxx	xxxxxxxx	niebieski	blue	hit	n/a
189.7146	n/a	RESPONSE	n/a	n/a	n/a	n/a	n/a	n/a	n/a	blue
189.7391	1.0167	ITI	n/a	n/a	n/a	n/a	n/a	n/a	n/a	n/a
190.7558	0.5167	FIXCROSS	n/a	n/a	n/a	n/a	n/a	n/a	n/a	n/a
191.2725	0.6667	INK	71	Neutral	xxxxxxxx	xxxxxxxx	żółty	yellow	hit	n/a
191.906	n/a	RESPONSE	n/a	n/a	n/a	n/a	n/a	n/a	n/a	yellow
191.9391	1.0167	ITI	n/a	n/a	n/a	n/a	n/a	n/a	n/a	n/a
192.9558	0.5167	FIXCROSS	n/a	n/a	n/a	n/a	n/a	n/a	n/a	n/a
193.4725	0.7667	INK	72	Incongruent	żółty	yellow	czerwony	red	hit	n/a
194.2095	n/a	RESPONSE	n/a	n/a	n/a	n/a	n/a	n/a	n/a	red
194.2392	1.0833	ITI	n/a	n/a	n/a	n/a	n/a	n/a	n/a	n/a
209.9657	n/a	RESPONSE	n/a	n/a	n/a	n/a	n/a	n/a	n/a	n/a
210.0227	1.0167	ITI	n/a	n/a	n/a	n/a	n/a	n/a	n/a	n/a
211.0394	0.5167	FIXCROSS	n/a	n/a	n/a	n/a	n/a	n/a	n/a	n/a
211.556	1.05	T_COLOR_NAME	1	Incongruent	czerwony	red	żółty	yellow	hit	n/a
212.5731	n/a	RESPONSE	n/a	n/a	n/a	n/a	n/a	n/a	n/a	red
212.606	0.5167	FEEDBACK	n/a	n/a	n/a	n/a	n/a	n/a	n/a	n/a
213.1227	1.0167	ITI	n/a	n/a	n/a	n/a	n/a	n/a	n/a	n/a
214.1394	0.5167	FIXCROSS	n/a	n/a	n/a	n/a	n/a	n/a	n/a	n/a
214.6561	1.2667	T_COLOR_NAME	2	Incongruent	niebieski	blue	czerwony	red	hit	n/a
215.9003	n/a	RESPONSE	n/a	n/a	n/a	n/a	n/a	n/a	n/a	blue
215.9228	0.5167	FEEDBACK	n/a	n/a	n/a	n/a	n/a	n/a	n/a	n/a
216.4394	1.0167	ITI	n/a	n/a	n/a	n/a	n/a	n/a	n/a	n/a
217.4561	0.5167	FIXCROSS	n/a	n/a	n/a	n/a	n/a	n/a	n/a	n/a
217.9728	1.0334	T_COLOR_NAME	3	Incongruent	czerwony	red	niebieski	blue	hit	n/a
218.9715	n/a	RESPONSE	n/a	n/a	n/a	n/a	n/a	n/a	n/a	red
219.0061	0.5167	FEEDBACK	n/a	n/a	n/a	n/a	n/a	n/a	n/a	n/a
219.5228	1.0167	ITI	n/a	n/a	n/a	n/a	n/a	n/a	n/a	n/a
220.5395	0.5167	FIXCROSS	n/a	n/a	n/a	n/a	n/a	n/a	n/a	n/a
221.0561	0.8	T_COLOR_NAME	4	Neutral	czerwony	red	Neutral	Neutral	hit	n/a
221.8349	n/a	RESPONSE	n/a	n/a	n/a	n/a	n/a	n/a	n/a	red
221.8562	0.5167	FEEDBACK	n/a	n/a	n/a	n/a	n/a	n/a	n/a	n/a
222.3728	1.0167	ITI	n/a	n/a	n/a	n/a	n/a	n/a	n/a	n/a
223.3895	0.5167	FIXCROSS	n/a	n/a	n/a	n/a	n/a	n/a	n/a	n/a
223.9062	0.9333	T_COLOR_NAME	5	Incongruent	zielony	green	niebieski	blue	hit	n/a
224.8102	n/a	RESPONSE	n/a	n/a	n/a	n/a	n/a	n/a	n/a	green
224.8395	0.5167	FEEDBACK	n/a	n/a	n/a	n/a	n/a	n/a	n/a	n/a
225.3562	1.0167	ITI	n/a	n/a	n/a	n/a	n/a	n/a	n/a	n/a
226.3729	0.5167	FIXCROSS	n/a	n/a	n/a	n/a	n/a	n/a	n/a	n/a
226.8896	0.65	T_COLOR_NAME	6	Neutral	zielony	green	Neutral	Neutral	hit	n/a
227.5135	n/a	RESPONSE	n/a	n/a	n/a	n/a	n/a	n/a	n/a	green
227.5396	0.5167	FEEDBACK	n/a	n/a	n/a	n/a	n/a	n/a	n/a	n/a
228.0562	1.0167	ITI	n/a	n/a	n/a	n/a	n/a	n/a	n/a	n/a
229.0729	0.5167	FIXCROSS	n/a	n/a	n/a	n/a	n/a	n/a	n/a	n/a
229.5896	0.8667	T_COLOR_NAME	7	Incongruent	żółty	yellow	niebieski	blue	hit	n/a
230.4248	n/a	RESPONSE	n/a	n/a	n/a	n/a	n/a	n/a	n/a	yellow
230.4563	0.5167	FEEDBACK	n/a	n/a	n/a	n/a	n/a	n/a	n/a	n/a
230.9729	1.0167	ITI	n/a	n/a	n/a	n/a	n/a	n/a	n/a	n/a
231.9896	0.5167	FIXCROSS	n/a	n/a	n/a	n/a	n/a	n/a	n/a	n/a
232.5063	1.0334	T_COLOR_NAME	8	Incongruent	zielony	green	żółty	yellow	hit	n/a
233.5121	n/a	RESPONSE	n/a	n/a	n/a	n/a	n/a	n/a	n/a	green
233.5396	0.5167	FEEDBACK	n/a	n/a	n/a	n/a	n/a	n/a	n/a	n/a
234.0563	1.0167	ITI	n/a	n/a	n/a	n/a	n/a	n/a	n/a	n/a
235.073	0.5167	FIXCROSS	n/a	n/a	n/a	n/a	n/a	n/a	n/a	n/a
235.5897	1.1	T_COLOR_NAME	9	Neutral	niebieski	blue	Neutral	Neutral	hit	n/a
236.6633	n/a	RESPONSE	n/a	n/a	n/a	n/a	n/a	n/a	n/a	blue
236.6897	0.5167	FEEDBACK	n/a	n/a	n/a	n/a	n/a	n/a	n/a	n/a
237.2063	1.0167	ITI	n/a	n/a	n/a	n/a	n/a	n/a	n/a	n/a
238.223	0.5167	FIXCROSS	n/a	n/a	n/a	n/a	n/a	n/a	n/a	n/a
238.7397	1.0667	T_COLOR_NAME	10	Incongruent	żółty	yellow	czerwony	red	hit	n/a
239.7826	n/a	RESPONSE	n/a	n/a	n/a	n/a	n/a	n/a	n/a	yellow
239.8064	0.5167	FEEDBACK	n/a	n/a	n/a	n/a	n/a	n/a	n/a	n/a
240.323	1.0167	ITI	n/a	n/a	n/a	n/a	n/a	n/a	n/a	n/a
241.3397	0.5167	FIXCROSS	n/a	n/a	n/a	n/a	n/a	n/a	n/a	n/a
241.8564	0.65	T_COLOR_NAME	11	Neutral	czerwony	red	Neutral	Neutral	hit	n/a
242.4859	n/a	RESPONSE	n/a	n/a	n/a	n/a	n/a	n/a	n/a	red
242.5064	0.5167	FEEDBACK	n/a	n/a	n/a	n/a	n/a	n/a	n/a	n/a
243.0231	1.0167	ITI	n/a	n/a	n/a	n/a	n/a	n/a	n/a	n/a
244.0398	0.5167	FIXCROSS	n/a	n/a	n/a	n/a	n/a	n/a	n/a	n/a
244.5564	0.6167	T_COLOR_NAME	12	Incongruent	czerwony	red	zielony	green	hit	n/a
245.1413	n/a	RESPONSE	n/a	n/a	n/a	n/a	n/a	n/a	n/a	red
245.1731	0.5167	FEEDBACK	n/a	n/a	n/a	n/a	n/a	n/a	n/a	n/a
245.6898	1.0333	ITI	n/a	n/a	n/a	n/a	n/a	n/a	n/a	n/a
247.8446	n/a	RESPONSE	n/a	n/a	n/a	n/a	n/a	n/a	n/a	n/a
247.9065	1.0167	ITI	n/a	n/a	n/a	n/a	n/a	n/a	n/a	n/a
248.9232	0.5167	FIXCROSS	n/a	n/a	n/a	n/a	n/a	n/a	n/a	n/a
249.4398	0.9833	COLOR_NAME	1	Neutral	zielony	green	Neutral	Neutral	hit	n/a
250.404	n/a	RESPONSE	n/a	n/a	n/a	n/a	n/a	n/a	n/a	green
250.4232	1.0167	ITI	n/a	n/a	n/a	n/a	n/a	n/a	n/a	n/a
251.4398	0.5167	FIXCROSS	n/a	n/a	n/a	n/a	n/a	n/a	n/a	n/a
251.9565	0.5667	COLOR_NAME	2	Incongruent	zielony	green	niebieski	blue	hit	n/a
252.4995	n/a	RESPONSE	n/a	n/a	n/a	n/a	n/a	n/a	n/a	green
252.5232	1.0167	ITI	n/a	n/a	n/a	n/a	n/a	n/a	n/a	n/a
253.5399	0.5167	FIXCROSS	n/a	n/a	n/a	n/a	n/a	n/a	n/a	n/a
254.0565	0.45	COLOR_NAME	3	Neutral	zielony	green	Neutral	Neutral	hit	n/a
254.483	n/a	RESPONSE	n/a	n/a	n/a	n/a	n/a	n/a	n/a	green
254.5065	1.0167	ITI	n/a	n/a	n/a	n/a	n/a	n/a	n/a	n/a
255.5232	0.5167	FIXCROSS	n/a	n/a	n/a	n/a	n/a	n/a	n/a	n/a
256.0399	0.8333	COLOR_NAME	4	Incongruent	niebieski	blue	czerwony	red	hit	n/a
256.8505	n/a	RESPONSE	n/a	n/a	n/a	n/a	n/a	n/a	n/a	blue
256.8732	1.0167	ITI	n/a	n/a	n/a	n/a	n/a	n/a	n/a	n/a
257.8899	0.5167	FIXCROSS	n/a	n/a	n/a	n/a	n/a	n/a	n/a	n/a
258.4066	0.55	COLOR_NAME	5	Neutral	niebieski	blue	Neutral	Neutral	hit	n/a
258.93	n/a	RESPONSE	n/a	n/a	n/a	n/a	n/a	n/a	n/a	blue
258.9566	1.0167	ITI	n/a	n/a	n/a	n/a	n/a	n/a	n/a	n/a
259.9733	0.5167	FIXCROSS	n/a	n/a	n/a	n/a	n/a	n/a	n/a	n/a
260.4899	0.4667	COLOR_NAME	6	Incongruent	niebieski	blue	czerwony	red	hit	n/a
260.9295	n/a	RESPONSE	n/a	n/a	n/a	n/a	n/a	n/a	n/a	blue
260.9566	1.0167	ITI	n/a	n/a	n/a	n/a	n/a	n/a	n/a	n/a
261.9733	0.5167	FIXCROSS	n/a	n/a	n/a	n/a	n/a	n/a	n/a	n/a
262.49	0.6167	COLOR_NAME	7	Incongruent	żółty	yellow	zielony	green	hit	n/a
263.089	n/a	RESPONSE	n/a	n/a	n/a	n/a	n/a	n/a	n/a	yellow
263.1066	1.0167	ITI	n/a	n/a	n/a	n/a	n/a	n/a	n/a	n/a
264.1233	0.5167	FIXCROSS	n/a	n/a	n/a	n/a	n/a	n/a	n/a	n/a
264.64	1.0167	COLOR_NAME	8	Incongruent	zielony	green	czerwony	red	hit	n/a
265.6324	n/a	RESPONSE	n/a	n/a	n/a	n/a	n/a	n/a	n/a	green
265.6567	1.0167	ITI	n/a	n/a	n/a	n/a	n/a	n/a	n/a	n/a
266.6733	0.5167	FIXCROSS	n/a	n/a	n/a	n/a	n/a	n/a	n/a	n/a
267.19	0.75	COLOR_NAME	9	Incongruent	żółty	yellow	niebieski	blue	hit	n/a
267.9198	n/a	RESPONSE	n/a	n/a	n/a	n/a	n/a	n/a	n/a	yellow
267.94	1.0167	ITI	n/a	n/a	n/a	n/a	n/a	n/a	n/a	n/a
268.9567	0.5167	FIXCROSS	n/a	n/a	n/a	n/a	n/a	n/a	n/a	n/a
269.4734	0.7667	COLOR_NAME	10	Incongruent	czerwony	red	zielony	green	hit	n/a
270.2073	n/a	RESPONSE	n/a	n/a	n/a	n/a	n/a	n/a	n/a	red
270.2401	1.0167	ITI	n/a	n/a	n/a	n/a	n/a	n/a	n/a	n/a
271.2567	0.5167	FIXCROSS	n/a	n/a	n/a	n/a	n/a	n/a	n/a	n/a
271.7734	0.8667	COLOR_NAME	11	Neutral	zielony	green	Neutral	Neutral	hit	n/a
272.6227	n/a	RESPONSE	n/a	n/a	n/a	n/a	n/a	n/a	n/a	green
272.6401	1.0167	ITI	n/a	n/a	n/a	n/a	n/a	n/a	n/a	n/a
273.6568	0.5167	FIXCROSS	n/a	n/a	n/a	n/a	n/a	n/a	n/a	n/a
274.1734	0.6833	COLOR_NAME	12	Neutral	czerwony	red	Neutral	Neutral	hit	n/a
274.8302	n/a	RESPONSE	n/a	n/a	n/a	n/a	n/a	n/a	n/a	red
274.8568	1.0167	ITI	n/a	n/a	n/a	n/a	n/a	n/a	n/a	n/a
275.8735	0.5167	FIXCROSS	n/a	n/a	n/a	n/a	n/a	n/a	n/a	n/a
276.3901	0.8833	COLOR_NAME	13	Incongruent	żółty	yellow	niebieski	blue	hit	n/a
277.2455	n/a	RESPONSE	n/a	n/a	n/a	n/a	n/a	n/a	n/a	yellow
277.2735	1.0167	ITI	n/a	n/a	n/a	n/a	n/a	n/a	n/a	n/a
278.2902	0.5167	FIXCROSS	n/a	n/a	n/a	n/a	n/a	n/a	n/a	n/a
278.8068	0.9167	COLOR_NAME	14	Incongruent	niebieski	blue	zielony	green	hit	n/a
279.693	n/a	RESPONSE	n/a	n/a	n/a	n/a	n/a	n/a	n/a	blue
279.7235	1.0167	ITI	n/a	n/a	n/a	n/a	n/a	n/a	n/a	n/a
280.7402	0.5167	FIXCROSS	n/a	n/a	n/a	n/a	n/a	n/a	n/a	n/a
281.2569	0.8333	COLOR_NAME	15	Neutral	żółty	yellow	Neutral	Neutral	hit	n/a
282.0604	n/a	RESPONSE	n/a	n/a	n/a	n/a	n/a	n/a	n/a	yellow
282.0902	1.0167	ITI	n/a	n/a	n/a	n/a	n/a	n/a	n/a	n/a
283.1069	0.5167	FIXCROSS	n/a	n/a	n/a	n/a	n/a	n/a	n/a	n/a
283.6236	0.65	COLOR_NAME	16	Neutral	niebieski	blue	Neutral	Neutral	hit	n/a
284.2519	n/a	RESPONSE	n/a	n/a	n/a	n/a	n/a	n/a	n/a	blue
284.2736	1.0167	ITI	n/a	n/a	n/a	n/a	n/a	n/a	n/a	n/a
285.2902	0.5167	FIXCROSS	n/a	n/a	n/a	n/a	n/a	n/a	n/a	n/a
285.8069	0.8833	COLOR_NAME	17	Neutral	żółty	yellow	Neutral	Neutral	hit	n/a
286.6673	n/a	RESPONSE	n/a	n/a	n/a	n/a	n/a	n/a	n/a	yellow
286.6903	1.0167	ITI	n/a	n/a	n/a	n/a	n/a	n/a	n/a	n/a
287.7069	0.5167	FIXCROSS	n/a	n/a	n/a	n/a	n/a	n/a	n/a	n/a
288.2236	0.8833	COLOR_NAME	18	Neutral	niebieski	blue	Neutral	Neutral	hit	n/a
289.0828	n/a	RESPONSE	n/a	n/a	n/a	n/a	n/a	n/a	n/a	blue
289.1069	1.0167	ITI	n/a	n/a	n/a	n/a	n/a	n/a	n/a	n/a
290.1236	0.5167	FIXCROSS	n/a	n/a	n/a	n/a	n/a	n/a	n/a	n/a
290.6403	0.7333	COLOR_NAME	19	Neutral	żółty	yellow	Neutral	Neutral	hit	n/a
291.3542	n/a	RESPONSE	n/a	n/a	n/a	n/a	n/a	n/a	n/a	yellow
291.3736	1.0167	ITI	n/a	n/a	n/a	n/a	n/a	n/a	n/a	n/a
292.3903	0.5167	FIXCROSS	n/a	n/a	n/a	n/a	n/a	n/a	n/a	n/a
292.907	0.8167	COLOR_NAME	20	Incongruent	niebieski	blue	czerwony	red	hit	n/a
293.7056	n/a	RESPONSE	n/a	n/a	n/a	n/a	n/a	n/a	n/a	blue
293.7237	1.0167	ITI	n/a	n/a	n/a	n/a	n/a	n/a	n/a	n/a
294.7403	0.5167	FIXCROSS	n/a	n/a	n/a	n/a	n/a	n/a	n/a	n/a
295.257	0.75	COLOR_NAME	21	Neutral	żółty	yellow	Neutral	Neutral	hit	n/a
295.9771	n/a	RESPONSE	n/a	n/a	n/a	n/a	n/a	n/a	n/a	yellow
296.007	1.0167	ITI	n/a	n/a	n/a	n/a	n/a	n/a	n/a	n/a
297.0237	0.5167	FIXCROSS	n/a	n/a	n/a	n/a	n/a	n/a	n/a	n/a
297.5404	0.5167	COLOR_NAME	22	Incongruent	zielony	green	żółty	yellow	hit	n/a
298.0246	n/a	RESPONSE	n/a	n/a	n/a	n/a	n/a	n/a	n/a	green
298.057	1.0167	ITI	n/a	n/a	n/a	n/a	n/a	n/a	n/a	n/a
299.0737	0.5167	FIXCROSS	n/a	n/a	n/a	n/a	n/a	n/a	n/a	n/a
299.5904	0.6167	COLOR_NAME	23	Neutral	niebieski	blue	Neutral	Neutral	hit	n/a
300.1841	n/a	RESPONSE	n/a	n/a	n/a	n/a	n/a	n/a	n/a	blue
300.2071	1.0167	ITI	n/a	n/a	n/a	n/a	n/a	n/a	n/a	n/a
301.2238	0.5167	FIXCROSS	n/a	n/a	n/a	n/a	n/a	n/a	n/a	n/a
301.7404	0.65	COLOR_NAME	24	Neutral	niebieski	blue	Neutral	Neutral	hit	n/a
302.3596	n/a	RESPONSE	n/a	n/a	n/a	n/a	n/a	n/a	n/a	blue
302.3904	1.0167	ITI	n/a	n/a	n/a	n/a	n/a	n/a	n/a	n/a
303.4071	0.5167	FIXCROSS	n/a	n/a	n/a	n/a	n/a	n/a	n/a	n/a
303.9238	0.9834	COLOR_NAME	25	Incongruent	zielony	green	niebieski	blue	hit	n/a
304.887	n/a	RESPONSE	n/a	n/a	n/a	n/a	n/a	n/a	n/a	green
304.9071	1.0167	ITI	n/a	n/a	n/a	n/a	n/a	n/a	n/a	n/a
305.9238	0.5167	FIXCROSS	n/a	n/a	n/a	n/a	n/a	n/a	n/a	n/a
306.4405	0.7	COLOR_NAME	26	Incongruent	czerwony	red	zielony	green	hit	n/a
307.1104	n/a	RESPONSE	n/a	n/a	n/a	n/a	n/a	n/a	n/a	red
307.1405	1.0167	ITI	n/a	n/a	n/a	n/a	n/a	n/a	n/a	n/a
308.1572	0.5167	FIXCROSS	n/a	n/a	n/a	n/a	n/a	n/a	n/a	n/a
308.6738	0.9667	COLOR_NAME	27	Incongruent	żółty	yellow	zielony	green	hit	n/a
309.6218	n/a	RESPONSE	n/a	n/a	n/a	n/a	n/a	n/a	n/a	yellow
309.6405	1.0167	ITI	n/a	n/a	n/a	n/a	n/a	n/a	n/a	n/a
310.6572	0.5167	FIXCROSS	n/a	n/a	n/a	n/a	n/a	n/a	n/a	n/a
311.1739	0.9667	COLOR_NAME	28	Incongruent	czerwony	red	niebieski	blue	hit	n/a
312.1172	n/a	RESPONSE	n/a	n/a	n/a	n/a	n/a	n/a	n/a	red
312.1406	1.0167	ITI	n/a	n/a	n/a	n/a	n/a	n/a	n/a	n/a
313.1572	0.5167	FIXCROSS	n/a	n/a	n/a	n/a	n/a	n/a	n/a	n/a
313.6739	0.6833	COLOR_NAME	29	Neutral	czerwony	red	Neutral	Neutral	hit	n/a
314.3247	n/a	RESPONSE	n/a	n/a	n/a	n/a	n/a	n/a	n/a	red
314.3572	1.0167	ITI	n/a	n/a	n/a	n/a	n/a	n/a	n/a	n/a
315.3739	0.5167	FIXCROSS	n/a	n/a	n/a	n/a	n/a	n/a	n/a	n/a
315.8906	0.8167	COLOR_NAME	30	Neutral	żółty	yellow	Neutral	Neutral	hit	n/a
316.6761	n/a	RESPONSE	n/a	n/a	n/a	n/a	n/a	n/a	n/a	yellow
316.7073	1.0167	ITI	n/a	n/a	n/a	n/a	n/a	n/a	n/a	n/a
317.7239	0.5167	FIXCROSS	n/a	n/a	n/a	n/a	n/a	n/a	n/a	n/a
318.2406	0.9167	COLOR_NAME	31	Incongruent	żółty	yellow	niebieski	blue	hit	n/a
319.1236	n/a	RESPONSE	n/a	n/a	n/a	n/a	n/a	n/a	n/a	yellow
319.1573	1.0167	ITI	n/a	n/a	n/a	n/a	n/a	n/a	n/a	n/a
320.174	0.5167	FIXCROSS	n/a	n/a	n/a	n/a	n/a	n/a	n/a	n/a
320.6907	1.0333	COLOR_NAME	32	Neutral	czerwony	red	Neutral	Neutral	hit	n/a
321.6989	n/a	RESPONSE	n/a	n/a	n/a	n/a	n/a	n/a	n/a	red
321.724	1.0167	ITI	n/a	n/a	n/a	n/a	n/a	n/a	n/a	n/a
322.7407	0.5167	FIXCROSS	n/a	n/a	n/a	n/a	n/a	n/a	n/a	n/a
323.2574	0.8167	COLOR_NAME	33	Incongruent	żółty	yellow	czerwony	red	hit	n/a
324.0504	n/a	RESPONSE	n/a	n/a	n/a	n/a	n/a	n/a	n/a	yellow
324.074	1.0167	ITI	n/a	n/a	n/a	n/a	n/a	n/a	n/a	n/a
325.0907	0.5167	FIXCROSS	n/a	n/a	n/a	n/a	n/a	n/a	n/a	n/a
325.6074	1.0	COLOR_NAME	34	Incongruent	zielony	green	niebieski	blue	hit	n/a
326.5778	n/a	RESPONSE	n/a	n/a	n/a	n/a	n/a	n/a	n/a	green
326.6074	1.0167	ITI	n/a	n/a	n/a	n/a	n/a	n/a	n/a	n/a
327.6241	0.5167	FIXCROSS	n/a	n/a	n/a	n/a	n/a	n/a	n/a	n/a
328.1407	0.7	COLOR_NAME	35	Neutral	zielony	green	Neutral	Neutral	hit	n/a
328.8172	n/a	RESPONSE	n/a	n/a	n/a	n/a	n/a	n/a	n/a	green
328.8407	1.0167	ITI	n/a	n/a	n/a	n/a	n/a	n/a	n/a	n/a
329.8574	0.5167	FIXCROSS	n/a	n/a	n/a	n/a	n/a	n/a	n/a	n/a
330.3741	0.6	COLOR_NAME	36	Incongruent	zielony	green	żółty	yellow	hit	n/a
330.9447	n/a	RESPONSE	n/a	n/a	n/a	n/a	n/a	n/a	n/a	green
330.9741	1.0167	ITI	n/a	n/a	n/a	n/a	n/a	n/a	n/a	n/a
331.9908	0.5167	FIXCROSS	n/a	n/a	n/a	n/a	n/a	n/a	n/a	n/a
332.5075	0.5833	COLOR_NAME	37	Incongruent	niebieski	blue	zielony	green	hit	n/a
333.0722	n/a	RESPONSE	n/a	n/a	n/a	n/a	n/a	n/a	n/a	blue
333.0908	1.0167	ITI	n/a	n/a	n/a	n/a	n/a	n/a	n/a	n/a
334.1075	0.5167	FIXCROSS	n/a	n/a	n/a	n/a	n/a	n/a	n/a	n/a
334.6241	0.7833	COLOR_NAME	38	Incongruent	żółty	yellow	czerwony	red	hit	n/a
335.3757	n/a	RESPONSE	n/a	n/a	n/a	n/a	n/a	n/a	n/a	yellow
335.4075	1.0167	ITI	n/a	n/a	n/a	n/a	n/a	n/a	n/a	n/a
336.4242	0.5167	FIXCROSS	n/a	n/a	n/a	n/a	n/a	n/a	n/a	n/a
336.9408	0.7833	COLOR_NAME	39	Incongruent	czerwony	red	żółty	yellow	hit	n/a
337.6951	n/a	RESPONSE	n/a	n/a	n/a	n/a	n/a	n/a	n/a	red
337.7242	1.0167	ITI	n/a	n/a	n/a	n/a	n/a	n/a	n/a	n/a
338.7409	0.5167	FIXCROSS	n/a	n/a	n/a	n/a	n/a	n/a	n/a	n/a
339.2575	0.8834	COLOR_NAME	40	Neutral	zielony	green	Neutral	Neutral	hit	n/a
340.1105	n/a	RESPONSE	n/a	n/a	n/a	n/a	n/a	n/a	n/a	green
340.1409	1.0167	ITI	n/a	n/a	n/a	n/a	n/a	n/a	n/a	n/a
341.1576	0.5167	FIXCROSS	n/a	n/a	n/a	n/a	n/a	n/a	n/a	n/a
341.6742	0.7	COLOR_NAME	41	Incongruent	czerwony	red	żółty	yellow	hit	n/a
342.35	n/a	RESPONSE	n/a	n/a	n/a	n/a	n/a	n/a	n/a	red
342.3742	1.0167	ITI	n/a	n/a	n/a	n/a	n/a	n/a	n/a	n/a
343.3909	0.5167	FIXCROSS	n/a	n/a	n/a	n/a	n/a	n/a	n/a	n/a
343.9076	0.8667	COLOR_NAME	42	Incongruent	czerwony	red	niebieski	blue	hit	n/a
344.7494	n/a	RESPONSE	n/a	n/a	n/a	n/a	n/a	n/a	n/a	red
344.7743	1.0167	ITI	n/a	n/a	n/a	n/a	n/a	n/a	n/a	n/a
345.7909	0.5167	FIXCROSS	n/a	n/a	n/a	n/a	n/a	n/a	n/a	n/a
346.3076	0.7167	COLOR_NAME	43	Neutral	czerwony	red	Neutral	Neutral	hit	n/a
347.0049	n/a	RESPONSE	n/a	n/a	n/a	n/a	n/a	n/a	n/a	red
347.0243	1.0167	ITI	n/a	n/a	n/a	n/a	n/a	n/a	n/a	n/a
348.041	0.5167	FIXCROSS	n/a	n/a	n/a	n/a	n/a	n/a	n/a	n/a
348.5576	0.6333	COLOR_NAME	44	Neutral	niebieski	blue	Neutral	Neutral	hit	n/a
349.1643	n/a	RESPONSE	n/a	n/a	n/a	n/a	n/a	n/a	n/a	blue
349.191	1.0167	ITI	n/a	n/a	n/a	n/a	n/a	n/a	n/a	n/a
350.2077	0.5167	FIXCROSS	n/a	n/a	n/a	n/a	n/a	n/a	n/a	n/a
350.7243	0.9333	COLOR_NAME	45	Neutral	żółty	yellow	Neutral	Neutral	hit	n/a
351.6278	n/a	RESPONSE	n/a	n/a	n/a	n/a	n/a	n/a	n/a	yellow
351.6577	1.0167	ITI	n/a	n/a	n/a	n/a	n/a	n/a	n/a	n/a
352.6744	0.5167	FIXCROSS	n/a	n/a	n/a	n/a	n/a	n/a	n/a	n/a
353.191	0.9667	COLOR_NAME	46	Incongruent	niebieski	blue	żółty	yellow	hit	n/a
354.1232	n/a	RESPONSE	n/a	n/a	n/a	n/a	n/a	n/a	n/a	blue
354.1577	1.0167	ITI	n/a	n/a	n/a	n/a	n/a	n/a	n/a	n/a
355.1744	0.5167	FIXCROSS	n/a	n/a	n/a	n/a	n/a	n/a	n/a	n/a
355.6911	0.8333	COLOR_NAME	47	Incongruent	czerwony	red	niebieski	blue	hit	n/a
356.4906	n/a	RESPONSE	n/a	n/a	n/a	n/a	n/a	n/a	n/a	red
356.5244	1.0167	ITI	n/a	n/a	n/a	n/a	n/a	n/a	n/a	n/a
357.5411	0.5167	FIXCROSS	n/a	n/a	n/a	n/a	n/a	n/a	n/a	n/a
358.0578	0.7833	COLOR_NAME	48	Neutral	żółty	yellow	Neutral	Neutral	hit	n/a
358.81	n/a	RESPONSE	n/a	n/a	n/a	n/a	n/a	n/a	n/a	yellow
358.8411	1.0167	ITI	n/a	n/a	n/a	n/a	n/a	n/a	n/a	n/a
359.8578	0.5167	FIXCROSS	n/a	n/a	n/a	n/a	n/a	n/a	n/a	n/a
360.3745	0.7667	COLOR_NAME	49	Neutral	czerwony	red	Neutral	Neutral	hit	n/a
361.1135	n/a	RESPONSE	n/a	n/a	n/a	n/a	n/a	n/a	n/a	red
361.1411	1.0167	ITI	n/a	n/a	n/a	n/a	n/a	n/a	n/a	n/a
362.1578	0.5167	FIXCROSS	n/a	n/a	n/a	n/a	n/a	n/a	n/a	n/a
362.6745	0.7333	COLOR_NAME	50	Incongruent	niebieski	blue	żółty	yellow	hit	n/a
363.3849	n/a	RESPONSE	n/a	n/a	n/a	n/a	n/a	n/a	n/a	blue
363.4078	1.0167	ITI	n/a	n/a	n/a	n/a	n/a	n/a	n/a	n/a
364.4245	0.5167	FIXCROSS	n/a	n/a	n/a	n/a	n/a	n/a	n/a	n/a
364.9412	0.7167	COLOR_NAME	51	Neutral	zielony	green	Neutral	Neutral	hit	n/a
365.6244	n/a	RESPONSE	n/a	n/a	n/a	n/a	n/a	n/a	n/a	green
365.6578	1.0167	ITI	n/a	n/a	n/a	n/a	n/a	n/a	n/a	n/a
366.6745	0.5167	FIXCROSS	n/a	n/a	n/a	n/a	n/a	n/a	n/a	n/a
367.1912	0.5833	COLOR_NAME	52	Incongruent	zielony	green	czerwony	red	hit	n/a
367.7519	n/a	RESPONSE	n/a	n/a	n/a	n/a	n/a	n/a	n/a	green
367.7745	1.0167	ITI	n/a	n/a	n/a	n/a	n/a	n/a	n/a	n/a
368.7912	0.5167	FIXCROSS	n/a	n/a	n/a	n/a	n/a	n/a	n/a	n/a
369.3079	0.7167	COLOR_NAME	53	Incongruent	żółty	yellow	czerwony	red	hit	n/a
369.9914	n/a	RESPONSE	n/a	n/a	n/a	n/a	n/a	n/a	n/a	yellow
370.0246	1.0167	ITI	n/a	n/a	n/a	n/a	n/a	n/a	n/a	n/a
371.0412	0.5167	FIXCROSS	n/a	n/a	n/a	n/a	n/a	n/a	n/a	n/a
371.5579	0.75	COLOR_NAME	54	Neutral	czerwony	red	Neutral	Neutral	hit	n/a
372.2788	n/a	RESPONSE	n/a	n/a	n/a	n/a	n/a	n/a	n/a	red
372.3079	1.0167	ITI	n/a	n/a	n/a	n/a	n/a	n/a	n/a	n/a
373.3246	0.5167	FIXCROSS	n/a	n/a	n/a	n/a	n/a	n/a	n/a	n/a
373.8413	0.75	COLOR_NAME	55	Neutral	zielony	green	Neutral	Neutral	hit	n/a
374.5663	n/a	RESPONSE	n/a	n/a	n/a	n/a	n/a	n/a	n/a	green
374.5913	1.0167	ITI	n/a	n/a	n/a	n/a	n/a	n/a	n/a	n/a
375.608	0.5167	FIXCROSS	n/a	n/a	n/a	n/a	n/a	n/a	n/a	n/a
376.1246	0.7167	COLOR_NAME	56	Incongruent	czerwony	red	żółty	yellow	hit	n/a
376.8217	n/a	RESPONSE	n/a	n/a	n/a	n/a	n/a	n/a	n/a	red
376.8413	1.0167	ITI	n/a	n/a	n/a	n/a	n/a	n/a	n/a	n/a
377.858	0.5167	FIXCROSS	n/a	n/a	n/a	n/a	n/a	n/a	n/a	n/a
378.3747	0.9333	COLOR_NAME	57	Neutral	zielony	green	Neutral	Neutral	hit	n/a
379.2851	n/a	RESPONSE	n/a	n/a	n/a	n/a	n/a	n/a	n/a	green
379.308	1.0167	ITI	n/a	n/a	n/a	n/a	n/a	n/a	n/a	n/a
380.3247	0.5167	FIXCROSS	n/a	n/a	n/a	n/a	n/a	n/a	n/a	n/a
380.8414	0.5333	COLOR_NAME	58	Incongruent	zielony	green	czerwony	red	hit	n/a
381.3486	n/a	RESPONSE	n/a	n/a	n/a	n/a	n/a	n/a	n/a	green
381.3747	1.0167	ITI	n/a	n/a	n/a	n/a	n/a	n/a	n/a	n/a
382.3914	0.5167	FIXCROSS	n/a	n/a	n/a	n/a	n/a	n/a	n/a	n/a
382.908	0.7167	COLOR_NAME	59	Incongruent	niebieski	blue	zielony	green	incorrect	n/a
383.6041	n/a	RESPONSE	n/a	n/a	n/a	n/a	n/a	n/a	n/a	red
383.6247	1.0167	ITI	n/a	n/a	n/a	n/a	n/a	n/a	n/a	n/a
384.228	n/a	RESPONSE	n/a	n/a	n/a	n/a	n/a	n/a	n/a	blue
384.6414	0.5167	FIXCROSS	n/a	n/a	n/a	n/a	n/a	n/a	n/a	n/a
385.1581	0.8833	COLOR_NAME	60	Neutral	zielony	green	Neutral	Neutral	hit	n/a
386.0195	n/a	RESPONSE	n/a	n/a	n/a	n/a	n/a	n/a	n/a	green
386.0414	1.0167	ITI	n/a	n/a	n/a	n/a	n/a	n/a	n/a	n/a
387.0581	0.5167	FIXCROSS	n/a	n/a	n/a	n/a	n/a	n/a	n/a	n/a
387.5748	0.7833	COLOR_NAME	61	Neutral	niebieski	blue	Neutral	Neutral	hit	n/a
388.339	n/a	RESPONSE	n/a	n/a	n/a	n/a	n/a	n/a	n/a	blue
388.3581	1.0167	ITI	n/a	n/a	n/a	n/a	n/a	n/a	n/a	n/a
389.3748	0.5167	FIXCROSS	n/a	n/a	n/a	n/a	n/a	n/a	n/a	n/a
389.8915	0.5667	COLOR_NAME	62	Neutral	niebieski	blue	Neutral	Neutral	hit	n/a
390.4345	n/a	RESPONSE	n/a	n/a	n/a	n/a	n/a	n/a	n/a	blue
390.4581	1.0167	ITI	n/a	n/a	n/a	n/a	n/a	n/a	n/a	n/a
391.4748	0.5167	FIXCROSS	n/a	n/a	n/a	n/a	n/a	n/a	n/a	n/a
391.9915	0.5667	COLOR_NAME	63	Incongruent	niebieski	blue	żółty	yellow	hit	n/a
392.53	n/a	RESPONSE	n/a	n/a	n/a	n/a	n/a	n/a	n/a	blue
392.5582	1.0167	ITI	n/a	n/a	n/a	n/a	n/a	n/a	n/a	n/a
393.5748	0.5167	FIXCROSS	n/a	n/a	n/a	n/a	n/a	n/a	n/a	n/a
394.0915	0.55	COLOR_NAME	64	Neutral	niebieski	blue	Neutral	Neutral	hit	n/a
394.6094	n/a	RESPONSE	n/a	n/a	n/a	n/a	n/a	n/a	n/a	blue
394.6415	1.0167	ITI	n/a	n/a	n/a	n/a	n/a	n/a	n/a	n/a
395.6582	0.5167	FIXCROSS	n/a	n/a	n/a	n/a	n/a	n/a	n/a	n/a
396.1749	0.6	COLOR_NAME	65	Neutral	żółty	yellow	Neutral	Neutral	hit	n/a
396.7529	n/a	RESPONSE	n/a	n/a	n/a	n/a	n/a	n/a	n/a	yellow
396.7749	1.0167	ITI	n/a	n/a	n/a	n/a	n/a	n/a	n/a	n/a
397.7916	0.5167	FIXCROSS	n/a	n/a	n/a	n/a	n/a	n/a	n/a	n/a
398.3082	0.6167	COLOR_NAME	66	Neutral	żółty	yellow	Neutral	Neutral	hit	n/a
398.8964	n/a	RESPONSE	n/a	n/a	n/a	n/a	n/a	n/a	n/a	yellow
398.9249	1.0167	ITI	n/a	n/a	n/a	n/a	n/a	n/a	n/a	n/a
399.9416	0.5167	FIXCROSS	n/a	n/a	n/a	n/a	n/a	n/a	n/a	n/a
400.4582	0.7667	COLOR_NAME	67	Neutral	czerwony	red	Neutral	Neutral	hit	n/a
401.1999	n/a	RESPONSE	n/a	n/a	n/a	n/a	n/a	n/a	n/a	red
401.2249	1.0167	ITI	n/a	n/a	n/a	n/a	n/a	n/a	n/a	n/a
402.2416	0.5167	FIXCROSS	n/a	n/a	n/a	n/a	n/a	n/a	n/a	n/a
402.7583	0.6667	COLOR_NAME	68	Neutral	czerwony	red	Neutral	Neutral	hit	n/a
403.3913	n/a	RESPONSE	n/a	n/a	n/a	n/a	n/a	n/a	n/a	red
403.425	1.0167	ITI	n/a	n/a	n/a	n/a	n/a	n/a	n/a	n/a
404.4416	0.5167	FIXCROSS	n/a	n/a	n/a	n/a	n/a	n/a	n/a	n/a
404.9583	0.6167	COLOR_NAME	69	Incongruent	czerwony	red	zielony	green	hit	n/a
405.5508	n/a	RESPONSE	n/a	n/a	n/a	n/a	n/a	n/a	n/a	red
405.575	1.0167	ITI	n/a	n/a	n/a	n/a	n/a	n/a	n/a	n/a
406.5916	0.5167	FIXCROSS	n/a	n/a	n/a	n/a	n/a	n/a	n/a	n/a
407.1083	0.9333	COLOR_NAME	70	Incongruent	żółty	yellow	zielony	green	hit	n/a
408.0142	n/a	RESPONSE	n/a	n/a	n/a	n/a	n/a	n/a	n/a	yellow
408.0417	1.0167	ITI	n/a	n/a	n/a	n/a	n/a	n/a	n/a	n/a
409.0584	0.5167	FIXCROSS	n/a	n/a	n/a	n/a	n/a	n/a	n/a	n/a
409.575	0.8667	COLOR_NAME	71	Neutral	czerwony	red	Neutral	Neutral	hit	n/a
410.4137	n/a	RESPONSE	n/a	n/a	n/a	n/a	n/a	n/a	n/a	red
410.4417	1.0167	ITI	n/a	n/a	n/a	n/a	n/a	n/a	n/a	n/a
411.4584	0.5167	FIXCROSS	n/a	n/a	n/a	n/a	n/a	n/a	n/a	n/a
411.9751	0.8333	COLOR_NAME	72	Incongruent	zielony	green	żółty	yellow	hit	n/a
412.7811	n/a	RESPONSE	n/a	n/a	n/a	n/a	n/a	n/a	n/a	green
412.8084	1.0333	ITI	n/a	n/a	n/a	n/a	n/a	n/a	n/a	n/a
416.4762	n/a	RESPONSE	n/a	n/a	n/a	n/a	n/a	n/a	n/a	n/a
