onset	duration	trial_type	melody_number	melody_part	key	sound	action
0.0	14.082	CUE_START	n/a	n/a	n/a	n/a	n/a
14.082	7.76	FIXCROSS	n/a	n/a	n/a	n/a	n/a
21.842	6.324	CUE_LISTEN	M3	1	n/a	n/a	n/a
28.166	7.758	FIXCROSS	n/a	n/a	n/a	n/a	n/a
35.924	6.317	CUE_PLAYBACK_BOTH_HANDS	M3	1	n/a	n/a	n/a
36.808	n/a	RESPONSE	M3	1	00	C3	press
36.848	n/a	RESPONSE	M3	1	12	C4	press
37.349	n/a	RESPONSE	M3	1	07	G3	press
37.36	n/a	RESPONSE	M3	1	14	D4	press
37.372	n/a	RESPONSE	M3	1	12	C4	release
37.903	n/a	RESPONSE	M3	1	07	G3	release
38.064	n/a	RESPONSE	M3	1	14	D4	release
38.525	n/a	RESPONSE	M3	1	00	C3	release
39.486	n/a	RESPONSE	M3	1	12	C4	press
39.858	n/a	RESPONSE	M3	1	12	C4	release
40.049	n/a	RESPONSE	M3	1	00	C3	press
40.06	n/a	RESPONSE	M3	1	12	C4	press
40.462	n/a	RESPONSE	M3	1	07	G3	press
40.473	n/a	RESPONSE	M3	1	14	D4	press
40.475	n/a	RESPONSE	M3	1	12	C4	release
40.906	n/a	RESPONSE	M3	1	00	C3	release
40.938	n/a	RESPONSE	M3	1	14	D4	release
40.949	n/a	RESPONSE	M3	1	16	E4	press
40.952	n/a	RESPONSE	M3	1	04	E3	press
41.002	n/a	RESPONSE	M3	1	07	G3	release
41.443	n/a	RESPONSE	M3	1	07	G3	press
41.446	n/a	RESPONSE	M3	1	04	E3	release
41.455	n/a	RESPONSE	M3	1	16	E4	release
41.466	n/a	RESPONSE	M3	1	12	C4	press
41.758	n/a	RESPONSE	M3	1	12	C4	release
41.76	n/a	RESPONSE	M3	1	07	G3	release
41.95	n/a	RESPONSE	M3	1	00	C3	press
41.972	n/a	RESPONSE	M3	1	12	C4	press
42.241	7.758	FIXCROSS	n/a	n/a	n/a	n/a	n/a
42.403	n/a	RESPONSE	M3	1	12	C4	release
42.405	n/a	RESPONSE	M3	1	14	D4	press
42.408	n/a	RESPONSE	M3	1	07	G3	press
42.416	n/a	RESPONSE	M3	1	00	C3	release
42.828	n/a	RESPONSE	M3	1	14	D4	release
42.869	n/a	RESPONSE	M3	1	16	E4	press
42.871	n/a	RESPONSE	M3	1	07	G3	release
42.881	n/a	RESPONSE	M3	1	04	E3	press
43.27	n/a	RESPONSE	M3	1	16	E4	release
43.302	n/a	RESPONSE	M3	1	04	E3	release
43.344	n/a	RESPONSE	M3	1	07	G3	press
43.348	n/a	RESPONSE	M3	1	12	C4	press
43.898	n/a	RESPONSE	M3	1	12	C4	release
43.962	n/a	RESPONSE	M3	1	07	G3	release
49.999	6.317	CUE_LISTEN	M3	2	n/a	n/a	n/a
56.316	7.759	FIXCROSS	n/a	n/a	n/a	n/a	n/a
64.074	6.325	CUE_PLAYBACK_BOTH_HANDS	M3	2	n/a	n/a	n/a
64.795	n/a	RESPONSE	M3	2	00	C3	press
64.83	n/a	RESPONSE	M3	2	16	E4	press
65.448	n/a	RESPONSE	M3	2	07	G3	press
65.473	n/a	RESPONSE	M3	2	17	F4	press
65.623	n/a	RESPONSE	M3	2	16	E4	release
65.721	n/a	RESPONSE	M3	2	00	C3	release
66.19	n/a	RESPONSE	M3	2	04	E3	press
66.254	n/a	RESPONSE	M3	2	07	G3	release
66.271	n/a	RESPONSE	M3	2	19	G4	press
66.358	n/a	RESPONSE	M3	2	17	F4	release
66.873	n/a	RESPONSE	M3	2	07	G3	press
66.914	n/a	RESPONSE	M3	2	04	E3	release
67.034	n/a	RESPONSE	M3	2	19	G4	release
67.396	n/a	RESPONSE	M3	2	07	G3	release
67.436	n/a	RESPONSE	M3	2	00	C3	press
67.46	n/a	RESPONSE	M3	2	16	E4	press
67.999	n/a	RESPONSE	M3	2	17	F4	press
68.002	n/a	RESPONSE	M3	2	07	G3	press
68.032	n/a	RESPONSE	M3	2	00	C3	release
68.034	n/a	RESPONSE	M3	2	16	E4	release
68.584	n/a	RESPONSE	M3	2	04	E3	press
68.586	n/a	RESPONSE	M3	2	19	G4	press
68.626	n/a	RESPONSE	M3	2	07	G3	release
68.658	n/a	RESPONSE	M3	2	17	F4	release
69.122	n/a	RESPONSE	M3	2	07	G3	press
69.19	n/a	RESPONSE	M3	2	04	E3	release
69.243	n/a	RESPONSE	M3	2	19	G4	release
69.625	n/a	RESPONSE	M3	2	07	G3	release
70.399	7.758	FIXCROSS	n/a	n/a	n/a	n/a	n/a
78.158	6.317	CUE_LISTEN	M3	1	n/a	n/a	n/a
84.474	7.758	FIXCROSS	n/a	n/a	n/a	n/a	n/a
92.232	6.317	CUE_PLAYBACK_BOTH_HANDS	M3	1	n/a	n/a	n/a
93.168	n/a	RESPONSE	M3	1	00	C3	press
93.17	n/a	RESPONSE	M3	1	19	G4	press
93.538	n/a	RESPONSE	M3	1	21	A4	press
93.729	n/a	RESPONSE	M3	1	21	A4	release
93.925	n/a	RESPONSE	M3	1	07	G3	press
93.976	n/a	RESPONSE	M3	1	00	C3	release
94.326	n/a	RESPONSE	M3	1	17	F4	press
94.443	n/a	RESPONSE	M3	1	19	G4	release
94.804	n/a	RESPONSE	M3	1	17	F4	release
94.834	n/a	RESPONSE	M3	1	16	E4	press
94.852	n/a	RESPONSE	M3	1	04	E3	press
94.883	n/a	RESPONSE	M3	1	07	G3	release
95.796	n/a	RESPONSE	M3	1	16	E4	release
95.803	n/a	RESPONSE	M3	1	04	E3	release
95.983	n/a	RESPONSE	M3	1	12	C4	press
96.064	n/a	RESPONSE	M3	1	07	G3	press
96.616	n/a	RESPONSE	M3	1	12	C4	release
96.668	n/a	RESPONSE	M3	1	07	G3	release
97.089	n/a	RESPONSE	M3	1	00	C3	press
97.092	n/a	RESPONSE	M3	1	19	G4	press
97.472	n/a	RESPONSE	M3	1	21	A4	press
97.533	n/a	RESPONSE	M3	1	19	G4	release
97.634	n/a	RESPONSE	M3	1	21	A4	release
97.738	n/a	RESPONSE	M3	1	00	C3	release
97.768	n/a	RESPONSE	M3	1	19	G4	press
97.78	n/a	RESPONSE	M3	1	07	G3	press
98.099	n/a	RESPONSE	M3	1	17	F4	press
98.12	n/a	RESPONSE	M3	1	19	G4	release
98.272	n/a	RESPONSE	M3	1	07	G3	release
98.393	n/a	RESPONSE	M3	1	17	F4	release
98.549	7.758	FIXCROSS	n/a	n/a	n/a	n/a	n/a
99.465	n/a	RESPONSE	M3	1	04	E3	press
99.485	n/a	RESPONSE	M3	1	16	E4	press
100.068	n/a	RESPONSE	M3	1	04	E3	release
100.078	n/a	RESPONSE	M3	1	16	E4	release
100.282	n/a	RESPONSE	M3	1	12	C4	press
100.33	n/a	RESPONSE	M3	1	07	G3	press
101.253	n/a	RESPONSE	M3	1	12	C4	release
101.284	n/a	RESPONSE	M3	1	07	G3	release
106.308	6.325	CUE_LISTEN	M3	2	n/a	n/a	n/a
112.632	7.758	FIXCROSS	n/a	n/a	n/a	n/a	n/a
120.391	6.317	CUE_PLAYBACK_BOTH_HANDS	M3	2	n/a	n/a	n/a
121.57	n/a	RESPONSE	M3	2	00	C3	press
121.602	n/a	RESPONSE	M3	2	12	C4	press
121.853	n/a	RESPONSE	M3	2	12	C4	release
122.935	n/a	RESPONSE	M3	2	07	G3	press
123.268	n/a	RESPONSE	M3	2	07	G3	release
123.369	n/a	RESPONSE	M3	2	00	C3	release
123.628	n/a	RESPONSE	M3	2	12	C4	press
123.72	n/a	RESPONSE	M3	2	00	C3	press
124.073	n/a	RESPONSE	M3	2	00	C3	release
124.122	n/a	RESPONSE	M3	2	12	C4	release
124.454	n/a	RESPONSE	M3	2	00	C3	press
124.473	n/a	RESPONSE	M3	2	12	C4	press
124.86	n/a	RESPONSE	M3	2	12	C4	release
124.956	n/a	RESPONSE	M3	2	07	G3	press
125.228	n/a	RESPONSE	M3	2	07	G3	release
125.23	n/a	RESPONSE	M3	2	00	C3	release
125.474	n/a	RESPONSE	M3	2	00	C3	press
125.476	n/a	RESPONSE	M3	2	12	C4	press
126.238	n/a	RESPONSE	M3	2	00	C3	release
126.279	n/a	RESPONSE	M3	2	12	C4	release
126.708	7.758	FIXCROSS	n/a	n/a	n/a	n/a	n/a
134.466	6.317	CUE_LISTEN	M1	1	n/a	n/a	n/a
140.783	7.758	FIXCROSS	n/a	n/a	n/a	n/a	n/a
148.541	6.325	CUE_PLAYBACK_BOTH_HANDS	M1	1	n/a	n/a	n/a
150.173	n/a	RESPONSE	M1	1	19	G4	press
150.176	n/a	RESPONSE	M1	1	07	G3	press
150.185	n/a	RESPONSE	M1	1	00	C3	press
150.209	n/a	RESPONSE	M1	1	04	E3	press
150.77	n/a	RESPONSE	M1	1	16	E4	press
150.902	n/a	RESPONSE	M1	1	19	G4	release
151.103	n/a	RESPONSE	M1	1	16	E4	release
151.284	n/a	RESPONSE	M1	1	16	E4	press
151.538	n/a	RESPONSE	M1	1	04	E3	release
151.546	n/a	RESPONSE	M1	1	16	E4	release
151.608	n/a	RESPONSE	M1	1	00	C3	release
151.799	n/a	RESPONSE	M1	1	02	D3	press
151.801	n/a	RESPONSE	M1	1	17	F4	press
151.813	n/a	RESPONSE	M1	1	05	F3	press
152.213	n/a	RESPONSE	M1	1	17	F4	release
152.344	n/a	RESPONSE	M1	1	14	D4	press
152.638	n/a	RESPONSE	M1	1	14	D4	release
152.909	n/a	RESPONSE	M1	1	14	D4	press
153.073	n/a	RESPONSE	M1	1	02	D3	release
153.142	n/a	RESPONSE	M1	1	05	F3	release
153.144	n/a	RESPONSE	M1	1	14	D4	release
153.192	n/a	RESPONSE	M1	1	07	G3	release
153.429	n/a	RESPONSE	M1	1	07	G3	press
153.436	n/a	RESPONSE	M1	1	04	E3	press
153.445	n/a	RESPONSE	M1	1	00	C3	press
153.485	n/a	RESPONSE	M1	1	12	C4	press
153.759	n/a	RESPONSE	M1	1	16	E4	press
153.826	n/a	RESPONSE	M1	1	12	C4	release
153.969	n/a	RESPONSE	M1	1	16	E4	release
153.978	n/a	RESPONSE	M1	1	19	G4	press
154.652	n/a	RESPONSE	M1	1	19	G4	release
154.703	n/a	RESPONSE	M1	1	00	C3	release
154.766	n/a	RESPONSE	M1	1	04	E3	release
154.858	n/a	RESPONSE	M1	1	07	G3	release
154.866	7.758	FIXCROSS	n/a	n/a	n/a	n/a	n/a
162.624	6.317	CUE_LISTEN	M1	2	n/a	n/a	n/a
168.941	7.758	FIXCROSS	n/a	n/a	n/a	n/a	n/a
176.699	6.325	CUE_PLAYBACK_BOTH_HANDS	M1	2	n/a	n/a	n/a
177.545	n/a	RESPONSE	M1	2	17	F4	press
177.559	n/a	RESPONSE	M1	2	07	G3	press
177.578	n/a	RESPONSE	M1	2	02	D3	press
177.599	n/a	RESPONSE	M1	2	05	F3	press
178.03	n/a	RESPONSE	M1	2	17	F4	release
178.054	n/a	RESPONSE	M1	2	14	D4	press
178.423	n/a	RESPONSE	M1	2	14	D4	release
178.594	n/a	RESPONSE	M1	2	05	F3	release
178.605	n/a	RESPONSE	M1	2	02	D3	release
180.486	n/a	RESPONSE	M1	2	19	G4	press
180.749	n/a	RESPONSE	M1	2	19	G4	release
181.38	n/a	RESPONSE	M1	2	19	G4	press
181.432	n/a	RESPONSE	M1	2	00	C3	press
181.845	n/a	RESPONSE	M1	2	07	G3	release
182.024	n/a	RESPONSE	M1	2	04	E3	press
182.035	n/a	RESPONSE	M1	2	07	G3	press
182.526	n/a	RESPONSE	M1	2	04	E3	release
182.538	n/a	RESPONSE	M1	2	19	G4	release
182.579	n/a	RESPONSE	M1	2	00	C3	release
182.7	n/a	RESPONSE	M1	2	07	G3	release
183.024	7.758	FIXCROSS	n/a	n/a	n/a	n/a	n/a
184.543	n/a	RESPONSE	M1	2	19	G4	press
184.545	n/a	RESPONSE	M1	2	04	E3	press
184.564	n/a	RESPONSE	M1	2	07	G3	press
184.604	n/a	RESPONSE	M1	2	00	C3	press
184.971	n/a	RESPONSE	M1	2	16	E4	press
185.145	n/a	RESPONSE	M1	2	19	G4	release
185.256	n/a	RESPONSE	M1	2	16	E4	release
185.649	n/a	RESPONSE	M1	2	04	E3	release
185.694	n/a	RESPONSE	M1	2	07	G3	release
185.764	n/a	RESPONSE	M1	2	00	C3	release
186.336	n/a	RESPONSE	M1	2	19	G4	press
186.503	n/a	RESPONSE	M1	2	19	G4	release
190.783	6.317	CUE_LISTEN	M2	1	n/a	n/a	n/a
197.099	7.758	FIXCROSS	n/a	n/a	n/a	n/a	n/a
204.858	6.317	CUE_PLAYBACK_BOTH_HANDS	M2	1	n/a	n/a	n/a
206.35	n/a	RESPONSE	M2	1	24	C5	press
206.355	n/a	RESPONSE	M2	1	00	C3	press
206.358	n/a	RESPONSE	M2	1	07	G3	press
206.839	n/a	RESPONSE	M2	1	19	G4	press
206.89	n/a	RESPONSE	M2	1	24	C5	release
207.013	n/a	RESPONSE	M2	1	19	G4	release
207.083	n/a	RESPONSE	M2	1	07	G3	release
207.174	n/a	RESPONSE	M2	1	00	C3	release
207.288	n/a	RESPONSE	M2	1	00	C3	press
207.306	n/a	RESPONSE	M2	1	07	G3	press
207.309	n/a	RESPONSE	M2	1	19	G4	press
207.759	n/a	RESPONSE	M2	1	17	F4	press
207.83	n/a	RESPONSE	M2	1	19	G4	release
207.922	n/a	RESPONSE	M2	1	07	G3	release
207.925	n/a	RESPONSE	M2	1	00	C3	release
208.004	n/a	RESPONSE	M2	1	17	F4	release
208.255	n/a	RESPONSE	M2	1	16	E4	press
208.258	n/a	RESPONSE	M2	1	00	C3	press
208.26	n/a	RESPONSE	M2	1	07	G3	press
208.699	n/a	RESPONSE	M2	1	17	F4	press
208.77	n/a	RESPONSE	M2	1	16	E4	release
208.932	n/a	RESPONSE	M2	1	07	G3	release
208.943	n/a	RESPONSE	M2	1	17	F4	release
209.004	n/a	RESPONSE	M2	1	00	C3	release
209.178	n/a	RESPONSE	M2	1	00	C3	press
209.186	n/a	RESPONSE	M2	1	19	G4	press
209.189	n/a	RESPONSE	M2	1	07	G3	press
209.839	n/a	RESPONSE	M2	1	19	G4	release
209.863	n/a	RESPONSE	M2	1	00	C3	release
209.912	n/a	RESPONSE	M2	1	07	G3	release
211.174	7.758	FIXCROSS	n/a	n/a	n/a	n/a	n/a
218.933	6.325	CUE_LISTEN	M2	2	n/a	n/a	n/a
225.258	7.758	FIXCROSS	n/a	n/a	n/a	n/a	n/a
233.016	6.317	CUE_PLAYBACK_BOTH_HANDS	M2	2	n/a	n/a	n/a
234.138	n/a	RESPONSE	M2	2	24	C5	press
234.14	n/a	RESPONSE	M2	2	07	G3	press
234.143	n/a	RESPONSE	M2	2	00	C3	press
234.659	n/a	RESPONSE	M2	2	19	G4	press
234.733	n/a	RESPONSE	M2	2	24	C5	release
234.85	n/a	RESPONSE	M2	2	19	G4	release
234.881	n/a	RESPONSE	M2	2	07	G3	release
234.898	n/a	RESPONSE	M2	2	00	C3	release
235.094	n/a	RESPONSE	M2	2	00	C3	press
235.103	n/a	RESPONSE	M2	2	19	G4	press
235.105	n/a	RESPONSE	M2	2	07	G3	press
235.582	n/a	RESPONSE	M2	2	17	F4	press
235.606	n/a	RESPONSE	M2	2	19	G4	release
235.705	n/a	RESPONSE	M2	2	00	C3	release
235.763	n/a	RESPONSE	M2	2	07	G3	release
235.806	n/a	RESPONSE	M2	2	17	F4	release
236.012	n/a	RESPONSE	M2	2	07	G3	press
236.018	n/a	RESPONSE	M2	2	00	C3	press
236.036	n/a	RESPONSE	M2	2	16	E4	press
236.489	n/a	RESPONSE	M2	2	14	D4	press
236.603	n/a	RESPONSE	M2	2	16	E4	release
236.664	n/a	RESPONSE	M2	2	07	G3	release
236.674	n/a	RESPONSE	M2	2	00	C3	release
236.745	n/a	RESPONSE	M2	2	14	D4	release
236.966	n/a	RESPONSE	M2	2	00	C3	press
236.978	n/a	RESPONSE	M2	2	12	C4	press
236.98	n/a	RESPONSE	M2	2	07	G3	press
237.77	n/a	RESPONSE	M2	2	00	C3	release
237.822	n/a	RESPONSE	M2	2	12	C4	release
237.873	n/a	RESPONSE	M2	2	07	G3	release
239.333	7.758	FIXCROSS	n/a	n/a	n/a	n/a	n/a
247.091	6.317	CUE_LISTEN	M2	1	n/a	n/a	n/a
253.408	7.758	FIXCROSS	n/a	n/a	n/a	n/a	n/a
261.166	6.325	CUE_PLAYBACK_BOTH_HANDS	M2	1	n/a	n/a	n/a
261.81	n/a	RESPONSE	M2	1	07	G3	press
261.813	n/a	RESPONSE	M2	1	00	C3	press
261.823	n/a	RESPONSE	M2	1	12	C4	press
262.325	n/a	RESPONSE	M2	1	14	D4	press
262.395	n/a	RESPONSE	M2	1	12	C4	release
262.636	n/a	RESPONSE	M2	1	14	D4	release
262.678	n/a	RESPONSE	M2	1	00	C3	release
262.709	n/a	RESPONSE	M2	1	07	G3	release
262.8	n/a	RESPONSE	M2	1	00	C3	press
262.812	n/a	RESPONSE	M2	1	07	G3	press
262.814	n/a	RESPONSE	M2	1	16	E4	press
263.28	n/a	RESPONSE	M2	1	14	D4	press
263.303	n/a	RESPONSE	M2	1	16	E4	release
263.38	n/a	RESPONSE	M2	1	00	C3	release
263.448	n/a	RESPONSE	M2	1	07	G3	release
263.476	n/a	RESPONSE	M2	1	14	D4	release
263.713	n/a	RESPONSE	M2	1	00	C3	press
263.726	n/a	RESPONSE	M2	1	07	G3	press
263.733	n/a	RESPONSE	M2	1	16	E4	press
264.216	n/a	RESPONSE	M2	1	17	F4	press
264.288	n/a	RESPONSE	M2	1	16	E4	release
264.398	n/a	RESPONSE	M2	1	00	C3	release
264.403	n/a	RESPONSE	M2	1	17	F4	release
264.422	n/a	RESPONSE	M2	1	07	G3	release
264.642	n/a	RESPONSE	M2	1	00	C3	press
264.652	n/a	RESPONSE	M2	1	19	G4	press
264.656	n/a	RESPONSE	M2	1	07	G3	press
265.552	n/a	RESPONSE	M2	1	19	G4	release
265.613	n/a	RESPONSE	M2	1	00	C3	release
265.648	n/a	RESPONSE	M2	1	07	G3	release
267.491	7.758	FIXCROSS	n/a	n/a	n/a	n/a	n/a
275.25	6.317	CUE_LISTEN	M2	2	n/a	n/a	n/a
281.566	7.758	FIXCROSS	n/a	n/a	n/a	n/a	n/a
289.325	6.317	CUE_PLAYBACK_BOTH_HANDS	M2	2	n/a	n/a	n/a
290.035	n/a	RESPONSE	M2	2	00	C3	press
290.038	n/a	RESPONSE	M2	2	07	G3	press
290.048	n/a	RESPONSE	M2	2	16	E4	press
290.519	n/a	RESPONSE	M2	2	19	G4	press
290.653	n/a	RESPONSE	M2	2	16	E4	release
290.713	n/a	RESPONSE	M2	2	00	C3	release
290.715	n/a	RESPONSE	M2	2	19	G4	release
290.718	n/a	RESPONSE	M2	2	07	G3	release
290.956	n/a	RESPONSE	M2	2	19	G4	press
290.968	n/a	RESPONSE	M2	2	00	C3	press
291.002	n/a	RESPONSE	M2	2	07	G3	press
291.44	n/a	RESPONSE	M2	2	17	F4	press
291.494	n/a	RESPONSE	M2	2	19	G4	release
291.583	n/a	RESPONSE	M2	2	17	F4	release
291.604	n/a	RESPONSE	M2	2	00	C3	release
291.625	n/a	RESPONSE	M2	2	07	G3	release
291.876	n/a	RESPONSE	M2	2	00	C3	press
291.898	n/a	RESPONSE	M2	2	16	E4	press
291.909	n/a	RESPONSE	M2	2	07	G3	press
292.36	n/a	RESPONSE	M2	2	14	D4	press
292.372	n/a	RESPONSE	M2	2	16	E4	release
292.483	n/a	RESPONSE	M2	2	00	C3	release
292.505	n/a	RESPONSE	M2	2	07	G3	release
292.585	n/a	RESPONSE	M2	2	14	D4	release
292.806	n/a	RESPONSE	M2	2	00	C3	press
292.809	n/a	RESPONSE	M2	2	07	G3	press
292.819	n/a	RESPONSE	M2	2	12	C4	press
293.775	n/a	RESPONSE	M2	2	12	C4	release
293.778	n/a	RESPONSE	M2	2	00	C3	release
293.804	n/a	RESPONSE	M2	2	07	G3	release
295.641	7.758	FIXCROSS	n/a	n/a	n/a	n/a	n/a
303.4	6.325	CUE_LISTEN	M3	1	n/a	n/a	n/a
309.725	7.758	FIXCROSS	n/a	n/a	n/a	n/a	n/a
317.483	6.317	CUE_PLAYBACK_RIGHT_HAND	M3	1	n/a	n/a	n/a
318.439	n/a	RESPONSE	M3	1	12	C4	press
318.9	n/a	RESPONSE	M3	1	14	D4	press
318.94	n/a	RESPONSE	M3	1	12	C4	release
319.341	n/a	RESPONSE	M3	1	16	E4	press
319.405	n/a	RESPONSE	M3	1	14	D4	release
319.984	n/a	RESPONSE	M3	1	12	C4	press
319.986	n/a	RESPONSE	M3	1	16	E4	release
320.276	n/a	RESPONSE	M3	1	12	C4	release
320.508	n/a	RESPONSE	M3	1	12	C4	press
320.97	n/a	RESPONSE	M3	1	14	D4	press
321.041	n/a	RESPONSE	M3	1	12	C4	release
321.513	n/a	RESPONSE	M3	1	16	E4	press
321.544	n/a	RESPONSE	M3	1	14	D4	release
321.906	n/a	RESPONSE	M3	1	16	E4	release
322.016	n/a	RESPONSE	M3	1	12	C4	press
322.578	n/a	RESPONSE	M3	1	12	C4	release
323.8	7.758	FIXCROSS	n/a	n/a	n/a	n/a	n/a
331.558	6.317	CUE_LISTEN	M3	2	n/a	n/a	n/a
337.875	7.758	FIXCROSS	n/a	n/a	n/a	n/a	n/a
345.633	6.325	CUE_PLAYBACK_RIGHT_HAND	M3	2	n/a	n/a	n/a
346.331	n/a	RESPONSE	M3	2	16	E4	press
346.803	n/a	RESPONSE	M3	2	17	F4	press
346.841	n/a	RESPONSE	M3	2	16	E4	release
347.305	n/a	RESPONSE	M3	2	19	G4	press
347.375	n/a	RESPONSE	M3	2	17	F4	release
347.948	n/a	RESPONSE	M3	2	19	G4	release
348.278	n/a	RESPONSE	M3	2	16	E4	press
348.759	n/a	RESPONSE	M3	2	17	F4	press
348.78	n/a	RESPONSE	M3	2	16	E4	release
349.213	n/a	RESPONSE	M3	2	19	G4	press
349.244	n/a	RESPONSE	M3	2	17	F4	release
350.026	n/a	RESPONSE	M3	2	19	G4	release
351.958	7.758	FIXCROSS	n/a	n/a	n/a	n/a	n/a
359.716	6.317	CUE_LISTEN	M3	1	n/a	n/a	n/a
366.033	7.758	FIXCROSS	n/a	n/a	n/a	n/a	n/a
373.791	6.317	CUE_PLAYBACK_RIGHT_HAND	M3	1	n/a	n/a	n/a
374.492	n/a	RESPONSE	M3	1	19	G4	press
374.818	n/a	RESPONSE	M3	1	21	A4	press
374.89	n/a	RESPONSE	M3	1	19	G4	release
375.036	n/a	RESPONSE	M3	1	19	G4	press
375.064	n/a	RESPONSE	M3	1	21	A4	release
375.396	n/a	RESPONSE	M3	1	17	F4	press
375.445	n/a	RESPONSE	M3	1	19	G4	release
375.731	n/a	RESPONSE	M3	1	16	E4	press
375.741	n/a	RESPONSE	M3	1	17	F4	release
376.31	n/a	RESPONSE	M3	1	16	E4	release
376.336	n/a	RESPONSE	M3	1	14	D4	press
376.744	n/a	RESPONSE	M3	1	14	D4	release
377.055	n/a	RESPONSE	M3	1	19	G4	press
377.385	n/a	RESPONSE	M3	1	21	A4	press
377.426	n/a	RESPONSE	M3	1	19	G4	release
377.618	n/a	RESPONSE	M3	1	21	A4	release
377.639	n/a	RESPONSE	M3	1	19	G4	press
377.952	n/a	RESPONSE	M3	1	17	F4	press
378.041	n/a	RESPONSE	M3	1	19	G4	release
378.284	n/a	RESPONSE	M3	1	16	E4	press
378.306	n/a	RESPONSE	M3	1	17	F4	release
378.805	n/a	RESPONSE	M3	1	16	E4	release
378.906	n/a	RESPONSE	M3	1	12	C4	press
379.518	n/a	RESPONSE	M3	1	12	C4	release
380.108	7.758	FIXCROSS	n/a	n/a	n/a	n/a	n/a
387.866	6.325	CUE_LISTEN	M3	2	n/a	n/a	n/a
394.191	7.758	FIXCROSS	n/a	n/a	n/a	n/a	n/a
401.95	6.317	CUE_PLAYBACK_RIGHT_HAND	M3	2	n/a	n/a	n/a
403.356	n/a	RESPONSE	M3	2	12	C4	press
403.866	n/a	RESPONSE	M3	2	12	C4	release
403.879	n/a	RESPONSE	M3	2	07	G3	press
404.353	n/a	RESPONSE	M3	2	12	C4	press
404.355	n/a	RESPONSE	M3	2	07	G3	release
404.956	n/a	RESPONSE	M3	2	12	C4	release
405.232	n/a	RESPONSE	M3	2	12	C4	press
405.666	n/a	RESPONSE	M3	2	07	G3	press
405.69	n/a	RESPONSE	M3	2	12	C4	release
406.098	n/a	RESPONSE	M3	2	07	G3	release
406.151	n/a	RESPONSE	M3	2	12	C4	press
406.926	n/a	RESPONSE	M3	2	12	C4	release
408.266	7.758	FIXCROSS	n/a	n/a	n/a	n/a	n/a
416.025	6.325	CUE_LISTEN	M1	1	n/a	n/a	n/a
422.35	7.758	FIXCROSS	n/a	n/a	n/a	n/a	n/a
430.108	6.317	CUE_PLAYBACK_RIGHT_HAND	M1	1	n/a	n/a	n/a
430.846	n/a	RESPONSE	M1	1	19	G4	press
431.305	n/a	RESPONSE	M1	1	19	G4	release
431.339	n/a	RESPONSE	M1	1	16	E4	press
431.728	n/a	RESPONSE	M1	1	16	E4	release
431.892	n/a	RESPONSE	M1	1	16	E4	press
432.3	n/a	RESPONSE	M1	1	16	E4	release
432.401	n/a	RESPONSE	M1	1	17	F4	press
432.853	n/a	RESPONSE	M1	1	17	F4	release
432.954	n/a	RESPONSE	M1	1	14	D4	press
433.302	n/a	RESPONSE	M1	1	14	D4	release
433.462	n/a	RESPONSE	M1	1	14	D4	press
433.854	n/a	RESPONSE	M1	1	14	D4	release
433.982	n/a	RESPONSE	M1	1	12	C4	press
434.303	n/a	RESPONSE	M1	1	16	E4	press
434.335	n/a	RESPONSE	M1	1	12	C4	release
434.616	n/a	RESPONSE	M1	1	19	G4	press
434.673	n/a	RESPONSE	M1	1	16	E4	release
435.279	n/a	RESPONSE	M1	1	19	G4	release
436.425	7.758	FIXCROSS	n/a	n/a	n/a	n/a	n/a
444.183	6.317	CUE_LISTEN	M1	2	n/a	n/a	n/a
450.5	7.758	FIXCROSS	n/a	n/a	n/a	n/a	n/a
458.258	6.325	CUE_PLAYBACK_RIGHT_HAND	M1	2	n/a	n/a	n/a
458.806	n/a	RESPONSE	M1	2	19	G4	press
459.306	n/a	RESPONSE	M1	2	19	G4	release
459.356	n/a	RESPONSE	M1	2	16	E4	press
459.788	n/a	RESPONSE	M1	2	16	E4	release
459.85	n/a	RESPONSE	M1	2	16	E4	press
460.22	n/a	RESPONSE	M1	2	16	E4	release
460.394	n/a	RESPONSE	M1	2	17	F4	press
460.814	n/a	RESPONSE	M1	2	17	F4	release
460.966	n/a	RESPONSE	M1	2	14	D4	press
461.336	n/a	RESPONSE	M1	2	14	D4	release
461.458	n/a	RESPONSE	M1	2	14	D4	press
461.759	n/a	RESPONSE	M1	2	14	D4	release
462.001	n/a	RESPONSE	M1	2	12	C4	press
462.324	n/a	RESPONSE	M1	2	12	C4	release
462.333	n/a	RESPONSE	M1	2	16	E4	press
462.584	n/a	RESPONSE	M1	2	12	C4	press
462.628	n/a	RESPONSE	M1	2	16	E4	release
463.281	n/a	RESPONSE	M1	2	12	C4	release
464.583	7.758	FIXCROSS	n/a	n/a	n/a	n/a	n/a
472.342	6.325	CUE_LISTEN	M2	1	n/a	n/a	n/a
478.666	7.759	FIXCROSS	n/a	n/a	n/a	n/a	n/a
486.425	6.308	CUE_PLAYBACK_BOTH_HANDS	M2	1	n/a	n/a	n/a
487.6	n/a	RESPONSE	M2	1	00	C3	press
487.609	n/a	RESPONSE	M2	1	07	G3	press
487.611	n/a	RESPONSE	M2	1	24	C5	press
488.121	n/a	RESPONSE	M2	1	24	C5	release
488.124	n/a	RESPONSE	M2	1	19	G4	press
488.244	n/a	RESPONSE	M2	1	00	C3	release
488.325	n/a	RESPONSE	M2	1	19	G4	release
488.386	n/a	RESPONSE	M2	1	07	G3	release
488.588	n/a	RESPONSE	M2	1	19	G4	press
488.601	n/a	RESPONSE	M2	1	00	C3	press
488.61	n/a	RESPONSE	M2	1	07	G3	press
489.054	n/a	RESPONSE	M2	1	17	F4	press
489.063	n/a	RESPONSE	M2	1	19	G4	release
489.194	n/a	RESPONSE	M2	1	00	C3	release
489.275	n/a	RESPONSE	M2	1	07	G3	release
489.369	n/a	RESPONSE	M2	1	17	F4	release
489.528	n/a	RESPONSE	M2	1	07	G3	press
489.53	n/a	RESPONSE	M2	1	16	E4	press
489.533	n/a	RESPONSE	M2	1	00	C3	press
490.011	n/a	RESPONSE	M2	1	17	F4	press
490.055	n/a	RESPONSE	M2	1	16	E4	release
490.196	n/a	RESPONSE	M2	1	07	G3	release
490.205	n/a	RESPONSE	M2	1	00	C3	release
490.236	n/a	RESPONSE	M2	1	17	F4	release
490.468	n/a	RESPONSE	M2	1	00	C3	press
490.47	n/a	RESPONSE	M2	1	07	G3	press
490.473	n/a	RESPONSE	M2	1	19	G4	press
491.115	n/a	RESPONSE	M2	1	19	G4	release
491.134	n/a	RESPONSE	M2	1	00	C3	release
491.298	n/a	RESPONSE	M2	1	07	G3	release
492.733	7.758	FIXCROSS	n/a	n/a	n/a	n/a	n/a
500.492	6.325	CUE_LISTEN	M2	2	n/a	n/a	n/a
506.817	7.758	FIXCROSS	n/a	n/a	n/a	n/a	n/a
514.575	6.317	CUE_PLAYBACK_BOTH_HANDS	M2	2	n/a	n/a	n/a
515.409	n/a	RESPONSE	M2	2	24	C5	press
515.417	n/a	RESPONSE	M2	2	00	C3	press
515.43	n/a	RESPONSE	M2	2	07	G3	press
515.918	n/a	RESPONSE	M2	2	19	G4	press
515.95	n/a	RESPONSE	M2	2	24	C5	release
516.035	n/a	RESPONSE	M2	2	00	C3	release
516.096	n/a	RESPONSE	M2	2	07	G3	release
516.103	n/a	RESPONSE	M2	2	19	G4	release
516.393	n/a	RESPONSE	M2	2	00	C3	press
516.395	n/a	RESPONSE	M2	2	19	G4	press
516.398	n/a	RESPONSE	M2	2	07	G3	press
516.883	n/a	RESPONSE	M2	2	17	F4	press
516.924	n/a	RESPONSE	M2	2	19	G4	release
517.055	n/a	RESPONSE	M2	2	00	C3	release
517.138	n/a	RESPONSE	M2	2	17	F4	release
517.36	n/a	RESPONSE	M2	2	16	E4	press
517.401	n/a	RESPONSE	M2	2	00	C3	press
517.85	n/a	RESPONSE	M2	2	14	D4	press
517.923	n/a	RESPONSE	M2	2	16	E4	release
517.993	n/a	RESPONSE	M2	2	00	C3	release
518.024	n/a	RESPONSE	M2	2	07	G3	release
518.076	n/a	RESPONSE	M2	2	14	D4	release
518.336	n/a	RESPONSE	M2	2	12	C4	press
518.339	n/a	RESPONSE	M2	2	00	C3	press
518.349	n/a	RESPONSE	M2	2	07	G3	press
519.26	n/a	RESPONSE	M2	2	00	C3	release
519.292	n/a	RESPONSE	M2	2	12	C4	release
519.373	n/a	RESPONSE	M2	2	07	G3	release
520.892	7.758	FIXCROSS	n/a	n/a	n/a	n/a	n/a
528.65	6.317	CUE_LISTEN	M2	1	n/a	n/a	n/a
534.967	7.758	FIXCROSS	n/a	n/a	n/a	n/a	n/a
542.725	6.325	CUE_PLAYBACK_BOTH_HANDS	M2	1	n/a	n/a	n/a
543.426	n/a	RESPONSE	M2	1	00	C3	press
543.439	n/a	RESPONSE	M2	1	07	G3	press
543.446	n/a	RESPONSE	M2	1	16	E4	press
543.898	n/a	RESPONSE	M2	1	19	G4	press
544.082	n/a	RESPONSE	M2	1	16	E4	release
544.179	n/a	RESPONSE	M2	1	19	G4	release
544.342	n/a	RESPONSE	M2	1	07	G3	release
544.4	n/a	RESPONSE	M2	1	00	C3	release
548.248	n/a	RESPONSE	M2	1	07	G3	press
548.26	n/a	RESPONSE	M2	1	00	C3	press
548.283	n/a	RESPONSE	M2	1	16	E4	press
548.792	n/a	RESPONSE	M2	1	16	E4	release
548.794	n/a	RESPONSE	M2	1	00	C3	release
548.954	n/a	RESPONSE	M2	1	07	G3	release
549.05	7.758	FIXCROSS	n/a	n/a	n/a	n/a	n/a
556.808	6.317	CUE_LISTEN	M2	2	n/a	n/a	n/a
563.125	7.758	FIXCROSS	n/a	n/a	n/a	n/a	n/a
570.884	6.317	CUE_PLAYBACK_BOTH_HANDS	M2	2	n/a	n/a	n/a
571.513	n/a	RESPONSE	M2	2	00	C3	press
571.515	n/a	RESPONSE	M2	2	16	E4	press
571.518	n/a	RESPONSE	M2	2	07	G3	press
571.978	n/a	RESPONSE	M2	2	19	G4	press
572.068	n/a	RESPONSE	M2	2	16	E4	release
572.13	n/a	RESPONSE	M2	2	00	C3	release
572.14	n/a	RESPONSE	M2	2	07	G3	release
572.231	n/a	RESPONSE	M2	2	19	G4	release
572.433	n/a	RESPONSE	M2	2	19	G4	press
572.435	n/a	RESPONSE	M2	2	00	C3	press
572.445	n/a	RESPONSE	M2	2	07	G3	press
572.886	n/a	RESPONSE	M2	2	19	G4	release
572.89	n/a	RESPONSE	M2	2	17	F4	press
573.033	n/a	RESPONSE	M2	2	00	C3	release
573.046	n/a	RESPONSE	M2	2	17	F4	release
573.066	n/a	RESPONSE	M2	2	07	G3	release
573.351	n/a	RESPONSE	M2	2	00	C3	press
573.356	n/a	RESPONSE	M2	2	16	E4	press
573.369	n/a	RESPONSE	M2	2	07	G3	press
573.824	n/a	RESPONSE	M2	2	14	D4	press
573.843	n/a	RESPONSE	M2	2	16	E4	release
573.939	n/a	RESPONSE	M2	2	00	C3	release
573.965	n/a	RESPONSE	M2	2	07	G3	release
574.033	n/a	RESPONSE	M2	2	14	D4	release
574.248	n/a	RESPONSE	M2	2	12	C4	press
574.256	n/a	RESPONSE	M2	2	07	G3	press
574.259	n/a	RESPONSE	M2	2	00	C3	press
575.04	n/a	RESPONSE	M2	2	12	C4	release
575.074	n/a	RESPONSE	M2	2	00	C3	release
575.098	n/a	RESPONSE	M2	2	07	G3	release
577.2	7.758	FIXCROSS	n/a	n/a	n/a	n/a	n/a
584.958	6.325	CUE_LISTEN	M1	1	n/a	n/a	n/a
591.284	7.758	FIXCROSS	n/a	n/a	n/a	n/a	n/a
599.042	6.317	CUE_PLAYBACK_RIGHT_HAND	M1	1	n/a	n/a	n/a
599.994	n/a	RESPONSE	M1	1	19	G4	press
600.435	n/a	RESPONSE	M1	1	19	G4	release
600.468	n/a	RESPONSE	M1	1	16	E4	press
600.77	n/a	RESPONSE	M1	1	16	E4	release
600.962	n/a	RESPONSE	M1	1	16	E4	press
601.313	n/a	RESPONSE	M1	1	16	E4	release
601.434	n/a	RESPONSE	M1	1	17	F4	press
601.795	n/a	RESPONSE	M1	1	17	F4	release
601.936	n/a	RESPONSE	M1	1	14	D4	press
602.208	n/a	RESPONSE	M1	1	14	D4	release
602.39	n/a	RESPONSE	M1	1	14	D4	press
602.78	n/a	RESPONSE	M1	1	14	D4	release
602.853	n/a	RESPONSE	M1	1	12	C4	press
603.18	n/a	RESPONSE	M1	1	16	E4	press
603.204	n/a	RESPONSE	M1	1	12	C4	release
603.416	n/a	RESPONSE	M1	1	19	G4	press
603.53	n/a	RESPONSE	M1	1	16	E4	release
604.335	n/a	RESPONSE	M1	1	19	G4	release
605.358	7.758	FIXCROSS	n/a	n/a	n/a	n/a	n/a
613.117	6.317	CUE_LISTEN	M1	2	n/a	n/a	n/a
619.434	7.758	FIXCROSS	n/a	n/a	n/a	n/a	n/a
627.192	6.325	CUE_PLAYBACK_RIGHT_HAND	M1	2	n/a	n/a	n/a
627.869	n/a	RESPONSE	M1	2	19	G4	press
628.29	n/a	RESPONSE	M1	2	19	G4	release
628.361	n/a	RESPONSE	M1	2	16	E4	press
628.793	n/a	RESPONSE	M1	2	16	E4	release
628.854	n/a	RESPONSE	M1	2	16	E4	press
629.205	n/a	RESPONSE	M1	2	16	E4	release
629.376	n/a	RESPONSE	M1	2	17	F4	press
629.798	n/a	RESPONSE	M1	2	17	F4	release
629.959	n/a	RESPONSE	M1	2	14	D4	press
630.33	n/a	RESPONSE	M1	2	14	D4	release
630.491	n/a	RESPONSE	M1	2	14	D4	press
630.854	n/a	RESPONSE	M1	2	14	D4	release
631.095	n/a	RESPONSE	M1	2	12	C4	press
631.396	n/a	RESPONSE	M1	2	12	C4	release
631.418	n/a	RESPONSE	M1	2	16	E4	press
631.749	n/a	RESPONSE	M1	2	16	E4	release
631.751	n/a	RESPONSE	M1	2	12	C4	press
632.201	n/a	RESPONSE	M1	2	12	C4	release
633.517	7.758	FIXCROSS	n/a	n/a	n/a	n/a	n/a
641.275	6.317	CUE_LISTEN	M3	1	n/a	n/a	n/a
647.592	7.758	FIXCROSS	n/a	n/a	n/a	n/a	n/a
655.35	6.325	CUE_PLAYBACK_RIGHT_HAND	M3	1	n/a	n/a	n/a
656.171	n/a	RESPONSE	M3	1	12	C4	press
656.644	n/a	RESPONSE	M3	1	14	D4	press
656.664	n/a	RESPONSE	M3	1	12	C4	release
657.143	n/a	RESPONSE	M3	1	16	E4	press
657.184	n/a	RESPONSE	M3	1	14	D4	release
657.655	n/a	RESPONSE	M3	1	16	E4	release
657.686	n/a	RESPONSE	M3	1	12	C4	press
658.088	n/a	RESPONSE	M3	1	12	C4	release
658.309	n/a	RESPONSE	M3	1	12	C4	press
658.81	n/a	RESPONSE	M3	1	12	C4	release
658.821	n/a	RESPONSE	M3	1	14	D4	press
659.353	n/a	RESPONSE	M3	1	16	E4	press
659.375	n/a	RESPONSE	M3	1	14	D4	release
659.915	n/a	RESPONSE	M3	1	16	E4	release
659.926	n/a	RESPONSE	M3	1	12	C4	press
660.549	n/a	RESPONSE	M3	1	12	C4	release
661.675	7.758	FIXCROSS	n/a	n/a	n/a	n/a	n/a
669.434	6.317	CUE_LISTEN	M3	2	n/a	n/a	n/a
675.75	7.758	FIXCROSS	n/a	n/a	n/a	n/a	n/a
683.509	6.317	CUE_PLAYBACK_RIGHT_HAND	M3	2	n/a	n/a	n/a
684.289	n/a	RESPONSE	M3	2	16	E4	press
684.748	n/a	RESPONSE	M3	2	16	E4	release
684.795	n/a	RESPONSE	M3	2	17	F4	press
685.255	n/a	RESPONSE	M3	2	17	F4	release
685.301	n/a	RESPONSE	M3	2	19	G4	press
685.88	n/a	RESPONSE	M3	2	19	G4	release
686.214	n/a	RESPONSE	M3	2	16	E4	press
686.659	n/a	RESPONSE	M3	2	16	E4	release
686.673	n/a	RESPONSE	M3	2	17	F4	press
687.139	n/a	RESPONSE	M3	2	19	G4	press
687.149	n/a	RESPONSE	M3	2	17	F4	release
687.88	n/a	RESPONSE	M3	2	19	G4	release
689.825	7.758	FIXCROSS	n/a	n/a	n/a	n/a	n/a
697.584	6.325	CUE_LISTEN	M3	1	n/a	n/a	n/a
703.909	7.758	FIXCROSS	n/a	n/a	n/a	n/a	n/a
711.667	6.317	CUE_PLAYBACK_RIGHT_HAND	M3	1	n/a	n/a	n/a
712.445	n/a	RESPONSE	M3	1	19	G4	press
712.786	n/a	RESPONSE	M3	1	21	A4	press
712.82	n/a	RESPONSE	M3	1	19	G4	release
713.121	n/a	RESPONSE	M3	1	19	G4	press
713.184	n/a	RESPONSE	M3	1	21	A4	release
713.463	n/a	RESPONSE	M3	1	17	F4	press
713.509	n/a	RESPONSE	M3	1	19	G4	release
713.81	n/a	RESPONSE	M3	1	17	F4	release
713.818	n/a	RESPONSE	M3	1	16	E4	press
714.551	n/a	RESPONSE	M3	1	12	C4	press
714.58	n/a	RESPONSE	M3	1	16	E4	release
714.894	n/a	RESPONSE	M3	1	12	C4	release
715.718	n/a	RESPONSE	M3	1	19	G4	press
716.074	n/a	RESPONSE	M3	1	21	A4	press
716.13	n/a	RESPONSE	M3	1	19	G4	release
716.376	n/a	RESPONSE	M3	1	19	G4	press
716.444	n/a	RESPONSE	M3	1	21	A4	release
716.73	n/a	RESPONSE	M3	1	17	F4	press
716.754	n/a	RESPONSE	M3	1	19	G4	release
717.075	n/a	RESPONSE	M3	1	16	E4	press
717.104	n/a	RESPONSE	M3	1	17	F4	release
717.535	n/a	RESPONSE	M3	1	16	E4	release
717.666	n/a	RESPONSE	M3	1	12	C4	press
717.984	7.758	FIXCROSS	n/a	n/a	n/a	n/a	n/a
718.208	n/a	RESPONSE	M3	1	12	C4	release
725.742	6.317	CUE_LISTEN	M3	2	n/a	n/a	n/a
732.059	7.758	FIXCROSS	n/a	n/a	n/a	n/a	n/a
739.817	6.325	CUE_PLAYBACK_RIGHT_HAND	M3	2	n/a	n/a	n/a
740.725	n/a	RESPONSE	M3	2	12	C4	press
741.249	n/a	RESPONSE	M3	2	12	C4	release
741.258	n/a	RESPONSE	M3	2	07	G3	press
741.709	n/a	RESPONSE	M3	2	07	G3	release
741.76	n/a	RESPONSE	M3	2	12	C4	press
742.394	n/a	RESPONSE	M3	2	12	C4	release
742.634	n/a	RESPONSE	M3	2	12	C4	press
743.084	n/a	RESPONSE	M3	2	12	C4	release
743.169	n/a	RESPONSE	M3	2	07	G3	press
743.583	n/a	RESPONSE	M3	2	07	G3	release
743.614	n/a	RESPONSE	M3	2	12	C4	press
744.234	n/a	RESPONSE	M3	2	12	C4	release
746.142	7.758	FIXCROSS	n/a	n/a	n/a	n/a	n/a
753.9	6.317	CUE_LISTEN	M1	1	n/a	n/a	n/a
760.217	7.758	FIXCROSS	n/a	n/a	n/a	n/a	n/a
767.976	6.317	CUE_PLAYBACK_BOTH_HANDS	M1	1	n/a	n/a	n/a
768.778	n/a	RESPONSE	M1	1	19	G4	press
768.781	n/a	RESPONSE	M1	1	07	G3	press
768.8	n/a	RESPONSE	M1	1	04	E3	press
768.811	n/a	RESPONSE	M1	1	00	C3	press
769.273	n/a	RESPONSE	M1	1	19	G4	release
769.284	n/a	RESPONSE	M1	1	16	E4	press
769.635	n/a	RESPONSE	M1	1	16	E4	release
769.799	n/a	RESPONSE	M1	1	16	E4	press
769.998	n/a	RESPONSE	M1	1	00	C3	release
770.021	n/a	RESPONSE	M1	1	16	E4	release
770.05	n/a	RESPONSE	M1	1	04	E3	release
770.111	n/a	RESPONSE	M1	1	07	G3	release
770.363	n/a	RESPONSE	M1	1	02	D3	press
770.374	n/a	RESPONSE	M1	1	17	F4	press
770.376	n/a	RESPONSE	M1	1	07	G3	press
770.386	n/a	RESPONSE	M1	1	05	F3	press
770.819	n/a	RESPONSE	M1	1	17	F4	release
770.911	n/a	RESPONSE	M1	1	14	D4	press
771.211	n/a	RESPONSE	M1	1	14	D4	release
771.403	n/a	RESPONSE	M1	1	14	D4	press
771.586	n/a	RESPONSE	M1	1	05	F3	release
771.605	n/a	RESPONSE	M1	1	02	D3	release
771.626	n/a	RESPONSE	M1	1	14	D4	release
771.638	n/a	RESPONSE	M1	1	07	G3	release
772.061	n/a	RESPONSE	M1	1	04	E3	press
772.07	n/a	RESPONSE	M1	1	07	G3	press
772.083	n/a	RESPONSE	M1	1	12	C4	press
772.085	n/a	RESPONSE	M1	1	00	C3	press
772.325	n/a	RESPONSE	M1	1	16	E4	press
772.426	n/a	RESPONSE	M1	1	12	C4	release
772.588	n/a	RESPONSE	M1	1	19	G4	press
772.639	n/a	RESPONSE	M1	1	16	E4	release
773.284	n/a	RESPONSE	M1	1	19	G4	release
773.34	n/a	RESPONSE	M1	1	00	C3	release
773.399	n/a	RESPONSE	M1	1	07	G3	release
773.564	n/a	RESPONSE	M1	1	04	E3	release
774.292	7.758	FIXCROSS	n/a	n/a	n/a	n/a	n/a
782.051	6.325	CUE_LISTEN	M1	2	n/a	n/a	n/a
788.376	7.758	FIXCROSS	n/a	n/a	n/a	n/a	n/a
796.134	6.316	CUE_PLAYBACK_BOTH_HANDS	M1	2	n/a	n/a	n/a
796.751	n/a	RESPONSE	M1	2	19	G4	press
796.761	n/a	RESPONSE	M1	2	07	G3	press
796.773	n/a	RESPONSE	M1	2	04	E3	press
796.775	n/a	RESPONSE	M1	2	00	C3	press
797.215	n/a	RESPONSE	M1	2	19	G4	release
797.246	n/a	RESPONSE	M1	2	16	E4	press
797.618	n/a	RESPONSE	M1	2	16	E4	release
797.749	n/a	RESPONSE	M1	2	16	E4	press
798.02	n/a	RESPONSE	M1	2	00	C3	release
798.054	n/a	RESPONSE	M1	2	16	E4	release
798.073	n/a	RESPONSE	M1	2	04	E3	release
798.154	n/a	RESPONSE	M1	2	07	G3	release
798.305	n/a	RESPONSE	M1	2	17	F4	press
798.316	n/a	RESPONSE	M1	2	02	D3	press
798.328	n/a	RESPONSE	M1	2	07	G3	press
798.33	n/a	RESPONSE	M1	2	05	F3	press
798.81	n/a	RESPONSE	M1	2	17	F4	release
798.851	n/a	RESPONSE	M1	2	14	D4	press
799.183	n/a	RESPONSE	M1	2	14	D4	release
799.344	n/a	RESPONSE	M1	2	14	D4	press
799.575	n/a	RESPONSE	M1	2	02	D3	release
799.598	n/a	RESPONSE	M1	2	05	F3	release
799.628	n/a	RESPONSE	M1	2	14	D4	release
799.649	n/a	RESPONSE	M1	2	07	G3	release
799.93	n/a	RESPONSE	M1	2	04	E3	press
799.934	n/a	RESPONSE	M1	2	07	G3	press
799.953	n/a	RESPONSE	M1	2	12	C4	press
800.216	n/a	RESPONSE	M1	2	16	E4	press
800.275	n/a	RESPONSE	M1	2	12	C4	release
800.446	n/a	RESPONSE	M1	2	12	C4	press
800.508	n/a	RESPONSE	M1	2	16	E4	release
801.07	n/a	RESPONSE	M1	2	12	C4	release
801.161	n/a	RESPONSE	M1	2	04	E3	release
801.223	n/a	RESPONSE	M1	2	07	G3	release
802.45	7.759	FIXCROSS	n/a	n/a	n/a	n/a	n/a
806.134	n/a	RESPONSE	M1	2	07	G3	press
806.25	n/a	RESPONSE	M1	2	07	G3	release
810.209	6.317	CUE_LISTEN	M2	1	n/a	n/a	n/a
816.526	7.758	FIXCROSS	n/a	n/a	n/a	n/a	n/a
824.284	6.325	CUE_PLAYBACK_RIGHT_HAND	M2	1	n/a	n/a	n/a
824.819	n/a	RESPONSE	M2	1	24	C5	press
825.308	n/a	RESPONSE	M2	1	19	G4	press
825.328	n/a	RESPONSE	M2	1	24	C5	release
825.586	n/a	RESPONSE	M2	1	19	G4	release
825.761	n/a	RESPONSE	M2	1	19	G4	press
826.232	n/a	RESPONSE	M2	1	17	F4	press
826.289	n/a	RESPONSE	M2	1	19	G4	release
826.724	n/a	RESPONSE	M2	1	16	E4	press
826.805	n/a	RESPONSE	M2	1	17	F4	release
827.136	n/a	RESPONSE	M2	1	17	F4	press
827.218	n/a	RESPONSE	M2	1	16	E4	release
827.63	n/a	RESPONSE	M2	1	19	G4	press
827.7	n/a	RESPONSE	M2	1	17	F4	release
828.391	n/a	RESPONSE	M2	1	19	G4	release
830.609	7.758	FIXCROSS	n/a	n/a	n/a	n/a	n/a
838.367	6.325	CUE_LISTEN	M2	2	n/a	n/a	n/a
844.692	7.758	FIXCROSS	n/a	n/a	n/a	n/a	n/a
852.451	6.317	CUE_PLAYBACK_RIGHT_HAND	M2	2	n/a	n/a	n/a
853.316	n/a	RESPONSE	M2	2	24	C5	press
853.833	n/a	RESPONSE	M2	2	19	G4	press
853.846	n/a	RESPONSE	M2	2	24	C5	release
854.149	n/a	RESPONSE	M2	2	19	G4	release
854.329	n/a	RESPONSE	M2	2	19	G4	press
854.826	n/a	RESPONSE	M2	2	17	F4	press
854.885	n/a	RESPONSE	M2	2	19	G4	release
855.314	n/a	RESPONSE	M2	2	16	E4	press
855.386	n/a	RESPONSE	M2	2	17	F4	release
855.804	n/a	RESPONSE	M2	2	14	D4	press
855.961	n/a	RESPONSE	M2	2	16	E4	release
856.404	n/a	RESPONSE	M2	2	12	C4	press
856.486	n/a	RESPONSE	M2	2	14	D4	release
857.228	n/a	RESPONSE	M2	2	12	C4	release
858.767	7.758	FIXCROSS	n/a	n/a	n/a	n/a	n/a
866.526	6.317	CUE_LISTEN	M2	1	n/a	n/a	n/a
872.842	7.758	FIXCROSS	n/a	n/a	n/a	n/a	n/a
880.601	6.317	CUE_PLAYBACK_RIGHT_HAND	M2	1	n/a	n/a	n/a
881.485	n/a	RESPONSE	M2	1	12	C4	press
881.956	n/a	RESPONSE	M2	1	14	D4	press
882.008	n/a	RESPONSE	M2	1	12	C4	release
882.439	n/a	RESPONSE	M2	1	16	E4	press
882.47	n/a	RESPONSE	M2	1	14	D4	release
882.981	n/a	RESPONSE	M2	1	14	D4	press
883.033	n/a	RESPONSE	M2	1	16	E4	release
883.425	n/a	RESPONSE	M2	1	16	E4	press
883.463	n/a	RESPONSE	M2	1	14	D4	release
883.928	n/a	RESPONSE	M2	1	17	F4	press
884.001	n/a	RESPONSE	M2	1	16	E4	release
884.454	n/a	RESPONSE	M2	1	19	G4	press
884.509	n/a	RESPONSE	M2	1	17	F4	release
885.249	n/a	RESPONSE	M2	1	19	G4	release
886.917	7.758	FIXCROSS	n/a	n/a	n/a	n/a	n/a
894.676	6.325	CUE_LISTEN	M2	2	n/a	n/a	n/a
901.001	7.759	FIXCROSS	n/a	n/a	n/a	n/a	n/a
908.759	45.936	CUE_PLAYBACK_RIGHT_HAND	M2	2	n/a	n/a	n/a
909.416	n/a	RESPONSE	M2	2	16	E4	press
909.898	n/a	RESPONSE	M2	2	19	G4	press
909.939	n/a	RESPONSE	M2	2	16	E4	release
910.27	n/a	RESPONSE	M2	2	19	G4	release
910.391	n/a	RESPONSE	M2	2	19	G4	press
910.894	n/a	RESPONSE	M2	2	17	F4	press
910.915	n/a	RESPONSE	M2	2	19	G4	release
911.378	n/a	RESPONSE	M2	2	16	E4	press
911.418	n/a	RESPONSE	M2	2	17	F4	release
911.889	n/a	RESPONSE	M2	2	14	D4	press
911.92	n/a	RESPONSE	M2	2	16	E4	release
912.391	n/a	RESPONSE	M2	2	14	D4	release
912.473	n/a	RESPONSE	M2	2	12	C4	press
913.211	n/a	RESPONSE	M2	2	12	C4	release
913.257	n/a	FIXCROSS	n/a	n/a	n/a	n/a	n/a
