onset	duration	trial_type	trial_number	stroop_condition	stim_text(PL)	stim_text(eng)	stim_color(PL)	stim_color(eng)	response_type	response_color
0.0	n/a	RESPONSE	n/a	n/a	n/a	n/a	n/a	n/a	n/a	n/a
0.0632	1.0333	ITI	n/a	n/a	n/a	n/a	n/a	n/a	n/a	n/a
1.0965	0.5167	FIXCROSS	n/a	n/a	n/a	n/a	n/a	n/a	n/a	n/a
1.6132	1.0833	T_INK	1	Incongruent	żółty	yellow	czerwony	red	hit	n/a
2.6714	n/a	RESPONSE	n/a	n/a	n/a	n/a	n/a	n/a	n/a	red
2.6966	0.5167	FEEDBACK	n/a	n/a	n/a	n/a	n/a	n/a	n/a	n/a
3.2132	1.0167	ITI	n/a	n/a	n/a	n/a	n/a	n/a	n/a	n/a
4.2299	0.5167	FIXCROSS	n/a	n/a	n/a	n/a	n/a	n/a	n/a	n/a
4.7466	0.9167	T_INK	2	Neutral	xxxxxxxxx	xxxxxxxxx	czerwony	red	hit	n/a
5.6306	n/a	RESPONSE	n/a	n/a	n/a	n/a	n/a	n/a	n/a	red
5.6633	0.5167	FEEDBACK	n/a	n/a	n/a	n/a	n/a	n/a	n/a	n/a
6.1799	1.0167	ITI	n/a	n/a	n/a	n/a	n/a	n/a	n/a	n/a
7.1966	0.5167	FIXCROSS	n/a	n/a	n/a	n/a	n/a	n/a	n/a	n/a
7.7133	0.55	T_INK	3	Neutral	xxxxxxx	xxxxxxx	czerwony	red	hit	n/a
8.238	n/a	RESPONSE	n/a	n/a	n/a	n/a	n/a	n/a	n/a	red
8.2633	0.5167	FEEDBACK	n/a	n/a	n/a	n/a	n/a	n/a	n/a	n/a
8.78	1.0167	ITI	n/a	n/a	n/a	n/a	n/a	n/a	n/a	n/a
9.7966	0.5167	FIXCROSS	n/a	n/a	n/a	n/a	n/a	n/a	n/a	n/a
10.3133	1.4167	T_INK	4	Incongruent	czerwony	red	niebieski	blue	hit	n/a
11.6932	n/a	RESPONSE	n/a	n/a	n/a	n/a	n/a	n/a	n/a	blue
11.73	0.5167	FEEDBACK	n/a	n/a	n/a	n/a	n/a	n/a	n/a	n/a
12.2467	1.0167	ITI	n/a	n/a	n/a	n/a	n/a	n/a	n/a	n/a
13.2633	0.5167	FIXCROSS	n/a	n/a	n/a	n/a	n/a	n/a	n/a	n/a
13.78	0.75	T_INK	5	Neutral	xxxxxxxx	xxxxxxxx	niebieski	blue	hit	n/a
14.5085	n/a	RESPONSE	n/a	n/a	n/a	n/a	n/a	n/a	n/a	blue
14.53	0.5167	FEEDBACK	n/a	n/a	n/a	n/a	n/a	n/a	n/a	n/a
15.0467	1.0167	ITI	n/a	n/a	n/a	n/a	n/a	n/a	n/a	n/a
16.0634	0.5167	FIXCROSS	n/a	n/a	n/a	n/a	n/a	n/a	n/a	n/a
16.5801	0.5833	T_INK	6	Neutral	xxxxxxxx	xxxxxxxx	żółty	yellow	hit	n/a
17.1319	n/a	RESPONSE	n/a	n/a	n/a	n/a	n/a	n/a	n/a	yellow
17.1634	0.5167	FEEDBACK	n/a	n/a	n/a	n/a	n/a	n/a	n/a	n/a
17.6801	1.0167	ITI	n/a	n/a	n/a	n/a	n/a	n/a	n/a	n/a
18.6968	0.5167	FIXCROSS	n/a	n/a	n/a	n/a	n/a	n/a	n/a	n/a
19.2134	0.8167	T_INK	7	Neutral	xxxxxxxxx	xxxxxxxxx	zielony	green	hit	n/a
19.9951	n/a	RESPONSE	n/a	n/a	n/a	n/a	n/a	n/a	n/a	green
20.0301	0.5167	FEEDBACK	n/a	n/a	n/a	n/a	n/a	n/a	n/a	n/a
20.5468	1.0167	ITI	n/a	n/a	n/a	n/a	n/a	n/a	n/a	n/a
21.5635	0.5167	FIXCROSS	n/a	n/a	n/a	n/a	n/a	n/a	n/a	n/a
22.0801	0.9333	T_INK	8	Incongruent	żółty	yellow	niebieski	blue	hit	n/a
22.9865	n/a	RESPONSE	n/a	n/a	n/a	n/a	n/a	n/a	n/a	blue
23.0135	0.5167	FEEDBACK	n/a	n/a	n/a	n/a	n/a	n/a	n/a	n/a
23.5301	1.0167	ITI	n/a	n/a	n/a	n/a	n/a	n/a	n/a	n/a
24.5468	0.5167	FIXCROSS	n/a	n/a	n/a	n/a	n/a	n/a	n/a	n/a
25.0635	0.8	T_INK	9	Incongruent	niebieski	blue	żółty	yellow	hit	n/a
25.8337	n/a	RESPONSE	n/a	n/a	n/a	n/a	n/a	n/a	n/a	yellow
25.8635	0.5167	FEEDBACK	n/a	n/a	n/a	n/a	n/a	n/a	n/a	n/a
26.3802	1.0167	ITI	n/a	n/a	n/a	n/a	n/a	n/a	n/a	n/a
27.3968	0.5167	FIXCROSS	n/a	n/a	n/a	n/a	n/a	n/a	n/a	n/a
27.9135	0.5	T_INK	10	Neutral	xxxxxxxxx	xxxxxxxxx	żółty	yellow	hit	n/a
28.3931	n/a	RESPONSE	n/a	n/a	n/a	n/a	n/a	n/a	n/a	yellow
28.4135	0.5167	FEEDBACK	n/a	n/a	n/a	n/a	n/a	n/a	n/a	n/a
28.9302	1.0167	ITI	n/a	n/a	n/a	n/a	n/a	n/a	n/a	n/a
29.9469	0.5167	FIXCROSS	n/a	n/a	n/a	n/a	n/a	n/a	n/a	n/a
30.4636	0.7333	T_INK	11	Incongruent	żółty	yellow	zielony	green	hit	n/a
31.1765	n/a	RESPONSE	n/a	n/a	n/a	n/a	n/a	n/a	n/a	green
31.1969	0.5167	FEEDBACK	n/a	n/a	n/a	n/a	n/a	n/a	n/a	n/a
31.7136	1.0167	ITI	n/a	n/a	n/a	n/a	n/a	n/a	n/a	n/a
32.7302	0.5167	FIXCROSS	n/a	n/a	n/a	n/a	n/a	n/a	n/a	n/a
33.2469	0.6333	T_INK	12	Neutral	xxxxx	xxxxx	niebieski	blue	hit	n/a
33.8478	n/a	RESPONSE	n/a	n/a	n/a	n/a	n/a	n/a	n/a	blue
33.8803	0.5167	FEEDBACK	n/a	n/a	n/a	n/a	n/a	n/a	n/a	n/a
34.3969	1.0333	ITI	n/a	n/a	n/a	n/a	n/a	n/a	n/a	n/a
38.1988	n/a	RESPONSE	n/a	n/a	n/a	n/a	n/a	n/a	n/a	n/a
38.2636	1.0167	ITI	n/a	n/a	n/a	n/a	n/a	n/a	n/a	n/a
39.2803	0.5167	FIXCROSS	n/a	n/a	n/a	n/a	n/a	n/a	n/a	n/a
39.797	0.9667	INK	1	Neutral	xxxxx	xxxxx	zielony	green	hit	n/a
40.7421	n/a	RESPONSE	n/a	n/a	n/a	n/a	n/a	n/a	n/a	green
40.7637	1.0167	ITI	n/a	n/a	n/a	n/a	n/a	n/a	n/a	n/a
41.7804	0.5167	FIXCROSS	n/a	n/a	n/a	n/a	n/a	n/a	n/a	n/a
42.297	0.4834	INK	2	Neutral	xxxxxxxxx	xxxxxxxxx	zielony	green	hit	n/a
42.7576	n/a	RESPONSE	n/a	n/a	n/a	n/a	n/a	n/a	n/a	green
42.7804	1.0167	ITI	n/a	n/a	n/a	n/a	n/a	n/a	n/a	n/a
43.797	0.5167	FIXCROSS	n/a	n/a	n/a	n/a	n/a	n/a	n/a	n/a
44.3137	0.7333	INK	3	Neutral	xxxxxxxx	xxxxxxxx	niebieski	blue	hit	n/a
45.0291	n/a	RESPONSE	n/a	n/a	n/a	n/a	n/a	n/a	n/a	blue
45.0471	1.0167	ITI	n/a	n/a	n/a	n/a	n/a	n/a	n/a	n/a
46.0637	0.5167	FIXCROSS	n/a	n/a	n/a	n/a	n/a	n/a	n/a	n/a
46.5804	0.7667	INK	4	Neutral	xxxxxxxx	xxxxxxxx	niebieski	blue	hit	n/a
47.3166	n/a	RESPONSE	n/a	n/a	n/a	n/a	n/a	n/a	n/a	blue
47.3471	1.0167	ITI	n/a	n/a	n/a	n/a	n/a	n/a	n/a	n/a
48.3638	0.5167	FIXCROSS	n/a	n/a	n/a	n/a	n/a	n/a	n/a	n/a
48.8804	1.2	INK	5	Incongruent	żółty	yellow	zielony	green	hit	n/a
50.0519	n/a	RESPONSE	n/a	n/a	n/a	n/a	n/a	n/a	n/a	green
50.0805	1.0167	ITI	n/a	n/a	n/a	n/a	n/a	n/a	n/a	n/a
51.0971	0.5167	FIXCROSS	n/a	n/a	n/a	n/a	n/a	n/a	n/a	n/a
51.6138	0.4333	INK	6	Neutral	xxxxxxxxx	xxxxxxxxx	zielony	green	hit	n/a
52.0194	n/a	RESPONSE	n/a	n/a	n/a	n/a	n/a	n/a	n/a	green
52.0471	1.0167	ITI	n/a	n/a	n/a	n/a	n/a	n/a	n/a	n/a
53.0638	0.5167	FIXCROSS	n/a	n/a	n/a	n/a	n/a	n/a	n/a	n/a
53.5805	0.5667	INK	7	Incongruent	żółty	yellow	zielony	green	hit	n/a
54.1149	n/a	RESPONSE	n/a	n/a	n/a	n/a	n/a	n/a	n/a	green
54.1472	1.0167	ITI	n/a	n/a	n/a	n/a	n/a	n/a	n/a	n/a
55.1638	0.5167	FIXCROSS	n/a	n/a	n/a	n/a	n/a	n/a	n/a	n/a
55.6805	0.75	INK	8	Incongruent	czerwony	red	niebieski	blue	hit	n/a
56.4024	n/a	RESPONSE	n/a	n/a	n/a	n/a	n/a	n/a	n/a	blue
56.4305	1.0167	ITI	n/a	n/a	n/a	n/a	n/a	n/a	n/a	n/a
57.4472	0.5167	FIXCROSS	n/a	n/a	n/a	n/a	n/a	n/a	n/a	n/a
57.9639	0.5833	INK	9	Neutral	xxxxxxxx	xxxxxxxx	zielony	green	hit	n/a
58.5298	n/a	RESPONSE	n/a	n/a	n/a	n/a	n/a	n/a	n/a	green
58.5472	1.0167	ITI	n/a	n/a	n/a	n/a	n/a	n/a	n/a	n/a
59.5639	0.5167	FIXCROSS	n/a	n/a	n/a	n/a	n/a	n/a	n/a	n/a
60.0806	0.5833	INK	10	Neutral	xxxxx	xxxxx	czerwony	red	hit	n/a
60.6413	n/a	RESPONSE	n/a	n/a	n/a	n/a	n/a	n/a	n/a	red
60.6639	1.0167	ITI	n/a	n/a	n/a	n/a	n/a	n/a	n/a	n/a
61.6806	0.5167	FIXCROSS	n/a	n/a	n/a	n/a	n/a	n/a	n/a	n/a
62.1973	0.7833	INK	11	Incongruent	czerwony	red	żółty	yellow	hit	n/a
62.9448	n/a	RESPONSE	n/a	n/a	n/a	n/a	n/a	n/a	n/a	yellow
62.9806	1.0167	ITI	n/a	n/a	n/a	n/a	n/a	n/a	n/a	n/a
63.9973	0.5167	FIXCROSS	n/a	n/a	n/a	n/a	n/a	n/a	n/a	n/a
64.514	0.8333	INK	12	Neutral	xxxxx	xxxxx	niebieski	blue	hit	n/a
65.3282	n/a	RESPONSE	n/a	n/a	n/a	n/a	n/a	n/a	n/a	blue
65.3473	1.0167	ITI	n/a	n/a	n/a	n/a	n/a	n/a	n/a	n/a
66.364	0.5167	FIXCROSS	n/a	n/a	n/a	n/a	n/a	n/a	n/a	n/a
66.8807	0.45	INK	13	Neutral	xxxxxxx	xxxxxxx	żółty	yellow	hit	n/a
67.3117	n/a	RESPONSE	n/a	n/a	n/a	n/a	n/a	n/a	n/a	yellow
67.3307	1.0167	ITI	n/a	n/a	n/a	n/a	n/a	n/a	n/a	n/a
68.3473	0.5167	FIXCROSS	n/a	n/a	n/a	n/a	n/a	n/a	n/a	n/a
68.864	0.8333	INK	14	Incongruent	zielony	green	niebieski	blue	hit	n/a
69.6791	n/a	RESPONSE	n/a	n/a	n/a	n/a	n/a	n/a	n/a	blue
69.6974	1.0167	ITI	n/a	n/a	n/a	n/a	n/a	n/a	n/a	n/a
70.714	0.5167	FIXCROSS	n/a	n/a	n/a	n/a	n/a	n/a	n/a	n/a
71.2307	0.8833	INK	15	Incongruent	niebieski	blue	czerwony	red	hit	n/a
72.0945	n/a	RESPONSE	n/a	n/a	n/a	n/a	n/a	n/a	n/a	red
72.114	1.0167	ITI	n/a	n/a	n/a	n/a	n/a	n/a	n/a	n/a
73.1307	0.5167	FIXCROSS	n/a	n/a	n/a	n/a	n/a	n/a	n/a	n/a
73.6474	0.65	INK	16	Incongruent	czerwony	red	niebieski	blue	hit	n/a
74.27	n/a	RESPONSE	n/a	n/a	n/a	n/a	n/a	n/a	n/a	blue
74.2974	1.0167	ITI	n/a	n/a	n/a	n/a	n/a	n/a	n/a	n/a
75.3141	0.5167	FIXCROSS	n/a	n/a	n/a	n/a	n/a	n/a	n/a	n/a
75.8308	0.7667	INK	17	Incongruent	niebieski	blue	zielony	green	hit	n/a
76.5735	n/a	RESPONSE	n/a	n/a	n/a	n/a	n/a	n/a	n/a	green
76.5974	1.0167	ITI	n/a	n/a	n/a	n/a	n/a	n/a	n/a	n/a
77.6141	0.5167	FIXCROSS	n/a	n/a	n/a	n/a	n/a	n/a	n/a	n/a
78.1308	0.4833	INK	18	Neutral	xxxxxxxxx	xxxxxxxxx	czerwony	red	hit	n/a
78.589	n/a	RESPONSE	n/a	n/a	n/a	n/a	n/a	n/a	n/a	red
78.6141	1.0167	ITI	n/a	n/a	n/a	n/a	n/a	n/a	n/a	n/a
79.6308	0.5167	FIXCROSS	n/a	n/a	n/a	n/a	n/a	n/a	n/a	n/a
80.1475	0.6167	INK	19	Neutral	xxxxxxx	xxxxxxx	niebieski	blue	hit	n/a
80.7325	n/a	RESPONSE	n/a	n/a	n/a	n/a	n/a	n/a	n/a	blue
80.7641	1.0167	ITI	n/a	n/a	n/a	n/a	n/a	n/a	n/a	n/a
81.7808	0.5167	FIXCROSS	n/a	n/a	n/a	n/a	n/a	n/a	n/a	n/a
82.2975	0.6167	INK	20	Incongruent	żółty	yellow	czerwony	red	hit	n/a
82.892	n/a	RESPONSE	n/a	n/a	n/a	n/a	n/a	n/a	n/a	red
82.9142	1.0167	ITI	n/a	n/a	n/a	n/a	n/a	n/a	n/a	n/a
83.9309	0.5167	FIXCROSS	n/a	n/a	n/a	n/a	n/a	n/a	n/a	n/a
84.4475	0.65	INK	21	Incongruent	niebieski	blue	żółty	yellow	hit	n/a
85.0674	n/a	RESPONSE	n/a	n/a	n/a	n/a	n/a	n/a	n/a	yellow
85.0975	1.0167	ITI	n/a	n/a	n/a	n/a	n/a	n/a	n/a	n/a
86.1142	0.5167	FIXCROSS	n/a	n/a	n/a	n/a	n/a	n/a	n/a	n/a
86.6309	0.6	INK	22	Neutral	xxxxx	xxxxx	zielony	green	hit	n/a
87.2109	n/a	RESPONSE	n/a	n/a	n/a	n/a	n/a	n/a	n/a	green
87.2109	n/a	RESPONSE	n/a	n/a	n/a	n/a	n/a	n/a	n/a	n/a
87.2309	1.0167	ITI	n/a	n/a	n/a	n/a	n/a	n/a	n/a	n/a
88.2476	0.5167	FIXCROSS	n/a	n/a	n/a	n/a	n/a	n/a	n/a	n/a
88.7642	0.8833	INK	23	Incongruent	żółty	yellow	niebieski	blue	incorrect	n/a
89.6263	n/a	RESPONSE	n/a	n/a	n/a	n/a	n/a	n/a	n/a	yellow
89.6476	1.0167	ITI	n/a	n/a	n/a	n/a	n/a	n/a	n/a	n/a
90.6643	0.5167	FIXCROSS	n/a	n/a	n/a	n/a	n/a	n/a	n/a	n/a
91.1809	0.6	INK	24	Neutral	xxxxx	xxxxx	niebieski	blue	hit	n/a
91.7538	n/a	RESPONSE	n/a	n/a	n/a	n/a	n/a	n/a	n/a	blue
91.7809	1.0167	ITI	n/a	n/a	n/a	n/a	n/a	n/a	n/a	n/a
92.7976	0.5167	FIXCROSS	n/a	n/a	n/a	n/a	n/a	n/a	n/a	n/a
93.3143	0.5333	INK	25	Neutral	xxxxxxxx	xxxxxxxx	żółty	yellow	hit	n/a
93.8173	n/a	RESPONSE	n/a	n/a	n/a	n/a	n/a	n/a	n/a	yellow
93.8476	1.0167	ITI	n/a	n/a	n/a	n/a	n/a	n/a	n/a	n/a
94.8643	0.5167	FIXCROSS	n/a	n/a	n/a	n/a	n/a	n/a	n/a	n/a
95.381	0.7	INK	26	Neutral	xxxxxxxxx	xxxxxxxxx	czerwony	red	hit	n/a
96.0568	n/a	RESPONSE	n/a	n/a	n/a	n/a	n/a	n/a	n/a	red
96.081	1.0167	ITI	n/a	n/a	n/a	n/a	n/a	n/a	n/a	n/a
97.0977	0.5167	FIXCROSS	n/a	n/a	n/a	n/a	n/a	n/a	n/a	n/a
97.6143	1.8167	INK	27	Incongruent	zielony	green	czerwony	red	incorrect	n/a
99.3999	n/a	RESPONSE	n/a	n/a	n/a	n/a	n/a	n/a	n/a	blue
99.431	1.0167	ITI	n/a	n/a	n/a	n/a	n/a	n/a	n/a	n/a
100.4477	0.5167	FIXCROSS	n/a	n/a	n/a	n/a	n/a	n/a	n/a	n/a
100.9644	0.6333	INK	28	Incongruent	zielony	green	żółty	yellow	hit	n/a
101.5754	n/a	RESPONSE	n/a	n/a	n/a	n/a	n/a	n/a	n/a	yellow
101.5977	1.0167	ITI	n/a	n/a	n/a	n/a	n/a	n/a	n/a	n/a
102.6144	0.5167	FIXCROSS	n/a	n/a	n/a	n/a	n/a	n/a	n/a	n/a
103.1311	0.9167	INK	29	Incongruent	czerwony	red	zielony	green	hit	n/a
104.0228	n/a	RESPONSE	n/a	n/a	n/a	n/a	n/a	n/a	n/a	green
104.0478	1.0167	ITI	n/a	n/a	n/a	n/a	n/a	n/a	n/a	n/a
105.0644	0.5167	FIXCROSS	n/a	n/a	n/a	n/a	n/a	n/a	n/a	n/a
105.5811	0.6167	INK	30	Incongruent	zielony	green	żółty	yellow	hit	n/a
106.1663	n/a	RESPONSE	n/a	n/a	n/a	n/a	n/a	n/a	n/a	yellow
106.1978	1.0167	ITI	n/a	n/a	n/a	n/a	n/a	n/a	n/a	n/a
107.2145	0.5167	FIXCROSS	n/a	n/a	n/a	n/a	n/a	n/a	n/a	n/a
107.7311	0.4833	INK	31	Neutral	xxxxxxx	xxxxxxx	czerwony	red	hit	n/a
108.1818	n/a	RESPONSE	n/a	n/a	n/a	n/a	n/a	n/a	n/a	red
108.2145	1.0167	ITI	n/a	n/a	n/a	n/a	n/a	n/a	n/a	n/a
109.2311	0.5167	FIXCROSS	n/a	n/a	n/a	n/a	n/a	n/a	n/a	n/a
109.7478	0.5167	INK	32	Neutral	xxxxx	xxxxx	czerwony	red	hit	n/a
110.2454	n/a	RESPONSE	n/a	n/a	n/a	n/a	n/a	n/a	n/a	red
110.2645	1.0167	ITI	n/a	n/a	n/a	n/a	n/a	n/a	n/a	n/a
111.2812	0.5167	FIXCROSS	n/a	n/a	n/a	n/a	n/a	n/a	n/a	n/a
111.7978	1.1	INK	33	Incongruent	żółty	yellow	niebieski	blue	hit	n/a
112.8687	n/a	RESPONSE	n/a	n/a	n/a	n/a	n/a	n/a	n/a	blue
112.8979	1.0167	ITI	n/a	n/a	n/a	n/a	n/a	n/a	n/a	n/a
113.9145	0.5167	FIXCROSS	n/a	n/a	n/a	n/a	n/a	n/a	n/a	n/a
114.4312	0.75	INK	34	Incongruent	żółty	yellow	czerwony	red	hit	n/a
115.1562	n/a	RESPONSE	n/a	n/a	n/a	n/a	n/a	n/a	n/a	red
115.1812	1.0167	ITI	n/a	n/a	n/a	n/a	n/a	n/a	n/a	n/a
116.1979	0.5167	FIXCROSS	n/a	n/a	n/a	n/a	n/a	n/a	n/a	n/a
116.7146	0.6167	INK	35	Neutral	xxxxx	xxxxx	niebieski	blue	hit	n/a
117.2996	n/a	RESPONSE	n/a	n/a	n/a	n/a	n/a	n/a	n/a	blue
117.3313	1.0167	ITI	n/a	n/a	n/a	n/a	n/a	n/a	n/a	n/a
118.3479	0.5167	FIXCROSS	n/a	n/a	n/a	n/a	n/a	n/a	n/a	n/a
118.8646	0.75	INK	36	Incongruent	żółty	yellow	czerwony	red	hit	n/a
119.5871	n/a	RESPONSE	n/a	n/a	n/a	n/a	n/a	n/a	n/a	red
119.6146	1.0167	ITI	n/a	n/a	n/a	n/a	n/a	n/a	n/a	n/a
120.6313	0.5167	FIXCROSS	n/a	n/a	n/a	n/a	n/a	n/a	n/a	n/a
121.148	0.5333	INK	37	Neutral	xxxxxxxxx	xxxxxxxxx	żółty	yellow	hit	n/a
121.6506	n/a	RESPONSE	n/a	n/a	n/a	n/a	n/a	n/a	n/a	yellow
121.6813	1.0167	ITI	n/a	n/a	n/a	n/a	n/a	n/a	n/a	n/a
122.698	0.5167	FIXCROSS	n/a	n/a	n/a	n/a	n/a	n/a	n/a	n/a
123.2146	0.5833	INK	38	Neutral	xxxxxxx	xxxxxxx	niebieski	blue	hit	n/a
123.7781	n/a	RESPONSE	n/a	n/a	n/a	n/a	n/a	n/a	n/a	blue
123.798	1.0167	ITI	n/a	n/a	n/a	n/a	n/a	n/a	n/a	n/a
124.8147	0.5167	FIXCROSS	n/a	n/a	n/a	n/a	n/a	n/a	n/a	n/a
125.3313	0.8166	INK	39	Incongruent	niebieski	blue	czerwony	red	hit	n/a
126.1135	n/a	RESPONSE	n/a	n/a	n/a	n/a	n/a	n/a	n/a	red
126.148	1.0167	ITI	n/a	n/a	n/a	n/a	n/a	n/a	n/a	n/a
127.1647	0.5167	FIXCROSS	n/a	n/a	n/a	n/a	n/a	n/a	n/a	n/a
127.6814	0.9334	INK	40	Incongruent	czerwony	red	żółty	yellow	hit	n/a
128.5929	n/a	RESPONSE	n/a	n/a	n/a	n/a	n/a	n/a	n/a	yellow
128.6147	1.0167	ITI	n/a	n/a	n/a	n/a	n/a	n/a	n/a	n/a
129.6314	0.5167	FIXCROSS	n/a	n/a	n/a	n/a	n/a	n/a	n/a	n/a
130.1481	1.1667	INK	41	Incongruent	zielony	green	czerwony	red	hit	n/a
131.2803	n/a	RESPONSE	n/a	n/a	n/a	n/a	n/a	n/a	n/a	red
131.3147	1.0167	ITI	n/a	n/a	n/a	n/a	n/a	n/a	n/a	n/a
132.3314	0.5166	FIXCROSS	n/a	n/a	n/a	n/a	n/a	n/a	n/a	n/a
132.8481	0.6667	INK	42	Incongruent	niebieski	blue	żółty	yellow	hit	n/a
133.4877	n/a	RESPONSE	n/a	n/a	n/a	n/a	n/a	n/a	n/a	yellow
133.5148	1.0167	ITI	n/a	n/a	n/a	n/a	n/a	n/a	n/a	n/a
134.5314	0.5167	FIXCROSS	n/a	n/a	n/a	n/a	n/a	n/a	n/a	n/a
135.0481	0.8333	INK	43	Neutral	xxxxx	xxxxx	zielony	green	hit	n/a
135.8552	n/a	RESPONSE	n/a	n/a	n/a	n/a	n/a	n/a	n/a	green
135.8815	1.0167	ITI	n/a	n/a	n/a	n/a	n/a	n/a	n/a	n/a
136.8981	0.5167	FIXCROSS	n/a	n/a	n/a	n/a	n/a	n/a	n/a	n/a
137.4148	0.6167	INK	44	Neutral	xxxxxxx	xxxxxxx	niebieski	blue	hit	n/a
137.9986	n/a	RESPONSE	n/a	n/a	n/a	n/a	n/a	n/a	n/a	blue
138.0315	1.0167	ITI	n/a	n/a	n/a	n/a	n/a	n/a	n/a	n/a
139.0482	0.5167	FIXCROSS	n/a	n/a	n/a	n/a	n/a	n/a	n/a	n/a
139.5648	0.4167	INK	45	Neutral	xxxxxxx	xxxxxxx	żółty	yellow	hit	n/a
139.9502	n/a	RESPONSE	n/a	n/a	n/a	n/a	n/a	n/a	n/a	yellow
139.9815	1.0167	ITI	n/a	n/a	n/a	n/a	n/a	n/a	n/a	n/a
140.9982	0.5167	FIXCROSS	n/a	n/a	n/a	n/a	n/a	n/a	n/a	n/a
141.5149	0.3667	INK	46	Neutral	xxxxxxxxx	xxxxxxxxx	żółty	yellow	hit	n/a
141.8537	n/a	RESPONSE	n/a	n/a	n/a	n/a	n/a	n/a	n/a	yellow
141.8815	1.0167	ITI	n/a	n/a	n/a	n/a	n/a	n/a	n/a	n/a
142.8982	0.5167	FIXCROSS	n/a	n/a	n/a	n/a	n/a	n/a	n/a	n/a
143.4149	1.0667	INK	47	Incongruent	zielony	green	niebieski	blue	hit	n/a
144.4611	n/a	RESPONSE	n/a	n/a	n/a	n/a	n/a	n/a	n/a	blue
144.4816	1.0167	ITI	n/a	n/a	n/a	n/a	n/a	n/a	n/a	n/a
145.4982	0.5167	FIXCROSS	n/a	n/a	n/a	n/a	n/a	n/a	n/a	n/a
146.0149	0.9	INK	48	Incongruent	niebieski	blue	zielony	green	hit	n/a
146.8925	n/a	RESPONSE	n/a	n/a	n/a	n/a	n/a	n/a	n/a	green
146.9149	1.0167	ITI	n/a	n/a	n/a	n/a	n/a	n/a	n/a	n/a
147.9316	0.5167	FIXCROSS	n/a	n/a	n/a	n/a	n/a	n/a	n/a	n/a
148.4483	0.4667	INK	49	Neutral	xxxxxxxx	xxxxxxxx	żółty	yellow	hit	n/a
148.892	n/a	RESPONSE	n/a	n/a	n/a	n/a	n/a	n/a	n/a	yellow
148.9149	1.0167	ITI	n/a	n/a	n/a	n/a	n/a	n/a	n/a	n/a
149.9316	0.5167	FIXCROSS	n/a	n/a	n/a	n/a	n/a	n/a	n/a	n/a
150.4483	0.75	INK	50	Neutral	xxxxx	xxxxx	czerwony	red	hit	n/a
151.1794	n/a	RESPONSE	n/a	n/a	n/a	n/a	n/a	n/a	n/a	red
151.1983	1.0167	ITI	n/a	n/a	n/a	n/a	n/a	n/a	n/a	n/a
152.215	0.5167	FIXCROSS	n/a	n/a	n/a	n/a	n/a	n/a	n/a	n/a
152.7317	0.4833	INK	51	Incongruent	niebieski	blue	żółty	yellow	hit	n/a
153.195	n/a	RESPONSE	n/a	n/a	n/a	n/a	n/a	n/a	n/a	yellow
153.215	1.0167	ITI	n/a	n/a	n/a	n/a	n/a	n/a	n/a	n/a
154.2317	0.5167	FIXCROSS	n/a	n/a	n/a	n/a	n/a	n/a	n/a	n/a
154.7483	0.4	INK	52	Neutral	xxxxxxxx	xxxxxxxx	zielony	green	hit	n/a
155.1305	n/a	RESPONSE	n/a	n/a	n/a	n/a	n/a	n/a	n/a	green
155.1483	1.0167	ITI	n/a	n/a	n/a	n/a	n/a	n/a	n/a	n/a
156.165	0.5167	FIXCROSS	n/a	n/a	n/a	n/a	n/a	n/a	n/a	n/a
156.6817	0.65	INK	53	Neutral	xxxxxxxxx	xxxxxxxxx	czerwony	red	hit	n/a
157.306	n/a	RESPONSE	n/a	n/a	n/a	n/a	n/a	n/a	n/a	red
157.3317	1.0167	ITI	n/a	n/a	n/a	n/a	n/a	n/a	n/a	n/a
158.3484	0.5167	FIXCROSS	n/a	n/a	n/a	n/a	n/a	n/a	n/a	n/a
158.8651	1.4	INK	54	Incongruent	zielony	green	czerwony	red	hit	n/a
160.2333	n/a	RESPONSE	n/a	n/a	n/a	n/a	n/a	n/a	n/a	red
160.2651	1.0167	ITI	n/a	n/a	n/a	n/a	n/a	n/a	n/a	n/a
161.2818	0.5167	FIXCROSS	n/a	n/a	n/a	n/a	n/a	n/a	n/a	n/a
161.7984	0.3	INK	55	Neutral	xxxxxxxxx	xxxxxxxxx	żółty	yellow	hit	n/a
162.0728	n/a	RESPONSE	n/a	n/a	n/a	n/a	n/a	n/a	n/a	yellow
162.0984	1.0167	ITI	n/a	n/a	n/a	n/a	n/a	n/a	n/a	n/a
163.1151	0.5167	FIXCROSS	n/a	n/a	n/a	n/a	n/a	n/a	n/a	n/a
163.6318	0.55	INK	56	Incongruent	niebieski	blue	czerwony	red	hit	n/a
164.1523	n/a	RESPONSE	n/a	n/a	n/a	n/a	n/a	n/a	n/a	red
164.1818	1.0167	ITI	n/a	n/a	n/a	n/a	n/a	n/a	n/a	n/a
165.1985	0.5167	FIXCROSS	n/a	n/a	n/a	n/a	n/a	n/a	n/a	n/a
165.7151	0.4333	INK	57	Neutral	xxxxxxxxx	xxxxxxxxx	zielony	green	incorrect	n/a
166.1198	n/a	RESPONSE	n/a	n/a	n/a	n/a	n/a	n/a	n/a	yellow
166.1485	1.0167	ITI	n/a	n/a	n/a	n/a	n/a	n/a	n/a	n/a
167.1652	0.5167	FIXCROSS	n/a	n/a	n/a	n/a	n/a	n/a	n/a	n/a
167.6818	0.4667	INK	58	Incongruent	żółty	yellow	zielony	green	hit	n/a
168.1194	n/a	RESPONSE	n/a	n/a	n/a	n/a	n/a	n/a	n/a	green
168.1485	1.0167	ITI	n/a	n/a	n/a	n/a	n/a	n/a	n/a	n/a
169.1652	0.5167	FIXCROSS	n/a	n/a	n/a	n/a	n/a	n/a	n/a	n/a
169.6819	0.35	INK	59	Neutral	xxxxxxx	xxxxxxx	żółty	yellow	hit	n/a
170.0069	n/a	RESPONSE	n/a	n/a	n/a	n/a	n/a	n/a	n/a	yellow
170.0319	1.0167	ITI	n/a	n/a	n/a	n/a	n/a	n/a	n/a	n/a
171.0485	0.5167	FIXCROSS	n/a	n/a	n/a	n/a	n/a	n/a	n/a	n/a
171.5652	0.7167	INK	60	Incongruent	czerwony	red	niebieski	blue	hit	n/a
172.2463	n/a	RESPONSE	n/a	n/a	n/a	n/a	n/a	n/a	n/a	blue
172.2819	1.0167	ITI	n/a	n/a	n/a	n/a	n/a	n/a	n/a	n/a
173.2986	0.5167	FIXCROSS	n/a	n/a	n/a	n/a	n/a	n/a	n/a	n/a
173.8152	0.4	INK	61	Incongruent	czerwony	red	żółty	yellow	hit	n/a
174.1819	n/a	RESPONSE	n/a	n/a	n/a	n/a	n/a	n/a	n/a	yellow
174.2152	1.0167	ITI	n/a	n/a	n/a	n/a	n/a	n/a	n/a	n/a
175.2319	0.5167	FIXCROSS	n/a	n/a	n/a	n/a	n/a	n/a	n/a	n/a
175.7486	0.5	INK	62	Neutral	xxxxxxxx	xxxxxxxx	żółty	yellow	hit	n/a
176.2294	n/a	RESPONSE	n/a	n/a	n/a	n/a	n/a	n/a	n/a	yellow
176.2486	1.0167	ITI	n/a	n/a	n/a	n/a	n/a	n/a	n/a	n/a
177.2653	0.5167	FIXCROSS	n/a	n/a	n/a	n/a	n/a	n/a	n/a	n/a
177.7819	0.8833	INK	63	Incongruent	zielony	green	niebieski	blue	hit	n/a
178.6449	n/a	RESPONSE	n/a	n/a	n/a	n/a	n/a	n/a	n/a	blue
178.6653	1.0167	ITI	n/a	n/a	n/a	n/a	n/a	n/a	n/a	n/a
179.682	0.5167	FIXCROSS	n/a	n/a	n/a	n/a	n/a	n/a	n/a	n/a
180.1986	0.7667	INK	64	Incongruent	niebieski	blue	zielony	green	hit	n/a
180.9323	n/a	RESPONSE	n/a	n/a	n/a	n/a	n/a	n/a	n/a	green
180.9653	1.0167	ITI	n/a	n/a	n/a	n/a	n/a	n/a	n/a	n/a
181.982	0.5167	FIXCROSS	n/a	n/a	n/a	n/a	n/a	n/a	n/a	n/a
182.4987	0.9167	INK	65	Incongruent	żółty	yellow	niebieski	blue	hit	n/a
183.3957	n/a	RESPONSE	n/a	n/a	n/a	n/a	n/a	n/a	n/a	blue
183.4153	1.0167	ITI	n/a	n/a	n/a	n/a	n/a	n/a	n/a	n/a
184.432	0.5167	FIXCROSS	n/a	n/a	n/a	n/a	n/a	n/a	n/a	n/a
184.9487	1.0667	INK	66	Incongruent	czerwony	red	zielony	green	hit	n/a
185.987	n/a	RESPONSE	n/a	n/a	n/a	n/a	n/a	n/a	n/a	green
186.0154	1.0167	ITI	n/a	n/a	n/a	n/a	n/a	n/a	n/a	n/a
187.0321	0.5167	FIXCROSS	n/a	n/a	n/a	n/a	n/a	n/a	n/a	n/a
187.5487	0.5833	INK	67	Incongruent	czerwony	red	zielony	green	hit	n/a
188.0985	n/a	RESPONSE	n/a	n/a	n/a	n/a	n/a	n/a	n/a	green
188.1321	1.0167	ITI	n/a	n/a	n/a	n/a	n/a	n/a	n/a	n/a
189.1487	0.5167	FIXCROSS	n/a	n/a	n/a	n/a	n/a	n/a	n/a	n/a
189.6654	0.5833	INK	68	Neutral	xxxxxxx	xxxxxxx	czerwony	red	hit	n/a
190.226	n/a	RESPONSE	n/a	n/a	n/a	n/a	n/a	n/a	n/a	red
190.2488	1.0167	ITI	n/a	n/a	n/a	n/a	n/a	n/a	n/a	n/a
191.2654	0.5167	FIXCROSS	n/a	n/a	n/a	n/a	n/a	n/a	n/a	n/a
191.7821	0.6833	INK	69	Neutral	xxxxxxxx	xxxxxxxx	niebieski	blue	hit	n/a
192.4335	n/a	RESPONSE	n/a	n/a	n/a	n/a	n/a	n/a	n/a	blue
192.4654	1.0167	ITI	n/a	n/a	n/a	n/a	n/a	n/a	n/a	n/a
193.4821	0.5167	FIXCROSS	n/a	n/a	n/a	n/a	n/a	n/a	n/a	n/a
193.9988	0.7333	INK	70	Neutral	xxxxxxx	xxxxxxx	czerwony	red	hit	n/a
194.7049	n/a	RESPONSE	n/a	n/a	n/a	n/a	n/a	n/a	n/a	red
194.7321	1.0167	ITI	n/a	n/a	n/a	n/a	n/a	n/a	n/a	n/a
195.7488	0.5167	FIXCROSS	n/a	n/a	n/a	n/a	n/a	n/a	n/a	n/a
196.2655	0.4833	INK	71	Incongruent	zielony	green	żółty	yellow	hit	n/a
196.7204	n/a	RESPONSE	n/a	n/a	n/a	n/a	n/a	n/a	n/a	yellow
196.7488	1.0167	ITI	n/a	n/a	n/a	n/a	n/a	n/a	n/a	n/a
197.7655	0.5167	FIXCROSS	n/a	n/a	n/a	n/a	n/a	n/a	n/a	n/a
198.2822	0.5833	INK	72	Neutral	xxxxxxxx	xxxxxxxx	zielony	green	hit	n/a
198.8479	n/a	RESPONSE	n/a	n/a	n/a	n/a	n/a	n/a	n/a	green
198.8655	1.0833	ITI	n/a	n/a	n/a	n/a	n/a	n/a	n/a	n/a
221.6264	n/a	RESPONSE	n/a	n/a	n/a	n/a	n/a	n/a	n/a	n/a
221.6824	1.0167	ITI	n/a	n/a	n/a	n/a	n/a	n/a	n/a	n/a
222.6991	0.5167	FIXCROSS	n/a	n/a	n/a	n/a	n/a	n/a	n/a	n/a
223.2158	0.5833	T_COLOR_NAME	1	Incongruent	czerwony	red	niebieski	blue	hit	n/a
223.7699	n/a	RESPONSE	n/a	n/a	n/a	n/a	n/a	n/a	n/a	red
223.7991	0.5167	FEEDBACK	n/a	n/a	n/a	n/a	n/a	n/a	n/a	n/a
224.3158	1.0167	ITI	n/a	n/a	n/a	n/a	n/a	n/a	n/a	n/a
225.3325	0.5167	FIXCROSS	n/a	n/a	n/a	n/a	n/a	n/a	n/a	n/a
225.8492	0.8167	T_COLOR_NAME	2	Neutral	żółty	yellow	Neutral	Neutral	hit	n/a
226.6332	n/a	RESPONSE	n/a	n/a	n/a	n/a	n/a	n/a	n/a	yellow
226.6658	0.5167	FEEDBACK	n/a	n/a	n/a	n/a	n/a	n/a	n/a	n/a
227.1825	1.0167	ITI	n/a	n/a	n/a	n/a	n/a	n/a	n/a	n/a
228.1992	0.5167	FIXCROSS	n/a	n/a	n/a	n/a	n/a	n/a	n/a	n/a
228.7159	0.7167	T_COLOR_NAME	3	Neutral	czerwony	red	Neutral	Neutral	hit	n/a
229.4005	n/a	RESPONSE	n/a	n/a	n/a	n/a	n/a	n/a	n/a	red
229.4325	0.5167	FEEDBACK	n/a	n/a	n/a	n/a	n/a	n/a	n/a	n/a
229.9492	1.0167	ITI	n/a	n/a	n/a	n/a	n/a	n/a	n/a	n/a
230.9659	0.5167	FIXCROSS	n/a	n/a	n/a	n/a	n/a	n/a	n/a	n/a
231.4826	1.0667	T_COLOR_NAME	4	Incongruent	żółty	yellow	czerwony	red	hit	n/a
232.5198	n/a	RESPONSE	n/a	n/a	n/a	n/a	n/a	n/a	n/a	yellow
232.5492	0.5167	FEEDBACK	n/a	n/a	n/a	n/a	n/a	n/a	n/a	n/a
233.0659	1.0167	ITI	n/a	n/a	n/a	n/a	n/a	n/a	n/a	n/a
234.0826	0.5167	FIXCROSS	n/a	n/a	n/a	n/a	n/a	n/a	n/a	n/a
234.5993	1.5834	T_COLOR_NAME	5	Incongruent	żółty	yellow	niebieski	blue	hit	n/a
236.1509	n/a	RESPONSE	n/a	n/a	n/a	n/a	n/a	n/a	n/a	yellow
236.1826	0.5167	FEEDBACK	n/a	n/a	n/a	n/a	n/a	n/a	n/a	n/a
236.6993	1.0167	ITI	n/a	n/a	n/a	n/a	n/a	n/a	n/a	n/a
237.716	0.5167	FIXCROSS	n/a	n/a	n/a	n/a	n/a	n/a	n/a	n/a
238.2326	0.75	T_COLOR_NAME	6	Neutral	niebieski	blue	Neutral	Neutral	hit	n/a
238.9502	n/a	RESPONSE	n/a	n/a	n/a	n/a	n/a	n/a	n/a	blue
238.9827	0.5167	FEEDBACK	n/a	n/a	n/a	n/a	n/a	n/a	n/a	n/a
239.4993	1.0167	ITI	n/a	n/a	n/a	n/a	n/a	n/a	n/a	n/a
240.516	0.5167	FIXCROSS	n/a	n/a	n/a	n/a	n/a	n/a	n/a	n/a
241.0327	0.8	T_COLOR_NAME	7	Incongruent	niebieski	blue	żółty	yellow	hit	n/a
241.8135	n/a	RESPONSE	n/a	n/a	n/a	n/a	n/a	n/a	n/a	blue
241.8327	0.5167	FEEDBACK	n/a	n/a	n/a	n/a	n/a	n/a	n/a	n/a
242.3494	1.0167	ITI	n/a	n/a	n/a	n/a	n/a	n/a	n/a	n/a
243.366	0.5167	FIXCROSS	n/a	n/a	n/a	n/a	n/a	n/a	n/a	n/a
243.8827	0.65	T_COLOR_NAME	8	Neutral	niebieski	blue	Neutral	Neutral	hit	n/a
244.5009	n/a	RESPONSE	n/a	n/a	n/a	n/a	n/a	n/a	n/a	blue
244.5327	0.5167	FEEDBACK	n/a	n/a	n/a	n/a	n/a	n/a	n/a	n/a
245.0494	1.0167	ITI	n/a	n/a	n/a	n/a	n/a	n/a	n/a	n/a
246.0661	0.5167	FIXCROSS	n/a	n/a	n/a	n/a	n/a	n/a	n/a	n/a
246.5827	0.6167	T_COLOR_NAME	9	Neutral	zielony	green	Neutral	Neutral	hit	n/a
247.1722	n/a	RESPONSE	n/a	n/a	n/a	n/a	n/a	n/a	n/a	green
247.1994	0.5167	FEEDBACK	n/a	n/a	n/a	n/a	n/a	n/a	n/a	n/a
247.7161	1.0167	ITI	n/a	n/a	n/a	n/a	n/a	n/a	n/a	n/a
248.7328	0.5167	FIXCROSS	n/a	n/a	n/a	n/a	n/a	n/a	n/a	n/a
249.2494	0.5167	T_COLOR_NAME	10	Neutral	niebieski	blue	Neutral	Neutral	hit	n/a
249.7316	n/a	RESPONSE	n/a	n/a	n/a	n/a	n/a	n/a	n/a	blue
249.7661	0.5167	FEEDBACK	n/a	n/a	n/a	n/a	n/a	n/a	n/a	n/a
250.2828	1.0167	ITI	n/a	n/a	n/a	n/a	n/a	n/a	n/a	n/a
251.2995	0.5167	FIXCROSS	n/a	n/a	n/a	n/a	n/a	n/a	n/a	n/a
251.8161	0.7833	T_COLOR_NAME	11	Neutral	czerwony	red	Neutral	Neutral	hit	n/a
252.5789	n/a	RESPONSE	n/a	n/a	n/a	n/a	n/a	n/a	n/a	red
252.5995	0.5167	FEEDBACK	n/a	n/a	n/a	n/a	n/a	n/a	n/a	n/a
253.1161	1.0167	ITI	n/a	n/a	n/a	n/a	n/a	n/a	n/a	n/a
254.1328	0.5167	FIXCROSS	n/a	n/a	n/a	n/a	n/a	n/a	n/a	n/a
254.6495	0.6333	T_COLOR_NAME	12	Incongruent	żółty	yellow	zielony	green	hit	n/a
255.2503	n/a	RESPONSE	n/a	n/a	n/a	n/a	n/a	n/a	n/a	yellow
255.2828	0.5167	FEEDBACK	n/a	n/a	n/a	n/a	n/a	n/a	n/a	n/a
255.7995	1.0333	ITI	n/a	n/a	n/a	n/a	n/a	n/a	n/a	n/a
257.8736	n/a	RESPONSE	n/a	n/a	n/a	n/a	n/a	n/a	n/a	n/a
257.9329	1.0167	ITI	n/a	n/a	n/a	n/a	n/a	n/a	n/a	n/a
258.9496	0.5167	FIXCROSS	n/a	n/a	n/a	n/a	n/a	n/a	n/a	n/a
259.4662	0.6167	COLOR_NAME	1	Neutral	żółty	yellow	Neutral	Neutral	hit	n/a
260.0491	n/a	RESPONSE	n/a	n/a	n/a	n/a	n/a	n/a	n/a	yellow
260.0829	1.0167	ITI	n/a	n/a	n/a	n/a	n/a	n/a	n/a	n/a
261.0996	0.5167	FIXCROSS	n/a	n/a	n/a	n/a	n/a	n/a	n/a	n/a
261.6162	0.6667	COLOR_NAME	2	Neutral	niebieski	blue	Neutral	Neutral	hit	n/a
262.2566	n/a	RESPONSE	n/a	n/a	n/a	n/a	n/a	n/a	n/a	blue
262.2829	1.0167	ITI	n/a	n/a	n/a	n/a	n/a	n/a	n/a	n/a
263.2996	0.5167	FIXCROSS	n/a	n/a	n/a	n/a	n/a	n/a	n/a	n/a
263.8163	0.6833	COLOR_NAME	3	Incongruent	żółty	yellow	zielony	green	hit	n/a
264.48	n/a	RESPONSE	n/a	n/a	n/a	n/a	n/a	n/a	n/a	yellow
264.4996	1.0167	ITI	n/a	n/a	n/a	n/a	n/a	n/a	n/a	n/a
265.5163	0.5167	FIXCROSS	n/a	n/a	n/a	n/a	n/a	n/a	n/a	n/a
266.033	0.6833	COLOR_NAME	4	Incongruent	zielony	green	żółty	yellow	incorrect	n/a
266.6875	n/a	RESPONSE	n/a	n/a	n/a	n/a	n/a	n/a	n/a	yellow
266.7163	1.0167	ITI	n/a	n/a	n/a	n/a	n/a	n/a	n/a	n/a
267.733	0.5167	FIXCROSS	n/a	n/a	n/a	n/a	n/a	n/a	n/a	n/a
268.2497	0.7333	COLOR_NAME	5	Incongruent	żółty	yellow	czerwony	red	hit	n/a
268.9589	n/a	RESPONSE	n/a	n/a	n/a	n/a	n/a	n/a	n/a	yellow
268.983	1.0167	ITI	n/a	n/a	n/a	n/a	n/a	n/a	n/a	n/a
269.9997	0.5167	FIXCROSS	n/a	n/a	n/a	n/a	n/a	n/a	n/a	n/a
270.5163	0.6	COLOR_NAME	6	Incongruent	niebieski	blue	żółty	yellow	hit	n/a
271.0865	n/a	RESPONSE	n/a	n/a	n/a	n/a	n/a	n/a	n/a	blue
271.1164	1.0167	ITI	n/a	n/a	n/a	n/a	n/a	n/a	n/a	n/a
272.133	0.5167	FIXCROSS	n/a	n/a	n/a	n/a	n/a	n/a	n/a	n/a
272.6497	0.6667	COLOR_NAME	7	Neutral	zielony	green	Neutral	Neutral	hit	n/a
273.2939	n/a	RESPONSE	n/a	n/a	n/a	n/a	n/a	n/a	n/a	green
273.3164	1.0167	ITI	n/a	n/a	n/a	n/a	n/a	n/a	n/a	n/a
274.3331	0.5167	FIXCROSS	n/a	n/a	n/a	n/a	n/a	n/a	n/a	n/a
274.8497	0.7167	COLOR_NAME	8	Incongruent	niebieski	blue	czerwony	red	hit	n/a
275.5334	n/a	RESPONSE	n/a	n/a	n/a	n/a	n/a	n/a	n/a	blue
275.5664	1.0167	ITI	n/a	n/a	n/a	n/a	n/a	n/a	n/a	n/a
276.5831	0.5167	FIXCROSS	n/a	n/a	n/a	n/a	n/a	n/a	n/a	n/a
277.0998	0.5167	COLOR_NAME	9	Incongruent	zielony	green	czerwony	red	hit	n/a
277.5969	n/a	RESPONSE	n/a	n/a	n/a	n/a	n/a	n/a	n/a	green
277.6164	1.0167	ITI	n/a	n/a	n/a	n/a	n/a	n/a	n/a	n/a
278.6331	0.5167	FIXCROSS	n/a	n/a	n/a	n/a	n/a	n/a	n/a	n/a
279.1498	0.7167	COLOR_NAME	10	Incongruent	niebieski	blue	zielony	green	hit	n/a
279.8364	n/a	RESPONSE	n/a	n/a	n/a	n/a	n/a	n/a	n/a	blue
279.8665	1.0167	ITI	n/a	n/a	n/a	n/a	n/a	n/a	n/a	n/a
280.8831	0.5167	FIXCROSS	n/a	n/a	n/a	n/a	n/a	n/a	n/a	n/a
281.3998	0.5167	COLOR_NAME	11	Neutral	zielony	green	Neutral	Neutral	hit	n/a
281.8838	n/a	RESPONSE	n/a	n/a	n/a	n/a	n/a	n/a	n/a	green
281.9165	1.0167	ITI	n/a	n/a	n/a	n/a	n/a	n/a	n/a	n/a
282.9332	0.5167	FIXCROSS	n/a	n/a	n/a	n/a	n/a	n/a	n/a	n/a
283.4498	0.7	COLOR_NAME	12	Neutral	czerwony	red	Neutral	Neutral	hit	n/a
284.1233	n/a	RESPONSE	n/a	n/a	n/a	n/a	n/a	n/a	n/a	red
284.1498	1.0167	ITI	n/a	n/a	n/a	n/a	n/a	n/a	n/a	n/a
285.1665	0.5167	FIXCROSS	n/a	n/a	n/a	n/a	n/a	n/a	n/a	n/a
285.6832	0.9	COLOR_NAME	13	Incongruent	zielony	green	niebieski	blue	hit	n/a
286.5547	n/a	RESPONSE	n/a	n/a	n/a	n/a	n/a	n/a	n/a	green
286.5832	1.0167	ITI	n/a	n/a	n/a	n/a	n/a	n/a	n/a	n/a
287.5999	0.5167	FIXCROSS	n/a	n/a	n/a	n/a	n/a	n/a	n/a	n/a
288.1166	0.4333	COLOR_NAME	14	Incongruent	niebieski	blue	zielony	green	hit	n/a
288.5222	n/a	RESPONSE	n/a	n/a	n/a	n/a	n/a	n/a	n/a	blue
288.5499	1.0167	ITI	n/a	n/a	n/a	n/a	n/a	n/a	n/a	n/a
289.5666	0.5167	FIXCROSS	n/a	n/a	n/a	n/a	n/a	n/a	n/a	n/a
290.0832	0.7	COLOR_NAME	15	Incongruent	czerwony	red	zielony	green	hit	n/a
290.7617	n/a	RESPONSE	n/a	n/a	n/a	n/a	n/a	n/a	n/a	red
290.7832	1.0167	ITI	n/a	n/a	n/a	n/a	n/a	n/a	n/a	n/a
291.7999	0.5167	FIXCROSS	n/a	n/a	n/a	n/a	n/a	n/a	n/a	n/a
292.3166	0.7333	COLOR_NAME	16	Neutral	czerwony	red	Neutral	Neutral	hit	n/a
293.0171	n/a	RESPONSE	n/a	n/a	n/a	n/a	n/a	n/a	n/a	red
293.0499	1.0167	ITI	n/a	n/a	n/a	n/a	n/a	n/a	n/a	n/a
294.0666	0.5167	FIXCROSS	n/a	n/a	n/a	n/a	n/a	n/a	n/a	n/a
294.5833	0.6	COLOR_NAME	17	Incongruent	zielony	green	czerwony	red	hit	n/a
295.1606	n/a	RESPONSE	n/a	n/a	n/a	n/a	n/a	n/a	n/a	green
295.1833	1.0167	ITI	n/a	n/a	n/a	n/a	n/a	n/a	n/a	n/a
296.2	0.5167	FIXCROSS	n/a	n/a	n/a	n/a	n/a	n/a	n/a	n/a
296.7167	0.6	COLOR_NAME	18	Neutral	zielony	green	Neutral	Neutral	hit	n/a
297.2881	n/a	RESPONSE	n/a	n/a	n/a	n/a	n/a	n/a	n/a	green
297.3167	1.0167	ITI	n/a	n/a	n/a	n/a	n/a	n/a	n/a	n/a
298.3333	0.5167	FIXCROSS	n/a	n/a	n/a	n/a	n/a	n/a	n/a	n/a
298.85	0.6667	COLOR_NAME	19	Neutral	czerwony	red	Neutral	Neutral	hit	n/a
299.4956	n/a	RESPONSE	n/a	n/a	n/a	n/a	n/a	n/a	n/a	red
299.5167	1.0167	ITI	n/a	n/a	n/a	n/a	n/a	n/a	n/a	n/a
300.5334	0.5167	FIXCROSS	n/a	n/a	n/a	n/a	n/a	n/a	n/a	n/a
301.05	0.9667	COLOR_NAME	20	Neutral	niebieski	blue	Neutral	Neutral	hit	n/a
301.991	n/a	RESPONSE	n/a	n/a	n/a	n/a	n/a	n/a	n/a	blue
302.0167	1.0167	ITI	n/a	n/a	n/a	n/a	n/a	n/a	n/a	n/a
303.0334	0.5167	FIXCROSS	n/a	n/a	n/a	n/a	n/a	n/a	n/a	n/a
303.5501	0.6833	COLOR_NAME	21	Incongruent	czerwony	red	zielony	green	hit	n/a
304.2145	n/a	RESPONSE	n/a	n/a	n/a	n/a	n/a	n/a	n/a	red
304.2334	1.0167	ITI	n/a	n/a	n/a	n/a	n/a	n/a	n/a	n/a
305.2501	0.5167	FIXCROSS	n/a	n/a	n/a	n/a	n/a	n/a	n/a	n/a
305.7668	0.5333	COLOR_NAME	22	Neutral	czerwony	red	Neutral	Neutral	hit	n/a
306.278	n/a	RESPONSE	n/a	n/a	n/a	n/a	n/a	n/a	n/a	red
306.3001	1.0167	ITI	n/a	n/a	n/a	n/a	n/a	n/a	n/a	n/a
307.3168	0.5167	FIXCROSS	n/a	n/a	n/a	n/a	n/a	n/a	n/a	n/a
307.8335	0.5166	COLOR_NAME	23	Neutral	żółty	yellow	Neutral	Neutral	hit	n/a
308.3254	n/a	RESPONSE	n/a	n/a	n/a	n/a	n/a	n/a	n/a	yellow
308.3501	1.0167	ITI	n/a	n/a	n/a	n/a	n/a	n/a	n/a	n/a
309.3668	0.5167	FIXCROSS	n/a	n/a	n/a	n/a	n/a	n/a	n/a	n/a
309.8835	0.6667	COLOR_NAME	24	Incongruent	zielony	green	niebieski	blue	hit	n/a
310.5329	n/a	RESPONSE	n/a	n/a	n/a	n/a	n/a	n/a	n/a	green
310.5501	1.0167	ITI	n/a	n/a	n/a	n/a	n/a	n/a	n/a	n/a
311.5668	0.5167	FIXCROSS	n/a	n/a	n/a	n/a	n/a	n/a	n/a	n/a
312.0835	0.7	COLOR_NAME	25	Incongruent	czerwony	red	niebieski	blue	hit	n/a
312.7564	n/a	RESPONSE	n/a	n/a	n/a	n/a	n/a	n/a	n/a	red
312.7835	1.0167	ITI	n/a	n/a	n/a	n/a	n/a	n/a	n/a	n/a
313.8002	0.5167	FIXCROSS	n/a	n/a	n/a	n/a	n/a	n/a	n/a	n/a
314.3169	0.6333	COLOR_NAME	26	Neutral	niebieski	blue	Neutral	Neutral	hit	n/a
314.9318	n/a	RESPONSE	n/a	n/a	n/a	n/a	n/a	n/a	n/a	blue
314.9502	1.0167	ITI	n/a	n/a	n/a	n/a	n/a	n/a	n/a	n/a
315.9669	0.5167	FIXCROSS	n/a	n/a	n/a	n/a	n/a	n/a	n/a	n/a
316.4835	0.6167	COLOR_NAME	27	Incongruent	czerwony	red	niebieski	blue	hit	n/a
317.0753	n/a	RESPONSE	n/a	n/a	n/a	n/a	n/a	n/a	n/a	red
317.1002	1.0167	ITI	n/a	n/a	n/a	n/a	n/a	n/a	n/a	n/a
318.1169	0.5167	FIXCROSS	n/a	n/a	n/a	n/a	n/a	n/a	n/a	n/a
318.6336	0.6333	COLOR_NAME	28	Incongruent	żółty	yellow	czerwony	red	hit	n/a
319.2348	n/a	RESPONSE	n/a	n/a	n/a	n/a	n/a	n/a	n/a	yellow
319.2669	1.0167	ITI	n/a	n/a	n/a	n/a	n/a	n/a	n/a	n/a
320.2836	0.5167	FIXCROSS	n/a	n/a	n/a	n/a	n/a	n/a	n/a	n/a
320.8003	0.6333	COLOR_NAME	29	Incongruent	czerwony	red	żółty	yellow	hit	n/a
321.4103	n/a	RESPONSE	n/a	n/a	n/a	n/a	n/a	n/a	n/a	red
321.4336	1.0167	ITI	n/a	n/a	n/a	n/a	n/a	n/a	n/a	n/a
322.4503	0.5167	FIXCROSS	n/a	n/a	n/a	n/a	n/a	n/a	n/a	n/a
322.9669	0.7333	COLOR_NAME	30	Incongruent	niebieski	blue	czerwony	red	incorrect	n/a
323.6817	n/a	RESPONSE	n/a	n/a	n/a	n/a	n/a	n/a	n/a	red
323.7003	1.0167	ITI	n/a	n/a	n/a	n/a	n/a	n/a	n/a	n/a
324.717	0.5167	FIXCROSS	n/a	n/a	n/a	n/a	n/a	n/a	n/a	n/a
325.2336	0.7167	COLOR_NAME	31	Incongruent	niebieski	blue	zielony	green	hit	n/a
325.9212	n/a	RESPONSE	n/a	n/a	n/a	n/a	n/a	n/a	n/a	blue
325.9503	1.0167	ITI	n/a	n/a	n/a	n/a	n/a	n/a	n/a	n/a
326.967	0.5167	FIXCROSS	n/a	n/a	n/a	n/a	n/a	n/a	n/a	n/a
327.4837	0.4333	COLOR_NAME	32	Neutral	niebieski	blue	Neutral	Neutral	hit	n/a
327.8887	n/a	RESPONSE	n/a	n/a	n/a	n/a	n/a	n/a	n/a	blue
327.917	1.0167	ITI	n/a	n/a	n/a	n/a	n/a	n/a	n/a	n/a
328.9337	0.5122	FIXCROSS	n/a	n/a	n/a	n/a	n/a	n/a	n/a	n/a
329.4459	0.5878	COLOR_NAME	33	Incongruent	niebieski	blue	czerwony	red	hit	n/a
330.0162	n/a	RESPONSE	n/a	n/a	n/a	n/a	n/a	n/a	n/a	blue
330.0337	1.0167	ITI	n/a	n/a	n/a	n/a	n/a	n/a	n/a	n/a
331.0504	0.5167	FIXCROSS	n/a	n/a	n/a	n/a	n/a	n/a	n/a	n/a
331.567	0.65	COLOR_NAME	34	Incongruent	żółty	yellow	czerwony	red	hit	n/a
332.1917	n/a	RESPONSE	n/a	n/a	n/a	n/a	n/a	n/a	n/a	yellow
332.2171	1.0167	ITI	n/a	n/a	n/a	n/a	n/a	n/a	n/a	n/a
333.2337	0.5167	FIXCROSS	n/a	n/a	n/a	n/a	n/a	n/a	n/a	n/a
333.7504	0.5167	COLOR_NAME	35	Incongruent	żółty	yellow	zielony	green	hit	n/a
334.2392	n/a	RESPONSE	n/a	n/a	n/a	n/a	n/a	n/a	n/a	yellow
334.2671	1.0167	ITI	n/a	n/a	n/a	n/a	n/a	n/a	n/a	n/a
335.2838	0.5167	FIXCROSS	n/a	n/a	n/a	n/a	n/a	n/a	n/a	n/a
335.8004	0.5833	COLOR_NAME	36	Neutral	czerwony	red	Neutral	Neutral	hit	n/a
336.3507	n/a	RESPONSE	n/a	n/a	n/a	n/a	n/a	n/a	n/a	red
336.3838	1.0167	ITI	n/a	n/a	n/a	n/a	n/a	n/a	n/a	n/a
337.4004	0.5167	FIXCROSS	n/a	n/a	n/a	n/a	n/a	n/a	n/a	n/a
337.9171	0.5667	COLOR_NAME	37	Incongruent	czerwony	red	niebieski	blue	hit	n/a
338.4622	n/a	RESPONSE	n/a	n/a	n/a	n/a	n/a	n/a	n/a	red
338.4838	1.0167	ITI	n/a	n/a	n/a	n/a	n/a	n/a	n/a	n/a
339.5005	0.5167	FIXCROSS	n/a	n/a	n/a	n/a	n/a	n/a	n/a	n/a
340.0171	0.8833	COLOR_NAME	38	Neutral	zielony	green	Neutral	Neutral	hit	n/a
340.8776	n/a	RESPONSE	n/a	n/a	n/a	n/a	n/a	n/a	n/a	green
340.9005	1.0167	ITI	n/a	n/a	n/a	n/a	n/a	n/a	n/a	n/a
341.9172	0.5167	FIXCROSS	n/a	n/a	n/a	n/a	n/a	n/a	n/a	n/a
342.4338	0.4333	COLOR_NAME	39	Incongruent	zielony	green	czerwony	red	hit	n/a
342.8451	n/a	RESPONSE	n/a	n/a	n/a	n/a	n/a	n/a	n/a	green
342.8672	1.0167	ITI	n/a	n/a	n/a	n/a	n/a	n/a	n/a	n/a
343.8839	0.5167	FIXCROSS	n/a	n/a	n/a	n/a	n/a	n/a	n/a	n/a
344.4005	0.6333	COLOR_NAME	40	Neutral	żółty	yellow	Neutral	Neutral	hit	n/a
345.0046	n/a	RESPONSE	n/a	n/a	n/a	n/a	n/a	n/a	n/a	yellow
345.0339	1.0167	ITI	n/a	n/a	n/a	n/a	n/a	n/a	n/a	n/a
346.0506	0.5167	FIXCROSS	n/a	n/a	n/a	n/a	n/a	n/a	n/a	n/a
346.5672	0.7	COLOR_NAME	41	Neutral	zielony	green	Neutral	Neutral	hit	n/a
347.244	n/a	RESPONSE	n/a	n/a	n/a	n/a	n/a	n/a	n/a	green
347.2672	1.0167	ITI	n/a	n/a	n/a	n/a	n/a	n/a	n/a	n/a
348.2839	0.5167	FIXCROSS	n/a	n/a	n/a	n/a	n/a	n/a	n/a	n/a
348.8006	0.7	COLOR_NAME	42	Incongruent	zielony	green	niebieski	blue	incorrect	n/a
349.4675	n/a	RESPONSE	n/a	n/a	n/a	n/a	n/a	n/a	n/a	yellow
349.5006	1.0167	ITI	n/a	n/a	n/a	n/a	n/a	n/a	n/a	n/a
350.5173	0.5167	FIXCROSS	n/a	n/a	n/a	n/a	n/a	n/a	n/a	n/a
351.0339	0.7167	COLOR_NAME	43	Incongruent	niebieski	blue	żółty	yellow	hit	n/a
351.723	n/a	RESPONSE	n/a	n/a	n/a	n/a	n/a	n/a	n/a	blue
351.7506	1.0167	ITI	n/a	n/a	n/a	n/a	n/a	n/a	n/a	n/a
352.7673	0.5167	FIXCROSS	n/a	n/a	n/a	n/a	n/a	n/a	n/a	n/a
353.284	0.6	COLOR_NAME	44	Neutral	czerwony	red	Neutral	Neutral	hit	n/a
353.8505	n/a	RESPONSE	n/a	n/a	n/a	n/a	n/a	n/a	n/a	red
353.884	1.0167	ITI	n/a	n/a	n/a	n/a	n/a	n/a	n/a	n/a
354.9006	0.5167	FIXCROSS	n/a	n/a	n/a	n/a	n/a	n/a	n/a	n/a
355.4173	0.85	COLOR_NAME	45	Incongruent	zielony	green	żółty	yellow	hit	n/a
356.2339	n/a	RESPONSE	n/a	n/a	n/a	n/a	n/a	n/a	n/a	green
356.2673	1.0167	ITI	n/a	n/a	n/a	n/a	n/a	n/a	n/a	n/a
357.284	0.5167	FIXCROSS	n/a	n/a	n/a	n/a	n/a	n/a	n/a	n/a
357.8007	0.45	COLOR_NAME	46	Neutral	zielony	green	Neutral	Neutral	hit	n/a
358.2334	n/a	RESPONSE	n/a	n/a	n/a	n/a	n/a	n/a	n/a	green
358.2507	1.0167	ITI	n/a	n/a	n/a	n/a	n/a	n/a	n/a	n/a
359.2674	0.5165	FIXCROSS	n/a	n/a	n/a	n/a	n/a	n/a	n/a	n/a
359.7839	0.6168	COLOR_NAME	47	Neutral	żółty	yellow	Neutral	Neutral	hit	n/a
360.3769	n/a	RESPONSE	n/a	n/a	n/a	n/a	n/a	n/a	n/a	yellow
360.4007	1.0167	ITI	n/a	n/a	n/a	n/a	n/a	n/a	n/a	n/a
361.4174	0.5167	FIXCROSS	n/a	n/a	n/a	n/a	n/a	n/a	n/a	n/a
361.9341	0.4	COLOR_NAME	48	Neutral	żółty	yellow	Neutral	Neutral	hit	n/a
362.3124	n/a	RESPONSE	n/a	n/a	n/a	n/a	n/a	n/a	n/a	yellow
362.3341	1.0167	ITI	n/a	n/a	n/a	n/a	n/a	n/a	n/a	n/a
363.3507	0.5167	FIXCROSS	n/a	n/a	n/a	n/a	n/a	n/a	n/a	n/a
363.8674	0.5167	COLOR_NAME	49	Neutral	niebieski	blue	Neutral	Neutral	hit	n/a
364.3599	n/a	RESPONSE	n/a	n/a	n/a	n/a	n/a	n/a	n/a	blue
364.3841	1.0167	ITI	n/a	n/a	n/a	n/a	n/a	n/a	n/a	n/a
365.4008	0.5167	FIXCROSS	n/a	n/a	n/a	n/a	n/a	n/a	n/a	n/a
365.9174	0.4833	COLOR_NAME	50	Neutral	niebieski	blue	Neutral	Neutral	hit	n/a
366.3754	n/a	RESPONSE	n/a	n/a	n/a	n/a	n/a	n/a	n/a	blue
366.4008	1.0167	ITI	n/a	n/a	n/a	n/a	n/a	n/a	n/a	n/a
367.4175	0.5167	FIXCROSS	n/a	n/a	n/a	n/a	n/a	n/a	n/a	n/a
367.9341	0.5333	COLOR_NAME	51	Incongruent	czerwony	red	żółty	yellow	hit	n/a
368.4389	n/a	RESPONSE	n/a	n/a	n/a	n/a	n/a	n/a	n/a	red
368.4675	1.0167	ITI	n/a	n/a	n/a	n/a	n/a	n/a	n/a	n/a
369.4841	0.5167	FIXCROSS	n/a	n/a	n/a	n/a	n/a	n/a	n/a	n/a
370.0008	0.7333	COLOR_NAME	52	Neutral	niebieski	blue	Neutral	Neutral	hit	n/a
370.7104	n/a	RESPONSE	n/a	n/a	n/a	n/a	n/a	n/a	n/a	blue
370.7342	1.0167	ITI	n/a	n/a	n/a	n/a	n/a	n/a	n/a	n/a
371.7508	0.5167	FIXCROSS	n/a	n/a	n/a	n/a	n/a	n/a	n/a	n/a
372.2675	0.9833	COLOR_NAME	53	Neutral	zielony	green	Neutral	Neutral	hit	n/a
373.2218	n/a	RESPONSE	n/a	n/a	n/a	n/a	n/a	n/a	n/a	green
373.2509	1.0167	ITI	n/a	n/a	n/a	n/a	n/a	n/a	n/a	n/a
374.2675	0.5167	FIXCROSS	n/a	n/a	n/a	n/a	n/a	n/a	n/a	n/a
374.7842	0.45	COLOR_NAME	54	Neutral	zielony	green	Neutral	Neutral	hit	n/a
375.2053	n/a	RESPONSE	n/a	n/a	n/a	n/a	n/a	n/a	n/a	green
375.2342	1.0167	ITI	n/a	n/a	n/a	n/a	n/a	n/a	n/a	n/a
376.2509	0.5167	FIXCROSS	n/a	n/a	n/a	n/a	n/a	n/a	n/a	n/a
376.7676	0.65	COLOR_NAME	55	Incongruent	żółty	yellow	niebieski	blue	hit	n/a
377.3968	n/a	RESPONSE	n/a	n/a	n/a	n/a	n/a	n/a	n/a	yellow
377.4176	1.0167	ITI	n/a	n/a	n/a	n/a	n/a	n/a	n/a	n/a
378.4342	0.5167	FIXCROSS	n/a	n/a	n/a	n/a	n/a	n/a	n/a	n/a
378.9509	0.7333	COLOR_NAME	56	Incongruent	niebieski	blue	żółty	yellow	hit	n/a
379.6522	n/a	RESPONSE	n/a	n/a	n/a	n/a	n/a	n/a	n/a	blue
379.6843	1.0167	ITI	n/a	n/a	n/a	n/a	n/a	n/a	n/a	n/a
380.7009	0.5167	FIXCROSS	n/a	n/a	n/a	n/a	n/a	n/a	n/a	n/a
381.2176	0.6	COLOR_NAME	57	Neutral	żółty	yellow	Neutral	Neutral	hit	n/a
381.7957	n/a	RESPONSE	n/a	n/a	n/a	n/a	n/a	n/a	n/a	yellow
381.8176	1.0167	ITI	n/a	n/a	n/a	n/a	n/a	n/a	n/a	n/a
382.8343	0.5167	FIXCROSS	n/a	n/a	n/a	n/a	n/a	n/a	n/a	n/a
383.351	0.5833	COLOR_NAME	58	Incongruent	czerwony	red	zielony	green	hit	n/a
383.9072	n/a	RESPONSE	n/a	n/a	n/a	n/a	n/a	n/a	n/a	red
383.9343	1.0167	ITI	n/a	n/a	n/a	n/a	n/a	n/a	n/a	n/a
384.951	0.5167	FIXCROSS	n/a	n/a	n/a	n/a	n/a	n/a	n/a	n/a
385.4677	0.6667	COLOR_NAME	59	Neutral	żółty	yellow	Neutral	Neutral	hit	n/a
386.1146	n/a	RESPONSE	n/a	n/a	n/a	n/a	n/a	n/a	n/a	yellow
386.1343	1.0167	ITI	n/a	n/a	n/a	n/a	n/a	n/a	n/a	n/a
387.151	0.5167	FIXCROSS	n/a	n/a	n/a	n/a	n/a	n/a	n/a	n/a
387.6677	0.7833	COLOR_NAME	60	Neutral	zielony	green	Neutral	Neutral	hit	n/a
388.4181	n/a	RESPONSE	n/a	n/a	n/a	n/a	n/a	n/a	n/a	green
388.451	1.0167	ITI	n/a	n/a	n/a	n/a	n/a	n/a	n/a	n/a
389.4677	0.5167	FIXCROSS	n/a	n/a	n/a	n/a	n/a	n/a	n/a	n/a
389.9844	0.8333	COLOR_NAME	61	Incongruent	zielony	green	żółty	yellow	hit	n/a
390.7855	n/a	RESPONSE	n/a	n/a	n/a	n/a	n/a	n/a	n/a	green
390.8177	1.0167	ITI	n/a	n/a	n/a	n/a	n/a	n/a	n/a	n/a
391.8344	0.5167	FIXCROSS	n/a	n/a	n/a	n/a	n/a	n/a	n/a	n/a
392.3511	0.7	COLOR_NAME	62	Neutral	żółty	yellow	Neutral	Neutral	hit	n/a
393.025	n/a	RESPONSE	n/a	n/a	n/a	n/a	n/a	n/a	n/a	yellow
393.0511	1.0167	ITI	n/a	n/a	n/a	n/a	n/a	n/a	n/a	n/a
394.0678	0.5167	FIXCROSS	n/a	n/a	n/a	n/a	n/a	n/a	n/a	n/a
394.5844	0.6333	COLOR_NAME	63	Incongruent	żółty	yellow	niebieski	blue	hit	n/a
395.2004	n/a	RESPONSE	n/a	n/a	n/a	n/a	n/a	n/a	n/a	yellow
395.2178	1.0167	ITI	n/a	n/a	n/a	n/a	n/a	n/a	n/a	n/a
396.2344	0.5167	FIXCROSS	n/a	n/a	n/a	n/a	n/a	n/a	n/a	n/a
396.7511	0.45	COLOR_NAME	64	Neutral	żółty	yellow	Neutral	Neutral	hit	n/a
397.168	n/a	RESPONSE	n/a	n/a	n/a	n/a	n/a	n/a	n/a	yellow
397.2011	1.0167	ITI	n/a	n/a	n/a	n/a	n/a	n/a	n/a	n/a
398.2178	0.5167	FIXCROSS	n/a	n/a	n/a	n/a	n/a	n/a	n/a	n/a
398.7345	1.15	COLOR_NAME	65	Neutral	niebieski	blue	Neutral	Neutral	incorrect	n/a
399.8553	n/a	RESPONSE	n/a	n/a	n/a	n/a	n/a	n/a	n/a	green
399.8845	1.0167	ITI	n/a	n/a	n/a	n/a	n/a	n/a	n/a	n/a
400.9012	0.5167	FIXCROSS	n/a	n/a	n/a	n/a	n/a	n/a	n/a	n/a
401.4179	0.7333	COLOR_NAME	66	Neutral	czerwony	red	Neutral	Neutral	hit	n/a
402.1268	n/a	RESPONSE	n/a	n/a	n/a	n/a	n/a	n/a	n/a	red
402.1512	1.0167	ITI	n/a	n/a	n/a	n/a	n/a	n/a	n/a	n/a
403.1679	0.5167	FIXCROSS	n/a	n/a	n/a	n/a	n/a	n/a	n/a	n/a
403.6845	0.7	COLOR_NAME	67	Incongruent	czerwony	red	żółty	yellow	hit	n/a
404.3662	n/a	RESPONSE	n/a	n/a	n/a	n/a	n/a	n/a	n/a	red
404.3845	1.0167	ITI	n/a	n/a	n/a	n/a	n/a	n/a	n/a	n/a
405.4012	0.5167	FIXCROSS	n/a	n/a	n/a	n/a	n/a	n/a	n/a	n/a
405.9179	0.5333	COLOR_NAME	68	Neutral	niebieski	blue	Neutral	Neutral	hit	n/a
406.4297	n/a	RESPONSE	n/a	n/a	n/a	n/a	n/a	n/a	n/a	blue
406.4512	1.0167	ITI	n/a	n/a	n/a	n/a	n/a	n/a	n/a	n/a
407.4679	0.5167	FIXCROSS	n/a	n/a	n/a	n/a	n/a	n/a	n/a	n/a
407.9846	1.0167	COLOR_NAME	69	Neutral	czerwony	red	Neutral	Neutral	hit	n/a
408.9731	n/a	RESPONSE	n/a	n/a	n/a	n/a	n/a	n/a	n/a	red
409.0013	1.0167	ITI	n/a	n/a	n/a	n/a	n/a	n/a	n/a	n/a
410.018	0.5167	FIXCROSS	n/a	n/a	n/a	n/a	n/a	n/a	n/a	n/a
410.5346	0.7	COLOR_NAME	70	Neutral	czerwony	red	Neutral	Neutral	hit	n/a
411.2126	n/a	RESPONSE	n/a	n/a	n/a	n/a	n/a	n/a	n/a	red
411.2346	1.0167	ITI	n/a	n/a	n/a	n/a	n/a	n/a	n/a	n/a
412.2513	0.5167	FIXCROSS	n/a	n/a	n/a	n/a	n/a	n/a	n/a	n/a
412.768	0.5167	COLOR_NAME	71	Incongruent	żółty	yellow	zielony	green	hit	n/a
413.2601	n/a	RESPONSE	n/a	n/a	n/a	n/a	n/a	n/a	n/a	yellow
413.2847	1.0167	ITI	n/a	n/a	n/a	n/a	n/a	n/a	n/a	n/a
414.3013	0.5167	FIXCROSS	n/a	n/a	n/a	n/a	n/a	n/a	n/a	n/a
414.818	0.5833	COLOR_NAME	72	Incongruent	żółty	yellow	niebieski	blue	hit	n/a
415.3716	n/a	RESPONSE	n/a	n/a	n/a	n/a	n/a	n/a	n/a	yellow
415.4013	1.0333	ITI	n/a	n/a	n/a	n/a	n/a	n/a	n/a	n/a
418.1229	n/a	RESPONSE	n/a	n/a	n/a	n/a	n/a	n/a	n/a	n/a
