onset	duration	trial_type	trial_number	stroop_condition	stim_text(PL)	stim_text(eng)	stim_color(PL)	stim_color(eng)	response_type	response_color
0.0	n/a	RESPONSE	n/a	n/a	n/a	n/a	n/a	n/a	n/a	n/a
0.0253	1.0167	ITI	n/a	n/a	n/a	n/a	n/a	n/a	n/a	n/a
1.0419	0.5	FIXCROSS	n/a	n/a	n/a	n/a	n/a	n/a	n/a	n/a
1.5419	1.4167	T_INK	1	Incongruent	żółty	yellow	czerwony	red	hit	n/a
2.9417	n/a	RESPONSE	n/a	n/a	n/a	n/a	n/a	n/a	n/a	red
2.9586	0.5	FEEDBACK	n/a	n/a	n/a	n/a	n/a	n/a	n/a	n/a
3.4586	1.0	ITI	n/a	n/a	n/a	n/a	n/a	n/a	n/a	n/a
4.4586	0.5	FIXCROSS	n/a	n/a	n/a	n/a	n/a	n/a	n/a	n/a
4.9586	0.8167	T_INK	2	Neutral	xxxxxxxx	xxxxxxxx	zielony	green	hit	n/a
5.7554	n/a	RESPONSE	n/a	n/a	n/a	n/a	n/a	n/a	n/a	green
5.7753	0.5	FEEDBACK	n/a	n/a	n/a	n/a	n/a	n/a	n/a	n/a
6.2753	1.0	ITI	n/a	n/a	n/a	n/a	n/a	n/a	n/a	n/a
7.2753	0.5	FIXCROSS	n/a	n/a	n/a	n/a	n/a	n/a	n/a	n/a
7.7753	0.65	T_INK	3	Neutral	xxxxxxx	xxxxxxx	czerwony	red	hit	n/a
8.4094	n/a	RESPONSE	n/a	n/a	n/a	n/a	n/a	n/a	n/a	red
8.4253	0.5	FEEDBACK	n/a	n/a	n/a	n/a	n/a	n/a	n/a	n/a
8.9253	1.0	ITI	n/a	n/a	n/a	n/a	n/a	n/a	n/a	n/a
9.9254	0.5	FIXCROSS	n/a	n/a	n/a	n/a	n/a	n/a	n/a	n/a
10.4254	0.5333	T_INK	4	Neutral	xxxxx	xxxxx	czerwony	red	hit	n/a
10.9354	n/a	RESPONSE	n/a	n/a	n/a	n/a	n/a	n/a	n/a	red
10.9587	0.5167	FEEDBACK	n/a	n/a	n/a	n/a	n/a	n/a	n/a	n/a
11.4754	1.0167	ITI	n/a	n/a	n/a	n/a	n/a	n/a	n/a	n/a
12.4921	0.5167	FIXCROSS	n/a	n/a	n/a	n/a	n/a	n/a	n/a	n/a
13.0087	0.8	T_INK	5	Neutral	xxxxx	xxxxx	niebieski	blue	hit	n/a
13.7813	n/a	RESPONSE	n/a	n/a	n/a	n/a	n/a	n/a	n/a	blue
13.8087	0.5167	FEEDBACK	n/a	n/a	n/a	n/a	n/a	n/a	n/a	n/a
14.3254	1.0167	ITI	n/a	n/a	n/a	n/a	n/a	n/a	n/a	n/a
15.3421	0.5167	FIXCROSS	n/a	n/a	n/a	n/a	n/a	n/a	n/a	n/a
15.8588	0.6833	T_INK	6	Neutral	xxxxxxxxx	xxxxxxxxx	czerwony	red	hit	n/a
16.5151	n/a	RESPONSE	n/a	n/a	n/a	n/a	n/a	n/a	n/a	red
16.5421	0.5167	FEEDBACK	n/a	n/a	n/a	n/a	n/a	n/a	n/a	n/a
17.0588	1.0167	ITI	n/a	n/a	n/a	n/a	n/a	n/a	n/a	n/a
18.0755	0.5167	FIXCROSS	n/a	n/a	n/a	n/a	n/a	n/a	n/a	n/a
18.5921	0.6667	T_INK	7	Neutral	xxxxxxxx	xxxxxxxx	żółty	yellow	hit	n/a
19.233	n/a	RESPONSE	n/a	n/a	n/a	n/a	n/a	n/a	n/a	yellow
19.2588	0.5167	FEEDBACK	n/a	n/a	n/a	n/a	n/a	n/a	n/a	n/a
19.7755	1.0167	ITI	n/a	n/a	n/a	n/a	n/a	n/a	n/a	n/a
20.7922	0.5167	FIXCROSS	n/a	n/a	n/a	n/a	n/a	n/a	n/a	n/a
21.3088	0.7833	T_INK	8	Incongruent	zielony	green	niebieski	blue	hit	n/a
22.0787	n/a	RESPONSE	n/a	n/a	n/a	n/a	n/a	n/a	n/a	blue
22.0922	0.5	FEEDBACK	n/a	n/a	n/a	n/a	n/a	n/a	n/a	n/a
22.5922	1.0	ITI	n/a	n/a	n/a	n/a	n/a	n/a	n/a	n/a
23.5922	0.5	FIXCROSS	n/a	n/a	n/a	n/a	n/a	n/a	n/a	n/a
24.0922	0.6167	T_INK	9	Incongruent	czerwony	red	niebieski	blue	hit	n/a
24.7007	n/a	RESPONSE	n/a	n/a	n/a	n/a	n/a	n/a	n/a	blue
24.7089	0.5	FEEDBACK	n/a	n/a	n/a	n/a	n/a	n/a	n/a	n/a
25.2089	1.0	ITI	n/a	n/a	n/a	n/a	n/a	n/a	n/a	n/a
26.2089	0.5	FIXCROSS	n/a	n/a	n/a	n/a	n/a	n/a	n/a	n/a
26.7089	0.65	T_INK	10	Incongruent	zielony	green	żółty	yellow	hit	n/a
27.3387	n/a	RESPONSE	n/a	n/a	n/a	n/a	n/a	n/a	n/a	yellow
27.3589	0.5167	FEEDBACK	n/a	n/a	n/a	n/a	n/a	n/a	n/a	n/a
27.8756	1.0167	ITI	n/a	n/a	n/a	n/a	n/a	n/a	n/a	n/a
28.8922	0.5167	FIXCROSS	n/a	n/a	n/a	n/a	n/a	n/a	n/a	n/a
29.4089	0.7333	T_INK	11	Neutral	xxxxxxxxx	xxxxxxxxx	zielony	green	hit	n/a
30.1205	n/a	RESPONSE	n/a	n/a	n/a	n/a	n/a	n/a	n/a	green
30.1423	0.5167	FEEDBACK	n/a	n/a	n/a	n/a	n/a	n/a	n/a	n/a
30.6589	1.0167	ITI	n/a	n/a	n/a	n/a	n/a	n/a	n/a	n/a
31.6756	0.5167	FIXCROSS	n/a	n/a	n/a	n/a	n/a	n/a	n/a	n/a
32.1923	0.6833	T_INK	12	Neutral	xxxxxxx	xxxxxxx	niebieski	blue	hit	n/a
32.8544	n/a	RESPONSE	n/a	n/a	n/a	n/a	n/a	n/a	n/a	blue
32.8756	0.5167	FEEDBACK	n/a	n/a	n/a	n/a	n/a	n/a	n/a	n/a
33.3923	1.0333	ITI	n/a	n/a	n/a	n/a	n/a	n/a	n/a	n/a
38.3861	n/a	RESPONSE	n/a	n/a	n/a	n/a	n/a	n/a	n/a	n/a
38.4424	1.0167	ITI	n/a	n/a	n/a	n/a	n/a	n/a	n/a	n/a
39.459	0.5167	FIXCROSS	n/a	n/a	n/a	n/a	n/a	n/a	n/a	n/a
39.9757	0.85	INK	1	Neutral	xxxxxxxx	xxxxxxxx	niebieski	blue	hit	n/a
40.8002	n/a	RESPONSE	n/a	n/a	n/a	n/a	n/a	n/a	n/a	blue
40.8257	1.0167	ITI	n/a	n/a	n/a	n/a	n/a	n/a	n/a	n/a
41.8424	0.5167	FIXCROSS	n/a	n/a	n/a	n/a	n/a	n/a	n/a	n/a
42.3591	0.7	INK	2	Incongruent	zielony	green	czerwony	red	hit	n/a
43.0384	n/a	RESPONSE	n/a	n/a	n/a	n/a	n/a	n/a	n/a	red
43.0591	1.0167	ITI	n/a	n/a	n/a	n/a	n/a	n/a	n/a	n/a
44.0758	0.5167	FIXCROSS	n/a	n/a	n/a	n/a	n/a	n/a	n/a	n/a
44.5924	0.7833	INK	3	Incongruent	niebieski	blue	zielony	green	hit	n/a
45.3565	n/a	RESPONSE	n/a	n/a	n/a	n/a	n/a	n/a	n/a	green
45.3758	1.0167	ITI	n/a	n/a	n/a	n/a	n/a	n/a	n/a	n/a
46.3924	0.5167	FIXCROSS	n/a	n/a	n/a	n/a	n/a	n/a	n/a	n/a
46.9091	0.8	INK	4	Incongruent	żółty	yellow	niebieski	blue	hit	n/a
47.6908	n/a	RESPONSE	n/a	n/a	n/a	n/a	n/a	n/a	n/a	blue
47.7091	1.0167	ITI	n/a	n/a	n/a	n/a	n/a	n/a	n/a	n/a
48.7258	0.5167	FIXCROSS	n/a	n/a	n/a	n/a	n/a	n/a	n/a	n/a
49.2425	0.6833	INK	5	Neutral	xxxxxxxx	xxxxxxxx	żółty	yellow	hit	n/a
49.897	n/a	RESPONSE	n/a	n/a	n/a	n/a	n/a	n/a	n/a	yellow
49.9258	1.0167	ITI	n/a	n/a	n/a	n/a	n/a	n/a	n/a	n/a
50.9425	0.5167	FIXCROSS	n/a	n/a	n/a	n/a	n/a	n/a	n/a	n/a
51.4592	0.7333	INK	6	Neutral	xxxxxxxxx	xxxxxxxxx	czerwony	red	hit	n/a
52.1672	n/a	RESPONSE	n/a	n/a	n/a	n/a	n/a	n/a	n/a	red
52.1925	1.0167	ITI	n/a	n/a	n/a	n/a	n/a	n/a	n/a	n/a
53.2092	0.5167	FIXCROSS	n/a	n/a	n/a	n/a	n/a	n/a	n/a	n/a
53.7259	0.9	INK	7	Neutral	xxxxxxxx	xxxxxxxx	zielony	green	hit	n/a
54.5973	n/a	RESPONSE	n/a	n/a	n/a	n/a	n/a	n/a	n/a	green
54.6259	1.0167	ITI	n/a	n/a	n/a	n/a	n/a	n/a	n/a	n/a
55.6426	0.5167	FIXCROSS	n/a	n/a	n/a	n/a	n/a	n/a	n/a	n/a
56.1592	0.6167	INK	8	Neutral	xxxxxxxxx	xxxxxxxxx	zielony	green	hit	n/a
56.7557	n/a	RESPONSE	n/a	n/a	n/a	n/a	n/a	n/a	n/a	green
56.7759	1.0167	ITI	n/a	n/a	n/a	n/a	n/a	n/a	n/a	n/a
57.7926	0.5167	FIXCROSS	n/a	n/a	n/a	n/a	n/a	n/a	n/a	n/a
58.3092	0.75	INK	9	Incongruent	czerwony	red	zielony	green	hit	n/a
59.0419	n/a	RESPONSE	n/a	n/a	n/a	n/a	n/a	n/a	n/a	green
59.0593	1.0167	ITI	n/a	n/a	n/a	n/a	n/a	n/a	n/a	n/a
60.0759	0.5167	FIXCROSS	n/a	n/a	n/a	n/a	n/a	n/a	n/a	n/a
60.5926	0.7167	INK	10	Incongruent	czerwony	red	żółty	yellow	hit	n/a
61.2801	n/a	RESPONSE	n/a	n/a	n/a	n/a	n/a	n/a	n/a	yellow
61.3093	1.0167	ITI	n/a	n/a	n/a	n/a	n/a	n/a	n/a	n/a
62.326	0.5167	FIXCROSS	n/a	n/a	n/a	n/a	n/a	n/a	n/a	n/a
62.8426	0.7667	INK	11	Neutral	xxxxx	xxxxx	czerwony	red	hit	n/a
63.5824	n/a	RESPONSE	n/a	n/a	n/a	n/a	n/a	n/a	n/a	red
63.6093	1.0167	ITI	n/a	n/a	n/a	n/a	n/a	n/a	n/a	n/a
64.626	0.5167	FIXCROSS	n/a	n/a	n/a	n/a	n/a	n/a	n/a	n/a
65.1427	0.5833	INK	12	Incongruent	czerwony	red	żółty	yellow	hit	n/a
65.6927	n/a	RESPONSE	n/a	n/a	n/a	n/a	n/a	n/a	n/a	yellow
65.726	1.0167	ITI	n/a	n/a	n/a	n/a	n/a	n/a	n/a	n/a
66.7427	0.5167	FIXCROSS	n/a	n/a	n/a	n/a	n/a	n/a	n/a	n/a
67.2594	0.75	INK	13	Incongruent	zielony	green	czerwony	red	hit	n/a
67.979	n/a	RESPONSE	n/a	n/a	n/a	n/a	n/a	n/a	n/a	red
68.0094	1.0167	ITI	n/a	n/a	n/a	n/a	n/a	n/a	n/a	n/a
69.026	0.5167	FIXCROSS	n/a	n/a	n/a	n/a	n/a	n/a	n/a	n/a
69.5427	0.6833	INK	14	Incongruent	zielony	green	niebieski	blue	hit	n/a
70.2012	n/a	RESPONSE	n/a	n/a	n/a	n/a	n/a	n/a	n/a	blue
70.226	1.0167	ITI	n/a	n/a	n/a	n/a	n/a	n/a	n/a	n/a
71.2427	0.5167	FIXCROSS	n/a	n/a	n/a	n/a	n/a	n/a	n/a	n/a
71.7594	0.65	INK	15	Incongruent	zielony	green	żółty	yellow	hit	n/a
72.3916	n/a	RESPONSE	n/a	n/a	n/a	n/a	n/a	n/a	n/a	yellow
72.4094	1.0167	ITI	n/a	n/a	n/a	n/a	n/a	n/a	n/a	n/a
73.4261	0.5167	FIXCROSS	n/a	n/a	n/a	n/a	n/a	n/a	n/a	n/a
73.9428	0.6667	INK	16	Neutral	xxxxx	xxxxx	zielony	green	hit	n/a
74.5818	n/a	RESPONSE	n/a	n/a	n/a	n/a	n/a	n/a	n/a	green
74.6094	1.0167	ITI	n/a	n/a	n/a	n/a	n/a	n/a	n/a	n/a
75.6261	0.5167	FIXCROSS	n/a	n/a	n/a	n/a	n/a	n/a	n/a	n/a
76.1428	0.65	INK	17	Neutral	xxxxxxxxx	xxxxxxxxx	zielony	green	hit	n/a
76.7562	n/a	RESPONSE	n/a	n/a	n/a	n/a	n/a	n/a	n/a	green
76.7928	1.0167	ITI	n/a	n/a	n/a	n/a	n/a	n/a	n/a	n/a
77.8095	0.5167	FIXCROSS	n/a	n/a	n/a	n/a	n/a	n/a	n/a	n/a
78.3261	0.7167	INK	18	Incongruent	niebieski	blue	czerwony	red	hit	n/a
79.0104	n/a	RESPONSE	n/a	n/a	n/a	n/a	n/a	n/a	n/a	red
79.0428	1.0167	ITI	n/a	n/a	n/a	n/a	n/a	n/a	n/a	n/a
80.0595	0.5167	FIXCROSS	n/a	n/a	n/a	n/a	n/a	n/a	n/a	n/a
80.5762	0.55	INK	19	Neutral	xxxxxxx	xxxxxxx	czerwony	red	hit	n/a
81.1048	n/a	RESPONSE	n/a	n/a	n/a	n/a	n/a	n/a	n/a	red
81.1262	1.0167	ITI	n/a	n/a	n/a	n/a	n/a	n/a	n/a	n/a
82.1429	0.5167	FIXCROSS	n/a	n/a	n/a	n/a	n/a	n/a	n/a	n/a
82.6595	0.8167	INK	20	Incongruent	żółty	yellow	zielony	green	hit	n/a
83.4549	n/a	RESPONSE	n/a	n/a	n/a	n/a	n/a	n/a	n/a	green
83.4762	1.0167	ITI	n/a	n/a	n/a	n/a	n/a	n/a	n/a	n/a
84.4929	0.5167	FIXCROSS	n/a	n/a	n/a	n/a	n/a	n/a	n/a	n/a
85.0096	0.65	INK	21	Neutral	xxxxxxxx	xxxxxxxx	niebieski	blue	hit	n/a
85.6293	n/a	RESPONSE	n/a	n/a	n/a	n/a	n/a	n/a	n/a	blue
85.6596	1.0167	ITI	n/a	n/a	n/a	n/a	n/a	n/a	n/a	n/a
86.6762	0.5167	FIXCROSS	n/a	n/a	n/a	n/a	n/a	n/a	n/a	n/a
87.1929	0.5333	INK	22	Neutral	xxxxxxx	xxxxxxx	czerwony	red	hit	n/a
87.7077	n/a	RESPONSE	n/a	n/a	n/a	n/a	n/a	n/a	n/a	red
87.7262	1.0167	ITI	n/a	n/a	n/a	n/a	n/a	n/a	n/a	n/a
88.7429	0.5167	FIXCROSS	n/a	n/a	n/a	n/a	n/a	n/a	n/a	n/a
89.2596	0.6667	INK	23	Neutral	xxxxxxxxx	xxxxxxxxx	zielony	green	hit	n/a
89.8979	n/a	RESPONSE	n/a	n/a	n/a	n/a	n/a	n/a	n/a	green
89.9263	1.0167	ITI	n/a	n/a	n/a	n/a	n/a	n/a	n/a	n/a
90.943	0.5167	FIXCROSS	n/a	n/a	n/a	n/a	n/a	n/a	n/a	n/a
91.4596	0.7833	INK	24	Incongruent	żółty	yellow	czerwony	red	hit	n/a
92.2161	n/a	RESPONSE	n/a	n/a	n/a	n/a	n/a	n/a	n/a	red
92.243	1.0167	ITI	n/a	n/a	n/a	n/a	n/a	n/a	n/a	n/a
93.2597	0.5167	FIXCROSS	n/a	n/a	n/a	n/a	n/a	n/a	n/a	n/a
93.7763	0.7333	INK	25	Neutral	xxxxxxxxx	xxxxxxxxx	żółty	yellow	hit	n/a
94.4863	n/a	RESPONSE	n/a	n/a	n/a	n/a	n/a	n/a	n/a	yellow
94.5097	1.0167	ITI	n/a	n/a	n/a	n/a	n/a	n/a	n/a	n/a
95.5263	0.5167	FIXCROSS	n/a	n/a	n/a	n/a	n/a	n/a	n/a	n/a
96.043	0.7667	INK	26	Incongruent	żółty	yellow	zielony	green	hit	n/a
96.7885	n/a	RESPONSE	n/a	n/a	n/a	n/a	n/a	n/a	n/a	green
96.8097	1.0167	ITI	n/a	n/a	n/a	n/a	n/a	n/a	n/a	n/a
97.8264	0.5167	FIXCROSS	n/a	n/a	n/a	n/a	n/a	n/a	n/a	n/a
98.343	0.6667	INK	27	Neutral	xxxxx	xxxxx	niebieski	blue	hit	n/a
98.9788	n/a	RESPONSE	n/a	n/a	n/a	n/a	n/a	n/a	n/a	blue
99.0097	1.0167	ITI	n/a	n/a	n/a	n/a	n/a	n/a	n/a	n/a
100.0264	0.5167	FIXCROSS	n/a	n/a	n/a	n/a	n/a	n/a	n/a	n/a
100.5431	0.6	INK	28	Neutral	xxxxx	xxxxx	zielony	green	hit	n/a
101.1211	n/a	RESPONSE	n/a	n/a	n/a	n/a	n/a	n/a	n/a	green
101.1431	1.0167	ITI	n/a	n/a	n/a	n/a	n/a	n/a	n/a	n/a
102.1597	0.5167	FIXCROSS	n/a	n/a	n/a	n/a	n/a	n/a	n/a	n/a
102.6764	0.6667	INK	29	Neutral	xxxxxxx	xxxxxxx	niebieski	blue	hit	n/a
103.3115	n/a	RESPONSE	n/a	n/a	n/a	n/a	n/a	n/a	n/a	blue
103.3431	1.0167	ITI	n/a	n/a	n/a	n/a	n/a	n/a	n/a	n/a
104.3598	0.5167	FIXCROSS	n/a	n/a	n/a	n/a	n/a	n/a	n/a	n/a
104.8764	0.6833	INK	30	Neutral	xxxxx	xxxxx	niebieski	blue	hit	n/a
105.5337	n/a	RESPONSE	n/a	n/a	n/a	n/a	n/a	n/a	n/a	blue
105.5598	1.0167	ITI	n/a	n/a	n/a	n/a	n/a	n/a	n/a	n/a
106.5765	0.5167	FIXCROSS	n/a	n/a	n/a	n/a	n/a	n/a	n/a	n/a
107.0931	0.6167	INK	31	Neutral	xxxxxxxx	xxxxxxxx	żółty	yellow	hit	n/a
107.6921	n/a	RESPONSE	n/a	n/a	n/a	n/a	n/a	n/a	n/a	yellow
107.7098	1.0167	ITI	n/a	n/a	n/a	n/a	n/a	n/a	n/a	n/a
108.7265	0.5167	FIXCROSS	n/a	n/a	n/a	n/a	n/a	n/a	n/a	n/a
109.2432	0.9	INK	32	Incongruent	żółty	yellow	zielony	green	hit	n/a
110.1222	n/a	RESPONSE	n/a	n/a	n/a	n/a	n/a	n/a	n/a	green
110.1432	1.0167	ITI	n/a	n/a	n/a	n/a	n/a	n/a	n/a	n/a
111.1598	0.5167	FIXCROSS	n/a	n/a	n/a	n/a	n/a	n/a	n/a	n/a
111.6765	0.7667	INK	33	Incongruent	niebieski	blue	zielony	green	hit	n/a
112.4244	n/a	RESPONSE	n/a	n/a	n/a	n/a	n/a	n/a	n/a	green
112.4432	1.0167	ITI	n/a	n/a	n/a	n/a	n/a	n/a	n/a	n/a
113.4599	0.5167	FIXCROSS	n/a	n/a	n/a	n/a	n/a	n/a	n/a	n/a
113.9766	0.7667	INK	34	Incongruent	żółty	yellow	czerwony	red	hit	n/a
114.7106	n/a	RESPONSE	n/a	n/a	n/a	n/a	n/a	n/a	n/a	red
114.7432	1.0167	ITI	n/a	n/a	n/a	n/a	n/a	n/a	n/a	n/a
115.7599	0.5167	FIXCROSS	n/a	n/a	n/a	n/a	n/a	n/a	n/a	n/a
116.2766	0.7	INK	35	Incongruent	czerwony	red	zielony	green	hit	n/a
116.9489	n/a	RESPONSE	n/a	n/a	n/a	n/a	n/a	n/a	n/a	green
116.9766	1.0167	ITI	n/a	n/a	n/a	n/a	n/a	n/a	n/a	n/a
117.9933	0.5167	FIXCROSS	n/a	n/a	n/a	n/a	n/a	n/a	n/a	n/a
118.5099	0.7667	INK	36	Neutral	xxxxxxxxx	xxxxxxxxx	czerwony	red	hit	n/a
119.251	n/a	RESPONSE	n/a	n/a	n/a	n/a	n/a	n/a	n/a	red
119.2766	1.0167	ITI	n/a	n/a	n/a	n/a	n/a	n/a	n/a	n/a
120.2933	0.5167	FIXCROSS	n/a	n/a	n/a	n/a	n/a	n/a	n/a	n/a
120.81	0.7167	INK	37	Neutral	xxxxxxxx	xxxxxxxx	zielony	green	hit	n/a
121.5052	n/a	RESPONSE	n/a	n/a	n/a	n/a	n/a	n/a	n/a	green
121.5266	1.0167	ITI	n/a	n/a	n/a	n/a	n/a	n/a	n/a	n/a
122.5433	0.5167	FIXCROSS	n/a	n/a	n/a	n/a	n/a	n/a	n/a	n/a
123.06	0.7833	INK	38	Incongruent	czerwony	red	niebieski	blue	hit	n/a
123.8234	n/a	RESPONSE	n/a	n/a	n/a	n/a	n/a	n/a	n/a	blue
123.8433	1.0167	ITI	n/a	n/a	n/a	n/a	n/a	n/a	n/a	n/a
124.86	0.5167	FIXCROSS	n/a	n/a	n/a	n/a	n/a	n/a	n/a	n/a
125.3767	0.75	INK	39	Neutral	xxxxxxx	xxxxxxx	czerwony	red	hit	n/a
126.0937	n/a	RESPONSE	n/a	n/a	n/a	n/a	n/a	n/a	n/a	red
126.1267	1.0167	ITI	n/a	n/a	n/a	n/a	n/a	n/a	n/a	n/a
127.1434	0.5167	FIXCROSS	n/a	n/a	n/a	n/a	n/a	n/a	n/a	n/a
127.66	0.8667	INK	40	Incongruent	czerwony	red	żółty	yellow	hit	n/a
128.5078	n/a	RESPONSE	n/a	n/a	n/a	n/a	n/a	n/a	n/a	yellow
128.5267	1.0167	ITI	n/a	n/a	n/a	n/a	n/a	n/a	n/a	n/a
129.5434	0.5167	FIXCROSS	n/a	n/a	n/a	n/a	n/a	n/a	n/a	n/a
130.0601	0.6833	INK	41	Incongruent	czerwony	red	niebieski	blue	hit	n/a
130.714	n/a	RESPONSE	n/a	n/a	n/a	n/a	n/a	n/a	n/a	blue
130.7434	1.0167	ITI	n/a	n/a	n/a	n/a	n/a	n/a	n/a	n/a
131.7601	0.5167	FIXCROSS	n/a	n/a	n/a	n/a	n/a	n/a	n/a	n/a
132.2768	0.55	INK	42	Neutral	xxxxxxx	xxxxxxx	niebieski	blue	hit	n/a
132.8084	n/a	RESPONSE	n/a	n/a	n/a	n/a	n/a	n/a	n/a	blue
132.8268	1.0167	ITI	n/a	n/a	n/a	n/a	n/a	n/a	n/a	n/a
133.8434	0.5167	FIXCROSS	n/a	n/a	n/a	n/a	n/a	n/a	n/a	n/a
134.3601	0.8	INK	43	Neutral	xxxxxxxxx	xxxxxxxxx	czerwony	red	hit	n/a
135.1426	n/a	RESPONSE	n/a	n/a	n/a	n/a	n/a	n/a	n/a	red
135.1601	1.0167	ITI	n/a	n/a	n/a	n/a	n/a	n/a	n/a	n/a
136.1768	0.5167	FIXCROSS	n/a	n/a	n/a	n/a	n/a	n/a	n/a	n/a
136.6935	0.6667	INK	44	Neutral	xxxxx	xxxxx	zielony	green	hit	n/a
137.333	n/a	RESPONSE	n/a	n/a	n/a	n/a	n/a	n/a	n/a	green
137.3601	1.0167	ITI	n/a	n/a	n/a	n/a	n/a	n/a	n/a	n/a
138.3768	0.5167	FIXCROSS	n/a	n/a	n/a	n/a	n/a	n/a	n/a	n/a
138.8935	0.6667	INK	45	Neutral	xxxxxxxx	xxxxxxxx	niebieski	blue	hit	n/a
139.5392	n/a	RESPONSE	n/a	n/a	n/a	n/a	n/a	n/a	n/a	blue
139.5602	1.0167	ITI	n/a	n/a	n/a	n/a	n/a	n/a	n/a	n/a
140.5768	0.5167	FIXCROSS	n/a	n/a	n/a	n/a	n/a	n/a	n/a	n/a
141.0935	0.75	INK	46	Neutral	xxxxxxxx	xxxxxxxx	żółty	yellow	hit	n/a
141.8254	n/a	RESPONSE	n/a	n/a	n/a	n/a	n/a	n/a	n/a	yellow
141.8435	1.0167	ITI	n/a	n/a	n/a	n/a	n/a	n/a	n/a	n/a
142.8602	0.5167	FIXCROSS	n/a	n/a	n/a	n/a	n/a	n/a	n/a	n/a
143.3769	0.6333	INK	47	Incongruent	niebieski	blue	czerwony	red	hit	n/a
143.9838	n/a	RESPONSE	n/a	n/a	n/a	n/a	n/a	n/a	n/a	red
144.0102	1.0167	ITI	n/a	n/a	n/a	n/a	n/a	n/a	n/a	n/a
145.0269	0.5167	FIXCROSS	n/a	n/a	n/a	n/a	n/a	n/a	n/a	n/a
145.5436	0.8667	INK	48	Incongruent	czerwony	red	zielony	green	hit	n/a
146.3819	n/a	RESPONSE	n/a	n/a	n/a	n/a	n/a	n/a	n/a	green
146.4102	1.0167	ITI	n/a	n/a	n/a	n/a	n/a	n/a	n/a	n/a
147.4269	0.5167	FIXCROSS	n/a	n/a	n/a	n/a	n/a	n/a	n/a	n/a
147.9436	0.7333	INK	49	Neutral	xxxxxxxxx	xxxxxxxxx	żółty	yellow	hit	n/a
148.6521	n/a	RESPONSE	n/a	n/a	n/a	n/a	n/a	n/a	n/a	yellow
148.6769	1.0167	ITI	n/a	n/a	n/a	n/a	n/a	n/a	n/a	n/a
149.6936	0.5167	FIXCROSS	n/a	n/a	n/a	n/a	n/a	n/a	n/a	n/a
150.2103	0.6	INK	50	Incongruent	niebieski	blue	żółty	yellow	hit	n/a
150.7785	n/a	RESPONSE	n/a	n/a	n/a	n/a	n/a	n/a	n/a	yellow
150.8103	1.0167	ITI	n/a	n/a	n/a	n/a	n/a	n/a	n/a	n/a
151.827	0.5167	FIXCROSS	n/a	n/a	n/a	n/a	n/a	n/a	n/a	n/a
152.3436	0.6333	INK	51	Neutral	xxxxxxx	xxxxxxx	żółty	yellow	hit	n/a
152.9527	n/a	RESPONSE	n/a	n/a	n/a	n/a	n/a	n/a	n/a	yellow
152.977	1.0167	ITI	n/a	n/a	n/a	n/a	n/a	n/a	n/a	n/a
153.9937	0.5167	FIXCROSS	n/a	n/a	n/a	n/a	n/a	n/a	n/a	n/a
154.5103	0.8333	INK	52	Incongruent	niebieski	blue	zielony	green	hit	n/a
155.3189	n/a	RESPONSE	n/a	n/a	n/a	n/a	n/a	n/a	n/a	green
155.3437	1.0167	ITI	n/a	n/a	n/a	n/a	n/a	n/a	n/a	n/a
156.3604	0.5167	FIXCROSS	n/a	n/a	n/a	n/a	n/a	n/a	n/a	n/a
156.877	0.6	INK	53	Neutral	xxxxxxxx	xxxxxxxx	zielony	green	hit	n/a
157.4452	n/a	RESPONSE	n/a	n/a	n/a	n/a	n/a	n/a	n/a	green
157.477	1.0167	ITI	n/a	n/a	n/a	n/a	n/a	n/a	n/a	n/a
158.4937	0.5167	FIXCROSS	n/a	n/a	n/a	n/a	n/a	n/a	n/a	n/a
159.0104	0.7	INK	54	Incongruent	żółty	yellow	niebieski	blue	hit	n/a
159.6836	n/a	RESPONSE	n/a	n/a	n/a	n/a	n/a	n/a	n/a	blue
159.7104	1.0167	ITI	n/a	n/a	n/a	n/a	n/a	n/a	n/a	n/a
160.7271	0.5167	FIXCROSS	n/a	n/a	n/a	n/a	n/a	n/a	n/a	n/a
161.2437	0.7	INK	55	Incongruent	zielony	green	niebieski	blue	hit	n/a
161.9218	n/a	RESPONSE	n/a	n/a	n/a	n/a	n/a	n/a	n/a	blue
161.9437	1.0167	ITI	n/a	n/a	n/a	n/a	n/a	n/a	n/a	n/a
162.9604	0.5167	FIXCROSS	n/a	n/a	n/a	n/a	n/a	n/a	n/a	n/a
163.4771	0.7667	INK	56	Incongruent	czerwony	red	niebieski	blue	hit	n/a
164.224	n/a	RESPONSE	n/a	n/a	n/a	n/a	n/a	n/a	n/a	blue
164.2438	1.0167	ITI	n/a	n/a	n/a	n/a	n/a	n/a	n/a	n/a
165.2604	0.5167	FIXCROSS	n/a	n/a	n/a	n/a	n/a	n/a	n/a	n/a
165.7771	0.7833	INK	57	Incongruent	zielony	green	czerwony	red	hit	n/a
166.5421	n/a	RESPONSE	n/a	n/a	n/a	n/a	n/a	n/a	n/a	red
166.5605	1.0167	ITI	n/a	n/a	n/a	n/a	n/a	n/a	n/a	n/a
167.5771	0.5167	FIXCROSS	n/a	n/a	n/a	n/a	n/a	n/a	n/a	n/a
168.0938	0.5667	INK	58	Incongruent	zielony	green	żółty	yellow	hit	n/a
168.6366	n/a	RESPONSE	n/a	n/a	n/a	n/a	n/a	n/a	n/a	yellow
168.6605	1.0167	ITI	n/a	n/a	n/a	n/a	n/a	n/a	n/a	n/a
169.6772	0.5167	FIXCROSS	n/a	n/a	n/a	n/a	n/a	n/a	n/a	n/a
170.1938	0.6167	INK	59	Neutral	xxxxxxx	xxxxxxx	żółty	yellow	hit	n/a
170.7789	n/a	RESPONSE	n/a	n/a	n/a	n/a	n/a	n/a	n/a	yellow
170.8105	1.0167	ITI	n/a	n/a	n/a	n/a	n/a	n/a	n/a	n/a
171.8272	0.5167	FIXCROSS	n/a	n/a	n/a	n/a	n/a	n/a	n/a	n/a
172.3439	0.7167	INK	60	Neutral	xxxxx	xxxxx	czerwony	red	hit	n/a
173.0331	n/a	RESPONSE	n/a	n/a	n/a	n/a	n/a	n/a	n/a	red
173.0605	1.0167	ITI	n/a	n/a	n/a	n/a	n/a	n/a	n/a	n/a
174.0772	0.5167	FIXCROSS	n/a	n/a	n/a	n/a	n/a	n/a	n/a	n/a
174.5939	0.5833	INK	61	Neutral	xxxxxxx	xxxxxxx	żółty	yellow	hit	n/a
175.1435	n/a	RESPONSE	n/a	n/a	n/a	n/a	n/a	n/a	n/a	yellow
175.1772	1.0167	ITI	n/a	n/a	n/a	n/a	n/a	n/a	n/a	n/a
176.1939	0.5167	FIXCROSS	n/a	n/a	n/a	n/a	n/a	n/a	n/a	n/a
176.7106	0.6167	INK	62	Incongruent	niebieski	blue	żółty	yellow	hit	n/a
177.3018	n/a	RESPONSE	n/a	n/a	n/a	n/a	n/a	n/a	n/a	yellow
177.3273	1.0167	ITI	n/a	n/a	n/a	n/a	n/a	n/a	n/a	n/a
178.3439	0.5167	FIXCROSS	n/a	n/a	n/a	n/a	n/a	n/a	n/a	n/a
178.8606	0.6833	INK	63	Incongruent	żółty	yellow	niebieski	blue	hit	n/a
179.524	n/a	RESPONSE	n/a	n/a	n/a	n/a	n/a	n/a	n/a	blue
179.5439	1.0167	ITI	n/a	n/a	n/a	n/a	n/a	n/a	n/a	n/a
180.5606	0.5167	FIXCROSS	n/a	n/a	n/a	n/a	n/a	n/a	n/a	n/a
181.0773	0.7667	INK	64	Incongruent	żółty	yellow	czerwony	red	hit	n/a
181.8103	n/a	RESPONSE	n/a	n/a	n/a	n/a	n/a	n/a	n/a	red
181.844	1.0167	ITI	n/a	n/a	n/a	n/a	n/a	n/a	n/a	n/a
182.8607	0.5167	FIXCROSS	n/a	n/a	n/a	n/a	n/a	n/a	n/a	n/a
183.3773	0.8167	INK	65	Neutral	xxxxx	xxxxx	niebieski	blue	hit	n/a
184.1604	n/a	RESPONSE	n/a	n/a	n/a	n/a	n/a	n/a	n/a	blue
184.194	1.0167	ITI	n/a	n/a	n/a	n/a	n/a	n/a	n/a	n/a
185.2107	0.5167	FIXCROSS	n/a	n/a	n/a	n/a	n/a	n/a	n/a	n/a
185.7273	0.6833	INK	66	Neutral	xxxxx	xxxxx	czerwony	red	hit	n/a
186.3828	n/a	RESPONSE	n/a	n/a	n/a	n/a	n/a	n/a	n/a	red
186.4107	1.0167	ITI	n/a	n/a	n/a	n/a	n/a	n/a	n/a	n/a
187.4274	0.5167	FIXCROSS	n/a	n/a	n/a	n/a	n/a	n/a	n/a	n/a
187.944	0.6833	INK	67	Neutral	xxxxxxx	xxxxxxx	niebieski	blue	hit	n/a
188.605	n/a	RESPONSE	n/a	n/a	n/a	n/a	n/a	n/a	n/a	blue
188.6274	1.0167	ITI	n/a	n/a	n/a	n/a	n/a	n/a	n/a	n/a
189.644	0.5167	FIXCROSS	n/a	n/a	n/a	n/a	n/a	n/a	n/a	n/a
190.1607	0.75	INK	68	Incongruent	niebieski	blue	żółty	yellow	hit	n/a
190.8912	n/a	RESPONSE	n/a	n/a	n/a	n/a	n/a	n/a	n/a	yellow
190.9107	1.0167	ITI	n/a	n/a	n/a	n/a	n/a	n/a	n/a	n/a
191.9274	0.5167	FIXCROSS	n/a	n/a	n/a	n/a	n/a	n/a	n/a	n/a
192.4441	0.7667	INK	69	Incongruent	niebieski	blue	czerwony	red	hit	n/a
193.1773	n/a	RESPONSE	n/a	n/a	n/a	n/a	n/a	n/a	n/a	red
193.2108	1.0167	ITI	n/a	n/a	n/a	n/a	n/a	n/a	n/a	n/a
194.2274	0.5167	FIXCROSS	n/a	n/a	n/a	n/a	n/a	n/a	n/a	n/a
194.7441	0.6	INK	70	Incongruent	zielony	green	niebieski	blue	hit	n/a
195.3196	n/a	RESPONSE	n/a	n/a	n/a	n/a	n/a	n/a	n/a	blue
195.3441	1.0167	ITI	n/a	n/a	n/a	n/a	n/a	n/a	n/a	n/a
196.3608	0.5167	FIXCROSS	n/a	n/a	n/a	n/a	n/a	n/a	n/a	n/a
196.8775	0.6	INK	71	Incongruent	zielony	green	żółty	yellow	hit	n/a
197.446	n/a	RESPONSE	n/a	n/a	n/a	n/a	n/a	n/a	n/a	yellow
197.4775	1.0167	ITI	n/a	n/a	n/a	n/a	n/a	n/a	n/a	n/a
198.4941	0.5167	FIXCROSS	n/a	n/a	n/a	n/a	n/a	n/a	n/a	n/a
199.0108	0.55	INK	72	Neutral	xxxxxxxxx	xxxxxxxxx	żółty	yellow	hit	n/a
199.5404	n/a	RESPONSE	n/a	n/a	n/a	n/a	n/a	n/a	n/a	yellow
199.5608	1.0833	ITI	n/a	n/a	n/a	n/a	n/a	n/a	n/a	n/a
202.3542	n/a	RESPONSE	n/a	n/a	n/a	n/a	n/a	n/a	n/a	n/a
202.3775	1.0	ITI	n/a	n/a	n/a	n/a	n/a	n/a	n/a	n/a
203.3775	0.5	FIXCROSS	n/a	n/a	n/a	n/a	n/a	n/a	n/a	n/a
203.8775	1.2667	T_COLOR_NAME	1	Neutral	żółty	yellow	Neutral	Neutral	hit	n/a
205.136	n/a	RESPONSE	n/a	n/a	n/a	n/a	n/a	n/a	n/a	yellow
205.1442	0.5	FEEDBACK	n/a	n/a	n/a	n/a	n/a	n/a	n/a	n/a
205.6442	1.0167	ITI	n/a	n/a	n/a	n/a	n/a	n/a	n/a	n/a
206.6609	0.5167	FIXCROSS	n/a	n/a	n/a	n/a	n/a	n/a	n/a	n/a
207.1776	0.8333	T_COLOR_NAME	2	Neutral	czerwony	red	Neutral	Neutral	hit	n/a
207.9818	n/a	RESPONSE	n/a	n/a	n/a	n/a	n/a	n/a	n/a	red
208.0109	0.5167	FEEDBACK	n/a	n/a	n/a	n/a	n/a	n/a	n/a	n/a
208.5276	1.0167	ITI	n/a	n/a	n/a	n/a	n/a	n/a	n/a	n/a
209.5443	0.5167	FIXCROSS	n/a	n/a	n/a	n/a	n/a	n/a	n/a	n/a
210.0609	0.95	T_COLOR_NAME	3	Neutral	niebieski	blue	Neutral	Neutral	hit	n/a
210.9874	n/a	RESPONSE	n/a	n/a	n/a	n/a	n/a	n/a	n/a	blue
211.011	0.5167	FEEDBACK	n/a	n/a	n/a	n/a	n/a	n/a	n/a	n/a
211.5276	1.0167	ITI	n/a	n/a	n/a	n/a	n/a	n/a	n/a	n/a
212.5443	0.5167	FIXCROSS	n/a	n/a	n/a	n/a	n/a	n/a	n/a	n/a
213.061	0.8	T_COLOR_NAME	4	Neutral	zielony	green	Neutral	Neutral	hit	n/a
213.8333	n/a	RESPONSE	n/a	n/a	n/a	n/a	n/a	n/a	n/a	green
213.861	0.5167	FEEDBACK	n/a	n/a	n/a	n/a	n/a	n/a	n/a	n/a
214.3777	1.0167	ITI	n/a	n/a	n/a	n/a	n/a	n/a	n/a	n/a
215.3943	0.5167	FIXCROSS	n/a	n/a	n/a	n/a	n/a	n/a	n/a	n/a
215.911	0.6667	T_COLOR_NAME	5	Neutral	żółty	yellow	Neutral	Neutral	hit	n/a
216.5511	n/a	RESPONSE	n/a	n/a	n/a	n/a	n/a	n/a	n/a	yellow
216.5777	0.5167	FEEDBACK	n/a	n/a	n/a	n/a	n/a	n/a	n/a	n/a
217.0944	1.0167	ITI	n/a	n/a	n/a	n/a	n/a	n/a	n/a	n/a
218.111	0.5167	FIXCROSS	n/a	n/a	n/a	n/a	n/a	n/a	n/a	n/a
218.6277	1.3	T_COLOR_NAME	6	Incongruent	zielony	green	żółty	yellow	hit	n/a
219.8924	n/a	RESPONSE	n/a	n/a	n/a	n/a	n/a	n/a	n/a	green
219.9277	0.5167	FEEDBACK	n/a	n/a	n/a	n/a	n/a	n/a	n/a	n/a
220.4444	1.0167	ITI	n/a	n/a	n/a	n/a	n/a	n/a	n/a	n/a
221.4611	0.5167	FIXCROSS	n/a	n/a	n/a	n/a	n/a	n/a	n/a	n/a
221.9778	0.7	T_COLOR_NAME	7	Incongruent	zielony	green	niebieski	blue	hit	n/a
222.6583	n/a	RESPONSE	n/a	n/a	n/a	n/a	n/a	n/a	n/a	green
222.6778	0.5167	FEEDBACK	n/a	n/a	n/a	n/a	n/a	n/a	n/a	n/a
223.1944	1.0167	ITI	n/a	n/a	n/a	n/a	n/a	n/a	n/a	n/a
224.2111	0.5167	FIXCROSS	n/a	n/a	n/a	n/a	n/a	n/a	n/a	n/a
224.7278	0.8167	T_COLOR_NAME	8	Incongruent	żółty	yellow	czerwony	red	hit	n/a
225.5201	n/a	RESPONSE	n/a	n/a	n/a	n/a	n/a	n/a	n/a	yellow
225.5445	0.5167	FEEDBACK	n/a	n/a	n/a	n/a	n/a	n/a	n/a	n/a
226.0611	1.0167	ITI	n/a	n/a	n/a	n/a	n/a	n/a	n/a	n/a
227.0778	0.5167	FIXCROSS	n/a	n/a	n/a	n/a	n/a	n/a	n/a	n/a
227.5945	1.5167	T_COLOR_NAME	9	Neutral	zielony	green	Neutral	Neutral	hit	n/a
229.0853	n/a	RESPONSE	n/a	n/a	n/a	n/a	n/a	n/a	n/a	green
229.1112	0.5167	FEEDBACK	n/a	n/a	n/a	n/a	n/a	n/a	n/a	n/a
229.6278	1.0167	ITI	n/a	n/a	n/a	n/a	n/a	n/a	n/a	n/a
230.6445	0.5167	FIXCROSS	n/a	n/a	n/a	n/a	n/a	n/a	n/a	n/a
231.1612	0.75	T_COLOR_NAME	10	Incongruent	czerwony	red	niebieski	blue	hit	n/a
231.899	n/a	RESPONSE	n/a	n/a	n/a	n/a	n/a	n/a	n/a	red
231.9112	0.5	FEEDBACK	n/a	n/a	n/a	n/a	n/a	n/a	n/a	n/a
232.4112	1.0	ITI	n/a	n/a	n/a	n/a	n/a	n/a	n/a	n/a
233.4112	0.5	FIXCROSS	n/a	n/a	n/a	n/a	n/a	n/a	n/a	n/a
233.9112	0.45	T_COLOR_NAME	11	Neutral	czerwony	red	Neutral	Neutral	hit	n/a
234.345	n/a	RESPONSE	n/a	n/a	n/a	n/a	n/a	n/a	n/a	red
234.3612	0.5	FEEDBACK	n/a	n/a	n/a	n/a	n/a	n/a	n/a	n/a
234.8612	1.0	ITI	n/a	n/a	n/a	n/a	n/a	n/a	n/a	n/a
235.8612	0.5	FIXCROSS	n/a	n/a	n/a	n/a	n/a	n/a	n/a	n/a
236.3612	0.9	T_COLOR_NAME	12	Neutral	niebieski	blue	Neutral	Neutral	hit	n/a
237.2547	n/a	RESPONSE	n/a	n/a	n/a	n/a	n/a	n/a	n/a	blue
237.2613	0.5167	FEEDBACK	n/a	n/a	n/a	n/a	n/a	n/a	n/a	n/a
237.7779	1.0334	ITI	n/a	n/a	n/a	n/a	n/a	n/a	n/a	n/a
239.9407	n/a	RESPONSE	n/a	n/a	n/a	n/a	n/a	n/a	n/a	n/a
239.9946	1.0167	ITI	n/a	n/a	n/a	n/a	n/a	n/a	n/a	n/a
241.0113	0.5167	FIXCROSS	n/a	n/a	n/a	n/a	n/a	n/a	n/a	n/a
241.528	1.0834	COLOR_NAME	1	Incongruent	niebieski	blue	zielony	green	hit	n/a
242.5786	n/a	RESPONSE	n/a	n/a	n/a	n/a	n/a	n/a	n/a	blue
242.6113	1.0167	ITI	n/a	n/a	n/a	n/a	n/a	n/a	n/a	n/a
243.628	0.5167	FIXCROSS	n/a	n/a	n/a	n/a	n/a	n/a	n/a	n/a
244.1447	0.5833	COLOR_NAME	2	Incongruent	niebieski	blue	żółty	yellow	hit	n/a
244.7049	n/a	RESPONSE	n/a	n/a	n/a	n/a	n/a	n/a	n/a	blue
244.728	1.0167	ITI	n/a	n/a	n/a	n/a	n/a	n/a	n/a	n/a
245.7447	0.5167	FIXCROSS	n/a	n/a	n/a	n/a	n/a	n/a	n/a	n/a
246.2614	0.7833	COLOR_NAME	3	Incongruent	żółty	yellow	niebieski	blue	hit	n/a
247.0231	n/a	RESPONSE	n/a	n/a	n/a	n/a	n/a	n/a	n/a	yellow
247.0447	1.0167	ITI	n/a	n/a	n/a	n/a	n/a	n/a	n/a	n/a
248.0614	0.5167	FIXCROSS	n/a	n/a	n/a	n/a	n/a	n/a	n/a	n/a
248.578	1.2834	COLOR_NAME	4	Incongruent	niebieski	blue	zielony	green	hit	n/a
249.8369	n/a	RESPONSE	n/a	n/a	n/a	n/a	n/a	n/a	n/a	blue
249.8614	1.0167	ITI	n/a	n/a	n/a	n/a	n/a	n/a	n/a	n/a
250.8781	0.5167	FIXCROSS	n/a	n/a	n/a	n/a	n/a	n/a	n/a	n/a
251.3947	0.7333	COLOR_NAME	5	Neutral	żółty	yellow	Neutral	Neutral	hit	n/a
252.1071	n/a	RESPONSE	n/a	n/a	n/a	n/a	n/a	n/a	n/a	yellow
252.1281	1.0167	ITI	n/a	n/a	n/a	n/a	n/a	n/a	n/a	n/a
253.1448	0.5167	FIXCROSS	n/a	n/a	n/a	n/a	n/a	n/a	n/a	n/a
253.6614	0.7167	COLOR_NAME	6	Incongruent	czerwony	red	żółty	yellow	hit	n/a
254.3454	n/a	RESPONSE	n/a	n/a	n/a	n/a	n/a	n/a	n/a	red
254.3781	1.0167	ITI	n/a	n/a	n/a	n/a	n/a	n/a	n/a	n/a
255.3948	0.5167	FIXCROSS	n/a	n/a	n/a	n/a	n/a	n/a	n/a	n/a
255.9115	0.8333	COLOR_NAME	7	Incongruent	zielony	green	niebieski	blue	hit	n/a
256.7115	n/a	RESPONSE	n/a	n/a	n/a	n/a	n/a	n/a	n/a	green
256.7448	1.0167	ITI	n/a	n/a	n/a	n/a	n/a	n/a	n/a	n/a
257.7615	0.5167	FIXCROSS	n/a	n/a	n/a	n/a	n/a	n/a	n/a	n/a
258.2781	0.65	COLOR_NAME	8	Neutral	żółty	yellow	Neutral	Neutral	hit	n/a
258.9018	n/a	RESPONSE	n/a	n/a	n/a	n/a	n/a	n/a	n/a	yellow
258.9282	1.0167	ITI	n/a	n/a	n/a	n/a	n/a	n/a	n/a	n/a
259.9448	0.5167	FIXCROSS	n/a	n/a	n/a	n/a	n/a	n/a	n/a	n/a
260.4615	0.7334	COLOR_NAME	9	Incongruent	zielony	green	żółty	yellow	hit	n/a
261.172	n/a	RESPONSE	n/a	n/a	n/a	n/a	n/a	n/a	n/a	green
261.1949	1.0167	ITI	n/a	n/a	n/a	n/a	n/a	n/a	n/a	n/a
262.2115	0.5167	FIXCROSS	n/a	n/a	n/a	n/a	n/a	n/a	n/a	n/a
262.7282	0.7833	COLOR_NAME	10	Neutral	czerwony	red	Neutral	Neutral	hit	n/a
263.4902	n/a	RESPONSE	n/a	n/a	n/a	n/a	n/a	n/a	n/a	red
263.5115	1.0167	ITI	n/a	n/a	n/a	n/a	n/a	n/a	n/a	n/a
264.5282	0.5167	FIXCROSS	n/a	n/a	n/a	n/a	n/a	n/a	n/a	n/a
265.0449	0.6167	COLOR_NAME	11	Incongruent	żółty	yellow	niebieski	blue	hit	n/a
265.6325	n/a	RESPONSE	n/a	n/a	n/a	n/a	n/a	n/a	n/a	yellow
265.6616	1.0167	ITI	n/a	n/a	n/a	n/a	n/a	n/a	n/a	n/a
266.6782	0.5167	FIXCROSS	n/a	n/a	n/a	n/a	n/a	n/a	n/a	n/a
267.1949	0.6667	COLOR_NAME	12	Incongruent	żółty	yellow	niebieski	blue	hit	n/a
267.8388	n/a	RESPONSE	n/a	n/a	n/a	n/a	n/a	n/a	n/a	yellow
267.8616	1.0167	ITI	n/a	n/a	n/a	n/a	n/a	n/a	n/a	n/a
268.8783	0.5167	FIXCROSS	n/a	n/a	n/a	n/a	n/a	n/a	n/a	n/a
269.3949	0.7	COLOR_NAME	13	Incongruent	niebieski	blue	czerwony	red	incorrect	n/a
270.077	n/a	RESPONSE	n/a	n/a	n/a	n/a	n/a	n/a	n/a	green
270.0949	1.0167	ITI	n/a	n/a	n/a	n/a	n/a	n/a	n/a	n/a
271.1116	0.5167	FIXCROSS	n/a	n/a	n/a	n/a	n/a	n/a	n/a	n/a
271.6283	0.7167	COLOR_NAME	14	Neutral	żółty	yellow	Neutral	Neutral	hit	n/a
272.3152	n/a	RESPONSE	n/a	n/a	n/a	n/a	n/a	n/a	n/a	yellow
272.345	1.0167	ITI	n/a	n/a	n/a	n/a	n/a	n/a	n/a	n/a
273.3616	0.5167	FIXCROSS	n/a	n/a	n/a	n/a	n/a	n/a	n/a	n/a
273.8783	0.7334	COLOR_NAME	15	Neutral	czerwony	red	Neutral	Neutral	hit	n/a
274.5855	n/a	RESPONSE	n/a	n/a	n/a	n/a	n/a	n/a	n/a	red
274.6117	1.0167	ITI	n/a	n/a	n/a	n/a	n/a	n/a	n/a	n/a
275.6283	0.5167	FIXCROSS	n/a	n/a	n/a	n/a	n/a	n/a	n/a	n/a
276.145	0.8333	COLOR_NAME	16	Neutral	niebieski	blue	Neutral	Neutral	hit	n/a
276.9516	n/a	RESPONSE	n/a	n/a	n/a	n/a	n/a	n/a	n/a	blue
276.9784	1.0167	ITI	n/a	n/a	n/a	n/a	n/a	n/a	n/a	n/a
277.995	0.5167	FIXCROSS	n/a	n/a	n/a	n/a	n/a	n/a	n/a	n/a
278.5117	0.9	COLOR_NAME	17	Incongruent	zielony	green	żółty	yellow	hit	n/a
279.3816	n/a	RESPONSE	n/a	n/a	n/a	n/a	n/a	n/a	n/a	green
279.4117	1.0167	ITI	n/a	n/a	n/a	n/a	n/a	n/a	n/a	n/a
280.4284	0.5167	FIXCROSS	n/a	n/a	n/a	n/a	n/a	n/a	n/a	n/a
280.9451	0.7	COLOR_NAME	18	Neutral	niebieski	blue	Neutral	Neutral	hit	n/a
281.6199	n/a	RESPONSE	n/a	n/a	n/a	n/a	n/a	n/a	n/a	blue
281.6451	1.0167	ITI	n/a	n/a	n/a	n/a	n/a	n/a	n/a	n/a
282.6618	0.5167	FIXCROSS	n/a	n/a	n/a	n/a	n/a	n/a	n/a	n/a
283.1784	0.5834	COLOR_NAME	19	Neutral	zielony	green	Neutral	Neutral	hit	n/a
283.7303	n/a	RESPONSE	n/a	n/a	n/a	n/a	n/a	n/a	n/a	green
283.7618	1.0167	ITI	n/a	n/a	n/a	n/a	n/a	n/a	n/a	n/a
284.7784	0.5167	FIXCROSS	n/a	n/a	n/a	n/a	n/a	n/a	n/a	n/a
285.2951	0.8667	COLOR_NAME	20	Incongruent	żółty	yellow	czerwony	red	hit	n/a
286.1284	n/a	RESPONSE	n/a	n/a	n/a	n/a	n/a	n/a	n/a	yellow
286.1618	1.0167	ITI	n/a	n/a	n/a	n/a	n/a	n/a	n/a	n/a
287.1785	0.5167	FIXCROSS	n/a	n/a	n/a	n/a	n/a	n/a	n/a	n/a
287.6951	1.1	COLOR_NAME	21	Incongruent	zielony	green	czerwony	red	hit	n/a
288.7664	n/a	RESPONSE	n/a	n/a	n/a	n/a	n/a	n/a	n/a	green
288.7952	1.0167	ITI	n/a	n/a	n/a	n/a	n/a	n/a	n/a	n/a
289.8118	0.5167	FIXCROSS	n/a	n/a	n/a	n/a	n/a	n/a	n/a	n/a
290.3285	0.6833	COLOR_NAME	22	Neutral	czerwony	red	Neutral	Neutral	hit	n/a
290.9886	n/a	RESPONSE	n/a	n/a	n/a	n/a	n/a	n/a	n/a	red
291.0119	1.0167	ITI	n/a	n/a	n/a	n/a	n/a	n/a	n/a	n/a
292.0285	0.5167	FIXCROSS	n/a	n/a	n/a	n/a	n/a	n/a	n/a	n/a
292.5452	0.8667	COLOR_NAME	23	Incongruent	żółty	yellow	zielony	green	hit	n/a
293.3867	n/a	RESPONSE	n/a	n/a	n/a	n/a	n/a	n/a	n/a	yellow
293.4119	1.0167	ITI	n/a	n/a	n/a	n/a	n/a	n/a	n/a	n/a
294.4286	0.5167	FIXCROSS	n/a	n/a	n/a	n/a	n/a	n/a	n/a	n/a
294.9452	0.9	COLOR_NAME	24	Neutral	czerwony	red	Neutral	Neutral	hit	n/a
295.8168	n/a	RESPONSE	n/a	n/a	n/a	n/a	n/a	n/a	n/a	red
295.8452	1.0167	ITI	n/a	n/a	n/a	n/a	n/a	n/a	n/a	n/a
296.8619	0.5167	FIXCROSS	n/a	n/a	n/a	n/a	n/a	n/a	n/a	n/a
297.3786	0.8667	COLOR_NAME	25	Neutral	zielony	green	Neutral	Neutral	hit	n/a
298.215	n/a	RESPONSE	n/a	n/a	n/a	n/a	n/a	n/a	n/a	green
298.2453	1.0167	ITI	n/a	n/a	n/a	n/a	n/a	n/a	n/a	n/a
299.2619	0.5167	FIXCROSS	n/a	n/a	n/a	n/a	n/a	n/a	n/a	n/a
299.7786	0.9167	COLOR_NAME	26	Incongruent	niebieski	blue	zielony	green	hit	n/a
300.6609	n/a	RESPONSE	n/a	n/a	n/a	n/a	n/a	n/a	n/a	blue
300.6953	1.0167	ITI	n/a	n/a	n/a	n/a	n/a	n/a	n/a	n/a
301.712	0.5167	FIXCROSS	n/a	n/a	n/a	n/a	n/a	n/a	n/a	n/a
302.2286	1.4667	COLOR_NAME	27	Incongruent	niebieski	blue	czerwony	red	incorrect	n/a
303.6666	n/a	RESPONSE	n/a	n/a	n/a	n/a	n/a	n/a	n/a	red
303.6953	1.0167	ITI	n/a	n/a	n/a	n/a	n/a	n/a	n/a	n/a
304.712	0.5167	FIXCROSS	n/a	n/a	n/a	n/a	n/a	n/a	n/a	n/a
305.2287	1.0833	COLOR_NAME	28	Neutral	niebieski	blue	Neutral	Neutral	hit	n/a
306.2885	n/a	RESPONSE	n/a	n/a	n/a	n/a	n/a	n/a	n/a	blue
306.312	1.0167	ITI	n/a	n/a	n/a	n/a	n/a	n/a	n/a	n/a
307.3287	0.5167	FIXCROSS	n/a	n/a	n/a	n/a	n/a	n/a	n/a	n/a
307.8454	0.5	COLOR_NAME	29	Incongruent	niebieski	blue	czerwony	red	hit	n/a
308.319	n/a	RESPONSE	n/a	n/a	n/a	n/a	n/a	n/a	n/a	blue
308.3454	1.0167	ITI	n/a	n/a	n/a	n/a	n/a	n/a	n/a	n/a
309.362	0.5167	FIXCROSS	n/a	n/a	n/a	n/a	n/a	n/a	n/a	n/a
309.8787	0.9	COLOR_NAME	30	Neutral	czerwony	red	Neutral	Neutral	hit	n/a
310.7491	n/a	RESPONSE	n/a	n/a	n/a	n/a	n/a	n/a	n/a	red
310.7787	1.0167	ITI	n/a	n/a	n/a	n/a	n/a	n/a	n/a	n/a
311.7954	0.5167	FIXCROSS	n/a	n/a	n/a	n/a	n/a	n/a	n/a	n/a
312.3121	0.5	COLOR_NAME	31	Neutral	czerwony	red	Neutral	Neutral	hit	n/a
312.7794	n/a	RESPONSE	n/a	n/a	n/a	n/a	n/a	n/a	n/a	red
312.8121	1.0167	ITI	n/a	n/a	n/a	n/a	n/a	n/a	n/a	n/a
313.8288	0.5167	FIXCROSS	n/a	n/a	n/a	n/a	n/a	n/a	n/a	n/a
314.3454	0.6833	COLOR_NAME	32	Neutral	zielony	green	Neutral	Neutral	hit	n/a
315.0016	n/a	RESPONSE	n/a	n/a	n/a	n/a	n/a	n/a	n/a	green
315.0288	1.0167	ITI	n/a	n/a	n/a	n/a	n/a	n/a	n/a	n/a
316.0455	0.5167	FIXCROSS	n/a	n/a	n/a	n/a	n/a	n/a	n/a	n/a
316.5621	0.5833	COLOR_NAME	33	Neutral	żółty	yellow	Neutral	Neutral	hit	n/a
317.112	n/a	RESPONSE	n/a	n/a	n/a	n/a	n/a	n/a	n/a	yellow
317.1455	1.0167	ITI	n/a	n/a	n/a	n/a	n/a	n/a	n/a	n/a
318.1621	0.5167	FIXCROSS	n/a	n/a	n/a	n/a	n/a	n/a	n/a	n/a
318.6788	0.8667	COLOR_NAME	34	Neutral	czerwony	red	Neutral	Neutral	hit	n/a
319.5261	n/a	RESPONSE	n/a	n/a	n/a	n/a	n/a	n/a	n/a	red
319.5455	1.0167	ITI	n/a	n/a	n/a	n/a	n/a	n/a	n/a	n/a
320.5622	0.5167	FIXCROSS	n/a	n/a	n/a	n/a	n/a	n/a	n/a	n/a
321.0789	0.75	COLOR_NAME	35	Neutral	żółty	yellow	Neutral	Neutral	hit	n/a
321.7964	n/a	RESPONSE	n/a	n/a	n/a	n/a	n/a	n/a	n/a	yellow
321.8289	1.0167	ITI	n/a	n/a	n/a	n/a	n/a	n/a	n/a	n/a
322.8455	0.5167	FIXCROSS	n/a	n/a	n/a	n/a	n/a	n/a	n/a	n/a
323.3622	1.6333	COLOR_NAME	36	Incongruent	czerwony	red	niebieski	blue	hit	n/a
324.962	n/a	RESPONSE	n/a	n/a	n/a	n/a	n/a	n/a	n/a	red
324.9956	1.0167	ITI	n/a	n/a	n/a	n/a	n/a	n/a	n/a	n/a
326.0122	0.5167	FIXCROSS	n/a	n/a	n/a	n/a	n/a	n/a	n/a	n/a
326.5289	0.9667	COLOR_NAME	37	Incongruent	zielony	green	niebieski	blue	hit	n/a
327.472	n/a	RESPONSE	n/a	n/a	n/a	n/a	n/a	n/a	n/a	green
327.4956	1.0167	ITI	n/a	n/a	n/a	n/a	n/a	n/a	n/a	n/a
328.5123	0.5167	FIXCROSS	n/a	n/a	n/a	n/a	n/a	n/a	n/a	n/a
329.0289	1.1334	COLOR_NAME	38	Neutral	niebieski	blue	Neutral	Neutral	hit	n/a
330.1419	n/a	RESPONSE	n/a	n/a	n/a	n/a	n/a	n/a	n/a	blue
330.1623	1.0167	ITI	n/a	n/a	n/a	n/a	n/a	n/a	n/a	n/a
331.179	0.5167	FIXCROSS	n/a	n/a	n/a	n/a	n/a	n/a	n/a	n/a
331.6956	0.7167	COLOR_NAME	39	Incongruent	czerwony	red	żółty	yellow	hit	n/a
332.3801	n/a	RESPONSE	n/a	n/a	n/a	n/a	n/a	n/a	n/a	red
332.4123	1.0167	ITI	n/a	n/a	n/a	n/a	n/a	n/a	n/a	n/a
333.429	0.5167	FIXCROSS	n/a	n/a	n/a	n/a	n/a	n/a	n/a	n/a
333.9457	0.9333	COLOR_NAME	40	Incongruent	czerwony	red	zielony	green	hit	n/a
334.8422	n/a	RESPONSE	n/a	n/a	n/a	n/a	n/a	n/a	n/a	red
334.879	1.0167	ITI	n/a	n/a	n/a	n/a	n/a	n/a	n/a	n/a
335.8957	0.5167	FIXCROSS	n/a	n/a	n/a	n/a	n/a	n/a	n/a	n/a
336.4123	0.8334	COLOR_NAME	41	Neutral	niebieski	blue	Neutral	Neutral	hit	n/a
337.2243	n/a	RESPONSE	n/a	n/a	n/a	n/a	n/a	n/a	n/a	blue
337.2457	1.0167	ITI	n/a	n/a	n/a	n/a	n/a	n/a	n/a	n/a
338.2624	0.5167	FIXCROSS	n/a	n/a	n/a	n/a	n/a	n/a	n/a	n/a
338.779	0.75	COLOR_NAME	42	Incongruent	czerwony	red	niebieski	blue	hit	n/a
339.5105	n/a	RESPONSE	n/a	n/a	n/a	n/a	n/a	n/a	n/a	red
339.529	1.0167	ITI	n/a	n/a	n/a	n/a	n/a	n/a	n/a	n/a
340.5457	0.5167	FIXCROSS	n/a	n/a	n/a	n/a	n/a	n/a	n/a	n/a
341.0624	0.6	COLOR_NAME	43	Incongruent	czerwony	red	zielony	green	hit	n/a
341.6369	n/a	RESPONSE	n/a	n/a	n/a	n/a	n/a	n/a	n/a	red
341.6624	1.0167	ITI	n/a	n/a	n/a	n/a	n/a	n/a	n/a	n/a
342.6791	0.5167	FIXCROSS	n/a	n/a	n/a	n/a	n/a	n/a	n/a	n/a
343.1958	0.75	COLOR_NAME	44	Incongruent	żółty	yellow	zielony	green	hit	n/a
343.923	n/a	RESPONSE	n/a	n/a	n/a	n/a	n/a	n/a	n/a	yellow
343.9458	1.0167	ITI	n/a	n/a	n/a	n/a	n/a	n/a	n/a	n/a
344.9624	0.5167	FIXCROSS	n/a	n/a	n/a	n/a	n/a	n/a	n/a	n/a
345.4791	0.5834	COLOR_NAME	45	Neutral	żółty	yellow	Neutral	Neutral	hit	n/a
346.0333	n/a	RESPONSE	n/a	n/a	n/a	n/a	n/a	n/a	n/a	yellow
346.0625	1.0167	ITI	n/a	n/a	n/a	n/a	n/a	n/a	n/a	n/a
347.0791	0.5167	FIXCROSS	n/a	n/a	n/a	n/a	n/a	n/a	n/a	n/a
347.5958	0.7334	COLOR_NAME	46	Neutral	zielony	green	Neutral	Neutral	hit	n/a
348.3035	n/a	RESPONSE	n/a	n/a	n/a	n/a	n/a	n/a	n/a	green
348.3292	1.0167	ITI	n/a	n/a	n/a	n/a	n/a	n/a	n/a	n/a
349.3458	0.5167	FIXCROSS	n/a	n/a	n/a	n/a	n/a	n/a	n/a	n/a
349.8625	0.6167	COLOR_NAME	47	Neutral	żółty	yellow	Neutral	Neutral	hit	n/a
350.4618	n/a	RESPONSE	n/a	n/a	n/a	n/a	n/a	n/a	n/a	yellow
350.4792	1.0167	ITI	n/a	n/a	n/a	n/a	n/a	n/a	n/a	n/a
351.4958	0.5167	FIXCROSS	n/a	n/a	n/a	n/a	n/a	n/a	n/a	n/a
352.0125	0.7167	COLOR_NAME	48	Incongruent	zielony	green	niebieski	blue	hit	n/a
352.7001	n/a	RESPONSE	n/a	n/a	n/a	n/a	n/a	n/a	n/a	green
352.7292	1.0167	ITI	n/a	n/a	n/a	n/a	n/a	n/a	n/a	n/a
353.7459	0.5167	FIXCROSS	n/a	n/a	n/a	n/a	n/a	n/a	n/a	n/a
354.2625	1.3167	COLOR_NAME	49	Neutral	zielony	green	Neutral	Neutral	hit	n/a
355.5619	n/a	RESPONSE	n/a	n/a	n/a	n/a	n/a	n/a	n/a	green
355.5792	1.0167	ITI	n/a	n/a	n/a	n/a	n/a	n/a	n/a	n/a
356.5959	0.5166	FIXCROSS	n/a	n/a	n/a	n/a	n/a	n/a	n/a	n/a
357.1126	0.7167	COLOR_NAME	50	Incongruent	żółty	yellow	zielony	green	hit	n/a
357.8001	n/a	RESPONSE	n/a	n/a	n/a	n/a	n/a	n/a	n/a	yellow
357.8293	1.0167	ITI	n/a	n/a	n/a	n/a	n/a	n/a	n/a	n/a
358.8459	0.5167	FIXCROSS	n/a	n/a	n/a	n/a	n/a	n/a	n/a	n/a
359.3626	1.1167	COLOR_NAME	51	Neutral	niebieski	blue	Neutral	Neutral	hit	n/a
360.4539	n/a	RESPONSE	n/a	n/a	n/a	n/a	n/a	n/a	n/a	blue
360.4793	1.0167	ITI	n/a	n/a	n/a	n/a	n/a	n/a	n/a	n/a
361.496	0.5167	FIXCROSS	n/a	n/a	n/a	n/a	n/a	n/a	n/a	n/a
362.0126	0.7667	COLOR_NAME	52	Incongruent	czerwony	red	zielony	green	hit	n/a
362.7562	n/a	RESPONSE	n/a	n/a	n/a	n/a	n/a	n/a	n/a	red
362.7793	1.0167	ITI	n/a	n/a	n/a	n/a	n/a	n/a	n/a	n/a
363.796	0.5167	FIXCROSS	n/a	n/a	n/a	n/a	n/a	n/a	n/a	n/a
364.3127	1.0833	COLOR_NAME	53	Neutral	zielony	green	Neutral	Neutral	hit	n/a
365.3622	n/a	RESPONSE	n/a	n/a	n/a	n/a	n/a	n/a	n/a	green
365.396	1.0167	ITI	n/a	n/a	n/a	n/a	n/a	n/a	n/a	n/a
366.4127	0.5167	FIXCROSS	n/a	n/a	n/a	n/a	n/a	n/a	n/a	n/a
366.9293	0.8333	COLOR_NAME	54	Incongruent	czerwony	red	niebieski	blue	hit	n/a
367.7443	n/a	RESPONSE	n/a	n/a	n/a	n/a	n/a	n/a	n/a	red
367.7627	1.0167	ITI	n/a	n/a	n/a	n/a	n/a	n/a	n/a	n/a
368.7794	0.5167	FIXCROSS	n/a	n/a	n/a	n/a	n/a	n/a	n/a	n/a
369.2961	0.9167	COLOR_NAME	55	Incongruent	czerwony	red	żółty	yellow	hit	n/a
370.1904	n/a	RESPONSE	n/a	n/a	n/a	n/a	n/a	n/a	n/a	red
370.2127	1.0167	ITI	n/a	n/a	n/a	n/a	n/a	n/a	n/a	n/a
371.2294	0.5167	FIXCROSS	n/a	n/a	n/a	n/a	n/a	n/a	n/a	n/a
371.7461	0.7	COLOR_NAME	56	Incongruent	niebieski	blue	żółty	yellow	hit	n/a
372.4126	n/a	RESPONSE	n/a	n/a	n/a	n/a	n/a	n/a	n/a	blue
372.4461	1.0167	ITI	n/a	n/a	n/a	n/a	n/a	n/a	n/a	n/a
373.4628	0.5167	FIXCROSS	n/a	n/a	n/a	n/a	n/a	n/a	n/a	n/a
373.9794	0.75	COLOR_NAME	57	Incongruent	żółty	yellow	czerwony	red	hit	n/a
374.6989	n/a	RESPONSE	n/a	n/a	n/a	n/a	n/a	n/a	n/a	yellow
374.7294	1.0167	ITI	n/a	n/a	n/a	n/a	n/a	n/a	n/a	n/a
375.7461	0.5167	FIXCROSS	n/a	n/a	n/a	n/a	n/a	n/a	n/a	n/a
376.2628	0.8333	COLOR_NAME	58	Neutral	zielony	green	Neutral	Neutral	hit	n/a
377.0649	n/a	RESPONSE	n/a	n/a	n/a	n/a	n/a	n/a	n/a	green
377.0961	1.0167	ITI	n/a	n/a	n/a	n/a	n/a	n/a	n/a	n/a
378.1128	0.5167	FIXCROSS	n/a	n/a	n/a	n/a	n/a	n/a	n/a	n/a
378.6295	0.8167	COLOR_NAME	59	Neutral	niebieski	blue	Neutral	Neutral	hit	n/a
379.4152	n/a	RESPONSE	n/a	n/a	n/a	n/a	n/a	n/a	n/a	blue
379.4462	1.0167	ITI	n/a	n/a	n/a	n/a	n/a	n/a	n/a	n/a
380.4628	0.5167	FIXCROSS	n/a	n/a	n/a	n/a	n/a	n/a	n/a	n/a
380.9795	0.8333	COLOR_NAME	60	Neutral	zielony	green	Neutral	Neutral	hit	n/a
381.7813	n/a	RESPONSE	n/a	n/a	n/a	n/a	n/a	n/a	n/a	green
381.8129	1.0167	ITI	n/a	n/a	n/a	n/a	n/a	n/a	n/a	n/a
382.8295	0.5167	FIXCROSS	n/a	n/a	n/a	n/a	n/a	n/a	n/a	n/a
383.3462	0.7167	COLOR_NAME	61	Neutral	czerwony	red	Neutral	Neutral	hit	n/a
384.0355	n/a	RESPONSE	n/a	n/a	n/a	n/a	n/a	n/a	n/a	red
384.0629	1.0167	ITI	n/a	n/a	n/a	n/a	n/a	n/a	n/a	n/a
385.0796	0.5167	FIXCROSS	n/a	n/a	n/a	n/a	n/a	n/a	n/a	n/a
385.5962	0.55	COLOR_NAME	62	Neutral	niebieski	blue	Neutral	Neutral	hit	n/a
386.1139	n/a	RESPONSE	n/a	n/a	n/a	n/a	n/a	n/a	n/a	blue
386.1462	1.0167	ITI	n/a	n/a	n/a	n/a	n/a	n/a	n/a	n/a
387.1629	0.5167	FIXCROSS	n/a	n/a	n/a	n/a	n/a	n/a	n/a	n/a
387.6796	0.8834	COLOR_NAME	63	Incongruent	zielony	green	żółty	yellow	hit	n/a
388.544	n/a	RESPONSE	n/a	n/a	n/a	n/a	n/a	n/a	n/a	green
388.5629	1.0167	ITI	n/a	n/a	n/a	n/a	n/a	n/a	n/a	n/a
389.5796	0.5167	FIXCROSS	n/a	n/a	n/a	n/a	n/a	n/a	n/a	n/a
390.0963	0.7167	COLOR_NAME	64	Neutral	żółty	yellow	Neutral	Neutral	hit	n/a
390.7823	n/a	RESPONSE	n/a	n/a	n/a	n/a	n/a	n/a	n/a	yellow
390.8129	1.0167	ITI	n/a	n/a	n/a	n/a	n/a	n/a	n/a	n/a
391.8296	0.5167	FIXCROSS	n/a	n/a	n/a	n/a	n/a	n/a	n/a	n/a
392.3463	1.05	COLOR_NAME	65	Neutral	zielony	green	Neutral	Neutral	hit	n/a
393.3722	n/a	RESPONSE	n/a	n/a	n/a	n/a	n/a	n/a	n/a	green
393.3963	1.0167	ITI	n/a	n/a	n/a	n/a	n/a	n/a	n/a	n/a
394.413	0.5167	FIXCROSS	n/a	n/a	n/a	n/a	n/a	n/a	n/a	n/a
394.9297	0.6667	COLOR_NAME	66	Incongruent	niebieski	blue	żółty	yellow	hit	n/a
395.5625	n/a	RESPONSE	n/a	n/a	n/a	n/a	n/a	n/a	n/a	blue
395.5963	1.0167	ITI	n/a	n/a	n/a	n/a	n/a	n/a	n/a	n/a
396.613	0.5167	FIXCROSS	n/a	n/a	n/a	n/a	n/a	n/a	n/a	n/a
397.1297	0.5	COLOR_NAME	67	Neutral	niebieski	blue	Neutral	Neutral	hit	n/a
397.6088	n/a	RESPONSE	n/a	n/a	n/a	n/a	n/a	n/a	n/a	blue
397.6297	1.0167	ITI	n/a	n/a	n/a	n/a	n/a	n/a	n/a	n/a
398.6464	0.5167	FIXCROSS	n/a	n/a	n/a	n/a	n/a	n/a	n/a	n/a
399.163	0.9167	COLOR_NAME	68	Incongruent	zielony	green	czerwony	red	hit	n/a
400.0549	n/a	RESPONSE	n/a	n/a	n/a	n/a	n/a	n/a	n/a	green
400.0797	1.0167	ITI	n/a	n/a	n/a	n/a	n/a	n/a	n/a	n/a
401.0964	0.5167	FIXCROSS	n/a	n/a	n/a	n/a	n/a	n/a	n/a	n/a
401.6131	0.6667	COLOR_NAME	69	Incongruent	żółty	yellow	czerwony	red	hit	n/a
402.2452	n/a	RESPONSE	n/a	n/a	n/a	n/a	n/a	n/a	n/a	yellow
402.2797	1.0167	ITI	n/a	n/a	n/a	n/a	n/a	n/a	n/a	n/a
403.2964	0.5167	FIXCROSS	n/a	n/a	n/a	n/a	n/a	n/a	n/a	n/a
403.8131	0.6333	COLOR_NAME	70	Neutral	żółty	yellow	Neutral	Neutral	hit	n/a
404.4195	n/a	RESPONSE	n/a	n/a	n/a	n/a	n/a	n/a	n/a	yellow
404.4464	1.0167	ITI	n/a	n/a	n/a	n/a	n/a	n/a	n/a	n/a
405.4631	0.5167	FIXCROSS	n/a	n/a	n/a	n/a	n/a	n/a	n/a	n/a
405.9798	0.6167	COLOR_NAME	71	Neutral	czerwony	red	Neutral	Neutral	hit	n/a
406.5779	n/a	RESPONSE	n/a	n/a	n/a	n/a	n/a	n/a	n/a	red
406.5965	1.0167	ITI	n/a	n/a	n/a	n/a	n/a	n/a	n/a	n/a
407.6131	0.5167	FIXCROSS	n/a	n/a	n/a	n/a	n/a	n/a	n/a	n/a
408.1298	0.7833	COLOR_NAME	72	Incongruent	zielony	green	czerwony	red	hit	n/a
408.8799	n/a	RESPONSE	n/a	n/a	n/a	n/a	n/a	n/a	n/a	green
408.9131	1.0333	ITI	n/a	n/a	n/a	n/a	n/a	n/a	n/a	n/a
411.614	n/a	RESPONSE	n/a	n/a	n/a	n/a	n/a	n/a	n/a	n/a
