onset	duration	trial_type	melody_number	melody_part	key	sound	action
0.0	14.081	CUE_START	n/a	n/a	n/a	n/a	n/a
14.082	7.76	FIXCROSS	n/a	n/a	n/a	n/a	n/a
21.841	6.324	CUE_LISTEN	M1	1	n/a	n/a	n/a
28.165	7.758	FIXCROSS	n/a	n/a	n/a	n/a	n/a
35.923	6.317	CUE_PLAYBACK_RIGHT_HAND	M1	1	n/a	n/a	n/a
36.538	n/a	RESPONSE	M1	1	19	G4	press
37.02	n/a	RESPONSE	M1	1	16	E4	press
37.06	n/a	RESPONSE	M1	1	19	G4	release
37.349	n/a	RESPONSE	M1	1	16	E4	release
37.548	n/a	RESPONSE	M1	1	16	E4	press
38.059	n/a	RESPONSE	M1	1	17	F4	press
38.115	n/a	RESPONSE	M1	1	16	E4	release
38.564	n/a	RESPONSE	M1	1	14	D4	press
38.607	n/a	RESPONSE	M1	1	17	F4	release
38.94	n/a	RESPONSE	M1	1	14	D4	release
39.115	n/a	RESPONSE	M1	1	14	D4	press
39.664	n/a	RESPONSE	M1	1	12	C4	press
39.667	n/a	RESPONSE	M1	1	14	D4	release
39.987	n/a	RESPONSE	M1	1	16	E4	press
40.209	n/a	RESPONSE	M1	1	12	C4	release
40.319	n/a	RESPONSE	M1	1	19	G4	press
40.4	n/a	RESPONSE	M1	1	16	E4	release
41.102	n/a	RESPONSE	M1	1	19	G4	release
42.24	7.758	FIXCROSS	n/a	n/a	n/a	n/a	n/a
49.998	6.317	CUE_LISTEN	        M1	2	n/a	n/a	n/a
56.315	7.758	FIXCROSS	n/a	n/a	n/a	n/a	n/a
64.073	6.325	CUE_PLAYBACK_RIGHT_HAND	        M1	2	n/a	n/a	n/a
64.502	n/a	RESPONSE	        M1	2	19	G4	press
64.982	n/a	RESPONSE	        M1	2	16	E4	press
65.043	n/a	RESPONSE	        M1	2	19	G4	release
65.354	n/a	RESPONSE	        M1	2	16	E4	release
65.517	n/a	RESPONSE	        M1	2	16	E4	press
66.0	n/a	RESPONSE	        M1	2	17	F4	press
66.045	n/a	RESPONSE	        M1	2	16	E4	release
66.49	n/a	RESPONSE	        M1	2	14	D4	press
66.532	n/a	RESPONSE	        M1	2	17	F4	release
66.847	n/a	RESPONSE	        M1	2	14	D4	release
66.983	n/a	RESPONSE	        M1	2	14	D4	press
67.318	n/a	RESPONSE	        M1	2	14	D4	release
67.535	n/a	RESPONSE	        M1	2	12	C4	press
67.814	n/a	RESPONSE	        M1	2	16	E4	press
67.93	n/a	RESPONSE	        M1	2	12	C4	release
68.123	n/a	RESPONSE	        M1	2	12	C4	press
68.175	n/a	RESPONSE	        M1	2	16	E4	release
68.933	n/a	RESPONSE	        M1	2	12	C4	release
70.398	7.758	FIXCROSS	n/a	n/a	n/a	n/a	n/a
78.157	6.317	CUE_LISTEN	        M7	1	n/a	n/a	n/a
84.474	7.758	FIXCROSS	n/a	n/a	n/a	n/a	n/a
92.232	6.317	CUE_PLAYBACK_BOTH_HANDS	        M7	1	n/a	n/a	n/a
92.713	n/a	RESPONSE	        M7	1	07	G3	press
92.734	n/a	RESPONSE	        M7	1	22	A#4	press
93.318	n/a	RESPONSE	        M7	1	22	A#4	release
93.457	n/a	RESPONSE	        M7	1	07	G3	release
93.559	n/a	RESPONSE	        M7	1	07	G3	press
93.569	n/a	RESPONSE	        M7	1	22	A#4	press
94.22	n/a	RESPONSE	        M7	1	21	A4	press
94.332	n/a	RESPONSE	        M7	1	22	A#4	release
94.863	n/a	RESPONSE	        M7	1	19	G4	press
94.937	n/a	RESPONSE	        M7	1	21	A4	release
95.495	n/a	RESPONSE	        M7	1	05	F3	press
95.499	n/a	RESPONSE	        M7	1	21	A4	press
95.578	n/a	RESPONSE	        M7	1	19	G4	release
95.629	n/a	RESPONSE	        M7	1	07	G3	release
96.202	n/a	RESPONSE	        M7	1	14	D4	press
96.332	n/a	RESPONSE	        M7	1	21	A4	release
96.684	n/a	RESPONSE	        M7	1	14	D4	release
96.933	n/a	RESPONSE	        M7	1	14	D4	press
97.629	n/a	RESPONSE	        M7	1	19	G4	press
97.674	n/a	RESPONSE	        M7	1	05	F3	release
97.682	n/a	RESPONSE	        M7	1	03	D#3	press
97.7	n/a	RESPONSE	        M7	1	14	D4	release
98.548	7.758	FIXCROSS	n/a	n/a	n/a	n/a	n/a
99.215	n/a	RESPONSE	        M7	1	03	D#3	release
99.513	n/a	RESPONSE	        M7	1	19	G4	release
106.307	6.325	CUE_LISTEN	        M7	2	n/a	n/a	n/a
112.632	7.758	FIXCROSS	n/a	n/a	n/a	n/a	n/a
120.39	6.317	CUE_PLAYBACK_BOTH_HANDS	        M7	2	n/a	n/a	n/a
121.155	n/a	RESPONSE	        M7	2	09	A3	press
121.186	n/a	RESPONSE	        M7	2	13	C#4	press
121.57	n/a	RESPONSE	        M7	2	13	C#4	release
121.599	n/a	RESPONSE	        M7	2	09	A3	release
124.073	n/a	RESPONSE	        M7	2	09	A3	press
124.075	n/a	RESPONSE	        M7	2	17	F4	press
124.095	n/a	RESPONSE	        M7	2	13	C#4	press
124.807	n/a	RESPONSE	        M7	2	13	C#4	release
124.828	n/a	RESPONSE	        M7	2	11	B3	press
124.88	n/a	RESPONSE	        M7	2	15	D#4	press
124.9	n/a	RESPONSE	        M7	2	09	A3	release
124.992	n/a	RESPONSE	        M7	2	17	F4	release
125.324	n/a	RESPONSE	        M7	2	17	F4	press
125.414	n/a	RESPONSE	        M7	2	15	D#4	release
125.508	n/a	RESPONSE	        M7	2	13	C#4	press
125.517	n/a	RESPONSE	        M7	2	11	B3	release
125.648	n/a	RESPONSE	        M7	2	17	F4	release
125.743	n/a	RESPONSE	        M7	2	13	C#4	release
126.707	7.758	FIXCROSS	n/a	n/a	n/a	n/a	n/a
134.465	6.325	CUE_LISTEN	        M5	1	n/a	n/a	n/a
140.79	7.758	FIXCROSS	n/a	n/a	n/a	n/a	n/a
142.319	n/a	RESPONSE	        M5	1	05	F3	press
142.61	n/a	RESPONSE	        M5	1	05	F3	release
148.549	6.317	CUE_PLAYBACK_RIGHT_HAND	        M5	1	n/a	n/a	n/a
149.536	n/a	RESPONSE	        M5	1	21	A4	press
149.808	n/a	RESPONSE	        M5	1	21	A4	release
149.919	n/a	RESPONSE	        M5	1	21	A4	press
150.172	n/a	RESPONSE	        M5	1	21	A4	release
150.292	n/a	RESPONSE	        M5	1	21	A4	press
150.793	n/a	RESPONSE	        M5	1	21	A4	release
151.015	n/a	RESPONSE	        M5	1	21	A4	press
151.265	n/a	RESPONSE	        M5	1	21	A4	release
151.386	n/a	RESPONSE	        M5	1	21	A4	press
151.589	n/a	RESPONSE	        M5	1	21	A4	release
151.759	n/a	RESPONSE	        M5	1	21	A4	press
152.122	n/a	RESPONSE	        M5	1	21	A4	release
152.513	n/a	RESPONSE	        M5	1	21	A4	press
152.934	n/a	RESPONSE	        M5	1	24	C5	press
152.995	n/a	RESPONSE	        M5	1	21	A4	release
153.326	n/a	RESPONSE	        M5	1	16	E4	press
153.398	n/a	RESPONSE	        M5	1	24	C5	release
153.802	n/a	RESPONSE	        M5	1	16	E4	release
153.95	n/a	RESPONSE	        M5	1	17	F4	press
154.292	n/a	RESPONSE	        M5	1	19	G4	press
154.374	n/a	RESPONSE	        M5	1	17	F4	release
154.684	n/a	RESPONSE	        M5	1	21	A4	press
154.765	n/a	RESPONSE	        M5	1	19	G4	release
154.865	7.758	FIXCROSS	n/a	n/a	n/a	n/a	n/a
155.436	n/a	RESPONSE	        M5	1	21	A4	release
162.624	6.317	CUE_LISTEN	        M5	2	n/a	n/a	n/a
168.94	7.758	FIXCROSS	n/a	n/a	n/a	n/a	n/a
176.699	6.325	CUE_PLAYBACK_RIGHT_HAND	        M5	2	n/a	n/a	n/a
177.23	n/a	RESPONSE	        M5	2	23	B4	press
177.55	n/a	RESPONSE	        M5	2	23	B4	release
178.204	n/a	RESPONSE	        M5	2	21	A4	press
178.449	n/a	RESPONSE	        M5	2	21	A4	release
178.593	n/a	RESPONSE	        M5	2	21	A4	press
178.888	n/a	RESPONSE	        M5	2	21	A4	release
178.993	n/a	RESPONSE	        M5	2	21	A4	press
179.253	n/a	RESPONSE	        M5	2	21	A4	release
179.363	n/a	RESPONSE	        M5	2	21	A4	press
179.605	n/a	RESPONSE	        M5	2	21	A4	release
179.778	n/a	RESPONSE	        M5	2	21	A4	press
180.216	n/a	RESPONSE	        M5	2	24	C5	press
180.32	n/a	RESPONSE	        M5	2	21	A4	release
180.549	n/a	RESPONSE	        M5	2	24	C5	release
180.75	n/a	RESPONSE	        M5	2	24	C5	press
181.432	n/a	RESPONSE	        M5	2	22	A#4	press
181.504	n/a	RESPONSE	        M5	2	24	C5	release
182.345	n/a	RESPONSE	        M5	2	19	G4	press
182.626	n/a	RESPONSE	        M5	2	22	A#4	release
183.024	7.758	FIXCROSS	n/a	n/a	n/a	n/a	n/a
183.148	n/a	RESPONSE	        M5	2	17	F4	press
183.269	n/a	RESPONSE	        M5	2	19	G4	release
183.68	n/a	RESPONSE	        M5	2	17	F4	release
190.782	6.317	CUE_LISTEN	        M3	1	n/a	n/a	n/a
197.099	7.758	FIXCROSS	n/a	n/a	n/a	n/a	n/a
204.857	6.317	CUE_PLAYBACK_BOTH_HANDS	        M3	1	n/a	n/a	n/a
205.399	n/a	RESPONSE	        M3	1	00	C3	press
205.42	n/a	RESPONSE	        M3	1	12	C4	press
205.938	n/a	RESPONSE	        M3	1	14	D4	press
205.94	n/a	RESPONSE	        M3	1	07	G3	press
206.025	n/a	RESPONSE	        M3	1	12	C4	release
206.03	n/a	RESPONSE	        M3	1	00	C3	release
206.395	n/a	RESPONSE	        M3	1	04	E3	press
206.398	n/a	RESPONSE	        M3	1	16	E4	press
206.476	n/a	RESPONSE	        M3	1	07	G3	release
206.486	n/a	RESPONSE	        M3	1	14	D4	release
206.915	n/a	RESPONSE	        M3	1	07	G3	press
206.954	n/a	RESPONSE	        M3	1	12	C4	press
206.983	n/a	RESPONSE	        M3	1	04	E3	release
206.995	n/a	RESPONSE	        M3	1	16	E4	release
207.315	n/a	RESPONSE	        M3	1	12	C4	release
207.36	n/a	RESPONSE	        M3	1	07	G3	release
207.455	n/a	RESPONSE	        M3	1	00	C3	press
207.468	n/a	RESPONSE	        M3	1	12	C4	press
207.983	n/a	RESPONSE	        M3	1	07	G3	press
208.02	n/a	RESPONSE	        M3	1	14	D4	press
208.029	n/a	RESPONSE	        M3	1	00	C3	release
208.134	n/a	RESPONSE	        M3	1	12	C4	release
208.498	n/a	RESPONSE	        M3	1	04	E3	press
208.523	n/a	RESPONSE	        M3	1	16	E4	press
208.58	n/a	RESPONSE	        M3	1	14	D4	release
208.583	n/a	RESPONSE	        M3	1	07	G3	release
209.01	n/a	RESPONSE	        M3	1	07	G3	press
209.048	n/a	RESPONSE	        M3	1	12	C4	press
209.079	n/a	RESPONSE	        M3	1	16	E4	release
209.088	n/a	RESPONSE	        M3	1	04	E3	release
209.536	n/a	RESPONSE	        M3	1	00	C3	press
209.548	n/a	RESPONSE	        M3	1	16	E4	press
209.599	n/a	RESPONSE	        M3	1	07	G3	release
209.623	n/a	RESPONSE	        M3	1	12	C4	release
210.014	n/a	RESPONSE	        M3	1	17	F4	press
210.033	n/a	RESPONSE	        M3	1	07	G3	press
210.094	n/a	RESPONSE	        M3	1	16	E4	release
210.105	n/a	RESPONSE	        M3	1	00	C3	release
210.496	n/a	RESPONSE	        M3	1	19	G4	press
210.508	n/a	RESPONSE	        M3	1	04	E3	press
210.569	n/a	RESPONSE	        M3	1	17	F4	release
210.59	n/a	RESPONSE	        M3	1	07	G3	release
210.984	n/a	RESPONSE	        M3	1	07	G3	press
211.033	n/a	RESPONSE	        M3	1	04	E3	release
211.174	7.758	FIXCROSS	n/a	n/a	n/a	n/a	n/a
211.654	n/a	RESPONSE	        M3	1	19	G4	release
211.735	n/a	RESPONSE	        M3	1	07	G3	release
218.932	6.325	CUE_LISTEN	        M3	2	n/a	n/a	n/a
225.257	7.758	FIXCROSS	n/a	n/a	n/a	n/a	n/a
233.016	6.317	CUE_PLAYBACK_BOTH_HANDS	        M3	2	n/a	n/a	n/a
233.463	n/a	RESPONSE	        M3	2	19	G4	press
233.473	n/a	RESPONSE	        M3	2	00	C3	press
233.756	n/a	RESPONSE	        M3	2	21	A4	press
233.838	n/a	RESPONSE	        M3	2	19	G4	release
233.989	n/a	RESPONSE	        M3	2	07	G3	press
234.019	n/a	RESPONSE	        M3	2	19	G4	press
234.08	n/a	RESPONSE	        M3	2	00	C3	release
234.094	n/a	RESPONSE	        M3	2	21	A4	release
234.283	n/a	RESPONSE	        M3	2	17	F4	press
234.334	n/a	RESPONSE	        M3	2	04	E3	press
234.405	n/a	RESPONSE	        M3	2	19	G4	release
234.416	n/a	RESPONSE	        M3	2	07	G3	release
234.678	n/a	RESPONSE	        M3	2	16	E4	press
234.77	n/a	RESPONSE	        M3	2	07	G3	press
234.78	n/a	RESPONSE	        M3	2	17	F4	release
234.872	n/a	RESPONSE	        M3	2	04	E3	release
235.303	n/a	RESPONSE	        M3	2	12	C4	press
235.324	n/a	RESPONSE	        M3	2	00	C3	press
235.365	n/a	RESPONSE	        M3	2	16	E4	release
235.379	n/a	RESPONSE	        M3	2	07	G3	release
235.628	n/a	RESPONSE	        M3	2	12	C4	release
235.719	n/a	RESPONSE	        M3	2	00	C3	release
236.172	n/a	RESPONSE	        M3	2	19	G4	press
236.193	n/a	RESPONSE	        M3	2	07	G3	press
236.578	n/a	RESPONSE	        M3	2	21	A4	press
236.718	n/a	RESPONSE	        M3	2	19	G4	release
236.76	n/a	RESPONSE	        M3	2	00	C3	press
236.866	n/a	RESPONSE	        M3	2	07	G3	release
237.039	n/a	RESPONSE	        M3	2	19	G4	press
237.096	n/a	RESPONSE	        M3	2	21	A4	release
237.1	n/a	RESPONSE	        M3	2	07	G3	press
237.194	n/a	RESPONSE	        M3	2	00	C3	release
237.374	n/a	RESPONSE	        M3	2	17	F4	press
237.46	n/a	RESPONSE	        M3	2	19	G4	release
237.683	n/a	RESPONSE	        M3	2	04	E3	press
237.732	n/a	RESPONSE	        M3	2	16	E4	press
237.77	n/a	RESPONSE	        M3	2	07	G3	release
237.816	n/a	RESPONSE	        M3	2	17	F4	release
238.279	n/a	RESPONSE	        M3	2	07	G3	press
238.309	n/a	RESPONSE	        M3	2	14	D4	press
238.343	n/a	RESPONSE	        M3	2	04	E3	release
238.369	n/a	RESPONSE	        M3	2	16	E4	release
238.76	n/a	RESPONSE	        M3	2	14	D4	release
238.854	n/a	RESPONSE	        M3	2	07	G3	release
239.042	n/a	RESPONSE	        M3	2	12	C4	press
239.044	n/a	RESPONSE	        M3	2	00	C3	press
239.332	7.758	FIXCROSS	n/a	n/a	n/a	n/a	n/a
239.519	n/a	RESPONSE	        M3	2	00	C3	release
239.543	n/a	RESPONSE	        M3	2	12	C4	release
247.09	6.317	CUE_LISTEN	        M6	1	n/a	n/a	n/a
253.407	7.758	FIXCROSS	n/a	n/a	n/a	n/a	n/a
254.976	n/a	RESPONSE	        M6	1	02	D3	press
254.998	n/a	RESPONSE	        M6	1	14	D4	press
255.489	n/a	RESPONSE	        M6	1	14	D4	release
255.63	n/a	RESPONSE	        M6	1	02	D3	release
256.368	n/a	RESPONSE	        M6	1	04	E3	press
256.409	n/a	RESPONSE	        M6	1	16	E4	press
256.962	n/a	RESPONSE	        M6	1	16	E4	release
257.203	n/a	RESPONSE	        M6	1	04	E3	release
261.166	6.325	CUE_PLAYBACK_BOTH_HANDS	        M6	1	n/a	n/a	n/a
261.614	n/a	RESPONSE	        M6	1	04	E3	press
261.628	n/a	RESPONSE	        M6	1	16	E4	press
262.132	n/a	RESPONSE	        M6	1	19	G4	press
262.16	n/a	RESPONSE	        M6	1	11	B3	press
262.352	n/a	RESPONSE	        M6	1	04	E3	release
262.354	n/a	RESPONSE	        M6	1	16	E4	release
262.356	n/a	RESPONSE	        M6	1	18	F#4	press
262.405	n/a	RESPONSE	        M6	1	19	G4	release
262.569	n/a	RESPONSE	        M6	1	19	G4	press
262.668	n/a	RESPONSE	        M6	1	18	F#4	release
262.67	n/a	RESPONSE	        M6	1	16	E4	press
262.7	n/a	RESPONSE	        M6	1	07	G3	press
262.783	n/a	RESPONSE	        M6	1	11	B3	release
263.123	n/a	RESPONSE	        M6	1	21	A4	press
263.174	n/a	RESPONSE	        M6	1	11	B3	press
263.206	n/a	RESPONSE	        M6	1	19	G4	release
263.266	n/a	RESPONSE	        M6	1	16	E4	release
263.339	n/a	RESPONSE	        M6	1	07	G3	release
263.439	n/a	RESPONSE	        M6	1	23	B4	press
263.51	n/a	RESPONSE	        M6	1	21	A4	release
263.741	n/a	RESPONSE	        M6	1	04	E3	press
263.755	n/a	RESPONSE	        M6	1	21	A4	press
263.764	n/a	RESPONSE	        M6	1	16	E4	press
263.826	n/a	RESPONSE	        M6	1	23	B4	release
263.838	n/a	RESPONSE	        M6	1	11	B3	release
263.959	n/a	RESPONSE	        M6	1	04	E3	release
264.231	n/a	RESPONSE	        M6	1	11	B3	press
264.322	n/a	RESPONSE	        M6	1	16	E4	release
264.744	n/a	RESPONSE	        M6	1	16	E4	press
264.764	n/a	RESPONSE	        M6	1	07	G3	press
264.825	n/a	RESPONSE	        M6	1	11	B3	release
265.256	n/a	RESPONSE	        M6	1	11	B3	press
265.34	n/a	RESPONSE	        M6	1	16	E4	release
265.419	n/a	RESPONSE	        M6	1	07	G3	release
266.04	n/a	RESPONSE	        M6	1	14	D4	press
266.096	n/a	RESPONSE	        M6	1	21	A4	release
266.119	n/a	RESPONSE	        M6	1	11	B3	release
266.235	n/a	RESPONSE	        M6	1	02	D3	press
267.315	n/a	RESPONSE	        M6	1	18	F#4	press
267.34	n/a	RESPONSE	        M6	1	11	B3	press
267.371	n/a	RESPONSE	        M6	1	02	D3	release
267.388	n/a	RESPONSE	        M6	1	16	E4	press
267.458	n/a	RESPONSE	        M6	1	14	D4	release
267.464	n/a	RESPONSE	        M6	1	18	F#4	release
267.49	7.758	FIXCROSS	n/a	n/a	n/a	n/a	n/a
267.865	n/a	RESPONSE	        M6	1	16	E4	release
267.935	n/a	RESPONSE	        M6	1	14	D4	press
268.049	n/a	RESPONSE	        M6	1	11	B3	release
268.354	n/a	RESPONSE	        M6	1	14	D4	release
275.249	6.317	CUE_LISTEN	        M6	2	n/a	n/a	n/a
281.566	7.758	FIXCROSS	n/a	n/a	n/a	n/a	n/a
289.324	6.317	CUE_PLAYBACK_BOTH_HANDS	        M6	2	n/a	n/a	n/a
290.15	n/a	RESPONSE	        M6	2	14	D4	press
290.162	n/a	RESPONSE	        M6	2	02	D3	press
290.584	n/a	RESPONSE	        M6	2	14	D4	release
291.866	n/a	RESPONSE	        M6	2	09	A3	press
291.885	n/a	RESPONSE	        M6	2	15	D#4	press
292.218	n/a	RESPONSE	        M6	2	14	D4	press
292.339	n/a	RESPONSE	        M6	2	09	A3	release
292.35	n/a	RESPONSE	        M6	2	15	D#4	release
292.424	n/a	RESPONSE	        M6	2	02	D3	release
292.583	n/a	RESPONSE	        M6	2	14	D4	release
293.744	n/a	RESPONSE	        M6	2	00	C3	press
294.485	n/a	RESPONSE	        M6	2	12	C4	press
294.528	n/a	RESPONSE	        M6	2	15	D#4	press
294.878	n/a	RESPONSE	        M6	2	14	D4	press
294.959	n/a	RESPONSE	        M6	2	15	D#4	release
295.08	n/a	RESPONSE	        M6	2	12	C4	release
295.231	n/a	RESPONSE	        M6	2	14	D4	release
295.235	n/a	RESPONSE	        M6	2	09	A3	press
295.244	n/a	RESPONSE	        M6	2	00	C3	release
295.255	n/a	RESPONSE	        M6	2	15	D#4	press
295.259	n/a	RESPONSE	        M6	2	12	C4	press
295.641	7.758	FIXCROSS	n/a	n/a	n/a	n/a	n/a
295.728	n/a	RESPONSE	        M6	2	17	F4	press
295.73	n/a	RESPONSE	        M6	2	12	C4	release
295.765	n/a	RESPONSE	        M6	2	15	D#4	release
295.851	n/a	RESPONSE	        M6	2	09	A3	release
295.994	n/a	RESPONSE	        M6	2	17	F4	release
303.399	6.325	CUE_LISTEN	        M2	1	n/a	n/a	n/a
309.724	7.758	FIXCROSS	n/a	n/a	n/a	n/a	n/a
317.482	6.317	CUE_PLAYBACK_RIGHT_HAND	        M2	1	n/a	n/a	n/a
317.901	n/a	RESPONSE	        M2	1	24	C5	press
317.915	n/a	RESPONSE	        M2	1	00	C3	press
317.925	n/a	RESPONSE	        M2	1	07	G3	press
318.269	n/a	RESPONSE	        M2	1	00	C3	release
318.316	n/a	RESPONSE	        M2	1	07	G3	release
318.398	n/a	RESPONSE	        M2	1	24	C5	release
318.59	n/a	RESPONSE	        M2	1	24	C5	press
319.016	n/a	RESPONSE	        M2	1	19	G4	press
319.096	n/a	RESPONSE	        M2	1	24	C5	release
319.25	n/a	RESPONSE	        M2	1	19	G4	release
319.401	n/a	RESPONSE	        M2	1	19	G4	press
319.773	n/a	RESPONSE	        M2	1	17	F4	press
319.866	n/a	RESPONSE	        M2	1	19	G4	release
320.178	n/a	RESPONSE	        M2	1	16	E4	press
320.239	n/a	RESPONSE	        M2	1	17	F4	release
320.558	n/a	RESPONSE	        M2	1	17	F4	press
320.659	n/a	RESPONSE	        M2	1	16	E4	release
320.921	n/a	RESPONSE	        M2	1	19	G4	press
321.021	n/a	RESPONSE	        M2	1	17	F4	release
321.263	n/a	RESPONSE	        M2	1	19	G4	release
321.674	n/a	RESPONSE	        M2	1	24	C5	press
322.056	n/a	RESPONSE	        M2	1	19	G4	press
322.148	n/a	RESPONSE	        M2	1	24	C5	release
322.279	n/a	RESPONSE	        M2	1	19	G4	release
322.44	n/a	RESPONSE	        M2	1	19	G4	press
322.831	n/a	RESPONSE	        M2	1	17	F4	press
322.993	n/a	RESPONSE	        M2	1	19	G4	release
323.214	n/a	RESPONSE	        M2	1	16	E4	press
323.266	n/a	RESPONSE	        M2	1	17	F4	release
323.586	n/a	RESPONSE	        M2	1	14	D4	press
323.658	n/a	RESPONSE	        M2	1	16	E4	release
323.799	7.758	FIXCROSS	n/a	n/a	n/a	n/a	n/a
324.009	n/a	RESPONSE	        M2	1	12	C4	press
324.19	n/a	RESPONSE	        M2	1	14	D4	release
324.521	n/a	RESPONSE	        M2	1	12	C4	release
331.557	6.317	CUE_LISTEN	        M2	2	n/a	n/a	n/a
337.874	7.758	FIXCROSS	n/a	n/a	n/a	n/a	n/a
345.632	6.325	CUE_PLAYBACK_RIGHT_HAND	        M2	2	n/a	n/a	n/a
346.016	n/a	RESPONSE	        M2	2	12	C4	press
346.404	n/a	RESPONSE	        M2	2	14	D4	press
346.535	n/a	RESPONSE	        M2	2	12	C4	release
346.806	n/a	RESPONSE	        M2	2	16	E4	press
346.888	n/a	RESPONSE	        M2	2	14	D4	release
347.189	n/a	RESPONSE	        M2	2	14	D4	press
347.244	n/a	RESPONSE	        M2	2	16	E4	release
347.564	n/a	RESPONSE	        M2	2	16	E4	press
347.639	n/a	RESPONSE	        M2	2	14	D4	release
347.948	n/a	RESPONSE	        M2	2	17	F4	press
348.009	n/a	RESPONSE	        M2	2	16	E4	release
348.314	n/a	RESPONSE	        M2	2	19	G4	press
348.371	n/a	RESPONSE	        M2	2	17	F4	release
348.756	n/a	RESPONSE	        M2	2	19	G4	release
348.989	n/a	RESPONSE	        M2	2	16	E4	press
349.341	n/a	RESPONSE	        M2	2	19	G4	press
349.408	n/a	RESPONSE	        M2	2	16	E4	release
349.569	n/a	RESPONSE	        M2	2	19	G4	release
349.73	n/a	RESPONSE	        M2	2	19	G4	press
350.123	n/a	RESPONSE	        M2	2	17	F4	press
350.143	n/a	RESPONSE	        M2	2	16	E4	press
350.174	n/a	RESPONSE	        M2	2	19	G4	release
350.385	n/a	RESPONSE	        M2	2	16	E4	release
350.616	n/a	RESPONSE	        M2	2	16	E4	press
350.678	n/a	RESPONSE	        M2	2	17	F4	release
350.969	n/a	RESPONSE	        M2	2	14	D4	press
351.041	n/a	RESPONSE	        M2	2	16	E4	release
351.391	n/a	RESPONSE	        M2	2	12	C4	press
351.433	n/a	RESPONSE	        M2	2	14	D4	release
351.957	7.758	FIXCROSS	n/a	n/a	n/a	n/a	n/a
352.055	n/a	RESPONSE	        M2	2	12	C4	release
359.716	6.317	CUE_LISTEN	        M8	1	n/a	n/a	n/a
366.032	7.758	FIXCROSS	n/a	n/a	n/a	n/a	n/a
370.668	n/a	RESPONSE	        M8	1	14	D4	press
370.97	n/a	RESPONSE	        M8	1	14	D4	release
371.483	n/a	RESPONSE	        M8	1	16	E4	press
371.854	n/a	RESPONSE	        M8	1	16	E4	release
373.791	6.325	CUE_PLAYBACK_RIGHT_HAND	        M8	1	n/a	n/a	n/a
374.445	n/a	RESPONSE	        M8	1	16	E4	press
374.776	n/a	RESPONSE	        M8	1	19	G4	press
374.868	n/a	RESPONSE	        M8	1	16	E4	release
375.129	n/a	RESPONSE	        M8	1	23	B4	press
375.193	n/a	RESPONSE	        M8	1	19	G4	release
375.484	n/a	RESPONSE	        M8	1	23	B4	release
375.693	n/a	RESPONSE	        M8	1	23	B4	press
376.291	n/a	RESPONSE	        M8	1	18	F#4	press
376.354	n/a	RESPONSE	        M8	1	23	B4	release
376.848	n/a	RESPONSE	        M8	1	21	A4	press
376.926	n/a	RESPONSE	        M8	1	18	F#4	release
377.723	n/a	RESPONSE	        M8	1	23	B4	press
377.864	n/a	RESPONSE	        M8	1	21	A4	release
378.361	n/a	RESPONSE	        M8	1	21	A4	press
378.529	n/a	RESPONSE	        M8	1	23	B4	release
378.681	n/a	RESPONSE	        M8	1	19	G4	press
378.841	n/a	RESPONSE	        M8	1	21	A4	release
379.43	n/a	RESPONSE	        M8	1	18	F#4	press
379.521	n/a	RESPONSE	        M8	1	19	G4	release
380.093	n/a	RESPONSE	        M8	1	16	E4	press
380.116	7.758	FIXCROSS	n/a	n/a	n/a	n/a	n/a
380.155	n/a	RESPONSE	        M8	1	18	F#4	release
380.425	n/a	RESPONSE	        M8	1	23	B4	press
380.519	n/a	RESPONSE	        M8	1	16	E4	release
380.958	n/a	RESPONSE	        M8	1	23	B4	release
387.874	6.317	CUE_LISTEN	        M8	2	n/a	n/a	n/a
394.191	7.758	FIXCROSS	n/a	n/a	n/a	n/a	n/a
401.949	6.317	CUE_PLAYBACK_RIGHT_HAND	        M8	2	n/a	n/a	n/a
402.47	n/a	RESPONSE	        M8	2	16	E4	press
402.801	n/a	RESPONSE	        M8	2	19	G4	press
402.94	n/a	RESPONSE	        M8	2	16	E4	release
403.121	n/a	RESPONSE	        M8	2	23	B4	press
403.213	n/a	RESPONSE	        M8	2	19	G4	release
403.465	n/a	RESPONSE	        M8	2	23	B4	release
403.628	n/a	RESPONSE	        M8	2	23	B4	press
404.219	n/a	RESPONSE	        M8	2	18	F#4	press
404.298	n/a	RESPONSE	        M8	2	23	B4	release
404.779	n/a	RESPONSE	        M8	2	21	A4	press
404.84	n/a	RESPONSE	        M8	2	18	F#4	release
405.938	n/a	RESPONSE	        M8	2	23	B4	press
406.023	n/a	RESPONSE	        M8	2	21	A4	release
406.72	n/a	RESPONSE	        M8	2	21	A4	press
406.79	n/a	RESPONSE	        M8	2	23	B4	release
407.023	n/a	RESPONSE	        M8	2	19	G4	press
407.115	n/a	RESPONSE	        M8	2	21	A4	release
407.346	n/a	RESPONSE	        M8	2	18	F#4	press
407.438	n/a	RESPONSE	        M8	2	19	G4	release
407.613	n/a	RESPONSE	        M8	2	19	G4	press
407.705	n/a	RESPONSE	        M8	2	18	F#4	release
408.145	n/a	RESPONSE	        M8	2	16	E4	press
408.15	n/a	RESPONSE	        M8	2	19	G4	release
408.266	7.758	FIXCROSS	n/a	n/a	n/a	n/a	n/a
408.911	n/a	RESPONSE	        M8	2	16	E4	release
416.024	6.325	CUE_LISTEN	        M4	1	n/a	n/a	n/a
422.349	7.758	FIXCROSS	n/a	n/a	n/a	n/a	n/a
424.18	n/a	RESPONSE	        M4	1	12	C4	press
424.471	n/a	RESPONSE	        M4	1	12	C4	release
430.108	6.317	CUE_PLAYBACK_BOTH_HANDS	        M4	1	n/a	n/a	n/a
430.716	n/a	RESPONSE	        M4	1	05	F3	press
430.728	n/a	RESPONSE	        M4	1	09	A3	press
430.73	n/a	RESPONSE	        M4	1	12	C4	press
431.3	n/a	RESPONSE	        M4	1	17	F4	press
431.681	n/a	RESPONSE	        M4	1	17	F4	release
431.893	n/a	RESPONSE	        M4	1	17	F4	press
432.335	n/a	RESPONSE	        M4	1	21	A4	press
432.406	n/a	RESPONSE	        M4	1	17	F4	release
432.688	n/a	RESPONSE	        M4	1	19	G4	press
432.769	n/a	RESPONSE	        M4	1	21	A4	release
433.06	n/a	RESPONSE	        M4	1	17	F4	press
433.151	n/a	RESPONSE	        M4	1	19	G4	release
433.415	n/a	RESPONSE	        M4	1	16	E4	press
433.495	n/a	RESPONSE	        M4	1	17	F4	release
433.769	n/a	RESPONSE	        M4	1	17	F4	press
433.848	n/a	RESPONSE	        M4	1	16	E4	release
434.011	n/a	RESPONSE	        M4	1	17	F4	release
434.11	n/a	RESPONSE	        M4	1	12	C4	release
434.131	n/a	RESPONSE	        M4	1	05	F3	release
434.134	n/a	RESPONSE	        M4	1	09	A3	release
434.434	n/a	RESPONSE	        M4	1	12	C4	press
434.458	n/a	RESPONSE	        M4	1	09	A3	press
434.46	n/a	RESPONSE	        M4	1	05	F3	press
434.849	n/a	RESPONSE	        M4	1	17	F4	press
435.181	n/a	RESPONSE	        M4	1	21	A4	press
435.251	n/a	RESPONSE	        M4	1	17	F4	release
435.553	n/a	RESPONSE	        M4	1	19	G4	press
435.654	n/a	RESPONSE	        M4	1	21	A4	release
435.939	n/a	RESPONSE	        M4	1	17	F4	press
436.018	n/a	RESPONSE	        M4	1	19	G4	release
436.345	n/a	RESPONSE	        M4	1	16	E4	press
436.405	n/a	RESPONSE	        M4	1	17	F4	release
436.424	7.758	FIXCROSS	n/a	n/a	n/a	n/a	n/a
436.665	n/a	RESPONSE	        M4	1	17	F4	press
436.756	n/a	RESPONSE	        M4	1	16	E4	release
437.154	n/a	RESPONSE	        M4	1	17	F4	release
437.205	n/a	RESPONSE	        M4	1	05	F3	release
437.219	n/a	RESPONSE	        M4	1	09	A3	release
437.268	n/a	RESPONSE	        M4	1	12	C4	release
444.183	6.317	CUE_LISTEN	        M4	2	n/a	n/a	n/a
450.499	7.758	FIXCROSS	n/a	n/a	n/a	n/a	n/a
458.258	6.325	CUE_PLAYBACK_BOTH_HANDS	        M4	2	n/a	n/a	n/a
458.779	n/a	RESPONSE	        M4	2	09	A3	press
458.781	n/a	RESPONSE	        M4	2	05	F3	press
458.784	n/a	RESPONSE	        M4	2	12	C4	press
459.318	n/a	RESPONSE	        M4	2	17	F4	press
459.94	n/a	RESPONSE	        M4	2	21	A4	press
460.151	n/a	RESPONSE	        M4	2	17	F4	release
460.563	n/a	RESPONSE	        M4	2	24	C5	press
460.656	n/a	RESPONSE	        M4	2	21	A4	release
460.825	n/a	RESPONSE	        M4	2	05	F3	release
460.878	n/a	RESPONSE	        M4	2	09	A3	release
460.938	n/a	RESPONSE	        M4	2	12	C4	release
461.249	n/a	RESPONSE	        M4	2	22	A#4	press
461.26	n/a	RESPONSE	        M4	2	04	E3	press
461.263	n/a	RESPONSE	        M4	2	12	C4	press
461.265	n/a	RESPONSE	        M4	2	07	G3	press
461.274	n/a	RESPONSE	        M4	2	24	C5	release
461.716	n/a	RESPONSE	        M4	2	21	A4	press
461.766	n/a	RESPONSE	        M4	2	19	G4	press
461.859	n/a	RESPONSE	        M4	2	19	G4	release
461.879	n/a	RESPONSE	        M4	2	22	A#4	release
462.151	n/a	RESPONSE	        M4	2	19	G4	press
462.193	n/a	RESPONSE	        M4	2	21	A4	release
462.436	n/a	RESPONSE	        M4	2	19	G4	release
462.515	n/a	RESPONSE	        M4	2	12	C4	release
462.626	n/a	RESPONSE	        M4	2	04	E3	release
462.778	n/a	RESPONSE	        M4	2	07	G3	release
462.919	n/a	RESPONSE	        M4	2	07	G3	press
462.921	n/a	RESPONSE	        M4	2	12	C4	press
462.944	n/a	RESPONSE	        M4	2	04	E3	press
463.393	n/a	RESPONSE	        M4	2	17	F4	press
463.956	n/a	RESPONSE	        M4	2	17	F4	release
464.438	n/a	RESPONSE	        M4	2	07	G3	release
464.506	n/a	RESPONSE	        M4	2	12	C4	release
464.538	n/a	RESPONSE	        M4	2	04	E3	release
464.583	7.758	FIXCROSS	n/a	n/a	n/a	n/a	n/a
464.659	n/a	RESPONSE	        M4	2	12	C4	press
464.661	n/a	RESPONSE	        M4	2	07	G3	press
465.204	n/a	RESPONSE	        M4	2	07	G3	release
465.234	n/a	RESPONSE	        M4	2	12	C4	release
472.341	6.317	CUE_LISTEN	        M3	1	n/a	n/a	n/a
478.658	7.758	FIXCROSS	n/a	n/a	n/a	n/a	n/a
486.416	6.317	CUE_PLAYBACK_RIGHT_HAND	        M3	1	n/a	n/a	n/a
486.929	n/a	RESPONSE	        M3	1	12	C4	press
487.386	n/a	RESPONSE	        M3	1	14	D4	press
487.445	n/a	RESPONSE	        M3	1	12	C4	release
487.815	n/a	RESPONSE	        M3	1	16	E4	press
487.919	n/a	RESPONSE	        M3	1	14	D4	release
488.28	n/a	RESPONSE	        M3	1	17	F4	press
488.385	n/a	RESPONSE	        M3	1	16	E4	release
488.563	n/a	RESPONSE	        M3	1	17	F4	release
488.876	n/a	RESPONSE	        M3	1	12	C4	press
489.223	n/a	RESPONSE	        M3	1	14	D4	press
489.316	n/a	RESPONSE	        M3	1	12	C4	release
489.595	n/a	RESPONSE	        M3	1	16	E4	press
489.676	n/a	RESPONSE	        M3	1	14	D4	release
489.988	n/a	RESPONSE	        M3	1	12	C4	press
490.001	n/a	RESPONSE	        M3	1	16	E4	release
490.18	n/a	RESPONSE	        M3	1	12	C4	release
490.343	n/a	RESPONSE	        M3	1	12	C4	press
490.693	n/a	RESPONSE	        M3	1	14	D4	press
490.774	n/a	RESPONSE	        M3	1	12	C4	release
491.015	n/a	RESPONSE	        M3	1	16	E4	press
491.086	n/a	RESPONSE	        M3	1	14	D4	release
491.378	n/a	RESPONSE	        M3	1	12	C4	press
491.409	n/a	RESPONSE	        M3	1	16	E4	release
491.7	n/a	RESPONSE	        M3	1	16	E4	press
491.752	n/a	RESPONSE	        M3	1	12	C4	release
492.054	n/a	RESPONSE	        M3	1	17	F4	press
492.105	n/a	RESPONSE	        M3	1	16	E4	release
492.376	n/a	RESPONSE	        M3	1	19	G4	press
492.448	n/a	RESPONSE	        M3	1	17	F4	release
492.733	7.759	FIXCROSS	n/a	n/a	n/a	n/a	n/a
493.009	n/a	RESPONSE	        M3	1	16	E4	press
493.1	n/a	RESPONSE	        M3	1	19	G4	release
493.361	n/a	RESPONSE	        M3	1	16	E4	release
500.491	6.325	CUE_LISTEN	        M3	2	n/a	n/a	n/a
506.816	7.758	FIXCROSS	n/a	n/a	n/a	n/a	n/a
514.574	6.317	CUE_PLAYBACK_RIGHT_HAND	        M3	2	n/a	n/a	n/a
515.003	n/a	RESPONSE	        M3	2	19	G4	press
515.274	n/a	RESPONSE	        M3	2	21	A4	press
515.375	n/a	RESPONSE	        M3	2	19	G4	release
515.546	n/a	RESPONSE	        M3	2	19	G4	press
515.638	n/a	RESPONSE	        M3	2	21	A4	release
515.831	n/a	RESPONSE	        M3	2	17	F4	press
515.945	n/a	RESPONSE	        M3	2	19	G4	release
516.153	n/a	RESPONSE	        M3	2	16	E4	press
516.241	n/a	RESPONSE	        M3	2	17	F4	release
516.735	n/a	RESPONSE	        M3	2	12	C4	press
516.806	n/a	RESPONSE	        M3	2	16	E4	release
517.126	n/a	RESPONSE	        M3	2	12	C4	release
517.268	n/a	RESPONSE	        M3	2	19	G4	press
517.584	n/a	RESPONSE	        M3	2	21	A4	press
517.685	n/a	RESPONSE	        M3	2	19	G4	release
517.849	n/a	RESPONSE	        M3	2	19	G4	press
517.918	n/a	RESPONSE	        M3	2	21	A4	release
518.116	n/a	RESPONSE	        M3	2	17	F4	press
518.333	n/a	RESPONSE	        M3	2	19	G4	release
518.429	n/a	RESPONSE	        M3	2	16	E4	press
518.514	n/a	RESPONSE	        M3	2	17	F4	release
518.995	n/a	RESPONSE	        M3	2	12	C4	press
519.004	n/a	RESPONSE	        M3	2	16	E4	release
519.283	n/a	RESPONSE	        M3	2	12	C4	release
519.58	n/a	RESPONSE	        M3	2	12	C4	press
520.15	n/a	RESPONSE	        M3	2	07	G3	press
520.303	n/a	RESPONSE	        M3	2	12	C4	release
520.783	n/a	RESPONSE	        M3	2	12	C4	press
520.806	n/a	RESPONSE	        M3	2	07	G3	release
520.891	7.759	FIXCROSS	n/a	n/a	n/a	n/a	n/a
521.325	n/a	RESPONSE	        M3	2	12	C4	release
528.65	6.325	CUE_LISTEN	        M5	1	n/a	n/a	n/a
534.974	7.758	FIXCROSS	n/a	n/a	n/a	n/a	n/a
542.733	6.317	CUE_PLAYBACK_BOTH_HANDS	        M5	1	n/a	n/a	n/a
543.215	n/a	RESPONSE	        M5	1	05	F3	press
543.218	n/a	RESPONSE	        M5	1	21	A4	press
543.439	n/a	RESPONSE	        M5	1	21	A4	release
543.599	n/a	RESPONSE	        M5	1	09	A3	press
543.61	n/a	RESPONSE	        M5	1	21	A4	press
543.691	n/a	RESPONSE	        M5	1	05	F3	release
543.812	n/a	RESPONSE	        M5	1	21	A4	release
543.976	n/a	RESPONSE	        M5	1	04	E3	press
544.025	n/a	RESPONSE	        M5	1	21	A4	press
544.059	n/a	RESPONSE	        M5	1	09	A3	release
544.398	n/a	RESPONSE	        M5	1	09	A3	press
544.439	n/a	RESPONSE	        M5	1	21	A4	release
544.49	n/a	RESPONSE	        M5	1	04	E3	release
544.801	n/a	RESPONSE	        M5	1	02	D3	press
544.805	n/a	RESPONSE	        M5	1	21	A4	press
544.904	n/a	RESPONSE	        M5	1	09	A3	release
545.025	n/a	RESPONSE	        M5	1	21	A4	release
545.228	n/a	RESPONSE	        M5	1	21	A4	press
545.238	n/a	RESPONSE	        M5	1	09	A3	press
545.299	n/a	RESPONSE	        M5	1	02	D3	release
545.4	n/a	RESPONSE	        M5	1	21	A4	release
545.611	n/a	RESPONSE	        M5	1	00	C3	press
545.622	n/a	RESPONSE	        M5	1	21	A4	press
545.674	n/a	RESPONSE	        M5	1	09	A3	release
545.99	n/a	RESPONSE	        M5	1	09	A3	press
546.032	n/a	RESPONSE	        M5	1	21	A4	release
546.066	n/a	RESPONSE	        M5	1	00	C3	release
546.395	n/a	RESPONSE	        M5	1	05	F3	press
546.42	n/a	RESPONSE	        M5	1	21	A4	press
546.474	n/a	RESPONSE	        M5	1	09	A3	release
546.83	n/a	RESPONSE	        M5	1	24	C5	press
546.84	n/a	RESPONSE	        M5	1	09	A3	press
546.851	n/a	RESPONSE	        M5	1	23	B4	press
546.866	n/a	RESPONSE	        M5	1	21	A4	release
546.888	n/a	RESPONSE	        M5	1	05	F3	release
546.99	n/a	RESPONSE	        M5	1	23	B4	release
547.35	n/a	RESPONSE	        M5	1	24	C5	release
547.362	n/a	RESPONSE	        M5	1	16	E4	press
547.389	n/a	RESPONSE	        M5	1	04	E3	press
547.449	n/a	RESPONSE	        M5	1	09	A3	release
547.785	n/a	RESPONSE	        M5	1	09	A3	press
547.805	n/a	RESPONSE	        M5	1	17	F4	press
547.856	n/a	RESPONSE	        M5	1	04	E3	release
547.875	n/a	RESPONSE	        M5	1	16	E4	release
548.288	n/a	RESPONSE	        M5	1	17	F4	release
548.308	n/a	RESPONSE	        M5	1	09	A3	release
548.349	n/a	RESPONSE	        M5	1	19	G4	press
548.445	n/a	RESPONSE	        M5	1	02	D3	press
548.9	n/a	RESPONSE	        M5	1	09	A3	press
548.949	n/a	RESPONSE	        M5	1	02	D3	release
549.049	7.758	FIXCROSS	n/a	n/a	n/a	n/a	n/a
549.28	n/a	RESPONSE	        M5	1	00	C3	press
549.335	n/a	RESPONSE	        M5	1	09	A3	release
549.605	n/a	RESPONSE	        M5	1	19	G4	release
549.618	n/a	RESPONSE	        M5	1	00	C3	release
549.62	n/a	RESPONSE	        M5	1	09	A3	press
550.381	n/a	RESPONSE	        M5	1	09	A3	release
556.808	6.317	CUE_LISTEN	        M5	2	n/a	n/a	n/a
563.124	7.758	FIXCROSS	n/a	n/a	n/a	n/a	n/a
570.883	6.325	CUE_PLAYBACK_BOTH_HANDS	        M5	2	n/a	n/a	n/a
571.315	n/a	RESPONSE	        M5	2	05	F3	press
571.326	n/a	RESPONSE	        M5	2	22	A#4	press
571.558	n/a	RESPONSE	        M5	2	22	A#4	release
571.759	n/a	RESPONSE	        M5	2	22	A#4	press
571.78	n/a	RESPONSE	        M5	2	08	G#3	press
571.994	n/a	RESPONSE	        M5	2	22	A#4	release
572.005	n/a	RESPONSE	        M5	2	05	F3	release
572.185	n/a	RESPONSE	        M5	2	08	G#3	release
572.196	n/a	RESPONSE	        M5	2	22	A#4	press
572.228	n/a	RESPONSE	        M5	2	02	D3	press
572.389	n/a	RESPONSE	        M5	2	22	A#4	release
572.56	n/a	RESPONSE	        M5	2	08	G#3	press
572.571	n/a	RESPONSE	        M5	2	02	D3	release
572.612	n/a	RESPONSE	        M5	2	22	A#4	press
572.784	n/a	RESPONSE	        M5	2	22	A#4	release
573.205	n/a	RESPONSE	        M5	2	08	G#3	release
573.476	n/a	RESPONSE	        M5	2	02	D3	press
573.489	n/a	RESPONSE	        M5	2	22	A#4	press
573.77	n/a	RESPONSE	        M5	2	02	D3	release
573.89	n/a	RESPONSE	        M5	2	22	A#4	release
574.421	n/a	RESPONSE	        M5	2	05	F3	press
574.455	n/a	RESPONSE	        M5	2	21	A4	press
574.706	n/a	RESPONSE	        M5	2	21	A4	release
574.875	n/a	RESPONSE	        M5	2	05	F3	release
575.316	n/a	RESPONSE	        M5	2	00	C3	press
575.358	n/a	RESPONSE	        M5	2	21	A4	press
575.58	n/a	RESPONSE	        M5	2	00	C3	release
575.59	n/a	RESPONSE	        M5	2	21	A4	release
575.805	n/a	RESPONSE	        M5	2	05	F3	press
575.832	n/a	RESPONSE	        M5	2	21	A4	press
576.214	n/a	RESPONSE	        M5	2	05	F3	release
576.26	n/a	RESPONSE	        M5	2	21	A4	release
576.285	n/a	RESPONSE	        M5	2	24	C5	press
576.312	n/a	RESPONSE	        M5	2	00	C3	press
576.609	n/a	RESPONSE	        M5	2	00	C3	release
576.616	n/a	RESPONSE	        M5	2	24	C5	release
576.71	n/a	RESPONSE	        M5	2	24	C5	press
576.726	n/a	RESPONSE	        M5	2	00	C3	press
577.208	7.758	FIXCROSS	n/a	n/a	n/a	n/a	n/a
577.218	n/a	RESPONSE	        M5	2	07	G3	press
577.235	n/a	RESPONSE	        M5	2	22	A#4	press
577.294	n/a	RESPONSE	        M5	2	24	C5	release
577.308	n/a	RESPONSE	        M5	2	00	C3	release
577.648	n/a	RESPONSE	        M5	2	04	E3	press
577.659	n/a	RESPONSE	        M5	2	19	G4	press
577.732	n/a	RESPONSE	        M5	2	07	G3	release
577.774	n/a	RESPONSE	        M5	2	22	A#4	release
578.115	n/a	RESPONSE	        M5	2	05	F3	press
578.121	n/a	RESPONSE	        M5	2	17	F4	press
578.181	n/a	RESPONSE	        M5	2	19	G4	release
578.185	n/a	RESPONSE	        M5	2	04	E3	release
578.401	n/a	RESPONSE	        M5	2	17	F4	release
578.451	n/a	RESPONSE	        M5	2	05	F3	release
584.966	6.317	CUE_LISTEN	        M1	1	n/a	n/a	n/a
591.283	7.758	FIXCROSS	n/a	n/a	n/a	n/a	n/a
599.041	6.317	CUE_PLAYBACK_BOTH_HANDS	        M1	1	n/a	n/a	n/a
599.462	n/a	RESPONSE	        M1	1	19	G4	press
599.476	n/a	RESPONSE	        M1	1	07	G3	press
599.485	n/a	RESPONSE	        M1	1	04	E3	press
599.489	n/a	RESPONSE	        M1	1	00	C3	press
599.99	n/a	RESPONSE	        M1	1	16	E4	press
600.029	n/a	RESPONSE	        M1	1	19	G4	release
600.25	n/a	RESPONSE	        M1	1	16	E4	release
600.441	n/a	RESPONSE	        M1	1	16	E4	press
600.674	n/a	RESPONSE	        M1	1	04	E3	release
600.676	n/a	RESPONSE	        M1	1	00	C3	release
600.696	n/a	RESPONSE	        M1	1	16	E4	release
600.808	n/a	RESPONSE	        M1	1	07	G3	release
600.929	n/a	RESPONSE	        M1	1	05	F3	press
600.94	n/a	RESPONSE	        M1	1	07	G3	press
600.942	n/a	RESPONSE	        M1	1	17	F4	press
600.955	n/a	RESPONSE	        M1	1	02	D3	press
601.414	n/a	RESPONSE	        M1	1	14	D4	press
601.475	n/a	RESPONSE	        M1	1	17	F4	release
601.686	n/a	RESPONSE	        M1	1	14	D4	release
601.878	n/a	RESPONSE	        M1	1	14	D4	press
602.06	n/a	RESPONSE	        M1	1	05	F3	release
602.091	n/a	RESPONSE	        M1	1	14	D4	release
602.094	n/a	RESPONSE	        M1	1	02	D3	release
602.344	n/a	RESPONSE	        M1	1	04	E3	press
602.355	n/a	RESPONSE	        M1	1	12	C4	press
602.388	n/a	RESPONSE	        M1	1	00	C3	press
602.628	n/a	RESPONSE	        M1	1	16	E4	press
602.729	n/a	RESPONSE	        M1	1	12	C4	release
602.85	n/a	RESPONSE	        M1	1	19	G4	press
602.952	n/a	RESPONSE	        M1	1	16	E4	release
603.432	n/a	RESPONSE	        M1	1	19	G4	release
603.504	n/a	RESPONSE	        M1	1	00	C3	release
603.595	n/a	RESPONSE	        M1	1	04	E3	release
605.358	7.758	FIXCROSS	n/a	n/a	n/a	n/a	n/a
605.426	n/a	RESPONSE	        M1	1	07	G3	release
613.116	6.325	CUE_LISTEN	        M1	2	n/a	n/a	n/a
619.441	7.759	FIXCROSS	n/a	n/a	n/a	n/a	n/a
627.2	6.317	CUE_PLAYBACK_BOTH_HANDS	        M1	2	n/a	n/a	n/a
627.621	n/a	RESPONSE	        M1	2	07	G3	press
627.624	n/a	RESPONSE	        M1	2	19	G4	press
627.628	n/a	RESPONSE	        M1	2	00	C3	press
627.64	n/a	RESPONSE	        M1	2	04	E3	press
628.121	n/a	RESPONSE	        M1	2	16	E4	press
628.155	n/a	RESPONSE	        M1	2	19	G4	release
628.385	n/a	RESPONSE	        M1	2	16	E4	release
628.619	n/a	RESPONSE	        M1	2	16	E4	press
628.831	n/a	RESPONSE	        M1	2	00	C3	release
628.87	n/a	RESPONSE	        M1	2	16	E4	release
628.881	n/a	RESPONSE	        M1	2	04	E3	release
629.101	n/a	RESPONSE	        M1	2	17	F4	press
629.105	n/a	RESPONSE	        M1	2	05	F3	press
629.115	n/a	RESPONSE	        M1	2	02	D3	press
629.625	n/a	RESPONSE	        M1	2	14	D4	press
629.656	n/a	RESPONSE	        M1	2	17	F4	release
629.858	n/a	RESPONSE	        M1	2	14	D4	release
630.099	n/a	RESPONSE	        M1	2	14	D4	press
630.3	n/a	RESPONSE	        M1	2	05	F3	release
630.302	n/a	RESPONSE	        M1	2	14	D4	release
630.322	n/a	RESPONSE	        M1	2	02	D3	release
630.574	n/a	RESPONSE	        M1	2	04	E3	press
630.588	n/a	RESPONSE	        M1	2	00	C3	press
630.596	n/a	RESPONSE	        M1	2	12	C4	press
630.868	n/a	RESPONSE	        M1	2	16	E4	press
630.959	n/a	RESPONSE	        M1	2	12	C4	release
631.12	n/a	RESPONSE	        M1	2	12	C4	press
631.141	n/a	RESPONSE	        M1	2	16	E4	release
631.922	n/a	RESPONSE	        M1	2	12	C4	release
631.945	n/a	RESPONSE	        M1	2	04	E3	release
632.076	n/a	RESPONSE	        M1	2	00	C3	release
633.516	7.758	FIXCROSS	n/a	n/a	n/a	n/a	n/a
636.411	n/a	RESPONSE	        M1	2	07	G3	release
641.275	6.317	CUE_LISTEN	        M7	1	n/a	n/a	n/a
647.591	7.767	FIXCROSS	n/a	n/a	n/a	n/a	n/a
655.358	6.317	CUE_PLAYBACK_RIGHT_HAND	        M7	1	n/a	n/a	n/a
655.869	n/a	RESPONSE	        M7	1	22	A#4	press
656.49	n/a	RESPONSE	        M7	1	21	A4	press
656.63	n/a	RESPONSE	        M7	1	22	A#4	release
657.08	n/a	RESPONSE	        M7	1	19	G4	press
657.169	n/a	RESPONSE	        M7	1	21	A4	release
657.714	n/a	RESPONSE	        M7	1	21	A4	press
657.789	n/a	RESPONSE	        M7	1	19	G4	release
658.359	n/a	RESPONSE	        M7	1	14	D4	press
658.485	n/a	RESPONSE	        M7	1	21	A4	release
658.722	n/a	RESPONSE	        M7	1	14	D4	release
658.988	n/a	RESPONSE	        M7	1	14	D4	press
659.628	n/a	RESPONSE	        M7	1	19	G4	press
659.73	n/a	RESPONSE	        M7	1	14	D4	release
660.432	n/a	RESPONSE	        M7	1	19	G4	release
661.675	7.758	FIXCROSS	n/a	n/a	n/a	n/a	n/a
669.433	6.317	CUE_LISTEN	        M7	2	n/a	n/a	n/a
675.75	7.758	FIXCROSS	n/a	n/a	n/a	n/a	n/a
679.98	n/a	RESPONSE	        M7	2	20	G#4	press
680.291	n/a	RESPONSE	        M7	2	20	G#4	release
681.032	n/a	RESPONSE	        M7	2	15	D#4	press
681.315	n/a	RESPONSE	        M7	2	15	D#4	release
683.508	6.317	CUE_PLAYBACK_RIGHT_HAND	        M7	2	n/a	n/a	n/a
684.068	n/a	RESPONSE	        M7	2	15	D#4	press
684.671	n/a	RESPONSE	        M7	2	17	F4	press
684.721	n/a	RESPONSE	        M7	2	15	D#4	release
685.041	n/a	RESPONSE	        M7	2	15	D#4	press
685.092	n/a	RESPONSE	        M7	2	17	F4	release
685.405	n/a	RESPONSE	        M7	2	14	D4	press
685.485	n/a	RESPONSE	        M7	2	15	D#4	release
685.757	n/a	RESPONSE	        M7	2	12	C4	press
685.781	n/a	RESPONSE	        M7	2	14	D4	release
686.131	n/a	RESPONSE	        M7	2	14	D4	press
686.222	n/a	RESPONSE	        M7	2	12	C4	release
686.75	n/a	RESPONSE	        M7	2	15	D#4	press
686.799	n/a	RESPONSE	        M7	2	14	D4	release
687.112	n/a	RESPONSE	        M7	2	14	D4	press
687.191	n/a	RESPONSE	        M7	2	15	D#4	release
687.495	n/a	RESPONSE	        M7	2	12	C4	press
687.521	n/a	RESPONSE	        M7	2	14	D4	release
687.94	n/a	RESPONSE	        M7	2	10	A#3	press
688.04	n/a	RESPONSE	        M7	2	12	C4	release
688.328	n/a	RESPONSE	        M7	2	10	A#3	release
688.376	n/a	RESPONSE	        M7	2	12	C4	press
688.938	n/a	RESPONSE	        M7	2	12	C4	release
689.481	n/a	RESPONSE	        M7	2	14	D4	press
689.825	7.758	FIXCROSS	n/a	n/a	n/a	n/a	n/a
690.122	n/a	RESPONSE	        M7	2	14	D4	release
690.245	n/a	RESPONSE	        M7	2	09	A3	press
690.595	n/a	RESPONSE	        M7	2	09	A3	release
697.583	6.325	CUE_LISTEN	        M4	1	n/a	n/a	n/a
703.908	7.758	FIXCROSS	n/a	n/a	n/a	n/a	n/a
711.666	6.317	CUE_PLAYBACK_RIGHT_HAND	        M4	1	n/a	n/a	n/a
712.127	n/a	RESPONSE	        M4	1	12	C4	press
712.609	n/a	RESPONSE	        M4	1	16	E4	press
712.71	n/a	RESPONSE	        M4	1	12	C4	release
713.031	n/a	RESPONSE	        M4	1	16	E4	release
713.252	n/a	RESPONSE	        M4	1	12	C4	press
713.844	n/a	RESPONSE	        M4	1	17	F4	press
714.355	n/a	RESPONSE	        M4	1	17	F4	release
714.456	n/a	RESPONSE	        M4	1	19	G4	press
714.52	n/a	RESPONSE	        M4	1	12	C4	release
714.839	n/a	RESPONSE	        M4	1	19	G4	release
715.23	n/a	RESPONSE	        M4	1	12	C4	press
715.591	n/a	RESPONSE	        M4	1	17	F4	press
715.692	n/a	RESPONSE	        M4	1	12	C4	release
716.002	n/a	RESPONSE	        M4	1	21	A4	press
716.054	n/a	RESPONSE	        M4	1	17	F4	release
716.355	n/a	RESPONSE	        M4	1	19	G4	press
716.406	n/a	RESPONSE	        M4	1	21	A4	release
716.719	n/a	RESPONSE	        M4	1	17	F4	press
716.831	n/a	RESPONSE	        M4	1	19	G4	release
717.092	n/a	RESPONSE	        M4	1	16	E4	press
717.18	n/a	RESPONSE	        M4	1	17	F4	release
717.46	n/a	RESPONSE	        M4	1	17	F4	press
717.554	n/a	RESPONSE	        M4	1	16	E4	release
717.906	n/a	RESPONSE	        M4	1	17	F4	release
717.983	7.758	FIXCROSS	n/a	n/a	n/a	n/a	n/a
718.121	n/a	RESPONSE	        M4	1	12	C4	press
718.354	n/a	RESPONSE	        M4	1	12	C4	release
725.742	6.325	CUE_LISTEN	        M4	2	n/a	n/a	n/a
732.066	7.758	FIXCROSS	n/a	n/a	n/a	n/a	n/a
739.825	6.317	CUE_PLAYBACK_RIGHT_HAND	        M4	2	n/a	n/a	n/a
740.289	n/a	RESPONSE	        M4	2	12	C4	press
740.82	n/a	RESPONSE	        M4	2	17	F4	press
740.931	n/a	RESPONSE	        M4	2	12	C4	release
741.192	n/a	RESPONSE	        M4	2	12	C4	press
741.364	n/a	RESPONSE	        M4	2	21	A4	press
741.415	n/a	RESPONSE	        M4	2	12	C4	release
741.417	n/a	RESPONSE	        M4	2	17	F4	release
741.887	n/a	RESPONSE	        M4	2	23	B4	press
741.929	n/a	RESPONSE	        M4	2	21	A4	release
742.602	n/a	RESPONSE	        M4	2	23	B4	release
742.614	n/a	RESPONSE	        M4	2	22	A#4	press
743.134	n/a	RESPONSE	        M4	2	21	A4	press
743.365	n/a	RESPONSE	        M4	2	22	A#4	release
743.616	n/a	RESPONSE	        M4	2	19	G4	press
743.66	n/a	RESPONSE	        M4	2	21	A4	release
743.959	n/a	RESPONSE	        M4	2	19	G4	release
744.38	n/a	RESPONSE	        M4	2	14	D4	press
744.761	n/a	RESPONSE	        M4	2	14	D4	release
744.945	n/a	RESPONSE	        M4	2	16	E4	press
744.975	n/a	RESPONSE	        M4	2	14	D4	press
745.109	n/a	RESPONSE	        M4	2	14	D4	release
745.439	n/a	RESPONSE	        M4	2	19	G4	press
745.561	n/a	RESPONSE	        M4	2	16	E4	release
745.917	n/a	RESPONSE	        M4	2	23	B4	press
745.986	n/a	RESPONSE	        M4	2	19	G4	release
746.142	7.758	FIXCROSS	n/a	n/a	n/a	n/a	n/a
746.521	n/a	RESPONSE	        M4	2	23	B4	release
753.9	6.317	CUE_LISTEN	        M2	1	n/a	n/a	n/a
760.216	7.759	FIXCROSS	n/a	n/a	n/a	n/a	n/a
767.975	6.325	CUE_PLAYBACK_BOTH_HANDS	        M2	1	n/a	n/a	n/a
768.581	n/a	RESPONSE	        M2	1	24	C5	press
768.586	n/a	RESPONSE	        M2	1	00	C3	press
768.596	n/a	RESPONSE	        M2	1	07	G3	press
769.035	n/a	RESPONSE	        M2	1	19	G4	press
769.111	n/a	RESPONSE	        M2	1	24	C5	release
769.261	n/a	RESPONSE	        M2	1	00	C3	release
769.285	n/a	RESPONSE	        M2	1	19	G4	release
769.362	n/a	RESPONSE	        M2	1	07	G3	release
769.424	n/a	RESPONSE	        M2	1	00	C3	press
769.435	n/a	RESPONSE	        M2	1	19	G4	press
769.437	n/a	RESPONSE	        M2	1	07	G3	press
769.859	n/a	RESPONSE	        M2	1	17	F4	press
769.939	n/a	RESPONSE	        M2	1	19	G4	release
769.941	n/a	RESPONSE	        M2	1	00	C3	release
769.972	n/a	RESPONSE	        M2	1	07	G3	release
770.224	n/a	RESPONSE	        M2	1	00	C3	press
770.234	n/a	RESPONSE	        M2	1	07	G3	press
770.285	n/a	RESPONSE	        M2	1	16	E4	press
770.336	n/a	RESPONSE	        M2	1	17	F4	release
770.657	n/a	RESPONSE	        M2	1	17	F4	press
770.719	n/a	RESPONSE	        M2	1	00	C3	release
770.73	n/a	RESPONSE	        M2	1	16	E4	release
770.771	n/a	RESPONSE	        M2	1	07	G3	release
771.092	n/a	RESPONSE	        M2	1	07	G3	press
771.095	n/a	RESPONSE	        M2	1	19	G4	press
771.115	n/a	RESPONSE	        M2	1	00	C3	press
771.187	n/a	RESPONSE	        M2	1	17	F4	release
771.397	n/a	RESPONSE	        M2	1	19	G4	release
771.501	n/a	RESPONSE	        M2	1	00	C3	release
771.63	n/a	RESPONSE	        M2	1	07	G3	release
772.022	n/a	RESPONSE	        M2	1	24	C5	press
772.034	n/a	RESPONSE	        M2	1	07	G3	press
772.036	n/a	RESPONSE	        M2	1	00	C3	press
772.436	n/a	RESPONSE	        M2	1	19	G4	press
772.517	n/a	RESPONSE	        M2	1	24	C5	release
772.601	n/a	RESPONSE	        M2	1	00	C3	release
772.691	n/a	RESPONSE	        M2	1	07	G3	release
772.701	n/a	RESPONSE	        M2	1	19	G4	release
772.805	n/a	RESPONSE	        M2	1	00	C3	press
772.814	n/a	RESPONSE	        M2	1	07	G3	press
772.816	n/a	RESPONSE	        M2	1	19	G4	press
773.186	n/a	RESPONSE	        M2	1	17	F4	press
773.267	n/a	RESPONSE	        M2	1	00	C3	release
773.299	n/a	RESPONSE	        M2	1	07	G3	release
773.32	n/a	RESPONSE	        M2	1	19	G4	release
773.551	n/a	RESPONSE	        M2	1	07	G3	press
773.562	n/a	RESPONSE	        M2	1	00	C3	press
773.614	n/a	RESPONSE	        M2	1	16	E4	press
773.677	n/a	RESPONSE	        M2	1	17	F4	release
773.967	n/a	RESPONSE	        M2	1	14	D4	press
774.047	n/a	RESPONSE	        M2	1	16	E4	release
774.089	n/a	RESPONSE	        M2	1	07	G3	release
774.101	n/a	RESPONSE	        M2	1	00	C3	release
774.3	7.758	FIXCROSS	n/a	n/a	n/a	n/a	n/a
774.361	n/a	RESPONSE	        M2	1	07	G3	press
774.372	n/a	RESPONSE	        M2	1	00	C3	press
774.384	n/a	RESPONSE	        M2	1	12	C4	press
774.417	n/a	RESPONSE	        M2	1	14	D4	release
774.999	n/a	RESPONSE	        M2	1	00	C3	release
775.047	n/a	RESPONSE	        M2	1	07	G3	release
775.079	n/a	RESPONSE	        M2	1	12	C4	release
782.058	6.317	CUE_LISTEN	        M2	2	n/a	n/a	n/a
788.375	7.758	FIXCROSS	n/a	n/a	n/a	n/a	n/a
796.133	6.317	CUE_PLAYBACK_BOTH_HANDS	        M2	2	n/a	n/a	n/a
796.689	n/a	RESPONSE	        M2	2	00	C3	press
796.691	n/a	RESPONSE	        M2	2	12	C4	press
796.694	n/a	RESPONSE	        M2	2	07	G3	press
797.08	n/a	RESPONSE	        M2	2	14	D4	press
797.144	n/a	RESPONSE	        M2	2	12	C4	release
797.187	n/a	RESPONSE	        M2	2	07	G3	release
797.21	n/a	RESPONSE	        M2	2	00	C3	release
797.452	n/a	RESPONSE	        M2	2	00	C3	press
797.455	n/a	RESPONSE	        M2	2	16	E4	press
797.462	n/a	RESPONSE	        M2	2	07	G3	press
797.519	n/a	RESPONSE	        M2	2	14	D4	release
797.825	n/a	RESPONSE	        M2	2	14	D4	press
797.874	n/a	RESPONSE	        M2	2	00	C3	release
797.885	n/a	RESPONSE	        M2	2	16	E4	release
797.895	n/a	RESPONSE	        M2	2	07	G3	release
798.179	n/a	RESPONSE	        M2	2	07	G3	press
798.187	n/a	RESPONSE	        M2	2	00	C3	press
798.215	n/a	RESPONSE	        M2	2	16	E4	press
798.299	n/a	RESPONSE	        M2	2	14	D4	release
798.547	n/a	RESPONSE	        M2	2	17	F4	press
798.621	n/a	RESPONSE	        M2	2	16	E4	release
798.669	n/a	RESPONSE	        M2	2	00	C3	release
798.676	n/a	RESPONSE	        M2	2	07	G3	release
798.901	n/a	RESPONSE	        M2	2	19	G4	press
798.926	n/a	RESPONSE	        M2	2	00	C3	press
798.936	n/a	RESPONSE	        M2	2	07	G3	press
798.975	n/a	RESPONSE	        M2	2	17	F4	release
799.341	n/a	RESPONSE	        M2	2	19	G4	release
799.38	n/a	RESPONSE	        M2	2	00	C3	release
799.43	n/a	RESPONSE	        M2	2	07	G3	release
799.571	n/a	RESPONSE	        M2	2	16	E4	press
799.574	n/a	RESPONSE	        M2	2	07	G3	press
799.584	n/a	RESPONSE	        M2	2	00	C3	press
799.935	n/a	RESPONSE	        M2	2	19	G4	press
800.016	n/a	RESPONSE	        M2	2	16	E4	release
800.057	n/a	RESPONSE	        M2	2	00	C3	release
800.079	n/a	RESPONSE	        M2	2	07	G3	release
800.2	n/a	RESPONSE	        M2	2	19	G4	release
800.291	n/a	RESPONSE	        M2	2	07	G3	press
800.302	n/a	RESPONSE	        M2	2	00	C3	press
800.314	n/a	RESPONSE	        M2	2	19	G4	press
800.675	n/a	RESPONSE	        M2	2	17	F4	press
800.747	n/a	RESPONSE	        M2	2	19	G4	release
800.78	n/a	RESPONSE	        M2	2	00	C3	release
800.799	n/a	RESPONSE	        M2	2	07	G3	release
801.022	n/a	RESPONSE	        M2	2	16	E4	press
801.061	n/a	RESPONSE	        M2	2	00	C3	press
801.065	n/a	RESPONSE	        M2	2	07	G3	press
801.084	n/a	RESPONSE	        M2	2	17	F4	release
801.445	n/a	RESPONSE	        M2	2	14	D4	press
801.516	n/a	RESPONSE	        M2	2	00	C3	release
801.519	n/a	RESPONSE	        M2	2	16	E4	release
801.529	n/a	RESPONSE	        M2	2	07	G3	release
801.83	n/a	RESPONSE	        M2	2	00	C3	press
801.832	n/a	RESPONSE	        M2	2	07	G3	press
801.852	n/a	RESPONSE	        M2	2	12	C4	press
801.934	n/a	RESPONSE	        M2	2	14	D4	release
802.45	7.758	FIXCROSS	n/a	n/a	n/a	n/a	n/a
802.517	n/a	RESPONSE	        M2	2	00	C3	release
802.689	n/a	RESPONSE	        M2	2	12	C4	release
803.619	n/a	RESPONSE	        M2	2	07	G3	release
810.208	6.317	CUE_LISTEN	        M8	1	n/a	n/a	n/a
816.525	7.758	FIXCROSS	n/a	n/a	n/a	n/a	n/a
824.283	6.325	CUE_PLAYBACK_BOTH_HANDS	        M8	1	n/a	n/a	n/a
824.795	n/a	RESPONSE	        M8	1	14	D4	press
825.196	n/a	RESPONSE	        M8	1	14	D4	release
825.699	n/a	RESPONSE	        M8	1	12	C4	press
826.104	n/a	RESPONSE	        M8	1	12	C4	release
826.849	n/a	RESPONSE	        M8	1	17	F4	press
827.357	n/a	RESPONSE	        M8	1	17	F4	release
827.894	n/a	RESPONSE	        M8	1	16	E4	press
828.541	n/a	RESPONSE	        M8	1	19	G4	press
828.692	n/a	RESPONSE	        M8	1	16	E4	release
828.93	n/a	RESPONSE	        M8	1	23	B4	press
828.944	n/a	RESPONSE	        M8	1	19	G4	release
829.234	n/a	RESPONSE	        M8	1	23	B4	release
829.402	n/a	RESPONSE	        M8	1	23	B4	press
829.904	n/a	RESPONSE	        M8	1	07	G3	press
829.915	n/a	RESPONSE	        M8	1	18	F#4	press
829.969	n/a	RESPONSE	        M8	1	23	B4	release
830.247	n/a	RESPONSE	        M8	1	12	C4	press
830.25	n/a	RESPONSE	        M8	1	11	B3	press
830.522	n/a	RESPONSE	        M8	1	12	C4	release
830.608	7.758	FIXCROSS	n/a	n/a	n/a	n/a	n/a
830.662	n/a	RESPONSE	        M8	1	18	F#4	release
830.722	n/a	RESPONSE	        M8	1	07	G3	release
830.725	n/a	RESPONSE	        M8	1	21	A4	press
830.787	n/a	RESPONSE	        M8	1	14	D4	press
830.796	n/a	RESPONSE	        M8	1	11	B3	release
831.127	n/a	RESPONSE	        M8	1	14	D4	release
831.179	n/a	RESPONSE	        M8	1	21	A4	release
838.367	6.317	CUE_LISTEN	        M8	2	n/a	n/a	n/a
844.683	7.758	FIXCROSS	n/a	n/a	n/a	n/a	n/a
852.442	6.325	CUE_PLAYBACK_BOTH_HANDS	        M8	2	n/a	n/a	n/a
852.919	n/a	RESPONSE	        M8	2	16	E4	press
853.199	n/a	RESPONSE	        M8	2	19	G4	press
853.31	n/a	RESPONSE	        M8	2	16	E4	release
853.501	n/a	RESPONSE	        M8	2	23	B4	press
853.504	n/a	RESPONSE	        M8	2	19	G4	release
853.845	n/a	RESPONSE	        M8	2	23	B4	release
854.556	n/a	RESPONSE	        M8	2	07	G3	press
854.587	n/a	RESPONSE	        M8	2	18	F#4	press
854.64	n/a	RESPONSE	        M8	2	23	B4	release
854.881	n/a	RESPONSE	        M8	2	11	B3	press
855.142	n/a	RESPONSE	        M8	2	07	G3	release
855.162	n/a	RESPONSE	        M8	2	21	A4	press
855.196	n/a	RESPONSE	        M8	2	18	F#4	release
855.235	n/a	RESPONSE	        M8	2	14	D4	press
855.296	n/a	RESPONSE	        M8	2	11	B3	release
855.62	n/a	RESPONSE	        M8	2	14	D4	release
855.629	n/a	RESPONSE	        M8	2	21	A4	release
855.754	n/a	RESPONSE	        M8	2	14	D4	press
855.756	n/a	RESPONSE	        M8	2	21	A4	press
856.02	n/a	RESPONSE	        M8	2	21	A4	release
856.027	n/a	RESPONSE	        M8	2	14	D4	release
856.314	n/a	RESPONSE	        M8	2	13	C#4	press
856.316	n/a	RESPONSE	        M8	2	23	B4	press
856.88	n/a	RESPONSE	        M8	2	13	C#4	release
856.964	n/a	RESPONSE	        M8	2	21	A4	press
856.975	n/a	RESPONSE	        M8	2	23	B4	release
857.034	n/a	RESPONSE	        M8	2	09	A3	press
857.16	n/a	RESPONSE	        M8	2	09	A3	release
857.361	n/a	RESPONSE	        M8	2	19	G4	press
857.43	n/a	RESPONSE	        M8	2	21	A4	release
857.711	n/a	RESPONSE	        M8	2	17	F4	press
857.809	n/a	RESPONSE	        M8	2	19	G4	release
857.921	n/a	RESPONSE	        M8	2	17	F4	release
858.461	n/a	RESPONSE	        M8	2	18	F#4	press
858.767	7.758	FIXCROSS	n/a	n/a	n/a	n/a	n/a
859.271	n/a	RESPONSE	        M8	2	14	D4	press
859.294	n/a	RESPONSE	        M8	2	18	F#4	release
859.507	n/a	RESPONSE	        M8	2	14	D4	release
866.525	6.317	CUE_LISTEN	        M6	1	n/a	n/a	n/a
872.842	7.758	FIXCROSS	n/a	n/a	n/a	n/a	n/a
873.56	n/a	RESPONSE	        M6	1	16	E4	press
873.934	n/a	RESPONSE	        M6	1	16	E4	release
874.292	n/a	RESPONSE	        M6	1	17	F4	press
874.594	n/a	RESPONSE	        M6	1	17	F4	release
874.885	n/a	RESPONSE	        M6	1	19	G4	press
875.186	n/a	RESPONSE	        M6	1	19	G4	release
880.6	6.317	CUE_PLAYBACK_RIGHT_HAND	        M6	1	n/a	n/a	n/a
881.059	n/a	RESPONSE	        M6	1	19	G4	press
881.36	n/a	RESPONSE	        M6	1	18	F#4	press
881.421	n/a	RESPONSE	        M6	1	19	G4	release
881.644	n/a	RESPONSE	        M6	1	19	G4	press
881.686	n/a	RESPONSE	        M6	1	18	F#4	release
882.229	n/a	RESPONSE	        M6	1	23	B4	press
882.309	n/a	RESPONSE	        M6	1	19	G4	release
882.479	n/a	RESPONSE	        M6	1	24	C5	press
882.571	n/a	RESPONSE	        M6	1	23	B4	release
882.784	n/a	RESPONSE	        M6	1	23	B4	press
882.875	n/a	RESPONSE	        M6	1	24	C5	release
883.464	n/a	RESPONSE	        M6	1	23	B4	release
883.935	n/a	RESPONSE	        M6	1	17	F4	press
884.359	n/a	RESPONSE	        M6	1	17	F4	release
884.667	n/a	RESPONSE	        M6	1	20	G#4	press
885.089	n/a	RESPONSE	        M6	1	20	G#4	release
885.7	n/a	RESPONSE	        M6	1	18	F#4	press
885.999	n/a	RESPONSE	        M6	1	17	F4	press
886.006	n/a	RESPONSE	        M6	1	16	E4	press
886.081	n/a	RESPONSE	        M6	1	18	F#4	release
886.125	n/a	RESPONSE	        M6	1	16	E4	release
886.324	n/a	RESPONSE	        M6	1	18	F#4	press
886.345	n/a	RESPONSE	        M6	1	17	F4	release
886.771	n/a	RESPONSE	        M6	1	21	A4	press
886.794	n/a	RESPONSE	        M6	1	18	F#4	release
886.917	7.758	FIXCROSS	n/a	n/a	n/a	n/a	n/a
887.04	n/a	RESPONSE	        M6	1	23	B4	press
887.109	n/a	RESPONSE	        M6	1	21	A4	release
887.274	n/a	RESPONSE	        M6	1	21	A4	press
887.315	n/a	RESPONSE	        M6	1	23	B4	release
887.506	n/a	RESPONSE	        M6	1	21	A4	release
894.675	6.325	CUE_LISTEN	        M6	2	n/a	n/a	n/a
901.0	7.758	FIXCROSS	n/a	n/a	n/a	n/a	n/a
908.759	190.985	CUE_PLAYBACK_RIGHT_HAND	        M6	2	n/a	n/a	n/a
909.094	n/a	RESPONSE	        M6	2	23	B4	press
910.086	n/a	RESPONSE	        M6	2	19	G4	press
910.126	n/a	RESPONSE	        M6	2	23	B4	release
911.176	n/a	RESPONSE	        M6	2	19	G4	release
912.791	n/a	RESPONSE	        M6	2	23	B4	press
913.25	n/a	FIXCROSS	n/a	n/a	n/a	n/a	n/a
913.7	n/a	RESPONSE	        M6	2	18	F#4	press
913.761	n/a	RESPONSE	        M6	2	23	B4	release
914.282	n/a	RESPONSE	        M6	2	18	F#4	release
