onset	duration	trial_type	trial_number	stroop_condition	stim_text(PL)	stim_text(eng)	stim_color(PL)	stim_color(eng)	response_type	response_color
0.0	n/a	RESPONSE	n/a	n/a	n/a	n/a	n/a	n/a	n/a	n/a
0.0647	1.0333	ITI	n/a	n/a	n/a	n/a	n/a	n/a	n/a	n/a
1.098	0.5167	FIXCROSS	n/a	n/a	n/a	n/a	n/a	n/a	n/a	n/a
1.6147	1.1167	T_INK	1	Incongruent	zielony	green	czerwony	red	hit	n/a
2.6979	n/a	RESPONSE	n/a	n/a	n/a	n/a	n/a	n/a	n/a	red
2.7314	0.5167	FEEDBACK	n/a	n/a	n/a	n/a	n/a	n/a	n/a	n/a
3.248	1.0333	ITI	n/a	n/a	n/a	n/a	n/a	n/a	n/a	n/a
4.2814	0.5166	FIXCROSS	n/a	n/a	n/a	n/a	n/a	n/a	n/a	n/a
4.798	1.1667	T_INK	2	Incongruent	żółty	yellow	czerwony	red	hit	n/a
5.9386	n/a	RESPONSE	n/a	n/a	n/a	n/a	n/a	n/a	n/a	red
5.9647	0.5167	FEEDBACK	n/a	n/a	n/a	n/a	n/a	n/a	n/a	n/a
6.4814	1.0167	ITI	n/a	n/a	n/a	n/a	n/a	n/a	n/a	n/a
7.4981	0.5166	FIXCROSS	n/a	n/a	n/a	n/a	n/a	n/a	n/a	n/a
8.0147	0.9333	T_INK	3	Incongruent	czerwony	red	zielony	green	hit	n/a
8.9238	n/a	RESPONSE	n/a	n/a	n/a	n/a	n/a	n/a	n/a	green
8.9481	0.5167	FEEDBACK	n/a	n/a	n/a	n/a	n/a	n/a	n/a	n/a
9.4647	1.0167	ITI	n/a	n/a	n/a	n/a	n/a	n/a	n/a	n/a
10.4814	0.5167	FIXCROSS	n/a	n/a	n/a	n/a	n/a	n/a	n/a	n/a
10.9981	0.8667	T_INK	4	Neutral	xxxxx	xxxxx	zielony	green	hit	n/a
11.8292	n/a	RESPONSE	n/a	n/a	n/a	n/a	n/a	n/a	n/a	green
11.8648	0.5166	FEEDBACK	n/a	n/a	n/a	n/a	n/a	n/a	n/a	n/a
12.3814	1.0167	ITI	n/a	n/a	n/a	n/a	n/a	n/a	n/a	n/a
13.3981	0.5166	FIXCROSS	n/a	n/a	n/a	n/a	n/a	n/a	n/a	n/a
13.9147	1.2667	T_INK	5	Neutral	xxxxxxxx	xxxxxxxx	niebieski	blue	hit	n/a
15.1497	n/a	RESPONSE	n/a	n/a	n/a	n/a	n/a	n/a	n/a	blue
15.1814	0.5167	FEEDBACK	n/a	n/a	n/a	n/a	n/a	n/a	n/a	n/a
15.6981	1.0166	ITI	n/a	n/a	n/a	n/a	n/a	n/a	n/a	n/a
16.7148	0.5167	FIXCROSS	n/a	n/a	n/a	n/a	n/a	n/a	n/a	n/a
17.2315	0.8167	T_INK	6	Neutral	xxxxx	xxxxx	czerwony	red	hit	n/a
18.0231	n/a	RESPONSE	n/a	n/a	n/a	n/a	n/a	n/a	n/a	red
18.0482	0.5167	FEEDBACK	n/a	n/a	n/a	n/a	n/a	n/a	n/a	n/a
18.5648	1.0166	ITI	n/a	n/a	n/a	n/a	n/a	n/a	n/a	n/a
19.5815	0.5167	FIXCROSS	n/a	n/a	n/a	n/a	n/a	n/a	n/a	n/a
20.0981	0.9	T_INK	7	Incongruent	żółty	yellow	zielony	green	hit	n/a
20.9765	n/a	RESPONSE	n/a	n/a	n/a	n/a	n/a	n/a	n/a	green
20.9982	0.5167	FEEDBACK	n/a	n/a	n/a	n/a	n/a	n/a	n/a	n/a
21.5148	1.0167	ITI	n/a	n/a	n/a	n/a	n/a	n/a	n/a	n/a
22.5315	0.5167	FIXCROSS	n/a	n/a	n/a	n/a	n/a	n/a	n/a	n/a
23.0482	0.7833	T_INK	8	Neutral	xxxxxxx	xxxxxxx	niebieski	blue	hit	n/a
23.8019	n/a	RESPONSE	n/a	n/a	n/a	n/a	n/a	n/a	n/a	blue
23.8315	0.5167	FEEDBACK	n/a	n/a	n/a	n/a	n/a	n/a	n/a	n/a
24.3482	1.0167	ITI	n/a	n/a	n/a	n/a	n/a	n/a	n/a	n/a
25.3649	0.5167	FIXCROSS	n/a	n/a	n/a	n/a	n/a	n/a	n/a	n/a
25.8815	0.7667	T_INK	9	Incongruent	niebieski	blue	żółty	yellow	hit	n/a
26.6116	n/a	RESPONSE	n/a	n/a	n/a	n/a	n/a	n/a	n/a	yellow
26.6482	0.5166	FEEDBACK	n/a	n/a	n/a	n/a	n/a	n/a	n/a	n/a
27.1649	1.0167	ITI	n/a	n/a	n/a	n/a	n/a	n/a	n/a	n/a
28.1816	0.5166	FIXCROSS	n/a	n/a	n/a	n/a	n/a	n/a	n/a	n/a
28.6982	0.85	T_INK	10	Incongruent	żółty	yellow	niebieski	blue	hit	n/a
29.517	n/a	RESPONSE	n/a	n/a	n/a	n/a	n/a	n/a	n/a	blue
29.5482	0.5167	FEEDBACK	n/a	n/a	n/a	n/a	n/a	n/a	n/a	n/a
30.0649	1.0167	ITI	n/a	n/a	n/a	n/a	n/a	n/a	n/a	n/a
31.0816	0.5167	FIXCROSS	n/a	n/a	n/a	n/a	n/a	n/a	n/a	n/a
31.5982	0.95	T_INK	11	Neutral	xxxxxxx	xxxxxxx	żółty	yellow	hit	n/a
32.5182	n/a	RESPONSE	n/a	n/a	n/a	n/a	n/a	n/a	n/a	yellow
32.5482	0.5167	FEEDBACK	n/a	n/a	n/a	n/a	n/a	n/a	n/a	n/a
33.0649	1.0167	ITI	n/a	n/a	n/a	n/a	n/a	n/a	n/a	n/a
34.0816	0.5167	FIXCROSS	n/a	n/a	n/a	n/a	n/a	n/a	n/a	n/a
34.5983	0.8167	T_INK	12	Incongruent	niebieski	blue	zielony	green	hit	n/a
35.3918	n/a	RESPONSE	n/a	n/a	n/a	n/a	n/a	n/a	n/a	green
35.4149	0.5167	FEEDBACK	n/a	n/a	n/a	n/a	n/a	n/a	n/a	n/a
35.9316	1.0333	ITI	n/a	n/a	n/a	n/a	n/a	n/a	n/a	n/a
40.3086	n/a	RESPONSE	n/a	n/a	n/a	n/a	n/a	n/a	n/a	n/a
40.365	1.0167	ITI	n/a	n/a	n/a	n/a	n/a	n/a	n/a	n/a
41.3816	0.5167	FIXCROSS	n/a	n/a	n/a	n/a	n/a	n/a	n/a	n/a
41.8983	1.4833	INK	1	Neutral	xxxxxxx	xxxxxxx	niebieski	blue	hit	n/a
43.3576	n/a	RESPONSE	n/a	n/a	n/a	n/a	n/a	n/a	n/a	blue
43.3817	1.0167	ITI	n/a	n/a	n/a	n/a	n/a	n/a	n/a	n/a
44.3984	0.5167	FIXCROSS	n/a	n/a	n/a	n/a	n/a	n/a	n/a	n/a
44.915	0.8667	INK	2	Incongruent	niebieski	blue	żółty	yellow	hit	n/a
45.7522	n/a	RESPONSE	n/a	n/a	n/a	n/a	n/a	n/a	n/a	yellow
45.7817	1.0167	ITI	n/a	n/a	n/a	n/a	n/a	n/a	n/a	n/a
46.7984	0.5167	FIXCROSS	n/a	n/a	n/a	n/a	n/a	n/a	n/a	n/a
47.315	0.9333	INK	3	Incongruent	czerwony	red	zielony	green	hit	n/a
48.2265	n/a	RESPONSE	n/a	n/a	n/a	n/a	n/a	n/a	n/a	green
48.2484	1.0167	ITI	n/a	n/a	n/a	n/a	n/a	n/a	n/a	n/a
49.2651	0.5167	FIXCROSS	n/a	n/a	n/a	n/a	n/a	n/a	n/a	n/a
49.7817	0.75	INK	4	Neutral	xxxxx	xxxxx	czerwony	red	hit	n/a
50.5094	n/a	RESPONSE	n/a	n/a	n/a	n/a	n/a	n/a	n/a	red
50.5317	1.0166	ITI	n/a	n/a	n/a	n/a	n/a	n/a	n/a	n/a
51.5484	0.5167	FIXCROSS	n/a	n/a	n/a	n/a	n/a	n/a	n/a	n/a
52.0651	0.8833	INK	5	Incongruent	zielony	green	czerwony	red	hit	n/a
52.9198	n/a	RESPONSE	n/a	n/a	n/a	n/a	n/a	n/a	n/a	red
52.9484	1.0167	ITI	n/a	n/a	n/a	n/a	n/a	n/a	n/a	n/a
53.9651	0.5167	FIXCROSS	n/a	n/a	n/a	n/a	n/a	n/a	n/a	n/a
54.4818	0.7166	INK	6	Neutral	xxxxxxxx	xxxxxxxx	żółty	yellow	hit	n/a
55.1708	n/a	RESPONSE	n/a	n/a	n/a	n/a	n/a	n/a	n/a	yellow
55.1984	1.0167	ITI	n/a	n/a	n/a	n/a	n/a	n/a	n/a	n/a
56.2151	0.5167	FIXCROSS	n/a	n/a	n/a	n/a	n/a	n/a	n/a	n/a
56.7318	0.6333	INK	7	Incongruent	zielony	green	czerwony	red	hit	n/a
57.3418	n/a	RESPONSE	n/a	n/a	n/a	n/a	n/a	n/a	n/a	red
57.3651	1.0167	ITI	n/a	n/a	n/a	n/a	n/a	n/a	n/a	n/a
58.3818	0.5167	FIXCROSS	n/a	n/a	n/a	n/a	n/a	n/a	n/a	n/a
58.8985	0.5333	INK	8	Neutral	xxxxxxx	xxxxxxx	czerwony	red	hit	n/a
59.4012	n/a	RESPONSE	n/a	n/a	n/a	n/a	n/a	n/a	n/a	red
59.4318	1.0167	ITI	n/a	n/a	n/a	n/a	n/a	n/a	n/a	n/a
60.4485	0.5167	FIXCROSS	n/a	n/a	n/a	n/a	n/a	n/a	n/a	n/a
60.9651	0.7667	INK	9	Neutral	xxxxxxxx	xxxxxxxx	niebieski	blue	hit	n/a
61.7	n/a	RESPONSE	n/a	n/a	n/a	n/a	n/a	n/a	n/a	blue
61.7318	1.0167	ITI	n/a	n/a	n/a	n/a	n/a	n/a	n/a	n/a
62.7485	0.5167	FIXCROSS	n/a	n/a	n/a	n/a	n/a	n/a	n/a	n/a
63.2652	0.9667	INK	10	Incongruent	czerwony	red	zielony	green	hit	n/a
64.2063	n/a	RESPONSE	n/a	n/a	n/a	n/a	n/a	n/a	n/a	green
64.2318	1.0167	ITI	n/a	n/a	n/a	n/a	n/a	n/a	n/a	n/a
65.2485	0.5167	FIXCROSS	n/a	n/a	n/a	n/a	n/a	n/a	n/a	n/a
65.7652	0.7333	INK	11	Incongruent	zielony	green	żółty	yellow	hit	n/a
66.473	n/a	RESPONSE	n/a	n/a	n/a	n/a	n/a	n/a	n/a	yellow
66.4985	1.0167	ITI	n/a	n/a	n/a	n/a	n/a	n/a	n/a	n/a
67.5152	0.5167	FIXCROSS	n/a	n/a	n/a	n/a	n/a	n/a	n/a	n/a
68.0319	0.8	INK	12	Neutral	xxxxx	xxxxx	niebieski	blue	hit	n/a
68.8038	n/a	RESPONSE	n/a	n/a	n/a	n/a	n/a	n/a	n/a	blue
68.8319	1.0167	ITI	n/a	n/a	n/a	n/a	n/a	n/a	n/a	n/a
69.8485	0.5167	FIXCROSS	n/a	n/a	n/a	n/a	n/a	n/a	n/a	n/a
70.3652	0.7665	INK	13	Neutral	xxxxxxxxx	xxxxxxxxx	zielony	green	hit	n/a
71.1026	n/a	RESPONSE	n/a	n/a	n/a	n/a	n/a	n/a	n/a	green
71.1318	1.0168	ITI	n/a	n/a	n/a	n/a	n/a	n/a	n/a	n/a
72.1486	0.5166	FIXCROSS	n/a	n/a	n/a	n/a	n/a	n/a	n/a	n/a
72.6652	0.5834	INK	14	Neutral	xxxxxxxx	xxxxxxxx	niebieski	blue	hit	n/a
73.2257	n/a	RESPONSE	n/a	n/a	n/a	n/a	n/a	n/a	n/a	blue
73.2486	1.0167	ITI	n/a	n/a	n/a	n/a	n/a	n/a	n/a	n/a
74.2652	0.5166	FIXCROSS	n/a	n/a	n/a	n/a	n/a	n/a	n/a	n/a
74.7819	1.15	INK	15	Incongruent	czerwony	red	niebieski	blue	hit	n/a
75.9077	n/a	RESPONSE	n/a	n/a	n/a	n/a	n/a	n/a	n/a	blue
75.9319	1.0167	ITI	n/a	n/a	n/a	n/a	n/a	n/a	n/a	n/a
76.9486	0.5167	FIXCROSS	n/a	n/a	n/a	n/a	n/a	n/a	n/a	n/a
77.4653	0.8833	INK	16	Incongruent	niebieski	blue	zielony	green	hit	n/a
78.3183	n/a	RESPONSE	n/a	n/a	n/a	n/a	n/a	n/a	n/a	green
78.3486	1.0167	ITI	n/a	n/a	n/a	n/a	n/a	n/a	n/a	n/a
79.3653	0.5167	FIXCROSS	n/a	n/a	n/a	n/a	n/a	n/a	n/a	n/a
79.882	0.6	INK	17	Neutral	xxxxx	xxxxx	niebieski	blue	hit	n/a
80.4574	n/a	RESPONSE	n/a	n/a	n/a	n/a	n/a	n/a	n/a	blue
80.482	1.0167	ITI	n/a	n/a	n/a	n/a	n/a	n/a	n/a	n/a
81.4986	0.5167	FIXCROSS	n/a	n/a	n/a	n/a	n/a	n/a	n/a	n/a
82.0153	0.7	INK	18	Incongruent	zielony	green	żółty	yellow	hit	n/a
82.6923	n/a	RESPONSE	n/a	n/a	n/a	n/a	n/a	n/a	n/a	yellow
82.7153	1.0166	ITI	n/a	n/a	n/a	n/a	n/a	n/a	n/a	n/a
83.732	0.5167	FIXCROSS	n/a	n/a	n/a	n/a	n/a	n/a	n/a	n/a
84.2486	0.5834	INK	19	Neutral	xxxxxxxxx	xxxxxxxxx	żółty	yellow	hit	n/a
84.7995	n/a	RESPONSE	n/a	n/a	n/a	n/a	n/a	n/a	n/a	yellow
84.832	1.0167	ITI	n/a	n/a	n/a	n/a	n/a	n/a	n/a	n/a
85.8487	0.5167	FIXCROSS	n/a	n/a	n/a	n/a	n/a	n/a	n/a	n/a
86.3653	0.65	INK	20	Incongruent	żółty	yellow	czerwony	red	hit	n/a
86.9865	n/a	RESPONSE	n/a	n/a	n/a	n/a	n/a	n/a	n/a	red
87.0153	1.0167	ITI	n/a	n/a	n/a	n/a	n/a	n/a	n/a	n/a
88.032	0.5166	FIXCROSS	n/a	n/a	n/a	n/a	n/a	n/a	n/a	n/a
88.5487	0.7	INK	21	Incongruent	żółty	yellow	niebieski	blue	hit	n/a
89.2215	n/a	RESPONSE	n/a	n/a	n/a	n/a	n/a	n/a	n/a	blue
89.2487	1.0167	ITI	n/a	n/a	n/a	n/a	n/a	n/a	n/a	n/a
90.2654	0.5167	FIXCROSS	n/a	n/a	n/a	n/a	n/a	n/a	n/a	n/a
90.782	0.8333	INK	22	Incongruent	żółty	yellow	zielony	green	hit	n/a
91.5841	n/a	RESPONSE	n/a	n/a	n/a	n/a	n/a	n/a	n/a	green
91.6154	1.0167	ITI	n/a	n/a	n/a	n/a	n/a	n/a	n/a	n/a
92.6321	0.5167	FIXCROSS	n/a	n/a	n/a	n/a	n/a	n/a	n/a	n/a
93.1487	0.5333	INK	23	Incongruent	żółty	yellow	zielony	green	hit	n/a
93.6593	n/a	RESPONSE	n/a	n/a	n/a	n/a	n/a	n/a	n/a	green
93.682	1.0167	ITI	n/a	n/a	n/a	n/a	n/a	n/a	n/a	n/a
94.6987	0.5167	FIXCROSS	n/a	n/a	n/a	n/a	n/a	n/a	n/a	n/a
95.2154	0.75	INK	24	Neutral	xxxxxxxx	xxxxxxxx	żółty	yellow	hit	n/a
95.9422	n/a	RESPONSE	n/a	n/a	n/a	n/a	n/a	n/a	n/a	yellow
95.9654	1.0167	ITI	n/a	n/a	n/a	n/a	n/a	n/a	n/a	n/a
96.9821	0.5166	FIXCROSS	n/a	n/a	n/a	n/a	n/a	n/a	n/a	n/a
97.4987	0.5834	INK	25	Neutral	xxxxxxxxx	xxxxxxxxx	zielony	green	incorrect	n/a
98.0494	n/a	RESPONSE	n/a	n/a	n/a	n/a	n/a	n/a	n/a	blue
98.0821	1.0167	ITI	n/a	n/a	n/a	n/a	n/a	n/a	n/a	n/a
99.0988	0.5167	FIXCROSS	n/a	n/a	n/a	n/a	n/a	n/a	n/a	n/a
99.6154	0.75	INK	26	Incongruent	zielony	green	czerwony	red	hit	n/a
100.3482	n/a	RESPONSE	n/a	n/a	n/a	n/a	n/a	n/a	n/a	red
100.3654	1.0167	ITI	n/a	n/a	n/a	n/a	n/a	n/a	n/a	n/a
101.3821	0.5167	FIXCROSS	n/a	n/a	n/a	n/a	n/a	n/a	n/a	n/a
101.8988	0.8167	INK	27	Incongruent	czerwony	red	żółty	yellow	hit	n/a
102.6948	n/a	RESPONSE	n/a	n/a	n/a	n/a	n/a	n/a	n/a	yellow
102.7155	1.0167	ITI	n/a	n/a	n/a	n/a	n/a	n/a	n/a	n/a
103.7321	0.5167	FIXCROSS	n/a	n/a	n/a	n/a	n/a	n/a	n/a	n/a
104.2488	0.75	INK	28	Neutral	xxxxxxxx	xxxxxxxx	niebieski	blue	hit	n/a
104.9778	n/a	RESPONSE	n/a	n/a	n/a	n/a	n/a	n/a	n/a	blue
104.9988	1.0166	ITI	n/a	n/a	n/a	n/a	n/a	n/a	n/a	n/a
106.0154	0.5167	FIXCROSS	n/a	n/a	n/a	n/a	n/a	n/a	n/a	n/a
106.5322	0.9833	INK	29	Incongruent	zielony	green	żółty	yellow	hit	n/a
107.484	n/a	RESPONSE	n/a	n/a	n/a	n/a	n/a	n/a	n/a	yellow
107.5155	1.0167	ITI	n/a	n/a	n/a	n/a	n/a	n/a	n/a	n/a
108.5322	0.5167	FIXCROSS	n/a	n/a	n/a	n/a	n/a	n/a	n/a	n/a
109.0488	1.1333	INK	30	Incongruent	niebieski	blue	zielony	green	hit	n/a
110.15	n/a	RESPONSE	n/a	n/a	n/a	n/a	n/a	n/a	n/a	green
110.1822	1.0167	ITI	n/a	n/a	n/a	n/a	n/a	n/a	n/a	n/a
111.1989	0.5166	FIXCROSS	n/a	n/a	n/a	n/a	n/a	n/a	n/a	n/a
111.7155	0.7334	INK	31	Neutral	xxxxxxxx	xxxxxxxx	zielony	green	hit	n/a
112.417	n/a	RESPONSE	n/a	n/a	n/a	n/a	n/a	n/a	n/a	green
112.4489	1.0167	ITI	n/a	n/a	n/a	n/a	n/a	n/a	n/a	n/a
113.4655	0.5166	FIXCROSS	n/a	n/a	n/a	n/a	n/a	n/a	n/a	n/a
113.9822	0.85	INK	32	Incongruent	żółty	yellow	zielony	green	hit	n/a
114.8115	n/a	RESPONSE	n/a	n/a	n/a	n/a	n/a	n/a	n/a	green
114.8322	1.0167	ITI	n/a	n/a	n/a	n/a	n/a	n/a	n/a	n/a
115.8489	0.5167	FIXCROSS	n/a	n/a	n/a	n/a	n/a	n/a	n/a	n/a
116.3656	0.6	INK	33	Neutral	xxxxxxxxx	xxxxxxxxx	zielony	green	hit	n/a
116.9347	n/a	RESPONSE	n/a	n/a	n/a	n/a	n/a	n/a	n/a	green
116.9656	1.0166	ITI	n/a	n/a	n/a	n/a	n/a	n/a	n/a	n/a
117.9822	0.5167	FIXCROSS	n/a	n/a	n/a	n/a	n/a	n/a	n/a	n/a
118.4989	0.8666	INK	34	Neutral	xxxxx	xxxxx	czerwony	red	hit	n/a
119.3453	n/a	RESPONSE	n/a	n/a	n/a	n/a	n/a	n/a	n/a	red
119.3656	1.0167	ITI	n/a	n/a	n/a	n/a	n/a	n/a	n/a	n/a
120.3823	0.5167	FIXCROSS	n/a	n/a	n/a	n/a	n/a	n/a	n/a	n/a
120.8989	0.8833	INK	35	Incongruent	czerwony	red	żółty	yellow	hit	n/a
121.7558	n/a	RESPONSE	n/a	n/a	n/a	n/a	n/a	n/a	n/a	yellow
121.7823	1.0167	ITI	n/a	n/a	n/a	n/a	n/a	n/a	n/a	n/a
122.7989	0.5167	FIXCROSS	n/a	n/a	n/a	n/a	n/a	n/a	n/a	n/a
123.3156	1.3167	INK	36	Incongruent	niebieski	blue	zielony	green	hit	n/a
124.6133	n/a	RESPONSE	n/a	n/a	n/a	n/a	n/a	n/a	n/a	green
124.6323	1.0167	ITI	n/a	n/a	n/a	n/a	n/a	n/a	n/a	n/a
125.649	0.5167	FIXCROSS	n/a	n/a	n/a	n/a	n/a	n/a	n/a	n/a
126.1656	0.9167	INK	37	Incongruent	żółty	yellow	niebieski	blue	hit	n/a
127.0558	n/a	RESPONSE	n/a	n/a	n/a	n/a	n/a	n/a	n/a	blue
127.0823	1.0167	ITI	n/a	n/a	n/a	n/a	n/a	n/a	n/a	n/a
128.099	0.5166	FIXCROSS	n/a	n/a	n/a	n/a	n/a	n/a	n/a	n/a
128.6156	0.6	INK	38	Neutral	xxxxxxx	xxxxxxx	niebieski	blue	hit	n/a
129.195	n/a	RESPONSE	n/a	n/a	n/a	n/a	n/a	n/a	n/a	blue
129.2156	1.0167	ITI	n/a	n/a	n/a	n/a	n/a	n/a	n/a	n/a
130.2323	0.5167	FIXCROSS	n/a	n/a	n/a	n/a	n/a	n/a	n/a	n/a
130.749	0.6833	INK	39	Neutral	xxxxxxx	xxxxxxx	czerwony	red	hit	n/a
131.414	n/a	RESPONSE	n/a	n/a	n/a	n/a	n/a	n/a	n/a	red
131.4323	1.0167	ITI	n/a	n/a	n/a	n/a	n/a	n/a	n/a	n/a
132.449	0.5166	FIXCROSS	n/a	n/a	n/a	n/a	n/a	n/a	n/a	n/a
132.9657	0.75	INK	40	Incongruent	niebieski	blue	czerwony	red	hit	n/a
133.6968	n/a	RESPONSE	n/a	n/a	n/a	n/a	n/a	n/a	n/a	red
133.7157	1.0166	ITI	n/a	n/a	n/a	n/a	n/a	n/a	n/a	n/a
134.7323	0.5167	FIXCROSS	n/a	n/a	n/a	n/a	n/a	n/a	n/a	n/a
135.249	0.9	INK	41	Incongruent	zielony	green	niebieski	blue	hit	n/a
136.1233	n/a	RESPONSE	n/a	n/a	n/a	n/a	n/a	n/a	n/a	blue
136.149	1.0167	ITI	n/a	n/a	n/a	n/a	n/a	n/a	n/a	n/a
137.1657	0.5167	FIXCROSS	n/a	n/a	n/a	n/a	n/a	n/a	n/a	n/a
137.6824	1.4666	INK	42	Incongruent	czerwony	red	niebieski	blue	hit	n/a
139.1245	n/a	RESPONSE	n/a	n/a	n/a	n/a	n/a	n/a	n/a	blue
139.149	1.0167	ITI	n/a	n/a	n/a	n/a	n/a	n/a	n/a	n/a
140.1657	0.5167	FIXCROSS	n/a	n/a	n/a	n/a	n/a	n/a	n/a	n/a
140.6824	0.8333	INK	43	Incongruent	niebieski	blue	żółty	yellow	hit	n/a
141.4871	n/a	RESPONSE	n/a	n/a	n/a	n/a	n/a	n/a	n/a	yellow
141.5157	1.0167	ITI	n/a	n/a	n/a	n/a	n/a	n/a	n/a	n/a
142.5324	0.5167	FIXCROSS	n/a	n/a	n/a	n/a	n/a	n/a	n/a	n/a
143.0491	0.8	INK	44	Incongruent	niebieski	blue	czerwony	red	hit	n/a
143.8179	n/a	RESPONSE	n/a	n/a	n/a	n/a	n/a	n/a	n/a	red
143.8491	1.0167	ITI	n/a	n/a	n/a	n/a	n/a	n/a	n/a	n/a
144.8658	0.5167	FIXCROSS	n/a	n/a	n/a	n/a	n/a	n/a	n/a	n/a
145.3824	0.8	INK	45	Incongruent	żółty	yellow	czerwony	red	hit	n/a
146.1645	n/a	RESPONSE	n/a	n/a	n/a	n/a	n/a	n/a	n/a	red
146.1825	1.0167	ITI	n/a	n/a	n/a	n/a	n/a	n/a	n/a	n/a
147.1991	0.5166	FIXCROSS	n/a	n/a	n/a	n/a	n/a	n/a	n/a	n/a
147.7158	0.9667	INK	46	Neutral	xxxxxxx	xxxxxxx	żółty	yellow	hit	n/a
148.6549	n/a	RESPONSE	n/a	n/a	n/a	n/a	n/a	n/a	n/a	yellow
148.6825	1.0167	ITI	n/a	n/a	n/a	n/a	n/a	n/a	n/a	n/a
149.6991	0.5167	FIXCROSS	n/a	n/a	n/a	n/a	n/a	n/a	n/a	n/a
150.2158	0.7833	INK	47	Neutral	xxxxxxxxx	xxxxxxxxx	czerwony	red	hit	n/a
150.9697	n/a	RESPONSE	n/a	n/a	n/a	n/a	n/a	n/a	n/a	red
150.9992	1.0167	ITI	n/a	n/a	n/a	n/a	n/a	n/a	n/a	n/a
152.0158	0.5126	FIXCROSS	n/a	n/a	n/a	n/a	n/a	n/a	n/a	n/a
152.5284	0.5874	INK	48	Neutral	xxxxxxx	xxxxxxx	czerwony	red	hit	n/a
153.0929	n/a	RESPONSE	n/a	n/a	n/a	n/a	n/a	n/a	n/a	red
153.1158	1.0166	ITI	n/a	n/a	n/a	n/a	n/a	n/a	n/a	n/a
154.1325	0.5167	FIXCROSS	n/a	n/a	n/a	n/a	n/a	n/a	n/a	n/a
154.6492	0.8833	INK	49	Neutral	xxxxxxx	xxxxxxx	żółty	yellow	hit	n/a
155.5033	n/a	RESPONSE	n/a	n/a	n/a	n/a	n/a	n/a	n/a	yellow
155.5325	1.0166	ITI	n/a	n/a	n/a	n/a	n/a	n/a	n/a	n/a
156.5492	0.5167	FIXCROSS	n/a	n/a	n/a	n/a	n/a	n/a	n/a	n/a
157.0659	0.75	INK	50	Neutral	xxxxxxxxx	xxxxxxxxx	czerwony	red	hit	n/a
157.7862	n/a	RESPONSE	n/a	n/a	n/a	n/a	n/a	n/a	n/a	red
157.8159	1.0167	ITI	n/a	n/a	n/a	n/a	n/a	n/a	n/a	n/a
158.8325	0.5167	FIXCROSS	n/a	n/a	n/a	n/a	n/a	n/a	n/a	n/a
159.3492	0.9667	INK	51	Neutral	xxxxxxxx	xxxxxxxx	zielony	green	hit	n/a
160.2925	n/a	RESPONSE	n/a	n/a	n/a	n/a	n/a	n/a	n/a	green
160.3159	1.0167	ITI	n/a	n/a	n/a	n/a	n/a	n/a	n/a	n/a
161.3326	0.5167	FIXCROSS	n/a	n/a	n/a	n/a	n/a	n/a	n/a	n/a
161.8492	0.8333	INK	52	Neutral	xxxxxxxxx	xxxxxxxxx	żółty	yellow	hit	n/a
162.6553	n/a	RESPONSE	n/a	n/a	n/a	n/a	n/a	n/a	n/a	yellow
162.6826	1.0167	ITI	n/a	n/a	n/a	n/a	n/a	n/a	n/a	n/a
163.6993	0.5167	FIXCROSS	n/a	n/a	n/a	n/a	n/a	n/a	n/a	n/a
164.2159	0.9167	INK	53	Neutral	xxxxxxx	xxxxxxx	niebieski	blue	hit	n/a
165.1136	n/a	RESPONSE	n/a	n/a	n/a	n/a	n/a	n/a	n/a	blue
165.1326	1.0167	ITI	n/a	n/a	n/a	n/a	n/a	n/a	n/a	n/a
166.1493	0.5167	FIXCROSS	n/a	n/a	n/a	n/a	n/a	n/a	n/a	n/a
166.6659	0.9	INK	54	Neutral	xxxxxxxx	xxxxxxxx	zielony	green	hit	n/a
167.5401	n/a	RESPONSE	n/a	n/a	n/a	n/a	n/a	n/a	n/a	green
167.566	1.0166	ITI	n/a	n/a	n/a	n/a	n/a	n/a	n/a	n/a
168.5826	0.5167	FIXCROSS	n/a	n/a	n/a	n/a	n/a	n/a	n/a	n/a
169.0993	0.7834	INK	55	Neutral	xxxxxxxxx	xxxxxxxxx	żółty	yellow	hit	n/a
169.8548	n/a	RESPONSE	n/a	n/a	n/a	n/a	n/a	n/a	n/a	yellow
169.8826	1.0167	ITI	n/a	n/a	n/a	n/a	n/a	n/a	n/a	n/a
170.8993	0.5166	FIXCROSS	n/a	n/a	n/a	n/a	n/a	n/a	n/a	n/a
171.4159	1.15	INK	56	Incongruent	czerwony	red	zielony	green	hit	n/a
172.5368	n/a	RESPONSE	n/a	n/a	n/a	n/a	n/a	n/a	n/a	green
172.566	1.0167	ITI	n/a	n/a	n/a	n/a	n/a	n/a	n/a	n/a
173.5826	0.5167	FIXCROSS	n/a	n/a	n/a	n/a	n/a	n/a	n/a	n/a
174.0993	0.8333	INK	57	Neutral	xxxxxxx	xxxxxxx	żółty	yellow	hit	n/a
174.8993	n/a	RESPONSE	n/a	n/a	n/a	n/a	n/a	n/a	n/a	yellow
174.9326	1.0167	ITI	n/a	n/a	n/a	n/a	n/a	n/a	n/a	n/a
175.9493	0.5167	FIXCROSS	n/a	n/a	n/a	n/a	n/a	n/a	n/a	n/a
176.466	0.8	INK	58	Incongruent	czerwony	red	żółty	yellow	hit	n/a
177.246	n/a	RESPONSE	n/a	n/a	n/a	n/a	n/a	n/a	n/a	yellow
177.266	1.0167	ITI	n/a	n/a	n/a	n/a	n/a	n/a	n/a	n/a
178.2827	0.5167	FIXCROSS	n/a	n/a	n/a	n/a	n/a	n/a	n/a	n/a
178.7994	1.2666	INK	59	Incongruent	zielony	green	niebieski	blue	hit	n/a
180.0397	n/a	RESPONSE	n/a	n/a	n/a	n/a	n/a	n/a	n/a	blue
180.066	1.0167	ITI	n/a	n/a	n/a	n/a	n/a	n/a	n/a	n/a
181.0827	0.5167	FIXCROSS	n/a	n/a	n/a	n/a	n/a	n/a	n/a	n/a
181.5994	0.8333	INK	60	Neutral	xxxxx	xxxxx	zielony	green	hit	n/a
182.4023	n/a	RESPONSE	n/a	n/a	n/a	n/a	n/a	n/a	n/a	green
182.4327	1.0167	ITI	n/a	n/a	n/a	n/a	n/a	n/a	n/a	n/a
183.4494	0.5166	FIXCROSS	n/a	n/a	n/a	n/a	n/a	n/a	n/a	n/a
183.966	0.65	INK	61	Neutral	xxxxx	xxxxx	czerwony	red	hit	n/a
184.5894	n/a	RESPONSE	n/a	n/a	n/a	n/a	n/a	n/a	n/a	red
184.6161	1.0167	ITI	n/a	n/a	n/a	n/a	n/a	n/a	n/a	n/a
185.6328	0.5167	FIXCROSS	n/a	n/a	n/a	n/a	n/a	n/a	n/a	n/a
186.1494	0.7833	INK	62	Incongruent	niebieski	blue	czerwony	red	hit	n/a
186.9041	n/a	RESPONSE	n/a	n/a	n/a	n/a	n/a	n/a	n/a	red
186.9328	1.0166	ITI	n/a	n/a	n/a	n/a	n/a	n/a	n/a	n/a
187.9494	0.5167	FIXCROSS	n/a	n/a	n/a	n/a	n/a	n/a	n/a	n/a
188.4661	0.4667	INK	63	Neutral	xxxxxxxxx	xxxxxxxxx	czerwony	red	hit	n/a
188.8996	n/a	RESPONSE	n/a	n/a	n/a	n/a	n/a	n/a	n/a	red
188.9328	1.0167	ITI	n/a	n/a	n/a	n/a	n/a	n/a	n/a	n/a
189.9495	0.5167	FIXCROSS	n/a	n/a	n/a	n/a	n/a	n/a	n/a	n/a
190.4661	0.8833	INK	64	Incongruent	zielony	green	niebieski	blue	hit	n/a
191.326	n/a	RESPONSE	n/a	n/a	n/a	n/a	n/a	n/a	n/a	blue
191.3495	1.0167	ITI	n/a	n/a	n/a	n/a	n/a	n/a	n/a	n/a
192.3661	0.5167	FIXCROSS	n/a	n/a	n/a	n/a	n/a	n/a	n/a	n/a
192.8828	0.9167	INK	65	Neutral	xxxxx	xxxxx	zielony	green	hit	n/a
193.7685	n/a	RESPONSE	n/a	n/a	n/a	n/a	n/a	n/a	n/a	green
193.7995	1.0167	ITI	n/a	n/a	n/a	n/a	n/a	n/a	n/a	n/a
194.8162	0.5167	FIXCROSS	n/a	n/a	n/a	n/a	n/a	n/a	n/a	n/a
195.3328	0.8	INK	66	Neutral	xxxxxxxx	xxxxxxxx	żółty	yellow	hit	n/a
196.0993	n/a	RESPONSE	n/a	n/a	n/a	n/a	n/a	n/a	n/a	yellow
196.1328	1.0167	ITI	n/a	n/a	n/a	n/a	n/a	n/a	n/a	n/a
197.1495	0.5167	FIXCROSS	n/a	n/a	n/a	n/a	n/a	n/a	n/a	n/a
197.6662	0.85	INK	67	Neutral	xxxxx	xxxxx	zielony	green	hit	n/a
198.4938	n/a	RESPONSE	n/a	n/a	n/a	n/a	n/a	n/a	n/a	green
198.5162	1.0167	ITI	n/a	n/a	n/a	n/a	n/a	n/a	n/a	n/a
199.5329	0.5167	FIXCROSS	n/a	n/a	n/a	n/a	n/a	n/a	n/a	n/a
200.0495	0.8	INK	68	Incongruent	żółty	yellow	czerwony	red	hit	n/a
200.8247	n/a	RESPONSE	n/a	n/a	n/a	n/a	n/a	n/a	n/a	red
200.8495	1.0167	ITI	n/a	n/a	n/a	n/a	n/a	n/a	n/a	n/a
201.8662	0.5167	FIXCROSS	n/a	n/a	n/a	n/a	n/a	n/a	n/a	n/a
202.3829	0.95	INK	69	Incongruent	żółty	yellow	niebieski	blue	hit	n/a
203.2992	n/a	RESPONSE	n/a	n/a	n/a	n/a	n/a	n/a	n/a	blue
203.3329	1.0167	ITI	n/a	n/a	n/a	n/a	n/a	n/a	n/a	n/a
204.3496	0.5167	FIXCROSS	n/a	n/a	n/a	n/a	n/a	n/a	n/a	n/a
204.8662	0.6833	INK	70	Neutral	xxxxx	xxxxx	niebieski	blue	hit	n/a
205.5181	n/a	RESPONSE	n/a	n/a	n/a	n/a	n/a	n/a	n/a	blue
205.5495	1.0167	ITI	n/a	n/a	n/a	n/a	n/a	n/a	n/a	n/a
206.5662	0.5167	FIXCROSS	n/a	n/a	n/a	n/a	n/a	n/a	n/a	n/a
207.0829	0.8667	INK	71	Incongruent	czerwony	red	niebieski	blue	hit	n/a
207.9286	n/a	RESPONSE	n/a	n/a	n/a	n/a	n/a	n/a	n/a	blue
207.9496	1.0167	ITI	n/a	n/a	n/a	n/a	n/a	n/a	n/a	n/a
208.9663	0.5167	FIXCROSS	n/a	n/a	n/a	n/a	n/a	n/a	n/a	n/a
209.4829	0.8166	INK	72	Incongruent	niebieski	blue	żółty	yellow	hit	n/a
210.2753	n/a	RESPONSE	n/a	n/a	n/a	n/a	n/a	n/a	n/a	yellow
210.2996	1.0834	ITI	n/a	n/a	n/a	n/a	n/a	n/a	n/a	n/a
232.4969	n/a	RESPONSE	n/a	n/a	n/a	n/a	n/a	n/a	n/a	n/a
232.5664	1.0167	ITI	n/a	n/a	n/a	n/a	n/a	n/a	n/a	n/a
233.5831	0.5167	FIXCROSS	n/a	n/a	n/a	n/a	n/a	n/a	n/a	n/a
234.0998	1.3833	T_COLOR_NAME	1	Neutral	żółty	yellow	Neutral	Neutral	hit	n/a
235.4503	n/a	RESPONSE	n/a	n/a	n/a	n/a	n/a	n/a	n/a	yellow
235.4831	0.5167	FEEDBACK	n/a	n/a	n/a	n/a	n/a	n/a	n/a	n/a
235.9998	1.0166	ITI	n/a	n/a	n/a	n/a	n/a	n/a	n/a	n/a
237.0164	0.5167	FIXCROSS	n/a	n/a	n/a	n/a	n/a	n/a	n/a	n/a
237.5331	0.8333	T_COLOR_NAME	2	Incongruent	żółty	yellow	niebieski	blue	hit	n/a
238.3397	n/a	RESPONSE	n/a	n/a	n/a	n/a	n/a	n/a	n/a	yellow
238.3664	0.5167	FEEDBACK	n/a	n/a	n/a	n/a	n/a	n/a	n/a	n/a
238.8831	1.0167	ITI	n/a	n/a	n/a	n/a	n/a	n/a	n/a	n/a
239.8998	0.5167	FIXCROSS	n/a	n/a	n/a	n/a	n/a	n/a	n/a	n/a
240.4165	1.3167	T_COLOR_NAME	3	Incongruent	zielony	green	czerwony	red	hit	n/a
241.7081	n/a	RESPONSE	n/a	n/a	n/a	n/a	n/a	n/a	n/a	green
241.7332	0.5167	FEEDBACK	n/a	n/a	n/a	n/a	n/a	n/a	n/a	n/a
242.2499	1.0167	ITI	n/a	n/a	n/a	n/a	n/a	n/a	n/a	n/a
243.2665	0.5167	FIXCROSS	n/a	n/a	n/a	n/a	n/a	n/a	n/a	n/a
243.7832	0.9166	T_COLOR_NAME	4	Neutral	czerwony	red	Neutral	Neutral	hit	n/a
244.6774	n/a	RESPONSE	n/a	n/a	n/a	n/a	n/a	n/a	n/a	red
244.6998	0.5167	FEEDBACK	n/a	n/a	n/a	n/a	n/a	n/a	n/a	n/a
245.2165	1.0167	ITI	n/a	n/a	n/a	n/a	n/a	n/a	n/a	n/a
246.2332	0.5167	FIXCROSS	n/a	n/a	n/a	n/a	n/a	n/a	n/a	n/a
246.7498	0.9667	T_COLOR_NAME	5	Neutral	żółty	yellow	Neutral	Neutral	hit	n/a
247.6945	n/a	RESPONSE	n/a	n/a	n/a	n/a	n/a	n/a	n/a	yellow
247.7165	0.5167	FEEDBACK	n/a	n/a	n/a	n/a	n/a	n/a	n/a	n/a
248.2332	1.0167	ITI	n/a	n/a	n/a	n/a	n/a	n/a	n/a	n/a
249.2499	0.5166	FIXCROSS	n/a	n/a	n/a	n/a	n/a	n/a	n/a	n/a
249.7665	0.9834	T_COLOR_NAME	6	Incongruent	niebieski	blue	zielony	green	hit	n/a
250.7276	n/a	RESPONSE	n/a	n/a	n/a	n/a	n/a	n/a	n/a	blue
250.7499	0.5167	FEEDBACK	n/a	n/a	n/a	n/a	n/a	n/a	n/a	n/a
251.2666	1.0167	ITI	n/a	n/a	n/a	n/a	n/a	n/a	n/a	n/a
252.2833	0.5166	FIXCROSS	n/a	n/a	n/a	n/a	n/a	n/a	n/a	n/a
252.7999	1.0501	T_COLOR_NAME	7	Incongruent	żółty	yellow	czerwony	red	hit	n/a
253.8247	n/a	RESPONSE	n/a	n/a	n/a	n/a	n/a	n/a	n/a	yellow
253.8499	0.5167	FEEDBACK	n/a	n/a	n/a	n/a	n/a	n/a	n/a	n/a
254.3666	1.0167	ITI	n/a	n/a	n/a	n/a	n/a	n/a	n/a	n/a
255.3833	0.5167	FIXCROSS	n/a	n/a	n/a	n/a	n/a	n/a	n/a	n/a
255.8999	0.9667	T_COLOR_NAME	8	Neutral	zielony	green	Neutral	Neutral	hit	n/a
256.8417	n/a	RESPONSE	n/a	n/a	n/a	n/a	n/a	n/a	n/a	green
256.8666	0.5166	FEEDBACK	n/a	n/a	n/a	n/a	n/a	n/a	n/a	n/a
257.3833	1.0167	ITI	n/a	n/a	n/a	n/a	n/a	n/a	n/a	n/a
258.4	0.5166	FIXCROSS	n/a	n/a	n/a	n/a	n/a	n/a	n/a	n/a
258.9166	0.9	T_COLOR_NAME	9	Incongruent	niebieski	blue	żółty	yellow	hit	n/a
259.7951	n/a	RESPONSE	n/a	n/a	n/a	n/a	n/a	n/a	n/a	blue
259.8166	0.5167	FEEDBACK	n/a	n/a	n/a	n/a	n/a	n/a	n/a	n/a
260.3333	1.0166	ITI	n/a	n/a	n/a	n/a	n/a	n/a	n/a	n/a
261.35	0.5167	FIXCROSS	n/a	n/a	n/a	n/a	n/a	n/a	n/a	n/a
261.8667	0.95	T_COLOR_NAME	10	Incongruent	czerwony	red	zielony	green	hit	n/a
262.7962	n/a	RESPONSE	n/a	n/a	n/a	n/a	n/a	n/a	n/a	red
262.8167	0.5167	FEEDBACK	n/a	n/a	n/a	n/a	n/a	n/a	n/a	n/a
263.3333	1.0167	ITI	n/a	n/a	n/a	n/a	n/a	n/a	n/a	n/a
264.35	0.5167	FIXCROSS	n/a	n/a	n/a	n/a	n/a	n/a	n/a	n/a
264.8667	1.2333	T_COLOR_NAME	11	Incongruent	żółty	yellow	zielony	green	hit	n/a
266.0689	n/a	RESPONSE	n/a	n/a	n/a	n/a	n/a	n/a	n/a	yellow
266.1	0.5166	FEEDBACK	n/a	n/a	n/a	n/a	n/a	n/a	n/a	n/a
266.6167	1.0167	ITI	n/a	n/a	n/a	n/a	n/a	n/a	n/a	n/a
267.6333	0.5167	FIXCROSS	n/a	n/a	n/a	n/a	n/a	n/a	n/a	n/a
268.15	1.0333	T_COLOR_NAME	12	Neutral	zielony	green	Neutral	Neutral	hit	n/a
269.1499	n/a	RESPONSE	n/a	n/a	n/a	n/a	n/a	n/a	n/a	green
269.1833	0.5167	FEEDBACK	n/a	n/a	n/a	n/a	n/a	n/a	n/a	n/a
269.7	1.0334	ITI	n/a	n/a	n/a	n/a	n/a	n/a	n/a	n/a
273.2845	n/a	RESPONSE	n/a	n/a	n/a	n/a	n/a	n/a	n/a	n/a
273.3501	1.0167	ITI	n/a	n/a	n/a	n/a	n/a	n/a	n/a	n/a
274.3668	0.5167	FIXCROSS	n/a	n/a	n/a	n/a	n/a	n/a	n/a	n/a
274.8834	1.0833	COLOR_NAME	1	Incongruent	zielony	green	niebieski	blue	hit	n/a
275.9344	n/a	RESPONSE	n/a	n/a	n/a	n/a	n/a	n/a	n/a	green
275.9667	1.0167	ITI	n/a	n/a	n/a	n/a	n/a	n/a	n/a	n/a
276.9834	0.5167	FIXCROSS	n/a	n/a	n/a	n/a	n/a	n/a	n/a	n/a
277.5001	0.8	COLOR_NAME	2	Neutral	zielony	green	Neutral	Neutral	hit	n/a
278.281	n/a	RESPONSE	n/a	n/a	n/a	n/a	n/a	n/a	n/a	green
278.3001	1.0167	ITI	n/a	n/a	n/a	n/a	n/a	n/a	n/a	n/a
279.3168	0.5166	FIXCROSS	n/a	n/a	n/a	n/a	n/a	n/a	n/a	n/a
279.8334	0.85	COLOR_NAME	3	Incongruent	czerwony	red	zielony	green	hit	n/a
280.6597	n/a	RESPONSE	n/a	n/a	n/a	n/a	n/a	n/a	n/a	red
280.6835	1.0167	ITI	n/a	n/a	n/a	n/a	n/a	n/a	n/a	n/a
281.7001	0.5167	FIXCROSS	n/a	n/a	n/a	n/a	n/a	n/a	n/a	n/a
282.2168	0.75	COLOR_NAME	4	Neutral	czerwony	red	Neutral	Neutral	hit	n/a
282.9424	n/a	RESPONSE	n/a	n/a	n/a	n/a	n/a	n/a	n/a	red
282.9668	1.0167	ITI	n/a	n/a	n/a	n/a	n/a	n/a	n/a	n/a
283.9835	0.5167	FIXCROSS	n/a	n/a	n/a	n/a	n/a	n/a	n/a	n/a
284.5002	0.6666	COLOR_NAME	5	Incongruent	czerwony	red	niebieski	blue	hit	n/a
285.1454	n/a	RESPONSE	n/a	n/a	n/a	n/a	n/a	n/a	n/a	red
285.1668	1.0167	ITI	n/a	n/a	n/a	n/a	n/a	n/a	n/a	n/a
286.1835	0.5167	FIXCROSS	n/a	n/a	n/a	n/a	n/a	n/a	n/a	n/a
286.7002	1.1	COLOR_NAME	6	Incongruent	zielony	green	czerwony	red	hit	n/a
287.7795	n/a	RESPONSE	n/a	n/a	n/a	n/a	n/a	n/a	n/a	green
287.8002	1.0167	ITI	n/a	n/a	n/a	n/a	n/a	n/a	n/a	n/a
288.8169	0.5166	FIXCROSS	n/a	n/a	n/a	n/a	n/a	n/a	n/a	n/a
289.3335	0.9834	COLOR_NAME	7	Incongruent	niebieski	blue	czerwony	red	hit	n/a
290.2858	n/a	RESPONSE	n/a	n/a	n/a	n/a	n/a	n/a	n/a	blue
290.3169	1.0167	ITI	n/a	n/a	n/a	n/a	n/a	n/a	n/a	n/a
291.3335	0.5167	FIXCROSS	n/a	n/a	n/a	n/a	n/a	n/a	n/a	n/a
291.8502	1.0	COLOR_NAME	8	Incongruent	niebieski	blue	zielony	green	hit	n/a
292.8241	n/a	RESPONSE	n/a	n/a	n/a	n/a	n/a	n/a	n/a	blue
292.8502	1.0167	ITI	n/a	n/a	n/a	n/a	n/a	n/a	n/a	n/a
293.8669	0.5167	FIXCROSS	n/a	n/a	n/a	n/a	n/a	n/a	n/a	n/a
294.3836	1.0	COLOR_NAME	9	Neutral	zielony	green	Neutral	Neutral	hit	n/a
295.3623	n/a	RESPONSE	n/a	n/a	n/a	n/a	n/a	n/a	n/a	green
295.3836	1.0166	ITI	n/a	n/a	n/a	n/a	n/a	n/a	n/a	n/a
296.4002	0.5167	FIXCROSS	n/a	n/a	n/a	n/a	n/a	n/a	n/a	n/a
296.9169	1.0167	COLOR_NAME	10	Incongruent	żółty	yellow	czerwony	red	hit	n/a
297.9005	n/a	RESPONSE	n/a	n/a	n/a	n/a	n/a	n/a	n/a	yellow
297.9336	1.0167	ITI	n/a	n/a	n/a	n/a	n/a	n/a	n/a	n/a
298.9503	0.5167	FIXCROSS	n/a	n/a	n/a	n/a	n/a	n/a	n/a	n/a
299.4669	0.9833	COLOR_NAME	11	Incongruent	czerwony	red	żółty	yellow	hit	n/a
300.4228	n/a	RESPONSE	n/a	n/a	n/a	n/a	n/a	n/a	n/a	red
300.4503	1.0167	ITI	n/a	n/a	n/a	n/a	n/a	n/a	n/a	n/a
301.467	0.5167	FIXCROSS	n/a	n/a	n/a	n/a	n/a	n/a	n/a	n/a
301.9836	0.9833	COLOR_NAME	12	Incongruent	zielony	green	żółty	yellow	hit	n/a
302.9451	n/a	RESPONSE	n/a	n/a	n/a	n/a	n/a	n/a	n/a	green
302.9669	1.0167	ITI	n/a	n/a	n/a	n/a	n/a	n/a	n/a	n/a
303.9836	0.5167	FIXCROSS	n/a	n/a	n/a	n/a	n/a	n/a	n/a	n/a
304.5003	1.0333	COLOR_NAME	13	Neutral	czerwony	red	Neutral	Neutral	hit	n/a
305.5152	n/a	RESPONSE	n/a	n/a	n/a	n/a	n/a	n/a	n/a	red
305.5336	1.0167	ITI	n/a	n/a	n/a	n/a	n/a	n/a	n/a	n/a
306.5503	0.5166	FIXCROSS	n/a	n/a	n/a	n/a	n/a	n/a	n/a	n/a
307.067	0.7499	COLOR_NAME	14	Neutral	czerwony	red	Neutral	Neutral	hit	n/a
307.7821	n/a	RESPONSE	n/a	n/a	n/a	n/a	n/a	n/a	n/a	red
307.8169	1.0168	ITI	n/a	n/a	n/a	n/a	n/a	n/a	n/a	n/a
308.8337	0.5167	FIXCROSS	n/a	n/a	n/a	n/a	n/a	n/a	n/a	n/a
309.3503	0.7	COLOR_NAME	15	Incongruent	czerwony	red	żółty	yellow	hit	n/a
310.017	n/a	RESPONSE	n/a	n/a	n/a	n/a	n/a	n/a	n/a	red
310.0504	1.0167	ITI	n/a	n/a	n/a	n/a	n/a	n/a	n/a	n/a
311.067	0.5167	FIXCROSS	n/a	n/a	n/a	n/a	n/a	n/a	n/a	n/a
311.5837	0.7833	COLOR_NAME	16	Incongruent	czerwony	red	żółty	yellow	hit	n/a
312.3477	n/a	RESPONSE	n/a	n/a	n/a	n/a	n/a	n/a	n/a	red
312.367	1.0167	ITI	n/a	n/a	n/a	n/a	n/a	n/a	n/a	n/a
313.3837	0.5167	FIXCROSS	n/a	n/a	n/a	n/a	n/a	n/a	n/a	n/a
313.9004	1.1	COLOR_NAME	17	Incongruent	niebieski	blue	żółty	yellow	hit	n/a
314.9818	n/a	RESPONSE	n/a	n/a	n/a	n/a	n/a	n/a	n/a	blue
315.0004	1.0166	ITI	n/a	n/a	n/a	n/a	n/a	n/a	n/a	n/a
316.017	0.5113	FIXCROSS	n/a	n/a	n/a	n/a	n/a	n/a	n/a	n/a
316.5283	0.6888	COLOR_NAME	18	Neutral	niebieski	blue	Neutral	Neutral	hit	n/a
317.1848	n/a	RESPONSE	n/a	n/a	n/a	n/a	n/a	n/a	n/a	blue
317.2171	1.0166	ITI	n/a	n/a	n/a	n/a	n/a	n/a	n/a	n/a
318.2337	0.5167	FIXCROSS	n/a	n/a	n/a	n/a	n/a	n/a	n/a	n/a
318.7504	0.6833	COLOR_NAME	19	Neutral	niebieski	blue	Neutral	Neutral	hit	n/a
319.4038	n/a	RESPONSE	n/a	n/a	n/a	n/a	n/a	n/a	n/a	blue
319.4338	1.0167	ITI	n/a	n/a	n/a	n/a	n/a	n/a	n/a	n/a
320.4504	0.5166	FIXCROSS	n/a	n/a	n/a	n/a	n/a	n/a	n/a	n/a
320.9671	1.0833	COLOR_NAME	20	Incongruent	zielony	green	czerwony	red	hit	n/a
322.0219	n/a	RESPONSE	n/a	n/a	n/a	n/a	n/a	n/a	n/a	green
322.0504	1.0167	ITI	n/a	n/a	n/a	n/a	n/a	n/a	n/a	n/a
323.0671	0.5167	FIXCROSS	n/a	n/a	n/a	n/a	n/a	n/a	n/a	n/a
323.5838	0.8667	COLOR_NAME	21	Incongruent	czerwony	red	zielony	green	hit	n/a
324.4164	n/a	RESPONSE	n/a	n/a	n/a	n/a	n/a	n/a	n/a	red
324.4504	1.0167	ITI	n/a	n/a	n/a	n/a	n/a	n/a	n/a	n/a
325.4671	0.5167	FIXCROSS	n/a	n/a	n/a	n/a	n/a	n/a	n/a	n/a
325.9838	1.0166	COLOR_NAME	22	Incongruent	czerwony	red	niebieski	blue	hit	n/a
326.9707	n/a	RESPONSE	n/a	n/a	n/a	n/a	n/a	n/a	n/a	red
327.0004	1.0167	ITI	n/a	n/a	n/a	n/a	n/a	n/a	n/a	n/a
328.0171	0.5167	FIXCROSS	n/a	n/a	n/a	n/a	n/a	n/a	n/a	n/a
328.5338	0.9833	COLOR_NAME	23	Incongruent	zielony	green	żółty	yellow	hit	n/a
329.4929	n/a	RESPONSE	n/a	n/a	n/a	n/a	n/a	n/a	n/a	green
329.5172	1.0166	ITI	n/a	n/a	n/a	n/a	n/a	n/a	n/a	n/a
330.5338	0.5167	FIXCROSS	n/a	n/a	n/a	n/a	n/a	n/a	n/a	n/a
331.0505	0.9667	COLOR_NAME	24	Neutral	żółty	yellow	Neutral	Neutral	hit	n/a
331.9992	n/a	RESPONSE	n/a	n/a	n/a	n/a	n/a	n/a	n/a	yellow
332.0172	1.0167	ITI	n/a	n/a	n/a	n/a	n/a	n/a	n/a	n/a
333.0338	0.5166	FIXCROSS	n/a	n/a	n/a	n/a	n/a	n/a	n/a	n/a
333.5505	0.9667	COLOR_NAME	25	Neutral	niebieski	blue	Neutral	Neutral	hit	n/a
334.4896	n/a	RESPONSE	n/a	n/a	n/a	n/a	n/a	n/a	n/a	blue
334.5172	1.0166	ITI	n/a	n/a	n/a	n/a	n/a	n/a	n/a	n/a
335.5338	0.5167	FIXCROSS	n/a	n/a	n/a	n/a	n/a	n/a	n/a	n/a
336.0505	0.9834	COLOR_NAME	26	Neutral	żółty	yellow	Neutral	Neutral	hit	n/a
337.0118	n/a	RESPONSE	n/a	n/a	n/a	n/a	n/a	n/a	n/a	yellow
337.0339	1.0167	ITI	n/a	n/a	n/a	n/a	n/a	n/a	n/a	n/a
338.0505	0.5167	FIXCROSS	n/a	n/a	n/a	n/a	n/a	n/a	n/a	n/a
338.5672	0.9166	COLOR_NAME	27	Neutral	czerwony	red	Neutral	Neutral	hit	n/a
339.4543	n/a	RESPONSE	n/a	n/a	n/a	n/a	n/a	n/a	n/a	red
339.4839	1.0167	ITI	n/a	n/a	n/a	n/a	n/a	n/a	n/a	n/a
340.5006	0.5167	FIXCROSS	n/a	n/a	n/a	n/a	n/a	n/a	n/a	n/a
341.0172	1.4	COLOR_NAME	28	Neutral	zielony	green	Neutral	Neutral	hit	n/a
342.3916	n/a	RESPONSE	n/a	n/a	n/a	n/a	n/a	n/a	n/a	green
342.4173	1.0167	ITI	n/a	n/a	n/a	n/a	n/a	n/a	n/a	n/a
343.4339	0.5166	FIXCROSS	n/a	n/a	n/a	n/a	n/a	n/a	n/a	n/a
343.9506	0.95	COLOR_NAME	29	Incongruent	zielony	green	żółty	yellow	hit	n/a
344.8819	n/a	RESPONSE	n/a	n/a	n/a	n/a	n/a	n/a	n/a	green
344.9006	1.0167	ITI	n/a	n/a	n/a	n/a	n/a	n/a	n/a	n/a
345.9173	0.5167	FIXCROSS	n/a	n/a	n/a	n/a	n/a	n/a	n/a	n/a
346.434	0.8	COLOR_NAME	30	Neutral	zielony	green	Neutral	Neutral	hit	n/a
347.2127	n/a	RESPONSE	n/a	n/a	n/a	n/a	n/a	n/a	n/a	green
347.234	1.0167	ITI	n/a	n/a	n/a	n/a	n/a	n/a	n/a	n/a
348.2506	0.5167	FIXCROSS	n/a	n/a	n/a	n/a	n/a	n/a	n/a	n/a
348.7673	0.9	COLOR_NAME	31	Neutral	czerwony	red	Neutral	Neutral	hit	n/a
349.6392	n/a	RESPONSE	n/a	n/a	n/a	n/a	n/a	n/a	n/a	red
349.6673	1.0167	ITI	n/a	n/a	n/a	n/a	n/a	n/a	n/a	n/a
350.684	0.5167	FIXCROSS	n/a	n/a	n/a	n/a	n/a	n/a	n/a	n/a
351.2007	0.9833	COLOR_NAME	32	Incongruent	czerwony	red	zielony	green	hit	n/a
352.1615	n/a	RESPONSE	n/a	n/a	n/a	n/a	n/a	n/a	n/a	red
352.184	1.0167	ITI	n/a	n/a	n/a	n/a	n/a	n/a	n/a	n/a
353.2006	0.5167	FIXCROSS	n/a	n/a	n/a	n/a	n/a	n/a	n/a	n/a
353.7173	1.2	COLOR_NAME	33	Neutral	niebieski	blue	Neutral	Neutral	hit	n/a
354.8913	n/a	RESPONSE	n/a	n/a	n/a	n/a	n/a	n/a	n/a	blue
354.9173	1.0167	ITI	n/a	n/a	n/a	n/a	n/a	n/a	n/a	n/a
355.934	0.5167	FIXCROSS	n/a	n/a	n/a	n/a	n/a	n/a	n/a	n/a
356.4507	1.15	COLOR_NAME	34	Incongruent	zielony	green	czerwony	red	hit	n/a
357.5733	n/a	RESPONSE	n/a	n/a	n/a	n/a	n/a	n/a	n/a	green
357.6007	1.0167	ITI	n/a	n/a	n/a	n/a	n/a	n/a	n/a	n/a
358.6174	0.5167	FIXCROSS	n/a	n/a	n/a	n/a	n/a	n/a	n/a	n/a
359.134	0.8333	COLOR_NAME	35	Neutral	żółty	yellow	Neutral	Neutral	hit	n/a
359.9359	n/a	RESPONSE	n/a	n/a	n/a	n/a	n/a	n/a	n/a	yellow
359.9673	1.0167	ITI	n/a	n/a	n/a	n/a	n/a	n/a	n/a	n/a
360.9841	0.5167	FIXCROSS	n/a	n/a	n/a	n/a	n/a	n/a	n/a	n/a
361.5007	0.7833	COLOR_NAME	36	Incongruent	żółty	yellow	czerwony	red	hit	n/a
362.2667	n/a	RESPONSE	n/a	n/a	n/a	n/a	n/a	n/a	n/a	yellow
362.2841	1.0167	ITI	n/a	n/a	n/a	n/a	n/a	n/a	n/a	n/a
363.3007	0.5167	FIXCROSS	n/a	n/a	n/a	n/a	n/a	n/a	n/a	n/a
363.8174	1.2167	COLOR_NAME	37	Incongruent	żółty	yellow	zielony	green	hit	n/a
365.0125	n/a	RESPONSE	n/a	n/a	n/a	n/a	n/a	n/a	n/a	yellow
365.0341	1.0167	ITI	n/a	n/a	n/a	n/a	n/a	n/a	n/a	n/a
366.0508	0.5167	FIXCROSS	n/a	n/a	n/a	n/a	n/a	n/a	n/a	n/a
366.5674	0.9	COLOR_NAME	38	Neutral	zielony	green	Neutral	Neutral	hit	n/a
367.4389	n/a	RESPONSE	n/a	n/a	n/a	n/a	n/a	n/a	n/a	green
367.4674	1.0167	ITI	n/a	n/a	n/a	n/a	n/a	n/a	n/a	n/a
368.4841	0.5167	FIXCROSS	n/a	n/a	n/a	n/a	n/a	n/a	n/a	n/a
369.0008	0.95	COLOR_NAME	39	Neutral	żółty	yellow	Neutral	Neutral	hit	n/a
369.9293	n/a	RESPONSE	n/a	n/a	n/a	n/a	n/a	n/a	n/a	yellow
369.9508	1.0167	ITI	n/a	n/a	n/a	n/a	n/a	n/a	n/a	n/a
370.9675	0.5167	FIXCROSS	n/a	n/a	n/a	n/a	n/a	n/a	n/a	n/a
371.4841	1.0333	COLOR_NAME	40	Incongruent	żółty	yellow	zielony	green	hit	n/a
372.4836	n/a	RESPONSE	n/a	n/a	n/a	n/a	n/a	n/a	n/a	yellow
372.5174	1.0167	ITI	n/a	n/a	n/a	n/a	n/a	n/a	n/a	n/a
373.5342	0.5166	FIXCROSS	n/a	n/a	n/a	n/a	n/a	n/a	n/a	n/a
374.0508	1.1334	COLOR_NAME	41	Incongruent	niebieski	blue	żółty	yellow	hit	n/a
375.1655	n/a	RESPONSE	n/a	n/a	n/a	n/a	n/a	n/a	n/a	blue
375.1842	1.0167	ITI	n/a	n/a	n/a	n/a	n/a	n/a	n/a	n/a
376.2008	0.5167	FIXCROSS	n/a	n/a	n/a	n/a	n/a	n/a	n/a	n/a
376.7175	0.8667	COLOR_NAME	42	Incongruent	czerwony	red	niebieski	blue	hit	n/a
377.56	n/a	RESPONSE	n/a	n/a	n/a	n/a	n/a	n/a	n/a	red
377.5842	1.0167	ITI	n/a	n/a	n/a	n/a	n/a	n/a	n/a	n/a
378.6009	0.5167	FIXCROSS	n/a	n/a	n/a	n/a	n/a	n/a	n/a	n/a
379.1175	1.0333	COLOR_NAME	43	Neutral	zielony	green	Neutral	Neutral	hit	n/a
380.1302	n/a	RESPONSE	n/a	n/a	n/a	n/a	n/a	n/a	n/a	green
380.1508	1.0167	ITI	n/a	n/a	n/a	n/a	n/a	n/a	n/a	n/a
381.1675	0.5167	FIXCROSS	n/a	n/a	n/a	n/a	n/a	n/a	n/a	n/a
381.6842	0.9667	COLOR_NAME	44	Neutral	czerwony	red	Neutral	Neutral	hit	n/a
382.6207	n/a	RESPONSE	n/a	n/a	n/a	n/a	n/a	n/a	n/a	red
382.6509	1.0167	ITI	n/a	n/a	n/a	n/a	n/a	n/a	n/a	n/a
383.6676	0.5167	FIXCROSS	n/a	n/a	n/a	n/a	n/a	n/a	n/a	n/a
384.1842	1.05	COLOR_NAME	45	Incongruent	niebieski	blue	czerwony	red	hit	n/a
385.2067	n/a	RESPONSE	n/a	n/a	n/a	n/a	n/a	n/a	n/a	blue
385.2342	1.0166	ITI	n/a	n/a	n/a	n/a	n/a	n/a	n/a	n/a
386.2509	0.5167	FIXCROSS	n/a	n/a	n/a	n/a	n/a	n/a	n/a	n/a
386.7676	0.9333	COLOR_NAME	46	Incongruent	żółty	yellow	czerwony	red	hit	n/a
387.6811	n/a	RESPONSE	n/a	n/a	n/a	n/a	n/a	n/a	n/a	yellow
387.7009	1.0167	ITI	n/a	n/a	n/a	n/a	n/a	n/a	n/a	n/a
388.7176	0.5167	FIXCROSS	n/a	n/a	n/a	n/a	n/a	n/a	n/a	n/a
389.2343	0.8333	COLOR_NAME	47	Neutral	czerwony	red	Neutral	Neutral	hit	n/a
390.0438	n/a	RESPONSE	n/a	n/a	n/a	n/a	n/a	n/a	n/a	red
390.0676	1.0167	ITI	n/a	n/a	n/a	n/a	n/a	n/a	n/a	n/a
391.0843	0.5167	FIXCROSS	n/a	n/a	n/a	n/a	n/a	n/a	n/a	n/a
391.6009	0.8166	COLOR_NAME	48	Incongruent	żółty	yellow	niebieski	blue	hit	n/a
392.3905	n/a	RESPONSE	n/a	n/a	n/a	n/a	n/a	n/a	n/a	yellow
392.4176	1.0167	ITI	n/a	n/a	n/a	n/a	n/a	n/a	n/a	n/a
393.4343	0.5167	FIXCROSS	n/a	n/a	n/a	n/a	n/a	n/a	n/a	n/a
393.951	0.8833	COLOR_NAME	49	Incongruent	niebieski	blue	żółty	yellow	hit	n/a
394.801	n/a	RESPONSE	n/a	n/a	n/a	n/a	n/a	n/a	n/a	blue
394.8343	1.0167	ITI	n/a	n/a	n/a	n/a	n/a	n/a	n/a	n/a
395.851	0.5167	FIXCROSS	n/a	n/a	n/a	n/a	n/a	n/a	n/a	n/a
396.3676	0.9667	COLOR_NAME	50	Incongruent	zielony	green	niebieski	blue	hit	n/a
397.3073	n/a	RESPONSE	n/a	n/a	n/a	n/a	n/a	n/a	n/a	green
397.3343	1.0166	ITI	n/a	n/a	n/a	n/a	n/a	n/a	n/a	n/a
398.351	0.5167	FIXCROSS	n/a	n/a	n/a	n/a	n/a	n/a	n/a	n/a
398.8676	0.6	COLOR_NAME	51	Neutral	zielony	green	Neutral	Neutral	hit	n/a
399.4464	n/a	RESPONSE	n/a	n/a	n/a	n/a	n/a	n/a	n/a	green
399.4677	1.0167	ITI	n/a	n/a	n/a	n/a	n/a	n/a	n/a	n/a
400.4844	0.5167	FIXCROSS	n/a	n/a	n/a	n/a	n/a	n/a	n/a	n/a
401.001	1.1	COLOR_NAME	52	Incongruent	niebieski	blue	zielony	green	hit	n/a
402.0805	n/a	RESPONSE	n/a	n/a	n/a	n/a	n/a	n/a	n/a	blue
402.101	1.0167	ITI	n/a	n/a	n/a	n/a	n/a	n/a	n/a	n/a
403.1177	0.5167	FIXCROSS	n/a	n/a	n/a	n/a	n/a	n/a	n/a	n/a
403.6344	1.05	COLOR_NAME	53	Neutral	zielony	green	Neutral	Neutral	hit	n/a
404.6506	n/a	RESPONSE	n/a	n/a	n/a	n/a	n/a	n/a	n/a	green
404.6844	1.0167	ITI	n/a	n/a	n/a	n/a	n/a	n/a	n/a	n/a
405.701	0.5166	FIXCROSS	n/a	n/a	n/a	n/a	n/a	n/a	n/a	n/a
406.2177	1.0334	COLOR_NAME	54	Neutral	czerwony	red	Neutral	Neutral	hit	n/a
407.2209	n/a	RESPONSE	n/a	n/a	n/a	n/a	n/a	n/a	n/a	red
407.2511	1.0167	ITI	n/a	n/a	n/a	n/a	n/a	n/a	n/a	n/a
408.2677	0.5166	FIXCROSS	n/a	n/a	n/a	n/a	n/a	n/a	n/a	n/a
408.7844	1.2334	COLOR_NAME	55	Neutral	żółty	yellow	Neutral	Neutral	hit	n/a
409.9986	n/a	RESPONSE	n/a	n/a	n/a	n/a	n/a	n/a	n/a	yellow
410.0177	1.0167	ITI	n/a	n/a	n/a	n/a	n/a	n/a	n/a	n/a
411.0344	0.5167	FIXCROSS	n/a	n/a	n/a	n/a	n/a	n/a	n/a	n/a
411.5511	0.9333	COLOR_NAME	56	Incongruent	niebieski	blue	zielony	green	hit	n/a
412.4569	n/a	RESPONSE	n/a	n/a	n/a	n/a	n/a	n/a	n/a	blue
412.4844	1.0167	ITI	n/a	n/a	n/a	n/a	n/a	n/a	n/a	n/a
413.5011	0.5166	FIXCROSS	n/a	n/a	n/a	n/a	n/a	n/a	n/a	n/a
414.0177	0.9334	COLOR_NAME	57	Incongruent	żółty	yellow	niebieski	blue	hit	n/a
414.9313	n/a	RESPONSE	n/a	n/a	n/a	n/a	n/a	n/a	n/a	yellow
414.9511	1.0167	ITI	n/a	n/a	n/a	n/a	n/a	n/a	n/a	n/a
415.9678	0.5166	FIXCROSS	n/a	n/a	n/a	n/a	n/a	n/a	n/a	n/a
416.4844	1.2334	COLOR_NAME	58	Incongruent	zielony	green	niebieski	blue	hit	n/a
417.6931	n/a	RESPONSE	n/a	n/a	n/a	n/a	n/a	n/a	n/a	green
417.7178	1.0166	ITI	n/a	n/a	n/a	n/a	n/a	n/a	n/a	n/a
418.7345	0.5167	FIXCROSS	n/a	n/a	n/a	n/a	n/a	n/a	n/a	n/a
419.2511	1.0667	COLOR_NAME	59	Incongruent	żółty	yellow	zielony	green	hit	n/a
420.2952	n/a	RESPONSE	n/a	n/a	n/a	n/a	n/a	n/a	n/a	yellow
420.3178	1.0166	ITI	n/a	n/a	n/a	n/a	n/a	n/a	n/a	n/a
421.3345	0.5167	FIXCROSS	n/a	n/a	n/a	n/a	n/a	n/a	n/a	n/a
421.8512	1.3167	COLOR_NAME	60	Neutral	żółty	yellow	Neutral	Neutral	hit	n/a
423.1366	n/a	RESPONSE	n/a	n/a	n/a	n/a	n/a	n/a	n/a	yellow
423.1678	1.0167	ITI	n/a	n/a	n/a	n/a	n/a	n/a	n/a	n/a
424.1845	0.5167	FIXCROSS	n/a	n/a	n/a	n/a	n/a	n/a	n/a	n/a
424.7012	0.9167	COLOR_NAME	61	Neutral	czerwony	red	Neutral	Neutral	hit	n/a
425.5951	n/a	RESPONSE	n/a	n/a	n/a	n/a	n/a	n/a	n/a	red
425.6179	1.0167	ITI	n/a	n/a	n/a	n/a	n/a	n/a	n/a	n/a
426.6345	0.5167	FIXCROSS	n/a	n/a	n/a	n/a	n/a	n/a	n/a	n/a
427.1512	1.1	COLOR_NAME	62	Neutral	niebieski	blue	Neutral	Neutral	hit	n/a
428.2291	n/a	RESPONSE	n/a	n/a	n/a	n/a	n/a	n/a	n/a	blue
428.2512	1.0167	ITI	n/a	n/a	n/a	n/a	n/a	n/a	n/a	n/a
429.2679	0.5167	FIXCROSS	n/a	n/a	n/a	n/a	n/a	n/a	n/a	n/a
429.7846	1.0833	COLOR_NAME	63	Incongruent	żółty	yellow	niebieski	blue	hit	n/a
430.8472	n/a	RESPONSE	n/a	n/a	n/a	n/a	n/a	n/a	n/a	yellow
430.8679	1.0167	ITI	n/a	n/a	n/a	n/a	n/a	n/a	n/a	n/a
431.8846	0.5167	FIXCROSS	n/a	n/a	n/a	n/a	n/a	n/a	n/a	n/a
432.4012	0.9167	COLOR_NAME	64	Neutral	niebieski	blue	Neutral	Neutral	hit	n/a
433.2896	n/a	RESPONSE	n/a	n/a	n/a	n/a	n/a	n/a	n/a	blue
433.3179	1.0167	ITI	n/a	n/a	n/a	n/a	n/a	n/a	n/a	n/a
434.3346	0.5167	FIXCROSS	n/a	n/a	n/a	n/a	n/a	n/a	n/a	n/a
434.8513	0.85	COLOR_NAME	65	Neutral	żółty	yellow	Neutral	Neutral	hit	n/a
435.6682	n/a	RESPONSE	n/a	n/a	n/a	n/a	n/a	n/a	n/a	yellow
435.7013	1.0167	ITI	n/a	n/a	n/a	n/a	n/a	n/a	n/a	n/a
436.7179	0.5167	FIXCROSS	n/a	n/a	n/a	n/a	n/a	n/a	n/a	n/a
437.2346	0.6833	COLOR_NAME	66	Neutral	żółty	yellow	Neutral	Neutral	hit	n/a
437.8872	n/a	RESPONSE	n/a	n/a	n/a	n/a	n/a	n/a	n/a	yellow
437.9179	1.0167	ITI	n/a	n/a	n/a	n/a	n/a	n/a	n/a	n/a
438.9346	0.5167	FIXCROSS	n/a	n/a	n/a	n/a	n/a	n/a	n/a	n/a
439.4513	0.8	COLOR_NAME	67	Neutral	niebieski	blue	Neutral	Neutral	hit	n/a
440.2179	n/a	RESPONSE	n/a	n/a	n/a	n/a	n/a	n/a	n/a	blue
440.2513	1.0167	ITI	n/a	n/a	n/a	n/a	n/a	n/a	n/a	n/a
441.268	0.5166	FIXCROSS	n/a	n/a	n/a	n/a	n/a	n/a	n/a	n/a
441.7846	1.0	COLOR_NAME	68	Neutral	zielony	green	Neutral	Neutral	hit	n/a
442.7563	n/a	RESPONSE	n/a	n/a	n/a	n/a	n/a	n/a	n/a	green
442.7847	1.0167	ITI	n/a	n/a	n/a	n/a	n/a	n/a	n/a	n/a
443.8013	0.5167	FIXCROSS	n/a	n/a	n/a	n/a	n/a	n/a	n/a	n/a
444.318	1.1333	COLOR_NAME	69	Incongruent	niebieski	blue	czerwony	red	incorrect	n/a
445.4221	n/a	RESPONSE	n/a	n/a	n/a	n/a	n/a	n/a	n/a	red
445.4513	1.0167	ITI	n/a	n/a	n/a	n/a	n/a	n/a	n/a	n/a
446.468	0.5167	FIXCROSS	n/a	n/a	n/a	n/a	n/a	n/a	n/a	n/a
446.9847	1.0333	COLOR_NAME	70	Neutral	niebieski	blue	Neutral	Neutral	hit	n/a
447.9923	n/a	RESPONSE	n/a	n/a	n/a	n/a	n/a	n/a	n/a	blue
448.018	1.0167	ITI	n/a	n/a	n/a	n/a	n/a	n/a	n/a	n/a
449.0347	0.5166	FIXCROSS	n/a	n/a	n/a	n/a	n/a	n/a	n/a	n/a
449.5513	1.1834	COLOR_NAME	71	Neutral	żółty	yellow	Neutral	Neutral	hit	n/a
450.7062	n/a	RESPONSE	n/a	n/a	n/a	n/a	n/a	n/a	n/a	yellow
450.7347	1.0167	ITI	n/a	n/a	n/a	n/a	n/a	n/a	n/a	n/a
451.7514	0.5167	FIXCROSS	n/a	n/a	n/a	n/a	n/a	n/a	n/a	n/a
452.2681	1.0667	COLOR_NAME	72	Neutral	niebieski	blue	Neutral	Neutral	hit	n/a
453.3083	n/a	RESPONSE	n/a	n/a	n/a	n/a	n/a	n/a	n/a	blue
453.3347	1.0333	ITI	n/a	n/a	n/a	n/a	n/a	n/a	n/a	n/a
456.501	n/a	RESPONSE	n/a	n/a	n/a	n/a	n/a	n/a	n/a	n/a
