onset	duration	trial_type	melody_number	melody_part	key	sound	action
0.0	14.083	CUE_START	n/a	n/a	n/a	n/a	n/a
11.589	n/a	RESPONSE	        n/a	n/a	07	G3	press
14.083	7.76	FIXCROSS	n/a	n/a	n/a	n/a	n/a
17.459	n/a	RESPONSE	        n/a	n/a	07	G3	release
21.843	6.316	CUE_LISTEN	M1	1	n/a	n/a	n/a
28.158	7.758	FIXCROSS	n/a	n/a	n/a	n/a	n/a
35.917	6.325	CUE_PLAYBACK_RIGHT_HAND	M1	1	n/a	n/a	n/a
36.503	n/a	RESPONSE	M1	1	00	C3	press
36.514	n/a	RESPONSE	M1	1	12	C4	press
37.075	n/a	RESPONSE	M1	1	14	D4	press
37.096	n/a	RESPONSE	M1	1	07	G3	press
37.228	n/a	RESPONSE	M1	1	12	C4	release
37.639	n/a	RESPONSE	M1	1	04	E3	press
37.65	n/a	RESPONSE	M1	1	16	E4	press
37.661	n/a	RESPONSE	M1	1	14	D4	release
37.783	n/a	RESPONSE	M1	1	07	G3	release
37.996	n/a	RESPONSE	M1	1	00	C3	release
38.215	n/a	RESPONSE	M1	1	12	C4	press
38.218	n/a	RESPONSE	M1	1	07	G3	press
38.269	n/a	RESPONSE	M1	1	16	E4	release
38.639	n/a	RESPONSE	M1	1	12	C4	release
38.7	n/a	RESPONSE	M1	1	04	E3	release
38.801	n/a	RESPONSE	M1	1	12	C4	press
38.804	n/a	RESPONSE	M1	1	00	C3	press
38.944	n/a	RESPONSE	M1	1	07	G3	release
39.355	n/a	RESPONSE	M1	1	07	G3	press
39.366	n/a	RESPONSE	M1	1	14	D4	press
39.491	n/a	RESPONSE	M1	1	12	C4	release
39.911	n/a	RESPONSE	M1	1	16	E4	press
39.921	n/a	RESPONSE	M1	1	00	C3	release
39.924	n/a	RESPONSE	M1	1	14	D4	release
39.926	n/a	RESPONSE	M1	1	04	E3	press
39.975	n/a	RESPONSE	M1	1	07	G3	release
40.476	n/a	RESPONSE	M1	1	07	G3	press
40.479	n/a	RESPONSE	M1	1	12	C4	press
40.541	n/a	RESPONSE	M1	1	16	E4	release
41.06	n/a	RESPONSE	M1	1	12	C4	release
41.341	n/a	RESPONSE	M1	1	07	G3	release
41.444	n/a	RESPONSE	M1	1	04	E3	release
42.242	7.758	FIXCROSS	n/a	n/a	n/a	n/a	n/a
50.0	6.317	CUE_LISTEN	        M1	2	n/a	n/a	n/a
56.317	7.758	FIXCROSS	n/a	n/a	n/a	n/a	n/a
64.075	6.317	CUE_PLAYBACK_RIGHT_HAND	        M1	2	n/a	n/a	n/a
64.825	n/a	RESPONSE	        M1	2	19	G4	press
65.106	n/a	RESPONSE	        M1	2	21	A4	press
65.208	n/a	RESPONSE	        M1	2	19	G4	release
65.401	n/a	RESPONSE	        M1	2	19	G4	press
65.44	n/a	RESPONSE	        M1	2	21	A4	release
65.741	n/a	RESPONSE	        M1	2	17	F4	press
65.965	n/a	RESPONSE	        M1	2	19	G4	release
66.064	n/a	RESPONSE	        M1	2	16	E4	press
66.155	n/a	RESPONSE	        M1	2	17	F4	release
66.676	n/a	RESPONSE	        M1	2	12	C4	press
66.7	n/a	RESPONSE	        M1	2	16	E4	release
67.119	n/a	RESPONSE	        M1	2	12	C4	release
67.303	n/a	RESPONSE	        M1	2	19	G4	press
67.613	n/a	RESPONSE	        M1	2	21	A4	press
67.704	n/a	RESPONSE	        M1	2	19	G4	release
67.936	n/a	RESPONSE	        M1	2	19	G4	press
67.969	n/a	RESPONSE	        M1	2	17	F4	press
67.998	n/a	RESPONSE	        M1	2	21	A4	release
68.189	n/a	RESPONSE	        M1	2	17	F4	release
68.34	n/a	RESPONSE	        M1	2	17	F4	press
68.531	n/a	RESPONSE	        M1	2	19	G4	release
68.763	n/a	RESPONSE	        M1	2	16	E4	press
68.765	n/a	RESPONSE	        M1	2	17	F4	release
69.458	n/a	RESPONSE	        M1	2	12	C4	press
69.548	n/a	RESPONSE	        M1	2	16	E4	release
70.039	n/a	RESPONSE	        M1	2	12	C4	release
70.392	7.758	FIXCROSS	n/a	n/a	n/a	n/a	n/a
78.15	6.325	CUE_LISTEN	        M7	1	n/a	n/a	n/a
84.475	7.758	FIXCROSS	n/a	n/a	n/a	n/a	n/a
92.234	6.317	CUE_PLAYBACK_BOTH_HANDS	        M7	1	n/a	n/a	n/a
95.614	n/a	RESPONSE	        M7	1	21	A4	press
95.622	n/a	RESPONSE	        M7	1	05	F3	press
96.024	n/a	RESPONSE	        M7	1	09	A3	press
96.165	n/a	RESPONSE	        M7	1	05	F3	release
96.316	n/a	RESPONSE	        M7	1	21	A4	release
96.428	n/a	RESPONSE	        M7	1	04	E3	press
96.449	n/a	RESPONSE	        M7	1	21	A4	press
96.54	n/a	RESPONSE	        M7	1	09	A3	release
96.761	n/a	RESPONSE	        M7	1	21	A4	release
96.843	n/a	RESPONSE	        M7	1	09	A3	press
96.974	n/a	RESPONSE	        M7	1	04	E3	release
97.236	n/a	RESPONSE	        M7	1	02	D3	press
97.246	n/a	RESPONSE	        M7	1	21	A4	press
97.298	n/a	RESPONSE	        M7	1	09	A3	release
97.551	n/a	RESPONSE	        M7	1	21	A4	release
97.63	n/a	RESPONSE	        M7	1	09	A3	press
97.671	n/a	RESPONSE	        M7	1	21	A4	press
97.934	n/a	RESPONSE	        M7	1	21	A4	release
97.964	n/a	RESPONSE	        M7	1	02	D3	release
98.075	n/a	RESPONSE	        M7	1	00	C3	press
98.078	n/a	RESPONSE	        M7	1	21	A4	press
98.098	n/a	RESPONSE	        M7	1	09	A3	release
98.459	n/a	RESPONSE	        M7	1	09	A3	press
98.5	n/a	RESPONSE	        M7	1	21	A4	release
98.55	7.758	FIXCROSS	n/a	n/a	n/a	n/a	n/a
98.881	n/a	RESPONSE	        M7	1	21	A4	press
98.884	n/a	RESPONSE	        M7	1	05	F3	press
99.014	n/a	RESPONSE	        M7	1	09	A3	release
99.265	n/a	RESPONSE	        M7	1	24	C5	press
99.276	n/a	RESPONSE	        M7	1	09	A3	press
99.328	n/a	RESPONSE	        M7	1	21	A4	release
99.41	n/a	RESPONSE	        M7	1	05	F3	release
99.671	n/a	RESPONSE	        M7	1	04	E3	press
99.693	n/a	RESPONSE	        M7	1	17	F4	press
99.734	n/a	RESPONSE	        M7	1	09	A3	release
100.135	n/a	RESPONSE	        M7	1	09	A3	press
100.138	n/a	RESPONSE	        M7	1	04	E3	release
100.158	n/a	RESPONSE	        M7	1	19	G4	press
100.17	n/a	RESPONSE	        M7	1	17	F4	release
100.371	n/a	RESPONSE	        M7	1	00	C3	release
100.454	n/a	RESPONSE	        M7	1	24	C5	release
100.565	n/a	RESPONSE	        M7	1	19	G4	release
100.574	n/a	RESPONSE	        M7	1	21	A4	press
100.576	n/a	RESPONSE	        M7	1	09	A3	release
100.599	n/a	RESPONSE	        M7	1	02	D3	press
100.968	n/a	RESPONSE	        M7	1	09	A3	press
101.139	n/a	RESPONSE	        M7	1	21	A4	release
101.406	n/a	RESPONSE	        M7	1	00	C3	press
101.473	n/a	RESPONSE	        M7	1	09	A3	release
101.794	n/a	RESPONSE	        M7	1	09	A3	press
102.249	n/a	RESPONSE	        M7	1	00	C3	release
102.274	n/a	RESPONSE	        M7	1	02	D3	release
102.386	n/a	RESPONSE	        M7	1	09	A3	release
106.309	6.325	CUE_LISTEN	        M7	2	n/a	n/a	n/a
112.634	7.758	FIXCROSS	n/a	n/a	n/a	n/a	n/a
120.392	6.317	CUE_PLAYBACK_BOTH_HANDS	        M7	2	n/a	n/a	n/a
121.009	n/a	RESPONSE	        M7	2	07	G3	press
121.03	n/a	RESPONSE	        M7	2	22	A#4	press
121.328	n/a	RESPONSE	        M7	2	22	A#4	release
121.453	n/a	RESPONSE	        M7	2	22	A#4	press
121.471	n/a	RESPONSE	        M7	2	10	A#3	press
121.62	n/a	RESPONSE	        M7	2	07	G3	release
121.754	n/a	RESPONSE	        M7	2	22	A#4	release
121.906	n/a	RESPONSE	        M7	2	22	A#4	press
121.916	n/a	RESPONSE	        M7	2	04	E3	press
121.99	n/a	RESPONSE	        M7	2	10	A#3	release
122.251	n/a	RESPONSE	        M7	2	22	A#4	release
122.371	n/a	RESPONSE	        M7	2	04	E3	release
122.409	n/a	RESPONSE	        M7	2	10	A#3	press
122.438	n/a	RESPONSE	        M7	2	22	A#4	press
122.774	n/a	RESPONSE	        M7	2	22	A#4	release
122.971	n/a	RESPONSE	        M7	2	22	A#4	press
123.01	n/a	RESPONSE	        M7	2	10	A#3	release
123.031	n/a	RESPONSE	        M7	2	05	F3	press
123.484	n/a	RESPONSE	        M7	2	22	A#4	release
123.566	n/a	RESPONSE	        M7	2	09	A3	press
123.59	n/a	RESPONSE	        M7	2	21	A4	press
123.67	n/a	RESPONSE	        M7	2	05	F3	release
123.856	n/a	RESPONSE	        M7	2	21	A4	release
124.12	n/a	RESPONSE	        M7	2	00	C3	press
124.124	n/a	RESPONSE	        M7	2	21	A4	press
124.291	n/a	RESPONSE	        M7	2	09	A3	release
124.439	n/a	RESPONSE	        M7	2	21	A4	release
124.628	n/a	RESPONSE	        M7	2	21	A4	press
124.632	n/a	RESPONSE	        M7	2	09	A3	press
124.955	n/a	RESPONSE	        M7	2	21	A4	release
125.078	n/a	RESPONSE	        M7	2	09	A3	release
125.488	n/a	RESPONSE	        M7	2	00	C3	release
125.629	n/a	RESPONSE	        M7	2	07	G3	press
125.631	n/a	RESPONSE	        M7	2	21	A4	press
126.541	n/a	RESPONSE	        M7	2	19	G4	press
126.552	n/a	RESPONSE	        M7	2	09	A3	press
126.644	n/a	RESPONSE	        M7	2	21	A4	release
126.705	n/a	RESPONSE	        M7	2	07	G3	release
126.708	7.759	FIXCROSS	n/a	n/a	n/a	n/a	n/a
127.036	n/a	RESPONSE	        M7	2	19	G4	release
127.258	n/a	RESPONSE	        M7	2	02	D3	press
127.269	n/a	RESPONSE	        M7	2	19	G4	press
127.3	n/a	RESPONSE	        M7	2	09	A3	release
127.721	n/a	RESPONSE	        M7	2	19	G4	release
127.973	n/a	RESPONSE	        M7	2	19	G4	press
127.975	n/a	RESPONSE	        M7	2	09	A3	press
128.075	n/a	RESPONSE	        M7	2	02	D3	release
128.856	n/a	RESPONSE	        M7	2	19	G4	release
128.869	n/a	RESPONSE	        M7	2	21	A4	press
128.879	n/a	RESPONSE	        M7	2	00	C3	press
128.99	n/a	RESPONSE	        M7	2	09	A3	release
129.633	n/a	RESPONSE	        M7	2	21	A4	release
129.974	n/a	RESPONSE	        M7	2	09	A3	press
129.988	n/a	RESPONSE	        M7	2	19	G4	press
130.736	n/a	RESPONSE	        M7	2	21	A4	press
130.739	n/a	RESPONSE	        M7	2	19	G4	release
130.749	n/a	RESPONSE	        M7	2	00	C3	release
130.78	n/a	RESPONSE	        M7	2	04	E3	press
130.881	n/a	RESPONSE	        M7	2	09	A3	release
131.534	n/a	RESPONSE	        M7	2	09	A3	press
131.539	n/a	RESPONSE	        M7	2	19	G4	press
131.584	n/a	RESPONSE	        M7	2	04	E3	release
131.616	n/a	RESPONSE	        M7	2	21	A4	release
132.326	n/a	RESPONSE	        M7	2	19	G4	release
132.505	n/a	RESPONSE	        M7	2	09	A3	release
134.467	6.317	CUE_LISTEN	        M5	1	n/a	n/a	n/a
140.784	7.758	FIXCROSS	n/a	n/a	n/a	n/a	n/a
140.838	n/a	RESPONSE	        M5	1	07	G3	press
146.776	n/a	RESPONSE	        M5	1	07	G3	release
148.542	6.325	CUE_PLAYBACK_BOTH_HANDS	        M5	1	n/a	n/a	n/a
149.61	n/a	RESPONSE	        M5	1	19	G4	press
149.621	n/a	RESPONSE	        M5	1	00	C3	press
149.624	n/a	RESPONSE	        M5	1	04	E3	press
149.626	n/a	RESPONSE	        M5	1	07	G3	press
150.035	n/a	RESPONSE	        M5	1	19	G4	release
150.148	n/a	RESPONSE	        M5	1	16	E4	press
150.488	n/a	RESPONSE	        M5	1	16	E4	release
150.639	n/a	RESPONSE	        M5	1	16	E4	press
150.89	n/a	RESPONSE	        M5	1	00	C3	release
150.912	n/a	RESPONSE	        M5	1	04	E3	release
150.945	n/a	RESPONSE	        M5	1	16	E4	release
151.135	n/a	RESPONSE	        M5	1	05	F3	press
151.145	n/a	RESPONSE	        M5	1	02	D3	press
151.156	n/a	RESPONSE	        M5	1	17	F4	press
151.188	n/a	RESPONSE	        M5	1	19	G4	press
151.42	n/a	RESPONSE	        M5	1	19	G4	release
151.59	n/a	RESPONSE	        M5	1	17	F4	release
151.652	n/a	RESPONSE	        M5	1	14	D4	press
151.984	n/a	RESPONSE	        M5	1	14	D4	release
152.165	n/a	RESPONSE	        M5	1	14	D4	press
152.39	n/a	RESPONSE	        M5	1	02	D3	release
152.436	n/a	RESPONSE	        M5	1	05	F3	release
152.468	n/a	RESPONSE	        M5	1	14	D4	release
152.514	n/a	RESPONSE	        M5	1	07	G3	release
152.644	n/a	RESPONSE	        M5	1	04	E3	press
152.646	n/a	RESPONSE	        M5	1	07	G3	press
152.691	n/a	RESPONSE	        M5	1	12	C4	press
152.76	n/a	RESPONSE	        M5	1	00	C3	press
152.879	n/a	RESPONSE	        M5	1	16	E4	press
153.205	n/a	RESPONSE	        M5	1	12	C4	release
153.266	n/a	RESPONSE	        M5	1	16	E4	release
153.615	n/a	RESPONSE	        M5	1	00	C3	release
153.635	n/a	RESPONSE	        M5	1	07	G3	release
153.814	n/a	RESPONSE	        M5	1	07	G3	press
153.832	n/a	RESPONSE	        M5	1	00	C3	press
153.848	n/a	RESPONSE	        M5	1	12	C4	press
154.249	n/a	RESPONSE	        M5	1	16	E4	press
154.278	n/a	RESPONSE	        M5	1	12	C4	release
154.58	n/a	RESPONSE	        M5	1	17	F4	press
154.606	n/a	RESPONSE	        M5	1	19	G4	press
154.645	n/a	RESPONSE	        M5	1	16	E4	release
154.867	7.758	FIXCROSS	n/a	n/a	n/a	n/a	n/a
155.116	n/a	RESPONSE	        M5	1	17	F4	release
155.438	n/a	RESPONSE	        M5	1	19	G4	release
155.459	n/a	RESPONSE	        M5	1	00	C3	release
155.521	n/a	RESPONSE	        M5	1	04	E3	release
156.091	n/a	RESPONSE	        M5	1	07	G3	release
156.353	n/a	RESPONSE	        M5	1	19	G4	press
161.008	n/a	RESPONSE	        M5	1	19	G4	release
162.625	6.317	CUE_LISTEN	        M5	2	n/a	n/a	n/a
168.942	7.758	FIXCROSS	n/a	n/a	n/a	n/a	n/a
176.7	6.317	CUE_PLAYBACK_BOTH_HANDS	        M5	2	n/a	n/a	n/a
177.774	n/a	RESPONSE	        M5	2	16	E4	press
177.776	n/a	RESPONSE	        M5	2	00	C3	press
177.786	n/a	RESPONSE	        M5	2	07	G3	press
178.189	n/a	RESPONSE	        M5	2	16	E4	release
178.3	n/a	RESPONSE	        M5	2	00	C3	release
178.43	n/a	RESPONSE	        M5	2	07	G3	release
178.691	n/a	RESPONSE	        M5	2	00	C3	press
178.694	n/a	RESPONSE	        M5	2	07	G3	press
178.696	n/a	RESPONSE	        M5	2	19	G4	press
179.178	n/a	RESPONSE	        M5	2	19	G4	release
179.246	n/a	RESPONSE	        M5	2	16	E4	press
179.589	n/a	RESPONSE	        M5	2	16	E4	release
179.742	n/a	RESPONSE	        M5	2	16	E4	press
179.994	n/a	RESPONSE	        M5	2	00	C3	release
180.032	n/a	RESPONSE	        M5	2	16	E4	release
180.224	n/a	RESPONSE	        M5	2	02	D3	press
180.255	n/a	RESPONSE	        M5	2	17	F4	press
180.756	n/a	RESPONSE	        M5	2	17	F4	release
180.768	n/a	RESPONSE	        M5	2	14	D4	press
181.079	n/a	RESPONSE	        M5	2	14	D4	release
181.285	n/a	RESPONSE	        M5	2	14	D4	press
181.581	n/a	RESPONSE	        M5	2	02	D3	release
181.585	n/a	RESPONSE	        M5	2	14	D4	release
181.769	n/a	RESPONSE	        M5	2	04	E3	press
181.772	n/a	RESPONSE	        M5	2	12	C4	press
181.789	n/a	RESPONSE	        M5	2	00	C3	press
182.064	n/a	RESPONSE	        M5	2	16	E4	press
182.179	n/a	RESPONSE	        M5	2	12	C4	release
182.37	n/a	RESPONSE	        M5	2	12	C4	press
182.442	n/a	RESPONSE	        M5	2	16	E4	release
183.017	7.758	FIXCROSS	n/a	n/a	n/a	n/a	n/a
183.73	n/a	RESPONSE	        M5	2	12	C4	release
183.822	n/a	RESPONSE	        M5	2	04	E3	release
183.826	n/a	RESPONSE	        M5	2	00	C3	release
190.775	6.325	CUE_LISTEN	        M3	1	n/a	n/a	n/a
196.272	n/a	RESPONSE	        M3	1	07	G3	release
197.1	7.758	FIXCROSS	n/a	n/a	n/a	n/a	n/a
204.859	6.317	CUE_PLAYBACK_RIGHT_HAND	        M3	1	n/a	n/a	n/a
205.635	n/a	RESPONSE	        M3	1	20	G#4	press
206.455	n/a	RESPONSE	        M3	1	20	G#4	release
207.866	n/a	RESPONSE	        M3	1	22	A#4	press
208.428	n/a	RESPONSE	        M3	1	21	A4	press
208.549	n/a	RESPONSE	        M3	1	22	A#4	release
209.02	n/a	RESPONSE	        M3	1	19	G4	press
209.101	n/a	RESPONSE	        M3	1	21	A4	release
209.595	n/a	RESPONSE	        M3	1	21	A4	press
209.655	n/a	RESPONSE	        M3	1	19	G4	release
210.866	n/a	RESPONSE	        M3	1	12	C4	press
210.878	n/a	RESPONSE	        M3	1	21	A4	release
211.175	7.758	FIXCROSS	n/a	n/a	n/a	n/a	n/a
211.368	n/a	RESPONSE	        M3	1	12	C4	release
211.83	n/a	RESPONSE	        M3	1	11	B3	press
212.322	n/a	RESPONSE	        M3	1	11	B3	release
212.798	n/a	RESPONSE	        M3	1	12	C4	press
213.19	n/a	RESPONSE	        M3	1	12	C4	release
213.365	n/a	RESPONSE	        M3	1	12	C4	press
213.759	n/a	RESPONSE	        M3	1	07	G3	press
214.02	n/a	RESPONSE	        M3	1	17	F4	press
214.094	n/a	RESPONSE	        M3	1	12	C4	release
216.988	n/a	RESPONSE	        M3	1	17	F4	release
217.969	n/a	RESPONSE	        M3	1	07	G3	release
218.49	n/a	RESPONSE	        M3	1	07	G3	press
218.934	6.317	CUE_LISTEN	        M3	2	n/a	n/a	n/a
218.991	n/a	RESPONSE	        M3	2	09	A3	press
219.344	n/a	RESPONSE	        M3	2	07	G3	release
225.25	7.758	FIXCROSS	n/a	n/a	n/a	n/a	n/a
233.009	6.325	CUE_PLAYBACK_RIGHT_HAND	        M3	2	n/a	n/a	n/a
233.6	n/a	RESPONSE	        M3	2	07	G3	press
234.109	n/a	RESPONSE	        M3	2	07	G3	release
234.774	n/a	RESPONSE	        M3	2	16	E4	press
235.34	n/a	RESPONSE	        M3	2	16	E4	release
236.079	n/a	RESPONSE	        M3	2	15	D#4	press
236.55	n/a	RESPONSE	        M3	2	15	D#4	release
238.882	n/a	RESPONSE	        M3	2	18	F#4	press
239.334	7.758	FIXCROSS	n/a	n/a	n/a	n/a	n/a
240.035	n/a	RESPONSE	        M3	2	17	F4	press
240.119	n/a	RESPONSE	        M3	2	18	F#4	release
240.45	n/a	RESPONSE	        M3	2	16	E4	press
240.509	n/a	RESPONSE	        M3	2	17	F4	release
240.77	n/a	RESPONSE	        M3	2	17	F4	press
240.801	n/a	RESPONSE	        M3	2	16	E4	release
241.002	n/a	RESPONSE	        M3	2	17	F4	release
247.092	6.317	CUE_LISTEN	        M6	1	n/a	n/a	n/a
253.409	7.758	FIXCROSS	n/a	n/a	n/a	n/a	n/a
260.175	n/a	RESPONSE	        M6	1	14	D4	press
260.186	n/a	RESPONSE	        M6	1	12	C4	press
260.318	n/a	RESPONSE	        M6	1	12	C4	release
260.569	n/a	RESPONSE	        M6	1	14	D4	release
261.167	6.317	CUE_PLAYBACK_RIGHT_HAND	        M6	1	n/a	n/a	n/a
261.906	n/a	RESPONSE	        M6	1	14	D4	press
262.26	n/a	RESPONSE	        M6	1	17	F4	press
262.428	n/a	RESPONSE	        M6	1	14	D4	release
262.57	n/a	RESPONSE	        M6	1	17	F4	release
264.321	n/a	RESPONSE	        M6	1	12	C4	press
265.222	n/a	RESPONSE	        M6	1	12	C4	release
265.444	n/a	RESPONSE	        M6	1	12	C4	press
265.875	n/a	RESPONSE	        M6	1	19	G4	press
265.936	n/a	RESPONSE	        M6	1	12	C4	release
266.248	n/a	RESPONSE	        M6	1	19	G4	release
266.519	n/a	RESPONSE	        M6	1	12	C4	press
266.832	n/a	RESPONSE	        M6	1	17	F4	press
266.891	n/a	RESPONSE	        M6	1	12	C4	release
267.222	n/a	RESPONSE	        M6	1	21	A4	press
267.264	n/a	RESPONSE	        M6	1	17	F4	release
267.484	7.758	FIXCROSS	n/a	n/a	n/a	n/a	n/a
267.595	n/a	RESPONSE	        M6	1	19	G4	press
267.686	n/a	RESPONSE	        M6	1	21	A4	release
267.957	n/a	RESPONSE	        M6	1	17	F4	press
268.33	n/a	RESPONSE	        M6	1	16	E4	press
268.38	n/a	RESPONSE	        M6	1	19	G4	release
268.414	n/a	RESPONSE	        M6	1	17	F4	release
268.662	n/a	RESPONSE	        M6	1	17	F4	press
268.714	n/a	RESPONSE	        M6	1	16	E4	release
269.345	n/a	RESPONSE	        M6	1	17	F4	release
269.348	n/a	RESPONSE	        M6	1	12	C4	press
269.649	n/a	RESPONSE	        M6	1	17	F4	press
269.68	n/a	RESPONSE	        M6	1	12	C4	release
270.041	n/a	RESPONSE	        M6	1	21	A4	press
270.052	n/a	RESPONSE	        M6	1	23	B4	press
270.096	n/a	RESPONSE	        M6	1	17	F4	release
270.146	n/a	RESPONSE	        M6	1	23	B4	release
270.376	n/a	RESPONSE	        M6	1	19	G4	press
270.538	n/a	RESPONSE	        M6	1	21	A4	release
270.719	n/a	RESPONSE	        M6	1	17	F4	press
271.05	n/a	RESPONSE	        M6	1	16	E4	press
271.071	n/a	RESPONSE	        M6	1	19	G4	release
271.092	n/a	RESPONSE	        M6	1	17	F4	release
271.384	n/a	RESPONSE	        M6	1	17	F4	press
271.442	n/a	RESPONSE	        M6	1	16	E4	release
272.344	n/a	RESPONSE	        M6	1	17	F4	release
275.242	6.333	CUE_LISTEN	        M6	2	n/a	n/a	n/a
281.576	7.758	FIXCROSS	n/a	n/a	n/a	n/a	n/a
284.7	n/a	RESPONSE	        M6	2	09	A3	release
289.334	6.308	CUE_PLAYBACK_RIGHT_HAND	        M6	2	n/a	n/a	n/a
289.989	n/a	RESPONSE	        M6	2	12	C4	press
290.402	n/a	RESPONSE	        M6	2	17	F4	press
290.462	n/a	RESPONSE	        M6	2	12	C4	release
290.862	n/a	RESPONSE	        M6	2	21	A4	press
290.904	n/a	RESPONSE	        M6	2	17	F4	release
291.318	n/a	RESPONSE	        M6	2	24	C5	press
291.34	n/a	RESPONSE	        M6	2	23	B4	press
291.466	n/a	RESPONSE	        M6	2	21	A4	release
291.59	n/a	RESPONSE	        M6	2	24	C5	release
292.347	n/a	RESPONSE	        M6	2	22	A#4	press
292.449	n/a	RESPONSE	        M6	2	23	B4	release
292.866	n/a	RESPONSE	        M6	2	21	A4	press
293.32	n/a	RESPONSE	        M6	2	19	G4	press
293.4	n/a	RESPONSE	        M6	2	21	A4	release
294.161	n/a	RESPONSE	        M6	2	19	G4	release
294.222	n/a	RESPONSE	        M6	2	12	C4	press
294.24	n/a	RESPONSE	        M6	2	22	A#4	release
295.642	7.758	FIXCROSS	n/a	n/a	n/a	n/a	n/a
296.017	n/a	RESPONSE	        M6	2	17	F4	press
296.02	n/a	RESPONSE	        M6	2	16	E4	press
296.15	n/a	RESPONSE	        M6	2	12	C4	release
296.271	n/a	RESPONSE	        M6	2	16	E4	release
296.775	n/a	RESPONSE	        M6	2	21	A4	press
296.814	n/a	RESPONSE	        M6	2	19	G4	press
296.855	n/a	RESPONSE	        M6	2	17	F4	release
297.036	n/a	RESPONSE	        M6	2	19	G4	release
297.647	n/a	RESPONSE	        M6	2	23	B4	press
297.65	n/a	RESPONSE	        M6	2	21	A4	release
297.78	n/a	RESPONSE	        M6	2	24	C5	press
298.241	n/a	RESPONSE	        M6	2	24	C5	release
298.762	n/a	RESPONSE	        M6	2	22	A#4	press
298.796	n/a	RESPONSE	        M6	2	23	B4	release
299.466	n/a	RESPONSE	        M6	2	21	A4	press
299.57	n/a	RESPONSE	        M6	2	22	A#4	release
300.299	n/a	RESPONSE	        M6	2	21	A4	release
301.916	n/a	RESPONSE	        M6	2	22	A#4	press
302.361	n/a	RESPONSE	        M6	2	21	A4	press
302.435	n/a	RESPONSE	        M6	2	22	A#4	release
302.838	n/a	RESPONSE	        M6	2	19	G4	press
302.977	n/a	RESPONSE	        M6	2	21	A4	release
303.295	n/a	RESPONSE	        M6	2	17	F4	press
303.387	n/a	RESPONSE	        M6	2	19	G4	release
303.401	6.325	CUE_LISTEN	        M2	1	n/a	n/a	n/a
304.001	n/a	RESPONSE	        M2	1	17	F4	release
306.749	n/a	RESPONSE	        M2	1	24	C5	press
307.14	n/a	RESPONSE	        M2	1	24	C5	release
307.571	n/a	RESPONSE	        M2	1	24	C5	press
309.726	7.758	FIXCROSS	n/a	n/a	n/a	n/a	n/a
311.045	n/a	RESPONSE	        M2	1	24	C5	release
311.41	n/a	RESPONSE	        M2	1	07	G3	press
314.336	n/a	RESPONSE	        M2	1	07	G3	release
315.04	n/a	RESPONSE	        M2	1	24	C5	press
315.944	n/a	RESPONSE	        M2	1	24	C5	release
317.484	6.317	CUE_PLAYBACK_BOTH_HANDS	        M2	1	n/a	n/a	n/a
318.464	n/a	RESPONSE	        M2	1	24	C5	press
318.485	n/a	RESPONSE	        M2	1	00	C3	press
318.487	n/a	RESPONSE	        M2	1	07	G3	press
319.188	n/a	RESPONSE	        M2	1	21	A4	press
319.389	n/a	RESPONSE	        M2	1	24	C5	release
319.551	n/a	RESPONSE	        M2	1	21	A4	release
319.612	n/a	RESPONSE	        M2	1	00	C3	release
320.515	n/a	RESPONSE	        M2	1	24	C5	press
321.949	n/a	RESPONSE	        M2	1	00	C3	press
322.416	n/a	RESPONSE	        M2	1	21	A4	press
322.527	n/a	RESPONSE	        M2	1	24	C5	release
322.755	n/a	RESPONSE	        M2	1	21	A4	release
322.795	n/a	RESPONSE	        M2	1	00	C3	release
322.822	n/a	RESPONSE	        M2	1	07	G3	release
322.876	n/a	RESPONSE	        M2	1	21	A4	press
322.909	n/a	RESPONSE	        M2	1	00	C3	press
322.915	n/a	RESPONSE	        M2	1	07	G3	press
323.346	n/a	RESPONSE	        M2	1	19	G4	press
323.444	n/a	RESPONSE	        M2	1	21	A4	release
323.706	n/a	RESPONSE	        M2	1	00	C3	release
323.717	n/a	RESPONSE	        M2	1	19	G4	release
323.774	n/a	RESPONSE	        M2	1	07	G3	release
323.801	7.758	FIXCROSS	n/a	n/a	n/a	n/a	n/a
323.802	n/a	RESPONSE	        M2	1	17	F4	press
323.847	n/a	RESPONSE	        M2	1	07	G3	press
323.865	n/a	RESPONSE	        M2	1	00	C3	press
324.255	n/a	RESPONSE	        M2	1	17	F4	release
324.266	n/a	RESPONSE	        M2	1	19	G4	press
324.515	n/a	RESPONSE	        M2	1	00	C3	release
324.537	n/a	RESPONSE	        M2	1	19	G4	release
324.6	n/a	RESPONSE	        M2	1	07	G3	release
324.738	n/a	RESPONSE	        M2	1	21	A4	press
324.747	n/a	RESPONSE	        M2	1	00	C3	press
324.754	n/a	RESPONSE	        M2	1	07	G3	press
325.354	n/a	RESPONSE	        M2	1	21	A4	release
325.356	n/a	RESPONSE	        M2	1	00	C3	release
325.447	n/a	RESPONSE	        M2	1	07	G3	release
331.559	6.317	CUE_LISTEN	        M2	2	n/a	n/a	n/a
334.709	n/a	RESPONSE	        M2	2	24	C5	press
335.724	n/a	RESPONSE	        M2	2	24	C5	release
336.118	n/a	RESPONSE	        M2	2	24	C5	press
336.306	n/a	RESPONSE	        M2	2	24	C5	release
337.876	7.758	FIXCROSS	n/a	n/a	n/a	n/a	n/a
345.634	6.325	CUE_PLAYBACK_BOTH_HANDS	        M2	2	n/a	n/a	n/a
350.4	n/a	RESPONSE	        M2	2	07	G3	press
351.925	n/a	RESPONSE	        M2	2	00	C3	press
351.952	n/a	RESPONSE	        M2	2	12	C4	press
351.959	7.758	FIXCROSS	n/a	n/a	n/a	n/a	n/a
352.337	n/a	RESPONSE	        M2	2	14	D4	press
352.422	n/a	RESPONSE	        M2	2	12	C4	release
352.634	n/a	RESPONSE	        M2	2	14	D4	release
352.735	n/a	RESPONSE	        M2	2	16	E4	press
353.125	n/a	RESPONSE	        M2	2	14	D4	press
353.209	n/a	RESPONSE	        M2	2	16	E4	release
353.441	n/a	RESPONSE	        M2	2	14	D4	release
353.444	n/a	RESPONSE	        M2	2	00	C3	release
353.522	n/a	RESPONSE	        M2	2	16	E4	press
353.539	n/a	RESPONSE	        M2	2	00	C3	press
353.94	n/a	RESPONSE	        M2	2	17	F4	press
354.002	n/a	RESPONSE	        M2	2	16	E4	release
354.28	n/a	RESPONSE	        M2	2	00	C3	release
354.296	n/a	RESPONSE	        M2	2	17	F4	release
354.337	n/a	RESPONSE	        M2	2	07	G3	release
354.38	n/a	RESPONSE	        M2	2	19	G4	press
354.394	n/a	RESPONSE	        M2	2	00	C3	press
354.399	n/a	RESPONSE	        M2	2	07	G3	press
354.995	n/a	RESPONSE	        M2	2	19	G4	release
355.056	n/a	RESPONSE	        M2	2	00	C3	release
355.117	n/a	RESPONSE	        M2	2	16	E4	press
355.129	n/a	RESPONSE	        M2	2	00	C3	press
355.49	n/a	RESPONSE	        M2	2	16	E4	release
355.492	n/a	RESPONSE	        M2	2	19	G4	press
355.782	n/a	RESPONSE	        M2	2	19	G4	release
355.824	n/a	RESPONSE	        M2	2	00	C3	release
355.925	n/a	RESPONSE	        M2	2	19	G4	press
355.927	n/a	RESPONSE	        M2	2	00	C3	press
356.28	n/a	RESPONSE	        M2	2	17	F4	press
356.361	n/a	RESPONSE	        M2	2	19	G4	release
356.582	n/a	RESPONSE	        M2	2	17	F4	release
356.604	n/a	RESPONSE	        M2	2	00	C3	release
356.644	n/a	RESPONSE	        M2	2	07	G3	release
356.706	n/a	RESPONSE	        M2	2	16	E4	press
356.716	n/a	RESPONSE	        M2	2	00	C3	press
356.72	n/a	RESPONSE	        M2	2	07	G3	press
357.08	n/a	RESPONSE	        M2	2	14	D4	press
357.25	n/a	RESPONSE	        M2	2	16	E4	release
357.391	n/a	RESPONSE	        M2	2	00	C3	release
357.422	n/a	RESPONSE	        M2	2	14	D4	release
357.504	n/a	RESPONSE	        M2	2	00	C3	press
357.525	n/a	RESPONSE	        M2	2	12	C4	press
358.499	n/a	RESPONSE	        M2	2	00	C3	release
358.507	n/a	RESPONSE	        M2	2	12	C4	release
359.717	6.317	CUE_LISTEN	        M8	1	n/a	n/a	n/a
359.8	n/a	RESPONSE	        M8	1	07	G3	release
366.034	7.767	FIXCROSS	n/a	n/a	n/a	n/a	n/a
373.801	6.308	CUE_PLAYBACK_BOTH_HANDS	        M8	1	n/a	n/a	n/a
376.15	n/a	RESPONSE	        M8	1	16	E4	press
376.439	n/a	RESPONSE	        M8	1	17	F4	press
376.551	n/a	RESPONSE	        M8	1	16	E4	release
376.604	n/a	RESPONSE	        M8	1	19	G4	press
376.802	n/a	RESPONSE	        M8	1	17	F4	release
376.836	n/a	RESPONSE	        M8	1	19	G4	release
377.175	n/a	RESPONSE	        M8	1	16	E4	press
377.196	n/a	RESPONSE	        M8	1	14	D4	press
377.56	n/a	RESPONSE	        M8	1	14	D4	release
377.579	n/a	RESPONSE	        M8	1	16	E4	release
378.13	n/a	RESPONSE	        M8	1	16	E4	press
378.601	n/a	RESPONSE	        M8	1	19	G4	press
378.662	n/a	RESPONSE	        M8	1	16	E4	release
378.954	n/a	RESPONSE	        M8	1	23	B4	press
379.036	n/a	RESPONSE	        M8	1	21	A4	press
379.056	n/a	RESPONSE	        M8	1	19	G4	release
379.347	n/a	RESPONSE	        M8	1	21	A4	release
379.49	n/a	RESPONSE	        M8	1	23	B4	release
379.951	n/a	RESPONSE	        M8	1	23	B4	press
379.954	n/a	RESPONSE	        M8	1	07	G3	press
380.109	7.758	FIXCROSS	n/a	n/a	n/a	n/a	n/a
380.384	n/a	RESPONSE	        M8	1	07	G3	release
380.515	n/a	RESPONSE	        M8	1	23	B4	release
381.056	n/a	RESPONSE	        M8	1	16	E4	press
381.332	n/a	RESPONSE	        M8	1	19	G4	press
381.365	n/a	RESPONSE	        M8	1	16	E4	release
381.612	n/a	RESPONSE	        M8	1	23	B4	press
381.675	n/a	RESPONSE	        M8	1	19	G4	release
382.055	n/a	RESPONSE	        M8	1	23	B4	release
382.155	n/a	RESPONSE	        M8	1	23	B4	press
382.705	n/a	RESPONSE	        M8	1	07	G3	press
382.716	n/a	RESPONSE	        M8	1	18	F#4	press
382.895	n/a	RESPONSE	        M8	1	23	B4	release
383.304	n/a	RESPONSE	        M8	1	14	D4	press
383.869	n/a	RESPONSE	        M8	1	18	F#4	release
384.005	n/a	RESPONSE	        M8	1	14	D4	release
384.229	n/a	RESPONSE	        M8	1	07	G3	release
387.868	6.325	CUE_LISTEN	        M8	2	n/a	n/a	n/a
394.192	7.758	FIXCROSS	n/a	n/a	n/a	n/a	n/a
401.951	6.317	CUE_PLAYBACK_BOTH_HANDS	        M8	2	n/a	n/a	n/a
402.434	n/a	RESPONSE	        M8	2	16	E4	press
402.686	n/a	RESPONSE	        M8	2	19	G4	press
402.78	n/a	RESPONSE	        M8	2	16	E4	release
402.991	n/a	RESPONSE	        M8	2	23	B4	press
403.077	n/a	RESPONSE	        M8	2	19	G4	release
403.119	n/a	RESPONSE	        M8	2	21	A4	press
403.296	n/a	RESPONSE	        M8	2	21	A4	release
403.404	n/a	RESPONSE	        M8	2	23	B4	release
403.522	n/a	RESPONSE	        M8	2	23	B4	press
404.114	n/a	RESPONSE	        M8	2	18	F#4	press
404.119	n/a	RESPONSE	        M8	2	09	A3	press
405.295	n/a	RESPONSE	        M8	2	23	B4	release
405.505	n/a	RESPONSE	        M8	2	21	A4	press
405.516	n/a	RESPONSE	        M8	2	16	E4	press
405.56	n/a	RESPONSE	        M8	2	18	F#4	release
405.781	n/a	RESPONSE	        M8	2	16	E4	release
406.361	n/a	RESPONSE	        M8	2	21	A4	release
406.441	n/a	RESPONSE	        M8	2	09	A3	release
406.534	n/a	RESPONSE	        M8	2	16	E4	press
406.646	n/a	RESPONSE	        M8	2	09	A3	press
407.245	n/a	RESPONSE	        M8	2	09	A3	release
407.276	n/a	RESPONSE	        M8	2	16	E4	release
408.147	n/a	RESPONSE	        M8	2	23	B4	press
408.159	n/a	RESPONSE	        M8	2	10	A#3	press
408.18	n/a	RESPONSE	        M8	2	09	A3	press
408.268	7.758	FIXCROSS	n/a	n/a	n/a	n/a	n/a
408.791	n/a	RESPONSE	        M8	2	10	A#3	release
408.834	n/a	RESPONSE	        M8	2	09	A3	release
409.104	n/a	RESPONSE	        M8	2	21	A4	press
409.396	n/a	RESPONSE	        M8	2	23	B4	release
409.457	n/a	RESPONSE	        M8	2	19	G4	press
409.789	n/a	RESPONSE	        M8	2	18	F#4	press
409.821	n/a	RESPONSE	        M8	2	21	A4	release
409.871	n/a	RESPONSE	        M8	2	19	G4	release
410.162	n/a	RESPONSE	        M8	2	16	E4	press
410.244	n/a	RESPONSE	        M8	2	18	F#4	release
410.735	n/a	RESPONSE	        M8	2	16	E4	release
411.006	n/a	RESPONSE	        M8	2	19	G4	press
411.434	n/a	RESPONSE	        M8	2	18	F#4	press
412.381	n/a	RESPONSE	        M8	2	14	D4	press
412.384	n/a	RESPONSE	        M8	2	16	E4	press
412.45	n/a	RESPONSE	        M8	2	18	F#4	release
412.474	n/a	RESPONSE	        M8	2	19	G4	release
412.917	n/a	RESPONSE	        M8	2	14	D4	release
412.946	n/a	RESPONSE	        M8	2	16	E4	release
413.334	n/a	RESPONSE	        M8	2	11	B3	press
413.846	n/a	RESPONSE	        M8	2	09	A3	press
413.892	n/a	RESPONSE	        M8	2	11	B3	release
414.375	n/a	RESPONSE	        M8	2	05	F3	press
414.394	n/a	RESPONSE	        M8	2	07	G3	press
414.404	n/a	RESPONSE	        M8	2	09	A3	release
414.642	n/a	RESPONSE	        M8	2	07	G3	release
415.144	n/a	RESPONSE	        M8	2	05	F3	release
416.026	6.317	CUE_LISTEN	        M4	1	n/a	n/a	n/a
422.342	7.758	FIXCROSS	n/a	n/a	n/a	n/a	n/a
430.101	6.325	CUE_PLAYBACK_RIGHT_HAND	        M4	1	n/a	n/a	n/a
430.78	n/a	RESPONSE	        M4	1	19	G4	press
431.011	n/a	RESPONSE	        M4	1	18	F#4	press
431.092	n/a	RESPONSE	        M4	1	19	G4	release
431.246	n/a	RESPONSE	        M4	1	19	G4	press
431.317	n/a	RESPONSE	        M4	1	18	F#4	release
432.034	n/a	RESPONSE	        M4	1	23	B4	press
432.137	n/a	RESPONSE	        M4	1	19	G4	release
432.229	n/a	RESPONSE	        M4	1	24	C5	press
432.307	n/a	RESPONSE	        M4	1	23	B4	release
432.5	n/a	RESPONSE	        M4	1	23	B4	press
432.619	n/a	RESPONSE	        M4	1	24	C5	release
433.674	n/a	RESPONSE	        M4	1	23	B4	release
433.676	n/a	RESPONSE	        M4	1	18	F#4	press
433.856	n/a	RESPONSE	        M4	1	16	E4	press
433.922	n/a	RESPONSE	        M4	1	18	F#4	release
434.164	n/a	RESPONSE	        M4	1	18	F#4	press
434.216	n/a	RESPONSE	        M4	1	16	E4	release
435.965	n/a	RESPONSE	        M4	1	18	F#4	release
435.986	n/a	RESPONSE	        M4	1	19	G4	press
436.307	n/a	RESPONSE	        M4	1	21	A4	press
436.399	n/a	RESPONSE	        M4	1	19	G4	release
436.426	7.758	FIXCROSS	n/a	n/a	n/a	n/a	n/a
436.64	n/a	RESPONSE	        M4	1	19	G4	press
436.761	n/a	RESPONSE	        M4	1	21	A4	release
438.712	n/a	RESPONSE	        M4	1	19	G4	release
444.184	6.317	CUE_LISTEN	        M4	2	n/a	n/a	n/a
450.501	7.758	FIXCROSS	n/a	n/a	n/a	n/a	n/a
458.259	6.317	CUE_PLAYBACK_RIGHT_HAND	        M4	2	n/a	n/a	n/a
458.751	n/a	RESPONSE	        M4	2	24	C5	press
459.494	n/a	RESPONSE	        M4	2	21	A4	press
459.555	n/a	RESPONSE	        M4	2	24	C5	release
460.736	n/a	RESPONSE	        M4	2	21	A4	release
461.26	n/a	RESPONSE	        M4	2	24	C5	press
462.037	n/a	RESPONSE	        M4	2	21	A4	press
462.115	n/a	RESPONSE	        M4	2	24	C5	release
463.551	n/a	RESPONSE	        M4	2	21	A4	release
464.576	7.759	FIXCROSS	n/a	n/a	n/a	n/a	n/a
470.046	n/a	RESPONSE	        M4	2	22	A#4	press
470.177	n/a	RESPONSE	        M4	2	21	A4	press
470.189	n/a	RESPONSE	        M4	2	22	A#4	release
470.522	n/a	RESPONSE	        M4	2	21	A4	release
472.334	6.333	CUE_LISTEN	        M3	1	n/a	n/a	n/a
478.668	7.758	FIXCROSS	n/a	n/a	n/a	n/a	n/a
486.426	6.308	CUE_PLAYBACK_RIGHT_HAND	        M3	1	n/a	n/a	n/a
488.109	n/a	RESPONSE	        M3	1	19	G4	press
488.117	n/a	RESPONSE	        M3	1	04	E3	press
488.12	n/a	RESPONSE	        M3	1	07	G3	press
488.122	n/a	RESPONSE	        M3	1	00	C3	press
488.491	n/a	RESPONSE	        M3	1	19	G4	release
488.612	n/a	RESPONSE	        M3	1	16	E4	press
488.914	n/a	RESPONSE	        M3	1	16	E4	release
489.075	n/a	RESPONSE	        M3	1	16	E4	press
489.296	n/a	RESPONSE	        M3	1	00	C3	release
489.319	n/a	RESPONSE	        M3	1	04	E3	release
489.369	n/a	RESPONSE	        M3	1	16	E4	release
489.541	n/a	RESPONSE	        M3	1	17	F4	press
489.544	n/a	RESPONSE	        M3	1	05	F3	press
489.564	n/a	RESPONSE	        M3	1	02	D3	press
489.975	n/a	RESPONSE	        M3	1	17	F4	release
489.977	n/a	RESPONSE	        M3	1	14	D4	press
490.269	n/a	RESPONSE	        M3	1	14	D4	release
490.399	n/a	RESPONSE	        M3	1	14	D4	press
490.641	n/a	RESPONSE	        M3	1	02	D3	release
490.691	n/a	RESPONSE	        M3	1	14	D4	release
490.694	n/a	RESPONSE	        M3	1	05	F3	release
490.886	n/a	RESPONSE	        M3	1	00	C3	press
490.897	n/a	RESPONSE	        M3	1	04	E3	press
490.906	n/a	RESPONSE	        M3	1	12	C4	press
491.157	n/a	RESPONSE	        M3	1	16	E4	press
491.326	n/a	RESPONSE	        M3	1	12	C4	release
491.431	n/a	RESPONSE	        M3	1	17	F4	press
491.46	n/a	RESPONSE	        M3	1	19	G4	press
491.557	n/a	RESPONSE	        M3	1	16	E4	release
491.847	n/a	RESPONSE	        M3	1	17	F4	release
492.355	n/a	RESPONSE	        M3	1	00	C3	release
492.41	n/a	RESPONSE	        M3	1	19	G4	release
492.432	n/a	RESPONSE	        M3	1	04	E3	release
492.734	7.758	FIXCROSS	n/a	n/a	n/a	n/a	n/a
496.986	n/a	RESPONSE	        M3	1	07	G3	release
500.493	6.317	CUE_LISTEN	        M3	2	n/a	n/a	n/a
506.809	7.758	FIXCROSS	n/a	n/a	n/a	n/a	n/a
514.568	6.325	CUE_PLAYBACK_RIGHT_HAND	        M3	2	n/a	n/a	n/a
515.159	n/a	RESPONSE	        M3	2	19	G4	press
515.179	n/a	RESPONSE	        M3	2	04	E3	press
515.182	n/a	RESPONSE	        M3	2	00	C3	press
515.192	n/a	RESPONSE	        M3	2	07	G3	press
515.644	n/a	RESPONSE	        M3	2	19	G4	release
515.714	n/a	RESPONSE	        M3	2	16	E4	press
516.045	n/a	RESPONSE	        M3	2	16	E4	release
516.186	n/a	RESPONSE	        M3	2	16	E4	press
516.338	n/a	RESPONSE	        M3	2	00	C3	release
516.438	n/a	RESPONSE	        M3	2	04	E3	release
516.46	n/a	RESPONSE	        M3	2	16	E4	release
516.661	n/a	RESPONSE	        M3	2	17	F4	press
516.664	n/a	RESPONSE	        M3	2	05	F3	press
516.684	n/a	RESPONSE	        M3	2	02	D3	press
517.065	n/a	RESPONSE	        M3	2	17	F4	release
517.146	n/a	RESPONSE	        M3	2	14	D4	press
517.427	n/a	RESPONSE	        M3	2	14	D4	release
517.621	n/a	RESPONSE	        M3	2	14	D4	press
517.92	n/a	RESPONSE	        M3	2	02	D3	release
517.951	n/a	RESPONSE	        M3	2	14	D4	release
517.953	n/a	RESPONSE	        M3	2	05	F3	release
518.125	n/a	RESPONSE	        M3	2	12	C4	press
518.156	n/a	RESPONSE	        M3	2	04	E3	press
518.167	n/a	RESPONSE	        M3	2	00	C3	press
518.398	n/a	RESPONSE	        M3	2	16	E4	press
518.519	n/a	RESPONSE	        M3	2	12	C4	release
518.73	n/a	RESPONSE	        M3	2	12	C4	press
518.922	n/a	RESPONSE	        M3	2	16	E4	release
520.444	n/a	RESPONSE	        M3	2	12	C4	release
520.485	n/a	RESPONSE	        M3	2	00	C3	release
520.616	n/a	RESPONSE	        M3	2	04	E3	release
520.619	n/a	RESPONSE	        M3	2	07	G3	release
520.893	7.758	FIXCROSS	n/a	n/a	n/a	n/a	n/a
528.651	6.317	CUE_LISTEN	        M5	1	n/a	n/a	n/a
534.968	7.758	FIXCROSS	n/a	n/a	n/a	n/a	n/a
542.726	6.325	CUE_PLAYBACK_BOTH_HANDS	        M5	1	n/a	n/a	n/a
543.661	n/a	RESPONSE	        M5	1	07	G3	press
543.686	n/a	RESPONSE	        M5	1	22	A#4	press
544.239	n/a	RESPONSE	        M5	1	21	A4	press
544.742	n/a	RESPONSE	        M5	1	19	G4	press
544.761	n/a	RESPONSE	        M5	1	21	A4	release
544.764	n/a	RESPONSE	        M5	1	22	A#4	release
545.311	n/a	RESPONSE	        M5	1	21	A4	press
545.314	n/a	RESPONSE	        M5	1	05	F3	press
545.334	n/a	RESPONSE	        M5	1	19	G4	release
545.395	n/a	RESPONSE	        M5	1	07	G3	release
545.987	n/a	RESPONSE	        M5	1	12	C4	press
546.087	n/a	RESPONSE	        M5	1	21	A4	release
546.428	n/a	RESPONSE	        M5	1	12	C4	release
546.68	n/a	RESPONSE	        M5	1	12	C4	press
547.071	n/a	RESPONSE	        M5	1	12	C4	release
547.682	n/a	RESPONSE	        M5	1	11	B3	press
548.034	n/a	RESPONSE	        M5	1	11	B3	release
548.825	n/a	RESPONSE	        M5	1	12	C4	press
548.846	n/a	RESPONSE	        M5	1	14	D4	press
549.051	7.758	FIXCROSS	n/a	n/a	n/a	n/a	n/a
549.157	n/a	RESPONSE	        M5	1	14	D4	release
549.178	n/a	RESPONSE	        M5	1	12	C4	release
549.402	n/a	RESPONSE	        M5	1	14	D4	press
549.852	n/a	RESPONSE	        M5	1	14	D4	release
550.464	n/a	RESPONSE	        M5	1	17	F4	press
550.475	n/a	RESPONSE	        M5	1	03	D#3	press
550.536	n/a	RESPONSE	        M5	1	05	F3	release
552.259	n/a	RESPONSE	        M5	1	07	G3	press
552.38	n/a	RESPONSE	        M5	1	17	F4	release
552.877	n/a	RESPONSE	        M5	1	09	A3	press
553.271	n/a	RESPONSE	        M5	1	07	G3	release
553.67	n/a	RESPONSE	        M5	1	10	A#3	press
553.782	n/a	RESPONSE	        M5	1	09	A3	release
554.15	n/a	RESPONSE	        M5	1	12	C4	press
554.164	n/a	RESPONSE	        M5	1	10	A#3	release
555.961	n/a	RESPONSE	        M5	1	02	D3	press
556.042	n/a	RESPONSE	        M5	1	03	D#3	release
556.81	6.317	CUE_LISTEN	        M5	2	n/a	n/a	n/a
563.126	7.758	FIXCROSS	n/a	n/a	n/a	n/a	n/a
564.657	n/a	RESPONSE	        M5	2	02	D3	release
568.726	n/a	RESPONSE	        M5	2	12	C4	release
570.884	6.325	CUE_PLAYBACK_BOTH_HANDS	        M5	2	n/a	n/a	n/a
573.308	n/a	RESPONSE	        M5	2	15	D#4	press
573.311	n/a	RESPONSE	        M5	2	10	A#3	press
573.318	n/a	RESPONSE	        M5	2	07	G3	press
573.856	n/a	RESPONSE	        M5	2	14	D4	press
574.275	n/a	RESPONSE	        M5	2	14	D4	release
574.285	n/a	RESPONSE	        M5	2	15	D#4	release
574.458	n/a	RESPONSE	        M5	2	10	A#3	release
574.844	n/a	RESPONSE	        M5	2	07	G3	release
575.617	n/a	RESPONSE	        M5	2	15	D#4	press
575.637	n/a	RESPONSE	        M5	2	10	A#3	press
575.64	n/a	RESPONSE	        M5	2	07	G3	press
576.15	n/a	RESPONSE	        M5	2	15	D#4	release
576.301	n/a	RESPONSE	        M5	2	17	F4	press
576.614	n/a	RESPONSE	        M5	2	15	D#4	press
576.704	n/a	RESPONSE	        M5	2	17	F4	release
576.995	n/a	RESPONSE	        M5	2	14	D4	press
577.007	n/a	RESPONSE	        M5	2	09	A3	press
577.058	n/a	RESPONSE	        M5	2	10	A#3	release
577.21	7.758	FIXCROSS	n/a	n/a	n/a	n/a	n/a
577.298	n/a	RESPONSE	        M5	2	12	C4	press
577.35	n/a	RESPONSE	        M5	2	14	D4	release
577.494	n/a	RESPONSE	        M5	2	15	D#4	release
577.682	n/a	RESPONSE	        M5	2	14	D4	press
577.686	n/a	RESPONSE	        M5	2	10	A#3	press
577.717	n/a	RESPONSE	        M5	2	12	C4	release
577.726	n/a	RESPONSE	        M5	2	09	A3	release
577.787	n/a	RESPONSE	        M5	2	07	G3	release
578.628	n/a	RESPONSE	        M5	2	07	G3	press
578.64	n/a	RESPONSE	        M5	2	15	D#4	press
578.731	n/a	RESPONSE	        M5	2	10	A#3	release
578.734	n/a	RESPONSE	        M5	2	14	D4	release
578.984	n/a	RESPONSE	        M5	2	14	D4	press
579.375	n/a	RESPONSE	        M5	2	12	C4	press
579.42	n/a	RESPONSE	        M5	2	14	D4	release
579.428	n/a	RESPONSE	        M5	2	15	D#4	release
579.44	n/a	RESPONSE	        M5	2	05	F3	press
579.521	n/a	RESPONSE	        M5	2	07	G3	release
579.832	n/a	RESPONSE	        M5	2	11	B3	press
580.245	n/a	RESPONSE	        M5	2	11	B3	release
580.485	n/a	RESPONSE	        M5	2	12	C4	release
580.717	n/a	RESPONSE	        M5	2	05	F3	release
581.237	n/a	RESPONSE	        M5	2	12	C4	press
581.294	n/a	RESPONSE	        M5	2	11	B3	press
581.331	n/a	RESPONSE	        M5	2	09	A3	press
581.761	n/a	RESPONSE	        M5	2	09	A3	release
582.445	n/a	RESPONSE	        M5	2	10	A#3	press
582.458	n/a	RESPONSE	        M5	2	15	D#4	press
582.494	n/a	RESPONSE	        M5	2	12	C4	release
582.496	n/a	RESPONSE	        M5	2	11	B3	release
584.346	n/a	RESPONSE	        M5	2	04	E3	press
584.365	n/a	RESPONSE	        M5	2	12	C4	press
584.394	n/a	RESPONSE	        M5	2	10	A#3	release
584.439	n/a	RESPONSE	        M5	2	15	D#4	release
584.968	6.317	CUE_LISTEN	        M1	1	n/a	n/a	n/a
584.976	n/a	RESPONSE	        M1	1	12	C4	release
585.128	n/a	RESPONSE	        M1	1	04	E3	release
591.284	7.758	FIXCROSS	n/a	n/a	n/a	n/a	n/a
599.043	6.317	CUE_PLAYBACK_RIGHT_HAND	        M1	1	n/a	n/a	n/a
599.554	n/a	RESPONSE	        M1	1	21	A4	press
600.182	n/a	RESPONSE	        M1	1	21	A4	release
600.345	n/a	RESPONSE	        M1	1	21	A4	press
600.635	n/a	RESPONSE	        M1	1	21	A4	release
600.746	n/a	RESPONSE	        M1	1	21	A4	press
601.314	n/a	RESPONSE	        M1	1	21	A4	release
601.484	n/a	RESPONSE	        M1	1	21	A4	press
601.774	n/a	RESPONSE	        M1	1	21	A4	release
601.875	n/a	RESPONSE	        M1	1	21	A4	press
602.097	n/a	RESPONSE	        M1	1	21	A4	release
602.251	n/a	RESPONSE	        M1	1	21	A4	press
602.784	n/a	RESPONSE	        M1	1	21	A4	release
602.95	n/a	RESPONSE	        M1	1	21	A4	press
603.334	n/a	RESPONSE	        M1	1	21	A4	release
603.352	n/a	RESPONSE	        M1	1	24	C5	press
603.694	n/a	RESPONSE	        M1	1	17	F4	press
604.02	n/a	RESPONSE	        M1	1	24	C5	release
604.094	n/a	RESPONSE	        M1	1	19	G4	press
604.164	n/a	RESPONSE	        M1	1	17	F4	release
604.432	n/a	RESPONSE	        M1	1	19	G4	release
604.481	n/a	RESPONSE	        M1	1	21	A4	press
605.36	7.758	FIXCROSS	n/a	n/a	n/a	n/a	n/a
605.502	n/a	RESPONSE	        M1	1	21	A4	release
611.882	n/a	RESPONSE	        M1	1	07	G3	press
613.118	6.317	CUE_LISTEN	        M1	2	n/a	n/a	n/a
613.671	n/a	RESPONSE	        M1	2	07	G3	release
619.435	7.758	FIXCROSS	n/a	n/a	n/a	n/a	n/a
627.193	6.325	CUE_PLAYBACK_RIGHT_HAND	        M1	2	n/a	n/a	n/a
627.854	n/a	RESPONSE	        M1	2	22	A#4	press
628.125	n/a	RESPONSE	        M1	2	22	A#4	release
628.218	n/a	RESPONSE	        M1	2	22	A#4	press
628.497	n/a	RESPONSE	        M1	2	22	A#4	release
628.61	n/a	RESPONSE	        M1	2	22	A#4	press
628.85	n/a	RESPONSE	        M1	2	22	A#4	release
628.984	n/a	RESPONSE	        M1	2	22	A#4	press
629.222	n/a	RESPONSE	        M1	2	22	A#4	release
629.365	n/a	RESPONSE	        M1	2	22	A#4	press
629.697	n/a	RESPONSE	        M1	2	22	A#4	release
629.758	n/a	RESPONSE	        M1	2	21	A4	press
630.022	n/a	RESPONSE	        M1	2	21	A4	release
630.151	n/a	RESPONSE	        M1	2	21	A4	press
630.382	n/a	RESPONSE	        M1	2	21	A4	release
630.524	n/a	RESPONSE	        M1	2	21	A4	press
630.845	n/a	RESPONSE	        M1	2	21	A4	release
630.958	n/a	RESPONSE	        M1	2	21	A4	press
631.342	n/a	RESPONSE	        M1	2	21	A4	release
631.961	n/a	RESPONSE	        M1	2	19	G4	press
632.312	n/a	RESPONSE	        M1	2	19	G4	release
633.18	n/a	RESPONSE	        M1	2	19	G4	press
633.518	7.758	FIXCROSS	n/a	n/a	n/a	n/a	n/a
633.764	n/a	RESPONSE	        M1	2	19	G4	release
633.934	n/a	RESPONSE	        M1	2	21	A4	press
634.79	n/a	RESPONSE	        M1	2	21	A4	release
634.866	n/a	RESPONSE	        M1	2	16	E4	press
635.362	n/a	RESPONSE	        M1	2	16	E4	release
636.104	n/a	RESPONSE	        M1	2	24	C5	press
636.955	n/a	RESPONSE	        M1	2	24	C5	release
641.276	6.317	CUE_LISTEN	        M7	1	n/a	n/a	n/a
647.593	7.758	FIXCROSS	n/a	n/a	n/a	n/a	n/a
655.351	6.317	CUE_PLAYBACK_BOTH_HANDS	        M7	1	n/a	n/a	n/a
656.457	n/a	RESPONSE	        M7	1	12	C4	press
656.46	n/a	RESPONSE	        M7	1	00	C3	press
656.84	n/a	RESPONSE	        M7	1	14	D4	press
656.901	n/a	RESPONSE	        M7	1	07	G3	press
656.973	n/a	RESPONSE	        M7	1	12	C4	release
657.404	n/a	RESPONSE	        M7	1	14	D4	release
657.445	n/a	RESPONSE	        M7	1	00	C3	release
657.556	n/a	RESPONSE	        M7	1	07	G3	release
658.707	n/a	RESPONSE	        M7	1	00	C3	press
658.71	n/a	RESPONSE	        M7	1	12	C4	press
659.13	n/a	RESPONSE	        M7	1	14	D4	press
659.134	n/a	RESPONSE	        M7	1	07	G3	press
659.212	n/a	RESPONSE	        M7	1	12	C4	release
659.535	n/a	RESPONSE	        M7	1	16	E4	press
659.537	n/a	RESPONSE	        M7	1	04	E3	press
659.54	n/a	RESPONSE	        M7	1	14	D4	release
659.648	n/a	RESPONSE	        M7	1	07	G3	release
659.93	n/a	RESPONSE	        M7	1	12	C4	press
659.961	n/a	RESPONSE	        M7	1	07	G3	press
660.115	n/a	RESPONSE	        M7	1	00	C3	release
660.164	n/a	RESPONSE	        M7	1	16	E4	release
660.236	n/a	RESPONSE	        M7	1	12	C4	release
660.276	n/a	RESPONSE	        M7	1	04	E3	release
660.357	n/a	RESPONSE	        M7	1	12	C4	press
660.368	n/a	RESPONSE	        M7	1	00	C3	press
660.5	n/a	RESPONSE	        M7	1	07	G3	release
660.774	n/a	RESPONSE	        M7	1	14	D4	press
660.782	n/a	RESPONSE	        M7	1	07	G3	press
660.824	n/a	RESPONSE	        M7	1	12	C4	release
661.147	n/a	RESPONSE	        M7	1	00	C3	release
661.156	n/a	RESPONSE	        M7	1	14	D4	release
661.187	n/a	RESPONSE	        M7	1	16	E4	press
661.19	n/a	RESPONSE	        M7	1	04	E3	press
661.24	n/a	RESPONSE	        M7	1	07	G3	release
661.584	n/a	RESPONSE	        M7	1	12	C4	press
661.594	n/a	RESPONSE	        M7	1	07	G3	press
661.668	7.758	FIXCROSS	n/a	n/a	n/a	n/a	n/a
661.725	n/a	RESPONSE	        M7	1	16	E4	release
661.916	n/a	RESPONSE	        M7	1	12	C4	release
661.96	n/a	RESPONSE	        M7	1	04	E3	release
661.965	n/a	RESPONSE	        M7	1	07	G3	release
661.992	n/a	RESPONSE	        M7	1	16	E4	press
662.005	n/a	RESPONSE	        M7	1	00	C3	press
662.417	n/a	RESPONSE	        M7	1	17	F4	press
662.42	n/a	RESPONSE	        M7	1	07	G3	press
662.467	n/a	RESPONSE	        M7	1	16	E4	release
662.667	n/a	RESPONSE	        M7	1	00	C3	release
662.822	n/a	RESPONSE	        M7	1	19	G4	press
662.832	n/a	RESPONSE	        M7	1	04	E3	press
662.841	n/a	RESPONSE	        M7	1	07	G3	release
663.031	n/a	RESPONSE	        M7	1	17	F4	release
663.23	n/a	RESPONSE	        M7	1	19	G4	release
663.242	n/a	RESPONSE	        M7	1	07	G3	press
663.612	n/a	RESPONSE	        M7	1	04	E3	release
663.637	n/a	RESPONSE	        M7	1	16	E4	press
663.655	n/a	RESPONSE	        M7	1	00	C3	press
663.717	n/a	RESPONSE	        M7	1	07	G3	release
663.732	n/a	RESPONSE	        M7	1	02	D3	press
664.021	n/a	RESPONSE	        M7	1	16	E4	release
664.056	n/a	RESPONSE	        M7	1	07	G3	press
664.058	n/a	RESPONSE	        M7	1	17	F4	press
664.167	n/a	RESPONSE	        M7	1	02	D3	release
664.195	n/a	RESPONSE	        M7	1	00	C3	release
664.441	n/a	RESPONSE	        M7	1	19	G4	press
664.466	n/a	RESPONSE	        M7	1	04	E3	press
664.571	n/a	RESPONSE	        M7	1	07	G3	release
664.626	n/a	RESPONSE	        M7	1	17	F4	release
664.858	n/a	RESPONSE	        M7	1	07	G3	press
664.862	n/a	RESPONSE	        M7	1	19	G4	release
665.422	n/a	RESPONSE	        M7	1	07	G3	release
669.426	6.325	CUE_LISTEN	        M7	2	n/a	n/a	n/a
675.751	7.758	FIXCROSS	n/a	n/a	n/a	n/a	n/a
683.51	6.317	CUE_PLAYBACK_BOTH_HANDS	        M7	2	n/a	n/a	n/a
684.142	n/a	RESPONSE	        M7	2	19	G4	press
684.147	n/a	RESPONSE	        M7	2	00	C3	press
684.468	n/a	RESPONSE	        M7	2	21	A4	press
684.67	n/a	RESPONSE	        M7	2	19	G4	release
684.782	n/a	RESPONSE	        M7	2	04	E3	release
684.813	n/a	RESPONSE	        M7	2	21	A4	release
684.833	n/a	RESPONSE	        M7	2	19	G4	press
684.846	n/a	RESPONSE	        M7	2	07	G3	press
685.221	n/a	RESPONSE	        M7	2	17	F4	press
685.232	n/a	RESPONSE	        M7	2	00	C3	release
685.276	n/a	RESPONSE	        M7	2	04	E3	press
685.466	n/a	RESPONSE	        M7	2	07	G3	release
685.586	n/a	RESPONSE	        M7	2	19	G4	release
685.637	n/a	RESPONSE	        M7	2	16	E4	press
685.708	n/a	RESPONSE	        M7	2	17	F4	release
686.28	n/a	RESPONSE	        M7	2	07	G3	press
686.282	n/a	RESPONSE	        M7	2	12	C4	press
686.352	n/a	RESPONSE	        M7	2	16	E4	release
686.554	n/a	RESPONSE	        M7	2	19	G4	press
686.785	n/a	RESPONSE	        M7	2	04	E3	release
686.788	n/a	RESPONSE	        M7	2	12	C4	release
686.838	n/a	RESPONSE	        M7	2	19	G4	release
686.868	n/a	RESPONSE	        M7	2	07	G3	release
686.932	n/a	RESPONSE	        M7	2	00	C3	press
686.941	n/a	RESPONSE	        M7	2	19	G4	press
687.215	n/a	RESPONSE	        M7	2	21	A4	press
687.293	n/a	RESPONSE	        M7	2	19	G4	release
687.515	n/a	RESPONSE	        M7	2	19	G4	press
687.526	n/a	RESPONSE	        M7	2	21	A4	release
687.557	n/a	RESPONSE	        M7	2	07	G3	press
687.868	n/a	RESPONSE	        M7	2	17	F4	press
688.062	n/a	RESPONSE	        M7	2	19	G4	release
688.121	n/a	RESPONSE	        M7	2	00	C3	release
688.132	n/a	RESPONSE	        M7	2	17	F4	release
688.186	n/a	RESPONSE	        M7	2	16	E4	press
688.195	n/a	RESPONSE	        M7	2	07	G3	release
688.207	n/a	RESPONSE	        M7	2	04	E3	press
688.78	n/a	RESPONSE	        M7	2	12	C4	press
688.782	n/a	RESPONSE	        M7	2	07	G3	press
688.821	n/a	RESPONSE	        M7	2	16	E4	release
689.222	n/a	RESPONSE	        M7	2	04	E3	release
689.225	n/a	RESPONSE	        M7	2	12	C4	release
689.276	n/a	RESPONSE	        M7	2	07	G3	release
689.376	n/a	RESPONSE	        M7	2	00	C3	press
689.378	n/a	RESPONSE	        M7	2	12	C4	press
689.826	7.758	FIXCROSS	n/a	n/a	n/a	n/a	n/a
689.883	n/a	RESPONSE	        M7	2	12	C4	release
689.943	n/a	RESPONSE	        M7	2	07	G3	press
689.973	n/a	RESPONSE	        M7	2	12	C4	press
690.215	n/a	RESPONSE	        M7	2	12	C4	release
690.396	n/a	RESPONSE	        M7	2	00	C3	release
690.467	n/a	RESPONSE	        M7	2	07	G3	release
690.588	n/a	RESPONSE	        M7	2	00	C3	press
690.612	n/a	RESPONSE	        M7	2	12	C4	press
691.412	n/a	RESPONSE	        M7	2	12	C4	release
691.448	n/a	RESPONSE	        M7	2	00	C3	release
691.718	n/a	RESPONSE	        M7	2	12	C4	press
691.732	n/a	RESPONSE	        M7	2	00	C3	press
691.782	n/a	RESPONSE	        M7	2	02	D3	press
692.29	n/a	RESPONSE	        M7	2	07	G3	press
692.381	n/a	RESPONSE	        M7	2	12	C4	release
692.423	n/a	RESPONSE	        M7	2	02	D3	release
692.531	n/a	RESPONSE	        M7	2	00	C3	release
692.862	n/a	RESPONSE	        M7	2	00	C3	press
692.881	n/a	RESPONSE	        M7	2	12	C4	press
692.883	n/a	RESPONSE	        M7	2	07	G3	release
693.731	n/a	RESPONSE	        M7	2	12	C4	release
693.802	n/a	RESPONSE	        M7	2	00	C3	release
697.585	6.317	CUE_LISTEN	        M4	1	n/a	n/a	n/a
700.967	n/a	RESPONSE	        M4	1	11	B3	press
701.111	n/a	RESPONSE	        M4	1	11	B3	release
703.901	7.758	FIXCROSS	n/a	n/a	n/a	n/a	n/a
706.407	n/a	RESPONSE	        M4	1	04	E3	press
706.567	n/a	RESPONSE	        M4	1	04	E3	release
707.638	n/a	RESPONSE	        M4	1	04	E3	press
711.66	6.325	CUE_PLAYBACK_BOTH_HANDS	        M4	1	n/a	n/a	n/a
713.265	n/a	RESPONSE	        M4	1	14	D4	press
713.811	n/a	RESPONSE	        M4	1	14	D4	release
714.043	n/a	RESPONSE	        M4	1	04	E3	release
714.417	n/a	RESPONSE	        M4	1	04	E3	press
714.425	n/a	RESPONSE	        M4	1	14	D4	press
715.215	n/a	RESPONSE	        M4	1	14	D4	release
716.736	n/a	RESPONSE	        M4	1	04	E3	release
717.067	n/a	RESPONSE	        M4	1	04	E3	press
717.098	n/a	RESPONSE	        M4	1	14	D4	press
717.71	n/a	RESPONSE	        M4	1	11	B3	press
717.732	n/a	RESPONSE	        M4	1	19	G4	press
717.902	n/a	RESPONSE	        M4	1	14	D4	release
717.985	7.758	FIXCROSS	n/a	n/a	n/a	n/a	n/a
718.003	n/a	RESPONSE	        M4	1	04	E3	release
718.146	n/a	RESPONSE	        M4	1	18	F#4	press
718.326	n/a	RESPONSE	        M4	1	19	G4	release
718.577	n/a	RESPONSE	        M4	1	19	G4	press
718.588	n/a	RESPONSE	        M4	1	09	A3	press
718.64	n/a	RESPONSE	        M4	1	14	D4	press
718.653	n/a	RESPONSE	        M4	1	18	F#4	release
718.715	n/a	RESPONSE	        M4	1	11	B3	release
719.383	n/a	RESPONSE	        M4	1	23	B4	press
719.456	n/a	RESPONSE	        M4	1	19	G4	release
719.797	n/a	RESPONSE	        M4	1	24	C5	press
719.878	n/a	RESPONSE	        M4	1	23	B4	release
720.04	n/a	RESPONSE	        M4	1	14	D4	release
720.161	n/a	RESPONSE	        M4	1	09	A3	release
720.212	n/a	RESPONSE	        M4	1	23	B4	press
720.215	n/a	RESPONSE	        M4	1	04	E3	press
720.245	n/a	RESPONSE	        M4	1	14	D4	press
720.278	n/a	RESPONSE	        M4	1	24	C5	release
721.047	n/a	RESPONSE	        M4	1	11	B3	press
721.118	n/a	RESPONSE	        M4	1	04	E3	release
721.2	n/a	RESPONSE	        M4	1	14	D4	release
721.797	n/a	RESPONSE	        M4	1	14	D4	press
721.8	n/a	RESPONSE	        M4	1	07	G3	press
721.852	n/a	RESPONSE	        M4	1	11	B3	release
722.59	n/a	RESPONSE	        M4	1	11	B3	press
722.647	n/a	RESPONSE	        M4	1	14	D4	release
722.663	n/a	RESPONSE	        M4	1	23	B4	release
722.751	n/a	RESPONSE	        M4	1	07	G3	release
723.368	n/a	RESPONSE	        M4	1	04	E3	press
723.377	n/a	RESPONSE	        M4	1	14	D4	press
723.403	n/a	RESPONSE	        M4	1	18	F#4	press
723.421	n/a	RESPONSE	        M4	1	11	B3	release
724.127	n/a	RESPONSE	        M4	1	16	E4	press
724.143	n/a	RESPONSE	        M4	1	18	F#4	release
724.285	n/a	RESPONSE	        M4	1	11	B3	press
724.31	n/a	RESPONSE	        M4	1	14	D4	release
724.501	n/a	RESPONSE	        M4	1	16	E4	release
724.545	n/a	RESPONSE	        M4	1	04	E3	release
724.617	n/a	RESPONSE	        M4	1	11	B3	release
725.743	6.317	CUE_LISTEN	        M4	2	n/a	n/a	n/a
729.397	n/a	RESPONSE	        M4	2	05	F3	press
730.1	n/a	RESPONSE	        M4	2	05	F3	release
732.06	7.759	FIXCROSS	n/a	n/a	n/a	n/a	n/a
739.818	6.317	CUE_PLAYBACK_BOTH_HANDS	        M4	2	n/a	n/a	n/a
741.76	n/a	RESPONSE	        M4	2	05	F3	press
741.767	n/a	RESPONSE	        M4	2	16	E4	press
741.78	n/a	RESPONSE	        M4	2	04	E3	press
741.783	n/a	RESPONSE	        M4	2	24	C5	press
742.037	n/a	RESPONSE	        M4	2	04	E3	release
742.368	n/a	RESPONSE	        M4	2	24	C5	release
742.52	n/a	RESPONSE	        M4	2	16	E4	release
742.598	n/a	RESPONSE	        M4	2	05	F3	release
743.026	n/a	RESPONSE	        M4	2	24	C5	press
743.031	n/a	RESPONSE	        M4	2	05	F3	press
743.041	n/a	RESPONSE	        M4	2	16	E4	press
744.095	n/a	RESPONSE	        M4	2	11	B3	press
744.147	n/a	RESPONSE	        M4	2	16	E4	release
745.01	n/a	RESPONSE	        M4	2	24	C5	release
745.571	n/a	RESPONSE	        M4	2	21	A4	press
745.612	n/a	RESPONSE	        M4	2	09	A3	press
745.621	n/a	RESPONSE	        M4	2	11	B3	release
746.135	7.758	FIXCROSS	n/a	n/a	n/a	n/a	n/a
746.402	n/a	RESPONSE	        M4	2	05	F3	release
746.553	n/a	RESPONSE	        M4	2	16	E4	press
746.595	n/a	RESPONSE	        M4	2	05	F3	press
746.606	n/a	RESPONSE	        M4	2	09	A3	release
747.57	n/a	RESPONSE	        M4	2	05	F3	release
747.651	n/a	RESPONSE	        M4	2	16	E4	release
747.73	n/a	RESPONSE	        M4	2	21	A4	release
753.893	6.325	CUE_LISTEN	        M2	1	n/a	n/a	n/a
760.218	7.758	FIXCROSS	n/a	n/a	n/a	n/a	n/a
767.977	6.317	CUE_PLAYBACK_RIGHT_HAND	        M2	1	n/a	n/a	n/a
768.532	n/a	RESPONSE	        M2	1	24	C5	press
768.945	n/a	RESPONSE	        M2	1	19	G4	press
769.025	n/a	RESPONSE	        M2	1	24	C5	release
769.257	n/a	RESPONSE	        M2	1	19	G4	release
769.347	n/a	RESPONSE	        M2	1	19	G4	press
769.62	n/a	RESPONSE	        M2	1	19	G4	release
769.741	n/a	RESPONSE	        M2	1	17	F4	press
770.103	n/a	RESPONSE	        M2	1	17	F4	release
770.156	n/a	RESPONSE	        M2	1	16	E4	press
770.516	n/a	RESPONSE	        M2	1	17	F4	press
770.526	n/a	RESPONSE	        M2	1	16	E4	release
770.897	n/a	RESPONSE	        M2	1	17	F4	release
770.92	n/a	RESPONSE	        M2	1	19	G4	press
771.633	n/a	RESPONSE	        M2	1	19	G4	release
771.69	n/a	RESPONSE	        M2	1	24	C5	press
772.097	n/a	RESPONSE	        M2	1	19	G4	press
772.208	n/a	RESPONSE	        M2	1	24	C5	release
772.441	n/a	RESPONSE	        M2	1	19	G4	release
772.503	n/a	RESPONSE	        M2	1	19	G4	press
772.865	n/a	RESPONSE	        M2	1	19	G4	release
772.867	n/a	RESPONSE	        M2	1	17	F4	press
773.232	n/a	RESPONSE	        M2	1	17	F4	release
773.286	n/a	RESPONSE	        M2	1	16	E4	press
773.64	n/a	RESPONSE	        M2	1	14	D4	press
773.771	n/a	RESPONSE	        M2	1	16	E4	release
774.052	n/a	RESPONSE	        M2	1	12	C4	press
774.083	n/a	RESPONSE	        M2	1	14	D4	release
774.293	7.758	FIXCROSS	n/a	n/a	n/a	n/a	n/a
774.851	n/a	RESPONSE	        M2	1	12	C4	release
782.052	6.325	CUE_LISTEN	        M2	2	n/a	n/a	n/a
788.377	7.758	FIXCROSS	n/a	n/a	n/a	n/a	n/a
796.135	6.317	CUE_PLAYBACK_RIGHT_HAND	        M2	2	n/a	n/a	n/a
796.938	n/a	RESPONSE	        M2	2	12	C4	press
797.28	n/a	RESPONSE	        M2	2	14	D4	press
797.643	n/a	RESPONSE	        M2	2	12	C4	release
797.672	n/a	RESPONSE	        M2	2	16	E4	press
797.733	n/a	RESPONSE	        M2	2	14	D4	release
798.037	n/a	RESPONSE	        M2	2	14	D4	press
798.078	n/a	RESPONSE	        M2	2	16	E4	release
798.407	n/a	RESPONSE	        M2	2	16	E4	press
798.498	n/a	RESPONSE	        M2	2	14	D4	release
798.79	n/a	RESPONSE	        M2	2	17	F4	press
798.931	n/a	RESPONSE	        M2	2	16	E4	release
799.132	n/a	RESPONSE	        M2	2	19	G4	press
799.537	n/a	RESPONSE	        M2	2	17	F4	release
799.837	n/a	RESPONSE	        M2	2	16	E4	press
799.927	n/a	RESPONSE	        M2	2	19	G4	release
799.938	n/a	RESPONSE	        M2	2	14	D4	press
800.1	n/a	RESPONSE	        M2	2	14	D4	release
800.271	n/a	RESPONSE	        M2	2	16	E4	release
800.632	n/a	RESPONSE	        M2	2	16	E4	press
801.043	n/a	RESPONSE	        M2	2	19	G4	press
801.046	n/a	RESPONSE	        M2	2	16	E4	release
801.37	n/a	RESPONSE	        M2	2	19	G4	release
801.471	n/a	RESPONSE	        M2	2	19	G4	press
801.743	n/a	RESPONSE	        M2	2	19	G4	release
801.853	n/a	RESPONSE	        M2	2	17	F4	press
802.273	n/a	RESPONSE	        M2	2	16	E4	press
802.373	n/a	RESPONSE	        M2	2	17	F4	release
802.452	7.758	FIXCROSS	n/a	n/a	n/a	n/a	n/a
802.7	n/a	RESPONSE	        M2	2	14	D4	press
802.732	n/a	RESPONSE	        M2	2	16	E4	release
803.096	n/a	RESPONSE	        M2	2	12	C4	press
803.118	n/a	RESPONSE	        M2	2	14	D4	release
803.83	n/a	RESPONSE	        M2	2	12	C4	release
810.21	6.325	CUE_LISTEN	        M8	1	n/a	n/a	n/a
816.535	7.758	FIXCROSS	n/a	n/a	n/a	n/a	n/a
824.293	6.317	CUE_PLAYBACK_RIGHT_HAND	        M8	1	n/a	n/a	n/a
824.95	n/a	RESPONSE	        M8	1	16	E4	press
825.281	n/a	RESPONSE	        M8	1	17	F4	press
825.362	n/a	RESPONSE	        M8	1	19	G4	press
825.426	n/a	RESPONSE	        M8	1	16	E4	release
825.455	n/a	RESPONSE	        M8	1	17	F4	release
825.756	n/a	RESPONSE	        M8	1	19	G4	release
826.058	n/a	RESPONSE	        M8	1	16	E4	press
826.078	n/a	RESPONSE	        M8	1	14	D4	press
826.25	n/a	RESPONSE	        M8	1	14	D4	release
826.341	n/a	RESPONSE	        M8	1	16	E4	release
826.722	n/a	RESPONSE	        M8	1	16	E4	press
826.926	n/a	RESPONSE	        M8	1	19	G4	press
827.035	n/a	RESPONSE	        M8	1	16	E4	release
827.236	n/a	RESPONSE	        M8	1	23	B4	press
827.247	n/a	RESPONSE	        M8	1	21	A4	press
827.358	n/a	RESPONSE	        M8	1	19	G4	release
827.51	n/a	RESPONSE	        M8	1	21	A4	release
827.611	n/a	RESPONSE	        M8	1	23	B4	release
827.752	n/a	RESPONSE	        M8	1	23	B4	press
828.243	n/a	RESPONSE	        M8	1	09	A3	press
828.265	n/a	RESPONSE	        M8	1	18	F#4	press
828.366	n/a	RESPONSE	        M8	1	23	B4	release
828.84	n/a	RESPONSE	        M8	1	12	C4	press
829.308	n/a	RESPONSE	        M8	1	09	A3	release
829.39	n/a	RESPONSE	        M8	1	18	F#4	release
829.472	n/a	RESPONSE	        M8	1	12	C4	release
830.61	7.759	FIXCROSS	n/a	n/a	n/a	n/a	n/a
838.368	6.317	CUE_LISTEN	        M8	2	n/a	n/a	n/a
844.685	7.758	FIXCROSS	n/a	n/a	n/a	n/a	n/a
852.444	6.317	CUE_PLAYBACK_RIGHT_HAND	        M8	2	n/a	n/a	n/a
852.917	n/a	RESPONSE	        M8	2	16	E4	press
853.177	n/a	RESPONSE	        M8	2	19	G4	press
853.257	n/a	RESPONSE	        M8	2	16	E4	release
853.48	n/a	RESPONSE	        M8	2	23	B4	press
853.677	n/a	RESPONSE	        M8	2	19	G4	release
853.913	n/a	RESPONSE	        M8	2	23	B4	release
854.01	n/a	RESPONSE	        M8	2	23	B4	press
854.558	n/a	RESPONSE	        M8	2	18	F#4	press
854.625	n/a	RESPONSE	        M8	2	23	B4	release
855.592	n/a	RESPONSE	        M8	2	21	A4	press
855.633	n/a	RESPONSE	        M8	2	18	F#4	release
857.295	n/a	RESPONSE	        M8	2	23	B4	press
857.317	n/a	RESPONSE	        M8	2	21	A4	release
858.517	n/a	RESPONSE	        M8	2	21	A4	press
858.588	n/a	RESPONSE	        M8	2	23	B4	release
858.76	7.758	FIXCROSS	n/a	n/a	n/a	n/a	n/a
858.891	n/a	RESPONSE	        M8	2	19	G4	press
859.011	n/a	RESPONSE	        M8	2	21	A4	release
859.643	n/a	RESPONSE	        M8	2	18	F#4	press
859.785	n/a	RESPONSE	        M8	2	19	G4	release
860.056	n/a	RESPONSE	        M8	2	19	G4	press
860.137	n/a	RESPONSE	        M8	2	18	F#4	release
860.888	n/a	RESPONSE	        M8	2	16	E4	press
860.93	n/a	RESPONSE	        M8	2	14	D4	press
860.943	n/a	RESPONSE	        M8	2	19	G4	release
861.042	n/a	RESPONSE	        M8	2	14	D4	release
862.953	n/a	RESPONSE	        M8	2	16	E4	release
866.518	6.325	CUE_LISTEN	        M6	1	n/a	n/a	n/a
872.844	7.758	FIXCROSS	n/a	n/a	n/a	n/a	n/a
880.602	6.317	CUE_PLAYBACK_BOTH_HANDS	        M6	1	n/a	n/a	n/a
882.916	n/a	RESPONSE	        M6	1	05	F3	press
882.918	n/a	RESPONSE	        M6	1	09	A3	press
882.926	n/a	RESPONSE	        M6	1	12	C4	press
883.467	n/a	RESPONSE	        M6	1	16	E4	press
883.963	n/a	RESPONSE	        M6	1	16	E4	release
884.035	n/a	RESPONSE	        M6	1	05	F3	release
884.076	n/a	RESPONSE	        M6	1	09	A3	release
884.083	n/a	RESPONSE	        M6	1	12	C4	release
884.313	n/a	RESPONSE	        M6	1	12	C4	press
884.328	n/a	RESPONSE	        M6	1	09	A3	press
884.338	n/a	RESPONSE	        M6	1	05	F3	press
884.807	n/a	RESPONSE	        M6	1	16	E4	press
884.92	n/a	RESPONSE	        M6	1	17	F4	press
884.961	n/a	RESPONSE	        M6	1	16	E4	release
885.142	n/a	RESPONSE	        M6	1	17	F4	release
885.213	n/a	RESPONSE	        M6	1	05	F3	release
885.315	n/a	RESPONSE	        M6	1	09	A3	release
885.516	n/a	RESPONSE	        M6	1	09	A3	press
885.518	n/a	RESPONSE	        M6	1	05	F3	press
885.868	n/a	RESPONSE	        M6	1	12	C4	release
885.91	n/a	RESPONSE	        M6	1	05	F3	release
885.953	n/a	RESPONSE	        M6	1	09	A3	release
886.252	n/a	RESPONSE	        M6	1	12	C4	press
886.286	n/a	RESPONSE	        M6	1	09	A3	press
886.305	n/a	RESPONSE	        M6	1	05	F3	press
886.646	n/a	RESPONSE	        M6	1	16	E4	press
886.918	7.758	FIXCROSS	n/a	n/a	n/a	n/a	n/a
886.927	n/a	RESPONSE	        M6	1	19	G4	press
886.99	n/a	RESPONSE	        M6	1	16	E4	release
887.34	n/a	RESPONSE	        M6	1	19	G4	release
887.493	n/a	RESPONSE	        M6	1	05	F3	release
888.232	n/a	RESPONSE	        M6	1	12	C4	release
888.234	n/a	RESPONSE	        M6	1	09	A3	release
888.534	n/a	RESPONSE	        M6	1	12	C4	press
888.576	n/a	RESPONSE	        M6	1	09	A3	press
888.857	n/a	RESPONSE	        M6	1	05	F3	press
888.948	n/a	RESPONSE	        M6	1	16	E4	press
889.23	n/a	RESPONSE	        M6	1	16	E4	release
889.241	n/a	RESPONSE	        M6	1	19	G4	press
889.633	n/a	RESPONSE	        M6	1	17	F4	press
889.676	n/a	RESPONSE	        M6	1	19	G4	release
889.967	n/a	RESPONSE	        M6	1	16	E4	press
890.08	n/a	RESPONSE	        M6	1	17	F4	release
890.268	n/a	RESPONSE	        M6	1	14	D4	press
890.28	n/a	RESPONSE	        M6	1	16	E4	release
890.581	n/a	RESPONSE	        M6	1	16	E4	press
890.593	n/a	RESPONSE	        M6	1	14	D4	release
890.844	n/a	RESPONSE	        M6	1	16	E4	release
890.874	n/a	RESPONSE	        M6	1	05	F3	release
890.966	n/a	RESPONSE	        M6	1	12	C4	release
891.117	n/a	RESPONSE	        M6	1	09	A3	release
894.677	6.317	CUE_LISTEN	        M6	2	n/a	n/a	n/a
896.652	n/a	RESPONSE	        M6	2	12	C4	press
899.836	n/a	RESPONSE	        M6	2	12	C4	release
900.994	7.758	FIXCROSS	n/a	n/a	n/a	n/a	n/a
908.752	194.756	CUE_PLAYBACK_BOTH_HANDS	        M6	2	n/a	n/a	n/a
909.252	n/a	RESPONSE	        M6	2	05	F3	press
909.254	n/a	RESPONSE	        M6	2	12	C4	press
909.257	n/a	RESPONSE	        M6	2	09	A3	press
909.317	n/a	RESPONSE	        M6	2	07	G3	press
909.908	n/a	RESPONSE	        M6	2	07	G3	release
910.0	n/a	RESPONSE	        M6	2	05	F3	release
910.071	n/a	RESPONSE	        M6	2	12	C4	release
910.073	n/a	RESPONSE	        M6	2	09	A3	release
910.273	n/a	RESPONSE	        M6	2	12	C4	press
910.287	n/a	RESPONSE	        M6	2	09	A3	press
910.306	n/a	RESPONSE	        M6	2	05	F3	press
910.72	n/a	RESPONSE	        M6	2	19	G4	press
911.325	n/a	RESPONSE	        M6	2	19	G4	release
911.426	n/a	RESPONSE	        M6	2	05	F3	release
911.443	n/a	RESPONSE	        M6	2	12	C4	release
911.468	n/a	RESPONSE	        M6	2	09	A3	release
911.686	n/a	RESPONSE	        M6	2	12	C4	press
911.695	n/a	RESPONSE	        M6	2	09	A3	press
911.71	n/a	RESPONSE	        M6	2	14	D4	press
911.717	n/a	RESPONSE	        M6	2	05	F3	press
911.931	n/a	RESPONSE	        M6	2	14	D4	release
912.306	n/a	RESPONSE	        M6	2	17	F4	press
913.167	n/a	RESPONSE	        M6	2	23	B4	press
913.243	n/a	FIXCROSS	n/a	n/a	n/a	n/a	n/a
913.256	n/a	RESPONSE	        M6	2	17	F4	release
913.614	n/a	RESPONSE	        M6	2	23	B4	release
913.901	n/a	RESPONSE	        M6	2	21	A4	press
914.447	n/a	RESPONSE	        M6	2	05	F3	release
914.587	n/a	RESPONSE	        M6	2	09	A3	release
914.616	n/a	RESPONSE	        M6	2	24	C5	press
914.632	n/a	RESPONSE	        M6	2	21	A4	release
915.514	n/a	RESPONSE	        M6	2	24	C5	release
915.574	n/a	RESPONSE	        M6	2	07	G3	press
915.577	n/a	RESPONSE	        M6	2	04	E3	press
915.58	n/a	RESPONSE	        M6	2	22	A#4	press
915.588	n/a	RESPONSE	        M6	2	05	F3	press
916.21	n/a	RESPONSE	        M6	2	21	A4	press
916.841	n/a	RESPONSE	        M6	2	19	G4	press
916.902	n/a	RESPONSE	        M6	2	21	A4	release
916.904	n/a	RESPONSE	        M6	2	22	A#4	release
918.825	n/a	RESPONSE	        M6	2	05	F3	release
918.856	n/a	RESPONSE	        M6	2	07	G3	release
918.868	n/a	RESPONSE	        M6	2	04	E3	release
918.89	n/a	RESPONSE	        M6	2	12	C4	release
918.892	n/a	RESPONSE	        M6	2	19	G4	release
