onset	duration	trial_type	braille_stimulus	targets	response_count
2.015	2.008	CUE_REST	n/a	n/a	n/a
7.015	1.008	FIXCROSS	n/a	n/a	n/a
13.065	1.008	FIXCROSS	n/a	n/a	n/a
21.124	2.008	CUE_6_DOT	n/a	n/a	n/a
26.124	1.008	FIXCROSS	n/a	n/a	n/a
27.14	5.009	6_DOT_DETECTION	ALCSD	0	n/a
32.174	1.008	FIXCROSS	n/a	n/a	n/a
33.19	5.008	6_DOT_DETECTION	TBLTL	0	n/a
38.224	1.008	FIXCROSS	n/a	n/a	n/a
39.24	5.008	6_DOT_DETECTION	Ł#AUT	1	n/a
41.04	n/a	RESPONSE	n/a	n/a	1/1
44.274	1.008	FIXCROSS	n/a	n/a	n/a
45.29	5.009	6_DOT_DETECTION	T#BYŁ	1	n/a
47.504	n/a	RESPONSE	n/a	n/a	1/1
50.324	1.008	FIXCROSS	n/a	n/a	n/a
51.34	5.008	6_DOT_DETECTION	YUUIC	0	n/a
56.374	1.008	FIXCROSS	n/a	n/a	n/a
57.39	5.008	6_DOT_DETECTION	OLPDT	0	n/a
62.424	1.008	FIXCROSS	n/a	n/a	n/a
63.44	5.008	6_DOT_DETECTION	LUB#L	1	n/a
66.464	n/a	RESPONSE	n/a	n/a	1/1
68.474	1.008	FIXCROSS	n/a	n/a	n/a
69.49	5.009	6_DOT_DETECTION	##BUS	2	n/a
72.064	n/a	RESPONSE	n/a	n/a	1/2
76.032	2.008	CUE_REST	n/a	n/a	n/a
82.532	1.008	FIXCROSS	n/a	n/a	n/a
88.59	1.008	FIXCROSS	n/a	n/a	n/a
95.649	2.008	CUE_6_DOT	n/a	n/a	n/a
100.649	1.008	FIXCROSS	n/a	n/a	n/a
101.665	5.008	6_DOT_DETECTION	PLDYŁ	0	n/a
106.699	1.008	FIXCROSS	n/a	n/a	n/a
107.715	5.008	6_DOT_DETECTION	EKDDK	0	n/a
112.749	1.008	FIXCROSS	n/a	n/a	n/a
113.765	5.009	6_DOT_DETECTION	BEL#A	1	n/a
117.4	n/a	RESPONSE	n/a	n/a	1/1
118.799	1.008	FIXCROSS	n/a	n/a	n/a
119.815	5.009	6_DOT_DETECTION	MYŁ##	2	n/a
123.184	n/a	RESPONSE	n/a	n/a	1/2
124.849	1.008	FIXCROSS	n/a	n/a	n/a
125.865	5.008	6_DOT_DETECTION	#PSA#	2	n/a
127.984	n/a	RESPONSE	n/a	n/a	1/2
130.899	1.008	FIXCROSS	n/a	n/a	n/a
131.915	5.008	6_DOT_DETECTION	LKCKY	0	n/a
136.949	1.008	FIXCROSS	n/a	n/a	n/a
137.965	5.009	6_DOT_DETECTION	##TYK	2	n/a
139.064	n/a	RESPONSE	n/a	n/a	1/2
142.999	1.008	FIXCROSS	n/a	n/a	n/a
144.015	5.008	6_DOT_DETECTION	L#MSY	1	n/a
145.664	n/a	RESPONSE	n/a	n/a	1/1
150.557	2.008	CUE_REST	n/a	n/a	n/a
155.057	1.008	FIXCROSS	n/a	n/a	n/a
161.107	1.008	FIXCROSS	n/a	n/a	n/a
168.665	2.008	CUE_6_DOT	n/a	n/a	n/a
175.165	1.008	FIXCROSS	n/a	n/a	n/a
176.182	5.008	6_DOT_DETECTION	MEM##	2	n/a
179.92	n/a	RESPONSE	n/a	n/a	1/2
181.215	1.008	FIXCROSS	n/a	n/a	n/a
182.232	5.008	6_DOT_DETECTION	##MAP	2	n/a
184.24	n/a	RESPONSE	n/a	n/a	1/2
187.265	1.008	FIXCROSS	n/a	n/a	n/a
188.282	5.008	6_DOT_DETECTION	ETITU	0	n/a
193.315	1.008	FIXCROSS	n/a	n/a	n/a
194.332	5.008	6_DOT_DETECTION	BB#EU	1	n/a
199.365	1.008	FIXCROSS	n/a	n/a	n/a
200.381	5.009	6_DOT_DETECTION	EASLS	0	n/a
205.415	1.008	FIXCROSS	n/a	n/a	n/a
206.432	5.008	6_DOT_DETECTION	#OKA#	2	n/a
208.92	n/a	RESPONSE	n/a	n/a	1/2
211.304	n/a	RESPONSE	n/a	n/a	2/2
211.465	1.008	FIXCROSS	n/a	n/a	n/a
212.482	5.008	6_DOT_DETECTION	##UDA	2	n/a
214.84	n/a	RESPONSE	n/a	n/a	1/2
217.515	1.008	FIXCROSS	n/a	n/a	n/a
218.532	5.009	6_DOT_DETECTION	PTEIŁ	0	n/a
225.574	2.008	CUE_REST	n/a	n/a	n/a
229.574	1.008	FIXCROSS	n/a	n/a	n/a
235.624	1.008	FIXCROSS	n/a	n/a	n/a
243.682	2.008	CUE_6_DOT	n/a	n/a	n/a
249.682	1.008	FIXCROSS	n/a	n/a	n/a
250.699	5.008	6_DOT_DETECTION	UPU#I	1	n/a
254.039	n/a	RESPONSE	n/a	n/a	1/1
255.732	1.008	FIXCROSS	n/a	n/a	n/a
256.749	5.008	6_DOT_DETECTION	PIUCD	0	n/a
261.782	1.008	FIXCROSS	n/a	n/a	n/a
262.799	5.008	6_DOT_DETECTION	DIP##	2	n/a
266.399	n/a	RESPONSE	n/a	n/a	1/2
267.832	1.008	FIXCROSS	n/a	n/a	n/a
268.849	5.008	6_DOT_DETECTION	#EKS#	2	n/a
272.519	n/a	RESPONSE	n/a	n/a	1/2
273.882	1.008	FIXCROSS	n/a	n/a	n/a
274.899	5.008	6_DOT_DETECTION	AOKEB	0	n/a
279.932	1.008	FIXCROSS	n/a	n/a	n/a
280.949	5.008	6_DOT_DETECTION	KC#UT	1	n/a
283.743	n/a	RESPONSE	n/a	n/a	1/1
285.982	1.008	FIXCROSS	n/a	n/a	n/a
286.999	5.008	6_DOT_DETECTION	#BCCL	1	n/a
289.703	n/a	RESPONSE	n/a	n/a	1/1
292.032	1.008	FIXCROSS	n/a	n/a	n/a
293.049	5.008	6_DOT_DETECTION	#LIS#	2	n/a
294.623	n/a	RESPONSE	n/a	n/a	1/2
299.09	2.008	CUE_REST	n/a	n/a	n/a
305.09	1.008	FIXCROSS	n/a	n/a	n/a
311.14	1.008	FIXCROSS	n/a	n/a	n/a
318.699	2.008	CUE_6_DOT	n/a	n/a	n/a
324.199	1.008	FIXCROSS	n/a	n/a	n/a
325.215	5.008	6_DOT_DETECTION	UTIŁT	0	n/a
330.249	1.008	FIXCROSS	n/a	n/a	n/a
331.265	5.008	6_DOT_DETECTION	YBP#L	1	n/a
334.799	n/a	RESPONSE	n/a	n/a	1/1
336.299	1.008	FIXCROSS	n/a	n/a	n/a
337.315	5.008	6_DOT_DETECTION	I#AE#	2	n/a
339.223	n/a	RESPONSE	n/a	n/a	1/2
341.479	n/a	RESPONSE	n/a	n/a	2/2
342.349	1.008	FIXCROSS	n/a	n/a	n/a
343.365	5.008	6_DOT_DETECTION	U#UDO	1	n/a
348.399	1.008	FIXCROSS	n/a	n/a	n/a
349.415	5.008	6_DOT_DETECTION	L#LAŁ	1	n/a
351.583	n/a	RESPONSE	n/a	n/a	1/1
354.449	1.008	FIXCROSS	n/a	n/a	n/a
355.465	5.008	6_DOT_DETECTION	SPA##	2	n/a
358.063	n/a	RESPONSE	n/a	n/a	1/2
360.499	1.008	FIXCROSS	n/a	n/a	n/a
361.515	5.008	6_DOT_DETECTION	#YUPA	1	n/a
362.679	n/a	RESPONSE	n/a	n/a	1/1
366.549	1.008	FIXCROSS	n/a	n/a	n/a
367.565	5.008	6_DOT_DETECTION	Y#ŁYK	1	n/a
373.607	2.008	CUE_REST	n/a	n/a	n/a
380.607	1.008	FIXCROSS	n/a	n/a	n/a
386.657	1.008	FIXCROSS	n/a	n/a	n/a
393.715	2.008	CUE_6_DOT	n/a	n/a	n/a
398.715	1.008	FIXCROSS	n/a	n/a	n/a
399.732	5.008	6_DOT_DETECTION	DKALL	0	n/a
404.765	1.008	FIXCROSS	n/a	n/a	n/a
405.782	5.008	6_DOT_DETECTION	#KAS#	2	n/a
407.383	n/a	RESPONSE	n/a	n/a	1/2
410.815	1.008	FIXCROSS	n/a	n/a	n/a
411.063	n/a	RESPONSE	n/a	n/a	2/2
411.831	5.009	6_DOT_DETECTION	KTO#D	1	n/a
416.865	1.008	FIXCROSS	n/a	n/a	n/a
417.882	5.008	6_DOT_DETECTION	##DAM	2	n/a
419.703	n/a	RESPONSE	n/a	n/a	1/2
422.915	1.008	FIXCROSS	n/a	n/a	n/a
423.932	5.008	6_DOT_DETECTION	SYMTI	0	n/a
428.135	n/a	RESPONSE	n/a	n/a	1/0
428.965	1.008	FIXCROSS	n/a	n/a	n/a
429.982	5.008	6_DOT_DETECTION	MUŁ##	2	n/a
433.095	n/a	RESPONSE	n/a	n/a	1/2
435.015	1.008	FIXCROSS	n/a	n/a	n/a
436.032	5.008	6_DOT_DETECTION	KSSŁK	0	n/a
441.065	1.008	FIXCROSS	n/a	n/a	n/a
442.082	5.008	6_DOT_DETECTION	BUŁ#I	1	n/a
444.999	n/a	RESPONSE	n/a	n/a	1/1
