onset	duration	trial_type	trial_number	stroop_condition	stim_text(PL)	stim_text(eng)	stim_color(PL)	stim_color(eng)	response_type	response_color
0.0	n/a	RESPONSE	n/a	n/a	n/a	n/a	n/a	n/a	n/a	green
14.0153	n/a	RESPONSE	n/a	n/a	n/a	n/a	n/a	n/a	n/a	yellow
112.4571	n/a	RESPONSE	n/a	n/a	n/a	n/a	n/a	n/a	n/a	n/a
112.5237	1.0333	ITI	n/a	n/a	n/a	n/a	n/a	n/a	n/a	n/a
113.557	0.5167	FIXCROSS	n/a	n/a	n/a	n/a	n/a	n/a	n/a	n/a
114.0737	0.8833	T_INK	1	Neutral	xxxxx	xxxxx	czerwony	red	hit	n/a
114.9313	n/a	RESPONSE	n/a	n/a	n/a	n/a	n/a	n/a	n/a	red
114.9571	0.5167	FEEDBACK	n/a	n/a	n/a	n/a	n/a	n/a	n/a	n/a
115.4738	1.0333	ITI	n/a	n/a	n/a	n/a	n/a	n/a	n/a	n/a
116.5071	0.5167	FIXCROSS	n/a	n/a	n/a	n/a	n/a	n/a	n/a	n/a
117.0238	1.7667	T_INK	2	Incongruent	czerwony	red	zielony	green	hit	n/a
118.7624	n/a	RESPONSE	n/a	n/a	n/a	n/a	n/a	n/a	n/a	green
118.7905	0.5166	FEEDBACK	n/a	n/a	n/a	n/a	n/a	n/a	n/a	n/a
119.3071	1.0167	ITI	n/a	n/a	n/a	n/a	n/a	n/a	n/a	n/a
120.3238	0.5167	FIXCROSS	n/a	n/a	n/a	n/a	n/a	n/a	n/a	n/a
120.8405	0.6167	T_INK	3	Neutral	xxxxxxxxx	xxxxxxxxx	zielony	green	hit	n/a
121.4281	n/a	RESPONSE	n/a	n/a	n/a	n/a	n/a	n/a	n/a	green
121.4571	0.5167	FEEDBACK	n/a	n/a	n/a	n/a	n/a	n/a	n/a	n/a
121.9738	1.0166	ITI	n/a	n/a	n/a	n/a	n/a	n/a	n/a	n/a
122.9904	0.5167	FIXCROSS	n/a	n/a	n/a	n/a	n/a	n/a	n/a	n/a
123.5072	1.35	T_INK	4	Incongruent	żółty	yellow	zielony	green	hit	n/a
124.8282	n/a	RESPONSE	n/a	n/a	n/a	n/a	n/a	n/a	n/a	green
124.8572	0.5167	FEEDBACK	n/a	n/a	n/a	n/a	n/a	n/a	n/a	n/a
125.3738	1.0167	ITI	n/a	n/a	n/a	n/a	n/a	n/a	n/a	n/a
126.3905	0.5167	FIXCROSS	n/a	n/a	n/a	n/a	n/a	n/a	n/a	n/a
126.9072	0.9333	T_INK	5	Neutral	xxxxxxxxx	xxxxxxxxx	żółty	yellow	hit	n/a
127.8132	n/a	RESPONSE	n/a	n/a	n/a	n/a	n/a	n/a	n/a	yellow
127.8405	0.5167	FEEDBACK	n/a	n/a	n/a	n/a	n/a	n/a	n/a	n/a
128.3572	1.0167	ITI	n/a	n/a	n/a	n/a	n/a	n/a	n/a	n/a
129.3739	0.5167	FIXCROSS	n/a	n/a	n/a	n/a	n/a	n/a	n/a	n/a
129.8905	1.2	T_INK	6	Neutral	xxxxxxxx	xxxxxxxx	zielony	green	hit	n/a
131.0696	n/a	RESPONSE	n/a	n/a	n/a	n/a	n/a	n/a	n/a	green
131.0905	0.5167	FEEDBACK	n/a	n/a	n/a	n/a	n/a	n/a	n/a	n/a
131.6072	1.0167	ITI	n/a	n/a	n/a	n/a	n/a	n/a	n/a	n/a
132.6239	0.5167	FIXCROSS	n/a	n/a	n/a	n/a	n/a	n/a	n/a	n/a
133.1406	0.8833	T_INK	7	Neutral	xxxxxxxx	xxxxxxxx	żółty	yellow	hit	n/a
133.9908	n/a	RESPONSE	n/a	n/a	n/a	n/a	n/a	n/a	n/a	yellow
134.0239	0.5166	FEEDBACK	n/a	n/a	n/a	n/a	n/a	n/a	n/a	n/a
134.5405	1.0167	ITI	n/a	n/a	n/a	n/a	n/a	n/a	n/a	n/a
135.5573	0.5167	FIXCROSS	n/a	n/a	n/a	n/a	n/a	n/a	n/a	n/a
136.0739	0.7167	T_INK	8	Neutral	xxxxxxxx	xxxxxxxx	niebieski	blue	hit	n/a
136.7683	n/a	RESPONSE	n/a	n/a	n/a	n/a	n/a	n/a	n/a	blue
136.7906	0.5167	FEEDBACK	n/a	n/a	n/a	n/a	n/a	n/a	n/a	n/a
137.3073	1.0167	ITI	n/a	n/a	n/a	n/a	n/a	n/a	n/a	n/a
138.3239	0.5166	FIXCROSS	n/a	n/a	n/a	n/a	n/a	n/a	n/a	n/a
138.8406	0.7167	T_INK	9	Incongruent	niebieski	blue	czerwony	red	hit	n/a
139.5299	n/a	RESPONSE	n/a	n/a	n/a	n/a	n/a	n/a	n/a	red
139.5572	0.5167	FEEDBACK	n/a	n/a	n/a	n/a	n/a	n/a	n/a	n/a
140.074	1.0167	ITI	n/a	n/a	n/a	n/a	n/a	n/a	n/a	n/a
141.0906	0.5167	FIXCROSS	n/a	n/a	n/a	n/a	n/a	n/a	n/a	n/a
141.6073	2.0334	T_INK	10	Neutral	xxxxxxx	xxxxxxx	niebieski	blue	hit	n/a
143.6164	n/a	RESPONSE	n/a	n/a	n/a	n/a	n/a	n/a	n/a	blue
143.6406	0.5166	FEEDBACK	n/a	n/a	n/a	n/a	n/a	n/a	n/a	n/a
144.1573	1.0167	ITI	n/a	n/a	n/a	n/a	n/a	n/a	n/a	n/a
145.174	0.5167	FIXCROSS	n/a	n/a	n/a	n/a	n/a	n/a	n/a	n/a
145.6907	0.8333	T_INK	11	Incongruent	czerwony	red	niebieski	blue	hit	n/a
146.4898	n/a	RESPONSE	n/a	n/a	n/a	n/a	n/a	n/a	n/a	blue
146.524	0.5167	FEEDBACK	n/a	n/a	n/a	n/a	n/a	n/a	n/a	n/a
147.0406	1.0167	ITI	n/a	n/a	n/a	n/a	n/a	n/a	n/a	n/a
148.0573	0.5166	FIXCROSS	n/a	n/a	n/a	n/a	n/a	n/a	n/a	n/a
148.574	1.0	T_INK	12	Incongruent	czerwony	red	żółty	yellow	hit	n/a
149.5545	n/a	RESPONSE	n/a	n/a	n/a	n/a	n/a	n/a	n/a	yellow
149.574	0.5167	FEEDBACK	n/a	n/a	n/a	n/a	n/a	n/a	n/a	n/a
150.0907	1.0333	ITI	n/a	n/a	n/a	n/a	n/a	n/a	n/a	n/a
161.0797	n/a	RESPONSE	n/a	n/a	n/a	n/a	n/a	n/a	n/a	n/a
161.1408	1.0167	ITI	n/a	n/a	n/a	n/a	n/a	n/a	n/a	n/a
162.1575	0.5167	FIXCROSS	n/a	n/a	n/a	n/a	n/a	n/a	n/a	n/a
162.6741	1.4333	INK	1	Incongruent	zielony	green	niebieski	blue	hit	n/a
164.0806	n/a	RESPONSE	n/a	n/a	n/a	n/a	n/a	n/a	n/a	blue
164.1074	1.0167	ITI	n/a	n/a	n/a	n/a	n/a	n/a	n/a	n/a
165.1241	0.5167	FIXCROSS	n/a	n/a	n/a	n/a	n/a	n/a	n/a	n/a
165.6408	0.5834	INK	2	Neutral	xxxxxxx	xxxxxxx	niebieski	blue	hit	n/a
166.2037	n/a	RESPONSE	n/a	n/a	n/a	n/a	n/a	n/a	n/a	blue
166.2242	1.0166	ITI	n/a	n/a	n/a	n/a	n/a	n/a	n/a	n/a
167.2408	0.5167	FIXCROSS	n/a	n/a	n/a	n/a	n/a	n/a	n/a	n/a
167.7575	0.6667	INK	3	Neutral	xxxxxxxx	xxxxxxxx	żółty	yellow	hit	n/a
168.3906	n/a	RESPONSE	n/a	n/a	n/a	n/a	n/a	n/a	n/a	yellow
168.4242	1.0166	ITI	n/a	n/a	n/a	n/a	n/a	n/a	n/a	n/a
169.4408	0.5167	FIXCROSS	n/a	n/a	n/a	n/a	n/a	n/a	n/a	n/a
169.9575	0.4833	INK	4	Incongruent	zielony	green	czerwony	red	hit	n/a
170.4178	n/a	RESPONSE	n/a	n/a	n/a	n/a	n/a	n/a	n/a	red
170.4408	1.0167	ITI	n/a	n/a	n/a	n/a	n/a	n/a	n/a	n/a
171.4575	0.5167	FIXCROSS	n/a	n/a	n/a	n/a	n/a	n/a	n/a	n/a
171.9742	0.65	INK	5	Incongruent	czerwony	red	niebieski	blue	hit	n/a
172.6048	n/a	RESPONSE	n/a	n/a	n/a	n/a	n/a	n/a	n/a	blue
172.6242	1.0167	ITI	n/a	n/a	n/a	n/a	n/a	n/a	n/a	n/a
173.6409	0.5167	FIXCROSS	n/a	n/a	n/a	n/a	n/a	n/a	n/a	n/a
174.1576	0.7	INK	6	Incongruent	żółty	yellow	czerwony	red	hit	n/a
174.8395	n/a	RESPONSE	n/a	n/a	n/a	n/a	n/a	n/a	n/a	red
174.8576	1.0167	ITI	n/a	n/a	n/a	n/a	n/a	n/a	n/a	n/a
175.8742	0.5166	FIXCROSS	n/a	n/a	n/a	n/a	n/a	n/a	n/a	n/a
176.3909	0.4667	INK	7	Neutral	xxxxxxxxx	xxxxxxxxx	żółty	yellow	hit	n/a
176.8349	n/a	RESPONSE	n/a	n/a	n/a	n/a	n/a	n/a	n/a	yellow
176.8576	1.0167	ITI	n/a	n/a	n/a	n/a	n/a	n/a	n/a	n/a
177.8742	0.5167	FIXCROSS	n/a	n/a	n/a	n/a	n/a	n/a	n/a	n/a
178.3909	0.5667	INK	8	Incongruent	czerwony	red	żółty	yellow	hit	n/a
178.926	n/a	RESPONSE	n/a	n/a	n/a	n/a	n/a	n/a	n/a	yellow
178.9576	1.0167	ITI	n/a	n/a	n/a	n/a	n/a	n/a	n/a	n/a
179.9743	0.5167	FIXCROSS	n/a	n/a	n/a	n/a	n/a	n/a	n/a	n/a
180.4909	0.4333	INK	9	Incongruent	zielony	green	czerwony	red	hit	n/a
180.9053	n/a	RESPONSE	n/a	n/a	n/a	n/a	n/a	n/a	n/a	red
180.9243	1.0166	ITI	n/a	n/a	n/a	n/a	n/a	n/a	n/a	n/a
181.9409	0.5167	FIXCROSS	n/a	n/a	n/a	n/a	n/a	n/a	n/a	n/a
182.4576	0.5333	INK	10	Incongruent	zielony	green	niebieski	blue	hit	n/a
182.9645	n/a	RESPONSE	n/a	n/a	n/a	n/a	n/a	n/a	n/a	blue
182.991	1.0167	ITI	n/a	n/a	n/a	n/a	n/a	n/a	n/a	n/a
184.0076	0.5167	FIXCROSS	n/a	n/a	n/a	n/a	n/a	n/a	n/a	n/a
184.5243	0.55	INK	11	Incongruent	zielony	green	żółty	yellow	hit	n/a
185.0555	n/a	RESPONSE	n/a	n/a	n/a	n/a	n/a	n/a	n/a	yellow
185.0743	1.0166	ITI	n/a	n/a	n/a	n/a	n/a	n/a	n/a	n/a
186.0909	0.5167	FIXCROSS	n/a	n/a	n/a	n/a	n/a	n/a	n/a	n/a
186.6076	0.4667	INK	12	Neutral	xxxxxxxxx	xxxxxxxxx	żółty	yellow	hit	n/a
187.0509	n/a	RESPONSE	n/a	n/a	n/a	n/a	n/a	n/a	n/a	yellow
187.0743	1.0167	ITI	n/a	n/a	n/a	n/a	n/a	n/a	n/a	n/a
188.091	0.5167	FIXCROSS	n/a	n/a	n/a	n/a	n/a	n/a	n/a	n/a
188.6077	0.8	INK	13	Neutral	xxxxxxxxx	xxxxxxxxx	zielony	green	hit	n/a
189.3815	n/a	RESPONSE	n/a	n/a	n/a	n/a	n/a	n/a	n/a	green
189.4077	1.0166	ITI	n/a	n/a	n/a	n/a	n/a	n/a	n/a	n/a
190.4243	0.5167	FIXCROSS	n/a	n/a	n/a	n/a	n/a	n/a	n/a	n/a
190.941	0.45	INK	14	Incongruent	czerwony	red	niebieski	blue	hit	n/a
191.3608	n/a	RESPONSE	n/a	n/a	n/a	n/a	n/a	n/a	n/a	blue
191.391	1.0167	ITI	n/a	n/a	n/a	n/a	n/a	n/a	n/a	n/a
192.4077	0.5166	FIXCROSS	n/a	n/a	n/a	n/a	n/a	n/a	n/a	n/a
192.9243	0.6167	INK	15	Incongruent	niebieski	blue	czerwony	red	hit	n/a
193.5158	n/a	RESPONSE	n/a	n/a	n/a	n/a	n/a	n/a	n/a	red
193.541	1.0167	ITI	n/a	n/a	n/a	n/a	n/a	n/a	n/a	n/a
194.5577	0.5166	FIXCROSS	n/a	n/a	n/a	n/a	n/a	n/a	n/a	n/a
195.0743	0.5167	INK	16	Incongruent	żółty	yellow	czerwony	red	hit	n/a
195.5589	n/a	RESPONSE	n/a	n/a	n/a	n/a	n/a	n/a	n/a	red
195.5911	1.0166	ITI	n/a	n/a	n/a	n/a	n/a	n/a	n/a	n/a
196.6077	0.5167	FIXCROSS	n/a	n/a	n/a	n/a	n/a	n/a	n/a	n/a
197.1244	1.1333	INK	17	Neutral	xxxxxxxx	xxxxxxxx	niebieski	blue	hit	n/a
198.2248	n/a	RESPONSE	n/a	n/a	n/a	n/a	n/a	n/a	n/a	blue
198.2577	1.0167	ITI	n/a	n/a	n/a	n/a	n/a	n/a	n/a	n/a
199.2744	0.5167	FIXCROSS	n/a	n/a	n/a	n/a	n/a	n/a	n/a	n/a
199.7911	0.6667	INK	18	Neutral	xxxxxxxxx	xxxxxxxxx	czerwony	red	hit	n/a
200.4276	n/a	RESPONSE	n/a	n/a	n/a	n/a	n/a	n/a	n/a	red
200.4578	1.0167	ITI	n/a	n/a	n/a	n/a	n/a	n/a	n/a	n/a
201.4744	0.5167	FIXCROSS	n/a	n/a	n/a	n/a	n/a	n/a	n/a	n/a
201.9911	0.5666	INK	19	Neutral	xxxxxxxx	xxxxxxxx	zielony	green	hit	n/a
202.5347	n/a	RESPONSE	n/a	n/a	n/a	n/a	n/a	n/a	n/a	green
202.5577	1.0167	ITI	n/a	n/a	n/a	n/a	n/a	n/a	n/a	n/a
203.5744	0.5167	FIXCROSS	n/a	n/a	n/a	n/a	n/a	n/a	n/a	n/a
204.0911	0.6333	INK	20	Neutral	xxxxxxxxx	xxxxxxxxx	czerwony	red	hit	n/a
204.7056	n/a	RESPONSE	n/a	n/a	n/a	n/a	n/a	n/a	n/a	red
204.7244	1.0167	ITI	n/a	n/a	n/a	n/a	n/a	n/a	n/a	n/a
205.7411	0.5167	FIXCROSS	n/a	n/a	n/a	n/a	n/a	n/a	n/a	n/a
206.2578	0.45	INK	21	Neutral	xxxxxxxx	xxxxxxxx	żółty	yellow	hit	n/a
206.6849	n/a	RESPONSE	n/a	n/a	n/a	n/a	n/a	n/a	n/a	yellow
206.7078	1.0167	ITI	n/a	n/a	n/a	n/a	n/a	n/a	n/a	n/a
207.7245	0.5167	FIXCROSS	n/a	n/a	n/a	n/a	n/a	n/a	n/a	n/a
208.2412	0.6167	INK	22	Neutral	xxxxx	xxxxx	zielony	green	hit	n/a
208.8239	n/a	RESPONSE	n/a	n/a	n/a	n/a	n/a	n/a	n/a	green
208.8578	1.0167	ITI	n/a	n/a	n/a	n/a	n/a	n/a	n/a	n/a
209.8745	0.5167	FIXCROSS	n/a	n/a	n/a	n/a	n/a	n/a	n/a	n/a
210.3912	0.5667	INK	23	Incongruent	żółty	yellow	zielony	green	hit	n/a
210.931	n/a	RESPONSE	n/a	n/a	n/a	n/a	n/a	n/a	n/a	green
210.9578	1.0167	ITI	n/a	n/a	n/a	n/a	n/a	n/a	n/a	n/a
211.9745	0.5167	FIXCROSS	n/a	n/a	n/a	n/a	n/a	n/a	n/a	n/a
212.4912	0.4	INK	24	Neutral	xxxxx	xxxxx	niebieski	blue	hit	n/a
212.8625	n/a	RESPONSE	n/a	n/a	n/a	n/a	n/a	n/a	n/a	blue
212.8912	1.0167	ITI	n/a	n/a	n/a	n/a	n/a	n/a	n/a	n/a
213.9079	0.5166	FIXCROSS	n/a	n/a	n/a	n/a	n/a	n/a	n/a	n/a
214.4245	0.9667	INK	25	Incongruent	czerwony	red	zielony	green	hit	n/a
215.3685	n/a	RESPONSE	n/a	n/a	n/a	n/a	n/a	n/a	n/a	green
215.3912	1.0167	ITI	n/a	n/a	n/a	n/a	n/a	n/a	n/a	n/a
216.4079	0.5166	FIXCROSS	n/a	n/a	n/a	n/a	n/a	n/a	n/a	n/a
216.9245	0.8667	INK	26	Incongruent	zielony	green	niebieski	blue	hit	n/a
217.7632	n/a	RESPONSE	n/a	n/a	n/a	n/a	n/a	n/a	n/a	blue
217.7912	1.0167	ITI	n/a	n/a	n/a	n/a	n/a	n/a	n/a	n/a
218.8079	0.5167	FIXCROSS	n/a	n/a	n/a	n/a	n/a	n/a	n/a	n/a
219.3246	0.6333	INK	27	Neutral	xxxxxxx	xxxxxxx	żółty	yellow	hit	n/a
219.934	n/a	RESPONSE	n/a	n/a	n/a	n/a	n/a	n/a	n/a	yellow
219.9579	1.0167	ITI	n/a	n/a	n/a	n/a	n/a	n/a	n/a	n/a
220.9746	0.5167	FIXCROSS	n/a	n/a	n/a	n/a	n/a	n/a	n/a	n/a
221.4912	0.4334	INK	28	Neutral	xxxxxxx	xxxxxxx	czerwony	red	hit	n/a
221.8975	n/a	RESPONSE	n/a	n/a	n/a	n/a	n/a	n/a	n/a	red
221.9246	1.0166	ITI	n/a	n/a	n/a	n/a	n/a	n/a	n/a	n/a
222.9412	0.5167	FIXCROSS	n/a	n/a	n/a	n/a	n/a	n/a	n/a	n/a
223.4579	0.5604	INK	29	Neutral	xxxxx	xxxxx	niebieski	blue	hit	n/a
224.0045	n/a	RESPONSE	n/a	n/a	n/a	n/a	n/a	n/a	n/a	blue
224.0183	1.023	ITI	n/a	n/a	n/a	n/a	n/a	n/a	n/a	n/a
225.0413	0.5167	FIXCROSS	n/a	n/a	n/a	n/a	n/a	n/a	n/a	n/a
225.558	0.55	INK	30	Neutral	xxxxxxxx	xxxxxxxx	niebieski	blue	hit	n/a
226.0796	n/a	RESPONSE	n/a	n/a	n/a	n/a	n/a	n/a	n/a	blue
226.108	1.0167	ITI	n/a	n/a	n/a	n/a	n/a	n/a	n/a	n/a
227.1246	0.5167	FIXCROSS	n/a	n/a	n/a	n/a	n/a	n/a	n/a	n/a
227.6413	0.6166	INK	31	Neutral	xxxxxxx	xxxxxxx	czerwony	red	hit	n/a
228.2346	n/a	RESPONSE	n/a	n/a	n/a	n/a	n/a	n/a	n/a	red
228.2579	1.0167	ITI	n/a	n/a	n/a	n/a	n/a	n/a	n/a	n/a
229.2747	0.5167	FIXCROSS	n/a	n/a	n/a	n/a	n/a	n/a	n/a	n/a
229.7913	0.8333	INK	32	Incongruent	niebieski	blue	czerwony	red	hit	n/a
230.597	n/a	RESPONSE	n/a	n/a	n/a	n/a	n/a	n/a	n/a	red
230.6247	1.0167	ITI	n/a	n/a	n/a	n/a	n/a	n/a	n/a	n/a
231.6413	0.5166	FIXCROSS	n/a	n/a	n/a	n/a	n/a	n/a	n/a	n/a
232.158	0.6334	INK	33	Neutral	xxxxx	xxxxx	zielony	green	hit	n/a
232.768	n/a	RESPONSE	n/a	n/a	n/a	n/a	n/a	n/a	n/a	green
232.7914	1.0166	ITI	n/a	n/a	n/a	n/a	n/a	n/a	n/a	n/a
233.0554	n/a	RESPONSE	n/a	n/a	n/a	n/a	n/a	n/a	n/a	green
233.1032	n/a	RESPONSE	n/a	n/a	n/a	n/a	n/a	n/a	n/a	green
233.808	0.5167	FIXCROSS	n/a	n/a	n/a	n/a	n/a	n/a	n/a	n/a
234.3247	0.55	INK	34	Incongruent	żółty	yellow	zielony	green	hit	n/a
234.8431	n/a	RESPONSE	n/a	n/a	n/a	n/a	n/a	n/a	n/a	green
234.8747	1.0167	ITI	n/a	n/a	n/a	n/a	n/a	n/a	n/a	n/a
235.8914	0.5167	FIXCROSS	n/a	n/a	n/a	n/a	n/a	n/a	n/a	n/a
236.408	0.6	INK	35	Neutral	xxxxxxxx	xxxxxxxx	żółty	yellow	hit	n/a
236.9822	n/a	RESPONSE	n/a	n/a	n/a	n/a	n/a	n/a	n/a	yellow
237.008	1.0167	ITI	n/a	n/a	n/a	n/a	n/a	n/a	n/a	n/a
238.0247	0.5167	FIXCROSS	n/a	n/a	n/a	n/a	n/a	n/a	n/a	n/a
238.5414	0.85	INK	36	Neutral	xxxxx	xxxxx	zielony	green	hit	n/a
239.3607	n/a	RESPONSE	n/a	n/a	n/a	n/a	n/a	n/a	n/a	green
239.3914	1.0167	ITI	n/a	n/a	n/a	n/a	n/a	n/a	n/a	n/a
240.4081	0.5167	FIXCROSS	n/a	n/a	n/a	n/a	n/a	n/a	n/a	n/a
240.9247	0.5667	INK	37	Incongruent	zielony	green	czerwony	red	hit	n/a
241.4678	n/a	RESPONSE	n/a	n/a	n/a	n/a	n/a	n/a	n/a	red
241.4914	1.0167	ITI	n/a	n/a	n/a	n/a	n/a	n/a	n/a	n/a
242.5081	0.5167	FIXCROSS	n/a	n/a	n/a	n/a	n/a	n/a	n/a	n/a
243.0248	0.9333	INK	38	Incongruent	zielony	green	żółty	yellow	hit	n/a
243.9259	n/a	RESPONSE	n/a	n/a	n/a	n/a	n/a	n/a	n/a	yellow
243.9581	1.0167	ITI	n/a	n/a	n/a	n/a	n/a	n/a	n/a	n/a
244.9748	0.5167	FIXCROSS	n/a	n/a	n/a	n/a	n/a	n/a	n/a	n/a
245.4914	0.9	INK	39	Neutral	xxxxxxxxx	xxxxxxxxx	zielony	green	incorrect	n/a
246.3682	n/a	RESPONSE	n/a	n/a	n/a	n/a	n/a	n/a	n/a	blue
246.3915	1.0167	ITI	n/a	n/a	n/a	n/a	n/a	n/a	n/a	n/a
247.4081	0.5167	FIXCROSS	n/a	n/a	n/a	n/a	n/a	n/a	n/a	n/a
247.9248	0.6834	INK	40	Incongruent	żółty	yellow	niebieski	blue	hit	n/a
248.5871	n/a	RESPONSE	n/a	n/a	n/a	n/a	n/a	n/a	n/a	blue
248.6081	1.0167	ITI	n/a	n/a	n/a	n/a	n/a	n/a	n/a	n/a
249.6248	0.5167	FIXCROSS	n/a	n/a	n/a	n/a	n/a	n/a	n/a	n/a
250.1415	0.7167	INK	41	Incongruent	niebieski	blue	czerwony	red	hit	n/a
250.8378	n/a	RESPONSE	n/a	n/a	n/a	n/a	n/a	n/a	n/a	red
250.8582	1.0167	ITI	n/a	n/a	n/a	n/a	n/a	n/a	n/a	n/a
251.8748	0.5166	FIXCROSS	n/a	n/a	n/a	n/a	n/a	n/a	n/a	n/a
252.3915	0.9	INK	42	Incongruent	czerwony	red	zielony	green	hit	n/a
253.264	n/a	RESPONSE	n/a	n/a	n/a	n/a	n/a	n/a	n/a	green
253.2915	1.0167	ITI	n/a	n/a	n/a	n/a	n/a	n/a	n/a	n/a
254.3082	0.5167	FIXCROSS	n/a	n/a	n/a	n/a	n/a	n/a	n/a	n/a
254.8249	0.5667	INK	43	Incongruent	żółty	yellow	niebieski	blue	hit	n/a
255.3711	n/a	RESPONSE	n/a	n/a	n/a	n/a	n/a	n/a	n/a	blue
255.3915	1.0167	ITI	n/a	n/a	n/a	n/a	n/a	n/a	n/a	n/a
256.4082	0.5166	FIXCROSS	n/a	n/a	n/a	n/a	n/a	n/a	n/a	n/a
256.9248	0.7167	INK	44	Neutral	xxxxxxxx	xxxxxxxx	zielony	green	hit	n/a
257.6218	n/a	RESPONSE	n/a	n/a	n/a	n/a	n/a	n/a	n/a	green
257.6415	1.0167	ITI	n/a	n/a	n/a	n/a	n/a	n/a	n/a	n/a
258.6582	0.5166	FIXCROSS	n/a	n/a	n/a	n/a	n/a	n/a	n/a	n/a
259.1749	1.0667	INK	45	Incongruent	niebieski	blue	żółty	yellow	hit	n/a
260.2238	n/a	RESPONSE	n/a	n/a	n/a	n/a	n/a	n/a	n/a	yellow
260.2416	1.0167	ITI	n/a	n/a	n/a	n/a	n/a	n/a	n/a	n/a
261.2582	0.5166	FIXCROSS	n/a	n/a	n/a	n/a	n/a	n/a	n/a	n/a
261.7749	0.8	INK	46	Incongruent	niebieski	blue	zielony	green	hit	n/a
262.5544	n/a	RESPONSE	n/a	n/a	n/a	n/a	n/a	n/a	n/a	green
262.5749	1.0166	ITI	n/a	n/a	n/a	n/a	n/a	n/a	n/a	n/a
262.7299	n/a	RESPONSE	n/a	n/a	n/a	n/a	n/a	n/a	n/a	green
263.5916	0.5167	FIXCROSS	n/a	n/a	n/a	n/a	n/a	n/a	n/a	n/a
264.1082	0.5834	INK	47	Incongruent	niebieski	blue	zielony	green	hit	n/a
264.6616	n/a	RESPONSE	n/a	n/a	n/a	n/a	n/a	n/a	n/a	green
264.6916	1.0166	ITI	n/a	n/a	n/a	n/a	n/a	n/a	n/a	n/a
265.7082	0.5167	FIXCROSS	n/a	n/a	n/a	n/a	n/a	n/a	n/a	n/a
266.2249	0.5833	INK	48	Incongruent	zielony	green	żółty	yellow	hit	n/a
266.7845	n/a	RESPONSE	n/a	n/a	n/a	n/a	n/a	n/a	n/a	yellow
266.8083	1.0167	ITI	n/a	n/a	n/a	n/a	n/a	n/a	n/a	n/a
267.825	0.5167	FIXCROSS	n/a	n/a	n/a	n/a	n/a	n/a	n/a	n/a
268.3416	0.6167	INK	49	Incongruent	czerwony	red	żółty	yellow	hit	n/a
268.9395	n/a	RESPONSE	n/a	n/a	n/a	n/a	n/a	n/a	n/a	yellow
268.9583	1.0167	ITI	n/a	n/a	n/a	n/a	n/a	n/a	n/a	n/a
269.975	0.5167	FIXCROSS	n/a	n/a	n/a	n/a	n/a	n/a	n/a	n/a
270.4916	0.6667	INK	50	Neutral	xxxxxxxx	xxxxxxxx	niebieski	blue	hit	n/a
271.1264	n/a	RESPONSE	n/a	n/a	n/a	n/a	n/a	n/a	n/a	blue
271.1583	1.0167	ITI	n/a	n/a	n/a	n/a	n/a	n/a	n/a	n/a
272.175	0.5166	FIXCROSS	n/a	n/a	n/a	n/a	n/a	n/a	n/a	n/a
272.6916	0.7834	INK	51	Neutral	xxxxxxx	xxxxxxx	żółty	yellow	hit	n/a
273.4569	n/a	RESPONSE	n/a	n/a	n/a	n/a	n/a	n/a	n/a	yellow
273.475	1.0167	ITI	n/a	n/a	n/a	n/a	n/a	n/a	n/a	n/a
274.4917	0.5167	FIXCROSS	n/a	n/a	n/a	n/a	n/a	n/a	n/a	n/a
275.0084	0.5	INK	52	Incongruent	żółty	yellow	czerwony	red	hit	n/a
275.4842	n/a	RESPONSE	n/a	n/a	n/a	n/a	n/a	n/a	n/a	red
275.5083	1.0167	ITI	n/a	n/a	n/a	n/a	n/a	n/a	n/a	n/a
276.525	0.5166	FIXCROSS	n/a	n/a	n/a	n/a	n/a	n/a	n/a	n/a
277.0417	0.5167	INK	53	Incongruent	czerwony	red	żółty	yellow	hit	n/a
277.5274	n/a	RESPONSE	n/a	n/a	n/a	n/a	n/a	n/a	n/a	yellow
277.5584	1.0167	ITI	n/a	n/a	n/a	n/a	n/a	n/a	n/a	n/a
278.575	0.5167	FIXCROSS	n/a	n/a	n/a	n/a	n/a	n/a	n/a	n/a
279.0917	0.5333	INK	54	Incongruent	czerwony	red	niebieski	blue	hit	n/a
279.6025	n/a	RESPONSE	n/a	n/a	n/a	n/a	n/a	n/a	n/a	blue
279.625	1.0167	ITI	n/a	n/a	n/a	n/a	n/a	n/a	n/a	n/a
280.6417	0.5167	FIXCROSS	n/a	n/a	n/a	n/a	n/a	n/a	n/a	n/a
281.1584	0.7	INK	55	Neutral	xxxxxxxxx	xxxxxxxxx	zielony	green	hit	n/a
281.8373	n/a	RESPONSE	n/a	n/a	n/a	n/a	n/a	n/a	n/a	green
281.8584	1.0166	ITI	n/a	n/a	n/a	n/a	n/a	n/a	n/a	n/a
282.875	0.5167	FIXCROSS	n/a	n/a	n/a	n/a	n/a	n/a	n/a	n/a
283.3918	1.2833	INK	56	Neutral	xxxxxxxxx	xxxxxxxxx	żółty	yellow	hit	n/a
284.6467	n/a	RESPONSE	n/a	n/a	n/a	n/a	n/a	n/a	n/a	yellow
284.6751	1.0167	ITI	n/a	n/a	n/a	n/a	n/a	n/a	n/a	n/a
285.6918	0.5167	FIXCROSS	n/a	n/a	n/a	n/a	n/a	n/a	n/a	n/a
286.2084	0.6	INK	57	Neutral	xxxxx	xxxxx	czerwony	red	incorrect	n/a
286.7857	n/a	RESPONSE	n/a	n/a	n/a	n/a	n/a	n/a	n/a	green
286.8084	1.0166	ITI	n/a	n/a	n/a	n/a	n/a	n/a	n/a	n/a
287.8251	0.5167	FIXCROSS	n/a	n/a	n/a	n/a	n/a	n/a	n/a	n/a
288.3418	0.7	INK	58	Neutral	xxxxx	xxxxx	niebieski	blue	hit	n/a
289.0205	n/a	RESPONSE	n/a	n/a	n/a	n/a	n/a	n/a	n/a	blue
289.0418	1.0167	ITI	n/a	n/a	n/a	n/a	n/a	n/a	n/a	n/a
290.0585	0.5166	FIXCROSS	n/a	n/a	n/a	n/a	n/a	n/a	n/a	n/a
290.5751	0.65	INK	59	Neutral	xxxxx	xxxxx	czerwony	red	hit	n/a
291.2074	n/a	RESPONSE	n/a	n/a	n/a	n/a	n/a	n/a	n/a	red
291.2251	1.0166	ITI	n/a	n/a	n/a	n/a	n/a	n/a	n/a	n/a
292.2418	0.5167	FIXCROSS	n/a	n/a	n/a	n/a	n/a	n/a	n/a	n/a
292.7585	0.5833	INK	60	Neutral	xxxxx	xxxxx	czerwony	red	hit	n/a
293.3145	n/a	RESPONSE	n/a	n/a	n/a	n/a	n/a	n/a	n/a	red
293.3418	1.0167	ITI	n/a	n/a	n/a	n/a	n/a	n/a	n/a	n/a
294.3585	0.5167	FIXCROSS	n/a	n/a	n/a	n/a	n/a	n/a	n/a	n/a
294.8752	0.7167	INK	61	Neutral	xxxxxxx	xxxxxxx	niebieski	blue	hit	n/a
295.5652	n/a	RESPONSE	n/a	n/a	n/a	n/a	n/a	n/a	n/a	blue
295.5918	1.0167	ITI	n/a	n/a	n/a	n/a	n/a	n/a	n/a	n/a
296.6085	0.5167	FIXCROSS	n/a	n/a	n/a	n/a	n/a	n/a	n/a	n/a
297.1252	0.6667	INK	62	Neutral	xxxxxxx	xxxxxxx	czerwony	red	hit	n/a
297.768	n/a	RESPONSE	n/a	n/a	n/a	n/a	n/a	n/a	n/a	red
297.7919	1.0167	ITI	n/a	n/a	n/a	n/a	n/a	n/a	n/a	n/a
298.8085	0.5166	FIXCROSS	n/a	n/a	n/a	n/a	n/a	n/a	n/a	n/a
299.3252	0.9167	INK	63	Incongruent	niebieski	blue	żółty	yellow	hit	n/a
300.2103	n/a	RESPONSE	n/a	n/a	n/a	n/a	n/a	n/a	n/a	yellow
300.2419	1.0166	ITI	n/a	n/a	n/a	n/a	n/a	n/a	n/a	n/a
301.2585	0.5167	FIXCROSS	n/a	n/a	n/a	n/a	n/a	n/a	n/a	n/a
301.7752	1.1167	INK	64	Incongruent	czerwony	red	zielony	green	incorrect	n/a
302.8601	n/a	RESPONSE	n/a	n/a	n/a	n/a	n/a	n/a	n/a	blue
302.8919	1.0167	ITI	n/a	n/a	n/a	n/a	n/a	n/a	n/a	n/a
303.9086	0.5167	FIXCROSS	n/a	n/a	n/a	n/a	n/a	n/a	n/a	n/a
304.4252	0.9167	INK	65	Incongruent	żółty	yellow	niebieski	blue	hit	n/a
305.3183	n/a	RESPONSE	n/a	n/a	n/a	n/a	n/a	n/a	n/a	blue
305.3419	1.0167	ITI	n/a	n/a	n/a	n/a	n/a	n/a	n/a	n/a
306.3586	0.5167	FIXCROSS	n/a	n/a	n/a	n/a	n/a	n/a	n/a	n/a
306.8753	0.5667	INK	66	Neutral	xxxxxxxxx	xxxxxxxxx	czerwony	red	hit	n/a
307.4094	n/a	RESPONSE	n/a	n/a	n/a	n/a	n/a	n/a	n/a	red
307.4419	1.0166	ITI	n/a	n/a	n/a	n/a	n/a	n/a	n/a	n/a
308.4586	0.5167	FIXCROSS	n/a	n/a	n/a	n/a	n/a	n/a	n/a	n/a
308.9753	0.95	INK	67	Neutral	xxxxxxx	xxxxxxx	niebieski	blue	hit	n/a
309.8995	n/a	RESPONSE	n/a	n/a	n/a	n/a	n/a	n/a	n/a	blue
309.9253	1.0166	ITI	n/a	n/a	n/a	n/a	n/a	n/a	n/a	n/a
310.9419	0.5167	FIXCROSS	n/a	n/a	n/a	n/a	n/a	n/a	n/a	n/a
311.4586	1.0167	INK	68	Neutral	xxxxxxxx	xxxxxxxx	zielony	green	hit	n/a
312.4536	n/a	RESPONSE	n/a	n/a	n/a	n/a	n/a	n/a	n/a	green
312.4753	1.0167	ITI	n/a	n/a	n/a	n/a	n/a	n/a	n/a	n/a
313.492	0.5166	FIXCROSS	n/a	n/a	n/a	n/a	n/a	n/a	n/a	n/a
314.0086	0.5167	INK	69	Incongruent	żółty	yellow	zielony	green	hit	n/a
314.4967	n/a	RESPONSE	n/a	n/a	n/a	n/a	n/a	n/a	n/a	green
314.5253	1.0167	ITI	n/a	n/a	n/a	n/a	n/a	n/a	n/a	n/a
315.542	0.5167	FIXCROSS	n/a	n/a	n/a	n/a	n/a	n/a	n/a	n/a
316.0587	0.75	INK	70	Incongruent	niebieski	blue	żółty	yellow	hit	n/a
316.7794	n/a	RESPONSE	n/a	n/a	n/a	n/a	n/a	n/a	n/a	yellow
316.8087	1.0167	ITI	n/a	n/a	n/a	n/a	n/a	n/a	n/a	n/a
317.8254	0.5166	FIXCROSS	n/a	n/a	n/a	n/a	n/a	n/a	n/a	n/a
318.342	0.8334	INK	71	Incongruent	niebieski	blue	zielony	green	hit	n/a
319.1419	n/a	RESPONSE	n/a	n/a	n/a	n/a	n/a	n/a	n/a	green
319.1754	1.0166	ITI	n/a	n/a	n/a	n/a	n/a	n/a	n/a	n/a
320.192	0.5167	FIXCROSS	n/a	n/a	n/a	n/a	n/a	n/a	n/a	n/a
320.7087	0.9	INK	72	Neutral	xxxxxxx	xxxxxxx	żółty	yellow	hit	n/a
321.5842	n/a	RESPONSE	n/a	n/a	n/a	n/a	n/a	n/a	n/a	yellow
321.6087	1.0833	ITI	n/a	n/a	n/a	n/a	n/a	n/a	n/a	n/a
366.774	n/a	RESPONSE	n/a	n/a	n/a	n/a	n/a	n/a	n/a	n/a
366.8424	1.0167	ITI	n/a	n/a	n/a	n/a	n/a	n/a	n/a	n/a
367.8591	0.5167	FIXCROSS	n/a	n/a	n/a	n/a	n/a	n/a	n/a	n/a
368.3758	1.2833	T_COLOR_NAME	1	Neutral	niebieski	blue	Neutral	Neutral	hit	n/a
369.6314	n/a	RESPONSE	n/a	n/a	n/a	n/a	n/a	n/a	n/a	blue
369.6591	0.5167	FEEDBACK	n/a	n/a	n/a	n/a	n/a	n/a	n/a	n/a
370.1758	1.0166	ITI	n/a	n/a	n/a	n/a	n/a	n/a	n/a	n/a
371.1924	0.5167	FIXCROSS	n/a	n/a	n/a	n/a	n/a	n/a	n/a	n/a
371.7091	0.85	T_COLOR_NAME	2	Incongruent	niebieski	blue	czerwony	red	hit	n/a
372.5366	n/a	RESPONSE	n/a	n/a	n/a	n/a	n/a	n/a	n/a	blue
372.5591	0.5167	FEEDBACK	n/a	n/a	n/a	n/a	n/a	n/a	n/a	n/a
373.0758	1.0167	ITI	n/a	n/a	n/a	n/a	n/a	n/a	n/a	n/a
374.0925	0.5167	FIXCROSS	n/a	n/a	n/a	n/a	n/a	n/a	n/a	n/a
374.6092	1.1333	T_COLOR_NAME	3	Neutral	żółty	yellow	Neutral	Neutral	hit	n/a
375.7132	n/a	RESPONSE	n/a	n/a	n/a	n/a	n/a	n/a	n/a	yellow
375.7425	0.5167	FEEDBACK	n/a	n/a	n/a	n/a	n/a	n/a	n/a	n/a
376.2592	1.0167	ITI	n/a	n/a	n/a	n/a	n/a	n/a	n/a	n/a
377.2759	0.5167	FIXCROSS	n/a	n/a	n/a	n/a	n/a	n/a	n/a	n/a
377.7925	0.85	T_COLOR_NAME	4	Incongruent	czerwony	red	niebieski	blue	hit	n/a
378.6183	n/a	RESPONSE	n/a	n/a	n/a	n/a	n/a	n/a	n/a	red
378.6425	0.5166	FEEDBACK	n/a	n/a	n/a	n/a	n/a	n/a	n/a	n/a
379.1592	1.0167	ITI	n/a	n/a	n/a	n/a	n/a	n/a	n/a	n/a
380.1759	0.5167	FIXCROSS	n/a	n/a	n/a	n/a	n/a	n/a	n/a	n/a
380.6925	0.7667	T_COLOR_NAME	5	Neutral	niebieski	blue	Neutral	Neutral	hit	n/a
381.4277	n/a	RESPONSE	n/a	n/a	n/a	n/a	n/a	n/a	n/a	blue
381.4592	0.5167	FEEDBACK	n/a	n/a	n/a	n/a	n/a	n/a	n/a	n/a
381.9759	1.0166	ITI	n/a	n/a	n/a	n/a	n/a	n/a	n/a	n/a
382.9925	0.5167	FIXCROSS	n/a	n/a	n/a	n/a	n/a	n/a	n/a	n/a
383.5092	0.8833	T_COLOR_NAME	6	Incongruent	czerwony	red	żółty	yellow	hit	n/a
384.3648	n/a	RESPONSE	n/a	n/a	n/a	n/a	n/a	n/a	n/a	red
384.3926	0.5166	FEEDBACK	n/a	n/a	n/a	n/a	n/a	n/a	n/a	n/a
384.9092	1.0167	ITI	n/a	n/a	n/a	n/a	n/a	n/a	n/a	n/a
385.9259	0.5167	FIXCROSS	n/a	n/a	n/a	n/a	n/a	n/a	n/a	n/a
386.4426	0.9	T_COLOR_NAME	7	Incongruent	żółty	yellow	zielony	green	hit	n/a
387.318	n/a	RESPONSE	n/a	n/a	n/a	n/a	n/a	n/a	n/a	yellow
387.3426	0.5167	FEEDBACK	n/a	n/a	n/a	n/a	n/a	n/a	n/a	n/a
387.8593	1.0166	ITI	n/a	n/a	n/a	n/a	n/a	n/a	n/a	n/a
388.8759	0.5167	FIXCROSS	n/a	n/a	n/a	n/a	n/a	n/a	n/a	n/a
389.3926	1.15	T_COLOR_NAME	8	Neutral	zielony	green	Neutral	Neutral	hit	n/a
390.5105	n/a	RESPONSE	n/a	n/a	n/a	n/a	n/a	n/a	n/a	green
390.5426	0.5167	FEEDBACK	n/a	n/a	n/a	n/a	n/a	n/a	n/a	n/a
391.0593	1.0166	ITI	n/a	n/a	n/a	n/a	n/a	n/a	n/a	n/a
392.0759	0.5167	FIXCROSS	n/a	n/a	n/a	n/a	n/a	n/a	n/a	n/a
392.5926	0.9333	T_COLOR_NAME	9	Incongruent	czerwony	red	zielony	green	hit	n/a
393.4955	n/a	RESPONSE	n/a	n/a	n/a	n/a	n/a	n/a	n/a	red
393.526	0.5167	FEEDBACK	n/a	n/a	n/a	n/a	n/a	n/a	n/a	n/a
394.0427	1.0167	ITI	n/a	n/a	n/a	n/a	n/a	n/a	n/a	n/a
395.0593	0.5167	FIXCROSS	n/a	n/a	n/a	n/a	n/a	n/a	n/a	n/a
395.576	0.9	T_COLOR_NAME	10	Neutral	czerwony	red	Neutral	Neutral	hit	n/a
396.4485	n/a	RESPONSE	n/a	n/a	n/a	n/a	n/a	n/a	n/a	red
396.476	0.5167	FEEDBACK	n/a	n/a	n/a	n/a	n/a	n/a	n/a	n/a
396.9927	1.0166	ITI	n/a	n/a	n/a	n/a	n/a	n/a	n/a	n/a
398.0093	0.5167	FIXCROSS	n/a	n/a	n/a	n/a	n/a	n/a	n/a	n/a
398.526	0.7833	T_COLOR_NAME	11	Neutral	czerwony	red	Neutral	Neutral	hit	n/a
399.29	n/a	RESPONSE	n/a	n/a	n/a	n/a	n/a	n/a	n/a	red
399.3093	0.5167	FEEDBACK	n/a	n/a	n/a	n/a	n/a	n/a	n/a	n/a
399.826	1.0167	ITI	n/a	n/a	n/a	n/a	n/a	n/a	n/a	n/a
400.8427	0.5166	FIXCROSS	n/a	n/a	n/a	n/a	n/a	n/a	n/a	n/a
401.3593	0.7333	T_COLOR_NAME	12	Neutral	czerwony	red	Neutral	Neutral	hit	n/a
402.0675	n/a	RESPONSE	n/a	n/a	n/a	n/a	n/a	n/a	n/a	red
402.0927	0.5167	FEEDBACK	n/a	n/a	n/a	n/a	n/a	n/a	n/a	n/a
402.6094	1.0333	ITI	n/a	n/a	n/a	n/a	n/a	n/a	n/a	n/a
408.1013	n/a	RESPONSE	n/a	n/a	n/a	n/a	n/a	n/a	n/a	n/a
408.1594	1.0167	ITI	n/a	n/a	n/a	n/a	n/a	n/a	n/a	n/a
409.1761	0.5166	FIXCROSS	n/a	n/a	n/a	n/a	n/a	n/a	n/a	n/a
409.6927	1.1001	COLOR_NAME	1	Neutral	niebieski	blue	Neutral	Neutral	hit	n/a
410.767	n/a	RESPONSE	n/a	n/a	n/a	n/a	n/a	n/a	n/a	blue
410.7928	1.0167	ITI	n/a	n/a	n/a	n/a	n/a	n/a	n/a	n/a
411.8095	0.5167	FIXCROSS	n/a	n/a	n/a	n/a	n/a	n/a	n/a	n/a
412.3261	0.9666	COLOR_NAME	2	Neutral	zielony	green	Neutral	Neutral	hit	n/a
413.2731	n/a	RESPONSE	n/a	n/a	n/a	n/a	n/a	n/a	n/a	green
413.2928	1.0167	ITI	n/a	n/a	n/a	n/a	n/a	n/a	n/a	n/a
414.3095	0.5167	FIXCROSS	n/a	n/a	n/a	n/a	n/a	n/a	n/a	n/a
414.8262	0.7667	COLOR_NAME	3	Incongruent	czerwony	red	zielony	green	hit	n/a
415.5718	n/a	RESPONSE	n/a	n/a	n/a	n/a	n/a	n/a	n/a	red
415.5928	1.0166	ITI	n/a	n/a	n/a	n/a	n/a	n/a	n/a	n/a
416.6095	0.5167	FIXCROSS	n/a	n/a	n/a	n/a	n/a	n/a	n/a	n/a
417.1262	0.65	COLOR_NAME	4	Neutral	czerwony	red	Neutral	Neutral	hit	n/a
417.7428	n/a	RESPONSE	n/a	n/a	n/a	n/a	n/a	n/a	n/a	red
417.7762	1.0167	ITI	n/a	n/a	n/a	n/a	n/a	n/a	n/a	n/a
418.7929	0.5166	FIXCROSS	n/a	n/a	n/a	n/a	n/a	n/a	n/a	n/a
419.3095	0.6834	COLOR_NAME	5	Incongruent	czerwony	red	niebieski	blue	hit	n/a
419.9616	n/a	RESPONSE	n/a	n/a	n/a	n/a	n/a	n/a	n/a	red
419.9929	1.0167	ITI	n/a	n/a	n/a	n/a	n/a	n/a	n/a	n/a
421.0095	0.5166	FIXCROSS	n/a	n/a	n/a	n/a	n/a	n/a	n/a	n/a
421.5262	0.6167	COLOR_NAME	6	Neutral	czerwony	red	Neutral	Neutral	hit	n/a
422.1165	n/a	RESPONSE	n/a	n/a	n/a	n/a	n/a	n/a	n/a	red
422.1429	1.0166	ITI	n/a	n/a	n/a	n/a	n/a	n/a	n/a	n/a
423.1595	0.5167	FIXCROSS	n/a	n/a	n/a	n/a	n/a	n/a	n/a	n/a
423.6762	1.2167	COLOR_NAME	7	Neutral	żółty	yellow	Neutral	Neutral	hit	n/a
424.8621	n/a	RESPONSE	n/a	n/a	n/a	n/a	n/a	n/a	n/a	yellow
424.8929	1.0167	ITI	n/a	n/a	n/a	n/a	n/a	n/a	n/a	n/a
425.9096	0.5167	FIXCROSS	n/a	n/a	n/a	n/a	n/a	n/a	n/a	n/a
426.4263	0.7667	COLOR_NAME	8	Incongruent	czerwony	red	żółty	yellow	hit	n/a
427.1607	n/a	RESPONSE	n/a	n/a	n/a	n/a	n/a	n/a	n/a	red
427.1929	1.0167	ITI	n/a	n/a	n/a	n/a	n/a	n/a	n/a	n/a
428.2096	0.5167	FIXCROSS	n/a	n/a	n/a	n/a	n/a	n/a	n/a	n/a
428.7263	0.65	COLOR_NAME	9	Incongruent	czerwony	red	niebieski	blue	hit	n/a
429.3477	n/a	RESPONSE	n/a	n/a	n/a	n/a	n/a	n/a	n/a	red
429.3763	1.0166	ITI	n/a	n/a	n/a	n/a	n/a	n/a	n/a	n/a
430.3929	0.5167	FIXCROSS	n/a	n/a	n/a	n/a	n/a	n/a	n/a	n/a
430.9096	0.6167	COLOR_NAME	10	Incongruent	czerwony	red	żółty	yellow	hit	n/a
431.5027	n/a	RESPONSE	n/a	n/a	n/a	n/a	n/a	n/a	n/a	red
431.5263	1.0167	ITI	n/a	n/a	n/a	n/a	n/a	n/a	n/a	n/a
432.543	0.5167	FIXCROSS	n/a	n/a	n/a	n/a	n/a	n/a	n/a	n/a
433.0596	0.5833	COLOR_NAME	11	Neutral	czerwony	red	Neutral	Neutral	hit	n/a
433.6097	n/a	RESPONSE	n/a	n/a	n/a	n/a	n/a	n/a	n/a	red
433.643	1.0167	ITI	n/a	n/a	n/a	n/a	n/a	n/a	n/a	n/a
434.6597	0.5167	FIXCROSS	n/a	n/a	n/a	n/a	n/a	n/a	n/a	n/a
435.1763	0.7167	COLOR_NAME	12	Neutral	niebieski	blue	Neutral	Neutral	hit	n/a
435.8604	n/a	RESPONSE	n/a	n/a	n/a	n/a	n/a	n/a	n/a	blue
435.893	1.0167	ITI	n/a	n/a	n/a	n/a	n/a	n/a	n/a	n/a
436.9097	0.5166	FIXCROSS	n/a	n/a	n/a	n/a	n/a	n/a	n/a	n/a
437.4263	0.6167	COLOR_NAME	13	Neutral	niebieski	blue	Neutral	Neutral	hit	n/a
438.0153	n/a	RESPONSE	n/a	n/a	n/a	n/a	n/a	n/a	n/a	blue
438.043	1.0167	ITI	n/a	n/a	n/a	n/a	n/a	n/a	n/a	n/a
439.0597	0.5166	FIXCROSS	n/a	n/a	n/a	n/a	n/a	n/a	n/a	n/a
439.5763	0.6834	COLOR_NAME	14	Neutral	zielony	green	Neutral	Neutral	incorrect	n/a
440.2342	n/a	RESPONSE	n/a	n/a	n/a	n/a	n/a	n/a	n/a	yellow
440.2597	1.0166	ITI	n/a	n/a	n/a	n/a	n/a	n/a	n/a	n/a
441.2763	0.5167	FIXCROSS	n/a	n/a	n/a	n/a	n/a	n/a	n/a	n/a
441.793	0.7166	COLOR_NAME	15	Neutral	zielony	green	Neutral	Neutral	incorrect	n/a
442.4849	n/a	RESPONSE	n/a	n/a	n/a	n/a	n/a	n/a	n/a	yellow
442.5097	1.0167	ITI	n/a	n/a	n/a	n/a	n/a	n/a	n/a	n/a
443.5264	0.5167	FIXCROSS	n/a	n/a	n/a	n/a	n/a	n/a	n/a	n/a
444.0431	0.9333	COLOR_NAME	16	Neutral	niebieski	blue	Neutral	Neutral	hit	n/a
444.9432	n/a	RESPONSE	n/a	n/a	n/a	n/a	n/a	n/a	n/a	blue
444.9764	1.0167	ITI	n/a	n/a	n/a	n/a	n/a	n/a	n/a	n/a
445.9931	0.5167	FIXCROSS	n/a	n/a	n/a	n/a	n/a	n/a	n/a	n/a
446.5097	0.75	COLOR_NAME	17	Incongruent	żółty	yellow	czerwony	red	hit	n/a
447.2417	n/a	RESPONSE	n/a	n/a	n/a	n/a	n/a	n/a	n/a	yellow
447.2598	1.0167	ITI	n/a	n/a	n/a	n/a	n/a	n/a	n/a	n/a
448.2764	0.5166	FIXCROSS	n/a	n/a	n/a	n/a	n/a	n/a	n/a	n/a
448.7931	0.6667	COLOR_NAME	18	Incongruent	żółty	yellow	niebieski	blue	hit	n/a
449.4286	n/a	RESPONSE	n/a	n/a	n/a	n/a	n/a	n/a	n/a	yellow
449.4598	1.0167	ITI	n/a	n/a	n/a	n/a	n/a	n/a	n/a	n/a
450.4764	0.5167	FIXCROSS	n/a	n/a	n/a	n/a	n/a	n/a	n/a	n/a
450.9931	0.5833	COLOR_NAME	19	Incongruent	czerwony	red	niebieski	blue	hit	n/a
451.5517	n/a	RESPONSE	n/a	n/a	n/a	n/a	n/a	n/a	n/a	red
451.5764	1.0167	ITI	n/a	n/a	n/a	n/a	n/a	n/a	n/a	n/a
452.5931	0.5167	FIXCROSS	n/a	n/a	n/a	n/a	n/a	n/a	n/a	n/a
453.1098	0.9167	COLOR_NAME	20	Neutral	żółty	yellow	Neutral	Neutral	hit	n/a
453.9939	n/a	RESPONSE	n/a	n/a	n/a	n/a	n/a	n/a	n/a	yellow
454.0265	1.0166	ITI	n/a	n/a	n/a	n/a	n/a	n/a	n/a	n/a
455.0431	0.5167	FIXCROSS	n/a	n/a	n/a	n/a	n/a	n/a	n/a	n/a
455.5598	0.95	COLOR_NAME	21	Neutral	zielony	green	Neutral	Neutral	hit	n/a
456.4842	n/a	RESPONSE	n/a	n/a	n/a	n/a	n/a	n/a	n/a	green
456.5098	1.0167	ITI	n/a	n/a	n/a	n/a	n/a	n/a	n/a	n/a
457.5265	0.5167	FIXCROSS	n/a	n/a	n/a	n/a	n/a	n/a	n/a	n/a
458.0432	0.8833	COLOR_NAME	22	Incongruent	niebieski	blue	żółty	yellow	hit	n/a
458.8945	n/a	RESPONSE	n/a	n/a	n/a	n/a	n/a	n/a	n/a	blue
458.9265	1.0167	ITI	n/a	n/a	n/a	n/a	n/a	n/a	n/a	n/a
459.9432	0.5167	FIXCROSS	n/a	n/a	n/a	n/a	n/a	n/a	n/a	n/a
460.4599	0.5833	COLOR_NAME	23	Neutral	niebieski	blue	Neutral	Neutral	hit	n/a
461.0175	n/a	RESPONSE	n/a	n/a	n/a	n/a	n/a	n/a	n/a	blue
461.0432	1.0167	ITI	n/a	n/a	n/a	n/a	n/a	n/a	n/a	n/a
462.0599	0.5167	FIXCROSS	n/a	n/a	n/a	n/a	n/a	n/a	n/a	n/a
462.5765	1.2667	COLOR_NAME	24	Incongruent	żółty	yellow	czerwony	red	hit	n/a
463.8109	n/a	RESPONSE	n/a	n/a	n/a	n/a	n/a	n/a	n/a	yellow
463.8432	1.0167	ITI	n/a	n/a	n/a	n/a	n/a	n/a	n/a	n/a
464.8599	0.5167	FIXCROSS	n/a	n/a	n/a	n/a	n/a	n/a	n/a	n/a
465.3766	0.6	COLOR_NAME	25	Incongruent	żółty	yellow	niebieski	blue	hit	n/a
465.95	n/a	RESPONSE	n/a	n/a	n/a	n/a	n/a	n/a	n/a	yellow
465.9766	1.0167	ITI	n/a	n/a	n/a	n/a	n/a	n/a	n/a	n/a
466.9932	0.5167	FIXCROSS	n/a	n/a	n/a	n/a	n/a	n/a	n/a	n/a
467.5099	0.9833	COLOR_NAME	26	Neutral	zielony	green	Neutral	Neutral	hit	n/a
468.4721	n/a	RESPONSE	n/a	n/a	n/a	n/a	n/a	n/a	n/a	green
468.4932	1.0167	ITI	n/a	n/a	n/a	n/a	n/a	n/a	n/a	n/a
469.5099	0.5167	FIXCROSS	n/a	n/a	n/a	n/a	n/a	n/a	n/a	n/a
470.0266	0.7334	COLOR_NAME	27	Neutral	żółty	yellow	Neutral	Neutral	hit	n/a
470.7389	n/a	RESPONSE	n/a	n/a	n/a	n/a	n/a	n/a	n/a	yellow
470.7599	1.0167	ITI	n/a	n/a	n/a	n/a	n/a	n/a	n/a	n/a
470.7707	n/a	RESPONSE	n/a	n/a	n/a	n/a	n/a	n/a	n/a	green
471.7766	0.5167	FIXCROSS	n/a	n/a	n/a	n/a	n/a	n/a	n/a	n/a
472.2933	0.8833	COLOR_NAME	28	Neutral	niebieski	blue	Neutral	Neutral	hit	n/a
473.1492	n/a	RESPONSE	n/a	n/a	n/a	n/a	n/a	n/a	n/a	blue
473.1766	1.0167	ITI	n/a	n/a	n/a	n/a	n/a	n/a	n/a	n/a
474.1933	0.5167	FIXCROSS	n/a	n/a	n/a	n/a	n/a	n/a	n/a	n/a
474.71	0.5667	COLOR_NAME	29	Incongruent	niebieski	blue	zielony	green	hit	n/a
475.2563	n/a	RESPONSE	n/a	n/a	n/a	n/a	n/a	n/a	n/a	blue
475.2766	1.0167	ITI	n/a	n/a	n/a	n/a	n/a	n/a	n/a	n/a
476.2933	0.5167	FIXCROSS	n/a	n/a	n/a	n/a	n/a	n/a	n/a	n/a
476.81	0.9666	COLOR_NAME	30	Incongruent	zielony	green	żółty	yellow	hit	n/a
477.7464	n/a	RESPONSE	n/a	n/a	n/a	n/a	n/a	n/a	n/a	green
477.7766	1.0167	ITI	n/a	n/a	n/a	n/a	n/a	n/a	n/a	n/a
478.7933	0.5167	FIXCROSS	n/a	n/a	n/a	n/a	n/a	n/a	n/a	n/a
479.31	0.55	COLOR_NAME	31	Incongruent	niebieski	blue	czerwony	red	hit	n/a
479.8375	n/a	RESPONSE	n/a	n/a	n/a	n/a	n/a	n/a	n/a	blue
479.86	1.0167	ITI	n/a	n/a	n/a	n/a	n/a	n/a	n/a	n/a
480.8767	0.5166	FIXCROSS	n/a	n/a	n/a	n/a	n/a	n/a	n/a	n/a
481.3933	0.9	COLOR_NAME	32	Incongruent	czerwony	red	zielony	green	hit	n/a
482.2638	n/a	RESPONSE	n/a	n/a	n/a	n/a	n/a	n/a	n/a	red
482.2933	1.0167	ITI	n/a	n/a	n/a	n/a	n/a	n/a	n/a	n/a
483.31	0.5166	FIXCROSS	n/a	n/a	n/a	n/a	n/a	n/a	n/a	n/a
483.8267	0.9834	COLOR_NAME	33	Incongruent	zielony	green	czerwony	red	hit	n/a
484.7859	n/a	RESPONSE	n/a	n/a	n/a	n/a	n/a	n/a	n/a	green
484.8101	1.0166	ITI	n/a	n/a	n/a	n/a	n/a	n/a	n/a	n/a
485.8267	0.5167	FIXCROSS	n/a	n/a	n/a	n/a	n/a	n/a	n/a	n/a
486.3434	0.7	COLOR_NAME	34	Incongruent	zielony	green	czerwony	red	hit	n/a
487.0206	n/a	RESPONSE	n/a	n/a	n/a	n/a	n/a	n/a	n/a	green
487.0434	1.0166	ITI	n/a	n/a	n/a	n/a	n/a	n/a	n/a	n/a
488.06	0.5167	FIXCROSS	n/a	n/a	n/a	n/a	n/a	n/a	n/a	n/a
488.5768	0.7167	COLOR_NAME	35	Neutral	żółty	yellow	Neutral	Neutral	hit	n/a
489.2714	n/a	RESPONSE	n/a	n/a	n/a	n/a	n/a	n/a	n/a	yellow
489.2934	1.0167	ITI	n/a	n/a	n/a	n/a	n/a	n/a	n/a	n/a
490.3101	0.5166	FIXCROSS	n/a	n/a	n/a	n/a	n/a	n/a	n/a	n/a
490.8267	1.15	COLOR_NAME	36	Neutral	czerwony	red	Neutral	Neutral	hit	n/a
491.9531	n/a	RESPONSE	n/a	n/a	n/a	n/a	n/a	n/a	n/a	red
491.9768	1.0167	ITI	n/a	n/a	n/a	n/a	n/a	n/a	n/a	n/a
492.9935	0.5167	FIXCROSS	n/a	n/a	n/a	n/a	n/a	n/a	n/a	n/a
493.5101	0.9167	COLOR_NAME	37	Neutral	żółty	yellow	Neutral	Neutral	hit	n/a
494.3955	n/a	RESPONSE	n/a	n/a	n/a	n/a	n/a	n/a	n/a	yellow
494.4268	1.0167	ITI	n/a	n/a	n/a	n/a	n/a	n/a	n/a	n/a
495.4435	0.5166	FIXCROSS	n/a	n/a	n/a	n/a	n/a	n/a	n/a	n/a
495.9601	0.6834	COLOR_NAME	38	Neutral	żółty	yellow	Neutral	Neutral	hit	n/a
496.6143	n/a	RESPONSE	n/a	n/a	n/a	n/a	n/a	n/a	n/a	yellow
496.6435	1.0167	ITI	n/a	n/a	n/a	n/a	n/a	n/a	n/a	n/a
497.6602	0.5167	FIXCROSS	n/a	n/a	n/a	n/a	n/a	n/a	n/a	n/a
498.1768	0.8667	COLOR_NAME	39	Neutral	czerwony	red	Neutral	Neutral	hit	n/a
499.0246	n/a	RESPONSE	n/a	n/a	n/a	n/a	n/a	n/a	n/a	red
499.0435	1.0167	ITI	n/a	n/a	n/a	n/a	n/a	n/a	n/a	n/a
500.0602	0.5167	FIXCROSS	n/a	n/a	n/a	n/a	n/a	n/a	n/a	n/a
500.5769	0.9333	COLOR_NAME	40	Incongruent	zielony	green	niebieski	blue	hit	n/a
501.4829	n/a	RESPONSE	n/a	n/a	n/a	n/a	n/a	n/a	n/a	green
501.5102	1.0167	ITI	n/a	n/a	n/a	n/a	n/a	n/a	n/a	n/a
502.5269	0.5167	FIXCROSS	n/a	n/a	n/a	n/a	n/a	n/a	n/a	n/a
503.0435	0.9	COLOR_NAME	41	Incongruent	żółty	yellow	zielony	green	hit	n/a
503.9251	n/a	RESPONSE	n/a	n/a	n/a	n/a	n/a	n/a	n/a	yellow
503.9436	1.0166	ITI	n/a	n/a	n/a	n/a	n/a	n/a	n/a	n/a
504.9602	0.5167	FIXCROSS	n/a	n/a	n/a	n/a	n/a	n/a	n/a	n/a
505.4769	1.6	COLOR_NAME	42	Incongruent	zielony	green	żółty	yellow	hit	n/a
507.0538	n/a	RESPONSE	n/a	n/a	n/a	n/a	n/a	n/a	n/a	green
507.0769	1.0166	ITI	n/a	n/a	n/a	n/a	n/a	n/a	n/a	n/a
508.0936	0.5167	FIXCROSS	n/a	n/a	n/a	n/a	n/a	n/a	n/a	n/a
508.6103	0.7166	COLOR_NAME	43	Incongruent	zielony	green	czerwony	red	hit	n/a
509.3045	n/a	RESPONSE	n/a	n/a	n/a	n/a	n/a	n/a	n/a	green
509.3269	1.0167	ITI	n/a	n/a	n/a	n/a	n/a	n/a	n/a	n/a
510.3436	0.5167	FIXCROSS	n/a	n/a	n/a	n/a	n/a	n/a	n/a	n/a
510.8603	0.95	COLOR_NAME	44	Neutral	czerwony	red	Neutral	Neutral	hit	n/a
511.7788	n/a	RESPONSE	n/a	n/a	n/a	n/a	n/a	n/a	n/a	red
511.8103	1.0167	ITI	n/a	n/a	n/a	n/a	n/a	n/a	n/a	n/a
512.827	0.5166	FIXCROSS	n/a	n/a	n/a	n/a	n/a	n/a	n/a	n/a
513.3436	2.0167	COLOR_NAME	45	Neutral	zielony	green	Neutral	Neutral	hit	n/a
515.3383	n/a	RESPONSE	n/a	n/a	n/a	n/a	n/a	n/a	n/a	green
515.3603	1.0167	ITI	n/a	n/a	n/a	n/a	n/a	n/a	n/a	n/a
516.377	0.5167	FIXCROSS	n/a	n/a	n/a	n/a	n/a	n/a	n/a	n/a
516.8937	0.7834	COLOR_NAME	46	Incongruent	czerwony	red	zielony	green	hit	n/a
517.6529	n/a	RESPONSE	n/a	n/a	n/a	n/a	n/a	n/a	n/a	red
517.677	1.0167	ITI	n/a	n/a	n/a	n/a	n/a	n/a	n/a	n/a
518.6937	0.5167	FIXCROSS	n/a	n/a	n/a	n/a	n/a	n/a	n/a	n/a
519.2103	0.9	COLOR_NAME	47	Neutral	żółty	yellow	Neutral	Neutral	hit	n/a
520.0793	n/a	RESPONSE	n/a	n/a	n/a	n/a	n/a	n/a	n/a	yellow
520.1104	1.0167	ITI	n/a	n/a	n/a	n/a	n/a	n/a	n/a	n/a
521.127	0.5167	FIXCROSS	n/a	n/a	n/a	n/a	n/a	n/a	n/a	n/a
521.6437	0.5667	COLOR_NAME	48	Neutral	żółty	yellow	Neutral	Neutral	hit	n/a
522.1864	n/a	RESPONSE	n/a	n/a	n/a	n/a	n/a	n/a	n/a	yellow
522.2104	1.0167	ITI	n/a	n/a	n/a	n/a	n/a	n/a	n/a	n/a
523.227	0.5167	FIXCROSS	n/a	n/a	n/a	n/a	n/a	n/a	n/a	n/a
523.7437	1.4	COLOR_NAME	49	Neutral	niebieski	blue	Neutral	Neutral	hit	n/a
525.1235	n/a	RESPONSE	n/a	n/a	n/a	n/a	n/a	n/a	n/a	blue
525.1437	1.0167	ITI	n/a	n/a	n/a	n/a	n/a	n/a	n/a	n/a
526.1604	0.5166	FIXCROSS	n/a	n/a	n/a	n/a	n/a	n/a	n/a	n/a
526.677	0.6834	COLOR_NAME	50	Incongruent	niebieski	blue	żółty	yellow	hit	n/a
527.3263	n/a	RESPONSE	n/a	n/a	n/a	n/a	n/a	n/a	n/a	blue
527.3604	1.0166	ITI	n/a	n/a	n/a	n/a	n/a	n/a	n/a	n/a
528.3771	0.5167	FIXCROSS	n/a	n/a	n/a	n/a	n/a	n/a	n/a	n/a
528.8937	0.5	COLOR_NAME	51	Incongruent	niebieski	blue	żółty	yellow	hit	n/a
529.3696	n/a	RESPONSE	n/a	n/a	n/a	n/a	n/a	n/a	n/a	blue
529.3938	1.0167	ITI	n/a	n/a	n/a	n/a	n/a	n/a	n/a	n/a
530.4104	0.5167	FIXCROSS	n/a	n/a	n/a	n/a	n/a	n/a	n/a	n/a
530.9271	0.5333	COLOR_NAME	52	Neutral	niebieski	blue	Neutral	Neutral	hit	n/a
531.4288	n/a	RESPONSE	n/a	n/a	n/a	n/a	n/a	n/a	n/a	blue
531.4604	1.0167	ITI	n/a	n/a	n/a	n/a	n/a	n/a	n/a	n/a
532.4771	0.5167	FIXCROSS	n/a	n/a	n/a	n/a	n/a	n/a	n/a	n/a
532.9938	0.5667	COLOR_NAME	53	Incongruent	niebieski	blue	czerwony	red	hit	n/a
533.5359	n/a	RESPONSE	n/a	n/a	n/a	n/a	n/a	n/a	n/a	blue
533.5605	1.0166	ITI	n/a	n/a	n/a	n/a	n/a	n/a	n/a	n/a
534.5771	0.5167	FIXCROSS	n/a	n/a	n/a	n/a	n/a	n/a	n/a	n/a
535.0938	0.8667	COLOR_NAME	54	Incongruent	zielony	green	żółty	yellow	hit	n/a
535.9302	n/a	RESPONSE	n/a	n/a	n/a	n/a	n/a	n/a	n/a	green
535.9605	1.0167	ITI	n/a	n/a	n/a	n/a	n/a	n/a	n/a	n/a
536.9771	0.5166	FIXCROSS	n/a	n/a	n/a	n/a	n/a	n/a	n/a	n/a
537.4938	0.7667	COLOR_NAME	55	Incongruent	czerwony	red	żółty	yellow	hit	n/a
538.2288	n/a	RESPONSE	n/a	n/a	n/a	n/a	n/a	n/a	n/a	red
538.2605	1.0167	ITI	n/a	n/a	n/a	n/a	n/a	n/a	n/a	n/a
539.2772	0.5167	FIXCROSS	n/a	n/a	n/a	n/a	n/a	n/a	n/a	n/a
539.7938	0.9667	COLOR_NAME	56	Neutral	zielony	green	Neutral	Neutral	incorrect	n/a
540.735	n/a	RESPONSE	n/a	n/a	n/a	n/a	n/a	n/a	n/a	blue
540.7605	1.0167	ITI	n/a	n/a	n/a	n/a	n/a	n/a	n/a	n/a
541.7772	0.5167	FIXCROSS	n/a	n/a	n/a	n/a	n/a	n/a	n/a	n/a
542.2939	0.65	COLOR_NAME	57	Neutral	żółty	yellow	Neutral	Neutral	hit	n/a
542.9218	n/a	RESPONSE	n/a	n/a	n/a	n/a	n/a	n/a	n/a	yellow
542.9439	1.0167	ITI	n/a	n/a	n/a	n/a	n/a	n/a	n/a	n/a
543.9606	0.5167	FIXCROSS	n/a	n/a	n/a	n/a	n/a	n/a	n/a	n/a
544.4772	0.5667	COLOR_NAME	58	Incongruent	żółty	yellow	zielony	green	hit	n/a
545.0129	n/a	RESPONSE	n/a	n/a	n/a	n/a	n/a	n/a	n/a	yellow
545.0439	1.0167	ITI	n/a	n/a	n/a	n/a	n/a	n/a	n/a	n/a
546.0606	0.5166	FIXCROSS	n/a	n/a	n/a	n/a	n/a	n/a	n/a	n/a
546.5772	0.9	COLOR_NAME	59	Incongruent	zielony	green	niebieski	blue	hit	n/a
547.4552	n/a	RESPONSE	n/a	n/a	n/a	n/a	n/a	n/a	n/a	green
547.4772	1.0166	ITI	n/a	n/a	n/a	n/a	n/a	n/a	n/a	n/a
548.4939	0.5167	FIXCROSS	n/a	n/a	n/a	n/a	n/a	n/a	n/a	n/a
549.0106	0.6	COLOR_NAME	60	Neutral	zielony	green	Neutral	Neutral	hit	n/a
549.5783	n/a	RESPONSE	n/a	n/a	n/a	n/a	n/a	n/a	n/a	green
549.6106	1.0167	ITI	n/a	n/a	n/a	n/a	n/a	n/a	n/a	n/a
550.6273	0.5167	FIXCROSS	n/a	n/a	n/a	n/a	n/a	n/a	n/a	n/a
551.1439	0.6333	COLOR_NAME	61	Neutral	niebieski	blue	Neutral	Neutral	hit	n/a
551.7492	n/a	RESPONSE	n/a	n/a	n/a	n/a	n/a	n/a	n/a	blue
551.7773	1.0166	ITI	n/a	n/a	n/a	n/a	n/a	n/a	n/a	n/a
552.7939	0.5167	FIXCROSS	n/a	n/a	n/a	n/a	n/a	n/a	n/a	n/a
553.3106	0.6333	COLOR_NAME	62	Neutral	czerwony	red	Neutral	Neutral	hit	n/a
553.9201	n/a	RESPONSE	n/a	n/a	n/a	n/a	n/a	n/a	n/a	red
553.944	1.0166	ITI	n/a	n/a	n/a	n/a	n/a	n/a	n/a	n/a
554.9606	0.5167	FIXCROSS	n/a	n/a	n/a	n/a	n/a	n/a	n/a	n/a
555.4773	0.6667	COLOR_NAME	63	Neutral	czerwony	red	Neutral	Neutral	hit	n/a
556.1229	n/a	RESPONSE	n/a	n/a	n/a	n/a	n/a	n/a	n/a	red
556.144	1.0166	ITI	n/a	n/a	n/a	n/a	n/a	n/a	n/a	n/a
557.1606	0.5167	FIXCROSS	n/a	n/a	n/a	n/a	n/a	n/a	n/a	n/a
557.6773	0.6167	COLOR_NAME	64	Neutral	czerwony	red	Neutral	Neutral	hit	n/a
558.2619	n/a	RESPONSE	n/a	n/a	n/a	n/a	n/a	n/a	n/a	red
558.294	1.0167	ITI	n/a	n/a	n/a	n/a	n/a	n/a	n/a	n/a
559.3107	0.5166	FIXCROSS	n/a	n/a	n/a	n/a	n/a	n/a	n/a	n/a
559.8273	0.7667	COLOR_NAME	65	Incongruent	żółty	yellow	niebieski	blue	hit	n/a
560.5604	n/a	RESPONSE	n/a	n/a	n/a	n/a	n/a	n/a	n/a	yellow
560.594	1.0167	ITI	n/a	n/a	n/a	n/a	n/a	n/a	n/a	n/a
561.6107	0.5167	FIXCROSS	n/a	n/a	n/a	n/a	n/a	n/a	n/a	n/a
562.1274	1.6	COLOR_NAME	66	Incongruent	niebieski	blue	czerwony	red	hit	n/a
563.7052	n/a	RESPONSE	n/a	n/a	n/a	n/a	n/a	n/a	n/a	blue
563.7274	1.0166	ITI	n/a	n/a	n/a	n/a	n/a	n/a	n/a	n/a
564.744	0.5167	FIXCROSS	n/a	n/a	n/a	n/a	n/a	n/a	n/a	n/a
565.2607	0.6833	COLOR_NAME	67	Incongruent	żółty	yellow	czerwony	red	hit	n/a
565.9239	n/a	RESPONSE	n/a	n/a	n/a	n/a	n/a	n/a	n/a	yellow
565.9441	1.0167	ITI	n/a	n/a	n/a	n/a	n/a	n/a	n/a	n/a
566.9607	0.5167	FIXCROSS	n/a	n/a	n/a	n/a	n/a	n/a	n/a	n/a
567.4774	0.6167	COLOR_NAME	68	Incongruent	żółty	yellow	zielony	green	hit	n/a
568.0629	n/a	RESPONSE	n/a	n/a	n/a	n/a	n/a	n/a	n/a	yellow
568.0941	1.0167	ITI	n/a	n/a	n/a	n/a	n/a	n/a	n/a	n/a
569.1107	0.5167	FIXCROSS	n/a	n/a	n/a	n/a	n/a	n/a	n/a	n/a
569.6274	1.3667	COLOR_NAME	69	Incongruent	zielony	green	niebieski	blue	hit	n/a
570.9681	n/a	RESPONSE	n/a	n/a	n/a	n/a	n/a	n/a	n/a	green
570.9941	1.0167	ITI	n/a	n/a	n/a	n/a	n/a	n/a	n/a	n/a
572.0108	0.5167	FIXCROSS	n/a	n/a	n/a	n/a	n/a	n/a	n/a	n/a
572.5274	0.6667	COLOR_NAME	70	Neutral	zielony	green	Neutral	Neutral	hit	n/a
573.171	n/a	RESPONSE	n/a	n/a	n/a	n/a	n/a	n/a	n/a	green
573.1941	1.0167	ITI	n/a	n/a	n/a	n/a	n/a	n/a	n/a	n/a
574.2108	0.5166	FIXCROSS	n/a	n/a	n/a	n/a	n/a	n/a	n/a	n/a
574.7274	0.7501	COLOR_NAME	71	Incongruent	niebieski	blue	zielony	green	hit	n/a
575.4535	n/a	RESPONSE	n/a	n/a	n/a	n/a	n/a	n/a	n/a	blue
575.4775	1.0167	ITI	n/a	n/a	n/a	n/a	n/a	n/a	n/a	n/a
576.4941	0.5167	FIXCROSS	n/a	n/a	n/a	n/a	n/a	n/a	n/a	n/a
577.0108	0.55	COLOR_NAME	72	Incongruent	niebieski	blue	zielony	green	hit	n/a
577.5288	n/a	RESPONSE	n/a	n/a	n/a	n/a	n/a	n/a	n/a	blue
577.5608	1.0333	ITI	n/a	n/a	n/a	n/a	n/a	n/a	n/a	n/a
596.2368	n/a	RESPONSE	n/a	n/a	n/a	n/a	n/a	n/a	n/a	n/a
