onset	duration	condition	trial_type	braille_stimulus	response_val	response_type
2.011	2.008	LEXICAL_DECISION	CUE	n/a	n/a	n/a
7.011	1.008	LEXICAL_DECISION	FIXCROSS	n/a	n/a	n/a
8.027	5.008	LEXICAL_DECISION	PSEUDOWORD	SES-TP-1_TASK-LDTTACTBRA_WORD-SEMA	n/a	n/a
12.494	n/a	LEXICAL_DECISION	RESPONSE	n/a	NO	CORRECT_REJECTION
15.06	1.009	LEXICAL_DECISION	FIXCROSS	n/a	n/a	n/a
16.078	5.008	LEXICAL_DECISION	WORD	SES-TP-1_TASK-LDTTACTBRA_WORD-TYPU	n/a	n/a
19.766	n/a	LEXICAL_DECISION	RESPONSE	n/a	YES	HIT
23.111	1.008	LEXICAL_DECISION	FIXCROSS	n/a	n/a	n/a
24.128	5.008	LEXICAL_DECISION	WORD	SES-TP-1_TASK-LDTTACTBRA_WORD-STEK	n/a	n/a
27.44	n/a	LEXICAL_DECISION	RESPONSE	n/a	YES	HIT
31.16	1.009	LEXICAL_DECISION	FIXCROSS	n/a	n/a	n/a
32.178	5.008	LEXICAL_DECISION	PSEUDOWORD	SES-TP-1_TASK-LDTTACTBRA_WORD-LIŁCU	n/a	n/a
36.261	n/a	LEXICAL_DECISION	RESPONSE	n/a	NO	CORRECT_REJECTION
39.211	1.008	LEXICAL_DECISION	FIXCROSS	n/a	n/a	n/a
40.228	5.008	LEXICAL_DECISION	WORD	SES-TP-1_TASK-LDTTACTBRA_WORD-TOPI	n/a	n/a
43.856	n/a	LEXICAL_DECISION	RESPONSE	n/a	NO	MISS
49.269	2.008	6_DOT_DETECTION	CUE	n/a	n/a	n/a
54.269	1.008	6_DOT_DETECTION	FIXCROSS	n/a	n/a	n/a
55.286	5.008	6_DOT_DETECTION	NO_6-DOT	SES-TP-1_TASK-LDTTACTBRA_WORD-KŁMLK	n/a	n/a
59.873	n/a	6_DOT_DETECTION	RESPONSE	n/a	NO	CORRECT_REJECTION
62.319	1.008	6_DOT_DETECTION	FIXCROSS	n/a	n/a	n/a
63.336	5.008	6_DOT_DETECTION	NO_6-DOT	SES-TP-1_TASK-LDTTACTBRA_WORD-PŁKL	n/a	n/a
68.055	n/a	6_DOT_DETECTION	RESPONSE	n/a	NO	CORRECT_REJECTION
70.369	1.008	6_DOT_DETECTION	FIXCROSS	n/a	n/a	n/a
71.386	5.008	6_DOT_DETECTION	6-DOT	SES-TP-1_TASK-LDTTACTBRA_WORD-#M#ŁS	n/a	n/a
74.963	n/a	6_DOT_DETECTION	RESPONSE	n/a	YES	HIT
78.419	1.008	6_DOT_DETECTION	FIXCROSS	n/a	n/a	n/a
79.436	5.008	6_DOT_DETECTION	6-DOT	SES-TP-1_TASK-LDTTACTBRA_WORD-KB##	n/a	n/a
83.387	n/a	6_DOT_DETECTION	RESPONSE	n/a	YES	HIT
86.469	1.008	6_DOT_DETECTION	FIXCROSS	n/a	n/a	n/a
87.486	5.008	6_DOT_DETECTION	NO_6-DOT	SES-TP-1_TASK-LDTTACTBRA_WORD-TKLKŁ	n/a	n/a
91.633	n/a	6_DOT_DETECTION	RESPONSE	n/a	NO	CORRECT_REJECTION
95.528	2.008	LEXICAL_DECISION	CUE	n/a	n/a	n/a
100.528	1.008	LEXICAL_DECISION	FIXCROSS	n/a	n/a	n/a
101.544	5.009	LEXICAL_DECISION	PSEUDOWORD	SES-TP-1_TASK-LDTTACTBRA_WORD-BYLU	n/a	n/a
104.475	n/a	LEXICAL_DECISION	RESPONSE	n/a	YES	FALSE_ALARM
108.577	1.009	LEXICAL_DECISION	FIXCROSS	n/a	n/a	n/a
109.594	5.008	LEXICAL_DECISION	PSEUDOWORD	SES-TP-1_TASK-LDTTACTBRA_WORD-OKCY	n/a	n/a
114.006	n/a	LEXICAL_DECISION	RESPONSE	n/a	NO	CORRECT_REJECTION
116.627	1.009	LEXICAL_DECISION	FIXCROSS	n/a	n/a	n/a
117.644	5.008	LEXICAL_DECISION	PSEUDOWORD	SES-TP-1_TASK-LDTTACTBRA_WORD-DOAST	n/a	n/a
121.93	n/a	LEXICAL_DECISION	RESPONSE	n/a	NO	CORRECT_REJECTION
124.678	1.008	LEXICAL_DECISION	FIXCROSS	n/a	n/a	n/a
125.694	5.008	LEXICAL_DECISION	WORD	SES-TP-1_TASK-LDTTACTBRA_WORD-SMOK	n/a	n/a
128.867	n/a	LEXICAL_DECISION	RESPONSE	n/a	YES	HIT
132.728	1.008	LEXICAL_DECISION	FIXCROSS	n/a	n/a	n/a
133.744	5.008	LEXICAL_DECISION	WORD	SES-TP-1_TASK-LDTTACTBRA_WORD-AKT	n/a	n/a
137.421	n/a	LEXICAL_DECISION	RESPONSE	n/a	NO	MISS
142.286	2.008	6_DOT_DETECTION	CUE	n/a	n/a	n/a
146.786	1.008	6_DOT_DETECTION	FIXCROSS	n/a	n/a	n/a
147.803	5.008	6_DOT_DETECTION	6-DOT	SES-TP-1_TASK-LDTTACTBRA_WORD-DK##L	n/a	n/a
152.191	n/a	6_DOT_DETECTION	RESPONSE	n/a	YES	HIT
154.836	1.008	6_DOT_DETECTION	FIXCROSS	n/a	n/a	n/a
155.853	5.008	6_DOT_DETECTION	NO_6-DOT	SES-TP-1_TASK-LDTTACTBRA_WORD-KDTLŁ	n/a	n/a
159.815	n/a	6_DOT_DETECTION	RESPONSE	n/a	NO	CORRECT_REJECTION
162.886	1.008	6_DOT_DETECTION	FIXCROSS	n/a	n/a	n/a
163.903	5.008	6_DOT_DETECTION	6-DOT	SES-TP-1_TASK-LDTTACTBRA_WORD-P#T#	n/a	n/a
167.65	n/a	6_DOT_DETECTION	RESPONSE	n/a	YES	HIT
170.936	1.008	6_DOT_DETECTION	FIXCROSS	n/a	n/a	n/a
171.953	5.008	6_DOT_DETECTION	NO_6-DOT	SES-TP-1_TASK-LDTTACTBRA_WORD-SSŁKM	n/a	n/a
176.375	n/a	6_DOT_DETECTION	RESPONSE	n/a	NO	CORRECT_REJECTION
178.986	1.008	6_DOT_DETECTION	FIXCROSS	n/a	n/a	n/a
180.002	5.009	6_DOT_DETECTION	NO_6-DOT	SES-TP-1_TASK-LDTTACTBRA_WORD-DDŁ	n/a	n/a
183.421	n/a	6_DOT_DETECTION	RESPONSE	n/a	NO	CORRECT_REJECTION
188.544	2.008	LEXICAL_DECISION	CUE	n/a	n/a	n/a
195.045	1.008	LEXICAL_DECISION	FIXCROSS	n/a	n/a	n/a
196.061	5.009	LEXICAL_DECISION	WORD	SES-TP-1_TASK-LDTTACTBRA_WORD-DOKI	n/a	n/a
199.331	n/a	LEXICAL_DECISION	RESPONSE	n/a	YES	HIT
203.094	1.009	LEXICAL_DECISION	FIXCROSS	n/a	n/a	n/a
204.111	5.008	LEXICAL_DECISION	PSEUDOWORD	SES-TP-1_TASK-LDTTACTBRA_WORD-DASY	n/a	n/a
207.966	n/a	LEXICAL_DECISION	RESPONSE	n/a	NO	CORRECT_REJECTION
211.145	1.008	LEXICAL_DECISION	FIXCROSS	n/a	n/a	n/a
212.161	5.008	LEXICAL_DECISION	WORD	SES-TP-1_TASK-LDTTACTBRA_WORD-ŁAPY	n/a	n/a
215.707	n/a	LEXICAL_DECISION	RESPONSE	n/a	YES	HIT
219.195	1.008	LEXICAL_DECISION	FIXCROSS	n/a	n/a	n/a
220.211	5.008	LEXICAL_DECISION	WORD	SES-TP-1_TASK-LDTTACTBRA_WORD-UMYSŁ	n/a	n/a
223.94	n/a	LEXICAL_DECISION	RESPONSE	n/a	YES	HIT
227.245	1.008	LEXICAL_DECISION	FIXCROSS	n/a	n/a	n/a
228.261	5.008	LEXICAL_DECISION	WORD	SES-TP-1_TASK-LDTTACTBRA_WORD-ILOMA	n/a	n/a
232.052	n/a	LEXICAL_DECISION	RESPONSE	n/a	NO	MISS
236.803	2.008	6_DOT_DETECTION	CUE	n/a	n/a	n/a
242.303	1.008	6_DOT_DETECTION	FIXCROSS	n/a	n/a	n/a
243.32	5.008	6_DOT_DETECTION	6-DOT	SES-TP-1_TASK-LDTTACTBRA_WORD-SŁ#M#	n/a	n/a
247.908	n/a	6_DOT_DETECTION	RESPONSE	n/a	YES	HIT
250.352	1.009	6_DOT_DETECTION	FIXCROSS	n/a	n/a	n/a
251.37	5.008	6_DOT_DETECTION	NO_6-DOT	SES-TP-1_TASK-LDTTACTBRA_WORD-KCTD	n/a	n/a
255.092	n/a	6_DOT_DETECTION	RESPONSE	n/a	NO	CORRECT_REJECTION
258.403	1.008	6_DOT_DETECTION	FIXCROSS	n/a	n/a	n/a
259.42	5.008	6_DOT_DETECTION	6-DOT	SES-TP-1_TASK-LDTTACTBRA_WORD-#KT#	n/a	n/a
262.886	n/a	6_DOT_DETECTION	RESPONSE	n/a	YES	HIT
266.452	1.009	6_DOT_DETECTION	FIXCROSS	n/a	n/a	n/a
267.47	5.008	6_DOT_DETECTION	6-DOT	SES-TP-1_TASK-LDTTACTBRA_WORD-P##Ł	n/a	n/a
270.77	n/a	6_DOT_DETECTION	RESPONSE	n/a	YES	HIT
274.503	1.008	6_DOT_DETECTION	FIXCROSS	n/a	n/a	n/a
275.52	5.008	6_DOT_DETECTION	NO_6-DOT	SES-TP-1_TASK-LDTTACTBRA_WORD-ŁMT	n/a	n/a
278.878	n/a	6_DOT_DETECTION	RESPONSE	n/a	NO	CORRECT_REJECTION
284.561	2.008	LEXICAL_DECISION	CUE	n/a	n/a	n/a
290.561	1.008	LEXICAL_DECISION	FIXCROSS	n/a	n/a	n/a
291.578	5.009	LEXICAL_DECISION	PSEUDOWORD	SES-TP-1_TASK-LDTTACTBRA_WORD-PŁAKI	n/a	n/a
294.897	n/a	LEXICAL_DECISION	RESPONSE	n/a	YES	FALSE_ALARM
298.611	1.009	LEXICAL_DECISION	FIXCROSS	n/a	n/a	n/a
299.628	5.009	LEXICAL_DECISION	WORD	SES-TP-1_TASK-LDTTACTBRA_WORD-KOT	n/a	n/a
303.271	n/a	LEXICAL_DECISION	RESPONSE	n/a	NO	MISS
306.661	1.009	LEXICAL_DECISION	FIXCROSS	n/a	n/a	n/a
307.678	5.008	LEXICAL_DECISION	PSEUDOWORD	SES-TP-1_TASK-LDTTACTBRA_WORD-CULE 	n/a	n/a
314.711	1.009	LEXICAL_DECISION	FIXCROSS	n/a	n/a	n/a
315.728	5.008	LEXICAL_DECISION	WORD	SES-TP-1_TASK-LDTTACTBRA_WORD-PASMO	n/a	n/a
320.917	n/a	LEXICAL_DECISION	RESPONSE	n/a	YES	HIT
322.762	1.008	LEXICAL_DECISION	FIXCROSS	n/a	n/a	n/a
323.778	5.008	LEXICAL_DECISION	WORD	SES-TP-1_TASK-LDTTACTBRA_WORD-METCE	n/a	n/a
328.701	n/a	LEXICAL_DECISION	RESPONSE	n/a	NO	MISS
332.82	2.008	6_DOT_DETECTION	CUE	n/a	n/a	n/a
338.82	1.008	6_DOT_DETECTION	FIXCROSS	n/a	n/a	n/a
339.836	5.008	6_DOT_DETECTION	NO_6-DOT	SES-TP-1_TASK-LDTTACTBRA_WORD-TKM	n/a	n/a
343.307	n/a	6_DOT_DETECTION	RESPONSE	n/a	NO	CORRECT_REJECTION
346.87	1.008	6_DOT_DETECTION	FIXCROSS	n/a	n/a	n/a
347.887	5.008	6_DOT_DETECTION	NO_6-DOT	SES-TP-1_TASK-LDTTACTBRA_WORD-BKPM	n/a	n/a
351.751	n/a	6_DOT_DETECTION	RESPONSE	n/a	NO	CORRECT_REJECTION
354.92	1.008	6_DOT_DETECTION	FIXCROSS	n/a	n/a	n/a
355.937	5.008	6_DOT_DETECTION	NO_6-DOT	SES-TP-1_TASK-LDTTACTBRA_WORD-STMKŁ	n/a	n/a
360.922	n/a	6_DOT_DETECTION	RESPONSE	n/a	NO	CORRECT_REJECTION
362.97	1.008	6_DOT_DETECTION	FIXCROSS	n/a	n/a	n/a
363.987	5.008	6_DOT_DETECTION	6-DOT	SES-TP-1_TASK-LDTTACTBRA_WORD-##CL	n/a	n/a
368.271	n/a	6_DOT_DETECTION	RESPONSE	n/a	YES	HIT
371.02	1.008	6_DOT_DETECTION	FIXCROSS	n/a	n/a	n/a
372.037	5.008	6_DOT_DETECTION	NO_6-DOT	SES-TP-1_TASK-LDTTACTBRA_WORD-LTLKŁ	n/a	n/a
376.318	n/a	6_DOT_DETECTION	RESPONSE	n/a	NO	CORRECT_REJECTION
380.578	2.008	LEXICAL_DECISION	CUE	n/a	n/a	n/a
386.078	1.008	LEXICAL_DECISION	FIXCROSS	n/a	n/a	n/a
387.095	5.008	LEXICAL_DECISION	WORD	SES-TP-1_TASK-LDTTACTBRA_WORD-STOLE	n/a	n/a
391.967	n/a	LEXICAL_DECISION	RESPONSE	n/a	YES	HIT
394.128	1.008	LEXICAL_DECISION	FIXCROSS	n/a	n/a	n/a
395.145	5.008	LEXICAL_DECISION	WORD	SES-TP-1_TASK-LDTTACTBRA_WORD-BOBAS	n/a	n/a
399.685	n/a	LEXICAL_DECISION	RESPONSE	n/a	YES	HIT
402.178	1.009	LEXICAL_DECISION	FIXCROSS	n/a	n/a	n/a
403.195	5.008	LEXICAL_DECISION	PSEUDOWORD	SES-TP-1_TASK-LDTTACTBRA_WORD-DASIE	n/a	n/a
407.851	n/a	LEXICAL_DECISION	RESPONSE	n/a	NO	CORRECT_REJECTION
410.228	1.008	LEXICAL_DECISION	FIXCROSS	n/a	n/a	n/a
411.245	5.008	LEXICAL_DECISION	PSEUDOWORD	SES-TP-1_TASK-LDTTACTBRA_WORD-LEDI	n/a	n/a
416.34	n/a	LEXICAL_DECISION	RESPONSE	n/a	NO	CORRECT_REJECTION
418.278	1.008	LEXICAL_DECISION	FIXCROSS	n/a	n/a	n/a
419.295	5.008	LEXICAL_DECISION	PSEUDOWORD	SES-TP-1_TASK-LDTTACTBRA_WORD-BILOT	n/a	n/a
423.934	n/a	LEXICAL_DECISION	RESPONSE	n/a	YES	FALSE_ALARM
427.837	2.008	6_DOT_DETECTION	CUE	n/a	n/a	n/a
433.337	1.008	6_DOT_DETECTION	FIXCROSS	n/a	n/a	n/a
434.353	5.008	6_DOT_DETECTION	6-DOT	SES-TP-1_TASK-LDTTACTBRA_WORD-L#B#	n/a	n/a
438.831	n/a	6_DOT_DETECTION	RESPONSE	n/a	YES	HIT
441.387	1.008	6_DOT_DETECTION	FIXCROSS	n/a	n/a	n/a
442.403	5.008	6_DOT_DETECTION	6-DOT	SES-TP-1_TASK-LDTTACTBRA_WORD-#KŁ#	n/a	n/a
446.742	n/a	6_DOT_DETECTION	RESPONSE	n/a	YES	HIT
449.437	1.008	6_DOT_DETECTION	FIXCROSS	n/a	n/a	n/a
450.454	5.008	6_DOT_DETECTION	NO_6-DOT	SES-TP-1_TASK-LDTTACTBRA_WORD-KCK	n/a	n/a
453.675	n/a	6_DOT_DETECTION	RESPONSE	n/a	NO	CORRECT_REJECTION
457.486	1.009	6_DOT_DETECTION	FIXCROSS	n/a	n/a	n/a
458.504	5.008	6_DOT_DETECTION	6-DOT	SES-TP-1_TASK-LDTTACTBRA_WORD-LT##	n/a	n/a
462.434	n/a	6_DOT_DETECTION	RESPONSE	n/a	YES	HIT
465.537	1.008	6_DOT_DETECTION	FIXCROSS	n/a	n/a	n/a
466.554	5.008	6_DOT_DETECTION	NO_6-DOT	SES-TP-1_TASK-LDTTACTBRA_WORD-DDTLK	n/a	n/a
470.862	n/a	6_DOT_DETECTION	RESPONSE	n/a	YES	FALSE_ALARM
474.595	2.008	LEXICAL_DECISION	CUE	n/a	n/a	n/a
479.595	1.008	LEXICAL_DECISION	FIXCROSS	n/a	n/a	n/a
480.611	5.009	LEXICAL_DECISION	PSEUDOWORD	SES-TP-1_TASK-LDTTACTBRA_WORD-SYM	n/a	n/a
484.465	n/a	LEXICAL_DECISION	RESPONSE	n/a	NO	CORRECT_REJECTION
487.645	1.008	LEXICAL_DECISION	FIXCROSS	n/a	n/a	n/a
488.662	5.008	LEXICAL_DECISION	WORD	SES-TP-1_TASK-LDTTACTBRA_WORD-PTAK	n/a	n/a
492.885	n/a	LEXICAL_DECISION	RESPONSE	n/a	YES	HIT
495.695	1.008	LEXICAL_DECISION	FIXCROSS	n/a	n/a	n/a
496.712	5.008	LEXICAL_DECISION	PSEUDOWORD	SES-TP-1_TASK-LDTTACTBRA_WORD-PKAŁ	n/a	n/a
501.046	n/a	LEXICAL_DECISION	RESPONSE	n/a	NO	CORRECT_REJECTION
503.745	1.008	LEXICAL_DECISION	FIXCROSS	n/a	n/a	n/a
504.762	5.008	LEXICAL_DECISION	WORD	SES-TP-1_TASK-LDTTACTBRA_WORD-BOSKI	n/a	n/a
509.325	n/a	LEXICAL_DECISION	RESPONSE	n/a	YES	HIT
511.795	1.009	LEXICAL_DECISION	FIXCROSS	n/a	n/a	n/a
512.812	5.008	LEXICAL_DECISION	WORD	SES-TP-1_TASK-LDTTACTBRA_WORD-POD	n/a	n/a
516.199	n/a	LEXICAL_DECISION	RESPONSE	n/a	YES	HIT
520.854	2.008	6_DOT_DETECTION	CUE	n/a	n/a	n/a
527.854	1.008	6_DOT_DETECTION	FIXCROSS	n/a	n/a	n/a
528.87	5.008	6_DOT_DETECTION	NO_6-DOT	SES-TP-1_TASK-LDTTACTBRA_WORD-DLBL	n/a	n/a
533.084	n/a	6_DOT_DETECTION	RESPONSE	n/a	NO	CORRECT_REJECTION
535.903	1.009	6_DOT_DETECTION	FIXCROSS	n/a	n/a	n/a
536.92	5.008	6_DOT_DETECTION	6-DOT	SES-TP-1_TASK-LDTTACTBRA_WORD-#K#	n/a	n/a
540.766	n/a	6_DOT_DETECTION	RESPONSE	n/a	YES	HIT
543.954	1.008	6_DOT_DETECTION	FIXCROSS	n/a	n/a	n/a
544.97	5.008	6_DOT_DETECTION	6-DOT	SES-TP-1_TASK-LDTTACTBRA_WORD-K#CL#	n/a	n/a
549.76	n/a	6_DOT_DETECTION	RESPONSE	n/a	YES	HIT
552.004	1.008	6_DOT_DETECTION	FIXCROSS	n/a	n/a	n/a
553.02	5.008	6_DOT_DETECTION	6-DOT	SES-TP-1_TASK-LDTTACTBRA_WORD-K#L#	n/a	n/a
557.042	n/a	6_DOT_DETECTION	RESPONSE	n/a	YES	HIT
560.053	1.009	6_DOT_DETECTION	FIXCROSS	n/a	n/a	n/a
561.07	5.008	6_DOT_DETECTION	6-DOT	SES-TP-1_TASK-LDTTACTBRA_WORD-Ł##	n/a	n/a
565.252	n/a	6_DOT_DETECTION	RESPONSE	n/a	YES	HIT
569.612	2.008	LEXICAL_DECISION	CUE	n/a	n/a	n/a
576.112	1.008	LEXICAL_DECISION	FIXCROSS	n/a	n/a	n/a
577.129	5.008	LEXICAL_DECISION	PSEUDOWORD	SES-TP-1_TASK-LDTTACTBRA_WORD-PUTY	n/a	n/a
580.854	n/a	LEXICAL_DECISION	RESPONSE	n/a	YES	FALSE_ALARM
584.162	1.009	LEXICAL_DECISION	FIXCROSS	n/a	n/a	n/a
585.179	5.008	LEXICAL_DECISION	PSEUDOWORD	SES-TP-1_TASK-LDTTACTBRA_WORD-OTAL	n/a	n/a
590.207	n/a	LEXICAL_DECISION	RESPONSE	n/a	YES	FALSE_ALARM
592.212	1.008	LEXICAL_DECISION	FIXCROSS	n/a	n/a	n/a
593.229	5.008	LEXICAL_DECISION	PSEUDOWORD	SES-TP-1_TASK-LDTTACTBRA_WORD-MITKI	n/a	n/a
597.887	n/a	LEXICAL_DECISION	RESPONSE	n/a	NO	CORRECT_REJECTION
600.262	1.008	LEXICAL_DECISION	FIXCROSS	n/a	n/a	n/a
601.279	5.008	LEXICAL_DECISION	PSEUDOWORD	SES-TP-1_TASK-LDTTACTBRA_WORD-KLICE	n/a	n/a
606.274	n/a	LEXICAL_DECISION	RESPONSE	n/a	NO	CORRECT_REJECTION
608.312	1.009	LEXICAL_DECISION	FIXCROSS	n/a	n/a	n/a
609.329	5.008	LEXICAL_DECISION	PSEUDOWORD	SES-TP-1_TASK-LDTTACTBRA_WORD-SMO	n/a	n/a
613.155	n/a	LEXICAL_DECISION	RESPONSE	n/a	YES	FALSE_ALARM
617.87	2.008	6_DOT_DETECTION	CUE	n/a	n/a	n/a
622.37	1.008	6_DOT_DETECTION	FIXCROSS	n/a	n/a	n/a
623.387	5.008	6_DOT_DETECTION	NO_6-DOT	SES-TP-1_TASK-LDTTACTBRA_WORD-PMDŁ	n/a	n/a
628.131	n/a	6_DOT_DETECTION	RESPONSE	n/a	NO	CORRECT_REJECTION
630.42	1.008	6_DOT_DETECTION	FIXCROSS	n/a	n/a	n/a
631.437	5.008	6_DOT_DETECTION	NO_6-DOT	SES-TP-1_TASK-LDTTACTBRA_WORD-BŁSL	n/a	n/a
635.88	n/a	6_DOT_DETECTION	RESPONSE	n/a	NO	CORRECT_REJECTION
638.471	1.008	6_DOT_DETECTION	FIXCROSS	n/a	n/a	n/a
639.487	5.008	6_DOT_DETECTION	6-DOT	SES-TP-1_TASK-LDTTACTBRA_WORD-SM#K#	n/a	n/a
644.721	n/a	6_DOT_DETECTION	RESPONSE	n/a	YES	HIT
646.521	1.008	6_DOT_DETECTION	FIXCROSS	n/a	n/a	n/a
647.537	5.008	6_DOT_DETECTION	NO_6-DOT	SES-TP-1_TASK-LDTTACTBRA_WORD-MLMK	n/a	n/a
651.251	n/a	6_DOT_DETECTION	RESPONSE	n/a	NO	CORRECT_REJECTION
654.57	1.009	6_DOT_DETECTION	FIXCROSS	n/a	n/a	n/a
655.587	5.008	6_DOT_DETECTION	6-DOT	SES-TP-1_TASK-LDTTACTBRA_WORD-#K#	n/a	n/a
659.485	n/a	6_DOT_DETECTION	RESPONSE	n/a	YES	HIT
664.129	2.008	LEXICAL_DECISION	CUE	n/a	n/a	n/a
669.629	1.008	LEXICAL_DECISION	FIXCROSS	n/a	n/a	n/a
670.645	5.008	LEXICAL_DECISION	WORD	SES-TP-1_TASK-LDTTACTBRA_WORD-TUPAŁ	n/a	n/a
674.012	n/a	LEXICAL_DECISION	RESPONSE	n/a	YES	HIT
677.678	1.009	LEXICAL_DECISION	FIXCROSS	n/a	n/a	n/a
678.696	5.008	LEXICAL_DECISION	WORD	SES-TP-1_TASK-LDTTACTBRA_WORD-DYSK	n/a	n/a
682.205	n/a	LEXICAL_DECISION	RESPONSE	n/a	YES	HIT
685.729	1.008	LEXICAL_DECISION	FIXCROSS	n/a	n/a	n/a
686.746	5.008	LEXICAL_DECISION	WORD	SES-TP-1_TASK-LDTTACTBRA_WORD-TYM	n/a	n/a
690.261	n/a	LEXICAL_DECISION	RESPONSE	n/a	NO	MISS
693.779	1.008	LEXICAL_DECISION	FIXCROSS	n/a	n/a	n/a
694.796	5.008	LEXICAL_DECISION	PSEUDOWORD	SES-TP-1_TASK-LDTTACTBRA_WORD-KPU	n/a	n/a
698.457	n/a	LEXICAL_DECISION	RESPONSE	n/a	NO	CORRECT_REJECTION
701.829	1.008	LEXICAL_DECISION	FIXCROSS	n/a	n/a	n/a
702.846	5.008	LEXICAL_DECISION	PSEUDOWORD	SES-TP-1_TASK-LDTTACTBRA_WORD-CYLI	n/a	n/a
707.406	n/a	LEXICAL_DECISION	RESPONSE	n/a	NO	CORRECT_REJECTION
710.887	2.008	6_DOT_DETECTION	CUE	n/a	n/a	n/a
715.887	1.008	6_DOT_DETECTION	FIXCROSS	n/a	n/a	n/a
716.904	5.008	6_DOT_DETECTION	6-DOT	SES-TP-1_TASK-LDTTACTBRA_WORD-##LŁ	n/a	n/a
721.832	n/a	6_DOT_DETECTION	RESPONSE	n/a	YES	HIT
723.937	1.008	6_DOT_DETECTION	FIXCROSS	n/a	n/a	n/a
724.954	5.008	6_DOT_DETECTION	6-DOT	SES-TP-1_TASK-LDTTACTBRA_WORD-LM#M#	n/a	n/a
729.844	n/a	6_DOT_DETECTION	RESPONSE	n/a	YES	HIT
731.987	1.009	6_DOT_DETECTION	FIXCROSS	n/a	n/a	n/a
733.004	5.008	6_DOT_DETECTION	6-DOT	SES-TP-1_TASK-LDTTACTBRA_WORD-M##	n/a	n/a
738.216	n/a	6_DOT_DETECTION	RESPONSE	n/a	YES	HIT
740.038	1.008	6_DOT_DETECTION	FIXCROSS	n/a	n/a	n/a
741.054	5.008	6_DOT_DETECTION	NO_6-DOT	SES-TP-1_TASK-LDTTACTBRA_WORD-DKŁKŁ	n/a	n/a
745.64	n/a	6_DOT_DETECTION	RESPONSE	n/a	NO	CORRECT_REJECTION
748.087	1.009	6_DOT_DETECTION	FIXCROSS	n/a	n/a	n/a
749.104	5.008	6_DOT_DETECTION	NO_6-DOT	SES-TP-1_TASK-LDTTACTBRA_WORD-PKTL	n/a	n/a
753.614	n/a	6_DOT_DETECTION	RESPONSE	n/a	NO	CORRECT_REJECTION
