onset	duration	trial_type	braille_stimulus	targets	response_count
2.015	2.008	CUE_6_DOT	n/a	n/a	n/a
7.016	1.008	FIXCROSS	n/a	n/a	n/a
8.032	5.008	6_DOT_DETECTION	POD##	2	n/a
13.066	1.008	FIXCROSS	n/a	n/a	n/a
14.082	5.008	6_DOT_DETECTION	SSTMT	0	n/a
19.116	1.008	FIXCROSS	n/a	n/a	n/a
20.132	5.009	6_DOT_DETECTION	##KOT	2	n/a
24.002	n/a	RESPONSE	n/a	n/a	1/2
25.166	1.008	FIXCROSS	n/a	n/a	n/a
26.182	5.008	6_DOT_DETECTION	OCPPC	0	n/a
31.216	1.008	FIXCROSS	n/a	n/a	n/a
32.232	5.009	6_DOT_DETECTION	AKT##	2	n/a
37.266	1.008	FIXCROSS	n/a	n/a	n/a
38.282	5.008	6_DOT_DETECTION	ODŁSE	0	n/a
43.316	1.008	FIXCROSS	n/a	n/a	n/a
44.332	5.009	6_DOT_DETECTION	#LMCI	1	n/a
48.167	n/a	RESPONSE	n/a	n/a	1/1
49.366	1.008	FIXCROSS	n/a	n/a	n/a
50.382	5.009	6_DOT_DETECTION	##MYK	2	n/a
53.407	n/a	RESPONSE	n/a	n/a	1/2
54.502	n/a	RESPONSE	n/a	n/a	2/2
57.424	2.008	CUE_REST	n/a	n/a	n/a
62.424	1.008	FIXCROSS	n/a	n/a	n/a
68.474	1.008	FIXCROSS	n/a	n/a	n/a
75.532	2.008	CUE_6_DOT	n/a	n/a	n/a
80.532	1.008	FIXCROSS	n/a	n/a	n/a
81.548	5.009	6_DOT_DETECTION	KUŁ##	2	n/a
85.508	n/a	RESPONSE	n/a	n/a	1/2
86.519	n/a	RESPONSE	n/a	n/a	2/2
86.582	1.008	FIXCROSS	n/a	n/a	n/a
87.599	5.008	6_DOT_DETECTION	OALDO	0	n/a
92.632	1.008	FIXCROSS	n/a	n/a	n/a
93.649	5.009	6_DOT_DETECTION	#TLI#	2	n/a
98.682	1.008	FIXCROSS	n/a	n/a	n/a
99.699	5.009	6_DOT_DETECTION	KAAE#	1	n/a
104.732	1.008	FIXCROSS	n/a	n/a	n/a
105.749	5.008	6_DOT_DETECTION	#DLA#	2	n/a
108.309	n/a	RESPONSE	n/a	n/a	1/2
110.527	n/a	RESPONSE	n/a	n/a	2/2
110.782	1.008	FIXCROSS	n/a	n/a	n/a
111.799	5.009	6_DOT_DETECTION	KCCDB	0	n/a
116.832	1.008	FIXCROSS	n/a	n/a	n/a
117.849	5.008	6_DOT_DETECTION	##OKO	2	n/a
120.044	n/a	RESPONSE	n/a	n/a	1/2
122.882	1.008	FIXCROSS	n/a	n/a	n/a
123.899	5.008	6_DOT_DETECTION	TADMM	0	n/a
130.441	2.008	CUE_REST	n/a	n/a	n/a
136.941	1.008	FIXCROSS	n/a	n/a	n/a
142.991	1.008	FIXCROSS	n/a	n/a	n/a
150.549	2.008	CUE_6_DOT	n/a	n/a	n/a
157.049	1.008	FIXCROSS	n/a	n/a	n/a
158.066	5.008	6_DOT_DETECTION	AII#P	1	n/a
160.909	n/a	RESPONSE	n/a	n/a	1/1
163.099	1.008	FIXCROSS	n/a	n/a	n/a
164.115	5.009	6_DOT_DETECTION	#SAM#	2	n/a
168.108	n/a	RESPONSE	n/a	n/a	1/2
169.149	1.008	FIXCROSS	n/a	n/a	n/a
170.165	5.009	6_DOT_DETECTION	SUB#D	1	n/a
174.562	n/a	RESPONSE	n/a	n/a	1/1
175.199	1.008	FIXCROSS	n/a	n/a	n/a
176.216	5.008	6_DOT_DETECTION	#KOK#	2	n/a
179.611	n/a	RESPONSE	n/a	n/a	1/2
181.249	1.008	FIXCROSS	n/a	n/a	n/a
182.266	5.008	6_DOT_DETECTION	TMSŁE	0	n/a
185.733	n/a	RESPONSE	n/a	n/a	1/0
187.299	1.008	FIXCROSS	n/a	n/a	n/a
188.316	5.008	6_DOT_DETECTION	OTO##	2	n/a
192.102	n/a	RESPONSE	n/a	n/a	1/2
193.349	1.008	FIXCROSS	n/a	n/a	n/a
194.366	5.008	6_DOT_DETECTION	#LDDO	1	n/a
196.503	n/a	RESPONSE	n/a	n/a	1/1
199.399	1.008	FIXCROSS	n/a	n/a	n/a
200.415	5.009	6_DOT_DETECTION	##ODA	2	n/a
201.988	n/a	RESPONSE	n/a	n/a	1/2
206.958	2.008	CUE_REST	n/a	n/a	n/a
211.458	1.008	FIXCROSS	n/a	n/a	n/a
217.508	1.008	FIXCROSS	n/a	n/a	n/a
225.566	2.008	CUE_6_DOT	n/a	n/a	n/a
231.566	1.008	FIXCROSS	n/a	n/a	n/a
232.583	5.008	6_DOT_DETECTION	#KIM#	2	n/a
234.801	n/a	RESPONSE	n/a	n/a	1/2
236.728	n/a	RESPONSE	n/a	n/a	2/2
237.616	1.008	FIXCROSS	n/a	n/a	n/a
238.632	5.009	6_DOT_DETECTION	AK#OC	1	n/a
241.671	n/a	RESPONSE	n/a	n/a	1/1
243.666	1.008	FIXCROSS	n/a	n/a	n/a
244.682	5.009	6_DOT_DETECTION	CTP#C	1	n/a
247.071	n/a	RESPONSE	n/a	n/a	1/1
248.183	n/a	RESPONSE	n/a	n/a	2/1
249.716	1.008	FIXCROSS	n/a	n/a	n/a
250.733	5.008	6_DOT_DETECTION	BAL##	2	n/a
253.594	n/a	RESPONSE	n/a	n/a	1/2
255.766	1.008	FIXCROSS	n/a	n/a	n/a
256.783	5.008	6_DOT_DETECTION	#KOC#	2	n/a
257.931	n/a	RESPONSE	n/a	n/a	1/2
261.816	1.008	FIXCROSS	n/a	n/a	n/a
262.833	5.008	6_DOT_DETECTION	BO#BS	1	n/a
264.689	n/a	RESPONSE	n/a	n/a	1/1
267.866	1.008	FIXCROSS	n/a	n/a	n/a
268.883	5.008	6_DOT_DETECTION	#OBA#	2	n/a
272.797	n/a	RESPONSE	n/a	n/a	1/2
273.916	1.008	FIXCROSS	n/a	n/a	n/a
274.932	5.009	6_DOT_DETECTION	CDLD#	1	n/a
281.974	2.008	CUE_REST	n/a	n/a	n/a
285.974	1.008	FIXCROSS	n/a	n/a	n/a
292.024	1.008	FIXCROSS	n/a	n/a	n/a
299.583	2.008	CUE_6_DOT	n/a	n/a	n/a
305.083	1.008	FIXCROSS	n/a	n/a	n/a
306.1	5.008	6_DOT_DETECTION	TE#DK	1	n/a
308.697	n/a	RESPONSE	n/a	n/a	1/1
311.133	1.008	FIXCROSS	n/a	n/a	n/a
312.15	5.008	6_DOT_DETECTION	##LAM	2	n/a
313.702	n/a	RESPONSE	n/a	n/a	1/2
317.183	1.008	FIXCROSS	n/a	n/a	n/a
318.2	5.008	6_DOT_DETECTION	KUC##	2	n/a
321.596	n/a	RESPONSE	n/a	n/a	1/2
323.233	1.008	FIXCROSS	n/a	n/a	n/a
324.25	5.008	6_DOT_DETECTION	ATDUL	0	n/a
329.283	1.008	FIXCROSS	n/a	n/a	n/a
330.299	5.009	6_DOT_DETECTION	##SYK	2	n/a
333.416	n/a	RESPONSE	n/a	n/a	1/2
335.179	n/a	RESPONSE	n/a	n/a	2/2
335.333	1.008	FIXCROSS	n/a	n/a	n/a
336.349	5.009	6_DOT_DETECTION	LBDLS	0	n/a
341.383	1.008	FIXCROSS	n/a	n/a	n/a
342.399	5.009	6_DOT_DETECTION	LIC##	2	n/a
344.236	n/a	RESPONSE	n/a	n/a	1/2
347.433	1.008	FIXCROSS	n/a	n/a	n/a
348.449	5.009	6_DOT_DETECTION	#BBTA	1	n/a
351.311	n/a	RESPONSE	n/a	n/a	1/1
354.491	2.008	CUE_REST	n/a	n/a	n/a
360.491	1.008	FIXCROSS	n/a	n/a	n/a
366.541	1.008	FIXCROSS	n/a	n/a	n/a
373.6	2.008	CUE_6_DOT	n/a	n/a	n/a
378.6	1.008	FIXCROSS	n/a	n/a	n/a
379.616	5.008	6_DOT_DETECTION	PAL##	2	n/a
384.391	n/a	RESPONSE	n/a	n/a	1/2
384.65	1.008	FIXCROSS	n/a	n/a	n/a
385.666	5.008	6_DOT_DETECTION	ACCDB	0	n/a
390.7	1.008	FIXCROSS	n/a	n/a	n/a
391.716	5.009	6_DOT_DETECTION	##PAŁ	2	n/a
393.328	n/a	RESPONSE	n/a	n/a	1/2
394.512	n/a	RESPONSE	n/a	n/a	2/2
396.75	1.008	FIXCROSS	n/a	n/a	n/a
397.766	5.009	6_DOT_DETECTION	CB#CL	1	n/a
400.427	n/a	RESPONSE	n/a	n/a	1/1
402.8	1.008	FIXCROSS	n/a	n/a	n/a
403.816	5.008	6_DOT_DETECTION	##BOK	2	n/a
404.844	n/a	RESPONSE	n/a	n/a	1/2
406.127	n/a	RESPONSE	n/a	n/a	2/2
408.85	1.008	FIXCROSS	n/a	n/a	n/a
409.866	5.008	6_DOT_DETECTION	UUACO	0	n/a
414.9	1.008	FIXCROSS	n/a	n/a	n/a
415.916	5.008	6_DOT_DETECTION	ADAOD	0	n/a
420.95	1.008	FIXCROSS	n/a	n/a	n/a
421.966	5.008	6_DOT_DETECTION	#MOP#	2	n/a
423.091	n/a	RESPONSE	n/a	n/a	1/2
424.423	n/a	RESPONSE	n/a	n/a	2/2
425.798	n/a	RESPONSE	n/a	n/a	3/2
428.008	2.008	CUE_REST	n/a	n/a	n/a
435.008	1.008	FIXCROSS	n/a	n/a	n/a
441.058	1.008	FIXCROSS	n/a	n/a	n/a
