onset	duration	trial_type	trial_number	stroop_condition	stim_text(PL)	stim_text(eng)	stim_color(PL)	stim_color(eng)	response_type	response_color
0.0	n/a	RESPONSE	n/a	n/a	n/a	n/a	n/a	n/a	n/a	n/a
0.0212	1.0166	ITI	n/a	n/a	n/a	n/a	n/a	n/a	n/a	n/a
1.0378	0.5	FIXCROSS	n/a	n/a	n/a	n/a	n/a	n/a	n/a	n/a
1.5378	1.7	T_INK	1	Incongruent	żółty	yellow	niebieski	blue	hit	n/a
3.2299	n/a	RESPONSE	n/a	n/a	n/a	n/a	n/a	n/a	n/a	blue
3.2378	0.5	FEEDBACK	n/a	n/a	n/a	n/a	n/a	n/a	n/a	n/a
3.7378	1.0	ITI	n/a	n/a	n/a	n/a	n/a	n/a	n/a	n/a
4.7378	0.5	FIXCROSS	n/a	n/a	n/a	n/a	n/a	n/a	n/a	n/a
5.2377	1.0666	T_INK	2	Neutral	xxxxxxxxx	xxxxxxxxx	czerwony	red	hit	n/a
6.2997	n/a	RESPONSE	n/a	n/a	n/a	n/a	n/a	n/a	n/a	red
6.3044	0.5	FEEDBACK	n/a	n/a	n/a	n/a	n/a	n/a	n/a	n/a
6.8044	1.0	ITI	n/a	n/a	n/a	n/a	n/a	n/a	n/a	n/a
7.8044	0.5	FIXCROSS	n/a	n/a	n/a	n/a	n/a	n/a	n/a	n/a
8.3044	0.8	T_INK	3	Incongruent	zielony	green	żółty	yellow	incorrect	n/a
9.098	n/a	RESPONSE	n/a	n/a	n/a	n/a	n/a	n/a	n/a	green
9.1044	0.5	FEEDBACK	n/a	n/a	n/a	n/a	n/a	n/a	n/a	n/a
9.6043	1.0	ITI	n/a	n/a	n/a	n/a	n/a	n/a	n/a	n/a
10.6043	0.5	FIXCROSS	n/a	n/a	n/a	n/a	n/a	n/a	n/a	n/a
11.1043	1.5333	T_INK	4	Incongruent	czerwony	red	żółty	yellow	incorrect	n/a
12.6316	n/a	RESPONSE	n/a	n/a	n/a	n/a	n/a	n/a	n/a	green
12.6376	0.5	FEEDBACK	n/a	n/a	n/a	n/a	n/a	n/a	n/a	n/a
13.1376	1.0	ITI	n/a	n/a	n/a	n/a	n/a	n/a	n/a	n/a
14.1376	0.5	FIXCROSS	n/a	n/a	n/a	n/a	n/a	n/a	n/a	n/a
14.6376	1.35	T_INK	5	Incongruent	zielony	green	czerwony	red	hit	n/a
15.9734	n/a	RESPONSE	n/a	n/a	n/a	n/a	n/a	n/a	n/a	red
15.9876	0.5	FEEDBACK	n/a	n/a	n/a	n/a	n/a	n/a	n/a	n/a
16.4876	1.0	ITI	n/a	n/a	n/a	n/a	n/a	n/a	n/a	n/a
17.4875	0.5	FIXCROSS	n/a	n/a	n/a	n/a	n/a	n/a	n/a	n/a
17.9875	1.0167	T_INK	6	Incongruent	żółty	yellow	czerwony	red	hit	n/a
18.9953	n/a	RESPONSE	n/a	n/a	n/a	n/a	n/a	n/a	n/a	red
19.0042	0.5	FEEDBACK	n/a	n/a	n/a	n/a	n/a	n/a	n/a	n/a
19.5042	1.0	ITI	n/a	n/a	n/a	n/a	n/a	n/a	n/a	n/a
20.5042	0.5	FIXCROSS	n/a	n/a	n/a	n/a	n/a	n/a	n/a	n/a
21.0041	0.9833	T_INK	7	Neutral	xxxxxxxx	xxxxxxxx	niebieski	blue	hit	n/a
21.9693	n/a	RESPONSE	n/a	n/a	n/a	n/a	n/a	n/a	n/a	blue
21.9875	0.5	FEEDBACK	n/a	n/a	n/a	n/a	n/a	n/a	n/a	n/a
22.4874	1.0	ITI	n/a	n/a	n/a	n/a	n/a	n/a	n/a	n/a
23.4874	0.5	FIXCROSS	n/a	n/a	n/a	n/a	n/a	n/a	n/a	n/a
23.9874	0.8833	T_INK	8	Incongruent	czerwony	red	zielony	green	hit	n/a
24.8632	n/a	RESPONSE	n/a	n/a	n/a	n/a	n/a	n/a	n/a	green
24.8707	0.5	FEEDBACK	n/a	n/a	n/a	n/a	n/a	n/a	n/a	n/a
25.3707	1.0	ITI	n/a	n/a	n/a	n/a	n/a	n/a	n/a	n/a
26.3707	0.5	FIXCROSS	n/a	n/a	n/a	n/a	n/a	n/a	n/a	n/a
26.8707	0.7	T_INK	9	Incongruent	żółty	yellow	zielony	green	hit	n/a
27.5653	n/a	RESPONSE	n/a	n/a	n/a	n/a	n/a	n/a	n/a	green
27.5707	0.4999	FEEDBACK	n/a	n/a	n/a	n/a	n/a	n/a	n/a	n/a
28.0706	1.0001	ITI	n/a	n/a	n/a	n/a	n/a	n/a	n/a	n/a
29.0707	0.5	FIXCROSS	n/a	n/a	n/a	n/a	n/a	n/a	n/a	n/a
29.5707	0.5667	T_INK	10	Neutral	xxxxx	xxxxx	zielony	green	hit	n/a
30.1236	n/a	RESPONSE	n/a	n/a	n/a	n/a	n/a	n/a	n/a	green
30.1373	0.5	FEEDBACK	n/a	n/a	n/a	n/a	n/a	n/a	n/a	n/a
30.6373	1.0	ITI	n/a	n/a	n/a	n/a	n/a	n/a	n/a	n/a
31.6373	0.5	FIXCROSS	n/a	n/a	n/a	n/a	n/a	n/a	n/a	n/a
32.1373	0.6167	T_INK	11	Incongruent	niebieski	blue	zielony	green	hit	n/a
32.7458	n/a	RESPONSE	n/a	n/a	n/a	n/a	n/a	n/a	n/a	green
32.7539	0.5	FEEDBACK	n/a	n/a	n/a	n/a	n/a	n/a	n/a	n/a
33.2539	1.0	ITI	n/a	n/a	n/a	n/a	n/a	n/a	n/a	n/a
34.2539	0.5	FIXCROSS	n/a	n/a	n/a	n/a	n/a	n/a	n/a	n/a
34.7539	0.7333	T_INK	12	Neutral	xxxxxxx	xxxxxxx	żółty	yellow	hit	n/a
35.4801	n/a	RESPONSE	n/a	n/a	n/a	n/a	n/a	n/a	n/a	yellow
35.4872	0.5	FEEDBACK	n/a	n/a	n/a	n/a	n/a	n/a	n/a	n/a
35.9872	1.0	ITI	n/a	n/a	n/a	n/a	n/a	n/a	n/a	n/a
41.0603	n/a	RESPONSE	n/a	n/a	n/a	n/a	n/a	n/a	n/a	n/a
41.0871	1.0	ITI	n/a	n/a	n/a	n/a	n/a	n/a	n/a	n/a
42.0871	0.5	FIXCROSS	n/a	n/a	n/a	n/a	n/a	n/a	n/a	n/a
42.5871	1.1333	INK	1	Incongruent	zielony	green	niebieski	blue	hit	n/a
43.7145	n/a	RESPONSE	n/a	n/a	n/a	n/a	n/a	n/a	n/a	blue
43.7204	1.0	ITI	n/a	n/a	n/a	n/a	n/a	n/a	n/a	n/a
44.7204	0.5	FIXCROSS	n/a	n/a	n/a	n/a	n/a	n/a	n/a	n/a
45.2204	0.5167	INK	2	Incongruent	żółty	yellow	czerwony	red	hit	n/a
45.7292	n/a	RESPONSE	n/a	n/a	n/a	n/a	n/a	n/a	n/a	red
45.737	1.0	ITI	n/a	n/a	n/a	n/a	n/a	n/a	n/a	n/a
46.737	0.5	FIXCROSS	n/a	n/a	n/a	n/a	n/a	n/a	n/a	n/a
47.237	0.85	INK	3	Neutral	xxxxxxxx	xxxxxxxx	niebieski	blue	hit	n/a
48.0798	n/a	RESPONSE	n/a	n/a	n/a	n/a	n/a	n/a	n/a	blue
48.087	1.0	ITI	n/a	n/a	n/a	n/a	n/a	n/a	n/a	n/a
49.087	0.5	FIXCROSS	n/a	n/a	n/a	n/a	n/a	n/a	n/a	n/a
49.587	0.5167	INK	4	Neutral	xxxxxxx	xxxxxxx	niebieski	blue	hit	n/a
50.0944	n/a	RESPONSE	n/a	n/a	n/a	n/a	n/a	n/a	n/a	blue
50.1036	1.0	ITI	n/a	n/a	n/a	n/a	n/a	n/a	n/a	n/a
51.1036	0.5	FIXCROSS	n/a	n/a	n/a	n/a	n/a	n/a	n/a	n/a
51.6036	0.6333	INK	5	Neutral	xxxxx	xxxxx	czerwony	red	hit	n/a
52.2208	n/a	RESPONSE	n/a	n/a	n/a	n/a	n/a	n/a	n/a	red
52.2369	1.0	ITI	n/a	n/a	n/a	n/a	n/a	n/a	n/a	n/a
53.2369	0.5	FIXCROSS	n/a	n/a	n/a	n/a	n/a	n/a	n/a	n/a
53.7369	0.6166	INK	6	Neutral	xxxxxxxx	xxxxxxxx	zielony	green	hit	n/a
54.3475	n/a	RESPONSE	n/a	n/a	n/a	n/a	n/a	n/a	n/a	green
54.3536	1.0	ITI	n/a	n/a	n/a	n/a	n/a	n/a	n/a	n/a
55.3535	0.5	FIXCROSS	n/a	n/a	n/a	n/a	n/a	n/a	n/a	n/a
55.8535	0.5333	INK	7	Incongruent	zielony	green	żółty	yellow	hit	n/a
56.3781	n/a	RESPONSE	n/a	n/a	n/a	n/a	n/a	n/a	n/a	yellow
56.3869	1.0	ITI	n/a	n/a	n/a	n/a	n/a	n/a	n/a	n/a
57.3868	0.5	FIXCROSS	n/a	n/a	n/a	n/a	n/a	n/a	n/a	n/a
57.8868	0.65	INK	8	Neutral	xxxxxxx	xxxxxxx	żółty	yellow	hit	n/a
58.5206	n/a	RESPONSE	n/a	n/a	n/a	n/a	n/a	n/a	n/a	yellow
58.5368	1.0	ITI	n/a	n/a	n/a	n/a	n/a	n/a	n/a	n/a
59.5368	0.5	FIXCROSS	n/a	n/a	n/a	n/a	n/a	n/a	n/a	n/a
60.0368	0.8165	INK	9	Neutral	xxxxxxxxx	xxxxxxxxx	zielony	green	hit	n/a
60.8391	n/a	RESPONSE	n/a	n/a	n/a	n/a	n/a	n/a	n/a	green
60.8533	1.0001	ITI	n/a	n/a	n/a	n/a	n/a	n/a	n/a	n/a
61.8534	0.5	FIXCROSS	n/a	n/a	n/a	n/a	n/a	n/a	n/a	n/a
62.3534	0.9833	INK	10	Incongruent	czerwony	red	zielony	green	hit	n/a
63.3334	n/a	RESPONSE	n/a	n/a	n/a	n/a	n/a	n/a	n/a	green
63.3367	1.0	ITI	n/a	n/a	n/a	n/a	n/a	n/a	n/a	n/a
64.3367	0.5	FIXCROSS	n/a	n/a	n/a	n/a	n/a	n/a	n/a	n/a
64.8367	0.7833	INK	11	Neutral	xxxxxxxx	xxxxxxxx	żółty	yellow	hit	n/a
65.6038	n/a	RESPONSE	n/a	n/a	n/a	n/a	n/a	n/a	n/a	yellow
65.62	1.0	ITI	n/a	n/a	n/a	n/a	n/a	n/a	n/a	n/a
66.62	0.5	FIXCROSS	n/a	n/a	n/a	n/a	n/a	n/a	n/a	n/a
67.12	0.7333	INK	12	Neutral	xxxxxxxx	xxxxxxxx	zielony	green	hit	n/a
67.8425	n/a	RESPONSE	n/a	n/a	n/a	n/a	n/a	n/a	n/a	green
67.8533	1.0	ITI	n/a	n/a	n/a	n/a	n/a	n/a	n/a	n/a
68.8533	0.5	FIXCROSS	n/a	n/a	n/a	n/a	n/a	n/a	n/a	n/a
69.3533	0.8	INK	13	Neutral	xxxxx	xxxxx	niebieski	blue	hit	n/a
70.1448	n/a	RESPONSE	n/a	n/a	n/a	n/a	n/a	n/a	n/a	blue
70.1533	1.0	ITI	n/a	n/a	n/a	n/a	n/a	n/a	n/a	n/a
71.1533	0.5	FIXCROSS	n/a	n/a	n/a	n/a	n/a	n/a	n/a	n/a
71.6533	0.4833	INK	14	Incongruent	zielony	green	czerwony	red	hit	n/a
72.1276	n/a	RESPONSE	n/a	n/a	n/a	n/a	n/a	n/a	n/a	red
72.1366	1.0	ITI	n/a	n/a	n/a	n/a	n/a	n/a	n/a	n/a
73.1366	0.5	FIXCROSS	n/a	n/a	n/a	n/a	n/a	n/a	n/a	n/a
73.6365	0.5333	INK	15	Neutral	xxxxxxx	xxxxxxx	czerwony	red	hit	n/a
74.1582	n/a	RESPONSE	n/a	n/a	n/a	n/a	n/a	n/a	n/a	red
74.1699	1.0	ITI	n/a	n/a	n/a	n/a	n/a	n/a	n/a	n/a
75.1699	0.5	FIXCROSS	n/a	n/a	n/a	n/a	n/a	n/a	n/a	n/a
75.6699	0.6833	INK	16	Incongruent	czerwony	red	żółty	yellow	hit	n/a
76.3487	n/a	RESPONSE	n/a	n/a	n/a	n/a	n/a	n/a	n/a	yellow
76.3532	1.0	ITI	n/a	n/a	n/a	n/a	n/a	n/a	n/a	n/a
77.3532	0.5	FIXCROSS	n/a	n/a	n/a	n/a	n/a	n/a	n/a	n/a
77.8531	1.0333	INK	17	Neutral	xxxxx	xxxxx	czerwony	red	hit	n/a
78.875	n/a	RESPONSE	n/a	n/a	n/a	n/a	n/a	n/a	n/a	red
78.8865	1.0	ITI	n/a	n/a	n/a	n/a	n/a	n/a	n/a	n/a
79.8864	0.5	FIXCROSS	n/a	n/a	n/a	n/a	n/a	n/a	n/a	n/a
80.3864	0.7666	INK	18	Incongruent	niebieski	blue	czerwony	red	hit	n/a
81.1455	n/a	RESPONSE	n/a	n/a	n/a	n/a	n/a	n/a	n/a	red
81.1531	1.0	ITI	n/a	n/a	n/a	n/a	n/a	n/a	n/a	n/a
82.1531	0.5	FIXCROSS	n/a	n/a	n/a	n/a	n/a	n/a	n/a	n/a
82.6531	0.6833	INK	19	Incongruent	zielony	green	żółty	yellow	hit	n/a
83.32	n/a	RESPONSE	n/a	n/a	n/a	n/a	n/a	n/a	n/a	yellow
83.3364	1.0	ITI	n/a	n/a	n/a	n/a	n/a	n/a	n/a	n/a
84.3364	0.5	FIXCROSS	n/a	n/a	n/a	n/a	n/a	n/a	n/a	n/a
84.8364	1.05	INK	20	Incongruent	żółty	yellow	niebieski	blue	hit	n/a
85.8785	n/a	RESPONSE	n/a	n/a	n/a	n/a	n/a	n/a	n/a	blue
85.8863	1.0	ITI	n/a	n/a	n/a	n/a	n/a	n/a	n/a	n/a
86.8863	0.5	FIXCROSS	n/a	n/a	n/a	n/a	n/a	n/a	n/a	n/a
87.3863	4.9999	INK	21	Incongruent	niebieski	blue	zielony	green	incorrect	n/a
87.893	n/a	RESPONSE	n/a	n/a	n/a	n/a	n/a	n/a	n/a	n/a
88.6765	n/a	RESPONSE	n/a	n/a	n/a	n/a	n/a	n/a	n/a	green
89.9876	n/a	RESPONSE	n/a	n/a	n/a	n/a	n/a	n/a	n/a	green
90.4192	n/a	RESPONSE	n/a	n/a	n/a	n/a	n/a	n/a	n/a	green
91.1547	n/a	RESPONSE	n/a	n/a	n/a	n/a	n/a	n/a	n/a	n/a
91.4745	n/a	RESPONSE	n/a	n/a	n/a	n/a	n/a	n/a	n/a	green
92.3862	1.0	ITI	n/a	n/a	n/a	n/a	n/a	n/a	n/a	n/a
93.3862	0.5	FIXCROSS	n/a	n/a	n/a	n/a	n/a	n/a	n/a	n/a
93.8862	1.9333	INK	22	Incongruent	żółty	yellow	zielony	green	hit	n/a
95.8074	n/a	RESPONSE	n/a	n/a	n/a	n/a	n/a	n/a	n/a	green
95.8195	1.0	ITI	n/a	n/a	n/a	n/a	n/a	n/a	n/a	n/a
96.8195	0.5	FIXCROSS	n/a	n/a	n/a	n/a	n/a	n/a	n/a	n/a
97.3195	0.6833	INK	23	Neutral	xxxxxxxxx	xxxxxxxxx	zielony	green	hit	n/a
97.9978	n/a	RESPONSE	n/a	n/a	n/a	n/a	n/a	n/a	n/a	green
98.0028	1.0	ITI	n/a	n/a	n/a	n/a	n/a	n/a	n/a	n/a
99.0028	0.5	FIXCROSS	n/a	n/a	n/a	n/a	n/a	n/a	n/a	n/a
99.5028	0.9	INK	24	Incongruent	niebieski	blue	czerwony	red	hit	n/a
100.3962	n/a	RESPONSE	n/a	n/a	n/a	n/a	n/a	n/a	n/a	red
100.4027	1.0	ITI	n/a	n/a	n/a	n/a	n/a	n/a	n/a	n/a
101.4027	0.5	FIXCROSS	n/a	n/a	n/a	n/a	n/a	n/a	n/a	n/a
101.9027	1.1666	INK	25	Incongruent	żółty	yellow	niebieski	blue	hit	n/a
103.0664	n/a	RESPONSE	n/a	n/a	n/a	n/a	n/a	n/a	n/a	blue
103.0694	1.0	ITI	n/a	n/a	n/a	n/a	n/a	n/a	n/a	n/a
104.0693	0.5	FIXCROSS	n/a	n/a	n/a	n/a	n/a	n/a	n/a	n/a
104.5693	0.7833	INK	26	Neutral	xxxxxxxxx	xxxxxxxxx	czerwony	red	hit	n/a
105.3369	n/a	RESPONSE	n/a	n/a	n/a	n/a	n/a	n/a	n/a	red
105.3527	1.0	ITI	n/a	n/a	n/a	n/a	n/a	n/a	n/a	n/a
106.3526	0.5	FIXCROSS	n/a	n/a	n/a	n/a	n/a	n/a	n/a	n/a
106.8526	0.8667	INK	27	Incongruent	zielony	green	niebieski	blue	hit	n/a
107.7034	n/a	RESPONSE	n/a	n/a	n/a	n/a	n/a	n/a	n/a	blue
107.7193	1.0	ITI	n/a	n/a	n/a	n/a	n/a	n/a	n/a	n/a
108.7193	0.5	FIXCROSS	n/a	n/a	n/a	n/a	n/a	n/a	n/a	n/a
109.2193	0.6833	INK	28	Neutral	xxxxxxx	xxxxxxx	żółty	yellow	hit	n/a
109.8937	n/a	RESPONSE	n/a	n/a	n/a	n/a	n/a	n/a	n/a	yellow
109.9026	1.0	ITI	n/a	n/a	n/a	n/a	n/a	n/a	n/a	n/a
110.9026	0.5	FIXCROSS	n/a	n/a	n/a	n/a	n/a	n/a	n/a	n/a
111.4026	0.9666	INK	29	Neutral	xxxxxxxx	xxxxxxxx	niebieski	blue	hit	n/a
112.3562	n/a	RESPONSE	n/a	n/a	n/a	n/a	n/a	n/a	n/a	blue
112.3692	1.0	ITI	n/a	n/a	n/a	n/a	n/a	n/a	n/a	n/a
113.3692	0.5	FIXCROSS	n/a	n/a	n/a	n/a	n/a	n/a	n/a	n/a
113.8692	0.7333	INK	30	Neutral	xxxxx	xxxxx	czerwony	red	hit	n/a
114.5947	n/a	RESPONSE	n/a	n/a	n/a	n/a	n/a	n/a	n/a	red
114.6025	1.0	ITI	n/a	n/a	n/a	n/a	n/a	n/a	n/a	n/a
115.6025	0.5	FIXCROSS	n/a	n/a	n/a	n/a	n/a	n/a	n/a	n/a
116.1025	0.65	INK	31	Neutral	xxxxxxxxx	xxxxxxxxx	czerwony	red	hit	n/a
116.7373	n/a	RESPONSE	n/a	n/a	n/a	n/a	n/a	n/a	n/a	red
116.7525	1.0	ITI	n/a	n/a	n/a	n/a	n/a	n/a	n/a	n/a
117.7524	0.5	FIXCROSS	n/a	n/a	n/a	n/a	n/a	n/a	n/a	n/a
118.2524	0.75	INK	32	Neutral	xxxxxxx	xxxxxxx	żółty	yellow	hit	n/a
118.9917	n/a	RESPONSE	n/a	n/a	n/a	n/a	n/a	n/a	n/a	yellow
119.0024	1.0	ITI	n/a	n/a	n/a	n/a	n/a	n/a	n/a	n/a
120.0024	0.5	FIXCROSS	n/a	n/a	n/a	n/a	n/a	n/a	n/a	n/a
120.5024	0.8166	INK	33	Neutral	xxxxxxxx	xxxxxxxx	niebieski	blue	hit	n/a
121.3103	n/a	RESPONSE	n/a	n/a	n/a	n/a	n/a	n/a	n/a	blue
121.319	1.0	ITI	n/a	n/a	n/a	n/a	n/a	n/a	n/a	n/a
122.319	0.5	FIXCROSS	n/a	n/a	n/a	n/a	n/a	n/a	n/a	n/a
122.819	0.75	INK	34	Incongruent	niebieski	blue	zielony	green	hit	n/a
123.5646	n/a	RESPONSE	n/a	n/a	n/a	n/a	n/a	n/a	n/a	green
123.569	1.0	ITI	n/a	n/a	n/a	n/a	n/a	n/a	n/a	n/a
124.569	0.5	FIXCROSS	n/a	n/a	n/a	n/a	n/a	n/a	n/a	n/a
125.069	0.7167	INK	35	Incongruent	niebieski	blue	żółty	yellow	hit	n/a
125.7713	n/a	RESPONSE	n/a	n/a	n/a	n/a	n/a	n/a	n/a	yellow
125.7856	1.0	ITI	n/a	n/a	n/a	n/a	n/a	n/a	n/a	n/a
126.7856	0.5	FIXCROSS	n/a	n/a	n/a	n/a	n/a	n/a	n/a	n/a
127.2856	0.65	INK	36	Incongruent	żółty	yellow	czerwony	red	hit	n/a
127.9298	n/a	RESPONSE	n/a	n/a	n/a	n/a	n/a	n/a	n/a	red
127.9356	1.0	ITI	n/a	n/a	n/a	n/a	n/a	n/a	n/a	n/a
128.9356	0.5	FIXCROSS	n/a	n/a	n/a	n/a	n/a	n/a	n/a	n/a
129.4356	0.55	INK	37	Neutral	xxxxxxxxx	xxxxxxxxx	czerwony	red	hit	n/a
129.9764	n/a	RESPONSE	n/a	n/a	n/a	n/a	n/a	n/a	n/a	red
129.9856	1.0	ITI	n/a	n/a	n/a	n/a	n/a	n/a	n/a	n/a
130.9855	0.5	FIXCROSS	n/a	n/a	n/a	n/a	n/a	n/a	n/a	n/a
131.4855	0.5833	INK	38	Neutral	xxxxxxxxx	xxxxxxxxx	zielony	green	hit	n/a
132.055	n/a	RESPONSE	n/a	n/a	n/a	n/a	n/a	n/a	n/a	green
132.0689	1.0	ITI	n/a	n/a	n/a	n/a	n/a	n/a	n/a	n/a
133.0688	0.5	FIXCROSS	n/a	n/a	n/a	n/a	n/a	n/a	n/a	n/a
133.5688	0.65	INK	39	Neutral	xxxxx	xxxxx	niebieski	blue	hit	n/a
134.2136	n/a	RESPONSE	n/a	n/a	n/a	n/a	n/a	n/a	n/a	blue
134.2188	1.0	ITI	n/a	n/a	n/a	n/a	n/a	n/a	n/a	n/a
135.2188	0.5	FIXCROSS	n/a	n/a	n/a	n/a	n/a	n/a	n/a	n/a
135.7188	0.5833	INK	40	Neutral	xxxxxxxx	xxxxxxxx	żółty	yellow	hit	n/a
136.2922	n/a	RESPONSE	n/a	n/a	n/a	n/a	n/a	n/a	n/a	yellow
136.3021	1.0	ITI	n/a	n/a	n/a	n/a	n/a	n/a	n/a	n/a
137.3021	0.5	FIXCROSS	n/a	n/a	n/a	n/a	n/a	n/a	n/a	n/a
137.8021	0.5167	INK	41	Neutral	xxxxxxxxx	xxxxxxxxx	żółty	yellow	hit	n/a
138.3068	n/a	RESPONSE	n/a	n/a	n/a	n/a	n/a	n/a	n/a	yellow
138.3188	1.0	ITI	n/a	n/a	n/a	n/a	n/a	n/a	n/a	n/a
139.3187	0.5	FIXCROSS	n/a	n/a	n/a	n/a	n/a	n/a	n/a	n/a
139.8187	0.6667	INK	42	Neutral	xxxxxxxxx	xxxxxxxxx	żółty	yellow	hit	n/a
140.4814	n/a	RESPONSE	n/a	n/a	n/a	n/a	n/a	n/a	n/a	yellow
140.4854	1.0	ITI	n/a	n/a	n/a	n/a	n/a	n/a	n/a	n/a
141.4854	0.5	FIXCROSS	n/a	n/a	n/a	n/a	n/a	n/a	n/a	n/a
141.9853	0.7	INK	43	Incongruent	żółty	yellow	czerwony	red	hit	n/a
142.6719	n/a	RESPONSE	n/a	n/a	n/a	n/a	n/a	n/a	n/a	red
142.6853	1.0	ITI	n/a	n/a	n/a	n/a	n/a	n/a	n/a	n/a
143.6853	0.5	FIXCROSS	n/a	n/a	n/a	n/a	n/a	n/a	n/a	n/a
144.1853	0.7166	INK	44	Incongruent	żółty	yellow	zielony	green	hit	n/a
144.8944	n/a	RESPONSE	n/a	n/a	n/a	n/a	n/a	n/a	n/a	green
144.902	1.0	ITI	n/a	n/a	n/a	n/a	n/a	n/a	n/a	n/a
145.9019	0.5	FIXCROSS	n/a	n/a	n/a	n/a	n/a	n/a	n/a	n/a
146.4019	0.5667	INK	45	Incongruent	żółty	yellow	zielony	green	hit	n/a
146.9569	n/a	RESPONSE	n/a	n/a	n/a	n/a	n/a	n/a	n/a	green
146.9686	1.0	ITI	n/a	n/a	n/a	n/a	n/a	n/a	n/a	n/a
147.9686	0.5	FIXCROSS	n/a	n/a	n/a	n/a	n/a	n/a	n/a	n/a
148.4686	0.5333	INK	46	Incongruent	zielony	green	niebieski	blue	hit	n/a
148.9876	n/a	RESPONSE	n/a	n/a	n/a	n/a	n/a	n/a	n/a	blue
149.0019	1.0	ITI	n/a	n/a	n/a	n/a	n/a	n/a	n/a	n/a
150.0019	0.5	FIXCROSS	n/a	n/a	n/a	n/a	n/a	n/a	n/a	n/a
150.5019	0.5667	INK	47	Incongruent	czerwony	red	niebieski	blue	hit	n/a
151.0502	n/a	RESPONSE	n/a	n/a	n/a	n/a	n/a	n/a	n/a	blue
151.0685	1.0	ITI	n/a	n/a	n/a	n/a	n/a	n/a	n/a	n/a
152.0685	0.5	FIXCROSS	n/a	n/a	n/a	n/a	n/a	n/a	n/a	n/a
152.5685	0.5	INK	48	Incongruent	niebieski	blue	żółty	yellow	hit	n/a
153.0649	n/a	RESPONSE	n/a	n/a	n/a	n/a	n/a	n/a	n/a	yellow
153.0685	1.0	ITI	n/a	n/a	n/a	n/a	n/a	n/a	n/a	n/a
154.0685	0.5	FIXCROSS	n/a	n/a	n/a	n/a	n/a	n/a	n/a	n/a
154.5685	0.4833	INK	49	Incongruent	czerwony	red	żółty	yellow	hit	n/a
155.0476	n/a	RESPONSE	n/a	n/a	n/a	n/a	n/a	n/a	n/a	yellow
155.0518	1.0	ITI	n/a	n/a	n/a	n/a	n/a	n/a	n/a	n/a
156.0518	0.5	FIXCROSS	n/a	n/a	n/a	n/a	n/a	n/a	n/a	n/a
156.5518	0.6666	INK	50	Incongruent	czerwony	red	niebieski	blue	hit	n/a
157.2061	n/a	RESPONSE	n/a	n/a	n/a	n/a	n/a	n/a	n/a	blue
157.2184	1.0	ITI	n/a	n/a	n/a	n/a	n/a	n/a	n/a	n/a
158.2184	0.5	FIXCROSS	n/a	n/a	n/a	n/a	n/a	n/a	n/a	n/a
158.7184	0.45	INK	51	Neutral	xxxxxxx	xxxxxxx	czerwony	red	hit	n/a
159.1568	n/a	RESPONSE	n/a	n/a	n/a	n/a	n/a	n/a	n/a	red
159.1684	1.0	ITI	n/a	n/a	n/a	n/a	n/a	n/a	n/a	n/a
160.1684	0.5	FIXCROSS	n/a	n/a	n/a	n/a	n/a	n/a	n/a	n/a
160.6684	1.05	INK	52	Neutral	xxxxxxxx	xxxxxxxx	zielony	green	hit	n/a
161.7151	n/a	RESPONSE	n/a	n/a	n/a	n/a	n/a	n/a	n/a	green
161.7183	1.0	ITI	n/a	n/a	n/a	n/a	n/a	n/a	n/a	n/a
162.7183	0.5	FIXCROSS	n/a	n/a	n/a	n/a	n/a	n/a	n/a	n/a
163.2183	0.6333	INK	53	Incongruent	żółty	yellow	niebieski	blue	hit	n/a
163.8416	n/a	RESPONSE	n/a	n/a	n/a	n/a	n/a	n/a	n/a	blue
163.8516	1.0	ITI	n/a	n/a	n/a	n/a	n/a	n/a	n/a	n/a
164.8516	0.5	FIXCROSS	n/a	n/a	n/a	n/a	n/a	n/a	n/a	n/a
165.3516	0.5833	INK	54	Neutral	xxxxxxx	xxxxxxx	niebieski	blue	hit	n/a
165.9202	n/a	RESPONSE	n/a	n/a	n/a	n/a	n/a	n/a	n/a	blue
165.9349	1.0	ITI	n/a	n/a	n/a	n/a	n/a	n/a	n/a	n/a
166.9349	0.5	FIXCROSS	n/a	n/a	n/a	n/a	n/a	n/a	n/a	n/a
167.4349	0.45	INK	55	Incongruent	czerwony	red	niebieski	blue	hit	n/a
167.8706	n/a	RESPONSE	n/a	n/a	n/a	n/a	n/a	n/a	n/a	blue
167.8849	1.0	ITI	n/a	n/a	n/a	n/a	n/a	n/a	n/a	n/a
168.8849	0.5	FIXCROSS	n/a	n/a	n/a	n/a	n/a	n/a	n/a	n/a
169.3849	0.8333	INK	56	Neutral	xxxxx	xxxxx	zielony	green	hit	n/a
170.2051	n/a	RESPONSE	n/a	n/a	n/a	n/a	n/a	n/a	n/a	green
170.2182	1.0	ITI	n/a	n/a	n/a	n/a	n/a	n/a	n/a	n/a
171.2182	0.5	FIXCROSS	n/a	n/a	n/a	n/a	n/a	n/a	n/a	n/a
171.7182	0.6	INK	57	Incongruent	czerwony	red	zielony	green	hit	n/a
172.2997	n/a	RESPONSE	n/a	n/a	n/a	n/a	n/a	n/a	n/a	green
172.3181	1.0	ITI	n/a	n/a	n/a	n/a	n/a	n/a	n/a	n/a
173.3181	0.5	FIXCROSS	n/a	n/a	n/a	n/a	n/a	n/a	n/a	n/a
173.8181	0.5667	INK	58	Incongruent	zielony	green	żółty	yellow	hit	n/a
174.3784	n/a	RESPONSE	n/a	n/a	n/a	n/a	n/a	n/a	n/a	yellow
174.3848	1.0	ITI	n/a	n/a	n/a	n/a	n/a	n/a	n/a	n/a
175.3848	0.5	FIXCROSS	n/a	n/a	n/a	n/a	n/a	n/a	n/a	n/a
175.8848	0.5667	INK	59	Neutral	xxxxx	xxxxx	niebieski	blue	incorrect	n/a
176.441	n/a	RESPONSE	n/a	n/a	n/a	n/a	n/a	n/a	n/a	red
176.4514	1.0	ITI	n/a	n/a	n/a	n/a	n/a	n/a	n/a	n/a
177.4514	0.5	FIXCROSS	n/a	n/a	n/a	n/a	n/a	n/a	n/a	n/a
177.9514	0.6667	INK	60	Incongruent	niebieski	blue	zielony	green	hit	n/a
178.5994	n/a	RESPONSE	n/a	n/a	n/a	n/a	n/a	n/a	n/a	green
178.618	1.0	ITI	n/a	n/a	n/a	n/a	n/a	n/a	n/a	n/a
179.618	0.5	FIXCROSS	n/a	n/a	n/a	n/a	n/a	n/a	n/a	n/a
180.118	0.6667	INK	61	Incongruent	zielony	green	czerwony	red	hit	n/a
180.7741	n/a	RESPONSE	n/a	n/a	n/a	n/a	n/a	n/a	n/a	red
180.7847	1.0	ITI	n/a	n/a	n/a	n/a	n/a	n/a	n/a	n/a
181.7847	0.5	FIXCROSS	n/a	n/a	n/a	n/a	n/a	n/a	n/a	n/a
182.2846	0.6167	INK	62	Neutral	xxxxxxxx	xxxxxxxx	żółty	yellow	hit	n/a
182.8846	n/a	RESPONSE	n/a	n/a	n/a	n/a	n/a	n/a	n/a	yellow
182.9013	1.0	ITI	n/a	n/a	n/a	n/a	n/a	n/a	n/a	n/a
183.9013	0.5	FIXCROSS	n/a	n/a	n/a	n/a	n/a	n/a	n/a	n/a
184.4013	1.2	INK	63	Neutral	xxxxx	xxxxx	zielony	green	hit	n/a
185.5869	n/a	RESPONSE	n/a	n/a	n/a	n/a	n/a	n/a	n/a	green
185.6013	1.0	ITI	n/a	n/a	n/a	n/a	n/a	n/a	n/a	n/a
186.6012	0.5	FIXCROSS	n/a	n/a	n/a	n/a	n/a	n/a	n/a	n/a
187.1012	0.8	INK	64	Incongruent	niebieski	blue	czerwony	red	hit	n/a
187.8892	n/a	RESPONSE	n/a	n/a	n/a	n/a	n/a	n/a	n/a	red
187.9012	1.0	ITI	n/a	n/a	n/a	n/a	n/a	n/a	n/a	n/a
188.9012	0.5	FIXCROSS	n/a	n/a	n/a	n/a	n/a	n/a	n/a	n/a
189.4012	1.1166	INK	65	Neutral	xxxxx	xxxxx	zielony	green	hit	n/a
190.5115	n/a	RESPONSE	n/a	n/a	n/a	n/a	n/a	n/a	n/a	green
190.5178	1.0	ITI	n/a	n/a	n/a	n/a	n/a	n/a	n/a	n/a
191.5178	0.5	FIXCROSS	n/a	n/a	n/a	n/a	n/a	n/a	n/a	n/a
192.0178	0.55	INK	66	Incongruent	czerwony	red	żółty	yellow	hit	n/a
192.5581	n/a	RESPONSE	n/a	n/a	n/a	n/a	n/a	n/a	n/a	yellow
192.5678	1.0	ITI	n/a	n/a	n/a	n/a	n/a	n/a	n/a	n/a
193.5678	0.5	FIXCROSS	n/a	n/a	n/a	n/a	n/a	n/a	n/a	n/a
194.0678	2.3166	INK	67	Neutral	xxxxxxx	xxxxxxx	niebieski	blue	hit	n/a
196.3796	n/a	RESPONSE	n/a	n/a	n/a	n/a	n/a	n/a	n/a	blue
196.3844	1.0	ITI	n/a	n/a	n/a	n/a	n/a	n/a	n/a	n/a
197.3844	0.5	FIXCROSS	n/a	n/a	n/a	n/a	n/a	n/a	n/a	n/a
197.8844	0.6333	INK	68	Neutral	xxxxxxxxx	xxxxxxxxx	żółty	yellow	hit	n/a
198.5062	n/a	RESPONSE	n/a	n/a	n/a	n/a	n/a	n/a	n/a	yellow
198.5177	1.0	ITI	n/a	n/a	n/a	n/a	n/a	n/a	n/a	n/a
199.5177	0.5	FIXCROSS	n/a	n/a	n/a	n/a	n/a	n/a	n/a	n/a
200.0177	0.95	INK	69	Incongruent	czerwony	red	zielony	green	hit	n/a
200.9526	n/a	RESPONSE	n/a	n/a	n/a	n/a	n/a	n/a	n/a	green
200.9676	1.0	ITI	n/a	n/a	n/a	n/a	n/a	n/a	n/a	n/a
201.9676	0.5	FIXCROSS	n/a	n/a	n/a	n/a	n/a	n/a	n/a	n/a
202.4676	0.65	INK	70	Incongruent	niebieski	blue	żółty	yellow	hit	n/a
203.1111	n/a	RESPONSE	n/a	n/a	n/a	n/a	n/a	n/a	n/a	yellow
203.1176	1.0	ITI	n/a	n/a	n/a	n/a	n/a	n/a	n/a	n/a
204.1176	0.5	FIXCROSS	n/a	n/a	n/a	n/a	n/a	n/a	n/a	n/a
204.6176	0.7833	INK	71	Incongruent	zielony	green	czerwony	red	hit	n/a
205.3815	n/a	RESPONSE	n/a	n/a	n/a	n/a	n/a	n/a	n/a	red
205.4009	1.0	ITI	n/a	n/a	n/a	n/a	n/a	n/a	n/a	n/a
206.4009	0.5	FIXCROSS	n/a	n/a	n/a	n/a	n/a	n/a	n/a	n/a
206.9009	0.5833	INK	72	Neutral	xxxxxxx	xxxxxxx	czerwony	red	hit	n/a
207.4762	n/a	RESPONSE	n/a	n/a	n/a	n/a	n/a	n/a	n/a	red
207.4842	1.0333	ITI	n/a	n/a	n/a	n/a	n/a	n/a	n/a	n/a
213.5041	n/a	RESPONSE	n/a	n/a	n/a	n/a	n/a	n/a	n/a	n/a
213.5341	1.0	ITI	n/a	n/a	n/a	n/a	n/a	n/a	n/a	n/a
214.5341	0.5	FIXCROSS	n/a	n/a	n/a	n/a	n/a	n/a	n/a	n/a
215.0341	1.0333	T_COLOR_NAME	1	Neutral	żółty	yellow	Neutral	Neutral	hit	n/a
216.0625	n/a	RESPONSE	n/a	n/a	n/a	n/a	n/a	n/a	n/a	yellow
216.0674	0.5	FEEDBACK	n/a	n/a	n/a	n/a	n/a	n/a	n/a	n/a
216.5674	1.0	ITI	n/a	n/a	n/a	n/a	n/a	n/a	n/a	n/a
217.5674	0.5	FIXCROSS	n/a	n/a	n/a	n/a	n/a	n/a	n/a	n/a
218.0673	0.9333	T_COLOR_NAME	2	Incongruent	niebieski	blue	zielony	green	hit	n/a
218.9884	n/a	RESPONSE	n/a	n/a	n/a	n/a	n/a	n/a	n/a	blue
219.0007	0.5	FEEDBACK	n/a	n/a	n/a	n/a	n/a	n/a	n/a	n/a
219.5007	1.0	ITI	n/a	n/a	n/a	n/a	n/a	n/a	n/a	n/a
220.5006	0.5	FIXCROSS	n/a	n/a	n/a	n/a	n/a	n/a	n/a	n/a
221.0006	1.45	T_COLOR_NAME	3	Neutral	niebieski	blue	Neutral	Neutral	hit	n/a
222.4422	n/a	RESPONSE	n/a	n/a	n/a	n/a	n/a	n/a	n/a	blue
222.4506	0.5	FEEDBACK	n/a	n/a	n/a	n/a	n/a	n/a	n/a	n/a
222.9506	1.0	ITI	n/a	n/a	n/a	n/a	n/a	n/a	n/a	n/a
223.9506	0.5	FIXCROSS	n/a	n/a	n/a	n/a	n/a	n/a	n/a	n/a
224.4506	0.9166	T_COLOR_NAME	4	Incongruent	zielony	green	żółty	yellow	hit	n/a
225.3522	n/a	RESPONSE	n/a	n/a	n/a	n/a	n/a	n/a	n/a	green
225.3672	0.5	FEEDBACK	n/a	n/a	n/a	n/a	n/a	n/a	n/a	n/a
225.8672	1.0	ITI	n/a	n/a	n/a	n/a	n/a	n/a	n/a	n/a
226.8672	0.5	FIXCROSS	n/a	n/a	n/a	n/a	n/a	n/a	n/a	n/a
227.3672	0.8333	T_COLOR_NAME	5	Incongruent	zielony	green	czerwony	red	hit	n/a
228.1819	n/a	RESPONSE	n/a	n/a	n/a	n/a	n/a	n/a	n/a	green
228.2005	0.5	FEEDBACK	n/a	n/a	n/a	n/a	n/a	n/a	n/a	n/a
228.7005	1.0	ITI	n/a	n/a	n/a	n/a	n/a	n/a	n/a	n/a
229.7005	0.5	FIXCROSS	n/a	n/a	n/a	n/a	n/a	n/a	n/a	n/a
230.2005	0.6333	T_COLOR_NAME	6	Incongruent	żółty	yellow	zielony	green	hit	n/a
230.8201	n/a	RESPONSE	n/a	n/a	n/a	n/a	n/a	n/a	n/a	yellow
230.8338	0.5	FEEDBACK	n/a	n/a	n/a	n/a	n/a	n/a	n/a	n/a
231.3338	1.0	ITI	n/a	n/a	n/a	n/a	n/a	n/a	n/a	n/a
232.3338	0.5	FIXCROSS	n/a	n/a	n/a	n/a	n/a	n/a	n/a	n/a
232.8338	0.4833	T_COLOR_NAME	7	Incongruent	czerwony	red	zielony	green	hit	n/a
233.2985	n/a	RESPONSE	n/a	n/a	n/a	n/a	n/a	n/a	n/a	red
233.3171	0.5	FEEDBACK	n/a	n/a	n/a	n/a	n/a	n/a	n/a	n/a
233.8171	1.0	ITI	n/a	n/a	n/a	n/a	n/a	n/a	n/a	n/a
234.8171	0.5	FIXCROSS	n/a	n/a	n/a	n/a	n/a	n/a	n/a	n/a
235.317	0.6333	T_COLOR_NAME	8	Incongruent	czerwony	red	żółty	yellow	hit	n/a
235.9366	n/a	RESPONSE	n/a	n/a	n/a	n/a	n/a	n/a	n/a	red
235.9503	0.5	FEEDBACK	n/a	n/a	n/a	n/a	n/a	n/a	n/a	n/a
236.4504	1.0	ITI	n/a	n/a	n/a	n/a	n/a	n/a	n/a	n/a
237.4503	0.5	FIXCROSS	n/a	n/a	n/a	n/a	n/a	n/a	n/a	n/a
237.9503	0.85	T_COLOR_NAME	9	Incongruent	żółty	yellow	niebieski	blue	hit	n/a
238.7827	n/a	RESPONSE	n/a	n/a	n/a	n/a	n/a	n/a	n/a	yellow
238.8003	0.5	FEEDBACK	n/a	n/a	n/a	n/a	n/a	n/a	n/a	n/a
239.3003	1.0	ITI	n/a	n/a	n/a	n/a	n/a	n/a	n/a	n/a
240.3003	0.5	FIXCROSS	n/a	n/a	n/a	n/a	n/a	n/a	n/a	n/a
240.8003	0.85	T_COLOR_NAME	10	Neutral	czerwony	red	Neutral	Neutral	hit	n/a
241.6448	n/a	RESPONSE	n/a	n/a	n/a	n/a	n/a	n/a	n/a	red
241.6503	0.5	FEEDBACK	n/a	n/a	n/a	n/a	n/a	n/a	n/a	n/a
242.1503	1.0	ITI	n/a	n/a	n/a	n/a	n/a	n/a	n/a	n/a
243.1502	0.5	FIXCROSS	n/a	n/a	n/a	n/a	n/a	n/a	n/a	n/a
243.6502	0.65	T_COLOR_NAME	11	Incongruent	żółty	yellow	czerwony	red	hit	n/a
244.2827	n/a	RESPONSE	n/a	n/a	n/a	n/a	n/a	n/a	n/a	yellow
244.3002	0.5	FEEDBACK	n/a	n/a	n/a	n/a	n/a	n/a	n/a	n/a
244.8002	1.0	ITI	n/a	n/a	n/a	n/a	n/a	n/a	n/a	n/a
245.8002	0.5	FIXCROSS	n/a	n/a	n/a	n/a	n/a	n/a	n/a	n/a
246.3002	0.8	T_COLOR_NAME	12	Neutral	zielony	green	Neutral	Neutral	hit	n/a
247.0808	n/a	RESPONSE	n/a	n/a	n/a	n/a	n/a	n/a	n/a	green
247.1002	0.5	FEEDBACK	n/a	n/a	n/a	n/a	n/a	n/a	n/a	n/a
247.6001	1.0	ITI	n/a	n/a	n/a	n/a	n/a	n/a	n/a	n/a
250.4225	n/a	RESPONSE	n/a	n/a	n/a	n/a	n/a	n/a	n/a	n/a
250.4501	1.0	ITI	n/a	n/a	n/a	n/a	n/a	n/a	n/a	n/a
250.6145	n/a	RESPONSE	n/a	n/a	n/a	n/a	n/a	n/a	n/a	n/a
251.4501	0.5	FIXCROSS	n/a	n/a	n/a	n/a	n/a	n/a	n/a	n/a
251.9501	0.85	COLOR_NAME	1	Neutral	niebieski	blue	Neutral	Neutral	hit	n/a
252.789	n/a	RESPONSE	n/a	n/a	n/a	n/a	n/a	n/a	n/a	blue
252.8001	1.0	ITI	n/a	n/a	n/a	n/a	n/a	n/a	n/a	n/a
253.8	0.5	FIXCROSS	n/a	n/a	n/a	n/a	n/a	n/a	n/a	n/a
254.3	0.85	COLOR_NAME	2	Incongruent	zielony	green	czerwony	red	hit	n/a
255.1395	n/a	RESPONSE	n/a	n/a	n/a	n/a	n/a	n/a	n/a	green
255.15	1.0	ITI	n/a	n/a	n/a	n/a	n/a	n/a	n/a	n/a
256.15	0.5	FIXCROSS	n/a	n/a	n/a	n/a	n/a	n/a	n/a	n/a
256.65	0.5832	COLOR_NAME	3	Incongruent	zielony	green	niebieski	blue	hit	n/a
257.2181	n/a	RESPONSE	n/a	n/a	n/a	n/a	n/a	n/a	n/a	green
257.2332	1.0001	ITI	n/a	n/a	n/a	n/a	n/a	n/a	n/a	n/a
258.2333	0.5	FIXCROSS	n/a	n/a	n/a	n/a	n/a	n/a	n/a	n/a
258.7333	0.5	COLOR_NAME	4	Incongruent	zielony	green	niebieski	blue	hit	n/a
259.2167	n/a	RESPONSE	n/a	n/a	n/a	n/a	n/a	n/a	n/a	green
259.2333	1.0	ITI	n/a	n/a	n/a	n/a	n/a	n/a	n/a	n/a
260.2333	0.5	FIXCROSS	n/a	n/a	n/a	n/a	n/a	n/a	n/a	n/a
260.7333	0.75	COLOR_NAME	5	Neutral	niebieski	blue	Neutral	Neutral	hit	n/a
261.4712	n/a	RESPONSE	n/a	n/a	n/a	n/a	n/a	n/a	n/a	blue
261.4833	1.0	ITI	n/a	n/a	n/a	n/a	n/a	n/a	n/a	n/a
262.4832	0.5	FIXCROSS	n/a	n/a	n/a	n/a	n/a	n/a	n/a	n/a
262.9832	0.5333	COLOR_NAME	6	Neutral	niebieski	blue	Neutral	Neutral	hit	n/a
263.5018	n/a	RESPONSE	n/a	n/a	n/a	n/a	n/a	n/a	n/a	blue
263.5165	1.0	ITI	n/a	n/a	n/a	n/a	n/a	n/a	n/a	n/a
264.5165	0.5	FIXCROSS	n/a	n/a	n/a	n/a	n/a	n/a	n/a	n/a
265.0165	0.55	COLOR_NAME	7	Incongruent	żółty	yellow	niebieski	blue	hit	n/a
265.5484	n/a	RESPONSE	n/a	n/a	n/a	n/a	n/a	n/a	n/a	yellow
265.5665	1.0	ITI	n/a	n/a	n/a	n/a	n/a	n/a	n/a	n/a
266.5665	0.5	FIXCROSS	n/a	n/a	n/a	n/a	n/a	n/a	n/a	n/a
267.0665	0.75	COLOR_NAME	8	Incongruent	niebieski	blue	zielony	green	hit	n/a
267.8029	n/a	RESPONSE	n/a	n/a	n/a	n/a	n/a	n/a	n/a	blue
267.8165	1.0	ITI	n/a	n/a	n/a	n/a	n/a	n/a	n/a	n/a
268.8164	0.5	FIXCROSS	n/a	n/a	n/a	n/a	n/a	n/a	n/a	n/a
269.3164	0.5667	COLOR_NAME	9	Neutral	czerwony	red	Neutral	Neutral	hit	n/a
269.8655	n/a	RESPONSE	n/a	n/a	n/a	n/a	n/a	n/a	n/a	red
269.8831	1.0	ITI	n/a	n/a	n/a	n/a	n/a	n/a	n/a	n/a
270.8831	0.5	FIXCROSS	n/a	n/a	n/a	n/a	n/a	n/a	n/a	n/a
271.3831	1.1666	COLOR_NAME	10	Incongruent	niebieski	blue	czerwony	red	incorrect	n/a
272.5358	n/a	RESPONSE	n/a	n/a	n/a	n/a	n/a	n/a	n/a	red
272.5497	1.0	ITI	n/a	n/a	n/a	n/a	n/a	n/a	n/a	n/a
273.5497	0.5	FIXCROSS	n/a	n/a	n/a	n/a	n/a	n/a	n/a	n/a
274.0497	0.9333	COLOR_NAME	11	Neutral	niebieski	blue	Neutral	Neutral	hit	n/a
274.9661	n/a	RESPONSE	n/a	n/a	n/a	n/a	n/a	n/a	n/a	blue
274.983	1.0	ITI	n/a	n/a	n/a	n/a	n/a	n/a	n/a	n/a
275.983	0.5	FIXCROSS	n/a	n/a	n/a	n/a	n/a	n/a	n/a	n/a
276.483	0.5167	COLOR_NAME	12	Neutral	niebieski	blue	Neutral	Neutral	hit	n/a
276.9807	n/a	RESPONSE	n/a	n/a	n/a	n/a	n/a	n/a	n/a	blue
276.9996	1.0	ITI	n/a	n/a	n/a	n/a	n/a	n/a	n/a	n/a
277.9996	0.5	FIXCROSS	n/a	n/a	n/a	n/a	n/a	n/a	n/a	n/a
278.4996	0.6167	COLOR_NAME	13	Incongruent	żółty	yellow	zielony	green	hit	n/a
279.1073	n/a	RESPONSE	n/a	n/a	n/a	n/a	n/a	n/a	n/a	yellow
279.1163	1.0	ITI	n/a	n/a	n/a	n/a	n/a	n/a	n/a	n/a
280.1163	0.5	FIXCROSS	n/a	n/a	n/a	n/a	n/a	n/a	n/a	n/a
280.6162	0.6333	COLOR_NAME	14	Neutral	czerwony	red	Neutral	Neutral	hit	n/a
281.234	n/a	RESPONSE	n/a	n/a	n/a	n/a	n/a	n/a	n/a	red
281.2496	1.0	ITI	n/a	n/a	n/a	n/a	n/a	n/a	n/a	n/a
282.2495	0.5	FIXCROSS	n/a	n/a	n/a	n/a	n/a	n/a	n/a	n/a
282.7495	0.7167	COLOR_NAME	15	Incongruent	czerwony	red	żółty	yellow	hit	n/a
283.4564	n/a	RESPONSE	n/a	n/a	n/a	n/a	n/a	n/a	n/a	red
283.4662	1.0	ITI	n/a	n/a	n/a	n/a	n/a	n/a	n/a	n/a
284.4662	0.5	FIXCROSS	n/a	n/a	n/a	n/a	n/a	n/a	n/a	n/a
284.9662	0.5833	COLOR_NAME	16	Incongruent	czerwony	red	niebieski	blue	hit	n/a
285.535	n/a	RESPONSE	n/a	n/a	n/a	n/a	n/a	n/a	n/a	red
285.5495	1.0	ITI	n/a	n/a	n/a	n/a	n/a	n/a	n/a	n/a
286.5495	0.5	FIXCROSS	n/a	n/a	n/a	n/a	n/a	n/a	n/a	n/a
287.0495	0.8833	COLOR_NAME	17	Neutral	zielony	green	Neutral	Neutral	hit	n/a
287.9174	n/a	RESPONSE	n/a	n/a	n/a	n/a	n/a	n/a	n/a	green
287.9328	1.0	ITI	n/a	n/a	n/a	n/a	n/a	n/a	n/a	n/a
288.9328	0.5	FIXCROSS	n/a	n/a	n/a	n/a	n/a	n/a	n/a	n/a
289.4327	0.7333	COLOR_NAME	18	Neutral	czerwony	red	Neutral	Neutral	hit	n/a
290.1559	n/a	RESPONSE	n/a	n/a	n/a	n/a	n/a	n/a	n/a	red
290.1661	1.0	ITI	n/a	n/a	n/a	n/a	n/a	n/a	n/a	n/a
291.1661	0.5	FIXCROSS	n/a	n/a	n/a	n/a	n/a	n/a	n/a	n/a
291.666	0.6333	COLOR_NAME	19	Neutral	żółty	yellow	Neutral	Neutral	hit	n/a
292.2825	n/a	RESPONSE	n/a	n/a	n/a	n/a	n/a	n/a	n/a	yellow
292.2994	1.0	ITI	n/a	n/a	n/a	n/a	n/a	n/a	n/a	n/a
293.2994	0.5	FIXCROSS	n/a	n/a	n/a	n/a	n/a	n/a	n/a	n/a
293.7993	0.5167	COLOR_NAME	20	Incongruent	żółty	yellow	czerwony	red	hit	n/a
294.2974	n/a	RESPONSE	n/a	n/a	n/a	n/a	n/a	n/a	n/a	yellow
294.316	1.0	ITI	n/a	n/a	n/a	n/a	n/a	n/a	n/a	n/a
295.316	0.5	FIXCROSS	n/a	n/a	n/a	n/a	n/a	n/a	n/a	n/a
295.816	0.6	COLOR_NAME	21	Neutral	niebieski	blue	Neutral	Neutral	hit	n/a
296.4077	n/a	RESPONSE	n/a	n/a	n/a	n/a	n/a	n/a	n/a	blue
296.416	1.0	ITI	n/a	n/a	n/a	n/a	n/a	n/a	n/a	n/a
297.4159	0.5	FIXCROSS	n/a	n/a	n/a	n/a	n/a	n/a	n/a	n/a
297.9159	0.5	COLOR_NAME	22	Incongruent	niebieski	blue	zielony	green	hit	n/a
298.4064	n/a	RESPONSE	n/a	n/a	n/a	n/a	n/a	n/a	n/a	blue
298.4159	1.0	ITI	n/a	n/a	n/a	n/a	n/a	n/a	n/a	n/a
299.4159	0.5	FIXCROSS	n/a	n/a	n/a	n/a	n/a	n/a	n/a	n/a
299.9159	1.0	COLOR_NAME	23	Incongruent	zielony	green	niebieski	blue	hit	n/a
300.9008	n/a	RESPONSE	n/a	n/a	n/a	n/a	n/a	n/a	n/a	green
300.9159	1.0	ITI	n/a	n/a	n/a	n/a	n/a	n/a	n/a	n/a
301.9159	0.5	FIXCROSS	n/a	n/a	n/a	n/a	n/a	n/a	n/a	n/a
302.4159	0.55	COLOR_NAME	24	Incongruent	czerwony	red	niebieski	blue	hit	n/a
302.9474	n/a	RESPONSE	n/a	n/a	n/a	n/a	n/a	n/a	n/a	red
302.9658	1.0	ITI	n/a	n/a	n/a	n/a	n/a	n/a	n/a	n/a
303.9658	0.5	FIXCROSS	n/a	n/a	n/a	n/a	n/a	n/a	n/a	n/a
304.4658	0.4833	COLOR_NAME	25	Incongruent	czerwony	red	zielony	green	hit	n/a
304.9301	n/a	RESPONSE	n/a	n/a	n/a	n/a	n/a	n/a	n/a	red
304.9491	1.0	ITI	n/a	n/a	n/a	n/a	n/a	n/a	n/a	n/a
305.9491	0.5	FIXCROSS	n/a	n/a	n/a	n/a	n/a	n/a	n/a	n/a
306.4491	0.7833	COLOR_NAME	26	Neutral	zielony	green	Neutral	Neutral	hit	n/a
307.2165	n/a	RESPONSE	n/a	n/a	n/a	n/a	n/a	n/a	n/a	green
307.2324	1.0	ITI	n/a	n/a	n/a	n/a	n/a	n/a	n/a	n/a
308.2324	0.5	FIXCROSS	n/a	n/a	n/a	n/a	n/a	n/a	n/a	n/a
308.7324	0.5833	COLOR_NAME	27	Neutral	niebieski	blue	Neutral	Neutral	hit	n/a
309.3112	n/a	RESPONSE	n/a	n/a	n/a	n/a	n/a	n/a	n/a	blue
309.3157	1.0	ITI	n/a	n/a	n/a	n/a	n/a	n/a	n/a	n/a
310.3157	0.5	FIXCROSS	n/a	n/a	n/a	n/a	n/a	n/a	n/a	n/a
310.8157	0.6	COLOR_NAME	28	Incongruent	żółty	yellow	niebieski	blue	hit	n/a
311.4057	n/a	RESPONSE	n/a	n/a	n/a	n/a	n/a	n/a	n/a	yellow
311.4157	1.0	ITI	n/a	n/a	n/a	n/a	n/a	n/a	n/a	n/a
312.4157	0.5	FIXCROSS	n/a	n/a	n/a	n/a	n/a	n/a	n/a	n/a
312.9157	0.9833	COLOR_NAME	29	Incongruent	niebieski	blue	zielony	green	hit	n/a
313.8841	n/a	RESPONSE	n/a	n/a	n/a	n/a	n/a	n/a	n/a	blue
313.899	1.0	ITI	n/a	n/a	n/a	n/a	n/a	n/a	n/a	n/a
314.899	0.5	FIXCROSS	n/a	n/a	n/a	n/a	n/a	n/a	n/a	n/a
315.399	0.5333	COLOR_NAME	30	Incongruent	żółty	yellow	zielony	green	hit	n/a
315.9147	n/a	RESPONSE	n/a	n/a	n/a	n/a	n/a	n/a	n/a	yellow
315.9323	1.0	ITI	n/a	n/a	n/a	n/a	n/a	n/a	n/a	n/a
316.9323	0.5	FIXCROSS	n/a	n/a	n/a	n/a	n/a	n/a	n/a	n/a
317.4322	0.5667	COLOR_NAME	31	Incongruent	czerwony	red	zielony	green	hit	n/a
317.9933	n/a	RESPONSE	n/a	n/a	n/a	n/a	n/a	n/a	n/a	red
317.9989	0.9999	ITI	n/a	n/a	n/a	n/a	n/a	n/a	n/a	n/a
318.9988	0.5	FIXCROSS	n/a	n/a	n/a	n/a	n/a	n/a	n/a	n/a
319.4989	0.4667	COLOR_NAME	32	Incongruent	czerwony	red	żółty	yellow	hit	n/a
319.9601	n/a	RESPONSE	n/a	n/a	n/a	n/a	n/a	n/a	n/a	red
319.9655	1.0	ITI	n/a	n/a	n/a	n/a	n/a	n/a	n/a	n/a
320.9655	0.5	FIXCROSS	n/a	n/a	n/a	n/a	n/a	n/a	n/a	n/a
321.4655	0.7	COLOR_NAME	33	Incongruent	niebieski	blue	czerwony	red	hit	n/a
322.1507	n/a	RESPONSE	n/a	n/a	n/a	n/a	n/a	n/a	n/a	blue
322.1655	1.0	ITI	n/a	n/a	n/a	n/a	n/a	n/a	n/a	n/a
323.1655	0.5	FIXCROSS	n/a	n/a	n/a	n/a	n/a	n/a	n/a	n/a
323.6655	0.7833	COLOR_NAME	34	Neutral	zielony	green	Neutral	Neutral	hit	n/a
324.437	n/a	RESPONSE	n/a	n/a	n/a	n/a	n/a	n/a	n/a	green
324.4488	1.0	ITI	n/a	n/a	n/a	n/a	n/a	n/a	n/a	n/a
325.4488	0.5	FIXCROSS	n/a	n/a	n/a	n/a	n/a	n/a	n/a	n/a
325.9488	0.9833	COLOR_NAME	35	Neutral	żółty	yellow	Neutral	Neutral	hit	n/a
326.9154	n/a	RESPONSE	n/a	n/a	n/a	n/a	n/a	n/a	n/a	yellow
326.9321	1.0	ITI	n/a	n/a	n/a	n/a	n/a	n/a	n/a	n/a
327.9321	0.5	FIXCROSS	n/a	n/a	n/a	n/a	n/a	n/a	n/a	n/a
328.4321	0.9167	COLOR_NAME	36	Incongruent	niebieski	blue	żółty	yellow	hit	n/a
329.3299	n/a	RESPONSE	n/a	n/a	n/a	n/a	n/a	n/a	n/a	blue
329.3487	1.0	ITI	n/a	n/a	n/a	n/a	n/a	n/a	n/a	n/a
330.3487	0.5	FIXCROSS	n/a	n/a	n/a	n/a	n/a	n/a	n/a	n/a
330.8487	0.8333	COLOR_NAME	37	Neutral	zielony	green	Neutral	Neutral	hit	n/a
331.6642	n/a	RESPONSE	n/a	n/a	n/a	n/a	n/a	n/a	n/a	green
331.682	1.0	ITI	n/a	n/a	n/a	n/a	n/a	n/a	n/a	n/a
332.682	0.5	FIXCROSS	n/a	n/a	n/a	n/a	n/a	n/a	n/a	n/a
333.182	0.7334	COLOR_NAME	38	Neutral	zielony	green	Neutral	Neutral	hit	n/a
333.9028	n/a	RESPONSE	n/a	n/a	n/a	n/a	n/a	n/a	n/a	green
333.9153	1.0	ITI	n/a	n/a	n/a	n/a	n/a	n/a	n/a	n/a
334.9153	0.5	FIXCROSS	n/a	n/a	n/a	n/a	n/a	n/a	n/a	n/a
335.4153	0.6167	COLOR_NAME	39	Incongruent	czerwony	red	żółty	yellow	hit	n/a
336.0134	n/a	RESPONSE	n/a	n/a	n/a	n/a	n/a	n/a	n/a	red
336.0319	1.0	ITI	n/a	n/a	n/a	n/a	n/a	n/a	n/a	n/a
337.0319	0.5	FIXCROSS	n/a	n/a	n/a	n/a	n/a	n/a	n/a	n/a
337.5319	0.55	COLOR_NAME	40	Incongruent	żółty	yellow	niebieski	blue	hit	n/a
338.076	n/a	RESPONSE	n/a	n/a	n/a	n/a	n/a	n/a	n/a	yellow
338.0819	1.0	ITI	n/a	n/a	n/a	n/a	n/a	n/a	n/a	n/a
339.0819	0.5	FIXCROSS	n/a	n/a	n/a	n/a	n/a	n/a	n/a	n/a
339.5819	0.55	COLOR_NAME	41	Neutral	czerwony	red	Neutral	Neutral	hit	n/a
340.1226	n/a	RESPONSE	n/a	n/a	n/a	n/a	n/a	n/a	n/a	red
340.1318	1.0	ITI	n/a	n/a	n/a	n/a	n/a	n/a	n/a	n/a
341.1318	0.5	FIXCROSS	n/a	n/a	n/a	n/a	n/a	n/a	n/a	n/a
341.6318	0.55	COLOR_NAME	42	Neutral	żółty	yellow	Neutral	Neutral	hit	n/a
342.1693	n/a	RESPONSE	n/a	n/a	n/a	n/a	n/a	n/a	n/a	yellow
342.1818	1.0	ITI	n/a	n/a	n/a	n/a	n/a	n/a	n/a	n/a
343.1818	0.4982	FIXCROSS	n/a	n/a	n/a	n/a	n/a	n/a	n/a	n/a
343.68	0.5018	COLOR_NAME	43	Neutral	żółty	yellow	Neutral	Neutral	hit	n/a
344.1679	n/a	RESPONSE	n/a	n/a	n/a	n/a	n/a	n/a	n/a	yellow
344.1818	1.0	ITI	n/a	n/a	n/a	n/a	n/a	n/a	n/a	n/a
345.1818	0.5	FIXCROSS	n/a	n/a	n/a	n/a	n/a	n/a	n/a	n/a
345.6818	0.6833	COLOR_NAME	44	Neutral	zielony	green	Neutral	Neutral	hit	n/a
346.3584	n/a	RESPONSE	n/a	n/a	n/a	n/a	n/a	n/a	n/a	green
346.3651	1.0	ITI	n/a	n/a	n/a	n/a	n/a	n/a	n/a	n/a
347.3651	0.5	FIXCROSS	n/a	n/a	n/a	n/a	n/a	n/a	n/a	n/a
347.865	0.8833	COLOR_NAME	45	Neutral	zielony	green	Neutral	Neutral	hit	n/a
348.7409	n/a	RESPONSE	n/a	n/a	n/a	n/a	n/a	n/a	n/a	green
348.7484	1.0	ITI	n/a	n/a	n/a	n/a	n/a	n/a	n/a	n/a
349.7484	0.5	FIXCROSS	n/a	n/a	n/a	n/a	n/a	n/a	n/a	n/a
350.2483	0.5	COLOR_NAME	46	Neutral	żółty	yellow	Neutral	Neutral	hit	n/a
350.7395	n/a	RESPONSE	n/a	n/a	n/a	n/a	n/a	n/a	n/a	yellow
350.7483	1.0	ITI	n/a	n/a	n/a	n/a	n/a	n/a	n/a	n/a
351.7483	0.5	FIXCROSS	n/a	n/a	n/a	n/a	n/a	n/a	n/a	n/a
352.2483	0.6333	COLOR_NAME	47	Incongruent	zielony	green	czerwony	red	hit	n/a
352.8661	n/a	RESPONSE	n/a	n/a	n/a	n/a	n/a	n/a	n/a	green
352.8816	1.0	ITI	n/a	n/a	n/a	n/a	n/a	n/a	n/a	n/a
353.8816	0.5	FIXCROSS	n/a	n/a	n/a	n/a	n/a	n/a	n/a	n/a
354.3816	0.65	COLOR_NAME	48	Incongruent	niebieski	blue	żółty	yellow	hit	n/a
355.0247	n/a	RESPONSE	n/a	n/a	n/a	n/a	n/a	n/a	n/a	blue
355.0316	1.0	ITI	n/a	n/a	n/a	n/a	n/a	n/a	n/a	n/a
356.0316	0.5	FIXCROSS	n/a	n/a	n/a	n/a	n/a	n/a	n/a	n/a
356.5316	1.15	COLOR_NAME	49	Incongruent	zielony	green	żółty	yellow	hit	n/a
357.663	n/a	RESPONSE	n/a	n/a	n/a	n/a	n/a	n/a	n/a	green
357.6816	1.0	ITI	n/a	n/a	n/a	n/a	n/a	n/a	n/a	n/a
358.6815	0.5	FIXCROSS	n/a	n/a	n/a	n/a	n/a	n/a	n/a	n/a
359.1815	0.5167	COLOR_NAME	50	Neutral	żółty	yellow	Neutral	Neutral	hit	n/a
359.6936	n/a	RESPONSE	n/a	n/a	n/a	n/a	n/a	n/a	n/a	yellow
359.6982	1.0	ITI	n/a	n/a	n/a	n/a	n/a	n/a	n/a	n/a
360.6982	0.5	FIXCROSS	n/a	n/a	n/a	n/a	n/a	n/a	n/a	n/a
361.1981	0.95	COLOR_NAME	51	Incongruent	czerwony	red	zielony	green	hit	n/a
362.1399	n/a	RESPONSE	n/a	n/a	n/a	n/a	n/a	n/a	n/a	red
362.1481	1.0	ITI	n/a	n/a	n/a	n/a	n/a	n/a	n/a	n/a
363.1481	0.5	FIXCROSS	n/a	n/a	n/a	n/a	n/a	n/a	n/a	n/a
363.6481	0.7	COLOR_NAME	52	Neutral	żółty	yellow	Neutral	Neutral	hit	n/a
364.3306	n/a	RESPONSE	n/a	n/a	n/a	n/a	n/a	n/a	n/a	yellow
364.3481	1.0	ITI	n/a	n/a	n/a	n/a	n/a	n/a	n/a	n/a
365.3481	0.5	FIXCROSS	n/a	n/a	n/a	n/a	n/a	n/a	n/a	n/a
365.8481	0.4167	COLOR_NAME	53	Incongruent	żółty	yellow	czerwony	red	hit	n/a
366.2492	n/a	RESPONSE	n/a	n/a	n/a	n/a	n/a	n/a	n/a	yellow
366.2647	1.0	ITI	n/a	n/a	n/a	n/a	n/a	n/a	n/a	n/a
367.2647	0.5	FIXCROSS	n/a	n/a	n/a	n/a	n/a	n/a	n/a	n/a
367.7647	0.85	COLOR_NAME	54	Neutral	czerwony	red	Neutral	Neutral	hit	n/a
368.5998	n/a	RESPONSE	n/a	n/a	n/a	n/a	n/a	n/a	n/a	red
368.6147	1.0	ITI	n/a	n/a	n/a	n/a	n/a	n/a	n/a	n/a
369.6147	0.5	FIXCROSS	n/a	n/a	n/a	n/a	n/a	n/a	n/a	n/a
370.1147	0.9	COLOR_NAME	55	Neutral	zielony	green	Neutral	Neutral	hit	n/a
370.998	n/a	RESPONSE	n/a	n/a	n/a	n/a	n/a	n/a	n/a	green
371.0146	1.0	ITI	n/a	n/a	n/a	n/a	n/a	n/a	n/a	n/a
372.0146	0.5	FIXCROSS	n/a	n/a	n/a	n/a	n/a	n/a	n/a	n/a
372.5146	0.85	COLOR_NAME	56	Incongruent	zielony	green	czerwony	red	hit	n/a
373.3485	n/a	RESPONSE	n/a	n/a	n/a	n/a	n/a	n/a	n/a	green
373.3646	1.0	ITI	n/a	n/a	n/a	n/a	n/a	n/a	n/a	n/a
374.3646	0.5	FIXCROSS	n/a	n/a	n/a	n/a	n/a	n/a	n/a	n/a
374.8646	0.5167	COLOR_NAME	57	Neutral	zielony	green	Neutral	Neutral	hit	n/a
375.3631	n/a	RESPONSE	n/a	n/a	n/a	n/a	n/a	n/a	n/a	green
375.3812	1.0	ITI	n/a	n/a	n/a	n/a	n/a	n/a	n/a	n/a
376.3812	0.5	FIXCROSS	n/a	n/a	n/a	n/a	n/a	n/a	n/a	n/a
376.8812	0.5667	COLOR_NAME	58	Incongruent	zielony	green	żółty	yellow	hit	n/a
377.4417	n/a	RESPONSE	n/a	n/a	n/a	n/a	n/a	n/a	n/a	green
377.4479	1.0	ITI	n/a	n/a	n/a	n/a	n/a	n/a	n/a	n/a
378.4478	0.5	FIXCROSS	n/a	n/a	n/a	n/a	n/a	n/a	n/a	n/a
378.9478	0.6166	COLOR_NAME	59	Neutral	czerwony	red	Neutral	Neutral	hit	n/a
379.5523	n/a	RESPONSE	n/a	n/a	n/a	n/a	n/a	n/a	n/a	red
379.5645	1.0	ITI	n/a	n/a	n/a	n/a	n/a	n/a	n/a	n/a
380.5645	0.5	FIXCROSS	n/a	n/a	n/a	n/a	n/a	n/a	n/a	n/a
381.0645	1.4996	COLOR_NAME	60	Incongruent	niebieski	blue	czerwony	red	hit	n/a
382.5583	n/a	RESPONSE	n/a	n/a	n/a	n/a	n/a	n/a	n/a	blue
382.5641	1.0003	ITI	n/a	n/a	n/a	n/a	n/a	n/a	n/a	n/a
383.5644	0.5	FIXCROSS	n/a	n/a	n/a	n/a	n/a	n/a	n/a	n/a
384.0644	0.5667	COLOR_NAME	61	Incongruent	żółty	yellow	zielony	green	hit	n/a
384.621	n/a	RESPONSE	n/a	n/a	n/a	n/a	n/a	n/a	n/a	yellow
384.6311	1.0	ITI	n/a	n/a	n/a	n/a	n/a	n/a	n/a	n/a
385.631	0.5	FIXCROSS	n/a	n/a	n/a	n/a	n/a	n/a	n/a	n/a
386.131	0.7333	COLOR_NAME	62	Neutral	niebieski	blue	Neutral	Neutral	hit	n/a
386.8594	n/a	RESPONSE	n/a	n/a	n/a	n/a	n/a	n/a	n/a	blue
386.8644	1.0	ITI	n/a	n/a	n/a	n/a	n/a	n/a	n/a	n/a
387.8643	0.5	FIXCROSS	n/a	n/a	n/a	n/a	n/a	n/a	n/a	n/a
388.3643	0.6333	COLOR_NAME	63	Neutral	niebieski	blue	Neutral	Neutral	hit	n/a
388.9861	n/a	RESPONSE	n/a	n/a	n/a	n/a	n/a	n/a	n/a	blue
388.9977	1.0	ITI	n/a	n/a	n/a	n/a	n/a	n/a	n/a	n/a
389.9976	0.5	FIXCROSS	n/a	n/a	n/a	n/a	n/a	n/a	n/a	n/a
390.4976	0.5833	COLOR_NAME	64	Incongruent	żółty	yellow	czerwony	red	hit	n/a
391.0646	n/a	RESPONSE	n/a	n/a	n/a	n/a	n/a	n/a	n/a	yellow
391.081	1.0	ITI	n/a	n/a	n/a	n/a	n/a	n/a	n/a	n/a
392.0809	0.5	FIXCROSS	n/a	n/a	n/a	n/a	n/a	n/a	n/a	n/a
392.5809	0.5333	COLOR_NAME	65	Neutral	żółty	yellow	Neutral	Neutral	hit	n/a
393.0952	n/a	RESPONSE	n/a	n/a	n/a	n/a	n/a	n/a	n/a	yellow
393.1143	1.0	ITI	n/a	n/a	n/a	n/a	n/a	n/a	n/a	n/a
394.1142	0.5	FIXCROSS	n/a	n/a	n/a	n/a	n/a	n/a	n/a	n/a
394.6142	0.7667	COLOR_NAME	66	Incongruent	czerwony	red	niebieski	blue	hit	n/a
395.3658	n/a	RESPONSE	n/a	n/a	n/a	n/a	n/a	n/a	n/a	red
395.3809	1.0	ITI	n/a	n/a	n/a	n/a	n/a	n/a	n/a	n/a
396.3809	0.5	FIXCROSS	n/a	n/a	n/a	n/a	n/a	n/a	n/a	n/a
396.8808	0.45	COLOR_NAME	67	Neutral	czerwony	red	Neutral	Neutral	hit	n/a
397.3164	n/a	RESPONSE	n/a	n/a	n/a	n/a	n/a	n/a	n/a	red
397.3308	1.0	ITI	n/a	n/a	n/a	n/a	n/a	n/a	n/a	n/a
398.3308	0.5	FIXCROSS	n/a	n/a	n/a	n/a	n/a	n/a	n/a	n/a
398.8308	0.5	COLOR_NAME	68	Neutral	czerwony	red	Neutral	Neutral	hit	n/a
399.3151	n/a	RESPONSE	n/a	n/a	n/a	n/a	n/a	n/a	n/a	red
399.3308	1.0	ITI	n/a	n/a	n/a	n/a	n/a	n/a	n/a	n/a
400.3308	0.5	FIXCROSS	n/a	n/a	n/a	n/a	n/a	n/a	n/a	n/a
400.8308	0.5167	COLOR_NAME	69	Neutral	żółty	yellow	Neutral	Neutral	hit	n/a
401.3297	n/a	RESPONSE	n/a	n/a	n/a	n/a	n/a	n/a	n/a	yellow
401.3474	1.0	ITI	n/a	n/a	n/a	n/a	n/a	n/a	n/a	n/a
402.3474	0.5	FIXCROSS	n/a	n/a	n/a	n/a	n/a	n/a	n/a	n/a
402.8474	0.6666	COLOR_NAME	70	Incongruent	niebieski	blue	żółty	yellow	hit	n/a
403.5043	n/a	RESPONSE	n/a	n/a	n/a	n/a	n/a	n/a	n/a	blue
403.5141	1.0	ITI	n/a	n/a	n/a	n/a	n/a	n/a	n/a	n/a
404.514	0.5	FIXCROSS	n/a	n/a	n/a	n/a	n/a	n/a	n/a	n/a
405.014	0.55	COLOR_NAME	71	Neutral	czerwony	red	Neutral	Neutral	hit	n/a
405.5509	n/a	RESPONSE	n/a	n/a	n/a	n/a	n/a	n/a	n/a	red
405.564	1.0	ITI	n/a	n/a	n/a	n/a	n/a	n/a	n/a	n/a
406.564	0.5	FIXCROSS	n/a	n/a	n/a	n/a	n/a	n/a	n/a	n/a
407.064	1.75	COLOR_NAME	72	Incongruent	zielony	green	żółty	yellow	hit	n/a
408.7968	n/a	RESPONSE	n/a	n/a	n/a	n/a	n/a	n/a	n/a	green
408.814	1.0	ITI	n/a	n/a	n/a	n/a	n/a	n/a	n/a	n/a
412.0107	n/a	RESPONSE	n/a	n/a	n/a	n/a	n/a	n/a	n/a	n/a
