onset	duration	trial_type	trial_number	stroop_condition	stim_text(PL)	stim_text(eng)	stim_color(PL)	stim_color(eng)	response_type	response_color
0.0	n/a	RESPONSE	n/a	n/a	n/a	n/a	n/a	n/a	n/a	n/a
0.0607	1.0333	ITI	n/a	n/a	n/a	n/a	n/a	n/a	n/a	n/a
1.0941	0.5167	FIXCROSS	n/a	n/a	n/a	n/a	n/a	n/a	n/a	n/a
1.6107	0.95	T_INK	1	Neutral	xxxxxxx	xxxxxxx	niebieski	blue	hit	n/a
2.5274	n/a	RESPONSE	n/a	n/a	n/a	n/a	n/a	n/a	n/a	blue
2.5607	0.5167	FEEDBACK	n/a	n/a	n/a	n/a	n/a	n/a	n/a	n/a
3.0774	1.0167	ITI	n/a	n/a	n/a	n/a	n/a	n/a	n/a	n/a
4.0941	0.5167	FIXCROSS	n/a	n/a	n/a	n/a	n/a	n/a	n/a	n/a
4.6108	0.65	T_INK	2	Neutral	xxxxxxxx	xxxxxxxx	zielony	green	hit	n/a
5.2307	n/a	RESPONSE	n/a	n/a	n/a	n/a	n/a	n/a	n/a	green
5.2608	0.5167	FEEDBACK	n/a	n/a	n/a	n/a	n/a	n/a	n/a	n/a
5.7774	1.0167	ITI	n/a	n/a	n/a	n/a	n/a	n/a	n/a	n/a
6.7941	0.5167	FIXCROSS	n/a	n/a	n/a	n/a	n/a	n/a	n/a	n/a
7.3108	0.5	T_INK	3	Neutral	xxxxx	xxxxx	czerwony	red	hit	n/a
7.7741	n/a	RESPONSE	n/a	n/a	n/a	n/a	n/a	n/a	n/a	red
7.8108	0.5167	FEEDBACK	n/a	n/a	n/a	n/a	n/a	n/a	n/a	n/a
8.3275	1.0167	ITI	n/a	n/a	n/a	n/a	n/a	n/a	n/a	n/a
9.3441	0.5167	FIXCROSS	n/a	n/a	n/a	n/a	n/a	n/a	n/a	n/a
9.8608	0.4333	T_INK	4	Incongruent	czerwony	red	żółty	yellow	hit	n/a
10.2695	n/a	RESPONSE	n/a	n/a	n/a	n/a	n/a	n/a	n/a	yellow
10.2941	0.5167	FEEDBACK	n/a	n/a	n/a	n/a	n/a	n/a	n/a	n/a
10.8108	1.0167	ITI	n/a	n/a	n/a	n/a	n/a	n/a	n/a	n/a
11.8275	0.5167	FIXCROSS	n/a	n/a	n/a	n/a	n/a	n/a	n/a	n/a
12.3441	0.6833	T_INK	5	Incongruent	niebieski	blue	żółty	yellow	hit	n/a
13.0048	n/a	RESPONSE	n/a	n/a	n/a	n/a	n/a	n/a	n/a	yellow
13.0275	0.5167	FEEDBACK	n/a	n/a	n/a	n/a	n/a	n/a	n/a	n/a
13.5441	1.0167	ITI	n/a	n/a	n/a	n/a	n/a	n/a	n/a	n/a
14.5608	0.5167	FIXCROSS	n/a	n/a	n/a	n/a	n/a	n/a	n/a	n/a
15.0775	0.7833	T_INK	6	Incongruent	niebieski	blue	zielony	green	hit	n/a
15.8362	n/a	RESPONSE	n/a	n/a	n/a	n/a	n/a	n/a	n/a	green
15.8608	0.5167	FEEDBACK	n/a	n/a	n/a	n/a	n/a	n/a	n/a	n/a
16.3775	1.0167	ITI	n/a	n/a	n/a	n/a	n/a	n/a	n/a	n/a
17.3942	0.5167	FIXCROSS	n/a	n/a	n/a	n/a	n/a	n/a	n/a	n/a
17.9109	0.6167	T_INK	7	Incongruent	zielony	green	niebieski	blue	hit	n/a
18.5075	n/a	RESPONSE	n/a	n/a	n/a	n/a	n/a	n/a	n/a	blue
18.5275	0.5167	FEEDBACK	n/a	n/a	n/a	n/a	n/a	n/a	n/a	n/a
19.0442	1.0167	ITI	n/a	n/a	n/a	n/a	n/a	n/a	n/a	n/a
20.0609	0.5167	FIXCROSS	n/a	n/a	n/a	n/a	n/a	n/a	n/a	n/a
20.5775	0.4667	T_INK	8	Incongruent	żółty	yellow	czerwony	red	hit	n/a
21.0189	n/a	RESPONSE	n/a	n/a	n/a	n/a	n/a	n/a	n/a	red
21.0442	0.5167	FEEDBACK	n/a	n/a	n/a	n/a	n/a	n/a	n/a	n/a
21.5609	1.0167	ITI	n/a	n/a	n/a	n/a	n/a	n/a	n/a	n/a
22.5775	0.5167	FIXCROSS	n/a	n/a	n/a	n/a	n/a	n/a	n/a	n/a
23.0942	0.5667	T_INK	9	Incongruent	zielony	green	czerwony	red	hit	n/a
23.6263	n/a	RESPONSE	n/a	n/a	n/a	n/a	n/a	n/a	n/a	red
23.6609	0.5167	FEEDBACK	n/a	n/a	n/a	n/a	n/a	n/a	n/a	n/a
24.1776	1.0167	ITI	n/a	n/a	n/a	n/a	n/a	n/a	n/a	n/a
25.1942	0.5167	FIXCROSS	n/a	n/a	n/a	n/a	n/a	n/a	n/a	n/a
25.7109	0.7333	T_INK	10	Neutral	xxxxxxx	xxxxxxx	żółty	yellow	hit	n/a
26.4096	n/a	RESPONSE	n/a	n/a	n/a	n/a	n/a	n/a	n/a	yellow
26.4442	0.5167	FEEDBACK	n/a	n/a	n/a	n/a	n/a	n/a	n/a	n/a
26.9609	1.0167	ITI	n/a	n/a	n/a	n/a	n/a	n/a	n/a	n/a
27.9776	0.5167	FIXCROSS	n/a	n/a	n/a	n/a	n/a	n/a	n/a	n/a
28.4943	0.5	T_INK	11	Neutral	xxxxxxxxx	xxxxxxxxx	zielony	green	hit	n/a
28.969	n/a	RESPONSE	n/a	n/a	n/a	n/a	n/a	n/a	n/a	green
28.9943	0.5167	FEEDBACK	n/a	n/a	n/a	n/a	n/a	n/a	n/a	n/a
29.5109	1.0167	ITI	n/a	n/a	n/a	n/a	n/a	n/a	n/a	n/a
30.5276	0.5167	FIXCROSS	n/a	n/a	n/a	n/a	n/a	n/a	n/a	n/a
31.0443	0.5333	T_INK	12	Neutral	xxxxx	xxxxx	niebieski	blue	hit	n/a
31.5444	n/a	RESPONSE	n/a	n/a	n/a	n/a	n/a	n/a	n/a	blue
31.5776	0.5167	FEEDBACK	n/a	n/a	n/a	n/a	n/a	n/a	n/a	n/a
32.0943	1.0333	ITI	n/a	n/a	n/a	n/a	n/a	n/a	n/a	n/a
35.7033	n/a	RESPONSE	n/a	n/a	n/a	n/a	n/a	n/a	n/a	n/a
35.761	1.0167	ITI	n/a	n/a	n/a	n/a	n/a	n/a	n/a	n/a
36.7777	0.5167	FIXCROSS	n/a	n/a	n/a	n/a	n/a	n/a	n/a	n/a
37.2943	0.7333	INK	1	Incongruent	żółty	yellow	niebieski	blue	hit	n/a
38.0068	n/a	RESPONSE	n/a	n/a	n/a	n/a	n/a	n/a	n/a	blue
38.0277	1.0167	ITI	n/a	n/a	n/a	n/a	n/a	n/a	n/a	n/a
39.0443	0.5167	FIXCROSS	n/a	n/a	n/a	n/a	n/a	n/a	n/a	n/a
39.561	0.5833	INK	2	Incongruent	niebieski	blue	zielony	green	incorrect	n/a
40.1183	n/a	RESPONSE	n/a	n/a	n/a	n/a	n/a	n/a	n/a	yellow
40.1444	1.0167	ITI	n/a	n/a	n/a	n/a	n/a	n/a	n/a	n/a
41.161	0.5167	FIXCROSS	n/a	n/a	n/a	n/a	n/a	n/a	n/a	n/a
41.6777	0.7	INK	3	Neutral	xxxxx	xxxxx	czerwony	red	hit	n/a
42.3578	n/a	RESPONSE	n/a	n/a	n/a	n/a	n/a	n/a	n/a	red
42.3777	1.0167	ITI	n/a	n/a	n/a	n/a	n/a	n/a	n/a	n/a
43.3944	0.5167	FIXCROSS	n/a	n/a	n/a	n/a	n/a	n/a	n/a	n/a
43.911	0.6333	INK	4	Neutral	xxxxxxxxx	xxxxxxxxx	żółty	yellow	hit	n/a
44.5172	n/a	RESPONSE	n/a	n/a	n/a	n/a	n/a	n/a	n/a	yellow
44.5444	1.0167	ITI	n/a	n/a	n/a	n/a	n/a	n/a	n/a	n/a
45.5611	0.5167	FIXCROSS	n/a	n/a	n/a	n/a	n/a	n/a	n/a	n/a
46.0777	0.6833	INK	5	Incongruent	żółty	yellow	czerwony	red	hit	n/a
46.7407	n/a	RESPONSE	n/a	n/a	n/a	n/a	n/a	n/a	n/a	red
46.7611	1.0167	ITI	n/a	n/a	n/a	n/a	n/a	n/a	n/a	n/a
47.7777	0.5167	FIXCROSS	n/a	n/a	n/a	n/a	n/a	n/a	n/a	n/a
48.2944	0.5	INK	6	Neutral	xxxxx	xxxxx	czerwony	red	hit	n/a
48.7722	n/a	RESPONSE	n/a	n/a	n/a	n/a	n/a	n/a	n/a	red
48.7944	1.0167	ITI	n/a	n/a	n/a	n/a	n/a	n/a	n/a	n/a
49.8111	0.5167	FIXCROSS	n/a	n/a	n/a	n/a	n/a	n/a	n/a	n/a
50.3277	0.6833	INK	7	Incongruent	zielony	green	czerwony	red	hit	n/a
50.9797	n/a	RESPONSE	n/a	n/a	n/a	n/a	n/a	n/a	n/a	red
51.0111	1.0167	ITI	n/a	n/a	n/a	n/a	n/a	n/a	n/a	n/a
52.0278	0.5167	FIXCROSS	n/a	n/a	n/a	n/a	n/a	n/a	n/a	n/a
52.5444	0.4667	INK	8	Neutral	xxxxxxx	xxxxxxx	żółty	yellow	hit	n/a
52.9792	n/a	RESPONSE	n/a	n/a	n/a	n/a	n/a	n/a	n/a	yellow
53.0111	1.0167	ITI	n/a	n/a	n/a	n/a	n/a	n/a	n/a	n/a
54.0278	0.5167	FIXCROSS	n/a	n/a	n/a	n/a	n/a	n/a	n/a	n/a
54.5444	0.55	INK	9	Incongruent	żółty	yellow	zielony	green	hit	n/a
55.0747	n/a	RESPONSE	n/a	n/a	n/a	n/a	n/a	n/a	n/a	green
55.0945	1.0167	ITI	n/a	n/a	n/a	n/a	n/a	n/a	n/a	n/a
56.1111	0.5167	FIXCROSS	n/a	n/a	n/a	n/a	n/a	n/a	n/a	n/a
56.6278	0.6167	INK	10	Neutral	xxxxxxxxx	xxxxxxxxx	zielony	green	hit	n/a
57.2182	n/a	RESPONSE	n/a	n/a	n/a	n/a	n/a	n/a	n/a	green
57.2445	1.0167	ITI	n/a	n/a	n/a	n/a	n/a	n/a	n/a	n/a
58.2611	0.5167	FIXCROSS	n/a	n/a	n/a	n/a	n/a	n/a	n/a	n/a
58.7778	0.4	INK	11	Neutral	xxxxx	xxxxx	zielony	green	hit	n/a
59.1537	n/a	RESPONSE	n/a	n/a	n/a	n/a	n/a	n/a	n/a	green
59.1778	1.0167	ITI	n/a	n/a	n/a	n/a	n/a	n/a	n/a	n/a
60.1945	0.5167	FIXCROSS	n/a	n/a	n/a	n/a	n/a	n/a	n/a	n/a
60.7112	0.4833	INK	12	Neutral	xxxxxxxx	xxxxxxxx	niebieski	blue	hit	n/a
61.1692	n/a	RESPONSE	n/a	n/a	n/a	n/a	n/a	n/a	n/a	blue
61.1945	1.0167	ITI	n/a	n/a	n/a	n/a	n/a	n/a	n/a	n/a
62.2112	0.5167	FIXCROSS	n/a	n/a	n/a	n/a	n/a	n/a	n/a	n/a
62.7278	0.55	INK	13	Incongruent	żółty	yellow	niebieski	blue	hit	n/a
63.2487	n/a	RESPONSE	n/a	n/a	n/a	n/a	n/a	n/a	n/a	blue
63.2778	1.0167	ITI	n/a	n/a	n/a	n/a	n/a	n/a	n/a	n/a
64.2945	0.5167	FIXCROSS	n/a	n/a	n/a	n/a	n/a	n/a	n/a	n/a
64.8112	0.4667	INK	14	Incongruent	żółty	yellow	czerwony	red	hit	n/a
65.2482	n/a	RESPONSE	n/a	n/a	n/a	n/a	n/a	n/a	n/a	red
65.2779	1.0167	ITI	n/a	n/a	n/a	n/a	n/a	n/a	n/a	n/a
66.2945	0.5167	FIXCROSS	n/a	n/a	n/a	n/a	n/a	n/a	n/a	n/a
66.8112	0.5833	INK	15	Incongruent	czerwony	red	żółty	yellow	hit	n/a
67.3757	n/a	RESPONSE	n/a	n/a	n/a	n/a	n/a	n/a	n/a	yellow
67.3945	1.0167	ITI	n/a	n/a	n/a	n/a	n/a	n/a	n/a	n/a
68.4112	0.5167	FIXCROSS	n/a	n/a	n/a	n/a	n/a	n/a	n/a	n/a
68.9279	0.4667	INK	16	Incongruent	czerwony	red	żółty	yellow	hit	n/a
69.3752	n/a	RESPONSE	n/a	n/a	n/a	n/a	n/a	n/a	n/a	yellow
69.3945	1.0167	ITI	n/a	n/a	n/a	n/a	n/a	n/a	n/a	n/a
70.4112	0.5167	FIXCROSS	n/a	n/a	n/a	n/a	n/a	n/a	n/a	n/a
70.9279	0.45	INK	17	Neutral	xxxxxxxx	xxxxxxxx	żółty	yellow	hit	n/a
71.3588	n/a	RESPONSE	n/a	n/a	n/a	n/a	n/a	n/a	n/a	yellow
71.3779	1.0167	ITI	n/a	n/a	n/a	n/a	n/a	n/a	n/a	n/a
72.3946	0.5167	FIXCROSS	n/a	n/a	n/a	n/a	n/a	n/a	n/a	n/a
72.9112	0.4333	INK	18	Incongruent	niebieski	blue	żółty	yellow	hit	n/a
73.3263	n/a	RESPONSE	n/a	n/a	n/a	n/a	n/a	n/a	n/a	yellow
73.3446	1.0167	ITI	n/a	n/a	n/a	n/a	n/a	n/a	n/a	n/a
74.3613	0.5167	FIXCROSS	n/a	n/a	n/a	n/a	n/a	n/a	n/a	n/a
74.8779	0.5333	INK	19	Incongruent	żółty	yellow	zielony	green	hit	n/a
75.3898	n/a	RESPONSE	n/a	n/a	n/a	n/a	n/a	n/a	n/a	green
75.4113	1.0167	ITI	n/a	n/a	n/a	n/a	n/a	n/a	n/a	n/a
76.4279	0.5167	FIXCROSS	n/a	n/a	n/a	n/a	n/a	n/a	n/a	n/a
76.9446	0.4333	INK	20	Neutral	xxxxxxx	xxxxxxx	czerwony	red	hit	n/a
77.3573	n/a	RESPONSE	n/a	n/a	n/a	n/a	n/a	n/a	n/a	red
77.3779	1.0167	ITI	n/a	n/a	n/a	n/a	n/a	n/a	n/a	n/a
78.3946	0.5167	FIXCROSS	n/a	n/a	n/a	n/a	n/a	n/a	n/a	n/a
78.9113	0.4667	INK	21	Incongruent	zielony	green	czerwony	red	hit	n/a
79.3568	n/a	RESPONSE	n/a	n/a	n/a	n/a	n/a	n/a	n/a	red
79.378	1.0167	ITI	n/a	n/a	n/a	n/a	n/a	n/a	n/a	n/a
80.3946	0.5167	FIXCROSS	n/a	n/a	n/a	n/a	n/a	n/a	n/a	n/a
80.9113	0.5167	INK	22	Neutral	xxxxxxx	xxxxxxx	czerwony	red	hit	n/a
81.4043	n/a	RESPONSE	n/a	n/a	n/a	n/a	n/a	n/a	n/a	red
81.428	1.0167	ITI	n/a	n/a	n/a	n/a	n/a	n/a	n/a	n/a
82.4446	0.5167	FIXCROSS	n/a	n/a	n/a	n/a	n/a	n/a	n/a	n/a
82.9613	0.4167	INK	23	Incongruent	zielony	green	czerwony	red	hit	n/a
83.3558	n/a	RESPONSE	n/a	n/a	n/a	n/a	n/a	n/a	n/a	red
83.378	1.0167	ITI	n/a	n/a	n/a	n/a	n/a	n/a	n/a	n/a
83.4998	n/a	RESPONSE	n/a	n/a	n/a	n/a	n/a	n/a	n/a	red
84.3947	0.5167	FIXCROSS	n/a	n/a	n/a	n/a	n/a	n/a	n/a	n/a
84.9113	0.6	INK	24	Incongruent	czerwony	red	niebieski	blue	hit	n/a
85.4833	n/a	RESPONSE	n/a	n/a	n/a	n/a	n/a	n/a	n/a	blue
85.5113	1.0167	ITI	n/a	n/a	n/a	n/a	n/a	n/a	n/a	n/a
86.528	0.5167	FIXCROSS	n/a	n/a	n/a	n/a	n/a	n/a	n/a	n/a
87.0447	0.45	INK	25	Neutral	xxxxxxxxx	xxxxxxxxx	zielony	green	incorrect	n/a
87.4669	n/a	RESPONSE	n/a	n/a	n/a	n/a	n/a	n/a	n/a	yellow
87.4947	1.0167	ITI	n/a	n/a	n/a	n/a	n/a	n/a	n/a	n/a
88.5114	0.5167	FIXCROSS	n/a	n/a	n/a	n/a	n/a	n/a	n/a	n/a
89.028	0.6167	INK	26	Neutral	xxxxx	xxxxx	niebieski	blue	hit	n/a
89.6264	n/a	RESPONSE	n/a	n/a	n/a	n/a	n/a	n/a	n/a	blue
89.6447	1.0167	ITI	n/a	n/a	n/a	n/a	n/a	n/a	n/a	n/a
90.6614	0.5167	FIXCROSS	n/a	n/a	n/a	n/a	n/a	n/a	n/a	n/a
91.178	0.5	INK	27	Neutral	xxxxx	xxxxx	zielony	green	hit	n/a
91.6578	n/a	RESPONSE	n/a	n/a	n/a	n/a	n/a	n/a	n/a	green
91.678	1.0167	ITI	n/a	n/a	n/a	n/a	n/a	n/a	n/a	n/a
92.6947	0.5167	FIXCROSS	n/a	n/a	n/a	n/a	n/a	n/a	n/a	n/a
93.2114	0.6	INK	28	Neutral	xxxxxxxx	xxxxxxxx	żółty	yellow	hit	n/a
93.7853	n/a	RESPONSE	n/a	n/a	n/a	n/a	n/a	n/a	n/a	yellow
93.8114	1.0167	ITI	n/a	n/a	n/a	n/a	n/a	n/a	n/a	n/a
94.8281	0.5167	FIXCROSS	n/a	n/a	n/a	n/a	n/a	n/a	n/a	n/a
95.3447	0.5167	INK	29	Neutral	xxxxxxx	xxxxxxx	czerwony	red	hit	n/a
95.8328	n/a	RESPONSE	n/a	n/a	n/a	n/a	n/a	n/a	n/a	red
95.8614	1.0167	ITI	n/a	n/a	n/a	n/a	n/a	n/a	n/a	n/a
96.8781	0.5167	FIXCROSS	n/a	n/a	n/a	n/a	n/a	n/a	n/a	n/a
97.3947	0.5667	INK	30	Incongruent	niebieski	blue	zielony	green	hit	n/a
97.9284	n/a	RESPONSE	n/a	n/a	n/a	n/a	n/a	n/a	n/a	green
97.9614	1.0167	ITI	n/a	n/a	n/a	n/a	n/a	n/a	n/a	n/a
98.9781	0.5167	FIXCROSS	n/a	n/a	n/a	n/a	n/a	n/a	n/a	n/a
99.4948	0.6667	INK	31	Incongruent	żółty	yellow	czerwony	red	hit	n/a
100.1358	n/a	RESPONSE	n/a	n/a	n/a	n/a	n/a	n/a	n/a	red
100.1614	1.0167	ITI	n/a	n/a	n/a	n/a	n/a	n/a	n/a	n/a
101.1781	0.5167	FIXCROSS	n/a	n/a	n/a	n/a	n/a	n/a	n/a	n/a
101.6948	0.5333	INK	32	Incongruent	zielony	green	niebieski	blue	hit	n/a
102.1993	n/a	RESPONSE	n/a	n/a	n/a	n/a	n/a	n/a	n/a	blue
102.2281	1.0167	ITI	n/a	n/a	n/a	n/a	n/a	n/a	n/a	n/a
103.2448	0.5167	FIXCROSS	n/a	n/a	n/a	n/a	n/a	n/a	n/a	n/a
103.7615	0.4833	INK	33	Incongruent	żółty	yellow	niebieski	blue	hit	n/a
104.2148	n/a	RESPONSE	n/a	n/a	n/a	n/a	n/a	n/a	n/a	blue
104.2448	1.0167	ITI	n/a	n/a	n/a	n/a	n/a	n/a	n/a	n/a
105.2615	0.5167	FIXCROSS	n/a	n/a	n/a	n/a	n/a	n/a	n/a	n/a
105.7781	0.5	INK	34	Neutral	xxxxxxxxx	xxxxxxxxx	czerwony	red	hit	n/a
106.2463	n/a	RESPONSE	n/a	n/a	n/a	n/a	n/a	n/a	n/a	red
106.2781	1.0167	ITI	n/a	n/a	n/a	n/a	n/a	n/a	n/a	n/a
107.2948	0.5167	FIXCROSS	n/a	n/a	n/a	n/a	n/a	n/a	n/a	n/a
107.8115	0.5167	INK	35	Neutral	xxxxxxx	xxxxxxx	niebieski	blue	hit	n/a
108.3098	n/a	RESPONSE	n/a	n/a	n/a	n/a	n/a	n/a	n/a	blue
108.3282	1.0167	ITI	n/a	n/a	n/a	n/a	n/a	n/a	n/a	n/a
109.3448	0.5167	FIXCROSS	n/a	n/a	n/a	n/a	n/a	n/a	n/a	n/a
109.8615	0.4833	INK	36	Incongruent	niebieski	blue	zielony	green	hit	n/a
110.3253	n/a	RESPONSE	n/a	n/a	n/a	n/a	n/a	n/a	n/a	green
110.3448	1.0167	ITI	n/a	n/a	n/a	n/a	n/a	n/a	n/a	n/a
111.3615	0.5167	FIXCROSS	n/a	n/a	n/a	n/a	n/a	n/a	n/a	n/a
111.8782	0.6167	INK	37	Neutral	xxxxx	xxxxx	niebieski	blue	hit	n/a
112.4688	n/a	RESPONSE	n/a	n/a	n/a	n/a	n/a	n/a	n/a	blue
112.4949	1.0167	ITI	n/a	n/a	n/a	n/a	n/a	n/a	n/a	n/a
113.5115	0.5167	FIXCROSS	n/a	n/a	n/a	n/a	n/a	n/a	n/a	n/a
114.0282	0.5833	INK	38	Neutral	xxxxxxx	xxxxxxx	żółty	yellow	hit	n/a
114.5803	n/a	RESPONSE	n/a	n/a	n/a	n/a	n/a	n/a	n/a	yellow
114.6115	1.0167	ITI	n/a	n/a	n/a	n/a	n/a	n/a	n/a	n/a
115.6282	0.5167	FIXCROSS	n/a	n/a	n/a	n/a	n/a	n/a	n/a	n/a
116.1449	0.4833	INK	39	Incongruent	niebieski	blue	żółty	yellow	hit	n/a
116.5958	n/a	RESPONSE	n/a	n/a	n/a	n/a	n/a	n/a	n/a	yellow
116.6282	1.0167	ITI	n/a	n/a	n/a	n/a	n/a	n/a	n/a	n/a
117.6449	0.5167	FIXCROSS	n/a	n/a	n/a	n/a	n/a	n/a	n/a	n/a
118.1616	0.55	INK	40	Incongruent	zielony	green	niebieski	blue	hit	n/a
118.6913	n/a	RESPONSE	n/a	n/a	n/a	n/a	n/a	n/a	n/a	blue
118.7116	1.0167	ITI	n/a	n/a	n/a	n/a	n/a	n/a	n/a	n/a
119.7282	0.5167	FIXCROSS	n/a	n/a	n/a	n/a	n/a	n/a	n/a	n/a
120.2449	0.45	INK	41	Neutral	xxxxxxxx	xxxxxxxx	zielony	green	hit	n/a
120.6748	n/a	RESPONSE	n/a	n/a	n/a	n/a	n/a	n/a	n/a	green
120.6949	1.0167	ITI	n/a	n/a	n/a	n/a	n/a	n/a	n/a	n/a
121.7116	0.5167	FIXCROSS	n/a	n/a	n/a	n/a	n/a	n/a	n/a	n/a
122.2283	0.6167	INK	42	Neutral	xxxxx	xxxxx	niebieski	blue	hit	n/a
122.8183	n/a	RESPONSE	n/a	n/a	n/a	n/a	n/a	n/a	n/a	blue
122.8449	1.0167	ITI	n/a	n/a	n/a	n/a	n/a	n/a	n/a	n/a
123.8616	0.5167	FIXCROSS	n/a	n/a	n/a	n/a	n/a	n/a	n/a	n/a
124.3783	0.6333	INK	43	Incongruent	zielony	green	żółty	yellow	hit	n/a
124.9938	n/a	RESPONSE	n/a	n/a	n/a	n/a	n/a	n/a	n/a	yellow
125.0116	1.0167	ITI	n/a	n/a	n/a	n/a	n/a	n/a	n/a	n/a
126.0283	0.5167	FIXCROSS	n/a	n/a	n/a	n/a	n/a	n/a	n/a	n/a
126.545	0.6	INK	44	Incongruent	czerwony	red	zielony	green	hit	n/a
127.1213	n/a	RESPONSE	n/a	n/a	n/a	n/a	n/a	n/a	n/a	green
127.145	1.0167	ITI	n/a	n/a	n/a	n/a	n/a	n/a	n/a	n/a
128.1616	0.5167	FIXCROSS	n/a	n/a	n/a	n/a	n/a	n/a	n/a	n/a
128.6783	0.5667	INK	45	Neutral	xxxxxxxx	xxxxxxxx	zielony	green	hit	n/a
129.2168	n/a	RESPONSE	n/a	n/a	n/a	n/a	n/a	n/a	n/a	green
129.245	1.0167	ITI	n/a	n/a	n/a	n/a	n/a	n/a	n/a	n/a
130.2616	0.5167	FIXCROSS	n/a	n/a	n/a	n/a	n/a	n/a	n/a	n/a
130.7783	0.55	INK	46	Neutral	xxxxx	xxxxx	czerwony	red	hit	n/a
131.2963	n/a	RESPONSE	n/a	n/a	n/a	n/a	n/a	n/a	n/a	red
131.3283	1.0167	ITI	n/a	n/a	n/a	n/a	n/a	n/a	n/a	n/a
132.345	0.5167	FIXCROSS	n/a	n/a	n/a	n/a	n/a	n/a	n/a	n/a
132.8617	0.4833	INK	47	Neutral	xxxxxxxx	xxxxxxxx	niebieski	blue	hit	n/a
133.3278	n/a	RESPONSE	n/a	n/a	n/a	n/a	n/a	n/a	n/a	blue
133.345	1.0167	ITI	n/a	n/a	n/a	n/a	n/a	n/a	n/a	n/a
134.3617	0.5167	FIXCROSS	n/a	n/a	n/a	n/a	n/a	n/a	n/a	n/a
134.8783	0.5	INK	48	Incongruent	czerwony	red	zielony	green	hit	n/a
135.3593	n/a	RESPONSE	n/a	n/a	n/a	n/a	n/a	n/a	n/a	green
135.3784	1.0167	ITI	n/a	n/a	n/a	n/a	n/a	n/a	n/a	n/a
136.395	0.5167	FIXCROSS	n/a	n/a	n/a	n/a	n/a	n/a	n/a	n/a
136.9117	0.5667	INK	49	Neutral	xxxxxxxx	xxxxxxxx	zielony	green	hit	n/a
137.4548	n/a	RESPONSE	n/a	n/a	n/a	n/a	n/a	n/a	n/a	green
137.4784	1.0167	ITI	n/a	n/a	n/a	n/a	n/a	n/a	n/a	n/a
138.495	0.5167	FIXCROSS	n/a	n/a	n/a	n/a	n/a	n/a	n/a	n/a
139.0117	0.6167	INK	50	Neutral	xxxxxxxx	xxxxxxxx	niebieski	blue	hit	n/a
139.5983	n/a	RESPONSE	n/a	n/a	n/a	n/a	n/a	n/a	n/a	blue
139.6284	1.0167	ITI	n/a	n/a	n/a	n/a	n/a	n/a	n/a	n/a
140.6451	0.5167	FIXCROSS	n/a	n/a	n/a	n/a	n/a	n/a	n/a	n/a
141.1617	0.6833	INK	51	Neutral	xxxxxxx	xxxxxxx	żółty	yellow	hit	n/a
141.8217	n/a	RESPONSE	n/a	n/a	n/a	n/a	n/a	n/a	n/a	yellow
141.8451	1.0167	ITI	n/a	n/a	n/a	n/a	n/a	n/a	n/a	n/a
142.8617	0.5167	FIXCROSS	n/a	n/a	n/a	n/a	n/a	n/a	n/a	n/a
143.3784	0.5333	INK	52	Neutral	xxxxxxxx	xxxxxxxx	żółty	yellow	hit	n/a
143.8852	n/a	RESPONSE	n/a	n/a	n/a	n/a	n/a	n/a	n/a	yellow
143.9117	1.0167	ITI	n/a	n/a	n/a	n/a	n/a	n/a	n/a	n/a
144.9284	0.5167	FIXCROSS	n/a	n/a	n/a	n/a	n/a	n/a	n/a	n/a
145.4451	0.5667	INK	53	Neutral	xxxxxxxxx	xxxxxxxxx	zielony	green	hit	n/a
145.9808	n/a	RESPONSE	n/a	n/a	n/a	n/a	n/a	n/a	n/a	green
146.0118	1.0167	ITI	n/a	n/a	n/a	n/a	n/a	n/a	n/a	n/a
147.0284	0.5167	FIXCROSS	n/a	n/a	n/a	n/a	n/a	n/a	n/a	n/a
147.5451	0.4667	INK	54	Incongruent	czerwony	red	niebieski	blue	hit	n/a
147.9803	n/a	RESPONSE	n/a	n/a	n/a	n/a	n/a	n/a	n/a	blue
148.0118	1.0167	ITI	n/a	n/a	n/a	n/a	n/a	n/a	n/a	n/a
149.0284	0.5167	FIXCROSS	n/a	n/a	n/a	n/a	n/a	n/a	n/a	n/a
149.5451	0.6167	INK	55	Incongruent	żółty	yellow	zielony	green	hit	n/a
150.1397	n/a	RESPONSE	n/a	n/a	n/a	n/a	n/a	n/a	n/a	green
150.1618	1.0167	ITI	n/a	n/a	n/a	n/a	n/a	n/a	n/a	n/a
151.1785	0.5167	FIXCROSS	n/a	n/a	n/a	n/a	n/a	n/a	n/a	n/a
151.6951	0.5167	INK	56	Incongruent	zielony	green	żółty	yellow	hit	n/a
152.1872	n/a	RESPONSE	n/a	n/a	n/a	n/a	n/a	n/a	n/a	yellow
152.2118	1.0167	ITI	n/a	n/a	n/a	n/a	n/a	n/a	n/a	n/a
153.2285	0.5167	FIXCROSS	n/a	n/a	n/a	n/a	n/a	n/a	n/a	n/a
153.7451	0.3667	INK	57	Incongruent	niebieski	blue	czerwony	red	hit	n/a
154.0908	n/a	RESPONSE	n/a	n/a	n/a	n/a	n/a	n/a	n/a	red
154.1118	1.0167	ITI	n/a	n/a	n/a	n/a	n/a	n/a	n/a	n/a
155.1285	0.5167	FIXCROSS	n/a	n/a	n/a	n/a	n/a	n/a	n/a	n/a
155.6452	0.65	INK	58	Neutral	xxxxxxx	xxxxxxx	niebieski	blue	hit	n/a
156.2662	n/a	RESPONSE	n/a	n/a	n/a	n/a	n/a	n/a	n/a	blue
156.2952	1.0167	ITI	n/a	n/a	n/a	n/a	n/a	n/a	n/a	n/a
157.3118	0.5167	FIXCROSS	n/a	n/a	n/a	n/a	n/a	n/a	n/a	n/a
157.8285	0.6167	INK	59	Incongruent	czerwony	red	żółty	yellow	incorrect	n/a
158.4257	n/a	RESPONSE	n/a	n/a	n/a	n/a	n/a	n/a	n/a	green
158.4452	1.0167	ITI	n/a	n/a	n/a	n/a	n/a	n/a	n/a	n/a
159.4618	0.5167	FIXCROSS	n/a	n/a	n/a	n/a	n/a	n/a	n/a	n/a
159.9785	0.5667	INK	60	Neutral	xxxxxxxxx	xxxxxxxxx	żółty	yellow	hit	n/a
160.5212	n/a	RESPONSE	n/a	n/a	n/a	n/a	n/a	n/a	n/a	yellow
160.5452	1.0167	ITI	n/a	n/a	n/a	n/a	n/a	n/a	n/a	n/a
161.5619	0.5167	FIXCROSS	n/a	n/a	n/a	n/a	n/a	n/a	n/a	n/a
162.0785	0.5999	INK	61	Incongruent	niebieski	blue	czerwony	red	hit	n/a
162.6487	n/a	RESPONSE	n/a	n/a	n/a	n/a	n/a	n/a	n/a	red
162.6785	1.0168	ITI	n/a	n/a	n/a	n/a	n/a	n/a	n/a	n/a
163.6952	0.5167	FIXCROSS	n/a	n/a	n/a	n/a	n/a	n/a	n/a	n/a
164.2119	0.4667	INK	62	Incongruent	czerwony	red	niebieski	blue	hit	n/a
164.6482	n/a	RESPONSE	n/a	n/a	n/a	n/a	n/a	n/a	n/a	blue
164.6785	1.0167	ITI	n/a	n/a	n/a	n/a	n/a	n/a	n/a	n/a
165.6952	0.5167	FIXCROSS	n/a	n/a	n/a	n/a	n/a	n/a	n/a	n/a
166.2119	0.6	INK	63	Neutral	xxxxxxxxx	xxxxxxxxx	czerwony	red	hit	n/a
166.7917	n/a	RESPONSE	n/a	n/a	n/a	n/a	n/a	n/a	n/a	red
166.8119	1.0167	ITI	n/a	n/a	n/a	n/a	n/a	n/a	n/a	n/a
167.8286	0.5167	FIXCROSS	n/a	n/a	n/a	n/a	n/a	n/a	n/a	n/a
168.3452	0.45	INK	64	Neutral	xxxxx	xxxxx	zielony	green	hit	n/a
168.7752	n/a	RESPONSE	n/a	n/a	n/a	n/a	n/a	n/a	n/a	green
168.7952	1.0167	ITI	n/a	n/a	n/a	n/a	n/a	n/a	n/a	n/a
169.8119	0.5167	FIXCROSS	n/a	n/a	n/a	n/a	n/a	n/a	n/a	n/a
170.3286	0.55	INK	65	Incongruent	zielony	green	żółty	yellow	hit	n/a
170.8547	n/a	RESPONSE	n/a	n/a	n/a	n/a	n/a	n/a	n/a	yellow
170.8786	1.0167	ITI	n/a	n/a	n/a	n/a	n/a	n/a	n/a	n/a
171.8953	0.5167	FIXCROSS	n/a	n/a	n/a	n/a	n/a	n/a	n/a	n/a
172.4119	0.5	INK	66	Incongruent	niebieski	blue	czerwony	red	hit	n/a
172.8862	n/a	RESPONSE	n/a	n/a	n/a	n/a	n/a	n/a	n/a	red
172.9119	1.0167	ITI	n/a	n/a	n/a	n/a	n/a	n/a	n/a	n/a
173.9286	0.5167	FIXCROSS	n/a	n/a	n/a	n/a	n/a	n/a	n/a	n/a
174.4453	0.65	INK	67	Incongruent	czerwony	red	zielony	green	hit	n/a
175.0777	n/a	RESPONSE	n/a	n/a	n/a	n/a	n/a	n/a	n/a	green
175.0953	1.0167	ITI	n/a	n/a	n/a	n/a	n/a	n/a	n/a	n/a
176.112	0.5167	FIXCROSS	n/a	n/a	n/a	n/a	n/a	n/a	n/a	n/a
176.6286	0.4833	INK	68	Incongruent	niebieski	blue	żółty	yellow	hit	n/a
177.0932	n/a	RESPONSE	n/a	n/a	n/a	n/a	n/a	n/a	n/a	yellow
177.112	1.0167	ITI	n/a	n/a	n/a	n/a	n/a	n/a	n/a	n/a
178.1286	0.5167	FIXCROSS	n/a	n/a	n/a	n/a	n/a	n/a	n/a	n/a
178.6453	0.5499	INK	69	Neutral	xxxxxxxxx	xxxxxxxxx	czerwony	red	hit	n/a
179.1727	n/a	RESPONSE	n/a	n/a	n/a	n/a	n/a	n/a	n/a	red
179.1953	1.0167	ITI	n/a	n/a	n/a	n/a	n/a	n/a	n/a	n/a
180.212	0.5167	FIXCROSS	n/a	n/a	n/a	n/a	n/a	n/a	n/a	n/a
180.7287	0.5667	INK	70	Incongruent	zielony	green	niebieski	blue	hit	n/a
181.2682	n/a	RESPONSE	n/a	n/a	n/a	n/a	n/a	n/a	n/a	blue
181.2953	1.0167	ITI	n/a	n/a	n/a	n/a	n/a	n/a	n/a	n/a
182.312	0.5167	FIXCROSS	n/a	n/a	n/a	n/a	n/a	n/a	n/a	n/a
182.8287	0.45	INK	71	Neutral	xxxxxxx	xxxxxxx	niebieski	blue	hit	n/a
183.2517	n/a	RESPONSE	n/a	n/a	n/a	n/a	n/a	n/a	n/a	blue
183.2787	1.0167	ITI	n/a	n/a	n/a	n/a	n/a	n/a	n/a	n/a
184.2954	0.5167	FIXCROSS	n/a	n/a	n/a	n/a	n/a	n/a	n/a	n/a
184.812	0.6167	INK	72	Neutral	xxxxxxxxx	xxxxxxxxx	żółty	yellow	incorrect	n/a
185.3952	n/a	RESPONSE	n/a	n/a	n/a	n/a	n/a	n/a	n/a	green
185.4287	1.0833	ITI	n/a	n/a	n/a	n/a	n/a	n/a	n/a	n/a
201.9352	n/a	RESPONSE	n/a	n/a	n/a	n/a	n/a	n/a	n/a	n/a
201.9955	1.0167	ITI	n/a	n/a	n/a	n/a	n/a	n/a	n/a	n/a
203.0121	0.5167	FIXCROSS	n/a	n/a	n/a	n/a	n/a	n/a	n/a	n/a
203.5288	0.7167	T_COLOR_NAME	1	Neutral	zielony	green	Neutral	Neutral	hit	n/a
204.2067	n/a	RESPONSE	n/a	n/a	n/a	n/a	n/a	n/a	n/a	green
204.2455	0.5167	FEEDBACK	n/a	n/a	n/a	n/a	n/a	n/a	n/a	n/a
204.7622	1.0167	ITI	n/a	n/a	n/a	n/a	n/a	n/a	n/a	n/a
205.7788	0.5167	FIXCROSS	n/a	n/a	n/a	n/a	n/a	n/a	n/a	n/a
206.2955	0.9	T_COLOR_NAME	2	Incongruent	niebieski	blue	żółty	yellow	hit	n/a
207.1659	n/a	RESPONSE	n/a	n/a	n/a	n/a	n/a	n/a	n/a	blue
207.1955	0.5167	FEEDBACK	n/a	n/a	n/a	n/a	n/a	n/a	n/a	n/a
207.7122	1.0167	ITI	n/a	n/a	n/a	n/a	n/a	n/a	n/a	n/a
208.7288	0.5167	FIXCROSS	n/a	n/a	n/a	n/a	n/a	n/a	n/a	n/a
209.2455	0.8	T_COLOR_NAME	3	Incongruent	zielony	green	niebieski	blue	hit	n/a
210.0132	n/a	RESPONSE	n/a	n/a	n/a	n/a	n/a	n/a	n/a	green
210.0455	0.5167	FEEDBACK	n/a	n/a	n/a	n/a	n/a	n/a	n/a	n/a
210.5622	1.0167	ITI	n/a	n/a	n/a	n/a	n/a	n/a	n/a	n/a
211.5789	0.5167	FIXCROSS	n/a	n/a	n/a	n/a	n/a	n/a	n/a	n/a
212.0955	0.65	T_COLOR_NAME	4	Neutral	zielony	green	Neutral	Neutral	hit	n/a
212.7166	n/a	RESPONSE	n/a	n/a	n/a	n/a	n/a	n/a	n/a	green
212.7455	0.5167	FEEDBACK	n/a	n/a	n/a	n/a	n/a	n/a	n/a	n/a
213.2622	1.0167	ITI	n/a	n/a	n/a	n/a	n/a	n/a	n/a	n/a
214.2789	0.5167	FIXCROSS	n/a	n/a	n/a	n/a	n/a	n/a	n/a	n/a
214.7956	0.5667	T_COLOR_NAME	5	Neutral	żółty	yellow	Neutral	Neutral	hit	n/a
215.3399	n/a	RESPONSE	n/a	n/a	n/a	n/a	n/a	n/a	n/a	yellow
215.3622	0.5167	FEEDBACK	n/a	n/a	n/a	n/a	n/a	n/a	n/a	n/a
215.8789	1.0167	ITI	n/a	n/a	n/a	n/a	n/a	n/a	n/a	n/a
216.8956	0.5167	FIXCROSS	n/a	n/a	n/a	n/a	n/a	n/a	n/a	n/a
217.4122	0.45	T_COLOR_NAME	6	Incongruent	czerwony	red	żółty	yellow	hit	n/a
217.8354	n/a	RESPONSE	n/a	n/a	n/a	n/a	n/a	n/a	n/a	red
217.8623	0.5167	FEEDBACK	n/a	n/a	n/a	n/a	n/a	n/a	n/a	n/a
218.3789	1.0167	ITI	n/a	n/a	n/a	n/a	n/a	n/a	n/a	n/a
219.3956	0.5167	FIXCROSS	n/a	n/a	n/a	n/a	n/a	n/a	n/a	n/a
219.9123	0.6333	T_COLOR_NAME	7	Incongruent	żółty	yellow	czerwony	red	hit	n/a
220.5227	n/a	RESPONSE	n/a	n/a	n/a	n/a	n/a	n/a	n/a	yellow
220.5456	0.5167	FEEDBACK	n/a	n/a	n/a	n/a	n/a	n/a	n/a	n/a
221.0623	1.0167	ITI	n/a	n/a	n/a	n/a	n/a	n/a	n/a	n/a
222.0789	0.5167	FIXCROSS	n/a	n/a	n/a	n/a	n/a	n/a	n/a	n/a
222.5956	0.55	T_COLOR_NAME	8	Incongruent	zielony	green	czerwony	red	hit	n/a
223.1141	n/a	RESPONSE	n/a	n/a	n/a	n/a	n/a	n/a	n/a	green
223.1456	0.5167	FEEDBACK	n/a	n/a	n/a	n/a	n/a	n/a	n/a	n/a
223.6623	1.0167	ITI	n/a	n/a	n/a	n/a	n/a	n/a	n/a	n/a
224.679	0.5167	FIXCROSS	n/a	n/a	n/a	n/a	n/a	n/a	n/a	n/a
225.1956	0.6333	T_COLOR_NAME	9	Neutral	czerwony	red	Neutral	Neutral	hit	n/a
225.8014	n/a	RESPONSE	n/a	n/a	n/a	n/a	n/a	n/a	n/a	red
225.829	0.5167	FEEDBACK	n/a	n/a	n/a	n/a	n/a	n/a	n/a	n/a
226.3456	1.0167	ITI	n/a	n/a	n/a	n/a	n/a	n/a	n/a	n/a
227.3623	0.5167	FIXCROSS	n/a	n/a	n/a	n/a	n/a	n/a	n/a	n/a
227.879	0.6167	T_COLOR_NAME	10	Neutral	żółty	yellow	Neutral	Neutral	hit	n/a
228.4728	n/a	RESPONSE	n/a	n/a	n/a	n/a	n/a	n/a	n/a	yellow
228.4956	0.5167	FEEDBACK	n/a	n/a	n/a	n/a	n/a	n/a	n/a	n/a
229.0123	1.0167	ITI	n/a	n/a	n/a	n/a	n/a	n/a	n/a	n/a
230.029	0.5167	FIXCROSS	n/a	n/a	n/a	n/a	n/a	n/a	n/a	n/a
230.5457	0.7167	T_COLOR_NAME	11	Incongruent	niebieski	blue	zielony	green	hit	n/a
231.2401	n/a	RESPONSE	n/a	n/a	n/a	n/a	n/a	n/a	n/a	blue
231.2623	0.5167	FEEDBACK	n/a	n/a	n/a	n/a	n/a	n/a	n/a	n/a
231.779	1.0167	ITI	n/a	n/a	n/a	n/a	n/a	n/a	n/a	n/a
232.7957	0.5167	FIXCROSS	n/a	n/a	n/a	n/a	n/a	n/a	n/a	n/a
233.3124	0.6167	T_COLOR_NAME	12	Neutral	niebieski	blue	Neutral	Neutral	hit	n/a
233.8955	n/a	RESPONSE	n/a	n/a	n/a	n/a	n/a	n/a	n/a	blue
233.929	0.5167	FEEDBACK	n/a	n/a	n/a	n/a	n/a	n/a	n/a	n/a
234.4457	1.0334	ITI	n/a	n/a	n/a	n/a	n/a	n/a	n/a	n/a
236.6628	n/a	RESPONSE	n/a	n/a	n/a	n/a	n/a	n/a	n/a	n/a
236.729	1.0167	ITI	n/a	n/a	n/a	n/a	n/a	n/a	n/a	n/a
237.7457	0.5167	FIXCROSS	n/a	n/a	n/a	n/a	n/a	n/a	n/a	n/a
238.2624	0.55	COLOR_NAME	1	Neutral	niebieski	blue	Neutral	Neutral	hit	n/a
238.7903	n/a	RESPONSE	n/a	n/a	n/a	n/a	n/a	n/a	n/a	blue
238.8124	1.0167	ITI	n/a	n/a	n/a	n/a	n/a	n/a	n/a	n/a
239.8291	0.5167	FIXCROSS	n/a	n/a	n/a	n/a	n/a	n/a	n/a	n/a
240.3457	0.6	COLOR_NAME	2	Neutral	czerwony	red	Neutral	Neutral	hit	n/a
240.9177	n/a	RESPONSE	n/a	n/a	n/a	n/a	n/a	n/a	n/a	red
240.9457	1.0167	ITI	n/a	n/a	n/a	n/a	n/a	n/a	n/a	n/a
241.9624	0.5167	FIXCROSS	n/a	n/a	n/a	n/a	n/a	n/a	n/a	n/a
242.4791	0.6333	COLOR_NAME	3	Incongruent	czerwony	red	żółty	yellow	hit	n/a
243.0932	n/a	RESPONSE	n/a	n/a	n/a	n/a	n/a	n/a	n/a	red
243.1124	1.0167	ITI	n/a	n/a	n/a	n/a	n/a	n/a	n/a	n/a
244.1291	0.5167	FIXCROSS	n/a	n/a	n/a	n/a	n/a	n/a	n/a	n/a
244.6458	0.6	COLOR_NAME	4	Neutral	niebieski	blue	Neutral	Neutral	hit	n/a
245.2207	n/a	RESPONSE	n/a	n/a	n/a	n/a	n/a	n/a	n/a	blue
245.2458	1.0167	ITI	n/a	n/a	n/a	n/a	n/a	n/a	n/a	n/a
246.2624	0.5167	FIXCROSS	n/a	n/a	n/a	n/a	n/a	n/a	n/a	n/a
246.7791	0.6	COLOR_NAME	5	Neutral	żółty	yellow	Neutral	Neutral	hit	n/a
247.3482	n/a	RESPONSE	n/a	n/a	n/a	n/a	n/a	n/a	n/a	yellow
247.3791	1.0167	ITI	n/a	n/a	n/a	n/a	n/a	n/a	n/a	n/a
248.3958	0.5167	FIXCROSS	n/a	n/a	n/a	n/a	n/a	n/a	n/a	n/a
248.9125	0.5667	COLOR_NAME	6	Incongruent	niebieski	blue	żółty	yellow	hit	n/a
249.4597	n/a	RESPONSE	n/a	n/a	n/a	n/a	n/a	n/a	n/a	blue
249.4791	1.0167	ITI	n/a	n/a	n/a	n/a	n/a	n/a	n/a	n/a
250.4958	0.5167	FIXCROSS	n/a	n/a	n/a	n/a	n/a	n/a	n/a	n/a
251.0125	0.6833	COLOR_NAME	7	Incongruent	żółty	yellow	niebieski	blue	hit	n/a
251.6671	n/a	RESPONSE	n/a	n/a	n/a	n/a	n/a	n/a	n/a	yellow
251.6958	1.0167	ITI	n/a	n/a	n/a	n/a	n/a	n/a	n/a	n/a
252.7125	0.5167	FIXCROSS	n/a	n/a	n/a	n/a	n/a	n/a	n/a	n/a
253.2291	0.7333	COLOR_NAME	8	Incongruent	czerwony	red	żółty	yellow	hit	n/a
253.9386	n/a	RESPONSE	n/a	n/a	n/a	n/a	n/a	n/a	n/a	red
253.9625	1.0167	ITI	n/a	n/a	n/a	n/a	n/a	n/a	n/a	n/a
254.9792	0.5167	FIXCROSS	n/a	n/a	n/a	n/a	n/a	n/a	n/a	n/a
255.4958	0.6833	COLOR_NAME	9	Incongruent	zielony	green	niebieski	blue	hit	n/a
256.1461	n/a	RESPONSE	n/a	n/a	n/a	n/a	n/a	n/a	n/a	green
256.1792	1.0167	ITI	n/a	n/a	n/a	n/a	n/a	n/a	n/a	n/a
257.1958	0.5167	FIXCROSS	n/a	n/a	n/a	n/a	n/a	n/a	n/a	n/a
257.7125	0.6333	COLOR_NAME	10	Incongruent	niebieski	blue	zielony	green	hit	n/a
258.3216	n/a	RESPONSE	n/a	n/a	n/a	n/a	n/a	n/a	n/a	blue
258.3458	1.0167	ITI	n/a	n/a	n/a	n/a	n/a	n/a	n/a	n/a
259.3625	0.5167	FIXCROSS	n/a	n/a	n/a	n/a	n/a	n/a	n/a	n/a
259.8792	0.6167	COLOR_NAME	11	Neutral	czerwony	red	Neutral	Neutral	hit	n/a
260.465	n/a	RESPONSE	n/a	n/a	n/a	n/a	n/a	n/a	n/a	red
260.4959	1.0167	ITI	n/a	n/a	n/a	n/a	n/a	n/a	n/a	n/a
261.5125	0.5167	FIXCROSS	n/a	n/a	n/a	n/a	n/a	n/a	n/a	n/a
262.0292	0.5667	COLOR_NAME	12	Neutral	żółty	yellow	Neutral	Neutral	hit	n/a
262.5765	n/a	RESPONSE	n/a	n/a	n/a	n/a	n/a	n/a	n/a	yellow
262.5959	1.0167	ITI	n/a	n/a	n/a	n/a	n/a	n/a	n/a	n/a
263.6125	0.5167	FIXCROSS	n/a	n/a	n/a	n/a	n/a	n/a	n/a	n/a
264.1292	0.8	COLOR_NAME	13	Incongruent	żółty	yellow	niebieski	blue	hit	n/a
264.912	n/a	RESPONSE	n/a	n/a	n/a	n/a	n/a	n/a	n/a	yellow
264.9292	1.0167	ITI	n/a	n/a	n/a	n/a	n/a	n/a	n/a	n/a
265.9459	0.5167	FIXCROSS	n/a	n/a	n/a	n/a	n/a	n/a	n/a	n/a
266.4626	0.6833	COLOR_NAME	14	Neutral	niebieski	blue	Neutral	Neutral	hit	n/a
267.1194	n/a	RESPONSE	n/a	n/a	n/a	n/a	n/a	n/a	n/a	blue
267.1459	1.0167	ITI	n/a	n/a	n/a	n/a	n/a	n/a	n/a	n/a
268.1626	0.5167	FIXCROSS	n/a	n/a	n/a	n/a	n/a	n/a	n/a	n/a
268.6792	0.6667	COLOR_NAME	15	Incongruent	czerwony	red	niebieski	blue	hit	n/a
269.3269	n/a	RESPONSE	n/a	n/a	n/a	n/a	n/a	n/a	n/a	red
269.3459	1.0167	ITI	n/a	n/a	n/a	n/a	n/a	n/a	n/a	n/a
270.3626	0.5167	FIXCROSS	n/a	n/a	n/a	n/a	n/a	n/a	n/a	n/a
270.8793	0.5833	COLOR_NAME	16	Neutral	czerwony	red	Neutral	Neutral	hit	n/a
271.4384	n/a	RESPONSE	n/a	n/a	n/a	n/a	n/a	n/a	n/a	red
271.4626	1.0167	ITI	n/a	n/a	n/a	n/a	n/a	n/a	n/a	n/a
272.4793	0.5167	FIXCROSS	n/a	n/a	n/a	n/a	n/a	n/a	n/a	n/a
272.9959	0.5333	COLOR_NAME	17	Neutral	czerwony	red	Neutral	Neutral	hit	n/a
273.5019	n/a	RESPONSE	n/a	n/a	n/a	n/a	n/a	n/a	n/a	red
273.5293	1.0167	ITI	n/a	n/a	n/a	n/a	n/a	n/a	n/a	n/a
274.546	0.5167	FIXCROSS	n/a	n/a	n/a	n/a	n/a	n/a	n/a	n/a
275.0626	0.5167	COLOR_NAME	18	Incongruent	czerwony	red	niebieski	blue	hit	n/a
275.5494	n/a	RESPONSE	n/a	n/a	n/a	n/a	n/a	n/a	n/a	red
275.5793	1.0167	ITI	n/a	n/a	n/a	n/a	n/a	n/a	n/a	n/a
276.596	0.5167	FIXCROSS	n/a	n/a	n/a	n/a	n/a	n/a	n/a	n/a
277.1126	0.5167	COLOR_NAME	19	Neutral	czerwony	red	Neutral	Neutral	hit	n/a
277.5969	n/a	RESPONSE	n/a	n/a	n/a	n/a	n/a	n/a	n/a	red
277.6293	1.0167	ITI	n/a	n/a	n/a	n/a	n/a	n/a	n/a	n/a
278.646	0.5167	FIXCROSS	n/a	n/a	n/a	n/a	n/a	n/a	n/a	n/a
279.1627	0.7667	COLOR_NAME	20	Neutral	zielony	green	Neutral	Neutral	hit	n/a
279.9003	n/a	RESPONSE	n/a	n/a	n/a	n/a	n/a	n/a	n/a	green
279.9293	1.0167	ITI	n/a	n/a	n/a	n/a	n/a	n/a	n/a	n/a
280.946	0.5167	FIXCROSS	n/a	n/a	n/a	n/a	n/a	n/a	n/a	n/a
281.4627	0.6167	COLOR_NAME	21	Neutral	żółty	yellow	Neutral	Neutral	hit	n/a
282.0598	n/a	RESPONSE	n/a	n/a	n/a	n/a	n/a	n/a	n/a	yellow
282.0793	1.0167	ITI	n/a	n/a	n/a	n/a	n/a	n/a	n/a	n/a
283.096	0.5167	FIXCROSS	n/a	n/a	n/a	n/a	n/a	n/a	n/a	n/a
283.6127	0.5667	COLOR_NAME	22	Neutral	żółty	yellow	Neutral	Neutral	hit	n/a
284.1553	n/a	RESPONSE	n/a	n/a	n/a	n/a	n/a	n/a	n/a	yellow
284.1794	1.0167	ITI	n/a	n/a	n/a	n/a	n/a	n/a	n/a	n/a
285.196	0.5167	FIXCROSS	n/a	n/a	n/a	n/a	n/a	n/a	n/a	n/a
285.7127	0.75	COLOR_NAME	23	Incongruent	niebieski	blue	czerwony	red	hit	n/a
286.4428	n/a	RESPONSE	n/a	n/a	n/a	n/a	n/a	n/a	n/a	blue
286.4627	1.0167	ITI	n/a	n/a	n/a	n/a	n/a	n/a	n/a	n/a
287.4794	0.5167	FIXCROSS	n/a	n/a	n/a	n/a	n/a	n/a	n/a	n/a
287.996	0.75	COLOR_NAME	24	Incongruent	zielony	green	żółty	yellow	hit	n/a
288.7142	n/a	RESPONSE	n/a	n/a	n/a	n/a	n/a	n/a	n/a	green
288.7461	1.0167	ITI	n/a	n/a	n/a	n/a	n/a	n/a	n/a	n/a
289.7627	0.5167	FIXCROSS	n/a	n/a	n/a	n/a	n/a	n/a	n/a	n/a
290.2794	0.6667	COLOR_NAME	25	Incongruent	żółty	yellow	zielony	green	hit	n/a
290.9217	n/a	RESPONSE	n/a	n/a	n/a	n/a	n/a	n/a	n/a	yellow
290.9461	1.0167	ITI	n/a	n/a	n/a	n/a	n/a	n/a	n/a	n/a
291.9627	0.5167	FIXCROSS	n/a	n/a	n/a	n/a	n/a	n/a	n/a	n/a
292.4794	0.6333	COLOR_NAME	26	Neutral	zielony	green	Neutral	Neutral	hit	n/a
293.0812	n/a	RESPONSE	n/a	n/a	n/a	n/a	n/a	n/a	n/a	green
293.1127	1.0167	ITI	n/a	n/a	n/a	n/a	n/a	n/a	n/a	n/a
294.1294	0.5167	FIXCROSS	n/a	n/a	n/a	n/a	n/a	n/a	n/a	n/a
294.6461	0.5167	COLOR_NAME	27	Neutral	niebieski	blue	Neutral	Neutral	hit	n/a
295.1447	n/a	RESPONSE	n/a	n/a	n/a	n/a	n/a	n/a	n/a	blue
295.1628	1.0167	ITI	n/a	n/a	n/a	n/a	n/a	n/a	n/a	n/a
296.1794	0.5167	FIXCROSS	n/a	n/a	n/a	n/a	n/a	n/a	n/a	n/a
296.6961	0.5833	COLOR_NAME	28	Neutral	niebieski	blue	Neutral	Neutral	hit	n/a
297.2562	n/a	RESPONSE	n/a	n/a	n/a	n/a	n/a	n/a	n/a	blue
297.2794	1.0167	ITI	n/a	n/a	n/a	n/a	n/a	n/a	n/a	n/a
298.2961	0.5167	FIXCROSS	n/a	n/a	n/a	n/a	n/a	n/a	n/a	n/a
298.8128	0.6333	COLOR_NAME	29	Neutral	niebieski	blue	Neutral	Neutral	hit	n/a
299.4156	n/a	RESPONSE	n/a	n/a	n/a	n/a	n/a	n/a	n/a	blue
299.4461	1.0167	ITI	n/a	n/a	n/a	n/a	n/a	n/a	n/a	n/a
300.4628	0.5167	FIXCROSS	n/a	n/a	n/a	n/a	n/a	n/a	n/a	n/a
300.9795	0.7	COLOR_NAME	30	Incongruent	żółty	yellow	niebieski	blue	hit	n/a
301.6551	n/a	RESPONSE	n/a	n/a	n/a	n/a	n/a	n/a	n/a	yellow
301.6795	1.0167	ITI	n/a	n/a	n/a	n/a	n/a	n/a	n/a	n/a
302.6961	0.5167	FIXCROSS	n/a	n/a	n/a	n/a	n/a	n/a	n/a	n/a
303.2128	0.5667	COLOR_NAME	31	Neutral	czerwony	red	Neutral	Neutral	hit	n/a
303.7506	n/a	RESPONSE	n/a	n/a	n/a	n/a	n/a	n/a	n/a	red
303.7795	1.0167	ITI	n/a	n/a	n/a	n/a	n/a	n/a	n/a	n/a
304.7962	0.5167	FIXCROSS	n/a	n/a	n/a	n/a	n/a	n/a	n/a	n/a
305.3128	0.55	COLOR_NAME	32	Incongruent	zielony	green	niebieski	blue	hit	n/a
305.8301	n/a	RESPONSE	n/a	n/a	n/a	n/a	n/a	n/a	n/a	green
305.8628	1.0167	ITI	n/a	n/a	n/a	n/a	n/a	n/a	n/a	n/a
306.8795	0.5167	FIXCROSS	n/a	n/a	n/a	n/a	n/a	n/a	n/a	n/a
307.3962	0.5667	COLOR_NAME	33	Incongruent	żółty	yellow	zielony	green	hit	n/a
307.9416	n/a	RESPONSE	n/a	n/a	n/a	n/a	n/a	n/a	n/a	yellow
307.9629	1.0167	ITI	n/a	n/a	n/a	n/a	n/a	n/a	n/a	n/a
308.9795	0.5167	FIXCROSS	n/a	n/a	n/a	n/a	n/a	n/a	n/a	n/a
309.4962	0.85	COLOR_NAME	34	Neutral	zielony	green	Neutral	Neutral	hit	n/a
310.325	n/a	RESPONSE	n/a	n/a	n/a	n/a	n/a	n/a	n/a	green
310.3462	1.0167	ITI	n/a	n/a	n/a	n/a	n/a	n/a	n/a	n/a
311.3629	0.5167	FIXCROSS	n/a	n/a	n/a	n/a	n/a	n/a	n/a	n/a
311.8795	0.6667	COLOR_NAME	35	Neutral	żółty	yellow	Neutral	Neutral	hit	n/a
312.5164	n/a	RESPONSE	n/a	n/a	n/a	n/a	n/a	n/a	n/a	yellow
312.5462	1.0167	ITI	n/a	n/a	n/a	n/a	n/a	n/a	n/a	n/a
313.5629	0.5167	FIXCROSS	n/a	n/a	n/a	n/a	n/a	n/a	n/a	n/a
314.0796	0.65	COLOR_NAME	36	Neutral	czerwony	red	Neutral	Neutral	hit	n/a
314.7079	n/a	RESPONSE	n/a	n/a	n/a	n/a	n/a	n/a	n/a	red
314.7296	1.0167	ITI	n/a	n/a	n/a	n/a	n/a	n/a	n/a	n/a
315.7462	0.5167	FIXCROSS	n/a	n/a	n/a	n/a	n/a	n/a	n/a	n/a
316.2629	0.6167	COLOR_NAME	37	Neutral	zielony	green	Neutral	Neutral	hit	n/a
316.8514	n/a	RESPONSE	n/a	n/a	n/a	n/a	n/a	n/a	n/a	green
316.8796	1.0167	ITI	n/a	n/a	n/a	n/a	n/a	n/a	n/a	n/a
317.8962	0.5167	FIXCROSS	n/a	n/a	n/a	n/a	n/a	n/a	n/a	n/a
318.4129	0.6167	COLOR_NAME	38	Neutral	zielony	green	Neutral	Neutral	incorrect	n/a
319.0109	n/a	RESPONSE	n/a	n/a	n/a	n/a	n/a	n/a	n/a	blue
319.0296	1.0167	ITI	n/a	n/a	n/a	n/a	n/a	n/a	n/a	n/a
320.0463	0.5167	FIXCROSS	n/a	n/a	n/a	n/a	n/a	n/a	n/a	n/a
320.5629	0.65	COLOR_NAME	39	Incongruent	żółty	yellow	czerwony	red	hit	n/a
321.1864	n/a	RESPONSE	n/a	n/a	n/a	n/a	n/a	n/a	n/a	yellow
321.2129	1.0167	ITI	n/a	n/a	n/a	n/a	n/a	n/a	n/a	n/a
322.2296	0.5167	FIXCROSS	n/a	n/a	n/a	n/a	n/a	n/a	n/a	n/a
322.7463	0.7667	COLOR_NAME	40	Incongruent	niebieski	blue	żółty	yellow	hit	n/a
323.4898	n/a	RESPONSE	n/a	n/a	n/a	n/a	n/a	n/a	n/a	blue
323.513	1.0167	ITI	n/a	n/a	n/a	n/a	n/a	n/a	n/a	n/a
324.5296	0.5167	FIXCROSS	n/a	n/a	n/a	n/a	n/a	n/a	n/a	n/a
325.0463	0.8	COLOR_NAME	41	Neutral	czerwony	red	Neutral	Neutral	hit	n/a
325.8252	n/a	RESPONSE	n/a	n/a	n/a	n/a	n/a	n/a	n/a	red
325.8463	1.0167	ITI	n/a	n/a	n/a	n/a	n/a	n/a	n/a	n/a
326.863	0.5167	FIXCROSS	n/a	n/a	n/a	n/a	n/a	n/a	n/a	n/a
327.3796	0.6	COLOR_NAME	42	Neutral	zielony	green	Neutral	Neutral	hit	n/a
327.9527	n/a	RESPONSE	n/a	n/a	n/a	n/a	n/a	n/a	n/a	green
327.9797	1.0167	ITI	n/a	n/a	n/a	n/a	n/a	n/a	n/a	n/a
328.9963	0.5167	FIXCROSS	n/a	n/a	n/a	n/a	n/a	n/a	n/a	n/a
329.513	0.7334	COLOR_NAME	43	Incongruent	czerwony	red	zielony	green	hit	n/a
330.2242	n/a	RESPONSE	n/a	n/a	n/a	n/a	n/a	n/a	n/a	red
330.2463	1.0167	ITI	n/a	n/a	n/a	n/a	n/a	n/a	n/a	n/a
331.263	0.5167	FIXCROSS	n/a	n/a	n/a	n/a	n/a	n/a	n/a	n/a
331.7797	0.5	COLOR_NAME	44	Incongruent	niebieski	blue	czerwony	red	hit	n/a
332.2557	n/a	RESPONSE	n/a	n/a	n/a	n/a	n/a	n/a	n/a	blue
332.2797	1.0167	ITI	n/a	n/a	n/a	n/a	n/a	n/a	n/a	n/a
333.2964	0.5167	FIXCROSS	n/a	n/a	n/a	n/a	n/a	n/a	n/a	n/a
333.813	0.6833	COLOR_NAME	45	Incongruent	niebieski	blue	zielony	green	hit	n/a
334.4791	n/a	RESPONSE	n/a	n/a	n/a	n/a	n/a	n/a	n/a	blue
334.4964	1.0167	ITI	n/a	n/a	n/a	n/a	n/a	n/a	n/a	n/a
335.513	0.5167	FIXCROSS	n/a	n/a	n/a	n/a	n/a	n/a	n/a	n/a
336.0297	0.7333	COLOR_NAME	46	Incongruent	zielony	green	niebieski	blue	hit	n/a
336.7346	n/a	RESPONSE	n/a	n/a	n/a	n/a	n/a	n/a	n/a	green
336.763	1.0167	ITI	n/a	n/a	n/a	n/a	n/a	n/a	n/a	n/a
337.7797	0.5167	FIXCROSS	n/a	n/a	n/a	n/a	n/a	n/a	n/a	n/a
338.2964	0.6334	COLOR_NAME	47	Incongruent	niebieski	blue	zielony	green	hit	n/a
338.9101	n/a	RESPONSE	n/a	n/a	n/a	n/a	n/a	n/a	n/a	blue
338.9297	1.0167	ITI	n/a	n/a	n/a	n/a	n/a	n/a	n/a	n/a
339.9464	0.5167	FIXCROSS	n/a	n/a	n/a	n/a	n/a	n/a	n/a	n/a
340.4631	0.8	COLOR_NAME	48	Incongruent	zielony	green	czerwony	red	hit	n/a
341.2295	n/a	RESPONSE	n/a	n/a	n/a	n/a	n/a	n/a	n/a	green
341.2631	1.0167	ITI	n/a	n/a	n/a	n/a	n/a	n/a	n/a	n/a
342.2797	0.5167	FIXCROSS	n/a	n/a	n/a	n/a	n/a	n/a	n/a	n/a
342.7964	0.6333	COLOR_NAME	49	Neutral	żółty	yellow	Neutral	Neutral	hit	n/a
343.405	n/a	RESPONSE	n/a	n/a	n/a	n/a	n/a	n/a	n/a	yellow
343.4298	1.0167	ITI	n/a	n/a	n/a	n/a	n/a	n/a	n/a	n/a
344.4464	0.5167	FIXCROSS	n/a	n/a	n/a	n/a	n/a	n/a	n/a	n/a
344.9631	0.5833	COLOR_NAME	50	Neutral	niebieski	blue	Neutral	Neutral	hit	n/a
345.5165	n/a	RESPONSE	n/a	n/a	n/a	n/a	n/a	n/a	n/a	blue
345.5464	1.0167	ITI	n/a	n/a	n/a	n/a	n/a	n/a	n/a	n/a
346.5631	0.5167	FIXCROSS	n/a	n/a	n/a	n/a	n/a	n/a	n/a	n/a
347.0798	0.6333	COLOR_NAME	51	Incongruent	czerwony	red	zielony	green	hit	n/a
347.6919	n/a	RESPONSE	n/a	n/a	n/a	n/a	n/a	n/a	n/a	red
347.7131	1.0167	ITI	n/a	n/a	n/a	n/a	n/a	n/a	n/a	n/a
348.7298	0.5167	FIXCROSS	n/a	n/a	n/a	n/a	n/a	n/a	n/a	n/a
349.2465	0.5667	COLOR_NAME	52	Incongruent	czerwony	red	zielony	green	hit	n/a
349.7874	n/a	RESPONSE	n/a	n/a	n/a	n/a	n/a	n/a	n/a	red
349.8131	1.0167	ITI	n/a	n/a	n/a	n/a	n/a	n/a	n/a	n/a
350.8298	0.5167	FIXCROSS	n/a	n/a	n/a	n/a	n/a	n/a	n/a	n/a
351.3465	0.8333	COLOR_NAME	53	Neutral	niebieski	blue	Neutral	Neutral	hit	n/a
352.1548	n/a	RESPONSE	n/a	n/a	n/a	n/a	n/a	n/a	n/a	blue
352.1798	1.0167	ITI	n/a	n/a	n/a	n/a	n/a	n/a	n/a	n/a
353.1965	0.5167	FIXCROSS	n/a	n/a	n/a	n/a	n/a	n/a	n/a	n/a
353.7132	0.6167	COLOR_NAME	54	Neutral	zielony	green	Neutral	Neutral	hit	n/a
354.2983	n/a	RESPONSE	n/a	n/a	n/a	n/a	n/a	n/a	n/a	green
354.3298	1.0167	ITI	n/a	n/a	n/a	n/a	n/a	n/a	n/a	n/a
355.3465	0.5167	FIXCROSS	n/a	n/a	n/a	n/a	n/a	n/a	n/a	n/a
355.8632	0.6333	COLOR_NAME	55	Incongruent	żółty	yellow	czerwony	red	hit	n/a
356.4738	n/a	RESPONSE	n/a	n/a	n/a	n/a	n/a	n/a	n/a	yellow
356.4965	1.0167	ITI	n/a	n/a	n/a	n/a	n/a	n/a	n/a	n/a
357.5132	0.5167	FIXCROSS	n/a	n/a	n/a	n/a	n/a	n/a	n/a	n/a
358.0298	0.7167	COLOR_NAME	56	Incongruent	niebieski	blue	żółty	yellow	hit	n/a
358.7293	n/a	RESPONSE	n/a	n/a	n/a	n/a	n/a	n/a	n/a	blue
358.7465	1.0167	ITI	n/a	n/a	n/a	n/a	n/a	n/a	n/a	n/a
359.7632	0.5167	FIXCROSS	n/a	n/a	n/a	n/a	n/a	n/a	n/a	n/a
360.2799	0.6333	COLOR_NAME	57	Incongruent	zielony	green	czerwony	red	hit	n/a
360.8887	n/a	RESPONSE	n/a	n/a	n/a	n/a	n/a	n/a	n/a	green
360.9132	1.0167	ITI	n/a	n/a	n/a	n/a	n/a	n/a	n/a	n/a
361.9299	0.5167	FIXCROSS	n/a	n/a	n/a	n/a	n/a	n/a	n/a	n/a
362.4466	0.5	COLOR_NAME	58	Incongruent	czerwony	red	niebieski	blue	hit	n/a
362.9202	n/a	RESPONSE	n/a	n/a	n/a	n/a	n/a	n/a	n/a	red
362.9465	1.0167	ITI	n/a	n/a	n/a	n/a	n/a	n/a	n/a	n/a
363.9632	0.5167	FIXCROSS	n/a	n/a	n/a	n/a	n/a	n/a	n/a	n/a
364.4799	0.6333	COLOR_NAME	59	Neutral	żółty	yellow	Neutral	Neutral	hit	n/a
365.0957	n/a	RESPONSE	n/a	n/a	n/a	n/a	n/a	n/a	n/a	yellow
365.1132	1.0167	ITI	n/a	n/a	n/a	n/a	n/a	n/a	n/a	n/a
366.1299	0.5167	FIXCROSS	n/a	n/a	n/a	n/a	n/a	n/a	n/a	n/a
366.6466	0.6667	COLOR_NAME	60	Incongruent	zielony	green	żółty	yellow	hit	n/a
367.2872	n/a	RESPONSE	n/a	n/a	n/a	n/a	n/a	n/a	n/a	green
367.3132	1.0167	ITI	n/a	n/a	n/a	n/a	n/a	n/a	n/a	n/a
368.3299	0.5167	FIXCROSS	n/a	n/a	n/a	n/a	n/a	n/a	n/a	n/a
368.8466	0.6167	COLOR_NAME	61	Incongruent	żółty	yellow	zielony	green	hit	n/a
369.4307	n/a	RESPONSE	n/a	n/a	n/a	n/a	n/a	n/a	n/a	yellow
369.4633	1.0167	ITI	n/a	n/a	n/a	n/a	n/a	n/a	n/a	n/a
370.4799	0.5167	FIXCROSS	n/a	n/a	n/a	n/a	n/a	n/a	n/a	n/a
370.9966	0.5333	COLOR_NAME	62	Neutral	żółty	yellow	Neutral	Neutral	hit	n/a
371.5102	n/a	RESPONSE	n/a	n/a	n/a	n/a	n/a	n/a	n/a	yellow
371.5299	1.0167	ITI	n/a	n/a	n/a	n/a	n/a	n/a	n/a	n/a
372.5466	0.5167	FIXCROSS	n/a	n/a	n/a	n/a	n/a	n/a	n/a	n/a
373.0633	0.6	COLOR_NAME	63	Incongruent	zielony	green	czerwony	red	hit	n/a
373.6377	n/a	RESPONSE	n/a	n/a	n/a	n/a	n/a	n/a	n/a	green
373.6633	1.0167	ITI	n/a	n/a	n/a	n/a	n/a	n/a	n/a	n/a
374.68	0.5167	FIXCROSS	n/a	n/a	n/a	n/a	n/a	n/a	n/a	n/a
375.1966	0.8833	COLOR_NAME	64	Neutral	zielony	green	Neutral	Neutral	hit	n/a
376.0531	n/a	RESPONSE	n/a	n/a	n/a	n/a	n/a	n/a	n/a	green
376.08	1.0167	ITI	n/a	n/a	n/a	n/a	n/a	n/a	n/a	n/a
377.0966	0.5167	FIXCROSS	n/a	n/a	n/a	n/a	n/a	n/a	n/a	n/a
377.6133	0.6167	COLOR_NAME	65	Incongruent	czerwony	red	żółty	yellow	hit	n/a
378.2125	n/a	RESPONSE	n/a	n/a	n/a	n/a	n/a	n/a	n/a	red
378.23	1.0167	ITI	n/a	n/a	n/a	n/a	n/a	n/a	n/a	n/a
379.2467	0.5167	FIXCROSS	n/a	n/a	n/a	n/a	n/a	n/a	n/a	n/a
379.7633	0.6667	COLOR_NAME	66	Incongruent	niebieski	blue	czerwony	red	hit	n/a
380.404	n/a	RESPONSE	n/a	n/a	n/a	n/a	n/a	n/a	n/a	blue
380.43	1.0167	ITI	n/a	n/a	n/a	n/a	n/a	n/a	n/a	n/a
381.4467	0.5167	FIXCROSS	n/a	n/a	n/a	n/a	n/a	n/a	n/a	n/a
381.9633	0.6333	COLOR_NAME	67	Neutral	niebieski	blue	Neutral	Neutral	hit	n/a
382.5635	n/a	RESPONSE	n/a	n/a	n/a	n/a	n/a	n/a	n/a	blue
382.5967	1.0167	ITI	n/a	n/a	n/a	n/a	n/a	n/a	n/a	n/a
383.6134	0.5167	FIXCROSS	n/a	n/a	n/a	n/a	n/a	n/a	n/a	n/a
384.13	0.6833	COLOR_NAME	68	Incongruent	żółty	yellow	czerwony	red	hit	n/a
384.787	n/a	RESPONSE	n/a	n/a	n/a	n/a	n/a	n/a	n/a	yellow
384.8134	1.0167	ITI	n/a	n/a	n/a	n/a	n/a	n/a	n/a	n/a
385.83	0.5167	FIXCROSS	n/a	n/a	n/a	n/a	n/a	n/a	n/a	n/a
386.3467	0.6	COLOR_NAME	69	Neutral	czerwony	red	Neutral	Neutral	hit	n/a
386.9145	n/a	RESPONSE	n/a	n/a	n/a	n/a	n/a	n/a	n/a	red
386.9467	1.0167	ITI	n/a	n/a	n/a	n/a	n/a	n/a	n/a	n/a
387.9634	0.5167	FIXCROSS	n/a	n/a	n/a	n/a	n/a	n/a	n/a	n/a
388.48	0.6167	COLOR_NAME	70	Neutral	zielony	green	Neutral	Neutral	hit	n/a
389.0739	n/a	RESPONSE	n/a	n/a	n/a	n/a	n/a	n/a	n/a	green
389.0967	1.0167	ITI	n/a	n/a	n/a	n/a	n/a	n/a	n/a	n/a
390.1134	0.5166	FIXCROSS	n/a	n/a	n/a	n/a	n/a	n/a	n/a	n/a
390.63	0.6501	COLOR_NAME	71	Incongruent	zielony	green	żółty	yellow	hit	n/a
391.2494	n/a	RESPONSE	n/a	n/a	n/a	n/a	n/a	n/a	n/a	green
391.2801	1.0167	ITI	n/a	n/a	n/a	n/a	n/a	n/a	n/a	n/a
392.2967	0.5167	FIXCROSS	n/a	n/a	n/a	n/a	n/a	n/a	n/a	n/a
392.8134	0.6833	COLOR_NAME	72	Neutral	żółty	yellow	Neutral	Neutral	hit	n/a
393.4729	n/a	RESPONSE	n/a	n/a	n/a	n/a	n/a	n/a	n/a	yellow
393.4967	1.0334	ITI	n/a	n/a	n/a	n/a	n/a	n/a	n/a	n/a
396.992	n/a	RESPONSE	n/a	n/a	n/a	n/a	n/a	n/a	n/a	n/a
