onset	duration	trial_type	trial_number	stroop_condition	stim_text(PL)	stim_text(eng)	stim_color(PL)	stim_color(eng)	response_type	response_color
0.0	n/a	RESPONSE	n/a	n/a	n/a	n/a	n/a	n/a	n/a	n/a
0.0649	1.0333	ITI	n/a	n/a	n/a	n/a	n/a	n/a	n/a	n/a
1.0983	0.5167	FIXCROSS	n/a	n/a	n/a	n/a	n/a	n/a	n/a	n/a
1.615	1.1167	T_INK	1	Incongruent	żółty	yellow	czerwony	red	incorrect	n/a
2.7034	n/a	RESPONSE	n/a	n/a	n/a	n/a	n/a	n/a	n/a	yellow
2.7316	0.5167	FEEDBACK	n/a	n/a	n/a	n/a	n/a	n/a	n/a	n/a
3.2483	1.0167	ITI	n/a	n/a	n/a	n/a	n/a	n/a	n/a	n/a
4.265	0.5167	FIXCROSS	n/a	n/a	n/a	n/a	n/a	n/a	n/a	n/a
4.7816	5.0167	T_INK	2	Neutral	xxxxxxxxx	xxxxxxxxx	żółty	yellow	incorrect	n/a
9.6779	n/a	RESPONSE	n/a	n/a	n/a	n/a	n/a	n/a	n/a	n/a
9.7983	0.5167	FEEDBACK	n/a	n/a	n/a	n/a	n/a	n/a	n/a	n/a
10.315	1.0167	ITI	n/a	n/a	n/a	n/a	n/a	n/a	n/a	n/a
11.3317	0.5167	FIXCROSS	n/a	n/a	n/a	n/a	n/a	n/a	n/a	n/a
11.8484	5.0167	T_INK	3	Incongruent	czerwony	red	żółty	yellow	miss	n/a
16.8651	0.5167	FEEDBACK	n/a	n/a	n/a	n/a	n/a	n/a	n/a	n/a
17.3817	1.0167	ITI	n/a	n/a	n/a	n/a	n/a	n/a	n/a	n/a
18.3984	0.5167	FIXCROSS	n/a	n/a	n/a	n/a	n/a	n/a	n/a	n/a
18.9151	1.5167	T_INK	4	Incongruent	zielony	green	żółty	yellow	hit	n/a
20.4117	n/a	RESPONSE	n/a	n/a	n/a	n/a	n/a	n/a	n/a	yellow
20.4318	0.5167	FEEDBACK	n/a	n/a	n/a	n/a	n/a	n/a	n/a	n/a
20.9484	1.0167	ITI	n/a	n/a	n/a	n/a	n/a	n/a	n/a	n/a
21.9651	0.5167	FIXCROSS	n/a	n/a	n/a	n/a	n/a	n/a	n/a	n/a
22.4818	1.15	T_INK	5	Neutral	xxxxxxxxx	xxxxxxxxx	czerwony	red	hit	n/a
23.611	n/a	RESPONSE	n/a	n/a	n/a	n/a	n/a	n/a	n/a	red
23.6318	0.5167	FEEDBACK	n/a	n/a	n/a	n/a	n/a	n/a	n/a	n/a
24.1484	1.0167	ITI	n/a	n/a	n/a	n/a	n/a	n/a	n/a	n/a
25.1651	0.5167	FIXCROSS	n/a	n/a	n/a	n/a	n/a	n/a	n/a	n/a
25.6818	1.15	T_INK	6	Neutral	xxxxxxx	xxxxxxx	niebieski	blue	hit	n/a
26.8103	n/a	RESPONSE	n/a	n/a	n/a	n/a	n/a	n/a	n/a	blue
26.8318	0.5167	FEEDBACK	n/a	n/a	n/a	n/a	n/a	n/a	n/a	n/a
27.3485	1.0167	ITI	n/a	n/a	n/a	n/a	n/a	n/a	n/a	n/a
28.3651	0.5167	FIXCROSS	n/a	n/a	n/a	n/a	n/a	n/a	n/a	n/a
28.8818	1.0667	T_INK	7	Incongruent	niebieski	blue	żółty	yellow	hit	n/a
29.9137	n/a	RESPONSE	n/a	n/a	n/a	n/a	n/a	n/a	n/a	yellow
29.9485	0.5167	FEEDBACK	n/a	n/a	n/a	n/a	n/a	n/a	n/a	n/a
30.4652	1.0167	ITI	n/a	n/a	n/a	n/a	n/a	n/a	n/a	n/a
31.4818	0.5167	FIXCROSS	n/a	n/a	n/a	n/a	n/a	n/a	n/a	n/a
31.9985	0.9167	T_INK	8	Incongruent	zielony	green	niebieski	blue	hit	n/a
32.889	n/a	RESPONSE	n/a	n/a	n/a	n/a	n/a	n/a	n/a	blue
32.9152	0.5167	FEEDBACK	n/a	n/a	n/a	n/a	n/a	n/a	n/a	n/a
33.4318	1.0167	ITI	n/a	n/a	n/a	n/a	n/a	n/a	n/a	n/a
34.4485	0.5167	FIXCROSS	n/a	n/a	n/a	n/a	n/a	n/a	n/a	n/a
34.9652	0.9333	T_INK	9	Neutral	xxxxx	xxxxx	zielony	green	hit	n/a
35.8644	n/a	RESPONSE	n/a	n/a	n/a	n/a	n/a	n/a	n/a	green
35.8985	0.5167	FEEDBACK	n/a	n/a	n/a	n/a	n/a	n/a	n/a	n/a
36.4152	1.0167	ITI	n/a	n/a	n/a	n/a	n/a	n/a	n/a	n/a
37.4319	0.5167	FIXCROSS	n/a	n/a	n/a	n/a	n/a	n/a	n/a	n/a
37.9485	1.15	T_INK	10	Incongruent	czerwony	red	niebieski	blue	hit	n/a
39.0797	n/a	RESPONSE	n/a	n/a	n/a	n/a	n/a	n/a	n/a	blue
39.0985	0.5167	FEEDBACK	n/a	n/a	n/a	n/a	n/a	n/a	n/a	n/a
39.6152	1.0167	ITI	n/a	n/a	n/a	n/a	n/a	n/a	n/a	n/a
40.6319	0.5167	FIXCROSS	n/a	n/a	n/a	n/a	n/a	n/a	n/a	n/a
41.1486	0.9	T_INK	11	Incongruent	niebieski	blue	czerwony	red	hit	n/a
42.0231	n/a	RESPONSE	n/a	n/a	n/a	n/a	n/a	n/a	n/a	red
42.0486	0.5167	FEEDBACK	n/a	n/a	n/a	n/a	n/a	n/a	n/a	n/a
42.5652	1.0167	ITI	n/a	n/a	n/a	n/a	n/a	n/a	n/a	n/a
43.5819	0.5167	FIXCROSS	n/a	n/a	n/a	n/a	n/a	n/a	n/a	n/a
44.0986	0.9	T_INK	12	Incongruent	niebieski	blue	zielony	green	hit	n/a
44.9665	n/a	RESPONSE	n/a	n/a	n/a	n/a	n/a	n/a	n/a	green
44.9986	0.5167	FEEDBACK	n/a	n/a	n/a	n/a	n/a	n/a	n/a	n/a
45.5153	1.0333	ITI	n/a	n/a	n/a	n/a	n/a	n/a	n/a	n/a
65.0262	n/a	RESPONSE	n/a	n/a	n/a	n/a	n/a	n/a	n/a	n/a
65.0821	1.0167	ITI	n/a	n/a	n/a	n/a	n/a	n/a	n/a	n/a
66.0987	0.5167	FIXCROSS	n/a	n/a	n/a	n/a	n/a	n/a	n/a	n/a
66.6154	2.1667	INK	1	Incongruent	zielony	green	czerwony	red	hit	n/a
68.7535	n/a	RESPONSE	n/a	n/a	n/a	n/a	n/a	n/a	n/a	red
68.7821	1.0167	ITI	n/a	n/a	n/a	n/a	n/a	n/a	n/a	n/a
69.7988	0.5167	FIXCROSS	n/a	n/a	n/a	n/a	n/a	n/a	n/a	n/a
70.3154	0.8167	INK	2	Neutral	xxxxxxxxx	xxxxxxxxx	czerwony	red	hit	n/a
71.105	n/a	RESPONSE	n/a	n/a	n/a	n/a	n/a	n/a	n/a	red
71.1321	1.0167	ITI	n/a	n/a	n/a	n/a	n/a	n/a	n/a	n/a
72.1488	0.5167	FIXCROSS	n/a	n/a	n/a	n/a	n/a	n/a	n/a	n/a
72.6654	1.0167	INK	3	Incongruent	niebieski	blue	żółty	yellow	hit	n/a
73.6485	n/a	RESPONSE	n/a	n/a	n/a	n/a	n/a	n/a	n/a	yellow
73.6821	1.0167	ITI	n/a	n/a	n/a	n/a	n/a	n/a	n/a	n/a
74.6988	0.5167	FIXCROSS	n/a	n/a	n/a	n/a	n/a	n/a	n/a	n/a
75.2155	0.8167	INK	4	Neutral	xxxxx	xxxxx	czerwony	red	hit	n/a
76.0	n/a	RESPONSE	n/a	n/a	n/a	n/a	n/a	n/a	n/a	red
76.0321	1.0167	ITI	n/a	n/a	n/a	n/a	n/a	n/a	n/a	n/a
77.0488	0.5167	FIXCROSS	n/a	n/a	n/a	n/a	n/a	n/a	n/a	n/a
77.5655	0.8833	INK	5	Incongruent	niebieski	blue	czerwony	red	hit	n/a
78.4154	n/a	RESPONSE	n/a	n/a	n/a	n/a	n/a	n/a	n/a	red
78.4488	1.0167	ITI	n/a	n/a	n/a	n/a	n/a	n/a	n/a	n/a
79.4655	0.5167	FIXCROSS	n/a	n/a	n/a	n/a	n/a	n/a	n/a	n/a
79.9822	0.7667	INK	6	Incongruent	niebieski	blue	zielony	green	hit	n/a
80.719	n/a	RESPONSE	n/a	n/a	n/a	n/a	n/a	n/a	n/a	green
80.7488	1.0167	ITI	n/a	n/a	n/a	n/a	n/a	n/a	n/a	n/a
81.7655	0.5167	FIXCROSS	n/a	n/a	n/a	n/a	n/a	n/a	n/a	n/a
82.2822	0.9167	INK	7	Neutral	xxxxx	xxxxx	niebieski	blue	hit	n/a
83.1664	n/a	RESPONSE	n/a	n/a	n/a	n/a	n/a	n/a	n/a	blue
83.1989	1.0167	ITI	n/a	n/a	n/a	n/a	n/a	n/a	n/a	n/a
84.2155	0.5167	FIXCROSS	n/a	n/a	n/a	n/a	n/a	n/a	n/a	n/a
84.7322	0.8833	INK	8	Incongruent	zielony	green	żółty	yellow	hit	n/a
85.598	n/a	RESPONSE	n/a	n/a	n/a	n/a	n/a	n/a	n/a	yellow
85.6155	1.0167	ITI	n/a	n/a	n/a	n/a	n/a	n/a	n/a	n/a
86.6322	0.5167	FIXCROSS	n/a	n/a	n/a	n/a	n/a	n/a	n/a	n/a
87.1489	0.9667	INK	9	Neutral	xxxxxxx	xxxxxxx	niebieski	blue	hit	n/a
88.0934	n/a	RESPONSE	n/a	n/a	n/a	n/a	n/a	n/a	n/a	blue
88.1156	1.0167	ITI	n/a	n/a	n/a	n/a	n/a	n/a	n/a	n/a
89.1322	0.5167	FIXCROSS	n/a	n/a	n/a	n/a	n/a	n/a	n/a	n/a
89.6489	0.7333	INK	10	Neutral	xxxxxxxx	xxxxxxxx	zielony	green	hit	n/a
90.3649	n/a	RESPONSE	n/a	n/a	n/a	n/a	n/a	n/a	n/a	green
90.3822	1.0167	ITI	n/a	n/a	n/a	n/a	n/a	n/a	n/a	n/a
91.3989	0.5167	FIXCROSS	n/a	n/a	n/a	n/a	n/a	n/a	n/a	n/a
91.9156	0.8333	INK	11	Neutral	xxxxxxx	xxxxxxx	żółty	yellow	hit	n/a
92.7165	n/a	RESPONSE	n/a	n/a	n/a	n/a	n/a	n/a	n/a	yellow
92.7489	1.0167	ITI	n/a	n/a	n/a	n/a	n/a	n/a	n/a	n/a
93.7656	0.5167	FIXCROSS	n/a	n/a	n/a	n/a	n/a	n/a	n/a	n/a
94.2823	0.8833	INK	12	Incongruent	czerwony	red	niebieski	blue	hit	n/a
95.1479	n/a	RESPONSE	n/a	n/a	n/a	n/a	n/a	n/a	n/a	blue
95.1656	1.0167	ITI	n/a	n/a	n/a	n/a	n/a	n/a	n/a	n/a
96.1823	0.5167	FIXCROSS	n/a	n/a	n/a	n/a	n/a	n/a	n/a	n/a
96.699	0.8333	INK	13	Incongruent	zielony	green	niebieski	blue	hit	n/a
97.4994	n/a	RESPONSE	n/a	n/a	n/a	n/a	n/a	n/a	n/a	blue
97.5323	1.0167	ITI	n/a	n/a	n/a	n/a	n/a	n/a	n/a	n/a
98.549	0.5167	FIXCROSS	n/a	n/a	n/a	n/a	n/a	n/a	n/a	n/a
99.0656	0.8167	INK	14	Neutral	xxxxx	xxxxx	niebieski	blue	hit	n/a
99.8509	n/a	RESPONSE	n/a	n/a	n/a	n/a	n/a	n/a	n/a	blue
99.8823	1.0167	ITI	n/a	n/a	n/a	n/a	n/a	n/a	n/a	n/a
100.899	0.5167	FIXCROSS	n/a	n/a	n/a	n/a	n/a	n/a	n/a	n/a
101.4157	0.8833	INK	15	Incongruent	niebieski	blue	żółty	yellow	hit	n/a
102.2664	n/a	RESPONSE	n/a	n/a	n/a	n/a	n/a	n/a	n/a	yellow
102.299	1.0167	ITI	n/a	n/a	n/a	n/a	n/a	n/a	n/a	n/a
103.3157	0.5167	FIXCROSS	n/a	n/a	n/a	n/a	n/a	n/a	n/a	n/a
103.8323	0.7333	INK	16	Neutral	xxxxxxxx	xxxxxxxx	żółty	yellow	hit	n/a
104.538	n/a	RESPONSE	n/a	n/a	n/a	n/a	n/a	n/a	n/a	yellow
104.5657	1.0167	ITI	n/a	n/a	n/a	n/a	n/a	n/a	n/a	n/a
105.5824	0.5167	FIXCROSS	n/a	n/a	n/a	n/a	n/a	n/a	n/a	n/a
106.099	0.7333	INK	17	Neutral	xxxxxxx	xxxxxxx	żółty	yellow	hit	n/a
106.8094	n/a	RESPONSE	n/a	n/a	n/a	n/a	n/a	n/a	n/a	yellow
106.8323	1.0167	ITI	n/a	n/a	n/a	n/a	n/a	n/a	n/a	n/a
107.849	0.5167	FIXCROSS	n/a	n/a	n/a	n/a	n/a	n/a	n/a	n/a
108.3657	0.85	INK	18	Neutral	xxxxx	xxxxx	czerwony	red	hit	n/a
109.193	n/a	RESPONSE	n/a	n/a	n/a	n/a	n/a	n/a	n/a	red
109.2157	1.0167	ITI	n/a	n/a	n/a	n/a	n/a	n/a	n/a	n/a
110.2324	0.5167	FIXCROSS	n/a	n/a	n/a	n/a	n/a	n/a	n/a	n/a
110.749	0.7667	INK	19	Neutral	xxxxxxxxx	xxxxxxxxx	czerwony	red	hit	n/a
111.4965	n/a	RESPONSE	n/a	n/a	n/a	n/a	n/a	n/a	n/a	red
111.5157	1.0167	ITI	n/a	n/a	n/a	n/a	n/a	n/a	n/a	n/a
112.5324	0.5167	FIXCROSS	n/a	n/a	n/a	n/a	n/a	n/a	n/a	n/a
113.0491	0.9833	INK	20	Incongruent	czerwony	red	niebieski	blue	hit	n/a
114.008	n/a	RESPONSE	n/a	n/a	n/a	n/a	n/a	n/a	n/a	blue
114.0324	1.0167	ITI	n/a	n/a	n/a	n/a	n/a	n/a	n/a	n/a
115.0491	0.5167	FIXCROSS	n/a	n/a	n/a	n/a	n/a	n/a	n/a	n/a
115.5657	0.8833	INK	21	Incongruent	czerwony	red	niebieski	blue	hit	n/a
116.4235	n/a	RESPONSE	n/a	n/a	n/a	n/a	n/a	n/a	n/a	blue
116.4491	1.0167	ITI	n/a	n/a	n/a	n/a	n/a	n/a	n/a	n/a
117.4658	0.5167	FIXCROSS	n/a	n/a	n/a	n/a	n/a	n/a	n/a	n/a
117.9824	0.8333	INK	22	Incongruent	niebieski	blue	czerwony	red	hit	n/a
118.791	n/a	RESPONSE	n/a	n/a	n/a	n/a	n/a	n/a	n/a	red
118.8158	1.0167	ITI	n/a	n/a	n/a	n/a	n/a	n/a	n/a	n/a
119.8324	0.5167	FIXCROSS	n/a	n/a	n/a	n/a	n/a	n/a	n/a	n/a
120.3491	0.9167	INK	23	Neutral	xxxxxxx	xxxxxxx	niebieski	blue	hit	n/a
121.2384	n/a	RESPONSE	n/a	n/a	n/a	n/a	n/a	n/a	n/a	blue
121.2658	1.0167	ITI	n/a	n/a	n/a	n/a	n/a	n/a	n/a	n/a
122.2825	0.5167	FIXCROSS	n/a	n/a	n/a	n/a	n/a	n/a	n/a	n/a
122.7991	0.7833	INK	24	Neutral	xxxxxxxxx	xxxxxxxxx	żółty	yellow	hit	n/a
123.5579	n/a	RESPONSE	n/a	n/a	n/a	n/a	n/a	n/a	n/a	yellow
123.5825	1.0167	ITI	n/a	n/a	n/a	n/a	n/a	n/a	n/a	n/a
124.5991	0.5167	FIXCROSS	n/a	n/a	n/a	n/a	n/a	n/a	n/a	n/a
125.1158	0.9667	INK	25	Incongruent	zielony	green	żółty	yellow	hit	n/a
126.0534	n/a	RESPONSE	n/a	n/a	n/a	n/a	n/a	n/a	n/a	yellow
126.0825	1.0167	ITI	n/a	n/a	n/a	n/a	n/a	n/a	n/a	n/a
127.0992	0.5167	FIXCROSS	n/a	n/a	n/a	n/a	n/a	n/a	n/a	n/a
127.6158	0.8	INK	26	Incongruent	żółty	yellow	zielony	green	hit	n/a
128.3889	n/a	RESPONSE	n/a	n/a	n/a	n/a	n/a	n/a	n/a	green
128.4158	1.0167	ITI	n/a	n/a	n/a	n/a	n/a	n/a	n/a	n/a
129.4325	0.5167	FIXCROSS	n/a	n/a	n/a	n/a	n/a	n/a	n/a	n/a
129.9492	0.8	INK	27	Incongruent	żółty	yellow	zielony	green	hit	n/a
130.7244	n/a	RESPONSE	n/a	n/a	n/a	n/a	n/a	n/a	n/a	green
130.7492	1.0167	ITI	n/a	n/a	n/a	n/a	n/a	n/a	n/a	n/a
131.7659	0.5167	FIXCROSS	n/a	n/a	n/a	n/a	n/a	n/a	n/a	n/a
132.2825	0.8167	INK	28	Incongruent	żółty	yellow	czerwony	red	hit	n/a
133.076	n/a	RESPONSE	n/a	n/a	n/a	n/a	n/a	n/a	n/a	red
133.0992	1.0167	ITI	n/a	n/a	n/a	n/a	n/a	n/a	n/a	n/a
134.1159	0.5167	FIXCROSS	n/a	n/a	n/a	n/a	n/a	n/a	n/a	n/a
134.6325	0.8167	INK	29	Incongruent	czerwony	red	żółty	yellow	hit	n/a
135.4274	n/a	RESPONSE	n/a	n/a	n/a	n/a	n/a	n/a	n/a	yellow
135.4492	1.0167	ITI	n/a	n/a	n/a	n/a	n/a	n/a	n/a	n/a
136.4659	0.5167	FIXCROSS	n/a	n/a	n/a	n/a	n/a	n/a	n/a	n/a
136.9826	0.7333	INK	30	Incongruent	zielony	green	czerwony	red	hit	n/a
137.683	n/a	RESPONSE	n/a	n/a	n/a	n/a	n/a	n/a	n/a	red
137.7159	1.0167	ITI	n/a	n/a	n/a	n/a	n/a	n/a	n/a	n/a
138.7326	0.5167	FIXCROSS	n/a	n/a	n/a	n/a	n/a	n/a	n/a	n/a
139.2492	0.7	INK	31	Neutral	xxxxxxxx	xxxxxxxx	zielony	green	hit	n/a
139.9225	n/a	RESPONSE	n/a	n/a	n/a	n/a	n/a	n/a	n/a	green
139.9492	1.0167	ITI	n/a	n/a	n/a	n/a	n/a	n/a	n/a	n/a
140.9659	0.5167	FIXCROSS	n/a	n/a	n/a	n/a	n/a	n/a	n/a	n/a
141.4826	0.8	INK	32	Neutral	xxxxxxxx	xxxxxxxx	niebieski	blue	hit	n/a
142.258	n/a	RESPONSE	n/a	n/a	n/a	n/a	n/a	n/a	n/a	blue
142.2826	1.0167	ITI	n/a	n/a	n/a	n/a	n/a	n/a	n/a	n/a
143.2993	0.5167	FIXCROSS	n/a	n/a	n/a	n/a	n/a	n/a	n/a	n/a
143.8159	0.8833	INK	33	Neutral	xxxxxxxx	xxxxxxxx	żółty	yellow	hit	n/a
144.6735	n/a	RESPONSE	n/a	n/a	n/a	n/a	n/a	n/a	n/a	yellow
144.6993	1.0167	ITI	n/a	n/a	n/a	n/a	n/a	n/a	n/a	n/a
145.716	0.5167	FIXCROSS	n/a	n/a	n/a	n/a	n/a	n/a	n/a	n/a
146.2326	0.6667	INK	34	Neutral	xxxxx	xxxxx	zielony	green	hit	n/a
146.881	n/a	RESPONSE	n/a	n/a	n/a	n/a	n/a	n/a	n/a	green
146.8993	1.0167	ITI	n/a	n/a	n/a	n/a	n/a	n/a	n/a	n/a
147.916	0.5167	FIXCROSS	n/a	n/a	n/a	n/a	n/a	n/a	n/a	n/a
148.4326	0.8667	INK	35	Incongruent	żółty	yellow	niebieski	blue	hit	n/a
149.2805	n/a	RESPONSE	n/a	n/a	n/a	n/a	n/a	n/a	n/a	blue
149.2993	1.0167	ITI	n/a	n/a	n/a	n/a	n/a	n/a	n/a	n/a
150.316	0.5167	FIXCROSS	n/a	n/a	n/a	n/a	n/a	n/a	n/a	n/a
150.8327	0.7833	INK	36	Incongruent	zielony	green	czerwony	red	hit	n/a
151.584	n/a	RESPONSE	n/a	n/a	n/a	n/a	n/a	n/a	n/a	red
151.616	1.0167	ITI	n/a	n/a	n/a	n/a	n/a	n/a	n/a	n/a
152.6327	0.5167	FIXCROSS	n/a	n/a	n/a	n/a	n/a	n/a	n/a	n/a
153.1493	0.75	INK	37	Neutral	xxxxxxxxx	xxxxxxxxx	żółty	yellow	hit	n/a
153.8716	n/a	RESPONSE	n/a	n/a	n/a	n/a	n/a	n/a	n/a	yellow
153.8993	1.0167	ITI	n/a	n/a	n/a	n/a	n/a	n/a	n/a	n/a
154.916	0.5167	FIXCROSS	n/a	n/a	n/a	n/a	n/a	n/a	n/a	n/a
155.4327	0.7833	INK	38	Incongruent	czerwony	red	zielony	green	hit	n/a
156.191	n/a	RESPONSE	n/a	n/a	n/a	n/a	n/a	n/a	n/a	green
156.216	1.0167	ITI	n/a	n/a	n/a	n/a	n/a	n/a	n/a	n/a
157.2327	0.5167	FIXCROSS	n/a	n/a	n/a	n/a	n/a	n/a	n/a	n/a
157.7494	0.6667	INK	39	Incongruent	niebieski	blue	zielony	green	hit	n/a
158.3826	n/a	RESPONSE	n/a	n/a	n/a	n/a	n/a	n/a	n/a	green
158.416	1.0167	ITI	n/a	n/a	n/a	n/a	n/a	n/a	n/a	n/a
159.4327	0.5167	FIXCROSS	n/a	n/a	n/a	n/a	n/a	n/a	n/a	n/a
159.9494	0.5167	INK	40	Neutral	xxxxx	xxxxx	zielony	green	hit	n/a
160.4462	n/a	RESPONSE	n/a	n/a	n/a	n/a	n/a	n/a	n/a	green
160.466	1.0167	ITI	n/a	n/a	n/a	n/a	n/a	n/a	n/a	n/a
161.4827	0.5167	FIXCROSS	n/a	n/a	n/a	n/a	n/a	n/a	n/a	n/a
161.9994	0.8	INK	41	Incongruent	żółty	yellow	niebieski	blue	hit	n/a
162.7817	n/a	RESPONSE	n/a	n/a	n/a	n/a	n/a	n/a	n/a	blue
162.7994	1.0167	ITI	n/a	n/a	n/a	n/a	n/a	n/a	n/a	n/a
163.8161	0.5167	FIXCROSS	n/a	n/a	n/a	n/a	n/a	n/a	n/a	n/a
164.3327	0.7167	INK	42	Neutral	xxxxxxx	xxxxxxx	niebieski	blue	hit	n/a
165.0212	n/a	RESPONSE	n/a	n/a	n/a	n/a	n/a	n/a	n/a	blue
165.0494	1.0167	ITI	n/a	n/a	n/a	n/a	n/a	n/a	n/a	n/a
166.0661	0.5167	FIXCROSS	n/a	n/a	n/a	n/a	n/a	n/a	n/a	n/a
166.5828	0.7	INK	43	Incongruent	żółty	yellow	czerwony	red	hit	n/a
167.2607	n/a	RESPONSE	n/a	n/a	n/a	n/a	n/a	n/a	n/a	red
167.2828	1.0167	ITI	n/a	n/a	n/a	n/a	n/a	n/a	n/a	n/a
168.2994	0.5167	FIXCROSS	n/a	n/a	n/a	n/a	n/a	n/a	n/a	n/a
168.8161	0.5667	INK	44	Neutral	xxxxxxxxx	xxxxxxxxx	czerwony	red	hit	n/a
169.3563	n/a	RESPONSE	n/a	n/a	n/a	n/a	n/a	n/a	n/a	red
169.3828	1.0167	ITI	n/a	n/a	n/a	n/a	n/a	n/a	n/a	n/a
170.3995	0.5167	FIXCROSS	n/a	n/a	n/a	n/a	n/a	n/a	n/a	n/a
170.9161	0.7333	INK	45	Incongruent	zielony	green	żółty	yellow	hit	n/a
171.6278	n/a	RESPONSE	n/a	n/a	n/a	n/a	n/a	n/a	n/a	yellow
171.6494	1.0167	ITI	n/a	n/a	n/a	n/a	n/a	n/a	n/a	n/a
172.6661	0.5167	FIXCROSS	n/a	n/a	n/a	n/a	n/a	n/a	n/a	n/a
173.1828	0.6167	INK	46	Incongruent	czerwony	red	zielony	green	hit	n/a
173.7714	n/a	RESPONSE	n/a	n/a	n/a	n/a	n/a	n/a	n/a	green
173.7995	1.0167	ITI	n/a	n/a	n/a	n/a	n/a	n/a	n/a	n/a
174.8161	0.5167	FIXCROSS	n/a	n/a	n/a	n/a	n/a	n/a	n/a	n/a
175.3328	0.5833	INK	47	Incongruent	czerwony	red	zielony	green	hit	n/a
175.8829	n/a	RESPONSE	n/a	n/a	n/a	n/a	n/a	n/a	n/a	green
175.9161	1.0167	ITI	n/a	n/a	n/a	n/a	n/a	n/a	n/a	n/a
176.9328	0.5167	FIXCROSS	n/a	n/a	n/a	n/a	n/a	n/a	n/a	n/a
177.4495	0.8	INK	48	Incongruent	żółty	yellow	niebieski	blue	hit	n/a
178.2184	n/a	RESPONSE	n/a	n/a	n/a	n/a	n/a	n/a	n/a	blue
178.2495	1.0167	ITI	n/a	n/a	n/a	n/a	n/a	n/a	n/a	n/a
179.2662	0.5167	FIXCROSS	n/a	n/a	n/a	n/a	n/a	n/a	n/a	n/a
179.7828	0.7167	INK	49	Neutral	xxxxx	xxxxx	czerwony	red	hit	n/a
180.474	n/a	RESPONSE	n/a	n/a	n/a	n/a	n/a	n/a	n/a	red
180.4995	1.0167	ITI	n/a	n/a	n/a	n/a	n/a	n/a	n/a	n/a
181.5162	0.5167	FIXCROSS	n/a	n/a	n/a	n/a	n/a	n/a	n/a	n/a
182.0329	0.8167	INK	50	Neutral	xxxxxxxx	xxxxxxxx	zielony	green	hit	n/a
182.8255	n/a	RESPONSE	n/a	n/a	n/a	n/a	n/a	n/a	n/a	green
182.8495	1.0167	ITI	n/a	n/a	n/a	n/a	n/a	n/a	n/a	n/a
183.8662	0.5167	FIXCROSS	n/a	n/a	n/a	n/a	n/a	n/a	n/a	n/a
184.3829	0.8333	INK	51	Incongruent	zielony	green	niebieski	blue	hit	n/a
185.193	n/a	RESPONSE	n/a	n/a	n/a	n/a	n/a	n/a	n/a	blue
185.2162	1.0167	ITI	n/a	n/a	n/a	n/a	n/a	n/a	n/a	n/a
186.2329	0.5167	FIXCROSS	n/a	n/a	n/a	n/a	n/a	n/a	n/a	n/a
186.7496	0.65	INK	52	Neutral	xxxxxxx	xxxxxxx	czerwony	red	hit	n/a
187.3685	n/a	RESPONSE	n/a	n/a	n/a	n/a	n/a	n/a	n/a	red
187.3996	1.0167	ITI	n/a	n/a	n/a	n/a	n/a	n/a	n/a	n/a
188.4162	0.5167	FIXCROSS	n/a	n/a	n/a	n/a	n/a	n/a	n/a	n/a
188.9329	0.8	INK	53	Incongruent	niebieski	blue	żółty	yellow	hit	n/a
189.704	n/a	RESPONSE	n/a	n/a	n/a	n/a	n/a	n/a	n/a	yellow
189.7329	1.0167	ITI	n/a	n/a	n/a	n/a	n/a	n/a	n/a	n/a
190.7496	0.5167	FIXCROSS	n/a	n/a	n/a	n/a	n/a	n/a	n/a	n/a
191.2662	0.6833	INK	54	Neutral	xxxxxxx	xxxxxxx	czerwony	red	hit	n/a
191.9276	n/a	RESPONSE	n/a	n/a	n/a	n/a	n/a	n/a	n/a	red
191.9496	1.0167	ITI	n/a	n/a	n/a	n/a	n/a	n/a	n/a	n/a
192.9663	0.5167	FIXCROSS	n/a	n/a	n/a	n/a	n/a	n/a	n/a	n/a
193.4829	1.0833	INK	55	Neutral	xxxxxxxxx	xxxxxxxxx	zielony	green	hit	n/a
194.535	n/a	RESPONSE	n/a	n/a	n/a	n/a	n/a	n/a	n/a	green
194.5663	1.0167	ITI	n/a	n/a	n/a	n/a	n/a	n/a	n/a	n/a
195.5829	0.5167	FIXCROSS	n/a	n/a	n/a	n/a	n/a	n/a	n/a	n/a
196.0996	0.8333	INK	56	Incongruent	żółty	yellow	czerwony	red	hit	n/a
196.9025	n/a	RESPONSE	n/a	n/a	n/a	n/a	n/a	n/a	n/a	red
196.933	1.0167	ITI	n/a	n/a	n/a	n/a	n/a	n/a	n/a	n/a
197.9496	0.5167	FIXCROSS	n/a	n/a	n/a	n/a	n/a	n/a	n/a	n/a
198.4663	0.8333	INK	57	Incongruent	żółty	yellow	zielony	green	hit	n/a
199.27	n/a	RESPONSE	n/a	n/a	n/a	n/a	n/a	n/a	n/a	green
199.2996	1.0167	ITI	n/a	n/a	n/a	n/a	n/a	n/a	n/a	n/a
200.3163	0.5167	FIXCROSS	n/a	n/a	n/a	n/a	n/a	n/a	n/a	n/a
200.833	0.8167	INK	58	Neutral	xxxxxxxx	xxxxxxxx	żółty	yellow	hit	n/a
201.6215	n/a	RESPONSE	n/a	n/a	n/a	n/a	n/a	n/a	n/a	yellow
201.6496	1.0167	ITI	n/a	n/a	n/a	n/a	n/a	n/a	n/a	n/a
202.6663	0.5167	FIXCROSS	n/a	n/a	n/a	n/a	n/a	n/a	n/a	n/a
203.183	0.7667	INK	59	Incongruent	czerwony	red	żółty	yellow	hit	n/a
203.925	n/a	RESPONSE	n/a	n/a	n/a	n/a	n/a	n/a	n/a	yellow
203.9497	1.0167	ITI	n/a	n/a	n/a	n/a	n/a	n/a	n/a	n/a
204.9663	0.5167	FIXCROSS	n/a	n/a	n/a	n/a	n/a	n/a	n/a	n/a
205.483	0.7667	INK	60	Neutral	xxxxxxxx	xxxxxxxx	niebieski	blue	hit	n/a
206.2285	n/a	RESPONSE	n/a	n/a	n/a	n/a	n/a	n/a	n/a	blue
206.2497	1.0167	ITI	n/a	n/a	n/a	n/a	n/a	n/a	n/a	n/a
207.2664	0.5167	FIXCROSS	n/a	n/a	n/a	n/a	n/a	n/a	n/a	n/a
207.783	0.7	INK	61	Neutral	xxxxxxx	xxxxxxx	czerwony	red	hit	n/a
208.4521	n/a	RESPONSE	n/a	n/a	n/a	n/a	n/a	n/a	n/a	red
208.483	1.0167	ITI	n/a	n/a	n/a	n/a	n/a	n/a	n/a	n/a
209.4997	0.5167	FIXCROSS	n/a	n/a	n/a	n/a	n/a	n/a	n/a	n/a
210.0164	0.6333	INK	62	Neutral	xxxxxxxxx	xxxxxxxxx	zielony	green	hit	n/a
210.6276	n/a	RESPONSE	n/a	n/a	n/a	n/a	n/a	n/a	n/a	green
210.6497	1.0167	ITI	n/a	n/a	n/a	n/a	n/a	n/a	n/a	n/a
211.6664	0.5167	FIXCROSS	n/a	n/a	n/a	n/a	n/a	n/a	n/a	n/a
212.1831	0.8167	INK	63	Incongruent	zielony	green	niebieski	blue	hit	n/a
212.9791	n/a	RESPONSE	n/a	n/a	n/a	n/a	n/a	n/a	n/a	blue
212.9997	1.0167	ITI	n/a	n/a	n/a	n/a	n/a	n/a	n/a	n/a
214.0164	0.5167	FIXCROSS	n/a	n/a	n/a	n/a	n/a	n/a	n/a	n/a
214.5331	0.9167	INK	64	Neutral	xxxxxxx	xxxxxxx	żółty	yellow	hit	n/a
215.4266	n/a	RESPONSE	n/a	n/a	n/a	n/a	n/a	n/a	n/a	yellow
215.4497	1.0167	ITI	n/a	n/a	n/a	n/a	n/a	n/a	n/a	n/a
216.4664	0.5167	FIXCROSS	n/a	n/a	n/a	n/a	n/a	n/a	n/a	n/a
216.9831	0.7167	INK	65	Incongruent	czerwony	red	żółty	yellow	hit	n/a
217.6662	n/a	RESPONSE	n/a	n/a	n/a	n/a	n/a	n/a	n/a	yellow
217.6998	1.0167	ITI	n/a	n/a	n/a	n/a	n/a	n/a	n/a	n/a
218.7164	0.5167	FIXCROSS	n/a	n/a	n/a	n/a	n/a	n/a	n/a	n/a
219.2331	0.8333	INK	66	Neutral	xxxxx	xxxxx	niebieski	blue	hit	n/a
220.0337	n/a	RESPONSE	n/a	n/a	n/a	n/a	n/a	n/a	n/a	blue
220.0664	1.0167	ITI	n/a	n/a	n/a	n/a	n/a	n/a	n/a	n/a
221.0831	0.5167	FIXCROSS	n/a	n/a	n/a	n/a	n/a	n/a	n/a	n/a
221.5998	0.75	INK	67	Incongruent	niebieski	blue	zielony	green	hit	n/a
222.3212	n/a	RESPONSE	n/a	n/a	n/a	n/a	n/a	n/a	n/a	green
222.3498	1.0167	ITI	n/a	n/a	n/a	n/a	n/a	n/a	n/a	n/a
223.3665	0.5167	FIXCROSS	n/a	n/a	n/a	n/a	n/a	n/a	n/a	n/a
223.8831	0.5833	INK	68	Neutral	xxxxx	xxxxx	zielony	green	hit	n/a
224.4487	n/a	RESPONSE	n/a	n/a	n/a	n/a	n/a	n/a	n/a	green
224.4665	1.0167	ITI	n/a	n/a	n/a	n/a	n/a	n/a	n/a	n/a
225.4831	0.5167	FIXCROSS	n/a	n/a	n/a	n/a	n/a	n/a	n/a	n/a
225.9998	0.6	INK	69	Neutral	xxxxxxxxx	xxxxxxxxx	zielony	green	hit	n/a
226.5763	n/a	RESPONSE	n/a	n/a	n/a	n/a	n/a	n/a	n/a	green
226.5998	1.0167	ITI	n/a	n/a	n/a	n/a	n/a	n/a	n/a	n/a
227.6165	0.5167	FIXCROSS	n/a	n/a	n/a	n/a	n/a	n/a	n/a	n/a
228.1332	0.9	INK	70	Neutral	xxxxxxxx	xxxxxxxx	niebieski	blue	hit	n/a
229.0078	n/a	RESPONSE	n/a	n/a	n/a	n/a	n/a	n/a	n/a	blue
229.0332	1.0167	ITI	n/a	n/a	n/a	n/a	n/a	n/a	n/a	n/a
230.0498	0.5167	FIXCROSS	n/a	n/a	n/a	n/a	n/a	n/a	n/a	n/a
230.5665	0.8667	INK	71	Neutral	xxxxxxxxx	xxxxxxxxx	żółty	yellow	hit	n/a
231.4073	n/a	RESPONSE	n/a	n/a	n/a	n/a	n/a	n/a	n/a	yellow
231.4332	1.0167	ITI	n/a	n/a	n/a	n/a	n/a	n/a	n/a	n/a
232.4499	0.5167	FIXCROSS	n/a	n/a	n/a	n/a	n/a	n/a	n/a	n/a
232.9665	0.7167	INK	72	Incongruent	niebieski	blue	czerwony	red	hit	n/a
233.6627	n/a	RESPONSE	n/a	n/a	n/a	n/a	n/a	n/a	n/a	red
233.6832	1.0833	ITI	n/a	n/a	n/a	n/a	n/a	n/a	n/a	n/a
264.6963	n/a	RESPONSE	n/a	n/a	n/a	n/a	n/a	n/a	n/a	n/a
264.7667	1.0167	ITI	n/a	n/a	n/a	n/a	n/a	n/a	n/a	n/a
265.7834	0.5167	FIXCROSS	n/a	n/a	n/a	n/a	n/a	n/a	n/a	n/a
266.3001	1.6667	T_COLOR_NAME	1	Incongruent	zielony	green	niebieski	blue	hit	n/a
267.9436	n/a	RESPONSE	n/a	n/a	n/a	n/a	n/a	n/a	n/a	green
267.9668	0.5167	FEEDBACK	n/a	n/a	n/a	n/a	n/a	n/a	n/a	n/a
268.4834	1.0167	ITI	n/a	n/a	n/a	n/a	n/a	n/a	n/a	n/a
269.5001	0.5167	FIXCROSS	n/a	n/a	n/a	n/a	n/a	n/a	n/a	n/a
270.0168	1.05	T_COLOR_NAME	2	Incongruent	czerwony	red	żółty	yellow	hit	n/a
271.0309	n/a	RESPONSE	n/a	n/a	n/a	n/a	n/a	n/a	n/a	red
271.0668	0.5167	FEEDBACK	n/a	n/a	n/a	n/a	n/a	n/a	n/a	n/a
271.5835	1.0167	ITI	n/a	n/a	n/a	n/a	n/a	n/a	n/a	n/a
272.6001	0.5167	FIXCROSS	n/a	n/a	n/a	n/a	n/a	n/a	n/a	n/a
273.1168	2.0834	T_COLOR_NAME	3	Incongruent	zielony	green	żółty	yellow	hit	n/a
275.174	n/a	RESPONSE	n/a	n/a	n/a	n/a	n/a	n/a	n/a	green
275.2001	0.5167	FEEDBACK	n/a	n/a	n/a	n/a	n/a	n/a	n/a	n/a
275.7168	1.0167	ITI	n/a	n/a	n/a	n/a	n/a	n/a	n/a	n/a
276.7335	0.5167	FIXCROSS	n/a	n/a	n/a	n/a	n/a	n/a	n/a	n/a
277.2501	1.0667	T_COLOR_NAME	4	Incongruent	żółty	yellow	czerwony	red	hit	n/a
278.2934	n/a	RESPONSE	n/a	n/a	n/a	n/a	n/a	n/a	n/a	yellow
278.3168	0.5167	FEEDBACK	n/a	n/a	n/a	n/a	n/a	n/a	n/a	n/a
278.8335	1.0167	ITI	n/a	n/a	n/a	n/a	n/a	n/a	n/a	n/a
279.8502	0.5167	FIXCROSS	n/a	n/a	n/a	n/a	n/a	n/a	n/a	n/a
280.3668	1.1833	T_COLOR_NAME	5	Incongruent	niebieski	blue	żółty	yellow	hit	n/a
281.5247	n/a	RESPONSE	n/a	n/a	n/a	n/a	n/a	n/a	n/a	blue
281.5502	0.5167	FEEDBACK	n/a	n/a	n/a	n/a	n/a	n/a	n/a	n/a
282.0669	1.0167	ITI	n/a	n/a	n/a	n/a	n/a	n/a	n/a	n/a
283.0835	0.5167	FIXCROSS	n/a	n/a	n/a	n/a	n/a	n/a	n/a	n/a
283.6002	1.0167	T_COLOR_NAME	6	Neutral	żółty	yellow	Neutral	Neutral	hit	n/a
284.596	n/a	RESPONSE	n/a	n/a	n/a	n/a	n/a	n/a	n/a	yellow
284.6169	0.5167	FEEDBACK	n/a	n/a	n/a	n/a	n/a	n/a	n/a	n/a
285.1335	1.0167	ITI	n/a	n/a	n/a	n/a	n/a	n/a	n/a	n/a
286.1502	0.5167	FIXCROSS	n/a	n/a	n/a	n/a	n/a	n/a	n/a	n/a
286.6669	0.9	T_COLOR_NAME	7	Neutral	niebieski	blue	Neutral	Neutral	hit	n/a
287.5394	n/a	RESPONSE	n/a	n/a	n/a	n/a	n/a	n/a	n/a	blue
287.5669	0.5167	FEEDBACK	n/a	n/a	n/a	n/a	n/a	n/a	n/a	n/a
288.0836	1.0167	ITI	n/a	n/a	n/a	n/a	n/a	n/a	n/a	n/a
289.1002	0.5167	FIXCROSS	n/a	n/a	n/a	n/a	n/a	n/a	n/a	n/a
289.6169	0.9333	T_COLOR_NAME	8	Incongruent	niebieski	blue	czerwony	red	hit	n/a
290.5308	n/a	RESPONSE	n/a	n/a	n/a	n/a	n/a	n/a	n/a	blue
290.5502	0.5167	FEEDBACK	n/a	n/a	n/a	n/a	n/a	n/a	n/a	n/a
291.0669	1.0167	ITI	n/a	n/a	n/a	n/a	n/a	n/a	n/a	n/a
292.0836	0.5167	FIXCROSS	n/a	n/a	n/a	n/a	n/a	n/a	n/a	n/a
292.6003	0.7167	T_COLOR_NAME	9	Neutral	niebieski	blue	Neutral	Neutral	hit	n/a
293.2982	n/a	RESPONSE	n/a	n/a	n/a	n/a	n/a	n/a	n/a	blue
293.3169	0.5167	FEEDBACK	n/a	n/a	n/a	n/a	n/a	n/a	n/a	n/a
293.8336	1.0167	ITI	n/a	n/a	n/a	n/a	n/a	n/a	n/a	n/a
294.8503	0.5167	FIXCROSS	n/a	n/a	n/a	n/a	n/a	n/a	n/a	n/a
295.3669	0.75	T_COLOR_NAME	10	Incongruent	niebieski	blue	zielony	green	hit	n/a
296.0976	n/a	RESPONSE	n/a	n/a	n/a	n/a	n/a	n/a	n/a	blue
296.117	0.5167	FEEDBACK	n/a	n/a	n/a	n/a	n/a	n/a	n/a	n/a
296.6336	1.0167	ITI	n/a	n/a	n/a	n/a	n/a	n/a	n/a	n/a
297.6503	0.5167	FIXCROSS	n/a	n/a	n/a	n/a	n/a	n/a	n/a	n/a
298.167	0.75	T_COLOR_NAME	11	Neutral	zielony	green	Neutral	Neutral	hit	n/a
298.897	n/a	RESPONSE	n/a	n/a	n/a	n/a	n/a	n/a	n/a	green
298.917	0.5167	FEEDBACK	n/a	n/a	n/a	n/a	n/a	n/a	n/a	n/a
299.4336	1.0167	ITI	n/a	n/a	n/a	n/a	n/a	n/a	n/a	n/a
300.4503	0.5167	FIXCROSS	n/a	n/a	n/a	n/a	n/a	n/a	n/a	n/a
300.967	0.7333	T_COLOR_NAME	12	Incongruent	czerwony	red	niebieski	blue	hit	n/a
301.6805	n/a	RESPONSE	n/a	n/a	n/a	n/a	n/a	n/a	n/a	red
301.7003	0.5167	FEEDBACK	n/a	n/a	n/a	n/a	n/a	n/a	n/a	n/a
302.217	1.0333	ITI	n/a	n/a	n/a	n/a	n/a	n/a	n/a	n/a
308.687	n/a	RESPONSE	n/a	n/a	n/a	n/a	n/a	n/a	n/a	n/a
308.7504	1.0167	ITI	n/a	n/a	n/a	n/a	n/a	n/a	n/a	n/a
309.767	0.5167	FIXCROSS	n/a	n/a	n/a	n/a	n/a	n/a	n/a	n/a
310.2837	0.9	COLOR_NAME	1	Incongruent	zielony	green	żółty	yellow	hit	n/a
311.1664	n/a	RESPONSE	n/a	n/a	n/a	n/a	n/a	n/a	n/a	green
311.1837	1.0167	ITI	n/a	n/a	n/a	n/a	n/a	n/a	n/a	n/a
312.2004	0.5167	FIXCROSS	n/a	n/a	n/a	n/a	n/a	n/a	n/a	n/a
312.7171	0.8167	COLOR_NAME	2	Incongruent	czerwony	red	żółty	yellow	hit	n/a
313.502	n/a	RESPONSE	n/a	n/a	n/a	n/a	n/a	n/a	n/a	red
313.5337	1.0167	ITI	n/a	n/a	n/a	n/a	n/a	n/a	n/a	n/a
314.5504	0.5167	FIXCROSS	n/a	n/a	n/a	n/a	n/a	n/a	n/a	n/a
315.0671	0.8833	COLOR_NAME	3	Incongruent	niebieski	blue	czerwony	red	hit	n/a
315.9175	n/a	RESPONSE	n/a	n/a	n/a	n/a	n/a	n/a	n/a	blue
315.9504	1.0167	ITI	n/a	n/a	n/a	n/a	n/a	n/a	n/a	n/a
316.9671	0.5167	FIXCROSS	n/a	n/a	n/a	n/a	n/a	n/a	n/a	n/a
317.4837	0.8	COLOR_NAME	4	Neutral	żółty	yellow	Neutral	Neutral	hit	n/a
318.2529	n/a	RESPONSE	n/a	n/a	n/a	n/a	n/a	n/a	n/a	yellow
318.2838	1.0167	ITI	n/a	n/a	n/a	n/a	n/a	n/a	n/a	n/a
319.3004	0.5167	FIXCROSS	n/a	n/a	n/a	n/a	n/a	n/a	n/a	n/a
319.8171	0.8333	COLOR_NAME	5	Neutral	niebieski	blue	Neutral	Neutral	hit	n/a
320.6205	n/a	RESPONSE	n/a	n/a	n/a	n/a	n/a	n/a	n/a	blue
320.6504	1.0167	ITI	n/a	n/a	n/a	n/a	n/a	n/a	n/a	n/a
321.6671	0.5167	FIXCROSS	n/a	n/a	n/a	n/a	n/a	n/a	n/a	n/a
322.1838	0.8833	COLOR_NAME	6	Neutral	czerwony	red	Neutral	Neutral	hit	n/a
323.0359	n/a	RESPONSE	n/a	n/a	n/a	n/a	n/a	n/a	n/a	red
323.0671	1.0167	ITI	n/a	n/a	n/a	n/a	n/a	n/a	n/a	n/a
324.0838	0.5167	FIXCROSS	n/a	n/a	n/a	n/a	n/a	n/a	n/a	n/a
324.6005	0.8	COLOR_NAME	7	Incongruent	czerwony	red	niebieski	blue	hit	n/a
325.3715	n/a	RESPONSE	n/a	n/a	n/a	n/a	n/a	n/a	n/a	red
325.4005	1.0167	ITI	n/a	n/a	n/a	n/a	n/a	n/a	n/a	n/a
326.4171	0.5167	FIXCROSS	n/a	n/a	n/a	n/a	n/a	n/a	n/a	n/a
326.9338	0.8833	COLOR_NAME	8	Incongruent	zielony	green	czerwony	red	hit	n/a
327.787	n/a	RESPONSE	n/a	n/a	n/a	n/a	n/a	n/a	n/a	green
327.8172	1.0167	ITI	n/a	n/a	n/a	n/a	n/a	n/a	n/a	n/a
328.8338	0.5167	FIXCROSS	n/a	n/a	n/a	n/a	n/a	n/a	n/a	n/a
329.3505	0.8333	COLOR_NAME	9	Incongruent	czerwony	red	zielony	green	hit	n/a
330.1545	n/a	RESPONSE	n/a	n/a	n/a	n/a	n/a	n/a	n/a	red
330.1838	1.0167	ITI	n/a	n/a	n/a	n/a	n/a	n/a	n/a	n/a
331.2005	0.5167	FIXCROSS	n/a	n/a	n/a	n/a	n/a	n/a	n/a	n/a
331.7172	1.0833	COLOR_NAME	10	Neutral	zielony	green	Neutral	Neutral	hit	n/a
332.7779	n/a	RESPONSE	n/a	n/a	n/a	n/a	n/a	n/a	n/a	green
332.8005	1.0167	ITI	n/a	n/a	n/a	n/a	n/a	n/a	n/a	n/a
333.8172	0.5167	FIXCROSS	n/a	n/a	n/a	n/a	n/a	n/a	n/a	n/a
334.3339	0.75	COLOR_NAME	11	Incongruent	czerwony	red	zielony	green	hit	n/a
335.0654	n/a	RESPONSE	n/a	n/a	n/a	n/a	n/a	n/a	n/a	red
335.0839	1.0167	ITI	n/a	n/a	n/a	n/a	n/a	n/a	n/a	n/a
336.1005	0.5167	FIXCROSS	n/a	n/a	n/a	n/a	n/a	n/a	n/a	n/a
336.6172	0.7667	COLOR_NAME	12	Incongruent	zielony	green	żółty	yellow	hit	n/a
337.3529	n/a	RESPONSE	n/a	n/a	n/a	n/a	n/a	n/a	n/a	green
337.3839	1.0167	ITI	n/a	n/a	n/a	n/a	n/a	n/a	n/a	n/a
338.4006	0.5167	FIXCROSS	n/a	n/a	n/a	n/a	n/a	n/a	n/a	n/a
338.9172	0.7833	COLOR_NAME	13	Neutral	czerwony	red	Neutral	Neutral	hit	n/a
339.6725	n/a	RESPONSE	n/a	n/a	n/a	n/a	n/a	n/a	n/a	red
339.7006	1.0167	ITI	n/a	n/a	n/a	n/a	n/a	n/a	n/a	n/a
340.7172	0.5167	FIXCROSS	n/a	n/a	n/a	n/a	n/a	n/a	n/a	n/a
341.2339	0.7333	COLOR_NAME	14	Incongruent	zielony	green	czerwony	red	hit	n/a
341.944	n/a	RESPONSE	n/a	n/a	n/a	n/a	n/a	n/a	n/a	green
341.9672	1.0167	ITI	n/a	n/a	n/a	n/a	n/a	n/a	n/a	n/a
342.9839	0.5167	FIXCROSS	n/a	n/a	n/a	n/a	n/a	n/a	n/a	n/a
343.5006	0.9167	COLOR_NAME	15	Incongruent	żółty	yellow	niebieski	blue	hit	n/a
344.3915	n/a	RESPONSE	n/a	n/a	n/a	n/a	n/a	n/a	n/a	yellow
344.4173	1.0167	ITI	n/a	n/a	n/a	n/a	n/a	n/a	n/a	n/a
345.4339	0.5167	FIXCROSS	n/a	n/a	n/a	n/a	n/a	n/a	n/a	n/a
345.9506	0.8667	COLOR_NAME	16	Incongruent	niebieski	blue	żółty	yellow	hit	n/a
346.7909	n/a	RESPONSE	n/a	n/a	n/a	n/a	n/a	n/a	n/a	blue
346.8173	1.0167	ITI	n/a	n/a	n/a	n/a	n/a	n/a	n/a	n/a
347.834	0.5167	FIXCROSS	n/a	n/a	n/a	n/a	n/a	n/a	n/a	n/a
348.3506	0.9167	COLOR_NAME	17	Incongruent	żółty	yellow	zielony	green	hit	n/a
349.2385	n/a	RESPONSE	n/a	n/a	n/a	n/a	n/a	n/a	n/a	yellow
349.2673	1.0167	ITI	n/a	n/a	n/a	n/a	n/a	n/a	n/a	n/a
350.284	0.5167	FIXCROSS	n/a	n/a	n/a	n/a	n/a	n/a	n/a	n/a
350.8006	0.85	COLOR_NAME	18	Incongruent	żółty	yellow	czerwony	red	hit	n/a
351.6219	n/a	RESPONSE	n/a	n/a	n/a	n/a	n/a	n/a	n/a	yellow
351.6507	1.0167	ITI	n/a	n/a	n/a	n/a	n/a	n/a	n/a	n/a
352.6673	0.5167	FIXCROSS	n/a	n/a	n/a	n/a	n/a	n/a	n/a	n/a
353.184	0.7333	COLOR_NAME	19	Neutral	żółty	yellow	Neutral	Neutral	hit	n/a
353.8935	n/a	RESPONSE	n/a	n/a	n/a	n/a	n/a	n/a	n/a	yellow
353.9173	1.0167	ITI	n/a	n/a	n/a	n/a	n/a	n/a	n/a	n/a
354.934	0.5167	FIXCROSS	n/a	n/a	n/a	n/a	n/a	n/a	n/a	n/a
355.4507	0.7167	COLOR_NAME	20	Incongruent	niebieski	blue	zielony	green	hit	n/a
356.149	n/a	RESPONSE	n/a	n/a	n/a	n/a	n/a	n/a	n/a	blue
356.1673	1.0167	ITI	n/a	n/a	n/a	n/a	n/a	n/a	n/a	n/a
357.184	0.5167	FIXCROSS	n/a	n/a	n/a	n/a	n/a	n/a	n/a	n/a
357.7007	0.8167	COLOR_NAME	21	Neutral	żółty	yellow	Neutral	Neutral	hit	n/a
358.4845	n/a	RESPONSE	n/a	n/a	n/a	n/a	n/a	n/a	n/a	yellow
358.5174	1.0167	ITI	n/a	n/a	n/a	n/a	n/a	n/a	n/a	n/a
359.534	0.5167	FIXCROSS	n/a	n/a	n/a	n/a	n/a	n/a	n/a	n/a
360.0507	0.7333	COLOR_NAME	22	Incongruent	żółty	yellow	czerwony	red	hit	n/a
360.756	n/a	RESPONSE	n/a	n/a	n/a	n/a	n/a	n/a	n/a	yellow
360.784	1.0167	ITI	n/a	n/a	n/a	n/a	n/a	n/a	n/a	n/a
361.8007	0.5167	FIXCROSS	n/a	n/a	n/a	n/a	n/a	n/a	n/a	n/a
362.3174	0.7167	COLOR_NAME	23	Neutral	czerwony	red	Neutral	Neutral	hit	n/a
363.0116	n/a	RESPONSE	n/a	n/a	n/a	n/a	n/a	n/a	n/a	red
363.0341	1.0167	ITI	n/a	n/a	n/a	n/a	n/a	n/a	n/a	n/a
364.0507	0.5167	FIXCROSS	n/a	n/a	n/a	n/a	n/a	n/a	n/a	n/a
364.5674	0.7833	COLOR_NAME	24	Incongruent	zielony	green	niebieski	blue	hit	n/a
365.331	n/a	RESPONSE	n/a	n/a	n/a	n/a	n/a	n/a	n/a	green
365.3507	1.0167	ITI	n/a	n/a	n/a	n/a	n/a	n/a	n/a	n/a
366.3674	0.5167	FIXCROSS	n/a	n/a	n/a	n/a	n/a	n/a	n/a	n/a
366.8841	0.8167	COLOR_NAME	25	Incongruent	niebieski	blue	zielony	green	hit	n/a
367.6826	n/a	RESPONSE	n/a	n/a	n/a	n/a	n/a	n/a	n/a	blue
367.7008	1.0167	ITI	n/a	n/a	n/a	n/a	n/a	n/a	n/a	n/a
368.7174	0.5167	FIXCROSS	n/a	n/a	n/a	n/a	n/a	n/a	n/a	n/a
369.2341	0.7333	COLOR_NAME	26	Incongruent	czerwony	red	zielony	green	hit	n/a
369.9381	n/a	RESPONSE	n/a	n/a	n/a	n/a	n/a	n/a	n/a	red
369.9674	1.0167	ITI	n/a	n/a	n/a	n/a	n/a	n/a	n/a	n/a
370.9841	0.5167	FIXCROSS	n/a	n/a	n/a	n/a	n/a	n/a	n/a	n/a
371.5008	0.8167	COLOR_NAME	27	Neutral	niebieski	blue	Neutral	Neutral	hit	n/a
372.2896	n/a	RESPONSE	n/a	n/a	n/a	n/a	n/a	n/a	n/a	blue
372.3175	1.0167	ITI	n/a	n/a	n/a	n/a	n/a	n/a	n/a	n/a
373.3341	0.5167	FIXCROSS	n/a	n/a	n/a	n/a	n/a	n/a	n/a	n/a
373.8508	0.7833	COLOR_NAME	28	Neutral	zielony	green	Neutral	Neutral	hit	n/a
374.6091	n/a	RESPONSE	n/a	n/a	n/a	n/a	n/a	n/a	n/a	green
374.6341	1.0167	ITI	n/a	n/a	n/a	n/a	n/a	n/a	n/a	n/a
375.6508	0.5167	FIXCROSS	n/a	n/a	n/a	n/a	n/a	n/a	n/a	n/a
376.1675	0.7667	COLOR_NAME	29	Incongruent	czerwony	red	żółty	yellow	hit	n/a
376.9126	n/a	RESPONSE	n/a	n/a	n/a	n/a	n/a	n/a	n/a	red
376.9341	1.0167	ITI	n/a	n/a	n/a	n/a	n/a	n/a	n/a	n/a
377.9508	0.5167	FIXCROSS	n/a	n/a	n/a	n/a	n/a	n/a	n/a	n/a
378.4675	0.9833	COLOR_NAME	30	Incongruent	niebieski	blue	żółty	yellow	hit	n/a
379.4241	n/a	RESPONSE	n/a	n/a	n/a	n/a	n/a	n/a	n/a	blue
379.4508	1.0167	ITI	n/a	n/a	n/a	n/a	n/a	n/a	n/a	n/a
380.4675	0.5167	FIXCROSS	n/a	n/a	n/a	n/a	n/a	n/a	n/a	n/a
380.9842	1.0167	COLOR_NAME	31	Neutral	niebieski	blue	Neutral	Neutral	hit	n/a
381.9835	n/a	RESPONSE	n/a	n/a	n/a	n/a	n/a	n/a	n/a	blue
382.0008	1.0167	ITI	n/a	n/a	n/a	n/a	n/a	n/a	n/a	n/a
383.0175	0.5167	FIXCROSS	n/a	n/a	n/a	n/a	n/a	n/a	n/a	n/a
383.5342	0.7167	COLOR_NAME	32	Neutral	czerwony	red	Neutral	Neutral	hit	n/a
384.2231	n/a	RESPONSE	n/a	n/a	n/a	n/a	n/a	n/a	n/a	red
384.2509	1.0167	ITI	n/a	n/a	n/a	n/a	n/a	n/a	n/a	n/a
385.2675	0.5167	FIXCROSS	n/a	n/a	n/a	n/a	n/a	n/a	n/a	n/a
385.7842	0.85	COLOR_NAME	33	Incongruent	żółty	yellow	niebieski	blue	hit	n/a
386.6066	n/a	RESPONSE	n/a	n/a	n/a	n/a	n/a	n/a	n/a	yellow
386.6342	1.0167	ITI	n/a	n/a	n/a	n/a	n/a	n/a	n/a	n/a
387.6509	0.5167	FIXCROSS	n/a	n/a	n/a	n/a	n/a	n/a	n/a	n/a
388.1675	0.7333	COLOR_NAME	34	Neutral	czerwony	red	Neutral	Neutral	hit	n/a
388.8781	n/a	RESPONSE	n/a	n/a	n/a	n/a	n/a	n/a	n/a	red
388.9009	1.0167	ITI	n/a	n/a	n/a	n/a	n/a	n/a	n/a	n/a
389.9176	0.5167	FIXCROSS	n/a	n/a	n/a	n/a	n/a	n/a	n/a	n/a
390.4342	0.8	COLOR_NAME	35	Neutral	żółty	yellow	Neutral	Neutral	hit	n/a
391.2136	n/a	RESPONSE	n/a	n/a	n/a	n/a	n/a	n/a	n/a	yellow
391.2342	1.0167	ITI	n/a	n/a	n/a	n/a	n/a	n/a	n/a	n/a
392.2509	0.5167	FIXCROSS	n/a	n/a	n/a	n/a	n/a	n/a	n/a	n/a
392.7676	0.8	COLOR_NAME	36	Neutral	żółty	yellow	Neutral	Neutral	hit	n/a
393.5172	n/a	RESPONSE	n/a	n/a	n/a	n/a	n/a	n/a	n/a	yellow
393.5676	1.0167	ITI	n/a	n/a	n/a	n/a	n/a	n/a	n/a	n/a
394.5843	0.5167	FIXCROSS	n/a	n/a	n/a	n/a	n/a	n/a	n/a	n/a
395.1009	0.8833	COLOR_NAME	37	Incongruent	niebieski	blue	żółty	yellow	hit	n/a
395.9646	n/a	RESPONSE	n/a	n/a	n/a	n/a	n/a	n/a	n/a	blue
395.9843	1.0167	ITI	n/a	n/a	n/a	n/a	n/a	n/a	n/a	n/a
397.0009	0.5167	FIXCROSS	n/a	n/a	n/a	n/a	n/a	n/a	n/a	n/a
397.5176	0.8333	COLOR_NAME	38	Neutral	niebieski	blue	Neutral	Neutral	hit	n/a
398.3321	n/a	RESPONSE	n/a	n/a	n/a	n/a	n/a	n/a	n/a	blue
398.351	1.0167	ITI	n/a	n/a	n/a	n/a	n/a	n/a	n/a	n/a
399.3676	0.5167	FIXCROSS	n/a	n/a	n/a	n/a	n/a	n/a	n/a	n/a
399.8843	0.75	COLOR_NAME	39	Incongruent	zielony	green	żółty	yellow	hit	n/a
400.6036	n/a	RESPONSE	n/a	n/a	n/a	n/a	n/a	n/a	n/a	green
400.6343	1.0167	ITI	n/a	n/a	n/a	n/a	n/a	n/a	n/a	n/a
401.651	0.5167	FIXCROSS	n/a	n/a	n/a	n/a	n/a	n/a	n/a	n/a
402.1676	0.8833	COLOR_NAME	40	Neutral	niebieski	blue	Neutral	Neutral	hit	n/a
403.0191	n/a	RESPONSE	n/a	n/a	n/a	n/a	n/a	n/a	n/a	blue
403.051	1.0167	ITI	n/a	n/a	n/a	n/a	n/a	n/a	n/a	n/a
404.0677	0.5167	FIXCROSS	n/a	n/a	n/a	n/a	n/a	n/a	n/a	n/a
404.5843	0.7667	COLOR_NAME	41	Incongruent	niebieski	blue	czerwony	red	hit	n/a
405.3227	n/a	RESPONSE	n/a	n/a	n/a	n/a	n/a	n/a	n/a	blue
405.351	1.0167	ITI	n/a	n/a	n/a	n/a	n/a	n/a	n/a	n/a
406.3677	0.5167	FIXCROSS	n/a	n/a	n/a	n/a	n/a	n/a	n/a	n/a
406.8843	0.7833	COLOR_NAME	42	Neutral	zielony	green	Neutral	Neutral	hit	n/a
407.6421	n/a	RESPONSE	n/a	n/a	n/a	n/a	n/a	n/a	n/a	green
407.6677	1.0167	ITI	n/a	n/a	n/a	n/a	n/a	n/a	n/a	n/a
408.6843	0.5167	FIXCROSS	n/a	n/a	n/a	n/a	n/a	n/a	n/a	n/a
409.201	1.0	COLOR_NAME	43	Incongruent	zielony	green	czerwony	red	hit	n/a
410.1696	n/a	RESPONSE	n/a	n/a	n/a	n/a	n/a	n/a	n/a	green
410.201	1.0167	ITI	n/a	n/a	n/a	n/a	n/a	n/a	n/a	n/a
411.2177	0.5167	FIXCROSS	n/a	n/a	n/a	n/a	n/a	n/a	n/a	n/a
411.7344	0.6	COLOR_NAME	44	Neutral	zielony	green	Neutral	Neutral	hit	n/a
412.3132	n/a	RESPONSE	n/a	n/a	n/a	n/a	n/a	n/a	n/a	green
412.3344	1.0167	ITI	n/a	n/a	n/a	n/a	n/a	n/a	n/a	n/a
413.3511	0.5167	FIXCROSS	n/a	n/a	n/a	n/a	n/a	n/a	n/a	n/a
413.8677	0.6333	COLOR_NAME	45	Neutral	zielony	green	Neutral	Neutral	hit	n/a
414.4727	n/a	RESPONSE	n/a	n/a	n/a	n/a	n/a	n/a	n/a	green
414.5011	1.0167	ITI	n/a	n/a	n/a	n/a	n/a	n/a	n/a	n/a
415.5177	0.5166	FIXCROSS	n/a	n/a	n/a	n/a	n/a	n/a	n/a	n/a
416.0343	0.7501	COLOR_NAME	46	Neutral	czerwony	red	Neutral	Neutral	hit	n/a
416.7602	n/a	RESPONSE	n/a	n/a	n/a	n/a	n/a	n/a	n/a	red
416.7844	1.0167	ITI	n/a	n/a	n/a	n/a	n/a	n/a	n/a	n/a
417.8011	0.5167	FIXCROSS	n/a	n/a	n/a	n/a	n/a	n/a	n/a	n/a
418.3177	0.7333	COLOR_NAME	47	Incongruent	czerwony	red	niebieski	blue	hit	n/a
419.0318	n/a	RESPONSE	n/a	n/a	n/a	n/a	n/a	n/a	n/a	red
419.0511	1.0167	ITI	n/a	n/a	n/a	n/a	n/a	n/a	n/a	n/a
420.0678	0.5167	FIXCROSS	n/a	n/a	n/a	n/a	n/a	n/a	n/a	n/a
420.5844	0.85	COLOR_NAME	48	Neutral	niebieski	blue	Neutral	Neutral	hit	n/a
421.4152	n/a	RESPONSE	n/a	n/a	n/a	n/a	n/a	n/a	n/a	blue
421.4344	1.0167	ITI	n/a	n/a	n/a	n/a	n/a	n/a	n/a	n/a
422.4511	0.5167	FIXCROSS	n/a	n/a	n/a	n/a	n/a	n/a	n/a	n/a
422.9678	0.7333	COLOR_NAME	49	Incongruent	niebieski	blue	czerwony	red	hit	n/a
423.6708	n/a	RESPONSE	n/a	n/a	n/a	n/a	n/a	n/a	n/a	blue
423.7011	1.0167	ITI	n/a	n/a	n/a	n/a	n/a	n/a	n/a	n/a
424.7178	0.5167	FIXCROSS	n/a	n/a	n/a	n/a	n/a	n/a	n/a	n/a
425.2345	0.8	COLOR_NAME	50	Neutral	zielony	green	Neutral	Neutral	hit	n/a
426.0063	n/a	RESPONSE	n/a	n/a	n/a	n/a	n/a	n/a	n/a	green
426.0345	1.0167	ITI	n/a	n/a	n/a	n/a	n/a	n/a	n/a	n/a
427.0511	0.5167	FIXCROSS	n/a	n/a	n/a	n/a	n/a	n/a	n/a	n/a
427.5678	0.6334	COLOR_NAME	51	Incongruent	zielony	green	niebieski	blue	hit	n/a
428.1818	n/a	RESPONSE	n/a	n/a	n/a	n/a	n/a	n/a	n/a	green
428.2012	1.0167	ITI	n/a	n/a	n/a	n/a	n/a	n/a	n/a	n/a
429.2178	0.5167	FIXCROSS	n/a	n/a	n/a	n/a	n/a	n/a	n/a	n/a
429.7345	0.6667	COLOR_NAME	52	Neutral	zielony	green	Neutral	Neutral	hit	n/a
430.3733	n/a	RESPONSE	n/a	n/a	n/a	n/a	n/a	n/a	n/a	green
430.4012	1.0167	ITI	n/a	n/a	n/a	n/a	n/a	n/a	n/a	n/a
431.4178	0.5167	FIXCROSS	n/a	n/a	n/a	n/a	n/a	n/a	n/a	n/a
431.9345	0.75	COLOR_NAME	53	Neutral	żółty	yellow	Neutral	Neutral	hit	n/a
432.6609	n/a	RESPONSE	n/a	n/a	n/a	n/a	n/a	n/a	n/a	yellow
432.6845	1.0167	ITI	n/a	n/a	n/a	n/a	n/a	n/a	n/a	n/a
433.7012	0.5167	FIXCROSS	n/a	n/a	n/a	n/a	n/a	n/a	n/a	n/a
434.2179	0.8833	COLOR_NAME	54	Incongruent	zielony	green	niebieski	blue	hit	n/a
435.0764	n/a	RESPONSE	n/a	n/a	n/a	n/a	n/a	n/a	n/a	green
435.1012	1.0167	ITI	n/a	n/a	n/a	n/a	n/a	n/a	n/a	n/a
436.1179	0.5167	FIXCROSS	n/a	n/a	n/a	n/a	n/a	n/a	n/a	n/a
436.6345	0.9167	COLOR_NAME	55	Neutral	żółty	yellow	Neutral	Neutral	hit	n/a
437.5239	n/a	RESPONSE	n/a	n/a	n/a	n/a	n/a	n/a	n/a	yellow
437.5512	1.0167	ITI	n/a	n/a	n/a	n/a	n/a	n/a	n/a	n/a
438.5679	0.5167	FIXCROSS	n/a	n/a	n/a	n/a	n/a	n/a	n/a	n/a
439.0845	0.8	COLOR_NAME	56	Neutral	niebieski	blue	Neutral	Neutral	hit	n/a
439.8593	n/a	RESPONSE	n/a	n/a	n/a	n/a	n/a	n/a	n/a	blue
439.8846	1.0167	ITI	n/a	n/a	n/a	n/a	n/a	n/a	n/a	n/a
440.9012	0.5167	FIXCROSS	n/a	n/a	n/a	n/a	n/a	n/a	n/a	n/a
441.4179	0.85	COLOR_NAME	57	Neutral	żółty	yellow	Neutral	Neutral	hit	n/a
442.2429	n/a	RESPONSE	n/a	n/a	n/a	n/a	n/a	n/a	n/a	yellow
442.2679	1.0167	ITI	n/a	n/a	n/a	n/a	n/a	n/a	n/a	n/a
443.2846	0.5167	FIXCROSS	n/a	n/a	n/a	n/a	n/a	n/a	n/a	n/a
443.8012	0.85	COLOR_NAME	58	Neutral	niebieski	blue	Neutral	Neutral	hit	n/a
444.6264	n/a	RESPONSE	n/a	n/a	n/a	n/a	n/a	n/a	n/a	blue
444.6513	1.0167	ITI	n/a	n/a	n/a	n/a	n/a	n/a	n/a	n/a
445.6679	0.5167	FIXCROSS	n/a	n/a	n/a	n/a	n/a	n/a	n/a	n/a
446.1846	0.7833	COLOR_NAME	59	Neutral	czerwony	red	Neutral	Neutral	hit	n/a
446.9459	n/a	RESPONSE	n/a	n/a	n/a	n/a	n/a	n/a	n/a	red
446.9679	1.0167	ITI	n/a	n/a	n/a	n/a	n/a	n/a	n/a	n/a
447.9846	0.5167	FIXCROSS	n/a	n/a	n/a	n/a	n/a	n/a	n/a	n/a
448.5013	0.95	COLOR_NAME	60	Incongruent	niebieski	blue	zielony	green	hit	n/a
449.4254	n/a	RESPONSE	n/a	n/a	n/a	n/a	n/a	n/a	n/a	blue
449.4513	1.0167	ITI	n/a	n/a	n/a	n/a	n/a	n/a	n/a	n/a
450.468	0.5167	FIXCROSS	n/a	n/a	n/a	n/a	n/a	n/a	n/a	n/a
450.9846	0.8334	COLOR_NAME	61	Neutral	zielony	green	Neutral	Neutral	hit	n/a
451.7928	n/a	RESPONSE	n/a	n/a	n/a	n/a	n/a	n/a	n/a	green
451.818	1.0167	ITI	n/a	n/a	n/a	n/a	n/a	n/a	n/a	n/a
452.8346	0.5167	FIXCROSS	n/a	n/a	n/a	n/a	n/a	n/a	n/a	n/a
453.3513	0.8	COLOR_NAME	62	Neutral	czerwony	red	Neutral	Neutral	hit	n/a
454.1284	n/a	RESPONSE	n/a	n/a	n/a	n/a	n/a	n/a	n/a	red
454.1513	1.0167	ITI	n/a	n/a	n/a	n/a	n/a	n/a	n/a	n/a
455.168	0.5167	FIXCROSS	n/a	n/a	n/a	n/a	n/a	n/a	n/a	n/a
455.6847	0.7333	COLOR_NAME	63	Incongruent	czerwony	red	niebieski	blue	hit	n/a
456.3999	n/a	RESPONSE	n/a	n/a	n/a	n/a	n/a	n/a	n/a	red
456.418	1.0167	ITI	n/a	n/a	n/a	n/a	n/a	n/a	n/a	n/a
457.4347	0.5167	FIXCROSS	n/a	n/a	n/a	n/a	n/a	n/a	n/a	n/a
457.9513	1.4334	COLOR_NAME	64	Incongruent	żółty	yellow	zielony	green	hit	n/a
459.3592	n/a	RESPONSE	n/a	n/a	n/a	n/a	n/a	n/a	n/a	yellow
459.3847	1.0167	ITI	n/a	n/a	n/a	n/a	n/a	n/a	n/a	n/a
460.4014	0.5167	FIXCROSS	n/a	n/a	n/a	n/a	n/a	n/a	n/a	n/a
460.918	0.8333	COLOR_NAME	65	Incongruent	żółty	yellow	niebieski	blue	hit	n/a
461.7268	n/a	RESPONSE	n/a	n/a	n/a	n/a	n/a	n/a	n/a	yellow
461.7514	1.0167	ITI	n/a	n/a	n/a	n/a	n/a	n/a	n/a	n/a
462.768	0.5167	FIXCROSS	n/a	n/a	n/a	n/a	n/a	n/a	n/a	n/a
463.2847	0.75	COLOR_NAME	66	Neutral	zielony	green	Neutral	Neutral	hit	n/a
464.0143	n/a	RESPONSE	n/a	n/a	n/a	n/a	n/a	n/a	n/a	green
464.0347	1.0167	ITI	n/a	n/a	n/a	n/a	n/a	n/a	n/a	n/a
465.0514	0.5167	FIXCROSS	n/a	n/a	n/a	n/a	n/a	n/a	n/a	n/a
465.5681	0.7333	COLOR_NAME	67	Neutral	niebieski	blue	Neutral	Neutral	hit	n/a
466.2698	n/a	RESPONSE	n/a	n/a	n/a	n/a	n/a	n/a	n/a	blue
466.3014	1.0167	ITI	n/a	n/a	n/a	n/a	n/a	n/a	n/a	n/a
467.3181	0.5167	FIXCROSS	n/a	n/a	n/a	n/a	n/a	n/a	n/a	n/a
467.8347	0.75	COLOR_NAME	68	Neutral	czerwony	red	Neutral	Neutral	hit	n/a
468.5573	n/a	RESPONSE	n/a	n/a	n/a	n/a	n/a	n/a	n/a	red
468.5847	1.0167	ITI	n/a	n/a	n/a	n/a	n/a	n/a	n/a	n/a
469.6014	0.5167	FIXCROSS	n/a	n/a	n/a	n/a	n/a	n/a	n/a	n/a
470.1181	0.8667	COLOR_NAME	69	Incongruent	żółty	yellow	zielony	green	hit	n/a
470.9568	n/a	RESPONSE	n/a	n/a	n/a	n/a	n/a	n/a	n/a	yellow
470.9848	1.0167	ITI	n/a	n/a	n/a	n/a	n/a	n/a	n/a	n/a
472.0014	0.5167	FIXCROSS	n/a	n/a	n/a	n/a	n/a	n/a	n/a	n/a
472.5181	0.95	COLOR_NAME	70	Incongruent	czerwony	red	żółty	yellow	hit	n/a
473.4363	n/a	RESPONSE	n/a	n/a	n/a	n/a	n/a	n/a	n/a	red
473.4681	1.0167	ITI	n/a	n/a	n/a	n/a	n/a	n/a	n/a	n/a
474.4848	0.5167	FIXCROSS	n/a	n/a	n/a	n/a	n/a	n/a	n/a	n/a
475.0014	0.8667	COLOR_NAME	71	Neutral	żółty	yellow	Neutral	Neutral	hit	n/a
475.8358	n/a	RESPONSE	n/a	n/a	n/a	n/a	n/a	n/a	n/a	yellow
475.8681	1.0167	ITI	n/a	n/a	n/a	n/a	n/a	n/a	n/a	n/a
476.8848	0.5167	FIXCROSS	n/a	n/a	n/a	n/a	n/a	n/a	n/a	n/a
477.4015	0.9	COLOR_NAME	72	Incongruent	żółty	yellow	czerwony	red	hit	n/a
478.2833	n/a	RESPONSE	n/a	n/a	n/a	n/a	n/a	n/a	n/a	yellow
478.3015	1.0333	ITI	n/a	n/a	n/a	n/a	n/a	n/a	n/a	n/a
482.1065	n/a	RESPONSE	n/a	n/a	n/a	n/a	n/a	n/a	n/a	n/a
