onset	duration	trial_type	trial_number	stroop_condition	stim_text(PL)	stim_text(eng)	stim_color(PL)	stim_color(eng)	response_type	response_color
0.0	n/a	RESPONSE	n/a	n/a	n/a	n/a	n/a	n/a	n/a	n/a
0.0286	1.0167	ITI	n/a	n/a	n/a	n/a	n/a	n/a	n/a	n/a
1.0453	0.5	FIXCROSS	n/a	n/a	n/a	n/a	n/a	n/a	n/a	n/a
1.5453	3.3834	T_INK	1	Incongruent	zielony	green	żółty	yellow	incorrect	n/a
4.9224	n/a	RESPONSE	n/a	n/a	n/a	n/a	n/a	n/a	n/a	green
4.9287	0.5	FEEDBACK	n/a	n/a	n/a	n/a	n/a	n/a	n/a	n/a
5.4287	1.0	ITI	n/a	n/a	n/a	n/a	n/a	n/a	n/a	n/a
6.4287	0.5	FIXCROSS	n/a	n/a	n/a	n/a	n/a	n/a	n/a	n/a
6.9287	1.0333	T_INK	2	Neutral	xxxxxxxxx	xxxxxxxxx	czerwony	red	hit	n/a
7.9428	n/a	RESPONSE	n/a	n/a	n/a	n/a	n/a	n/a	n/a	red
7.962	0.5	FEEDBACK	n/a	n/a	n/a	n/a	n/a	n/a	n/a	n/a
8.462	1.0	ITI	n/a	n/a	n/a	n/a	n/a	n/a	n/a	n/a
9.462	0.5	FIXCROSS	n/a	n/a	n/a	n/a	n/a	n/a	n/a	n/a
9.962	0.9833	T_INK	3	Neutral	xxxxxxx	xxxxxxx	żółty	yellow	hit	n/a
10.9314	n/a	RESPONSE	n/a	n/a	n/a	n/a	n/a	n/a	n/a	yellow
10.9454	0.5167	FEEDBACK	n/a	n/a	n/a	n/a	n/a	n/a	n/a	n/a
11.462	1.0	ITI	n/a	n/a	n/a	n/a	n/a	n/a	n/a	n/a
12.462	0.5	FIXCROSS	n/a	n/a	n/a	n/a	n/a	n/a	n/a	n/a
12.962	1.3667	T_INK	4	Incongruent	czerwony	red	zielony	green	hit	n/a
14.3195	n/a	RESPONSE	n/a	n/a	n/a	n/a	n/a	n/a	n/a	green
14.3287	0.5	FEEDBACK	n/a	n/a	n/a	n/a	n/a	n/a	n/a	n/a
14.8287	1.0167	ITI	n/a	n/a	n/a	n/a	n/a	n/a	n/a	n/a
15.8454	0.5167	FIXCROSS	n/a	n/a	n/a	n/a	n/a	n/a	n/a	n/a
16.3621	0.7667	T_INK	5	Incongruent	zielony	green	czerwony	red	hit	n/a
17.1002	n/a	RESPONSE	n/a	n/a	n/a	n/a	n/a	n/a	n/a	red
17.1287	0.5167	FEEDBACK	n/a	n/a	n/a	n/a	n/a	n/a	n/a	n/a
17.6454	1.0167	ITI	n/a	n/a	n/a	n/a	n/a	n/a	n/a	n/a
18.6621	0.5167	FIXCROSS	n/a	n/a	n/a	n/a	n/a	n/a	n/a	n/a
19.1788	0.65	T_INK	6	Incongruent	żółty	yellow	niebieski	blue	hit	n/a
19.8011	n/a	RESPONSE	n/a	n/a	n/a	n/a	n/a	n/a	n/a	blue
19.8288	0.5167	FEEDBACK	n/a	n/a	n/a	n/a	n/a	n/a	n/a	n/a
20.3454	1.0167	ITI	n/a	n/a	n/a	n/a	n/a	n/a	n/a	n/a
21.3621	0.5167	FIXCROSS	n/a	n/a	n/a	n/a	n/a	n/a	n/a	n/a
21.8788	0.85	T_INK	7	Neutral	xxxxxxxx	xxxxxxxx	żółty	yellow	hit	n/a
22.7096	n/a	RESPONSE	n/a	n/a	n/a	n/a	n/a	n/a	n/a	yellow
22.7288	0.5167	FEEDBACK	n/a	n/a	n/a	n/a	n/a	n/a	n/a	n/a
23.2455	1.0167	ITI	n/a	n/a	n/a	n/a	n/a	n/a	n/a	n/a
24.2621	0.5167	FIXCROSS	n/a	n/a	n/a	n/a	n/a	n/a	n/a	n/a
24.7788	0.55	T_INK	8	Incongruent	żółty	yellow	czerwony	red	hit	n/a
25.2986	n/a	RESPONSE	n/a	n/a	n/a	n/a	n/a	n/a	n/a	red
25.3288	0.5167	FEEDBACK	n/a	n/a	n/a	n/a	n/a	n/a	n/a	n/a
25.8455	1.0167	ITI	n/a	n/a	n/a	n/a	n/a	n/a	n/a	n/a
26.8622	0.5167	FIXCROSS	n/a	n/a	n/a	n/a	n/a	n/a	n/a	n/a
27.3788	0.9167	T_INK	9	Incongruent	czerwony	red	żółty	yellow	hit	n/a
28.2712	n/a	RESPONSE	n/a	n/a	n/a	n/a	n/a	n/a	n/a	yellow
28.2955	0.5167	FEEDBACK	n/a	n/a	n/a	n/a	n/a	n/a	n/a	n/a
28.8122	1.0167	ITI	n/a	n/a	n/a	n/a	n/a	n/a	n/a	n/a
29.8289	0.5167	FIXCROSS	n/a	n/a	n/a	n/a	n/a	n/a	n/a	n/a
30.3455	0.7833	T_INK	10	Incongruent	niebieski	blue	zielony	green	hit	n/a
31.0998	n/a	RESPONSE	n/a	n/a	n/a	n/a	n/a	n/a	n/a	green
31.1289	0.5167	FEEDBACK	n/a	n/a	n/a	n/a	n/a	n/a	n/a	n/a
31.6455	1.0167	ITI	n/a	n/a	n/a	n/a	n/a	n/a	n/a	n/a
32.6622	0.5167	FIXCROSS	n/a	n/a	n/a	n/a	n/a	n/a	n/a	n/a
33.1789	0.8333	T_INK	11	Neutral	xxxxx	xxxxx	zielony	green	hit	n/a
33.9925	n/a	RESPONSE	n/a	n/a	n/a	n/a	n/a	n/a	n/a	green
34.0122	0.5167	FEEDBACK	n/a	n/a	n/a	n/a	n/a	n/a	n/a	n/a
34.5289	1.0167	ITI	n/a	n/a	n/a	n/a	n/a	n/a	n/a	n/a
35.5456	0.5167	FIXCROSS	n/a	n/a	n/a	n/a	n/a	n/a	n/a	n/a
36.0622	0.55	T_INK	12	Incongruent	zielony	green	niebieski	blue	hit	n/a
36.5815	n/a	RESPONSE	n/a	n/a	n/a	n/a	n/a	n/a	n/a	blue
36.6122	0.5167	FEEDBACK	n/a	n/a	n/a	n/a	n/a	n/a	n/a	n/a
37.1289	1.0333	ITI	n/a	n/a	n/a	n/a	n/a	n/a	n/a	n/a
40.369	n/a	RESPONSE	n/a	n/a	n/a	n/a	n/a	n/a	n/a	n/a
40.4289	1.0167	ITI	n/a	n/a	n/a	n/a	n/a	n/a	n/a	n/a
41.4456	0.5167	FIXCROSS	n/a	n/a	n/a	n/a	n/a	n/a	n/a	n/a
41.9623	1.2167	INK	1	Incongruent	żółty	yellow	zielony	green	hit	n/a
43.1498	n/a	RESPONSE	n/a	n/a	n/a	n/a	n/a	n/a	n/a	green
43.179	1.0167	ITI	n/a	n/a	n/a	n/a	n/a	n/a	n/a	n/a
44.1956	0.5167	FIXCROSS	n/a	n/a	n/a	n/a	n/a	n/a	n/a	n/a
44.7123	0.7167	INK	2	Neutral	xxxxxxx	xxxxxxx	czerwony	red	hit	n/a
45.4032	n/a	RESPONSE	n/a	n/a	n/a	n/a	n/a	n/a	n/a	red
45.429	1.0167	ITI	n/a	n/a	n/a	n/a	n/a	n/a	n/a	n/a
46.4456	0.5167	FIXCROSS	n/a	n/a	n/a	n/a	n/a	n/a	n/a	n/a
46.9623	0.6333	INK	3	Neutral	xxxxx	xxxxx	czerwony	red	hit	n/a
47.5767	n/a	RESPONSE	n/a	n/a	n/a	n/a	n/a	n/a	n/a	red
47.5956	1.0167	ITI	n/a	n/a	n/a	n/a	n/a	n/a	n/a	n/a
48.6123	0.5167	FIXCROSS	n/a	n/a	n/a	n/a	n/a	n/a	n/a	n/a
49.129	0.6667	INK	4	Neutral	xxxxxxxxx	xxxxxxxxx	żółty	yellow	hit	n/a
49.7662	n/a	RESPONSE	n/a	n/a	n/a	n/a	n/a	n/a	n/a	yellow
49.7957	1.0167	ITI	n/a	n/a	n/a	n/a	n/a	n/a	n/a	n/a
50.8123	0.5167	FIXCROSS	n/a	n/a	n/a	n/a	n/a	n/a	n/a	n/a
51.329	0.6333	INK	5	Neutral	xxxxxxx	xxxxxxx	żółty	yellow	hit	n/a
51.9397	n/a	RESPONSE	n/a	n/a	n/a	n/a	n/a	n/a	n/a	yellow
51.9624	1.0167	ITI	n/a	n/a	n/a	n/a	n/a	n/a	n/a	n/a
52.979	0.5167	FIXCROSS	n/a	n/a	n/a	n/a	n/a	n/a	n/a	n/a
53.4957	0.6667	INK	6	Incongruent	czerwony	red	żółty	yellow	hit	n/a
54.1291	n/a	RESPONSE	n/a	n/a	n/a	n/a	n/a	n/a	n/a	yellow
54.1624	1.0167	ITI	n/a	n/a	n/a	n/a	n/a	n/a	n/a	n/a
55.179	0.5167	FIXCROSS	n/a	n/a	n/a	n/a	n/a	n/a	n/a	n/a
55.6957	0.6167	INK	7	Incongruent	żółty	yellow	czerwony	red	hit	n/a
56.2866	n/a	RESPONSE	n/a	n/a	n/a	n/a	n/a	n/a	n/a	red
56.3124	1.0167	ITI	n/a	n/a	n/a	n/a	n/a	n/a	n/a	n/a
57.3291	0.5167	FIXCROSS	n/a	n/a	n/a	n/a	n/a	n/a	n/a	n/a
57.8457	0.6333	INK	8	Incongruent	żółty	yellow	niebieski	blue	hit	n/a
58.46	n/a	RESPONSE	n/a	n/a	n/a	n/a	n/a	n/a	n/a	blue
58.4791	1.0167	ITI	n/a	n/a	n/a	n/a	n/a	n/a	n/a	n/a
59.4957	0.5167	FIXCROSS	n/a	n/a	n/a	n/a	n/a	n/a	n/a	n/a
60.0124	0.5333	INK	9	Incongruent	zielony	green	niebieski	blue	hit	n/a
60.5216	n/a	RESPONSE	n/a	n/a	n/a	n/a	n/a	n/a	n/a	blue
60.5457	1.0167	ITI	n/a	n/a	n/a	n/a	n/a	n/a	n/a	n/a
61.5624	0.5167	FIXCROSS	n/a	n/a	n/a	n/a	n/a	n/a	n/a	n/a
62.0791	1.0333	INK	10	Incongruent	zielony	green	żółty	yellow	hit	n/a
63.0787	n/a	RESPONSE	n/a	n/a	n/a	n/a	n/a	n/a	n/a	yellow
63.1124	1.0167	ITI	n/a	n/a	n/a	n/a	n/a	n/a	n/a	n/a
64.1291	0.5167	FIXCROSS	n/a	n/a	n/a	n/a	n/a	n/a	n/a	n/a
64.6458	0.55	INK	11	Neutral	xxxxxxxxx	xxxxxxxxx	czerwony	red	hit	n/a
65.1723	n/a	RESPONSE	n/a	n/a	n/a	n/a	n/a	n/a	n/a	red
65.1958	1.0167	ITI	n/a	n/a	n/a	n/a	n/a	n/a	n/a	n/a
66.2125	0.5167	FIXCROSS	n/a	n/a	n/a	n/a	n/a	n/a	n/a	n/a
66.7291	0.5333	INK	12	Incongruent	czerwony	red	żółty	yellow	hit	n/a
67.2337	n/a	RESPONSE	n/a	n/a	n/a	n/a	n/a	n/a	n/a	yellow
67.2625	1.0167	ITI	n/a	n/a	n/a	n/a	n/a	n/a	n/a	n/a
68.2791	0.5167	FIXCROSS	n/a	n/a	n/a	n/a	n/a	n/a	n/a	n/a
68.7958	0.5833	INK	13	Neutral	xxxxx	xxxxx	czerwony	red	hit	n/a
69.3593	n/a	RESPONSE	n/a	n/a	n/a	n/a	n/a	n/a	n/a	red
69.3792	1.0167	ITI	n/a	n/a	n/a	n/a	n/a	n/a	n/a	n/a
70.3958	0.5167	FIXCROSS	n/a	n/a	n/a	n/a	n/a	n/a	n/a	n/a
70.9125	0.4333	INK	14	Neutral	xxxxx	xxxxx	niebieski	blue	hit	n/a
71.3251	n/a	RESPONSE	n/a	n/a	n/a	n/a	n/a	n/a	n/a	blue
71.3458	1.0167	ITI	n/a	n/a	n/a	n/a	n/a	n/a	n/a	n/a
72.3625	0.5167	FIXCROSS	n/a	n/a	n/a	n/a	n/a	n/a	n/a	n/a
72.8792	0.7	INK	15	Incongruent	czerwony	red	niebieski	blue	hit	n/a
73.5464	n/a	RESPONSE	n/a	n/a	n/a	n/a	n/a	n/a	n/a	blue
73.5792	1.0167	ITI	n/a	n/a	n/a	n/a	n/a	n/a	n/a	n/a
74.5959	0.5167	FIXCROSS	n/a	n/a	n/a	n/a	n/a	n/a	n/a	n/a
75.1125	0.55	INK	16	Neutral	xxxxxxx	xxxxxxx	czerwony	red	hit	n/a
75.64	n/a	RESPONSE	n/a	n/a	n/a	n/a	n/a	n/a	n/a	red
75.6625	1.0167	ITI	n/a	n/a	n/a	n/a	n/a	n/a	n/a	n/a
76.6792	0.5167	FIXCROSS	n/a	n/a	n/a	n/a	n/a	n/a	n/a	n/a
77.1959	0.6833	INK	17	Incongruent	żółty	yellow	niebieski	blue	hit	n/a
77.8614	n/a	RESPONSE	n/a	n/a	n/a	n/a	n/a	n/a	n/a	blue
77.8792	1.0167	ITI	n/a	n/a	n/a	n/a	n/a	n/a	n/a	n/a
78.8959	0.5167	FIXCROSS	n/a	n/a	n/a	n/a	n/a	n/a	n/a	n/a
79.4126	0.5667	INK	18	Incongruent	czerwony	red	zielony	green	hit	n/a
79.955	n/a	RESPONSE	n/a	n/a	n/a	n/a	n/a	n/a	n/a	green
79.9792	1.0167	ITI	n/a	n/a	n/a	n/a	n/a	n/a	n/a	n/a
80.9959	0.5167	FIXCROSS	n/a	n/a	n/a	n/a	n/a	n/a	n/a	n/a
81.5126	0.6333	INK	19	Incongruent	zielony	green	czerwony	red	hit	n/a
82.1284	n/a	RESPONSE	n/a	n/a	n/a	n/a	n/a	n/a	n/a	red
82.1459	1.0167	ITI	n/a	n/a	n/a	n/a	n/a	n/a	n/a	n/a
83.1626	0.5167	FIXCROSS	n/a	n/a	n/a	n/a	n/a	n/a	n/a	n/a
83.6793	0.6	INK	20	Incongruent	żółty	yellow	czerwony	red	hit	n/a
84.2539	n/a	RESPONSE	n/a	n/a	n/a	n/a	n/a	n/a	n/a	red
84.2793	1.0167	ITI	n/a	n/a	n/a	n/a	n/a	n/a	n/a	n/a
85.2959	0.5167	FIXCROSS	n/a	n/a	n/a	n/a	n/a	n/a	n/a	n/a
85.8126	0.65	INK	21	Incongruent	niebieski	blue	zielony	green	hit	n/a
86.4433	n/a	RESPONSE	n/a	n/a	n/a	n/a	n/a	n/a	n/a	green
86.4626	1.0167	ITI	n/a	n/a	n/a	n/a	n/a	n/a	n/a	n/a
87.4793	0.5167	FIXCROSS	n/a	n/a	n/a	n/a	n/a	n/a	n/a	n/a
87.996	0.4333	INK	22	Incongruent	czerwony	red	niebieski	blue	hit	n/a
88.409	n/a	RESPONSE	n/a	n/a	n/a	n/a	n/a	n/a	n/a	blue
88.4293	1.0167	ITI	n/a	n/a	n/a	n/a	n/a	n/a	n/a	n/a
89.446	0.5167	FIXCROSS	n/a	n/a	n/a	n/a	n/a	n/a	n/a	n/a
89.9626	0.7167	INK	23	Neutral	xxxxxxx	xxxxxxx	żółty	yellow	hit	n/a
90.6465	n/a	RESPONSE	n/a	n/a	n/a	n/a	n/a	n/a	n/a	yellow
90.6793	1.0167	ITI	n/a	n/a	n/a	n/a	n/a	n/a	n/a	n/a
91.696	0.5167	FIXCROSS	n/a	n/a	n/a	n/a	n/a	n/a	n/a	n/a
92.2127	0.4333	INK	24	Neutral	xxxxxxxx	xxxxxxxx	niebieski	blue	hit	n/a
92.6281	n/a	RESPONSE	n/a	n/a	n/a	n/a	n/a	n/a	n/a	blue
92.646	1.0167	ITI	n/a	n/a	n/a	n/a	n/a	n/a	n/a	n/a
93.6627	0.5167	FIXCROSS	n/a	n/a	n/a	n/a	n/a	n/a	n/a	n/a
94.1793	0.75	INK	25	Incongruent	niebieski	blue	żółty	yellow	hit	n/a
94.8974	n/a	RESPONSE	n/a	n/a	n/a	n/a	n/a	n/a	n/a	yellow
94.9293	1.0167	ITI	n/a	n/a	n/a	n/a	n/a	n/a	n/a	n/a
95.946	0.5167	FIXCROSS	n/a	n/a	n/a	n/a	n/a	n/a	n/a	n/a
96.4627	0.45	INK	26	Neutral	xxxxx	xxxxx	niebieski	blue	hit	n/a
96.8951	n/a	RESPONSE	n/a	n/a	n/a	n/a	n/a	n/a	n/a	blue
96.9127	1.0167	ITI	n/a	n/a	n/a	n/a	n/a	n/a	n/a	n/a
97.9294	0.5167	FIXCROSS	n/a	n/a	n/a	n/a	n/a	n/a	n/a	n/a
98.446	0.6167	INK	27	Incongruent	czerwony	red	zielony	green	hit	n/a
99.0367	n/a	RESPONSE	n/a	n/a	n/a	n/a	n/a	n/a	n/a	green
99.0627	1.0167	ITI	n/a	n/a	n/a	n/a	n/a	n/a	n/a	n/a
100.0794	0.5167	FIXCROSS	n/a	n/a	n/a	n/a	n/a	n/a	n/a	n/a
100.5961	0.7333	INK	28	Incongruent	zielony	green	żółty	yellow	hit	n/a
101.3059	n/a	RESPONSE	n/a	n/a	n/a	n/a	n/a	n/a	n/a	yellow
101.3294	1.0167	ITI	n/a	n/a	n/a	n/a	n/a	n/a	n/a	n/a
102.3461	0.5167	FIXCROSS	n/a	n/a	n/a	n/a	n/a	n/a	n/a	n/a
102.8627	0.4333	INK	29	Incongruent	zielony	green	niebieski	blue	hit	n/a
103.2717	n/a	RESPONSE	n/a	n/a	n/a	n/a	n/a	n/a	n/a	blue
103.2961	1.0167	ITI	n/a	n/a	n/a	n/a	n/a	n/a	n/a	n/a
104.3127	0.5167	FIXCROSS	n/a	n/a	n/a	n/a	n/a	n/a	n/a	n/a
104.8294	0.8	INK	30	Neutral	xxxxxxxx	xxxxxxxx	zielony	green	hit	n/a
105.6049	n/a	RESPONSE	n/a	n/a	n/a	n/a	n/a	n/a	n/a	green
105.6294	1.0167	ITI	n/a	n/a	n/a	n/a	n/a	n/a	n/a	n/a
106.6461	0.5167	FIXCROSS	n/a	n/a	n/a	n/a	n/a	n/a	n/a	n/a
107.1628	0.6	INK	31	Incongruent	niebieski	blue	czerwony	red	hit	n/a
107.7305	n/a	RESPONSE	n/a	n/a	n/a	n/a	n/a	n/a	n/a	red
107.7628	1.0167	ITI	n/a	n/a	n/a	n/a	n/a	n/a	n/a	n/a
108.7795	0.5167	FIXCROSS	n/a	n/a	n/a	n/a	n/a	n/a	n/a	n/a
109.2961	0.7833	INK	32	Neutral	xxxxxxxxx	xxxxxxxxx	żółty	yellow	hit	n/a
110.0477	n/a	RESPONSE	n/a	n/a	n/a	n/a	n/a	n/a	n/a	yellow
110.0795	1.0167	ITI	n/a	n/a	n/a	n/a	n/a	n/a	n/a	n/a
111.0961	0.5167	FIXCROSS	n/a	n/a	n/a	n/a	n/a	n/a	n/a	n/a
111.6128	0.5667	INK	33	Neutral	xxxxxxx	xxxxxxx	niebieski	blue	hit	n/a
112.1573	n/a	RESPONSE	n/a	n/a	n/a	n/a	n/a	n/a	n/a	blue
112.1795	1.0167	ITI	n/a	n/a	n/a	n/a	n/a	n/a	n/a	n/a
113.1961	0.5167	FIXCROSS	n/a	n/a	n/a	n/a	n/a	n/a	n/a	n/a
113.7128	0.7667	INK	34	Neutral	xxxxxxxx	xxxxxxxx	zielony	green	hit	n/a
114.4585	n/a	RESPONSE	n/a	n/a	n/a	n/a	n/a	n/a	n/a	green
114.4795	1.0167	ITI	n/a	n/a	n/a	n/a	n/a	n/a	n/a	n/a
115.4962	0.5167	FIXCROSS	n/a	n/a	n/a	n/a	n/a	n/a	n/a	n/a
116.0128	0.75	INK	35	Neutral	xxxxxxxx	xxxxxxxx	żółty	yellow	hit	n/a
116.7439	n/a	RESPONSE	n/a	n/a	n/a	n/a	n/a	n/a	n/a	yellow
116.7628	1.0167	ITI	n/a	n/a	n/a	n/a	n/a	n/a	n/a	n/a
117.7795	0.5167	FIXCROSS	n/a	n/a	n/a	n/a	n/a	n/a	n/a	n/a
118.2962	0.65	INK	36	Incongruent	zielony	green	czerwony	red	hit	n/a
118.9173	n/a	RESPONSE	n/a	n/a	n/a	n/a	n/a	n/a	n/a	red
118.9462	1.0167	ITI	n/a	n/a	n/a	n/a	n/a	n/a	n/a	n/a
119.9629	0.5167	FIXCROSS	n/a	n/a	n/a	n/a	n/a	n/a	n/a	n/a
120.4795	0.7333	INK	37	Incongruent	niebieski	blue	zielony	green	hit	n/a
121.1867	n/a	RESPONSE	n/a	n/a	n/a	n/a	n/a	n/a	n/a	green
121.2129	1.0167	ITI	n/a	n/a	n/a	n/a	n/a	n/a	n/a	n/a
122.2296	0.5167	FIXCROSS	n/a	n/a	n/a	n/a	n/a	n/a	n/a	n/a
122.7462	0.8	INK	38	Neutral	xxxxx	xxxxx	zielony	green	hit	n/a
123.5199	n/a	RESPONSE	n/a	n/a	n/a	n/a	n/a	n/a	n/a	green
123.5462	1.0167	ITI	n/a	n/a	n/a	n/a	n/a	n/a	n/a	n/a
124.5629	0.5167	FIXCROSS	n/a	n/a	n/a	n/a	n/a	n/a	n/a	n/a
125.0796	0.6	INK	39	Neutral	xxxxxxx	xxxxxxx	żółty	yellow	hit	n/a
125.6614	n/a	RESPONSE	n/a	n/a	n/a	n/a	n/a	n/a	n/a	yellow
125.6796	1.0167	ITI	n/a	n/a	n/a	n/a	n/a	n/a	n/a	n/a
126.6963	0.5167	FIXCROSS	n/a	n/a	n/a	n/a	n/a	n/a	n/a	n/a
127.2129	0.7833	INK	40	Neutral	xxxxx	xxxxx	zielony	green	hit	n/a
127.9788	n/a	RESPONSE	n/a	n/a	n/a	n/a	n/a	n/a	n/a	green
127.9963	1.0167	ITI	n/a	n/a	n/a	n/a	n/a	n/a	n/a	n/a
129.0129	0.5167	FIXCROSS	n/a	n/a	n/a	n/a	n/a	n/a	n/a	n/a
129.5296	0.5667	INK	41	Neutral	xxxxx	xxxxx	czerwony	red	hit	n/a
130.0722	n/a	RESPONSE	n/a	n/a	n/a	n/a	n/a	n/a	n/a	red
130.0963	1.0167	ITI	n/a	n/a	n/a	n/a	n/a	n/a	n/a	n/a
131.1129	0.5167	FIXCROSS	n/a	n/a	n/a	n/a	n/a	n/a	n/a	n/a
131.6296	0.6	INK	42	Incongruent	niebieski	blue	żółty	yellow	hit	n/a
132.1978	n/a	RESPONSE	n/a	n/a	n/a	n/a	n/a	n/a	n/a	yellow
132.2296	1.0167	ITI	n/a	n/a	n/a	n/a	n/a	n/a	n/a	n/a
133.2463	0.5167	FIXCROSS	n/a	n/a	n/a	n/a	n/a	n/a	n/a	n/a
133.763	0.7167	INK	43	Incongruent	niebieski	blue	zielony	green	hit	n/a
134.4512	n/a	RESPONSE	n/a	n/a	n/a	n/a	n/a	n/a	n/a	green
134.4797	1.0167	ITI	n/a	n/a	n/a	n/a	n/a	n/a	n/a	n/a
135.4963	0.5167	FIXCROSS	n/a	n/a	n/a	n/a	n/a	n/a	n/a	n/a
136.013	0.5333	INK	44	Incongruent	żółty	yellow	zielony	green	hit	n/a
136.5127	n/a	RESPONSE	n/a	n/a	n/a	n/a	n/a	n/a	n/a	green
136.5463	1.0167	ITI	n/a	n/a	n/a	n/a	n/a	n/a	n/a	n/a
137.563	0.5167	FIXCROSS	n/a	n/a	n/a	n/a	n/a	n/a	n/a	n/a
138.0797	0.5667	INK	45	Incongruent	zielony	green	żółty	yellow	hit	n/a
138.6222	n/a	RESPONSE	n/a	n/a	n/a	n/a	n/a	n/a	n/a	yellow
138.6463	1.0167	ITI	n/a	n/a	n/a	n/a	n/a	n/a	n/a	n/a
139.663	0.5167	FIXCROSS	n/a	n/a	n/a	n/a	n/a	n/a	n/a	n/a
140.1797	0.55	INK	46	Neutral	xxxxxxxx	xxxxxxxx	żółty	yellow	hit	n/a
140.6999	n/a	RESPONSE	n/a	n/a	n/a	n/a	n/a	n/a	n/a	yellow
140.7297	1.0167	ITI	n/a	n/a	n/a	n/a	n/a	n/a	n/a	n/a
141.7464	0.5167	FIXCROSS	n/a	n/a	n/a	n/a	n/a	n/a	n/a	n/a
142.263	0.5333	INK	47	Neutral	xxxxxxxxx	xxxxxxxxx	zielony	green	hit	n/a
142.7773	n/a	RESPONSE	n/a	n/a	n/a	n/a	n/a	n/a	n/a	green
142.7964	1.0167	ITI	n/a	n/a	n/a	n/a	n/a	n/a	n/a	n/a
143.8131	0.5167	FIXCROSS	n/a	n/a	n/a	n/a	n/a	n/a	n/a	n/a
144.3297	0.4667	INK	48	Neutral	xxxxxxx	xxxxxxx	niebieski	blue	hit	n/a
144.7751	n/a	RESPONSE	n/a	n/a	n/a	n/a	n/a	n/a	n/a	blue
144.7964	1.0167	ITI	n/a	n/a	n/a	n/a	n/a	n/a	n/a	n/a
145.8131	0.5167	FIXCROSS	n/a	n/a	n/a	n/a	n/a	n/a	n/a	n/a
146.3297	0.5167	INK	49	Incongruent	niebieski	blue	czerwony	red	hit	n/a
146.8206	n/a	RESPONSE	n/a	n/a	n/a	n/a	n/a	n/a	n/a	red
146.8464	1.0167	ITI	n/a	n/a	n/a	n/a	n/a	n/a	n/a	n/a
147.8631	0.5167	FIXCROSS	n/a	n/a	n/a	n/a	n/a	n/a	n/a	n/a
148.3798	0.8333	INK	50	Neutral	xxxxxxxxx	xxxxxxxxx	zielony	green	hit	n/a
149.1859	n/a	RESPONSE	n/a	n/a	n/a	n/a	n/a	n/a	n/a	green
149.2131	1.0167	ITI	n/a	n/a	n/a	n/a	n/a	n/a	n/a	n/a
150.2298	0.5167	FIXCROSS	n/a	n/a	n/a	n/a	n/a	n/a	n/a	n/a
150.7464	0.8333	INK	51	Neutral	xxxxxxxxx	xxxxxxxxx	czerwony	red	hit	n/a
151.5511	n/a	RESPONSE	n/a	n/a	n/a	n/a	n/a	n/a	n/a	red
151.5798	1.0167	ITI	n/a	n/a	n/a	n/a	n/a	n/a	n/a	n/a
152.5965	0.5167	FIXCROSS	n/a	n/a	n/a	n/a	n/a	n/a	n/a	n/a
153.1131	0.7	INK	52	Neutral	xxxxxxxx	xxxxxxxx	zielony	green	hit	n/a
153.7886	n/a	RESPONSE	n/a	n/a	n/a	n/a	n/a	n/a	n/a	green
153.8131	1.0167	ITI	n/a	n/a	n/a	n/a	n/a	n/a	n/a	n/a
154.8298	0.5167	FIXCROSS	n/a	n/a	n/a	n/a	n/a	n/a	n/a	n/a
155.3465	0.5167	INK	53	Neutral	xxxxx	xxxxx	niebieski	blue	hit	n/a
155.8342	n/a	RESPONSE	n/a	n/a	n/a	n/a	n/a	n/a	n/a	blue
155.8631	1.0167	ITI	n/a	n/a	n/a	n/a	n/a	n/a	n/a	n/a
156.8798	0.5167	FIXCROSS	n/a	n/a	n/a	n/a	n/a	n/a	n/a	n/a
157.3965	0.4833	INK	54	Incongruent	czerwony	red	zielony	green	hit	n/a
157.8478	n/a	RESPONSE	n/a	n/a	n/a	n/a	n/a	n/a	n/a	green
157.8798	1.0167	ITI	n/a	n/a	n/a	n/a	n/a	n/a	n/a	n/a
158.8965	0.5167	FIXCROSS	n/a	n/a	n/a	n/a	n/a	n/a	n/a	n/a
159.4132	0.65	INK	55	Incongruent	czerwony	red	żółty	yellow	hit	n/a
160.0372	n/a	RESPONSE	n/a	n/a	n/a	n/a	n/a	n/a	n/a	yellow
160.0632	1.0167	ITI	n/a	n/a	n/a	n/a	n/a	n/a	n/a	n/a
161.0799	0.5167	FIXCROSS	n/a	n/a	n/a	n/a	n/a	n/a	n/a	n/a
161.5965	0.65	INK	56	Neutral	xxxxxxxxx	xxxxxxxxx	czerwony	red	hit	n/a
162.2267	n/a	RESPONSE	n/a	n/a	n/a	n/a	n/a	n/a	n/a	red
162.2465	1.0167	ITI	n/a	n/a	n/a	n/a	n/a	n/a	n/a	n/a
163.2632	0.5167	FIXCROSS	n/a	n/a	n/a	n/a	n/a	n/a	n/a	n/a
163.7799	0.7333	INK	57	Incongruent	zielony	green	czerwony	red	hit	n/a
164.4801	n/a	RESPONSE	n/a	n/a	n/a	n/a	n/a	n/a	n/a	red
164.5132	1.0167	ITI	n/a	n/a	n/a	n/a	n/a	n/a	n/a	n/a
165.5299	0.5167	FIXCROSS	n/a	n/a	n/a	n/a	n/a	n/a	n/a	n/a
166.0466	0.5667	INK	58	Incongruent	czerwony	red	niebieski	blue	hit	n/a
166.5896	n/a	RESPONSE	n/a	n/a	n/a	n/a	n/a	n/a	n/a	blue
166.6132	1.0167	ITI	n/a	n/a	n/a	n/a	n/a	n/a	n/a	n/a
167.6299	0.5167	FIXCROSS	n/a	n/a	n/a	n/a	n/a	n/a	n/a	n/a
168.1466	0.5833	INK	59	Neutral	xxxxxxxxx	xxxxxxxxx	żółty	yellow	hit	n/a
168.699	n/a	RESPONSE	n/a	n/a	n/a	n/a	n/a	n/a	n/a	yellow
168.7299	1.0167	ITI	n/a	n/a	n/a	n/a	n/a	n/a	n/a	n/a
169.7466	0.5167	FIXCROSS	n/a	n/a	n/a	n/a	n/a	n/a	n/a	n/a
170.2633	0.5333	INK	60	Incongruent	żółty	yellow	niebieski	blue	hit	n/a
170.7765	n/a	RESPONSE	n/a	n/a	n/a	n/a	n/a	n/a	n/a	blue
170.7966	1.0167	ITI	n/a	n/a	n/a	n/a	n/a	n/a	n/a	n/a
171.8133	0.5167	FIXCROSS	n/a	n/a	n/a	n/a	n/a	n/a	n/a	n/a
172.3299	0.6167	INK	61	Incongruent	zielony	green	niebieski	blue	hit	n/a
172.918	n/a	RESPONSE	n/a	n/a	n/a	n/a	n/a	n/a	n/a	blue
172.9466	1.0167	ITI	n/a	n/a	n/a	n/a	n/a	n/a	n/a	n/a
173.9633	0.5167	FIXCROSS	n/a	n/a	n/a	n/a	n/a	n/a	n/a	n/a
174.4799	0.5333	INK	62	Neutral	xxxxxxxx	xxxxxxxx	niebieski	blue	hit	n/a
174.9956	n/a	RESPONSE	n/a	n/a	n/a	n/a	n/a	n/a	n/a	blue
175.0133	1.0167	ITI	n/a	n/a	n/a	n/a	n/a	n/a	n/a	n/a
176.03	0.5167	FIXCROSS	n/a	n/a	n/a	n/a	n/a	n/a	n/a	n/a
176.5466	0.4167	INK	63	Neutral	xxxxxxxx	xxxxxxxx	niebieski	blue	hit	n/a
176.9453	n/a	RESPONSE	n/a	n/a	n/a	n/a	n/a	n/a	n/a	blue
176.9633	1.0167	ITI	n/a	n/a	n/a	n/a	n/a	n/a	n/a	n/a
177.98	0.5167	FIXCROSS	n/a	n/a	n/a	n/a	n/a	n/a	n/a	n/a
178.4966	0.7167	INK	64	Neutral	xxxxxxx	xxxxxxx	czerwony	red	hit	n/a
179.1828	n/a	RESPONSE	n/a	n/a	n/a	n/a	n/a	n/a	n/a	red
179.2133	1.0167	ITI	n/a	n/a	n/a	n/a	n/a	n/a	n/a	n/a
180.23	0.5167	FIXCROSS	n/a	n/a	n/a	n/a	n/a	n/a	n/a	n/a
180.7467	0.6333	INK	65	Incongruent	niebieski	blue	żółty	yellow	hit	n/a
181.3562	n/a	RESPONSE	n/a	n/a	n/a	n/a	n/a	n/a	n/a	yellow
181.38	1.0167	ITI	n/a	n/a	n/a	n/a	n/a	n/a	n/a	n/a
182.3967	0.5167	FIXCROSS	n/a	n/a	n/a	n/a	n/a	n/a	n/a	n/a
182.9133	0.8167	INK	66	Neutral	xxxxxxxxx	xxxxxxxxx	zielony	green	hit	n/a
183.7055	n/a	RESPONSE	n/a	n/a	n/a	n/a	n/a	n/a	n/a	green
183.73	1.0167	ITI	n/a	n/a	n/a	n/a	n/a	n/a	n/a	n/a
184.7467	0.5167	FIXCROSS	n/a	n/a	n/a	n/a	n/a	n/a	n/a	n/a
185.2634	0.4333	INK	67	Incongruent	żółty	yellow	zielony	green	hit	n/a
185.6712	n/a	RESPONSE	n/a	n/a	n/a	n/a	n/a	n/a	n/a	green
185.6967	1.0167	ITI	n/a	n/a	n/a	n/a	n/a	n/a	n/a	n/a
186.7134	0.5167	FIXCROSS	n/a	n/a	n/a	n/a	n/a	n/a	n/a	n/a
187.23	0.65	INK	68	Incongruent	żółty	yellow	czerwony	red	hit	n/a
187.8607	n/a	RESPONSE	n/a	n/a	n/a	n/a	n/a	n/a	n/a	red
187.88	1.0167	ITI	n/a	n/a	n/a	n/a	n/a	n/a	n/a	n/a
188.8967	0.5167	FIXCROSS	n/a	n/a	n/a	n/a	n/a	n/a	n/a	n/a
189.4134	0.6167	INK	69	Neutral	xxxxxxxx	xxxxxxxx	żółty	yellow	hit	n/a
190.002	n/a	RESPONSE	n/a	n/a	n/a	n/a	n/a	n/a	n/a	yellow
190.0301	1.0167	ITI	n/a	n/a	n/a	n/a	n/a	n/a	n/a	n/a
191.0467	0.5167	FIXCROSS	n/a	n/a	n/a	n/a	n/a	n/a	n/a	n/a
191.5634	0.6667	INK	70	Neutral	xxxxx	xxxxx	zielony	green	hit	n/a
192.2075	n/a	RESPONSE	n/a	n/a	n/a	n/a	n/a	n/a	n/a	green
192.2301	1.0167	ITI	n/a	n/a	n/a	n/a	n/a	n/a	n/a	n/a
193.2467	0.5167	FIXCROSS	n/a	n/a	n/a	n/a	n/a	n/a	n/a	n/a
193.7634	0.6333	INK	71	Incongruent	niebieski	blue	czerwony	red	hit	n/a
194.365	n/a	RESPONSE	n/a	n/a	n/a	n/a	n/a	n/a	n/a	red
194.3968	1.0167	ITI	n/a	n/a	n/a	n/a	n/a	n/a	n/a	n/a
195.4134	0.5167	FIXCROSS	n/a	n/a	n/a	n/a	n/a	n/a	n/a	n/a
195.9301	0.5	INK	72	Neutral	xxxxxxx	xxxxxxx	niebieski	blue	hit	n/a
196.4106	n/a	RESPONSE	n/a	n/a	n/a	n/a	n/a	n/a	n/a	blue
196.4301	1.0833	ITI	n/a	n/a	n/a	n/a	n/a	n/a	n/a	n/a
219.5996	n/a	RESPONSE	n/a	n/a	n/a	n/a	n/a	n/a	n/a	n/a
219.6636	1.0167	ITI	n/a	n/a	n/a	n/a	n/a	n/a	n/a	n/a
220.6803	0.5167	FIXCROSS	n/a	n/a	n/a	n/a	n/a	n/a	n/a	n/a
221.197	0.9833	T_COLOR_NAME	1	Incongruent	zielony	green	żółty	yellow	hit	n/a
222.1568	n/a	RESPONSE	n/a	n/a	n/a	n/a	n/a	n/a	n/a	green
222.1803	0.5167	FEEDBACK	n/a	n/a	n/a	n/a	n/a	n/a	n/a	n/a
222.697	1.0167	ITI	n/a	n/a	n/a	n/a	n/a	n/a	n/a	n/a
223.7136	0.5167	FIXCROSS	n/a	n/a	n/a	n/a	n/a	n/a	n/a	n/a
224.2303	0.7833	T_COLOR_NAME	2	Incongruent	zielony	green	czerwony	red	hit	n/a
224.9854	n/a	RESPONSE	n/a	n/a	n/a	n/a	n/a	n/a	n/a	green
225.0137	0.5167	FEEDBACK	n/a	n/a	n/a	n/a	n/a	n/a	n/a	n/a
225.5303	1.0167	ITI	n/a	n/a	n/a	n/a	n/a	n/a	n/a	n/a
226.547	0.5167	FIXCROSS	n/a	n/a	n/a	n/a	n/a	n/a	n/a	n/a
227.0637	0.9167	T_COLOR_NAME	3	Incongruent	czerwony	red	zielony	green	hit	n/a
227.9581	n/a	RESPONSE	n/a	n/a	n/a	n/a	n/a	n/a	n/a	red
227.9803	0.5167	FEEDBACK	n/a	n/a	n/a	n/a	n/a	n/a	n/a	n/a
228.497	1.0167	ITI	n/a	n/a	n/a	n/a	n/a	n/a	n/a	n/a
229.5137	0.5167	FIXCROSS	n/a	n/a	n/a	n/a	n/a	n/a	n/a	n/a
230.0304	0.6833	T_COLOR_NAME	4	Neutral	czerwony	red	Neutral	Neutral	hit	n/a
230.6909	n/a	RESPONSE	n/a	n/a	n/a	n/a	n/a	n/a	n/a	red
230.7137	0.5167	FEEDBACK	n/a	n/a	n/a	n/a	n/a	n/a	n/a	n/a
231.2304	1.0167	ITI	n/a	n/a	n/a	n/a	n/a	n/a	n/a	n/a
232.247	0.5167	FIXCROSS	n/a	n/a	n/a	n/a	n/a	n/a	n/a	n/a
232.7637	0.8333	T_COLOR_NAME	5	Neutral	żółty	yellow	Neutral	Neutral	hit	n/a
233.5676	n/a	RESPONSE	n/a	n/a	n/a	n/a	n/a	n/a	n/a	yellow
233.5971	0.5167	FEEDBACK	n/a	n/a	n/a	n/a	n/a	n/a	n/a	n/a
234.1137	1.0167	ITI	n/a	n/a	n/a	n/a	n/a	n/a	n/a	n/a
235.1304	0.5167	FIXCROSS	n/a	n/a	n/a	n/a	n/a	n/a	n/a	n/a
235.6471	1.2	T_COLOR_NAME	6	Incongruent	zielony	green	niebieski	blue	hit	n/a
236.828	n/a	RESPONSE	n/a	n/a	n/a	n/a	n/a	n/a	n/a	green
236.8471	0.5167	FEEDBACK	n/a	n/a	n/a	n/a	n/a	n/a	n/a	n/a
237.3638	1.0167	ITI	n/a	n/a	n/a	n/a	n/a	n/a	n/a	n/a
238.3804	0.5167	FIXCROSS	n/a	n/a	n/a	n/a	n/a	n/a	n/a	n/a
238.8971	0.8334	T_COLOR_NAME	7	Neutral	niebieski	blue	Neutral	Neutral	hit	n/a
239.7047	n/a	RESPONSE	n/a	n/a	n/a	n/a	n/a	n/a	n/a	blue
239.7304	0.5167	FEEDBACK	n/a	n/a	n/a	n/a	n/a	n/a	n/a	n/a
240.2471	1.0167	ITI	n/a	n/a	n/a	n/a	n/a	n/a	n/a	n/a
241.2638	0.5167	FIXCROSS	n/a	n/a	n/a	n/a	n/a	n/a	n/a	n/a
241.7804	0.9	T_COLOR_NAME	8	Incongruent	żółty	yellow	czerwony	red	hit	n/a
242.6612	n/a	RESPONSE	n/a	n/a	n/a	n/a	n/a	n/a	n/a	yellow
242.6804	0.5167	FEEDBACK	n/a	n/a	n/a	n/a	n/a	n/a	n/a	n/a
243.1971	1.0167	ITI	n/a	n/a	n/a	n/a	n/a	n/a	n/a	n/a
244.2138	0.5167	FIXCROSS	n/a	n/a	n/a	n/a	n/a	n/a	n/a	n/a
244.7305	0.75	T_COLOR_NAME	9	Incongruent	czerwony	red	żółty	yellow	hit	n/a
245.4579	n/a	RESPONSE	n/a	n/a	n/a	n/a	n/a	n/a	n/a	red
245.4805	0.5167	FEEDBACK	n/a	n/a	n/a	n/a	n/a	n/a	n/a	n/a
245.9971	1.0167	ITI	n/a	n/a	n/a	n/a	n/a	n/a	n/a	n/a
247.0138	0.5167	FIXCROSS	n/a	n/a	n/a	n/a	n/a	n/a	n/a	n/a
247.5305	1.0	T_COLOR_NAME	10	Neutral	zielony	green	Neutral	Neutral	hit	n/a
248.5106	n/a	RESPONSE	n/a	n/a	n/a	n/a	n/a	n/a	n/a	green
248.5305	0.5167	FEEDBACK	n/a	n/a	n/a	n/a	n/a	n/a	n/a	n/a
249.0472	1.0167	ITI	n/a	n/a	n/a	n/a	n/a	n/a	n/a	n/a
250.0638	0.5167	FIXCROSS	n/a	n/a	n/a	n/a	n/a	n/a	n/a	n/a
250.5805	0.7833	T_COLOR_NAME	11	Incongruent	niebieski	blue	zielony	green	hit	n/a
251.3393	n/a	RESPONSE	n/a	n/a	n/a	n/a	n/a	n/a	n/a	blue
251.3639	0.5167	FEEDBACK	n/a	n/a	n/a	n/a	n/a	n/a	n/a	n/a
251.8805	1.0167	ITI	n/a	n/a	n/a	n/a	n/a	n/a	n/a	n/a
252.8972	0.5167	FIXCROSS	n/a	n/a	n/a	n/a	n/a	n/a	n/a	n/a
253.4139	0.75	T_COLOR_NAME	12	Incongruent	żółty	yellow	niebieski	blue	hit	n/a
254.1361	n/a	RESPONSE	n/a	n/a	n/a	n/a	n/a	n/a	n/a	yellow
254.1639	0.5167	FEEDBACK	n/a	n/a	n/a	n/a	n/a	n/a	n/a	n/a
254.6805	1.0333	ITI	n/a	n/a	n/a	n/a	n/a	n/a	n/a	n/a
257.764	n/a	RESPONSE	n/a	n/a	n/a	n/a	n/a	n/a	n/a	n/a
257.8306	1.0167	ITI	n/a	n/a	n/a	n/a	n/a	n/a	n/a	n/a
258.8472	0.5167	FIXCROSS	n/a	n/a	n/a	n/a	n/a	n/a	n/a	n/a
259.3639	0.7333	COLOR_NAME	1	Incongruent	żółty	yellow	czerwony	red	hit	n/a
260.0653	n/a	RESPONSE	n/a	n/a	n/a	n/a	n/a	n/a	n/a	yellow
260.0972	1.0167	ITI	n/a	n/a	n/a	n/a	n/a	n/a	n/a	n/a
261.1139	0.5167	FIXCROSS	n/a	n/a	n/a	n/a	n/a	n/a	n/a	n/a
261.6306	0.6834	COLOR_NAME	2	Neutral	żółty	yellow	Neutral	Neutral	hit	n/a
262.2868	n/a	RESPONSE	n/a	n/a	n/a	n/a	n/a	n/a	n/a	yellow
262.3139	1.0167	ITI	n/a	n/a	n/a	n/a	n/a	n/a	n/a	n/a
263.3306	0.5167	FIXCROSS	n/a	n/a	n/a	n/a	n/a	n/a	n/a	n/a
263.8473	0.85	COLOR_NAME	3	Incongruent	zielony	green	żółty	yellow	hit	n/a
264.6681	n/a	RESPONSE	n/a	n/a	n/a	n/a	n/a	n/a	n/a	green
264.6973	1.0167	ITI	n/a	n/a	n/a	n/a	n/a	n/a	n/a	n/a
265.714	0.5167	FIXCROSS	n/a	n/a	n/a	n/a	n/a	n/a	n/a	n/a
266.2306	1.05	COLOR_NAME	4	Incongruent	żółty	yellow	niebieski	blue	hit	n/a
267.2571	n/a	RESPONSE	n/a	n/a	n/a	n/a	n/a	n/a	n/a	yellow
267.2806	1.0167	ITI	n/a	n/a	n/a	n/a	n/a	n/a	n/a	n/a
268.2973	0.5167	FIXCROSS	n/a	n/a	n/a	n/a	n/a	n/a	n/a	n/a
268.814	0.55	COLOR_NAME	5	Incongruent	żółty	yellow	zielony	green	hit	n/a
269.3347	n/a	RESPONSE	n/a	n/a	n/a	n/a	n/a	n/a	n/a	yellow
269.364	1.0167	ITI	n/a	n/a	n/a	n/a	n/a	n/a	n/a	n/a
270.3807	0.5167	FIXCROSS	n/a	n/a	n/a	n/a	n/a	n/a	n/a	n/a
270.8973	0.5167	COLOR_NAME	6	Neutral	niebieski	blue	Neutral	Neutral	hit	n/a
271.3804	n/a	RESPONSE	n/a	n/a	n/a	n/a	n/a	n/a	n/a	blue
271.414	1.0167	ITI	n/a	n/a	n/a	n/a	n/a	n/a	n/a	n/a
272.4307	0.5167	FIXCROSS	n/a	n/a	n/a	n/a	n/a	n/a	n/a	n/a
272.9473	0.6333	COLOR_NAME	7	Neutral	czerwony	red	Neutral	Neutral	hit	n/a
273.5539	n/a	RESPONSE	n/a	n/a	n/a	n/a	n/a	n/a	n/a	red
273.5807	1.0167	ITI	n/a	n/a	n/a	n/a	n/a	n/a	n/a	n/a
274.5973	0.5167	FIXCROSS	n/a	n/a	n/a	n/a	n/a	n/a	n/a	n/a
275.114	0.7667	COLOR_NAME	8	Neutral	czerwony	red	Neutral	Neutral	hit	n/a
275.8552	n/a	RESPONSE	n/a	n/a	n/a	n/a	n/a	n/a	n/a	red
275.8807	1.0167	ITI	n/a	n/a	n/a	n/a	n/a	n/a	n/a	n/a
276.8974	0.5167	FIXCROSS	n/a	n/a	n/a	n/a	n/a	n/a	n/a	n/a
277.414	0.6833	COLOR_NAME	9	Neutral	niebieski	blue	Neutral	Neutral	hit	n/a
278.0767	n/a	RESPONSE	n/a	n/a	n/a	n/a	n/a	n/a	n/a	blue
278.0974	1.0167	ITI	n/a	n/a	n/a	n/a	n/a	n/a	n/a	n/a
279.114	0.5167	FIXCROSS	n/a	n/a	n/a	n/a	n/a	n/a	n/a	n/a
279.6307	0.8833	COLOR_NAME	10	Incongruent	zielony	green	czerwony	red	hit	n/a
280.4899	n/a	RESPONSE	n/a	n/a	n/a	n/a	n/a	n/a	n/a	green
280.5141	1.0167	ITI	n/a	n/a	n/a	n/a	n/a	n/a	n/a	n/a
281.5307	0.5167	FIXCROSS	n/a	n/a	n/a	n/a	n/a	n/a	n/a	n/a
282.0474	0.7167	COLOR_NAME	11	Neutral	czerwony	red	Neutral	Neutral	hit	n/a
282.7434	n/a	RESPONSE	n/a	n/a	n/a	n/a	n/a	n/a	n/a	red
282.7641	1.0167	ITI	n/a	n/a	n/a	n/a	n/a	n/a	n/a	n/a
283.7807	0.5167	FIXCROSS	n/a	n/a	n/a	n/a	n/a	n/a	n/a	n/a
284.2974	0.65	COLOR_NAME	12	Incongruent	żółty	yellow	zielony	green	hit	n/a
284.9169	n/a	RESPONSE	n/a	n/a	n/a	n/a	n/a	n/a	n/a	yellow
284.9474	1.0167	ITI	n/a	n/a	n/a	n/a	n/a	n/a	n/a	n/a
285.9641	0.5167	FIXCROSS	n/a	n/a	n/a	n/a	n/a	n/a	n/a	n/a
286.4808	0.6667	COLOR_NAME	13	Incongruent	niebieski	blue	zielony	green	hit	n/a
287.1223	n/a	RESPONSE	n/a	n/a	n/a	n/a	n/a	n/a	n/a	blue
287.1474	1.0167	ITI	n/a	n/a	n/a	n/a	n/a	n/a	n/a	n/a
288.1641	0.5167	FIXCROSS	n/a	n/a	n/a	n/a	n/a	n/a	n/a	n/a
288.6808	0.6167	COLOR_NAME	14	Incongruent	żółty	yellow	czerwony	red	hit	n/a
289.264	n/a	RESPONSE	n/a	n/a	n/a	n/a	n/a	n/a	n/a	yellow
289.2975	1.0167	ITI	n/a	n/a	n/a	n/a	n/a	n/a	n/a	n/a
290.3141	0.5167	FIXCROSS	n/a	n/a	n/a	n/a	n/a	n/a	n/a	n/a
290.8308	0.6667	COLOR_NAME	15	Incongruent	niebieski	blue	zielony	green	hit	n/a
291.4695	n/a	RESPONSE	n/a	n/a	n/a	n/a	n/a	n/a	n/a	blue
291.4975	1.0167	ITI	n/a	n/a	n/a	n/a	n/a	n/a	n/a	n/a
292.5141	0.5167	FIXCROSS	n/a	n/a	n/a	n/a	n/a	n/a	n/a	n/a
293.0308	0.7167	COLOR_NAME	16	Neutral	czerwony	red	Neutral	Neutral	hit	n/a
293.7229	n/a	RESPONSE	n/a	n/a	n/a	n/a	n/a	n/a	n/a	red
293.7475	1.0167	ITI	n/a	n/a	n/a	n/a	n/a	n/a	n/a	n/a
294.7642	0.5167	FIXCROSS	n/a	n/a	n/a	n/a	n/a	n/a	n/a	n/a
295.2808	0.6167	COLOR_NAME	17	Incongruent	czerwony	red	zielony	green	hit	n/a
295.8644	n/a	RESPONSE	n/a	n/a	n/a	n/a	n/a	n/a	n/a	red
295.8975	1.0167	ITI	n/a	n/a	n/a	n/a	n/a	n/a	n/a	n/a
296.9142	0.5167	FIXCROSS	n/a	n/a	n/a	n/a	n/a	n/a	n/a	n/a
297.4309	0.9833	COLOR_NAME	18	Incongruent	czerwony	red	żółty	yellow	hit	n/a
298.3895	n/a	RESPONSE	n/a	n/a	n/a	n/a	n/a	n/a	n/a	red
298.4142	1.0167	ITI	n/a	n/a	n/a	n/a	n/a	n/a	n/a	n/a
299.4309	0.5167	FIXCROSS	n/a	n/a	n/a	n/a	n/a	n/a	n/a	n/a
299.9475	0.6	COLOR_NAME	19	Incongruent	czerwony	red	żółty	yellow	hit	n/a
300.5151	n/a	RESPONSE	n/a	n/a	n/a	n/a	n/a	n/a	n/a	red
300.5475	1.0167	ITI	n/a	n/a	n/a	n/a	n/a	n/a	n/a	n/a
301.5642	0.5167	FIXCROSS	n/a	n/a	n/a	n/a	n/a	n/a	n/a	n/a
302.0809	0.7	COLOR_NAME	20	Neutral	niebieski	blue	Neutral	Neutral	hit	n/a
302.7525	n/a	RESPONSE	n/a	n/a	n/a	n/a	n/a	n/a	n/a	blue
302.7809	1.0167	ITI	n/a	n/a	n/a	n/a	n/a	n/a	n/a	n/a
303.7976	0.5167	FIXCROSS	n/a	n/a	n/a	n/a	n/a	n/a	n/a	n/a
304.3142	0.9333	COLOR_NAME	21	Neutral	zielony	green	Neutral	Neutral	hit	n/a
305.2137	n/a	RESPONSE	n/a	n/a	n/a	n/a	n/a	n/a	n/a	green
305.2476	1.0167	ITI	n/a	n/a	n/a	n/a	n/a	n/a	n/a	n/a
306.2642	0.5167	FIXCROSS	n/a	n/a	n/a	n/a	n/a	n/a	n/a	n/a
306.7809	0.6833	COLOR_NAME	22	Neutral	niebieski	blue	Neutral	Neutral	hit	n/a
307.4352	n/a	RESPONSE	n/a	n/a	n/a	n/a	n/a	n/a	n/a	blue
307.4643	1.0167	ITI	n/a	n/a	n/a	n/a	n/a	n/a	n/a	n/a
308.4809	0.5167	FIXCROSS	n/a	n/a	n/a	n/a	n/a	n/a	n/a	n/a
308.9976	0.6333	COLOR_NAME	23	Neutral	czerwony	red	Neutral	Neutral	hit	n/a
309.6087	n/a	RESPONSE	n/a	n/a	n/a	n/a	n/a	n/a	n/a	red
309.6309	1.0167	ITI	n/a	n/a	n/a	n/a	n/a	n/a	n/a	n/a
310.6476	0.5167	FIXCROSS	n/a	n/a	n/a	n/a	n/a	n/a	n/a	n/a
311.1643	0.8	COLOR_NAME	24	Incongruent	żółty	yellow	zielony	green	hit	n/a
311.9422	n/a	RESPONSE	n/a	n/a	n/a	n/a	n/a	n/a	n/a	yellow
311.9643	1.0167	ITI	n/a	n/a	n/a	n/a	n/a	n/a	n/a	n/a
312.981	0.5167	FIXCROSS	n/a	n/a	n/a	n/a	n/a	n/a	n/a	n/a
313.4976	0.8333	COLOR_NAME	25	Neutral	zielony	green	Neutral	Neutral	hit	n/a
314.3074	n/a	RESPONSE	n/a	n/a	n/a	n/a	n/a	n/a	n/a	green
314.331	1.0167	ITI	n/a	n/a	n/a	n/a	n/a	n/a	n/a	n/a
315.3476	0.5167	FIXCROSS	n/a	n/a	n/a	n/a	n/a	n/a	n/a	n/a
315.8643	0.6833	COLOR_NAME	26	Neutral	żółty	yellow	Neutral	Neutral	hit	n/a
316.5288	n/a	RESPONSE	n/a	n/a	n/a	n/a	n/a	n/a	n/a	yellow
316.5477	1.0167	ITI	n/a	n/a	n/a	n/a	n/a	n/a	n/a	n/a
317.5643	0.5167	FIXCROSS	n/a	n/a	n/a	n/a	n/a	n/a	n/a	n/a
318.081	0.6	COLOR_NAME	27	Incongruent	niebieski	blue	czerwony	red	hit	n/a
318.6544	n/a	RESPONSE	n/a	n/a	n/a	n/a	n/a	n/a	n/a	blue
318.681	1.0167	ITI	n/a	n/a	n/a	n/a	n/a	n/a	n/a	n/a
319.6977	0.5167	FIXCROSS	n/a	n/a	n/a	n/a	n/a	n/a	n/a	n/a
320.2144	0.5667	COLOR_NAME	28	Neutral	niebieski	blue	Neutral	Neutral	hit	n/a
320.7481	n/a	RESPONSE	n/a	n/a	n/a	n/a	n/a	n/a	n/a	blue
320.781	1.0167	ITI	n/a	n/a	n/a	n/a	n/a	n/a	n/a	n/a
321.7977	0.5167	FIXCROSS	n/a	n/a	n/a	n/a	n/a	n/a	n/a	n/a
322.3144	0.6167	COLOR_NAME	29	Neutral	czerwony	red	Neutral	Neutral	hit	n/a
322.9056	n/a	RESPONSE	n/a	n/a	n/a	n/a	n/a	n/a	n/a	red
322.931	1.0167	ITI	n/a	n/a	n/a	n/a	n/a	n/a	n/a	n/a
323.9477	0.5167	FIXCROSS	n/a	n/a	n/a	n/a	n/a	n/a	n/a	n/a
324.4644	0.8333	COLOR_NAME	30	Incongruent	żółty	yellow	niebieski	blue	hit	n/a
325.2708	n/a	RESPONSE	n/a	n/a	n/a	n/a	n/a	n/a	n/a	yellow
325.2977	1.0167	ITI	n/a	n/a	n/a	n/a	n/a	n/a	n/a	n/a
326.3144	0.5167	FIXCROSS	n/a	n/a	n/a	n/a	n/a	n/a	n/a	n/a
326.8311	0.6	COLOR_NAME	31	Neutral	żółty	yellow	Neutral	Neutral	hit	n/a
327.4124	n/a	RESPONSE	n/a	n/a	n/a	n/a	n/a	n/a	n/a	yellow
327.4311	1.0167	ITI	n/a	n/a	n/a	n/a	n/a	n/a	n/a	n/a
328.4477	0.5167	FIXCROSS	n/a	n/a	n/a	n/a	n/a	n/a	n/a	n/a
328.9644	0.7667	COLOR_NAME	32	Incongruent	czerwony	red	niebieski	blue	hit	n/a
329.6978	n/a	RESPONSE	n/a	n/a	n/a	n/a	n/a	n/a	n/a	red
329.7311	1.0167	ITI	n/a	n/a	n/a	n/a	n/a	n/a	n/a	n/a
330.7478	0.5167	FIXCROSS	n/a	n/a	n/a	n/a	n/a	n/a	n/a	n/a
331.2644	0.65	COLOR_NAME	33	Incongruent	czerwony	red	niebieski	blue	hit	n/a
331.8873	n/a	RESPONSE	n/a	n/a	n/a	n/a	n/a	n/a	n/a	red
331.9144	1.0167	ITI	n/a	n/a	n/a	n/a	n/a	n/a	n/a	n/a
332.9311	0.5167	FIXCROSS	n/a	n/a	n/a	n/a	n/a	n/a	n/a	n/a
333.4478	0.6	COLOR_NAME	34	Incongruent	niebieski	blue	czerwony	red	hit	n/a
334.0289	n/a	RESPONSE	n/a	n/a	n/a	n/a	n/a	n/a	n/a	blue
334.0478	1.0167	ITI	n/a	n/a	n/a	n/a	n/a	n/a	n/a	n/a
335.0645	0.5167	FIXCROSS	n/a	n/a	n/a	n/a	n/a	n/a	n/a	n/a
335.5811	0.7333	COLOR_NAME	35	Neutral	czerwony	red	Neutral	Neutral	hit	n/a
336.2823	n/a	RESPONSE	n/a	n/a	n/a	n/a	n/a	n/a	n/a	red
336.3145	1.0167	ITI	n/a	n/a	n/a	n/a	n/a	n/a	n/a	n/a
337.3311	0.5167	FIXCROSS	n/a	n/a	n/a	n/a	n/a	n/a	n/a	n/a
337.8478	0.6167	COLOR_NAME	36	Neutral	żółty	yellow	Neutral	Neutral	hit	n/a
338.4399	n/a	RESPONSE	n/a	n/a	n/a	n/a	n/a	n/a	n/a	yellow
338.4645	1.0167	ITI	n/a	n/a	n/a	n/a	n/a	n/a	n/a	n/a
339.4811	0.5167	FIXCROSS	n/a	n/a	n/a	n/a	n/a	n/a	n/a	n/a
339.9978	0.7334	COLOR_NAME	37	Neutral	żółty	yellow	Neutral	Neutral	hit	n/a
340.7092	n/a	RESPONSE	n/a	n/a	n/a	n/a	n/a	n/a	n/a	yellow
340.7312	1.0167	ITI	n/a	n/a	n/a	n/a	n/a	n/a	n/a	n/a
341.7478	0.5167	FIXCROSS	n/a	n/a	n/a	n/a	n/a	n/a	n/a	n/a
342.2645	0.7	COLOR_NAME	38	Neutral	czerwony	red	Neutral	Neutral	hit	n/a
342.9468	n/a	RESPONSE	n/a	n/a	n/a	n/a	n/a	n/a	n/a	red
342.9645	1.0167	ITI	n/a	n/a	n/a	n/a	n/a	n/a	n/a	n/a
343.9812	0.5167	FIXCROSS	n/a	n/a	n/a	n/a	n/a	n/a	n/a	n/a
344.4979	0.8167	COLOR_NAME	39	Neutral	zielony	green	Neutral	Neutral	hit	n/a
345.296	n/a	RESPONSE	n/a	n/a	n/a	n/a	n/a	n/a	n/a	green
345.3145	1.0167	ITI	n/a	n/a	n/a	n/a	n/a	n/a	n/a	n/a
346.3312	0.5167	FIXCROSS	n/a	n/a	n/a	n/a	n/a	n/a	n/a	n/a
346.8479	0.7667	COLOR_NAME	40	Incongruent	zielony	green	żółty	yellow	hit	n/a
347.5814	n/a	RESPONSE	n/a	n/a	n/a	n/a	n/a	n/a	n/a	green
347.6145	1.0167	ITI	n/a	n/a	n/a	n/a	n/a	n/a	n/a	n/a
348.6312	0.5167	FIXCROSS	n/a	n/a	n/a	n/a	n/a	n/a	n/a	n/a
349.1479	1.35	COLOR_NAME	41	Incongruent	zielony	green	niebieski	blue	hit	n/a
350.4741	n/a	RESPONSE	n/a	n/a	n/a	n/a	n/a	n/a	n/a	green
350.4979	1.0167	ITI	n/a	n/a	n/a	n/a	n/a	n/a	n/a	n/a
351.5146	0.5167	FIXCROSS	n/a	n/a	n/a	n/a	n/a	n/a	n/a	n/a
352.0312	0.6167	COLOR_NAME	42	Incongruent	czerwony	red	zielony	green	hit	n/a
352.6157	n/a	RESPONSE	n/a	n/a	n/a	n/a	n/a	n/a	n/a	red
352.6479	1.0167	ITI	n/a	n/a	n/a	n/a	n/a	n/a	n/a	n/a
353.6646	0.5167	FIXCROSS	n/a	n/a	n/a	n/a	n/a	n/a	n/a	n/a
354.1813	1.2	COLOR_NAME	43	Incongruent	zielony	green	czerwony	red	incorrect	n/a
355.3484	n/a	RESPONSE	n/a	n/a	n/a	n/a	n/a	n/a	n/a	red
355.3813	1.0167	ITI	n/a	n/a	n/a	n/a	n/a	n/a	n/a	n/a
356.3979	0.5167	FIXCROSS	n/a	n/a	n/a	n/a	n/a	n/a	n/a	n/a
356.9146	0.85	COLOR_NAME	44	Neutral	zielony	green	Neutral	Neutral	hit	n/a
357.7456	n/a	RESPONSE	n/a	n/a	n/a	n/a	n/a	n/a	n/a	green
357.7646	1.0167	ITI	n/a	n/a	n/a	n/a	n/a	n/a	n/a	n/a
358.7813	0.5167	FIXCROSS	n/a	n/a	n/a	n/a	n/a	n/a	n/a	n/a
359.298	0.8	COLOR_NAME	45	Incongruent	niebieski	blue	żółty	yellow	hit	n/a
360.079	n/a	RESPONSE	n/a	n/a	n/a	n/a	n/a	n/a	n/a	blue
360.098	1.0167	ITI	n/a	n/a	n/a	n/a	n/a	n/a	n/a	n/a
361.1146	0.5167	FIXCROSS	n/a	n/a	n/a	n/a	n/a	n/a	n/a	n/a
361.6313	0.7667	COLOR_NAME	46	Neutral	zielony	green	Neutral	Neutral	hit	n/a
362.3645	n/a	RESPONSE	n/a	n/a	n/a	n/a	n/a	n/a	n/a	green
362.398	1.0167	ITI	n/a	n/a	n/a	n/a	n/a	n/a	n/a	n/a
363.4147	0.5167	FIXCROSS	n/a	n/a	n/a	n/a	n/a	n/a	n/a	n/a
363.9313	0.5667	COLOR_NAME	47	Neutral	zielony	green	Neutral	Neutral	hit	n/a
364.4741	n/a	RESPONSE	n/a	n/a	n/a	n/a	n/a	n/a	n/a	green
364.498	1.0167	ITI	n/a	n/a	n/a	n/a	n/a	n/a	n/a	n/a
365.5147	0.5167	FIXCROSS	n/a	n/a	n/a	n/a	n/a	n/a	n/a	n/a
366.0313	0.8	COLOR_NAME	48	Incongruent	żółty	yellow	czerwony	red	hit	n/a
366.8074	n/a	RESPONSE	n/a	n/a	n/a	n/a	n/a	n/a	n/a	yellow
366.8313	1.0167	ITI	n/a	n/a	n/a	n/a	n/a	n/a	n/a	n/a
367.848	0.5167	FIXCROSS	n/a	n/a	n/a	n/a	n/a	n/a	n/a	n/a
368.3647	0.6167	COLOR_NAME	49	Neutral	żółty	yellow	Neutral	Neutral	hit	n/a
368.9489	n/a	RESPONSE	n/a	n/a	n/a	n/a	n/a	n/a	n/a	yellow
368.9814	1.0167	ITI	n/a	n/a	n/a	n/a	n/a	n/a	n/a	n/a
369.998	0.5167	FIXCROSS	n/a	n/a	n/a	n/a	n/a	n/a	n/a	n/a
370.5147	0.6333	COLOR_NAME	50	Neutral	niebieski	blue	Neutral	Neutral	hit	n/a
371.1225	n/a	RESPONSE	n/a	n/a	n/a	n/a	n/a	n/a	n/a	blue
371.148	1.0167	ITI	n/a	n/a	n/a	n/a	n/a	n/a	n/a	n/a
372.1647	0.5167	FIXCROSS	n/a	n/a	n/a	n/a	n/a	n/a	n/a	n/a
372.6814	0.6	COLOR_NAME	51	Neutral	żółty	yellow	Neutral	Neutral	hit	n/a
373.2481	n/a	RESPONSE	n/a	n/a	n/a	n/a	n/a	n/a	n/a	yellow
373.2814	1.0167	ITI	n/a	n/a	n/a	n/a	n/a	n/a	n/a	n/a
374.2981	0.5167	FIXCROSS	n/a	n/a	n/a	n/a	n/a	n/a	n/a	n/a
374.8147	1.6	COLOR_NAME	52	Incongruent	zielony	green	żółty	yellow	hit	n/a
376.3964	n/a	RESPONSE	n/a	n/a	n/a	n/a	n/a	n/a	n/a	green
376.4147	1.0167	ITI	n/a	n/a	n/a	n/a	n/a	n/a	n/a	n/a
377.4314	0.5167	FIXCROSS	n/a	n/a	n/a	n/a	n/a	n/a	n/a	n/a
377.9481	0.85	COLOR_NAME	53	Incongruent	niebieski	blue	żółty	yellow	hit	n/a
378.7778	n/a	RESPONSE	n/a	n/a	n/a	n/a	n/a	n/a	n/a	blue
378.7981	1.0167	ITI	n/a	n/a	n/a	n/a	n/a	n/a	n/a	n/a
379.8148	0.5167	FIXCROSS	n/a	n/a	n/a	n/a	n/a	n/a	n/a	n/a
380.3315	0.8	COLOR_NAME	54	Incongruent	czerwony	red	niebieski	blue	hit	n/a
381.111	n/a	RESPONSE	n/a	n/a	n/a	n/a	n/a	n/a	n/a	red
381.1314	1.0167	ITI	n/a	n/a	n/a	n/a	n/a	n/a	n/a	n/a
382.1481	0.5167	FIXCROSS	n/a	n/a	n/a	n/a	n/a	n/a	n/a	n/a
382.6648	0.7833	COLOR_NAME	55	Incongruent	żółty	yellow	niebieski	blue	hit	n/a
383.4125	n/a	RESPONSE	n/a	n/a	n/a	n/a	n/a	n/a	n/a	yellow
383.4481	1.0167	ITI	n/a	n/a	n/a	n/a	n/a	n/a	n/a	n/a
384.4648	0.5167	FIXCROSS	n/a	n/a	n/a	n/a	n/a	n/a	n/a	n/a
384.9815	1.05	COLOR_NAME	56	Incongruent	zielony	green	czerwony	red	hit	n/a
386.0014	n/a	RESPONSE	n/a	n/a	n/a	n/a	n/a	n/a	n/a	green
386.0315	1.0167	ITI	n/a	n/a	n/a	n/a	n/a	n/a	n/a	n/a
387.0482	0.5167	FIXCROSS	n/a	n/a	n/a	n/a	n/a	n/a	n/a	n/a
387.5648	0.6	COLOR_NAME	57	Neutral	żółty	yellow	Neutral	Neutral	hit	n/a
388.143	n/a	RESPONSE	n/a	n/a	n/a	n/a	n/a	n/a	n/a	yellow
388.1648	1.0167	ITI	n/a	n/a	n/a	n/a	n/a	n/a	n/a	n/a
389.1815	0.5167	FIXCROSS	n/a	n/a	n/a	n/a	n/a	n/a	n/a	n/a
389.6982	0.7	COLOR_NAME	58	Neutral	czerwony	red	Neutral	Neutral	hit	n/a
390.3645	n/a	RESPONSE	n/a	n/a	n/a	n/a	n/a	n/a	n/a	red
390.3982	1.0167	ITI	n/a	n/a	n/a	n/a	n/a	n/a	n/a	n/a
391.4149	0.5167	FIXCROSS	n/a	n/a	n/a	n/a	n/a	n/a	n/a	n/a
391.9315	0.6167	COLOR_NAME	59	Neutral	niebieski	blue	Neutral	Neutral	hit	n/a
392.522	n/a	RESPONSE	n/a	n/a	n/a	n/a	n/a	n/a	n/a	blue
392.5482	1.0167	ITI	n/a	n/a	n/a	n/a	n/a	n/a	n/a	n/a
393.5649	0.5167	FIXCROSS	n/a	n/a	n/a	n/a	n/a	n/a	n/a	n/a
394.0815	0.5833	COLOR_NAME	60	Incongruent	niebieski	blue	czerwony	red	hit	n/a
394.6316	n/a	RESPONSE	n/a	n/a	n/a	n/a	n/a	n/a	n/a	blue
394.6649	1.0167	ITI	n/a	n/a	n/a	n/a	n/a	n/a	n/a	n/a
395.6816	0.5167	FIXCROSS	n/a	n/a	n/a	n/a	n/a	n/a	n/a	n/a
396.1982	0.9167	COLOR_NAME	61	Incongruent	zielony	green	niebieski	blue	hit	n/a
397.0928	n/a	RESPONSE	n/a	n/a	n/a	n/a	n/a	n/a	n/a	green
397.1149	1.0167	ITI	n/a	n/a	n/a	n/a	n/a	n/a	n/a	n/a
398.1316	0.5167	FIXCROSS	n/a	n/a	n/a	n/a	n/a	n/a	n/a	n/a
398.6482	0.9	COLOR_NAME	62	Neutral	zielony	green	Neutral	Neutral	hit	n/a
399.522	n/a	RESPONSE	n/a	n/a	n/a	n/a	n/a	n/a	n/a	green
399.5482	1.0167	ITI	n/a	n/a	n/a	n/a	n/a	n/a	n/a	n/a
400.5649	0.5167	FIXCROSS	n/a	n/a	n/a	n/a	n/a	n/a	n/a	n/a
401.0816	0.55	COLOR_NAME	63	Neutral	niebieski	blue	Neutral	Neutral	hit	n/a
401.5996	n/a	RESPONSE	n/a	n/a	n/a	n/a	n/a	n/a	n/a	blue
401.6316	1.0167	ITI	n/a	n/a	n/a	n/a	n/a	n/a	n/a	n/a
402.6483	0.5167	FIXCROSS	n/a	n/a	n/a	n/a	n/a	n/a	n/a	n/a
403.1649	0.6667	COLOR_NAME	64	Incongruent	niebieski	blue	żółty	yellow	hit	n/a
403.8051	n/a	RESPONSE	n/a	n/a	n/a	n/a	n/a	n/a	n/a	blue
403.8316	1.0167	ITI	n/a	n/a	n/a	n/a	n/a	n/a	n/a	n/a
404.8483	0.5167	FIXCROSS	n/a	n/a	n/a	n/a	n/a	n/a	n/a	n/a
405.365	0.4667	COLOR_NAME	65	Incongruent	niebieski	blue	zielony	green	hit	n/a
405.8028	n/a	RESPONSE	n/a	n/a	n/a	n/a	n/a	n/a	n/a	blue
405.8316	1.0167	ITI	n/a	n/a	n/a	n/a	n/a	n/a	n/a	n/a
406.8483	0.5167	FIXCROSS	n/a	n/a	n/a	n/a	n/a	n/a	n/a	n/a
407.365	0.7	COLOR_NAME	66	Neutral	żółty	yellow	Neutral	Neutral	hit	n/a
408.0403	n/a	RESPONSE	n/a	n/a	n/a	n/a	n/a	n/a	n/a	yellow
408.065	1.0167	ITI	n/a	n/a	n/a	n/a	n/a	n/a	n/a	n/a
409.0816	0.5167	FIXCROSS	n/a	n/a	n/a	n/a	n/a	n/a	n/a	n/a
409.5983	0.8333	COLOR_NAME	67	Incongruent	czerwony	red	zielony	green	hit	n/a
410.4056	n/a	RESPONSE	n/a	n/a	n/a	n/a	n/a	n/a	n/a	red
410.4317	1.0333	ITI	n/a	n/a	n/a	n/a	n/a	n/a	n/a	n/a
411.465	0.5167	FIXCROSS	n/a	n/a	n/a	n/a	n/a	n/a	n/a	n/a
411.9817	0.5667	COLOR_NAME	68	Incongruent	czerwony	red	żółty	yellow	hit	n/a
412.5152	n/a	RESPONSE	n/a	n/a	n/a	n/a	n/a	n/a	n/a	red
412.5483	1.0167	ITI	n/a	n/a	n/a	n/a	n/a	n/a	n/a	n/a
413.565	0.5167	FIXCROSS	n/a	n/a	n/a	n/a	n/a	n/a	n/a	n/a
414.0817	0.7	COLOR_NAME	69	Neutral	zielony	green	Neutral	Neutral	hit	n/a
414.7527	n/a	RESPONSE	n/a	n/a	n/a	n/a	n/a	n/a	n/a	green
414.7817	1.0167	ITI	n/a	n/a	n/a	n/a	n/a	n/a	n/a	n/a
415.7984	0.5167	FIXCROSS	n/a	n/a	n/a	n/a	n/a	n/a	n/a	n/a
416.315	0.9	COLOR_NAME	70	Incongruent	zielony	green	niebieski	blue	hit	n/a
417.1819	n/a	RESPONSE	n/a	n/a	n/a	n/a	n/a	n/a	n/a	green
417.215	1.0167	ITI	n/a	n/a	n/a	n/a	n/a	n/a	n/a	n/a
418.2317	0.5167	FIXCROSS	n/a	n/a	n/a	n/a	n/a	n/a	n/a	n/a
418.7484	0.4333	COLOR_NAME	71	Neutral	niebieski	blue	Neutral	Neutral	hit	n/a
419.1637	n/a	RESPONSE	n/a	n/a	n/a	n/a	n/a	n/a	n/a	blue
419.1817	1.0167	ITI	n/a	n/a	n/a	n/a	n/a	n/a	n/a	n/a
420.1984	0.5167	FIXCROSS	n/a	n/a	n/a	n/a	n/a	n/a	n/a	n/a
420.7151	0.7333	COLOR_NAME	72	Neutral	zielony	green	Neutral	Neutral	hit	n/a
421.4171	n/a	RESPONSE	n/a	n/a	n/a	n/a	n/a	n/a	n/a	green
421.4484	1.0333	ITI	n/a	n/a	n/a	n/a	n/a	n/a	n/a	n/a
433.6752	n/a	RESPONSE	n/a	n/a	n/a	n/a	n/a	n/a	n/a	n/a
