onset	duration	trial_type	trial_number	stroop_condition	stim_text(PL)	stim_text(eng)	stim_color(PL)	stim_color(eng)	response_type	response_color
0.0	n/a	RESPONSE	n/a	n/a	n/a	n/a	n/a	n/a	n/a	n/a
0.0376	1.0166	ITI	n/a	n/a	n/a	n/a	n/a	n/a	n/a	n/a
1.0543	0.5	FIXCROSS	n/a	n/a	n/a	n/a	n/a	n/a	n/a	n/a
1.5542	1.35	T_INK	1	Neutral	xxxxxxxx	xxxxxxxx	żółty	yellow	hit	n/a
2.8921	n/a	RESPONSE	n/a	n/a	n/a	n/a	n/a	n/a	n/a	yellow
2.9042	0.5	FEEDBACK	n/a	n/a	n/a	n/a	n/a	n/a	n/a	n/a
3.4042	1.0	ITI	n/a	n/a	n/a	n/a	n/a	n/a	n/a	n/a
4.4042	0.5	FIXCROSS	n/a	n/a	n/a	n/a	n/a	n/a	n/a	n/a
4.9042	1.2667	T_INK	2	Incongruent	zielony	green	niebieski	blue	hit	n/a
6.1515	n/a	RESPONSE	n/a	n/a	n/a	n/a	n/a	n/a	n/a	blue
6.1708	0.5	FEEDBACK	n/a	n/a	n/a	n/a	n/a	n/a	n/a	n/a
6.6708	1.0	ITI	n/a	n/a	n/a	n/a	n/a	n/a	n/a	n/a
7.6708	0.5	FIXCROSS	n/a	n/a	n/a	n/a	n/a	n/a	n/a	n/a
8.1708	0.8666	T_INK	3	Neutral	xxxxxxx	xxxxxxx	niebieski	blue	hit	n/a
9.0277	n/a	RESPONSE	n/a	n/a	n/a	n/a	n/a	n/a	n/a	blue
9.0374	0.5	FEEDBACK	n/a	n/a	n/a	n/a	n/a	n/a	n/a	n/a
9.5374	1.0	ITI	n/a	n/a	n/a	n/a	n/a	n/a	n/a	n/a
10.5374	0.5	FIXCROSS	n/a	n/a	n/a	n/a	n/a	n/a	n/a	n/a
11.0374	0.7333	T_INK	4	Incongruent	czerwony	red	żółty	yellow	hit	n/a
11.76	n/a	RESPONSE	n/a	n/a	n/a	n/a	n/a	n/a	n/a	yellow
11.7707	0.5	FEEDBACK	n/a	n/a	n/a	n/a	n/a	n/a	n/a	n/a
12.2707	1.0166	ITI	n/a	n/a	n/a	n/a	n/a	n/a	n/a	n/a
13.2874	0.5	FIXCROSS	n/a	n/a	n/a	n/a	n/a	n/a	n/a	n/a
13.7873	0.8166	T_INK	5	Incongruent	żółty	yellow	zielony	green	hit	n/a
14.5881	n/a	RESPONSE	n/a	n/a	n/a	n/a	n/a	n/a	n/a	green
14.604	0.5	FEEDBACK	n/a	n/a	n/a	n/a	n/a	n/a	n/a	n/a
15.104	1.0	ITI	n/a	n/a	n/a	n/a	n/a	n/a	n/a	n/a
16.104	0.5	FIXCROSS	n/a	n/a	n/a	n/a	n/a	n/a	n/a	n/a
16.604	0.7	T_INK	6	Neutral	xxxxxxxx	xxxxxxxx	zielony	green	hit	n/a
17.2885	n/a	RESPONSE	n/a	n/a	n/a	n/a	n/a	n/a	n/a	green
17.304	0.5	FEEDBACK	n/a	n/a	n/a	n/a	n/a	n/a	n/a	n/a
17.8039	1.0	ITI	n/a	n/a	n/a	n/a	n/a	n/a	n/a	n/a
18.8039	0.5	FIXCROSS	n/a	n/a	n/a	n/a	n/a	n/a	n/a	n/a
19.3039	0.8	T_INK	7	Neutral	xxxxx	xxxxx	niebieski	blue	hit	n/a
20.0847	n/a	RESPONSE	n/a	n/a	n/a	n/a	n/a	n/a	n/a	blue
20.1039	0.5	FEEDBACK	n/a	n/a	n/a	n/a	n/a	n/a	n/a	n/a
20.6039	1.0	ITI	n/a	n/a	n/a	n/a	n/a	n/a	n/a	n/a
21.6039	0.5	FIXCROSS	n/a	n/a	n/a	n/a	n/a	n/a	n/a	n/a
22.1038	0.75	T_INK	8	Neutral	xxxxxxxxx	xxxxxxxxx	żółty	yellow	hit	n/a
22.8331	n/a	RESPONSE	n/a	n/a	n/a	n/a	n/a	n/a	n/a	yellow
22.8538	0.5	FEEDBACK	n/a	n/a	n/a	n/a	n/a	n/a	n/a	n/a
23.3538	1.0	ITI	n/a	n/a	n/a	n/a	n/a	n/a	n/a	n/a
24.3538	0.5	FIXCROSS	n/a	n/a	n/a	n/a	n/a	n/a	n/a	n/a
24.8538	0.85	T_INK	9	Incongruent	niebieski	blue	zielony	green	hit	n/a
25.6932	n/a	RESPONSE	n/a	n/a	n/a	n/a	n/a	n/a	n/a	green
25.7038	0.5	FEEDBACK	n/a	n/a	n/a	n/a	n/a	n/a	n/a	n/a
26.2038	1.0	ITI	n/a	n/a	n/a	n/a	n/a	n/a	n/a	n/a
27.2038	0.5	FIXCROSS	n/a	n/a	n/a	n/a	n/a	n/a	n/a	n/a
27.7037	0.7167	T_INK	10	Incongruent	niebieski	blue	czerwony	red	hit	n/a
28.4094	n/a	RESPONSE	n/a	n/a	n/a	n/a	n/a	n/a	n/a	red
28.4204	0.5	FEEDBACK	n/a	n/a	n/a	n/a	n/a	n/a	n/a	n/a
28.9204	1.0	ITI	n/a	n/a	n/a	n/a	n/a	n/a	n/a	n/a
29.9204	0.5	FIXCROSS	n/a	n/a	n/a	n/a	n/a	n/a	n/a	n/a
30.4204	0.8833	T_INK	11	Neutral	xxxxx	xxxxx	zielony	green	hit	n/a
31.2855	n/a	RESPONSE	n/a	n/a	n/a	n/a	n/a	n/a	n/a	green
31.3037	0.5	FEEDBACK	n/a	n/a	n/a	n/a	n/a	n/a	n/a	n/a
31.8037	1.0	ITI	n/a	n/a	n/a	n/a	n/a	n/a	n/a	n/a
32.8036	0.5	FIXCROSS	n/a	n/a	n/a	n/a	n/a	n/a	n/a	n/a
33.3036	0.75	T_INK	12	Incongruent	czerwony	red	zielony	green	hit	n/a
34.0337	n/a	RESPONSE	n/a	n/a	n/a	n/a	n/a	n/a	n/a	green
34.0536	0.5	FEEDBACK	n/a	n/a	n/a	n/a	n/a	n/a	n/a	n/a
34.5536	1.0	ITI	n/a	n/a	n/a	n/a	n/a	n/a	n/a	n/a
44.3238	n/a	RESPONSE	n/a	n/a	n/a	n/a	n/a	n/a	n/a	n/a
44.3534	1.0	ITI	n/a	n/a	n/a	n/a	n/a	n/a	n/a	n/a
45.3534	0.5	FIXCROSS	n/a	n/a	n/a	n/a	n/a	n/a	n/a	n/a
45.8534	0.85	INK	1	Incongruent	czerwony	red	zielony	green	hit	n/a
46.6886	n/a	RESPONSE	n/a	n/a	n/a	n/a	n/a	n/a	n/a	green
46.7034	1.0	ITI	n/a	n/a	n/a	n/a	n/a	n/a	n/a	n/a
47.7034	0.5	FIXCROSS	n/a	n/a	n/a	n/a	n/a	n/a	n/a	n/a
48.2034	0.75	INK	2	Incongruent	zielony	green	czerwony	red	hit	n/a
48.9415	n/a	RESPONSE	n/a	n/a	n/a	n/a	n/a	n/a	n/a	red
48.9533	1.0	ITI	n/a	n/a	n/a	n/a	n/a	n/a	n/a	n/a
49.9533	0.5	FIXCROSS	n/a	n/a	n/a	n/a	n/a	n/a	n/a	n/a
50.4533	1.0166	INK	3	Neutral	xxxxx	xxxxx	czerwony	red	hit	n/a
51.4661	n/a	RESPONSE	n/a	n/a	n/a	n/a	n/a	n/a	n/a	red
51.47	1.0	ITI	n/a	n/a	n/a	n/a	n/a	n/a	n/a	n/a
52.4699	0.5	FIXCROSS	n/a	n/a	n/a	n/a	n/a	n/a	n/a	n/a
52.9699	0.8667	INK	4	Neutral	xxxxxxx	xxxxxxx	niebieski	blue	hit	n/a
53.8308	n/a	RESPONSE	n/a	n/a	n/a	n/a	n/a	n/a	n/a	blue
53.8366	1.0	ITI	n/a	n/a	n/a	n/a	n/a	n/a	n/a	n/a
54.8366	0.5	FIXCROSS	n/a	n/a	n/a	n/a	n/a	n/a	n/a	n/a
55.3365	0.75	INK	5	Incongruent	czerwony	red	niebieski	blue	hit	n/a
56.0677	n/a	RESPONSE	n/a	n/a	n/a	n/a	n/a	n/a	n/a	blue
56.0865	1.0	ITI	n/a	n/a	n/a	n/a	n/a	n/a	n/a	n/a
57.0865	0.5	FIXCROSS	n/a	n/a	n/a	n/a	n/a	n/a	n/a	n/a
57.5865	0.8	INK	6	Neutral	xxxxxxxx	xxxxxxxx	niebieski	blue	hit	n/a
58.3687	n/a	RESPONSE	n/a	n/a	n/a	n/a	n/a	n/a	n/a	blue
58.3865	1.0	ITI	n/a	n/a	n/a	n/a	n/a	n/a	n/a	n/a
59.3865	0.5	FIXCROSS	n/a	n/a	n/a	n/a	n/a	n/a	n/a	n/a
59.8865	0.8333	INK	7	Incongruent	żółty	yellow	czerwony	red	hit	n/a
60.7015	n/a	RESPONSE	n/a	n/a	n/a	n/a	n/a	n/a	n/a	red
60.7198	1.0	ITI	n/a	n/a	n/a	n/a	n/a	n/a	n/a	n/a
61.7198	0.5	FIXCROSS	n/a	n/a	n/a	n/a	n/a	n/a	n/a	n/a
62.2197	0.8833	INK	8	Neutral	xxxxxxx	xxxxxxx	niebieski	blue	hit	n/a
63.0982	n/a	RESPONSE	n/a	n/a	n/a	n/a	n/a	n/a	n/a	blue
63.1031	1.0	ITI	n/a	n/a	n/a	n/a	n/a	n/a	n/a	n/a
64.103	0.5	FIXCROSS	n/a	n/a	n/a	n/a	n/a	n/a	n/a	n/a
64.603	0.8	INK	9	Neutral	xxxxxxxxx	xxxxxxxxx	czerwony	red	hit	n/a
65.3992	n/a	RESPONSE	n/a	n/a	n/a	n/a	n/a	n/a	n/a	red
65.403	1.0	ITI	n/a	n/a	n/a	n/a	n/a	n/a	n/a	n/a
66.403	0.5	FIXCROSS	n/a	n/a	n/a	n/a	n/a	n/a	n/a	n/a
66.903	0.7833	INK	10	Neutral	xxxxxxxxx	xxxxxxxxx	czerwony	red	hit	n/a
67.6681	n/a	RESPONSE	n/a	n/a	n/a	n/a	n/a	n/a	n/a	red
67.6863	1.0	ITI	n/a	n/a	n/a	n/a	n/a	n/a	n/a	n/a
68.6863	0.5	FIXCROSS	n/a	n/a	n/a	n/a	n/a	n/a	n/a	n/a
69.1863	0.6833	INK	11	Incongruent	zielony	green	żółty	yellow	hit	n/a
69.857	n/a	RESPONSE	n/a	n/a	n/a	n/a	n/a	n/a	n/a	yellow
69.8696	1.0	ITI	n/a	n/a	n/a	n/a	n/a	n/a	n/a	n/a
70.8696	0.5	FIXCROSS	n/a	n/a	n/a	n/a	n/a	n/a	n/a	n/a
71.3696	1.1333	INK	12	Neutral	xxxxxxx	xxxxxxx	czerwony	red	hit	n/a
72.4935	n/a	RESPONSE	n/a	n/a	n/a	n/a	n/a	n/a	n/a	red
72.5029	1.0	ITI	n/a	n/a	n/a	n/a	n/a	n/a	n/a	n/a
73.5029	0.5	FIXCROSS	n/a	n/a	n/a	n/a	n/a	n/a	n/a	n/a
74.0029	0.8333	INK	13	Incongruent	zielony	green	czerwony	red	hit	n/a
74.8263	n/a	RESPONSE	n/a	n/a	n/a	n/a	n/a	n/a	n/a	red
74.8362	1.0	ITI	n/a	n/a	n/a	n/a	n/a	n/a	n/a	n/a
75.8361	0.5	FIXCROSS	n/a	n/a	n/a	n/a	n/a	n/a	n/a	n/a
76.3361	0.75	INK	14	Incongruent	żółty	yellow	zielony	green	hit	n/a
77.0792	n/a	RESPONSE	n/a	n/a	n/a	n/a	n/a	n/a	n/a	green
77.0861	1.0	ITI	n/a	n/a	n/a	n/a	n/a	n/a	n/a	n/a
78.0861	0.5	FIXCROSS	n/a	n/a	n/a	n/a	n/a	n/a	n/a	n/a
78.5861	0.9	INK	15	Incongruent	niebieski	blue	żółty	yellow	hit	n/a
79.4761	n/a	RESPONSE	n/a	n/a	n/a	n/a	n/a	n/a	n/a	yellow
79.4861	1.0	ITI	n/a	n/a	n/a	n/a	n/a	n/a	n/a	n/a
80.4861	0.5	FIXCROSS	n/a	n/a	n/a	n/a	n/a	n/a	n/a	n/a
80.9861	0.7666	INK	16	Incongruent	żółty	yellow	czerwony	red	hit	n/a
81.7449	n/a	RESPONSE	n/a	n/a	n/a	n/a	n/a	n/a	n/a	red
81.7527	1.0	ITI	n/a	n/a	n/a	n/a	n/a	n/a	n/a	n/a
82.7527	0.5	FIXCROSS	n/a	n/a	n/a	n/a	n/a	n/a	n/a	n/a
83.2527	0.8333	INK	17	Incongruent	niebieski	blue	żółty	yellow	hit	n/a
84.0778	n/a	RESPONSE	n/a	n/a	n/a	n/a	n/a	n/a	n/a	yellow
84.086	1.0	ITI	n/a	n/a	n/a	n/a	n/a	n/a	n/a	n/a
85.086	0.5	FIXCROSS	n/a	n/a	n/a	n/a	n/a	n/a	n/a	n/a
85.586	0.7833	INK	18	Neutral	xxxxxxx	xxxxxxx	niebieski	blue	hit	n/a
86.3628	n/a	RESPONSE	n/a	n/a	n/a	n/a	n/a	n/a	n/a	blue
86.3693	1.0	ITI	n/a	n/a	n/a	n/a	n/a	n/a	n/a	n/a
87.3693	0.5	FIXCROSS	n/a	n/a	n/a	n/a	n/a	n/a	n/a	n/a
87.8693	1.3333	INK	19	Incongruent	zielony	green	niebieski	blue	hit	n/a
89.191	n/a	RESPONSE	n/a	n/a	n/a	n/a	n/a	n/a	n/a	blue
89.2026	1.0	ITI	n/a	n/a	n/a	n/a	n/a	n/a	n/a	n/a
90.2025	0.5	FIXCROSS	n/a	n/a	n/a	n/a	n/a	n/a	n/a	n/a
90.7025	1.55	INK	20	Incongruent	czerwony	red	żółty	yellow	hit	n/a
92.2428	n/a	RESPONSE	n/a	n/a	n/a	n/a	n/a	n/a	n/a	yellow
92.2525	1.0	ITI	n/a	n/a	n/a	n/a	n/a	n/a	n/a	n/a
93.2525	0.5	FIXCROSS	n/a	n/a	n/a	n/a	n/a	n/a	n/a	n/a
93.7525	0.8	INK	21	Neutral	xxxxx	xxxxx	zielony	green	hit	n/a
94.5437	n/a	RESPONSE	n/a	n/a	n/a	n/a	n/a	n/a	n/a	green
94.5525	1.0	ITI	n/a	n/a	n/a	n/a	n/a	n/a	n/a	n/a
95.5524	0.5	FIXCROSS	n/a	n/a	n/a	n/a	n/a	n/a	n/a	n/a
96.0524	0.9667	INK	22	Incongruent	żółty	yellow	niebieski	blue	hit	n/a
97.0044	n/a	RESPONSE	n/a	n/a	n/a	n/a	n/a	n/a	n/a	blue
97.0191	1.0	ITI	n/a	n/a	n/a	n/a	n/a	n/a	n/a	n/a
98.0191	0.5	FIXCROSS	n/a	n/a	n/a	n/a	n/a	n/a	n/a	n/a
98.5191	0.65	INK	23	Neutral	xxxxxxxx	xxxxxxxx	żółty	yellow	hit	n/a
99.1614	n/a	RESPONSE	n/a	n/a	n/a	n/a	n/a	n/a	n/a	yellow
99.169	1.0	ITI	n/a	n/a	n/a	n/a	n/a	n/a	n/a	n/a
100.169	0.5	FIXCROSS	n/a	n/a	n/a	n/a	n/a	n/a	n/a	n/a
100.669	0.75	INK	24	Neutral	xxxxxxxxx	xxxxxxxxx	żółty	yellow	hit	n/a
101.4144	n/a	RESPONSE	n/a	n/a	n/a	n/a	n/a	n/a	n/a	yellow
101.419	1.0	ITI	n/a	n/a	n/a	n/a	n/a	n/a	n/a	n/a
102.419	0.5	FIXCROSS	n/a	n/a	n/a	n/a	n/a	n/a	n/a	n/a
102.919	0.8	INK	25	Neutral	xxxxxxx	xxxxxxx	czerwony	red	hit	n/a
103.7154	n/a	RESPONSE	n/a	n/a	n/a	n/a	n/a	n/a	n/a	red
103.7189	1.0	ITI	n/a	n/a	n/a	n/a	n/a	n/a	n/a	n/a
104.7189	0.5	FIXCROSS	n/a	n/a	n/a	n/a	n/a	n/a	n/a	n/a
105.2189	0.8833	INK	26	Neutral	xxxxx	xxxxx	niebieski	blue	hit	n/a
106.0961	n/a	RESPONSE	n/a	n/a	n/a	n/a	n/a	n/a	n/a	blue
106.1022	1.0	ITI	n/a	n/a	n/a	n/a	n/a	n/a	n/a	n/a
107.1022	0.5	FIXCROSS	n/a	n/a	n/a	n/a	n/a	n/a	n/a	n/a
107.6022	0.9833	INK	27	Incongruent	niebieski	blue	czerwony	red	hit	n/a
108.5728	n/a	RESPONSE	n/a	n/a	n/a	n/a	n/a	n/a	n/a	red
108.5855	1.0	ITI	n/a	n/a	n/a	n/a	n/a	n/a	n/a	n/a
109.5855	0.5	FIXCROSS	n/a	n/a	n/a	n/a	n/a	n/a	n/a	n/a
110.0855	0.7833	INK	28	Neutral	xxxxx	xxxxx	zielony	green	hit	n/a
110.8577	n/a	RESPONSE	n/a	n/a	n/a	n/a	n/a	n/a	n/a	green
110.8688	1.0	ITI	n/a	n/a	n/a	n/a	n/a	n/a	n/a	n/a
111.8688	0.5	FIXCROSS	n/a	n/a	n/a	n/a	n/a	n/a	n/a	n/a
112.3688	1.0833	INK	29	Incongruent	żółty	yellow	zielony	green	hit	n/a
113.4463	n/a	RESPONSE	n/a	n/a	n/a	n/a	n/a	n/a	n/a	green
113.4521	1.0	ITI	n/a	n/a	n/a	n/a	n/a	n/a	n/a	n/a
114.4521	0.5	FIXCROSS	n/a	n/a	n/a	n/a	n/a	n/a	n/a	n/a
114.9521	0.7167	INK	30	Neutral	xxxxxxx	xxxxxxx	żółty	yellow	hit	n/a
115.6513	n/a	RESPONSE	n/a	n/a	n/a	n/a	n/a	n/a	n/a	yellow
115.6687	1.0	ITI	n/a	n/a	n/a	n/a	n/a	n/a	n/a	n/a
116.6687	0.5	FIXCROSS	n/a	n/a	n/a	n/a	n/a	n/a	n/a	n/a
117.1687	0.7167	INK	31	Incongruent	zielony	green	żółty	yellow	hit	n/a
117.8723	n/a	RESPONSE	n/a	n/a	n/a	n/a	n/a	n/a	n/a	yellow
117.8853	1.0	ITI	n/a	n/a	n/a	n/a	n/a	n/a	n/a	n/a
118.8853	0.5	FIXCROSS	n/a	n/a	n/a	n/a	n/a	n/a	n/a	n/a
119.3853	0.9333	INK	32	Incongruent	czerwony	red	niebieski	blue	hit	n/a
120.3008	n/a	RESPONSE	n/a	n/a	n/a	n/a	n/a	n/a	n/a	blue
120.3186	1.0	ITI	n/a	n/a	n/a	n/a	n/a	n/a	n/a	n/a
121.3186	0.5	FIXCROSS	n/a	n/a	n/a	n/a	n/a	n/a	n/a	n/a
121.8186	0.7833	INK	33	Incongruent	żółty	yellow	zielony	green	hit	n/a
122.5858	n/a	RESPONSE	n/a	n/a	n/a	n/a	n/a	n/a	n/a	green
122.6019	1.0	ITI	n/a	n/a	n/a	n/a	n/a	n/a	n/a	n/a
123.6019	0.5	FIXCROSS	n/a	n/a	n/a	n/a	n/a	n/a	n/a	n/a
124.1019	0.75	INK	34	Incongruent	czerwony	red	żółty	yellow	hit	n/a
124.8387	n/a	RESPONSE	n/a	n/a	n/a	n/a	n/a	n/a	n/a	yellow
124.8519	1.0	ITI	n/a	n/a	n/a	n/a	n/a	n/a	n/a	n/a
125.8519	0.5	FIXCROSS	n/a	n/a	n/a	n/a	n/a	n/a	n/a	n/a
126.3518	0.9333	INK	35	Incongruent	czerwony	red	niebieski	blue	hit	n/a
127.2674	n/a	RESPONSE	n/a	n/a	n/a	n/a	n/a	n/a	n/a	blue
127.2852	1.0	ITI	n/a	n/a	n/a	n/a	n/a	n/a	n/a	n/a
128.2851	0.5	FIXCROSS	n/a	n/a	n/a	n/a	n/a	n/a	n/a	n/a
128.7851	0.6667	INK	36	Neutral	xxxxxxxxx	xxxxxxxxx	czerwony	red	hit	n/a
129.4404	n/a	RESPONSE	n/a	n/a	n/a	n/a	n/a	n/a	n/a	red
129.4518	1.0	ITI	n/a	n/a	n/a	n/a	n/a	n/a	n/a	n/a
130.4518	0.5	FIXCROSS	n/a	n/a	n/a	n/a	n/a	n/a	n/a	n/a
130.9518	0.5833	INK	37	Neutral	xxxxxxxx	xxxxxxxx	żółty	yellow	hit	n/a
131.5177	n/a	RESPONSE	n/a	n/a	n/a	n/a	n/a	n/a	n/a	yellow
131.5351	1.0	ITI	n/a	n/a	n/a	n/a	n/a	n/a	n/a	n/a
132.5351	0.5	FIXCROSS	n/a	n/a	n/a	n/a	n/a	n/a	n/a	n/a
133.035	0.8666	INK	38	Neutral	xxxxxxxx	xxxxxxxx	niebieski	blue	hit	n/a
133.8984	n/a	RESPONSE	n/a	n/a	n/a	n/a	n/a	n/a	n/a	blue
133.9017	1.0	ITI	n/a	n/a	n/a	n/a	n/a	n/a	n/a	n/a
134.9017	0.5	FIXCROSS	n/a	n/a	n/a	n/a	n/a	n/a	n/a	n/a
135.4017	0.5667	INK	39	Neutral	xxxxxxxx	xxxxxxxx	żółty	yellow	hit	n/a
135.9595	n/a	RESPONSE	n/a	n/a	n/a	n/a	n/a	n/a	n/a	yellow
135.9683	1.0	ITI	n/a	n/a	n/a	n/a	n/a	n/a	n/a	n/a
136.9683	0.5	FIXCROSS	n/a	n/a	n/a	n/a	n/a	n/a	n/a	n/a
137.4683	0.7333	INK	40	Incongruent	zielony	green	czerwony	red	hit	n/a
138.1965	n/a	RESPONSE	n/a	n/a	n/a	n/a	n/a	n/a	n/a	red
138.2016	1.0	ITI	n/a	n/a	n/a	n/a	n/a	n/a	n/a	n/a
139.2016	0.5	FIXCROSS	n/a	n/a	n/a	n/a	n/a	n/a	n/a	n/a
139.7016	1.6833	INK	41	Incongruent	zielony	green	niebieski	blue	hit	n/a
141.3762	n/a	RESPONSE	n/a	n/a	n/a	n/a	n/a	n/a	n/a	blue
141.3849	1.0	ITI	n/a	n/a	n/a	n/a	n/a	n/a	n/a	n/a
142.3849	0.5	FIXCROSS	n/a	n/a	n/a	n/a	n/a	n/a	n/a	n/a
142.8849	0.95	INK	42	Neutral	xxxxxxxxx	xxxxxxxxx	zielony	green	hit	n/a
143.8208	n/a	RESPONSE	n/a	n/a	n/a	n/a	n/a	n/a	n/a	green
143.8348	1.0	ITI	n/a	n/a	n/a	n/a	n/a	n/a	n/a	n/a
144.8348	0.5	FIXCROSS	n/a	n/a	n/a	n/a	n/a	n/a	n/a	n/a
145.3348	0.7333	INK	43	Neutral	xxxxxxxxx	xxxxxxxxx	żółty	yellow	hit	n/a
146.0578	n/a	RESPONSE	n/a	n/a	n/a	n/a	n/a	n/a	n/a	yellow
146.0681	1.0	ITI	n/a	n/a	n/a	n/a	n/a	n/a	n/a	n/a
147.0681	0.5	FIXCROSS	n/a	n/a	n/a	n/a	n/a	n/a	n/a	n/a
147.5681	0.4833	INK	44	Neutral	xxxxxxx	xxxxxxx	czerwony	red	hit	n/a
148.0391	n/a	RESPONSE	n/a	n/a	n/a	n/a	n/a	n/a	n/a	red
148.0514	1.0	ITI	n/a	n/a	n/a	n/a	n/a	n/a	n/a	n/a
149.0514	0.5	FIXCROSS	n/a	n/a	n/a	n/a	n/a	n/a	n/a	n/a
149.5514	0.8333	INK	45	Neutral	xxxxxxxx	xxxxxxxx	zielony	green	hit	n/a
150.372	n/a	RESPONSE	n/a	n/a	n/a	n/a	n/a	n/a	n/a	green
150.3847	1.0	ITI	n/a	n/a	n/a	n/a	n/a	n/a	n/a	n/a
151.3847	0.5	FIXCROSS	n/a	n/a	n/a	n/a	n/a	n/a	n/a	n/a
151.8847	0.6833	INK	46	Incongruent	niebieski	blue	zielony	green	hit	n/a
152.561	n/a	RESPONSE	n/a	n/a	n/a	n/a	n/a	n/a	n/a	green
152.568	1.0	ITI	n/a	n/a	n/a	n/a	n/a	n/a	n/a	n/a
153.568	0.5	FIXCROSS	n/a	n/a	n/a	n/a	n/a	n/a	n/a	n/a
154.068	0.65	INK	47	Neutral	xxxxx	xxxxx	zielony	green	hit	n/a
154.7021	n/a	RESPONSE	n/a	n/a	n/a	n/a	n/a	n/a	n/a	green
154.718	1.0	ITI	n/a	n/a	n/a	n/a	n/a	n/a	n/a	n/a
155.7179	0.5	FIXCROSS	n/a	n/a	n/a	n/a	n/a	n/a	n/a	n/a
156.2179	0.6333	INK	48	Neutral	xxxxx	xxxxx	czerwony	red	hit	n/a
156.8431	n/a	RESPONSE	n/a	n/a	n/a	n/a	n/a	n/a	n/a	red
156.8512	1.0	ITI	n/a	n/a	n/a	n/a	n/a	n/a	n/a	n/a
157.8512	0.5	FIXCROSS	n/a	n/a	n/a	n/a	n/a	n/a	n/a	n/a
158.3512	0.7667	INK	49	Neutral	xxxxxxxx	xxxxxxxx	niebieski	blue	hit	n/a
159.1121	n/a	RESPONSE	n/a	n/a	n/a	n/a	n/a	n/a	n/a	blue
159.1179	1.0	ITI	n/a	n/a	n/a	n/a	n/a	n/a	n/a	n/a
160.1179	0.5	FIXCROSS	n/a	n/a	n/a	n/a	n/a	n/a	n/a	n/a
160.6178	0.5833	INK	50	Neutral	xxxxxxxx	xxxxxxxx	zielony	green	incorrect	n/a
161.1893	n/a	RESPONSE	n/a	n/a	n/a	n/a	n/a	n/a	n/a	yellow
161.2012	1.0	ITI	n/a	n/a	n/a	n/a	n/a	n/a	n/a	n/a
162.2012	0.5	FIXCROSS	n/a	n/a	n/a	n/a	n/a	n/a	n/a	n/a
162.7011	2.5999	INK	51	Incongruent	czerwony	red	żółty	yellow	hit	n/a
165.2956	n/a	RESPONSE	n/a	n/a	n/a	n/a	n/a	n/a	n/a	yellow
165.3011	1.0	ITI	n/a	n/a	n/a	n/a	n/a	n/a	n/a	n/a
166.3011	0.5	FIXCROSS	n/a	n/a	n/a	n/a	n/a	n/a	n/a	n/a
166.8011	1.3833	INK	52	Incongruent	niebieski	blue	zielony	green	hit	n/a
168.1719	n/a	RESPONSE	n/a	n/a	n/a	n/a	n/a	n/a	n/a	green
168.1844	1.0	ITI	n/a	n/a	n/a	n/a	n/a	n/a	n/a	n/a
169.1844	0.5	FIXCROSS	n/a	n/a	n/a	n/a	n/a	n/a	n/a	n/a
169.6843	1.25	INK	53	Incongruent	niebieski	blue	żółty	yellow	hit	n/a
170.9201	n/a	RESPONSE	n/a	n/a	n/a	n/a	n/a	n/a	n/a	yellow
170.9343	1.0	ITI	n/a	n/a	n/a	n/a	n/a	n/a	n/a	n/a
171.9343	0.5	FIXCROSS	n/a	n/a	n/a	n/a	n/a	n/a	n/a	n/a
172.4343	0.8833	INK	54	Neutral	xxxxx	xxxxx	niebieski	blue	hit	n/a
173.3008	n/a	RESPONSE	n/a	n/a	n/a	n/a	n/a	n/a	n/a	blue
173.3176	1.0	ITI	n/a	n/a	n/a	n/a	n/a	n/a	n/a	n/a
174.3176	0.5	FIXCROSS	n/a	n/a	n/a	n/a	n/a	n/a	n/a	n/a
174.8176	1.05	INK	55	Incongruent	niebieski	blue	zielony	green	hit	n/a
175.8574	n/a	RESPONSE	n/a	n/a	n/a	n/a	n/a	n/a	n/a	green
175.8675	1.0	ITI	n/a	n/a	n/a	n/a	n/a	n/a	n/a	n/a
176.8675	0.5	FIXCROSS	n/a	n/a	n/a	n/a	n/a	n/a	n/a	n/a
177.3675	0.7	INK	56	Incongruent	niebieski	blue	czerwony	red	hit	n/a
178.0624	n/a	RESPONSE	n/a	n/a	n/a	n/a	n/a	n/a	n/a	red
178.0675	1.0	ITI	n/a	n/a	n/a	n/a	n/a	n/a	n/a	n/a
179.0675	0.5	FIXCROSS	n/a	n/a	n/a	n/a	n/a	n/a	n/a	n/a
179.5675	0.9	INK	57	Neutral	xxxxx	xxxxx	niebieski	blue	hit	n/a
180.4591	n/a	RESPONSE	n/a	n/a	n/a	n/a	n/a	n/a	n/a	blue
180.4675	1.0	ITI	n/a	n/a	n/a	n/a	n/a	n/a	n/a	n/a
181.4674	0.5	FIXCROSS	n/a	n/a	n/a	n/a	n/a	n/a	n/a	n/a
181.9674	0.8	INK	58	Neutral	xxxxxxxxx	xxxxxxxxx	zielony	green	hit	n/a
182.76	n/a	RESPONSE	n/a	n/a	n/a	n/a	n/a	n/a	n/a	green
182.7674	1.0	ITI	n/a	n/a	n/a	n/a	n/a	n/a	n/a	n/a
183.7674	0.5	FIXCROSS	n/a	n/a	n/a	n/a	n/a	n/a	n/a	n/a
184.2674	0.7166	INK	59	Neutral	xxxxxxx	xxxxxxx	żółty	yellow	hit	n/a
184.9809	n/a	RESPONSE	n/a	n/a	n/a	n/a	n/a	n/a	n/a	yellow
184.984	1.0	ITI	n/a	n/a	n/a	n/a	n/a	n/a	n/a	n/a
185.984	0.5	FIXCROSS	n/a	n/a	n/a	n/a	n/a	n/a	n/a	n/a
186.484	0.7333	INK	60	Neutral	xxxxxxx	xxxxxxx	żółty	yellow	hit	n/a
187.2019	n/a	RESPONSE	n/a	n/a	n/a	n/a	n/a	n/a	n/a	yellow
187.2173	1.0	ITI	n/a	n/a	n/a	n/a	n/a	n/a	n/a	n/a
188.2173	0.5	FIXCROSS	n/a	n/a	n/a	n/a	n/a	n/a	n/a	n/a
188.7173	0.9833	INK	61	Neutral	xxxxxxxxx	xxxxxxxxx	zielony	green	hit	n/a
189.6945	n/a	RESPONSE	n/a	n/a	n/a	n/a	n/a	n/a	n/a	green
189.7006	1.0	ITI	n/a	n/a	n/a	n/a	n/a	n/a	n/a	n/a
190.7006	0.5	FIXCROSS	n/a	n/a	n/a	n/a	n/a	n/a	n/a	n/a
191.2006	0.8833	INK	62	Incongruent	zielony	green	niebieski	blue	hit	n/a
192.0753	n/a	RESPONSE	n/a	n/a	n/a	n/a	n/a	n/a	n/a	blue
192.0839	1.0	ITI	n/a	n/a	n/a	n/a	n/a	n/a	n/a	n/a
193.0839	0.5	FIXCROSS	n/a	n/a	n/a	n/a	n/a	n/a	n/a	n/a
193.5839	0.85	INK	63	Incongruent	żółty	yellow	niebieski	blue	hit	n/a
194.4242	n/a	RESPONSE	n/a	n/a	n/a	n/a	n/a	n/a	n/a	blue
194.4339	1.0	ITI	n/a	n/a	n/a	n/a	n/a	n/a	n/a	n/a
195.4338	0.5	FIXCROSS	n/a	n/a	n/a	n/a	n/a	n/a	n/a	n/a
195.9338	0.7	INK	64	Incongruent	zielony	green	żółty	yellow	hit	n/a
196.6291	n/a	RESPONSE	n/a	n/a	n/a	n/a	n/a	n/a	n/a	yellow
196.6338	1.0	ITI	n/a	n/a	n/a	n/a	n/a	n/a	n/a	n/a
197.6338	0.5	FIXCROSS	n/a	n/a	n/a	n/a	n/a	n/a	n/a	n/a
198.1338	0.8166	INK	65	Neutral	xxxxxxxx	xxxxxxxx	zielony	green	hit	n/a
198.946	n/a	RESPONSE	n/a	n/a	n/a	n/a	n/a	n/a	n/a	green
198.9504	1.0	ITI	n/a	n/a	n/a	n/a	n/a	n/a	n/a	n/a
199.9504	0.5	FIXCROSS	n/a	n/a	n/a	n/a	n/a	n/a	n/a	n/a
200.4504	0.7333	INK	66	Incongruent	żółty	yellow	czerwony	red	hit	n/a
201.167	n/a	RESPONSE	n/a	n/a	n/a	n/a	n/a	n/a	n/a	red
201.1837	1.0	ITI	n/a	n/a	n/a	n/a	n/a	n/a	n/a	n/a
202.1837	0.5	FIXCROSS	n/a	n/a	n/a	n/a	n/a	n/a	n/a	n/a
202.6837	0.7666	INK	67	Incongruent	niebieski	blue	czerwony	red	hit	n/a
203.4358	n/a	RESPONSE	n/a	n/a	n/a	n/a	n/a	n/a	n/a	red
203.4504	1.0	ITI	n/a	n/a	n/a	n/a	n/a	n/a	n/a	n/a
204.4503	0.5	FIXCROSS	n/a	n/a	n/a	n/a	n/a	n/a	n/a	n/a
204.9503	0.9167	INK	68	Incongruent	czerwony	red	zielony	green	hit	n/a
205.8486	n/a	RESPONSE	n/a	n/a	n/a	n/a	n/a	n/a	n/a	green
205.867	1.0	ITI	n/a	n/a	n/a	n/a	n/a	n/a	n/a	n/a
206.867	0.5	FIXCROSS	n/a	n/a	n/a	n/a	n/a	n/a	n/a	n/a
207.3669	1.2166	INK	69	Incongruent	czerwony	red	zielony	green	hit	n/a
208.5808	n/a	RESPONSE	n/a	n/a	n/a	n/a	n/a	n/a	n/a	green
208.5836	1.0	ITI	n/a	n/a	n/a	n/a	n/a	n/a	n/a	n/a
209.5836	0.5	FIXCROSS	n/a	n/a	n/a	n/a	n/a	n/a	n/a	n/a
210.0836	0.8166	INK	70	Neutral	xxxxx	xxxxx	czerwony	red	hit	n/a
210.8816	n/a	RESPONSE	n/a	n/a	n/a	n/a	n/a	n/a	n/a	red
210.9002	1.0	ITI	n/a	n/a	n/a	n/a	n/a	n/a	n/a	n/a
211.9002	0.5	FIXCROSS	n/a	n/a	n/a	n/a	n/a	n/a	n/a	n/a
212.4002	0.9333	INK	71	Incongruent	żółty	yellow	niebieski	blue	hit	n/a
213.3263	n/a	RESPONSE	n/a	n/a	n/a	n/a	n/a	n/a	n/a	blue
213.3335	1.0	ITI	n/a	n/a	n/a	n/a	n/a	n/a	n/a	n/a
214.3335	0.5	FIXCROSS	n/a	n/a	n/a	n/a	n/a	n/a	n/a	n/a
214.8335	0.95	INK	72	Neutral	xxxxxxxxx	xxxxxxxxx	żółty	yellow	hit	n/a
215.7709	n/a	RESPONSE	n/a	n/a	n/a	n/a	n/a	n/a	n/a	yellow
215.7834	1.0333	ITI	n/a	n/a	n/a	n/a	n/a	n/a	n/a	n/a
242.055	n/a	RESPONSE	n/a	n/a	n/a	n/a	n/a	n/a	n/a	n/a
242.0829	1.0	ITI	n/a	n/a	n/a	n/a	n/a	n/a	n/a	n/a
243.0829	0.5	FIXCROSS	n/a	n/a	n/a	n/a	n/a	n/a	n/a	n/a
243.5829	1.0333	T_COLOR_NAME	1	Neutral	żółty	yellow	Neutral	Neutral	hit	n/a
244.6116	n/a	RESPONSE	n/a	n/a	n/a	n/a	n/a	n/a	n/a	yellow
244.6162	0.5	FEEDBACK	n/a	n/a	n/a	n/a	n/a	n/a	n/a	n/a
245.1162	1.0	ITI	n/a	n/a	n/a	n/a	n/a	n/a	n/a	n/a
246.1162	0.5	FIXCROSS	n/a	n/a	n/a	n/a	n/a	n/a	n/a	n/a
246.6162	2.1	T_COLOR_NAME	2	Incongruent	czerwony	red	zielony	green	hit	n/a
248.702	n/a	RESPONSE	n/a	n/a	n/a	n/a	n/a	n/a	n/a	red
248.7161	0.5	FEEDBACK	n/a	n/a	n/a	n/a	n/a	n/a	n/a	n/a
249.2161	1.0	ITI	n/a	n/a	n/a	n/a	n/a	n/a	n/a	n/a
250.2161	0.5	FIXCROSS	n/a	n/a	n/a	n/a	n/a	n/a	n/a	n/a
250.7161	1.8333	T_COLOR_NAME	3	Incongruent	zielony	green	niebieski	blue	hit	n/a
252.5367	n/a	RESPONSE	n/a	n/a	n/a	n/a	n/a	n/a	n/a	green
252.5494	0.5	FEEDBACK	n/a	n/a	n/a	n/a	n/a	n/a	n/a	n/a
253.0494	1.0	ITI	n/a	n/a	n/a	n/a	n/a	n/a	n/a	n/a
254.0494	0.5	FIXCROSS	n/a	n/a	n/a	n/a	n/a	n/a	n/a	n/a
254.5494	1.1	T_COLOR_NAME	4	Incongruent	żółty	yellow	zielony	green	hit	n/a
255.6365	n/a	RESPONSE	n/a	n/a	n/a	n/a	n/a	n/a	n/a	yellow
255.6493	0.5	FEEDBACK	n/a	n/a	n/a	n/a	n/a	n/a	n/a	n/a
256.1493	1.0	ITI	n/a	n/a	n/a	n/a	n/a	n/a	n/a	n/a
257.1493	0.5	FIXCROSS	n/a	n/a	n/a	n/a	n/a	n/a	n/a	n/a
257.6493	1.0166	T_COLOR_NAME	5	Neutral	czerwony	red	Neutral	Neutral	hit	n/a
258.6564	n/a	RESPONSE	n/a	n/a	n/a	n/a	n/a	n/a	n/a	red
258.6659	0.5	FEEDBACK	n/a	n/a	n/a	n/a	n/a	n/a	n/a	n/a
259.1659	1.0	ITI	n/a	n/a	n/a	n/a	n/a	n/a	n/a	n/a
260.1659	0.5	FIXCROSS	n/a	n/a	n/a	n/a	n/a	n/a	n/a	n/a
260.6659	0.9666	T_COLOR_NAME	6	Neutral	żółty	yellow	Neutral	Neutral	hit	n/a
261.6283	n/a	RESPONSE	n/a	n/a	n/a	n/a	n/a	n/a	n/a	yellow
261.6325	0.5	FEEDBACK	n/a	n/a	n/a	n/a	n/a	n/a	n/a	n/a
262.1325	1.0	ITI	n/a	n/a	n/a	n/a	n/a	n/a	n/a	n/a
263.1325	0.5	FIXCROSS	n/a	n/a	n/a	n/a	n/a	n/a	n/a	n/a
263.6325	1.3167	T_COLOR_NAME	7	Incongruent	niebieski	blue	zielony	green	hit	n/a
264.9358	n/a	RESPONSE	n/a	n/a	n/a	n/a	n/a	n/a	n/a	blue
264.9492	0.5	FEEDBACK	n/a	n/a	n/a	n/a	n/a	n/a	n/a	n/a
265.4491	1.0	ITI	n/a	n/a	n/a	n/a	n/a	n/a	n/a	n/a
266.4491	0.5	FIXCROSS	n/a	n/a	n/a	n/a	n/a	n/a	n/a	n/a
266.9491	0.9	T_COLOR_NAME	8	Neutral	zielony	green	Neutral	Neutral	hit	n/a
267.8439	n/a	RESPONSE	n/a	n/a	n/a	n/a	n/a	n/a	n/a	green
267.8491	0.5	FEEDBACK	n/a	n/a	n/a	n/a	n/a	n/a	n/a	n/a
268.3491	1.0	ITI	n/a	n/a	n/a	n/a	n/a	n/a	n/a	n/a
269.3491	0.5	FIXCROSS	n/a	n/a	n/a	n/a	n/a	n/a	n/a	n/a
269.8491	1.2333	T_COLOR_NAME	9	Neutral	niebieski	blue	Neutral	Neutral	hit	n/a
271.0715	n/a	RESPONSE	n/a	n/a	n/a	n/a	n/a	n/a	n/a	blue
271.0824	0.5	FEEDBACK	n/a	n/a	n/a	n/a	n/a	n/a	n/a	n/a
271.5824	1.0	ITI	n/a	n/a	n/a	n/a	n/a	n/a	n/a	n/a
272.5823	0.5	FIXCROSS	n/a	n/a	n/a	n/a	n/a	n/a	n/a	n/a
273.0823	0.8833	T_COLOR_NAME	10	Incongruent	czerwony	red	żółty	yellow	hit	n/a
273.9476	n/a	RESPONSE	n/a	n/a	n/a	n/a	n/a	n/a	n/a	red
273.9656	0.5	FEEDBACK	n/a	n/a	n/a	n/a	n/a	n/a	n/a	n/a
274.4656	1.0	ITI	n/a	n/a	n/a	n/a	n/a	n/a	n/a	n/a
275.4656	0.5	FIXCROSS	n/a	n/a	n/a	n/a	n/a	n/a	n/a	n/a
275.9656	0.85	T_COLOR_NAME	11	Neutral	czerwony	red	Neutral	Neutral	hit	n/a
276.8077	n/a	RESPONSE	n/a	n/a	n/a	n/a	n/a	n/a	n/a	red
276.8156	0.5	FEEDBACK	n/a	n/a	n/a	n/a	n/a	n/a	n/a	n/a
277.3156	1.0	ITI	n/a	n/a	n/a	n/a	n/a	n/a	n/a	n/a
278.3156	0.5	FIXCROSS	n/a	n/a	n/a	n/a	n/a	n/a	n/a	n/a
278.8155	1.4	T_COLOR_NAME	12	Incongruent	niebieski	blue	czerwony	red	hit	n/a
280.1949	n/a	RESPONSE	n/a	n/a	n/a	n/a	n/a	n/a	n/a	blue
280.2155	0.5	FEEDBACK	n/a	n/a	n/a	n/a	n/a	n/a	n/a	n/a
280.7155	1.0	ITI	n/a	n/a	n/a	n/a	n/a	n/a	n/a	n/a
285.0523	n/a	RESPONSE	n/a	n/a	n/a	n/a	n/a	n/a	n/a	n/a
285.0821	1.0	ITI	n/a	n/a	n/a	n/a	n/a	n/a	n/a	n/a
286.0821	0.5	FIXCROSS	n/a	n/a	n/a	n/a	n/a	n/a	n/a	n/a
286.5821	1.1833	COLOR_NAME	1	Incongruent	niebieski	blue	czerwony	red	hit	n/a
287.7527	n/a	RESPONSE	n/a	n/a	n/a	n/a	n/a	n/a	n/a	blue
287.7654	1.0	ITI	n/a	n/a	n/a	n/a	n/a	n/a	n/a	n/a
288.7654	0.5	FIXCROSS	n/a	n/a	n/a	n/a	n/a	n/a	n/a	n/a
289.2653	0.9833	COLOR_NAME	2	Incongruent	czerwony	red	niebieski	blue	hit	n/a
290.2293	n/a	RESPONSE	n/a	n/a	n/a	n/a	n/a	n/a	n/a	red
290.2487	1.0	ITI	n/a	n/a	n/a	n/a	n/a	n/a	n/a	n/a
291.2486	0.5	FIXCROSS	n/a	n/a	n/a	n/a	n/a	n/a	n/a	n/a
291.7486	0.8833	COLOR_NAME	3	Neutral	żółty	yellow	Neutral	Neutral	hit	n/a
292.6258	n/a	RESPONSE	n/a	n/a	n/a	n/a	n/a	n/a	n/a	yellow
292.632	1.0	ITI	n/a	n/a	n/a	n/a	n/a	n/a	n/a	n/a
293.6319	0.5	FIXCROSS	n/a	n/a	n/a	n/a	n/a	n/a	n/a	n/a
294.1319	0.9	COLOR_NAME	4	Neutral	niebieski	blue	Neutral	Neutral	hit	n/a
295.0226	n/a	RESPONSE	n/a	n/a	n/a	n/a	n/a	n/a	n/a	blue
295.0319	1.0	ITI	n/a	n/a	n/a	n/a	n/a	n/a	n/a	n/a
296.0319	0.5	FIXCROSS	n/a	n/a	n/a	n/a	n/a	n/a	n/a	n/a
296.5319	1.1833	COLOR_NAME	5	Incongruent	zielony	green	żółty	yellow	hit	n/a
297.7069	n/a	RESPONSE	n/a	n/a	n/a	n/a	n/a	n/a	n/a	green
297.7152	1.0	ITI	n/a	n/a	n/a	n/a	n/a	n/a	n/a	n/a
298.7152	0.5	FIXCROSS	n/a	n/a	n/a	n/a	n/a	n/a	n/a	n/a
299.2152	1.2333	COLOR_NAME	6	Incongruent	zielony	green	czerwony	red	hit	n/a
300.4393	n/a	RESPONSE	n/a	n/a	n/a	n/a	n/a	n/a	n/a	green
300.4485	1.0	ITI	n/a	n/a	n/a	n/a	n/a	n/a	n/a	n/a
301.4485	0.5	FIXCROSS	n/a	n/a	n/a	n/a	n/a	n/a	n/a	n/a
301.9484	0.75	COLOR_NAME	7	Incongruent	żółty	yellow	zielony	green	hit	n/a
302.6921	n/a	RESPONSE	n/a	n/a	n/a	n/a	n/a	n/a	n/a	yellow
302.6984	1.0	ITI	n/a	n/a	n/a	n/a	n/a	n/a	n/a	n/a
303.6984	0.5	FIXCROSS	n/a	n/a	n/a	n/a	n/a	n/a	n/a	n/a
304.1984	0.7166	COLOR_NAME	8	Neutral	żółty	yellow	Neutral	Neutral	hit	n/a
304.8972	n/a	RESPONSE	n/a	n/a	n/a	n/a	n/a	n/a	n/a	yellow
304.915	1.0	ITI	n/a	n/a	n/a	n/a	n/a	n/a	n/a	n/a
305.915	0.5	FIXCROSS	n/a	n/a	n/a	n/a	n/a	n/a	n/a	n/a
306.415	0.9833	COLOR_NAME	9	Neutral	zielony	green	Neutral	Neutral	hit	n/a
307.3897	n/a	RESPONSE	n/a	n/a	n/a	n/a	n/a	n/a	n/a	green
307.3983	1.0	ITI	n/a	n/a	n/a	n/a	n/a	n/a	n/a	n/a
308.3983	0.5	FIXCROSS	n/a	n/a	n/a	n/a	n/a	n/a	n/a	n/a
308.8983	0.6833	COLOR_NAME	10	Neutral	żółty	yellow	Neutral	Neutral	hit	n/a
309.5628	n/a	RESPONSE	n/a	n/a	n/a	n/a	n/a	n/a	n/a	yellow
309.5816	1.0	ITI	n/a	n/a	n/a	n/a	n/a	n/a	n/a	n/a
310.5816	0.5	FIXCROSS	n/a	n/a	n/a	n/a	n/a	n/a	n/a	n/a
311.0816	0.7166	COLOR_NAME	11	Neutral	czerwony	red	Neutral	Neutral	hit	n/a
311.7838	n/a	RESPONSE	n/a	n/a	n/a	n/a	n/a	n/a	n/a	red
311.7982	1.0	ITI	n/a	n/a	n/a	n/a	n/a	n/a	n/a	n/a
312.7982	0.5	FIXCROSS	n/a	n/a	n/a	n/a	n/a	n/a	n/a	n/a
313.2982	0.7	COLOR_NAME	12	Neutral	czerwony	red	Neutral	Neutral	hit	n/a
313.9888	n/a	RESPONSE	n/a	n/a	n/a	n/a	n/a	n/a	n/a	red
313.9982	1.0	ITI	n/a	n/a	n/a	n/a	n/a	n/a	n/a	n/a
314.9982	0.5	FIXCROSS	n/a	n/a	n/a	n/a	n/a	n/a	n/a	n/a
315.4982	0.75	COLOR_NAME	13	Incongruent	czerwony	red	zielony	green	hit	n/a
316.2417	n/a	RESPONSE	n/a	n/a	n/a	n/a	n/a	n/a	n/a	red
316.2482	1.0	ITI	n/a	n/a	n/a	n/a	n/a	n/a	n/a	n/a
317.2481	0.5	FIXCROSS	n/a	n/a	n/a	n/a	n/a	n/a	n/a	n/a
317.7481	1.0	COLOR_NAME	14	Incongruent	żółty	yellow	zielony	green	hit	n/a
318.7343	n/a	RESPONSE	n/a	n/a	n/a	n/a	n/a	n/a	n/a	yellow
318.7481	1.0	ITI	n/a	n/a	n/a	n/a	n/a	n/a	n/a	n/a
319.7481	0.5	FIXCROSS	n/a	n/a	n/a	n/a	n/a	n/a	n/a	n/a
320.2481	0.7	COLOR_NAME	15	Incongruent	czerwony	red	zielony	green	hit	n/a
320.9393	n/a	RESPONSE	n/a	n/a	n/a	n/a	n/a	n/a	n/a	red
320.9481	1.0	ITI	n/a	n/a	n/a	n/a	n/a	n/a	n/a	n/a
321.948	0.5	FIXCROSS	n/a	n/a	n/a	n/a	n/a	n/a	n/a	n/a
322.448	0.7	COLOR_NAME	16	Incongruent	czerwony	red	niebieski	blue	hit	n/a
323.1443	n/a	RESPONSE	n/a	n/a	n/a	n/a	n/a	n/a	n/a	red
323.148	1.0	ITI	n/a	n/a	n/a	n/a	n/a	n/a	n/a	n/a
324.148	0.5	FIXCROSS	n/a	n/a	n/a	n/a	n/a	n/a	n/a	n/a
324.648	0.5833	COLOR_NAME	17	Incongruent	czerwony	red	niebieski	blue	hit	n/a
325.2216	n/a	RESPONSE	n/a	n/a	n/a	n/a	n/a	n/a	n/a	red
325.2313	1.0	ITI	n/a	n/a	n/a	n/a	n/a	n/a	n/a	n/a
326.2313	0.5	FIXCROSS	n/a	n/a	n/a	n/a	n/a	n/a	n/a	n/a
326.7313	0.65	COLOR_NAME	18	Neutral	żółty	yellow	Neutral	Neutral	hit	n/a
327.3626	n/a	RESPONSE	n/a	n/a	n/a	n/a	n/a	n/a	n/a	yellow
327.3813	1.0	ITI	n/a	n/a	n/a	n/a	n/a	n/a	n/a	n/a
328.3813	0.5	FIXCROSS	n/a	n/a	n/a	n/a	n/a	n/a	n/a	n/a
328.8812	0.6833	COLOR_NAME	19	Neutral	czerwony	red	Neutral	Neutral	hit	n/a
329.5516	n/a	RESPONSE	n/a	n/a	n/a	n/a	n/a	n/a	n/a	red
329.5646	1.0	ITI	n/a	n/a	n/a	n/a	n/a	n/a	n/a	n/a
330.5645	0.5	FIXCROSS	n/a	n/a	n/a	n/a	n/a	n/a	n/a	n/a
331.0645	1.0167	COLOR_NAME	20	Incongruent	zielony	green	żółty	yellow	hit	n/a
332.0763	n/a	RESPONSE	n/a	n/a	n/a	n/a	n/a	n/a	n/a	green
332.0812	1.0	ITI	n/a	n/a	n/a	n/a	n/a	n/a	n/a	n/a
333.0812	0.5	FIXCROSS	n/a	n/a	n/a	n/a	n/a	n/a	n/a	n/a
333.5812	0.8333	COLOR_NAME	21	Incongruent	zielony	green	żółty	yellow	hit	n/a
334.4091	n/a	RESPONSE	n/a	n/a	n/a	n/a	n/a	n/a	n/a	green
334.4145	1.0	ITI	n/a	n/a	n/a	n/a	n/a	n/a	n/a	n/a
335.4145	0.5	FIXCROSS	n/a	n/a	n/a	n/a	n/a	n/a	n/a	n/a
335.9144	0.85	COLOR_NAME	22	Neutral	zielony	green	Neutral	Neutral	hit	n/a
336.758	n/a	RESPONSE	n/a	n/a	n/a	n/a	n/a	n/a	n/a	green
336.7644	1.0	ITI	n/a	n/a	n/a	n/a	n/a	n/a	n/a	n/a
337.7644	0.5	FIXCROSS	n/a	n/a	n/a	n/a	n/a	n/a	n/a	n/a
338.2644	0.7333	COLOR_NAME	23	Incongruent	żółty	yellow	niebieski	blue	hit	n/a
338.979	n/a	RESPONSE	n/a	n/a	n/a	n/a	n/a	n/a	n/a	yellow
338.9977	1.0	ITI	n/a	n/a	n/a	n/a	n/a	n/a	n/a	n/a
339.9977	0.5	FIXCROSS	n/a	n/a	n/a	n/a	n/a	n/a	n/a	n/a
340.4977	0.9333	COLOR_NAME	24	Incongruent	niebieski	blue	żółty	yellow	hit	n/a
341.4237	n/a	RESPONSE	n/a	n/a	n/a	n/a	n/a	n/a	n/a	blue
341.431	1.0	ITI	n/a	n/a	n/a	n/a	n/a	n/a	n/a	n/a
342.431	0.5	FIXCROSS	n/a	n/a	n/a	n/a	n/a	n/a	n/a	n/a
342.931	0.8667	COLOR_NAME	25	Neutral	czerwony	red	Neutral	Neutral	hit	n/a
343.7884	n/a	RESPONSE	n/a	n/a	n/a	n/a	n/a	n/a	n/a	red
343.7976	1.0	ITI	n/a	n/a	n/a	n/a	n/a	n/a	n/a	n/a
344.7976	0.5	FIXCROSS	n/a	n/a	n/a	n/a	n/a	n/a	n/a	n/a
345.2976	0.8833	COLOR_NAME	26	Neutral	zielony	green	Neutral	Neutral	hit	n/a
346.1693	n/a	RESPONSE	n/a	n/a	n/a	n/a	n/a	n/a	n/a	green
346.1809	1.0	ITI	n/a	n/a	n/a	n/a	n/a	n/a	n/a	n/a
347.1809	0.5	FIXCROSS	n/a	n/a	n/a	n/a	n/a	n/a	n/a	n/a
347.6809	0.7667	COLOR_NAME	27	Incongruent	czerwony	red	żółty	yellow	hit	n/a
348.4381	n/a	RESPONSE	n/a	n/a	n/a	n/a	n/a	n/a	n/a	red
348.4475	1.0	ITI	n/a	n/a	n/a	n/a	n/a	n/a	n/a	n/a
349.4475	0.5	FIXCROSS	n/a	n/a	n/a	n/a	n/a	n/a	n/a	n/a
349.9475	1.1167	COLOR_NAME	28	Neutral	niebieski	blue	Neutral	Neutral	hit	n/a
351.0585	n/a	RESPONSE	n/a	n/a	n/a	n/a	n/a	n/a	n/a	blue
351.0642	1.0	ITI	n/a	n/a	n/a	n/a	n/a	n/a	n/a	n/a
352.0641	0.5	FIXCROSS	n/a	n/a	n/a	n/a	n/a	n/a	n/a	n/a
352.5641	1.0667	COLOR_NAME	29	Incongruent	zielony	green	niebieski	blue	hit	n/a
353.615	n/a	RESPONSE	n/a	n/a	n/a	n/a	n/a	n/a	n/a	green
353.6308	1.0	ITI	n/a	n/a	n/a	n/a	n/a	n/a	n/a	n/a
354.6307	0.5	FIXCROSS	n/a	n/a	n/a	n/a	n/a	n/a	n/a	n/a
355.1307	0.9	COLOR_NAME	30	Incongruent	niebieski	blue	żółty	yellow	hit	n/a
356.0277	n/a	RESPONSE	n/a	n/a	n/a	n/a	n/a	n/a	n/a	blue
356.0307	1.0	ITI	n/a	n/a	n/a	n/a	n/a	n/a	n/a	n/a
357.0307	0.5	FIXCROSS	n/a	n/a	n/a	n/a	n/a	n/a	n/a	n/a
357.5307	0.8667	COLOR_NAME	31	Neutral	niebieski	blue	Neutral	Neutral	hit	n/a
358.3925	n/a	RESPONSE	n/a	n/a	n/a	n/a	n/a	n/a	n/a	blue
358.3973	1.0	ITI	n/a	n/a	n/a	n/a	n/a	n/a	n/a	n/a
359.3973	0.5	FIXCROSS	n/a	n/a	n/a	n/a	n/a	n/a	n/a	n/a
359.8973	0.95	COLOR_NAME	32	Neutral	zielony	green	Neutral	Neutral	hit	n/a
360.8371	n/a	RESPONSE	n/a	n/a	n/a	n/a	n/a	n/a	n/a	green
360.8473	1.0	ITI	n/a	n/a	n/a	n/a	n/a	n/a	n/a	n/a
361.8473	0.5	FIXCROSS	n/a	n/a	n/a	n/a	n/a	n/a	n/a	n/a
362.3473	0.7666	COLOR_NAME	33	Incongruent	żółty	yellow	niebieski	blue	hit	n/a
363.106	n/a	RESPONSE	n/a	n/a	n/a	n/a	n/a	n/a	n/a	yellow
363.1139	1.0	ITI	n/a	n/a	n/a	n/a	n/a	n/a	n/a	n/a
364.1139	0.5	FIXCROSS	n/a	n/a	n/a	n/a	n/a	n/a	n/a	n/a
364.6139	0.6667	COLOR_NAME	34	Incongruent	żółty	yellow	czerwony	red	hit	n/a
365.2633	n/a	RESPONSE	n/a	n/a	n/a	n/a	n/a	n/a	n/a	yellow
365.2805	1.0	ITI	n/a	n/a	n/a	n/a	n/a	n/a	n/a	n/a
366.2805	0.5	FIXCROSS	n/a	n/a	n/a	n/a	n/a	n/a	n/a	n/a
366.7805	0.6167	COLOR_NAME	35	Incongruent	żółty	yellow	czerwony	red	hit	n/a
367.3882	n/a	RESPONSE	n/a	n/a	n/a	n/a	n/a	n/a	n/a	yellow
367.3972	1.0	ITI	n/a	n/a	n/a	n/a	n/a	n/a	n/a	n/a
368.3971	0.5	FIXCROSS	n/a	n/a	n/a	n/a	n/a	n/a	n/a	n/a
368.8971	0.85	COLOR_NAME	36	Incongruent	czerwony	red	żółty	yellow	hit	n/a
369.7372	n/a	RESPONSE	n/a	n/a	n/a	n/a	n/a	n/a	n/a	red
369.7471	1.0	ITI	n/a	n/a	n/a	n/a	n/a	n/a	n/a	n/a
370.7471	0.5	FIXCROSS	n/a	n/a	n/a	n/a	n/a	n/a	n/a	n/a
371.2471	0.6166	COLOR_NAME	37	Neutral	czerwony	red	Neutral	Neutral	hit	n/a
371.8463	n/a	RESPONSE	n/a	n/a	n/a	n/a	n/a	n/a	n/a	red
371.8637	1.0	ITI	n/a	n/a	n/a	n/a	n/a	n/a	n/a	n/a
372.8637	0.5	FIXCROSS	n/a	n/a	n/a	n/a	n/a	n/a	n/a	n/a
373.3637	0.65	COLOR_NAME	38	Neutral	żółty	yellow	Neutral	Neutral	hit	n/a
374.0033	n/a	RESPONSE	n/a	n/a	n/a	n/a	n/a	n/a	n/a	yellow
374.0137	1.0	ITI	n/a	n/a	n/a	n/a	n/a	n/a	n/a	n/a
375.0137	0.5	FIXCROSS	n/a	n/a	n/a	n/a	n/a	n/a	n/a	n/a
375.5137	0.5833	COLOR_NAME	39	Neutral	czerwony	red	Neutral	Neutral	hit	n/a
376.0806	n/a	RESPONSE	n/a	n/a	n/a	n/a	n/a	n/a	n/a	red
376.097	1.0	ITI	n/a	n/a	n/a	n/a	n/a	n/a	n/a	n/a
377.097	0.5	FIXCROSS	n/a	n/a	n/a	n/a	n/a	n/a	n/a	n/a
377.597	0.9833	COLOR_NAME	40	Neutral	niebieski	blue	Neutral	Neutral	hit	n/a
378.5732	n/a	RESPONSE	n/a	n/a	n/a	n/a	n/a	n/a	n/a	blue
378.5803	1.0	ITI	n/a	n/a	n/a	n/a	n/a	n/a	n/a	n/a
379.5803	0.5	FIXCROSS	n/a	n/a	n/a	n/a	n/a	n/a	n/a	n/a
380.0802	0.7833	COLOR_NAME	41	Incongruent	zielony	green	niebieski	blue	hit	n/a
380.8581	n/a	RESPONSE	n/a	n/a	n/a	n/a	n/a	n/a	n/a	green
380.8636	1.0	ITI	n/a	n/a	n/a	n/a	n/a	n/a	n/a	n/a
381.8636	0.5	FIXCROSS	n/a	n/a	n/a	n/a	n/a	n/a	n/a	n/a
382.3635	0.8	COLOR_NAME	42	Neutral	zielony	green	Neutral	Neutral	hit	n/a
383.1588	n/a	RESPONSE	n/a	n/a	n/a	n/a	n/a	n/a	n/a	green
383.1635	1.0	ITI	n/a	n/a	n/a	n/a	n/a	n/a	n/a	n/a
384.1635	0.5	FIXCROSS	n/a	n/a	n/a	n/a	n/a	n/a	n/a	n/a
384.6635	1.1333	COLOR_NAME	43	Incongruent	niebieski	blue	zielony	green	hit	n/a
385.7792	n/a	RESPONSE	n/a	n/a	n/a	n/a	n/a	n/a	n/a	blue
385.7968	1.0	ITI	n/a	n/a	n/a	n/a	n/a	n/a	n/a	n/a
386.7968	0.5	FIXCROSS	n/a	n/a	n/a	n/a	n/a	n/a	n/a	n/a
387.2968	0.85	COLOR_NAME	44	Incongruent	niebieski	blue	czerwony	red	hit	n/a
388.128	n/a	RESPONSE	n/a	n/a	n/a	n/a	n/a	n/a	n/a	blue
388.1468	1.0	ITI	n/a	n/a	n/a	n/a	n/a	n/a	n/a	n/a
389.1467	0.5	FIXCROSS	n/a	n/a	n/a	n/a	n/a	n/a	n/a	n/a
389.6467	0.8333	COLOR_NAME	45	Incongruent	zielony	green	czerwony	red	hit	n/a
390.4768	n/a	RESPONSE	n/a	n/a	n/a	n/a	n/a	n/a	n/a	green
390.48	1.0	ITI	n/a	n/a	n/a	n/a	n/a	n/a	n/a	n/a
391.48	0.5	FIXCROSS	n/a	n/a	n/a	n/a	n/a	n/a	n/a	n/a
391.98	0.7333	COLOR_NAME	46	Incongruent	czerwony	red	zielony	green	hit	n/a
392.6978	n/a	RESPONSE	n/a	n/a	n/a	n/a	n/a	n/a	n/a	red
392.7133	1.0	ITI	n/a	n/a	n/a	n/a	n/a	n/a	n/a	n/a
393.7133	0.5	FIXCROSS	n/a	n/a	n/a	n/a	n/a	n/a	n/a	n/a
394.2133	0.8166	COLOR_NAME	47	Incongruent	zielony	green	czerwony	red	hit	n/a
395.0145	n/a	RESPONSE	n/a	n/a	n/a	n/a	n/a	n/a	n/a	green
395.03	1.0	ITI	n/a	n/a	n/a	n/a	n/a	n/a	n/a	n/a
396.0299	0.5	FIXCROSS	n/a	n/a	n/a	n/a	n/a	n/a	n/a	n/a
396.5299	0.6667	COLOR_NAME	48	Neutral	żółty	yellow	Neutral	Neutral	hit	n/a
397.1875	n/a	RESPONSE	n/a	n/a	n/a	n/a	n/a	n/a	n/a	yellow
397.1966	1.0	ITI	n/a	n/a	n/a	n/a	n/a	n/a	n/a	n/a
398.1966	0.5	FIXCROSS	n/a	n/a	n/a	n/a	n/a	n/a	n/a	n/a
398.6966	0.9666	COLOR_NAME	49	Neutral	niebieski	blue	Neutral	Neutral	hit	n/a
399.6481	n/a	RESPONSE	n/a	n/a	n/a	n/a	n/a	n/a	n/a	blue
399.6632	1.0	ITI	n/a	n/a	n/a	n/a	n/a	n/a	n/a	n/a
400.6632	0.5	FIXCROSS	n/a	n/a	n/a	n/a	n/a	n/a	n/a	n/a
401.1632	0.75	COLOR_NAME	50	Neutral	żółty	yellow	Neutral	Neutral	hit	n/a
401.9009	n/a	RESPONSE	n/a	n/a	n/a	n/a	n/a	n/a	n/a	yellow
401.9132	1.0	ITI	n/a	n/a	n/a	n/a	n/a	n/a	n/a	n/a
402.9131	0.5	FIXCROSS	n/a	n/a	n/a	n/a	n/a	n/a	n/a	n/a
403.4131	0.7667	COLOR_NAME	51	Neutral	zielony	green	Neutral	Neutral	hit	n/a
404.17	n/a	RESPONSE	n/a	n/a	n/a	n/a	n/a	n/a	n/a	green
404.1798	1.0	ITI	n/a	n/a	n/a	n/a	n/a	n/a	n/a	n/a
405.1798	0.5	FIXCROSS	n/a	n/a	n/a	n/a	n/a	n/a	n/a	n/a
405.6798	1.05	COLOR_NAME	52	Incongruent	niebieski	blue	zielony	green	hit	n/a
406.7103	n/a	RESPONSE	n/a	n/a	n/a	n/a	n/a	n/a	n/a	blue
406.7297	1.0	ITI	n/a	n/a	n/a	n/a	n/a	n/a	n/a	n/a
407.7297	0.5	FIXCROSS	n/a	n/a	n/a	n/a	n/a	n/a	n/a	n/a
408.2297	0.6333	COLOR_NAME	53	Neutral	żółty	yellow	Neutral	Neutral	hit	n/a
408.8514	n/a	RESPONSE	n/a	n/a	n/a	n/a	n/a	n/a	n/a	yellow
408.863	1.0	ITI	n/a	n/a	n/a	n/a	n/a	n/a	n/a	n/a
409.863	0.5	FIXCROSS	n/a	n/a	n/a	n/a	n/a	n/a	n/a	n/a
410.363	1.0	COLOR_NAME	54	Neutral	niebieski	blue	Neutral	Neutral	hit	n/a
411.3599	n/a	RESPONSE	n/a	n/a	n/a	n/a	n/a	n/a	n/a	blue
411.363	1.0	ITI	n/a	n/a	n/a	n/a	n/a	n/a	n/a	n/a
412.363	0.5	FIXCROSS	n/a	n/a	n/a	n/a	n/a	n/a	n/a	n/a
412.8629	0.7167	COLOR_NAME	55	Incongruent	żółty	yellow	niebieski	blue	hit	n/a
413.5648	n/a	RESPONSE	n/a	n/a	n/a	n/a	n/a	n/a	n/a	yellow
413.5796	1.0	ITI	n/a	n/a	n/a	n/a	n/a	n/a	n/a	n/a
414.5796	0.5	FIXCROSS	n/a	n/a	n/a	n/a	n/a	n/a	n/a	n/a
415.0796	0.9333	COLOR_NAME	56	Neutral	czerwony	red	Neutral	Neutral	hit	n/a
415.9934	n/a	RESPONSE	n/a	n/a	n/a	n/a	n/a	n/a	n/a	red
416.0129	1.0	ITI	n/a	n/a	n/a	n/a	n/a	n/a	n/a	n/a
417.0129	0.5	FIXCROSS	n/a	n/a	n/a	n/a	n/a	n/a	n/a	n/a
417.5129	0.85	COLOR_NAME	57	Neutral	niebieski	blue	Neutral	Neutral	hit	n/a
418.3582	n/a	RESPONSE	n/a	n/a	n/a	n/a	n/a	n/a	n/a	blue
418.3628	1.0	ITI	n/a	n/a	n/a	n/a	n/a	n/a	n/a	n/a
419.3628	0.5	FIXCROSS	n/a	n/a	n/a	n/a	n/a	n/a	n/a	n/a
419.8628	1.4333	COLOR_NAME	58	Incongruent	żółty	yellow	czerwony	red	hit	n/a
421.2821	n/a	RESPONSE	n/a	n/a	n/a	n/a	n/a	n/a	n/a	yellow
421.2961	1.0	ITI	n/a	n/a	n/a	n/a	n/a	n/a	n/a	n/a
422.2961	0.5	FIXCROSS	n/a	n/a	n/a	n/a	n/a	n/a	n/a	n/a
422.7961	2.3	COLOR_NAME	59	Neutral	zielony	green	Neutral	Neutral	hit	n/a
425.085	n/a	RESPONSE	n/a	n/a	n/a	n/a	n/a	n/a	n/a	green
425.096	1.0	ITI	n/a	n/a	n/a	n/a	n/a	n/a	n/a	n/a
426.096	0.5	FIXCROSS	n/a	n/a	n/a	n/a	n/a	n/a	n/a	n/a
426.596	0.9333	COLOR_NAME	60	Neutral	niebieski	blue	Neutral	Neutral	hit	n/a
427.5137	n/a	RESPONSE	n/a	n/a	n/a	n/a	n/a	n/a	n/a	blue
427.5293	1.0	ITI	n/a	n/a	n/a	n/a	n/a	n/a	n/a	n/a
428.5293	0.5	FIXCROSS	n/a	n/a	n/a	n/a	n/a	n/a	n/a	n/a
429.0293	0.7667	COLOR_NAME	61	Incongruent	czerwony	red	żółty	yellow	hit	n/a
429.7826	n/a	RESPONSE	n/a	n/a	n/a	n/a	n/a	n/a	n/a	red
429.796	1.0	ITI	n/a	n/a	n/a	n/a	n/a	n/a	n/a	n/a
430.7959	0.5	FIXCROSS	n/a	n/a	n/a	n/a	n/a	n/a	n/a	n/a
431.2959	0.8667	COLOR_NAME	62	Neutral	czerwony	red	Neutral	Neutral	hit	n/a
432.1473	n/a	RESPONSE	n/a	n/a	n/a	n/a	n/a	n/a	n/a	red
432.1626	1.0	ITI	n/a	n/a	n/a	n/a	n/a	n/a	n/a	n/a
433.1626	0.5	FIXCROSS	n/a	n/a	n/a	n/a	n/a	n/a	n/a	n/a
433.6625	0.9166	COLOR_NAME	63	Incongruent	niebieski	blue	żółty	yellow	hit	n/a
434.56	n/a	RESPONSE	n/a	n/a	n/a	n/a	n/a	n/a	n/a	blue
434.5792	1.0	ITI	n/a	n/a	n/a	n/a	n/a	n/a	n/a	n/a
435.5792	0.5	FIXCROSS	n/a	n/a	n/a	n/a	n/a	n/a	n/a	n/a
436.0792	1.1	COLOR_NAME	64	Neutral	czerwony	red	Neutral	Neutral	hit	n/a
437.1644	n/a	RESPONSE	n/a	n/a	n/a	n/a	n/a	n/a	n/a	red
437.1792	1.0	ITI	n/a	n/a	n/a	n/a	n/a	n/a	n/a	n/a
438.1791	0.5	FIXCROSS	n/a	n/a	n/a	n/a	n/a	n/a	n/a	n/a
438.6791	0.8167	COLOR_NAME	65	Neutral	żółty	yellow	Neutral	Neutral	hit	n/a
439.4813	n/a	RESPONSE	n/a	n/a	n/a	n/a	n/a	n/a	n/a	yellow
439.4958	1.0	ITI	n/a	n/a	n/a	n/a	n/a	n/a	n/a	n/a
440.4957	0.5	FIXCROSS	n/a	n/a	n/a	n/a	n/a	n/a	n/a	n/a
440.9957	1.3166	COLOR_NAME	66	Incongruent	niebieski	blue	zielony	green	hit	n/a
442.2934	n/a	RESPONSE	n/a	n/a	n/a	n/a	n/a	n/a	n/a	blue
442.3124	1.0	ITI	n/a	n/a	n/a	n/a	n/a	n/a	n/a	n/a
443.3124	0.5	FIXCROSS	n/a	n/a	n/a	n/a	n/a	n/a	n/a	n/a
443.8123	0.95	COLOR_NAME	67	Incongruent	zielony	green	niebieski	blue	hit	n/a
444.754	n/a	RESPONSE	n/a	n/a	n/a	n/a	n/a	n/a	n/a	green
444.7623	1.0	ITI	n/a	n/a	n/a	n/a	n/a	n/a	n/a	n/a
445.7623	0.5	FIXCROSS	n/a	n/a	n/a	n/a	n/a	n/a	n/a	n/a
446.2623	1.0166	COLOR_NAME	68	Neutral	niebieski	blue	Neutral	Neutral	hit	n/a
447.2626	n/a	RESPONSE	n/a	n/a	n/a	n/a	n/a	n/a	n/a	blue
447.279	1.0	ITI	n/a	n/a	n/a	n/a	n/a	n/a	n/a	n/a
448.2789	0.5	FIXCROSS	n/a	n/a	n/a	n/a	n/a	n/a	n/a	n/a
448.7789	0.8333	COLOR_NAME	69	Incongruent	żółty	yellow	zielony	green	hit	n/a
449.5954	n/a	RESPONSE	n/a	n/a	n/a	n/a	n/a	n/a	n/a	yellow
449.6122	1.0	ITI	n/a	n/a	n/a	n/a	n/a	n/a	n/a	n/a
450.6122	0.5	FIXCROSS	n/a	n/a	n/a	n/a	n/a	n/a	n/a	n/a
451.1122	0.95	COLOR_NAME	70	Neutral	zielony	green	Neutral	Neutral	hit	n/a
452.056	n/a	RESPONSE	n/a	n/a	n/a	n/a	n/a	n/a	n/a	green
452.0622	1.0	ITI	n/a	n/a	n/a	n/a	n/a	n/a	n/a	n/a
453.0622	0.5	FIXCROSS	n/a	n/a	n/a	n/a	n/a	n/a	n/a	n/a
453.5622	1.1	COLOR_NAME	71	Incongruent	niebieski	blue	czerwony	red	hit	n/a
454.6446	n/a	RESPONSE	n/a	n/a	n/a	n/a	n/a	n/a	n/a	blue
454.6621	1.0	ITI	n/a	n/a	n/a	n/a	n/a	n/a	n/a	n/a
455.6621	0.5	FIXCROSS	n/a	n/a	n/a	n/a	n/a	n/a	n/a	n/a
456.1621	0.9666	COLOR_NAME	72	Neutral	zielony	green	Neutral	Neutral	hit	n/a
457.1212	n/a	RESPONSE	n/a	n/a	n/a	n/a	n/a	n/a	n/a	green
457.1288	1.0166	ITI	n/a	n/a	n/a	n/a	n/a	n/a	n/a	n/a
460.5247	n/a	RESPONSE	n/a	n/a	n/a	n/a	n/a	n/a	n/a	n/a
