onset	duration	trial_type	melody_number	melody_part	key	sound	action
0.0	14.083	CUE_START	n/a	n/a	n/a	n/a	n/a
14.084	7.759	FIXCROSS	n/a	n/a	n/a	n/a	n/a
21.843	6.316	CUE_LISTEN	M1	1	n/a	n/a	n/a
28.159	7.758	FIXCROSS	n/a	n/a	n/a	n/a	n/a
35.917	6.325	CUE_PLAYBACK_RIGHT_HAND	M1	1	n/a	n/a	n/a
36.625	n/a	RESPONSE	M1	1	19	G4	press
37.19	n/a	RESPONSE	M1	1	16	E4	press
37.397	n/a	RESPONSE	M1	1	19	G4	release
37.426	n/a	RESPONSE	M1	1	16	E4	release
37.73	n/a	RESPONSE	M1	1	16	E4	press
38.081	n/a	RESPONSE	M1	1	16	E4	release
38.234	n/a	RESPONSE	M1	1	17	F4	press
38.719	n/a	RESPONSE	M1	1	14	D4	press
38.772	n/a	RESPONSE	M1	1	17	F4	release
39.035	n/a	RESPONSE	M1	1	14	D4	release
39.201	n/a	RESPONSE	M1	1	14	D4	press
39.754	n/a	RESPONSE	M1	1	12	C4	press
39.809	n/a	RESPONSE	M1	1	14	D4	release
39.965	n/a	RESPONSE	M1	1	16	E4	press
40.005	n/a	RESPONSE	M1	1	12	C4	release
40.295	n/a	RESPONSE	M1	1	19	G4	press
40.31	n/a	RESPONSE	M1	1	16	E4	release
40.93	n/a	RESPONSE	M1	1	19	G4	release
42.242	7.758	FIXCROSS	n/a	n/a	n/a	n/a	n/a
50.0	6.317	CUE_LISTEN	M1	2	n/a	n/a	n/a
56.317	7.759	FIXCROSS	n/a	n/a	n/a	n/a	n/a
64.076	6.317	CUE_PLAYBACK_RIGHT_HAND	M1	2	n/a	n/a	n/a
64.801	n/a	RESPONSE	M1	2	19	G4	press
65.357	n/a	RESPONSE	M1	2	16	E4	press
65.382	n/a	RESPONSE	M1	2	19	G4	release
66.154	n/a	RESPONSE	M1	2	16	E4	release
66.292	n/a	RESPONSE	M1	2	16	E4	press
66.596	n/a	RESPONSE	M1	2	16	E4	release
66.611	n/a	RESPONSE	M1	2	17	F4	press
67.217	n/a	RESPONSE	M1	2	17	F4	release
67.246	n/a	RESPONSE	M1	2	14	D4	press
67.536	n/a	RESPONSE	M1	2	14	D4	release
67.775	n/a	RESPONSE	M1	2	14	D4	press
68.521	n/a	RESPONSE	M1	2	12	C4	press
68.524	n/a	RESPONSE	M1	2	14	D4	release
68.785	n/a	RESPONSE	M1	2	12	C4	release
68.827	n/a	RESPONSE	M1	2	16	E4	press
69.214	n/a	RESPONSE	M1	2	16	E4	release
69.366	n/a	RESPONSE	M1	2	16	E4	press
69.864	n/a	RESPONSE	M1	2	12	C4	press
69.934	n/a	RESPONSE	M1	2	16	E4	release
70.392	7.758	FIXCROSS	n/a	n/a	n/a	n/a	n/a
70.691	n/a	RESPONSE	M1	2	12	C4	release
78.15	6.325	CUE_LISTEN	M1	1	n/a	n/a	n/a
84.476	7.758	FIXCROSS	n/a	n/a	n/a	n/a	n/a
92.234	6.317	CUE_PLAYBACK_BOTH_HANDS	M1	1	n/a	n/a	n/a
93.234	n/a	RESPONSE	M1	1	07	G3	press
93.236	n/a	RESPONSE	M1	1	19	G4	press
93.761	n/a	RESPONSE	M1	1	04	E3	press
93.765	n/a	RESPONSE	M1	1	16	E4	press
93.847	n/a	RESPONSE	M1	1	19	G4	release
93.851	n/a	RESPONSE	M1	1	07	G3	release
94.0	n/a	RESPONSE	M1	1	16	E4	release
94.031	n/a	RESPONSE	M1	1	04	E3	release
94.257	n/a	RESPONSE	M1	1	04	E3	press
94.282	n/a	RESPONSE	M1	1	16	E4	press
94.717	n/a	RESPONSE	M1	1	16	E4	release
94.771	n/a	RESPONSE	M1	1	04	E3	release
94.781	n/a	RESPONSE	M1	1	17	F4	press
94.796	n/a	RESPONSE	M1	1	05	F3	press
95.232	n/a	RESPONSE	M1	1	02	D3	press
95.235	n/a	RESPONSE	M1	1	05	F3	release
95.312	n/a	RESPONSE	M1	1	14	D4	press
95.326	n/a	RESPONSE	M1	1	17	F4	release
95.509	n/a	RESPONSE	M1	1	02	D3	release
95.584	n/a	RESPONSE	M1	1	14	D4	release
95.765	n/a	RESPONSE	M1	1	02	D3	press
95.796	n/a	RESPONSE	M1	1	14	D4	press
96.197	n/a	RESPONSE	M1	1	02	D3	release
96.268	n/a	RESPONSE	M1	1	14	D4	release
96.64	n/a	RESPONSE	M1	1	00	C3	press
96.765	n/a	RESPONSE	M1	1	12	C4	press
97.055	n/a	RESPONSE	M1	1	00	C3	release
97.098	n/a	RESPONSE	M1	1	12	C4	release
97.21	n/a	RESPONSE	M1	1	04	E3	press
97.225	n/a	RESPONSE	M1	1	16	E4	press
97.596	n/a	RESPONSE	M1	1	07	G3	press
97.625	n/a	RESPONSE	M1	1	04	E3	release
97.64	n/a	RESPONSE	M1	1	16	E4	release
97.655	n/a	RESPONSE	M1	1	19	G4	press
98.405	n/a	RESPONSE	M1	1	19	G4	release
98.544	n/a	RESPONSE	M1	1	07	G3	release
98.55	7.758	FIXCROSS	n/a	n/a	n/a	n/a	n/a
106.309	6.325	CUE_LISTEN	M1	2	n/a	n/a	n/a
112.634	7.758	FIXCROSS	n/a	n/a	n/a	n/a	n/a
120.392	6.317	CUE_PLAYBACK_BOTH_HANDS	M1	2	n/a	n/a	n/a
121.222	n/a	RESPONSE	M1	2	07	G3	press
121.238	n/a	RESPONSE	M1	2	19	G4	press
121.816	n/a	RESPONSE	M1	2	04	E3	press
121.831	n/a	RESPONSE	M1	2	16	E4	press
121.875	n/a	RESPONSE	M1	2	07	G3	release
121.89	n/a	RESPONSE	M1	2	19	G4	release
122.045	n/a	RESPONSE	M1	2	04	E3	release
122.071	n/a	RESPONSE	M1	2	16	E4	release
122.279	n/a	RESPONSE	M1	2	04	E3	press
122.281	n/a	RESPONSE	M1	2	16	E4	press
122.614	n/a	RESPONSE	M1	2	16	E4	release
122.63	n/a	RESPONSE	M1	2	04	E3	release
122.774	n/a	RESPONSE	M1	2	17	F4	press
122.782	n/a	RESPONSE	M1	2	05	F3	press
123.239	n/a	RESPONSE	M1	2	05	F3	release
123.245	n/a	RESPONSE	M1	2	02	D3	press
123.247	n/a	RESPONSE	M1	2	17	F4	release
123.262	n/a	RESPONSE	M1	2	14	D4	press
123.451	n/a	RESPONSE	M1	2	14	D4	release
123.461	n/a	RESPONSE	M1	2	02	D3	release
123.686	n/a	RESPONSE	M1	2	02	D3	press
123.696	n/a	RESPONSE	M1	2	14	D4	press
123.984	n/a	RESPONSE	M1	2	02	D3	release
124.021	n/a	RESPONSE	M1	2	14	D4	release
124.22	n/a	RESPONSE	M1	2	12	C4	press
124.251	n/a	RESPONSE	M1	2	00	C3	press
124.568	n/a	RESPONSE	M1	2	16	E4	press
124.574	n/a	RESPONSE	M1	2	04	E3	press
124.591	n/a	RESPONSE	M1	2	12	C4	release
124.831	n/a	RESPONSE	M1	2	00	C3	release
124.842	n/a	RESPONSE	M1	2	16	E4	release
124.879	n/a	RESPONSE	M1	2	04	E3	release
124.956	n/a	RESPONSE	M1	2	12	C4	press
125.019	n/a	RESPONSE	M1	2	00	C3	press
125.8	n/a	RESPONSE	M1	2	00	C3	release
125.838	n/a	RESPONSE	M1	2	12	C4	release
126.709	7.758	FIXCROSS	n/a	n/a	n/a	n/a	n/a
134.467	6.317	CUE_LISTEN	M1	1	n/a	n/a	n/a
140.784	7.758	FIXCROSS	n/a	n/a	n/a	n/a	n/a
148.542	6.325	CUE_PLAYBACK_RIGHT_HAND	M1	1	n/a	n/a	n/a
149.31	n/a	RESPONSE	M1	1	19	G4	press
149.82	n/a	RESPONSE	M1	1	16	E4	press
149.865	n/a	RESPONSE	M1	1	19	G4	release
150.03	n/a	RESPONSE	M1	1	16	E4	release
150.322	n/a	RESPONSE	M1	1	16	E4	press
150.735	n/a	RESPONSE	M1	1	16	E4	release
150.831	n/a	RESPONSE	M1	1	17	F4	press
151.272	n/a	RESPONSE	M1	1	17	F4	release
151.356	n/a	RESPONSE	M1	1	14	D4	press
151.619	n/a	RESPONSE	M1	1	14	D4	release
151.855	n/a	RESPONSE	M1	1	14	D4	press
152.406	n/a	RESPONSE	M1	1	14	D4	release
152.449	n/a	RESPONSE	M1	1	12	C4	press
152.718	n/a	RESPONSE	M1	1	16	E4	press
152.756	n/a	RESPONSE	M1	1	12	C4	release
153.088	n/a	RESPONSE	M1	1	19	G4	press
153.09	n/a	RESPONSE	M1	1	16	E4	release
153.75	n/a	RESPONSE	M1	1	19	G4	release
154.867	7.758	FIXCROSS	n/a	n/a	n/a	n/a	n/a
162.626	6.317	CUE_LISTEN	M1	2	n/a	n/a	n/a
168.942	7.758	FIXCROSS	n/a	n/a	n/a	n/a	n/a
176.701	6.317	CUE_PLAYBACK_RIGHT_HAND	M1	2	n/a	n/a	n/a
177.443	n/a	RESPONSE	M1	2	19	G4	press
177.999	n/a	RESPONSE	M1	2	16	E4	press
178.028	n/a	RESPONSE	M1	2	19	G4	release
178.238	n/a	RESPONSE	M1	2	16	E4	release
178.54	n/a	RESPONSE	M1	2	16	E4	press
178.94	n/a	RESPONSE	M1	2	17	F4	press
178.943	n/a	RESPONSE	M1	2	16	E4	release
179.56	n/a	RESPONSE	M1	2	14	D4	press
179.563	n/a	RESPONSE	M1	2	17	F4	release
179.785	n/a	RESPONSE	M1	2	14	D4	release
180.046	n/a	RESPONSE	M1	2	14	D4	press
180.639	n/a	RESPONSE	M1	2	14	D4	release
180.654	n/a	RESPONSE	M1	2	12	C4	press
180.918	n/a	RESPONSE	M1	2	16	E4	press
180.973	n/a	RESPONSE	M1	2	12	C4	release
181.249	n/a	RESPONSE	M1	2	12	C4	press
181.358	n/a	RESPONSE	M1	2	16	E4	release
181.886	n/a	RESPONSE	M1	2	12	C4	release
183.018	7.758	FIXCROSS	n/a	n/a	n/a	n/a	n/a
190.776	6.325	CUE_LISTEN	M1	1	n/a	n/a	n/a
197.101	7.758	FIXCROSS	n/a	n/a	n/a	n/a	n/a
204.859	6.317	CUE_PLAYBACK_BOTH_HANDS	M1	1	n/a	n/a	n/a
205.598	n/a	RESPONSE	M1	1	07	G3	press
205.636	n/a	RESPONSE	M1	1	19	G4	press
206.096	n/a	RESPONSE	M1	1	04	E3	press
206.113	n/a	RESPONSE	M1	1	16	E4	press
206.143	n/a	RESPONSE	M1	1	07	G3	release
206.199	n/a	RESPONSE	M1	1	19	G4	release
206.338	n/a	RESPONSE	M1	1	16	E4	release
206.38	n/a	RESPONSE	M1	1	04	E3	release
206.615	n/a	RESPONSE	M1	1	04	E3	press
206.644	n/a	RESPONSE	M1	1	16	E4	press
206.975	n/a	RESPONSE	M1	1	04	E3	release
206.991	n/a	RESPONSE	M1	1	16	E4	release
207.143	n/a	RESPONSE	M1	1	17	F4	press
207.171	n/a	RESPONSE	M1	1	05	F3	press
207.628	n/a	RESPONSE	M1	1	05	F3	release
207.67	n/a	RESPONSE	M1	1	17	F4	release
207.699	n/a	RESPONSE	M1	1	02	D3	press
207.713	n/a	RESPONSE	M1	1	14	D4	press
207.94	n/a	RESPONSE	M1	1	14	D4	release
207.943	n/a	RESPONSE	M1	1	02	D3	release
208.176	n/a	RESPONSE	M1	1	14	D4	press
208.191	n/a	RESPONSE	M1	1	02	D3	press
208.481	n/a	RESPONSE	M1	1	02	D3	release
208.551	n/a	RESPONSE	M1	1	14	D4	release
208.731	n/a	RESPONSE	M1	1	12	C4	press
208.746	n/a	RESPONSE	M1	1	00	C3	press
209.023	n/a	RESPONSE	M1	1	16	E4	press
209.051	n/a	RESPONSE	M1	1	04	E3	press
209.054	n/a	RESPONSE	M1	1	12	C4	release
209.315	n/a	RESPONSE	M1	1	16	E4	release
209.344	n/a	RESPONSE	M1	1	07	G3	press
209.359	n/a	RESPONSE	M1	1	19	G4	press
209.361	n/a	RESPONSE	M1	1	04	E3	release
209.746	n/a	RESPONSE	M1	1	00	C3	release
209.844	n/a	RESPONSE	M1	1	19	G4	release
210.025	n/a	RESPONSE	M1	1	07	G3	release
211.176	7.758	FIXCROSS	n/a	n/a	n/a	n/a	n/a
218.934	6.317	CUE_LISTEN	M1	2	n/a	n/a	n/a
225.251	7.758	FIXCROSS	n/a	n/a	n/a	n/a	n/a
233.01	6.325	CUE_PLAYBACK_BOTH_HANDS	M1	2	n/a	n/a	n/a
233.943	n/a	RESPONSE	M1	2	07	G3	press
233.959	n/a	RESPONSE	M1	2	19	G4	press
234.428	n/a	RESPONSE	M1	2	07	G3	release
234.526	n/a	RESPONSE	M1	2	16	E4	press
234.548	n/a	RESPONSE	M1	2	19	G4	release
234.609	n/a	RESPONSE	M1	2	05	F3	press
234.62	n/a	RESPONSE	M1	2	04	E3	press
234.911	n/a	RESPONSE	M1	2	05	F3	release
234.914	n/a	RESPONSE	M1	2	16	E4	release
235.125	n/a	RESPONSE	M1	2	16	E4	press
235.365	n/a	RESPONSE	M1	2	16	E4	release
235.367	n/a	RESPONSE	M1	2	04	E3	release
235.578	n/a	RESPONSE	M1	2	17	F4	press
235.588	n/a	RESPONSE	M1	2	05	F3	press
235.949	n/a	RESPONSE	M1	2	17	F4	release
235.974	n/a	RESPONSE	M1	2	05	F3	release
236.043	n/a	RESPONSE	M1	2	02	D3	press
236.059	n/a	RESPONSE	M1	2	14	D4	press
236.313	n/a	RESPONSE	M1	2	14	D4	release
236.315	n/a	RESPONSE	M1	2	02	D3	release
236.563	n/a	RESPONSE	M1	2	14	D4	press
236.565	n/a	RESPONSE	M1	2	02	D3	press
236.923	n/a	RESPONSE	M1	2	02	D3	release
236.938	n/a	RESPONSE	M1	2	14	D4	release
237.31	n/a	RESPONSE	M1	2	00	C3	press
237.313	n/a	RESPONSE	M1	2	12	C4	press
237.615	n/a	RESPONSE	M1	2	04	E3	press
237.63	n/a	RESPONSE	M1	2	16	E4	press
237.674	n/a	RESPONSE	M1	2	12	C4	release
237.715	n/a	RESPONSE	M1	2	00	C3	release
237.902	n/a	RESPONSE	M1	2	04	E3	release
237.904	n/a	RESPONSE	M1	2	16	E4	release
237.945	n/a	RESPONSE	M1	2	12	C4	press
238.015	n/a	RESPONSE	M1	2	00	C3	press
238.649	n/a	RESPONSE	M1	2	00	C3	release
238.664	n/a	RESPONSE	M1	2	12	C4	release
239.334	7.758	FIXCROSS	n/a	n/a	n/a	n/a	n/a
247.093	6.317	CUE_LISTEN	M1	1	n/a	n/a	n/a
253.41	7.758	FIXCROSS	n/a	n/a	n/a	n/a	n/a
261.168	6.317	CUE_PLAYBACK_RIGHT_HAND	M1	1	n/a	n/a	n/a
262.24	n/a	RESPONSE	M1	1	19	G4	press
262.77	n/a	RESPONSE	M1	1	16	E4	press
262.802	n/a	RESPONSE	M1	1	19	G4	release
263.0	n/a	RESPONSE	M1	1	16	E4	release
263.242	n/a	RESPONSE	M1	1	16	E4	press
263.574	n/a	RESPONSE	M1	1	16	E4	release
263.626	n/a	RESPONSE	M1	1	17	F4	press
264.139	n/a	RESPONSE	M1	1	17	F4	release
264.155	n/a	RESPONSE	M1	1	14	D4	press
264.412	n/a	RESPONSE	M1	1	14	D4	release
264.638	n/a	RESPONSE	M1	1	14	D4	press
265.062	n/a	RESPONSE	M1	1	14	D4	release
265.173	n/a	RESPONSE	M1	1	12	C4	press
265.409	n/a	RESPONSE	M1	1	16	E4	press
265.454	n/a	RESPONSE	M1	1	12	C4	release
265.668	n/a	RESPONSE	M1	1	19	G4	press
265.704	n/a	RESPONSE	M1	1	16	E4	release
266.45	n/a	RESPONSE	M1	1	19	G4	release
267.484	7.758	FIXCROSS	n/a	n/a	n/a	n/a	n/a
275.243	6.325	CUE_LISTEN	M1	2	n/a	n/a	n/a
281.568	7.758	FIXCROSS	n/a	n/a	n/a	n/a	n/a
289.326	6.317	CUE_PLAYBACK_RIGHT_HAND	M1	2	n/a	n/a	n/a
290.072	n/a	RESPONSE	M1	2	19	G4	press
290.636	n/a	RESPONSE	M1	2	16	E4	press
290.652	n/a	RESPONSE	M1	2	19	G4	release
290.859	n/a	RESPONSE	M1	2	16	E4	release
291.179	n/a	RESPONSE	M1	2	16	E4	press
291.508	n/a	RESPONSE	M1	2	16	E4	release
291.646	n/a	RESPONSE	M1	2	17	F4	press
292.254	n/a	RESPONSE	M1	2	14	D4	press
292.256	n/a	RESPONSE	M1	2	17	F4	release
292.476	n/a	RESPONSE	M1	2	14	D4	release
292.753	n/a	RESPONSE	M1	2	14	D4	press
293.163	n/a	RESPONSE	M1	2	14	D4	release
293.485	n/a	RESPONSE	M1	2	12	C4	press
293.955	n/a	RESPONSE	M1	2	16	E4	press
293.969	n/a	RESPONSE	M1	2	12	C4	release
294.3	n/a	RESPONSE	M1	2	12	C4	press
294.376	n/a	RESPONSE	M1	2	16	E4	release
294.91	n/a	RESPONSE	M1	2	12	C4	release
295.643	7.758	FIXCROSS	n/a	n/a	n/a	n/a	n/a
303.401	6.325	CUE_LISTEN	M1	1	n/a	n/a	n/a
309.726	7.758	FIXCROSS	n/a	n/a	n/a	n/a	n/a
317.485	6.317	CUE_PLAYBACK_BOTH_HANDS	M1	1	n/a	n/a	n/a
318.242	n/a	RESPONSE	M1	1	07	G3	press
318.27	n/a	RESPONSE	M1	1	19	G4	press
318.728	n/a	RESPONSE	M1	1	04	E3	press
318.755	n/a	RESPONSE	M1	1	16	E4	press
318.838	n/a	RESPONSE	M1	1	19	G4	release
318.867	n/a	RESPONSE	M1	1	07	G3	release
318.978	n/a	RESPONSE	M1	1	16	E4	release
319.007	n/a	RESPONSE	M1	1	04	E3	release
319.244	n/a	RESPONSE	M1	1	16	E4	press
319.257	n/a	RESPONSE	M1	1	04	E3	press
319.588	n/a	RESPONSE	M1	1	04	E3	release
319.59	n/a	RESPONSE	M1	1	16	E4	release
319.798	n/a	RESPONSE	M1	1	17	F4	press
319.825	n/a	RESPONSE	M1	1	05	F3	press
320.24	n/a	RESPONSE	M1	1	17	F4	release
320.243	n/a	RESPONSE	M1	1	05	F3	release
320.257	n/a	RESPONSE	M1	1	02	D3	press
320.3	n/a	RESPONSE	M1	1	14	D4	press
320.534	n/a	RESPONSE	M1	1	14	D4	release
320.549	n/a	RESPONSE	M1	1	02	D3	release
320.798	n/a	RESPONSE	M1	1	02	D3	press
320.813	n/a	RESPONSE	M1	1	14	D4	press
321.185	n/a	RESPONSE	M1	1	02	D3	release
321.214	n/a	RESPONSE	M1	1	14	D4	release
321.325	n/a	RESPONSE	M1	1	12	C4	press
321.328	n/a	RESPONSE	M1	1	00	C3	press
321.685	n/a	RESPONSE	M1	1	04	E3	press
321.714	n/a	RESPONSE	M1	1	16	E4	press
321.799	n/a	RESPONSE	M1	1	12	C4	release
321.872	n/a	RESPONSE	M1	1	00	C3	release
321.98	n/a	RESPONSE	M1	1	16	E4	release
322.009	n/a	RESPONSE	M1	1	04	E3	release
322.012	n/a	RESPONSE	M1	1	07	G3	press
322.025	n/a	RESPONSE	M1	1	19	G4	press
323.26	n/a	RESPONSE	M1	1	19	G4	release
323.315	n/a	RESPONSE	M1	1	07	G3	release
323.801	7.758	FIXCROSS	n/a	n/a	n/a	n/a	n/a
331.56	6.317	CUE_LISTEN	M1	2	n/a	n/a	n/a
337.876	7.758	FIXCROSS	n/a	n/a	n/a	n/a	n/a
345.635	6.325	CUE_PLAYBACK_BOTH_HANDS	M1	2	n/a	n/a	n/a
346.58	n/a	RESPONSE	M1	2	07	G3	press
346.598	n/a	RESPONSE	M1	2	19	G4	press
346.638	n/a	RESPONSE	M1	2	21	A4	press
346.93	n/a	RESPONSE	M1	2	21	A4	release
347.039	n/a	RESPONSE	M1	2	19	G4	release
347.123	n/a	RESPONSE	M1	2	07	G3	release
347.33	n/a	RESPONSE	M1	2	04	E3	press
347.359	n/a	RESPONSE	M1	2	16	E4	press
347.608	n/a	RESPONSE	M1	2	16	E4	release
347.652	n/a	RESPONSE	M1	2	04	E3	release
347.819	n/a	RESPONSE	M1	2	04	E3	press
347.865	n/a	RESPONSE	M1	2	16	E4	press
348.183	n/a	RESPONSE	M1	2	16	E4	release
348.198	n/a	RESPONSE	M1	2	04	E3	release
348.268	n/a	RESPONSE	M1	2	17	F4	press
348.297	n/a	RESPONSE	M1	2	05	F3	press
348.698	n/a	RESPONSE	M1	2	02	D3	press
348.725	n/a	RESPONSE	M1	2	05	F3	release
348.728	n/a	RESPONSE	M1	2	14	D4	press
348.769	n/a	RESPONSE	M1	2	17	F4	release
348.949	n/a	RESPONSE	M1	2	14	D4	release
348.978	n/a	RESPONSE	M1	2	02	D3	release
349.187	n/a	RESPONSE	M1	2	14	D4	press
349.2	n/a	RESPONSE	M1	2	02	D3	press
349.587	n/a	RESPONSE	M1	2	02	D3	release
349.604	n/a	RESPONSE	M1	2	14	D4	release
349.618	n/a	RESPONSE	M1	2	00	C3	press
349.659	n/a	RESPONSE	M1	2	12	C4	press
349.95	n/a	RESPONSE	M1	2	04	E3	press
349.979	n/a	RESPONSE	M1	2	16	E4	press
350.09	n/a	RESPONSE	M1	2	12	C4	release
350.27	n/a	RESPONSE	M1	2	00	C3	release
350.285	n/a	RESPONSE	M1	2	16	E4	release
350.3	n/a	RESPONSE	M1	2	04	E3	release
350.343	n/a	RESPONSE	M1	2	12	C4	press
350.374	n/a	RESPONSE	M1	2	00	C3	press
351.115	n/a	RESPONSE	M1	2	00	C3	release
351.282	n/a	RESPONSE	M1	2	12	C4	release
351.96	7.758	FIXCROSS	n/a	n/a	n/a	n/a	n/a
359.718	6.317	CUE_LISTEN	M1	1	n/a	n/a	n/a
366.035	7.758	FIXCROSS	n/a	n/a	n/a	n/a	n/a
373.793	6.317	CUE_PLAYBACK_RIGHT_HAND	M1	1	n/a	n/a	n/a
374.572	n/a	RESPONSE	M1	1	19	G4	press
375.119	n/a	RESPONSE	M1	1	16	E4	press
375.212	n/a	RESPONSE	M1	1	19	G4	release
375.332	n/a	RESPONSE	M1	1	16	E4	release
375.625	n/a	RESPONSE	M1	1	16	E4	press
375.943	n/a	RESPONSE	M1	1	16	E4	release
376.173	n/a	RESPONSE	M1	1	17	F4	press
376.752	n/a	RESPONSE	M1	1	14	D4	press
376.808	n/a	RESPONSE	M1	1	17	F4	release
377.043	n/a	RESPONSE	M1	1	14	D4	release
377.278	n/a	RESPONSE	M1	1	14	D4	press
377.763	n/a	RESPONSE	M1	1	12	C4	press
377.808	n/a	RESPONSE	M1	1	14	D4	release
378.044	n/a	RESPONSE	M1	1	16	E4	press
378.169	n/a	RESPONSE	M1	1	12	C4	release
378.294	n/a	RESPONSE	M1	1	19	G4	press
378.323	n/a	RESPONSE	M1	1	16	E4	release
379.342	n/a	RESPONSE	M1	1	19	G4	release
380.11	7.758	FIXCROSS	n/a	n/a	n/a	n/a	n/a
387.868	6.325	CUE_LISTEN	M1	2	n/a	n/a	n/a
394.193	7.758	FIXCROSS	n/a	n/a	n/a	n/a	n/a
401.952	6.317	CUE_PLAYBACK_RIGHT_HAND	M1	2	n/a	n/a	n/a
402.702	n/a	RESPONSE	M1	2	19	G4	press
403.228	n/a	RESPONSE	M1	2	16	E4	press
403.252	n/a	RESPONSE	M1	2	19	G4	release
403.473	n/a	RESPONSE	M1	2	16	E4	release
403.737	n/a	RESPONSE	M1	2	16	E4	press
404.119	n/a	RESPONSE	M1	2	16	E4	release
404.287	n/a	RESPONSE	M1	2	17	F4	press
404.834	n/a	RESPONSE	M1	2	14	D4	press
404.843	n/a	RESPONSE	M1	2	17	F4	release
405.062	n/a	RESPONSE	M1	2	14	D4	release
405.327	n/a	RESPONSE	M1	2	14	D4	press
405.914	n/a	RESPONSE	M1	2	12	C4	press
405.945	n/a	RESPONSE	M1	2	14	D4	release
406.202	n/a	RESPONSE	M1	2	16	E4	press
406.302	n/a	RESPONSE	M1	2	12	C4	release
406.606	n/a	RESPONSE	M1	2	12	C4	press
406.702	n/a	RESPONSE	M1	2	16	E4	release
407.389	n/a	RESPONSE	M1	2	12	C4	release
408.268	7.758	FIXCROSS	n/a	n/a	n/a	n/a	n/a
416.027	6.325	CUE_LISTEN	M1	1	n/a	n/a	n/a
422.352	7.758	FIXCROSS	n/a	n/a	n/a	n/a	n/a
430.11	6.317	CUE_PLAYBACK_BOTH_HANDS	M1	1	n/a	n/a	n/a
430.969	n/a	RESPONSE	M1	1	07	G3	press
430.983	n/a	RESPONSE	M1	1	19	G4	press
431.52	n/a	RESPONSE	M1	1	16	E4	press
431.536	n/a	RESPONSE	M1	1	19	G4	release
431.538	n/a	RESPONSE	M1	1	04	E3	press
431.593	n/a	RESPONSE	M1	1	07	G3	release
431.746	n/a	RESPONSE	M1	1	16	E4	release
431.872	n/a	RESPONSE	M1	1	04	E3	release
432.038	n/a	RESPONSE	M1	1	04	E3	press
432.053	n/a	RESPONSE	M1	1	16	E4	press
432.508	n/a	RESPONSE	M1	1	04	E3	release
432.51	n/a	RESPONSE	M1	1	16	E4	release
432.513	n/a	RESPONSE	M1	1	17	F4	press
432.538	n/a	RESPONSE	M1	1	05	F3	press
433.054	n/a	RESPONSE	M1	1	02	D3	press
433.068	n/a	RESPONSE	M1	1	14	D4	press
433.108	n/a	RESPONSE	M1	1	05	F3	release
433.153	n/a	RESPONSE	M1	1	17	F4	release
433.327	n/a	RESPONSE	M1	1	14	D4	release
433.373	n/a	RESPONSE	M1	1	02	D3	release
433.532	n/a	RESPONSE	M1	1	02	D3	press
433.54	n/a	RESPONSE	M1	1	14	D4	press
433.883	n/a	RESPONSE	M1	1	02	D3	release
434.039	n/a	RESPONSE	M1	1	14	D4	release
434.11	n/a	RESPONSE	M1	1	12	C4	press
434.164	n/a	RESPONSE	M1	1	00	C3	press
434.62	n/a	RESPONSE	M1	1	16	E4	press
434.623	n/a	RESPONSE	M1	1	04	E3	press
434.67	n/a	RESPONSE	M1	1	12	C4	release
434.737	n/a	RESPONSE	M1	1	00	C3	release
434.963	n/a	RESPONSE	M1	1	16	E4	release
434.979	n/a	RESPONSE	M1	1	04	E3	release
434.982	n/a	RESPONSE	M1	1	07	G3	press
434.984	n/a	RESPONSE	M1	1	19	G4	press
435.877	n/a	RESPONSE	M1	1	19	G4	release
436.013	n/a	RESPONSE	M1	1	07	G3	release
436.427	7.758	FIXCROSS	n/a	n/a	n/a	n/a	n/a
444.185	6.317	CUE_LISTEN	M1	2	n/a	n/a	n/a
450.502	7.758	FIXCROSS	n/a	n/a	n/a	n/a	n/a
458.26	6.317	CUE_PLAYBACK_BOTH_HANDS	M1	2	n/a	n/a	n/a
459.052	n/a	RESPONSE	M1	2	07	G3	press
459.067	n/a	RESPONSE	M1	2	19	G4	press
459.576	n/a	RESPONSE	M1	2	04	E3	press
459.578	n/a	RESPONSE	M1	2	16	E4	press
459.661	n/a	RESPONSE	M1	2	07	G3	release
459.678	n/a	RESPONSE	M1	2	19	G4	release
459.828	n/a	RESPONSE	M1	2	16	E4	release
459.872	n/a	RESPONSE	M1	2	04	E3	release
460.096	n/a	RESPONSE	M1	2	04	E3	press
460.123	n/a	RESPONSE	M1	2	16	E4	press
460.494	n/a	RESPONSE	M1	2	16	E4	release
460.497	n/a	RESPONSE	M1	2	04	E3	release
460.648	n/a	RESPONSE	M1	2	17	F4	press
460.664	n/a	RESPONSE	M1	2	05	F3	press
461.146	n/a	RESPONSE	M1	2	02	D3	press
461.161	n/a	RESPONSE	M1	2	05	F3	release
461.176	n/a	RESPONSE	M1	2	17	F4	release
461.178	n/a	RESPONSE	M1	2	14	D4	press
461.398	n/a	RESPONSE	M1	2	14	D4	release
461.4	n/a	RESPONSE	M1	2	02	D3	release
461.663	n/a	RESPONSE	M1	2	02	D3	press
461.677	n/a	RESPONSE	M1	2	14	D4	press
462.037	n/a	RESPONSE	M1	2	02	D3	release
462.052	n/a	RESPONSE	M1	2	14	D4	release
462.3	n/a	RESPONSE	M1	2	12	C4	press
462.303	n/a	RESPONSE	M1	2	00	C3	press
462.652	n/a	RESPONSE	M1	2	04	E3	press
462.654	n/a	RESPONSE	M1	2	16	E4	press
462.714	n/a	RESPONSE	M1	2	12	C4	release
462.898	n/a	RESPONSE	M1	2	00	C3	release
462.954	n/a	RESPONSE	M1	2	04	E3	release
462.999	n/a	RESPONSE	M1	2	16	E4	release
463.099	n/a	RESPONSE	M1	2	12	C4	press
463.136	n/a	RESPONSE	M1	2	00	C3	press
464.331	n/a	RESPONSE	M1	2	00	C3	release
464.392	n/a	RESPONSE	M1	2	12	C4	release
464.577	7.758	FIXCROSS	n/a	n/a	n/a	n/a	n/a
472.335	6.325	CUE_LISTEN	M1	1	n/a	n/a	n/a
478.66	7.758	FIXCROSS	n/a	n/a	n/a	n/a	n/a
486.419	6.317	CUE_PLAYBACK_RIGHT_HAND	M1	1	n/a	n/a	n/a
487.087	n/a	RESPONSE	M1	1	19	G4	press
487.626	n/a	RESPONSE	M1	1	16	E4	press
487.652	n/a	RESPONSE	M1	1	19	G4	release
487.834	n/a	RESPONSE	M1	1	16	E4	release
488.128	n/a	RESPONSE	M1	1	16	E4	press
488.583	n/a	RESPONSE	M1	1	16	E4	release
488.598	n/a	RESPONSE	M1	1	17	F4	press
489.068	n/a	RESPONSE	M1	1	17	F4	release
489.096	n/a	RESPONSE	M1	1	14	D4	press
489.331	n/a	RESPONSE	M1	1	14	D4	release
489.607	n/a	RESPONSE	M1	1	14	D4	press
490.173	n/a	RESPONSE	M1	1	12	C4	press
490.216	n/a	RESPONSE	M1	1	14	D4	release
490.466	n/a	RESPONSE	M1	1	16	E4	press
490.508	n/a	RESPONSE	M1	1	12	C4	release
490.756	n/a	RESPONSE	M1	1	19	G4	press
490.784	n/a	RESPONSE	M1	1	16	E4	release
491.542	n/a	RESPONSE	M1	1	19	G4	release
492.735	7.758	FIXCROSS	n/a	n/a	n/a	n/a	n/a
500.494	6.325	CUE_LISTEN	M1	2	n/a	n/a	n/a
506.819	7.758	FIXCROSS	n/a	n/a	n/a	n/a	n/a
514.577	6.317	CUE_PLAYBACK_RIGHT_HAND	M1	2	n/a	n/a	n/a
515.433	n/a	RESPONSE	M1	2	19	G4	press
515.969	n/a	RESPONSE	M1	2	16	E4	press
516.007	n/a	RESPONSE	M1	2	19	G4	release
516.197	n/a	RESPONSE	M1	2	16	E4	release
516.487	n/a	RESPONSE	M1	2	16	E4	press
516.901	n/a	RESPONSE	M1	2	16	E4	release
516.943	n/a	RESPONSE	M1	2	17	F4	press
517.384	n/a	RESPONSE	M1	2	17	F4	release
517.441	n/a	RESPONSE	M1	2	14	D4	press
517.676	n/a	RESPONSE	M1	2	14	D4	release
517.946	n/a	RESPONSE	M1	2	14	D4	press
518.372	n/a	RESPONSE	M1	2	14	D4	release
518.497	n/a	RESPONSE	M1	2	12	C4	press
518.746	n/a	RESPONSE	M1	2	16	E4	press
518.829	n/a	RESPONSE	M1	2	12	C4	release
519.147	n/a	RESPONSE	M1	2	12	C4	press
519.217	n/a	RESPONSE	M1	2	16	E4	release
519.866	n/a	RESPONSE	M1	2	12	C4	release
520.894	7.758	FIXCROSS	n/a	n/a	n/a	n/a	n/a
528.652	6.317	CUE_LISTEN	M1	1	n/a	n/a	n/a
534.969	7.758	FIXCROSS	n/a	n/a	n/a	n/a	n/a
542.727	6.325	CUE_PLAYBACK_BOTH_HANDS	M1	1	n/a	n/a	n/a
543.573	n/a	RESPONSE	M1	1	07	G3	press
543.589	n/a	RESPONSE	M1	1	19	G4	press
544.057	n/a	RESPONSE	M1	1	04	E3	press
544.06	n/a	RESPONSE	M1	1	16	E4	press
544.126	n/a	RESPONSE	M1	1	19	G4	release
544.134	n/a	RESPONSE	M1	1	07	G3	release
544.308	n/a	RESPONSE	M1	1	16	E4	release
544.347	n/a	RESPONSE	M1	1	04	E3	release
544.561	n/a	RESPONSE	M1	1	04	E3	press
544.604	n/a	RESPONSE	M1	1	16	E4	press
544.988	n/a	RESPONSE	M1	1	16	E4	release
544.997	n/a	RESPONSE	M1	1	04	E3	release
545.141	n/a	RESPONSE	M1	1	05	F3	press
545.143	n/a	RESPONSE	M1	1	17	F4	press
545.586	n/a	RESPONSE	M1	1	02	D3	press
545.588	n/a	RESPONSE	M1	1	14	D4	press
545.597	n/a	RESPONSE	M1	1	05	F3	release
545.627	n/a	RESPONSE	M1	1	17	F4	release
545.824	n/a	RESPONSE	M1	1	14	D4	release
545.833	n/a	RESPONSE	M1	1	02	D3	release
546.061	n/a	RESPONSE	M1	1	02	D3	press
546.083	n/a	RESPONSE	M1	1	14	D4	press
546.577	n/a	RESPONSE	M1	1	14	D4	release
546.606	n/a	RESPONSE	M1	1	02	D3	release
546.703	n/a	RESPONSE	M1	1	00	C3	press
546.733	n/a	RESPONSE	M1	1	12	C4	press
547.077	n/a	RESPONSE	M1	1	04	E3	press
547.092	n/a	RESPONSE	M1	1	16	E4	press
547.19	n/a	RESPONSE	M1	1	12	C4	release
547.259	n/a	RESPONSE	M1	1	00	C3	release
547.384	n/a	RESPONSE	M1	1	16	E4	release
547.387	n/a	RESPONSE	M1	1	04	E3	release
547.389	n/a	RESPONSE	M1	1	07	G3	press
547.402	n/a	RESPONSE	M1	1	19	G4	press
548.84	n/a	RESPONSE	M1	1	19	G4	release
548.868	n/a	RESPONSE	M1	1	07	G3	release
549.052	7.758	FIXCROSS	n/a	n/a	n/a	n/a	n/a
556.811	6.317	CUE_LISTEN	M1	2	n/a	n/a	n/a
563.127	7.758	FIXCROSS	n/a	n/a	n/a	n/a	n/a
570.886	6.317	CUE_PLAYBACK_BOTH_HANDS	M1	2	n/a	n/a	n/a
571.926	n/a	RESPONSE	M1	2	07	G3	press
571.941	n/a	RESPONSE	M1	2	19	G4	press
572.437	n/a	RESPONSE	M1	2	16	E4	press
572.452	n/a	RESPONSE	M1	2	04	E3	press
572.51	n/a	RESPONSE	M1	2	19	G4	release
572.541	n/a	RESPONSE	M1	2	07	G3	release
572.672	n/a	RESPONSE	M1	2	16	E4	release
572.693	n/a	RESPONSE	M1	2	04	E3	release
572.946	n/a	RESPONSE	M1	2	04	E3	press
572.998	n/a	RESPONSE	M1	2	16	E4	press
573.354	n/a	RESPONSE	M1	2	16	E4	release
573.368	n/a	RESPONSE	M1	2	04	E3	release
573.438	n/a	RESPONSE	M1	2	17	F4	press
573.448	n/a	RESPONSE	M1	2	05	F3	press
573.914	n/a	RESPONSE	M1	2	05	F3	release
573.929	n/a	RESPONSE	M1	2	17	F4	release
573.953	n/a	RESPONSE	M1	2	02	D3	press
573.984	n/a	RESPONSE	M1	2	14	D4	press
574.181	n/a	RESPONSE	M1	2	14	D4	release
574.189	n/a	RESPONSE	M1	2	02	D3	release
574.417	n/a	RESPONSE	M1	2	02	D3	press
574.463	n/a	RESPONSE	M1	2	14	D4	press
574.772	n/a	RESPONSE	M1	2	02	D3	release
574.794	n/a	RESPONSE	M1	2	14	D4	release
574.879	n/a	RESPONSE	M1	2	12	C4	press
574.894	n/a	RESPONSE	M1	2	00	C3	press
575.168	n/a	RESPONSE	M1	2	04	E3	press
575.197	n/a	RESPONSE	M1	2	16	E4	press
575.273	n/a	RESPONSE	M1	2	12	C4	release
575.327	n/a	RESPONSE	M1	2	00	C3	release
575.433	n/a	RESPONSE	M1	2	04	E3	release
575.464	n/a	RESPONSE	M1	2	16	E4	release
575.473	n/a	RESPONSE	M1	2	12	C4	press
575.504	n/a	RESPONSE	M1	2	00	C3	press
575.874	n/a	RESPONSE	M1	2	00	C3	release
576.033	n/a	RESPONSE	M1	2	12	C4	release
577.202	7.758	FIXCROSS	n/a	n/a	n/a	n/a	n/a
584.961	6.325	CUE_LISTEN	M1	1	n/a	n/a	n/a
591.286	7.758	FIXCROSS	n/a	n/a	n/a	n/a	n/a
599.044	6.317	CUE_PLAYBACK_RIGHT_HAND	M1	1	n/a	n/a	n/a
600.157	n/a	RESPONSE	M1	1	19	G4	press
600.598	n/a	RESPONSE	M1	1	16	E4	press
600.697	n/a	RESPONSE	M1	1	19	G4	release
600.864	n/a	RESPONSE	M1	1	16	E4	release
601.111	n/a	RESPONSE	M1	1	16	E4	press
601.526	n/a	RESPONSE	M1	1	17	F4	press
601.528	n/a	RESPONSE	M1	1	16	E4	release
601.941	n/a	RESPONSE	M1	1	14	D4	press
601.944	n/a	RESPONSE	M1	1	17	F4	release
602.177	n/a	RESPONSE	M1	1	14	D4	release
602.494	n/a	RESPONSE	M1	1	14	D4	press
602.962	n/a	RESPONSE	M1	1	14	D4	release
603.046	n/a	RESPONSE	M1	1	12	C4	press
603.333	n/a	RESPONSE	M1	1	16	E4	press
603.408	n/a	RESPONSE	M1	1	14	D4	press
603.432	n/a	RESPONSE	M1	1	12	C4	release
603.531	n/a	RESPONSE	M1	1	14	D4	release
603.72	n/a	RESPONSE	M1	1	19	G4	press
603.788	n/a	RESPONSE	M1	1	16	E4	release
604.811	n/a	RESPONSE	M1	1	19	G4	release
605.361	7.758	FIXCROSS	n/a	n/a	n/a	n/a	n/a
613.119	6.317	CUE_LISTEN	M1	2	n/a	n/a	n/a
619.436	7.759	FIXCROSS	n/a	n/a	n/a	n/a	n/a
627.194	6.325	CUE_PLAYBACK_RIGHT_HAND	M1	2	n/a	n/a	n/a
627.918	n/a	RESPONSE	M1	2	19	G4	press
628.483	n/a	RESPONSE	M1	2	16	E4	press
628.54	n/a	RESPONSE	M1	2	19	G4	release
628.735	n/a	RESPONSE	M1	2	16	E4	release
628.967	n/a	RESPONSE	M1	2	16	E4	press
629.394	n/a	RESPONSE	M1	2	16	E4	release
629.451	n/a	RESPONSE	M1	2	17	F4	press
629.852	n/a	RESPONSE	M1	2	17	F4	release
629.977	n/a	RESPONSE	M1	2	14	D4	press
630.212	n/a	RESPONSE	M1	2	14	D4	release
630.461	n/a	RESPONSE	M1	2	14	D4	press
630.93	n/a	RESPONSE	M1	2	12	C4	press
630.986	n/a	RESPONSE	M1	2	14	D4	release
631.251	n/a	RESPONSE	M1	2	16	E4	press
631.373	n/a	RESPONSE	M1	2	12	C4	release
631.65	n/a	RESPONSE	M1	2	12	C4	press
631.72	n/a	RESPONSE	M1	2	16	E4	release
632.63	n/a	RESPONSE	M1	2	12	C4	release
633.519	7.758	FIXCROSS	n/a	n/a	n/a	n/a	n/a
641.278	6.317	CUE_LISTEN	M1	1	n/a	n/a	n/a
647.594	7.759	FIXCROSS	n/a	n/a	n/a	n/a	n/a
655.353	6.317	CUE_PLAYBACK_BOTH_HANDS	M1	1	n/a	n/a	n/a
656.457	n/a	RESPONSE	M1	1	07	G3	press
656.472	n/a	RESPONSE	M1	1	19	G4	press
656.982	n/a	RESPONSE	M1	1	04	E3	press
656.985	n/a	RESPONSE	M1	1	16	E4	press
657.026	n/a	RESPONSE	M1	1	19	G4	release
657.041	n/a	RESPONSE	M1	1	07	G3	release
657.262	n/a	RESPONSE	M1	1	16	E4	release
657.483	n/a	RESPONSE	M1	1	16	E4	press
657.79	n/a	RESPONSE	M1	1	04	E3	release
657.806	n/a	RESPONSE	M1	1	16	E4	release
657.975	n/a	RESPONSE	M1	1	17	F4	press
657.977	n/a	RESPONSE	M1	1	05	F3	press
658.446	n/a	RESPONSE	M1	1	02	D3	press
658.462	n/a	RESPONSE	M1	1	14	D4	press
658.491	n/a	RESPONSE	M1	1	05	F3	release
658.517	n/a	RESPONSE	M1	1	17	F4	release
658.697	n/a	RESPONSE	M1	1	02	D3	release
658.7	n/a	RESPONSE	M1	1	14	D4	release
658.961	n/a	RESPONSE	M1	1	02	D3	press
658.992	n/a	RESPONSE	M1	1	14	D4	press
659.335	n/a	RESPONSE	M1	1	02	D3	release
659.377	n/a	RESPONSE	M1	1	14	D4	release
659.53	n/a	RESPONSE	M1	1	12	C4	press
659.545	n/a	RESPONSE	M1	1	00	C3	press
659.891	n/a	RESPONSE	M1	1	16	E4	press
659.893	n/a	RESPONSE	M1	1	04	E3	press
659.99	n/a	RESPONSE	M1	1	12	C4	release
660.087	n/a	RESPONSE	M1	1	00	C3	release
660.172	n/a	RESPONSE	M1	1	16	E4	release
660.213	n/a	RESPONSE	M1	1	07	G3	press
660.228	n/a	RESPONSE	M1	1	04	E3	release
660.231	n/a	RESPONSE	M1	1	19	G4	press
661.001	n/a	RESPONSE	M1	1	19	G4	release
661.305	n/a	RESPONSE	M1	1	07	G3	release
661.669	7.758	FIXCROSS	n/a	n/a	n/a	n/a	n/a
669.428	6.325	CUE_LISTEN	M1	2	n/a	n/a	n/a
675.753	7.758	FIXCROSS	n/a	n/a	n/a	n/a	n/a
683.511	6.317	CUE_PLAYBACK_BOTH_HANDS	M1	2	n/a	n/a	n/a
684.423	n/a	RESPONSE	M1	2	07	G3	press
684.432	n/a	RESPONSE	M1	2	19	G4	press
684.981	n/a	RESPONSE	M1	2	04	E3	press
685.027	n/a	RESPONSE	M1	2	16	E4	press
685.081	n/a	RESPONSE	M1	2	19	G4	release
685.098	n/a	RESPONSE	M1	2	07	G3	release
685.286	n/a	RESPONSE	M1	2	04	E3	release
685.342	n/a	RESPONSE	M1	2	16	E4	release
685.521	n/a	RESPONSE	M1	2	04	E3	press
685.545	n/a	RESPONSE	M1	2	16	E4	press
685.87	n/a	RESPONSE	M1	2	16	E4	release
685.893	n/a	RESPONSE	M1	2	04	E3	release
686.067	n/a	RESPONSE	M1	2	05	F3	press
686.091	n/a	RESPONSE	M1	2	17	F4	press
686.55	n/a	RESPONSE	M1	2	02	D3	press
686.578	n/a	RESPONSE	M1	2	05	F3	release
686.608	n/a	RESPONSE	M1	2	14	D4	press
686.611	n/a	RESPONSE	M1	2	17	F4	release
686.845	n/a	RESPONSE	M1	2	14	D4	release
686.847	n/a	RESPONSE	M1	2	02	D3	release
687.041	n/a	RESPONSE	M1	2	02	D3	press
687.068	n/a	RESPONSE	M1	2	14	D4	press
687.455	n/a	RESPONSE	M1	2	02	D3	release
687.497	n/a	RESPONSE	M1	2	14	D4	release
687.718	n/a	RESPONSE	M1	2	12	C4	press
687.722	n/a	RESPONSE	M1	2	00	C3	press
688.087	n/a	RESPONSE	M1	2	04	E3	press
688.101	n/a	RESPONSE	M1	2	16	E4	press
688.183	n/a	RESPONSE	M1	2	12	C4	release
688.308	n/a	RESPONSE	M1	2	00	C3	release
688.42	n/a	RESPONSE	M1	2	04	E3	release
688.531	n/a	RESPONSE	M1	2	00	C3	press
688.533	n/a	RESPONSE	M1	2	12	C4	press
688.561	n/a	RESPONSE	M1	2	16	E4	release
689.195	n/a	RESPONSE	M1	2	00	C3	release
689.553	n/a	RESPONSE	M1	2	12	C4	release
689.828	7.759	FIXCROSS	n/a	n/a	n/a	n/a	n/a
697.586	6.317	CUE_LISTEN	M1	1	n/a	n/a	n/a
703.903	7.758	FIXCROSS	n/a	n/a	n/a	n/a	n/a
711.661	6.325	CUE_PLAYBACK_RIGHT_HAND	M1	1	n/a	n/a	n/a
712.31	n/a	RESPONSE	M1	1	19	G4	press
712.787	n/a	RESPONSE	M1	1	19	G4	release
712.853	n/a	RESPONSE	M1	1	16	E4	press
713.07	n/a	RESPONSE	M1	1	16	E4	release
713.356	n/a	RESPONSE	M1	1	16	E4	press
713.747	n/a	RESPONSE	M1	1	16	E4	release
713.804	n/a	RESPONSE	M1	1	17	F4	press
714.291	n/a	RESPONSE	M1	1	14	D4	press
714.307	n/a	RESPONSE	M1	1	17	F4	release
714.541	n/a	RESPONSE	M1	1	14	D4	release
714.722	n/a	RESPONSE	M1	1	14	D4	press
715.211	n/a	RESPONSE	M1	1	14	D4	release
715.542	n/a	RESPONSE	M1	1	12	C4	press
715.806	n/a	RESPONSE	M1	1	16	E4	press
715.921	n/a	RESPONSE	M1	1	12	C4	release
716.066	n/a	RESPONSE	M1	1	19	G4	press
716.168	n/a	RESPONSE	M1	1	16	E4	release
717.325	n/a	RESPONSE	M1	1	19	G4	release
717.986	7.758	FIXCROSS	n/a	n/a	n/a	n/a	n/a
725.745	6.317	CUE_LISTEN	M1	2	n/a	n/a	n/a
732.061	7.759	FIXCROSS	n/a	n/a	n/a	n/a	n/a
739.82	6.325	CUE_PLAYBACK_RIGHT_HAND	M1	2	n/a	n/a	n/a
740.545	n/a	RESPONSE	M1	2	19	G4	press
741.11	n/a	RESPONSE	M1	2	16	E4	press
741.125	n/a	RESPONSE	M1	2	19	G4	release
741.346	n/a	RESPONSE	M1	2	16	E4	release
741.581	n/a	RESPONSE	M1	2	16	E4	press
742.037	n/a	RESPONSE	M1	2	16	E4	release
742.052	n/a	RESPONSE	M1	2	17	F4	press
742.545	n/a	RESPONSE	M1	2	14	D4	press
742.606	n/a	RESPONSE	M1	2	17	F4	release
742.802	n/a	RESPONSE	M1	2	14	D4	release
743.016	n/a	RESPONSE	M1	2	14	D4	press
743.632	n/a	RESPONSE	M1	2	12	C4	press
743.664	n/a	RESPONSE	M1	2	14	D4	release
743.988	n/a	RESPONSE	M1	2	16	E4	press
744.111	n/a	RESPONSE	M1	2	12	C4	release
744.361	n/a	RESPONSE	M1	2	12	C4	press
744.511	n/a	RESPONSE	M1	2	16	E4	release
745.216	n/a	RESPONSE	M1	2	12	C4	release
746.145	7.758	FIXCROSS	n/a	n/a	n/a	n/a	n/a
753.903	6.317	CUE_LISTEN	M1	1	n/a	n/a	n/a
760.22	7.758	FIXCROSS	n/a	n/a	n/a	n/a	n/a
767.978	6.317	CUE_PLAYBACK_BOTH_HANDS	M1	1	n/a	n/a	n/a
768.66	n/a	RESPONSE	M1	1	19	G4	press
768.662	n/a	RESPONSE	M1	1	07	G3	press
769.198	n/a	RESPONSE	M1	1	04	E3	press
769.216	n/a	RESPONSE	M1	1	16	E4	press
769.311	n/a	RESPONSE	M1	1	19	G4	release
769.356	n/a	RESPONSE	M1	1	07	G3	release
769.588	n/a	RESPONSE	M1	1	04	E3	release
769.645	n/a	RESPONSE	M1	1	16	E4	release
769.728	n/a	RESPONSE	M1	1	04	E3	press
769.744	n/a	RESPONSE	M1	1	16	E4	press
770.076	n/a	RESPONSE	M1	1	04	E3	release
770.174	n/a	RESPONSE	M1	1	16	E4	release
770.244	n/a	RESPONSE	M1	1	17	F4	press
770.275	n/a	RESPONSE	M1	1	05	F3	press
770.768	n/a	RESPONSE	M1	1	02	D3	press
770.797	n/a	RESPONSE	M1	1	14	D4	press
770.842	n/a	RESPONSE	M1	1	05	F3	release
770.868	n/a	RESPONSE	M1	1	17	F4	release
771.036	n/a	RESPONSE	M1	1	14	D4	release
771.05	n/a	RESPONSE	M1	1	02	D3	release
771.271	n/a	RESPONSE	M1	1	14	D4	press
771.286	n/a	RESPONSE	M1	1	02	D3	press
771.755	n/a	RESPONSE	M1	1	02	D3	release
771.854	n/a	RESPONSE	M1	1	14	D4	release
771.856	n/a	RESPONSE	M1	1	12	C4	press
771.87	n/a	RESPONSE	M1	1	00	C3	press
772.216	n/a	RESPONSE	M1	1	04	E3	press
772.231	n/a	RESPONSE	M1	1	16	E4	press
772.314	n/a	RESPONSE	M1	1	12	C4	release
772.356	n/a	RESPONSE	M1	1	00	C3	release
772.554	n/a	RESPONSE	M1	1	16	E4	release
772.562	n/a	RESPONSE	M1	1	07	G3	press
772.565	n/a	RESPONSE	M1	1	19	G4	press
772.572	n/a	RESPONSE	M1	1	04	E3	release
772.596	n/a	RESPONSE	M1	1	05	F3	press
772.762	n/a	RESPONSE	M1	1	05	F3	release
773.674	n/a	RESPONSE	M1	1	19	G4	release
773.796	n/a	RESPONSE	M1	1	07	G3	release
774.295	7.759	FIXCROSS	n/a	n/a	n/a	n/a	n/a
782.053	6.325	CUE_LISTEN	M1	2	n/a	n/a	n/a
788.378	7.758	FIXCROSS	n/a	n/a	n/a	n/a	n/a
796.137	6.317	CUE_PLAYBACK_BOTH_HANDS	M1	2	n/a	n/a	n/a
796.899	n/a	RESPONSE	M1	2	07	G3	press
796.941	n/a	RESPONSE	M1	2	19	G4	press
797.491	n/a	RESPONSE	M1	2	04	E3	press
797.494	n/a	RESPONSE	M1	2	16	E4	press
797.521	n/a	RESPONSE	M1	2	19	G4	release
797.577	n/a	RESPONSE	M1	2	07	G3	release
797.775	n/a	RESPONSE	M1	2	16	E4	release
798.0	n/a	RESPONSE	M1	2	16	E4	press
798.386	n/a	RESPONSE	M1	2	16	E4	release
798.401	n/a	RESPONSE	M1	2	04	E3	release
798.595	n/a	RESPONSE	M1	2	17	F4	press
798.597	n/a	RESPONSE	M1	2	05	F3	press
799.12	n/a	RESPONSE	M1	2	02	D3	press
799.135	n/a	RESPONSE	M1	2	14	D4	press
799.177	n/a	RESPONSE	M1	2	17	F4	release
799.206	n/a	RESPONSE	M1	2	05	F3	release
799.4	n/a	RESPONSE	M1	2	14	D4	release
799.429	n/a	RESPONSE	M1	2	02	D3	release
799.664	n/a	RESPONSE	M1	2	02	D3	press
799.679	n/a	RESPONSE	M1	2	14	D4	press
800.08	n/a	RESPONSE	M1	2	02	D3	release
800.095	n/a	RESPONSE	M1	2	14	D4	release
800.289	n/a	RESPONSE	M1	2	12	C4	press
800.306	n/a	RESPONSE	M1	2	00	C3	press
800.745	n/a	RESPONSE	M1	2	16	E4	press
800.747	n/a	RESPONSE	M1	2	04	E3	press
800.83	n/a	RESPONSE	M1	2	12	C4	release
800.859	n/a	RESPONSE	M1	2	00	C3	release
801.121	n/a	RESPONSE	M1	2	04	E3	release
801.136	n/a	RESPONSE	M1	2	12	C4	press
801.139	n/a	RESPONSE	M1	2	00	C3	press
801.166	n/a	RESPONSE	M1	2	16	E4	release
801.827	n/a	RESPONSE	M1	2	00	C3	release
802.025	n/a	RESPONSE	M1	2	12	C4	release
802.453	7.758	FIXCROSS	n/a	n/a	n/a	n/a	n/a
810.212	6.317	CUE_LISTEN	M1	1	n/a	n/a	n/a
816.528	7.759	FIXCROSS	n/a	n/a	n/a	n/a	n/a
824.287	6.325	CUE_PLAYBACK_RIGHT_HAND	M1	1	n/a	n/a	n/a
825.009	n/a	RESPONSE	M1	1	19	G4	press
825.579	n/a	RESPONSE	M1	1	16	E4	press
825.64	n/a	RESPONSE	M1	1	19	G4	release
825.786	n/a	RESPONSE	M1	1	16	E4	release
826.072	n/a	RESPONSE	M1	1	16	E4	press
826.464	n/a	RESPONSE	M1	1	16	E4	release
826.739	n/a	RESPONSE	M1	1	17	F4	press
827.111	n/a	RESPONSE	M1	1	17	F4	release
827.181	n/a	RESPONSE	M1	1	17	F4	press
827.664	n/a	RESPONSE	M1	1	14	D4	press
827.666	n/a	RESPONSE	M1	1	17	F4	release
827.909	n/a	RESPONSE	M1	1	14	D4	release
828.1	n/a	RESPONSE	M1	1	14	D4	press
828.624	n/a	RESPONSE	M1	1	12	C4	press
828.626	n/a	RESPONSE	M1	1	14	D4	release
828.942	n/a	RESPONSE	M1	1	16	E4	press
829.054	n/a	RESPONSE	M1	1	12	C4	release
829.29	n/a	RESPONSE	M1	1	19	G4	press
829.317	n/a	RESPONSE	M1	1	16	E4	release
830.076	n/a	RESPONSE	M1	1	19	G4	release
830.612	7.758	FIXCROSS	n/a	n/a	n/a	n/a	n/a
838.37	6.317	CUE_LISTEN	M1	2	n/a	n/a	n/a
844.687	7.758	FIXCROSS	n/a	n/a	n/a	n/a	n/a
852.445	6.317	CUE_PLAYBACK_RIGHT_HAND	M1	2	n/a	n/a	n/a
853.162	n/a	RESPONSE	M1	2	19	G4	press
853.21	n/a	RESPONSE	M1	2	21	A4	press
853.51	n/a	RESPONSE	M1	2	21	A4	release
853.664	n/a	RESPONSE	M1	2	19	G4	release
853.934	n/a	RESPONSE	M1	2	16	E4	press
854.252	n/a	RESPONSE	M1	2	16	E4	release
854.416	n/a	RESPONSE	M1	2	16	E4	press
854.74	n/a	RESPONSE	M1	2	16	E4	release
854.856	n/a	RESPONSE	M1	2	17	F4	press
855.305	n/a	RESPONSE	M1	2	14	D4	press
855.374	n/a	RESPONSE	M1	2	17	F4	release
855.555	n/a	RESPONSE	M1	2	14	D4	release
855.769	n/a	RESPONSE	M1	2	14	D4	press
856.301	n/a	RESPONSE	M1	2	14	D4	release
856.36	n/a	RESPONSE	M1	2	12	C4	press
856.84	n/a	RESPONSE	M1	2	16	E4	press
856.979	n/a	RESPONSE	M1	2	12	C4	release
857.255	n/a	RESPONSE	M1	2	12	C4	press
857.339	n/a	RESPONSE	M1	2	16	E4	release
858.364	n/a	RESPONSE	M1	2	12	C4	release
858.762	7.759	FIXCROSS	n/a	n/a	n/a	n/a	n/a
866.52	6.325	CUE_LISTEN	M1	1	n/a	n/a	n/a
872.845	7.758	FIXCROSS	n/a	n/a	n/a	n/a	n/a
880.604	6.317	CUE_PLAYBACK_BOTH_HANDS	M1	1	n/a	n/a	n/a
881.158	n/a	RESPONSE	M1	1	19	G4	press
881.16	n/a	RESPONSE	M1	1	07	G3	press
881.71	n/a	RESPONSE	M1	1	04	E3	press
881.725	n/a	RESPONSE	M1	1	16	E4	press
881.755	n/a	RESPONSE	M1	1	07	G3	release
881.785	n/a	RESPONSE	M1	1	19	G4	release
881.991	n/a	RESPONSE	M1	1	16	E4	release
882.021	n/a	RESPONSE	M1	1	04	E3	release
882.201	n/a	RESPONSE	M1	1	04	E3	press
882.242	n/a	RESPONSE	M1	1	16	E4	press
882.566	n/a	RESPONSE	M1	1	16	E4	release
882.656	n/a	RESPONSE	M1	1	04	E3	release
882.701	n/a	RESPONSE	M1	1	17	F4	press
882.718	n/a	RESPONSE	M1	1	05	F3	press
883.134	n/a	RESPONSE	M1	1	17	F4	release
883.165	n/a	RESPONSE	M1	1	14	D4	press
883.168	n/a	RESPONSE	M1	1	02	D3	press
883.191	n/a	RESPONSE	M1	1	05	F3	release
883.416	n/a	RESPONSE	M1	1	02	D3	release
883.42	n/a	RESPONSE	M1	1	14	D4	release
883.652	n/a	RESPONSE	M1	1	02	D3	press
883.698	n/a	RESPONSE	M1	1	14	D4	press
884.09	n/a	RESPONSE	M1	1	02	D3	release
884.144	n/a	RESPONSE	M1	1	14	D4	release
884.22	n/a	RESPONSE	M1	1	12	C4	press
884.222	n/a	RESPONSE	M1	1	00	C3	press
884.561	n/a	RESPONSE	M1	1	04	E3	press
884.579	n/a	RESPONSE	M1	1	16	E4	press
884.699	n/a	RESPONSE	M1	1	12	C4	release
884.776	n/a	RESPONSE	M1	1	00	C3	release
884.814	n/a	RESPONSE	M1	1	19	G4	press
884.866	n/a	RESPONSE	M1	1	16	E4	release
884.898	n/a	RESPONSE	M1	1	07	G3	press
884.924	n/a	RESPONSE	M1	1	04	E3	release
885.825	n/a	RESPONSE	M1	1	19	G4	release
886.075	n/a	RESPONSE	M1	1	07	G3	release
886.92	7.758	FIXCROSS	n/a	n/a	n/a	n/a	n/a
894.679	6.317	CUE_LISTEN	M1	2	n/a	n/a	n/a
900.995	7.758	FIXCROSS	n/a	n/a	n/a	n/a	n/a
908.754	117.433	CUE_PLAYBACK_BOTH_HANDS	M1	2	n/a	n/a	n/a
909.458	n/a	RESPONSE	M1	2	07	G3	press
909.486	n/a	RESPONSE	M1	2	19	G4	press
909.97	n/a	RESPONSE	M1	2	04	E3	press
909.999	n/a	RESPONSE	M1	2	16	E4	press
910.001	n/a	RESPONSE	M1	2	07	G3	release
910.056	n/a	RESPONSE	M1	2	19	G4	release
910.236	n/a	RESPONSE	M1	2	04	E3	release
910.251	n/a	RESPONSE	M1	2	16	E4	release
910.459	n/a	RESPONSE	M1	2	04	E3	press
910.504	n/a	RESPONSE	M1	2	16	E4	press
910.832	n/a	RESPONSE	M1	2	16	E4	release
910.89	n/a	RESPONSE	M1	2	04	E3	release
911.0	n/a	RESPONSE	M1	2	05	F3	press
911.002	n/a	RESPONSE	M1	2	17	F4	press
911.456	n/a	RESPONSE	M1	2	05	F3	release
911.472	n/a	RESPONSE	M1	2	17	F4	release
911.486	n/a	RESPONSE	M1	2	02	D3	press
911.501	n/a	RESPONSE	M1	2	14	D4	press
911.736	n/a	RESPONSE	M1	2	14	D4	release
911.765	n/a	RESPONSE	M1	2	02	D3	release
912.001	n/a	RESPONSE	M1	2	14	D4	press
912.004	n/a	RESPONSE	M1	2	02	D3	press
912.361	n/a	RESPONSE	M1	2	14	D4	release
912.364	n/a	RESPONSE	M1	2	02	D3	release
912.658	n/a	RESPONSE	M1	2	12	C4	press
912.681	n/a	RESPONSE	M1	2	00	C3	press
913.015	n/a	RESPONSE	M1	2	04	E3	press
913.039	n/a	RESPONSE	M1	2	16	E4	press
913.078	n/a	RESPONSE	M1	2	00	C3	release
913.155	n/a	RESPONSE	M1	2	12	C4	release
913.247	n/a	FIXCROSS	n/a	n/a	n/a	n/a	n/a
913.375	n/a	RESPONSE	M1	2	04	E3	release
913.389	n/a	RESPONSE	M1	2	16	E4	release
913.428	n/a	RESPONSE	M1	2	12	C4	press
913.446	n/a	RESPONSE	M1	2	00	C3	press
913.956	n/a	RESPONSE	M1	2	00	C3	release
914.115	n/a	RESPONSE	M1	2	12	C4	release
