onset	duration	trial_type	melody_number	melody_part	key	sound	action
0.0	14.085	CUE_START	n/a	n/a	n/a	n/a	n/a
14.086	7.76	FIXCROSS	n/a	n/a	n/a	n/a	n/a
21.846	6.316	CUE_LISTEN	M3	1	n/a	n/a	n/a
28.161	7.758	FIXCROSS	n/a	n/a	n/a	n/a	n/a
35.919	6.317	CUE_PLAYBACK_BOTH_HANDS	M3	1	n/a	n/a	n/a
37.512	n/a	RESPONSE	M3	1	00	C3	press
37.536	n/a	RESPONSE	M3	1	12	C4	press
37.945	n/a	RESPONSE	M3	1	07	G3	press
37.986	n/a	RESPONSE	M3	1	14	D4	press
38.13	n/a	RESPONSE	M3	1	12	C4	release
38.413	n/a	RESPONSE	M3	1	04	E3	press
38.424	n/a	RESPONSE	M3	1	16	E4	press
38.46	n/a	RESPONSE	M3	1	00	C3	release
38.506	n/a	RESPONSE	M3	1	07	G3	release
38.575	n/a	RESPONSE	M3	1	14	D4	release
38.883	n/a	RESPONSE	M3	1	07	G3	press
38.894	n/a	RESPONSE	M3	1	12	C4	press
39.07	n/a	RESPONSE	M3	1	04	E3	release
39.225	n/a	RESPONSE	M3	1	16	E4	release
39.235	n/a	RESPONSE	M3	1	12	C4	release
39.33	n/a	RESPONSE	M3	1	00	C3	press
39.356	n/a	RESPONSE	M3	1	12	C4	press
39.369	n/a	RESPONSE	M3	1	07	G3	release
39.748	n/a	RESPONSE	M3	1	07	G3	press
39.79	n/a	RESPONSE	M3	1	14	D4	press
39.863	n/a	RESPONSE	M3	1	00	C3	release
40.166	n/a	RESPONSE	M3	1	12	C4	release
40.193	n/a	RESPONSE	M3	1	04	E3	press
40.218	n/a	RESPONSE	M3	1	16	E4	press
40.338	n/a	RESPONSE	M3	1	14	D4	release
40.34	n/a	RESPONSE	M3	1	07	G3	release
40.649	n/a	RESPONSE	M3	1	07	G3	press
40.675	n/a	RESPONSE	M3	1	12	C4	press
40.735	n/a	RESPONSE	M3	1	04	E3	release
40.778	n/a	RESPONSE	M3	1	16	E4	release
41.271	n/a	RESPONSE	M3	1	12	C4	release
41.425	n/a	RESPONSE	M3	1	07	G3	release
42.236	7.758	FIXCROSS	n/a	n/a	n/a	n/a	n/a
49.994	6.325	CUE_LISTEN	M3	2	n/a	n/a	n/a
56.319	7.758	FIXCROSS	n/a	n/a	n/a	n/a	n/a
64.078	6.317	CUE_PLAYBACK_BOTH_HANDS	M3	2	n/a	n/a	n/a
64.819	n/a	RESPONSE	M3	2	00	C3	press
64.823	n/a	RESPONSE	M3	2	16	E4	press
65.302	n/a	RESPONSE	M3	2	07	G3	press
65.315	n/a	RESPONSE	M3	2	17	F4	press
65.544	n/a	RESPONSE	M3	2	16	E4	release
65.605	n/a	RESPONSE	M3	2	00	C3	release
65.756	n/a	RESPONSE	M3	2	04	E3	press
65.789	n/a	RESPONSE	M3	2	19	G4	press
65.842	n/a	RESPONSE	M3	2	07	G3	release
65.92	n/a	RESPONSE	M3	2	17	F4	release
66.244	n/a	RESPONSE	M3	2	07	G3	press
66.333	n/a	RESPONSE	M3	2	04	E3	release
66.695	n/a	RESPONSE	M3	2	00	C3	press
66.718	n/a	RESPONSE	M3	2	16	E4	press
66.769	n/a	RESPONSE	M3	2	07	G3	release
66.828	n/a	RESPONSE	M3	2	19	G4	release
67.12	n/a	RESPONSE	M3	2	07	G3	press
67.15	n/a	RESPONSE	M3	2	17	F4	press
67.398	n/a	RESPONSE	M3	2	00	C3	release
67.584	n/a	RESPONSE	M3	2	19	G4	press
67.586	n/a	RESPONSE	M3	2	04	E3	press
67.649	n/a	RESPONSE	M3	2	16	E4	release
67.694	n/a	RESPONSE	M3	2	07	G3	release
67.7	n/a	RESPONSE	M3	2	17	F4	release
68.068	n/a	RESPONSE	M3	2	07	G3	press
68.135	n/a	RESPONSE	M3	2	04	E3	release
68.696	n/a	RESPONSE	M3	2	19	G4	release
68.725	n/a	RESPONSE	M3	2	07	G3	release
70.394	7.758	FIXCROSS	n/a	n/a	n/a	n/a	n/a
78.153	6.325	CUE_LISTEN	M3	1	n/a	n/a	n/a
84.478	7.758	FIXCROSS	n/a	n/a	n/a	n/a	n/a
92.236	6.317	CUE_PLAYBACK_BOTH_HANDS	M3	1	n/a	n/a	n/a
93.433	n/a	RESPONSE	M3	1	00	C3	press
93.453	n/a	RESPONSE	M3	1	19	G4	press
93.694	n/a	RESPONSE	M3	1	21	A4	press
93.875	n/a	RESPONSE	M3	1	19	G4	release
93.966	n/a	RESPONSE	M3	1	07	G3	press
93.978	n/a	RESPONSE	M3	1	19	G4	press
94.161	n/a	RESPONSE	M3	1	21	A4	release
94.19	n/a	RESPONSE	M3	1	17	F4	press
94.211	n/a	RESPONSE	M3	1	00	C3	release
94.463	n/a	RESPONSE	M3	1	04	E3	press
94.494	n/a	RESPONSE	M3	1	16	E4	press
94.515	n/a	RESPONSE	M3	1	19	G4	release
94.539	n/a	RESPONSE	M3	1	07	G3	release
94.688	n/a	RESPONSE	M3	1	17	F4	release
94.941	n/a	RESPONSE	M3	1	07	G3	press
94.97	n/a	RESPONSE	M3	1	12	C4	press
95.044	n/a	RESPONSE	M3	1	04	E3	release
95.145	n/a	RESPONSE	M3	1	16	E4	release
95.504	n/a	RESPONSE	M3	1	00	C3	press
95.525	n/a	RESPONSE	M3	1	19	G4	press
95.609	n/a	RESPONSE	M3	1	07	G3	release
95.619	n/a	RESPONSE	M3	1	12	C4	release
95.759	n/a	RESPONSE	M3	1	21	A4	press
95.95	n/a	RESPONSE	M3	1	19	G4	release
96.063	n/a	RESPONSE	M3	1	07	G3	press
96.175	n/a	RESPONSE	M3	1	17	F4	press
96.184	n/a	RESPONSE	M3	1	19	G4	press
96.306	n/a	RESPONSE	M3	1	00	C3	release
96.31	n/a	RESPONSE	M3	1	21	A4	release
96.72	n/a	RESPONSE	M3	1	04	E3	press
96.8	n/a	RESPONSE	M3	1	07	G3	release
96.831	n/a	RESPONSE	M3	1	19	G4	release
97.315	n/a	RESPONSE	M3	1	07	G3	press
97.323	n/a	RESPONSE	M3	1	12	C4	press
97.33	n/a	RESPONSE	M3	1	14	D4	press
97.384	n/a	RESPONSE	M3	1	04	E3	release
97.59	n/a	RESPONSE	M3	1	14	D4	release
97.804	n/a	RESPONSE	M3	1	17	F4	release
98.106	n/a	RESPONSE	M3	1	12	C4	release
98.13	n/a	RESPONSE	M3	1	07	G3	release
98.553	7.758	FIXCROSS	n/a	n/a	n/a	n/a	n/a
106.311	6.317	CUE_LISTEN	M3	2	n/a	n/a	n/a
112.628	7.758	FIXCROSS	n/a	n/a	n/a	n/a	n/a
120.386	6.325	CUE_PLAYBACK_BOTH_HANDS	M3	2	n/a	n/a	n/a
121.018	n/a	RESPONSE	M3	2	00	C3	press
121.026	n/a	RESPONSE	M3	2	12	C4	press
121.408	n/a	RESPONSE	M3	2	12	C4	release
121.549	n/a	RESPONSE	M3	2	09	A3	press
121.93	n/a	RESPONSE	M3	2	09	A3	release
122.041	n/a	RESPONSE	M3	2	00	C3	release
122.103	n/a	RESPONSE	M3	2	12	C4	press
122.106	n/a	RESPONSE	M3	2	00	C3	press
122.829	n/a	RESPONSE	M3	2	00	C3	release
122.848	n/a	RESPONSE	M3	2	12	C4	release
123.039	n/a	RESPONSE	M3	2	00	C3	press
123.05	n/a	RESPONSE	M3	2	12	C4	press
123.451	n/a	RESPONSE	M3	2	12	C4	release
123.663	n/a	RESPONSE	M3	2	09	A3	press
124.074	n/a	RESPONSE	M3	2	00	C3	release
124.076	n/a	RESPONSE	M3	2	09	A3	release
124.208	n/a	RESPONSE	M3	2	00	C3	press
124.228	n/a	RESPONSE	M3	2	12	C4	press
124.859	n/a	RESPONSE	M3	2	00	C3	release
124.983	n/a	RESPONSE	M3	2	12	C4	release
126.711	7.758	FIXCROSS	n/a	n/a	n/a	n/a	n/a
134.47	6.317	CUE_LISTEN	M1	1	n/a	n/a	n/a
140.786	7.758	FIXCROSS	n/a	n/a	n/a	n/a	n/a
148.545	6.317	CUE_PLAYBACK_BOTH_HANDS	M1	1	n/a	n/a	n/a
149.428	n/a	RESPONSE	M1	1	19	G4	press
149.436	n/a	RESPONSE	M1	1	07	G3	press
149.439	n/a	RESPONSE	M1	1	00	C3	press
149.444	n/a	RESPONSE	M1	1	04	E3	press
149.859	n/a	RESPONSE	M1	1	16	E4	press
149.975	n/a	RESPONSE	M1	1	19	G4	release
150.166	n/a	RESPONSE	M1	1	16	E4	release
150.323	n/a	RESPONSE	M1	1	16	E4	press
150.52	n/a	RESPONSE	M1	1	00	C3	release
150.584	n/a	RESPONSE	M1	1	04	E3	release
150.596	n/a	RESPONSE	M1	1	16	E4	release
150.794	n/a	RESPONSE	M1	1	02	D3	press
150.81	n/a	RESPONSE	M1	1	17	F4	press
150.813	n/a	RESPONSE	M1	1	05	F3	press
151.233	n/a	RESPONSE	M1	1	14	D4	press
151.364	n/a	RESPONSE	M1	1	17	F4	release
151.555	n/a	RESPONSE	M1	1	14	D4	release
151.706	n/a	RESPONSE	M1	1	14	D4	press
151.918	n/a	RESPONSE	M1	1	05	F3	release
151.93	n/a	RESPONSE	M1	1	02	D3	release
151.96	n/a	RESPONSE	M1	1	07	G3	release
152.044	n/a	RESPONSE	M1	1	14	D4	release
152.123	n/a	RESPONSE	M1	1	04	E3	press
152.146	n/a	RESPONSE	M1	1	07	G3	press
152.155	n/a	RESPONSE	M1	1	00	C3	press
152.158	n/a	RESPONSE	M1	1	12	C4	press
152.199	n/a	RESPONSE	M1	1	02	D3	press
152.55	n/a	RESPONSE	M1	1	16	E4	press
152.881	n/a	RESPONSE	M1	1	12	C4	release
152.923	n/a	RESPONSE	M1	1	19	G4	press
153.044	n/a	RESPONSE	M1	1	16	E4	release
153.275	n/a	RESPONSE	M1	1	16	E4	press
153.446	n/a	RESPONSE	M1	1	02	D3	release
153.458	n/a	RESPONSE	M1	1	16	E4	release
153.55	n/a	RESPONSE	M1	1	19	G4	release
153.62	n/a	RESPONSE	M1	1	00	C3	release
153.631	n/a	RESPONSE	M1	1	04	E3	release
153.833	n/a	RESPONSE	M1	1	07	G3	release
154.861	7.758	FIXCROSS	n/a	n/a	n/a	n/a	n/a
162.62	6.325	CUE_LISTEN	M1	2	n/a	n/a	n/a
168.945	7.758	FIXCROSS	n/a	n/a	n/a	n/a	n/a
176.703	6.317	CUE_PLAYBACK_BOTH_HANDS	M1	2	n/a	n/a	n/a
177.593	n/a	RESPONSE	M1	2	07	G3	press
177.595	n/a	RESPONSE	M1	2	04	E3	press
177.598	n/a	RESPONSE	M1	2	00	C3	press
177.601	n/a	RESPONSE	M1	2	19	G4	press
177.649	n/a	RESPONSE	M1	2	02	D3	press
177.916	n/a	RESPONSE	M1	2	02	D3	release
178.155	n/a	RESPONSE	M1	2	15	D#4	press
178.19	n/a	RESPONSE	M1	2	16	E4	press
178.211	n/a	RESPONSE	M1	2	15	D#4	release
178.323	n/a	RESPONSE	M1	2	19	G4	release
178.548	n/a	RESPONSE	M1	2	16	E4	release
178.661	n/a	RESPONSE	M1	2	16	E4	press
178.89	n/a	RESPONSE	M1	2	00	C3	release
178.965	n/a	RESPONSE	M1	2	16	E4	release
178.991	n/a	RESPONSE	M1	2	04	E3	release
179.123	n/a	RESPONSE	M1	2	17	F4	press
179.131	n/a	RESPONSE	M1	2	02	D3	press
179.134	n/a	RESPONSE	M1	2	05	F3	press
179.593	n/a	RESPONSE	M1	2	14	D4	press
179.654	n/a	RESPONSE	M1	2	17	F4	release
179.86	n/a	RESPONSE	M1	2	14	D4	release
180.033	n/a	RESPONSE	M1	2	14	D4	press
180.214	n/a	RESPONSE	M1	2	02	D3	release
180.253	n/a	RESPONSE	M1	2	05	F3	release
180.323	n/a	RESPONSE	M1	2	07	G3	release
180.329	n/a	RESPONSE	M1	2	14	D4	release
180.488	n/a	RESPONSE	M1	2	00	C3	press
180.49	n/a	RESPONSE	M1	2	07	G3	press
180.503	n/a	RESPONSE	M1	2	04	E3	press
180.538	n/a	RESPONSE	M1	2	12	C4	press
180.823	n/a	RESPONSE	M1	2	16	E4	press
180.934	n/a	RESPONSE	M1	2	12	C4	release
181.095	n/a	RESPONSE	M1	2	12	C4	press
181.256	n/a	RESPONSE	M1	2	16	E4	release
181.719	n/a	RESPONSE	M1	2	12	C4	release
181.779	n/a	RESPONSE	M1	2	04	E3	release
181.801	n/a	RESPONSE	M1	2	00	C3	release
181.941	n/a	RESPONSE	M1	2	07	G3	release
183.02	7.758	FIXCROSS	n/a	n/a	n/a	n/a	n/a
190.778	6.317	CUE_LISTEN	M2	1	n/a	n/a	n/a
197.095	7.758	FIXCROSS	n/a	n/a	n/a	n/a	n/a
204.853	6.325	CUE_PLAYBACK_BOTH_HANDS	M2	1	n/a	n/a	n/a
205.831	n/a	RESPONSE	M2	1	23	B4	press
206.143	n/a	RESPONSE	M2	1	23	B4	release
206.993	n/a	RESPONSE	M2	1	23	B4	press
206.995	n/a	RESPONSE	M2	1	00	C3	press
207.015	n/a	RESPONSE	M2	1	07	G3	press
207.436	n/a	RESPONSE	M2	1	23	B4	release
207.654	n/a	RESPONSE	M2	1	07	G3	release
207.666	n/a	RESPONSE	M2	1	00	C3	release
207.834	n/a	RESPONSE	M2	1	24	C5	press
207.841	n/a	RESPONSE	M2	1	00	C3	press
207.858	n/a	RESPONSE	M2	1	07	G3	press
208.306	n/a	RESPONSE	M2	1	24	C5	release
208.328	n/a	RESPONSE	M2	1	19	G4	press
208.365	n/a	RESPONSE	M2	1	21	A4	press
208.494	n/a	RESPONSE	M2	1	21	A4	release
208.648	n/a	RESPONSE	M2	1	19	G4	release
208.876	n/a	RESPONSE	M2	1	19	G4	press
209.198	n/a	RESPONSE	M2	1	19	G4	release
209.274	n/a	RESPONSE	M2	1	00	C3	release
209.284	n/a	RESPONSE	M2	1	07	G3	release
209.364	n/a	RESPONSE	M2	1	00	C3	press
209.399	n/a	RESPONSE	M2	1	17	F4	press
209.483	n/a	RESPONSE	M2	1	07	G3	press
209.698	n/a	RESPONSE	M2	1	17	F4	release
210.114	n/a	RESPONSE	M2	1	00	C3	release
210.306	n/a	RESPONSE	M2	1	07	G3	release
210.418	n/a	RESPONSE	M2	1	24	C5	press
210.42	n/a	RESPONSE	M2	1	00	C3	press
210.426	n/a	RESPONSE	M2	1	07	G3	press
210.848	n/a	RESPONSE	M2	1	19	G4	press
210.85	n/a	RESPONSE	M2	1	24	C5	release
211.119	n/a	RESPONSE	M2	1	00	C3	release
211.121	n/a	RESPONSE	M2	1	07	G3	release
211.141	n/a	RESPONSE	M2	1	19	G4	release
211.178	7.758	FIXCROSS	n/a	n/a	n/a	n/a	n/a
211.254	n/a	RESPONSE	M2	1	00	C3	press
211.264	n/a	RESPONSE	M2	1	07	G3	press
211.285	n/a	RESPONSE	M2	1	19	G4	press
211.616	n/a	RESPONSE	M2	1	17	F4	press
211.678	n/a	RESPONSE	M2	1	19	G4	release
211.919	n/a	RESPONSE	M2	1	00	C3	release
211.94	n/a	RESPONSE	M2	1	07	G3	release
212.071	n/a	RESPONSE	M2	1	16	E4	press
212.074	n/a	RESPONSE	M2	1	07	G3	press
212.076	n/a	RESPONSE	M2	1	00	C3	press
212.148	n/a	RESPONSE	M2	1	17	F4	release
212.488	n/a	RESPONSE	M2	1	17	F4	press
212.549	n/a	RESPONSE	M2	1	16	E4	release
212.73	n/a	RESPONSE	M2	1	07	G3	release
212.733	n/a	RESPONSE	M2	1	00	C3	release
212.865	n/a	RESPONSE	M2	1	00	C3	press
212.884	n/a	RESPONSE	M2	1	07	G3	press
212.895	n/a	RESPONSE	M2	1	19	G4	press
212.936	n/a	RESPONSE	M2	1	17	F4	release
213.298	n/a	RESPONSE	M2	1	19	G4	release
213.339	n/a	RESPONSE	M2	1	00	C3	release
216.482	n/a	RESPONSE	M2	1	07	G3	release
218.936	6.317	CUE_LISTEN	M2	2	n/a	n/a	n/a
225.253	7.758	FIXCROSS	n/a	n/a	n/a	n/a	n/a
233.011	6.317	CUE_PLAYBACK_BOTH_HANDS	M2	2	n/a	n/a	n/a
233.621	n/a	RESPONSE	M2	2	24	C5	press
233.624	n/a	RESPONSE	M2	2	00	C3	press
233.626	n/a	RESPONSE	M2	2	07	G3	press
234.075	n/a	RESPONSE	M2	2	19	G4	press
234.176	n/a	RESPONSE	M2	2	24	C5	release
234.338	n/a	RESPONSE	M2	2	00	C3	release
234.36	n/a	RESPONSE	M2	2	07	G3	release
234.39	n/a	RESPONSE	M2	2	19	G4	release
234.512	n/a	RESPONSE	M2	2	00	C3	press
234.533	n/a	RESPONSE	M2	2	07	G3	press
234.554	n/a	RESPONSE	M2	2	19	G4	press
234.958	n/a	RESPONSE	M2	2	17	F4	press
235.026	n/a	RESPONSE	M2	2	19	G4	release
235.128	n/a	RESPONSE	M2	2	00	C3	release
235.139	n/a	RESPONSE	M2	2	07	G3	release
235.391	n/a	RESPONSE	M2	2	07	G3	press
235.394	n/a	RESPONSE	M2	2	00	C3	press
235.423	n/a	RESPONSE	M2	2	16	E4	press
235.524	n/a	RESPONSE	M2	2	17	F4	release
235.816	n/a	RESPONSE	M2	2	14	D4	press
235.916	n/a	RESPONSE	M2	2	16	E4	release
235.938	n/a	RESPONSE	M2	2	00	C3	release
235.94	n/a	RESPONSE	M2	2	07	G3	release
236.27	n/a	RESPONSE	M2	2	07	G3	press
236.281	n/a	RESPONSE	M2	2	00	C3	press
236.303	n/a	RESPONSE	M2	2	12	C4	press
236.584	n/a	RESPONSE	M2	2	14	D4	release
236.838	n/a	RESPONSE	M2	2	00	C3	release
236.886	n/a	RESPONSE	M2	2	12	C4	release
237.169	n/a	RESPONSE	M2	2	07	G3	release
239.328	7.758	FIXCROSS	n/a	n/a	n/a	n/a	n/a
247.086	6.325	CUE_LISTEN	M2	1	n/a	n/a	n/a
253.411	7.767	FIXCROSS	n/a	n/a	n/a	n/a	n/a
261.178	6.308	CUE_PLAYBACK_BOTH_HANDS	M2	1	n/a	n/a	n/a
261.833	n/a	RESPONSE	M2	1	07	G3	press
261.836	n/a	RESPONSE	M2	1	00	C3	press
261.855	n/a	RESPONSE	M2	1	12	C4	press
262.298	n/a	RESPONSE	M2	1	14	D4	press
262.369	n/a	RESPONSE	M2	1	12	C4	release
262.44	n/a	RESPONSE	M2	1	07	G3	release
262.751	n/a	RESPONSE	M2	1	07	G3	press
262.773	n/a	RESPONSE	M2	1	16	E4	press
262.854	n/a	RESPONSE	M2	1	14	D4	release
263.205	n/a	RESPONSE	M2	1	14	D4	press
263.269	n/a	RESPONSE	M2	1	16	E4	release
263.32	n/a	RESPONSE	M2	1	07	G3	release
263.339	n/a	RESPONSE	M2	1	00	C3	release
263.611	n/a	RESPONSE	M2	1	07	G3	press
263.621	n/a	RESPONSE	M2	1	00	C3	press
263.643	n/a	RESPONSE	M2	1	16	E4	press
263.786	n/a	RESPONSE	M2	1	14	D4	release
264.065	n/a	RESPONSE	M2	1	17	F4	press
264.127	n/a	RESPONSE	M2	1	16	E4	release
264.188	n/a	RESPONSE	M2	1	07	G3	release
264.19	n/a	RESPONSE	M2	1	00	C3	release
264.51	n/a	RESPONSE	M2	1	07	G3	press
264.524	n/a	RESPONSE	M2	1	00	C3	press
264.533	n/a	RESPONSE	M2	1	19	G4	press
264.644	n/a	RESPONSE	M2	1	17	F4	release
265.135	n/a	RESPONSE	M2	1	00	C3	release
265.259	n/a	RESPONSE	M2	1	19	G4	release
266.018	n/a	RESPONSE	M2	1	07	G3	release
267.486	7.758	FIXCROSS	n/a	n/a	n/a	n/a	n/a
275.245	6.333	CUE_LISTEN	M2	2	n/a	n/a	n/a
281.578	7.758	FIXCROSS	n/a	n/a	n/a	n/a	n/a
289.337	6.308	CUE_PLAYBACK_BOTH_HANDS	M2	2	n/a	n/a	n/a
290.01	n/a	RESPONSE	M2	2	00	C3	press
290.016	n/a	RESPONSE	M2	2	07	G3	press
290.035	n/a	RESPONSE	M2	2	16	E4	press
290.524	n/a	RESPONSE	M2	2	19	G4	press
290.56	n/a	RESPONSE	M2	2	17	F4	press
290.643	n/a	RESPONSE	M2	2	07	G3	release
290.665	n/a	RESPONSE	M2	2	17	F4	release
290.744	n/a	RESPONSE	M2	2	16	E4	release
290.746	n/a	RESPONSE	M2	2	00	C3	release
290.829	n/a	RESPONSE	M2	2	19	G4	release
291.05	n/a	RESPONSE	M2	2	00	C3	press
291.093	n/a	RESPONSE	M2	2	19	G4	press
291.103	n/a	RESPONSE	M2	2	07	G3	press
291.476	n/a	RESPONSE	M2	2	17	F4	press
291.575	n/a	RESPONSE	M2	2	19	G4	release
291.636	n/a	RESPONSE	M2	2	07	G3	release
291.658	n/a	RESPONSE	M2	2	00	C3	release
291.939	n/a	RESPONSE	M2	2	00	C3	press
291.941	n/a	RESPONSE	M2	2	07	G3	press
291.951	n/a	RESPONSE	M2	2	16	E4	press
292.013	n/a	RESPONSE	M2	2	17	F4	release
292.405	n/a	RESPONSE	M2	2	14	D4	press
292.506	n/a	RESPONSE	M2	2	16	E4	release
292.598	n/a	RESPONSE	M2	2	00	C3	release
292.639	n/a	RESPONSE	M2	2	07	G3	release
292.86	n/a	RESPONSE	M2	2	07	G3	press
292.863	n/a	RESPONSE	M2	2	12	C4	press
292.873	n/a	RESPONSE	M2	2	00	C3	press
292.936	n/a	RESPONSE	M2	2	14	D4	release
293.405	n/a	RESPONSE	M2	2	00	C3	release
293.428	n/a	RESPONSE	M2	2	12	C4	release
293.498	n/a	RESPONSE	M2	2	07	G3	release
295.645	7.758	FIXCROSS	n/a	n/a	n/a	n/a	n/a
303.403	6.317	CUE_LISTEN	M3	1	n/a	n/a	n/a
309.72	7.758	FIXCROSS	n/a	n/a	n/a	n/a	n/a
317.478	6.325	CUE_PLAYBACK_RIGHT_HAND	M3	1	n/a	n/a	n/a
318.234	n/a	RESPONSE	M3	1	12	C4	press
318.754	n/a	RESPONSE	M3	1	14	D4	press
319.251	n/a	RESPONSE	M3	1	16	E4	press
319.306	n/a	RESPONSE	M3	1	12	C4	release
319.561	n/a	RESPONSE	M3	1	14	D4	release
319.774	n/a	RESPONSE	M3	1	12	C4	press
319.986	n/a	RESPONSE	M3	1	16	E4	release
320.084	n/a	RESPONSE	M3	1	12	C4	release
320.226	n/a	RESPONSE	M3	1	12	C4	press
320.664	n/a	RESPONSE	M3	1	14	D4	press
320.751	n/a	RESPONSE	M3	1	12	C4	release
321.121	n/a	RESPONSE	M3	1	16	E4	press
321.312	n/a	RESPONSE	M3	1	14	D4	release
321.623	n/a	RESPONSE	M3	1	12	C4	press
321.804	n/a	RESPONSE	M3	1	16	E4	release
322.236	n/a	RESPONSE	M3	1	12	C4	release
323.803	7.758	FIXCROSS	n/a	n/a	n/a	n/a	n/a
331.562	6.317	CUE_LISTEN	M3	2	n/a	n/a	n/a
337.878	7.758	FIXCROSS	n/a	n/a	n/a	n/a	n/a
345.637	6.325	CUE_PLAYBACK_RIGHT_HAND	M3	2	n/a	n/a	n/a
346.19	n/a	RESPONSE	M3	2	16	E4	press
346.619	n/a	RESPONSE	M3	2	17	F4	press
347.073	n/a	RESPONSE	M3	2	19	G4	press
347.101	n/a	RESPONSE	M3	2	16	E4	release
347.153	n/a	RESPONSE	M3	2	17	F4	release
348.01	n/a	RESPONSE	M3	2	16	E4	press
348.03	n/a	RESPONSE	M3	2	19	G4	release
348.441	n/a	RESPONSE	M3	2	17	F4	press
348.598	n/a	RESPONSE	M3	2	16	E4	release
348.894	n/a	RESPONSE	M3	2	19	G4	press
348.996	n/a	RESPONSE	M3	2	17	F4	release
349.629	n/a	RESPONSE	M3	2	19	G4	release
351.962	7.758	FIXCROSS	n/a	n/a	n/a	n/a	n/a
359.72	6.317	CUE_LISTEN	M3	1	n/a	n/a	n/a
366.037	7.758	FIXCROSS	n/a	n/a	n/a	n/a	n/a
373.795	6.317	CUE_PLAYBACK_RIGHT_HAND	M3	1	n/a	n/a	n/a
374.671	n/a	RESPONSE	M3	1	19	G4	press
374.934	n/a	RESPONSE	M3	1	21	A4	press
375.053	n/a	RESPONSE	M3	1	19	G4	release
375.214	n/a	RESPONSE	M3	1	19	G4	press
375.438	n/a	RESPONSE	M3	1	17	F4	press
375.466	n/a	RESPONSE	M3	1	21	A4	release
375.628	n/a	RESPONSE	M3	1	19	G4	release
375.739	n/a	RESPONSE	M3	1	16	E4	press
375.962	n/a	RESPONSE	M3	1	17	F4	release
376.221	n/a	RESPONSE	M3	1	12	C4	press
376.583	n/a	RESPONSE	M3	1	16	E4	release
376.624	n/a	RESPONSE	M3	1	12	C4	release
376.755	n/a	RESPONSE	M3	1	19	G4	press
376.996	n/a	RESPONSE	M3	1	21	A4	press
377.058	n/a	RESPONSE	M3	1	19	G4	release
377.251	n/a	RESPONSE	M3	1	19	G4	press
377.461	n/a	RESPONSE	M3	1	17	F4	press
377.496	n/a	RESPONSE	M3	1	21	A4	release
377.799	n/a	RESPONSE	M3	1	16	E4	press
377.803	n/a	RESPONSE	M3	1	19	G4	release
377.969	n/a	RESPONSE	M3	1	17	F4	release
378.306	n/a	RESPONSE	M3	1	12	C4	press
378.751	n/a	RESPONSE	M3	1	16	E4	release
378.846	n/a	RESPONSE	M3	1	12	C4	release
380.112	7.758	FIXCROSS	n/a	n/a	n/a	n/a	n/a
387.87	6.317	CUE_LISTEN	M3	2	n/a	n/a	n/a
394.187	7.758	FIXCROSS	n/a	n/a	n/a	n/a	n/a
401.945	6.325	CUE_PLAYBACK_RIGHT_HAND	M3	2	n/a	n/a	n/a
402.484	n/a	RESPONSE	M3	2	12	C4	press
402.878	n/a	RESPONSE	M3	2	12	C4	release
403.076	n/a	RESPONSE	M3	2	07	G3	press
403.079	n/a	RESPONSE	M3	2	09	A3	press
403.441	n/a	RESPONSE	M3	2	09	A3	release
403.68	n/a	RESPONSE	M3	2	12	C4	press
403.683	n/a	RESPONSE	M3	2	07	G3	release
404.303	n/a	RESPONSE	M3	2	12	C4	release
404.625	n/a	RESPONSE	M3	2	12	C4	press
404.985	n/a	RESPONSE	M3	2	12	C4	release
405.186	n/a	RESPONSE	M3	2	07	G3	press
405.498	n/a	RESPONSE	M3	2	07	G3	release
405.71	n/a	RESPONSE	M3	2	12	C4	press
406.35	n/a	RESPONSE	M3	2	12	C4	release
408.27	7.758	FIXCROSS	n/a	n/a	n/a	n/a	n/a
416.028	6.317	CUE_LISTEN	M1	1	n/a	n/a	n/a
422.345	7.758	FIXCROSS	n/a	n/a	n/a	n/a	n/a
430.104	6.325	CUE_PLAYBACK_RIGHT_HAND	M1	1	n/a	n/a	n/a
430.72	n/a	RESPONSE	M1	1	19	G4	press
431.256	n/a	RESPONSE	M1	1	16	E4	press
431.268	n/a	RESPONSE	M1	1	14	D4	press
431.279	n/a	RESPONSE	M1	1	19	G4	release
431.501	n/a	RESPONSE	M1	1	14	D4	release
431.541	n/a	RESPONSE	M1	1	16	E4	release
431.853	n/a	RESPONSE	M1	1	19	G4	press
432.295	n/a	RESPONSE	M1	1	16	E4	press
432.406	n/a	RESPONSE	M1	1	19	G4	release
432.628	n/a	RESPONSE	M1	1	16	E4	release
432.759	n/a	RESPONSE	M1	1	16	E4	press
433.192	n/a	RESPONSE	M1	1	16	E4	release
433.271	n/a	RESPONSE	M1	1	17	F4	press
433.723	n/a	RESPONSE	M1	1	14	D4	press
433.774	n/a	RESPONSE	M1	1	17	F4	release
433.966	n/a	RESPONSE	M1	1	14	D4	release
434.166	n/a	RESPONSE	M1	1	14	D4	press
434.608	n/a	RESPONSE	M1	1	12	C4	press
434.651	n/a	RESPONSE	M1	1	14	D4	release
434.89	n/a	RESPONSE	M1	1	16	E4	press
435.001	n/a	RESPONSE	M1	1	12	C4	release
435.173	n/a	RESPONSE	M1	1	19	G4	press
435.195	n/a	RESPONSE	M1	1	16	E4	release
435.736	n/a	RESPONSE	M1	1	19	G4	release
436.428	7.758	FIXCROSS	n/a	n/a	n/a	n/a	n/a
444.187	6.317	CUE_LISTEN	M1	2	n/a	n/a	n/a
450.504	7.758	FIXCROSS	n/a	n/a	n/a	n/a	n/a
458.262	6.317	CUE_PLAYBACK_RIGHT_HAND	M1	2	n/a	n/a	n/a
458.855	n/a	RESPONSE	M1	2	19	G4	press
459.361	n/a	RESPONSE	M1	2	16	E4	press
459.368	n/a	RESPONSE	M1	2	14	D4	press
459.41	n/a	RESPONSE	M1	2	19	G4	release
459.626	n/a	RESPONSE	M1	2	14	D4	release
459.693	n/a	RESPONSE	M1	2	16	E4	release
459.815	n/a	RESPONSE	M1	2	16	E4	press
460.185	n/a	RESPONSE	M1	2	16	E4	release
460.23	n/a	RESPONSE	M1	2	17	F4	press
460.694	n/a	RESPONSE	M1	2	14	D4	press
460.749	n/a	RESPONSE	M1	2	17	F4	release
460.952	n/a	RESPONSE	M1	2	14	D4	release
461.103	n/a	RESPONSE	M1	2	14	D4	press
461.584	n/a	RESPONSE	M1	2	12	C4	press
461.605	n/a	RESPONSE	M1	2	14	D4	release
461.829	n/a	RESPONSE	M1	2	16	E4	press
461.908	n/a	RESPONSE	M1	2	12	C4	release
462.079	n/a	RESPONSE	M1	2	12	C4	press
462.201	n/a	RESPONSE	M1	2	16	E4	release
462.743	n/a	RESPONSE	M1	2	12	C4	release
464.578	7.758	FIXCROSS	n/a	n/a	n/a	n/a	n/a
472.337	6.325	CUE_LISTEN	M2	1	n/a	n/a	n/a
478.662	7.758	FIXCROSS	n/a	n/a	n/a	n/a	n/a
486.42	6.317	CUE_PLAYBACK_BOTH_HANDS	M2	1	n/a	n/a	n/a
487.7	n/a	RESPONSE	M2	1	00	C3	press
487.71	n/a	RESPONSE	M2	1	23	B4	press
487.714	n/a	RESPONSE	M2	1	07	G3	press
488.045	n/a	RESPONSE	M2	1	23	B4	release
488.258	n/a	RESPONSE	M2	1	07	G3	release
488.301	n/a	RESPONSE	M2	1	00	C3	release
488.418	n/a	RESPONSE	M2	1	24	C5	press
488.42	n/a	RESPONSE	M2	1	00	C3	press
488.433	n/a	RESPONSE	M2	1	07	G3	press
488.879	n/a	RESPONSE	M2	1	19	G4	press
488.896	n/a	RESPONSE	M2	1	24	C5	release
489.185	n/a	RESPONSE	M2	1	07	G3	release
489.195	n/a	RESPONSE	M2	1	00	C3	release
489.214	n/a	RESPONSE	M2	1	19	G4	release
489.315	n/a	RESPONSE	M2	1	00	C3	press
489.328	n/a	RESPONSE	M2	1	07	G3	press
489.345	n/a	RESPONSE	M2	1	19	G4	press
489.745	n/a	RESPONSE	M2	1	17	F4	press
489.809	n/a	RESPONSE	M2	1	19	G4	release
489.955	n/a	RESPONSE	M2	1	00	C3	release
489.981	n/a	RESPONSE	M2	1	07	G3	release
490.166	n/a	RESPONSE	M2	1	00	C3	press
490.17	n/a	RESPONSE	M2	1	07	G3	press
490.193	n/a	RESPONSE	M2	1	16	E4	press
490.28	n/a	RESPONSE	M2	1	17	F4	release
490.629	n/a	RESPONSE	M2	1	17	F4	press
490.711	n/a	RESPONSE	M2	1	16	E4	release
490.748	n/a	RESPONSE	M2	1	07	G3	release
490.866	n/a	RESPONSE	M2	1	00	C3	release
491.058	n/a	RESPONSE	M2	1	00	C3	press
491.069	n/a	RESPONSE	M2	1	19	G4	press
491.071	n/a	RESPONSE	M2	1	07	G3	press
491.121	n/a	RESPONSE	M2	1	17	F4	release
491.633	n/a	RESPONSE	M2	1	00	C3	release
491.764	n/a	RESPONSE	M2	1	19	G4	release
492.526	n/a	RESPONSE	M2	1	07	G3	release
492.737	7.758	FIXCROSS	n/a	n/a	n/a	n/a	n/a
500.495	6.317	CUE_LISTEN	M2	2	n/a	n/a	n/a
506.812	7.758	FIXCROSS	n/a	n/a	n/a	n/a	n/a
514.57	6.325	CUE_PLAYBACK_BOTH_HANDS	M2	2	n/a	n/a	n/a
515.185	n/a	RESPONSE	M2	2	00	C3	press
515.194	n/a	RESPONSE	M2	2	24	C5	press
515.196	n/a	RESPONSE	M2	2	07	G3	press
515.679	n/a	RESPONSE	M2	2	19	G4	press
515.9	n/a	RESPONSE	M2	2	24	C5	release
515.909	n/a	RESPONSE	M2	2	07	G3	release
515.93	n/a	RESPONSE	M2	2	00	C3	release
516.061	n/a	RESPONSE	M2	2	19	G4	release
516.113	n/a	RESPONSE	M2	2	00	C3	press
516.124	n/a	RESPONSE	M2	2	07	G3	press
516.145	n/a	RESPONSE	M2	2	19	G4	press
516.566	n/a	RESPONSE	M2	2	17	F4	press
516.628	n/a	RESPONSE	M2	2	19	G4	release
516.679	n/a	RESPONSE	M2	2	07	G3	release
516.8	n/a	RESPONSE	M2	2	00	C3	release
516.973	n/a	RESPONSE	M2	2	00	C3	press
516.993	n/a	RESPONSE	M2	2	07	G3	press
517.004	n/a	RESPONSE	M2	2	16	E4	press
517.075	n/a	RESPONSE	M2	2	17	F4	release
517.435	n/a	RESPONSE	M2	2	14	D4	press
517.518	n/a	RESPONSE	M2	2	16	E4	release
517.55	n/a	RESPONSE	M2	2	07	G3	release
517.878	n/a	RESPONSE	M2	2	07	G3	press
517.925	n/a	RESPONSE	M2	2	12	C4	press
518.118	n/a	RESPONSE	M2	2	14	D4	release
518.726	n/a	RESPONSE	M2	2	12	C4	release
518.753	n/a	RESPONSE	M2	2	00	C3	release
518.888	n/a	RESPONSE	M2	2	07	G3	release
520.895	7.758	FIXCROSS	n/a	n/a	n/a	n/a	n/a
528.654	6.317	CUE_LISTEN	M2	1	n/a	n/a	n/a
534.97	7.758	FIXCROSS	n/a	n/a	n/a	n/a	n/a
542.729	6.317	CUE_PLAYBACK_BOTH_HANDS	M2	1	n/a	n/a	n/a
543.405	n/a	RESPONSE	M2	1	07	G3	press
543.415	n/a	RESPONSE	M2	1	00	C3	press
543.436	n/a	RESPONSE	M2	1	12	C4	press
543.878	n/a	RESPONSE	M2	1	14	D4	press
543.959	n/a	RESPONSE	M2	1	12	C4	release
543.98	n/a	RESPONSE	M2	1	07	G3	release
544.061	n/a	RESPONSE	M2	1	00	C3	release
544.315	n/a	RESPONSE	M2	1	00	C3	press
544.334	n/a	RESPONSE	M2	1	07	G3	press
544.345	n/a	RESPONSE	M2	1	16	E4	press
544.408	n/a	RESPONSE	M2	1	14	D4	release
544.798	n/a	RESPONSE	M2	1	14	D4	press
544.8	n/a	RESPONSE	M2	1	12	C4	press
544.85	n/a	RESPONSE	M2	1	00	C3	release
544.871	n/a	RESPONSE	M2	1	16	E4	release
544.913	n/a	RESPONSE	M2	1	07	G3	release
545.234	n/a	RESPONSE	M2	1	00	C3	press
545.236	n/a	RESPONSE	M2	1	12	C4	release
545.256	n/a	RESPONSE	M2	1	16	E4	press
545.268	n/a	RESPONSE	M2	1	07	G3	press
545.319	n/a	RESPONSE	M2	1	14	D4	release
545.721	n/a	RESPONSE	M2	1	17	F4	press
545.791	n/a	RESPONSE	M2	1	07	G3	release
545.794	n/a	RESPONSE	M2	1	00	C3	release
545.815	n/a	RESPONSE	M2	1	16	E4	release
546.135	n/a	RESPONSE	M2	1	00	C3	press
546.149	n/a	RESPONSE	M2	1	07	G3	press
546.168	n/a	RESPONSE	M2	1	19	G4	press
546.299	n/a	RESPONSE	M2	1	17	F4	release
546.69	n/a	RESPONSE	M2	1	00	C3	release
546.734	n/a	RESPONSE	M2	1	19	G4	release
546.793	n/a	RESPONSE	M2	1	07	G3	release
549.045	7.758	FIXCROSS	n/a	n/a	n/a	n/a	n/a
556.804	6.325	CUE_LISTEN	M2	2	n/a	n/a	n/a
563.129	7.758	FIXCROSS	n/a	n/a	n/a	n/a	n/a
570.887	6.317	CUE_PLAYBACK_BOTH_HANDS	M2	2	n/a	n/a	n/a
571.435	n/a	RESPONSE	M2	2	00	C3	press
571.456	n/a	RESPONSE	M2	2	07	G3	press
571.459	n/a	RESPONSE	M2	2	17	F4	press
572.019	n/a	RESPONSE	M2	2	17	F4	release
572.06	n/a	RESPONSE	M2	2	00	C3	release
572.063	n/a	RESPONSE	M2	2	07	G3	release
572.656	n/a	RESPONSE	M2	2	00	C3	press
572.665	n/a	RESPONSE	M2	2	16	E4	press
572.668	n/a	RESPONSE	M2	2	07	G3	press
573.078	n/a	RESPONSE	M2	2	21	A4	press
573.219	n/a	RESPONSE	M2	2	16	E4	release
573.23	n/a	RESPONSE	M2	2	00	C3	release
573.233	n/a	RESPONSE	M2	2	07	G3	release
573.523	n/a	RESPONSE	M2	2	21	A4	release
573.984	n/a	RESPONSE	M2	2	07	G3	press
573.986	n/a	RESPONSE	M2	2	16	E4	press
573.989	n/a	RESPONSE	M2	2	00	C3	press
574.418	n/a	RESPONSE	M2	2	19	G4	press
574.509	n/a	RESPONSE	M2	2	07	G3	release
574.53	n/a	RESPONSE	M2	2	00	C3	release
574.683	n/a	RESPONSE	M2	2	16	E4	release
574.713	n/a	RESPONSE	M2	2	19	G4	release
574.856	n/a	RESPONSE	M2	2	00	C3	press
574.875	n/a	RESPONSE	M2	2	07	G3	press
574.878	n/a	RESPONSE	M2	2	19	G4	press
575.268	n/a	RESPONSE	M2	2	17	F4	press
575.381	n/a	RESPONSE	M2	2	19	G4	release
575.39	n/a	RESPONSE	M2	2	07	G3	release
575.393	n/a	RESPONSE	M2	2	00	C3	release
575.683	n/a	RESPONSE	M2	2	00	C3	press
575.685	n/a	RESPONSE	M2	2	07	G3	press
575.715	n/a	RESPONSE	M2	2	16	E4	press
575.796	n/a	RESPONSE	M2	2	17	F4	release
576.129	n/a	RESPONSE	M2	2	14	D4	press
576.209	n/a	RESPONSE	M2	2	00	C3	release
576.211	n/a	RESPONSE	M2	2	07	G3	release
576.241	n/a	RESPONSE	M2	2	16	E4	release
576.523	n/a	RESPONSE	M2	2	07	G3	press
576.525	n/a	RESPONSE	M2	2	00	C3	press
576.545	n/a	RESPONSE	M2	2	12	C4	press
576.946	n/a	RESPONSE	M2	2	14	D4	release
577.06	n/a	RESPONSE	M2	2	00	C3	release
577.099	n/a	RESPONSE	M2	2	07	G3	release
577.101	n/a	RESPONSE	M2	2	12	C4	release
577.204	7.758	FIXCROSS	n/a	n/a	n/a	n/a	n/a
584.962	6.317	CUE_LISTEN	M1	1	n/a	n/a	n/a
591.279	7.758	FIXCROSS	n/a	n/a	n/a	n/a	n/a
599.037	6.325	CUE_PLAYBACK_RIGHT_HAND	M1	1	n/a	n/a	n/a
599.64	n/a	RESPONSE	M1	1	19	G4	press
600.139	n/a	RESPONSE	M1	1	16	E4	press
600.221	n/a	RESPONSE	M1	1	19	G4	release
600.448	n/a	RESPONSE	M1	1	16	E4	release
600.59	n/a	RESPONSE	M1	1	16	E4	press
601.033	n/a	RESPONSE	M1	1	17	F4	press
601.051	n/a	RESPONSE	M1	1	16	E4	release
601.475	n/a	RESPONSE	M1	1	14	D4	press
601.525	n/a	RESPONSE	M1	1	17	F4	release
601.745	n/a	RESPONSE	M1	1	14	D4	release
601.906	n/a	RESPONSE	M1	1	14	D4	press
602.339	n/a	RESPONSE	M1	1	14	D4	release
602.41	n/a	RESPONSE	M1	1	12	C4	press
602.701	n/a	RESPONSE	M1	1	16	E4	press
602.783	n/a	RESPONSE	M1	1	12	C4	release
602.994	n/a	RESPONSE	M1	1	19	G4	press
603.035	n/a	RESPONSE	M1	1	16	E4	release
603.726	n/a	RESPONSE	M1	1	19	G4	release
605.362	7.758	FIXCROSS	n/a	n/a	n/a	n/a	n/a
613.12	6.317	CUE_LISTEN	M1	2	n/a	n/a	n/a
619.437	7.758	FIXCROSS	n/a	n/a	n/a	n/a	n/a
627.196	6.325	CUE_PLAYBACK_RIGHT_HAND	M1	2	n/a	n/a	n/a
627.69	n/a	RESPONSE	M1	2	19	G4	press
628.22	n/a	RESPONSE	M1	2	16	E4	press
628.301	n/a	RESPONSE	M1	2	19	G4	release
628.48	n/a	RESPONSE	M1	2	16	E4	release
628.67	n/a	RESPONSE	M1	2	16	E4	press
629.015	n/a	RESPONSE	M1	2	16	E4	release
629.154	n/a	RESPONSE	M1	2	17	F4	press
629.591	n/a	RESPONSE	M1	2	14	D4	press
629.624	n/a	RESPONSE	M1	2	17	F4	release
629.85	n/a	RESPONSE	M1	2	14	D4	release
630.065	n/a	RESPONSE	M1	2	14	D4	press
630.449	n/a	RESPONSE	M1	2	14	D4	release
630.536	n/a	RESPONSE	M1	2	12	C4	press
630.785	n/a	RESPONSE	M1	2	16	E4	press
630.834	n/a	RESPONSE	M1	2	12	C4	release
631.025	n/a	RESPONSE	M1	2	12	C4	press
631.128	n/a	RESPONSE	M1	2	16	E4	release
631.57	n/a	RESPONSE	M1	2	12	C4	release
633.52	7.758	FIXCROSS	n/a	n/a	n/a	n/a	n/a
641.279	6.317	CUE_LISTEN	M3	1	n/a	n/a	n/a
647.596	7.758	FIXCROSS	n/a	n/a	n/a	n/a	n/a
655.354	6.317	CUE_PLAYBACK_RIGHT_HAND	M3	1	n/a	n/a	n/a
655.971	n/a	RESPONSE	M3	1	12	C4	press
656.451	n/a	RESPONSE	M3	1	14	D4	press
656.713	n/a	RESPONSE	M3	1	12	C4	release
656.904	n/a	RESPONSE	M3	1	16	E4	press
656.995	n/a	RESPONSE	M3	1	14	D4	release
657.36	n/a	RESPONSE	M3	1	12	C4	press
657.449	n/a	RESPONSE	M3	1	16	E4	release
657.729	n/a	RESPONSE	M3	1	12	C4	release
657.825	n/a	RESPONSE	M3	1	12	C4	press
658.258	n/a	RESPONSE	M3	1	14	D4	press
658.343	n/a	RESPONSE	M3	1	12	C4	release
658.71	n/a	RESPONSE	M3	1	16	E4	press
658.816	n/a	RESPONSE	M3	1	14	D4	release
659.17	n/a	RESPONSE	M3	1	12	C4	press
659.278	n/a	RESPONSE	M3	1	16	E4	release
659.891	n/a	RESPONSE	M3	1	12	C4	release
661.671	7.758	FIXCROSS	n/a	n/a	n/a	n/a	n/a
669.429	6.317	CUE_LISTEN	M3	2	n/a	n/a	n/a
675.746	7.758	FIXCROSS	n/a	n/a	n/a	n/a	n/a
683.504	6.325	CUE_PLAYBACK_RIGHT_HAND	M3	2	n/a	n/a	n/a
683.966	n/a	RESPONSE	M3	2	16	E4	press
684.409	n/a	RESPONSE	M3	2	17	F4	press
684.599	n/a	RESPONSE	M3	2	16	E4	release
684.82	n/a	RESPONSE	M3	2	17	F4	release
684.891	n/a	RESPONSE	M3	2	19	G4	press
685.663	n/a	RESPONSE	M3	2	19	G4	release
685.764	n/a	RESPONSE	M3	2	16	E4	press
686.185	n/a	RESPONSE	M3	2	17	F4	press
686.286	n/a	RESPONSE	M3	2	16	E4	release
686.628	n/a	RESPONSE	M3	2	19	G4	press
686.719	n/a	RESPONSE	M3	2	17	F4	release
687.389	n/a	RESPONSE	M3	2	19	G4	release
689.829	7.759	FIXCROSS	n/a	n/a	n/a	n/a	n/a
697.587	6.317	CUE_LISTEN	M3	1	n/a	n/a	n/a
703.904	7.758	FIXCROSS	n/a	n/a	n/a	n/a	n/a
711.662	6.325	CUE_PLAYBACK_RIGHT_HAND	M3	1	n/a	n/a	n/a
712.616	n/a	RESPONSE	M3	1	19	G4	press
712.858	n/a	RESPONSE	M3	1	21	A4	press
712.919	n/a	RESPONSE	M3	1	19	G4	release
713.11	n/a	RESPONSE	M3	1	19	G4	press
713.243	n/a	RESPONSE	M3	1	21	A4	release
713.353	n/a	RESPONSE	M3	1	17	F4	press
713.584	n/a	RESPONSE	M3	1	19	G4	release
713.625	n/a	RESPONSE	M3	1	16	E4	press
713.749	n/a	RESPONSE	M3	1	17	F4	release
714.13	n/a	RESPONSE	M3	1	12	C4	press
714.309	n/a	RESPONSE	M3	1	16	E4	release
714.55	n/a	RESPONSE	M3	1	12	C4	release
714.621	n/a	RESPONSE	M3	1	19	G4	press
714.883	n/a	RESPONSE	M3	1	23	B4	press
714.914	n/a	RESPONSE	M3	1	19	G4	release
715.165	n/a	RESPONSE	M3	1	23	B4	release
715.396	n/a	RESPONSE	M3	1	19	G4	press
715.628	n/a	RESPONSE	M3	1	21	A4	press
715.709	n/a	RESPONSE	M3	1	19	G4	release
715.89	n/a	RESPONSE	M3	1	19	G4	press
716.131	n/a	RESPONSE	M3	1	17	F4	press
716.134	n/a	RESPONSE	M3	1	21	A4	release
716.235	n/a	RESPONSE	M3	1	19	G4	release
716.405	n/a	RESPONSE	M3	1	16	E4	press
716.496	n/a	RESPONSE	M3	1	17	F4	release
716.879	n/a	RESPONSE	M3	1	12	C4	press
717.129	n/a	RESPONSE	M3	1	16	E4	release
717.383	n/a	RESPONSE	M3	1	12	C4	release
717.987	7.758	FIXCROSS	n/a	n/a	n/a	n/a	n/a
725.746	6.325	CUE_LISTEN	M3	2	n/a	n/a	n/a
732.071	7.758	FIXCROSS	n/a	n/a	n/a	n/a	n/a
739.829	6.308	CUE_PLAYBACK_RIGHT_HAND	M3	2	n/a	n/a	n/a
740.226	n/a	RESPONSE	M3	2	12	C4	press
740.574	n/a	RESPONSE	M3	2	12	C4	release
740.749	n/a	RESPONSE	M3	2	07	G3	press
740.764	n/a	RESPONSE	M3	2	09	A3	press
740.998	n/a	RESPONSE	M3	2	09	A3	release
741.09	n/a	RESPONSE	M3	2	07	G3	release
741.29	n/a	RESPONSE	M3	2	12	C4	press
741.931	n/a	RESPONSE	M3	2	12	C4	release
742.173	n/a	RESPONSE	M3	2	12	C4	press
742.505	n/a	RESPONSE	M3	2	12	C4	release
742.689	n/a	RESPONSE	M3	2	07	G3	press
742.989	n/a	RESPONSE	M3	2	07	G3	release
743.209	n/a	RESPONSE	M3	2	12	C4	press
743.79	n/a	RESPONSE	M3	2	12	C4	release
746.137	7.758	FIXCROSS	n/a	n/a	n/a	n/a	n/a
753.896	6.325	CUE_LISTEN	M1	1	n/a	n/a	n/a
760.221	7.759	FIXCROSS	n/a	n/a	n/a	n/a	n/a
767.979	6.317	CUE_PLAYBACK_BOTH_HANDS	M1	1	n/a	n/a	n/a
768.625	n/a	RESPONSE	M1	1	00	C3	press
768.628	n/a	RESPONSE	M1	1	07	G3	press
768.633	n/a	RESPONSE	M1	1	19	G4	press
768.635	n/a	RESPONSE	M1	1	04	E3	press
769.111	n/a	RESPONSE	M1	1	16	E4	press
769.148	n/a	RESPONSE	M1	1	19	G4	release
769.438	n/a	RESPONSE	M1	1	16	E4	release
769.566	n/a	RESPONSE	M1	1	16	E4	press
769.681	n/a	RESPONSE	M1	1	00	C3	release
769.803	n/a	RESPONSE	M1	1	04	E3	release
769.823	n/a	RESPONSE	M1	1	16	E4	release
770.014	n/a	RESPONSE	M1	1	02	D3	press
770.018	n/a	RESPONSE	M1	1	05	F3	press
770.021	n/a	RESPONSE	M1	1	17	F4	press
770.454	n/a	RESPONSE	M1	1	14	D4	press
770.585	n/a	RESPONSE	M1	1	17	F4	release
770.746	n/a	RESPONSE	M1	1	14	D4	release
770.873	n/a	RESPONSE	M1	1	14	D4	press
771.044	n/a	RESPONSE	M1	1	05	F3	release
771.046	n/a	RESPONSE	M1	1	02	D3	release
771.146	n/a	RESPONSE	M1	1	14	D4	release
771.149	n/a	RESPONSE	M1	1	07	G3	release
771.339	n/a	RESPONSE	M1	1	04	E3	press
771.341	n/a	RESPONSE	M1	1	07	G3	press
771.344	n/a	RESPONSE	M1	1	00	C3	press
771.363	n/a	RESPONSE	M1	1	12	C4	press
771.634	n/a	RESPONSE	M1	1	16	E4	press
771.728	n/a	RESPONSE	M1	1	12	C4	release
771.896	n/a	RESPONSE	M1	1	19	G4	press
771.988	n/a	RESPONSE	M1	1	16	E4	release
772.54	n/a	RESPONSE	M1	1	19	G4	release
772.571	n/a	RESPONSE	M1	1	00	C3	release
772.633	n/a	RESPONSE	M1	1	04	E3	release
772.684	n/a	RESPONSE	M1	1	07	G3	release
774.296	7.758	FIXCROSS	n/a	n/a	n/a	n/a	n/a
782.054	6.317	CUE_LISTEN	M1	2	n/a	n/a	n/a
788.371	7.758	FIXCROSS	n/a	n/a	n/a	n/a	n/a
796.129	6.325	CUE_PLAYBACK_BOTH_HANDS	M1	2	n/a	n/a	n/a
797.03	n/a	RESPONSE	M1	2	19	G4	press
797.033	n/a	RESPONSE	M1	2	07	G3	press
797.043	n/a	RESPONSE	M1	2	00	C3	press
797.045	n/a	RESPONSE	M1	2	04	E3	press
797.519	n/a	RESPONSE	M1	2	16	E4	press
797.521	n/a	RESPONSE	M1	2	19	G4	release
797.703	n/a	RESPONSE	M1	2	07	G3	release
797.94	n/a	RESPONSE	M1	2	16	E4	release
798.005	n/a	RESPONSE	M1	2	16	E4	press
798.258	n/a	RESPONSE	M1	2	00	C3	release
798.324	n/a	RESPONSE	M1	2	04	E3	release
798.346	n/a	RESPONSE	M1	2	16	E4	release
798.529	n/a	RESPONSE	M1	2	07	G3	press
798.531	n/a	RESPONSE	M1	2	17	F4	press
798.534	n/a	RESPONSE	M1	2	02	D3	press
798.541	n/a	RESPONSE	M1	2	05	F3	press
798.973	n/a	RESPONSE	M1	2	14	D4	press
799.026	n/a	RESPONSE	M1	2	17	F4	release
799.258	n/a	RESPONSE	M1	2	14	D4	release
799.435	n/a	RESPONSE	M1	2	14	D4	press
799.62	n/a	RESPONSE	M1	2	02	D3	release
799.656	n/a	RESPONSE	M1	2	05	F3	release
799.736	n/a	RESPONSE	M1	2	14	D4	release
799.763	n/a	RESPONSE	M1	2	07	G3	release
800.021	n/a	RESPONSE	M1	2	00	C3	press
800.033	n/a	RESPONSE	M1	2	04	E3	press
800.059	n/a	RESPONSE	M1	2	07	G3	press
800.066	n/a	RESPONSE	M1	2	12	C4	press
800.399	n/a	RESPONSE	M1	2	16	E4	press
800.549	n/a	RESPONSE	M1	2	12	C4	release
800.703	n/a	RESPONSE	M1	2	12	C4	press
801.098	n/a	RESPONSE	M1	2	16	E4	release
801.22	n/a	RESPONSE	M1	2	04	E3	release
801.24	n/a	RESPONSE	M1	2	00	C3	release
801.243	n/a	RESPONSE	M1	2	12	C4	release
801.353	n/a	RESPONSE	M1	2	07	G3	release
802.454	7.758	FIXCROSS	n/a	n/a	n/a	n/a	n/a
810.213	6.317	CUE_LISTEN	M2	1	n/a	n/a	n/a
816.529	7.758	FIXCROSS	n/a	n/a	n/a	n/a	n/a
824.288	6.317	CUE_PLAYBACK_RIGHT_HAND	M2	1	n/a	n/a	n/a
824.793	n/a	RESPONSE	M2	1	24	C5	press
825.264	n/a	RESPONSE	M2	1	19	G4	press
825.285	n/a	RESPONSE	M2	1	24	C5	release
825.296	n/a	RESPONSE	M2	1	21	A4	press
825.569	n/a	RESPONSE	M2	1	21	A4	release
825.619	n/a	RESPONSE	M2	1	19	G4	release
825.81	n/a	RESPONSE	M2	1	24	C5	press
826.231	n/a	RESPONSE	M2	1	19	G4	press
826.283	n/a	RESPONSE	M2	1	24	C5	release
826.574	n/a	RESPONSE	M2	1	19	G4	release
826.655	n/a	RESPONSE	M2	1	19	G4	press
827.076	n/a	RESPONSE	M2	1	17	F4	press
827.148	n/a	RESPONSE	M2	1	19	G4	release
827.485	n/a	RESPONSE	M2	1	16	E4	press
827.589	n/a	RESPONSE	M2	1	17	F4	release
827.919	n/a	RESPONSE	M2	1	17	F4	press
828.05	n/a	RESPONSE	M2	1	16	E4	release
828.321	n/a	RESPONSE	M2	1	19	G4	press
828.413	n/a	RESPONSE	M2	1	17	F4	release
828.914	n/a	RESPONSE	M2	1	19	G4	release
830.604	7.758	FIXCROSS	n/a	n/a	n/a	n/a	n/a
838.363	6.325	CUE_LISTEN	M2	2	n/a	n/a	n/a
844.688	7.758	FIXCROSS	n/a	n/a	n/a	n/a	n/a
852.446	6.317	CUE_PLAYBACK_RIGHT_HAND	M2	2	n/a	n/a	n/a
852.826	n/a	RESPONSE	M2	2	24	C5	press
853.308	n/a	RESPONSE	M2	2	19	G4	press
853.37	n/a	RESPONSE	M2	2	24	C5	release
853.61	n/a	RESPONSE	M2	2	19	G4	release
853.751	n/a	RESPONSE	M2	2	19	G4	press
854.193	n/a	RESPONSE	M2	2	17	F4	press
854.234	n/a	RESPONSE	M2	2	19	G4	release
854.655	n/a	RESPONSE	M2	2	16	E4	press
854.738	n/a	RESPONSE	M2	2	17	F4	release
855.108	n/a	RESPONSE	M2	2	14	D4	press
855.191	n/a	RESPONSE	M2	2	16	E4	release
855.6	n/a	RESPONSE	M2	2	12	C4	press
855.751	n/a	RESPONSE	M2	2	14	D4	release
856.315	n/a	RESPONSE	M2	2	12	C4	release
858.763	7.758	FIXCROSS	n/a	n/a	n/a	n/a	n/a
866.521	6.317	CUE_LISTEN	M2	1	n/a	n/a	n/a
872.838	7.758	FIXCROSS	n/a	n/a	n/a	n/a	n/a
880.596	6.325	CUE_PLAYBACK_RIGHT_HAND	M2	1	n/a	n/a	n/a
881.118	n/a	RESPONSE	M2	1	12	C4	press
881.599	n/a	RESPONSE	M2	1	14	D4	press
881.95	n/a	RESPONSE	M2	1	12	C4	release
882.081	n/a	RESPONSE	M2	1	16	E4	press
882.173	n/a	RESPONSE	M2	1	14	D4	release
882.545	n/a	RESPONSE	M2	1	14	D4	press
882.636	n/a	RESPONSE	M2	1	16	E4	release
882.978	n/a	RESPONSE	M2	1	16	E4	press
883.029	n/a	RESPONSE	M2	1	14	D4	release
883.39	n/a	RESPONSE	M2	1	17	F4	press
883.861	n/a	RESPONSE	M2	1	19	G4	press
883.864	n/a	RESPONSE	M2	1	21	A4	press
883.884	n/a	RESPONSE	M2	1	16	E4	release
883.895	n/a	RESPONSE	M2	1	17	F4	release
883.996	n/a	RESPONSE	M2	1	21	A4	release
884.838	n/a	RESPONSE	M2	1	19	G4	release
886.921	7.758	FIXCROSS	n/a	n/a	n/a	n/a	n/a
894.679	6.317	CUE_LISTEN	M2	2	n/a	n/a	n/a
900.996	7.758	FIXCROSS	n/a	n/a	n/a	n/a	n/a
908.754	41.607	CUE_PLAYBACK_RIGHT_HAND	M2	2	n/a	n/a	n/a
909.275	n/a	RESPONSE	M2	2	16	E4	press
909.719	n/a	RESPONSE	M2	2	19	G4	press
909.821	n/a	RESPONSE	M2	2	16	E4	release
910.433	n/a	RESPONSE	M2	2	19	G4	release
910.489	n/a	RESPONSE	M2	2	19	G4	press
910.894	n/a	RESPONSE	M2	2	17	F4	press
911.036	n/a	RESPONSE	M2	2	19	G4	release
911.355	n/a	RESPONSE	M2	2	16	E4	press
911.546	n/a	RESPONSE	M2	2	17	F4	release
911.748	n/a	RESPONSE	M2	2	14	D4	press
912.02	n/a	RESPONSE	M2	2	16	E4	release
912.223	n/a	RESPONSE	M2	2	12	C4	press
912.373	n/a	RESPONSE	M2	2	14	D4	release
912.754	n/a	RESPONSE	M2	2	12	C4	release
913.251	n/a	FIXCROSS	n/a	n/a	n/a	n/a	n/a
