onset	duration	trial_type	trial_number	stroop_condition	stim_text(PL)	stim_text(eng)	stim_color(PL)	stim_color(eng)	response_type	response_color
0.0	n/a	RESPONSE	n/a	n/a	n/a	n/a	n/a	n/a	n/a	n/a
0.06	1.0333	ITI	n/a	n/a	n/a	n/a	n/a	n/a	n/a	n/a
1.0934	0.5167	FIXCROSS	n/a	n/a	n/a	n/a	n/a	n/a	n/a	n/a
1.6101	1.6334	T_INK	1	Neutral	xxxxx	xxxxx	niebieski	blue	hit	n/a
3.2153	n/a	RESPONSE	n/a	n/a	n/a	n/a	n/a	n/a	n/a	blue
3.2434	0.5167	FEEDBACK	n/a	n/a	n/a	n/a	n/a	n/a	n/a	n/a
3.7601	1.0167	ITI	n/a	n/a	n/a	n/a	n/a	n/a	n/a	n/a
4.7768	0.5167	FIXCROSS	n/a	n/a	n/a	n/a	n/a	n/a	n/a	n/a
5.2935	0.7	T_INK	2	Neutral	xxxxxxx	xxxxxxx	niebieski	blue	hit	n/a
5.9667	n/a	RESPONSE	n/a	n/a	n/a	n/a	n/a	n/a	n/a	blue
5.9935	0.5167	FEEDBACK	n/a	n/a	n/a	n/a	n/a	n/a	n/a	n/a
6.5101	1.0167	ITI	n/a	n/a	n/a	n/a	n/a	n/a	n/a	n/a
7.5268	0.5167	FIXCROSS	n/a	n/a	n/a	n/a	n/a	n/a	n/a	n/a
8.0435	0.9333	T_INK	3	Incongruent	żółty	yellow	zielony	green	hit	n/a
8.942	n/a	RESPONSE	n/a	n/a	n/a	n/a	n/a	n/a	n/a	green
8.9768	0.5167	FEEDBACK	n/a	n/a	n/a	n/a	n/a	n/a	n/a	n/a
9.4935	1.0167	ITI	n/a	n/a	n/a	n/a	n/a	n/a	n/a	n/a
10.5102	0.5167	FIXCROSS	n/a	n/a	n/a	n/a	n/a	n/a	n/a	n/a
11.0269	0.7667	T_INK	4	Incongruent	czerwony	red	zielony	green	hit	n/a
11.7574	n/a	RESPONSE	n/a	n/a	n/a	n/a	n/a	n/a	n/a	green
11.7935	0.5167	FEEDBACK	n/a	n/a	n/a	n/a	n/a	n/a	n/a	n/a
12.3102	1.0167	ITI	n/a	n/a	n/a	n/a	n/a	n/a	n/a	n/a
13.3269	0.5167	FIXCROSS	n/a	n/a	n/a	n/a	n/a	n/a	n/a	n/a
13.8436	5.0167	T_INK	5	Incongruent	czerwony	red	niebieski	blue	incorrect	n/a
14.7486	n/a	RESPONSE	n/a	n/a	n/a	n/a	n/a	n/a	n/a	n/a
15.5644	n/a	RESPONSE	n/a	n/a	n/a	n/a	n/a	n/a	n/a	blue
17.436	n/a	RESPONSE	n/a	n/a	n/a	n/a	n/a	n/a	n/a	blue
18.8603	0.5167	FEEDBACK	n/a	n/a	n/a	n/a	n/a	n/a	n/a	n/a
19.377	1.0167	ITI	n/a	n/a	n/a	n/a	n/a	n/a	n/a	n/a
20.3937	0.5167	FIXCROSS	n/a	n/a	n/a	n/a	n/a	n/a	n/a	n/a
20.9104	0.85	T_INK	6	Incongruent	zielony	green	czerwony	red	hit	n/a
21.723	n/a	RESPONSE	n/a	n/a	n/a	n/a	n/a	n/a	n/a	red
21.7604	0.5167	FEEDBACK	n/a	n/a	n/a	n/a	n/a	n/a	n/a	n/a
22.277	1.0167	ITI	n/a	n/a	n/a	n/a	n/a	n/a	n/a	n/a
23.2937	0.5167	FIXCROSS	n/a	n/a	n/a	n/a	n/a	n/a	n/a	n/a
23.8104	1.15	T_INK	7	Incongruent	niebieski	blue	zielony	green	hit	n/a
24.9382	n/a	RESPONSE	n/a	n/a	n/a	n/a	n/a	n/a	n/a	green
24.9604	0.5167	FEEDBACK	n/a	n/a	n/a	n/a	n/a	n/a	n/a	n/a
25.4771	1.0167	ITI	n/a	n/a	n/a	n/a	n/a	n/a	n/a	n/a
26.4938	0.5167	FIXCROSS	n/a	n/a	n/a	n/a	n/a	n/a	n/a	n/a
27.0104	0.65	T_INK	8	Neutral	xxxxxxx	xxxxxxx	czerwony	red	hit	n/a
27.6415	n/a	RESPONSE	n/a	n/a	n/a	n/a	n/a	n/a	n/a	red
27.6604	0.5167	FEEDBACK	n/a	n/a	n/a	n/a	n/a	n/a	n/a	n/a
28.1771	1.0167	ITI	n/a	n/a	n/a	n/a	n/a	n/a	n/a	n/a
29.1938	0.5167	FIXCROSS	n/a	n/a	n/a	n/a	n/a	n/a	n/a	n/a
29.7105	0.7833	T_INK	9	Incongruent	czerwony	red	żółty	yellow	hit	n/a
30.4727	n/a	RESPONSE	n/a	n/a	n/a	n/a	n/a	n/a	n/a	yellow
30.4938	0.5167	FEEDBACK	n/a	n/a	n/a	n/a	n/a	n/a	n/a	n/a
31.0105	1.0167	ITI	n/a	n/a	n/a	n/a	n/a	n/a	n/a	n/a
32.0272	0.5167	FIXCROSS	n/a	n/a	n/a	n/a	n/a	n/a	n/a	n/a
32.5438	0.75	T_INK	10	Neutral	xxxxxxxxx	xxxxxxxxx	żółty	yellow	hit	n/a
33.2721	n/a	RESPONSE	n/a	n/a	n/a	n/a	n/a	n/a	n/a	yellow
33.2939	0.5167	FEEDBACK	n/a	n/a	n/a	n/a	n/a	n/a	n/a	n/a
33.8105	1.0167	ITI	n/a	n/a	n/a	n/a	n/a	n/a	n/a	n/a
34.8272	0.5167	FIXCROSS	n/a	n/a	n/a	n/a	n/a	n/a	n/a	n/a
35.3439	0.7	T_INK	11	Incongruent	niebieski	blue	żółty	yellow	hit	n/a
36.0234	n/a	RESPONSE	n/a	n/a	n/a	n/a	n/a	n/a	n/a	yellow
36.0439	0.5167	FEEDBACK	n/a	n/a	n/a	n/a	n/a	n/a	n/a	n/a
36.5606	1.0167	ITI	n/a	n/a	n/a	n/a	n/a	n/a	n/a	n/a
37.5773	0.5167	FIXCROSS	n/a	n/a	n/a	n/a	n/a	n/a	n/a	n/a
38.0939	0.4833	T_INK	12	Neutral	xxxxxxxx	xxxxxxxx	niebieski	blue	hit	n/a
38.5508	n/a	RESPONSE	n/a	n/a	n/a	n/a	n/a	n/a	n/a	blue
38.5773	0.5167	FEEDBACK	n/a	n/a	n/a	n/a	n/a	n/a	n/a	n/a
39.0939	1.0333	ITI	n/a	n/a	n/a	n/a	n/a	n/a	n/a	n/a
53.9073	n/a	RESPONSE	n/a	n/a	n/a	n/a	n/a	n/a	n/a	n/a
53.9608	1.0167	ITI	n/a	n/a	n/a	n/a	n/a	n/a	n/a	n/a
54.9775	0.5167	FIXCROSS	n/a	n/a	n/a	n/a	n/a	n/a	n/a	n/a
55.4942	1.0667	INK	1	Incongruent	czerwony	red	niebieski	blue	hit	n/a
56.5307	n/a	RESPONSE	n/a	n/a	n/a	n/a	n/a	n/a	n/a	blue
56.5609	1.0167	ITI	n/a	n/a	n/a	n/a	n/a	n/a	n/a	n/a
57.5775	0.5167	FIXCROSS	n/a	n/a	n/a	n/a	n/a	n/a	n/a	n/a
58.0942	0.6833	INK	2	Incongruent	zielony	green	niebieski	blue	hit	n/a
58.7541	n/a	RESPONSE	n/a	n/a	n/a	n/a	n/a	n/a	n/a	blue
58.7776	1.0167	ITI	n/a	n/a	n/a	n/a	n/a	n/a	n/a	n/a
59.7942	0.5167	FIXCROSS	n/a	n/a	n/a	n/a	n/a	n/a	n/a	n/a
60.3109	1.0333	INK	3	Neutral	xxxxxxxx	xxxxxxxx	zielony	green	hit	n/a
61.3136	n/a	RESPONSE	n/a	n/a	n/a	n/a	n/a	n/a	n/a	green
61.3443	1.0167	ITI	n/a	n/a	n/a	n/a	n/a	n/a	n/a	n/a
62.3609	0.5167	FIXCROSS	n/a	n/a	n/a	n/a	n/a	n/a	n/a	n/a
62.8776	0.9333	INK	4	Neutral	xxxxxxxxx	xxxxxxxxx	żółty	yellow	hit	n/a
63.793	n/a	RESPONSE	n/a	n/a	n/a	n/a	n/a	n/a	n/a	yellow
63.811	1.0167	ITI	n/a	n/a	n/a	n/a	n/a	n/a	n/a	n/a
64.8276	0.5167	FIXCROSS	n/a	n/a	n/a	n/a	n/a	n/a	n/a	n/a
65.3443	0.5833	INK	5	Incongruent	żółty	yellow	niebieski	blue	hit	n/a
65.9045	n/a	RESPONSE	n/a	n/a	n/a	n/a	n/a	n/a	n/a	blue
65.9277	1.0167	ITI	n/a	n/a	n/a	n/a	n/a	n/a	n/a	n/a
66.9443	0.5167	FIXCROSS	n/a	n/a	n/a	n/a	n/a	n/a	n/a	n/a
67.461	0.55	INK	6	Neutral	xxxxxxx	xxxxxxx	niebieski	blue	hit	n/a
67.984	n/a	RESPONSE	n/a	n/a	n/a	n/a	n/a	n/a	n/a	blue
68.011	1.0167	ITI	n/a	n/a	n/a	n/a	n/a	n/a	n/a	n/a
69.0277	0.5167	FIXCROSS	n/a	n/a	n/a	n/a	n/a	n/a	n/a	n/a
69.5444	0.5833	INK	7	Incongruent	czerwony	red	żółty	yellow	hit	n/a
70.0955	n/a	RESPONSE	n/a	n/a	n/a	n/a	n/a	n/a	n/a	yellow
70.1277	1.0167	ITI	n/a	n/a	n/a	n/a	n/a	n/a	n/a	n/a
71.1444	0.5167	FIXCROSS	n/a	n/a	n/a	n/a	n/a	n/a	n/a	n/a
71.6611	0.5833	INK	8	Neutral	xxxxxxx	xxxxxxx	żółty	yellow	hit	n/a
72.2231	n/a	RESPONSE	n/a	n/a	n/a	n/a	n/a	n/a	n/a	yellow
72.2444	1.0167	ITI	n/a	n/a	n/a	n/a	n/a	n/a	n/a	n/a
73.2611	0.5167	FIXCROSS	n/a	n/a	n/a	n/a	n/a	n/a	n/a	n/a
73.7778	0.8	INK	9	Incongruent	zielony	green	żółty	yellow	hit	n/a
74.5585	n/a	RESPONSE	n/a	n/a	n/a	n/a	n/a	n/a	n/a	yellow
74.5778	1.0167	ITI	n/a	n/a	n/a	n/a	n/a	n/a	n/a	n/a
75.5945	0.5167	FIXCROSS	n/a	n/a	n/a	n/a	n/a	n/a	n/a	n/a
76.1111	0.7167	INK	10	Incongruent	niebieski	blue	czerwony	red	hit	n/a
76.798	n/a	RESPONSE	n/a	n/a	n/a	n/a	n/a	n/a	n/a	red
76.8278	1.0167	ITI	n/a	n/a	n/a	n/a	n/a	n/a	n/a	n/a
77.8445	0.5167	FIXCROSS	n/a	n/a	n/a	n/a	n/a	n/a	n/a	n/a
78.3612	0.6833	INK	11	Neutral	xxxxxxxxx	xxxxxxxxx	żółty	yellow	hit	n/a
79.0215	n/a	RESPONSE	n/a	n/a	n/a	n/a	n/a	n/a	n/a	yellow
79.0445	1.0167	ITI	n/a	n/a	n/a	n/a	n/a	n/a	n/a	n/a
80.0612	0.5167	FIXCROSS	n/a	n/a	n/a	n/a	n/a	n/a	n/a	n/a
80.5779	0.75	INK	12	Neutral	xxxxxxxxx	xxxxxxxxx	czerwony	red	hit	n/a
81.3089	n/a	RESPONSE	n/a	n/a	n/a	n/a	n/a	n/a	n/a	red
81.3279	1.0167	ITI	n/a	n/a	n/a	n/a	n/a	n/a	n/a	n/a
82.3446	0.5167	FIXCROSS	n/a	n/a	n/a	n/a	n/a	n/a	n/a	n/a
82.8612	1.0167	INK	13	Neutral	xxxxxxxxx	xxxxxxxxx	zielony	green	hit	n/a
83.8523	n/a	RESPONSE	n/a	n/a	n/a	n/a	n/a	n/a	n/a	green
83.8779	1.0167	ITI	n/a	n/a	n/a	n/a	n/a	n/a	n/a	n/a
84.8946	0.5167	FIXCROSS	n/a	n/a	n/a	n/a	n/a	n/a	n/a	n/a
85.4113	0.7333	INK	14	Incongruent	zielony	green	żółty	yellow	hit	n/a
86.1238	n/a	RESPONSE	n/a	n/a	n/a	n/a	n/a	n/a	n/a	yellow
86.1446	1.0167	ITI	n/a	n/a	n/a	n/a	n/a	n/a	n/a	n/a
87.1613	0.5167	FIXCROSS	n/a	n/a	n/a	n/a	n/a	n/a	n/a	n/a
87.678	0.7667	INK	15	Neutral	xxxxxxxx	xxxxxxxx	zielony	green	incorrect	n/a
88.4113	n/a	RESPONSE	n/a	n/a	n/a	n/a	n/a	n/a	n/a	red
88.4446	1.0167	ITI	n/a	n/a	n/a	n/a	n/a	n/a	n/a	n/a
89.4613	0.5167	FIXCROSS	n/a	n/a	n/a	n/a	n/a	n/a	n/a	n/a
89.978	0.75	INK	16	Incongruent	czerwony	red	żółty	yellow	hit	n/a
90.6988	n/a	RESPONSE	n/a	n/a	n/a	n/a	n/a	n/a	n/a	yellow
90.728	1.0167	ITI	n/a	n/a	n/a	n/a	n/a	n/a	n/a	n/a
91.7447	0.5167	FIXCROSS	n/a	n/a	n/a	n/a	n/a	n/a	n/a	n/a
92.2614	0.9167	INK	17	Neutral	xxxxx	xxxxx	zielony	green	hit	n/a
93.1462	n/a	RESPONSE	n/a	n/a	n/a	n/a	n/a	n/a	n/a	green
93.1781	1.0167	ITI	n/a	n/a	n/a	n/a	n/a	n/a	n/a	n/a
94.1947	0.5167	FIXCROSS	n/a	n/a	n/a	n/a	n/a	n/a	n/a	n/a
94.7114	0.6	INK	18	Incongruent	żółty	yellow	zielony	green	hit	n/a
95.2897	n/a	RESPONSE	n/a	n/a	n/a	n/a	n/a	n/a	n/a	green
95.3114	1.0167	ITI	n/a	n/a	n/a	n/a	n/a	n/a	n/a	n/a
96.3281	0.5167	FIXCROSS	n/a	n/a	n/a	n/a	n/a	n/a	n/a	n/a
96.8448	0.55	INK	19	Incongruent	żółty	yellow	zielony	green	hit	n/a
97.3692	n/a	RESPONSE	n/a	n/a	n/a	n/a	n/a	n/a	n/a	green
97.3948	1.0167	ITI	n/a	n/a	n/a	n/a	n/a	n/a	n/a	n/a
98.4115	0.5167	FIXCROSS	n/a	n/a	n/a	n/a	n/a	n/a	n/a	n/a
98.9281	0.8333	INK	20	Incongruent	niebieski	blue	żółty	yellow	hit	n/a
99.7367	n/a	RESPONSE	n/a	n/a	n/a	n/a	n/a	n/a	n/a	yellow
99.7615	1.0167	ITI	n/a	n/a	n/a	n/a	n/a	n/a	n/a	n/a
100.7782	0.5167	FIXCROSS	n/a	n/a	n/a	n/a	n/a	n/a	n/a	n/a
101.2948	0.6334	INK	21	Neutral	xxxxxxxxx	xxxxxxxxx	czerwony	red	hit	n/a
101.8962	n/a	RESPONSE	n/a	n/a	n/a	n/a	n/a	n/a	n/a	red
101.9282	1.0167	ITI	n/a	n/a	n/a	n/a	n/a	n/a	n/a	n/a
102.9449	0.5167	FIXCROSS	n/a	n/a	n/a	n/a	n/a	n/a	n/a	n/a
103.4615	0.8	INK	22	Neutral	xxxxxxxx	xxxxxxxx	żółty	yellow	hit	n/a
104.2316	n/a	RESPONSE	n/a	n/a	n/a	n/a	n/a	n/a	n/a	yellow
104.2615	1.0167	ITI	n/a	n/a	n/a	n/a	n/a	n/a	n/a	n/a
105.2782	0.5167	FIXCROSS	n/a	n/a	n/a	n/a	n/a	n/a	n/a	n/a
105.7949	0.6167	INK	23	Incongruent	czerwony	red	żółty	yellow	hit	n/a
106.3911	n/a	RESPONSE	n/a	n/a	n/a	n/a	n/a	n/a	n/a	yellow
106.4116	1.0167	ITI	n/a	n/a	n/a	n/a	n/a	n/a	n/a	n/a
107.4283	0.5167	FIXCROSS	n/a	n/a	n/a	n/a	n/a	n/a	n/a	n/a
107.9449	0.5667	INK	24	Neutral	xxxxxxxx	xxxxxxxx	niebieski	blue	hit	n/a
108.4867	n/a	RESPONSE	n/a	n/a	n/a	n/a	n/a	n/a	n/a	blue
108.5116	1.0167	ITI	n/a	n/a	n/a	n/a	n/a	n/a	n/a	n/a
109.5283	0.5167	FIXCROSS	n/a	n/a	n/a	n/a	n/a	n/a	n/a	n/a
110.045	0.85	INK	25	Incongruent	czerwony	red	zielony	green	hit	n/a
110.8701	n/a	RESPONSE	n/a	n/a	n/a	n/a	n/a	n/a	n/a	green
110.895	1.0167	ITI	n/a	n/a	n/a	n/a	n/a	n/a	n/a	n/a
111.9117	0.5167	FIXCROSS	n/a	n/a	n/a	n/a	n/a	n/a	n/a	n/a
112.4283	0.6333	INK	26	Neutral	xxxxx	xxxxx	czerwony	red	hit	n/a
113.0296	n/a	RESPONSE	n/a	n/a	n/a	n/a	n/a	n/a	n/a	red
113.0617	1.0167	ITI	n/a	n/a	n/a	n/a	n/a	n/a	n/a	n/a
114.0784	0.5167	FIXCROSS	n/a	n/a	n/a	n/a	n/a	n/a	n/a	n/a
114.595	0.75	INK	27	Neutral	xxxxxxxxx	xxxxxxxxx	żółty	yellow	hit	n/a
115.3171	n/a	RESPONSE	n/a	n/a	n/a	n/a	n/a	n/a	n/a	yellow
115.345	1.0167	ITI	n/a	n/a	n/a	n/a	n/a	n/a	n/a	n/a
116.3617	0.5167	FIXCROSS	n/a	n/a	n/a	n/a	n/a	n/a	n/a	n/a
116.8784	0.6833	INK	28	Incongruent	zielony	green	żółty	yellow	hit	n/a
117.5406	n/a	RESPONSE	n/a	n/a	n/a	n/a	n/a	n/a	n/a	yellow
117.5617	1.0167	ITI	n/a	n/a	n/a	n/a	n/a	n/a	n/a	n/a
118.5784	0.5167	FIXCROSS	n/a	n/a	n/a	n/a	n/a	n/a	n/a	n/a
119.0951	0.6	INK	29	Neutral	xxxxxxxx	xxxxxxxx	niebieski	blue	hit	n/a
119.6681	n/a	RESPONSE	n/a	n/a	n/a	n/a	n/a	n/a	n/a	blue
119.6951	1.0167	ITI	n/a	n/a	n/a	n/a	n/a	n/a	n/a	n/a
120.7118	0.5167	FIXCROSS	n/a	n/a	n/a	n/a	n/a	n/a	n/a	n/a
121.2285	0.5667	INK	30	Incongruent	zielony	green	czerwony	red	hit	n/a
121.7636	n/a	RESPONSE	n/a	n/a	n/a	n/a	n/a	n/a	n/a	red
121.7951	1.0167	ITI	n/a	n/a	n/a	n/a	n/a	n/a	n/a	n/a
122.8118	0.5167	FIXCROSS	n/a	n/a	n/a	n/a	n/a	n/a	n/a	n/a
123.3285	0.6667	INK	31	Incongruent	żółty	yellow	niebieski	blue	hit	n/a
123.9711	n/a	RESPONSE	n/a	n/a	n/a	n/a	n/a	n/a	n/a	blue
123.9952	1.0167	ITI	n/a	n/a	n/a	n/a	n/a	n/a	n/a	n/a
125.0118	0.5167	FIXCROSS	n/a	n/a	n/a	n/a	n/a	n/a	n/a	n/a
125.5285	0.7	INK	32	Neutral	xxxxx	xxxxx	czerwony	red	hit	n/a
126.2105	n/a	RESPONSE	n/a	n/a	n/a	n/a	n/a	n/a	n/a	red
126.2285	1.0167	ITI	n/a	n/a	n/a	n/a	n/a	n/a	n/a	n/a
127.2452	0.5167	FIXCROSS	n/a	n/a	n/a	n/a	n/a	n/a	n/a	n/a
127.7619	0.7	INK	33	Incongruent	żółty	yellow	niebieski	blue	hit	n/a
128.434	n/a	RESPONSE	n/a	n/a	n/a	n/a	n/a	n/a	n/a	blue
128.4619	1.0167	ITI	n/a	n/a	n/a	n/a	n/a	n/a	n/a	n/a
129.4786	0.5167	FIXCROSS	n/a	n/a	n/a	n/a	n/a	n/a	n/a	n/a
129.9952	0.7	INK	34	Incongruent	zielony	green	czerwony	red	hit	n/a
130.6735	n/a	RESPONSE	n/a	n/a	n/a	n/a	n/a	n/a	n/a	red
130.6953	1.0167	ITI	n/a	n/a	n/a	n/a	n/a	n/a	n/a	n/a
131.7119	0.5167	FIXCROSS	n/a	n/a	n/a	n/a	n/a	n/a	n/a	n/a
132.2286	0.5833	INK	35	Incongruent	niebieski	blue	czerwony	red	hit	n/a
132.785	n/a	RESPONSE	n/a	n/a	n/a	n/a	n/a	n/a	n/a	red
132.812	1.0167	ITI	n/a	n/a	n/a	n/a	n/a	n/a	n/a	n/a
133.8286	0.5167	FIXCROSS	n/a	n/a	n/a	n/a	n/a	n/a	n/a	n/a
134.3453	0.7334	INK	36	Neutral	xxxxxxxx	xxxxxxxx	żółty	yellow	hit	n/a
135.0565	n/a	RESPONSE	n/a	n/a	n/a	n/a	n/a	n/a	n/a	yellow
135.0787	1.0167	ITI	n/a	n/a	n/a	n/a	n/a	n/a	n/a	n/a
136.0953	0.5167	FIXCROSS	n/a	n/a	n/a	n/a	n/a	n/a	n/a	n/a
136.612	0.7334	INK	37	Neutral	xxxxxxxxx	xxxxxxxxx	zielony	green	hit	n/a
137.328	n/a	RESPONSE	n/a	n/a	n/a	n/a	n/a	n/a	n/a	green
137.3454	1.0167	ITI	n/a	n/a	n/a	n/a	n/a	n/a	n/a	n/a
138.362	0.5167	FIXCROSS	n/a	n/a	n/a	n/a	n/a	n/a	n/a	n/a
138.8787	0.85	INK	38	Neutral	xxxxxxxx	xxxxxxxx	zielony	green	hit	n/a
139.7114	n/a	RESPONSE	n/a	n/a	n/a	n/a	n/a	n/a	n/a	green
139.7287	1.0167	ITI	n/a	n/a	n/a	n/a	n/a	n/a	n/a	n/a
140.7454	0.5167	FIXCROSS	n/a	n/a	n/a	n/a	n/a	n/a	n/a	n/a
141.2621	0.5667	INK	39	Neutral	xxxxx	xxxxx	niebieski	blue	hit	n/a
141.8069	n/a	RESPONSE	n/a	n/a	n/a	n/a	n/a	n/a	n/a	blue
141.8287	1.0167	ITI	n/a	n/a	n/a	n/a	n/a	n/a	n/a	n/a
142.8454	0.5167	FIXCROSS	n/a	n/a	n/a	n/a	n/a	n/a	n/a	n/a
143.3621	0.7	INK	40	Neutral	xxxxxxx	xxxxxxx	żółty	yellow	hit	n/a
144.0304	n/a	RESPONSE	n/a	n/a	n/a	n/a	n/a	n/a	n/a	yellow
144.0621	1.0167	ITI	n/a	n/a	n/a	n/a	n/a	n/a	n/a	n/a
145.0788	0.5167	FIXCROSS	n/a	n/a	n/a	n/a	n/a	n/a	n/a	n/a
145.5955	0.7167	INK	41	Incongruent	żółty	yellow	czerwony	red	hit	n/a
146.2859	n/a	RESPONSE	n/a	n/a	n/a	n/a	n/a	n/a	n/a	red
146.3121	1.0167	ITI	n/a	n/a	n/a	n/a	n/a	n/a	n/a	n/a
147.3288	0.5167	FIXCROSS	n/a	n/a	n/a	n/a	n/a	n/a	n/a	n/a
147.8455	0.7833	INK	42	Incongruent	czerwony	red	zielony	green	hit	n/a
148.6054	n/a	RESPONSE	n/a	n/a	n/a	n/a	n/a	n/a	n/a	green
148.6288	1.0167	ITI	n/a	n/a	n/a	n/a	n/a	n/a	n/a	n/a
149.6455	0.5167	FIXCROSS	n/a	n/a	n/a	n/a	n/a	n/a	n/a	n/a
150.1622	0.7	INK	43	Neutral	xxxxxxx	xxxxxxx	czerwony	red	hit	n/a
150.8449	n/a	RESPONSE	n/a	n/a	n/a	n/a	n/a	n/a	n/a	red
150.8622	1.0167	ITI	n/a	n/a	n/a	n/a	n/a	n/a	n/a	n/a
151.8789	0.5167	FIXCROSS	n/a	n/a	n/a	n/a	n/a	n/a	n/a	n/a
152.3956	0.55	INK	44	Incongruent	zielony	green	czerwony	red	hit	n/a
152.9244	n/a	RESPONSE	n/a	n/a	n/a	n/a	n/a	n/a	n/a	red
152.9456	1.0167	ITI	n/a	n/a	n/a	n/a	n/a	n/a	n/a	n/a
153.9623	0.5167	FIXCROSS	n/a	n/a	n/a	n/a	n/a	n/a	n/a	n/a
154.4789	0.7334	INK	45	Neutral	xxxxxxx	xxxxxxx	żółty	yellow	hit	n/a
155.1798	n/a	RESPONSE	n/a	n/a	n/a	n/a	n/a	n/a	n/a	yellow
155.2123	1.0167	ITI	n/a	n/a	n/a	n/a	n/a	n/a	n/a	n/a
156.2289	0.5167	FIXCROSS	n/a	n/a	n/a	n/a	n/a	n/a	n/a	n/a
156.7456	0.6167	INK	46	Incongruent	niebieski	blue	zielony	green	hit	n/a
157.3394	n/a	RESPONSE	n/a	n/a	n/a	n/a	n/a	n/a	n/a	green
157.3623	1.0167	ITI	n/a	n/a	n/a	n/a	n/a	n/a	n/a	n/a
158.379	0.5167	FIXCROSS	n/a	n/a	n/a	n/a	n/a	n/a	n/a	n/a
158.8957	0.7167	INK	47	Neutral	xxxxxxxxx	xxxxxxxxx	czerwony	red	hit	n/a
159.5788	n/a	RESPONSE	n/a	n/a	n/a	n/a	n/a	n/a	n/a	red
159.6123	1.0167	ITI	n/a	n/a	n/a	n/a	n/a	n/a	n/a	n/a
160.629	0.5167	FIXCROSS	n/a	n/a	n/a	n/a	n/a	n/a	n/a	n/a
161.1457	0.7833	INK	48	Incongruent	czerwony	red	zielony	green	hit	n/a
161.8983	n/a	RESPONSE	n/a	n/a	n/a	n/a	n/a	n/a	n/a	green
161.929	1.0167	ITI	n/a	n/a	n/a	n/a	n/a	n/a	n/a	n/a
162.9457	0.5167	FIXCROSS	n/a	n/a	n/a	n/a	n/a	n/a	n/a	n/a
163.4624	0.7	INK	49	Neutral	xxxxx	xxxxx	czerwony	red	hit	n/a
164.1378	n/a	RESPONSE	n/a	n/a	n/a	n/a	n/a	n/a	n/a	red
164.1624	1.0167	ITI	n/a	n/a	n/a	n/a	n/a	n/a	n/a	n/a
165.1791	0.5167	FIXCROSS	n/a	n/a	n/a	n/a	n/a	n/a	n/a	n/a
165.6957	0.6333	INK	50	Incongruent	czerwony	red	niebieski	blue	hit	n/a
166.2973	n/a	RESPONSE	n/a	n/a	n/a	n/a	n/a	n/a	n/a	blue
166.3291	1.0167	ITI	n/a	n/a	n/a	n/a	n/a	n/a	n/a	n/a
167.3458	0.5167	FIXCROSS	n/a	n/a	n/a	n/a	n/a	n/a	n/a	n/a
167.8625	0.5667	INK	51	Incongruent	niebieski	blue	żółty	yellow	hit	n/a
168.4087	n/a	RESPONSE	n/a	n/a	n/a	n/a	n/a	n/a	n/a	yellow
168.4291	1.0167	ITI	n/a	n/a	n/a	n/a	n/a	n/a	n/a	n/a
169.4458	0.5167	FIXCROSS	n/a	n/a	n/a	n/a	n/a	n/a	n/a	n/a
169.9625	1.0834	INK	52	Incongruent	zielony	green	niebieski	blue	hit	n/a
171.0162	n/a	RESPONSE	n/a	n/a	n/a	n/a	n/a	n/a	n/a	blue
171.0458	1.0167	ITI	n/a	n/a	n/a	n/a	n/a	n/a	n/a	n/a
172.0625	0.5167	FIXCROSS	n/a	n/a	n/a	n/a	n/a	n/a	n/a	n/a
172.5792	0.5167	INK	53	Neutral	xxxxxxx	xxxxxxx	niebieski	blue	hit	n/a
173.0637	n/a	RESPONSE	n/a	n/a	n/a	n/a	n/a	n/a	n/a	blue
173.0958	1.0167	ITI	n/a	n/a	n/a	n/a	n/a	n/a	n/a	n/a
174.1125	0.5167	FIXCROSS	n/a	n/a	n/a	n/a	n/a	n/a	n/a	n/a
174.6292	0.45	INK	54	Neutral	xxxxx	xxxxx	niebieski	blue	hit	n/a
175.0472	n/a	RESPONSE	n/a	n/a	n/a	n/a	n/a	n/a	n/a	blue
175.0792	1.0167	ITI	n/a	n/a	n/a	n/a	n/a	n/a	n/a	n/a
176.0959	0.5167	FIXCROSS	n/a	n/a	n/a	n/a	n/a	n/a	n/a	n/a
176.6126	0.4167	INK	55	Neutral	xxxxx	xxxxx	niebieski	blue	hit	n/a
176.9988	n/a	RESPONSE	n/a	n/a	n/a	n/a	n/a	n/a	n/a	blue
177.0292	1.0167	ITI	n/a	n/a	n/a	n/a	n/a	n/a	n/a	n/a
178.0459	0.5167	FIXCROSS	n/a	n/a	n/a	n/a	n/a	n/a	n/a	n/a
178.5626	0.55	INK	56	Neutral	xxxxxxx	xxxxxxx	czerwony	red	hit	n/a
179.0943	n/a	RESPONSE	n/a	n/a	n/a	n/a	n/a	n/a	n/a	red
179.1126	1.0167	ITI	n/a	n/a	n/a	n/a	n/a	n/a	n/a	n/a
180.1293	0.5167	FIXCROSS	n/a	n/a	n/a	n/a	n/a	n/a	n/a	n/a
180.646	0.5833	INK	57	Incongruent	czerwony	red	niebieski	blue	hit	n/a
181.2058	n/a	RESPONSE	n/a	n/a	n/a	n/a	n/a	n/a	n/a	blue
181.2293	1.0167	ITI	n/a	n/a	n/a	n/a	n/a	n/a	n/a	n/a
182.246	0.5167	FIXCROSS	n/a	n/a	n/a	n/a	n/a	n/a	n/a	n/a
182.7627	0.85	INK	58	Neutral	xxxxxxx	xxxxxxx	czerwony	red	hit	n/a
183.5893	n/a	RESPONSE	n/a	n/a	n/a	n/a	n/a	n/a	n/a	red
183.6127	1.0167	ITI	n/a	n/a	n/a	n/a	n/a	n/a	n/a	n/a
184.6293	0.5167	FIXCROSS	n/a	n/a	n/a	n/a	n/a	n/a	n/a	n/a
185.146	0.55	INK	59	Neutral	xxxxx	xxxxx	zielony	green	hit	n/a
185.6688	n/a	RESPONSE	n/a	n/a	n/a	n/a	n/a	n/a	n/a	green
185.696	1.0167	ITI	n/a	n/a	n/a	n/a	n/a	n/a	n/a	n/a
186.7127	0.5167	FIXCROSS	n/a	n/a	n/a	n/a	n/a	n/a	n/a	n/a
187.2294	0.6167	INK	60	Neutral	xxxxxxxx	xxxxxxxx	żółty	yellow	hit	n/a
187.8283	n/a	RESPONSE	n/a	n/a	n/a	n/a	n/a	n/a	n/a	yellow
187.8461	1.0167	ITI	n/a	n/a	n/a	n/a	n/a	n/a	n/a	n/a
188.8627	0.5167	FIXCROSS	n/a	n/a	n/a	n/a	n/a	n/a	n/a	n/a
189.3794	0.6333	INK	61	Neutral	xxxxx	xxxxx	zielony	green	incorrect	n/a
189.9878	n/a	RESPONSE	n/a	n/a	n/a	n/a	n/a	n/a	n/a	red
190.0128	1.0167	ITI	n/a	n/a	n/a	n/a	n/a	n/a	n/a	n/a
191.0294	0.5167	FIXCROSS	n/a	n/a	n/a	n/a	n/a	n/a	n/a	n/a
191.5461	0.6	INK	62	Neutral	xxxxxxx	xxxxxxx	niebieski	blue	hit	n/a
192.1153	n/a	RESPONSE	n/a	n/a	n/a	n/a	n/a	n/a	n/a	blue
192.1461	1.0167	ITI	n/a	n/a	n/a	n/a	n/a	n/a	n/a	n/a
193.1628	0.5167	FIXCROSS	n/a	n/a	n/a	n/a	n/a	n/a	n/a	n/a
193.6795	0.6167	INK	63	Incongruent	niebieski	blue	czerwony	red	hit	n/a
194.2748	n/a	RESPONSE	n/a	n/a	n/a	n/a	n/a	n/a	n/a	red
194.2962	1.0167	ITI	n/a	n/a	n/a	n/a	n/a	n/a	n/a	n/a
195.3128	0.5167	FIXCROSS	n/a	n/a	n/a	n/a	n/a	n/a	n/a	n/a
195.8295	0.8167	INK	64	Neutral	xxxxxxxxx	xxxxxxxxx	zielony	green	hit	n/a
196.6262	n/a	RESPONSE	n/a	n/a	n/a	n/a	n/a	n/a	n/a	green
196.6462	1.0167	ITI	n/a	n/a	n/a	n/a	n/a	n/a	n/a	n/a
197.6629	0.5167	FIXCROSS	n/a	n/a	n/a	n/a	n/a	n/a	n/a	n/a
198.1795	0.8	INK	65	Incongruent	żółty	yellow	czerwony	red	hit	n/a
198.9457	n/a	RESPONSE	n/a	n/a	n/a	n/a	n/a	n/a	n/a	red
198.9795	1.0167	ITI	n/a	n/a	n/a	n/a	n/a	n/a	n/a	n/a
199.9962	0.5167	FIXCROSS	n/a	n/a	n/a	n/a	n/a	n/a	n/a	n/a
200.5129	0.6	INK	66	Incongruent	niebieski	blue	żółty	yellow	hit	n/a
201.0892	n/a	RESPONSE	n/a	n/a	n/a	n/a	n/a	n/a	n/a	yellow
201.1129	1.0167	ITI	n/a	n/a	n/a	n/a	n/a	n/a	n/a	n/a
202.1296	0.5167	FIXCROSS	n/a	n/a	n/a	n/a	n/a	n/a	n/a	n/a
202.6463	0.9167	INK	67	Incongruent	niebieski	blue	zielony	green	hit	n/a
203.5366	n/a	RESPONSE	n/a	n/a	n/a	n/a	n/a	n/a	n/a	green
203.5629	1.0167	ITI	n/a	n/a	n/a	n/a	n/a	n/a	n/a	n/a
204.5796	0.5167	FIXCROSS	n/a	n/a	n/a	n/a	n/a	n/a	n/a	n/a
205.0963	0.6	INK	68	Incongruent	żółty	yellow	czerwony	red	hit	n/a
205.6642	n/a	RESPONSE	n/a	n/a	n/a	n/a	n/a	n/a	n/a	red
205.6963	1.0167	ITI	n/a	n/a	n/a	n/a	n/a	n/a	n/a	n/a
206.713	0.5167	FIXCROSS	n/a	n/a	n/a	n/a	n/a	n/a	n/a	n/a
207.2297	0.8	INK	69	Incongruent	niebieski	blue	zielony	green	hit	n/a
207.9996	n/a	RESPONSE	n/a	n/a	n/a	n/a	n/a	n/a	n/a	green
208.0297	1.0167	ITI	n/a	n/a	n/a	n/a	n/a	n/a	n/a	n/a
209.0464	0.5167	FIXCROSS	n/a	n/a	n/a	n/a	n/a	n/a	n/a	n/a
209.563	0.6	INK	70	Neutral	xxxxxxxx	xxxxxxxx	niebieski	blue	hit	n/a
210.1431	n/a	RESPONSE	n/a	n/a	n/a	n/a	n/a	n/a	n/a	blue
210.163	1.0167	ITI	n/a	n/a	n/a	n/a	n/a	n/a	n/a	n/a
211.1797	0.5167	FIXCROSS	n/a	n/a	n/a	n/a	n/a	n/a	n/a	n/a
211.6964	0.5333	INK	71	Incongruent	zielony	green	niebieski	blue	hit	n/a
212.2066	n/a	RESPONSE	n/a	n/a	n/a	n/a	n/a	n/a	n/a	blue
212.2297	1.0167	ITI	n/a	n/a	n/a	n/a	n/a	n/a	n/a	n/a
213.2464	0.5167	FIXCROSS	n/a	n/a	n/a	n/a	n/a	n/a	n/a	n/a
213.7631	0.9333	INK	72	Incongruent	żółty	yellow	zielony	green	hit	n/a
214.6701	n/a	RESPONSE	n/a	n/a	n/a	n/a	n/a	n/a	n/a	green
214.6964	1.0834	ITI	n/a	n/a	n/a	n/a	n/a	n/a	n/a	n/a
238.8245	n/a	RESPONSE	n/a	n/a	n/a	n/a	n/a	n/a	n/a	n/a
238.8801	1.0167	ITI	n/a	n/a	n/a	n/a	n/a	n/a	n/a	n/a
239.8968	0.5167	FIXCROSS	n/a	n/a	n/a	n/a	n/a	n/a	n/a	n/a
240.4135	1.1334	T_COLOR_NAME	1	Incongruent	niebieski	blue	żółty	yellow	hit	n/a
241.5119	n/a	RESPONSE	n/a	n/a	n/a	n/a	n/a	n/a	n/a	blue
241.5468	0.5167	FEEDBACK	n/a	n/a	n/a	n/a	n/a	n/a	n/a	n/a
242.0635	1.0167	ITI	n/a	n/a	n/a	n/a	n/a	n/a	n/a	n/a
243.0802	0.5167	FIXCROSS	n/a	n/a	n/a	n/a	n/a	n/a	n/a	n/a
243.5968	1.0834	T_COLOR_NAME	2	Neutral	zielony	green	Neutral	Neutral	hit	n/a
244.6471	n/a	RESPONSE	n/a	n/a	n/a	n/a	n/a	n/a	n/a	green
244.6802	0.5167	FEEDBACK	n/a	n/a	n/a	n/a	n/a	n/a	n/a	n/a
245.1969	1.0167	ITI	n/a	n/a	n/a	n/a	n/a	n/a	n/a	n/a
246.2136	0.5167	FIXCROSS	n/a	n/a	n/a	n/a	n/a	n/a	n/a	n/a
246.7302	0.7333	T_COLOR_NAME	3	Incongruent	niebieski	blue	zielony	green	hit	n/a
247.4305	n/a	RESPONSE	n/a	n/a	n/a	n/a	n/a	n/a	n/a	blue
247.4636	0.5167	FEEDBACK	n/a	n/a	n/a	n/a	n/a	n/a	n/a	n/a
247.9802	1.0167	ITI	n/a	n/a	n/a	n/a	n/a	n/a	n/a	n/a
248.9969	0.5167	FIXCROSS	n/a	n/a	n/a	n/a	n/a	n/a	n/a	n/a
249.5136	0.7333	T_COLOR_NAME	4	Incongruent	czerwony	red	zielony	green	hit	n/a
250.2138	n/a	RESPONSE	n/a	n/a	n/a	n/a	n/a	n/a	n/a	red
250.2469	0.5167	FEEDBACK	n/a	n/a	n/a	n/a	n/a	n/a	n/a	n/a
250.7636	1.0167	ITI	n/a	n/a	n/a	n/a	n/a	n/a	n/a	n/a
251.7803	0.5167	FIXCROSS	n/a	n/a	n/a	n/a	n/a	n/a	n/a	n/a
252.297	0.7833	T_COLOR_NAME	5	Neutral	niebieski	blue	Neutral	Neutral	hit	n/a
253.0612	n/a	RESPONSE	n/a	n/a	n/a	n/a	n/a	n/a	n/a	blue
253.0803	0.5167	FEEDBACK	n/a	n/a	n/a	n/a	n/a	n/a	n/a	n/a
253.597	1.0167	ITI	n/a	n/a	n/a	n/a	n/a	n/a	n/a	n/a
254.6137	0.5167	FIXCROSS	n/a	n/a	n/a	n/a	n/a	n/a	n/a	n/a
255.1303	1.8167	T_COLOR_NAME	6	Incongruent	zielony	green	czerwony	red	hit	n/a
256.9163	n/a	RESPONSE	n/a	n/a	n/a	n/a	n/a	n/a	n/a	green
256.947	0.5167	FEEDBACK	n/a	n/a	n/a	n/a	n/a	n/a	n/a	n/a
257.4637	1.0167	ITI	n/a	n/a	n/a	n/a	n/a	n/a	n/a	n/a
258.4804	0.5167	FIXCROSS	n/a	n/a	n/a	n/a	n/a	n/a	n/a	n/a
258.9971	0.95	T_COLOR_NAME	7	Neutral	czerwony	red	Neutral	Neutral	hit	n/a
259.9236	n/a	RESPONSE	n/a	n/a	n/a	n/a	n/a	n/a	n/a	red
259.9471	0.5167	FEEDBACK	n/a	n/a	n/a	n/a	n/a	n/a	n/a	n/a
260.4637	1.0167	ITI	n/a	n/a	n/a	n/a	n/a	n/a	n/a	n/a
261.4804	0.5167	FIXCROSS	n/a	n/a	n/a	n/a	n/a	n/a	n/a	n/a
261.9971	0.9	T_COLOR_NAME	8	Incongruent	czerwony	red	żółty	yellow	hit	n/a
262.8669	n/a	RESPONSE	n/a	n/a	n/a	n/a	n/a	n/a	n/a	red
262.8971	0.5167	FEEDBACK	n/a	n/a	n/a	n/a	n/a	n/a	n/a	n/a
263.4138	1.0167	ITI	n/a	n/a	n/a	n/a	n/a	n/a	n/a	n/a
264.4305	0.5167	FIXCROSS	n/a	n/a	n/a	n/a	n/a	n/a	n/a	n/a
264.9471	0.9	T_COLOR_NAME	9	Incongruent	czerwony	red	niebieski	blue	hit	n/a
265.8262	n/a	RESPONSE	n/a	n/a	n/a	n/a	n/a	n/a	n/a	red
265.8472	0.5167	FEEDBACK	n/a	n/a	n/a	n/a	n/a	n/a	n/a	n/a
266.3638	1.0167	ITI	n/a	n/a	n/a	n/a	n/a	n/a	n/a	n/a
267.3805	0.5167	FIXCROSS	n/a	n/a	n/a	n/a	n/a	n/a	n/a	n/a
267.8972	0.7834	T_COLOR_NAME	10	Incongruent	żółty	yellow	zielony	green	hit	n/a
268.6576	n/a	RESPONSE	n/a	n/a	n/a	n/a	n/a	n/a	n/a	yellow
268.6805	0.5167	FEEDBACK	n/a	n/a	n/a	n/a	n/a	n/a	n/a	n/a
269.1972	1.0167	ITI	n/a	n/a	n/a	n/a	n/a	n/a	n/a	n/a
270.2139	0.5167	FIXCROSS	n/a	n/a	n/a	n/a	n/a	n/a	n/a	n/a
270.7306	0.7	T_COLOR_NAME	11	Neutral	żółty	yellow	Neutral	Neutral	hit	n/a
271.4089	n/a	RESPONSE	n/a	n/a	n/a	n/a	n/a	n/a	n/a	yellow
271.4306	0.5167	FEEDBACK	n/a	n/a	n/a	n/a	n/a	n/a	n/a	n/a
271.9472	1.0167	ITI	n/a	n/a	n/a	n/a	n/a	n/a	n/a	n/a
272.9639	0.5167	FIXCROSS	n/a	n/a	n/a	n/a	n/a	n/a	n/a	n/a
273.4806	1.0	T_COLOR_NAME	12	Neutral	zielony	green	Neutral	Neutral	hit	n/a
274.4482	n/a	RESPONSE	n/a	n/a	n/a	n/a	n/a	n/a	n/a	green
274.4806	0.5167	FEEDBACK	n/a	n/a	n/a	n/a	n/a	n/a	n/a	n/a
274.9973	1.0333	ITI	n/a	n/a	n/a	n/a	n/a	n/a	n/a	n/a
281.3107	n/a	RESPONSE	n/a	n/a	n/a	n/a	n/a	n/a	n/a	n/a
281.364	1.0167	ITI	n/a	n/a	n/a	n/a	n/a	n/a	n/a	n/a
282.3807	0.5167	FIXCROSS	n/a	n/a	n/a	n/a	n/a	n/a	n/a	n/a
282.8974	0.85	COLOR_NAME	1	Neutral	czerwony	red	Neutral	Neutral	hit	n/a
283.7261	n/a	RESPONSE	n/a	n/a	n/a	n/a	n/a	n/a	n/a	red
283.7474	1.0167	ITI	n/a	n/a	n/a	n/a	n/a	n/a	n/a	n/a
284.7641	0.5167	FIXCROSS	n/a	n/a	n/a	n/a	n/a	n/a	n/a	n/a
285.2807	0.8833	COLOR_NAME	2	Incongruent	niebieski	blue	żółty	yellow	hit	n/a
286.1415	n/a	RESPONSE	n/a	n/a	n/a	n/a	n/a	n/a	n/a	blue
286.1641	1.0167	ITI	n/a	n/a	n/a	n/a	n/a	n/a	n/a	n/a
287.1808	0.5167	FIXCROSS	n/a	n/a	n/a	n/a	n/a	n/a	n/a	n/a
287.6975	0.7333	COLOR_NAME	3	Neutral	żółty	yellow	Neutral	Neutral	hit	n/a
288.397	n/a	RESPONSE	n/a	n/a	n/a	n/a	n/a	n/a	n/a	yellow
288.4308	1.0167	ITI	n/a	n/a	n/a	n/a	n/a	n/a	n/a	n/a
289.4475	0.5167	FIXCROSS	n/a	n/a	n/a	n/a	n/a	n/a	n/a	n/a
289.9642	0.6667	COLOR_NAME	4	Incongruent	żółty	yellow	zielony	green	hit	n/a
290.6045	n/a	RESPONSE	n/a	n/a	n/a	n/a	n/a	n/a	n/a	yellow
290.6308	1.0167	ITI	n/a	n/a	n/a	n/a	n/a	n/a	n/a	n/a
291.6475	0.5167	FIXCROSS	n/a	n/a	n/a	n/a	n/a	n/a	n/a	n/a
292.1642	0.6667	COLOR_NAME	5	Neutral	niebieski	blue	Neutral	Neutral	hit	n/a
292.812	n/a	RESPONSE	n/a	n/a	n/a	n/a	n/a	n/a	n/a	blue
292.8309	1.0167	ITI	n/a	n/a	n/a	n/a	n/a	n/a	n/a	n/a
293.8475	0.5167	FIXCROSS	n/a	n/a	n/a	n/a	n/a	n/a	n/a	n/a
294.3642	0.55	COLOR_NAME	6	Neutral	niebieski	blue	Neutral	Neutral	hit	n/a
294.8915	n/a	RESPONSE	n/a	n/a	n/a	n/a	n/a	n/a	n/a	blue
294.9142	1.0167	ITI	n/a	n/a	n/a	n/a	n/a	n/a	n/a	n/a
295.9309	0.5167	FIXCROSS	n/a	n/a	n/a	n/a	n/a	n/a	n/a	n/a
296.4476	0.7834	COLOR_NAME	7	Incongruent	żółty	yellow	czerwony	red	hit	n/a
297.211	n/a	RESPONSE	n/a	n/a	n/a	n/a	n/a	n/a	n/a	yellow
297.2309	1.0167	ITI	n/a	n/a	n/a	n/a	n/a	n/a	n/a	n/a
298.2476	0.5167	FIXCROSS	n/a	n/a	n/a	n/a	n/a	n/a	n/a	n/a
298.7643	1.1167	COLOR_NAME	8	Incongruent	zielony	green	żółty	yellow	hit	n/a
299.8493	n/a	RESPONSE	n/a	n/a	n/a	n/a	n/a	n/a	n/a	green
299.881	1.0167	ITI	n/a	n/a	n/a	n/a	n/a	n/a	n/a	n/a
300.8976	0.5167	FIXCROSS	n/a	n/a	n/a	n/a	n/a	n/a	n/a	n/a
301.4143	0.6833	COLOR_NAME	9	Incongruent	zielony	green	czerwony	red	hit	n/a
302.0738	n/a	RESPONSE	n/a	n/a	n/a	n/a	n/a	n/a	n/a	green
302.0977	1.0167	ITI	n/a	n/a	n/a	n/a	n/a	n/a	n/a	n/a
303.1143	0.5167	FIXCROSS	n/a	n/a	n/a	n/a	n/a	n/a	n/a	n/a
303.631	1.1	COLOR_NAME	10	Neutral	żółty	yellow	Neutral	Neutral	incorrect	n/a
304.7132	n/a	RESPONSE	n/a	n/a	n/a	n/a	n/a	n/a	n/a	green
304.731	1.0167	ITI	n/a	n/a	n/a	n/a	n/a	n/a	n/a	n/a
304.8252	n/a	RESPONSE	n/a	n/a	n/a	n/a	n/a	n/a	n/a	yellow
305.7477	0.5167	FIXCROSS	n/a	n/a	n/a	n/a	n/a	n/a	n/a	n/a
306.2644	0.6833	COLOR_NAME	11	Incongruent	niebieski	blue	zielony	green	hit	n/a
306.9207	n/a	RESPONSE	n/a	n/a	n/a	n/a	n/a	n/a	n/a	blue
306.9477	1.0167	ITI	n/a	n/a	n/a	n/a	n/a	n/a	n/a	n/a
307.9644	0.5167	FIXCROSS	n/a	n/a	n/a	n/a	n/a	n/a	n/a	n/a
308.4811	0.7833	COLOR_NAME	12	Neutral	czerwony	red	Neutral	Neutral	hit	n/a
309.2362	n/a	RESPONSE	n/a	n/a	n/a	n/a	n/a	n/a	n/a	red
309.2644	1.0167	ITI	n/a	n/a	n/a	n/a	n/a	n/a	n/a	n/a
310.2811	0.5167	FIXCROSS	n/a	n/a	n/a	n/a	n/a	n/a	n/a	n/a
310.7978	0.95	COLOR_NAME	13	Neutral	zielony	green	Neutral	Neutral	hit	n/a
311.7196	n/a	RESPONSE	n/a	n/a	n/a	n/a	n/a	n/a	n/a	green
311.7478	1.0167	ITI	n/a	n/a	n/a	n/a	n/a	n/a	n/a	n/a
312.7645	0.5167	FIXCROSS	n/a	n/a	n/a	n/a	n/a	n/a	n/a	n/a
313.2811	0.6333	COLOR_NAME	14	Incongruent	zielony	green	niebieski	blue	hit	n/a
313.8951	n/a	RESPONSE	n/a	n/a	n/a	n/a	n/a	n/a	n/a	green
313.9145	1.0167	ITI	n/a	n/a	n/a	n/a	n/a	n/a	n/a	n/a
314.9312	0.5167	FIXCROSS	n/a	n/a	n/a	n/a	n/a	n/a	n/a	n/a
315.4478	0.7	COLOR_NAME	15	Neutral	niebieski	blue	Neutral	Neutral	hit	n/a
316.1186	n/a	RESPONSE	n/a	n/a	n/a	n/a	n/a	n/a	n/a	blue
316.1478	1.0167	ITI	n/a	n/a	n/a	n/a	n/a	n/a	n/a	n/a
317.1645	0.5167	FIXCROSS	n/a	n/a	n/a	n/a	n/a	n/a	n/a	n/a
317.6812	0.6833	COLOR_NAME	16	Incongruent	niebieski	blue	zielony	green	hit	n/a
318.342	n/a	RESPONSE	n/a	n/a	n/a	n/a	n/a	n/a	n/a	blue
318.3645	1.0167	ITI	n/a	n/a	n/a	n/a	n/a	n/a	n/a	n/a
319.3812	0.5167	FIXCROSS	n/a	n/a	n/a	n/a	n/a	n/a	n/a	n/a
319.8979	0.8167	COLOR_NAME	17	Incongruent	żółty	yellow	niebieski	blue	hit	n/a
320.6935	n/a	RESPONSE	n/a	n/a	n/a	n/a	n/a	n/a	n/a	yellow
320.7146	1.0167	ITI	n/a	n/a	n/a	n/a	n/a	n/a	n/a	n/a
321.7313	0.5167	FIXCROSS	n/a	n/a	n/a	n/a	n/a	n/a	n/a	n/a
322.2479	0.5167	COLOR_NAME	18	Incongruent	żółty	yellow	niebieski	blue	hit	n/a
322.741	n/a	RESPONSE	n/a	n/a	n/a	n/a	n/a	n/a	n/a	yellow
322.7646	1.0167	ITI	n/a	n/a	n/a	n/a	n/a	n/a	n/a	n/a
323.7813	0.5167	FIXCROSS	n/a	n/a	n/a	n/a	n/a	n/a	n/a	n/a
324.298	0.8334	COLOR_NAME	19	Incongruent	zielony	green	niebieski	blue	hit	n/a
325.1085	n/a	RESPONSE	n/a	n/a	n/a	n/a	n/a	n/a	n/a	green
325.1313	1.0167	ITI	n/a	n/a	n/a	n/a	n/a	n/a	n/a	n/a
326.148	0.5167	FIXCROSS	n/a	n/a	n/a	n/a	n/a	n/a	n/a	n/a
326.6647	0.9167	COLOR_NAME	20	Incongruent	czerwony	red	zielony	green	hit	n/a
327.5559	n/a	RESPONSE	n/a	n/a	n/a	n/a	n/a	n/a	n/a	red
327.5813	1.0167	ITI	n/a	n/a	n/a	n/a	n/a	n/a	n/a	n/a
328.598	0.5167	FIXCROSS	n/a	n/a	n/a	n/a	n/a	n/a	n/a	n/a
329.1147	1.05	COLOR_NAME	21	Neutral	zielony	green	Neutral	Neutral	hit	n/a
330.1313	n/a	RESPONSE	n/a	n/a	n/a	n/a	n/a	n/a	n/a	green
330.1647	1.0167	ITI	n/a	n/a	n/a	n/a	n/a	n/a	n/a	n/a
331.1814	0.5167	FIXCROSS	n/a	n/a	n/a	n/a	n/a	n/a	n/a	n/a
331.6981	0.7167	COLOR_NAME	22	Neutral	niebieski	blue	Neutral	Neutral	hit	n/a
332.3868	n/a	RESPONSE	n/a	n/a	n/a	n/a	n/a	n/a	n/a	blue
332.4147	1.0167	ITI	n/a	n/a	n/a	n/a	n/a	n/a	n/a	n/a
333.4314	0.5167	FIXCROSS	n/a	n/a	n/a	n/a	n/a	n/a	n/a	n/a
333.9481	1.1834	COLOR_NAME	23	Neutral	zielony	green	Neutral	Neutral	hit	n/a
335.1062	n/a	RESPONSE	n/a	n/a	n/a	n/a	n/a	n/a	n/a	green
335.1315	1.0167	ITI	n/a	n/a	n/a	n/a	n/a	n/a	n/a	n/a
336.1481	0.5167	FIXCROSS	n/a	n/a	n/a	n/a	n/a	n/a	n/a	n/a
336.6648	0.7667	COLOR_NAME	24	Neutral	żółty	yellow	Neutral	Neutral	hit	n/a
337.4096	n/a	RESPONSE	n/a	n/a	n/a	n/a	n/a	n/a	n/a	yellow
337.4315	1.0167	ITI	n/a	n/a	n/a	n/a	n/a	n/a	n/a	n/a
338.4482	0.5167	FIXCROSS	n/a	n/a	n/a	n/a	n/a	n/a	n/a	n/a
338.9648	1.0167	COLOR_NAME	25	Neutral	zielony	green	Neutral	Neutral	hit	n/a
339.953	n/a	RESPONSE	n/a	n/a	n/a	n/a	n/a	n/a	n/a	green
339.9815	1.0167	ITI	n/a	n/a	n/a	n/a	n/a	n/a	n/a	n/a
340.9982	0.5167	FIXCROSS	n/a	n/a	n/a	n/a	n/a	n/a	n/a	n/a
341.5149	0.9167	COLOR_NAME	26	Incongruent	żółty	yellow	czerwony	red	hit	n/a
342.4005	n/a	RESPONSE	n/a	n/a	n/a	n/a	n/a	n/a	n/a	yellow
342.4315	1.0167	ITI	n/a	n/a	n/a	n/a	n/a	n/a	n/a	n/a
343.4482	0.5167	FIXCROSS	n/a	n/a	n/a	n/a	n/a	n/a	n/a	n/a
343.9649	0.65	COLOR_NAME	27	Incongruent	czerwony	red	żółty	yellow	hit	n/a
344.592	n/a	RESPONSE	n/a	n/a	n/a	n/a	n/a	n/a	n/a	red
344.6149	1.0167	ITI	n/a	n/a	n/a	n/a	n/a	n/a	n/a	n/a
345.6316	0.5167	FIXCROSS	n/a	n/a	n/a	n/a	n/a	n/a	n/a	n/a
346.1483	0.7	COLOR_NAME	28	Neutral	zielony	green	Neutral	Neutral	hit	n/a
346.8155	n/a	RESPONSE	n/a	n/a	n/a	n/a	n/a	n/a	n/a	green
346.8483	1.0167	ITI	n/a	n/a	n/a	n/a	n/a	n/a	n/a	n/a
347.865	0.5167	FIXCROSS	n/a	n/a	n/a	n/a	n/a	n/a	n/a	n/a
348.3816	0.8334	COLOR_NAME	29	Neutral	żółty	yellow	Neutral	Neutral	hit	n/a
349.1829	n/a	RESPONSE	n/a	n/a	n/a	n/a	n/a	n/a	n/a	yellow
349.215	1.0167	ITI	n/a	n/a	n/a	n/a	n/a	n/a	n/a	n/a
350.2317	0.5167	FIXCROSS	n/a	n/a	n/a	n/a	n/a	n/a	n/a	n/a
350.7483	0.75	COLOR_NAME	30	Neutral	czerwony	red	Neutral	Neutral	hit	n/a
351.4704	n/a	RESPONSE	n/a	n/a	n/a	n/a	n/a	n/a	n/a	red
351.4983	1.0167	ITI	n/a	n/a	n/a	n/a	n/a	n/a	n/a	n/a
352.515	0.5167	FIXCROSS	n/a	n/a	n/a	n/a	n/a	n/a	n/a	n/a
353.0317	0.4167	COLOR_NAME	31	Incongruent	niebieski	blue	żółty	yellow	hit	n/a
353.4219	n/a	RESPONSE	n/a	n/a	n/a	n/a	n/a	n/a	n/a	blue
353.4484	1.0167	ITI	n/a	n/a	n/a	n/a	n/a	n/a	n/a	n/a
354.465	0.5167	FIXCROSS	n/a	n/a	n/a	n/a	n/a	n/a	n/a	n/a
354.9817	0.6167	COLOR_NAME	32	Neutral	niebieski	blue	Neutral	Neutral	hit	n/a
355.5654	n/a	RESPONSE	n/a	n/a	n/a	n/a	n/a	n/a	n/a	blue
355.5984	1.0167	ITI	n/a	n/a	n/a	n/a	n/a	n/a	n/a	n/a
356.6151	0.5167	FIXCROSS	n/a	n/a	n/a	n/a	n/a	n/a	n/a	n/a
357.1318	0.7833	COLOR_NAME	33	Neutral	zielony	green	Neutral	Neutral	hit	n/a
357.8849	n/a	RESPONSE	n/a	n/a	n/a	n/a	n/a	n/a	n/a	green
357.9151	1.0167	ITI	n/a	n/a	n/a	n/a	n/a	n/a	n/a	n/a
358.9318	0.5167	FIXCROSS	n/a	n/a	n/a	n/a	n/a	n/a	n/a	n/a
359.4484	0.5	COLOR_NAME	34	Incongruent	zielony	green	żółty	yellow	hit	n/a
359.9164	n/a	RESPONSE	n/a	n/a	n/a	n/a	n/a	n/a	n/a	green
359.9484	1.0167	ITI	n/a	n/a	n/a	n/a	n/a	n/a	n/a	n/a
360.9651	0.5167	FIXCROSS	n/a	n/a	n/a	n/a	n/a	n/a	n/a	n/a
361.4818	0.7333	COLOR_NAME	35	Incongruent	czerwony	red	żółty	yellow	hit	n/a
362.1879	n/a	RESPONSE	n/a	n/a	n/a	n/a	n/a	n/a	n/a	red
362.2151	1.0167	ITI	n/a	n/a	n/a	n/a	n/a	n/a	n/a	n/a
363.2318	0.5167	FIXCROSS	n/a	n/a	n/a	n/a	n/a	n/a	n/a	n/a
363.7485	0.55	COLOR_NAME	36	Neutral	niebieski	blue	Neutral	Neutral	hit	n/a
364.2674	n/a	RESPONSE	n/a	n/a	n/a	n/a	n/a	n/a	n/a	blue
364.2985	1.0167	ITI	n/a	n/a	n/a	n/a	n/a	n/a	n/a	n/a
365.3152	0.5167	FIXCROSS	n/a	n/a	n/a	n/a	n/a	n/a	n/a	n/a
365.8319	0.8834	COLOR_NAME	37	Neutral	zielony	green	Neutral	Neutral	hit	n/a
366.6829	n/a	RESPONSE	n/a	n/a	n/a	n/a	n/a	n/a	n/a	green
366.7152	1.0167	ITI	n/a	n/a	n/a	n/a	n/a	n/a	n/a	n/a
367.7319	0.5167	FIXCROSS	n/a	n/a	n/a	n/a	n/a	n/a	n/a	n/a
368.2486	0.7667	COLOR_NAME	38	Incongruent	niebieski	blue	czerwony	red	hit	n/a
368.9863	n/a	RESPONSE	n/a	n/a	n/a	n/a	n/a	n/a	n/a	blue
369.0152	1.0167	ITI	n/a	n/a	n/a	n/a	n/a	n/a	n/a	n/a
370.0319	0.5167	FIXCROSS	n/a	n/a	n/a	n/a	n/a	n/a	n/a	n/a
370.5486	0.8333	COLOR_NAME	39	Incongruent	niebieski	blue	czerwony	red	hit	n/a
371.3538	n/a	RESPONSE	n/a	n/a	n/a	n/a	n/a	n/a	n/a	blue
371.3819	1.0167	ITI	n/a	n/a	n/a	n/a	n/a	n/a	n/a	n/a
372.3986	0.5167	FIXCROSS	n/a	n/a	n/a	n/a	n/a	n/a	n/a	n/a
372.9153	0.8	COLOR_NAME	40	Incongruent	czerwony	red	niebieski	blue	hit	n/a
373.6892	n/a	RESPONSE	n/a	n/a	n/a	n/a	n/a	n/a	n/a	red
373.7153	1.0167	ITI	n/a	n/a	n/a	n/a	n/a	n/a	n/a	n/a
374.732	0.5167	FIXCROSS	n/a	n/a	n/a	n/a	n/a	n/a	n/a	n/a
375.2487	0.5	COLOR_NAME	41	Incongruent	niebieski	blue	żółty	yellow	hit	n/a
375.7208	n/a	RESPONSE	n/a	n/a	n/a	n/a	n/a	n/a	n/a	blue
375.7487	1.0167	ITI	n/a	n/a	n/a	n/a	n/a	n/a	n/a	n/a
376.7653	0.5167	FIXCROSS	n/a	n/a	n/a	n/a	n/a	n/a	n/a	n/a
377.282	0.75	COLOR_NAME	42	Incongruent	zielony	green	czerwony	red	hit	n/a
378.0082	n/a	RESPONSE	n/a	n/a	n/a	n/a	n/a	n/a	n/a	green
378.032	1.0167	ITI	n/a	n/a	n/a	n/a	n/a	n/a	n/a	n/a
379.0487	0.5167	FIXCROSS	n/a	n/a	n/a	n/a	n/a	n/a	n/a	n/a
379.5654	0.6333	COLOR_NAME	43	Neutral	czerwony	red	Neutral	Neutral	hit	n/a
380.1677	n/a	RESPONSE	n/a	n/a	n/a	n/a	n/a	n/a	n/a	red
380.1987	1.0167	ITI	n/a	n/a	n/a	n/a	n/a	n/a	n/a	n/a
381.2154	0.5167	FIXCROSS	n/a	n/a	n/a	n/a	n/a	n/a	n/a	n/a
381.7321	0.7	COLOR_NAME	44	Neutral	czerwony	red	Neutral	Neutral	hit	n/a
382.4072	n/a	RESPONSE	n/a	n/a	n/a	n/a	n/a	n/a	n/a	red
382.4321	1.0167	ITI	n/a	n/a	n/a	n/a	n/a	n/a	n/a	n/a
383.4488	0.5167	FIXCROSS	n/a	n/a	n/a	n/a	n/a	n/a	n/a	n/a
383.9655	1.1	COLOR_NAME	45	Incongruent	czerwony	red	niebieski	blue	hit	n/a
385.0466	n/a	RESPONSE	n/a	n/a	n/a	n/a	n/a	n/a	n/a	red
385.0655	1.0167	ITI	n/a	n/a	n/a	n/a	n/a	n/a	n/a	n/a
386.0821	0.5167	FIXCROSS	n/a	n/a	n/a	n/a	n/a	n/a	n/a	n/a
386.5988	1.0	COLOR_NAME	46	Neutral	zielony	green	Neutral	Neutral	hit	n/a
387.574	n/a	RESPONSE	n/a	n/a	n/a	n/a	n/a	n/a	n/a	green
387.5988	1.0167	ITI	n/a	n/a	n/a	n/a	n/a	n/a	n/a	n/a
388.6155	0.5167	FIXCROSS	n/a	n/a	n/a	n/a	n/a	n/a	n/a	n/a
389.1322	0.6667	COLOR_NAME	47	Neutral	niebieski	blue	Neutral	Neutral	hit	n/a
389.7815	n/a	RESPONSE	n/a	n/a	n/a	n/a	n/a	n/a	n/a	blue
389.7989	1.0167	ITI	n/a	n/a	n/a	n/a	n/a	n/a	n/a	n/a
390.8155	0.5167	FIXCROSS	n/a	n/a	n/a	n/a	n/a	n/a	n/a	n/a
391.3322	0.7667	COLOR_NAME	48	Neutral	czerwony	red	Neutral	Neutral	hit	n/a
392.0689	n/a	RESPONSE	n/a	n/a	n/a	n/a	n/a	n/a	n/a	red
392.0989	1.0167	ITI	n/a	n/a	n/a	n/a	n/a	n/a	n/a	n/a
393.1156	0.5167	FIXCROSS	n/a	n/a	n/a	n/a	n/a	n/a	n/a	n/a
393.6323	0.7	COLOR_NAME	49	Incongruent	czerwony	red	zielony	green	hit	n/a
394.3085	n/a	RESPONSE	n/a	n/a	n/a	n/a	n/a	n/a	n/a	red
394.3323	1.0167	ITI	n/a	n/a	n/a	n/a	n/a	n/a	n/a	n/a
395.3489	0.5167	FIXCROSS	n/a	n/a	n/a	n/a	n/a	n/a	n/a	n/a
395.8656	0.6833	COLOR_NAME	50	Incongruent	żółty	yellow	zielony	green	hit	n/a
396.5159	n/a	RESPONSE	n/a	n/a	n/a	n/a	n/a	n/a	n/a	yellow
396.549	1.0167	ITI	n/a	n/a	n/a	n/a	n/a	n/a	n/a	n/a
397.5656	0.5167	FIXCROSS	n/a	n/a	n/a	n/a	n/a	n/a	n/a	n/a
398.0823	0.5667	COLOR_NAME	51	Neutral	niebieski	blue	Neutral	Neutral	hit	n/a
398.6275	n/a	RESPONSE	n/a	n/a	n/a	n/a	n/a	n/a	n/a	blue
398.649	1.0167	ITI	n/a	n/a	n/a	n/a	n/a	n/a	n/a	n/a
399.6657	0.5167	FIXCROSS	n/a	n/a	n/a	n/a	n/a	n/a	n/a	n/a
400.1823	0.6667	COLOR_NAME	52	Neutral	żółty	yellow	Neutral	Neutral	hit	n/a
400.819	n/a	RESPONSE	n/a	n/a	n/a	n/a	n/a	n/a	n/a	yellow
400.849	1.0167	ITI	n/a	n/a	n/a	n/a	n/a	n/a	n/a	n/a
401.8657	0.5167	FIXCROSS	n/a	n/a	n/a	n/a	n/a	n/a	n/a	n/a
402.3824	0.5333	COLOR_NAME	53	Neutral	żółty	yellow	Neutral	Neutral	hit	n/a
402.8825	n/a	RESPONSE	n/a	n/a	n/a	n/a	n/a	n/a	n/a	yellow
402.9157	1.0167	ITI	n/a	n/a	n/a	n/a	n/a	n/a	n/a	n/a
403.9324	0.5167	FIXCROSS	n/a	n/a	n/a	n/a	n/a	n/a	n/a	n/a
404.4491	0.75	COLOR_NAME	54	Incongruent	czerwony	red	żółty	yellow	hit	n/a
405.17	n/a	RESPONSE	n/a	n/a	n/a	n/a	n/a	n/a	n/a	red
405.1991	1.0167	ITI	n/a	n/a	n/a	n/a	n/a	n/a	n/a	n/a
406.2158	0.5167	FIXCROSS	n/a	n/a	n/a	n/a	n/a	n/a	n/a	n/a
406.7324	0.8167	COLOR_NAME	55	Incongruent	żółty	yellow	niebieski	blue	hit	n/a
407.5214	n/a	RESPONSE	n/a	n/a	n/a	n/a	n/a	n/a	n/a	yellow
407.5491	1.0167	ITI	n/a	n/a	n/a	n/a	n/a	n/a	n/a	n/a
408.5658	0.5167	FIXCROSS	n/a	n/a	n/a	n/a	n/a	n/a	n/a	n/a
409.0825	1.0334	COLOR_NAME	56	Incongruent	zielony	green	czerwony	red	hit	n/a
410.0968	n/a	RESPONSE	n/a	n/a	n/a	n/a	n/a	n/a	n/a	green
410.1158	1.0167	ITI	n/a	n/a	n/a	n/a	n/a	n/a	n/a	n/a
411.1325	0.5167	FIXCROSS	n/a	n/a	n/a	n/a	n/a	n/a	n/a	n/a
411.6492	0.7834	COLOR_NAME	57	Neutral	czerwony	red	Neutral	Neutral	hit	n/a
412.4003	n/a	RESPONSE	n/a	n/a	n/a	n/a	n/a	n/a	n/a	red
412.4325	1.0167	ITI	n/a	n/a	n/a	n/a	n/a	n/a	n/a	n/a
413.4492	0.5167	FIXCROSS	n/a	n/a	n/a	n/a	n/a	n/a	n/a	n/a
413.9659	0.8166	COLOR_NAME	58	Incongruent	niebieski	blue	zielony	green	hit	n/a
414.7517	n/a	RESPONSE	n/a	n/a	n/a	n/a	n/a	n/a	n/a	blue
414.7824	1.0168	ITI	n/a	n/a	n/a	n/a	n/a	n/a	n/a	n/a
415.7992	0.5167	FIXCROSS	n/a	n/a	n/a	n/a	n/a	n/a	n/a	n/a
416.3159	0.85	COLOR_NAME	59	Incongruent	czerwony	red	zielony	green	hit	n/a
417.1352	n/a	RESPONSE	n/a	n/a	n/a	n/a	n/a	n/a	n/a	red
417.1659	1.0167	ITI	n/a	n/a	n/a	n/a	n/a	n/a	n/a	n/a
418.1826	0.5167	FIXCROSS	n/a	n/a	n/a	n/a	n/a	n/a	n/a	n/a
418.6993	0.6667	COLOR_NAME	60	Incongruent	żółty	yellow	zielony	green	hit	n/a
419.3427	n/a	RESPONSE	n/a	n/a	n/a	n/a	n/a	n/a	n/a	yellow
419.3659	1.0167	ITI	n/a	n/a	n/a	n/a	n/a	n/a	n/a	n/a
420.3826	0.5167	FIXCROSS	n/a	n/a	n/a	n/a	n/a	n/a	n/a	n/a
420.8993	0.5167	COLOR_NAME	61	Neutral	żółty	yellow	Neutral	Neutral	hit	n/a
421.3902	n/a	RESPONSE	n/a	n/a	n/a	n/a	n/a	n/a	n/a	yellow
421.416	1.0167	ITI	n/a	n/a	n/a	n/a	n/a	n/a	n/a	n/a
422.4326	0.5167	FIXCROSS	n/a	n/a	n/a	n/a	n/a	n/a	n/a	n/a
422.9493	1.0333	COLOR_NAME	62	Incongruent	zielony	green	niebieski	blue	hit	n/a
423.9496	n/a	RESPONSE	n/a	n/a	n/a	n/a	n/a	n/a	n/a	green
423.9827	1.0167	ITI	n/a	n/a	n/a	n/a	n/a	n/a	n/a	n/a
424.9993	0.5167	FIXCROSS	n/a	n/a	n/a	n/a	n/a	n/a	n/a	n/a
425.516	1.3167	COLOR_NAME	63	Incongruent	niebieski	blue	czerwony	red	hit	n/a
426.8129	n/a	RESPONSE	n/a	n/a	n/a	n/a	n/a	n/a	n/a	blue
426.8327	1.0167	ITI	n/a	n/a	n/a	n/a	n/a	n/a	n/a	n/a
427.8494	0.5167	FIXCROSS	n/a	n/a	n/a	n/a	n/a	n/a	n/a	n/a
428.3661	0.8167	COLOR_NAME	64	Neutral	zielony	green	Neutral	Neutral	hit	n/a
429.1644	n/a	RESPONSE	n/a	n/a	n/a	n/a	n/a	n/a	n/a	green
429.1827	1.0167	ITI	n/a	n/a	n/a	n/a	n/a	n/a	n/a	n/a
430.1994	0.5167	FIXCROSS	n/a	n/a	n/a	n/a	n/a	n/a	n/a	n/a
430.7161	0.55	COLOR_NAME	65	Incongruent	zielony	green	żółty	yellow	hit	n/a
431.2439	n/a	RESPONSE	n/a	n/a	n/a	n/a	n/a	n/a	n/a	green
431.2661	1.0167	ITI	n/a	n/a	n/a	n/a	n/a	n/a	n/a	n/a
432.2828	0.5167	FIXCROSS	n/a	n/a	n/a	n/a	n/a	n/a	n/a	n/a
432.7995	0.6333	COLOR_NAME	66	Neutral	czerwony	red	Neutral	Neutral	hit	n/a
433.4034	n/a	RESPONSE	n/a	n/a	n/a	n/a	n/a	n/a	n/a	red
433.4328	1.0167	ITI	n/a	n/a	n/a	n/a	n/a	n/a	n/a	n/a
434.4495	0.5167	FIXCROSS	n/a	n/a	n/a	n/a	n/a	n/a	n/a	n/a
434.9662	0.7167	COLOR_NAME	67	Neutral	czerwony	red	Neutral	Neutral	hit	n/a
435.6589	n/a	RESPONSE	n/a	n/a	n/a	n/a	n/a	n/a	n/a	red
435.6828	1.0167	ITI	n/a	n/a	n/a	n/a	n/a	n/a	n/a	n/a
436.6995	0.5167	FIXCROSS	n/a	n/a	n/a	n/a	n/a	n/a	n/a	n/a
437.2162	0.8333	COLOR_NAME	68	Neutral	żółty	yellow	Neutral	Neutral	hit	n/a
438.0263	n/a	RESPONSE	n/a	n/a	n/a	n/a	n/a	n/a	n/a	yellow
438.0495	1.0167	ITI	n/a	n/a	n/a	n/a	n/a	n/a	n/a	n/a
439.0662	0.5167	FIXCROSS	n/a	n/a	n/a	n/a	n/a	n/a	n/a	n/a
439.5829	0.65	COLOR_NAME	69	Neutral	niebieski	blue	Neutral	Neutral	hit	n/a
440.2018	n/a	RESPONSE	n/a	n/a	n/a	n/a	n/a	n/a	n/a	blue
440.2329	1.0167	ITI	n/a	n/a	n/a	n/a	n/a	n/a	n/a	n/a
441.2496	0.5167	FIXCROSS	n/a	n/a	n/a	n/a	n/a	n/a	n/a	n/a
441.7663	0.7	COLOR_NAME	70	Incongruent	żółty	yellow	czerwony	red	hit	n/a
442.4413	n/a	RESPONSE	n/a	n/a	n/a	n/a	n/a	n/a	n/a	yellow
442.4663	1.0167	ITI	n/a	n/a	n/a	n/a	n/a	n/a	n/a	n/a
443.4829	0.5167	FIXCROSS	n/a	n/a	n/a	n/a	n/a	n/a	n/a	n/a
443.9996	0.7334	COLOR_NAME	71	Incongruent	czerwony	red	niebieski	blue	hit	n/a
444.7128	n/a	RESPONSE	n/a	n/a	n/a	n/a	n/a	n/a	n/a	red
444.733	1.0167	ITI	n/a	n/a	n/a	n/a	n/a	n/a	n/a	n/a
445.7496	0.5167	FIXCROSS	n/a	n/a	n/a	n/a	n/a	n/a	n/a	n/a
446.2663	0.5667	COLOR_NAME	72	Neutral	żółty	yellow	Neutral	Neutral	hit	n/a
446.8083	n/a	RESPONSE	n/a	n/a	n/a	n/a	n/a	n/a	n/a	yellow
446.833	1.0334	ITI	n/a	n/a	n/a	n/a	n/a	n/a	n/a	n/a
463.2845	n/a	RESPONSE	n/a	n/a	n/a	n/a	n/a	n/a	n/a	n/a
