onset	duration	trial_type	trial_number	stroop_condition	stim_text(PL)	stim_text(eng)	stim_color(PL)	stim_color(eng)	response_type	response_color
0.0	n/a	RESPONSE	n/a	n/a	n/a	n/a	n/a	n/a	n/a	n/a
0.0269	1.0167	ITI	n/a	n/a	n/a	n/a	n/a	n/a	n/a	n/a
1.0436	0.5167	FIXCROSS	n/a	n/a	n/a	n/a	n/a	n/a	n/a	n/a
1.5602	1.45	T_INK	1	Incongruent	czerwony	red	zielony	green	hit	n/a
2.9884	n/a	RESPONSE	n/a	n/a	n/a	n/a	n/a	n/a	n/a	green
3.0102	0.5167	FEEDBACK	n/a	n/a	n/a	n/a	n/a	n/a	n/a	n/a
3.5269	1.0167	ITI	n/a	n/a	n/a	n/a	n/a	n/a	n/a	n/a
4.5436	0.5167	FIXCROSS	n/a	n/a	n/a	n/a	n/a	n/a	n/a	n/a
5.0602	1.0	T_INK	2	Incongruent	żółty	yellow	czerwony	red	hit	n/a
6.0249	n/a	RESPONSE	n/a	n/a	n/a	n/a	n/a	n/a	n/a	red
6.0603	0.5167	FEEDBACK	n/a	n/a	n/a	n/a	n/a	n/a	n/a	n/a
6.5769	1.0167	ITI	n/a	n/a	n/a	n/a	n/a	n/a	n/a	n/a
7.5936	0.5167	FIXCROSS	n/a	n/a	n/a	n/a	n/a	n/a	n/a	n/a
8.1103	0.9333	T_INK	3	Incongruent	niebieski	blue	zielony	green	hit	n/a
9.0134	n/a	RESPONSE	n/a	n/a	n/a	n/a	n/a	n/a	n/a	green
9.0436	0.5167	FEEDBACK	n/a	n/a	n/a	n/a	n/a	n/a	n/a	n/a
9.5603	1.0167	ITI	n/a	n/a	n/a	n/a	n/a	n/a	n/a	n/a
10.577	0.5167	FIXCROSS	n/a	n/a	n/a	n/a	n/a	n/a	n/a	n/a
11.0936	0.7333	T_INK	4	Incongruent	czerwony	red	niebieski	blue	hit	n/a
11.7942	n/a	RESPONSE	n/a	n/a	n/a	n/a	n/a	n/a	n/a	blue
11.827	0.5167	FEEDBACK	n/a	n/a	n/a	n/a	n/a	n/a	n/a	n/a
12.3436	1.0167	ITI	n/a	n/a	n/a	n/a	n/a	n/a	n/a	n/a
13.3603	0.5167	FIXCROSS	n/a	n/a	n/a	n/a	n/a	n/a	n/a	n/a
13.877	0.6167	T_INK	5	Neutral	xxxxxxx	xxxxxxx	żółty	yellow	hit	n/a
14.463	n/a	RESPONSE	n/a	n/a	n/a	n/a	n/a	n/a	n/a	yellow
14.4937	0.5167	FEEDBACK	n/a	n/a	n/a	n/a	n/a	n/a	n/a	n/a
15.0103	1.0167	ITI	n/a	n/a	n/a	n/a	n/a	n/a	n/a	n/a
16.027	0.5167	FIXCROSS	n/a	n/a	n/a	n/a	n/a	n/a	n/a	n/a
16.5437	0.9333	T_INK	6	Incongruent	niebieski	blue	czerwony	red	hit	n/a
17.4516	n/a	RESPONSE	n/a	n/a	n/a	n/a	n/a	n/a	n/a	red
17.477	0.5167	FEEDBACK	n/a	n/a	n/a	n/a	n/a	n/a	n/a	n/a
17.9937	1.0167	ITI	n/a	n/a	n/a	n/a	n/a	n/a	n/a	n/a
19.0104	0.5167	FIXCROSS	n/a	n/a	n/a	n/a	n/a	n/a	n/a	n/a
19.527	0.5167	T_INK	7	Neutral	xxxxxxx	xxxxxxx	czerwony	red	hit	n/a
20.0246	n/a	RESPONSE	n/a	n/a	n/a	n/a	n/a	n/a	n/a	red
20.0437	0.5167	FEEDBACK	n/a	n/a	n/a	n/a	n/a	n/a	n/a	n/a
20.5604	1.0167	ITI	n/a	n/a	n/a	n/a	n/a	n/a	n/a	n/a
21.577	0.5167	FIXCROSS	n/a	n/a	n/a	n/a	n/a	n/a	n/a	n/a
22.0937	0.6667	T_INK	8	Neutral	xxxxxxxxx	xxxxxxxxx	żółty	yellow	hit	n/a
22.7414	n/a	RESPONSE	n/a	n/a	n/a	n/a	n/a	n/a	n/a	yellow
22.7604	0.5167	FEEDBACK	n/a	n/a	n/a	n/a	n/a	n/a	n/a	n/a
23.2771	1.0167	ITI	n/a	n/a	n/a	n/a	n/a	n/a	n/a	n/a
24.2937	0.5167	FIXCROSS	n/a	n/a	n/a	n/a	n/a	n/a	n/a	n/a
24.8104	0.7833	T_INK	9	Neutral	xxxxx	xxxxx	niebieski	blue	hit	n/a
25.5702	n/a	RESPONSE	n/a	n/a	n/a	n/a	n/a	n/a	n/a	blue
25.5937	0.5167	FEEDBACK	n/a	n/a	n/a	n/a	n/a	n/a	n/a	n/a
26.1104	1.0167	ITI	n/a	n/a	n/a	n/a	n/a	n/a	n/a	n/a
27.1271	0.5167	FIXCROSS	n/a	n/a	n/a	n/a	n/a	n/a	n/a	n/a
27.6438	0.6833	T_INK	10	Neutral	xxxxxxxx	xxxxxxxx	żółty	yellow	hit	n/a
28.303	n/a	RESPONSE	n/a	n/a	n/a	n/a	n/a	n/a	n/a	yellow
28.3271	0.5167	FEEDBACK	n/a	n/a	n/a	n/a	n/a	n/a	n/a	n/a
28.8438	1.0167	ITI	n/a	n/a	n/a	n/a	n/a	n/a	n/a	n/a
29.8604	0.5167	FIXCROSS	n/a	n/a	n/a	n/a	n/a	n/a	n/a	n/a
30.3771	0.5	T_INK	11	Neutral	xxxxx	xxxxx	zielony	green	hit	n/a
30.844	n/a	RESPONSE	n/a	n/a	n/a	n/a	n/a	n/a	n/a	green
30.8771	0.5167	FEEDBACK	n/a	n/a	n/a	n/a	n/a	n/a	n/a	n/a
31.3938	1.0167	ITI	n/a	n/a	n/a	n/a	n/a	n/a	n/a	n/a
32.4105	0.5167	FIXCROSS	n/a	n/a	n/a	n/a	n/a	n/a	n/a	n/a
32.9271	0.5333	T_INK	12	Neutral	xxxxx	xxxxx	czerwony	red	hit	n/a
33.4329	n/a	RESPONSE	n/a	n/a	n/a	n/a	n/a	n/a	n/a	red
33.4605	0.5167	FEEDBACK	n/a	n/a	n/a	n/a	n/a	n/a	n/a	n/a
33.9771	1.0333	ITI	n/a	n/a	n/a	n/a	n/a	n/a	n/a	n/a
40.6087	n/a	RESPONSE	n/a	n/a	n/a	n/a	n/a	n/a	n/a	n/a
40.6605	1.0167	ITI	n/a	n/a	n/a	n/a	n/a	n/a	n/a	n/a
41.6772	0.5167	FIXCROSS	n/a	n/a	n/a	n/a	n/a	n/a	n/a	n/a
42.1939	0.6	INK	1	Neutral	xxxxxxx	xxxxxxx	czerwony	red	hit	n/a
42.7662	n/a	RESPONSE	n/a	n/a	n/a	n/a	n/a	n/a	n/a	red
42.7939	1.0167	ITI	n/a	n/a	n/a	n/a	n/a	n/a	n/a	n/a
43.8106	0.5167	FIXCROSS	n/a	n/a	n/a	n/a	n/a	n/a	n/a	n/a
44.3272	0.7	INK	2	Neutral	xxxxxxxxx	xxxxxxxxx	żółty	yellow	hit	n/a
45.0036	n/a	RESPONSE	n/a	n/a	n/a	n/a	n/a	n/a	n/a	yellow
45.0272	1.0167	ITI	n/a	n/a	n/a	n/a	n/a	n/a	n/a	n/a
46.0439	0.5167	FIXCROSS	n/a	n/a	n/a	n/a	n/a	n/a	n/a	n/a
46.5606	0.7833	INK	3	Incongruent	czerwony	red	zielony	green	hit	n/a
47.3208	n/a	RESPONSE	n/a	n/a	n/a	n/a	n/a	n/a	n/a	green
47.3439	1.0167	ITI	n/a	n/a	n/a	n/a	n/a	n/a	n/a	n/a
48.3606	0.5167	FIXCROSS	n/a	n/a	n/a	n/a	n/a	n/a	n/a	n/a
48.8773	0.55	INK	4	Incongruent	niebieski	blue	czerwony	red	hit	n/a
49.3984	n/a	RESPONSE	n/a	n/a	n/a	n/a	n/a	n/a	n/a	red
49.4273	1.0167	ITI	n/a	n/a	n/a	n/a	n/a	n/a	n/a	n/a
50.4439	0.5167	FIXCROSS	n/a	n/a	n/a	n/a	n/a	n/a	n/a	n/a
50.9606	0.5167	INK	5	Neutral	xxxxxxx	xxxxxxx	czerwony	red	hit	n/a
51.46	n/a	RESPONSE	n/a	n/a	n/a	n/a	n/a	n/a	n/a	red
51.4773	1.0167	ITI	n/a	n/a	n/a	n/a	n/a	n/a	n/a	n/a
52.4939	0.5167	FIXCROSS	n/a	n/a	n/a	n/a	n/a	n/a	n/a	n/a
53.0106	0.4833	INK	6	Neutral	xxxxxxx	xxxxxxx	niebieski	blue	hit	n/a
53.4736	n/a	RESPONSE	n/a	n/a	n/a	n/a	n/a	n/a	n/a	blue
53.494	1.0167	ITI	n/a	n/a	n/a	n/a	n/a	n/a	n/a	n/a
54.5106	0.5167	FIXCROSS	n/a	n/a	n/a	n/a	n/a	n/a	n/a	n/a
55.0273	0.75	INK	7	Neutral	xxxxxxxx	xxxxxxxx	zielony	green	hit	n/a
55.7589	n/a	RESPONSE	n/a	n/a	n/a	n/a	n/a	n/a	n/a	green
55.7773	1.0167	ITI	n/a	n/a	n/a	n/a	n/a	n/a	n/a	n/a
56.794	0.5167	FIXCROSS	n/a	n/a	n/a	n/a	n/a	n/a	n/a	n/a
57.3107	0.4667	INK	8	Neutral	xxxxx	xxxxx	zielony	green	hit	n/a
57.7567	n/a	RESPONSE	n/a	n/a	n/a	n/a	n/a	n/a	n/a	green
57.7773	1.0167	ITI	n/a	n/a	n/a	n/a	n/a	n/a	n/a	n/a
58.794	0.5167	FIXCROSS	n/a	n/a	n/a	n/a	n/a	n/a	n/a	n/a
59.3107	0.7333	INK	9	Incongruent	żółty	yellow	czerwony	red	hit	n/a
60.026	n/a	RESPONSE	n/a	n/a	n/a	n/a	n/a	n/a	n/a	red
60.044	1.0167	ITI	n/a	n/a	n/a	n/a	n/a	n/a	n/a	n/a
61.0607	0.5167	FIXCROSS	n/a	n/a	n/a	n/a	n/a	n/a	n/a	n/a
61.5774	0.4333	INK	10	Neutral	xxxxxxxxx	xxxxxxxxx	czerwony	red	hit	n/a
61.9917	n/a	RESPONSE	n/a	n/a	n/a	n/a	n/a	n/a	n/a	red
62.0107	1.0167	ITI	n/a	n/a	n/a	n/a	n/a	n/a	n/a	n/a
63.0274	0.5167	FIXCROSS	n/a	n/a	n/a	n/a	n/a	n/a	n/a	n/a
63.544	0.5667	INK	11	Neutral	xxxxx	xxxxx	zielony	green	hit	n/a
64.0852	n/a	RESPONSE	n/a	n/a	n/a	n/a	n/a	n/a	n/a	green
64.1107	1.0167	ITI	n/a	n/a	n/a	n/a	n/a	n/a	n/a	n/a
65.1274	0.5167	FIXCROSS	n/a	n/a	n/a	n/a	n/a	n/a	n/a	n/a
65.6441	0.5333	INK	12	Neutral	xxxxx	xxxxx	czerwony	red	hit	n/a
66.1468	n/a	RESPONSE	n/a	n/a	n/a	n/a	n/a	n/a	n/a	red
66.1774	1.0167	ITI	n/a	n/a	n/a	n/a	n/a	n/a	n/a	n/a
67.1941	0.5167	FIXCROSS	n/a	n/a	n/a	n/a	n/a	n/a	n/a	n/a
67.7107	0.6667	INK	13	Neutral	xxxxx	xxxxx	niebieski	blue	hit	n/a
68.3522	n/a	RESPONSE	n/a	n/a	n/a	n/a	n/a	n/a	n/a	blue
68.3774	1.0167	ITI	n/a	n/a	n/a	n/a	n/a	n/a	n/a	n/a
69.3941	0.5167	FIXCROSS	n/a	n/a	n/a	n/a	n/a	n/a	n/a	n/a
69.9108	0.7167	INK	14	Incongruent	czerwony	red	zielony	green	hit	n/a
70.6056	n/a	RESPONSE	n/a	n/a	n/a	n/a	n/a	n/a	n/a	green
70.6274	1.0167	ITI	n/a	n/a	n/a	n/a	n/a	n/a	n/a	n/a
71.6441	0.5167	FIXCROSS	n/a	n/a	n/a	n/a	n/a	n/a	n/a	n/a
72.1608	0.85	INK	15	Incongruent	zielony	green	żółty	yellow	hit	n/a
72.9868	n/a	RESPONSE	n/a	n/a	n/a	n/a	n/a	n/a	n/a	yellow
73.0108	1.0167	ITI	n/a	n/a	n/a	n/a	n/a	n/a	n/a	n/a
74.0275	0.5167	FIXCROSS	n/a	n/a	n/a	n/a	n/a	n/a	n/a	n/a
74.5441	0.65	INK	16	Neutral	xxxxxxxx	xxxxxxxx	zielony	green	hit	n/a
75.1603	n/a	RESPONSE	n/a	n/a	n/a	n/a	n/a	n/a	n/a	green
75.1941	1.0167	ITI	n/a	n/a	n/a	n/a	n/a	n/a	n/a	n/a
76.2108	0.5167	FIXCROSS	n/a	n/a	n/a	n/a	n/a	n/a	n/a	n/a
76.7275	0.4	INK	17	Neutral	xxxxxxxx	xxxxxxxx	niebieski	blue	hit	n/a
77.094	n/a	RESPONSE	n/a	n/a	n/a	n/a	n/a	n/a	n/a	blue
77.1275	1.0167	ITI	n/a	n/a	n/a	n/a	n/a	n/a	n/a	n/a
78.1442	0.5167	FIXCROSS	n/a	n/a	n/a	n/a	n/a	n/a	n/a	n/a
78.6608	0.5833	INK	18	Incongruent	żółty	yellow	niebieski	blue	hit	n/a
79.2197	n/a	RESPONSE	n/a	n/a	n/a	n/a	n/a	n/a	n/a	blue
79.2442	1.0167	ITI	n/a	n/a	n/a	n/a	n/a	n/a	n/a	n/a
80.2608	0.5167	FIXCROSS	n/a	n/a	n/a	n/a	n/a	n/a	n/a	n/a
80.7775	0.6	INK	19	Neutral	xxxxxxx	xxxxxxx	żółty	yellow	hit	n/a
81.3452	n/a	RESPONSE	n/a	n/a	n/a	n/a	n/a	n/a	n/a	yellow
81.3775	1.0167	ITI	n/a	n/a	n/a	n/a	n/a	n/a	n/a	n/a
82.3942	0.5167	FIXCROSS	n/a	n/a	n/a	n/a	n/a	n/a	n/a	n/a
82.9109	0.85	INK	20	Neutral	xxxxxxxxx	xxxxxxxxx	czerwony	red	hit	n/a
83.7263	n/a	RESPONSE	n/a	n/a	n/a	n/a	n/a	n/a	n/a	red
83.7609	1.0167	ITI	n/a	n/a	n/a	n/a	n/a	n/a	n/a	n/a
84.7775	0.5167	FIXCROSS	n/a	n/a	n/a	n/a	n/a	n/a	n/a	n/a
85.2942	0.6	INK	21	Incongruent	żółty	yellow	czerwony	red	hit	n/a
85.8678	n/a	RESPONSE	n/a	n/a	n/a	n/a	n/a	n/a	n/a	red
85.8942	1.0167	ITI	n/a	n/a	n/a	n/a	n/a	n/a	n/a	n/a
86.9109	0.5167	FIXCROSS	n/a	n/a	n/a	n/a	n/a	n/a	n/a	n/a
87.4276	0.4667	INK	22	Incongruent	zielony	green	czerwony	red	hit	n/a
87.8655	n/a	RESPONSE	n/a	n/a	n/a	n/a	n/a	n/a	n/a	red
87.8942	1.0167	ITI	n/a	n/a	n/a	n/a	n/a	n/a	n/a	n/a
88.9109	0.5167	FIXCROSS	n/a	n/a	n/a	n/a	n/a	n/a	n/a	n/a
89.4276	0.45	INK	23	Incongruent	zielony	green	czerwony	red	hit	n/a
89.8471	n/a	RESPONSE	n/a	n/a	n/a	n/a	n/a	n/a	n/a	red
89.8776	1.0167	ITI	n/a	n/a	n/a	n/a	n/a	n/a	n/a	n/a
90.8942	0.5167	FIXCROSS	n/a	n/a	n/a	n/a	n/a	n/a	n/a	n/a
91.4109	0.5667	INK	24	Neutral	xxxxx	xxxxx	niebieski	blue	hit	n/a
91.9567	n/a	RESPONSE	n/a	n/a	n/a	n/a	n/a	n/a	n/a	blue
91.9776	1.0167	ITI	n/a	n/a	n/a	n/a	n/a	n/a	n/a	n/a
92.9943	0.5167	FIXCROSS	n/a	n/a	n/a	n/a	n/a	n/a	n/a	n/a
93.5109	0.4833	INK	25	Incongruent	zielony	green	żółty	yellow	hit	n/a
93.9703	n/a	RESPONSE	n/a	n/a	n/a	n/a	n/a	n/a	n/a	yellow
93.9943	1.0167	ITI	n/a	n/a	n/a	n/a	n/a	n/a	n/a	n/a
95.0109	0.5167	FIXCROSS	n/a	n/a	n/a	n/a	n/a	n/a	n/a	n/a
95.5276	0.8667	INK	26	Incongruent	żółty	yellow	niebieski	blue	hit	n/a
96.3676	n/a	RESPONSE	n/a	n/a	n/a	n/a	n/a	n/a	n/a	blue
96.3943	1.0167	ITI	n/a	n/a	n/a	n/a	n/a	n/a	n/a	n/a
97.411	0.5167	FIXCROSS	n/a	n/a	n/a	n/a	n/a	n/a	n/a	n/a
97.9276	0.6833	INK	27	Neutral	xxxxxxx	xxxxxxx	żółty	yellow	hit	n/a
98.589	n/a	RESPONSE	n/a	n/a	n/a	n/a	n/a	n/a	n/a	yellow
98.611	1.0167	ITI	n/a	n/a	n/a	n/a	n/a	n/a	n/a	n/a
99.6277	0.5167	FIXCROSS	n/a	n/a	n/a	n/a	n/a	n/a	n/a	n/a
100.1443	0.8333	INK	28	Incongruent	czerwony	red	niebieski	blue	hit	n/a
100.9543	n/a	RESPONSE	n/a	n/a	n/a	n/a	n/a	n/a	n/a	blue
100.9777	1.0167	ITI	n/a	n/a	n/a	n/a	n/a	n/a	n/a	n/a
101.9943	0.5167	FIXCROSS	n/a	n/a	n/a	n/a	n/a	n/a	n/a	n/a
102.511	0.4333	INK	29	Neutral	xxxxxxx	xxxxxxx	niebieski	blue	hit	n/a
102.92	n/a	RESPONSE	n/a	n/a	n/a	n/a	n/a	n/a	n/a	blue
102.9443	1.0167	ITI	n/a	n/a	n/a	n/a	n/a	n/a	n/a	n/a
103.961	0.5167	FIXCROSS	n/a	n/a	n/a	n/a	n/a	n/a	n/a	n/a
104.4777	0.6	INK	30	Neutral	xxxxxxxxx	xxxxxxxxx	zielony	green	hit	n/a
105.0454	n/a	RESPONSE	n/a	n/a	n/a	n/a	n/a	n/a	n/a	green
105.0777	1.0167	ITI	n/a	n/a	n/a	n/a	n/a	n/a	n/a	n/a
106.0944	0.5167	FIXCROSS	n/a	n/a	n/a	n/a	n/a	n/a	n/a	n/a
106.611	0.7167	INK	31	Incongruent	czerwony	red	niebieski	blue	hit	n/a
107.2989	n/a	RESPONSE	n/a	n/a	n/a	n/a	n/a	n/a	n/a	blue
107.3277	1.0167	ITI	n/a	n/a	n/a	n/a	n/a	n/a	n/a	n/a
108.3444	0.5167	FIXCROSS	n/a	n/a	n/a	n/a	n/a	n/a	n/a	n/a
108.8611	1.4	INK	32	Incongruent	niebieski	blue	żółty	yellow	hit	n/a
110.2394	n/a	RESPONSE	n/a	n/a	n/a	n/a	n/a	n/a	n/a	yellow
110.2611	1.0167	ITI	n/a	n/a	n/a	n/a	n/a	n/a	n/a	n/a
111.2777	0.5167	FIXCROSS	n/a	n/a	n/a	n/a	n/a	n/a	n/a	n/a
111.7944	0.5333	INK	33	Incongruent	czerwony	red	żółty	yellow	hit	n/a
112.3011	n/a	RESPONSE	n/a	n/a	n/a	n/a	n/a	n/a	n/a	yellow
112.3277	1.0167	ITI	n/a	n/a	n/a	n/a	n/a	n/a	n/a	n/a
113.3444	0.5167	FIXCROSS	n/a	n/a	n/a	n/a	n/a	n/a	n/a	n/a
113.8611	0.4333	INK	34	Neutral	xxxxx	xxxxx	zielony	green	hit	n/a
114.2668	n/a	RESPONSE	n/a	n/a	n/a	n/a	n/a	n/a	n/a	green
114.2944	1.0167	ITI	n/a	n/a	n/a	n/a	n/a	n/a	n/a	n/a
115.3111	0.5167	FIXCROSS	n/a	n/a	n/a	n/a	n/a	n/a	n/a	n/a
115.8278	0.7667	INK	35	Incongruent	zielony	green	niebieski	blue	hit	n/a
116.5681	n/a	RESPONSE	n/a	n/a	n/a	n/a	n/a	n/a	n/a	blue
116.5944	1.0167	ITI	n/a	n/a	n/a	n/a	n/a	n/a	n/a	n/a
117.6111	0.5167	FIXCROSS	n/a	n/a	n/a	n/a	n/a	n/a	n/a	n/a
118.1278	0.6	INK	36	Incongruent	czerwony	red	żółty	yellow	hit	n/a
118.6935	n/a	RESPONSE	n/a	n/a	n/a	n/a	n/a	n/a	n/a	yellow
118.7278	1.0167	ITI	n/a	n/a	n/a	n/a	n/a	n/a	n/a	n/a
119.7445	0.5167	FIXCROSS	n/a	n/a	n/a	n/a	n/a	n/a	n/a	n/a
120.2611	0.45	INK	37	Neutral	xxxxxxxx	xxxxxxxx	żółty	yellow	hit	n/a
120.6913	n/a	RESPONSE	n/a	n/a	n/a	n/a	n/a	n/a	n/a	yellow
120.7111	1.0167	ITI	n/a	n/a	n/a	n/a	n/a	n/a	n/a	n/a
121.7278	0.5167	FIXCROSS	n/a	n/a	n/a	n/a	n/a	n/a	n/a	n/a
122.2445	0.8167	INK	38	Neutral	xxxxx	xxxxx	czerwony	red	hit	n/a
123.0405	n/a	RESPONSE	n/a	n/a	n/a	n/a	n/a	n/a	n/a	red
123.0612	1.0167	ITI	n/a	n/a	n/a	n/a	n/a	n/a	n/a	n/a
124.0778	0.5167	FIXCROSS	n/a	n/a	n/a	n/a	n/a	n/a	n/a	n/a
124.5945	0.4833	INK	39	Neutral	xxxxxxxxx	xxxxxxxxx	zielony	green	hit	n/a
125.0542	n/a	RESPONSE	n/a	n/a	n/a	n/a	n/a	n/a	n/a	green
125.0778	1.0167	ITI	n/a	n/a	n/a	n/a	n/a	n/a	n/a	n/a
126.0945	0.5167	FIXCROSS	n/a	n/a	n/a	n/a	n/a	n/a	n/a	n/a
126.6112	0.6833	INK	40	Neutral	xxxxxxx	xxxxxxx	czerwony	red	hit	n/a
127.2756	n/a	RESPONSE	n/a	n/a	n/a	n/a	n/a	n/a	n/a	red
127.2945	1.0167	ITI	n/a	n/a	n/a	n/a	n/a	n/a	n/a	n/a
128.3112	0.5167	FIXCROSS	n/a	n/a	n/a	n/a	n/a	n/a	n/a	n/a
128.8279	0.55	INK	41	Neutral	xxxxxxxx	xxxxxxxx	niebieski	blue	hit	n/a
129.3532	n/a	RESPONSE	n/a	n/a	n/a	n/a	n/a	n/a	n/a	blue
129.3779	1.0167	ITI	n/a	n/a	n/a	n/a	n/a	n/a	n/a	n/a
130.3945	0.5167	FIXCROSS	n/a	n/a	n/a	n/a	n/a	n/a	n/a	n/a
130.9112	0.6167	INK	42	Incongruent	niebieski	blue	czerwony	red	hit	n/a
131.5106	n/a	RESPONSE	n/a	n/a	n/a	n/a	n/a	n/a	n/a	red
131.5279	1.0167	ITI	n/a	n/a	n/a	n/a	n/a	n/a	n/a	n/a
132.5446	0.5167	FIXCROSS	n/a	n/a	n/a	n/a	n/a	n/a	n/a	n/a
133.0612	0.65	INK	43	Incongruent	czerwony	red	zielony	green	hit	n/a
133.6841	n/a	RESPONSE	n/a	n/a	n/a	n/a	n/a	n/a	n/a	green
133.7112	1.0167	ITI	n/a	n/a	n/a	n/a	n/a	n/a	n/a	n/a
134.7279	0.5167	FIXCROSS	n/a	n/a	n/a	n/a	n/a	n/a	n/a	n/a
135.2446	0.6667	INK	44	Incongruent	żółty	yellow	czerwony	red	hit	n/a
135.8896	n/a	RESPONSE	n/a	n/a	n/a	n/a	n/a	n/a	n/a	red
135.9112	1.0167	ITI	n/a	n/a	n/a	n/a	n/a	n/a	n/a	n/a
136.9279	0.5167	FIXCROSS	n/a	n/a	n/a	n/a	n/a	n/a	n/a	n/a
137.4446	0.3833	INK	45	Neutral	xxxxxxxxx	xxxxxxxxx	żółty	yellow	hit	n/a
137.8073	n/a	RESPONSE	n/a	n/a	n/a	n/a	n/a	n/a	n/a	yellow
137.8279	1.0167	ITI	n/a	n/a	n/a	n/a	n/a	n/a	n/a	n/a
138.8446	0.5167	FIXCROSS	n/a	n/a	n/a	n/a	n/a	n/a	n/a	n/a
139.3613	0.4167	INK	46	Neutral	xxxxxxx	xxxxxxx	żółty	yellow	hit	n/a
139.757	n/a	RESPONSE	n/a	n/a	n/a	n/a	n/a	n/a	n/a	yellow
139.7779	1.0167	ITI	n/a	n/a	n/a	n/a	n/a	n/a	n/a	n/a
140.7946	0.5167	FIXCROSS	n/a	n/a	n/a	n/a	n/a	n/a	n/a	n/a
141.3113	0.6333	INK	47	Neutral	xxxxxxxx	xxxxxxxx	zielony	green	hit	n/a
141.9145	n/a	RESPONSE	n/a	n/a	n/a	n/a	n/a	n/a	n/a	green
141.9446	1.0167	ITI	n/a	n/a	n/a	n/a	n/a	n/a	n/a	n/a
142.9613	0.5167	FIXCROSS	n/a	n/a	n/a	n/a	n/a	n/a	n/a	n/a
143.478	0.6333	INK	48	Incongruent	zielony	green	czerwony	red	hit	n/a
144.088	n/a	RESPONSE	n/a	n/a	n/a	n/a	n/a	n/a	n/a	red
144.1113	1.0167	ITI	n/a	n/a	n/a	n/a	n/a	n/a	n/a	n/a
145.128	0.5167	FIXCROSS	n/a	n/a	n/a	n/a	n/a	n/a	n/a	n/a
145.6447	0.4167	INK	49	Neutral	xxxxx	xxxxx	czerwony	red	hit	n/a
146.0379	n/a	RESPONSE	n/a	n/a	n/a	n/a	n/a	n/a	n/a	red
146.0613	1.0167	ITI	n/a	n/a	n/a	n/a	n/a	n/a	n/a	n/a
147.078	0.5167	FIXCROSS	n/a	n/a	n/a	n/a	n/a	n/a	n/a	n/a
147.5947	0.4167	INK	50	Neutral	xxxxxxxxx	xxxxxxxxx	czerwony	red	hit	n/a
147.9875	n/a	RESPONSE	n/a	n/a	n/a	n/a	n/a	n/a	n/a	red
148.0114	1.0167	ITI	n/a	n/a	n/a	n/a	n/a	n/a	n/a	n/a
149.028	0.5167	FIXCROSS	n/a	n/a	n/a	n/a	n/a	n/a	n/a	n/a
149.5447	0.5333	INK	51	Neutral	xxxxxxxx	xxxxxxxx	żółty	yellow	hit	n/a
150.0491	n/a	RESPONSE	n/a	n/a	n/a	n/a	n/a	n/a	n/a	yellow
150.078	1.0167	ITI	n/a	n/a	n/a	n/a	n/a	n/a	n/a	n/a
151.0947	0.5167	FIXCROSS	n/a	n/a	n/a	n/a	n/a	n/a	n/a	n/a
151.6114	0.6667	INK	52	Incongruent	niebieski	blue	zielony	green	hit	n/a
152.2545	n/a	RESPONSE	n/a	n/a	n/a	n/a	n/a	n/a	n/a	green
152.278	1.0167	ITI	n/a	n/a	n/a	n/a	n/a	n/a	n/a	n/a
153.2947	0.5167	FIXCROSS	n/a	n/a	n/a	n/a	n/a	n/a	n/a	n/a
153.8114	0.6333	INK	53	Incongruent	żółty	yellow	zielony	green	hit	n/a
154.412	n/a	RESPONSE	n/a	n/a	n/a	n/a	n/a	n/a	n/a	green
154.4447	1.0167	ITI	n/a	n/a	n/a	n/a	n/a	n/a	n/a	n/a
155.4614	0.5167	FIXCROSS	n/a	n/a	n/a	n/a	n/a	n/a	n/a	n/a
155.9781	0.4	INK	54	Incongruent	niebieski	blue	zielony	green	hit	n/a
156.3457	n/a	RESPONSE	n/a	n/a	n/a	n/a	n/a	n/a	n/a	green
156.3781	1.0167	ITI	n/a	n/a	n/a	n/a	n/a	n/a	n/a	n/a
157.3947	0.5167	FIXCROSS	n/a	n/a	n/a	n/a	n/a	n/a	n/a	n/a
157.9114	0.5167	INK	55	Incongruent	czerwony	red	żółty	yellow	hit	n/a
158.4073	n/a	RESPONSE	n/a	n/a	n/a	n/a	n/a	n/a	n/a	yellow
158.4281	1.0167	ITI	n/a	n/a	n/a	n/a	n/a	n/a	n/a	n/a
159.4448	0.5167	FIXCROSS	n/a	n/a	n/a	n/a	n/a	n/a	n/a	n/a
159.9614	0.5667	INK	56	Neutral	xxxxx	xxxxx	niebieski	blue	hit	n/a
160.5009	n/a	RESPONSE	n/a	n/a	n/a	n/a	n/a	n/a	n/a	blue
160.5281	1.0167	ITI	n/a	n/a	n/a	n/a	n/a	n/a	n/a	n/a
161.5448	0.5167	FIXCROSS	n/a	n/a	n/a	n/a	n/a	n/a	n/a	n/a
162.0615	0.4167	INK	57	Incongruent	zielony	green	niebieski	blue	hit	n/a
162.4507	n/a	RESPONSE	n/a	n/a	n/a	n/a	n/a	n/a	n/a	blue
162.4781	1.0167	ITI	n/a	n/a	n/a	n/a	n/a	n/a	n/a	n/a
163.4948	0.5167	FIXCROSS	n/a	n/a	n/a	n/a	n/a	n/a	n/a	n/a
164.0115	0.75	INK	58	Incongruent	niebieski	blue	żółty	yellow	hit	n/a
164.736	n/a	RESPONSE	n/a	n/a	n/a	n/a	n/a	n/a	n/a	yellow
164.7615	1.0167	ITI	n/a	n/a	n/a	n/a	n/a	n/a	n/a	n/a
165.7781	0.5167	FIXCROSS	n/a	n/a	n/a	n/a	n/a	n/a	n/a	n/a
166.2948	0.5167	INK	59	Incongruent	niebieski	blue	zielony	green	hit	n/a
166.7816	n/a	RESPONSE	n/a	n/a	n/a	n/a	n/a	n/a	n/a	green
166.8115	1.0167	ITI	n/a	n/a	n/a	n/a	n/a	n/a	n/a	n/a
167.8282	0.5167	FIXCROSS	n/a	n/a	n/a	n/a	n/a	n/a	n/a	n/a
168.3448	0.4667	INK	60	Incongruent	żółty	yellow	zielony	green	hit	n/a
168.7793	n/a	RESPONSE	n/a	n/a	n/a	n/a	n/a	n/a	n/a	green
168.8115	1.0167	ITI	n/a	n/a	n/a	n/a	n/a	n/a	n/a	n/a
169.8282	0.5167	FIXCROSS	n/a	n/a	n/a	n/a	n/a	n/a	n/a	n/a
170.3448	0.6833	INK	61	Neutral	xxxxxxx	xxxxxxx	niebieski	blue	hit	n/a
171.0007	n/a	RESPONSE	n/a	n/a	n/a	n/a	n/a	n/a	n/a	blue
171.0282	1.0167	ITI	n/a	n/a	n/a	n/a	n/a	n/a	n/a	n/a
172.0449	0.5167	FIXCROSS	n/a	n/a	n/a	n/a	n/a	n/a	n/a	n/a
172.5615	0.4	INK	62	Neutral	xxxxxxxx	xxxxxxxx	niebieski	blue	hit	n/a
172.9344	n/a	RESPONSE	n/a	n/a	n/a	n/a	n/a	n/a	n/a	blue
172.9615	1.0167	ITI	n/a	n/a	n/a	n/a	n/a	n/a	n/a	n/a
173.9782	0.5167	FIXCROSS	n/a	n/a	n/a	n/a	n/a	n/a	n/a	n/a
174.4949	0.65	INK	63	Neutral	xxxxxxxxx	xxxxxxxxx	zielony	green	hit	n/a
175.1238	n/a	RESPONSE	n/a	n/a	n/a	n/a	n/a	n/a	n/a	green
175.1449	1.0167	ITI	n/a	n/a	n/a	n/a	n/a	n/a	n/a	n/a
176.1616	0.5167	FIXCROSS	n/a	n/a	n/a	n/a	n/a	n/a	n/a	n/a
176.6782	0.8167	INK	64	Incongruent	niebieski	blue	żółty	yellow	hit	n/a
177.4732	n/a	RESPONSE	n/a	n/a	n/a	n/a	n/a	n/a	n/a	yellow
177.4949	1.0167	ITI	n/a	n/a	n/a	n/a	n/a	n/a	n/a	n/a
178.5116	0.5167	FIXCROSS	n/a	n/a	n/a	n/a	n/a	n/a	n/a	n/a
179.0282	1.2167	INK	65	Incongruent	żółty	yellow	niebieski	blue	hit	n/a
180.2219	n/a	RESPONSE	n/a	n/a	n/a	n/a	n/a	n/a	n/a	blue
180.2449	1.0167	ITI	n/a	n/a	n/a	n/a	n/a	n/a	n/a	n/a
181.2616	0.5167	FIXCROSS	n/a	n/a	n/a	n/a	n/a	n/a	n/a	n/a
181.7783	1.05	INK	66	Neutral	xxxxxxxx	xxxxxxxx	żółty	yellow	hit	n/a
182.7949	n/a	RESPONSE	n/a	n/a	n/a	n/a	n/a	n/a	n/a	yellow
182.8283	1.0167	ITI	n/a	n/a	n/a	n/a	n/a	n/a	n/a	n/a
183.8449	0.5167	FIXCROSS	n/a	n/a	n/a	n/a	n/a	n/a	n/a	n/a
184.3616	0.4833	INK	67	Neutral	xxxxxxxxx	xxxxxxxxx	żółty	yellow	hit	n/a
184.8245	n/a	RESPONSE	n/a	n/a	n/a	n/a	n/a	n/a	n/a	yellow
184.845	1.0167	ITI	n/a	n/a	n/a	n/a	n/a	n/a	n/a	n/a
185.8616	0.5167	FIXCROSS	n/a	n/a	n/a	n/a	n/a	n/a	n/a	n/a
186.3783	0.5833	INK	68	Incongruent	zielony	green	żółty	yellow	hit	n/a
186.9341	n/a	RESPONSE	n/a	n/a	n/a	n/a	n/a	n/a	n/a	yellow
186.9616	1.0167	ITI	n/a	n/a	n/a	n/a	n/a	n/a	n/a	n/a
187.9783	0.5167	FIXCROSS	n/a	n/a	n/a	n/a	n/a	n/a	n/a	n/a
188.495	0.65	INK	69	Incongruent	niebieski	blue	czerwony	red	hit	n/a
189.1235	n/a	RESPONSE	n/a	n/a	n/a	n/a	n/a	n/a	n/a	red
189.145	1.0167	ITI	n/a	n/a	n/a	n/a	n/a	n/a	n/a	n/a
190.1617	0.5167	FIXCROSS	n/a	n/a	n/a	n/a	n/a	n/a	n/a	n/a
190.6783	1.1333	INK	70	Incongruent	czerwony	red	niebieski	blue	hit	n/a
191.7924	n/a	RESPONSE	n/a	n/a	n/a	n/a	n/a	n/a	n/a	blue
191.8117	1.0167	ITI	n/a	n/a	n/a	n/a	n/a	n/a	n/a	n/a
192.8283	0.5167	FIXCROSS	n/a	n/a	n/a	n/a	n/a	n/a	n/a	n/a
193.345	0.4167	INK	71	Incongruent	zielony	green	niebieski	blue	hit	n/a
193.7421	n/a	RESPONSE	n/a	n/a	n/a	n/a	n/a	n/a	n/a	blue
193.7617	1.0167	ITI	n/a	n/a	n/a	n/a	n/a	n/a	n/a	n/a
194.7784	0.5167	FIXCROSS	n/a	n/a	n/a	n/a	n/a	n/a	n/a	n/a
195.295	0.4	INK	72	Incongruent	żółty	yellow	zielony	green	hit	n/a
195.6759	n/a	RESPONSE	n/a	n/a	n/a	n/a	n/a	n/a	n/a	green
195.695	1.0833	ITI	n/a	n/a	n/a	n/a	n/a	n/a	n/a	n/a
212.1687	n/a	RESPONSE	n/a	n/a	n/a	n/a	n/a	n/a	n/a	blue
212.9837	n/a	RESPONSE	n/a	n/a	n/a	n/a	n/a	n/a	n/a	n/a
213.0452	1.0167	ITI	n/a	n/a	n/a	n/a	n/a	n/a	n/a	n/a
214.0618	0.5167	FIXCROSS	n/a	n/a	n/a	n/a	n/a	n/a	n/a	n/a
214.5785	1.6333	T_COLOR_NAME	1	Incongruent	czerwony	red	zielony	green	hit	n/a
216.18	n/a	RESPONSE	n/a	n/a	n/a	n/a	n/a	n/a	n/a	red
216.2119	0.5167	FEEDBACK	n/a	n/a	n/a	n/a	n/a	n/a	n/a	n/a
216.7285	1.0167	ITI	n/a	n/a	n/a	n/a	n/a	n/a	n/a	n/a
217.7452	0.5167	FIXCROSS	n/a	n/a	n/a	n/a	n/a	n/a	n/a	n/a
218.2619	1.1667	T_COLOR_NAME	2	Neutral	żółty	yellow	Neutral	Neutral	hit	n/a
219.3922	n/a	RESPONSE	n/a	n/a	n/a	n/a	n/a	n/a	n/a	yellow
219.4285	0.5167	FEEDBACK	n/a	n/a	n/a	n/a	n/a	n/a	n/a	n/a
219.9452	1.0167	ITI	n/a	n/a	n/a	n/a	n/a	n/a	n/a	n/a
220.9619	0.5167	FIXCROSS	n/a	n/a	n/a	n/a	n/a	n/a	n/a	n/a
221.4786	0.7667	T_COLOR_NAME	3	Neutral	czerwony	red	Neutral	Neutral	hit	n/a
222.2211	n/a	RESPONSE	n/a	n/a	n/a	n/a	n/a	n/a	n/a	red
222.2452	0.5167	FEEDBACK	n/a	n/a	n/a	n/a	n/a	n/a	n/a	n/a
222.7619	1.0167	ITI	n/a	n/a	n/a	n/a	n/a	n/a	n/a	n/a
223.7786	0.5166	FIXCROSS	n/a	n/a	n/a	n/a	n/a	n/a	n/a	n/a
224.2952	0.5834	T_COLOR_NAME	4	Neutral	żółty	yellow	Neutral	Neutral	hit	n/a
224.8579	n/a	RESPONSE	n/a	n/a	n/a	n/a	n/a	n/a	n/a	yellow
224.8786	0.5167	FEEDBACK	n/a	n/a	n/a	n/a	n/a	n/a	n/a	n/a
225.3953	1.0167	ITI	n/a	n/a	n/a	n/a	n/a	n/a	n/a	n/a
226.4119	0.5167	FIXCROSS	n/a	n/a	n/a	n/a	n/a	n/a	n/a	n/a
226.9286	1.0	T_COLOR_NAME	5	Incongruent	żółty	yellow	czerwony	red	hit	n/a
227.8945	n/a	RESPONSE	n/a	n/a	n/a	n/a	n/a	n/a	n/a	yellow
227.9286	0.5167	FEEDBACK	n/a	n/a	n/a	n/a	n/a	n/a	n/a	n/a
228.4453	1.0167	ITI	n/a	n/a	n/a	n/a	n/a	n/a	n/a	n/a
229.4619	0.5167	FIXCROSS	n/a	n/a	n/a	n/a	n/a	n/a	n/a	n/a
229.9786	0.7333	T_COLOR_NAME	6	Neutral	zielony	green	Neutral	Neutral	hit	n/a
230.6912	n/a	RESPONSE	n/a	n/a	n/a	n/a	n/a	n/a	n/a	green
230.712	0.5167	FEEDBACK	n/a	n/a	n/a	n/a	n/a	n/a	n/a	n/a
231.2286	1.0167	ITI	n/a	n/a	n/a	n/a	n/a	n/a	n/a	n/a
232.2453	0.5167	FIXCROSS	n/a	n/a	n/a	n/a	n/a	n/a	n/a	n/a
232.762	0.7167	T_COLOR_NAME	7	Neutral	niebieski	blue	Neutral	Neutral	hit	n/a
233.456	n/a	RESPONSE	n/a	n/a	n/a	n/a	n/a	n/a	n/a	blue
233.4786	0.5167	FEEDBACK	n/a	n/a	n/a	n/a	n/a	n/a	n/a	n/a
233.9953	1.0167	ITI	n/a	n/a	n/a	n/a	n/a	n/a	n/a	n/a
235.012	0.5167	FIXCROSS	n/a	n/a	n/a	n/a	n/a	n/a	n/a	n/a
235.5287	1.1	T_COLOR_NAME	8	Incongruent	czerwony	red	niebieski	blue	hit	n/a
236.6045	n/a	RESPONSE	n/a	n/a	n/a	n/a	n/a	n/a	n/a	red
236.6287	0.5167	FEEDBACK	n/a	n/a	n/a	n/a	n/a	n/a	n/a	n/a
237.1453	1.0167	ITI	n/a	n/a	n/a	n/a	n/a	n/a	n/a	n/a
238.162	0.5167	FIXCROSS	n/a	n/a	n/a	n/a	n/a	n/a	n/a	n/a
238.6787	0.5334	T_COLOR_NAME	9	Neutral	żółty	yellow	Neutral	Neutral	hit	n/a
239.1934	n/a	RESPONSE	n/a	n/a	n/a	n/a	n/a	n/a	n/a	yellow
239.212	0.5167	FEEDBACK	n/a	n/a	n/a	n/a	n/a	n/a	n/a	n/a
239.7287	1.0167	ITI	n/a	n/a	n/a	n/a	n/a	n/a	n/a	n/a
240.7454	0.5167	FIXCROSS	n/a	n/a	n/a	n/a	n/a	n/a	n/a	n/a
241.262	0.6334	T_COLOR_NAME	10	Neutral	zielony	green	Neutral	Neutral	hit	n/a
241.8624	n/a	RESPONSE	n/a	n/a	n/a	n/a	n/a	n/a	n/a	green
241.8954	0.5167	FEEDBACK	n/a	n/a	n/a	n/a	n/a	n/a	n/a	n/a
242.412	1.0167	ITI	n/a	n/a	n/a	n/a	n/a	n/a	n/a	n/a
243.4287	0.5167	FIXCROSS	n/a	n/a	n/a	n/a	n/a	n/a	n/a	n/a
243.9454	0.9333	T_COLOR_NAME	11	Incongruent	niebieski	blue	zielony	green	hit	n/a
244.851	n/a	RESPONSE	n/a	n/a	n/a	n/a	n/a	n/a	n/a	blue
244.8787	0.5167	FEEDBACK	n/a	n/a	n/a	n/a	n/a	n/a	n/a	n/a
245.3954	1.0167	ITI	n/a	n/a	n/a	n/a	n/a	n/a	n/a	n/a
246.4121	0.5167	FIXCROSS	n/a	n/a	n/a	n/a	n/a	n/a	n/a	n/a
246.9287	0.9	T_COLOR_NAME	12	Incongruent	niebieski	blue	czerwony	red	hit	n/a
247.8076	n/a	RESPONSE	n/a	n/a	n/a	n/a	n/a	n/a	n/a	blue
247.8288	0.5167	FEEDBACK	n/a	n/a	n/a	n/a	n/a	n/a	n/a	n/a
248.3454	1.0333	ITI	n/a	n/a	n/a	n/a	n/a	n/a	n/a	n/a
250.7962	n/a	RESPONSE	n/a	n/a	n/a	n/a	n/a	n/a	n/a	n/a
250.8621	1.0167	ITI	n/a	n/a	n/a	n/a	n/a	n/a	n/a	n/a
251.8788	0.5167	FIXCROSS	n/a	n/a	n/a	n/a	n/a	n/a	n/a	n/a
252.3954	0.6167	COLOR_NAME	1	Incongruent	żółty	yellow	czerwony	red	hit	n/a
252.9857	n/a	RESPONSE	n/a	n/a	n/a	n/a	n/a	n/a	n/a	yellow
253.0121	1.0167	ITI	n/a	n/a	n/a	n/a	n/a	n/a	n/a	n/a
254.0288	0.5167	FIXCROSS	n/a	n/a	n/a	n/a	n/a	n/a	n/a	n/a
254.5455	0.5167	COLOR_NAME	2	Neutral	żółty	yellow	Neutral	Neutral	hit	n/a
255.0314	n/a	RESPONSE	n/a	n/a	n/a	n/a	n/a	n/a	n/a	yellow
255.0621	1.0167	ITI	n/a	n/a	n/a	n/a	n/a	n/a	n/a	n/a
256.0788	0.5166	FIXCROSS	n/a	n/a	n/a	n/a	n/a	n/a	n/a	n/a
256.5954	0.6667	COLOR_NAME	3	Incongruent	zielony	green	żółty	yellow	hit	n/a
257.2368	n/a	RESPONSE	n/a	n/a	n/a	n/a	n/a	n/a	n/a	green
257.2622	1.0167	ITI	n/a	n/a	n/a	n/a	n/a	n/a	n/a	n/a
258.2788	0.5167	FIXCROSS	n/a	n/a	n/a	n/a	n/a	n/a	n/a	n/a
258.7955	0.6333	COLOR_NAME	4	Incongruent	zielony	green	czerwony	red	hit	n/a
259.3944	n/a	RESPONSE	n/a	n/a	n/a	n/a	n/a	n/a	n/a	green
259.4288	1.0167	ITI	n/a	n/a	n/a	n/a	n/a	n/a	n/a	n/a
260.4455	0.5167	FIXCROSS	n/a	n/a	n/a	n/a	n/a	n/a	n/a	n/a
260.9622	0.65	COLOR_NAME	5	Neutral	czerwony	red	Neutral	Neutral	hit	n/a
261.5838	n/a	RESPONSE	n/a	n/a	n/a	n/a	n/a	n/a	n/a	red
261.6122	1.0167	ITI	n/a	n/a	n/a	n/a	n/a	n/a	n/a	n/a
262.6289	0.5167	FIXCROSS	n/a	n/a	n/a	n/a	n/a	n/a	n/a	n/a
263.1455	0.5667	COLOR_NAME	6	Incongruent	niebieski	blue	zielony	green	hit	n/a
263.6934	n/a	RESPONSE	n/a	n/a	n/a	n/a	n/a	n/a	n/a	blue
263.7122	1.0167	ITI	n/a	n/a	n/a	n/a	n/a	n/a	n/a	n/a
264.7289	0.5167	FIXCROSS	n/a	n/a	n/a	n/a	n/a	n/a	n/a	n/a
265.2455	0.6	COLOR_NAME	7	Neutral	czerwony	red	Neutral	Neutral	hit	n/a
265.819	n/a	RESPONSE	n/a	n/a	n/a	n/a	n/a	n/a	n/a	red
265.8455	1.0167	ITI	n/a	n/a	n/a	n/a	n/a	n/a	n/a	n/a
266.8622	0.5167	FIXCROSS	n/a	n/a	n/a	n/a	n/a	n/a	n/a	n/a
267.3789	0.5833	COLOR_NAME	8	Neutral	niebieski	blue	Neutral	Neutral	hit	n/a
267.9286	n/a	RESPONSE	n/a	n/a	n/a	n/a	n/a	n/a	n/a	blue
267.9622	1.0167	ITI	n/a	n/a	n/a	n/a	n/a	n/a	n/a	n/a
268.9789	0.5167	FIXCROSS	n/a	n/a	n/a	n/a	n/a	n/a	n/a	n/a
269.4956	0.5833	COLOR_NAME	9	Neutral	żółty	yellow	Neutral	Neutral	hit	n/a
270.0541	n/a	RESPONSE	n/a	n/a	n/a	n/a	n/a	n/a	n/a	yellow
270.0789	1.0167	ITI	n/a	n/a	n/a	n/a	n/a	n/a	n/a	n/a
271.0956	0.5167	FIXCROSS	n/a	n/a	n/a	n/a	n/a	n/a	n/a	n/a
271.6123	0.9333	COLOR_NAME	10	Incongruent	żółty	yellow	zielony	green	hit	n/a
272.5153	n/a	RESPONSE	n/a	n/a	n/a	n/a	n/a	n/a	n/a	yellow
272.5456	1.0167	ITI	n/a	n/a	n/a	n/a	n/a	n/a	n/a	n/a
273.5623	0.5167	FIXCROSS	n/a	n/a	n/a	n/a	n/a	n/a	n/a	n/a
274.0789	0.8	COLOR_NAME	11	Neutral	niebieski	blue	Neutral	Neutral	hit	n/a
274.8487	n/a	RESPONSE	n/a	n/a	n/a	n/a	n/a	n/a	n/a	blue
274.8789	1.0167	ITI	n/a	n/a	n/a	n/a	n/a	n/a	n/a	n/a
275.8956	0.5167	FIXCROSS	n/a	n/a	n/a	n/a	n/a	n/a	n/a	n/a
276.4123	0.65	COLOR_NAME	12	Incongruent	czerwony	red	niebieski	blue	hit	n/a
277.0382	n/a	RESPONSE	n/a	n/a	n/a	n/a	n/a	n/a	n/a	red
277.0623	1.0167	ITI	n/a	n/a	n/a	n/a	n/a	n/a	n/a	n/a
278.079	0.5167	FIXCROSS	n/a	n/a	n/a	n/a	n/a	n/a	n/a	n/a
278.5956	0.6833	COLOR_NAME	13	Neutral	zielony	green	Neutral	Neutral	hit	n/a
279.2438	n/a	RESPONSE	n/a	n/a	n/a	n/a	n/a	n/a	n/a	green
279.279	1.0167	ITI	n/a	n/a	n/a	n/a	n/a	n/a	n/a	n/a
280.2956	0.5167	FIXCROSS	n/a	n/a	n/a	n/a	n/a	n/a	n/a	n/a
280.8123	0.7333	COLOR_NAME	14	Neutral	niebieski	blue	Neutral	Neutral	hit	n/a
281.5131	n/a	RESPONSE	n/a	n/a	n/a	n/a	n/a	n/a	n/a	blue
281.5457	1.0167	ITI	n/a	n/a	n/a	n/a	n/a	n/a	n/a	n/a
282.5623	0.5167	FIXCROSS	n/a	n/a	n/a	n/a	n/a	n/a	n/a	n/a
283.079	0.9667	COLOR_NAME	15	Neutral	czerwony	red	Neutral	Neutral	hit	n/a
284.0222	n/a	RESPONSE	n/a	n/a	n/a	n/a	n/a	n/a	n/a	red
284.0457	1.0167	ITI	n/a	n/a	n/a	n/a	n/a	n/a	n/a	n/a
285.0624	0.5167	FIXCROSS	n/a	n/a	n/a	n/a	n/a	n/a	n/a	n/a
285.579	0.6167	COLOR_NAME	16	Incongruent	czerwony	red	zielony	green	hit	n/a
286.1638	n/a	RESPONSE	n/a	n/a	n/a	n/a	n/a	n/a	n/a	red
286.1957	1.0167	ITI	n/a	n/a	n/a	n/a	n/a	n/a	n/a	n/a
287.2124	0.5167	FIXCROSS	n/a	n/a	n/a	n/a	n/a	n/a	n/a	n/a
287.729	0.5333	COLOR_NAME	17	Neutral	żółty	yellow	Neutral	Neutral	hit	n/a
288.2414	n/a	RESPONSE	n/a	n/a	n/a	n/a	n/a	n/a	n/a	yellow
288.2624	1.0167	ITI	n/a	n/a	n/a	n/a	n/a	n/a	n/a	n/a
289.279	0.5167	FIXCROSS	n/a	n/a	n/a	n/a	n/a	n/a	n/a	n/a
289.7957	0.65	COLOR_NAME	18	Incongruent	zielony	green	niebieski	blue	hit	n/a
290.415	n/a	RESPONSE	n/a	n/a	n/a	n/a	n/a	n/a	n/a	green
290.4457	1.0167	ITI	n/a	n/a	n/a	n/a	n/a	n/a	n/a	n/a
291.4624	0.5167	FIXCROSS	n/a	n/a	n/a	n/a	n/a	n/a	n/a	n/a
291.9791	0.65	COLOR_NAME	19	Neutral	zielony	green	Neutral	Neutral	hit	n/a
292.6045	n/a	RESPONSE	n/a	n/a	n/a	n/a	n/a	n/a	n/a	green
292.6291	1.0167	ITI	n/a	n/a	n/a	n/a	n/a	n/a	n/a	n/a
293.6457	0.5167	FIXCROSS	n/a	n/a	n/a	n/a	n/a	n/a	n/a	n/a
294.1624	0.6667	COLOR_NAME	20	Incongruent	niebieski	blue	czerwony	red	hit	n/a
294.8099	n/a	RESPONSE	n/a	n/a	n/a	n/a	n/a	n/a	n/a	blue
294.8291	1.0167	ITI	n/a	n/a	n/a	n/a	n/a	n/a	n/a	n/a
295.8458	0.5167	FIXCROSS	n/a	n/a	n/a	n/a	n/a	n/a	n/a	n/a
296.3624	0.7	COLOR_NAME	21	Neutral	żółty	yellow	Neutral	Neutral	hit	n/a
297.0314	n/a	RESPONSE	n/a	n/a	n/a	n/a	n/a	n/a	n/a	yellow
297.0624	1.0167	ITI	n/a	n/a	n/a	n/a	n/a	n/a	n/a	n/a
298.0791	0.5167	FIXCROSS	n/a	n/a	n/a	n/a	n/a	n/a	n/a	n/a
298.5958	0.5167	COLOR_NAME	22	Incongruent	żółty	yellow	niebieski	blue	hit	n/a
299.0931	n/a	RESPONSE	n/a	n/a	n/a	n/a	n/a	n/a	n/a	yellow
299.1125	1.0167	ITI	n/a	n/a	n/a	n/a	n/a	n/a	n/a	n/a
300.1291	0.5167	FIXCROSS	n/a	n/a	n/a	n/a	n/a	n/a	n/a	n/a
300.6458	1.05	COLOR_NAME	23	Neutral	zielony	green	Neutral	Neutral	hit	n/a
301.6662	n/a	RESPONSE	n/a	n/a	n/a	n/a	n/a	n/a	n/a	green
301.6958	1.0167	ITI	n/a	n/a	n/a	n/a	n/a	n/a	n/a	n/a
302.7125	0.5167	FIXCROSS	n/a	n/a	n/a	n/a	n/a	n/a	n/a	n/a
303.2291	0.8667	COLOR_NAME	24	Neutral	żółty	yellow	Neutral	Neutral	hit	n/a
304.0635	n/a	RESPONSE	n/a	n/a	n/a	n/a	n/a	n/a	n/a	yellow
304.0958	1.0167	ITI	n/a	n/a	n/a	n/a	n/a	n/a	n/a	n/a
305.1125	0.5167	FIXCROSS	n/a	n/a	n/a	n/a	n/a	n/a	n/a	n/a
305.6292	0.6833	COLOR_NAME	25	Incongruent	zielony	green	niebieski	blue	hit	n/a
306.2849	n/a	RESPONSE	n/a	n/a	n/a	n/a	n/a	n/a	n/a	green
306.3125	1.0167	ITI	n/a	n/a	n/a	n/a	n/a	n/a	n/a	n/a
307.3292	0.5167	FIXCROSS	n/a	n/a	n/a	n/a	n/a	n/a	n/a	n/a
307.8458	0.7333	COLOR_NAME	26	Incongruent	zielony	green	niebieski	blue	hit	n/a
308.5544	n/a	RESPONSE	n/a	n/a	n/a	n/a	n/a	n/a	n/a	green
308.5792	1.0167	ITI	n/a	n/a	n/a	n/a	n/a	n/a	n/a	n/a
309.5959	0.5167	FIXCROSS	n/a	n/a	n/a	n/a	n/a	n/a	n/a	n/a
310.1125	0.7	COLOR_NAME	27	Incongruent	żółty	yellow	niebieski	blue	hit	n/a
310.7919	n/a	RESPONSE	n/a	n/a	n/a	n/a	n/a	n/a	n/a	yellow
310.8125	1.0167	ITI	n/a	n/a	n/a	n/a	n/a	n/a	n/a	n/a
311.8292	0.5167	FIXCROSS	n/a	n/a	n/a	n/a	n/a	n/a	n/a	n/a
312.3459	0.7167	COLOR_NAME	28	Neutral	niebieski	blue	Neutral	Neutral	hit	n/a
313.0292	n/a	RESPONSE	n/a	n/a	n/a	n/a	n/a	n/a	n/a	blue
313.0626	1.0167	ITI	n/a	n/a	n/a	n/a	n/a	n/a	n/a	n/a
314.0792	0.5167	FIXCROSS	n/a	n/a	n/a	n/a	n/a	n/a	n/a	n/a
314.5959	0.45	COLOR_NAME	29	Incongruent	niebieski	blue	żółty	yellow	hit	n/a
315.0271	n/a	RESPONSE	n/a	n/a	n/a	n/a	n/a	n/a	n/a	blue
315.0459	1.0167	ITI	n/a	n/a	n/a	n/a	n/a	n/a	n/a	n/a
316.0626	0.5167	FIXCROSS	n/a	n/a	n/a	n/a	n/a	n/a	n/a	n/a
316.5792	0.7333	COLOR_NAME	30	Neutral	zielony	green	Neutral	Neutral	hit	n/a
317.2804	n/a	RESPONSE	n/a	n/a	n/a	n/a	n/a	n/a	n/a	green
317.3126	1.0167	ITI	n/a	n/a	n/a	n/a	n/a	n/a	n/a	n/a
318.3292	0.5167	FIXCROSS	n/a	n/a	n/a	n/a	n/a	n/a	n/a	n/a
318.8459	0.6	COLOR_NAME	31	Incongruent	żółty	yellow	zielony	green	hit	n/a
319.4219	n/a	RESPONSE	n/a	n/a	n/a	n/a	n/a	n/a	n/a	yellow
319.4459	1.0167	ITI	n/a	n/a	n/a	n/a	n/a	n/a	n/a	n/a
320.4626	0.5167	FIXCROSS	n/a	n/a	n/a	n/a	n/a	n/a	n/a	n/a
320.9793	0.5833	COLOR_NAME	32	Neutral	żółty	yellow	Neutral	Neutral	hit	n/a
321.5315	n/a	RESPONSE	n/a	n/a	n/a	n/a	n/a	n/a	n/a	yellow
321.5626	1.0167	ITI	n/a	n/a	n/a	n/a	n/a	n/a	n/a	n/a
322.5793	0.5167	FIXCROSS	n/a	n/a	n/a	n/a	n/a	n/a	n/a	n/a
323.096	0.4667	COLOR_NAME	33	Incongruent	żółty	yellow	czerwony	red	hit	n/a
323.5454	n/a	RESPONSE	n/a	n/a	n/a	n/a	n/a	n/a	n/a	yellow
323.5626	1.0167	ITI	n/a	n/a	n/a	n/a	n/a	n/a	n/a	n/a
324.5793	0.5167	FIXCROSS	n/a	n/a	n/a	n/a	n/a	n/a	n/a	n/a
325.096	0.6167	COLOR_NAME	34	Neutral	czerwony	red	Neutral	Neutral	hit	n/a
325.6868	n/a	RESPONSE	n/a	n/a	n/a	n/a	n/a	n/a	n/a	red
325.7126	1.0167	ITI	n/a	n/a	n/a	n/a	n/a	n/a	n/a	n/a
326.7293	0.5167	FIXCROSS	n/a	n/a	n/a	n/a	n/a	n/a	n/a	n/a
327.246	0.5833	COLOR_NAME	35	Incongruent	niebieski	blue	żółty	yellow	hit	n/a
327.7964	n/a	RESPONSE	n/a	n/a	n/a	n/a	n/a	n/a	n/a	blue
327.8293	1.0167	ITI	n/a	n/a	n/a	n/a	n/a	n/a	n/a	n/a
328.846	0.5167	FIXCROSS	n/a	n/a	n/a	n/a	n/a	n/a	n/a	n/a
329.3627	0.9833	COLOR_NAME	36	Incongruent	czerwony	red	żółty	yellow	hit	n/a
330.3215	n/a	RESPONSE	n/a	n/a	n/a	n/a	n/a	n/a	n/a	red
330.346	1.0167	ITI	n/a	n/a	n/a	n/a	n/a	n/a	n/a	n/a
331.3627	0.5167	FIXCROSS	n/a	n/a	n/a	n/a	n/a	n/a	n/a	n/a
331.8793	0.9833	COLOR_NAME	37	Neutral	zielony	green	Neutral	Neutral	hit	n/a
332.8307	n/a	RESPONSE	n/a	n/a	n/a	n/a	n/a	n/a	n/a	green
332.8627	1.0167	ITI	n/a	n/a	n/a	n/a	n/a	n/a	n/a	n/a
333.8794	0.5167	FIXCROSS	n/a	n/a	n/a	n/a	n/a	n/a	n/a	n/a
334.396	0.7167	COLOR_NAME	38	Incongruent	niebieski	blue	zielony	green	hit	n/a
335.0841	n/a	RESPONSE	n/a	n/a	n/a	n/a	n/a	n/a	n/a	blue
335.1127	1.0167	ITI	n/a	n/a	n/a	n/a	n/a	n/a	n/a	n/a
336.1294	0.5167	FIXCROSS	n/a	n/a	n/a	n/a	n/a	n/a	n/a	n/a
336.646	0.6167	COLOR_NAME	39	Incongruent	żółty	yellow	niebieski	blue	hit	n/a
337.2416	n/a	RESPONSE	n/a	n/a	n/a	n/a	n/a	n/a	n/a	yellow
337.2627	1.0167	ITI	n/a	n/a	n/a	n/a	n/a	n/a	n/a	n/a
338.2794	0.5167	FIXCROSS	n/a	n/a	n/a	n/a	n/a	n/a	n/a	n/a
338.7961	0.75	COLOR_NAME	40	Neutral	niebieski	blue	Neutral	Neutral	hit	n/a
339.5269	n/a	RESPONSE	n/a	n/a	n/a	n/a	n/a	n/a	n/a	blue
339.5461	1.0167	ITI	n/a	n/a	n/a	n/a	n/a	n/a	n/a	n/a
340.5627	0.5167	FIXCROSS	n/a	n/a	n/a	n/a	n/a	n/a	n/a	n/a
341.0794	0.6667	COLOR_NAME	41	Incongruent	czerwony	red	zielony	green	hit	n/a
341.7164	n/a	RESPONSE	n/a	n/a	n/a	n/a	n/a	n/a	n/a	red
341.7461	1.0167	ITI	n/a	n/a	n/a	n/a	n/a	n/a	n/a	n/a
342.7628	0.5167	FIXCROSS	n/a	n/a	n/a	n/a	n/a	n/a	n/a	n/a
343.2794	0.75	COLOR_NAME	42	Incongruent	niebieski	blue	czerwony	red	hit	n/a
344.0017	n/a	RESPONSE	n/a	n/a	n/a	n/a	n/a	n/a	n/a	blue
344.0294	1.0167	ITI	n/a	n/a	n/a	n/a	n/a	n/a	n/a	n/a
345.0461	0.5167	FIXCROSS	n/a	n/a	n/a	n/a	n/a	n/a	n/a	n/a
345.5628	0.75	COLOR_NAME	43	Incongruent	zielony	green	żółty	yellow	hit	n/a
346.2871	n/a	RESPONSE	n/a	n/a	n/a	n/a	n/a	n/a	n/a	green
346.3128	1.0167	ITI	n/a	n/a	n/a	n/a	n/a	n/a	n/a	n/a
347.3295	0.5167	FIXCROSS	n/a	n/a	n/a	n/a	n/a	n/a	n/a	n/a
347.8461	0.8	COLOR_NAME	44	Neutral	zielony	green	Neutral	Neutral	hit	n/a
348.6204	n/a	RESPONSE	n/a	n/a	n/a	n/a	n/a	n/a	n/a	green
348.6461	1.0167	ITI	n/a	n/a	n/a	n/a	n/a	n/a	n/a	n/a
349.6628	0.5167	FIXCROSS	n/a	n/a	n/a	n/a	n/a	n/a	n/a	n/a
350.1795	0.5833	COLOR_NAME	45	Neutral	żółty	yellow	Neutral	Neutral	hit	n/a
350.73	n/a	RESPONSE	n/a	n/a	n/a	n/a	n/a	n/a	n/a	yellow
350.7628	1.0167	ITI	n/a	n/a	n/a	n/a	n/a	n/a	n/a	n/a
351.7795	0.5167	FIXCROSS	n/a	n/a	n/a	n/a	n/a	n/a	n/a	n/a
352.2962	0.6833	COLOR_NAME	46	Incongruent	niebieski	blue	żółty	yellow	hit	n/a
352.9513	n/a	RESPONSE	n/a	n/a	n/a	n/a	n/a	n/a	n/a	blue
352.9795	1.0167	ITI	n/a	n/a	n/a	n/a	n/a	n/a	n/a	n/a
353.9962	0.5167	FIXCROSS	n/a	n/a	n/a	n/a	n/a	n/a	n/a	n/a
354.5128	0.7	COLOR_NAME	47	Incongruent	czerwony	red	niebieski	blue	hit	n/a
355.1888	n/a	RESPONSE	n/a	n/a	n/a	n/a	n/a	n/a	n/a	red
355.2128	1.0167	ITI	n/a	n/a	n/a	n/a	n/a	n/a	n/a	n/a
356.2295	0.5167	FIXCROSS	n/a	n/a	n/a	n/a	n/a	n/a	n/a	n/a
356.7462	0.4667	COLOR_NAME	48	Incongruent	czerwony	red	żółty	yellow	hit	n/a
357.1865	n/a	RESPONSE	n/a	n/a	n/a	n/a	n/a	n/a	n/a	red
357.2129	1.0167	ITI	n/a	n/a	n/a	n/a	n/a	n/a	n/a	n/a
358.2295	0.5167	FIXCROSS	n/a	n/a	n/a	n/a	n/a	n/a	n/a	n/a
358.7462	0.8	COLOR_NAME	49	Incongruent	zielony	green	czerwony	red	hit	n/a
359.5198	n/a	RESPONSE	n/a	n/a	n/a	n/a	n/a	n/a	n/a	green
359.5462	1.0167	ITI	n/a	n/a	n/a	n/a	n/a	n/a	n/a	n/a
360.5629	0.5167	FIXCROSS	n/a	n/a	n/a	n/a	n/a	n/a	n/a	n/a
361.0795	0.5833	COLOR_NAME	50	Incongruent	niebieski	blue	zielony	green	hit	n/a
361.6454	n/a	RESPONSE	n/a	n/a	n/a	n/a	n/a	n/a	n/a	blue
361.6629	1.0167	ITI	n/a	n/a	n/a	n/a	n/a	n/a	n/a	n/a
362.6796	0.5167	FIXCROSS	n/a	n/a	n/a	n/a	n/a	n/a	n/a	n/a
363.1962	0.4	COLOR_NAME	51	Neutral	niebieski	blue	Neutral	Neutral	hit	n/a
363.5791	n/a	RESPONSE	n/a	n/a	n/a	n/a	n/a	n/a	n/a	blue
363.5962	1.0167	ITI	n/a	n/a	n/a	n/a	n/a	n/a	n/a	n/a
364.6129	0.5167	FIXCROSS	n/a	n/a	n/a	n/a	n/a	n/a	n/a	n/a
365.1296	0.7667	COLOR_NAME	52	Neutral	zielony	green	Neutral	Neutral	hit	n/a
365.8645	n/a	RESPONSE	n/a	n/a	n/a	n/a	n/a	n/a	n/a	green
365.8963	1.0167	ITI	n/a	n/a	n/a	n/a	n/a	n/a	n/a	n/a
366.9129	0.5167	FIXCROSS	n/a	n/a	n/a	n/a	n/a	n/a	n/a	n/a
367.4296	1.1	COLOR_NAME	53	Neutral	czerwony	red	Neutral	Neutral	hit	n/a
368.5014	n/a	RESPONSE	n/a	n/a	n/a	n/a	n/a	n/a	n/a	red
368.5296	1.0167	ITI	n/a	n/a	n/a	n/a	n/a	n/a	n/a	n/a
369.5463	0.5167	FIXCROSS	n/a	n/a	n/a	n/a	n/a	n/a	n/a	n/a
370.063	0.65	COLOR_NAME	54	Incongruent	zielony	green	żółty	yellow	hit	n/a
370.6909	n/a	RESPONSE	n/a	n/a	n/a	n/a	n/a	n/a	n/a	green
370.713	1.0167	ITI	n/a	n/a	n/a	n/a	n/a	n/a	n/a	n/a
371.7296	0.5167	FIXCROSS	n/a	n/a	n/a	n/a	n/a	n/a	n/a	n/a
372.2463	0.6	COLOR_NAME	55	Neutral	niebieski	blue	Neutral	Neutral	hit	n/a
372.8164	n/a	RESPONSE	n/a	n/a	n/a	n/a	n/a	n/a	n/a	blue
372.8463	1.0167	ITI	n/a	n/a	n/a	n/a	n/a	n/a	n/a	n/a
373.863	0.5167	FIXCROSS	n/a	n/a	n/a	n/a	n/a	n/a	n/a	n/a
374.3796	0.7834	COLOR_NAME	56	Incongruent	czerwony	red	żółty	yellow	hit	n/a
375.1308	n/a	RESPONSE	n/a	n/a	n/a	n/a	n/a	n/a	n/a	red
375.163	1.0167	ITI	n/a	n/a	n/a	n/a	n/a	n/a	n/a	n/a
376.1797	0.5167	FIXCROSS	n/a	n/a	n/a	n/a	n/a	n/a	n/a	n/a
376.6963	0.4667	COLOR_NAME	57	Neutral	czerwony	red	Neutral	Neutral	hit	n/a
377.1315	n/a	RESPONSE	n/a	n/a	n/a	n/a	n/a	n/a	n/a	red
377.163	1.0167	ITI	n/a	n/a	n/a	n/a	n/a	n/a	n/a	n/a
378.1797	0.5167	FIXCROSS	n/a	n/a	n/a	n/a	n/a	n/a	n/a	n/a
378.6963	1.5333	COLOR_NAME	58	Incongruent	żółty	yellow	zielony	green	hit	n/a
380.1999	n/a	RESPONSE	n/a	n/a	n/a	n/a	n/a	n/a	n/a	yellow
380.2297	1.0167	ITI	n/a	n/a	n/a	n/a	n/a	n/a	n/a	n/a
381.2464	0.5167	FIXCROSS	n/a	n/a	n/a	n/a	n/a	n/a	n/a	n/a
381.763	0.7167	COLOR_NAME	59	Incongruent	zielony	green	czerwony	red	hit	n/a
382.4533	n/a	RESPONSE	n/a	n/a	n/a	n/a	n/a	n/a	n/a	green
382.4797	1.0167	ITI	n/a	n/a	n/a	n/a	n/a	n/a	n/a	n/a
383.4964	0.5167	FIXCROSS	n/a	n/a	n/a	n/a	n/a	n/a	n/a	n/a
384.0131	0.55	COLOR_NAME	60	Neutral	niebieski	blue	Neutral	Neutral	hit	n/a
384.5309	n/a	RESPONSE	n/a	n/a	n/a	n/a	n/a	n/a	n/a	blue
384.563	1.0167	ITI	n/a	n/a	n/a	n/a	n/a	n/a	n/a	n/a
385.5797	0.5167	FIXCROSS	n/a	n/a	n/a	n/a	n/a	n/a	n/a	n/a
386.0964	0.8333	COLOR_NAME	61	Neutral	żółty	yellow	Neutral	Neutral	hit	n/a
386.9121	n/a	RESPONSE	n/a	n/a	n/a	n/a	n/a	n/a	n/a	yellow
386.9297	1.0167	ITI	n/a	n/a	n/a	n/a	n/a	n/a	n/a	n/a
387.9464	0.5167	FIXCROSS	n/a	n/a	n/a	n/a	n/a	n/a	n/a	n/a
388.4631	0.5	COLOR_NAME	62	Incongruent	żółty	yellow	czerwony	red	hit	n/a
388.9417	n/a	RESPONSE	n/a	n/a	n/a	n/a	n/a	n/a	n/a	yellow
388.9631	1.0167	ITI	n/a	n/a	n/a	n/a	n/a	n/a	n/a	n/a
389.9798	0.5167	FIXCROSS	n/a	n/a	n/a	n/a	n/a	n/a	n/a	n/a
390.4964	0.75	COLOR_NAME	63	Incongruent	czerwony	red	niebieski	blue	hit	n/a
391.227	n/a	RESPONSE	n/a	n/a	n/a	n/a	n/a	n/a	n/a	red
391.2464	1.0167	ITI	n/a	n/a	n/a	n/a	n/a	n/a	n/a	n/a
392.2631	0.5167	FIXCROSS	n/a	n/a	n/a	n/a	n/a	n/a	n/a	n/a
392.7798	0.75	COLOR_NAME	64	Incongruent	niebieski	blue	czerwony	red	hit	n/a
393.4965	n/a	RESPONSE	n/a	n/a	n/a	n/a	n/a	n/a	n/a	blue
393.5298	1.0167	ITI	n/a	n/a	n/a	n/a	n/a	n/a	n/a	n/a
394.5465	0.5167	FIXCROSS	n/a	n/a	n/a	n/a	n/a	n/a	n/a	n/a
395.0631	0.6833	COLOR_NAME	65	Neutral	zielony	green	Neutral	Neutral	hit	n/a
395.7179	n/a	RESPONSE	n/a	n/a	n/a	n/a	n/a	n/a	n/a	green
395.7465	1.0167	ITI	n/a	n/a	n/a	n/a	n/a	n/a	n/a	n/a
396.7631	0.5167	FIXCROSS	n/a	n/a	n/a	n/a	n/a	n/a	n/a	n/a
397.2798	0.5667	COLOR_NAME	66	Neutral	czerwony	red	Neutral	Neutral	hit	n/a
397.8275	n/a	RESPONSE	n/a	n/a	n/a	n/a	n/a	n/a	n/a	red
397.8465	1.0167	ITI	n/a	n/a	n/a	n/a	n/a	n/a	n/a	n/a
398.8632	0.5167	FIXCROSS	n/a	n/a	n/a	n/a	n/a	n/a	n/a	n/a
399.3798	0.45	COLOR_NAME	67	Neutral	czerwony	red	Neutral	Neutral	hit	n/a
399.8091	n/a	RESPONSE	n/a	n/a	n/a	n/a	n/a	n/a	n/a	red
399.8298	1.0167	ITI	n/a	n/a	n/a	n/a	n/a	n/a	n/a	n/a
400.8465	0.5167	FIXCROSS	n/a	n/a	n/a	n/a	n/a	n/a	n/a	n/a
401.3632	0.65	COLOR_NAME	68	Neutral	zielony	green	Neutral	Neutral	hit	n/a
401.9827	n/a	RESPONSE	n/a	n/a	n/a	n/a	n/a	n/a	n/a	green
402.0132	1.0167	ITI	n/a	n/a	n/a	n/a	n/a	n/a	n/a	n/a
403.0299	0.5167	FIXCROSS	n/a	n/a	n/a	n/a	n/a	n/a	n/a	n/a
403.5465	0.5	COLOR_NAME	69	Neutral	czerwony	red	Neutral	Neutral	hit	n/a
404.0283	n/a	RESPONSE	n/a	n/a	n/a	n/a	n/a	n/a	n/a	red
404.0465	1.0167	ITI	n/a	n/a	n/a	n/a	n/a	n/a	n/a	n/a
405.0632	0.5167	FIXCROSS	n/a	n/a	n/a	n/a	n/a	n/a	n/a	n/a
405.5799	1.15	COLOR_NAME	70	Neutral	niebieski	blue	Neutral	Neutral	hit	n/a
406.6971	n/a	RESPONSE	n/a	n/a	n/a	n/a	n/a	n/a	n/a	blue
406.7299	1.0167	ITI	n/a	n/a	n/a	n/a	n/a	n/a	n/a	n/a
407.7466	0.5167	FIXCROSS	n/a	n/a	n/a	n/a	n/a	n/a	n/a	n/a
408.2632	0.7667	COLOR_NAME	71	Neutral	żółty	yellow	Neutral	Neutral	hit	n/a
408.9985	n/a	RESPONSE	n/a	n/a	n/a	n/a	n/a	n/a	n/a	yellow
409.0299	1.0167	ITI	n/a	n/a	n/a	n/a	n/a	n/a	n/a	n/a
410.0466	0.5167	FIXCROSS	n/a	n/a	n/a	n/a	n/a	n/a	n/a	n/a
410.5632	0.7833	COLOR_NAME	72	Incongruent	czerwony	red	zielony	green	hit	n/a
411.3158	n/a	RESPONSE	n/a	n/a	n/a	n/a	n/a	n/a	n/a	red
411.3466	1.0333	ITI	n/a	n/a	n/a	n/a	n/a	n/a	n/a	n/a
415.0554	n/a	RESPONSE	n/a	n/a	n/a	n/a	n/a	n/a	n/a	n/a
