onset	duration	trial_type	n_back_condition	trial_number	stimulus	response_type
0.0	n/a	RESPONSE	n/a	n/a	n/a	n/a
0.0285	1.0	ISI	n/a	n/a	n/a	n/a
1.0285	0.5	DISTRACTOR	1	1	I	Correct Rejection
1.5285	1.0	ISI	n/a	n/a	n/a	n/a
2.5285	0.5	DISTRACTOR	1	2	H	Correct Rejection
3.0285	1.0	ISI	n/a	n/a	n/a	n/a
4.0285	0.5	DISTRACTOR	1	3	E	Correct Rejection
4.5285	1.0	ISI	n/a	n/a	n/a	n/a
5.5285	0.5	TARGET	1	4	E	Hit
5.9701	n/a	RESPONSE	n/a	n/a	n/a	n/a
6.0285	1.0	ISI	n/a	n/a	n/a	n/a
7.0285	0.5	DISTRACTOR	1	5	G	Correct Rejection
7.5285	3.0001	ISI	n/a	n/a	n/a	n/a
10.5286	2.8667	DISTRACTOR	1	6	J	Correct Rejection
13.3953	2.1334	ISI	n/a	n/a	n/a	n/a
15.5286	0.5	DISTRACTOR	1	7	D	Correct Rejection
16.0286	1.0	ISI	n/a	n/a	n/a	n/a
17.0286	0.5	TARGET	1	8	D	Hit
17.4958	n/a	RESPONSE	n/a	n/a	n/a	n/a
17.5286	1.0	ISI	n/a	n/a	n/a	n/a
18.5287	0.5	DISTRACTOR	1	9	B	Correct Rejection
19.0287	1.0	ISI	n/a	n/a	n/a	n/a
20.0287	0.5	DISTRACTOR	1	10	H	Correct Rejection
20.5286	1.0	ISI	n/a	n/a	n/a	n/a
21.5287	0.5	DISTRACTOR	1	11	I	Correct Rejection
22.0287	2.0834	ISI	n/a	n/a	n/a	n/a
24.112	0.5	TARGET	1	12	I	Hit
24.5833	n/a	RESPONSE	n/a	n/a	n/a	n/a
24.612	1.0	ISI	n/a	n/a	n/a	n/a
25.612	0.5	DISTRACTOR	1	13	E	Correct Rejection
26.112	1.0	ISI	n/a	n/a	n/a	n/a
27.112	0.5	DISTRACTOR	1	14	H	Correct Rejection
27.6121	1.0	ISI	n/a	n/a	n/a	n/a
28.612	0.5	TARGET	1	15	H	Hit
29.1121	1.0167	ISI	n/a	n/a	n/a	n/a
29.1647	n/a	RESPONSE	n/a	n/a	n/a	n/a
30.1287	0.5167	DISTRACTOR	1	16	D	Correct Rejection
30.6454	1.0167	ISI	n/a	n/a	n/a	n/a
31.6621	0.5166	DISTRACTOR	1	17	C	Correct Rejection
32.1787	1.0167	ISI	n/a	n/a	n/a	n/a
33.1954	0.5167	DISTRACTOR	1	18	F	Correct Rejection
33.7121	1.0167	ISI	n/a	n/a	n/a	n/a
34.7288	0.5167	DISTRACTOR	1	19	C	Correct Rejection
35.2455	1.0167	ISI	n/a	n/a	n/a	n/a
36.2621	0.5166	DISTRACTOR	1	20	B	Correct Rejection
36.7788	1.0167	ISI	n/a	n/a	n/a	n/a
37.7954	0.5167	DISTRACTOR	1	21	F	Correct Rejection
38.3122	1.0167	ISI	n/a	n/a	n/a	n/a
39.3288	0.5166	TARGET	1	22	F	Hit
39.8455	1.0167	ISI	n/a	n/a	n/a	n/a
39.8756	n/a	RESPONSE	n/a	n/a	n/a	n/a
40.8621	0.5167	DISTRACTOR	1	23	D	Correct Rejection
41.3788	1.0167	ISI	n/a	n/a	n/a	n/a
42.3955	0.5166	DISTRACTOR	1	24	I	Correct Rejection
42.9122	1.0167	ISI	n/a	n/a	n/a	n/a
43.9289	0.5167	DISTRACTOR	1	25	J	Correct Rejection
44.4455	1.0166	ISI	n/a	n/a	n/a	n/a
45.4622	0.5167	TARGET	1	26	J	Hit
45.9735	n/a	RESPONSE	n/a	n/a	n/a	n/a
45.9789	1.0167	ISI	n/a	n/a	n/a	n/a
46.9956	0.5166	DISTRACTOR	1	27	D	Correct Rejection
47.5122	1.0167	ISI	n/a	n/a	n/a	n/a
48.5289	0.5167	DISTRACTOR	1	28	G	Correct Rejection
49.0455	1.0167	ISI	n/a	n/a	n/a	n/a
50.0622	0.5167	DISTRACTOR	1	29	I	Correct Rejection
50.5789	1.0167	ISI	n/a	n/a	n/a	n/a
51.5956	0.5167	DISTRACTOR	1	30	C	Correct Rejection
52.1123	1.0167	ISI	n/a	n/a	n/a	n/a
53.1289	0.5167	DISTRACTOR	1	31	G	Correct Rejection
53.6456	1.0166	ISI	n/a	n/a	n/a	n/a
54.6623	0.5167	DISTRACTOR	1	32	B	Correct Rejection
55.179	1.0167	ISI	n/a	n/a	n/a	n/a
56.1956	0.5167	DISTRACTOR	1	33	F	Correct Rejection
56.7123	1.0167	ISI	n/a	n/a	n/a	n/a
57.729	0.5167	TARGET	1	34	F	Hit
58.2456	1.0167	ISI	n/a	n/a	n/a	n/a
58.2488	n/a	RESPONSE	n/a	n/a	n/a	n/a
59.2623	0.5167	DISTRACTOR	1	35	C	Correct Rejection
59.779	1.0167	ISI	n/a	n/a	n/a	n/a
60.7957	0.5167	DISTRACTOR	1	36	I	Correct Rejection
61.3123	1.0167	ISI	n/a	n/a	n/a	n/a
62.329	0.5167	DISTRACTOR	1	37	D	Correct Rejection
62.8457	1.0166	ISI	n/a	n/a	n/a	n/a
63.8623	0.5167	DISTRACTOR	1	38	A	Correct Rejection
64.379	1.0167	ISI	n/a	n/a	n/a	n/a
65.3957	0.5167	DISTRACTOR	1	39	D	Correct Rejection
65.9124	1.0167	ISI	n/a	n/a	n/a	n/a
66.9291	0.5167	DISTRACTOR	1	40	H	Correct Rejection
67.4457	1.0167	ISI	n/a	n/a	n/a	n/a
68.4624	0.5166	DISTRACTOR	1	41	J	Correct Rejection
68.979	1.0167	ISI	n/a	n/a	n/a	n/a
69.9958	0.5166	TARGET	1	42	J	Hit
70.4762	n/a	RESPONSE	n/a	n/a	n/a	n/a
70.5124	1.0167	ISI	n/a	n/a	n/a	n/a
71.5291	0.5167	DISTRACTOR	1	43	I	Correct Rejection
72.0458	1.0167	ISI	n/a	n/a	n/a	n/a
73.0624	0.5166	TARGET	1	44	I	Hit
73.4613	n/a	RESPONSE	n/a	n/a	n/a	n/a
73.5791	1.0167	ISI	n/a	n/a	n/a	n/a
74.5958	0.5167	DISTRACTOR	1	45	D	Correct Rejection
75.1125	1.0166	ISI	n/a	n/a	n/a	n/a
76.1291	0.5167	DISTRACTOR	1	46	J	Correct Rejection
76.6458	1.0167	ISI	n/a	n/a	n/a	n/a
77.6625	0.5167	DISTRACTOR	1	47	E	Correct Rejection
78.1792	1.0166	ISI	n/a	n/a	n/a	n/a
79.1958	0.5167	TARGET	1	48	E	Hit
79.6069	n/a	RESPONSE	n/a	n/a	n/a	n/a
79.7125	1.0167	ISI	n/a	n/a	n/a	n/a
80.7292	0.5167	DISTRACTOR	1	49	F	Correct Rejection
81.2458	1.0167	ISI	n/a	n/a	n/a	n/a
82.2625	0.5167	DISTRACTOR	1	50	G	Correct Rejection
82.7792	1.1167	ISI	n/a	n/a	n/a	n/a
99.7199	n/a	RESPONSE	n/a	n/a	n/a	n/a
99.7793	1.0167	ISI	n/a	n/a	n/a	n/a
100.796	0.5167	DISTRACTOR	2	1	G	Correct Rejection
101.3127	1.0167	ISI	n/a	n/a	n/a	n/a
102.3294	0.5167	DISTRACTOR	2	2	D	Correct Rejection
102.846	1.0166	ISI	n/a	n/a	n/a	n/a
103.8627	0.5167	DISTRACTOR	2	3	H	Correct Rejection
104.3793	1.0167	ISI	n/a	n/a	n/a	n/a
105.396	0.5167	DISTRACTOR	2	4	H	Correct Rejection
105.9127	1.0167	ISI	n/a	n/a	n/a	n/a
106.9294	0.5167	DISTRACTOR	2	5	D	Correct Rejection
107.4461	1.0167	ISI	n/a	n/a	n/a	n/a
108.4627	0.5166	DISTRACTOR	2	6	J	Correct Rejection
108.9794	1.0167	ISI	n/a	n/a	n/a	n/a
109.9961	0.5167	DISTRACTOR	2	7	I	Correct Rejection
110.5128	1.0167	ISI	n/a	n/a	n/a	n/a
111.5294	0.5166	DISTRACTOR	2	8	A	Correct Rejection
112.0461	1.0167	ISI	n/a	n/a	n/a	n/a
113.0628	0.5166	TARGET	2	9	I	Hit
113.5794	1.0167	ISI	n/a	n/a	n/a	n/a
113.799	n/a	RESPONSE	n/a	n/a	n/a	n/a
114.5961	0.5167	DISTRACTOR	2	10	C	Correct Rejection
115.1128	1.0167	ISI	n/a	n/a	n/a	n/a
116.1295	0.5166	TARGET	2	11	I	Miss
116.6461	1.0167	ISI	n/a	n/a	n/a	n/a
117.6628	0.5167	DISTRACTOR	2	12	D	Correct Rejection
118.1795	1.0166	ISI	n/a	n/a	n/a	n/a
119.1961	0.5167	TARGET	2	13	I	Miss
119.7128	1.0167	ISI	n/a	n/a	n/a	n/a
120.7295	0.5167	DISTRACTOR	2	14	B	Correct Rejection
121.2462	1.0166	ISI	n/a	n/a	n/a	n/a
122.2628	0.5167	DISTRACTOR	2	15	H	Correct Rejection
122.7795	1.0167	ISI	n/a	n/a	n/a	n/a
123.7962	0.5167	DISTRACTOR	2	16	J	Correct Rejection
124.3129	1.0167	ISI	n/a	n/a	n/a	n/a
125.3295	0.5166	DISTRACTOR	2	17	D	Correct Rejection
125.8462	1.0167	ISI	n/a	n/a	n/a	n/a
126.8629	0.5167	TARGET	2	18	J	Hit
127.1917	n/a	RESPONSE	n/a	n/a	n/a	n/a
127.3796	1.0167	ISI	n/a	n/a	n/a	n/a
128.3962	0.5167	TARGET	2	19	D	Hit
128.9129	1.0167	ISI	n/a	n/a	n/a	n/a
128.9957	n/a	RESPONSE	n/a	n/a	n/a	n/a
129.9296	0.5167	TARGET	2	20	J	Hit
130.4462	1.0166	ISI	n/a	n/a	n/a	n/a
130.56	n/a	RESPONSE	n/a	n/a	n/a	n/a
131.4629	0.5167	DISTRACTOR	2	21	A	Correct Rejection
131.9796	1.0167	ISI	n/a	n/a	n/a	n/a
132.9963	0.5167	DISTRACTOR	2	22	D	Correct Rejection
133.5129	1.0167	ISI	n/a	n/a	n/a	n/a
134.5296	0.5167	DISTRACTOR	2	23	D	Correct Rejection
135.0463	1.0167	ISI	n/a	n/a	n/a	n/a
136.063	0.5167	DISTRACTOR	2	24	F	Correct Rejection
136.5796	1.0166	ISI	n/a	n/a	n/a	n/a
137.5963	0.5167	DISTRACTOR	2	25	J	Correct Rejection
138.113	1.0167	ISI	n/a	n/a	n/a	n/a
139.1297	0.5167	DISTRACTOR	2	26	E	Correct Rejection
139.6463	1.0166	ISI	n/a	n/a	n/a	n/a
140.663	0.5167	DISTRACTOR	2	27	H	Correct Rejection
141.1797	1.0167	ISI	n/a	n/a	n/a	n/a
142.1963	0.5166	TARGET	2	28	E	Hit
142.713	1.0167	ISI	n/a	n/a	n/a	n/a
142.8672	n/a	RESPONSE	n/a	n/a	n/a	n/a
143.7297	0.5167	DISTRACTOR	2	29	J	Correct Rejection
144.2464	1.0167	ISI	n/a	n/a	n/a	n/a
145.263	0.5167	DISTRACTOR	2	30	C	Correct Rejection
145.7797	1.0167	ISI	n/a	n/a	n/a	n/a
146.7964	0.5167	DISTRACTOR	2	31	G	Correct Rejection
147.3131	1.0167	ISI	n/a	n/a	n/a	n/a
148.3297	0.5167	DISTRACTOR	2	32	J	Correct Rejection
148.8464	1.0167	ISI	n/a	n/a	n/a	n/a
149.8631	0.5167	DISTRACTOR	2	33	J	False Alarm
150.3797	1.0167	ISI	n/a	n/a	n/a	n/a
150.4815	n/a	RESPONSE	n/a	n/a	n/a	n/a
151.3964	0.5167	DISTRACTOR	2	34	G	Correct Rejection
151.9131	1.0167	ISI	n/a	n/a	n/a	n/a
152.9297	0.5167	DISTRACTOR	2	35	H	Correct Rejection
153.4464	1.0167	ISI	n/a	n/a	n/a	n/a
154.4631	0.5166	DISTRACTOR	2	36	F	Correct Rejection
154.9798	1.0167	ISI	n/a	n/a	n/a	n/a
155.9965	0.5166	DISTRACTOR	2	37	E	Correct Rejection
156.5131	1.0167	ISI	n/a	n/a	n/a	n/a
157.5298	0.5167	DISTRACTOR	2	38	B	Correct Rejection
158.0465	1.0167	ISI	n/a	n/a	n/a	n/a
159.0632	0.5167	TARGET	2	39	E	Hit
159.4206	n/a	RESPONSE	n/a	n/a	n/a	n/a
159.5798	1.0167	ISI	n/a	n/a	n/a	n/a
160.5965	0.5167	DISTRACTOR	2	40	E	False Alarm
161.1127	n/a	RESPONSE	n/a	n/a	n/a	n/a
161.1132	1.0166	ISI	n/a	n/a	n/a	n/a
162.1298	0.5167	DISTRACTOR	2	41	H	Correct Rejection
162.6465	1.0167	ISI	n/a	n/a	n/a	n/a
163.6632	0.5167	DISTRACTOR	2	42	J	Correct Rejection
164.1799	1.0167	ISI	n/a	n/a	n/a	n/a
165.1965	0.5167	DISTRACTOR	2	43	F	Correct Rejection
165.7132	1.0167	ISI	n/a	n/a	n/a	n/a
166.7299	0.5167	DISTRACTOR	2	44	B	Correct Rejection
167.2465	1.0167	ISI	n/a	n/a	n/a	n/a
168.2632	0.5166	DISTRACTOR	2	45	J	Correct Rejection
168.7798	1.0167	ISI	n/a	n/a	n/a	n/a
169.7966	0.5167	DISTRACTOR	2	46	I	Correct Rejection
170.3132	1.0166	ISI	n/a	n/a	n/a	n/a
171.3299	0.5167	TARGET	2	47	J	Hit
171.7281	n/a	RESPONSE	n/a	n/a	n/a	n/a
171.8466	1.0167	ISI	n/a	n/a	n/a	n/a
172.8633	0.5166	DISTRACTOR	2	48	H	Correct Rejection
173.3799	1.0167	ISI	n/a	n/a	n/a	n/a
174.3966	0.5167	TARGET	2	49	J	Hit
174.7769	n/a	RESPONSE	n/a	n/a	n/a	n/a
174.9133	1.0167	ISI	n/a	n/a	n/a	n/a
175.93	0.5166	DISTRACTOR	2	50	E	Correct Rejection
176.4466	1.1001	ISI	n/a	n/a	n/a	n/a
202.4084	n/a	RESPONSE	n/a	n/a	n/a	n/a
202.4802	1.0167	ISI	n/a	n/a	n/a	n/a
203.4969	0.5167	DISTRACTOR	3	1	E	Correct Rejection
204.0135	1.0167	ISI	n/a	n/a	n/a	n/a
205.0302	0.5167	DISTRACTOR	3	2	D	Correct Rejection
205.5469	1.0167	ISI	n/a	n/a	n/a	n/a
206.5635	0.5167	DISTRACTOR	3	3	I	Correct Rejection
207.0802	1.0167	ISI	n/a	n/a	n/a	n/a
208.0969	0.5167	DISTRACTOR	3	4	H	Correct Rejection
208.6136	1.0167	ISI	n/a	n/a	n/a	n/a
209.6302	0.5167	TARGET	3	5	D	Hit
210.1469	1.0167	ISI	n/a	n/a	n/a	n/a
210.2939	n/a	RESPONSE	n/a	n/a	n/a	n/a
211.1636	0.5166	DISTRACTOR	3	6	C	Correct Rejection
211.6802	1.0167	ISI	n/a	n/a	n/a	n/a
212.6969	0.5166	DISTRACTOR	3	7	C	Correct Rejection
213.2136	1.0167	ISI	n/a	n/a	n/a	n/a
214.2303	0.5166	DISTRACTOR	3	8	H	Correct Rejection
214.7469	1.0167	ISI	n/a	n/a	n/a	n/a
215.7636	0.5167	DISTRACTOR	3	9	E	Correct Rejection
216.2803	1.0167	ISI	n/a	n/a	n/a	n/a
217.297	0.5167	DISTRACTOR	3	10	D	Correct Rejection
217.8136	1.0167	ISI	n/a	n/a	n/a	n/a
218.8303	0.5167	TARGET	3	11	H	Hit
219.347	1.0166	ISI	n/a	n/a	n/a	n/a
219.4247	n/a	RESPONSE	n/a	n/a	n/a	n/a
220.3636	0.5167	DISTRACTOR	3	12	F	Correct Rejection
220.8803	1.0167	ISI	n/a	n/a	n/a	n/a
221.897	0.5167	DISTRACTOR	3	13	A	Correct Rejection
222.4137	1.0167	ISI	n/a	n/a	n/a	n/a
223.4303	0.5167	DISTRACTOR	3	14	A	False Alarm
223.947	1.0167	ISI	n/a	n/a	n/a	n/a
224.0539	n/a	RESPONSE	n/a	n/a	n/a	n/a
224.9637	0.5167	DISTRACTOR	3	15	I	Correct Rejection
225.4804	1.0167	ISI	n/a	n/a	n/a	n/a
226.497	0.5167	DISTRACTOR	3	16	E	Correct Rejection
227.0137	1.0167	ISI	n/a	n/a	n/a	n/a
228.0304	0.5167	DISTRACTOR	3	17	D	Correct Rejection
228.5471	1.0166	ISI	n/a	n/a	n/a	n/a
229.5637	0.5167	DISTRACTOR	3	18	G	Correct Rejection
230.0804	1.0167	ISI	n/a	n/a	n/a	n/a
231.0971	0.5167	DISTRACTOR	3	19	D	False Alarm
231.6137	1.0167	ISI	n/a	n/a	n/a	n/a
231.8597	n/a	RESPONSE	n/a	n/a	n/a	n/a
232.6304	0.5167	DISTRACTOR	3	20	F	Correct Rejection
233.1471	1.0166	ISI	n/a	n/a	n/a	n/a
234.1637	0.5167	DISTRACTOR	3	21	J	Correct Rejection
234.6804	1.0167	ISI	n/a	n/a	n/a	n/a
235.6971	0.5167	TARGET	3	22	D	Hit
236.2138	1.0167	ISI	n/a	n/a	n/a	n/a
236.6486	n/a	RESPONSE	n/a	n/a	n/a	n/a
237.2305	0.5167	DISTRACTOR	3	23	E	Correct Rejection
237.7471	1.0167	ISI	n/a	n/a	n/a	n/a
238.7638	0.5167	TARGET	3	24	J	Miss
239.2805	1.0167	ISI	n/a	n/a	n/a	n/a
240.2972	0.5167	DISTRACTOR	3	25	H	Correct Rejection
240.8138	1.0166	ISI	n/a	n/a	n/a	n/a
241.8305	0.5167	DISTRACTOR	3	26	H	Correct Rejection
242.3472	1.0166	ISI	n/a	n/a	n/a	n/a
243.3638	0.5167	DISTRACTOR	3	27	F	Correct Rejection
243.8805	1.0167	ISI	n/a	n/a	n/a	n/a
244.8972	0.5167	DISTRACTOR	3	28	J	False Alarm
245.4139	1.0167	ISI	n/a	n/a	n/a	n/a
245.7634	n/a	RESPONSE	n/a	n/a	n/a	n/a
246.4305	0.5167	DISTRACTOR	3	29	E	Correct Rejection
246.9472	1.0167	ISI	n/a	n/a	n/a	n/a
247.9639	0.5167	DISTRACTOR	3	30	B	Correct Rejection
248.4806	1.0167	ISI	n/a	n/a	n/a	n/a
249.4972	0.5167	TARGET	3	31	J	Miss
250.0139	1.0167	ISI	n/a	n/a	n/a	n/a
251.0306	0.5167	TARGET	3	32	E	Hit
251.5472	1.0167	ISI	n/a	n/a	n/a	n/a
251.6057	n/a	RESPONSE	n/a	n/a	n/a	n/a
252.5639	0.5167	DISTRACTOR	3	33	J	False Alarm
253.0806	1.0166	ISI	n/a	n/a	n/a	n/a
253.3297	n/a	RESPONSE	n/a	n/a	n/a	n/a
254.0972	0.5167	TARGET	3	34	J	Miss
254.6139	1.0167	ISI	n/a	n/a	n/a	n/a
255.6306	0.5167	DISTRACTOR	3	35	J	False Alarm
256.1473	1.0167	ISI	n/a	n/a	n/a	n/a
256.2988	n/a	RESPONSE	n/a	n/a	n/a	n/a
257.164	0.5167	TARGET	3	36	J	Hit
257.6806	1.0167	ISI	n/a	n/a	n/a	n/a
257.8632	n/a	RESPONSE	n/a	n/a	n/a	n/a
258.6973	0.5166	DISTRACTOR	3	37	G	Correct Rejection
259.2139	1.0167	ISI	n/a	n/a	n/a	n/a
260.2306	0.5167	DISTRACTOR	3	38	H	Correct Rejection
260.7473	1.0167	ISI	n/a	n/a	n/a	n/a
261.764	0.5167	DISTRACTOR	3	39	I	Correct Rejection
262.2807	1.0167	ISI	n/a	n/a	n/a	n/a
263.2973	0.5167	DISTRACTOR	3	40	E	Correct Rejection
263.814	1.0167	ISI	n/a	n/a	n/a	n/a
264.8307	0.5166	DISTRACTOR	3	41	C	Correct Rejection
265.3473	1.0167	ISI	n/a	n/a	n/a	n/a
266.364	0.5167	DISTRACTOR	3	42	J	False Alarm
266.8807	1.0167	ISI	n/a	n/a	n/a	n/a
267.2013	n/a	RESPONSE	n/a	n/a	n/a	n/a
267.8974	0.5167	TARGET	3	43	E	Hit
268.414	1.0167	ISI	n/a	n/a	n/a	n/a
268.622	n/a	RESPONSE	n/a	n/a	n/a	n/a
269.4307	0.5167	DISTRACTOR	3	44	F	Correct Rejection
269.9474	1.0167	ISI	n/a	n/a	n/a	n/a
270.964	0.5167	DISTRACTOR	3	45	A	Correct Rejection
271.4807	1.0167	ISI	n/a	n/a	n/a	n/a
272.4974	0.5167	DISTRACTOR	3	46	I	Correct Rejection
273.0141	1.0166	ISI	n/a	n/a	n/a	n/a
274.0307	0.5167	DISTRACTOR	3	47	H	Correct Rejection
274.5474	1.0167	ISI	n/a	n/a	n/a	n/a
275.5641	0.5166	DISTRACTOR	3	48	D	Correct Rejection
276.0807	1.0167	ISI	n/a	n/a	n/a	n/a
277.0975	0.5167	DISTRACTOR	3	49	F	Correct Rejection
277.6141	1.0167	ISI	n/a	n/a	n/a	n/a
278.6308	0.5167	TARGET	3	50	H	Hit
279.1475	1.0333	ISI	n/a	n/a	n/a	n/a
279.2373	n/a	RESPONSE	n/a	n/a	n/a	n/a
281.919	n/a	RESPONSE	n/a	n/a	n/a	n/a
