onset	duration	trial_type	melody_number	melody_part	key	sound	action
0.0	14.082	CUE_START	n/a	n/a	n/a	n/a	n/a
13.99	n/a	RESPONSE	n/a	n/a	07	G3	press
14.082	7.759	FIXCROSS	n/a	n/a	n/a	n/a	n/a
14.171	n/a	RESPONSE	n/a	n/a	07	G3	release
21.842	6.324	CUE_LISTEN	M1	1	n/a	n/a	n/a
28.166	7.758	FIXCROSS	n/a	n/a	n/a	n/a	n/a
35.924	6.317	CUE_PLAYBACK_RIGHT_HAND	M1	1	n/a	n/a	n/a
36.953	n/a	RESPONSE	M1	1	19	G4	press
37.384	n/a	RESPONSE	M1	1	19	G4	release
37.517	n/a	RESPONSE	M1	1	16	E4	press
37.867	n/a	RESPONSE	M1	1	16	E4	release
38.02	n/a	RESPONSE	M1	1	16	E4	press
38.34	n/a	RESPONSE	M1	1	16	E4	release
38.581	n/a	RESPONSE	M1	1	17	F4	press
38.932	n/a	RESPONSE	M1	1	17	F4	release
39.133	n/a	RESPONSE	M1	1	14	D4	press
40.521	n/a	RESPONSE	M1	1	14	D4	release
40.648	n/a	RESPONSE	M1	1	12	C4	press
40.947	n/a	RESPONSE	M1	1	12	C4	release
41.064	n/a	RESPONSE	M1	1	16	E4	press
41.393	n/a	RESPONSE	M1	1	16	E4	release
41.507	n/a	RESPONSE	M1	1	19	G4	press
42.224	n/a	RESPONSE	M1	1	19	G4	release
42.241	7.758	FIXCROSS	n/a	n/a	n/a	n/a	n/a
49.999	6.317	CUE_LISTEN	M1	2	n/a	n/a	n/a
56.316	7.758	FIXCROSS	n/a	n/a	n/a	n/a	n/a
64.074	6.325	CUE_PLAYBACK_RIGHT_HAND	M1	2	n/a	n/a	n/a
64.816	n/a	RESPONSE	M1	2	19	G4	press
65.367	n/a	RESPONSE	M1	2	19	G4	release
65.388	n/a	RESPONSE	M1	2	16	E4	press
66.772	n/a	RESPONSE	M1	2	16	E4	release
66.871	n/a	RESPONSE	M1	2	17	F4	press
67.252	n/a	RESPONSE	M1	2	17	F4	release
67.413	n/a	RESPONSE	M1	2	14	D4	press
67.754	n/a	RESPONSE	M1	2	14	D4	release
67.966	n/a	RESPONSE	M1	2	14	D4	press
68.358	n/a	RESPONSE	M1	2	14	D4	release
68.528	n/a	RESPONSE	M1	2	12	C4	press
68.85	n/a	RESPONSE	M1	2	12	C4	release
68.933	n/a	RESPONSE	M1	2	16	E4	press
69.364	n/a	RESPONSE	M1	2	16	E4	release
69.453	n/a	RESPONSE	M1	2	12	C4	press
70.196	n/a	RESPONSE	M1	2	12	C4	release
70.399	7.758	FIXCROSS	n/a	n/a	n/a	n/a	n/a
78.158	6.317	CUE_LISTEN	M1	1	n/a	n/a	n/a
84.474	7.758	FIXCROSS	n/a	n/a	n/a	n/a	n/a
92.233	6.317	CUE_PLAYBACK_BOTH_HANDS	M1	1	n/a	n/a	n/a
93.057	n/a	RESPONSE	M1	1	00	C3	press
93.081	n/a	RESPONSE	M1	1	12	C4	press
93.638	n/a	RESPONSE	M1	1	00	C3	release
93.659	n/a	RESPONSE	M1	1	12	C4	release
93.752	n/a	RESPONSE	M1	1	04	E3	press
93.812	n/a	RESPONSE	M1	1	16	E4	press
94.413	n/a	RESPONSE	M1	1	16	E4	release
94.524	n/a	RESPONSE	M1	1	04	E3	release
95.227	n/a	RESPONSE	M1	1	07	G3	press
95.237	n/a	RESPONSE	M1	1	19	G4	press
95.57	n/a	RESPONSE	M1	1	19	G4	release
95.572	n/a	RESPONSE	M1	1	07	G3	release
95.701	n/a	RESPONSE	M1	1	04	E3	press
95.722	n/a	RESPONSE	M1	1	16	E4	press
96.013	n/a	RESPONSE	M1	1	04	E3	release
96.046	n/a	RESPONSE	M1	1	16	E4	release
96.167	n/a	RESPONSE	M1	1	04	E3	press
96.187	n/a	RESPONSE	M1	1	16	E4	press
96.468	n/a	RESPONSE	M1	1	04	E3	release
96.48	n/a	RESPONSE	M1	1	16	E4	release
96.731	n/a	RESPONSE	M1	1	05	F3	press
96.733	n/a	RESPONSE	M1	1	17	F4	press
97.056	n/a	RESPONSE	M1	1	17	F4	release
97.076	n/a	RESPONSE	M1	1	05	F3	release
97.256	n/a	RESPONSE	M1	1	02	D3	press
97.307	n/a	RESPONSE	M1	1	14	D4	press
97.671	n/a	RESPONSE	M1	1	14	D4	release
97.84	n/a	RESPONSE	M1	1	14	D4	press
98.171	n/a	RESPONSE	M1	1	02	D3	release
98.202	n/a	RESPONSE	M1	1	14	D4	release
98.373	n/a	RESPONSE	M1	1	00	C3	press
98.404	n/a	RESPONSE	M1	1	12	C4	press
98.549	7.758	FIXCROSS	n/a	n/a	n/a	n/a	n/a
98.756	n/a	RESPONSE	M1	1	12	C4	release
98.797	n/a	RESPONSE	M1	1	00	C3	release
98.8	n/a	RESPONSE	M1	1	04	E3	press
98.86	n/a	RESPONSE	M1	1	16	E4	press
99.152	n/a	RESPONSE	M1	1	16	E4	release
99.182	n/a	RESPONSE	M1	1	04	E3	release
99.303	n/a	RESPONSE	M1	1	07	G3	press
99.306	n/a	RESPONSE	M1	1	19	G4	press
99.95	n/a	RESPONSE	M1	1	19	G4	release
100.274	n/a	RESPONSE	M1	1	07	G3	release
106.308	6.325	CUE_LISTEN	M1	2	n/a	n/a	n/a
112.633	7.758	FIXCROSS	n/a	n/a	n/a	n/a	n/a
120.391	6.317	CUE_PLAYBACK_BOTH_HANDS	M1	2	n/a	n/a	n/a
121.011	n/a	RESPONSE	M1	2	19	G4	press
121.014	n/a	RESPONSE	M1	2	07	G3	press
121.433	n/a	RESPONSE	M1	2	19	G4	release
121.579	n/a	RESPONSE	M1	2	04	E3	press
121.607	n/a	RESPONSE	M1	2	07	G3	release
121.631	n/a	RESPONSE	M1	2	16	E4	press
121.962	n/a	RESPONSE	M1	2	16	E4	release
122.177	n/a	RESPONSE	M1	2	16	E4	press
122.493	n/a	RESPONSE	M1	2	16	E4	release
122.496	n/a	RESPONSE	M1	2	04	E3	release
122.761	n/a	RESPONSE	M1	2	05	F3	press
122.781	n/a	RESPONSE	M1	2	17	F4	press
123.126	n/a	RESPONSE	M1	2	17	F4	release
123.157	n/a	RESPONSE	M1	2	05	F3	release
123.337	n/a	RESPONSE	M1	2	02	D3	press
123.396	n/a	RESPONSE	M1	2	14	D4	press
123.659	n/a	RESPONSE	M1	2	14	D4	release
123.669	n/a	RESPONSE	M1	2	02	D3	release
123.919	n/a	RESPONSE	M1	2	02	D3	press
123.953	n/a	RESPONSE	M1	2	14	D4	press
124.243	n/a	RESPONSE	M1	2	02	D3	release
124.263	n/a	RESPONSE	M1	2	14	D4	release
124.454	n/a	RESPONSE	M1	2	00	C3	press
124.506	n/a	RESPONSE	M1	2	12	C4	press
124.787	n/a	RESPONSE	M1	2	12	C4	release
124.839	n/a	RESPONSE	M1	2	00	C3	release
124.939	n/a	RESPONSE	M1	2	04	E3	press
124.991	n/a	RESPONSE	M1	2	16	E4	press
125.284	n/a	RESPONSE	M1	2	16	E4	release
125.313	n/a	RESPONSE	M1	2	04	E3	release
125.514	n/a	RESPONSE	M1	2	00	C3	press
125.528	n/a	RESPONSE	M1	2	12	C4	press
126.237	n/a	RESPONSE	M1	2	00	C3	release
126.289	n/a	RESPONSE	M1	2	12	C4	release
126.708	7.758	FIXCROSS	n/a	n/a	n/a	n/a	n/a
134.466	6.317	CUE_LISTEN	M1	1	n/a	n/a	n/a
140.783	7.758	FIXCROSS	n/a	n/a	n/a	n/a	n/a
148.541	6.325	CUE_PLAYBACK_RIGHT_HAND	M1	1	n/a	n/a	n/a
154.866	7.758	FIXCROSS	n/a	n/a	n/a	n/a	n/a
162.624	6.317	CUE_LISTEN	M1	2	n/a	n/a	n/a
168.941	7.758	FIXCROSS	n/a	n/a	n/a	n/a	n/a
176.699	6.325	CUE_PLAYBACK_RIGHT_HAND	M1	2	n/a	n/a	n/a
178.283	n/a	RESPONSE	M1	2	19	G4	press
178.817	n/a	RESPONSE	M1	2	19	G4	release
178.936	n/a	RESPONSE	M1	2	16	E4	press
180.003	n/a	RESPONSE	M1	2	16	E4	release
180.178	n/a	RESPONSE	M1	2	17	F4	press
180.511	n/a	RESPONSE	M1	2	17	F4	release
180.708	n/a	RESPONSE	M1	2	14	D4	press
181.691	n/a	RESPONSE	M1	2	14	D4	release
181.846	n/a	RESPONSE	M1	2	12	C4	press
182.251	n/a	RESPONSE	M1	2	12	C4	release
182.368	n/a	RESPONSE	M1	2	16	E4	press
182.726	n/a	RESPONSE	M1	2	16	E4	release
182.931	n/a	RESPONSE	M1	2	12	C4	press
183.024	7.758	FIXCROSS	n/a	n/a	n/a	n/a	n/a
183.782	n/a	RESPONSE	M1	2	12	C4	release
190.783	6.317	CUE_LISTEN	M1	1	n/a	n/a	n/a
197.099	7.758	FIXCROSS	n/a	n/a	n/a	n/a	n/a
204.858	6.317	CUE_PLAYBACK_BOTH_HANDS	M1	1	n/a	n/a	n/a
205.487	n/a	RESPONSE	M1	1	00	C3	press
205.548	n/a	RESPONSE	M1	1	12	C4	press
205.949	n/a	RESPONSE	M1	1	12	C4	release
206.073	n/a	RESPONSE	M1	1	00	C3	release
206.872	n/a	RESPONSE	M1	1	07	G3	press
206.893	n/a	RESPONSE	M1	1	19	G4	press
207.244	n/a	RESPONSE	M1	1	19	G4	release
207.306	n/a	RESPONSE	M1	1	07	G3	release
207.407	n/a	RESPONSE	M1	1	04	E3	press
207.418	n/a	RESPONSE	M1	1	16	E4	press
207.739	n/a	RESPONSE	M1	1	16	E4	release
207.781	n/a	RESPONSE	M1	1	04	E3	release
207.924	n/a	RESPONSE	M1	1	04	E3	press
207.943	n/a	RESPONSE	M1	1	16	E4	press
208.246	n/a	RESPONSE	M1	1	16	E4	release
208.256	n/a	RESPONSE	M1	1	04	E3	release
208.477	n/a	RESPONSE	M1	1	05	F3	press
208.481	n/a	RESPONSE	M1	1	17	F4	press
208.849	n/a	RESPONSE	M1	1	17	F4	release
208.861	n/a	RESPONSE	M1	1	05	F3	release
209.022	n/a	RESPONSE	M1	1	02	D3	press
209.063	n/a	RESPONSE	M1	1	14	D4	press
209.314	n/a	RESPONSE	M1	1	02	D3	release
209.317	n/a	RESPONSE	M1	1	14	D4	release
209.557	n/a	RESPONSE	M1	1	02	D3	press
209.588	n/a	RESPONSE	M1	1	14	D4	press
209.821	n/a	RESPONSE	M1	1	02	D3	release
209.858	n/a	RESPONSE	M1	1	14	D4	release
210.047	n/a	RESPONSE	M1	1	00	C3	press
210.071	n/a	RESPONSE	M1	1	12	C4	press
210.373	n/a	RESPONSE	M1	1	12	C4	release
210.488	n/a	RESPONSE	M1	1	04	E3	press
210.503	n/a	RESPONSE	M1	1	00	C3	release
210.532	n/a	RESPONSE	M1	1	16	E4	press
210.818	n/a	RESPONSE	M1	1	16	E4	release
210.838	n/a	RESPONSE	M1	1	04	E3	release
210.969	n/a	RESPONSE	M1	1	07	G3	press
211.006	n/a	RESPONSE	M1	1	19	G4	press
211.174	7.758	FIXCROSS	n/a	n/a	n/a	n/a	n/a
211.468	n/a	RESPONSE	M1	1	19	G4	release
211.598	n/a	RESPONSE	M1	1	07	G3	release
218.933	6.325	CUE_LISTEN	M1	2	n/a	n/a	n/a
225.258	7.758	FIXCROSS	n/a	n/a	n/a	n/a	n/a
233.016	6.317	CUE_PLAYBACK_BOTH_HANDS	M1	2	n/a	n/a	n/a
233.781	n/a	RESPONSE	M1	2	00	C3	press
233.813	n/a	RESPONSE	M1	2	12	C4	press
234.512	n/a	RESPONSE	M1	2	00	C3	release
234.534	n/a	RESPONSE	M1	2	12	C4	release
234.884	n/a	RESPONSE	M1	2	07	G3	press
234.967	n/a	RESPONSE	M1	2	19	G4	press
235.397	n/a	RESPONSE	M1	2	19	G4	release
235.448	n/a	RESPONSE	M1	2	07	G3	release
235.529	n/a	RESPONSE	M1	2	04	E3	press
235.551	n/a	RESPONSE	M1	2	16	E4	press
235.852	n/a	RESPONSE	M1	2	16	E4	release
235.874	n/a	RESPONSE	M1	2	04	E3	release
236.034	n/a	RESPONSE	M1	2	04	E3	press
236.077	n/a	RESPONSE	M1	2	16	E4	press
236.377	n/a	RESPONSE	M1	2	16	E4	release
236.398	n/a	RESPONSE	M1	2	04	E3	release
236.609	n/a	RESPONSE	M1	2	05	F3	press
236.621	n/a	RESPONSE	M1	2	17	F4	press
236.923	n/a	RESPONSE	M1	2	17	F4	release
236.934	n/a	RESPONSE	M1	2	05	F3	release
237.164	n/a	RESPONSE	M1	2	02	D3	press
237.186	n/a	RESPONSE	M1	2	14	D4	press
237.437	n/a	RESPONSE	M1	2	14	D4	release
237.448	n/a	RESPONSE	M1	2	02	D3	release
237.699	n/a	RESPONSE	M1	2	02	D3	press
237.731	n/a	RESPONSE	M1	2	14	D4	press
238.002	n/a	RESPONSE	M1	2	02	D3	release
238.026	n/a	RESPONSE	M1	2	14	D4	release
238.204	n/a	RESPONSE	M1	2	00	C3	press
238.246	n/a	RESPONSE	M1	2	12	C4	press
238.507	n/a	RESPONSE	M1	2	12	C4	release
238.548	n/a	RESPONSE	M1	2	00	C3	release
238.559	n/a	RESPONSE	M1	2	04	E3	press
238.611	n/a	RESPONSE	M1	2	16	E4	press
238.892	n/a	RESPONSE	M1	2	16	E4	release
238.894	n/a	RESPONSE	M1	2	04	E3	release
239.074	n/a	RESPONSE	M1	2	00	C3	press
239.077	n/a	RESPONSE	M1	2	12	C4	press
239.333	7.758	FIXCROSS	n/a	n/a	n/a	n/a	n/a
239.678	n/a	RESPONSE	M1	2	00	C3	release
239.731	n/a	RESPONSE	M1	2	12	C4	release
247.091	6.325	CUE_LISTEN	M1	1	n/a	n/a	n/a
253.416	7.758	FIXCROSS	n/a	n/a	n/a	n/a	n/a
261.175	6.317	CUE_PLAYBACK_RIGHT_HAND	M1	1	n/a	n/a	n/a
262.016	n/a	RESPONSE	M1	1	19	G4	press
262.438	n/a	RESPONSE	M1	1	19	G4	release
262.607	n/a	RESPONSE	M1	1	16	E4	press
262.933	n/a	RESPONSE	M1	1	16	E4	release
263.141	n/a	RESPONSE	M1	1	16	E4	press
263.512	n/a	RESPONSE	M1	1	16	E4	release
263.683	n/a	RESPONSE	M1	1	17	F4	press
264.016	n/a	RESPONSE	M1	1	17	F4	release
264.196	n/a	RESPONSE	M1	1	14	D4	press
264.567	n/a	RESPONSE	M1	1	14	D4	release
264.738	n/a	RESPONSE	M1	1	14	D4	press
265.159	n/a	RESPONSE	M1	1	14	D4	release
265.303	n/a	RESPONSE	M1	1	12	C4	press
265.592	n/a	RESPONSE	M1	1	12	C4	release
265.643	n/a	RESPONSE	M1	1	16	E4	press
265.954	n/a	RESPONSE	M1	1	16	E4	release
266.066	n/a	RESPONSE	M1	1	19	G4	press
266.717	n/a	RESPONSE	M1	1	19	G4	release
267.491	7.758	FIXCROSS	n/a	n/a	n/a	n/a	n/a
275.25	6.317	CUE_LISTEN	M1	2	n/a	n/a	n/a
281.566	7.758	FIXCROSS	n/a	n/a	n/a	n/a	n/a
289.325	6.317	CUE_PLAYBACK_RIGHT_HAND	M1	2	n/a	n/a	n/a
291.183	n/a	RESPONSE	M1	2	19	G4	press
291.557	n/a	RESPONSE	M1	2	19	G4	release
291.712	n/a	RESPONSE	M1	2	16	E4	press
292.057	n/a	RESPONSE	M1	2	16	E4	release
292.24	n/a	RESPONSE	M1	2	16	E4	press
292.621	n/a	RESPONSE	M1	2	16	E4	release
292.761	n/a	RESPONSE	M1	2	17	F4	press
293.216	n/a	RESPONSE	M1	2	17	F4	release
293.356	n/a	RESPONSE	M1	2	14	D4	press
294.439	n/a	RESPONSE	M1	2	14	D4	release
294.528	n/a	RESPONSE	M1	2	12	C4	press
294.819	n/a	RESPONSE	M1	2	12	C4	release
294.87	n/a	RESPONSE	M1	2	16	E4	press
295.244	n/a	RESPONSE	M1	2	16	E4	release
295.254	n/a	RESPONSE	M1	2	12	C4	press
295.641	7.758	FIXCROSS	n/a	n/a	n/a	n/a	n/a
295.984	n/a	RESPONSE	M1	2	12	C4	release
303.4	6.325	CUE_LISTEN	M1	1	n/a	n/a	n/a
309.725	7.758	FIXCROSS	n/a	n/a	n/a	n/a	n/a
317.483	6.317	CUE_PLAYBACK_BOTH_HANDS	M1	1	n/a	n/a	n/a
318.35	n/a	RESPONSE	M1	1	00	C3	press
318.412	n/a	RESPONSE	M1	1	12	C4	press
319.054	n/a	RESPONSE	M1	1	12	C4	release
319.094	n/a	RESPONSE	M1	1	00	C3	release
319.177	n/a	RESPONSE	M1	1	07	G3	press
319.207	n/a	RESPONSE	M1	1	19	G4	press
319.558	n/a	RESPONSE	M1	1	19	G4	release
319.689	n/a	RESPONSE	M1	1	07	G3	release
319.732	n/a	RESPONSE	M1	1	04	E3	press
319.75	n/a	RESPONSE	M1	1	16	E4	press
320.063	n/a	RESPONSE	M1	1	16	E4	release
320.297	n/a	RESPONSE	M1	1	16	E4	press
320.608	n/a	RESPONSE	M1	1	16	E4	release
320.633	n/a	RESPONSE	M1	1	04	E3	release
320.787	n/a	RESPONSE	M1	1	05	F3	press
320.798	n/a	RESPONSE	M1	1	17	F4	press
321.12	n/a	RESPONSE	M1	1	17	F4	release
321.124	n/a	RESPONSE	M1	1	05	F3	release
321.287	n/a	RESPONSE	M1	1	02	D3	press
321.319	n/a	RESPONSE	M1	1	14	D4	press
321.668	n/a	RESPONSE	M1	1	02	D3	release
321.853	n/a	RESPONSE	M1	1	02	D3	press
322.23	n/a	RESPONSE	M1	1	02	D3	release
322.234	n/a	RESPONSE	M1	1	14	D4	release
322.453	n/a	RESPONSE	M1	1	00	C3	press
322.51	n/a	RESPONSE	M1	1	12	C4	press
322.743	n/a	RESPONSE	M1	1	12	C4	release
322.769	n/a	RESPONSE	M1	1	04	E3	press
322.802	n/a	RESPONSE	M1	1	00	C3	release
322.808	n/a	RESPONSE	M1	1	16	E4	press
323.054	n/a	RESPONSE	M1	1	04	E3	release
323.057	n/a	RESPONSE	M1	1	16	E4	release
323.153	n/a	RESPONSE	M1	1	07	G3	press
323.19	n/a	RESPONSE	M1	1	19	G4	press
323.8	7.758	FIXCROSS	n/a	n/a	n/a	n/a	n/a
323.88	n/a	RESPONSE	M1	1	19	G4	release
324.062	n/a	RESPONSE	M1	1	07	G3	release
331.558	6.317	CUE_LISTEN	M1	2	n/a	n/a	n/a
337.875	7.758	FIXCROSS	n/a	n/a	n/a	n/a	n/a
345.633	6.325	CUE_PLAYBACK_BOTH_HANDS	M1	2	n/a	n/a	n/a
346.336	n/a	RESPONSE	M1	2	07	G3	press
346.338	n/a	RESPONSE	M1	2	19	G4	press
346.688	n/a	RESPONSE	M1	2	19	G4	release
346.889	n/a	RESPONSE	M1	2	04	E3	press
346.92	n/a	RESPONSE	M1	2	16	E4	press
346.923	n/a	RESPONSE	M1	2	07	G3	release
347.814	n/a	RESPONSE	M1	2	16	E4	release
347.854	n/a	RESPONSE	M1	2	04	E3	release
348.028	n/a	RESPONSE	M1	2	05	F3	press
348.037	n/a	RESPONSE	M1	2	17	F4	press
348.338	n/a	RESPONSE	M1	2	05	F3	release
348.349	n/a	RESPONSE	M1	2	17	F4	release
348.53	n/a	RESPONSE	M1	2	02	D3	press
348.552	n/a	RESPONSE	M1	2	14	D4	press
348.833	n/a	RESPONSE	M1	2	14	D4	release
348.836	n/a	RESPONSE	M1	2	02	D3	release
349.077	n/a	RESPONSE	M1	2	02	D3	press
349.088	n/a	RESPONSE	M1	2	14	D4	press
349.398	n/a	RESPONSE	M1	2	02	D3	release
349.409	n/a	RESPONSE	M1	2	14	D4	release
349.58	n/a	RESPONSE	M1	2	00	C3	press
349.613	n/a	RESPONSE	M1	2	12	C4	press
349.882	n/a	RESPONSE	M1	2	12	C4	release
349.927	n/a	RESPONSE	M1	2	00	C3	release
350.019	n/a	RESPONSE	M1	2	04	E3	press
350.069	n/a	RESPONSE	M1	2	16	E4	press
350.359	n/a	RESPONSE	M1	2	04	E3	release
350.362	n/a	RESPONSE	M1	2	16	E4	release
350.566	n/a	RESPONSE	M1	2	12	C4	press
350.57	n/a	RESPONSE	M1	2	00	C3	press
351.104	n/a	RESPONSE	M1	2	00	C3	release
351.149	n/a	RESPONSE	M1	2	12	C4	release
351.958	7.758	FIXCROSS	n/a	n/a	n/a	n/a	n/a
359.716	6.317	CUE_LISTEN	M1	1	n/a	n/a	n/a
366.033	7.767	FIXCROSS	n/a	n/a	n/a	n/a	n/a
373.8	6.308	CUE_PLAYBACK_RIGHT_HAND	M1	1	n/a	n/a	n/a
374.438	n/a	RESPONSE	M1	1	19	G4	press
374.88	n/a	RESPONSE	M1	1	19	G4	release
375.07	n/a	RESPONSE	M1	1	16	E4	press
375.402	n/a	RESPONSE	M1	1	16	E4	release
375.586	n/a	RESPONSE	M1	1	16	E4	press
376.014	n/a	RESPONSE	M1	1	16	E4	release
376.157	n/a	RESPONSE	M1	1	17	F4	press
376.477	n/a	RESPONSE	M1	1	17	F4	release
376.728	n/a	RESPONSE	M1	1	14	D4	press
377.049	n/a	RESPONSE	M1	1	14	D4	release
377.27	n/a	RESPONSE	M1	1	14	D4	press
377.662	n/a	RESPONSE	M1	1	14	D4	release
377.823	n/a	RESPONSE	M1	1	12	C4	press
378.087	n/a	RESPONSE	M1	1	12	C4	release
378.196	n/a	RESPONSE	M1	1	16	E4	press
378.477	n/a	RESPONSE	M1	1	16	E4	release
378.648	n/a	RESPONSE	M1	1	19	G4	press
379.129	n/a	RESPONSE	M1	1	19	G4	release
380.108	7.758	FIXCROSS	n/a	n/a	n/a	n/a	n/a
387.866	6.325	CUE_LISTEN	M1	2	n/a	n/a	n/a
394.191	7.758	FIXCROSS	n/a	n/a	n/a	n/a	n/a
401.95	6.317	CUE_PLAYBACK_RIGHT_HAND	M1	2	n/a	n/a	n/a
402.682	n/a	RESPONSE	M1	2	19	G4	press
403.166	n/a	RESPONSE	M1	2	19	G4	release
403.514	n/a	RESPONSE	M1	2	19	G4	press
403.863	n/a	RESPONSE	M1	2	19	G4	release
404.014	n/a	RESPONSE	M1	2	16	E4	press
404.957	n/a	RESPONSE	M1	2	16	E4	release
405.117	n/a	RESPONSE	M1	2	17	F4	press
405.428	n/a	RESPONSE	M1	2	17	F4	release
405.619	n/a	RESPONSE	M1	2	14	D4	press
405.96	n/a	RESPONSE	M1	2	14	D4	release
406.152	n/a	RESPONSE	M1	2	14	D4	press
406.503	n/a	RESPONSE	M1	2	14	D4	release
406.694	n/a	RESPONSE	M1	2	12	C4	press
406.947	n/a	RESPONSE	M1	2	12	C4	release
407.008	n/a	RESPONSE	M1	2	16	E4	press
407.298	n/a	RESPONSE	M1	2	16	E4	release
407.369	n/a	RESPONSE	M1	2	12	C4	press
407.962	n/a	RESPONSE	M1	2	12	C4	release
408.266	7.758	FIXCROSS	n/a	n/a	n/a	n/a	n/a
416.025	6.317	CUE_LISTEN	M1	1	n/a	n/a	n/a
422.342	7.758	FIXCROSS	n/a	n/a	n/a	n/a	n/a
430.1	6.325	CUE_PLAYBACK_BOTH_HANDS	M1	1	n/a	n/a	n/a
431.568	n/a	RESPONSE	M1	1	07	G3	press
431.597	n/a	RESPONSE	M1	1	19	G4	press
432.052	n/a	RESPONSE	M1	1	19	G4	release
432.247	n/a	RESPONSE	M1	1	07	G3	release
432.273	n/a	RESPONSE	M1	1	04	E3	press
432.288	n/a	RESPONSE	M1	1	16	E4	press
432.592	n/a	RESPONSE	M1	1	16	E4	release
432.782	n/a	RESPONSE	M1	1	16	E4	press
433.06	n/a	RESPONSE	M1	1	16	E4	release
433.097	n/a	RESPONSE	M1	1	04	E3	release
433.247	n/a	RESPONSE	M1	1	05	F3	press
433.259	n/a	RESPONSE	M1	1	17	F4	press
433.615	n/a	RESPONSE	M1	1	05	F3	release
433.618	n/a	RESPONSE	M1	1	17	F4	release
433.788	n/a	RESPONSE	M1	1	02	D3	press
433.809	n/a	RESPONSE	M1	1	14	D4	press
434.082	n/a	RESPONSE	M1	1	14	D4	release
434.084	n/a	RESPONSE	M1	1	02	D3	release
434.295	n/a	RESPONSE	M1	1	02	D3	press
434.335	n/a	RESPONSE	M1	1	14	D4	press
434.645	n/a	RESPONSE	M1	1	02	D3	release
434.648	n/a	RESPONSE	M1	1	14	D4	release
434.868	n/a	RESPONSE	M1	1	00	C3	press
434.899	n/a	RESPONSE	M1	1	12	C4	press
435.14	n/a	RESPONSE	M1	1	12	C4	release
435.213	n/a	RESPONSE	M1	1	04	E3	press
435.244	n/a	RESPONSE	M1	1	00	C3	release
435.254	n/a	RESPONSE	M1	1	16	E4	press
435.505	n/a	RESPONSE	M1	1	16	E4	release
435.508	n/a	RESPONSE	M1	1	04	E3	release
435.638	n/a	RESPONSE	M1	1	07	G3	press
435.659	n/a	RESPONSE	M1	1	19	G4	press
436.212	n/a	RESPONSE	M1	1	19	G4	release
436.382	n/a	RESPONSE	M1	1	07	G3	release
436.425	7.758	FIXCROSS	n/a	n/a	n/a	n/a	n/a
444.183	6.317	CUE_LISTEN	M1	2	n/a	n/a	n/a
450.5	7.758	FIXCROSS	n/a	n/a	n/a	n/a	n/a
458.258	6.325	CUE_PLAYBACK_BOTH_HANDS	M1	2	n/a	n/a	n/a
459.592	n/a	RESPONSE	M1	2	19	G4	press
459.603	n/a	RESPONSE	M1	2	07	G3	press
459.982	n/a	RESPONSE	M1	2	19	G4	release
460.155	n/a	RESPONSE	M1	2	07	G3	release
460.162	n/a	RESPONSE	M1	2	04	E3	press
460.172	n/a	RESPONSE	M1	2	16	E4	press
460.488	n/a	RESPONSE	M1	2	16	E4	release
460.519	n/a	RESPONSE	M1	2	04	E3	release
460.679	n/a	RESPONSE	M1	2	04	E3	press
460.703	n/a	RESPONSE	M1	2	16	E4	press
461.02	n/a	RESPONSE	M1	2	16	E4	release
461.052	n/a	RESPONSE	M1	2	04	E3	release
461.272	n/a	RESPONSE	M1	2	05	F3	press
461.292	n/a	RESPONSE	M1	2	17	F4	press
461.625	n/a	RESPONSE	M1	2	17	F4	release
461.632	n/a	RESPONSE	M1	2	05	F3	release
461.802	n/a	RESPONSE	M1	2	02	D3	press
461.832	n/a	RESPONSE	M1	2	14	D4	press
462.1	n/a	RESPONSE	M1	2	02	D3	release
462.107	n/a	RESPONSE	M1	2	14	D4	release
462.342	n/a	RESPONSE	M1	2	02	D3	press
462.374	n/a	RESPONSE	M1	2	14	D4	press
462.65	n/a	RESPONSE	M1	2	02	D3	release
462.663	n/a	RESPONSE	M1	2	14	D4	release
462.877	n/a	RESPONSE	M1	2	00	C3	press
462.902	n/a	RESPONSE	M1	2	12	C4	press
463.164	n/a	RESPONSE	M1	2	12	C4	release
463.19	n/a	RESPONSE	M1	2	00	C3	release
463.287	n/a	RESPONSE	M1	2	04	E3	press
463.312	n/a	RESPONSE	M1	2	16	E4	press
463.56	n/a	RESPONSE	M1	2	04	E3	release
463.57	n/a	RESPONSE	M1	2	16	E4	release
463.712	n/a	RESPONSE	M1	2	12	C4	press
463.723	n/a	RESPONSE	M1	2	00	C3	press
464.275	n/a	RESPONSE	M1	2	00	C3	release
464.328	n/a	RESPONSE	M1	2	12	C4	release
464.583	7.758	FIXCROSS	n/a	n/a	n/a	n/a	n/a
472.342	6.317	CUE_LISTEN	M1	1	n/a	n/a	n/a
478.658	7.758	FIXCROSS	n/a	n/a	n/a	n/a	n/a
486.417	6.317	CUE_PLAYBACK_RIGHT_HAND	M1	1	n/a	n/a	n/a
487.355	n/a	RESPONSE	M1	1	19	G4	press
487.768	n/a	RESPONSE	M1	1	19	G4	release
487.9	n/a	RESPONSE	M1	1	16	E4	press
488.21	n/a	RESPONSE	M1	1	16	E4	release
488.442	n/a	RESPONSE	M1	1	16	E4	press
488.793	n/a	RESPONSE	M1	1	16	E4	release
489.044	n/a	RESPONSE	M1	1	17	F4	press
489.345	n/a	RESPONSE	M1	1	17	F4	release
489.557	n/a	RESPONSE	M1	1	14	D4	press
489.869	n/a	RESPONSE	M1	1	14	D4	release
490.098	n/a	RESPONSE	M1	1	14	D4	press
490.465	n/a	RESPONSE	M1	1	14	D4	release
490.633	n/a	RESPONSE	M1	1	12	C4	press
490.917	n/a	RESPONSE	M1	1	12	C4	release
490.96	n/a	RESPONSE	M1	1	16	E4	press
491.284	n/a	RESPONSE	M1	1	19	G4	press
491.287	n/a	RESPONSE	M1	1	16	E4	release
491.794	n/a	RESPONSE	M1	1	19	G4	release
492.733	7.758	FIXCROSS	n/a	n/a	n/a	n/a	n/a
500.492	6.325	CUE_LISTEN	M1	2	n/a	n/a	n/a
506.817	7.758	FIXCROSS	n/a	n/a	n/a	n/a	n/a
514.575	6.317	CUE_PLAYBACK_RIGHT_HAND	M1	2	n/a	n/a	n/a
515.63	n/a	RESPONSE	M1	2	19	G4	press
515.993	n/a	RESPONSE	M1	2	19	G4	release
516.182	n/a	RESPONSE	M1	2	16	E4	press
516.444	n/a	RESPONSE	M1	2	16	E4	release
516.694	n/a	RESPONSE	M1	2	16	E4	press
516.985	n/a	RESPONSE	M1	2	16	E4	release
517.227	n/a	RESPONSE	M1	2	17	F4	press
517.508	n/a	RESPONSE	M1	2	17	F4	release
517.732	n/a	RESPONSE	M1	2	14	D4	press
518.03	n/a	RESPONSE	M1	2	14	D4	release
518.262	n/a	RESPONSE	M1	2	14	D4	press
518.574	n/a	RESPONSE	M1	2	14	D4	release
518.774	n/a	RESPONSE	M1	2	12	C4	press
519.015	n/a	RESPONSE	M1	2	12	C4	release
519.077	n/a	RESPONSE	M1	2	16	E4	press
519.329	n/a	RESPONSE	M1	2	16	E4	release
519.399	n/a	RESPONSE	M1	2	12	C4	press
519.822	n/a	RESPONSE	M1	2	12	C4	release
520.892	7.758	FIXCROSS	n/a	n/a	n/a	n/a	n/a
528.65	6.317	CUE_LISTEN	M1	1	n/a	n/a	n/a
534.967	7.758	FIXCROSS	n/a	n/a	n/a	n/a	n/a
542.725	6.325	CUE_PLAYBACK_BOTH_HANDS	M1	1	n/a	n/a	n/a
543.773	n/a	RESPONSE	M1	1	19	G4	press
543.844	n/a	RESPONSE	M1	1	07	G3	press
544.244	n/a	RESPONSE	M1	1	19	G4	release
544.357	n/a	RESPONSE	M1	1	07	G3	release
544.417	n/a	RESPONSE	M1	1	04	E3	press
544.438	n/a	RESPONSE	M1	1	16	E4	press
544.74	n/a	RESPONSE	M1	1	16	E4	release
544.99	n/a	RESPONSE	M1	1	16	E4	press
545.304	n/a	RESPONSE	M1	1	16	E4	release
545.333	n/a	RESPONSE	M1	1	04	E3	release
545.514	n/a	RESPONSE	M1	1	05	F3	press
545.548	n/a	RESPONSE	M1	1	17	F4	press
545.866	n/a	RESPONSE	M1	1	17	F4	release
545.88	n/a	RESPONSE	M1	1	05	F3	release
546.06	n/a	RESPONSE	M1	1	02	D3	press
546.1	n/a	RESPONSE	M1	1	14	D4	press
546.362	n/a	RESPONSE	M1	1	14	D4	release
546.364	n/a	RESPONSE	M1	1	02	D3	release
546.604	n/a	RESPONSE	M1	1	02	D3	press
546.628	n/a	RESPONSE	M1	1	14	D4	press
546.916	n/a	RESPONSE	M1	1	14	D4	release
546.919	n/a	RESPONSE	M1	1	02	D3	release
547.11	n/a	RESPONSE	M1	1	00	C3	press
547.162	n/a	RESPONSE	M1	1	12	C4	press
547.372	n/a	RESPONSE	M1	1	12	C4	release
547.403	n/a	RESPONSE	M1	1	00	C3	release
547.414	n/a	RESPONSE	M1	1	04	E3	press
547.465	n/a	RESPONSE	M1	1	16	E4	press
547.677	n/a	RESPONSE	M1	1	16	E4	release
547.688	n/a	RESPONSE	M1	1	04	E3	release
547.729	n/a	RESPONSE	M1	1	07	G3	press
547.782	n/a	RESPONSE	M1	1	19	G4	press
548.352	n/a	RESPONSE	M1	1	19	G4	release
548.583	n/a	RESPONSE	M1	1	07	G3	release
549.05	7.758	FIXCROSS	n/a	n/a	n/a	n/a	n/a
556.808	6.317	CUE_LISTEN	M1	2	n/a	n/a	n/a
563.125	7.758	FIXCROSS	n/a	n/a	n/a	n/a	n/a
570.884	6.317	CUE_PLAYBACK_BOTH_HANDS	M1	2	n/a	n/a	n/a
571.963	n/a	RESPONSE	M1	2	07	G3	press
571.984	n/a	RESPONSE	M1	2	19	G4	press
572.353	n/a	RESPONSE	M1	2	19	G4	release
572.36	n/a	RESPONSE	M1	2	07	G3	release
572.495	n/a	RESPONSE	M1	2	04	E3	press
572.524	n/a	RESPONSE	M1	2	16	E4	press
572.917	n/a	RESPONSE	M1	2	16	E4	release
573.01	n/a	RESPONSE	M1	2	16	E4	press
573.336	n/a	RESPONSE	M1	2	04	E3	release
573.348	n/a	RESPONSE	M1	2	16	E4	release
573.532	n/a	RESPONSE	M1	2	05	F3	press
573.56	n/a	RESPONSE	M1	2	17	F4	press
573.862	n/a	RESPONSE	M1	2	17	F4	release
573.864	n/a	RESPONSE	M1	2	05	F3	release
574.044	n/a	RESPONSE	M1	2	02	D3	press
574.065	n/a	RESPONSE	M1	2	14	D4	press
574.319	n/a	RESPONSE	M1	2	02	D3	release
574.338	n/a	RESPONSE	M1	2	14	D4	release
574.52	n/a	RESPONSE	M1	2	02	D3	press
574.56	n/a	RESPONSE	M1	2	14	D4	press
574.832	n/a	RESPONSE	M1	2	02	D3	release
574.834	n/a	RESPONSE	M1	2	14	D4	release
575.004	n/a	RESPONSE	M1	2	00	C3	press
575.055	n/a	RESPONSE	M1	2	12	C4	press
575.346	n/a	RESPONSE	M1	2	00	C3	release
575.349	n/a	RESPONSE	M1	2	04	E3	press
575.359	n/a	RESPONSE	M1	2	12	C4	release
575.39	n/a	RESPONSE	M1	2	16	E4	press
575.602	n/a	RESPONSE	M1	2	04	E3	release
575.614	n/a	RESPONSE	M1	2	16	E4	release
575.726	n/a	RESPONSE	M1	2	00	C3	press
575.735	n/a	RESPONSE	M1	2	12	C4	press
576.446	n/a	RESPONSE	M1	2	00	C3	release
576.458	n/a	RESPONSE	M1	2	12	C4	release
577.2	7.758	FIXCROSS	n/a	n/a	n/a	n/a	n/a
584.958	6.325	CUE_LISTEN	M1	1	n/a	n/a	n/a
591.283	7.758	FIXCROSS	n/a	n/a	n/a	n/a	n/a
599.042	6.317	CUE_PLAYBACK_RIGHT_HAND	M1	1	n/a	n/a	n/a
599.733	n/a	RESPONSE	M1	1	19	G4	press
600.125	n/a	RESPONSE	M1	1	19	G4	release
600.304	n/a	RESPONSE	M1	1	16	E4	press
600.572	n/a	RESPONSE	M1	1	16	E4	release
600.808	n/a	RESPONSE	M1	1	16	E4	press
601.214	n/a	RESPONSE	M1	1	16	E4	release
601.358	n/a	RESPONSE	M1	1	17	F4	press
601.722	n/a	RESPONSE	M1	1	17	F4	release
601.885	n/a	RESPONSE	M1	1	14	D4	press
602.179	n/a	RESPONSE	M1	1	14	D4	release
602.386	n/a	RESPONSE	M1	1	14	D4	press
602.743	n/a	RESPONSE	M1	1	14	D4	release
602.983	n/a	RESPONSE	M1	1	12	C4	press
603.278	n/a	RESPONSE	M1	1	16	E4	press
603.389	n/a	RESPONSE	M1	1	12	C4	release
603.582	n/a	RESPONSE	M1	1	16	E4	release
603.624	n/a	RESPONSE	M1	1	19	G4	press
604.513	n/a	RESPONSE	M1	1	19	G4	release
605.358	7.758	FIXCROSS	n/a	n/a	n/a	n/a	n/a
613.117	6.317	CUE_LISTEN	M1	2	n/a	n/a	n/a
619.434	7.758	FIXCROSS	n/a	n/a	n/a	n/a	n/a
627.192	6.325	CUE_PLAYBACK_RIGHT_HAND	M1	2	n/a	n/a	n/a
628.375	n/a	RESPONSE	M1	2	19	G4	press
628.766	n/a	RESPONSE	M1	2	19	G4	release
628.929	n/a	RESPONSE	M1	2	16	E4	press
629.199	n/a	RESPONSE	M1	2	16	E4	release
629.43	n/a	RESPONSE	M1	2	16	E4	press
629.735	n/a	RESPONSE	M1	2	16	E4	release
629.9	n/a	RESPONSE	M1	2	17	F4	press
630.216	n/a	RESPONSE	M1	2	17	F4	release
630.406	n/a	RESPONSE	M1	2	14	D4	press
630.689	n/a	RESPONSE	M1	2	14	D4	release
630.902	n/a	RESPONSE	M1	2	14	D4	press
631.202	n/a	RESPONSE	M1	2	14	D4	release
631.419	n/a	RESPONSE	M1	2	12	C4	press
631.662	n/a	RESPONSE	M1	2	12	C4	release
631.665	n/a	RESPONSE	M1	2	16	E4	press
631.895	n/a	RESPONSE	M1	2	12	C4	press
631.963	n/a	RESPONSE	M1	2	16	E4	release
632.484	n/a	RESPONSE	M1	2	12	C4	release
633.517	7.759	FIXCROSS	n/a	n/a	n/a	n/a	n/a
641.275	6.317	CUE_LISTEN	M1	1	n/a	n/a	n/a
647.592	7.758	FIXCROSS	n/a	n/a	n/a	n/a	n/a
655.35	6.317	CUE_PLAYBACK_BOTH_HANDS	M1	1	n/a	n/a	n/a
656.068	n/a	RESPONSE	M1	1	07	G3	press
656.09	n/a	RESPONSE	M1	1	19	G4	press
656.421	n/a	RESPONSE	M1	1	19	G4	release
656.512	n/a	RESPONSE	M1	1	07	G3	release
656.603	n/a	RESPONSE	M1	1	04	E3	press
656.634	n/a	RESPONSE	M1	1	16	E4	press
656.925	n/a	RESPONSE	M1	1	16	E4	release
657.126	n/a	RESPONSE	M1	1	16	E4	press
657.448	n/a	RESPONSE	M1	1	16	E4	release
657.459	n/a	RESPONSE	M1	1	04	E3	release
657.63	n/a	RESPONSE	M1	1	05	F3	press
657.641	n/a	RESPONSE	M1	1	17	F4	press
657.963	n/a	RESPONSE	M1	1	05	F3	release
657.965	n/a	RESPONSE	M1	1	17	F4	release
658.118	n/a	RESPONSE	M1	1	02	D3	press
658.148	n/a	RESPONSE	M1	1	14	D4	press
658.4	n/a	RESPONSE	M1	1	02	D3	release
658.409	n/a	RESPONSE	M1	1	14	D4	release
658.62	n/a	RESPONSE	M1	1	02	D3	press
658.652	n/a	RESPONSE	M1	1	14	D4	press
658.913	n/a	RESPONSE	M1	1	02	D3	release
658.936	n/a	RESPONSE	M1	1	14	D4	release
659.085	n/a	RESPONSE	M1	1	00	C3	press
659.096	n/a	RESPONSE	M1	1	12	C4	press
659.388	n/a	RESPONSE	M1	1	12	C4	release
659.429	n/a	RESPONSE	M1	1	00	C3	release
659.432	n/a	RESPONSE	M1	1	04	E3	press
659.472	n/a	RESPONSE	M1	1	16	E4	press
659.725	n/a	RESPONSE	M1	1	16	E4	release
659.762	n/a	RESPONSE	M1	1	04	E3	release
659.83	n/a	RESPONSE	M1	1	07	G3	press
659.846	n/a	RESPONSE	M1	1	19	G4	press
660.473	n/a	RESPONSE	M1	1	19	G4	release
660.703	n/a	RESPONSE	M1	1	07	G3	release
661.667	7.758	FIXCROSS	n/a	n/a	n/a	n/a	n/a
669.425	6.325	CUE_LISTEN	M1	2	n/a	n/a	n/a
675.75	7.758	FIXCROSS	n/a	n/a	n/a	n/a	n/a
683.509	6.317	CUE_PLAYBACK_BOTH_HANDS	M1	2	n/a	n/a	n/a
684.69	n/a	RESPONSE	M1	2	19	G4	press
684.733	n/a	RESPONSE	M1	2	07	G3	press
685.063	n/a	RESPONSE	M1	2	19	G4	release
685.174	n/a	RESPONSE	M1	2	07	G3	release
685.215	n/a	RESPONSE	M1	2	04	E3	press
685.238	n/a	RESPONSE	M1	2	16	E4	press
685.538	n/a	RESPONSE	M1	2	16	E4	release
685.749	n/a	RESPONSE	M1	2	16	E4	press
686.04	n/a	RESPONSE	M1	2	04	E3	release
686.043	n/a	RESPONSE	M1	2	16	E4	release
686.223	n/a	RESPONSE	M1	2	05	F3	press
686.236	n/a	RESPONSE	M1	2	17	F4	press
686.525	n/a	RESPONSE	M1	2	05	F3	release
686.546	n/a	RESPONSE	M1	2	17	F4	release
686.738	n/a	RESPONSE	M1	2	14	D4	press
686.743	n/a	RESPONSE	M1	2	02	D3	press
687.061	n/a	RESPONSE	M1	2	14	D4	release
687.265	n/a	RESPONSE	M1	2	14	D4	press
687.506	n/a	RESPONSE	M1	2	02	D3	release
687.545	n/a	RESPONSE	M1	2	14	D4	release
687.726	n/a	RESPONSE	M1	2	00	C3	press
687.75	n/a	RESPONSE	M1	2	12	C4	press
687.969	n/a	RESPONSE	M1	2	12	C4	release
688.013	n/a	RESPONSE	M1	2	00	C3	release
688.031	n/a	RESPONSE	M1	2	04	E3	press
688.083	n/a	RESPONSE	M1	2	16	E4	press
688.304	n/a	RESPONSE	M1	2	04	E3	release
688.345	n/a	RESPONSE	M1	2	16	E4	release
688.406	n/a	RESPONSE	M1	2	12	C4	press
688.418	n/a	RESPONSE	M1	2	00	C3	press
689.059	n/a	RESPONSE	M1	2	00	C3	release
689.15	n/a	RESPONSE	M1	2	12	C4	release
689.825	7.758	FIXCROSS	n/a	n/a	n/a	n/a	n/a
697.584	6.325	CUE_LISTEN	M1	1	n/a	n/a	n/a
703.909	7.758	FIXCROSS	n/a	n/a	n/a	n/a	n/a
711.667	6.317	CUE_PLAYBACK_RIGHT_HAND	M1	1	n/a	n/a	n/a
712.396	n/a	RESPONSE	M1	1	19	G4	press
712.863	n/a	RESPONSE	M1	1	19	G4	release
713.005	n/a	RESPONSE	M1	1	16	E4	press
713.365	n/a	RESPONSE	M1	1	16	E4	release
713.516	n/a	RESPONSE	M1	1	16	E4	press
713.958	n/a	RESPONSE	M1	1	16	E4	release
714.099	n/a	RESPONSE	M1	1	17	F4	press
714.51	n/a	RESPONSE	M1	1	17	F4	release
714.651	n/a	RESPONSE	M1	1	14	D4	press
715.043	n/a	RESPONSE	M1	1	14	D4	release
715.185	n/a	RESPONSE	M1	1	14	D4	press
715.575	n/a	RESPONSE	M1	1	14	D4	release
715.866	n/a	RESPONSE	M1	1	12	C4	press
716.148	n/a	RESPONSE	M1	1	12	C4	release
716.189	n/a	RESPONSE	M1	1	16	E4	press
716.49	n/a	RESPONSE	M1	1	16	E4	release
716.504	n/a	RESPONSE	M1	1	19	G4	press
717.173	n/a	RESPONSE	M1	1	19	G4	release
717.984	7.758	FIXCROSS	n/a	n/a	n/a	n/a	n/a
725.742	6.317	CUE_LISTEN	M1	2	n/a	n/a	n/a
732.059	7.758	FIXCROSS	n/a	n/a	n/a	n/a	n/a
739.817	6.325	CUE_PLAYBACK_RIGHT_HAND	M1	2	n/a	n/a	n/a
740.52	n/a	RESPONSE	M1	2	19	G4	press
740.9	n/a	RESPONSE	M1	2	19	G4	release
741.085	n/a	RESPONSE	M1	2	16	E4	press
741.355	n/a	RESPONSE	M1	2	16	E4	release
741.598	n/a	RESPONSE	M1	2	16	E4	press
741.924	n/a	RESPONSE	M1	2	16	E4	release
742.13	n/a	RESPONSE	M1	2	17	F4	press
742.455	n/a	RESPONSE	M1	2	17	F4	release
742.641	n/a	RESPONSE	M1	2	14	D4	press
742.996	n/a	RESPONSE	M1	2	14	D4	release
743.171	n/a	RESPONSE	M1	2	14	D4	press
743.51	n/a	RESPONSE	M1	2	14	D4	release
743.721	n/a	RESPONSE	M1	2	12	C4	press
744.003	n/a	RESPONSE	M1	2	12	C4	release
744.005	n/a	RESPONSE	M1	2	16	E4	press
744.285	n/a	RESPONSE	M1	2	16	E4	release
744.288	n/a	RESPONSE	M1	2	12	C4	press
744.898	n/a	RESPONSE	M1	2	12	C4	release
746.142	7.758	FIXCROSS	n/a	n/a	n/a	n/a	n/a
753.9	6.317	CUE_LISTEN	M1	1	n/a	n/a	n/a
760.217	7.758	FIXCROSS	n/a	n/a	n/a	n/a	n/a
767.976	6.317	CUE_PLAYBACK_BOTH_HANDS	M1	1	n/a	n/a	n/a
768.686	n/a	RESPONSE	M1	1	07	G3	press
768.708	n/a	RESPONSE	M1	1	19	G4	press
769.019	n/a	RESPONSE	M1	1	19	G4	release
769.153	n/a	RESPONSE	M1	1	07	G3	release
769.203	n/a	RESPONSE	M1	1	04	E3	press
769.215	n/a	RESPONSE	M1	1	16	E4	press
770.115	n/a	RESPONSE	M1	1	16	E4	release
770.125	n/a	RESPONSE	M1	1	04	E3	release
770.29	n/a	RESPONSE	M1	1	17	F4	press
770.296	n/a	RESPONSE	M1	1	05	F3	press
770.606	n/a	RESPONSE	M1	1	05	F3	release
770.61	n/a	RESPONSE	M1	1	17	F4	release
770.76	n/a	RESPONSE	M1	1	02	D3	press
770.776	n/a	RESPONSE	M1	1	14	D4	press
771.045	n/a	RESPONSE	M1	1	14	D4	release
771.054	n/a	RESPONSE	M1	1	02	D3	release
771.27	n/a	RESPONSE	M1	1	02	D3	press
771.289	n/a	RESPONSE	M1	1	14	D4	press
771.574	n/a	RESPONSE	M1	1	02	D3	release
771.601	n/a	RESPONSE	M1	1	14	D4	release
771.779	n/a	RESPONSE	M1	1	00	C3	press
771.79	n/a	RESPONSE	M1	1	12	C4	press
772.05	n/a	RESPONSE	M1	1	00	C3	release
772.065	n/a	RESPONSE	M1	1	12	C4	release
772.16	n/a	RESPONSE	M1	1	04	E3	press
772.19	n/a	RESPONSE	M1	1	16	E4	press
772.458	n/a	RESPONSE	M1	1	16	E4	release
772.46	n/a	RESPONSE	M1	1	04	E3	release
772.68	n/a	RESPONSE	M1	1	19	G4	press
772.69	n/a	RESPONSE	M1	1	07	G3	press
773.268	n/a	RESPONSE	M1	1	19	G4	release
773.471	n/a	RESPONSE	M1	1	07	G3	release
774.292	7.758	FIXCROSS	n/a	n/a	n/a	n/a	n/a
782.05	6.325	CUE_LISTEN	M1	2	n/a	n/a	n/a
788.375	7.759	FIXCROSS	n/a	n/a	n/a	n/a	n/a
796.134	6.317	CUE_PLAYBACK_BOTH_HANDS	M1	2	n/a	n/a	n/a
797.039	n/a	RESPONSE	M1	2	07	G3	press
797.093	n/a	RESPONSE	M1	2	19	G4	press
797.463	n/a	RESPONSE	M1	2	19	G4	release
797.575	n/a	RESPONSE	M1	2	07	G3	release
797.674	n/a	RESPONSE	M1	2	04	E3	press
797.695	n/a	RESPONSE	M1	2	16	E4	press
797.986	n/a	RESPONSE	M1	2	16	E4	release
798.218	n/a	RESPONSE	M1	2	16	E4	press
798.55	n/a	RESPONSE	M1	2	16	E4	release
798.57	n/a	RESPONSE	M1	2	04	E3	release
798.761	n/a	RESPONSE	M1	2	17	F4	press
798.764	n/a	RESPONSE	M1	2	05	F3	press
799.066	n/a	RESPONSE	M1	2	17	F4	release
799.135	n/a	RESPONSE	M1	2	05	F3	release
799.286	n/a	RESPONSE	M1	2	02	D3	press
799.298	n/a	RESPONSE	M1	2	14	D4	press
799.62	n/a	RESPONSE	M1	2	14	D4	release
799.651	n/a	RESPONSE	M1	2	02	D3	release
799.806	n/a	RESPONSE	M1	2	02	D3	press
799.836	n/a	RESPONSE	M1	2	14	D4	press
800.123	n/a	RESPONSE	M1	2	02	D3	release
800.133	n/a	RESPONSE	M1	2	14	D4	release
800.349	n/a	RESPONSE	M1	2	00	C3	press
800.391	n/a	RESPONSE	M1	2	12	C4	press
800.581	n/a	RESPONSE	M1	2	00	C3	release
800.654	n/a	RESPONSE	M1	2	12	C4	release
800.724	n/a	RESPONSE	M1	2	04	E3	press
800.738	n/a	RESPONSE	M1	2	16	E4	press
801.02	n/a	RESPONSE	M1	2	16	E4	release
801.069	n/a	RESPONSE	M1	2	04	E3	release
801.27	n/a	RESPONSE	M1	2	00	C3	press
801.275	n/a	RESPONSE	M1	2	12	C4	press
801.833	n/a	RESPONSE	M1	2	00	C3	release
801.868	n/a	RESPONSE	M1	2	12	C4	release
802.45	7.758	FIXCROSS	n/a	n/a	n/a	n/a	n/a
810.209	6.317	CUE_LISTEN	M1	1	n/a	n/a	n/a
816.526	7.758	FIXCROSS	n/a	n/a	n/a	n/a	n/a
824.284	6.325	CUE_PLAYBACK_RIGHT_HAND	M1	1	n/a	n/a	n/a
825.103	n/a	RESPONSE	M1	1	19	G4	press
825.463	n/a	RESPONSE	M1	1	19	G4	release
825.624	n/a	RESPONSE	M1	1	16	E4	press
825.905	n/a	RESPONSE	M1	1	16	E4	release
826.156	n/a	RESPONSE	M1	1	16	E4	press
826.468	n/a	RESPONSE	M1	1	16	E4	release
826.73	n/a	RESPONSE	M1	1	17	F4	press
827.02	n/a	RESPONSE	M1	1	17	F4	release
827.261	n/a	RESPONSE	M1	1	14	D4	press
827.523	n/a	RESPONSE	M1	1	14	D4	release
827.825	n/a	RESPONSE	M1	1	14	D4	press
828.165	n/a	RESPONSE	M1	1	14	D4	release
828.386	n/a	RESPONSE	M1	1	12	C4	press
828.629	n/a	RESPONSE	M1	1	12	C4	release
828.761	n/a	RESPONSE	M1	1	16	E4	press
829.0	n/a	RESPONSE	M1	1	16	E4	release
829.131	n/a	RESPONSE	M1	1	19	G4	press
829.685	n/a	RESPONSE	M1	1	19	G4	release
830.609	7.758	FIXCROSS	n/a	n/a	n/a	n/a	n/a
838.367	6.317	CUE_LISTEN	M1	2	n/a	n/a	n/a
844.684	7.758	FIXCROSS	n/a	n/a	n/a	n/a	n/a
852.442	6.325	CUE_PLAYBACK_RIGHT_HAND	M1	2	n/a	n/a	n/a
853.129	n/a	RESPONSE	M1	2	19	G4	press
853.455	n/a	RESPONSE	M1	2	19	G4	release
853.646	n/a	RESPONSE	M1	2	16	E4	press
853.898	n/a	RESPONSE	M1	2	16	E4	release
854.139	n/a	RESPONSE	M1	2	16	E4	press
854.471	n/a	RESPONSE	M1	2	16	E4	release
854.711	n/a	RESPONSE	M1	2	17	F4	press
855.022	n/a	RESPONSE	M1	2	17	F4	release
855.264	n/a	RESPONSE	M1	2	14	D4	press
855.515	n/a	RESPONSE	M1	2	14	D4	release
855.756	n/a	RESPONSE	M1	2	14	D4	press
856.07	n/a	RESPONSE	M1	2	14	D4	release
856.34	n/a	RESPONSE	M1	2	12	C4	press
856.582	n/a	RESPONSE	M1	2	12	C4	release
856.721	n/a	RESPONSE	M1	2	16	E4	press
857.022	n/a	RESPONSE	M1	2	16	E4	release
857.154	n/a	RESPONSE	M1	2	12	C4	press
857.688	n/a	RESPONSE	M1	2	12	C4	release
858.767	7.758	FIXCROSS	n/a	n/a	n/a	n/a	n/a
866.526	6.317	CUE_LISTEN	M1	1	n/a	n/a	n/a
872.842	7.758	FIXCROSS	n/a	n/a	n/a	n/a	n/a
880.601	6.317	CUE_PLAYBACK_BOTH_HANDS	M1	1	n/a	n/a	n/a
882.704	n/a	RESPONSE	M1	1	19	G4	press
882.716	n/a	RESPONSE	M1	1	07	G3	press
883.059	n/a	RESPONSE	M1	1	19	G4	release
883.106	n/a	RESPONSE	M1	1	07	G3	release
883.208	n/a	RESPONSE	M1	1	04	E3	press
883.232	n/a	RESPONSE	M1	1	16	E4	press
883.508	n/a	RESPONSE	M1	1	16	E4	release
883.569	n/a	RESPONSE	M1	1	04	E3	release
883.72	n/a	RESPONSE	M1	1	04	E3	press
883.741	n/a	RESPONSE	M1	1	16	E4	press
884.072	n/a	RESPONSE	M1	1	16	E4	release
884.084	n/a	RESPONSE	M1	1	04	E3	release
884.245	n/a	RESPONSE	M1	1	05	F3	press
884.266	n/a	RESPONSE	M1	1	17	F4	press
884.55	n/a	RESPONSE	M1	1	05	F3	release
884.569	n/a	RESPONSE	M1	1	17	F4	release
884.73	n/a	RESPONSE	M1	1	02	D3	press
884.751	n/a	RESPONSE	M1	1	14	D4	press
885.022	n/a	RESPONSE	M1	1	02	D3	release
885.044	n/a	RESPONSE	M1	1	14	D4	release
885.255	n/a	RESPONSE	M1	1	02	D3	press
885.266	n/a	RESPONSE	M1	1	14	D4	press
885.538	n/a	RESPONSE	M1	1	02	D3	release
885.569	n/a	RESPONSE	M1	1	14	D4	release
885.73	n/a	RESPONSE	M1	1	00	C3	press
885.781	n/a	RESPONSE	M1	1	12	C4	press
886.002	n/a	RESPONSE	M1	1	12	C4	release
886.024	n/a	RESPONSE	M1	1	04	E3	press
886.045	n/a	RESPONSE	M1	1	00	C3	release
886.048	n/a	RESPONSE	M1	1	16	E4	press
886.249	n/a	RESPONSE	M1	1	16	E4	release
886.269	n/a	RESPONSE	M1	1	04	E3	release
886.32	n/a	RESPONSE	M1	1	07	G3	press
886.381	n/a	RESPONSE	M1	1	19	G4	press
886.917	7.758	FIXCROSS	n/a	n/a	n/a	n/a	n/a
886.972	n/a	RESPONSE	M1	1	19	G4	release
887.174	n/a	RESPONSE	M1	1	07	G3	release
894.676	6.317	CUE_LISTEN	M1	2	n/a	n/a	n/a
900.992	7.758	FIXCROSS	n/a	n/a	n/a	n/a	n/a
908.751	65.621	CUE_PLAYBACK_BOTH_HANDS	M1	2	n/a	n/a	n/a
909.645	n/a	RESPONSE	M1	2	07	G3	press
909.696	n/a	RESPONSE	M1	2	19	G4	press
910.105	n/a	RESPONSE	M1	2	19	G4	release
910.17	n/a	RESPONSE	M1	2	07	G3	release
910.279	n/a	RESPONSE	M1	2	04	E3	press
910.322	n/a	RESPONSE	M1	2	16	E4	press
910.622	n/a	RESPONSE	M1	2	16	E4	release
910.665	n/a	RESPONSE	M1	2	04	E3	release
910.798	n/a	RESPONSE	M1	2	04	E3	press
910.824	n/a	RESPONSE	M1	2	16	E4	press
911.109	n/a	RESPONSE	M1	2	04	E3	release
911.122	n/a	RESPONSE	M1	2	16	E4	release
911.297	n/a	RESPONSE	M1	2	05	F3	press
911.31	n/a	RESPONSE	M1	2	17	F4	press
911.612	n/a	RESPONSE	M1	2	05	F3	release
911.635	n/a	RESPONSE	M1	2	17	F4	release
911.828	n/a	RESPONSE	M1	2	02	D3	press
911.851	n/a	RESPONSE	M1	2	14	D4	press
912.129	n/a	RESPONSE	M1	2	02	D3	release
912.134	n/a	RESPONSE	M1	2	14	D4	release
912.331	n/a	RESPONSE	M1	2	02	D3	press
912.36	n/a	RESPONSE	M1	2	14	D4	press
912.608	n/a	RESPONSE	M1	2	02	D3	release
912.646	n/a	RESPONSE	M1	2	14	D4	release
912.869	n/a	RESPONSE	M1	2	00	C3	press
912.878	n/a	RESPONSE	M1	2	12	C4	press
913.149	n/a	RESPONSE	M1	2	12	C4	release
913.161	n/a	RESPONSE	M1	2	00	C3	release
913.246	n/a	FIXCROSS	n/a	n/a	n/a	n/a	n/a
913.324	n/a	RESPONSE	M1	2	04	E3	press
913.354	n/a	RESPONSE	M1	2	16	E4	press
913.624	n/a	RESPONSE	M1	2	04	E3	release
913.635	n/a	RESPONSE	M1	2	16	E4	release
913.786	n/a	RESPONSE	M1	2	12	C4	press
913.789	n/a	RESPONSE	M1	2	00	C3	press
914.369	n/a	RESPONSE	M1	2	00	C3	release
914.41	n/a	RESPONSE	M1	2	12	C4	release
