onset	duration	trial_type	trial_number	stroop_condition	stim_text(PL)	stim_text(eng)	stim_color(PL)	stim_color(eng)	response_type	response_color
0.0	n/a	RESPONSE	n/a	n/a	n/a	n/a	n/a	n/a	n/a	n/a
0.028	1.0	ITI	n/a	n/a	n/a	n/a	n/a	n/a	n/a	n/a
1.028	0.5	FIXCROSS	n/a	n/a	n/a	n/a	n/a	n/a	n/a	n/a
1.5281	0.6667	T_INK	1	Neutral	xxxxx	xxxxx	zielony	green	hit	n/a
2.1755	n/a	RESPONSE	n/a	n/a	n/a	n/a	n/a	n/a	n/a	green
2.1947	0.5	FEEDBACK	n/a	n/a	n/a	n/a	n/a	n/a	n/a	n/a
2.6947	1.0	ITI	n/a	n/a	n/a	n/a	n/a	n/a	n/a	n/a
3.6947	0.5	FIXCROSS	n/a	n/a	n/a	n/a	n/a	n/a	n/a	n/a
4.1948	1.6	T_INK	2	Incongruent	czerwony	red	żółty	yellow	hit	n/a
5.7747	n/a	RESPONSE	n/a	n/a	n/a	n/a	n/a	n/a	n/a	yellow
5.7948	0.5	FEEDBACK	n/a	n/a	n/a	n/a	n/a	n/a	n/a	n/a
6.2948	1.0	ITI	n/a	n/a	n/a	n/a	n/a	n/a	n/a	n/a
7.2948	0.5	FIXCROSS	n/a	n/a	n/a	n/a	n/a	n/a	n/a	n/a
7.7948	0.6833	T_INK	3	Incongruent	zielony	green	czerwony	red	hit	n/a
8.4622	n/a	RESPONSE	n/a	n/a	n/a	n/a	n/a	n/a	n/a	red
8.4781	0.5	FEEDBACK	n/a	n/a	n/a	n/a	n/a	n/a	n/a	n/a
8.9781	1.0	ITI	n/a	n/a	n/a	n/a	n/a	n/a	n/a	n/a
9.9782	0.5	FIXCROSS	n/a	n/a	n/a	n/a	n/a	n/a	n/a	n/a
10.4782	0.85	T_INK	4	Neutral	xxxxxxx	xxxxxxx	żółty	yellow	hit	n/a
11.3096	n/a	RESPONSE	n/a	n/a	n/a	n/a	n/a	n/a	n/a	yellow
11.3282	0.5	FEEDBACK	n/a	n/a	n/a	n/a	n/a	n/a	n/a	n/a
11.8282	1.0	ITI	n/a	n/a	n/a	n/a	n/a	n/a	n/a	n/a
12.8282	0.5167	FIXCROSS	n/a	n/a	n/a	n/a	n/a	n/a	n/a	n/a
13.3449	0.7833	T_INK	5	Incongruent	żółty	yellow	czerwony	red	hit	n/a
14.0929	n/a	RESPONSE	n/a	n/a	n/a	n/a	n/a	n/a	n/a	red
14.1282	0.5167	FEEDBACK	n/a	n/a	n/a	n/a	n/a	n/a	n/a	n/a
14.6449	1.0167	ITI	n/a	n/a	n/a	n/a	n/a	n/a	n/a	n/a
15.6616	0.5167	FIXCROSS	n/a	n/a	n/a	n/a	n/a	n/a	n/a	n/a
16.1782	0.75	T_INK	6	Incongruent	czerwony	red	zielony	green	hit	n/a
16.9084	n/a	RESPONSE	n/a	n/a	n/a	n/a	n/a	n/a	n/a	green
16.9282	0.5167	FEEDBACK	n/a	n/a	n/a	n/a	n/a	n/a	n/a	n/a
17.4449	1.0167	ITI	n/a	n/a	n/a	n/a	n/a	n/a	n/a	n/a
18.4616	0.5167	FIXCROSS	n/a	n/a	n/a	n/a	n/a	n/a	n/a	n/a
18.9783	0.85	T_INK	7	Neutral	xxxxx	xxxxx	niebieski	blue	hit	n/a
19.8037	n/a	RESPONSE	n/a	n/a	n/a	n/a	n/a	n/a	n/a	blue
19.8283	0.5167	FEEDBACK	n/a	n/a	n/a	n/a	n/a	n/a	n/a	n/a
20.3449	1.0167	ITI	n/a	n/a	n/a	n/a	n/a	n/a	n/a	n/a
21.3616	0.5167	FIXCROSS	n/a	n/a	n/a	n/a	n/a	n/a	n/a	n/a
21.8783	0.55	T_INK	8	Neutral	xxxxxxx	xxxxxxx	niebieski	blue	hit	n/a
22.3952	n/a	RESPONSE	n/a	n/a	n/a	n/a	n/a	n/a	n/a	blue
22.4283	0.5167	FEEDBACK	n/a	n/a	n/a	n/a	n/a	n/a	n/a	n/a
22.945	1.0167	ITI	n/a	n/a	n/a	n/a	n/a	n/a	n/a	n/a
23.9617	0.5167	FIXCROSS	n/a	n/a	n/a	n/a	n/a	n/a	n/a	n/a
24.4783	0.7667	T_INK	9	Incongruent	zielony	green	żółty	yellow	hit	n/a
25.2266	n/a	RESPONSE	n/a	n/a	n/a	n/a	n/a	n/a	n/a	yellow
25.245	0.5167	FEEDBACK	n/a	n/a	n/a	n/a	n/a	n/a	n/a	n/a
25.7617	1.0167	ITI	n/a	n/a	n/a	n/a	n/a	n/a	n/a	n/a
26.7784	0.5167	FIXCROSS	n/a	n/a	n/a	n/a	n/a	n/a	n/a	n/a
27.295	0.8	T_INK	10	Neutral	xxxxxxxx	xxxxxxxx	zielony	green	hit	n/a
28.0739	n/a	RESPONSE	n/a	n/a	n/a	n/a	n/a	n/a	n/a	green
28.095	0.5167	FEEDBACK	n/a	n/a	n/a	n/a	n/a	n/a	n/a	n/a
28.6117	1.0167	ITI	n/a	n/a	n/a	n/a	n/a	n/a	n/a	n/a
29.6284	0.5167	FIXCROSS	n/a	n/a	n/a	n/a	n/a	n/a	n/a	n/a
30.1451	0.7333	T_INK	11	Neutral	xxxxxxxxx	xxxxxxxxx	zielony	green	hit	n/a
30.8573	n/a	RESPONSE	n/a	n/a	n/a	n/a	n/a	n/a	n/a	green
30.8784	0.5167	FEEDBACK	n/a	n/a	n/a	n/a	n/a	n/a	n/a	n/a
31.3951	1.0167	ITI	n/a	n/a	n/a	n/a	n/a	n/a	n/a	n/a
32.4118	0.5167	FIXCROSS	n/a	n/a	n/a	n/a	n/a	n/a	n/a	n/a
32.9284	0.7667	T_INK	12	Incongruent	żółty	yellow	zielony	green	hit	n/a
33.6727	n/a	RESPONSE	n/a	n/a	n/a	n/a	n/a	n/a	n/a	green
33.6951	0.5167	FEEDBACK	n/a	n/a	n/a	n/a	n/a	n/a	n/a	n/a
34.2118	1.0333	ITI	n/a	n/a	n/a	n/a	n/a	n/a	n/a	n/a
41.1271	n/a	RESPONSE	n/a	n/a	n/a	n/a	n/a	n/a	n/a	n/a
41.1952	1.0167	ITI	n/a	n/a	n/a	n/a	n/a	n/a	n/a	n/a
42.2119	0.5167	FIXCROSS	n/a	n/a	n/a	n/a	n/a	n/a	n/a	n/a
42.7285	0.8333	INK	1	Neutral	xxxxxxxx	xxxxxxxx	niebieski	blue	hit	n/a
43.5426	n/a	RESPONSE	n/a	n/a	n/a	n/a	n/a	n/a	n/a	blue
43.5618	1.0167	ITI	n/a	n/a	n/a	n/a	n/a	n/a	n/a	n/a
44.5786	0.5167	FIXCROSS	n/a	n/a	n/a	n/a	n/a	n/a	n/a	n/a
45.0952	0.8	INK	2	Incongruent	niebieski	blue	czerwony	red	hit	n/a
45.8621	n/a	RESPONSE	n/a	n/a	n/a	n/a	n/a	n/a	n/a	red
45.8952	1.0167	ITI	n/a	n/a	n/a	n/a	n/a	n/a	n/a	n/a
46.9119	0.5167	FIXCROSS	n/a	n/a	n/a	n/a	n/a	n/a	n/a	n/a
47.4286	0.6167	INK	3	Incongruent	czerwony	red	zielony	green	hit	n/a
48.0216	n/a	RESPONSE	n/a	n/a	n/a	n/a	n/a	n/a	n/a	green
48.0453	1.0167	ITI	n/a	n/a	n/a	n/a	n/a	n/a	n/a	n/a
49.0619	0.5167	FIXCROSS	n/a	n/a	n/a	n/a	n/a	n/a	n/a	n/a
49.5786	0.9333	INK	4	Incongruent	czerwony	red	niebieski	blue	hit	n/a
50.4851	n/a	RESPONSE	n/a	n/a	n/a	n/a	n/a	n/a	n/a	blue
50.512	1.0167	ITI	n/a	n/a	n/a	n/a	n/a	n/a	n/a	n/a
51.5287	0.5167	FIXCROSS	n/a	n/a	n/a	n/a	n/a	n/a	n/a	n/a
52.0453	0.6167	INK	5	Neutral	xxxxx	xxxxx	niebieski	blue	hit	n/a
52.6286	n/a	RESPONSE	n/a	n/a	n/a	n/a	n/a	n/a	n/a	blue
52.662	1.0167	ITI	n/a	n/a	n/a	n/a	n/a	n/a	n/a	n/a
53.6787	0.5167	FIXCROSS	n/a	n/a	n/a	n/a	n/a	n/a	n/a	n/a
54.1953	0.9	INK	6	Incongruent	żółty	yellow	czerwony	red	hit	n/a
55.0761	n/a	RESPONSE	n/a	n/a	n/a	n/a	n/a	n/a	n/a	red
55.0954	1.0167	ITI	n/a	n/a	n/a	n/a	n/a	n/a	n/a	n/a
56.112	0.5167	FIXCROSS	n/a	n/a	n/a	n/a	n/a	n/a	n/a	n/a
56.6287	0.8333	INK	7	Neutral	xxxxxxxx	xxxxxxxx	niebieski	blue	hit	n/a
57.4436	n/a	RESPONSE	n/a	n/a	n/a	n/a	n/a	n/a	n/a	blue
57.4621	1.0167	ITI	n/a	n/a	n/a	n/a	n/a	n/a	n/a	n/a
58.4787	0.5167	FIXCROSS	n/a	n/a	n/a	n/a	n/a	n/a	n/a	n/a
58.9954	0.5833	INK	8	Neutral	xxxxxxxxx	xxxxxxxxx	żółty	yellow	hit	n/a
59.5551	n/a	RESPONSE	n/a	n/a	n/a	n/a	n/a	n/a	n/a	yellow
59.5787	1.0167	ITI	n/a	n/a	n/a	n/a	n/a	n/a	n/a	n/a
60.5954	0.5167	FIXCROSS	n/a	n/a	n/a	n/a	n/a	n/a	n/a	n/a
61.1121	0.7	INK	9	Incongruent	zielony	green	czerwony	red	hit	n/a
61.7946	n/a	RESPONSE	n/a	n/a	n/a	n/a	n/a	n/a	n/a	red
61.8121	1.0167	ITI	n/a	n/a	n/a	n/a	n/a	n/a	n/a	n/a
62.8288	0.5167	FIXCROSS	n/a	n/a	n/a	n/a	n/a	n/a	n/a	n/a
63.3455	0.4667	INK	10	Incongruent	żółty	yellow	czerwony	red	hit	n/a
63.7942	n/a	RESPONSE	n/a	n/a	n/a	n/a	n/a	n/a	n/a	red
63.8121	1.0167	ITI	n/a	n/a	n/a	n/a	n/a	n/a	n/a	n/a
64.8288	0.5167	FIXCROSS	n/a	n/a	n/a	n/a	n/a	n/a	n/a	n/a
65.3455	0.7667	INK	11	Incongruent	żółty	yellow	niebieski	blue	hit	n/a
66.0818	n/a	RESPONSE	n/a	n/a	n/a	n/a	n/a	n/a	n/a	blue
66.1122	1.0167	ITI	n/a	n/a	n/a	n/a	n/a	n/a	n/a	n/a
67.1288	0.5167	FIXCROSS	n/a	n/a	n/a	n/a	n/a	n/a	n/a	n/a
67.6455	0.6667	INK	12	Incongruent	czerwony	red	niebieski	blue	hit	n/a
68.2892	n/a	RESPONSE	n/a	n/a	n/a	n/a	n/a	n/a	n/a	blue
68.3122	1.0167	ITI	n/a	n/a	n/a	n/a	n/a	n/a	n/a	n/a
69.3289	0.5167	FIXCROSS	n/a	n/a	n/a	n/a	n/a	n/a	n/a	n/a
69.8455	0.7167	INK	13	Neutral	xxxxx	xxxxx	niebieski	blue	hit	n/a
70.5287	n/a	RESPONSE	n/a	n/a	n/a	n/a	n/a	n/a	n/a	blue
70.5622	1.0167	ITI	n/a	n/a	n/a	n/a	n/a	n/a	n/a	n/a
71.5789	0.5167	FIXCROSS	n/a	n/a	n/a	n/a	n/a	n/a	n/a	n/a
72.0956	0.65	INK	14	Neutral	xxxxx	xxxxx	zielony	green	hit	n/a
72.7203	n/a	RESPONSE	n/a	n/a	n/a	n/a	n/a	n/a	n/a	green
72.7456	1.0167	ITI	n/a	n/a	n/a	n/a	n/a	n/a	n/a	n/a
73.7622	0.5167	FIXCROSS	n/a	n/a	n/a	n/a	n/a	n/a	n/a	n/a
74.2789	0.6333	INK	15	Incongruent	żółty	yellow	zielony	green	hit	n/a
74.8798	n/a	RESPONSE	n/a	n/a	n/a	n/a	n/a	n/a	n/a	green
74.9123	1.0167	ITI	n/a	n/a	n/a	n/a	n/a	n/a	n/a	n/a
75.9289	0.5167	FIXCROSS	n/a	n/a	n/a	n/a	n/a	n/a	n/a	n/a
76.4456	0.6	INK	16	Incongruent	zielony	green	żółty	yellow	hit	n/a
77.0233	n/a	RESPONSE	n/a	n/a	n/a	n/a	n/a	n/a	n/a	yellow
77.0456	1.0167	ITI	n/a	n/a	n/a	n/a	n/a	n/a	n/a	n/a
78.0623	0.5167	FIXCROSS	n/a	n/a	n/a	n/a	n/a	n/a	n/a	n/a
78.579	0.7	INK	17	Neutral	xxxxxxx	xxxxxxx	żółty	yellow	hit	n/a
79.2468	n/a	RESPONSE	n/a	n/a	n/a	n/a	n/a	n/a	n/a	yellow
79.279	1.0167	ITI	n/a	n/a	n/a	n/a	n/a	n/a	n/a	n/a
80.2956	0.5167	FIXCROSS	n/a	n/a	n/a	n/a	n/a	n/a	n/a	n/a
80.8123	0.7833	INK	18	Neutral	xxxxxxx	xxxxxxx	czerwony	red	hit	n/a
81.5663	n/a	RESPONSE	n/a	n/a	n/a	n/a	n/a	n/a	n/a	red
81.5957	1.0167	ITI	n/a	n/a	n/a	n/a	n/a	n/a	n/a	n/a
82.6123	0.5167	FIXCROSS	n/a	n/a	n/a	n/a	n/a	n/a	n/a	n/a
83.129	0.4833	INK	19	Neutral	xxxxx	xxxxx	czerwony	red	hit	n/a
83.5819	n/a	RESPONSE	n/a	n/a	n/a	n/a	n/a	n/a	n/a	red
83.6124	1.0167	ITI	n/a	n/a	n/a	n/a	n/a	n/a	n/a	n/a
84.629	0.5167	FIXCROSS	n/a	n/a	n/a	n/a	n/a	n/a	n/a	n/a
85.1457	0.7	INK	20	Incongruent	czerwony	red	zielony	green	hit	n/a
85.8214	n/a	RESPONSE	n/a	n/a	n/a	n/a	n/a	n/a	n/a	green
85.8457	1.0167	ITI	n/a	n/a	n/a	n/a	n/a	n/a	n/a	n/a
86.8624	0.5167	FIXCROSS	n/a	n/a	n/a	n/a	n/a	n/a	n/a	n/a
87.3791	0.7	INK	21	Incongruent	czerwony	red	zielony	green	hit	n/a
88.0609	n/a	RESPONSE	n/a	n/a	n/a	n/a	n/a	n/a	n/a	green
88.0791	1.0167	ITI	n/a	n/a	n/a	n/a	n/a	n/a	n/a	n/a
89.0958	0.5167	FIXCROSS	n/a	n/a	n/a	n/a	n/a	n/a	n/a	n/a
89.6124	0.75	INK	22	Incongruent	żółty	yellow	niebieski	blue	hit	n/a
90.3324	n/a	RESPONSE	n/a	n/a	n/a	n/a	n/a	n/a	n/a	blue
90.3624	1.0167	ITI	n/a	n/a	n/a	n/a	n/a	n/a	n/a	n/a
91.3791	0.5167	FIXCROSS	n/a	n/a	n/a	n/a	n/a	n/a	n/a	n/a
91.8958	0.6	INK	23	Neutral	xxxxxxxx	xxxxxxxx	zielony	green	hit	n/a
92.476	n/a	RESPONSE	n/a	n/a	n/a	n/a	n/a	n/a	n/a	green
92.4958	1.0167	ITI	n/a	n/a	n/a	n/a	n/a	n/a	n/a	n/a
93.5125	0.5167	FIXCROSS	n/a	n/a	n/a	n/a	n/a	n/a	n/a	n/a
94.0291	0.7333	INK	24	Neutral	xxxxxxxx	xxxxxxxx	niebieski	blue	hit	n/a
94.7315	n/a	RESPONSE	n/a	n/a	n/a	n/a	n/a	n/a	n/a	blue
94.7625	1.0167	ITI	n/a	n/a	n/a	n/a	n/a	n/a	n/a	n/a
95.7792	0.5167	FIXCROSS	n/a	n/a	n/a	n/a	n/a	n/a	n/a	n/a
96.2958	0.5	INK	25	Neutral	xxxxx	xxxxx	niebieski	blue	hit	n/a
96.7631	n/a	RESPONSE	n/a	n/a	n/a	n/a	n/a	n/a	n/a	blue
96.7958	1.0167	ITI	n/a	n/a	n/a	n/a	n/a	n/a	n/a	n/a
97.8125	0.5167	FIXCROSS	n/a	n/a	n/a	n/a	n/a	n/a	n/a	n/a
98.3292	0.7667	INK	26	Incongruent	żółty	yellow	zielony	green	hit	n/a
99.0666	n/a	RESPONSE	n/a	n/a	n/a	n/a	n/a	n/a	n/a	green
99.0959	1.0167	ITI	n/a	n/a	n/a	n/a	n/a	n/a	n/a	n/a
100.1125	0.5167	FIXCROSS	n/a	n/a	n/a	n/a	n/a	n/a	n/a	n/a
100.6292	0.5333	INK	27	Neutral	xxxxxxxxx	xxxxxxxxx	zielony	green	hit	n/a
101.1301	n/a	RESPONSE	n/a	n/a	n/a	n/a	n/a	n/a	n/a	green
101.1626	1.0167	ITI	n/a	n/a	n/a	n/a	n/a	n/a	n/a	n/a
102.1792	0.5167	FIXCROSS	n/a	n/a	n/a	n/a	n/a	n/a	n/a	n/a
102.6959	0.5	INK	28	Neutral	xxxxxxx	xxxxxxx	żółty	yellow	hit	n/a
103.1777	n/a	RESPONSE	n/a	n/a	n/a	n/a	n/a	n/a	n/a	yellow
103.1959	1.0167	ITI	n/a	n/a	n/a	n/a	n/a	n/a	n/a	n/a
104.2126	0.5167	FIXCROSS	n/a	n/a	n/a	n/a	n/a	n/a	n/a	n/a
104.7293	0.4	INK	29	Incongruent	czerwony	red	żółty	yellow	hit	n/a
105.0972	n/a	RESPONSE	n/a	n/a	n/a	n/a	n/a	n/a	n/a	yellow
105.1293	1.0167	ITI	n/a	n/a	n/a	n/a	n/a	n/a	n/a	n/a
106.1459	0.5167	FIXCROSS	n/a	n/a	n/a	n/a	n/a	n/a	n/a	n/a
106.6626	0.6	INK	30	Neutral	xxxxxxxxx	xxxxxxxxx	zielony	green	hit	n/a
107.2408	n/a	RESPONSE	n/a	n/a	n/a	n/a	n/a	n/a	n/a	green
107.2626	1.0167	ITI	n/a	n/a	n/a	n/a	n/a	n/a	n/a	n/a
108.2793	0.5167	FIXCROSS	n/a	n/a	n/a	n/a	n/a	n/a	n/a	n/a
108.796	0.9167	INK	31	Neutral	xxxxx	xxxxx	czerwony	red	hit	n/a
109.6883	n/a	RESPONSE	n/a	n/a	n/a	n/a	n/a	n/a	n/a	red
109.7127	1.0167	ITI	n/a	n/a	n/a	n/a	n/a	n/a	n/a	n/a
110.7293	0.5167	FIXCROSS	n/a	n/a	n/a	n/a	n/a	n/a	n/a	n/a
111.246	0.5667	INK	32	Neutral	xxxxx	xxxxx	czerwony	red	hit	n/a
111.7838	n/a	RESPONSE	n/a	n/a	n/a	n/a	n/a	n/a	n/a	red
111.8127	1.0167	ITI	n/a	n/a	n/a	n/a	n/a	n/a	n/a	n/a
112.8294	0.5167	FIXCROSS	n/a	n/a	n/a	n/a	n/a	n/a	n/a	n/a
113.346	0.7333	INK	33	Neutral	xxxxxxxxx	xxxxxxxxx	zielony	green	hit	n/a
114.0554	n/a	RESPONSE	n/a	n/a	n/a	n/a	n/a	n/a	n/a	green
114.0794	1.0167	ITI	n/a	n/a	n/a	n/a	n/a	n/a	n/a	n/a
115.0961	0.5167	FIXCROSS	n/a	n/a	n/a	n/a	n/a	n/a	n/a	n/a
115.6127	0.7667	INK	34	Incongruent	zielony	green	czerwony	red	hit	n/a
116.3588	n/a	RESPONSE	n/a	n/a	n/a	n/a	n/a	n/a	n/a	red
116.3794	1.0167	ITI	n/a	n/a	n/a	n/a	n/a	n/a	n/a	n/a
117.3961	0.5167	FIXCROSS	n/a	n/a	n/a	n/a	n/a	n/a	n/a	n/a
117.9128	0.7	INK	35	Neutral	xxxxxxxx	xxxxxxxx	zielony	green	hit	n/a
118.5823	n/a	RESPONSE	n/a	n/a	n/a	n/a	n/a	n/a	n/a	green
118.6128	1.0167	ITI	n/a	n/a	n/a	n/a	n/a	n/a	n/a	n/a
119.6294	0.5167	FIXCROSS	n/a	n/a	n/a	n/a	n/a	n/a	n/a	n/a
120.1461	0.7167	INK	36	Incongruent	niebieski	blue	czerwony	red	hit	n/a
120.8378	n/a	RESPONSE	n/a	n/a	n/a	n/a	n/a	n/a	n/a	red
120.8628	1.0167	ITI	n/a	n/a	n/a	n/a	n/a	n/a	n/a	n/a
121.8795	0.5167	FIXCROSS	n/a	n/a	n/a	n/a	n/a	n/a	n/a	n/a
122.3961	0.8333	INK	37	Neutral	xxxxxxxxx	xxxxxxxxx	żółty	yellow	hit	n/a
123.2053	n/a	RESPONSE	n/a	n/a	n/a	n/a	n/a	n/a	n/a	yellow
123.2295	1.0167	ITI	n/a	n/a	n/a	n/a	n/a	n/a	n/a	n/a
124.2462	0.5167	FIXCROSS	n/a	n/a	n/a	n/a	n/a	n/a	n/a	n/a
124.7628	0.7833	INK	38	Incongruent	żółty	yellow	niebieski	blue	hit	n/a
125.5248	n/a	RESPONSE	n/a	n/a	n/a	n/a	n/a	n/a	n/a	blue
125.5462	1.0167	ITI	n/a	n/a	n/a	n/a	n/a	n/a	n/a	n/a
126.5629	0.5167	FIXCROSS	n/a	n/a	n/a	n/a	n/a	n/a	n/a	n/a
127.0795	0.7333	INK	39	Incongruent	czerwony	red	żółty	yellow	hit	n/a
127.7803	n/a	RESPONSE	n/a	n/a	n/a	n/a	n/a	n/a	n/a	yellow
127.8129	1.0167	ITI	n/a	n/a	n/a	n/a	n/a	n/a	n/a	n/a
128.8295	0.5167	FIXCROSS	n/a	n/a	n/a	n/a	n/a	n/a	n/a	n/a
129.3462	0.6167	INK	40	Neutral	xxxxxxxx	xxxxxxxx	zielony	green	hit	n/a
129.9399	n/a	RESPONSE	n/a	n/a	n/a	n/a	n/a	n/a	n/a	green
129.9629	1.0167	ITI	n/a	n/a	n/a	n/a	n/a	n/a	n/a	n/a
130.9796	0.5167	FIXCROSS	n/a	n/a	n/a	n/a	n/a	n/a	n/a	n/a
131.4962	0.7167	INK	41	Incongruent	zielony	green	żółty	yellow	hit	n/a
132.1794	n/a	RESPONSE	n/a	n/a	n/a	n/a	n/a	n/a	n/a	yellow
132.2129	1.0167	ITI	n/a	n/a	n/a	n/a	n/a	n/a	n/a	n/a
133.2296	0.5167	FIXCROSS	n/a	n/a	n/a	n/a	n/a	n/a	n/a	n/a
133.7463	0.65	INK	42	Incongruent	niebieski	blue	żółty	yellow	hit	n/a
134.3709	n/a	RESPONSE	n/a	n/a	n/a	n/a	n/a	n/a	n/a	yellow
134.3963	1.0167	ITI	n/a	n/a	n/a	n/a	n/a	n/a	n/a	n/a
135.413	0.5167	FIXCROSS	n/a	n/a	n/a	n/a	n/a	n/a	n/a	n/a
135.9296	0.7	INK	43	Neutral	xxxxxxx	xxxxxxx	czerwony	red	hit	n/a
136.6104	n/a	RESPONSE	n/a	n/a	n/a	n/a	n/a	n/a	n/a	red
136.6296	1.0167	ITI	n/a	n/a	n/a	n/a	n/a	n/a	n/a	n/a
137.6463	0.5167	FIXCROSS	n/a	n/a	n/a	n/a	n/a	n/a	n/a	n/a
138.163	0.5	INK	44	Neutral	xxxxxxxxx	xxxxxxxxx	czerwony	red	hit	n/a
138.642	n/a	RESPONSE	n/a	n/a	n/a	n/a	n/a	n/a	n/a	red
138.663	1.0167	ITI	n/a	n/a	n/a	n/a	n/a	n/a	n/a	n/a
139.6797	0.5167	FIXCROSS	n/a	n/a	n/a	n/a	n/a	n/a	n/a	n/a
140.1963	0.65	INK	45	Neutral	xxxxx	xxxxx	zielony	green	hit	n/a
140.8175	n/a	RESPONSE	n/a	n/a	n/a	n/a	n/a	n/a	n/a	green
140.8463	1.0167	ITI	n/a	n/a	n/a	n/a	n/a	n/a	n/a	n/a
141.863	0.5167	FIXCROSS	n/a	n/a	n/a	n/a	n/a	n/a	n/a	n/a
142.3797	0.75	INK	46	Neutral	xxxxxxxxx	xxxxxxxxx	czerwony	red	hit	n/a
143.1051	n/a	RESPONSE	n/a	n/a	n/a	n/a	n/a	n/a	n/a	red
143.1297	1.0167	ITI	n/a	n/a	n/a	n/a	n/a	n/a	n/a	n/a
144.1464	0.5167	FIXCROSS	n/a	n/a	n/a	n/a	n/a	n/a	n/a	n/a
144.6631	0.5667	INK	47	Incongruent	żółty	yellow	zielony	green	hit	n/a
145.2006	n/a	RESPONSE	n/a	n/a	n/a	n/a	n/a	n/a	n/a	green
145.2297	1.0167	ITI	n/a	n/a	n/a	n/a	n/a	n/a	n/a	n/a
146.2464	0.5167	FIXCROSS	n/a	n/a	n/a	n/a	n/a	n/a	n/a	n/a
146.7631	0.7167	INK	48	Incongruent	zielony	green	niebieski	blue	hit	n/a
147.4561	n/a	RESPONSE	n/a	n/a	n/a	n/a	n/a	n/a	n/a	blue
147.4798	1.0167	ITI	n/a	n/a	n/a	n/a	n/a	n/a	n/a	n/a
148.4964	0.5167	FIXCROSS	n/a	n/a	n/a	n/a	n/a	n/a	n/a	n/a
149.0131	0.7167	INK	49	Incongruent	niebieski	blue	żółty	yellow	hit	n/a
149.7116	n/a	RESPONSE	n/a	n/a	n/a	n/a	n/a	n/a	n/a	yellow
149.7298	1.0167	ITI	n/a	n/a	n/a	n/a	n/a	n/a	n/a	n/a
150.7465	0.5167	FIXCROSS	n/a	n/a	n/a	n/a	n/a	n/a	n/a	n/a
151.2631	0.65	INK	50	Incongruent	zielony	green	niebieski	blue	hit	n/a
151.8871	n/a	RESPONSE	n/a	n/a	n/a	n/a	n/a	n/a	n/a	blue
151.9131	1.0167	ITI	n/a	n/a	n/a	n/a	n/a	n/a	n/a	n/a
152.9298	0.5167	FIXCROSS	n/a	n/a	n/a	n/a	n/a	n/a	n/a	n/a
153.4465	0.5667	INK	51	Neutral	xxxxxxx	xxxxxxx	niebieski	blue	hit	n/a
153.9827	n/a	RESPONSE	n/a	n/a	n/a	n/a	n/a	n/a	n/a	blue
154.0132	1.0333	ITI	n/a	n/a	n/a	n/a	n/a	n/a	n/a	n/a
155.0465	0.5167	FIXCROSS	n/a	n/a	n/a	n/a	n/a	n/a	n/a	n/a
155.5632	0.6167	INK	52	Neutral	xxxxxxx	xxxxxxx	czerwony	red	hit	n/a
156.1582	n/a	RESPONSE	n/a	n/a	n/a	n/a	n/a	n/a	n/a	red
156.1799	1.0167	ITI	n/a	n/a	n/a	n/a	n/a	n/a	n/a	n/a
157.1965	0.5167	FIXCROSS	n/a	n/a	n/a	n/a	n/a	n/a	n/a	n/a
157.7132	0.55	INK	53	Incongruent	żółty	yellow	czerwony	red	hit	n/a
158.2377	n/a	RESPONSE	n/a	n/a	n/a	n/a	n/a	n/a	n/a	red
158.2632	1.0167	ITI	n/a	n/a	n/a	n/a	n/a	n/a	n/a	n/a
159.2799	0.5167	FIXCROSS	n/a	n/a	n/a	n/a	n/a	n/a	n/a	n/a
159.7966	0.8667	INK	54	Neutral	xxxxx	xxxxx	zielony	green	hit	n/a
160.6372	n/a	RESPONSE	n/a	n/a	n/a	n/a	n/a	n/a	n/a	green
160.6633	1.0167	ITI	n/a	n/a	n/a	n/a	n/a	n/a	n/a	n/a
161.6799	0.5167	FIXCROSS	n/a	n/a	n/a	n/a	n/a	n/a	n/a	n/a
162.1966	0.5667	INK	55	Incongruent	niebieski	blue	zielony	green	hit	n/a
162.7328	n/a	RESPONSE	n/a	n/a	n/a	n/a	n/a	n/a	n/a	green
162.7633	1.0167	ITI	n/a	n/a	n/a	n/a	n/a	n/a	n/a	n/a
163.7799	0.5167	FIXCROSS	n/a	n/a	n/a	n/a	n/a	n/a	n/a	n/a
164.2966	0.65	INK	56	Neutral	xxxxxxxx	xxxxxxxx	żółty	yellow	hit	n/a
164.9243	n/a	RESPONSE	n/a	n/a	n/a	n/a	n/a	n/a	n/a	yellow
164.9466	1.0167	ITI	n/a	n/a	n/a	n/a	n/a	n/a	n/a	n/a
165.9633	0.5167	FIXCROSS	n/a	n/a	n/a	n/a	n/a	n/a	n/a	n/a
166.48	0.55	INK	57	Incongruent	zielony	green	żółty	yellow	hit	n/a
167.0038	n/a	RESPONSE	n/a	n/a	n/a	n/a	n/a	n/a	n/a	yellow
167.03	1.0167	ITI	n/a	n/a	n/a	n/a	n/a	n/a	n/a	n/a
168.0467	0.5167	FIXCROSS	n/a	n/a	n/a	n/a	n/a	n/a	n/a	n/a
168.5633	0.5	INK	58	Incongruent	niebieski	blue	czerwony	red	hit	n/a
169.0354	n/a	RESPONSE	n/a	n/a	n/a	n/a	n/a	n/a	n/a	red
169.0633	1.0167	ITI	n/a	n/a	n/a	n/a	n/a	n/a	n/a	n/a
170.08	0.5167	FIXCROSS	n/a	n/a	n/a	n/a	n/a	n/a	n/a	n/a
170.5967	0.6333	INK	59	Incongruent	czerwony	red	niebieski	blue	hit	n/a
171.2109	n/a	RESPONSE	n/a	n/a	n/a	n/a	n/a	n/a	n/a	blue
171.23	1.0167	ITI	n/a	n/a	n/a	n/a	n/a	n/a	n/a	n/a
172.2467	0.5167	FIXCROSS	n/a	n/a	n/a	n/a	n/a	n/a	n/a	n/a
172.7634	0.55	INK	60	Neutral	xxxxxxxx	xxxxxxxx	żółty	yellow	hit	n/a
173.2905	n/a	RESPONSE	n/a	n/a	n/a	n/a	n/a	n/a	n/a	yellow
173.3134	1.0167	ITI	n/a	n/a	n/a	n/a	n/a	n/a	n/a	n/a
174.3301	0.5167	FIXCROSS	n/a	n/a	n/a	n/a	n/a	n/a	n/a	n/a
174.8467	0.7667	INK	61	Incongruent	niebieski	blue	zielony	green	hit	n/a
175.594	n/a	RESPONSE	n/a	n/a	n/a	n/a	n/a	n/a	n/a	green
175.6134	1.0167	ITI	n/a	n/a	n/a	n/a	n/a	n/a	n/a	n/a
176.6301	0.5167	FIXCROSS	n/a	n/a	n/a	n/a	n/a	n/a	n/a	n/a
177.1468	0.6	INK	62	Incongruent	niebieski	blue	zielony	green	hit	n/a
177.7215	n/a	RESPONSE	n/a	n/a	n/a	n/a	n/a	n/a	n/a	green
177.7468	1.0167	ITI	n/a	n/a	n/a	n/a	n/a	n/a	n/a	n/a
178.7635	0.5167	FIXCROSS	n/a	n/a	n/a	n/a	n/a	n/a	n/a	n/a
179.2801	0.5667	INK	63	Neutral	xxxxxxxxx	xxxxxxxxx	żółty	yellow	hit	n/a
179.8171	n/a	RESPONSE	n/a	n/a	n/a	n/a	n/a	n/a	n/a	yellow
179.8468	1.0167	ITI	n/a	n/a	n/a	n/a	n/a	n/a	n/a	n/a
180.8635	0.5167	FIXCROSS	n/a	n/a	n/a	n/a	n/a	n/a	n/a	n/a
181.3801	0.45	INK	64	Neutral	xxxxxxx	xxxxxxx	żółty	yellow	hit	n/a
181.8006	n/a	RESPONSE	n/a	n/a	n/a	n/a	n/a	n/a	n/a	yellow
181.8302	1.0167	ITI	n/a	n/a	n/a	n/a	n/a	n/a	n/a	n/a
182.8468	0.5167	FIXCROSS	n/a	n/a	n/a	n/a	n/a	n/a	n/a	n/a
183.3635	0.4167	INK	65	Incongruent	niebieski	blue	żółty	yellow	hit	n/a
183.7522	n/a	RESPONSE	n/a	n/a	n/a	n/a	n/a	n/a	n/a	yellow
183.7802	1.0167	ITI	n/a	n/a	n/a	n/a	n/a	n/a	n/a	n/a
184.7969	0.5167	FIXCROSS	n/a	n/a	n/a	n/a	n/a	n/a	n/a	n/a
185.3135	0.75	INK	66	Incongruent	zielony	green	czerwony	red	hit	n/a
186.0397	n/a	RESPONSE	n/a	n/a	n/a	n/a	n/a	n/a	n/a	red
186.0635	1.0167	ITI	n/a	n/a	n/a	n/a	n/a	n/a	n/a	n/a
187.0802	0.5167	FIXCROSS	n/a	n/a	n/a	n/a	n/a	n/a	n/a	n/a
187.5969	0.6667	INK	67	Incongruent	zielony	green	niebieski	blue	hit	n/a
188.2313	n/a	RESPONSE	n/a	n/a	n/a	n/a	n/a	n/a	n/a	blue
188.2636	1.0167	ITI	n/a	n/a	n/a	n/a	n/a	n/a	n/a	n/a
189.2802	0.5167	FIXCROSS	n/a	n/a	n/a	n/a	n/a	n/a	n/a	n/a
189.7969	0.5333	INK	68	Neutral	xxxxxxxx	xxxxxxxx	żółty	yellow	hit	n/a
190.3108	n/a	RESPONSE	n/a	n/a	n/a	n/a	n/a	n/a	n/a	yellow
190.3303	1.0167	ITI	n/a	n/a	n/a	n/a	n/a	n/a	n/a	n/a
191.3469	0.5167	FIXCROSS	n/a	n/a	n/a	n/a	n/a	n/a	n/a	n/a
191.8636	0.4667	INK	69	Incongruent	czerwony	red	żółty	yellow	hit	n/a
192.3104	n/a	RESPONSE	n/a	n/a	n/a	n/a	n/a	n/a	n/a	yellow
192.3303	1.0167	ITI	n/a	n/a	n/a	n/a	n/a	n/a	n/a	n/a
193.347	0.5167	FIXCROSS	n/a	n/a	n/a	n/a	n/a	n/a	n/a	n/a
193.8636	0.8	INK	70	Neutral	xxxxxxx	xxxxxxx	niebieski	blue	hit	n/a
194.6299	n/a	RESPONSE	n/a	n/a	n/a	n/a	n/a	n/a	n/a	blue
194.6636	1.0167	ITI	n/a	n/a	n/a	n/a	n/a	n/a	n/a	n/a
195.6803	0.5167	FIXCROSS	n/a	n/a	n/a	n/a	n/a	n/a	n/a	n/a
196.197	0.5334	INK	71	Neutral	xxxxxxx	xxxxxxx	niebieski	blue	hit	n/a
196.7094	n/a	RESPONSE	n/a	n/a	n/a	n/a	n/a	n/a	n/a	blue
196.7303	1.0167	ITI	n/a	n/a	n/a	n/a	n/a	n/a	n/a	n/a
197.747	0.5167	FIXCROSS	n/a	n/a	n/a	n/a	n/a	n/a	n/a	n/a
198.2637	0.5833	INK	72	Neutral	xxxxxxxxx	xxxxxxxxx	czerwony	red	hit	n/a
198.821	n/a	RESPONSE	n/a	n/a	n/a	n/a	n/a	n/a	n/a	red
198.847	1.0833	ITI	n/a	n/a	n/a	n/a	n/a	n/a	n/a	n/a
216.7211	n/a	RESPONSE	n/a	n/a	n/a	n/a	n/a	n/a	n/a	n/a
216.7806	1.0167	ITI	n/a	n/a	n/a	n/a	n/a	n/a	n/a	n/a
217.7972	0.5167	FIXCROSS	n/a	n/a	n/a	n/a	n/a	n/a	n/a	n/a
218.3139	1.2334	T_COLOR_NAME	1	Neutral	zielony	green	Neutral	Neutral	hit	n/a
219.5205	n/a	RESPONSE	n/a	n/a	n/a	n/a	n/a	n/a	n/a	green
219.5473	0.5167	FEEDBACK	n/a	n/a	n/a	n/a	n/a	n/a	n/a	n/a
220.0639	1.0167	ITI	n/a	n/a	n/a	n/a	n/a	n/a	n/a	n/a
221.0806	0.5167	FIXCROSS	n/a	n/a	n/a	n/a	n/a	n/a	n/a	n/a
221.5973	0.6167	T_COLOR_NAME	2	Neutral	zielony	green	Neutral	Neutral	hit	n/a
222.1919	n/a	RESPONSE	n/a	n/a	n/a	n/a	n/a	n/a	n/a	green
222.214	0.5167	FEEDBACK	n/a	n/a	n/a	n/a	n/a	n/a	n/a	n/a
222.7306	1.0167	ITI	n/a	n/a	n/a	n/a	n/a	n/a	n/a	n/a
223.7473	0.5167	FIXCROSS	n/a	n/a	n/a	n/a	n/a	n/a	n/a	n/a
224.264	1.2334	T_COLOR_NAME	3	Incongruent	czerwony	red	zielony	green	hit	n/a
225.4712	n/a	RESPONSE	n/a	n/a	n/a	n/a	n/a	n/a	n/a	red
225.4973	0.5167	FEEDBACK	n/a	n/a	n/a	n/a	n/a	n/a	n/a	n/a
226.014	1.0167	ITI	n/a	n/a	n/a	n/a	n/a	n/a	n/a	n/a
227.0307	0.5167	FIXCROSS	n/a	n/a	n/a	n/a	n/a	n/a	n/a	n/a
227.5473	0.7667	T_COLOR_NAME	4	Neutral	żółty	yellow	Neutral	Neutral	hit	n/a
228.2866	n/a	RESPONSE	n/a	n/a	n/a	n/a	n/a	n/a	n/a	yellow
228.314	0.5167	FEEDBACK	n/a	n/a	n/a	n/a	n/a	n/a	n/a	n/a
228.8307	1.0167	ITI	n/a	n/a	n/a	n/a	n/a	n/a	n/a	n/a
229.8474	0.5167	FIXCROSS	n/a	n/a	n/a	n/a	n/a	n/a	n/a	n/a
230.364	0.8834	T_COLOR_NAME	5	Neutral	niebieski	blue	Neutral	Neutral	hit	n/a
231.214	n/a	RESPONSE	n/a	n/a	n/a	n/a	n/a	n/a	n/a	blue
231.2474	0.5167	FEEDBACK	n/a	n/a	n/a	n/a	n/a	n/a	n/a	n/a
231.7641	1.0167	ITI	n/a	n/a	n/a	n/a	n/a	n/a	n/a	n/a
232.7807	0.5167	FIXCROSS	n/a	n/a	n/a	n/a	n/a	n/a	n/a	n/a
233.2974	1.5667	T_COLOR_NAME	6	Incongruent	żółty	yellow	zielony	green	hit	n/a
234.8292	n/a	RESPONSE	n/a	n/a	n/a	n/a	n/a	n/a	n/a	yellow
234.8641	0.5167	FEEDBACK	n/a	n/a	n/a	n/a	n/a	n/a	n/a	n/a
235.3808	1.0166	ITI	n/a	n/a	n/a	n/a	n/a	n/a	n/a	n/a
236.3974	0.5167	FIXCROSS	n/a	n/a	n/a	n/a	n/a	n/a	n/a	n/a
236.9141	0.6667	T_COLOR_NAME	7	Neutral	żółty	yellow	Neutral	Neutral	hit	n/a
237.5486	n/a	RESPONSE	n/a	n/a	n/a	n/a	n/a	n/a	n/a	yellow
237.5808	0.5167	FEEDBACK	n/a	n/a	n/a	n/a	n/a	n/a	n/a	n/a
238.0975	1.0167	ITI	n/a	n/a	n/a	n/a	n/a	n/a	n/a	n/a
239.1141	0.5167	FIXCROSS	n/a	n/a	n/a	n/a	n/a	n/a	n/a	n/a
239.6308	1.0833	T_COLOR_NAME	8	Incongruent	zielony	green	żółty	yellow	hit	n/a
240.6839	n/a	RESPONSE	n/a	n/a	n/a	n/a	n/a	n/a	n/a	green
240.7142	0.5167	FEEDBACK	n/a	n/a	n/a	n/a	n/a	n/a	n/a	n/a
241.2308	1.0167	ITI	n/a	n/a	n/a	n/a	n/a	n/a	n/a	n/a
242.2475	0.5167	FIXCROSS	n/a	n/a	n/a	n/a	n/a	n/a	n/a	n/a
242.7642	0.7833	T_COLOR_NAME	9	Neutral	czerwony	red	Neutral	Neutral	hit	n/a
243.5153	n/a	RESPONSE	n/a	n/a	n/a	n/a	n/a	n/a	n/a	red
243.5475	0.5167	FEEDBACK	n/a	n/a	n/a	n/a	n/a	n/a	n/a	n/a
244.0642	1.0167	ITI	n/a	n/a	n/a	n/a	n/a	n/a	n/a	n/a
245.0809	0.5167	FIXCROSS	n/a	n/a	n/a	n/a	n/a	n/a	n/a	n/a
245.5976	0.8333	T_COLOR_NAME	10	Incongruent	zielony	green	czerwony	red	hit	n/a
246.4106	n/a	RESPONSE	n/a	n/a	n/a	n/a	n/a	n/a	n/a	green
246.4309	0.5167	FEEDBACK	n/a	n/a	n/a	n/a	n/a	n/a	n/a	n/a
246.9476	1.0167	ITI	n/a	n/a	n/a	n/a	n/a	n/a	n/a	n/a
247.9643	0.5167	FIXCROSS	n/a	n/a	n/a	n/a	n/a	n/a	n/a	n/a
248.4809	1.4334	T_COLOR_NAME	11	Incongruent	czerwony	red	żółty	yellow	hit	n/a
249.8819	n/a	RESPONSE	n/a	n/a	n/a	n/a	n/a	n/a	n/a	red
249.9143	0.5167	FEEDBACK	n/a	n/a	n/a	n/a	n/a	n/a	n/a	n/a
250.4309	1.0167	ITI	n/a	n/a	n/a	n/a	n/a	n/a	n/a	n/a
251.4476	0.5167	FIXCROSS	n/a	n/a	n/a	n/a	n/a	n/a	n/a	n/a
251.9643	0.85	T_COLOR_NAME	12	Incongruent	żółty	yellow	czerwony	red	hit	n/a
252.7933	n/a	RESPONSE	n/a	n/a	n/a	n/a	n/a	n/a	n/a	yellow
252.8143	0.5167	FEEDBACK	n/a	n/a	n/a	n/a	n/a	n/a	n/a	n/a
253.331	1.0333	ITI	n/a	n/a	n/a	n/a	n/a	n/a	n/a	n/a
257.5283	n/a	RESPONSE	n/a	n/a	n/a	n/a	n/a	n/a	n/a	n/a
257.581	1.0167	ITI	n/a	n/a	n/a	n/a	n/a	n/a	n/a	n/a
258.5977	0.5167	FIXCROSS	n/a	n/a	n/a	n/a	n/a	n/a	n/a	n/a
259.1144	0.6833	COLOR_NAME	1	Neutral	zielony	green	Neutral	Neutral	hit	n/a
259.7678	n/a	RESPONSE	n/a	n/a	n/a	n/a	n/a	n/a	n/a	green
259.7977	1.0167	ITI	n/a	n/a	n/a	n/a	n/a	n/a	n/a	n/a
260.8144	0.5167	FIXCROSS	n/a	n/a	n/a	n/a	n/a	n/a	n/a	n/a
261.3311	0.55	COLOR_NAME	2	Neutral	zielony	green	Neutral	Neutral	hit	n/a
261.8473	n/a	RESPONSE	n/a	n/a	n/a	n/a	n/a	n/a	n/a	green
261.8811	1.0167	ITI	n/a	n/a	n/a	n/a	n/a	n/a	n/a	n/a
262.8977	0.5167	FIXCROSS	n/a	n/a	n/a	n/a	n/a	n/a	n/a	n/a
263.4144	0.85	COLOR_NAME	3	Neutral	żółty	yellow	Neutral	Neutral	hit	n/a
264.2468	n/a	RESPONSE	n/a	n/a	n/a	n/a	n/a	n/a	n/a	yellow
264.2644	1.0167	ITI	n/a	n/a	n/a	n/a	n/a	n/a	n/a	n/a
265.2811	0.5167	FIXCROSS	n/a	n/a	n/a	n/a	n/a	n/a	n/a	n/a
265.7978	0.7	COLOR_NAME	4	Incongruent	żółty	yellow	czerwony	red	hit	n/a
266.4703	n/a	RESPONSE	n/a	n/a	n/a	n/a	n/a	n/a	n/a	yellow
266.4978	1.0167	ITI	n/a	n/a	n/a	n/a	n/a	n/a	n/a	n/a
267.5145	0.5167	FIXCROSS	n/a	n/a	n/a	n/a	n/a	n/a	n/a	n/a
268.0311	0.7667	COLOR_NAME	5	Incongruent	czerwony	red	zielony	green	hit	n/a
268.7738	n/a	RESPONSE	n/a	n/a	n/a	n/a	n/a	n/a	n/a	red
268.7978	1.0167	ITI	n/a	n/a	n/a	n/a	n/a	n/a	n/a	n/a
269.8145	0.5167	FIXCROSS	n/a	n/a	n/a	n/a	n/a	n/a	n/a	n/a
270.3312	0.7667	COLOR_NAME	6	Neutral	żółty	yellow	Neutral	Neutral	hit	n/a
271.0773	n/a	RESPONSE	n/a	n/a	n/a	n/a	n/a	n/a	n/a	yellow
271.0978	1.0167	ITI	n/a	n/a	n/a	n/a	n/a	n/a	n/a	n/a
272.1145	0.5167	FIXCROSS	n/a	n/a	n/a	n/a	n/a	n/a	n/a	n/a
272.6312	0.6	COLOR_NAME	7	Neutral	czerwony	red	Neutral	Neutral	hit	n/a
273.2049	n/a	RESPONSE	n/a	n/a	n/a	n/a	n/a	n/a	n/a	red
273.2312	1.0167	ITI	n/a	n/a	n/a	n/a	n/a	n/a	n/a	n/a
274.2479	0.5167	FIXCROSS	n/a	n/a	n/a	n/a	n/a	n/a	n/a	n/a
274.7646	0.7667	COLOR_NAME	8	Neutral	zielony	green	Neutral	Neutral	hit	n/a
275.5084	n/a	RESPONSE	n/a	n/a	n/a	n/a	n/a	n/a	n/a	green
275.5312	1.0167	ITI	n/a	n/a	n/a	n/a	n/a	n/a	n/a	n/a
276.5479	0.5167	FIXCROSS	n/a	n/a	n/a	n/a	n/a	n/a	n/a	n/a
277.0646	0.7667	COLOR_NAME	9	Incongruent	żółty	yellow	niebieski	blue	hit	n/a
277.7958	n/a	RESPONSE	n/a	n/a	n/a	n/a	n/a	n/a	n/a	yellow
277.8313	1.0167	ITI	n/a	n/a	n/a	n/a	n/a	n/a	n/a	n/a
278.8479	0.5167	FIXCROSS	n/a	n/a	n/a	n/a	n/a	n/a	n/a	n/a
279.3646	0.6833	COLOR_NAME	10	Incongruent	czerwony	red	żółty	yellow	hit	n/a
280.0194	n/a	RESPONSE	n/a	n/a	n/a	n/a	n/a	n/a	n/a	red
280.0479	1.0167	ITI	n/a	n/a	n/a	n/a	n/a	n/a	n/a	n/a
281.0646	0.5167	FIXCROSS	n/a	n/a	n/a	n/a	n/a	n/a	n/a	n/a
281.5813	0.5	COLOR_NAME	11	Incongruent	czerwony	red	niebieski	blue	hit	n/a
282.051	n/a	RESPONSE	n/a	n/a	n/a	n/a	n/a	n/a	n/a	red
282.0813	1.0167	ITI	n/a	n/a	n/a	n/a	n/a	n/a	n/a	n/a
283.098	0.5167	FIXCROSS	n/a	n/a	n/a	n/a	n/a	n/a	n/a	n/a
283.6146	0.75	COLOR_NAME	12	Incongruent	zielony	green	czerwony	red	hit	n/a
284.3385	n/a	RESPONSE	n/a	n/a	n/a	n/a	n/a	n/a	n/a	green
284.3647	1.0167	ITI	n/a	n/a	n/a	n/a	n/a	n/a	n/a	n/a
285.3813	0.5167	FIXCROSS	n/a	n/a	n/a	n/a	n/a	n/a	n/a	n/a
285.898	0.8167	COLOR_NAME	13	Neutral	niebieski	blue	Neutral	Neutral	hit	n/a
286.6899	n/a	RESPONSE	n/a	n/a	n/a	n/a	n/a	n/a	n/a	blue
286.7147	1.0167	ITI	n/a	n/a	n/a	n/a	n/a	n/a	n/a	n/a
287.7314	0.5167	FIXCROSS	n/a	n/a	n/a	n/a	n/a	n/a	n/a	n/a
288.248	0.6667	COLOR_NAME	14	Incongruent	czerwony	red	zielony	green	hit	n/a
288.8975	n/a	RESPONSE	n/a	n/a	n/a	n/a	n/a	n/a	n/a	red
288.9147	1.0167	ITI	n/a	n/a	n/a	n/a	n/a	n/a	n/a	n/a
289.9314	0.5167	FIXCROSS	n/a	n/a	n/a	n/a	n/a	n/a	n/a	n/a
290.4481	0.7333	COLOR_NAME	15	Incongruent	żółty	yellow	zielony	green	hit	n/a
291.153	n/a	RESPONSE	n/a	n/a	n/a	n/a	n/a	n/a	n/a	yellow
291.1814	1.0167	ITI	n/a	n/a	n/a	n/a	n/a	n/a	n/a	n/a
292.1981	0.5167	FIXCROSS	n/a	n/a	n/a	n/a	n/a	n/a	n/a	n/a
292.7148	1.0334	COLOR_NAME	16	Neutral	zielony	green	Neutral	Neutral	hit	n/a
293.7284	n/a	RESPONSE	n/a	n/a	n/a	n/a	n/a	n/a	n/a	green
293.7481	1.0167	ITI	n/a	n/a	n/a	n/a	n/a	n/a	n/a	n/a
294.7648	0.5167	FIXCROSS	n/a	n/a	n/a	n/a	n/a	n/a	n/a	n/a
295.2814	0.8	COLOR_NAME	17	Incongruent	żółty	yellow	czerwony	red	hit	n/a
296.064	n/a	RESPONSE	n/a	n/a	n/a	n/a	n/a	n/a	n/a	yellow
296.0815	1.0167	ITI	n/a	n/a	n/a	n/a	n/a	n/a	n/a	n/a
297.0981	0.5167	FIXCROSS	n/a	n/a	n/a	n/a	n/a	n/a	n/a	n/a
297.6148	0.8	COLOR_NAME	18	Incongruent	zielony	green	czerwony	red	hit	n/a
298.3834	n/a	RESPONSE	n/a	n/a	n/a	n/a	n/a	n/a	n/a	green
298.4148	1.0167	ITI	n/a	n/a	n/a	n/a	n/a	n/a	n/a	n/a
299.4315	0.5167	FIXCROSS	n/a	n/a	n/a	n/a	n/a	n/a	n/a	n/a
299.9482	0.55	COLOR_NAME	19	Neutral	zielony	green	Neutral	Neutral	hit	n/a
300.479	n/a	RESPONSE	n/a	n/a	n/a	n/a	n/a	n/a	n/a	green
300.4982	1.0167	ITI	n/a	n/a	n/a	n/a	n/a	n/a	n/a	n/a
301.5149	0.5167	FIXCROSS	n/a	n/a	n/a	n/a	n/a	n/a	n/a	n/a
302.0315	0.8	COLOR_NAME	20	Neutral	żółty	yellow	Neutral	Neutral	hit	n/a
302.7985	n/a	RESPONSE	n/a	n/a	n/a	n/a	n/a	n/a	n/a	yellow
302.8315	1.0167	ITI	n/a	n/a	n/a	n/a	n/a	n/a	n/a	n/a
303.8482	0.5167	FIXCROSS	n/a	n/a	n/a	n/a	n/a	n/a	n/a	n/a
304.3649	0.8833	COLOR_NAME	21	Neutral	niebieski	blue	Neutral	Neutral	hit	n/a
305.2299	n/a	RESPONSE	n/a	n/a	n/a	n/a	n/a	n/a	n/a	blue
305.2482	1.0167	ITI	n/a	n/a	n/a	n/a	n/a	n/a	n/a	n/a
306.2649	0.5167	FIXCROSS	n/a	n/a	n/a	n/a	n/a	n/a	n/a	n/a
306.7816	0.6833	COLOR_NAME	22	Neutral	zielony	green	Neutral	Neutral	hit	n/a
307.4375	n/a	RESPONSE	n/a	n/a	n/a	n/a	n/a	n/a	n/a	green
307.4649	1.0167	ITI	n/a	n/a	n/a	n/a	n/a	n/a	n/a	n/a
308.4816	0.5167	FIXCROSS	n/a	n/a	n/a	n/a	n/a	n/a	n/a	n/a
308.9983	0.8333	COLOR_NAME	23	Neutral	niebieski	blue	Neutral	Neutral	hit	n/a
309.8049	n/a	RESPONSE	n/a	n/a	n/a	n/a	n/a	n/a	n/a	blue
309.8316	1.0167	ITI	n/a	n/a	n/a	n/a	n/a	n/a	n/a	n/a
310.8483	0.5167	FIXCROSS	n/a	n/a	n/a	n/a	n/a	n/a	n/a	n/a
311.365	0.7167	COLOR_NAME	24	Neutral	czerwony	red	Neutral	Neutral	hit	n/a
312.0605	n/a	RESPONSE	n/a	n/a	n/a	n/a	n/a	n/a	n/a	red
312.0816	1.0167	ITI	n/a	n/a	n/a	n/a	n/a	n/a	n/a	n/a
313.0983	0.5167	FIXCROSS	n/a	n/a	n/a	n/a	n/a	n/a	n/a	n/a
313.615	0.85	COLOR_NAME	25	Incongruent	niebieski	blue	czerwony	red	hit	n/a
314.4439	n/a	RESPONSE	n/a	n/a	n/a	n/a	n/a	n/a	n/a	blue
314.465	1.0167	ITI	n/a	n/a	n/a	n/a	n/a	n/a	n/a	n/a
315.4817	0.5167	FIXCROSS	n/a	n/a	n/a	n/a	n/a	n/a	n/a	n/a
315.9984	1.0	COLOR_NAME	26	Incongruent	zielony	green	żółty	yellow	hit	n/a
316.9714	n/a	RESPONSE	n/a	n/a	n/a	n/a	n/a	n/a	n/a	green
316.9984	1.0167	ITI	n/a	n/a	n/a	n/a	n/a	n/a	n/a	n/a
318.015	0.5167	FIXCROSS	n/a	n/a	n/a	n/a	n/a	n/a	n/a	n/a
318.5317	0.8667	COLOR_NAME	27	Incongruent	niebieski	blue	żółty	yellow	hit	n/a
319.3709	n/a	RESPONSE	n/a	n/a	n/a	n/a	n/a	n/a	n/a	blue
319.3984	1.0167	ITI	n/a	n/a	n/a	n/a	n/a	n/a	n/a	n/a
320.4151	0.5167	FIXCROSS	n/a	n/a	n/a	n/a	n/a	n/a	n/a	n/a
320.9317	0.6333	COLOR_NAME	28	Incongruent	niebieski	blue	zielony	green	hit	n/a
321.5464	n/a	RESPONSE	n/a	n/a	n/a	n/a	n/a	n/a	n/a	blue
321.5651	1.0167	ITI	n/a	n/a	n/a	n/a	n/a	n/a	n/a	n/a
322.5818	0.5167	FIXCROSS	n/a	n/a	n/a	n/a	n/a	n/a	n/a	n/a
323.0984	0.7333	COLOR_NAME	29	Incongruent	czerwony	red	żółty	yellow	hit	n/a
323.8019	n/a	RESPONSE	n/a	n/a	n/a	n/a	n/a	n/a	n/a	red
323.8318	1.0167	ITI	n/a	n/a	n/a	n/a	n/a	n/a	n/a	n/a
324.8484	0.5167	FIXCROSS	n/a	n/a	n/a	n/a	n/a	n/a	n/a	n/a
325.3651	0.9167	COLOR_NAME	30	Neutral	niebieski	blue	Neutral	Neutral	hit	n/a
326.2494	n/a	RESPONSE	n/a	n/a	n/a	n/a	n/a	n/a	n/a	blue
326.2818	1.0167	ITI	n/a	n/a	n/a	n/a	n/a	n/a	n/a	n/a
327.2985	0.5167	FIXCROSS	n/a	n/a	n/a	n/a	n/a	n/a	n/a	n/a
327.8152	0.9	COLOR_NAME	31	Incongruent	żółty	yellow	zielony	green	hit	n/a
328.6968	n/a	RESPONSE	n/a	n/a	n/a	n/a	n/a	n/a	n/a	yellow
328.7152	1.0167	ITI	n/a	n/a	n/a	n/a	n/a	n/a	n/a	n/a
329.7318	0.5167	FIXCROSS	n/a	n/a	n/a	n/a	n/a	n/a	n/a	n/a
330.2485	0.7333	COLOR_NAME	32	Neutral	żółty	yellow	Neutral	Neutral	hit	n/a
330.9524	n/a	RESPONSE	n/a	n/a	n/a	n/a	n/a	n/a	n/a	yellow
330.9819	1.0167	ITI	n/a	n/a	n/a	n/a	n/a	n/a	n/a	n/a
331.9985	0.5167	FIXCROSS	n/a	n/a	n/a	n/a	n/a	n/a	n/a	n/a
332.5152	0.8833	COLOR_NAME	33	Incongruent	zielony	green	niebieski	blue	hit	n/a
333.3679	n/a	RESPONSE	n/a	n/a	n/a	n/a	n/a	n/a	n/a	green
333.3985	1.0167	ITI	n/a	n/a	n/a	n/a	n/a	n/a	n/a	n/a
334.4152	0.5167	FIXCROSS	n/a	n/a	n/a	n/a	n/a	n/a	n/a	n/a
334.9319	0.6	COLOR_NAME	34	Incongruent	zielony	green	niebieski	blue	hit	n/a
335.5114	n/a	RESPONSE	n/a	n/a	n/a	n/a	n/a	n/a	n/a	green
335.5319	1.0167	ITI	n/a	n/a	n/a	n/a	n/a	n/a	n/a	n/a
336.5486	0.5167	FIXCROSS	n/a	n/a	n/a	n/a	n/a	n/a	n/a	n/a
337.0653	0.55	COLOR_NAME	35	Neutral	zielony	green	Neutral	Neutral	hit	n/a
337.5909	n/a	RESPONSE	n/a	n/a	n/a	n/a	n/a	n/a	n/a	green
337.6153	1.0167	ITI	n/a	n/a	n/a	n/a	n/a	n/a	n/a	n/a
338.6319	0.5167	FIXCROSS	n/a	n/a	n/a	n/a	n/a	n/a	n/a	n/a
339.1486	0.8167	COLOR_NAME	36	Incongruent	niebieski	blue	czerwony	red	hit	n/a
339.9424	n/a	RESPONSE	n/a	n/a	n/a	n/a	n/a	n/a	n/a	blue
339.9653	1.0167	ITI	n/a	n/a	n/a	n/a	n/a	n/a	n/a	n/a
340.982	0.5167	FIXCROSS	n/a	n/a	n/a	n/a	n/a	n/a	n/a	n/a
341.4987	0.6833	COLOR_NAME	37	Incongruent	żółty	yellow	zielony	green	hit	n/a
342.1499	n/a	RESPONSE	n/a	n/a	n/a	n/a	n/a	n/a	n/a	yellow
342.182	1.0167	ITI	n/a	n/a	n/a	n/a	n/a	n/a	n/a	n/a
343.1987	0.5167	FIXCROSS	n/a	n/a	n/a	n/a	n/a	n/a	n/a	n/a
343.7153	0.7833	COLOR_NAME	38	Neutral	czerwony	red	Neutral	Neutral	hit	n/a
344.4695	n/a	RESPONSE	n/a	n/a	n/a	n/a	n/a	n/a	n/a	red
344.4987	1.0167	ITI	n/a	n/a	n/a	n/a	n/a	n/a	n/a	n/a
345.5154	0.5167	FIXCROSS	n/a	n/a	n/a	n/a	n/a	n/a	n/a	n/a
346.032	0.8167	COLOR_NAME	39	Neutral	żółty	yellow	Neutral	Neutral	hit	n/a
346.8209	n/a	RESPONSE	n/a	n/a	n/a	n/a	n/a	n/a	n/a	yellow
346.8487	1.0167	ITI	n/a	n/a	n/a	n/a	n/a	n/a	n/a	n/a
347.8654	0.5167	FIXCROSS	n/a	n/a	n/a	n/a	n/a	n/a	n/a	n/a
348.3821	0.75	COLOR_NAME	40	Neutral	zielony	green	Neutral	Neutral	hit	n/a
349.1084	n/a	RESPONSE	n/a	n/a	n/a	n/a	n/a	n/a	n/a	green
349.1321	1.0167	ITI	n/a	n/a	n/a	n/a	n/a	n/a	n/a	n/a
350.1487	0.5167	FIXCROSS	n/a	n/a	n/a	n/a	n/a	n/a	n/a	n/a
350.6654	0.8167	COLOR_NAME	41	Incongruent	zielony	green	niebieski	blue	hit	n/a
351.4599	n/a	RESPONSE	n/a	n/a	n/a	n/a	n/a	n/a	n/a	green
351.4821	1.0167	ITI	n/a	n/a	n/a	n/a	n/a	n/a	n/a	n/a
352.4988	0.5167	FIXCROSS	n/a	n/a	n/a	n/a	n/a	n/a	n/a	n/a
353.0154	0.5333	COLOR_NAME	42	Neutral	zielony	green	Neutral	Neutral	hit	n/a
353.5235	n/a	RESPONSE	n/a	n/a	n/a	n/a	n/a	n/a	n/a	green
353.5488	1.0167	ITI	n/a	n/a	n/a	n/a	n/a	n/a	n/a	n/a
354.5655	0.5167	FIXCROSS	n/a	n/a	n/a	n/a	n/a	n/a	n/a	n/a
355.0821	0.8167	COLOR_NAME	43	Incongruent	niebieski	blue	żółty	yellow	incorrect	n/a
355.875	n/a	RESPONSE	n/a	n/a	n/a	n/a	n/a	n/a	n/a	yellow
355.8988	1.0167	ITI	n/a	n/a	n/a	n/a	n/a	n/a	n/a	n/a
356.9155	0.5167	FIXCROSS	n/a	n/a	n/a	n/a	n/a	n/a	n/a	n/a
357.4322	1.4334	COLOR_NAME	44	Incongruent	żółty	yellow	niebieski	blue	hit	n/a
358.8343	n/a	RESPONSE	n/a	n/a	n/a	n/a	n/a	n/a	n/a	yellow
358.8655	1.0167	ITI	n/a	n/a	n/a	n/a	n/a	n/a	n/a	n/a
359.8822	0.5167	FIXCROSS	n/a	n/a	n/a	n/a	n/a	n/a	n/a	n/a
360.3989	0.7333	COLOR_NAME	45	Neutral	żółty	yellow	Neutral	Neutral	hit	n/a
361.1058	n/a	RESPONSE	n/a	n/a	n/a	n/a	n/a	n/a	n/a	yellow
361.1322	1.0167	ITI	n/a	n/a	n/a	n/a	n/a	n/a	n/a	n/a
362.1489	0.5167	FIXCROSS	n/a	n/a	n/a	n/a	n/a	n/a	n/a	n/a
362.6655	0.8334	COLOR_NAME	46	Incongruent	czerwony	red	zielony	green	hit	n/a
363.4734	n/a	RESPONSE	n/a	n/a	n/a	n/a	n/a	n/a	n/a	red
363.4989	1.0167	ITI	n/a	n/a	n/a	n/a	n/a	n/a	n/a	n/a
364.5156	0.5167	FIXCROSS	n/a	n/a	n/a	n/a	n/a	n/a	n/a	n/a
365.0322	0.8167	COLOR_NAME	47	Neutral	niebieski	blue	Neutral	Neutral	hit	n/a
365.8248	n/a	RESPONSE	n/a	n/a	n/a	n/a	n/a	n/a	n/a	blue
365.8489	1.0167	ITI	n/a	n/a	n/a	n/a	n/a	n/a	n/a	n/a
366.8656	0.5167	FIXCROSS	n/a	n/a	n/a	n/a	n/a	n/a	n/a	n/a
367.3823	1.1	COLOR_NAME	48	Incongruent	czerwony	red	niebieski	blue	hit	n/a
368.4643	n/a	RESPONSE	n/a	n/a	n/a	n/a	n/a	n/a	n/a	red
368.4823	1.0167	ITI	n/a	n/a	n/a	n/a	n/a	n/a	n/a	n/a
369.499	0.5167	FIXCROSS	n/a	n/a	n/a	n/a	n/a	n/a	n/a	n/a
370.0156	0.8833	COLOR_NAME	49	Incongruent	czerwony	red	żółty	yellow	hit	n/a
370.8797	n/a	RESPONSE	n/a	n/a	n/a	n/a	n/a	n/a	n/a	red
370.899	1.0167	ITI	n/a	n/a	n/a	n/a	n/a	n/a	n/a	n/a
371.9156	0.5167	FIXCROSS	n/a	n/a	n/a	n/a	n/a	n/a	n/a	n/a
372.4323	0.9334	COLOR_NAME	50	Incongruent	zielony	green	żółty	yellow	hit	n/a
373.3432	n/a	RESPONSE	n/a	n/a	n/a	n/a	n/a	n/a	n/a	green
373.3657	1.0167	ITI	n/a	n/a	n/a	n/a	n/a	n/a	n/a	n/a
374.3823	0.5167	FIXCROSS	n/a	n/a	n/a	n/a	n/a	n/a	n/a	n/a
374.899	0.85	COLOR_NAME	51	Neutral	niebieski	blue	Neutral	Neutral	hit	n/a
375.7267	n/a	RESPONSE	n/a	n/a	n/a	n/a	n/a	n/a	n/a	blue
375.749	1.0167	ITI	n/a	n/a	n/a	n/a	n/a	n/a	n/a	n/a
376.7657	0.5167	FIXCROSS	n/a	n/a	n/a	n/a	n/a	n/a	n/a	n/a
377.2824	0.7	COLOR_NAME	52	Neutral	niebieski	blue	Neutral	Neutral	hit	n/a
377.9502	n/a	RESPONSE	n/a	n/a	n/a	n/a	n/a	n/a	n/a	blue
377.9824	1.0167	ITI	n/a	n/a	n/a	n/a	n/a	n/a	n/a	n/a
378.9991	0.5167	FIXCROSS	n/a	n/a	n/a	n/a	n/a	n/a	n/a	n/a
379.5157	0.6833	COLOR_NAME	53	Neutral	czerwony	red	Neutral	Neutral	hit	n/a
380.1737	n/a	RESPONSE	n/a	n/a	n/a	n/a	n/a	n/a	n/a	red
380.1991	1.0167	ITI	n/a	n/a	n/a	n/a	n/a	n/a	n/a	n/a
381.2158	0.5167	FIXCROSS	n/a	n/a	n/a	n/a	n/a	n/a	n/a	n/a
381.7324	0.55	COLOR_NAME	54	Neutral	czerwony	red	Neutral	Neutral	hit	n/a
382.2533	n/a	RESPONSE	n/a	n/a	n/a	n/a	n/a	n/a	n/a	red
382.2824	1.0167	ITI	n/a	n/a	n/a	n/a	n/a	n/a	n/a	n/a
383.2991	0.5167	FIXCROSS	n/a	n/a	n/a	n/a	n/a	n/a	n/a	n/a
383.8158	0.6667	COLOR_NAME	55	Neutral	niebieski	blue	Neutral	Neutral	hit	n/a
384.4608	n/a	RESPONSE	n/a	n/a	n/a	n/a	n/a	n/a	n/a	blue
384.4825	1.0167	ITI	n/a	n/a	n/a	n/a	n/a	n/a	n/a	n/a
385.4991	0.5167	FIXCROSS	n/a	n/a	n/a	n/a	n/a	n/a	n/a	n/a
386.0158	0.8167	COLOR_NAME	56	Neutral	żółty	yellow	Neutral	Neutral	hit	n/a
386.8123	n/a	RESPONSE	n/a	n/a	n/a	n/a	n/a	n/a	n/a	yellow
386.8325	1.0167	ITI	n/a	n/a	n/a	n/a	n/a	n/a	n/a	n/a
387.8492	0.5167	FIXCROSS	n/a	n/a	n/a	n/a	n/a	n/a	n/a	n/a
388.3658	0.6334	COLOR_NAME	57	Incongruent	żółty	yellow	niebieski	blue	hit	n/a
388.9718	n/a	RESPONSE	n/a	n/a	n/a	n/a	n/a	n/a	n/a	yellow
388.9992	1.0167	ITI	n/a	n/a	n/a	n/a	n/a	n/a	n/a	n/a
390.0159	0.5167	FIXCROSS	n/a	n/a	n/a	n/a	n/a	n/a	n/a	n/a
390.5325	0.7	COLOR_NAME	58	Incongruent	czerwony	red	niebieski	blue	hit	n/a
391.2113	n/a	RESPONSE	n/a	n/a	n/a	n/a	n/a	n/a	n/a	red
391.2325	1.0167	ITI	n/a	n/a	n/a	n/a	n/a	n/a	n/a	n/a
392.2492	0.5167	FIXCROSS	n/a	n/a	n/a	n/a	n/a	n/a	n/a	n/a
392.7659	0.7667	COLOR_NAME	59	Incongruent	niebieski	blue	zielony	green	hit	n/a
393.4988	n/a	RESPONSE	n/a	n/a	n/a	n/a	n/a	n/a	n/a	blue
393.5326	1.0167	ITI	n/a	n/a	n/a	n/a	n/a	n/a	n/a	n/a
394.5492	0.5167	FIXCROSS	n/a	n/a	n/a	n/a	n/a	n/a	n/a	n/a
395.0659	0.75	COLOR_NAME	60	Neutral	żółty	yellow	Neutral	Neutral	hit	n/a
395.7864	n/a	RESPONSE	n/a	n/a	n/a	n/a	n/a	n/a	n/a	yellow
395.8159	1.0167	ITI	n/a	n/a	n/a	n/a	n/a	n/a	n/a	n/a
396.8326	0.5167	FIXCROSS	n/a	n/a	n/a	n/a	n/a	n/a	n/a	n/a
397.3493	0.6	COLOR_NAME	61	Neutral	czerwony	red	Neutral	Neutral	hit	n/a
397.9299	n/a	RESPONSE	n/a	n/a	n/a	n/a	n/a	n/a	n/a	red
397.9493	1.0167	ITI	n/a	n/a	n/a	n/a	n/a	n/a	n/a	n/a
398.966	0.5167	FIXCROSS	n/a	n/a	n/a	n/a	n/a	n/a	n/a	n/a
399.4826	0.8	COLOR_NAME	62	Incongruent	niebieski	blue	żółty	yellow	hit	n/a
400.2653	n/a	RESPONSE	n/a	n/a	n/a	n/a	n/a	n/a	n/a	blue
400.2826	1.0167	ITI	n/a	n/a	n/a	n/a	n/a	n/a	n/a	n/a
401.2993	0.5167	FIXCROSS	n/a	n/a	n/a	n/a	n/a	n/a	n/a	n/a
401.816	0.6666	COLOR_NAME	63	Neutral	żółty	yellow	Neutral	Neutral	hit	n/a
402.4569	n/a	RESPONSE	n/a	n/a	n/a	n/a	n/a	n/a	n/a	yellow
402.4826	1.0168	ITI	n/a	n/a	n/a	n/a	n/a	n/a	n/a	n/a
403.4993	0.5167	FIXCROSS	n/a	n/a	n/a	n/a	n/a	n/a	n/a	n/a
404.016	0.8834	COLOR_NAME	64	Incongruent	niebieski	blue	czerwony	red	hit	n/a
404.8724	n/a	RESPONSE	n/a	n/a	n/a	n/a	n/a	n/a	n/a	blue
404.8994	1.0167	ITI	n/a	n/a	n/a	n/a	n/a	n/a	n/a	n/a
405.916	0.5167	FIXCROSS	n/a	n/a	n/a	n/a	n/a	n/a	n/a	n/a
406.4327	0.5825	COLOR_NAME	65	Neutral	czerwony	red	Neutral	Neutral	hit	n/a
406.9839	n/a	RESPONSE	n/a	n/a	n/a	n/a	n/a	n/a	n/a	red
407.0152	1.0175	ITI	n/a	n/a	n/a	n/a	n/a	n/a	n/a	n/a
408.0327	0.5167	FIXCROSS	n/a	n/a	n/a	n/a	n/a	n/a	n/a	n/a
408.5494	1.2	COLOR_NAME	66	Incongruent	żółty	yellow	czerwony	red	hit	n/a
409.7193	n/a	RESPONSE	n/a	n/a	n/a	n/a	n/a	n/a	n/a	yellow
409.7494	1.0167	ITI	n/a	n/a	n/a	n/a	n/a	n/a	n/a	n/a
410.7661	0.5167	FIXCROSS	n/a	n/a	n/a	n/a	n/a	n/a	n/a	n/a
411.2828	0.7833	COLOR_NAME	67	Incongruent	zielony	green	czerwony	red	hit	n/a
412.0388	n/a	RESPONSE	n/a	n/a	n/a	n/a	n/a	n/a	n/a	green
412.0661	1.0167	ITI	n/a	n/a	n/a	n/a	n/a	n/a	n/a	n/a
413.0828	0.5167	FIXCROSS	n/a	n/a	n/a	n/a	n/a	n/a	n/a	n/a
413.5995	0.7833	COLOR_NAME	68	Incongruent	niebieski	blue	zielony	green	hit	n/a
414.3583	n/a	RESPONSE	n/a	n/a	n/a	n/a	n/a	n/a	n/a	blue
414.3828	1.0167	ITI	n/a	n/a	n/a	n/a	n/a	n/a	n/a	n/a
415.3995	0.5167	FIXCROSS	n/a	n/a	n/a	n/a	n/a	n/a	n/a	n/a
415.9162	0.6833	COLOR_NAME	69	Neutral	czerwony	red	Neutral	Neutral	hit	n/a
416.5658	n/a	RESPONSE	n/a	n/a	n/a	n/a	n/a	n/a	n/a	red
416.5995	1.0167	ITI	n/a	n/a	n/a	n/a	n/a	n/a	n/a	n/a
417.6162	0.5167	FIXCROSS	n/a	n/a	n/a	n/a	n/a	n/a	n/a	n/a
418.1328	0.6167	COLOR_NAME	70	Neutral	czerwony	red	Neutral	Neutral	hit	n/a
418.7254	n/a	RESPONSE	n/a	n/a	n/a	n/a	n/a	n/a	n/a	red
418.7495	1.0167	ITI	n/a	n/a	n/a	n/a	n/a	n/a	n/a	n/a
419.7662	0.5167	FIXCROSS	n/a	n/a	n/a	n/a	n/a	n/a	n/a	n/a
420.2829	1.3	COLOR_NAME	71	Incongruent	zielony	green	żółty	yellow	hit	n/a
421.5568	n/a	RESPONSE	n/a	n/a	n/a	n/a	n/a	n/a	n/a	green
421.5829	1.0167	ITI	n/a	n/a	n/a	n/a	n/a	n/a	n/a	n/a
422.5996	0.5167	FIXCROSS	n/a	n/a	n/a	n/a	n/a	n/a	n/a	n/a
423.1162	0.8167	COLOR_NAME	72	Neutral	niebieski	blue	Neutral	Neutral	hit	n/a
423.9082	n/a	RESPONSE	n/a	n/a	n/a	n/a	n/a	n/a	n/a	blue
423.9329	1.0334	ITI	n/a	n/a	n/a	n/a	n/a	n/a	n/a	n/a
427.8754	n/a	RESPONSE	n/a	n/a	n/a	n/a	n/a	n/a	n/a	n/a
