onset	duration	trial_type	trial_number	stroop_condition	stim_text(PL)	stim_text(eng)	stim_color(PL)	stim_color(eng)	response_type	response_color
0.0	n/a	RESPONSE	n/a	n/a	n/a	n/a	n/a	n/a	n/a	n/a
0.0682	1.0333	ITI	n/a	n/a	n/a	n/a	n/a	n/a	n/a	n/a
1.1015	0.5167	FIXCROSS	n/a	n/a	n/a	n/a	n/a	n/a	n/a	n/a
1.6182	1.0667	T_INK	1	Incongruent	żółty	yellow	zielony	green	hit	n/a
2.6553	n/a	RESPONSE	n/a	n/a	n/a	n/a	n/a	n/a	n/a	green
2.6849	0.5167	FEEDBACK	n/a	n/a	n/a	n/a	n/a	n/a	n/a	n/a
3.2016	1.0167	ITI	n/a	n/a	n/a	n/a	n/a	n/a	n/a	n/a
4.2183	0.5167	FIXCROSS	n/a	n/a	n/a	n/a	n/a	n/a	n/a	n/a
4.7349	1.3334	T_INK	2	Incongruent	czerwony	red	zielony	green	hit	n/a
6.0465	n/a	RESPONSE	n/a	n/a	n/a	n/a	n/a	n/a	n/a	green
6.0683	0.5167	FEEDBACK	n/a	n/a	n/a	n/a	n/a	n/a	n/a	n/a
6.585	1.0167	ITI	n/a	n/a	n/a	n/a	n/a	n/a	n/a	n/a
7.6016	0.5167	FIXCROSS	n/a	n/a	n/a	n/a	n/a	n/a	n/a	n/a
8.1183	0.9	T_INK	3	Incongruent	niebieski	blue	czerwony	red	hit	n/a
8.9897	n/a	RESPONSE	n/a	n/a	n/a	n/a	n/a	n/a	n/a	red
9.0183	0.5167	FEEDBACK	n/a	n/a	n/a	n/a	n/a	n/a	n/a	n/a
9.535	1.0167	ITI	n/a	n/a	n/a	n/a	n/a	n/a	n/a	n/a
10.5517	0.5167	FIXCROSS	n/a	n/a	n/a	n/a	n/a	n/a	n/a	n/a
11.0684	0.7833	T_INK	4	Incongruent	niebieski	blue	zielony	green	hit	n/a
11.821	n/a	RESPONSE	n/a	n/a	n/a	n/a	n/a	n/a	n/a	green
11.8517	0.5167	FEEDBACK	n/a	n/a	n/a	n/a	n/a	n/a	n/a	n/a
12.3684	1.0167	ITI	n/a	n/a	n/a	n/a	n/a	n/a	n/a	n/a
13.3851	0.5167	FIXCROSS	n/a	n/a	n/a	n/a	n/a	n/a	n/a	n/a
13.9017	0.75	T_INK	5	Neutral	xxxxxxx	xxxxxxx	czerwony	red	hit	n/a
14.6203	n/a	RESPONSE	n/a	n/a	n/a	n/a	n/a	n/a	n/a	red
14.6517	0.5167	FEEDBACK	n/a	n/a	n/a	n/a	n/a	n/a	n/a	n/a
15.1684	1.0167	ITI	n/a	n/a	n/a	n/a	n/a	n/a	n/a	n/a
16.1851	0.5167	FIXCROSS	n/a	n/a	n/a	n/a	n/a	n/a	n/a	n/a
16.7018	0.4667	T_INK	6	Neutral	xxxxx	xxxxx	czerwony	red	hit	n/a
17.1476	n/a	RESPONSE	n/a	n/a	n/a	n/a	n/a	n/a	n/a	red
17.1684	0.5167	FEEDBACK	n/a	n/a	n/a	n/a	n/a	n/a	n/a	n/a
17.6851	1.0166	ITI	n/a	n/a	n/a	n/a	n/a	n/a	n/a	n/a
18.7017	0.5168	FIXCROSS	n/a	n/a	n/a	n/a	n/a	n/a	n/a	n/a
19.2185	0.7833	T_INK	7	Neutral	xxxxxxx	xxxxxxx	niebieski	blue	incorrect	n/a
19.9789	n/a	RESPONSE	n/a	n/a	n/a	n/a	n/a	n/a	n/a	green
20.0018	0.5167	FEEDBACK	n/a	n/a	n/a	n/a	n/a	n/a	n/a	n/a
20.4268	n/a	RESPONSE	n/a	n/a	n/a	n/a	n/a	n/a	n/a	blue
20.5185	1.0167	ITI	n/a	n/a	n/a	n/a	n/a	n/a	n/a	n/a
21.5352	0.5167	FIXCROSS	n/a	n/a	n/a	n/a	n/a	n/a	n/a	n/a
22.0519	0.75	T_INK	8	Incongruent	zielony	green	czerwony	red	hit	n/a
22.7782	n/a	RESPONSE	n/a	n/a	n/a	n/a	n/a	n/a	n/a	red
22.8019	0.5167	FEEDBACK	n/a	n/a	n/a	n/a	n/a	n/a	n/a	n/a
23.3185	1.0167	ITI	n/a	n/a	n/a	n/a	n/a	n/a	n/a	n/a
24.3352	0.5167	FIXCROSS	n/a	n/a	n/a	n/a	n/a	n/a	n/a	n/a
24.8519	0.8167	T_INK	9	Incongruent	zielony	green	żółty	yellow	hit	n/a
25.6415	n/a	RESPONSE	n/a	n/a	n/a	n/a	n/a	n/a	n/a	yellow
25.6686	0.5167	FEEDBACK	n/a	n/a	n/a	n/a	n/a	n/a	n/a	n/a
26.1852	1.0167	ITI	n/a	n/a	n/a	n/a	n/a	n/a	n/a	n/a
27.2019	0.5167	FIXCROSS	n/a	n/a	n/a	n/a	n/a	n/a	n/a	n/a
27.7186	0.7333	T_INK	10	Incongruent	żółty	yellow	czerwony	red	hit	n/a
28.4249	n/a	RESPONSE	n/a	n/a	n/a	n/a	n/a	n/a	n/a	red
28.4519	0.5167	FEEDBACK	n/a	n/a	n/a	n/a	n/a	n/a	n/a	n/a
28.9686	1.0167	ITI	n/a	n/a	n/a	n/a	n/a	n/a	n/a	n/a
29.9853	0.5167	FIXCROSS	n/a	n/a	n/a	n/a	n/a	n/a	n/a	n/a
30.502	0.9334	T_INK	11	Incongruent	czerwony	red	żółty	yellow	hit	n/a
31.4001	n/a	RESPONSE	n/a	n/a	n/a	n/a	n/a	n/a	n/a	yellow
31.4353	0.5167	FEEDBACK	n/a	n/a	n/a	n/a	n/a	n/a	n/a	n/a
31.952	1.0167	ITI	n/a	n/a	n/a	n/a	n/a	n/a	n/a	n/a
32.9687	0.5167	FIXCROSS	n/a	n/a	n/a	n/a	n/a	n/a	n/a	n/a
33.4853	1.0334	T_INK	12	Neutral	xxxxxxxx	xxxxxxxx	niebieski	blue	hit	n/a
34.4874	n/a	RESPONSE	n/a	n/a	n/a	n/a	n/a	n/a	n/a	blue
34.5187	0.5167	FEEDBACK	n/a	n/a	n/a	n/a	n/a	n/a	n/a	n/a
35.0354	1.0334	ITI	n/a	n/a	n/a	n/a	n/a	n/a	n/a	n/a
42.1816	n/a	RESPONSE	n/a	n/a	n/a	n/a	n/a	n/a	n/a	n/a
42.2355	1.0167	ITI	n/a	n/a	n/a	n/a	n/a	n/a	n/a	n/a
43.2521	0.5167	FIXCROSS	n/a	n/a	n/a	n/a	n/a	n/a	n/a	n/a
43.7688	0.9	INK	1	Neutral	xxxxxxx	xxxxxxx	żółty	yellow	hit	n/a
44.6449	n/a	RESPONSE	n/a	n/a	n/a	n/a	n/a	n/a	n/a	yellow
44.6688	1.0167	ITI	n/a	n/a	n/a	n/a	n/a	n/a	n/a	n/a
45.6855	0.5167	FIXCROSS	n/a	n/a	n/a	n/a	n/a	n/a	n/a	n/a
46.2022	0.8	INK	2	Incongruent	czerwony	red	żółty	yellow	hit	n/a
46.9804	n/a	RESPONSE	n/a	n/a	n/a	n/a	n/a	n/a	n/a	yellow
47.0022	1.0167	ITI	n/a	n/a	n/a	n/a	n/a	n/a	n/a	n/a
48.0189	0.5167	FIXCROSS	n/a	n/a	n/a	n/a	n/a	n/a	n/a	n/a
48.5356	0.9167	INK	3	Incongruent	niebieski	blue	zielony	green	hit	n/a
49.4278	n/a	RESPONSE	n/a	n/a	n/a	n/a	n/a	n/a	n/a	green
49.4522	1.0167	ITI	n/a	n/a	n/a	n/a	n/a	n/a	n/a	n/a
50.4689	0.5167	FIXCROSS	n/a	n/a	n/a	n/a	n/a	n/a	n/a	n/a
50.9856	0.7333	INK	4	Incongruent	żółty	yellow	zielony	green	hit	n/a
51.6992	n/a	RESPONSE	n/a	n/a	n/a	n/a	n/a	n/a	n/a	green
51.7189	1.0167	ITI	n/a	n/a	n/a	n/a	n/a	n/a	n/a	n/a
52.7356	0.5167	FIXCROSS	n/a	n/a	n/a	n/a	n/a	n/a	n/a	n/a
53.2523	0.8167	INK	5	Neutral	xxxxxxxxx	xxxxxxxxx	żółty	yellow	hit	n/a
54.0507	n/a	RESPONSE	n/a	n/a	n/a	n/a	n/a	n/a	n/a	yellow
54.069	1.0167	ITI	n/a	n/a	n/a	n/a	n/a	n/a	n/a	n/a
55.0856	0.5167	FIXCROSS	n/a	n/a	n/a	n/a	n/a	n/a	n/a	n/a
55.6023	0.7667	INK	6	Incongruent	czerwony	red	zielony	green	hit	n/a
56.3381	n/a	RESPONSE	n/a	n/a	n/a	n/a	n/a	n/a	n/a	green
56.369	1.0167	ITI	n/a	n/a	n/a	n/a	n/a	n/a	n/a	n/a
57.3857	0.5167	FIXCROSS	n/a	n/a	n/a	n/a	n/a	n/a	n/a	n/a
57.9023	0.9	INK	7	Incongruent	czerwony	red	żółty	yellow	hit	n/a
58.7696	n/a	RESPONSE	n/a	n/a	n/a	n/a	n/a	n/a	n/a	yellow
58.8024	1.0167	ITI	n/a	n/a	n/a	n/a	n/a	n/a	n/a	n/a
59.819	0.5167	FIXCROSS	n/a	n/a	n/a	n/a	n/a	n/a	n/a	n/a
60.3357	0.8667	INK	8	Incongruent	zielony	green	czerwony	red	hit	n/a
61.169	n/a	RESPONSE	n/a	n/a	n/a	n/a	n/a	n/a	n/a	red
61.2024	1.0167	ITI	n/a	n/a	n/a	n/a	n/a	n/a	n/a	n/a
62.2191	0.5167	FIXCROSS	n/a	n/a	n/a	n/a	n/a	n/a	n/a	n/a
62.7357	0.9167	INK	9	Incongruent	czerwony	red	niebieski	blue	hit	n/a
63.6164	n/a	RESPONSE	n/a	n/a	n/a	n/a	n/a	n/a	n/a	blue
63.6524	1.0167	ITI	n/a	n/a	n/a	n/a	n/a	n/a	n/a	n/a
64.6691	0.5167	FIXCROSS	n/a	n/a	n/a	n/a	n/a	n/a	n/a	n/a
65.1858	0.7334	INK	10	Incongruent	zielony	green	żółty	yellow	hit	n/a
65.8878	n/a	RESPONSE	n/a	n/a	n/a	n/a	n/a	n/a	n/a	yellow
65.9191	1.0167	ITI	n/a	n/a	n/a	n/a	n/a	n/a	n/a	n/a
66.9358	0.5167	FIXCROSS	n/a	n/a	n/a	n/a	n/a	n/a	n/a	n/a
67.4525	0.7333	INK	11	Neutral	xxxxxxxx	xxxxxxxx	niebieski	blue	hit	n/a
68.1593	n/a	RESPONSE	n/a	n/a	n/a	n/a	n/a	n/a	n/a	blue
68.1858	1.0167	ITI	n/a	n/a	n/a	n/a	n/a	n/a	n/a	n/a
69.2025	0.5167	FIXCROSS	n/a	n/a	n/a	n/a	n/a	n/a	n/a	n/a
69.7192	0.5834	INK	12	Incongruent	żółty	yellow	czerwony	red	hit	n/a
70.2708	n/a	RESPONSE	n/a	n/a	n/a	n/a	n/a	n/a	n/a	red
70.3025	1.0167	ITI	n/a	n/a	n/a	n/a	n/a	n/a	n/a	n/a
71.3192	0.5167	FIXCROSS	n/a	n/a	n/a	n/a	n/a	n/a	n/a	n/a
71.8359	0.7	INK	13	Incongruent	żółty	yellow	niebieski	blue	hit	n/a
72.5102	n/a	RESPONSE	n/a	n/a	n/a	n/a	n/a	n/a	n/a	blue
72.5359	1.0167	ITI	n/a	n/a	n/a	n/a	n/a	n/a	n/a	n/a
73.5526	0.5167	FIXCROSS	n/a	n/a	n/a	n/a	n/a	n/a	n/a	n/a
74.0692	0.75	INK	14	Neutral	xxxxx	xxxxx	zielony	green	hit	n/a
74.7977	n/a	RESPONSE	n/a	n/a	n/a	n/a	n/a	n/a	n/a	green
74.8192	1.0167	ITI	n/a	n/a	n/a	n/a	n/a	n/a	n/a	n/a
75.8359	0.5167	FIXCROSS	n/a	n/a	n/a	n/a	n/a	n/a	n/a	n/a
76.3526	0.6333	INK	15	Neutral	xxxxxxxxx	xxxxxxxxx	zielony	green	hit	n/a
76.9572	n/a	RESPONSE	n/a	n/a	n/a	n/a	n/a	n/a	n/a	green
76.9859	1.0167	ITI	n/a	n/a	n/a	n/a	n/a	n/a	n/a	n/a
78.0026	0.5167	FIXCROSS	n/a	n/a	n/a	n/a	n/a	n/a	n/a	n/a
78.5193	0.65	INK	16	Incongruent	zielony	green	żółty	yellow	hit	n/a
79.1486	n/a	RESPONSE	n/a	n/a	n/a	n/a	n/a	n/a	n/a	yellow
79.1693	1.0167	ITI	n/a	n/a	n/a	n/a	n/a	n/a	n/a	n/a
80.186	0.5167	FIXCROSS	n/a	n/a	n/a	n/a	n/a	n/a	n/a	n/a
80.7027	0.7333	INK	17	Incongruent	żółty	yellow	zielony	green	hit	n/a
81.4041	n/a	RESPONSE	n/a	n/a	n/a	n/a	n/a	n/a	n/a	green
81.436	1.0333	ITI	n/a	n/a	n/a	n/a	n/a	n/a	n/a	n/a
82.4693	0.5167	FIXCROSS	n/a	n/a	n/a	n/a	n/a	n/a	n/a	n/a
82.986	0.7833	INK	18	Incongruent	żółty	yellow	czerwony	red	hit	n/a
83.7395	n/a	RESPONSE	n/a	n/a	n/a	n/a	n/a	n/a	n/a	red
83.7694	1.0167	ITI	n/a	n/a	n/a	n/a	n/a	n/a	n/a	n/a
84.7861	0.5167	FIXCROSS	n/a	n/a	n/a	n/a	n/a	n/a	n/a	n/a
85.3027	0.6667	INK	19	Incongruent	zielony	green	żółty	yellow	hit	n/a
85.947	n/a	RESPONSE	n/a	n/a	n/a	n/a	n/a	n/a	n/a	yellow
85.9694	1.0167	ITI	n/a	n/a	n/a	n/a	n/a	n/a	n/a	n/a
86.9861	0.5167	FIXCROSS	n/a	n/a	n/a	n/a	n/a	n/a	n/a	n/a
87.5028	0.6834	INK	20	Neutral	xxxxx	xxxxx	czerwony	red	hit	n/a
88.1545	n/a	RESPONSE	n/a	n/a	n/a	n/a	n/a	n/a	n/a	red
88.1861	1.0167	ITI	n/a	n/a	n/a	n/a	n/a	n/a	n/a	n/a
89.2028	0.5167	FIXCROSS	n/a	n/a	n/a	n/a	n/a	n/a	n/a	n/a
89.7195	0.7	INK	21	Neutral	xxxxxxx	xxxxxxx	żółty	yellow	hit	n/a
90.3939	n/a	RESPONSE	n/a	n/a	n/a	n/a	n/a	n/a	n/a	yellow
90.4195	1.0167	ITI	n/a	n/a	n/a	n/a	n/a	n/a	n/a	n/a
91.4361	0.5167	FIXCROSS	n/a	n/a	n/a	n/a	n/a	n/a	n/a	n/a
91.9528	0.6833	INK	22	Neutral	xxxxxxxxx	xxxxxxxxx	czerwony	red	hit	n/a
92.6174	n/a	RESPONSE	n/a	n/a	n/a	n/a	n/a	n/a	n/a	red
92.6362	1.0167	ITI	n/a	n/a	n/a	n/a	n/a	n/a	n/a	n/a
93.6528	0.5167	FIXCROSS	n/a	n/a	n/a	n/a	n/a	n/a	n/a	n/a
94.1695	0.6167	INK	23	Neutral	xxxxxxx	xxxxxxx	czerwony	red	hit	n/a
94.7609	n/a	RESPONSE	n/a	n/a	n/a	n/a	n/a	n/a	n/a	red
94.7862	1.0167	ITI	n/a	n/a	n/a	n/a	n/a	n/a	n/a	n/a
95.8029	0.5167	FIXCROSS	n/a	n/a	n/a	n/a	n/a	n/a	n/a	n/a
96.3195	0.5833	INK	24	Neutral	xxxxxxx	xxxxxxx	czerwony	red	hit	n/a
96.8724	n/a	RESPONSE	n/a	n/a	n/a	n/a	n/a	n/a	n/a	red
96.9029	1.0167	ITI	n/a	n/a	n/a	n/a	n/a	n/a	n/a	n/a
97.9196	0.5167	FIXCROSS	n/a	n/a	n/a	n/a	n/a	n/a	n/a	n/a
98.4362	0.6	INK	25	Neutral	xxxxx	xxxxx	zielony	green	hit	n/a
99.0159	n/a	RESPONSE	n/a	n/a	n/a	n/a	n/a	n/a	n/a	green
99.0362	1.0167	ITI	n/a	n/a	n/a	n/a	n/a	n/a	n/a	n/a
100.0529	0.5167	FIXCROSS	n/a	n/a	n/a	n/a	n/a	n/a	n/a	n/a
100.5696	0.7833	INK	26	Neutral	xxxxx	xxxxx	niebieski	blue	hit	n/a
101.3353	n/a	RESPONSE	n/a	n/a	n/a	n/a	n/a	n/a	n/a	blue
101.3529	1.0167	ITI	n/a	n/a	n/a	n/a	n/a	n/a	n/a	n/a
102.3696	0.5167	FIXCROSS	n/a	n/a	n/a	n/a	n/a	n/a	n/a	n/a
102.8863	0.8	INK	27	Neutral	xxxxxxxx	xxxxxxxx	zielony	green	hit	n/a
103.6547	n/a	RESPONSE	n/a	n/a	n/a	n/a	n/a	n/a	n/a	green
103.6863	1.0167	ITI	n/a	n/a	n/a	n/a	n/a	n/a	n/a	n/a
104.703	0.5167	FIXCROSS	n/a	n/a	n/a	n/a	n/a	n/a	n/a	n/a
105.2197	0.6833	INK	28	Neutral	xxxxxxx	xxxxxxx	czerwony	red	hit	n/a
105.8782	n/a	RESPONSE	n/a	n/a	n/a	n/a	n/a	n/a	n/a	red
105.903	1.0167	ITI	n/a	n/a	n/a	n/a	n/a	n/a	n/a	n/a
106.9197	0.5167	FIXCROSS	n/a	n/a	n/a	n/a	n/a	n/a	n/a	n/a
107.4364	0.7333	INK	29	Neutral	xxxxxxxxx	xxxxxxxxx	czerwony	red	hit	n/a
108.1497	n/a	RESPONSE	n/a	n/a	n/a	n/a	n/a	n/a	n/a	red
108.1697	1.0167	ITI	n/a	n/a	n/a	n/a	n/a	n/a	n/a	n/a
109.1864	0.5167	FIXCROSS	n/a	n/a	n/a	n/a	n/a	n/a	n/a	n/a
109.7031	0.6333	INK	30	Neutral	xxxxxxxxx	xxxxxxxxx	żółty	yellow	hit	n/a
110.3091	n/a	RESPONSE	n/a	n/a	n/a	n/a	n/a	n/a	n/a	yellow
110.3364	1.0167	ITI	n/a	n/a	n/a	n/a	n/a	n/a	n/a	n/a
111.3531	0.5167	FIXCROSS	n/a	n/a	n/a	n/a	n/a	n/a	n/a	n/a
111.8698	0.7333	INK	31	Neutral	xxxxxxx	xxxxxxx	niebieski	blue	hit	n/a
112.5806	n/a	RESPONSE	n/a	n/a	n/a	n/a	n/a	n/a	n/a	blue
112.603	1.0167	ITI	n/a	n/a	n/a	n/a	n/a	n/a	n/a	n/a
113.6198	0.5167	FIXCROSS	n/a	n/a	n/a	n/a	n/a	n/a	n/a	n/a
114.1365	0.6333	INK	32	Incongruent	niebieski	blue	zielony	green	hit	n/a
114.7401	n/a	RESPONSE	n/a	n/a	n/a	n/a	n/a	n/a	n/a	green
114.7698	1.0167	ITI	n/a	n/a	n/a	n/a	n/a	n/a	n/a	n/a
115.7865	0.5167	FIXCROSS	n/a	n/a	n/a	n/a	n/a	n/a	n/a	n/a
116.3031	0.5833	INK	33	Incongruent	żółty	yellow	zielony	green	hit	n/a
116.8676	n/a	RESPONSE	n/a	n/a	n/a	n/a	n/a	n/a	n/a	green
116.8865	1.0167	ITI	n/a	n/a	n/a	n/a	n/a	n/a	n/a	n/a
117.9032	0.5167	FIXCROSS	n/a	n/a	n/a	n/a	n/a	n/a	n/a	n/a
118.4199	0.6333	INK	34	Incongruent	niebieski	blue	żółty	yellow	hit	n/a
119.027	n/a	RESPONSE	n/a	n/a	n/a	n/a	n/a	n/a	n/a	yellow
119.0532	1.0167	ITI	n/a	n/a	n/a	n/a	n/a	n/a	n/a	n/a
120.0699	0.5167	FIXCROSS	n/a	n/a	n/a	n/a	n/a	n/a	n/a	n/a
120.5865	0.7833	INK	35	Incongruent	żółty	yellow	niebieski	blue	hit	n/a
121.3465	n/a	RESPONSE	n/a	n/a	n/a	n/a	n/a	n/a	n/a	blue
121.3699	1.0167	ITI	n/a	n/a	n/a	n/a	n/a	n/a	n/a	n/a
122.3866	0.5167	FIXCROSS	n/a	n/a	n/a	n/a	n/a	n/a	n/a	n/a
122.9032	0.6	INK	36	Neutral	xxxxxxxx	xxxxxxxx	niebieski	blue	hit	n/a
123.4739	n/a	RESPONSE	n/a	n/a	n/a	n/a	n/a	n/a	n/a	blue
123.5032	1.0167	ITI	n/a	n/a	n/a	n/a	n/a	n/a	n/a	n/a
124.5199	0.5167	FIXCROSS	n/a	n/a	n/a	n/a	n/a	n/a	n/a	n/a
125.0366	0.5667	INK	37	Incongruent	żółty	yellow	niebieski	blue	hit	n/a
125.5695	n/a	RESPONSE	n/a	n/a	n/a	n/a	n/a	n/a	n/a	blue
125.6033	1.0167	ITI	n/a	n/a	n/a	n/a	n/a	n/a	n/a	n/a
126.62	0.5167	FIXCROSS	n/a	n/a	n/a	n/a	n/a	n/a	n/a	n/a
127.1366	0.5834	INK	38	Neutral	xxxxxxx	xxxxxxx	niebieski	blue	hit	n/a
127.6969	n/a	RESPONSE	n/a	n/a	n/a	n/a	n/a	n/a	n/a	blue
127.72	1.0167	ITI	n/a	n/a	n/a	n/a	n/a	n/a	n/a	n/a
128.7367	0.5167	FIXCROSS	n/a	n/a	n/a	n/a	n/a	n/a	n/a	n/a
129.2533	0.65	INK	39	Incongruent	czerwony	red	żółty	yellow	hit	n/a
129.8724	n/a	RESPONSE	n/a	n/a	n/a	n/a	n/a	n/a	n/a	yellow
129.9033	1.0167	ITI	n/a	n/a	n/a	n/a	n/a	n/a	n/a	n/a
130.92	0.5167	FIXCROSS	n/a	n/a	n/a	n/a	n/a	n/a	n/a	n/a
131.4367	0.55	INK	40	Neutral	xxxxxxxx	xxxxxxxx	zielony	green	hit	n/a
131.9679	n/a	RESPONSE	n/a	n/a	n/a	n/a	n/a	n/a	n/a	green
131.9867	1.0167	ITI	n/a	n/a	n/a	n/a	n/a	n/a	n/a	n/a
133.0034	0.5167	FIXCROSS	n/a	n/a	n/a	n/a	n/a	n/a	n/a	n/a
133.5201	0.6	INK	41	Incongruent	niebieski	blue	czerwony	red	hit	n/a
134.0954	n/a	RESPONSE	n/a	n/a	n/a	n/a	n/a	n/a	n/a	red
134.1201	1.0167	ITI	n/a	n/a	n/a	n/a	n/a	n/a	n/a	n/a
135.1367	0.5167	FIXCROSS	n/a	n/a	n/a	n/a	n/a	n/a	n/a	n/a
135.6534	0.4833	INK	42	Neutral	xxxxx	xxxxx	czerwony	red	hit	n/a
136.1109	n/a	RESPONSE	n/a	n/a	n/a	n/a	n/a	n/a	n/a	red
136.1367	1.0168	ITI	n/a	n/a	n/a	n/a	n/a	n/a	n/a	n/a
137.1534	0.5167	FIXCROSS	n/a	n/a	n/a	n/a	n/a	n/a	n/a	n/a
137.6701	0.5833	INK	43	Incongruent	zielony	green	czerwony	red	hit	n/a
138.2224	n/a	RESPONSE	n/a	n/a	n/a	n/a	n/a	n/a	n/a	red
138.2534	1.0167	ITI	n/a	n/a	n/a	n/a	n/a	n/a	n/a	n/a
139.2701	0.5167	FIXCROSS	n/a	n/a	n/a	n/a	n/a	n/a	n/a	n/a
139.7868	0.65	INK	44	Neutral	xxxxx	xxxxx	niebieski	blue	hit	n/a
140.4139	n/a	RESPONSE	n/a	n/a	n/a	n/a	n/a	n/a	n/a	blue
140.4368	1.0167	ITI	n/a	n/a	n/a	n/a	n/a	n/a	n/a	n/a
141.4535	0.5167	FIXCROSS	n/a	n/a	n/a	n/a	n/a	n/a	n/a	n/a
141.9702	0.5667	INK	45	Incongruent	niebieski	blue	zielony	green	hit	n/a
142.5094	n/a	RESPONSE	n/a	n/a	n/a	n/a	n/a	n/a	n/a	green
142.5368	1.0167	ITI	n/a	n/a	n/a	n/a	n/a	n/a	n/a	n/a
143.5535	0.5167	FIXCROSS	n/a	n/a	n/a	n/a	n/a	n/a	n/a	n/a
144.0702	0.4833	INK	46	Incongruent	niebieski	blue	czerwony	red	hit	n/a
144.5249	n/a	RESPONSE	n/a	n/a	n/a	n/a	n/a	n/a	n/a	red
144.5535	1.0167	ITI	n/a	n/a	n/a	n/a	n/a	n/a	n/a	n/a
145.5702	0.5167	FIXCROSS	n/a	n/a	n/a	n/a	n/a	n/a	n/a	n/a
146.0869	0.55	INK	47	Neutral	xxxxxxx	xxxxxxx	żółty	yellow	hit	n/a
146.6044	n/a	RESPONSE	n/a	n/a	n/a	n/a	n/a	n/a	n/a	yellow
146.6369	1.0167	ITI	n/a	n/a	n/a	n/a	n/a	n/a	n/a	n/a
147.6536	0.5167	FIXCROSS	n/a	n/a	n/a	n/a	n/a	n/a	n/a	n/a
148.1703	0.5833	INK	48	Neutral	xxxxx	xxxxx	niebieski	blue	hit	n/a
148.7319	n/a	RESPONSE	n/a	n/a	n/a	n/a	n/a	n/a	n/a	blue
148.7536	1.0167	ITI	n/a	n/a	n/a	n/a	n/a	n/a	n/a	n/a
149.7703	0.5167	FIXCROSS	n/a	n/a	n/a	n/a	n/a	n/a	n/a	n/a
150.287	0.65	INK	49	Neutral	xxxxxxxxx	xxxxxxxxx	żółty	yellow	hit	n/a
150.9073	n/a	RESPONSE	n/a	n/a	n/a	n/a	n/a	n/a	n/a	yellow
150.937	1.0167	ITI	n/a	n/a	n/a	n/a	n/a	n/a	n/a	n/a
151.9536	0.5167	FIXCROSS	n/a	n/a	n/a	n/a	n/a	n/a	n/a	n/a
152.4703	0.55	INK	50	Neutral	xxxxxxxx	xxxxxxxx	żółty	yellow	hit	n/a
152.9868	n/a	RESPONSE	n/a	n/a	n/a	n/a	n/a	n/a	n/a	yellow
153.0203	1.0167	ITI	n/a	n/a	n/a	n/a	n/a	n/a	n/a	n/a
154.037	0.5167	FIXCROSS	n/a	n/a	n/a	n/a	n/a	n/a	n/a	n/a
154.5537	0.6333	INK	51	Incongruent	zielony	green	niebieski	blue	hit	n/a
155.1623	n/a	RESPONSE	n/a	n/a	n/a	n/a	n/a	n/a	n/a	blue
155.187	1.0167	ITI	n/a	n/a	n/a	n/a	n/a	n/a	n/a	n/a
156.2037	0.5167	FIXCROSS	n/a	n/a	n/a	n/a	n/a	n/a	n/a	n/a
156.7204	0.4667	INK	52	Incongruent	zielony	green	niebieski	blue	hit	n/a
157.1618	n/a	RESPONSE	n/a	n/a	n/a	n/a	n/a	n/a	n/a	blue
157.187	1.0167	ITI	n/a	n/a	n/a	n/a	n/a	n/a	n/a	n/a
158.2037	0.5167	FIXCROSS	n/a	n/a	n/a	n/a	n/a	n/a	n/a	n/a
158.7204	0.7667	INK	53	Neutral	xxxxxxxxx	xxxxxxxxx	zielony	green	hit	n/a
159.4653	n/a	RESPONSE	n/a	n/a	n/a	n/a	n/a	n/a	n/a	green
159.4871	1.0167	ITI	n/a	n/a	n/a	n/a	n/a	n/a	n/a	n/a
160.5038	0.5167	FIXCROSS	n/a	n/a	n/a	n/a	n/a	n/a	n/a	n/a
161.0204	0.5	INK	54	Neutral	xxxxxxxxx	xxxxxxxxx	zielony	green	hit	n/a
161.4968	n/a	RESPONSE	n/a	n/a	n/a	n/a	n/a	n/a	n/a	green
161.5204	1.0167	ITI	n/a	n/a	n/a	n/a	n/a	n/a	n/a	n/a
162.5371	0.5167	FIXCROSS	n/a	n/a	n/a	n/a	n/a	n/a	n/a	n/a
163.0538	0.8	INK	55	Neutral	xxxxxxxx	xxxxxxxx	niebieski	blue	hit	n/a
163.8322	n/a	RESPONSE	n/a	n/a	n/a	n/a	n/a	n/a	n/a	blue
163.8538	1.0167	ITI	n/a	n/a	n/a	n/a	n/a	n/a	n/a	n/a
164.8705	0.5167	FIXCROSS	n/a	n/a	n/a	n/a	n/a	n/a	n/a	n/a
165.3872	0.6667	INK	56	Incongruent	niebieski	blue	żółty	yellow	hit	n/a
166.0237	n/a	RESPONSE	n/a	n/a	n/a	n/a	n/a	n/a	n/a	yellow
166.0538	1.0167	ITI	n/a	n/a	n/a	n/a	n/a	n/a	n/a	n/a
167.0705	0.5167	FIXCROSS	n/a	n/a	n/a	n/a	n/a	n/a	n/a	n/a
167.5872	0.5833	INK	57	Incongruent	czerwony	red	zielony	green	hit	n/a
168.1512	n/a	RESPONSE	n/a	n/a	n/a	n/a	n/a	n/a	n/a	green
168.1705	1.0167	ITI	n/a	n/a	n/a	n/a	n/a	n/a	n/a	n/a
169.1872	0.5167	FIXCROSS	n/a	n/a	n/a	n/a	n/a	n/a	n/a	n/a
169.7039	0.6167	INK	58	Neutral	xxxxxxxx	xxxxxxxx	żółty	yellow	hit	n/a
170.2947	n/a	RESPONSE	n/a	n/a	n/a	n/a	n/a	n/a	n/a	yellow
170.3205	1.0167	ITI	n/a	n/a	n/a	n/a	n/a	n/a	n/a	n/a
171.3372	0.5167	FIXCROSS	n/a	n/a	n/a	n/a	n/a	n/a	n/a	n/a
171.8539	0.6167	INK	59	Incongruent	niebieski	blue	czerwony	red	hit	n/a
172.4381	n/a	RESPONSE	n/a	n/a	n/a	n/a	n/a	n/a	n/a	red
172.4706	1.0167	ITI	n/a	n/a	n/a	n/a	n/a	n/a	n/a	n/a
173.4873	0.5167	FIXCROSS	n/a	n/a	n/a	n/a	n/a	n/a	n/a	n/a
174.0039	0.75	INK	60	Incongruent	zielony	green	czerwony	red	hit	n/a
174.7256	n/a	RESPONSE	n/a	n/a	n/a	n/a	n/a	n/a	n/a	red
174.7539	1.0167	ITI	n/a	n/a	n/a	n/a	n/a	n/a	n/a	n/a
175.7706	0.5167	FIXCROSS	n/a	n/a	n/a	n/a	n/a	n/a	n/a	n/a
176.2873	0.5667	INK	61	Neutral	xxxxx	xxxxx	zielony	green	hit	n/a
176.8211	n/a	RESPONSE	n/a	n/a	n/a	n/a	n/a	n/a	n/a	green
176.854	1.0167	ITI	n/a	n/a	n/a	n/a	n/a	n/a	n/a	n/a
177.8707	0.5167	FIXCROSS	n/a	n/a	n/a	n/a	n/a	n/a	n/a	n/a
178.3873	0.7333	INK	62	Neutral	xxxxx	xxxxx	czerwony	red	hit	n/a
179.0926	n/a	RESPONSE	n/a	n/a	n/a	n/a	n/a	n/a	n/a	red
179.1207	1.0167	ITI	n/a	n/a	n/a	n/a	n/a	n/a	n/a	n/a
180.1373	0.5167	FIXCROSS	n/a	n/a	n/a	n/a	n/a	n/a	n/a	n/a
180.654	0.6333	INK	63	Incongruent	czerwony	red	niebieski	blue	hit	n/a
181.268	n/a	RESPONSE	n/a	n/a	n/a	n/a	n/a	n/a	n/a	blue
181.2874	1.0167	ITI	n/a	n/a	n/a	n/a	n/a	n/a	n/a	n/a
182.304	0.5167	FIXCROSS	n/a	n/a	n/a	n/a	n/a	n/a	n/a	n/a
182.8207	0.6334	INK	64	Neutral	xxxxxxxxx	xxxxxxxxx	czerwony	red	hit	n/a
183.4275	n/a	RESPONSE	n/a	n/a	n/a	n/a	n/a	n/a	n/a	red
183.4541	1.0167	ITI	n/a	n/a	n/a	n/a	n/a	n/a	n/a	n/a
184.4707	0.5167	FIXCROSS	n/a	n/a	n/a	n/a	n/a	n/a	n/a	n/a
184.9874	0.6167	INK	65	Incongruent	niebieski	blue	żółty	yellow	hit	n/a
185.571	n/a	RESPONSE	n/a	n/a	n/a	n/a	n/a	n/a	n/a	yellow
185.6041	1.0167	ITI	n/a	n/a	n/a	n/a	n/a	n/a	n/a	n/a
186.6208	0.5167	FIXCROSS	n/a	n/a	n/a	n/a	n/a	n/a	n/a	n/a
187.1374	0.6833	INK	66	Incongruent	czerwony	red	niebieski	blue	hit	n/a
187.7944	n/a	RESPONSE	n/a	n/a	n/a	n/a	n/a	n/a	n/a	blue
187.8208	1.0167	ITI	n/a	n/a	n/a	n/a	n/a	n/a	n/a	n/a
188.8375	0.5167	FIXCROSS	n/a	n/a	n/a	n/a	n/a	n/a	n/a	n/a
189.3541	0.6167	INK	67	Neutral	xxxxxxxx	xxxxxxxx	zielony	green	hit	n/a
189.9379	n/a	RESPONSE	n/a	n/a	n/a	n/a	n/a	n/a	n/a	green
189.9708	1.0167	ITI	n/a	n/a	n/a	n/a	n/a	n/a	n/a	n/a
190.9875	0.5167	FIXCROSS	n/a	n/a	n/a	n/a	n/a	n/a	n/a	n/a
191.5042	0.5167	INK	68	Incongruent	czerwony	red	zielony	green	hit	n/a
192.0014	n/a	RESPONSE	n/a	n/a	n/a	n/a	n/a	n/a	n/a	green
192.0208	1.0167	ITI	n/a	n/a	n/a	n/a	n/a	n/a	n/a	n/a
193.0375	0.5167	FIXCROSS	n/a	n/a	n/a	n/a	n/a	n/a	n/a	n/a
193.5542	0.6	INK	69	Neutral	xxxxxxx	xxxxxxx	niebieski	blue	hit	n/a
194.1289	n/a	RESPONSE	n/a	n/a	n/a	n/a	n/a	n/a	n/a	blue
194.1542	1.0167	ITI	n/a	n/a	n/a	n/a	n/a	n/a	n/a	n/a
195.1709	0.5167	FIXCROSS	n/a	n/a	n/a	n/a	n/a	n/a	n/a	n/a
195.6876	0.6	INK	70	Incongruent	żółty	yellow	czerwony	red	hit	n/a
196.2564	n/a	RESPONSE	n/a	n/a	n/a	n/a	n/a	n/a	n/a	red
196.2876	1.0167	ITI	n/a	n/a	n/a	n/a	n/a	n/a	n/a	n/a
197.3042	0.5167	FIXCROSS	n/a	n/a	n/a	n/a	n/a	n/a	n/a	n/a
197.8209	0.5833	INK	71	Incongruent	zielony	green	niebieski	blue	hit	n/a
198.3839	n/a	RESPONSE	n/a	n/a	n/a	n/a	n/a	n/a	n/a	blue
198.4043	1.0167	ITI	n/a	n/a	n/a	n/a	n/a	n/a	n/a	n/a
199.4209	0.5167	FIXCROSS	n/a	n/a	n/a	n/a	n/a	n/a	n/a	n/a
199.9376	0.8333	INK	72	Neutral	xxxxxxxx	xxxxxxxx	żółty	yellow	hit	n/a
200.7513	n/a	RESPONSE	n/a	n/a	n/a	n/a	n/a	n/a	n/a	yellow
200.771	1.0833	ITI	n/a	n/a	n/a	n/a	n/a	n/a	n/a	n/a
249.3316	n/a	RESPONSE	n/a	n/a	n/a	n/a	n/a	n/a	n/a	n/a
249.3883	1.0167	ITI	n/a	n/a	n/a	n/a	n/a	n/a	n/a	n/a
250.405	0.5167	FIXCROSS	n/a	n/a	n/a	n/a	n/a	n/a	n/a	n/a
250.9216	1.5167	T_COLOR_NAME	1	Incongruent	czerwony	red	zielony	green	hit	n/a
252.4029	n/a	RESPONSE	n/a	n/a	n/a	n/a	n/a	n/a	n/a	red
252.4383	0.5167	FEEDBACK	n/a	n/a	n/a	n/a	n/a	n/a	n/a	n/a
252.955	1.0167	ITI	n/a	n/a	n/a	n/a	n/a	n/a	n/a	n/a
253.9717	0.5167	FIXCROSS	n/a	n/a	n/a	n/a	n/a	n/a	n/a	n/a
254.4884	1.3334	T_COLOR_NAME	2	Incongruent	niebieski	blue	zielony	green	hit	n/a
255.794	n/a	RESPONSE	n/a	n/a	n/a	n/a	n/a	n/a	n/a	blue
255.8217	0.5167	FEEDBACK	n/a	n/a	n/a	n/a	n/a	n/a	n/a	n/a
256.3384	1.0167	ITI	n/a	n/a	n/a	n/a	n/a	n/a	n/a	n/a
257.3551	0.5167	FIXCROSS	n/a	n/a	n/a	n/a	n/a	n/a	n/a	n/a
257.8717	0.9667	T_COLOR_NAME	3	Incongruent	żółty	yellow	czerwony	red	hit	n/a
258.8014	n/a	RESPONSE	n/a	n/a	n/a	n/a	n/a	n/a	n/a	yellow
258.8384	0.5167	FEEDBACK	n/a	n/a	n/a	n/a	n/a	n/a	n/a	n/a
259.3551	1.0167	ITI	n/a	n/a	n/a	n/a	n/a	n/a	n/a	n/a
260.3718	0.5167	FIXCROSS	n/a	n/a	n/a	n/a	n/a	n/a	n/a	n/a
260.8884	2.3	T_COLOR_NAME	4	Neutral	żółty	yellow	Neutral	Neutral	hit	n/a
263.1683	n/a	RESPONSE	n/a	n/a	n/a	n/a	n/a	n/a	n/a	yellow
263.1885	0.5167	FEEDBACK	n/a	n/a	n/a	n/a	n/a	n/a	n/a	n/a
263.7051	1.0167	ITI	n/a	n/a	n/a	n/a	n/a	n/a	n/a	n/a
264.7218	0.5167	FIXCROSS	n/a	n/a	n/a	n/a	n/a	n/a	n/a	n/a
265.2385	0.8167	T_COLOR_NAME	5	Neutral	zielony	green	Neutral	Neutral	hit	n/a
266.0316	n/a	RESPONSE	n/a	n/a	n/a	n/a	n/a	n/a	n/a	green
266.0552	0.5167	FEEDBACK	n/a	n/a	n/a	n/a	n/a	n/a	n/a	n/a
266.5718	1.0167	ITI	n/a	n/a	n/a	n/a	n/a	n/a	n/a	n/a
267.5885	0.5167	FIXCROSS	n/a	n/a	n/a	n/a	n/a	n/a	n/a	n/a
268.1052	0.7667	T_COLOR_NAME	6	Neutral	czerwony	red	Neutral	Neutral	hit	n/a
268.8469	n/a	RESPONSE	n/a	n/a	n/a	n/a	n/a	n/a	n/a	red
268.8719	0.5167	FEEDBACK	n/a	n/a	n/a	n/a	n/a	n/a	n/a	n/a
269.3886	1.0167	ITI	n/a	n/a	n/a	n/a	n/a	n/a	n/a	n/a
270.4052	0.5167	FIXCROSS	n/a	n/a	n/a	n/a	n/a	n/a	n/a	n/a
270.9219	1.1667	T_COLOR_NAME	7	Incongruent	żółty	yellow	zielony	green	hit	n/a
272.0622	n/a	RESPONSE	n/a	n/a	n/a	n/a	n/a	n/a	n/a	yellow
272.0886	0.5167	FEEDBACK	n/a	n/a	n/a	n/a	n/a	n/a	n/a	n/a
272.6053	1.0167	ITI	n/a	n/a	n/a	n/a	n/a	n/a	n/a	n/a
273.6219	0.5167	FIXCROSS	n/a	n/a	n/a	n/a	n/a	n/a	n/a	n/a
274.1386	1.1667	T_COLOR_NAME	8	Neutral	zielony	green	Neutral	Neutral	hit	n/a
275.2774	n/a	RESPONSE	n/a	n/a	n/a	n/a	n/a	n/a	n/a	green
275.3053	0.5167	FEEDBACK	n/a	n/a	n/a	n/a	n/a	n/a	n/a	n/a
275.822	1.0167	ITI	n/a	n/a	n/a	n/a	n/a	n/a	n/a	n/a
276.8386	0.5167	FIXCROSS	n/a	n/a	n/a	n/a	n/a	n/a	n/a	n/a
277.3553	1.8167	T_COLOR_NAME	9	Incongruent	zielony	green	żółty	yellow	hit	n/a
279.1485	n/a	RESPONSE	n/a	n/a	n/a	n/a	n/a	n/a	n/a	green
279.172	0.5167	FEEDBACK	n/a	n/a	n/a	n/a	n/a	n/a	n/a	n/a
279.6887	1.0167	ITI	n/a	n/a	n/a	n/a	n/a	n/a	n/a	n/a
280.7054	0.5167	FIXCROSS	n/a	n/a	n/a	n/a	n/a	n/a	n/a	n/a
281.222	1.5334	T_COLOR_NAME	10	Incongruent	niebieski	blue	czerwony	red	hit	n/a
282.7316	n/a	RESPONSE	n/a	n/a	n/a	n/a	n/a	n/a	n/a	blue
282.7554	0.5167	FEEDBACK	n/a	n/a	n/a	n/a	n/a	n/a	n/a	n/a
283.2721	1.0167	ITI	n/a	n/a	n/a	n/a	n/a	n/a	n/a	n/a
284.2887	0.5167	FIXCROSS	n/a	n/a	n/a	n/a	n/a	n/a	n/a	n/a
284.8054	0.8333	T_COLOR_NAME	11	Incongruent	czerwony	red	żółty	yellow	hit	n/a
285.6109	n/a	RESPONSE	n/a	n/a	n/a	n/a	n/a	n/a	n/a	red
285.6388	0.5167	FEEDBACK	n/a	n/a	n/a	n/a	n/a	n/a	n/a	n/a
286.1554	1.0167	ITI	n/a	n/a	n/a	n/a	n/a	n/a	n/a	n/a
287.1721	0.5167	FIXCROSS	n/a	n/a	n/a	n/a	n/a	n/a	n/a	n/a
287.6888	1.5834	T_COLOR_NAME	12	Incongruent	zielony	green	czerwony	red	hit	n/a
289.242	n/a	RESPONSE	n/a	n/a	n/a	n/a	n/a	n/a	n/a	green
289.2722	0.5167	FEEDBACK	n/a	n/a	n/a	n/a	n/a	n/a	n/a	n/a
289.7888	1.0334	ITI	n/a	n/a	n/a	n/a	n/a	n/a	n/a	n/a
295.8004	n/a	RESPONSE	n/a	n/a	n/a	n/a	n/a	n/a	n/a	n/a
295.8556	1.0167	ITI	n/a	n/a	n/a	n/a	n/a	n/a	n/a	n/a
296.8722	0.5167	FIXCROSS	n/a	n/a	n/a	n/a	n/a	n/a	n/a	n/a
297.3889	1.15	COLOR_NAME	1	Incongruent	niebieski	blue	czerwony	red	hit	n/a
298.5198	n/a	RESPONSE	n/a	n/a	n/a	n/a	n/a	n/a	n/a	blue
298.5389	1.0167	ITI	n/a	n/a	n/a	n/a	n/a	n/a	n/a	n/a
299.5556	0.5167	FIXCROSS	n/a	n/a	n/a	n/a	n/a	n/a	n/a	n/a
300.0723	1.0167	COLOR_NAME	2	Neutral	żółty	yellow	Neutral	Neutral	hit	n/a
301.0632	n/a	RESPONSE	n/a	n/a	n/a	n/a	n/a	n/a	n/a	yellow
301.089	1.0167	ITI	n/a	n/a	n/a	n/a	n/a	n/a	n/a	n/a
302.1056	0.5167	FIXCROSS	n/a	n/a	n/a	n/a	n/a	n/a	n/a	n/a
302.6223	1.7334	COLOR_NAME	3	Incongruent	czerwony	red	zielony	green	hit	n/a
304.3264	n/a	RESPONSE	n/a	n/a	n/a	n/a	n/a	n/a	n/a	red
304.3557	1.0167	ITI	n/a	n/a	n/a	n/a	n/a	n/a	n/a	n/a
305.3724	0.5167	FIXCROSS	n/a	n/a	n/a	n/a	n/a	n/a	n/a	n/a
305.889	0.9833	COLOR_NAME	4	Incongruent	czerwony	red	żółty	yellow	hit	n/a
306.8537	n/a	RESPONSE	n/a	n/a	n/a	n/a	n/a	n/a	n/a	red
306.8724	1.0167	ITI	n/a	n/a	n/a	n/a	n/a	n/a	n/a	n/a
307.8891	0.5167	FIXCROSS	n/a	n/a	n/a	n/a	n/a	n/a	n/a	n/a
308.4057	0.95	COLOR_NAME	5	Neutral	zielony	green	Neutral	Neutral	hit	n/a
309.3331	n/a	RESPONSE	n/a	n/a	n/a	n/a	n/a	n/a	n/a	green
309.3558	1.0167	ITI	n/a	n/a	n/a	n/a	n/a	n/a	n/a	n/a
310.3724	0.5167	FIXCROSS	n/a	n/a	n/a	n/a	n/a	n/a	n/a	n/a
310.8891	0.6833	COLOR_NAME	6	Neutral	czerwony	red	Neutral	Neutral	hit	n/a
311.5406	n/a	RESPONSE	n/a	n/a	n/a	n/a	n/a	n/a	n/a	red
311.5724	1.0167	ITI	n/a	n/a	n/a	n/a	n/a	n/a	n/a	n/a
312.5891	0.5167	FIXCROSS	n/a	n/a	n/a	n/a	n/a	n/a	n/a	n/a
313.1058	0.9167	COLOR_NAME	7	Neutral	zielony	green	Neutral	Neutral	hit	n/a
314.004	n/a	RESPONSE	n/a	n/a	n/a	n/a	n/a	n/a	n/a	green
314.0225	1.0167	ITI	n/a	n/a	n/a	n/a	n/a	n/a	n/a	n/a
315.0392	0.5167	FIXCROSS	n/a	n/a	n/a	n/a	n/a	n/a	n/a	n/a
315.5558	0.7667	COLOR_NAME	8	Neutral	zielony	green	Neutral	Neutral	hit	n/a
316.2914	n/a	RESPONSE	n/a	n/a	n/a	n/a	n/a	n/a	n/a	green
316.3225	1.0167	ITI	n/a	n/a	n/a	n/a	n/a	n/a	n/a	n/a
317.3392	0.5167	FIXCROSS	n/a	n/a	n/a	n/a	n/a	n/a	n/a	n/a
317.8559	0.9167	COLOR_NAME	9	Neutral	niebieski	blue	Neutral	Neutral	hit	n/a
318.7389	n/a	RESPONSE	n/a	n/a	n/a	n/a	n/a	n/a	n/a	blue
318.7725	1.0167	ITI	n/a	n/a	n/a	n/a	n/a	n/a	n/a	n/a
319.7892	0.5167	FIXCROSS	n/a	n/a	n/a	n/a	n/a	n/a	n/a	n/a
320.3059	0.9167	COLOR_NAME	10	Neutral	zielony	green	Neutral	Neutral	hit	n/a
321.2023	n/a	RESPONSE	n/a	n/a	n/a	n/a	n/a	n/a	n/a	green
321.2226	1.0167	ITI	n/a	n/a	n/a	n/a	n/a	n/a	n/a	n/a
322.2393	0.5167	FIXCROSS	n/a	n/a	n/a	n/a	n/a	n/a	n/a	n/a
322.7559	1.4834	COLOR_NAME	11	Incongruent	żółty	yellow	niebieski	blue	hit	n/a
324.2096	n/a	RESPONSE	n/a	n/a	n/a	n/a	n/a	n/a	n/a	yellow
324.2393	1.0167	ITI	n/a	n/a	n/a	n/a	n/a	n/a	n/a	n/a
325.256	0.5167	FIXCROSS	n/a	n/a	n/a	n/a	n/a	n/a	n/a	n/a
325.7726	1.3333	COLOR_NAME	12	Incongruent	niebieski	blue	zielony	green	hit	n/a
327.0729	n/a	RESPONSE	n/a	n/a	n/a	n/a	n/a	n/a	n/a	blue
327.106	1.0167	ITI	n/a	n/a	n/a	n/a	n/a	n/a	n/a	n/a
328.1227	0.5167	FIXCROSS	n/a	n/a	n/a	n/a	n/a	n/a	n/a	n/a
328.6393	1.0334	COLOR_NAME	13	Neutral	czerwony	red	Neutral	Neutral	hit	n/a
329.6482	n/a	RESPONSE	n/a	n/a	n/a	n/a	n/a	n/a	n/a	red
329.6727	1.0167	ITI	n/a	n/a	n/a	n/a	n/a	n/a	n/a	n/a
330.6894	0.5167	FIXCROSS	n/a	n/a	n/a	n/a	n/a	n/a	n/a	n/a
331.206	1.0667	COLOR_NAME	14	Incongruent	czerwony	red	zielony	green	hit	n/a
332.2396	n/a	RESPONSE	n/a	n/a	n/a	n/a	n/a	n/a	n/a	red
332.2727	1.0167	ITI	n/a	n/a	n/a	n/a	n/a	n/a	n/a	n/a
333.2894	0.5167	FIXCROSS	n/a	n/a	n/a	n/a	n/a	n/a	n/a	n/a
333.8061	0.7167	COLOR_NAME	15	Incongruent	czerwony	red	niebieski	blue	hit	n/a
334.4951	n/a	RESPONSE	n/a	n/a	n/a	n/a	n/a	n/a	n/a	red
334.5228	1.0167	ITI	n/a	n/a	n/a	n/a	n/a	n/a	n/a	n/a
335.5394	0.5167	FIXCROSS	n/a	n/a	n/a	n/a	n/a	n/a	n/a	n/a
336.0561	0.9167	COLOR_NAME	16	Incongruent	żółty	yellow	niebieski	blue	hit	n/a
336.9425	n/a	RESPONSE	n/a	n/a	n/a	n/a	n/a	n/a	n/a	yellow
336.9728	1.0167	ITI	n/a	n/a	n/a	n/a	n/a	n/a	n/a	n/a
337.9895	0.5167	FIXCROSS	n/a	n/a	n/a	n/a	n/a	n/a	n/a	n/a
338.5061	0.7833	COLOR_NAME	17	Incongruent	żółty	yellow	czerwony	red	hit	n/a
339.2619	n/a	RESPONSE	n/a	n/a	n/a	n/a	n/a	n/a	n/a	yellow
339.2895	1.0167	ITI	n/a	n/a	n/a	n/a	n/a	n/a	n/a	n/a
340.3062	0.5167	FIXCROSS	n/a	n/a	n/a	n/a	n/a	n/a	n/a	n/a
340.8228	0.8	COLOR_NAME	18	Incongruent	niebieski	blue	zielony	green	hit	n/a
341.5974	n/a	RESPONSE	n/a	n/a	n/a	n/a	n/a	n/a	n/a	blue
341.6228	1.0167	ITI	n/a	n/a	n/a	n/a	n/a	n/a	n/a	n/a
342.6395	0.5167	FIXCROSS	n/a	n/a	n/a	n/a	n/a	n/a	n/a	n/a
343.1562	0.9167	COLOR_NAME	19	Incongruent	zielony	green	czerwony	red	hit	n/a
344.0448	n/a	RESPONSE	n/a	n/a	n/a	n/a	n/a	n/a	n/a	green
344.0729	1.0167	ITI	n/a	n/a	n/a	n/a	n/a	n/a	n/a	n/a
345.0896	0.5167	FIXCROSS	n/a	n/a	n/a	n/a	n/a	n/a	n/a	n/a
345.6062	1.7334	COLOR_NAME	20	Incongruent	czerwony	red	żółty	yellow	hit	n/a
347.308	n/a	RESPONSE	n/a	n/a	n/a	n/a	n/a	n/a	n/a	red
347.3396	1.0167	ITI	n/a	n/a	n/a	n/a	n/a	n/a	n/a	n/a
348.3563	0.5167	FIXCROSS	n/a	n/a	n/a	n/a	n/a	n/a	n/a	n/a
348.8729	0.7667	COLOR_NAME	21	Neutral	zielony	green	Neutral	Neutral	hit	n/a
349.6115	n/a	RESPONSE	n/a	n/a	n/a	n/a	n/a	n/a	n/a	green
349.6396	1.0167	ITI	n/a	n/a	n/a	n/a	n/a	n/a	n/a	n/a
350.6563	0.5167	FIXCROSS	n/a	n/a	n/a	n/a	n/a	n/a	n/a	n/a
351.173	0.9	COLOR_NAME	22	Neutral	czerwony	red	Neutral	Neutral	hit	n/a
352.0428	n/a	RESPONSE	n/a	n/a	n/a	n/a	n/a	n/a	n/a	red
352.073	1.0167	ITI	n/a	n/a	n/a	n/a	n/a	n/a	n/a	n/a
353.0897	0.5167	FIXCROSS	n/a	n/a	n/a	n/a	n/a	n/a	n/a	n/a
353.6063	0.8667	COLOR_NAME	23	Neutral	zielony	green	Neutral	Neutral	hit	n/a
354.4423	n/a	RESPONSE	n/a	n/a	n/a	n/a	n/a	n/a	n/a	green
354.473	1.0167	ITI	n/a	n/a	n/a	n/a	n/a	n/a	n/a	n/a
355.4897	0.5167	FIXCROSS	n/a	n/a	n/a	n/a	n/a	n/a	n/a	n/a
356.0064	0.65	COLOR_NAME	24	Incongruent	żółty	yellow	zielony	green	hit	n/a
356.6338	n/a	RESPONSE	n/a	n/a	n/a	n/a	n/a	n/a	n/a	yellow
356.6564	1.0167	ITI	n/a	n/a	n/a	n/a	n/a	n/a	n/a	n/a
357.6731	0.5167	FIXCROSS	n/a	n/a	n/a	n/a	n/a	n/a	n/a	n/a
358.1897	0.75	COLOR_NAME	25	Incongruent	niebieski	blue	żółty	yellow	hit	n/a
358.9212	n/a	RESPONSE	n/a	n/a	n/a	n/a	n/a	n/a	n/a	blue
358.9397	1.0167	ITI	n/a	n/a	n/a	n/a	n/a	n/a	n/a	n/a
359.9564	0.5167	FIXCROSS	n/a	n/a	n/a	n/a	n/a	n/a	n/a	n/a
360.4731	0.6833	COLOR_NAME	26	Neutral	żółty	yellow	Neutral	Neutral	hit	n/a
361.1287	n/a	RESPONSE	n/a	n/a	n/a	n/a	n/a	n/a	n/a	yellow
361.1564	1.0167	ITI	n/a	n/a	n/a	n/a	n/a	n/a	n/a	n/a
362.1731	0.5167	FIXCROSS	n/a	n/a	n/a	n/a	n/a	n/a	n/a	n/a
362.6898	0.6	COLOR_NAME	27	Neutral	niebieski	blue	Neutral	Neutral	incorrect	n/a
363.2722	n/a	RESPONSE	n/a	n/a	n/a	n/a	n/a	n/a	n/a	red
363.2898	1.0167	ITI	n/a	n/a	n/a	n/a	n/a	n/a	n/a	n/a
364.3065	0.5167	FIXCROSS	n/a	n/a	n/a	n/a	n/a	n/a	n/a	n/a
364.8232	0.7833	COLOR_NAME	28	Neutral	czerwony	red	Neutral	Neutral	hit	n/a
365.5756	n/a	RESPONSE	n/a	n/a	n/a	n/a	n/a	n/a	n/a	red
365.6065	1.0167	ITI	n/a	n/a	n/a	n/a	n/a	n/a	n/a	n/a
366.6232	0.5167	FIXCROSS	n/a	n/a	n/a	n/a	n/a	n/a	n/a	n/a
367.1398	0.8667	COLOR_NAME	29	Incongruent	żółty	yellow	czerwony	red	hit	n/a
367.975	n/a	RESPONSE	n/a	n/a	n/a	n/a	n/a	n/a	n/a	yellow
368.0065	1.0167	ITI	n/a	n/a	n/a	n/a	n/a	n/a	n/a	n/a
369.0232	0.5167	FIXCROSS	n/a	n/a	n/a	n/a	n/a	n/a	n/a	n/a
369.5399	0.65	COLOR_NAME	30	Neutral	żółty	yellow	Neutral	Neutral	hit	n/a
370.1665	n/a	RESPONSE	n/a	n/a	n/a	n/a	n/a	n/a	n/a	yellow
370.1899	1.0167	ITI	n/a	n/a	n/a	n/a	n/a	n/a	n/a	n/a
371.2066	0.5167	FIXCROSS	n/a	n/a	n/a	n/a	n/a	n/a	n/a	n/a
371.7232	0.7833	COLOR_NAME	31	Incongruent	zielony	green	żółty	yellow	hit	n/a
372.4859	n/a	RESPONSE	n/a	n/a	n/a	n/a	n/a	n/a	n/a	green
372.5066	1.0167	ITI	n/a	n/a	n/a	n/a	n/a	n/a	n/a	n/a
373.5233	0.5167	FIXCROSS	n/a	n/a	n/a	n/a	n/a	n/a	n/a	n/a
374.0399	1.8	COLOR_NAME	32	Incongruent	czerwony	red	niebieski	blue	hit	n/a
375.8131	n/a	RESPONSE	n/a	n/a	n/a	n/a	n/a	n/a	n/a	red
375.84	1.0166	ITI	n/a	n/a	n/a	n/a	n/a	n/a	n/a	n/a
376.8566	0.5167	FIXCROSS	n/a	n/a	n/a	n/a	n/a	n/a	n/a	n/a
377.3733	0.7167	COLOR_NAME	33	Neutral	żółty	yellow	Neutral	Neutral	hit	n/a
378.0686	n/a	RESPONSE	n/a	n/a	n/a	n/a	n/a	n/a	n/a	yellow
378.09	1.0167	ITI	n/a	n/a	n/a	n/a	n/a	n/a	n/a	n/a
379.1067	0.5167	FIXCROSS	n/a	n/a	n/a	n/a	n/a	n/a	n/a	n/a
379.6233	0.7833	COLOR_NAME	34	Neutral	czerwony	red	Neutral	Neutral	hit	n/a
380.388	n/a	RESPONSE	n/a	n/a	n/a	n/a	n/a	n/a	n/a	red
380.4067	1.0167	ITI	n/a	n/a	n/a	n/a	n/a	n/a	n/a	n/a
381.4234	0.5167	FIXCROSS	n/a	n/a	n/a	n/a	n/a	n/a	n/a	n/a
381.94	0.75	COLOR_NAME	35	Neutral	czerwony	red	Neutral	Neutral	hit	n/a
382.6595	n/a	RESPONSE	n/a	n/a	n/a	n/a	n/a	n/a	n/a	red
382.6901	1.0167	ITI	n/a	n/a	n/a	n/a	n/a	n/a	n/a	n/a
383.7067	0.5167	FIXCROSS	n/a	n/a	n/a	n/a	n/a	n/a	n/a	n/a
384.2234	0.95	COLOR_NAME	36	Incongruent	niebieski	blue	żółty	yellow	hit	n/a
385.1549	n/a	RESPONSE	n/a	n/a	n/a	n/a	n/a	n/a	n/a	blue
385.1734	1.0167	ITI	n/a	n/a	n/a	n/a	n/a	n/a	n/a	n/a
386.1901	0.5167	FIXCROSS	n/a	n/a	n/a	n/a	n/a	n/a	n/a	n/a
386.7068	0.8834	COLOR_NAME	37	Neutral	zielony	green	Neutral	Neutral	hit	n/a
387.5703	n/a	RESPONSE	n/a	n/a	n/a	n/a	n/a	n/a	n/a	green
387.5901	1.0167	ITI	n/a	n/a	n/a	n/a	n/a	n/a	n/a	n/a
388.6068	0.5167	FIXCROSS	n/a	n/a	n/a	n/a	n/a	n/a	n/a	n/a
389.1235	1.2	COLOR_NAME	38	Incongruent	zielony	green	czerwony	red	hit	n/a
390.2897	n/a	RESPONSE	n/a	n/a	n/a	n/a	n/a	n/a	n/a	green
390.3235	1.0167	ITI	n/a	n/a	n/a	n/a	n/a	n/a	n/a	n/a
391.3402	0.5167	FIXCROSS	n/a	n/a	n/a	n/a	n/a	n/a	n/a	n/a
391.8568	0.8833	COLOR_NAME	39	Incongruent	żółty	yellow	zielony	green	hit	n/a
392.7211	n/a	RESPONSE	n/a	n/a	n/a	n/a	n/a	n/a	n/a	yellow
392.7402	1.0167	ITI	n/a	n/a	n/a	n/a	n/a	n/a	n/a	n/a
393.7569	0.5167	FIXCROSS	n/a	n/a	n/a	n/a	n/a	n/a	n/a	n/a
394.2735	0.7334	COLOR_NAME	40	Neutral	czerwony	red	Neutral	Neutral	hit	n/a
394.9765	n/a	RESPONSE	n/a	n/a	n/a	n/a	n/a	n/a	n/a	red
395.0069	1.0167	ITI	n/a	n/a	n/a	n/a	n/a	n/a	n/a	n/a
396.0236	0.5167	FIXCROSS	n/a	n/a	n/a	n/a	n/a	n/a	n/a	n/a
396.5402	0.95	COLOR_NAME	41	Incongruent	zielony	green	niebieski	blue	hit	n/a
397.4719	n/a	RESPONSE	n/a	n/a	n/a	n/a	n/a	n/a	n/a	green
397.4902	1.0167	ITI	n/a	n/a	n/a	n/a	n/a	n/a	n/a	n/a
398.5069	0.5167	FIXCROSS	n/a	n/a	n/a	n/a	n/a	n/a	n/a	n/a
399.0236	1.1	COLOR_NAME	42	Incongruent	niebieski	blue	czerwony	red	hit	n/a
400.0953	n/a	RESPONSE	n/a	n/a	n/a	n/a	n/a	n/a	n/a	blue
400.1236	1.0167	ITI	n/a	n/a	n/a	n/a	n/a	n/a	n/a	n/a
401.1403	0.5167	FIXCROSS	n/a	n/a	n/a	n/a	n/a	n/a	n/a	n/a
401.657	0.8167	COLOR_NAME	43	Incongruent	zielony	green	żółty	yellow	hit	n/a
402.4441	n/a	RESPONSE	n/a	n/a	n/a	n/a	n/a	n/a	n/a	green
402.4736	1.0167	ITI	n/a	n/a	n/a	n/a	n/a	n/a	n/a	n/a
403.4903	0.5167	FIXCROSS	n/a	n/a	n/a	n/a	n/a	n/a	n/a	n/a
404.007	0.65	COLOR_NAME	44	Neutral	żółty	yellow	Neutral	Neutral	hit	n/a
404.6382	n/a	RESPONSE	n/a	n/a	n/a	n/a	n/a	n/a	n/a	yellow
404.657	1.0167	ITI	n/a	n/a	n/a	n/a	n/a	n/a	n/a	n/a
405.6737	0.5167	FIXCROSS	n/a	n/a	n/a	n/a	n/a	n/a	n/a	n/a
406.1904	0.7833	COLOR_NAME	45	Neutral	niebieski	blue	Neutral	Neutral	hit	n/a
406.9416	n/a	RESPONSE	n/a	n/a	n/a	n/a	n/a	n/a	n/a	blue
406.9737	1.0167	ITI	n/a	n/a	n/a	n/a	n/a	n/a	n/a	n/a
407.9904	0.5167	FIXCROSS	n/a	n/a	n/a	n/a	n/a	n/a	n/a	n/a
408.5071	0.8834	COLOR_NAME	46	Incongruent	żółty	yellow	czerwony	red	hit	n/a
409.3571	n/a	RESPONSE	n/a	n/a	n/a	n/a	n/a	n/a	n/a	yellow
409.3904	1.0167	ITI	n/a	n/a	n/a	n/a	n/a	n/a	n/a	n/a
410.4071	0.5167	FIXCROSS	n/a	n/a	n/a	n/a	n/a	n/a	n/a	n/a
410.9238	0.85	COLOR_NAME	47	Neutral	niebieski	blue	Neutral	Neutral	hit	n/a
411.7405	n/a	RESPONSE	n/a	n/a	n/a	n/a	n/a	n/a	n/a	blue
411.7738	1.0167	ITI	n/a	n/a	n/a	n/a	n/a	n/a	n/a	n/a
412.7905	0.5167	FIXCROSS	n/a	n/a	n/a	n/a	n/a	n/a	n/a	n/a
413.3071	0.65	COLOR_NAME	48	Incongruent	niebieski	blue	czerwony	red	hit	n/a
413.932	n/a	RESPONSE	n/a	n/a	n/a	n/a	n/a	n/a	n/a	blue
413.9571	1.0167	ITI	n/a	n/a	n/a	n/a	n/a	n/a	n/a	n/a
414.9738	0.5167	FIXCROSS	n/a	n/a	n/a	n/a	n/a	n/a	n/a	n/a
415.4905	0.7833	COLOR_NAME	49	Neutral	żółty	yellow	Neutral	Neutral	hit	n/a
416.2514	n/a	RESPONSE	n/a	n/a	n/a	n/a	n/a	n/a	n/a	yellow
416.2738	1.0167	ITI	n/a	n/a	n/a	n/a	n/a	n/a	n/a	n/a
417.2905	0.5167	FIXCROSS	n/a	n/a	n/a	n/a	n/a	n/a	n/a	n/a
417.8072	0.6	COLOR_NAME	50	Incongruent	żółty	yellow	niebieski	blue	hit	n/a
418.3789	n/a	RESPONSE	n/a	n/a	n/a	n/a	n/a	n/a	n/a	yellow
418.4072	1.0167	ITI	n/a	n/a	n/a	n/a	n/a	n/a	n/a	n/a
419.4239	0.5167	FIXCROSS	n/a	n/a	n/a	n/a	n/a	n/a	n/a	n/a
419.9405	0.7667	COLOR_NAME	51	Incongruent	zielony	green	żółty	yellow	hit	n/a
420.6823	n/a	RESPONSE	n/a	n/a	n/a	n/a	n/a	n/a	n/a	green
420.7072	1.0167	ITI	n/a	n/a	n/a	n/a	n/a	n/a	n/a	n/a
421.7239	0.5167	FIXCROSS	n/a	n/a	n/a	n/a	n/a	n/a	n/a	n/a
422.2406	0.75	COLOR_NAME	52	Incongruent	zielony	green	niebieski	blue	hit	n/a
422.9698	n/a	RESPONSE	n/a	n/a	n/a	n/a	n/a	n/a	n/a	green
422.9906	1.0167	ITI	n/a	n/a	n/a	n/a	n/a	n/a	n/a	n/a
424.0073	0.5167	FIXCROSS	n/a	n/a	n/a	n/a	n/a	n/a	n/a	n/a
424.5239	0.8834	COLOR_NAME	53	Neutral	niebieski	blue	Neutral	Neutral	hit	n/a
425.3852	n/a	RESPONSE	n/a	n/a	n/a	n/a	n/a	n/a	n/a	blue
425.4073	1.0167	ITI	n/a	n/a	n/a	n/a	n/a	n/a	n/a	n/a
426.424	0.5167	FIXCROSS	n/a	n/a	n/a	n/a	n/a	n/a	n/a	n/a
426.9406	0.8	COLOR_NAME	54	Incongruent	zielony	green	czerwony	red	hit	n/a
427.7206	n/a	RESPONSE	n/a	n/a	n/a	n/a	n/a	n/a	n/a	green
427.7407	1.0167	ITI	n/a	n/a	n/a	n/a	n/a	n/a	n/a	n/a
428.7573	0.5167	FIXCROSS	n/a	n/a	n/a	n/a	n/a	n/a	n/a	n/a
429.274	0.8167	COLOR_NAME	55	Incongruent	czerwony	red	żółty	yellow	hit	n/a
430.0561	n/a	RESPONSE	n/a	n/a	n/a	n/a	n/a	n/a	n/a	red
430.0907	1.0167	ITI	n/a	n/a	n/a	n/a	n/a	n/a	n/a	n/a
431.1074	0.5167	FIXCROSS	n/a	n/a	n/a	n/a	n/a	n/a	n/a	n/a
431.624	0.6167	COLOR_NAME	56	Neutral	żółty	yellow	Neutral	Neutral	hit	n/a
432.2156	n/a	RESPONSE	n/a	n/a	n/a	n/a	n/a	n/a	n/a	yellow
432.2407	1.0167	ITI	n/a	n/a	n/a	n/a	n/a	n/a	n/a	n/a
433.2574	0.5167	FIXCROSS	n/a	n/a	n/a	n/a	n/a	n/a	n/a	n/a
433.7741	1.1	COLOR_NAME	57	Incongruent	zielony	green	niebieski	blue	hit	n/a
434.8549	n/a	RESPONSE	n/a	n/a	n/a	n/a	n/a	n/a	n/a	green
434.8741	1.0167	ITI	n/a	n/a	n/a	n/a	n/a	n/a	n/a	n/a
435.8908	0.5167	FIXCROSS	n/a	n/a	n/a	n/a	n/a	n/a	n/a	n/a
436.4074	0.7667	COLOR_NAME	58	Neutral	niebieski	blue	Neutral	Neutral	hit	n/a
437.1424	n/a	RESPONSE	n/a	n/a	n/a	n/a	n/a	n/a	n/a	blue
437.1741	1.0167	ITI	n/a	n/a	n/a	n/a	n/a	n/a	n/a	n/a
438.1908	0.5167	FIXCROSS	n/a	n/a	n/a	n/a	n/a	n/a	n/a	n/a
438.7075	0.75	COLOR_NAME	59	Neutral	zielony	green	Neutral	Neutral	hit	n/a
439.4298	n/a	RESPONSE	n/a	n/a	n/a	n/a	n/a	n/a	n/a	green
439.4575	1.0167	ITI	n/a	n/a	n/a	n/a	n/a	n/a	n/a	n/a
440.4742	0.5167	FIXCROSS	n/a	n/a	n/a	n/a	n/a	n/a	n/a	n/a
440.9908	0.9	COLOR_NAME	60	Neutral	czerwony	red	Neutral	Neutral	hit	n/a
441.8612	n/a	RESPONSE	n/a	n/a	n/a	n/a	n/a	n/a	n/a	red
441.8908	1.0167	ITI	n/a	n/a	n/a	n/a	n/a	n/a	n/a	n/a
442.9075	0.5167	FIXCROSS	n/a	n/a	n/a	n/a	n/a	n/a	n/a	n/a
443.4242	0.7667	COLOR_NAME	61	Neutral	niebieski	blue	Neutral	Neutral	hit	n/a
444.1647	n/a	RESPONSE	n/a	n/a	n/a	n/a	n/a	n/a	n/a	blue
444.1909	1.0167	ITI	n/a	n/a	n/a	n/a	n/a	n/a	n/a	n/a
445.2075	0.5167	FIXCROSS	n/a	n/a	n/a	n/a	n/a	n/a	n/a	n/a
445.7242	0.7	COLOR_NAME	62	Neutral	zielony	green	Neutral	Neutral	hit	n/a
446.4041	n/a	RESPONSE	n/a	n/a	n/a	n/a	n/a	n/a	n/a	green
446.4242	1.0167	ITI	n/a	n/a	n/a	n/a	n/a	n/a	n/a	n/a
447.4409	0.5167	FIXCROSS	n/a	n/a	n/a	n/a	n/a	n/a	n/a	n/a
447.9576	0.7	COLOR_NAME	63	Neutral	żółty	yellow	Neutral	Neutral	hit	n/a
448.6276	n/a	RESPONSE	n/a	n/a	n/a	n/a	n/a	n/a	n/a	yellow
448.6576	1.0167	ITI	n/a	n/a	n/a	n/a	n/a	n/a	n/a	n/a
449.6743	0.5167	FIXCROSS	n/a	n/a	n/a	n/a	n/a	n/a	n/a	n/a
450.1909	0.7334	COLOR_NAME	64	Neutral	niebieski	blue	Neutral	Neutral	hit	n/a
450.899	n/a	RESPONSE	n/a	n/a	n/a	n/a	n/a	n/a	n/a	blue
450.9243	1.0167	ITI	n/a	n/a	n/a	n/a	n/a	n/a	n/a	n/a
451.941	0.5167	FIXCROSS	n/a	n/a	n/a	n/a	n/a	n/a	n/a	n/a
452.4576	0.8167	COLOR_NAME	65	Incongruent	niebieski	blue	zielony	green	hit	n/a
453.2505	n/a	RESPONSE	n/a	n/a	n/a	n/a	n/a	n/a	n/a	blue
453.2743	1.0167	ITI	n/a	n/a	n/a	n/a	n/a	n/a	n/a	n/a
454.291	0.5167	FIXCROSS	n/a	n/a	n/a	n/a	n/a	n/a	n/a	n/a
454.8077	0.75	COLOR_NAME	66	Incongruent	niebieski	blue	żółty	yellow	hit	n/a
455.5379	n/a	RESPONSE	n/a	n/a	n/a	n/a	n/a	n/a	n/a	blue
455.5577	1.0167	ITI	n/a	n/a	n/a	n/a	n/a	n/a	n/a	n/a
456.5744	0.5167	FIXCROSS	n/a	n/a	n/a	n/a	n/a	n/a	n/a	n/a
457.091	0.5667	COLOR_NAME	67	Neutral	żółty	yellow	Neutral	Neutral	hit	n/a
457.6334	n/a	RESPONSE	n/a	n/a	n/a	n/a	n/a	n/a	n/a	yellow
457.6577	1.0167	ITI	n/a	n/a	n/a	n/a	n/a	n/a	n/a	n/a
458.6744	0.5167	FIXCROSS	n/a	n/a	n/a	n/a	n/a	n/a	n/a	n/a
459.1911	0.7667	COLOR_NAME	68	Incongruent	czerwony	red	zielony	green	hit	n/a
459.9369	n/a	RESPONSE	n/a	n/a	n/a	n/a	n/a	n/a	n/a	red
459.9577	1.0167	ITI	n/a	n/a	n/a	n/a	n/a	n/a	n/a	n/a
460.9744	0.5167	FIXCROSS	n/a	n/a	n/a	n/a	n/a	n/a	n/a	n/a
461.4911	0.6834	COLOR_NAME	69	Neutral	niebieski	blue	Neutral	Neutral	hit	n/a
462.1443	n/a	RESPONSE	n/a	n/a	n/a	n/a	n/a	n/a	n/a	blue
462.1744	1.0167	ITI	n/a	n/a	n/a	n/a	n/a	n/a	n/a	n/a
463.1911	0.5167	FIXCROSS	n/a	n/a	n/a	n/a	n/a	n/a	n/a	n/a
463.7078	0.55	COLOR_NAME	70	Neutral	czerwony	red	Neutral	Neutral	hit	n/a
464.2398	n/a	RESPONSE	n/a	n/a	n/a	n/a	n/a	n/a	n/a	red
464.2578	1.0167	ITI	n/a	n/a	n/a	n/a	n/a	n/a	n/a	n/a
465.2745	0.5167	FIXCROSS	n/a	n/a	n/a	n/a	n/a	n/a	n/a	n/a
465.7912	0.5833	COLOR_NAME	71	Incongruent	czerwony	red	niebieski	blue	hit	n/a
466.3513	n/a	RESPONSE	n/a	n/a	n/a	n/a	n/a	n/a	n/a	red
466.3745	1.0167	ITI	n/a	n/a	n/a	n/a	n/a	n/a	n/a	n/a
467.3912	0.5167	FIXCROSS	n/a	n/a	n/a	n/a	n/a	n/a	n/a	n/a
467.9079	0.6333	COLOR_NAME	72	Incongruent	żółty	yellow	zielony	green	hit	n/a
468.5108	n/a	RESPONSE	n/a	n/a	n/a	n/a	n/a	n/a	n/a	yellow
468.5412	1.0333	ITI	n/a	n/a	n/a	n/a	n/a	n/a	n/a	n/a
473.5496	n/a	RESPONSE	n/a	n/a	n/a	n/a	n/a	n/a	n/a	n/a
