onset	duration	trial_type	n_back_condition	trial_number	stimulus	response_type
0.0	n/a	RESPONSE	n/a	n/a	n/a	n/a
0.0194	1.0	ISI	n/a	n/a	n/a	n/a
1.0194	0.5	DISTRACTOR	1	1	H	Correct Rejection
1.5194	1.0	ISI	n/a	n/a	n/a	n/a
2.5194	0.5	DISTRACTOR	1	2	G	Correct Rejection
3.0194	1.0	ISI	n/a	n/a	n/a	n/a
4.0195	0.5	TARGET	1	3	G	Hit
4.5195	1.0	ISI	n/a	n/a	n/a	n/a
4.5378	n/a	RESPONSE	n/a	n/a	n/a	n/a
5.5195	0.5	TARGET	1	4	G	Hit
6.0195	1.0	ISI	n/a	n/a	n/a	n/a
6.0398	n/a	RESPONSE	n/a	n/a	n/a	n/a
7.0195	0.5	DISTRACTOR	1	5	E	Correct Rejection
7.5195	1.0	ISI	n/a	n/a	n/a	n/a
8.5195	0.5	TARGET	1	6	E	Hit
9.0195	1.0167	ISI	n/a	n/a	n/a	n/a
9.1555	n/a	RESPONSE	n/a	n/a	n/a	n/a
10.0362	0.5167	DISTRACTOR	1	7	B	Correct Rejection
10.5529	1.0167	ISI	n/a	n/a	n/a	n/a
11.5695	0.5167	DISTRACTOR	1	8	I	Correct Rejection
12.0862	1.0167	ISI	n/a	n/a	n/a	n/a
13.1029	0.5167	DISTRACTOR	1	9	H	Correct Rejection
13.6195	1.0167	ISI	n/a	n/a	n/a	n/a
14.6362	0.5167	DISTRACTOR	1	10	A	Correct Rejection
15.1529	1.0167	ISI	n/a	n/a	n/a	n/a
16.1696	0.5167	TARGET	1	11	A	Hit
16.6811	n/a	RESPONSE	n/a	n/a	n/a	n/a
16.6862	1.0167	ISI	n/a	n/a	n/a	n/a
17.7029	0.5167	DISTRACTOR	1	12	B	Correct Rejection
18.2196	1.0167	ISI	n/a	n/a	n/a	n/a
19.2363	0.5167	TARGET	1	13	B	Hit
19.685	n/a	RESPONSE	n/a	n/a	n/a	n/a
19.7529	1.0167	ISI	n/a	n/a	n/a	n/a
20.7696	0.5167	DISTRACTOR	1	14	I	Correct Rejection
21.2863	1.0167	ISI	n/a	n/a	n/a	n/a
22.3029	0.5167	DISTRACTOR	1	15	G	Correct Rejection
22.8196	1.0167	ISI	n/a	n/a	n/a	n/a
23.8363	0.5167	DISTRACTOR	1	16	E	Correct Rejection
24.353	1.0167	ISI	n/a	n/a	n/a	n/a
25.3696	0.5167	DISTRACTOR	1	17	D	Correct Rejection
25.8863	1.0167	ISI	n/a	n/a	n/a	n/a
26.903	0.5167	DISTRACTOR	1	18	F	Correct Rejection
27.4197	1.0167	ISI	n/a	n/a	n/a	n/a
28.4363	0.5167	DISTRACTOR	1	19	C	Correct Rejection
28.953	1.0167	ISI	n/a	n/a	n/a	n/a
29.9697	0.5167	DISTRACTOR	1	20	B	Correct Rejection
30.4863	1.0167	ISI	n/a	n/a	n/a	n/a
31.503	0.5167	DISTRACTOR	1	21	H	Correct Rejection
32.0197	1.0167	ISI	n/a	n/a	n/a	n/a
33.0364	0.5167	DISTRACTOR	1	22	F	Correct Rejection
33.553	1.0167	ISI	n/a	n/a	n/a	n/a
34.5697	0.5167	DISTRACTOR	1	23	E	Correct Rejection
35.0864	1.0167	ISI	n/a	n/a	n/a	n/a
36.1031	0.5167	TARGET	1	24	E	Hit
36.5419	n/a	RESPONSE	n/a	n/a	n/a	n/a
36.6197	1.0167	ISI	n/a	n/a	n/a	n/a
37.6364	0.5167	DISTRACTOR	1	25	A	Correct Rejection
38.1531	1.0167	ISI	n/a	n/a	n/a	n/a
39.1697	0.5167	DISTRACTOR	1	26	I	Correct Rejection
39.6864	1.0167	ISI	n/a	n/a	n/a	n/a
40.7031	0.5167	TARGET	1	27	I	Hit
41.2075	n/a	RESPONSE	n/a	n/a	n/a	n/a
41.2198	1.0167	ISI	n/a	n/a	n/a	n/a
42.2364	0.5167	DISTRACTOR	1	28	E	Correct Rejection
42.7531	1.0167	ISI	n/a	n/a	n/a	n/a
43.7698	0.5167	TARGET	1	29	E	Hit
44.1795	n/a	RESPONSE	n/a	n/a	n/a	n/a
44.2865	1.0167	ISI	n/a	n/a	n/a	n/a
45.3031	0.5167	DISTRACTOR	1	30	C	Correct Rejection
45.8198	1.0167	ISI	n/a	n/a	n/a	n/a
46.8365	0.5167	DISTRACTOR	1	31	E	Correct Rejection
47.3531	1.0167	ISI	n/a	n/a	n/a	n/a
48.3698	0.5167	DISTRACTOR	1	32	H	Correct Rejection
48.8865	1.0167	ISI	n/a	n/a	n/a	n/a
49.9032	0.5167	DISTRACTOR	1	33	D	Correct Rejection
50.4198	1.0167	ISI	n/a	n/a	n/a	n/a
51.4365	0.5167	DISTRACTOR	1	34	G	Correct Rejection
51.9532	1.0167	ISI	n/a	n/a	n/a	n/a
52.9699	0.5167	TARGET	1	35	G	Hit
53.4467	n/a	RESPONSE	n/a	n/a	n/a	n/a
53.4865	1.0167	ISI	n/a	n/a	n/a	n/a
54.5032	0.5167	DISTRACTOR	1	36	F	Correct Rejection
55.0199	1.0167	ISI	n/a	n/a	n/a	n/a
56.0366	0.5167	DISTRACTOR	1	37	E	Correct Rejection
56.5532	1.0167	ISI	n/a	n/a	n/a	n/a
57.5699	0.5167	DISTRACTOR	1	38	F	False Alarm
58.0866	1.0167	ISI	n/a	n/a	n/a	n/a
58.1763	n/a	RESPONSE	n/a	n/a	n/a	n/a
59.1032	0.5167	DISTRACTOR	1	39	G	Correct Rejection
59.6199	1.0167	ISI	n/a	n/a	n/a	n/a
60.6366	0.5167	DISTRACTOR	1	40	H	Correct Rejection
61.1533	1.0167	ISI	n/a	n/a	n/a	n/a
62.1699	0.5167	DISTRACTOR	1	41	F	Correct Rejection
62.6866	1.0167	ISI	n/a	n/a	n/a	n/a
63.7033	0.5167	DISTRACTOR	1	42	B	Correct Rejection
64.22	1.0167	ISI	n/a	n/a	n/a	n/a
65.2366	0.5167	DISTRACTOR	1	43	D	Correct Rejection
65.7533	1.0167	ISI	n/a	n/a	n/a	n/a
66.77	0.5167	DISTRACTOR	1	44	E	Correct Rejection
67.2867	1.0167	ISI	n/a	n/a	n/a	n/a
68.3033	0.5167	TARGET	1	45	E	Hit
68.7538	n/a	RESPONSE	n/a	n/a	n/a	n/a
68.82	1.0167	ISI	n/a	n/a	n/a	n/a
69.8367	0.5167	DISTRACTOR	1	46	I	Correct Rejection
70.3533	1.0167	ISI	n/a	n/a	n/a	n/a
71.37	0.5167	DISTRACTOR	1	47	J	Correct Rejection
71.8867	1.0167	ISI	n/a	n/a	n/a	n/a
72.9034	0.5167	DISTRACTOR	1	48	F	Correct Rejection
73.42	1.0167	ISI	n/a	n/a	n/a	n/a
74.4367	0.5167	DISTRACTOR	1	49	D	Correct Rejection
74.9534	1.0167	ISI	n/a	n/a	n/a	n/a
75.9701	0.5167	DISTRACTOR	1	50	J	Correct Rejection
76.4867	1.1167	ISI	n/a	n/a	n/a	n/a
81.0729	n/a	RESPONSE	n/a	n/a	n/a	n/a
81.1034	1.0	ISI	n/a	n/a	n/a	n/a
82.1034	0.5	DISTRACTOR	2	1	B	Correct Rejection
82.6034	1.0	ISI	n/a	n/a	n/a	n/a
83.6034	0.5167	DISTRACTOR	2	2	E	Correct Rejection
84.1201	1.0167	ISI	n/a	n/a	n/a	n/a
85.1368	0.5167	DISTRACTOR	2	3	I	Correct Rejection
85.6535	1.0167	ISI	n/a	n/a	n/a	n/a
86.6701	0.5167	DISTRACTOR	2	4	G	Correct Rejection
87.1868	1.0167	ISI	n/a	n/a	n/a	n/a
88.2035	0.5167	TARGET	2	5	I	Hit
88.7202	1.0167	ISI	n/a	n/a	n/a	n/a
88.7585	n/a	RESPONSE	n/a	n/a	n/a	n/a
89.7368	0.5167	TARGET	2	6	G	Hit
90.2535	1.0167	ISI	n/a	n/a	n/a	n/a
90.4521	n/a	RESPONSE	n/a	n/a	n/a	n/a
91.2702	0.5167	DISTRACTOR	2	7	E	Correct Rejection
91.7868	1.0167	ISI	n/a	n/a	n/a	n/a
92.8035	0.5167	DISTRACTOR	2	8	B	Correct Rejection
93.3202	1.0167	ISI	n/a	n/a	n/a	n/a
94.3369	0.5167	DISTRACTOR	2	9	D	Correct Rejection
94.8535	1.0167	ISI	n/a	n/a	n/a	n/a
95.8702	0.5167	DISTRACTOR	2	10	E	Correct Rejection
96.3869	1.0167	ISI	n/a	n/a	n/a	n/a
97.4036	0.5167	DISTRACTOR	2	11	C	Correct Rejection
97.9202	1.0167	ISI	n/a	n/a	n/a	n/a
98.9369	0.5167	DISTRACTOR	2	12	D	False Alarm
99.4536	1.0167	ISI	n/a	n/a	n/a	n/a
100.0071	n/a	RESPONSE	n/a	n/a	n/a	n/a
100.4702	0.5167	DISTRACTOR	2	13	I	Correct Rejection
100.9869	1.0167	ISI	n/a	n/a	n/a	n/a
102.0036	0.5167	DISTRACTOR	2	14	G	Correct Rejection
102.5203	1.0167	ISI	n/a	n/a	n/a	n/a
103.5369	0.5167	DISTRACTOR	2	15	J	Correct Rejection
104.0536	1.0167	ISI	n/a	n/a	n/a	n/a
105.0703	0.5167	DISTRACTOR	2	16	I	False Alarm
105.5035	n/a	RESPONSE	n/a	n/a	n/a	n/a
105.5869	1.0167	ISI	n/a	n/a	n/a	n/a
106.6036	0.5167	DISTRACTOR	2	17	G	False Alarm
107.1203	1.0167	ISI	n/a	n/a	n/a	n/a
107.1973	n/a	RESPONSE	n/a	n/a	n/a	n/a
108.137	0.5167	DISTRACTOR	2	18	B	Correct Rejection
108.6537	1.0167	ISI	n/a	n/a	n/a	n/a
109.6703	0.5167	DISTRACTOR	2	19	D	Correct Rejection
110.187	1.0167	ISI	n/a	n/a	n/a	n/a
111.2037	0.5167	DISTRACTOR	2	20	E	Correct Rejection
111.7203	1.0167	ISI	n/a	n/a	n/a	n/a
112.737	0.5167	TARGET	2	21	D	Hit
113.0293	n/a	RESPONSE	n/a	n/a	n/a	n/a
113.2537	1.0167	ISI	n/a	n/a	n/a	n/a
114.2704	0.5167	DISTRACTOR	2	22	F	Correct Rejection
114.787	1.0167	ISI	n/a	n/a	n/a	n/a
115.8037	0.5167	DISTRACTOR	2	23	F	False Alarm
116.3204	1.0167	ISI	n/a	n/a	n/a	n/a
116.3527	n/a	RESPONSE	n/a	n/a	n/a	n/a
117.3371	0.5167	DISTRACTOR	2	24	D	Correct Rejection
117.8537	1.0167	ISI	n/a	n/a	n/a	n/a
118.8704	0.5167	DISTRACTOR	2	25	B	Correct Rejection
119.3871	1.0167	ISI	n/a	n/a	n/a	n/a
120.4038	0.5167	DISTRACTOR	2	26	C	Correct Rejection
120.9204	1.0167	ISI	n/a	n/a	n/a	n/a
121.9371	0.5167	DISTRACTOR	2	27	I	Correct Rejection
122.4538	1.0167	ISI	n/a	n/a	n/a	n/a
123.4704	0.5167	DISTRACTOR	2	28	D	False Alarm
123.9871	1.0167	ISI	n/a	n/a	n/a	n/a
124.0222	n/a	RESPONSE	n/a	n/a	n/a	n/a
125.0038	0.5167	TARGET	2	29	I	Miss
125.5205	1.0167	ISI	n/a	n/a	n/a	n/a
126.5371	0.5167	DISTRACTOR	2	30	E	Correct Rejection
127.0538	1.0167	ISI	n/a	n/a	n/a	n/a
128.0705	0.5167	DISTRACTOR	2	31	G	Correct Rejection
128.5871	1.0167	ISI	n/a	n/a	n/a	n/a
129.6038	0.5167	DISTRACTOR	2	32	F	Correct Rejection
130.1205	1.0167	ISI	n/a	n/a	n/a	n/a
131.1372	0.5167	DISTRACTOR	2	33	H	Correct Rejection
131.6538	1.0167	ISI	n/a	n/a	n/a	n/a
132.6705	0.5167	DISTRACTOR	2	34	D	Correct Rejection
133.1872	1.0167	ISI	n/a	n/a	n/a	n/a
134.2039	0.5167	DISTRACTOR	2	35	F	Correct Rejection
134.7205	1.0167	ISI	n/a	n/a	n/a	n/a
135.7372	0.5167	DISTRACTOR	2	36	A	Correct Rejection
136.2539	1.0167	ISI	n/a	n/a	n/a	n/a
137.2705	0.5167	TARGET	2	37	F	Hit
137.7872	1.0167	ISI	n/a	n/a	n/a	n/a
137.9072	n/a	RESPONSE	n/a	n/a	n/a	n/a
138.8039	0.5167	DISTRACTOR	2	38	B	Correct Rejection
139.3206	1.0167	ISI	n/a	n/a	n/a	n/a
140.3372	0.5167	DISTRACTOR	2	39	E	Correct Rejection
140.8539	1.0167	ISI	n/a	n/a	n/a	n/a
141.8706	0.5167	DISTRACTOR	2	40	J	Correct Rejection
142.3873	1.0167	ISI	n/a	n/a	n/a	n/a
143.4039	0.5167	TARGET	2	41	E	Hit
143.8351	n/a	RESPONSE	n/a	n/a	n/a	n/a
143.9206	1.0167	ISI	n/a	n/a	n/a	n/a
144.9373	0.5167	DISTRACTOR	2	42	I	Correct Rejection
145.4539	1.0167	ISI	n/a	n/a	n/a	n/a
146.4706	0.5167	DISTRACTOR	2	43	B	Correct Rejection
146.9873	1.0167	ISI	n/a	n/a	n/a	n/a
148.004	0.5167	TARGET	2	44	I	Hit
148.5206	1.0167	ISI	n/a	n/a	n/a	n/a
148.7084	n/a	RESPONSE	n/a	n/a	n/a	n/a
149.5373	0.5167	DISTRACTOR	2	45	H	Correct Rejection
150.054	1.0167	ISI	n/a	n/a	n/a	n/a
151.0707	0.5167	TARGET	2	46	I	Miss
151.5873	1.0167	ISI	n/a	n/a	n/a	n/a
152.604	0.5167	TARGET	2	47	H	Hit
153.1207	1.0167	ISI	n/a	n/a	n/a	n/a
153.1344	n/a	RESPONSE	n/a	n/a	n/a	n/a
154.1373	0.5167	DISTRACTOR	2	48	G	Correct Rejection
154.654	1.0167	ISI	n/a	n/a	n/a	n/a
155.6707	0.5167	TARGET	2	49	H	Miss
156.1874	1.0167	ISI	n/a	n/a	n/a	n/a
157.204	0.5167	DISTRACTOR	2	50	J	Correct Rejection
157.7207	1.1	ISI	n/a	n/a	n/a	n/a
162.2419	n/a	RESPONSE	n/a	n/a	n/a	n/a
162.2708	1.0	ISI	n/a	n/a	n/a	n/a
163.2708	0.5	DISTRACTOR	3	1	H	Correct Rejection
163.7708	1.0	ISI	n/a	n/a	n/a	n/a
164.7708	0.5167	DISTRACTOR	3	2	E	Correct Rejection
165.2874	1.0167	ISI	n/a	n/a	n/a	n/a
166.3041	0.5167	DISTRACTOR	3	3	D	Correct Rejection
166.8208	1.0167	ISI	n/a	n/a	n/a	n/a
167.8375	0.5167	DISTRACTOR	3	4	E	Correct Rejection
168.3541	1.0167	ISI	n/a	n/a	n/a	n/a
169.3708	0.5167	TARGET	3	5	E	Miss
169.8875	1.0167	ISI	n/a	n/a	n/a	n/a
170.9042	0.5167	DISTRACTOR	3	6	G	False Alarm
171.4208	1.0167	ISI	n/a	n/a	n/a	n/a
171.5252	n/a	RESPONSE	n/a	n/a	n/a	n/a
172.4375	0.5167	TARGET	3	7	E	Miss
172.9542	1.0167	ISI	n/a	n/a	n/a	n/a
173.9708	0.5167	DISTRACTOR	3	8	I	Correct Rejection
174.4875	1.0167	ISI	n/a	n/a	n/a	n/a
175.5042	0.5167	DISTRACTOR	3	9	F	Correct Rejection
176.0209	1.0167	ISI	n/a	n/a	n/a	n/a
177.0375	0.5167	DISTRACTOR	3	10	D	Correct Rejection
177.5542	1.0167	ISI	n/a	n/a	n/a	n/a
178.5709	0.5167	DISTRACTOR	3	11	B	Correct Rejection
179.0875	1.0167	ISI	n/a	n/a	n/a	n/a
180.1042	0.5167	DISTRACTOR	3	12	A	Correct Rejection
180.6209	1.0167	ISI	n/a	n/a	n/a	n/a
181.6376	0.5167	TARGET	3	13	D	Hit
182.1542	1.0167	ISI	n/a	n/a	n/a	n/a
182.2466	n/a	RESPONSE	n/a	n/a	n/a	n/a
183.1709	0.5167	DISTRACTOR	3	14	E	Correct Rejection
183.6876	1.0167	ISI	n/a	n/a	n/a	n/a
184.7043	0.5167	DISTRACTOR	3	15	H	Correct Rejection
185.2209	1.0167	ISI	n/a	n/a	n/a	n/a
186.2376	0.5167	TARGET	3	16	D	Miss
186.7543	1.0167	ISI	n/a	n/a	n/a	n/a
187.7709	0.5167	DISTRACTOR	3	17	B	Correct Rejection
188.2876	1.0167	ISI	n/a	n/a	n/a	n/a
189.3043	0.5167	DISTRACTOR	3	18	D	False Alarm
189.821	1.0167	ISI	n/a	n/a	n/a	n/a
190.0759	n/a	RESPONSE	n/a	n/a	n/a	n/a
190.8376	0.5167	DISTRACTOR	3	19	B	Correct Rejection
191.3543	1.0167	ISI	n/a	n/a	n/a	n/a
192.371	0.5167	DISTRACTOR	3	20	D	Correct Rejection
192.8877	1.0167	ISI	n/a	n/a	n/a	n/a
193.9043	0.5167	TARGET	3	21	D	Hit
194.421	1.0167	ISI	n/a	n/a	n/a	n/a
194.8054	n/a	RESPONSE	n/a	n/a	n/a	n/a
195.4377	0.5167	TARGET	3	22	B	Miss
195.9543	1.0167	ISI	n/a	n/a	n/a	n/a
196.971	0.5167	DISTRACTOR	3	23	I	Correct Rejection
197.4877	1.0167	ISI	n/a	n/a	n/a	n/a
198.5044	0.5167	DISTRACTOR	3	24	G	Correct Rejection
199.021	1.0167	ISI	n/a	n/a	n/a	n/a
200.0377	0.5167	DISTRACTOR	3	25	D	Correct Rejection
200.5544	1.0167	ISI	n/a	n/a	n/a	n/a
201.5711	0.5167	DISTRACTOR	3	26	G	False Alarm
202.0877	1.0167	ISI	n/a	n/a	n/a	n/a
202.1873	n/a	RESPONSE	n/a	n/a	n/a	n/a
203.1044	0.5167	DISTRACTOR	3	27	H	Correct Rejection
203.6211	1.0167	ISI	n/a	n/a	n/a	n/a
204.6377	0.5167	DISTRACTOR	3	28	A	Correct Rejection
205.1544	1.0167	ISI	n/a	n/a	n/a	n/a
206.1711	0.5167	DISTRACTOR	3	29	I	Correct Rejection
206.6878	1.0167	ISI	n/a	n/a	n/a	n/a
207.7044	0.5167	DISTRACTOR	3	30	J	Correct Rejection
208.2211	1.0167	ISI	n/a	n/a	n/a	n/a
209.2378	0.5167	DISTRACTOR	3	31	F	Correct Rejection
209.7545	1.0167	ISI	n/a	n/a	n/a	n/a
210.7711	0.5167	DISTRACTOR	3	32	A	False Alarm
211.1671	n/a	RESPONSE	n/a	n/a	n/a	n/a
211.2878	1.0167	ISI	n/a	n/a	n/a	n/a
212.3045	0.5167	TARGET	3	33	J	Miss
212.8211	1.0167	ISI	n/a	n/a	n/a	n/a
213.8378	0.5167	DISTRACTOR	3	34	H	Correct Rejection
214.3545	1.0167	ISI	n/a	n/a	n/a	n/a
215.3712	0.5167	DISTRACTOR	3	35	G	Correct Rejection
215.8878	1.0167	ISI	n/a	n/a	n/a	n/a
216.9045	0.5167	DISTRACTOR	3	36	G	Correct Rejection
217.4212	1.0167	ISI	n/a	n/a	n/a	n/a
218.4379	0.5167	DISTRACTOR	3	37	E	Correct Rejection
218.9545	1.0167	ISI	n/a	n/a	n/a	n/a
219.9712	0.5167	TARGET	3	38	G	Hit
220.4663	n/a	RESPONSE	n/a	n/a	n/a	n/a
220.4879	1.0167	ISI	n/a	n/a	n/a	n/a
221.5045	0.5167	DISTRACTOR	3	39	D	Correct Rejection
222.0212	1.0167	ISI	n/a	n/a	n/a	n/a
223.0379	0.5167	DISTRACTOR	3	40	D	False Alarm
223.5546	1.0167	ISI	n/a	n/a	n/a	n/a
223.7259	n/a	RESPONSE	n/a	n/a	n/a	n/a
224.5712	0.5167	DISTRACTOR	3	41	C	Correct Rejection
225.0879	1.0167	ISI	n/a	n/a	n/a	n/a
226.1046	0.5167	DISTRACTOR	3	42	F	Correct Rejection
226.6213	1.0167	ISI	n/a	n/a	n/a	n/a
227.6379	0.5167	DISTRACTOR	3	43	H	Correct Rejection
228.1546	1.0167	ISI	n/a	n/a	n/a	n/a
229.1713	0.5167	TARGET	3	44	C	Hit
229.5419	n/a	RESPONSE	n/a	n/a	n/a	n/a
229.688	1.0167	ISI	n/a	n/a	n/a	n/a
230.7046	0.5167	DISTRACTOR	3	45	D	Correct Rejection
231.2213	1.0167	ISI	n/a	n/a	n/a	n/a
232.238	0.5167	DISTRACTOR	3	46	B	Correct Rejection
232.7546	1.0167	ISI	n/a	n/a	n/a	n/a
233.7713	0.5167	TARGET	3	47	C	Miss
234.288	1.0167	ISI	n/a	n/a	n/a	n/a
235.3047	0.5167	DISTRACTOR	3	48	C	Correct Rejection
235.8213	1.0167	ISI	n/a	n/a	n/a	n/a
236.838	0.5167	DISTRACTOR	3	49	J	Correct Rejection
237.3547	1.0167	ISI	n/a	n/a	n/a	n/a
238.3714	0.5167	DISTRACTOR	3	50	E	Correct Rejection
238.888	1.0333	ISI	n/a	n/a	n/a	n/a
242.3403	n/a	RESPONSE	n/a	n/a	n/a	n/a
