onset	duration	trial_type	trial_number	stroop_condition	stim_text(PL)	stim_text(eng)	stim_color(PL)	stim_color(eng)	response_type	response_color
0.0	n/a	RESPONSE	n/a	n/a	n/a	n/a	n/a	n/a	n/a	n/a
0.065	1.0333	ITI	n/a	n/a	n/a	n/a	n/a	n/a	n/a	n/a
1.0983	0.5167	FIXCROSS	n/a	n/a	n/a	n/a	n/a	n/a	n/a	n/a
1.615	1.3667	T_INK	1	Incongruent	niebieski	blue	żółty	yellow	hit	n/a
2.9559	n/a	RESPONSE	n/a	n/a	n/a	n/a	n/a	n/a	n/a	yellow
2.9817	0.5167	FEEDBACK	n/a	n/a	n/a	n/a	n/a	n/a	n/a	n/a
3.4983	1.0167	ITI	n/a	n/a	n/a	n/a	n/a	n/a	n/a	n/a
4.515	0.5167	FIXCROSS	n/a	n/a	n/a	n/a	n/a	n/a	n/a	n/a
5.0317	1.25	T_INK	2	Incongruent	żółty	yellow	zielony	green	hit	n/a
6.2474	n/a	RESPONSE	n/a	n/a	n/a	n/a	n/a	n/a	n/a	green
6.2817	0.5167	FEEDBACK	n/a	n/a	n/a	n/a	n/a	n/a	n/a	n/a
6.7984	1.0167	ITI	n/a	n/a	n/a	n/a	n/a	n/a	n/a	n/a
7.815	0.5167	FIXCROSS	n/a	n/a	n/a	n/a	n/a	n/a	n/a	n/a
8.3317	0.7167	T_INK	3	Incongruent	niebieski	blue	czerwony	red	hit	n/a
9.0275	n/a	RESPONSE	n/a	n/a	n/a	n/a	n/a	n/a	n/a	red
9.0484	0.5167	FEEDBACK	n/a	n/a	n/a	n/a	n/a	n/a	n/a	n/a
9.565	1.0167	ITI	n/a	n/a	n/a	n/a	n/a	n/a	n/a	n/a
10.5817	0.5167	FIXCROSS	n/a	n/a	n/a	n/a	n/a	n/a	n/a	n/a
11.0984	0.7167	T_INK	4	Neutral	xxxxxxxxx	xxxxxxxxx	czerwony	red	hit	n/a
11.7917	n/a	RESPONSE	n/a	n/a	n/a	n/a	n/a	n/a	n/a	red
11.8151	0.5167	FEEDBACK	n/a	n/a	n/a	n/a	n/a	n/a	n/a	n/a
12.3317	1.0167	ITI	n/a	n/a	n/a	n/a	n/a	n/a	n/a	n/a
13.3484	0.5167	FIXCROSS	n/a	n/a	n/a	n/a	n/a	n/a	n/a	n/a
13.8651	0.75	T_INK	5	Neutral	xxxxxxxx	xxxxxxxx	żółty	yellow	hit	n/a
14.5878	n/a	RESPONSE	n/a	n/a	n/a	n/a	n/a	n/a	n/a	yellow
14.6151	0.5167	FEEDBACK	n/a	n/a	n/a	n/a	n/a	n/a	n/a	n/a
15.1318	1.0167	ITI	n/a	n/a	n/a	n/a	n/a	n/a	n/a	n/a
16.1484	0.5167	FIXCROSS	n/a	n/a	n/a	n/a	n/a	n/a	n/a	n/a
16.6651	0.65	T_INK	6	Incongruent	czerwony	red	zielony	green	hit	n/a
17.2881	n/a	RESPONSE	n/a	n/a	n/a	n/a	n/a	n/a	n/a	green
17.3151	0.5167	FEEDBACK	n/a	n/a	n/a	n/a	n/a	n/a	n/a	n/a
17.8318	1.0167	ITI	n/a	n/a	n/a	n/a	n/a	n/a	n/a	n/a
18.8485	0.5167	FIXCROSS	n/a	n/a	n/a	n/a	n/a	n/a	n/a	n/a
19.3651	5.0167	T_INK	7	Incongruent	zielony	green	niebieski	blue	incorrect	n/a
20.2121	n/a	RESPONSE	n/a	n/a	n/a	n/a	n/a	n/a	n/a	n/a
20.7234	n/a	RESPONSE	n/a	n/a	n/a	n/a	n/a	n/a	n/a	blue
21.6501	n/a	RESPONSE	n/a	n/a	n/a	n/a	n/a	n/a	n/a	blue
22.5608	n/a	RESPONSE	n/a	n/a	n/a	n/a	n/a	n/a	n/a	blue
22.7047	n/a	RESPONSE	n/a	n/a	n/a	n/a	n/a	n/a	n/a	blue
23.6473	n/a	RESPONSE	n/a	n/a	n/a	n/a	n/a	n/a	n/a	blue
24.3344	n/a	RESPONSE	n/a	n/a	n/a	n/a	n/a	n/a	n/a	blue
24.3818	0.5167	FEEDBACK	n/a	n/a	n/a	n/a	n/a	n/a	n/a	n/a
24.8985	1.0167	ITI	n/a	n/a	n/a	n/a	n/a	n/a	n/a	n/a
25.9152	0.5167	FIXCROSS	n/a	n/a	n/a	n/a	n/a	n/a	n/a	n/a
26.4318	1.6167	T_INK	8	Neutral	xxxxxxx	xxxxxxx	żółty	yellow	hit	n/a
28.0254	n/a	RESPONSE	n/a	n/a	n/a	n/a	n/a	n/a	n/a	yellow
28.0485	0.5167	FEEDBACK	n/a	n/a	n/a	n/a	n/a	n/a	n/a	n/a
28.5652	1.0167	ITI	n/a	n/a	n/a	n/a	n/a	n/a	n/a	n/a
29.5819	0.5167	FIXCROSS	n/a	n/a	n/a	n/a	n/a	n/a	n/a	n/a
30.0985	0.9	T_INK	9	Incongruent	żółty	yellow	czerwony	red	hit	n/a
30.9652	n/a	RESPONSE	n/a	n/a	n/a	n/a	n/a	n/a	n/a	red
30.9985	0.5167	FEEDBACK	n/a	n/a	n/a	n/a	n/a	n/a	n/a	n/a
31.5152	1.0167	ITI	n/a	n/a	n/a	n/a	n/a	n/a	n/a	n/a
32.5319	0.5167	FIXCROSS	n/a	n/a	n/a	n/a	n/a	n/a	n/a	n/a
33.0486	0.7	T_INK	10	Neutral	xxxxx	xxxxx	czerwony	red	hit	n/a
33.7295	n/a	RESPONSE	n/a	n/a	n/a	n/a	n/a	n/a	n/a	red
33.7486	0.5167	FEEDBACK	n/a	n/a	n/a	n/a	n/a	n/a	n/a	n/a
34.2653	1.0167	ITI	n/a	n/a	n/a	n/a	n/a	n/a	n/a	n/a
35.2819	0.5167	FIXCROSS	n/a	n/a	n/a	n/a	n/a	n/a	n/a	n/a
35.7986	0.7167	T_INK	11	Neutral	xxxxxxx	xxxxxxx	czerwony	red	hit	n/a
36.4937	n/a	RESPONSE	n/a	n/a	n/a	n/a	n/a	n/a	n/a	red
36.5153	0.5167	FEEDBACK	n/a	n/a	n/a	n/a	n/a	n/a	n/a	n/a
37.0319	1.0167	ITI	n/a	n/a	n/a	n/a	n/a	n/a	n/a	n/a
38.0486	0.5167	FIXCROSS	n/a	n/a	n/a	n/a	n/a	n/a	n/a	n/a
38.5653	0.75	T_INK	12	Incongruent	czerwony	red	niebieski	blue	hit	n/a
39.2899	n/a	RESPONSE	n/a	n/a	n/a	n/a	n/a	n/a	n/a	blue
39.3153	0.5167	FEEDBACK	n/a	n/a	n/a	n/a	n/a	n/a	n/a	n/a
39.832	1.0334	ITI	n/a	n/a	n/a	n/a	n/a	n/a	n/a	n/a
61.0678	n/a	RESPONSE	n/a	n/a	n/a	n/a	n/a	n/a	n/a	n/a
61.1321	1.0167	ITI	n/a	n/a	n/a	n/a	n/a	n/a	n/a	n/a
62.1488	0.5167	FIXCROSS	n/a	n/a	n/a	n/a	n/a	n/a	n/a	n/a
62.6655	0.7333	INK	1	Neutral	xxxxxxxxx	xxxxxxxxx	żółty	yellow	hit	n/a
63.3686	n/a	RESPONSE	n/a	n/a	n/a	n/a	n/a	n/a	n/a	yellow
63.3988	1.0167	ITI	n/a	n/a	n/a	n/a	n/a	n/a	n/a	n/a
64.4155	0.5167	FIXCROSS	n/a	n/a	n/a	n/a	n/a	n/a	n/a	n/a
64.9322	0.7	INK	2	Neutral	xxxxxxxx	xxxxxxxx	niebieski	blue	hit	n/a
65.6056	n/a	RESPONSE	n/a	n/a	n/a	n/a	n/a	n/a	n/a	blue
65.6322	1.0167	ITI	n/a	n/a	n/a	n/a	n/a	n/a	n/a	n/a
66.6488	0.5167	FIXCROSS	n/a	n/a	n/a	n/a	n/a	n/a	n/a	n/a
67.1655	0.5667	INK	3	Incongruent	niebieski	blue	czerwony	red	hit	n/a
67.6987	n/a	RESPONSE	n/a	n/a	n/a	n/a	n/a	n/a	n/a	red
67.7322	1.0167	ITI	n/a	n/a	n/a	n/a	n/a	n/a	n/a	n/a
68.7488	0.5167	FIXCROSS	n/a	n/a	n/a	n/a	n/a	n/a	n/a	n/a
69.2655	0.65	INK	4	Incongruent	zielony	green	niebieski	blue	hit	n/a
69.8877	n/a	RESPONSE	n/a	n/a	n/a	n/a	n/a	n/a	n/a	blue
69.9155	1.0167	ITI	n/a	n/a	n/a	n/a	n/a	n/a	n/a	n/a
70.9322	0.5167	FIXCROSS	n/a	n/a	n/a	n/a	n/a	n/a	n/a	n/a
71.4489	0.6	INK	5	Neutral	xxxxx	xxxxx	zielony	green	hit	n/a
72.0288	n/a	RESPONSE	n/a	n/a	n/a	n/a	n/a	n/a	n/a	green
72.0489	1.0167	ITI	n/a	n/a	n/a	n/a	n/a	n/a	n/a	n/a
73.0656	0.5167	FIXCROSS	n/a	n/a	n/a	n/a	n/a	n/a	n/a	n/a
73.5822	0.75	INK	6	Neutral	xxxxx	xxxxx	niebieski	blue	hit	n/a
74.3136	n/a	RESPONSE	n/a	n/a	n/a	n/a	n/a	n/a	n/a	blue
74.3322	1.0167	ITI	n/a	n/a	n/a	n/a	n/a	n/a	n/a	n/a
75.3489	0.5167	FIXCROSS	n/a	n/a	n/a	n/a	n/a	n/a	n/a	n/a
75.8656	0.7167	INK	7	Neutral	xxxxx	xxxxx	niebieski	blue	hit	n/a
76.5505	n/a	RESPONSE	n/a	n/a	n/a	n/a	n/a	n/a	n/a	blue
76.5822	1.0167	ITI	n/a	n/a	n/a	n/a	n/a	n/a	n/a	n/a
77.5989	0.5167	FIXCROSS	n/a	n/a	n/a	n/a	n/a	n/a	n/a	n/a
78.1156	0.7167	INK	8	Neutral	xxxxxxx	xxxxxxx	żółty	yellow	hit	n/a
78.8035	n/a	RESPONSE	n/a	n/a	n/a	n/a	n/a	n/a	n/a	yellow
78.8323	1.0167	ITI	n/a	n/a	n/a	n/a	n/a	n/a	n/a	n/a
79.8489	0.5167	FIXCROSS	n/a	n/a	n/a	n/a	n/a	n/a	n/a	n/a
80.3656	0.8	INK	9	Incongruent	czerwony	red	żółty	yellow	hit	n/a
81.1362	n/a	RESPONSE	n/a	n/a	n/a	n/a	n/a	n/a	n/a	yellow
81.1656	1.0167	ITI	n/a	n/a	n/a	n/a	n/a	n/a	n/a	n/a
82.1823	0.5167	FIXCROSS	n/a	n/a	n/a	n/a	n/a	n/a	n/a	n/a
82.699	0.65	INK	10	Neutral	xxxxxxx	xxxxxxx	czerwony	red	hit	n/a
83.3252	n/a	RESPONSE	n/a	n/a	n/a	n/a	n/a	n/a	n/a	red
83.349	1.0167	ITI	n/a	n/a	n/a	n/a	n/a	n/a	n/a	n/a
84.3656	0.5167	FIXCROSS	n/a	n/a	n/a	n/a	n/a	n/a	n/a	n/a
84.8823	0.7	INK	11	Neutral	xxxxxxxx	xxxxxxxx	niebieski	blue	hit	n/a
85.5621	n/a	RESPONSE	n/a	n/a	n/a	n/a	n/a	n/a	n/a	blue
85.5823	1.0167	ITI	n/a	n/a	n/a	n/a	n/a	n/a	n/a	n/a
86.599	0.5167	FIXCROSS	n/a	n/a	n/a	n/a	n/a	n/a	n/a	n/a
87.1157	0.65	INK	12	Incongruent	żółty	yellow	czerwony	red	hit	n/a
87.7351	n/a	RESPONSE	n/a	n/a	n/a	n/a	n/a	n/a	n/a	red
87.7657	1.0167	ITI	n/a	n/a	n/a	n/a	n/a	n/a	n/a	n/a
88.7823	0.5167	FIXCROSS	n/a	n/a	n/a	n/a	n/a	n/a	n/a	n/a
89.299	0.5667	INK	13	Incongruent	zielony	green	czerwony	red	hit	n/a
89.8442	n/a	RESPONSE	n/a	n/a	n/a	n/a	n/a	n/a	n/a	red
89.8657	1.0167	ITI	n/a	n/a	n/a	n/a	n/a	n/a	n/a	n/a
90.8824	0.5167	FIXCROSS	n/a	n/a	n/a	n/a	n/a	n/a	n/a	n/a
91.399	0.9333	INK	14	Incongruent	czerwony	red	zielony	green	hit	n/a
92.3048	n/a	RESPONSE	n/a	n/a	n/a	n/a	n/a	n/a	n/a	green
92.3324	1.0167	ITI	n/a	n/a	n/a	n/a	n/a	n/a	n/a	n/a
93.349	0.5167	FIXCROSS	n/a	n/a	n/a	n/a	n/a	n/a	n/a	n/a
93.8657	0.8667	INK	15	Incongruent	niebieski	blue	zielony	green	hit	n/a
94.7015	n/a	RESPONSE	n/a	n/a	n/a	n/a	n/a	n/a	n/a	green
94.7324	1.0167	ITI	n/a	n/a	n/a	n/a	n/a	n/a	n/a	n/a
95.7491	0.5167	FIXCROSS	n/a	n/a	n/a	n/a	n/a	n/a	n/a	n/a
96.2657	0.55	INK	16	Neutral	xxxxxxxxx	xxxxxxxxx	czerwony	red	hit	n/a
96.7946	n/a	RESPONSE	n/a	n/a	n/a	n/a	n/a	n/a	n/a	red
96.8157	1.0167	ITI	n/a	n/a	n/a	n/a	n/a	n/a	n/a	n/a
97.8324	0.5167	FIXCROSS	n/a	n/a	n/a	n/a	n/a	n/a	n/a	n/a
98.3491	0.5667	INK	17	Neutral	xxxxxxxxx	xxxxxxxxx	czerwony	red	hit	n/a
98.8879	n/a	RESPONSE	n/a	n/a	n/a	n/a	n/a	n/a	n/a	red
98.9158	1.0167	ITI	n/a	n/a	n/a	n/a	n/a	n/a	n/a	n/a
99.9324	0.5167	FIXCROSS	n/a	n/a	n/a	n/a	n/a	n/a	n/a	n/a
100.4491	0.6833	INK	18	Neutral	xxxxxxx	xxxxxxx	niebieski	blue	hit	n/a
101.1087	n/a	RESPONSE	n/a	n/a	n/a	n/a	n/a	n/a	n/a	blue
101.1324	1.0167	ITI	n/a	n/a	n/a	n/a	n/a	n/a	n/a	n/a
102.1491	0.5167	FIXCROSS	n/a	n/a	n/a	n/a	n/a	n/a	n/a	n/a
102.6658	0.65	INK	19	Neutral	xxxxxxx	xxxxxxx	żółty	yellow	hit	n/a
103.2977	n/a	RESPONSE	n/a	n/a	n/a	n/a	n/a	n/a	n/a	yellow
103.3158	1.0167	ITI	n/a	n/a	n/a	n/a	n/a	n/a	n/a	n/a
104.3325	0.5167	FIXCROSS	n/a	n/a	n/a	n/a	n/a	n/a	n/a	n/a
104.8491	0.7333	INK	20	Neutral	xxxxxxx	xxxxxxx	niebieski	blue	hit	n/a
105.5505	n/a	RESPONSE	n/a	n/a	n/a	n/a	n/a	n/a	n/a	blue
105.5825	1.0167	ITI	n/a	n/a	n/a	n/a	n/a	n/a	n/a	n/a
106.5991	0.5167	FIXCROSS	n/a	n/a	n/a	n/a	n/a	n/a	n/a	n/a
107.1158	0.5667	INK	21	Neutral	xxxxx	xxxxx	czerwony	red	hit	n/a
107.6596	n/a	RESPONSE	n/a	n/a	n/a	n/a	n/a	n/a	n/a	red
107.6825	1.0167	ITI	n/a	n/a	n/a	n/a	n/a	n/a	n/a	n/a
108.6992	0.5167	FIXCROSS	n/a	n/a	n/a	n/a	n/a	n/a	n/a	n/a
109.2158	0.75	INK	22	Incongruent	żółty	yellow	zielony	green	hit	n/a
109.9445	n/a	RESPONSE	n/a	n/a	n/a	n/a	n/a	n/a	n/a	green
109.9658	1.0167	ITI	n/a	n/a	n/a	n/a	n/a	n/a	n/a	n/a
110.9825	0.5167	FIXCROSS	n/a	n/a	n/a	n/a	n/a	n/a	n/a	n/a
111.4992	0.55	INK	23	Neutral	xxxxxxxx	xxxxxxxx	zielony	green	hit	n/a
112.0217	n/a	RESPONSE	n/a	n/a	n/a	n/a	n/a	n/a	n/a	green
112.0492	1.0167	ITI	n/a	n/a	n/a	n/a	n/a	n/a	n/a	n/a
113.0659	0.5167	FIXCROSS	n/a	n/a	n/a	n/a	n/a	n/a	n/a	n/a
113.5825	0.5833	INK	24	Neutral	xxxxxxx	xxxxxxx	czerwony	red	hit	n/a
114.1467	n/a	RESPONSE	n/a	n/a	n/a	n/a	n/a	n/a	n/a	red
114.1659	1.0167	ITI	n/a	n/a	n/a	n/a	n/a	n/a	n/a	n/a
115.1826	0.5167	FIXCROSS	n/a	n/a	n/a	n/a	n/a	n/a	n/a	n/a
115.6992	0.9167	INK	25	Incongruent	czerwony	red	zielony	green	hit	n/a
116.5914	n/a	RESPONSE	n/a	n/a	n/a	n/a	n/a	n/a	n/a	green
116.6159	1.0167	ITI	n/a	n/a	n/a	n/a	n/a	n/a	n/a	n/a
117.6326	0.5167	FIXCROSS	n/a	n/a	n/a	n/a	n/a	n/a	n/a	n/a
118.1492	0.5833	INK	26	Neutral	xxxxxxx	xxxxxxx	niebieski	blue	hit	n/a
118.7006	n/a	RESPONSE	n/a	n/a	n/a	n/a	n/a	n/a	n/a	blue
118.7326	1.0167	ITI	n/a	n/a	n/a	n/a	n/a	n/a	n/a	n/a
119.7492	0.5167	FIXCROSS	n/a	n/a	n/a	n/a	n/a	n/a	n/a	n/a
120.2659	0.6833	INK	27	Neutral	xxxxxxxxx	xxxxxxxxx	żółty	yellow	hit	n/a
120.9215	n/a	RESPONSE	n/a	n/a	n/a	n/a	n/a	n/a	n/a	yellow
120.9493	1.0167	ITI	n/a	n/a	n/a	n/a	n/a	n/a	n/a	n/a
121.9659	0.5167	FIXCROSS	n/a	n/a	n/a	n/a	n/a	n/a	n/a	n/a
122.4826	0.55	INK	28	Incongruent	niebieski	blue	czerwony	red	hit	n/a
123.0146	n/a	RESPONSE	n/a	n/a	n/a	n/a	n/a	n/a	n/a	red
123.0326	1.0167	ITI	n/a	n/a	n/a	n/a	n/a	n/a	n/a	n/a
124.0493	0.5167	FIXCROSS	n/a	n/a	n/a	n/a	n/a	n/a	n/a	n/a
124.566	0.6667	INK	29	Incongruent	zielony	green	żółty	yellow	hit	n/a
125.2036	n/a	RESPONSE	n/a	n/a	n/a	n/a	n/a	n/a	n/a	yellow
125.2326	1.0167	ITI	n/a	n/a	n/a	n/a	n/a	n/a	n/a	n/a
126.2493	0.5167	FIXCROSS	n/a	n/a	n/a	n/a	n/a	n/a	n/a	n/a
126.766	0.7667	INK	30	Neutral	xxxxxxxx	xxxxxxxx	zielony	green	hit	n/a
127.5044	n/a	RESPONSE	n/a	n/a	n/a	n/a	n/a	n/a	n/a	green
127.5326	1.0167	ITI	n/a	n/a	n/a	n/a	n/a	n/a	n/a	n/a
128.5493	0.5167	FIXCROSS	n/a	n/a	n/a	n/a	n/a	n/a	n/a	n/a
129.066	0.7333	INK	31	Incongruent	zielony	green	żółty	yellow	hit	n/a
129.7733	n/a	RESPONSE	n/a	n/a	n/a	n/a	n/a	n/a	n/a	yellow
129.7993	1.0167	ITI	n/a	n/a	n/a	n/a	n/a	n/a	n/a	n/a
130.816	0.5167	FIXCROSS	n/a	n/a	n/a	n/a	n/a	n/a	n/a	n/a
131.3327	0.55	INK	32	Incongruent	zielony	green	czerwony	red	hit	n/a
131.8505	n/a	RESPONSE	n/a	n/a	n/a	n/a	n/a	n/a	n/a	red
131.8827	1.0167	ITI	n/a	n/a	n/a	n/a	n/a	n/a	n/a	n/a
132.8994	0.5167	FIXCROSS	n/a	n/a	n/a	n/a	n/a	n/a	n/a	n/a
133.416	0.7	INK	33	Neutral	xxxxxxx	xxxxxxx	żółty	yellow	hit	n/a
134.0874	n/a	RESPONSE	n/a	n/a	n/a	n/a	n/a	n/a	n/a	yellow
134.116	1.0167	ITI	n/a	n/a	n/a	n/a	n/a	n/a	n/a	n/a
135.1327	0.5167	FIXCROSS	n/a	n/a	n/a	n/a	n/a	n/a	n/a	n/a
135.6494	0.6333	INK	34	Neutral	xxxxxxxx	xxxxxxxx	żółty	yellow	hit	n/a
136.2604	n/a	RESPONSE	n/a	n/a	n/a	n/a	n/a	n/a	n/a	yellow
136.2827	1.0167	ITI	n/a	n/a	n/a	n/a	n/a	n/a	n/a	n/a
137.2994	0.5167	FIXCROSS	n/a	n/a	n/a	n/a	n/a	n/a	n/a	n/a
137.8161	0.6333	INK	35	Neutral	xxxxxxxx	xxxxxxxx	żółty	yellow	hit	n/a
138.4174	n/a	RESPONSE	n/a	n/a	n/a	n/a	n/a	n/a	n/a	yellow
138.4494	1.0167	ITI	n/a	n/a	n/a	n/a	n/a	n/a	n/a	n/a
139.4661	0.5167	FIXCROSS	n/a	n/a	n/a	n/a	n/a	n/a	n/a	n/a
139.9827	0.6	INK	36	Neutral	xxxxx	xxxxx	czerwony	red	hit	n/a
140.5585	n/a	RESPONSE	n/a	n/a	n/a	n/a	n/a	n/a	n/a	red
140.5827	1.0167	ITI	n/a	n/a	n/a	n/a	n/a	n/a	n/a	n/a
141.5994	0.5167	FIXCROSS	n/a	n/a	n/a	n/a	n/a	n/a	n/a	n/a
142.1161	0.6167	INK	37	Neutral	xxxxx	xxxxx	niebieski	blue	hit	n/a
142.7155	n/a	RESPONSE	n/a	n/a	n/a	n/a	n/a	n/a	n/a	blue
142.7328	1.0167	ITI	n/a	n/a	n/a	n/a	n/a	n/a	n/a	n/a
143.7494	0.5167	FIXCROSS	n/a	n/a	n/a	n/a	n/a	n/a	n/a	n/a
144.2661	0.6833	INK	38	Incongruent	zielony	green	żółty	yellow	hit	n/a
144.9205	n/a	RESPONSE	n/a	n/a	n/a	n/a	n/a	n/a	n/a	yellow
144.9494	1.0167	ITI	n/a	n/a	n/a	n/a	n/a	n/a	n/a	n/a
145.9661	0.5167	FIXCROSS	n/a	n/a	n/a	n/a	n/a	n/a	n/a	n/a
146.4828	0.6833	INK	39	Incongruent	czerwony	red	zielony	green	hit	n/a
147.1414	n/a	RESPONSE	n/a	n/a	n/a	n/a	n/a	n/a	n/a	green
147.1661	1.0167	ITI	n/a	n/a	n/a	n/a	n/a	n/a	n/a	n/a
148.1828	0.5167	FIXCROSS	n/a	n/a	n/a	n/a	n/a	n/a	n/a	n/a
148.6995	0.65	INK	40	Incongruent	niebieski	blue	żółty	yellow	hit	n/a
149.3304	n/a	RESPONSE	n/a	n/a	n/a	n/a	n/a	n/a	n/a	yellow
149.3495	1.0167	ITI	n/a	n/a	n/a	n/a	n/a	n/a	n/a	n/a
150.3662	0.5167	FIXCROSS	n/a	n/a	n/a	n/a	n/a	n/a	n/a	n/a
150.8828	0.6167	INK	41	Incongruent	czerwony	red	żółty	yellow	hit	n/a
151.4715	n/a	RESPONSE	n/a	n/a	n/a	n/a	n/a	n/a	n/a	yellow
151.4995	1.0167	ITI	n/a	n/a	n/a	n/a	n/a	n/a	n/a	n/a
152.5162	0.5167	FIXCROSS	n/a	n/a	n/a	n/a	n/a	n/a	n/a	n/a
153.0328	0.5667	INK	42	Incongruent	niebieski	blue	żółty	yellow	hit	n/a
153.5806	n/a	RESPONSE	n/a	n/a	n/a	n/a	n/a	n/a	n/a	yellow
153.5995	1.0167	ITI	n/a	n/a	n/a	n/a	n/a	n/a	n/a	n/a
154.6162	0.5167	FIXCROSS	n/a	n/a	n/a	n/a	n/a	n/a	n/a	n/a
155.1329	0.6833	INK	43	Incongruent	żółty	yellow	niebieski	blue	hit	n/a
155.7856	n/a	RESPONSE	n/a	n/a	n/a	n/a	n/a	n/a	n/a	blue
155.8162	1.0167	ITI	n/a	n/a	n/a	n/a	n/a	n/a	n/a	n/a
156.8329	0.5167	FIXCROSS	n/a	n/a	n/a	n/a	n/a	n/a	n/a	n/a
157.3496	0.6333	INK	44	Incongruent	zielony	green	niebieski	blue	hit	n/a
157.9586	n/a	RESPONSE	n/a	n/a	n/a	n/a	n/a	n/a	n/a	blue
157.9829	1.0167	ITI	n/a	n/a	n/a	n/a	n/a	n/a	n/a	n/a
158.9996	0.5167	FIXCROSS	n/a	n/a	n/a	n/a	n/a	n/a	n/a	n/a
159.5162	0.7	INK	45	Incongruent	czerwony	red	żółty	yellow	hit	n/a
160.1956	n/a	RESPONSE	n/a	n/a	n/a	n/a	n/a	n/a	n/a	yellow
160.2162	1.0167	ITI	n/a	n/a	n/a	n/a	n/a	n/a	n/a	n/a
161.2329	0.5167	FIXCROSS	n/a	n/a	n/a	n/a	n/a	n/a	n/a	n/a
161.7496	0.6833	INK	46	Incongruent	czerwony	red	niebieski	blue	hit	n/a
162.4005	n/a	RESPONSE	n/a	n/a	n/a	n/a	n/a	n/a	n/a	blue
162.4329	1.0167	ITI	n/a	n/a	n/a	n/a	n/a	n/a	n/a	n/a
163.4496	0.5167	FIXCROSS	n/a	n/a	n/a	n/a	n/a	n/a	n/a	n/a
163.9663	0.7167	INK	47	Neutral	xxxxxxxxx	xxxxxxxxx	żółty	yellow	hit	n/a
164.6534	n/a	RESPONSE	n/a	n/a	n/a	n/a	n/a	n/a	n/a	yellow
164.6829	1.0167	ITI	n/a	n/a	n/a	n/a	n/a	n/a	n/a	n/a
165.6996	0.5167	FIXCROSS	n/a	n/a	n/a	n/a	n/a	n/a	n/a	n/a
166.2163	0.6833	INK	48	Neutral	xxxxxxxxx	xxxxxxxxx	zielony	green	hit	n/a
166.8743	n/a	RESPONSE	n/a	n/a	n/a	n/a	n/a	n/a	n/a	green
166.8996	1.0167	ITI	n/a	n/a	n/a	n/a	n/a	n/a	n/a	n/a
167.9163	0.5167	FIXCROSS	n/a	n/a	n/a	n/a	n/a	n/a	n/a	n/a
168.433	0.5667	INK	49	Neutral	xxxxx	xxxxx	czerwony	red	hit	n/a
168.9674	n/a	RESPONSE	n/a	n/a	n/a	n/a	n/a	n/a	n/a	red
168.9996	1.0167	ITI	n/a	n/a	n/a	n/a	n/a	n/a	n/a	n/a
170.0163	0.5167	FIXCROSS	n/a	n/a	n/a	n/a	n/a	n/a	n/a	n/a
170.533	0.7833	INK	50	Incongruent	czerwony	red	niebieski	blue	hit	n/a
171.2843	n/a	RESPONSE	n/a	n/a	n/a	n/a	n/a	n/a	n/a	blue
171.3163	1.0167	ITI	n/a	n/a	n/a	n/a	n/a	n/a	n/a	n/a
172.333	0.5167	FIXCROSS	n/a	n/a	n/a	n/a	n/a	n/a	n/a	n/a
172.8497	0.8667	INK	51	Neutral	xxxxxxxxx	xxxxxxxxx	zielony	green	hit	n/a
173.681	n/a	RESPONSE	n/a	n/a	n/a	n/a	n/a	n/a	n/a	green
173.7163	1.0167	ITI	n/a	n/a	n/a	n/a	n/a	n/a	n/a	n/a
174.733	0.5167	FIXCROSS	n/a	n/a	n/a	n/a	n/a	n/a	n/a	n/a
175.2497	0.6	INK	52	Neutral	xxxxxxxxx	xxxxxxxxx	zielony	green	hit	n/a
175.8221	n/a	RESPONSE	n/a	n/a	n/a	n/a	n/a	n/a	n/a	green
175.8497	1.0167	ITI	n/a	n/a	n/a	n/a	n/a	n/a	n/a	n/a
176.8664	0.5167	FIXCROSS	n/a	n/a	n/a	n/a	n/a	n/a	n/a	n/a
177.383	0.5667	INK	53	Incongruent	niebieski	blue	czerwony	red	hit	n/a
177.9312	n/a	RESPONSE	n/a	n/a	n/a	n/a	n/a	n/a	n/a	red
177.9497	1.0167	ITI	n/a	n/a	n/a	n/a	n/a	n/a	n/a	n/a
178.9664	0.5167	FIXCROSS	n/a	n/a	n/a	n/a	n/a	n/a	n/a	n/a
179.4831	0.8667	INK	54	Neutral	xxxxx	xxxxx	zielony	green	hit	n/a
180.328	n/a	RESPONSE	n/a	n/a	n/a	n/a	n/a	n/a	n/a	green
180.3497	1.0166	ITI	n/a	n/a	n/a	n/a	n/a	n/a	n/a	n/a
181.3664	0.5167	FIXCROSS	n/a	n/a	n/a	n/a	n/a	n/a	n/a	n/a
181.8831	0.6333	INK	55	Neutral	xxxxx	xxxxx	zielony	green	hit	n/a
182.4849	n/a	RESPONSE	n/a	n/a	n/a	n/a	n/a	n/a	n/a	green
182.5164	1.0167	ITI	n/a	n/a	n/a	n/a	n/a	n/a	n/a	n/a
183.5331	0.5167	FIXCROSS	n/a	n/a	n/a	n/a	n/a	n/a	n/a	n/a
184.0498	0.85	INK	56	Neutral	xxxxxxxx	xxxxxxxx	niebieski	blue	hit	n/a
184.8817	n/a	RESPONSE	n/a	n/a	n/a	n/a	n/a	n/a	n/a	blue
184.8998	1.0167	ITI	n/a	n/a	n/a	n/a	n/a	n/a	n/a	n/a
185.9164	0.5167	FIXCROSS	n/a	n/a	n/a	n/a	n/a	n/a	n/a	n/a
186.4331	0.65	INK	57	Incongruent	czerwony	red	niebieski	blue	hit	n/a
187.0546	n/a	RESPONSE	n/a	n/a	n/a	n/a	n/a	n/a	n/a	blue
187.0831	1.0167	ITI	n/a	n/a	n/a	n/a	n/a	n/a	n/a	n/a
188.0998	0.5167	FIXCROSS	n/a	n/a	n/a	n/a	n/a	n/a	n/a	n/a
188.6164	0.7	INK	58	Incongruent	niebieski	blue	zielony	green	hit	n/a
189.2916	n/a	RESPONSE	n/a	n/a	n/a	n/a	n/a	n/a	n/a	green
189.3165	1.0167	ITI	n/a	n/a	n/a	n/a	n/a	n/a	n/a	n/a
190.3331	0.5167	FIXCROSS	n/a	n/a	n/a	n/a	n/a	n/a	n/a	n/a
190.8498	0.6333	INK	59	Incongruent	niebieski	blue	zielony	green	hit	n/a
191.4493	n/a	RESPONSE	n/a	n/a	n/a	n/a	n/a	n/a	n/a	green
191.4831	1.0167	ITI	n/a	n/a	n/a	n/a	n/a	n/a	n/a	n/a
192.4998	0.5167	FIXCROSS	n/a	n/a	n/a	n/a	n/a	n/a	n/a	n/a
193.0165	0.7	INK	60	Incongruent	niebieski	blue	żółty	yellow	hit	n/a
193.6855	n/a	RESPONSE	n/a	n/a	n/a	n/a	n/a	n/a	n/a	yellow
193.7165	1.0167	ITI	n/a	n/a	n/a	n/a	n/a	n/a	n/a	n/a
194.7332	0.5167	FIXCROSS	n/a	n/a	n/a	n/a	n/a	n/a	n/a	n/a
195.2498	0.7167	INK	61	Incongruent	żółty	yellow	zielony	green	hit	n/a
195.9384	n/a	RESPONSE	n/a	n/a	n/a	n/a	n/a	n/a	n/a	green
195.9665	1.0167	ITI	n/a	n/a	n/a	n/a	n/a	n/a	n/a	n/a
196.9832	0.5167	FIXCROSS	n/a	n/a	n/a	n/a	n/a	n/a	n/a	n/a
197.4999	0.5667	INK	62	Incongruent	zielony	green	czerwony	red	hit	n/a
198.0475	n/a	RESPONSE	n/a	n/a	n/a	n/a	n/a	n/a	n/a	red
198.0665	1.0167	ITI	n/a	n/a	n/a	n/a	n/a	n/a	n/a	n/a
199.0832	0.5167	FIXCROSS	n/a	n/a	n/a	n/a	n/a	n/a	n/a	n/a
199.5999	0.6167	INK	63	Incongruent	żółty	yellow	niebieski	blue	hit	n/a
200.1886	n/a	RESPONSE	n/a	n/a	n/a	n/a	n/a	n/a	n/a	blue
200.2165	1.0167	ITI	n/a	n/a	n/a	n/a	n/a	n/a	n/a	n/a
201.2332	0.5167	FIXCROSS	n/a	n/a	n/a	n/a	n/a	n/a	n/a	n/a
201.7499	0.7167	INK	64	Neutral	xxxxxxxx	xxxxxxxx	żółty	yellow	hit	n/a
202.4415	n/a	RESPONSE	n/a	n/a	n/a	n/a	n/a	n/a	n/a	yellow
202.4666	1.0167	ITI	n/a	n/a	n/a	n/a	n/a	n/a	n/a	n/a
203.4832	0.5167	FIXCROSS	n/a	n/a	n/a	n/a	n/a	n/a	n/a	n/a
203.9999	0.5833	INK	65	Incongruent	żółty	yellow	czerwony	red	hit	n/a
204.5507	n/a	RESPONSE	n/a	n/a	n/a	n/a	n/a	n/a	n/a	red
204.5832	1.0167	ITI	n/a	n/a	n/a	n/a	n/a	n/a	n/a	n/a
205.5999	0.5167	FIXCROSS	n/a	n/a	n/a	n/a	n/a	n/a	n/a	n/a
206.1166	0.5167	INK	66	Incongruent	żółty	yellow	czerwony	red	hit	n/a
206.6118	n/a	RESPONSE	n/a	n/a	n/a	n/a	n/a	n/a	n/a	red
206.6333	1.0167	ITI	n/a	n/a	n/a	n/a	n/a	n/a	n/a	n/a
207.6499	0.5167	FIXCROSS	n/a	n/a	n/a	n/a	n/a	n/a	n/a	n/a
208.1666	0.6167	INK	67	Incongruent	zielony	green	niebieski	blue	hit	n/a
208.7529	n/a	RESPONSE	n/a	n/a	n/a	n/a	n/a	n/a	n/a	blue
208.7833	1.0167	ITI	n/a	n/a	n/a	n/a	n/a	n/a	n/a	n/a
209.7999	0.5167	FIXCROSS	n/a	n/a	n/a	n/a	n/a	n/a	n/a	n/a
210.3166	0.55	INK	68	Neutral	xxxxxxxx	xxxxxxxx	zielony	green	hit	n/a
210.846	n/a	RESPONSE	n/a	n/a	n/a	n/a	n/a	n/a	n/a	green
210.8666	1.0167	ITI	n/a	n/a	n/a	n/a	n/a	n/a	n/a	n/a
211.8833	0.5167	FIXCROSS	n/a	n/a	n/a	n/a	n/a	n/a	n/a	n/a
212.4	0.65	INK	69	Incongruent	żółty	yellow	niebieski	blue	hit	n/a
213.0189	n/a	RESPONSE	n/a	n/a	n/a	n/a	n/a	n/a	n/a	blue
213.05	1.0167	ITI	n/a	n/a	n/a	n/a	n/a	n/a	n/a	n/a
214.0666	0.5167	FIXCROSS	n/a	n/a	n/a	n/a	n/a	n/a	n/a	n/a
214.5833	0.6667	INK	70	Incongruent	żółty	yellow	zielony	green	hit	n/a
215.2239	n/a	RESPONSE	n/a	n/a	n/a	n/a	n/a	n/a	n/a	green
215.25	1.0167	ITI	n/a	n/a	n/a	n/a	n/a	n/a	n/a	n/a
216.2667	0.5167	FIXCROSS	n/a	n/a	n/a	n/a	n/a	n/a	n/a	n/a
216.7833	0.5	INK	71	Neutral	xxxxxxx	xxxxxxx	czerwony	red	hit	n/a
217.2532	n/a	RESPONSE	n/a	n/a	n/a	n/a	n/a	n/a	n/a	red
217.2833	1.0167	ITI	n/a	n/a	n/a	n/a	n/a	n/a	n/a	n/a
218.3	0.5167	FIXCROSS	n/a	n/a	n/a	n/a	n/a	n/a	n/a	n/a
218.8167	0.5833	INK	72	Neutral	xxxxxxxxx	xxxxxxxxx	czerwony	red	hit	n/a
219.3783	n/a	RESPONSE	n/a	n/a	n/a	n/a	n/a	n/a	n/a	red
219.4	1.0834	ITI	n/a	n/a	n/a	n/a	n/a	n/a	n/a	n/a
230.547	n/a	RESPONSE	n/a	n/a	n/a	n/a	n/a	n/a	n/a	n/a
230.6001	1.0167	ITI	n/a	n/a	n/a	n/a	n/a	n/a	n/a	n/a
231.6168	0.5167	FIXCROSS	n/a	n/a	n/a	n/a	n/a	n/a	n/a	n/a
232.1335	0.9	T_COLOR_NAME	1	Neutral	niebieski	blue	Neutral	Neutral	hit	n/a
233.0076	n/a	RESPONSE	n/a	n/a	n/a	n/a	n/a	n/a	n/a	blue
233.0335	0.5167	FEEDBACK	n/a	n/a	n/a	n/a	n/a	n/a	n/a	n/a
233.5501	1.0167	ITI	n/a	n/a	n/a	n/a	n/a	n/a	n/a	n/a
234.5668	0.5167	FIXCROSS	n/a	n/a	n/a	n/a	n/a	n/a	n/a	n/a
235.0835	0.85	T_COLOR_NAME	2	Neutral	zielony	green	Neutral	Neutral	hit	n/a
235.8996	n/a	RESPONSE	n/a	n/a	n/a	n/a	n/a	n/a	n/a	green
235.9335	0.5167	FEEDBACK	n/a	n/a	n/a	n/a	n/a	n/a	n/a	n/a
236.4501	1.0167	ITI	n/a	n/a	n/a	n/a	n/a	n/a	n/a	n/a
237.4668	0.5167	FIXCROSS	n/a	n/a	n/a	n/a	n/a	n/a	n/a	n/a
237.9835	0.6167	T_COLOR_NAME	3	Neutral	czerwony	red	Neutral	Neutral	hit	n/a
238.5679	n/a	RESPONSE	n/a	n/a	n/a	n/a	n/a	n/a	n/a	red
238.6002	0.5167	FEEDBACK	n/a	n/a	n/a	n/a	n/a	n/a	n/a	n/a
239.1168	1.0167	ITI	n/a	n/a	n/a	n/a	n/a	n/a	n/a	n/a
240.1335	0.5167	FIXCROSS	n/a	n/a	n/a	n/a	n/a	n/a	n/a	n/a
240.6502	1.0667	T_COLOR_NAME	4	Incongruent	zielony	green	niebieski	blue	incorrect	n/a
241.6836	n/a	RESPONSE	n/a	n/a	n/a	n/a	n/a	n/a	n/a	blue
241.7169	0.5167	FEEDBACK	n/a	n/a	n/a	n/a	n/a	n/a	n/a	n/a
242.2335	1.0167	ITI	n/a	n/a	n/a	n/a	n/a	n/a	n/a	n/a
243.2502	0.5167	FIXCROSS	n/a	n/a	n/a	n/a	n/a	n/a	n/a	n/a
243.7669	1.1833	T_COLOR_NAME	5	Incongruent	żółty	yellow	zielony	green	hit	n/a
244.9272	n/a	RESPONSE	n/a	n/a	n/a	n/a	n/a	n/a	n/a	yellow
244.9502	0.5167	FEEDBACK	n/a	n/a	n/a	n/a	n/a	n/a	n/a	n/a
245.4669	1.0167	ITI	n/a	n/a	n/a	n/a	n/a	n/a	n/a	n/a
246.4836	0.5167	FIXCROSS	n/a	n/a	n/a	n/a	n/a	n/a	n/a	n/a
247.0002	1.1334	T_COLOR_NAME	6	Incongruent	niebieski	blue	czerwony	red	hit	n/a
248.1068	n/a	RESPONSE	n/a	n/a	n/a	n/a	n/a	n/a	n/a	blue
248.1336	0.5167	FEEDBACK	n/a	n/a	n/a	n/a	n/a	n/a	n/a	n/a
248.6502	1.0167	ITI	n/a	n/a	n/a	n/a	n/a	n/a	n/a	n/a
249.6669	0.5167	FIXCROSS	n/a	n/a	n/a	n/a	n/a	n/a	n/a	n/a
250.1836	0.8333	T_COLOR_NAME	7	Neutral	zielony	green	Neutral	Neutral	hit	n/a
250.9829	n/a	RESPONSE	n/a	n/a	n/a	n/a	n/a	n/a	n/a	green
251.0169	0.5167	FEEDBACK	n/a	n/a	n/a	n/a	n/a	n/a	n/a	n/a
251.5336	1.0167	ITI	n/a	n/a	n/a	n/a	n/a	n/a	n/a	n/a
252.5503	0.5167	FIXCROSS	n/a	n/a	n/a	n/a	n/a	n/a	n/a	n/a
253.0669	1.1333	T_COLOR_NAME	8	Incongruent	czerwony	red	zielony	green	hit	n/a
254.1785	n/a	RESPONSE	n/a	n/a	n/a	n/a	n/a	n/a	n/a	red
254.2003	0.5167	FEEDBACK	n/a	n/a	n/a	n/a	n/a	n/a	n/a	n/a
254.717	1.0167	ITI	n/a	n/a	n/a	n/a	n/a	n/a	n/a	n/a
255.7336	0.5167	FIXCROSS	n/a	n/a	n/a	n/a	n/a	n/a	n/a	n/a
256.2503	1.2	T_COLOR_NAME	9	Incongruent	niebieski	blue	żółty	yellow	hit	n/a
257.4221	n/a	RESPONSE	n/a	n/a	n/a	n/a	n/a	n/a	n/a	blue
257.4503	0.5167	FEEDBACK	n/a	n/a	n/a	n/a	n/a	n/a	n/a	n/a
257.967	1.0167	ITI	n/a	n/a	n/a	n/a	n/a	n/a	n/a	n/a
258.9837	0.5167	FIXCROSS	n/a	n/a	n/a	n/a	n/a	n/a	n/a	n/a
259.5003	0.7667	T_COLOR_NAME	10	Incongruent	żółty	yellow	czerwony	red	incorrect	n/a
260.2343	n/a	RESPONSE	n/a	n/a	n/a	n/a	n/a	n/a	n/a	red
260.267	0.5167	FEEDBACK	n/a	n/a	n/a	n/a	n/a	n/a	n/a	n/a
260.7837	1.0167	ITI	n/a	n/a	n/a	n/a	n/a	n/a	n/a	n/a
261.8003	0.5167	FIXCROSS	n/a	n/a	n/a	n/a	n/a	n/a	n/a	n/a
262.317	1.1667	T_COLOR_NAME	11	Incongruent	czerwony	red	niebieski	blue	hit	n/a
263.4459	n/a	RESPONSE	n/a	n/a	n/a	n/a	n/a	n/a	n/a	red
263.4837	0.5167	FEEDBACK	n/a	n/a	n/a	n/a	n/a	n/a	n/a	n/a
264.0004	1.0167	ITI	n/a	n/a	n/a	n/a	n/a	n/a	n/a	n/a
265.017	0.5167	FIXCROSS	n/a	n/a	n/a	n/a	n/a	n/a	n/a	n/a
265.5337	1.1333	T_COLOR_NAME	12	Neutral	żółty	yellow	Neutral	Neutral	hit	n/a
266.6415	n/a	RESPONSE	n/a	n/a	n/a	n/a	n/a	n/a	n/a	yellow
266.6671	0.5167	FEEDBACK	n/a	n/a	n/a	n/a	n/a	n/a	n/a	n/a
267.1837	1.0333	ITI	n/a	n/a	n/a	n/a	n/a	n/a	n/a	n/a
270.9876	n/a	RESPONSE	n/a	n/a	n/a	n/a	n/a	n/a	n/a	n/a
271.0504	1.0167	ITI	n/a	n/a	n/a	n/a	n/a	n/a	n/a	n/a
272.0671	0.5167	FIXCROSS	n/a	n/a	n/a	n/a	n/a	n/a	n/a	n/a
272.5838	1.0667	COLOR_NAME	1	Incongruent	zielony	green	czerwony	red	hit	n/a
273.6239	n/a	RESPONSE	n/a	n/a	n/a	n/a	n/a	n/a	n/a	green
273.6504	1.0167	ITI	n/a	n/a	n/a	n/a	n/a	n/a	n/a	n/a
274.6671	0.5167	FIXCROSS	n/a	n/a	n/a	n/a	n/a	n/a	n/a	n/a
275.1838	0.9167	COLOR_NAME	2	Incongruent	czerwony	red	niebieski	blue	hit	n/a
276.0686	n/a	RESPONSE	n/a	n/a	n/a	n/a	n/a	n/a	n/a	red
276.1005	1.0167	ITI	n/a	n/a	n/a	n/a	n/a	n/a	n/a	n/a
277.1171	0.5167	FIXCROSS	n/a	n/a	n/a	n/a	n/a	n/a	n/a	n/a
277.6338	1.0	COLOR_NAME	3	Incongruent	zielony	green	czerwony	red	hit	n/a
278.6091	n/a	RESPONSE	n/a	n/a	n/a	n/a	n/a	n/a	n/a	green
278.6338	1.0167	ITI	n/a	n/a	n/a	n/a	n/a	n/a	n/a	n/a
279.6505	0.5167	FIXCROSS	n/a	n/a	n/a	n/a	n/a	n/a	n/a	n/a
280.1672	0.6833	COLOR_NAME	4	Neutral	niebieski	blue	Neutral	Neutral	hit	n/a
280.8301	n/a	RESPONSE	n/a	n/a	n/a	n/a	n/a	n/a	n/a	blue
280.8505	1.0167	ITI	n/a	n/a	n/a	n/a	n/a	n/a	n/a	n/a
281.8672	0.5167	FIXCROSS	n/a	n/a	n/a	n/a	n/a	n/a	n/a	n/a
282.3838	0.85	COLOR_NAME	5	Incongruent	niebieski	blue	zielony	green	hit	n/a
283.2109	n/a	RESPONSE	n/a	n/a	n/a	n/a	n/a	n/a	n/a	blue
283.2338	1.0167	ITI	n/a	n/a	n/a	n/a	n/a	n/a	n/a	n/a
284.2505	0.5167	FIXCROSS	n/a	n/a	n/a	n/a	n/a	n/a	n/a	n/a
284.7672	0.8167	COLOR_NAME	6	Incongruent	żółty	yellow	niebieski	blue	hit	n/a
285.5596	n/a	RESPONSE	n/a	n/a	n/a	n/a	n/a	n/a	n/a	yellow
285.5839	1.0167	ITI	n/a	n/a	n/a	n/a	n/a	n/a	n/a	n/a
286.6005	0.5167	FIXCROSS	n/a	n/a	n/a	n/a	n/a	n/a	n/a	n/a
287.1172	0.75	COLOR_NAME	7	Neutral	zielony	green	Neutral	Neutral	hit	n/a
287.8445	n/a	RESPONSE	n/a	n/a	n/a	n/a	n/a	n/a	n/a	green
287.8672	1.0167	ITI	n/a	n/a	n/a	n/a	n/a	n/a	n/a	n/a
288.8839	0.5167	FIXCROSS	n/a	n/a	n/a	n/a	n/a	n/a	n/a	n/a
289.4006	0.7667	COLOR_NAME	8	Neutral	czerwony	red	Neutral	Neutral	hit	n/a
290.1453	n/a	RESPONSE	n/a	n/a	n/a	n/a	n/a	n/a	n/a	red
290.1672	1.0167	ITI	n/a	n/a	n/a	n/a	n/a	n/a	n/a	n/a
291.1839	0.5167	FIXCROSS	n/a	n/a	n/a	n/a	n/a	n/a	n/a	n/a
291.7006	0.65	COLOR_NAME	9	Neutral	czerwony	red	Neutral	Neutral	hit	n/a
292.3183	n/a	RESPONSE	n/a	n/a	n/a	n/a	n/a	n/a	n/a	red
292.3506	1.0167	ITI	n/a	n/a	n/a	n/a	n/a	n/a	n/a	n/a
293.3673	0.5167	FIXCROSS	n/a	n/a	n/a	n/a	n/a	n/a	n/a	n/a
293.8839	0.8333	COLOR_NAME	10	Incongruent	żółty	yellow	zielony	green	hit	n/a
294.6991	n/a	RESPONSE	n/a	n/a	n/a	n/a	n/a	n/a	n/a	yellow
294.7173	1.0167	ITI	n/a	n/a	n/a	n/a	n/a	n/a	n/a	n/a
295.7339	0.5167	FIXCROSS	n/a	n/a	n/a	n/a	n/a	n/a	n/a	n/a
296.2506	0.8167	COLOR_NAME	11	Neutral	niebieski	blue	Neutral	Neutral	hit	n/a
297.0319	n/a	RESPONSE	n/a	n/a	n/a	n/a	n/a	n/a	n/a	blue
297.0673	1.0167	ITI	n/a	n/a	n/a	n/a	n/a	n/a	n/a	n/a
298.084	0.5167	FIXCROSS	n/a	n/a	n/a	n/a	n/a	n/a	n/a	n/a
298.6006	1.0333	COLOR_NAME	12	Incongruent	niebieski	blue	zielony	green	hit	n/a
299.6044	n/a	RESPONSE	n/a	n/a	n/a	n/a	n/a	n/a	n/a	blue
299.634	1.0167	ITI	n/a	n/a	n/a	n/a	n/a	n/a	n/a	n/a
300.6507	0.5167	FIXCROSS	n/a	n/a	n/a	n/a	n/a	n/a	n/a	n/a
301.1673	0.8333	COLOR_NAME	13	Neutral	żółty	yellow	Neutral	Neutral	hit	n/a
301.9691	n/a	RESPONSE	n/a	n/a	n/a	n/a	n/a	n/a	n/a	yellow
302.0007	1.0167	ITI	n/a	n/a	n/a	n/a	n/a	n/a	n/a	n/a
303.0173	0.5167	FIXCROSS	n/a	n/a	n/a	n/a	n/a	n/a	n/a	n/a
303.534	0.8167	COLOR_NAME	14	Neutral	żółty	yellow	Neutral	Neutral	hit	n/a
304.3178	n/a	RESPONSE	n/a	n/a	n/a	n/a	n/a	n/a	n/a	yellow
304.3507	1.0167	ITI	n/a	n/a	n/a	n/a	n/a	n/a	n/a	n/a
305.3673	0.5167	FIXCROSS	n/a	n/a	n/a	n/a	n/a	n/a	n/a	n/a
305.884	0.75	COLOR_NAME	15	Neutral	niebieski	blue	Neutral	Neutral	hit	n/a
306.6028	n/a	RESPONSE	n/a	n/a	n/a	n/a	n/a	n/a	n/a	blue
306.634	1.0167	ITI	n/a	n/a	n/a	n/a	n/a	n/a	n/a	n/a
307.6507	0.5167	FIXCROSS	n/a	n/a	n/a	n/a	n/a	n/a	n/a	n/a
308.1674	0.6667	COLOR_NAME	16	Incongruent	czerwony	red	żółty	yellow	hit	n/a
308.8078	n/a	RESPONSE	n/a	n/a	n/a	n/a	n/a	n/a	n/a	red
308.834	1.0167	ITI	n/a	n/a	n/a	n/a	n/a	n/a	n/a	n/a
309.8507	0.5167	FIXCROSS	n/a	n/a	n/a	n/a	n/a	n/a	n/a	n/a
310.3674	0.85	COLOR_NAME	17	Incongruent	żółty	yellow	czerwony	red	hit	n/a
311.1885	n/a	RESPONSE	n/a	n/a	n/a	n/a	n/a	n/a	n/a	yellow
311.2174	1.0167	ITI	n/a	n/a	n/a	n/a	n/a	n/a	n/a	n/a
312.2341	0.5167	FIXCROSS	n/a	n/a	n/a	n/a	n/a	n/a	n/a	n/a
312.7507	0.7667	COLOR_NAME	18	Incongruent	zielony	green	żółty	yellow	hit	n/a
313.4893	n/a	RESPONSE	n/a	n/a	n/a	n/a	n/a	n/a	n/a	green
313.5174	1.0167	ITI	n/a	n/a	n/a	n/a	n/a	n/a	n/a	n/a
314.5341	0.5167	FIXCROSS	n/a	n/a	n/a	n/a	n/a	n/a	n/a	n/a
315.0508	0.7167	COLOR_NAME	19	Neutral	zielony	green	Neutral	Neutral	hit	n/a
315.7422	n/a	RESPONSE	n/a	n/a	n/a	n/a	n/a	n/a	n/a	green
315.7674	1.0167	ITI	n/a	n/a	n/a	n/a	n/a	n/a	n/a	n/a
316.7841	0.5167	FIXCROSS	n/a	n/a	n/a	n/a	n/a	n/a	n/a	n/a
317.3008	1.2333	COLOR_NAME	20	Neutral	zielony	green	Neutral	Neutral	hit	n/a
318.5064	n/a	RESPONSE	n/a	n/a	n/a	n/a	n/a	n/a	n/a	green
318.5341	1.0167	ITI	n/a	n/a	n/a	n/a	n/a	n/a	n/a	n/a
319.5508	0.5167	FIXCROSS	n/a	n/a	n/a	n/a	n/a	n/a	n/a	n/a
320.0675	0.8	COLOR_NAME	21	Incongruent	żółty	yellow	czerwony	red	hit	n/a
320.8393	n/a	RESPONSE	n/a	n/a	n/a	n/a	n/a	n/a	n/a	yellow
320.8675	1.0167	ITI	n/a	n/a	n/a	n/a	n/a	n/a	n/a	n/a
321.8841	0.5167	FIXCROSS	n/a	n/a	n/a	n/a	n/a	n/a	n/a	n/a
322.4008	0.85	COLOR_NAME	22	Incongruent	czerwony	red	niebieski	blue	hit	n/a
323.2199	n/a	RESPONSE	n/a	n/a	n/a	n/a	n/a	n/a	n/a	red
323.2508	1.0167	ITI	n/a	n/a	n/a	n/a	n/a	n/a	n/a	n/a
324.2675	0.5167	FIXCROSS	n/a	n/a	n/a	n/a	n/a	n/a	n/a	n/a
324.7842	1.0667	COLOR_NAME	23	Incongruent	zielony	green	niebieski	blue	hit	n/a
325.8245	n/a	RESPONSE	n/a	n/a	n/a	n/a	n/a	n/a	n/a	green
325.8508	1.0167	ITI	n/a	n/a	n/a	n/a	n/a	n/a	n/a	n/a
326.8675	0.5167	FIXCROSS	n/a	n/a	n/a	n/a	n/a	n/a	n/a	n/a
327.3842	0.6167	COLOR_NAME	24	Neutral	zielony	green	Neutral	Neutral	hit	n/a
327.9814	n/a	RESPONSE	n/a	n/a	n/a	n/a	n/a	n/a	n/a	green
328.0008	1.0167	ITI	n/a	n/a	n/a	n/a	n/a	n/a	n/a	n/a
329.0175	0.5167	FIXCROSS	n/a	n/a	n/a	n/a	n/a	n/a	n/a	n/a
329.5342	0.85	COLOR_NAME	25	Neutral	niebieski	blue	Neutral	Neutral	hit	n/a
330.3623	n/a	RESPONSE	n/a	n/a	n/a	n/a	n/a	n/a	n/a	blue
330.3842	1.0167	ITI	n/a	n/a	n/a	n/a	n/a	n/a	n/a	n/a
331.4009	0.5167	FIXCROSS	n/a	n/a	n/a	n/a	n/a	n/a	n/a	n/a
331.9176	0.7333	COLOR_NAME	26	Neutral	żółty	yellow	Neutral	Neutral	hit	n/a
332.6311	n/a	RESPONSE	n/a	n/a	n/a	n/a	n/a	n/a	n/a	yellow
332.6509	1.0167	ITI	n/a	n/a	n/a	n/a	n/a	n/a	n/a	n/a
333.6676	0.5167	FIXCROSS	n/a	n/a	n/a	n/a	n/a	n/a	n/a	n/a
334.1842	0.8	COLOR_NAME	27	Incongruent	zielony	green	niebieski	blue	hit	n/a
334.9639	n/a	RESPONSE	n/a	n/a	n/a	n/a	n/a	n/a	n/a	green
334.9842	1.0167	ITI	n/a	n/a	n/a	n/a	n/a	n/a	n/a	n/a
336.0009	0.5167	FIXCROSS	n/a	n/a	n/a	n/a	n/a	n/a	n/a	n/a
336.5176	0.7167	COLOR_NAME	28	Neutral	czerwony	red	Neutral	Neutral	hit	n/a
337.2008	n/a	RESPONSE	n/a	n/a	n/a	n/a	n/a	n/a	n/a	red
337.2343	1.0167	ITI	n/a	n/a	n/a	n/a	n/a	n/a	n/a	n/a
338.2509	0.5167	FIXCROSS	n/a	n/a	n/a	n/a	n/a	n/a	n/a	n/a
338.7676	0.9	COLOR_NAME	29	Neutral	zielony	green	Neutral	Neutral	hit	n/a
339.6455	n/a	RESPONSE	n/a	n/a	n/a	n/a	n/a	n/a	n/a	green
339.6676	1.0167	ITI	n/a	n/a	n/a	n/a	n/a	n/a	n/a	n/a
340.6843	0.5167	FIXCROSS	n/a	n/a	n/a	n/a	n/a	n/a	n/a	n/a
341.201	0.6667	COLOR_NAME	30	Neutral	zielony	green	Neutral	Neutral	hit	n/a
341.8345	n/a	RESPONSE	n/a	n/a	n/a	n/a	n/a	n/a	n/a	green
341.8676	1.0167	ITI	n/a	n/a	n/a	n/a	n/a	n/a	n/a	n/a
342.8843	0.5167	FIXCROSS	n/a	n/a	n/a	n/a	n/a	n/a	n/a	n/a
343.401	0.65	COLOR_NAME	31	Neutral	czerwony	red	Neutral	Neutral	hit	n/a
344.0235	n/a	RESPONSE	n/a	n/a	n/a	n/a	n/a	n/a	n/a	red
344.051	1.0167	ITI	n/a	n/a	n/a	n/a	n/a	n/a	n/a	n/a
345.0676	0.5167	FIXCROSS	n/a	n/a	n/a	n/a	n/a	n/a	n/a	n/a
345.5843	0.65	COLOR_NAME	32	Neutral	czerwony	red	Neutral	Neutral	hit	n/a
346.2125	n/a	RESPONSE	n/a	n/a	n/a	n/a	n/a	n/a	n/a	red
346.2343	1.0167	ITI	n/a	n/a	n/a	n/a	n/a	n/a	n/a	n/a
347.251	0.5167	FIXCROSS	n/a	n/a	n/a	n/a	n/a	n/a	n/a	n/a
347.7677	0.8	COLOR_NAME	33	Neutral	żółty	yellow	Neutral	Neutral	hit	n/a
348.5453	n/a	RESPONSE	n/a	n/a	n/a	n/a	n/a	n/a	n/a	yellow
348.5677	1.0167	ITI	n/a	n/a	n/a	n/a	n/a	n/a	n/a	n/a
349.5843	0.5167	FIXCROSS	n/a	n/a	n/a	n/a	n/a	n/a	n/a	n/a
350.101	0.6833	COLOR_NAME	34	Neutral	żółty	yellow	Neutral	Neutral	hit	n/a
350.7663	n/a	RESPONSE	n/a	n/a	n/a	n/a	n/a	n/a	n/a	yellow
350.7844	1.0167	ITI	n/a	n/a	n/a	n/a	n/a	n/a	n/a	n/a
351.801	0.5167	FIXCROSS	n/a	n/a	n/a	n/a	n/a	n/a	n/a	n/a
352.3177	0.5833	COLOR_NAME	35	Neutral	czerwony	red	Neutral	Neutral	hit	n/a
352.8753	n/a	RESPONSE	n/a	n/a	n/a	n/a	n/a	n/a	n/a	red
352.901	1.0167	ITI	n/a	n/a	n/a	n/a	n/a	n/a	n/a	n/a
353.9177	0.5167	FIXCROSS	n/a	n/a	n/a	n/a	n/a	n/a	n/a	n/a
354.4344	0.7167	COLOR_NAME	36	Neutral	żółty	yellow	Neutral	Neutral	hit	n/a
355.1282	n/a	RESPONSE	n/a	n/a	n/a	n/a	n/a	n/a	n/a	yellow
355.1511	1.0167	ITI	n/a	n/a	n/a	n/a	n/a	n/a	n/a	n/a
356.1677	0.5167	FIXCROSS	n/a	n/a	n/a	n/a	n/a	n/a	n/a	n/a
356.6844	0.9	COLOR_NAME	37	Incongruent	zielony	green	żółty	yellow	hit	n/a
357.557	n/a	RESPONSE	n/a	n/a	n/a	n/a	n/a	n/a	n/a	green
357.5844	1.0167	ITI	n/a	n/a	n/a	n/a	n/a	n/a	n/a	n/a
358.6011	0.5167	FIXCROSS	n/a	n/a	n/a	n/a	n/a	n/a	n/a	n/a
359.1178	0.6667	COLOR_NAME	38	Neutral	niebieski	blue	Neutral	Neutral	hit	n/a
359.762	n/a	RESPONSE	n/a	n/a	n/a	n/a	n/a	n/a	n/a	blue
359.7844	1.0167	ITI	n/a	n/a	n/a	n/a	n/a	n/a	n/a	n/a
360.8011	0.5167	FIXCROSS	n/a	n/a	n/a	n/a	n/a	n/a	n/a	n/a
361.3178	0.7	COLOR_NAME	39	Neutral	niebieski	blue	Neutral	Neutral	hit	n/a
361.9988	n/a	RESPONSE	n/a	n/a	n/a	n/a	n/a	n/a	n/a	blue
362.0178	1.0167	ITI	n/a	n/a	n/a	n/a	n/a	n/a	n/a	n/a
363.0345	0.5167	FIXCROSS	n/a	n/a	n/a	n/a	n/a	n/a	n/a	n/a
363.5511	0.6667	COLOR_NAME	40	Incongruent	niebieski	blue	zielony	green	hit	n/a
364.1879	n/a	RESPONSE	n/a	n/a	n/a	n/a	n/a	n/a	n/a	blue
364.2178	1.0167	ITI	n/a	n/a	n/a	n/a	n/a	n/a	n/a	n/a
365.2345	0.5167	FIXCROSS	n/a	n/a	n/a	n/a	n/a	n/a	n/a	n/a
365.7511	0.75	COLOR_NAME	41	Neutral	żółty	yellow	Neutral	Neutral	hit	n/a
366.4726	n/a	RESPONSE	n/a	n/a	n/a	n/a	n/a	n/a	n/a	yellow
366.5011	1.0167	ITI	n/a	n/a	n/a	n/a	n/a	n/a	n/a	n/a
367.5178	0.5167	FIXCROSS	n/a	n/a	n/a	n/a	n/a	n/a	n/a	n/a
368.0345	0.8167	COLOR_NAME	42	Incongruent	niebieski	blue	żółty	yellow	hit	n/a
368.8213	n/a	RESPONSE	n/a	n/a	n/a	n/a	n/a	n/a	n/a	blue
368.8512	1.0167	ITI	n/a	n/a	n/a	n/a	n/a	n/a	n/a	n/a
369.8678	0.5167	FIXCROSS	n/a	n/a	n/a	n/a	n/a	n/a	n/a	n/a
370.3845	0.7333	COLOR_NAME	43	Neutral	żółty	yellow	Neutral	Neutral	hit	n/a
371.0903	n/a	RESPONSE	n/a	n/a	n/a	n/a	n/a	n/a	n/a	yellow
371.1178	1.0167	ITI	n/a	n/a	n/a	n/a	n/a	n/a	n/a	n/a
372.1345	0.5167	FIXCROSS	n/a	n/a	n/a	n/a	n/a	n/a	n/a	n/a
372.6512	0.8	COLOR_NAME	44	Neutral	niebieski	blue	Neutral	Neutral	hit	n/a
373.423	n/a	RESPONSE	n/a	n/a	n/a	n/a	n/a	n/a	n/a	blue
373.4512	1.0167	ITI	n/a	n/a	n/a	n/a	n/a	n/a	n/a	n/a
374.4679	0.5167	FIXCROSS	n/a	n/a	n/a	n/a	n/a	n/a	n/a	n/a
374.9845	0.7167	COLOR_NAME	45	Incongruent	niebieski	blue	czerwony	red	hit	n/a
375.676	n/a	RESPONSE	n/a	n/a	n/a	n/a	n/a	n/a	n/a	blue
375.7012	1.0167	ITI	n/a	n/a	n/a	n/a	n/a	n/a	n/a	n/a
376.7179	0.5167	FIXCROSS	n/a	n/a	n/a	n/a	n/a	n/a	n/a	n/a
377.2346	1.0	COLOR_NAME	46	Neutral	czerwony	red	Neutral	Neutral	hit	n/a
378.2166	n/a	RESPONSE	n/a	n/a	n/a	n/a	n/a	n/a	n/a	red
378.2346	1.0167	ITI	n/a	n/a	n/a	n/a	n/a	n/a	n/a	n/a
379.2512	0.5167	FIXCROSS	n/a	n/a	n/a	n/a	n/a	n/a	n/a	n/a
379.7679	0.6833	COLOR_NAME	47	Neutral	czerwony	red	Neutral	Neutral	hit	n/a
380.4215	n/a	RESPONSE	n/a	n/a	n/a	n/a	n/a	n/a	n/a	red
380.4513	1.0167	ITI	n/a	n/a	n/a	n/a	n/a	n/a	n/a	n/a
381.4679	0.5167	FIXCROSS	n/a	n/a	n/a	n/a	n/a	n/a	n/a	n/a
381.9846	0.8833	COLOR_NAME	48	Incongruent	żółty	yellow	zielony	green	hit	n/a
382.8502	n/a	RESPONSE	n/a	n/a	n/a	n/a	n/a	n/a	n/a	yellow
382.8679	1.0167	ITI	n/a	n/a	n/a	n/a	n/a	n/a	n/a	n/a
383.8846	0.5167	FIXCROSS	n/a	n/a	n/a	n/a	n/a	n/a	n/a	n/a
384.4013	0.7333	COLOR_NAME	49	Incongruent	czerwony	red	żółty	yellow	hit	n/a
385.103	n/a	RESPONSE	n/a	n/a	n/a	n/a	n/a	n/a	n/a	red
385.1346	1.0167	ITI	n/a	n/a	n/a	n/a	n/a	n/a	n/a	n/a
386.1513	0.5167	FIXCROSS	n/a	n/a	n/a	n/a	n/a	n/a	n/a	n/a
386.668	0.75	COLOR_NAME	50	Neutral	niebieski	blue	Neutral	Neutral	hit	n/a
387.388	n/a	RESPONSE	n/a	n/a	n/a	n/a	n/a	n/a	n/a	blue
387.418	1.0167	ITI	n/a	n/a	n/a	n/a	n/a	n/a	n/a	n/a
388.4346	0.5167	FIXCROSS	n/a	n/a	n/a	n/a	n/a	n/a	n/a	n/a
388.9513	0.65	COLOR_NAME	51	Neutral	czerwony	red	Neutral	Neutral	hit	n/a
389.577	n/a	RESPONSE	n/a	n/a	n/a	n/a	n/a	n/a	n/a	red
389.6013	1.0167	ITI	n/a	n/a	n/a	n/a	n/a	n/a	n/a	n/a
390.618	0.5167	FIXCROSS	n/a	n/a	n/a	n/a	n/a	n/a	n/a	n/a
391.1347	0.7333	COLOR_NAME	52	Neutral	niebieski	blue	Neutral	Neutral	hit	n/a
391.8458	n/a	RESPONSE	n/a	n/a	n/a	n/a	n/a	n/a	n/a	blue
391.868	1.0167	ITI	n/a	n/a	n/a	n/a	n/a	n/a	n/a	n/a
392.8847	0.5167	FIXCROSS	n/a	n/a	n/a	n/a	n/a	n/a	n/a	n/a
393.4014	0.7333	COLOR_NAME	53	Incongruent	niebieski	blue	żółty	yellow	hit	n/a
394.1148	n/a	RESPONSE	n/a	n/a	n/a	n/a	n/a	n/a	n/a	blue
394.1347	1.0167	ITI	n/a	n/a	n/a	n/a	n/a	n/a	n/a	n/a
395.1514	0.5167	FIXCROSS	n/a	n/a	n/a	n/a	n/a	n/a	n/a	n/a
395.668	0.75	COLOR_NAME	54	Incongruent	żółty	yellow	niebieski	blue	hit	n/a
396.3996	n/a	RESPONSE	n/a	n/a	n/a	n/a	n/a	n/a	n/a	yellow
396.418	1.0167	ITI	n/a	n/a	n/a	n/a	n/a	n/a	n/a	n/a
397.4347	0.5167	FIXCROSS	n/a	n/a	n/a	n/a	n/a	n/a	n/a	n/a
397.9514	0.65	COLOR_NAME	55	Incongruent	żółty	yellow	zielony	green	hit	n/a
398.5728	n/a	RESPONSE	n/a	n/a	n/a	n/a	n/a	n/a	n/a	yellow
398.6014	1.0167	ITI	n/a	n/a	n/a	n/a	n/a	n/a	n/a	n/a
399.6181	0.5167	FIXCROSS	n/a	n/a	n/a	n/a	n/a	n/a	n/a	n/a
400.1347	0.6667	COLOR_NAME	56	Incongruent	czerwony	red	zielony	green	hit	n/a
400.7777	n/a	RESPONSE	n/a	n/a	n/a	n/a	n/a	n/a	n/a	red
400.8014	1.0167	ITI	n/a	n/a	n/a	n/a	n/a	n/a	n/a	n/a
401.8181	0.5167	FIXCROSS	n/a	n/a	n/a	n/a	n/a	n/a	n/a	n/a
402.3347	0.65	COLOR_NAME	57	Neutral	zielony	green	Neutral	Neutral	hit	n/a
402.9667	n/a	RESPONSE	n/a	n/a	n/a	n/a	n/a	n/a	n/a	green
402.9848	1.0167	ITI	n/a	n/a	n/a	n/a	n/a	n/a	n/a	n/a
404.0014	0.5167	FIXCROSS	n/a	n/a	n/a	n/a	n/a	n/a	n/a	n/a
404.5181	0.8667	COLOR_NAME	58	Incongruent	niebieski	blue	żółty	yellow	hit	n/a
405.3634	n/a	RESPONSE	n/a	n/a	n/a	n/a	n/a	n/a	n/a	blue
405.3848	1.0167	ITI	n/a	n/a	n/a	n/a	n/a	n/a	n/a	n/a
406.4015	0.5167	FIXCROSS	n/a	n/a	n/a	n/a	n/a	n/a	n/a	n/a
406.9181	1.0167	COLOR_NAME	59	Neutral	zielony	green	Neutral	Neutral	hit	n/a
407.9039	n/a	RESPONSE	n/a	n/a	n/a	n/a	n/a	n/a	n/a	green
407.9348	1.0167	ITI	n/a	n/a	n/a	n/a	n/a	n/a	n/a	n/a
408.9515	0.5167	FIXCROSS	n/a	n/a	n/a	n/a	n/a	n/a	n/a	n/a
409.4681	0.7667	COLOR_NAME	60	Incongruent	czerwony	red	zielony	green	hit	n/a
410.2048	n/a	RESPONSE	n/a	n/a	n/a	n/a	n/a	n/a	n/a	red
410.2348	1.0167	ITI	n/a	n/a	n/a	n/a	n/a	n/a	n/a	n/a
411.2515	0.5167	FIXCROSS	n/a	n/a	n/a	n/a	n/a	n/a	n/a	n/a
411.7682	0.9167	COLOR_NAME	61	Neutral	zielony	green	Neutral	Neutral	hit	n/a
412.6654	n/a	RESPONSE	n/a	n/a	n/a	n/a	n/a	n/a	n/a	green
412.6848	1.0167	ITI	n/a	n/a	n/a	n/a	n/a	n/a	n/a	n/a
413.7015	0.5167	FIXCROSS	n/a	n/a	n/a	n/a	n/a	n/a	n/a	n/a
414.2182	0.8167	COLOR_NAME	62	Incongruent	zielony	green	czerwony	red	hit	n/a
415.0142	n/a	RESPONSE	n/a	n/a	n/a	n/a	n/a	n/a	n/a	green
415.0348	1.0167	ITI	n/a	n/a	n/a	n/a	n/a	n/a	n/a	n/a
416.0515	0.5167	FIXCROSS	n/a	n/a	n/a	n/a	n/a	n/a	n/a	n/a
416.5682	0.9833	COLOR_NAME	63	Incongruent	czerwony	red	żółty	yellow	hit	n/a
417.5228	n/a	RESPONSE	n/a	n/a	n/a	n/a	n/a	n/a	n/a	red
417.5515	1.0166	ITI	n/a	n/a	n/a	n/a	n/a	n/a	n/a	n/a
418.5682	0.5167	FIXCROSS	n/a	n/a	n/a	n/a	n/a	n/a	n/a	n/a
419.0849	1.1	COLOR_NAME	64	Incongruent	zielony	green	niebieski	blue	hit	n/a
420.1593	n/a	RESPONSE	n/a	n/a	n/a	n/a	n/a	n/a	n/a	green
420.1849	1.0167	ITI	n/a	n/a	n/a	n/a	n/a	n/a	n/a	n/a
421.2016	0.5167	FIXCROSS	n/a	n/a	n/a	n/a	n/a	n/a	n/a	n/a
421.7182	0.65	COLOR_NAME	65	Incongruent	czerwony	red	zielony	green	hit	n/a
422.3482	n/a	RESPONSE	n/a	n/a	n/a	n/a	n/a	n/a	n/a	red
422.3682	1.0167	ITI	n/a	n/a	n/a	n/a	n/a	n/a	n/a	n/a
423.3849	0.5167	FIXCROSS	n/a	n/a	n/a	n/a	n/a	n/a	n/a	n/a
423.9016	0.9833	COLOR_NAME	66	Incongruent	niebieski	blue	czerwony	red	hit	n/a
424.8567	n/a	RESPONSE	n/a	n/a	n/a	n/a	n/a	n/a	n/a	blue
424.8849	1.0167	ITI	n/a	n/a	n/a	n/a	n/a	n/a	n/a	n/a
425.9016	0.5167	FIXCROSS	n/a	n/a	n/a	n/a	n/a	n/a	n/a	n/a
426.4183	0.8	COLOR_NAME	67	Incongruent	żółty	yellow	czerwony	red	hit	n/a
427.1896	n/a	RESPONSE	n/a	n/a	n/a	n/a	n/a	n/a	n/a	yellow
427.2183	1.0167	ITI	n/a	n/a	n/a	n/a	n/a	n/a	n/a	n/a
428.235	0.5167	FIXCROSS	n/a	n/a	n/a	n/a	n/a	n/a	n/a	n/a
428.7516	0.75	COLOR_NAME	68	Incongruent	zielony	green	żółty	yellow	hit	n/a
429.4744	n/a	RESPONSE	n/a	n/a	n/a	n/a	n/a	n/a	n/a	green
429.5016	1.0167	ITI	n/a	n/a	n/a	n/a	n/a	n/a	n/a	n/a
430.5183	0.5167	FIXCROSS	n/a	n/a	n/a	n/a	n/a	n/a	n/a	n/a
431.035	0.8333	COLOR_NAME	69	Incongruent	żółty	yellow	niebieski	blue	hit	n/a
431.8391	n/a	RESPONSE	n/a	n/a	n/a	n/a	n/a	n/a	n/a	yellow
431.8683	1.0167	ITI	n/a	n/a	n/a	n/a	n/a	n/a	n/a	n/a
432.885	0.5167	FIXCROSS	n/a	n/a	n/a	n/a	n/a	n/a	n/a	n/a
433.4017	0.7333	COLOR_NAME	70	Neutral	żółty	yellow	Neutral	Neutral	hit	n/a
434.1081	n/a	RESPONSE	n/a	n/a	n/a	n/a	n/a	n/a	n/a	yellow
434.135	1.0167	ITI	n/a	n/a	n/a	n/a	n/a	n/a	n/a	n/a
435.1517	0.5167	FIXCROSS	n/a	n/a	n/a	n/a	n/a	n/a	n/a	n/a
435.6683	0.8833	COLOR_NAME	71	Incongruent	niebieski	blue	czerwony	red	hit	n/a
436.5208	n/a	RESPONSE	n/a	n/a	n/a	n/a	n/a	n/a	n/a	blue
436.5517	1.0167	ITI	n/a	n/a	n/a	n/a	n/a	n/a	n/a	n/a
437.5683	0.5167	FIXCROSS	n/a	n/a	n/a	n/a	n/a	n/a	n/a	n/a
438.085	0.7833	COLOR_NAME	72	Incongruent	czerwony	red	niebieski	blue	hit	n/a
438.8377	n/a	RESPONSE	n/a	n/a	n/a	n/a	n/a	n/a	n/a	red
438.8684	1.0333	ITI	n/a	n/a	n/a	n/a	n/a	n/a	n/a	n/a
445.4845	n/a	RESPONSE	n/a	n/a	n/a	n/a	n/a	n/a	n/a	n/a
