onset	duration	trial_type	melody_number	melody_part	key	sound	action
0.0	14.086	CUE_START	n/a	n/a	n/a	n/a	n/a
14.086	7.76	FIXCROSS	n/a	n/a	n/a	n/a	n/a
21.846	6.316	CUE_LISTEN	M4	1	n/a	n/a	n/a
28.161	7.758	FIXCROSS	n/a	n/a	n/a	n/a	n/a
35.92	6.325	CUE_PLAYBACK_BOTH_HANDS	M4	1	n/a	n/a	n/a
37.639	n/a	RESPONSE	M4	1	02	D3	press
37.67	n/a	RESPONSE	M4	1	05	F3	press
37.673	n/a	RESPONSE	M4	1	09	A3	press
37.694	n/a	RESPONSE	M4	1	04	E3	press
37.854	n/a	RESPONSE	M4	1	04	E3	release
37.865	n/a	RESPONSE	M4	1	05	F3	release
37.957	n/a	RESPONSE	M4	1	09	A3	release
38.08	n/a	RESPONSE	M4	1	02	D3	release
38.439	n/a	RESPONSE	M4	1	12	C4	press
38.51	n/a	RESPONSE	M4	1	12	C4	release
39.402	n/a	RESPONSE	M4	1	07	G3	press
39.433	n/a	RESPONSE	M4	1	16	E4	press
39.47	n/a	RESPONSE	M4	1	11	B3	press
39.48	n/a	RESPONSE	M4	1	21	A4	press
39.714	n/a	RESPONSE	M4	1	21	A4	release
39.977	n/a	RESPONSE	M4	1	11	B3	release
40.114	n/a	RESPONSE	M4	1	21	A4	press
40.16	n/a	RESPONSE	M4	1	19	G4	press
40.17	n/a	RESPONSE	M4	1	12	C4	press
40.275	n/a	RESPONSE	M4	1	19	G4	release
40.328	n/a	RESPONSE	M4	1	21	A4	release
40.427	n/a	RESPONSE	M4	1	12	C4	release
40.557	n/a	RESPONSE	M4	1	07	G3	release
40.598	n/a	RESPONSE	M4	1	16	E4	release
41.72	n/a	RESPONSE	M4	1	07	G3	press
41.738	n/a	RESPONSE	M4	1	11	B3	press
41.768	n/a	RESPONSE	M4	1	14	D4	press
41.815	n/a	RESPONSE	M4	1	19	G4	press
42.127	n/a	RESPONSE	M4	1	23	B4	press
42.144	n/a	RESPONSE	M4	1	19	G4	release
42.245	7.759	FIXCROSS	n/a	n/a	n/a	n/a	n/a
42.549	n/a	RESPONSE	M4	1	21	A4	press
42.589	n/a	RESPONSE	M4	1	23	B4	release
42.692	n/a	RESPONSE	M4	1	11	B3	release
42.794	n/a	RESPONSE	M4	1	14	D4	release
42.813	n/a	RESPONSE	M4	1	07	G3	release
42.824	n/a	RESPONSE	M4	1	21	A4	release
42.915	n/a	RESPONSE	M4	1	19	G4	press
43.017	n/a	RESPONSE	M4	1	17	F4	press
43.058	n/a	RESPONSE	M4	1	19	G4	release
43.3	n/a	RESPONSE	M4	1	17	F4	release
50.003	6.317	CUE_LISTEN	M4	2	n/a	n/a	n/a
56.32	7.758	FIXCROSS	n/a	n/a	n/a	n/a	n/a
64.078	6.317	CUE_PLAYBACK_BOTH_HANDS	M4	2	n/a	n/a	n/a
64.743	n/a	RESPONSE	M4	2	09	A3	press
64.763	n/a	RESPONSE	M4	2	05	F3	press
64.767	n/a	RESPONSE	M4	2	12	C4	press
65.095	n/a	RESPONSE	M4	2	17	F4	press
65.767	n/a	RESPONSE	M4	2	17	F4	release
65.788	n/a	RESPONSE	M4	2	12	C4	release
65.882	n/a	RESPONSE	M4	2	09	A3	release
66.09	n/a	RESPONSE	M4	2	21	A4	press
66.672	n/a	RESPONSE	M4	2	21	A4	release
67.263	n/a	RESPONSE	M4	2	24	C5	press
67.654	n/a	RESPONSE	M4	2	05	F3	release
68.347	n/a	RESPONSE	M4	2	07	G3	press
68.357	n/a	RESPONSE	M4	2	22	A#4	press
68.359	n/a	RESPONSE	M4	2	04	E3	press
68.39	n/a	RESPONSE	M4	2	12	C4	press
68.678	n/a	RESPONSE	M4	2	21	A4	press
68.697	n/a	RESPONSE	M4	2	24	C5	release
68.755	n/a	RESPONSE	M4	2	22	A#4	release
69.067	n/a	RESPONSE	M4	2	19	G4	press
69.133	n/a	RESPONSE	M4	2	21	A4	release
69.359	n/a	RESPONSE	M4	2	19	G4	release
69.382	n/a	RESPONSE	M4	2	12	C4	release
69.52	n/a	RESPONSE	M4	2	07	G3	release
69.524	n/a	RESPONSE	M4	2	04	E3	release
69.769	n/a	RESPONSE	M4	2	04	E3	press
69.772	n/a	RESPONSE	M4	2	07	G3	press
69.795	n/a	RESPONSE	M4	2	12	C4	press
70.202	n/a	RESPONSE	M4	2	16	E4	press
70.395	7.758	FIXCROSS	n/a	n/a	n/a	n/a	n/a
70.638	n/a	RESPONSE	M4	2	19	G4	press
70.73	n/a	RESPONSE	M4	2	16	E4	release
71.273	n/a	RESPONSE	M4	2	19	G4	release
71.404	n/a	RESPONSE	M4	2	12	C4	release
71.647	n/a	RESPONSE	M4	2	21	A4	press
71.935	n/a	RESPONSE	M4	2	21	A4	release
72.167	n/a	RESPONSE	M4	2	07	G3	release
72.223	n/a	RESPONSE	M4	2	04	E3	release
72.534	n/a	RESPONSE	M4	2	22	A#4	press
72.538	n/a	RESPONSE	M4	2	09	A3	press
72.567	n/a	RESPONSE	M4	2	04	E3	press
72.598	n/a	RESPONSE	M4	2	12	C4	press
72.6	n/a	RESPONSE	M4	2	07	G3	press
72.97	n/a	RESPONSE	M4	2	22	A#4	release
73.232	n/a	RESPONSE	M4	2	21	A4	press
73.443	n/a	RESPONSE	M4	2	07	G3	release
73.667	n/a	RESPONSE	M4	2	19	G4	press
73.705	n/a	RESPONSE	M4	2	21	A4	release
73.967	n/a	RESPONSE	M4	2	04	E3	release
73.979	n/a	RESPONSE	M4	2	12	C4	release
74.029	n/a	RESPONSE	M4	2	19	G4	release
74.16	n/a	RESPONSE	M4	2	17	F4	press
74.654	n/a	RESPONSE	M4	2	09	A3	release
74.794	n/a	RESPONSE	M4	2	17	F4	release
78.038	n/a	RESPONSE	M4	2	04	E3	press
78.153	6.325	CUE_LISTEN	M1	1	n/a	n/a	n/a
78.487	n/a	RESPONSE	M1	1	04	E3	release
84.478	7.758	FIXCROSS	n/a	n/a	n/a	n/a	n/a
92.236	6.317	CUE_PLAYBACK_RIGHT_HAND	M1	1	n/a	n/a	n/a
93.697	n/a	RESPONSE	M1	1	12	C4	press
94.009	n/a	RESPONSE	M1	1	12	C4	release
94.599	n/a	RESPONSE	M1	1	19	G4	press
95.05	n/a	RESPONSE	M1	1	16	E4	press
95.162	n/a	RESPONSE	M1	1	19	G4	release
95.403	n/a	RESPONSE	M1	1	16	E4	release
95.554	n/a	RESPONSE	M1	1	16	E4	press
95.817	n/a	RESPONSE	M1	1	16	E4	release
95.917	n/a	RESPONSE	M1	1	17	F4	press
96.429	n/a	RESPONSE	M1	1	14	D4	press
96.462	n/a	RESPONSE	M1	1	17	F4	release
96.65	n/a	RESPONSE	M1	1	14	D4	release
96.832	n/a	RESPONSE	M1	1	14	D4	press
97.075	n/a	RESPONSE	M1	1	14	D4	release
97.287	n/a	RESPONSE	M1	1	12	C4	press
97.545	n/a	RESPONSE	M1	1	16	E4	press
97.637	n/a	RESPONSE	M1	1	12	C4	release
97.798	n/a	RESPONSE	M1	1	19	G4	press
97.85	n/a	RESPONSE	M1	1	16	E4	release
98.553	7.758	FIXCROSS	n/a	n/a	n/a	n/a	n/a
98.58	n/a	RESPONSE	M1	1	19	G4	release
106.312	6.317	CUE_LISTEN	M1	2	n/a	n/a	n/a
112.628	7.758	FIXCROSS	n/a	n/a	n/a	n/a	n/a
120.387	6.325	CUE_PLAYBACK_RIGHT_HAND	M1	2	n/a	n/a	n/a
120.846	n/a	RESPONSE	M1	2	19	G4	press
121.327	n/a	RESPONSE	M1	2	19	G4	release
121.333	n/a	RESPONSE	M1	2	16	E4	press
121.574	n/a	RESPONSE	M1	2	16	E4	release
121.81	n/a	RESPONSE	M1	2	16	E4	press
122.117	n/a	RESPONSE	M1	2	16	E4	release
122.278	n/a	RESPONSE	M1	2	17	F4	press
122.72	n/a	RESPONSE	M1	2	17	F4	release
122.75	n/a	RESPONSE	M1	2	14	D4	press
122.982	n/a	RESPONSE	M1	2	14	D4	release
123.233	n/a	RESPONSE	M1	2	14	D4	press
123.534	n/a	RESPONSE	M1	2	14	D4	release
123.707	n/a	RESPONSE	M1	2	12	C4	press
124.007	n/a	RESPONSE	M1	2	16	E4	press
124.078	n/a	RESPONSE	M1	2	12	C4	release
124.292	n/a	RESPONSE	M1	2	12	C4	press
124.34	n/a	RESPONSE	M1	2	16	E4	release
124.942	n/a	RESPONSE	M1	2	12	C4	release
126.712	7.758	FIXCROSS	n/a	n/a	n/a	n/a	n/a
134.47	6.317	CUE_LISTEN	M5	1	n/a	n/a	n/a
140.786	7.758	FIXCROSS	n/a	n/a	n/a	n/a	n/a
148.545	6.317	CUE_PLAYBACK_BOTH_HANDS	M5	1	n/a	n/a	n/a
149.103	n/a	RESPONSE	M5	1	21	A4	press
149.112	n/a	RESPONSE	M5	1	05	F3	press
149.34	n/a	RESPONSE	M5	1	21	A4	release
149.493	n/a	RESPONSE	M5	1	09	A3	press
149.509	n/a	RESPONSE	M5	1	21	A4	press
149.58	n/a	RESPONSE	M5	1	05	F3	release
149.723	n/a	RESPONSE	M5	1	21	A4	release
149.872	n/a	RESPONSE	M5	1	04	E3	press
149.879	n/a	RESPONSE	M5	1	09	A3	release
149.883	n/a	RESPONSE	M5	1	21	A4	press
150.202	n/a	RESPONSE	M5	1	09	A3	press
150.329	n/a	RESPONSE	M5	1	04	E3	release
150.432	n/a	RESPONSE	M5	1	21	A4	release
150.518	n/a	RESPONSE	M5	1	09	A3	release
150.585	n/a	RESPONSE	M5	1	02	D3	press
150.594	n/a	RESPONSE	M5	1	21	A4	press
150.857	n/a	RESPONSE	M5	1	21	A4	release
150.948	n/a	RESPONSE	M5	1	09	A3	press
150.955	n/a	RESPONSE	M5	1	02	D3	release
150.972	n/a	RESPONSE	M5	1	21	A4	press
151.177	n/a	RESPONSE	M5	1	21	A4	release
151.299	n/a	RESPONSE	M5	1	00	C3	press
151.305	n/a	RESPONSE	M5	1	21	A4	press
151.342	n/a	RESPONSE	M5	1	09	A3	release
151.599	n/a	RESPONSE	M5	1	09	A3	press
151.725	n/a	RESPONSE	M5	1	00	C3	release
151.779	n/a	RESPONSE	M5	1	21	A4	release
151.928	n/a	RESPONSE	M5	1	09	A3	release
151.96	n/a	RESPONSE	M5	1	05	F3	press
151.982	n/a	RESPONSE	M5	1	21	A4	press
152.303	n/a	RESPONSE	M5	1	09	A3	press
152.314	n/a	RESPONSE	M5	1	24	C5	press
152.347	n/a	RESPONSE	M5	1	05	F3	release
152.357	n/a	RESPONSE	M5	1	21	A4	release
152.63	n/a	RESPONSE	M5	1	04	E3	press
152.649	n/a	RESPONSE	M5	1	17	F4	press
152.713	n/a	RESPONSE	M5	1	09	A3	release
152.772	n/a	RESPONSE	M5	1	24	C5	release
152.955	n/a	RESPONSE	M5	1	09	A3	press
153.008	n/a	RESPONSE	M5	1	04	E3	release
153.017	n/a	RESPONSE	M5	1	19	G4	press
153.098	n/a	RESPONSE	M5	1	17	F4	release
153.279	n/a	RESPONSE	M5	1	21	A4	press
153.31	n/a	RESPONSE	M5	1	19	G4	release
153.322	n/a	RESPONSE	M5	1	02	D3	press
153.364	n/a	RESPONSE	M5	1	09	A3	release
153.644	n/a	RESPONSE	M5	1	09	A3	press
153.665	n/a	RESPONSE	M5	1	02	D3	release
153.987	n/a	RESPONSE	M5	1	00	C3	press
154.038	n/a	RESPONSE	M5	1	09	A3	release
154.369	n/a	RESPONSE	M5	1	00	C3	release
154.45	n/a	RESPONSE	M5	1	09	A3	press
154.472	n/a	RESPONSE	M5	1	21	A4	release
154.862	7.758	FIXCROSS	n/a	n/a	n/a	n/a	n/a
155.253	n/a	RESPONSE	M5	1	09	A3	release
162.62	6.325	CUE_LISTEN	M5	2	n/a	n/a	n/a
168.945	7.758	FIXCROSS	n/a	n/a	n/a	n/a	n/a
176.703	6.317	CUE_PLAYBACK_BOTH_HANDS	M5	2	n/a	n/a	n/a
177.188	n/a	RESPONSE	M5	2	07	G3	press
177.202	n/a	RESPONSE	M5	2	22	A#4	press
177.45	n/a	RESPONSE	M5	2	22	A#4	release
177.572	n/a	RESPONSE	M5	2	22	A#4	press
177.593	n/a	RESPONSE	M5	2	10	A#3	press
177.677	n/a	RESPONSE	M5	2	07	G3	release
177.767	n/a	RESPONSE	M5	2	10	A#3	release
177.847	n/a	RESPONSE	M5	2	22	A#4	release
177.91	n/a	RESPONSE	M5	2	04	E3	press
177.939	n/a	RESPONSE	M5	2	22	A#4	press
178.17	n/a	RESPONSE	M5	2	22	A#4	release
178.332	n/a	RESPONSE	M5	2	22	A#4	press
178.393	n/a	RESPONSE	M5	2	10	A#3	press
178.495	n/a	RESPONSE	M5	2	04	E3	release
178.575	n/a	RESPONSE	M5	2	22	A#4	release
178.607	n/a	RESPONSE	M5	2	10	A#3	release
178.72	n/a	RESPONSE	M5	2	22	A#4	press
178.723	n/a	RESPONSE	M5	2	05	F3	press
179.094	n/a	RESPONSE	M5	2	22	A#4	release
179.097	n/a	RESPONSE	M5	2	21	A4	press
179.112	n/a	RESPONSE	M5	2	09	A3	press
179.152	n/a	RESPONSE	M5	2	05	F3	release
179.278	n/a	RESPONSE	M5	2	21	A4	release
179.485	n/a	RESPONSE	M5	2	00	C3	press
179.488	n/a	RESPONSE	M5	2	21	A4	press
179.62	n/a	RESPONSE	M5	2	09	A3	release
179.652	n/a	RESPONSE	M5	2	21	A4	release
179.82	n/a	RESPONSE	M5	2	09	A3	press
179.852	n/a	RESPONSE	M5	2	21	A4	press
179.854	n/a	RESPONSE	M5	2	00	C3	release
180.075	n/a	RESPONSE	M5	2	21	A4	release
180.155	n/a	RESPONSE	M5	2	07	G3	press
180.178	n/a	RESPONSE	M5	2	19	G4	press
180.248	n/a	RESPONSE	M5	2	09	A3	release
180.39	n/a	RESPONSE	M5	2	19	G4	release
180.549	n/a	RESPONSE	M5	2	11	B3	press
180.578	n/a	RESPONSE	M5	2	07	G3	release
180.718	n/a	RESPONSE	M5	2	21	A4	press
181.077	n/a	RESPONSE	M5	2	21	A4	release
181.113	n/a	RESPONSE	M5	2	11	B3	release
181.407	n/a	RESPONSE	M5	2	00	C3	press
181.437	n/a	RESPONSE	M5	2	19	G4	press
181.89	n/a	RESPONSE	M5	2	07	G3	press
182.003	n/a	RESPONSE	M5	2	00	C3	release
182.225	n/a	RESPONSE	M5	2	19	G4	release
182.387	n/a	RESPONSE	M5	2	07	G3	release
182.418	n/a	RESPONSE	M5	2	04	E3	press
182.42	n/a	RESPONSE	M5	2	21	A4	press
182.82	n/a	RESPONSE	M5	2	21	A4	release
182.862	n/a	RESPONSE	M5	2	07	G3	press
182.903	n/a	RESPONSE	M5	2	04	E3	release
183.02	7.758	FIXCROSS	n/a	n/a	n/a	n/a	n/a
183.624	n/a	RESPONSE	M5	2	07	G3	release
190.778	6.317	CUE_LISTEN	M5	1	n/a	n/a	n/a
197.095	7.758	FIXCROSS	n/a	n/a	n/a	n/a	n/a
204.854	6.325	CUE_PLAYBACK_BOTH_HANDS	M5	1	n/a	n/a	n/a
205.33	n/a	RESPONSE	M5	1	21	A4	press
205.343	n/a	RESPONSE	M5	1	05	F3	press
205.573	n/a	RESPONSE	M5	1	21	A4	release
205.714	n/a	RESPONSE	M5	1	09	A3	press
205.717	n/a	RESPONSE	M5	1	21	A4	press
205.788	n/a	RESPONSE	M5	1	05	F3	release
205.968	n/a	RESPONSE	M5	1	21	A4	release
206.139	n/a	RESPONSE	M5	1	24	C5	press
206.18	n/a	RESPONSE	M5	1	09	A3	release
206.243	n/a	RESPONSE	M5	1	00	C3	press
206.363	n/a	RESPONSE	M5	1	21	A4	press
206.397	n/a	RESPONSE	M5	1	24	C5	release
206.467	n/a	RESPONSE	M5	1	21	A4	release
206.607	n/a	RESPONSE	M5	1	00	C3	release
207.108	n/a	RESPONSE	M5	1	05	F3	press
207.119	n/a	RESPONSE	M5	1	21	A4	press
207.43	n/a	RESPONSE	M5	1	24	C5	press
207.442	n/a	RESPONSE	M5	1	09	A3	press
207.455	n/a	RESPONSE	M5	1	21	A4	release
207.547	n/a	RESPONSE	M5	1	05	F3	release
207.805	n/a	RESPONSE	M5	1	04	E3	press
207.817	n/a	RESPONSE	M5	1	21	A4	press
207.829	n/a	RESPONSE	M5	1	24	C5	release
207.832	n/a	RESPONSE	M5	1	09	A3	release
208.11	n/a	RESPONSE	M5	1	09	A3	press
208.202	n/a	RESPONSE	M5	1	04	E3	release
208.283	n/a	RESPONSE	M5	1	21	A4	release
208.607	n/a	RESPONSE	M5	1	09	A3	release
208.945	n/a	RESPONSE	M5	1	02	D3	press
208.953	n/a	RESPONSE	M5	1	21	A4	press
209.175	n/a	RESPONSE	M5	1	21	A4	release
209.292	n/a	RESPONSE	M5	1	09	A3	press
209.294	n/a	RESPONSE	M5	1	02	D3	release
209.314	n/a	RESPONSE	M5	1	21	A4	press
209.53	n/a	RESPONSE	M5	1	21	A4	release
209.68	n/a	RESPONSE	M5	1	21	A4	press
209.687	n/a	RESPONSE	M5	1	00	C3	press
209.689	n/a	RESPONSE	M5	1	09	A3	release
209.977	n/a	RESPONSE	M5	1	09	A3	press
210.054	n/a	RESPONSE	M5	1	00	C3	release
210.147	n/a	RESPONSE	M5	1	21	A4	release
210.297	n/a	RESPONSE	M5	1	09	A3	release
210.319	n/a	RESPONSE	M5	1	05	F3	press
210.339	n/a	RESPONSE	M5	1	21	A4	press
210.609	n/a	RESPONSE	M5	1	09	A3	press
210.622	n/a	RESPONSE	M5	1	24	C5	press
210.65	n/a	RESPONSE	M5	1	05	F3	release
210.653	n/a	RESPONSE	M5	1	21	A4	release
210.942	n/a	RESPONSE	M5	1	17	F4	press
210.948	n/a	RESPONSE	M5	1	00	C3	press
211.017	n/a	RESPONSE	M5	1	09	A3	release
211.085	n/a	RESPONSE	M5	1	24	C5	release
211.178	7.758	FIXCROSS	n/a	n/a	n/a	n/a	n/a
211.24	n/a	RESPONSE	M5	1	09	A3	press
211.279	n/a	RESPONSE	M5	1	19	G4	press
211.307	n/a	RESPONSE	M5	1	00	C3	release
211.365	n/a	RESPONSE	M5	1	17	F4	release
211.543	n/a	RESPONSE	M5	1	21	A4	press
211.557	n/a	RESPONSE	M5	1	19	G4	release
211.597	n/a	RESPONSE	M5	1	04	E3	press
211.655	n/a	RESPONSE	M5	1	09	A3	release
211.877	n/a	RESPONSE	M5	1	09	A3	press
211.928	n/a	RESPONSE	M5	1	04	E3	release
212.205	n/a	RESPONSE	M5	1	00	C3	press
212.272	n/a	RESPONSE	M5	1	09	A3	release
212.484	n/a	RESPONSE	M5	1	09	A3	press
212.554	n/a	RESPONSE	M5	1	00	C3	release
212.745	n/a	RESPONSE	M5	1	21	A4	release
212.827	n/a	RESPONSE	M5	1	09	A3	release
218.937	6.317	CUE_LISTEN	M5	2	n/a	n/a	n/a
225.253	14.083	FIXCROSS	n/a	n/a	n/a	n/a	n/a
233.012	n/a	CUE_PLAYBACK_BOTH_HANDS	M4	2	n/a	n/a	n/a
233.473	n/a	RESPONSE	M5	2	22	A#4	press
233.524	n/a	RESPONSE	M5	2	07	G3	press
233.726	n/a	RESPONSE	M5	2	22	A#4	release
233.847	n/a	RESPONSE	M5	2	10	A#3	press
233.849	n/a	RESPONSE	M5	2	22	A#4	press
233.91	n/a	RESPONSE	M5	2	07	G3	release
234.07	n/a	RESPONSE	M5	2	22	A#4	release
234.214	n/a	RESPONSE	M5	2	10	A#3	release
234.223	n/a	RESPONSE	M5	2	22	A#4	press
234.264	n/a	RESPONSE	M5	2	04	E3	press
234.465	n/a	RESPONSE	M5	2	22	A#4	release
234.587	n/a	RESPONSE	M5	2	10	A#3	press
234.61	n/a	RESPONSE	M5	2	22	A#4	press
234.649	n/a	RESPONSE	M5	2	04	E3	release
234.87	n/a	RESPONSE	M5	2	22	A#4	release
234.902	n/a	RESPONSE	M5	2	10	A#3	release
234.983	n/a	RESPONSE	M5	2	22	A#4	press
235.074	n/a	RESPONSE	M5	2	05	F3	press
235.375	n/a	RESPONSE	M5	2	22	A#4	release
235.419	n/a	RESPONSE	M5	2	09	A3	press
235.428	n/a	RESPONSE	M5	2	21	A4	press
235.489	n/a	RESPONSE	M5	2	05	F3	release
235.623	n/a	RESPONSE	M5	2	21	A4	release
235.862	n/a	RESPONSE	M5	2	00	C3	press
235.864	n/a	RESPONSE	M5	2	21	A4	press
235.944	n/a	RESPONSE	M5	2	09	A3	release
236.075	n/a	RESPONSE	M5	2	21	A4	release
236.179	n/a	RESPONSE	M5	2	00	C3	release
236.23	n/a	RESPONSE	M5	2	09	A3	press
236.269	n/a	RESPONSE	M5	2	21	A4	press
236.472	n/a	RESPONSE	M5	2	21	A4	release
236.512	n/a	RESPONSE	M5	2	09	A3	release
236.665	n/a	RESPONSE	M5	2	00	C3	press
236.684	n/a	RESPONSE	M5	2	24	C5	press
236.908	n/a	RESPONSE	M5	2	24	C5	release
237.057	n/a	RESPONSE	M5	2	24	C5	press
237.3	n/a	RESPONSE	M5	2	24	C5	release
237.452	n/a	RESPONSE	M5	2	00	C3	release
237.48	n/a	RESPONSE	M5	2	07	G3	press
237.492	n/a	RESPONSE	M5	2	22	A#4	press
237.913	n/a	RESPONSE	M5	2	21	A4	press
237.915	n/a	RESPONSE	M5	2	04	E3	press
238.015	n/a	RESPONSE	M5	2	07	G3	release
238.027	n/a	RESPONSE	M5	2	22	A#4	release
238.328	n/a	RESPONSE	M5	2	19	G4	press
238.359	n/a	RESPONSE	M5	2	05	F3	press
238.362	n/a	RESPONSE	M5	2	04	E3	release
238.364	n/a	RESPONSE	M5	2	21	A4	release
238.74	n/a	RESPONSE	M5	2	19	G4	release
238.824	n/a	RESPONSE	M5	2	17	F4	press
238.868	n/a	RESPONSE	M5	2	09	A3	press
238.948	n/a	RESPONSE	M5	2	05	F3	release
239.337	7.758	FIXCROSS	n/a	n/a	n/a	n/a	n/a
239.875	n/a	RESPONSE	M5	2	17	F4	release
239.913	n/a	RESPONSE	M5	2	09	A3	release
247.095	6.317	CUE_LISTEN	M2	1	n/a	n/a	n/a
253.412	7.758	FIXCROSS	n/a	n/a	n/a	n/a	n/a
261.17	6.317	CUE_PLAYBACK_RIGHT_HAND	M2	1	n/a	n/a	n/a
261.753	n/a	RESPONSE	M2	1	24	C5	press
262.239	n/a	RESPONSE	M2	1	19	G4	press
262.273	n/a	RESPONSE	M2	1	24	C5	release
262.472	n/a	RESPONSE	M2	1	19	G4	release
262.733	n/a	RESPONSE	M2	1	19	G4	press
263.174	n/a	RESPONSE	M2	1	17	F4	press
263.206	n/a	RESPONSE	M2	1	19	G4	release
263.617	n/a	RESPONSE	M2	1	16	E4	press
264.118	n/a	RESPONSE	M2	1	16	E4	release
264.559	n/a	RESPONSE	M2	1	19	G4	press
264.58	n/a	RESPONSE	M2	1	17	F4	release
265.372	n/a	RESPONSE	M2	1	19	G4	release
267.487	7.758	FIXCROSS	n/a	n/a	n/a	n/a	n/a
275.245	6.317	CUE_LISTEN	M2	2	n/a	n/a	n/a
281.562	7.758	FIXCROSS	n/a	n/a	n/a	n/a	n/a
289.32	6.325	CUE_PLAYBACK_RIGHT_HAND	M2	2	n/a	n/a	n/a
289.946	n/a	RESPONSE	M2	2	24	C5	press
290.733	n/a	RESPONSE	M2	2	19	G4	press
290.736	n/a	RESPONSE	M2	2	24	C5	release
290.945	n/a	RESPONSE	M2	2	19	G4	release
291.143	n/a	RESPONSE	M2	2	17	F4	press
291.265	n/a	RESPONSE	M2	2	17	F4	release
291.62	n/a	RESPONSE	M2	2	19	G4	press
291.633	n/a	RESPONSE	M2	2	17	F4	press
291.883	n/a	RESPONSE	M2	2	17	F4	release
292.09	n/a	RESPONSE	M2	2	19	G4	release
292.191	n/a	RESPONSE	M2	2	17	F4	press
292.636	n/a	RESPONSE	M2	2	16	E4	press
292.646	n/a	RESPONSE	M2	2	17	F4	release
293.056	n/a	RESPONSE	M2	2	14	D4	press
293.187	n/a	RESPONSE	M2	2	16	E4	release
293.48	n/a	RESPONSE	M2	2	12	C4	press
293.529	n/a	RESPONSE	M2	2	14	D4	release
294.712	n/a	RESPONSE	M2	2	12	C4	release
295.645	7.758	FIXCROSS	n/a	n/a	n/a	n/a	n/a
303.404	6.317	CUE_LISTEN	M2	1	n/a	n/a	n/a
309.72	7.758	FIXCROSS	n/a	n/a	n/a	n/a	n/a
317.479	6.325	CUE_PLAYBACK_RIGHT_HAND	M2	1	n/a	n/a	n/a
317.96	n/a	RESPONSE	M2	1	12	C4	press
318.443	n/a	RESPONSE	M2	1	14	D4	press
318.542	n/a	RESPONSE	M2	1	12	C4	release
318.976	n/a	RESPONSE	M2	1	16	E4	press
319.02	n/a	RESPONSE	M2	1	14	D4	release
319.42	n/a	RESPONSE	M2	1	14	D4	press
319.448	n/a	RESPONSE	M2	1	16	E4	release
319.898	n/a	RESPONSE	M2	1	16	E4	press
319.939	n/a	RESPONSE	M2	1	14	D4	release
320.323	n/a	RESPONSE	M2	1	17	F4	press
320.388	n/a	RESPONSE	M2	1	16	E4	release
320.817	n/a	RESPONSE	M2	1	19	G4	press
320.863	n/a	RESPONSE	M2	1	17	F4	release
321.699	n/a	RESPONSE	M2	1	19	G4	release
323.804	7.758	FIXCROSS	n/a	n/a	n/a	n/a	n/a
331.562	6.317	CUE_LISTEN	M2	2	n/a	n/a	n/a
337.879	7.759	FIXCROSS	n/a	n/a	n/a	n/a	n/a
345.637	6.317	CUE_PLAYBACK_RIGHT_HAND	M2	2	n/a	n/a	n/a
346.16	n/a	RESPONSE	M2	2	16	E4	press
346.644	n/a	RESPONSE	M2	2	19	G4	press
346.663	n/a	RESPONSE	M2	2	16	E4	release
346.894	n/a	RESPONSE	M2	2	19	G4	release
347.107	n/a	RESPONSE	M2	2	19	G4	press
347.597	n/a	RESPONSE	M2	2	17	F4	press
347.618	n/a	RESPONSE	M2	2	19	G4	release
348.06	n/a	RESPONSE	M2	2	16	E4	press
348.08	n/a	RESPONSE	M2	2	17	F4	release
348.532	n/a	RESPONSE	M2	2	14	D4	press
348.544	n/a	RESPONSE	M2	2	16	E4	release
349.343	n/a	RESPONSE	M2	2	12	C4	press
349.438	n/a	RESPONSE	M2	2	14	D4	release
350.5	n/a	RESPONSE	M2	2	12	C4	release
351.954	7.758	FIXCROSS	n/a	n/a	n/a	n/a	n/a
359.712	6.325	CUE_LISTEN	M3	1	n/a	n/a	n/a
366.037	7.758	FIXCROSS	n/a	n/a	n/a	n/a	n/a
373.796	6.317	CUE_PLAYBACK_BOTH_HANDS	M3	1	n/a	n/a	n/a
374.466	n/a	RESPONSE	M3	1	00	C3	press
374.487	n/a	RESPONSE	M3	1	12	C4	press
374.998	n/a	RESPONSE	M3	1	07	G3	press
375.009	n/a	RESPONSE	M3	1	14	D4	press
375.102	n/a	RESPONSE	M3	1	00	C3	release
375.122	n/a	RESPONSE	M3	1	12	C4	release
375.483	n/a	RESPONSE	M3	1	16	E4	press
375.506	n/a	RESPONSE	M3	1	04	E3	press
375.526	n/a	RESPONSE	M3	1	14	D4	release
375.607	n/a	RESPONSE	M3	1	07	G3	release
375.998	n/a	RESPONSE	M3	1	07	G3	press
376.019	n/a	RESPONSE	M3	1	12	C4	press
376.071	n/a	RESPONSE	M3	1	04	E3	release
376.102	n/a	RESPONSE	M3	1	16	E4	release
376.333	n/a	RESPONSE	M3	1	12	C4	release
376.337	n/a	RESPONSE	M3	1	07	G3	release
376.498	n/a	RESPONSE	M3	1	00	C3	press
376.507	n/a	RESPONSE	M3	1	12	C4	press
377.008	n/a	RESPONSE	M3	1	07	G3	press
377.01	n/a	RESPONSE	M3	1	14	D4	press
377.083	n/a	RESPONSE	M3	1	00	C3	release
377.092	n/a	RESPONSE	M3	1	12	C4	release
377.523	n/a	RESPONSE	M3	1	04	E3	press
377.526	n/a	RESPONSE	M3	1	16	E4	press
377.567	n/a	RESPONSE	M3	1	14	D4	release
377.617	n/a	RESPONSE	M3	1	07	G3	release
377.968	n/a	RESPONSE	M3	1	07	G3	press
377.999	n/a	RESPONSE	M3	1	12	C4	press
378.03	n/a	RESPONSE	M3	1	04	E3	release
378.112	n/a	RESPONSE	M3	1	16	E4	release
378.483	n/a	RESPONSE	M3	1	12	C4	release
378.514	n/a	RESPONSE	M3	1	07	G3	release
380.112	7.758	FIXCROSS	n/a	n/a	n/a	n/a	n/a
387.871	6.317	CUE_LISTEN	M3	2	n/a	n/a	n/a
394.187	7.758	FIXCROSS	n/a	n/a	n/a	n/a	n/a
401.946	6.325	CUE_PLAYBACK_BOTH_HANDS	M3	2	n/a	n/a	n/a
402.54	n/a	RESPONSE	M3	2	00	C3	press
402.73	n/a	RESPONSE	M3	2	00	C3	release
402.91	n/a	RESPONSE	M3	2	16	E4	press
402.924	n/a	RESPONSE	M3	2	00	C3	press
403.473	n/a	RESPONSE	M3	2	07	G3	press
403.494	n/a	RESPONSE	M3	2	17	F4	press
403.546	n/a	RESPONSE	M3	2	16	E4	release
403.717	n/a	RESPONSE	M3	2	00	C3	release
403.968	n/a	RESPONSE	M3	2	19	G4	press
403.97	n/a	RESPONSE	M3	2	02	D3	press
404.02	n/a	RESPONSE	M3	2	17	F4	release
404.062	n/a	RESPONSE	M3	2	07	G3	release
404.504	n/a	RESPONSE	M3	2	07	G3	press
404.564	n/a	RESPONSE	M3	2	02	D3	release
404.896	n/a	RESPONSE	M3	2	19	G4	release
404.927	n/a	RESPONSE	M3	2	07	G3	release
405.068	n/a	RESPONSE	M3	2	00	C3	press
405.082	n/a	RESPONSE	M3	2	16	E4	press
405.731	n/a	RESPONSE	M3	2	17	F4	press
405.733	n/a	RESPONSE	M3	2	07	G3	press
405.786	n/a	RESPONSE	M3	2	16	E4	release
405.874	n/a	RESPONSE	M3	2	00	C3	release
406.186	n/a	RESPONSE	M3	2	19	G4	press
406.188	n/a	RESPONSE	M3	2	04	E3	press
406.218	n/a	RESPONSE	M3	2	17	F4	release
406.289	n/a	RESPONSE	M3	2	07	G3	release
406.72	n/a	RESPONSE	M3	2	07	G3	press
406.804	n/a	RESPONSE	M3	2	04	E3	release
407.174	n/a	RESPONSE	M3	2	19	G4	release
407.424	n/a	RESPONSE	M3	2	07	G3	release
408.271	7.758	FIXCROSS	n/a	n/a	n/a	n/a	n/a
416.029	6.317	CUE_LISTEN	M3	1	n/a	n/a	n/a
422.346	7.758	FIXCROSS	n/a	n/a	n/a	n/a	n/a
430.104	6.317	CUE_PLAYBACK_BOTH_HANDS	M3	1	n/a	n/a	n/a
430.771	n/a	RESPONSE	M3	1	00	C3	press
430.779	n/a	RESPONSE	M3	1	19	G4	press
431.088	n/a	RESPONSE	M3	1	21	A4	press
431.108	n/a	RESPONSE	M3	1	07	G3	press
431.152	n/a	RESPONSE	M3	1	19	G4	release
431.364	n/a	RESPONSE	M3	1	00	C3	release
431.411	n/a	RESPONSE	M3	1	21	A4	release
431.682	n/a	RESPONSE	M3	1	07	G3	release
432.167	n/a	RESPONSE	M3	1	00	C3	press
432.179	n/a	RESPONSE	M3	1	19	G4	press
432.506	n/a	RESPONSE	M3	1	21	A4	press
432.584	n/a	RESPONSE	M3	1	19	G4	release
432.826	n/a	RESPONSE	M3	1	19	G4	press
432.828	n/a	RESPONSE	M3	1	07	G3	press
432.878	n/a	RESPONSE	M3	1	21	A4	release
432.892	n/a	RESPONSE	M3	1	00	C3	release
433.132	n/a	RESPONSE	M3	1	17	F4	press
433.202	n/a	RESPONSE	M3	1	19	G4	release
433.226	n/a	RESPONSE	M3	1	04	E3	press
433.494	n/a	RESPONSE	M3	1	16	E4	press
433.517	n/a	RESPONSE	M3	1	07	G3	release
433.587	n/a	RESPONSE	M3	1	17	F4	release
434.138	n/a	RESPONSE	M3	1	12	C4	press
434.149	n/a	RESPONSE	M3	1	07	G3	press
434.16	n/a	RESPONSE	M3	1	14	D4	press
434.212	n/a	RESPONSE	M3	1	16	E4	release
434.236	n/a	RESPONSE	M3	1	04	E3	release
434.504	n/a	RESPONSE	M3	1	14	D4	release
434.526	n/a	RESPONSE	M3	1	12	C4	release
434.577	n/a	RESPONSE	M3	1	07	G3	release
434.798	n/a	RESPONSE	M3	1	00	C3	press
434.809	n/a	RESPONSE	M3	1	19	G4	press
435.071	n/a	RESPONSE	M3	1	21	A4	press
435.102	n/a	RESPONSE	M3	1	19	G4	release
435.436	n/a	RESPONSE	M3	1	07	G3	press
435.444	n/a	RESPONSE	M3	1	19	G4	press
435.476	n/a	RESPONSE	M3	1	21	A4	release
435.539	n/a	RESPONSE	M3	1	00	C3	release
435.798	n/a	RESPONSE	M3	1	17	F4	press
435.829	n/a	RESPONSE	M3	1	19	G4	release
436.092	n/a	RESPONSE	M3	1	04	E3	press
436.112	n/a	RESPONSE	M3	1	16	E4	press
436.153	n/a	RESPONSE	M3	1	07	G3	release
436.214	n/a	RESPONSE	M3	1	17	F4	release
436.421	7.758	FIXCROSS	n/a	n/a	n/a	n/a	n/a
436.716	n/a	RESPONSE	M3	1	07	G3	press
436.718	n/a	RESPONSE	M3	1	12	C4	press
436.788	n/a	RESPONSE	M3	1	16	E4	release
436.79	n/a	RESPONSE	M3	1	04	E3	release
437.27	n/a	RESPONSE	M3	1	12	C4	release
437.322	n/a	RESPONSE	M3	1	07	G3	release
444.179	6.325	CUE_LISTEN	M3	2	n/a	n/a	n/a
450.504	7.758	FIXCROSS	n/a	n/a	n/a	n/a	n/a
458.262	6.317	CUE_PLAYBACK_BOTH_HANDS	M3	2	n/a	n/a	n/a
458.759	n/a	RESPONSE	M3	2	00	C3	press
458.806	n/a	RESPONSE	M3	2	12	C4	press
459.307	n/a	RESPONSE	M3	2	07	G3	press
459.388	n/a	RESPONSE	M3	2	00	C3	release
459.683	n/a	RESPONSE	M3	2	12	C4	release
459.772	n/a	RESPONSE	M3	2	07	G3	release
459.848	n/a	RESPONSE	M3	2	00	C3	press
459.859	n/a	RESPONSE	M3	2	12	C4	press
460.514	n/a	RESPONSE	M3	2	00	C3	release
460.517	n/a	RESPONSE	M3	2	12	C4	release
460.787	n/a	RESPONSE	M3	2	00	C3	press
460.801	n/a	RESPONSE	M3	2	12	C4	press
461.321	n/a	RESPONSE	M3	2	07	G3	press
461.387	n/a	RESPONSE	M3	2	00	C3	release
461.731	n/a	RESPONSE	M3	2	12	C4	release
461.759	n/a	RESPONSE	M3	2	07	G3	release
461.84	n/a	RESPONSE	M3	2	00	C3	press
461.853	n/a	RESPONSE	M3	2	12	C4	press
462.839	n/a	RESPONSE	M3	2	00	C3	release
462.858	n/a	RESPONSE	M3	2	12	C4	release
464.579	7.758	FIXCROSS	n/a	n/a	n/a	n/a	n/a
472.338	6.325	CUE_LISTEN	M5	1	n/a	n/a	n/a
477.263	n/a	RESPONSE	M5	1	24	C5	press
478.232	n/a	RESPONSE	M5	1	24	C5	release
478.662	7.758	FIXCROSS	n/a	n/a	n/a	n/a	n/a
486.421	6.317	CUE_PLAYBACK_RIGHT_HAND	M5	1	n/a	n/a	n/a
486.842	n/a	RESPONSE	M5	1	21	A4	press
486.983	n/a	RESPONSE	M5	1	21	A4	release
487.104	n/a	RESPONSE	M5	1	21	A4	press
487.256	n/a	RESPONSE	M5	1	21	A4	release
487.348	n/a	RESPONSE	M5	1	21	A4	press
487.708	n/a	RESPONSE	M5	1	21	A4	release
487.879	n/a	RESPONSE	M5	1	21	A4	press
488.052	n/a	RESPONSE	M5	1	21	A4	release
488.182	n/a	RESPONSE	M5	1	21	A4	press
488.313	n/a	RESPONSE	M5	1	21	A4	release
488.436	n/a	RESPONSE	M5	1	21	A4	press
488.748	n/a	RESPONSE	M5	1	21	A4	release
488.954	n/a	RESPONSE	M5	1	21	A4	press
489.334	n/a	RESPONSE	M5	1	21	A4	release
489.386	n/a	RESPONSE	M5	1	24	C5	press
489.752	n/a	RESPONSE	M5	1	16	E4	press
489.913	n/a	RESPONSE	M5	1	24	C5	release
490.131	n/a	RESPONSE	M5	1	17	F4	press
490.137	n/a	RESPONSE	M5	1	19	G4	press
490.156	n/a	RESPONSE	M5	1	16	E4	release
490.356	n/a	RESPONSE	M5	1	17	F4	release
490.574	n/a	RESPONSE	M5	1	21	A4	press
490.591	n/a	RESPONSE	M5	1	19	G4	release
491.647	n/a	RESPONSE	M5	1	21	A4	release
492.738	7.758	FIXCROSS	n/a	n/a	n/a	n/a	n/a
500.496	6.317	CUE_LISTEN	M5	2	n/a	n/a	n/a
506.812	7.758	FIXCROSS	n/a	n/a	n/a	n/a	n/a
514.571	6.325	CUE_PLAYBACK_RIGHT_HAND	M5	2	n/a	n/a	n/a
514.957	n/a	RESPONSE	M5	2	22	A#4	press
515.186	n/a	RESPONSE	M5	2	22	A#4	release
515.257	n/a	RESPONSE	M5	2	22	A#4	press
515.431	n/a	RESPONSE	M5	2	22	A#4	release
515.529	n/a	RESPONSE	M5	2	22	A#4	press
515.731	n/a	RESPONSE	M5	2	22	A#4	release
515.852	n/a	RESPONSE	M5	2	22	A#4	press
516.023	n/a	RESPONSE	M5	2	22	A#4	release
516.174	n/a	RESPONSE	M5	2	22	A#4	press
516.467	n/a	RESPONSE	M5	2	21	A4	press
516.477	n/a	RESPONSE	M5	2	22	A#4	release
516.651	n/a	RESPONSE	M5	2	21	A4	release
516.821	n/a	RESPONSE	M5	2	21	A4	press
516.972	n/a	RESPONSE	M5	2	21	A4	release
517.163	n/a	RESPONSE	M5	2	21	A4	press
517.424	n/a	RESPONSE	M5	2	21	A4	release
517.546	n/a	RESPONSE	M5	2	19	G4	press
517.729	n/a	RESPONSE	M5	2	19	G4	release
517.898	n/a	RESPONSE	M5	2	19	G4	press
518.239	n/a	RESPONSE	M5	2	21	A4	press
518.242	n/a	RESPONSE	M5	2	19	G4	release
518.592	n/a	RESPONSE	M5	2	19	G4	press
518.628	n/a	RESPONSE	M5	2	21	A4	release
519.211	n/a	RESPONSE	M5	2	19	G4	release
519.214	n/a	RESPONSE	M5	2	24	C5	press
520.476	n/a	RESPONSE	M5	2	24	C5	release
520.896	7.758	FIXCROSS	n/a	n/a	n/a	n/a	n/a
528.654	6.317	CUE_LISTEN	M5	1	n/a	n/a	n/a
534.971	7.758	FIXCROSS	n/a	n/a	n/a	n/a	n/a
542.729	6.317	CUE_PLAYBACK_RIGHT_HAND	M5	1	n/a	n/a	n/a
543.598	n/a	RESPONSE	M5	1	21	A4	press
543.769	n/a	RESPONSE	M5	1	21	A4	release
543.871	n/a	RESPONSE	M5	1	21	A4	press
544.052	n/a	RESPONSE	M5	1	21	A4	release
544.163	n/a	RESPONSE	M5	1	21	A4	press
544.494	n/a	RESPONSE	M5	1	21	A4	release
544.657	n/a	RESPONSE	M5	1	21	A4	press
544.848	n/a	RESPONSE	M5	1	21	A4	release
544.988	n/a	RESPONSE	M5	1	21	A4	press
545.139	n/a	RESPONSE	M5	1	21	A4	release
545.263	n/a	RESPONSE	M5	1	21	A4	press
545.583	n/a	RESPONSE	M5	1	21	A4	release
545.823	n/a	RESPONSE	M5	1	21	A4	press
546.056	n/a	RESPONSE	M5	1	24	C5	press
546.126	n/a	RESPONSE	M5	1	21	A4	release
546.377	n/a	RESPONSE	M5	1	17	F4	press
546.498	n/a	RESPONSE	M5	1	24	C5	release
546.682	n/a	RESPONSE	M5	1	19	G4	press
546.811	n/a	RESPONSE	M5	1	17	F4	release
546.952	n/a	RESPONSE	M5	1	21	A4	press
546.983	n/a	RESPONSE	M5	1	19	G4	release
548.504	n/a	RESPONSE	M5	1	21	A4	release
549.046	7.758	FIXCROSS	n/a	n/a	n/a	n/a	n/a
556.804	6.325	CUE_LISTEN	M5	2	n/a	n/a	n/a
563.129	7.758	FIXCROSS	n/a	n/a	n/a	n/a	n/a
570.888	6.317	CUE_PLAYBACK_RIGHT_HAND	M5	2	n/a	n/a	n/a
571.159	n/a	RESPONSE	M5	2	22	A#4	press
571.344	n/a	RESPONSE	M5	2	22	A#4	release
571.429	n/a	RESPONSE	M5	2	22	A#4	press
571.563	n/a	RESPONSE	M5	2	22	A#4	release
571.676	n/a	RESPONSE	M5	2	22	A#4	press
571.827	n/a	RESPONSE	M5	2	22	A#4	release
571.929	n/a	RESPONSE	M5	2	22	A#4	press
572.124	n/a	RESPONSE	M5	2	22	A#4	release
572.241	n/a	RESPONSE	M5	2	22	A#4	press
572.431	n/a	RESPONSE	M5	2	22	A#4	release
572.572	n/a	RESPONSE	M5	2	22	A#4	press
572.893	n/a	RESPONSE	M5	2	22	A#4	release
572.974	n/a	RESPONSE	M5	2	21	A4	press
573.138	n/a	RESPONSE	M5	2	21	A4	release
573.237	n/a	RESPONSE	M5	2	21	A4	press
573.388	n/a	RESPONSE	M5	2	21	A4	release
573.559	n/a	RESPONSE	M5	2	21	A4	press
573.791	n/a	RESPONSE	M5	2	21	A4	release
574.063	n/a	RESPONSE	M5	2	24	C5	press
574.253	n/a	RESPONSE	M5	2	24	C5	release
574.347	n/a	RESPONSE	M5	2	24	C5	press
574.586	n/a	RESPONSE	M5	2	24	C5	release
574.857	n/a	RESPONSE	M5	2	22	A#4	press
575.198	n/a	RESPONSE	M5	2	21	A4	press
575.439	n/a	RESPONSE	M5	2	22	A#4	release
575.601	n/a	RESPONSE	M5	2	21	A4	release
575.612	n/a	RESPONSE	M5	2	19	G4	press
575.973	n/a	RESPONSE	M5	2	17	F4	press
576.004	n/a	RESPONSE	M5	2	19	G4	release
577.204	7.758	FIXCROSS	n/a	n/a	n/a	n/a	n/a
577.376	n/a	RESPONSE	M5	2	17	F4	release
584.963	6.317	CUE_LISTEN	M1	1	n/a	n/a	n/a
591.279	7.758	FIXCROSS	n/a	n/a	n/a	n/a	n/a
599.038	6.325	CUE_PLAYBACK_BOTH_HANDS	M1	1	n/a	n/a	n/a
600.033	n/a	RESPONSE	M1	1	19	G4	press
600.053	n/a	RESPONSE	M1	1	04	E3	press
600.068	n/a	RESPONSE	M1	1	00	C3	press
600.072	n/a	RESPONSE	M1	1	07	G3	press
600.534	n/a	RESPONSE	M1	1	16	E4	press
600.604	n/a	RESPONSE	M1	1	19	G4	release
600.817	n/a	RESPONSE	M1	1	16	E4	release
600.999	n/a	RESPONSE	M1	1	16	E4	press
601.184	n/a	RESPONSE	M1	1	04	E3	release
601.187	n/a	RESPONSE	M1	1	00	C3	release
601.207	n/a	RESPONSE	M1	1	16	E4	release
601.466	n/a	RESPONSE	M1	1	17	F4	press
601.469	n/a	RESPONSE	M1	1	02	D3	press
601.492	n/a	RESPONSE	M1	1	05	F3	press
601.972	n/a	RESPONSE	M1	1	14	D4	press
601.976	n/a	RESPONSE	M1	1	17	F4	release
602.199	n/a	RESPONSE	M1	1	14	D4	release
602.476	n/a	RESPONSE	M1	1	14	D4	press
602.667	n/a	RESPONSE	M1	1	02	D3	release
602.711	n/a	RESPONSE	M1	1	14	D4	release
602.729	n/a	RESPONSE	M1	1	05	F3	release
602.783	n/a	RESPONSE	M1	1	07	G3	release
602.972	n/a	RESPONSE	M1	1	12	C4	press
602.974	n/a	RESPONSE	M1	1	04	E3	press
602.977	n/a	RESPONSE	M1	1	07	G3	press
602.996	n/a	RESPONSE	M1	1	00	C3	press
603.257	n/a	RESPONSE	M1	1	16	E4	press
603.368	n/a	RESPONSE	M1	1	12	C4	release
603.459	n/a	RESPONSE	M1	1	19	G4	press
603.541	n/a	RESPONSE	M1	1	16	E4	release
604.542	n/a	RESPONSE	M1	1	19	G4	release
604.663	n/a	RESPONSE	M1	1	04	E3	release
604.704	n/a	RESPONSE	M1	1	07	G3	release
604.816	n/a	RESPONSE	M1	1	00	C3	release
605.363	7.759	FIXCROSS	n/a	n/a	n/a	n/a	n/a
613.121	6.317	CUE_LISTEN	M1	2	n/a	n/a	n/a
619.438	7.758	FIXCROSS	n/a	n/a	n/a	n/a	n/a
627.196	6.317	CUE_PLAYBACK_BOTH_HANDS	M1	2	n/a	n/a	n/a
627.782	n/a	RESPONSE	M1	2	19	G4	press
627.802	n/a	RESPONSE	M1	2	04	E3	press
627.823	n/a	RESPONSE	M1	2	00	C3	press
627.854	n/a	RESPONSE	M1	2	07	G3	press
628.346	n/a	RESPONSE	M1	2	16	E4	press
628.417	n/a	RESPONSE	M1	2	19	G4	release
628.568	n/a	RESPONSE	M1	2	16	E4	release
628.799	n/a	RESPONSE	M1	2	16	E4	press
629.006	n/a	RESPONSE	M1	2	16	E4	release
629.008	n/a	RESPONSE	M1	2	00	C3	release
629.016	n/a	RESPONSE	M1	2	04	E3	release
629.109	n/a	RESPONSE	M1	2	07	G3	release
629.252	n/a	RESPONSE	M1	2	17	F4	press
629.254	n/a	RESPONSE	M1	2	07	G3	press
629.257	n/a	RESPONSE	M1	2	02	D3	press
629.299	n/a	RESPONSE	M1	2	05	F3	press
629.738	n/a	RESPONSE	M1	2	14	D4	press
629.749	n/a	RESPONSE	M1	2	17	F4	release
630.003	n/a	RESPONSE	M1	2	14	D4	release
630.188	n/a	RESPONSE	M1	2	14	D4	press
630.434	n/a	RESPONSE	M1	2	02	D3	release
630.442	n/a	RESPONSE	M1	2	14	D4	release
630.479	n/a	RESPONSE	M1	2	05	F3	release
630.494	n/a	RESPONSE	M1	2	07	G3	release
630.654	n/a	RESPONSE	M1	2	04	E3	press
630.662	n/a	RESPONSE	M1	2	00	C3	press
630.664	n/a	RESPONSE	M1	2	07	G3	press
630.678	n/a	RESPONSE	M1	2	11	B3	press
630.681	n/a	RESPONSE	M1	2	12	C4	press
630.907	n/a	RESPONSE	M1	2	11	B3	release
630.949	n/a	RESPONSE	M1	2	16	E4	press
630.968	n/a	RESPONSE	M1	2	15	D#4	press
631.174	n/a	RESPONSE	M1	2	12	C4	release
631.193	n/a	RESPONSE	M1	2	15	D#4	release
631.208	n/a	RESPONSE	M1	2	12	C4	press
631.251	n/a	RESPONSE	M1	2	16	E4	release
632.588	n/a	RESPONSE	M1	2	00	C3	release
632.639	n/a	RESPONSE	M1	2	04	E3	release
632.683	n/a	RESPONSE	M1	2	12	C4	release
632.832	n/a	RESPONSE	M1	2	07	G3	release
633.513	7.758	FIXCROSS	n/a	n/a	n/a	n/a	n/a
641.271	6.325	CUE_LISTEN	M4	1	n/a	n/a	n/a
647.596	7.758	FIXCROSS	n/a	n/a	n/a	n/a	n/a
655.355	6.317	CUE_PLAYBACK_RIGHT_HAND	M4	1	n/a	n/a	n/a
655.754	n/a	RESPONSE	M4	1	12	C4	press
655.994	n/a	RESPONSE	M4	1	17	F4	press
656.079	n/a	RESPONSE	M4	1	12	C4	release
656.338	n/a	RESPONSE	M4	1	21	A4	press
656.401	n/a	RESPONSE	M4	1	17	F4	release
656.622	n/a	RESPONSE	M4	1	19	G4	press
656.762	n/a	RESPONSE	M4	1	21	A4	release
656.933	n/a	RESPONSE	M4	1	17	F4	press
656.964	n/a	RESPONSE	M4	1	19	G4	release
657.196	n/a	RESPONSE	M4	1	16	E4	press
657.248	n/a	RESPONSE	M4	1	17	F4	release
657.471	n/a	RESPONSE	M4	1	17	F4	press
657.509	n/a	RESPONSE	M4	1	16	E4	release
657.941	n/a	RESPONSE	M4	1	17	F4	release
658.112	n/a	RESPONSE	M4	1	12	C4	press
658.373	n/a	RESPONSE	M4	1	17	F4	press
658.404	n/a	RESPONSE	M4	1	12	C4	release
658.699	n/a	RESPONSE	M4	1	21	A4	press
658.724	n/a	RESPONSE	M4	1	17	F4	release
659.041	n/a	RESPONSE	M4	1	19	G4	press
659.141	n/a	RESPONSE	M4	1	21	A4	release
659.363	n/a	RESPONSE	M4	1	17	F4	press
659.443	n/a	RESPONSE	M4	1	19	G4	release
659.656	n/a	RESPONSE	M4	1	16	E4	press
659.724	n/a	RESPONSE	M4	1	17	F4	release
659.983	n/a	RESPONSE	M4	1	17	F4	press
660.017	n/a	RESPONSE	M4	1	16	E4	release
660.692	n/a	RESPONSE	M4	1	17	F4	release
661.671	7.758	FIXCROSS	n/a	n/a	n/a	n/a	n/a
669.43	6.317	CUE_LISTEN	M4	2	n/a	n/a	n/a
675.746	7.758	FIXCROSS	n/a	n/a	n/a	n/a	n/a
683.505	6.325	CUE_PLAYBACK_RIGHT_HAND	M4	2	n/a	n/a	n/a
684.007	n/a	RESPONSE	M4	2	12	C4	press
684.269	n/a	RESPONSE	M4	2	17	F4	press
684.329	n/a	RESPONSE	M4	2	12	C4	release
684.661	n/a	RESPONSE	M4	2	21	A4	press
684.772	n/a	RESPONSE	M4	2	17	F4	release
684.973	n/a	RESPONSE	M4	2	24	C5	press
685.054	n/a	RESPONSE	M4	2	21	A4	release
685.696	n/a	RESPONSE	M4	2	22	A#4	press
685.957	n/a	RESPONSE	M4	2	24	C5	release
686.029	n/a	RESPONSE	M4	2	20	G#4	press
686.072	n/a	RESPONSE	M4	2	21	A4	press
686.101	n/a	RESPONSE	M4	2	20	G#4	release
686.202	n/a	RESPONSE	M4	2	22	A#4	release
686.346	n/a	RESPONSE	M4	2	19	G4	press
686.514	n/a	RESPONSE	M4	2	21	A4	release
686.836	n/a	RESPONSE	M4	2	19	G4	release
687.067	n/a	RESPONSE	M4	2	14	D4	press
687.449	n/a	RESPONSE	M4	2	14	D4	release
687.619	n/a	RESPONSE	M4	2	12	C4	press
689.146	n/a	RESPONSE	M4	2	16	E4	press
689.239	n/a	RESPONSE	M4	2	12	C4	release
689.536	n/a	RESPONSE	M4	2	19	G4	press
689.597	n/a	RESPONSE	M4	2	16	E4	release
689.83	7.759	FIXCROSS	n/a	n/a	n/a	n/a	n/a
690.157	n/a	RESPONSE	M4	2	22	A#4	press
690.243	n/a	RESPONSE	M4	2	19	G4	release
690.572	n/a	RESPONSE	M4	2	21	A4	press
690.659	n/a	RESPONSE	M4	2	22	A#4	release
690.914	n/a	RESPONSE	M4	2	19	G4	press
691.089	n/a	RESPONSE	M4	2	21	A4	release
691.287	n/a	RESPONSE	M4	2	17	F4	press
691.374	n/a	RESPONSE	M4	2	19	G4	release
692.576	n/a	RESPONSE	M4	2	17	F4	release
697.588	6.317	CUE_LISTEN	M2	1	n/a	n/a	n/a
701.478	n/a	RESPONSE	M2	1	24	C5	press
702.026	n/a	RESPONSE	M2	1	24	C5	release
703.905	7.758	FIXCROSS	n/a	n/a	n/a	n/a	n/a
705.428	n/a	RESPONSE	M2	1	24	C5	press
707.129	n/a	RESPONSE	M2	1	24	C5	release
711.663	6.325	CUE_PLAYBACK_BOTH_HANDS	M2	1	n/a	n/a	n/a
712.19	n/a	RESPONSE	M2	1	24	C5	press
712.193	n/a	RESPONSE	M2	1	00	C3	press
712.212	n/a	RESPONSE	M2	1	07	G3	press
712.662	n/a	RESPONSE	M2	1	19	G4	press
712.813	n/a	RESPONSE	M2	1	24	C5	release
712.892	n/a	RESPONSE	M2	1	00	C3	release
712.904	n/a	RESPONSE	M2	1	19	G4	release
712.914	n/a	RESPONSE	M2	1	07	G3	release
713.148	n/a	RESPONSE	M2	1	00	C3	press
713.157	n/a	RESPONSE	M2	1	07	G3	press
713.159	n/a	RESPONSE	M2	1	19	G4	press
713.63	n/a	RESPONSE	M2	1	17	F4	press
713.791	n/a	RESPONSE	M2	1	19	G4	release
713.864	n/a	RESPONSE	M2	1	17	F4	release
713.893	n/a	RESPONSE	M2	1	00	C3	release
714.096	n/a	RESPONSE	M2	1	16	E4	press
714.136	n/a	RESPONSE	M2	1	00	C3	press
714.519	n/a	RESPONSE	M2	1	17	F4	press
714.711	n/a	RESPONSE	M2	1	16	E4	release
714.759	n/a	RESPONSE	M2	1	00	C3	release
714.781	n/a	RESPONSE	M2	1	17	F4	release
714.802	n/a	RESPONSE	M2	1	07	G3	release
714.993	n/a	RESPONSE	M2	1	19	G4	press
714.997	n/a	RESPONSE	M2	1	00	C3	press
715.006	n/a	RESPONSE	M2	1	07	G3	press
715.699	n/a	RESPONSE	M2	1	00	C3	release
715.702	n/a	RESPONSE	M2	1	19	G4	release
715.982	n/a	RESPONSE	M2	1	07	G3	release
717.988	7.758	FIXCROSS	n/a	n/a	n/a	n/a	n/a
725.746	6.317	CUE_LISTEN	M2	2	n/a	n/a	n/a
727.394	n/a	RESPONSE	M2	2	24	C5	press
727.567	n/a	RESPONSE	M2	2	24	C5	release
732.063	7.758	FIXCROSS	n/a	n/a	n/a	n/a	n/a
739.822	6.317	CUE_PLAYBACK_BOTH_HANDS	M2	2	n/a	n/a	n/a
740.319	n/a	RESPONSE	M2	2	24	C5	press
740.333	n/a	RESPONSE	M2	2	00	C3	press
740.342	n/a	RESPONSE	M2	2	07	G3	press
740.923	n/a	RESPONSE	M2	2	19	G4	press
741.071	n/a	RESPONSE	M2	2	00	C3	release
741.073	n/a	RESPONSE	M2	2	19	G4	release
741.082	n/a	RESPONSE	M2	2	24	C5	release
741.116	n/a	RESPONSE	M2	2	07	G3	release
741.391	n/a	RESPONSE	M2	2	19	G4	press
741.393	n/a	RESPONSE	M2	2	00	C3	press
741.396	n/a	RESPONSE	M2	2	07	G3	press
741.887	n/a	RESPONSE	M2	2	17	F4	press
742.014	n/a	RESPONSE	M2	2	19	G4	release
742.108	n/a	RESPONSE	M2	2	17	F4	release
742.119	n/a	RESPONSE	M2	2	00	C3	release
742.131	n/a	RESPONSE	M2	2	07	G3	release
742.404	n/a	RESPONSE	M2	2	16	E4	press
742.416	n/a	RESPONSE	M2	2	07	G3	press
742.418	n/a	RESPONSE	M2	2	00	C3	press
742.948	n/a	RESPONSE	M2	2	14	D4	press
743.112	n/a	RESPONSE	M2	2	16	E4	release
743.171	n/a	RESPONSE	M2	2	07	G3	release
743.173	n/a	RESPONSE	M2	2	00	C3	release
743.176	n/a	RESPONSE	M2	2	14	D4	release
743.464	n/a	RESPONSE	M2	2	07	G3	press
743.467	n/a	RESPONSE	M2	2	00	C3	press
743.478	n/a	RESPONSE	M2	2	12	C4	press
743.501	n/a	RESPONSE	M2	2	14	D4	press
743.891	n/a	RESPONSE	M2	2	14	D4	release
744.591	n/a	RESPONSE	M2	2	12	C4	release
744.604	n/a	RESPONSE	M2	2	00	C3	release
744.733	n/a	RESPONSE	M2	2	07	G3	release
746.138	7.758	FIXCROSS	n/a	n/a	n/a	n/a	n/a
753.896	6.325	CUE_LISTEN	M2	1	n/a	n/a	n/a
760.222	7.758	FIXCROSS	n/a	n/a	n/a	n/a	n/a
767.98	6.317	CUE_PLAYBACK_BOTH_HANDS	M2	1	n/a	n/a	n/a
768.89	n/a	RESPONSE	M2	1	12	C4	press
768.906	n/a	RESPONSE	M2	1	07	G3	press
768.908	n/a	RESPONSE	M2	1	00	C3	press
769.468	n/a	RESPONSE	M2	1	16	E4	press
769.519	n/a	RESPONSE	M2	1	12	C4	release
769.664	n/a	RESPONSE	M2	1	07	G3	release
769.72	n/a	RESPONSE	M2	1	00	C3	release
769.758	n/a	RESPONSE	M2	1	16	E4	release
770.248	n/a	RESPONSE	M2	1	00	C3	press
770.251	n/a	RESPONSE	M2	1	12	C4	press
770.254	n/a	RESPONSE	M2	1	07	G3	press
770.758	n/a	RESPONSE	M2	1	14	D4	press
770.877	n/a	RESPONSE	M2	1	12	C4	release
771.086	n/a	RESPONSE	M2	1	14	D4	release
771.146	n/a	RESPONSE	M2	1	07	G3	release
771.156	n/a	RESPONSE	M2	1	00	C3	release
771.304	n/a	RESPONSE	M2	1	16	E4	press
771.307	n/a	RESPONSE	M2	1	00	C3	press
771.319	n/a	RESPONSE	M2	1	07	G3	press
771.849	n/a	RESPONSE	M2	1	14	D4	press
771.902	n/a	RESPONSE	M2	1	16	E4	release
772.026	n/a	RESPONSE	M2	1	00	C3	release
772.089	n/a	RESPONSE	M2	1	14	D4	release
772.112	n/a	RESPONSE	M2	1	07	G3	release
772.299	n/a	RESPONSE	M2	1	00	C3	press
772.303	n/a	RESPONSE	M2	1	07	G3	press
772.312	n/a	RESPONSE	M2	1	16	E4	press
772.763	n/a	RESPONSE	M2	1	17	F4	press
772.867	n/a	RESPONSE	M2	1	16	E4	release
772.996	n/a	RESPONSE	M2	1	07	G3	release
773.017	n/a	RESPONSE	M2	1	17	F4	release
773.019	n/a	RESPONSE	M2	1	00	C3	release
773.269	n/a	RESPONSE	M2	1	19	G4	press
773.281	n/a	RESPONSE	M2	1	00	C3	press
773.302	n/a	RESPONSE	M2	1	07	G3	press
774.073	n/a	RESPONSE	M2	1	19	G4	release
774.116	n/a	RESPONSE	M2	1	00	C3	release
774.136	n/a	RESPONSE	M2	1	07	G3	release
774.296	7.758	FIXCROSS	n/a	n/a	n/a	n/a	n/a
782.055	6.317	CUE_LISTEN	M2	2	n/a	n/a	n/a
788.372	7.758	FIXCROSS	n/a	n/a	n/a	n/a	n/a
796.13	6.325	CUE_PLAYBACK_BOTH_HANDS	M2	2	n/a	n/a	n/a
796.814	n/a	RESPONSE	M2	2	00	C3	press
796.817	n/a	RESPONSE	M2	2	07	G3	press
796.819	n/a	RESPONSE	M2	2	16	E4	press
797.328	n/a	RESPONSE	M2	2	19	G4	press
797.36	n/a	RESPONSE	M2	2	16	E4	release
797.483	n/a	RESPONSE	M2	2	00	C3	release
797.512	n/a	RESPONSE	M2	2	07	G3	release
797.563	n/a	RESPONSE	M2	2	19	G4	release
797.874	n/a	RESPONSE	M2	2	19	G4	press
797.877	n/a	RESPONSE	M2	2	00	C3	press
797.897	n/a	RESPONSE	M2	2	07	G3	press
798.399	n/a	RESPONSE	M2	2	17	F4	press
798.542	n/a	RESPONSE	M2	2	19	G4	release
798.638	n/a	RESPONSE	M2	2	00	C3	release
798.648	n/a	RESPONSE	M2	2	17	F4	release
798.657	n/a	RESPONSE	M2	2	07	G3	release
798.916	n/a	RESPONSE	M2	2	00	C3	press
798.918	n/a	RESPONSE	M2	2	16	E4	press
798.924	n/a	RESPONSE	M2	2	07	G3	press
799.421	n/a	RESPONSE	M2	2	14	D4	press
799.493	n/a	RESPONSE	M2	2	16	E4	release
799.608	n/a	RESPONSE	M2	2	00	C3	release
799.616	n/a	RESPONSE	M2	2	07	G3	release
799.631	n/a	RESPONSE	M2	2	14	D4	release
799.953	n/a	RESPONSE	M2	2	00	C3	press
799.962	n/a	RESPONSE	M2	2	07	G3	press
799.988	n/a	RESPONSE	M2	2	12	C4	press
800.946	n/a	RESPONSE	M2	2	12	C4	release
801.093	n/a	RESPONSE	M2	2	07	G3	release
801.097	n/a	RESPONSE	M2	2	00	C3	release
802.455	7.758	FIXCROSS	n/a	n/a	n/a	n/a	n/a
810.213	6.317	CUE_LISTEN	M3	1	n/a	n/a	n/a
816.53	7.758	FIXCROSS	n/a	n/a	n/a	n/a	n/a
824.288	6.317	CUE_PLAYBACK_RIGHT_HAND	M3	1	n/a	n/a	n/a
824.807	n/a	RESPONSE	M3	1	12	C4	press
825.318	n/a	RESPONSE	M3	1	14	D4	press
825.4	n/a	RESPONSE	M3	1	12	C4	release
825.811	n/a	RESPONSE	M3	1	16	E4	press
825.822	n/a	RESPONSE	M3	1	14	D4	release
826.333	n/a	RESPONSE	M3	1	12	C4	press
826.404	n/a	RESPONSE	M3	1	16	E4	release
826.656	n/a	RESPONSE	M3	1	12	C4	release
826.837	n/a	RESPONSE	M3	1	12	C4	press
827.348	n/a	RESPONSE	M3	1	14	D4	press
827.379	n/a	RESPONSE	M3	1	12	C4	release
827.801	n/a	RESPONSE	M3	1	16	E4	press
827.832	n/a	RESPONSE	M3	1	14	D4	release
828.293	n/a	RESPONSE	M3	1	12	C4	press
828.366	n/a	RESPONSE	M3	1	16	E4	release
828.812	n/a	RESPONSE	M3	1	12	C4	release
830.605	7.758	FIXCROSS	n/a	n/a	n/a	n/a	n/a
838.363	6.325	CUE_LISTEN	M3	2	n/a	n/a	n/a
844.688	7.758	FIXCROSS	n/a	n/a	n/a	n/a	n/a
852.447	6.317	CUE_PLAYBACK_RIGHT_HAND	M3	2	n/a	n/a	n/a
853.05	n/a	RESPONSE	M3	2	16	E4	press
853.591	n/a	RESPONSE	M3	2	17	F4	press
853.693	n/a	RESPONSE	M3	2	16	E4	release
854.116	n/a	RESPONSE	M3	2	19	G4	press
854.157	n/a	RESPONSE	M3	2	17	F4	release
855.158	n/a	RESPONSE	M3	2	16	E4	press
855.177	n/a	RESPONSE	M3	2	19	G4	release
855.698	n/a	RESPONSE	M3	2	17	F4	press
855.75	n/a	RESPONSE	M3	2	16	E4	release
856.181	n/a	RESPONSE	M3	2	19	G4	press
856.214	n/a	RESPONSE	M3	2	17	F4	release
857.626	n/a	RESPONSE	M3	2	19	G4	release
858.763	7.758	FIXCROSS	n/a	n/a	n/a	n/a	n/a
866.522	6.317	CUE_LISTEN	M3	1	n/a	n/a	n/a
872.838	7.759	FIXCROSS	n/a	n/a	n/a	n/a	n/a
880.597	6.325	CUE_PLAYBACK_RIGHT_HAND	M3	1	n/a	n/a	n/a
881.352	n/a	RESPONSE	M3	1	19	G4	press
881.663	n/a	RESPONSE	M3	1	21	A4	press
881.717	n/a	RESPONSE	M3	1	19	G4	release
881.927	n/a	RESPONSE	M3	1	19	G4	press
882.01	n/a	RESPONSE	M3	1	21	A4	release
882.218	n/a	RESPONSE	M3	1	17	F4	press
882.337	n/a	RESPONSE	M3	1	19	G4	release
882.576	n/a	RESPONSE	M3	1	16	E4	press
882.777	n/a	RESPONSE	M3	1	17	F4	release
883.158	n/a	RESPONSE	M3	1	12	C4	press
883.26	n/a	RESPONSE	M3	1	16	E4	release
883.461	n/a	RESPONSE	M3	1	12	C4	release
883.732	n/a	RESPONSE	M3	1	19	G4	press
884.023	n/a	RESPONSE	M3	1	21	A4	press
884.066	n/a	RESPONSE	M3	1	19	G4	release
884.317	n/a	RESPONSE	M3	1	19	G4	press
884.397	n/a	RESPONSE	M3	1	21	A4	release
884.628	n/a	RESPONSE	M3	1	17	F4	press
884.71	n/a	RESPONSE	M3	1	19	G4	release
884.943	n/a	RESPONSE	M3	1	16	E4	press
885.072	n/a	RESPONSE	M3	1	17	F4	release
885.523	n/a	RESPONSE	M3	1	12	C4	press
885.614	n/a	RESPONSE	M3	1	16	E4	release
886.116	n/a	RESPONSE	M3	1	12	C4	release
886.922	7.758	FIXCROSS	n/a	n/a	n/a	n/a	n/a
894.68	6.325	CUE_LISTEN	M3	2	n/a	n/a	n/a
901.005	7.759	FIXCROSS	n/a	n/a	n/a	n/a	n/a
908.764	191.647	CUE_PLAYBACK_RIGHT_HAND	M3	2	n/a	n/a	n/a
909.494	n/a	RESPONSE	M3	2	12	C4	press
910.044	n/a	RESPONSE	M3	2	07	G3	press
910.328	n/a	RESPONSE	M3	2	12	C4	release
910.576	n/a	RESPONSE	M3	2	12	C4	press
910.61	n/a	RESPONSE	M3	2	07	G3	release
911.208	n/a	RESPONSE	M3	2	12	C4	release
911.556	n/a	RESPONSE	M3	2	12	C4	press
912.133	n/a	RESPONSE	M3	2	07	G3	press
912.478	n/a	RESPONSE	M3	2	12	C4	release
912.65	n/a	RESPONSE	M3	2	12	C4	press
912.731	n/a	RESPONSE	M3	2	07	G3	release
913.257	n/a	FIXCROSS	n/a	n/a	n/a	n/a	n/a
913.833	n/a	RESPONSE	M3	2	12	C4	release
