onset	duration	trial_type	melody_number	melody_part	key	sound	action
0.0	14.086	CUE_START	n/a	n/a	n/a	n/a	n/a
14.087	7.759	FIXCROSS	n/a	n/a	n/a	n/a	n/a
21.846	6.316	CUE_LISTEN	M1	1	n/a	n/a	n/a
24.978	n/a	RESPONSE	n/a	n/a	04	E3	press
25.297	n/a	RESPONSE	n/a	n/a	04	E3	release
28.162	7.758	FIXCROSS	n/a	n/a	n/a	n/a	n/a
35.92	6.317	CUE_PLAYBACK_RIGHT_HAND	M1	1	n/a	n/a	n/a
36.861	n/a	RESPONSE	M1	1	12	C4	press
37.281	n/a	RESPONSE	M1	1	14	D4	press
37.42	n/a	RESPONSE	M1	1	12	C4	release
37.696	n/a	RESPONSE	M1	1	16	E4	press
37.834	n/a	RESPONSE	M1	1	14	D4	release
38.136	n/a	RESPONSE	M1	1	12	C4	press
38.237	n/a	RESPONSE	M1	1	16	E4	release
38.42	n/a	RESPONSE	M1	1	12	C4	release
38.596	n/a	RESPONSE	M1	1	12	C4	press
39.015	n/a	RESPONSE	M1	1	14	D4	press
39.156	n/a	RESPONSE	M1	1	12	C4	release
39.427	n/a	RESPONSE	M1	1	16	E4	press
39.538	n/a	RESPONSE	M1	1	14	D4	release
39.851	n/a	RESPONSE	M1	1	12	C4	press
39.951	n/a	RESPONSE	M1	1	16	E4	release
40.125	n/a	RESPONSE	M1	1	12	C4	release
40.294	n/a	RESPONSE	M1	1	16	E4	press
40.675	n/a	RESPONSE	M1	1	17	F4	press
40.776	n/a	RESPONSE	M1	1	16	E4	release
41.087	n/a	RESPONSE	M1	1	19	G4	press
41.198	n/a	RESPONSE	M1	1	17	F4	release
41.56	n/a	RESPONSE	M1	1	19	G4	release
41.881	n/a	RESPONSE	M1	1	16	E4	press
42.237	7.758	FIXCROSS	n/a	n/a	n/a	n/a	n/a
42.274	n/a	RESPONSE	M1	1	17	F4	press
42.374	n/a	RESPONSE	M1	1	16	E4	release
42.645	n/a	RESPONSE	M1	1	19	G4	press
42.756	n/a	RESPONSE	M1	1	17	F4	release
43.307	n/a	RESPONSE	M1	1	19	G4	release
49.995	6.325	CUE_LISTEN	        M1	2	n/a	n/a	n/a
56.32	7.758	FIXCROSS	n/a	n/a	n/a	n/a	n/a
64.079	6.317	CUE_PLAYBACK_RIGHT_HAND	        M1	2	n/a	n/a	n/a
64.452	n/a	RESPONSE	        M1	2	19	G4	press
64.895	n/a	RESPONSE	        M1	2	21	A4	press
65.115	n/a	RESPONSE	        M1	2	19	G4	release
65.256	n/a	RESPONSE	        M1	2	19	G4	press
65.422	n/a	RESPONSE	        M1	2	21	A4	release
65.617	n/a	RESPONSE	        M1	2	17	F4	press
65.805	n/a	RESPONSE	        M1	2	19	G4	release
65.977	n/a	RESPONSE	        M1	2	16	E4	press
66.098	n/a	RESPONSE	        M1	2	17	F4	release
66.612	n/a	RESPONSE	        M1	2	12	C4	press
66.965	n/a	RESPONSE	        M1	2	16	E4	release
67.077	n/a	RESPONSE	        M1	2	12	C4	release
67.23	n/a	RESPONSE	        M1	2	19	G4	press
67.55	n/a	RESPONSE	        M1	2	21	A4	press
67.655	n/a	RESPONSE	        M1	2	19	G4	release
67.86	n/a	RESPONSE	        M1	2	19	G4	press
67.994	n/a	RESPONSE	        M1	2	21	A4	release
68.166	n/a	RESPONSE	        M1	2	17	F4	press
68.327	n/a	RESPONSE	        M1	2	19	G4	release
68.506	n/a	RESPONSE	        M1	2	16	E4	press
68.615	n/a	RESPONSE	        M1	2	17	F4	release
69.081	n/a	RESPONSE	        M1	2	16	E4	release
69.114	n/a	RESPONSE	        M1	2	12	C4	press
69.502	n/a	RESPONSE	        M1	2	12	C4	release
69.674	n/a	RESPONSE	        M1	2	12	C4	press
70.175	n/a	RESPONSE	        M1	2	07	G3	press
70.296	n/a	RESPONSE	        M1	2	12	C4	release
70.395	7.758	FIXCROSS	n/a	n/a	n/a	n/a	n/a
70.657	n/a	RESPONSE	        M1	2	12	C4	press
70.778	n/a	RESPONSE	        M1	2	07	G3	release
71.47	n/a	RESPONSE	        M1	2	12	C4	release
71.601	n/a	RESPONSE	        M1	2	12	C4	press
72.072	n/a	RESPONSE	        M1	2	07	G3	press
72.244	n/a	RESPONSE	        M1	2	12	C4	release
72.585	n/a	RESPONSE	        M1	2	12	C4	press
72.686	n/a	RESPONSE	        M1	2	07	G3	release
73.277	n/a	RESPONSE	        M1	2	12	C4	release
78.154	6.317	CUE_LISTEN	        M7	1	n/a	n/a	n/a
84.47	7.758	FIXCROSS	n/a	n/a	n/a	n/a	n/a
92.229	6.325	CUE_PLAYBACK_BOTH_HANDS	        M7	1	n/a	n/a	n/a
93.335	n/a	RESPONSE	        M7	1	19	G4	press
93.356	n/a	RESPONSE	        M7	1	05	F3	press
93.71	n/a	RESPONSE	        M7	1	19	G4	release
93.94	n/a	RESPONSE	        M7	1	05	F3	release
94.23	n/a	RESPONSE	        M7	1	09	A3	press
94.262	n/a	RESPONSE	        M7	1	19	G4	press
94.524	n/a	RESPONSE	        M7	1	19	G4	release
94.555	n/a	RESPONSE	        M7	1	09	A3	release
94.746	n/a	RESPONSE	        M7	1	05	F3	press
94.748	n/a	RESPONSE	        M7	1	19	G4	press
95.068	n/a	RESPONSE	        M7	1	19	G4	release
95.1	n/a	RESPONSE	        M7	1	09	A3	press
95.161	n/a	RESPONSE	        M7	1	19	G4	press
95.338	n/a	RESPONSE	        M7	1	05	F3	release
95.411	n/a	RESPONSE	        M7	1	19	G4	release
95.508	n/a	RESPONSE	        M7	1	19	G4	press
95.574	n/a	RESPONSE	        M7	1	05	F3	press
95.628	n/a	RESPONSE	        M7	1	09	A3	release
95.917	n/a	RESPONSE	        M7	1	19	G4	release
96.135	n/a	RESPONSE	        M7	1	05	F3	release
96.256	n/a	RESPONSE	        M7	1	09	A3	press
96.291	n/a	RESPONSE	        M7	1	19	G4	press
96.732	n/a	RESPONSE	        M7	1	05	F3	press
96.807	n/a	RESPONSE	        M7	1	09	A3	release
96.98	n/a	RESPONSE	        M7	1	19	G4	release
97.138	n/a	RESPONSE	        M7	1	05	F3	release
97.198	n/a	RESPONSE	        M7	1	05	F3	press
97.216	n/a	RESPONSE	        M7	1	19	G4	press
97.465	n/a	RESPONSE	        M7	1	09	A3	press
97.552	n/a	RESPONSE	        M7	1	19	G4	release
97.646	n/a	RESPONSE	        M7	1	19	G4	press
97.674	n/a	RESPONSE	        M7	1	05	F3	release
97.825	n/a	RESPONSE	        M7	1	19	G4	release
97.877	n/a	RESPONSE	        M7	1	04	E3	press
97.987	n/a	RESPONSE	        M7	1	09	A3	release
97.99	n/a	RESPONSE	        M7	1	19	G4	press
98.26	n/a	RESPONSE	        M7	1	19	G4	release
98.3	n/a	RESPONSE	        M7	1	09	A3	press
98.371	n/a	RESPONSE	        M7	1	04	E3	release
98.554	7.758	FIXCROSS	n/a	n/a	n/a	n/a	n/a
98.635	n/a	RESPONSE	        M7	1	02	D3	press
98.666	n/a	RESPONSE	        M7	1	19	G4	press
98.716	n/a	RESPONSE	        M7	1	09	A3	release
98.905	n/a	RESPONSE	        M7	1	19	G4	release
98.975	n/a	RESPONSE	        M7	1	09	A3	press
99.046	n/a	RESPONSE	        M7	1	19	G4	press
99.048	n/a	RESPONSE	        M7	1	02	D3	release
99.278	n/a	RESPONSE	        M7	1	19	G4	release
99.4	n/a	RESPONSE	        M7	1	05	F3	press
99.411	n/a	RESPONSE	        M7	1	09	A3	release
99.414	n/a	RESPONSE	        M7	1	07	G3	press
99.464	n/a	RESPONSE	        M7	1	19	G4	press
99.585	n/a	RESPONSE	        M7	1	07	G3	release
99.736	n/a	RESPONSE	        M7	1	19	G4	release
99.767	n/a	RESPONSE	        M7	1	05	F3	release
99.801	n/a	RESPONSE	        M7	1	09	A3	press
100.16	n/a	RESPONSE	        M7	1	09	A3	release
100.171	n/a	RESPONSE	        M7	1	19	G4	press
100.182	n/a	RESPONSE	        M7	1	05	F3	press
100.474	n/a	RESPONSE	        M7	1	23	B4	press
100.505	n/a	RESPONSE	        M7	1	09	A3	press
100.576	n/a	RESPONSE	        M7	1	19	G4	release
100.587	n/a	RESPONSE	        M7	1	05	F3	release
101.05	n/a	RESPONSE	        M7	1	09	A3	release
101.08	n/a	RESPONSE	        M7	1	23	B4	release
101.451	n/a	RESPONSE	        M7	1	05	F3	press
101.692	n/a	RESPONSE	        M7	1	19	G4	press
101.744	n/a	RESPONSE	        M7	1	09	A3	press
101.816	n/a	RESPONSE	        M7	1	05	F3	release
102.176	n/a	RESPONSE	        M7	1	19	G4	release
102.507	n/a	RESPONSE	        M7	1	09	A3	release
102.668	n/a	RESPONSE	        M7	1	05	F3	press
102.692	n/a	RESPONSE	        M7	1	19	G4	press
103.041	n/a	RESPONSE	        M7	1	19	G4	release
103.085	n/a	RESPONSE	        M7	1	09	A3	press
103.144	n/a	RESPONSE	        M7	1	19	G4	press
103.255	n/a	RESPONSE	        M7	1	05	F3	release
103.427	n/a	RESPONSE	        M7	1	19	G4	release
103.497	n/a	RESPONSE	        M7	1	04	E3	press
103.64	n/a	RESPONSE	        M7	1	09	A3	release
103.651	n/a	RESPONSE	        M7	1	19	G4	press
103.781	n/a	RESPONSE	        M7	1	19	G4	release
104.392	n/a	RESPONSE	        M7	1	04	E3	release
105.93	n/a	RESPONSE	        M7	1	05	F3	press
106.008	n/a	RESPONSE	        M7	1	09	A3	press
106.06	n/a	RESPONSE	        M7	1	19	G4	press
106.27	n/a	RESPONSE	        M7	1	05	F3	release
106.312	6.317	CUE_LISTEN	        M7	2	n/a	n/a	n/a
106.382	n/a	RESPONSE	        M7	2	19	G4	release
106.577	n/a	RESPONSE	        M7	2	09	A3	release
112.629	7.758	FIXCROSS	n/a	n/a	n/a	n/a	n/a
120.387	6.317	CUE_PLAYBACK_BOTH_HANDS	        M7	2	n/a	n/a	n/a
120.708	n/a	RESPONSE	        M7	2	05	F3	press
120.788	n/a	RESPONSE	        M7	2	19	G4	press
121.14	n/a	RESPONSE	        M7	2	19	G4	release
121.224	n/a	RESPONSE	        M7	2	09	A3	press
121.262	n/a	RESPONSE	        M7	2	19	G4	press
121.314	n/a	RESPONSE	        M7	2	05	F3	release
121.705	n/a	RESPONSE	        M7	2	04	E3	press
121.986	n/a	RESPONSE	        M7	2	09	A3	release
122.16	n/a	RESPONSE	        M7	2	19	G4	release
122.291	n/a	RESPONSE	        M7	2	04	E3	release
122.51	n/a	RESPONSE	        M7	2	05	F3	press
122.512	n/a	RESPONSE	        M7	2	19	G4	press
122.882	n/a	RESPONSE	        M7	2	19	G4	release
122.944	n/a	RESPONSE	        M7	2	09	A3	press
123.005	n/a	RESPONSE	        M7	2	23	B4	press
123.076	n/a	RESPONSE	        M7	2	05	F3	release
123.347	n/a	RESPONSE	        M7	2	04	E3	press
123.558	n/a	RESPONSE	        M7	2	23	B4	release
123.62	n/a	RESPONSE	        M7	2	09	A3	release
123.802	n/a	RESPONSE	        M7	2	04	E3	release
124.015	n/a	RESPONSE	        M7	2	16	E4	press
124.024	n/a	RESPONSE	        M7	2	02	D3	press
124.475	n/a	RESPONSE	        M7	2	17	F4	press
124.486	n/a	RESPONSE	        M7	2	09	A3	press
124.587	n/a	RESPONSE	        M7	2	02	D3	release
124.688	n/a	RESPONSE	        M7	2	16	E4	release
124.852	n/a	RESPONSE	        M7	2	17	F4	release
125.011	n/a	RESPONSE	        M7	2	09	A3	release
125.436	n/a	RESPONSE	        M7	2	05	F3	press
125.481	n/a	RESPONSE	        M7	2	19	G4	press
125.77	n/a	RESPONSE	        M7	2	19	G4	release
125.808	n/a	RESPONSE	        M7	2	09	A3	press
125.881	n/a	RESPONSE	        M7	2	19	G4	press
125.965	n/a	RESPONSE	        M7	2	05	F3	release
126.153	n/a	RESPONSE	        M7	2	19	G4	release
126.616	n/a	RESPONSE	        M7	2	09	A3	release
126.704	7.758	FIXCROSS	n/a	n/a	n/a	n/a	n/a
127.53	n/a	RESPONSE	        M7	2	05	F3	press
127.553	n/a	RESPONSE	        M7	2	19	G4	press
127.862	n/a	RESPONSE	        M7	2	23	B4	press
127.876	n/a	RESPONSE	        M7	2	09	A3	press
127.971	n/a	RESPONSE	        M7	2	19	G4	release
128.07	n/a	RESPONSE	        M7	2	05	F3	release
128.298	n/a	RESPONSE	        M7	2	16	E4	press
128.352	n/a	RESPONSE	        M7	2	04	E3	press
128.436	n/a	RESPONSE	        M7	2	23	B4	release
128.552	n/a	RESPONSE	        M7	2	09	A3	release
128.845	n/a	RESPONSE	        M7	2	04	E3	release
128.907	n/a	RESPONSE	        M7	2	04	E3	press
129.35	n/a	RESPONSE	        M7	2	17	F4	press
129.372	n/a	RESPONSE	        M7	2	09	A3	press
129.511	n/a	RESPONSE	        M7	2	04	E3	release
129.535	n/a	RESPONSE	        M7	2	16	E4	release
129.863	n/a	RESPONSE	        M7	2	19	G4	press
129.905	n/a	RESPONSE	        M7	2	02	D3	press
130.007	n/a	RESPONSE	        M7	2	17	F4	release
130.017	n/a	RESPONSE	        M7	2	09	A3	release
130.388	n/a	RESPONSE	        M7	2	09	A3	press
130.51	n/a	RESPONSE	        M7	2	19	G4	release
130.512	n/a	RESPONSE	        M7	2	02	D3	release
131.195	n/a	RESPONSE	        M7	2	09	A3	release
131.326	n/a	RESPONSE	        M7	2	05	F3	press
131.537	n/a	RESPONSE	        M7	2	05	F3	release
134.462	6.325	CUE_LISTEN	        M5	1	n/a	n/a	n/a
140.787	7.758	FIXCROSS	n/a	n/a	n/a	n/a	n/a
148.545	6.317	CUE_PLAYBACK_BOTH_HANDS	        M5	1	n/a	n/a	n/a
149.291	n/a	RESPONSE	        M5	1	07	G3	press
149.295	n/a	RESPONSE	        M5	1	04	E3	press
149.303	n/a	RESPONSE	        M5	1	19	G4	press
149.307	n/a	RESPONSE	        M5	1	00	C3	press
149.796	n/a	RESPONSE	        M5	1	16	E4	press
150.007	n/a	RESPONSE	        M5	1	19	G4	release
150.028	n/a	RESPONSE	        M5	1	16	E4	release
150.261	n/a	RESPONSE	        M5	1	16	E4	press
150.401	n/a	RESPONSE	        M5	1	00	C3	release
150.482	n/a	RESPONSE	        M5	1	16	E4	release
150.485	n/a	RESPONSE	        M5	1	04	E3	release
150.685	n/a	RESPONSE	        M5	1	02	D3	press
150.688	n/a	RESPONSE	        M5	1	17	F4	press
150.707	n/a	RESPONSE	        M5	1	05	F3	press
151.14	n/a	RESPONSE	        M5	1	14	D4	press
151.351	n/a	RESPONSE	        M5	1	14	D4	release
151.511	n/a	RESPONSE	        M5	1	14	D4	press
151.692	n/a	RESPONSE	        M5	1	02	D3	release
151.703	n/a	RESPONSE	        M5	1	17	F4	release
151.706	n/a	RESPONSE	        M5	1	05	F3	release
151.718	n/a	RESPONSE	        M5	1	14	D4	release
151.917	n/a	RESPONSE	        M5	1	04	E3	press
151.978	n/a	RESPONSE	        M5	1	00	C3	press
151.982	n/a	RESPONSE	        M5	1	12	C4	press
152.221	n/a	RESPONSE	        M5	1	16	E4	press
152.323	n/a	RESPONSE	        M5	1	12	C4	release
152.476	n/a	RESPONSE	        M5	1	19	G4	press
152.556	n/a	RESPONSE	        M5	1	16	E4	release
153.087	n/a	RESPONSE	        M5	1	19	G4	release
153.148	n/a	RESPONSE	        M5	1	00	C3	release
153.272	n/a	RESPONSE	        M5	1	07	G3	release
153.282	n/a	RESPONSE	        M5	1	04	E3	release
154.862	7.758	FIXCROSS	n/a	n/a	n/a	n/a	n/a
162.62	6.325	CUE_LISTEN	        M5	2	n/a	n/a	n/a
168.945	7.758	FIXCROSS	n/a	n/a	n/a	n/a	n/a
176.704	6.317	CUE_PLAYBACK_BOTH_HANDS	        M5	2	n/a	n/a	n/a
177.141	n/a	RESPONSE	        M5	2	04	E3	press
177.148	n/a	RESPONSE	        M5	2	07	G3	press
177.155	n/a	RESPONSE	        M5	2	00	C3	press
177.162	n/a	RESPONSE	        M5	2	19	G4	press
177.685	n/a	RESPONSE	        M5	2	16	E4	press
177.94	n/a	RESPONSE	        M5	2	16	E4	release
178.117	n/a	RESPONSE	        M5	2	16	E4	press
178.151	n/a	RESPONSE	        M5	2	19	G4	release
178.275	n/a	RESPONSE	        M5	2	00	C3	release
178.338	n/a	RESPONSE	        M5	2	16	E4	release
178.353	n/a	RESPONSE	        M5	2	04	E3	release
178.543	n/a	RESPONSE	        M5	2	05	F3	press
178.558	n/a	RESPONSE	        M5	2	02	D3	press
178.561	n/a	RESPONSE	        M5	2	17	F4	press
178.996	n/a	RESPONSE	        M5	2	14	D4	press
179.22	n/a	RESPONSE	        M5	2	14	D4	release
179.408	n/a	RESPONSE	        M5	2	14	D4	press
179.61	n/a	RESPONSE	        M5	2	02	D3	release
179.612	n/a	RESPONSE	        M5	2	17	F4	release
179.622	n/a	RESPONSE	        M5	2	14	D4	release
179.633	n/a	RESPONSE	        M5	2	05	F3	release
179.735	n/a	RESPONSE	        M5	2	07	G3	release
179.776	n/a	RESPONSE	        M5	2	04	E3	press
179.827	n/a	RESPONSE	        M5	2	00	C3	press
179.83	n/a	RESPONSE	        M5	2	07	G3	press
179.92	n/a	RESPONSE	        M5	2	12	C4	press
180.171	n/a	RESPONSE	        M5	2	16	E4	press
180.272	n/a	RESPONSE	        M5	2	12	C4	release
180.463	n/a	RESPONSE	        M5	2	12	C4	press
180.516	n/a	RESPONSE	        M5	2	16	E4	release
181.316	n/a	RESPONSE	        M5	2	12	C4	release
181.387	n/a	RESPONSE	        M5	2	00	C3	release
181.458	n/a	RESPONSE	        M5	2	07	G3	release
182.19	n/a	RESPONSE	        M5	2	04	E3	release
183.02	7.758	FIXCROSS	n/a	n/a	n/a	n/a	n/a
190.779	6.317	CUE_LISTEN	        M3	1	n/a	n/a	n/a
197.095	7.758	FIXCROSS	n/a	n/a	n/a	n/a	n/a
203.361	n/a	RESPONSE	        M3	1	07	G3	press
203.672	n/a	RESPONSE	        M3	1	07	G3	release
204.854	6.325	CUE_PLAYBACK_RIGHT_HAND	        M3	1	n/a	n/a	n/a
205.253	n/a	RESPONSE	        M3	1	07	G3	press
205.27	n/a	RESPONSE	        M3	1	22	A#4	press
205.645	n/a	RESPONSE	        M3	1	21	A4	press
205.825	n/a	RESPONSE	        M3	1	22	A#4	release
206.047	n/a	RESPONSE	        M3	1	19	G4	press
206.155	n/a	RESPONSE	        M3	1	21	A4	release
206.378	n/a	RESPONSE	        M3	1	21	A4	press
206.396	n/a	RESPONSE	        M3	1	05	F3	press
206.456	n/a	RESPONSE	        M3	1	19	G4	release
206.54	n/a	RESPONSE	        M3	1	07	G3	release
207.037	n/a	RESPONSE	        M3	1	14	D4	press
207.15	n/a	RESPONSE	        M3	1	21	A4	release
207.435	n/a	RESPONSE	        M3	1	14	D4	release
207.545	n/a	RESPONSE	        M3	1	14	D4	press
207.83	n/a	RESPONSE	        M3	1	03	D#3	press
207.852	n/a	RESPONSE	        M3	1	19	G4	press
207.873	n/a	RESPONSE	        M3	1	05	F3	release
207.885	n/a	RESPONSE	        M3	1	14	D4	release
208.687	n/a	RESPONSE	        M3	1	11	B3	press
208.841	n/a	RESPONSE	        M3	1	19	G4	release
209.018	n/a	RESPONSE	        M3	1	12	C4	press
209.12	n/a	RESPONSE	        M3	1	11	B3	release
209.292	n/a	RESPONSE	        M3	1	13	C#4	press
209.402	n/a	RESPONSE	        M3	1	12	C4	release
209.606	n/a	RESPONSE	        M3	1	14	D4	press
209.635	n/a	RESPONSE	        M3	1	16	E4	press
209.737	n/a	RESPONSE	        M3	1	13	C#4	release
209.807	n/a	RESPONSE	        M3	1	16	E4	release
209.948	n/a	RESPONSE	        M3	1	14	D4	release
210.102	n/a	RESPONSE	        M3	1	16	E4	press
210.115	n/a	RESPONSE	        M3	1	02	D3	press
210.176	n/a	RESPONSE	        M3	1	03	D#3	release
211.179	7.758	FIXCROSS	n/a	n/a	n/a	n/a	n/a
211.475	n/a	RESPONSE	        M3	1	16	E4	release
211.926	n/a	RESPONSE	        M3	1	02	D3	release
218.937	6.317	CUE_LISTEN	        M3	2	n/a	n/a	n/a
225.254	7.758	FIXCROSS	n/a	n/a	n/a	n/a	n/a
233.012	6.317	CUE_PLAYBACK_RIGHT_HAND	        M3	2	n/a	n/a	n/a
233.436	n/a	RESPONSE	        M3	2	00	C3	press
233.465	n/a	RESPONSE	        M3	2	03	D#3	press
233.467	n/a	RESPONSE	        M3	2	10	A#3	press
233.9	n/a	RESPONSE	        M3	2	12	C4	press
234.08	n/a	RESPONSE	        M3	2	10	A#3	release
234.392	n/a	RESPONSE	        M3	2	12	C4	release
234.573	n/a	RESPONSE	        M3	2	03	D#3	release
234.613	n/a	RESPONSE	        M3	2	00	C3	release
236.323	n/a	RESPONSE	        M3	2	10	A#3	press
236.336	n/a	RESPONSE	        M3	2	03	D#3	press
236.338	n/a	RESPONSE	        M3	2	00	C3	press
236.68	n/a	RESPONSE	        M3	2	12	C4	press
236.807	n/a	RESPONSE	        M3	2	10	A#3	release
236.975	n/a	RESPONSE	        M3	2	10	A#3	press
237.107	n/a	RESPONSE	        M3	2	12	C4	release
237.24	n/a	RESPONSE	        M3	2	09	A3	press
237.365	n/a	RESPONSE	        M3	2	02	D3	press
237.47	n/a	RESPONSE	        M3	2	10	A#3	release
237.536	n/a	RESPONSE	        M3	2	03	D#3	release
237.55	n/a	RESPONSE	        M3	2	02	D3	release
237.558	n/a	RESPONSE	        M3	2	09	A3	release
237.566	n/a	RESPONSE	        M3	2	00	C3	release
239.013	n/a	RESPONSE	        M3	2	04	E3	press
239.016	n/a	RESPONSE	        M3	2	13	C#4	press
239.038	n/a	RESPONSE	        M3	2	08	G#3	press
239.329	7.758	FIXCROSS	n/a	n/a	n/a	n/a	n/a
239.378	n/a	RESPONSE	        M3	2	16	E4	press
239.401	n/a	RESPONSE	        M3	2	14	D4	press
239.64	n/a	RESPONSE	        M3	2	14	D4	release
239.791	n/a	RESPONSE	        M3	2	13	C#4	release
239.812	n/a	RESPONSE	        M3	2	16	E4	release
239.905	n/a	RESPONSE	        M3	2	08	G#3	release
239.925	n/a	RESPONSE	        M3	2	04	E3	release
242.96	n/a	RESPONSE	        M3	2	13	C#4	press
242.968	n/a	RESPONSE	        M3	2	05	F3	press
242.98	n/a	RESPONSE	        M3	2	08	G#3	press
243.291	n/a	RESPONSE	        M3	2	16	E4	press
243.452	n/a	RESPONSE	        M3	2	13	C#4	release
243.583	n/a	RESPONSE	        M3	2	13	C#4	press
243.665	n/a	RESPONSE	        M3	2	16	E4	release
243.837	n/a	RESPONSE	        M3	2	12	C4	press
243.957	n/a	RESPONSE	        M3	2	13	C#4	release
244.048	n/a	RESPONSE	        M3	2	08	G#3	release
244.11	n/a	RESPONSE	        M3	2	11	B3	press
244.121	n/a	RESPONSE	        M3	2	09	A3	press
244.212	n/a	RESPONSE	        M3	2	12	C4	release
244.215	n/a	RESPONSE	        M3	2	09	A3	release
244.417	n/a	RESPONSE	        M3	2	12	C4	press
244.436	n/a	RESPONSE	        M3	2	11	B3	release
244.47	n/a	RESPONSE	        M3	2	08	G#3	press
244.888	n/a	RESPONSE	        M3	2	05	F3	release
244.9	n/a	RESPONSE	        M3	2	08	G#3	release
244.951	n/a	RESPONSE	        M3	2	12	C4	release
246.308	n/a	RESPONSE	        M3	2	04	E3	press
246.357	n/a	RESPONSE	        M3	2	08	G#3	press
246.366	n/a	RESPONSE	        M3	2	13	C#4	press
247.075	n/a	RESPONSE	        M3	2	14	D4	press
247.08	n/a	RESPONSE	        M3	2	16	E4	press
247.087	6.325	CUE_LISTEN	        M6	1	n/a	n/a	n/a
247.286	n/a	RESPONSE	        M6	1	16	E4	release
247.293	n/a	RESPONSE	        M6	1	14	D4	release
247.451	n/a	RESPONSE	        M6	1	13	C#4	release
247.558	n/a	RESPONSE	        M6	1	08	G#3	release
247.611	n/a	RESPONSE	        M6	1	04	E3	release
253.412	7.758	FIXCROSS	n/a	n/a	n/a	n/a	n/a
261.171	6.317	CUE_PLAYBACK_RIGHT_HAND	        M6	1	n/a	n/a	n/a
261.707	n/a	RESPONSE	        M6	1	05	F3	press
261.731	n/a	RESPONSE	        M6	1	09	A3	press
261.741	n/a	RESPONSE	        M6	1	12	C4	press
262.382	n/a	RESPONSE	        M6	1	19	G4	press
262.732	n/a	RESPONSE	        M6	1	19	G4	release
262.763	n/a	RESPONSE	        M6	1	05	F3	release
262.836	n/a	RESPONSE	        M6	1	09	A3	release
262.846	n/a	RESPONSE	        M6	1	12	C4	release
263.5	n/a	RESPONSE	        M6	1	12	C4	press
264.228	n/a	RESPONSE	        M6	1	17	F4	press
264.41	n/a	RESPONSE	        M6	1	12	C4	release
265.071	n/a	RESPONSE	        M6	1	23	B4	press
265.073	n/a	RESPONSE	        M6	1	21	A4	press
265.153	n/a	RESPONSE	        M6	1	17	F4	release
265.328	n/a	RESPONSE	        M6	1	17	F4	press
265.362	n/a	RESPONSE	        M6	1	21	A4	release
265.377	n/a	RESPONSE	        M6	1	23	B4	release
265.552	n/a	RESPONSE	        M6	1	17	F4	release
265.957	n/a	RESPONSE	        M6	1	14	D4	press
266.28	n/a	RESPONSE	        M6	1	17	F4	press
266.42	n/a	RESPONSE	        M6	1	14	D4	release
266.603	n/a	RESPONSE	        M6	1	21	A4	press
266.666	n/a	RESPONSE	        M6	1	17	F4	release
266.885	n/a	RESPONSE	        M6	1	19	G4	press
267.038	n/a	RESPONSE	        M6	1	21	A4	release
267.178	n/a	RESPONSE	        M6	1	17	F4	press
267.313	n/a	RESPONSE	        M6	1	19	G4	release
267.466	n/a	RESPONSE	        M6	1	16	E4	press
267.487	7.758	FIXCROSS	n/a	n/a	n/a	n/a	n/a
267.572	n/a	RESPONSE	        M6	1	17	F4	release
267.722	n/a	RESPONSE	        M6	1	17	F4	press
267.8	n/a	RESPONSE	        M6	1	16	E4	release
268.2	n/a	RESPONSE	        M6	1	17	F4	release
275.246	6.317	CUE_LISTEN	        M6	2	n/a	n/a	n/a
281.562	7.758	FIXCROSS	n/a	n/a	n/a	n/a	n/a
289.321	6.325	CUE_PLAYBACK_RIGHT_HAND	        M6	2	n/a	n/a	n/a
289.69	n/a	RESPONSE	        M6	2	12	C4	press
290.113	n/a	RESPONSE	        M6	2	19	G4	press
290.552	n/a	RESPONSE	        M6	2	23	B4	press
290.555	n/a	RESPONSE	        M6	2	24	C5	press
290.785	n/a	RESPONSE	        M6	2	24	C5	release
290.806	n/a	RESPONSE	        M6	2	23	B4	release
290.937	n/a	RESPONSE	        M6	2	19	G4	release
291.11	n/a	RESPONSE	        M6	2	12	C4	release
291.41	n/a	RESPONSE	        M6	2	12	C4	press
291.721	n/a	RESPONSE	        M6	2	19	G4	press
292.292	n/a	RESPONSE	        M6	2	23	B4	press
292.403	n/a	RESPONSE	        M6	2	24	C5	press
292.477	n/a	RESPONSE	        M6	2	19	G4	release
292.527	n/a	RESPONSE	        M6	2	23	B4	release
293.138	n/a	RESPONSE	        M6	2	22	A#4	press
293.298	n/a	RESPONSE	        M6	2	24	C5	release
293.54	n/a	RESPONSE	        M6	2	21	A4	press
293.561	n/a	RESPONSE	        M6	2	19	G4	press
293.715	n/a	RESPONSE	        M6	2	19	G4	release
293.723	n/a	RESPONSE	        M6	2	22	A#4	release
293.977	n/a	RESPONSE	        M6	2	19	G4	press
294.087	n/a	RESPONSE	        M6	2	21	A4	release
294.29	n/a	RESPONSE	        M6	2	12	C4	release
294.578	n/a	RESPONSE	        M6	2	19	G4	release
294.71	n/a	RESPONSE	        M6	2	12	C4	press
295.646	7.759	FIXCROSS	n/a	n/a	n/a	n/a	n/a
295.726	n/a	RESPONSE	        M6	2	17	F4	press
296.143	n/a	RESPONSE	        M6	2	21	A4	press
296.268	n/a	RESPONSE	        M6	2	17	F4	release
296.512	n/a	RESPONSE	        M6	2	24	C5	press
296.522	n/a	RESPONSE	        M6	2	23	B4	press
296.621	n/a	RESPONSE	        M6	2	21	A4	release
296.727	n/a	RESPONSE	        M6	2	21	A4	press
296.837	n/a	RESPONSE	        M6	2	23	B4	release
296.862	n/a	RESPONSE	        M6	2	24	C5	release
297.025	n/a	RESPONSE	        M6	2	23	B4	press
297.088	n/a	RESPONSE	        M6	2	21	A4	release
297.755	n/a	RESPONSE	        M6	2	22	A#4	press
297.845	n/a	RESPONSE	        M6	2	12	C4	release
297.866	n/a	RESPONSE	        M6	2	23	B4	release
298.141	n/a	RESPONSE	        M6	2	21	A4	press
298.166	n/a	RESPONSE	        M6	2	19	G4	press
298.258	n/a	RESPONSE	        M6	2	19	G4	release
298.315	n/a	RESPONSE	        M6	2	22	A#4	release
298.655	n/a	RESPONSE	        M6	2	19	G4	press
298.755	n/a	RESPONSE	        M6	2	21	A4	release
300.03	n/a	RESPONSE	        M6	2	19	G4	release
303.404	6.317	CUE_LISTEN	        M2	1	n/a	n/a	n/a
309.721	7.758	FIXCROSS	n/a	n/a	n/a	n/a	n/a
309.762	n/a	RESPONSE	        M2	1	07	G3	press
310.093	n/a	RESPONSE	        M2	1	07	G3	release
317.479	6.317	CUE_PLAYBACK_BOTH_HANDS	        M2	1	n/a	n/a	n/a
317.832	n/a	RESPONSE	        M2	1	24	C5	press
317.836	n/a	RESPONSE	        M2	1	07	G3	press
317.842	n/a	RESPONSE	        M2	1	00	C3	press
318.435	n/a	RESPONSE	        M2	1	00	C3	release
318.527	n/a	RESPONSE	        M2	1	07	G3	release
319.015	n/a	RESPONSE	        M2	1	00	C3	press
319.017	n/a	RESPONSE	        M2	1	07	G3	press
319.347	n/a	RESPONSE	        M2	1	00	C3	release
319.558	n/a	RESPONSE	        M2	1	07	G3	release
319.93	n/a	RESPONSE	        M2	1	24	C5	release
321.681	n/a	RESPONSE	        M2	1	24	C5	press
322.195	n/a	RESPONSE	        M2	1	24	C5	release
322.336	n/a	RESPONSE	        M2	1	24	C5	press
322.405	n/a	RESPONSE	        M2	1	04	E3	press
322.416	n/a	RESPONSE	        M2	1	07	G3	press
322.437	n/a	RESPONSE	        M2	1	11	B3	press
322.778	n/a	RESPONSE	        M2	1	07	G3	release
322.841	n/a	RESPONSE	        M2	1	04	E3	release
322.933	n/a	RESPONSE	        M2	1	24	C5	release
322.942	n/a	RESPONSE	        M2	1	11	B3	release
323.073	n/a	RESPONSE	        M2	1	24	C5	press
323.076	n/a	RESPONSE	        M2	1	04	E3	press
323.078	n/a	RESPONSE	        M2	1	11	B3	press
323.387	n/a	RESPONSE	        M2	1	19	G4	press
323.428	n/a	RESPONSE	        M2	1	21	A4	press
323.52	n/a	RESPONSE	        M2	1	24	C5	release
323.541	n/a	RESPONSE	        M2	1	21	A4	release
323.642	n/a	RESPONSE	        M2	1	19	G4	release
323.775	n/a	RESPONSE	        M2	1	19	G4	press
323.796	7.758	FIXCROSS	n/a	n/a	n/a	n/a	n/a
324.155	n/a	RESPONSE	        M2	1	17	F4	press
324.276	n/a	RESPONSE	        M2	1	19	G4	release
324.3	n/a	RESPONSE	        M2	1	04	E3	release
324.36	n/a	RESPONSE	        M2	1	11	B3	release
324.44	n/a	RESPONSE	        M2	1	16	E4	press
324.461	n/a	RESPONSE	        M2	1	17	F4	release
324.792	n/a	RESPONSE	        M2	1	17	F4	press
324.823	n/a	RESPONSE	        M2	1	16	E4	release
325.145	n/a	RESPONSE	        M2	1	19	G4	press
325.206	n/a	RESPONSE	        M2	1	17	F4	release
325.626	n/a	RESPONSE	        M2	1	19	G4	release
325.715	n/a	RESPONSE	        M2	1	24	C5	press
325.746	n/a	RESPONSE	        M2	1	04	E3	press
325.753	n/a	RESPONSE	        M2	1	11	B3	press
326.113	n/a	RESPONSE	        M2	1	19	G4	press
326.197	n/a	RESPONSE	        M2	1	24	C5	release
326.223	n/a	RESPONSE	        M2	1	04	E3	release
326.242	n/a	RESPONSE	        M2	1	11	B3	release
326.336	n/a	RESPONSE	        M2	1	19	G4	release
326.418	n/a	RESPONSE	        M2	1	04	E3	press
326.422	n/a	RESPONSE	        M2	1	11	B3	press
326.443	n/a	RESPONSE	        M2	1	19	G4	press
326.736	n/a	RESPONSE	        M2	1	17	F4	press
326.865	n/a	RESPONSE	        M2	1	19	G4	release
326.885	n/a	RESPONSE	        M2	1	04	E3	release
327.002	n/a	RESPONSE	        M2	1	11	B3	release
327.04	n/a	RESPONSE	        M2	1	16	E4	press
327.068	n/a	RESPONSE	        M2	1	17	F4	release
327.087	n/a	RESPONSE	        M2	1	04	E3	press
327.09	n/a	RESPONSE	        M2	1	11	B3	press
327.381	n/a	RESPONSE	        M2	1	14	D4	press
327.488	n/a	RESPONSE	        M2	1	04	E3	release
327.506	n/a	RESPONSE	        M2	1	16	E4	release
327.542	n/a	RESPONSE	        M2	1	11	B3	release
327.72	n/a	RESPONSE	        M2	1	12	C4	press
327.833	n/a	RESPONSE	        M2	1	14	D4	release
328.258	n/a	RESPONSE	        M2	1	12	C4	release
330.665	n/a	RESPONSE	        M2	1	00	C3	press
330.667	n/a	RESPONSE	        M2	1	07	G3	press
331.067	n/a	RESPONSE	        M2	1	00	C3	release
331.388	n/a	RESPONSE	        M2	1	07	G3	release
331.554	6.325	CUE_LISTEN	        M2	2	n/a	n/a	n/a
334.451	n/a	RESPONSE	        M2	2	24	C5	press
334.592	n/a	RESPONSE	        M2	2	24	C5	release
337.879	7.758	FIXCROSS	n/a	n/a	n/a	n/a	n/a
345.638	6.317	CUE_PLAYBACK_BOTH_HANDS	        M2	2	n/a	n/a	n/a
346.153	n/a	RESPONSE	        M2	2	00	C3	press
346.158	n/a	RESPONSE	        M2	2	07	G3	press
346.177	n/a	RESPONSE	        M2	2	12	C4	press
346.501	n/a	RESPONSE	        M2	2	14	D4	press
346.613	n/a	RESPONSE	        M2	2	12	C4	release
346.67	n/a	RESPONSE	        M2	2	00	C3	release
346.816	n/a	RESPONSE	        M2	2	00	C3	press
346.855	n/a	RESPONSE	        M2	2	16	E4	press
346.931	n/a	RESPONSE	        M2	2	14	D4	release
347.203	n/a	RESPONSE	        M2	2	14	D4	press
347.286	n/a	RESPONSE	        M2	2	16	E4	release
347.293	n/a	RESPONSE	        M2	2	00	C3	release
347.347	n/a	RESPONSE	        M2	2	07	G3	release
347.536	n/a	RESPONSE	        M2	2	16	E4	press
347.538	n/a	RESPONSE	        M2	2	00	C3	press
347.541	n/a	RESPONSE	        M2	2	07	G3	press
347.638	n/a	RESPONSE	        M2	2	14	D4	release
347.868	n/a	RESPONSE	        M2	2	17	F4	press
347.977	n/a	RESPONSE	        M2	2	16	E4	release
347.993	n/a	RESPONSE	        M2	2	00	C3	release
348.028	n/a	RESPONSE	        M2	2	07	G3	release
348.188	n/a	RESPONSE	        M2	2	07	G3	press
348.2	n/a	RESPONSE	        M2	2	00	C3	press
348.202	n/a	RESPONSE	        M2	2	19	G4	press
348.267	n/a	RESPONSE	        M2	2	17	F4	release
348.668	n/a	RESPONSE	        M2	2	19	G4	release
348.686	n/a	RESPONSE	        M2	2	00	C3	release
348.793	n/a	RESPONSE	        M2	2	07	G3	release
348.865	n/a	RESPONSE	        M2	2	16	E4	press
348.878	n/a	RESPONSE	        M2	2	00	C3	press
348.881	n/a	RESPONSE	        M2	2	07	G3	press
349.221	n/a	RESPONSE	        M2	2	19	G4	press
349.302	n/a	RESPONSE	        M2	2	16	E4	release
349.353	n/a	RESPONSE	        M2	2	00	C3	release
349.394	n/a	RESPONSE	        M2	2	07	G3	release
349.526	n/a	RESPONSE	        M2	2	19	G4	release
349.577	n/a	RESPONSE	        M2	2	07	G3	press
349.58	n/a	RESPONSE	        M2	2	00	C3	press
349.62	n/a	RESPONSE	        M2	2	19	G4	press
349.923	n/a	RESPONSE	        M2	2	17	F4	press
349.983	n/a	RESPONSE	        M2	2	00	C3	release
350.036	n/a	RESPONSE	        M2	2	19	G4	release
350.105	n/a	RESPONSE	        M2	2	07	G3	release
350.267	n/a	RESPONSE	        M2	2	16	E4	press
350.287	n/a	RESPONSE	        M2	2	00	C3	press
350.298	n/a	RESPONSE	        M2	2	07	G3	press
350.392	n/a	RESPONSE	        M2	2	17	F4	release
350.643	n/a	RESPONSE	        M2	2	14	D4	press
350.722	n/a	RESPONSE	        M2	2	00	C3	release
350.745	n/a	RESPONSE	        M2	2	16	E4	release
350.767	n/a	RESPONSE	        M2	2	07	G3	release
350.956	n/a	RESPONSE	        M2	2	14	D4	release
350.967	n/a	RESPONSE	        M2	2	12	C4	press
350.978	n/a	RESPONSE	        M2	2	07	G3	press
350.99	n/a	RESPONSE	        M2	2	00	C3	press
351.722	n/a	RESPONSE	        M2	2	12	C4	release
351.762	n/a	RESPONSE	        M2	2	00	C3	release
351.853	n/a	RESPONSE	        M2	2	07	G3	release
351.954	7.758	FIXCROSS	n/a	n/a	n/a	n/a	n/a
359.712	6.325	CUE_LISTEN	        M8	1	n/a	n/a	n/a
366.038	7.758	FIXCROSS	n/a	n/a	n/a	n/a	n/a
373.796	6.317	CUE_PLAYBACK_BOTH_HANDS	        M8	1	n/a	n/a	n/a
374.236	n/a	RESPONSE	        M8	1	12	C4	press
374.595	n/a	RESPONSE	        M8	1	16	E4	press
374.756	n/a	RESPONSE	        M8	1	12	C4	release
374.918	n/a	RESPONSE	        M8	1	19	G4	press
375.018	n/a	RESPONSE	        M8	1	16	E4	release
375.297	n/a	RESPONSE	        M8	1	19	G4	release
375.477	n/a	RESPONSE	        M8	1	19	G4	press
376.352	n/a	RESPONSE	        M8	1	13	C#4	press
376.372	n/a	RESPONSE	        M8	1	09	A3	press
376.463	n/a	RESPONSE	        M8	1	19	G4	release
376.91	n/a	RESPONSE	        M8	1	12	C4	press
377.248	n/a	RESPONSE	        M8	1	09	A3	release
377.408	n/a	RESPONSE	        M8	1	17	F4	press
377.464	n/a	RESPONSE	        M8	1	13	C#4	release
377.491	n/a	RESPONSE	        M8	1	19	G4	press
377.568	n/a	RESPONSE	        M8	1	12	C4	release
377.626	n/a	RESPONSE	        M8	1	17	F4	release
377.82	n/a	RESPONSE	        M8	1	19	G4	release
379.231	n/a	RESPONSE	        M8	1	14	D4	press
379.533	n/a	RESPONSE	        M8	1	14	D4	release
380.112	7.758	FIXCROSS	n/a	n/a	n/a	n/a	n/a
382.297	n/a	RESPONSE	        M8	1	16	E4	press
382.926	n/a	RESPONSE	        M8	1	16	E4	release
384.02	n/a	RESPONSE	        M8	1	09	A3	press
384.298	n/a	RESPONSE	        M8	1	09	A3	release
386.586	n/a	RESPONSE	        M8	1	09	A3	press
386.847	n/a	RESPONSE	        M8	1	09	A3	release
387.871	6.325	CUE_LISTEN	        M8	2	n/a	n/a	n/a
394.196	7.758	FIXCROSS	n/a	n/a	n/a	n/a	n/a
401.954	6.317	CUE_PLAYBACK_BOTH_HANDS	        M8	2	n/a	n/a	n/a
402.326	n/a	RESPONSE	        M8	2	16	E4	press
402.627	n/a	RESPONSE	        M8	2	23	B4	press
402.9	n/a	RESPONSE	        M8	2	23	B4	release
402.95	n/a	RESPONSE	        M8	2	16	E4	release
403.082	n/a	RESPONSE	        M8	2	16	E4	press
403.332	n/a	RESPONSE	        M8	2	19	G4	press
403.456	n/a	RESPONSE	        M8	2	16	E4	release
403.606	n/a	RESPONSE	        M8	2	23	B4	press
403.726	n/a	RESPONSE	        M8	2	19	G4	release
403.917	n/a	RESPONSE	        M8	2	23	B4	release
404.078	n/a	RESPONSE	        M8	2	23	B4	press
404.51	n/a	RESPONSE	        M8	2	09	A3	press
404.512	n/a	RESPONSE	        M8	2	18	F#4	press
404.572	n/a	RESPONSE	        M8	2	23	B4	release
404.976	n/a	RESPONSE	        M8	2	12	C4	press
405.164	n/a	RESPONSE	        M8	2	09	A3	release
406.276	n/a	RESPONSE	        M8	2	16	E4	press
406.304	n/a	RESPONSE	        M8	2	21	A4	press
406.463	n/a	RESPONSE	        M8	2	18	F#4	release
406.466	n/a	RESPONSE	        M8	2	12	C4	release
406.763	n/a	RESPONSE	        M8	2	21	A4	release
406.803	n/a	RESPONSE	        M8	2	16	E4	release
406.891	n/a	RESPONSE	        M8	2	16	E4	press
408.271	7.758	FIXCROSS	n/a	n/a	n/a	n/a	n/a
409.128	n/a	RESPONSE	        M8	2	23	B4	press
409.131	n/a	RESPONSE	        M8	2	15	D#4	press
409.243	n/a	RESPONSE	        M8	2	16	E4	release
410.022	n/a	RESPONSE	        M8	2	11	B3	press
410.103	n/a	RESPONSE	        M8	2	21	A4	press
410.137	n/a	RESPONSE	        M8	2	15	D#4	release
410.206	n/a	RESPONSE	        M8	2	23	B4	release
410.437	n/a	RESPONSE	        M8	2	19	G4	press
410.588	n/a	RESPONSE	        M8	2	21	A4	release
410.93	n/a	RESPONSE	        M8	2	18	F#4	press
411.101	n/a	RESPONSE	        M8	2	19	G4	release
411.332	n/a	RESPONSE	        M8	2	19	G4	press
411.453	n/a	RESPONSE	        M8	2	11	B3	release
411.504	n/a	RESPONSE	        M8	2	18	F#4	release
412.146	n/a	RESPONSE	        M8	2	12	C4	press
412.928	n/a	RESPONSE	        M8	2	11	B3	press
412.968	n/a	RESPONSE	        M8	2	17	F4	press
413.03	n/a	RESPONSE	        M8	2	12	C4	release
413.121	n/a	RESPONSE	        M8	2	19	G4	release
413.643	n/a	RESPONSE	        M8	2	09	A3	press
413.666	n/a	RESPONSE	        M8	2	07	G3	press
413.694	n/a	RESPONSE	        M8	2	11	B3	release
413.826	n/a	RESPONSE	        M8	2	07	G3	release
414.037	n/a	RESPONSE	        M8	2	09	A3	release
414.178	n/a	RESPONSE	        M8	2	07	G3	press
414.72	n/a	RESPONSE	        M8	2	04	E3	press
414.781	n/a	RESPONSE	        M8	2	07	G3	release
415.064	n/a	RESPONSE	        M8	2	17	F4	release
415.378	n/a	RESPONSE	        M8	2	04	E3	release
415.457	n/a	RESPONSE	        M8	2	04	E3	press
416.029	6.317	CUE_LISTEN	        M4	1	n/a	n/a	n/a
416.326	n/a	RESPONSE	        M4	1	04	E3	release
422.346	7.759	FIXCROSS	n/a	n/a	n/a	n/a	n/a
424.912	n/a	RESPONSE	        M4	1	14	D4	press
425.103	n/a	RESPONSE	        M4	1	14	D4	release
425.763	n/a	RESPONSE	        M4	1	14	D4	press
428.25	n/a	RESPONSE	        M4	1	04	E3	press
428.91	n/a	RESPONSE	        M4	1	14	D4	release
429.468	n/a	RESPONSE	        M4	1	04	E3	release
430.104	6.317	CUE_PLAYBACK_RIGHT_HAND	        M4	1	n/a	n/a	n/a
432.001	n/a	RESPONSE	        M4	1	19	G4	press
432.233	n/a	RESPONSE	        M4	1	18	F#4	press
432.344	n/a	RESPONSE	        M4	1	19	G4	release
432.474	n/a	RESPONSE	        M4	1	19	G4	press
432.566	n/a	RESPONSE	        M4	1	18	F#4	release
432.967	n/a	RESPONSE	        M4	1	23	B4	press
433.068	n/a	RESPONSE	        M4	1	19	G4	release
433.18	n/a	RESPONSE	        M4	1	24	C5	press
433.301	n/a	RESPONSE	        M4	1	23	B4	release
433.442	n/a	RESPONSE	        M4	1	23	B4	press
433.503	n/a	RESPONSE	        M4	1	24	C5	release
434.294	n/a	RESPONSE	        M4	1	18	F#4	press
434.346	n/a	RESPONSE	        M4	1	23	B4	release
434.477	n/a	RESPONSE	        M4	1	16	E4	press
434.588	n/a	RESPONSE	        M4	1	18	F#4	release
434.732	n/a	RESPONSE	        M4	1	18	F#4	press
434.821	n/a	RESPONSE	        M4	1	16	E4	release
435.142	n/a	RESPONSE	        M4	1	19	G4	press
435.233	n/a	RESPONSE	        M4	1	18	F#4	release
435.314	n/a	RESPONSE	        M4	1	21	A4	press
435.386	n/a	RESPONSE	        M4	1	19	G4	release
435.538	n/a	RESPONSE	        M4	1	19	G4	press
435.678	n/a	RESPONSE	        M4	1	21	A4	release
436.421	7.758	FIXCROSS	n/a	n/a	n/a	n/a	n/a
436.788	n/a	RESPONSE	        M4	1	19	G4	release
444.179	6.325	CUE_LISTEN	        M4	2	n/a	n/a	n/a
450.504	7.758	FIXCROSS	n/a	n/a	n/a	n/a	n/a
452.303	n/a	RESPONSE	        M4	2	23	B4	press
452.614	n/a	RESPONSE	        M4	2	23	B4	release
458.263	6.317	CUE_PLAYBACK_RIGHT_HAND	        M4	2	n/a	n/a	n/a
458.696	n/a	RESPONSE	        M4	2	23	B4	press
459.596	n/a	RESPONSE	        M4	2	19	G4	press
459.664	n/a	RESPONSE	        M4	2	23	B4	release
460.656	n/a	RESPONSE	        M4	2	19	G4	release
460.667	n/a	RESPONSE	        M4	2	23	B4	press
462.698	n/a	RESPONSE	        M4	2	18	F#4	press
462.75	n/a	RESPONSE	        M4	2	23	B4	release
464.401	n/a	RESPONSE	        M4	2	18	F#4	release
464.579	7.758	FIXCROSS	n/a	n/a	n/a	n/a	n/a
472.338	6.325	CUE_LISTEN	        M3	1	n/a	n/a	n/a
478.663	7.758	FIXCROSS	n/a	n/a	n/a	n/a	n/a
479.728	n/a	RESPONSE	        M3	1	12	C4	press
480.151	n/a	RESPONSE	        M3	1	12	C4	release
486.421	6.317	CUE_PLAYBACK_RIGHT_HAND	        M3	1	n/a	n/a	n/a
486.826	n/a	RESPONSE	        M3	1	19	G4	press
487.34	n/a	RESPONSE	        M3	1	16	E4	press
487.422	n/a	RESPONSE	        M3	1	19	G4	release
487.607	n/a	RESPONSE	        M3	1	16	E4	release
487.794	n/a	RESPONSE	        M3	1	16	E4	press
488.081	n/a	RESPONSE	        M3	1	16	E4	release
488.234	n/a	RESPONSE	        M3	1	17	F4	press
488.684	n/a	RESPONSE	        M3	1	14	D4	press
488.876	n/a	RESPONSE	        M3	1	17	F4	release
488.96	n/a	RESPONSE	        M3	1	14	D4	release
489.12	n/a	RESPONSE	        M3	1	14	D4	press
489.442	n/a	RESPONSE	        M3	1	14	D4	release
489.552	n/a	RESPONSE	        M3	1	12	C4	press
489.763	n/a	RESPONSE	        M3	1	16	E4	press
489.854	n/a	RESPONSE	        M3	1	12	C4	release
490.166	n/a	RESPONSE	        M3	1	16	E4	release
490.217	n/a	RESPONSE	        M3	1	19	G4	press
490.948	n/a	RESPONSE	        M3	1	19	G4	release
492.738	7.758	FIXCROSS	n/a	n/a	n/a	n/a	n/a
500.496	6.317	CUE_LISTEN	        M3	2	n/a	n/a	n/a
506.813	7.758	FIXCROSS	n/a	n/a	n/a	n/a	n/a
514.571	6.317	CUE_PLAYBACK_RIGHT_HAND	        M3	2	n/a	n/a	n/a
514.937	n/a	RESPONSE	        M3	2	19	G4	press
515.408	n/a	RESPONSE	        M3	2	16	E4	press
515.48	n/a	RESPONSE	        M3	2	19	G4	release
515.708	n/a	RESPONSE	        M3	2	16	E4	release
515.874	n/a	RESPONSE	        M3	2	16	E4	press
516.176	n/a	RESPONSE	        M3	2	16	E4	release
516.286	n/a	RESPONSE	        M3	2	17	F4	press
516.772	n/a	RESPONSE	        M3	2	14	D4	press
516.934	n/a	RESPONSE	        M3	2	17	F4	release
517.043	n/a	RESPONSE	        M3	2	14	D4	release
517.225	n/a	RESPONSE	        M3	2	14	D4	press
517.511	n/a	RESPONSE	        M3	2	14	D4	release
517.646	n/a	RESPONSE	        M3	2	12	C4	press
517.857	n/a	RESPONSE	        M3	2	16	E4	press
517.943	n/a	RESPONSE	        M3	2	12	C4	release
518.099	n/a	RESPONSE	        M3	2	12	C4	press
518.183	n/a	RESPONSE	        M3	2	16	E4	release
519.021	n/a	RESPONSE	        M3	2	12	C4	release
520.888	7.758	FIXCROSS	n/a	n/a	n/a	n/a	n/a
528.646	6.325	CUE_LISTEN	        M5	1	n/a	n/a	n/a
534.971	7.758	FIXCROSS	n/a	n/a	n/a	n/a	n/a
542.73	6.317	CUE_PLAYBACK_BOTH_HANDS	        M5	1	n/a	n/a	n/a
543.247	n/a	RESPONSE	        M5	1	07	G3	press
543.25	n/a	RESPONSE	        M5	1	22	A#4	press
543.729	n/a	RESPONSE	        M5	1	21	A4	press
543.871	n/a	RESPONSE	        M5	1	22	A#4	release
544.202	n/a	RESPONSE	        M5	1	19	G4	press
544.286	n/a	RESPONSE	        M5	1	21	A4	release
544.644	n/a	RESPONSE	        M5	1	21	A4	press
544.656	n/a	RESPONSE	        M5	1	05	F3	press
544.737	n/a	RESPONSE	        M5	1	19	G4	release
544.801	n/a	RESPONSE	        M5	1	07	G3	release
545.443	n/a	RESPONSE	        M5	1	12	C4	press
545.512	n/a	RESPONSE	        M5	1	21	A4	release
545.842	n/a	RESPONSE	        M5	1	12	C4	release
545.986	n/a	RESPONSE	        M5	1	12	C4	press
546.297	n/a	RESPONSE	        M5	1	03	D#3	press
546.308	n/a	RESPONSE	        M5	1	17	F4	press
546.374	n/a	RESPONSE	        M5	1	12	C4	release
546.377	n/a	RESPONSE	        M5	1	05	F3	release
547.527	n/a	RESPONSE	        M5	1	07	G3	press
547.74	n/a	RESPONSE	        M5	1	17	F4	release
547.979	n/a	RESPONSE	        M5	1	09	A3	press
548.063	n/a	RESPONSE	        M5	1	07	G3	release
548.398	n/a	RESPONSE	        M5	1	10	A#3	press
548.496	n/a	RESPONSE	        M5	1	09	A3	release
548.801	n/a	RESPONSE	        M5	1	12	C4	press
548.878	n/a	RESPONSE	        M5	1	10	A#3	release
549.046	7.758	FIXCROSS	n/a	n/a	n/a	n/a	n/a
549.297	n/a	RESPONSE	        M5	1	14	D4	press
549.299	n/a	RESPONSE	        M5	1	02	D3	press
549.379	n/a	RESPONSE	        M5	1	03	D#3	release
549.502	n/a	RESPONSE	        M5	1	12	C4	release
551.604	n/a	RESPONSE	        M5	1	02	D3	release
552.254	n/a	RESPONSE	        M5	1	14	D4	release
553.047	n/a	RESPONSE	        M5	1	14	D4	press
553.947	n/a	RESPONSE	        M5	1	14	D4	release
556.624	n/a	RESPONSE	        M5	1	14	D4	press
556.805	6.325	CUE_LISTEN	        M5	2	n/a	n/a	n/a
560.088	n/a	RESPONSE	        M5	2	07	G3	press
560.662	n/a	RESPONSE	        M5	2	07	G3	release
560.733	n/a	RESPONSE	        M5	2	14	D4	release
563.13	7.758	FIXCROSS	n/a	n/a	n/a	n/a	n/a
570.888	6.317	CUE_PLAYBACK_BOTH_HANDS	        M5	2	n/a	n/a	n/a
571.749	n/a	RESPONSE	        M5	2	12	C4	press
571.791	n/a	RESPONSE	        M5	2	19	G4	press
571.793	n/a	RESPONSE	        M5	2	16	E4	press
572.286	n/a	RESPONSE	        M5	2	21	A4	press
572.397	n/a	RESPONSE	        M5	2	19	G4	release
572.568	n/a	RESPONSE	        M5	2	19	G4	press
572.697	n/a	RESPONSE	        M5	2	21	A4	release
573.098	n/a	RESPONSE	        M5	2	18	F#4	press
573.111	n/a	RESPONSE	        M5	2	09	A3	press
573.113	n/a	RESPONSE	        M5	2	11	B3	press
573.273	n/a	RESPONSE	        M5	2	16	E4	release
573.316	n/a	RESPONSE	        M5	2	19	G4	release
573.686	n/a	RESPONSE	        M5	2	19	G4	press
573.807	n/a	RESPONSE	        M5	2	18	F#4	release
573.861	n/a	RESPONSE	        M5	2	11	B3	release
573.88	n/a	RESPONSE	        M5	2	12	C4	release
574.471	n/a	RESPONSE	        M5	2	09	A3	release
574.582	n/a	RESPONSE	        M5	2	19	G4	release
575.043	n/a	RESPONSE	        M5	2	12	C4	press
575.254	n/a	RESPONSE	        M5	2	12	C4	release
575.827	n/a	RESPONSE	        M5	2	11	B3	press
575.849	n/a	RESPONSE	        M5	2	17	F4	press
575.864	n/a	RESPONSE	        M5	2	14	D4	press
576.178	n/a	RESPONSE	        M5	2	19	G4	press
576.306	n/a	RESPONSE	        M5	2	17	F4	release
576.447	n/a	RESPONSE	        M5	2	17	F4	press
576.576	n/a	RESPONSE	        M5	2	19	G4	release
576.917	n/a	RESPONSE	        M5	2	16	E4	press
576.969	n/a	RESPONSE	        M5	2	07	G3	press
577.087	n/a	RESPONSE	        M5	2	14	D4	release
577.167	n/a	RESPONSE	        M5	2	17	F4	release
577.205	7.758	FIXCROSS	n/a	n/a	n/a	n/a	n/a
577.337	n/a	RESPONSE	        M5	2	17	F4	press
577.392	n/a	RESPONSE	        M5	2	16	E4	release
577.533	n/a	RESPONSE	        M5	2	11	B3	release
578.339	n/a	RESPONSE	        M5	2	17	F4	release
578.449	n/a	RESPONSE	        M5	2	07	G3	release
581.709	n/a	RESPONSE	        M5	2	11	B3	press
581.751	n/a	RESPONSE	        M5	2	17	F4	press
581.772	n/a	RESPONSE	        M5	2	14	D4	press
582.093	n/a	RESPONSE	        M5	2	19	G4	press
582.177	n/a	RESPONSE	        M5	2	17	F4	release
582.356	n/a	RESPONSE	        M5	2	17	F4	press
582.457	n/a	RESPONSE	        M5	2	19	G4	release
582.978	n/a	RESPONSE	        M5	2	15	D#4	press
583.001	n/a	RESPONSE	        M5	2	07	G3	press
583.202	n/a	RESPONSE	        M5	2	17	F4	release
583.243	n/a	RESPONSE	        M5	2	11	B3	release
583.303	n/a	RESPONSE	        M5	2	17	F4	press
583.364	n/a	RESPONSE	        M5	2	14	D4	release
583.377	n/a	RESPONSE	        M5	2	15	D#4	release
584.017	n/a	RESPONSE	        M5	2	12	C4	press
584.019	n/a	RESPONSE	        M5	2	14	D4	press
584.202	n/a	RESPONSE	        M5	2	12	C4	release
584.252	n/a	RESPONSE	        M5	2	14	D4	release
584.872	n/a	RESPONSE	        M5	2	12	C4	press
584.963	6.317	CUE_LISTEN	        M1	1	n/a	n/a	n/a
585.163	n/a	RESPONSE	        M1	1	17	F4	release
585.277	n/a	RESPONSE	        M1	1	07	G3	release
585.288	n/a	RESPONSE	        M1	1	12	C4	release
591.28	7.758	FIXCROSS	n/a	n/a	n/a	n/a	n/a
599.038	6.325	CUE_PLAYBACK_RIGHT_HAND	        M1	1	n/a	n/a	n/a
599.434	n/a	RESPONSE	        M1	1	21	A4	press
599.664	n/a	RESPONSE	        M1	1	21	A4	release
599.754	n/a	RESPONSE	        M1	1	21	A4	press
599.946	n/a	RESPONSE	        M1	1	21	A4	release
600.057	n/a	RESPONSE	        M1	1	21	A4	press
600.488	n/a	RESPONSE	        M1	1	21	A4	release
600.589	n/a	RESPONSE	        M1	1	21	A4	press
600.771	n/a	RESPONSE	        M1	1	21	A4	release
600.872	n/a	RESPONSE	        M1	1	21	A4	press
601.053	n/a	RESPONSE	        M1	1	21	A4	release
601.164	n/a	RESPONSE	        M1	1	21	A4	press
601.516	n/a	RESPONSE	        M1	1	21	A4	release
601.628	n/a	RESPONSE	        M1	1	21	A4	press
601.838	n/a	RESPONSE	        M1	1	24	C5	press
601.889	n/a	RESPONSE	        M1	1	21	A4	release
602.141	n/a	RESPONSE	        M1	1	16	E4	press
602.322	n/a	RESPONSE	        M1	1	16	E4	release
602.646	n/a	RESPONSE	        M1	1	17	F4	press
602.784	n/a	RESPONSE	        M1	1	24	C5	release
602.937	n/a	RESPONSE	        M1	1	19	G4	press
603.019	n/a	RESPONSE	        M1	1	17	F4	release
603.209	n/a	RESPONSE	        M1	1	21	A4	press
603.469	n/a	RESPONSE	        M1	1	19	G4	release
603.811	n/a	RESPONSE	        M1	1	21	A4	release
605.363	7.758	FIXCROSS	n/a	n/a	n/a	n/a	n/a
613.121	6.317	CUE_LISTEN	        M1	2	n/a	n/a	n/a
619.438	7.758	FIXCROSS	n/a	n/a	n/a	n/a	n/a
627.196	6.317	CUE_PLAYBACK_RIGHT_HAND	        M1	2	n/a	n/a	n/a
627.634	n/a	RESPONSE	        M1	2	22	A#4	press
627.884	n/a	RESPONSE	        M1	2	22	A#4	release
627.982	n/a	RESPONSE	        M1	2	22	A#4	press
628.192	n/a	RESPONSE	        M1	2	22	A#4	release
628.288	n/a	RESPONSE	        M1	2	22	A#4	press
628.472	n/a	RESPONSE	        M1	2	22	A#4	release
628.602	n/a	RESPONSE	        M1	2	22	A#4	press
628.769	n/a	RESPONSE	        M1	2	22	A#4	release
628.887	n/a	RESPONSE	        M1	2	22	A#4	press
629.158	n/a	RESPONSE	        M1	2	22	A#4	release
629.201	n/a	RESPONSE	        M1	2	21	A4	press
629.421	n/a	RESPONSE	        M1	2	21	A4	release
629.503	n/a	RESPONSE	        M1	2	21	A4	press
629.713	n/a	RESPONSE	        M1	2	21	A4	release
629.834	n/a	RESPONSE	        M1	2	21	A4	press
630.026	n/a	RESPONSE	        M1	2	21	A4	release
630.147	n/a	RESPONSE	        M1	2	21	A4	press
630.428	n/a	RESPONSE	        M1	2	21	A4	release
630.479	n/a	RESPONSE	        M1	2	19	G4	press
630.701	n/a	RESPONSE	        M1	2	19	G4	release
630.782	n/a	RESPONSE	        M1	2	19	G4	press
631.013	n/a	RESPONSE	        M1	2	19	G4	release
631.084	n/a	RESPONSE	        M1	2	21	A4	press
631.336	n/a	RESPONSE	        M1	2	21	A4	release
631.417	n/a	RESPONSE	        M1	2	24	C5	press
631.748	n/a	RESPONSE	        M1	2	24	C5	release
633.513	7.758	FIXCROSS	n/a	n/a	n/a	n/a	n/a
641.272	6.325	CUE_LISTEN	        M7	1	n/a	n/a	n/a
647.596	7.758	FIXCROSS	n/a	n/a	n/a	n/a	n/a
655.355	6.317	CUE_PLAYBACK_BOTH_HANDS	        M7	1	n/a	n/a	n/a
656.123	n/a	RESPONSE	        M7	1	00	C3	press
656.178	n/a	RESPONSE	        M7	1	12	C4	press
656.662	n/a	RESPONSE	        M7	1	07	G3	press
656.683	n/a	RESPONSE	        M7	1	14	D4	press
656.809	n/a	RESPONSE	        M7	1	00	C3	release
656.828	n/a	RESPONSE	        M7	1	12	C4	release
657.137	n/a	RESPONSE	        M7	1	16	E4	press
657.149	n/a	RESPONSE	        M7	1	04	E3	press
657.262	n/a	RESPONSE	        M7	1	14	D4	release
657.304	n/a	RESPONSE	        M7	1	07	G3	release
657.628	n/a	RESPONSE	        M7	1	07	G3	press
657.633	n/a	RESPONSE	        M7	1	12	C4	press
657.752	n/a	RESPONSE	        M7	1	16	E4	release
657.789	n/a	RESPONSE	        M7	1	04	E3	release
657.906	n/a	RESPONSE	        M7	1	12	C4	release
657.944	n/a	RESPONSE	        M7	1	07	G3	release
658.068	n/a	RESPONSE	        M7	1	00	C3	press
658.103	n/a	RESPONSE	        M7	1	12	C4	press
658.557	n/a	RESPONSE	        M7	1	07	G3	press
658.562	n/a	RESPONSE	        M7	1	14	D4	press
658.657	n/a	RESPONSE	        M7	1	12	C4	release
658.663	n/a	RESPONSE	        M7	1	00	C3	release
658.989	n/a	RESPONSE	        M7	1	16	E4	press
659.031	n/a	RESPONSE	        M7	1	04	E3	press
659.092	n/a	RESPONSE	        M7	1	14	D4	release
659.163	n/a	RESPONSE	        M7	1	07	G3	release
659.464	n/a	RESPONSE	        M7	1	07	G3	press
659.476	n/a	RESPONSE	        M7	1	12	C4	press
659.607	n/a	RESPONSE	        M7	1	16	E4	release
659.638	n/a	RESPONSE	        M7	1	04	E3	release
659.729	n/a	RESPONSE	        M7	1	12	C4	release
659.781	n/a	RESPONSE	        M7	1	07	G3	release
659.924	n/a	RESPONSE	        M7	1	00	C3	press
659.933	n/a	RESPONSE	        M7	1	16	E4	press
660.374	n/a	RESPONSE	        M7	1	17	F4	press
660.377	n/a	RESPONSE	        M7	1	07	G3	press
660.467	n/a	RESPONSE	        M7	1	16	E4	release
660.478	n/a	RESPONSE	        M7	1	00	C3	release
660.779	n/a	RESPONSE	        M7	1	19	G4	press
660.782	n/a	RESPONSE	        M7	1	04	E3	press
660.882	n/a	RESPONSE	        M7	1	17	F4	release
660.913	n/a	RESPONSE	        M7	1	07	G3	release
661.244	n/a	RESPONSE	        M7	1	07	G3	press
661.396	n/a	RESPONSE	        M7	1	04	E3	release
661.429	n/a	RESPONSE	        M7	1	19	G4	release
661.588	n/a	RESPONSE	        M7	1	07	G3	release
661.671	7.758	FIXCROSS	n/a	n/a	n/a	n/a	n/a
661.679	n/a	RESPONSE	        M7	1	00	C3	press
661.682	n/a	RESPONSE	        M7	1	16	E4	press
662.082	n/a	RESPONSE	        M7	1	17	F4	press
662.084	n/a	RESPONSE	        M7	1	07	G3	press
662.174	n/a	RESPONSE	        M7	1	16	E4	release
662.216	n/a	RESPONSE	        M7	1	00	C3	release
662.488	n/a	RESPONSE	        M7	1	19	G4	press
662.508	n/a	RESPONSE	        M7	1	04	E3	press
662.599	n/a	RESPONSE	        M7	1	17	F4	release
662.642	n/a	RESPONSE	        M7	1	07	G3	release
662.962	n/a	RESPONSE	        M7	1	07	G3	press
663.116	n/a	RESPONSE	        M7	1	04	E3	release
663.234	n/a	RESPONSE	        M7	1	19	G4	release
663.346	n/a	RESPONSE	        M7	1	07	G3	release
669.43	6.317	CUE_LISTEN	        M7	2	n/a	n/a	n/a
675.746	7.758	FIXCROSS	n/a	n/a	n/a	n/a	n/a
683.505	6.325	CUE_PLAYBACK_BOTH_HANDS	        M7	2	n/a	n/a	n/a
683.926	n/a	RESPONSE	        M7	2	00	C3	press
683.929	n/a	RESPONSE	        M7	2	19	G4	press
684.188	n/a	RESPONSE	        M7	2	21	A4	press
684.299	n/a	RESPONSE	        M7	2	19	G4	release
684.462	n/a	RESPONSE	        M7	2	19	G4	press
684.512	n/a	RESPONSE	        M7	2	07	G3	press
684.534	n/a	RESPONSE	        M7	2	05	F3	press
684.584	n/a	RESPONSE	        M7	2	21	A4	release
684.837	n/a	RESPONSE	        M7	2	05	F3	release
684.877	n/a	RESPONSE	        M7	2	17	F4	press
684.958	n/a	RESPONSE	        M7	2	00	C3	release
685.039	n/a	RESPONSE	        M7	2	19	G4	release
685.221	n/a	RESPONSE	        M7	2	04	E3	press
685.223	n/a	RESPONSE	        M7	2	16	E4	press
685.354	n/a	RESPONSE	        M7	2	17	F4	release
685.381	n/a	RESPONSE	        M7	2	07	G3	release
685.869	n/a	RESPONSE	        M7	2	12	C4	press
686.007	n/a	RESPONSE	        M7	2	16	E4	release
686.191	n/a	RESPONSE	        M7	2	12	C4	release
686.242	n/a	RESPONSE	        M7	2	04	E3	release
686.459	n/a	RESPONSE	        M7	2	19	G4	press
686.462	n/a	RESPONSE	        M7	2	00	C3	press
686.681	n/a	RESPONSE	        M7	2	21	A4	press
686.787	n/a	RESPONSE	        M7	2	19	G4	release
686.927	n/a	RESPONSE	        M7	2	19	G4	press
686.958	n/a	RESPONSE	        M7	2	07	G3	press
687.029	n/a	RESPONSE	        M7	2	21	A4	release
687.161	n/a	RESPONSE	        M7	2	00	C3	release
687.189	n/a	RESPONSE	        M7	2	17	F4	press
687.317	n/a	RESPONSE	        M7	2	19	G4	release
687.421	n/a	RESPONSE	        M7	2	04	E3	press
687.467	n/a	RESPONSE	        M7	2	16	E4	press
687.548	n/a	RESPONSE	        M7	2	07	G3	release
687.584	n/a	RESPONSE	        M7	2	17	F4	release
687.918	n/a	RESPONSE	        M7	2	12	C4	press
687.921	n/a	RESPONSE	        M7	2	07	G3	press
688.004	n/a	RESPONSE	        M7	2	16	E4	release
688.104	n/a	RESPONSE	        M7	2	04	E3	release
688.222	n/a	RESPONSE	        M7	2	07	G3	release
688.224	n/a	RESPONSE	        M7	2	12	C4	release
688.369	n/a	RESPONSE	        M7	2	00	C3	press
688.391	n/a	RESPONSE	        M7	2	12	C4	press
688.828	n/a	RESPONSE	        M7	2	07	G3	press
688.913	n/a	RESPONSE	        M7	2	00	C3	release
688.954	n/a	RESPONSE	        M7	2	12	C4	release
689.256	n/a	RESPONSE	        M7	2	12	C4	press
689.267	n/a	RESPONSE	        M7	2	00	C3	press
689.348	n/a	RESPONSE	        M7	2	07	G3	release
689.809	n/a	RESPONSE	        M7	2	00	C3	release
689.83	7.758	FIXCROSS	n/a	n/a	n/a	n/a	n/a
689.833	n/a	RESPONSE	        M7	2	12	C4	release
689.982	n/a	RESPONSE	        M7	2	00	C3	press
690.026	n/a	RESPONSE	        M7	2	12	C4	press
690.446	n/a	RESPONSE	        M7	2	07	G3	press
690.556	n/a	RESPONSE	        M7	2	00	C3	release
690.578	n/a	RESPONSE	        M7	2	12	C4	release
690.838	n/a	RESPONSE	        M7	2	00	C3	press
690.879	n/a	RESPONSE	        M7	2	12	C4	press
690.953	n/a	RESPONSE	        M7	2	07	G3	release
691.623	n/a	RESPONSE	        M7	2	00	C3	release
691.626	n/a	RESPONSE	        M7	2	12	C4	release
697.588	6.317	CUE_LISTEN	        M4	1	n/a	n/a	n/a
703.905	7.758	FIXCROSS	n/a	n/a	n/a	n/a	n/a
705.283	n/a	RESPONSE	        M4	1	02	D3	press
705.286	n/a	RESPONSE	        M4	1	12	C4	press
706.086	n/a	RESPONSE	        M4	1	12	C4	release
709.916	n/a	RESPONSE	        M4	1	16	E4	press
710.117	n/a	RESPONSE	        M4	1	16	E4	release
710.658	n/a	RESPONSE	        M4	1	02	D3	release
711.663	6.325	CUE_PLAYBACK_BOTH_HANDS	        M4	1	n/a	n/a	n/a
711.779	n/a	RESPONSE	        M4	1	02	D3	press
712.091	n/a	RESPONSE	        M4	1	02	D3	release
712.182	n/a	RESPONSE	        M4	1	02	D3	press
712.184	n/a	RESPONSE	        M4	1	12	C4	press
712.396	n/a	RESPONSE	        M4	1	17	F4	press
712.796	n/a	RESPONSE	        M4	1	02	D3	release
712.807	n/a	RESPONSE	        M4	1	17	F4	release
712.928	n/a	RESPONSE	        M4	1	12	C4	release
713.481	n/a	RESPONSE	        M4	1	12	C4	press
713.501	n/a	RESPONSE	        M4	1	02	D3	press
713.934	n/a	RESPONSE	        M4	1	19	G4	press
714.073	n/a	RESPONSE	        M4	1	09	A3	press
714.077	n/a	RESPONSE	        M4	1	07	G3	press
714.146	n/a	RESPONSE	        M4	1	02	D3	release
714.267	n/a	RESPONSE	        M4	1	12	C4	release
714.321	n/a	RESPONSE	        M4	1	18	F#4	press
714.459	n/a	RESPONSE	        M4	1	19	G4	release
714.483	n/a	RESPONSE	        M4	1	07	G3	release
714.614	n/a	RESPONSE	        M4	1	19	G4	press
714.684	n/a	RESPONSE	        M4	1	18	F#4	release
714.767	n/a	RESPONSE	        M4	1	05	F3	press
714.776	n/a	RESPONSE	        M4	1	12	C4	press
714.929	n/a	RESPONSE	        M4	1	09	A3	release
715.274	n/a	RESPONSE	        M4	1	23	B4	press
715.277	n/a	RESPONSE	        M4	1	09	A3	press
715.392	n/a	RESPONSE	        M4	1	19	G4	release
715.397	n/a	RESPONSE	        M4	1	12	C4	release
715.434	n/a	RESPONSE	        M4	1	05	F3	release
715.522	n/a	RESPONSE	        M4	1	24	C5	press
715.631	n/a	RESPONSE	        M4	1	23	B4	release
715.782	n/a	RESPONSE	        M4	1	23	B4	press
715.816	n/a	RESPONSE	        M4	1	02	D3	press
715.818	n/a	RESPONSE	        M4	1	04	E3	press
715.836	n/a	RESPONSE	        M4	1	12	C4	press
715.866	n/a	RESPONSE	        M4	1	24	C5	release
715.931	n/a	RESPONSE	        M4	1	09	A3	release
716.077	n/a	RESPONSE	        M4	1	04	E3	release
716.362	n/a	RESPONSE	        M4	1	09	A3	press
716.364	n/a	RESPONSE	        M4	1	02	D3	release
716.449	n/a	RESPONSE	        M4	1	12	C4	release
716.592	n/a	RESPONSE	        M4	1	23	B4	release
716.827	n/a	RESPONSE	        M4	1	12	C4	press
716.858	n/a	RESPONSE	        M4	1	05	F3	press
716.983	n/a	RESPONSE	        M4	1	09	A3	release
717.297	n/a	RESPONSE	        M4	1	09	A3	press
717.402	n/a	RESPONSE	        M4	1	05	F3	release
717.434	n/a	RESPONSE	        M4	1	12	C4	release
717.727	n/a	RESPONSE	        M4	1	02	D3	press
717.764	n/a	RESPONSE	        M4	1	12	C4	press
717.837	n/a	RESPONSE	        M4	1	09	A3	release
717.988	7.758	FIXCROSS	n/a	n/a	n/a	n/a	n/a
718.167	n/a	RESPONSE	        M4	1	09	A3	press
718.182	n/a	RESPONSE	        M4	1	18	F#4	press
718.288	n/a	RESPONSE	        M4	1	12	C4	release
718.306	n/a	RESPONSE	        M4	1	02	D3	release
718.357	n/a	RESPONSE	        M4	1	16	E4	press
718.442	n/a	RESPONSE	        M4	1	18	F#4	release
718.593	n/a	RESPONSE	        M4	1	18	F#4	press
718.608	n/a	RESPONSE	        M4	1	05	F3	press
718.621	n/a	RESPONSE	        M4	1	12	C4	press
718.667	n/a	RESPONSE	        M4	1	16	E4	release
718.793	n/a	RESPONSE	        M4	1	09	A3	release
719.007	n/a	RESPONSE	        M4	1	19	G4	press
719.048	n/a	RESPONSE	        M4	1	09	A3	press
719.089	n/a	RESPONSE	        M4	1	18	F#4	release
719.161	n/a	RESPONSE	        M4	1	05	F3	release
719.172	n/a	RESPONSE	        M4	1	12	C4	release
719.233	n/a	RESPONSE	        M4	1	21	A4	press
719.304	n/a	RESPONSE	        M4	1	19	G4	release
719.458	n/a	RESPONSE	        M4	1	02	D3	press
719.477	n/a	RESPONSE	        M4	1	19	G4	press
719.498	n/a	RESPONSE	        M4	1	12	C4	press
719.579	n/a	RESPONSE	        M4	1	21	A4	release
719.701	n/a	RESPONSE	        M4	1	09	A3	release
720.002	n/a	RESPONSE	        M4	1	09	A3	press
720.093	n/a	RESPONSE	        M4	1	12	C4	release
720.144	n/a	RESPONSE	        M4	1	02	D3	release
720.176	n/a	RESPONSE	        M4	1	19	G4	release
720.447	n/a	RESPONSE	        M4	1	05	F3	press
720.481	n/a	RESPONSE	        M4	1	12	C4	press
720.632	n/a	RESPONSE	        M4	1	09	A3	release
720.952	n/a	RESPONSE	        M4	1	09	A3	press
721.052	n/a	RESPONSE	        M4	1	05	F3	release
721.063	n/a	RESPONSE	        M4	1	12	C4	release
722.077	n/a	RESPONSE	        M4	1	09	A3	release
725.747	6.317	CUE_LISTEN	        M4	2	n/a	n/a	n/a
731.352	n/a	RESPONSE	        M4	2	16	E4	press
732.063	7.758	FIXCROSS	n/a	n/a	n/a	n/a	n/a
732.683	n/a	RESPONSE	        M4	2	16	E4	release
733.564	n/a	RESPONSE	        M4	2	04	E3	press
733.977	n/a	RESPONSE	        M4	2	04	E3	release
739.822	6.317	CUE_PLAYBACK_BOTH_HANDS	        M4	2	n/a	n/a	n/a
740.112	n/a	RESPONSE	        M4	2	04	E3	press
740.153	n/a	RESPONSE	        M4	2	16	E4	press
740.196	n/a	RESPONSE	        M4	2	14	D4	press
740.706	n/a	RESPONSE	        M4	2	11	B3	press
740.829	n/a	RESPONSE	        M4	2	14	D4	release
740.868	n/a	RESPONSE	        M4	2	16	E4	release
740.949	n/a	RESPONSE	        M4	2	04	E3	release
741.372	n/a	RESPONSE	        M4	2	06	F#3	press
741.464	n/a	RESPONSE	        M4	2	16	E4	press
741.563	n/a	RESPONSE	        M4	2	11	B3	release
741.584	n/a	RESPONSE	        M4	2	07	G3	press
741.817	n/a	RESPONSE	        M4	2	06	F#3	release
742.007	n/a	RESPONSE	        M4	2	16	E4	release
742.111	n/a	RESPONSE	        M4	2	11	B3	press
742.159	n/a	RESPONSE	        M4	2	19	G4	press
742.33	n/a	RESPONSE	        M4	2	07	G3	release
742.722	n/a	RESPONSE	        M4	2	11	B3	release
742.724	n/a	RESPONSE	        M4	2	16	E4	press
742.744	n/a	RESPONSE	        M4	2	04	E3	press
742.796	n/a	RESPONSE	        M4	2	23	B4	press
742.798	n/a	RESPONSE	        M4	2	19	G4	release
742.801	n/a	RESPONSE	        M4	2	14	D4	press
743.199	n/a	RESPONSE	        M4	2	11	B3	press
743.202	n/a	RESPONSE	        M4	2	23	B4	release
743.342	n/a	RESPONSE	        M4	2	14	D4	release
743.363	n/a	RESPONSE	        M4	2	23	B4	press
743.394	n/a	RESPONSE	        M4	2	16	E4	release
743.416	n/a	RESPONSE	        M4	2	19	G4	press
743.427	n/a	RESPONSE	        M4	2	04	E3	release
743.448	n/a	RESPONSE	        M4	2	23	B4	release
743.989	n/a	RESPONSE	        M4	2	07	G3	press
744.041	n/a	RESPONSE	        M4	2	16	E4	press
744.082	n/a	RESPONSE	        M4	2	19	G4	release
744.093	n/a	RESPONSE	        M4	2	14	D4	press
744.104	n/a	RESPONSE	        M4	2	11	B3	release
744.496	n/a	RESPONSE	        M4	2	11	B3	press
744.597	n/a	RESPONSE	        M4	2	14	D4	release
744.611	n/a	RESPONSE	        M4	2	16	E4	release
744.661	n/a	RESPONSE	        M4	2	07	G3	release
745.003	n/a	RESPONSE	        M4	2	04	E3	press
745.013	n/a	RESPONSE	        M4	2	16	E4	press
745.034	n/a	RESPONSE	        M4	2	11	B3	release
745.074	n/a	RESPONSE	        M4	2	14	D4	press
745.077	n/a	RESPONSE	        M4	2	23	B4	press
745.344	n/a	RESPONSE	        M4	2	23	B4	release
745.457	n/a	RESPONSE	        M4	2	14	D4	release
745.491	n/a	RESPONSE	        M4	2	04	E3	release
745.502	n/a	RESPONSE	        M4	2	16	E4	release
745.892	n/a	RESPONSE	        M4	2	14	D4	press
745.928	n/a	RESPONSE	        M4	2	02	D3	press
745.931	n/a	RESPONSE	        M4	2	04	E3	press
746.138	7.758	FIXCROSS	n/a	n/a	n/a	n/a	n/a
746.349	n/a	RESPONSE	        M4	2	04	E3	release
746.354	n/a	RESPONSE	        M4	2	02	D3	release
746.612	n/a	RESPONSE	        M4	2	02	D3	press
747.122	n/a	RESPONSE	        M4	2	09	A3	press
747.358	n/a	RESPONSE	        M4	2	09	A3	release
747.467	n/a	RESPONSE	        M4	2	14	D4	release
747.474	n/a	RESPONSE	        M4	2	02	D3	release
747.547	n/a	RESPONSE	        M4	2	02	D3	press
747.549	n/a	RESPONSE	        M4	2	23	B4	press
747.561	n/a	RESPONSE	        M4	2	14	D4	press
747.591	n/a	RESPONSE	        M4	2	12	C4	press
747.992	n/a	RESPONSE	        M4	2	09	A3	press
748.051	n/a	RESPONSE	        M4	2	12	C4	release
748.142	n/a	RESPONSE	        M4	2	02	D3	release
748.196	n/a	RESPONSE	        M4	2	14	D4	release
748.522	n/a	RESPONSE	        M4	2	05	F3	press
748.562	n/a	RESPONSE	        M4	2	14	D4	press
748.668	n/a	RESPONSE	        M4	2	09	A3	release
749.012	n/a	RESPONSE	        M4	2	09	A3	press
749.046	n/a	RESPONSE	        M4	2	19	G4	press
749.144	n/a	RESPONSE	        M4	2	14	D4	release
749.147	n/a	RESPONSE	        M4	2	05	F3	release
749.149	n/a	RESPONSE	        M4	2	23	B4	release
749.378	n/a	RESPONSE	        M4	2	19	G4	release
749.4	n/a	RESPONSE	        M4	2	09	A3	release
753.897	6.317	CUE_LISTEN	        M2	1	n/a	n/a	n/a
760.213	7.758	FIXCROSS	n/a	n/a	n/a	n/a	n/a
767.972	6.325	CUE_PLAYBACK_RIGHT_HAND	        M2	1	n/a	n/a	n/a
768.57	n/a	RESPONSE	        M2	1	00	C3	press
768.576	n/a	RESPONSE	        M2	1	24	C5	press
768.578	n/a	RESPONSE	        M2	1	09	A3	press
769.046	n/a	RESPONSE	        M2	1	00	C3	release
769.079	n/a	RESPONSE	        M2	1	24	C5	release
769.178	n/a	RESPONSE	        M2	1	09	A3	release
769.279	n/a	RESPONSE	        M2	1	24	C5	press
769.621	n/a	RESPONSE	        M2	1	19	G4	press
769.742	n/a	RESPONSE	        M2	1	24	C5	release
769.853	n/a	RESPONSE	        M2	1	19	G4	release
769.974	n/a	RESPONSE	        M2	1	19	G4	press
770.276	n/a	RESPONSE	        M2	1	17	F4	press
770.397	n/a	RESPONSE	        M2	1	19	G4	release
770.588	n/a	RESPONSE	        M2	1	16	E4	press
770.609	n/a	RESPONSE	        M2	1	17	F4	release
770.891	n/a	RESPONSE	        M2	1	17	F4	press
770.983	n/a	RESPONSE	        M2	1	16	E4	release
771.173	n/a	RESPONSE	        M2	1	19	G4	press
771.264	n/a	RESPONSE	        M2	1	17	F4	release
771.626	n/a	RESPONSE	        M2	1	19	G4	release
771.737	n/a	RESPONSE	        M2	1	24	C5	press
772.078	n/a	RESPONSE	        M2	1	24	C5	release
772.099	n/a	RESPONSE	        M2	1	19	G4	press
772.36	n/a	RESPONSE	        M2	1	19	G4	release
772.462	n/a	RESPONSE	        M2	1	19	G4	press
772.734	n/a	RESPONSE	        M2	1	17	F4	press
772.864	n/a	RESPONSE	        M2	1	19	G4	release
773.016	n/a	RESPONSE	        M2	1	16	E4	press
773.087	n/a	RESPONSE	        M2	1	17	F4	release
773.318	n/a	RESPONSE	        M2	1	14	D4	press
773.422	n/a	RESPONSE	        M2	1	16	E4	release
773.652	n/a	RESPONSE	        M2	1	12	C4	press
773.853	n/a	RESPONSE	        M2	1	14	D4	release
774.297	7.758	FIXCROSS	n/a	n/a	n/a	n/a	n/a
774.373	n/a	RESPONSE	        M2	1	12	C4	release
782.055	6.317	CUE_LISTEN	        M2	2	n/a	n/a	n/a
788.372	7.758	FIXCROSS	n/a	n/a	n/a	n/a	n/a
796.13	6.317	CUE_PLAYBACK_RIGHT_HAND	        M2	2	n/a	n/a	n/a
796.762	n/a	RESPONSE	        M2	2	12	C4	press
797.177	n/a	RESPONSE	        M2	2	14	D4	press
797.339	n/a	RESPONSE	        M2	2	12	C4	release
797.572	n/a	RESPONSE	        M2	2	16	E4	press
797.674	n/a	RESPONSE	        M2	2	14	D4	release
797.977	n/a	RESPONSE	        M2	2	14	D4	press
798.06	n/a	RESPONSE	        M2	2	16	E4	release
798.367	n/a	RESPONSE	        M2	2	16	E4	press
798.479	n/a	RESPONSE	        M2	2	14	D4	release
798.743	n/a	RESPONSE	        M2	2	17	F4	press
798.842	n/a	RESPONSE	        M2	2	16	E4	release
799.068	n/a	RESPONSE	        M2	2	19	G4	press
799.17	n/a	RESPONSE	        M2	2	17	F4	release
799.83	n/a	RESPONSE	        M2	2	19	G4	release
799.833	n/a	RESPONSE	        M2	2	16	E4	press
800.233	n/a	RESPONSE	        M2	2	19	G4	press
800.304	n/a	RESPONSE	        M2	2	16	E4	release
800.486	n/a	RESPONSE	        M2	2	19	G4	release
800.618	n/a	RESPONSE	        M2	2	19	G4	press
800.998	n/a	RESPONSE	        M2	2	17	F4	press
801.109	n/a	RESPONSE	        M2	2	19	G4	release
801.39	n/a	RESPONSE	        M2	2	16	E4	press
801.492	n/a	RESPONSE	        M2	2	17	F4	release
801.773	n/a	RESPONSE	        M2	2	14	D4	press
801.897	n/a	RESPONSE	        M2	2	16	E4	release
802.168	n/a	RESPONSE	        M2	2	12	C4	press
802.267	n/a	RESPONSE	        M2	2	14	D4	release
802.447	7.759	FIXCROSS	n/a	n/a	n/a	n/a	n/a
803.368	n/a	RESPONSE	        M2	2	12	C4	release
810.205	6.325	CUE_LISTEN	        M8	1	n/a	n/a	n/a
816.53	7.758	FIXCROSS	n/a	n/a	n/a	n/a	n/a
824.288	6.317	CUE_PLAYBACK_RIGHT_HAND	        M8	1	n/a	n/a	n/a
825.852	n/a	RESPONSE	        M8	1	16	E4	press
826.422	n/a	RESPONSE	        M8	1	16	E4	release
826.54	n/a	RESPONSE	        M8	1	16	E4	press
826.79	n/a	RESPONSE	        M8	1	19	G4	press
826.903	n/a	RESPONSE	        M8	1	16	E4	release
827.068	n/a	RESPONSE	        M8	1	23	B4	press
827.163	n/a	RESPONSE	        M8	1	19	G4	release
827.38	n/a	RESPONSE	        M8	1	23	B4	release
827.543	n/a	RESPONSE	        M8	1	23	B4	press
828.116	n/a	RESPONSE	        M8	1	18	F#4	press
828.12	n/a	RESPONSE	        M8	1	09	A3	press
828.232	n/a	RESPONSE	        M8	1	23	B4	release
828.619	n/a	RESPONSE	        M8	1	09	A3	release
828.65	n/a	RESPONSE	        M8	1	18	F#4	release
828.83	n/a	RESPONSE	        M8	1	16	E4	press
829.048	n/a	RESPONSE	        M8	1	19	G4	press
829.118	n/a	RESPONSE	        M8	1	16	E4	release
829.252	n/a	RESPONSE	        M8	1	23	B4	press
829.33	n/a	RESPONSE	        M8	1	19	G4	release
829.463	n/a	RESPONSE	        M8	1	23	B4	release
829.573	n/a	RESPONSE	        M8	1	23	B4	press
829.934	n/a	RESPONSE	        M8	1	18	F#4	press
830.016	n/a	RESPONSE	        M8	1	23	B4	release
830.257	n/a	RESPONSE	        M8	1	21	A4	press
830.428	n/a	RESPONSE	        M8	1	18	F#4	release
830.605	7.758	FIXCROSS	n/a	n/a	n/a	n/a	n/a
830.712	n/a	RESPONSE	        M8	1	21	A4	release
831.013	n/a	RESPONSE	        M8	1	23	B4	press
831.363	n/a	RESPONSE	        M8	1	21	A4	press
831.463	n/a	RESPONSE	        M8	1	23	B4	release
831.584	n/a	RESPONSE	        M8	1	19	G4	press
831.766	n/a	RESPONSE	        M8	1	21	A4	release
832.037	n/a	RESPONSE	        M8	1	19	G4	release
832.288	n/a	RESPONSE	        M8	1	18	F#4	press
832.65	n/a	RESPONSE	        M8	1	19	G4	press
832.77	n/a	RESPONSE	        M8	1	18	F#4	release
833.422	n/a	RESPONSE	        M8	1	19	G4	release
833.543	n/a	RESPONSE	        M8	1	16	E4	press
834.364	n/a	RESPONSE	        M8	1	16	E4	release
838.364	6.325	CUE_LISTEN	        M8	2	n/a	n/a	n/a
844.688	7.758	FIXCROSS	n/a	n/a	n/a	n/a	n/a
852.447	6.317	CUE_PLAYBACK_RIGHT_HAND	        M8	2	n/a	n/a	n/a
852.829	n/a	RESPONSE	        M8	2	16	E4	press
853.119	n/a	RESPONSE	        M8	2	19	G4	press
853.24	n/a	RESPONSE	        M8	2	16	E4	release
853.432	n/a	RESPONSE	        M8	2	23	B4	press
853.573	n/a	RESPONSE	        M8	2	19	G4	release
853.814	n/a	RESPONSE	        M8	2	23	B4	release
853.936	n/a	RESPONSE	        M8	2	23	B4	press
854.467	n/a	RESPONSE	        M8	2	18	F#4	press
854.518	n/a	RESPONSE	        M8	2	23	B4	release
854.959	n/a	RESPONSE	        M8	2	21	A4	press
855.063	n/a	RESPONSE	        M8	2	18	F#4	release
855.894	n/a	RESPONSE	        M8	2	21	A4	release
856.703	n/a	RESPONSE	        M8	2	16	E4	press
857.013	n/a	RESPONSE	        M8	2	16	E4	release
857.134	n/a	RESPONSE	        M8	2	23	B4	press
857.534	n/a	RESPONSE	        M8	2	21	A4	press
857.666	n/a	RESPONSE	        M8	2	23	B4	release
857.766	n/a	RESPONSE	        M8	2	19	G4	press
857.916	n/a	RESPONSE	        M8	2	21	A4	release
858.05	n/a	RESPONSE	        M8	2	18	F#4	press
858.184	n/a	RESPONSE	        M8	2	19	G4	release
858.343	n/a	RESPONSE	        M8	2	19	G4	press
858.499	n/a	RESPONSE	        M8	2	18	F#4	release
858.764	7.758	FIXCROSS	n/a	n/a	n/a	n/a	n/a
858.878	n/a	RESPONSE	        M8	2	16	E4	press
858.999	n/a	RESPONSE	        M8	2	19	G4	release
859.72	n/a	RESPONSE	        M8	2	16	E4	release
866.522	6.317	CUE_LISTEN	        M6	1	n/a	n/a	n/a
872.839	7.758	FIXCROSS	n/a	n/a	n/a	n/a	n/a
873.893	n/a	RESPONSE	        M6	1	09	A3	press
880.597	6.325	CUE_PLAYBACK_BOTH_HANDS	        M6	1	n/a	n/a	n/a
881.022	n/a	RESPONSE	        M6	1	05	F3	press
881.024	n/a	RESPONSE	        M6	1	12	C4	press
881.424	n/a	RESPONSE	        M6	1	17	F4	press
881.756	n/a	RESPONSE	        M6	1	21	A4	press
881.848	n/a	RESPONSE	        M6	1	17	F4	release
882.108	n/a	RESPONSE	        M6	1	19	G4	press
882.289	n/a	RESPONSE	        M6	1	21	A4	release
882.47	n/a	RESPONSE	        M6	1	17	F4	press
882.592	n/a	RESPONSE	        M6	1	19	G4	release
882.843	n/a	RESPONSE	        M6	1	16	E4	press
882.934	n/a	RESPONSE	        M6	1	17	F4	release
883.176	n/a	RESPONSE	        M6	1	17	F4	press
883.257	n/a	RESPONSE	        M6	1	16	E4	release
883.619	n/a	RESPONSE	        M6	1	17	F4	release
883.629	n/a	RESPONSE	        M6	1	05	F3	release
883.7	n/a	RESPONSE	        M6	1	12	C4	release
883.762	n/a	RESPONSE	        M6	1	09	A3	release
883.833	n/a	RESPONSE	        M6	1	09	A3	press
883.847	n/a	RESPONSE	        M6	1	05	F3	press
883.856	n/a	RESPONSE	        M6	1	12	C4	press
884.187	n/a	RESPONSE	        M6	1	17	F4	press
884.488	n/a	RESPONSE	        M6	1	21	A4	press
884.58	n/a	RESPONSE	        M6	1	17	F4	release
884.822	n/a	RESPONSE	        M6	1	19	G4	press
885.003	n/a	RESPONSE	        M6	1	21	A4	release
885.154	n/a	RESPONSE	        M6	1	17	F4	press
885.282	n/a	RESPONSE	        M6	1	19	G4	release
885.505	n/a	RESPONSE	        M6	1	16	E4	press
885.616	n/a	RESPONSE	        M6	1	17	F4	release
885.81	n/a	RESPONSE	        M6	1	17	F4	press
885.893	n/a	RESPONSE	        M6	1	16	E4	release
886.419	n/a	RESPONSE	        M6	1	17	F4	release
886.429	n/a	RESPONSE	        M6	1	05	F3	release
886.489	n/a	RESPONSE	        M6	1	12	C4	release
886.604	n/a	RESPONSE	        M6	1	09	A3	release
886.922	7.758	FIXCROSS	n/a	n/a	n/a	n/a	n/a
894.68	6.317	CUE_LISTEN	        M6	2	n/a	n/a	n/a
900.997	7.758	FIXCROSS	n/a	n/a	n/a	n/a	n/a
901.445	n/a	RESPONSE	        M6	2	09	A3	press
901.459	n/a	RESPONSE	        M6	2	12	C4	press
901.468	n/a	RESPONSE	        M6	2	05	F3	press
901.9	n/a	RESPONSE	        M6	2	17	F4	press
902.132	n/a	RESPONSE	        M6	2	17	F4	release
902.212	n/a	RESPONSE	        M6	2	05	F3	release
902.253	n/a	RESPONSE	        M6	2	09	A3	release
902.284	n/a	RESPONSE	        M6	2	12	C4	release
908.755	192.567	CUE_PLAYBACK_BOTH_HANDS	        M6	2	n/a	n/a	n/a
909.195	n/a	RESPONSE	        M6	2	09	A3	press
909.219	n/a	RESPONSE	        M6	2	12	C4	press
909.228	n/a	RESPONSE	        M6	2	05	F3	press
909.649	n/a	RESPONSE	        M6	2	17	F4	press
910.103	n/a	RESPONSE	        M6	2	21	A4	press
910.192	n/a	RESPONSE	        M6	2	17	F4	release
910.803	n/a	RESPONSE	        M6	2	20	G#4	press
910.914	n/a	RESPONSE	        M6	2	21	A4	release
911.256	n/a	RESPONSE	        M6	2	20	G#4	release
911.309	n/a	RESPONSE	        M6	2	05	F3	release
911.358	n/a	RESPONSE	        M6	2	12	C4	release
911.529	n/a	RESPONSE	        M6	2	05	F3	press
911.532	n/a	RESPONSE	        M6	2	12	C4	press
911.872	n/a	RESPONSE	        M6	2	17	F4	press
912.263	n/a	RESPONSE	        M6	2	21	A4	press
912.414	n/a	RESPONSE	        M6	2	17	F4	release
912.488	n/a	RESPONSE	        M6	2	24	C5	press
912.508	n/a	RESPONSE	        M6	2	23	B4	press
912.588	n/a	RESPONSE	        M6	2	21	A4	release
912.669	n/a	RESPONSE	        M6	2	23	B4	release
913.03	n/a	RESPONSE	        M6	2	05	F3	release
913.052	n/a	RESPONSE	        M6	2	09	A3	release
913.234	n/a	RESPONSE	        M6	2	22	A#4	press
913.25	n/a	FIXCROSS	n/a	n/a	n/a	n/a	n/a
913.274	n/a	RESPONSE	        M6	2	04	E3	press
913.296	n/a	RESPONSE	        M6	2	07	G3	press
913.307	n/a	RESPONSE	        M6	2	08	G#3	press
913.378	n/a	RESPONSE	        M6	2	24	C5	release
913.43	n/a	RESPONSE	        M6	2	08	G#3	release
913.72	n/a	RESPONSE	        M6	2	21	A4	press
913.744	n/a	RESPONSE	        M6	2	19	G4	press
913.855	n/a	RESPONSE	        M6	2	22	A#4	release
913.944	n/a	RESPONSE	        M6	2	19	G4	release
914.176	n/a	RESPONSE	        M6	2	19	G4	press
914.278	n/a	RESPONSE	        M6	2	21	A4	release
914.68	n/a	RESPONSE	        M6	2	19	G4	release
914.699	n/a	RESPONSE	        M6	2	12	C4	release
914.71	n/a	RESPONSE	        M6	2	04	E3	release
915.022	n/a	RESPONSE	        M6	2	12	C4	press
915.033	n/a	RESPONSE	        M6	2	04	E3	press
915.566	n/a	RESPONSE	        M6	2	16	E4	press
915.966	n/a	RESPONSE	        M6	2	19	G4	press
916.085	n/a	RESPONSE	        M6	2	16	E4	release
916.475	n/a	RESPONSE	        M6	2	23	B4	press
916.573	n/a	RESPONSE	        M6	2	19	G4	release
916.68	n/a	RESPONSE	        M6	2	04	E3	release
916.74	n/a	RESPONSE	        M6	2	07	G3	release
916.889	n/a	RESPONSE	        M6	2	23	B4	release
917.132	n/a	RESPONSE	        M6	2	09	A3	press
917.152	n/a	RESPONSE	        M6	2	05	F3	press
917.199	n/a	RESPONSE	        M6	2	22	A#4	press
917.615	n/a	RESPONSE	        M6	2	21	A4	press
917.652	n/a	RESPONSE	        M6	2	19	G4	press
917.729	n/a	RESPONSE	        M6	2	22	A#4	release
918.003	n/a	RESPONSE	        M6	2	19	G4	release
918.062	n/a	RESPONSE	        M6	2	19	G4	press
918.148	n/a	RESPONSE	        M6	2	21	A4	release
918.909	n/a	RESPONSE	        M6	2	12	C4	release
918.938	n/a	RESPONSE	        M6	2	05	F3	release
919.03	n/a	RESPONSE	        M6	2	09	A3	release
919.063	n/a	RESPONSE	        M6	2	19	G4	release
