onset	duration	trial_type	melody_number	melody_part	key	sound	action
0.0	14.088	CUE_START	n/a	n/a	n/a	n/a	n/a
14.089	7.759	FIXCROSS	n/a	n/a	n/a	n/a	n/a
21.848	6.316	CUE_LISTEN	M1	1	n/a	n/a	n/a
28.164	7.758	FIXCROSS	n/a	n/a	n/a	n/a	n/a
35.922	6.317	CUE_PLAYBACK_RIGHT_HAND	M1	1	n/a	n/a	n/a
36.549	n/a	RESPONSE	M1	1	19	G4	press
37.04	n/a	RESPONSE	M1	1	16	E4	press
37.101	n/a	RESPONSE	M1	1	19	G4	release
37.413	n/a	RESPONSE	M1	1	16	E4	release
37.586	n/a	RESPONSE	M1	1	17	F4	press
37.775	n/a	RESPONSE	M1	1	17	F4	release
38.231	n/a	RESPONSE	M1	1	19	G4	press
38.771	n/a	RESPONSE	M1	1	16	E4	press
38.848	n/a	RESPONSE	M1	1	19	G4	release
39.14	n/a	RESPONSE	M1	1	16	E4	release
39.316	n/a	RESPONSE	M1	1	16	E4	press
39.86	n/a	RESPONSE	M1	1	17	F4	press
39.896	n/a	RESPONSE	M1	1	16	E4	release
40.455	n/a	RESPONSE	M1	1	14	D4	press
40.506	n/a	RESPONSE	M1	1	17	F4	release
40.788	n/a	RESPONSE	M1	1	14	D4	release
41.006	n/a	RESPONSE	M1	1	14	D4	press
41.58	n/a	RESPONSE	M1	1	12	C4	press
41.644	n/a	RESPONSE	M1	1	14	D4	release
41.896	n/a	RESPONSE	M1	1	16	E4	press
42.008	n/a	RESPONSE	M1	1	12	C4	release
42.219	n/a	RESPONSE	M1	1	19	G4	press
42.239	7.758	FIXCROSS	n/a	n/a	n/a	n/a	n/a
42.29	n/a	RESPONSE	M1	1	16	E4	release
43.031	n/a	RESPONSE	M1	1	19	G4	release
49.997	6.325	CUE_LISTEN	        M1	2	n/a	n/a	n/a
56.322	7.758	FIXCROSS	n/a	n/a	n/a	n/a	n/a
64.08	6.317	CUE_PLAYBACK_RIGHT_HAND	        M1	2	n/a	n/a	n/a
65.185	n/a	RESPONSE	        M1	2	19	G4	press
65.739	n/a	RESPONSE	        M1	2	16	E4	press
65.829	n/a	RESPONSE	        M1	2	19	G4	release
66.101	n/a	RESPONSE	        M1	2	16	E4	release
66.28	n/a	RESPONSE	        M1	2	16	E4	press
66.823	n/a	RESPONSE	        M1	2	17	F4	press
66.883	n/a	RESPONSE	        M1	2	16	E4	release
67.364	n/a	RESPONSE	        M1	2	14	D4	press
67.478	n/a	RESPONSE	        M1	2	17	F4	release
67.726	n/a	RESPONSE	        M1	2	14	D4	release
67.898	n/a	RESPONSE	        M1	2	14	D4	press
68.439	n/a	RESPONSE	        M1	2	12	C4	press
68.535	n/a	RESPONSE	        M1	2	14	D4	release
68.716	n/a	RESPONSE	        M1	2	16	E4	press
68.829	n/a	RESPONSE	        M1	2	12	C4	release
68.983	n/a	RESPONSE	        M1	2	12	C4	press
69.06	n/a	RESPONSE	        M1	2	16	E4	release
69.823	n/a	RESPONSE	        M1	2	12	C4	release
70.397	7.758	FIXCROSS	n/a	n/a	n/a	n/a	n/a
78.156	6.317	CUE_LISTEN	        M7	1	n/a	n/a	n/a
84.472	7.758	FIXCROSS	n/a	n/a	n/a	n/a	n/a
92.231	6.325	CUE_PLAYBACK_BOTH_HANDS	        M7	1	n/a	n/a	n/a
94.095	n/a	RESPONSE	        M7	1	04	E3	press
94.126	n/a	RESPONSE	        M7	1	22	A#4	press
94.291	n/a	RESPONSE	        M7	1	22	A#4	release
94.84	n/a	RESPONSE	        M7	1	04	E3	release
95.161	n/a	RESPONSE	        M7	1	05	F3	press
95.183	n/a	RESPONSE	        M7	1	22	A#4	press
95.804	n/a	RESPONSE	        M7	1	21	A4	press
95.928	n/a	RESPONSE	        M7	1	22	A#4	release
96.536	n/a	RESPONSE	        M7	1	19	G4	press
96.618	n/a	RESPONSE	        M7	1	21	A4	release
97.171	n/a	RESPONSE	        M7	1	04	E3	press
97.181	n/a	RESPONSE	        M7	1	21	A4	press
97.251	n/a	RESPONSE	        M7	1	19	G4	release
97.383	n/a	RESPONSE	        M7	1	05	F3	release
98.486	n/a	RESPONSE	        M7	1	21	A4	release
98.556	7.758	FIXCROSS	n/a	n/a	n/a	n/a	n/a
100.346	n/a	RESPONSE	        M7	1	04	E3	release
101.196	n/a	RESPONSE	        M7	1	04	E3	press
101.238	n/a	RESPONSE	        M7	1	22	A#4	press
102.048	n/a	RESPONSE	        M7	1	22	A#4	release
102.079	n/a	RESPONSE	        M7	1	04	E3	release
106.314	6.317	CUE_LISTEN	        M7	2	n/a	n/a	n/a
112.631	7.758	FIXCROSS	n/a	n/a	n/a	n/a	n/a
120.389	6.317	CUE_PLAYBACK_BOTH_HANDS	        M7	2	n/a	n/a	n/a
121.968	n/a	RESPONSE	        M7	2	12	C4	press
122.309	n/a	RESPONSE	        M7	2	11	B3	press
122.601	n/a	RESPONSE	        M7	2	12	C4	release
122.651	n/a	RESPONSE	        M7	2	09	A3	press
123.013	n/a	RESPONSE	        M7	2	07	G3	press
123.146	n/a	RESPONSE	        M7	2	09	A3	release
123.208	n/a	RESPONSE	        M7	2	11	B3	release
123.419	n/a	RESPONSE	        M7	2	07	G3	release
123.658	n/a	RESPONSE	        M7	2	09	A3	press
123.669	n/a	RESPONSE	        M7	2	15	D#4	press
123.671	n/a	RESPONSE	        M7	2	12	C4	press
124.715	n/a	RESPONSE	        M7	2	17	F4	press
124.774	n/a	RESPONSE	        M7	2	15	D#4	release
125.215	n/a	RESPONSE	        M7	2	15	D#4	press
125.316	n/a	RESPONSE	        M7	2	17	F4	release
125.688	n/a	RESPONSE	        M7	2	07	G3	press
125.699	n/a	RESPONSE	        M7	2	14	D4	press
125.74	n/a	RESPONSE	        M7	2	12	C4	release
125.813	n/a	RESPONSE	        M7	2	15	D#4	release
125.983	n/a	RESPONSE	        M7	2	09	A3	release
126.154	n/a	RESPONSE	        M7	2	12	C4	press
126.285	n/a	RESPONSE	        M7	2	14	D4	release
126.706	7.758	FIXCROSS	n/a	n/a	n/a	n/a	n/a
127.228	n/a	RESPONSE	        M7	2	10	A#3	press
127.248	n/a	RESPONSE	        M7	2	14	D4	press
127.299	n/a	RESPONSE	        M7	2	07	G3	release
127.301	n/a	RESPONSE	        M7	2	12	C4	release
128.081	n/a	RESPONSE	        M7	2	15	D#4	press
128.156	n/a	RESPONSE	        M7	2	14	D4	release
128.549	n/a	RESPONSE	        M7	2	14	D4	press
128.68	n/a	RESPONSE	        M7	2	15	D#4	release
128.964	n/a	RESPONSE	        M7	2	07	G3	press
128.981	n/a	RESPONSE	        M7	2	12	C4	press
129.084	n/a	RESPONSE	        M7	2	10	A#3	release
129.174	n/a	RESPONSE	        M7	2	14	D4	release
129.778	n/a	RESPONSE	        M7	2	10	A#3	press
129.914	n/a	RESPONSE	        M7	2	12	C4	release
130.686	n/a	RESPONSE	        M7	2	09	A3	press
130.703	n/a	RESPONSE	        M7	2	12	C4	press
130.784	n/a	RESPONSE	        M7	2	10	A#3	release
130.786	n/a	RESPONSE	        M7	2	07	G3	release
133.223	n/a	RESPONSE	        M7	2	12	C4	release
134.464	6.325	CUE_LISTEN	        M5	1	n/a	n/a	n/a
135.098	n/a	RESPONSE	        M5	1	09	A3	release
140.789	7.758	FIXCROSS	n/a	n/a	n/a	n/a	n/a
148.547	6.317	CUE_PLAYBACK_RIGHT_HAND	        M5	1	n/a	n/a	n/a
149.708	n/a	RESPONSE	        M5	1	19	G4	press
149.944	n/a	RESPONSE	        M5	1	19	G4	release
150.119	n/a	RESPONSE	        M5	1	19	G4	press
150.399	n/a	RESPONSE	        M5	1	19	G4	release
152.014	n/a	RESPONSE	        M5	1	23	B4	press
152.203	n/a	RESPONSE	        M5	1	23	B4	release
152.344	n/a	RESPONSE	        M5	1	23	B4	press
152.505	n/a	RESPONSE	        M5	1	23	B4	release
152.696	n/a	RESPONSE	        M5	1	21	A4	press
152.898	n/a	RESPONSE	        M5	1	21	A4	release
153.049	n/a	RESPONSE	        M5	1	21	A4	press
153.24	n/a	RESPONSE	        M5	1	21	A4	release
153.353	n/a	RESPONSE	        M5	1	21	A4	press
153.835	n/a	RESPONSE	        M5	1	21	A4	release
153.984	n/a	RESPONSE	        M5	1	21	A4	press
154.195	n/a	RESPONSE	        M5	1	21	A4	release
154.32	n/a	RESPONSE	        M5	1	21	A4	press
154.489	n/a	RESPONSE	        M5	1	21	A4	release
154.66	n/a	RESPONSE	        M5	1	21	A4	press
154.864	7.758	FIXCROSS	n/a	n/a	n/a	n/a	n/a
155.091	n/a	RESPONSE	        M5	1	21	A4	release
155.325	n/a	RESPONSE	        M5	1	21	A4	press
155.674	n/a	RESPONSE	        M5	1	23	B4	press
155.678	n/a	RESPONSE	        M5	1	24	C5	press
155.756	n/a	RESPONSE	        M5	1	21	A4	release
155.898	n/a	RESPONSE	        M5	1	24	C5	release
156.08	n/a	RESPONSE	        M5	1	23	B4	release
156.391	n/a	RESPONSE	        M5	1	21	A4	press
156.961	n/a	RESPONSE	        M5	1	24	C5	press
157.054	n/a	RESPONSE	        M5	1	21	A4	release
157.534	n/a	RESPONSE	        M5	1	16	E4	press
157.726	n/a	RESPONSE	        M5	1	24	C5	release
158.068	n/a	RESPONSE	        M5	1	17	F4	press
158.171	n/a	RESPONSE	        M5	1	16	E4	release
158.566	n/a	RESPONSE	        M5	1	17	F4	release
158.976	n/a	RESPONSE	        M5	1	17	F4	press
159.414	n/a	RESPONSE	        M5	1	19	G4	press
159.59	n/a	RESPONSE	        M5	1	17	F4	release
159.861	n/a	RESPONSE	        M5	1	21	A4	press
159.943	n/a	RESPONSE	        M5	1	19	G4	release
160.918	n/a	RESPONSE	        M5	1	21	A4	release
162.622	6.317	CUE_LISTEN	        M5	2	n/a	n/a	n/a
168.939	7.758	FIXCROSS	n/a	n/a	n/a	n/a	n/a
176.697	6.325	CUE_PLAYBACK_RIGHT_HAND	        M5	2	n/a	n/a	n/a
177.071	n/a	RESPONSE	        M5	2	22	A#4	press
177.321	n/a	RESPONSE	        M5	2	22	A#4	release
177.461	n/a	RESPONSE	        M5	2	22	A#4	press
177.662	n/a	RESPONSE	        M5	2	22	A#4	release
177.875	n/a	RESPONSE	        M5	2	22	A#4	press
178.085	n/a	RESPONSE	        M5	2	22	A#4	release
178.313	n/a	RESPONSE	        M5	2	22	A#4	press
178.74	n/a	RESPONSE	        M5	2	21	A4	press
178.814	n/a	RESPONSE	        M5	2	22	A#4	release
179.041	n/a	RESPONSE	        M5	2	21	A4	release
179.191	n/a	RESPONSE	        M5	2	21	A4	press
179.391	n/a	RESPONSE	        M5	2	21	A4	release
179.611	n/a	RESPONSE	        M5	2	21	A4	press
180.101	n/a	RESPONSE	        M5	2	19	G4	press
180.192	n/a	RESPONSE	        M5	2	21	A4	release
180.435	n/a	RESPONSE	        M5	2	19	G4	release
181.046	n/a	RESPONSE	        M5	2	21	A4	press
181.381	n/a	RESPONSE	        M5	2	21	A4	release
181.496	n/a	RESPONSE	        M5	2	21	A4	press
182.235	n/a	RESPONSE	        M5	2	21	A4	release
182.286	n/a	RESPONSE	        M5	2	24	C5	press
182.568	n/a	RESPONSE	        M5	2	24	C5	release
182.761	n/a	RESPONSE	        M5	2	24	C5	press
183.022	7.758	FIXCROSS	n/a	n/a	n/a	n/a	n/a
185.484	n/a	RESPONSE	        M5	2	22	A#4	press
185.614	n/a	RESPONSE	        M5	2	24	C5	release
187.125	n/a	RESPONSE	        M5	2	19	G4	press
187.226	n/a	RESPONSE	        M5	2	22	A#4	release
188.721	n/a	RESPONSE	        M5	2	21	A4	press
188.866	n/a	RESPONSE	        M5	2	19	G4	release
189.194	n/a	RESPONSE	        M5	2	21	A4	release
189.491	n/a	RESPONSE	        M5	2	19	G4	press
190.101	n/a	RESPONSE	        M5	2	17	F4	press
190.199	n/a	RESPONSE	        M5	2	19	G4	release
190.781	6.325	CUE_LISTEN	        M3	1	n/a	n/a	n/a
190.903	n/a	RESPONSE	        M3	1	17	F4	release
197.106	7.758	FIXCROSS	n/a	n/a	n/a	n/a	n/a
198.356	n/a	RESPONSE	        M3	1	12	C4	press
198.752	n/a	RESPONSE	        M3	1	14	D4	press
198.834	n/a	RESPONSE	        M3	1	12	C4	release
199.169	n/a	RESPONSE	        M3	1	14	D4	release
204.864	6.308	CUE_PLAYBACK_BOTH_HANDS	        M3	1	n/a	n/a	n/a
205.492	n/a	RESPONSE	        M3	1	00	C3	press
205.534	n/a	RESPONSE	        M3	1	12	C4	press
205.995	n/a	RESPONSE	        M3	1	07	G3	press
206.009	n/a	RESPONSE	        M3	1	14	D4	press
206.098	n/a	RESPONSE	        M3	1	00	C3	release
206.1	n/a	RESPONSE	        M3	1	12	C4	release
206.5	n/a	RESPONSE	        M3	1	04	E3	press
206.511	n/a	RESPONSE	        M3	1	16	E4	press
206.593	n/a	RESPONSE	        M3	1	07	G3	release
206.596	n/a	RESPONSE	        M3	1	14	D4	release
206.976	n/a	RESPONSE	        M3	1	07	G3	press
207.026	n/a	RESPONSE	        M3	1	12	C4	press
207.138	n/a	RESPONSE	        M3	1	16	E4	release
207.149	n/a	RESPONSE	        M3	1	04	E3	release
207.31	n/a	RESPONSE	        M3	1	07	G3	release
207.312	n/a	RESPONSE	        M3	1	12	C4	release
207.485	n/a	RESPONSE	        M3	1	00	C3	press
207.504	n/a	RESPONSE	        M3	1	12	C4	press
208.005	n/a	RESPONSE	        M3	1	07	G3	press
208.016	n/a	RESPONSE	        M3	1	14	D4	press
208.079	n/a	RESPONSE	        M3	1	00	C3	release
208.1	n/a	RESPONSE	        M3	1	12	C4	release
208.529	n/a	RESPONSE	        M3	1	04	E3	press
208.535	n/a	RESPONSE	        M3	1	16	E4	press
208.605	n/a	RESPONSE	        M3	1	07	G3	release
208.608	n/a	RESPONSE	        M3	1	14	D4	release
209.011	n/a	RESPONSE	        M3	1	07	G3	press
209.039	n/a	RESPONSE	        M3	1	12	C4	press
209.149	n/a	RESPONSE	        M3	1	16	E4	release
209.17	n/a	RESPONSE	        M3	1	04	E3	release
209.336	n/a	RESPONSE	        M3	1	07	G3	release
209.354	n/a	RESPONSE	        M3	1	12	C4	release
209.489	n/a	RESPONSE	        M3	1	00	C3	press
209.502	n/a	RESPONSE	        M3	1	16	E4	press
209.978	n/a	RESPONSE	        M3	1	07	G3	press
209.984	n/a	RESPONSE	        M3	1	17	F4	press
210.03	n/a	RESPONSE	        M3	1	16	E4	release
210.048	n/a	RESPONSE	        M3	1	00	C3	release
210.462	n/a	RESPONSE	        M3	1	19	G4	press
210.488	n/a	RESPONSE	        M3	1	04	E3	press
210.546	n/a	RESPONSE	        M3	1	17	F4	release
210.565	n/a	RESPONSE	        M3	1	07	G3	release
210.98	n/a	RESPONSE	        M3	1	07	G3	press
211.091	n/a	RESPONSE	        M3	1	04	E3	release
211.172	7.758	FIXCROSS	n/a	n/a	n/a	n/a	n/a
211.432	n/a	RESPONSE	        M3	1	00	C3	press
211.435	n/a	RESPONSE	        M3	1	16	E4	press
211.506	n/a	RESPONSE	        M3	1	07	G3	release
211.511	n/a	RESPONSE	        M3	1	19	G4	release
211.873	n/a	RESPONSE	        M3	1	17	F4	press
211.875	n/a	RESPONSE	        M3	1	07	G3	press
211.924	n/a	RESPONSE	        M3	1	16	E4	release
211.926	n/a	RESPONSE	        M3	1	00	C3	release
212.376	n/a	RESPONSE	        M3	1	19	G4	press
212.389	n/a	RESPONSE	        M3	1	04	E3	press
212.461	n/a	RESPONSE	        M3	1	07	G3	release
212.48	n/a	RESPONSE	        M3	1	17	F4	release
212.872	n/a	RESPONSE	        M3	1	07	G3	press
213.034	n/a	RESPONSE	        M3	1	04	E3	release
213.364	n/a	RESPONSE	        M3	1	19	G4	release
213.555	n/a	RESPONSE	        M3	1	07	G3	release
218.931	6.325	CUE_LISTEN	        M3	2	n/a	n/a	n/a
225.256	7.758	FIXCROSS	n/a	n/a	n/a	n/a	n/a
233.014	6.325	CUE_PLAYBACK_BOTH_HANDS	        M3	2	n/a	n/a	n/a
233.535	n/a	RESPONSE	        M3	2	00	C3	press
233.548	n/a	RESPONSE	        M3	2	17	F4	press
234.099	n/a	RESPONSE	        M3	2	00	C3	release
234.248	n/a	RESPONSE	        M3	2	17	F4	release
235.523	n/a	RESPONSE	        M3	2	00	C3	press
235.541	n/a	RESPONSE	        M3	2	17	F4	press
235.884	n/a	RESPONSE	        M3	2	19	G4	press
235.985	n/a	RESPONSE	        M3	2	17	F4	release
236.335	n/a	RESPONSE	        M3	2	19	G4	release
236.376	n/a	RESPONSE	        M3	2	00	C3	release
236.838	n/a	RESPONSE	        M3	2	00	C3	press
236.849	n/a	RESPONSE	        M3	2	19	G4	press
237.201	n/a	RESPONSE	        M3	2	21	A4	press
237.291	n/a	RESPONSE	        M3	2	19	G4	release
237.522	n/a	RESPONSE	        M3	2	07	G3	press
237.544	n/a	RESPONSE	        M3	2	19	G4	press
237.576	n/a	RESPONSE	        M3	2	00	C3	release
237.866	n/a	RESPONSE	        M3	2	17	F4	press
238.108	n/a	RESPONSE	        M3	2	21	A4	release
238.139	n/a	RESPONSE	        M3	2	19	G4	release
238.202	n/a	RESPONSE	        M3	2	04	E3	press
238.241	n/a	RESPONSE	        M3	2	16	E4	press
238.326	n/a	RESPONSE	        M3	2	07	G3	release
238.405	n/a	RESPONSE	        M3	2	17	F4	release
238.844	n/a	RESPONSE	        M3	2	12	C4	press
238.854	n/a	RESPONSE	        M3	2	07	G3	press
238.95	n/a	RESPONSE	        M3	2	04	E3	release
238.968	n/a	RESPONSE	        M3	2	16	E4	release
239.339	7.758	FIXCROSS	n/a	n/a	n/a	n/a	n/a
239.431	n/a	RESPONSE	        M3	2	00	C3	press
239.439	n/a	RESPONSE	        M3	2	19	G4	press
239.488	n/a	RESPONSE	        M3	2	12	C4	release
239.525	n/a	RESPONSE	        M3	2	07	G3	release
239.729	n/a	RESPONSE	        M3	2	21	A4	press
239.814	n/a	RESPONSE	        M3	2	19	G4	release
240.041	n/a	RESPONSE	        M3	2	07	G3	press
240.064	n/a	RESPONSE	        M3	2	19	G4	press
240.115	n/a	RESPONSE	        M3	2	00	C3	release
240.354	n/a	RESPONSE	        M3	2	17	F4	press
240.538	n/a	RESPONSE	        M3	2	21	A4	release
240.661	n/a	RESPONSE	        M3	2	04	E3	press
240.685	n/a	RESPONSE	        M3	2	16	E4	press
240.786	n/a	RESPONSE	        M3	2	19	G4	release
240.848	n/a	RESPONSE	        M3	2	07	G3	release
240.904	n/a	RESPONSE	        M3	2	17	F4	release
241.291	n/a	RESPONSE	        M3	2	12	C4	press
241.298	n/a	RESPONSE	        M3	2	07	G3	press
241.44	n/a	RESPONSE	        M3	2	16	E4	release
241.768	n/a	RESPONSE	        M3	2	12	C4	release
241.778	n/a	RESPONSE	        M3	2	04	E3	release
241.789	n/a	RESPONSE	        M3	2	07	G3	release
242.491	n/a	RESPONSE	        M3	2	07	G3	press
242.501	n/a	RESPONSE	        M3	2	12	C4	press
243.322	n/a	RESPONSE	        M3	2	12	C4	release
243.325	n/a	RESPONSE	        M3	2	07	G3	release
243.446	n/a	RESPONSE	        M3	2	00	C3	press
243.456	n/a	RESPONSE	        M3	2	12	C4	press
244.008	n/a	RESPONSE	        M3	2	07	G3	press
244.149	n/a	RESPONSE	        M3	2	12	C4	release
244.151	n/a	RESPONSE	        M3	2	00	C3	release
244.474	n/a	RESPONSE	        M3	2	00	C3	press
244.504	n/a	RESPONSE	        M3	2	12	C4	press
244.545	n/a	RESPONSE	        M3	2	07	G3	release
245.109	n/a	RESPONSE	        M3	2	00	C3	release
245.111	n/a	RESPONSE	        M3	2	12	C4	release
245.4	n/a	RESPONSE	        M3	2	00	C3	press
245.404	n/a	RESPONSE	        M3	2	12	C4	press
245.872	n/a	RESPONSE	        M3	2	07	G3	press
245.944	n/a	RESPONSE	        M3	2	00	C3	release
246.025	n/a	RESPONSE	        M3	2	12	C4	release
246.296	n/a	RESPONSE	        M3	2	00	C3	press
246.328	n/a	RESPONSE	        M3	2	12	C4	press
246.369	n/a	RESPONSE	        M3	2	07	G3	release
246.84	n/a	RESPONSE	        M3	2	00	C3	release
246.952	n/a	RESPONSE	        M3	2	12	C4	release
247.098	6.308	CUE_LISTEN	        M6	1	n/a	n/a	n/a
252.156	n/a	RESPONSE	        M6	1	07	G3	press
252.97	n/a	RESPONSE	        M6	1	07	G3	release
253.406	7.758	FIXCROSS	n/a	n/a	n/a	n/a	n/a
254.91	n/a	RESPONSE	        M6	1	00	C3	press
255.192	n/a	RESPONSE	        M6	1	02	D3	press
255.472	n/a	RESPONSE	        M6	1	04	E3	press
255.475	n/a	RESPONSE	        M6	1	00	C3	release
255.575	n/a	RESPONSE	        M6	1	02	D3	release
255.646	n/a	RESPONSE	        M6	1	04	E3	release
256.608	n/a	RESPONSE	        M6	1	02	D3	press
261.164	6.325	CUE_PLAYBACK_BOTH_HANDS	        M6	1	n/a	n/a	n/a
263.478	n/a	RESPONSE	        M6	1	02	D3	release
263.751	n/a	RESPONSE	        M6	1	02	D3	press
263.762	n/a	RESPONSE	        M6	1	14	D4	press
264.772	n/a	RESPONSE	        M6	1	02	D3	release
264.826	n/a	RESPONSE	        M6	1	14	D4	release
264.915	n/a	RESPONSE	        M6	1	02	D3	press
264.976	n/a	RESPONSE	        M6	1	16	E4	press
264.988	n/a	RESPONSE	        M6	1	14	D4	press
265.709	n/a	RESPONSE	        M6	1	16	E4	release
266.101	n/a	RESPONSE	        M6	1	02	D3	release
266.144	n/a	RESPONSE	        M6	1	14	D4	release
266.192	n/a	RESPONSE	        M6	1	02	D3	press
266.204	n/a	RESPONSE	        M6	1	14	D4	press
266.218	n/a	RESPONSE	        M6	1	17	F4	press
266.966	n/a	RESPONSE	        M6	1	17	F4	release
267.158	n/a	RESPONSE	        M6	1	19	G4	press
267.239	n/a	RESPONSE	        M6	1	19	G4	release
267.38	n/a	RESPONSE	        M6	1	19	G4	press
267.489	7.758	FIXCROSS	n/a	n/a	n/a	n/a	n/a
268.275	n/a	RESPONSE	        M6	1	18	F#4	press
268.372	n/a	RESPONSE	        M6	1	19	G4	release
268.678	n/a	RESPONSE	        M6	1	19	G4	press
268.789	n/a	RESPONSE	        M6	1	18	F#4	release
269.89	n/a	RESPONSE	        M6	1	14	D4	release
269.892	n/a	RESPONSE	        M6	1	19	G4	release
270.076	n/a	RESPONSE	        M6	1	02	D3	release
275.248	6.317	CUE_LISTEN	        M6	2	n/a	n/a	n/a
281.325	n/a	RESPONSE	        M6	2	00	C3	press
281.564	7.758	FIXCROSS	n/a	n/a	n/a	n/a	n/a
282.112	n/a	RESPONSE	        M6	2	00	C3	release
282.282	n/a	RESPONSE	        M6	2	04	E3	press
282.594	n/a	RESPONSE	        M6	2	04	E3	release
283.268	n/a	RESPONSE	        M6	2	04	E3	press
289.323	6.317	CUE_PLAYBACK_BOTH_HANDS	        M6	2	n/a	n/a	n/a
289.348	n/a	RESPONSE	        M6	2	04	E3	release
290.285	n/a	RESPONSE	        M6	2	04	E3	press
291.072	n/a	RESPONSE	        M6	2	16	E4	press
291.224	n/a	RESPONSE	        M6	2	16	E4	release
291.496	n/a	RESPONSE	        M6	2	04	E3	release
292.13	n/a	RESPONSE	        M6	2	04	E3	press
292.864	n/a	RESPONSE	        M6	2	04	E3	release
293.392	n/a	RESPONSE	        M6	2	04	E3	press
295.405	n/a	RESPONSE	        M6	2	19	G4	press
295.416	n/a	RESPONSE	        M6	2	16	E4	press
295.639	7.758	FIXCROSS	n/a	n/a	n/a	n/a	n/a
296.038	n/a	RESPONSE	        M6	2	11	B3	press
296.059	n/a	RESPONSE	        M6	2	12	C4	press
296.15	n/a	RESPONSE	        M6	2	12	C4	release
296.204	n/a	RESPONSE	        M6	2	04	E3	release
296.212	n/a	RESPONSE	        M6	2	16	E4	release
296.734	n/a	RESPONSE	        M6	2	16	E4	press
296.745	n/a	RESPONSE	        M6	2	07	G3	press
296.986	n/a	RESPONSE	        M6	2	11	B3	release
298.081	n/a	RESPONSE	        M6	2	19	G4	release
298.14	n/a	RESPONSE	        M6	2	16	E4	release
298.202	n/a	RESPONSE	        M6	2	07	G3	release
303.398	6.325	CUE_LISTEN	        M2	1	n/a	n/a	n/a
309.191	n/a	RESPONSE	        M2	1	21	A4	press
309.34	n/a	RESPONSE	        M2	1	21	A4	release
309.723	7.758	FIXCROSS	n/a	n/a	n/a	n/a	n/a
311.38	n/a	RESPONSE	        M2	1	24	C5	press
311.896	n/a	RESPONSE	        M2	1	24	C5	release
313.83	n/a	RESPONSE	        M2	1	24	C5	press
314.464	n/a	RESPONSE	        M2	1	24	C5	release
317.481	6.317	CUE_PLAYBACK_RIGHT_HAND	        M2	1	n/a	n/a	n/a
318.17	n/a	RESPONSE	        M2	1	24	C5	press
318.628	n/a	RESPONSE	        M2	1	19	G4	press
318.812	n/a	RESPONSE	        M2	1	24	C5	release
318.969	n/a	RESPONSE	        M2	1	19	G4	release
319.094	n/a	RESPONSE	        M2	1	19	G4	press
319.595	n/a	RESPONSE	        M2	1	17	F4	press
319.761	n/a	RESPONSE	        M2	1	19	G4	release
320.03	n/a	RESPONSE	        M2	1	17	F4	release
320.137	n/a	RESPONSE	        M2	1	16	E4	press
320.658	n/a	RESPONSE	        M2	1	17	F4	press
320.735	n/a	RESPONSE	        M2	1	16	E4	release
321.145	n/a	RESPONSE	        M2	1	19	G4	press
321.239	n/a	RESPONSE	        M2	1	17	F4	release
321.838	n/a	RESPONSE	        M2	1	19	G4	release
322.009	n/a	RESPONSE	        M2	1	24	C5	press
322.501	n/a	RESPONSE	        M2	1	19	G4	press
322.671	n/a	RESPONSE	        M2	1	24	C5	release
322.805	n/a	RESPONSE	        M2	1	19	G4	release
322.984	n/a	RESPONSE	        M2	1	19	G4	press
323.476	n/a	RESPONSE	        M2	1	17	F4	press
323.686	n/a	RESPONSE	        M2	1	19	G4	release
323.798	7.758	FIXCROSS	n/a	n/a	n/a	n/a	n/a
324.057	n/a	RESPONSE	        M2	1	16	E4	press
324.139	n/a	RESPONSE	        M2	1	17	F4	release
324.501	n/a	RESPONSE	        M2	1	14	D4	press
324.632	n/a	RESPONSE	        M2	1	16	E4	release
325.024	n/a	RESPONSE	        M2	1	12	C4	press
325.355	n/a	RESPONSE	        M2	1	14	D4	release
325.958	n/a	RESPONSE	        M2	1	12	C4	release
331.556	6.325	CUE_LISTEN	        M2	2	n/a	n/a	n/a
337.881	7.758	FIXCROSS	n/a	n/a	n/a	n/a	n/a
345.639	6.317	CUE_PLAYBACK_RIGHT_HAND	        M2	2	n/a	n/a	n/a
345.942	n/a	RESPONSE	        M2	2	14	D4	press
346.484	n/a	RESPONSE	        M2	2	14	D4	release
346.835	n/a	RESPONSE	        M2	2	16	E4	press
347.226	n/a	RESPONSE	        M2	2	17	F4	press
347.55	n/a	RESPONSE	        M2	2	16	E4	release
347.739	n/a	RESPONSE	        M2	2	19	G4	press
347.911	n/a	RESPONSE	        M2	2	17	F4	release
348.326	n/a	RESPONSE	        M2	2	17	F4	press
348.472	n/a	RESPONSE	        M2	2	19	G4	release
348.667	n/a	RESPONSE	        M2	2	17	F4	release
349.276	n/a	RESPONSE	        M2	2	19	G4	press
349.724	n/a	RESPONSE	        M2	2	21	A4	press
349.806	n/a	RESPONSE	        M2	2	19	G4	release
350.202	n/a	RESPONSE	        M2	2	21	A4	release
350.611	n/a	RESPONSE	        M2	2	23	B4	press
350.829	n/a	RESPONSE	        M2	2	23	B4	release
351.251	n/a	RESPONSE	        M2	2	24	C5	press
351.644	n/a	RESPONSE	        M2	2	24	C5	release
351.756	n/a	RESPONSE	        M2	2	24	C5	press
351.956	7.758	FIXCROSS	n/a	n/a	n/a	n/a	n/a
352.36	n/a	RESPONSE	        M2	2	19	G4	press
352.471	n/a	RESPONSE	        M2	2	24	C5	release
352.612	n/a	RESPONSE	        M2	2	19	G4	release
352.894	n/a	RESPONSE	        M2	2	19	G4	press
353.715	n/a	RESPONSE	        M2	2	19	G4	release
353.726	n/a	RESPONSE	        M2	2	17	F4	press
354.381	n/a	RESPONSE	        M2	2	17	F4	release
354.39	n/a	RESPONSE	        M2	2	16	E4	press
354.872	n/a	RESPONSE	        M2	2	16	E4	release
355.632	n/a	RESPONSE	        M2	2	12	C4	press
356.045	n/a	RESPONSE	        M2	2	14	D4	press
356.117	n/a	RESPONSE	        M2	2	12	C4	release
356.459	n/a	RESPONSE	        M2	2	16	E4	press
356.567	n/a	RESPONSE	        M2	2	14	D4	release
356.871	n/a	RESPONSE	        M2	2	14	D4	press
356.95	n/a	RESPONSE	        M2	2	16	E4	release
357.252	n/a	RESPONSE	        M2	2	16	E4	press
357.332	n/a	RESPONSE	        M2	2	14	D4	release
357.636	n/a	RESPONSE	        M2	2	17	F4	press
357.715	n/a	RESPONSE	        M2	2	16	E4	release
358.009	n/a	RESPONSE	        M2	2	19	G4	press
358.119	n/a	RESPONSE	        M2	2	17	F4	release
358.68	n/a	RESPONSE	        M2	2	16	E4	press
358.76	n/a	RESPONSE	        M2	2	19	G4	release
359.05	n/a	RESPONSE	        M2	2	19	G4	press
359.101	n/a	RESPONSE	        M2	2	16	E4	release
359.252	n/a	RESPONSE	        M2	2	19	G4	release
359.375	n/a	RESPONSE	        M2	2	19	G4	press
359.714	6.317	CUE_LISTEN	        M8	1	n/a	n/a	n/a
359.739	n/a	RESPONSE	        M8	1	17	F4	press
360.081	n/a	RESPONSE	        M8	1	16	E4	press
360.207	n/a	RESPONSE	        M8	1	19	G4	release
360.265	n/a	RESPONSE	        M8	1	17	F4	release
360.38	n/a	RESPONSE	        M8	1	14	D4	press
360.484	n/a	RESPONSE	        M8	1	16	E4	release
360.615	n/a	RESPONSE	        M8	1	16	E4	press
360.659	n/a	RESPONSE	        M8	1	14	D4	release
360.794	n/a	RESPONSE	        M8	1	16	E4	release
366.031	7.758	FIXCROSS	n/a	n/a	n/a	n/a	n/a
367.046	n/a	RESPONSE	        M8	1	14	D4	press
367.667	n/a	RESPONSE	        M8	1	14	D4	release
368.35	n/a	RESPONSE	        M8	1	16	E4	press
369.196	n/a	RESPONSE	        M8	1	16	E4	release
373.79	6.325	CUE_PLAYBACK_RIGHT_HAND	        M8	1	n/a	n/a	n/a
374.305	n/a	RESPONSE	        M8	1	16	E4	press
374.617	n/a	RESPONSE	        M8	1	19	G4	press
374.767	n/a	RESPONSE	        M8	1	16	E4	release
374.959	n/a	RESPONSE	        M8	1	23	B4	press
375.05	n/a	RESPONSE	        M8	1	19	G4	release
375.284	n/a	RESPONSE	        M8	1	23	B4	release
375.512	n/a	RESPONSE	        M8	1	23	B4	press
376.174	n/a	RESPONSE	        M8	1	18	F#4	press
376.285	n/a	RESPONSE	        M8	1	23	B4	release
376.816	n/a	RESPONSE	        M8	1	21	A4	press
376.877	n/a	RESPONSE	        M8	1	18	F#4	release
378.01	n/a	RESPONSE	        M8	1	23	B4	press
378.11	n/a	RESPONSE	        M8	1	21	A4	release
378.85	n/a	RESPONSE	        M8	1	21	A4	press
379.01	n/a	RESPONSE	        M8	1	23	B4	release
379.179	n/a	RESPONSE	        M8	1	19	G4	press
379.601	n/a	RESPONSE	        M8	1	18	F#4	press
379.676	n/a	RESPONSE	        M8	1	21	A4	release
379.761	n/a	RESPONSE	        M8	1	19	G4	release
380.114	7.758	FIXCROSS	n/a	n/a	n/a	n/a	n/a
380.304	n/a	RESPONSE	        M8	1	16	E4	press
380.51	n/a	RESPONSE	        M8	1	18	F#4	release
380.941	n/a	RESPONSE	        M8	1	23	B4	press
381.055	n/a	RESPONSE	        M8	1	16	E4	release
381.852	n/a	RESPONSE	        M8	1	23	B4	release
387.873	6.317	CUE_LISTEN	        M8	2	n/a	n/a	n/a
394.19	7.758	FIXCROSS	n/a	n/a	n/a	n/a	n/a
401.948	6.325	CUE_PLAYBACK_RIGHT_HAND	        M8	2	n/a	n/a	n/a
402.686	n/a	RESPONSE	        M8	2	16	E4	press
402.977	n/a	RESPONSE	        M8	2	19	G4	press
403.111	n/a	RESPONSE	        M8	2	16	E4	release
403.293	n/a	RESPONSE	        M8	2	23	B4	press
403.351	n/a	RESPONSE	        M8	2	19	G4	release
403.574	n/a	RESPONSE	        M8	2	23	B4	release
403.785	n/a	RESPONSE	        M8	2	23	B4	press
404.326	n/a	RESPONSE	        M8	2	18	F#4	press
404.41	n/a	RESPONSE	        M8	2	23	B4	release
404.85	n/a	RESPONSE	        M8	2	21	A4	press
404.95	n/a	RESPONSE	        M8	2	18	F#4	release
405.841	n/a	RESPONSE	        M8	2	23	B4	press
405.932	n/a	RESPONSE	        M8	2	21	A4	release
406.584	n/a	RESPONSE	        M8	2	21	A4	press
406.875	n/a	RESPONSE	        M8	2	19	G4	press
406.999	n/a	RESPONSE	        M8	2	23	B4	release
407.137	n/a	RESPONSE	        M8	2	21	A4	release
407.169	n/a	RESPONSE	        M8	2	18	F#4	press
407.24	n/a	RESPONSE	        M8	2	19	G4	release
407.421	n/a	RESPONSE	        M8	2	19	G4	press
407.955	n/a	RESPONSE	        M8	2	16	E4	press
408.026	n/a	RESPONSE	        M8	2	19	G4	release
408.045	n/a	RESPONSE	        M8	2	18	F#4	release
408.273	7.758	FIXCROSS	n/a	n/a	n/a	n/a	n/a
408.779	n/a	RESPONSE	        M8	2	16	E4	release
416.031	6.317	CUE_LISTEN	        M4	1	n/a	n/a	n/a
422.348	7.758	FIXCROSS	n/a	n/a	n/a	n/a	n/a
430.106	6.317	CUE_PLAYBACK_BOTH_HANDS	        M4	1	n/a	n/a	n/a
430.704	n/a	RESPONSE	        M4	1	09	A3	press
430.706	n/a	RESPONSE	        M4	1	12	C4	press
430.71	n/a	RESPONSE	        M4	1	05	F3	press
431.215	n/a	RESPONSE	        M4	1	17	F4	press
431.752	n/a	RESPONSE	        M4	1	21	A4	press
431.881	n/a	RESPONSE	        M4	1	17	F4	release
432.242	n/a	RESPONSE	        M4	1	19	G4	press
432.384	n/a	RESPONSE	        M4	1	21	A4	release
432.705	n/a	RESPONSE	        M4	1	17	F4	press
432.886	n/a	RESPONSE	        M4	1	19	G4	release
433.149	n/a	RESPONSE	        M4	1	16	E4	press
433.269	n/a	RESPONSE	        M4	1	17	F4	release
433.62	n/a	RESPONSE	        M4	1	17	F4	press
433.701	n/a	RESPONSE	        M4	1	16	E4	release
434.284	n/a	RESPONSE	        M4	1	05	F3	release
434.305	n/a	RESPONSE	        M4	1	09	A3	release
434.336	n/a	RESPONSE	        M4	1	17	F4	release
434.387	n/a	RESPONSE	        M4	1	12	C4	release
434.539	n/a	RESPONSE	        M4	1	09	A3	press
434.541	n/a	RESPONSE	        M4	1	12	C4	press
434.544	n/a	RESPONSE	        M4	1	05	F3	press
435.022	n/a	RESPONSE	        M4	1	17	F4	press
435.464	n/a	RESPONSE	        M4	1	21	A4	press
435.625	n/a	RESPONSE	        M4	1	17	F4	release
435.946	n/a	RESPONSE	        M4	1	19	G4	press
436.147	n/a	RESPONSE	        M4	1	21	A4	release
436.389	n/a	RESPONSE	        M4	1	17	F4	press
436.423	7.758	FIXCROSS	n/a	n/a	n/a	n/a	n/a
436.61	n/a	RESPONSE	        M4	1	19	G4	release
436.831	n/a	RESPONSE	        M4	1	16	E4	press
436.932	n/a	RESPONSE	        M4	1	17	F4	release
437.254	n/a	RESPONSE	        M4	1	17	F4	press
437.357	n/a	RESPONSE	        M4	1	16	E4	release
437.829	n/a	RESPONSE	        M4	1	05	F3	release
437.937	n/a	RESPONSE	        M4	1	09	A3	release
438.069	n/a	RESPONSE	        M4	1	17	F4	release
439.612	n/a	RESPONSE	        M4	1	12	C4	release
444.181	6.317	CUE_LISTEN	        M4	2	n/a	n/a	n/a
450.498	7.758	FIXCROSS	n/a	n/a	n/a	n/a	n/a
458.256	6.325	CUE_PLAYBACK_BOTH_HANDS	        M4	2	n/a	n/a	n/a
459.197	n/a	RESPONSE	        M4	2	12	C4	press
459.204	n/a	RESPONSE	        M4	2	09	A3	press
459.261	n/a	RESPONSE	        M4	2	05	F3	press
459.719	n/a	RESPONSE	        M4	2	17	F4	press
460.21	n/a	RESPONSE	        M4	2	21	A4	press
460.305	n/a	RESPONSE	        M4	2	17	F4	release
460.732	n/a	RESPONSE	        M4	2	23	B4	press
460.79	n/a	RESPONSE	        M4	2	05	F3	release
460.81	n/a	RESPONSE	        M4	2	09	A3	release
460.825	n/a	RESPONSE	        M4	2	21	A4	release
461.401	n/a	RESPONSE	        M4	2	23	B4	release
461.582	n/a	RESPONSE	        M4	2	12	C4	release
461.585	n/a	RESPONSE	        M4	2	24	C5	press
462.285	n/a	RESPONSE	        M4	2	22	A#4	press
462.296	n/a	RESPONSE	        M4	2	04	E3	press
462.299	n/a	RESPONSE	        M4	2	07	G3	press
462.329	n/a	RESPONSE	        M4	2	12	C4	press
462.491	n/a	RESPONSE	        M4	2	24	C5	release
462.832	n/a	RESPONSE	        M4	2	21	A4	press
462.962	n/a	RESPONSE	        M4	2	22	A#4	release
463.284	n/a	RESPONSE	        M4	2	19	G4	press
463.425	n/a	RESPONSE	        M4	2	21	A4	release
463.896	n/a	RESPONSE	        M4	2	19	G4	release
463.997	n/a	RESPONSE	        M4	2	07	G3	release
464.0	n/a	RESPONSE	        M4	2	12	C4	release
464.002	n/a	RESPONSE	        M4	2	04	E3	release
464.172	n/a	RESPONSE	        M4	2	12	C4	press
464.182	n/a	RESPONSE	        M4	2	04	E3	press
464.186	n/a	RESPONSE	        M4	2	07	G3	press
464.581	7.758	FIXCROSS	n/a	n/a	n/a	n/a	n/a
464.72	n/a	RESPONSE	        M4	2	17	F4	press
465.331	n/a	RESPONSE	        M4	2	21	A4	press
465.502	n/a	RESPONSE	        M4	2	17	F4	release
466.014	n/a	RESPONSE	        M4	2	21	A4	release
466.125	n/a	RESPONSE	        M4	2	19	G4	press
466.736	n/a	RESPONSE	        M4	2	22	A#4	press
466.857	n/a	RESPONSE	        M4	2	19	G4	release
466.881	n/a	RESPONSE	        M4	2	07	G3	release
466.892	n/a	RESPONSE	        M4	2	04	E3	release
466.931	n/a	RESPONSE	        M4	2	12	C4	release
467.342	n/a	RESPONSE	        M4	2	12	C4	press
467.345	n/a	RESPONSE	        M4	2	09	A3	press
467.347	n/a	RESPONSE	        M4	2	21	A4	press
467.376	n/a	RESPONSE	        M4	2	05	F3	press
467.407	n/a	RESPONSE	        M4	2	22	A#4	release
467.859	n/a	RESPONSE	        M4	2	19	G4	press
468.395	n/a	RESPONSE	        M4	2	17	F4	press
468.442	n/a	RESPONSE	        M4	2	21	A4	release
468.539	n/a	RESPONSE	        M4	2	19	G4	release
469.182	n/a	RESPONSE	        M4	2	17	F4	release
469.266	n/a	RESPONSE	        M4	2	05	F3	release
469.29	n/a	RESPONSE	        M4	2	09	A3	release
469.317	n/a	RESPONSE	        M4	2	12	C4	release
472.34	6.317	CUE_LISTEN	        M3	1	n/a	n/a	n/a
478.656	7.759	FIXCROSS	n/a	n/a	n/a	n/a	n/a
486.415	6.317	CUE_PLAYBACK_RIGHT_HAND	        M3	1	n/a	n/a	n/a
487.062	n/a	RESPONSE	        M3	1	12	C4	press
487.482	n/a	RESPONSE	        M3	1	14	D4	press
487.564	n/a	RESPONSE	        M3	1	12	C4	release
487.915	n/a	RESPONSE	        M3	1	16	E4	press
488.047	n/a	RESPONSE	        M3	1	14	D4	release
488.307	n/a	RESPONSE	        M3	1	12	C4	press
488.426	n/a	RESPONSE	        M3	1	16	E4	release
488.575	n/a	RESPONSE	        M3	1	12	C4	release
488.76	n/a	RESPONSE	        M3	1	12	C4	press
489.181	n/a	RESPONSE	        M3	1	14	D4	press
489.255	n/a	RESPONSE	        M3	1	12	C4	release
489.632	n/a	RESPONSE	        M3	1	16	E4	press
489.734	n/a	RESPONSE	        M3	1	14	D4	release
490.079	n/a	RESPONSE	        M3	1	12	C4	press
490.17	n/a	RESPONSE	        M3	1	16	E4	release
490.37	n/a	RESPONSE	        M3	1	12	C4	release
490.544	n/a	RESPONSE	        M3	1	16	E4	press
490.98	n/a	RESPONSE	        M3	1	17	F4	press
491.041	n/a	RESPONSE	        M3	1	16	E4	release
491.402	n/a	RESPONSE	        M3	1	19	G4	press
491.49	n/a	RESPONSE	        M3	1	17	F4	release
492.257	n/a	RESPONSE	        M3	1	16	E4	press
492.309	n/a	RESPONSE	        M3	1	19	G4	release
492.66	n/a	RESPONSE	        M3	1	17	F4	press
492.701	n/a	RESPONSE	        M3	1	16	E4	release
492.731	7.758	FIXCROSS	n/a	n/a	n/a	n/a	n/a
493.082	n/a	RESPONSE	        M3	1	19	G4	press
493.164	n/a	RESPONSE	        M3	1	17	F4	release
493.887	n/a	RESPONSE	        M3	1	19	G4	release
500.49	6.325	CUE_LISTEN	        M3	2	n/a	n/a	n/a
506.815	7.759	FIXCROSS	n/a	n/a	n/a	n/a	n/a
514.573	6.325	CUE_PLAYBACK_RIGHT_HAND	        M3	2	n/a	n/a	n/a
514.925	n/a	RESPONSE	        M3	2	19	G4	press
515.266	n/a	RESPONSE	        M3	2	21	A4	press
515.397	n/a	RESPONSE	        M3	2	19	G4	release
515.601	n/a	RESPONSE	        M3	2	19	G4	press
515.88	n/a	RESPONSE	        M3	2	17	F4	press
516.211	n/a	RESPONSE	        M3	2	16	E4	press
516.342	n/a	RESPONSE	        M3	2	19	G4	release
516.354	n/a	RESPONSE	        M3	2	21	A4	release
516.365	n/a	RESPONSE	        M3	2	17	F4	release
516.826	n/a	RESPONSE	        M3	2	12	C4	press
516.999	n/a	RESPONSE	        M3	2	16	E4	release
517.429	n/a	RESPONSE	        M3	2	19	G4	press
517.49	n/a	RESPONSE	        M3	2	12	C4	release
517.741	n/a	RESPONSE	        M3	2	21	A4	press
517.822	n/a	RESPONSE	        M3	2	19	G4	release
518.054	n/a	RESPONSE	        M3	2	19	G4	press
518.407	n/a	RESPONSE	        M3	2	17	F4	press
518.73	n/a	RESPONSE	        M3	2	16	E4	press
519.341	n/a	RESPONSE	        M3	2	12	C4	press
519.374	n/a	RESPONSE	        M3	2	19	G4	release
519.38	n/a	RESPONSE	        M3	2	21	A4	release
519.449	n/a	RESPONSE	        M3	2	17	F4	release
519.499	n/a	RESPONSE	        M3	2	16	E4	release
519.865	n/a	RESPONSE	        M3	2	12	C4	release
519.991	n/a	RESPONSE	        M3	2	12	C4	press
520.898	7.758	FIXCROSS	n/a	n/a	n/a	n/a	n/a
520.959	n/a	RESPONSE	        M3	2	12	C4	release
521.215	n/a	RESPONSE	        M3	2	07	G3	press
521.795	n/a	RESPONSE	        M3	2	12	C4	press
522.596	n/a	RESPONSE	        M3	2	12	C4	release
522.84	n/a	RESPONSE	        M3	2	12	C4	press
522.889	n/a	RESPONSE	        M3	2	07	G3	release
523.351	n/a	RESPONSE	        M3	2	07	G3	press
523.491	n/a	RESPONSE	        M3	2	12	C4	release
523.932	n/a	RESPONSE	        M3	2	12	C4	press
524.014	n/a	RESPONSE	        M3	2	07	G3	release
524.726	n/a	RESPONSE	        M3	2	12	C4	release
528.656	6.317	CUE_LISTEN	        M5	1	n/a	n/a	n/a
534.973	7.758	FIXCROSS	n/a	n/a	n/a	n/a	n/a
542.732	6.317	CUE_PLAYBACK_BOTH_HANDS	        M5	1	n/a	n/a	n/a
543.879	n/a	RESPONSE	        M5	1	21	A4	press
543.881	n/a	RESPONSE	        M5	1	05	F3	press
544.21	n/a	RESPONSE	        M5	1	21	A4	release
544.364	n/a	RESPONSE	        M5	1	21	A4	press
544.374	n/a	RESPONSE	        M5	1	09	A3	press
544.535	n/a	RESPONSE	        M5	1	05	F3	release
544.716	n/a	RESPONSE	        M5	1	21	A4	release
544.877	n/a	RESPONSE	        M5	1	04	E3	press
544.889	n/a	RESPONSE	        M5	1	21	A4	press
544.97	n/a	RESPONSE	        M5	1	09	A3	release
545.381	n/a	RESPONSE	        M5	1	09	A3	press
545.502	n/a	RESPONSE	        M5	1	21	A4	release
545.515	n/a	RESPONSE	        M5	1	04	E3	release
545.905	n/a	RESPONSE	        M5	1	21	A4	press
545.916	n/a	RESPONSE	        M5	1	02	D3	press
545.987	n/a	RESPONSE	        M5	1	09	A3	release
546.24	n/a	RESPONSE	        M5	1	21	A4	release
546.41	n/a	RESPONSE	        M5	1	09	A3	press
546.412	n/a	RESPONSE	        M5	1	21	A4	press
546.572	n/a	RESPONSE	        M5	1	02	D3	release
546.774	n/a	RESPONSE	        M5	1	21	A4	release
546.935	n/a	RESPONSE	        M5	1	00	C3	press
546.946	n/a	RESPONSE	        M5	1	21	A4	press
547.0	n/a	RESPONSE	        M5	1	09	A3	release
547.429	n/a	RESPONSE	        M5	1	09	A3	press
547.52	n/a	RESPONSE	        M5	1	00	C3	release
547.601	n/a	RESPONSE	        M5	1	21	A4	release
547.912	n/a	RESPONSE	        M5	1	21	A4	press
547.926	n/a	RESPONSE	        M5	1	05	F3	press
548.015	n/a	RESPONSE	        M5	1	09	A3	release
549.029	n/a	RESPONSE	        M5	1	24	C5	press
549.048	7.758	FIXCROSS	n/a	n/a	n/a	n/a	n/a
549.136	n/a	RESPONSE	        M5	1	21	A4	release
550.507	n/a	RESPONSE	        M5	1	16	E4	press
550.526	n/a	RESPONSE	        M5	1	04	E3	press
550.579	n/a	RESPONSE	        M5	1	24	C5	release
550.655	n/a	RESPONSE	        M5	1	05	F3	release
551.016	n/a	RESPONSE	        M5	1	16	E4	release
551.1	n/a	RESPONSE	        M5	1	04	E3	release
551.262	n/a	RESPONSE	        M5	1	04	E3	press
551.266	n/a	RESPONSE	        M5	1	17	F4	press
552.439	n/a	RESPONSE	        M5	1	05	F3	press
552.597	n/a	RESPONSE	        M5	1	07	G3	press
552.63	n/a	RESPONSE	        M5	1	19	G4	press
552.632	n/a	RESPONSE	        M5	1	05	F3	release
552.641	n/a	RESPONSE	        M5	1	04	E3	release
552.722	n/a	RESPONSE	        M5	1	17	F4	release
553.294	n/a	RESPONSE	        M5	1	02	D3	press
553.296	n/a	RESPONSE	        M5	1	21	A4	press
553.346	n/a	RESPONSE	        M5	1	19	G4	release
553.367	n/a	RESPONSE	        M5	1	07	G3	release
553.919	n/a	RESPONSE	        M5	1	07	G3	press
554.0	n/a	RESPONSE	        M5	1	02	D3	release
554.925	n/a	RESPONSE	        M5	1	00	C3	press
554.954	n/a	RESPONSE	        M5	1	07	G3	release
555.785	n/a	RESPONSE	        M5	1	09	A3	press
555.856	n/a	RESPONSE	        M5	1	00	C3	release
556.32	n/a	RESPONSE	        M5	1	09	A3	release
556.381	n/a	RESPONSE	        M5	1	21	A4	release
556.807	6.317	CUE_LISTEN	        M5	2	n/a	n/a	n/a
563.123	7.758	FIXCROSS	n/a	n/a	n/a	n/a	n/a
570.882	6.325	CUE_PLAYBACK_BOTH_HANDS	        M5	2	n/a	n/a	n/a
571.384	n/a	RESPONSE	        M5	2	04	E3	press
571.414	n/a	RESPONSE	        M5	2	22	A#4	press
571.691	n/a	RESPONSE	        M5	2	22	A#4	release
572.05	n/a	RESPONSE	        M5	2	10	A#3	press
572.054	n/a	RESPONSE	        M5	2	22	A#4	press
572.162	n/a	RESPONSE	        M5	2	04	E3	release
572.406	n/a	RESPONSE	        M5	2	22	A#4	release
572.655	n/a	RESPONSE	        M5	2	02	D3	press
572.696	n/a	RESPONSE	        M5	2	22	A#4	press
572.727	n/a	RESPONSE	        M5	2	10	A#3	release
573.028	n/a	RESPONSE	        M5	2	22	A#4	release
573.24	n/a	RESPONSE	        M5	2	10	A#3	press
573.244	n/a	RESPONSE	        M5	2	22	A#4	press
573.342	n/a	RESPONSE	        M5	2	02	D3	release
573.596	n/a	RESPONSE	        M5	2	22	A#4	release
574.235	n/a	RESPONSE	        M5	2	10	A#3	release
574.878	n/a	RESPONSE	        M5	2	04	E3	press
574.888	n/a	RESPONSE	        M5	2	22	A#4	press
575.801	n/a	RESPONSE	        M5	2	21	A4	press
575.821	n/a	RESPONSE	        M5	2	09	A3	press
575.882	n/a	RESPONSE	        M5	2	22	A#4	release
576.074	n/a	RESPONSE	        M5	2	04	E3	release
576.235	n/a	RESPONSE	        M5	2	21	A4	release
576.656	n/a	RESPONSE	        M5	2	00	C3	press
576.658	n/a	RESPONSE	        M5	2	21	A4	press
576.849	n/a	RESPONSE	        M5	2	09	A3	release
577.03	n/a	RESPONSE	        M5	2	21	A4	release
577.207	7.758	FIXCROSS	n/a	n/a	n/a	n/a	n/a
577.341	n/a	RESPONSE	        M5	2	09	A3	press
577.344	n/a	RESPONSE	        M5	2	21	A4	press
577.415	n/a	RESPONSE	        M5	2	00	C3	release
577.705	n/a	RESPONSE	        M5	2	21	A4	release
578.58	n/a	RESPONSE	        M5	2	07	G3	press
578.582	n/a	RESPONSE	        M5	2	21	A4	press
578.64	n/a	RESPONSE	        M5	2	09	A3	release
580.344	n/a	RESPONSE	        M5	2	21	A4	release
580.499	n/a	RESPONSE	        M5	2	00	C3	press
580.53	n/a	RESPONSE	        M5	2	24	C5	press
580.541	n/a	RESPONSE	        M5	2	07	G3	release
580.926	n/a	RESPONSE	        M5	2	24	C5	release
581.144	n/a	RESPONSE	        M5	2	07	G3	press
581.171	n/a	RESPONSE	        M5	2	24	C5	press
581.367	n/a	RESPONSE	        M5	2	00	C3	release
582.061	n/a	RESPONSE	        M5	2	04	E3	press
582.082	n/a	RESPONSE	        M5	2	22	A#4	press
582.204	n/a	RESPONSE	        M5	2	24	C5	release
582.226	n/a	RESPONSE	        M5	2	07	G3	release
583.206	n/a	RESPONSE	        M5	2	19	G4	press
583.208	n/a	RESPONSE	        M5	2	07	G3	press
583.358	n/a	RESPONSE	        M5	2	22	A#4	release
583.372	n/a	RESPONSE	        M5	2	04	E3	release
583.991	n/a	RESPONSE	        M5	2	05	F3	press
583.994	n/a	RESPONSE	        M5	2	17	F4	press
584.074	n/a	RESPONSE	        M5	2	19	G4	release
584.076	n/a	RESPONSE	        M5	2	07	G3	release
584.847	n/a	RESPONSE	        M5	2	05	F3	release
584.965	6.317	CUE_LISTEN	        M1	1	n/a	n/a	n/a
584.968	n/a	RESPONSE	        M1	1	17	F4	release
591.282	7.758	FIXCROSS	n/a	n/a	n/a	n/a	n/a
591.982	n/a	RESPONSE	        M1	1	16	E4	press
592.204	n/a	RESPONSE	        M1	1	16	E4	release
593.816	n/a	RESPONSE	        M1	1	07	G3	press
594.176	n/a	RESPONSE	        M1	1	07	G3	release
599.04	6.317	CUE_PLAYBACK_BOTH_HANDS	        M1	1	n/a	n/a	n/a
599.534	n/a	RESPONSE	        M1	1	21	A4	press
599.548	n/a	RESPONSE	        M1	1	07	G3	press
599.558	n/a	RESPONSE	        M1	1	04	E3	press
599.561	n/a	RESPONSE	        M1	1	00	C3	press
600.242	n/a	RESPONSE	        M1	1	21	A4	release
600.417	n/a	RESPONSE	        M1	1	07	G3	release
600.707	n/a	RESPONSE	        M1	1	04	E3	release
601.704	n/a	RESPONSE	        M1	1	00	C3	release
601.804	n/a	RESPONSE	        M1	1	19	G4	press
601.815	n/a	RESPONSE	        M1	1	04	E3	press
601.826	n/a	RESPONSE	        M1	1	07	G3	press
601.828	n/a	RESPONSE	        M1	1	00	C3	press
602.328	n/a	RESPONSE	        M1	1	16	E4	press
602.42	n/a	RESPONSE	        M1	1	19	G4	release
602.671	n/a	RESPONSE	        M1	1	16	E4	release
602.805	n/a	RESPONSE	        M1	1	16	E4	press
602.974	n/a	RESPONSE	        M1	1	00	C3	release
603.075	n/a	RESPONSE	        M1	1	16	E4	release
603.086	n/a	RESPONSE	        M1	1	04	E3	release
603.187	n/a	RESPONSE	        M1	1	07	G3	release
603.271	n/a	RESPONSE	        M1	1	05	F3	press
603.28	n/a	RESPONSE	        M1	1	17	F4	press
603.282	n/a	RESPONSE	        M1	1	07	G3	press
603.292	n/a	RESPONSE	        M1	1	02	D3	press
603.754	n/a	RESPONSE	        M1	1	14	D4	press
603.905	n/a	RESPONSE	        M1	1	17	F4	release
604.097	n/a	RESPONSE	        M1	1	14	D4	release
604.207	n/a	RESPONSE	        M1	1	14	D4	press
604.41	n/a	RESPONSE	        M1	1	02	D3	release
604.501	n/a	RESPONSE	        M1	1	05	F3	release
604.512	n/a	RESPONSE	        M1	1	14	D4	release
604.674	n/a	RESPONSE	        M1	1	04	E3	press
604.687	n/a	RESPONSE	        M1	1	12	C4	press
604.696	n/a	RESPONSE	        M1	1	00	C3	press
604.918	n/a	RESPONSE	        M1	1	16	E4	press
605.03	n/a	RESPONSE	        M1	1	12	C4	release
605.162	n/a	RESPONSE	        M1	1	19	G4	press
605.242	n/a	RESPONSE	        M1	1	16	E4	release
605.357	7.758	FIXCROSS	n/a	n/a	n/a	n/a	n/a
605.814	n/a	RESPONSE	        M1	1	19	G4	release
605.865	n/a	RESPONSE	        M1	1	04	E3	release
606.016	n/a	RESPONSE	        M1	1	00	C3	release
606.398	n/a	RESPONSE	        M1	1	07	G3	release
613.115	6.325	CUE_LISTEN	        M1	2	n/a	n/a	n/a
619.44	7.758	FIXCROSS	n/a	n/a	n/a	n/a	n/a
627.198	6.317	CUE_PLAYBACK_BOTH_HANDS	        M1	2	n/a	n/a	n/a
627.704	n/a	RESPONSE	        M1	2	19	G4	press
627.712	n/a	RESPONSE	        M1	2	04	E3	press
627.715	n/a	RESPONSE	        M1	2	07	G3	press
627.766	n/a	RESPONSE	        M1	2	00	C3	press
628.268	n/a	RESPONSE	        M1	2	16	E4	press
628.392	n/a	RESPONSE	        M1	2	19	G4	release
628.564	n/a	RESPONSE	        M1	2	16	E4	release
628.748	n/a	RESPONSE	        M1	2	16	E4	press
628.966	n/a	RESPONSE	        M1	2	00	C3	release
629.054	n/a	RESPONSE	        M1	2	16	E4	release
629.057	n/a	RESPONSE	        M1	2	04	E3	release
629.248	n/a	RESPONSE	        M1	2	05	F3	press
629.252	n/a	RESPONSE	        M1	2	17	F4	press
629.257	n/a	RESPONSE	        M1	2	02	D3	press
629.756	n/a	RESPONSE	        M1	2	14	D4	press
629.888	n/a	RESPONSE	        M1	2	17	F4	release
630.034	n/a	RESPONSE	        M1	2	14	D4	release
630.238	n/a	RESPONSE	        M1	2	14	D4	press
630.361	n/a	RESPONSE	        M1	2	04	E3	press
630.426	n/a	RESPONSE	        M1	2	02	D3	release
630.491	n/a	RESPONSE	        M1	2	05	F3	release
630.547	n/a	RESPONSE	        M1	2	07	G3	release
630.57	n/a	RESPONSE	        M1	2	14	D4	release
630.731	n/a	RESPONSE	        M1	2	04	E3	release
630.805	n/a	RESPONSE	        M1	2	04	E3	press
630.812	n/a	RESPONSE	        M1	2	07	G3	press
630.815	n/a	RESPONSE	        M1	2	00	C3	press
630.822	n/a	RESPONSE	        M1	2	12	C4	press
631.06	n/a	RESPONSE	        M1	2	16	E4	press
631.158	n/a	RESPONSE	        M1	2	12	C4	release
631.328	n/a	RESPONSE	        M1	2	12	C4	press
631.401	n/a	RESPONSE	        M1	2	16	E4	release
632.077	n/a	RESPONSE	        M1	2	12	C4	release
632.108	n/a	RESPONSE	        M1	2	07	G3	release
632.14	n/a	RESPONSE	        M1	2	00	C3	release
632.151	n/a	RESPONSE	        M1	2	04	E3	release
633.515	7.758	FIXCROSS	n/a	n/a	n/a	n/a	n/a
641.273	6.317	CUE_LISTEN	        M7	1	n/a	n/a	n/a
647.59	7.758	FIXCROSS	n/a	n/a	n/a	n/a	n/a
655.348	6.325	CUE_PLAYBACK_RIGHT_HAND	        M7	1	n/a	n/a	n/a
655.735	n/a	RESPONSE	        M7	1	18	F#4	press
656.397	n/a	RESPONSE	        M7	1	18	F#4	release
658.5	n/a	RESPONSE	        M7	1	22	A#4	press
659.215	n/a	RESPONSE	        M7	1	21	A4	press
659.347	n/a	RESPONSE	        M7	1	22	A#4	release
659.904	n/a	RESPONSE	        M7	1	19	G4	press
660.0	n/a	RESPONSE	        M7	1	21	A4	release
660.652	n/a	RESPONSE	        M7	1	21	A4	press
660.736	n/a	RESPONSE	        M7	1	19	G4	release
661.346	n/a	RESPONSE	        M7	1	14	D4	press
661.661	n/a	RESPONSE	        M7	1	21	A4	release
661.673	7.758	FIXCROSS	n/a	n/a	n/a	n/a	n/a
662.022	n/a	RESPONSE	        M7	1	14	D4	release
662.085	n/a	RESPONSE	        M7	1	14	D4	press
663.214	n/a	RESPONSE	        M7	1	21	A4	press
663.686	n/a	RESPONSE	        M7	1	21	A4	release
663.926	n/a	RESPONSE	        M7	1	19	G4	press
663.928	n/a	RESPONSE	        M7	1	21	A4	press
664.041	n/a	RESPONSE	        M7	1	21	A4	release
664.12	n/a	RESPONSE	        M7	1	14	D4	release
664.602	n/a	RESPONSE	        M7	1	19	G4	release
665.494	n/a	RESPONSE	        M7	1	07	G3	press
665.925	n/a	RESPONSE	        M7	1	09	A3	press
666.048	n/a	RESPONSE	        M7	1	07	G3	release
667.127	n/a	RESPONSE	        M7	1	10	A#3	press
667.198	n/a	RESPONSE	        M7	1	09	A3	release
667.69	n/a	RESPONSE	        M7	1	12	C4	press
667.751	n/a	RESPONSE	        M7	1	10	A#3	release
668.264	n/a	RESPONSE	        M7	1	14	D4	press
668.441	n/a	RESPONSE	        M7	1	12	C4	release
669.312	n/a	RESPONSE	        M7	1	14	D4	release
669.432	6.317	CUE_LISTEN	        M7	2	n/a	n/a	n/a
675.748	7.758	FIXCROSS	n/a	n/a	n/a	n/a	n/a
679.488	n/a	RESPONSE	        M7	2	12	C4	press
679.732	n/a	RESPONSE	        M7	2	12	C4	release
679.76	n/a	RESPONSE	        M7	2	11	B3	press
680.055	n/a	RESPONSE	        M7	2	11	B3	release
683.507	6.325	CUE_PLAYBACK_RIGHT_HAND	        M7	2	n/a	n/a	n/a
683.88	n/a	RESPONSE	        M7	2	12	C4	press
683.891	n/a	RESPONSE	        M7	2	16	E4	press
683.9	n/a	RESPONSE	        M7	2	09	A3	press
684.355	n/a	RESPONSE	        M7	2	16	E4	release
684.444	n/a	RESPONSE	        M7	2	12	C4	release
684.465	n/a	RESPONSE	        M7	2	09	A3	release
684.748	n/a	RESPONSE	        M7	2	17	F4	press
685.437	n/a	RESPONSE	        M7	2	19	G4	press
685.498	n/a	RESPONSE	        M7	2	17	F4	release
685.84	n/a	RESPONSE	        M7	2	17	F4	press
686.191	n/a	RESPONSE	        M7	2	19	G4	release
686.322	n/a	RESPONSE	        M7	2	15	D#4	press
686.424	n/a	RESPONSE	        M7	2	17	F4	release
686.845	n/a	RESPONSE	        M7	2	14	D4	press
686.966	n/a	RESPONSE	        M7	2	15	D#4	release
687.317	n/a	RESPONSE	        M7	2	15	D#4	press
687.418	n/a	RESPONSE	        M7	2	14	D4	release
688.822	n/a	RESPONSE	        M7	2	17	F4	press
688.892	n/a	RESPONSE	        M7	2	15	D#4	release
689.347	n/a	RESPONSE	        M7	2	15	D#4	press
689.526	n/a	RESPONSE	        M7	2	17	F4	release
689.823	n/a	RESPONSE	        M7	2	14	D4	press
689.832	7.758	FIXCROSS	n/a	n/a	n/a	n/a	n/a
690.004	n/a	RESPONSE	        M7	2	15	D#4	release
690.268	n/a	RESPONSE	        M7	2	12	C4	press
690.388	n/a	RESPONSE	        M7	2	14	D4	release
690.754	n/a	RESPONSE	        M7	2	14	D4	press
690.836	n/a	RESPONSE	        M7	2	12	C4	release
692.239	n/a	RESPONSE	        M7	2	19	G4	press
692.3	n/a	RESPONSE	        M7	2	14	D4	release
693.341	n/a	RESPONSE	        M7	2	14	D4	press
693.422	n/a	RESPONSE	        M7	2	19	G4	release
694.263	n/a	RESPONSE	        M7	2	14	D4	release
694.437	n/a	RESPONSE	        M7	2	12	C4	press
695.367	n/a	RESPONSE	        M7	2	10	A#3	press
695.42	n/a	RESPONSE	        M7	2	12	C4	release
696.22	n/a	RESPONSE	        M7	2	10	A#3	release
697.59	6.317	CUE_LISTEN	        M4	1	n/a	n/a	n/a
703.907	7.758	FIXCROSS	n/a	n/a	n/a	n/a	n/a
711.665	6.317	CUE_PLAYBACK_RIGHT_HAND	        M4	1	n/a	n/a	n/a
712.138	n/a	RESPONSE	        M4	1	12	C4	press
712.58	n/a	RESPONSE	        M4	1	16	E4	press
712.671	n/a	RESPONSE	        M4	1	12	C4	release
713.092	n/a	RESPONSE	        M4	1	19	G4	press
713.203	n/a	RESPONSE	        M4	1	16	E4	release
714.316	n/a	RESPONSE	        M4	1	19	G4	release
714.677	n/a	RESPONSE	        M4	1	12	C4	press
715.291	n/a	RESPONSE	        M4	1	16	E4	press
715.37	n/a	RESPONSE	        M4	1	12	C4	release
715.911	n/a	RESPONSE	        M4	1	19	G4	press
716.032	n/a	RESPONSE	        M4	1	16	E4	release
716.436	n/a	RESPONSE	        M4	1	17	F4	press
716.625	n/a	RESPONSE	        M4	1	19	G4	release
716.956	n/a	RESPONSE	        M4	1	16	E4	press
717.087	n/a	RESPONSE	        M4	1	17	F4	release
717.438	n/a	RESPONSE	        M4	1	14	D4	press
717.55	n/a	RESPONSE	        M4	1	16	E4	release
717.982	7.758	FIXCROSS	n/a	n/a	n/a	n/a	n/a
718.031	n/a	RESPONSE	        M4	1	14	D4	release
718.523	n/a	RESPONSE	        M4	1	12	C4	press
719.146	n/a	RESPONSE	        M4	1	17	F4	press
719.192	n/a	RESPONSE	        M4	1	12	C4	release
719.738	n/a	RESPONSE	        M4	1	21	A4	press
719.866	n/a	RESPONSE	        M4	1	17	F4	release
720.182	n/a	RESPONSE	        M4	1	19	G4	press
720.328	n/a	RESPONSE	        M4	1	21	A4	release
720.61	n/a	RESPONSE	        M4	1	17	F4	press
720.742	n/a	RESPONSE	        M4	1	19	G4	release
720.96	n/a	RESPONSE	        M4	1	16	E4	press
721.072	n/a	RESPONSE	        M4	1	17	F4	release
721.313	n/a	RESPONSE	        M4	1	17	F4	press
721.408	n/a	RESPONSE	        M4	1	16	E4	release
721.784	n/a	RESPONSE	        M4	1	17	F4	release
722.143	n/a	RESPONSE	        M4	1	12	C4	press
722.585	n/a	RESPONSE	        M4	1	17	F4	press
722.676	n/a	RESPONSE	        M4	1	12	C4	release
722.908	n/a	RESPONSE	        M4	1	21	A4	press
723.168	n/a	RESPONSE	        M4	1	17	F4	release
723.33	n/a	RESPONSE	        M4	1	19	G4	press
723.564	n/a	RESPONSE	        M4	1	21	A4	release
723.685	n/a	RESPONSE	        M4	1	17	F4	press
723.916	n/a	RESPONSE	        M4	1	19	G4	release
723.965	n/a	RESPONSE	        M4	1	16	E4	press
724.116	n/a	RESPONSE	        M4	1	17	F4	release
724.298	n/a	RESPONSE	        M4	1	17	F4	press
724.382	n/a	RESPONSE	        M4	1	16	E4	release
724.752	n/a	RESPONSE	        M4	1	17	F4	release
725.74	6.325	CUE_LISTEN	        M4	2	n/a	n/a	n/a
732.065	7.758	FIXCROSS	n/a	n/a	n/a	n/a	n/a
737.696	n/a	RESPONSE	        M4	2	16	E4	press
737.847	n/a	RESPONSE	        M4	2	16	E4	release
738.656	n/a	RESPONSE	        M4	2	17	F4	press
739.4	n/a	RESPONSE	        M4	2	17	F4	release
739.824	6.317	CUE_PLAYBACK_RIGHT_HAND	        M4	2	n/a	n/a	n/a
740.226	n/a	RESPONSE	        M4	2	12	C4	press
740.256	n/a	RESPONSE	        M4	2	14	D4	press
740.698	n/a	RESPONSE	        M4	2	14	D4	release
740.808	n/a	RESPONSE	        M4	2	12	C4	release
740.941	n/a	RESPONSE	        M4	2	12	C4	press
741.726	n/a	RESPONSE	        M4	2	12	C4	release
742.043	n/a	RESPONSE	        M4	2	17	F4	press
742.975	n/a	RESPONSE	        M4	2	21	A4	press
743.146	n/a	RESPONSE	        M4	2	17	F4	release
743.738	n/a	RESPONSE	        M4	2	24	C5	press
743.848	n/a	RESPONSE	        M4	2	21	A4	release
744.331	n/a	RESPONSE	        M4	2	22	A#4	press
744.532	n/a	RESPONSE	        M4	2	24	C5	release
744.886	n/a	RESPONSE	        M4	2	21	A4	press
745.035	n/a	RESPONSE	        M4	2	22	A#4	release
745.396	n/a	RESPONSE	        M4	2	19	G4	press
745.547	n/a	RESPONSE	        M4	2	21	A4	release
746.14	7.758	FIXCROSS	n/a	n/a	n/a	n/a	n/a
746.168	n/a	RESPONSE	        M4	2	19	G4	release
746.41	n/a	RESPONSE	        M4	2	14	D4	press
746.421	n/a	RESPONSE	        M4	2	12	C4	press
746.462	n/a	RESPONSE	        M4	2	12	C4	release
747.104	n/a	RESPONSE	        M4	2	17	F4	press
747.215	n/a	RESPONSE	        M4	2	14	D4	release
747.756	n/a	RESPONSE	        M4	2	21	A4	press
747.837	n/a	RESPONSE	        M4	2	17	F4	release
749.198	n/a	RESPONSE	        M4	2	22	A#4	press
749.226	n/a	RESPONSE	        M4	2	21	A4	release
749.968	n/a	RESPONSE	        M4	2	21	A4	press
750.073	n/a	RESPONSE	        M4	2	22	A#4	release
750.64	n/a	RESPONSE	        M4	2	19	G4	press
750.778	n/a	RESPONSE	        M4	2	21	A4	release
751.293	n/a	RESPONSE	        M4	2	17	F4	press
751.376	n/a	RESPONSE	        M4	2	19	G4	release
752.064	n/a	RESPONSE	        M4	2	17	F4	release
753.899	6.317	CUE_LISTEN	        M2	1	n/a	n/a	n/a
760.215	7.758	FIXCROSS	n/a	n/a	n/a	n/a	n/a
762.907	n/a	RESPONSE	        M2	1	24	C5	press
764.57	n/a	RESPONSE	        M2	1	24	C5	release
767.974	6.325	CUE_PLAYBACK_BOTH_HANDS	        M2	1	n/a	n/a	n/a
768.363	n/a	RESPONSE	        M2	1	24	C5	press
768.366	n/a	RESPONSE	        M2	1	00	C3	press
768.368	n/a	RESPONSE	        M2	1	07	G3	press
769.023	n/a	RESPONSE	        M2	1	19	G4	press
769.118	n/a	RESPONSE	        M2	1	24	C5	release
769.408	n/a	RESPONSE	        M2	1	19	G4	release
769.417	n/a	RESPONSE	        M2	1	07	G3	release
769.45	n/a	RESPONSE	        M2	1	00	C3	release
769.57	n/a	RESPONSE	        M2	1	19	G4	press
769.575	n/a	RESPONSE	        M2	1	00	C3	press
769.578	n/a	RESPONSE	        M2	1	07	G3	press
770.118	n/a	RESPONSE	        M2	1	17	F4	press
770.242	n/a	RESPONSE	        M2	1	19	G4	release
770.536	n/a	RESPONSE	        M2	1	07	G3	release
770.538	n/a	RESPONSE	        M2	1	17	F4	release
770.562	n/a	RESPONSE	        M2	1	00	C3	release
770.643	n/a	RESPONSE	        M2	1	16	E4	press
770.662	n/a	RESPONSE	        M2	1	07	G3	press
770.665	n/a	RESPONSE	        M2	1	00	C3	press
771.181	n/a	RESPONSE	        M2	1	17	F4	press
771.252	n/a	RESPONSE	        M2	1	16	E4	release
771.557	n/a	RESPONSE	        M2	1	07	G3	release
771.595	n/a	RESPONSE	        M2	1	17	F4	release
771.602	n/a	RESPONSE	        M2	1	00	C3	release
771.698	n/a	RESPONSE	        M2	1	19	G4	press
771.702	n/a	RESPONSE	        M2	1	07	G3	press
771.705	n/a	RESPONSE	        M2	1	00	C3	press
772.396	n/a	RESPONSE	        M2	1	19	G4	release
772.497	n/a	RESPONSE	        M2	1	07	G3	release
772.528	n/a	RESPONSE	        M2	1	00	C3	release
772.69	n/a	RESPONSE	        M2	1	07	G3	press
772.701	n/a	RESPONSE	        M2	1	00	C3	press
772.705	n/a	RESPONSE	        M2	1	24	C5	press
773.273	n/a	RESPONSE	        M2	1	19	G4	press
773.385	n/a	RESPONSE	        M2	1	24	C5	release
773.577	n/a	RESPONSE	        M2	1	07	G3	release
773.58	n/a	RESPONSE	        M2	1	00	C3	release
773.618	n/a	RESPONSE	        M2	1	19	G4	release
773.73	n/a	RESPONSE	        M2	1	19	G4	press
773.741	n/a	RESPONSE	        M2	1	07	G3	press
773.743	n/a	RESPONSE	        M2	1	00	C3	press
774.285	n/a	RESPONSE	        M2	1	17	F4	press
774.299	7.758	FIXCROSS	n/a	n/a	n/a	n/a	n/a
774.416	n/a	RESPONSE	        M2	1	19	G4	release
774.59	n/a	RESPONSE	        M2	1	07	G3	release
774.598	n/a	RESPONSE	        M2	1	00	C3	release
774.612	n/a	RESPONSE	        M2	1	17	F4	release
774.791	n/a	RESPONSE	        M2	1	00	C3	press
774.793	n/a	RESPONSE	        M2	1	07	G3	press
774.796	n/a	RESPONSE	        M2	1	16	E4	press
775.326	n/a	RESPONSE	        M2	1	14	D4	press
775.456	n/a	RESPONSE	        M2	1	16	E4	release
775.637	n/a	RESPONSE	        M2	1	07	G3	release
775.74	n/a	RESPONSE	        M2	1	00	C3	release
775.77	n/a	RESPONSE	        M2	1	14	D4	release
775.881	n/a	RESPONSE	        M2	1	00	C3	press
775.883	n/a	RESPONSE	        M2	1	12	C4	press
775.886	n/a	RESPONSE	        M2	1	07	G3	press
777.045	n/a	RESPONSE	        M2	1	12	C4	release
777.216	n/a	RESPONSE	        M2	1	00	C3	release
777.757	n/a	RESPONSE	        M2	1	07	G3	release
778.432	n/a	RESPONSE	        M2	1	12	C4	press
779.098	n/a	RESPONSE	        M2	1	12	C4	release
782.057	6.317	CUE_LISTEN	        M2	2	n/a	n/a	n/a
788.374	7.758	FIXCROSS	n/a	n/a	n/a	n/a	n/a
796.132	6.317	CUE_PLAYBACK_BOTH_HANDS	        M2	2	n/a	n/a	n/a
796.593	n/a	RESPONSE	        M2	2	12	C4	press
796.596	n/a	RESPONSE	        M2	2	07	G3	press
796.598	n/a	RESPONSE	        M2	2	00	C3	press
797.007	n/a	RESPONSE	        M2	2	14	D4	press
797.098	n/a	RESPONSE	        M2	2	12	C4	release
797.351	n/a	RESPONSE	        M2	2	07	G3	release
797.371	n/a	RESPONSE	        M2	2	14	D4	release
797.382	n/a	RESPONSE	        M2	2	00	C3	release
797.463	n/a	RESPONSE	        M2	2	16	E4	press
797.485	n/a	RESPONSE	        M2	2	00	C3	press
797.496	n/a	RESPONSE	        M2	2	07	G3	press
797.908	n/a	RESPONSE	        M2	2	14	D4	press
798.008	n/a	RESPONSE	        M2	2	16	E4	release
798.155	n/a	RESPONSE	        M2	2	00	C3	release
798.168	n/a	RESPONSE	        M2	2	14	D4	release
798.176	n/a	RESPONSE	        M2	2	07	G3	release
798.341	n/a	RESPONSE	        M2	2	16	E4	press
798.36	n/a	RESPONSE	        M2	2	00	C3	press
798.362	n/a	RESPONSE	        M2	2	07	G3	press
798.768	n/a	RESPONSE	        M2	2	17	F4	press
798.98	n/a	RESPONSE	        M2	2	16	E4	release
799.133	n/a	RESPONSE	        M2	2	17	F4	release
799.142	n/a	RESPONSE	        M2	2	00	C3	release
799.155	n/a	RESPONSE	        M2	2	07	G3	release
799.235	n/a	RESPONSE	        M2	2	19	G4	press
799.248	n/a	RESPONSE	        M2	2	00	C3	press
799.275	n/a	RESPONSE	        M2	2	07	G3	press
799.943	n/a	RESPONSE	        M2	2	19	G4	release
799.975	n/a	RESPONSE	        M2	2	07	G3	release
799.985	n/a	RESPONSE	        M2	2	00	C3	release
800.105	n/a	RESPONSE	        M2	2	16	E4	press
800.107	n/a	RESPONSE	        M2	2	07	G3	press
800.115	n/a	RESPONSE	        M2	2	00	C3	press
800.51	n/a	RESPONSE	        M2	2	19	G4	press
800.556	n/a	RESPONSE	        M2	2	16	E4	release
800.796	n/a	RESPONSE	        M2	2	19	G4	release
800.798	n/a	RESPONSE	        M2	2	07	G3	release
800.817	n/a	RESPONSE	        M2	2	00	C3	release
800.946	n/a	RESPONSE	        M2	2	19	G4	press
800.948	n/a	RESPONSE	        M2	2	00	C3	press
800.953	n/a	RESPONSE	        M2	2	07	G3	press
801.393	n/a	RESPONSE	        M2	2	17	F4	press
801.551	n/a	RESPONSE	        M2	2	19	G4	release
801.643	n/a	RESPONSE	        M2	2	17	F4	release
801.661	n/a	RESPONSE	        M2	2	07	G3	release
801.678	n/a	RESPONSE	        M2	2	00	C3	release
801.853	n/a	RESPONSE	        M2	2	16	E4	press
801.856	n/a	RESPONSE	        M2	2	07	G3	press
801.858	n/a	RESPONSE	        M2	2	00	C3	press
802.258	n/a	RESPONSE	        M2	2	14	D4	press
802.361	n/a	RESPONSE	        M2	2	16	E4	release
802.449	7.758	FIXCROSS	n/a	n/a	n/a	n/a	n/a
802.55	n/a	RESPONSE	        M2	2	07	G3	release
802.582	n/a	RESPONSE	        M2	2	00	C3	release
802.592	n/a	RESPONSE	        M2	2	14	D4	release
802.666	n/a	RESPONSE	        M2	2	12	C4	press
802.695	n/a	RESPONSE	        M2	2	07	G3	press
802.697	n/a	RESPONSE	        M2	2	00	C3	press
803.157	n/a	RESPONSE	        M2	2	00	C3	release
803.228	n/a	RESPONSE	        M2	2	12	C4	release
803.291	n/a	RESPONSE	        M2	2	07	G3	release
810.207	6.325	CUE_LISTEN	        M8	1	n/a	n/a	n/a
814.667	n/a	RESPONSE	        M8	1	12	C4	press
815.136	n/a	RESPONSE	        M8	1	12	C4	release
815.447	n/a	RESPONSE	        M8	1	14	D4	press
815.791	n/a	RESPONSE	        M8	1	14	D4	release
816.532	7.758	FIXCROSS	n/a	n/a	n/a	n/a	n/a
824.29	6.317	CUE_PLAYBACK_BOTH_HANDS	        M8	1	n/a	n/a	n/a
824.64	n/a	RESPONSE	        M8	1	16	E4	press
824.941	n/a	RESPONSE	        M8	1	19	G4	press
825.055	n/a	RESPONSE	        M8	1	16	E4	release
825.246	n/a	RESPONSE	        M8	1	23	B4	press
825.325	n/a	RESPONSE	        M8	1	19	G4	release
825.636	n/a	RESPONSE	        M8	1	23	B4	release
825.807	n/a	RESPONSE	        M8	1	23	B4	press
826.66	n/a	RESPONSE	        M8	1	18	F#4	press
826.681	n/a	RESPONSE	        M8	1	09	A3	press
826.793	n/a	RESPONSE	        M8	1	23	B4	release
827.353	n/a	RESPONSE	        M8	1	12	C4	press
827.573	n/a	RESPONSE	        M8	1	09	A3	release
827.975	n/a	RESPONSE	        M8	1	14	D4	press
827.986	n/a	RESPONSE	        M8	1	21	A4	press
828.07	n/a	RESPONSE	        M8	1	18	F#4	release
828.195	n/a	RESPONSE	        M8	1	12	C4	release
828.546	n/a	RESPONSE	        M8	1	14	D4	release
828.852	n/a	RESPONSE	        M8	1	16	E4	press
828.865	n/a	RESPONSE	        M8	1	21	A4	release
828.942	n/a	RESPONSE	        M8	1	21	A4	press
829.546	n/a	RESPONSE	        M8	1	23	B4	press
829.556	n/a	RESPONSE	        M8	1	15	D#4	press
829.638	n/a	RESPONSE	        M8	1	21	A4	release
829.65	n/a	RESPONSE	        M8	1	16	E4	release
830.238	n/a	RESPONSE	        M8	1	11	B3	press
830.357	n/a	RESPONSE	        M8	1	15	D#4	release
830.562	n/a	RESPONSE	        M8	1	21	A4	press
830.607	7.758	FIXCROSS	n/a	n/a	n/a	n/a	n/a
830.926	n/a	RESPONSE	        M8	1	19	G4	press
831.522	n/a	RESPONSE	        M8	1	18	F#4	press
831.61	n/a	RESPONSE	        M8	1	23	B4	release
831.641	n/a	RESPONSE	        M8	1	21	A4	release
831.741	n/a	RESPONSE	        M8	1	19	G4	release
832.266	n/a	RESPONSE	        M8	1	16	E4	press
832.958	n/a	RESPONSE	        M8	1	12	C4	press
833.008	n/a	RESPONSE	        M8	1	11	B3	release
833.56	n/a	RESPONSE	        M8	1	23	B4	press
833.563	n/a	RESPONSE	        M8	1	11	B3	press
833.612	n/a	RESPONSE	        M8	1	18	F#4	release
833.716	n/a	RESPONSE	        M8	1	12	C4	release
833.725	n/a	RESPONSE	        M8	1	16	E4	release
833.977	n/a	RESPONSE	        M8	1	11	B3	release
834.201	n/a	RESPONSE	        M8	1	11	B3	press
835.085	n/a	RESPONSE	        M8	1	23	B4	release
835.225	n/a	RESPONSE	        M8	1	11	B3	release
838.366	6.317	CUE_LISTEN	        M8	2	n/a	n/a	n/a
844.682	7.758	FIXCROSS	n/a	n/a	n/a	n/a	n/a
845.812	n/a	RESPONSE	        M8	2	14	D4	press
846.033	n/a	RESPONSE	        M8	2	14	D4	release
852.44	6.325	CUE_PLAYBACK_BOTH_HANDS	        M8	2	n/a	n/a	n/a
852.848	n/a	RESPONSE	        M8	2	16	E4	press
853.15	n/a	RESPONSE	        M8	2	19	G4	press
853.272	n/a	RESPONSE	        M8	2	16	E4	release
853.452	n/a	RESPONSE	        M8	2	23	B4	press
853.553	n/a	RESPONSE	        M8	2	19	G4	release
853.835	n/a	RESPONSE	        M8	2	23	B4	release
854.018	n/a	RESPONSE	        M8	2	23	B4	press
854.548	n/a	RESPONSE	        M8	2	09	A3	press
854.572	n/a	RESPONSE	        M8	2	18	F#4	press
854.692	n/a	RESPONSE	        M8	2	23	B4	release
855.092	n/a	RESPONSE	        M8	2	12	C4	press
855.155	n/a	RESPONSE	        M8	2	09	A3	release
855.737	n/a	RESPONSE	        M8	2	16	E4	press
855.766	n/a	RESPONSE	        M8	2	21	A4	press
855.847	n/a	RESPONSE	        M8	2	18	F#4	release
855.888	n/a	RESPONSE	        M8	2	12	C4	release
856.191	n/a	RESPONSE	        M8	2	16	E4	release
856.321	n/a	RESPONSE	        M8	2	16	E4	press
856.902	n/a	RESPONSE	        M8	2	23	B4	press
856.913	n/a	RESPONSE	        M8	2	15	D#4	press
856.997	n/a	RESPONSE	        M8	2	21	A4	release
857.027	n/a	RESPONSE	        M8	2	16	E4	release
857.508	n/a	RESPONSE	        M8	2	11	B3	press
857.59	n/a	RESPONSE	        M8	2	15	D#4	release
857.801	n/a	RESPONSE	        M8	2	21	A4	press
858.157	n/a	RESPONSE	        M8	2	19	G4	press
858.267	n/a	RESPONSE	        M8	2	23	B4	release
858.558	n/a	RESPONSE	        M8	2	18	F#4	press
858.573	n/a	RESPONSE	        M8	2	21	A4	release
858.662	n/a	RESPONSE	        M8	2	19	G4	release
858.766	7.758	FIXCROSS	n/a	n/a	n/a	n/a	n/a
858.923	n/a	RESPONSE	        M8	2	19	G4	press
859.067	n/a	RESPONSE	        M8	2	18	F#4	release
859.456	n/a	RESPONSE	        M8	2	12	C4	press
859.54	n/a	RESPONSE	        M8	2	11	B3	release
860.09	n/a	RESPONSE	        M8	2	11	B3	press
860.092	n/a	RESPONSE	        M8	2	16	E4	press
860.182	n/a	RESPONSE	        M8	2	19	G4	release
860.188	n/a	RESPONSE	        M8	2	12	C4	release
860.656	n/a	RESPONSE	        M8	2	09	A3	press
861.217	n/a	RESPONSE	        M8	2	09	A3	release
861.51	n/a	RESPONSE	        M8	2	07	G3	press
862.181	n/a	RESPONSE	        M8	2	04	E3	press
862.261	n/a	RESPONSE	        M8	2	11	B3	release
862.381	n/a	RESPONSE	        M8	2	07	G3	release
863.222	n/a	RESPONSE	        M8	2	04	E3	release
863.393	n/a	RESPONSE	        M8	2	16	E4	release
866.524	6.317	CUE_LISTEN	        M6	1	n/a	n/a	n/a
872.84	7.758	FIXCROSS	n/a	n/a	n/a	n/a	n/a
880.599	6.317	CUE_PLAYBACK_RIGHT_HAND	        M6	1	n/a	n/a	n/a
880.982	n/a	RESPONSE	        M6	1	19	G4	press
881.398	n/a	RESPONSE	        M6	1	18	F#4	press
881.461	n/a	RESPONSE	        M6	1	19	G4	release
881.737	n/a	RESPONSE	        M6	1	19	G4	press
881.815	n/a	RESPONSE	        M6	1	18	F#4	release
883.166	n/a	RESPONSE	        M6	1	23	B4	press
883.175	n/a	RESPONSE	        M6	1	21	A4	press
883.457	n/a	RESPONSE	        M6	1	21	A4	release
883.468	n/a	RESPONSE	        M6	1	23	B4	release
883.76	n/a	RESPONSE	        M6	1	23	B4	press
884.12	n/a	RESPONSE	        M6	1	24	C5	press
884.191	n/a	RESPONSE	        M6	1	23	B4	release
884.483	n/a	RESPONSE	        M6	1	23	B4	press
884.565	n/a	RESPONSE	        M6	1	19	G4	release
884.646	n/a	RESPONSE	        M6	1	24	C5	release
885.157	n/a	RESPONSE	        M6	1	23	B4	release
885.368	n/a	RESPONSE	        M6	1	18	F#4	press
885.7	n/a	RESPONSE	        M6	1	16	E4	press
885.841	n/a	RESPONSE	        M6	1	18	F#4	release
886.105	n/a	RESPONSE	        M6	1	18	F#4	press
886.203	n/a	RESPONSE	        M6	1	16	E4	release
886.755	n/a	RESPONSE	        M6	1	19	G4	press
886.816	n/a	RESPONSE	        M6	1	18	F#4	release
886.916	7.758	FIXCROSS	n/a	n/a	n/a	n/a	n/a
887.118	n/a	RESPONSE	        M6	1	21	A4	press
887.198	n/a	RESPONSE	        M6	1	19	G4	release
887.47	n/a	RESPONSE	        M6	1	19	G4	press
887.551	n/a	RESPONSE	        M6	1	21	A4	release
888.906	n/a	RESPONSE	        M6	1	19	G4	release
894.674	6.325	CUE_LISTEN	        M6	2	n/a	n/a	n/a
900.999	7.758	FIXCROSS	n/a	n/a	n/a	n/a	n/a
908.757	192.474	CUE_PLAYBACK_RIGHT_HAND	        M6	2	n/a	n/a	n/a
909.13	n/a	RESPONSE	        M6	2	23	B4	press
910.203	n/a	RESPONSE	        M6	2	17	F4	press
910.327	n/a	RESPONSE	        M6	2	23	B4	release
910.717	n/a	RESPONSE	        M6	2	17	F4	release
910.858	n/a	RESPONSE	        M6	2	23	B4	press
911.988	n/a	RESPONSE	        M6	2	19	G4	press
912.11	n/a	RESPONSE	        M6	2	23	B4	release
913.191	n/a	RESPONSE	        M6	2	23	B4	press
913.254	n/a	FIXCROSS	n/a	n/a	n/a	n/a	n/a
913.272	n/a	RESPONSE	        M6	2	19	G4	release
914.315	n/a	RESPONSE	        M6	2	18	F#4	press
914.406	n/a	RESPONSE	        M6	2	23	B4	release
915.757	n/a	RESPONSE	        M6	2	18	F#4	release
957.296	n/a	RESPONSE	        M6	2	09	A3	press
957.407	n/a	RESPONSE	        M6	2	09	A3	release
