onset	duration	trial_type	trial_number	stroop_condition	stim_text(PL)	stim_text(eng)	stim_color(PL)	stim_color(eng)	response_type	response_color
0.0	n/a	RESPONSE	n/a	n/a	n/a	n/a	n/a	n/a	n/a	n/a
0.0238	1.0166	ITI	n/a	n/a	n/a	n/a	n/a	n/a	n/a	n/a
1.0405	0.5	FIXCROSS	n/a	n/a	n/a	n/a	n/a	n/a	n/a	n/a
1.5405	1.05	T_INK	1	Neutral	xxxxxxxxx	xxxxxxxxx	żółty	yellow	hit	n/a
2.5742	n/a	RESPONSE	n/a	n/a	n/a	n/a	n/a	n/a	n/a	yellow
2.5904	0.5	FEEDBACK	n/a	n/a	n/a	n/a	n/a	n/a	n/a	n/a
3.0904	1.0	ITI	n/a	n/a	n/a	n/a	n/a	n/a	n/a	n/a
4.0904	0.5	FIXCROSS	n/a	n/a	n/a	n/a	n/a	n/a	n/a	n/a
4.5904	1.45	T_INK	2	Incongruent	czerwony	red	żółty	yellow	hit	n/a
6.0277	n/a	RESPONSE	n/a	n/a	n/a	n/a	n/a	n/a	n/a	yellow
6.0404	0.5	FEEDBACK	n/a	n/a	n/a	n/a	n/a	n/a	n/a	n/a
6.5404	1.0166	ITI	n/a	n/a	n/a	n/a	n/a	n/a	n/a	n/a
7.557	0.5	FIXCROSS	n/a	n/a	n/a	n/a	n/a	n/a	n/a	n/a
8.057	0.9166	T_INK	3	Incongruent	żółty	yellow	niebieski	blue	hit	n/a
8.9537	n/a	RESPONSE	n/a	n/a	n/a	n/a	n/a	n/a	n/a	blue
8.9736	0.5	FEEDBACK	n/a	n/a	n/a	n/a	n/a	n/a	n/a	n/a
9.4736	1.0	ITI	n/a	n/a	n/a	n/a	n/a	n/a	n/a	n/a
10.4736	0.5	FIXCROSS	n/a	n/a	n/a	n/a	n/a	n/a	n/a	n/a
10.9736	0.7333	T_INK	4	Incongruent	zielony	green	żółty	yellow	hit	n/a
11.6876	n/a	RESPONSE	n/a	n/a	n/a	n/a	n/a	n/a	n/a	yellow
11.7069	0.5	FEEDBACK	n/a	n/a	n/a	n/a	n/a	n/a	n/a	n/a
12.2069	1.0	ITI	n/a	n/a	n/a	n/a	n/a	n/a	n/a	n/a
13.2069	0.5	FIXCROSS	n/a	n/a	n/a	n/a	n/a	n/a	n/a	n/a
13.7069	0.8333	T_INK	5	Incongruent	zielony	green	czerwony	red	hit	n/a
14.5336	n/a	RESPONSE	n/a	n/a	n/a	n/a	n/a	n/a	n/a	red
14.5402	0.5	FEEDBACK	n/a	n/a	n/a	n/a	n/a	n/a	n/a	n/a
15.0402	1.0	ITI	n/a	n/a	n/a	n/a	n/a	n/a	n/a	n/a
16.0402	0.5	FIXCROSS	n/a	n/a	n/a	n/a	n/a	n/a	n/a	n/a
16.5401	1.15	T_INK	6	Incongruent	zielony	green	niebieski	blue	hit	n/a
17.6833	n/a	RESPONSE	n/a	n/a	n/a	n/a	n/a	n/a	n/a	blue
17.6901	0.5	FEEDBACK	n/a	n/a	n/a	n/a	n/a	n/a	n/a	n/a
18.1901	1.0	ITI	n/a	n/a	n/a	n/a	n/a	n/a	n/a	n/a
19.1901	0.5	FIXCROSS	n/a	n/a	n/a	n/a	n/a	n/a	n/a	n/a
19.6901	0.6333	T_INK	7	Incongruent	niebieski	blue	żółty	yellow	hit	n/a
20.3056	n/a	RESPONSE	n/a	n/a	n/a	n/a	n/a	n/a	n/a	yellow
20.3234	0.5	FEEDBACK	n/a	n/a	n/a	n/a	n/a	n/a	n/a	n/a
20.8234	1.0	ITI	n/a	n/a	n/a	n/a	n/a	n/a	n/a	n/a
21.8234	0.5	FIXCROSS	n/a	n/a	n/a	n/a	n/a	n/a	n/a	n/a
22.3234	0.5	T_INK	8	Neutral	xxxxxxxx	xxxxxxxx	niebieski	blue	hit	n/a
22.8158	n/a	RESPONSE	n/a	n/a	n/a	n/a	n/a	n/a	n/a	blue
22.8234	0.5	FEEDBACK	n/a	n/a	n/a	n/a	n/a	n/a	n/a	n/a
23.3233	1.0	ITI	n/a	n/a	n/a	n/a	n/a	n/a	n/a	n/a
24.3233	0.5	FIXCROSS	n/a	n/a	n/a	n/a	n/a	n/a	n/a	n/a
24.8233	0.7666	T_INK	9	Neutral	xxxxx	xxxxx	zielony	green	hit	n/a
25.5818	n/a	RESPONSE	n/a	n/a	n/a	n/a	n/a	n/a	n/a	green
25.59	0.5	FEEDBACK	n/a	n/a	n/a	n/a	n/a	n/a	n/a	n/a
26.09	1.0	ITI	n/a	n/a	n/a	n/a	n/a	n/a	n/a	n/a
27.0899	0.5	FIXCROSS	n/a	n/a	n/a	n/a	n/a	n/a	n/a	n/a
27.5899	0.6333	T_INK	10	Neutral	xxxxxxx	xxxxxxx	czerwony	red	hit	n/a
28.204	n/a	RESPONSE	n/a	n/a	n/a	n/a	n/a	n/a	n/a	red
28.2233	0.5	FEEDBACK	n/a	n/a	n/a	n/a	n/a	n/a	n/a	n/a
28.7232	1.0	ITI	n/a	n/a	n/a	n/a	n/a	n/a	n/a	n/a
29.7232	0.5	FIXCROSS	n/a	n/a	n/a	n/a	n/a	n/a	n/a	n/a
30.2232	0.8666	T_INK	11	Incongruent	niebieski	blue	zielony	green	hit	n/a
31.0818	n/a	RESPONSE	n/a	n/a	n/a	n/a	n/a	n/a	n/a	green
31.0899	0.5	FEEDBACK	n/a	n/a	n/a	n/a	n/a	n/a	n/a	n/a
31.5898	1.0	ITI	n/a	n/a	n/a	n/a	n/a	n/a	n/a	n/a
32.5898	0.5	FIXCROSS	n/a	n/a	n/a	n/a	n/a	n/a	n/a	n/a
33.0898	0.7167	T_INK	12	Incongruent	czerwony	red	zielony	green	hit	n/a
33.7999	n/a	RESPONSE	n/a	n/a	n/a	n/a	n/a	n/a	n/a	green
33.8065	0.5	FEEDBACK	n/a	n/a	n/a	n/a	n/a	n/a	n/a	n/a
34.3065	1.0	ITI	n/a	n/a	n/a	n/a	n/a	n/a	n/a	n/a
37.5572	n/a	RESPONSE	n/a	n/a	n/a	n/a	n/a	n/a	n/a	n/a
37.5897	1.0	ITI	n/a	n/a	n/a	n/a	n/a	n/a	n/a	n/a
38.5897	0.5	FIXCROSS	n/a	n/a	n/a	n/a	n/a	n/a	n/a	n/a
39.0897	0.9166	INK	1	Incongruent	żółty	yellow	czerwony	red	hit	n/a
40.0034	n/a	RESPONSE	n/a	n/a	n/a	n/a	n/a	n/a	n/a	red
40.0063	1.0	ITI	n/a	n/a	n/a	n/a	n/a	n/a	n/a	n/a
41.0063	0.5	FIXCROSS	n/a	n/a	n/a	n/a	n/a	n/a	n/a	n/a
41.5063	0.65	INK	2	Neutral	xxxxxxxx	xxxxxxxx	niebieski	blue	hit	n/a
42.1459	n/a	RESPONSE	n/a	n/a	n/a	n/a	n/a	n/a	n/a	blue
42.1563	1.0	ITI	n/a	n/a	n/a	n/a	n/a	n/a	n/a	n/a
43.1563	0.5	FIXCROSS	n/a	n/a	n/a	n/a	n/a	n/a	n/a	n/a
43.6563	0.65	INK	3	Incongruent	czerwony	red	zielony	green	hit	n/a
44.2883	n/a	RESPONSE	n/a	n/a	n/a	n/a	n/a	n/a	n/a	green
44.3063	1.0	ITI	n/a	n/a	n/a	n/a	n/a	n/a	n/a	n/a
45.3062	0.5	FIXCROSS	n/a	n/a	n/a	n/a	n/a	n/a	n/a	n/a
45.8062	0.45	INK	4	Neutral	xxxxxxx	xxxxxxx	niebieski	blue	hit	n/a
46.239	n/a	RESPONSE	n/a	n/a	n/a	n/a	n/a	n/a	n/a	blue
46.2562	1.0	ITI	n/a	n/a	n/a	n/a	n/a	n/a	n/a	n/a
47.2562	0.5	FIXCROSS	n/a	n/a	n/a	n/a	n/a	n/a	n/a	n/a
47.7562	0.5833	INK	5	Incongruent	zielony	green	żółty	yellow	hit	n/a
48.3335	n/a	RESPONSE	n/a	n/a	n/a	n/a	n/a	n/a	n/a	yellow
48.3395	1.0	ITI	n/a	n/a	n/a	n/a	n/a	n/a	n/a	n/a
49.3395	0.5	FIXCROSS	n/a	n/a	n/a	n/a	n/a	n/a	n/a	n/a
49.8395	0.65	INK	6	Incongruent	zielony	green	żółty	yellow	hit	n/a
50.4759	n/a	RESPONSE	n/a	n/a	n/a	n/a	n/a	n/a	n/a	yellow
50.4895	1.0	ITI	n/a	n/a	n/a	n/a	n/a	n/a	n/a	n/a
51.4895	0.5	FIXCROSS	n/a	n/a	n/a	n/a	n/a	n/a	n/a	n/a
51.9894	0.6	INK	7	Incongruent	zielony	green	czerwony	red	hit	n/a
52.5864	n/a	RESPONSE	n/a	n/a	n/a	n/a	n/a	n/a	n/a	red
52.5894	1.0	ITI	n/a	n/a	n/a	n/a	n/a	n/a	n/a	n/a
53.5894	0.5	FIXCROSS	n/a	n/a	n/a	n/a	n/a	n/a	n/a	n/a
54.0894	0.5167	INK	8	Neutral	xxxxxxx	xxxxxxx	czerwony	red	hit	n/a
54.601	n/a	RESPONSE	n/a	n/a	n/a	n/a	n/a	n/a	n/a	red
54.6061	1.0	ITI	n/a	n/a	n/a	n/a	n/a	n/a	n/a	n/a
55.606	0.5	FIXCROSS	n/a	n/a	n/a	n/a	n/a	n/a	n/a	n/a
56.106	0.5166	INK	9	Incongruent	niebieski	blue	czerwony	red	hit	n/a
56.6155	n/a	RESPONSE	n/a	n/a	n/a	n/a	n/a	n/a	n/a	red
56.6227	1.0	ITI	n/a	n/a	n/a	n/a	n/a	n/a	n/a	n/a
57.6227	0.5	FIXCROSS	n/a	n/a	n/a	n/a	n/a	n/a	n/a	n/a
58.1227	0.5333	INK	10	Incongruent	żółty	yellow	niebieski	blue	hit	n/a
58.6461	n/a	RESPONSE	n/a	n/a	n/a	n/a	n/a	n/a	n/a	blue
58.656	1.0	ITI	n/a	n/a	n/a	n/a	n/a	n/a	n/a	n/a
59.656	0.5	FIXCROSS	n/a	n/a	n/a	n/a	n/a	n/a	n/a	n/a
60.1559	0.6333	INK	11	Neutral	xxxxxxxxx	xxxxxxxxx	zielony	green	hit	n/a
60.7726	n/a	RESPONSE	n/a	n/a	n/a	n/a	n/a	n/a	n/a	green
60.7893	1.0	ITI	n/a	n/a	n/a	n/a	n/a	n/a	n/a	n/a
61.7892	0.5	FIXCROSS	n/a	n/a	n/a	n/a	n/a	n/a	n/a	n/a
62.2892	0.5	INK	12	Incongruent	zielony	green	niebieski	blue	hit	n/a
62.7712	n/a	RESPONSE	n/a	n/a	n/a	n/a	n/a	n/a	n/a	blue
62.7892	1.0	ITI	n/a	n/a	n/a	n/a	n/a	n/a	n/a	n/a
63.7892	0.5	FIXCROSS	n/a	n/a	n/a	n/a	n/a	n/a	n/a	n/a
64.2892	0.3833	INK	13	Neutral	xxxxxxxx	xxxxxxxx	żółty	yellow	hit	n/a
64.6578	n/a	RESPONSE	n/a	n/a	n/a	n/a	n/a	n/a	n/a	yellow
64.6725	1.0	ITI	n/a	n/a	n/a	n/a	n/a	n/a	n/a	n/a
65.6725	0.5	FIXCROSS	n/a	n/a	n/a	n/a	n/a	n/a	n/a	n/a
66.1725	0.3667	INK	14	Neutral	xxxxx	xxxxx	niebieski	blue	hit	n/a
66.5284	n/a	RESPONSE	n/a	n/a	n/a	n/a	n/a	n/a	n/a	blue
66.5391	1.0	ITI	n/a	n/a	n/a	n/a	n/a	n/a	n/a	n/a
67.5391	0.5	FIXCROSS	n/a	n/a	n/a	n/a	n/a	n/a	n/a	n/a
68.0391	0.5667	INK	15	Incongruent	zielony	green	żółty	yellow	hit	n/a
68.5911	n/a	RESPONSE	n/a	n/a	n/a	n/a	n/a	n/a	n/a	yellow
68.6058	1.0	ITI	n/a	n/a	n/a	n/a	n/a	n/a	n/a	n/a
69.6058	0.5	FIXCROSS	n/a	n/a	n/a	n/a	n/a	n/a	n/a	n/a
70.1057	0.7833	INK	16	Neutral	xxxxx	xxxxx	zielony	green	hit	n/a
70.8774	n/a	RESPONSE	n/a	n/a	n/a	n/a	n/a	n/a	n/a	green
70.8891	1.0	ITI	n/a	n/a	n/a	n/a	n/a	n/a	n/a	n/a
71.889	0.5	FIXCROSS	n/a	n/a	n/a	n/a	n/a	n/a	n/a	n/a
72.389	0.3833	INK	17	Neutral	xxxxxxxx	xxxxxxxx	niebieski	blue	hit	n/a
72.764	n/a	RESPONSE	n/a	n/a	n/a	n/a	n/a	n/a	n/a	blue
72.7724	1.0	ITI	n/a	n/a	n/a	n/a	n/a	n/a	n/a	n/a
73.7723	0.5	FIXCROSS	n/a	n/a	n/a	n/a	n/a	n/a	n/a	n/a
74.2723	1.5166	INK	18	Incongruent	zielony	green	niebieski	blue	hit	n/a
75.7698	n/a	RESPONSE	n/a	n/a	n/a	n/a	n/a	n/a	n/a	blue
75.789	1.0	ITI	n/a	n/a	n/a	n/a	n/a	n/a	n/a	n/a
76.789	0.5	FIXCROSS	n/a	n/a	n/a	n/a	n/a	n/a	n/a	n/a
77.2889	0.7666	INK	19	Incongruent	niebieski	blue	zielony	green	hit	n/a
78.0402	n/a	RESPONSE	n/a	n/a	n/a	n/a	n/a	n/a	n/a	green
78.0556	1.0	ITI	n/a	n/a	n/a	n/a	n/a	n/a	n/a	n/a
79.0556	0.5	FIXCROSS	n/a	n/a	n/a	n/a	n/a	n/a	n/a	n/a
79.5556	0.8167	INK	20	Neutral	xxxxxxxxx	xxxxxxxxx	żółty	yellow	hit	n/a
80.3586	n/a	RESPONSE	n/a	n/a	n/a	n/a	n/a	n/a	n/a	yellow
80.3722	1.0	ITI	n/a	n/a	n/a	n/a	n/a	n/a	n/a	n/a
81.3722	0.5	FIXCROSS	n/a	n/a	n/a	n/a	n/a	n/a	n/a	n/a
81.8722	0.6333	INK	21	Neutral	xxxxxxxx	xxxxxxxx	zielony	green	hit	n/a
82.5011	n/a	RESPONSE	n/a	n/a	n/a	n/a	n/a	n/a	n/a	green
82.5055	1.0	ITI	n/a	n/a	n/a	n/a	n/a	n/a	n/a	n/a
83.5055	0.5	FIXCROSS	n/a	n/a	n/a	n/a	n/a	n/a	n/a	n/a
84.0055	0.7166	INK	22	Neutral	xxxxx	xxxxx	czerwony	red	hit	n/a
84.7075	n/a	RESPONSE	n/a	n/a	n/a	n/a	n/a	n/a	n/a	red
84.7221	1.0	ITI	n/a	n/a	n/a	n/a	n/a	n/a	n/a	n/a
85.7221	0.5	FIXCROSS	n/a	n/a	n/a	n/a	n/a	n/a	n/a	n/a
86.2221	0.6833	INK	23	Neutral	xxxxxxxxx	xxxxxxxxx	czerwony	red	hit	n/a
86.8979	n/a	RESPONSE	n/a	n/a	n/a	n/a	n/a	n/a	n/a	red
86.9054	1.0	ITI	n/a	n/a	n/a	n/a	n/a	n/a	n/a	n/a
87.9054	0.5	FIXCROSS	n/a	n/a	n/a	n/a	n/a	n/a	n/a	n/a
88.4054	0.5667	INK	24	Neutral	xxxxx	xxxxx	zielony	green	hit	n/a
88.9605	n/a	RESPONSE	n/a	n/a	n/a	n/a	n/a	n/a	n/a	green
88.972	1.0	ITI	n/a	n/a	n/a	n/a	n/a	n/a	n/a	n/a
89.972	0.5	FIXCROSS	n/a	n/a	n/a	n/a	n/a	n/a	n/a	n/a
90.472	0.4833	INK	25	Incongruent	czerwony	red	niebieski	blue	hit	n/a
90.9431	n/a	RESPONSE	n/a	n/a	n/a	n/a	n/a	n/a	n/a	blue
90.9553	1.0	ITI	n/a	n/a	n/a	n/a	n/a	n/a	n/a	n/a
91.9553	0.5	FIXCROSS	n/a	n/a	n/a	n/a	n/a	n/a	n/a	n/a
92.4553	0.5	INK	26	Incongruent	czerwony	red	żółty	yellow	hit	n/a
92.9417	n/a	RESPONSE	n/a	n/a	n/a	n/a	n/a	n/a	n/a	yellow
92.9553	1.0	ITI	n/a	n/a	n/a	n/a	n/a	n/a	n/a	n/a
93.9553	0.5	FIXCROSS	n/a	n/a	n/a	n/a	n/a	n/a	n/a	n/a
94.4553	0.5333	INK	27	Neutral	xxxxx	xxxxx	niebieski	blue	hit	n/a
94.9722	n/a	RESPONSE	n/a	n/a	n/a	n/a	n/a	n/a	n/a	blue
94.9886	1.0	ITI	n/a	n/a	n/a	n/a	n/a	n/a	n/a	n/a
95.9886	0.5	FIXCROSS	n/a	n/a	n/a	n/a	n/a	n/a	n/a	n/a
96.4886	0.8333	INK	28	Incongruent	niebieski	blue	czerwony	red	hit	n/a
97.3065	n/a	RESPONSE	n/a	n/a	n/a	n/a	n/a	n/a	n/a	red
97.3219	1.0	ITI	n/a	n/a	n/a	n/a	n/a	n/a	n/a	n/a
98.3219	0.5	FIXCROSS	n/a	n/a	n/a	n/a	n/a	n/a	n/a	n/a
98.8218	0.5667	INK	29	Incongruent	żółty	yellow	niebieski	blue	hit	n/a
99.385	n/a	RESPONSE	n/a	n/a	n/a	n/a	n/a	n/a	n/a	blue
99.3885	1.0	ITI	n/a	n/a	n/a	n/a	n/a	n/a	n/a	n/a
100.3885	0.5	FIXCROSS	n/a	n/a	n/a	n/a	n/a	n/a	n/a	n/a
100.8885	0.5167	INK	30	Neutral	xxxxxxxx	xxxxxxxx	żółty	yellow	hit	n/a
101.3996	n/a	RESPONSE	n/a	n/a	n/a	n/a	n/a	n/a	n/a	yellow
101.4051	1.0	ITI	n/a	n/a	n/a	n/a	n/a	n/a	n/a	n/a
102.4051	0.5	FIXCROSS	n/a	n/a	n/a	n/a	n/a	n/a	n/a	n/a
102.9051	0.7166	INK	31	Incongruent	czerwony	red	niebieski	blue	hit	n/a
103.6061	n/a	RESPONSE	n/a	n/a	n/a	n/a	n/a	n/a	n/a	blue
103.6217	1.0	ITI	n/a	n/a	n/a	n/a	n/a	n/a	n/a	n/a
104.6217	0.5	FIXCROSS	n/a	n/a	n/a	n/a	n/a	n/a	n/a	n/a
105.1217	0.8	INK	32	Neutral	xxxxxxx	xxxxxxx	czerwony	red	hit	n/a
105.9085	n/a	RESPONSE	n/a	n/a	n/a	n/a	n/a	n/a	n/a	red
105.9217	1.0	ITI	n/a	n/a	n/a	n/a	n/a	n/a	n/a	n/a
106.9217	0.5	FIXCROSS	n/a	n/a	n/a	n/a	n/a	n/a	n/a	n/a
107.4217	0.65	INK	33	Neutral	xxxxxxxxx	xxxxxxxxx	czerwony	red	hit	n/a
108.0668	n/a	RESPONSE	n/a	n/a	n/a	n/a	n/a	n/a	n/a	red
108.0717	1.0	ITI	n/a	n/a	n/a	n/a	n/a	n/a	n/a	n/a
109.0716	0.5	FIXCROSS	n/a	n/a	n/a	n/a	n/a	n/a	n/a	n/a
109.5716	0.6167	INK	34	Incongruent	niebieski	blue	żółty	yellow	hit	n/a
110.1773	n/a	RESPONSE	n/a	n/a	n/a	n/a	n/a	n/a	n/a	yellow
110.1883	1.0	ITI	n/a	n/a	n/a	n/a	n/a	n/a	n/a	n/a
111.1883	0.5	FIXCROSS	n/a	n/a	n/a	n/a	n/a	n/a	n/a	n/a
111.6882	0.75	INK	35	Incongruent	niebieski	blue	zielony	green	hit	n/a
112.4318	n/a	RESPONSE	n/a	n/a	n/a	n/a	n/a	n/a	n/a	green
112.4382	1.0	ITI	n/a	n/a	n/a	n/a	n/a	n/a	n/a	n/a
113.4382	0.5	FIXCROSS	n/a	n/a	n/a	n/a	n/a	n/a	n/a	n/a
113.9382	0.6333	INK	36	Neutral	xxxxxxxxx	xxxxxxxxx	zielony	green	hit	n/a
114.5583	n/a	RESPONSE	n/a	n/a	n/a	n/a	n/a	n/a	n/a	green
114.5715	1.0	ITI	n/a	n/a	n/a	n/a	n/a	n/a	n/a	n/a
115.5715	0.5	FIXCROSS	n/a	n/a	n/a	n/a	n/a	n/a	n/a	n/a
116.0715	0.5333	INK	37	Neutral	xxxxxxx	xxxxxxx	niebieski	blue	hit	n/a
116.5888	n/a	RESPONSE	n/a	n/a	n/a	n/a	n/a	n/a	n/a	blue
116.6048	1.0	ITI	n/a	n/a	n/a	n/a	n/a	n/a	n/a	n/a
117.6048	0.5	FIXCROSS	n/a	n/a	n/a	n/a	n/a	n/a	n/a	n/a
118.1048	0.5	INK	38	Neutral	xxxxxxx	xxxxxxx	żółty	yellow	hit	n/a
118.5873	n/a	RESPONSE	n/a	n/a	n/a	n/a	n/a	n/a	n/a	yellow
118.6048	1.0	ITI	n/a	n/a	n/a	n/a	n/a	n/a	n/a	n/a
119.6048	0.5	FIXCROSS	n/a	n/a	n/a	n/a	n/a	n/a	n/a	n/a
120.1047	0.6	INK	39	Incongruent	żółty	yellow	czerwony	red	hit	n/a
120.6978	n/a	RESPONSE	n/a	n/a	n/a	n/a	n/a	n/a	n/a	red
120.7047	1.0	ITI	n/a	n/a	n/a	n/a	n/a	n/a	n/a	n/a
121.7047	0.5	FIXCROSS	n/a	n/a	n/a	n/a	n/a	n/a	n/a	n/a
122.2047	0.7	INK	40	Incongruent	żółty	yellow	zielony	green	hit	n/a
122.8882	n/a	RESPONSE	n/a	n/a	n/a	n/a	n/a	n/a	n/a	green
122.9047	1.0	ITI	n/a	n/a	n/a	n/a	n/a	n/a	n/a	n/a
123.9047	0.5	FIXCROSS	n/a	n/a	n/a	n/a	n/a	n/a	n/a	n/a
124.4047	0.6667	INK	41	Incongruent	zielony	green	czerwony	red	hit	n/a
125.0627	n/a	RESPONSE	n/a	n/a	n/a	n/a	n/a	n/a	n/a	red
125.0713	1.0	ITI	n/a	n/a	n/a	n/a	n/a	n/a	n/a	n/a
126.0713	0.5	FIXCROSS	n/a	n/a	n/a	n/a	n/a	n/a	n/a	n/a
126.5713	0.8833	INK	42	Incongruent	żółty	yellow	czerwony	red	hit	n/a
127.445	n/a	RESPONSE	n/a	n/a	n/a	n/a	n/a	n/a	n/a	red
127.4546	1.0	ITI	n/a	n/a	n/a	n/a	n/a	n/a	n/a	n/a
128.4546	0.5	FIXCROSS	n/a	n/a	n/a	n/a	n/a	n/a	n/a	n/a
128.9546	0.7	INK	43	Incongruent	żółty	yellow	zielony	green	hit	n/a
129.6355	n/a	RESPONSE	n/a	n/a	n/a	n/a	n/a	n/a	n/a	green
129.6546	1.0	ITI	n/a	n/a	n/a	n/a	n/a	n/a	n/a	n/a
130.6545	0.5	FIXCROSS	n/a	n/a	n/a	n/a	n/a	n/a	n/a	n/a
131.1545	0.4833	INK	44	Neutral	xxxxxxxx	xxxxxxxx	zielony	green	hit	n/a
131.6341	n/a	RESPONSE	n/a	n/a	n/a	n/a	n/a	n/a	n/a	green
131.6378	1.0	ITI	n/a	n/a	n/a	n/a	n/a	n/a	n/a	n/a
132.6378	0.5	FIXCROSS	n/a	n/a	n/a	n/a	n/a	n/a	n/a	n/a
133.1378	0.6167	INK	45	Incongruent	czerwony	red	żółty	yellow	hit	n/a
133.7445	n/a	RESPONSE	n/a	n/a	n/a	n/a	n/a	n/a	n/a	yellow
133.7545	1.0	ITI	n/a	n/a	n/a	n/a	n/a	n/a	n/a	n/a
134.7544	0.5	FIXCROSS	n/a	n/a	n/a	n/a	n/a	n/a	n/a	n/a
135.2544	0.8667	INK	46	Incongruent	żółty	yellow	zielony	green	hit	n/a
136.1107	n/a	RESPONSE	n/a	n/a	n/a	n/a	n/a	n/a	n/a	green
136.1211	1.0	ITI	n/a	n/a	n/a	n/a	n/a	n/a	n/a	n/a
137.1211	0.5	FIXCROSS	n/a	n/a	n/a	n/a	n/a	n/a	n/a	n/a
137.6211	0.6667	INK	47	Incongruent	niebieski	blue	żółty	yellow	hit	n/a
138.2692	n/a	RESPONSE	n/a	n/a	n/a	n/a	n/a	n/a	n/a	yellow
138.2877	1.0	ITI	n/a	n/a	n/a	n/a	n/a	n/a	n/a	n/a
139.2877	0.5	FIXCROSS	n/a	n/a	n/a	n/a	n/a	n/a	n/a	n/a
139.7877	0.4833	INK	48	Neutral	xxxxxxx	xxxxxxx	żółty	yellow	hit	n/a
140.2518	n/a	RESPONSE	n/a	n/a	n/a	n/a	n/a	n/a	n/a	yellow
140.271	1.0	ITI	n/a	n/a	n/a	n/a	n/a	n/a	n/a	n/a
141.271	0.5	FIXCROSS	n/a	n/a	n/a	n/a	n/a	n/a	n/a	n/a
141.771	0.4833	INK	49	Neutral	xxxxx	xxxxx	zielony	green	hit	n/a
142.2504	n/a	RESPONSE	n/a	n/a	n/a	n/a	n/a	n/a	n/a	green
142.2543	1.0	ITI	n/a	n/a	n/a	n/a	n/a	n/a	n/a	n/a
143.2543	0.5	FIXCROSS	n/a	n/a	n/a	n/a	n/a	n/a	n/a	n/a
143.7543	0.3833	INK	50	Neutral	xxxxxxxx	xxxxxxxx	żółty	yellow	hit	n/a
144.121	n/a	RESPONSE	n/a	n/a	n/a	n/a	n/a	n/a	n/a	yellow
144.1376	1.0	ITI	n/a	n/a	n/a	n/a	n/a	n/a	n/a	n/a
145.1376	0.5	FIXCROSS	n/a	n/a	n/a	n/a	n/a	n/a	n/a	n/a
145.6376	0.5	INK	51	Incongruent	niebieski	blue	żółty	yellow	hit	n/a
146.1196	n/a	RESPONSE	n/a	n/a	n/a	n/a	n/a	n/a	n/a	yellow
146.1376	1.0	ITI	n/a	n/a	n/a	n/a	n/a	n/a	n/a	n/a
147.1375	0.5	FIXCROSS	n/a	n/a	n/a	n/a	n/a	n/a	n/a	n/a
147.6375	0.5166	INK	52	Neutral	xxxxxxxx	xxxxxxxx	niebieski	blue	hit	n/a
148.1502	n/a	RESPONSE	n/a	n/a	n/a	n/a	n/a	n/a	n/a	blue
148.1542	1.0	ITI	n/a	n/a	n/a	n/a	n/a	n/a	n/a	n/a
149.1542	0.5	FIXCROSS	n/a	n/a	n/a	n/a	n/a	n/a	n/a	n/a
149.6542	0.5167	INK	53	Neutral	xxxxxxxxx	xxxxxxxxx	żółty	yellow	hit	n/a
150.1647	n/a	RESPONSE	n/a	n/a	n/a	n/a	n/a	n/a	n/a	yellow
150.1708	1.0	ITI	n/a	n/a	n/a	n/a	n/a	n/a	n/a	n/a
151.1708	0.5	FIXCROSS	n/a	n/a	n/a	n/a	n/a	n/a	n/a	n/a
151.6708	0.75	INK	54	Neutral	xxxxxxxxx	xxxxxxxxx	czerwony	red	hit	n/a
152.4032	n/a	RESPONSE	n/a	n/a	n/a	n/a	n/a	n/a	n/a	red
152.4208	1.0	ITI	n/a	n/a	n/a	n/a	n/a	n/a	n/a	n/a
153.4207	0.5	FIXCROSS	n/a	n/a	n/a	n/a	n/a	n/a	n/a	n/a
153.9207	0.6333	INK	55	Neutral	xxxxxxxxx	xxxxxxxxx	zielony	green	hit	n/a
154.5456	n/a	RESPONSE	n/a	n/a	n/a	n/a	n/a	n/a	n/a	green
154.5541	1.0	ITI	n/a	n/a	n/a	n/a	n/a	n/a	n/a	n/a
155.554	0.5	FIXCROSS	n/a	n/a	n/a	n/a	n/a	n/a	n/a	n/a
156.054	0.5833	INK	56	Incongruent	niebieski	blue	zielony	green	hit	n/a
156.6242	n/a	RESPONSE	n/a	n/a	n/a	n/a	n/a	n/a	n/a	green
156.6373	1.0	ITI	n/a	n/a	n/a	n/a	n/a	n/a	n/a	n/a
157.6373	0.5	FIXCROSS	n/a	n/a	n/a	n/a	n/a	n/a	n/a	n/a
158.1373	0.45	INK	57	Neutral	xxxxxxxx	xxxxxxxx	zielony	green	hit	n/a
158.5747	n/a	RESPONSE	n/a	n/a	n/a	n/a	n/a	n/a	n/a	green
158.5873	1.0	ITI	n/a	n/a	n/a	n/a	n/a	n/a	n/a	n/a
159.5873	0.5	FIXCROSS	n/a	n/a	n/a	n/a	n/a	n/a	n/a	n/a
160.0873	0.5833	INK	58	Neutral	xxxxxxxxx	xxxxxxxxx	żółty	yellow	hit	n/a
160.6532	n/a	RESPONSE	n/a	n/a	n/a	n/a	n/a	n/a	n/a	yellow
160.6706	1.0	ITI	n/a	n/a	n/a	n/a	n/a	n/a	n/a	n/a
161.6706	0.5	FIXCROSS	n/a	n/a	n/a	n/a	n/a	n/a	n/a	n/a
162.1706	1.0833	INK	59	Neutral	xxxxx	xxxxx	niebieski	blue	hit	n/a
163.2433	n/a	RESPONSE	n/a	n/a	n/a	n/a	n/a	n/a	n/a	blue
163.2539	1.0	ITI	n/a	n/a	n/a	n/a	n/a	n/a	n/a	n/a
164.2539	0.5	FIXCROSS	n/a	n/a	n/a	n/a	n/a	n/a	n/a	n/a
164.7539	0.6666	INK	60	Neutral	xxxxx	xxxxx	czerwony	red	hit	n/a
165.4018	n/a	RESPONSE	n/a	n/a	n/a	n/a	n/a	n/a	n/a	red
165.4205	1.0	ITI	n/a	n/a	n/a	n/a	n/a	n/a	n/a	n/a
166.4205	0.5	FIXCROSS	n/a	n/a	n/a	n/a	n/a	n/a	n/a	n/a
166.9205	1.05	INK	61	Incongruent	zielony	green	niebieski	blue	hit	n/a
167.96	n/a	RESPONSE	n/a	n/a	n/a	n/a	n/a	n/a	n/a	blue
167.9705	1.0	ITI	n/a	n/a	n/a	n/a	n/a	n/a	n/a	n/a
168.9704	0.5	FIXCROSS	n/a	n/a	n/a	n/a	n/a	n/a	n/a	n/a
169.4704	0.6333	INK	62	Incongruent	czerwony	red	żółty	yellow	hit	n/a
170.0866	n/a	RESPONSE	n/a	n/a	n/a	n/a	n/a	n/a	n/a	yellow
170.1037	1.0	ITI	n/a	n/a	n/a	n/a	n/a	n/a	n/a	n/a
171.1037	0.5	FIXCROSS	n/a	n/a	n/a	n/a	n/a	n/a	n/a	n/a
171.6037	0.7166	INK	63	Incongruent	czerwony	red	zielony	green	hit	n/a
172.309	n/a	RESPONSE	n/a	n/a	n/a	n/a	n/a	n/a	n/a	green
172.3204	1.0	ITI	n/a	n/a	n/a	n/a	n/a	n/a	n/a	n/a
173.3203	0.5	FIXCROSS	n/a	n/a	n/a	n/a	n/a	n/a	n/a	n/a
173.8203	0.6833	INK	64	Incongruent	czerwony	red	zielony	green	hit	n/a
174.4993	n/a	RESPONSE	n/a	n/a	n/a	n/a	n/a	n/a	n/a	green
174.5037	1.0	ITI	n/a	n/a	n/a	n/a	n/a	n/a	n/a	n/a
175.5036	0.5	FIXCROSS	n/a	n/a	n/a	n/a	n/a	n/a	n/a	n/a
176.0036	0.7667	INK	65	Incongruent	niebieski	blue	czerwony	red	hit	n/a
176.7537	n/a	RESPONSE	n/a	n/a	n/a	n/a	n/a	n/a	n/a	red
176.7703	1.0	ITI	n/a	n/a	n/a	n/a	n/a	n/a	n/a	n/a
177.7703	0.5	FIXCROSS	n/a	n/a	n/a	n/a	n/a	n/a	n/a	n/a
178.2703	0.6833	INK	66	Neutral	xxxxxxx	xxxxxxx	żółty	yellow	hit	n/a
178.9442	n/a	RESPONSE	n/a	n/a	n/a	n/a	n/a	n/a	n/a	yellow
178.9536	1.0	ITI	n/a	n/a	n/a	n/a	n/a	n/a	n/a	n/a
179.9535	0.5	FIXCROSS	n/a	n/a	n/a	n/a	n/a	n/a	n/a	n/a
180.4535	0.85	INK	67	Neutral	xxxxxxx	xxxxxxx	niebieski	blue	hit	n/a
181.2945	n/a	RESPONSE	n/a	n/a	n/a	n/a	n/a	n/a	n/a	blue
181.3035	1.0	ITI	n/a	n/a	n/a	n/a	n/a	n/a	n/a	n/a
182.3035	0.5	FIXCROSS	n/a	n/a	n/a	n/a	n/a	n/a	n/a	n/a
182.8035	0.8	INK	68	Incongruent	zielony	green	czerwony	red	hit	n/a
183.5968	n/a	RESPONSE	n/a	n/a	n/a	n/a	n/a	n/a	n/a	red
183.6035	1.0	ITI	n/a	n/a	n/a	n/a	n/a	n/a	n/a	n/a
184.6035	0.5	FIXCROSS	n/a	n/a	n/a	n/a	n/a	n/a	n/a	n/a
185.1034	0.6833	INK	69	Neutral	xxxxx	xxxxx	czerwony	red	hit	n/a
185.7713	n/a	RESPONSE	n/a	n/a	n/a	n/a	n/a	n/a	n/a	red
185.7868	1.0	ITI	n/a	n/a	n/a	n/a	n/a	n/a	n/a	n/a
186.7867	0.5	FIXCROSS	n/a	n/a	n/a	n/a	n/a	n/a	n/a	n/a
187.2867	0.5666	INK	70	Incongruent	czerwony	red	niebieski	blue	incorrect	n/a
187.8497	n/a	RESPONSE	n/a	n/a	n/a	n/a	n/a	n/a	n/a	yellow
187.8534	1.0	ITI	n/a	n/a	n/a	n/a	n/a	n/a	n/a	n/a
188.8534	0.5	FIXCROSS	n/a	n/a	n/a	n/a	n/a	n/a	n/a	n/a
189.3534	0.9833	INK	71	Incongruent	żółty	yellow	niebieski	blue	hit	n/a
190.328	n/a	RESPONSE	n/a	n/a	n/a	n/a	n/a	n/a	n/a	blue
190.3367	1.0	ITI	n/a	n/a	n/a	n/a	n/a	n/a	n/a	n/a
191.3367	0.5	FIXCROSS	n/a	n/a	n/a	n/a	n/a	n/a	n/a	n/a
191.8366	0.7833	INK	72	Neutral	xxxxxxx	xxxxxxx	czerwony	red	hit	n/a
192.6143	n/a	RESPONSE	n/a	n/a	n/a	n/a	n/a	n/a	n/a	red
192.62	1.0333	ITI	n/a	n/a	n/a	n/a	n/a	n/a	n/a	n/a
207.244	n/a	RESPONSE	n/a	n/a	n/a	n/a	n/a	n/a	n/a	n/a
207.2697	1.0	ITI	n/a	n/a	n/a	n/a	n/a	n/a	n/a	n/a
208.2696	0.5	FIXCROSS	n/a	n/a	n/a	n/a	n/a	n/a	n/a	n/a
208.7696	0.8167	T_COLOR_NAME	1	Incongruent	żółty	yellow	niebieski	blue	hit	n/a
209.5783	n/a	RESPONSE	n/a	n/a	n/a	n/a	n/a	n/a	n/a	yellow
209.5863	0.5	FEEDBACK	n/a	n/a	n/a	n/a	n/a	n/a	n/a	n/a
210.0863	1.0	ITI	n/a	n/a	n/a	n/a	n/a	n/a	n/a	n/a
211.0863	0.5	FIXCROSS	n/a	n/a	n/a	n/a	n/a	n/a	n/a	n/a
211.5862	0.8833	T_COLOR_NAME	2	Neutral	zielony	green	Neutral	Neutral	hit	n/a
212.4563	n/a	RESPONSE	n/a	n/a	n/a	n/a	n/a	n/a	n/a	green
212.4696	0.4999	FEEDBACK	n/a	n/a	n/a	n/a	n/a	n/a	n/a	n/a
212.9695	1.0	ITI	n/a	n/a	n/a	n/a	n/a	n/a	n/a	n/a
213.9694	0.5001	FIXCROSS	n/a	n/a	n/a	n/a	n/a	n/a	n/a	n/a
214.4695	0.8167	T_COLOR_NAME	3	Incongruent	czerwony	red	zielony	green	hit	n/a
215.2703	n/a	RESPONSE	n/a	n/a	n/a	n/a	n/a	n/a	n/a	red
215.2862	0.5	FEEDBACK	n/a	n/a	n/a	n/a	n/a	n/a	n/a	n/a
215.7862	1.0	ITI	n/a	n/a	n/a	n/a	n/a	n/a	n/a	n/a
216.7861	0.5	FIXCROSS	n/a	n/a	n/a	n/a	n/a	n/a	n/a	n/a
217.2861	1.0333	T_COLOR_NAME	4	Incongruent	zielony	green	niebieski	blue	hit	n/a
218.308	n/a	RESPONSE	n/a	n/a	n/a	n/a	n/a	n/a	n/a	green
218.3195	0.5	FEEDBACK	n/a	n/a	n/a	n/a	n/a	n/a	n/a	n/a
218.8194	1.0	ITI	n/a	n/a	n/a	n/a	n/a	n/a	n/a	n/a
219.8194	0.5	FIXCROSS	n/a	n/a	n/a	n/a	n/a	n/a	n/a	n/a
220.3194	0.6667	T_COLOR_NAME	5	Incongruent	czerwony	red	żółty	yellow	hit	n/a
220.9781	n/a	RESPONSE	n/a	n/a	n/a	n/a	n/a	n/a	n/a	red
220.9861	0.5	FEEDBACK	n/a	n/a	n/a	n/a	n/a	n/a	n/a	n/a
221.486	1.0	ITI	n/a	n/a	n/a	n/a	n/a	n/a	n/a	n/a
222.486	0.5	FIXCROSS	n/a	n/a	n/a	n/a	n/a	n/a	n/a	n/a
222.986	0.85	T_COLOR_NAME	6	Incongruent	niebieski	blue	żółty	yellow	hit	n/a
223.824	n/a	RESPONSE	n/a	n/a	n/a	n/a	n/a	n/a	n/a	blue
223.836	0.5	FEEDBACK	n/a	n/a	n/a	n/a	n/a	n/a	n/a	n/a
224.336	1.0	ITI	n/a	n/a	n/a	n/a	n/a	n/a	n/a	n/a
225.336	0.5	FIXCROSS	n/a	n/a	n/a	n/a	n/a	n/a	n/a	n/a
225.836	0.5667	T_COLOR_NAME	7	Neutral	niebieski	blue	Neutral	Neutral	hit	n/a
226.3822	n/a	RESPONSE	n/a	n/a	n/a	n/a	n/a	n/a	n/a	blue
226.4026	0.5	FEEDBACK	n/a	n/a	n/a	n/a	n/a	n/a	n/a	n/a
226.9026	1.0	ITI	n/a	n/a	n/a	n/a	n/a	n/a	n/a	n/a
227.9026	0.5	FIXCROSS	n/a	n/a	n/a	n/a	n/a	n/a	n/a	n/a
228.4026	0.6333	T_COLOR_NAME	8	Incongruent	niebieski	blue	zielony	green	hit	n/a
229.0203	n/a	RESPONSE	n/a	n/a	n/a	n/a	n/a	n/a	n/a	blue
229.0359	0.5	FEEDBACK	n/a	n/a	n/a	n/a	n/a	n/a	n/a	n/a
229.5359	1.0	ITI	n/a	n/a	n/a	n/a	n/a	n/a	n/a	n/a
230.5359	0.5	FIXCROSS	n/a	n/a	n/a	n/a	n/a	n/a	n/a	n/a
231.0359	0.8167	T_COLOR_NAME	9	Incongruent	zielony	green	czerwony	red	hit	n/a
231.8342	n/a	RESPONSE	n/a	n/a	n/a	n/a	n/a	n/a	n/a	green
231.8525	0.5	FEEDBACK	n/a	n/a	n/a	n/a	n/a	n/a	n/a	n/a
232.3525	1.0	ITI	n/a	n/a	n/a	n/a	n/a	n/a	n/a	n/a
233.3525	0.5	FIXCROSS	n/a	n/a	n/a	n/a	n/a	n/a	n/a	n/a
233.8525	0.9166	T_COLOR_NAME	10	Neutral	czerwony	red	Neutral	Neutral	hit	n/a
234.7602	n/a	RESPONSE	n/a	n/a	n/a	n/a	n/a	n/a	n/a	red
234.7691	0.5	FEEDBACK	n/a	n/a	n/a	n/a	n/a	n/a	n/a	n/a
235.2691	1.0	ITI	n/a	n/a	n/a	n/a	n/a	n/a	n/a	n/a
236.2691	0.5	FIXCROSS	n/a	n/a	n/a	n/a	n/a	n/a	n/a	n/a
236.7691	0.95	T_COLOR_NAME	11	Neutral	żółty	yellow	Neutral	Neutral	hit	n/a
237.7021	n/a	RESPONSE	n/a	n/a	n/a	n/a	n/a	n/a	n/a	yellow
237.7191	0.5	FEEDBACK	n/a	n/a	n/a	n/a	n/a	n/a	n/a	n/a
238.2191	1.0	ITI	n/a	n/a	n/a	n/a	n/a	n/a	n/a	n/a
239.219	0.5	FIXCROSS	n/a	n/a	n/a	n/a	n/a	n/a	n/a	n/a
239.719	0.6833	T_COLOR_NAME	12	Incongruent	zielony	green	żółty	yellow	hit	n/a
240.3882	n/a	RESPONSE	n/a	n/a	n/a	n/a	n/a	n/a	n/a	green
240.4023	0.5	FEEDBACK	n/a	n/a	n/a	n/a	n/a	n/a	n/a	n/a
240.9023	1.0	ITI	n/a	n/a	n/a	n/a	n/a	n/a	n/a	n/a
243.1221	n/a	RESPONSE	n/a	n/a	n/a	n/a	n/a	n/a	n/a	n/a
243.1523	1.0	ITI	n/a	n/a	n/a	n/a	n/a	n/a	n/a	n/a
244.1523	0.5	FIXCROSS	n/a	n/a	n/a	n/a	n/a	n/a	n/a	n/a
244.6523	0.8833	COLOR_NAME	1	Neutral	czerwony	red	Neutral	Neutral	hit	n/a
245.5205	n/a	RESPONSE	n/a	n/a	n/a	n/a	n/a	n/a	n/a	red
245.5356	1.0	ITI	n/a	n/a	n/a	n/a	n/a	n/a	n/a	n/a
246.5355	0.5	FIXCROSS	n/a	n/a	n/a	n/a	n/a	n/a	n/a	n/a
247.0355	0.7167	COLOR_NAME	2	Neutral	czerwony	red	Neutral	Neutral	hit	n/a
247.7429	n/a	RESPONSE	n/a	n/a	n/a	n/a	n/a	n/a	n/a	red
247.7522	1.0	ITI	n/a	n/a	n/a	n/a	n/a	n/a	n/a	n/a
248.7522	0.5	FIXCROSS	n/a	n/a	n/a	n/a	n/a	n/a	n/a	n/a
249.2522	0.8	COLOR_NAME	3	Neutral	zielony	green	Neutral	Neutral	hit	n/a
250.0452	n/a	RESPONSE	n/a	n/a	n/a	n/a	n/a	n/a	n/a	green
250.0521	1.0	ITI	n/a	n/a	n/a	n/a	n/a	n/a	n/a	n/a
251.0521	0.5	FIXCROSS	n/a	n/a	n/a	n/a	n/a	n/a	n/a	n/a
251.5521	0.6666	COLOR_NAME	4	Incongruent	zielony	green	niebieski	blue	hit	n/a
252.2037	n/a	RESPONSE	n/a	n/a	n/a	n/a	n/a	n/a	n/a	green
252.2188	1.0	ITI	n/a	n/a	n/a	n/a	n/a	n/a	n/a	n/a
253.2187	0.5	FIXCROSS	n/a	n/a	n/a	n/a	n/a	n/a	n/a	n/a
253.7187	0.7	COLOR_NAME	5	Incongruent	żółty	yellow	zielony	green	hit	n/a
254.4101	n/a	RESPONSE	n/a	n/a	n/a	n/a	n/a	n/a	n/a	yellow
254.4187	1.0	ITI	n/a	n/a	n/a	n/a	n/a	n/a	n/a	n/a
255.4187	0.5	FIXCROSS	n/a	n/a	n/a	n/a	n/a	n/a	n/a	n/a
255.9187	0.5	COLOR_NAME	6	Neutral	niebieski	blue	Neutral	Neutral	hit	n/a
256.4087	n/a	RESPONSE	n/a	n/a	n/a	n/a	n/a	n/a	n/a	blue
256.4187	1.0	ITI	n/a	n/a	n/a	n/a	n/a	n/a	n/a	n/a
257.4187	0.5	FIXCROSS	n/a	n/a	n/a	n/a	n/a	n/a	n/a	n/a
257.9187	0.6833	COLOR_NAME	7	Incongruent	żółty	yellow	niebieski	blue	hit	n/a
258.599	n/a	RESPONSE	n/a	n/a	n/a	n/a	n/a	n/a	n/a	yellow
258.6019	1.0	ITI	n/a	n/a	n/a	n/a	n/a	n/a	n/a	n/a
259.6019	0.5	FIXCROSS	n/a	n/a	n/a	n/a	n/a	n/a	n/a	n/a
260.1019	0.6667	COLOR_NAME	8	Neutral	żółty	yellow	Neutral	Neutral	hit	n/a
260.7575	n/a	RESPONSE	n/a	n/a	n/a	n/a	n/a	n/a	n/a	yellow
260.7686	1.0	ITI	n/a	n/a	n/a	n/a	n/a	n/a	n/a	n/a
261.7686	0.5	FIXCROSS	n/a	n/a	n/a	n/a	n/a	n/a	n/a	n/a
262.2686	0.4833	COLOR_NAME	9	Neutral	żółty	yellow	Neutral	Neutral	hit	n/a
262.7401	n/a	RESPONSE	n/a	n/a	n/a	n/a	n/a	n/a	n/a	yellow
262.7519	1.0	ITI	n/a	n/a	n/a	n/a	n/a	n/a	n/a	n/a
263.7519	0.5	FIXCROSS	n/a	n/a	n/a	n/a	n/a	n/a	n/a	n/a
264.2519	0.7	COLOR_NAME	10	Incongruent	zielony	green	żółty	yellow	hit	n/a
264.9465	n/a	RESPONSE	n/a	n/a	n/a	n/a	n/a	n/a	n/a	green
264.9518	1.0	ITI	n/a	n/a	n/a	n/a	n/a	n/a	n/a	n/a
265.9518	0.5	FIXCROSS	n/a	n/a	n/a	n/a	n/a	n/a	n/a	n/a
266.4518	0.55	COLOR_NAME	11	Incongruent	czerwony	red	niebieski	blue	hit	n/a
266.9927	n/a	RESPONSE	n/a	n/a	n/a	n/a	n/a	n/a	n/a	red
267.0018	1.0	ITI	n/a	n/a	n/a	n/a	n/a	n/a	n/a	n/a
268.0018	0.5	FIXCROSS	n/a	n/a	n/a	n/a	n/a	n/a	n/a	n/a
268.5018	0.7833	COLOR_NAME	12	Incongruent	zielony	green	czerwony	red	hit	n/a
269.2791	n/a	RESPONSE	n/a	n/a	n/a	n/a	n/a	n/a	n/a	green
269.2851	1.0	ITI	n/a	n/a	n/a	n/a	n/a	n/a	n/a	n/a
270.2851	0.5	FIXCROSS	n/a	n/a	n/a	n/a	n/a	n/a	n/a	n/a
270.7851	0.5167	COLOR_NAME	13	Neutral	zielony	green	Neutral	Neutral	hit	n/a
271.2935	n/a	RESPONSE	n/a	n/a	n/a	n/a	n/a	n/a	n/a	green
271.3017	1.0	ITI	n/a	n/a	n/a	n/a	n/a	n/a	n/a	n/a
272.3017	0.5	FIXCROSS	n/a	n/a	n/a	n/a	n/a	n/a	n/a	n/a
272.8017	0.7167	COLOR_NAME	14	Neutral	niebieski	blue	Neutral	Neutral	hit	n/a
273.5	n/a	RESPONSE	n/a	n/a	n/a	n/a	n/a	n/a	n/a	blue
273.5183	1.0	ITI	n/a	n/a	n/a	n/a	n/a	n/a	n/a	n/a
274.5183	0.5	FIXCROSS	n/a	n/a	n/a	n/a	n/a	n/a	n/a	n/a
275.0183	0.4833	COLOR_NAME	15	Neutral	niebieski	blue	Neutral	Neutral	hit	n/a
275.4985	n/a	RESPONSE	n/a	n/a	n/a	n/a	n/a	n/a	n/a	blue
275.5016	1.0	ITI	n/a	n/a	n/a	n/a	n/a	n/a	n/a	n/a
276.5016	0.5	FIXCROSS	n/a	n/a	n/a	n/a	n/a	n/a	n/a	n/a
277.0016	0.4667	COLOR_NAME	16	Neutral	niebieski	blue	Neutral	Neutral	hit	n/a
277.4492	n/a	RESPONSE	n/a	n/a	n/a	n/a	n/a	n/a	n/a	blue
277.4683	1.0	ITI	n/a	n/a	n/a	n/a	n/a	n/a	n/a	n/a
278.4682	0.5	FIXCROSS	n/a	n/a	n/a	n/a	n/a	n/a	n/a	n/a
278.9682	0.5167	COLOR_NAME	17	Neutral	żółty	yellow	Neutral	Neutral	hit	n/a
279.4797	n/a	RESPONSE	n/a	n/a	n/a	n/a	n/a	n/a	n/a	yellow
279.4849	1.0	ITI	n/a	n/a	n/a	n/a	n/a	n/a	n/a	n/a
280.4849	0.5	FIXCROSS	n/a	n/a	n/a	n/a	n/a	n/a	n/a	n/a
280.9849	0.7833	COLOR_NAME	18	Incongruent	zielony	green	czerwony	red	hit	n/a
281.7501	n/a	RESPONSE	n/a	n/a	n/a	n/a	n/a	n/a	n/a	green
281.7682	1.0	ITI	n/a	n/a	n/a	n/a	n/a	n/a	n/a	n/a
282.7682	0.5	FIXCROSS	n/a	n/a	n/a	n/a	n/a	n/a	n/a	n/a
283.2681	0.7833	COLOR_NAME	19	Incongruent	niebieski	blue	zielony	green	incorrect	n/a
284.0364	n/a	RESPONSE	n/a	n/a	n/a	n/a	n/a	n/a	n/a	yellow
284.0515	1.0	ITI	n/a	n/a	n/a	n/a	n/a	n/a	n/a	n/a
285.0514	0.5	FIXCROSS	n/a	n/a	n/a	n/a	n/a	n/a	n/a	n/a
285.5514	1.2333	COLOR_NAME	20	Neutral	niebieski	blue	Neutral	Neutral	hit	n/a
286.7705	n/a	RESPONSE	n/a	n/a	n/a	n/a	n/a	n/a	n/a	blue
286.7847	1.0	ITI	n/a	n/a	n/a	n/a	n/a	n/a	n/a	n/a
287.7847	0.5	FIXCROSS	n/a	n/a	n/a	n/a	n/a	n/a	n/a	n/a
288.2847	0.8	COLOR_NAME	21	Neutral	zielony	green	Neutral	Neutral	hit	n/a
289.0729	n/a	RESPONSE	n/a	n/a	n/a	n/a	n/a	n/a	n/a	green
289.0847	1.0	ITI	n/a	n/a	n/a	n/a	n/a	n/a	n/a	n/a
290.0847	0.5	FIXCROSS	n/a	n/a	n/a	n/a	n/a	n/a	n/a	n/a
290.5847	1.3166	COLOR_NAME	22	Neutral	czerwony	red	Neutral	Neutral	hit	n/a
291.8868	n/a	RESPONSE	n/a	n/a	n/a	n/a	n/a	n/a	n/a	red
291.9013	1.0	ITI	n/a	n/a	n/a	n/a	n/a	n/a	n/a	n/a
292.9013	0.5	FIXCROSS	n/a	n/a	n/a	n/a	n/a	n/a	n/a	n/a
293.4013	0.6833	COLOR_NAME	23	Incongruent	czerwony	red	zielony	green	hit	n/a
294.0773	n/a	RESPONSE	n/a	n/a	n/a	n/a	n/a	n/a	n/a	red
294.0846	1.0	ITI	n/a	n/a	n/a	n/a	n/a	n/a	n/a	n/a
295.0846	0.5	FIXCROSS	n/a	n/a	n/a	n/a	n/a	n/a	n/a	n/a
295.5846	0.8167	COLOR_NAME	24	Incongruent	niebieski	blue	zielony	green	hit	n/a
296.3957	n/a	RESPONSE	n/a	n/a	n/a	n/a	n/a	n/a	n/a	blue
296.4012	1.0	ITI	n/a	n/a	n/a	n/a	n/a	n/a	n/a	n/a
297.4012	0.5	FIXCROSS	n/a	n/a	n/a	n/a	n/a	n/a	n/a	n/a
297.9012	0.8	COLOR_NAME	25	Incongruent	czerwony	red	żółty	yellow	hit	n/a
298.698	n/a	RESPONSE	n/a	n/a	n/a	n/a	n/a	n/a	n/a	red
298.7012	1.0	ITI	n/a	n/a	n/a	n/a	n/a	n/a	n/a	n/a
299.7011	0.5	FIXCROSS	n/a	n/a	n/a	n/a	n/a	n/a	n/a	n/a
300.2011	0.6667	COLOR_NAME	26	Neutral	zielony	green	Neutral	Neutral	hit	n/a
300.8565	n/a	RESPONSE	n/a	n/a	n/a	n/a	n/a	n/a	n/a	green
300.8678	1.0	ITI	n/a	n/a	n/a	n/a	n/a	n/a	n/a	n/a
301.8678	0.5	FIXCROSS	n/a	n/a	n/a	n/a	n/a	n/a	n/a	n/a
302.3678	0.6666	COLOR_NAME	27	Neutral	żółty	yellow	Neutral	Neutral	hit	n/a
303.015	n/a	RESPONSE	n/a	n/a	n/a	n/a	n/a	n/a	n/a	yellow
303.0344	1.0	ITI	n/a	n/a	n/a	n/a	n/a	n/a	n/a	n/a
304.0344	0.5	FIXCROSS	n/a	n/a	n/a	n/a	n/a	n/a	n/a	n/a
304.5344	0.8167	COLOR_NAME	28	Incongruent	zielony	green	czerwony	red	hit	n/a
305.3334	n/a	RESPONSE	n/a	n/a	n/a	n/a	n/a	n/a	n/a	green
305.351	1.0	ITI	n/a	n/a	n/a	n/a	n/a	n/a	n/a	n/a
306.351	0.4999	FIXCROSS	n/a	n/a	n/a	n/a	n/a	n/a	n/a	n/a
306.8509	0.7001	COLOR_NAME	29	Incongruent	niebieski	blue	zielony	green	hit	n/a
307.5397	n/a	RESPONSE	n/a	n/a	n/a	n/a	n/a	n/a	n/a	blue
307.551	1.0	ITI	n/a	n/a	n/a	n/a	n/a	n/a	n/a	n/a
308.551	0.5	FIXCROSS	n/a	n/a	n/a	n/a	n/a	n/a	n/a	n/a
309.051	0.7666	COLOR_NAME	30	Neutral	zielony	green	Neutral	Neutral	hit	n/a
309.8101	n/a	RESPONSE	n/a	n/a	n/a	n/a	n/a	n/a	n/a	green
309.8176	1.0	ITI	n/a	n/a	n/a	n/a	n/a	n/a	n/a	n/a
310.8176	0.5	FIXCROSS	n/a	n/a	n/a	n/a	n/a	n/a	n/a	n/a
311.3176	0.8	COLOR_NAME	31	Neutral	żółty	yellow	Neutral	Neutral	hit	n/a
312.1126	n/a	RESPONSE	n/a	n/a	n/a	n/a	n/a	n/a	n/a	yellow
312.1176	1.0	ITI	n/a	n/a	n/a	n/a	n/a	n/a	n/a	n/a
313.1175	0.5	FIXCROSS	n/a	n/a	n/a	n/a	n/a	n/a	n/a	n/a
313.6175	0.65	COLOR_NAME	32	Neutral	czerwony	red	Neutral	Neutral	hit	n/a
314.2549	n/a	RESPONSE	n/a	n/a	n/a	n/a	n/a	n/a	n/a	red
314.2675	1.0	ITI	n/a	n/a	n/a	n/a	n/a	n/a	n/a	n/a
315.2675	0.5	FIXCROSS	n/a	n/a	n/a	n/a	n/a	n/a	n/a	n/a
315.7675	0.8167	COLOR_NAME	33	Incongruent	czerwony	red	niebieski	blue	hit	n/a
316.5733	n/a	RESPONSE	n/a	n/a	n/a	n/a	n/a	n/a	n/a	red
316.5841	1.0	ITI	n/a	n/a	n/a	n/a	n/a	n/a	n/a	n/a
317.5841	0.5	FIXCROSS	n/a	n/a	n/a	n/a	n/a	n/a	n/a	n/a
318.0841	0.7166	COLOR_NAME	34	Incongruent	zielony	green	niebieski	blue	hit	n/a
318.7958	n/a	RESPONSE	n/a	n/a	n/a	n/a	n/a	n/a	n/a	green
318.8008	1.0	ITI	n/a	n/a	n/a	n/a	n/a	n/a	n/a	n/a
319.8007	0.5	FIXCROSS	n/a	n/a	n/a	n/a	n/a	n/a	n/a	n/a
320.3007	0.6667	COLOR_NAME	35	Incongruent	żółty	yellow	czerwony	red	hit	n/a
320.9543	n/a	RESPONSE	n/a	n/a	n/a	n/a	n/a	n/a	n/a	yellow
320.9674	1.0	ITI	n/a	n/a	n/a	n/a	n/a	n/a	n/a	n/a
321.9674	0.5	FIXCROSS	n/a	n/a	n/a	n/a	n/a	n/a	n/a	n/a
322.4674	0.8	COLOR_NAME	36	Incongruent	zielony	green	żółty	yellow	hit	n/a
323.2566	n/a	RESPONSE	n/a	n/a	n/a	n/a	n/a	n/a	n/a	green
323.2673	1.0	ITI	n/a	n/a	n/a	n/a	n/a	n/a	n/a	n/a
324.2673	0.5	FIXCROSS	n/a	n/a	n/a	n/a	n/a	n/a	n/a	n/a
324.7673	0.55	COLOR_NAME	37	Neutral	zielony	green	Neutral	Neutral	hit	n/a
325.3031	n/a	RESPONSE	n/a	n/a	n/a	n/a	n/a	n/a	n/a	green
325.3173	1.0	ITI	n/a	n/a	n/a	n/a	n/a	n/a	n/a	n/a
326.3173	0.5	FIXCROSS	n/a	n/a	n/a	n/a	n/a	n/a	n/a	n/a
326.8173	0.6833	COLOR_NAME	38	Neutral	czerwony	red	Neutral	Neutral	hit	n/a
327.4936	n/a	RESPONSE	n/a	n/a	n/a	n/a	n/a	n/a	n/a	red
327.5006	1.0	ITI	n/a	n/a	n/a	n/a	n/a	n/a	n/a	n/a
328.5006	0.5	FIXCROSS	n/a	n/a	n/a	n/a	n/a	n/a	n/a	n/a
329.0006	0.7	COLOR_NAME	39	Neutral	żółty	yellow	Neutral	Neutral	hit	n/a
329.6839	n/a	RESPONSE	n/a	n/a	n/a	n/a	n/a	n/a	n/a	yellow
329.7005	1.0	ITI	n/a	n/a	n/a	n/a	n/a	n/a	n/a	n/a
330.7005	0.5	FIXCROSS	n/a	n/a	n/a	n/a	n/a	n/a	n/a	n/a
331.2005	0.6167	COLOR_NAME	40	Neutral	niebieski	blue	Neutral	Neutral	hit	n/a
331.8104	n/a	RESPONSE	n/a	n/a	n/a	n/a	n/a	n/a	n/a	blue
331.8172	1.0	ITI	n/a	n/a	n/a	n/a	n/a	n/a	n/a	n/a
332.8171	0.5	FIXCROSS	n/a	n/a	n/a	n/a	n/a	n/a	n/a	n/a
333.3171	0.6833	COLOR_NAME	41	Neutral	żółty	yellow	Neutral	Neutral	hit	n/a
333.9849	n/a	RESPONSE	n/a	n/a	n/a	n/a	n/a	n/a	n/a	yellow
334.0005	1.0	ITI	n/a	n/a	n/a	n/a	n/a	n/a	n/a	n/a
335.0004	0.5	FIXCROSS	n/a	n/a	n/a	n/a	n/a	n/a	n/a	n/a
335.5004	0.7667	COLOR_NAME	42	Neutral	zielony	green	Neutral	Neutral	hit	n/a
336.2553	n/a	RESPONSE	n/a	n/a	n/a	n/a	n/a	n/a	n/a	green
336.2671	1.0	ITI	n/a	n/a	n/a	n/a	n/a	n/a	n/a	n/a
337.2671	0.5	FIXCROSS	n/a	n/a	n/a	n/a	n/a	n/a	n/a	n/a
337.7671	0.5833	COLOR_NAME	43	Neutral	żółty	yellow	Neutral	Neutral	hit	n/a
338.3339	n/a	RESPONSE	n/a	n/a	n/a	n/a	n/a	n/a	n/a	yellow
338.3504	1.0	ITI	n/a	n/a	n/a	n/a	n/a	n/a	n/a	n/a
339.3504	0.5	FIXCROSS	n/a	n/a	n/a	n/a	n/a	n/a	n/a	n/a
339.8503	0.7667	COLOR_NAME	44	Neutral	niebieski	blue	Neutral	Neutral	hit	n/a
340.6042	n/a	RESPONSE	n/a	n/a	n/a	n/a	n/a	n/a	n/a	blue
340.617	1.0	ITI	n/a	n/a	n/a	n/a	n/a	n/a	n/a	n/a
341.617	0.5	FIXCROSS	n/a	n/a	n/a	n/a	n/a	n/a	n/a	n/a
342.117	0.7333	COLOR_NAME	45	Incongruent	zielony	green	żółty	yellow	hit	n/a
342.8425	n/a	RESPONSE	n/a	n/a	n/a	n/a	n/a	n/a	n/a	green
342.8503	1.0	ITI	n/a	n/a	n/a	n/a	n/a	n/a	n/a	n/a
343.8503	0.5	FIXCROSS	n/a	n/a	n/a	n/a	n/a	n/a	n/a	n/a
344.3503	0.7	COLOR_NAME	46	Neutral	czerwony	red	Neutral	Neutral	hit	n/a
345.033	n/a	RESPONSE	n/a	n/a	n/a	n/a	n/a	n/a	n/a	red
345.0502	1.0	ITI	n/a	n/a	n/a	n/a	n/a	n/a	n/a	n/a
346.0502	0.5	FIXCROSS	n/a	n/a	n/a	n/a	n/a	n/a	n/a	n/a
346.5502	0.6167	COLOR_NAME	47	Incongruent	żółty	yellow	zielony	green	hit	n/a
347.1595	n/a	RESPONSE	n/a	n/a	n/a	n/a	n/a	n/a	n/a	yellow
347.1669	1.0	ITI	n/a	n/a	n/a	n/a	n/a	n/a	n/a	n/a
348.1668	0.5	FIXCROSS	n/a	n/a	n/a	n/a	n/a	n/a	n/a	n/a
348.6668	0.5833	COLOR_NAME	48	Incongruent	niebieski	blue	żółty	yellow	hit	n/a
349.238	n/a	RESPONSE	n/a	n/a	n/a	n/a	n/a	n/a	n/a	blue
349.2502	1.0	ITI	n/a	n/a	n/a	n/a	n/a	n/a	n/a	n/a
350.2501	0.5	FIXCROSS	n/a	n/a	n/a	n/a	n/a	n/a	n/a	n/a
350.7501	0.5667	COLOR_NAME	49	Incongruent	żółty	yellow	czerwony	red	hit	n/a
351.3006	n/a	RESPONSE	n/a	n/a	n/a	n/a	n/a	n/a	n/a	yellow
351.3168	1.0	ITI	n/a	n/a	n/a	n/a	n/a	n/a	n/a	n/a
352.3168	0.5	FIXCROSS	n/a	n/a	n/a	n/a	n/a	n/a	n/a	n/a
352.8168	0.7167	COLOR_NAME	50	Incongruent	niebieski	blue	żółty	yellow	hit	n/a
353.5229	n/a	RESPONSE	n/a	n/a	n/a	n/a	n/a	n/a	n/a	blue
353.5334	1.0	ITI	n/a	n/a	n/a	n/a	n/a	n/a	n/a	n/a
354.5334	0.5	FIXCROSS	n/a	n/a	n/a	n/a	n/a	n/a	n/a	n/a
355.0334	0.7	COLOR_NAME	51	Incongruent	niebieski	blue	czerwony	red	hit	n/a
355.7294	n/a	RESPONSE	n/a	n/a	n/a	n/a	n/a	n/a	n/a	blue
355.7333	1.0	ITI	n/a	n/a	n/a	n/a	n/a	n/a	n/a	n/a
356.7333	0.5	FIXCROSS	n/a	n/a	n/a	n/a	n/a	n/a	n/a	n/a
357.2333	0.6	COLOR_NAME	52	Incongruent	niebieski	blue	czerwony	red	hit	n/a
357.8239	n/a	RESPONSE	n/a	n/a	n/a	n/a	n/a	n/a	n/a	blue
357.8333	1.0	ITI	n/a	n/a	n/a	n/a	n/a	n/a	n/a	n/a
358.8333	0.5	FIXCROSS	n/a	n/a	n/a	n/a	n/a	n/a	n/a	n/a
359.3333	0.6	COLOR_NAME	53	Incongruent	żółty	yellow	niebieski	blue	hit	n/a
359.9184	n/a	RESPONSE	n/a	n/a	n/a	n/a	n/a	n/a	n/a	yellow
359.9333	1.0	ITI	n/a	n/a	n/a	n/a	n/a	n/a	n/a	n/a
360.9333	0.5	FIXCROSS	n/a	n/a	n/a	n/a	n/a	n/a	n/a	n/a
361.4332	0.5666	COLOR_NAME	54	Neutral	niebieski	blue	Neutral	Neutral	hit	n/a
361.9809	n/a	RESPONSE	n/a	n/a	n/a	n/a	n/a	n/a	n/a	blue
361.9999	1.0	ITI	n/a	n/a	n/a	n/a	n/a	n/a	n/a	n/a
362.9999	0.5	FIXCROSS	n/a	n/a	n/a	n/a	n/a	n/a	n/a	n/a
363.4999	0.7	COLOR_NAME	55	Neutral	czerwony	red	Neutral	Neutral	hit	n/a
364.1874	n/a	RESPONSE	n/a	n/a	n/a	n/a	n/a	n/a	n/a	red
364.1999	1.0	ITI	n/a	n/a	n/a	n/a	n/a	n/a	n/a	n/a
365.1998	0.5	FIXCROSS	n/a	n/a	n/a	n/a	n/a	n/a	n/a	n/a
365.6998	0.6833	COLOR_NAME	56	Incongruent	niebieski	blue	czerwony	red	hit	n/a
366.3778	n/a	RESPONSE	n/a	n/a	n/a	n/a	n/a	n/a	n/a	blue
366.3832	1.0	ITI	n/a	n/a	n/a	n/a	n/a	n/a	n/a	n/a
367.3831	0.5	FIXCROSS	n/a	n/a	n/a	n/a	n/a	n/a	n/a	n/a
367.8831	0.75	COLOR_NAME	57	Incongruent	czerwony	red	żółty	yellow	hit	n/a
368.6162	n/a	RESPONSE	n/a	n/a	n/a	n/a	n/a	n/a	n/a	red
368.6331	1.0	ITI	n/a	n/a	n/a	n/a	n/a	n/a	n/a	n/a
369.6331	0.5	FIXCROSS	n/a	n/a	n/a	n/a	n/a	n/a	n/a	n/a
370.1331	0.6167	COLOR_NAME	58	Neutral	czerwony	red	Neutral	Neutral	hit	n/a
370.7427	n/a	RESPONSE	n/a	n/a	n/a	n/a	n/a	n/a	n/a	red
370.7497	1.0	ITI	n/a	n/a	n/a	n/a	n/a	n/a	n/a	n/a
371.7497	0.5	FIXCROSS	n/a	n/a	n/a	n/a	n/a	n/a	n/a	n/a
372.2497	1.0667	COLOR_NAME	59	Incongruent	żółty	yellow	czerwony	red	hit	n/a
373.3008	n/a	RESPONSE	n/a	n/a	n/a	n/a	n/a	n/a	n/a	yellow
373.3163	1.0	ITI	n/a	n/a	n/a	n/a	n/a	n/a	n/a	n/a
374.3163	0.5	FIXCROSS	n/a	n/a	n/a	n/a	n/a	n/a	n/a	n/a
374.8163	0.6167	COLOR_NAME	60	Neutral	niebieski	blue	Neutral	Neutral	hit	n/a
375.4273	n/a	RESPONSE	n/a	n/a	n/a	n/a	n/a	n/a	n/a	blue
375.433	1.0	ITI	n/a	n/a	n/a	n/a	n/a	n/a	n/a	n/a
376.4329	0.5	FIXCROSS	n/a	n/a	n/a	n/a	n/a	n/a	n/a	n/a
376.9329	0.6667	COLOR_NAME	61	Incongruent	czerwony	red	zielony	green	hit	n/a
377.5858	n/a	RESPONSE	n/a	n/a	n/a	n/a	n/a	n/a	n/a	red
377.5996	1.0	ITI	n/a	n/a	n/a	n/a	n/a	n/a	n/a	n/a
378.5996	0.5	FIXCROSS	n/a	n/a	n/a	n/a	n/a	n/a	n/a	n/a
379.0996	0.7667	COLOR_NAME	62	Incongruent	zielony	green	niebieski	blue	hit	n/a
379.8561	n/a	RESPONSE	n/a	n/a	n/a	n/a	n/a	n/a	n/a	green
379.8662	1.0	ITI	n/a	n/a	n/a	n/a	n/a	n/a	n/a	n/a
380.8662	0.5	FIXCROSS	n/a	n/a	n/a	n/a	n/a	n/a	n/a	n/a
381.3662	1.0333	COLOR_NAME	63	Incongruent	czerwony	red	żółty	yellow	hit	n/a
382.3824	n/a	RESPONSE	n/a	n/a	n/a	n/a	n/a	n/a	n/a	red
382.3995	1.0	ITI	n/a	n/a	n/a	n/a	n/a	n/a	n/a	n/a
383.3995	0.5	FIXCROSS	n/a	n/a	n/a	n/a	n/a	n/a	n/a	n/a
383.8995	0.7	COLOR_NAME	64	Neutral	żółty	yellow	Neutral	Neutral	hit	n/a
384.5888	n/a	RESPONSE	n/a	n/a	n/a	n/a	n/a	n/a	n/a	yellow
384.5994	1.0	ITI	n/a	n/a	n/a	n/a	n/a	n/a	n/a	n/a
385.5994	0.5	FIXCROSS	n/a	n/a	n/a	n/a	n/a	n/a	n/a	n/a
386.0994	0.6833	COLOR_NAME	65	Neutral	zielony	green	Neutral	Neutral	hit	n/a
386.7793	n/a	RESPONSE	n/a	n/a	n/a	n/a	n/a	n/a	n/a	green
386.7827	1.0	ITI	n/a	n/a	n/a	n/a	n/a	n/a	n/a	n/a
387.7827	0.5	FIXCROSS	n/a	n/a	n/a	n/a	n/a	n/a	n/a	n/a
388.2827	0.7833	COLOR_NAME	66	Incongruent	czerwony	red	niebieski	blue	hit	n/a
389.0496	n/a	RESPONSE	n/a	n/a	n/a	n/a	n/a	n/a	n/a	red
389.066	1.0	ITI	n/a	n/a	n/a	n/a	n/a	n/a	n/a	n/a
390.066	0.5	FIXCROSS	n/a	n/a	n/a	n/a	n/a	n/a	n/a	n/a
390.566	0.6833	COLOR_NAME	67	Incongruent	żółty	yellow	zielony	green	hit	n/a
391.24	n/a	RESPONSE	n/a	n/a	n/a	n/a	n/a	n/a	n/a	yellow
391.2493	1.0	ITI	n/a	n/a	n/a	n/a	n/a	n/a	n/a	n/a
392.2493	0.5	FIXCROSS	n/a	n/a	n/a	n/a	n/a	n/a	n/a	n/a
392.7493	0.7667	COLOR_NAME	68	Neutral	czerwony	red	Neutral	Neutral	hit	n/a
393.5105	n/a	RESPONSE	n/a	n/a	n/a	n/a	n/a	n/a	n/a	red
393.5159	1.0	ITI	n/a	n/a	n/a	n/a	n/a	n/a	n/a	n/a
394.5159	0.5	FIXCROSS	n/a	n/a	n/a	n/a	n/a	n/a	n/a	n/a
395.0159	0.7333	COLOR_NAME	69	Incongruent	niebieski	blue	żółty	yellow	hit	n/a
395.7329	n/a	RESPONSE	n/a	n/a	n/a	n/a	n/a	n/a	n/a	blue
395.7492	1.0	ITI	n/a	n/a	n/a	n/a	n/a	n/a	n/a	n/a
396.7492	0.5	FIXCROSS	n/a	n/a	n/a	n/a	n/a	n/a	n/a	n/a
397.2492	0.7833	COLOR_NAME	70	Neutral	zielony	green	Neutral	Neutral	hit	n/a
398.0192	n/a	RESPONSE	n/a	n/a	n/a	n/a	n/a	n/a	n/a	green
398.0325	1.0	ITI	n/a	n/a	n/a	n/a	n/a	n/a	n/a	n/a
399.0325	0.5	FIXCROSS	n/a	n/a	n/a	n/a	n/a	n/a	n/a	n/a
399.5325	0.9666	COLOR_NAME	71	Incongruent	czerwony	red	zielony	green	hit	n/a
400.4814	n/a	RESPONSE	n/a	n/a	n/a	n/a	n/a	n/a	n/a	red
400.4991	1.0	ITI	n/a	n/a	n/a	n/a	n/a	n/a	n/a	n/a
401.4991	0.5	FIXCROSS	n/a	n/a	n/a	n/a	n/a	n/a	n/a	n/a
401.9991	0.5833	COLOR_NAME	72	Incongruent	żółty	yellow	niebieski	blue	hit	n/a
402.576	n/a	RESPONSE	n/a	n/a	n/a	n/a	n/a	n/a	n/a	yellow
402.5824	1.0	ITI	n/a	n/a	n/a	n/a	n/a	n/a	n/a	n/a
405.0702	n/a	RESPONSE	n/a	n/a	n/a	n/a	n/a	n/a	n/a	n/a
