onset	duration	trial_type	trial_number	stroop_condition	stim_text(PL)	stim_text(eng)	stim_color(PL)	stim_color(eng)	response_type	response_color
0.0	n/a	RESPONSE	n/a	n/a	n/a	n/a	n/a	n/a	n/a	n/a
0.0689	1.0333	ITI	n/a	n/a	n/a	n/a	n/a	n/a	n/a	n/a
1.1022	0.5167	FIXCROSS	n/a	n/a	n/a	n/a	n/a	n/a	n/a	n/a
1.6189	1.1667	T_INK	1	Incongruent	zielony	green	żółty	yellow	hit	n/a
2.7515	n/a	RESPONSE	n/a	n/a	n/a	n/a	n/a	n/a	n/a	yellow
2.7856	0.5166	FEEDBACK	n/a	n/a	n/a	n/a	n/a	n/a	n/a	n/a
3.3022	1.0167	ITI	n/a	n/a	n/a	n/a	n/a	n/a	n/a	n/a
4.3189	0.5167	FIXCROSS	n/a	n/a	n/a	n/a	n/a	n/a	n/a	n/a
4.8356	0.9	T_INK	2	Incongruent	zielony	green	czerwony	red	hit	n/a
5.7109	n/a	RESPONSE	n/a	n/a	n/a	n/a	n/a	n/a	n/a	red
5.7356	0.5167	FEEDBACK	n/a	n/a	n/a	n/a	n/a	n/a	n/a	n/a
6.2523	1.0167	ITI	n/a	n/a	n/a	n/a	n/a	n/a	n/a	n/a
7.269	0.5167	FIXCROSS	n/a	n/a	n/a	n/a	n/a	n/a	n/a	n/a
7.7857	1.0334	T_INK	3	Neutral	xxxxx	xxxxx	niebieski	blue	hit	n/a
8.7823	n/a	RESPONSE	n/a	n/a	n/a	n/a	n/a	n/a	n/a	blue
8.819	0.5167	FEEDBACK	n/a	n/a	n/a	n/a	n/a	n/a	n/a	n/a
9.3357	1.0167	ITI	n/a	n/a	n/a	n/a	n/a	n/a	n/a	n/a
10.3524	0.5167	FIXCROSS	n/a	n/a	n/a	n/a	n/a	n/a	n/a	n/a
10.869	1.1167	T_INK	4	Incongruent	czerwony	red	niebieski	blue	hit	n/a
11.9655	n/a	RESPONSE	n/a	n/a	n/a	n/a	n/a	n/a	n/a	blue
11.9857	0.5167	FEEDBACK	n/a	n/a	n/a	n/a	n/a	n/a	n/a	n/a
12.5024	1.0167	ITI	n/a	n/a	n/a	n/a	n/a	n/a	n/a	n/a
13.5191	0.5167	FIXCROSS	n/a	n/a	n/a	n/a	n/a	n/a	n/a	n/a
14.0357	0.75	T_INK	5	Neutral	xxxxx	xxxxx	czerwony	red	hit	n/a
14.7647	n/a	RESPONSE	n/a	n/a	n/a	n/a	n/a	n/a	n/a	red
14.7858	0.5167	FEEDBACK	n/a	n/a	n/a	n/a	n/a	n/a	n/a	n/a
15.3024	1.0167	ITI	n/a	n/a	n/a	n/a	n/a	n/a	n/a	n/a
16.3191	0.5167	FIXCROSS	n/a	n/a	n/a	n/a	n/a	n/a	n/a	n/a
16.8358	0.6833	T_INK	6	Neutral	xxxxxxxxx	xxxxxxxxx	czerwony	red	hit	n/a
17.484	n/a	RESPONSE	n/a	n/a	n/a	n/a	n/a	n/a	n/a	red
17.5191	0.5167	FEEDBACK	n/a	n/a	n/a	n/a	n/a	n/a	n/a	n/a
18.0358	1.0167	ITI	n/a	n/a	n/a	n/a	n/a	n/a	n/a	n/a
19.0525	0.5167	FIXCROSS	n/a	n/a	n/a	n/a	n/a	n/a	n/a	n/a
19.5692	0.8334	T_INK	7	Neutral	xxxxxxxx	xxxxxxxx	zielony	green	hit	n/a
20.3793	n/a	RESPONSE	n/a	n/a	n/a	n/a	n/a	n/a	n/a	green
20.4025	0.5167	FEEDBACK	n/a	n/a	n/a	n/a	n/a	n/a	n/a	n/a
20.9192	1.0167	ITI	n/a	n/a	n/a	n/a	n/a	n/a	n/a	n/a
21.9359	0.5167	FIXCROSS	n/a	n/a	n/a	n/a	n/a	n/a	n/a	n/a
22.4525	0.9167	T_INK	8	Incongruent	niebieski	blue	żółty	yellow	hit	n/a
23.3387	n/a	RESPONSE	n/a	n/a	n/a	n/a	n/a	n/a	n/a	yellow
23.3692	0.5167	FEEDBACK	n/a	n/a	n/a	n/a	n/a	n/a	n/a	n/a
23.8859	1.0167	ITI	n/a	n/a	n/a	n/a	n/a	n/a	n/a	n/a
24.9026	0.5167	FIXCROSS	n/a	n/a	n/a	n/a	n/a	n/a	n/a	n/a
25.4192	1.0	T_INK	9	Neutral	xxxxxxx	xxxxxxx	niebieski	blue	hit	n/a
26.394	n/a	RESPONSE	n/a	n/a	n/a	n/a	n/a	n/a	n/a	blue
26.4193	0.5167	FEEDBACK	n/a	n/a	n/a	n/a	n/a	n/a	n/a	n/a
26.9359	1.0167	ITI	n/a	n/a	n/a	n/a	n/a	n/a	n/a	n/a
27.9526	0.5167	FIXCROSS	n/a	n/a	n/a	n/a	n/a	n/a	n/a	n/a
28.4693	0.9167	T_INK	10	Incongruent	zielony	green	niebieski	blue	hit	n/a
29.3534	n/a	RESPONSE	n/a	n/a	n/a	n/a	n/a	n/a	n/a	blue
29.386	0.5167	FEEDBACK	n/a	n/a	n/a	n/a	n/a	n/a	n/a	n/a
29.9026	1.0167	ITI	n/a	n/a	n/a	n/a	n/a	n/a	n/a	n/a
30.9193	0.5167	FIXCROSS	n/a	n/a	n/a	n/a	n/a	n/a	n/a	n/a
31.436	0.6833	T_INK	11	Neutral	xxxxxxxx	xxxxxxxx	żółty	yellow	hit	n/a
32.0888	n/a	RESPONSE	n/a	n/a	n/a	n/a	n/a	n/a	n/a	yellow
32.1193	0.5167	FEEDBACK	n/a	n/a	n/a	n/a	n/a	n/a	n/a	n/a
32.636	1.0167	ITI	n/a	n/a	n/a	n/a	n/a	n/a	n/a	n/a
33.6527	0.5167	FIXCROSS	n/a	n/a	n/a	n/a	n/a	n/a	n/a	n/a
34.1694	0.8333	T_INK	12	Neutral	xxxxx	xxxxx	zielony	green	hit	n/a
34.9842	n/a	RESPONSE	n/a	n/a	n/a	n/a	n/a	n/a	n/a	green
35.0027	0.5167	FEEDBACK	n/a	n/a	n/a	n/a	n/a	n/a	n/a	n/a
35.5194	1.0333	ITI	n/a	n/a	n/a	n/a	n/a	n/a	n/a	n/a
60.2109	n/a	RESPONSE	n/a	n/a	n/a	n/a	n/a	n/a	n/a	n/a
60.2697	1.0167	ITI	n/a	n/a	n/a	n/a	n/a	n/a	n/a	n/a
61.2864	0.5167	FIXCROSS	n/a	n/a	n/a	n/a	n/a	n/a	n/a	n/a
61.8031	1.2	INK	1	Neutral	xxxxxxxx	xxxxxxxx	żółty	yellow	hit	n/a
62.9783	n/a	RESPONSE	n/a	n/a	n/a	n/a	n/a	n/a	n/a	yellow
63.0031	1.0165	ITI	n/a	n/a	n/a	n/a	n/a	n/a	n/a	n/a
64.0196	0.5168	FIXCROSS	n/a	n/a	n/a	n/a	n/a	n/a	n/a	n/a
64.5365	0.6833	INK	2	Neutral	xxxxxxxx	xxxxxxxx	zielony	green	hit	n/a
65.1859	n/a	RESPONSE	n/a	n/a	n/a	n/a	n/a	n/a	n/a	green
65.2198	1.0167	ITI	n/a	n/a	n/a	n/a	n/a	n/a	n/a	n/a
66.2365	0.5167	FIXCROSS	n/a	n/a	n/a	n/a	n/a	n/a	n/a	n/a
66.7532	0.4834	INK	3	Neutral	xxxxxxx	xxxxxxx	czerwony	red	hit	n/a
67.2175	n/a	RESPONSE	n/a	n/a	n/a	n/a	n/a	n/a	n/a	red
67.2365	1.0167	ITI	n/a	n/a	n/a	n/a	n/a	n/a	n/a	n/a
68.2532	0.5167	FIXCROSS	n/a	n/a	n/a	n/a	n/a	n/a	n/a	n/a
68.7698	0.4833	INK	4	Neutral	xxxxxxx	xxxxxxx	niebieski	blue	hit	n/a
69.233	n/a	RESPONSE	n/a	n/a	n/a	n/a	n/a	n/a	n/a	blue
69.2532	1.0167	ITI	n/a	n/a	n/a	n/a	n/a	n/a	n/a	n/a
70.2699	0.5167	FIXCROSS	n/a	n/a	n/a	n/a	n/a	n/a	n/a	n/a
70.7865	0.9167	INK	5	Incongruent	żółty	yellow	czerwony	red	hit	n/a
71.6805	n/a	RESPONSE	n/a	n/a	n/a	n/a	n/a	n/a	n/a	red
71.7032	1.0167	ITI	n/a	n/a	n/a	n/a	n/a	n/a	n/a	n/a
72.7199	0.5167	FIXCROSS	n/a	n/a	n/a	n/a	n/a	n/a	n/a	n/a
73.2366	0.6667	INK	6	Neutral	xxxxxxxxx	xxxxxxxxx	zielony	green	hit	n/a
73.8721	n/a	RESPONSE	n/a	n/a	n/a	n/a	n/a	n/a	n/a	green
73.9033	1.0167	ITI	n/a	n/a	n/a	n/a	n/a	n/a	n/a	n/a
74.9199	0.5167	FIXCROSS	n/a	n/a	n/a	n/a	n/a	n/a	n/a	n/a
75.4366	0.75	INK	7	Incongruent	zielony	green	czerwony	red	hit	n/a
76.1596	n/a	RESPONSE	n/a	n/a	n/a	n/a	n/a	n/a	n/a	red
76.1866	1.0167	ITI	n/a	n/a	n/a	n/a	n/a	n/a	n/a	n/a
77.2033	0.5167	FIXCROSS	n/a	n/a	n/a	n/a	n/a	n/a	n/a	n/a
77.72	0.7334	INK	8	Incongruent	niebieski	blue	zielony	green	hit	n/a
78.4311	n/a	RESPONSE	n/a	n/a	n/a	n/a	n/a	n/a	n/a	green
78.4533	1.0167	ITI	n/a	n/a	n/a	n/a	n/a	n/a	n/a	n/a
79.47	0.5167	FIXCROSS	n/a	n/a	n/a	n/a	n/a	n/a	n/a	n/a
79.9867	0.5667	INK	9	Neutral	xxxxxxx	xxxxxxx	niebieski	blue	hit	n/a
80.5267	n/a	RESPONSE	n/a	n/a	n/a	n/a	n/a	n/a	n/a	blue
80.5533	1.0167	ITI	n/a	n/a	n/a	n/a	n/a	n/a	n/a	n/a
81.57	0.5167	FIXCROSS	n/a	n/a	n/a	n/a	n/a	n/a	n/a	n/a
82.0867	0.6667	INK	10	Incongruent	zielony	green	niebieski	blue	hit	n/a
82.7342	n/a	RESPONSE	n/a	n/a	n/a	n/a	n/a	n/a	n/a	blue
82.7534	1.0167	ITI	n/a	n/a	n/a	n/a	n/a	n/a	n/a	n/a
83.7701	0.5167	FIXCROSS	n/a	n/a	n/a	n/a	n/a	n/a	n/a	n/a
84.2867	0.65	INK	11	Neutral	xxxxx	xxxxx	czerwony	red	hit	n/a
84.9098	n/a	RESPONSE	n/a	n/a	n/a	n/a	n/a	n/a	n/a	red
84.9367	1.0167	ITI	n/a	n/a	n/a	n/a	n/a	n/a	n/a	n/a
85.9534	0.5167	FIXCROSS	n/a	n/a	n/a	n/a	n/a	n/a	n/a	n/a
86.4701	1.0833	INK	12	Incongruent	czerwony	red	niebieski	blue	hit	n/a
87.5332	n/a	RESPONSE	n/a	n/a	n/a	n/a	n/a	n/a	n/a	blue
87.5534	1.0167	ITI	n/a	n/a	n/a	n/a	n/a	n/a	n/a	n/a
88.5701	0.5167	FIXCROSS	n/a	n/a	n/a	n/a	n/a	n/a	n/a	n/a
89.0868	0.5333	INK	13	Incongruent	niebieski	blue	zielony	green	hit	n/a
89.5968	n/a	RESPONSE	n/a	n/a	n/a	n/a	n/a	n/a	n/a	green
89.6201	1.0167	ITI	n/a	n/a	n/a	n/a	n/a	n/a	n/a	n/a
90.6368	0.5167	FIXCROSS	n/a	n/a	n/a	n/a	n/a	n/a	n/a	n/a
91.1535	0.5	INK	14	Incongruent	zielony	green	żółty	yellow	hit	n/a
91.6284	n/a	RESPONSE	n/a	n/a	n/a	n/a	n/a	n/a	n/a	yellow
91.6535	1.0167	ITI	n/a	n/a	n/a	n/a	n/a	n/a	n/a	n/a
92.6702	0.5167	FIXCROSS	n/a	n/a	n/a	n/a	n/a	n/a	n/a	n/a
93.1869	1.0	INK	15	Incongruent	czerwony	red	niebieski	blue	hit	n/a
94.1559	n/a	RESPONSE	n/a	n/a	n/a	n/a	n/a	n/a	n/a	blue
94.1869	1.0167	ITI	n/a	n/a	n/a	n/a	n/a	n/a	n/a	n/a
95.2036	0.5167	FIXCROSS	n/a	n/a	n/a	n/a	n/a	n/a	n/a	n/a
95.7202	0.65	INK	16	Incongruent	zielony	green	żółty	yellow	hit	n/a
96.3474	n/a	RESPONSE	n/a	n/a	n/a	n/a	n/a	n/a	n/a	yellow
96.3702	1.0167	ITI	n/a	n/a	n/a	n/a	n/a	n/a	n/a	n/a
97.3869	0.5167	FIXCROSS	n/a	n/a	n/a	n/a	n/a	n/a	n/a	n/a
97.9036	0.6833	INK	17	Incongruent	czerwony	red	niebieski	blue	hit	n/a
98.5549	n/a	RESPONSE	n/a	n/a	n/a	n/a	n/a	n/a	n/a	blue
98.5869	1.0167	ITI	n/a	n/a	n/a	n/a	n/a	n/a	n/a	n/a
99.6036	0.5167	FIXCROSS	n/a	n/a	n/a	n/a	n/a	n/a	n/a	n/a
100.1203	0.6167	INK	18	Neutral	xxxxxxx	xxxxxxx	czerwony	red	hit	n/a
100.7145	n/a	RESPONSE	n/a	n/a	n/a	n/a	n/a	n/a	n/a	red
100.737	1.0167	ITI	n/a	n/a	n/a	n/a	n/a	n/a	n/a	n/a
101.7536	0.5167	FIXCROSS	n/a	n/a	n/a	n/a	n/a	n/a	n/a	n/a
102.2703	0.5834	INK	19	Neutral	xxxxx	xxxxx	niebieski	blue	incorrect	n/a
102.826	n/a	RESPONSE	n/a	n/a	n/a	n/a	n/a	n/a	n/a	yellow
102.8537	1.0167	ITI	n/a	n/a	n/a	n/a	n/a	n/a	n/a	n/a
103.8703	0.5167	FIXCROSS	n/a	n/a	n/a	n/a	n/a	n/a	n/a	n/a
104.387	0.8	INK	20	Incongruent	niebieski	blue	czerwony	red	hit	n/a
105.1616	n/a	RESPONSE	n/a	n/a	n/a	n/a	n/a	n/a	n/a	red
105.187	1.0167	ITI	n/a	n/a	n/a	n/a	n/a	n/a	n/a	n/a
106.2037	0.5167	FIXCROSS	n/a	n/a	n/a	n/a	n/a	n/a	n/a	n/a
106.7204	0.7667	INK	21	Incongruent	zielony	green	czerwony	red	hit	n/a
107.4651	n/a	RESPONSE	n/a	n/a	n/a	n/a	n/a	n/a	n/a	red
107.4871	1.0167	ITI	n/a	n/a	n/a	n/a	n/a	n/a	n/a	n/a
108.5037	0.5167	FIXCROSS	n/a	n/a	n/a	n/a	n/a	n/a	n/a	n/a
109.0204	0.65	INK	22	Neutral	xxxxxxxxx	xxxxxxxxx	żółty	yellow	hit	n/a
109.6406	n/a	RESPONSE	n/a	n/a	n/a	n/a	n/a	n/a	n/a	yellow
109.6704	1.0167	ITI	n/a	n/a	n/a	n/a	n/a	n/a	n/a	n/a
110.6871	0.5167	FIXCROSS	n/a	n/a	n/a	n/a	n/a	n/a	n/a	n/a
111.2038	0.6	INK	23	Incongruent	żółty	yellow	niebieski	blue	hit	n/a
111.7842	n/a	RESPONSE	n/a	n/a	n/a	n/a	n/a	n/a	n/a	blue
111.8038	1.0167	ITI	n/a	n/a	n/a	n/a	n/a	n/a	n/a	n/a
112.8205	0.5167	FIXCROSS	n/a	n/a	n/a	n/a	n/a	n/a	n/a	n/a
113.3371	0.5834	INK	24	Neutral	xxxxxxxx	xxxxxxxx	niebieski	blue	hit	n/a
113.8957	n/a	RESPONSE	n/a	n/a	n/a	n/a	n/a	n/a	n/a	blue
113.9205	1.0167	ITI	n/a	n/a	n/a	n/a	n/a	n/a	n/a	n/a
114.9372	0.5167	FIXCROSS	n/a	n/a	n/a	n/a	n/a	n/a	n/a	n/a
115.4538	0.6333	INK	25	Neutral	xxxxxxx	xxxxxxx	niebieski	blue	hit	n/a
116.0553	n/a	RESPONSE	n/a	n/a	n/a	n/a	n/a	n/a	n/a	blue
116.0872	1.0167	ITI	n/a	n/a	n/a	n/a	n/a	n/a	n/a	n/a
117.1039	0.5167	FIXCROSS	n/a	n/a	n/a	n/a	n/a	n/a	n/a	n/a
117.6205	0.7833	INK	26	Incongruent	zielony	green	czerwony	red	hit	n/a
118.3748	n/a	RESPONSE	n/a	n/a	n/a	n/a	n/a	n/a	n/a	red
118.4039	1.0167	ITI	n/a	n/a	n/a	n/a	n/a	n/a	n/a	n/a
119.4206	0.5167	FIXCROSS	n/a	n/a	n/a	n/a	n/a	n/a	n/a	n/a
119.9372	0.5167	INK	27	Neutral	xxxxx	xxxxx	niebieski	blue	hit	n/a
120.4224	n/a	RESPONSE	n/a	n/a	n/a	n/a	n/a	n/a	n/a	blue
120.4539	1.0167	ITI	n/a	n/a	n/a	n/a	n/a	n/a	n/a	n/a
121.4706	0.5167	FIXCROSS	n/a	n/a	n/a	n/a	n/a	n/a	n/a	n/a
121.9873	0.7	INK	28	Neutral	xxxxx	xxxxx	niebieski	blue	hit	n/a
122.6619	n/a	RESPONSE	n/a	n/a	n/a	n/a	n/a	n/a	n/a	blue
122.6873	1.0167	ITI	n/a	n/a	n/a	n/a	n/a	n/a	n/a	n/a
123.7039	0.5167	FIXCROSS	n/a	n/a	n/a	n/a	n/a	n/a	n/a	n/a
124.2206	0.7	INK	29	Incongruent	żółty	yellow	niebieski	blue	hit	n/a
124.9015	n/a	RESPONSE	n/a	n/a	n/a	n/a	n/a	n/a	n/a	blue
124.9206	1.0167	ITI	n/a	n/a	n/a	n/a	n/a	n/a	n/a	n/a
125.9373	0.5167	FIXCROSS	n/a	n/a	n/a	n/a	n/a	n/a	n/a	n/a
126.454	0.6667	INK	30	Neutral	xxxxxxxxx	xxxxxxxxx	żółty	yellow	hit	n/a
127.093	n/a	RESPONSE	n/a	n/a	n/a	n/a	n/a	n/a	n/a	yellow
127.1207	1.0167	ITI	n/a	n/a	n/a	n/a	n/a	n/a	n/a	n/a
128.1374	0.5167	FIXCROSS	n/a	n/a	n/a	n/a	n/a	n/a	n/a	n/a
128.654	0.8	INK	31	Incongruent	niebieski	blue	żółty	yellow	hit	n/a
129.4285	n/a	RESPONSE	n/a	n/a	n/a	n/a	n/a	n/a	n/a	yellow
129.454	1.0167	ITI	n/a	n/a	n/a	n/a	n/a	n/a	n/a	n/a
130.4707	0.5167	FIXCROSS	n/a	n/a	n/a	n/a	n/a	n/a	n/a	n/a
130.9874	0.75	INK	32	Neutral	xxxxxxx	xxxxxxx	czerwony	red	hit	n/a
131.716	n/a	RESPONSE	n/a	n/a	n/a	n/a	n/a	n/a	n/a	red
131.7374	1.0167	ITI	n/a	n/a	n/a	n/a	n/a	n/a	n/a	n/a
132.7541	0.5167	FIXCROSS	n/a	n/a	n/a	n/a	n/a	n/a	n/a	n/a
133.2708	0.6333	INK	33	Incongruent	żółty	yellow	czerwony	red	hit	n/a
133.8756	n/a	RESPONSE	n/a	n/a	n/a	n/a	n/a	n/a	n/a	red
133.9041	1.0167	ITI	n/a	n/a	n/a	n/a	n/a	n/a	n/a	n/a
134.9208	0.5167	FIXCROSS	n/a	n/a	n/a	n/a	n/a	n/a	n/a	n/a
135.4374	0.5833	INK	34	Neutral	xxxxx	xxxxx	czerwony	red	hit	n/a
135.9872	n/a	RESPONSE	n/a	n/a	n/a	n/a	n/a	n/a	n/a	red
136.0208	1.0167	ITI	n/a	n/a	n/a	n/a	n/a	n/a	n/a	n/a
137.0375	0.5167	FIXCROSS	n/a	n/a	n/a	n/a	n/a	n/a	n/a	n/a
137.5541	0.6833	INK	35	Incongruent	żółty	yellow	zielony	green	hit	n/a
138.2107	n/a	RESPONSE	n/a	n/a	n/a	n/a	n/a	n/a	n/a	green
138.2375	1.0167	ITI	n/a	n/a	n/a	n/a	n/a	n/a	n/a	n/a
139.2542	0.5167	FIXCROSS	n/a	n/a	n/a	n/a	n/a	n/a	n/a	n/a
139.7708	0.6334	INK	36	Incongruent	czerwony	red	żółty	yellow	hit	n/a
140.3862	n/a	RESPONSE	n/a	n/a	n/a	n/a	n/a	n/a	n/a	yellow
140.4042	1.0167	ITI	n/a	n/a	n/a	n/a	n/a	n/a	n/a	n/a
141.4209	0.5167	FIXCROSS	n/a	n/a	n/a	n/a	n/a	n/a	n/a	n/a
141.9375	0.75	INK	37	Incongruent	żółty	yellow	czerwony	red	hit	n/a
142.6578	n/a	RESPONSE	n/a	n/a	n/a	n/a	n/a	n/a	n/a	red
142.6875	1.0167	ITI	n/a	n/a	n/a	n/a	n/a	n/a	n/a	n/a
143.7042	0.5167	FIXCROSS	n/a	n/a	n/a	n/a	n/a	n/a	n/a	n/a
144.2209	0.8833	INK	38	Incongruent	czerwony	red	zielony	green	hit	n/a
145.0733	n/a	RESPONSE	n/a	n/a	n/a	n/a	n/a	n/a	n/a	green
145.1042	1.0167	ITI	n/a	n/a	n/a	n/a	n/a	n/a	n/a	n/a
146.1209	0.5167	FIXCROSS	n/a	n/a	n/a	n/a	n/a	n/a	n/a	n/a
146.6376	0.55	INK	39	Neutral	xxxxxxx	xxxxxxx	żółty	yellow	hit	n/a
147.1689	n/a	RESPONSE	n/a	n/a	n/a	n/a	n/a	n/a	n/a	yellow
147.1876	1.0167	ITI	n/a	n/a	n/a	n/a	n/a	n/a	n/a	n/a
148.2043	0.5167	FIXCROSS	n/a	n/a	n/a	n/a	n/a	n/a	n/a	n/a
148.721	0.5833	INK	40	Neutral	xxxxx	xxxxx	zielony	green	hit	n/a
149.2804	n/a	RESPONSE	n/a	n/a	n/a	n/a	n/a	n/a	n/a	green
149.3043	1.0167	ITI	n/a	n/a	n/a	n/a	n/a	n/a	n/a	n/a
150.321	0.5167	FIXCROSS	n/a	n/a	n/a	n/a	n/a	n/a	n/a	n/a
150.8377	0.6333	INK	41	Incongruent	czerwony	red	żółty	yellow	hit	n/a
151.44	n/a	RESPONSE	n/a	n/a	n/a	n/a	n/a	n/a	n/a	yellow
151.471	1.0167	ITI	n/a	n/a	n/a	n/a	n/a	n/a	n/a	n/a
152.4877	0.5167	FIXCROSS	n/a	n/a	n/a	n/a	n/a	n/a	n/a	n/a
153.0044	0.75	INK	42	Incongruent	niebieski	blue	żółty	yellow	hit	n/a
153.7275	n/a	RESPONSE	n/a	n/a	n/a	n/a	n/a	n/a	n/a	yellow
153.7544	1.0167	ITI	n/a	n/a	n/a	n/a	n/a	n/a	n/a	n/a
154.7711	0.5167	FIXCROSS	n/a	n/a	n/a	n/a	n/a	n/a	n/a	n/a
155.2877	0.7333	INK	43	Neutral	xxxxx	xxxxx	zielony	green	hit	n/a
155.999	n/a	RESPONSE	n/a	n/a	n/a	n/a	n/a	n/a	n/a	green
156.0211	1.0167	ITI	n/a	n/a	n/a	n/a	n/a	n/a	n/a	n/a
157.0377	0.5167	FIXCROSS	n/a	n/a	n/a	n/a	n/a	n/a	n/a	n/a
157.5544	0.6333	INK	44	Neutral	xxxxxxxxx	xxxxxxxxx	czerwony	red	hit	n/a
158.1585	n/a	RESPONSE	n/a	n/a	n/a	n/a	n/a	n/a	n/a	red
158.1878	1.0167	ITI	n/a	n/a	n/a	n/a	n/a	n/a	n/a	n/a
159.2045	0.5167	FIXCROSS	n/a	n/a	n/a	n/a	n/a	n/a	n/a	n/a
159.7211	0.8	INK	45	Incongruent	niebieski	blue	zielony	green	hit	n/a
160.494	n/a	RESPONSE	n/a	n/a	n/a	n/a	n/a	n/a	n/a	green
160.5211	1.0167	ITI	n/a	n/a	n/a	n/a	n/a	n/a	n/a	n/a
161.5378	0.5167	FIXCROSS	n/a	n/a	n/a	n/a	n/a	n/a	n/a	n/a
162.0545	0.6333	INK	46	Neutral	xxxxxxxxx	xxxxxxxxx	czerwony	red	hit	n/a
162.6696	n/a	RESPONSE	n/a	n/a	n/a	n/a	n/a	n/a	n/a	red
162.6878	1.0167	ITI	n/a	n/a	n/a	n/a	n/a	n/a	n/a	n/a
163.7045	0.5167	FIXCROSS	n/a	n/a	n/a	n/a	n/a	n/a	n/a	n/a
164.2212	0.6333	INK	47	Neutral	xxxxxxxx	xxxxxxxx	żółty	yellow	hit	n/a
164.8292	n/a	RESPONSE	n/a	n/a	n/a	n/a	n/a	n/a	n/a	yellow
164.8545	1.0167	ITI	n/a	n/a	n/a	n/a	n/a	n/a	n/a	n/a
165.8712	0.5167	FIXCROSS	n/a	n/a	n/a	n/a	n/a	n/a	n/a	n/a
166.3879	0.6667	INK	48	Neutral	xxxxx	xxxxx	czerwony	red	hit	n/a
167.0207	n/a	RESPONSE	n/a	n/a	n/a	n/a	n/a	n/a	n/a	red
167.0546	1.0167	ITI	n/a	n/a	n/a	n/a	n/a	n/a	n/a	n/a
168.0712	0.5167	FIXCROSS	n/a	n/a	n/a	n/a	n/a	n/a	n/a	n/a
168.5879	0.55	INK	49	Neutral	xxxxxxxx	xxxxxxxx	niebieski	blue	hit	n/a
169.1163	n/a	RESPONSE	n/a	n/a	n/a	n/a	n/a	n/a	n/a	blue
169.1379	1.0167	ITI	n/a	n/a	n/a	n/a	n/a	n/a	n/a	n/a
170.1546	0.5167	FIXCROSS	n/a	n/a	n/a	n/a	n/a	n/a	n/a	n/a
170.6713	0.75	INK	50	Incongruent	zielony	green	niebieski	blue	hit	n/a
171.3878	n/a	RESPONSE	n/a	n/a	n/a	n/a	n/a	n/a	n/a	blue
171.4213	1.0167	ITI	n/a	n/a	n/a	n/a	n/a	n/a	n/a	n/a
172.438	0.5167	FIXCROSS	n/a	n/a	n/a	n/a	n/a	n/a	n/a	n/a
172.9546	0.6667	INK	51	Incongruent	czerwony	red	zielony	green	hit	n/a
173.5954	n/a	RESPONSE	n/a	n/a	n/a	n/a	n/a	n/a	n/a	green
173.6213	1.0167	ITI	n/a	n/a	n/a	n/a	n/a	n/a	n/a	n/a
174.638	0.5167	FIXCROSS	n/a	n/a	n/a	n/a	n/a	n/a	n/a	n/a
175.1547	0.5333	INK	52	Neutral	xxxxxxxxx	xxxxxxxxx	żółty	yellow	hit	n/a
175.6589	n/a	RESPONSE	n/a	n/a	n/a	n/a	n/a	n/a	n/a	yellow
175.688	1.0167	ITI	n/a	n/a	n/a	n/a	n/a	n/a	n/a	n/a
176.7047	0.5167	FIXCROSS	n/a	n/a	n/a	n/a	n/a	n/a	n/a	n/a
177.2214	0.7833	INK	53	Neutral	xxxxxxxx	xxxxxxxx	zielony	green	hit	n/a
177.9784	n/a	RESPONSE	n/a	n/a	n/a	n/a	n/a	n/a	n/a	green
178.0047	1.0167	ITI	n/a	n/a	n/a	n/a	n/a	n/a	n/a	n/a
179.0214	0.5167	FIXCROSS	n/a	n/a	n/a	n/a	n/a	n/a	n/a	n/a
179.5381	0.6	INK	54	Incongruent	zielony	green	żółty	yellow	hit	n/a
180.106	n/a	RESPONSE	n/a	n/a	n/a	n/a	n/a	n/a	n/a	yellow
180.1381	1.0167	ITI	n/a	n/a	n/a	n/a	n/a	n/a	n/a	n/a
181.1548	0.5167	FIXCROSS	n/a	n/a	n/a	n/a	n/a	n/a	n/a	n/a
181.6714	0.6167	INK	55	Neutral	xxxxxxx	xxxxxxx	żółty	yellow	hit	n/a
182.2656	n/a	RESPONSE	n/a	n/a	n/a	n/a	n/a	n/a	n/a	yellow
182.2881	1.0167	ITI	n/a	n/a	n/a	n/a	n/a	n/a	n/a	n/a
183.3048	0.5167	FIXCROSS	n/a	n/a	n/a	n/a	n/a	n/a	n/a	n/a
183.8214	0.7834	INK	56	Incongruent	żółty	yellow	zielony	green	hit	n/a
184.585	n/a	RESPONSE	n/a	n/a	n/a	n/a	n/a	n/a	n/a	green
184.6048	1.0167	ITI	n/a	n/a	n/a	n/a	n/a	n/a	n/a	n/a
185.6215	0.5167	FIXCROSS	n/a	n/a	n/a	n/a	n/a	n/a	n/a	n/a
186.1381	0.55	INK	57	Neutral	xxxxxxxx	xxxxxxxx	żółty	yellow	hit	n/a
186.6646	n/a	RESPONSE	n/a	n/a	n/a	n/a	n/a	n/a	n/a	yellow
186.6882	1.0167	ITI	n/a	n/a	n/a	n/a	n/a	n/a	n/a	n/a
187.7048	0.5167	FIXCROSS	n/a	n/a	n/a	n/a	n/a	n/a	n/a	n/a
188.2215	0.6167	INK	58	Neutral	xxxxxxxxx	xxxxxxxxx	zielony	green	hit	n/a
188.8082	n/a	RESPONSE	n/a	n/a	n/a	n/a	n/a	n/a	n/a	green
188.8382	1.0167	ITI	n/a	n/a	n/a	n/a	n/a	n/a	n/a	n/a
189.8549	0.5167	FIXCROSS	n/a	n/a	n/a	n/a	n/a	n/a	n/a	n/a
190.3715	0.7	INK	59	Incongruent	czerwony	red	zielony	green	hit	n/a
191.0477	n/a	RESPONSE	n/a	n/a	n/a	n/a	n/a	n/a	n/a	green
191.0715	1.0167	ITI	n/a	n/a	n/a	n/a	n/a	n/a	n/a	n/a
192.0882	0.5167	FIXCROSS	n/a	n/a	n/a	n/a	n/a	n/a	n/a	n/a
192.6049	1.3334	INK	60	Incongruent	żółty	yellow	niebieski	blue	hit	n/a
193.9111	n/a	RESPONSE	n/a	n/a	n/a	n/a	n/a	n/a	n/a	blue
193.9383	1.0167	ITI	n/a	n/a	n/a	n/a	n/a	n/a	n/a	n/a
194.9549	0.5167	FIXCROSS	n/a	n/a	n/a	n/a	n/a	n/a	n/a	n/a
195.4716	0.5667	INK	61	Incongruent	czerwony	red	żółty	yellow	hit	n/a
196.0066	n/a	RESPONSE	n/a	n/a	n/a	n/a	n/a	n/a	n/a	yellow
196.0383	1.0167	ITI	n/a	n/a	n/a	n/a	n/a	n/a	n/a	n/a
197.055	0.5167	FIXCROSS	n/a	n/a	n/a	n/a	n/a	n/a	n/a	n/a
197.5716	0.75	INK	62	Neutral	xxxxxxxx	xxxxxxxx	zielony	green	hit	n/a
198.2942	n/a	RESPONSE	n/a	n/a	n/a	n/a	n/a	n/a	n/a	green
198.3216	1.0167	ITI	n/a	n/a	n/a	n/a	n/a	n/a	n/a	n/a
199.3383	0.5167	FIXCROSS	n/a	n/a	n/a	n/a	n/a	n/a	n/a	n/a
199.855	1.1167	INK	63	Incongruent	niebieski	blue	czerwony	red	hit	n/a
200.9497	n/a	RESPONSE	n/a	n/a	n/a	n/a	n/a	n/a	n/a	red
200.9717	1.0167	ITI	n/a	n/a	n/a	n/a	n/a	n/a	n/a	n/a
201.9884	0.5167	FIXCROSS	n/a	n/a	n/a	n/a	n/a	n/a	n/a	n/a
202.505	0.5333	INK	64	Neutral	xxxxxxx	xxxxxxx	żółty	yellow	hit	n/a
203.0132	n/a	RESPONSE	n/a	n/a	n/a	n/a	n/a	n/a	n/a	yellow
203.0384	1.0167	ITI	n/a	n/a	n/a	n/a	n/a	n/a	n/a	n/a
204.0551	0.5167	FIXCROSS	n/a	n/a	n/a	n/a	n/a	n/a	n/a	n/a
204.5717	0.9834	INK	65	Neutral	xxxxx	xxxxx	zielony	green	hit	n/a
205.5247	n/a	RESPONSE	n/a	n/a	n/a	n/a	n/a	n/a	n/a	green
205.5551	1.0167	ITI	n/a	n/a	n/a	n/a	n/a	n/a	n/a	n/a
206.5718	0.5167	FIXCROSS	n/a	n/a	n/a	n/a	n/a	n/a	n/a	n/a
207.0884	0.7	INK	66	Incongruent	niebieski	blue	czerwony	red	hit	n/a
207.7643	n/a	RESPONSE	n/a	n/a	n/a	n/a	n/a	n/a	n/a	red
207.7885	1.0167	ITI	n/a	n/a	n/a	n/a	n/a	n/a	n/a	n/a
208.8051	0.5167	FIXCROSS	n/a	n/a	n/a	n/a	n/a	n/a	n/a	n/a
209.3218	0.5333	INK	67	Incongruent	niebieski	blue	żółty	yellow	hit	n/a
209.8278	n/a	RESPONSE	n/a	n/a	n/a	n/a	n/a	n/a	n/a	yellow
209.8551	1.0167	ITI	n/a	n/a	n/a	n/a	n/a	n/a	n/a	n/a
210.8718	0.5167	FIXCROSS	n/a	n/a	n/a	n/a	n/a	n/a	n/a	n/a
211.3885	0.5333	INK	68	Incongruent	zielony	green	niebieski	blue	hit	n/a
211.8914	n/a	RESPONSE	n/a	n/a	n/a	n/a	n/a	n/a	n/a	blue
211.9218	1.0167	ITI	n/a	n/a	n/a	n/a	n/a	n/a	n/a	n/a
212.9385	0.5167	FIXCROSS	n/a	n/a	n/a	n/a	n/a	n/a	n/a	n/a
213.4552	0.75	INK	69	Neutral	xxxxxxxxx	xxxxxxxxx	zielony	green	hit	n/a
214.1789	n/a	RESPONSE	n/a	n/a	n/a	n/a	n/a	n/a	n/a	green
214.2052	1.0167	ITI	n/a	n/a	n/a	n/a	n/a	n/a	n/a	n/a
215.2219	0.5167	FIXCROSS	n/a	n/a	n/a	n/a	n/a	n/a	n/a	n/a
215.7386	0.65	INK	70	Neutral	xxxxxxxx	xxxxxxxx	niebieski	blue	hit	n/a
216.3704	n/a	RESPONSE	n/a	n/a	n/a	n/a	n/a	n/a	n/a	blue
216.3886	1.0167	ITI	n/a	n/a	n/a	n/a	n/a	n/a	n/a	n/a
217.4052	0.5167	FIXCROSS	n/a	n/a	n/a	n/a	n/a	n/a	n/a	n/a
217.9219	0.8333	INK	71	Incongruent	żółty	yellow	zielony	green	hit	n/a
218.722	n/a	RESPONSE	n/a	n/a	n/a	n/a	n/a	n/a	n/a	green
218.7553	1.0167	ITI	n/a	n/a	n/a	n/a	n/a	n/a	n/a	n/a
219.7719	0.5167	FIXCROSS	n/a	n/a	n/a	n/a	n/a	n/a	n/a	n/a
220.2886	0.65	INK	72	Neutral	xxxxxxxxx	xxxxxxxxx	czerwony	red	hit	n/a
220.9135	n/a	RESPONSE	n/a	n/a	n/a	n/a	n/a	n/a	n/a	red
220.9386	1.0833	ITI	n/a	n/a	n/a	n/a	n/a	n/a	n/a	n/a
236.3343	n/a	RESPONSE	n/a	n/a	n/a	n/a	n/a	n/a	n/a	n/a
236.3888	1.0167	ITI	n/a	n/a	n/a	n/a	n/a	n/a	n/a	n/a
237.4055	0.5167	FIXCROSS	n/a	n/a	n/a	n/a	n/a	n/a	n/a	n/a
237.9222	1.0167	T_COLOR_NAME	1	Incongruent	zielony	green	niebieski	blue	hit	n/a
238.9098	n/a	RESPONSE	n/a	n/a	n/a	n/a	n/a	n/a	n/a	green
238.9389	0.5167	FEEDBACK	n/a	n/a	n/a	n/a	n/a	n/a	n/a	n/a
239.4555	1.0167	ITI	n/a	n/a	n/a	n/a	n/a	n/a	n/a	n/a
240.4722	0.5167	FIXCROSS	n/a	n/a	n/a	n/a	n/a	n/a	n/a	n/a
240.9889	0.6	T_COLOR_NAME	2	Neutral	zielony	green	Neutral	Neutral	hit	n/a
241.5652	n/a	RESPONSE	n/a	n/a	n/a	n/a	n/a	n/a	n/a	green
241.5889	0.5167	FEEDBACK	n/a	n/a	n/a	n/a	n/a	n/a	n/a	n/a
242.1056	1.0167	ITI	n/a	n/a	n/a	n/a	n/a	n/a	n/a	n/a
243.1223	0.5167	FIXCROSS	n/a	n/a	n/a	n/a	n/a	n/a	n/a	n/a
243.6389	0.7333	T_COLOR_NAME	3	Neutral	żółty	yellow	Neutral	Neutral	hit	n/a
244.3486	n/a	RESPONSE	n/a	n/a	n/a	n/a	n/a	n/a	n/a	yellow
244.3723	0.5167	FEEDBACK	n/a	n/a	n/a	n/a	n/a	n/a	n/a	n/a
244.8889	1.0167	ITI	n/a	n/a	n/a	n/a	n/a	n/a	n/a	n/a
245.9056	0.5167	FIXCROSS	n/a	n/a	n/a	n/a	n/a	n/a	n/a	n/a
246.4223	0.7	T_COLOR_NAME	4	Neutral	żółty	yellow	Neutral	Neutral	hit	n/a
247.1001	n/a	RESPONSE	n/a	n/a	n/a	n/a	n/a	n/a	n/a	yellow
247.1223	0.5167	FEEDBACK	n/a	n/a	n/a	n/a	n/a	n/a	n/a	n/a
247.639	1.0167	ITI	n/a	n/a	n/a	n/a	n/a	n/a	n/a	n/a
248.6557	0.5167	FIXCROSS	n/a	n/a	n/a	n/a	n/a	n/a	n/a	n/a
249.1723	0.8167	T_COLOR_NAME	5	Incongruent	czerwony	red	niebieski	blue	hit	n/a
249.9635	n/a	RESPONSE	n/a	n/a	n/a	n/a	n/a	n/a	n/a	red
249.989	0.5167	FEEDBACK	n/a	n/a	n/a	n/a	n/a	n/a	n/a	n/a
250.5057	1.0167	ITI	n/a	n/a	n/a	n/a	n/a	n/a	n/a	n/a
251.5224	0.5167	FIXCROSS	n/a	n/a	n/a	n/a	n/a	n/a	n/a	n/a
252.0391	0.9667	T_COLOR_NAME	6	Incongruent	niebieski	blue	żółty	yellow	hit	n/a
252.9868	n/a	RESPONSE	n/a	n/a	n/a	n/a	n/a	n/a	n/a	blue
253.0057	0.5167	FEEDBACK	n/a	n/a	n/a	n/a	n/a	n/a	n/a	n/a
253.5224	1.0167	ITI	n/a	n/a	n/a	n/a	n/a	n/a	n/a	n/a
254.5391	0.5167	FIXCROSS	n/a	n/a	n/a	n/a	n/a	n/a	n/a	n/a
255.0558	0.8334	T_COLOR_NAME	7	Incongruent	zielony	green	czerwony	red	hit	n/a
255.8663	n/a	RESPONSE	n/a	n/a	n/a	n/a	n/a	n/a	n/a	green
255.8891	0.5167	FEEDBACK	n/a	n/a	n/a	n/a	n/a	n/a	n/a	n/a
256.4058	1.0167	ITI	n/a	n/a	n/a	n/a	n/a	n/a	n/a	n/a
257.4225	0.5167	FIXCROSS	n/a	n/a	n/a	n/a	n/a	n/a	n/a	n/a
257.9391	0.85	T_COLOR_NAME	8	Incongruent	zielony	green	żółty	yellow	hit	n/a
258.7617	n/a	RESPONSE	n/a	n/a	n/a	n/a	n/a	n/a	n/a	green
258.7891	0.5167	FEEDBACK	n/a	n/a	n/a	n/a	n/a	n/a	n/a	n/a
259.3058	1.0167	ITI	n/a	n/a	n/a	n/a	n/a	n/a	n/a	n/a
260.3225	0.5167	FIXCROSS	n/a	n/a	n/a	n/a	n/a	n/a	n/a	n/a
260.8392	0.6834	T_COLOR_NAME	9	Neutral	niebieski	blue	Neutral	Neutral	hit	n/a
261.4971	n/a	RESPONSE	n/a	n/a	n/a	n/a	n/a	n/a	n/a	blue
261.5225	0.5167	FEEDBACK	n/a	n/a	n/a	n/a	n/a	n/a	n/a	n/a
262.0392	1.0167	ITI	n/a	n/a	n/a	n/a	n/a	n/a	n/a	n/a
263.0559	0.5167	FIXCROSS	n/a	n/a	n/a	n/a	n/a	n/a	n/a	n/a
263.5725	0.7	T_COLOR_NAME	10	Neutral	czerwony	red	Neutral	Neutral	hit	n/a
264.2485	n/a	RESPONSE	n/a	n/a	n/a	n/a	n/a	n/a	n/a	red
264.2726	0.5167	FEEDBACK	n/a	n/a	n/a	n/a	n/a	n/a	n/a	n/a
264.7892	1.0167	ITI	n/a	n/a	n/a	n/a	n/a	n/a	n/a	n/a
265.8059	0.5167	FIXCROSS	n/a	n/a	n/a	n/a	n/a	n/a	n/a	n/a
266.3226	1.0	T_COLOR_NAME	11	Neutral	żółty	yellow	Neutral	Neutral	hit	n/a
267.2879	n/a	RESPONSE	n/a	n/a	n/a	n/a	n/a	n/a	n/a	yellow
267.3226	0.5167	FEEDBACK	n/a	n/a	n/a	n/a	n/a	n/a	n/a	n/a
267.8393	1.0167	ITI	n/a	n/a	n/a	n/a	n/a	n/a	n/a	n/a
268.856	0.5167	FIXCROSS	n/a	n/a	n/a	n/a	n/a	n/a	n/a	n/a
269.3726	0.8667	T_COLOR_NAME	12	Neutral	czerwony	red	Neutral	Neutral	hit	n/a
270.2153	n/a	RESPONSE	n/a	n/a	n/a	n/a	n/a	n/a	n/a	red
270.2393	0.5167	FEEDBACK	n/a	n/a	n/a	n/a	n/a	n/a	n/a	n/a
270.756	1.0334	ITI	n/a	n/a	n/a	n/a	n/a	n/a	n/a	n/a
273.6066	n/a	RESPONSE	n/a	n/a	n/a	n/a	n/a	n/a	n/a	n/a
273.6727	1.0167	ITI	n/a	n/a	n/a	n/a	n/a	n/a	n/a	n/a
274.6894	0.5167	FIXCROSS	n/a	n/a	n/a	n/a	n/a	n/a	n/a	n/a
275.206	0.8333	COLOR_NAME	1	Incongruent	niebieski	blue	czerwony	red	hit	n/a
276.0221	n/a	RESPONSE	n/a	n/a	n/a	n/a	n/a	n/a	n/a	blue
276.0394	1.0167	ITI	n/a	n/a	n/a	n/a	n/a	n/a	n/a	n/a
277.0561	0.5167	FIXCROSS	n/a	n/a	n/a	n/a	n/a	n/a	n/a	n/a
277.5727	0.7833	COLOR_NAME	2	Incongruent	niebieski	blue	czerwony	red	hit	n/a
278.3246	n/a	RESPONSE	n/a	n/a	n/a	n/a	n/a	n/a	n/a	blue
278.3561	1.0167	ITI	n/a	n/a	n/a	n/a	n/a	n/a	n/a	n/a
279.3728	0.5167	FIXCROSS	n/a	n/a	n/a	n/a	n/a	n/a	n/a	n/a
279.8894	0.65	COLOR_NAME	3	Neutral	zielony	green	Neutral	Neutral	hit	n/a
280.5171	n/a	RESPONSE	n/a	n/a	n/a	n/a	n/a	n/a	n/a	green
280.5394	1.0167	ITI	n/a	n/a	n/a	n/a	n/a	n/a	n/a	n/a
281.5561	0.5167	FIXCROSS	n/a	n/a	n/a	n/a	n/a	n/a	n/a	n/a
282.0728	0.6834	COLOR_NAME	4	Neutral	czerwony	red	Neutral	Neutral	hit	n/a
282.7247	n/a	RESPONSE	n/a	n/a	n/a	n/a	n/a	n/a	n/a	red
282.7561	1.0167	ITI	n/a	n/a	n/a	n/a	n/a	n/a	n/a	n/a
283.7728	0.5167	FIXCROSS	n/a	n/a	n/a	n/a	n/a	n/a	n/a	n/a
284.2895	0.7667	COLOR_NAME	5	Incongruent	zielony	green	czerwony	red	hit	n/a
285.0282	n/a	RESPONSE	n/a	n/a	n/a	n/a	n/a	n/a	n/a	green
285.0562	1.0167	ITI	n/a	n/a	n/a	n/a	n/a	n/a	n/a	n/a
286.0728	0.5167	FIXCROSS	n/a	n/a	n/a	n/a	n/a	n/a	n/a	n/a
286.5895	1.0667	COLOR_NAME	6	Incongruent	czerwony	red	zielony	green	hit	n/a
287.6357	n/a	RESPONSE	n/a	n/a	n/a	n/a	n/a	n/a	n/a	red
287.6562	1.0167	ITI	n/a	n/a	n/a	n/a	n/a	n/a	n/a	n/a
288.6729	0.5167	FIXCROSS	n/a	n/a	n/a	n/a	n/a	n/a	n/a	n/a
289.1896	0.7333	COLOR_NAME	7	Neutral	zielony	green	Neutral	Neutral	hit	n/a
289.8912	n/a	RESPONSE	n/a	n/a	n/a	n/a	n/a	n/a	n/a	green
289.9229	1.0167	ITI	n/a	n/a	n/a	n/a	n/a	n/a	n/a	n/a
290.9396	0.5167	FIXCROSS	n/a	n/a	n/a	n/a	n/a	n/a	n/a	n/a
291.4563	0.6333	COLOR_NAME	8	Incongruent	zielony	green	żółty	yellow	hit	n/a
292.0667	n/a	RESPONSE	n/a	n/a	n/a	n/a	n/a	n/a	n/a	green
292.0896	1.0167	ITI	n/a	n/a	n/a	n/a	n/a	n/a	n/a	n/a
293.1063	0.5167	FIXCROSS	n/a	n/a	n/a	n/a	n/a	n/a	n/a	n/a
293.623	0.7	COLOR_NAME	9	Neutral	niebieski	blue	Neutral	Neutral	hit	n/a
294.2903	n/a	RESPONSE	n/a	n/a	n/a	n/a	n/a	n/a	n/a	blue
294.323	1.0167	ITI	n/a	n/a	n/a	n/a	n/a	n/a	n/a	n/a
295.3396	0.5167	FIXCROSS	n/a	n/a	n/a	n/a	n/a	n/a	n/a	n/a
295.8563	0.7167	COLOR_NAME	10	Neutral	zielony	green	Neutral	Neutral	hit	n/a
296.5458	n/a	RESPONSE	n/a	n/a	n/a	n/a	n/a	n/a	n/a	green
296.573	1.0167	ITI	n/a	n/a	n/a	n/a	n/a	n/a	n/a	n/a
297.5897	0.5167	FIXCROSS	n/a	n/a	n/a	n/a	n/a	n/a	n/a	n/a
298.1064	0.7333	COLOR_NAME	11	Incongruent	niebieski	blue	żółty	yellow	hit	n/a
298.8173	n/a	RESPONSE	n/a	n/a	n/a	n/a	n/a	n/a	n/a	blue
298.8397	1.0167	ITI	n/a	n/a	n/a	n/a	n/a	n/a	n/a	n/a
299.8564	0.5167	FIXCROSS	n/a	n/a	n/a	n/a	n/a	n/a	n/a	n/a
300.373	0.6	COLOR_NAME	12	Neutral	żółty	yellow	Neutral	Neutral	hit	n/a
300.9449	n/a	RESPONSE	n/a	n/a	n/a	n/a	n/a	n/a	n/a	yellow
300.9731	1.0167	ITI	n/a	n/a	n/a	n/a	n/a	n/a	n/a	n/a
301.9897	0.5167	FIXCROSS	n/a	n/a	n/a	n/a	n/a	n/a	n/a	n/a
302.5064	0.8167	COLOR_NAME	13	Incongruent	czerwony	red	żółty	yellow	hit	n/a
303.2964	n/a	RESPONSE	n/a	n/a	n/a	n/a	n/a	n/a	n/a	red
303.3231	1.0167	ITI	n/a	n/a	n/a	n/a	n/a	n/a	n/a	n/a
304.3398	0.5167	FIXCROSS	n/a	n/a	n/a	n/a	n/a	n/a	n/a	n/a
304.8564	0.65	COLOR_NAME	14	Incongruent	czerwony	red	niebieski	blue	hit	n/a
305.4719	n/a	RESPONSE	n/a	n/a	n/a	n/a	n/a	n/a	n/a	red
305.5065	1.0167	ITI	n/a	n/a	n/a	n/a	n/a	n/a	n/a	n/a
306.5231	0.5167	FIXCROSS	n/a	n/a	n/a	n/a	n/a	n/a	n/a	n/a
307.0398	0.8334	COLOR_NAME	15	Neutral	żółty	yellow	Neutral	Neutral	hit	n/a
307.8395	n/a	RESPONSE	n/a	n/a	n/a	n/a	n/a	n/a	n/a	yellow
307.8732	1.0167	ITI	n/a	n/a	n/a	n/a	n/a	n/a	n/a	n/a
308.8898	0.5167	FIXCROSS	n/a	n/a	n/a	n/a	n/a	n/a	n/a	n/a
309.4065	0.8833	COLOR_NAME	16	Incongruent	niebieski	blue	zielony	green	hit	n/a
310.2709	n/a	RESPONSE	n/a	n/a	n/a	n/a	n/a	n/a	n/a	blue
310.2898	1.0167	ITI	n/a	n/a	n/a	n/a	n/a	n/a	n/a	n/a
311.3065	0.5167	FIXCROSS	n/a	n/a	n/a	n/a	n/a	n/a	n/a	n/a
311.8232	0.7167	COLOR_NAME	17	Neutral	żółty	yellow	Neutral	Neutral	hit	n/a
312.5105	n/a	RESPONSE	n/a	n/a	n/a	n/a	n/a	n/a	n/a	yellow
312.5399	1.0167	ITI	n/a	n/a	n/a	n/a	n/a	n/a	n/a	n/a
313.5566	0.5167	FIXCROSS	n/a	n/a	n/a	n/a	n/a	n/a	n/a	n/a
314.0732	0.65	COLOR_NAME	18	Incongruent	czerwony	red	żółty	yellow	hit	n/a
314.702	n/a	RESPONSE	n/a	n/a	n/a	n/a	n/a	n/a	n/a	red
314.7232	1.0167	ITI	n/a	n/a	n/a	n/a	n/a	n/a	n/a	n/a
315.7399	0.5167	FIXCROSS	n/a	n/a	n/a	n/a	n/a	n/a	n/a	n/a
316.2566	0.6333	COLOR_NAME	19	Neutral	niebieski	blue	Neutral	Neutral	hit	n/a
316.8615	n/a	RESPONSE	n/a	n/a	n/a	n/a	n/a	n/a	n/a	blue
316.8899	1.0167	ITI	n/a	n/a	n/a	n/a	n/a	n/a	n/a	n/a
317.9066	0.5167	FIXCROSS	n/a	n/a	n/a	n/a	n/a	n/a	n/a	n/a
318.4233	0.65	COLOR_NAME	20	Neutral	czerwony	red	Neutral	Neutral	hit	n/a
319.0531	n/a	RESPONSE	n/a	n/a	n/a	n/a	n/a	n/a	n/a	red
319.0733	1.0167	ITI	n/a	n/a	n/a	n/a	n/a	n/a	n/a	n/a
320.09	0.5167	FIXCROSS	n/a	n/a	n/a	n/a	n/a	n/a	n/a	n/a
320.6067	0.5	COLOR_NAME	21	Neutral	zielony	green	Neutral	Neutral	hit	n/a
321.0847	n/a	RESPONSE	n/a	n/a	n/a	n/a	n/a	n/a	n/a	green
321.1067	1.0167	ITI	n/a	n/a	n/a	n/a	n/a	n/a	n/a	n/a
322.1233	0.5167	FIXCROSS	n/a	n/a	n/a	n/a	n/a	n/a	n/a	n/a
322.64	0.9667	COLOR_NAME	22	Incongruent	niebieski	blue	zielony	green	hit	n/a
323.5802	n/a	RESPONSE	n/a	n/a	n/a	n/a	n/a	n/a	n/a	blue
323.6067	1.0167	ITI	n/a	n/a	n/a	n/a	n/a	n/a	n/a	n/a
324.6234	0.5167	FIXCROSS	n/a	n/a	n/a	n/a	n/a	n/a	n/a	n/a
325.1401	0.7333	COLOR_NAME	23	Incongruent	żółty	yellow	zielony	green	hit	n/a
325.8517	n/a	RESPONSE	n/a	n/a	n/a	n/a	n/a	n/a	n/a	yellow
325.8734	1.0167	ITI	n/a	n/a	n/a	n/a	n/a	n/a	n/a	n/a
326.8901	0.5167	FIXCROSS	n/a	n/a	n/a	n/a	n/a	n/a	n/a	n/a
327.4068	0.6833	COLOR_NAME	24	Neutral	czerwony	red	Neutral	Neutral	hit	n/a
328.0593	n/a	RESPONSE	n/a	n/a	n/a	n/a	n/a	n/a	n/a	red
328.0901	1.0167	ITI	n/a	n/a	n/a	n/a	n/a	n/a	n/a	n/a
329.1068	0.5167	FIXCROSS	n/a	n/a	n/a	n/a	n/a	n/a	n/a	n/a
329.6234	0.75	COLOR_NAME	25	Neutral	czerwony	red	Neutral	Neutral	hit	n/a
330.3468	n/a	RESPONSE	n/a	n/a	n/a	n/a	n/a	n/a	n/a	red
330.3735	1.0167	ITI	n/a	n/a	n/a	n/a	n/a	n/a	n/a	n/a
331.3901	0.5167	FIXCROSS	n/a	n/a	n/a	n/a	n/a	n/a	n/a	n/a
331.9068	0.7667	COLOR_NAME	26	Incongruent	zielony	green	żółty	yellow	hit	n/a
332.6503	n/a	RESPONSE	n/a	n/a	n/a	n/a	n/a	n/a	n/a	green
332.6735	1.0167	ITI	n/a	n/a	n/a	n/a	n/a	n/a	n/a	n/a
333.6902	0.5167	FIXCROSS	n/a	n/a	n/a	n/a	n/a	n/a	n/a	n/a
334.2068	0.7	COLOR_NAME	27	Incongruent	zielony	green	niebieski	blue	hit	n/a
334.8738	n/a	RESPONSE	n/a	n/a	n/a	n/a	n/a	n/a	n/a	green
334.9069	1.0167	ITI	n/a	n/a	n/a	n/a	n/a	n/a	n/a	n/a
335.9235	0.5167	FIXCROSS	n/a	n/a	n/a	n/a	n/a	n/a	n/a	n/a
336.4402	0.8	COLOR_NAME	28	Incongruent	czerwony	red	zielony	green	hit	n/a
337.2094	n/a	RESPONSE	n/a	n/a	n/a	n/a	n/a	n/a	n/a	red
337.2402	1.0167	ITI	n/a	n/a	n/a	n/a	n/a	n/a	n/a	n/a
338.2569	0.5167	FIXCROSS	n/a	n/a	n/a	n/a	n/a	n/a	n/a	n/a
338.7736	0.8667	COLOR_NAME	29	Incongruent	czerwony	red	niebieski	blue	hit	n/a
339.6088	n/a	RESPONSE	n/a	n/a	n/a	n/a	n/a	n/a	n/a	red
339.6403	1.0167	ITI	n/a	n/a	n/a	n/a	n/a	n/a	n/a	n/a
340.6569	0.5167	FIXCROSS	n/a	n/a	n/a	n/a	n/a	n/a	n/a	n/a
341.1736	1.0	COLOR_NAME	30	Neutral	czerwony	red	Neutral	Neutral	hit	n/a
342.1523	n/a	RESPONSE	n/a	n/a	n/a	n/a	n/a	n/a	n/a	red
342.1736	1.0167	ITI	n/a	n/a	n/a	n/a	n/a	n/a	n/a	n/a
343.1903	0.5167	FIXCROSS	n/a	n/a	n/a	n/a	n/a	n/a	n/a	n/a
343.707	0.6667	COLOR_NAME	31	Incongruent	żółty	yellow	zielony	green	hit	n/a
344.3439	n/a	RESPONSE	n/a	n/a	n/a	n/a	n/a	n/a	n/a	yellow
344.3737	1.0167	ITI	n/a	n/a	n/a	n/a	n/a	n/a	n/a	n/a
345.3903	0.5167	FIXCROSS	n/a	n/a	n/a	n/a	n/a	n/a	n/a	n/a
345.907	0.6667	COLOR_NAME	32	Incongruent	żółty	yellow	niebieski	blue	hit	n/a
346.5514	n/a	RESPONSE	n/a	n/a	n/a	n/a	n/a	n/a	n/a	yellow
346.5737	1.0167	ITI	n/a	n/a	n/a	n/a	n/a	n/a	n/a	n/a
347.5904	0.5167	FIXCROSS	n/a	n/a	n/a	n/a	n/a	n/a	n/a	n/a
348.107	0.55	COLOR_NAME	33	Neutral	żółty	yellow	Neutral	Neutral	hit	n/a
348.631	n/a	RESPONSE	n/a	n/a	n/a	n/a	n/a	n/a	n/a	yellow
348.657	1.0167	ITI	n/a	n/a	n/a	n/a	n/a	n/a	n/a	n/a
349.6737	0.5167	FIXCROSS	n/a	n/a	n/a	n/a	n/a	n/a	n/a	n/a
350.1904	0.65	COLOR_NAME	34	Neutral	niebieski	blue	Neutral	Neutral	hit	n/a
350.8225	n/a	RESPONSE	n/a	n/a	n/a	n/a	n/a	n/a	n/a	blue
350.8404	1.0167	ITI	n/a	n/a	n/a	n/a	n/a	n/a	n/a	n/a
351.8571	0.5167	FIXCROSS	n/a	n/a	n/a	n/a	n/a	n/a	n/a	n/a
352.3738	0.6667	COLOR_NAME	35	Neutral	niebieski	blue	Neutral	Neutral	hit	n/a
353.0141	n/a	RESPONSE	n/a	n/a	n/a	n/a	n/a	n/a	n/a	blue
353.0404	1.0167	ITI	n/a	n/a	n/a	n/a	n/a	n/a	n/a	n/a
354.0571	0.5167	FIXCROSS	n/a	n/a	n/a	n/a	n/a	n/a	n/a	n/a
354.5738	0.5167	COLOR_NAME	36	Neutral	niebieski	blue	Neutral	Neutral	hit	n/a
355.0616	n/a	RESPONSE	n/a	n/a	n/a	n/a	n/a	n/a	n/a	blue
355.0905	1.0167	ITI	n/a	n/a	n/a	n/a	n/a	n/a	n/a	n/a
356.1071	0.5167	FIXCROSS	n/a	n/a	n/a	n/a	n/a	n/a	n/a	n/a
356.6238	0.5167	COLOR_NAME	37	Neutral	niebieski	blue	Neutral	Neutral	hit	n/a
357.1092	n/a	RESPONSE	n/a	n/a	n/a	n/a	n/a	n/a	n/a	blue
357.1405	1.0167	ITI	n/a	n/a	n/a	n/a	n/a	n/a	n/a	n/a
358.1572	0.5167	FIXCROSS	n/a	n/a	n/a	n/a	n/a	n/a	n/a	n/a
358.6738	0.5333	COLOR_NAME	38	Incongruent	żółty	yellow	niebieski	blue	hit	n/a
359.1888	n/a	RESPONSE	n/a	n/a	n/a	n/a	n/a	n/a	n/a	yellow
359.2072	1.0167	ITI	n/a	n/a	n/a	n/a	n/a	n/a	n/a	n/a
360.2239	0.5167	FIXCROSS	n/a	n/a	n/a	n/a	n/a	n/a	n/a	n/a
360.7405	0.8333	COLOR_NAME	39	Neutral	niebieski	blue	Neutral	Neutral	hit	n/a
361.5563	n/a	RESPONSE	n/a	n/a	n/a	n/a	n/a	n/a	n/a	blue
361.5739	1.0167	ITI	n/a	n/a	n/a	n/a	n/a	n/a	n/a	n/a
362.5906	0.5167	FIXCROSS	n/a	n/a	n/a	n/a	n/a	n/a	n/a	n/a
363.1072	0.9167	COLOR_NAME	40	Incongruent	zielony	green	czerwony	red	hit	n/a
364.0038	n/a	RESPONSE	n/a	n/a	n/a	n/a	n/a	n/a	n/a	green
364.0239	1.0167	ITI	n/a	n/a	n/a	n/a	n/a	n/a	n/a	n/a
365.0406	0.5167	FIXCROSS	n/a	n/a	n/a	n/a	n/a	n/a	n/a	n/a
365.5573	0.5834	COLOR_NAME	41	Incongruent	zielony	green	żółty	yellow	incorrect	n/a
366.1153	n/a	RESPONSE	n/a	n/a	n/a	n/a	n/a	n/a	n/a	yellow
366.1406	1.0167	ITI	n/a	n/a	n/a	n/a	n/a	n/a	n/a	n/a
367.1573	0.5167	FIXCROSS	n/a	n/a	n/a	n/a	n/a	n/a	n/a	n/a
367.674	0.6667	COLOR_NAME	42	Neutral	czerwony	red	Neutral	Neutral	hit	n/a
368.3229	n/a	RESPONSE	n/a	n/a	n/a	n/a	n/a	n/a	n/a	red
368.3406	1.0167	ITI	n/a	n/a	n/a	n/a	n/a	n/a	n/a	n/a
369.3573	0.5167	FIXCROSS	n/a	n/a	n/a	n/a	n/a	n/a	n/a	n/a
369.874	0.6833	COLOR_NAME	43	Neutral	żółty	yellow	Neutral	Neutral	hit	n/a
370.5304	n/a	RESPONSE	n/a	n/a	n/a	n/a	n/a	n/a	n/a	yellow
370.5573	1.0167	ITI	n/a	n/a	n/a	n/a	n/a	n/a	n/a	n/a
371.574	0.5167	FIXCROSS	n/a	n/a	n/a	n/a	n/a	n/a	n/a	n/a
372.0907	0.6834	COLOR_NAME	44	Incongruent	niebieski	blue	czerwony	red	hit	n/a
372.754	n/a	RESPONSE	n/a	n/a	n/a	n/a	n/a	n/a	n/a	blue
372.774	1.0167	ITI	n/a	n/a	n/a	n/a	n/a	n/a	n/a	n/a
373.7907	0.5167	FIXCROSS	n/a	n/a	n/a	n/a	n/a	n/a	n/a	n/a
374.3074	0.9167	COLOR_NAME	45	Neutral	zielony	green	Neutral	Neutral	hit	n/a
375.2015	n/a	RESPONSE	n/a	n/a	n/a	n/a	n/a	n/a	n/a	green
375.2241	1.0167	ITI	n/a	n/a	n/a	n/a	n/a	n/a	n/a	n/a
376.2407	0.5167	FIXCROSS	n/a	n/a	n/a	n/a	n/a	n/a	n/a	n/a
376.7574	0.7333	COLOR_NAME	46	Incongruent	żółty	yellow	zielony	green	hit	n/a
377.457	n/a	RESPONSE	n/a	n/a	n/a	n/a	n/a	n/a	n/a	yellow
377.4908	1.0167	ITI	n/a	n/a	n/a	n/a	n/a	n/a	n/a	n/a
378.5075	0.5167	FIXCROSS	n/a	n/a	n/a	n/a	n/a	n/a	n/a	n/a
379.0241	0.8333	COLOR_NAME	47	Incongruent	zielony	green	niebieski	blue	hit	n/a
379.8245	n/a	RESPONSE	n/a	n/a	n/a	n/a	n/a	n/a	n/a	green
379.8575	1.0167	ITI	n/a	n/a	n/a	n/a	n/a	n/a	n/a	n/a
380.8741	0.5167	FIXCROSS	n/a	n/a	n/a	n/a	n/a	n/a	n/a	n/a
381.3908	0.7333	COLOR_NAME	48	Incongruent	żółty	yellow	niebieski	blue	hit	n/a
382.096	n/a	RESPONSE	n/a	n/a	n/a	n/a	n/a	n/a	n/a	yellow
382.1242	1.0167	ITI	n/a	n/a	n/a	n/a	n/a	n/a	n/a	n/a
383.1408	0.5167	FIXCROSS	n/a	n/a	n/a	n/a	n/a	n/a	n/a	n/a
383.6575	0.6333	COLOR_NAME	49	Neutral	żółty	yellow	Neutral	Neutral	hit	n/a
384.2716	n/a	RESPONSE	n/a	n/a	n/a	n/a	n/a	n/a	n/a	yellow
384.2909	1.0167	ITI	n/a	n/a	n/a	n/a	n/a	n/a	n/a	n/a
385.3075	0.5167	FIXCROSS	n/a	n/a	n/a	n/a	n/a	n/a	n/a	n/a
385.8242	0.6667	COLOR_NAME	50	Incongruent	zielony	green	niebieski	blue	hit	n/a
386.4631	n/a	RESPONSE	n/a	n/a	n/a	n/a	n/a	n/a	n/a	green
386.4909	1.0167	ITI	n/a	n/a	n/a	n/a	n/a	n/a	n/a	n/a
387.5076	0.5167	FIXCROSS	n/a	n/a	n/a	n/a	n/a	n/a	n/a	n/a
388.0243	0.65	COLOR_NAME	51	Neutral	zielony	green	Neutral	Neutral	hit	n/a
388.6547	n/a	RESPONSE	n/a	n/a	n/a	n/a	n/a	n/a	n/a	green
388.6743	1.0167	ITI	n/a	n/a	n/a	n/a	n/a	n/a	n/a	n/a
389.6909	0.5167	FIXCROSS	n/a	n/a	n/a	n/a	n/a	n/a	n/a	n/a
390.2076	0.75	COLOR_NAME	52	Neutral	czerwony	red	Neutral	Neutral	hit	n/a
390.9262	n/a	RESPONSE	n/a	n/a	n/a	n/a	n/a	n/a	n/a	red
390.9576	1.0167	ITI	n/a	n/a	n/a	n/a	n/a	n/a	n/a	n/a
391.9743	0.5167	FIXCROSS	n/a	n/a	n/a	n/a	n/a	n/a	n/a	n/a
392.491	0.7333	COLOR_NAME	53	Incongruent	niebieski	blue	żółty	yellow	hit	n/a
393.1977	n/a	RESPONSE	n/a	n/a	n/a	n/a	n/a	n/a	n/a	blue
393.2243	1.0167	ITI	n/a	n/a	n/a	n/a	n/a	n/a	n/a	n/a
394.241	0.5167	FIXCROSS	n/a	n/a	n/a	n/a	n/a	n/a	n/a	n/a
394.7577	0.8	COLOR_NAME	54	Neutral	żółty	yellow	Neutral	Neutral	hit	n/a
395.5332	n/a	RESPONSE	n/a	n/a	n/a	n/a	n/a	n/a	n/a	yellow
395.5577	1.0167	ITI	n/a	n/a	n/a	n/a	n/a	n/a	n/a	n/a
396.5744	0.5167	FIXCROSS	n/a	n/a	n/a	n/a	n/a	n/a	n/a	n/a
397.091	0.7	COLOR_NAME	55	Neutral	czerwony	red	Neutral	Neutral	hit	n/a
397.7727	n/a	RESPONSE	n/a	n/a	n/a	n/a	n/a	n/a	n/a	red
397.791	1.0167	ITI	n/a	n/a	n/a	n/a	n/a	n/a	n/a	n/a
398.8077	0.5167	FIXCROSS	n/a	n/a	n/a	n/a	n/a	n/a	n/a	n/a
399.3244	1.2	COLOR_NAME	56	Incongruent	żółty	yellow	czerwony	red	hit	n/a
400.4922	n/a	RESPONSE	n/a	n/a	n/a	n/a	n/a	n/a	n/a	yellow
400.5244	1.0167	ITI	n/a	n/a	n/a	n/a	n/a	n/a	n/a	n/a
401.5411	0.5167	FIXCROSS	n/a	n/a	n/a	n/a	n/a	n/a	n/a	n/a
402.0578	0.6	COLOR_NAME	57	Neutral	niebieski	blue	Neutral	Neutral	hit	n/a
402.6358	n/a	RESPONSE	n/a	n/a	n/a	n/a	n/a	n/a	n/a	blue
402.6578	1.0167	ITI	n/a	n/a	n/a	n/a	n/a	n/a	n/a	n/a
403.6745	0.5167	FIXCROSS	n/a	n/a	n/a	n/a	n/a	n/a	n/a	n/a
404.1911	0.65	COLOR_NAME	58	Neutral	żółty	yellow	Neutral	Neutral	hit	n/a
404.8113	n/a	RESPONSE	n/a	n/a	n/a	n/a	n/a	n/a	n/a	yellow
404.8411	1.0167	ITI	n/a	n/a	n/a	n/a	n/a	n/a	n/a	n/a
405.8578	0.5167	FIXCROSS	n/a	n/a	n/a	n/a	n/a	n/a	n/a	n/a
406.3745	0.4333	COLOR_NAME	59	Neutral	niebieski	blue	Neutral	Neutral	hit	n/a
406.7789	n/a	RESPONSE	n/a	n/a	n/a	n/a	n/a	n/a	n/a	blue
406.8078	1.0167	ITI	n/a	n/a	n/a	n/a	n/a	n/a	n/a	n/a
407.8245	0.5167	FIXCROSS	n/a	n/a	n/a	n/a	n/a	n/a	n/a	n/a
408.3412	0.5834	COLOR_NAME	60	Incongruent	żółty	yellow	czerwony	red	hit	n/a
408.9065	n/a	RESPONSE	n/a	n/a	n/a	n/a	n/a	n/a	n/a	yellow
408.9245	1.0167	ITI	n/a	n/a	n/a	n/a	n/a	n/a	n/a	n/a
409.9412	0.5167	FIXCROSS	n/a	n/a	n/a	n/a	n/a	n/a	n/a	n/a
410.4579	0.7	COLOR_NAME	61	Incongruent	czerwony	red	żółty	yellow	hit	n/a
411.13	n/a	RESPONSE	n/a	n/a	n/a	n/a	n/a	n/a	n/a	red
411.1579	1.0167	ITI	n/a	n/a	n/a	n/a	n/a	n/a	n/a	n/a
412.1746	0.5167	FIXCROSS	n/a	n/a	n/a	n/a	n/a	n/a	n/a	n/a
412.6912	0.5833	COLOR_NAME	62	Neutral	zielony	green	Neutral	Neutral	hit	n/a
413.2415	n/a	RESPONSE	n/a	n/a	n/a	n/a	n/a	n/a	n/a	green
413.2746	1.0167	ITI	n/a	n/a	n/a	n/a	n/a	n/a	n/a	n/a
414.2913	0.5167	FIXCROSS	n/a	n/a	n/a	n/a	n/a	n/a	n/a	n/a
414.8079	0.6167	COLOR_NAME	63	Neutral	zielony	green	Neutral	Neutral	hit	n/a
415.4011	n/a	RESPONSE	n/a	n/a	n/a	n/a	n/a	n/a	n/a	green
415.4246	1.0167	ITI	n/a	n/a	n/a	n/a	n/a	n/a	n/a	n/a
416.4413	0.5167	FIXCROSS	n/a	n/a	n/a	n/a	n/a	n/a	n/a	n/a
416.958	0.7833	COLOR_NAME	64	Incongruent	niebieski	blue	zielony	green	hit	n/a
417.7206	n/a	RESPONSE	n/a	n/a	n/a	n/a	n/a	n/a	n/a	blue
417.7413	1.0167	ITI	n/a	n/a	n/a	n/a	n/a	n/a	n/a	n/a
418.758	0.5167	FIXCROSS	n/a	n/a	n/a	n/a	n/a	n/a	n/a	n/a
419.2747	0.7	COLOR_NAME	65	Neutral	czerwony	red	Neutral	Neutral	hit	n/a
419.9442	n/a	RESPONSE	n/a	n/a	n/a	n/a	n/a	n/a	n/a	red
419.9747	1.0167	ITI	n/a	n/a	n/a	n/a	n/a	n/a	n/a	n/a
420.9914	0.5167	FIXCROSS	n/a	n/a	n/a	n/a	n/a	n/a	n/a	n/a
421.508	0.6833	COLOR_NAME	66	Incongruent	czerwony	red	niebieski	blue	hit	n/a
422.1677	n/a	RESPONSE	n/a	n/a	n/a	n/a	n/a	n/a	n/a	red
422.1914	1.0167	ITI	n/a	n/a	n/a	n/a	n/a	n/a	n/a	n/a
423.2081	0.5167	FIXCROSS	n/a	n/a	n/a	n/a	n/a	n/a	n/a	n/a
423.7247	1.1	COLOR_NAME	67	Neutral	zielony	green	Neutral	Neutral	hit	n/a
424.7912	n/a	RESPONSE	n/a	n/a	n/a	n/a	n/a	n/a	n/a	green
424.8247	1.0167	ITI	n/a	n/a	n/a	n/a	n/a	n/a	n/a	n/a
425.8414	0.5167	FIXCROSS	n/a	n/a	n/a	n/a	n/a	n/a	n/a	n/a
426.3581	0.8167	COLOR_NAME	68	Incongruent	czerwony	red	zielony	green	hit	n/a
427.1426	n/a	RESPONSE	n/a	n/a	n/a	n/a	n/a	n/a	n/a	red
427.1748	1.0167	ITI	n/a	n/a	n/a	n/a	n/a	n/a	n/a	n/a
428.1915	0.5167	FIXCROSS	n/a	n/a	n/a	n/a	n/a	n/a	n/a	n/a
428.7081	0.6667	COLOR_NAME	69	Incongruent	zielony	green	czerwony	red	hit	n/a
429.3502	n/a	RESPONSE	n/a	n/a	n/a	n/a	n/a	n/a	n/a	green
429.3748	1.0167	ITI	n/a	n/a	n/a	n/a	n/a	n/a	n/a	n/a
430.3915	0.5167	FIXCROSS	n/a	n/a	n/a	n/a	n/a	n/a	n/a	n/a
430.9082	0.8667	COLOR_NAME	70	Neutral	żółty	yellow	Neutral	Neutral	hit	n/a
431.7497	n/a	RESPONSE	n/a	n/a	n/a	n/a	n/a	n/a	n/a	yellow
431.7748	1.0167	ITI	n/a	n/a	n/a	n/a	n/a	n/a	n/a	n/a
432.7915	0.5167	FIXCROSS	n/a	n/a	n/a	n/a	n/a	n/a	n/a	n/a
433.3082	0.75	COLOR_NAME	71	Incongruent	żółty	yellow	czerwony	red	hit	n/a
434.0372	n/a	RESPONSE	n/a	n/a	n/a	n/a	n/a	n/a	n/a	yellow
434.0582	1.0167	ITI	n/a	n/a	n/a	n/a	n/a	n/a	n/a	n/a
435.0749	0.5167	FIXCROSS	n/a	n/a	n/a	n/a	n/a	n/a	n/a	n/a
435.5916	0.7167	COLOR_NAME	72	Incongruent	niebieski	blue	żółty	yellow	hit	n/a
436.2768	n/a	RESPONSE	n/a	n/a	n/a	n/a	n/a	n/a	n/a	blue
436.3082	1.0333	ITI	n/a	n/a	n/a	n/a	n/a	n/a	n/a	n/a
440.4199	n/a	RESPONSE	n/a	n/a	n/a	n/a	n/a	n/a	n/a	n/a
