onset	duration	trial_type	melody_number	melody_part	key	sound	action
0.0	14.08	CUE_START	n/a	n/a	n/a	n/a	n/a
14.08	7.76	FIXCROSS	n/a	n/a	n/a	n/a	n/a
21.84	6.324	CUE_LISTEN	M1	1	n/a	n/a	n/a
28.164	7.758	FIXCROSS	n/a	n/a	n/a	n/a	n/a
35.922	6.325	CUE_PLAYBACK_RIGHT_HAND	M1	1	n/a	n/a	n/a
36.622	n/a	RESPONSE	M1	1	11	B3	press
36.634	n/a	RESPONSE	M1	1	12	C4	press
36.785	n/a	RESPONSE	M1	1	11	B3	release
36.976	n/a	RESPONSE	M1	1	12	C4	release
37.217	n/a	RESPONSE	M1	1	12	C4	press
37.588	n/a	RESPONSE	M1	1	14	D4	press
37.762	n/a	RESPONSE	M1	1	12	C4	release
37.951	n/a	RESPONSE	M1	1	16	E4	press
38.042	n/a	RESPONSE	M1	1	14	D4	release
38.318	n/a	RESPONSE	M1	1	12	C4	press
38.375	n/a	RESPONSE	M1	1	16	E4	release
38.541	n/a	RESPONSE	M1	1	12	C4	release
38.688	n/a	RESPONSE	M1	1	12	C4	press
39.028	n/a	RESPONSE	M1	1	14	D4	press
39.18	n/a	RESPONSE	M1	1	12	C4	release
39.354	n/a	RESPONSE	M1	1	16	E4	press
39.477	n/a	RESPONSE	M1	1	14	D4	release
39.734	n/a	RESPONSE	M1	1	12	C4	press
39.772	n/a	RESPONSE	M1	1	16	E4	release
39.968	n/a	RESPONSE	M1	1	12	C4	release
40.091	n/a	RESPONSE	M1	1	16	E4	press
40.435	n/a	RESPONSE	M1	1	17	F4	press
40.532	n/a	RESPONSE	M1	1	16	E4	release
40.778	n/a	RESPONSE	M1	1	19	G4	press
40.79	n/a	RESPONSE	M1	1	21	A4	press
40.796	n/a	RESPONSE	M1	1	17	F4	release
41.018	n/a	RESPONSE	M1	1	21	A4	release
41.21	n/a	RESPONSE	M1	1	19	G4	release
41.511	n/a	RESPONSE	M1	1	16	E4	press
41.834	n/a	RESPONSE	M1	1	17	F4	press
41.9	n/a	RESPONSE	M1	1	16	E4	release
42.202	n/a	RESPONSE	M1	1	19	G4	press
42.247	7.758	FIXCROSS	n/a	n/a	n/a	n/a	n/a
42.272	n/a	RESPONSE	M1	1	17	F4	release
42.764	n/a	RESPONSE	M1	1	19	G4	release
50.006	6.308	CUE_LISTEN	        M1	2	n/a	n/a	n/a
56.314	7.758	FIXCROSS	n/a	n/a	n/a	n/a	n/a
64.072	6.325	CUE_PLAYBACK_RIGHT_HAND	        M1	2	n/a	n/a	n/a
64.638	n/a	RESPONSE	        M1	2	19	G4	press
64.887	n/a	RESPONSE	        M1	2	21	A4	press
64.928	n/a	RESPONSE	        M1	2	19	G4	release
65.13	n/a	RESPONSE	        M1	2	21	A4	release
65.161	n/a	RESPONSE	        M1	2	19	G4	press
65.465	n/a	RESPONSE	        M1	2	17	F4	press
65.763	n/a	RESPONSE	        M1	2	16	E4	press
65.786	n/a	RESPONSE	        M1	2	19	G4	release
65.806	n/a	RESPONSE	        M1	2	14	D4	press
65.947	n/a	RESPONSE	        M1	2	14	D4	release
66.061	n/a	RESPONSE	        M1	2	17	F4	release
66.33	n/a	RESPONSE	        M1	2	16	E4	release
66.381	n/a	RESPONSE	        M1	2	12	C4	press
66.662	n/a	RESPONSE	        M1	2	12	C4	release
66.914	n/a	RESPONSE	        M1	2	19	G4	press
66.925	n/a	RESPONSE	        M1	2	17	F4	press
67.046	n/a	RESPONSE	        M1	2	17	F4	release
67.247	n/a	RESPONSE	        M1	2	21	A4	press
67.361	n/a	RESPONSE	        M1	2	19	G4	release
67.52	n/a	RESPONSE	        M1	2	19	G4	press
67.591	n/a	RESPONSE	        M1	2	21	A4	release
67.772	n/a	RESPONSE	        M1	2	17	F4	press
68.065	n/a	RESPONSE	        M1	2	16	E4	press
68.136	n/a	RESPONSE	        M1	2	19	G4	release
68.266	n/a	RESPONSE	        M1	2	17	F4	release
68.542	n/a	RESPONSE	        M1	2	12	C4	press
68.575	n/a	RESPONSE	        M1	2	16	E4	release
68.994	n/a	RESPONSE	        M1	2	12	C4	release
70.232	n/a	RESPONSE	        M1	2	12	C4	press
70.397	7.758	FIXCROSS	n/a	n/a	n/a	n/a	n/a
70.642	n/a	RESPONSE	        M1	2	07	G3	press
70.766	n/a	RESPONSE	        M1	2	12	C4	release
71.057	n/a	RESPONSE	        M1	2	12	C4	press
71.105	n/a	RESPONSE	        M1	2	07	G3	release
71.736	n/a	RESPONSE	        M1	2	12	C4	release
72.085	n/a	RESPONSE	        M1	2	12	C4	press
72.495	n/a	RESPONSE	        M1	2	07	G3	press
72.638	n/a	RESPONSE	        M1	2	12	C4	release
72.977	n/a	RESPONSE	        M1	2	12	C4	press
73.078	n/a	RESPONSE	        M1	2	07	G3	release
74.031	n/a	RESPONSE	        M1	2	12	C4	release
78.156	6.317	CUE_LISTEN	        M7	1	n/a	n/a	n/a
84.472	7.758	FIXCROSS	n/a	n/a	n/a	n/a	n/a
86.04	n/a	RESPONSE	        M7	1	19	G4	press
86.042	n/a	RESPONSE	        M7	1	05	F3	press
86.251	n/a	RESPONSE	        M7	1	19	G4	release
86.453	n/a	RESPONSE	        M7	1	19	G4	press
86.466	n/a	RESPONSE	        M7	1	09	A3	press
86.636	n/a	RESPONSE	        M7	1	19	G4	release
86.706	n/a	RESPONSE	        M7	1	05	F3	release
87.127	n/a	RESPONSE	        M7	1	09	A3	release
92.231	6.325	CUE_PLAYBACK_BOTH_HANDS	        M7	1	n/a	n/a	n/a
92.86	n/a	RESPONSE	        M7	1	05	F3	press
92.873	n/a	RESPONSE	        M7	1	17	F4	press
93.133	n/a	RESPONSE	        M7	1	17	F4	release
93.276	n/a	RESPONSE	        M7	1	17	F4	press
93.285	n/a	RESPONSE	        M7	1	09	A3	press
93.447	n/a	RESPONSE	        M7	1	17	F4	release
93.508	n/a	RESPONSE	        M7	1	05	F3	release
94.038	n/a	RESPONSE	        M7	1	09	A3	release
95.522	n/a	RESPONSE	        M7	1	07	G3	press
95.571	n/a	RESPONSE	        M7	1	17	F4	press
95.752	n/a	RESPONSE	        M7	1	17	F4	release
95.913	n/a	RESPONSE	        M7	1	17	F4	press
95.965	n/a	RESPONSE	        M7	1	11	B3	press
96.026	n/a	RESPONSE	        M7	1	09	A3	press
96.077	n/a	RESPONSE	        M7	1	17	F4	release
96.151	n/a	RESPONSE	        M7	1	09	A3	release
96.2	n/a	RESPONSE	        M7	1	11	B3	release
96.251	n/a	RESPONSE	        M7	1	07	G3	release
96.532	n/a	RESPONSE	        M7	1	05	F3	press
96.563	n/a	RESPONSE	        M7	1	17	F4	press
96.735	n/a	RESPONSE	        M7	1	17	F4	release
96.866	n/a	RESPONSE	        M7	1	17	F4	press
96.897	n/a	RESPONSE	        M7	1	11	B3	press
96.958	n/a	RESPONSE	        M7	1	09	A3	press
97.04	n/a	RESPONSE	        M7	1	17	F4	release
97.071	n/a	RESPONSE	        M7	1	09	A3	release
97.172	n/a	RESPONSE	        M7	1	11	B3	release
97.273	n/a	RESPONSE	        M7	1	17	F4	press
97.535	n/a	RESPONSE	        M7	1	17	F4	release
97.746	n/a	RESPONSE	        M7	1	05	F3	release
98.068	n/a	RESPONSE	        M7	1	17	F4	press
98.385	n/a	RESPONSE	        M7	1	17	F4	release
98.447	n/a	RESPONSE	        M7	1	17	F4	press
98.556	7.758	FIXCROSS	n/a	n/a	n/a	n/a	n/a
98.675	n/a	RESPONSE	        M7	1	17	F4	release
106.314	6.317	CUE_LISTEN	        M7	2	n/a	n/a	n/a
112.631	7.758	FIXCROSS	n/a	n/a	n/a	n/a	n/a
120.389	6.317	CUE_PLAYBACK_BOTH_HANDS	        M7	2	n/a	n/a	n/a
120.936	n/a	RESPONSE	        M7	2	07	G3	press
120.988	n/a	RESPONSE	        M7	2	22	A#4	press
121.163	n/a	RESPONSE	        M7	2	22	A#4	release
121.393	n/a	RESPONSE	        M7	2	22	A#4	press
121.396	n/a	RESPONSE	        M7	2	10	A#3	press
121.487	n/a	RESPONSE	        M7	2	07	G3	release
121.636	n/a	RESPONSE	        M7	2	22	A#4	release
121.801	n/a	RESPONSE	        M7	2	22	A#4	press
121.881	n/a	RESPONSE	        M7	2	07	G3	press
122.082	n/a	RESPONSE	        M7	2	22	A#4	release
122.085	n/a	RESPONSE	        M7	2	10	A#3	release
122.486	n/a	RESPONSE	        M7	2	07	G3	release
122.706	n/a	RESPONSE	        M7	2	07	G3	press
122.717	n/a	RESPONSE	        M7	2	22	A#4	press
122.928	n/a	RESPONSE	        M7	2	22	A#4	release
123.19	n/a	RESPONSE	        M7	2	10	A#3	press
123.203	n/a	RESPONSE	        M7	2	22	A#4	press
123.342	n/a	RESPONSE	        M7	2	07	G3	release
123.423	n/a	RESPONSE	        M7	2	22	A#4	release
124.145	n/a	RESPONSE	        M7	2	22	A#4	press
124.176	n/a	RESPONSE	        M7	2	05	F3	press
124.247	n/a	RESPONSE	        M7	2	10	A#3	release
124.388	n/a	RESPONSE	        M7	2	22	A#4	release
124.59	n/a	RESPONSE	        M7	2	22	A#4	press
124.711	n/a	RESPONSE	        M7	2	10	A#3	press
124.895	n/a	RESPONSE	        M7	2	22	A#4	release
124.953	n/a	RESPONSE	        M7	2	10	A#3	release
124.987	n/a	RESPONSE	        M7	2	05	F3	release
125.346	n/a	RESPONSE	        M7	2	07	G3	press
126.117	n/a	RESPONSE	        M7	2	07	G3	release
126.238	n/a	RESPONSE	        M7	2	07	G3	press
126.272	n/a	RESPONSE	        M7	2	22	A#4	press
126.661	n/a	RESPONSE	        M7	2	11	B3	press
126.706	7.758	FIXCROSS	n/a	n/a	n/a	n/a	n/a
126.792	n/a	RESPONSE	        M7	2	07	G3	release
126.883	n/a	RESPONSE	        M7	2	22	A#4	release
127.255	n/a	RESPONSE	        M7	2	11	B3	release
134.464	6.325	CUE_LISTEN	        M5	1	n/a	n/a	n/a
140.789	7.758	FIXCROSS	n/a	n/a	n/a	n/a	n/a
148.547	6.317	CUE_PLAYBACK_BOTH_HANDS	        M5	1	n/a	n/a	n/a
149.206	n/a	RESPONSE	        M5	1	00	C3	press
149.213	n/a	RESPONSE	        M5	1	04	E3	press
149.228	n/a	RESPONSE	        M5	1	07	G3	press
149.252	n/a	RESPONSE	        M5	1	19	G4	press
149.687	n/a	RESPONSE	        M5	1	16	E4	press
149.926	n/a	RESPONSE	        M5	1	16	E4	release
150.106	n/a	RESPONSE	        M5	1	16	E4	press
150.206	n/a	RESPONSE	        M5	1	19	G4	release
150.267	n/a	RESPONSE	        M5	1	00	C3	release
150.302	n/a	RESPONSE	        M5	1	04	E3	release
150.327	n/a	RESPONSE	        M5	1	07	G3	release
150.338	n/a	RESPONSE	        M5	1	16	E4	release
150.501	n/a	RESPONSE	        M5	1	02	D3	press
150.525	n/a	RESPONSE	        M5	1	07	G3	press
150.541	n/a	RESPONSE	        M5	1	05	F3	press
150.543	n/a	RESPONSE	        M5	1	17	F4	press
150.952	n/a	RESPONSE	        M5	1	14	D4	press
151.155	n/a	RESPONSE	        M5	1	14	D4	release
151.366	n/a	RESPONSE	        M5	1	14	D4	press
151.456	n/a	RESPONSE	        M5	1	17	F4	release
151.521	n/a	RESPONSE	        M5	1	02	D3	release
151.525	n/a	RESPONSE	        M5	1	05	F3	release
151.543	n/a	RESPONSE	        M5	1	07	G3	release
151.575	n/a	RESPONSE	        M5	1	14	D4	release
151.723	n/a	RESPONSE	        M5	1	00	C3	press
151.747	n/a	RESPONSE	        M5	1	07	G3	press
151.771	n/a	RESPONSE	        M5	1	04	E3	press
151.806	n/a	RESPONSE	        M5	1	12	C4	press
152.016	n/a	RESPONSE	        M5	1	16	E4	press
152.087	n/a	RESPONSE	        M5	1	12	C4	release
152.28	n/a	RESPONSE	        M5	1	12	C4	press
152.41	n/a	RESPONSE	        M5	1	16	E4	release
152.821	n/a	RESPONSE	        M5	1	12	C4	release
152.962	n/a	RESPONSE	        M5	1	00	C3	release
153.056	n/a	RESPONSE	        M5	1	00	C3	press
153.455	n/a	RESPONSE	        M5	1	12	C4	press
153.656	n/a	RESPONSE	        M5	1	16	E4	press
153.76	n/a	RESPONSE	        M5	1	12	C4	release
153.828	n/a	RESPONSE	        M5	1	19	G4	press
153.89	n/a	RESPONSE	        M5	1	16	E4	release
154.661	n/a	RESPONSE	        M5	1	19	G4	release
154.712	n/a	RESPONSE	        M5	1	04	E3	release
154.755	n/a	RESPONSE	        M5	1	07	G3	release
154.864	7.758	FIXCROSS	n/a	n/a	n/a	n/a	n/a
155.065	n/a	RESPONSE	        M5	1	00	C3	release
162.622	6.317	CUE_LISTEN	        M5	2	n/a	n/a	n/a
168.939	7.758	FIXCROSS	n/a	n/a	n/a	n/a	n/a
176.698	6.325	CUE_PLAYBACK_BOTH_HANDS	        M5	2	n/a	n/a	n/a
177.32	n/a	RESPONSE	        M5	2	04	E3	press
177.331	n/a	RESPONSE	        M5	2	07	G3	press
177.352	n/a	RESPONSE	        M5	2	00	C3	press
177.363	n/a	RESPONSE	        M5	2	19	G4	press
177.826	n/a	RESPONSE	        M5	2	16	E4	press
178.056	n/a	RESPONSE	        M5	2	16	E4	release
178.258	n/a	RESPONSE	        M5	2	16	E4	press
178.41	n/a	RESPONSE	        M5	2	19	G4	release
178.412	n/a	RESPONSE	        M5	2	00	C3	release
178.466	n/a	RESPONSE	        M5	2	04	E3	release
178.472	n/a	RESPONSE	        M5	2	07	G3	release
178.488	n/a	RESPONSE	        M5	2	16	E4	release
178.671	n/a	RESPONSE	        M5	2	02	D3	press
178.716	n/a	RESPONSE	        M5	2	07	G3	press
178.718	n/a	RESPONSE	        M5	2	17	F4	press
178.733	n/a	RESPONSE	        M5	2	05	F3	press
179.167	n/a	RESPONSE	        M5	2	14	D4	press
179.328	n/a	RESPONSE	        M5	2	14	D4	release
179.59	n/a	RESPONSE	        M5	2	14	D4	press
179.7	n/a	RESPONSE	        M5	2	17	F4	release
179.726	n/a	RESPONSE	        M5	2	02	D3	release
179.751	n/a	RESPONSE	        M5	2	05	F3	release
179.777	n/a	RESPONSE	        M5	2	14	D4	release
179.825	n/a	RESPONSE	        M5	2	07	G3	release
179.956	n/a	RESPONSE	        M5	2	00	C3	press
180.011	n/a	RESPONSE	        M5	2	07	G3	press
180.018	n/a	RESPONSE	        M5	2	04	E3	press
180.062	n/a	RESPONSE	        M5	2	12	C4	press
180.241	n/a	RESPONSE	        M5	2	16	E4	press
180.295	n/a	RESPONSE	        M5	2	12	C4	release
180.541	n/a	RESPONSE	        M5	2	12	C4	press
180.596	n/a	RESPONSE	        M5	2	16	E4	release
182.7	n/a	RESPONSE	        M5	2	04	E3	release
182.702	n/a	RESPONSE	        M5	2	12	C4	release
182.802	n/a	RESPONSE	        M5	2	07	G3	release
182.953	n/a	RESPONSE	        M5	2	00	C3	release
183.022	7.758	FIXCROSS	n/a	n/a	n/a	n/a	n/a
190.781	6.317	CUE_LISTEN	        M3	1	n/a	n/a	n/a
197.098	7.758	FIXCROSS	n/a	n/a	n/a	n/a	n/a
204.856	6.317	CUE_PLAYBACK_RIGHT_HAND	        M3	1	n/a	n/a	n/a
205.455	n/a	RESPONSE	        M3	1	22	A#4	press
205.956	n/a	RESPONSE	        M3	1	21	A4	press
206.2	n/a	RESPONSE	        M3	1	22	A#4	release
206.478	n/a	RESPONSE	        M3	1	19	G4	press
206.57	n/a	RESPONSE	        M3	1	21	A4	release
206.921	n/a	RESPONSE	        M3	1	21	A4	press
207.002	n/a	RESPONSE	        M3	1	19	G4	release
207.443	n/a	RESPONSE	        M3	1	14	D4	press
207.495	n/a	RESPONSE	        M3	1	21	A4	release
207.708	n/a	RESPONSE	        M3	1	14	D4	release
207.947	n/a	RESPONSE	        M3	1	14	D4	press
208.953	n/a	RESPONSE	        M3	1	19	G4	press
209.027	n/a	RESPONSE	        M3	1	14	D4	release
210.707	n/a	RESPONSE	        M3	1	07	G3	press
211.143	n/a	RESPONSE	        M3	1	19	G4	release
211.172	7.758	FIXCROSS	n/a	n/a	n/a	n/a	n/a
211.571	n/a	RESPONSE	        M3	1	09	A3	press
211.925	n/a	RESPONSE	        M3	1	10	A#3	press
212.016	n/a	RESPONSE	        M3	1	09	A3	release
212.117	n/a	RESPONSE	        M3	1	07	G3	release
212.338	n/a	RESPONSE	        M3	1	12	C4	press
212.38	n/a	RESPONSE	        M3	1	10	A#3	release
212.721	n/a	RESPONSE	        M3	1	14	D4	press
212.865	n/a	RESPONSE	        M3	1	12	C4	release
215.206	n/a	RESPONSE	        M3	1	14	D4	release
218.931	6.325	CUE_LISTEN	        M3	2	n/a	n/a	n/a
225.256	7.758	FIXCROSS	n/a	n/a	n/a	n/a	n/a
233.014	6.317	CUE_PLAYBACK_RIGHT_HAND	        M3	2	n/a	n/a	n/a
233.628	n/a	RESPONSE	        M3	2	10	A#3	press
234.02	n/a	RESPONSE	        M3	2	10	A#3	release
235.661	n/a	RESPONSE	        M3	2	15	D#4	press
236.245	n/a	RESPONSE	        M3	2	17	F4	press
236.303	n/a	RESPONSE	        M3	2	15	D#4	release
236.535	n/a	RESPONSE	        M3	2	15	D#4	press
236.617	n/a	RESPONSE	        M3	2	17	F4	release
236.877	n/a	RESPONSE	        M3	2	14	D4	press
237.128	n/a	RESPONSE	        M3	2	12	C4	press
237.22	n/a	RESPONSE	        M3	2	14	D4	release
237.231	n/a	RESPONSE	        M3	2	15	D#4	release
237.452	n/a	RESPONSE	        M3	2	14	D4	press
237.513	n/a	RESPONSE	        M3	2	12	C4	release
238.056	n/a	RESPONSE	        M3	2	15	D#4	press
238.076	n/a	RESPONSE	        M3	2	14	D4	release
238.305	n/a	RESPONSE	        M3	2	14	D4	press
238.5	n/a	RESPONSE	        M3	2	15	D#4	release
238.602	n/a	RESPONSE	        M3	2	12	C4	press
238.695	n/a	RESPONSE	        M3	2	14	D4	release
239.102	n/a	RESPONSE	        M3	2	10	A#3	press
239.155	n/a	RESPONSE	        M3	2	12	C4	release
239.331	7.758	FIXCROSS	n/a	n/a	n/a	n/a	n/a
239.515	n/a	RESPONSE	        M3	2	12	C4	press
239.585	n/a	RESPONSE	        M3	2	10	A#3	release
242.0	n/a	RESPONSE	        M3	2	12	C4	release
242.311	n/a	RESPONSE	        M3	2	16	E4	press
242.732	n/a	RESPONSE	        M3	2	16	E4	release
243.253	n/a	RESPONSE	        M3	2	17	F4	press
244.095	n/a	RESPONSE	        M3	2	10	A#3	press
244.117	n/a	RESPONSE	        M3	2	17	F4	release
244.927	n/a	RESPONSE	        M3	2	10	A#3	release
247.089	6.317	CUE_LISTEN	        M6	1	n/a	n/a	n/a
253.406	7.758	FIXCROSS	n/a	n/a	n/a	n/a	n/a
261.164	6.325	CUE_PLAYBACK_RIGHT_HAND	        M6	1	n/a	n/a	n/a
262.062	n/a	RESPONSE	        M6	1	12	C4	press
262.603	n/a	RESPONSE	        M6	1	16	E4	press
262.715	n/a	RESPONSE	        M6	1	12	C4	release
263.246	n/a	RESPONSE	        M6	1	16	E4	release
263.517	n/a	RESPONSE	        M6	1	12	C4	press
264.081	n/a	RESPONSE	        M6	1	17	F4	press
264.3	n/a	RESPONSE	        M6	1	12	C4	release
264.471	n/a	RESPONSE	        M6	1	19	G4	press
264.552	n/a	RESPONSE	        M6	1	17	F4	release
264.953	n/a	RESPONSE	        M6	1	19	G4	release
265.245	n/a	RESPONSE	        M6	1	12	C4	press
265.556	n/a	RESPONSE	        M6	1	17	F4	press
265.757	n/a	RESPONSE	        M6	1	12	C4	release
265.891	n/a	RESPONSE	        M6	1	21	A4	press
266.011	n/a	RESPONSE	        M6	1	17	F4	release
266.351	n/a	RESPONSE	        M6	1	19	G4	press
266.523	n/a	RESPONSE	        M6	1	21	A4	release
266.686	n/a	RESPONSE	        M6	1	17	F4	press
267.007	n/a	RESPONSE	        M6	1	16	E4	press
267.098	n/a	RESPONSE	        M6	1	19	G4	release
267.147	n/a	RESPONSE	        M6	1	17	F4	release
267.328	n/a	RESPONSE	        M6	1	12	C4	press
267.4	n/a	RESPONSE	        M6	1	16	E4	release
267.489	7.758	FIXCROSS	n/a	n/a	n/a	n/a	n/a
267.731	n/a	RESPONSE	        M6	1	12	C4	release
275.248	6.317	CUE_LISTEN	        M6	2	n/a	n/a	n/a
281.564	7.767	FIXCROSS	n/a	n/a	n/a	n/a	n/a
289.331	6.317	CUE_PLAYBACK_RIGHT_HAND	        M6	2	n/a	n/a	n/a
289.932	n/a	RESPONSE	        M6	2	12	C4	press
290.325	n/a	RESPONSE	        M6	2	17	F4	press
290.745	n/a	RESPONSE	        M6	2	21	A4	press
290.857	n/a	RESPONSE	        M6	2	17	F4	release
290.988	n/a	RESPONSE	        M6	2	12	C4	release
291.191	n/a	RESPONSE	        M6	2	24	C5	press
291.24	n/a	RESPONSE	        M6	2	21	A4	release
291.792	n/a	RESPONSE	        M6	2	22	A#4	press
292.207	n/a	RESPONSE	        M6	2	21	A4	press
292.228	n/a	RESPONSE	        M6	2	24	C5	release
292.57	n/a	RESPONSE	        M6	2	19	G4	press
292.771	n/a	RESPONSE	        M6	2	22	A#4	release
292.792	n/a	RESPONSE	        M6	2	21	A4	release
293.085	n/a	RESPONSE	        M6	2	19	G4	release
293.636	n/a	RESPONSE	        M6	2	12	C4	press
294.056	n/a	RESPONSE	        M6	2	16	E4	press
294.657	n/a	RESPONSE	        M6	2	19	G4	press
294.818	n/a	RESPONSE	        M6	2	16	E4	release
295.33	n/a	RESPONSE	        M6	2	20	G#4	press
295.431	n/a	RESPONSE	        M6	2	19	G4	release
295.632	n/a	RESPONSE	        M6	2	20	G#4	release
295.648	7.758	FIXCROSS	n/a	n/a	n/a	n/a	n/a
295.806	n/a	RESPONSE	        M6	2	19	G4	press
295.966	n/a	RESPONSE	        M6	2	22	A#4	press
296.058	n/a	RESPONSE	        M6	2	19	G4	release
296.258	n/a	RESPONSE	        M6	2	12	C4	release
296.408	n/a	RESPONSE	        M6	2	21	A4	press
296.761	n/a	RESPONSE	        M6	2	19	G4	press
296.781	n/a	RESPONSE	        M6	2	22	A#4	release
297.042	n/a	RESPONSE	        M6	2	21	A4	release
297.156	n/a	RESPONSE	        M6	2	17	F4	press
297.365	n/a	RESPONSE	        M6	2	19	G4	release
299.055	n/a	RESPONSE	        M6	2	17	F4	release
303.406	6.317	CUE_LISTEN	        M2	1	n/a	n/a	n/a
305.692	n/a	RESPONSE	        M2	1	00	C3	press
307.682	n/a	RESPONSE	        M2	1	00	C3	release
309.723	7.758	FIXCROSS	n/a	n/a	n/a	n/a	n/a
317.481	6.317	CUE_PLAYBACK_BOTH_HANDS	        M2	1	n/a	n/a	n/a
318.26	n/a	RESPONSE	        M2	1	00	C3	press
318.281	n/a	RESPONSE	        M2	1	24	C5	press
318.29	n/a	RESPONSE	        M2	1	07	G3	press
318.306	n/a	RESPONSE	        M2	1	09	A3	press
318.427	n/a	RESPONSE	        M2	1	09	A3	release
318.832	n/a	RESPONSE	        M2	1	19	G4	press
318.963	n/a	RESPONSE	        M2	1	24	C5	release
319.023	n/a	RESPONSE	        M2	1	19	G4	release
319.194	n/a	RESPONSE	        M2	1	00	C3	release
319.28	n/a	RESPONSE	        M2	1	19	G4	press
319.292	n/a	RESPONSE	        M2	1	00	C3	press
319.744	n/a	RESPONSE	        M2	1	17	F4	press
319.874	n/a	RESPONSE	        M2	1	19	G4	release
319.886	n/a	RESPONSE	        M2	1	00	C3	release
319.936	n/a	RESPONSE	        M2	1	07	G3	release
320.174	n/a	RESPONSE	        M2	1	07	G3	press
320.178	n/a	RESPONSE	        M2	1	00	C3	press
320.197	n/a	RESPONSE	        M2	1	16	E4	press
320.443	n/a	RESPONSE	        M2	1	17	F4	release
320.647	n/a	RESPONSE	        M2	1	14	D4	press
320.843	n/a	RESPONSE	        M2	1	00	C3	release
320.846	n/a	RESPONSE	        M2	1	16	E4	release
321.246	n/a	RESPONSE	        M2	1	14	D4	release
321.298	n/a	RESPONSE	        M2	1	07	G3	release
321.781	n/a	RESPONSE	        M2	1	17	F4	press
322.08	n/a	RESPONSE	        M2	1	16	E4	press
322.191	n/a	RESPONSE	        M2	1	17	F4	release
322.542	n/a	RESPONSE	        M2	1	00	C3	press
322.553	n/a	RESPONSE	        M2	1	07	G3	press
322.875	n/a	RESPONSE	        M2	1	17	F4	press
322.996	n/a	RESPONSE	        M2	1	16	E4	release
323.387	n/a	RESPONSE	        M2	1	07	G3	release
323.418	n/a	RESPONSE	        M2	1	17	F4	release
323.44	n/a	RESPONSE	        M2	1	00	C3	release
323.798	7.758	FIXCROSS	n/a	n/a	n/a	n/a	n/a
327.532	n/a	RESPONSE	        M2	1	24	C5	press
328.145	n/a	RESPONSE	        M2	1	24	C5	release
331.556	6.325	CUE_LISTEN	        M2	2	n/a	n/a	n/a
337.881	7.758	FIXCROSS	n/a	n/a	n/a	n/a	n/a
345.64	6.317	CUE_PLAYBACK_BOTH_HANDS	        M2	2	n/a	n/a	n/a
346.286	n/a	RESPONSE	        M2	2	00	C3	press
346.307	n/a	RESPONSE	        M2	2	07	G3	press
346.318	n/a	RESPONSE	        M2	2	09	A3	press
346.321	n/a	RESPONSE	        M2	2	12	C4	press
346.373	n/a	RESPONSE	        M2	2	09	A3	release
346.742	n/a	RESPONSE	        M2	2	14	D4	press
346.814	n/a	RESPONSE	        M2	2	12	C4	release
347.184	n/a	RESPONSE	        M2	2	16	E4	press
347.276	n/a	RESPONSE	        M2	2	14	D4	release
347.658	n/a	RESPONSE	        M2	2	16	E4	release
347.718	n/a	RESPONSE	        M2	2	07	G3	release
347.75	n/a	RESPONSE	        M2	2	00	C3	release
347.991	n/a	RESPONSE	        M2	2	00	C3	press
347.993	n/a	RESPONSE	        M2	2	07	G3	press
347.996	n/a	RESPONSE	        M2	2	12	C4	press
348.387	n/a	RESPONSE	        M2	2	14	D4	press
348.467	n/a	RESPONSE	        M2	2	12	C4	release
348.524	n/a	RESPONSE	        M2	2	00	C3	release
348.541	n/a	RESPONSE	        M2	2	07	G3	release
348.768	n/a	RESPONSE	        M2	2	16	E4	press
348.771	n/a	RESPONSE	        M2	2	07	G3	press
348.773	n/a	RESPONSE	        M2	2	00	C3	press
348.883	n/a	RESPONSE	        M2	2	14	D4	release
349.146	n/a	RESPONSE	        M2	2	14	D4	press
349.222	n/a	RESPONSE	        M2	2	16	E4	release
349.26	n/a	RESPONSE	        M2	2	00	C3	release
349.27	n/a	RESPONSE	        M2	2	07	G3	release
349.467	n/a	RESPONSE	        M2	2	07	G3	press
349.472	n/a	RESPONSE	        M2	2	00	C3	press
349.497	n/a	RESPONSE	        M2	2	16	E4	press
349.572	n/a	RESPONSE	        M2	2	14	D4	release
349.844	n/a	RESPONSE	        M2	2	17	F4	press
349.962	n/a	RESPONSE	        M2	2	16	E4	release
350.004	n/a	RESPONSE	        M2	2	07	G3	release
350.007	n/a	RESPONSE	        M2	2	00	C3	release
350.23	n/a	RESPONSE	        M2	2	00	C3	press
350.233	n/a	RESPONSE	        M2	2	07	G3	press
350.261	n/a	RESPONSE	        M2	2	19	G4	press
350.346	n/a	RESPONSE	        M2	2	17	F4	release
350.807	n/a	RESPONSE	        M2	2	19	G4	release
350.841	n/a	RESPONSE	        M2	2	07	G3	release
350.963	n/a	RESPONSE	        M2	2	00	C3	release
351.406	n/a	RESPONSE	        M2	2	16	E4	press
351.416	n/a	RESPONSE	        M2	2	00	C3	press
351.418	n/a	RESPONSE	        M2	2	07	G3	press
351.761	n/a	RESPONSE	        M2	2	19	G4	press
351.826	n/a	RESPONSE	        M2	2	16	E4	release
351.903	n/a	RESPONSE	        M2	2	07	G3	release
351.914	n/a	RESPONSE	        M2	2	00	C3	release
351.956	7.759	FIXCROSS	n/a	n/a	n/a	n/a	n/a
351.966	n/a	RESPONSE	        M2	2	19	G4	release
352.127	n/a	RESPONSE	        M2	2	00	C3	press
352.131	n/a	RESPONSE	        M2	2	07	G3	press
352.15	n/a	RESPONSE	        M2	2	19	G4	press
352.471	n/a	RESPONSE	        M2	2	17	F4	press
352.612	n/a	RESPONSE	        M2	2	00	C3	release
352.614	n/a	RESPONSE	        M2	2	07	G3	release
352.644	n/a	RESPONSE	        M2	2	19	G4	release
352.846	n/a	RESPONSE	        M2	2	16	E4	press
352.848	n/a	RESPONSE	        M2	2	00	C3	press
352.858	n/a	RESPONSE	        M2	2	07	G3	press
352.96	n/a	RESPONSE	        M2	2	17	F4	release
353.241	n/a	RESPONSE	        M2	2	14	D4	press
353.302	n/a	RESPONSE	        M2	2	07	G3	release
353.304	n/a	RESPONSE	        M2	2	00	C3	release
353.386	n/a	RESPONSE	        M2	2	16	E4	release
353.597	n/a	RESPONSE	        M2	2	00	C3	press
353.607	n/a	RESPONSE	        M2	2	07	G3	press
353.628	n/a	RESPONSE	        M2	2	12	C4	press
355.23	n/a	RESPONSE	        M2	2	12	C4	release
355.301	n/a	RESPONSE	        M2	2	07	G3	release
355.373	n/a	RESPONSE	        M2	2	14	D4	release
355.553	n/a	RESPONSE	        M2	2	00	C3	release
359.715	6.317	CUE_LISTEN	        M8	1	n/a	n/a	n/a
366.031	7.758	FIXCROSS	n/a	n/a	n/a	n/a	n/a
373.79	6.325	CUE_PLAYBACK_BOTH_HANDS	        M8	1	n/a	n/a	n/a
374.78	n/a	RESPONSE	        M8	1	20	G#4	press
375.08	n/a	RESPONSE	        M8	1	20	G#4	release
375.621	n/a	RESPONSE	        M8	1	22	A#4	press
375.972	n/a	RESPONSE	        M8	1	22	A#4	release
379.534	n/a	RESPONSE	        M8	1	20	G#4	press
379.818	n/a	RESPONSE	        M8	1	20	G#4	release
380.114	7.758	FIXCROSS	n/a	n/a	n/a	n/a	n/a
381.177	n/a	RESPONSE	        M8	1	21	A4	press
381.402	n/a	RESPONSE	        M8	1	21	A4	release
387.873	6.317	CUE_LISTEN	        M8	2	n/a	n/a	n/a
394.19	7.758	FIXCROSS	n/a	n/a	n/a	n/a	n/a
401.948	6.317	CUE_PLAYBACK_BOTH_HANDS	        M8	2	n/a	n/a	n/a
402.683	n/a	RESPONSE	        M8	2	16	E4	press
402.954	n/a	RESPONSE	        M8	2	19	G4	press
403.216	n/a	RESPONSE	        M8	2	16	E4	release
403.267	n/a	RESPONSE	        M8	2	23	B4	press
403.298	n/a	RESPONSE	        M8	2	21	A4	press
403.36	n/a	RESPONSE	        M8	2	19	G4	release
403.512	n/a	RESPONSE	        M8	2	21	A4	release
403.622	n/a	RESPONSE	        M8	2	23	B4	release
404.486	n/a	RESPONSE	        M8	2	16	E4	press
404.794	n/a	RESPONSE	        M8	2	19	G4	press
404.956	n/a	RESPONSE	        M8	2	16	E4	release
405.057	n/a	RESPONSE	        M8	2	23	B4	press
405.148	n/a	RESPONSE	        M8	2	19	G4	release
405.3	n/a	RESPONSE	        M8	2	23	B4	release
405.482	n/a	RESPONSE	        M8	2	23	B4	press
406.254	n/a	RESPONSE	        M8	2	09	A3	press
406.303	n/a	RESPONSE	        M8	2	18	F#4	press
406.384	n/a	RESPONSE	        M8	2	23	B4	release
407.676	n/a	RESPONSE	        M8	2	21	A4	press
407.977	n/a	RESPONSE	        M8	2	18	F#4	release
408.265	7.758	FIXCROSS	n/a	n/a	n/a	n/a	n/a
408.387	n/a	RESPONSE	        M8	2	21	A4	release
408.73	n/a	RESPONSE	        M8	2	09	A3	release
416.023	6.325	CUE_LISTEN	        M4	1	n/a	n/a	n/a
422.348	7.758	FIXCROSS	n/a	n/a	n/a	n/a	n/a
430.106	6.317	CUE_PLAYBACK_RIGHT_HAND	        M4	1	n/a	n/a	n/a
430.624	n/a	RESPONSE	        M4	1	19	G4	press
430.997	n/a	RESPONSE	        M4	1	19	G4	release
431.795	n/a	RESPONSE	        M4	1	19	G4	press
432.264	n/a	RESPONSE	        M4	1	19	G4	release
433.126	n/a	RESPONSE	        M4	1	18	F#4	press
433.337	n/a	RESPONSE	        M4	1	19	G4	press
433.38	n/a	RESPONSE	        M4	1	18	F#4	release
433.739	n/a	RESPONSE	        M4	1	19	G4	release
434.471	n/a	RESPONSE	        M4	1	21	A4	press
434.744	n/a	RESPONSE	        M4	1	21	A4	release
435.044	n/a	RESPONSE	        M4	1	19	G4	press
435.234	n/a	RESPONSE	        M4	1	18	F#4	press
435.316	n/a	RESPONSE	        M4	1	19	G4	release
435.417	n/a	RESPONSE	        M4	1	19	G4	press
435.928	n/a	RESPONSE	        M4	1	19	G4	release
435.939	n/a	RESPONSE	        M4	1	18	F#4	release
435.951	n/a	RESPONSE	        M4	1	23	B4	press
436.182	n/a	RESPONSE	        M4	1	24	C5	press
436.246	n/a	RESPONSE	        M4	1	23	B4	release
436.374	n/a	RESPONSE	        M4	1	23	B4	press
436.423	7.758	FIXCROSS	n/a	n/a	n/a	n/a	n/a
436.506	n/a	RESPONSE	        M4	1	24	C5	release
436.91	n/a	RESPONSE	        M4	1	19	G4	press
436.958	n/a	RESPONSE	        M4	1	23	B4	release
437.15	n/a	RESPONSE	        M4	1	18	F#4	press
437.221	n/a	RESPONSE	        M4	1	19	G4	release
437.344	n/a	RESPONSE	        M4	1	19	G4	press
437.523	n/a	RESPONSE	        M4	1	18	F#4	release
437.734	n/a	RESPONSE	        M4	1	21	A4	press
437.808	n/a	RESPONSE	        M4	1	19	G4	release
437.918	n/a	RESPONSE	        M4	1	23	B4	press
438.008	n/a	RESPONSE	        M4	1	21	A4	release
438.12	n/a	RESPONSE	        M4	1	21	A4	press
438.221	n/a	RESPONSE	        M4	1	23	B4	release
438.912	n/a	RESPONSE	        M4	1	21	A4	release
444.181	6.317	CUE_LISTEN	        M4	2	n/a	n/a	n/a
450.498	7.758	FIXCROSS	n/a	n/a	n/a	n/a	n/a
450.577	n/a	RESPONSE	        M4	2	24	C5	press
450.65	n/a	RESPONSE	        M4	2	24	C5	release
458.256	6.325	CUE_PLAYBACK_RIGHT_HAND	        M4	2	n/a	n/a	n/a
458.716	n/a	RESPONSE	        M4	2	23	B4	press
459.54	n/a	RESPONSE	        M4	2	18	F#4	press
459.624	n/a	RESPONSE	        M4	2	23	B4	release
460.947	n/a	RESPONSE	        M4	2	23	B4	press
461.02	n/a	RESPONSE	        M4	2	18	F#4	release
461.744	n/a	RESPONSE	        M4	2	21	A4	press
461.834	n/a	RESPONSE	        M4	2	23	B4	release
464.581	7.758	FIXCROSS	n/a	n/a	n/a	n/a	n/a
464.998	n/a	RESPONSE	        M4	2	21	A4	release
472.34	6.317	CUE_LISTEN	        M3	1	n/a	n/a	n/a
478.656	7.758	FIXCROSS	n/a	n/a	n/a	n/a	n/a
486.415	6.317	CUE_PLAYBACK_RIGHT_HAND	        M3	1	n/a	n/a	n/a
487.077	n/a	RESPONSE	        M3	1	12	C4	press
487.537	n/a	RESPONSE	        M3	1	12	C4	release
487.907	n/a	RESPONSE	        M3	1	19	G4	press
488.859	n/a	RESPONSE	        M3	1	19	G4	release
488.878	n/a	RESPONSE	        M3	1	16	E4	press
489.124	n/a	RESPONSE	        M3	1	16	E4	release
489.332	n/a	RESPONSE	        M3	1	16	E4	press
489.791	n/a	RESPONSE	        M3	1	17	F4	press
489.879	n/a	RESPONSE	        M3	1	16	E4	release
490.228	n/a	RESPONSE	        M3	1	14	D4	press
490.287	n/a	RESPONSE	        M3	1	17	F4	release
490.481	n/a	RESPONSE	        M3	1	14	D4	release
490.694	n/a	RESPONSE	        M3	1	14	D4	press
491.153	n/a	RESPONSE	        M3	1	12	C4	press
491.188	n/a	RESPONSE	        M3	1	14	D4	release
491.343	n/a	RESPONSE	        M3	1	16	E4	press
491.409	n/a	RESPONSE	        M3	1	12	C4	release
491.649	n/a	RESPONSE	        M3	1	19	G4	press
491.707	n/a	RESPONSE	        M3	1	16	E4	release
492.731	7.758	FIXCROSS	n/a	n/a	n/a	n/a	n/a
493.062	n/a	RESPONSE	        M3	1	19	G4	release
500.49	6.325	CUE_LISTEN	        M3	2	n/a	n/a	n/a
506.815	7.758	FIXCROSS	n/a	n/a	n/a	n/a	n/a
514.573	6.317	CUE_PLAYBACK_RIGHT_HAND	        M3	2	n/a	n/a	n/a
515.698	n/a	RESPONSE	        M3	2	19	G4	press
516.309	n/a	RESPONSE	        M3	2	16	E4	press
516.441	n/a	RESPONSE	        M3	2	19	G4	release
516.572	n/a	RESPONSE	        M3	2	16	E4	release
516.823	n/a	RESPONSE	        M3	2	16	E4	press
517.364	n/a	RESPONSE	        M3	2	17	F4	press
517.456	n/a	RESPONSE	        M3	2	16	E4	release
517.868	n/a	RESPONSE	        M3	2	14	D4	press
517.951	n/a	RESPONSE	        M3	2	17	F4	release
518.149	n/a	RESPONSE	        M3	2	14	D4	release
518.399	n/a	RESPONSE	        M3	2	14	D4	press
518.922	n/a	RESPONSE	        M3	2	12	C4	press
519.154	n/a	RESPONSE	        M3	2	16	E4	press
519.194	n/a	RESPONSE	        M3	2	14	D4	release
519.233	n/a	RESPONSE	        M3	2	12	C4	release
519.414	n/a	RESPONSE	        M3	2	12	C4	press
519.532	n/a	RESPONSE	        M3	2	16	E4	release
520.673	n/a	RESPONSE	        M3	2	12	C4	release
520.89	7.758	FIXCROSS	n/a	n/a	n/a	n/a	n/a
528.648	6.325	CUE_LISTEN	        M5	1	n/a	n/a	n/a
534.973	7.758	FIXCROSS	n/a	n/a	n/a	n/a	n/a
542.732	6.317	CUE_PLAYBACK_BOTH_HANDS	        M5	1	n/a	n/a	n/a
543.313	n/a	RESPONSE	        M5	1	07	G3	press
543.362	n/a	RESPONSE	        M5	1	22	A#4	press
543.944	n/a	RESPONSE	        M5	1	21	A4	press
544.394	n/a	RESPONSE	        M5	1	22	A#4	release
544.448	n/a	RESPONSE	        M5	1	19	G4	press
544.599	n/a	RESPONSE	        M5	1	21	A4	release
544.908	n/a	RESPONSE	        M5	1	05	F3	press
544.939	n/a	RESPONSE	        M5	1	21	A4	press
545.031	n/a	RESPONSE	        M5	1	07	G3	release
545.042	n/a	RESPONSE	        M5	1	19	G4	release
545.474	n/a	RESPONSE	        M5	1	14	D4	press
545.604	n/a	RESPONSE	        M5	1	21	A4	release
545.746	n/a	RESPONSE	        M5	1	14	D4	release
545.967	n/a	RESPONSE	        M5	1	14	D4	press
547.649	n/a	RESPONSE	        M5	1	19	G4	press
547.679	n/a	RESPONSE	        M5	1	03	D#3	press
547.743	n/a	RESPONSE	        M5	1	05	F3	release
547.752	n/a	RESPONSE	        M5	1	14	D4	release
549.048	7.758	FIXCROSS	n/a	n/a	n/a	n/a	n/a
549.662	n/a	RESPONSE	        M5	1	05	F3	press
549.889	n/a	RESPONSE	        M5	1	19	G4	release
550.251	n/a	RESPONSE	        M5	1	05	F3	release
551.249	n/a	RESPONSE	        M5	1	03	D#3	release
554.293	n/a	RESPONSE	        M5	1	07	G3	press
555.303	n/a	RESPONSE	        M5	1	08	G#3	press
555.973	n/a	RESPONSE	        M5	1	08	G#3	release
556.144	n/a	RESPONSE	        M5	1	07	G3	release
556.807	6.317	CUE_LISTEN	        M5	2	n/a	n/a	n/a
563.123	7.758	FIXCROSS	n/a	n/a	n/a	n/a	n/a
570.882	6.325	CUE_PLAYBACK_BOTH_HANDS	        M5	2	n/a	n/a	n/a
574.268	n/a	RESPONSE	        M5	2	05	F3	press
574.287	n/a	RESPONSE	        M5	2	17	F4	press
574.301	n/a	RESPONSE	        M5	2	09	A3	press
574.729	n/a	RESPONSE	        M5	2	09	A3	release
574.861	n/a	RESPONSE	        M5	2	17	F4	release
575.142	n/a	RESPONSE	        M5	2	17	F4	press
575.254	n/a	RESPONSE	        M5	2	09	A3	press
575.786	n/a	RESPONSE	        M5	2	21	A4	press
575.846	n/a	RESPONSE	        M5	2	09	A3	release
575.867	n/a	RESPONSE	        M5	2	17	F4	release
576.208	n/a	RESPONSE	        M5	2	21	A4	release
576.299	n/a	RESPONSE	        M5	2	05	F3	release
576.511	n/a	RESPONSE	        M5	2	17	F4	press
577.013	n/a	RESPONSE	        M5	2	19	G4	press
577.123	n/a	RESPONSE	        M5	2	17	F4	release
577.207	7.759	FIXCROSS	n/a	n/a	n/a	n/a	n/a
577.266	n/a	RESPONSE	        M5	2	15	D#4	press
577.368	n/a	RESPONSE	        M5	2	19	G4	release
577.457	n/a	RESPONSE	        M5	2	05	F3	press
577.618	n/a	RESPONSE	        M5	2	12	C4	press
577.699	n/a	RESPONSE	        M5	2	15	D#4	release
577.761	n/a	RESPONSE	        M5	2	12	C4	release
577.853	n/a	RESPONSE	        M5	2	05	F3	release
584.965	6.317	CUE_LISTEN	        M1	1	n/a	n/a	n/a
591.282	7.758	FIXCROSS	n/a	n/a	n/a	n/a	n/a
599.04	6.325	CUE_PLAYBACK_RIGHT_HAND	        M1	1	n/a	n/a	n/a
599.551	n/a	RESPONSE	        M1	1	21	A4	press
599.758	n/a	RESPONSE	        M1	1	21	A4	release
599.903	n/a	RESPONSE	        M1	1	21	A4	press
600.118	n/a	RESPONSE	        M1	1	21	A4	release
600.239	n/a	RESPONSE	        M1	1	21	A4	press
600.696	n/a	RESPONSE	        M1	1	21	A4	release
600.877	n/a	RESPONSE	        M1	1	21	A4	press
601.087	n/a	RESPONSE	        M1	1	21	A4	release
601.198	n/a	RESPONSE	        M1	1	21	A4	press
601.403	n/a	RESPONSE	        M1	1	21	A4	release
601.567	n/a	RESPONSE	        M1	1	21	A4	press
602.011	n/a	RESPONSE	        M1	1	21	A4	release
602.223	n/a	RESPONSE	        M1	1	21	A4	press
602.522	n/a	RESPONSE	        M1	1	24	C5	press
602.623	n/a	RESPONSE	        M1	1	21	A4	release
602.934	n/a	RESPONSE	        M1	1	24	C5	release
603.006	n/a	RESPONSE	        M1	1	16	E4	press
603.167	n/a	RESPONSE	        M1	1	16	E4	release
603.508	n/a	RESPONSE	        M1	1	17	F4	press
604.039	n/a	RESPONSE	        M1	1	19	G4	press
604.131	n/a	RESPONSE	        M1	1	17	F4	release
604.222	n/a	RESPONSE	        M1	1	21	A4	press
604.343	n/a	RESPONSE	        M1	1	19	G4	release
605.365	7.758	FIXCROSS	n/a	n/a	n/a	n/a	n/a
605.774	n/a	RESPONSE	        M1	1	21	A4	release
613.123	6.317	CUE_LISTEN	        M1	2	n/a	n/a	n/a
619.44	7.758	FIXCROSS	n/a	n/a	n/a	n/a	n/a
627.198	6.317	CUE_PLAYBACK_RIGHT_HAND	        M1	2	n/a	n/a	n/a
627.994	n/a	RESPONSE	        M1	2	22	A#4	press
628.207	n/a	RESPONSE	        M1	2	22	A#4	release
628.343	n/a	RESPONSE	        M1	2	22	A#4	press
628.557	n/a	RESPONSE	        M1	2	22	A#4	release
628.688	n/a	RESPONSE	        M1	2	22	A#4	press
628.862	n/a	RESPONSE	        M1	2	22	A#4	release
629.003	n/a	RESPONSE	        M1	2	22	A#4	press
629.183	n/a	RESPONSE	        M1	2	22	A#4	release
629.379	n/a	RESPONSE	        M1	2	22	A#4	press
629.611	n/a	RESPONSE	        M1	2	22	A#4	release
630.176	n/a	RESPONSE	        M1	2	22	A#4	press
630.758	n/a	RESPONSE	        M1	2	21	A4	press
630.909	n/a	RESPONSE	        M1	2	22	A#4	release
631.011	n/a	RESPONSE	        M1	2	21	A4	release
631.188	n/a	RESPONSE	        M1	2	21	A4	press
631.383	n/a	RESPONSE	        M1	2	21	A4	release
631.566	n/a	RESPONSE	        M1	2	21	A4	press
631.991	n/a	RESPONSE	        M1	2	24	C5	press
632.122	n/a	RESPONSE	        M1	2	21	A4	release
632.194	n/a	RESPONSE	        M1	2	24	C5	release
632.404	n/a	RESPONSE	        M1	2	24	C5	press
633.077	n/a	RESPONSE	        M1	2	24	C5	release
633.515	7.758	FIXCROSS	n/a	n/a	n/a	n/a	n/a
633.777	n/a	RESPONSE	        M1	2	17	F4	press
634.159	n/a	RESPONSE	        M1	2	17	F4	release
634.519	n/a	RESPONSE	        M1	2	24	C5	press
634.731	n/a	RESPONSE	        M1	2	24	C5	release
634.932	n/a	RESPONSE	        M1	2	24	C5	press
635.363	n/a	RESPONSE	        M1	2	24	C5	release
635.746	n/a	RESPONSE	        M1	2	22	A#4	press
636.267	n/a	RESPONSE	        M1	2	21	A4	press
636.477	n/a	RESPONSE	        M1	2	22	A#4	release
636.669	n/a	RESPONSE	        M1	2	21	A4	release
636.989	n/a	RESPONSE	        M1	2	19	G4	press
637.401	n/a	RESPONSE	        M1	2	21	A4	press
637.474	n/a	RESPONSE	        M1	2	19	G4	release
637.724	n/a	RESPONSE	        M1	2	21	A4	release
641.274	6.317	CUE_LISTEN	        M7	1	n/a	n/a	n/a
647.59	7.758	FIXCROSS	n/a	n/a	n/a	n/a	n/a
655.348	6.325	CUE_PLAYBACK_BOTH_HANDS	        M7	1	n/a	n/a	n/a
655.989	n/a	RESPONSE	        M7	1	00	C3	press
656.031	n/a	RESPONSE	        M7	1	12	C4	press
656.769	n/a	RESPONSE	        M7	1	07	G3	press
656.801	n/a	RESPONSE	        M7	1	14	D4	press
656.882	n/a	RESPONSE	        M7	1	12	C4	release
657.203	n/a	RESPONSE	        M7	1	04	E3	press
657.206	n/a	RESPONSE	        M7	1	16	E4	press
657.316	n/a	RESPONSE	        M7	1	07	G3	release
657.318	n/a	RESPONSE	        M7	1	14	D4	release
657.368	n/a	RESPONSE	        M7	1	00	C3	release
657.629	n/a	RESPONSE	        M7	1	07	G3	press
657.66	n/a	RESPONSE	        M7	1	12	C4	press
657.734	n/a	RESPONSE	        M7	1	16	E4	release
657.743	n/a	RESPONSE	        M7	1	04	E3	release
657.884	n/a	RESPONSE	        M7	1	12	C4	release
657.887	n/a	RESPONSE	        M7	1	07	G3	release
658.048	n/a	RESPONSE	        M7	1	00	C3	press
658.089	n/a	RESPONSE	        M7	1	12	C4	press
658.477	n/a	RESPONSE	        M7	1	07	G3	press
658.489	n/a	RESPONSE	        M7	1	14	D4	press
658.574	n/a	RESPONSE	        M7	1	12	C4	release
658.679	n/a	RESPONSE	        M7	1	00	C3	release
658.863	n/a	RESPONSE	        M7	1	04	E3	press
658.873	n/a	RESPONSE	        M7	1	16	E4	press
658.936	n/a	RESPONSE	        M7	1	07	G3	release
658.959	n/a	RESPONSE	        M7	1	14	D4	release
659.273	n/a	RESPONSE	        M7	1	07	G3	press
659.283	n/a	RESPONSE	        M7	1	12	C4	press
659.393	n/a	RESPONSE	        M7	1	04	E3	release
659.397	n/a	RESPONSE	        M7	1	16	E4	release
659.484	n/a	RESPONSE	        M7	1	12	C4	release
659.509	n/a	RESPONSE	        M7	1	07	G3	release
659.673	n/a	RESPONSE	        M7	1	00	C3	press
659.701	n/a	RESPONSE	        M7	1	16	E4	press
660.078	n/a	RESPONSE	        M7	1	17	F4	press
660.096	n/a	RESPONSE	        M7	1	07	G3	press
660.146	n/a	RESPONSE	        M7	1	16	E4	release
660.424	n/a	RESPONSE	        M7	1	04	E3	press
660.464	n/a	RESPONSE	        M7	1	19	G4	press
660.534	n/a	RESPONSE	        M7	1	17	F4	release
660.537	n/a	RESPONSE	        M7	1	07	G3	release
660.838	n/a	RESPONSE	        M7	1	19	G4	release
660.852	n/a	RESPONSE	        M7	1	07	G3	press
660.923	n/a	RESPONSE	        M7	1	04	E3	release
660.927	n/a	RESPONSE	        M7	1	00	C3	release
661.186	n/a	RESPONSE	        M7	1	07	G3	release
661.261	n/a	RESPONSE	        M7	1	00	C3	press
661.283	n/a	RESPONSE	        M7	1	16	E4	press
661.309	n/a	RESPONSE	        M7	1	17	F4	press
661.421	n/a	RESPONSE	        M7	1	17	F4	release
661.674	7.758	FIXCROSS	n/a	n/a	n/a	n/a	n/a
661.681	n/a	RESPONSE	        M7	1	07	G3	press
661.683	n/a	RESPONSE	        M7	1	17	F4	press
661.814	n/a	RESPONSE	        M7	1	16	E4	release
662.087	n/a	RESPONSE	        M7	1	04	E3	press
662.089	n/a	RESPONSE	        M7	1	19	G4	press
662.159	n/a	RESPONSE	        M7	1	17	F4	release
662.171	n/a	RESPONSE	        M7	1	07	G3	release
662.182	n/a	RESPONSE	        M7	1	00	C3	release
662.493	n/a	RESPONSE	        M7	1	07	G3	press
662.614	n/a	RESPONSE	        M7	1	04	E3	release
662.646	n/a	RESPONSE	        M7	1	19	G4	release
662.897	n/a	RESPONSE	        M7	1	07	G3	release
669.432	6.317	CUE_LISTEN	        M7	2	n/a	n/a	n/a
675.748	7.758	FIXCROSS	n/a	n/a	n/a	n/a	n/a
683.507	6.317	CUE_PLAYBACK_BOTH_HANDS	        M7	2	n/a	n/a	n/a
684.443	n/a	RESPONSE	        M7	2	00	C3	press
684.474	n/a	RESPONSE	        M7	2	19	G4	press
684.773	n/a	RESPONSE	        M7	2	21	A4	press
684.854	n/a	RESPONSE	        M7	2	19	G4	release
685.056	n/a	RESPONSE	        M7	2	07	G3	press
685.058	n/a	RESPONSE	        M7	2	19	G4	press
685.098	n/a	RESPONSE	        M7	2	21	A4	release
685.329	n/a	RESPONSE	        M7	2	17	F4	press
685.621	n/a	RESPONSE	        M7	2	04	E3	press
685.642	n/a	RESPONSE	        M7	2	05	F3	press
685.644	n/a	RESPONSE	        M7	2	16	E4	press
685.706	n/a	RESPONSE	        M7	2	07	G3	release
685.756	n/a	RESPONSE	        M7	2	19	G4	release
685.787	n/a	RESPONSE	        M7	2	05	F3	release
686.238	n/a	RESPONSE	        M7	2	12	C4	press
686.269	n/a	RESPONSE	        M7	2	07	G3	press
686.473	n/a	RESPONSE	        M7	2	04	E3	release
686.492	n/a	RESPONSE	        M7	2	17	F4	release
686.563	n/a	RESPONSE	        M7	2	16	E4	release
686.566	n/a	RESPONSE	        M7	2	07	G3	release
686.576	n/a	RESPONSE	        M7	2	12	C4	release
686.627	n/a	RESPONSE	        M7	2	00	C3	release
686.818	n/a	RESPONSE	        M7	2	19	G4	press
686.839	n/a	RESPONSE	        M7	2	00	C3	press
687.12	n/a	RESPONSE	        M7	2	21	A4	press
687.183	n/a	RESPONSE	        M7	2	19	G4	release
687.403	n/a	RESPONSE	        M7	2	19	G4	press
687.407	n/a	RESPONSE	        M7	2	07	G3	press
687.446	n/a	RESPONSE	        M7	2	21	A4	release
687.697	n/a	RESPONSE	        M7	2	17	F4	press
687.938	n/a	RESPONSE	        M7	2	04	E3	press
687.999	n/a	RESPONSE	        M7	2	16	E4	press
688.04	n/a	RESPONSE	        M7	2	07	G3	release
688.112	n/a	RESPONSE	        M7	2	19	G4	release
688.523	n/a	RESPONSE	        M7	2	12	C4	press
688.533	n/a	RESPONSE	        M7	2	07	G3	press
688.669	n/a	RESPONSE	        M7	2	17	F4	release
688.687	n/a	RESPONSE	        M7	2	04	E3	release
688.788	n/a	RESPONSE	        M7	2	12	C4	release
688.798	n/a	RESPONSE	        M7	2	16	E4	release
688.804	n/a	RESPONSE	        M7	2	07	G3	release
688.844	n/a	RESPONSE	        M7	2	00	C3	release
689.048	n/a	RESPONSE	        M7	2	00	C3	press
689.067	n/a	RESPONSE	        M7	2	12	C4	press
689.566	n/a	RESPONSE	        M7	2	07	G3	press
689.81	n/a	RESPONSE	        M7	2	12	C4	release
689.824	7.758	FIXCROSS	n/a	n/a	n/a	n/a	n/a
689.839	n/a	RESPONSE	        M7	2	07	G3	release
689.888	n/a	RESPONSE	        M7	2	00	C3	release
690.102	n/a	RESPONSE	        M7	2	00	C3	press
690.123	n/a	RESPONSE	        M7	2	12	C4	press
690.871	n/a	RESPONSE	        M7	2	12	C4	release
690.912	n/a	RESPONSE	        M7	2	00	C3	release
691.138	n/a	RESPONSE	        M7	2	00	C3	press
691.156	n/a	RESPONSE	        M7	2	12	C4	press
691.656	n/a	RESPONSE	        M7	2	07	G3	press
691.866	n/a	RESPONSE	        M7	2	12	C4	release
691.899	n/a	RESPONSE	        M7	2	00	C3	release
691.931	n/a	RESPONSE	        M7	2	07	G3	release
692.162	n/a	RESPONSE	        M7	2	00	C3	press
692.173	n/a	RESPONSE	        M7	2	12	C4	press
693.534	n/a	RESPONSE	        M7	2	12	C4	release
693.677	n/a	RESPONSE	        M7	2	00	C3	release
697.582	6.325	CUE_LISTEN	        M4	1	n/a	n/a	n/a
700.693	n/a	RESPONSE	        M4	1	04	E3	press
700.927	n/a	RESPONSE	        M4	1	04	E3	release
703.907	7.758	FIXCROSS	n/a	n/a	n/a	n/a	n/a
711.665	6.317	CUE_PLAYBACK_BOTH_HANDS	        M4	1	n/a	n/a	n/a
712.444	n/a	RESPONSE	        M4	1	04	E3	press
712.486	n/a	RESPONSE	        M4	1	16	E4	press
714.227	n/a	RESPONSE	        M4	1	11	B3	press
714.229	n/a	RESPONSE	        M4	1	21	A4	press
714.349	n/a	RESPONSE	        M4	1	16	E4	release
714.422	n/a	RESPONSE	        M4	1	04	E3	release
714.593	n/a	RESPONSE	        M4	1	18	F#4	press
714.696	n/a	RESPONSE	        M4	1	21	A4	release
714.784	n/a	RESPONSE	        M4	1	18	F#4	release
714.787	n/a	RESPONSE	        M4	1	11	B3	release
715.108	n/a	RESPONSE	        M4	1	04	E3	press
715.119	n/a	RESPONSE	        M4	1	16	E4	press
715.681	n/a	RESPONSE	        M4	1	21	A4	press
715.69	n/a	RESPONSE	        M4	1	09	A3	press
715.732	n/a	RESPONSE	        M4	1	16	E4	release
715.993	n/a	RESPONSE	        M4	1	18	F#4	press
716.094	n/a	RESPONSE	        M4	1	21	A4	release
716.346	n/a	RESPONSE	        M4	1	17	F4	press
716.417	n/a	RESPONSE	        M4	1	16	E4	press
716.428	n/a	RESPONSE	        M4	1	09	A3	release
716.509	n/a	RESPONSE	        M4	1	18	F#4	release
716.77	n/a	RESPONSE	        M4	1	17	F4	release
716.952	n/a	RESPONSE	        M4	1	16	E4	release
717.982	7.758	FIXCROSS	n/a	n/a	n/a	n/a	n/a
718.511	n/a	RESPONSE	        M4	1	04	E3	release
725.74	6.325	CUE_LISTEN	        M4	2	n/a	n/a	n/a
732.065	7.758	FIXCROSS	n/a	n/a	n/a	n/a	n/a
739.824	6.317	CUE_PLAYBACK_BOTH_HANDS	        M4	2	n/a	n/a	n/a
740.434	n/a	RESPONSE	        M4	2	02	D3	press
740.456	n/a	RESPONSE	        M4	2	14	D4	press
740.893	n/a	RESPONSE	        M4	2	02	D3	release
741.036	n/a	RESPONSE	        M4	2	14	D4	release
741.284	n/a	RESPONSE	        M4	2	02	D3	press
741.298	n/a	RESPONSE	        M4	2	23	B4	press
741.307	n/a	RESPONSE	        M4	2	14	D4	press
742.238	n/a	RESPONSE	        M4	2	09	A3	press
742.339	n/a	RESPONSE	        M4	2	14	D4	release
742.82	n/a	RESPONSE	        M4	2	02	D3	release
742.922	n/a	RESPONSE	        M4	2	02	D3	press
743.783	n/a	RESPONSE	        M4	2	03	D#3	press
743.824	n/a	RESPONSE	        M4	2	09	A3	release
743.846	n/a	RESPONSE	        M4	2	14	D4	press
744.727	n/a	RESPONSE	        M4	2	18	F#4	press
744.729	n/a	RESPONSE	        M4	2	09	A3	press
744.839	n/a	RESPONSE	        M4	2	23	B4	release
744.872	n/a	RESPONSE	        M4	2	14	D4	release
744.972	n/a	RESPONSE	        M4	2	03	D#3	release
745.293	n/a	RESPONSE	        M4	2	14	D4	press
745.374	n/a	RESPONSE	        M4	2	09	A3	release
745.398	n/a	RESPONSE	        M4	2	05	F3	press
745.867	n/a	RESPONSE	        M4	2	08	G#3	press
745.908	n/a	RESPONSE	        M4	2	09	A3	press
745.949	n/a	RESPONSE	        M4	2	10	A#3	press
745.96	n/a	RESPONSE	        M4	2	05	F3	release
746.034	n/a	RESPONSE	        M4	2	14	D4	release
746.14	7.758	FIXCROSS	n/a	n/a	n/a	n/a	n/a
746.203	n/a	RESPONSE	        M4	2	08	G#3	release
746.266	n/a	RESPONSE	        M4	2	10	A#3	release
746.547	n/a	RESPONSE	        M4	2	09	A3	release
746.558	n/a	RESPONSE	        M4	2	18	F#4	release
746.888	n/a	RESPONSE	        M4	2	04	E3	press
747.509	n/a	RESPONSE	        M4	2	04	E3	release
748.05	n/a	RESPONSE	        M4	2	02	D3	release
753.899	6.317	CUE_LISTEN	        M2	1	n/a	n/a	n/a
760.215	7.758	FIXCROSS	n/a	n/a	n/a	n/a	n/a
767.974	6.325	CUE_PLAYBACK_RIGHT_HAND	        M2	1	n/a	n/a	n/a
768.627	n/a	RESPONSE	        M2	1	24	C5	press
769.018	n/a	RESPONSE	        M2	1	19	G4	press
769.174	n/a	RESPONSE	        M2	1	24	C5	release
769.258	n/a	RESPONSE	        M2	1	19	G4	release
769.428	n/a	RESPONSE	        M2	1	19	G4	press
769.756	n/a	RESPONSE	        M2	1	17	F4	press
769.829	n/a	RESPONSE	        M2	1	19	G4	release
770.164	n/a	RESPONSE	        M2	1	16	E4	press
770.249	n/a	RESPONSE	        M2	1	17	F4	release
770.506	n/a	RESPONSE	        M2	1	17	F4	press
770.622	n/a	RESPONSE	        M2	1	16	E4	release
771.003	n/a	RESPONSE	        M2	1	19	G4	press
771.09	n/a	RESPONSE	        M2	1	17	F4	release
771.54	n/a	RESPONSE	        M2	1	19	G4	release
771.848	n/a	RESPONSE	        M2	1	24	C5	press
772.413	n/a	RESPONSE	        M2	1	24	C5	release
772.507	n/a	RESPONSE	        M2	1	24	C5	press
772.916	n/a	RESPONSE	        M2	1	19	G4	press
773.047	n/a	RESPONSE	        M2	1	24	C5	release
773.209	n/a	RESPONSE	        M2	1	19	G4	release
773.929	n/a	RESPONSE	        M2	1	19	G4	press
774.299	7.758	FIXCROSS	n/a	n/a	n/a	n/a	n/a
774.31	n/a	RESPONSE	        M2	1	17	F4	press
774.392	n/a	RESPONSE	        M2	1	19	G4	release
774.704	n/a	RESPONSE	        M2	1	16	E4	press
774.886	n/a	RESPONSE	        M2	1	17	F4	release
775.097	n/a	RESPONSE	        M2	1	14	D4	press
775.367	n/a	RESPONSE	        M2	1	16	E4	release
775.508	n/a	RESPONSE	        M2	1	16	E4	press
775.599	n/a	RESPONSE	        M2	1	14	D4	release
776.1	n/a	RESPONSE	        M2	1	16	E4	release
776.302	n/a	RESPONSE	        M2	1	14	D4	press
776.743	n/a	RESPONSE	        M2	1	12	C4	press
776.854	n/a	RESPONSE	        M2	1	14	D4	release
777.817	n/a	RESPONSE	        M2	1	12	C4	release
782.057	6.317	CUE_LISTEN	        M2	2	n/a	n/a	n/a
788.374	7.758	FIXCROSS	n/a	n/a	n/a	n/a	n/a
796.132	6.317	CUE_PLAYBACK_RIGHT_HAND	        M2	2	n/a	n/a	n/a
796.938	n/a	RESPONSE	        M2	2	12	C4	press
797.322	n/a	RESPONSE	        M2	2	14	D4	press
797.55	n/a	RESPONSE	        M2	2	12	C4	release
797.734	n/a	RESPONSE	        M2	2	16	E4	press
797.833	n/a	RESPONSE	        M2	2	14	D4	release
798.107	n/a	RESPONSE	        M2	2	14	D4	press
798.157	n/a	RESPONSE	        M2	2	16	E4	release
798.454	n/a	RESPONSE	        M2	2	16	E4	press
798.519	n/a	RESPONSE	        M2	2	14	D4	release
798.794	n/a	RESPONSE	        M2	2	17	F4	press
798.886	n/a	RESPONSE	        M2	2	16	E4	release
799.208	n/a	RESPONSE	        M2	2	19	G4	press
799.306	n/a	RESPONSE	        M2	2	17	F4	release
799.707	n/a	RESPONSE	        M2	2	19	G4	release
799.969	n/a	RESPONSE	        M2	2	16	E4	press
800.374	n/a	RESPONSE	        M2	2	19	G4	press
800.427	n/a	RESPONSE	        M2	2	16	E4	release
800.589	n/a	RESPONSE	        M2	2	19	G4	release
800.784	n/a	RESPONSE	        M2	2	19	G4	press
801.117	n/a	RESPONSE	        M2	2	17	F4	press
801.217	n/a	RESPONSE	        M2	2	19	G4	release
801.503	n/a	RESPONSE	        M2	2	16	E4	press
801.627	n/a	RESPONSE	        M2	2	17	F4	release
801.867	n/a	RESPONSE	        M2	2	14	D4	press
802.048	n/a	RESPONSE	        M2	2	16	E4	release
802.287	n/a	RESPONSE	        M2	2	12	C4	press
802.449	7.758	FIXCROSS	n/a	n/a	n/a	n/a	n/a
802.558	n/a	RESPONSE	        M2	2	14	D4	release
803.639	n/a	RESPONSE	        M2	2	12	C4	release
810.207	6.325	CUE_LISTEN	        M8	1	n/a	n/a	n/a
816.532	7.758	FIXCROSS	n/a	n/a	n/a	n/a	n/a
824.29	6.317	CUE_PLAYBACK_RIGHT_HAND	        M8	1	n/a	n/a	n/a
824.952	n/a	RESPONSE	        M8	1	16	E4	press
825.203	n/a	RESPONSE	        M8	1	19	G4	press
825.444	n/a	RESPONSE	        M8	1	16	E4	release
825.516	n/a	RESPONSE	        M8	1	23	B4	press
825.637	n/a	RESPONSE	        M8	1	19	G4	release
825.778	n/a	RESPONSE	        M8	1	23	B4	release
826.052	n/a	RESPONSE	        M8	1	23	B4	press
826.71	n/a	RESPONSE	        M8	1	18	F#4	press
826.774	n/a	RESPONSE	        M8	1	23	B4	release
827.323	n/a	RESPONSE	        M8	1	23	B4	press
827.404	n/a	RESPONSE	        M8	1	18	F#4	release
827.776	n/a	RESPONSE	        M8	1	23	B4	release
827.847	n/a	RESPONSE	        M8	1	18	F#4	press
828.414	n/a	RESPONSE	        M8	1	19	G4	press
828.78	n/a	RESPONSE	        M8	1	18	F#4	release
828.877	n/a	RESPONSE	        M8	1	19	G4	release
829.193	n/a	RESPONSE	        M8	1	18	F#4	press
829.483	n/a	RESPONSE	        M8	1	21	A4	press
829.589	n/a	RESPONSE	        M8	1	18	F#4	release
830.248	n/a	RESPONSE	        M8	1	21	A4	release
830.607	7.758	FIXCROSS	n/a	n/a	n/a	n/a	n/a
831.016	n/a	RESPONSE	        M8	1	23	B4	press
831.627	n/a	RESPONSE	        M8	1	21	A4	press
831.676	n/a	RESPONSE	        M8	1	23	B4	release
831.84	n/a	RESPONSE	        M8	1	19	G4	press
831.97	n/a	RESPONSE	        M8	1	21	A4	release
832.334	n/a	RESPONSE	        M8	1	18	F#4	press
832.463	n/a	RESPONSE	        M8	1	19	G4	release
832.774	n/a	RESPONSE	        M8	1	16	E4	press
832.876	n/a	RESPONSE	        M8	1	18	F#4	release
834.369	n/a	RESPONSE	        M8	1	18	F#4	press
834.408	n/a	RESPONSE	        M8	1	16	E4	release
834.732	n/a	RESPONSE	        M8	1	18	F#4	release
835.96	n/a	RESPONSE	        M8	1	19	G4	press
836.352	n/a	RESPONSE	        M8	1	19	G4	release
836.373	n/a	RESPONSE	        M8	1	16	E4	press
837.097	n/a	RESPONSE	        M8	1	16	E4	release
838.366	6.317	CUE_LISTEN	        M8	2	n/a	n/a	n/a
844.682	7.758	FIXCROSS	n/a	n/a	n/a	n/a	n/a
852.441	6.325	CUE_PLAYBACK_RIGHT_HAND	        M8	2	n/a	n/a	n/a
853.103	n/a	RESPONSE	        M8	2	16	E4	press
853.424	n/a	RESPONSE	        M8	2	17	F4	press
853.706	n/a	RESPONSE	        M8	2	16	E4	release
853.777	n/a	RESPONSE	        M8	2	17	F4	release
853.979	n/a	RESPONSE	        M8	2	16	E4	press
854.24	n/a	RESPONSE	        M8	2	19	G4	press
854.47	n/a	RESPONSE	        M8	2	16	E4	release
854.572	n/a	RESPONSE	        M8	2	23	B4	press
854.674	n/a	RESPONSE	        M8	2	19	G4	release
854.874	n/a	RESPONSE	        M8	2	23	B4	release
855.137	n/a	RESPONSE	        M8	2	23	B4	press
855.678	n/a	RESPONSE	        M8	2	18	F#4	press
855.76	n/a	RESPONSE	        M8	2	23	B4	release
856.269	n/a	RESPONSE	        M8	2	21	A4	press
856.33	n/a	RESPONSE	        M8	2	18	F#4	release
857.412	n/a	RESPONSE	        M8	2	23	B4	press
857.515	n/a	RESPONSE	        M8	2	21	A4	release
858.094	n/a	RESPONSE	        M8	2	21	A4	press
858.165	n/a	RESPONSE	        M8	2	23	B4	release
858.345	n/a	RESPONSE	        M8	2	19	G4	press
858.527	n/a	RESPONSE	        M8	2	21	A4	release
858.61	n/a	RESPONSE	        M8	2	18	F#4	press
858.688	n/a	RESPONSE	        M8	2	19	G4	release
858.766	7.759	FIXCROSS	n/a	n/a	n/a	n/a	n/a
858.913	n/a	RESPONSE	        M8	2	19	G4	press
859.027	n/a	RESPONSE	        M8	2	18	F#4	release
859.484	n/a	RESPONSE	        M8	2	16	E4	press
859.586	n/a	RESPONSE	        M8	2	19	G4	release
861.403	n/a	RESPONSE	        M8	2	16	E4	release
866.524	6.317	CUE_LISTEN	        M6	1	n/a	n/a	n/a
872.841	7.758	FIXCROSS	n/a	n/a	n/a	n/a	n/a
880.599	6.317	CUE_PLAYBACK_BOTH_HANDS	        M6	1	n/a	n/a	n/a
881.272	n/a	RESPONSE	        M6	1	05	F3	press
881.278	n/a	RESPONSE	        M6	1	12	C4	press
881.28	n/a	RESPONSE	        M6	1	09	A3	press
881.768	n/a	RESPONSE	        M6	1	17	F4	press
882.147	n/a	RESPONSE	        M6	1	21	A4	press
882.228	n/a	RESPONSE	        M6	1	17	F4	release
882.51	n/a	RESPONSE	        M6	1	19	G4	press
882.61	n/a	RESPONSE	        M6	1	21	A4	release
882.862	n/a	RESPONSE	        M6	1	17	F4	press
883.093	n/a	RESPONSE	        M6	1	19	G4	release
883.204	n/a	RESPONSE	        M6	1	16	E4	press
883.348	n/a	RESPONSE	        M6	1	17	F4	release
883.577	n/a	RESPONSE	        M6	1	17	F4	press
883.649	n/a	RESPONSE	        M6	1	16	E4	release
883.982	n/a	RESPONSE	        M6	1	17	F4	release
884.06	n/a	RESPONSE	        M6	1	09	A3	release
884.103	n/a	RESPONSE	        M6	1	05	F3	release
884.193	n/a	RESPONSE	        M6	1	12	C4	release
884.304	n/a	RESPONSE	        M6	1	12	C4	press
884.355	n/a	RESPONSE	        M6	1	09	A3	press
884.397	n/a	RESPONSE	        M6	1	05	F3	press
884.718	n/a	RESPONSE	        M6	1	17	F4	press
885.09	n/a	RESPONSE	        M6	1	21	A4	press
885.093	n/a	RESPONSE	        M6	1	23	B4	press
885.162	n/a	RESPONSE	        M6	1	17	F4	release
885.245	n/a	RESPONSE	        M6	1	23	B4	release
885.494	n/a	RESPONSE	        M6	1	19	G4	press
885.595	n/a	RESPONSE	        M6	1	21	A4	release
885.839	n/a	RESPONSE	        M6	1	17	F4	press
885.979	n/a	RESPONSE	        M6	1	19	G4	release
886.179	n/a	RESPONSE	        M6	1	16	E4	press
886.28	n/a	RESPONSE	        M6	1	17	F4	release
886.552	n/a	RESPONSE	        M6	1	17	F4	press
886.633	n/a	RESPONSE	        M6	1	16	E4	release
886.916	7.758	FIXCROSS	n/a	n/a	n/a	n/a	n/a
887.744	n/a	RESPONSE	        M6	1	17	F4	release
887.955	n/a	RESPONSE	        M6	1	09	A3	release
889.249	n/a	RESPONSE	        M6	1	05	F3	release
889.472	n/a	RESPONSE	        M6	1	12	C4	release
894.674	6.325	CUE_LISTEN	        M6	2	n/a	n/a	n/a
900.999	7.758	FIXCROSS	n/a	n/a	n/a	n/a	n/a
908.757	192.814	CUE_PLAYBACK_BOTH_HANDS	        M6	2	n/a	n/a	n/a
909.352	n/a	RESPONSE	        M6	2	05	F3	press
909.354	n/a	RESPONSE	        M6	2	09	A3	press
909.357	n/a	RESPONSE	        M6	2	12	C4	press
909.824	n/a	RESPONSE	        M6	2	17	F4	press
910.552	n/a	RESPONSE	        M6	2	19	G4	press
910.923	n/a	RESPONSE	        M6	2	19	G4	release
911.098	n/a	RESPONSE	        M6	2	17	F4	release
911.114	n/a	RESPONSE	        M6	2	09	A3	release
911.143	n/a	RESPONSE	        M6	2	05	F3	release
911.178	n/a	RESPONSE	        M6	2	12	C4	release
911.53	n/a	RESPONSE	        M6	2	12	C4	press
911.575	n/a	RESPONSE	        M6	2	09	A3	press
911.592	n/a	RESPONSE	        M6	2	05	F3	press
911.973	n/a	RESPONSE	        M6	2	17	F4	press
912.414	n/a	RESPONSE	        M6	2	21	A4	press
912.573	n/a	RESPONSE	        M6	2	17	F4	release
913.253	n/a	FIXCROSS	n/a	n/a	n/a	n/a	n/a
913.614	n/a	RESPONSE	        M6	2	22	A#4	press
913.747	n/a	RESPONSE	        M6	2	21	A4	release
913.927	n/a	RESPONSE	        M6	2	05	F3	release
913.948	n/a	RESPONSE	        M6	2	09	A3	release
913.962	n/a	RESPONSE	        M6	2	12	C4	release
914.342	n/a	RESPONSE	        M6	2	22	A#4	release
915.152	n/a	RESPONSE	        M6	2	24	C5	press
915.154	n/a	RESPONSE	        M6	2	05	F3	press
915.174	n/a	RESPONSE	        M6	2	09	A3	press
915.765	n/a	RESPONSE	        M6	2	24	C5	release
915.847	n/a	RESPONSE	        M6	2	09	A3	release
915.849	n/a	RESPONSE	        M6	2	05	F3	release
