onset	duration	trial_type	braille_stimulus	targets	response_count
2.016	2.008	CUE_REST	n/a	n/a	n/a
7.016	1.008	FIXCROSS	n/a	n/a	n/a
13.066	1.008	FIXCROSS	n/a	n/a	n/a
21.124	2.008	CUE_6_DOT	n/a	n/a	n/a
26.124	1.008	FIXCROSS	n/a	n/a	n/a
27.141	5.008	6_DOT_DETECTION	C#CEŁ	1	n/a
31.136	n/a	RESPONSE	n/a	n/a	1/1
32.174	1.008	FIXCROSS	n/a	n/a	n/a
33.191	5.008	6_DOT_DETECTION	ITŁEM	0	n/a
38.224	1.008	FIXCROSS	n/a	n/a	n/a
39.241	5.008	6_DOT_DETECTION	TEK##	2	n/a
41.88	n/a	RESPONSE	n/a	n/a	1/2
42.256	n/a	RESPONSE	n/a	n/a	2/2
44.274	1.008	FIXCROSS	n/a	n/a	n/a
45.291	5.008	6_DOT_DETECTION	O#LAS	1	n/a
47.296	n/a	RESPONSE	n/a	n/a	1/1
50.324	1.008	FIXCROSS	n/a	n/a	n/a
51.341	5.009	6_DOT_DETECTION	KOP#M	1	n/a
54.0	n/a	RESPONSE	n/a	n/a	1/1
56.374	1.008	FIXCROSS	n/a	n/a	n/a
57.391	5.009	6_DOT_DETECTION	SB#OL	1	n/a
59.296	n/a	RESPONSE	n/a	n/a	1/1
62.424	1.008	FIXCROSS	n/a	n/a	n/a
63.441	5.008	6_DOT_DETECTION	##KAT	2	n/a
64.856	n/a	RESPONSE	n/a	n/a	1/2
65.696	n/a	RESPONSE	n/a	n/a	2/2
68.475	1.008	FIXCROSS	n/a	n/a	n/a
69.491	5.008	6_DOT_DETECTION	DTIDI	0	n/a
76.033	2.008	CUE_REST	n/a	n/a	n/a
82.533	1.008	FIXCROSS	n/a	n/a	n/a
88.583	1.008	FIXCROSS	n/a	n/a	n/a
95.641	2.008	CUE_6_DOT	n/a	n/a	n/a
100.641	1.008	FIXCROSS	n/a	n/a	n/a
101.658	5.008	6_DOT_DETECTION	BUT##	2	n/a
104.216	n/a	RESPONSE	n/a	n/a	1/2
104.96	n/a	RESPONSE	n/a	n/a	2/2
106.691	1.008	FIXCROSS	n/a	n/a	n/a
107.708	5.008	6_DOT_DETECTION	APD#C	1	n/a
110.28	n/a	RESPONSE	n/a	n/a	1/1
112.741	1.008	FIXCROSS	n/a	n/a	n/a
113.758	5.008	6_DOT_DETECTION	EUBEC	0	n/a
118.791	1.008	FIXCROSS	n/a	n/a	n/a
119.808	5.009	6_DOT_DETECTION	KMŁKM	0	n/a
124.841	1.008	FIXCROSS	n/a	n/a	n/a
125.858	5.008	6_DOT_DETECTION	#PSU#	2	n/a
127.12	n/a	RESPONSE	n/a	n/a	1/2
128.736	n/a	RESPONSE	n/a	n/a	2/2
130.891	1.008	FIXCROSS	n/a	n/a	n/a
131.908	5.008	6_DOT_DETECTION	PMSKK	0	n/a
136.941	1.008	FIXCROSS	n/a	n/a	n/a
137.958	5.008	6_DOT_DETECTION	T#BUD	1	n/a
139.936	n/a	RESPONSE	n/a	n/a	1/1
142.992	1.008	FIXCROSS	n/a	n/a	n/a
144.008	5.008	6_DOT_DETECTION	#KMBŁ	1	n/a
145.656	n/a	RESPONSE	n/a	n/a	1/1
150.55	2.008	CUE_REST	n/a	n/a	n/a
155.05	1.008	FIXCROSS	n/a	n/a	n/a
161.1	1.008	FIXCROSS	n/a	n/a	n/a
168.658	2.008	CUE_6_DOT	n/a	n/a	n/a
175.158	1.008	FIXCROSS	n/a	n/a	n/a
176.174	5.009	6_DOT_DETECTION	A#ŁAP	1	n/a
178.08	n/a	RESPONSE	n/a	n/a	1/1
179.44	n/a	RESPONSE	n/a	n/a	2/1
181.208	1.008	FIXCROSS	n/a	n/a	n/a
182.225	5.008	6_DOT_DETECTION	TYŁ##	2	n/a
185.12	n/a	RESPONSE	n/a	n/a	1/2
185.8	n/a	RESPONSE	n/a	n/a	2/2
187.258	1.008	FIXCROSS	n/a	n/a	n/a
188.275	5.008	6_DOT_DETECTION	TOK##	2	n/a
191.0	n/a	RESPONSE	n/a	n/a	1/2
191.84	n/a	RESPONSE	n/a	n/a	2/2
193.308	1.008	FIXCROSS	n/a	n/a	n/a
194.325	5.008	6_DOT_DETECTION	DBA#C	1	n/a
197.096	n/a	RESPONSE	n/a	n/a	1/1
199.358	1.008	FIXCROSS	n/a	n/a	n/a
200.375	5.008	6_DOT_DETECTION	KTIŁŁ	0	n/a
205.408	1.008	FIXCROSS	n/a	n/a	n/a
206.425	5.008	6_DOT_DETECTION	BLCLK	0	n/a
211.458	1.008	FIXCROSS	n/a	n/a	n/a
212.475	5.008	6_DOT_DETECTION	ESY##	2	n/a
215.416	n/a	RESPONSE	n/a	n/a	1/2
216.216	n/a	RESPONSE	n/a	n/a	2/2
217.508	1.008	FIXCROSS	n/a	n/a	n/a
218.525	5.008	6_DOT_DETECTION	STO#E	1	n/a
221.28	n/a	RESPONSE	n/a	n/a	1/1
225.567	2.008	CUE_REST	n/a	n/a	n/a
229.567	1.008	FIXCROSS	n/a	n/a	n/a
235.617	1.008	FIXCROSS	n/a	n/a	n/a
243.675	2.008	CUE_6_DOT	n/a	n/a	n/a
249.675	1.008	FIXCROSS	n/a	n/a	n/a
250.692	5.008	6_DOT_DETECTION	#ULE#	2	n/a
254.08	n/a	RESPONSE	n/a	n/a	1/2
255.725	1.008	FIXCROSS	n/a	n/a	n/a
256.742	5.008	6_DOT_DETECTION	#SAD#	2	n/a
258.36	n/a	RESPONSE	n/a	n/a	1/2
259.96	n/a	RESPONSE	n/a	n/a	2/2
261.775	1.008	FIXCROSS	n/a	n/a	n/a
262.792	5.008	6_DOT_DETECTION	AŁDLK	0	n/a
267.825	1.008	FIXCROSS	n/a	n/a	n/a
268.842	5.008	6_DOT_DETECTION	##PYŁ	2	n/a
270.64	n/a	RESPONSE	n/a	n/a	1/2
271.32	n/a	RESPONSE	n/a	n/a	2/2
273.875	1.008	FIXCROSS	n/a	n/a	n/a
274.892	5.008	6_DOT_DETECTION	ŁPPTY	0	n/a
279.925	1.008	FIXCROSS	n/a	n/a	n/a
280.942	5.008	6_DOT_DETECTION	ŁY#SE	1	n/a
283.376	n/a	RESPONSE	n/a	n/a	1/1
285.975	1.008	FIXCROSS	n/a	n/a	n/a
286.992	5.008	6_DOT_DETECTION	CIKUE	0	n/a
292.025	1.008	FIXCROSS	n/a	n/a	n/a
293.041	5.009	6_DOT_DETECTION	P#ŁUY	1	n/a
294.936	n/a	RESPONSE	n/a	n/a	1/1
299.084	2.008	CUE_REST	n/a	n/a	n/a
305.084	1.008	FIXCROSS	n/a	n/a	n/a
311.134	1.008	FIXCROSS	n/a	n/a	n/a
318.692	2.008	CUE_6_DOT	n/a	n/a	n/a
324.192	1.008	FIXCROSS	n/a	n/a	n/a
325.209	5.008	6_DOT_DETECTION	LLACB	0	n/a
330.242	1.008	FIXCROSS	n/a	n/a	n/a
331.259	5.008	6_DOT_DETECTION	OAICU	0	n/a
336.292	1.008	FIXCROSS	n/a	n/a	n/a
337.309	5.008	6_DOT_DETECTION	#MIS#	2	n/a
338.76	n/a	RESPONSE	n/a	n/a	1/2
340.256	n/a	RESPONSE	n/a	n/a	2/2
342.342	1.008	FIXCROSS	n/a	n/a	n/a
343.359	5.008	6_DOT_DETECTION	ŁCDCA	0	n/a
348.392	1.008	FIXCROSS	n/a	n/a	n/a
349.408	5.009	6_DOT_DETECTION	Y#LEK	1	n/a
351.32	n/a	RESPONSE	n/a	n/a	1/1
354.442	1.008	FIXCROSS	n/a	n/a	n/a
355.458	5.009	6_DOT_DETECTION	TAK#P	1	n/a
358.32	n/a	RESPONSE	n/a	n/a	1/1
360.492	1.008	FIXCROSS	n/a	n/a	n/a
361.509	5.008	6_DOT_DETECTION	LSC##	2	n/a
364.176	n/a	RESPONSE	n/a	n/a	1/2
364.856	n/a	RESPONSE	n/a	n/a	2/2
366.542	1.008	FIXCROSS	n/a	n/a	n/a
367.559	5.008	6_DOT_DETECTION	BSEBL	0	n/a
373.6	2.008	CUE_REST	n/a	n/a	n/a
380.6	1.008	FIXCROSS	n/a	n/a	n/a
386.651	1.008	FIXCROSS	n/a	n/a	n/a
393.709	2.008	CUE_6_DOT	n/a	n/a	n/a
398.709	1.008	FIXCROSS	n/a	n/a	n/a
399.726	5.008	6_DOT_DETECTION	#DAT#	2	n/a
401.28	n/a	RESPONSE	n/a	n/a	1/2
403.0	n/a	RESPONSE	n/a	n/a	2/2
404.759	1.008	FIXCROSS	n/a	n/a	n/a
405.775	5.009	6_DOT_DETECTION	YEAAK	0	n/a
410.809	1.008	FIXCROSS	n/a	n/a	n/a
411.826	5.008	6_DOT_DETECTION	##IEY	2	n/a
413.416	n/a	RESPONSE	n/a	n/a	1/2
414.24	n/a	RESPONSE	n/a	n/a	2/2
416.859	1.008	FIXCROSS	n/a	n/a	n/a
417.876	5.008	6_DOT_DETECTION	SOK#Ł	1	n/a
420.32	n/a	RESPONSE	n/a	n/a	1/1
422.909	1.008	FIXCROSS	n/a	n/a	n/a
423.926	5.008	6_DOT_DETECTION	##MAK	2	n/a
425.496	n/a	RESPONSE	n/a	n/a	1/2
426.16	n/a	RESPONSE	n/a	n/a	2/2
428.959	1.008	FIXCROSS	n/a	n/a	n/a
429.976	5.008	6_DOT_DETECTION	OYŁ#Ł	1	n/a
432.976	n/a	RESPONSE	n/a	n/a	1/1
435.009	1.008	FIXCROSS	n/a	n/a	n/a
436.026	5.008	6_DOT_DETECTION	##POP	2	n/a
437.84	n/a	RESPONSE	n/a	n/a	1/2
438.48	n/a	RESPONSE	n/a	n/a	2/2
441.059	1.008	FIXCROSS	n/a	n/a	n/a
442.076	5.008	6_DOT_DETECTION	ŁSCPT	0	n/a
