onset	duration	trial_type	melody_number	melody_part	key	sound	action
0.0	14.087	CUE_START	n/a	n/a	n/a	n/a	n/a
14.088	7.76	FIXCROSS	n/a	n/a	n/a	n/a	n/a
21.847	6.316	CUE_LISTEN	M4	1	n/a	n/a	n/a
28.162	7.758	FIXCROSS	n/a	n/a	n/a	n/a	n/a
35.921	6.317	CUE_PLAYBACK_RIGHT_HAND	M4	1	n/a	n/a	n/a
36.59	n/a	RESPONSE	M4	1	21	A4	press
36.801	n/a	RESPONSE	M4	1	21	A4	release
36.842	n/a	RESPONSE	M4	1	21	A4	press
37.045	n/a	RESPONSE	M4	1	21	A4	release
37.165	n/a	RESPONSE	M4	1	21	A4	press
37.606	n/a	RESPONSE	M4	1	21	A4	release
37.737	n/a	RESPONSE	M4	1	21	A4	press
37.938	n/a	RESPONSE	M4	1	21	A4	release
38.012	n/a	RESPONSE	M4	1	21	A4	press
38.191	n/a	RESPONSE	M4	1	21	A4	release
38.322	n/a	RESPONSE	M4	1	21	A4	press
38.724	n/a	RESPONSE	M4	1	21	A4	release
38.945	n/a	RESPONSE	M4	1	21	A4	press
39.306	n/a	RESPONSE	M4	1	22	A#4	press
39.35	n/a	RESPONSE	M4	1	21	A4	release
39.72	n/a	RESPONSE	M4	1	22	A#4	release
39.976	n/a	RESPONSE	M4	1	21	A4	press
40.291	n/a	RESPONSE	M4	1	24	C5	press
40.347	n/a	RESPONSE	M4	1	21	A4	release
40.628	n/a	RESPONSE	M4	1	17	F4	press
40.761	n/a	RESPONSE	M4	1	24	C5	release
40.97	n/a	RESPONSE	M4	1	19	G4	press
41.045	n/a	RESPONSE	M4	1	17	F4	release
41.294	n/a	RESPONSE	M4	1	21	A4	press
41.361	n/a	RESPONSE	M4	1	19	G4	release
42.238	7.758	FIXCROSS	n/a	n/a	n/a	n/a	n/a
42.411	n/a	RESPONSE	M4	1	21	A4	release
49.996	6.325	CUE_LISTEN	M4	2	n/a	n/a	n/a
56.321	7.759	FIXCROSS	n/a	n/a	n/a	n/a	n/a
64.079	6.317	CUE_PLAYBACK_RIGHT_HAND	M4	2	n/a	n/a	n/a
64.792	n/a	RESPONSE	M4	2	22	A#4	press
64.976	n/a	RESPONSE	M4	2	22	A#4	release
65.055	n/a	RESPONSE	M4	2	22	A#4	press
65.246	n/a	RESPONSE	M4	2	22	A#4	release
65.359	n/a	RESPONSE	M4	2	22	A#4	press
65.53	n/a	RESPONSE	M4	2	22	A#4	release
65.662	n/a	RESPONSE	M4	2	22	A#4	press
65.881	n/a	RESPONSE	M4	2	22	A#4	release
65.962	n/a	RESPONSE	M4	2	21	A4	press
66.144	n/a	RESPONSE	M4	2	21	A4	release
66.655	n/a	RESPONSE	M4	2	21	A4	press
66.846	n/a	RESPONSE	M4	2	21	A4	release
67.047	n/a	RESPONSE	M4	2	21	A4	press
67.228	n/a	RESPONSE	M4	2	21	A4	release
67.41	n/a	RESPONSE	M4	2	21	A4	press
67.611	n/a	RESPONSE	M4	2	21	A4	release
67.762	n/a	RESPONSE	M4	2	19	G4	press
67.954	n/a	RESPONSE	M4	2	19	G4	release
68.126	n/a	RESPONSE	M4	2	19	G4	press
68.316	n/a	RESPONSE	M4	2	19	G4	release
68.687	n/a	RESPONSE	M4	2	21	A4	press
68.928	n/a	RESPONSE	M4	2	21	A4	release
69.102	n/a	RESPONSE	M4	2	19	G4	press
69.72	n/a	RESPONSE	M4	2	19	G4	release
69.794	n/a	RESPONSE	M4	2	24	C5	press
70.396	7.758	FIXCROSS	n/a	n/a	n/a	n/a	n/a
70.406	n/a	RESPONSE	M4	2	24	C5	release
78.154	6.325	CUE_LISTEN	M1	1	n/a	n/a	n/a
84.479	7.758	FIXCROSS	n/a	n/a	n/a	n/a	n/a
92.238	6.317	CUE_PLAYBACK_RIGHT_HAND	M1	1	n/a	n/a	n/a
92.996	n/a	RESPONSE	M1	1	21	A4	press
93.157	n/a	RESPONSE	M1	1	21	A4	release
93.27	n/a	RESPONSE	M1	1	21	A4	press
93.421	n/a	RESPONSE	M1	1	21	A4	release
93.542	n/a	RESPONSE	M1	1	21	A4	press
93.914	n/a	RESPONSE	M1	1	21	A4	release
94.106	n/a	RESPONSE	M1	1	21	A4	press
94.276	n/a	RESPONSE	M1	1	21	A4	release
94.357	n/a	RESPONSE	M1	1	21	A4	press
94.518	n/a	RESPONSE	M1	1	21	A4	release
94.67	n/a	RESPONSE	M1	1	21	A4	press
95.031	n/a	RESPONSE	M1	1	21	A4	release
95.264	n/a	RESPONSE	M1	1	21	A4	press
95.874	n/a	RESPONSE	M1	1	24	C5	press
95.955	n/a	RESPONSE	M1	1	21	A4	release
96.286	n/a	RESPONSE	M1	1	17	F4	press
96.407	n/a	RESPONSE	M1	1	24	C5	release
96.6	n/a	RESPONSE	M1	1	19	G4	press
96.721	n/a	RESPONSE	M1	1	17	F4	release
96.904	n/a	RESPONSE	M1	1	21	A4	press
96.994	n/a	RESPONSE	M1	1	19	G4	release
97.636	n/a	RESPONSE	M1	1	21	A4	release
98.554	7.758	FIXCROSS	n/a	n/a	n/a	n/a	n/a
106.313	6.317	CUE_LISTEN	M1	2	n/a	n/a	n/a
112.629	7.758	FIXCROSS	n/a	n/a	n/a	n/a	n/a
120.388	6.317	CUE_PLAYBACK_RIGHT_HAND	M1	2	n/a	n/a	n/a
121.374	n/a	RESPONSE	M1	2	22	A#4	press
121.788	n/a	RESPONSE	M1	2	22	A#4	release
121.888	n/a	RESPONSE	M1	2	22	A#4	press
122.065	n/a	RESPONSE	M1	2	22	A#4	release
122.206	n/a	RESPONSE	M1	2	22	A#4	press
122.388	n/a	RESPONSE	M1	2	22	A#4	release
122.531	n/a	RESPONSE	M1	2	22	A#4	press
122.705	n/a	RESPONSE	M1	2	22	A#4	release
122.894	n/a	RESPONSE	M1	2	22	A#4	press
123.22	n/a	RESPONSE	M1	2	22	A#4	release
123.351	n/a	RESPONSE	M1	2	21	A4	press
123.544	n/a	RESPONSE	M1	2	21	A4	release
123.724	n/a	RESPONSE	M1	2	21	A4	press
123.925	n/a	RESPONSE	M1	2	21	A4	release
124.116	n/a	RESPONSE	M1	2	21	A4	press
124.327	n/a	RESPONSE	M1	2	21	A4	release
124.7	n/a	RESPONSE	M1	2	24	C5	press
124.94	n/a	RESPONSE	M1	2	24	C5	release
125.151	n/a	RESPONSE	M1	2	24	C5	press
125.445	n/a	RESPONSE	M1	2	24	C5	release
125.644	n/a	RESPONSE	M1	2	22	A#4	press
126.085	n/a	RESPONSE	M1	2	22	A#4	release
126.147	n/a	RESPONSE	M1	2	19	G4	press
126.428	n/a	RESPONSE	M1	2	19	G4	release
126.571	n/a	RESPONSE	M1	2	17	F4	press
126.704	7.758	FIXCROSS	n/a	n/a	n/a	n/a	n/a
127.352	n/a	RESPONSE	M1	2	17	F4	release
134.463	6.325	CUE_LISTEN	M5	1	n/a	n/a	n/a
140.788	7.758	FIXCROSS	n/a	n/a	n/a	n/a	n/a
148.546	6.317	CUE_PLAYBACK_BOTH_HANDS	M5	1	n/a	n/a	n/a
149.227	n/a	RESPONSE	M5	1	00	C3	press
149.23	n/a	RESPONSE	M5	1	04	E3	press
149.232	n/a	RESPONSE	M5	1	19	G4	press
149.241	n/a	RESPONSE	M5	1	07	G3	press
149.616	n/a	RESPONSE	M5	1	19	G4	release
149.806	n/a	RESPONSE	M5	1	16	E4	press
150.04	n/a	RESPONSE	M5	1	16	E4	release
150.359	n/a	RESPONSE	M5	1	16	E4	press
150.604	n/a	RESPONSE	M5	1	16	E4	release
150.624	n/a	RESPONSE	M5	1	04	E3	release
150.886	n/a	RESPONSE	M5	1	05	F3	press
150.888	n/a	RESPONSE	M5	1	17	F4	press
151.247	n/a	RESPONSE	M5	1	17	F4	release
151.431	n/a	RESPONSE	M5	1	14	D4	press
151.646	n/a	RESPONSE	M5	1	14	D4	release
151.971	n/a	RESPONSE	M5	1	14	D4	press
152.094	n/a	RESPONSE	M5	1	05	F3	release
152.171	n/a	RESPONSE	M5	1	14	D4	release
152.178	n/a	RESPONSE	M5	1	07	G3	release
152.305	n/a	RESPONSE	M5	1	00	C3	release
152.52	n/a	RESPONSE	M5	1	00	C3	press
152.522	n/a	RESPONSE	M5	1	07	G3	press
152.525	n/a	RESPONSE	M5	1	04	E3	press
152.534	n/a	RESPONSE	M5	1	12	C4	press
152.82	n/a	RESPONSE	M5	1	16	E4	press
152.921	n/a	RESPONSE	M5	1	12	C4	release
153.122	n/a	RESPONSE	M5	1	19	G4	press
153.156	n/a	RESPONSE	M5	1	16	E4	release
153.786	n/a	RESPONSE	M5	1	19	G4	release
153.817	n/a	RESPONSE	M5	1	00	C3	release
153.85	n/a	RESPONSE	M5	1	07	G3	release
154.0	n/a	RESPONSE	M5	1	04	E3	release
154.863	7.758	FIXCROSS	n/a	n/a	n/a	n/a	n/a
162.621	6.325	CUE_LISTEN	M5	2	n/a	n/a	n/a
168.946	7.758	FIXCROSS	n/a	n/a	n/a	n/a	n/a
176.705	6.317	CUE_PLAYBACK_BOTH_HANDS	M5	2	n/a	n/a	n/a
177.362	n/a	RESPONSE	M5	2	00	C3	press
177.365	n/a	RESPONSE	M5	2	07	G3	press
177.375	n/a	RESPONSE	M5	2	04	E3	press
177.386	n/a	RESPONSE	M5	2	19	G4	press
177.727	n/a	RESPONSE	M5	2	19	G4	release
177.961	n/a	RESPONSE	M5	2	16	E4	press
178.17	n/a	RESPONSE	M5	2	16	E4	release
178.531	n/a	RESPONSE	M5	2	16	E4	press
178.712	n/a	RESPONSE	M5	2	04	E3	release
178.754	n/a	RESPONSE	M5	2	16	E4	release
178.765	n/a	RESPONSE	M5	2	07	G3	release
179.096	n/a	RESPONSE	M5	2	07	G3	press
179.107	n/a	RESPONSE	M5	2	05	F3	press
179.11	n/a	RESPONSE	M5	2	17	F4	press
179.456	n/a	RESPONSE	M5	2	17	F4	release
179.671	n/a	RESPONSE	M5	2	14	D4	press
179.885	n/a	RESPONSE	M5	2	14	D4	release
180.226	n/a	RESPONSE	M5	2	14	D4	press
180.304	n/a	RESPONSE	M5	2	05	F3	release
180.396	n/a	RESPONSE	M5	2	14	D4	release
180.409	n/a	RESPONSE	M5	2	07	G3	release
180.611	n/a	RESPONSE	M5	2	00	C3	release
180.771	n/a	RESPONSE	M5	2	00	C3	press
180.774	n/a	RESPONSE	M5	2	07	G3	press
180.776	n/a	RESPONSE	M5	2	04	E3	press
180.801	n/a	RESPONSE	M5	2	12	C4	press
181.1	n/a	RESPONSE	M5	2	16	E4	press
181.16	n/a	RESPONSE	M5	2	12	C4	release
181.411	n/a	RESPONSE	M5	2	12	C4	press
181.434	n/a	RESPONSE	M5	2	16	E4	release
182.026	n/a	RESPONSE	M5	2	12	C4	release
182.096	n/a	RESPONSE	M5	2	07	G3	release
182.1	n/a	RESPONSE	M5	2	00	C3	release
182.106	n/a	RESPONSE	M5	2	04	E3	release
183.021	7.758	FIXCROSS	n/a	n/a	n/a	n/a	n/a
190.78	6.317	CUE_LISTEN	M5	1	n/a	n/a	n/a
197.096	7.758	FIXCROSS	n/a	n/a	n/a	n/a	n/a
197.532	n/a	RESPONSE	M5	1	12	C4	press
197.895	n/a	RESPONSE	M5	1	12	C4	release
204.855	6.325	CUE_PLAYBACK_RIGHT_HAND	M5	1	n/a	n/a	n/a
205.574	n/a	RESPONSE	M5	1	12	C4	press
205.874	n/a	RESPONSE	M5	1	17	F4	press
205.985	n/a	RESPONSE	M5	1	12	C4	release
206.186	n/a	RESPONSE	M5	1	21	A4	press
206.257	n/a	RESPONSE	M5	1	17	F4	release
206.499	n/a	RESPONSE	M5	1	19	G4	press
206.611	n/a	RESPONSE	M5	1	21	A4	release
206.811	n/a	RESPONSE	M5	1	17	F4	press
206.892	n/a	RESPONSE	M5	1	19	G4	release
207.125	n/a	RESPONSE	M5	1	16	E4	press
207.227	n/a	RESPONSE	M5	1	17	F4	release
207.466	n/a	RESPONSE	M5	1	17	F4	press
207.537	n/a	RESPONSE	M5	1	16	E4	release
207.931	n/a	RESPONSE	M5	1	17	F4	release
208.15	n/a	RESPONSE	M5	1	12	C4	press
208.441	n/a	RESPONSE	M5	1	17	F4	press
208.562	n/a	RESPONSE	M5	1	12	C4	release
208.766	n/a	RESPONSE	M5	1	21	A4	press
208.846	n/a	RESPONSE	M5	1	17	F4	release
209.076	n/a	RESPONSE	M5	1	19	G4	press
209.207	n/a	RESPONSE	M5	1	21	A4	release
209.381	n/a	RESPONSE	M5	1	17	F4	press
209.51	n/a	RESPONSE	M5	1	19	G4	release
209.681	n/a	RESPONSE	M5	1	16	E4	press
209.764	n/a	RESPONSE	M5	1	17	F4	release
209.995	n/a	RESPONSE	M5	1	17	F4	press
210.14	n/a	RESPONSE	M5	1	16	E4	release
210.559	n/a	RESPONSE	M5	1	17	F4	release
211.18	7.758	FIXCROSS	n/a	n/a	n/a	n/a	n/a
218.938	6.317	CUE_LISTEN	M5	2	n/a	n/a	n/a
223.567	n/a	RESPONSE	M5	2	12	C4	press
223.927	n/a	RESPONSE	M5	2	12	C4	release
224.149	n/a	RESPONSE	M5	2	17	F4	press
225.161	n/a	RESPONSE	M5	2	19	G4	press
225.255	7.758	FIXCROSS	n/a	n/a	n/a	n/a	n/a
225.48	n/a	RESPONSE	M5	2	19	G4	release
225.604	n/a	RESPONSE	M5	2	17	F4	release
233.013	6.317	CUE_PLAYBACK_RIGHT_HAND	M5	2	n/a	n/a	n/a
233.746	n/a	RESPONSE	M5	2	12	C4	press
234.09	n/a	RESPONSE	M5	2	17	F4	press
234.259	n/a	RESPONSE	M5	2	12	C4	release
234.56	n/a	RESPONSE	M5	2	19	G4	press
234.641	n/a	RESPONSE	M5	2	17	F4	release
235.002	n/a	RESPONSE	M5	2	19	G4	release
235.324	n/a	RESPONSE	M5	2	12	C4	press
235.665	n/a	RESPONSE	M5	2	16	E4	press
235.796	n/a	RESPONSE	M5	2	12	C4	release
236.017	n/a	RESPONSE	M5	2	19	G4	press
236.109	n/a	RESPONSE	M5	2	16	E4	release
236.371	n/a	RESPONSE	M5	2	23	B4	press
236.484	n/a	RESPONSE	M5	2	19	G4	release
237.032	n/a	RESPONSE	M5	2	23	B4	release
237.404	n/a	RESPONSE	M5	2	12	C4	press
237.745	n/a	RESPONSE	M5	2	16	E4	press
237.747	n/a	RESPONSE	M5	2	17	F4	press
237.807	n/a	RESPONSE	M5	2	16	E4	release
237.949	n/a	RESPONSE	M5	2	17	F4	release
238.02	n/a	RESPONSE	M5	2	16	E4	press
238.141	n/a	RESPONSE	M5	2	16	E4	release
238.202	n/a	RESPONSE	M5	2	12	C4	release
238.454	n/a	RESPONSE	M5	2	12	C4	press
238.806	n/a	RESPONSE	M5	2	17	F4	press
238.956	n/a	RESPONSE	M5	2	12	C4	release
239.217	n/a	RESPONSE	M5	2	21	A4	press
239.33	7.758	FIXCROSS	n/a	n/a	n/a	n/a	n/a
239.401	n/a	RESPONSE	M5	2	17	F4	release
239.756	n/a	RESPONSE	M5	2	23	B4	press
239.827	n/a	RESPONSE	M5	2	21	A4	release
240.207	n/a	RESPONSE	M5	2	22	A#4	press
240.311	n/a	RESPONSE	M5	2	23	B4	release
240.541	n/a	RESPONSE	M5	2	21	A4	press
240.589	n/a	RESPONSE	M5	2	22	A#4	release
240.871	n/a	RESPONSE	M5	2	21	A4	release
240.896	n/a	RESPONSE	M5	2	19	G4	press
241.102	n/a	RESPONSE	M5	2	19	G4	release
247.088	6.325	CUE_LISTEN	M2	1	n/a	n/a	n/a
253.347	n/a	RESPONSE	M2	1	24	C5	press
253.413	7.758	FIXCROSS	n/a	n/a	n/a	n/a	n/a
253.899	n/a	RESPONSE	M2	1	24	C5	release
261.171	6.317	CUE_PLAYBACK_BOTH_HANDS	M2	1	n/a	n/a	n/a
261.861	n/a	RESPONSE	M2	1	24	C5	press
261.887	n/a	RESPONSE	M2	1	00	C3	press
261.89	n/a	RESPONSE	M2	1	07	G3	press
262.341	n/a	RESPONSE	M2	1	19	G4	press
262.404	n/a	RESPONSE	M2	1	24	C5	release
262.412	n/a	RESPONSE	M2	1	00	C3	release
262.434	n/a	RESPONSE	M2	1	07	G3	release
262.539	n/a	RESPONSE	M2	1	19	G4	release
262.769	n/a	RESPONSE	M2	1	00	C3	press
262.771	n/a	RESPONSE	M2	1	07	G3	press
262.777	n/a	RESPONSE	M2	1	19	G4	press
263.212	n/a	RESPONSE	M2	1	17	F4	press
263.282	n/a	RESPONSE	M2	1	19	G4	release
263.306	n/a	RESPONSE	M2	1	00	C3	release
263.347	n/a	RESPONSE	M2	1	07	G3	release
263.656	n/a	RESPONSE	M2	1	07	G3	press
263.66	n/a	RESPONSE	M2	1	00	C3	press
263.669	n/a	RESPONSE	M2	1	19	G4	press
263.752	n/a	RESPONSE	M2	1	17	F4	release
264.101	n/a	RESPONSE	M2	1	00	C3	release
264.135	n/a	RESPONSE	M2	1	07	G3	release
264.144	n/a	RESPONSE	M2	1	19	G4	release
264.545	n/a	RESPONSE	M2	1	24	C5	press
264.547	n/a	RESPONSE	M2	1	00	C3	press
264.55	n/a	RESPONSE	M2	1	07	G3	press
264.859	n/a	RESPONSE	M2	1	24	C5	release
264.89	n/a	RESPONSE	M2	1	19	G4	press
265.001	n/a	RESPONSE	M2	1	00	C3	release
265.022	n/a	RESPONSE	M2	1	07	G3	release
265.074	n/a	RESPONSE	M2	1	19	G4	release
265.265	n/a	RESPONSE	M2	1	19	G4	press
265.269	n/a	RESPONSE	M2	1	00	C3	press
265.277	n/a	RESPONSE	M2	1	07	G3	press
265.599	n/a	RESPONSE	M2	1	17	F4	press
265.68	n/a	RESPONSE	M2	1	19	G4	release
265.711	n/a	RESPONSE	M2	1	00	C3	release
265.754	n/a	RESPONSE	M2	1	07	G3	release
265.985	n/a	RESPONSE	M2	1	16	E4	press
266.006	n/a	RESPONSE	M2	1	07	G3	press
266.016	n/a	RESPONSE	M2	1	00	C3	press
266.06	n/a	RESPONSE	M2	1	17	F4	release
266.349	n/a	RESPONSE	M2	1	17	F4	press
266.42	n/a	RESPONSE	M2	1	16	E4	release
266.441	n/a	RESPONSE	M2	1	00	C3	release
266.452	n/a	RESPONSE	M2	1	07	G3	release
266.694	n/a	RESPONSE	M2	1	00	C3	press
266.696	n/a	RESPONSE	M2	1	07	G3	press
266.706	n/a	RESPONSE	M2	1	19	G4	press
266.777	n/a	RESPONSE	M2	1	17	F4	release
267.289	n/a	RESPONSE	M2	1	00	C3	release
267.3	n/a	RESPONSE	M2	1	19	G4	release
267.311	n/a	RESPONSE	M2	1	07	G3	release
267.488	7.759	FIXCROSS	n/a	n/a	n/a	n/a	n/a
275.247	6.325	CUE_LISTEN	M2	2	n/a	n/a	n/a
281.572	7.758	FIXCROSS	n/a	n/a	n/a	n/a	n/a
289.33	6.317	CUE_PLAYBACK_BOTH_HANDS	M2	2	n/a	n/a	n/a
290.062	n/a	RESPONSE	M2	2	24	C5	press
290.096	n/a	RESPONSE	M2	2	00	C3	press
290.101	n/a	RESPONSE	M2	2	07	G3	press
290.57	n/a	RESPONSE	M2	2	19	G4	press
290.63	n/a	RESPONSE	M2	2	00	C3	release
290.636	n/a	RESPONSE	M2	2	07	G3	release
290.639	n/a	RESPONSE	M2	2	24	C5	release
290.749	n/a	RESPONSE	M2	2	19	G4	release
291.029	n/a	RESPONSE	M2	2	00	C3	press
291.031	n/a	RESPONSE	M2	2	19	G4	press
291.034	n/a	RESPONSE	M2	2	07	G3	press
291.514	n/a	RESPONSE	M2	2	17	F4	press
291.599	n/a	RESPONSE	M2	2	00	C3	release
291.622	n/a	RESPONSE	M2	2	07	G3	release
291.629	n/a	RESPONSE	M2	2	19	G4	release
291.957	n/a	RESPONSE	M2	2	16	E4	press
291.977	n/a	RESPONSE	M2	2	00	C3	press
291.982	n/a	RESPONSE	M2	2	07	G3	press
292.02	n/a	RESPONSE	M2	2	17	F4	release
292.445	n/a	RESPONSE	M2	2	14	D4	press
292.515	n/a	RESPONSE	M2	2	00	C3	release
292.517	n/a	RESPONSE	M2	2	16	E4	release
292.551	n/a	RESPONSE	M2	2	07	G3	release
292.904	n/a	RESPONSE	M2	2	00	C3	press
292.906	n/a	RESPONSE	M2	2	07	G3	press
292.909	n/a	RESPONSE	M2	2	12	C4	press
293.142	n/a	RESPONSE	M2	2	14	D4	release
293.715	n/a	RESPONSE	M2	2	00	C3	release
293.727	n/a	RESPONSE	M2	2	12	C4	release
293.73	n/a	RESPONSE	M2	2	07	G3	release
295.647	7.758	FIXCROSS	n/a	n/a	n/a	n/a	n/a
303.405	6.317	CUE_LISTEN	M2	1	n/a	n/a	n/a
309.722	7.758	FIXCROSS	n/a	n/a	n/a	n/a	n/a
317.48	6.317	CUE_PLAYBACK_BOTH_HANDS	M2	1	n/a	n/a	n/a
318.309	n/a	RESPONSE	M2	1	00	C3	press
318.35	n/a	RESPONSE	M2	1	12	C4	press
318.811	n/a	RESPONSE	M2	1	00	C3	release
318.822	n/a	RESPONSE	M2	1	12	C4	release
319.086	n/a	RESPONSE	M2	1	00	C3	press
319.095	n/a	RESPONSE	M2	1	07	G3	press
319.106	n/a	RESPONSE	M2	1	12	C4	press
319.589	n/a	RESPONSE	M2	1	14	D4	press
319.669	n/a	RESPONSE	M2	1	12	C4	release
319.746	n/a	RESPONSE	M2	1	00	C3	release
319.755	n/a	RESPONSE	M2	1	07	G3	release
320.062	n/a	RESPONSE	M2	1	07	G3	press
320.065	n/a	RESPONSE	M2	1	16	E4	press
320.07	n/a	RESPONSE	M2	1	00	C3	press
320.127	n/a	RESPONSE	M2	1	14	D4	release
320.51	n/a	RESPONSE	M2	1	14	D4	press
320.557	n/a	RESPONSE	M2	1	16	E4	release
320.57	n/a	RESPONSE	M2	1	00	C3	release
320.601	n/a	RESPONSE	M2	1	07	G3	release
320.952	n/a	RESPONSE	M2	1	16	E4	press
320.965	n/a	RESPONSE	M2	1	07	G3	press
320.974	n/a	RESPONSE	M2	1	00	C3	press
321.009	n/a	RESPONSE	M2	1	14	D4	release
321.391	n/a	RESPONSE	M2	1	17	F4	press
321.481	n/a	RESPONSE	M2	1	16	E4	release
321.511	n/a	RESPONSE	M2	1	00	C3	release
321.516	n/a	RESPONSE	M2	1	07	G3	release
321.845	n/a	RESPONSE	M2	1	00	C3	press
321.847	n/a	RESPONSE	M2	1	07	G3	press
321.852	n/a	RESPONSE	M2	1	19	G4	press
321.921	n/a	RESPONSE	M2	1	17	F4	release
322.66	n/a	RESPONSE	M2	1	00	C3	release
322.71	n/a	RESPONSE	M2	1	07	G3	release
322.751	n/a	RESPONSE	M2	1	19	G4	release
323.797	7.758	FIXCROSS	n/a	n/a	n/a	n/a	n/a
331.555	6.325	CUE_LISTEN	M2	2	n/a	n/a	n/a
337.88	7.758	FIXCROSS	n/a	n/a	n/a	n/a	n/a
345.638	6.317	CUE_PLAYBACK_BOTH_HANDS	M2	2	n/a	n/a	n/a
346.424	n/a	RESPONSE	M2	2	07	G3	press
346.426	n/a	RESPONSE	M2	2	16	E4	press
346.429	n/a	RESPONSE	M2	2	00	C3	press
346.917	n/a	RESPONSE	M2	2	19	G4	press
346.979	n/a	RESPONSE	M2	2	16	E4	release
347.05	n/a	RESPONSE	M2	2	00	C3	release
347.052	n/a	RESPONSE	M2	2	07	G3	release
347.092	n/a	RESPONSE	M2	2	19	G4	release
347.364	n/a	RESPONSE	M2	2	07	G3	press
347.366	n/a	RESPONSE	M2	2	19	G4	press
347.369	n/a	RESPONSE	M2	2	00	C3	press
347.799	n/a	RESPONSE	M2	2	17	F4	press
347.9	n/a	RESPONSE	M2	2	19	G4	release
347.94	n/a	RESPONSE	M2	2	00	C3	release
347.981	n/a	RESPONSE	M2	2	07	G3	release
348.224	n/a	RESPONSE	M2	2	07	G3	press
348.234	n/a	RESPONSE	M2	2	00	C3	press
348.247	n/a	RESPONSE	M2	2	16	E4	press
348.377	n/a	RESPONSE	M2	2	17	F4	release
348.667	n/a	RESPONSE	M2	2	14	D4	press
348.729	n/a	RESPONSE	M2	2	00	C3	release
348.74	n/a	RESPONSE	M2	2	07	G3	release
348.761	n/a	RESPONSE	M2	2	16	E4	release
349.082	n/a	RESPONSE	M2	2	07	G3	press
349.085	n/a	RESPONSE	M2	2	00	C3	press
349.095	n/a	RESPONSE	M2	2	12	C4	press
349.167	n/a	RESPONSE	M2	2	14	D4	release
349.795	n/a	RESPONSE	M2	2	12	C4	release
349.817	n/a	RESPONSE	M2	2	07	G3	release
349.831	n/a	RESPONSE	M2	2	00	C3	release
351.955	7.758	FIXCROSS	n/a	n/a	n/a	n/a	n/a
359.713	6.317	CUE_LISTEN	M3	1	n/a	n/a	n/a
366.03	7.758	FIXCROSS	n/a	n/a	n/a	n/a	n/a
373.788	6.325	CUE_PLAYBACK_RIGHT_HAND	M3	1	n/a	n/a	n/a
374.636	n/a	RESPONSE	M3	1	12	C4	press
375.076	n/a	RESPONSE	M3	1	14	D4	press
375.117	n/a	RESPONSE	M3	1	12	C4	release
375.489	n/a	RESPONSE	M3	1	16	E4	press
375.561	n/a	RESPONSE	M3	1	14	D4	release
375.914	n/a	RESPONSE	M3	1	12	C4	press
375.992	n/a	RESPONSE	M3	1	16	E4	release
376.104	n/a	RESPONSE	M3	1	12	C4	release
376.355	n/a	RESPONSE	M3	1	12	C4	press
376.836	n/a	RESPONSE	M3	1	14	D4	press
376.957	n/a	RESPONSE	M3	1	12	C4	release
377.269	n/a	RESPONSE	M3	1	16	E4	press
377.33	n/a	RESPONSE	M3	1	14	D4	release
377.741	n/a	RESPONSE	M3	1	12	C4	press
377.822	n/a	RESPONSE	M3	1	16	E4	release
378.034	n/a	RESPONSE	M3	1	12	C4	release
380.113	7.758	FIXCROSS	n/a	n/a	n/a	n/a	n/a
387.872	6.317	CUE_LISTEN	M3	2	n/a	n/a	n/a
394.188	7.758	FIXCROSS	n/a	n/a	n/a	n/a	n/a
401.947	6.325	CUE_PLAYBACK_RIGHT_HAND	M3	2	n/a	n/a	n/a
402.73	n/a	RESPONSE	M3	2	16	E4	press
403.182	n/a	RESPONSE	M3	2	17	F4	press
403.262	n/a	RESPONSE	M3	2	16	E4	release
403.634	n/a	RESPONSE	M3	2	19	G4	press
403.665	n/a	RESPONSE	M3	2	17	F4	release
404.256	n/a	RESPONSE	M3	2	19	G4	release
404.607	n/a	RESPONSE	M3	2	16	E4	press
405.059	n/a	RESPONSE	M3	2	17	F4	press
405.11	n/a	RESPONSE	M3	2	16	E4	release
405.491	n/a	RESPONSE	M3	2	19	G4	press
405.532	n/a	RESPONSE	M3	2	17	F4	release
406.334	n/a	RESPONSE	M3	2	19	G4	release
408.272	7.759	FIXCROSS	n/a	n/a	n/a	n/a	n/a
416.03	6.317	CUE_LISTEN	M3	1	n/a	n/a	n/a
422.347	7.758	FIXCROSS	n/a	n/a	n/a	n/a	n/a
430.105	6.317	CUE_PLAYBACK_RIGHT_HAND	M3	1	n/a	n/a	n/a
430.755	n/a	RESPONSE	M3	1	19	G4	press
431.051	n/a	RESPONSE	M3	1	21	A4	press
431.115	n/a	RESPONSE	M3	1	19	G4	release
431.315	n/a	RESPONSE	M3	1	19	G4	press
431.38	n/a	RESPONSE	M3	1	21	A4	release
431.586	n/a	RESPONSE	M3	1	17	F4	press
431.73	n/a	RESPONSE	M3	1	19	G4	release
431.88	n/a	RESPONSE	M3	1	16	E4	press
431.982	n/a	RESPONSE	M3	1	17	F4	release
432.415	n/a	RESPONSE	M3	1	12	C4	press
432.505	n/a	RESPONSE	M3	1	16	E4	release
432.97	n/a	RESPONSE	M3	1	12	C4	release
433.001	n/a	RESPONSE	M3	1	19	G4	press
433.284	n/a	RESPONSE	M3	1	21	A4	press
433.346	n/a	RESPONSE	M3	1	19	G4	release
433.537	n/a	RESPONSE	M3	1	19	G4	press
433.62	n/a	RESPONSE	M3	1	21	A4	release
433.81	n/a	RESPONSE	M3	1	17	F4	press
433.991	n/a	RESPONSE	M3	1	19	G4	release
434.105	n/a	RESPONSE	M3	1	16	E4	press
434.205	n/a	RESPONSE	M3	1	17	F4	release
434.615	n/a	RESPONSE	M3	1	12	C4	press
434.689	n/a	RESPONSE	M3	1	16	E4	release
435.17	n/a	RESPONSE	M3	1	12	C4	release
436.422	7.758	FIXCROSS	n/a	n/a	n/a	n/a	n/a
444.18	6.325	CUE_LISTEN	M3	2	n/a	n/a	n/a
450.505	7.758	FIXCROSS	n/a	n/a	n/a	n/a	n/a
458.264	6.317	CUE_PLAYBACK_RIGHT_HAND	M3	2	n/a	n/a	n/a
459.04	n/a	RESPONSE	M3	2	12	C4	press
459.521	n/a	RESPONSE	M3	2	07	G3	press
459.591	n/a	RESPONSE	M3	2	12	C4	release
459.99	n/a	RESPONSE	M3	2	12	C4	press
460.037	n/a	RESPONSE	M3	2	07	G3	release
460.564	n/a	RESPONSE	M3	2	12	C4	release
460.925	n/a	RESPONSE	M3	2	12	C4	press
461.375	n/a	RESPONSE	M3	2	07	G3	press
461.419	n/a	RESPONSE	M3	2	12	C4	release
461.851	n/a	RESPONSE	M3	2	12	C4	press
461.896	n/a	RESPONSE	M3	2	07	G3	release
462.435	n/a	RESPONSE	M3	2	12	C4	release
464.58	7.758	FIXCROSS	n/a	n/a	n/a	n/a	n/a
472.339	6.317	CUE_LISTEN	M5	1	n/a	n/a	n/a
478.655	7.758	FIXCROSS	n/a	n/a	n/a	n/a	n/a
479.101	n/a	RESPONSE	M5	1	05	F3	press
479.106	n/a	RESPONSE	M5	1	09	A3	press
479.125	n/a	RESPONSE	M5	1	12	C4	press
479.488	n/a	RESPONSE	M5	1	05	F3	release
479.611	n/a	RESPONSE	M5	1	09	A3	release
479.634	n/a	RESPONSE	M5	1	12	C4	release
486.414	6.325	CUE_PLAYBACK_BOTH_HANDS	M5	1	n/a	n/a	n/a
487.116	n/a	RESPONSE	M5	1	12	C4	press
487.125	n/a	RESPONSE	M5	1	09	A3	press
487.127	n/a	RESPONSE	M5	1	05	F3	press
487.508	n/a	RESPONSE	M5	1	17	F4	press
487.861	n/a	RESPONSE	M5	1	21	A4	press
487.93	n/a	RESPONSE	M5	1	17	F4	release
488.194	n/a	RESPONSE	M5	1	19	G4	press
488.385	n/a	RESPONSE	M5	1	21	A4	release
488.534	n/a	RESPONSE	M5	1	17	F4	press
488.635	n/a	RESPONSE	M5	1	19	G4	release
488.886	n/a	RESPONSE	M5	1	16	E4	press
488.968	n/a	RESPONSE	M5	1	17	F4	release
489.249	n/a	RESPONSE	M5	1	17	F4	press
489.34	n/a	RESPONSE	M5	1	16	E4	release
489.452	n/a	RESPONSE	M5	1	05	F3	release
489.472	n/a	RESPONSE	M5	1	09	A3	release
489.485	n/a	RESPONSE	M5	1	12	C4	release
489.496	n/a	RESPONSE	M5	1	17	F4	release
489.919	n/a	RESPONSE	M5	1	05	F3	press
489.921	n/a	RESPONSE	M5	1	12	C4	press
489.924	n/a	RESPONSE	M5	1	09	A3	press
490.28	n/a	RESPONSE	M5	1	17	F4	press
490.642	n/a	RESPONSE	M5	1	21	A4	press
490.707	n/a	RESPONSE	M5	1	17	F4	release
490.986	n/a	RESPONSE	M5	1	19	G4	press
491.108	n/a	RESPONSE	M5	1	21	A4	release
491.326	n/a	RESPONSE	M5	1	17	F4	press
491.415	n/a	RESPONSE	M5	1	19	G4	release
491.65	n/a	RESPONSE	M5	1	16	E4	press
491.725	n/a	RESPONSE	M5	1	17	F4	release
492.055	n/a	RESPONSE	M5	1	17	F4	press
492.128	n/a	RESPONSE	M5	1	16	E4	release
492.205	n/a	RESPONSE	M5	1	12	C4	release
492.22	n/a	RESPONSE	M5	1	05	F3	release
492.241	n/a	RESPONSE	M5	1	09	A3	release
492.511	n/a	RESPONSE	M5	1	17	F4	release
492.739	7.758	FIXCROSS	n/a	n/a	n/a	n/a	n/a
500.497	6.317	CUE_LISTEN	M5	2	n/a	n/a	n/a
506.814	7.758	FIXCROSS	n/a	n/a	n/a	n/a	n/a
514.572	6.317	CUE_PLAYBACK_BOTH_HANDS	M5	2	n/a	n/a	n/a
515.18	n/a	RESPONSE	M5	2	09	A3	press
515.189	n/a	RESPONSE	M5	2	05	F3	press
515.191	n/a	RESPONSE	M5	2	12	C4	press
515.634	n/a	RESPONSE	M5	2	17	F4	press
516.044	n/a	RESPONSE	M5	2	23	B4	press
516.454	n/a	RESPONSE	M5	2	17	F4	release
516.475	n/a	RESPONSE	M5	2	23	B4	release
516.538	n/a	RESPONSE	M5	2	05	F3	release
516.557	n/a	RESPONSE	M5	2	12	C4	release
516.561	n/a	RESPONSE	M5	2	09	A3	release
516.772	n/a	RESPONSE	M5	2	12	C4	press
516.781	n/a	RESPONSE	M5	2	05	F3	press
516.784	n/a	RESPONSE	M5	2	09	A3	press
517.204	n/a	RESPONSE	M5	2	17	F4	press
517.285	n/a	RESPONSE	M5	2	21	A4	press
517.396	n/a	RESPONSE	M5	2	21	A4	release
517.648	n/a	RESPONSE	M5	2	17	F4	release
517.709	n/a	RESPONSE	M5	2	05	F3	release
517.711	n/a	RESPONSE	M5	2	12	C4	release
517.721	n/a	RESPONSE	M5	2	09	A3	release
517.845	n/a	RESPONSE	M5	2	12	C4	press
517.854	n/a	RESPONSE	M5	2	05	F3	press
517.935	n/a	RESPONSE	M5	2	09	A3	press
518.187	n/a	RESPONSE	M5	2	17	F4	press
518.54	n/a	RESPONSE	M5	2	21	A4	press
518.751	n/a	RESPONSE	M5	2	17	F4	release
518.91	n/a	RESPONSE	M5	2	23	B4	press
518.912	n/a	RESPONSE	M5	2	09	A3	release
518.952	n/a	RESPONSE	M5	2	05	F3	release
519.094	n/a	RESPONSE	M5	2	21	A4	release
519.257	n/a	RESPONSE	M5	2	12	C4	release
519.366	n/a	RESPONSE	M5	2	07	G3	press
519.386	n/a	RESPONSE	M5	2	04	E3	press
519.398	n/a	RESPONSE	M5	2	20	G#4	press
519.412	n/a	RESPONSE	M5	2	12	C4	press
519.476	n/a	RESPONSE	M5	2	23	B4	release
519.798	n/a	RESPONSE	M5	2	19	G4	press
519.984	n/a	RESPONSE	M5	2	20	G#4	release
520.263	n/a	RESPONSE	M5	2	17	F4	press
520.352	n/a	RESPONSE	M5	2	19	G4	release
520.864	n/a	RESPONSE	M5	2	17	F4	release
520.889	7.758	FIXCROSS	n/a	n/a	n/a	n/a	n/a
520.901	n/a	RESPONSE	M5	2	12	C4	release
520.904	n/a	RESPONSE	M5	2	07	G3	release
520.906	n/a	RESPONSE	M5	2	04	E3	release
528.647	6.325	CUE_LISTEN	M5	1	n/a	n/a	n/a
534.972	7.758	FIXCROSS	n/a	n/a	n/a	n/a	n/a
542.731	6.317	CUE_PLAYBACK_RIGHT_HAND	M5	1	n/a	n/a	n/a
543.379	n/a	RESPONSE	M5	1	19	G4	press
543.711	n/a	RESPONSE	M5	1	19	G4	release
543.862	n/a	RESPONSE	M5	1	16	E4	press
544.064	n/a	RESPONSE	M5	1	16	E4	release
544.336	n/a	RESPONSE	M5	1	16	E4	press
544.565	n/a	RESPONSE	M5	1	16	E4	release
544.818	n/a	RESPONSE	M5	1	17	F4	press
545.048	n/a	RESPONSE	M5	1	17	F4	release
545.239	n/a	RESPONSE	M5	1	14	D4	press
545.432	n/a	RESPONSE	M5	1	14	D4	release
545.721	n/a	RESPONSE	M5	1	14	D4	press
545.942	n/a	RESPONSE	M5	1	14	D4	release
546.194	n/a	RESPONSE	M5	1	12	C4	press
546.445	n/a	RESPONSE	M5	1	16	E4	press
546.526	n/a	RESPONSE	M5	1	12	C4	release
546.699	n/a	RESPONSE	M5	1	19	G4	press
546.719	n/a	RESPONSE	M5	1	16	E4	release
547.14	n/a	RESPONSE	M5	1	19	G4	release
549.047	7.758	FIXCROSS	n/a	n/a	n/a	n/a	n/a
556.806	6.317	CUE_LISTEN	M5	2	n/a	n/a	n/a
563.122	7.759	FIXCROSS	n/a	n/a	n/a	n/a	n/a
570.881	6.325	CUE_PLAYBACK_RIGHT_HAND	M5	2	n/a	n/a	n/a
571.518	n/a	RESPONSE	M5	2	19	G4	press
571.812	n/a	RESPONSE	M5	2	19	G4	release
571.939	n/a	RESPONSE	M5	2	16	E4	press
572.122	n/a	RESPONSE	M5	2	16	E4	release
572.385	n/a	RESPONSE	M5	2	16	E4	press
572.59	n/a	RESPONSE	M5	2	16	E4	release
572.82	n/a	RESPONSE	M5	2	17	F4	press
573.021	n/a	RESPONSE	M5	2	17	F4	release
573.254	n/a	RESPONSE	M5	2	14	D4	press
573.415	n/a	RESPONSE	M5	2	14	D4	release
573.659	n/a	RESPONSE	M5	2	14	D4	press
573.858	n/a	RESPONSE	M5	2	14	D4	release
574.129	n/a	RESPONSE	M5	2	12	C4	press
574.34	n/a	RESPONSE	M5	2	16	E4	press
574.342	n/a	RESPONSE	M5	2	12	C4	release
574.542	n/a	RESPONSE	M5	2	16	E4	release
574.566	n/a	RESPONSE	M5	2	12	C4	press
574.885	n/a	RESPONSE	M5	2	12	C4	release
577.206	7.758	FIXCROSS	n/a	n/a	n/a	n/a	n/a
584.964	6.317	CUE_LISTEN	M1	1	n/a	n/a	n/a
591.281	7.758	FIXCROSS	n/a	n/a	n/a	n/a	n/a
599.039	6.317	CUE_PLAYBACK_RIGHT_HAND	M1	1	n/a	n/a	n/a
599.741	n/a	RESPONSE	M1	1	21	A4	press
599.745	n/a	RESPONSE	M1	1	05	F3	press
599.964	n/a	RESPONSE	M1	1	21	A4	release
600.241	n/a	RESPONSE	M1	1	21	A4	press
600.259	n/a	RESPONSE	M1	1	09	A3	press
600.359	n/a	RESPONSE	M1	1	05	F3	release
600.454	n/a	RESPONSE	M1	1	21	A4	release
600.734	n/a	RESPONSE	M1	1	04	E3	press
600.748	n/a	RESPONSE	M1	1	21	A4	press
600.82	n/a	RESPONSE	M1	1	09	A3	release
601.196	n/a	RESPONSE	M1	1	09	A3	press
601.268	n/a	RESPONSE	M1	1	04	E3	release
601.316	n/a	RESPONSE	M1	1	21	A4	release
601.608	n/a	RESPONSE	M1	1	02	D3	press
601.624	n/a	RESPONSE	M1	1	21	A4	press
601.681	n/a	RESPONSE	M1	1	09	A3	release
601.818	n/a	RESPONSE	M1	1	21	A4	release
602.06	n/a	RESPONSE	M1	1	21	A4	press
602.085	n/a	RESPONSE	M1	1	09	A3	press
602.158	n/a	RESPONSE	M1	1	02	D3	release
602.259	n/a	RESPONSE	M1	1	21	A4	release
602.519	n/a	RESPONSE	M1	1	21	A4	press
602.523	n/a	RESPONSE	M1	1	00	C3	press
602.624	n/a	RESPONSE	M1	1	09	A3	release
602.96	n/a	RESPONSE	M1	1	09	A3	press
603.038	n/a	RESPONSE	M1	1	00	C3	release
603.17	n/a	RESPONSE	M1	1	21	A4	release
603.421	n/a	RESPONSE	M1	1	05	F3	press
603.442	n/a	RESPONSE	M1	1	21	A4	press
603.524	n/a	RESPONSE	M1	1	09	A3	release
603.866	n/a	RESPONSE	M1	1	09	A3	press
603.878	n/a	RESPONSE	M1	1	24	C5	press
603.929	n/a	RESPONSE	M1	1	21	A4	release
603.95	n/a	RESPONSE	M1	1	05	F3	release
604.291	n/a	RESPONSE	M1	1	17	F4	press
604.294	n/a	RESPONSE	M1	1	04	E3	press
604.364	n/a	RESPONSE	M1	1	24	C5	release
604.366	n/a	RESPONSE	M1	1	09	A3	release
604.716	n/a	RESPONSE	M1	1	09	A3	press
604.728	n/a	RESPONSE	M1	1	19	G4	press
604.819	n/a	RESPONSE	M1	1	04	E3	release
604.83	n/a	RESPONSE	M1	1	17	F4	release
605.151	n/a	RESPONSE	M1	1	02	D3	press
605.164	n/a	RESPONSE	M1	1	21	A4	press
605.234	n/a	RESPONSE	M1	1	19	G4	release
605.236	n/a	RESPONSE	M1	1	09	A3	release
605.356	7.758	FIXCROSS	n/a	n/a	n/a	n/a	n/a
605.546	n/a	RESPONSE	M1	1	09	A3	press
605.598	n/a	RESPONSE	M1	1	02	D3	release
605.961	n/a	RESPONSE	M1	1	00	C3	press
606.04	n/a	RESPONSE	M1	1	09	A3	release
606.322	n/a	RESPONSE	M1	1	09	A3	press
606.374	n/a	RESPONSE	M1	1	00	C3	release
606.456	n/a	RESPONSE	M1	1	21	A4	release
606.726	n/a	RESPONSE	M1	1	09	A3	release
613.114	6.325	CUE_LISTEN	M1	2	n/a	n/a	n/a
618.874	n/a	RESPONSE	M1	2	07	G3	press
619.439	7.758	FIXCROSS	n/a	n/a	n/a	n/a	n/a
619.506	n/a	RESPONSE	M1	2	10	A#3	press
619.552	n/a	RESPONSE	M1	2	07	G3	release
619.83	n/a	RESPONSE	M1	2	10	A#3	release
620.453	n/a	RESPONSE	M1	2	04	E3	press
620.904	n/a	RESPONSE	M1	2	04	E3	release
627.197	6.317	CUE_PLAYBACK_RIGHT_HAND	M1	2	n/a	n/a	n/a
628.024	n/a	RESPONSE	M1	2	07	G3	press
628.065	n/a	RESPONSE	M1	2	22	A#4	press
628.296	n/a	RESPONSE	M1	2	22	A#4	release
628.508	n/a	RESPONSE	M1	2	22	A#4	press
628.529	n/a	RESPONSE	M1	2	10	A#3	press
628.652	n/a	RESPONSE	M1	2	07	G3	release
628.701	n/a	RESPONSE	M1	2	22	A#4	release
628.935	n/a	RESPONSE	M1	2	04	E3	press
628.954	n/a	RESPONSE	M1	2	22	A#4	press
629.055	n/a	RESPONSE	M1	2	10	A#3	release
629.139	n/a	RESPONSE	M1	2	22	A#4	release
629.374	n/a	RESPONSE	M1	2	10	A#3	press
629.376	n/a	RESPONSE	M1	2	22	A#4	press
629.484	n/a	RESPONSE	M1	2	04	E3	release
629.564	n/a	RESPONSE	M1	2	22	A#4	release
629.814	n/a	RESPONSE	M1	2	05	F3	press
629.82	n/a	RESPONSE	M1	2	22	A#4	press
629.889	n/a	RESPONSE	M1	2	10	A#3	release
630.252	n/a	RESPONSE	M1	2	21	A4	press
630.26	n/a	RESPONSE	M1	2	09	A3	press
630.349	n/a	RESPONSE	M1	2	05	F3	release
630.419	n/a	RESPONSE	M1	2	22	A#4	release
630.49	n/a	RESPONSE	M1	2	21	A4	release
630.791	n/a	RESPONSE	M1	2	21	A4	press
630.8	n/a	RESPONSE	M1	2	00	C3	press
631.03	n/a	RESPONSE	M1	2	21	A4	release
631.046	n/a	RESPONSE	M1	2	09	A3	release
631.436	n/a	RESPONSE	M1	2	21	A4	press
631.44	n/a	RESPONSE	M1	2	09	A3	press
631.544	n/a	RESPONSE	M1	2	00	C3	release
632.002	n/a	RESPONSE	M1	2	21	A4	release
633.22	n/a	RESPONSE	M1	2	09	A3	release
633.514	7.758	FIXCROSS	n/a	n/a	n/a	n/a	n/a
634.541	n/a	RESPONSE	M1	2	19	G4	press
634.544	n/a	RESPONSE	M1	2	05	F3	press
634.774	n/a	RESPONSE	M1	2	05	F3	release
634.776	n/a	RESPONSE	M1	2	19	G4	release
641.272	6.325	CUE_LISTEN	M4	1	n/a	n/a	n/a
647.597	7.758	FIXCROSS	n/a	n/a	n/a	n/a	n/a
649.619	n/a	RESPONSE	M4	1	04	E3	press
650.028	n/a	RESPONSE	M4	1	04	E3	release
655.356	6.317	CUE_PLAYBACK_BOTH_HANDS	M4	1	n/a	n/a	n/a
656.284	n/a	RESPONSE	M4	1	05	F3	press
656.305	n/a	RESPONSE	M4	1	21	A4	press
656.526	n/a	RESPONSE	M4	1	21	A4	release
656.748	n/a	RESPONSE	M4	1	09	A3	press
656.75	n/a	RESPONSE	M4	1	21	A4	press
656.822	n/a	RESPONSE	M4	1	05	F3	release
656.931	n/a	RESPONSE	M4	1	21	A4	release
657.162	n/a	RESPONSE	M4	1	04	E3	press
657.184	n/a	RESPONSE	M4	1	21	A4	press
657.275	n/a	RESPONSE	M4	1	09	A3	release
657.376	n/a	RESPONSE	M4	1	21	A4	release
657.61	n/a	RESPONSE	M4	1	21	A4	press
657.629	n/a	RESPONSE	M4	1	09	A3	press
657.75	n/a	RESPONSE	M4	1	04	E3	release
658.041	n/a	RESPONSE	M4	1	02	D3	press
658.132	n/a	RESPONSE	M4	1	09	A3	release
658.514	n/a	RESPONSE	M4	1	21	A4	release
658.585	n/a	RESPONSE	M4	1	02	D3	release
658.828	n/a	RESPONSE	M4	1	21	A4	press
658.838	n/a	RESPONSE	M4	1	02	D3	press
659.279	n/a	RESPONSE	M4	1	09	A3	press
659.35	n/a	RESPONSE	M4	1	02	D3	release
659.391	n/a	RESPONSE	M4	1	21	A4	release
659.718	n/a	RESPONSE	M4	1	21	A4	press
659.72	n/a	RESPONSE	M4	1	00	C3	press
659.866	n/a	RESPONSE	M4	1	09	A3	release
659.952	n/a	RESPONSE	M4	1	21	A4	release
660.226	n/a	RESPONSE	M4	1	21	A4	press
660.27	n/a	RESPONSE	M4	1	09	A3	press
660.364	n/a	RESPONSE	M4	1	00	C3	release
661.026	n/a	RESPONSE	M4	1	21	A4	release
661.093	n/a	RESPONSE	M4	1	09	A3	release
661.672	7.758	FIXCROSS	n/a	n/a	n/a	n/a	n/a
662.114	n/a	RESPONSE	M4	1	21	A4	press
662.233	n/a	RESPONSE	M4	1	05	F3	press
662.878	n/a	RESPONSE	M4	1	05	F3	release
662.881	n/a	RESPONSE	M4	1	21	A4	release
662.93	n/a	RESPONSE	M4	1	09	A3	press
662.962	n/a	RESPONSE	M4	1	24	C5	press
663.478	n/a	RESPONSE	M4	1	09	A3	release
663.549	n/a	RESPONSE	M4	1	24	C5	release
669.431	6.325	CUE_LISTEN	M4	2	n/a	n/a	n/a
675.756	14.075	FIXCROSS	n/a	n/a	n/a	n/a	n/a
683.514	n/a	CUE_PLAYBACK_BOTH_HANDS	M4	2	n/a	n/a	n/a
684.188	n/a	RESPONSE	M4	2	07	G3	press
684.229	n/a	RESPONSE	M4	2	22	A#4	press
684.44	n/a	RESPONSE	M4	2	22	A#4	release
684.631	n/a	RESPONSE	M4	2	22	A#4	press
684.634	n/a	RESPONSE	M4	2	10	A#3	press
684.786	n/a	RESPONSE	M4	2	07	G3	release
684.825	n/a	RESPONSE	M4	2	22	A#4	release
685.066	n/a	RESPONSE	M4	2	04	E3	press
685.069	n/a	RESPONSE	M4	2	22	A#4	press
685.179	n/a	RESPONSE	M4	2	10	A#3	release
685.302	n/a	RESPONSE	M4	2	22	A#4	release
685.521	n/a	RESPONSE	M4	2	10	A#3	press
685.524	n/a	RESPONSE	M4	2	22	A#4	press
685.594	n/a	RESPONSE	M4	2	04	E3	release
685.745	n/a	RESPONSE	M4	2	22	A#4	release
685.986	n/a	RESPONSE	M4	2	22	A#4	press
685.989	n/a	RESPONSE	M4	2	05	F3	press
686.079	n/a	RESPONSE	M4	2	10	A#3	release
686.421	n/a	RESPONSE	M4	2	09	A3	press
686.432	n/a	RESPONSE	M4	2	21	A4	press
686.503	n/a	RESPONSE	M4	2	05	F3	release
686.564	n/a	RESPONSE	M4	2	22	A#4	release
686.645	n/a	RESPONSE	M4	2	21	A4	release
686.906	n/a	RESPONSE	M4	2	00	C3	press
686.909	n/a	RESPONSE	M4	2	21	A4	press
687.079	n/a	RESPONSE	M4	2	09	A3	release
687.17	n/a	RESPONSE	M4	2	21	A4	release
687.471	n/a	RESPONSE	M4	2	21	A4	press
687.522	n/a	RESPONSE	M4	2	09	A3	press
687.704	n/a	RESPONSE	M4	2	00	C3	release
688.245	n/a	RESPONSE	M4	2	04	E3	press
688.276	n/a	RESPONSE	M4	2	24	C5	press
688.309	n/a	RESPONSE	M4	2	21	A4	release
688.311	n/a	RESPONSE	M4	2	09	A3	release
688.56	n/a	RESPONSE	M4	2	24	C5	release
688.831	n/a	RESPONSE	M4	2	04	E3	release
689.826	n/a	RESPONSE	M4	2	24	C5	press
689.83	n/a	RESPONSE	M4	2	00	C3	press
689.831	7.759	FIXCROSS	n/a	n/a	n/a	n/a	n/a
690.454	n/a	RESPONSE	M4	2	24	C5	release
690.479	n/a	RESPONSE	M4	2	00	C3	release
690.78	n/a	RESPONSE	M4	2	00	C3	press
690.786	n/a	RESPONSE	M4	2	24	C5	press
691.192	n/a	RESPONSE	M4	2	07	G3	press
691.264	n/a	RESPONSE	M4	2	22	A#4	press
691.273	n/a	RESPONSE	M4	2	00	C3	release
691.384	n/a	RESPONSE	M4	2	24	C5	release
691.576	n/a	RESPONSE	M4	2	04	E3	press
691.58	n/a	RESPONSE	M4	2	21	A4	press
691.7	n/a	RESPONSE	M4	2	07	G3	release
691.763	n/a	RESPONSE	M4	2	22	A#4	release
692.025	n/a	RESPONSE	M4	2	04	E3	release
692.106	n/a	RESPONSE	M4	2	21	A4	release
697.59	6.316	CUE_LISTEN	M2	1	n/a	n/a	n/a
702.549	n/a	RESPONSE	M2	1	24	C5	press
702.778	n/a	RESPONSE	M2	1	24	C5	release
703.533	n/a	RESPONSE	M2	1	19	G4	press
703.683	n/a	RESPONSE	M2	1	19	G4	release
703.906	7.758	FIXCROSS	n/a	n/a	n/a	n/a	n/a
711.664	6.317	CUE_PLAYBACK_RIGHT_HAND	M2	1	n/a	n/a	n/a
712.401	n/a	RESPONSE	M2	1	24	C5	press
712.694	n/a	RESPONSE	M2	1	24	C5	release
712.858	n/a	RESPONSE	M2	1	19	G4	press
713.06	n/a	RESPONSE	M2	1	19	G4	release
713.312	n/a	RESPONSE	M2	1	19	G4	press
713.714	n/a	RESPONSE	M2	1	17	F4	press
713.795	n/a	RESPONSE	M2	1	19	G4	release
714.126	n/a	RESPONSE	M2	1	16	E4	press
714.169	n/a	RESPONSE	M2	1	17	F4	release
714.479	n/a	RESPONSE	M2	1	17	F4	press
714.52	n/a	RESPONSE	M2	1	16	E4	release
714.861	n/a	RESPONSE	M2	1	19	G4	press
714.943	n/a	RESPONSE	M2	1	17	F4	release
715.436	n/a	RESPONSE	M2	1	19	G4	release
717.981	7.758	FIXCROSS	n/a	n/a	n/a	n/a	n/a
725.739	6.325	CUE_LISTEN	M2	2	n/a	n/a	n/a
732.064	7.758	FIXCROSS	n/a	n/a	n/a	n/a	n/a
739.823	6.317	CUE_PLAYBACK_RIGHT_HAND	M2	2	n/a	n/a	n/a
740.579	n/a	RESPONSE	M2	2	24	C5	press
740.864	n/a	RESPONSE	M2	2	24	C5	release
741.084	n/a	RESPONSE	M2	2	17	F4	press
741.091	n/a	RESPONSE	M2	2	19	G4	press
741.214	n/a	RESPONSE	M2	2	19	G4	release
741.503	n/a	RESPONSE	M2	2	17	F4	release
741.839	n/a	RESPONSE	M2	2	24	C5	press
742.029	n/a	RESPONSE	M2	2	24	C5	release
742.254	n/a	RESPONSE	M2	2	17	F4	press
742.43	n/a	RESPONSE	M2	2	17	F4	release
742.721	n/a	RESPONSE	M2	2	17	F4	press
743.136	n/a	RESPONSE	M2	2	17	F4	release
743.158	n/a	RESPONSE	M2	2	16	E4	press
743.621	n/a	RESPONSE	M2	2	14	D4	press
743.67	n/a	RESPONSE	M2	2	16	E4	release
743.821	n/a	RESPONSE	M2	2	14	D4	release
744.193	n/a	RESPONSE	M2	2	24	C5	press
744.374	n/a	RESPONSE	M2	2	24	C5	release
744.605	n/a	RESPONSE	M2	2	17	F4	press
744.806	n/a	RESPONSE	M2	2	17	F4	release
745.038	n/a	RESPONSE	M2	2	17	F4	press
745.419	n/a	RESPONSE	M2	2	16	E4	press
745.511	n/a	RESPONSE	M2	2	17	F4	release
745.831	n/a	RESPONSE	M2	2	14	D4	press
745.893	n/a	RESPONSE	M2	2	16	E4	release
746.139	7.758	FIXCROSS	n/a	n/a	n/a	n/a	n/a
746.534	n/a	RESPONSE	M2	2	12	C4	press
746.656	n/a	RESPONSE	M2	2	14	D4	release
746.996	n/a	RESPONSE	M2	2	12	C4	release
747.088	n/a	RESPONSE	M2	2	11	B3	press
747.319	n/a	RESPONSE	M2	2	11	B3	release
753.898	6.317	CUE_LISTEN	M2	1	n/a	n/a	n/a
760.214	7.758	FIXCROSS	n/a	n/a	n/a	n/a	n/a
767.973	6.325	CUE_PLAYBACK_RIGHT_HAND	M2	1	n/a	n/a	n/a
768.783	n/a	RESPONSE	M2	1	12	C4	press
769.104	n/a	RESPONSE	M2	1	14	D4	press
769.128	n/a	RESPONSE	M2	1	12	C4	release
769.47	n/a	RESPONSE	M2	1	16	E4	press
769.53	n/a	RESPONSE	M2	1	14	D4	release
769.784	n/a	RESPONSE	M2	1	14	D4	press
769.846	n/a	RESPONSE	M2	1	16	E4	release
770.116	n/a	RESPONSE	M2	1	16	E4	press
770.186	n/a	RESPONSE	M2	1	14	D4	release
770.439	n/a	RESPONSE	M2	1	17	F4	press
770.535	n/a	RESPONSE	M2	1	16	E4	release
770.791	n/a	RESPONSE	M2	1	19	G4	press
770.806	n/a	RESPONSE	M2	1	17	F4	release
771.304	n/a	RESPONSE	M2	1	19	G4	release
774.298	7.758	FIXCROSS	n/a	n/a	n/a	n/a	n/a
782.056	6.317	CUE_LISTEN	M2	2	n/a	n/a	n/a
788.373	7.758	FIXCROSS	n/a	n/a	n/a	n/a	n/a
796.131	6.317	CUE_PLAYBACK_RIGHT_HAND	M2	2	n/a	n/a	n/a
796.828	n/a	RESPONSE	M2	2	16	E4	press
797.149	n/a	RESPONSE	M2	2	16	E4	release
797.36	n/a	RESPONSE	M2	2	19	G4	press
797.584	n/a	RESPONSE	M2	2	19	G4	release
797.883	n/a	RESPONSE	M2	2	19	G4	press
798.324	n/a	RESPONSE	M2	2	17	F4	press
798.365	n/a	RESPONSE	M2	2	19	G4	release
798.886	n/a	RESPONSE	M2	2	16	E4	press
798.94	n/a	RESPONSE	M2	2	17	F4	release
799.329	n/a	RESPONSE	M2	2	14	D4	press
799.388	n/a	RESPONSE	M2	2	16	E4	release
799.798	n/a	RESPONSE	M2	2	12	C4	press
799.818	n/a	RESPONSE	M2	2	14	D4	release
800.258	n/a	RESPONSE	M2	2	12	C4	release
802.448	7.758	FIXCROSS	n/a	n/a	n/a	n/a	n/a
810.206	6.325	CUE_LISTEN	M3	1	n/a	n/a	n/a
816.531	7.758	FIXCROSS	n/a	n/a	n/a	n/a	n/a
824.29	6.317	CUE_PLAYBACK_BOTH_HANDS	M3	1	n/a	n/a	n/a
825.039	n/a	RESPONSE	M3	1	00	C3	press
825.07	n/a	RESPONSE	M3	1	12	C4	press
825.521	n/a	RESPONSE	M3	1	07	G3	press
825.533	n/a	RESPONSE	M3	1	16	E4	press
825.564	n/a	RESPONSE	M3	1	00	C3	release
825.648	n/a	RESPONSE	M3	1	12	C4	release
825.946	n/a	RESPONSE	M3	1	16	E4	release
825.978	n/a	RESPONSE	M3	1	07	G3	release
826.239	n/a	RESPONSE	M3	1	00	C3	press
826.26	n/a	RESPONSE	M3	1	12	C4	press
826.711	n/a	RESPONSE	M3	1	14	D4	press
826.714	n/a	RESPONSE	M3	1	07	G3	press
826.774	n/a	RESPONSE	M3	1	00	C3	release
826.805	n/a	RESPONSE	M3	1	12	C4	release
827.126	n/a	RESPONSE	M3	1	04	E3	press
827.148	n/a	RESPONSE	M3	1	16	E4	press
827.229	n/a	RESPONSE	M3	1	14	D4	release
827.231	n/a	RESPONSE	M3	1	07	G3	release
827.551	n/a	RESPONSE	M3	1	07	G3	press
827.593	n/a	RESPONSE	M3	1	12	C4	press
827.614	n/a	RESPONSE	M3	1	04	E3	release
827.675	n/a	RESPONSE	M3	1	16	E4	release
827.726	n/a	RESPONSE	M3	1	07	G3	release
827.77	n/a	RESPONSE	M3	1	12	C4	release
827.989	n/a	RESPONSE	M3	1	00	C3	press
828.02	n/a	RESPONSE	M3	1	12	C4	press
828.421	n/a	RESPONSE	M3	1	07	G3	press
828.424	n/a	RESPONSE	M3	1	14	D4	press
828.464	n/a	RESPONSE	M3	1	00	C3	release
828.515	n/a	RESPONSE	M3	1	12	C4	release
828.826	n/a	RESPONSE	M3	1	04	E3	press
828.83	n/a	RESPONSE	M3	1	16	E4	press
828.909	n/a	RESPONSE	M3	1	07	G3	release
828.92	n/a	RESPONSE	M3	1	14	D4	release
829.243	n/a	RESPONSE	M3	1	07	G3	press
829.283	n/a	RESPONSE	M3	1	12	C4	press
829.314	n/a	RESPONSE	M3	1	16	E4	release
829.316	n/a	RESPONSE	M3	1	04	E3	release
829.485	n/a	RESPONSE	M3	1	07	G3	release
829.524	n/a	RESPONSE	M3	1	12	C4	release
830.606	7.758	FIXCROSS	n/a	n/a	n/a	n/a	n/a
838.365	6.325	CUE_LISTEN	M3	2	n/a	n/a	n/a
844.69	7.758	FIXCROSS	n/a	n/a	n/a	n/a	n/a
852.448	6.317	CUE_PLAYBACK_BOTH_HANDS	M3	2	n/a	n/a	n/a
853.211	n/a	RESPONSE	M3	2	19	G4	press
853.214	n/a	RESPONSE	M3	2	00	C3	press
853.554	n/a	RESPONSE	M3	2	21	A4	press
853.625	n/a	RESPONSE	M3	2	19	G4	release
853.996	n/a	RESPONSE	M3	2	07	G3	press
853.999	n/a	RESPONSE	M3	2	19	G4	press
854.05	n/a	RESPONSE	M3	2	00	C3	release
854.12	n/a	RESPONSE	M3	2	21	A4	release
854.401	n/a	RESPONSE	M3	2	17	F4	press
854.573	n/a	RESPONSE	M3	2	19	G4	release
854.754	n/a	RESPONSE	M3	2	04	E3	press
854.806	n/a	RESPONSE	M3	2	16	E4	press
854.826	n/a	RESPONSE	M3	2	07	G3	release
854.918	n/a	RESPONSE	M3	2	17	F4	release
855.429	n/a	RESPONSE	M3	2	07	G3	press
855.431	n/a	RESPONSE	M3	2	12	C4	press
855.521	n/a	RESPONSE	M3	2	04	E3	release
855.744	n/a	RESPONSE	M3	2	16	E4	release
855.784	n/a	RESPONSE	M3	2	07	G3	release
855.788	n/a	RESPONSE	M3	2	12	C4	release
856.116	n/a	RESPONSE	M3	2	00	C3	press
856.119	n/a	RESPONSE	M3	2	19	G4	press
856.449	n/a	RESPONSE	M3	2	21	A4	press
856.52	n/a	RESPONSE	M3	2	19	G4	release
856.763	n/a	RESPONSE	M3	2	19	G4	press
856.773	n/a	RESPONSE	M3	2	07	G3	press
856.814	n/a	RESPONSE	M3	2	00	C3	release
856.865	n/a	RESPONSE	M3	2	21	A4	release
857.066	n/a	RESPONSE	M3	2	17	F4	press
857.248	n/a	RESPONSE	M3	2	19	G4	release
857.369	n/a	RESPONSE	M3	2	04	E3	press
857.381	n/a	RESPONSE	M3	2	16	E4	press
857.481	n/a	RESPONSE	M3	2	07	G3	release
857.484	n/a	RESPONSE	M3	2	17	F4	release
857.964	n/a	RESPONSE	M3	2	12	C4	press
857.968	n/a	RESPONSE	M3	2	07	G3	press
858.066	n/a	RESPONSE	M3	2	16	E4	release
858.069	n/a	RESPONSE	M3	2	04	E3	release
858.441	n/a	RESPONSE	M3	2	12	C4	release
858.45	n/a	RESPONSE	M3	2	07	G3	release
858.765	7.759	FIXCROSS	n/a	n/a	n/a	n/a	n/a
866.523	6.317	CUE_LISTEN	M3	1	n/a	n/a	n/a
872.84	7.758	FIXCROSS	n/a	n/a	n/a	n/a	n/a
880.598	6.325	CUE_PLAYBACK_BOTH_HANDS	M3	1	n/a	n/a	n/a
881.453	n/a	RESPONSE	M3	1	04	E3	press
881.473	n/a	RESPONSE	M3	1	19	G4	press
881.82	n/a	RESPONSE	M3	1	04	E3	release
881.83	n/a	RESPONSE	M3	1	19	G4	release
882.204	n/a	RESPONSE	M3	1	19	G4	press
882.21	n/a	RESPONSE	M3	1	00	C3	press
882.51	n/a	RESPONSE	M3	1	21	A4	press
882.578	n/a	RESPONSE	M3	1	19	G4	release
882.819	n/a	RESPONSE	M3	1	19	G4	press
882.821	n/a	RESPONSE	M3	1	07	G3	press
882.864	n/a	RESPONSE	M3	1	00	C3	release
882.899	n/a	RESPONSE	M3	1	21	A4	release
883.098	n/a	RESPONSE	M3	1	17	F4	press
883.282	n/a	RESPONSE	M3	1	19	G4	release
883.4	n/a	RESPONSE	M3	1	04	E3	press
883.461	n/a	RESPONSE	M3	1	15	D#4	press
883.493	n/a	RESPONSE	M3	1	07	G3	release
883.544	n/a	RESPONSE	M3	1	16	E4	press
883.565	n/a	RESPONSE	M3	1	15	D#4	release
883.796	n/a	RESPONSE	M3	1	17	F4	release
884.108	n/a	RESPONSE	M3	1	04	E3	release
884.149	n/a	RESPONSE	M3	1	00	C3	press
884.16	n/a	RESPONSE	M3	1	12	C4	press
884.221	n/a	RESPONSE	M3	1	16	E4	release
884.493	n/a	RESPONSE	M3	1	12	C4	release
884.524	n/a	RESPONSE	M3	1	00	C3	release
884.798	n/a	RESPONSE	M3	1	00	C3	press
884.806	n/a	RESPONSE	M3	1	19	G4	press
885.098	n/a	RESPONSE	M3	1	21	A4	press
885.29	n/a	RESPONSE	M3	1	19	G4	release
885.4	n/a	RESPONSE	M3	1	19	G4	press
885.411	n/a	RESPONSE	M3	1	07	G3	press
885.463	n/a	RESPONSE	M3	1	00	C3	release
885.484	n/a	RESPONSE	M3	1	21	A4	release
885.695	n/a	RESPONSE	M3	1	17	F4	press
885.846	n/a	RESPONSE	M3	1	19	G4	release
885.99	n/a	RESPONSE	M3	1	04	E3	press
885.999	n/a	RESPONSE	M3	1	16	E4	press
886.081	n/a	RESPONSE	M3	1	07	G3	release
886.111	n/a	RESPONSE	M3	1	17	F4	release
886.823	n/a	RESPONSE	M3	1	07	G3	press
886.923	7.759	FIXCROSS	n/a	n/a	n/a	n/a	n/a
886.925	n/a	RESPONSE	M3	1	07	G3	release
887.248	n/a	RESPONSE	M3	1	07	G3	press
887.256	n/a	RESPONSE	M3	1	12	C4	press
887.31	n/a	RESPONSE	M3	1	04	E3	release
887.369	n/a	RESPONSE	M3	1	16	E4	release
887.711	n/a	RESPONSE	M3	1	07	G3	release
887.721	n/a	RESPONSE	M3	1	12	C4	release
894.682	6.317	CUE_LISTEN	M3	2	n/a	n/a	n/a
900.998	7.758	FIXCROSS	n/a	n/a	n/a	n/a	n/a
908.756	195.042	CUE_PLAYBACK_BOTH_HANDS	M3	2	n/a	n/a	n/a
909.513	n/a	RESPONSE	M3	2	12	C4	press
909.515	n/a	RESPONSE	M3	2	00	C3	press
910.111	n/a	RESPONSE	M3	2	12	C4	release
910.158	n/a	RESPONSE	M3	2	07	G3	press
910.2	n/a	RESPONSE	M3	2	00	C3	release
910.695	n/a	RESPONSE	M3	2	07	G3	release
910.744	n/a	RESPONSE	M3	2	00	C3	press
910.771	n/a	RESPONSE	M3	2	12	C4	press
911.454	n/a	RESPONSE	M3	2	00	C3	release
911.493	n/a	RESPONSE	M3	2	12	C4	release
911.885	n/a	RESPONSE	M3	2	00	C3	press
911.889	n/a	RESPONSE	M3	2	12	C4	press
912.439	n/a	RESPONSE	M3	2	07	G3	press
912.501	n/a	RESPONSE	M3	2	00	C3	release
912.515	n/a	RESPONSE	M3	2	12	C4	release
912.975	n/a	RESPONSE	M3	2	12	C4	press
912.978	n/a	RESPONSE	M3	2	00	C3	press
913.059	n/a	RESPONSE	M3	2	07	G3	release
913.25	n/a	FIXCROSS	n/a	n/a	n/a	n/a	n/a
913.584	n/a	RESPONSE	M3	2	00	C3	release
913.663	n/a	RESPONSE	M3	2	12	C4	release
