onset	duration	trial_type	trial_number	stroop_condition	stim_text(PL)	stim_text(eng)	stim_color(PL)	stim_color(eng)	response_type	response_color
0.0	n/a	RESPONSE	n/a	n/a	n/a	n/a	n/a	n/a	n/a	n/a
0.0697	1.0333	ITI	n/a	n/a	n/a	n/a	n/a	n/a	n/a	n/a
1.103	0.5167	FIXCROSS	n/a	n/a	n/a	n/a	n/a	n/a	n/a	n/a
1.6197	1.15	T_INK	1	Incongruent	czerwony	red	niebieski	blue	hit	n/a
2.7297	n/a	RESPONSE	n/a	n/a	n/a	n/a	n/a	n/a	n/a	blue
2.7697	0.5167	FEEDBACK	n/a	n/a	n/a	n/a	n/a	n/a	n/a	n/a
3.2864	1.0333	ITI	n/a	n/a	n/a	n/a	n/a	n/a	n/a	n/a
4.3197	0.5167	FIXCROSS	n/a	n/a	n/a	n/a	n/a	n/a	n/a	n/a
4.8364	0.8334	T_INK	2	Incongruent	czerwony	red	żółty	yellow	hit	n/a
5.6349	n/a	RESPONSE	n/a	n/a	n/a	n/a	n/a	n/a	n/a	yellow
5.6697	0.5166	FEEDBACK	n/a	n/a	n/a	n/a	n/a	n/a	n/a	n/a
6.1864	1.0167	ITI	n/a	n/a	n/a	n/a	n/a	n/a	n/a	n/a
7.2031	0.5167	FIXCROSS	n/a	n/a	n/a	n/a	n/a	n/a	n/a	n/a
7.7198	0.85	T_INK	3	Neutral	xxxxxxxxx	xxxxxxxxx	żółty	yellow	hit	n/a
8.5401	n/a	RESPONSE	n/a	n/a	n/a	n/a	n/a	n/a	n/a	yellow
8.5698	0.5167	FEEDBACK	n/a	n/a	n/a	n/a	n/a	n/a	n/a	n/a
9.0864	1.0167	ITI	n/a	n/a	n/a	n/a	n/a	n/a	n/a	n/a
10.1031	0.5166	FIXCROSS	n/a	n/a	n/a	n/a	n/a	n/a	n/a	n/a
10.6197	0.85	T_INK	4	Neutral	xxxxx	xxxxx	zielony	green	hit	n/a
11.4453	n/a	RESPONSE	n/a	n/a	n/a	n/a	n/a	n/a	n/a	green
11.4698	0.5167	FEEDBACK	n/a	n/a	n/a	n/a	n/a	n/a	n/a	n/a
11.9865	1.0167	ITI	n/a	n/a	n/a	n/a	n/a	n/a	n/a	n/a
13.0031	0.5167	FIXCROSS	n/a	n/a	n/a	n/a	n/a	n/a	n/a	n/a
13.5198	0.6667	T_INK	5	Neutral	xxxxxxxxx	xxxxxxxxx	zielony	green	hit	n/a
14.1589	n/a	RESPONSE	n/a	n/a	n/a	n/a	n/a	n/a	n/a	green
14.1865	0.5167	FEEDBACK	n/a	n/a	n/a	n/a	n/a	n/a	n/a	n/a
14.7031	1.0167	ITI	n/a	n/a	n/a	n/a	n/a	n/a	n/a	n/a
15.7198	0.5167	FIXCROSS	n/a	n/a	n/a	n/a	n/a	n/a	n/a	n/a
16.2365	1.0	T_INK	6	Incongruent	niebieski	blue	żółty	yellow	hit	n/a
17.2079	n/a	RESPONSE	n/a	n/a	n/a	n/a	n/a	n/a	n/a	yellow
17.2365	0.5167	FEEDBACK	n/a	n/a	n/a	n/a	n/a	n/a	n/a	n/a
17.7532	1.0167	ITI	n/a	n/a	n/a	n/a	n/a	n/a	n/a	n/a
18.7698	0.5167	FIXCROSS	n/a	n/a	n/a	n/a	n/a	n/a	n/a	n/a
19.2865	0.6166	T_INK	7	Neutral	xxxxxxx	xxxxxxx	żółty	yellow	hit	n/a
19.8736	n/a	RESPONSE	n/a	n/a	n/a	n/a	n/a	n/a	n/a	yellow
19.9032	0.5167	FEEDBACK	n/a	n/a	n/a	n/a	n/a	n/a	n/a	n/a
20.4199	1.0167	ITI	n/a	n/a	n/a	n/a	n/a	n/a	n/a	n/a
21.4365	0.5167	FIXCROSS	n/a	n/a	n/a	n/a	n/a	n/a	n/a	n/a
21.9532	0.6667	T_INK	8	Neutral	xxxxxxxx	xxxxxxxx	żółty	yellow	hit	n/a
22.5873	n/a	RESPONSE	n/a	n/a	n/a	n/a	n/a	n/a	n/a	yellow
22.6199	0.5167	FEEDBACK	n/a	n/a	n/a	n/a	n/a	n/a	n/a	n/a
23.1365	1.0167	ITI	n/a	n/a	n/a	n/a	n/a	n/a	n/a	n/a
24.1532	0.5167	FIXCROSS	n/a	n/a	n/a	n/a	n/a	n/a	n/a	n/a
24.6699	0.7	T_INK	9	Neutral	xxxxxxxxx	xxxxxxxxx	czerwony	red	hit	n/a
25.3488	n/a	RESPONSE	n/a	n/a	n/a	n/a	n/a	n/a	n/a	red
25.3699	0.5167	FEEDBACK	n/a	n/a	n/a	n/a	n/a	n/a	n/a	n/a
25.8866	1.0333	ITI	n/a	n/a	n/a	n/a	n/a	n/a	n/a	n/a
26.9199	0.5167	FIXCROSS	n/a	n/a	n/a	n/a	n/a	n/a	n/a	n/a
27.4366	0.8667	T_INK	10	Incongruent	żółty	yellow	czerwony	red	hit	n/a
28.27	n/a	RESPONSE	n/a	n/a	n/a	n/a	n/a	n/a	n/a	red
28.3033	0.5167	FEEDBACK	n/a	n/a	n/a	n/a	n/a	n/a	n/a	n/a
28.8199	1.0166	ITI	n/a	n/a	n/a	n/a	n/a	n/a	n/a	n/a
29.8366	0.5167	FIXCROSS	n/a	n/a	n/a	n/a	n/a	n/a	n/a	n/a
30.3533	0.55	T_INK	11	Incongruent	niebieski	blue	czerwony	red	hit	n/a
30.872	n/a	RESPONSE	n/a	n/a	n/a	n/a	n/a	n/a	n/a	red
30.9033	0.5166	FEEDBACK	n/a	n/a	n/a	n/a	n/a	n/a	n/a	n/a
31.4199	1.0167	ITI	n/a	n/a	n/a	n/a	n/a	n/a	n/a	n/a
32.4366	0.5167	FIXCROSS	n/a	n/a	n/a	n/a	n/a	n/a	n/a	n/a
32.9533	0.7333	T_INK	12	Incongruent	żółty	yellow	zielony	green	hit	n/a
33.6654	n/a	RESPONSE	n/a	n/a	n/a	n/a	n/a	n/a	n/a	green
33.6866	0.5167	FEEDBACK	n/a	n/a	n/a	n/a	n/a	n/a	n/a	n/a
34.2033	1.0333	ITI	n/a	n/a	n/a	n/a	n/a	n/a	n/a	n/a
37.8635	n/a	RESPONSE	n/a	n/a	n/a	n/a	n/a	n/a	n/a	n/a
37.92	1.0166	ITI	n/a	n/a	n/a	n/a	n/a	n/a	n/a	n/a
38.9366	0.5167	FIXCROSS	n/a	n/a	n/a	n/a	n/a	n/a	n/a	n/a
39.4533	0.5167	INK	1	Incongruent	niebieski	blue	żółty	yellow	hit	n/a
39.9388	n/a	RESPONSE	n/a	n/a	n/a	n/a	n/a	n/a	n/a	yellow
39.97	1.0166	ITI	n/a	n/a	n/a	n/a	n/a	n/a	n/a	n/a
40.9867	0.5167	FIXCROSS	n/a	n/a	n/a	n/a	n/a	n/a	n/a	n/a
41.5034	0.4833	INK	2	Incongruent	zielony	green	żółty	yellow	hit	n/a
41.966	n/a	RESPONSE	n/a	n/a	n/a	n/a	n/a	n/a	n/a	yellow
41.9867	1.0167	ITI	n/a	n/a	n/a	n/a	n/a	n/a	n/a	n/a
43.0033	0.5167	FIXCROSS	n/a	n/a	n/a	n/a	n/a	n/a	n/a	n/a
43.5201	1.1333	INK	3	Neutral	xxxxxxx	xxxxxxx	czerwony	red	hit	n/a
44.6317	n/a	RESPONSE	n/a	n/a	n/a	n/a	n/a	n/a	n/a	red
44.6534	1.0167	ITI	n/a	n/a	n/a	n/a	n/a	n/a	n/a	n/a
45.6701	0.5167	FIXCROSS	n/a	n/a	n/a	n/a	n/a	n/a	n/a	n/a
46.1867	0.5667	INK	4	Neutral	xxxxxxxxx	xxxxxxxxx	czerwony	red	hit	n/a
46.723	n/a	RESPONSE	n/a	n/a	n/a	n/a	n/a	n/a	n/a	red
46.7534	1.0167	ITI	n/a	n/a	n/a	n/a	n/a	n/a	n/a	n/a
47.7701	0.5167	FIXCROSS	n/a	n/a	n/a	n/a	n/a	n/a	n/a	n/a
48.2868	0.6167	INK	5	Neutral	xxxxxxxx	xxxxxxxx	niebieski	blue	hit	n/a
48.8778	n/a	RESPONSE	n/a	n/a	n/a	n/a	n/a	n/a	n/a	blue
48.9034	1.0167	ITI	n/a	n/a	n/a	n/a	n/a	n/a	n/a	n/a
49.9201	0.5167	FIXCROSS	n/a	n/a	n/a	n/a	n/a	n/a	n/a	n/a
50.4368	0.6	INK	6	Incongruent	niebieski	blue	zielony	green	hit	n/a
51.0168	n/a	RESPONSE	n/a	n/a	n/a	n/a	n/a	n/a	n/a	green
51.0368	1.0167	ITI	n/a	n/a	n/a	n/a	n/a	n/a	n/a	n/a
52.0534	0.5167	FIXCROSS	n/a	n/a	n/a	n/a	n/a	n/a	n/a	n/a
52.5701	0.55	INK	7	Neutral	xxxxxxxx	xxxxxxxx	zielony	green	hit	n/a
53.0919	n/a	RESPONSE	n/a	n/a	n/a	n/a	n/a	n/a	n/a	green
53.1201	1.0167	ITI	n/a	n/a	n/a	n/a	n/a	n/a	n/a	n/a
54.1368	0.5167	FIXCROSS	n/a	n/a	n/a	n/a	n/a	n/a	n/a	n/a
54.6535	0.5667	INK	8	Neutral	xxxxxxx	xxxxxxx	czerwony	red	hit	n/a
55.1992	n/a	RESPONSE	n/a	n/a	n/a	n/a	n/a	n/a	n/a	red
55.2201	1.0167	ITI	n/a	n/a	n/a	n/a	n/a	n/a	n/a	n/a
56.2368	0.5167	FIXCROSS	n/a	n/a	n/a	n/a	n/a	n/a	n/a	n/a
56.7535	0.5833	INK	9	Incongruent	zielony	green	niebieski	blue	hit	n/a
57.3061	n/a	RESPONSE	n/a	n/a	n/a	n/a	n/a	n/a	n/a	blue
57.3368	1.0167	ITI	n/a	n/a	n/a	n/a	n/a	n/a	n/a	n/a
58.3535	0.5166	FIXCROSS	n/a	n/a	n/a	n/a	n/a	n/a	n/a	n/a
58.8701	0.6334	INK	10	Neutral	xxxxxxxxx	xxxxxxxxx	żółty	yellow	hit	n/a
59.4771	n/a	RESPONSE	n/a	n/a	n/a	n/a	n/a	n/a	n/a	yellow
59.5035	1.0167	ITI	n/a	n/a	n/a	n/a	n/a	n/a	n/a	n/a
60.5202	0.5166	FIXCROSS	n/a	n/a	n/a	n/a	n/a	n/a	n/a	n/a
61.0368	0.8334	INK	11	Neutral	xxxxxxxxx	xxxxxxxxx	zielony	green	hit	n/a
61.8396	n/a	RESPONSE	n/a	n/a	n/a	n/a	n/a	n/a	n/a	green
61.8702	1.0167	ITI	n/a	n/a	n/a	n/a	n/a	n/a	n/a	n/a
62.8869	0.5167	FIXCROSS	n/a	n/a	n/a	n/a	n/a	n/a	n/a	n/a
63.4036	0.45	INK	12	Incongruent	żółty	yellow	czerwony	red	hit	n/a
63.8349	n/a	RESPONSE	n/a	n/a	n/a	n/a	n/a	n/a	n/a	red
63.8535	1.0166	ITI	n/a	n/a	n/a	n/a	n/a	n/a	n/a	n/a
64.8702	0.5167	FIXCROSS	n/a	n/a	n/a	n/a	n/a	n/a	n/a	n/a
65.3869	0.7333	INK	13	Incongruent	zielony	green	żółty	yellow	hit	n/a
66.1016	n/a	RESPONSE	n/a	n/a	n/a	n/a	n/a	n/a	n/a	yellow
66.1202	1.0166	ITI	n/a	n/a	n/a	n/a	n/a	n/a	n/a	n/a
67.1369	0.5167	FIXCROSS	n/a	n/a	n/a	n/a	n/a	n/a	n/a	n/a
67.6536	0.65	INK	14	Incongruent	czerwony	red	żółty	yellow	hit	n/a
68.2724	n/a	RESPONSE	n/a	n/a	n/a	n/a	n/a	n/a	n/a	yellow
68.3036	1.0166	ITI	n/a	n/a	n/a	n/a	n/a	n/a	n/a	n/a
69.3202	0.5167	FIXCROSS	n/a	n/a	n/a	n/a	n/a	n/a	n/a	n/a
69.8369	0.6167	INK	15	Incongruent	żółty	yellow	niebieski	blue	hit	n/a
70.4274	n/a	RESPONSE	n/a	n/a	n/a	n/a	n/a	n/a	n/a	blue
70.4536	1.0167	ITI	n/a	n/a	n/a	n/a	n/a	n/a	n/a	n/a
71.4703	0.5167	FIXCROSS	n/a	n/a	n/a	n/a	n/a	n/a	n/a	n/a
71.987	0.6	INK	16	Neutral	xxxxxxxx	xxxxxxxx	niebieski	blue	hit	n/a
72.5664	n/a	RESPONSE	n/a	n/a	n/a	n/a	n/a	n/a	n/a	blue
72.5869	1.0167	ITI	n/a	n/a	n/a	n/a	n/a	n/a	n/a	n/a
73.6036	0.5166	FIXCROSS	n/a	n/a	n/a	n/a	n/a	n/a	n/a	n/a
74.1203	0.5834	INK	17	Incongruent	czerwony	red	zielony	green	incorrect	n/a
74.6736	n/a	RESPONSE	n/a	n/a	n/a	n/a	n/a	n/a	n/a	red
74.7036	1.0167	ITI	n/a	n/a	n/a	n/a	n/a	n/a	n/a	n/a
75.7203	0.5166	FIXCROSS	n/a	n/a	n/a	n/a	n/a	n/a	n/a	n/a
76.237	0.7334	INK	18	Neutral	xxxxxxxxx	xxxxxxxxx	zielony	green	hit	n/a
76.9403	n/a	RESPONSE	n/a	n/a	n/a	n/a	n/a	n/a	n/a	green
76.9703	1.0167	ITI	n/a	n/a	n/a	n/a	n/a	n/a	n/a	n/a
77.987	0.5167	FIXCROSS	n/a	n/a	n/a	n/a	n/a	n/a	n/a	n/a
78.5037	0.75	INK	19	Incongruent	zielony	green	czerwony	red	hit	n/a
79.223	n/a	RESPONSE	n/a	n/a	n/a	n/a	n/a	n/a	n/a	red
79.2536	1.0167	ITI	n/a	n/a	n/a	n/a	n/a	n/a	n/a	n/a
80.2703	0.5167	FIXCROSS	n/a	n/a	n/a	n/a	n/a	n/a	n/a	n/a
80.787	0.7	INK	20	Incongruent	niebieski	blue	czerwony	red	hit	n/a
81.4577	n/a	RESPONSE	n/a	n/a	n/a	n/a	n/a	n/a	n/a	red
81.487	1.0167	ITI	n/a	n/a	n/a	n/a	n/a	n/a	n/a	n/a
82.5037	0.5167	FIXCROSS	n/a	n/a	n/a	n/a	n/a	n/a	n/a	n/a
83.0204	0.7166	INK	21	Neutral	xxxxx	xxxxx	zielony	green	hit	n/a
83.7085	n/a	RESPONSE	n/a	n/a	n/a	n/a	n/a	n/a	n/a	green
83.737	1.0167	ITI	n/a	n/a	n/a	n/a	n/a	n/a	n/a	n/a
84.7537	0.5167	FIXCROSS	n/a	n/a	n/a	n/a	n/a	n/a	n/a	n/a
85.2704	0.7	INK	22	Incongruent	czerwony	red	niebieski	blue	hit	n/a
85.9433	n/a	RESPONSE	n/a	n/a	n/a	n/a	n/a	n/a	n/a	blue
85.9704	1.0167	ITI	n/a	n/a	n/a	n/a	n/a	n/a	n/a	n/a
86.9871	0.5166	FIXCROSS	n/a	n/a	n/a	n/a	n/a	n/a	n/a	n/a
87.5037	0.85	INK	23	Incongruent	niebieski	blue	czerwony	red	hit	n/a
88.3217	n/a	RESPONSE	n/a	n/a	n/a	n/a	n/a	n/a	n/a	red
88.3537	1.0167	ITI	n/a	n/a	n/a	n/a	n/a	n/a	n/a	n/a
89.3704	0.5167	FIXCROSS	n/a	n/a	n/a	n/a	n/a	n/a	n/a	n/a
89.8871	0.6	INK	24	Neutral	xxxxx	xxxxx	czerwony	red	hit	n/a
90.4607	n/a	RESPONSE	n/a	n/a	n/a	n/a	n/a	n/a	n/a	red
90.4871	1.0167	ITI	n/a	n/a	n/a	n/a	n/a	n/a	n/a	n/a
91.5038	0.5167	FIXCROSS	n/a	n/a	n/a	n/a	n/a	n/a	n/a	n/a
92.0204	0.6833	INK	25	Neutral	xxxxx	xxxxx	czerwony	red	hit	n/a
92.6794	n/a	RESPONSE	n/a	n/a	n/a	n/a	n/a	n/a	n/a	red
92.7037	1.0167	ITI	n/a	n/a	n/a	n/a	n/a	n/a	n/a	n/a
93.7205	0.5167	FIXCROSS	n/a	n/a	n/a	n/a	n/a	n/a	n/a	n/a
94.2371	0.7833	INK	26	Neutral	xxxxxxx	xxxxxxx	niebieski	blue	hit	n/a
94.994	n/a	RESPONSE	n/a	n/a	n/a	n/a	n/a	n/a	n/a	blue
95.0205	1.0167	ITI	n/a	n/a	n/a	n/a	n/a	n/a	n/a	n/a
96.0371	0.5167	FIXCROSS	n/a	n/a	n/a	n/a	n/a	n/a	n/a	n/a
96.5538	0.7667	INK	27	Incongruent	zielony	green	czerwony	red	hit	n/a
97.2928	n/a	RESPONSE	n/a	n/a	n/a	n/a	n/a	n/a	n/a	red
97.3205	1.0167	ITI	n/a	n/a	n/a	n/a	n/a	n/a	n/a	n/a
98.3371	0.5167	FIXCROSS	n/a	n/a	n/a	n/a	n/a	n/a	n/a	n/a
98.8538	0.6833	INK	28	Neutral	xxxxx	xxxxx	zielony	green	hit	n/a
99.5115	n/a	RESPONSE	n/a	n/a	n/a	n/a	n/a	n/a	n/a	green
99.5371	1.0167	ITI	n/a	n/a	n/a	n/a	n/a	n/a	n/a	n/a
100.5538	0.5167	FIXCROSS	n/a	n/a	n/a	n/a	n/a	n/a	n/a	n/a
101.0705	0.6667	INK	29	Neutral	xxxxxxxxx	xxxxxxxxx	czerwony	red	hit	n/a
101.7143	n/a	RESPONSE	n/a	n/a	n/a	n/a	n/a	n/a	n/a	red
101.7372	1.0167	ITI	n/a	n/a	n/a	n/a	n/a	n/a	n/a	n/a
102.7539	0.5167	FIXCROSS	n/a	n/a	n/a	n/a	n/a	n/a	n/a	n/a
103.2705	0.75	INK	30	Incongruent	niebieski	blue	żółty	yellow	hit	n/a
103.9969	n/a	RESPONSE	n/a	n/a	n/a	n/a	n/a	n/a	n/a	yellow
104.0205	1.0167	ITI	n/a	n/a	n/a	n/a	n/a	n/a	n/a	n/a
105.0372	0.5167	FIXCROSS	n/a	n/a	n/a	n/a	n/a	n/a	n/a	n/a
105.5539	0.75	INK	31	Incongruent	żółty	yellow	niebieski	blue	hit	n/a
106.2797	n/a	RESPONSE	n/a	n/a	n/a	n/a	n/a	n/a	n/a	blue
106.3039	1.0167	ITI	n/a	n/a	n/a	n/a	n/a	n/a	n/a	n/a
107.3206	0.5167	FIXCROSS	n/a	n/a	n/a	n/a	n/a	n/a	n/a	n/a
107.8372	0.8833	INK	32	Incongruent	zielony	green	czerwony	red	hit	n/a
108.69	n/a	RESPONSE	n/a	n/a	n/a	n/a	n/a	n/a	n/a	red
108.7206	1.0167	ITI	n/a	n/a	n/a	n/a	n/a	n/a	n/a	n/a
109.7373	0.5166	FIXCROSS	n/a	n/a	n/a	n/a	n/a	n/a	n/a	n/a
110.2539	0.8167	INK	33	Incongruent	czerwony	red	niebieski	blue	hit	n/a
111.0525	n/a	RESPONSE	n/a	n/a	n/a	n/a	n/a	n/a	n/a	blue
111.0706	1.0167	ITI	n/a	n/a	n/a	n/a	n/a	n/a	n/a	n/a
112.0873	0.5166	FIXCROSS	n/a	n/a	n/a	n/a	n/a	n/a	n/a	n/a
112.6039	0.6667	INK	34	Incongruent	czerwony	red	żółty	yellow	hit	n/a
113.2393	n/a	RESPONSE	n/a	n/a	n/a	n/a	n/a	n/a	n/a	yellow
113.2706	1.0167	ITI	n/a	n/a	n/a	n/a	n/a	n/a	n/a	n/a
114.2873	0.5167	FIXCROSS	n/a	n/a	n/a	n/a	n/a	n/a	n/a	n/a
114.804	0.65	INK	35	Neutral	xxxxxxx	xxxxxxx	niebieski	blue	hit	n/a
115.4262	n/a	RESPONSE	n/a	n/a	n/a	n/a	n/a	n/a	n/a	blue
115.4539	1.0167	ITI	n/a	n/a	n/a	n/a	n/a	n/a	n/a	n/a
116.4706	0.5167	FIXCROSS	n/a	n/a	n/a	n/a	n/a	n/a	n/a	n/a
116.9873	0.6833	INK	36	Incongruent	niebieski	blue	zielony	green	hit	n/a
117.645	n/a	RESPONSE	n/a	n/a	n/a	n/a	n/a	n/a	n/a	green
117.6706	1.0167	ITI	n/a	n/a	n/a	n/a	n/a	n/a	n/a	n/a
118.6873	0.5167	FIXCROSS	n/a	n/a	n/a	n/a	n/a	n/a	n/a	n/a
119.204	0.6	INK	37	Incongruent	zielony	green	niebieski	blue	hit	n/a
119.784	n/a	RESPONSE	n/a	n/a	n/a	n/a	n/a	n/a	n/a	blue
119.804	1.0167	ITI	n/a	n/a	n/a	n/a	n/a	n/a	n/a	n/a
120.8207	0.5167	FIXCROSS	n/a	n/a	n/a	n/a	n/a	n/a	n/a	n/a
121.3374	0.7	INK	38	Incongruent	zielony	green	niebieski	blue	hit	n/a
122.0187	n/a	RESPONSE	n/a	n/a	n/a	n/a	n/a	n/a	n/a	blue
122.0374	1.0167	ITI	n/a	n/a	n/a	n/a	n/a	n/a	n/a	n/a
123.054	0.5167	FIXCROSS	n/a	n/a	n/a	n/a	n/a	n/a	n/a	n/a
123.5707	0.6833	INK	39	Neutral	xxxxxxxxx	xxxxxxxxx	żółty	yellow	hit	n/a
124.2216	n/a	RESPONSE	n/a	n/a	n/a	n/a	n/a	n/a	n/a	yellow
124.254	1.0167	ITI	n/a	n/a	n/a	n/a	n/a	n/a	n/a	n/a
125.2707	0.5167	FIXCROSS	n/a	n/a	n/a	n/a	n/a	n/a	n/a	n/a
125.7874	0.6	INK	40	Neutral	xxxxxxxx	xxxxxxxx	żółty	yellow	hit	n/a
126.3606	n/a	RESPONSE	n/a	n/a	n/a	n/a	n/a	n/a	n/a	yellow
126.3874	1.0167	ITI	n/a	n/a	n/a	n/a	n/a	n/a	n/a	n/a
127.4041	0.5166	FIXCROSS	n/a	n/a	n/a	n/a	n/a	n/a	n/a	n/a
127.9207	0.8834	INK	41	Incongruent	niebieski	blue	żółty	yellow	hit	n/a
128.771	n/a	RESPONSE	n/a	n/a	n/a	n/a	n/a	n/a	n/a	yellow
128.8041	1.0167	ITI	n/a	n/a	n/a	n/a	n/a	n/a	n/a	n/a
129.8208	0.5167	FIXCROSS	n/a	n/a	n/a	n/a	n/a	n/a	n/a	n/a
130.3374	0.8	INK	42	Incongruent	żółty	yellow	zielony	green	hit	n/a
131.1175	n/a	RESPONSE	n/a	n/a	n/a	n/a	n/a	n/a	n/a	green
131.1374	1.0167	ITI	n/a	n/a	n/a	n/a	n/a	n/a	n/a	n/a
132.1541	0.5167	FIXCROSS	n/a	n/a	n/a	n/a	n/a	n/a	n/a	n/a
132.6708	0.6	INK	43	Neutral	xxxxxxxx	xxxxxxxx	zielony	green	hit	n/a
133.2405	n/a	RESPONSE	n/a	n/a	n/a	n/a	n/a	n/a	n/a	green
133.2707	1.0167	ITI	n/a	n/a	n/a	n/a	n/a	n/a	n/a	n/a
134.2875	0.5166	FIXCROSS	n/a	n/a	n/a	n/a	n/a	n/a	n/a	n/a
134.8041	0.6834	INK	44	Incongruent	żółty	yellow	niebieski	blue	hit	n/a
135.4594	n/a	RESPONSE	n/a	n/a	n/a	n/a	n/a	n/a	n/a	blue
135.4874	1.0167	ITI	n/a	n/a	n/a	n/a	n/a	n/a	n/a	n/a
136.5041	0.5167	FIXCROSS	n/a	n/a	n/a	n/a	n/a	n/a	n/a	n/a
137.0208	0.6667	INK	45	Neutral	xxxxxxxx	xxxxxxxx	żółty	yellow	hit	n/a
137.6622	n/a	RESPONSE	n/a	n/a	n/a	n/a	n/a	n/a	n/a	yellow
137.6875	1.0166	ITI	n/a	n/a	n/a	n/a	n/a	n/a	n/a	n/a
138.7041	0.5167	FIXCROSS	n/a	n/a	n/a	n/a	n/a	n/a	n/a	n/a
139.2208	0.6333	INK	46	Neutral	xxxxxxxx	xxxxxxxx	niebieski	blue	hit	n/a
139.8331	n/a	RESPONSE	n/a	n/a	n/a	n/a	n/a	n/a	n/a	blue
139.8542	1.0167	ITI	n/a	n/a	n/a	n/a	n/a	n/a	n/a	n/a
140.8708	0.5167	FIXCROSS	n/a	n/a	n/a	n/a	n/a	n/a	n/a	n/a
141.3875	0.5333	INK	47	Neutral	xxxxx	xxxxx	niebieski	blue	hit	n/a
141.8923	n/a	RESPONSE	n/a	n/a	n/a	n/a	n/a	n/a	n/a	blue
141.9209	1.0167	ITI	n/a	n/a	n/a	n/a	n/a	n/a	n/a	n/a
142.9375	0.5167	FIXCROSS	n/a	n/a	n/a	n/a	n/a	n/a	n/a	n/a
143.4542	0.7167	INK	48	Neutral	xxxxxxx	xxxxxxx	czerwony	red	hit	n/a
144.143	n/a	RESPONSE	n/a	n/a	n/a	n/a	n/a	n/a	n/a	red
144.1709	1.0167	ITI	n/a	n/a	n/a	n/a	n/a	n/a	n/a	n/a
145.1875	0.5167	FIXCROSS	n/a	n/a	n/a	n/a	n/a	n/a	n/a	n/a
145.7042	0.6333	INK	49	Neutral	xxxxxxx	xxxxxxx	niebieski	blue	hit	n/a
146.314	n/a	RESPONSE	n/a	n/a	n/a	n/a	n/a	n/a	n/a	blue
146.3375	1.0167	ITI	n/a	n/a	n/a	n/a	n/a	n/a	n/a	n/a
147.3542	0.5166	FIXCROSS	n/a	n/a	n/a	n/a	n/a	n/a	n/a	n/a
147.8709	0.7667	INK	50	Neutral	xxxxxxxxx	xxxxxxxxx	czerwony	red	hit	n/a
148.6126	n/a	RESPONSE	n/a	n/a	n/a	n/a	n/a	n/a	n/a	red
148.6376	1.0167	ITI	n/a	n/a	n/a	n/a	n/a	n/a	n/a	n/a
149.6542	0.5167	FIXCROSS	n/a	n/a	n/a	n/a	n/a	n/a	n/a	n/a
150.1709	0.6833	INK	51	Neutral	xxxxx	xxxxx	zielony	green	hit	n/a
150.8313	n/a	RESPONSE	n/a	n/a	n/a	n/a	n/a	n/a	n/a	green
150.8542	1.0167	ITI	n/a	n/a	n/a	n/a	n/a	n/a	n/a	n/a
151.8709	0.5166	FIXCROSS	n/a	n/a	n/a	n/a	n/a	n/a	n/a	n/a
152.3876	0.5834	INK	52	Incongruent	żółty	yellow	zielony	green	hit	n/a
152.9384	n/a	RESPONSE	n/a	n/a	n/a	n/a	n/a	n/a	n/a	green
152.9709	1.0166	ITI	n/a	n/a	n/a	n/a	n/a	n/a	n/a	n/a
153.9876	0.5167	FIXCROSS	n/a	n/a	n/a	n/a	n/a	n/a	n/a	n/a
154.5043	0.7666	INK	53	Incongruent	żółty	yellow	czerwony	red	hit	n/a
155.237	n/a	RESPONSE	n/a	n/a	n/a	n/a	n/a	n/a	n/a	red
155.2709	1.0167	ITI	n/a	n/a	n/a	n/a	n/a	n/a	n/a	n/a
156.2876	0.5167	FIXCROSS	n/a	n/a	n/a	n/a	n/a	n/a	n/a	n/a
156.8043	0.6333	INK	54	Neutral	xxxxxxxxx	xxxxxxxxx	żółty	yellow	hit	n/a
157.408	n/a	RESPONSE	n/a	n/a	n/a	n/a	n/a	n/a	n/a	yellow
157.4377	1.0167	ITI	n/a	n/a	n/a	n/a	n/a	n/a	n/a	n/a
158.4543	0.5167	FIXCROSS	n/a	n/a	n/a	n/a	n/a	n/a	n/a	n/a
158.971	0.75	INK	55	Incongruent	niebieski	blue	zielony	green	hit	n/a
159.6906	n/a	RESPONSE	n/a	n/a	n/a	n/a	n/a	n/a	n/a	green
159.721	1.0167	ITI	n/a	n/a	n/a	n/a	n/a	n/a	n/a	n/a
160.7377	0.5166	FIXCROSS	n/a	n/a	n/a	n/a	n/a	n/a	n/a	n/a
161.2543	0.65	INK	56	Neutral	xxxxxxx	xxxxxxx	żółty	yellow	hit	n/a
161.8774	n/a	RESPONSE	n/a	n/a	n/a	n/a	n/a	n/a	n/a	yellow
161.9044	1.0167	ITI	n/a	n/a	n/a	n/a	n/a	n/a	n/a	n/a
162.921	0.5166	FIXCROSS	n/a	n/a	n/a	n/a	n/a	n/a	n/a	n/a
163.4377	0.75	INK	57	Incongruent	żółty	yellow	zielony	green	hit	n/a
164.16	n/a	RESPONSE	n/a	n/a	n/a	n/a	n/a	n/a	n/a	green
164.1877	1.0167	ITI	n/a	n/a	n/a	n/a	n/a	n/a	n/a	n/a
165.2044	0.5167	FIXCROSS	n/a	n/a	n/a	n/a	n/a	n/a	n/a	n/a
165.721	0.6834	INK	58	Incongruent	żółty	yellow	czerwony	red	hit	n/a
166.3789	n/a	RESPONSE	n/a	n/a	n/a	n/a	n/a	n/a	n/a	red
166.4044	1.0167	ITI	n/a	n/a	n/a	n/a	n/a	n/a	n/a	n/a
167.4211	0.5167	FIXCROSS	n/a	n/a	n/a	n/a	n/a	n/a	n/a	n/a
167.9377	0.8	INK	59	Incongruent	czerwony	red	zielony	green	hit	n/a
168.7095	n/a	RESPONSE	n/a	n/a	n/a	n/a	n/a	n/a	n/a	green
168.7377	1.0167	ITI	n/a	n/a	n/a	n/a	n/a	n/a	n/a	n/a
169.7544	0.5167	FIXCROSS	n/a	n/a	n/a	n/a	n/a	n/a	n/a	n/a
170.2711	0.7167	INK	60	Neutral	xxxxx	xxxxx	czerwony	red	hit	n/a
170.9602	n/a	RESPONSE	n/a	n/a	n/a	n/a	n/a	n/a	n/a	red
170.9878	1.0167	ITI	n/a	n/a	n/a	n/a	n/a	n/a	n/a	n/a
172.0044	0.5167	FIXCROSS	n/a	n/a	n/a	n/a	n/a	n/a	n/a	n/a
172.5211	0.65	INK	61	Neutral	xxxxxxx	xxxxxxx	żółty	yellow	hit	n/a
173.147	n/a	RESPONSE	n/a	n/a	n/a	n/a	n/a	n/a	n/a	yellow
173.1711	1.0167	ITI	n/a	n/a	n/a	n/a	n/a	n/a	n/a	n/a
174.1878	0.5166	FIXCROSS	n/a	n/a	n/a	n/a	n/a	n/a	n/a	n/a
174.7044	0.6834	INK	62	Neutral	xxxxxxxx	xxxxxxxx	zielony	green	hit	n/a
175.3659	n/a	RESPONSE	n/a	n/a	n/a	n/a	n/a	n/a	n/a	green
175.3878	1.0167	ITI	n/a	n/a	n/a	n/a	n/a	n/a	n/a	n/a
176.4045	0.5166	FIXCROSS	n/a	n/a	n/a	n/a	n/a	n/a	n/a	n/a
176.9211	0.7334	INK	63	Incongruent	niebieski	blue	czerwony	red	hit	n/a
177.6325	n/a	RESPONSE	n/a	n/a	n/a	n/a	n/a	n/a	n/a	red
177.6545	1.0166	ITI	n/a	n/a	n/a	n/a	n/a	n/a	n/a	n/a
178.6711	0.5167	FIXCROSS	n/a	n/a	n/a	n/a	n/a	n/a	n/a	n/a
179.1878	0.6834	INK	64	Neutral	xxxxxxxx	xxxxxxxx	żółty	yellow	hit	n/a
179.8515	n/a	RESPONSE	n/a	n/a	n/a	n/a	n/a	n/a	n/a	yellow
179.8712	1.0167	ITI	n/a	n/a	n/a	n/a	n/a	n/a	n/a	n/a
180.8878	0.5166	FIXCROSS	n/a	n/a	n/a	n/a	n/a	n/a	n/a	n/a
181.4045	0.5834	INK	65	Incongruent	czerwony	red	niebieski	blue	hit	n/a
181.9585	n/a	RESPONSE	n/a	n/a	n/a	n/a	n/a	n/a	n/a	blue
181.9879	1.0167	ITI	n/a	n/a	n/a	n/a	n/a	n/a	n/a	n/a
183.0045	0.5166	FIXCROSS	n/a	n/a	n/a	n/a	n/a	n/a	n/a	n/a
183.5212	0.9834	INK	66	Neutral	xxxxxxx	xxxxxxx	żółty	yellow	hit	n/a
184.4805	n/a	RESPONSE	n/a	n/a	n/a	n/a	n/a	n/a	n/a	yellow
184.5045	1.0167	ITI	n/a	n/a	n/a	n/a	n/a	n/a	n/a	n/a
185.5212	0.5167	FIXCROSS	n/a	n/a	n/a	n/a	n/a	n/a	n/a	n/a
186.0379	0.5833	INK	67	Neutral	xxxxx	xxxxx	niebieski	blue	hit	n/a
186.6035	n/a	RESPONSE	n/a	n/a	n/a	n/a	n/a	n/a	n/a	blue
186.6212	1.0167	ITI	n/a	n/a	n/a	n/a	n/a	n/a	n/a	n/a
187.6379	0.5167	FIXCROSS	n/a	n/a	n/a	n/a	n/a	n/a	n/a	n/a
188.1546	0.5167	INK	68	Neutral	xxxxxxxxx	xxxxxxxxx	zielony	green	hit	n/a
188.6467	n/a	RESPONSE	n/a	n/a	n/a	n/a	n/a	n/a	n/a	green
188.6712	1.0167	ITI	n/a	n/a	n/a	n/a	n/a	n/a	n/a	n/a
189.6879	0.5167	FIXCROSS	n/a	n/a	n/a	n/a	n/a	n/a	n/a	n/a
190.2046	0.6	INK	69	Incongruent	zielony	green	żółty	yellow	hit	n/a
190.7857	n/a	RESPONSE	n/a	n/a	n/a	n/a	n/a	n/a	n/a	yellow
190.8046	1.0167	ITI	n/a	n/a	n/a	n/a	n/a	n/a	n/a	n/a
191.8213	0.5166	FIXCROSS	n/a	n/a	n/a	n/a	n/a	n/a	n/a	n/a
192.3379	0.6667	INK	70	Incongruent	czerwony	red	żółty	yellow	hit	n/a
192.9726	n/a	RESPONSE	n/a	n/a	n/a	n/a	n/a	n/a	n/a	yellow
193.0046	1.0167	ITI	n/a	n/a	n/a	n/a	n/a	n/a	n/a	n/a
194.0213	0.5166	FIXCROSS	n/a	n/a	n/a	n/a	n/a	n/a	n/a	n/a
194.5379	0.8	INK	71	Incongruent	czerwony	red	zielony	green	hit	n/a
195.319	n/a	RESPONSE	n/a	n/a	n/a	n/a	n/a	n/a	n/a	green
195.338	1.0166	ITI	n/a	n/a	n/a	n/a	n/a	n/a	n/a	n/a
196.3546	0.5167	FIXCROSS	n/a	n/a	n/a	n/a	n/a	n/a	n/a	n/a
196.8713	0.6166	INK	72	Neutral	xxxxx	xxxxx	niebieski	blue	hit	n/a
197.4582	n/a	RESPONSE	n/a	n/a	n/a	n/a	n/a	n/a	n/a	blue
197.4879	1.0834	ITI	n/a	n/a	n/a	n/a	n/a	n/a	n/a	n/a
225.5046	n/a	RESPONSE	n/a	n/a	n/a	n/a	n/a	n/a	n/a	n/a
225.5715	1.0167	ITI	n/a	n/a	n/a	n/a	n/a	n/a	n/a	n/a
226.5882	0.5167	FIXCROSS	n/a	n/a	n/a	n/a	n/a	n/a	n/a	n/a
227.1049	1.4667	T_COLOR_NAME	1	Neutral	niebieski	blue	Neutral	Neutral	hit	n/a
228.5374	n/a	RESPONSE	n/a	n/a	n/a	n/a	n/a	n/a	n/a	blue
228.5716	0.5167	FEEDBACK	n/a	n/a	n/a	n/a	n/a	n/a	n/a	n/a
229.0882	1.0167	ITI	n/a	n/a	n/a	n/a	n/a	n/a	n/a	n/a
230.1049	0.5166	FIXCROSS	n/a	n/a	n/a	n/a	n/a	n/a	n/a	n/a
230.6216	0.7667	T_COLOR_NAME	2	Neutral	czerwony	red	Neutral	Neutral	hit	n/a
231.3629	n/a	RESPONSE	n/a	n/a	n/a	n/a	n/a	n/a	n/a	red
231.3882	0.5167	FEEDBACK	n/a	n/a	n/a	n/a	n/a	n/a	n/a	n/a
231.9049	1.0166	ITI	n/a	n/a	n/a	n/a	n/a	n/a	n/a	n/a
232.9216	0.5167	FIXCROSS	n/a	n/a	n/a	n/a	n/a	n/a	n/a	n/a
233.4383	1.1	T_COLOR_NAME	3	Incongruent	niebieski	blue	czerwony	red	hit	n/a
234.5075	n/a	RESPONSE	n/a	n/a	n/a	n/a	n/a	n/a	n/a	blue
234.5383	0.5167	FEEDBACK	n/a	n/a	n/a	n/a	n/a	n/a	n/a	n/a
235.0549	1.0167	ITI	n/a	n/a	n/a	n/a	n/a	n/a	n/a	n/a
236.0716	0.5167	FIXCROSS	n/a	n/a	n/a	n/a	n/a	n/a	n/a	n/a
236.5883	0.8167	T_COLOR_NAME	4	Neutral	niebieski	blue	Neutral	Neutral	hit	n/a
237.3808	n/a	RESPONSE	n/a	n/a	n/a	n/a	n/a	n/a	n/a	blue
237.4049	0.5167	FEEDBACK	n/a	n/a	n/a	n/a	n/a	n/a	n/a	n/a
237.9216	1.0167	ITI	n/a	n/a	n/a	n/a	n/a	n/a	n/a	n/a
238.9383	0.5167	FIXCROSS	n/a	n/a	n/a	n/a	n/a	n/a	n/a	n/a
239.455	0.8333	T_COLOR_NAME	5	Incongruent	niebieski	blue	żółty	yellow	hit	n/a
240.2542	n/a	RESPONSE	n/a	n/a	n/a	n/a	n/a	n/a	n/a	blue
240.2883	0.5166	FEEDBACK	n/a	n/a	n/a	n/a	n/a	n/a	n/a	n/a
240.805	1.0167	ITI	n/a	n/a	n/a	n/a	n/a	n/a	n/a	n/a
241.8217	0.5167	FIXCROSS	n/a	n/a	n/a	n/a	n/a	n/a	n/a	n/a
242.3383	0.65	T_COLOR_NAME	6	Neutral	niebieski	blue	Neutral	Neutral	hit	n/a
242.9678	n/a	RESPONSE	n/a	n/a	n/a	n/a	n/a	n/a	n/a	blue
242.9883	0.5167	FEEDBACK	n/a	n/a	n/a	n/a	n/a	n/a	n/a	n/a
243.505	1.0167	ITI	n/a	n/a	n/a	n/a	n/a	n/a	n/a	n/a
244.5217	0.5167	FIXCROSS	n/a	n/a	n/a	n/a	n/a	n/a	n/a	n/a
245.0384	0.85	T_COLOR_NAME	7	Incongruent	czerwony	red	żółty	yellow	hit	n/a
245.8571	n/a	RESPONSE	n/a	n/a	n/a	n/a	n/a	n/a	n/a	red
245.8884	0.5167	FEEDBACK	n/a	n/a	n/a	n/a	n/a	n/a	n/a	n/a
246.405	1.0167	ITI	n/a	n/a	n/a	n/a	n/a	n/a	n/a	n/a
247.4217	0.5167	FIXCROSS	n/a	n/a	n/a	n/a	n/a	n/a	n/a	n/a
247.9384	0.7834	T_COLOR_NAME	8	Incongruent	czerwony	red	niebieski	blue	hit	n/a
248.6985	n/a	RESPONSE	n/a	n/a	n/a	n/a	n/a	n/a	n/a	red
248.7217	0.5167	FEEDBACK	n/a	n/a	n/a	n/a	n/a	n/a	n/a	n/a
249.2384	1.0167	ITI	n/a	n/a	n/a	n/a	n/a	n/a	n/a	n/a
250.2551	0.5166	FIXCROSS	n/a	n/a	n/a	n/a	n/a	n/a	n/a	n/a
250.7717	0.9167	T_COLOR_NAME	9	Neutral	żółty	yellow	Neutral	Neutral	hit	n/a
251.6517	n/a	RESPONSE	n/a	n/a	n/a	n/a	n/a	n/a	n/a	yellow
251.6884	0.5167	FEEDBACK	n/a	n/a	n/a	n/a	n/a	n/a	n/a	n/a
252.2051	1.0167	ITI	n/a	n/a	n/a	n/a	n/a	n/a	n/a	n/a
253.2218	0.5167	FIXCROSS	n/a	n/a	n/a	n/a	n/a	n/a	n/a	n/a
253.7384	0.85	T_COLOR_NAME	10	Incongruent	żółty	yellow	czerwony	red	hit	n/a
254.5569	n/a	RESPONSE	n/a	n/a	n/a	n/a	n/a	n/a	n/a	yellow
254.5885	0.5167	FEEDBACK	n/a	n/a	n/a	n/a	n/a	n/a	n/a	n/a
255.1051	1.0167	ITI	n/a	n/a	n/a	n/a	n/a	n/a	n/a	n/a
256.1218	0.5167	FIXCROSS	n/a	n/a	n/a	n/a	n/a	n/a	n/a	n/a
256.6384	0.95	T_COLOR_NAME	11	Neutral	zielony	green	Neutral	Neutral	hit	n/a
257.5579	n/a	RESPONSE	n/a	n/a	n/a	n/a	n/a	n/a	n/a	green
257.5885	0.5167	FEEDBACK	n/a	n/a	n/a	n/a	n/a	n/a	n/a	n/a
258.1051	1.0167	ITI	n/a	n/a	n/a	n/a	n/a	n/a	n/a	n/a
259.1218	0.5167	FIXCROSS	n/a	n/a	n/a	n/a	n/a	n/a	n/a	n/a
259.6385	1.0333	T_COLOR_NAME	12	Incongruent	żółty	yellow	zielony	green	hit	n/a
260.6385	n/a	RESPONSE	n/a	n/a	n/a	n/a	n/a	n/a	n/a	yellow
260.6718	0.5167	FEEDBACK	n/a	n/a	n/a	n/a	n/a	n/a	n/a	n/a
261.1885	1.0333	ITI	n/a	n/a	n/a	n/a	n/a	n/a	n/a	n/a
264.2622	n/a	RESPONSE	n/a	n/a	n/a	n/a	n/a	n/a	n/a	n/a
264.3219	1.0166	ITI	n/a	n/a	n/a	n/a	n/a	n/a	n/a	n/a
265.3385	0.5167	FIXCROSS	n/a	n/a	n/a	n/a	n/a	n/a	n/a	n/a
265.8552	1.0834	COLOR_NAME	1	Incongruent	zielony	green	żółty	yellow	hit	n/a
266.912	n/a	RESPONSE	n/a	n/a	n/a	n/a	n/a	n/a	n/a	green
266.9386	1.0167	ITI	n/a	n/a	n/a	n/a	n/a	n/a	n/a	n/a
267.9552	0.5167	FIXCROSS	n/a	n/a	n/a	n/a	n/a	n/a	n/a	n/a
268.4719	0.7833	COLOR_NAME	2	Neutral	zielony	green	Neutral	Neutral	hit	n/a
269.2266	n/a	RESPONSE	n/a	n/a	n/a	n/a	n/a	n/a	n/a	green
269.2552	1.0167	ITI	n/a	n/a	n/a	n/a	n/a	n/a	n/a	n/a
270.2719	0.5167	FIXCROSS	n/a	n/a	n/a	n/a	n/a	n/a	n/a	n/a
270.7886	0.7	COLOR_NAME	3	Neutral	zielony	green	Neutral	Neutral	hit	n/a
271.4615	n/a	RESPONSE	n/a	n/a	n/a	n/a	n/a	n/a	n/a	green
271.4886	1.0166	ITI	n/a	n/a	n/a	n/a	n/a	n/a	n/a	n/a
272.5052	0.5167	FIXCROSS	n/a	n/a	n/a	n/a	n/a	n/a	n/a	n/a
273.0219	1.0	COLOR_NAME	4	Neutral	czerwony	red	Neutral	Neutral	hit	n/a
273.9994	n/a	RESPONSE	n/a	n/a	n/a	n/a	n/a	n/a	n/a	red
274.0219	1.0167	ITI	n/a	n/a	n/a	n/a	n/a	n/a	n/a	n/a
275.0386	0.5167	FIXCROSS	n/a	n/a	n/a	n/a	n/a	n/a	n/a	n/a
275.5553	0.9667	COLOR_NAME	5	Incongruent	zielony	green	niebieski	blue	hit	n/a
276.4895	n/a	RESPONSE	n/a	n/a	n/a	n/a	n/a	n/a	n/a	green
276.5219	1.0167	ITI	n/a	n/a	n/a	n/a	n/a	n/a	n/a	n/a
277.5386	0.5167	FIXCROSS	n/a	n/a	n/a	n/a	n/a	n/a	n/a	n/a
278.0553	0.65	COLOR_NAME	6	Neutral	zielony	green	Neutral	Neutral	hit	n/a
278.6765	n/a	RESPONSE	n/a	n/a	n/a	n/a	n/a	n/a	n/a	green
278.7053	1.0167	ITI	n/a	n/a	n/a	n/a	n/a	n/a	n/a	n/a
279.722	0.5167	FIXCROSS	n/a	n/a	n/a	n/a	n/a	n/a	n/a	n/a
280.2387	1.0	COLOR_NAME	7	Incongruent	niebieski	blue	czerwony	red	hit	n/a
281.2145	n/a	RESPONSE	n/a	n/a	n/a	n/a	n/a	n/a	n/a	blue
281.2387	1.0167	ITI	n/a	n/a	n/a	n/a	n/a	n/a	n/a	n/a
282.2553	0.5167	FIXCROSS	n/a	n/a	n/a	n/a	n/a	n/a	n/a	n/a
282.772	0.9333	COLOR_NAME	8	Neutral	czerwony	red	Neutral	Neutral	hit	n/a
283.6729	n/a	RESPONSE	n/a	n/a	n/a	n/a	n/a	n/a	n/a	red
283.7053	1.0167	ITI	n/a	n/a	n/a	n/a	n/a	n/a	n/a	n/a
284.722	0.5166	FIXCROSS	n/a	n/a	n/a	n/a	n/a	n/a	n/a	n/a
285.2387	0.85	COLOR_NAME	9	Neutral	niebieski	blue	Neutral	Neutral	hit	n/a
286.0673	n/a	RESPONSE	n/a	n/a	n/a	n/a	n/a	n/a	n/a	blue
286.0887	1.0167	ITI	n/a	n/a	n/a	n/a	n/a	n/a	n/a	n/a
287.1054	0.5166	FIXCROSS	n/a	n/a	n/a	n/a	n/a	n/a	n/a	n/a
287.622	0.8167	COLOR_NAME	10	Neutral	żółty	yellow	Neutral	Neutral	hit	n/a
288.4137	n/a	RESPONSE	n/a	n/a	n/a	n/a	n/a	n/a	n/a	yellow
288.4387	1.0167	ITI	n/a	n/a	n/a	n/a	n/a	n/a	n/a	n/a
289.4554	0.5167	FIXCROSS	n/a	n/a	n/a	n/a	n/a	n/a	n/a	n/a
289.9721	0.9333	COLOR_NAME	11	Incongruent	czerwony	red	zielony	green	hit	n/a
290.8878	n/a	RESPONSE	n/a	n/a	n/a	n/a	n/a	n/a	n/a	red
290.9054	1.0166	ITI	n/a	n/a	n/a	n/a	n/a	n/a	n/a	n/a
291.9221	0.5167	FIXCROSS	n/a	n/a	n/a	n/a	n/a	n/a	n/a	n/a
292.4388	1.0	COLOR_NAME	12	Incongruent	żółty	yellow	niebieski	blue	hit	n/a
293.4099	n/a	RESPONSE	n/a	n/a	n/a	n/a	n/a	n/a	n/a	yellow
293.4388	1.0167	ITI	n/a	n/a	n/a	n/a	n/a	n/a	n/a	n/a
294.4554	0.5167	FIXCROSS	n/a	n/a	n/a	n/a	n/a	n/a	n/a	n/a
294.9721	0.8333	COLOR_NAME	13	Incongruent	żółty	yellow	czerwony	red	hit	n/a
295.7726	n/a	RESPONSE	n/a	n/a	n/a	n/a	n/a	n/a	n/a	yellow
295.8054	1.0167	ITI	n/a	n/a	n/a	n/a	n/a	n/a	n/a	n/a
296.8221	0.5167	FIXCROSS	n/a	n/a	n/a	n/a	n/a	n/a	n/a	n/a
297.3388	1.3667	COLOR_NAME	14	Incongruent	żółty	yellow	zielony	green	hit	n/a
298.6776	n/a	RESPONSE	n/a	n/a	n/a	n/a	n/a	n/a	n/a	yellow
298.7055	1.0167	ITI	n/a	n/a	n/a	n/a	n/a	n/a	n/a	n/a
299.7221	0.5167	FIXCROSS	n/a	n/a	n/a	n/a	n/a	n/a	n/a	n/a
300.2388	0.8833	COLOR_NAME	15	Neutral	czerwony	red	Neutral	Neutral	hit	n/a
301.1041	n/a	RESPONSE	n/a	n/a	n/a	n/a	n/a	n/a	n/a	red
301.1222	1.0166	ITI	n/a	n/a	n/a	n/a	n/a	n/a	n/a	n/a
302.1388	0.5167	FIXCROSS	n/a	n/a	n/a	n/a	n/a	n/a	n/a	n/a
302.6555	0.7666	COLOR_NAME	16	Incongruent	żółty	yellow	niebieski	blue	hit	n/a
303.4027	n/a	RESPONSE	n/a	n/a	n/a	n/a	n/a	n/a	n/a	yellow
303.4221	1.0167	ITI	n/a	n/a	n/a	n/a	n/a	n/a	n/a	n/a
304.4388	0.5166	FIXCROSS	n/a	n/a	n/a	n/a	n/a	n/a	n/a	n/a
304.9555	0.6667	COLOR_NAME	17	Neutral	czerwony	red	Neutral	Neutral	hit	n/a
305.5896	n/a	RESPONSE	n/a	n/a	n/a	n/a	n/a	n/a	n/a	red
305.6222	1.0167	ITI	n/a	n/a	n/a	n/a	n/a	n/a	n/a	n/a
306.6388	0.5167	FIXCROSS	n/a	n/a	n/a	n/a	n/a	n/a	n/a	n/a
307.1555	0.8	COLOR_NAME	18	Incongruent	niebieski	blue	zielony	green	hit	n/a
307.936	n/a	RESPONSE	n/a	n/a	n/a	n/a	n/a	n/a	n/a	blue
307.9555	1.0167	ITI	n/a	n/a	n/a	n/a	n/a	n/a	n/a	n/a
308.9722	0.5167	FIXCROSS	n/a	n/a	n/a	n/a	n/a	n/a	n/a	n/a
309.4889	0.7666	COLOR_NAME	19	Incongruent	żółty	yellow	niebieski	blue	hit	n/a
310.2346	n/a	RESPONSE	n/a	n/a	n/a	n/a	n/a	n/a	n/a	yellow
310.2555	1.0167	ITI	n/a	n/a	n/a	n/a	n/a	n/a	n/a	n/a
311.2722	0.5167	FIXCROSS	n/a	n/a	n/a	n/a	n/a	n/a	n/a	n/a
311.7889	1.3167	COLOR_NAME	20	Incongruent	zielony	green	żółty	yellow	hit	n/a
313.076	n/a	RESPONSE	n/a	n/a	n/a	n/a	n/a	n/a	n/a	green
313.1056	1.0167	ITI	n/a	n/a	n/a	n/a	n/a	n/a	n/a	n/a
314.1223	0.5167	FIXCROSS	n/a	n/a	n/a	n/a	n/a	n/a	n/a	n/a
314.6389	0.8166	COLOR_NAME	21	Incongruent	czerwony	red	żółty	yellow	hit	n/a
315.4226	n/a	RESPONSE	n/a	n/a	n/a	n/a	n/a	n/a	n/a	red
315.4556	1.0167	ITI	n/a	n/a	n/a	n/a	n/a	n/a	n/a	n/a
316.4723	0.5167	FIXCROSS	n/a	n/a	n/a	n/a	n/a	n/a	n/a	n/a
316.9889	0.8833	COLOR_NAME	22	Incongruent	zielony	green	żółty	yellow	hit	n/a
317.8489	n/a	RESPONSE	n/a	n/a	n/a	n/a	n/a	n/a	n/a	green
317.8723	1.0167	ITI	n/a	n/a	n/a	n/a	n/a	n/a	n/a	n/a
318.8889	0.5167	FIXCROSS	n/a	n/a	n/a	n/a	n/a	n/a	n/a	n/a
319.4056	0.8333	COLOR_NAME	23	Neutral	żółty	yellow	Neutral	Neutral	hit	n/a
320.2114	n/a	RESPONSE	n/a	n/a	n/a	n/a	n/a	n/a	n/a	yellow
320.239	1.0167	ITI	n/a	n/a	n/a	n/a	n/a	n/a	n/a	n/a
321.2557	0.5167	FIXCROSS	n/a	n/a	n/a	n/a	n/a	n/a	n/a	n/a
321.7723	1.0833	COLOR_NAME	24	Incongruent	zielony	green	niebieski	blue	hit	n/a
322.8293	n/a	RESPONSE	n/a	n/a	n/a	n/a	n/a	n/a	n/a	green
322.8556	1.0167	ITI	n/a	n/a	n/a	n/a	n/a	n/a	n/a	n/a
323.8723	0.5166	FIXCROSS	n/a	n/a	n/a	n/a	n/a	n/a	n/a	n/a
324.389	0.8334	COLOR_NAME	25	Incongruent	czerwony	red	żółty	yellow	hit	n/a
325.1919	n/a	RESPONSE	n/a	n/a	n/a	n/a	n/a	n/a	n/a	red
325.2224	1.0167	ITI	n/a	n/a	n/a	n/a	n/a	n/a	n/a	n/a
326.239	0.5167	FIXCROSS	n/a	n/a	n/a	n/a	n/a	n/a	n/a	n/a
326.7557	0.95	COLOR_NAME	26	Incongruent	zielony	green	czerwony	red	hit	n/a
327.682	n/a	RESPONSE	n/a	n/a	n/a	n/a	n/a	n/a	n/a	green
327.7057	1.0167	ITI	n/a	n/a	n/a	n/a	n/a	n/a	n/a	n/a
328.7224	0.5167	FIXCROSS	n/a	n/a	n/a	n/a	n/a	n/a	n/a	n/a
329.239	0.8667	COLOR_NAME	27	Neutral	żółty	yellow	Neutral	Neutral	hit	n/a
330.0763	n/a	RESPONSE	n/a	n/a	n/a	n/a	n/a	n/a	n/a	yellow
330.1057	1.0167	ITI	n/a	n/a	n/a	n/a	n/a	n/a	n/a	n/a
331.1224	0.5167	FIXCROSS	n/a	n/a	n/a	n/a	n/a	n/a	n/a	n/a
331.6391	1.0333	COLOR_NAME	28	Incongruent	niebieski	blue	czerwony	red	hit	n/a
332.6463	n/a	RESPONSE	n/a	n/a	n/a	n/a	n/a	n/a	n/a	blue
332.6724	1.0167	ITI	n/a	n/a	n/a	n/a	n/a	n/a	n/a	n/a
333.6891	0.5167	FIXCROSS	n/a	n/a	n/a	n/a	n/a	n/a	n/a	n/a
334.2058	0.9	COLOR_NAME	29	Neutral	żółty	yellow	Neutral	Neutral	hit	n/a
335.0726	n/a	RESPONSE	n/a	n/a	n/a	n/a	n/a	n/a	n/a	yellow
335.1057	1.0167	ITI	n/a	n/a	n/a	n/a	n/a	n/a	n/a	n/a
336.1224	0.5167	FIXCROSS	n/a	n/a	n/a	n/a	n/a	n/a	n/a	n/a
336.6391	0.65	COLOR_NAME	30	Neutral	żółty	yellow	Neutral	Neutral	hit	n/a
337.2594	n/a	RESPONSE	n/a	n/a	n/a	n/a	n/a	n/a	n/a	yellow
337.2891	1.0167	ITI	n/a	n/a	n/a	n/a	n/a	n/a	n/a	n/a
338.3058	0.5167	FIXCROSS	n/a	n/a	n/a	n/a	n/a	n/a	n/a	n/a
338.8225	0.7333	COLOR_NAME	31	Neutral	niebieski	blue	Neutral	Neutral	hit	n/a
339.5262	n/a	RESPONSE	n/a	n/a	n/a	n/a	n/a	n/a	n/a	blue
339.5558	1.0167	ITI	n/a	n/a	n/a	n/a	n/a	n/a	n/a	n/a
340.5725	0.5167	FIXCROSS	n/a	n/a	n/a	n/a	n/a	n/a	n/a	n/a
341.0892	1.1333	COLOR_NAME	32	Incongruent	zielony	green	czerwony	red	hit	n/a
342.1919	n/a	RESPONSE	n/a	n/a	n/a	n/a	n/a	n/a	n/a	green
342.2225	1.0166	ITI	n/a	n/a	n/a	n/a	n/a	n/a	n/a	n/a
343.2391	0.5167	FIXCROSS	n/a	n/a	n/a	n/a	n/a	n/a	n/a	n/a
343.7558	0.7833	COLOR_NAME	33	Neutral	niebieski	blue	Neutral	Neutral	hit	n/a
344.5066	n/a	RESPONSE	n/a	n/a	n/a	n/a	n/a	n/a	n/a	blue
344.5392	1.0166	ITI	n/a	n/a	n/a	n/a	n/a	n/a	n/a	n/a
345.5558	0.5167	FIXCROSS	n/a	n/a	n/a	n/a	n/a	n/a	n/a	n/a
346.0725	0.5833	COLOR_NAME	34	Neutral	niebieski	blue	Neutral	Neutral	hit	n/a
346.6296	n/a	RESPONSE	n/a	n/a	n/a	n/a	n/a	n/a	n/a	blue
346.6559	1.0166	ITI	n/a	n/a	n/a	n/a	n/a	n/a	n/a	n/a
347.6725	0.5167	FIXCROSS	n/a	n/a	n/a	n/a	n/a	n/a	n/a	n/a
348.1892	0.8334	COLOR_NAME	35	Neutral	zielony	green	Neutral	Neutral	hit	n/a
348.9921	n/a	RESPONSE	n/a	n/a	n/a	n/a	n/a	n/a	n/a	green
349.0225	1.0166	ITI	n/a	n/a	n/a	n/a	n/a	n/a	n/a	n/a
350.0392	0.5167	FIXCROSS	n/a	n/a	n/a	n/a	n/a	n/a	n/a	n/a
350.5559	1.7	COLOR_NAME	36	Incongruent	niebieski	blue	zielony	green	hit	n/a
352.2326	n/a	RESPONSE	n/a	n/a	n/a	n/a	n/a	n/a	n/a	blue
352.2559	1.0167	ITI	n/a	n/a	n/a	n/a	n/a	n/a	n/a	n/a
353.2726	0.5167	FIXCROSS	n/a	n/a	n/a	n/a	n/a	n/a	n/a	n/a
353.7892	1.0	COLOR_NAME	37	Neutral	żółty	yellow	Neutral	Neutral	hit	n/a
354.7705	n/a	RESPONSE	n/a	n/a	n/a	n/a	n/a	n/a	n/a	yellow
354.7893	1.0167	ITI	n/a	n/a	n/a	n/a	n/a	n/a	n/a	n/a
355.8059	0.5167	FIXCROSS	n/a	n/a	n/a	n/a	n/a	n/a	n/a	n/a
356.3226	0.7667	COLOR_NAME	38	Neutral	zielony	green	Neutral	Neutral	hit	n/a
357.0691	n/a	RESPONSE	n/a	n/a	n/a	n/a	n/a	n/a	n/a	green
357.0893	1.0167	ITI	n/a	n/a	n/a	n/a	n/a	n/a	n/a	n/a
358.1059	0.5167	FIXCROSS	n/a	n/a	n/a	n/a	n/a	n/a	n/a	n/a
358.6226	0.6	COLOR_NAME	39	Neutral	zielony	green	Neutral	Neutral	hit	n/a
359.1922	n/a	RESPONSE	n/a	n/a	n/a	n/a	n/a	n/a	n/a	green
359.2226	1.0167	ITI	n/a	n/a	n/a	n/a	n/a	n/a	n/a	n/a
360.2393	0.5167	FIXCROSS	n/a	n/a	n/a	n/a	n/a	n/a	n/a	n/a
360.756	0.6667	COLOR_NAME	40	Neutral	niebieski	blue	Neutral	Neutral	hit	n/a
361.3949	n/a	RESPONSE	n/a	n/a	n/a	n/a	n/a	n/a	n/a	blue
361.4227	1.0167	ITI	n/a	n/a	n/a	n/a	n/a	n/a	n/a	n/a
362.4393	0.5167	FIXCROSS	n/a	n/a	n/a	n/a	n/a	n/a	n/a	n/a
362.956	0.85	COLOR_NAME	41	Incongruent	niebieski	blue	zielony	green	hit	n/a
363.7734	n/a	RESPONSE	n/a	n/a	n/a	n/a	n/a	n/a	n/a	blue
363.806	1.0167	ITI	n/a	n/a	n/a	n/a	n/a	n/a	n/a	n/a
364.8227	0.5167	FIXCROSS	n/a	n/a	n/a	n/a	n/a	n/a	n/a	n/a
365.3394	0.75	COLOR_NAME	42	Neutral	żółty	yellow	Neutral	Neutral	hit	n/a
366.056	n/a	RESPONSE	n/a	n/a	n/a	n/a	n/a	n/a	n/a	yellow
366.0894	1.0166	ITI	n/a	n/a	n/a	n/a	n/a	n/a	n/a	n/a
367.106	0.5167	FIXCROSS	n/a	n/a	n/a	n/a	n/a	n/a	n/a	n/a
367.6227	0.7167	COLOR_NAME	43	Incongruent	niebieski	blue	żółty	yellow	hit	n/a
368.3069	n/a	RESPONSE	n/a	n/a	n/a	n/a	n/a	n/a	n/a	blue
368.3394	1.0167	ITI	n/a	n/a	n/a	n/a	n/a	n/a	n/a	n/a
369.356	0.5167	FIXCROSS	n/a	n/a	n/a	n/a	n/a	n/a	n/a	n/a
369.8727	0.5166	COLOR_NAME	44	Neutral	niebieski	blue	Neutral	Neutral	hit	n/a
370.3661	n/a	RESPONSE	n/a	n/a	n/a	n/a	n/a	n/a	n/a	blue
370.3894	1.0167	ITI	n/a	n/a	n/a	n/a	n/a	n/a	n/a	n/a
371.4061	0.5167	FIXCROSS	n/a	n/a	n/a	n/a	n/a	n/a	n/a	n/a
371.9227	0.65	COLOR_NAME	45	Neutral	zielony	green	Neutral	Neutral	hit	n/a
372.553	n/a	RESPONSE	n/a	n/a	n/a	n/a	n/a	n/a	n/a	green
372.5727	1.0166	ITI	n/a	n/a	n/a	n/a	n/a	n/a	n/a	n/a
373.5894	0.5167	FIXCROSS	n/a	n/a	n/a	n/a	n/a	n/a	n/a	n/a
374.1061	0.75	COLOR_NAME	46	Incongruent	czerwony	red	niebieski	blue	hit	n/a
374.8357	n/a	RESPONSE	n/a	n/a	n/a	n/a	n/a	n/a	n/a	red
374.8561	1.0166	ITI	n/a	n/a	n/a	n/a	n/a	n/a	n/a	n/a
375.8727	0.5168	FIXCROSS	n/a	n/a	n/a	n/a	n/a	n/a	n/a	n/a
376.3894	0.6667	COLOR_NAME	47	Incongruent	żółty	yellow	zielony	green	hit	n/a
377.0385	n/a	RESPONSE	n/a	n/a	n/a	n/a	n/a	n/a	n/a	yellow
377.0561	1.0167	ITI	n/a	n/a	n/a	n/a	n/a	n/a	n/a	n/a
378.0728	0.5166	FIXCROSS	n/a	n/a	n/a	n/a	n/a	n/a	n/a	n/a
378.5894	0.7	COLOR_NAME	48	Neutral	żółty	yellow	Neutral	Neutral	hit	n/a
379.2574	n/a	RESPONSE	n/a	n/a	n/a	n/a	n/a	n/a	n/a	yellow
379.2895	1.0167	ITI	n/a	n/a	n/a	n/a	n/a	n/a	n/a	n/a
380.3061	0.5167	FIXCROSS	n/a	n/a	n/a	n/a	n/a	n/a	n/a	n/a
380.8228	1.2333	COLOR_NAME	49	Incongruent	czerwony	red	niebieski	blue	hit	n/a
382.0348	n/a	RESPONSE	n/a	n/a	n/a	n/a	n/a	n/a	n/a	red
382.0561	1.0167	ITI	n/a	n/a	n/a	n/a	n/a	n/a	n/a	n/a
383.0728	0.5167	FIXCROSS	n/a	n/a	n/a	n/a	n/a	n/a	n/a	n/a
383.5895	0.55	COLOR_NAME	50	Neutral	czerwony	red	Neutral	Neutral	hit	n/a
384.1099	n/a	RESPONSE	n/a	n/a	n/a	n/a	n/a	n/a	n/a	red
384.1395	1.0167	ITI	n/a	n/a	n/a	n/a	n/a	n/a	n/a	n/a
385.1562	0.5167	FIXCROSS	n/a	n/a	n/a	n/a	n/a	n/a	n/a	n/a
385.6728	0.6167	COLOR_NAME	51	Incongruent	czerwony	red	zielony	green	hit	n/a
386.2649	n/a	RESPONSE	n/a	n/a	n/a	n/a	n/a	n/a	n/a	red
386.2895	1.0167	ITI	n/a	n/a	n/a	n/a	n/a	n/a	n/a	n/a
387.3062	0.5166	FIXCROSS	n/a	n/a	n/a	n/a	n/a	n/a	n/a	n/a
387.8228	0.6167	COLOR_NAME	52	Incongruent	czerwony	red	zielony	green	hit	n/a
388.4199	n/a	RESPONSE	n/a	n/a	n/a	n/a	n/a	n/a	n/a	red
388.4395	1.0167	ITI	n/a	n/a	n/a	n/a	n/a	n/a	n/a	n/a
389.4562	0.5167	FIXCROSS	n/a	n/a	n/a	n/a	n/a	n/a	n/a	n/a
389.9728	0.6	COLOR_NAME	53	Incongruent	czerwony	red	żółty	yellow	hit	n/a
390.543	n/a	RESPONSE	n/a	n/a	n/a	n/a	n/a	n/a	n/a	red
390.5729	1.0167	ITI	n/a	n/a	n/a	n/a	n/a	n/a	n/a	n/a
391.5896	0.5167	FIXCROSS	n/a	n/a	n/a	n/a	n/a	n/a	n/a	n/a
392.1062	0.55	COLOR_NAME	54	Incongruent	czerwony	red	niebieski	blue	hit	n/a
392.6341	n/a	RESPONSE	n/a	n/a	n/a	n/a	n/a	n/a	n/a	red
392.6562	1.0167	ITI	n/a	n/a	n/a	n/a	n/a	n/a	n/a	n/a
393.6729	0.5166	FIXCROSS	n/a	n/a	n/a	n/a	n/a	n/a	n/a	n/a
394.1895	0.5834	COLOR_NAME	55	Neutral	czerwony	red	Neutral	Neutral	hit	n/a
394.7412	n/a	RESPONSE	n/a	n/a	n/a	n/a	n/a	n/a	n/a	red
394.7729	1.0167	ITI	n/a	n/a	n/a	n/a	n/a	n/a	n/a	n/a
395.7896	0.5167	FIXCROSS	n/a	n/a	n/a	n/a	n/a	n/a	n/a	n/a
396.3063	0.5333	COLOR_NAME	56	Neutral	czerwony	red	Neutral	Neutral	hit	n/a
396.8163	n/a	RESPONSE	n/a	n/a	n/a	n/a	n/a	n/a	n/a	red
396.8396	1.0167	ITI	n/a	n/a	n/a	n/a	n/a	n/a	n/a	n/a
397.8563	0.5166	FIXCROSS	n/a	n/a	n/a	n/a	n/a	n/a	n/a	n/a
398.3729	0.8	COLOR_NAME	57	Neutral	niebieski	blue	Neutral	Neutral	hit	n/a
399.1468	n/a	RESPONSE	n/a	n/a	n/a	n/a	n/a	n/a	n/a	blue
399.1729	1.0167	ITI	n/a	n/a	n/a	n/a	n/a	n/a	n/a	n/a
400.1896	0.5167	FIXCROSS	n/a	n/a	n/a	n/a	n/a	n/a	n/a	n/a
400.7063	0.7	COLOR_NAME	58	Neutral	zielony	green	Neutral	Neutral	hit	n/a
401.3816	n/a	RESPONSE	n/a	n/a	n/a	n/a	n/a	n/a	n/a	green
401.4063	1.0167	ITI	n/a	n/a	n/a	n/a	n/a	n/a	n/a	n/a
402.423	0.5167	FIXCROSS	n/a	n/a	n/a	n/a	n/a	n/a	n/a	n/a
402.9397	0.6	COLOR_NAME	59	Neutral	żółty	yellow	Neutral	Neutral	hit	n/a
403.5206	n/a	RESPONSE	n/a	n/a	n/a	n/a	n/a	n/a	n/a	yellow
403.5397	1.0166	ITI	n/a	n/a	n/a	n/a	n/a	n/a	n/a	n/a
404.5563	0.5167	FIXCROSS	n/a	n/a	n/a	n/a	n/a	n/a	n/a	n/a
405.073	0.7667	COLOR_NAME	60	Incongruent	niebieski	blue	czerwony	red	hit	n/a
405.8192	n/a	RESPONSE	n/a	n/a	n/a	n/a	n/a	n/a	n/a	blue
405.8397	1.0167	ITI	n/a	n/a	n/a	n/a	n/a	n/a	n/a	n/a
406.8563	0.5167	FIXCROSS	n/a	n/a	n/a	n/a	n/a	n/a	n/a	n/a
407.373	0.6667	COLOR_NAME	61	Neutral	niebieski	blue	Neutral	Neutral	hit	n/a
408.022	n/a	RESPONSE	n/a	n/a	n/a	n/a	n/a	n/a	n/a	blue
408.0397	1.0167	ITI	n/a	n/a	n/a	n/a	n/a	n/a	n/a	n/a
409.0564	0.5167	FIXCROSS	n/a	n/a	n/a	n/a	n/a	n/a	n/a	n/a
409.573	1.0333	COLOR_NAME	62	Neutral	czerwony	red	Neutral	Neutral	hit	n/a
410.5761	n/a	RESPONSE	n/a	n/a	n/a	n/a	n/a	n/a	n/a	red
410.6064	1.0167	ITI	n/a	n/a	n/a	n/a	n/a	n/a	n/a	n/a
411.623	0.5166	FIXCROSS	n/a	n/a	n/a	n/a	n/a	n/a	n/a	n/a
412.1397	0.6167	COLOR_NAME	63	Incongruent	niebieski	blue	żółty	yellow	hit	n/a
412.7311	n/a	RESPONSE	n/a	n/a	n/a	n/a	n/a	n/a	n/a	blue
412.7564	1.0166	ITI	n/a	n/a	n/a	n/a	n/a	n/a	n/a	n/a
413.7729	0.5168	FIXCROSS	n/a	n/a	n/a	n/a	n/a	n/a	n/a	n/a
414.2897	0.7334	COLOR_NAME	64	Incongruent	zielony	green	niebieski	blue	hit	n/a
414.9978	n/a	RESPONSE	n/a	n/a	n/a	n/a	n/a	n/a	n/a	green
415.0231	1.0167	ITI	n/a	n/a	n/a	n/a	n/a	n/a	n/a	n/a
416.0398	0.5167	FIXCROSS	n/a	n/a	n/a	n/a	n/a	n/a	n/a	n/a
416.5564	1.2667	COLOR_NAME	65	Incongruent	żółty	yellow	czerwony	red	hit	n/a
417.7913	n/a	RESPONSE	n/a	n/a	n/a	n/a	n/a	n/a	n/a	yellow
417.8231	1.0166	ITI	n/a	n/a	n/a	n/a	n/a	n/a	n/a	n/a
418.8397	0.5167	FIXCROSS	n/a	n/a	n/a	n/a	n/a	n/a	n/a	n/a
419.3564	0.85	COLOR_NAME	66	Neutral	czerwony	red	Neutral	Neutral	hit	n/a
420.1858	n/a	RESPONSE	n/a	n/a	n/a	n/a	n/a	n/a	n/a	red
420.2065	1.0166	ITI	n/a	n/a	n/a	n/a	n/a	n/a	n/a	n/a
421.2231	0.5167	FIXCROSS	n/a	n/a	n/a	n/a	n/a	n/a	n/a	n/a
421.7398	0.75	COLOR_NAME	67	Neutral	niebieski	blue	Neutral	Neutral	hit	n/a
422.4684	n/a	RESPONSE	n/a	n/a	n/a	n/a	n/a	n/a	n/a	blue
422.4898	1.0167	ITI	n/a	n/a	n/a	n/a	n/a	n/a	n/a	n/a
423.5065	0.5167	FIXCROSS	n/a	n/a	n/a	n/a	n/a	n/a	n/a	n/a
424.0231	0.65	COLOR_NAME	68	Incongruent	żółty	yellow	czerwony	red	hit	n/a
424.6554	n/a	RESPONSE	n/a	n/a	n/a	n/a	n/a	n/a	n/a	yellow
424.6731	1.0167	ITI	n/a	n/a	n/a	n/a	n/a	n/a	n/a	n/a
425.6898	0.5166	FIXCROSS	n/a	n/a	n/a	n/a	n/a	n/a	n/a	n/a
426.2065	1.1834	COLOR_NAME	69	Incongruent	żółty	yellow	zielony	green	hit	n/a
427.3689	n/a	RESPONSE	n/a	n/a	n/a	n/a	n/a	n/a	n/a	yellow
427.3898	1.0167	ITI	n/a	n/a	n/a	n/a	n/a	n/a	n/a	n/a
428.4065	0.5166	FIXCROSS	n/a	n/a	n/a	n/a	n/a	n/a	n/a	n/a
428.9232	1.0	COLOR_NAME	70	Incongruent	niebieski	blue	żółty	yellow	hit	n/a
429.8911	n/a	RESPONSE	n/a	n/a	n/a	n/a	n/a	n/a	n/a	blue
429.9231	1.0167	ITI	n/a	n/a	n/a	n/a	n/a	n/a	n/a	n/a
430.9399	0.5166	FIXCROSS	n/a	n/a	n/a	n/a	n/a	n/a	n/a	n/a
431.4565	1.6667	COLOR_NAME	71	Incongruent	zielony	green	czerwony	red	hit	n/a
433.0997	n/a	RESPONSE	n/a	n/a	n/a	n/a	n/a	n/a	n/a	green
433.1232	1.0166	ITI	n/a	n/a	n/a	n/a	n/a	n/a	n/a	n/a
434.1399	0.5167	FIXCROSS	n/a	n/a	n/a	n/a	n/a	n/a	n/a	n/a
434.6566	0.6	COLOR_NAME	72	Neutral	zielony	green	Neutral	Neutral	hit	n/a
435.2226	n/a	RESPONSE	n/a	n/a	n/a	n/a	n/a	n/a	n/a	green
435.2566	1.0333	ITI	n/a	n/a	n/a	n/a	n/a	n/a	n/a	n/a
439.8678	n/a	RESPONSE	n/a	n/a	n/a	n/a	n/a	n/a	n/a	n/a
