onset	duration	trial_type	n_back_condition	trial_number	stimulus	response_type
0.0	n/a	RESPONSE	n/a	n/a	n/a	n/a
0.0263	1.0167	ISI	n/a	n/a	n/a	n/a
1.043	0.5	DISTRACTOR	1	1	D	Correct Rejection
1.543	1.0	ISI	n/a	n/a	n/a	n/a
2.543	0.5	DISTRACTOR	1	2	A	Correct Rejection
3.043	1.0	ISI	n/a	n/a	n/a	n/a
4.043	0.5	DISTRACTOR	1	3	J	Correct Rejection
4.543	1.0	ISI	n/a	n/a	n/a	n/a
5.543	0.5	DISTRACTOR	1	4	G	Correct Rejection
6.043	1.0	ISI	n/a	n/a	n/a	n/a
7.043	0.5	DISTRACTOR	1	5	F	Correct Rejection
7.5431	1.0	ISI	n/a	n/a	n/a	n/a
8.5431	0.5	DISTRACTOR	1	6	E	Correct Rejection
9.0431	1.0	ISI	n/a	n/a	n/a	n/a
10.0431	0.5	DISTRACTOR	1	7	B	Correct Rejection
10.5431	1.0	ISI	n/a	n/a	n/a	n/a
11.5431	0.5	TARGET	1	8	B	Hit
11.9171	n/a	RESPONSE	n/a	n/a	n/a	n/a
12.0431	1.0	ISI	n/a	n/a	n/a	n/a
13.0431	0.5	DISTRACTOR	1	9	A	Correct Rejection
13.5431	1.0	ISI	n/a	n/a	n/a	n/a
14.5431	0.5	DISTRACTOR	1	10	I	Correct Rejection
15.0431	1.0	ISI	n/a	n/a	n/a	n/a
16.0432	0.5	DISTRACTOR	1	11	H	Correct Rejection
16.5432	1.0	ISI	n/a	n/a	n/a	n/a
17.5432	0.5	DISTRACTOR	1	12	I	False Alarm
18.0432	1.0	ISI	n/a	n/a	n/a	n/a
18.2996	n/a	RESPONSE	n/a	n/a	n/a	n/a
19.0432	0.5	DISTRACTOR	1	13	J	Correct Rejection
19.5432	1.0	ISI	n/a	n/a	n/a	n/a
20.5432	0.5	DISTRACTOR	1	14	D	Correct Rejection
21.0432	1.0	ISI	n/a	n/a	n/a	n/a
22.0432	0.5	DISTRACTOR	1	15	E	Correct Rejection
22.5432	1.0	ISI	n/a	n/a	n/a	n/a
23.5432	0.5	TARGET	1	16	E	Hit
23.9622	n/a	RESPONSE	n/a	n/a	n/a	n/a
24.0433	1.0167	ISI	n/a	n/a	n/a	n/a
25.0599	0.5167	DISTRACTOR	1	17	H	Correct Rejection
25.5766	1.0167	ISI	n/a	n/a	n/a	n/a
26.5933	0.5167	DISTRACTOR	1	18	B	Correct Rejection
27.11	1.0167	ISI	n/a	n/a	n/a	n/a
28.1266	0.5167	DISTRACTOR	1	19	E	Correct Rejection
28.6433	1.0167	ISI	n/a	n/a	n/a	n/a
29.66	0.5167	DISTRACTOR	1	20	J	Correct Rejection
30.1767	1.0167	ISI	n/a	n/a	n/a	n/a
31.1934	0.5167	TARGET	1	21	J	Hit
31.71	1.0167	ISI	n/a	n/a	n/a	n/a
31.7683	n/a	RESPONSE	n/a	n/a	n/a	n/a
32.7267	0.5167	DISTRACTOR	1	22	H	Correct Rejection
33.2434	1.0167	ISI	n/a	n/a	n/a	n/a
34.2601	0.5167	DISTRACTOR	1	23	J	Correct Rejection
34.7767	1.0167	ISI	n/a	n/a	n/a	n/a
35.7934	0.5167	DISTRACTOR	1	24	D	Correct Rejection
36.3101	1.0167	ISI	n/a	n/a	n/a	n/a
37.3268	0.5167	DISTRACTOR	1	25	I	Correct Rejection
37.8434	1.0167	ISI	n/a	n/a	n/a	n/a
38.8601	0.5167	TARGET	1	26	I	Hit
39.3345	n/a	RESPONSE	n/a	n/a	n/a	n/a
39.3768	1.0167	ISI	n/a	n/a	n/a	n/a
40.3935	0.5167	DISTRACTOR	1	27	J	Correct Rejection
40.9101	1.0167	ISI	n/a	n/a	n/a	n/a
41.9268	0.5167	TARGET	1	28	J	Miss
42.4435	1.0167	ISI	n/a	n/a	n/a	n/a
43.4602	0.5167	DISTRACTOR	1	29	A	Correct Rejection
43.4934	n/a	RESPONSE	n/a	n/a	n/a	n/a
43.9768	1.0167	ISI	n/a	n/a	n/a	n/a
44.9935	0.5167	DISTRACTOR	1	30	F	Correct Rejection
45.5102	1.0167	ISI	n/a	n/a	n/a	n/a
46.5269	0.5167	DISTRACTOR	1	31	B	Correct Rejection
47.0435	1.0167	ISI	n/a	n/a	n/a	n/a
48.0602	0.5167	DISTRACTOR	1	32	H	Correct Rejection
48.5769	1.0167	ISI	n/a	n/a	n/a	n/a
49.5936	0.5167	DISTRACTOR	1	33	E	Correct Rejection
50.1102	1.0167	ISI	n/a	n/a	n/a	n/a
51.1269	0.5167	TARGET	1	34	E	Hit
51.6436	1.0167	ISI	n/a	n/a	n/a	n/a
51.7634	n/a	RESPONSE	n/a	n/a	n/a	n/a
52.6603	0.5167	DISTRACTOR	1	35	F	Correct Rejection
53.177	1.0167	ISI	n/a	n/a	n/a	n/a
54.1936	0.5167	DISTRACTOR	1	36	G	Correct Rejection
54.7103	1.0167	ISI	n/a	n/a	n/a	n/a
55.727	0.5167	DISTRACTOR	1	37	I	Correct Rejection
56.2436	1.0167	ISI	n/a	n/a	n/a	n/a
57.2603	0.5167	DISTRACTOR	1	38	D	Correct Rejection
57.777	1.0167	ISI	n/a	n/a	n/a	n/a
58.7937	0.5167	DISTRACTOR	1	39	H	Correct Rejection
59.3104	1.0167	ISI	n/a	n/a	n/a	n/a
60.327	0.5167	TARGET	1	40	H	Hit
60.8437	1.0167	ISI	n/a	n/a	n/a	n/a
60.9292	n/a	RESPONSE	n/a	n/a	n/a	n/a
61.8604	0.5167	DISTRACTOR	1	41	J	Correct Rejection
62.3771	1.0167	ISI	n/a	n/a	n/a	n/a
63.3937	0.5167	DISTRACTOR	1	42	F	Correct Rejection
63.9104	1.0167	ISI	n/a	n/a	n/a	n/a
64.9271	0.5167	DISTRACTOR	1	43	J	False Alarm
65.4438	1.0167	ISI	n/a	n/a	n/a	n/a
65.5361	n/a	RESPONSE	n/a	n/a	n/a	n/a
66.4604	0.5167	DISTRACTOR	1	44	D	Correct Rejection
66.9771	1.0167	ISI	n/a	n/a	n/a	n/a
67.9938	0.5167	DISTRACTOR	1	45	C	Correct Rejection
68.5105	1.0167	ISI	n/a	n/a	n/a	n/a
69.5271	0.5167	TARGET	1	46	C	Hit
70.0438	1.0167	ISI	n/a	n/a	n/a	n/a
70.0631	n/a	RESPONSE	n/a	n/a	n/a	n/a
71.0605	0.5167	DISTRACTOR	1	47	G	Correct Rejection
71.5772	1.0167	ISI	n/a	n/a	n/a	n/a
72.5939	0.5167	TARGET	1	48	G	Hit
73.1105	1.0167	ISI	n/a	n/a	n/a	n/a
73.3262	n/a	RESPONSE	n/a	n/a	n/a	n/a
74.1272	0.5167	TARGET	1	49	G	Hit
74.6439	1.0167	ISI	n/a	n/a	n/a	n/a
75.1498	n/a	RESPONSE	n/a	n/a	n/a	n/a
75.6606	0.5167	DISTRACTOR	1	50	F	Correct Rejection
76.1772	1.1663	ISI	n/a	n/a	n/a	n/a
80.6525	n/a	RESPONSE	n/a	n/a	n/a	n/a
80.6773	1.0167	ISI	n/a	n/a	n/a	n/a
81.694	0.5	DISTRACTOR	2	1	I	Correct Rejection
82.194	1.0167	ISI	n/a	n/a	n/a	n/a
83.2106	0.5167	DISTRACTOR	2	2	D	Correct Rejection
83.7273	1.0167	ISI	n/a	n/a	n/a	n/a
84.744	0.5167	TARGET	2	3	I	Hit
85.2607	1.0167	ISI	n/a	n/a	n/a	n/a
85.6912	n/a	RESPONSE	n/a	n/a	n/a	n/a
86.2773	0.5167	TARGET	2	4	D	Miss
86.794	1.0167	ISI	n/a	n/a	n/a	n/a
87.8107	0.5167	DISTRACTOR	2	5	F	False Alarm
88.3274	1.0167	ISI	n/a	n/a	n/a	n/a
88.4586	n/a	RESPONSE	n/a	n/a	n/a	n/a
89.3441	0.5167	DISTRACTOR	2	6	F	Correct Rejection
89.8607	1.0167	ISI	n/a	n/a	n/a	n/a
90.8774	0.5167	DISTRACTOR	2	7	D	False Alarm
91.3941	1.0167	ISI	n/a	n/a	n/a	n/a
91.4658	n/a	RESPONSE	n/a	n/a	n/a	n/a
92.4108	0.5167	DISTRACTOR	2	8	H	Correct Rejection
92.9274	1.0167	ISI	n/a	n/a	n/a	n/a
93.9441	0.5167	DISTRACTOR	2	9	E	Correct Rejection
94.4608	1.0167	ISI	n/a	n/a	n/a	n/a
95.4775	0.5167	DISTRACTOR	2	10	B	Correct Rejection
95.9941	1.0167	ISI	n/a	n/a	n/a	n/a
97.0108	0.5167	DISTRACTOR	2	11	I	Correct Rejection
97.5275	1.0167	ISI	n/a	n/a	n/a	n/a
98.5442	0.5167	DISTRACTOR	2	12	G	Correct Rejection
99.0608	1.0167	ISI	n/a	n/a	n/a	n/a
100.0775	0.5167	DISTRACTOR	2	13	H	Correct Rejection
100.5942	1.0167	ISI	n/a	n/a	n/a	n/a
101.6109	0.5167	DISTRACTOR	2	14	E	Correct Rejection
102.1275	1.0167	ISI	n/a	n/a	n/a	n/a
103.1442	0.5167	DISTRACTOR	2	15	C	Correct Rejection
103.6609	1.0167	ISI	n/a	n/a	n/a	n/a
104.6776	0.5167	DISTRACTOR	2	16	B	Correct Rejection
105.1942	1.0167	ISI	n/a	n/a	n/a	n/a
106.2109	0.5167	DISTRACTOR	2	17	A	Correct Rejection
106.7276	1.0167	ISI	n/a	n/a	n/a	n/a
107.7443	0.5167	DISTRACTOR	2	18	I	Correct Rejection
108.2609	1.0167	ISI	n/a	n/a	n/a	n/a
109.2776	0.5167	TARGET	2	19	A	Hit
109.7943	1.0167	ISI	n/a	n/a	n/a	n/a
110.1014	n/a	RESPONSE	n/a	n/a	n/a	n/a
110.811	0.5167	DISTRACTOR	2	20	J	Correct Rejection
111.3277	1.0167	ISI	n/a	n/a	n/a	n/a
112.3443	0.5167	DISTRACTOR	2	21	J	Correct Rejection
112.861	1.0167	ISI	n/a	n/a	n/a	n/a
113.8777	0.5167	TARGET	2	22	J	Hit
114.3944	1.0167	ISI	n/a	n/a	n/a	n/a
115.1241	n/a	RESPONSE	n/a	n/a	n/a	n/a
115.411	0.5167	DISTRACTOR	2	23	C	Correct Rejection
115.9277	1.0167	ISI	n/a	n/a	n/a	n/a
116.9444	0.5167	TARGET	2	24	J	Miss
117.4611	1.0167	ISI	n/a	n/a	n/a	n/a
118.4777	0.5167	DISTRACTOR	2	25	G	Correct Rejection
118.9944	1.0167	ISI	n/a	n/a	n/a	n/a
120.0111	0.5167	DISTRACTOR	2	26	H	Correct Rejection
120.5278	1.0167	ISI	n/a	n/a	n/a	n/a
121.5444	0.5167	TARGET	2	27	G	Hit
122.0611	1.0167	ISI	n/a	n/a	n/a	n/a
122.0984	n/a	RESPONSE	n/a	n/a	n/a	n/a
123.0778	0.5167	DISTRACTOR	2	28	I	Correct Rejection
123.5945	1.0167	ISI	n/a	n/a	n/a	n/a
124.6111	0.5167	DISTRACTOR	2	29	J	Correct Rejection
125.1278	1.0167	ISI	n/a	n/a	n/a	n/a
126.1445	0.5167	DISTRACTOR	2	30	F	Correct Rejection
126.6612	1.0167	ISI	n/a	n/a	n/a	n/a
127.6778	0.5167	TARGET	2	31	J	Miss
128.1945	1.0167	ISI	n/a	n/a	n/a	n/a
129.2112	0.5167	DISTRACTOR	2	32	H	Correct Rejection
129.7279	1.0167	ISI	n/a	n/a	n/a	n/a
130.7446	0.5167	DISTRACTOR	2	33	G	Correct Rejection
131.2612	1.0167	ISI	n/a	n/a	n/a	n/a
132.2779	0.5167	DISTRACTOR	2	34	F	Correct Rejection
132.7946	1.0167	ISI	n/a	n/a	n/a	n/a
133.8113	0.5167	DISTRACTOR	2	35	D	Correct Rejection
134.3279	1.0167	ISI	n/a	n/a	n/a	n/a
135.3446	0.5167	DISTRACTOR	2	36	I	Correct Rejection
135.8613	1.0167	ISI	n/a	n/a	n/a	n/a
136.878	0.5167	DISTRACTOR	2	37	H	Correct Rejection
137.3946	1.0167	ISI	n/a	n/a	n/a	n/a
138.4113	0.5167	TARGET	2	38	I	Hit
138.928	1.0167	ISI	n/a	n/a	n/a	n/a
139.4702	n/a	RESPONSE	n/a	n/a	n/a	n/a
139.9447	0.5167	DISTRACTOR	2	39	J	Correct Rejection
140.4613	1.0167	ISI	n/a	n/a	n/a	n/a
141.478	0.5167	DISTRACTOR	2	40	G	Correct Rejection
141.9947	1.0167	ISI	n/a	n/a	n/a	n/a
143.0114	0.5167	DISTRACTOR	2	41	C	Correct Rejection
143.528	1.0167	ISI	n/a	n/a	n/a	n/a
144.5447	0.5167	DISTRACTOR	2	42	B	Correct Rejection
145.0614	1.0167	ISI	n/a	n/a	n/a	n/a
146.0781	0.5167	DISTRACTOR	2	43	F	Correct Rejection
146.5947	1.0167	ISI	n/a	n/a	n/a	n/a
147.6114	0.5167	DISTRACTOR	2	44	H	Correct Rejection
148.1281	1.0167	ISI	n/a	n/a	n/a	n/a
149.1448	0.5104	DISTRACTOR	2	45	E	Correct Rejection
149.6552	1.0229	ISI	n/a	n/a	n/a	n/a
150.6781	0.5167	DISTRACTOR	2	46	D	Correct Rejection
151.1948	1.0167	ISI	n/a	n/a	n/a	n/a
152.2115	0.5167	DISTRACTOR	2	47	H	Correct Rejection
152.7281	1.0167	ISI	n/a	n/a	n/a	n/a
153.7448	0.5167	DISTRACTOR	2	48	B	Correct Rejection
154.2615	1.0167	ISI	n/a	n/a	n/a	n/a
155.2782	0.5167	TARGET	2	49	H	Hit
155.7949	1.0167	ISI	n/a	n/a	n/a	n/a
155.9302	n/a	RESPONSE	n/a	n/a	n/a	n/a
156.8115	0.5167	TARGET	2	50	B	Hit
157.3282	1.1	ISI	n/a	n/a	n/a	n/a
158.1057	n/a	RESPONSE	n/a	n/a	n/a	n/a
164.8081	n/a	RESPONSE	n/a	n/a	n/a	n/a
164.8616	1.0167	ISI	n/a	n/a	n/a	n/a
165.8783	0.5167	DISTRACTOR	3	1	A	Correct Rejection
166.395	1.0167	ISI	n/a	n/a	n/a	n/a
167.4117	0.5167	DISTRACTOR	3	2	C	Correct Rejection
167.9283	1.0167	ISI	n/a	n/a	n/a	n/a
168.945	0.5167	DISTRACTOR	3	3	D	Correct Rejection
169.4617	1.0167	ISI	n/a	n/a	n/a	n/a
170.4784	0.5167	DISTRACTOR	3	4	J	Correct Rejection
170.995	1.0167	ISI	n/a	n/a	n/a	n/a
172.0117	0.5167	TARGET	3	5	C	Hit
172.5284	1.0167	ISI	n/a	n/a	n/a	n/a
172.8222	n/a	RESPONSE	n/a	n/a	n/a	n/a
173.5451	0.5167	TARGET	3	6	D	Miss
174.0617	1.0167	ISI	n/a	n/a	n/a	n/a
175.0784	0.5167	DISTRACTOR	3	7	A	Correct Rejection
175.5951	1.0167	ISI	n/a	n/a	n/a	n/a
176.6118	0.5167	DISTRACTOR	3	8	I	Correct Rejection
177.1284	1.0167	ISI	n/a	n/a	n/a	n/a
178.1451	0.5167	DISTRACTOR	3	9	F	Correct Rejection
178.6618	1.0167	ISI	n/a	n/a	n/a	n/a
179.6785	0.5167	DISTRACTOR	3	10	B	Correct Rejection
180.1951	1.0167	ISI	n/a	n/a	n/a	n/a
181.2118	0.5167	DISTRACTOR	3	11	C	Correct Rejection
181.7285	1.0167	ISI	n/a	n/a	n/a	n/a
182.7452	0.5167	TARGET	3	12	F	Hit
183.2619	1.0167	ISI	n/a	n/a	n/a	n/a
183.2836	n/a	RESPONSE	n/a	n/a	n/a	n/a
184.2785	0.5167	DISTRACTOR	3	13	D	Correct Rejection
184.7952	1.0167	ISI	n/a	n/a	n/a	n/a
185.8119	0.5167	TARGET	3	14	C	Miss
186.3286	1.0167	ISI	n/a	n/a	n/a	n/a
187.3452	0.5167	TARGET	3	15	F	Miss
187.8619	1.0167	ISI	n/a	n/a	n/a	n/a
188.8786	0.5167	DISTRACTOR	3	16	H	Correct Rejection
189.3953	1.0167	ISI	n/a	n/a	n/a	n/a
190.4119	0.5167	DISTRACTOR	3	17	E	Correct Rejection
190.9286	1.0167	ISI	n/a	n/a	n/a	n/a
191.9453	0.5167	DISTRACTOR	3	18	C	Correct Rejection
192.462	1.0167	ISI	n/a	n/a	n/a	n/a
193.4786	0.5167	DISTRACTOR	3	19	I	Correct Rejection
193.9953	1.0167	ISI	n/a	n/a	n/a	n/a
195.012	0.5167	DISTRACTOR	3	20	B	Correct Rejection
195.5287	1.0167	ISI	n/a	n/a	n/a	n/a
196.5453	0.5167	DISTRACTOR	3	21	D	Correct Rejection
197.062	1.0167	ISI	n/a	n/a	n/a	n/a
198.0787	0.5167	TARGET	3	22	I	Miss
198.5954	1.0167	ISI	n/a	n/a	n/a	n/a
199.612	0.5167	DISTRACTOR	3	23	A	Correct Rejection
200.1287	1.0167	ISI	n/a	n/a	n/a	n/a
201.1454	0.5167	TARGET	3	24	D	Miss
201.6621	1.0167	ISI	n/a	n/a	n/a	n/a
202.6787	0.5167	DISTRACTOR	3	25	G	Correct Rejection
203.1954	1.0167	ISI	n/a	n/a	n/a	n/a
204.2121	0.5167	DISTRACTOR	3	26	B	Correct Rejection
204.7288	1.0167	ISI	n/a	n/a	n/a	n/a
205.7454	0.5167	DISTRACTOR	3	27	E	Correct Rejection
206.2621	1.0167	ISI	n/a	n/a	n/a	n/a
207.2788	0.5167	DISTRACTOR	3	28	B	Correct Rejection
207.7955	1.0167	ISI	n/a	n/a	n/a	n/a
208.8122	0.5167	DISTRACTOR	3	29	E	Correct Rejection
209.3288	1.0167	ISI	n/a	n/a	n/a	n/a
210.3455	0.5167	DISTRACTOR	3	30	G	Correct Rejection
210.8622	1.0167	ISI	n/a	n/a	n/a	n/a
211.8789	0.5167	DISTRACTOR	3	31	F	Correct Rejection
212.3955	1.0167	ISI	n/a	n/a	n/a	n/a
213.4122	0.5167	DISTRACTOR	3	32	B	Correct Rejection
213.9289	1.0167	ISI	n/a	n/a	n/a	n/a
214.9456	0.5167	DISTRACTOR	3	33	I	Correct Rejection
215.4622	1.0167	ISI	n/a	n/a	n/a	n/a
216.4789	0.5167	DISTRACTOR	3	34	J	Correct Rejection
216.9956	1.0167	ISI	n/a	n/a	n/a	n/a
218.0123	0.5167	DISTRACTOR	3	35	H	Correct Rejection
218.5289	1.0167	ISI	n/a	n/a	n/a	n/a
219.5456	0.5167	DISTRACTOR	3	36	E	Correct Rejection
220.0623	1.0167	ISI	n/a	n/a	n/a	n/a
221.079	0.5167	DISTRACTOR	3	37	I	False Alarm
221.5956	1.0167	ISI	n/a	n/a	n/a	n/a
221.9783	n/a	RESPONSE	n/a	n/a	n/a	n/a
222.6123	0.5167	TARGET	3	38	H	Miss
223.129	1.0167	ISI	n/a	n/a	n/a	n/a
224.1457	0.5167	DISTRACTOR	3	39	G	False Alarm
224.5536	n/a	RESPONSE	n/a	n/a	n/a	n/a
224.6623	1.0167	ISI	n/a	n/a	n/a	n/a
225.679	0.5167	DISTRACTOR	3	40	A	Correct Rejection
226.1957	1.0167	ISI	n/a	n/a	n/a	n/a
227.2124	0.5167	DISTRACTOR	3	41	E	Correct Rejection
227.7291	1.0167	ISI	n/a	n/a	n/a	n/a
228.7457	0.5167	TARGET	3	42	G	Hit
229.2624	1.0167	ISI	n/a	n/a	n/a	n/a
229.7684	n/a	RESPONSE	n/a	n/a	n/a	n/a
230.2791	0.5167	TARGET	3	43	A	Miss
230.7957	1.0167	ISI	n/a	n/a	n/a	n/a
231.8124	0.5167	DISTRACTOR	3	44	I	Correct Rejection
232.3291	1.0167	ISI	n/a	n/a	n/a	n/a
233.3458	0.5167	DISTRACTOR	3	45	E	Correct Rejection
233.8624	1.0167	ISI	n/a	n/a	n/a	n/a
234.8791	0.5167	DISTRACTOR	3	46	G	Correct Rejection
235.3958	1.0167	ISI	n/a	n/a	n/a	n/a
236.4125	0.5167	DISTRACTOR	3	47	E	Correct Rejection
236.9292	1.0167	ISI	n/a	n/a	n/a	n/a
237.9458	0.5167	DISTRACTOR	3	48	G	Correct Rejection
238.4625	1.0167	ISI	n/a	n/a	n/a	n/a
239.4792	0.5167	DISTRACTOR	3	49	E	False Alarm
239.9959	1.0167	ISI	n/a	n/a	n/a	n/a
240.4538	n/a	RESPONSE	n/a	n/a	n/a	n/a
241.0125	0.5167	DISTRACTOR	3	50	J	Correct Rejection
241.5292	1.0334	ISI	n/a	n/a	n/a	n/a
247.4281	n/a	RESPONSE	n/a	n/a	n/a	n/a
