onset	duration	trial_type	trial_number	stroop_condition	stim_text(PL)	stim_text(eng)	stim_color(PL)	stim_color(eng)	response_type	response_color
0.0	n/a	RESPONSE	n/a	n/a	n/a	n/a	n/a	n/a	n/a	n/a
0.0716	1.0167	ITI	n/a	n/a	n/a	n/a	n/a	n/a	n/a	n/a
1.0883	0.5	FIXCROSS	n/a	n/a	n/a	n/a	n/a	n/a	n/a	n/a
1.5883	1.4	T_INK	1	Incongruent	czerwony	red	niebieski	blue	hit	n/a
2.9733	n/a	RESPONSE	n/a	n/a	n/a	n/a	n/a	n/a	n/a	blue
2.9883	0.5	FEEDBACK	n/a	n/a	n/a	n/a	n/a	n/a	n/a	n/a
3.4883	1.0	ITI	n/a	n/a	n/a	n/a	n/a	n/a	n/a	n/a
4.4883	0.5	FIXCROSS	n/a	n/a	n/a	n/a	n/a	n/a	n/a	n/a
4.9883	1.3833	T_INK	2	Incongruent	zielony	green	niebieski	blue	hit	n/a
6.3621	n/a	RESPONSE	n/a	n/a	n/a	n/a	n/a	n/a	n/a	blue
6.3717	0.5	FEEDBACK	n/a	n/a	n/a	n/a	n/a	n/a	n/a	n/a
6.8717	1.0	ITI	n/a	n/a	n/a	n/a	n/a	n/a	n/a	n/a
7.8717	0.5	FIXCROSS	n/a	n/a	n/a	n/a	n/a	n/a	n/a	n/a
8.3717	1.1	T_INK	3	Neutral	xxxxxxxxx	xxxxxxxxx	żółty	yellow	hit	n/a
9.4632	n/a	RESPONSE	n/a	n/a	n/a	n/a	n/a	n/a	n/a	yellow
9.4717	0.5	FEEDBACK	n/a	n/a	n/a	n/a	n/a	n/a	n/a	n/a
9.9717	1.0	ITI	n/a	n/a	n/a	n/a	n/a	n/a	n/a	n/a
10.9717	0.5	FIXCROSS	n/a	n/a	n/a	n/a	n/a	n/a	n/a	n/a
11.4718	0.85	T_INK	4	Neutral	xxxxxxxxx	xxxxxxxxx	czerwony	red	hit	n/a
12.3084	n/a	RESPONSE	n/a	n/a	n/a	n/a	n/a	n/a	n/a	red
12.3218	0.5	FEEDBACK	n/a	n/a	n/a	n/a	n/a	n/a	n/a	n/a
12.8218	1.0	ITI	n/a	n/a	n/a	n/a	n/a	n/a	n/a	n/a
13.8218	0.5	FIXCROSS	n/a	n/a	n/a	n/a	n/a	n/a	n/a	n/a
14.3218	0.9167	T_INK	5	Neutral	xxxxxxx	xxxxxxx	niebieski	blue	hit	n/a
15.2177	n/a	RESPONSE	n/a	n/a	n/a	n/a	n/a	n/a	n/a	blue
15.2385	0.5	FEEDBACK	n/a	n/a	n/a	n/a	n/a	n/a	n/a	n/a
15.7385	1.0	ITI	n/a	n/a	n/a	n/a	n/a	n/a	n/a	n/a
16.7385	0.5	FIXCROSS	n/a	n/a	n/a	n/a	n/a	n/a	n/a	n/a
17.2385	0.9667	T_INK	6	Incongruent	niebieski	blue	zielony	green	hit	n/a
18.1909	n/a	RESPONSE	n/a	n/a	n/a	n/a	n/a	n/a	n/a	green
18.2052	0.5	FEEDBACK	n/a	n/a	n/a	n/a	n/a	n/a	n/a	n/a
18.7052	1.0	ITI	n/a	n/a	n/a	n/a	n/a	n/a	n/a	n/a
19.7052	0.5	FIXCROSS	n/a	n/a	n/a	n/a	n/a	n/a	n/a	n/a
20.2052	0.8	T_INK	7	Incongruent	niebieski	blue	czerwony	red	hit	n/a
20.9882	n/a	RESPONSE	n/a	n/a	n/a	n/a	n/a	n/a	n/a	red
21.0052	0.5333	FEEDBACK	n/a	n/a	n/a	n/a	n/a	n/a	n/a	n/a
21.5385	1.0333	ITI	n/a	n/a	n/a	n/a	n/a	n/a	n/a	n/a
22.5719	0.5333	FIXCROSS	n/a	n/a	n/a	n/a	n/a	n/a	n/a	n/a
23.1052	1.1333	T_INK	8	Neutral	xxxxxxxx	xxxxxxxx	zielony	green	hit	n/a
24.2012	n/a	RESPONSE	n/a	n/a	n/a	n/a	n/a	n/a	n/a	green
24.2386	0.5333	FEEDBACK	n/a	n/a	n/a	n/a	n/a	n/a	n/a	n/a
24.7719	1.0333	ITI	n/a	n/a	n/a	n/a	n/a	n/a	n/a	n/a
25.8053	0.5333	FIXCROSS	n/a	n/a	n/a	n/a	n/a	n/a	n/a	n/a
26.3386	0.8334	T_INK	9	Neutral	xxxxxxx	xxxxxxx	czerwony	red	hit	n/a
27.1264	n/a	RESPONSE	n/a	n/a	n/a	n/a	n/a	n/a	n/a	red
27.172	0.5333	FEEDBACK	n/a	n/a	n/a	n/a	n/a	n/a	n/a	n/a
27.7053	1.0333	ITI	n/a	n/a	n/a	n/a	n/a	n/a	n/a	n/a
28.7386	0.5333	FIXCROSS	n/a	n/a	n/a	n/a	n/a	n/a	n/a	n/a
29.272	0.9834	T_INK	10	Incongruent	żółty	yellow	czerwony	red	hit	n/a
30.2115	n/a	RESPONSE	n/a	n/a	n/a	n/a	n/a	n/a	n/a	red
30.2553	0.5333	FEEDBACK	n/a	n/a	n/a	n/a	n/a	n/a	n/a	n/a
30.7887	1.0333	ITI	n/a	n/a	n/a	n/a	n/a	n/a	n/a	n/a
31.822	0.5333	FIXCROSS	n/a	n/a	n/a	n/a	n/a	n/a	n/a	n/a
32.3553	0.6	T_INK	11	Incongruent	zielony	green	czerwony	red	hit	n/a
32.913	n/a	RESPONSE	n/a	n/a	n/a	n/a	n/a	n/a	n/a	red
32.9554	0.5333	FEEDBACK	n/a	n/a	n/a	n/a	n/a	n/a	n/a	n/a
33.4887	1.0333	ITI	n/a	n/a	n/a	n/a	n/a	n/a	n/a	n/a
34.522	0.5334	FIXCROSS	n/a	n/a	n/a	n/a	n/a	n/a	n/a	n/a
35.0554	1.1	T_INK	12	Incongruent	niebieski	blue	żółty	yellow	hit	n/a
36.11	n/a	RESPONSE	n/a	n/a	n/a	n/a	n/a	n/a	n/a	yellow
36.1554	0.5333	FEEDBACK	n/a	n/a	n/a	n/a	n/a	n/a	n/a	n/a
36.6887	1.05	ITI	n/a	n/a	n/a	n/a	n/a	n/a	n/a	n/a
42.1523	n/a	RESPONSE	n/a	n/a	n/a	n/a	n/a	n/a	n/a	n/a
42.2221	1.0	ITI	n/a	n/a	n/a	n/a	n/a	n/a	n/a	n/a
43.2222	0.5	FIXCROSS	n/a	n/a	n/a	n/a	n/a	n/a	n/a	n/a
43.7222	1.6	INK	1	Neutral	xxxxxxxx	xxxxxxxx	żółty	yellow	hit	n/a
45.3173	n/a	RESPONSE	n/a	n/a	n/a	n/a	n/a	n/a	n/a	yellow
45.3222	1.0	ITI	n/a	n/a	n/a	n/a	n/a	n/a	n/a	n/a
46.3222	0.5	FIXCROSS	n/a	n/a	n/a	n/a	n/a	n/a	n/a	n/a
46.8222	0.8834	INK	2	Neutral	xxxxxxxx	xxxxxxxx	niebieski	blue	hit	n/a
47.6992	n/a	RESPONSE	n/a	n/a	n/a	n/a	n/a	n/a	n/a	blue
47.7055	1.0	ITI	n/a	n/a	n/a	n/a	n/a	n/a	n/a	n/a
48.7056	0.5	FIXCROSS	n/a	n/a	n/a	n/a	n/a	n/a	n/a	n/a
49.2056	1.2	INK	3	Incongruent	żółty	yellow	zielony	green	hit	n/a
50.4006	n/a	RESPONSE	n/a	n/a	n/a	n/a	n/a	n/a	n/a	green
50.4056	1.0	ITI	n/a	n/a	n/a	n/a	n/a	n/a	n/a	n/a
51.4056	0.5	FIXCROSS	n/a	n/a	n/a	n/a	n/a	n/a	n/a	n/a
51.9056	0.9	INK	4	Incongruent	niebieski	blue	zielony	green	hit	n/a
52.7982	n/a	RESPONSE	n/a	n/a	n/a	n/a	n/a	n/a	n/a	green
52.8056	1.0	ITI	n/a	n/a	n/a	n/a	n/a	n/a	n/a	n/a
53.8056	0.5	FIXCROSS	n/a	n/a	n/a	n/a	n/a	n/a	n/a	n/a
54.3056	0.6333	INK	5	Neutral	xxxxxxxx	xxxxxxxx	zielony	green	hit	n/a
54.9242	n/a	RESPONSE	n/a	n/a	n/a	n/a	n/a	n/a	n/a	green
54.939	1.0	ITI	n/a	n/a	n/a	n/a	n/a	n/a	n/a	n/a
55.939	0.5	FIXCROSS	n/a	n/a	n/a	n/a	n/a	n/a	n/a	n/a
56.439	1.0333	INK	6	Neutral	xxxxx	xxxxx	czerwony	red	hit	n/a
57.4658	n/a	RESPONSE	n/a	n/a	n/a	n/a	n/a	n/a	n/a	red
57.4723	1.0	ITI	n/a	n/a	n/a	n/a	n/a	n/a	n/a	n/a
58.4723	0.5	FIXCROSS	n/a	n/a	n/a	n/a	n/a	n/a	n/a	n/a
58.9723	1.05	INK	7	Incongruent	niebieski	blue	żółty	yellow	hit	n/a
60.0076	n/a	RESPONSE	n/a	n/a	n/a	n/a	n/a	n/a	n/a	yellow
60.0224	1.0	ITI	n/a	n/a	n/a	n/a	n/a	n/a	n/a	n/a
61.0224	0.5	FIXCROSS	n/a	n/a	n/a	n/a	n/a	n/a	n/a	n/a
61.5224	0.7833	INK	8	Incongruent	żółty	yellow	zielony	green	hit	n/a
62.2933	n/a	RESPONSE	n/a	n/a	n/a	n/a	n/a	n/a	n/a	green
62.3057	1.0	ITI	n/a	n/a	n/a	n/a	n/a	n/a	n/a	n/a
63.3057	0.5	FIXCROSS	n/a	n/a	n/a	n/a	n/a	n/a	n/a	n/a
63.8058	0.9	INK	9	Incongruent	czerwony	red	niebieski	blue	hit	n/a
64.691	n/a	RESPONSE	n/a	n/a	n/a	n/a	n/a	n/a	n/a	blue
64.7058	1.0	ITI	n/a	n/a	n/a	n/a	n/a	n/a	n/a	n/a
65.7058	0.5	FIXCROSS	n/a	n/a	n/a	n/a	n/a	n/a	n/a	n/a
66.2058	0.6667	INK	10	Incongruent	zielony	green	czerwony	red	hit	n/a
66.865	n/a	RESPONSE	n/a	n/a	n/a	n/a	n/a	n/a	n/a	red
66.8724	1.0	ITI	n/a	n/a	n/a	n/a	n/a	n/a	n/a	n/a
67.8725	0.5	FIXCROSS	n/a	n/a	n/a	n/a	n/a	n/a	n/a	n/a
68.3725	1.1667	INK	11	Neutral	xxxxx	xxxxx	czerwony	red	hit	n/a
69.5185	n/a	RESPONSE	n/a	n/a	n/a	n/a	n/a	n/a	n/a	red
69.5392	1.0	ITI	n/a	n/a	n/a	n/a	n/a	n/a	n/a	n/a
70.5392	0.5	FIXCROSS	n/a	n/a	n/a	n/a	n/a	n/a	n/a	n/a
71.0392	0.8	INK	12	Neutral	xxxxxxxxx	xxxxxxxxx	żółty	yellow	hit	n/a
71.8044	n/a	RESPONSE	n/a	n/a	n/a	n/a	n/a	n/a	n/a	yellow
71.8392	1.0333	ITI	n/a	n/a	n/a	n/a	n/a	n/a	n/a	n/a
72.8725	0.5333	FIXCROSS	n/a	n/a	n/a	n/a	n/a	n/a	n/a	n/a
73.4059	1.2833	INK	13	Incongruent	czerwony	red	zielony	green	hit	n/a
74.6497	n/a	RESPONSE	n/a	n/a	n/a	n/a	n/a	n/a	n/a	green
74.6892	1.0334	ITI	n/a	n/a	n/a	n/a	n/a	n/a	n/a	n/a
75.7226	0.5333	FIXCROSS	n/a	n/a	n/a	n/a	n/a	n/a	n/a	n/a
76.2559	1.0334	INK	14	Incongruent	czerwony	red	żółty	yellow	hit	n/a
77.2552	n/a	RESPONSE	n/a	n/a	n/a	n/a	n/a	n/a	n/a	yellow
77.2893	1.0333	ITI	n/a	n/a	n/a	n/a	n/a	n/a	n/a	n/a
78.3226	0.5333	FIXCROSS	n/a	n/a	n/a	n/a	n/a	n/a	n/a	n/a
78.8559	0.5333	INK	15	Neutral	xxxxx	xxxxx	niebieski	blue	hit	n/a
79.3492	n/a	RESPONSE	n/a	n/a	n/a	n/a	n/a	n/a	n/a	blue
79.3893	1.0333	ITI	n/a	n/a	n/a	n/a	n/a	n/a	n/a	n/a
80.4226	0.5333	FIXCROSS	n/a	n/a	n/a	n/a	n/a	n/a	n/a	n/a
80.956	0.65	INK	16	Neutral	xxxxxxxx	xxxxxxxx	zielony	green	hit	n/a
81.5712	n/a	RESPONSE	n/a	n/a	n/a	n/a	n/a	n/a	n/a	green
81.606	1.0333	ITI	n/a	n/a	n/a	n/a	n/a	n/a	n/a	n/a
82.6393	0.5333	FIXCROSS	n/a	n/a	n/a	n/a	n/a	n/a	n/a	n/a
83.1727	0.9334	INK	17	Incongruent	niebieski	blue	zielony	green	hit	n/a
84.0648	n/a	RESPONSE	n/a	n/a	n/a	n/a	n/a	n/a	n/a	green
84.106	1.0333	ITI	n/a	n/a	n/a	n/a	n/a	n/a	n/a	n/a
85.1393	0.5334	FIXCROSS	n/a	n/a	n/a	n/a	n/a	n/a	n/a	n/a
85.6727	0.6167	INK	18	Neutral	xxxxxxx	xxxxxxx	żółty	yellow	hit	n/a
86.2548	n/a	RESPONSE	n/a	n/a	n/a	n/a	n/a	n/a	n/a	yellow
86.2894	1.0334	ITI	n/a	n/a	n/a	n/a	n/a	n/a	n/a	n/a
87.3227	0.5333	FIXCROSS	n/a	n/a	n/a	n/a	n/a	n/a	n/a	n/a
87.856	0.8333	INK	19	Incongruent	zielony	green	niebieski	blue	hit	n/a
88.6525	n/a	RESPONSE	n/a	n/a	n/a	n/a	n/a	n/a	n/a	blue
88.6894	1.0333	ITI	n/a	n/a	n/a	n/a	n/a	n/a	n/a	n/a
89.7227	0.5333	FIXCROSS	n/a	n/a	n/a	n/a	n/a	n/a	n/a	n/a
90.2561	0.7167	INK	20	Neutral	xxxxxxx	xxxxxxx	żółty	yellow	incorrect	n/a
90.9383	n/a	RESPONSE	n/a	n/a	n/a	n/a	n/a	n/a	n/a	green
90.9728	1.0334	ITI	n/a	n/a	n/a	n/a	n/a	n/a	n/a	n/a
92.0061	0.5333	FIXCROSS	n/a	n/a	n/a	n/a	n/a	n/a	n/a	n/a
92.5394	1.25	INK	21	Incongruent	czerwony	red	żółty	yellow	hit	n/a
93.7517	n/a	RESPONSE	n/a	n/a	n/a	n/a	n/a	n/a	n/a	yellow
93.7895	1.0333	ITI	n/a	n/a	n/a	n/a	n/a	n/a	n/a	n/a
94.8228	0.5333	FIXCROSS	n/a	n/a	n/a	n/a	n/a	n/a	n/a	n/a
95.3561	1.3167	INK	22	Incongruent	niebieski	blue	zielony	green	hit	n/a
96.6449	n/a	RESPONSE	n/a	n/a	n/a	n/a	n/a	n/a	n/a	green
96.6728	1.0334	ITI	n/a	n/a	n/a	n/a	n/a	n/a	n/a	n/a
97.7062	0.5333	FIXCROSS	n/a	n/a	n/a	n/a	n/a	n/a	n/a	n/a
98.2395	0.7667	INK	23	Neutral	xxxxxxxxx	xxxxxxxxx	zielony	green	hit	n/a
98.9626	n/a	RESPONSE	n/a	n/a	n/a	n/a	n/a	n/a	n/a	green
99.0062	1.0333	ITI	n/a	n/a	n/a	n/a	n/a	n/a	n/a	n/a
100.0395	0.5333	FIXCROSS	n/a	n/a	n/a	n/a	n/a	n/a	n/a	n/a
100.5729	0.6667	INK	24	Neutral	xxxxx	xxxxx	czerwony	red	hit	n/a
101.2007	n/a	RESPONSE	n/a	n/a	n/a	n/a	n/a	n/a	n/a	red
101.2395	1.0333	ITI	n/a	n/a	n/a	n/a	n/a	n/a	n/a	n/a
101.3924	n/a	RESPONSE	n/a	n/a	n/a	n/a	n/a	n/a	n/a	red
102.2729	0.5333	FIXCROSS	n/a	n/a	n/a	n/a	n/a	n/a	n/a	n/a
102.8062	0.75	INK	25	Neutral	xxxxxxxx	xxxxxxxx	niebieski	blue	hit	n/a
103.5183	n/a	RESPONSE	n/a	n/a	n/a	n/a	n/a	n/a	n/a	blue
103.5562	1.0334	ITI	n/a	n/a	n/a	n/a	n/a	n/a	n/a	n/a
104.5896	0.5333	FIXCROSS	n/a	n/a	n/a	n/a	n/a	n/a	n/a	n/a
105.1229	0.7	INK	26	Neutral	xxxxxxxxx	xxxxxxxxx	żółty	yellow	hit	n/a
105.7882	n/a	RESPONSE	n/a	n/a	n/a	n/a	n/a	n/a	n/a	yellow
105.8229	1.0333	ITI	n/a	n/a	n/a	n/a	n/a	n/a	n/a	n/a
106.8563	0.5333	FIXCROSS	n/a	n/a	n/a	n/a	n/a	n/a	n/a	n/a
107.3896	0.6333	INK	27	Incongruent	niebieski	blue	czerwony	red	hit	n/a
107.9942	n/a	RESPONSE	n/a	n/a	n/a	n/a	n/a	n/a	n/a	red
108.023	1.0333	ITI	n/a	n/a	n/a	n/a	n/a	n/a	n/a	n/a
109.0563	0.5333	FIXCROSS	n/a	n/a	n/a	n/a	n/a	n/a	n/a	n/a
109.5897	0.7	INK	28	Incongruent	niebieski	blue	żółty	yellow	hit	n/a
110.248	n/a	RESPONSE	n/a	n/a	n/a	n/a	n/a	n/a	n/a	yellow
110.2897	1.0333	ITI	n/a	n/a	n/a	n/a	n/a	n/a	n/a	n/a
111.323	0.5333	FIXCROSS	n/a	n/a	n/a	n/a	n/a	n/a	n/a	n/a
111.8563	0.7833	INK	29	Incongruent	czerwony	red	niebieski	blue	hit	n/a
112.5978	n/a	RESPONSE	n/a	n/a	n/a	n/a	n/a	n/a	n/a	blue
112.6397	1.0333	ITI	n/a	n/a	n/a	n/a	n/a	n/a	n/a	n/a
113.673	0.5333	FIXCROSS	n/a	n/a	n/a	n/a	n/a	n/a	n/a	n/a
114.2064	0.8667	INK	30	Incongruent	żółty	yellow	zielony	green	hit	n/a
115.0435	n/a	RESPONSE	n/a	n/a	n/a	n/a	n/a	n/a	n/a	green
115.0731	1.0333	ITI	n/a	n/a	n/a	n/a	n/a	n/a	n/a	n/a
116.1064	0.5334	FIXCROSS	n/a	n/a	n/a	n/a	n/a	n/a	n/a	n/a
116.6397	0.45	INK	31	Neutral	xxxxxxxxx	xxxxxxxxx	czerwony	red	hit	n/a
117.0577	n/a	RESPONSE	n/a	n/a	n/a	n/a	n/a	n/a	n/a	red
117.0897	1.0334	ITI	n/a	n/a	n/a	n/a	n/a	n/a	n/a	n/a
118.1231	0.5333	FIXCROSS	n/a	n/a	n/a	n/a	n/a	n/a	n/a	n/a
118.6564	0.8	INK	32	Incongruent	zielony	green	żółty	yellow	hit	n/a
119.4234	n/a	RESPONSE	n/a	n/a	n/a	n/a	n/a	n/a	n/a	yellow
119.4565	1.0333	ITI	n/a	n/a	n/a	n/a	n/a	n/a	n/a	n/a
120.4898	0.5333	FIXCROSS	n/a	n/a	n/a	n/a	n/a	n/a	n/a	n/a
121.0231	0.8833	INK	33	Neutral	xxxxxxxxx	xxxxxxxxx	zielony	green	hit	n/a
121.8691	n/a	RESPONSE	n/a	n/a	n/a	n/a	n/a	n/a	n/a	green
121.9065	1.0334	ITI	n/a	n/a	n/a	n/a	n/a	n/a	n/a	n/a
122.9398	0.5333	FIXCROSS	n/a	n/a	n/a	n/a	n/a	n/a	n/a	n/a
123.4732	0.9	INK	34	Incongruent	żółty	yellow	czerwony	red	hit	n/a
124.3307	n/a	RESPONSE	n/a	n/a	n/a	n/a	n/a	n/a	n/a	red
124.3732	1.0333	ITI	n/a	n/a	n/a	n/a	n/a	n/a	n/a	n/a
125.4065	0.5333	FIXCROSS	n/a	n/a	n/a	n/a	n/a	n/a	n/a	n/a
125.9399	0.8	INK	35	Incongruent	zielony	green	niebieski	blue	hit	n/a
126.6965	n/a	RESPONSE	n/a	n/a	n/a	n/a	n/a	n/a	n/a	blue
126.7399	1.0333	ITI	n/a	n/a	n/a	n/a	n/a	n/a	n/a	n/a
127.7732	0.5333	FIXCROSS	n/a	n/a	n/a	n/a	n/a	n/a	n/a	n/a
128.3066	0.8	INK	36	Incongruent	zielony	green	czerwony	red	hit	n/a
129.0623	n/a	RESPONSE	n/a	n/a	n/a	n/a	n/a	n/a	n/a	red
129.1066	1.0334	ITI	n/a	n/a	n/a	n/a	n/a	n/a	n/a	n/a
130.1399	0.5333	FIXCROSS	n/a	n/a	n/a	n/a	n/a	n/a	n/a	n/a
130.6732	0.7667	INK	37	Incongruent	zielony	green	niebieski	blue	hit	n/a
131.4121	n/a	RESPONSE	n/a	n/a	n/a	n/a	n/a	n/a	n/a	blue
131.4399	1.0333	ITI	n/a	n/a	n/a	n/a	n/a	n/a	n/a	n/a
132.4733	0.5333	FIXCROSS	n/a	n/a	n/a	n/a	n/a	n/a	n/a	n/a
133.0066	0.9334	INK	38	Neutral	xxxxx	xxxxx	zielony	green	hit	n/a
133.9057	n/a	RESPONSE	n/a	n/a	n/a	n/a	n/a	n/a	n/a	green
133.94	1.0333	ITI	n/a	n/a	n/a	n/a	n/a	n/a	n/a	n/a
134.9733	0.5333	FIXCROSS	n/a	n/a	n/a	n/a	n/a	n/a	n/a	n/a
135.5066	0.7333	INK	39	Neutral	xxxxxxxxx	xxxxxxxxx	zielony	green	hit	n/a
136.2075	n/a	RESPONSE	n/a	n/a	n/a	n/a	n/a	n/a	n/a	green
136.24	1.0333	ITI	n/a	n/a	n/a	n/a	n/a	n/a	n/a	n/a
137.2733	0.5333	FIXCROSS	n/a	n/a	n/a	n/a	n/a	n/a	n/a	n/a
137.8067	0.75	INK	40	Incongruent	czerwony	red	żółty	yellow	hit	n/a
138.5254	n/a	RESPONSE	n/a	n/a	n/a	n/a	n/a	n/a	n/a	yellow
138.5567	1.0333	ITI	n/a	n/a	n/a	n/a	n/a	n/a	n/a	n/a
139.59	0.5333	FIXCROSS	n/a	n/a	n/a	n/a	n/a	n/a	n/a	n/a
140.1234	0.7333	INK	41	Incongruent	żółty	yellow	niebieski	blue	hit	n/a
140.8271	n/a	RESPONSE	n/a	n/a	n/a	n/a	n/a	n/a	n/a	blue
140.8567	1.0333	ITI	n/a	n/a	n/a	n/a	n/a	n/a	n/a	n/a
141.8901	0.5333	FIXCROSS	n/a	n/a	n/a	n/a	n/a	n/a	n/a	n/a
142.4234	0.6167	INK	42	Incongruent	czerwony	red	zielony	green	hit	n/a
143.0011	n/a	RESPONSE	n/a	n/a	n/a	n/a	n/a	n/a	n/a	green
143.0401	1.0334	ITI	n/a	n/a	n/a	n/a	n/a	n/a	n/a	n/a
144.0734	0.5333	FIXCROSS	n/a	n/a	n/a	n/a	n/a	n/a	n/a	n/a
144.6068	0.65	INK	43	Neutral	xxxxxxxx	xxxxxxxx	żółty	yellow	hit	n/a
145.2231	n/a	RESPONSE	n/a	n/a	n/a	n/a	n/a	n/a	n/a	yellow
145.2568	1.0333	ITI	n/a	n/a	n/a	n/a	n/a	n/a	n/a	n/a
146.2901	0.5333	FIXCROSS	n/a	n/a	n/a	n/a	n/a	n/a	n/a	n/a
146.8234	0.9667	INK	44	Neutral	xxxxxxx	xxxxxxx	niebieski	blue	hit	n/a
147.7487	n/a	RESPONSE	n/a	n/a	n/a	n/a	n/a	n/a	n/a	blue
147.7901	1.0333	ITI	n/a	n/a	n/a	n/a	n/a	n/a	n/a	n/a
148.8235	0.5333	FIXCROSS	n/a	n/a	n/a	n/a	n/a	n/a	n/a	n/a
149.3568	0.8333	INK	45	Neutral	xxxxxxx	xxxxxxx	czerwony	red	hit	n/a
150.1464	n/a	RESPONSE	n/a	n/a	n/a	n/a	n/a	n/a	n/a	red
150.1902	1.0333	ITI	n/a	n/a	n/a	n/a	n/a	n/a	n/a	n/a
151.2235	0.5334	FIXCROSS	n/a	n/a	n/a	n/a	n/a	n/a	n/a	n/a
151.7568	0.6667	INK	46	Neutral	xxxxxxxxx	xxxxxxxxx	czerwony	red	hit	n/a
152.3843	n/a	RESPONSE	n/a	n/a	n/a	n/a	n/a	n/a	n/a	red
152.4235	1.0333	ITI	n/a	n/a	n/a	n/a	n/a	n/a	n/a	n/a
153.4569	0.5333	FIXCROSS	n/a	n/a	n/a	n/a	n/a	n/a	n/a	n/a
153.9902	0.4333	INK	47	Neutral	xxxxxxxxx	xxxxxxxxx	czerwony	red	hit	n/a
154.3824	n/a	RESPONSE	n/a	n/a	n/a	n/a	n/a	n/a	n/a	red
154.4235	1.0334	ITI	n/a	n/a	n/a	n/a	n/a	n/a	n/a	n/a
155.4569	0.5333	FIXCROSS	n/a	n/a	n/a	n/a	n/a	n/a	n/a	n/a
155.9902	0.7834	INK	48	Neutral	xxxxxxx	xxxxxxx	niebieski	blue	hit	n/a
156.7321	n/a	RESPONSE	n/a	n/a	n/a	n/a	n/a	n/a	n/a	blue
156.7736	1.0333	ITI	n/a	n/a	n/a	n/a	n/a	n/a	n/a	n/a
157.8069	0.5333	FIXCROSS	n/a	n/a	n/a	n/a	n/a	n/a	n/a	n/a
158.3403	0.7167	INK	49	Neutral	xxxxx	xxxxx	niebieski	blue	hit	n/a
159.0179	n/a	RESPONSE	n/a	n/a	n/a	n/a	n/a	n/a	n/a	blue
159.0569	1.0334	ITI	n/a	n/a	n/a	n/a	n/a	n/a	n/a	n/a
160.0903	0.5333	FIXCROSS	n/a	n/a	n/a	n/a	n/a	n/a	n/a	n/a
160.6236	0.9667	INK	50	Incongruent	zielony	green	żółty	yellow	hit	n/a
161.5596	n/a	RESPONSE	n/a	n/a	n/a	n/a	n/a	n/a	n/a	yellow
161.5903	1.0333	ITI	n/a	n/a	n/a	n/a	n/a	n/a	n/a	n/a
162.6236	0.5333	FIXCROSS	n/a	n/a	n/a	n/a	n/a	n/a	n/a	n/a
163.157	0.6167	INK	51	Neutral	xxxxxxx	xxxxxxx	żółty	yellow	hit	n/a
163.7336	n/a	RESPONSE	n/a	n/a	n/a	n/a	n/a	n/a	n/a	yellow
163.7737	1.0333	ITI	n/a	n/a	n/a	n/a	n/a	n/a	n/a	n/a
164.807	0.5333	FIXCROSS	n/a	n/a	n/a	n/a	n/a	n/a	n/a	n/a
165.3403	1.0167	INK	52	Neutral	xxxxx	xxxxx	niebieski	blue	hit	n/a
166.3232	n/a	RESPONSE	n/a	n/a	n/a	n/a	n/a	n/a	n/a	blue
166.357	1.0334	ITI	n/a	n/a	n/a	n/a	n/a	n/a	n/a	n/a
167.3904	0.5333	FIXCROSS	n/a	n/a	n/a	n/a	n/a	n/a	n/a	n/a
167.9237	0.7333	INK	53	Neutral	xxxxxxxx	xxxxxxxx	zielony	green	hit	n/a
168.6249	n/a	RESPONSE	n/a	n/a	n/a	n/a	n/a	n/a	n/a	green
168.6571	1.0333	ITI	n/a	n/a	n/a	n/a	n/a	n/a	n/a	n/a
169.6904	0.5334	FIXCROSS	n/a	n/a	n/a	n/a	n/a	n/a	n/a	n/a
170.2237	0.9	INK	54	Incongruent	żółty	yellow	niebieski	blue	hit	n/a
171.0866	n/a	RESPONSE	n/a	n/a	n/a	n/a	n/a	n/a	n/a	blue
171.1237	1.0333	ITI	n/a	n/a	n/a	n/a	n/a	n/a	n/a	n/a
172.1571	0.5333	FIXCROSS	n/a	n/a	n/a	n/a	n/a	n/a	n/a	n/a
172.6904	0.6834	INK	55	Neutral	xxxxxxxx	xxxxxxxx	niebieski	blue	hit	n/a
173.3405	n/a	RESPONSE	n/a	n/a	n/a	n/a	n/a	n/a	n/a	blue
173.3738	1.0333	ITI	n/a	n/a	n/a	n/a	n/a	n/a	n/a	n/a
174.4071	0.5334	FIXCROSS	n/a	n/a	n/a	n/a	n/a	n/a	n/a	n/a
174.9405	0.8167	INK	56	Incongruent	zielony	green	żółty	yellow	hit	n/a
175.7222	n/a	RESPONSE	n/a	n/a	n/a	n/a	n/a	n/a	n/a	yellow
175.7571	1.0333	ITI	n/a	n/a	n/a	n/a	n/a	n/a	n/a	n/a
176.7905	0.5333	FIXCROSS	n/a	n/a	n/a	n/a	n/a	n/a	n/a	n/a
177.3238	1.0	INK	57	Incongruent	czerwony	red	zielony	green	hit	n/a
178.2798	n/a	RESPONSE	n/a	n/a	n/a	n/a	n/a	n/a	n/a	green
178.3238	1.0333	ITI	n/a	n/a	n/a	n/a	n/a	n/a	n/a	n/a
179.3572	0.5333	FIXCROSS	n/a	n/a	n/a	n/a	n/a	n/a	n/a	n/a
179.8905	0.7833	INK	58	Incongruent	niebieski	blue	żółty	yellow	hit	n/a
180.6298	n/a	RESPONSE	n/a	n/a	n/a	n/a	n/a	n/a	n/a	yellow
180.6739	1.0333	ITI	n/a	n/a	n/a	n/a	n/a	n/a	n/a	n/a
181.7072	0.5333	FIXCROSS	n/a	n/a	n/a	n/a	n/a	n/a	n/a	n/a
182.2405	0.9833	INK	59	Neutral	xxxxx	xxxxx	zielony	green	hit	n/a
183.1872	n/a	RESPONSE	n/a	n/a	n/a	n/a	n/a	n/a	n/a	green
183.2239	1.0333	ITI	n/a	n/a	n/a	n/a	n/a	n/a	n/a	n/a
184.2572	0.5334	FIXCROSS	n/a	n/a	n/a	n/a	n/a	n/a	n/a	n/a
184.7906	0.85	INK	60	Incongruent	niebieski	blue	czerwony	red	hit	n/a
185.6009	n/a	RESPONSE	n/a	n/a	n/a	n/a	n/a	n/a	n/a	red
185.6406	1.0334	ITI	n/a	n/a	n/a	n/a	n/a	n/a	n/a	n/a
186.6739	0.5333	FIXCROSS	n/a	n/a	n/a	n/a	n/a	n/a	n/a	n/a
187.2073	0.8333	INK	61	Incongruent	czerwony	red	niebieski	blue	hit	n/a
187.9986	n/a	RESPONSE	n/a	n/a	n/a	n/a	n/a	n/a	n/a	blue
188.0406	1.0333	ITI	n/a	n/a	n/a	n/a	n/a	n/a	n/a	n/a
189.074	0.5334	FIXCROSS	n/a	n/a	n/a	n/a	n/a	n/a	n/a	n/a
189.6073	0.8667	INK	62	Neutral	xxxxxxx	xxxxxxx	czerwony	red	hit	n/a
190.4284	n/a	RESPONSE	n/a	n/a	n/a	n/a	n/a	n/a	n/a	red
190.474	1.0333	ITI	n/a	n/a	n/a	n/a	n/a	n/a	n/a	n/a
191.5073	0.5333	FIXCROSS	n/a	n/a	n/a	n/a	n/a	n/a	n/a	n/a
192.0407	0.7333	INK	63	Neutral	xxxxxxxxx	xxxxxxxxx	żółty	yellow	hit	n/a
192.7461	n/a	RESPONSE	n/a	n/a	n/a	n/a	n/a	n/a	n/a	yellow
192.774	1.0333	ITI	n/a	n/a	n/a	n/a	n/a	n/a	n/a	n/a
193.8074	0.5333	FIXCROSS	n/a	n/a	n/a	n/a	n/a	n/a	n/a	n/a
194.3407	0.7667	INK	64	Neutral	xxxxxxxx	xxxxxxxx	żółty	yellow	hit	n/a
195.064	n/a	RESPONSE	n/a	n/a	n/a	n/a	n/a	n/a	n/a	yellow
195.1074	1.0333	ITI	n/a	n/a	n/a	n/a	n/a	n/a	n/a	n/a
196.1407	0.5333	FIXCROSS	n/a	n/a	n/a	n/a	n/a	n/a	n/a	n/a
196.6741	1.0167	INK	65	Neutral	xxxxx	xxxxx	zielony	green	hit	n/a
197.6535	n/a	RESPONSE	n/a	n/a	n/a	n/a	n/a	n/a	n/a	green
197.6907	1.0333	ITI	n/a	n/a	n/a	n/a	n/a	n/a	n/a	n/a
198.7241	0.5334	FIXCROSS	n/a	n/a	n/a	n/a	n/a	n/a	n/a	n/a
199.2574	0.75	INK	66	Neutral	xxxxxxx	xxxxxxx	czerwony	red	hit	n/a
199.9713	n/a	RESPONSE	n/a	n/a	n/a	n/a	n/a	n/a	n/a	red
200.0074	1.0333	ITI	n/a	n/a	n/a	n/a	n/a	n/a	n/a	n/a
201.0408	0.5333	FIXCROSS	n/a	n/a	n/a	n/a	n/a	n/a	n/a	n/a
201.5741	0.7333	INK	67	Incongruent	zielony	green	czerwony	red	hit	n/a
202.2731	n/a	RESPONSE	n/a	n/a	n/a	n/a	n/a	n/a	n/a	red
202.3075	1.0334	ITI	n/a	n/a	n/a	n/a	n/a	n/a	n/a	n/a
203.3408	0.5333	FIXCROSS	n/a	n/a	n/a	n/a	n/a	n/a	n/a	n/a
203.8741	0.6333	INK	68	Incongruent	żółty	yellow	niebieski	blue	hit	n/a
204.4792	n/a	RESPONSE	n/a	n/a	n/a	n/a	n/a	n/a	n/a	blue
204.5075	1.0333	ITI	n/a	n/a	n/a	n/a	n/a	n/a	n/a	n/a
205.5408	0.5333	FIXCROSS	n/a	n/a	n/a	n/a	n/a	n/a	n/a	n/a
206.0742	1.0167	INK	69	Incongruent	żółty	yellow	czerwony	red	hit	n/a
207.0526	n/a	RESPONSE	n/a	n/a	n/a	n/a	n/a	n/a	n/a	red
207.0908	1.0333	ITI	n/a	n/a	n/a	n/a	n/a	n/a	n/a	n/a
208.1242	0.5333	FIXCROSS	n/a	n/a	n/a	n/a	n/a	n/a	n/a	n/a
208.6575	0.7334	INK	70	Neutral	xxxxxxx	xxxxxxx	niebieski	blue	hit	n/a
209.3545	n/a	RESPONSE	n/a	n/a	n/a	n/a	n/a	n/a	n/a	blue
209.3909	1.0333	ITI	n/a	n/a	n/a	n/a	n/a	n/a	n/a	n/a
210.4242	0.5333	FIXCROSS	n/a	n/a	n/a	n/a	n/a	n/a	n/a	n/a
210.9576	0.6167	INK	71	Incongruent	niebieski	blue	czerwony	red	hit	n/a
211.5445	n/a	RESPONSE	n/a	n/a	n/a	n/a	n/a	n/a	n/a	red
211.5742	1.0333	ITI	n/a	n/a	n/a	n/a	n/a	n/a	n/a	n/a
212.6076	0.5333	FIXCROSS	n/a	n/a	n/a	n/a	n/a	n/a	n/a	n/a
213.1409	0.6167	INK	72	Incongruent	żółty	yellow	czerwony	red	hit	n/a
213.7185	n/a	RESPONSE	n/a	n/a	n/a	n/a	n/a	n/a	n/a	red
213.7576	1.0834	ITI	n/a	n/a	n/a	n/a	n/a	n/a	n/a	n/a
221.8387	n/a	RESPONSE	n/a	n/a	n/a	n/a	n/a	n/a	n/a	n/a
221.9077	1.0	ITI	n/a	n/a	n/a	n/a	n/a	n/a	n/a	n/a
222.9077	0.5	FIXCROSS	n/a	n/a	n/a	n/a	n/a	n/a	n/a	n/a
223.4077	1.8667	T_COLOR_NAME	1	Incongruent	zielony	green	niebieski	blue	hit	n/a
225.2595	n/a	RESPONSE	n/a	n/a	n/a	n/a	n/a	n/a	n/a	green
225.2744	0.5	FEEDBACK	n/a	n/a	n/a	n/a	n/a	n/a	n/a	n/a
225.7744	1.0	ITI	n/a	n/a	n/a	n/a	n/a	n/a	n/a	n/a
226.7744	0.5167	FIXCROSS	n/a	n/a	n/a	n/a	n/a	n/a	n/a	n/a
227.2911	1.15	T_COLOR_NAME	2	Neutral	niebieski	blue	Neutral	Neutral	hit	n/a
228.4086	n/a	RESPONSE	n/a	n/a	n/a	n/a	n/a	n/a	n/a	blue
228.4411	0.5333	FEEDBACK	n/a	n/a	n/a	n/a	n/a	n/a	n/a	n/a
228.9744	1.0333	ITI	n/a	n/a	n/a	n/a	n/a	n/a	n/a	n/a
230.0078	0.5333	FIXCROSS	n/a	n/a	n/a	n/a	n/a	n/a	n/a	n/a
230.5411	0.9833	T_COLOR_NAME	3	Incongruent	czerwony	red	niebieski	blue	hit	n/a
231.4777	n/a	RESPONSE	n/a	n/a	n/a	n/a	n/a	n/a	n/a	red
231.5245	0.5333	FEEDBACK	n/a	n/a	n/a	n/a	n/a	n/a	n/a	n/a
232.0578	1.0333	ITI	n/a	n/a	n/a	n/a	n/a	n/a	n/a	n/a
233.0912	0.5333	FIXCROSS	n/a	n/a	n/a	n/a	n/a	n/a	n/a	n/a
233.6245	1.3	T_COLOR_NAME	4	Incongruent	żółty	yellow	czerwony	red	hit	n/a
234.8824	n/a	RESPONSE	n/a	n/a	n/a	n/a	n/a	n/a	n/a	yellow
234.9245	0.5333	FEEDBACK	n/a	n/a	n/a	n/a	n/a	n/a	n/a	n/a
235.4579	1.0333	ITI	n/a	n/a	n/a	n/a	n/a	n/a	n/a	n/a
236.4912	0.5333	FIXCROSS	n/a	n/a	n/a	n/a	n/a	n/a	n/a	n/a
237.0245	0.45	T_COLOR_NAME	5	Neutral	zielony	green	Neutral	Neutral	hit	n/a
237.44	n/a	RESPONSE	n/a	n/a	n/a	n/a	n/a	n/a	n/a	green
237.4746	0.5333	FEEDBACK	n/a	n/a	n/a	n/a	n/a	n/a	n/a	n/a
238.0079	1.0333	ITI	n/a	n/a	n/a	n/a	n/a	n/a	n/a	n/a
239.0412	0.5333	FIXCROSS	n/a	n/a	n/a	n/a	n/a	n/a	n/a	n/a
239.5746	0.9167	T_COLOR_NAME	6	Neutral	zielony	green	Neutral	Neutral	hit	n/a
240.4452	n/a	RESPONSE	n/a	n/a	n/a	n/a	n/a	n/a	n/a	green
240.4913	0.5333	FEEDBACK	n/a	n/a	n/a	n/a	n/a	n/a	n/a	n/a
241.0246	1.0333	ITI	n/a	n/a	n/a	n/a	n/a	n/a	n/a	n/a
242.0579	0.5333	FIXCROSS	n/a	n/a	n/a	n/a	n/a	n/a	n/a	n/a
242.5913	1.45	T_COLOR_NAME	7	Incongruent	zielony	green	czerwony	red	hit	n/a
244.0099	n/a	RESPONSE	n/a	n/a	n/a	n/a	n/a	n/a	n/a	green
244.0413	0.5333	FEEDBACK	n/a	n/a	n/a	n/a	n/a	n/a	n/a	n/a
244.5746	1.0333	ITI	n/a	n/a	n/a	n/a	n/a	n/a	n/a	n/a
245.608	0.5333	FIXCROSS	n/a	n/a	n/a	n/a	n/a	n/a	n/a	n/a
246.1413	1.1167	T_COLOR_NAME	8	Neutral	niebieski	blue	Neutral	Neutral	hit	n/a
247.2228	n/a	RESPONSE	n/a	n/a	n/a	n/a	n/a	n/a	n/a	blue
247.258	0.5333	FEEDBACK	n/a	n/a	n/a	n/a	n/a	n/a	n/a	n/a
247.7913	1.0333	ITI	n/a	n/a	n/a	n/a	n/a	n/a	n/a	n/a
248.8247	0.5333	FIXCROSS	n/a	n/a	n/a	n/a	n/a	n/a	n/a	n/a
249.358	1.35	T_COLOR_NAME	9	Incongruent	niebieski	blue	czerwony	red	incorrect	n/a
250.6755	n/a	RESPONSE	n/a	n/a	n/a	n/a	n/a	n/a	n/a	red
250.708	0.5333	FEEDBACK	n/a	n/a	n/a	n/a	n/a	n/a	n/a	n/a
251.2414	1.0333	ITI	n/a	n/a	n/a	n/a	n/a	n/a	n/a	n/a
252.2747	0.5333	FIXCROSS	n/a	n/a	n/a	n/a	n/a	n/a	n/a	n/a
252.8081	1.2833	T_COLOR_NAME	10	Incongruent	niebieski	blue	żółty	yellow	hit	n/a
254.0484	n/a	RESPONSE	n/a	n/a	n/a	n/a	n/a	n/a	n/a	blue
254.0914	0.5333	FEEDBACK	n/a	n/a	n/a	n/a	n/a	n/a	n/a	n/a
254.6248	1.0333	ITI	n/a	n/a	n/a	n/a	n/a	n/a	n/a	n/a
255.6581	0.5333	FIXCROSS	n/a	n/a	n/a	n/a	n/a	n/a	n/a	n/a
256.1914	0.5333	T_COLOR_NAME	11	Incongruent	niebieski	blue	zielony	green	hit	n/a
256.6859	n/a	RESPONSE	n/a	n/a	n/a	n/a	n/a	n/a	n/a	blue
256.7248	0.5333	FEEDBACK	n/a	n/a	n/a	n/a	n/a	n/a	n/a	n/a
257.2581	1.0334	ITI	n/a	n/a	n/a	n/a	n/a	n/a	n/a	n/a
258.2915	0.5333	FIXCROSS	n/a	n/a	n/a	n/a	n/a	n/a	n/a	n/a
258.8248	0.95	T_COLOR_NAME	12	Neutral	czerwony	red	Neutral	Neutral	hit	n/a
259.7391	n/a	RESPONSE	n/a	n/a	n/a	n/a	n/a	n/a	n/a	red
259.7748	0.5333	FEEDBACK	n/a	n/a	n/a	n/a	n/a	n/a	n/a	n/a
260.3082	1.05	ITI	n/a	n/a	n/a	n/a	n/a	n/a	n/a	n/a
263.0	n/a	RESPONSE	n/a	n/a	n/a	n/a	n/a	n/a	n/a	n/a
263.0749	1.0	ITI	n/a	n/a	n/a	n/a	n/a	n/a	n/a	n/a
264.0749	0.5	FIXCROSS	n/a	n/a	n/a	n/a	n/a	n/a	n/a	n/a
264.5749	0.9333	COLOR_NAME	1	Incongruent	zielony	green	niebieski	blue	hit	n/a
265.4935	n/a	RESPONSE	n/a	n/a	n/a	n/a	n/a	n/a	n/a	green
265.5082	1.0	ITI	n/a	n/a	n/a	n/a	n/a	n/a	n/a	n/a
266.5082	0.5	FIXCROSS	n/a	n/a	n/a	n/a	n/a	n/a	n/a	n/a
267.0082	0.4	COLOR_NAME	2	Incongruent	czerwony	red	niebieski	blue	hit	n/a
267.3958	n/a	RESPONSE	n/a	n/a	n/a	n/a	n/a	n/a	n/a	red
267.4083	1.0	ITI	n/a	n/a	n/a	n/a	n/a	n/a	n/a	n/a
268.4083	0.5	FIXCROSS	n/a	n/a	n/a	n/a	n/a	n/a	n/a	n/a
268.9083	0.55	COLOR_NAME	3	Incongruent	czerwony	red	zielony	green	hit	n/a
269.4418	n/a	RESPONSE	n/a	n/a	n/a	n/a	n/a	n/a	n/a	red
269.4583	1.0	ITI	n/a	n/a	n/a	n/a	n/a	n/a	n/a	n/a
270.4583	0.5	FIXCROSS	n/a	n/a	n/a	n/a	n/a	n/a	n/a	n/a
270.9583	1.2167	COLOR_NAME	4	Incongruent	niebieski	blue	zielony	green	hit	n/a
272.1593	n/a	RESPONSE	n/a	n/a	n/a	n/a	n/a	n/a	n/a	blue
272.175	1.0	ITI	n/a	n/a	n/a	n/a	n/a	n/a	n/a	n/a
273.175	0.5	FIXCROSS	n/a	n/a	n/a	n/a	n/a	n/a	n/a	n/a
273.675	0.75	COLOR_NAME	5	Neutral	żółty	yellow	Neutral	Neutral	hit	n/a
274.4131	n/a	RESPONSE	n/a	n/a	n/a	n/a	n/a	n/a	n/a	yellow
274.425	1.0	ITI	n/a	n/a	n/a	n/a	n/a	n/a	n/a	n/a
275.425	0.5	FIXCROSS	n/a	n/a	n/a	n/a	n/a	n/a	n/a	n/a
275.925	0.85	COLOR_NAME	6	Neutral	zielony	green	Neutral	Neutral	hit	n/a
276.747	n/a	RESPONSE	n/a	n/a	n/a	n/a	n/a	n/a	n/a	green
276.775	1.0333	ITI	n/a	n/a	n/a	n/a	n/a	n/a	n/a	n/a
277.8084	0.5333	FIXCROSS	n/a	n/a	n/a	n/a	n/a	n/a	n/a	n/a
278.3417	0.6833	COLOR_NAME	7	Incongruent	zielony	green	czerwony	red	incorrect	n/a
278.9848	n/a	RESPONSE	n/a	n/a	n/a	n/a	n/a	n/a	n/a	red
279.0251	1.0334	ITI	n/a	n/a	n/a	n/a	n/a	n/a	n/a	n/a
280.0584	0.5333	FIXCROSS	n/a	n/a	n/a	n/a	n/a	n/a	n/a	n/a
280.5917	1.6834	COLOR_NAME	8	Neutral	żółty	yellow	Neutral	Neutral	hit	n/a
282.2299	n/a	RESPONSE	n/a	n/a	n/a	n/a	n/a	n/a	n/a	yellow
282.2751	1.0333	ITI	n/a	n/a	n/a	n/a	n/a	n/a	n/a	n/a
283.3084	0.5333	FIXCROSS	n/a	n/a	n/a	n/a	n/a	n/a	n/a	n/a
283.8418	0.95	COLOR_NAME	9	Neutral	niebieski	blue	Neutral	Neutral	hit	n/a
284.7554	n/a	RESPONSE	n/a	n/a	n/a	n/a	n/a	n/a	n/a	blue
284.7918	1.0333	ITI	n/a	n/a	n/a	n/a	n/a	n/a	n/a	n/a
285.8251	0.5333	FIXCROSS	n/a	n/a	n/a	n/a	n/a	n/a	n/a	n/a
286.3585	1.1833	COLOR_NAME	10	Neutral	żółty	yellow	Neutral	Neutral	hit	n/a
287.5049	n/a	RESPONSE	n/a	n/a	n/a	n/a	n/a	n/a	n/a	yellow
287.5418	1.0334	ITI	n/a	n/a	n/a	n/a	n/a	n/a	n/a	n/a
288.5752	0.5333	FIXCROSS	n/a	n/a	n/a	n/a	n/a	n/a	n/a	n/a
289.1085	0.9167	COLOR_NAME	11	Incongruent	czerwony	red	zielony	green	hit	n/a
289.9825	n/a	RESPONSE	n/a	n/a	n/a	n/a	n/a	n/a	n/a	red
290.0252	1.0333	ITI	n/a	n/a	n/a	n/a	n/a	n/a	n/a	n/a
291.0585	0.5333	FIXCROSS	n/a	n/a	n/a	n/a	n/a	n/a	n/a	n/a
291.5919	0.9667	COLOR_NAME	12	Incongruent	czerwony	red	żółty	yellow	hit	n/a
292.524	n/a	RESPONSE	n/a	n/a	n/a	n/a	n/a	n/a	n/a	red
292.5585	1.0334	ITI	n/a	n/a	n/a	n/a	n/a	n/a	n/a	n/a
293.5919	0.5333	FIXCROSS	n/a	n/a	n/a	n/a	n/a	n/a	n/a	n/a
294.1252	0.7667	COLOR_NAME	13	Incongruent	zielony	green	żółty	yellow	hit	n/a
294.8579	n/a	RESPONSE	n/a	n/a	n/a	n/a	n/a	n/a	n/a	green
294.8919	1.0333	ITI	n/a	n/a	n/a	n/a	n/a	n/a	n/a	n/a
295.9253	0.5333	FIXCROSS	n/a	n/a	n/a	n/a	n/a	n/a	n/a	n/a
296.4586	0.7333	COLOR_NAME	14	Incongruent	zielony	green	żółty	yellow	hit	n/a
297.1597	n/a	RESPONSE	n/a	n/a	n/a	n/a	n/a	n/a	n/a	green
297.1919	1.0333	ITI	n/a	n/a	n/a	n/a	n/a	n/a	n/a	n/a
298.2253	0.5334	FIXCROSS	n/a	n/a	n/a	n/a	n/a	n/a	n/a	n/a
298.7586	1.1667	COLOR_NAME	15	Neutral	niebieski	blue	Neutral	Neutral	hit	n/a
299.8931	n/a	RESPONSE	n/a	n/a	n/a	n/a	n/a	n/a	n/a	blue
299.9253	1.0333	ITI	n/a	n/a	n/a	n/a	n/a	n/a	n/a	n/a
300.9586	0.5333	FIXCROSS	n/a	n/a	n/a	n/a	n/a	n/a	n/a	n/a
301.492	0.7	COLOR_NAME	16	Neutral	zielony	green	Neutral	Neutral	hit	n/a
302.1629	n/a	RESPONSE	n/a	n/a	n/a	n/a	n/a	n/a	n/a	green
302.192	1.0333	ITI	n/a	n/a	n/a	n/a	n/a	n/a	n/a	n/a
303.2253	0.5333	FIXCROSS	n/a	n/a	n/a	n/a	n/a	n/a	n/a	n/a
303.7587	0.8667	COLOR_NAME	17	Incongruent	czerwony	red	żółty	yellow	hit	n/a
304.5928	n/a	RESPONSE	n/a	n/a	n/a	n/a	n/a	n/a	n/a	red
304.6254	1.0333	ITI	n/a	n/a	n/a	n/a	n/a	n/a	n/a	n/a
305.6587	0.5333	FIXCROSS	n/a	n/a	n/a	n/a	n/a	n/a	n/a	n/a
306.192	0.7667	COLOR_NAME	18	Neutral	zielony	green	Neutral	Neutral	hit	n/a
306.9265	n/a	RESPONSE	n/a	n/a	n/a	n/a	n/a	n/a	n/a	green
306.9587	1.0333	ITI	n/a	n/a	n/a	n/a	n/a	n/a	n/a	n/a
307.9921	0.5333	FIXCROSS	n/a	n/a	n/a	n/a	n/a	n/a	n/a	n/a
308.5254	0.9333	COLOR_NAME	19	Incongruent	niebieski	blue	czerwony	red	hit	n/a
309.4201	n/a	RESPONSE	n/a	n/a	n/a	n/a	n/a	n/a	n/a	blue
309.4588	1.0333	ITI	n/a	n/a	n/a	n/a	n/a	n/a	n/a	n/a
310.4921	0.5333	FIXCROSS	n/a	n/a	n/a	n/a	n/a	n/a	n/a	n/a
311.0254	1.05	COLOR_NAME	20	Neutral	zielony	green	Neutral	Neutral	hit	n/a
312.0417	n/a	RESPONSE	n/a	n/a	n/a	n/a	n/a	n/a	n/a	green
312.0754	1.0334	ITI	n/a	n/a	n/a	n/a	n/a	n/a	n/a	n/a
313.1088	0.5333	FIXCROSS	n/a	n/a	n/a	n/a	n/a	n/a	n/a	n/a
313.6421	0.8	COLOR_NAME	21	Neutral	zielony	green	Neutral	Neutral	hit	n/a
314.4075	n/a	RESPONSE	n/a	n/a	n/a	n/a	n/a	n/a	n/a	green
314.4421	1.0334	ITI	n/a	n/a	n/a	n/a	n/a	n/a	n/a	n/a
315.4755	0.5333	FIXCROSS	n/a	n/a	n/a	n/a	n/a	n/a	n/a	n/a
316.0088	0.9333	COLOR_NAME	22	Neutral	czerwony	red	Neutral	Neutral	hit	n/a
316.9011	n/a	RESPONSE	n/a	n/a	n/a	n/a	n/a	n/a	n/a	red
316.9422	1.0333	ITI	n/a	n/a	n/a	n/a	n/a	n/a	n/a	n/a
317.9755	0.5333	FIXCROSS	n/a	n/a	n/a	n/a	n/a	n/a	n/a	n/a
318.5089	1.2167	COLOR_NAME	23	Incongruent	żółty	yellow	czerwony	red	hit	n/a
319.6824	n/a	RESPONSE	n/a	n/a	n/a	n/a	n/a	n/a	n/a	yellow
319.7255	1.0333	ITI	n/a	n/a	n/a	n/a	n/a	n/a	n/a	n/a
320.7589	0.5333	FIXCROSS	n/a	n/a	n/a	n/a	n/a	n/a	n/a	n/a
321.2922	0.9	COLOR_NAME	24	Neutral	niebieski	blue	Neutral	Neutral	hit	n/a
322.1602	n/a	RESPONSE	n/a	n/a	n/a	n/a	n/a	n/a	n/a	blue
322.1922	1.0333	ITI	n/a	n/a	n/a	n/a	n/a	n/a	n/a	n/a
323.2256	0.5333	FIXCROSS	n/a	n/a	n/a	n/a	n/a	n/a	n/a	n/a
323.7589	1.4334	COLOR_NAME	25	Incongruent	zielony	green	czerwony	red	hit	n/a
325.1492	n/a	RESPONSE	n/a	n/a	n/a	n/a	n/a	n/a	n/a	green
325.1923	1.0333	ITI	n/a	n/a	n/a	n/a	n/a	n/a	n/a	n/a
326.2256	0.5333	FIXCROSS	n/a	n/a	n/a	n/a	n/a	n/a	n/a	n/a
326.759	1.35	COLOR_NAME	26	Neutral	żółty	yellow	Neutral	Neutral	hit	n/a
328.0746	n/a	RESPONSE	n/a	n/a	n/a	n/a	n/a	n/a	n/a	yellow
328.109	1.0333	ITI	n/a	n/a	n/a	n/a	n/a	n/a	n/a	n/a
329.1423	0.5333	FIXCROSS	n/a	n/a	n/a	n/a	n/a	n/a	n/a	n/a
329.6757	1.0167	COLOR_NAME	27	Neutral	zielony	green	Neutral	Neutral	hit	n/a
330.6481	n/a	RESPONSE	n/a	n/a	n/a	n/a	n/a	n/a	n/a	green
330.6923	1.0333	ITI	n/a	n/a	n/a	n/a	n/a	n/a	n/a	n/a
331.7257	0.5333	FIXCROSS	n/a	n/a	n/a	n/a	n/a	n/a	n/a	n/a
332.259	1.1667	COLOR_NAME	28	Incongruent	niebieski	blue	żółty	yellow	hit	n/a
333.3816	n/a	RESPONSE	n/a	n/a	n/a	n/a	n/a	n/a	n/a	blue
333.4257	1.0333	ITI	n/a	n/a	n/a	n/a	n/a	n/a	n/a	n/a
334.4591	0.5333	FIXCROSS	n/a	n/a	n/a	n/a	n/a	n/a	n/a	n/a
334.9924	0.9667	COLOR_NAME	29	Neutral	niebieski	blue	Neutral	Neutral	hit	n/a
335.9231	n/a	RESPONSE	n/a	n/a	n/a	n/a	n/a	n/a	n/a	blue
335.9591	1.0334	ITI	n/a	n/a	n/a	n/a	n/a	n/a	n/a	n/a
336.9924	0.5333	FIXCROSS	n/a	n/a	n/a	n/a	n/a	n/a	n/a	n/a
337.5258	1.0333	COLOR_NAME	30	Incongruent	czerwony	red	niebieski	blue	hit	n/a
338.5286	n/a	RESPONSE	n/a	n/a	n/a	n/a	n/a	n/a	n/a	red
338.5591	1.0333	ITI	n/a	n/a	n/a	n/a	n/a	n/a	n/a	n/a
339.5924	0.5333	FIXCROSS	n/a	n/a	n/a	n/a	n/a	n/a	n/a	n/a
340.1258	0.65	COLOR_NAME	31	Neutral	żółty	yellow	Neutral	Neutral	hit	n/a
340.7347	n/a	RESPONSE	n/a	n/a	n/a	n/a	n/a	n/a	n/a	yellow
340.7758	1.0334	ITI	n/a	n/a	n/a	n/a	n/a	n/a	n/a	n/a
341.8091	0.5333	FIXCROSS	n/a	n/a	n/a	n/a	n/a	n/a	n/a	n/a
342.3425	0.7833	COLOR_NAME	32	Incongruent	żółty	yellow	zielony	green	hit	n/a
343.0844	n/a	RESPONSE	n/a	n/a	n/a	n/a	n/a	n/a	n/a	yellow
343.1258	1.0333	ITI	n/a	n/a	n/a	n/a	n/a	n/a	n/a	n/a
344.1592	0.5333	FIXCROSS	n/a	n/a	n/a	n/a	n/a	n/a	n/a	n/a
344.6925	0.95	COLOR_NAME	33	Incongruent	niebieski	blue	zielony	green	hit	n/a
345.61	n/a	RESPONSE	n/a	n/a	n/a	n/a	n/a	n/a	n/a	blue
345.6425	1.0334	ITI	n/a	n/a	n/a	n/a	n/a	n/a	n/a	n/a
346.6759	0.5333	FIXCROSS	n/a	n/a	n/a	n/a	n/a	n/a	n/a	n/a
347.2092	0.95	COLOR_NAME	34	Neutral	niebieski	blue	Neutral	Neutral	hit	n/a
348.1196	n/a	RESPONSE	n/a	n/a	n/a	n/a	n/a	n/a	n/a	blue
348.1592	1.0333	ITI	n/a	n/a	n/a	n/a	n/a	n/a	n/a	n/a
349.1926	0.5333	FIXCROSS	n/a	n/a	n/a	n/a	n/a	n/a	n/a	n/a
349.7259	0.8	COLOR_NAME	35	Neutral	czerwony	red	Neutral	Neutral	hit	n/a
350.4854	n/a	RESPONSE	n/a	n/a	n/a	n/a	n/a	n/a	n/a	red
350.5259	1.0333	ITI	n/a	n/a	n/a	n/a	n/a	n/a	n/a	n/a
351.5593	0.5333	FIXCROSS	n/a	n/a	n/a	n/a	n/a	n/a	n/a	n/a
352.0926	1.45	COLOR_NAME	36	Incongruent	niebieski	blue	czerwony	red	hit	n/a
353.5066	n/a	RESPONSE	n/a	n/a	n/a	n/a	n/a	n/a	n/a	blue
353.5426	1.0334	ITI	n/a	n/a	n/a	n/a	n/a	n/a	n/a	n/a
354.576	0.5333	FIXCROSS	n/a	n/a	n/a	n/a	n/a	n/a	n/a	n/a
355.1093	0.7333	COLOR_NAME	37	Incongruent	niebieski	blue	zielony	green	hit	n/a
355.8084	n/a	RESPONSE	n/a	n/a	n/a	n/a	n/a	n/a	n/a	blue
355.8426	1.0333	ITI	n/a	n/a	n/a	n/a	n/a	n/a	n/a	n/a
356.876	0.5333	FIXCROSS	n/a	n/a	n/a	n/a	n/a	n/a	n/a	n/a
357.4093	0.8833	COLOR_NAME	38	Incongruent	żółty	yellow	niebieski	blue	hit	n/a
358.254	n/a	RESPONSE	n/a	n/a	n/a	n/a	n/a	n/a	n/a	yellow
358.2927	1.0334	ITI	n/a	n/a	n/a	n/a	n/a	n/a	n/a	n/a
359.326	0.5333	FIXCROSS	n/a	n/a	n/a	n/a	n/a	n/a	n/a	n/a
359.8594	0.7667	COLOR_NAME	39	Neutral	czerwony	red	Neutral	Neutral	hit	n/a
360.5879	n/a	RESPONSE	n/a	n/a	n/a	n/a	n/a	n/a	n/a	red
360.626	1.0333	ITI	n/a	n/a	n/a	n/a	n/a	n/a	n/a	n/a
361.6594	0.5333	FIXCROSS	n/a	n/a	n/a	n/a	n/a	n/a	n/a	n/a
362.1927	0.7333	COLOR_NAME	40	Neutral	żółty	yellow	Neutral	Neutral	hit	n/a
362.8896	n/a	RESPONSE	n/a	n/a	n/a	n/a	n/a	n/a	n/a	yellow
362.9261	1.0333	ITI	n/a	n/a	n/a	n/a	n/a	n/a	n/a	n/a
363.9594	0.5333	FIXCROSS	n/a	n/a	n/a	n/a	n/a	n/a	n/a	n/a
364.4927	0.6	COLOR_NAME	41	Neutral	żółty	yellow	Neutral	Neutral	hit	n/a
365.0636	n/a	RESPONSE	n/a	n/a	n/a	n/a	n/a	n/a	n/a	yellow
365.0927	1.0333	ITI	n/a	n/a	n/a	n/a	n/a	n/a	n/a	n/a
366.1261	0.5333	FIXCROSS	n/a	n/a	n/a	n/a	n/a	n/a	n/a	n/a
366.6594	0.85	COLOR_NAME	42	Incongruent	zielony	green	niebieski	blue	hit	n/a
367.4773	n/a	RESPONSE	n/a	n/a	n/a	n/a	n/a	n/a	n/a	green
367.5095	1.0333	ITI	n/a	n/a	n/a	n/a	n/a	n/a	n/a	n/a
368.5428	0.5333	FIXCROSS	n/a	n/a	n/a	n/a	n/a	n/a	n/a	n/a
369.0761	0.7333	COLOR_NAME	43	Incongruent	żółty	yellow	zielony	green	hit	n/a
369.7792	n/a	RESPONSE	n/a	n/a	n/a	n/a	n/a	n/a	n/a	yellow
369.8095	1.0334	ITI	n/a	n/a	n/a	n/a	n/a	n/a	n/a	n/a
370.8428	0.5333	FIXCROSS	n/a	n/a	n/a	n/a	n/a	n/a	n/a	n/a
371.3762	1.1667	COLOR_NAME	44	Neutral	zielony	green	Neutral	Neutral	hit	n/a
372.5126	n/a	RESPONSE	n/a	n/a	n/a	n/a	n/a	n/a	n/a	green
372.5428	1.0334	ITI	n/a	n/a	n/a	n/a	n/a	n/a	n/a	n/a
373.5762	0.5333	FIXCROSS	n/a	n/a	n/a	n/a	n/a	n/a	n/a	n/a
374.1095	0.8333	COLOR_NAME	45	Neutral	żółty	yellow	Neutral	Neutral	hit	n/a
374.9102	n/a	RESPONSE	n/a	n/a	n/a	n/a	n/a	n/a	n/a	yellow
374.9429	1.0333	ITI	n/a	n/a	n/a	n/a	n/a	n/a	n/a	n/a
375.9762	0.5333	FIXCROSS	n/a	n/a	n/a	n/a	n/a	n/a	n/a	n/a
376.5096	0.8667	COLOR_NAME	46	Incongruent	czerwony	red	żółty	yellow	hit	n/a
377.34	n/a	RESPONSE	n/a	n/a	n/a	n/a	n/a	n/a	n/a	red
377.3762	1.0333	ITI	n/a	n/a	n/a	n/a	n/a	n/a	n/a	n/a
378.4096	0.5333	FIXCROSS	n/a	n/a	n/a	n/a	n/a	n/a	n/a	n/a
378.9429	1.0167	COLOR_NAME	47	Neutral	zielony	green	Neutral	Neutral	hit	n/a
379.9296	n/a	RESPONSE	n/a	n/a	n/a	n/a	n/a	n/a	n/a	green
379.9596	1.0333	ITI	n/a	n/a	n/a	n/a	n/a	n/a	n/a	n/a
380.9929	0.5333	FIXCROSS	n/a	n/a	n/a	n/a	n/a	n/a	n/a	n/a
381.5263	0.9	COLOR_NAME	48	Neutral	czerwony	red	Neutral	Neutral	hit	n/a
382.3912	n/a	RESPONSE	n/a	n/a	n/a	n/a	n/a	n/a	n/a	red
382.4263	1.0333	ITI	n/a	n/a	n/a	n/a	n/a	n/a	n/a	n/a
383.4596	0.5333	FIXCROSS	n/a	n/a	n/a	n/a	n/a	n/a	n/a	n/a
383.993	0.7833	COLOR_NAME	49	Neutral	niebieski	blue	Neutral	Neutral	hit	n/a
384.7411	n/a	RESPONSE	n/a	n/a	n/a	n/a	n/a	n/a	n/a	blue
384.7763	1.0333	ITI	n/a	n/a	n/a	n/a	n/a	n/a	n/a	n/a
385.8097	0.5333	FIXCROSS	n/a	n/a	n/a	n/a	n/a	n/a	n/a	n/a
386.343	0.8167	COLOR_NAME	50	Incongruent	niebieski	blue	żółty	yellow	hit	n/a
387.1228	n/a	RESPONSE	n/a	n/a	n/a	n/a	n/a	n/a	n/a	blue
387.1597	1.0333	ITI	n/a	n/a	n/a	n/a	n/a	n/a	n/a	n/a
388.193	0.5333	FIXCROSS	n/a	n/a	n/a	n/a	n/a	n/a	n/a	n/a
388.7264	1.0833	COLOR_NAME	51	Incongruent	żółty	yellow	czerwony	red	hit	n/a
389.7763	n/a	RESPONSE	n/a	n/a	n/a	n/a	n/a	n/a	n/a	yellow
389.8097	1.0333	ITI	n/a	n/a	n/a	n/a	n/a	n/a	n/a	n/a
390.8431	0.5333	FIXCROSS	n/a	n/a	n/a	n/a	n/a	n/a	n/a	n/a
391.3764	0.7167	COLOR_NAME	52	Neutral	niebieski	blue	Neutral	Neutral	hit	n/a
392.0622	n/a	RESPONSE	n/a	n/a	n/a	n/a	n/a	n/a	n/a	blue
392.0931	1.0333	ITI	n/a	n/a	n/a	n/a	n/a	n/a	n/a	n/a
393.1264	0.5333	FIXCROSS	n/a	n/a	n/a	n/a	n/a	n/a	n/a	n/a
393.6598	0.9667	COLOR_NAME	53	Incongruent	żółty	yellow	niebieski	blue	hit	n/a
394.5878	n/a	RESPONSE	n/a	n/a	n/a	n/a	n/a	n/a	n/a	yellow
394.6264	1.0333	ITI	n/a	n/a	n/a	n/a	n/a	n/a	n/a	n/a
395.6598	0.5333	FIXCROSS	n/a	n/a	n/a	n/a	n/a	n/a	n/a	n/a
396.1931	0.7667	COLOR_NAME	54	Neutral	niebieski	blue	Neutral	Neutral	hit	n/a
396.9215	n/a	RESPONSE	n/a	n/a	n/a	n/a	n/a	n/a	n/a	blue
396.9598	1.0333	ITI	n/a	n/a	n/a	n/a	n/a	n/a	n/a	n/a
397.9931	0.5334	FIXCROSS	n/a	n/a	n/a	n/a	n/a	n/a	n/a	n/a
398.5265	1.1333	COLOR_NAME	55	Incongruent	zielony	green	niebieski	blue	hit	n/a
399.623	n/a	RESPONSE	n/a	n/a	n/a	n/a	n/a	n/a	n/a	green
399.6598	1.0333	ITI	n/a	n/a	n/a	n/a	n/a	n/a	n/a	n/a
400.6932	0.5333	FIXCROSS	n/a	n/a	n/a	n/a	n/a	n/a	n/a	n/a
401.2265	0.85	COLOR_NAME	56	Neutral	żółty	yellow	Neutral	Neutral	hit	n/a
402.0367	n/a	RESPONSE	n/a	n/a	n/a	n/a	n/a	n/a	n/a	yellow
402.0765	1.0333	ITI	n/a	n/a	n/a	n/a	n/a	n/a	n/a	n/a
403.1099	0.5334	FIXCROSS	n/a	n/a	n/a	n/a	n/a	n/a	n/a	n/a
403.6432	1.0167	COLOR_NAME	57	Incongruent	czerwony	red	zielony	green	hit	n/a
404.6262	n/a	RESPONSE	n/a	n/a	n/a	n/a	n/a	n/a	n/a	red
404.6599	1.0334	ITI	n/a	n/a	n/a	n/a	n/a	n/a	n/a	n/a
405.6932	0.5333	FIXCROSS	n/a	n/a	n/a	n/a	n/a	n/a	n/a	n/a
406.2266	0.8	COLOR_NAME	58	Incongruent	żółty	yellow	niebieski	blue	hit	n/a
406.992	n/a	RESPONSE	n/a	n/a	n/a	n/a	n/a	n/a	n/a	yellow
407.0266	1.0333	ITI	n/a	n/a	n/a	n/a	n/a	n/a	n/a	n/a
408.0599	0.5333	FIXCROSS	n/a	n/a	n/a	n/a	n/a	n/a	n/a	n/a
408.5933	0.8667	COLOR_NAME	59	Incongruent	niebieski	blue	żółty	yellow	hit	n/a
409.4216	n/a	RESPONSE	n/a	n/a	n/a	n/a	n/a	n/a	n/a	blue
409.4599	1.0333	ITI	n/a	n/a	n/a	n/a	n/a	n/a	n/a	n/a
410.4933	0.5333	FIXCROSS	n/a	n/a	n/a	n/a	n/a	n/a	n/a	n/a
411.0266	0.7667	COLOR_NAME	60	Incongruent	żółty	yellow	zielony	green	hit	n/a
411.7555	n/a	RESPONSE	n/a	n/a	n/a	n/a	n/a	n/a	n/a	yellow
411.7933	1.0334	ITI	n/a	n/a	n/a	n/a	n/a	n/a	n/a	n/a
412.8267	0.5333	FIXCROSS	n/a	n/a	n/a	n/a	n/a	n/a	n/a	n/a
413.36	0.7333	COLOR_NAME	61	Incongruent	czerwony	red	niebieski	blue	hit	n/a
414.0574	n/a	RESPONSE	n/a	n/a	n/a	n/a	n/a	n/a	n/a	red
414.0933	1.0333	ITI	n/a	n/a	n/a	n/a	n/a	n/a	n/a	n/a
415.1267	0.5333	FIXCROSS	n/a	n/a	n/a	n/a	n/a	n/a	n/a	n/a
415.66	0.85	COLOR_NAME	62	Neutral	czerwony	red	Neutral	Neutral	hit	n/a
416.4711	n/a	RESPONSE	n/a	n/a	n/a	n/a	n/a	n/a	n/a	red
416.51	1.0334	ITI	n/a	n/a	n/a	n/a	n/a	n/a	n/a	n/a
417.5434	0.5333	FIXCROSS	n/a	n/a	n/a	n/a	n/a	n/a	n/a	n/a
418.0767	0.9833	COLOR_NAME	63	Incongruent	żółty	yellow	czerwony	red	hit	n/a
419.0287	n/a	RESPONSE	n/a	n/a	n/a	n/a	n/a	n/a	n/a	yellow
419.0601	1.0333	ITI	n/a	n/a	n/a	n/a	n/a	n/a	n/a	n/a
420.0934	0.5333	FIXCROSS	n/a	n/a	n/a	n/a	n/a	n/a	n/a	n/a
420.6267	0.7333	COLOR_NAME	64	Neutral	czerwony	red	Neutral	Neutral	hit	n/a
421.3304	n/a	RESPONSE	n/a	n/a	n/a	n/a	n/a	n/a	n/a	red
421.3601	1.0333	ITI	n/a	n/a	n/a	n/a	n/a	n/a	n/a	n/a
422.3934	0.5333	FIXCROSS	n/a	n/a	n/a	n/a	n/a	n/a	n/a	n/a
422.9268	0.65	COLOR_NAME	65	Neutral	czerwony	red	Neutral	Neutral	hit	n/a
423.5364	n/a	RESPONSE	n/a	n/a	n/a	n/a	n/a	n/a	n/a	red
423.5768	1.0333	ITI	n/a	n/a	n/a	n/a	n/a	n/a	n/a	n/a
424.6101	0.5333	FIXCROSS	n/a	n/a	n/a	n/a	n/a	n/a	n/a	n/a
425.1435	0.8167	COLOR_NAME	66	Incongruent	zielony	green	żółty	yellow	hit	n/a
425.9181	n/a	RESPONSE	n/a	n/a	n/a	n/a	n/a	n/a	n/a	green
425.9601	1.0333	ITI	n/a	n/a	n/a	n/a	n/a	n/a	n/a	n/a
426.9935	0.5333	FIXCROSS	n/a	n/a	n/a	n/a	n/a	n/a	n/a	n/a
427.5268	0.5667	COLOR_NAME	67	Neutral	czerwony	red	Neutral	Neutral	hit	n/a
428.0601	n/a	RESPONSE	n/a	n/a	n/a	n/a	n/a	n/a	n/a	red
428.0935	1.0333	ITI	n/a	n/a	n/a	n/a	n/a	n/a	n/a	n/a
429.1268	0.5333	FIXCROSS	n/a	n/a	n/a	n/a	n/a	n/a	n/a	n/a
429.6602	0.9667	COLOR_NAME	68	Incongruent	zielony	green	czerwony	red	hit	n/a
430.5857	n/a	RESPONSE	n/a	n/a	n/a	n/a	n/a	n/a	n/a	green
430.6269	1.0333	ITI	n/a	n/a	n/a	n/a	n/a	n/a	n/a	n/a
431.6602	0.5333	FIXCROSS	n/a	n/a	n/a	n/a	n/a	n/a	n/a	n/a
432.1935	0.8667	COLOR_NAME	69	Incongruent	niebieski	blue	czerwony	red	hit	n/a
433.0314	n/a	RESPONSE	n/a	n/a	n/a	n/a	n/a	n/a	n/a	blue
433.0602	1.0333	ITI	n/a	n/a	n/a	n/a	n/a	n/a	n/a	n/a
434.0936	0.5333	FIXCROSS	n/a	n/a	n/a	n/a	n/a	n/a	n/a	n/a
434.6269	0.8167	COLOR_NAME	70	Neutral	niebieski	blue	Neutral	Neutral	hit	n/a
435.4132	n/a	RESPONSE	n/a	n/a	n/a	n/a	n/a	n/a	n/a	blue
435.4436	1.0333	ITI	n/a	n/a	n/a	n/a	n/a	n/a	n/a	n/a
436.4769	0.5333	FIXCROSS	n/a	n/a	n/a	n/a	n/a	n/a	n/a	n/a
437.0103	0.7333	COLOR_NAME	71	Neutral	zielony	green	Neutral	Neutral	hit	n/a
437.7151	n/a	RESPONSE	n/a	n/a	n/a	n/a	n/a	n/a	n/a	green
437.7436	1.0334	ITI	n/a	n/a	n/a	n/a	n/a	n/a	n/a	n/a
438.777	0.5333	FIXCROSS	n/a	n/a	n/a	n/a	n/a	n/a	n/a	n/a
439.3103	0.6333	COLOR_NAME	72	Neutral	czerwony	red	Neutral	Neutral	hit	n/a
439.9049	n/a	RESPONSE	n/a	n/a	n/a	n/a	n/a	n/a	n/a	red
439.9436	1.05	ITI	n/a	n/a	n/a	n/a	n/a	n/a	n/a	n/a
443.4696	n/a	RESPONSE	n/a	n/a	n/a	n/a	n/a	n/a	n/a	n/a
