onset	duration	trial_type	trial_number	stroop_condition	stim_text(PL)	stim_text(eng)	stim_color(PL)	stim_color(eng)	response_type	response_color
0.0	n/a	RESPONSE	n/a	n/a	n/a	n/a	n/a	n/a	n/a	green
0.0	n/a	RESPONSE	n/a	n/a	n/a	n/a	n/a	n/a	n/a	yellow
0.0	n/a	RESPONSE	n/a	n/a	n/a	n/a	n/a	n/a	n/a	green
0.0001	n/a	RESPONSE	n/a	n/a	n/a	n/a	n/a	n/a	n/a	blue
0.0001	n/a	RESPONSE	n/a	n/a	n/a	n/a	n/a	n/a	n/a	n/a
0.0001	n/a	RESPONSE	n/a	n/a	n/a	n/a	n/a	n/a	n/a	red
0.0001	n/a	RESPONSE	n/a	n/a	n/a	n/a	n/a	n/a	n/a	red
39.1476	n/a	RESPONSE	n/a	n/a	n/a	n/a	n/a	n/a	n/a	n/a
39.2168	1.0333	ITI	n/a	n/a	n/a	n/a	n/a	n/a	n/a	n/a
40.2502	0.5167	FIXCROSS	n/a	n/a	n/a	n/a	n/a	n/a	n/a	n/a
40.7668	0.8167	T_INK	1	Neutral	xxxxx	xxxxx	niebieski	blue	hit	n/a
41.547	n/a	RESPONSE	n/a	n/a	n/a	n/a	n/a	n/a	n/a	blue
41.5835	0.5167	FEEDBACK	n/a	n/a	n/a	n/a	n/a	n/a	n/a	n/a
42.1002	1.0167	ITI	n/a	n/a	n/a	n/a	n/a	n/a	n/a	n/a
43.1169	0.5167	FIXCROSS	n/a	n/a	n/a	n/a	n/a	n/a	n/a	n/a
43.6335	0.8167	T_INK	2	Incongruent	żółty	yellow	czerwony	red	hit	n/a
44.4263	n/a	RESPONSE	n/a	n/a	n/a	n/a	n/a	n/a	n/a	red
44.4502	0.5167	FEEDBACK	n/a	n/a	n/a	n/a	n/a	n/a	n/a	n/a
44.9669	1.0167	ITI	n/a	n/a	n/a	n/a	n/a	n/a	n/a	n/a
45.9836	0.5167	FIXCROSS	n/a	n/a	n/a	n/a	n/a	n/a	n/a	n/a
46.5002	0.9167	T_INK	3	Incongruent	żółty	yellow	zielony	green	hit	n/a
47.3856	n/a	RESPONSE	n/a	n/a	n/a	n/a	n/a	n/a	n/a	green
47.4169	0.5167	FEEDBACK	n/a	n/a	n/a	n/a	n/a	n/a	n/a	n/a
47.9336	1.0167	ITI	n/a	n/a	n/a	n/a	n/a	n/a	n/a	n/a
48.9503	0.5167	FIXCROSS	n/a	n/a	n/a	n/a	n/a	n/a	n/a	n/a
49.4669	0.6667	T_INK	4	Incongruent	czerwony	red	zielony	green	hit	n/a
50.1049	n/a	RESPONSE	n/a	n/a	n/a	n/a	n/a	n/a	n/a	green
50.1336	0.5167	FEEDBACK	n/a	n/a	n/a	n/a	n/a	n/a	n/a	n/a
50.6503	1.0167	ITI	n/a	n/a	n/a	n/a	n/a	n/a	n/a	n/a
51.667	0.5167	FIXCROSS	n/a	n/a	n/a	n/a	n/a	n/a	n/a	n/a
52.1836	0.5333	T_INK	5	Incongruent	niebieski	blue	czerwony	red	hit	n/a
52.6963	n/a	RESPONSE	n/a	n/a	n/a	n/a	n/a	n/a	n/a	red
52.717	0.5167	FEEDBACK	n/a	n/a	n/a	n/a	n/a	n/a	n/a	n/a
53.2336	1.0167	ITI	n/a	n/a	n/a	n/a	n/a	n/a	n/a	n/a
54.2503	0.5167	FIXCROSS	n/a	n/a	n/a	n/a	n/a	n/a	n/a	n/a
54.767	0.8167	T_INK	6	Neutral	xxxxxxxx	xxxxxxxx	zielony	green	hit	n/a
55.5596	n/a	RESPONSE	n/a	n/a	n/a	n/a	n/a	n/a	n/a	green
55.5837	0.5167	FEEDBACK	n/a	n/a	n/a	n/a	n/a	n/a	n/a	n/a
56.1003	1.0167	ITI	n/a	n/a	n/a	n/a	n/a	n/a	n/a	n/a
57.117	0.5167	FIXCROSS	n/a	n/a	n/a	n/a	n/a	n/a	n/a	n/a
57.6337	0.4833	T_INK	7	Neutral	xxxxxxxxx	xxxxxxxxx	czerwony	red	hit	n/a
58.087	n/a	RESPONSE	n/a	n/a	n/a	n/a	n/a	n/a	n/a	red
58.117	0.5167	FEEDBACK	n/a	n/a	n/a	n/a	n/a	n/a	n/a	n/a
58.6337	1.0167	ITI	n/a	n/a	n/a	n/a	n/a	n/a	n/a	n/a
59.6504	0.5167	FIXCROSS	n/a	n/a	n/a	n/a	n/a	n/a	n/a	n/a
60.1671	0.7667	T_INK	8	Incongruent	niebieski	blue	zielony	green	hit	n/a
60.9023	n/a	RESPONSE	n/a	n/a	n/a	n/a	n/a	n/a	n/a	green
60.9337	0.5167	FEEDBACK	n/a	n/a	n/a	n/a	n/a	n/a	n/a	n/a
61.4504	1.0167	ITI	n/a	n/a	n/a	n/a	n/a	n/a	n/a	n/a
62.4671	0.5167	FIXCROSS	n/a	n/a	n/a	n/a	n/a	n/a	n/a	n/a
62.9838	0.7	T_INK	9	Incongruent	czerwony	red	żółty	yellow	hit	n/a
63.6536	n/a	RESPONSE	n/a	n/a	n/a	n/a	n/a	n/a	n/a	yellow
63.6838	0.5167	FEEDBACK	n/a	n/a	n/a	n/a	n/a	n/a	n/a	n/a
64.2004	1.0167	ITI	n/a	n/a	n/a	n/a	n/a	n/a	n/a	n/a
65.2171	0.5167	FIXCROSS	n/a	n/a	n/a	n/a	n/a	n/a	n/a	n/a
65.7338	0.7333	T_INK	10	Incongruent	żółty	yellow	niebieski	blue	hit	n/a
66.437	n/a	RESPONSE	n/a	n/a	n/a	n/a	n/a	n/a	n/a	blue
66.4671	0.5167	FEEDBACK	n/a	n/a	n/a	n/a	n/a	n/a	n/a	n/a
66.9838	1.0167	ITI	n/a	n/a	n/a	n/a	n/a	n/a	n/a	n/a
68.0005	0.5167	FIXCROSS	n/a	n/a	n/a	n/a	n/a	n/a	n/a	n/a
68.5172	0.85	T_INK	11	Incongruent	niebieski	blue	żółty	yellow	hit	n/a
69.3482	n/a	RESPONSE	n/a	n/a	n/a	n/a	n/a	n/a	n/a	yellow
69.3672	0.5167	FEEDBACK	n/a	n/a	n/a	n/a	n/a	n/a	n/a	n/a
69.8838	1.0167	ITI	n/a	n/a	n/a	n/a	n/a	n/a	n/a	n/a
70.9005	0.5167	FIXCROSS	n/a	n/a	n/a	n/a	n/a	n/a	n/a	n/a
71.4172	0.8667	T_INK	12	Incongruent	czerwony	red	niebieski	blue	hit	n/a
72.2595	n/a	RESPONSE	n/a	n/a	n/a	n/a	n/a	n/a	n/a	blue
72.2839	0.5167	FEEDBACK	n/a	n/a	n/a	n/a	n/a	n/a	n/a	n/a
72.8006	1.0333	ITI	n/a	n/a	n/a	n/a	n/a	n/a	n/a	n/a
82.9929	n/a	RESPONSE	n/a	n/a	n/a	n/a	n/a	n/a	n/a	n/a
83.0507	1.0167	ITI	n/a	n/a	n/a	n/a	n/a	n/a	n/a	n/a
84.0673	0.5167	FIXCROSS	n/a	n/a	n/a	n/a	n/a	n/a	n/a	n/a
84.584	0.6	INK	1	Incongruent	żółty	yellow	czerwony	red	hit	n/a
85.1524	n/a	RESPONSE	n/a	n/a	n/a	n/a	n/a	n/a	n/a	red
85.184	1.0167	ITI	n/a	n/a	n/a	n/a	n/a	n/a	n/a	n/a
86.2007	0.5165	FIXCROSS	n/a	n/a	n/a	n/a	n/a	n/a	n/a	n/a
86.7172	0.6002	INK	2	Incongruent	czerwony	red	żółty	yellow	hit	n/a
87.2958	n/a	RESPONSE	n/a	n/a	n/a	n/a	n/a	n/a	n/a	yellow
87.3174	1.0167	ITI	n/a	n/a	n/a	n/a	n/a	n/a	n/a	n/a
88.3341	0.5167	FIXCROSS	n/a	n/a	n/a	n/a	n/a	n/a	n/a	n/a
88.8507	0.55	INK	3	Neutral	xxxxxxx	xxxxxxx	niebieski	blue	hit	n/a
89.3754	n/a	RESPONSE	n/a	n/a	n/a	n/a	n/a	n/a	n/a	blue
89.4007	1.0167	ITI	n/a	n/a	n/a	n/a	n/a	n/a	n/a	n/a
90.4174	0.5167	FIXCROSS	n/a	n/a	n/a	n/a	n/a	n/a	n/a	n/a
90.9341	0.4667	INK	4	Incongruent	żółty	yellow	zielony	green	hit	n/a
91.3749	n/a	RESPONSE	n/a	n/a	n/a	n/a	n/a	n/a	n/a	green
91.4008	1.0167	ITI	n/a	n/a	n/a	n/a	n/a	n/a	n/a	n/a
92.4174	0.5167	FIXCROSS	n/a	n/a	n/a	n/a	n/a	n/a	n/a	n/a
92.9341	0.55	INK	5	Neutral	xxxxxxxx	xxxxxxxx	żółty	yellow	hit	n/a
93.4544	n/a	RESPONSE	n/a	n/a	n/a	n/a	n/a	n/a	n/a	yellow
93.4841	1.0167	ITI	n/a	n/a	n/a	n/a	n/a	n/a	n/a	n/a
94.5008	0.5167	FIXCROSS	n/a	n/a	n/a	n/a	n/a	n/a	n/a	n/a
95.0175	0.45	INK	6	Neutral	xxxxx	xxxxx	niebieski	blue	hit	n/a
95.4378	n/a	RESPONSE	n/a	n/a	n/a	n/a	n/a	n/a	n/a	blue
95.4675	1.0167	ITI	n/a	n/a	n/a	n/a	n/a	n/a	n/a	n/a
96.4842	0.5167	FIXCROSS	n/a	n/a	n/a	n/a	n/a	n/a	n/a	n/a
97.0008	0.5667	INK	7	Neutral	xxxxxxx	xxxxxxx	żółty	yellow	hit	n/a
97.5493	n/a	RESPONSE	n/a	n/a	n/a	n/a	n/a	n/a	n/a	yellow
97.5675	1.0167	ITI	n/a	n/a	n/a	n/a	n/a	n/a	n/a	n/a
98.5842	0.5167	FIXCROSS	n/a	n/a	n/a	n/a	n/a	n/a	n/a	n/a
99.1009	0.3667	INK	8	Incongruent	zielony	green	żółty	yellow	hit	n/a
99.4369	n/a	RESPONSE	n/a	n/a	n/a	n/a	n/a	n/a	n/a	yellow
99.4675	1.0167	ITI	n/a	n/a	n/a	n/a	n/a	n/a	n/a	n/a
100.4842	0.5167	FIXCROSS	n/a	n/a	n/a	n/a	n/a	n/a	n/a	n/a
101.0009	0.3667	INK	9	Incongruent	zielony	green	żółty	yellow	hit	n/a
101.3404	n/a	RESPONSE	n/a	n/a	n/a	n/a	n/a	n/a	n/a	yellow
101.3675	1.0167	ITI	n/a	n/a	n/a	n/a	n/a	n/a	n/a	n/a
102.3842	0.5167	FIXCROSS	n/a	n/a	n/a	n/a	n/a	n/a	n/a	n/a
102.9009	0.3833	INK	10	Incongruent	niebieski	blue	żółty	yellow	hit	n/a
103.2599	n/a	RESPONSE	n/a	n/a	n/a	n/a	n/a	n/a	n/a	yellow
103.2842	1.0167	ITI	n/a	n/a	n/a	n/a	n/a	n/a	n/a	n/a
104.3009	0.5167	FIXCROSS	n/a	n/a	n/a	n/a	n/a	n/a	n/a	n/a
104.8176	0.5	INK	11	Neutral	xxxxx	xxxxx	niebieski	blue	hit	n/a
105.2915	n/a	RESPONSE	n/a	n/a	n/a	n/a	n/a	n/a	n/a	blue
105.3176	1.0167	ITI	n/a	n/a	n/a	n/a	n/a	n/a	n/a	n/a
106.3343	0.5167	FIXCROSS	n/a	n/a	n/a	n/a	n/a	n/a	n/a	n/a
106.8509	0.6333	INK	12	Incongruent	zielony	green	czerwony	red	hit	n/a
107.4669	n/a	RESPONSE	n/a	n/a	n/a	n/a	n/a	n/a	n/a	red
107.4843	1.0167	ITI	n/a	n/a	n/a	n/a	n/a	n/a	n/a	n/a
108.501	0.5167	FIXCROSS	n/a	n/a	n/a	n/a	n/a	n/a	n/a	n/a
109.0176	0.5167	INK	13	Incongruent	czerwony	red	niebieski	blue	hit	n/a
109.5144	n/a	RESPONSE	n/a	n/a	n/a	n/a	n/a	n/a	n/a	blue
109.5343	1.0167	ITI	n/a	n/a	n/a	n/a	n/a	n/a	n/a	n/a
110.551	0.5167	FIXCROSS	n/a	n/a	n/a	n/a	n/a	n/a	n/a	n/a
111.0677	0.6167	INK	14	Neutral	xxxxxxxxx	xxxxxxxxx	zielony	green	hit	n/a
111.6579	n/a	RESPONSE	n/a	n/a	n/a	n/a	n/a	n/a	n/a	green
111.6843	1.0167	ITI	n/a	n/a	n/a	n/a	n/a	n/a	n/a	n/a
112.701	0.5167	FIXCROSS	n/a	n/a	n/a	n/a	n/a	n/a	n/a	n/a
113.2177	0.7833	INK	15	Incongruent	żółty	yellow	czerwony	red	incorrect	n/a
113.9773	n/a	RESPONSE	n/a	n/a	n/a	n/a	n/a	n/a	n/a	yellow
114.001	1.0167	ITI	n/a	n/a	n/a	n/a	n/a	n/a	n/a	n/a
114.1853	n/a	RESPONSE	n/a	n/a	n/a	n/a	n/a	n/a	n/a	red
115.0177	0.5167	FIXCROSS	n/a	n/a	n/a	n/a	n/a	n/a	n/a	n/a
115.5344	0.75	INK	16	Incongruent	zielony	green	czerwony	red	hit	n/a
116.2648	n/a	RESPONSE	n/a	n/a	n/a	n/a	n/a	n/a	n/a	red
116.2844	1.0167	ITI	n/a	n/a	n/a	n/a	n/a	n/a	n/a	n/a
117.3011	0.5167	FIXCROSS	n/a	n/a	n/a	n/a	n/a	n/a	n/a	n/a
117.8177	0.6333	INK	17	Incongruent	niebieski	blue	żółty	yellow	hit	n/a
118.4243	n/a	RESPONSE	n/a	n/a	n/a	n/a	n/a	n/a	n/a	yellow
118.4511	1.0167	ITI	n/a	n/a	n/a	n/a	n/a	n/a	n/a	n/a
119.4678	0.5167	FIXCROSS	n/a	n/a	n/a	n/a	n/a	n/a	n/a	n/a
119.9844	0.6667	INK	18	Incongruent	żółty	yellow	czerwony	red	hit	n/a
120.6157	n/a	RESPONSE	n/a	n/a	n/a	n/a	n/a	n/a	n/a	red
120.6511	1.0167	ITI	n/a	n/a	n/a	n/a	n/a	n/a	n/a	n/a
121.6678	0.5167	FIXCROSS	n/a	n/a	n/a	n/a	n/a	n/a	n/a	n/a
122.1845	0.6	INK	19	Neutral	xxxxx	xxxxx	zielony	green	incorrect	n/a
122.7592	n/a	RESPONSE	n/a	n/a	n/a	n/a	n/a	n/a	n/a	blue
122.7845	1.0167	ITI	n/a	n/a	n/a	n/a	n/a	n/a	n/a	n/a
123.8011	0.5167	FIXCROSS	n/a	n/a	n/a	n/a	n/a	n/a	n/a	n/a
124.3178	0.6833	INK	20	Neutral	xxxxxxx	xxxxxxx	czerwony	red	hit	n/a
124.9826	n/a	RESPONSE	n/a	n/a	n/a	n/a	n/a	n/a	n/a	red
125.0012	1.0167	ITI	n/a	n/a	n/a	n/a	n/a	n/a	n/a	n/a
126.0178	0.5167	FIXCROSS	n/a	n/a	n/a	n/a	n/a	n/a	n/a	n/a
126.5345	0.7667	INK	21	Incongruent	zielony	green	czerwony	red	hit	n/a
127.2701	n/a	RESPONSE	n/a	n/a	n/a	n/a	n/a	n/a	n/a	red
127.3012	1.0167	ITI	n/a	n/a	n/a	n/a	n/a	n/a	n/a	n/a
128.3179	0.5167	FIXCROSS	n/a	n/a	n/a	n/a	n/a	n/a	n/a	n/a
128.8345	0.6833	INK	22	Neutral	xxxxxxxxx	xxxxxxxxx	żółty	yellow	hit	n/a
129.4935	n/a	RESPONSE	n/a	n/a	n/a	n/a	n/a	n/a	n/a	yellow
129.5179	1.0167	ITI	n/a	n/a	n/a	n/a	n/a	n/a	n/a	n/a
130.5346	0.5167	FIXCROSS	n/a	n/a	n/a	n/a	n/a	n/a	n/a	n/a
131.0512	0.8333	INK	23	Neutral	xxxxx	xxxxx	zielony	green	hit	n/a
131.861	n/a	RESPONSE	n/a	n/a	n/a	n/a	n/a	n/a	n/a	green
131.8846	1.0167	ITI	n/a	n/a	n/a	n/a	n/a	n/a	n/a	n/a
132.9012	0.5167	FIXCROSS	n/a	n/a	n/a	n/a	n/a	n/a	n/a	n/a
133.4179	0.45	INK	24	Incongruent	czerwony	red	zielony	green	hit	n/a
133.8445	n/a	RESPONSE	n/a	n/a	n/a	n/a	n/a	n/a	n/a	green
133.8679	1.0167	ITI	n/a	n/a	n/a	n/a	n/a	n/a	n/a	n/a
134.8846	0.5167	FIXCROSS	n/a	n/a	n/a	n/a	n/a	n/a	n/a	n/a
135.4013	0.35	INK	25	Neutral	xxxxx	xxxxx	niebieski	blue	hit	n/a
135.732	n/a	RESPONSE	n/a	n/a	n/a	n/a	n/a	n/a	n/a	blue
135.7513	1.0167	ITI	n/a	n/a	n/a	n/a	n/a	n/a	n/a	n/a
136.768	0.5167	FIXCROSS	n/a	n/a	n/a	n/a	n/a	n/a	n/a	n/a
137.2846	0.7	INK	26	Incongruent	czerwony	red	niebieski	blue	incorrect	n/a
137.9555	n/a	RESPONSE	n/a	n/a	n/a	n/a	n/a	n/a	n/a	green
137.9846	1.0167	ITI	n/a	n/a	n/a	n/a	n/a	n/a	n/a	n/a
139.0013	0.5167	FIXCROSS	n/a	n/a	n/a	n/a	n/a	n/a	n/a	n/a
139.518	0.5667	INK	27	Incongruent	czerwony	red	żółty	yellow	hit	n/a
140.067	n/a	RESPONSE	n/a	n/a	n/a	n/a	n/a	n/a	n/a	yellow
140.0847	1.0167	ITI	n/a	n/a	n/a	n/a	n/a	n/a	n/a	n/a
141.1013	0.5167	FIXCROSS	n/a	n/a	n/a	n/a	n/a	n/a	n/a	n/a
141.618	0.8834	INK	28	Neutral	xxxxx	xxxxx	zielony	green	hit	n/a
142.4824	n/a	RESPONSE	n/a	n/a	n/a	n/a	n/a	n/a	n/a	green
142.5014	1.0167	ITI	n/a	n/a	n/a	n/a	n/a	n/a	n/a	n/a
143.518	0.5167	FIXCROSS	n/a	n/a	n/a	n/a	n/a	n/a	n/a	n/a
144.0347	0.55	INK	29	Neutral	xxxxx	xxxxx	czerwony	red	hit	n/a
144.5619	n/a	RESPONSE	n/a	n/a	n/a	n/a	n/a	n/a	n/a	red
144.5847	1.0167	ITI	n/a	n/a	n/a	n/a	n/a	n/a	n/a	n/a
145.6014	0.5167	FIXCROSS	n/a	n/a	n/a	n/a	n/a	n/a	n/a	n/a
146.1181	0.7167	INK	30	Incongruent	niebieski	blue	zielony	green	hit	n/a
146.8173	n/a	RESPONSE	n/a	n/a	n/a	n/a	n/a	n/a	n/a	green
146.8347	1.0167	ITI	n/a	n/a	n/a	n/a	n/a	n/a	n/a	n/a
147.8514	0.5167	FIXCROSS	n/a	n/a	n/a	n/a	n/a	n/a	n/a	n/a
148.3681	0.4167	INK	31	Neutral	xxxxxxx	xxxxxxx	czerwony	red	hit	n/a
148.7529	n/a	RESPONSE	n/a	n/a	n/a	n/a	n/a	n/a	n/a	red
148.7848	1.0167	ITI	n/a	n/a	n/a	n/a	n/a	n/a	n/a	n/a
149.8014	0.5167	FIXCROSS	n/a	n/a	n/a	n/a	n/a	n/a	n/a	n/a
150.3181	0.4833	INK	32	Neutral	xxxxxxxxx	xxxxxxxxx	żółty	yellow	hit	n/a
150.7684	n/a	RESPONSE	n/a	n/a	n/a	n/a	n/a	n/a	n/a	yellow
150.8015	1.0167	ITI	n/a	n/a	n/a	n/a	n/a	n/a	n/a	n/a
151.8181	0.5167	FIXCROSS	n/a	n/a	n/a	n/a	n/a	n/a	n/a	n/a
152.3348	0.85	INK	33	Incongruent	czerwony	red	zielony	green	hit	n/a
153.1518	n/a	RESPONSE	n/a	n/a	n/a	n/a	n/a	n/a	n/a	green
153.1848	1.0167	ITI	n/a	n/a	n/a	n/a	n/a	n/a	n/a	n/a
154.2015	0.5167	FIXCROSS	n/a	n/a	n/a	n/a	n/a	n/a	n/a	n/a
154.7182	0.5833	INK	34	Incongruent	zielony	green	niebieski	blue	hit	n/a
155.2793	n/a	RESPONSE	n/a	n/a	n/a	n/a	n/a	n/a	n/a	blue
155.3015	1.0167	ITI	n/a	n/a	n/a	n/a	n/a	n/a	n/a	n/a
156.3182	0.5167	FIXCROSS	n/a	n/a	n/a	n/a	n/a	n/a	n/a	n/a
156.8349	0.55	INK	35	Incongruent	zielony	green	niebieski	blue	hit	n/a
157.3588	n/a	RESPONSE	n/a	n/a	n/a	n/a	n/a	n/a	n/a	blue
157.3849	1.0167	ITI	n/a	n/a	n/a	n/a	n/a	n/a	n/a	n/a
158.4015	0.5167	FIXCROSS	n/a	n/a	n/a	n/a	n/a	n/a	n/a	n/a
158.9182	0.5333	INK	36	Incongruent	niebieski	blue	żółty	yellow	hit	n/a
159.4223	n/a	RESPONSE	n/a	n/a	n/a	n/a	n/a	n/a	n/a	yellow
159.4516	1.0167	ITI	n/a	n/a	n/a	n/a	n/a	n/a	n/a	n/a
160.4682	0.5167	FIXCROSS	n/a	n/a	n/a	n/a	n/a	n/a	n/a	n/a
160.9849	0.45	INK	37	Neutral	xxxxxxxx	xxxxxxxx	żółty	yellow	hit	n/a
161.4058	n/a	RESPONSE	n/a	n/a	n/a	n/a	n/a	n/a	n/a	yellow
161.4349	1.0167	ITI	n/a	n/a	n/a	n/a	n/a	n/a	n/a	n/a
162.4516	0.5167	FIXCROSS	n/a	n/a	n/a	n/a	n/a	n/a	n/a	n/a
162.9683	0.6833	INK	38	Neutral	xxxxxxxxx	xxxxxxxxx	zielony	green	hit	n/a
163.6292	n/a	RESPONSE	n/a	n/a	n/a	n/a	n/a	n/a	n/a	green
163.6516	1.0167	ITI	n/a	n/a	n/a	n/a	n/a	n/a	n/a	n/a
164.6683	0.5167	FIXCROSS	n/a	n/a	n/a	n/a	n/a	n/a	n/a	n/a
165.185	0.7833	INK	39	Neutral	xxxxxxx	xxxxxxx	żółty	yellow	hit	n/a
165.9487	n/a	RESPONSE	n/a	n/a	n/a	n/a	n/a	n/a	n/a	yellow
165.9683	1.0167	ITI	n/a	n/a	n/a	n/a	n/a	n/a	n/a	n/a
166.985	0.5167	FIXCROSS	n/a	n/a	n/a	n/a	n/a	n/a	n/a	n/a
167.5017	0.7333	INK	40	Neutral	xxxxxxx	xxxxxxx	niebieski	blue	hit	n/a
168.2041	n/a	RESPONSE	n/a	n/a	n/a	n/a	n/a	n/a	n/a	blue
168.235	1.0167	ITI	n/a	n/a	n/a	n/a	n/a	n/a	n/a	n/a
169.2517	0.5167	FIXCROSS	n/a	n/a	n/a	n/a	n/a	n/a	n/a	n/a
169.7683	0.75	INK	41	Incongruent	czerwony	red	zielony	green	hit	n/a
170.4916	n/a	RESPONSE	n/a	n/a	n/a	n/a	n/a	n/a	n/a	green
170.5184	1.0167	ITI	n/a	n/a	n/a	n/a	n/a	n/a	n/a	n/a
171.535	0.5167	FIXCROSS	n/a	n/a	n/a	n/a	n/a	n/a	n/a	n/a
172.0517	0.8	INK	42	Neutral	xxxxxxxx	xxxxxxxx	niebieski	blue	hit	n/a
172.827	n/a	RESPONSE	n/a	n/a	n/a	n/a	n/a	n/a	n/a	blue
172.8517	1.0167	ITI	n/a	n/a	n/a	n/a	n/a	n/a	n/a	n/a
173.8684	0.5167	FIXCROSS	n/a	n/a	n/a	n/a	n/a	n/a	n/a	n/a
174.3851	0.4935	INK	43	Neutral	xxxxxxx	xxxxxxx	żółty	yellow	hit	n/a
174.8585	n/a	RESPONSE	n/a	n/a	n/a	n/a	n/a	n/a	n/a	yellow
174.8786	1.0232	ITI	n/a	n/a	n/a	n/a	n/a	n/a	n/a	n/a
175.9018	0.5167	FIXCROSS	n/a	n/a	n/a	n/a	n/a	n/a	n/a	n/a
176.4184	1.0833	INK	44	Incongruent	żółty	yellow	niebieski	blue	hit	n/a
177.4819	n/a	RESPONSE	n/a	n/a	n/a	n/a	n/a	n/a	n/a	blue
177.5018	1.0167	ITI	n/a	n/a	n/a	n/a	n/a	n/a	n/a	n/a
178.5184	0.5167	FIXCROSS	n/a	n/a	n/a	n/a	n/a	n/a	n/a	n/a
179.0351	0.6833	INK	45	Incongruent	niebieski	blue	zielony	green	hit	n/a
179.6893	n/a	RESPONSE	n/a	n/a	n/a	n/a	n/a	n/a	n/a	green
179.7185	1.0167	ITI	n/a	n/a	n/a	n/a	n/a	n/a	n/a	n/a
180.7351	0.5167	FIXCROSS	n/a	n/a	n/a	n/a	n/a	n/a	n/a	n/a
181.2518	0.4	INK	46	Incongruent	żółty	yellow	zielony	green	hit	n/a
181.6248	n/a	RESPONSE	n/a	n/a	n/a	n/a	n/a	n/a	n/a	green
181.6518	1.0167	ITI	n/a	n/a	n/a	n/a	n/a	n/a	n/a	n/a
182.6685	0.5167	FIXCROSS	n/a	n/a	n/a	n/a	n/a	n/a	n/a	n/a
183.1852	0.4167	INK	47	Neutral	xxxxx	xxxxx	czerwony	red	hit	n/a
183.5764	n/a	RESPONSE	n/a	n/a	n/a	n/a	n/a	n/a	n/a	red
183.6018	1.0167	ITI	n/a	n/a	n/a	n/a	n/a	n/a	n/a	n/a
184.6185	0.5167	FIXCROSS	n/a	n/a	n/a	n/a	n/a	n/a	n/a	n/a
185.1352	0.6667	INK	48	Incongruent	niebieski	blue	zielony	green	hit	n/a
185.7838	n/a	RESPONSE	n/a	n/a	n/a	n/a	n/a	n/a	n/a	green
185.8019	1.0167	ITI	n/a	n/a	n/a	n/a	n/a	n/a	n/a	n/a
186.8185	0.5167	FIXCROSS	n/a	n/a	n/a	n/a	n/a	n/a	n/a	n/a
187.3352	0.4167	INK	49	Neutral	xxxxxxx	xxxxxxx	czerwony	red	hit	n/a
187.7193	n/a	RESPONSE	n/a	n/a	n/a	n/a	n/a	n/a	n/a	red
187.7519	1.0167	ITI	n/a	n/a	n/a	n/a	n/a	n/a	n/a	n/a
188.7686	0.5167	FIXCROSS	n/a	n/a	n/a	n/a	n/a	n/a	n/a	n/a
189.2852	0.4667	INK	50	Incongruent	zielony	green	żółty	yellow	hit	n/a
189.7189	n/a	RESPONSE	n/a	n/a	n/a	n/a	n/a	n/a	n/a	yellow
189.7519	1.0167	ITI	n/a	n/a	n/a	n/a	n/a	n/a	n/a	n/a
190.7686	0.5167	FIXCROSS	n/a	n/a	n/a	n/a	n/a	n/a	n/a	n/a
191.2853	0.7667	INK	51	Incongruent	niebieski	blue	czerwony	red	hit	n/a
192.0223	n/a	RESPONSE	n/a	n/a	n/a	n/a	n/a	n/a	n/a	red
192.0519	1.0167	ITI	n/a	n/a	n/a	n/a	n/a	n/a	n/a	n/a
193.0686	0.5167	FIXCROSS	n/a	n/a	n/a	n/a	n/a	n/a	n/a	n/a
193.5853	0.55	INK	52	Neutral	xxxxxxxx	xxxxxxxx	zielony	green	hit	n/a
194.1178	n/a	RESPONSE	n/a	n/a	n/a	n/a	n/a	n/a	n/a	green
194.1353	1.0167	ITI	n/a	n/a	n/a	n/a	n/a	n/a	n/a	n/a
195.152	0.5167	FIXCROSS	n/a	n/a	n/a	n/a	n/a	n/a	n/a	n/a
195.6686	0.4667	INK	53	Neutral	xxxxxxxxx	xxxxxxxxx	czerwony	red	hit	n/a
196.1173	n/a	RESPONSE	n/a	n/a	n/a	n/a	n/a	n/a	n/a	red
196.1353	1.0167	ITI	n/a	n/a	n/a	n/a	n/a	n/a	n/a	n/a
197.152	0.5167	FIXCROSS	n/a	n/a	n/a	n/a	n/a	n/a	n/a	n/a
197.6687	0.5	INK	54	Neutral	xxxxxxxx	xxxxxxxx	zielony	green	hit	n/a
198.1488	n/a	RESPONSE	n/a	n/a	n/a	n/a	n/a	n/a	n/a	green
198.1687	1.0167	ITI	n/a	n/a	n/a	n/a	n/a	n/a	n/a	n/a
199.1854	0.5167	FIXCROSS	n/a	n/a	n/a	n/a	n/a	n/a	n/a	n/a
199.702	0.4833	INK	55	Neutral	xxxxxxxx	xxxxxxxx	żółty	yellow	hit	n/a
200.1643	n/a	RESPONSE	n/a	n/a	n/a	n/a	n/a	n/a	n/a	yellow
200.1854	1.0167	ITI	n/a	n/a	n/a	n/a	n/a	n/a	n/a	n/a
201.2021	0.5167	FIXCROSS	n/a	n/a	n/a	n/a	n/a	n/a	n/a	n/a
201.7187	0.5333	INK	56	Neutral	xxxxxxxx	xxxxxxxx	zielony	green	hit	n/a
202.2278	n/a	RESPONSE	n/a	n/a	n/a	n/a	n/a	n/a	n/a	green
202.2521	1.0167	ITI	n/a	n/a	n/a	n/a	n/a	n/a	n/a	n/a
203.2687	0.5167	FIXCROSS	n/a	n/a	n/a	n/a	n/a	n/a	n/a	n/a
203.7854	0.4833	INK	57	Neutral	xxxxxxxx	xxxxxxxx	niebieski	blue	hit	n/a
204.2433	n/a	RESPONSE	n/a	n/a	n/a	n/a	n/a	n/a	n/a	blue
204.2688	1.0167	ITI	n/a	n/a	n/a	n/a	n/a	n/a	n/a	n/a
205.2854	0.5167	FIXCROSS	n/a	n/a	n/a	n/a	n/a	n/a	n/a	n/a
205.8021	0.9334	INK	58	Incongruent	czerwony	red	żółty	yellow	hit	n/a
206.7067	n/a	RESPONSE	n/a	n/a	n/a	n/a	n/a	n/a	n/a	yellow
206.7354	1.0167	ITI	n/a	n/a	n/a	n/a	n/a	n/a	n/a	n/a
207.7521	0.5167	FIXCROSS	n/a	n/a	n/a	n/a	n/a	n/a	n/a	n/a
208.2688	0.6834	INK	59	Neutral	xxxxxxxxx	xxxxxxxxx	czerwony	red	hit	n/a
208.9302	n/a	RESPONSE	n/a	n/a	n/a	n/a	n/a	n/a	n/a	red
208.9521	1.0167	ITI	n/a	n/a	n/a	n/a	n/a	n/a	n/a	n/a
209.9688	0.5165	FIXCROSS	n/a	n/a	n/a	n/a	n/a	n/a	n/a	n/a
210.4853	0.4002	INK	60	Neutral	xxxxxxxxx	xxxxxxxxx	czerwony	red	hit	n/a
210.8657	n/a	RESPONSE	n/a	n/a	n/a	n/a	n/a	n/a	n/a	red
210.8855	1.0167	ITI	n/a	n/a	n/a	n/a	n/a	n/a	n/a	n/a
211.9022	0.5167	FIXCROSS	n/a	n/a	n/a	n/a	n/a	n/a	n/a	n/a
212.4188	0.35	INK	61	Neutral	xxxxxxxxx	xxxxxxxxx	zielony	green	hit	n/a
212.7372	n/a	RESPONSE	n/a	n/a	n/a	n/a	n/a	n/a	n/a	green
212.7688	1.0167	ITI	n/a	n/a	n/a	n/a	n/a	n/a	n/a	n/a
213.7855	0.5167	FIXCROSS	n/a	n/a	n/a	n/a	n/a	n/a	n/a	n/a
214.3022	0.4167	INK	62	Neutral	xxxxx	xxxxx	czerwony	red	incorrect	n/a
214.6888	n/a	RESPONSE	n/a	n/a	n/a	n/a	n/a	n/a	n/a	yellow
214.7189	1.0167	ITI	n/a	n/a	n/a	n/a	n/a	n/a	n/a	n/a
215.7355	0.5167	FIXCROSS	n/a	n/a	n/a	n/a	n/a	n/a	n/a	n/a
216.2522	0.7333	INK	63	Incongruent	zielony	green	niebieski	blue	hit	n/a
216.9602	n/a	RESPONSE	n/a	n/a	n/a	n/a	n/a	n/a	n/a	blue
216.9856	1.0167	ITI	n/a	n/a	n/a	n/a	n/a	n/a	n/a	n/a
218.0022	0.5167	FIXCROSS	n/a	n/a	n/a	n/a	n/a	n/a	n/a	n/a
218.5189	0.6	INK	64	Incongruent	żółty	yellow	niebieski	blue	hit	n/a
219.0877	n/a	RESPONSE	n/a	n/a	n/a	n/a	n/a	n/a	n/a	blue
219.1189	1.0167	ITI	n/a	n/a	n/a	n/a	n/a	n/a	n/a	n/a
220.1356	0.5167	FIXCROSS	n/a	n/a	n/a	n/a	n/a	n/a	n/a	n/a
220.6523	0.4	INK	65	Incongruent	czerwony	red	niebieski	blue	hit	n/a
221.0232	n/a	RESPONSE	n/a	n/a	n/a	n/a	n/a	n/a	n/a	blue
221.0523	1.0167	ITI	n/a	n/a	n/a	n/a	n/a	n/a	n/a	n/a
222.069	0.5167	FIXCROSS	n/a	n/a	n/a	n/a	n/a	n/a	n/a	n/a
222.5856	0.8	INK	66	Neutral	xxxxxxxxx	xxxxxxxxx	żółty	yellow	hit	n/a
223.3587	n/a	RESPONSE	n/a	n/a	n/a	n/a	n/a	n/a	n/a	yellow
223.3856	1.0167	ITI	n/a	n/a	n/a	n/a	n/a	n/a	n/a	n/a
224.4023	0.5167	FIXCROSS	n/a	n/a	n/a	n/a	n/a	n/a	n/a	n/a
224.919	0.65	INK	67	Neutral	xxxxxxx	xxxxxxx	niebieski	blue	hit	n/a
225.5501	n/a	RESPONSE	n/a	n/a	n/a	n/a	n/a	n/a	n/a	blue
225.569	1.0167	ITI	n/a	n/a	n/a	n/a	n/a	n/a	n/a	n/a
226.5857	0.5167	FIXCROSS	n/a	n/a	n/a	n/a	n/a	n/a	n/a	n/a
227.1023	0.7	INK	68	Incongruent	żółty	yellow	zielony	green	hit	n/a
227.7736	n/a	RESPONSE	n/a	n/a	n/a	n/a	n/a	n/a	n/a	green
227.8024	1.0167	ITI	n/a	n/a	n/a	n/a	n/a	n/a	n/a	n/a
228.819	0.5167	FIXCROSS	n/a	n/a	n/a	n/a	n/a	n/a	n/a	n/a
229.3357	0.3833	INK	69	Incongruent	niebieski	blue	czerwony	red	hit	n/a
229.6931	n/a	RESPONSE	n/a	n/a	n/a	n/a	n/a	n/a	n/a	red
229.719	1.0167	ITI	n/a	n/a	n/a	n/a	n/a	n/a	n/a	n/a
230.7357	0.5167	FIXCROSS	n/a	n/a	n/a	n/a	n/a	n/a	n/a	n/a
231.2524	0.35	INK	70	Incongruent	niebieski	blue	czerwony	red	hit	n/a
231.5807	n/a	RESPONSE	n/a	n/a	n/a	n/a	n/a	n/a	n/a	red
231.6024	1.0167	ITI	n/a	n/a	n/a	n/a	n/a	n/a	n/a	n/a
232.6191	0.5167	FIXCROSS	n/a	n/a	n/a	n/a	n/a	n/a	n/a	n/a
233.1358	0.65	INK	71	Neutral	xxxxxxxx	xxxxxxxx	niebieski	blue	hit	n/a
233.7561	n/a	RESPONSE	n/a	n/a	n/a	n/a	n/a	n/a	n/a	blue
233.7858	1.0167	ITI	n/a	n/a	n/a	n/a	n/a	n/a	n/a	n/a
234.8024	0.5167	FIXCROSS	n/a	n/a	n/a	n/a	n/a	n/a	n/a	n/a
235.3191	0.4167	INK	72	Incongruent	żółty	yellow	niebieski	blue	hit	n/a
235.7077	n/a	RESPONSE	n/a	n/a	n/a	n/a	n/a	n/a	n/a	blue
235.7358	1.0833	ITI	n/a	n/a	n/a	n/a	n/a	n/a	n/a	n/a
249.9922	n/a	RESPONSE	n/a	n/a	n/a	n/a	n/a	n/a	n/a	n/a
250.0526	1.0167	ITI	n/a	n/a	n/a	n/a	n/a	n/a	n/a	n/a
251.0693	0.5167	FIXCROSS	n/a	n/a	n/a	n/a	n/a	n/a	n/a	n/a
251.586	0.85	T_COLOR_NAME	1	Neutral	żółty	yellow	Neutral	Neutral	hit	n/a
252.4076	n/a	RESPONSE	n/a	n/a	n/a	n/a	n/a	n/a	n/a	yellow
252.436	0.5167	FEEDBACK	n/a	n/a	n/a	n/a	n/a	n/a	n/a	n/a
252.9526	1.0167	ITI	n/a	n/a	n/a	n/a	n/a	n/a	n/a	n/a
253.9693	0.5167	FIXCROSS	n/a	n/a	n/a	n/a	n/a	n/a	n/a	n/a
254.486	1.35	T_COLOR_NAME	2	Incongruent	czerwony	red	niebieski	blue	hit	n/a
255.8148	n/a	RESPONSE	n/a	n/a	n/a	n/a	n/a	n/a	n/a	red
255.836	0.5167	FEEDBACK	n/a	n/a	n/a	n/a	n/a	n/a	n/a	n/a
256.3527	1.0167	ITI	n/a	n/a	n/a	n/a	n/a	n/a	n/a	n/a
257.3694	0.5167	FIXCROSS	n/a	n/a	n/a	n/a	n/a	n/a	n/a	n/a
257.886	0.5667	T_COLOR_NAME	3	Neutral	niebieski	blue	Neutral	Neutral	hit	n/a
258.4221	n/a	RESPONSE	n/a	n/a	n/a	n/a	n/a	n/a	n/a	blue
258.4527	0.5167	FEEDBACK	n/a	n/a	n/a	n/a	n/a	n/a	n/a	n/a
258.9694	1.0167	ITI	n/a	n/a	n/a	n/a	n/a	n/a	n/a	n/a
259.9861	0.5167	FIXCROSS	n/a	n/a	n/a	n/a	n/a	n/a	n/a	n/a
260.5027	0.7333	T_COLOR_NAME	4	Incongruent	czerwony	red	żółty	yellow	hit	n/a
261.2055	n/a	RESPONSE	n/a	n/a	n/a	n/a	n/a	n/a	n/a	red
261.2361	0.5167	FEEDBACK	n/a	n/a	n/a	n/a	n/a	n/a	n/a	n/a
261.7527	1.0167	ITI	n/a	n/a	n/a	n/a	n/a	n/a	n/a	n/a
262.7694	0.5167	FIXCROSS	n/a	n/a	n/a	n/a	n/a	n/a	n/a	n/a
263.2861	0.4333	T_COLOR_NAME	5	Neutral	czerwony	red	Neutral	Neutral	hit	n/a
263.6848	n/a	RESPONSE	n/a	n/a	n/a	n/a	n/a	n/a	n/a	red
263.7194	0.5167	FEEDBACK	n/a	n/a	n/a	n/a	n/a	n/a	n/a	n/a
264.2361	1.0167	ITI	n/a	n/a	n/a	n/a	n/a	n/a	n/a	n/a
265.2528	0.5167	FIXCROSS	n/a	n/a	n/a	n/a	n/a	n/a	n/a	n/a
265.7695	0.8334	T_COLOR_NAME	6	Incongruent	niebieski	blue	żółty	yellow	hit	n/a
266.5801	n/a	RESPONSE	n/a	n/a	n/a	n/a	n/a	n/a	n/a	blue
266.6028	0.5167	FEEDBACK	n/a	n/a	n/a	n/a	n/a	n/a	n/a	n/a
267.1195	1.0167	ITI	n/a	n/a	n/a	n/a	n/a	n/a	n/a	n/a
268.1362	0.5167	FIXCROSS	n/a	n/a	n/a	n/a	n/a	n/a	n/a	n/a
268.6528	0.6833	T_COLOR_NAME	7	Incongruent	żółty	yellow	zielony	green	hit	n/a
269.2994	n/a	RESPONSE	n/a	n/a	n/a	n/a	n/a	n/a	n/a	yellow
269.3362	0.5167	FEEDBACK	n/a	n/a	n/a	n/a	n/a	n/a	n/a	n/a
269.8529	1.0167	ITI	n/a	n/a	n/a	n/a	n/a	n/a	n/a	n/a
270.8695	0.5167	FIXCROSS	n/a	n/a	n/a	n/a	n/a	n/a	n/a	n/a
271.3862	0.4667	T_COLOR_NAME	8	Incongruent	żółty	yellow	czerwony	red	hit	n/a
271.8268	n/a	RESPONSE	n/a	n/a	n/a	n/a	n/a	n/a	n/a	yellow
271.8529	0.5167	FEEDBACK	n/a	n/a	n/a	n/a	n/a	n/a	n/a	n/a
272.3695	1.0167	ITI	n/a	n/a	n/a	n/a	n/a	n/a	n/a	n/a
273.3862	0.5167	FIXCROSS	n/a	n/a	n/a	n/a	n/a	n/a	n/a	n/a
273.9029	0.6667	T_COLOR_NAME	9	Incongruent	niebieski	blue	zielony	green	hit	n/a
274.5462	n/a	RESPONSE	n/a	n/a	n/a	n/a	n/a	n/a	n/a	blue
274.5696	0.5167	FEEDBACK	n/a	n/a	n/a	n/a	n/a	n/a	n/a	n/a
275.0862	1.0167	ITI	n/a	n/a	n/a	n/a	n/a	n/a	n/a	n/a
276.1029	0.5167	FIXCROSS	n/a	n/a	n/a	n/a	n/a	n/a	n/a	n/a
276.6196	0.55	T_COLOR_NAME	10	Incongruent	niebieski	blue	czerwony	red	hit	n/a
277.1375	n/a	RESPONSE	n/a	n/a	n/a	n/a	n/a	n/a	n/a	blue
277.1696	0.5167	FEEDBACK	n/a	n/a	n/a	n/a	n/a	n/a	n/a	n/a
277.6863	1.0167	ITI	n/a	n/a	n/a	n/a	n/a	n/a	n/a	n/a
278.703	0.5167	FIXCROSS	n/a	n/a	n/a	n/a	n/a	n/a	n/a	n/a
279.2196	1.2	T_COLOR_NAME	11	Incongruent	żółty	yellow	niebieski	blue	hit	n/a
280.4007	n/a	RESPONSE	n/a	n/a	n/a	n/a	n/a	n/a	n/a	yellow
280.4196	0.5167	FEEDBACK	n/a	n/a	n/a	n/a	n/a	n/a	n/a	n/a
280.9363	1.0167	ITI	n/a	n/a	n/a	n/a	n/a	n/a	n/a	n/a
281.953	0.5167	FIXCROSS	n/a	n/a	n/a	n/a	n/a	n/a	n/a	n/a
282.4697	0.8	T_COLOR_NAME	12	Incongruent	czerwony	red	zielony	green	hit	n/a
283.2481	n/a	RESPONSE	n/a	n/a	n/a	n/a	n/a	n/a	n/a	red
283.2697	0.5167	FEEDBACK	n/a	n/a	n/a	n/a	n/a	n/a	n/a	n/a
283.7863	1.0333	ITI	n/a	n/a	n/a	n/a	n/a	n/a	n/a	n/a
290.6703	n/a	RESPONSE	n/a	n/a	n/a	n/a	n/a	n/a	n/a	n/a
290.7364	1.0167	ITI	n/a	n/a	n/a	n/a	n/a	n/a	n/a	n/a
291.7531	0.5167	FIXCROSS	n/a	n/a	n/a	n/a	n/a	n/a	n/a	n/a
292.2698	1.0167	COLOR_NAME	1	Incongruent	czerwony	red	żółty	yellow	hit	n/a
293.2616	n/a	RESPONSE	n/a	n/a	n/a	n/a	n/a	n/a	n/a	red
293.2865	1.0167	ITI	n/a	n/a	n/a	n/a	n/a	n/a	n/a	n/a
294.3031	0.5167	FIXCROSS	n/a	n/a	n/a	n/a	n/a	n/a	n/a	n/a
294.8198	0.7	COLOR_NAME	2	Neutral	niebieski	blue	Neutral	Neutral	hit	n/a
295.5011	n/a	RESPONSE	n/a	n/a	n/a	n/a	n/a	n/a	n/a	blue
295.5198	1.0167	ITI	n/a	n/a	n/a	n/a	n/a	n/a	n/a	n/a
296.5365	0.5167	FIXCROSS	n/a	n/a	n/a	n/a	n/a	n/a	n/a	n/a
297.0532	0.5833	COLOR_NAME	3	Neutral	czerwony	red	Neutral	Neutral	hit	n/a
297.6126	n/a	RESPONSE	n/a	n/a	n/a	n/a	n/a	n/a	n/a	red
297.6365	1.0167	ITI	n/a	n/a	n/a	n/a	n/a	n/a	n/a	n/a
298.6532	0.5167	FIXCROSS	n/a	n/a	n/a	n/a	n/a	n/a	n/a	n/a
299.1699	0.75	COLOR_NAME	4	Incongruent	żółty	yellow	czerwony	red	hit	n/a
299.884	n/a	RESPONSE	n/a	n/a	n/a	n/a	n/a	n/a	n/a	yellow
299.9199	1.0167	ITI	n/a	n/a	n/a	n/a	n/a	n/a	n/a	n/a
300.9365	0.5167	FIXCROSS	n/a	n/a	n/a	n/a	n/a	n/a	n/a	n/a
301.4532	0.4833	COLOR_NAME	5	Neutral	czerwony	red	Neutral	Neutral	incorrect	n/a
301.9155	n/a	RESPONSE	n/a	n/a	n/a	n/a	n/a	n/a	n/a	blue
301.9366	1.0167	ITI	n/a	n/a	n/a	n/a	n/a	n/a	n/a	n/a
302.9532	0.5167	FIXCROSS	n/a	n/a	n/a	n/a	n/a	n/a	n/a	n/a
303.4699	0.7167	COLOR_NAME	6	Incongruent	czerwony	red	żółty	yellow	hit	n/a
304.1549	n/a	RESPONSE	n/a	n/a	n/a	n/a	n/a	n/a	n/a	red
304.1866	1.0167	ITI	n/a	n/a	n/a	n/a	n/a	n/a	n/a	n/a
305.2033	0.5167	FIXCROSS	n/a	n/a	n/a	n/a	n/a	n/a	n/a	n/a
305.7199	0.8667	COLOR_NAME	7	Incongruent	zielony	green	czerwony	red	hit	n/a
306.5544	n/a	RESPONSE	n/a	n/a	n/a	n/a	n/a	n/a	n/a	green
306.5866	1.0167	ITI	n/a	n/a	n/a	n/a	n/a	n/a	n/a	n/a
307.6033	0.5167	FIXCROSS	n/a	n/a	n/a	n/a	n/a	n/a	n/a	n/a
308.12	0.7167	COLOR_NAME	8	Neutral	żółty	yellow	Neutral	Neutral	hit	n/a
308.8098	n/a	RESPONSE	n/a	n/a	n/a	n/a	n/a	n/a	n/a	yellow
308.8366	1.0167	ITI	n/a	n/a	n/a	n/a	n/a	n/a	n/a	n/a
309.8533	0.5167	FIXCROSS	n/a	n/a	n/a	n/a	n/a	n/a	n/a	n/a
310.37	0.6333	COLOR_NAME	9	Incongruent	czerwony	red	zielony	green	hit	n/a
310.9853	n/a	RESPONSE	n/a	n/a	n/a	n/a	n/a	n/a	n/a	red
311.0033	1.0167	ITI	n/a	n/a	n/a	n/a	n/a	n/a	n/a	n/a
312.02	0.5167	FIXCROSS	n/a	n/a	n/a	n/a	n/a	n/a	n/a	n/a
312.5367	1.2	COLOR_NAME	10	Incongruent	zielony	green	czerwony	red	hit	n/a
313.7046	n/a	RESPONSE	n/a	n/a	n/a	n/a	n/a	n/a	n/a	green
313.7367	1.0167	ITI	n/a	n/a	n/a	n/a	n/a	n/a	n/a	n/a
314.7534	0.5167	FIXCROSS	n/a	n/a	n/a	n/a	n/a	n/a	n/a	n/a
315.27	0.65	COLOR_NAME	11	Incongruent	czerwony	red	zielony	green	hit	n/a
315.8961	n/a	RESPONSE	n/a	n/a	n/a	n/a	n/a	n/a	n/a	red
315.92	1.0167	ITI	n/a	n/a	n/a	n/a	n/a	n/a	n/a	n/a
316.9367	0.5167	FIXCROSS	n/a	n/a	n/a	n/a	n/a	n/a	n/a	n/a
317.4534	0.6833	COLOR_NAME	12	Incongruent	żółty	yellow	niebieski	blue	hit	n/a
318.1035	n/a	RESPONSE	n/a	n/a	n/a	n/a	n/a	n/a	n/a	yellow
318.1367	1.0167	ITI	n/a	n/a	n/a	n/a	n/a	n/a	n/a	n/a
319.1534	0.5167	FIXCROSS	n/a	n/a	n/a	n/a	n/a	n/a	n/a	n/a
319.6701	0.4667	COLOR_NAME	13	Neutral	zielony	green	Neutral	Neutral	hit	n/a
320.103	n/a	RESPONSE	n/a	n/a	n/a	n/a	n/a	n/a	n/a	green
320.1368	1.0167	ITI	n/a	n/a	n/a	n/a	n/a	n/a	n/a	n/a
321.1534	0.5167	FIXCROSS	n/a	n/a	n/a	n/a	n/a	n/a	n/a	n/a
321.6701	1.0	COLOR_NAME	14	Neutral	niebieski	blue	Neutral	Neutral	hit	n/a
322.6464	n/a	RESPONSE	n/a	n/a	n/a	n/a	n/a	n/a	n/a	blue
322.6701	1.0167	ITI	n/a	n/a	n/a	n/a	n/a	n/a	n/a	n/a
323.6868	0.5167	FIXCROSS	n/a	n/a	n/a	n/a	n/a	n/a	n/a	n/a
324.2035	0.55	COLOR_NAME	15	Incongruent	czerwony	red	niebieski	blue	hit	n/a
324.726	n/a	RESPONSE	n/a	n/a	n/a	n/a	n/a	n/a	n/a	red
324.7535	1.0167	ITI	n/a	n/a	n/a	n/a	n/a	n/a	n/a	n/a
325.7702	0.5167	FIXCROSS	n/a	n/a	n/a	n/a	n/a	n/a	n/a	n/a
326.2868	0.5167	COLOR_NAME	16	Neutral	żółty	yellow	Neutral	Neutral	hit	n/a
326.7734	n/a	RESPONSE	n/a	n/a	n/a	n/a	n/a	n/a	n/a	yellow
326.8035	1.0167	ITI	n/a	n/a	n/a	n/a	n/a	n/a	n/a	n/a
327.8202	0.5167	FIXCROSS	n/a	n/a	n/a	n/a	n/a	n/a	n/a	n/a
328.3369	0.6667	COLOR_NAME	17	Neutral	żółty	yellow	Neutral	Neutral	hit	n/a
328.981	n/a	RESPONSE	n/a	n/a	n/a	n/a	n/a	n/a	n/a	yellow
329.0035	1.0167	ITI	n/a	n/a	n/a	n/a	n/a	n/a	n/a	n/a
330.0202	0.5167	FIXCROSS	n/a	n/a	n/a	n/a	n/a	n/a	n/a	n/a
330.5369	0.6333	COLOR_NAME	18	Neutral	zielony	green	Neutral	Neutral	hit	n/a
331.1404	n/a	RESPONSE	n/a	n/a	n/a	n/a	n/a	n/a	n/a	green
331.1702	1.0167	ITI	n/a	n/a	n/a	n/a	n/a	n/a	n/a	n/a
332.1869	0.5167	FIXCROSS	n/a	n/a	n/a	n/a	n/a	n/a	n/a	n/a
332.7036	0.4667	COLOR_NAME	19	Incongruent	niebieski	blue	zielony	green	hit	n/a
333.1399	n/a	RESPONSE	n/a	n/a	n/a	n/a	n/a	n/a	n/a	blue
333.1702	1.0167	ITI	n/a	n/a	n/a	n/a	n/a	n/a	n/a	n/a
334.1869	0.5167	FIXCROSS	n/a	n/a	n/a	n/a	n/a	n/a	n/a	n/a
334.7036	0.35	COLOR_NAME	20	Incongruent	czerwony	red	zielony	green	hit	n/a
335.0274	n/a	RESPONSE	n/a	n/a	n/a	n/a	n/a	n/a	n/a	red
335.0536	1.0167	ITI	n/a	n/a	n/a	n/a	n/a	n/a	n/a	n/a
336.0703	0.5167	FIXCROSS	n/a	n/a	n/a	n/a	n/a	n/a	n/a	n/a
336.587	0.5333	COLOR_NAME	21	Neutral	czerwony	red	Neutral	Neutral	hit	n/a
337.0909	n/a	RESPONSE	n/a	n/a	n/a	n/a	n/a	n/a	n/a	red
337.1203	1.0167	ITI	n/a	n/a	n/a	n/a	n/a	n/a	n/a	n/a
338.137	0.5167	FIXCROSS	n/a	n/a	n/a	n/a	n/a	n/a	n/a	n/a
338.6536	0.4667	COLOR_NAME	22	Neutral	niebieski	blue	Neutral	Neutral	hit	n/a
339.0904	n/a	RESPONSE	n/a	n/a	n/a	n/a	n/a	n/a	n/a	blue
339.1203	1.0167	ITI	n/a	n/a	n/a	n/a	n/a	n/a	n/a	n/a
340.137	0.5167	FIXCROSS	n/a	n/a	n/a	n/a	n/a	n/a	n/a	n/a
340.6537	0.4667	COLOR_NAME	23	Neutral	zielony	green	Neutral	Neutral	hit	n/a
341.0899	n/a	RESPONSE	n/a	n/a	n/a	n/a	n/a	n/a	n/a	green
341.1203	1.0167	ITI	n/a	n/a	n/a	n/a	n/a	n/a	n/a	n/a
342.137	0.5167	FIXCROSS	n/a	n/a	n/a	n/a	n/a	n/a	n/a	n/a
342.6537	1.0667	COLOR_NAME	24	Incongruent	niebieski	blue	zielony	green	hit	n/a
343.6973	n/a	RESPONSE	n/a	n/a	n/a	n/a	n/a	n/a	n/a	blue
343.7204	1.0167	ITI	n/a	n/a	n/a	n/a	n/a	n/a	n/a	n/a
344.737	0.5167	FIXCROSS	n/a	n/a	n/a	n/a	n/a	n/a	n/a	n/a
345.2537	0.5	COLOR_NAME	25	Neutral	niebieski	blue	Neutral	Neutral	hit	n/a
345.7288	n/a	RESPONSE	n/a	n/a	n/a	n/a	n/a	n/a	n/a	blue
345.7537	1.0167	ITI	n/a	n/a	n/a	n/a	n/a	n/a	n/a	n/a
346.7704	0.5167	FIXCROSS	n/a	n/a	n/a	n/a	n/a	n/a	n/a	n/a
347.2871	0.7333	COLOR_NAME	26	Incongruent	zielony	green	niebieski	blue	hit	n/a
348.0003	n/a	RESPONSE	n/a	n/a	n/a	n/a	n/a	n/a	n/a	green
348.0204	1.0167	ITI	n/a	n/a	n/a	n/a	n/a	n/a	n/a	n/a
349.0371	0.5167	FIXCROSS	n/a	n/a	n/a	n/a	n/a	n/a	n/a	n/a
349.5538	0.6167	COLOR_NAME	27	Incongruent	niebieski	blue	czerwony	red	hit	n/a
350.1438	n/a	RESPONSE	n/a	n/a	n/a	n/a	n/a	n/a	n/a	blue
350.1704	1.0167	ITI	n/a	n/a	n/a	n/a	n/a	n/a	n/a	n/a
351.1871	0.5167	FIXCROSS	n/a	n/a	n/a	n/a	n/a	n/a	n/a	n/a
351.7038	0.4833	COLOR_NAME	28	Neutral	niebieski	blue	Neutral	Neutral	hit	n/a
352.1592	n/a	RESPONSE	n/a	n/a	n/a	n/a	n/a	n/a	n/a	blue
352.1871	1.0167	ITI	n/a	n/a	n/a	n/a	n/a	n/a	n/a	n/a
353.2038	0.5167	FIXCROSS	n/a	n/a	n/a	n/a	n/a	n/a	n/a	n/a
353.7205	0.6	COLOR_NAME	29	Incongruent	żółty	yellow	zielony	green	hit	n/a
354.3028	n/a	RESPONSE	n/a	n/a	n/a	n/a	n/a	n/a	n/a	yellow
354.3205	1.0167	ITI	n/a	n/a	n/a	n/a	n/a	n/a	n/a	n/a
355.3372	0.5167	FIXCROSS	n/a	n/a	n/a	n/a	n/a	n/a	n/a	n/a
355.8538	0.6	COLOR_NAME	30	Incongruent	zielony	green	niebieski	blue	hit	n/a
356.4302	n/a	RESPONSE	n/a	n/a	n/a	n/a	n/a	n/a	n/a	green
356.4538	1.0167	ITI	n/a	n/a	n/a	n/a	n/a	n/a	n/a	n/a
357.4705	0.5167	FIXCROSS	n/a	n/a	n/a	n/a	n/a	n/a	n/a	n/a
357.9872	0.4833	COLOR_NAME	31	Neutral	zielony	green	Neutral	Neutral	hit	n/a
358.4457	n/a	RESPONSE	n/a	n/a	n/a	n/a	n/a	n/a	n/a	green
358.4705	1.0167	ITI	n/a	n/a	n/a	n/a	n/a	n/a	n/a	n/a
359.4872	0.5167	FIXCROSS	n/a	n/a	n/a	n/a	n/a	n/a	n/a	n/a
360.0039	0.4167	COLOR_NAME	32	Incongruent	czerwony	red	żółty	yellow	hit	n/a
360.3972	n/a	RESPONSE	n/a	n/a	n/a	n/a	n/a	n/a	n/a	red
360.4206	1.0167	ITI	n/a	n/a	n/a	n/a	n/a	n/a	n/a	n/a
361.4372	0.5167	FIXCROSS	n/a	n/a	n/a	n/a	n/a	n/a	n/a	n/a
361.9539	0.7	COLOR_NAME	33	Neutral	zielony	green	Neutral	Neutral	hit	n/a
362.6367	n/a	RESPONSE	n/a	n/a	n/a	n/a	n/a	n/a	n/a	green
362.6539	1.0167	ITI	n/a	n/a	n/a	n/a	n/a	n/a	n/a	n/a
363.6706	0.5167	FIXCROSS	n/a	n/a	n/a	n/a	n/a	n/a	n/a	n/a
364.1873	1.2667	COLOR_NAME	34	Neutral	niebieski	blue	Neutral	Neutral	hit	n/a
365.436	n/a	RESPONSE	n/a	n/a	n/a	n/a	n/a	n/a	n/a	blue
365.454	1.0167	ITI	n/a	n/a	n/a	n/a	n/a	n/a	n/a	n/a
366.4706	0.5167	FIXCROSS	n/a	n/a	n/a	n/a	n/a	n/a	n/a	n/a
366.9873	0.6	COLOR_NAME	35	Neutral	żółty	yellow	Neutral	Neutral	hit	n/a
367.5635	n/a	RESPONSE	n/a	n/a	n/a	n/a	n/a	n/a	n/a	yellow
367.5873	1.0167	ITI	n/a	n/a	n/a	n/a	n/a	n/a	n/a	n/a
368.604	0.5167	FIXCROSS	n/a	n/a	n/a	n/a	n/a	n/a	n/a	n/a
369.1207	0.6667	COLOR_NAME	36	Neutral	zielony	green	Neutral	Neutral	hit	n/a
369.7549	n/a	RESPONSE	n/a	n/a	n/a	n/a	n/a	n/a	n/a	green
369.7873	1.0167	ITI	n/a	n/a	n/a	n/a	n/a	n/a	n/a	n/a
370.804	0.5167	FIXCROSS	n/a	n/a	n/a	n/a	n/a	n/a	n/a	n/a
371.3207	0.7833	COLOR_NAME	37	Incongruent	żółty	yellow	czerwony	red	hit	n/a
372.0744	n/a	RESPONSE	n/a	n/a	n/a	n/a	n/a	n/a	n/a	yellow
372.104	1.0167	ITI	n/a	n/a	n/a	n/a	n/a	n/a	n/a	n/a
373.1207	0.5167	FIXCROSS	n/a	n/a	n/a	n/a	n/a	n/a	n/a	n/a
373.6374	0.7333	COLOR_NAME	38	Neutral	żółty	yellow	Neutral	Neutral	hit	n/a
374.3458	n/a	RESPONSE	n/a	n/a	n/a	n/a	n/a	n/a	n/a	yellow
374.3707	1.0167	ITI	n/a	n/a	n/a	n/a	n/a	n/a	n/a	n/a
375.3874	0.5167	FIXCROSS	n/a	n/a	n/a	n/a	n/a	n/a	n/a	n/a
375.9041	0.8667	COLOR_NAME	39	Incongruent	zielony	green	czerwony	red	incorrect	n/a
376.7452	n/a	RESPONSE	n/a	n/a	n/a	n/a	n/a	n/a	n/a	blue
376.7707	1.0167	ITI	n/a	n/a	n/a	n/a	n/a	n/a	n/a	n/a
377.7874	0.5167	FIXCROSS	n/a	n/a	n/a	n/a	n/a	n/a	n/a	n/a
378.3041	0.75	COLOR_NAME	40	Incongruent	czerwony	red	niebieski	blue	hit	n/a
379.0327	n/a	RESPONSE	n/a	n/a	n/a	n/a	n/a	n/a	n/a	red
379.0541	1.0167	ITI	n/a	n/a	n/a	n/a	n/a	n/a	n/a	n/a
380.0708	0.5167	FIXCROSS	n/a	n/a	n/a	n/a	n/a	n/a	n/a	n/a
380.5875	0.75	COLOR_NAME	41	Incongruent	żółty	yellow	czerwony	red	hit	n/a
381.3041	n/a	RESPONSE	n/a	n/a	n/a	n/a	n/a	n/a	n/a	yellow
381.3375	1.0167	ITI	n/a	n/a	n/a	n/a	n/a	n/a	n/a	n/a
382.3541	0.5167	FIXCROSS	n/a	n/a	n/a	n/a	n/a	n/a	n/a	n/a
382.8708	0.8833	COLOR_NAME	42	Neutral	czerwony	red	Neutral	Neutral	hit	n/a
383.7355	n/a	RESPONSE	n/a	n/a	n/a	n/a	n/a	n/a	n/a	red
383.7542	1.0167	ITI	n/a	n/a	n/a	n/a	n/a	n/a	n/a	n/a
384.7708	0.5167	FIXCROSS	n/a	n/a	n/a	n/a	n/a	n/a	n/a	n/a
385.2875	0.4167	COLOR_NAME	43	Incongruent	czerwony	red	niebieski	blue	hit	n/a
385.6711	n/a	RESPONSE	n/a	n/a	n/a	n/a	n/a	n/a	n/a	red
385.7042	1.0167	ITI	n/a	n/a	n/a	n/a	n/a	n/a	n/a	n/a
386.7209	0.5167	FIXCROSS	n/a	n/a	n/a	n/a	n/a	n/a	n/a	n/a
387.2375	0.4	COLOR_NAME	44	Neutral	czerwony	red	Neutral	Neutral	hit	n/a
387.6066	n/a	RESPONSE	n/a	n/a	n/a	n/a	n/a	n/a	n/a	red
387.6375	1.0167	ITI	n/a	n/a	n/a	n/a	n/a	n/a	n/a	n/a
388.6542	0.5167	FIXCROSS	n/a	n/a	n/a	n/a	n/a	n/a	n/a	n/a
389.1709	0.6667	COLOR_NAME	45	Neutral	żółty	yellow	Neutral	Neutral	hit	n/a
389.8141	n/a	RESPONSE	n/a	n/a	n/a	n/a	n/a	n/a	n/a	yellow
389.8376	1.0167	ITI	n/a	n/a	n/a	n/a	n/a	n/a	n/a	n/a
390.8543	0.5167	FIXCROSS	n/a	n/a	n/a	n/a	n/a	n/a	n/a	n/a
391.3709	0.5833	COLOR_NAME	46	Incongruent	żółty	yellow	niebieski	blue	hit	n/a
391.9255	n/a	RESPONSE	n/a	n/a	n/a	n/a	n/a	n/a	n/a	yellow
391.9543	1.0167	ITI	n/a	n/a	n/a	n/a	n/a	n/a	n/a	n/a
392.9709	0.5167	FIXCROSS	n/a	n/a	n/a	n/a	n/a	n/a	n/a	n/a
393.4876	0.9167	COLOR_NAME	47	Neutral	niebieski	blue	Neutral	Neutral	hit	n/a
394.3729	n/a	RESPONSE	n/a	n/a	n/a	n/a	n/a	n/a	n/a	blue
394.4043	1.0167	ITI	n/a	n/a	n/a	n/a	n/a	n/a	n/a	n/a
395.421	0.5167	FIXCROSS	n/a	n/a	n/a	n/a	n/a	n/a	n/a	n/a
395.9376	0.5	COLOR_NAME	48	Neutral	zielony	green	Neutral	Neutral	hit	n/a
396.4044	n/a	RESPONSE	n/a	n/a	n/a	n/a	n/a	n/a	n/a	green
396.4376	1.0167	ITI	n/a	n/a	n/a	n/a	n/a	n/a	n/a	n/a
397.4543	0.5167	FIXCROSS	n/a	n/a	n/a	n/a	n/a	n/a	n/a	n/a
397.971	0.4333	COLOR_NAME	49	Neutral	zielony	green	Neutral	Neutral	hit	n/a
398.372	n/a	RESPONSE	n/a	n/a	n/a	n/a	n/a	n/a	n/a	green
398.4043	1.0167	ITI	n/a	n/a	n/a	n/a	n/a	n/a	n/a	n/a
399.421	0.5167	FIXCROSS	n/a	n/a	n/a	n/a	n/a	n/a	n/a	n/a
399.9377	0.65	COLOR_NAME	50	Incongruent	żółty	yellow	niebieski	blue	hit	n/a
400.5634	n/a	RESPONSE	n/a	n/a	n/a	n/a	n/a	n/a	n/a	yellow
400.5877	1.0167	ITI	n/a	n/a	n/a	n/a	n/a	n/a	n/a	n/a
401.6044	0.5167	FIXCROSS	n/a	n/a	n/a	n/a	n/a	n/a	n/a	n/a
402.121	0.6833	COLOR_NAME	51	Incongruent	zielony	green	żółty	yellow	hit	n/a
402.7709	n/a	RESPONSE	n/a	n/a	n/a	n/a	n/a	n/a	n/a	green
402.8044	1.0167	ITI	n/a	n/a	n/a	n/a	n/a	n/a	n/a	n/a
403.8211	0.5167	FIXCROSS	n/a	n/a	n/a	n/a	n/a	n/a	n/a	n/a
404.3377	0.65	COLOR_NAME	52	Neutral	czerwony	red	Neutral	Neutral	hit	n/a
404.9624	n/a	RESPONSE	n/a	n/a	n/a	n/a	n/a	n/a	n/a	red
404.9877	1.0167	ITI	n/a	n/a	n/a	n/a	n/a	n/a	n/a	n/a
406.0044	0.5167	FIXCROSS	n/a	n/a	n/a	n/a	n/a	n/a	n/a	n/a
406.5211	0.8667	COLOR_NAME	53	Incongruent	niebieski	blue	żółty	yellow	hit	n/a
407.3618	n/a	RESPONSE	n/a	n/a	n/a	n/a	n/a	n/a	n/a	blue
407.3878	1.0167	ITI	n/a	n/a	n/a	n/a	n/a	n/a	n/a	n/a
408.4045	0.5167	FIXCROSS	n/a	n/a	n/a	n/a	n/a	n/a	n/a	n/a
408.9211	0.45	COLOR_NAME	54	Neutral	żółty	yellow	Neutral	Neutral	hit	n/a
409.3453	n/a	RESPONSE	n/a	n/a	n/a	n/a	n/a	n/a	n/a	yellow
409.3711	1.0167	ITI	n/a	n/a	n/a	n/a	n/a	n/a	n/a	n/a
410.3878	0.5167	FIXCROSS	n/a	n/a	n/a	n/a	n/a	n/a	n/a	n/a
410.9045	1.4333	COLOR_NAME	55	Neutral	niebieski	blue	Neutral	Neutral	hit	n/a
412.3046	n/a	RESPONSE	n/a	n/a	n/a	n/a	n/a	n/a	n/a	blue
412.3378	1.0167	ITI	n/a	n/a	n/a	n/a	n/a	n/a	n/a	n/a
413.3545	0.5167	FIXCROSS	n/a	n/a	n/a	n/a	n/a	n/a	n/a	n/a
413.8712	0.5333	COLOR_NAME	56	Neutral	niebieski	blue	Neutral	Neutral	hit	n/a
414.3841	n/a	RESPONSE	n/a	n/a	n/a	n/a	n/a	n/a	n/a	blue
414.4045	1.0167	ITI	n/a	n/a	n/a	n/a	n/a	n/a	n/a	n/a
415.4212	0.5167	FIXCROSS	n/a	n/a	n/a	n/a	n/a	n/a	n/a	n/a
415.9379	0.4333	COLOR_NAME	57	Incongruent	niebieski	blue	żółty	yellow	hit	n/a
416.3516	n/a	RESPONSE	n/a	n/a	n/a	n/a	n/a	n/a	n/a	blue
416.3712	1.0167	ITI	n/a	n/a	n/a	n/a	n/a	n/a	n/a	n/a
417.3879	0.5167	FIXCROSS	n/a	n/a	n/a	n/a	n/a	n/a	n/a	n/a
417.9046	0.85	COLOR_NAME	58	Incongruent	zielony	green	żółty	yellow	hit	n/a
418.719	n/a	RESPONSE	n/a	n/a	n/a	n/a	n/a	n/a	n/a	green
418.7546	1.0167	ITI	n/a	n/a	n/a	n/a	n/a	n/a	n/a	n/a
419.7712	0.5167	FIXCROSS	n/a	n/a	n/a	n/a	n/a	n/a	n/a	n/a
420.2879	0.9667	COLOR_NAME	59	Incongruent	niebieski	blue	czerwony	red	hit	n/a
421.2304	n/a	RESPONSE	n/a	n/a	n/a	n/a	n/a	n/a	n/a	blue
421.2546	1.0167	ITI	n/a	n/a	n/a	n/a	n/a	n/a	n/a	n/a
422.2713	0.5167	FIXCROSS	n/a	n/a	n/a	n/a	n/a	n/a	n/a	n/a
422.7879	0.6	COLOR_NAME	60	Incongruent	niebieski	blue	zielony	green	hit	n/a
423.3579	n/a	RESPONSE	n/a	n/a	n/a	n/a	n/a	n/a	n/a	blue
423.388	1.0167	ITI	n/a	n/a	n/a	n/a	n/a	n/a	n/a	n/a
424.4046	0.5167	FIXCROSS	n/a	n/a	n/a	n/a	n/a	n/a	n/a	n/a
424.9213	0.5167	COLOR_NAME	61	Neutral	czerwony	red	Neutral	Neutral	hit	n/a
425.4054	n/a	RESPONSE	n/a	n/a	n/a	n/a	n/a	n/a	n/a	red
425.438	1.0167	ITI	n/a	n/a	n/a	n/a	n/a	n/a	n/a	n/a
426.4547	0.5167	FIXCROSS	n/a	n/a	n/a	n/a	n/a	n/a	n/a	n/a
426.9713	0.7	COLOR_NAME	62	Neutral	zielony	green	Neutral	Neutral	hit	n/a
427.6448	n/a	RESPONSE	n/a	n/a	n/a	n/a	n/a	n/a	n/a	green
427.6713	1.0167	ITI	n/a	n/a	n/a	n/a	n/a	n/a	n/a	n/a
428.688	0.5167	FIXCROSS	n/a	n/a	n/a	n/a	n/a	n/a	n/a	n/a
429.2047	0.8833	COLOR_NAME	63	Neutral	czerwony	red	Neutral	Neutral	hit	n/a
430.0602	n/a	RESPONSE	n/a	n/a	n/a	n/a	n/a	n/a	n/a	red
430.088	1.0167	ITI	n/a	n/a	n/a	n/a	n/a	n/a	n/a	n/a
431.1047	0.5167	FIXCROSS	n/a	n/a	n/a	n/a	n/a	n/a	n/a	n/a
431.6214	0.8333	COLOR_NAME	64	Incongruent	żółty	yellow	zielony	green	hit	n/a
432.4277	n/a	RESPONSE	n/a	n/a	n/a	n/a	n/a	n/a	n/a	yellow
432.4547	1.0167	ITI	n/a	n/a	n/a	n/a	n/a	n/a	n/a	n/a
433.4714	0.5167	FIXCROSS	n/a	n/a	n/a	n/a	n/a	n/a	n/a	n/a
433.9881	1.15	COLOR_NAME	65	Incongruent	zielony	green	żółty	yellow	hit	n/a
435.115	n/a	RESPONSE	n/a	n/a	n/a	n/a	n/a	n/a	n/a	green
435.1381	1.0167	ITI	n/a	n/a	n/a	n/a	n/a	n/a	n/a	n/a
436.1548	0.5167	FIXCROSS	n/a	n/a	n/a	n/a	n/a	n/a	n/a	n/a
436.6714	0.6333	COLOR_NAME	66	Neutral	żółty	yellow	Neutral	Neutral	hit	n/a
437.2745	n/a	RESPONSE	n/a	n/a	n/a	n/a	n/a	n/a	n/a	yellow
437.3048	1.0167	ITI	n/a	n/a	n/a	n/a	n/a	n/a	n/a	n/a
438.3215	0.5167	FIXCROSS	n/a	n/a	n/a	n/a	n/a	n/a	n/a	n/a
438.8381	0.5167	COLOR_NAME	67	Neutral	czerwony	red	Neutral	Neutral	hit	n/a
439.322	n/a	RESPONSE	n/a	n/a	n/a	n/a	n/a	n/a	n/a	red
439.3548	1.0167	ITI	n/a	n/a	n/a	n/a	n/a	n/a	n/a	n/a
440.3715	0.5167	FIXCROSS	n/a	n/a	n/a	n/a	n/a	n/a	n/a	n/a
440.8882	0.9	COLOR_NAME	68	Incongruent	zielony	green	niebieski	blue	hit	n/a
441.7694	n/a	RESPONSE	n/a	n/a	n/a	n/a	n/a	n/a	n/a	green
441.7882	1.0167	ITI	n/a	n/a	n/a	n/a	n/a	n/a	n/a	n/a
442.8049	0.5167	FIXCROSS	n/a	n/a	n/a	n/a	n/a	n/a	n/a	n/a
443.3215	0.5834	COLOR_NAME	69	Incongruent	żółty	yellow	zielony	green	hit	n/a
443.8809	n/a	RESPONSE	n/a	n/a	n/a	n/a	n/a	n/a	n/a	yellow
443.9049	1.0167	ITI	n/a	n/a	n/a	n/a	n/a	n/a	n/a	n/a
444.9215	0.5167	FIXCROSS	n/a	n/a	n/a	n/a	n/a	n/a	n/a	n/a
445.4382	0.4667	COLOR_NAME	70	Neutral	żółty	yellow	Neutral	Neutral	hit	n/a
445.8804	n/a	RESPONSE	n/a	n/a	n/a	n/a	n/a	n/a	n/a	yellow
445.9049	1.0167	ITI	n/a	n/a	n/a	n/a	n/a	n/a	n/a	n/a
446.9216	0.5167	FIXCROSS	n/a	n/a	n/a	n/a	n/a	n/a	n/a	n/a
447.4382	0.75	COLOR_NAME	71	Incongruent	niebieski	blue	żółty	yellow	incorrect	n/a
448.1678	n/a	RESPONSE	n/a	n/a	n/a	n/a	n/a	n/a	n/a	red
448.1882	1.0167	ITI	n/a	n/a	n/a	n/a	n/a	n/a	n/a	n/a
449.2049	0.5167	FIXCROSS	n/a	n/a	n/a	n/a	n/a	n/a	n/a	n/a
449.7216	0.5333	COLOR_NAME	72	Incongruent	niebieski	blue	czerwony	red	incorrect	n/a
450.2313	n/a	RESPONSE	n/a	n/a	n/a	n/a	n/a	n/a	n/a	red
450.2549	1.0333	ITI	n/a	n/a	n/a	n/a	n/a	n/a	n/a	n/a
454.5662	n/a	RESPONSE	n/a	n/a	n/a	n/a	n/a	n/a	n/a	n/a
