onset	duration	trial_type	trial_number	stroop_condition	stim_text(PL)	stim_text(eng)	stim_color(PL)	stim_color(eng)	response_type	response_color
0.0	n/a	RESPONSE	n/a	n/a	n/a	n/a	n/a	n/a	n/a	n/a
0.0801	1.0167	ITI	n/a	n/a	n/a	n/a	n/a	n/a	n/a	n/a
1.0967	0.5	FIXCROSS	n/a	n/a	n/a	n/a	n/a	n/a	n/a	n/a
1.5968	0.8333	T_INK	1	Neutral	xxxxxxx	xxxxxxx	czerwony	red	hit	n/a
2.4138	n/a	RESPONSE	n/a	n/a	n/a	n/a	n/a	n/a	n/a	red
2.4301	0.5	FEEDBACK	n/a	n/a	n/a	n/a	n/a	n/a	n/a	n/a
2.9301	1.0	ITI	n/a	n/a	n/a	n/a	n/a	n/a	n/a	n/a
3.9301	0.5	FIXCROSS	n/a	n/a	n/a	n/a	n/a	n/a	n/a	n/a
4.4301	0.9	T_INK	2	Incongruent	czerwony	red	niebieski	blue	hit	n/a
5.323	n/a	RESPONSE	n/a	n/a	n/a	n/a	n/a	n/a	n/a	blue
5.3301	0.5	FEEDBACK	n/a	n/a	n/a	n/a	n/a	n/a	n/a	n/a
5.8301	1.0167	ITI	n/a	n/a	n/a	n/a	n/a	n/a	n/a	n/a
6.8468	0.5	FIXCROSS	n/a	n/a	n/a	n/a	n/a	n/a	n/a	n/a
7.3468	0.65	T_INK	3	Incongruent	żółty	yellow	czerwony	red	hit	n/a
7.9765	n/a	RESPONSE	n/a	n/a	n/a	n/a	n/a	n/a	n/a	red
7.9968	0.5	FEEDBACK	n/a	n/a	n/a	n/a	n/a	n/a	n/a	n/a
8.4968	1.0	ITI	n/a	n/a	n/a	n/a	n/a	n/a	n/a	n/a
9.4968	0.5	FIXCROSS	n/a	n/a	n/a	n/a	n/a	n/a	n/a	n/a
9.9969	0.7	T_INK	4	Neutral	xxxxx	xxxxx	niebieski	blue	hit	n/a
10.678	n/a	RESPONSE	n/a	n/a	n/a	n/a	n/a	n/a	n/a	blue
10.6969	0.5	FEEDBACK	n/a	n/a	n/a	n/a	n/a	n/a	n/a	n/a
11.1969	1.0	ITI	n/a	n/a	n/a	n/a	n/a	n/a	n/a	n/a
12.1969	0.5	FIXCROSS	n/a	n/a	n/a	n/a	n/a	n/a	n/a	n/a
12.6969	0.6167	T_INK	5	Neutral	xxxxxxxx	xxxxxxxx	żółty	yellow	hit	n/a
13.2994	n/a	RESPONSE	n/a	n/a	n/a	n/a	n/a	n/a	n/a	yellow
13.3136	0.5	FEEDBACK	n/a	n/a	n/a	n/a	n/a	n/a	n/a	n/a
13.8136	1.0	ITI	n/a	n/a	n/a	n/a	n/a	n/a	n/a	n/a
14.8136	0.5	FIXCROSS	n/a	n/a	n/a	n/a	n/a	n/a	n/a	n/a
15.3136	0.8	T_INK	6	Incongruent	żółty	yellow	niebieski	blue	hit	n/a
16.0968	n/a	RESPONSE	n/a	n/a	n/a	n/a	n/a	n/a	n/a	blue
16.1136	0.5	FEEDBACK	n/a	n/a	n/a	n/a	n/a	n/a	n/a	n/a
16.6136	1.0	ITI	n/a	n/a	n/a	n/a	n/a	n/a	n/a	n/a
17.6136	0.5	FIXCROSS	n/a	n/a	n/a	n/a	n/a	n/a	n/a	n/a
18.1136	0.8334	T_INK	7	Incongruent	czerwony	red	żółty	yellow	hit	n/a
18.9263	n/a	RESPONSE	n/a	n/a	n/a	n/a	n/a	n/a	n/a	yellow
18.947	0.5	FEEDBACK	n/a	n/a	n/a	n/a	n/a	n/a	n/a	n/a
19.447	1.0	ITI	n/a	n/a	n/a	n/a	n/a	n/a	n/a	n/a
20.447	0.5	FIXCROSS	n/a	n/a	n/a	n/a	n/a	n/a	n/a	n/a
20.947	0.6	T_INK	8	Neutral	xxxxx	xxxxx	czerwony	red	hit	n/a
21.5316	n/a	RESPONSE	n/a	n/a	n/a	n/a	n/a	n/a	n/a	red
21.547	0.5	FEEDBACK	n/a	n/a	n/a	n/a	n/a	n/a	n/a	n/a
22.047	1.0	ITI	n/a	n/a	n/a	n/a	n/a	n/a	n/a	n/a
23.047	0.5	FIXCROSS	n/a	n/a	n/a	n/a	n/a	n/a	n/a	n/a
23.547	0.65	T_INK	9	Neutral	xxxxxxxxx	xxxxxxxxx	czerwony	red	hit	n/a
24.1852	n/a	RESPONSE	n/a	n/a	n/a	n/a	n/a	n/a	n/a	red
24.197	0.5	FEEDBACK	n/a	n/a	n/a	n/a	n/a	n/a	n/a	n/a
24.697	1.0	ITI	n/a	n/a	n/a	n/a	n/a	n/a	n/a	n/a
25.6971	0.5	FIXCROSS	n/a	n/a	n/a	n/a	n/a	n/a	n/a	n/a
26.1971	0.7333	T_INK	10	Incongruent	zielony	green	żółty	yellow	hit	n/a
26.9185	n/a	RESPONSE	n/a	n/a	n/a	n/a	n/a	n/a	n/a	yellow
26.9304	0.5	FEEDBACK	n/a	n/a	n/a	n/a	n/a	n/a	n/a	n/a
27.4304	1.0	ITI	n/a	n/a	n/a	n/a	n/a	n/a	n/a	n/a
28.4304	0.5	FIXCROSS	n/a	n/a	n/a	n/a	n/a	n/a	n/a	n/a
28.9304	0.8833	T_INK	11	Incongruent	żółty	yellow	zielony	green	incorrect	n/a
29.7959	n/a	RESPONSE	n/a	n/a	n/a	n/a	n/a	n/a	n/a	yellow
29.8138	0.5	FEEDBACK	n/a	n/a	n/a	n/a	n/a	n/a	n/a	n/a
30.3138	1.0	ITI	n/a	n/a	n/a	n/a	n/a	n/a	n/a	n/a
31.3138	0.5	FIXCROSS	n/a	n/a	n/a	n/a	n/a	n/a	n/a	n/a
31.8138	0.6333	T_INK	12	Neutral	xxxxxxxxx	xxxxxxxxx	żółty	yellow	hit	n/a
32.4334	n/a	RESPONSE	n/a	n/a	n/a	n/a	n/a	n/a	n/a	yellow
32.4471	0.5	FEEDBACK	n/a	n/a	n/a	n/a	n/a	n/a	n/a	n/a
32.9471	1.0	ITI	n/a	n/a	n/a	n/a	n/a	n/a	n/a	n/a
62.8687	n/a	RESPONSE	n/a	n/a	n/a	n/a	n/a	n/a	n/a	n/a
62.9475	1.0	ITI	n/a	n/a	n/a	n/a	n/a	n/a	n/a	n/a
63.9475	0.5	FIXCROSS	n/a	n/a	n/a	n/a	n/a	n/a	n/a	n/a
64.4475	0.7667	INK	1	Incongruent	czerwony	red	żółty	yellow	hit	n/a
65.2025	n/a	RESPONSE	n/a	n/a	n/a	n/a	n/a	n/a	n/a	yellow
65.2142	1.0	ITI	n/a	n/a	n/a	n/a	n/a	n/a	n/a	n/a
66.2142	0.5	FIXCROSS	n/a	n/a	n/a	n/a	n/a	n/a	n/a	n/a
66.7142	0.7334	INK	2	Incongruent	czerwony	red	zielony	green	hit	n/a
67.4404	n/a	RESPONSE	n/a	n/a	n/a	n/a	n/a	n/a	n/a	green
67.4476	1.0	ITI	n/a	n/a	n/a	n/a	n/a	n/a	n/a	n/a
68.4476	0.5	FIXCROSS	n/a	n/a	n/a	n/a	n/a	n/a	n/a	n/a
68.9476	0.6833	INK	3	Neutral	xxxxxxxx	xxxxxxxx	żółty	yellow	hit	n/a
69.6144	n/a	RESPONSE	n/a	n/a	n/a	n/a	n/a	n/a	n/a	yellow
69.6309	1.0	ITI	n/a	n/a	n/a	n/a	n/a	n/a	n/a	n/a
70.631	0.5	FIXCROSS	n/a	n/a	n/a	n/a	n/a	n/a	n/a	n/a
71.131	0.6833	INK	4	Incongruent	żółty	yellow	niebieski	blue	hit	n/a
71.8042	n/a	RESPONSE	n/a	n/a	n/a	n/a	n/a	n/a	n/a	blue
71.8143	1.0	ITI	n/a	n/a	n/a	n/a	n/a	n/a	n/a	n/a
72.8143	0.5	FIXCROSS	n/a	n/a	n/a	n/a	n/a	n/a	n/a	n/a
73.3143	0.5167	INK	5	Neutral	xxxxxxxxx	xxxxxxxxx	żółty	yellow	hit	n/a
73.8184	n/a	RESPONSE	n/a	n/a	n/a	n/a	n/a	n/a	n/a	yellow
73.831	1.0	ITI	n/a	n/a	n/a	n/a	n/a	n/a	n/a	n/a
74.831	0.5	FIXCROSS	n/a	n/a	n/a	n/a	n/a	n/a	n/a	n/a
75.331	0.4333	INK	6	Incongruent	niebieski	blue	zielony	green	hit	n/a
75.7526	n/a	RESPONSE	n/a	n/a	n/a	n/a	n/a	n/a	n/a	green
75.7644	1.0	ITI	n/a	n/a	n/a	n/a	n/a	n/a	n/a	n/a
76.7644	0.5	FIXCROSS	n/a	n/a	n/a	n/a	n/a	n/a	n/a	n/a
77.2644	0.5334	INK	7	Neutral	xxxxxxxx	xxxxxxxx	zielony	green	hit	n/a
77.7827	n/a	RESPONSE	n/a	n/a	n/a	n/a	n/a	n/a	n/a	green
77.7977	1.0	ITI	n/a	n/a	n/a	n/a	n/a	n/a	n/a	n/a
78.7977	0.5	FIXCROSS	n/a	n/a	n/a	n/a	n/a	n/a	n/a	n/a
79.2977	0.4667	INK	8	Neutral	xxxxx	xxxxx	zielony	green	hit	n/a
79.7488	n/a	RESPONSE	n/a	n/a	n/a	n/a	n/a	n/a	n/a	green
79.7644	1.0	ITI	n/a	n/a	n/a	n/a	n/a	n/a	n/a	n/a
80.7644	0.5	FIXCROSS	n/a	n/a	n/a	n/a	n/a	n/a	n/a	n/a
81.2644	0.45	INK	9	Incongruent	niebieski	blue	zielony	green	hit	n/a
81.6989	n/a	RESPONSE	n/a	n/a	n/a	n/a	n/a	n/a	n/a	green
81.7144	1.0	ITI	n/a	n/a	n/a	n/a	n/a	n/a	n/a	n/a
82.7144	0.5	FIXCROSS	n/a	n/a	n/a	n/a	n/a	n/a	n/a	n/a
83.2145	0.6833	INK	10	Incongruent	niebieski	blue	czerwony	red	hit	n/a
83.8889	n/a	RESPONSE	n/a	n/a	n/a	n/a	n/a	n/a	n/a	red
83.8978	1.0	ITI	n/a	n/a	n/a	n/a	n/a	n/a	n/a	n/a
84.8978	0.5	FIXCROSS	n/a	n/a	n/a	n/a	n/a	n/a	n/a	n/a
85.3978	0.6167	INK	11	Incongruent	niebieski	blue	żółty	yellow	hit	n/a
85.9989	n/a	RESPONSE	n/a	n/a	n/a	n/a	n/a	n/a	n/a	yellow
86.0145	1.0	ITI	n/a	n/a	n/a	n/a	n/a	n/a	n/a	n/a
87.0145	0.5	FIXCROSS	n/a	n/a	n/a	n/a	n/a	n/a	n/a	n/a
87.5145	0.5	INK	12	Incongruent	czerwony	red	zielony	green	hit	n/a
87.997	n/a	RESPONSE	n/a	n/a	n/a	n/a	n/a	n/a	n/a	green
88.0145	1.0	ITI	n/a	n/a	n/a	n/a	n/a	n/a	n/a	n/a
89.0145	0.5	FIXCROSS	n/a	n/a	n/a	n/a	n/a	n/a	n/a	n/a
89.5145	0.55	INK	13	Incongruent	niebieski	blue	czerwony	red	hit	n/a
90.0431	n/a	RESPONSE	n/a	n/a	n/a	n/a	n/a	n/a	n/a	red
90.0645	1.0	ITI	n/a	n/a	n/a	n/a	n/a	n/a	n/a	n/a
91.0645	0.5	FIXCROSS	n/a	n/a	n/a	n/a	n/a	n/a	n/a	n/a
91.5646	0.75	INK	14	Incongruent	czerwony	red	niebieski	blue	hit	n/a
92.297	n/a	RESPONSE	n/a	n/a	n/a	n/a	n/a	n/a	n/a	blue
92.3146	1.0334	ITI	n/a	n/a	n/a	n/a	n/a	n/a	n/a	n/a
93.3479	0.5333	FIXCROSS	n/a	n/a	n/a	n/a	n/a	n/a	n/a	n/a
93.8812	0.65	INK	15	Neutral	xxxxxxx	xxxxxxx	czerwony	red	hit	n/a
94.5029	n/a	RESPONSE	n/a	n/a	n/a	n/a	n/a	n/a	n/a	red
94.5313	1.0333	ITI	n/a	n/a	n/a	n/a	n/a	n/a	n/a	n/a
95.5646	0.5333	FIXCROSS	n/a	n/a	n/a	n/a	n/a	n/a	n/a	n/a
96.0979	0.7667	INK	16	Neutral	xxxxxxxx	xxxxxxxx	niebieski	blue	hit	n/a
96.8207	n/a	RESPONSE	n/a	n/a	n/a	n/a	n/a	n/a	n/a	blue
96.8646	1.0333	ITI	n/a	n/a	n/a	n/a	n/a	n/a	n/a	n/a
97.898	0.5333	FIXCROSS	n/a	n/a	n/a	n/a	n/a	n/a	n/a	n/a
98.4313	0.5167	INK	17	Neutral	xxxxxxx	xxxxxxx	niebieski	blue	hit	n/a
98.9148	n/a	RESPONSE	n/a	n/a	n/a	n/a	n/a	n/a	n/a	blue
98.948	1.0334	ITI	n/a	n/a	n/a	n/a	n/a	n/a	n/a	n/a
99.9813	0.5333	FIXCROSS	n/a	n/a	n/a	n/a	n/a	n/a	n/a	n/a
100.5147	0.4167	INK	18	Incongruent	zielony	green	niebieski	blue	hit	n/a
100.8969	n/a	RESPONSE	n/a	n/a	n/a	n/a	n/a	n/a	n/a	blue
100.9313	1.0333	ITI	n/a	n/a	n/a	n/a	n/a	n/a	n/a	n/a
101.9647	0.5333	FIXCROSS	n/a	n/a	n/a	n/a	n/a	n/a	n/a	n/a
102.498	0.6167	INK	19	Neutral	xxxxxxxxx	xxxxxxxxx	czerwony	red	hit	n/a
103.0709	n/a	RESPONSE	n/a	n/a	n/a	n/a	n/a	n/a	n/a	red
103.1147	1.0334	ITI	n/a	n/a	n/a	n/a	n/a	n/a	n/a	n/a
104.1481	0.5333	FIXCROSS	n/a	n/a	n/a	n/a	n/a	n/a	n/a	n/a
104.6814	0.5667	INK	20	Incongruent	czerwony	red	niebieski	blue	hit	n/a
105.2129	n/a	RESPONSE	n/a	n/a	n/a	n/a	n/a	n/a	n/a	blue
105.2481	1.0333	ITI	n/a	n/a	n/a	n/a	n/a	n/a	n/a	n/a
106.2814	0.5334	FIXCROSS	n/a	n/a	n/a	n/a	n/a	n/a	n/a	n/a
106.8148	0.65	INK	21	Neutral	xxxxxxxxx	xxxxxxxxx	zielony	green	hit	n/a
107.4347	n/a	RESPONSE	n/a	n/a	n/a	n/a	n/a	n/a	n/a	green
107.4648	1.0333	ITI	n/a	n/a	n/a	n/a	n/a	n/a	n/a	n/a
108.4981	0.5333	FIXCROSS	n/a	n/a	n/a	n/a	n/a	n/a	n/a	n/a
109.0314	0.7167	INK	22	Neutral	xxxxx	xxxxx	czerwony	red	hit	n/a
109.7046	n/a	RESPONSE	n/a	n/a	n/a	n/a	n/a	n/a	n/a	red
109.7481	1.0333	ITI	n/a	n/a	n/a	n/a	n/a	n/a	n/a	n/a
110.7815	0.5333	FIXCROSS	n/a	n/a	n/a	n/a	n/a	n/a	n/a	n/a
111.3148	0.7	INK	23	Incongruent	czerwony	red	żółty	yellow	hit	n/a
111.9746	n/a	RESPONSE	n/a	n/a	n/a	n/a	n/a	n/a	n/a	yellow
112.0148	1.0334	ITI	n/a	n/a	n/a	n/a	n/a	n/a	n/a	n/a
113.0482	0.5333	FIXCROSS	n/a	n/a	n/a	n/a	n/a	n/a	n/a	n/a
113.5815	0.8333	INK	24	Incongruent	żółty	yellow	czerwony	red	hit	n/a
114.3722	n/a	RESPONSE	n/a	n/a	n/a	n/a	n/a	n/a	n/a	red
114.4148	1.0333	ITI	n/a	n/a	n/a	n/a	n/a	n/a	n/a	n/a
115.4482	0.5333	FIXCROSS	n/a	n/a	n/a	n/a	n/a	n/a	n/a	n/a
115.9815	0.6667	INK	25	Incongruent	żółty	yellow	zielony	green	hit	n/a
116.6102	n/a	RESPONSE	n/a	n/a	n/a	n/a	n/a	n/a	n/a	green
116.6482	1.0333	ITI	n/a	n/a	n/a	n/a	n/a	n/a	n/a	n/a
117.6815	0.5333	FIXCROSS	n/a	n/a	n/a	n/a	n/a	n/a	n/a	n/a
118.2149	0.5833	INK	26	Incongruent	niebieski	blue	żółty	yellow	hit	n/a
118.768	n/a	RESPONSE	n/a	n/a	n/a	n/a	n/a	n/a	n/a	yellow
118.7982	1.0333	ITI	n/a	n/a	n/a	n/a	n/a	n/a	n/a	n/a
119.8316	0.5333	FIXCROSS	n/a	n/a	n/a	n/a	n/a	n/a	n/a	n/a
120.3649	0.7	INK	27	Neutral	xxxxx	xxxxx	zielony	green	hit	n/a
121.022	n/a	RESPONSE	n/a	n/a	n/a	n/a	n/a	n/a	n/a	green
121.0649	1.0333	ITI	n/a	n/a	n/a	n/a	n/a	n/a	n/a	n/a
122.0983	0.5333	FIXCROSS	n/a	n/a	n/a	n/a	n/a	n/a	n/a	n/a
122.6316	0.6334	INK	28	Neutral	xxxxxxxx	xxxxxxxx	niebieski	blue	hit	n/a
123.2279	n/a	RESPONSE	n/a	n/a	n/a	n/a	n/a	n/a	n/a	blue
123.265	1.0333	ITI	n/a	n/a	n/a	n/a	n/a	n/a	n/a	n/a
124.2983	0.5333	FIXCROSS	n/a	n/a	n/a	n/a	n/a	n/a	n/a	n/a
124.8316	0.65	INK	29	Neutral	xxxxxxx	xxxxxxx	żółty	yellow	hit	n/a
125.4497	n/a	RESPONSE	n/a	n/a	n/a	n/a	n/a	n/a	n/a	yellow
125.4816	1.0334	ITI	n/a	n/a	n/a	n/a	n/a	n/a	n/a	n/a
126.515	0.5333	FIXCROSS	n/a	n/a	n/a	n/a	n/a	n/a	n/a	n/a
127.0483	0.65	INK	30	Neutral	xxxxxxxxx	xxxxxxxxx	zielony	green	hit	n/a
127.6557	n/a	RESPONSE	n/a	n/a	n/a	n/a	n/a	n/a	n/a	green
127.6983	1.0333	ITI	n/a	n/a	n/a	n/a	n/a	n/a	n/a	n/a
128.7317	0.5333	FIXCROSS	n/a	n/a	n/a	n/a	n/a	n/a	n/a	n/a
129.265	0.6	INK	31	Neutral	xxxxx	xxxxx	niebieski	blue	hit	n/a
129.8297	n/a	RESPONSE	n/a	n/a	n/a	n/a	n/a	n/a	n/a	blue
129.865	1.0333	ITI	n/a	n/a	n/a	n/a	n/a	n/a	n/a	n/a
130.8984	0.5333	FIXCROSS	n/a	n/a	n/a	n/a	n/a	n/a	n/a	n/a
131.4317	0.6	INK	32	Neutral	xxxxxxx	xxxxxxx	czerwony	red	hit	n/a
132.0036	n/a	RESPONSE	n/a	n/a	n/a	n/a	n/a	n/a	n/a	red
132.0317	1.0334	ITI	n/a	n/a	n/a	n/a	n/a	n/a	n/a	n/a
133.0651	0.5333	FIXCROSS	n/a	n/a	n/a	n/a	n/a	n/a	n/a	n/a
133.5984	0.55	INK	33	Incongruent	zielony	green	żółty	yellow	hit	n/a
134.1135	n/a	RESPONSE	n/a	n/a	n/a	n/a	n/a	n/a	n/a	yellow
134.1484	1.0333	ITI	n/a	n/a	n/a	n/a	n/a	n/a	n/a	n/a
135.1818	0.5333	FIXCROSS	n/a	n/a	n/a	n/a	n/a	n/a	n/a	n/a
135.7151	0.55	INK	34	Incongruent	żółty	yellow	czerwony	red	hit	n/a
136.2237	n/a	RESPONSE	n/a	n/a	n/a	n/a	n/a	n/a	n/a	red
136.2651	1.0333	ITI	n/a	n/a	n/a	n/a	n/a	n/a	n/a	n/a
137.2985	0.5333	FIXCROSS	n/a	n/a	n/a	n/a	n/a	n/a	n/a	n/a
137.8318	0.45	INK	35	Neutral	xxxxx	xxxxx	czerwony	red	hit	n/a
138.2378	n/a	RESPONSE	n/a	n/a	n/a	n/a	n/a	n/a	n/a	red
138.2818	1.0333	ITI	n/a	n/a	n/a	n/a	n/a	n/a	n/a	n/a
139.3152	0.5333	FIXCROSS	n/a	n/a	n/a	n/a	n/a	n/a	n/a	n/a
139.8485	0.6833	INK	36	Neutral	xxxxxxxx	xxxxxxxx	zielony	green	hit	n/a
140.4916	n/a	RESPONSE	n/a	n/a	n/a	n/a	n/a	n/a	n/a	green
140.5318	1.0334	ITI	n/a	n/a	n/a	n/a	n/a	n/a	n/a	n/a
141.5652	0.5333	FIXCROSS	n/a	n/a	n/a	n/a	n/a	n/a	n/a	n/a
142.0985	0.55	INK	37	Neutral	xxxxxxxx	xxxxxxxx	niebieski	blue	hit	n/a
142.6176	n/a	RESPONSE	n/a	n/a	n/a	n/a	n/a	n/a	n/a	blue
142.6485	1.0333	ITI	n/a	n/a	n/a	n/a	n/a	n/a	n/a	n/a
143.6819	0.5333	FIXCROSS	n/a	n/a	n/a	n/a	n/a	n/a	n/a	n/a
144.2152	0.6333	INK	38	Incongruent	czerwony	red	żółty	yellow	hit	n/a
144.8076	n/a	RESPONSE	n/a	n/a	n/a	n/a	n/a	n/a	n/a	yellow
144.8486	1.0333	ITI	n/a	n/a	n/a	n/a	n/a	n/a	n/a	n/a
145.8819	0.5333	FIXCROSS	n/a	n/a	n/a	n/a	n/a	n/a	n/a	n/a
146.4152	0.6333	INK	39	Neutral	xxxxx	xxxxx	zielony	green	hit	n/a
147.0134	n/a	RESPONSE	n/a	n/a	n/a	n/a	n/a	n/a	n/a	green
147.0486	1.0333	ITI	n/a	n/a	n/a	n/a	n/a	n/a	n/a	n/a
148.0819	0.5333	FIXCROSS	n/a	n/a	n/a	n/a	n/a	n/a	n/a	n/a
148.6153	0.65	INK	40	Neutral	xxxxxxxx	xxxxxxxx	zielony	green	hit	n/a
149.2353	n/a	RESPONSE	n/a	n/a	n/a	n/a	n/a	n/a	n/a	green
149.2653	1.0334	ITI	n/a	n/a	n/a	n/a	n/a	n/a	n/a	n/a
150.2986	0.5333	FIXCROSS	n/a	n/a	n/a	n/a	n/a	n/a	n/a	n/a
150.832	0.5667	INK	41	Neutral	xxxxxxxxx	xxxxxxxxx	zielony	green	hit	n/a
151.3614	n/a	RESPONSE	n/a	n/a	n/a	n/a	n/a	n/a	n/a	green
151.3986	1.0334	ITI	n/a	n/a	n/a	n/a	n/a	n/a	n/a	n/a
152.432	0.5333	FIXCROSS	n/a	n/a	n/a	n/a	n/a	n/a	n/a	n/a
152.9653	0.7	INK	42	Neutral	xxxxxxxx	xxxxxxxx	żółty	yellow	hit	n/a
153.6313	n/a	RESPONSE	n/a	n/a	n/a	n/a	n/a	n/a	n/a	yellow
153.6653	1.0333	ITI	n/a	n/a	n/a	n/a	n/a	n/a	n/a	n/a
154.6987	0.5333	FIXCROSS	n/a	n/a	n/a	n/a	n/a	n/a	n/a	n/a
155.232	0.7	INK	43	Incongruent	żółty	yellow	niebieski	blue	hit	n/a
155.9011	n/a	RESPONSE	n/a	n/a	n/a	n/a	n/a	n/a	n/a	blue
155.932	1.0334	ITI	n/a	n/a	n/a	n/a	n/a	n/a	n/a	n/a
156.9654	0.5333	FIXCROSS	n/a	n/a	n/a	n/a	n/a	n/a	n/a	n/a
157.4987	0.5667	INK	44	Neutral	xxxxxxx	xxxxxxx	żółty	yellow	hit	n/a
158.0271	n/a	RESPONSE	n/a	n/a	n/a	n/a	n/a	n/a	n/a	yellow
158.0654	1.0333	ITI	n/a	n/a	n/a	n/a	n/a	n/a	n/a	n/a
159.0987	0.5333	FIXCROSS	n/a	n/a	n/a	n/a	n/a	n/a	n/a	n/a
159.6321	0.65	INK	45	Incongruent	niebieski	blue	zielony	green	hit	n/a
160.249	n/a	RESPONSE	n/a	n/a	n/a	n/a	n/a	n/a	n/a	green
160.2821	1.0333	ITI	n/a	n/a	n/a	n/a	n/a	n/a	n/a	n/a
161.3154	0.5333	FIXCROSS	n/a	n/a	n/a	n/a	n/a	n/a	n/a	n/a
161.8488	0.6	INK	46	Incongruent	żółty	yellow	niebieski	blue	hit	n/a
162.407	n/a	RESPONSE	n/a	n/a	n/a	n/a	n/a	n/a	n/a	blue
162.4488	1.0333	ITI	n/a	n/a	n/a	n/a	n/a	n/a	n/a	n/a
163.4821	0.5333	FIXCROSS	n/a	n/a	n/a	n/a	n/a	n/a	n/a	n/a
164.0155	0.6	INK	47	Neutral	xxxxxxxxx	xxxxxxxxx	czerwony	red	hit	n/a
164.5809	n/a	RESPONSE	n/a	n/a	n/a	n/a	n/a	n/a	n/a	red
164.6155	1.0333	ITI	n/a	n/a	n/a	n/a	n/a	n/a	n/a	n/a
165.6488	0.5334	FIXCROSS	n/a	n/a	n/a	n/a	n/a	n/a	n/a	n/a
166.1822	0.6	INK	48	Incongruent	czerwony	red	niebieski	blue	hit	n/a
166.7389	n/a	RESPONSE	n/a	n/a	n/a	n/a	n/a	n/a	n/a	blue
166.7822	1.0333	ITI	n/a	n/a	n/a	n/a	n/a	n/a	n/a	n/a
167.8155	0.5333	FIXCROSS	n/a	n/a	n/a	n/a	n/a	n/a	n/a	n/a
168.3488	0.4667	INK	49	Incongruent	zielony	green	niebieski	blue	hit	n/a
168.785	n/a	RESPONSE	n/a	n/a	n/a	n/a	n/a	n/a	n/a	blue
168.8155	1.0334	ITI	n/a	n/a	n/a	n/a	n/a	n/a	n/a	n/a
169.8489	0.5333	FIXCROSS	n/a	n/a	n/a	n/a	n/a	n/a	n/a	n/a
170.3822	0.8667	INK	50	Incongruent	zielony	green	czerwony	red	hit	n/a
171.2148	n/a	RESPONSE	n/a	n/a	n/a	n/a	n/a	n/a	n/a	red
171.2489	1.0333	ITI	n/a	n/a	n/a	n/a	n/a	n/a	n/a	n/a
172.2822	0.5333	FIXCROSS	n/a	n/a	n/a	n/a	n/a	n/a	n/a	n/a
172.8156	0.6	INK	51	Neutral	xxxxx	xxxxx	czerwony	red	hit	n/a
173.3726	n/a	RESPONSE	n/a	n/a	n/a	n/a	n/a	n/a	n/a	red
173.4156	1.0333	ITI	n/a	n/a	n/a	n/a	n/a	n/a	n/a	n/a
174.4489	0.5333	FIXCROSS	n/a	n/a	n/a	n/a	n/a	n/a	n/a	n/a
174.9823	0.5667	INK	52	Neutral	xxxxx	xxxxx	niebieski	blue	hit	n/a
175.5146	n/a	RESPONSE	n/a	n/a	n/a	n/a	n/a	n/a	n/a	blue
175.5489	1.0333	ITI	n/a	n/a	n/a	n/a	n/a	n/a	n/a	n/a
176.5823	0.5333	FIXCROSS	n/a	n/a	n/a	n/a	n/a	n/a	n/a	n/a
177.1156	0.6334	INK	53	Incongruent	żółty	yellow	czerwony	red	hit	n/a
177.7206	n/a	RESPONSE	n/a	n/a	n/a	n/a	n/a	n/a	n/a	red
177.749	1.0333	ITI	n/a	n/a	n/a	n/a	n/a	n/a	n/a	n/a
178.7823	0.5333	FIXCROSS	n/a	n/a	n/a	n/a	n/a	n/a	n/a	n/a
179.3156	0.6667	INK	54	Neutral	xxxxxxx	xxxxxxx	niebieski	blue	hit	n/a
179.9425	n/a	RESPONSE	n/a	n/a	n/a	n/a	n/a	n/a	n/a	blue
179.9823	1.0333	ITI	n/a	n/a	n/a	n/a	n/a	n/a	n/a	n/a
181.0157	0.5333	FIXCROSS	n/a	n/a	n/a	n/a	n/a	n/a	n/a	n/a
181.549	0.4167	INK	55	Incongruent	zielony	green	żółty	yellow	hit	n/a
181.9245	n/a	RESPONSE	n/a	n/a	n/a	n/a	n/a	n/a	n/a	yellow
181.9657	1.0334	ITI	n/a	n/a	n/a	n/a	n/a	n/a	n/a	n/a
182.999	0.5333	FIXCROSS	n/a	n/a	n/a	n/a	n/a	n/a	n/a	n/a
183.5324	0.7	INK	56	Incongruent	zielony	green	niebieski	blue	hit	n/a
184.1944	n/a	RESPONSE	n/a	n/a	n/a	n/a	n/a	n/a	n/a	blue
184.2324	1.0333	ITI	n/a	n/a	n/a	n/a	n/a	n/a	n/a	n/a
185.2657	0.5333	FIXCROSS	n/a	n/a	n/a	n/a	n/a	n/a	n/a	n/a
185.7991	0.6667	INK	57	Neutral	xxxxxxxxx	xxxxxxxxx	czerwony	red	hit	n/a
186.4324	n/a	RESPONSE	n/a	n/a	n/a	n/a	n/a	n/a	n/a	red
186.4657	1.0334	ITI	n/a	n/a	n/a	n/a	n/a	n/a	n/a	n/a
187.4991	0.5333	FIXCROSS	n/a	n/a	n/a	n/a	n/a	n/a	n/a	n/a
188.0324	0.7167	INK	58	Neutral	xxxxxxxxx	xxxxxxxxx	żółty	yellow	hit	n/a
188.7183	n/a	RESPONSE	n/a	n/a	n/a	n/a	n/a	n/a	n/a	yellow
188.7491	1.0333	ITI	n/a	n/a	n/a	n/a	n/a	n/a	n/a	n/a
189.7824	0.5333	FIXCROSS	n/a	n/a	n/a	n/a	n/a	n/a	n/a	n/a
190.3158	0.7333	INK	59	Incongruent	zielony	green	czerwony	red	hit	n/a
191.02	n/a	RESPONSE	n/a	n/a	n/a	n/a	n/a	n/a	n/a	red
191.0491	1.0333	ITI	n/a	n/a	n/a	n/a	n/a	n/a	n/a	n/a
192.0825	0.5333	FIXCROSS	n/a	n/a	n/a	n/a	n/a	n/a	n/a	n/a
192.6158	0.8167	INK	60	Incongruent	czerwony	red	zielony	green	hit	n/a
193.4019	n/a	RESPONSE	n/a	n/a	n/a	n/a	n/a	n/a	n/a	green
193.4325	1.0334	ITI	n/a	n/a	n/a	n/a	n/a	n/a	n/a	n/a
194.4658	0.5333	FIXCROSS	n/a	n/a	n/a	n/a	n/a	n/a	n/a	n/a
194.9992	0.7333	INK	61	Neutral	xxxxxxxxx	xxxxxxxxx	żółty	yellow	hit	n/a
195.7036	n/a	RESPONSE	n/a	n/a	n/a	n/a	n/a	n/a	n/a	yellow
195.7325	1.0333	ITI	n/a	n/a	n/a	n/a	n/a	n/a	n/a	n/a
196.7659	0.5334	FIXCROSS	n/a	n/a	n/a	n/a	n/a	n/a	n/a	n/a
197.2992	0.6333	INK	62	Incongruent	niebieski	blue	żółty	yellow	hit	n/a
197.8936	n/a	RESPONSE	n/a	n/a	n/a	n/a	n/a	n/a	n/a	yellow
197.9325	1.0333	ITI	n/a	n/a	n/a	n/a	n/a	n/a	n/a	n/a
198.9659	0.5333	FIXCROSS	n/a	n/a	n/a	n/a	n/a	n/a	n/a	n/a
199.4992	0.5	INK	63	Neutral	xxxxxxxx	xxxxxxxx	żółty	yellow	hit	n/a
199.9557	n/a	RESPONSE	n/a	n/a	n/a	n/a	n/a	n/a	n/a	yellow
199.9992	1.0333	ITI	n/a	n/a	n/a	n/a	n/a	n/a	n/a	n/a
201.0326	0.5333	FIXCROSS	n/a	n/a	n/a	n/a	n/a	n/a	n/a	n/a
201.5659	0.4167	INK	64	Neutral	xxxxxxx	xxxxxxx	żółty	yellow	hit	n/a
201.9538	n/a	RESPONSE	n/a	n/a	n/a	n/a	n/a	n/a	n/a	yellow
201.9826	1.0334	ITI	n/a	n/a	n/a	n/a	n/a	n/a	n/a	n/a
203.0159	0.5333	FIXCROSS	n/a	n/a	n/a	n/a	n/a	n/a	n/a	n/a
203.5493	0.7333	INK	65	Incongruent	zielony	green	czerwony	red	hit	n/a
204.2396	n/a	RESPONSE	n/a	n/a	n/a	n/a	n/a	n/a	n/a	red
204.2826	1.0333	ITI	n/a	n/a	n/a	n/a	n/a	n/a	n/a	n/a
205.316	0.5333	FIXCROSS	n/a	n/a	n/a	n/a	n/a	n/a	n/a	n/a
205.8493	0.5167	INK	66	Incongruent	niebieski	blue	czerwony	red	hit	n/a
206.3336	n/a	RESPONSE	n/a	n/a	n/a	n/a	n/a	n/a	n/a	red
206.366	1.0334	ITI	n/a	n/a	n/a	n/a	n/a	n/a	n/a	n/a
207.3993	0.5333	FIXCROSS	n/a	n/a	n/a	n/a	n/a	n/a	n/a	n/a
207.9327	0.6667	INK	67	Neutral	xxxxxxx	xxxxxxx	niebieski	blue	hit	n/a
208.5715	n/a	RESPONSE	n/a	n/a	n/a	n/a	n/a	n/a	n/a	blue
208.5993	1.0333	ITI	n/a	n/a	n/a	n/a	n/a	n/a	n/a	n/a
209.6327	0.5333	FIXCROSS	n/a	n/a	n/a	n/a	n/a	n/a	n/a	n/a
210.166	0.5333	INK	68	Incongruent	żółty	yellow	zielony	green	hit	n/a
210.6655	n/a	RESPONSE	n/a	n/a	n/a	n/a	n/a	n/a	n/a	green
210.6994	1.0333	ITI	n/a	n/a	n/a	n/a	n/a	n/a	n/a	n/a
211.7327	0.5334	FIXCROSS	n/a	n/a	n/a	n/a	n/a	n/a	n/a	n/a
212.2661	0.5333	INK	69	Incongruent	zielony	green	żółty	yellow	hit	n/a
212.7596	n/a	RESPONSE	n/a	n/a	n/a	n/a	n/a	n/a	n/a	yellow
212.7994	1.0333	ITI	n/a	n/a	n/a	n/a	n/a	n/a	n/a	n/a
213.8327	0.5333	FIXCROSS	n/a	n/a	n/a	n/a	n/a	n/a	n/a	n/a
214.3661	0.4833	INK	70	Neutral	xxxxxxx	xxxxxxx	czerwony	red	hit	n/a
214.8216	n/a	RESPONSE	n/a	n/a	n/a	n/a	n/a	n/a	n/a	red
214.8494	1.0333	ITI	n/a	n/a	n/a	n/a	n/a	n/a	n/a	n/a
215.8828	0.5333	FIXCROSS	n/a	n/a	n/a	n/a	n/a	n/a	n/a	n/a
216.4161	0.5167	INK	71	Neutral	xxxxx	xxxxx	niebieski	blue	hit	n/a
216.8997	n/a	RESPONSE	n/a	n/a	n/a	n/a	n/a	n/a	n/a	blue
216.9328	1.0333	ITI	n/a	n/a	n/a	n/a	n/a	n/a	n/a	n/a
217.9661	0.5333	FIXCROSS	n/a	n/a	n/a	n/a	n/a	n/a	n/a	n/a
218.4995	0.7833	INK	72	Incongruent	żółty	yellow	zielony	green	hit	n/a
219.2494	n/a	RESPONSE	n/a	n/a	n/a	n/a	n/a	n/a	n/a	green
219.2828	1.0834	ITI	n/a	n/a	n/a	n/a	n/a	n/a	n/a	n/a
227.194	n/a	RESPONSE	n/a	n/a	n/a	n/a	n/a	n/a	n/a	n/a
227.2662	1.0333	ITI	n/a	n/a	n/a	n/a	n/a	n/a	n/a	n/a
228.2996	0.5333	FIXCROSS	n/a	n/a	n/a	n/a	n/a	n/a	n/a	n/a
228.8329	1.1167	T_COLOR_NAME	1	Incongruent	czerwony	red	żółty	yellow	hit	n/a
229.9115	n/a	RESPONSE	n/a	n/a	n/a	n/a	n/a	n/a	n/a	red
229.9496	0.5333	FEEDBACK	n/a	n/a	n/a	n/a	n/a	n/a	n/a	n/a
230.4829	1.0333	ITI	n/a	n/a	n/a	n/a	n/a	n/a	n/a	n/a
231.5163	0.5333	FIXCROSS	n/a	n/a	n/a	n/a	n/a	n/a	n/a	n/a
232.0496	0.9333	T_COLOR_NAME	2	Neutral	zielony	green	Neutral	Neutral	hit	n/a
232.9487	n/a	RESPONSE	n/a	n/a	n/a	n/a	n/a	n/a	n/a	green
232.983	0.5333	FEEDBACK	n/a	n/a	n/a	n/a	n/a	n/a	n/a	n/a
233.5163	1.0333	ITI	n/a	n/a	n/a	n/a	n/a	n/a	n/a	n/a
234.5497	0.5333	FIXCROSS	n/a	n/a	n/a	n/a	n/a	n/a	n/a	n/a
235.083	0.6167	T_COLOR_NAME	3	Neutral	niebieski	blue	Neutral	Neutral	hit	n/a
235.666	n/a	RESPONSE	n/a	n/a	n/a	n/a	n/a	n/a	n/a	blue
235.6997	0.5333	FEEDBACK	n/a	n/a	n/a	n/a	n/a	n/a	n/a	n/a
236.233	1.0334	ITI	n/a	n/a	n/a	n/a	n/a	n/a	n/a	n/a
237.2664	0.5333	FIXCROSS	n/a	n/a	n/a	n/a	n/a	n/a	n/a	n/a
237.7997	0.5167	T_COLOR_NAME	4	Neutral	żółty	yellow	Neutral	Neutral	hit	n/a
238.2717	n/a	RESPONSE	n/a	n/a	n/a	n/a	n/a	n/a	n/a	yellow
238.3164	0.5333	FEEDBACK	n/a	n/a	n/a	n/a	n/a	n/a	n/a	n/a
238.8497	1.0334	ITI	n/a	n/a	n/a	n/a	n/a	n/a	n/a	n/a
239.8831	0.5333	FIXCROSS	n/a	n/a	n/a	n/a	n/a	n/a	n/a	n/a
240.4164	0.7333	T_COLOR_NAME	5	Neutral	niebieski	blue	Neutral	Neutral	hit	n/a
241.1169	n/a	RESPONSE	n/a	n/a	n/a	n/a	n/a	n/a	n/a	blue
241.1497	0.5333	FEEDBACK	n/a	n/a	n/a	n/a	n/a	n/a	n/a	n/a
241.6831	1.0333	ITI	n/a	n/a	n/a	n/a	n/a	n/a	n/a	n/a
242.7164	0.5333	FIXCROSS	n/a	n/a	n/a	n/a	n/a	n/a	n/a	n/a
243.2498	0.8333	T_COLOR_NAME	6	Incongruent	żółty	yellow	czerwony	red	hit	n/a
244.0422	n/a	RESPONSE	n/a	n/a	n/a	n/a	n/a	n/a	n/a	yellow
244.0831	0.5333	FEEDBACK	n/a	n/a	n/a	n/a	n/a	n/a	n/a	n/a
244.6164	1.0334	ITI	n/a	n/a	n/a	n/a	n/a	n/a	n/a	n/a
245.6498	0.5333	FIXCROSS	n/a	n/a	n/a	n/a	n/a	n/a	n/a	n/a
246.1831	0.6	T_COLOR_NAME	7	Incongruent	żółty	yellow	niebieski	blue	hit	n/a
246.7436	n/a	RESPONSE	n/a	n/a	n/a	n/a	n/a	n/a	n/a	yellow
246.7831	0.5333	FEEDBACK	n/a	n/a	n/a	n/a	n/a	n/a	n/a	n/a
247.3165	1.0333	ITI	n/a	n/a	n/a	n/a	n/a	n/a	n/a	n/a
248.3498	0.5333	FIXCROSS	n/a	n/a	n/a	n/a	n/a	n/a	n/a	n/a
248.8832	0.7667	T_COLOR_NAME	8	Neutral	czerwony	red	Neutral	Neutral	hit	n/a
249.605	n/a	RESPONSE	n/a	n/a	n/a	n/a	n/a	n/a	n/a	red
249.6498	0.5333	FEEDBACK	n/a	n/a	n/a	n/a	n/a	n/a	n/a	n/a
250.1832	1.0334	ITI	n/a	n/a	n/a	n/a	n/a	n/a	n/a	n/a
251.2165	0.5333	FIXCROSS	n/a	n/a	n/a	n/a	n/a	n/a	n/a	n/a
251.7499	0.75	T_COLOR_NAME	9	Incongruent	zielony	green	żółty	yellow	hit	n/a
252.4662	n/a	RESPONSE	n/a	n/a	n/a	n/a	n/a	n/a	n/a	green
252.4999	0.5333	FEEDBACK	n/a	n/a	n/a	n/a	n/a	n/a	n/a	n/a
253.0332	1.0334	ITI	n/a	n/a	n/a	n/a	n/a	n/a	n/a	n/a
254.0666	0.5333	FIXCROSS	n/a	n/a	n/a	n/a	n/a	n/a	n/a	n/a
254.5999	0.7833	T_COLOR_NAME	10	Neutral	żółty	yellow	Neutral	Neutral	hit	n/a
255.3435	n/a	RESPONSE	n/a	n/a	n/a	n/a	n/a	n/a	n/a	yellow
255.3832	0.5333	FEEDBACK	n/a	n/a	n/a	n/a	n/a	n/a	n/a	n/a
255.9166	1.0333	ITI	n/a	n/a	n/a	n/a	n/a	n/a	n/a	n/a
256.9499	0.5333	FIXCROSS	n/a	n/a	n/a	n/a	n/a	n/a	n/a	n/a
257.4833	0.6334	T_COLOR_NAME	11	Incongruent	żółty	yellow	zielony	green	hit	n/a
258.0769	n/a	RESPONSE	n/a	n/a	n/a	n/a	n/a	n/a	n/a	yellow
258.1166	0.5333	FEEDBACK	n/a	n/a	n/a	n/a	n/a	n/a	n/a	n/a
258.6499	1.0333	ITI	n/a	n/a	n/a	n/a	n/a	n/a	n/a	n/a
259.6833	0.5333	FIXCROSS	n/a	n/a	n/a	n/a	n/a	n/a	n/a	n/a
260.2166	0.6	T_COLOR_NAME	12	Incongruent	czerwony	red	niebieski	blue	hit	n/a
260.7785	n/a	RESPONSE	n/a	n/a	n/a	n/a	n/a	n/a	n/a	red
260.8166	0.5333	FEEDBACK	n/a	n/a	n/a	n/a	n/a	n/a	n/a	n/a
261.35	1.05	ITI	n/a	n/a	n/a	n/a	n/a	n/a	n/a	n/a
263.4158	n/a	RESPONSE	n/a	n/a	n/a	n/a	n/a	n/a	n/a	n/a
263.4833	1.0	ITI	n/a	n/a	n/a	n/a	n/a	n/a	n/a	n/a
264.4833	0.5	FIXCROSS	n/a	n/a	n/a	n/a	n/a	n/a	n/a	n/a
264.9834	0.8667	COLOR_NAME	1	Neutral	zielony	green	Neutral	Neutral	hit	n/a
265.8456	n/a	RESPONSE	n/a	n/a	n/a	n/a	n/a	n/a	n/a	green
265.85	1.0	ITI	n/a	n/a	n/a	n/a	n/a	n/a	n/a	n/a
266.85	0.5	FIXCROSS	n/a	n/a	n/a	n/a	n/a	n/a	n/a	n/a
267.3501	0.8	COLOR_NAME	2	Incongruent	niebieski	blue	czerwony	red	hit	n/a
268.1314	n/a	RESPONSE	n/a	n/a	n/a	n/a	n/a	n/a	n/a	blue
268.1501	1.0	ITI	n/a	n/a	n/a	n/a	n/a	n/a	n/a	n/a
269.1501	0.5	FIXCROSS	n/a	n/a	n/a	n/a	n/a	n/a	n/a	n/a
269.6501	0.5333	COLOR_NAME	3	Incongruent	niebieski	blue	zielony	green	hit	n/a
270.1775	n/a	RESPONSE	n/a	n/a	n/a	n/a	n/a	n/a	n/a	blue
270.1834	1.0	ITI	n/a	n/a	n/a	n/a	n/a	n/a	n/a	n/a
271.1834	0.5	FIXCROSS	n/a	n/a	n/a	n/a	n/a	n/a	n/a	n/a
271.6834	0.7333	COLOR_NAME	4	Incongruent	czerwony	red	zielony	green	hit	n/a
272.3994	n/a	RESPONSE	n/a	n/a	n/a	n/a	n/a	n/a	n/a	red
272.4168	1.0	ITI	n/a	n/a	n/a	n/a	n/a	n/a	n/a	n/a
273.4168	0.5	FIXCROSS	n/a	n/a	n/a	n/a	n/a	n/a	n/a	n/a
273.9168	0.8667	COLOR_NAME	5	Neutral	żółty	yellow	Neutral	Neutral	hit	n/a
274.7493	n/a	RESPONSE	n/a	n/a	n/a	n/a	n/a	n/a	n/a	yellow
274.7835	1.0333	ITI	n/a	n/a	n/a	n/a	n/a	n/a	n/a	n/a
275.8168	0.5333	FIXCROSS	n/a	n/a	n/a	n/a	n/a	n/a	n/a	n/a
276.3502	0.85	COLOR_NAME	6	Incongruent	zielony	green	niebieski	blue	hit	n/a
277.163	n/a	RESPONSE	n/a	n/a	n/a	n/a	n/a	n/a	n/a	green
277.2002	1.0333	ITI	n/a	n/a	n/a	n/a	n/a	n/a	n/a	n/a
278.2335	0.5333	FIXCROSS	n/a	n/a	n/a	n/a	n/a	n/a	n/a	n/a
278.7669	0.7	COLOR_NAME	7	Incongruent	czerwony	red	żółty	yellow	hit	n/a
279.4329	n/a	RESPONSE	n/a	n/a	n/a	n/a	n/a	n/a	n/a	red
279.4669	1.0333	ITI	n/a	n/a	n/a	n/a	n/a	n/a	n/a	n/a
280.5002	0.5333	FIXCROSS	n/a	n/a	n/a	n/a	n/a	n/a	n/a	n/a
281.0335	0.6667	COLOR_NAME	8	Neutral	czerwony	red	Neutral	Neutral	hit	n/a
281.6707	n/a	RESPONSE	n/a	n/a	n/a	n/a	n/a	n/a	n/a	red
281.7002	1.0333	ITI	n/a	n/a	n/a	n/a	n/a	n/a	n/a	n/a
282.7336	0.5333	FIXCROSS	n/a	n/a	n/a	n/a	n/a	n/a	n/a	n/a
283.2669	0.65	COLOR_NAME	9	Neutral	żółty	yellow	Neutral	Neutral	hit	n/a
283.8766	n/a	RESPONSE	n/a	n/a	n/a	n/a	n/a	n/a	n/a	yellow
283.9169	1.0333	ITI	n/a	n/a	n/a	n/a	n/a	n/a	n/a	n/a
284.9503	0.5333	FIXCROSS	n/a	n/a	n/a	n/a	n/a	n/a	n/a	n/a
285.4836	0.4333	COLOR_NAME	10	Neutral	niebieski	blue	Neutral	Neutral	hit	n/a
285.8747	n/a	RESPONSE	n/a	n/a	n/a	n/a	n/a	n/a	n/a	blue
285.9169	1.0334	ITI	n/a	n/a	n/a	n/a	n/a	n/a	n/a	n/a
286.9503	0.5333	FIXCROSS	n/a	n/a	n/a	n/a	n/a	n/a	n/a	n/a
287.4836	0.8667	COLOR_NAME	11	Incongruent	żółty	yellow	zielony	green	hit	n/a
288.3204	n/a	RESPONSE	n/a	n/a	n/a	n/a	n/a	n/a	n/a	yellow
288.3503	1.0334	ITI	n/a	n/a	n/a	n/a	n/a	n/a	n/a	n/a
289.3836	0.5333	FIXCROSS	n/a	n/a	n/a	n/a	n/a	n/a	n/a	n/a
289.917	1.0167	COLOR_NAME	12	Incongruent	żółty	yellow	zielony	green	hit	n/a
290.894	n/a	RESPONSE	n/a	n/a	n/a	n/a	n/a	n/a	n/a	yellow
290.9337	1.0334	ITI	n/a	n/a	n/a	n/a	n/a	n/a	n/a	n/a
291.967	0.5333	FIXCROSS	n/a	n/a	n/a	n/a	n/a	n/a	n/a	n/a
292.5004	0.7333	COLOR_NAME	13	Incongruent	czerwony	red	niebieski	blue	hit	n/a
293.1959	n/a	RESPONSE	n/a	n/a	n/a	n/a	n/a	n/a	n/a	red
293.2337	1.0334	ITI	n/a	n/a	n/a	n/a	n/a	n/a	n/a	n/a
294.267	0.5333	FIXCROSS	n/a	n/a	n/a	n/a	n/a	n/a	n/a	n/a
294.8004	0.7333	COLOR_NAME	14	Incongruent	żółty	yellow	zielony	green	hit	n/a
295.4976	n/a	RESPONSE	n/a	n/a	n/a	n/a	n/a	n/a	n/a	yellow
295.5337	1.0333	ITI	n/a	n/a	n/a	n/a	n/a	n/a	n/a	n/a
296.5671	0.5333	FIXCROSS	n/a	n/a	n/a	n/a	n/a	n/a	n/a	n/a
297.1004	0.8333	COLOR_NAME	15	Neutral	czerwony	red	Neutral	Neutral	hit	n/a
297.8953	n/a	RESPONSE	n/a	n/a	n/a	n/a	n/a	n/a	n/a	red
297.9338	1.0333	ITI	n/a	n/a	n/a	n/a	n/a	n/a	n/a	n/a
298.9671	0.5333	FIXCROSS	n/a	n/a	n/a	n/a	n/a	n/a	n/a	n/a
299.5004	0.6167	COLOR_NAME	16	Incongruent	żółty	yellow	niebieski	blue	hit	n/a
300.0853	n/a	RESPONSE	n/a	n/a	n/a	n/a	n/a	n/a	n/a	yellow
300.1171	1.0333	ITI	n/a	n/a	n/a	n/a	n/a	n/a	n/a	n/a
301.1505	0.5333	FIXCROSS	n/a	n/a	n/a	n/a	n/a	n/a	n/a	n/a
301.6838	0.7	COLOR_NAME	17	Neutral	zielony	green	Neutral	Neutral	incorrect	n/a
302.3551	n/a	RESPONSE	n/a	n/a	n/a	n/a	n/a	n/a	n/a	blue
302.3838	1.0334	ITI	n/a	n/a	n/a	n/a	n/a	n/a	n/a	n/a
303.4172	0.5333	FIXCROSS	n/a	n/a	n/a	n/a	n/a	n/a	n/a	n/a
303.9505	0.8667	COLOR_NAME	18	Incongruent	zielony	green	żółty	yellow	hit	n/a
304.7849	n/a	RESPONSE	n/a	n/a	n/a	n/a	n/a	n/a	n/a	green
304.8172	1.0333	ITI	n/a	n/a	n/a	n/a	n/a	n/a	n/a	n/a
305.8505	0.5333	FIXCROSS	n/a	n/a	n/a	n/a	n/a	n/a	n/a	n/a
306.3838	0.7667	COLOR_NAME	19	Neutral	czerwony	red	Neutral	Neutral	hit	n/a
307.1187	n/a	RESPONSE	n/a	n/a	n/a	n/a	n/a	n/a	n/a	red
307.1505	1.0333	ITI	n/a	n/a	n/a	n/a	n/a	n/a	n/a	n/a
308.1839	0.5333	FIXCROSS	n/a	n/a	n/a	n/a	n/a	n/a	n/a	n/a
308.7172	0.75	COLOR_NAME	20	Incongruent	niebieski	blue	żółty	yellow	hit	n/a
309.4365	n/a	RESPONSE	n/a	n/a	n/a	n/a	n/a	n/a	n/a	blue
309.4672	1.0334	ITI	n/a	n/a	n/a	n/a	n/a	n/a	n/a	n/a
310.5006	0.5333	FIXCROSS	n/a	n/a	n/a	n/a	n/a	n/a	n/a	n/a
311.0339	0.6	COLOR_NAME	21	Neutral	żółty	yellow	Neutral	Neutral	hit	n/a
311.5944	n/a	RESPONSE	n/a	n/a	n/a	n/a	n/a	n/a	n/a	yellow
311.6339	1.0333	ITI	n/a	n/a	n/a	n/a	n/a	n/a	n/a	n/a
312.6673	0.5333	FIXCROSS	n/a	n/a	n/a	n/a	n/a	n/a	n/a	n/a
313.2006	0.5333	COLOR_NAME	22	Neutral	żółty	yellow	Neutral	Neutral	hit	n/a
313.7045	n/a	RESPONSE	n/a	n/a	n/a	n/a	n/a	n/a	n/a	yellow
313.7339	1.0333	ITI	n/a	n/a	n/a	n/a	n/a	n/a	n/a	n/a
314.7673	0.5333	FIXCROSS	n/a	n/a	n/a	n/a	n/a	n/a	n/a	n/a
315.3006	0.95	COLOR_NAME	23	Incongruent	zielony	green	żółty	yellow	hit	n/a
316.2141	n/a	RESPONSE	n/a	n/a	n/a	n/a	n/a	n/a	n/a	green
316.2506	1.0333	ITI	n/a	n/a	n/a	n/a	n/a	n/a	n/a	n/a
317.284	0.5333	FIXCROSS	n/a	n/a	n/a	n/a	n/a	n/a	n/a	n/a
317.8173	1.0833	COLOR_NAME	24	Incongruent	czerwony	red	zielony	green	hit	n/a
318.8676	n/a	RESPONSE	n/a	n/a	n/a	n/a	n/a	n/a	n/a	red
318.9007	1.0334	ITI	n/a	n/a	n/a	n/a	n/a	n/a	n/a	n/a
319.934	0.5333	FIXCROSS	n/a	n/a	n/a	n/a	n/a	n/a	n/a	n/a
320.4674	0.6167	COLOR_NAME	25	Incongruent	czerwony	red	niebieski	blue	hit	n/a
321.0415	n/a	RESPONSE	n/a	n/a	n/a	n/a	n/a	n/a	n/a	red
321.084	1.0333	ITI	n/a	n/a	n/a	n/a	n/a	n/a	n/a	n/a
322.1174	0.5334	FIXCROSS	n/a	n/a	n/a	n/a	n/a	n/a	n/a	n/a
322.6507	0.7	COLOR_NAME	26	Incongruent	żółty	yellow	niebieski	blue	hit	n/a
323.3114	n/a	RESPONSE	n/a	n/a	n/a	n/a	n/a	n/a	n/a	yellow
323.3507	1.0333	ITI	n/a	n/a	n/a	n/a	n/a	n/a	n/a	n/a
324.3841	0.5333	FIXCROSS	n/a	n/a	n/a	n/a	n/a	n/a	n/a	n/a
324.9174	0.7333	COLOR_NAME	27	Neutral	zielony	green	Neutral	Neutral	hit	n/a
325.6133	n/a	RESPONSE	n/a	n/a	n/a	n/a	n/a	n/a	n/a	green
325.6508	1.0333	ITI	n/a	n/a	n/a	n/a	n/a	n/a	n/a	n/a
326.6841	0.5333	FIXCROSS	n/a	n/a	n/a	n/a	n/a	n/a	n/a	n/a
327.2174	0.7667	COLOR_NAME	28	Incongruent	żółty	yellow	niebieski	blue	hit	n/a
327.9471	n/a	RESPONSE	n/a	n/a	n/a	n/a	n/a	n/a	n/a	yellow
327.9841	1.0334	ITI	n/a	n/a	n/a	n/a	n/a	n/a	n/a	n/a
329.0175	0.5333	FIXCROSS	n/a	n/a	n/a	n/a	n/a	n/a	n/a	n/a
329.5508	0.7	COLOR_NAME	29	Incongruent	czerwony	red	żółty	yellow	hit	n/a
330.217	n/a	RESPONSE	n/a	n/a	n/a	n/a	n/a	n/a	n/a	red
330.2508	1.0333	ITI	n/a	n/a	n/a	n/a	n/a	n/a	n/a	n/a
331.2842	0.5333	FIXCROSS	n/a	n/a	n/a	n/a	n/a	n/a	n/a	n/a
331.8175	0.4333	COLOR_NAME	30	Incongruent	czerwony	red	żółty	yellow	hit	n/a
332.2151	n/a	RESPONSE	n/a	n/a	n/a	n/a	n/a	n/a	n/a	red
332.2508	1.0334	ITI	n/a	n/a	n/a	n/a	n/a	n/a	n/a	n/a
333.2842	0.5333	FIXCROSS	n/a	n/a	n/a	n/a	n/a	n/a	n/a	n/a
333.8175	0.8167	COLOR_NAME	31	Incongruent	zielony	green	czerwony	red	hit	n/a
334.5968	n/a	RESPONSE	n/a	n/a	n/a	n/a	n/a	n/a	n/a	green
334.6342	1.0333	ITI	n/a	n/a	n/a	n/a	n/a	n/a	n/a	n/a
335.6675	0.5333	FIXCROSS	n/a	n/a	n/a	n/a	n/a	n/a	n/a	n/a
336.2009	0.7	COLOR_NAME	32	Neutral	niebieski	blue	Neutral	Neutral	hit	n/a
336.8667	n/a	RESPONSE	n/a	n/a	n/a	n/a	n/a	n/a	n/a	blue
336.9009	1.0334	ITI	n/a	n/a	n/a	n/a	n/a	n/a	n/a	n/a
337.9342	0.5333	FIXCROSS	n/a	n/a	n/a	n/a	n/a	n/a	n/a	n/a
338.4676	0.85	COLOR_NAME	33	Incongruent	zielony	green	niebieski	blue	hit	n/a
339.2804	n/a	RESPONSE	n/a	n/a	n/a	n/a	n/a	n/a	n/a	green
339.3176	1.0333	ITI	n/a	n/a	n/a	n/a	n/a	n/a	n/a	n/a
340.3509	0.5333	FIXCROSS	n/a	n/a	n/a	n/a	n/a	n/a	n/a	n/a
340.8843	0.55	COLOR_NAME	34	Neutral	zielony	green	Neutral	Neutral	hit	n/a
341.3904	n/a	RESPONSE	n/a	n/a	n/a	n/a	n/a	n/a	n/a	green
341.4343	1.0334	ITI	n/a	n/a	n/a	n/a	n/a	n/a	n/a	n/a
342.4676	0.5333	FIXCROSS	n/a	n/a	n/a	n/a	n/a	n/a	n/a	n/a
343.001	0.7167	COLOR_NAME	35	Incongruent	żółty	yellow	czerwony	red	hit	n/a
343.6763	n/a	RESPONSE	n/a	n/a	n/a	n/a	n/a	n/a	n/a	yellow
343.7176	1.0334	ITI	n/a	n/a	n/a	n/a	n/a	n/a	n/a	n/a
344.751	0.5333	FIXCROSS	n/a	n/a	n/a	n/a	n/a	n/a	n/a	n/a
345.2843	0.7	COLOR_NAME	36	Incongruent	zielony	green	niebieski	blue	hit	n/a
345.9461	n/a	RESPONSE	n/a	n/a	n/a	n/a	n/a	n/a	n/a	green
345.9843	1.0334	ITI	n/a	n/a	n/a	n/a	n/a	n/a	n/a	n/a
347.0177	0.5333	FIXCROSS	n/a	n/a	n/a	n/a	n/a	n/a	n/a	n/a
347.551	0.6667	COLOR_NAME	37	Neutral	niebieski	blue	Neutral	Neutral	hit	n/a
348.184	n/a	RESPONSE	n/a	n/a	n/a	n/a	n/a	n/a	n/a	blue
348.2177	1.0333	ITI	n/a	n/a	n/a	n/a	n/a	n/a	n/a	n/a
349.251	0.5333	FIXCROSS	n/a	n/a	n/a	n/a	n/a	n/a	n/a	n/a
349.7844	0.6333	COLOR_NAME	38	Incongruent	zielony	green	żółty	yellow	hit	n/a
350.3898	n/a	RESPONSE	n/a	n/a	n/a	n/a	n/a	n/a	n/a	green
350.4177	1.0333	ITI	n/a	n/a	n/a	n/a	n/a	n/a	n/a	n/a
351.4511	0.5333	FIXCROSS	n/a	n/a	n/a	n/a	n/a	n/a	n/a	n/a
351.9844	0.8667	COLOR_NAME	39	Incongruent	niebieski	blue	żółty	yellow	hit	n/a
352.8196	n/a	RESPONSE	n/a	n/a	n/a	n/a	n/a	n/a	n/a	blue
352.8511	1.0334	ITI	n/a	n/a	n/a	n/a	n/a	n/a	n/a	n/a
353.8844	0.5333	FIXCROSS	n/a	n/a	n/a	n/a	n/a	n/a	n/a	n/a
354.4178	0.8833	COLOR_NAME	40	Neutral	zielony	green	Neutral	Neutral	hit	n/a
355.2653	n/a	RESPONSE	n/a	n/a	n/a	n/a	n/a	n/a	n/a	green
355.3011	1.0333	ITI	n/a	n/a	n/a	n/a	n/a	n/a	n/a	n/a
356.3345	0.5333	FIXCROSS	n/a	n/a	n/a	n/a	n/a	n/a	n/a	n/a
356.8678	0.6333	COLOR_NAME	41	Neutral	żółty	yellow	Neutral	Neutral	hit	n/a
357.4712	n/a	RESPONSE	n/a	n/a	n/a	n/a	n/a	n/a	n/a	yellow
357.5011	1.0333	ITI	n/a	n/a	n/a	n/a	n/a	n/a	n/a	n/a
358.5345	0.5333	FIXCROSS	n/a	n/a	n/a	n/a	n/a	n/a	n/a	n/a
359.0678	0.8	COLOR_NAME	42	Incongruent	żółty	yellow	czerwony	red	hit	n/a
359.837	n/a	RESPONSE	n/a	n/a	n/a	n/a	n/a	n/a	n/a	yellow
359.8678	1.0334	ITI	n/a	n/a	n/a	n/a	n/a	n/a	n/a	n/a
360.9012	0.5333	FIXCROSS	n/a	n/a	n/a	n/a	n/a	n/a	n/a	n/a
361.4345	0.7333	COLOR_NAME	43	Neutral	czerwony	red	Neutral	Neutral	hit	n/a
362.1389	n/a	RESPONSE	n/a	n/a	n/a	n/a	n/a	n/a	n/a	red
362.1679	1.0334	ITI	n/a	n/a	n/a	n/a	n/a	n/a	n/a	n/a
363.2012	0.5333	FIXCROSS	n/a	n/a	n/a	n/a	n/a	n/a	n/a	n/a
363.7345	0.7833	COLOR_NAME	44	Incongruent	zielony	green	czerwony	red	hit	n/a
364.4887	n/a	RESPONSE	n/a	n/a	n/a	n/a	n/a	n/a	n/a	green
364.5179	1.0334	ITI	n/a	n/a	n/a	n/a	n/a	n/a	n/a	n/a
365.5512	0.5333	FIXCROSS	n/a	n/a	n/a	n/a	n/a	n/a	n/a	n/a
366.0846	0.6334	COLOR_NAME	45	Neutral	zielony	green	Neutral	Neutral	hit	n/a
366.6786	n/a	RESPONSE	n/a	n/a	n/a	n/a	n/a	n/a	n/a	green
366.7179	1.0333	ITI	n/a	n/a	n/a	n/a	n/a	n/a	n/a	n/a
367.7513	0.5333	FIXCROSS	n/a	n/a	n/a	n/a	n/a	n/a	n/a	n/a
368.2846	0.6833	COLOR_NAME	46	Incongruent	żółty	yellow	czerwony	red	hit	n/a
368.9325	n/a	RESPONSE	n/a	n/a	n/a	n/a	n/a	n/a	n/a	yellow
368.9679	1.0333	ITI	n/a	n/a	n/a	n/a	n/a	n/a	n/a	n/a
370.0013	0.5333	FIXCROSS	n/a	n/a	n/a	n/a	n/a	n/a	n/a	n/a
370.5346	0.6667	COLOR_NAME	47	Neutral	zielony	green	Neutral	Neutral	hit	n/a
371.1703	n/a	RESPONSE	n/a	n/a	n/a	n/a	n/a	n/a	n/a	green
371.2013	1.0333	ITI	n/a	n/a	n/a	n/a	n/a	n/a	n/a	n/a
372.2346	0.5333	FIXCROSS	n/a	n/a	n/a	n/a	n/a	n/a	n/a	n/a
372.768	0.6667	COLOR_NAME	48	Neutral	niebieski	blue	Neutral	Neutral	hit	n/a
373.3922	n/a	RESPONSE	n/a	n/a	n/a	n/a	n/a	n/a	n/a	blue
373.4347	1.0333	ITI	n/a	n/a	n/a	n/a	n/a	n/a	n/a	n/a
374.468	0.5333	FIXCROSS	n/a	n/a	n/a	n/a	n/a	n/a	n/a	n/a
375.0013	0.65	COLOR_NAME	49	Neutral	żółty	yellow	Neutral	Neutral	hit	n/a
375.6141	n/a	RESPONSE	n/a	n/a	n/a	n/a	n/a	n/a	n/a	yellow
375.6514	1.0333	ITI	n/a	n/a	n/a	n/a	n/a	n/a	n/a	n/a
376.6847	0.5333	FIXCROSS	n/a	n/a	n/a	n/a	n/a	n/a	n/a	n/a
377.218	0.9334	COLOR_NAME	50	Incongruent	niebieski	blue	zielony	green	hit	n/a
378.1078	n/a	RESPONSE	n/a	n/a	n/a	n/a	n/a	n/a	n/a	blue
378.1514	1.0333	ITI	n/a	n/a	n/a	n/a	n/a	n/a	n/a	n/a
379.1847	0.5334	FIXCROSS	n/a	n/a	n/a	n/a	n/a	n/a	n/a	n/a
379.7181	0.7333	COLOR_NAME	51	Incongruent	niebieski	blue	żółty	yellow	hit	n/a
380.4096	n/a	RESPONSE	n/a	n/a	n/a	n/a	n/a	n/a	n/a	blue
380.4514	1.0333	ITI	n/a	n/a	n/a	n/a	n/a	n/a	n/a	n/a
381.4848	0.5333	FIXCROSS	n/a	n/a	n/a	n/a	n/a	n/a	n/a	n/a
382.0181	0.6	COLOR_NAME	52	Neutral	niebieski	blue	Neutral	Neutral	hit	n/a
382.5836	n/a	RESPONSE	n/a	n/a	n/a	n/a	n/a	n/a	n/a	blue
382.6181	1.0333	ITI	n/a	n/a	n/a	n/a	n/a	n/a	n/a	n/a
383.6514	0.5333	FIXCROSS	n/a	n/a	n/a	n/a	n/a	n/a	n/a	n/a
384.1848	0.9667	COLOR_NAME	53	Neutral	czerwony	red	Neutral	Neutral	hit	n/a
385.1091	n/a	RESPONSE	n/a	n/a	n/a	n/a	n/a	n/a	n/a	red
385.1515	1.0333	ITI	n/a	n/a	n/a	n/a	n/a	n/a	n/a	n/a
386.1848	0.5333	FIXCROSS	n/a	n/a	n/a	n/a	n/a	n/a	n/a	n/a
386.7182	0.8167	COLOR_NAME	54	Neutral	czerwony	red	Neutral	Neutral	hit	n/a
387.4909	n/a	RESPONSE	n/a	n/a	n/a	n/a	n/a	n/a	n/a	red
387.5348	1.0333	ITI	n/a	n/a	n/a	n/a	n/a	n/a	n/a	n/a
388.5682	0.5333	FIXCROSS	n/a	n/a	n/a	n/a	n/a	n/a	n/a	n/a
389.1015	0.6167	COLOR_NAME	55	Neutral	niebieski	blue	Neutral	Neutral	hit	n/a
389.6808	n/a	RESPONSE	n/a	n/a	n/a	n/a	n/a	n/a	n/a	blue
389.7182	1.0333	ITI	n/a	n/a	n/a	n/a	n/a	n/a	n/a	n/a
390.7515	0.5333	FIXCROSS	n/a	n/a	n/a	n/a	n/a	n/a	n/a	n/a
391.2849	0.6333	COLOR_NAME	56	Neutral	żółty	yellow	Neutral	Neutral	hit	n/a
391.8868	n/a	RESPONSE	n/a	n/a	n/a	n/a	n/a	n/a	n/a	yellow
391.9182	1.0333	ITI	n/a	n/a	n/a	n/a	n/a	n/a	n/a	n/a
392.9516	0.5333	FIXCROSS	n/a	n/a	n/a	n/a	n/a	n/a	n/a	n/a
393.4849	0.6667	COLOR_NAME	57	Neutral	zielony	green	Neutral	Neutral	hit	n/a
394.1086	n/a	RESPONSE	n/a	n/a	n/a	n/a	n/a	n/a	n/a	green
394.1516	1.0333	ITI	n/a	n/a	n/a	n/a	n/a	n/a	n/a	n/a
395.1849	0.5333	FIXCROSS	n/a	n/a	n/a	n/a	n/a	n/a	n/a	n/a
395.7183	0.8	COLOR_NAME	58	Neutral	niebieski	blue	Neutral	Neutral	hit	n/a
396.4745	n/a	RESPONSE	n/a	n/a	n/a	n/a	n/a	n/a	n/a	blue
396.5183	1.0334	ITI	n/a	n/a	n/a	n/a	n/a	n/a	n/a	n/a
397.5516	0.5333	FIXCROSS	n/a	n/a	n/a	n/a	n/a	n/a	n/a	n/a
398.0849	0.6334	COLOR_NAME	59	Incongruent	niebieski	blue	czerwony	red	hit	n/a
398.6804	n/a	RESPONSE	n/a	n/a	n/a	n/a	n/a	n/a	n/a	blue
398.7183	1.0333	ITI	n/a	n/a	n/a	n/a	n/a	n/a	n/a	n/a
399.7516	0.5333	FIXCROSS	n/a	n/a	n/a	n/a	n/a	n/a	n/a	n/a
400.285	0.6	COLOR_NAME	60	Neutral	niebieski	blue	Neutral	Neutral	hit	n/a
400.8543	n/a	RESPONSE	n/a	n/a	n/a	n/a	n/a	n/a	n/a	blue
400.885	1.0333	ITI	n/a	n/a	n/a	n/a	n/a	n/a	n/a	n/a
401.9183	0.5333	FIXCROSS	n/a	n/a	n/a	n/a	n/a	n/a	n/a	n/a
402.4517	0.7167	COLOR_NAME	61	Neutral	czerwony	red	Neutral	Neutral	hit	n/a
403.1402	n/a	RESPONSE	n/a	n/a	n/a	n/a	n/a	n/a	n/a	red
403.1683	1.0334	ITI	n/a	n/a	n/a	n/a	n/a	n/a	n/a	n/a
404.2017	0.5333	FIXCROSS	n/a	n/a	n/a	n/a	n/a	n/a	n/a	n/a
404.735	0.6	COLOR_NAME	62	Incongruent	czerwony	red	zielony	green	hit	n/a
405.2982	n/a	RESPONSE	n/a	n/a	n/a	n/a	n/a	n/a	n/a	red
405.335	1.0334	ITI	n/a	n/a	n/a	n/a	n/a	n/a	n/a	n/a
406.3684	0.5333	FIXCROSS	n/a	n/a	n/a	n/a	n/a	n/a	n/a	n/a
406.9017	0.5	COLOR_NAME	63	Incongruent	czerwony	red	niebieski	blue	hit	n/a
407.3602	n/a	RESPONSE	n/a	n/a	n/a	n/a	n/a	n/a	n/a	red
407.4017	1.0333	ITI	n/a	n/a	n/a	n/a	n/a	n/a	n/a	n/a
408.4351	0.5333	FIXCROSS	n/a	n/a	n/a	n/a	n/a	n/a	n/a	n/a
408.9684	0.6667	COLOR_NAME	64	Neutral	żółty	yellow	Neutral	Neutral	hit	n/a
409.598	n/a	RESPONSE	n/a	n/a	n/a	n/a	n/a	n/a	n/a	yellow
409.6351	1.0333	ITI	n/a	n/a	n/a	n/a	n/a	n/a	n/a	n/a
410.6684	0.5333	FIXCROSS	n/a	n/a	n/a	n/a	n/a	n/a	n/a	n/a
411.2018	0.5167	COLOR_NAME	65	Neutral	żółty	yellow	Neutral	Neutral	hit	n/a
411.6761	n/a	RESPONSE	n/a	n/a	n/a	n/a	n/a	n/a	n/a	yellow
411.7185	1.0333	ITI	n/a	n/a	n/a	n/a	n/a	n/a	n/a	n/a
412.7518	0.5333	FIXCROSS	n/a	n/a	n/a	n/a	n/a	n/a	n/a	n/a
413.2851	0.75	COLOR_NAME	66	Neutral	czerwony	red	Neutral	Neutral	hit	n/a
413.9939	n/a	RESPONSE	n/a	n/a	n/a	n/a	n/a	n/a	n/a	red
414.0351	1.0333	ITI	n/a	n/a	n/a	n/a	n/a	n/a	n/a	n/a
415.0685	0.5334	FIXCROSS	n/a	n/a	n/a	n/a	n/a	n/a	n/a	n/a
415.6018	0.7	COLOR_NAME	67	Neutral	czerwony	red	Neutral	Neutral	hit	n/a
416.2637	n/a	RESPONSE	n/a	n/a	n/a	n/a	n/a	n/a	n/a	red
416.3018	1.0333	ITI	n/a	n/a	n/a	n/a	n/a	n/a	n/a	n/a
417.3352	0.5333	FIXCROSS	n/a	n/a	n/a	n/a	n/a	n/a	n/a	n/a
417.8685	0.8833	COLOR_NAME	68	Incongruent	zielony	green	czerwony	red	hit	n/a
418.7095	n/a	RESPONSE	n/a	n/a	n/a	n/a	n/a	n/a	n/a	green
418.7519	1.0333	ITI	n/a	n/a	n/a	n/a	n/a	n/a	n/a	n/a
419.7852	0.5333	FIXCROSS	n/a	n/a	n/a	n/a	n/a	n/a	n/a	n/a
420.3185	0.7833	COLOR_NAME	69	Incongruent	niebieski	blue	zielony	green	hit	n/a
421.0593	n/a	RESPONSE	n/a	n/a	n/a	n/a	n/a	n/a	n/a	blue
421.1019	1.0333	ITI	n/a	n/a	n/a	n/a	n/a	n/a	n/a	n/a
422.1352	0.5333	FIXCROSS	n/a	n/a	n/a	n/a	n/a	n/a	n/a	n/a
422.6686	0.8667	COLOR_NAME	70	Neutral	niebieski	blue	Neutral	Neutral	hit	n/a
423.5049	n/a	RESPONSE	n/a	n/a	n/a	n/a	n/a	n/a	n/a	blue
423.5352	1.0334	ITI	n/a	n/a	n/a	n/a	n/a	n/a	n/a	n/a
424.5686	0.5333	FIXCROSS	n/a	n/a	n/a	n/a	n/a	n/a	n/a	n/a
425.1019	0.9	COLOR_NAME	71	Neutral	zielony	green	Neutral	Neutral	hit	n/a
425.9667	n/a	RESPONSE	n/a	n/a	n/a	n/a	n/a	n/a	n/a	green
426.0019	1.0333	ITI	n/a	n/a	n/a	n/a	n/a	n/a	n/a	n/a
427.0353	0.5333	FIXCROSS	n/a	n/a	n/a	n/a	n/a	n/a	n/a	n/a
427.5686	1.0167	COLOR_NAME	72	Incongruent	niebieski	blue	czerwony	red	hit	n/a
428.5563	n/a	RESPONSE	n/a	n/a	n/a	n/a	n/a	n/a	n/a	blue
428.5853	1.05	ITI	n/a	n/a	n/a	n/a	n/a	n/a	n/a	n/a
432.5524	n/a	RESPONSE	n/a	n/a	n/a	n/a	n/a	n/a	n/a	n/a
