onset	duration	trial_type	trial_number	stroop_condition	stim_text(PL)	stim_text(eng)	stim_color(PL)	stim_color(eng)	response_type	response_color
0.0	n/a	RESPONSE	n/a	n/a	n/a	n/a	n/a	n/a	n/a	yellow
0.0	n/a	RESPONSE	n/a	n/a	n/a	n/a	n/a	n/a	n/a	green
0.0	n/a	RESPONSE	n/a	n/a	n/a	n/a	n/a	n/a	n/a	yellow
0.0001	n/a	RESPONSE	n/a	n/a	n/a	n/a	n/a	n/a	n/a	yellow
0.0001	n/a	RESPONSE	n/a	n/a	n/a	n/a	n/a	n/a	n/a	n/a
0.0001	n/a	RESPONSE	n/a	n/a	n/a	n/a	n/a	n/a	n/a	n/a
0.0001	n/a	RESPONSE	n/a	n/a	n/a	n/a	n/a	n/a	n/a	n/a
0.0001	n/a	RESPONSE	n/a	n/a	n/a	n/a	n/a	n/a	n/a	red
0.0001	n/a	RESPONSE	n/a	n/a	n/a	n/a	n/a	n/a	n/a	green
0.0001	n/a	RESPONSE	n/a	n/a	n/a	n/a	n/a	n/a	n/a	red
0.0002	n/a	RESPONSE	n/a	n/a	n/a	n/a	n/a	n/a	n/a	green
59.0247	n/a	RESPONSE	n/a	n/a	n/a	n/a	n/a	n/a	n/a	n/a
59.0835	1.0167	ITI	n/a	n/a	n/a	n/a	n/a	n/a	n/a	n/a
60.1002	0.5167	FIXCROSS	n/a	n/a	n/a	n/a	n/a	n/a	n/a	n/a
60.6169	1.05	T_INK	1	Neutral	xxxxxxx	xxxxxxx	niebieski	blue	hit	n/a
61.6445	n/a	RESPONSE	n/a	n/a	n/a	n/a	n/a	n/a	n/a	blue
61.6669	0.5167	FEEDBACK	n/a	n/a	n/a	n/a	n/a	n/a	n/a	n/a
62.1835	1.0167	ITI	n/a	n/a	n/a	n/a	n/a	n/a	n/a	n/a
63.2002	0.5167	FIXCROSS	n/a	n/a	n/a	n/a	n/a	n/a	n/a	n/a
63.7169	0.85	T_INK	2	Neutral	xxxxxxxxx	xxxxxxxxx	żółty	yellow	hit	n/a
64.5359	n/a	RESPONSE	n/a	n/a	n/a	n/a	n/a	n/a	n/a	yellow
64.5669	0.5167	FEEDBACK	n/a	n/a	n/a	n/a	n/a	n/a	n/a	n/a
65.0836	1.0167	ITI	n/a	n/a	n/a	n/a	n/a	n/a	n/a	n/a
66.1002	0.5167	FIXCROSS	n/a	n/a	n/a	n/a	n/a	n/a	n/a	n/a
66.6169	1.3	T_INK	3	Incongruent	niebieski	blue	czerwony	red	hit	n/a
67.8906	n/a	RESPONSE	n/a	n/a	n/a	n/a	n/a	n/a	n/a	red
67.9169	0.5167	FEEDBACK	n/a	n/a	n/a	n/a	n/a	n/a	n/a	n/a
68.4336	1.0167	ITI	n/a	n/a	n/a	n/a	n/a	n/a	n/a	n/a
69.4503	0.5167	FIXCROSS	n/a	n/a	n/a	n/a	n/a	n/a	n/a	n/a
69.9669	1.15	T_INK	4	Incongruent	zielony	green	niebieski	blue	hit	n/a
71.0855	n/a	RESPONSE	n/a	n/a	n/a	n/a	n/a	n/a	n/a	blue
71.1169	0.5167	FEEDBACK	n/a	n/a	n/a	n/a	n/a	n/a	n/a	n/a
71.6336	1.0167	ITI	n/a	n/a	n/a	n/a	n/a	n/a	n/a	n/a
72.6503	0.5167	FIXCROSS	n/a	n/a	n/a	n/a	n/a	n/a	n/a	n/a
73.167	1.1	T_INK	5	Incongruent	żółty	yellow	niebieski	blue	hit	n/a
74.2324	n/a	RESPONSE	n/a	n/a	n/a	n/a	n/a	n/a	n/a	blue
74.267	0.5167	FEEDBACK	n/a	n/a	n/a	n/a	n/a	n/a	n/a	n/a
74.7836	1.0167	ITI	n/a	n/a	n/a	n/a	n/a	n/a	n/a	n/a
75.8003	0.5167	FIXCROSS	n/a	n/a	n/a	n/a	n/a	n/a	n/a	n/a
76.317	1.0167	T_INK	6	Neutral	xxxxx	xxxxx	czerwony	red	hit	n/a
77.2995	n/a	RESPONSE	n/a	n/a	n/a	n/a	n/a	n/a	n/a	red
77.3337	0.5167	FEEDBACK	n/a	n/a	n/a	n/a	n/a	n/a	n/a	n/a
77.8503	1.0167	ITI	n/a	n/a	n/a	n/a	n/a	n/a	n/a	n/a
78.867	0.5167	FIXCROSS	n/a	n/a	n/a	n/a	n/a	n/a	n/a	n/a
79.3837	0.8	T_INK	7	Neutral	xxxxx	xxxxx	niebieski	blue	hit	n/a
80.159	n/a	RESPONSE	n/a	n/a	n/a	n/a	n/a	n/a	n/a	blue
80.1837	0.5167	FEEDBACK	n/a	n/a	n/a	n/a	n/a	n/a	n/a	n/a
80.7004	1.0167	ITI	n/a	n/a	n/a	n/a	n/a	n/a	n/a	n/a
81.717	0.5167	FIXCROSS	n/a	n/a	n/a	n/a	n/a	n/a	n/a	n/a
82.2337	0.9834	T_INK	8	Incongruent	czerwony	red	zielony	green	hit	n/a
83.1942	n/a	RESPONSE	n/a	n/a	n/a	n/a	n/a	n/a	n/a	green
83.2171	0.5167	FEEDBACK	n/a	n/a	n/a	n/a	n/a	n/a	n/a	n/a
83.7337	1.0167	ITI	n/a	n/a	n/a	n/a	n/a	n/a	n/a	n/a
84.7504	0.5167	FIXCROSS	n/a	n/a	n/a	n/a	n/a	n/a	n/a	n/a
85.2671	0.8833	T_INK	9	Neutral	xxxxxxxxx	xxxxxxxxx	czerwony	red	hit	n/a
86.1175	n/a	RESPONSE	n/a	n/a	n/a	n/a	n/a	n/a	n/a	red
86.1504	0.5167	FEEDBACK	n/a	n/a	n/a	n/a	n/a	n/a	n/a	n/a
86.6671	1.0167	ITI	n/a	n/a	n/a	n/a	n/a	n/a	n/a	n/a
87.6837	0.5167	FIXCROSS	n/a	n/a	n/a	n/a	n/a	n/a	n/a	n/a
88.2004	0.9334	T_INK	10	Neutral	xxxxxxxx	xxxxxxxx	zielony	green	hit	n/a
89.1048	n/a	RESPONSE	n/a	n/a	n/a	n/a	n/a	n/a	n/a	green
89.1338	0.5167	FEEDBACK	n/a	n/a	n/a	n/a	n/a	n/a	n/a	n/a
89.6504	1.0167	ITI	n/a	n/a	n/a	n/a	n/a	n/a	n/a	n/a
90.6671	0.5167	FIXCROSS	n/a	n/a	n/a	n/a	n/a	n/a	n/a	n/a
91.1838	0.5833	T_INK	11	Incongruent	żółty	yellow	zielony	green	hit	n/a
91.7406	n/a	RESPONSE	n/a	n/a	n/a	n/a	n/a	n/a	n/a	green
91.7671	0.5167	FEEDBACK	n/a	n/a	n/a	n/a	n/a	n/a	n/a	n/a
92.2838	1.0167	ITI	n/a	n/a	n/a	n/a	n/a	n/a	n/a	n/a
93.3005	0.5167	FIXCROSS	n/a	n/a	n/a	n/a	n/a	n/a	n/a	n/a
93.8171	0.6	T_INK	12	Incongruent	niebieski	blue	zielony	green	hit	n/a
94.3923	n/a	RESPONSE	n/a	n/a	n/a	n/a	n/a	n/a	n/a	green
94.4171	0.5167	FEEDBACK	n/a	n/a	n/a	n/a	n/a	n/a	n/a	n/a
94.9338	1.0333	ITI	n/a	n/a	n/a	n/a	n/a	n/a	n/a	n/a
107.2839	n/a	RESPONSE	n/a	n/a	n/a	n/a	n/a	n/a	n/a	n/a
107.3506	1.0167	ITI	n/a	n/a	n/a	n/a	n/a	n/a	n/a	n/a
108.3672	0.5167	FIXCROSS	n/a	n/a	n/a	n/a	n/a	n/a	n/a	n/a
108.8839	0.8833	INK	1	Incongruent	niebieski	blue	żółty	yellow	hit	n/a
109.744	n/a	RESPONSE	n/a	n/a	n/a	n/a	n/a	n/a	n/a	yellow
109.7673	1.0167	ITI	n/a	n/a	n/a	n/a	n/a	n/a	n/a	n/a
110.7839	0.5167	FIXCROSS	n/a	n/a	n/a	n/a	n/a	n/a	n/a	n/a
111.3006	0.6667	INK	2	Neutral	xxxxxxxxx	xxxxxxxxx	zielony	green	hit	n/a
111.9484	n/a	RESPONSE	n/a	n/a	n/a	n/a	n/a	n/a	n/a	green
111.9673	1.0167	ITI	n/a	n/a	n/a	n/a	n/a	n/a	n/a	n/a
112.984	0.5167	FIXCROSS	n/a	n/a	n/a	n/a	n/a	n/a	n/a	n/a
113.5006	0.8	INK	3	Neutral	xxxxx	xxxxx	czerwony	red	hit	n/a
114.2807	n/a	RESPONSE	n/a	n/a	n/a	n/a	n/a	n/a	n/a	red
114.3006	1.0167	ITI	n/a	n/a	n/a	n/a	n/a	n/a	n/a	n/a
115.3173	0.5167	FIXCROSS	n/a	n/a	n/a	n/a	n/a	n/a	n/a	n/a
115.834	0.75	INK	4	Incongruent	czerwony	red	zielony	green	hit	n/a
116.5651	n/a	RESPONSE	n/a	n/a	n/a	n/a	n/a	n/a	n/a	green
116.584	1.0167	ITI	n/a	n/a	n/a	n/a	n/a	n/a	n/a	n/a
117.6007	0.5167	FIXCROSS	n/a	n/a	n/a	n/a	n/a	n/a	n/a	n/a
118.1173	0.9667	INK	5	Incongruent	żółty	yellow	niebieski	blue	hit	n/a
119.0572	n/a	RESPONSE	n/a	n/a	n/a	n/a	n/a	n/a	n/a	blue
119.084	1.0167	ITI	n/a	n/a	n/a	n/a	n/a	n/a	n/a	n/a
120.1007	0.5167	FIXCROSS	n/a	n/a	n/a	n/a	n/a	n/a	n/a	n/a
120.6174	0.8167	INK	6	Incongruent	czerwony	red	zielony	green	hit	n/a
121.4054	n/a	RESPONSE	n/a	n/a	n/a	n/a	n/a	n/a	n/a	green
121.434	1.0167	ITI	n/a	n/a	n/a	n/a	n/a	n/a	n/a	n/a
122.4507	0.5167	FIXCROSS	n/a	n/a	n/a	n/a	n/a	n/a	n/a	n/a
122.9674	0.6833	INK	7	Neutral	xxxxxxx	xxxxxxx	czerwony	red	hit	n/a
123.6258	n/a	RESPONSE	n/a	n/a	n/a	n/a	n/a	n/a	n/a	red
123.6507	1.0167	ITI	n/a	n/a	n/a	n/a	n/a	n/a	n/a	n/a
124.6674	0.5167	FIXCROSS	n/a	n/a	n/a	n/a	n/a	n/a	n/a	n/a
125.184	0.7667	INK	8	Incongruent	żółty	yellow	zielony	green	hit	n/a
125.9262	n/a	RESPONSE	n/a	n/a	n/a	n/a	n/a	n/a	n/a	green
125.9507	1.0167	ITI	n/a	n/a	n/a	n/a	n/a	n/a	n/a	n/a
126.9674	0.5167	FIXCROSS	n/a	n/a	n/a	n/a	n/a	n/a	n/a	n/a
127.4841	0.8667	INK	9	Incongruent	niebieski	blue	czerwony	red	hit	n/a
128.3224	n/a	RESPONSE	n/a	n/a	n/a	n/a	n/a	n/a	n/a	red
128.3508	1.0167	ITI	n/a	n/a	n/a	n/a	n/a	n/a	n/a	n/a
129.3674	0.5167	FIXCROSS	n/a	n/a	n/a	n/a	n/a	n/a	n/a	n/a
129.8841	0.8167	INK	10	Incongruent	zielony	green	niebieski	blue	hit	n/a
130.6708	n/a	RESPONSE	n/a	n/a	n/a	n/a	n/a	n/a	n/a	blue
130.7008	1.0167	ITI	n/a	n/a	n/a	n/a	n/a	n/a	n/a	n/a
131.7174	0.5167	FIXCROSS	n/a	n/a	n/a	n/a	n/a	n/a	n/a	n/a
132.2341	1.0833	INK	11	Incongruent	niebieski	blue	czerwony	red	hit	n/a
133.2905	n/a	RESPONSE	n/a	n/a	n/a	n/a	n/a	n/a	n/a	red
133.3175	1.0167	ITI	n/a	n/a	n/a	n/a	n/a	n/a	n/a	n/a
134.3341	0.5167	FIXCROSS	n/a	n/a	n/a	n/a	n/a	n/a	n/a	n/a
134.8508	0.7833	INK	12	Neutral	xxxxxxxxx	xxxxxxxxx	zielony	green	hit	n/a
135.6069	n/a	RESPONSE	n/a	n/a	n/a	n/a	n/a	n/a	n/a	green
135.6341	1.0167	ITI	n/a	n/a	n/a	n/a	n/a	n/a	n/a	n/a
136.6508	0.5167	FIXCROSS	n/a	n/a	n/a	n/a	n/a	n/a	n/a	n/a
137.1675	0.7167	INK	13	Incongruent	żółty	yellow	czerwony	red	hit	n/a
137.8593	n/a	RESPONSE	n/a	n/a	n/a	n/a	n/a	n/a	n/a	red
137.8842	1.0167	ITI	n/a	n/a	n/a	n/a	n/a	n/a	n/a	n/a
138.9008	0.5167	FIXCROSS	n/a	n/a	n/a	n/a	n/a	n/a	n/a	n/a
139.4175	0.75	INK	14	Neutral	xxxxxxxxx	xxxxxxxxx	żółty	yellow	hit	n/a
140.1437	n/a	RESPONSE	n/a	n/a	n/a	n/a	n/a	n/a	n/a	yellow
140.1675	1.0167	ITI	n/a	n/a	n/a	n/a	n/a	n/a	n/a	n/a
141.1842	0.5167	FIXCROSS	n/a	n/a	n/a	n/a	n/a	n/a	n/a	n/a
141.7009	0.6333	INK	15	Incongruent	żółty	yellow	zielony	green	hit	n/a
142.3163	n/a	RESPONSE	n/a	n/a	n/a	n/a	n/a	n/a	n/a	green
142.3342	1.0167	ITI	n/a	n/a	n/a	n/a	n/a	n/a	n/a	n/a
143.3509	0.5167	FIXCROSS	n/a	n/a	n/a	n/a	n/a	n/a	n/a	n/a
143.8675	0.5167	INK	16	Neutral	xxxxxxx	xxxxxxx	czerwony	red	hit	n/a
144.361	n/a	RESPONSE	n/a	n/a	n/a	n/a	n/a	n/a	n/a	red
144.3842	1.0167	ITI	n/a	n/a	n/a	n/a	n/a	n/a	n/a	n/a
145.4009	0.5167	FIXCROSS	n/a	n/a	n/a	n/a	n/a	n/a	n/a	n/a
145.9176	0.75	INK	17	Neutral	xxxxxxxxx	xxxxxxxxx	zielony	green	hit	n/a
146.6454	n/a	RESPONSE	n/a	n/a	n/a	n/a	n/a	n/a	n/a	green
146.6676	1.0167	ITI	n/a	n/a	n/a	n/a	n/a	n/a	n/a	n/a
147.6842	0.5167	FIXCROSS	n/a	n/a	n/a	n/a	n/a	n/a	n/a	n/a
148.2009	1.0	INK	18	Neutral	xxxxxxxx	xxxxxxxx	niebieski	blue	hit	n/a
149.1693	n/a	RESPONSE	n/a	n/a	n/a	n/a	n/a	n/a	n/a	blue
149.2009	1.0167	ITI	n/a	n/a	n/a	n/a	n/a	n/a	n/a	n/a
150.2176	0.5167	FIXCROSS	n/a	n/a	n/a	n/a	n/a	n/a	n/a	n/a
150.7343	0.5667	INK	19	Neutral	xxxxx	xxxxx	zielony	green	hit	n/a
151.2781	n/a	RESPONSE	n/a	n/a	n/a	n/a	n/a	n/a	n/a	green
151.3009	1.0167	ITI	n/a	n/a	n/a	n/a	n/a	n/a	n/a	n/a
152.3176	0.5167	FIXCROSS	n/a	n/a	n/a	n/a	n/a	n/a	n/a	n/a
152.8343	0.6667	INK	20	Neutral	xxxxxxx	xxxxxxx	żółty	yellow	hit	n/a
153.4825	n/a	RESPONSE	n/a	n/a	n/a	n/a	n/a	n/a	n/a	yellow
153.5009	1.0167	ITI	n/a	n/a	n/a	n/a	n/a	n/a	n/a	n/a
154.5176	0.5167	FIXCROSS	n/a	n/a	n/a	n/a	n/a	n/a	n/a	n/a
155.0343	0.8167	INK	21	Neutral	xxxxxxx	xxxxxxx	niebieski	blue	hit	n/a
155.8307	n/a	RESPONSE	n/a	n/a	n/a	n/a	n/a	n/a	n/a	blue
155.851	1.0167	ITI	n/a	n/a	n/a	n/a	n/a	n/a	n/a	n/a
156.8676	0.5167	FIXCROSS	n/a	n/a	n/a	n/a	n/a	n/a	n/a	n/a
157.3843	0.6167	INK	22	Neutral	xxxxx	xxxxx	zielony	green	hit	n/a
157.9715	n/a	RESPONSE	n/a	n/a	n/a	n/a	n/a	n/a	n/a	green
158.001	1.0167	ITI	n/a	n/a	n/a	n/a	n/a	n/a	n/a	n/a
159.0177	0.5167	FIXCROSS	n/a	n/a	n/a	n/a	n/a	n/a	n/a	n/a
159.5343	0.8167	INK	23	Incongruent	zielony	green	niebieski	blue	hit	n/a
160.3197	n/a	RESPONSE	n/a	n/a	n/a	n/a	n/a	n/a	n/a	blue
160.351	1.0167	ITI	n/a	n/a	n/a	n/a	n/a	n/a	n/a	n/a
161.3677	0.5167	FIXCROSS	n/a	n/a	n/a	n/a	n/a	n/a	n/a	n/a
161.8843	0.8	INK	24	Incongruent	niebieski	blue	czerwony	red	hit	n/a
162.6521	n/a	RESPONSE	n/a	n/a	n/a	n/a	n/a	n/a	n/a	red
162.6844	1.0167	ITI	n/a	n/a	n/a	n/a	n/a	n/a	n/a	n/a
163.701	0.5167	FIXCROSS	n/a	n/a	n/a	n/a	n/a	n/a	n/a	n/a
164.2177	0.5333	INK	25	Incongruent	zielony	green	czerwony	red	hit	n/a
164.7288	n/a	RESPONSE	n/a	n/a	n/a	n/a	n/a	n/a	n/a	red
164.751	1.0167	ITI	n/a	n/a	n/a	n/a	n/a	n/a	n/a	n/a
165.7677	0.5167	FIXCROSS	n/a	n/a	n/a	n/a	n/a	n/a	n/a	n/a
166.2844	0.6333	INK	26	Incongruent	czerwony	red	zielony	green	hit	n/a
166.8854	n/a	RESPONSE	n/a	n/a	n/a	n/a	n/a	n/a	n/a	green
166.9177	1.0167	ITI	n/a	n/a	n/a	n/a	n/a	n/a	n/a	n/a
167.9344	0.5167	FIXCROSS	n/a	n/a	n/a	n/a	n/a	n/a	n/a	n/a
168.4511	0.7833	INK	27	Neutral	xxxxxxxx	xxxxxxxx	żółty	yellow	hit	n/a
169.2017	n/a	RESPONSE	n/a	n/a	n/a	n/a	n/a	n/a	n/a	yellow
169.2344	1.0167	ITI	n/a	n/a	n/a	n/a	n/a	n/a	n/a	n/a
170.2511	0.5167	FIXCROSS	n/a	n/a	n/a	n/a	n/a	n/a	n/a	n/a
170.7678	0.6667	INK	28	Neutral	xxxxxxx	xxxxxxx	czerwony	red	hit	n/a
171.4063	n/a	RESPONSE	n/a	n/a	n/a	n/a	n/a	n/a	n/a	red
171.4344	1.0167	ITI	n/a	n/a	n/a	n/a	n/a	n/a	n/a	n/a
172.4511	0.5167	FIXCROSS	n/a	n/a	n/a	n/a	n/a	n/a	n/a	n/a
172.9678	0.6	INK	29	Neutral	xxxxxxxx	xxxxxxxx	zielony	green	hit	n/a
173.5468	n/a	RESPONSE	n/a	n/a	n/a	n/a	n/a	n/a	n/a	green
173.5678	1.0167	ITI	n/a	n/a	n/a	n/a	n/a	n/a	n/a	n/a
174.5845	0.5167	FIXCROSS	n/a	n/a	n/a	n/a	n/a	n/a	n/a	n/a
175.1011	0.8	INK	30	Neutral	xxxxx	xxxxx	niebieski	blue	hit	n/a
175.8793	n/a	RESPONSE	n/a	n/a	n/a	n/a	n/a	n/a	n/a	blue
175.9011	1.0167	ITI	n/a	n/a	n/a	n/a	n/a	n/a	n/a	n/a
176.9178	0.5167	FIXCROSS	n/a	n/a	n/a	n/a	n/a	n/a	n/a	n/a
177.4345	0.7833	INK	31	Incongruent	niebieski	blue	żółty	yellow	hit	n/a
178.1955	n/a	RESPONSE	n/a	n/a	n/a	n/a	n/a	n/a	n/a	yellow
178.2178	1.0167	ITI	n/a	n/a	n/a	n/a	n/a	n/a	n/a	n/a
179.2345	0.5167	FIXCROSS	n/a	n/a	n/a	n/a	n/a	n/a	n/a	n/a
179.7512	0.65	INK	32	Incongruent	niebieski	blue	żółty	yellow	hit	n/a
180.3681	n/a	RESPONSE	n/a	n/a	n/a	n/a	n/a	n/a	n/a	yellow
180.4012	1.0167	ITI	n/a	n/a	n/a	n/a	n/a	n/a	n/a	n/a
181.4179	0.5167	FIXCROSS	n/a	n/a	n/a	n/a	n/a	n/a	n/a	n/a
181.9345	0.6667	INK	33	Neutral	xxxxxxx	xxxxxxx	żółty	yellow	hit	n/a
182.5726	n/a	RESPONSE	n/a	n/a	n/a	n/a	n/a	n/a	n/a	yellow
182.6012	1.0167	ITI	n/a	n/a	n/a	n/a	n/a	n/a	n/a	n/a
183.6179	0.5167	FIXCROSS	n/a	n/a	n/a	n/a	n/a	n/a	n/a	n/a
184.1345	0.6	INK	34	Incongruent	żółty	yellow	zielony	green	hit	n/a
184.7131	n/a	RESPONSE	n/a	n/a	n/a	n/a	n/a	n/a	n/a	green
184.7345	1.0167	ITI	n/a	n/a	n/a	n/a	n/a	n/a	n/a	n/a
185.7512	0.5167	FIXCROSS	n/a	n/a	n/a	n/a	n/a	n/a	n/a	n/a
186.2679	0.7167	INK	35	Incongruent	zielony	green	żółty	yellow	hit	n/a
186.9657	n/a	RESPONSE	n/a	n/a	n/a	n/a	n/a	n/a	n/a	yellow
186.9846	1.0167	ITI	n/a	n/a	n/a	n/a	n/a	n/a	n/a	n/a
188.0012	0.5167	FIXCROSS	n/a	n/a	n/a	n/a	n/a	n/a	n/a	n/a
188.5179	0.7	INK	36	Incongruent	zielony	green	żółty	yellow	hit	n/a
189.1861	n/a	RESPONSE	n/a	n/a	n/a	n/a	n/a	n/a	n/a	yellow
189.2179	1.0167	ITI	n/a	n/a	n/a	n/a	n/a	n/a	n/a	n/a
190.2346	0.5167	FIXCROSS	n/a	n/a	n/a	n/a	n/a	n/a	n/a	n/a
190.7513	0.75	INK	37	Neutral	xxxxx	xxxxx	czerwony	red	hit	n/a
191.4706	n/a	RESPONSE	n/a	n/a	n/a	n/a	n/a	n/a	n/a	red
191.5013	1.0167	ITI	n/a	n/a	n/a	n/a	n/a	n/a	n/a	n/a
192.5179	0.5167	FIXCROSS	n/a	n/a	n/a	n/a	n/a	n/a	n/a	n/a
193.0346	0.8167	INK	38	Neutral	xxxxxxxx	xxxxxxxx	żółty	yellow	hit	n/a
193.8188	n/a	RESPONSE	n/a	n/a	n/a	n/a	n/a	n/a	n/a	yellow
193.8513	1.0167	ITI	n/a	n/a	n/a	n/a	n/a	n/a	n/a	n/a
194.868	0.5167	FIXCROSS	n/a	n/a	n/a	n/a	n/a	n/a	n/a	n/a
195.3846	0.6667	INK	39	Neutral	xxxxxxxxx	xxxxxxxxx	żółty	yellow	hit	n/a
196.0233	n/a	RESPONSE	n/a	n/a	n/a	n/a	n/a	n/a	n/a	yellow
196.0513	1.0167	ITI	n/a	n/a	n/a	n/a	n/a	n/a	n/a	n/a
197.068	0.5167	FIXCROSS	n/a	n/a	n/a	n/a	n/a	n/a	n/a	n/a
197.5847	0.6333	INK	40	Neutral	xxxxx	xxxxx	zielony	green	hit	n/a
198.1959	n/a	RESPONSE	n/a	n/a	n/a	n/a	n/a	n/a	n/a	green
198.218	1.0167	ITI	n/a	n/a	n/a	n/a	n/a	n/a	n/a	n/a
199.2347	0.5167	FIXCROSS	n/a	n/a	n/a	n/a	n/a	n/a	n/a	n/a
199.7513	0.75	INK	41	Neutral	xxxxxxx	xxxxxxx	żółty	yellow	hit	n/a
200.4803	n/a	RESPONSE	n/a	n/a	n/a	n/a	n/a	n/a	n/a	yellow
200.5013	1.0167	ITI	n/a	n/a	n/a	n/a	n/a	n/a	n/a	n/a
201.518	0.5167	FIXCROSS	n/a	n/a	n/a	n/a	n/a	n/a	n/a	n/a
202.0347	0.6667	INK	42	Neutral	xxxxx	xxxxx	czerwony	red	hit	n/a
202.6687	n/a	RESPONSE	n/a	n/a	n/a	n/a	n/a	n/a	n/a	red
202.7014	1.0167	ITI	n/a	n/a	n/a	n/a	n/a	n/a	n/a	n/a
203.718	0.5167	FIXCROSS	n/a	n/a	n/a	n/a	n/a	n/a	n/a	n/a
204.2347	0.8834	INK	43	Incongruent	żółty	yellow	niebieski	blue	hit	n/a
205.097	n/a	RESPONSE	n/a	n/a	n/a	n/a	n/a	n/a	n/a	blue
205.118	1.0167	ITI	n/a	n/a	n/a	n/a	n/a	n/a	n/a	n/a
206.1347	0.5167	FIXCROSS	n/a	n/a	n/a	n/a	n/a	n/a	n/a	n/a
206.6514	0.6667	INK	44	Neutral	xxxxxxxx	xxxxxxxx	żółty	yellow	hit	n/a
207.2854	n/a	RESPONSE	n/a	n/a	n/a	n/a	n/a	n/a	n/a	yellow
207.3181	1.0167	ITI	n/a	n/a	n/a	n/a	n/a	n/a	n/a	n/a
208.3347	0.5167	FIXCROSS	n/a	n/a	n/a	n/a	n/a	n/a	n/a	n/a
208.8514	0.6167	INK	45	Incongruent	czerwony	red	żółty	yellow	hit	n/a
209.442	n/a	RESPONSE	n/a	n/a	n/a	n/a	n/a	n/a	n/a	yellow
209.4681	1.0167	ITI	n/a	n/a	n/a	n/a	n/a	n/a	n/a	n/a
210.4848	0.5167	FIXCROSS	n/a	n/a	n/a	n/a	n/a	n/a	n/a	n/a
211.0014	0.8	INK	46	Incongruent	czerwony	red	niebieski	blue	hit	n/a
211.7744	n/a	RESPONSE	n/a	n/a	n/a	n/a	n/a	n/a	n/a	blue
211.8014	1.0167	ITI	n/a	n/a	n/a	n/a	n/a	n/a	n/a	n/a
212.8181	0.5167	FIXCROSS	n/a	n/a	n/a	n/a	n/a	n/a	n/a	n/a
213.3348	0.6333	INK	47	Neutral	xxxxxxxx	xxxxxxxx	niebieski	blue	hit	n/a
213.947	n/a	RESPONSE	n/a	n/a	n/a	n/a	n/a	n/a	n/a	blue
213.9681	1.0167	ITI	n/a	n/a	n/a	n/a	n/a	n/a	n/a	n/a
214.9848	0.5167	FIXCROSS	n/a	n/a	n/a	n/a	n/a	n/a	n/a	n/a
215.5015	0.6167	INK	48	Incongruent	zielony	green	niebieski	blue	hit	n/a
216.0876	n/a	RESPONSE	n/a	n/a	n/a	n/a	n/a	n/a	n/a	blue
216.1181	1.0167	ITI	n/a	n/a	n/a	n/a	n/a	n/a	n/a	n/a
217.1348	0.5167	FIXCROSS	n/a	n/a	n/a	n/a	n/a	n/a	n/a	n/a
217.6515	0.6	INK	49	Neutral	xxxxxxx	xxxxxxx	niebieski	blue	hit	n/a
218.2282	n/a	RESPONSE	n/a	n/a	n/a	n/a	n/a	n/a	n/a	blue
218.2515	1.0167	ITI	n/a	n/a	n/a	n/a	n/a	n/a	n/a	n/a
219.2681	0.5167	FIXCROSS	n/a	n/a	n/a	n/a	n/a	n/a	n/a	n/a
219.7848	0.6333	INK	50	Neutral	xxxxx	xxxxx	niebieski	blue	hit	n/a
220.3848	n/a	RESPONSE	n/a	n/a	n/a	n/a	n/a	n/a	n/a	blue
220.4182	1.0167	ITI	n/a	n/a	n/a	n/a	n/a	n/a	n/a	n/a
221.4348	0.5167	FIXCROSS	n/a	n/a	n/a	n/a	n/a	n/a	n/a	n/a
221.9515	0.5333	INK	51	Neutral	xxxxxxx	xxxxxxx	niebieski	blue	hit	n/a
222.4614	n/a	RESPONSE	n/a	n/a	n/a	n/a	n/a	n/a	n/a	blue
222.4848	1.0167	ITI	n/a	n/a	n/a	n/a	n/a	n/a	n/a	n/a
223.5015	0.5167	FIXCROSS	n/a	n/a	n/a	n/a	n/a	n/a	n/a	n/a
224.0182	0.8	INK	52	Neutral	xxxxxxxxx	xxxxxxxxx	żółty	yellow	hit	n/a
224.7937	n/a	RESPONSE	n/a	n/a	n/a	n/a	n/a	n/a	n/a	yellow
224.8182	1.0167	ITI	n/a	n/a	n/a	n/a	n/a	n/a	n/a	n/a
225.8349	0.5167	FIXCROSS	n/a	n/a	n/a	n/a	n/a	n/a	n/a	n/a
226.3515	0.6833	INK	53	Neutral	xxxxx	xxxxx	niebieski	blue	hit	n/a
227.0142	n/a	RESPONSE	n/a	n/a	n/a	n/a	n/a	n/a	n/a	blue
227.0349	1.0167	ITI	n/a	n/a	n/a	n/a	n/a	n/a	n/a	n/a
228.0516	0.5167	FIXCROSS	n/a	n/a	n/a	n/a	n/a	n/a	n/a	n/a
228.5682	0.6833	INK	54	Incongruent	zielony	green	czerwony	red	hit	n/a
229.2188	n/a	RESPONSE	n/a	n/a	n/a	n/a	n/a	n/a	n/a	red
229.2516	1.0167	ITI	n/a	n/a	n/a	n/a	n/a	n/a	n/a	n/a
230.2682	0.5167	FIXCROSS	n/a	n/a	n/a	n/a	n/a	n/a	n/a	n/a
230.7849	0.7833	INK	55	Neutral	xxxxxxxx	xxxxxxxx	niebieski	blue	hit	n/a
231.5351	n/a	RESPONSE	n/a	n/a	n/a	n/a	n/a	n/a	n/a	blue
231.5682	1.0167	ITI	n/a	n/a	n/a	n/a	n/a	n/a	n/a	n/a
232.5849	0.5167	FIXCROSS	n/a	n/a	n/a	n/a	n/a	n/a	n/a	n/a
233.1016	0.7333	INK	56	Incongruent	zielony	green	czerwony	red	hit	n/a
233.8035	n/a	RESPONSE	n/a	n/a	n/a	n/a	n/a	n/a	n/a	red
233.8349	1.0167	ITI	n/a	n/a	n/a	n/a	n/a	n/a	n/a	n/a
234.8516	0.5167	FIXCROSS	n/a	n/a	n/a	n/a	n/a	n/a	n/a	n/a
235.3683	0.4667	INK	57	Neutral	xxxxxxxxx	xxxxxxxxx	czerwony	red	hit	n/a
235.8164	n/a	RESPONSE	n/a	n/a	n/a	n/a	n/a	n/a	n/a	red
235.835	1.0167	ITI	n/a	n/a	n/a	n/a	n/a	n/a	n/a	n/a
236.8516	0.5167	FIXCROSS	n/a	n/a	n/a	n/a	n/a	n/a	n/a	n/a
237.3683	0.7	INK	58	Incongruent	zielony	green	żółty	yellow	hit	n/a
238.0368	n/a	RESPONSE	n/a	n/a	n/a	n/a	n/a	n/a	n/a	yellow
238.0683	1.0167	ITI	n/a	n/a	n/a	n/a	n/a	n/a	n/a	n/a
239.085	0.5167	FIXCROSS	n/a	n/a	n/a	n/a	n/a	n/a	n/a	n/a
239.6016	0.6167	INK	59	Incongruent	żółty	yellow	czerwony	red	hit	n/a
240.1935	n/a	RESPONSE	n/a	n/a	n/a	n/a	n/a	n/a	n/a	red
240.2183	1.0167	ITI	n/a	n/a	n/a	n/a	n/a	n/a	n/a	n/a
241.235	0.5167	FIXCROSS	n/a	n/a	n/a	n/a	n/a	n/a	n/a	n/a
241.7517	0.55	INK	60	Neutral	xxxxxxxxx	xxxxxxxxx	czerwony	red	hit	n/a
242.2701	n/a	RESPONSE	n/a	n/a	n/a	n/a	n/a	n/a	n/a	red
242.3017	1.0167	ITI	n/a	n/a	n/a	n/a	n/a	n/a	n/a	n/a
243.3184	0.5167	FIXCROSS	n/a	n/a	n/a	n/a	n/a	n/a	n/a	n/a
243.835	0.4833	INK	61	Neutral	xxxxxxxxx	xxxxxxxxx	czerwony	red	hit	n/a
244.2989	n/a	RESPONSE	n/a	n/a	n/a	n/a	n/a	n/a	n/a	red
244.3184	1.0167	ITI	n/a	n/a	n/a	n/a	n/a	n/a	n/a	n/a
245.335	0.5167	FIXCROSS	n/a	n/a	n/a	n/a	n/a	n/a	n/a	n/a
245.8517	0.6667	INK	62	Incongruent	czerwony	red	niebieski	blue	hit	n/a
246.4875	n/a	RESPONSE	n/a	n/a	n/a	n/a	n/a	n/a	n/a	blue
246.5184	1.0167	ITI	n/a	n/a	n/a	n/a	n/a	n/a	n/a	n/a
247.535	0.5167	FIXCROSS	n/a	n/a	n/a	n/a	n/a	n/a	n/a	n/a
248.0517	0.85	INK	63	Incongruent	czerwony	red	niebieski	blue	hit	n/a
248.8837	n/a	RESPONSE	n/a	n/a	n/a	n/a	n/a	n/a	n/a	blue
248.9017	1.0167	ITI	n/a	n/a	n/a	n/a	n/a	n/a	n/a	n/a
249.9184	0.5167	FIXCROSS	n/a	n/a	n/a	n/a	n/a	n/a	n/a	n/a
250.4351	0.4333	INK	64	Incongruent	żółty	yellow	niebieski	blue	hit	n/a
250.8486	n/a	RESPONSE	n/a	n/a	n/a	n/a	n/a	n/a	n/a	blue
250.8684	1.0167	ITI	n/a	n/a	n/a	n/a	n/a	n/a	n/a	n/a
251.8851	0.5167	FIXCROSS	n/a	n/a	n/a	n/a	n/a	n/a	n/a	n/a
252.4018	0.9333	INK	65	Incongruent	niebieski	blue	zielony	green	hit	n/a
253.3087	n/a	RESPONSE	n/a	n/a	n/a	n/a	n/a	n/a	n/a	green
253.3351	1.0167	ITI	n/a	n/a	n/a	n/a	n/a	n/a	n/a	n/a
254.3518	0.5167	FIXCROSS	n/a	n/a	n/a	n/a	n/a	n/a	n/a	n/a
254.8684	0.55	INK	66	Neutral	xxxxxxxx	xxxxxxxx	zielony	green	hit	n/a
255.3854	n/a	RESPONSE	n/a	n/a	n/a	n/a	n/a	n/a	n/a	green
255.4184	1.0167	ITI	n/a	n/a	n/a	n/a	n/a	n/a	n/a	n/a
256.4351	0.5167	FIXCROSS	n/a	n/a	n/a	n/a	n/a	n/a	n/a	n/a
256.9518	0.4	INK	67	Neutral	xxxxxxxx	xxxxxxxx	zielony	green	hit	n/a
257.3184	n/a	RESPONSE	n/a	n/a	n/a	n/a	n/a	n/a	n/a	green
257.3518	1.0167	ITI	n/a	n/a	n/a	n/a	n/a	n/a	n/a	n/a
258.3685	0.5167	FIXCROSS	n/a	n/a	n/a	n/a	n/a	n/a	n/a	n/a
258.8851	0.7667	INK	68	Incongruent	czerwony	red	żółty	yellow	hit	n/a
259.6189	n/a	RESPONSE	n/a	n/a	n/a	n/a	n/a	n/a	n/a	yellow
259.6518	1.0167	ITI	n/a	n/a	n/a	n/a	n/a	n/a	n/a	n/a
260.6685	0.5167	FIXCROSS	n/a	n/a	n/a	n/a	n/a	n/a	n/a	n/a
261.1852	0.8167	INK	69	Incongruent	niebieski	blue	zielony	green	hit	n/a
261.9832	n/a	RESPONSE	n/a	n/a	n/a	n/a	n/a	n/a	n/a	green
262.0018	1.0167	ITI	n/a	n/a	n/a	n/a	n/a	n/a	n/a	n/a
263.0185	0.5167	FIXCROSS	n/a	n/a	n/a	n/a	n/a	n/a	n/a	n/a
263.5352	0.8333	INK	70	Incongruent	czerwony	red	żółty	yellow	hit	n/a
264.3474	n/a	RESPONSE	n/a	n/a	n/a	n/a	n/a	n/a	n/a	yellow
264.3685	1.0167	ITI	n/a	n/a	n/a	n/a	n/a	n/a	n/a	n/a
265.3852	0.5167	FIXCROSS	n/a	n/a	n/a	n/a	n/a	n/a	n/a	n/a
265.9019	0.7	INK	71	Incongruent	żółty	yellow	czerwony	red	hit	n/a
266.5679	n/a	RESPONSE	n/a	n/a	n/a	n/a	n/a	n/a	n/a	red
266.6019	1.0167	ITI	n/a	n/a	n/a	n/a	n/a	n/a	n/a	n/a
267.6185	0.5167	FIXCROSS	n/a	n/a	n/a	n/a	n/a	n/a	n/a	n/a
268.1352	0.6667	INK	72	Incongruent	niebieski	blue	zielony	green	hit	n/a
268.7725	n/a	RESPONSE	n/a	n/a	n/a	n/a	n/a	n/a	n/a	green
268.8019	1.0833	ITI	n/a	n/a	n/a	n/a	n/a	n/a	n/a	n/a
290.0356	n/a	RESPONSE	n/a	n/a	n/a	n/a	n/a	n/a	n/a	n/a
290.1021	1.0167	ITI	n/a	n/a	n/a	n/a	n/a	n/a	n/a	n/a
291.1187	0.5167	FIXCROSS	n/a	n/a	n/a	n/a	n/a	n/a	n/a	n/a
291.6354	0.9	T_COLOR_NAME	1	Neutral	niebieski	blue	Neutral	Neutral	hit	n/a
292.4959	n/a	RESPONSE	n/a	n/a	n/a	n/a	n/a	n/a	n/a	blue
292.5354	0.5167	FEEDBACK	n/a	n/a	n/a	n/a	n/a	n/a	n/a	n/a
293.0521	1.0167	ITI	n/a	n/a	n/a	n/a	n/a	n/a	n/a	n/a
294.0688	0.5167	FIXCROSS	n/a	n/a	n/a	n/a	n/a	n/a	n/a	n/a
294.5854	0.6667	T_COLOR_NAME	2	Neutral	czerwony	red	Neutral	Neutral	hit	n/a
295.2276	n/a	RESPONSE	n/a	n/a	n/a	n/a	n/a	n/a	n/a	red
295.2521	0.5167	FEEDBACK	n/a	n/a	n/a	n/a	n/a	n/a	n/a	n/a
295.7688	1.0167	ITI	n/a	n/a	n/a	n/a	n/a	n/a	n/a	n/a
296.7854	0.5167	FIXCROSS	n/a	n/a	n/a	n/a	n/a	n/a	n/a	n/a
297.3021	1.1833	T_COLOR_NAME	3	Incongruent	niebieski	blue	czerwony	red	hit	n/a
298.4545	n/a	RESPONSE	n/a	n/a	n/a	n/a	n/a	n/a	n/a	blue
298.4855	0.5167	FEEDBACK	n/a	n/a	n/a	n/a	n/a	n/a	n/a	n/a
299.0021	1.0167	ITI	n/a	n/a	n/a	n/a	n/a	n/a	n/a	n/a
300.0188	0.5167	FIXCROSS	n/a	n/a	n/a	n/a	n/a	n/a	n/a	n/a
300.5355	0.7333	T_COLOR_NAME	4	Incongruent	czerwony	red	zielony	green	hit	n/a
301.2341	n/a	RESPONSE	n/a	n/a	n/a	n/a	n/a	n/a	n/a	red
301.2688	0.5167	FEEDBACK	n/a	n/a	n/a	n/a	n/a	n/a	n/a	n/a
301.7855	1.0167	ITI	n/a	n/a	n/a	n/a	n/a	n/a	n/a	n/a
302.8022	0.5167	FIXCROSS	n/a	n/a	n/a	n/a	n/a	n/a	n/a	n/a
303.3188	1.0333	T_COLOR_NAME	5	Neutral	niebieski	blue	Neutral	Neutral	hit	n/a
304.3334	n/a	RESPONSE	n/a	n/a	n/a	n/a	n/a	n/a	n/a	blue
304.3522	0.5167	FEEDBACK	n/a	n/a	n/a	n/a	n/a	n/a	n/a	n/a
304.8688	1.0167	ITI	n/a	n/a	n/a	n/a	n/a	n/a	n/a	n/a
305.8855	0.5167	FIXCROSS	n/a	n/a	n/a	n/a	n/a	n/a	n/a	n/a
306.4022	0.8334	T_COLOR_NAME	6	Incongruent	żółty	yellow	niebieski	blue	hit	n/a
307.2088	n/a	RESPONSE	n/a	n/a	n/a	n/a	n/a	n/a	n/a	yellow
307.2355	0.5167	FEEDBACK	n/a	n/a	n/a	n/a	n/a	n/a	n/a	n/a
307.7522	1.0167	ITI	n/a	n/a	n/a	n/a	n/a	n/a	n/a	n/a
308.7689	0.5167	FIXCROSS	n/a	n/a	n/a	n/a	n/a	n/a	n/a	n/a
309.2855	0.4667	T_COLOR_NAME	7	Incongruent	żółty	yellow	zielony	green	hit	n/a
309.7329	n/a	RESPONSE	n/a	n/a	n/a	n/a	n/a	n/a	n/a	yellow
309.7522	0.5167	FEEDBACK	n/a	n/a	n/a	n/a	n/a	n/a	n/a	n/a
310.2689	1.0167	ITI	n/a	n/a	n/a	n/a	n/a	n/a	n/a	n/a
311.2856	0.5167	FIXCROSS	n/a	n/a	n/a	n/a	n/a	n/a	n/a	n/a
311.8022	0.4167	T_COLOR_NAME	8	Neutral	żółty	yellow	Neutral	Neutral	hit	n/a
312.193	n/a	RESPONSE	n/a	n/a	n/a	n/a	n/a	n/a	n/a	yellow
312.2189	0.5167	FEEDBACK	n/a	n/a	n/a	n/a	n/a	n/a	n/a	n/a
312.7356	1.0167	ITI	n/a	n/a	n/a	n/a	n/a	n/a	n/a	n/a
313.7522	0.5167	FIXCROSS	n/a	n/a	n/a	n/a	n/a	n/a	n/a	n/a
314.2689	0.4333	T_COLOR_NAME	9	Neutral	żółty	yellow	Neutral	Neutral	hit	n/a
314.6691	n/a	RESPONSE	n/a	n/a	n/a	n/a	n/a	n/a	n/a	yellow
314.7023	0.5167	FEEDBACK	n/a	n/a	n/a	n/a	n/a	n/a	n/a	n/a
315.2189	1.0167	ITI	n/a	n/a	n/a	n/a	n/a	n/a	n/a	n/a
316.2356	0.5167	FIXCROSS	n/a	n/a	n/a	n/a	n/a	n/a	n/a	n/a
316.7523	0.6833	T_COLOR_NAME	10	Neutral	zielony	green	Neutral	Neutral	hit	n/a
317.4168	n/a	RESPONSE	n/a	n/a	n/a	n/a	n/a	n/a	n/a	green
317.4356	0.5167	FEEDBACK	n/a	n/a	n/a	n/a	n/a	n/a	n/a	n/a
317.9523	1.0167	ITI	n/a	n/a	n/a	n/a	n/a	n/a	n/a	n/a
318.969	0.5167	FIXCROSS	n/a	n/a	n/a	n/a	n/a	n/a	n/a	n/a
319.4856	0.7833	T_COLOR_NAME	11	Incongruent	zielony	green	niebieski	blue	hit	n/a
320.2444	n/a	RESPONSE	n/a	n/a	n/a	n/a	n/a	n/a	n/a	green
320.269	0.5167	FEEDBACK	n/a	n/a	n/a	n/a	n/a	n/a	n/a	n/a
320.7856	1.0167	ITI	n/a	n/a	n/a	n/a	n/a	n/a	n/a	n/a
321.8023	0.5167	FIXCROSS	n/a	n/a	n/a	n/a	n/a	n/a	n/a	n/a
322.319	0.95	T_COLOR_NAME	12	Incongruent	niebieski	blue	zielony	green	hit	n/a
323.2478	n/a	RESPONSE	n/a	n/a	n/a	n/a	n/a	n/a	n/a	blue
323.269	0.5167	FEEDBACK	n/a	n/a	n/a	n/a	n/a	n/a	n/a	n/a
323.7857	1.0334	ITI	n/a	n/a	n/a	n/a	n/a	n/a	n/a	n/a
330.9477	n/a	RESPONSE	n/a	n/a	n/a	n/a	n/a	n/a	n/a	n/a
331.0024	1.0167	ITI	n/a	n/a	n/a	n/a	n/a	n/a	n/a	n/a
332.0191	0.5167	FIXCROSS	n/a	n/a	n/a	n/a	n/a	n/a	n/a	n/a
332.5357	0.7833	COLOR_NAME	1	Incongruent	niebieski	blue	zielony	green	hit	n/a
333.296	n/a	RESPONSE	n/a	n/a	n/a	n/a	n/a	n/a	n/a	blue
333.3191	1.0167	ITI	n/a	n/a	n/a	n/a	n/a	n/a	n/a	n/a
334.3357	0.5167	FIXCROSS	n/a	n/a	n/a	n/a	n/a	n/a	n/a	n/a
334.8524	0.8333	COLOR_NAME	2	Neutral	czerwony	red	Neutral	Neutral	hit	n/a
335.6603	n/a	RESPONSE	n/a	n/a	n/a	n/a	n/a	n/a	n/a	red
335.6858	1.0167	ITI	n/a	n/a	n/a	n/a	n/a	n/a	n/a	n/a
336.7024	0.5167	FIXCROSS	n/a	n/a	n/a	n/a	n/a	n/a	n/a	n/a
337.2191	0.9	COLOR_NAME	3	Neutral	niebieski	blue	Neutral	Neutral	hit	n/a
338.0885	n/a	RESPONSE	n/a	n/a	n/a	n/a	n/a	n/a	n/a	blue
338.1191	1.0167	ITI	n/a	n/a	n/a	n/a	n/a	n/a	n/a	n/a
339.1358	0.5167	FIXCROSS	n/a	n/a	n/a	n/a	n/a	n/a	n/a	n/a
339.6525	0.9167	COLOR_NAME	4	Neutral	zielony	green	Neutral	Neutral	hit	n/a
340.5486	n/a	RESPONSE	n/a	n/a	n/a	n/a	n/a	n/a	n/a	green
340.5691	1.0167	ITI	n/a	n/a	n/a	n/a	n/a	n/a	n/a	n/a
341.5858	0.5167	FIXCROSS	n/a	n/a	n/a	n/a	n/a	n/a	n/a	n/a
342.1025	0.55	COLOR_NAME	5	Neutral	zielony	green	Neutral	Neutral	hit	n/a
342.6254	n/a	RESPONSE	n/a	n/a	n/a	n/a	n/a	n/a	n/a	green
342.6525	1.0167	ITI	n/a	n/a	n/a	n/a	n/a	n/a	n/a	n/a
343.6692	0.5167	FIXCROSS	n/a	n/a	n/a	n/a	n/a	n/a	n/a	n/a
344.1858	0.8833	COLOR_NAME	6	Incongruent	żółty	yellow	czerwony	red	hit	n/a
345.0375	n/a	RESPONSE	n/a	n/a	n/a	n/a	n/a	n/a	n/a	yellow
345.0692	1.0167	ITI	n/a	n/a	n/a	n/a	n/a	n/a	n/a	n/a
346.0858	0.5167	FIXCROSS	n/a	n/a	n/a	n/a	n/a	n/a	n/a	n/a
346.6025	0.8833	COLOR_NAME	7	Incongruent	zielony	green	czerwony	red	hit	n/a
347.4656	n/a	RESPONSE	n/a	n/a	n/a	n/a	n/a	n/a	n/a	green
347.4859	1.0167	ITI	n/a	n/a	n/a	n/a	n/a	n/a	n/a	n/a
348.5025	0.5167	FIXCROSS	n/a	n/a	n/a	n/a	n/a	n/a	n/a	n/a
349.0192	0.8167	COLOR_NAME	8	Neutral	niebieski	blue	Neutral	Neutral	hit	n/a
349.814	n/a	RESPONSE	n/a	n/a	n/a	n/a	n/a	n/a	n/a	blue
349.8359	1.0167	ITI	n/a	n/a	n/a	n/a	n/a	n/a	n/a	n/a
350.8525	0.5167	FIXCROSS	n/a	n/a	n/a	n/a	n/a	n/a	n/a	n/a
351.3692	0.7833	COLOR_NAME	9	Neutral	zielony	green	Neutral	Neutral	hit	n/a
352.1303	n/a	RESPONSE	n/a	n/a	n/a	n/a	n/a	n/a	n/a	green
352.1526	1.0167	ITI	n/a	n/a	n/a	n/a	n/a	n/a	n/a	n/a
353.1692	0.5167	FIXCROSS	n/a	n/a	n/a	n/a	n/a	n/a	n/a	n/a
353.6859	0.85	COLOR_NAME	10	Incongruent	czerwony	red	zielony	green	hit	n/a
354.5106	n/a	RESPONSE	n/a	n/a	n/a	n/a	n/a	n/a	n/a	red
354.5359	1.0167	ITI	n/a	n/a	n/a	n/a	n/a	n/a	n/a	n/a
355.5526	0.5167	FIXCROSS	n/a	n/a	n/a	n/a	n/a	n/a	n/a	n/a
356.0693	0.9	COLOR_NAME	11	Incongruent	zielony	green	żółty	yellow	hit	n/a
356.9388	n/a	RESPONSE	n/a	n/a	n/a	n/a	n/a	n/a	n/a	green
356.9693	1.0167	ITI	n/a	n/a	n/a	n/a	n/a	n/a	n/a	n/a
357.9859	0.5167	FIXCROSS	n/a	n/a	n/a	n/a	n/a	n/a	n/a	n/a
358.5026	0.9834	COLOR_NAME	12	Neutral	czerwony	red	Neutral	Neutral	hit	n/a
359.4629	n/a	RESPONSE	n/a	n/a	n/a	n/a	n/a	n/a	n/a	red
359.486	1.0167	ITI	n/a	n/a	n/a	n/a	n/a	n/a	n/a	n/a
360.5026	0.5167	FIXCROSS	n/a	n/a	n/a	n/a	n/a	n/a	n/a	n/a
361.0193	1.0333	COLOR_NAME	13	Incongruent	żółty	yellow	zielony	green	hit	n/a
362.0188	n/a	RESPONSE	n/a	n/a	n/a	n/a	n/a	n/a	n/a	yellow
362.0526	1.0167	ITI	n/a	n/a	n/a	n/a	n/a	n/a	n/a	n/a
363.0693	0.5167	FIXCROSS	n/a	n/a	n/a	n/a	n/a	n/a	n/a	n/a
363.586	0.7167	COLOR_NAME	14	Neutral	czerwony	red	Neutral	Neutral	hit	n/a
364.2713	n/a	RESPONSE	n/a	n/a	n/a	n/a	n/a	n/a	n/a	red
364.3027	1.0167	ITI	n/a	n/a	n/a	n/a	n/a	n/a	n/a	n/a
365.3193	0.5167	FIXCROSS	n/a	n/a	n/a	n/a	n/a	n/a	n/a	n/a
365.836	0.7	COLOR_NAME	15	Incongruent	czerwony	red	niebieski	blue	hit	n/a
366.5078	n/a	RESPONSE	n/a	n/a	n/a	n/a	n/a	n/a	n/a	red
366.536	1.0167	ITI	n/a	n/a	n/a	n/a	n/a	n/a	n/a	n/a
367.5527	0.5167	FIXCROSS	n/a	n/a	n/a	n/a	n/a	n/a	n/a	n/a
368.0694	0.6833	COLOR_NAME	16	Neutral	niebieski	blue	Neutral	Neutral	hit	n/a
368.7282	n/a	RESPONSE	n/a	n/a	n/a	n/a	n/a	n/a	n/a	blue
368.7527	1.0167	ITI	n/a	n/a	n/a	n/a	n/a	n/a	n/a	n/a
369.7694	0.5167	FIXCROSS	n/a	n/a	n/a	n/a	n/a	n/a	n/a	n/a
370.286	0.8833	COLOR_NAME	17	Incongruent	żółty	yellow	czerwony	red	hit	n/a
371.1405	n/a	RESPONSE	n/a	n/a	n/a	n/a	n/a	n/a	n/a	yellow
371.1694	1.0167	ITI	n/a	n/a	n/a	n/a	n/a	n/a	n/a	n/a
372.1861	0.5167	FIXCROSS	n/a	n/a	n/a	n/a	n/a	n/a	n/a	n/a
372.7027	0.8667	COLOR_NAME	18	Neutral	niebieski	blue	Neutral	Neutral	hit	n/a
373.5367	n/a	RESPONSE	n/a	n/a	n/a	n/a	n/a	n/a	n/a	blue
373.5694	1.0167	ITI	n/a	n/a	n/a	n/a	n/a	n/a	n/a	n/a
374.5861	0.5167	FIXCROSS	n/a	n/a	n/a	n/a	n/a	n/a	n/a	n/a
375.1027	0.7	COLOR_NAME	19	Incongruent	czerwony	red	żółty	yellow	hit	n/a
375.7732	n/a	RESPONSE	n/a	n/a	n/a	n/a	n/a	n/a	n/a	red
375.8028	1.0167	ITI	n/a	n/a	n/a	n/a	n/a	n/a	n/a	n/a
376.8194	0.5167	FIXCROSS	n/a	n/a	n/a	n/a	n/a	n/a	n/a	n/a
377.3361	0.75	COLOR_NAME	20	Incongruent	żółty	yellow	zielony	green	hit	n/a
378.0577	n/a	RESPONSE	n/a	n/a	n/a	n/a	n/a	n/a	n/a	yellow
378.0861	1.0166	ITI	n/a	n/a	n/a	n/a	n/a	n/a	n/a	n/a
379.1027	0.5167	FIXCROSS	n/a	n/a	n/a	n/a	n/a	n/a	n/a	n/a
379.6194	0.8333	COLOR_NAME	21	Neutral	zielony	green	Neutral	Neutral	hit	n/a
380.422	n/a	RESPONSE	n/a	n/a	n/a	n/a	n/a	n/a	n/a	green
380.4528	1.0166	ITI	n/a	n/a	n/a	n/a	n/a	n/a	n/a	n/a
381.4694	0.5167	FIXCROSS	n/a	n/a	n/a	n/a	n/a	n/a	n/a	n/a
381.9861	0.6	COLOR_NAME	22	Neutral	czerwony	red	Neutral	Neutral	hit	n/a
382.5625	n/a	RESPONSE	n/a	n/a	n/a	n/a	n/a	n/a	n/a	red
382.5861	1.0167	ITI	n/a	n/a	n/a	n/a	n/a	n/a	n/a	n/a
383.6028	0.5167	FIXCROSS	n/a	n/a	n/a	n/a	n/a	n/a	n/a	n/a
384.1195	0.8667	COLOR_NAME	23	Incongruent	niebieski	blue	czerwony	red	hit	n/a
384.9588	n/a	RESPONSE	n/a	n/a	n/a	n/a	n/a	n/a	n/a	blue
384.9862	1.0167	ITI	n/a	n/a	n/a	n/a	n/a	n/a	n/a	n/a
386.0028	0.5167	FIXCROSS	n/a	n/a	n/a	n/a	n/a	n/a	n/a	n/a
386.5195	0.7833	COLOR_NAME	24	Neutral	żółty	yellow	Neutral	Neutral	hit	n/a
387.2752	n/a	RESPONSE	n/a	n/a	n/a	n/a	n/a	n/a	n/a	yellow
387.3028	1.0167	ITI	n/a	n/a	n/a	n/a	n/a	n/a	n/a	n/a
388.3195	0.5167	FIXCROSS	n/a	n/a	n/a	n/a	n/a	n/a	n/a	n/a
388.8362	0.8	COLOR_NAME	25	Incongruent	żółty	yellow	czerwony	red	hit	n/a
389.6075	n/a	RESPONSE	n/a	n/a	n/a	n/a	n/a	n/a	n/a	yellow
389.6362	1.0167	ITI	n/a	n/a	n/a	n/a	n/a	n/a	n/a	n/a
390.6529	0.5167	FIXCROSS	n/a	n/a	n/a	n/a	n/a	n/a	n/a	n/a
391.1695	0.7667	COLOR_NAME	26	Incongruent	zielony	green	niebieski	blue	hit	n/a
391.9079	n/a	RESPONSE	n/a	n/a	n/a	n/a	n/a	n/a	n/a	green
391.9362	1.0167	ITI	n/a	n/a	n/a	n/a	n/a	n/a	n/a	n/a
392.9529	0.5167	FIXCROSS	n/a	n/a	n/a	n/a	n/a	n/a	n/a	n/a
393.4696	0.6	COLOR_NAME	27	Incongruent	czerwony	red	żółty	yellow	hit	n/a
394.0485	n/a	RESPONSE	n/a	n/a	n/a	n/a	n/a	n/a	n/a	red
394.0696	1.0167	ITI	n/a	n/a	n/a	n/a	n/a	n/a	n/a	n/a
395.0862	0.5167	FIXCROSS	n/a	n/a	n/a	n/a	n/a	n/a	n/a	n/a
395.6029	0.8333	COLOR_NAME	28	Neutral	niebieski	blue	Neutral	Neutral	hit	n/a
396.4128	n/a	RESPONSE	n/a	n/a	n/a	n/a	n/a	n/a	n/a	blue
396.4362	1.0167	ITI	n/a	n/a	n/a	n/a	n/a	n/a	n/a	n/a
397.4529	0.5167	FIXCROSS	n/a	n/a	n/a	n/a	n/a	n/a	n/a	n/a
397.9696	0.6333	COLOR_NAME	29	Neutral	czerwony	red	Neutral	Neutral	hit	n/a
398.5854	n/a	RESPONSE	n/a	n/a	n/a	n/a	n/a	n/a	n/a	red
398.6029	1.0167	ITI	n/a	n/a	n/a	n/a	n/a	n/a	n/a	n/a
399.6196	0.5167	FIXCROSS	n/a	n/a	n/a	n/a	n/a	n/a	n/a	n/a
400.1363	0.9333	COLOR_NAME	30	Incongruent	niebieski	blue	czerwony	red	hit	n/a
401.0455	n/a	RESPONSE	n/a	n/a	n/a	n/a	n/a	n/a	n/a	blue
401.0696	1.0167	ITI	n/a	n/a	n/a	n/a	n/a	n/a	n/a	n/a
402.0863	0.5167	FIXCROSS	n/a	n/a	n/a	n/a	n/a	n/a	n/a	n/a
402.603	0.9	COLOR_NAME	31	Incongruent	zielony	green	żółty	yellow	hit	n/a
403.4738	n/a	RESPONSE	n/a	n/a	n/a	n/a	n/a	n/a	n/a	green
403.503	1.0167	ITI	n/a	n/a	n/a	n/a	n/a	n/a	n/a	n/a
404.5197	0.5167	FIXCROSS	n/a	n/a	n/a	n/a	n/a	n/a	n/a	n/a
405.0363	0.7167	COLOR_NAME	32	Neutral	czerwony	red	Neutral	Neutral	hit	n/a
405.7262	n/a	RESPONSE	n/a	n/a	n/a	n/a	n/a	n/a	n/a	red
405.753	1.0167	ITI	n/a	n/a	n/a	n/a	n/a	n/a	n/a	n/a
406.7697	0.5167	FIXCROSS	n/a	n/a	n/a	n/a	n/a	n/a	n/a	n/a
407.2863	0.5333	COLOR_NAME	33	Neutral	czerwony	red	Neutral	Neutral	hit	n/a
407.787	n/a	RESPONSE	n/a	n/a	n/a	n/a	n/a	n/a	n/a	red
407.8197	1.0167	ITI	n/a	n/a	n/a	n/a	n/a	n/a	n/a	n/a
408.8364	0.5167	FIXCROSS	n/a	n/a	n/a	n/a	n/a	n/a	n/a	n/a
409.353	0.4667	COLOR_NAME	34	Incongruent	czerwony	red	niebieski	blue	hit	n/a
409.7998	n/a	RESPONSE	n/a	n/a	n/a	n/a	n/a	n/a	n/a	red
409.8197	1.0167	ITI	n/a	n/a	n/a	n/a	n/a	n/a	n/a	n/a
410.8364	0.5167	FIXCROSS	n/a	n/a	n/a	n/a	n/a	n/a	n/a	n/a
411.353	0.8333	COLOR_NAME	35	Incongruent	zielony	green	czerwony	red	hit	n/a
412.1641	n/a	RESPONSE	n/a	n/a	n/a	n/a	n/a	n/a	n/a	green
412.1864	1.0167	ITI	n/a	n/a	n/a	n/a	n/a	n/a	n/a	n/a
413.203	0.5167	FIXCROSS	n/a	n/a	n/a	n/a	n/a	n/a	n/a	n/a
413.7197	0.85	COLOR_NAME	36	Incongruent	żółty	yellow	niebieski	blue	hit	n/a
414.5444	n/a	RESPONSE	n/a	n/a	n/a	n/a	n/a	n/a	n/a	yellow
414.5697	1.0167	ITI	n/a	n/a	n/a	n/a	n/a	n/a	n/a	n/a
415.5864	0.5167	FIXCROSS	n/a	n/a	n/a	n/a	n/a	n/a	n/a	n/a
416.1031	0.75	COLOR_NAME	37	Incongruent	żółty	yellow	zielony	green	hit	n/a
416.8288	n/a	RESPONSE	n/a	n/a	n/a	n/a	n/a	n/a	n/a	yellow
416.8531	1.0167	ITI	n/a	n/a	n/a	n/a	n/a	n/a	n/a	n/a
417.8698	0.5167	FIXCROSS	n/a	n/a	n/a	n/a	n/a	n/a	n/a	n/a
418.3864	0.7833	COLOR_NAME	38	Incongruent	niebieski	blue	zielony	green	hit	n/a
419.1452	n/a	RESPONSE	n/a	n/a	n/a	n/a	n/a	n/a	n/a	blue
419.1698	1.0167	ITI	n/a	n/a	n/a	n/a	n/a	n/a	n/a	n/a
420.1864	0.5167	FIXCROSS	n/a	n/a	n/a	n/a	n/a	n/a	n/a	n/a
420.7031	0.7667	COLOR_NAME	39	Neutral	żółty	yellow	Neutral	Neutral	hit	n/a
421.4456	n/a	RESPONSE	n/a	n/a	n/a	n/a	n/a	n/a	n/a	yellow
421.4698	1.0167	ITI	n/a	n/a	n/a	n/a	n/a	n/a	n/a	n/a
422.4865	0.5167	FIXCROSS	n/a	n/a	n/a	n/a	n/a	n/a	n/a	n/a
423.0031	0.8333	COLOR_NAME	40	Incongruent	niebieski	blue	czerwony	red	hit	n/a
423.8099	n/a	RESPONSE	n/a	n/a	n/a	n/a	n/a	n/a	n/a	blue
423.8365	1.0167	ITI	n/a	n/a	n/a	n/a	n/a	n/a	n/a	n/a
424.8531	0.5167	FIXCROSS	n/a	n/a	n/a	n/a	n/a	n/a	n/a	n/a
425.3698	0.9333	COLOR_NAME	41	Incongruent	zielony	green	niebieski	blue	hit	n/a
426.27	n/a	RESPONSE	n/a	n/a	n/a	n/a	n/a	n/a	n/a	green
426.3032	1.0167	ITI	n/a	n/a	n/a	n/a	n/a	n/a	n/a	n/a
427.3198	0.5167	FIXCROSS	n/a	n/a	n/a	n/a	n/a	n/a	n/a	n/a
427.8365	0.7833	COLOR_NAME	42	Incongruent	niebieski	blue	żółty	yellow	hit	n/a
428.6023	n/a	RESPONSE	n/a	n/a	n/a	n/a	n/a	n/a	n/a	blue
428.6198	1.0167	ITI	n/a	n/a	n/a	n/a	n/a	n/a	n/a	n/a
429.6365	0.5167	FIXCROSS	n/a	n/a	n/a	n/a	n/a	n/a	n/a	n/a
430.1532	0.8333	COLOR_NAME	43	Neutral	żółty	yellow	Neutral	Neutral	hit	n/a
430.9667	n/a	RESPONSE	n/a	n/a	n/a	n/a	n/a	n/a	n/a	yellow
430.9865	1.0167	ITI	n/a	n/a	n/a	n/a	n/a	n/a	n/a	n/a
432.0032	0.5167	FIXCROSS	n/a	n/a	n/a	n/a	n/a	n/a	n/a	n/a
432.5199	0.85	COLOR_NAME	44	Incongruent	zielony	green	niebieski	blue	hit	n/a
433.3469	n/a	RESPONSE	n/a	n/a	n/a	n/a	n/a	n/a	n/a	green
433.3699	1.0167	ITI	n/a	n/a	n/a	n/a	n/a	n/a	n/a	n/a
434.3866	0.5167	FIXCROSS	n/a	n/a	n/a	n/a	n/a	n/a	n/a	n/a
434.9032	0.65	COLOR_NAME	45	Neutral	zielony	green	Neutral	Neutral	hit	n/a
435.5195	n/a	RESPONSE	n/a	n/a	n/a	n/a	n/a	n/a	n/a	green
435.5532	1.0167	ITI	n/a	n/a	n/a	n/a	n/a	n/a	n/a	n/a
436.5699	0.5167	FIXCROSS	n/a	n/a	n/a	n/a	n/a	n/a	n/a	n/a
437.0866	0.6167	COLOR_NAME	46	Incongruent	zielony	green	żółty	yellow	hit	n/a
437.6761	n/a	RESPONSE	n/a	n/a	n/a	n/a	n/a	n/a	n/a	green
437.7033	1.0167	ITI	n/a	n/a	n/a	n/a	n/a	n/a	n/a	n/a
438.7199	0.5167	FIXCROSS	n/a	n/a	n/a	n/a	n/a	n/a	n/a	n/a
439.2366	0.75	COLOR_NAME	47	Neutral	żółty	yellow	Neutral	Neutral	hit	n/a
439.9606	n/a	RESPONSE	n/a	n/a	n/a	n/a	n/a	n/a	n/a	yellow
439.9866	1.0167	ITI	n/a	n/a	n/a	n/a	n/a	n/a	n/a	n/a
441.0033	0.5167	FIXCROSS	n/a	n/a	n/a	n/a	n/a	n/a	n/a	n/a
441.52	0.75	COLOR_NAME	48	Neutral	zielony	green	Neutral	Neutral	hit	n/a
442.2449	n/a	RESPONSE	n/a	n/a	n/a	n/a	n/a	n/a	n/a	green
442.27	1.0167	ITI	n/a	n/a	n/a	n/a	n/a	n/a	n/a	n/a
443.2866	0.5167	FIXCROSS	n/a	n/a	n/a	n/a	n/a	n/a	n/a	n/a
443.8033	0.75	COLOR_NAME	49	Incongruent	żółty	yellow	niebieski	blue	hit	n/a
444.5294	n/a	RESPONSE	n/a	n/a	n/a	n/a	n/a	n/a	n/a	yellow
444.5533	1.0167	ITI	n/a	n/a	n/a	n/a	n/a	n/a	n/a	n/a
445.57	0.5167	FIXCROSS	n/a	n/a	n/a	n/a	n/a	n/a	n/a	n/a
446.0867	0.8167	COLOR_NAME	50	Incongruent	niebieski	blue	żółty	yellow	hit	n/a
446.8778	n/a	RESPONSE	n/a	n/a	n/a	n/a	n/a	n/a	n/a	blue
446.9033	1.0167	ITI	n/a	n/a	n/a	n/a	n/a	n/a	n/a	n/a
447.92	0.5167	FIXCROSS	n/a	n/a	n/a	n/a	n/a	n/a	n/a	n/a
448.4367	0.6667	COLOR_NAME	51	Neutral	czerwony	red	Neutral	Neutral	hit	n/a
449.0822	n/a	RESPONSE	n/a	n/a	n/a	n/a	n/a	n/a	n/a	red
449.1033	1.0167	ITI	n/a	n/a	n/a	n/a	n/a	n/a	n/a	n/a
450.12	0.5167	FIXCROSS	n/a	n/a	n/a	n/a	n/a	n/a	n/a	n/a
450.6367	0.8167	COLOR_NAME	52	Neutral	niebieski	blue	Neutral	Neutral	hit	n/a
451.4306	n/a	RESPONSE	n/a	n/a	n/a	n/a	n/a	n/a	n/a	blue
451.4534	1.0167	ITI	n/a	n/a	n/a	n/a	n/a	n/a	n/a	n/a
452.47	0.5167	FIXCROSS	n/a	n/a	n/a	n/a	n/a	n/a	n/a	n/a
452.9867	0.7	COLOR_NAME	53	Neutral	żółty	yellow	Neutral	Neutral	hit	n/a
453.6672	n/a	RESPONSE	n/a	n/a	n/a	n/a	n/a	n/a	n/a	yellow
453.6867	1.0167	ITI	n/a	n/a	n/a	n/a	n/a	n/a	n/a	n/a
454.7034	0.5167	FIXCROSS	n/a	n/a	n/a	n/a	n/a	n/a	n/a	n/a
455.2201	0.8	COLOR_NAME	54	Incongruent	niebieski	blue	zielony	green	hit	n/a
455.9995	n/a	RESPONSE	n/a	n/a	n/a	n/a	n/a	n/a	n/a	blue
456.0201	1.0167	ITI	n/a	n/a	n/a	n/a	n/a	n/a	n/a	n/a
457.0367	0.5167	FIXCROSS	n/a	n/a	n/a	n/a	n/a	n/a	n/a	n/a
457.5534	0.7833	COLOR_NAME	55	Incongruent	zielony	green	czerwony	red	hit	n/a
458.3159	n/a	RESPONSE	n/a	n/a	n/a	n/a	n/a	n/a	n/a	green
458.3367	1.0167	ITI	n/a	n/a	n/a	n/a	n/a	n/a	n/a	n/a
459.3534	0.5167	FIXCROSS	n/a	n/a	n/a	n/a	n/a	n/a	n/a	n/a
459.8701	0.7	COLOR_NAME	56	Incongruent	czerwony	red	zielony	green	hit	n/a
460.5524	n/a	RESPONSE	n/a	n/a	n/a	n/a	n/a	n/a	n/a	red
460.5701	1.0167	ITI	n/a	n/a	n/a	n/a	n/a	n/a	n/a	n/a
461.5868	0.5167	FIXCROSS	n/a	n/a	n/a	n/a	n/a	n/a	n/a	n/a
462.1034	0.85	COLOR_NAME	57	Neutral	niebieski	blue	Neutral	Neutral	hit	n/a
462.9327	n/a	RESPONSE	n/a	n/a	n/a	n/a	n/a	n/a	n/a	blue
462.9535	1.0167	ITI	n/a	n/a	n/a	n/a	n/a	n/a	n/a	n/a
463.9701	0.5167	FIXCROSS	n/a	n/a	n/a	n/a	n/a	n/a	n/a	n/a
464.4868	0.6833	COLOR_NAME	58	Neutral	żółty	yellow	Neutral	Neutral	hit	n/a
465.1372	n/a	RESPONSE	n/a	n/a	n/a	n/a	n/a	n/a	n/a	yellow
465.1701	1.0167	ITI	n/a	n/a	n/a	n/a	n/a	n/a	n/a	n/a
466.1868	0.5167	FIXCROSS	n/a	n/a	n/a	n/a	n/a	n/a	n/a	n/a
466.7035	0.7333	COLOR_NAME	59	Neutral	zielony	green	Neutral	Neutral	hit	n/a
467.4057	n/a	RESPONSE	n/a	n/a	n/a	n/a	n/a	n/a	n/a	green
467.4368	1.0167	ITI	n/a	n/a	n/a	n/a	n/a	n/a	n/a	n/a
468.4535	0.5167	FIXCROSS	n/a	n/a	n/a	n/a	n/a	n/a	n/a	n/a
468.9702	0.7333	COLOR_NAME	60	Neutral	żółty	yellow	Neutral	Neutral	hit	n/a
469.6741	n/a	RESPONSE	n/a	n/a	n/a	n/a	n/a	n/a	n/a	yellow
469.7035	1.0167	ITI	n/a	n/a	n/a	n/a	n/a	n/a	n/a	n/a
470.7202	0.5167	FIXCROSS	n/a	n/a	n/a	n/a	n/a	n/a	n/a	n/a
471.2369	0.6333	COLOR_NAME	61	Neutral	czerwony	red	Neutral	Neutral	hit	n/a
471.8467	n/a	RESPONSE	n/a	n/a	n/a	n/a	n/a	n/a	n/a	red
471.8702	1.0167	ITI	n/a	n/a	n/a	n/a	n/a	n/a	n/a	n/a
472.8869	0.5167	FIXCROSS	n/a	n/a	n/a	n/a	n/a	n/a	n/a	n/a
473.4035	0.6333	COLOR_NAME	62	Incongruent	czerwony	red	zielony	green	hit	n/a
474.0033	n/a	RESPONSE	n/a	n/a	n/a	n/a	n/a	n/a	n/a	red
474.0369	1.0167	ITI	n/a	n/a	n/a	n/a	n/a	n/a	n/a	n/a
475.0536	0.5167	FIXCROSS	n/a	n/a	n/a	n/a	n/a	n/a	n/a	n/a
475.5702	0.4833	COLOR_NAME	63	Incongruent	czerwony	red	żółty	yellow	hit	n/a
476.0322	n/a	RESPONSE	n/a	n/a	n/a	n/a	n/a	n/a	n/a	red
476.0536	1.0167	ITI	n/a	n/a	n/a	n/a	n/a	n/a	n/a	n/a
477.0702	0.5167	FIXCROSS	n/a	n/a	n/a	n/a	n/a	n/a	n/a	n/a
477.5869	0.7833	COLOR_NAME	64	Incongruent	żółty	yellow	niebieski	blue	hit	n/a
478.3485	n/a	RESPONSE	n/a	n/a	n/a	n/a	n/a	n/a	n/a	yellow
478.3703	1.0167	ITI	n/a	n/a	n/a	n/a	n/a	n/a	n/a	n/a
479.3869	0.5167	FIXCROSS	n/a	n/a	n/a	n/a	n/a	n/a	n/a	n/a
479.9036	0.7667	COLOR_NAME	65	Incongruent	niebieski	blue	żółty	yellow	hit	n/a
480.6489	n/a	RESPONSE	n/a	n/a	n/a	n/a	n/a	n/a	n/a	blue
480.6703	1.0167	ITI	n/a	n/a	n/a	n/a	n/a	n/a	n/a	n/a
481.6869	0.5167	FIXCROSS	n/a	n/a	n/a	n/a	n/a	n/a	n/a	n/a
482.2036	0.7167	COLOR_NAME	66	Neutral	niebieski	blue	Neutral	Neutral	hit	n/a
482.9015	n/a	RESPONSE	n/a	n/a	n/a	n/a	n/a	n/a	n/a	blue
482.9203	1.0167	ITI	n/a	n/a	n/a	n/a	n/a	n/a	n/a	n/a
483.937	0.5167	FIXCROSS	n/a	n/a	n/a	n/a	n/a	n/a	n/a	n/a
484.4536	0.65	COLOR_NAME	67	Neutral	zielony	green	Neutral	Neutral	hit	n/a
485.0741	n/a	RESPONSE	n/a	n/a	n/a	n/a	n/a	n/a	n/a	green
485.1036	1.0167	ITI	n/a	n/a	n/a	n/a	n/a	n/a	n/a	n/a
486.1203	0.5167	FIXCROSS	n/a	n/a	n/a	n/a	n/a	n/a	n/a	n/a
486.637	0.6333	COLOR_NAME	68	Neutral	żółty	yellow	Neutral	Neutral	hit	n/a
487.2467	n/a	RESPONSE	n/a	n/a	n/a	n/a	n/a	n/a	n/a	yellow
487.2703	1.0167	ITI	n/a	n/a	n/a	n/a	n/a	n/a	n/a	n/a
488.287	0.5167	FIXCROSS	n/a	n/a	n/a	n/a	n/a	n/a	n/a	n/a
488.8037	0.6	COLOR_NAME	69	Neutral	żółty	yellow	Neutral	Neutral	hit	n/a
489.3713	n/a	RESPONSE	n/a	n/a	n/a	n/a	n/a	n/a	n/a	yellow
489.4037	1.0167	ITI	n/a	n/a	n/a	n/a	n/a	n/a	n/a	n/a
490.4203	0.5167	FIXCROSS	n/a	n/a	n/a	n/a	n/a	n/a	n/a	n/a
490.937	0.6667	COLOR_NAME	70	Incongruent	czerwony	red	niebieski	blue	hit	n/a
491.5759	n/a	RESPONSE	n/a	n/a	n/a	n/a	n/a	n/a	n/a	red
491.6037	1.0167	ITI	n/a	n/a	n/a	n/a	n/a	n/a	n/a	n/a
492.6204	0.5167	FIXCROSS	n/a	n/a	n/a	n/a	n/a	n/a	n/a	n/a
493.137	0.75	COLOR_NAME	71	Neutral	zielony	green	Neutral	Neutral	hit	n/a
493.8602	n/a	RESPONSE	n/a	n/a	n/a	n/a	n/a	n/a	n/a	green
493.887	1.0167	ITI	n/a	n/a	n/a	n/a	n/a	n/a	n/a	n/a
494.9037	0.5167	FIXCROSS	n/a	n/a	n/a	n/a	n/a	n/a	n/a	n/a
495.4204	0.8167	COLOR_NAME	72	Neutral	niebieski	blue	Neutral	Neutral	hit	n/a
496.2087	n/a	RESPONSE	n/a	n/a	n/a	n/a	n/a	n/a	n/a	blue
496.2371	1.0333	ITI	n/a	n/a	n/a	n/a	n/a	n/a	n/a	n/a
499.3078	n/a	RESPONSE	n/a	n/a	n/a	n/a	n/a	n/a	n/a	n/a
