onset	duration	trial_type	trial_number	stroop_condition	stim_text(PL)	stim_text(eng)	stim_color(PL)	stim_color(eng)	response_type	response_color
0.0	n/a	RESPONSE	n/a	n/a	n/a	n/a	n/a	n/a	n/a	n/a
0.0245	1.0167	ITI	n/a	n/a	n/a	n/a	n/a	n/a	n/a	n/a
1.0412	0.5	FIXCROSS	n/a	n/a	n/a	n/a	n/a	n/a	n/a	n/a
1.5411	3.5166	T_INK	1	Incongruent	zielony	green	żółty	yellow	hit	n/a
5.0526	n/a	RESPONSE	n/a	n/a	n/a	n/a	n/a	n/a	n/a	yellow
5.0577	0.5	FEEDBACK	n/a	n/a	n/a	n/a	n/a	n/a	n/a	n/a
5.5577	1.0	ITI	n/a	n/a	n/a	n/a	n/a	n/a	n/a	n/a
6.5577	0.5	FIXCROSS	n/a	n/a	n/a	n/a	n/a	n/a	n/a	n/a
7.0577	1.8497	T_INK	2	Incongruent	zielony	green	niebieski	blue	hit	n/a
8.89	n/a	RESPONSE	n/a	n/a	n/a	n/a	n/a	n/a	n/a	blue
8.9074	0.5003	FEEDBACK	n/a	n/a	n/a	n/a	n/a	n/a	n/a	n/a
9.4077	1.0	ITI	n/a	n/a	n/a	n/a	n/a	n/a	n/a	n/a
10.4076	0.5	FIXCROSS	n/a	n/a	n/a	n/a	n/a	n/a	n/a	n/a
10.9076	0.9167	T_INK	3	Neutral	xxxxxxxxx	xxxxxxxxx	czerwony	red	hit	n/a
11.8159	n/a	RESPONSE	n/a	n/a	n/a	n/a	n/a	n/a	n/a	red
11.8243	0.5	FEEDBACK	n/a	n/a	n/a	n/a	n/a	n/a	n/a	n/a
12.3243	1.0166	ITI	n/a	n/a	n/a	n/a	n/a	n/a	n/a	n/a
13.3409	0.5	FIXCROSS	n/a	n/a	n/a	n/a	n/a	n/a	n/a	n/a
13.8409	1.1667	T_INK	4	Incongruent	żółty	yellow	niebieski	blue	hit	n/a
14.9978	n/a	RESPONSE	n/a	n/a	n/a	n/a	n/a	n/a	n/a	blue
15.0076	0.5	FEEDBACK	n/a	n/a	n/a	n/a	n/a	n/a	n/a	n/a
15.5076	1.0	ITI	n/a	n/a	n/a	n/a	n/a	n/a	n/a	n/a
16.5075	0.5	FIXCROSS	n/a	n/a	n/a	n/a	n/a	n/a	n/a	n/a
17.0075	0.8	T_INK	5	Incongruent	czerwony	red	żółty	yellow	hit	n/a
17.7959	n/a	RESPONSE	n/a	n/a	n/a	n/a	n/a	n/a	n/a	yellow
17.8075	0.5	FEEDBACK	n/a	n/a	n/a	n/a	n/a	n/a	n/a	n/a
18.3075	1.0	ITI	n/a	n/a	n/a	n/a	n/a	n/a	n/a	n/a
19.3075	0.5	FIXCROSS	n/a	n/a	n/a	n/a	n/a	n/a	n/a	n/a
19.8075	0.6833	T_INK	6	Neutral	xxxxxxxx	xxxxxxxx	żółty	yellow	hit	n/a
20.4821	n/a	RESPONSE	n/a	n/a	n/a	n/a	n/a	n/a	n/a	yellow
20.4908	0.5	FEEDBACK	n/a	n/a	n/a	n/a	n/a	n/a	n/a	n/a
20.9908	1.0	ITI	n/a	n/a	n/a	n/a	n/a	n/a	n/a	n/a
21.9908	0.5	FIXCROSS	n/a	n/a	n/a	n/a	n/a	n/a	n/a	n/a
22.4908	0.9333	T_INK	7	Incongruent	zielony	green	czerwony	red	hit	n/a
23.4082	n/a	RESPONSE	n/a	n/a	n/a	n/a	n/a	n/a	n/a	red
23.4241	0.5	FEEDBACK	n/a	n/a	n/a	n/a	n/a	n/a	n/a	n/a
23.9241	1.0	ITI	n/a	n/a	n/a	n/a	n/a	n/a	n/a	n/a
24.9241	0.5	FIXCROSS	n/a	n/a	n/a	n/a	n/a	n/a	n/a	n/a
25.4241	1.2	T_INK	8	Incongruent	niebieski	blue	zielony	green	hit	n/a
26.606	n/a	RESPONSE	n/a	n/a	n/a	n/a	n/a	n/a	n/a	green
26.624	0.5	FEEDBACK	n/a	n/a	n/a	n/a	n/a	n/a	n/a	n/a
27.124	1.0	ITI	n/a	n/a	n/a	n/a	n/a	n/a	n/a	n/a
28.124	0.5	FIXCROSS	n/a	n/a	n/a	n/a	n/a	n/a	n/a	n/a
28.624	0.85	T_INK	9	Neutral	xxxxxxxx	xxxxxxxx	niebieski	blue	hit	n/a
29.468	n/a	RESPONSE	n/a	n/a	n/a	n/a	n/a	n/a	n/a	blue
29.474	0.5	FEEDBACK	n/a	n/a	n/a	n/a	n/a	n/a	n/a	n/a
29.974	1.0	ITI	n/a	n/a	n/a	n/a	n/a	n/a	n/a	n/a
30.9739	0.5	FIXCROSS	n/a	n/a	n/a	n/a	n/a	n/a	n/a	n/a
31.4739	1.9	T_INK	10	Neutral	xxxxx	xxxxx	zielony	green	hit	n/a
33.3693	n/a	RESPONSE	n/a	n/a	n/a	n/a	n/a	n/a	n/a	green
33.3739	0.5	FEEDBACK	n/a	n/a	n/a	n/a	n/a	n/a	n/a	n/a
33.8739	1.0	ITI	n/a	n/a	n/a	n/a	n/a	n/a	n/a	n/a
34.8739	0.5	FIXCROSS	n/a	n/a	n/a	n/a	n/a	n/a	n/a	n/a
35.3739	1.5833	T_INK	11	Neutral	xxxxxxx	xxxxxxx	niebieski	blue	hit	n/a
36.9509	n/a	RESPONSE	n/a	n/a	n/a	n/a	n/a	n/a	n/a	blue
36.9572	0.5	FEEDBACK	n/a	n/a	n/a	n/a	n/a	n/a	n/a	n/a
37.4572	1.0	ITI	n/a	n/a	n/a	n/a	n/a	n/a	n/a	n/a
38.4571	0.5	FIXCROSS	n/a	n/a	n/a	n/a	n/a	n/a	n/a	n/a
38.9571	0.9167	T_INK	12	Neutral	xxxxxxx	xxxxxxx	żółty	yellow	hit	n/a
39.8609	n/a	RESPONSE	n/a	n/a	n/a	n/a	n/a	n/a	n/a	yellow
39.8738	0.5	FEEDBACK	n/a	n/a	n/a	n/a	n/a	n/a	n/a	n/a
40.3738	1.0	ITI	n/a	n/a	n/a	n/a	n/a	n/a	n/a	n/a
44.4657	n/a	RESPONSE	n/a	n/a	n/a	n/a	n/a	n/a	n/a	n/a
44.4904	1.0	ITI	n/a	n/a	n/a	n/a	n/a	n/a	n/a	n/a
45.4904	0.5	FIXCROSS	n/a	n/a	n/a	n/a	n/a	n/a	n/a	n/a
45.9904	1.1666	INK	1	Incongruent	czerwony	red	zielony	green	hit	n/a
47.1519	n/a	RESPONSE	n/a	n/a	n/a	n/a	n/a	n/a	n/a	green
47.157	1.0	ITI	n/a	n/a	n/a	n/a	n/a	n/a	n/a	n/a
48.157	0.5	FIXCROSS	n/a	n/a	n/a	n/a	n/a	n/a	n/a	n/a
48.657	0.8666	INK	2	Incongruent	żółty	yellow	niebieski	blue	hit	n/a
49.5183	n/a	RESPONSE	n/a	n/a	n/a	n/a	n/a	n/a	n/a	blue
49.5236	1.0	ITI	n/a	n/a	n/a	n/a	n/a	n/a	n/a	n/a
50.5236	0.5	FIXCROSS	n/a	n/a	n/a	n/a	n/a	n/a	n/a	n/a
51.0236	0.45	INK	3	Incongruent	żółty	yellow	czerwony	red	hit	n/a
51.4531	n/a	RESPONSE	n/a	n/a	n/a	n/a	n/a	n/a	n/a	red
51.4736	1.0	ITI	n/a	n/a	n/a	n/a	n/a	n/a	n/a	n/a
52.4736	0.5	FIXCROSS	n/a	n/a	n/a	n/a	n/a	n/a	n/a	n/a
52.9736	0.7	INK	4	Neutral	xxxxx	xxxxx	czerwony	red	hit	n/a
53.6594	n/a	RESPONSE	n/a	n/a	n/a	n/a	n/a	n/a	n/a	red
53.6736	1.0	ITI	n/a	n/a	n/a	n/a	n/a	n/a	n/a	n/a
54.6735	0.5	FIXCROSS	n/a	n/a	n/a	n/a	n/a	n/a	n/a	n/a
55.1735	0.8666	INK	5	Incongruent	żółty	yellow	czerwony	red	hit	n/a
56.0259	n/a	RESPONSE	n/a	n/a	n/a	n/a	n/a	n/a	n/a	red
56.0402	1.0	ITI	n/a	n/a	n/a	n/a	n/a	n/a	n/a	n/a
57.0402	0.5	FIXCROSS	n/a	n/a	n/a	n/a	n/a	n/a	n/a	n/a
57.5401	1.3333	INK	6	Neutral	xxxxx	xxxxx	zielony	green	hit	n/a
58.856	n/a	RESPONSE	n/a	n/a	n/a	n/a	n/a	n/a	n/a	green
58.8735	1.0	ITI	n/a	n/a	n/a	n/a	n/a	n/a	n/a	n/a
59.8734	0.5	FIXCROSS	n/a	n/a	n/a	n/a	n/a	n/a	n/a	n/a
60.3734	0.8833	INK	7	Incongruent	niebieski	blue	żółty	yellow	hit	n/a
61.2384	n/a	RESPONSE	n/a	n/a	n/a	n/a	n/a	n/a	n/a	yellow
61.2567	1.0	ITI	n/a	n/a	n/a	n/a	n/a	n/a	n/a	n/a
62.2567	0.5	FIXCROSS	n/a	n/a	n/a	n/a	n/a	n/a	n/a	n/a
62.7567	0.9666	INK	8	Neutral	xxxxxxx	xxxxxxx	niebieski	blue	hit	n/a
63.7168	n/a	RESPONSE	n/a	n/a	n/a	n/a	n/a	n/a	n/a	blue
63.7234	1.0	ITI	n/a	n/a	n/a	n/a	n/a	n/a	n/a	n/a
64.7234	0.5	FIXCROSS	n/a	n/a	n/a	n/a	n/a	n/a	n/a	n/a
65.2233	0.9833	INK	9	Incongruent	czerwony	red	zielony	green	hit	n/a
66.195	n/a	RESPONSE	n/a	n/a	n/a	n/a	n/a	n/a	n/a	green
66.2066	1.0	ITI	n/a	n/a	n/a	n/a	n/a	n/a	n/a	n/a
67.2066	0.5	FIXCROSS	n/a	n/a	n/a	n/a	n/a	n/a	n/a	n/a
67.7066	0.8833	INK	10	Neutral	xxxxx	xxxxx	niebieski	blue	hit	n/a
68.5774	n/a	RESPONSE	n/a	n/a	n/a	n/a	n/a	n/a	n/a	blue
68.59	1.0	ITI	n/a	n/a	n/a	n/a	n/a	n/a	n/a	n/a
69.5899	0.5	FIXCROSS	n/a	n/a	n/a	n/a	n/a	n/a	n/a	n/a
70.0899	0.8833	INK	11	Incongruent	żółty	yellow	zielony	green	hit	n/a
70.9597	n/a	RESPONSE	n/a	n/a	n/a	n/a	n/a	n/a	n/a	green
70.9732	1.0	ITI	n/a	n/a	n/a	n/a	n/a	n/a	n/a	n/a
71.9732	0.5	FIXCROSS	n/a	n/a	n/a	n/a	n/a	n/a	n/a	n/a
72.4732	1.0	INK	12	Neutral	xxxxxxxx	xxxxxxxx	niebieski	blue	hit	n/a
73.4541	n/a	RESPONSE	n/a	n/a	n/a	n/a	n/a	n/a	n/a	blue
73.4732	1.0	ITI	n/a	n/a	n/a	n/a	n/a	n/a	n/a	n/a
74.4732	0.5	FIXCROSS	n/a	n/a	n/a	n/a	n/a	n/a	n/a	n/a
74.9732	0.85	INK	13	Neutral	xxxxxxxxx	xxxxxxxxx	czerwony	red	hit	n/a
75.8044	n/a	RESPONSE	n/a	n/a	n/a	n/a	n/a	n/a	n/a	red
75.8231	1.0	ITI	n/a	n/a	n/a	n/a	n/a	n/a	n/a	n/a
76.8231	0.5	FIXCROSS	n/a	n/a	n/a	n/a	n/a	n/a	n/a	n/a
77.3231	0.8167	INK	14	Incongruent	zielony	green	czerwony	red	hit	n/a
78.1229	n/a	RESPONSE	n/a	n/a	n/a	n/a	n/a	n/a	n/a	red
78.1398	1.0	ITI	n/a	n/a	n/a	n/a	n/a	n/a	n/a	n/a
79.1398	0.5	FIXCROSS	n/a	n/a	n/a	n/a	n/a	n/a	n/a	n/a
79.6398	0.8666	INK	15	Neutral	xxxxxxx	xxxxxxx	żółty	yellow	hit	n/a
80.4893	n/a	RESPONSE	n/a	n/a	n/a	n/a	n/a	n/a	n/a	yellow
80.5064	1.0	ITI	n/a	n/a	n/a	n/a	n/a	n/a	n/a	n/a
81.5064	0.5	FIXCROSS	n/a	n/a	n/a	n/a	n/a	n/a	n/a	n/a
82.0064	0.9	INK	16	Neutral	xxxxxxxxx	xxxxxxxxx	czerwony	red	hit	n/a
82.8876	n/a	RESPONSE	n/a	n/a	n/a	n/a	n/a	n/a	n/a	red
82.9064	1.0	ITI	n/a	n/a	n/a	n/a	n/a	n/a	n/a	n/a
83.9063	0.5	FIXCROSS	n/a	n/a	n/a	n/a	n/a	n/a	n/a	n/a
84.4063	0.7333	INK	17	Incongruent	zielony	green	czerwony	red	hit	n/a
85.1261	n/a	RESPONSE	n/a	n/a	n/a	n/a	n/a	n/a	n/a	red
85.1397	1.0	ITI	n/a	n/a	n/a	n/a	n/a	n/a	n/a	n/a
86.1396	0.5	FIXCROSS	n/a	n/a	n/a	n/a	n/a	n/a	n/a	n/a
86.6396	1.2333	INK	18	Incongruent	niebieski	blue	zielony	green	hit	n/a
87.8602	n/a	RESPONSE	n/a	n/a	n/a	n/a	n/a	n/a	n/a	green
87.8729	1.0	ITI	n/a	n/a	n/a	n/a	n/a	n/a	n/a	n/a
88.8729	0.5	FIXCROSS	n/a	n/a	n/a	n/a	n/a	n/a	n/a	n/a
89.3729	0.6666	INK	19	Neutral	xxxxxxxxx	xxxxxxxxx	czerwony	red	hit	n/a
90.0349	n/a	RESPONSE	n/a	n/a	n/a	n/a	n/a	n/a	n/a	red
90.0396	1.0	ITI	n/a	n/a	n/a	n/a	n/a	n/a	n/a	n/a
91.0395	0.5	FIXCROSS	n/a	n/a	n/a	n/a	n/a	n/a	n/a	n/a
91.5395	0.7167	INK	20	Neutral	xxxxx	xxxxx	czerwony	red	hit	n/a
92.2413	n/a	RESPONSE	n/a	n/a	n/a	n/a	n/a	n/a	n/a	red
92.2562	1.0	ITI	n/a	n/a	n/a	n/a	n/a	n/a	n/a	n/a
93.2562	0.5	FIXCROSS	n/a	n/a	n/a	n/a	n/a	n/a	n/a	n/a
93.7562	0.6167	INK	21	Incongruent	niebieski	blue	czerwony	red	hit	n/a
94.3678	n/a	RESPONSE	n/a	n/a	n/a	n/a	n/a	n/a	n/a	red
94.3728	1.0	ITI	n/a	n/a	n/a	n/a	n/a	n/a	n/a	n/a
95.3728	0.5	FIXCROSS	n/a	n/a	n/a	n/a	n/a	n/a	n/a	n/a
95.8728	0.5333	INK	22	Incongruent	zielony	green	czerwony	red	hit	n/a
96.3984	n/a	RESPONSE	n/a	n/a	n/a	n/a	n/a	n/a	n/a	red
96.4061	1.0	ITI	n/a	n/a	n/a	n/a	n/a	n/a	n/a	n/a
97.4061	0.5	FIXCROSS	n/a	n/a	n/a	n/a	n/a	n/a	n/a	n/a
97.9061	0.3833	INK	23	Neutral	xxxxxxx	xxxxxxx	czerwony	red	hit	n/a
98.2851	n/a	RESPONSE	n/a	n/a	n/a	n/a	n/a	n/a	n/a	red
98.2894	1.0	ITI	n/a	n/a	n/a	n/a	n/a	n/a	n/a	n/a
99.2894	0.5	FIXCROSS	n/a	n/a	n/a	n/a	n/a	n/a	n/a	n/a
99.7894	0.8167	INK	24	Incongruent	zielony	green	niebieski	blue	hit	n/a
100.5877	n/a	RESPONSE	n/a	n/a	n/a	n/a	n/a	n/a	n/a	blue
100.606	1.0	ITI	n/a	n/a	n/a	n/a	n/a	n/a	n/a	n/a
101.606	0.5	FIXCROSS	n/a	n/a	n/a	n/a	n/a	n/a	n/a	n/a
102.106	0.8166	INK	25	Incongruent	czerwony	red	żółty	yellow	hit	n/a
102.9061	n/a	RESPONSE	n/a	n/a	n/a	n/a	n/a	n/a	n/a	yellow
102.9227	1.0	ITI	n/a	n/a	n/a	n/a	n/a	n/a	n/a	n/a
103.9227	0.5	FIXCROSS	n/a	n/a	n/a	n/a	n/a	n/a	n/a	n/a
104.4226	1.0333	INK	26	Neutral	xxxxxxxxx	xxxxxxxxx	zielony	green	hit	n/a
105.4484	n/a	RESPONSE	n/a	n/a	n/a	n/a	n/a	n/a	n/a	green
105.456	1.0	ITI	n/a	n/a	n/a	n/a	n/a	n/a	n/a	n/a
106.4559	0.5	FIXCROSS	n/a	n/a	n/a	n/a	n/a	n/a	n/a	n/a
106.9559	0.8667	INK	27	Neutral	xxxxxxxx	xxxxxxxx	zielony	green	hit	n/a
107.8147	n/a	RESPONSE	n/a	n/a	n/a	n/a	n/a	n/a	n/a	green
107.8226	1.0	ITI	n/a	n/a	n/a	n/a	n/a	n/a	n/a	n/a
108.8226	0.5	FIXCROSS	n/a	n/a	n/a	n/a	n/a	n/a	n/a	n/a
109.3226	0.6667	INK	28	Neutral	xxxxxxx	xxxxxxx	żółty	yellow	hit	n/a
109.9732	n/a	RESPONSE	n/a	n/a	n/a	n/a	n/a	n/a	n/a	yellow
109.9892	1.0	ITI	n/a	n/a	n/a	n/a	n/a	n/a	n/a	n/a
110.9892	0.5	FIXCROSS	n/a	n/a	n/a	n/a	n/a	n/a	n/a	n/a
111.4892	0.8667	INK	29	Incongruent	czerwony	red	niebieski	blue	hit	n/a
112.3397	n/a	RESPONSE	n/a	n/a	n/a	n/a	n/a	n/a	n/a	blue
112.3558	1.0	ITI	n/a	n/a	n/a	n/a	n/a	n/a	n/a	n/a
113.3558	0.5	FIXCROSS	n/a	n/a	n/a	n/a	n/a	n/a	n/a	n/a
113.8558	0.5667	INK	30	Neutral	xxxxx	xxxxx	niebieski	blue	hit	n/a
114.4183	n/a	RESPONSE	n/a	n/a	n/a	n/a	n/a	n/a	n/a	blue
114.4225	1.0	ITI	n/a	n/a	n/a	n/a	n/a	n/a	n/a	n/a
115.4224	0.5	FIXCROSS	n/a	n/a	n/a	n/a	n/a	n/a	n/a	n/a
115.9224	0.8333	INK	31	Incongruent	niebieski	blue	zielony	green	hit	n/a
116.7527	n/a	RESPONSE	n/a	n/a	n/a	n/a	n/a	n/a	n/a	green
116.7557	1.0	ITI	n/a	n/a	n/a	n/a	n/a	n/a	n/a	n/a
117.7557	0.5	FIXCROSS	n/a	n/a	n/a	n/a	n/a	n/a	n/a	n/a
118.2557	0.8333	INK	32	Neutral	xxxxxxxx	xxxxxxxx	zielony	green	hit	n/a
119.0711	n/a	RESPONSE	n/a	n/a	n/a	n/a	n/a	n/a	n/a	green
119.089	1.0	ITI	n/a	n/a	n/a	n/a	n/a	n/a	n/a	n/a
120.089	0.5	FIXCROSS	n/a	n/a	n/a	n/a	n/a	n/a	n/a	n/a
120.589	0.8333	INK	33	Neutral	xxxxxxxx	xxxxxxxx	niebieski	blue	hit	n/a
121.4055	n/a	RESPONSE	n/a	n/a	n/a	n/a	n/a	n/a	n/a	blue
121.4223	1.0	ITI	n/a	n/a	n/a	n/a	n/a	n/a	n/a	n/a
122.4223	0.5	FIXCROSS	n/a	n/a	n/a	n/a	n/a	n/a	n/a	n/a
122.9223	0.65	INK	34	Neutral	xxxxxxxxx	xxxxxxxxx	żółty	yellow	hit	n/a
123.564	n/a	RESPONSE	n/a	n/a	n/a	n/a	n/a	n/a	n/a	yellow
123.5723	1.0	ITI	n/a	n/a	n/a	n/a	n/a	n/a	n/a	n/a
124.5723	0.5	FIXCROSS	n/a	n/a	n/a	n/a	n/a	n/a	n/a	n/a
125.0723	0.7333	INK	35	Incongruent	żółty	yellow	czerwony	red	hit	n/a
125.7866	n/a	RESPONSE	n/a	n/a	n/a	n/a	n/a	n/a	n/a	red
125.8056	1.0	ITI	n/a	n/a	n/a	n/a	n/a	n/a	n/a	n/a
126.8056	0.5	FIXCROSS	n/a	n/a	n/a	n/a	n/a	n/a	n/a	n/a
127.3056	0.6333	INK	36	Incongruent	czerwony	red	żółty	yellow	hit	n/a
127.9291	n/a	RESPONSE	n/a	n/a	n/a	n/a	n/a	n/a	n/a	yellow
127.9389	1.0	ITI	n/a	n/a	n/a	n/a	n/a	n/a	n/a	n/a
128.9389	0.5	FIXCROSS	n/a	n/a	n/a	n/a	n/a	n/a	n/a	n/a
129.4389	0.7166	INK	37	Incongruent	niebieski	blue	czerwony	red	hit	n/a
130.1516	n/a	RESPONSE	n/a	n/a	n/a	n/a	n/a	n/a	n/a	red
130.1555	1.0	ITI	n/a	n/a	n/a	n/a	n/a	n/a	n/a	n/a
131.1555	0.5	FIXCROSS	n/a	n/a	n/a	n/a	n/a	n/a	n/a	n/a
131.6555	0.65	INK	38	Neutral	xxxxxxx	xxxxxxx	żółty	yellow	hit	n/a
132.2941	n/a	RESPONSE	n/a	n/a	n/a	n/a	n/a	n/a	n/a	yellow
132.3055	1.0	ITI	n/a	n/a	n/a	n/a	n/a	n/a	n/a	n/a
133.3055	0.5	FIXCROSS	n/a	n/a	n/a	n/a	n/a	n/a	n/a	n/a
133.8055	0.8	INK	39	Incongruent	czerwony	red	niebieski	blue	hit	n/a
134.5965	n/a	RESPONSE	n/a	n/a	n/a	n/a	n/a	n/a	n/a	blue
134.6054	1.0	ITI	n/a	n/a	n/a	n/a	n/a	n/a	n/a	n/a
135.6054	0.5	FIXCROSS	n/a	n/a	n/a	n/a	n/a	n/a	n/a	n/a
136.1054	0.65	INK	40	Incongruent	zielony	green	żółty	yellow	hit	n/a
136.7391	n/a	RESPONSE	n/a	n/a	n/a	n/a	n/a	n/a	n/a	yellow
136.7554	1.0	ITI	n/a	n/a	n/a	n/a	n/a	n/a	n/a	n/a
137.7554	0.5	FIXCROSS	n/a	n/a	n/a	n/a	n/a	n/a	n/a	n/a
138.2554	0.5333	INK	41	Neutral	xxxxxxxx	xxxxxxxx	żółty	yellow	hit	n/a
138.7857	n/a	RESPONSE	n/a	n/a	n/a	n/a	n/a	n/a	n/a	yellow
138.7887	1.0	ITI	n/a	n/a	n/a	n/a	n/a	n/a	n/a	n/a
139.7887	0.5	FIXCROSS	n/a	n/a	n/a	n/a	n/a	n/a	n/a	n/a
140.2887	0.8	INK	42	Neutral	xxxxx	xxxxx	niebieski	blue	hit	n/a
141.072	n/a	RESPONSE	n/a	n/a	n/a	n/a	n/a	n/a	n/a	blue
141.0887	1.0	ITI	n/a	n/a	n/a	n/a	n/a	n/a	n/a	n/a
142.0886	0.5	FIXCROSS	n/a	n/a	n/a	n/a	n/a	n/a	n/a	n/a
142.5886	0.6333	INK	43	Neutral	xxxxxxxx	xxxxxxxx	żółty	yellow	hit	n/a
143.2147	n/a	RESPONSE	n/a	n/a	n/a	n/a	n/a	n/a	n/a	yellow
143.2219	1.0	ITI	n/a	n/a	n/a	n/a	n/a	n/a	n/a	n/a
144.2219	0.5	FIXCROSS	n/a	n/a	n/a	n/a	n/a	n/a	n/a	n/a
144.7219	0.7	INK	44	Neutral	xxxxxxxx	xxxxxxxx	niebieski	blue	hit	n/a
145.4051	n/a	RESPONSE	n/a	n/a	n/a	n/a	n/a	n/a	n/a	blue
145.4219	1.0	ITI	n/a	n/a	n/a	n/a	n/a	n/a	n/a	n/a
146.4219	0.5	FIXCROSS	n/a	n/a	n/a	n/a	n/a	n/a	n/a	n/a
146.9219	0.5333	INK	45	Neutral	xxxxxxxx	xxxxxxxx	żółty	yellow	hit	n/a
147.4518	n/a	RESPONSE	n/a	n/a	n/a	n/a	n/a	n/a	n/a	yellow
147.4552	1.0	ITI	n/a	n/a	n/a	n/a	n/a	n/a	n/a	n/a
148.4552	0.5	FIXCROSS	n/a	n/a	n/a	n/a	n/a	n/a	n/a	n/a
148.9552	1.3333	INK	46	Incongruent	zielony	green	niebieski	blue	hit	n/a
150.2818	n/a	RESPONSE	n/a	n/a	n/a	n/a	n/a	n/a	n/a	blue
150.2885	1.0	ITI	n/a	n/a	n/a	n/a	n/a	n/a	n/a	n/a
151.2885	0.5	FIXCROSS	n/a	n/a	n/a	n/a	n/a	n/a	n/a	n/a
151.7885	1.0333	INK	47	Neutral	xxxxx	xxxxx	zielony	green	hit	n/a
152.8081	n/a	RESPONSE	n/a	n/a	n/a	n/a	n/a	n/a	n/a	green
152.8218	1.0	ITI	n/a	n/a	n/a	n/a	n/a	n/a	n/a	n/a
153.8218	0.5	FIXCROSS	n/a	n/a	n/a	n/a	n/a	n/a	n/a	n/a
154.3218	1.0	INK	48	Incongruent	żółty	yellow	zielony	green	hit	n/a
155.3184	n/a	RESPONSE	n/a	n/a	n/a	n/a	n/a	n/a	n/a	green
155.3217	1.0	ITI	n/a	n/a	n/a	n/a	n/a	n/a	n/a	n/a
156.3217	0.5	FIXCROSS	n/a	n/a	n/a	n/a	n/a	n/a	n/a	n/a
156.8217	0.7	INK	49	Incongruent	czerwony	red	żółty	yellow	hit	n/a
157.5089	n/a	RESPONSE	n/a	n/a	n/a	n/a	n/a	n/a	n/a	yellow
157.5217	1.0	ITI	n/a	n/a	n/a	n/a	n/a	n/a	n/a	n/a
158.5217	0.5	FIXCROSS	n/a	n/a	n/a	n/a	n/a	n/a	n/a	n/a
159.0217	0.8333	INK	50	Incongruent	zielony	green	niebieski	blue	hit	n/a
159.8434	n/a	RESPONSE	n/a	n/a	n/a	n/a	n/a	n/a	n/a	blue
159.855	1.0	ITI	n/a	n/a	n/a	n/a	n/a	n/a	n/a	n/a
160.855	0.5	FIXCROSS	n/a	n/a	n/a	n/a	n/a	n/a	n/a	n/a
161.355	1.0	INK	51	Incongruent	czerwony	red	zielony	green	hit	n/a
162.3377	n/a	RESPONSE	n/a	n/a	n/a	n/a	n/a	n/a	n/a	green
162.3549	1.0	ITI	n/a	n/a	n/a	n/a	n/a	n/a	n/a	n/a
163.3549	0.5	FIXCROSS	n/a	n/a	n/a	n/a	n/a	n/a	n/a	n/a
163.8549	0.7	INK	52	Incongruent	zielony	green	żółty	yellow	hit	n/a
164.5441	n/a	RESPONSE	n/a	n/a	n/a	n/a	n/a	n/a	n/a	yellow
164.5549	1.0	ITI	n/a	n/a	n/a	n/a	n/a	n/a	n/a	n/a
165.5549	0.5	FIXCROSS	n/a	n/a	n/a	n/a	n/a	n/a	n/a	n/a
166.0549	1.05	INK	53	Incongruent	zielony	green	żółty	yellow	hit	n/a
167.0865	n/a	RESPONSE	n/a	n/a	n/a	n/a	n/a	n/a	n/a	yellow
167.1049	1.0	ITI	n/a	n/a	n/a	n/a	n/a	n/a	n/a	n/a
168.1048	0.5	FIXCROSS	n/a	n/a	n/a	n/a	n/a	n/a	n/a	n/a
168.6048	0.8833	INK	54	Neutral	xxxxxxxxx	xxxxxxxxx	zielony	green	hit	n/a
169.4848	n/a	RESPONSE	n/a	n/a	n/a	n/a	n/a	n/a	n/a	green
169.4881	1.0	ITI	n/a	n/a	n/a	n/a	n/a	n/a	n/a	n/a
170.4881	0.5	FIXCROSS	n/a	n/a	n/a	n/a	n/a	n/a	n/a	n/a
170.9881	0.7167	INK	55	Neutral	xxxxxxxx	xxxxxxxx	zielony	green	hit	n/a
171.6913	n/a	RESPONSE	n/a	n/a	n/a	n/a	n/a	n/a	n/a	green
171.7048	1.0	ITI	n/a	n/a	n/a	n/a	n/a	n/a	n/a	n/a
172.7048	0.5	FIXCROSS	n/a	n/a	n/a	n/a	n/a	n/a	n/a	n/a
173.2048	1.35	INK	56	Incongruent	żółty	yellow	niebieski	blue	hit	n/a
174.5373	n/a	RESPONSE	n/a	n/a	n/a	n/a	n/a	n/a	n/a	blue
174.5547	1.0	ITI	n/a	n/a	n/a	n/a	n/a	n/a	n/a	n/a
175.5547	0.5	FIXCROSS	n/a	n/a	n/a	n/a	n/a	n/a	n/a	n/a
176.0547	0.6333	INK	57	Incongruent	niebieski	blue	żółty	yellow	hit	n/a
176.6799	n/a	RESPONSE	n/a	n/a	n/a	n/a	n/a	n/a	n/a	yellow
176.688	1.0	ITI	n/a	n/a	n/a	n/a	n/a	n/a	n/a	n/a
177.688	0.5	FIXCROSS	n/a	n/a	n/a	n/a	n/a	n/a	n/a	n/a
178.188	0.6667	INK	58	Neutral	xxxxxxxxx	xxxxxxxxx	żółty	yellow	hit	n/a
178.8384	n/a	RESPONSE	n/a	n/a	n/a	n/a	n/a	n/a	n/a	yellow
178.8547	1.0	ITI	n/a	n/a	n/a	n/a	n/a	n/a	n/a	n/a
179.8546	0.5	FIXCROSS	n/a	n/a	n/a	n/a	n/a	n/a	n/a	n/a
180.3546	0.7	INK	59	Incongruent	żółty	yellow	niebieski	blue	hit	n/a
181.0449	n/a	RESPONSE	n/a	n/a	n/a	n/a	n/a	n/a	n/a	blue
181.0546	1.0	ITI	n/a	n/a	n/a	n/a	n/a	n/a	n/a	n/a
182.0546	0.5	FIXCROSS	n/a	n/a	n/a	n/a	n/a	n/a	n/a	n/a
182.5546	0.7	INK	60	Neutral	xxxxxxx	xxxxxxx	czerwony	red	hit	n/a
183.2514	n/a	RESPONSE	n/a	n/a	n/a	n/a	n/a	n/a	n/a	red
183.2546	0.9999	ITI	n/a	n/a	n/a	n/a	n/a	n/a	n/a	n/a
184.2545	0.5001	FIXCROSS	n/a	n/a	n/a	n/a	n/a	n/a	n/a	n/a
184.7545	1.0	INK	61	Incongruent	żółty	yellow	zielony	green	hit	n/a
185.7458	n/a	RESPONSE	n/a	n/a	n/a	n/a	n/a	n/a	n/a	green
185.7545	1.0	ITI	n/a	n/a	n/a	n/a	n/a	n/a	n/a	n/a
186.7545	0.5	FIXCROSS	n/a	n/a	n/a	n/a	n/a	n/a	n/a	n/a
187.2545	0.6833	INK	62	Neutral	xxxxxxx	xxxxxxx	niebieski	blue	hit	n/a
187.9202	n/a	RESPONSE	n/a	n/a	n/a	n/a	n/a	n/a	n/a	blue
187.9378	1.0	ITI	n/a	n/a	n/a	n/a	n/a	n/a	n/a	n/a
188.9378	0.5	FIXCROSS	n/a	n/a	n/a	n/a	n/a	n/a	n/a	n/a
189.4378	0.55	INK	63	Incongruent	czerwony	red	niebieski	blue	hit	n/a
189.9829	n/a	RESPONSE	n/a	n/a	n/a	n/a	n/a	n/a	n/a	blue
189.9878	1.0	ITI	n/a	n/a	n/a	n/a	n/a	n/a	n/a	n/a
190.9878	0.5	FIXCROSS	n/a	n/a	n/a	n/a	n/a	n/a	n/a	n/a
191.4878	0.5833	INK	64	Incongruent	niebieski	blue	żółty	yellow	hit	n/a
192.0615	n/a	RESPONSE	n/a	n/a	n/a	n/a	n/a	n/a	n/a	yellow
192.0711	1.0	ITI	n/a	n/a	n/a	n/a	n/a	n/a	n/a	n/a
193.0711	0.5	FIXCROSS	n/a	n/a	n/a	n/a	n/a	n/a	n/a	n/a
193.5711	0.7833	INK	65	Neutral	xxxxx	xxxxx	czerwony	red	hit	n/a
194.3479	n/a	RESPONSE	n/a	n/a	n/a	n/a	n/a	n/a	n/a	red
194.3544	1.0	ITI	n/a	n/a	n/a	n/a	n/a	n/a	n/a	n/a
195.3543	0.5	FIXCROSS	n/a	n/a	n/a	n/a	n/a	n/a	n/a	n/a
195.8544	1.3166	INK	66	Neutral	xxxxxxx	xxxxxxx	niebieski	blue	hit	n/a
197.1619	n/a	RESPONSE	n/a	n/a	n/a	n/a	n/a	n/a	n/a	blue
197.171	1.0	ITI	n/a	n/a	n/a	n/a	n/a	n/a	n/a	n/a
198.171	0.5	FIXCROSS	n/a	n/a	n/a	n/a	n/a	n/a	n/a	n/a
198.671	0.9333	INK	67	Incongruent	niebieski	blue	czerwony	red	hit	n/a
199.5923	n/a	RESPONSE	n/a	n/a	n/a	n/a	n/a	n/a	n/a	red
199.6043	1.0	ITI	n/a	n/a	n/a	n/a	n/a	n/a	n/a	n/a
200.6043	0.5	FIXCROSS	n/a	n/a	n/a	n/a	n/a	n/a	n/a	n/a
201.1042	0.6	INK	68	Neutral	xxxxxxxxx	xxxxxxxxx	zielony	green	incorrect	n/a
201.6869	n/a	RESPONSE	n/a	n/a	n/a	n/a	n/a	n/a	n/a	yellow
201.7042	1.0	ITI	n/a	n/a	n/a	n/a	n/a	n/a	n/a	n/a
202.7042	0.5	FIXCROSS	n/a	n/a	n/a	n/a	n/a	n/a	n/a	n/a
203.2042	1.0	INK	69	Incongruent	niebieski	blue	zielony	green	hit	n/a
204.1971	n/a	RESPONSE	n/a	n/a	n/a	n/a	n/a	n/a	n/a	green
204.2042	1.0	ITI	n/a	n/a	n/a	n/a	n/a	n/a	n/a	n/a
205.2042	0.5	FIXCROSS	n/a	n/a	n/a	n/a	n/a	n/a	n/a	n/a
205.7042	0.6333	INK	70	Neutral	xxxxx	xxxxx	zielony	green	hit	n/a
206.3238	n/a	RESPONSE	n/a	n/a	n/a	n/a	n/a	n/a	n/a	green
206.3375	1.0	ITI	n/a	n/a	n/a	n/a	n/a	n/a	n/a	n/a
207.3375	0.5	FIXCROSS	n/a	n/a	n/a	n/a	n/a	n/a	n/a	n/a
207.8375	0.65	INK	71	Neutral	xxxxxxxxx	xxxxxxxxx	żółty	yellow	hit	n/a
208.4662	n/a	RESPONSE	n/a	n/a	n/a	n/a	n/a	n/a	n/a	yellow
208.4875	1.0	ITI	n/a	n/a	n/a	n/a	n/a	n/a	n/a	n/a
209.4874	0.5	FIXCROSS	n/a	n/a	n/a	n/a	n/a	n/a	n/a	n/a
209.9874	0.7667	INK	72	Neutral	xxxxxxx	xxxxxxx	czerwony	red	hit	n/a
210.7367	n/a	RESPONSE	n/a	n/a	n/a	n/a	n/a	n/a	n/a	red
210.7541	1.0333	ITI	n/a	n/a	n/a	n/a	n/a	n/a	n/a	n/a
224.871	n/a	RESPONSE	n/a	n/a	n/a	n/a	n/a	n/a	n/a	n/a
224.9038	1.0	ITI	n/a	n/a	n/a	n/a	n/a	n/a	n/a	n/a
225.9038	0.5	FIXCROSS	n/a	n/a	n/a	n/a	n/a	n/a	n/a	n/a
226.4038	1.3666	T_COLOR_NAME	1	Neutral	czerwony	red	Neutral	Neutral	hit	n/a
227.765	n/a	RESPONSE	n/a	n/a	n/a	n/a	n/a	n/a	n/a	red
227.7704	0.5	FEEDBACK	n/a	n/a	n/a	n/a	n/a	n/a	n/a	n/a
228.2704	1.0	ITI	n/a	n/a	n/a	n/a	n/a	n/a	n/a	n/a
229.2704	0.5	FIXCROSS	n/a	n/a	n/a	n/a	n/a	n/a	n/a	n/a
229.7704	1.4167	T_COLOR_NAME	2	Incongruent	zielony	green	czerwony	red	hit	n/a
231.1706	n/a	RESPONSE	n/a	n/a	n/a	n/a	n/a	n/a	n/a	green
231.1871	0.5	FEEDBACK	n/a	n/a	n/a	n/a	n/a	n/a	n/a	n/a
231.687	1.0	ITI	n/a	n/a	n/a	n/a	n/a	n/a	n/a	n/a
232.687	0.5	FIXCROSS	n/a	n/a	n/a	n/a	n/a	n/a	n/a	n/a
233.187	0.8	T_COLOR_NAME	3	Incongruent	żółty	yellow	niebieski	blue	hit	n/a
233.9687	n/a	RESPONSE	n/a	n/a	n/a	n/a	n/a	n/a	n/a	yellow
233.987	0.5	FEEDBACK	n/a	n/a	n/a	n/a	n/a	n/a	n/a	n/a
234.487	1.0	ITI	n/a	n/a	n/a	n/a	n/a	n/a	n/a	n/a
235.487	0.5	FIXCROSS	n/a	n/a	n/a	n/a	n/a	n/a	n/a	n/a
235.987	0.9833	T_COLOR_NAME	4	Neutral	zielony	green	Neutral	Neutral	hit	n/a
236.9587	n/a	RESPONSE	n/a	n/a	n/a	n/a	n/a	n/a	n/a	green
236.9703	0.5	FEEDBACK	n/a	n/a	n/a	n/a	n/a	n/a	n/a	n/a
237.4703	1.0	ITI	n/a	n/a	n/a	n/a	n/a	n/a	n/a	n/a
238.4702	0.5	FIXCROSS	n/a	n/a	n/a	n/a	n/a	n/a	n/a	n/a
238.9702	0.85	T_COLOR_NAME	5	Neutral	zielony	green	Neutral	Neutral	hit	n/a
239.8048	n/a	RESPONSE	n/a	n/a	n/a	n/a	n/a	n/a	n/a	green
239.8202	0.5	FEEDBACK	n/a	n/a	n/a	n/a	n/a	n/a	n/a	n/a
240.3202	1.0	ITI	n/a	n/a	n/a	n/a	n/a	n/a	n/a	n/a
241.3202	0.5	FIXCROSS	n/a	n/a	n/a	n/a	n/a	n/a	n/a	n/a
241.8202	0.85	T_COLOR_NAME	6	Neutral	czerwony	red	Neutral	Neutral	hit	n/a
242.6509	n/a	RESPONSE	n/a	n/a	n/a	n/a	n/a	n/a	n/a	red
242.6702	0.5	FEEDBACK	n/a	n/a	n/a	n/a	n/a	n/a	n/a	n/a
243.1701	1.0	ITI	n/a	n/a	n/a	n/a	n/a	n/a	n/a	n/a
244.1701	0.5	FIXCROSS	n/a	n/a	n/a	n/a	n/a	n/a	n/a	n/a
244.6701	0.9666	T_COLOR_NAME	7	Incongruent	zielony	green	żółty	yellow	hit	n/a
245.6249	n/a	RESPONSE	n/a	n/a	n/a	n/a	n/a	n/a	n/a	green
245.6368	0.5	FEEDBACK	n/a	n/a	n/a	n/a	n/a	n/a	n/a	n/a
246.1368	1.0	ITI	n/a	n/a	n/a	n/a	n/a	n/a	n/a	n/a
247.1368	0.5	FIXCROSS	n/a	n/a	n/a	n/a	n/a	n/a	n/a	n/a
247.6368	1.0	T_COLOR_NAME	8	Incongruent	niebieski	blue	zielony	green	hit	n/a
248.6309	n/a	RESPONSE	n/a	n/a	n/a	n/a	n/a	n/a	n/a	blue
248.6367	0.5	FEEDBACK	n/a	n/a	n/a	n/a	n/a	n/a	n/a	n/a
249.1367	1.0	ITI	n/a	n/a	n/a	n/a	n/a	n/a	n/a	n/a
250.1367	0.5	FIXCROSS	n/a	n/a	n/a	n/a	n/a	n/a	n/a	n/a
250.6367	0.8149	T_COLOR_NAME	9	Incongruent	czerwony	red	żółty	yellow	hit	n/a
251.4449	n/a	RESPONSE	n/a	n/a	n/a	n/a	n/a	n/a	n/a	red
251.4516	0.5018	FEEDBACK	n/a	n/a	n/a	n/a	n/a	n/a	n/a	n/a
251.9533	1.0	ITI	n/a	n/a	n/a	n/a	n/a	n/a	n/a	n/a
252.9533	0.5	FIXCROSS	n/a	n/a	n/a	n/a	n/a	n/a	n/a	n/a
253.4533	1.05	T_COLOR_NAME	10	Neutral	niebieski	blue	Neutral	Neutral	hit	n/a
254.4989	n/a	RESPONSE	n/a	n/a	n/a	n/a	n/a	n/a	n/a	blue
254.5033	0.5	FEEDBACK	n/a	n/a	n/a	n/a	n/a	n/a	n/a	n/a
255.0033	1.0	ITI	n/a	n/a	n/a	n/a	n/a	n/a	n/a	n/a
256.0033	0.5	FIXCROSS	n/a	n/a	n/a	n/a	n/a	n/a	n/a	n/a
256.5033	1.0833	T_COLOR_NAME	11	Neutral	żółty	yellow	Neutral	Neutral	hit	n/a
257.5687	n/a	RESPONSE	n/a	n/a	n/a	n/a	n/a	n/a	n/a	yellow
257.5866	0.5	FEEDBACK	n/a	n/a	n/a	n/a	n/a	n/a	n/a	n/a
258.0866	1.0	ITI	n/a	n/a	n/a	n/a	n/a	n/a	n/a	n/a
259.0865	0.5	FIXCROSS	n/a	n/a	n/a	n/a	n/a	n/a	n/a	n/a
259.5865	2.1833	T_COLOR_NAME	12	Incongruent	zielony	green	niebieski	blue	hit	n/a
261.7579	n/a	RESPONSE	n/a	n/a	n/a	n/a	n/a	n/a	n/a	green
261.7698	0.5	FEEDBACK	n/a	n/a	n/a	n/a	n/a	n/a	n/a	n/a
262.2698	1.0	ITI	n/a	n/a	n/a	n/a	n/a	n/a	n/a	n/a
264.3161	n/a	RESPONSE	n/a	n/a	n/a	n/a	n/a	n/a	n/a	n/a
264.3365	1.0	ITI	n/a	n/a	n/a	n/a	n/a	n/a	n/a	n/a
265.3364	0.5	FIXCROSS	n/a	n/a	n/a	n/a	n/a	n/a	n/a	n/a
265.8364	1.1333	COLOR_NAME	1	Incongruent	zielony	green	żółty	yellow	hit	n/a
266.9544	n/a	RESPONSE	n/a	n/a	n/a	n/a	n/a	n/a	n/a	green
266.9697	1.0	ITI	n/a	n/a	n/a	n/a	n/a	n/a	n/a	n/a
267.9697	0.5	FIXCROSS	n/a	n/a	n/a	n/a	n/a	n/a	n/a	n/a
268.4697	1.1	COLOR_NAME	2	Neutral	żółty	yellow	Neutral	Neutral	hit	n/a
269.5606	n/a	RESPONSE	n/a	n/a	n/a	n/a	n/a	n/a	n/a	yellow
269.5697	1.0	ITI	n/a	n/a	n/a	n/a	n/a	n/a	n/a	n/a
270.5697	0.5	FIXCROSS	n/a	n/a	n/a	n/a	n/a	n/a	n/a	n/a
271.0697	0.7667	COLOR_NAME	3	Incongruent	żółty	yellow	niebieski	blue	hit	n/a
271.8307	n/a	RESPONSE	n/a	n/a	n/a	n/a	n/a	n/a	n/a	yellow
271.8363	1.0	ITI	n/a	n/a	n/a	n/a	n/a	n/a	n/a	n/a
272.8363	0.5	FIXCROSS	n/a	n/a	n/a	n/a	n/a	n/a	n/a	n/a
273.3363	0.7833	COLOR_NAME	4	Incongruent	czerwony	red	żółty	yellow	hit	n/a
274.1012	n/a	RESPONSE	n/a	n/a	n/a	n/a	n/a	n/a	n/a	red
274.1196	1.0	ITI	n/a	n/a	n/a	n/a	n/a	n/a	n/a	n/a
275.1196	0.5	FIXCROSS	n/a	n/a	n/a	n/a	n/a	n/a	n/a	n/a
275.6196	0.9333	COLOR_NAME	5	Neutral	niebieski	blue	Neutral	Neutral	hit	n/a
276.5476	n/a	RESPONSE	n/a	n/a	n/a	n/a	n/a	n/a	n/a	blue
276.5529	1.0	ITI	n/a	n/a	n/a	n/a	n/a	n/a	n/a	n/a
277.5529	0.5	FIXCROSS	n/a	n/a	n/a	n/a	n/a	n/a	n/a	n/a
278.0529	1.05	COLOR_NAME	6	Neutral	zielony	green	Neutral	Neutral	hit	n/a
279.0898	n/a	RESPONSE	n/a	n/a	n/a	n/a	n/a	n/a	n/a	green
279.1028	1.0	ITI	n/a	n/a	n/a	n/a	n/a	n/a	n/a	n/a
280.1028	0.5	FIXCROSS	n/a	n/a	n/a	n/a	n/a	n/a	n/a	n/a
280.6028	0.9333	COLOR_NAME	7	Incongruent	żółty	yellow	czerwony	red	hit	n/a
281.5202	n/a	RESPONSE	n/a	n/a	n/a	n/a	n/a	n/a	n/a	yellow
281.5361	1.0	ITI	n/a	n/a	n/a	n/a	n/a	n/a	n/a	n/a
282.5361	0.5	FIXCROSS	n/a	n/a	n/a	n/a	n/a	n/a	n/a	n/a
283.0361	1.0333	COLOR_NAME	8	Neutral	niebieski	blue	Neutral	Neutral	hit	n/a
284.0625	n/a	RESPONSE	n/a	n/a	n/a	n/a	n/a	n/a	n/a	blue
284.0694	1.0	ITI	n/a	n/a	n/a	n/a	n/a	n/a	n/a	n/a
285.0694	0.5	FIXCROSS	n/a	n/a	n/a	n/a	n/a	n/a	n/a	n/a
285.5694	0.9833	COLOR_NAME	9	Incongruent	czerwony	red	żółty	yellow	hit	n/a
286.5408	n/a	RESPONSE	n/a	n/a	n/a	n/a	n/a	n/a	n/a	red
286.5527	1.0	ITI	n/a	n/a	n/a	n/a	n/a	n/a	n/a	n/a
287.5527	0.5	FIXCROSS	n/a	n/a	n/a	n/a	n/a	n/a	n/a	n/a
288.0527	0.8333	COLOR_NAME	10	Neutral	czerwony	red	Neutral	Neutral	hit	n/a
288.8753	n/a	RESPONSE	n/a	n/a	n/a	n/a	n/a	n/a	n/a	red
288.886	1.0	ITI	n/a	n/a	n/a	n/a	n/a	n/a	n/a	n/a
289.886	0.5	FIXCROSS	n/a	n/a	n/a	n/a	n/a	n/a	n/a	n/a
290.386	0.8	COLOR_NAME	11	Incongruent	czerwony	red	niebieski	blue	hit	n/a
291.1777	n/a	RESPONSE	n/a	n/a	n/a	n/a	n/a	n/a	n/a	red
291.186	1.0	ITI	n/a	n/a	n/a	n/a	n/a	n/a	n/a	n/a
292.186	0.5	FIXCROSS	n/a	n/a	n/a	n/a	n/a	n/a	n/a	n/a
292.6859	1.1167	COLOR_NAME	12	Neutral	zielony	green	Neutral	Neutral	hit	n/a
293.784	n/a	RESPONSE	n/a	n/a	n/a	n/a	n/a	n/a	n/a	green
293.8026	1.0	ITI	n/a	n/a	n/a	n/a	n/a	n/a	n/a	n/a
294.8026	0.5	FIXCROSS	n/a	n/a	n/a	n/a	n/a	n/a	n/a	n/a
295.3026	1.0666	COLOR_NAME	13	Neutral	niebieski	blue	Neutral	Neutral	hit	n/a
296.3582	n/a	RESPONSE	n/a	n/a	n/a	n/a	n/a	n/a	n/a	blue
296.3692	1.0	ITI	n/a	n/a	n/a	n/a	n/a	n/a	n/a	n/a
297.3692	0.5	FIXCROSS	n/a	n/a	n/a	n/a	n/a	n/a	n/a	n/a
297.8692	1.9333	COLOR_NAME	14	Incongruent	zielony	green	niebieski	blue	hit	n/a
299.7958	n/a	RESPONSE	n/a	n/a	n/a	n/a	n/a	n/a	n/a	green
299.8025	1.0	ITI	n/a	n/a	n/a	n/a	n/a	n/a	n/a	n/a
300.8025	0.5	FIXCROSS	n/a	n/a	n/a	n/a	n/a	n/a	n/a	n/a
301.3024	0.9667	COLOR_NAME	15	Incongruent	niebieski	blue	zielony	green	hit	n/a
302.2582	n/a	RESPONSE	n/a	n/a	n/a	n/a	n/a	n/a	n/a	blue
302.2691	1.0	ITI	n/a	n/a	n/a	n/a	n/a	n/a	n/a	n/a
303.2691	0.5	FIXCROSS	n/a	n/a	n/a	n/a	n/a	n/a	n/a	n/a
303.7691	0.7666	COLOR_NAME	16	Neutral	czerwony	red	Neutral	Neutral	hit	n/a
304.5287	n/a	RESPONSE	n/a	n/a	n/a	n/a	n/a	n/a	n/a	red
304.5357	1.0	ITI	n/a	n/a	n/a	n/a	n/a	n/a	n/a	n/a
305.5357	0.5	FIXCROSS	n/a	n/a	n/a	n/a	n/a	n/a	n/a	n/a
306.0357	0.8	COLOR_NAME	17	Incongruent	żółty	yellow	zielony	green	hit	n/a
306.8312	n/a	RESPONSE	n/a	n/a	n/a	n/a	n/a	n/a	n/a	yellow
306.8357	1.0	ITI	n/a	n/a	n/a	n/a	n/a	n/a	n/a	n/a
307.8357	0.5	FIXCROSS	n/a	n/a	n/a	n/a	n/a	n/a	n/a	n/a
308.3357	0.8166	COLOR_NAME	18	Incongruent	żółty	yellow	czerwony	red	hit	n/a
309.1495	n/a	RESPONSE	n/a	n/a	n/a	n/a	n/a	n/a	n/a	yellow
309.1523	1.0	ITI	n/a	n/a	n/a	n/a	n/a	n/a	n/a	n/a
310.1523	0.5	FIXCROSS	n/a	n/a	n/a	n/a	n/a	n/a	n/a	n/a
310.6523	0.5167	COLOR_NAME	19	Incongruent	żółty	yellow	niebieski	blue	hit	n/a
311.1641	n/a	RESPONSE	n/a	n/a	n/a	n/a	n/a	n/a	n/a	yellow
311.1689	1.0	ITI	n/a	n/a	n/a	n/a	n/a	n/a	n/a	n/a
312.1689	0.5	FIXCROSS	n/a	n/a	n/a	n/a	n/a	n/a	n/a	n/a
312.6689	1.0	COLOR_NAME	20	Incongruent	niebieski	blue	czerwony	red	hit	n/a
313.6585	n/a	RESPONSE	n/a	n/a	n/a	n/a	n/a	n/a	n/a	blue
313.6689	1.0	ITI	n/a	n/a	n/a	n/a	n/a	n/a	n/a	n/a
314.6689	0.5	FIXCROSS	n/a	n/a	n/a	n/a	n/a	n/a	n/a	n/a
315.1689	0.7833	COLOR_NAME	21	Neutral	żółty	yellow	Neutral	Neutral	hit	n/a
315.9449	n/a	RESPONSE	n/a	n/a	n/a	n/a	n/a	n/a	n/a	yellow
315.9522	1.0	ITI	n/a	n/a	n/a	n/a	n/a	n/a	n/a	n/a
316.9522	0.5	FIXCROSS	n/a	n/a	n/a	n/a	n/a	n/a	n/a	n/a
317.4522	1.1333	COLOR_NAME	22	Incongruent	czerwony	red	zielony	green	incorrect	n/a
318.5671	n/a	RESPONSE	n/a	n/a	n/a	n/a	n/a	n/a	n/a	green
318.5855	1.0	ITI	n/a	n/a	n/a	n/a	n/a	n/a	n/a	n/a
319.5855	0.5	FIXCROSS	n/a	n/a	n/a	n/a	n/a	n/a	n/a	n/a
320.0855	0.8167	COLOR_NAME	23	Neutral	żółty	yellow	Neutral	Neutral	hit	n/a
320.8856	n/a	RESPONSE	n/a	n/a	n/a	n/a	n/a	n/a	n/a	yellow
320.9021	1.0	ITI	n/a	n/a	n/a	n/a	n/a	n/a	n/a	n/a
321.9021	0.5	FIXCROSS	n/a	n/a	n/a	n/a	n/a	n/a	n/a	n/a
322.4021	0.85	COLOR_NAME	24	Neutral	czerwony	red	Neutral	Neutral	hit	n/a
323.2361	n/a	RESPONSE	n/a	n/a	n/a	n/a	n/a	n/a	n/a	red
323.2521	1.0	ITI	n/a	n/a	n/a	n/a	n/a	n/a	n/a	n/a
324.252	0.5	FIXCROSS	n/a	n/a	n/a	n/a	n/a	n/a	n/a	n/a
324.752	0.7333	COLOR_NAME	25	Incongruent	czerwony	red	zielony	green	hit	n/a
325.4744	n/a	RESPONSE	n/a	n/a	n/a	n/a	n/a	n/a	n/a	red
325.4854	1.0	ITI	n/a	n/a	n/a	n/a	n/a	n/a	n/a	n/a
326.4853	0.5	FIXCROSS	n/a	n/a	n/a	n/a	n/a	n/a	n/a	n/a
326.9853	1.55	COLOR_NAME	26	Neutral	niebieski	blue	Neutral	Neutral	hit	n/a
328.5284	n/a	RESPONSE	n/a	n/a	n/a	n/a	n/a	n/a	n/a	blue
328.5353	1.0	ITI	n/a	n/a	n/a	n/a	n/a	n/a	n/a	n/a
329.5353	0.5	FIXCROSS	n/a	n/a	n/a	n/a	n/a	n/a	n/a	n/a
330.0353	1.55	COLOR_NAME	27	Incongruent	niebieski	blue	czerwony	red	hit	n/a
331.5823	n/a	RESPONSE	n/a	n/a	n/a	n/a	n/a	n/a	n/a	blue
331.5852	1.0	ITI	n/a	n/a	n/a	n/a	n/a	n/a	n/a	n/a
332.5852	0.5	FIXCROSS	n/a	n/a	n/a	n/a	n/a	n/a	n/a	n/a
333.0852	0.8	COLOR_NAME	28	Neutral	żółty	yellow	Neutral	Neutral	hit	n/a
333.8688	n/a	RESPONSE	n/a	n/a	n/a	n/a	n/a	n/a	n/a	yellow
333.8852	1.0	ITI	n/a	n/a	n/a	n/a	n/a	n/a	n/a	n/a
334.8852	0.5	FIXCROSS	n/a	n/a	n/a	n/a	n/a	n/a	n/a	n/a
335.3852	0.8333	COLOR_NAME	29	Incongruent	niebieski	blue	żółty	yellow	hit	n/a
336.2032	n/a	RESPONSE	n/a	n/a	n/a	n/a	n/a	n/a	n/a	blue
336.2185	1.0	ITI	n/a	n/a	n/a	n/a	n/a	n/a	n/a	n/a
337.2185	0.5	FIXCROSS	n/a	n/a	n/a	n/a	n/a	n/a	n/a	n/a
337.7185	0.7333	COLOR_NAME	30	Neutral	czerwony	red	Neutral	Neutral	hit	n/a
338.4417	n/a	RESPONSE	n/a	n/a	n/a	n/a	n/a	n/a	n/a	red
338.4518	1.0	ITI	n/a	n/a	n/a	n/a	n/a	n/a	n/a	n/a
339.4518	0.5	FIXCROSS	n/a	n/a	n/a	n/a	n/a	n/a	n/a	n/a
339.9518	0.8333	COLOR_NAME	31	Incongruent	żółty	yellow	niebieski	blue	hit	n/a
340.7761	n/a	RESPONSE	n/a	n/a	n/a	n/a	n/a	n/a	n/a	yellow
340.7851	1.0	ITI	n/a	n/a	n/a	n/a	n/a	n/a	n/a	n/a
341.7851	0.5	FIXCROSS	n/a	n/a	n/a	n/a	n/a	n/a	n/a	n/a
342.2851	1.2	COLOR_NAME	32	Neutral	zielony	green	Neutral	Neutral	hit	n/a
343.4783	n/a	RESPONSE	n/a	n/a	n/a	n/a	n/a	n/a	n/a	green
343.485	1.0	ITI	n/a	n/a	n/a	n/a	n/a	n/a	n/a	n/a
344.485	0.5	FIXCROSS	n/a	n/a	n/a	n/a	n/a	n/a	n/a	n/a
344.985	0.85	COLOR_NAME	33	Neutral	niebieski	blue	Neutral	Neutral	hit	n/a
345.8285	n/a	RESPONSE	n/a	n/a	n/a	n/a	n/a	n/a	n/a	blue
345.835	1.0	ITI	n/a	n/a	n/a	n/a	n/a	n/a	n/a	n/a
346.835	0.5	FIXCROSS	n/a	n/a	n/a	n/a	n/a	n/a	n/a	n/a
347.335	1.0167	COLOR_NAME	34	Neutral	zielony	green	Neutral	Neutral	hit	n/a
348.3389	n/a	RESPONSE	n/a	n/a	n/a	n/a	n/a	n/a	n/a	green
348.3516	1.0	ITI	n/a	n/a	n/a	n/a	n/a	n/a	n/a	n/a
349.3516	0.5	FIXCROSS	n/a	n/a	n/a	n/a	n/a	n/a	n/a	n/a
349.8516	0.8166	COLOR_NAME	35	Neutral	żółty	yellow	Neutral	Neutral	hit	n/a
350.6573	n/a	RESPONSE	n/a	n/a	n/a	n/a	n/a	n/a	n/a	yellow
350.6682	1.0	ITI	n/a	n/a	n/a	n/a	n/a	n/a	n/a	n/a
351.6682	0.5	FIXCROSS	n/a	n/a	n/a	n/a	n/a	n/a	n/a	n/a
352.1682	0.7	COLOR_NAME	36	Incongruent	żółty	yellow	czerwony	red	hit	n/a
352.8638	n/a	RESPONSE	n/a	n/a	n/a	n/a	n/a	n/a	n/a	yellow
352.8682	1.0	ITI	n/a	n/a	n/a	n/a	n/a	n/a	n/a	n/a
353.8682	0.5	FIXCROSS	n/a	n/a	n/a	n/a	n/a	n/a	n/a	n/a
354.3682	0.5333	COLOR_NAME	37	Incongruent	żółty	yellow	zielony	green	hit	n/a
354.8944	n/a	RESPONSE	n/a	n/a	n/a	n/a	n/a	n/a	n/a	yellow
354.9015	1.0	ITI	n/a	n/a	n/a	n/a	n/a	n/a	n/a	n/a
355.9015	0.5	FIXCROSS	n/a	n/a	n/a	n/a	n/a	n/a	n/a	n/a
356.4015	0.55	COLOR_NAME	38	Neutral	żółty	yellow	Neutral	Neutral	hit	n/a
356.941	n/a	RESPONSE	n/a	n/a	n/a	n/a	n/a	n/a	n/a	yellow
356.9515	1.0	ITI	n/a	n/a	n/a	n/a	n/a	n/a	n/a	n/a
357.9514	0.5	FIXCROSS	n/a	n/a	n/a	n/a	n/a	n/a	n/a	n/a
358.4514	0.85	COLOR_NAME	39	Neutral	czerwony	red	Neutral	Neutral	hit	n/a
359.2915	n/a	RESPONSE	n/a	n/a	n/a	n/a	n/a	n/a	n/a	red
359.3014	1.0	ITI	n/a	n/a	n/a	n/a	n/a	n/a	n/a	n/a
360.3014	0.5	FIXCROSS	n/a	n/a	n/a	n/a	n/a	n/a	n/a	n/a
360.8014	0.8	COLOR_NAME	40	Incongruent	niebieski	blue	żółty	yellow	hit	n/a
361.5938	n/a	RESPONSE	n/a	n/a	n/a	n/a	n/a	n/a	n/a	blue
361.6014	1.0	ITI	n/a	n/a	n/a	n/a	n/a	n/a	n/a	n/a
362.6014	0.5	FIXCROSS	n/a	n/a	n/a	n/a	n/a	n/a	n/a	n/a
363.1014	0.75	COLOR_NAME	41	Incongruent	czerwony	red	zielony	green	hit	n/a
363.8483	n/a	RESPONSE	n/a	n/a	n/a	n/a	n/a	n/a	n/a	red
363.8513	1.0	ITI	n/a	n/a	n/a	n/a	n/a	n/a	n/a	n/a
364.8513	0.5	FIXCROSS	n/a	n/a	n/a	n/a	n/a	n/a	n/a	n/a
365.3513	0.8167	COLOR_NAME	42	Neutral	niebieski	blue	Neutral	Neutral	hit	n/a
366.1508	n/a	RESPONSE	n/a	n/a	n/a	n/a	n/a	n/a	n/a	blue
366.168	1.0	ITI	n/a	n/a	n/a	n/a	n/a	n/a	n/a	n/a
367.1679	0.5	FIXCROSS	n/a	n/a	n/a	n/a	n/a	n/a	n/a	n/a
367.6679	0.6833	COLOR_NAME	43	Incongruent	niebieski	blue	żółty	yellow	hit	n/a
368.3412	n/a	RESPONSE	n/a	n/a	n/a	n/a	n/a	n/a	n/a	blue
368.3512	1.0	ITI	n/a	n/a	n/a	n/a	n/a	n/a	n/a	n/a
369.3512	0.5	FIXCROSS	n/a	n/a	n/a	n/a	n/a	n/a	n/a	n/a
369.8512	0.65	COLOR_NAME	44	Incongruent	czerwony	red	żółty	yellow	hit	n/a
370.4838	n/a	RESPONSE	n/a	n/a	n/a	n/a	n/a	n/a	n/a	red
370.5012	1.0	ITI	n/a	n/a	n/a	n/a	n/a	n/a	n/a	n/a
371.5012	0.5	FIXCROSS	n/a	n/a	n/a	n/a	n/a	n/a	n/a	n/a
372.0012	0.9333	COLOR_NAME	45	Incongruent	zielony	green	czerwony	red	hit	n/a
372.9301	n/a	RESPONSE	n/a	n/a	n/a	n/a	n/a	n/a	n/a	green
372.9345	1.0	ITI	n/a	n/a	n/a	n/a	n/a	n/a	n/a	n/a
373.9345	0.5	FIXCROSS	n/a	n/a	n/a	n/a	n/a	n/a	n/a	n/a
374.4345	0.8	COLOR_NAME	46	Neutral	zielony	green	Neutral	Neutral	hit	n/a
375.2166	n/a	RESPONSE	n/a	n/a	n/a	n/a	n/a	n/a	n/a	green
375.2345	1.0	ITI	n/a	n/a	n/a	n/a	n/a	n/a	n/a	n/a
376.2344	0.5	FIXCROSS	n/a	n/a	n/a	n/a	n/a	n/a	n/a	n/a
376.7344	0.5833	COLOR_NAME	47	Neutral	czerwony	red	Neutral	Neutral	hit	n/a
377.3111	n/a	RESPONSE	n/a	n/a	n/a	n/a	n/a	n/a	n/a	red
377.3178	1.0	ITI	n/a	n/a	n/a	n/a	n/a	n/a	n/a	n/a
378.3177	0.5	FIXCROSS	n/a	n/a	n/a	n/a	n/a	n/a	n/a	n/a
378.8177	1.1666	COLOR_NAME	48	Neutral	zielony	green	Neutral	Neutral	hit	n/a
379.9653	n/a	RESPONSE	n/a	n/a	n/a	n/a	n/a	n/a	n/a	green
379.9844	1.0	ITI	n/a	n/a	n/a	n/a	n/a	n/a	n/a	n/a
380.9844	0.5	FIXCROSS	n/a	n/a	n/a	n/a	n/a	n/a	n/a	n/a
381.4843	0.9167	COLOR_NAME	49	Neutral	zielony	green	Neutral	Neutral	hit	n/a
382.3957	n/a	RESPONSE	n/a	n/a	n/a	n/a	n/a	n/a	n/a	green
382.401	1.0	ITI	n/a	n/a	n/a	n/a	n/a	n/a	n/a	n/a
383.401	0.5	FIXCROSS	n/a	n/a	n/a	n/a	n/a	n/a	n/a	n/a
383.901	0.8833	COLOR_NAME	50	Incongruent	niebieski	blue	zielony	green	hit	n/a
384.7781	n/a	RESPONSE	n/a	n/a	n/a	n/a	n/a	n/a	n/a	blue
384.7843	1.0	ITI	n/a	n/a	n/a	n/a	n/a	n/a	n/a	n/a
385.7843	0.5	FIXCROSS	n/a	n/a	n/a	n/a	n/a	n/a	n/a	n/a
386.2843	1.0833	COLOR_NAME	51	Neutral	czerwony	red	Neutral	Neutral	hit	n/a
387.3523	n/a	RESPONSE	n/a	n/a	n/a	n/a	n/a	n/a	n/a	red
387.3676	1.0	ITI	n/a	n/a	n/a	n/a	n/a	n/a	n/a	n/a
388.3676	0.5	FIXCROSS	n/a	n/a	n/a	n/a	n/a	n/a	n/a	n/a
388.8676	1.0666	COLOR_NAME	52	Neutral	zielony	green	Neutral	Neutral	hit	n/a
389.9266	n/a	RESPONSE	n/a	n/a	n/a	n/a	n/a	n/a	n/a	green
389.9342	1.0	ITI	n/a	n/a	n/a	n/a	n/a	n/a	n/a	n/a
390.9342	0.5	FIXCROSS	n/a	n/a	n/a	n/a	n/a	n/a	n/a	n/a
391.4342	0.8167	COLOR_NAME	53	Neutral	niebieski	blue	Neutral	Neutral	hit	n/a
392.245	n/a	RESPONSE	n/a	n/a	n/a	n/a	n/a	n/a	n/a	blue
392.2508	1.0	ITI	n/a	n/a	n/a	n/a	n/a	n/a	n/a	n/a
393.2508	0.5	FIXCROSS	n/a	n/a	n/a	n/a	n/a	n/a	n/a	n/a
393.7508	0.7167	COLOR_NAME	54	Neutral	niebieski	blue	Neutral	Neutral	hit	n/a
394.4515	n/a	RESPONSE	n/a	n/a	n/a	n/a	n/a	n/a	n/a	blue
394.4675	1.0	ITI	n/a	n/a	n/a	n/a	n/a	n/a	n/a	n/a
395.4674	0.5	FIXCROSS	n/a	n/a	n/a	n/a	n/a	n/a	n/a	n/a
395.9674	0.5833	COLOR_NAME	55	Neutral	niebieski	blue	Neutral	Neutral	hit	n/a
396.5461	n/a	RESPONSE	n/a	n/a	n/a	n/a	n/a	n/a	n/a	blue
396.5507	1.0	ITI	n/a	n/a	n/a	n/a	n/a	n/a	n/a	n/a
397.5507	0.5	FIXCROSS	n/a	n/a	n/a	n/a	n/a	n/a	n/a	n/a
398.0507	0.6666	COLOR_NAME	56	Incongruent	niebieski	blue	zielony	green	hit	n/a
398.7046	n/a	RESPONSE	n/a	n/a	n/a	n/a	n/a	n/a	n/a	blue
398.7174	1.0	ITI	n/a	n/a	n/a	n/a	n/a	n/a	n/a	n/a
399.7174	0.5	FIXCROSS	n/a	n/a	n/a	n/a	n/a	n/a	n/a	n/a
400.2173	0.7667	COLOR_NAME	57	Incongruent	czerwony	red	niebieski	blue	hit	n/a
400.9751	n/a	RESPONSE	n/a	n/a	n/a	n/a	n/a	n/a	n/a	red
400.984	1.0	ITI	n/a	n/a	n/a	n/a	n/a	n/a	n/a	n/a
401.984	0.5	FIXCROSS	n/a	n/a	n/a	n/a	n/a	n/a	n/a	n/a
402.484	1.1666	COLOR_NAME	58	Incongruent	zielony	green	czerwony	red	hit	n/a
403.6453	n/a	RESPONSE	n/a	n/a	n/a	n/a	n/a	n/a	n/a	green
403.6506	1.0	ITI	n/a	n/a	n/a	n/a	n/a	n/a	n/a	n/a
404.6506	0.5	FIXCROSS	n/a	n/a	n/a	n/a	n/a	n/a	n/a	n/a
405.1506	0.9	COLOR_NAME	59	Incongruent	żółty	yellow	zielony	green	hit	n/a
406.0436	n/a	RESPONSE	n/a	n/a	n/a	n/a	n/a	n/a	n/a	yellow
406.0506	1.0	ITI	n/a	n/a	n/a	n/a	n/a	n/a	n/a	n/a
407.0506	0.5	FIXCROSS	n/a	n/a	n/a	n/a	n/a	n/a	n/a	n/a
407.5506	0.9	COLOR_NAME	60	Incongruent	zielony	green	czerwony	red	hit	n/a
408.442	n/a	RESPONSE	n/a	n/a	n/a	n/a	n/a	n/a	n/a	green
408.4505	1.0	ITI	n/a	n/a	n/a	n/a	n/a	n/a	n/a	n/a
409.4505	0.5	FIXCROSS	n/a	n/a	n/a	n/a	n/a	n/a	n/a	n/a
409.9505	0.7667	COLOR_NAME	61	Neutral	czerwony	red	Neutral	Neutral	hit	n/a
410.7124	n/a	RESPONSE	n/a	n/a	n/a	n/a	n/a	n/a	n/a	red
410.7172	1.0	ITI	n/a	n/a	n/a	n/a	n/a	n/a	n/a	n/a
411.7171	0.5	FIXCROSS	n/a	n/a	n/a	n/a	n/a	n/a	n/a	n/a
412.2171	0.9	COLOR_NAME	62	Incongruent	zielony	green	niebieski	blue	hit	n/a
413.1109	n/a	RESPONSE	n/a	n/a	n/a	n/a	n/a	n/a	n/a	green
413.1171	1.0	ITI	n/a	n/a	n/a	n/a	n/a	n/a	n/a	n/a
414.1171	0.5	FIXCROSS	n/a	n/a	n/a	n/a	n/a	n/a	n/a	n/a
414.6171	0.8	COLOR_NAME	63	Neutral	żółty	yellow	Neutral	Neutral	hit	n/a
415.4132	n/a	RESPONSE	n/a	n/a	n/a	n/a	n/a	n/a	n/a	yellow
415.4171	1.0	ITI	n/a	n/a	n/a	n/a	n/a	n/a	n/a	n/a
416.4171	0.5	FIXCROSS	n/a	n/a	n/a	n/a	n/a	n/a	n/a	n/a
416.9171	0.7166	COLOR_NAME	64	Neutral	żółty	yellow	Neutral	Neutral	hit	n/a
417.6198	n/a	RESPONSE	n/a	n/a	n/a	n/a	n/a	n/a	n/a	yellow
417.6337	1.0	ITI	n/a	n/a	n/a	n/a	n/a	n/a	n/a	n/a
418.6337	0.5	FIXCROSS	n/a	n/a	n/a	n/a	n/a	n/a	n/a	n/a
419.1337	0.9333	COLOR_NAME	65	Neutral	zielony	green	Neutral	Neutral	hit	n/a
420.0501	n/a	RESPONSE	n/a	n/a	n/a	n/a	n/a	n/a	n/a	green
420.067	1.0	ITI	n/a	n/a	n/a	n/a	n/a	n/a	n/a	n/a
421.067	0.5	FIXCROSS	n/a	n/a	n/a	n/a	n/a	n/a	n/a	n/a
421.567	0.7333	COLOR_NAME	66	Incongruent	czerwony	red	niebieski	blue	hit	n/a
422.2886	n/a	RESPONSE	n/a	n/a	n/a	n/a	n/a	n/a	n/a	red
422.3003	1.0	ITI	n/a	n/a	n/a	n/a	n/a	n/a	n/a	n/a
423.3003	0.5	FIXCROSS	n/a	n/a	n/a	n/a	n/a	n/a	n/a	n/a
423.8003	0.75	COLOR_NAME	67	Neutral	żółty	yellow	Neutral	Neutral	hit	n/a
424.5431	n/a	RESPONSE	n/a	n/a	n/a	n/a	n/a	n/a	n/a	yellow
424.5502	1.0	ITI	n/a	n/a	n/a	n/a	n/a	n/a	n/a	n/a
425.5502	0.5	FIXCROSS	n/a	n/a	n/a	n/a	n/a	n/a	n/a	n/a
426.0502	0.9666	COLOR_NAME	68	Incongruent	zielony	green	niebieski	blue	hit	n/a
427.0054	n/a	RESPONSE	n/a	n/a	n/a	n/a	n/a	n/a	n/a	green
427.0169	1.0	ITI	n/a	n/a	n/a	n/a	n/a	n/a	n/a	n/a
428.0169	0.5	FIXCROSS	n/a	n/a	n/a	n/a	n/a	n/a	n/a	n/a
428.5168	0.8833	COLOR_NAME	69	Incongruent	zielony	green	żółty	yellow	hit	n/a
429.3878	n/a	RESPONSE	n/a	n/a	n/a	n/a	n/a	n/a	n/a	green
429.4002	1.0	ITI	n/a	n/a	n/a	n/a	n/a	n/a	n/a	n/a
430.4001	0.5	FIXCROSS	n/a	n/a	n/a	n/a	n/a	n/a	n/a	n/a
430.9001	0.8667	COLOR_NAME	70	Incongruent	niebieski	blue	czerwony	red	hit	n/a
431.7541	n/a	RESPONSE	n/a	n/a	n/a	n/a	n/a	n/a	n/a	blue
431.7668	1.0	ITI	n/a	n/a	n/a	n/a	n/a	n/a	n/a	n/a
432.7668	0.5	FIXCROSS	n/a	n/a	n/a	n/a	n/a	n/a	n/a	n/a
433.2668	0.9	COLOR_NAME	71	Incongruent	zielony	green	żółty	yellow	hit	n/a
434.1525	n/a	RESPONSE	n/a	n/a	n/a	n/a	n/a	n/a	n/a	green
434.1667	1.0	ITI	n/a	n/a	n/a	n/a	n/a	n/a	n/a	n/a
435.1667	0.5	FIXCROSS	n/a	n/a	n/a	n/a	n/a	n/a	n/a	n/a
435.6667	0.8167	COLOR_NAME	72	Neutral	czerwony	red	Neutral	Neutral	hit	n/a
436.471	n/a	RESPONSE	n/a	n/a	n/a	n/a	n/a	n/a	n/a	red
436.4834	1.0166	ITI	n/a	n/a	n/a	n/a	n/a	n/a	n/a	n/a
439.6527	n/a	RESPONSE	n/a	n/a	n/a	n/a	n/a	n/a	n/a	n/a
