onset	duration	trial_type	melody_number	melody_part	key	sound	action
0.0	14.085	CUE_START	n/a	n/a	n/a	n/a	n/a
14.086	7.759	FIXCROSS	n/a	n/a	n/a	n/a	n/a
21.845	6.316	CUE_LISTEN	M3	1	n/a	n/a	n/a
28.161	7.758	FIXCROSS	n/a	n/a	n/a	n/a	n/a
35.919	6.325	CUE_PLAYBACK_BOTH_HANDS	M3	1	n/a	n/a	n/a
37.004	n/a	RESPONSE	M3	1	00	C3	press
37.025	n/a	RESPONSE	M3	1	12	C4	press
37.538	n/a	RESPONSE	M3	1	07	G3	press
37.578	n/a	RESPONSE	M3	1	14	D4	press
37.609	n/a	RESPONSE	M3	1	12	C4	release
37.711	n/a	RESPONSE	M3	1	00	C3	release
38.091	n/a	RESPONSE	M3	1	16	E4	press
38.103	n/a	RESPONSE	M3	1	04	E3	press
38.124	n/a	RESPONSE	M3	1	14	D4	release
38.185	n/a	RESPONSE	M3	1	07	G3	release
38.639	n/a	RESPONSE	M3	1	07	G3	press
38.68	n/a	RESPONSE	M3	1	12	C4	press
38.749	n/a	RESPONSE	M3	1	16	E4	release
38.77	n/a	RESPONSE	M3	1	04	E3	release
39.001	n/a	RESPONSE	M3	1	12	C4	release
39.124	n/a	RESPONSE	M3	1	07	G3	release
39.174	n/a	RESPONSE	M3	1	00	C3	press
39.176	n/a	RESPONSE	M3	1	12	C4	press
39.686	n/a	RESPONSE	M3	1	07	G3	press
39.729	n/a	RESPONSE	M3	1	14	D4	press
39.779	n/a	RESPONSE	M3	1	12	C4	release
39.79	n/a	RESPONSE	M3	1	00	C3	release
40.221	n/a	RESPONSE	M3	1	04	E3	press
40.224	n/a	RESPONSE	M3	1	16	E4	press
40.264	n/a	RESPONSE	M3	1	14	D4	release
40.266	n/a	RESPONSE	M3	1	07	G3	release
40.748	n/a	RESPONSE	M3	1	07	G3	press
40.778	n/a	RESPONSE	M3	1	12	C4	press
40.819	n/a	RESPONSE	M3	1	16	E4	release
40.86	n/a	RESPONSE	M3	1	04	E3	release
41.743	n/a	RESPONSE	M3	1	12	C4	release
41.851	n/a	RESPONSE	M3	1	07	G3	release
42.244	7.758	FIXCROSS	n/a	n/a	n/a	n/a	n/a
50.002	6.317	CUE_LISTEN	M3	2	n/a	n/a	n/a
56.319	7.758	FIXCROSS	n/a	n/a	n/a	n/a	n/a
64.078	6.317	CUE_PLAYBACK_BOTH_HANDS	M3	2	n/a	n/a	n/a
65.4	n/a	RESPONSE	M3	2	17	F4	press
65.429	n/a	RESPONSE	M3	2	00	C3	press
65.74	n/a	RESPONSE	M3	2	17	F4	release
65.941	n/a	RESPONSE	M3	2	00	C3	release
66.123	n/a	RESPONSE	M3	2	00	C3	press
66.134	n/a	RESPONSE	M3	2	16	E4	press
66.645	n/a	RESPONSE	M3	2	07	G3	press
66.656	n/a	RESPONSE	M3	2	17	F4	press
66.688	n/a	RESPONSE	M3	2	16	E4	release
66.809	n/a	RESPONSE	M3	2	00	C3	release
67.13	n/a	RESPONSE	M3	2	04	E3	press
67.181	n/a	RESPONSE	M3	2	19	G4	press
67.202	n/a	RESPONSE	M3	2	17	F4	release
67.205	n/a	RESPONSE	M3	2	07	G3	release
67.665	n/a	RESPONSE	M3	2	07	G3	press
67.759	n/a	RESPONSE	M3	2	04	E3	release
68.148	n/a	RESPONSE	M3	2	19	G4	release
68.169	n/a	RESPONSE	M3	2	00	C3	press
68.18	n/a	RESPONSE	M3	2	16	E4	press
68.221	n/a	RESPONSE	M3	2	07	G3	release
68.672	n/a	RESPONSE	M3	2	07	G3	press
68.675	n/a	RESPONSE	M3	2	17	F4	press
68.705	n/a	RESPONSE	M3	2	16	E4	release
68.776	n/a	RESPONSE	M3	2	00	C3	release
69.188	n/a	RESPONSE	M3	2	04	E3	press
69.22	n/a	RESPONSE	M3	2	19	G4	press
69.262	n/a	RESPONSE	M3	2	07	G3	release
69.271	n/a	RESPONSE	M3	2	17	F4	release
69.732	n/a	RESPONSE	M3	2	07	G3	press
69.816	n/a	RESPONSE	M3	2	04	E3	release
70.235	n/a	RESPONSE	M3	2	19	G4	release
70.394	7.758	FIXCROSS	n/a	n/a	n/a	n/a	n/a
70.476	n/a	RESPONSE	M3	2	07	G3	release
78.153	6.325	CUE_LISTEN	M3	1	n/a	n/a	n/a
84.478	7.758	FIXCROSS	n/a	n/a	n/a	n/a	n/a
92.236	6.325	CUE_PLAYBACK_BOTH_HANDS	M3	1	n/a	n/a	n/a
93.076	n/a	RESPONSE	M3	1	19	G4	press
93.119	n/a	RESPONSE	M3	1	00	C3	press
93.471	n/a	RESPONSE	M3	1	19	G4	release
93.82	n/a	RESPONSE	M3	1	00	C3	release
94.078	n/a	RESPONSE	M3	1	19	G4	press
94.083	n/a	RESPONSE	M3	1	00	C3	press
94.431	n/a	RESPONSE	M3	1	21	A4	press
94.464	n/a	RESPONSE	M3	1	07	G3	press
94.515	n/a	RESPONSE	M3	1	19	G4	release
94.641	n/a	RESPONSE	M3	1	00	C3	release
94.652	n/a	RESPONSE	M3	1	21	A4	release
94.714	n/a	RESPONSE	M3	1	19	G4	press
95.041	n/a	RESPONSE	M3	1	17	F4	press
95.07	n/a	RESPONSE	M3	1	04	E3	press
95.15	n/a	RESPONSE	M3	1	19	G4	release
95.251	n/a	RESPONSE	M3	1	07	G3	release
95.554	n/a	RESPONSE	M3	1	14	D4	press
95.648	n/a	RESPONSE	M3	1	17	F4	release
95.866	n/a	RESPONSE	M3	1	14	D4	release
96.008	n/a	RESPONSE	M3	1	04	E3	release
96.849	n/a	RESPONSE	M3	1	19	G4	press
96.881	n/a	RESPONSE	M3	1	00	C3	press
97.081	n/a	RESPONSE	M3	1	21	A4	press
97.133	n/a	RESPONSE	M3	1	19	G4	release
97.324	n/a	RESPONSE	M3	1	21	A4	release
97.345	n/a	RESPONSE	M3	1	19	G4	press
97.348	n/a	RESPONSE	M3	1	07	G3	press
97.489	n/a	RESPONSE	M3	1	00	C3	release
97.499	n/a	RESPONSE	M3	1	17	F4	press
97.573	n/a	RESPONSE	M3	1	19	G4	release
97.811	n/a	RESPONSE	M3	1	04	E3	press
97.832	n/a	RESPONSE	M3	1	16	E4	press
97.874	n/a	RESPONSE	M3	1	07	G3	release
97.905	n/a	RESPONSE	M3	1	17	F4	release
98.316	n/a	RESPONSE	M3	1	16	E4	release
98.358	n/a	RESPONSE	M3	1	07	G3	press
98.369	n/a	RESPONSE	M3	1	12	C4	press
98.44	n/a	RESPONSE	M3	1	04	E3	release
98.561	7.758	FIXCROSS	n/a	n/a	n/a	n/a	n/a
98.841	n/a	RESPONSE	M3	1	12	C4	release
98.892	n/a	RESPONSE	M3	1	00	C3	press
98.914	n/a	RESPONSE	M3	1	07	G3	release
99.545	n/a	RESPONSE	M3	1	00	C3	release
106.319	6.308	CUE_LISTEN	M3	2	n/a	n/a	n/a
112.628	7.758	FIXCROSS	n/a	n/a	n/a	n/a	n/a
120.386	6.325	CUE_PLAYBACK_BOTH_HANDS	M3	2	n/a	n/a	n/a
121.673	n/a	RESPONSE	M3	2	12	C4	press
121.683	n/a	RESPONSE	M3	2	00	C3	press
122.032	n/a	RESPONSE	M3	2	12	C4	release
122.324	n/a	RESPONSE	M3	2	09	A3	press
122.686	n/a	RESPONSE	M3	2	09	A3	release
122.856	n/a	RESPONSE	M3	2	00	C3	release
123.078	n/a	RESPONSE	M3	2	00	C3	press
123.08	n/a	RESPONSE	M3	2	12	C4	press
123.919	n/a	RESPONSE	M3	2	00	C3	release
123.932	n/a	RESPONSE	M3	2	12	C4	release
124.305	n/a	RESPONSE	M3	2	00	C3	press
124.312	n/a	RESPONSE	M3	2	12	C4	press
124.798	n/a	RESPONSE	M3	2	12	C4	release
125.166	n/a	RESPONSE	M3	2	05	F3	press
125.649	n/a	RESPONSE	M3	2	05	F3	release
125.7	n/a	RESPONSE	M3	2	00	C3	release
126.011	n/a	RESPONSE	M3	2	00	C3	press
126.035	n/a	RESPONSE	M3	2	12	C4	press
126.711	7.758	FIXCROSS	n/a	n/a	n/a	n/a	n/a
127.024	n/a	RESPONSE	M3	2	12	C4	release
127.565	n/a	RESPONSE	M3	2	00	C3	release
134.469	6.317	CUE_LISTEN	M1	1	n/a	n/a	n/a
140.786	7.758	FIXCROSS	n/a	n/a	n/a	n/a	n/a
148.544	6.317	CUE_PLAYBACK_BOTH_HANDS	M1	1	n/a	n/a	n/a
150.08	n/a	RESPONSE	M1	1	19	G4	press
150.091	n/a	RESPONSE	M1	1	04	E3	press
150.102	n/a	RESPONSE	M1	1	07	G3	press
150.134	n/a	RESPONSE	M1	1	00	C3	press
150.568	n/a	RESPONSE	M1	1	16	E4	press
150.826	n/a	RESPONSE	M1	1	16	E4	release
151.109	n/a	RESPONSE	M1	1	19	G4	release
151.111	n/a	RESPONSE	M1	1	16	E4	press
151.34	n/a	RESPONSE	M1	1	16	E4	release
151.391	n/a	RESPONSE	M1	1	04	E3	release
151.462	n/a	RESPONSE	M1	1	00	C3	release
151.491	n/a	RESPONSE	M1	1	07	G3	release
151.588	n/a	RESPONSE	M1	1	17	F4	press
151.635	n/a	RESPONSE	M1	1	05	F3	press
151.639	n/a	RESPONSE	M1	1	02	D3	press
152.142	n/a	RESPONSE	M1	1	14	D4	press
152.369	n/a	RESPONSE	M1	1	14	D4	release
152.746	n/a	RESPONSE	M1	1	14	D4	press
152.92	n/a	RESPONSE	M1	1	17	F4	release
153.109	n/a	RESPONSE	M1	1	14	D4	release
153.14	n/a	RESPONSE	M1	1	05	F3	release
153.258	n/a	RESPONSE	M1	1	02	D3	release
153.489	n/a	RESPONSE	M1	1	12	C4	press
153.496	n/a	RESPONSE	M1	1	07	G3	press
153.501	n/a	RESPONSE	M1	1	04	E3	press
153.519	n/a	RESPONSE	M1	1	00	C3	press
153.801	n/a	RESPONSE	M1	1	16	E4	press
153.938	n/a	RESPONSE	M1	1	12	C4	release
154.14	n/a	RESPONSE	M1	1	19	G4	press
154.469	n/a	RESPONSE	M1	1	16	E4	release
154.861	7.758	FIXCROSS	n/a	n/a	n/a	n/a	n/a
155.18	n/a	RESPONSE	M1	1	19	G4	release
155.211	n/a	RESPONSE	M1	1	00	C3	release
155.304	n/a	RESPONSE	M1	1	04	E3	release
155.615	n/a	RESPONSE	M1	1	07	G3	release
162.62	6.325	CUE_LISTEN	M1	2	n/a	n/a	n/a
168.944	7.758	FIXCROSS	n/a	n/a	n/a	n/a	n/a
176.703	6.317	CUE_PLAYBACK_BOTH_HANDS	M1	2	n/a	n/a	n/a
177.644	n/a	RESPONSE	M1	2	19	G4	press
177.655	n/a	RESPONSE	M1	2	04	E3	press
177.666	n/a	RESPONSE	M1	2	07	G3	press
177.678	n/a	RESPONSE	M1	2	00	C3	press
178.179	n/a	RESPONSE	M1	2	16	E4	press
178.43	n/a	RESPONSE	M1	2	16	E4	release
178.711	n/a	RESPONSE	M1	2	16	E4	press
178.735	n/a	RESPONSE	M1	2	19	G4	release
178.914	n/a	RESPONSE	M1	2	00	C3	release
178.975	n/a	RESPONSE	M1	2	16	E4	release
178.996	n/a	RESPONSE	M1	2	04	E3	release
179.049	n/a	RESPONSE	M1	2	07	G3	release
179.219	n/a	RESPONSE	M1	2	17	F4	press
179.251	n/a	RESPONSE	M1	2	02	D3	press
179.261	n/a	RESPONSE	M1	2	05	F3	press
179.782	n/a	RESPONSE	M1	2	14	D4	press
179.964	n/a	RESPONSE	M1	2	14	D4	release
180.305	n/a	RESPONSE	M1	2	14	D4	press
180.416	n/a	RESPONSE	M1	2	17	F4	release
180.558	n/a	RESPONSE	M1	2	14	D4	release
180.609	n/a	RESPONSE	M1	2	02	D3	release
180.66	n/a	RESPONSE	M1	2	05	F3	release
180.851	n/a	RESPONSE	M1	2	07	G3	press
180.855	n/a	RESPONSE	M1	2	12	C4	press
180.934	n/a	RESPONSE	M1	2	00	C3	press
180.936	n/a	RESPONSE	M1	2	04	E3	press
181.116	n/a	RESPONSE	M1	2	16	E4	press
181.198	n/a	RESPONSE	M1	2	12	C4	release
181.409	n/a	RESPONSE	M1	2	12	C4	press
181.47	n/a	RESPONSE	M1	2	16	E4	release
182.428	n/a	RESPONSE	M1	2	12	C4	release
182.604	n/a	RESPONSE	M1	2	07	G3	release
182.871	n/a	RESPONSE	M1	2	00	C3	release
183.02	7.758	FIXCROSS	n/a	n/a	n/a	n/a	n/a
183.046	n/a	RESPONSE	M1	2	04	E3	release
190.778	6.317	CUE_LISTEN	M2	1	n/a	n/a	n/a
197.094	7.758	FIXCROSS	n/a	n/a	n/a	n/a	n/a
204.853	6.325	CUE_PLAYBACK_BOTH_HANDS	M2	1	n/a	n/a	n/a
205.686	n/a	RESPONSE	M2	1	24	C5	press
205.708	n/a	RESPONSE	M2	1	00	C3	press
205.71	n/a	RESPONSE	M2	1	07	G3	press
206.212	n/a	RESPONSE	M2	1	19	G4	press
206.422	n/a	RESPONSE	M2	1	19	G4	release
206.512	n/a	RESPONSE	M2	1	24	C5	release
206.724	n/a	RESPONSE	M2	1	19	G4	press
207.198	n/a	RESPONSE	M2	1	17	F4	press
207.306	n/a	RESPONSE	M2	1	19	G4	release
207.44	n/a	RESPONSE	M2	1	17	F4	release
207.611	n/a	RESPONSE	M2	1	00	C3	release
207.64	n/a	RESPONSE	M2	1	07	G3	release
207.701	n/a	RESPONSE	M2	1	07	G3	press
207.712	n/a	RESPONSE	M2	1	00	C3	press
207.716	n/a	RESPONSE	M2	1	16	E4	press
207.765	n/a	RESPONSE	M2	1	17	F4	press
208.096	n/a	RESPONSE	M2	1	17	F4	release
208.229	n/a	RESPONSE	M2	1	17	F4	press
208.359	n/a	RESPONSE	M2	1	16	E4	release
208.57	n/a	RESPONSE	M2	1	00	C3	release
208.661	n/a	RESPONSE	M2	1	07	G3	release
208.732	n/a	RESPONSE	M2	1	19	G4	press
208.745	n/a	RESPONSE	M2	1	07	G3	press
208.748	n/a	RESPONSE	M2	1	00	C3	press
208.796	n/a	RESPONSE	M2	1	17	F4	release
210.348	n/a	RESPONSE	M2	1	19	G4	release
211.178	7.758	FIXCROSS	n/a	n/a	n/a	n/a	n/a
212.508	n/a	RESPONSE	M2	1	00	C3	release
212.962	n/a	RESPONSE	M2	1	07	G3	release
218.936	6.317	CUE_LISTEN	M2	2	n/a	n/a	n/a
225.253	7.758	FIXCROSS	n/a	n/a	n/a	n/a	n/a
233.011	6.317	CUE_PLAYBACK_BOTH_HANDS	M2	2	n/a	n/a	n/a
234.04	n/a	RESPONSE	M2	2	24	C5	press
234.058	n/a	RESPONSE	M2	2	07	G3	press
234.062	n/a	RESPONSE	M2	2	04	E3	press
234.065	n/a	RESPONSE	M2	2	00	C3	press
234.572	n/a	RESPONSE	M2	2	19	G4	press
234.778	n/a	RESPONSE	M2	2	19	G4	release
234.78	n/a	RESPONSE	M2	2	24	C5	release
235.121	n/a	RESPONSE	M2	2	19	G4	press
235.623	n/a	RESPONSE	M2	2	17	F4	press
235.706	n/a	RESPONSE	M2	2	19	G4	release
235.785	n/a	RESPONSE	M2	2	00	C3	release
235.85	n/a	RESPONSE	M2	2	07	G3	release
235.929	n/a	RESPONSE	M2	2	04	E3	release
236.1	n/a	RESPONSE	M2	2	07	G3	press
236.111	n/a	RESPONSE	M2	2	00	C3	press
236.114	n/a	RESPONSE	M2	2	17	F4	release
236.116	n/a	RESPONSE	M2	2	16	E4	press
236.125	n/a	RESPONSE	M2	2	04	E3	press
236.618	n/a	RESPONSE	M2	2	17	F4	press
236.738	n/a	RESPONSE	M2	2	16	E4	release
236.759	n/a	RESPONSE	M2	2	00	C3	release
236.8	n/a	RESPONSE	M2	2	04	E3	release
236.802	n/a	RESPONSE	M2	2	07	G3	release
237.173	n/a	RESPONSE	M2	2	17	F4	release
238.194	n/a	RESPONSE	M2	2	19	G4	press
238.196	n/a	RESPONSE	M2	2	00	C3	press
238.226	n/a	RESPONSE	M2	2	04	E3	press
238.258	n/a	RESPONSE	M2	2	07	G3	press
239.009	n/a	RESPONSE	M2	2	19	G4	release
239.328	7.758	FIXCROSS	n/a	n/a	n/a	n/a	n/a
243.082	n/a	RESPONSE	M2	2	04	E3	release
243.192	n/a	RESPONSE	M2	2	00	C3	release
244.689	n/a	RESPONSE	M2	2	07	G3	release
247.086	6.325	CUE_LISTEN	M2	1	n/a	n/a	n/a
253.411	7.758	FIXCROSS	n/a	n/a	n/a	n/a	n/a
261.17	6.317	CUE_PLAYBACK_BOTH_HANDS	M2	1	n/a	n/a	n/a
262.017	n/a	RESPONSE	M2	1	07	G3	press
262.021	n/a	RESPONSE	M2	1	00	C3	press
262.03	n/a	RESPONSE	M2	1	12	C4	press
262.539	n/a	RESPONSE	M2	1	14	D4	press
262.608	n/a	RESPONSE	M2	1	12	C4	release
262.74	n/a	RESPONSE	M2	1	00	C3	release
262.768	n/a	RESPONSE	M2	1	07	G3	release
262.77	n/a	RESPONSE	M2	1	14	D4	release
262.992	n/a	RESPONSE	M2	1	07	G3	press
262.996	n/a	RESPONSE	M2	1	00	C3	press
263.009	n/a	RESPONSE	M2	1	16	E4	press
263.48	n/a	RESPONSE	M2	1	14	D4	press
263.559	n/a	RESPONSE	M2	1	16	E4	release
263.702	n/a	RESPONSE	M2	1	00	C3	release
263.712	n/a	RESPONSE	M2	1	07	G3	release
263.926	n/a	RESPONSE	M2	1	16	E4	press
263.929	n/a	RESPONSE	M2	1	07	G3	press
263.936	n/a	RESPONSE	M2	1	00	C3	press
263.978	n/a	RESPONSE	M2	1	14	D4	release
264.414	n/a	RESPONSE	M2	1	17	F4	press
264.465	n/a	RESPONSE	M2	1	16	E4	release
264.578	n/a	RESPONSE	M2	1	00	C3	release
264.59	n/a	RESPONSE	M2	1	07	G3	release
264.901	n/a	RESPONSE	M2	1	07	G3	press
264.904	n/a	RESPONSE	M2	1	00	C3	press
264.91	n/a	RESPONSE	M2	1	19	G4	press
264.972	n/a	RESPONSE	M2	1	17	F4	release
266.636	n/a	RESPONSE	M2	1	19	G4	release
267.378	n/a	RESPONSE	M2	1	07	G3	release
267.486	7.758	FIXCROSS	n/a	n/a	n/a	n/a	n/a
268.229	n/a	RESPONSE	M2	1	00	C3	release
275.245	6.325	CUE_LISTEN	M2	2	n/a	n/a	n/a
281.57	7.758	FIXCROSS	n/a	n/a	n/a	n/a	n/a
289.328	6.317	CUE_PLAYBACK_BOTH_HANDS	M2	2	n/a	n/a	n/a
290.131	n/a	RESPONSE	M2	2	07	G3	press
290.14	n/a	RESPONSE	M2	2	00	C3	press
290.142	n/a	RESPONSE	M2	2	16	E4	press
290.812	n/a	RESPONSE	M2	2	00	C3	release
290.815	n/a	RESPONSE	M2	2	16	E4	release
290.848	n/a	RESPONSE	M2	2	07	G3	release
291.508	n/a	RESPONSE	M2	2	07	G3	press
291.51	n/a	RESPONSE	M2	2	00	C3	press
291.512	n/a	RESPONSE	M2	2	16	E4	press
292.034	n/a	RESPONSE	M2	2	19	G4	press
292.155	n/a	RESPONSE	M2	2	16	E4	release
292.232	n/a	RESPONSE	M2	2	19	G4	release
292.24	n/a	RESPONSE	M2	2	00	C3	release
292.245	n/a	RESPONSE	M2	2	07	G3	release
292.498	n/a	RESPONSE	M2	2	19	G4	press
292.5	n/a	RESPONSE	M2	2	07	G3	press
292.505	n/a	RESPONSE	M2	2	00	C3	press
293.005	n/a	RESPONSE	M2	2	17	F4	press
293.042	n/a	RESPONSE	M2	2	19	G4	release
293.14	n/a	RESPONSE	M2	2	00	C3	release
293.146	n/a	RESPONSE	M2	2	07	G3	release
293.471	n/a	RESPONSE	M2	2	07	G3	press
293.474	n/a	RESPONSE	M2	2	16	E4	press
293.476	n/a	RESPONSE	M2	2	00	C3	press
293.61	n/a	RESPONSE	M2	2	17	F4	release
293.991	n/a	RESPONSE	M2	2	14	D4	press
294.056	n/a	RESPONSE	M2	2	00	C3	release
294.061	n/a	RESPONSE	M2	2	07	G3	release
294.112	n/a	RESPONSE	M2	2	16	E4	release
294.444	n/a	RESPONSE	M2	2	07	G3	press
294.455	n/a	RESPONSE	M2	2	00	C3	press
294.491	n/a	RESPONSE	M2	2	12	C4	press
294.646	n/a	RESPONSE	M2	2	14	D4	release
295.645	7.758	FIXCROSS	n/a	n/a	n/a	n/a	n/a
296.32	n/a	RESPONSE	M2	2	12	C4	release
296.521	n/a	RESPONSE	M2	2	00	C3	release
300.454	n/a	RESPONSE	M2	2	07	G3	release
303.403	6.317	CUE_LISTEN	M3	1	n/a	n/a	n/a
309.72	7.758	FIXCROSS	n/a	n/a	n/a	n/a	n/a
317.478	6.325	CUE_PLAYBACK_RIGHT_HAND	M3	1	n/a	n/a	n/a
318.228	n/a	RESPONSE	M3	1	12	C4	press
318.728	n/a	RESPONSE	M3	1	14	D4	press
318.81	n/a	RESPONSE	M3	1	12	C4	release
319.21	n/a	RESPONSE	M3	1	16	E4	press
319.271	n/a	RESPONSE	M3	1	14	D4	release
319.752	n/a	RESPONSE	M3	1	12	C4	press
319.865	n/a	RESPONSE	M3	1	16	E4	release
320.125	n/a	RESPONSE	M3	1	12	C4	release
320.286	n/a	RESPONSE	M3	1	12	C4	press
320.808	n/a	RESPONSE	M3	1	14	D4	press
320.869	n/a	RESPONSE	M3	1	12	C4	release
321.29	n/a	RESPONSE	M3	1	16	E4	press
321.422	n/a	RESPONSE	M3	1	14	D4	release
321.804	n/a	RESPONSE	M3	1	12	C4	press
321.958	n/a	RESPONSE	M3	1	16	E4	release
323.803	7.758	FIXCROSS	n/a	n/a	n/a	n/a	n/a
324.034	n/a	RESPONSE	M3	1	12	C4	release
331.562	6.317	CUE_LISTEN	M3	2	n/a	n/a	n/a
337.878	7.758	FIXCROSS	n/a	n/a	n/a	n/a	n/a
345.637	6.317	CUE_PLAYBACK_RIGHT_HAND	M3	2	n/a	n/a	n/a
346.108	n/a	RESPONSE	M3	2	16	E4	press
346.606	n/a	RESPONSE	M3	2	17	F4	press
346.66	n/a	RESPONSE	M3	2	16	E4	release
347.099	n/a	RESPONSE	M3	2	19	G4	press
347.162	n/a	RESPONSE	M3	2	17	F4	release
347.921	n/a	RESPONSE	M3	2	19	G4	release
348.212	n/a	RESPONSE	M3	2	16	E4	press
348.764	n/a	RESPONSE	M3	2	17	F4	press
348.788	n/a	RESPONSE	M3	2	16	E4	release
349.336	n/a	RESPONSE	M3	2	19	G4	press
349.408	n/a	RESPONSE	M3	2	17	F4	release
350.719	n/a	RESPONSE	M3	2	19	G4	release
351.953	7.759	FIXCROSS	n/a	n/a	n/a	n/a	n/a
359.712	6.325	CUE_LISTEN	M3	1	n/a	n/a	n/a
366.037	7.758	FIXCROSS	n/a	n/a	n/a	n/a	n/a
373.795	6.317	CUE_PLAYBACK_RIGHT_HAND	M3	1	n/a	n/a	n/a
374.389	n/a	RESPONSE	M3	1	19	G4	press
374.806	n/a	RESPONSE	M3	1	21	A4	press
374.834	n/a	RESPONSE	M3	1	19	G4	release
375.001	n/a	RESPONSE	M3	1	21	A4	release
375.132	n/a	RESPONSE	M3	1	19	G4	press
375.422	n/a	RESPONSE	M3	1	17	F4	press
375.474	n/a	RESPONSE	M3	1	19	G4	release
375.735	n/a	RESPONSE	M3	1	16	E4	press
375.846	n/a	RESPONSE	M3	1	17	F4	release
376.408	n/a	RESPONSE	M3	1	12	C4	press
376.489	n/a	RESPONSE	M3	1	16	E4	release
377.081	n/a	RESPONSE	M3	1	19	G4	press
377.101	n/a	RESPONSE	M3	1	12	C4	release
377.385	n/a	RESPONSE	M3	1	21	A4	press
377.424	n/a	RESPONSE	M3	1	19	G4	release
377.635	n/a	RESPONSE	M3	1	19	G4	press
377.646	n/a	RESPONSE	M3	1	21	A4	release
377.898	n/a	RESPONSE	M3	1	17	F4	press
377.949	n/a	RESPONSE	M3	1	19	G4	release
378.222	n/a	RESPONSE	M3	1	16	E4	press
378.362	n/a	RESPONSE	M3	1	17	F4	release
378.762	n/a	RESPONSE	M3	1	12	C4	press
378.824	n/a	RESPONSE	M3	1	16	E4	release
379.826	n/a	RESPONSE	M3	1	12	C4	release
380.112	7.758	FIXCROSS	n/a	n/a	n/a	n/a	n/a
387.87	6.325	CUE_LISTEN	M3	2	n/a	n/a	n/a
394.195	7.758	FIXCROSS	n/a	n/a	n/a	n/a	n/a
401.953	6.317	CUE_PLAYBACK_RIGHT_HAND	M3	2	n/a	n/a	n/a
402.584	n/a	RESPONSE	M3	2	12	C4	press
402.958	n/a	RESPONSE	M3	2	12	C4	release
403.186	n/a	RESPONSE	M3	2	09	A3	press
403.619	n/a	RESPONSE	M3	2	09	A3	release
403.856	n/a	RESPONSE	M3	2	12	C4	press
404.783	n/a	RESPONSE	M3	2	12	C4	release
405.134	n/a	RESPONSE	M3	2	12	C4	press
405.546	n/a	RESPONSE	M3	2	12	C4	release
405.818	n/a	RESPONSE	M3	2	07	G3	press
406.231	n/a	RESPONSE	M3	2	07	G3	release
406.441	n/a	RESPONSE	M3	2	12	C4	press
408.27	7.758	FIXCROSS	n/a	n/a	n/a	n/a	n/a
413.179	n/a	RESPONSE	M3	2	12	C4	release
416.028	6.317	CUE_LISTEN	M1	1	n/a	n/a	n/a
422.345	7.758	FIXCROSS	n/a	n/a	n/a	n/a	n/a
430.104	6.317	CUE_PLAYBACK_RIGHT_HAND	M1	1	n/a	n/a	n/a
430.64	n/a	RESPONSE	M1	1	19	G4	press
431.161	n/a	RESPONSE	M1	1	16	E4	press
431.252	n/a	RESPONSE	M1	1	19	G4	release
431.464	n/a	RESPONSE	M1	1	16	E4	release
431.661	n/a	RESPONSE	M1	1	16	E4	press
432.12	n/a	RESPONSE	M1	1	17	F4	press
432.152	n/a	RESPONSE	M1	1	16	E4	release
432.635	n/a	RESPONSE	M1	1	14	D4	press
432.855	n/a	RESPONSE	M1	1	14	D4	release
433.128	n/a	RESPONSE	M1	1	14	D4	press
433.13	n/a	RESPONSE	M1	1	17	F4	release
433.616	n/a	RESPONSE	M1	1	12	C4	press
433.659	n/a	RESPONSE	M1	1	14	D4	release
433.885	n/a	RESPONSE	M1	1	16	E4	press
433.95	n/a	RESPONSE	M1	1	12	C4	release
434.184	n/a	RESPONSE	M1	1	19	G4	press
434.298	n/a	RESPONSE	M1	1	16	E4	release
435.432	n/a	RESPONSE	M1	1	19	G4	release
436.42	7.758	FIXCROSS	n/a	n/a	n/a	n/a	n/a
444.178	6.325	CUE_LISTEN	M1	2	n/a	n/a	n/a
450.504	7.758	FIXCROSS	n/a	n/a	n/a	n/a	n/a
458.262	6.317	CUE_PLAYBACK_RIGHT_HAND	M1	2	n/a	n/a	n/a
459.912	n/a	RESPONSE	M1	2	19	G4	press
460.374	n/a	RESPONSE	M1	2	16	E4	press
460.606	n/a	RESPONSE	M1	2	16	E4	release
460.836	n/a	RESPONSE	M1	2	19	G4	release
460.839	n/a	RESPONSE	M1	2	16	E4	press
461.319	n/a	RESPONSE	M1	2	17	F4	press
461.321	n/a	RESPONSE	M1	2	16	E4	release
461.826	n/a	RESPONSE	M1	2	14	D4	press
462.004	n/a	RESPONSE	M1	2	14	D4	release
462.298	n/a	RESPONSE	M1	2	14	D4	press
462.336	n/a	RESPONSE	M1	2	17	F4	release
462.792	n/a	RESPONSE	M1	2	12	C4	press
462.839	n/a	RESPONSE	M1	2	14	D4	release
463.046	n/a	RESPONSE	M1	2	16	E4	press
463.104	n/a	RESPONSE	M1	2	12	C4	release
463.288	n/a	RESPONSE	M1	2	12	C4	press
463.362	n/a	RESPONSE	M1	2	16	E4	release
464.578	7.758	FIXCROSS	n/a	n/a	n/a	n/a	n/a
464.83	n/a	RESPONSE	M1	2	12	C4	release
472.337	6.325	CUE_LISTEN	M2	1	n/a	n/a	n/a
478.662	7.758	FIXCROSS	n/a	n/a	n/a	n/a	n/a
486.42	6.317	CUE_PLAYBACK_BOTH_HANDS	M2	1	n/a	n/a	n/a
487.416	n/a	RESPONSE	M2	1	24	C5	press
487.419	n/a	RESPONSE	M2	1	04	E3	press
487.421	n/a	RESPONSE	M2	1	07	G3	press
487.45	n/a	RESPONSE	M2	1	00	C3	press
487.941	n/a	RESPONSE	M2	1	19	G4	press
488.022	n/a	RESPONSE	M2	1	24	C5	release
488.105	n/a	RESPONSE	M2	1	00	C3	release
488.208	n/a	RESPONSE	M2	1	04	E3	release
488.216	n/a	RESPONSE	M2	1	19	G4	release
488.408	n/a	RESPONSE	M2	1	04	E3	press
488.41	n/a	RESPONSE	M2	1	00	C3	press
488.43	n/a	RESPONSE	M2	1	19	G4	press
488.911	n/a	RESPONSE	M2	1	17	F4	press
489.022	n/a	RESPONSE	M2	1	19	G4	release
489.144	n/a	RESPONSE	M2	1	00	C3	release
489.245	n/a	RESPONSE	M2	1	04	E3	release
489.386	n/a	RESPONSE	M2	1	04	E3	press
489.389	n/a	RESPONSE	M2	1	19	G4	press
489.449	n/a	RESPONSE	M2	1	00	C3	press
489.53	n/a	RESPONSE	M2	1	17	F4	release
489.961	n/a	RESPONSE	M2	1	21	A4	press
490.062	n/a	RESPONSE	M2	1	19	G4	release
490.234	n/a	RESPONSE	M2	1	00	C3	release
490.275	n/a	RESPONSE	M2	1	21	A4	release
490.356	n/a	RESPONSE	M2	1	04	E3	release
490.43	n/a	RESPONSE	M2	1	21	A4	press
490.459	n/a	RESPONSE	M2	1	00	C3	press
490.461	n/a	RESPONSE	M2	1	04	E3	press
490.831	n/a	RESPONSE	M2	1	21	A4	release
491.152	n/a	RESPONSE	M2	1	00	C3	release
491.186	n/a	RESPONSE	M2	1	04	E3	release
491.235	n/a	RESPONSE	M2	1	07	G3	release
492.737	7.758	FIXCROSS	n/a	n/a	n/a	n/a	n/a
500.495	6.317	CUE_LISTEN	M2	2	n/a	n/a	n/a
506.812	7.758	FIXCROSS	n/a	n/a	n/a	n/a	n/a
514.57	6.325	CUE_PLAYBACK_BOTH_HANDS	M2	2	n/a	n/a	n/a
515.571	n/a	RESPONSE	M2	2	24	C5	press
515.592	n/a	RESPONSE	M2	2	00	C3	press
515.604	n/a	RESPONSE	M2	2	07	G3	press
516.095	n/a	RESPONSE	M2	2	19	G4	press
516.236	n/a	RESPONSE	M2	2	24	C5	release
516.288	n/a	RESPONSE	M2	2	00	C3	release
516.309	n/a	RESPONSE	M2	2	19	G4	release
516.37	n/a	RESPONSE	M2	2	07	G3	release
516.554	n/a	RESPONSE	M2	2	00	C3	press
516.562	n/a	RESPONSE	M2	2	07	G3	press
516.574	n/a	RESPONSE	M2	2	19	G4	press
517.055	n/a	RESPONSE	M2	2	17	F4	press
517.146	n/a	RESPONSE	M2	2	19	G4	release
517.208	n/a	RESPONSE	M2	2	07	G3	release
517.219	n/a	RESPONSE	M2	2	00	C3	release
517.531	n/a	RESPONSE	M2	2	16	E4	press
517.551	n/a	RESPONSE	M2	2	07	G3	press
517.633	n/a	RESPONSE	M2	2	17	F4	release
517.654	n/a	RESPONSE	M2	2	00	C3	press
517.997	n/a	RESPONSE	M2	2	14	D4	press
518.156	n/a	RESPONSE	M2	2	00	C3	release
518.159	n/a	RESPONSE	M2	2	07	G3	release
518.209	n/a	RESPONSE	M2	2	16	E4	release
518.451	n/a	RESPONSE	M2	2	07	G3	press
518.471	n/a	RESPONSE	M2	2	00	C3	press
518.505	n/a	RESPONSE	M2	2	12	C4	press
518.915	n/a	RESPONSE	M2	2	14	D4	release
519.626	n/a	RESPONSE	M2	2	00	C3	release
519.726	n/a	RESPONSE	M2	2	07	G3	release
519.888	n/a	RESPONSE	M2	2	12	C4	release
520.895	7.759	FIXCROSS	n/a	n/a	n/a	n/a	n/a
528.654	6.317	CUE_LISTEN	M2	1	n/a	n/a	n/a
534.97	7.758	FIXCROSS	n/a	n/a	n/a	n/a	n/a
542.729	6.317	CUE_PLAYBACK_BOTH_HANDS	M2	1	n/a	n/a	n/a
543.646	n/a	RESPONSE	M2	1	12	C4	press
543.649	n/a	RESPONSE	M2	1	07	G3	press
543.655	n/a	RESPONSE	M2	1	00	C3	press
544.161	n/a	RESPONSE	M2	1	14	D4	press
544.28	n/a	RESPONSE	M2	1	12	C4	release
544.319	n/a	RESPONSE	M2	1	00	C3	release
544.366	n/a	RESPONSE	M2	1	07	G3	release
544.616	n/a	RESPONSE	M2	1	07	G3	press
544.625	n/a	RESPONSE	M2	1	00	C3	press
544.652	n/a	RESPONSE	M2	1	16	E4	press
544.71	n/a	RESPONSE	M2	1	14	D4	release
545.122	n/a	RESPONSE	M2	1	14	D4	press
545.204	n/a	RESPONSE	M2	1	00	C3	release
545.206	n/a	RESPONSE	M2	1	16	E4	release
545.226	n/a	RESPONSE	M2	1	07	G3	release
545.579	n/a	RESPONSE	M2	1	07	G3	press
545.601	n/a	RESPONSE	M2	1	00	C3	press
545.611	n/a	RESPONSE	M2	1	16	E4	press
545.662	n/a	RESPONSE	M2	1	14	D4	release
546.114	n/a	RESPONSE	M2	1	17	F4	press
546.205	n/a	RESPONSE	M2	1	00	C3	release
546.208	n/a	RESPONSE	M2	1	07	G3	release
546.21	n/a	RESPONSE	M2	1	16	E4	release
546.579	n/a	RESPONSE	M2	1	07	G3	press
546.592	n/a	RESPONSE	M2	1	19	G4	press
546.601	n/a	RESPONSE	M2	1	00	C3	press
546.682	n/a	RESPONSE	M2	1	17	F4	release
548.214	n/a	RESPONSE	M2	1	19	G4	release
548.225	n/a	RESPONSE	M2	1	00	C3	release
548.548	n/a	RESPONSE	M2	1	07	G3	release
549.045	7.758	FIXCROSS	n/a	n/a	n/a	n/a	n/a
556.804	6.325	CUE_LISTEN	M2	2	n/a	n/a	n/a
563.129	7.758	FIXCROSS	n/a	n/a	n/a	n/a	n/a
570.887	6.325	CUE_PLAYBACK_BOTH_HANDS	M2	2	n/a	n/a	n/a
571.722	n/a	RESPONSE	M2	2	07	G3	press
571.745	n/a	RESPONSE	M2	2	00	C3	press
571.762	n/a	RESPONSE	M2	2	16	E4	press
572.256	n/a	RESPONSE	M2	2	19	G4	press
572.348	n/a	RESPONSE	M2	2	16	E4	release
572.411	n/a	RESPONSE	M2	2	00	C3	release
572.44	n/a	RESPONSE	M2	2	07	G3	release
572.468	n/a	RESPONSE	M2	2	19	G4	release
572.74	n/a	RESPONSE	M2	2	19	G4	press
572.742	n/a	RESPONSE	M2	2	07	G3	press
572.75	n/a	RESPONSE	M2	2	00	C3	press
573.225	n/a	RESPONSE	M2	2	17	F4	press
573.296	n/a	RESPONSE	M2	2	19	G4	release
573.386	n/a	RESPONSE	M2	2	00	C3	release
573.401	n/a	RESPONSE	M2	2	07	G3	release
573.721	n/a	RESPONSE	M2	2	07	G3	press
573.746	n/a	RESPONSE	M2	2	00	C3	press
573.764	n/a	RESPONSE	M2	2	16	E4	press
573.876	n/a	RESPONSE	M2	2	17	F4	release
574.261	n/a	RESPONSE	M2	2	14	D4	press
574.311	n/a	RESPONSE	M2	2	00	C3	release
574.316	n/a	RESPONSE	M2	2	07	G3	release
574.364	n/a	RESPONSE	M2	2	16	E4	release
574.746	n/a	RESPONSE	M2	2	07	G3	press
574.78	n/a	RESPONSE	M2	2	12	C4	press
574.964	n/a	RESPONSE	M2	2	14	D4	release
577.039	n/a	RESPONSE	M2	2	12	C4	release
577.212	7.758	FIXCROSS	n/a	n/a	n/a	n/a	n/a
578.071	n/a	RESPONSE	M2	2	07	G3	release
584.97	6.308	CUE_LISTEN	M1	1	n/a	n/a	n/a
591.279	7.758	FIXCROSS	n/a	n/a	n/a	n/a	n/a
599.037	6.325	CUE_PLAYBACK_RIGHT_HAND	M1	1	n/a	n/a	n/a
599.622	n/a	RESPONSE	M1	1	19	G4	press
600.122	n/a	RESPONSE	M1	1	16	E4	press
600.174	n/a	RESPONSE	M1	1	19	G4	release
600.385	n/a	RESPONSE	M1	1	16	E4	release
600.616	n/a	RESPONSE	M1	1	16	E4	press
601.058	n/a	RESPONSE	M1	1	17	F4	press
601.06	n/a	RESPONSE	M1	1	16	E4	release
601.558	n/a	RESPONSE	M1	1	14	D4	press
601.736	n/a	RESPONSE	M1	1	14	D4	release
602.015	n/a	RESPONSE	M1	1	14	D4	press
602.032	n/a	RESPONSE	M1	1	17	F4	release
602.519	n/a	RESPONSE	M1	1	12	C4	press
602.566	n/a	RESPONSE	M1	1	14	D4	release
602.725	n/a	RESPONSE	M1	1	16	E4	press
602.792	n/a	RESPONSE	M1	1	12	C4	release
602.981	n/a	RESPONSE	M1	1	19	G4	press
603.088	n/a	RESPONSE	M1	1	16	E4	release
604.001	n/a	RESPONSE	M1	1	19	G4	release
605.362	7.758	FIXCROSS	n/a	n/a	n/a	n/a	n/a
613.121	6.317	CUE_LISTEN	M1	2	n/a	n/a	n/a
619.437	7.758	FIXCROSS	n/a	n/a	n/a	n/a	n/a
627.196	6.317	CUE_PLAYBACK_RIGHT_HAND	M1	2	n/a	n/a	n/a
627.705	n/a	RESPONSE	M1	2	19	G4	press
628.256	n/a	RESPONSE	M1	2	16	E4	press
628.348	n/a	RESPONSE	M1	2	19	G4	release
628.49	n/a	RESPONSE	M1	2	16	E4	release
628.7	n/a	RESPONSE	M1	2	16	E4	press
629.161	n/a	RESPONSE	M1	2	16	E4	release
629.165	n/a	RESPONSE	M1	2	17	F4	press
629.694	n/a	RESPONSE	M1	2	14	D4	press
629.895	n/a	RESPONSE	M1	2	14	D4	release
630.156	n/a	RESPONSE	M1	2	17	F4	release
630.159	n/a	RESPONSE	M1	2	14	D4	press
630.669	n/a	RESPONSE	M1	2	12	C4	press
630.7	n/a	RESPONSE	M1	2	14	D4	release
630.942	n/a	RESPONSE	M1	2	16	E4	press
630.992	n/a	RESPONSE	M1	2	12	C4	release
631.184	n/a	RESPONSE	M1	2	12	C4	press
631.265	n/a	RESPONSE	M1	2	16	E4	release
632.452	n/a	RESPONSE	M1	2	12	C4	release
633.512	7.758	FIXCROSS	n/a	n/a	n/a	n/a	n/a
641.271	6.325	CUE_LISTEN	M3	1	n/a	n/a	n/a
647.596	7.758	FIXCROSS	n/a	n/a	n/a	n/a	n/a
655.354	6.317	CUE_PLAYBACK_RIGHT_HAND	M3	1	n/a	n/a	n/a
655.992	n/a	RESPONSE	M3	1	12	C4	press
656.502	n/a	RESPONSE	M3	1	14	D4	press
656.554	n/a	RESPONSE	M3	1	12	C4	release
656.985	n/a	RESPONSE	M3	1	16	E4	press
657.086	n/a	RESPONSE	M3	1	14	D4	release
657.518	n/a	RESPONSE	M3	1	12	C4	press
657.619	n/a	RESPONSE	M3	1	16	E4	release
657.85	n/a	RESPONSE	M3	1	12	C4	release
658.011	n/a	RESPONSE	M3	1	12	C4	press
658.534	n/a	RESPONSE	M3	1	14	D4	press
658.574	n/a	RESPONSE	M3	1	12	C4	release
659.025	n/a	RESPONSE	M3	1	16	E4	press
659.126	n/a	RESPONSE	M3	1	14	D4	release
659.598	n/a	RESPONSE	M3	1	12	C4	press
659.619	n/a	RESPONSE	M3	1	16	E4	release
661.5	n/a	RESPONSE	M3	1	12	C4	release
661.671	7.758	FIXCROSS	n/a	n/a	n/a	n/a	n/a
669.429	6.317	CUE_LISTEN	M3	2	n/a	n/a	n/a
675.746	7.758	FIXCROSS	n/a	n/a	n/a	n/a	n/a
683.504	6.325	CUE_PLAYBACK_RIGHT_HAND	M3	2	n/a	n/a	n/a
684.039	n/a	RESPONSE	M3	2	16	E4	press
684.542	n/a	RESPONSE	M3	2	17	F4	press
684.596	n/a	RESPONSE	M3	2	16	E4	release
685.028	n/a	RESPONSE	M3	2	19	G4	press
685.08	n/a	RESPONSE	M3	2	17	F4	release
686.085	n/a	RESPONSE	M3	2	19	G4	release
686.115	n/a	RESPONSE	M3	2	16	E4	press
686.686	n/a	RESPONSE	M3	2	17	F4	press
686.748	n/a	RESPONSE	M3	2	16	E4	release
687.209	n/a	RESPONSE	M3	2	19	G4	press
687.26	n/a	RESPONSE	M3	2	17	F4	release
689.829	7.758	FIXCROSS	n/a	n/a	n/a	n/a	n/a
690.732	n/a	RESPONSE	M3	2	19	G4	release
697.588	6.317	CUE_LISTEN	M3	1	n/a	n/a	n/a
703.904	7.759	FIXCROSS	n/a	n/a	n/a	n/a	n/a
711.663	6.325	CUE_PLAYBACK_RIGHT_HAND	M3	1	n/a	n/a	n/a
712.195	n/a	RESPONSE	M3	1	19	G4	press
712.51	n/a	RESPONSE	M3	1	21	A4	press
712.558	n/a	RESPONSE	M3	1	19	G4	release
712.748	n/a	RESPONSE	M3	1	19	G4	press
712.76	n/a	RESPONSE	M3	1	21	A4	release
713.009	n/a	RESPONSE	M3	1	17	F4	press
713.081	n/a	RESPONSE	M3	1	19	G4	release
713.34	n/a	RESPONSE	M3	1	16	E4	press
713.6	n/a	RESPONSE	M3	1	17	F4	release
713.931	n/a	RESPONSE	M3	1	12	C4	press
714.072	n/a	RESPONSE	M3	1	16	E4	release
714.451	n/a	RESPONSE	M3	1	12	C4	release
714.521	n/a	RESPONSE	M3	1	17	F4	press
714.845	n/a	RESPONSE	M3	1	17	F4	release
715.139	n/a	RESPONSE	M3	1	19	G4	press
715.409	n/a	RESPONSE	M3	1	21	A4	press
715.411	n/a	RESPONSE	M3	1	19	G4	release
715.632	n/a	RESPONSE	M3	1	19	G4	press
715.685	n/a	RESPONSE	M3	1	21	A4	release
715.894	n/a	RESPONSE	M3	1	17	F4	press
715.955	n/a	RESPONSE	M3	1	19	G4	release
716.226	n/a	RESPONSE	M3	1	16	E4	press
716.47	n/a	RESPONSE	M3	1	17	F4	release
716.839	n/a	RESPONSE	M3	1	12	C4	press
716.981	n/a	RESPONSE	M3	1	16	E4	release
717.988	7.758	FIXCROSS	n/a	n/a	n/a	n/a	n/a
718.741	n/a	RESPONSE	M3	1	12	C4	release
725.746	6.317	CUE_LISTEN	M3	2	n/a	n/a	n/a
732.062	7.758	FIXCROSS	n/a	n/a	n/a	n/a	n/a
739.821	6.317	CUE_PLAYBACK_RIGHT_HAND	M3	2	n/a	n/a	n/a
740.425	n/a	RESPONSE	M3	2	12	C4	press
740.846	n/a	RESPONSE	M3	2	12	C4	release
741.098	n/a	RESPONSE	M3	2	07	G3	press
741.558	n/a	RESPONSE	M3	2	07	G3	release
742.084	n/a	RESPONSE	M3	2	12	C4	press
742.93	n/a	RESPONSE	M3	2	12	C4	release
743.16	n/a	RESPONSE	M3	2	12	C4	press
743.579	n/a	RESPONSE	M3	2	12	C4	release
743.895	n/a	RESPONSE	M3	2	05	F3	press
744.354	n/a	RESPONSE	M3	2	05	F3	release
744.654	n/a	RESPONSE	M3	2	11	B3	press
744.91	n/a	RESPONSE	M3	2	11	B3	release
745.069	n/a	RESPONSE	M3	2	12	C4	press
746.138	7.758	FIXCROSS	n/a	n/a	n/a	n/a	n/a
746.925	n/a	RESPONSE	M3	2	12	C4	release
753.896	6.325	CUE_LISTEN	M1	1	n/a	n/a	n/a
760.221	7.758	FIXCROSS	n/a	n/a	n/a	n/a	n/a
767.979	6.317	CUE_PLAYBACK_BOTH_HANDS	M1	1	n/a	n/a	n/a
768.576	n/a	RESPONSE	M1	1	19	G4	press
768.608	n/a	RESPONSE	M1	1	07	G3	press
768.61	n/a	RESPONSE	M1	1	04	E3	press
768.67	n/a	RESPONSE	M1	1	00	C3	press
769.061	n/a	RESPONSE	M1	1	16	E4	press
769.355	n/a	RESPONSE	M1	1	16	E4	release
769.514	n/a	RESPONSE	M1	1	16	E4	press
769.545	n/a	RESPONSE	M1	1	19	G4	release
769.78	n/a	RESPONSE	M1	1	00	C3	release
769.819	n/a	RESPONSE	M1	1	16	E4	release
769.901	n/a	RESPONSE	M1	1	04	E3	release
769.931	n/a	RESPONSE	M1	1	07	G3	release
769.994	n/a	RESPONSE	M1	1	17	F4	press
770.035	n/a	RESPONSE	M1	1	05	F3	press
770.055	n/a	RESPONSE	M1	1	02	D3	press
770.506	n/a	RESPONSE	M1	1	14	D4	press
770.698	n/a	RESPONSE	M1	1	14	D4	release
771.019	n/a	RESPONSE	M1	1	14	D4	press
771.25	n/a	RESPONSE	M1	1	17	F4	release
771.352	n/a	RESPONSE	M1	1	05	F3	release
771.365	n/a	RESPONSE	M1	1	14	D4	release
771.516	n/a	RESPONSE	M1	1	12	C4	press
771.52	n/a	RESPONSE	M1	1	07	G3	press
771.55	n/a	RESPONSE	M1	1	00	C3	press
771.556	n/a	RESPONSE	M1	1	04	E3	press
771.618	n/a	RESPONSE	M1	1	02	D3	release
771.782	n/a	RESPONSE	M1	1	16	E4	press
771.87	n/a	RESPONSE	M1	1	12	C4	release
772.035	n/a	RESPONSE	M1	1	19	G4	press
772.126	n/a	RESPONSE	M1	1	16	E4	release
773.524	n/a	RESPONSE	M1	1	19	G4	release
773.65	n/a	RESPONSE	M1	1	00	C3	release
773.764	n/a	RESPONSE	M1	1	04	E3	release
774.122	n/a	RESPONSE	M1	1	07	G3	release
774.296	7.758	FIXCROSS	n/a	n/a	n/a	n/a	n/a
782.054	6.317	CUE_LISTEN	M1	2	n/a	n/a	n/a
788.371	7.758	FIXCROSS	n/a	n/a	n/a	n/a	n/a
796.129	6.325	CUE_PLAYBACK_BOTH_HANDS	M1	2	n/a	n/a	n/a
796.77	n/a	RESPONSE	M1	2	19	G4	press
796.779	n/a	RESPONSE	M1	2	07	G3	press
796.782	n/a	RESPONSE	M1	2	00	C3	press
796.811	n/a	RESPONSE	M1	2	04	E3	press
797.335	n/a	RESPONSE	M1	2	16	E4	press
797.634	n/a	RESPONSE	M1	2	16	E4	release
797.836	n/a	RESPONSE	M1	2	16	E4	press
797.946	n/a	RESPONSE	M1	2	19	G4	release
798.08	n/a	RESPONSE	M1	2	00	C3	release
798.109	n/a	RESPONSE	M1	2	07	G3	release
798.13	n/a	RESPONSE	M1	2	16	E4	release
798.211	n/a	RESPONSE	M1	2	04	E3	release
798.325	n/a	RESPONSE	M1	2	17	F4	press
798.356	n/a	RESPONSE	M1	2	02	D3	press
798.375	n/a	RESPONSE	M1	2	05	F3	press
798.866	n/a	RESPONSE	M1	2	14	D4	press
799.068	n/a	RESPONSE	M1	2	14	D4	release
799.379	n/a	RESPONSE	M1	2	14	D4	press
799.55	n/a	RESPONSE	M1	2	17	F4	release
799.621	n/a	RESPONSE	M1	2	05	F3	release
799.722	n/a	RESPONSE	M1	2	14	D4	release
799.754	n/a	RESPONSE	M1	2	02	D3	release
799.895	n/a	RESPONSE	M1	2	00	C3	press
799.897	n/a	RESPONSE	M1	2	07	G3	press
799.9	n/a	RESPONSE	M1	2	04	E3	press
799.909	n/a	RESPONSE	M1	2	12	C4	press
800.14	n/a	RESPONSE	M1	2	16	E4	press
800.231	n/a	RESPONSE	M1	2	12	C4	release
800.432	n/a	RESPONSE	M1	2	12	C4	press
800.464	n/a	RESPONSE	M1	2	16	E4	release
801.785	n/a	RESPONSE	M1	2	00	C3	release
801.811	n/a	RESPONSE	M1	2	12	C4	release
802.04	n/a	RESPONSE	M1	2	07	G3	release
802.454	7.758	FIXCROSS	n/a	n/a	n/a	n/a	n/a
802.629	n/a	RESPONSE	M1	2	04	E3	release
810.213	6.317	CUE_LISTEN	M2	1	n/a	n/a	n/a
816.529	7.758	FIXCROSS	n/a	n/a	n/a	n/a	n/a
824.288	6.317	CUE_PLAYBACK_RIGHT_HAND	M2	1	n/a	n/a	n/a
824.369	n/a	RESPONSE	M2	1	16	E4	press
824.868	n/a	RESPONSE	M2	1	16	E4	release
825.632	n/a	RESPONSE	M2	1	24	C5	press
826.144	n/a	RESPONSE	M2	1	19	G4	press
826.385	n/a	RESPONSE	M2	1	19	G4	release
826.439	n/a	RESPONSE	M2	1	24	C5	release
826.567	n/a	RESPONSE	M2	1	19	G4	press
826.999	n/a	RESPONSE	M2	1	17	F4	press
827.06	n/a	RESPONSE	M2	1	19	G4	release
827.461	n/a	RESPONSE	M2	1	16	E4	press
827.544	n/a	RESPONSE	M2	1	17	F4	release
827.944	n/a	RESPONSE	M2	1	17	F4	press
828.066	n/a	RESPONSE	M2	1	16	E4	release
828.406	n/a	RESPONSE	M2	1	19	G4	press
828.448	n/a	RESPONSE	M2	1	17	F4	release
830.604	7.758	FIXCROSS	n/a	n/a	n/a	n/a	n/a
830.7	n/a	RESPONSE	M2	1	19	G4	release
838.363	6.325	CUE_LISTEN	M2	2	n/a	n/a	n/a
844.688	7.758	FIXCROSS	n/a	n/a	n/a	n/a	n/a
852.446	6.325	CUE_PLAYBACK_RIGHT_HAND	M2	2	n/a	n/a	n/a
853.006	n/a	RESPONSE	M2	2	24	C5	press
853.538	n/a	RESPONSE	M2	2	19	G4	press
853.781	n/a	RESPONSE	M2	2	24	C5	release
853.841	n/a	RESPONSE	M2	2	19	G4	release
854.04	n/a	RESPONSE	M2	2	19	G4	press
854.515	n/a	RESPONSE	M2	2	17	F4	press
854.564	n/a	RESPONSE	M2	2	19	G4	release
854.986	n/a	RESPONSE	M2	2	16	E4	press
855.226	n/a	RESPONSE	M2	2	17	F4	release
855.492	n/a	RESPONSE	M2	2	14	D4	press
855.614	n/a	RESPONSE	M2	2	16	E4	release
855.995	n/a	RESPONSE	M2	2	12	C4	press
856.209	n/a	RESPONSE	M2	2	14	D4	release
858.561	n/a	RESPONSE	M2	2	12	C4	release
858.771	7.758	FIXCROSS	n/a	n/a	n/a	n/a	n/a
866.53	6.308	CUE_LISTEN	M2	1	n/a	n/a	n/a
872.838	7.758	FIXCROSS	n/a	n/a	n/a	n/a	n/a
880.596	6.325	CUE_PLAYBACK_RIGHT_HAND	M2	1	n/a	n/a	n/a
881.354	n/a	RESPONSE	M2	1	12	C4	press
881.922	n/a	RESPONSE	M2	1	14	D4	press
881.994	n/a	RESPONSE	M2	1	12	C4	release
882.466	n/a	RESPONSE	M2	1	16	E4	press
882.514	n/a	RESPONSE	M2	1	14	D4	release
883.12	n/a	RESPONSE	M2	1	14	D4	press
883.171	n/a	RESPONSE	M2	1	16	E4	release
883.619	n/a	RESPONSE	M2	1	16	E4	press
883.691	n/a	RESPONSE	M2	1	14	D4	release
884.154	n/a	RESPONSE	M2	1	17	F4	press
884.25	n/a	RESPONSE	M2	1	16	E4	release
884.731	n/a	RESPONSE	M2	1	19	G4	press
884.79	n/a	RESPONSE	M2	1	17	F4	release
886.921	7.758	FIXCROSS	n/a	n/a	n/a	n/a	n/a
887.024	n/a	RESPONSE	M2	1	19	G4	release
894.68	6.317	CUE_LISTEN	M2	2	n/a	n/a	n/a
900.996	7.758	FIXCROSS	n/a	n/a	n/a	n/a	n/a
908.755	41.74	CUE_PLAYBACK_RIGHT_HAND	M2	2	n/a	n/a	n/a
909.295	n/a	RESPONSE	M2	2	16	E4	press
909.806	n/a	RESPONSE	M2	2	19	G4	press
909.848	n/a	RESPONSE	M2	2	16	E4	release
910.049	n/a	RESPONSE	M2	2	19	G4	release
910.3	n/a	RESPONSE	M2	2	19	G4	press
910.791	n/a	RESPONSE	M2	2	17	F4	press
910.852	n/a	RESPONSE	M2	2	19	G4	release
911.284	n/a	RESPONSE	M2	2	17	F4	release
911.286	n/a	RESPONSE	M2	2	16	E4	press
911.814	n/a	RESPONSE	M2	2	14	D4	press
911.876	n/a	RESPONSE	M2	2	16	E4	release
912.334	n/a	RESPONSE	M2	2	12	C4	press
912.369	n/a	RESPONSE	M2	2	14	D4	release
913.25	n/a	FIXCROSS	n/a	n/a	n/a	n/a	n/a
915.186	n/a	RESPONSE	M2	2	12	C4	release
