onset	duration	trial_type	trial_number	stroop_condition	stim_text(PL)	stim_text(eng)	stim_color(PL)	stim_color(eng)	response_type	response_color
0.0	n/a	RESPONSE	n/a	n/a	n/a	n/a	n/a	n/a	n/a	n/a
0.0698	1.0334	ITI	n/a	n/a	n/a	n/a	n/a	n/a	n/a	n/a
1.1032	0.5167	FIXCROSS	n/a	n/a	n/a	n/a	n/a	n/a	n/a	n/a
1.6199	1.5833	T_INK	1	Incongruent	niebieski	blue	czerwony	red	incorrect	n/a
3.1766	n/a	RESPONSE	n/a	n/a	n/a	n/a	n/a	n/a	n/a	blue
3.2032	0.5167	FEEDBACK	n/a	n/a	n/a	n/a	n/a	n/a	n/a	n/a
3.7199	1.0333	ITI	n/a	n/a	n/a	n/a	n/a	n/a	n/a	n/a
4.7532	0.5167	FIXCROSS	n/a	n/a	n/a	n/a	n/a	n/a	n/a	n/a
5.2699	2.5334	T_INK	2	Incongruent	żółty	yellow	czerwony	red	hit	n/a
7.774	n/a	RESPONSE	n/a	n/a	n/a	n/a	n/a	n/a	n/a	red
7.8033	0.5167	FEEDBACK	n/a	n/a	n/a	n/a	n/a	n/a	n/a	n/a
8.3199	1.0166	ITI	n/a	n/a	n/a	n/a	n/a	n/a	n/a	n/a
9.3366	0.5167	FIXCROSS	n/a	n/a	n/a	n/a	n/a	n/a	n/a	n/a
9.8533	1.25	T_INK	3	Incongruent	żółty	yellow	zielony	green	hit	n/a
11.0783	n/a	RESPONSE	n/a	n/a	n/a	n/a	n/a	n/a	n/a	green
11.1033	0.5167	FEEDBACK	n/a	n/a	n/a	n/a	n/a	n/a	n/a	n/a
11.62	1.0167	ITI	n/a	n/a	n/a	n/a	n/a	n/a	n/a	n/a
12.6366	0.5167	FIXCROSS	n/a	n/a	n/a	n/a	n/a	n/a	n/a	n/a
13.1533	2.7334	T_INK	4	Neutral	xxxxxxx	xxxxxxx	czerwony	red	hit	n/a
15.8512	n/a	RESPONSE	n/a	n/a	n/a	n/a	n/a	n/a	n/a	red
15.8867	0.5167	FEEDBACK	n/a	n/a	n/a	n/a	n/a	n/a	n/a	n/a
16.4033	1.0166	ITI	n/a	n/a	n/a	n/a	n/a	n/a	n/a	n/a
17.42	0.5166	FIXCROSS	n/a	n/a	n/a	n/a	n/a	n/a	n/a	n/a
17.9365	2.2668	T_INK	5	Incongruent	czerwony	red	żółty	yellow	hit	n/a
20.1772	n/a	RESPONSE	n/a	n/a	n/a	n/a	n/a	n/a	n/a	yellow
20.2034	0.5167	FEEDBACK	n/a	n/a	n/a	n/a	n/a	n/a	n/a	n/a
20.72	1.0167	ITI	n/a	n/a	n/a	n/a	n/a	n/a	n/a	n/a
21.7367	0.5166	FIXCROSS	n/a	n/a	n/a	n/a	n/a	n/a	n/a	n/a
22.2533	1.7001	T_INK	6	Incongruent	niebieski	blue	żółty	yellow	incorrect	n/a
23.9285	n/a	RESPONSE	n/a	n/a	n/a	n/a	n/a	n/a	n/a	blue
23.9534	0.5167	FEEDBACK	n/a	n/a	n/a	n/a	n/a	n/a	n/a	n/a
24.4701	1.0167	ITI	n/a	n/a	n/a	n/a	n/a	n/a	n/a	n/a
25.4867	0.5167	FIXCROSS	n/a	n/a	n/a	n/a	n/a	n/a	n/a	n/a
26.0034	1.5167	T_INK	7	Incongruent	zielony	green	niebieski	blue	hit	n/a
27.4882	n/a	RESPONSE	n/a	n/a	n/a	n/a	n/a	n/a	n/a	blue
27.5201	0.5167	FEEDBACK	n/a	n/a	n/a	n/a	n/a	n/a	n/a	n/a
28.0367	1.0167	ITI	n/a	n/a	n/a	n/a	n/a	n/a	n/a	n/a
29.0534	0.5166	FIXCROSS	n/a	n/a	n/a	n/a	n/a	n/a	n/a	n/a
29.57	1.6501	T_INK	8	Neutral	xxxxxxxx	xxxxxxxx	zielony	green	hit	n/a
31.1917	n/a	RESPONSE	n/a	n/a	n/a	n/a	n/a	n/a	n/a	green
31.2201	0.5167	FEEDBACK	n/a	n/a	n/a	n/a	n/a	n/a	n/a	n/a
31.7368	1.0167	ITI	n/a	n/a	n/a	n/a	n/a	n/a	n/a	n/a
32.7535	0.5166	FIXCROSS	n/a	n/a	n/a	n/a	n/a	n/a	n/a	n/a
33.2701	1.2667	T_INK	9	Neutral	xxxxxxx	xxxxxxx	żółty	yellow	hit	n/a
34.512	n/a	RESPONSE	n/a	n/a	n/a	n/a	n/a	n/a	n/a	yellow
34.5368	0.5166	FEEDBACK	n/a	n/a	n/a	n/a	n/a	n/a	n/a	n/a
35.0534	1.0167	ITI	n/a	n/a	n/a	n/a	n/a	n/a	n/a	n/a
36.0702	0.5167	FIXCROSS	n/a	n/a	n/a	n/a	n/a	n/a	n/a	n/a
36.5868	1.2334	T_INK	10	Incongruent	żółty	yellow	niebieski	blue	hit	n/a
37.7843	n/a	RESPONSE	n/a	n/a	n/a	n/a	n/a	n/a	n/a	blue
37.8202	0.5167	FEEDBACK	n/a	n/a	n/a	n/a	n/a	n/a	n/a	n/a
38.3368	1.0167	ITI	n/a	n/a	n/a	n/a	n/a	n/a	n/a	n/a
39.3535	0.5167	FIXCROSS	n/a	n/a	n/a	n/a	n/a	n/a	n/a	n/a
39.8702	1.0167	T_INK	11	Neutral	xxxxxxxx	xxxxxxxx	żółty	yellow	hit	n/a
40.8652	n/a	RESPONSE	n/a	n/a	n/a	n/a	n/a	n/a	n/a	yellow
40.8869	0.5166	FEEDBACK	n/a	n/a	n/a	n/a	n/a	n/a	n/a	n/a
41.4035	1.0167	ITI	n/a	n/a	n/a	n/a	n/a	n/a	n/a	n/a
42.4202	0.5166	FIXCROSS	n/a	n/a	n/a	n/a	n/a	n/a	n/a	n/a
42.9368	1.3834	T_INK	12	Incongruent	zielony	green	żółty	yellow	hit	n/a
44.2972	n/a	RESPONSE	n/a	n/a	n/a	n/a	n/a	n/a	n/a	yellow
44.3202	0.5167	FEEDBACK	n/a	n/a	n/a	n/a	n/a	n/a	n/a	n/a
44.8369	1.0333	ITI	n/a	n/a	n/a	n/a	n/a	n/a	n/a	n/a
51.2411	n/a	RESPONSE	n/a	n/a	n/a	n/a	n/a	n/a	n/a	n/a
51.3036	1.0167	ITI	n/a	n/a	n/a	n/a	n/a	n/a	n/a	n/a
52.3203	0.5167	FIXCROSS	n/a	n/a	n/a	n/a	n/a	n/a	n/a	n/a
52.8369	2.0333	INK	1	Incongruent	zielony	green	niebieski	blue	hit	n/a
54.8329	n/a	RESPONSE	n/a	n/a	n/a	n/a	n/a	n/a	n/a	blue
54.8703	1.0167	ITI	n/a	n/a	n/a	n/a	n/a	n/a	n/a	n/a
55.8869	0.5167	FIXCROSS	n/a	n/a	n/a	n/a	n/a	n/a	n/a	n/a
56.4037	1.0833	INK	2	Neutral	xxxxx	xxxxx	czerwony	red	hit	n/a
57.4667	n/a	RESPONSE	n/a	n/a	n/a	n/a	n/a	n/a	n/a	red
57.487	1.0167	ITI	n/a	n/a	n/a	n/a	n/a	n/a	n/a	n/a
58.5037	0.5167	FIXCROSS	n/a	n/a	n/a	n/a	n/a	n/a	n/a	n/a
59.0203	1.1333	INK	3	Neutral	xxxxxxx	xxxxxxx	niebieski	blue	hit	n/a
60.1326	n/a	RESPONSE	n/a	n/a	n/a	n/a	n/a	n/a	n/a	blue
60.1537	1.0167	ITI	n/a	n/a	n/a	n/a	n/a	n/a	n/a	n/a
61.1704	0.5167	FIXCROSS	n/a	n/a	n/a	n/a	n/a	n/a	n/a	n/a
61.687	0.8333	INK	4	Neutral	xxxxx	xxxxx	czerwony	red	hit	n/a
62.495	n/a	RESPONSE	n/a	n/a	n/a	n/a	n/a	n/a	n/a	red
62.5203	1.0167	ITI	n/a	n/a	n/a	n/a	n/a	n/a	n/a	n/a
63.537	0.5166	FIXCROSS	n/a	n/a	n/a	n/a	n/a	n/a	n/a	n/a
64.0537	1.2833	INK	5	Neutral	xxxxxxxx	xxxxxxxx	zielony	green	hit	n/a
65.3045	n/a	RESPONSE	n/a	n/a	n/a	n/a	n/a	n/a	n/a	green
65.337	1.0167	ITI	n/a	n/a	n/a	n/a	n/a	n/a	n/a	n/a
66.3537	0.5166	FIXCROSS	n/a	n/a	n/a	n/a	n/a	n/a	n/a	n/a
66.8704	1.45	INK	6	Incongruent	czerwony	red	zielony	green	hit	n/a
68.2896	n/a	RESPONSE	n/a	n/a	n/a	n/a	n/a	n/a	n/a	green
68.3204	1.0167	ITI	n/a	n/a	n/a	n/a	n/a	n/a	n/a	n/a
69.3371	0.5166	FIXCROSS	n/a	n/a	n/a	n/a	n/a	n/a	n/a	n/a
69.8537	1.2667	INK	7	Neutral	xxxxxxxx	xxxxxxxx	żółty	yellow	hit	n/a
71.0992	n/a	RESPONSE	n/a	n/a	n/a	n/a	n/a	n/a	n/a	yellow
71.1204	1.0167	ITI	n/a	n/a	n/a	n/a	n/a	n/a	n/a	n/a
72.1371	0.5167	FIXCROSS	n/a	n/a	n/a	n/a	n/a	n/a	n/a	n/a
72.6538	1.1167	INK	8	Incongruent	żółty	yellow	niebieski	blue	hit	n/a
73.749	n/a	RESPONSE	n/a	n/a	n/a	n/a	n/a	n/a	n/a	blue
73.7705	1.0167	ITI	n/a	n/a	n/a	n/a	n/a	n/a	n/a	n/a
74.7871	0.5166	FIXCROSS	n/a	n/a	n/a	n/a	n/a	n/a	n/a	n/a
75.3038	1.25	INK	9	Incongruent	zielony	green	czerwony	red	hit	n/a
76.5265	n/a	RESPONSE	n/a	n/a	n/a	n/a	n/a	n/a	n/a	red
76.5538	1.0167	ITI	n/a	n/a	n/a	n/a	n/a	n/a	n/a	n/a
77.5705	0.5167	FIXCROSS	n/a	n/a	n/a	n/a	n/a	n/a	n/a	n/a
78.0872	0.9667	INK	10	Incongruent	czerwony	red	żółty	yellow	hit	n/a
79.0328	n/a	RESPONSE	n/a	n/a	n/a	n/a	n/a	n/a	n/a	yellow
79.0538	1.0167	ITI	n/a	n/a	n/a	n/a	n/a	n/a	n/a	n/a
80.0705	0.5167	FIXCROSS	n/a	n/a	n/a	n/a	n/a	n/a	n/a	n/a
80.5872	0.95	INK	11	Neutral	xxxxxxx	xxxxxxx	czerwony	red	hit	n/a
81.5071	n/a	RESPONSE	n/a	n/a	n/a	n/a	n/a	n/a	n/a	red
81.5372	1.0167	ITI	n/a	n/a	n/a	n/a	n/a	n/a	n/a	n/a
82.5538	0.5167	FIXCROSS	n/a	n/a	n/a	n/a	n/a	n/a	n/a	n/a
83.0705	0.9833	INK	12	Incongruent	niebieski	blue	żółty	yellow	hit	n/a
84.0292	n/a	RESPONSE	n/a	n/a	n/a	n/a	n/a	n/a	n/a	yellow
84.0539	1.0167	ITI	n/a	n/a	n/a	n/a	n/a	n/a	n/a	n/a
85.0705	0.5167	FIXCROSS	n/a	n/a	n/a	n/a	n/a	n/a	n/a	n/a
85.5872	0.8166	INK	13	Incongruent	czerwony	red	niebieski	blue	hit	n/a
86.3758	n/a	RESPONSE	n/a	n/a	n/a	n/a	n/a	n/a	n/a	blue
86.4038	1.0167	ITI	n/a	n/a	n/a	n/a	n/a	n/a	n/a	n/a
87.4205	0.5167	FIXCROSS	n/a	n/a	n/a	n/a	n/a	n/a	n/a	n/a
87.9372	0.8333	INK	14	Neutral	xxxxx	xxxxx	niebieski	blue	hit	n/a
88.7383	n/a	RESPONSE	n/a	n/a	n/a	n/a	n/a	n/a	n/a	blue
88.7706	1.0167	ITI	n/a	n/a	n/a	n/a	n/a	n/a	n/a	n/a
89.7872	0.5167	FIXCROSS	n/a	n/a	n/a	n/a	n/a	n/a	n/a	n/a
90.3039	0.6666	INK	15	Neutral	xxxxxxx	xxxxxxx	niebieski	blue	hit	n/a
90.9411	n/a	RESPONSE	n/a	n/a	n/a	n/a	n/a	n/a	n/a	blue
90.9706	1.0167	ITI	n/a	n/a	n/a	n/a	n/a	n/a	n/a	n/a
91.9873	0.5167	FIXCROSS	n/a	n/a	n/a	n/a	n/a	n/a	n/a	n/a
92.5039	0.9	INK	16	Incongruent	żółty	yellow	zielony	green	hit	n/a
93.3835	n/a	RESPONSE	n/a	n/a	n/a	n/a	n/a	n/a	n/a	green
93.4039	1.0166	ITI	n/a	n/a	n/a	n/a	n/a	n/a	n/a	n/a
94.4206	0.5167	FIXCROSS	n/a	n/a	n/a	n/a	n/a	n/a	n/a	n/a
94.9373	0.9833	INK	17	Incongruent	żółty	yellow	niebieski	blue	hit	n/a
95.8897	n/a	RESPONSE	n/a	n/a	n/a	n/a	n/a	n/a	n/a	blue
95.9206	1.0167	ITI	n/a	n/a	n/a	n/a	n/a	n/a	n/a	n/a
96.9373	0.5167	FIXCROSS	n/a	n/a	n/a	n/a	n/a	n/a	n/a	n/a
97.454	0.95	INK	18	Incongruent	czerwony	red	niebieski	blue	hit	n/a
98.3799	n/a	RESPONSE	n/a	n/a	n/a	n/a	n/a	n/a	n/a	blue
98.404	1.0167	ITI	n/a	n/a	n/a	n/a	n/a	n/a	n/a	n/a
99.4207	0.5167	FIXCROSS	n/a	n/a	n/a	n/a	n/a	n/a	n/a	n/a
99.9373	1.3333	INK	19	Neutral	xxxxxxxx	xxxxxxxx	zielony	green	hit	n/a
101.2373	n/a	RESPONSE	n/a	n/a	n/a	n/a	n/a	n/a	n/a	green
101.2707	1.0167	ITI	n/a	n/a	n/a	n/a	n/a	n/a	n/a	n/a
102.2873	0.5167	FIXCROSS	n/a	n/a	n/a	n/a	n/a	n/a	n/a	n/a
102.804	1.0	INK	20	Incongruent	niebieski	blue	żółty	yellow	hit	n/a
103.7754	n/a	RESPONSE	n/a	n/a	n/a	n/a	n/a	n/a	n/a	yellow
103.804	1.0167	ITI	n/a	n/a	n/a	n/a	n/a	n/a	n/a	n/a
104.8207	0.5166	FIXCROSS	n/a	n/a	n/a	n/a	n/a	n/a	n/a	n/a
105.3373	1.3166	INK	21	Incongruent	niebieski	blue	zielony	green	hit	n/a
106.6328	n/a	RESPONSE	n/a	n/a	n/a	n/a	n/a	n/a	n/a	green
106.6539	1.0168	ITI	n/a	n/a	n/a	n/a	n/a	n/a	n/a	n/a
107.6707	0.5166	FIXCROSS	n/a	n/a	n/a	n/a	n/a	n/a	n/a	n/a
108.1874	0.8167	INK	22	Neutral	xxxxxxxx	xxxxxxxx	niebieski	blue	hit	n/a
108.9794	n/a	RESPONSE	n/a	n/a	n/a	n/a	n/a	n/a	n/a	blue
109.0041	1.0166	ITI	n/a	n/a	n/a	n/a	n/a	n/a	n/a	n/a
110.0207	0.5167	FIXCROSS	n/a	n/a	n/a	n/a	n/a	n/a	n/a	n/a
110.5374	0.5667	INK	23	Neutral	xxxxxxx	xxxxxxx	żółty	yellow	hit	n/a
111.0865	n/a	RESPONSE	n/a	n/a	n/a	n/a	n/a	n/a	n/a	yellow
111.1041	1.0167	ITI	n/a	n/a	n/a	n/a	n/a	n/a	n/a	n/a
112.1208	0.5166	FIXCROSS	n/a	n/a	n/a	n/a	n/a	n/a	n/a	n/a
112.6374	1.1167	INK	24	Neutral	xxxxxxxxx	xxxxxxxxx	zielony	green	hit	n/a
113.7203	n/a	RESPONSE	n/a	n/a	n/a	n/a	n/a	n/a	n/a	green
113.7541	1.0167	ITI	n/a	n/a	n/a	n/a	n/a	n/a	n/a	n/a
114.7708	0.5167	FIXCROSS	n/a	n/a	n/a	n/a	n/a	n/a	n/a	n/a
115.2874	1.1167	INK	25	Incongruent	czerwony	red	żółty	yellow	hit	n/a
116.3862	n/a	RESPONSE	n/a	n/a	n/a	n/a	n/a	n/a	n/a	yellow
116.4041	1.0167	ITI	n/a	n/a	n/a	n/a	n/a	n/a	n/a	n/a
117.4208	0.5167	FIXCROSS	n/a	n/a	n/a	n/a	n/a	n/a	n/a	n/a
117.9375	1.1	INK	26	Neutral	xxxxx	xxxxx	niebieski	blue	hit	n/a
119.0042	n/a	RESPONSE	n/a	n/a	n/a	n/a	n/a	n/a	n/a	blue
119.0375	1.0167	ITI	n/a	n/a	n/a	n/a	n/a	n/a	n/a	n/a
120.0542	0.5167	FIXCROSS	n/a	n/a	n/a	n/a	n/a	n/a	n/a	n/a
120.5708	0.8	INK	27	Incongruent	zielony	green	niebieski	blue	hit	n/a
121.3507	n/a	RESPONSE	n/a	n/a	n/a	n/a	n/a	n/a	n/a	blue
121.3708	1.0167	ITI	n/a	n/a	n/a	n/a	n/a	n/a	n/a	n/a
122.3875	0.5167	FIXCROSS	n/a	n/a	n/a	n/a	n/a	n/a	n/a	n/a
122.9042	0.7833	INK	28	Incongruent	niebieski	blue	zielony	green	incorrect	n/a
123.6654	n/a	RESPONSE	n/a	n/a	n/a	n/a	n/a	n/a	n/a	red
123.6875	1.0167	ITI	n/a	n/a	n/a	n/a	n/a	n/a	n/a	n/a
124.7042	0.5167	FIXCROSS	n/a	n/a	n/a	n/a	n/a	n/a	n/a	n/a
125.2209	0.8333	INK	29	Incongruent	zielony	green	żółty	yellow	hit	n/a
126.0278	n/a	RESPONSE	n/a	n/a	n/a	n/a	n/a	n/a	n/a	yellow
126.0542	1.0167	ITI	n/a	n/a	n/a	n/a	n/a	n/a	n/a	n/a
127.0709	0.5167	FIXCROSS	n/a	n/a	n/a	n/a	n/a	n/a	n/a	n/a
127.5875	0.9166	INK	30	Neutral	xxxxxxxx	xxxxxxxx	żółty	yellow	hit	n/a
128.4862	n/a	RESPONSE	n/a	n/a	n/a	n/a	n/a	n/a	n/a	yellow
128.5042	1.0167	ITI	n/a	n/a	n/a	n/a	n/a	n/a	n/a	n/a
129.5209	0.5166	FIXCROSS	n/a	n/a	n/a	n/a	n/a	n/a	n/a	n/a
130.0375	0.7833	INK	31	Incongruent	czerwony	red	zielony	green	hit	n/a
130.8008	n/a	RESPONSE	n/a	n/a	n/a	n/a	n/a	n/a	n/a	green
130.8209	1.0167	ITI	n/a	n/a	n/a	n/a	n/a	n/a	n/a	n/a
131.8376	0.5167	FIXCROSS	n/a	n/a	n/a	n/a	n/a	n/a	n/a	n/a
132.3543	1.1333	INK	32	Neutral	xxxxxxxxx	xxxxxxxxx	czerwony	red	hit	n/a
133.4667	n/a	RESPONSE	n/a	n/a	n/a	n/a	n/a	n/a	n/a	red
133.4876	1.0166	ITI	n/a	n/a	n/a	n/a	n/a	n/a	n/a	n/a
134.5042	0.5167	FIXCROSS	n/a	n/a	n/a	n/a	n/a	n/a	n/a	n/a
135.0209	1.35	INK	33	Neutral	xxxxxxxxx	xxxxxxxxx	żółty	yellow	hit	n/a
136.34	n/a	RESPONSE	n/a	n/a	n/a	n/a	n/a	n/a	n/a	yellow
136.371	1.0167	ITI	n/a	n/a	n/a	n/a	n/a	n/a	n/a	n/a
137.3876	0.5167	FIXCROSS	n/a	n/a	n/a	n/a	n/a	n/a	n/a	n/a
137.9043	1.5667	INK	34	Incongruent	zielony	green	czerwony	red	hit	n/a
139.4368	n/a	RESPONSE	n/a	n/a	n/a	n/a	n/a	n/a	n/a	red
139.471	1.0167	ITI	n/a	n/a	n/a	n/a	n/a	n/a	n/a	n/a
140.4877	0.5167	FIXCROSS	n/a	n/a	n/a	n/a	n/a	n/a	n/a	n/a
141.0043	1.3333	INK	35	Neutral	xxxxxxxxx	xxxxxxxxx	żółty	yellow	hit	n/a
142.3102	n/a	RESPONSE	n/a	n/a	n/a	n/a	n/a	n/a	n/a	yellow
142.3377	1.0167	ITI	n/a	n/a	n/a	n/a	n/a	n/a	n/a	n/a
143.3543	0.5167	FIXCROSS	n/a	n/a	n/a	n/a	n/a	n/a	n/a	n/a
143.871	0.8333	INK	36	Neutral	xxxxxxx	xxxxxxx	żółty	yellow	hit	n/a
144.6726	n/a	RESPONSE	n/a	n/a	n/a	n/a	n/a	n/a	n/a	yellow
144.7044	1.0166	ITI	n/a	n/a	n/a	n/a	n/a	n/a	n/a	n/a
145.721	0.5167	FIXCROSS	n/a	n/a	n/a	n/a	n/a	n/a	n/a	n/a
146.2377	1.05	INK	37	Neutral	xxxxxxx	xxxxxxx	niebieski	blue	hit	n/a
147.2587	n/a	RESPONSE	n/a	n/a	n/a	n/a	n/a	n/a	n/a	blue
147.2877	1.0167	ITI	n/a	n/a	n/a	n/a	n/a	n/a	n/a	n/a
148.3044	0.5167	FIXCROSS	n/a	n/a	n/a	n/a	n/a	n/a	n/a	n/a
148.8211	0.85	INK	38	Neutral	xxxxxxx	xxxxxxx	żółty	yellow	hit	n/a
149.6372	n/a	RESPONSE	n/a	n/a	n/a	n/a	n/a	n/a	n/a	yellow
149.671	1.0167	ITI	n/a	n/a	n/a	n/a	n/a	n/a	n/a	n/a
150.6877	0.5166	FIXCROSS	n/a	n/a	n/a	n/a	n/a	n/a	n/a	n/a
151.2044	1.7834	INK	39	Incongruent	zielony	green	żółty	yellow	hit	n/a
152.9575	n/a	RESPONSE	n/a	n/a	n/a	n/a	n/a	n/a	n/a	yellow
152.9878	1.0166	ITI	n/a	n/a	n/a	n/a	n/a	n/a	n/a	n/a
154.0044	0.5167	FIXCROSS	n/a	n/a	n/a	n/a	n/a	n/a	n/a	n/a
154.5211	0.7	INK	40	Incongruent	zielony	green	niebieski	blue	hit	n/a
155.1924	n/a	RESPONSE	n/a	n/a	n/a	n/a	n/a	n/a	n/a	blue
155.2211	1.0167	ITI	n/a	n/a	n/a	n/a	n/a	n/a	n/a	n/a
156.2378	0.5167	FIXCROSS	n/a	n/a	n/a	n/a	n/a	n/a	n/a	n/a
156.7544	1.2333	INK	41	Neutral	xxxxxxxx	xxxxxxxx	żółty	yellow	hit	n/a
157.9699	n/a	RESPONSE	n/a	n/a	n/a	n/a	n/a	n/a	n/a	yellow
157.9878	1.0167	ITI	n/a	n/a	n/a	n/a	n/a	n/a	n/a	n/a
159.0045	0.5167	FIXCROSS	n/a	n/a	n/a	n/a	n/a	n/a	n/a	n/a
159.5211	1.1333	INK	42	Neutral	xxxxx	xxxxx	zielony	green	hit	n/a
160.6357	n/a	RESPONSE	n/a	n/a	n/a	n/a	n/a	n/a	n/a	green
160.6545	1.0167	ITI	n/a	n/a	n/a	n/a	n/a	n/a	n/a	n/a
161.6712	0.5166	FIXCROSS	n/a	n/a	n/a	n/a	n/a	n/a	n/a	n/a
162.1878	0.8167	INK	43	Incongruent	żółty	yellow	niebieski	blue	hit	n/a
162.9823	n/a	RESPONSE	n/a	n/a	n/a	n/a	n/a	n/a	n/a	blue
163.0045	1.0167	ITI	n/a	n/a	n/a	n/a	n/a	n/a	n/a	n/a
164.0212	0.5167	FIXCROSS	n/a	n/a	n/a	n/a	n/a	n/a	n/a	n/a
164.5378	0.9166	INK	44	Neutral	xxxxx	xxxxx	niebieski	blue	hit	n/a
165.4247	n/a	RESPONSE	n/a	n/a	n/a	n/a	n/a	n/a	n/a	blue
165.4545	1.0167	ITI	n/a	n/a	n/a	n/a	n/a	n/a	n/a	n/a
166.4712	0.5167	FIXCROSS	n/a	n/a	n/a	n/a	n/a	n/a	n/a	n/a
166.9879	1.3333	INK	45	Neutral	xxxxxxxxx	xxxxxxxxx	zielony	green	hit	n/a
168.298	n/a	RESPONSE	n/a	n/a	n/a	n/a	n/a	n/a	n/a	green
168.3212	1.0166	ITI	n/a	n/a	n/a	n/a	n/a	n/a	n/a	n/a
169.3378	0.5167	FIXCROSS	n/a	n/a	n/a	n/a	n/a	n/a	n/a	n/a
169.8545	0.9834	INK	46	Neutral	xxxxxxxxx	xxxxxxxxx	żółty	yellow	hit	n/a
170.8201	n/a	RESPONSE	n/a	n/a	n/a	n/a	n/a	n/a	n/a	yellow
170.8379	1.0166	ITI	n/a	n/a	n/a	n/a	n/a	n/a	n/a	n/a
171.8545	0.5167	FIXCROSS	n/a	n/a	n/a	n/a	n/a	n/a	n/a	n/a
172.3712	1.0833	INK	47	Neutral	xxxxxxxxx	xxxxxxxxx	czerwony	red	hit	n/a
173.4221	n/a	RESPONSE	n/a	n/a	n/a	n/a	n/a	n/a	n/a	red
173.4546	1.0167	ITI	n/a	n/a	n/a	n/a	n/a	n/a	n/a	n/a
174.4713	0.5167	FIXCROSS	n/a	n/a	n/a	n/a	n/a	n/a	n/a	n/a
174.9879	1.0667	INK	48	Incongruent	czerwony	red	niebieski	blue	hit	n/a
176.0242	n/a	RESPONSE	n/a	n/a	n/a	n/a	n/a	n/a	n/a	blue
176.0546	1.0167	ITI	n/a	n/a	n/a	n/a	n/a	n/a	n/a	n/a
177.0713	0.5167	FIXCROSS	n/a	n/a	n/a	n/a	n/a	n/a	n/a	n/a
177.5879	0.8831	INK	49	Incongruent	niebieski	blue	zielony	green	hit	n/a
178.4505	n/a	RESPONSE	n/a	n/a	n/a	n/a	n/a	n/a	n/a	green
178.471	1.0169	ITI	n/a	n/a	n/a	n/a	n/a	n/a	n/a	n/a
179.488	0.5167	FIXCROSS	n/a	n/a	n/a	n/a	n/a	n/a	n/a	n/a
180.0046	1.4167	INK	50	Incongruent	żółty	yellow	zielony	green	hit	n/a
181.4036	n/a	RESPONSE	n/a	n/a	n/a	n/a	n/a	n/a	n/a	green
181.4213	1.0167	ITI	n/a	n/a	n/a	n/a	n/a	n/a	n/a	n/a
182.438	0.5167	FIXCROSS	n/a	n/a	n/a	n/a	n/a	n/a	n/a	n/a
182.9547	0.9333	INK	51	Incongruent	zielony	green	czerwony	red	hit	n/a
183.862	n/a	RESPONSE	n/a	n/a	n/a	n/a	n/a	n/a	n/a	red
183.888	1.0167	ITI	n/a	n/a	n/a	n/a	n/a	n/a	n/a	n/a
184.9047	0.5167	FIXCROSS	n/a	n/a	n/a	n/a	n/a	n/a	n/a	n/a
185.4213	1.1667	INK	52	Incongruent	niebieski	blue	żółty	yellow	hit	n/a
186.5595	n/a	RESPONSE	n/a	n/a	n/a	n/a	n/a	n/a	n/a	yellow
186.588	1.0167	ITI	n/a	n/a	n/a	n/a	n/a	n/a	n/a	n/a
187.6047	0.5167	FIXCROSS	n/a	n/a	n/a	n/a	n/a	n/a	n/a	n/a
188.1214	0.7	INK	53	Incongruent	żółty	yellow	zielony	green	hit	n/a
188.7944	n/a	RESPONSE	n/a	n/a	n/a	n/a	n/a	n/a	n/a	green
188.8213	1.0167	ITI	n/a	n/a	n/a	n/a	n/a	n/a	n/a	n/a
189.838	0.5167	FIXCROSS	n/a	n/a	n/a	n/a	n/a	n/a	n/a	n/a
190.3547	1.1833	INK	54	Incongruent	żółty	yellow	czerwony	red	hit	n/a
191.508	n/a	RESPONSE	n/a	n/a	n/a	n/a	n/a	n/a	n/a	red
191.538	1.0167	ITI	n/a	n/a	n/a	n/a	n/a	n/a	n/a	n/a
192.5547	0.5166	FIXCROSS	n/a	n/a	n/a	n/a	n/a	n/a	n/a	n/a
193.0714	1.2334	INK	55	Incongruent	niebieski	blue	czerwony	red	hit	n/a
194.2856	n/a	RESPONSE	n/a	n/a	n/a	n/a	n/a	n/a	n/a	red
194.3047	1.0166	ITI	n/a	n/a	n/a	n/a	n/a	n/a	n/a	n/a
195.3214	0.5167	FIXCROSS	n/a	n/a	n/a	n/a	n/a	n/a	n/a	n/a
195.8381	1.4167	INK	56	Neutral	xxxxx	xxxxx	zielony	green	hit	n/a
197.2228	n/a	RESPONSE	n/a	n/a	n/a	n/a	n/a	n/a	n/a	green
197.2548	1.0167	ITI	n/a	n/a	n/a	n/a	n/a	n/a	n/a	n/a
198.2714	0.5167	FIXCROSS	n/a	n/a	n/a	n/a	n/a	n/a	n/a	n/a
198.7881	0.8	INK	57	Neutral	xxxxxxxx	xxxxxxxx	niebieski	blue	hit	n/a
199.5693	n/a	RESPONSE	n/a	n/a	n/a	n/a	n/a	n/a	n/a	blue
199.5881	1.0167	ITI	n/a	n/a	n/a	n/a	n/a	n/a	n/a	n/a
200.6048	0.5167	FIXCROSS	n/a	n/a	n/a	n/a	n/a	n/a	n/a	n/a
201.1215	0.8667	INK	58	Incongruent	żółty	yellow	czerwony	red	hit	n/a
201.9637	n/a	RESPONSE	n/a	n/a	n/a	n/a	n/a	n/a	n/a	red
201.9881	1.0167	ITI	n/a	n/a	n/a	n/a	n/a	n/a	n/a	n/a
203.0048	0.5167	FIXCROSS	n/a	n/a	n/a	n/a	n/a	n/a	n/a	n/a
203.5215	0.7166	INK	59	Incongruent	niebieski	blue	czerwony	red	hit	n/a
204.2144	n/a	RESPONSE	n/a	n/a	n/a	n/a	n/a	n/a	n/a	red
204.2381	1.0167	ITI	n/a	n/a	n/a	n/a	n/a	n/a	n/a	n/a
205.2548	0.5167	FIXCROSS	n/a	n/a	n/a	n/a	n/a	n/a	n/a	n/a
205.7715	0.8167	INK	60	Incongruent	czerwony	red	żółty	yellow	hit	n/a
206.561	n/a	RESPONSE	n/a	n/a	n/a	n/a	n/a	n/a	n/a	yellow
206.5882	1.0166	ITI	n/a	n/a	n/a	n/a	n/a	n/a	n/a	n/a
207.6048	0.5167	FIXCROSS	n/a	n/a	n/a	n/a	n/a	n/a	n/a	n/a
208.1215	0.85	INK	61	Neutral	xxxxxxxxx	xxxxxxxxx	czerwony	red	hit	n/a
208.9394	n/a	RESPONSE	n/a	n/a	n/a	n/a	n/a	n/a	n/a	red
208.9715	1.0167	ITI	n/a	n/a	n/a	n/a	n/a	n/a	n/a	n/a
209.9882	0.5167	FIXCROSS	n/a	n/a	n/a	n/a	n/a	n/a	n/a	n/a
210.5049	0.9333	INK	62	Incongruent	zielony	green	żółty	yellow	hit	n/a
211.4136	n/a	RESPONSE	n/a	n/a	n/a	n/a	n/a	n/a	n/a	yellow
211.4382	1.0167	ITI	n/a	n/a	n/a	n/a	n/a	n/a	n/a	n/a
212.4549	0.5167	FIXCROSS	n/a	n/a	n/a	n/a	n/a	n/a	n/a	n/a
212.9716	0.9667	INK	63	Incongruent	żółty	yellow	czerwony	red	hit	n/a
213.9197	n/a	RESPONSE	n/a	n/a	n/a	n/a	n/a	n/a	n/a	red
213.9382	1.0166	ITI	n/a	n/a	n/a	n/a	n/a	n/a	n/a	n/a
214.9549	0.5167	FIXCROSS	n/a	n/a	n/a	n/a	n/a	n/a	n/a	n/a
215.4716	1.1	INK	64	Neutral	xxxxxxxxx	xxxxxxxxx	zielony	green	hit	n/a
216.5377	n/a	RESPONSE	n/a	n/a	n/a	n/a	n/a	n/a	n/a	green
216.5716	1.0167	ITI	n/a	n/a	n/a	n/a	n/a	n/a	n/a	n/a
217.5883	0.5167	FIXCROSS	n/a	n/a	n/a	n/a	n/a	n/a	n/a	n/a
218.1049	0.6333	INK	65	Neutral	xxxxx	xxxxx	zielony	green	hit	n/a
218.7087	n/a	RESPONSE	n/a	n/a	n/a	n/a	n/a	n/a	n/a	green
218.7383	1.0167	ITI	n/a	n/a	n/a	n/a	n/a	n/a	n/a	n/a
219.7549	0.5167	FIXCROSS	n/a	n/a	n/a	n/a	n/a	n/a	n/a	n/a
220.2716	1.8	INK	66	Incongruent	czerwony	red	zielony	green	hit	n/a
222.0449	n/a	RESPONSE	n/a	n/a	n/a	n/a	n/a	n/a	n/a	green
222.0716	1.0167	ITI	n/a	n/a	n/a	n/a	n/a	n/a	n/a	n/a
223.0883	0.5167	FIXCROSS	n/a	n/a	n/a	n/a	n/a	n/a	n/a	n/a
223.605	0.8	INK	67	Neutral	xxxxxxx	xxxxxxx	czerwony	red	hit	n/a
224.3755	n/a	RESPONSE	n/a	n/a	n/a	n/a	n/a	n/a	n/a	red
224.4049	1.0167	ITI	n/a	n/a	n/a	n/a	n/a	n/a	n/a	n/a
225.4216	0.5167	FIXCROSS	n/a	n/a	n/a	n/a	n/a	n/a	n/a	n/a
225.9383	1.3667	INK	68	Neutral	xxxxxxxx	xxxxxxxx	zielony	green	hit	n/a
227.2807	n/a	RESPONSE	n/a	n/a	n/a	n/a	n/a	n/a	n/a	green
227.305	1.0166	ITI	n/a	n/a	n/a	n/a	n/a	n/a	n/a	n/a
228.3216	0.5167	FIXCROSS	n/a	n/a	n/a	n/a	n/a	n/a	n/a	n/a
228.8383	1.1334	INK	69	Incongruent	niebieski	blue	czerwony	red	hit	n/a
229.9464	n/a	RESPONSE	n/a	n/a	n/a	n/a	n/a	n/a	n/a	red
229.9717	1.0167	ITI	n/a	n/a	n/a	n/a	n/a	n/a	n/a	n/a
230.9884	0.5167	FIXCROSS	n/a	n/a	n/a	n/a	n/a	n/a	n/a	n/a
231.505	1.9333	INK	70	Neutral	xxxxxxx	xxxxxxx	czerwony	red	hit	n/a
233.4105	n/a	RESPONSE	n/a	n/a	n/a	n/a	n/a	n/a	n/a	red
233.4384	1.0166	ITI	n/a	n/a	n/a	n/a	n/a	n/a	n/a	n/a
234.455	0.5167	FIXCROSS	n/a	n/a	n/a	n/a	n/a	n/a	n/a	n/a
234.9717	1.0833	INK	71	Neutral	xxxxxxxx	xxxxxxxx	niebieski	blue	hit	n/a
236.0284	n/a	RESPONSE	n/a	n/a	n/a	n/a	n/a	n/a	n/a	blue
236.0551	1.0167	ITI	n/a	n/a	n/a	n/a	n/a	n/a	n/a	n/a
237.0717	0.5167	FIXCROSS	n/a	n/a	n/a	n/a	n/a	n/a	n/a	n/a
237.5884	1.5833	INK	72	Neutral	xxxxx	xxxxx	czerwony	red	hit	n/a
239.1411	n/a	RESPONSE	n/a	n/a	n/a	n/a	n/a	n/a	n/a	red
239.1717	1.0829	ITI	n/a	n/a	n/a	n/a	n/a	n/a	n/a	n/a
264.2664	n/a	RESPONSE	n/a	n/a	n/a	n/a	n/a	n/a	n/a	n/a
264.322	1.0167	ITI	n/a	n/a	n/a	n/a	n/a	n/a	n/a	n/a
265.3386	0.5167	FIXCROSS	n/a	n/a	n/a	n/a	n/a	n/a	n/a	n/a
265.8553	1.5167	T_COLOR_NAME	1	Incongruent	niebieski	blue	czerwony	red	hit	n/a
267.3473	n/a	RESPONSE	n/a	n/a	n/a	n/a	n/a	n/a	n/a	blue
267.3719	0.5167	FEEDBACK	n/a	n/a	n/a	n/a	n/a	n/a	n/a	n/a
267.8887	1.0167	ITI	n/a	n/a	n/a	n/a	n/a	n/a	n/a	n/a
268.9053	0.5167	FIXCROSS	n/a	n/a	n/a	n/a	n/a	n/a	n/a	n/a
269.422	1.0666	T_COLOR_NAME	2	Incongruent	żółty	yellow	niebieski	blue	hit	n/a
270.46	n/a	RESPONSE	n/a	n/a	n/a	n/a	n/a	n/a	n/a	yellow
270.4886	0.5167	FEEDBACK	n/a	n/a	n/a	n/a	n/a	n/a	n/a	n/a
271.0053	1.0166	ITI	n/a	n/a	n/a	n/a	n/a	n/a	n/a	n/a
272.022	0.5167	FIXCROSS	n/a	n/a	n/a	n/a	n/a	n/a	n/a	n/a
272.5387	1.1167	T_COLOR_NAME	3	Incongruent	żółty	yellow	zielony	green	hit	n/a
273.6365	n/a	RESPONSE	n/a	n/a	n/a	n/a	n/a	n/a	n/a	yellow
273.6554	0.5167	FEEDBACK	n/a	n/a	n/a	n/a	n/a	n/a	n/a	n/a
274.172	1.0167	ITI	n/a	n/a	n/a	n/a	n/a	n/a	n/a	n/a
275.1887	0.5167	FIXCROSS	n/a	n/a	n/a	n/a	n/a	n/a	n/a	n/a
275.7054	0.7167	T_COLOR_NAME	4	Incongruent	żółty	yellow	czerwony	red	hit	n/a
276.3982	n/a	RESPONSE	n/a	n/a	n/a	n/a	n/a	n/a	n/a	yellow
276.4221	0.5166	FEEDBACK	n/a	n/a	n/a	n/a	n/a	n/a	n/a	n/a
276.9387	1.0167	ITI	n/a	n/a	n/a	n/a	n/a	n/a	n/a	n/a
277.9554	0.5167	FIXCROSS	n/a	n/a	n/a	n/a	n/a	n/a	n/a	n/a
278.4721	1.8833	T_COLOR_NAME	5	Neutral	czerwony	red	Neutral	Neutral	hit	n/a
280.3251	n/a	RESPONSE	n/a	n/a	n/a	n/a	n/a	n/a	n/a	red
280.3554	0.5167	FEEDBACK	n/a	n/a	n/a	n/a	n/a	n/a	n/a	n/a
280.8721	1.0167	ITI	n/a	n/a	n/a	n/a	n/a	n/a	n/a	n/a
281.8888	0.5166	FIXCROSS	n/a	n/a	n/a	n/a	n/a	n/a	n/a	n/a
282.4054	1.0833	T_COLOR_NAME	6	Incongruent	czerwony	red	żółty	yellow	hit	n/a
283.4538	n/a	RESPONSE	n/a	n/a	n/a	n/a	n/a	n/a	n/a	red
283.4887	0.5167	FEEDBACK	n/a	n/a	n/a	n/a	n/a	n/a	n/a	n/a
284.0054	1.0166	ITI	n/a	n/a	n/a	n/a	n/a	n/a	n/a	n/a
285.0221	0.5167	FIXCROSS	n/a	n/a	n/a	n/a	n/a	n/a	n/a	n/a
285.5388	0.6667	T_COLOR_NAME	7	Neutral	czerwony	red	Neutral	Neutral	hit	n/a
286.1834	n/a	RESPONSE	n/a	n/a	n/a	n/a	n/a	n/a	n/a	red
286.2055	0.5167	FEEDBACK	n/a	n/a	n/a	n/a	n/a	n/a	n/a	n/a
286.7221	1.0167	ITI	n/a	n/a	n/a	n/a	n/a	n/a	n/a	n/a
287.7388	0.5167	FIXCROSS	n/a	n/a	n/a	n/a	n/a	n/a	n/a	n/a
288.2555	1.1167	T_COLOR_NAME	8	Incongruent	zielony	green	żółty	yellow	hit	n/a
289.3442	n/a	RESPONSE	n/a	n/a	n/a	n/a	n/a	n/a	n/a	green
289.3722	0.5166	FEEDBACK	n/a	n/a	n/a	n/a	n/a	n/a	n/a	n/a
289.8888	1.0167	ITI	n/a	n/a	n/a	n/a	n/a	n/a	n/a	n/a
290.9055	0.5167	FIXCROSS	n/a	n/a	n/a	n/a	n/a	n/a	n/a	n/a
291.4222	0.7833	T_COLOR_NAME	9	Incongruent	zielony	green	niebieski	blue	hit	n/a
292.1855	n/a	RESPONSE	n/a	n/a	n/a	n/a	n/a	n/a	n/a	green
292.2055	0.5167	FEEDBACK	n/a	n/a	n/a	n/a	n/a	n/a	n/a	n/a
292.7222	1.0167	ITI	n/a	n/a	n/a	n/a	n/a	n/a	n/a	n/a
293.7389	0.5167	FIXCROSS	n/a	n/a	n/a	n/a	n/a	n/a	n/a	n/a
294.2555	0.5667	T_COLOR_NAME	10	Neutral	zielony	green	Neutral	Neutral	hit	n/a
294.7875	n/a	RESPONSE	n/a	n/a	n/a	n/a	n/a	n/a	n/a	green
294.8222	0.5167	FEEDBACK	n/a	n/a	n/a	n/a	n/a	n/a	n/a	n/a
295.3389	1.0167	ITI	n/a	n/a	n/a	n/a	n/a	n/a	n/a	n/a
296.3556	0.5167	FIXCROSS	n/a	n/a	n/a	n/a	n/a	n/a	n/a	n/a
296.8722	0.8833	T_COLOR_NAME	11	Neutral	zielony	green	Neutral	Neutral	hit	n/a
297.7247	n/a	RESPONSE	n/a	n/a	n/a	n/a	n/a	n/a	n/a	green
297.7556	0.5167	FEEDBACK	n/a	n/a	n/a	n/a	n/a	n/a	n/a	n/a
298.2722	1.0167	ITI	n/a	n/a	n/a	n/a	n/a	n/a	n/a	n/a
299.2889	0.5167	FIXCROSS	n/a	n/a	n/a	n/a	n/a	n/a	n/a	n/a
299.8056	1.2166	T_COLOR_NAME	12	Incongruent	niebieski	blue	żółty	yellow	hit	n/a
300.997	n/a	RESPONSE	n/a	n/a	n/a	n/a	n/a	n/a	n/a	blue
301.0222	0.5167	FEEDBACK	n/a	n/a	n/a	n/a	n/a	n/a	n/a	n/a
301.5389	1.0333	ITI	n/a	n/a	n/a	n/a	n/a	n/a	n/a	n/a
306.4722	n/a	RESPONSE	n/a	n/a	n/a	n/a	n/a	n/a	n/a	n/a
306.539	1.0166	ITI	n/a	n/a	n/a	n/a	n/a	n/a	n/a	n/a
307.5556	0.5167	FIXCROSS	n/a	n/a	n/a	n/a	n/a	n/a	n/a	n/a
308.0723	1.4667	COLOR_NAME	1	Incongruent	czerwony	red	zielony	green	hit	n/a
309.5211	n/a	RESPONSE	n/a	n/a	n/a	n/a	n/a	n/a	n/a	red
309.539	1.0167	ITI	n/a	n/a	n/a	n/a	n/a	n/a	n/a	n/a
310.5557	0.5167	FIXCROSS	n/a	n/a	n/a	n/a	n/a	n/a	n/a	n/a
311.0723	0.7833	COLOR_NAME	2	Neutral	żółty	yellow	Neutral	Neutral	hit	n/a
311.8358	n/a	RESPONSE	n/a	n/a	n/a	n/a	n/a	n/a	n/a	yellow
311.8557	1.0167	ITI	n/a	n/a	n/a	n/a	n/a	n/a	n/a	n/a
312.8723	0.5166	FIXCROSS	n/a	n/a	n/a	n/a	n/a	n/a	n/a	n/a
313.389	0.7667	COLOR_NAME	3	Neutral	żółty	yellow	Neutral	Neutral	hit	n/a
314.1345	n/a	RESPONSE	n/a	n/a	n/a	n/a	n/a	n/a	n/a	yellow
314.1557	1.0167	ITI	n/a	n/a	n/a	n/a	n/a	n/a	n/a	n/a
315.1724	0.5167	FIXCROSS	n/a	n/a	n/a	n/a	n/a	n/a	n/a	n/a
315.689	0.65	COLOR_NAME	4	Incongruent	żółty	yellow	zielony	green	hit	n/a
316.3214	n/a	RESPONSE	n/a	n/a	n/a	n/a	n/a	n/a	n/a	yellow
316.339	1.0167	ITI	n/a	n/a	n/a	n/a	n/a	n/a	n/a	n/a
317.3557	0.5167	FIXCROSS	n/a	n/a	n/a	n/a	n/a	n/a	n/a	n/a
317.8724	0.6	COLOR_NAME	5	Incongruent	żółty	yellow	czerwony	red	hit	n/a
318.4444	n/a	RESPONSE	n/a	n/a	n/a	n/a	n/a	n/a	n/a	yellow
318.4724	1.0166	ITI	n/a	n/a	n/a	n/a	n/a	n/a	n/a	n/a
319.489	0.5167	FIXCROSS	n/a	n/a	n/a	n/a	n/a	n/a	n/a	n/a
320.0057	0.95	COLOR_NAME	6	Neutral	niebieski	blue	Neutral	Neutral	hit	n/a
320.9345	n/a	RESPONSE	n/a	n/a	n/a	n/a	n/a	n/a	n/a	blue
320.9557	1.0167	ITI	n/a	n/a	n/a	n/a	n/a	n/a	n/a	n/a
321.9724	0.5166	FIXCROSS	n/a	n/a	n/a	n/a	n/a	n/a	n/a	n/a
322.4891	1.2167	COLOR_NAME	7	Neutral	zielony	green	Neutral	Neutral	hit	n/a
323.6801	n/a	RESPONSE	n/a	n/a	n/a	n/a	n/a	n/a	n/a	green
323.7057	1.0167	ITI	n/a	n/a	n/a	n/a	n/a	n/a	n/a	n/a
324.7224	0.5166	FIXCROSS	n/a	n/a	n/a	n/a	n/a	n/a	n/a	n/a
325.2391	0.6834	COLOR_NAME	8	Neutral	zielony	green	Neutral	Neutral	hit	n/a
325.899	n/a	RESPONSE	n/a	n/a	n/a	n/a	n/a	n/a	n/a	green
325.9224	1.0167	ITI	n/a	n/a	n/a	n/a	n/a	n/a	n/a	n/a
326.9391	0.5167	FIXCROSS	n/a	n/a	n/a	n/a	n/a	n/a	n/a	n/a
327.4558	0.95	COLOR_NAME	9	Neutral	czerwony	red	Neutral	Neutral	hit	n/a
328.3732	n/a	RESPONSE	n/a	n/a	n/a	n/a	n/a	n/a	n/a	red
328.4058	1.0167	ITI	n/a	n/a	n/a	n/a	n/a	n/a	n/a	n/a
329.4225	0.5167	FIXCROSS	n/a	n/a	n/a	n/a	n/a	n/a	n/a	n/a
329.9391	1.1333	COLOR_NAME	10	Incongruent	zielony	green	czerwony	red	hit	n/a
331.0389	n/a	RESPONSE	n/a	n/a	n/a	n/a	n/a	n/a	n/a	green
331.0725	1.0167	ITI	n/a	n/a	n/a	n/a	n/a	n/a	n/a	n/a
332.0892	0.5166	FIXCROSS	n/a	n/a	n/a	n/a	n/a	n/a	n/a	n/a
332.6058	0.9667	COLOR_NAME	11	Neutral	żółty	yellow	Neutral	Neutral	hit	n/a
333.545	n/a	RESPONSE	n/a	n/a	n/a	n/a	n/a	n/a	n/a	yellow
333.5725	1.0167	ITI	n/a	n/a	n/a	n/a	n/a	n/a	n/a	n/a
334.5892	0.5166	FIXCROSS	n/a	n/a	n/a	n/a	n/a	n/a	n/a	n/a
335.1058	0.6833	COLOR_NAME	12	Neutral	czerwony	red	Neutral	Neutral	hit	n/a
335.7639	n/a	RESPONSE	n/a	n/a	n/a	n/a	n/a	n/a	n/a	red
335.7892	1.0167	ITI	n/a	n/a	n/a	n/a	n/a	n/a	n/a	n/a
336.8058	0.5167	FIXCROSS	n/a	n/a	n/a	n/a	n/a	n/a	n/a	n/a
337.3225	0.5	COLOR_NAME	13	Neutral	czerwony	red	Neutral	Neutral	hit	n/a
337.7912	n/a	RESPONSE	n/a	n/a	n/a	n/a	n/a	n/a	n/a	red
337.8225	1.0167	ITI	n/a	n/a	n/a	n/a	n/a	n/a	n/a	n/a
338.8392	0.5167	FIXCROSS	n/a	n/a	n/a	n/a	n/a	n/a	n/a	n/a
339.3559	1.2167	COLOR_NAME	14	Incongruent	żółty	yellow	czerwony	red	hit	n/a
340.5527	n/a	RESPONSE	n/a	n/a	n/a	n/a	n/a	n/a	n/a	yellow
340.5726	1.0167	ITI	n/a	n/a	n/a	n/a	n/a	n/a	n/a	n/a
341.5892	0.5167	FIXCROSS	n/a	n/a	n/a	n/a	n/a	n/a	n/a	n/a
342.1059	0.65	COLOR_NAME	15	Neutral	żółty	yellow	Neutral	Neutral	hit	n/a
342.7237	n/a	RESPONSE	n/a	n/a	n/a	n/a	n/a	n/a	n/a	yellow
342.7559	1.0167	ITI	n/a	n/a	n/a	n/a	n/a	n/a	n/a	n/a
343.7726	0.5167	FIXCROSS	n/a	n/a	n/a	n/a	n/a	n/a	n/a	n/a
344.2893	1.1167	COLOR_NAME	16	Incongruent	zielony	green	żółty	yellow	hit	n/a
345.3735	n/a	RESPONSE	n/a	n/a	n/a	n/a	n/a	n/a	n/a	green
345.4059	1.0167	ITI	n/a	n/a	n/a	n/a	n/a	n/a	n/a	n/a
346.4226	0.5166	FIXCROSS	n/a	n/a	n/a	n/a	n/a	n/a	n/a	n/a
346.9392	0.9167	COLOR_NAME	17	Neutral	niebieski	blue	Neutral	Neutral	hit	n/a
347.8318	n/a	RESPONSE	n/a	n/a	n/a	n/a	n/a	n/a	n/a	blue
347.856	1.0166	ITI	n/a	n/a	n/a	n/a	n/a	n/a	n/a	n/a
348.8726	0.5167	FIXCROSS	n/a	n/a	n/a	n/a	n/a	n/a	n/a	n/a
349.3893	0.8334	COLOR_NAME	18	Incongruent	czerwony	red	zielony	green	hit	n/a
350.1943	n/a	RESPONSE	n/a	n/a	n/a	n/a	n/a	n/a	n/a	red
350.2226	1.0167	ITI	n/a	n/a	n/a	n/a	n/a	n/a	n/a	n/a
351.2393	0.5167	FIXCROSS	n/a	n/a	n/a	n/a	n/a	n/a	n/a	n/a
351.756	1.0667	COLOR_NAME	19	Neutral	zielony	green	Neutral	Neutral	incorrect	n/a
352.7963	n/a	RESPONSE	n/a	n/a	n/a	n/a	n/a	n/a	n/a	blue
352.8227	1.0167	ITI	n/a	n/a	n/a	n/a	n/a	n/a	n/a	n/a
353.8393	0.5167	FIXCROSS	n/a	n/a	n/a	n/a	n/a	n/a	n/a	n/a
354.356	1.05	COLOR_NAME	20	Neutral	zielony	green	Neutral	Neutral	hit	n/a
355.3823	n/a	RESPONSE	n/a	n/a	n/a	n/a	n/a	n/a	n/a	green
355.406	1.0166	ITI	n/a	n/a	n/a	n/a	n/a	n/a	n/a	n/a
356.4226	0.5167	FIXCROSS	n/a	n/a	n/a	n/a	n/a	n/a	n/a	n/a
356.9393	0.8667	COLOR_NAME	21	Neutral	żółty	yellow	Neutral	Neutral	hit	n/a
357.7768	n/a	RESPONSE	n/a	n/a	n/a	n/a	n/a	n/a	n/a	yellow
357.806	1.0167	ITI	n/a	n/a	n/a	n/a	n/a	n/a	n/a	n/a
358.8227	0.5167	FIXCROSS	n/a	n/a	n/a	n/a	n/a	n/a	n/a	n/a
359.3394	1.1667	COLOR_NAME	22	Incongruent	czerwony	red	zielony	green	hit	n/a
360.4745	n/a	RESPONSE	n/a	n/a	n/a	n/a	n/a	n/a	n/a	red
360.506	1.0166	ITI	n/a	n/a	n/a	n/a	n/a	n/a	n/a	n/a
361.5227	0.5167	FIXCROSS	n/a	n/a	n/a	n/a	n/a	n/a	n/a	n/a
362.0394	0.75	COLOR_NAME	23	Neutral	czerwony	red	Neutral	Neutral	hit	n/a
362.7571	n/a	RESPONSE	n/a	n/a	n/a	n/a	n/a	n/a	n/a	red
362.7894	1.0167	ITI	n/a	n/a	n/a	n/a	n/a	n/a	n/a	n/a
363.8061	0.5167	FIXCROSS	n/a	n/a	n/a	n/a	n/a	n/a	n/a	n/a
364.3227	1.0167	COLOR_NAME	24	Neutral	żółty	yellow	Neutral	Neutral	hit	n/a
365.3101	n/a	RESPONSE	n/a	n/a	n/a	n/a	n/a	n/a	n/a	yellow
365.3394	1.0167	ITI	n/a	n/a	n/a	n/a	n/a	n/a	n/a	n/a
366.3561	0.5167	FIXCROSS	n/a	n/a	n/a	n/a	n/a	n/a	n/a	n/a
366.8728	1.55	COLOR_NAME	25	Incongruent	czerwony	red	niebieski	blue	hit	n/a
368.392	n/a	RESPONSE	n/a	n/a	n/a	n/a	n/a	n/a	n/a	red
368.4228	1.0166	ITI	n/a	n/a	n/a	n/a	n/a	n/a	n/a	n/a
369.4394	0.5167	FIXCROSS	n/a	n/a	n/a	n/a	n/a	n/a	n/a	n/a
369.9561	0.85	COLOR_NAME	26	Neutral	czerwony	red	Neutral	Neutral	hit	n/a
370.7864	n/a	RESPONSE	n/a	n/a	n/a	n/a	n/a	n/a	n/a	red
370.8061	1.0167	ITI	n/a	n/a	n/a	n/a	n/a	n/a	n/a	n/a
371.8228	0.5167	FIXCROSS	n/a	n/a	n/a	n/a	n/a	n/a	n/a	n/a
372.3395	1.1167	COLOR_NAME	27	Neutral	zielony	green	Neutral	Neutral	hit	n/a
373.4362	n/a	RESPONSE	n/a	n/a	n/a	n/a	n/a	n/a	n/a	green
373.4561	1.0167	ITI	n/a	n/a	n/a	n/a	n/a	n/a	n/a	n/a
374.4728	0.5167	FIXCROSS	n/a	n/a	n/a	n/a	n/a	n/a	n/a	n/a
374.9895	0.4833	COLOR_NAME	28	Incongruent	zielony	green	niebieski	blue	hit	n/a
375.4476	n/a	RESPONSE	n/a	n/a	n/a	n/a	n/a	n/a	n/a	green
375.4728	1.0167	ITI	n/a	n/a	n/a	n/a	n/a	n/a	n/a	n/a
376.4895	0.5167	FIXCROSS	n/a	n/a	n/a	n/a	n/a	n/a	n/a	n/a
377.0062	0.6167	COLOR_NAME	29	Incongruent	zielony	green	czerwony	red	hit	n/a
377.6025	n/a	RESPONSE	n/a	n/a	n/a	n/a	n/a	n/a	n/a	green
377.6228	1.0167	ITI	n/a	n/a	n/a	n/a	n/a	n/a	n/a	n/a
378.6395	0.5166	FIXCROSS	n/a	n/a	n/a	n/a	n/a	n/a	n/a	n/a
379.1562	1.5167	COLOR_NAME	30	Incongruent	czerwony	red	żółty	yellow	hit	n/a
380.6514	n/a	RESPONSE	n/a	n/a	n/a	n/a	n/a	n/a	n/a	red
380.6729	1.0166	ITI	n/a	n/a	n/a	n/a	n/a	n/a	n/a	n/a
381.6895	0.5167	FIXCROSS	n/a	n/a	n/a	n/a	n/a	n/a	n/a	n/a
382.2062	1.1333	COLOR_NAME	31	Incongruent	żółty	yellow	zielony	green	hit	n/a
383.3172	n/a	RESPONSE	n/a	n/a	n/a	n/a	n/a	n/a	n/a	yellow
383.3396	1.0167	ITI	n/a	n/a	n/a	n/a	n/a	n/a	n/a	n/a
384.3562	0.5167	FIXCROSS	n/a	n/a	n/a	n/a	n/a	n/a	n/a	n/a
384.8729	1.2166	COLOR_NAME	32	Neutral	niebieski	blue	Neutral	Neutral	hit	n/a
386.0628	n/a	RESPONSE	n/a	n/a	n/a	n/a	n/a	n/a	n/a	blue
386.0895	1.0167	ITI	n/a	n/a	n/a	n/a	n/a	n/a	n/a	n/a
387.1063	0.5167	FIXCROSS	n/a	n/a	n/a	n/a	n/a	n/a	n/a	n/a
387.6229	1.2667	COLOR_NAME	33	Incongruent	czerwony	red	żółty	yellow	hit	n/a
388.8723	n/a	RESPONSE	n/a	n/a	n/a	n/a	n/a	n/a	n/a	red
388.8896	1.0167	ITI	n/a	n/a	n/a	n/a	n/a	n/a	n/a	n/a
389.9063	0.5166	FIXCROSS	n/a	n/a	n/a	n/a	n/a	n/a	n/a	n/a
390.4229	1.0167	COLOR_NAME	34	Incongruent	niebieski	blue	czerwony	red	hit	n/a
391.4104	n/a	RESPONSE	n/a	n/a	n/a	n/a	n/a	n/a	n/a	blue
391.4396	1.0167	ITI	n/a	n/a	n/a	n/a	n/a	n/a	n/a	n/a
392.4563	0.5167	FIXCROSS	n/a	n/a	n/a	n/a	n/a	n/a	n/a	n/a
392.973	1.25	COLOR_NAME	35	Incongruent	niebieski	blue	zielony	green	hit	n/a
394.2038	n/a	RESPONSE	n/a	n/a	n/a	n/a	n/a	n/a	n/a	blue
394.223	1.0167	ITI	n/a	n/a	n/a	n/a	n/a	n/a	n/a	n/a
395.2397	0.5167	FIXCROSS	n/a	n/a	n/a	n/a	n/a	n/a	n/a	n/a
395.7563	0.95	COLOR_NAME	36	Neutral	czerwony	red	Neutral	Neutral	hit	n/a
396.6781	n/a	RESPONSE	n/a	n/a	n/a	n/a	n/a	n/a	n/a	red
396.7063	1.0167	ITI	n/a	n/a	n/a	n/a	n/a	n/a	n/a	n/a
397.723	0.5167	FIXCROSS	n/a	n/a	n/a	n/a	n/a	n/a	n/a	n/a
398.2397	0.6833	COLOR_NAME	37	Neutral	niebieski	blue	Neutral	Neutral	hit	n/a
398.8969	n/a	RESPONSE	n/a	n/a	n/a	n/a	n/a	n/a	n/a	blue
398.923	1.0167	ITI	n/a	n/a	n/a	n/a	n/a	n/a	n/a	n/a
399.9397	0.5167	FIXCROSS	n/a	n/a	n/a	n/a	n/a	n/a	n/a	n/a
400.4564	0.6167	COLOR_NAME	38	Neutral	niebieski	blue	Neutral	Neutral	hit	n/a
401.0519	n/a	RESPONSE	n/a	n/a	n/a	n/a	n/a	n/a	n/a	blue
401.073	1.0167	ITI	n/a	n/a	n/a	n/a	n/a	n/a	n/a	n/a
402.0897	0.5167	FIXCROSS	n/a	n/a	n/a	n/a	n/a	n/a	n/a	n/a
402.6064	0.7167	COLOR_NAME	39	Incongruent	czerwony	red	żółty	yellow	hit	n/a
403.3026	n/a	RESPONSE	n/a	n/a	n/a	n/a	n/a	n/a	n/a	red
403.3231	1.0167	ITI	n/a	n/a	n/a	n/a	n/a	n/a	n/a	n/a
404.3397	0.5167	FIXCROSS	n/a	n/a	n/a	n/a	n/a	n/a	n/a	n/a
404.8564	0.6333	COLOR_NAME	40	Neutral	czerwony	red	Neutral	Neutral	hit	n/a
405.4576	n/a	RESPONSE	n/a	n/a	n/a	n/a	n/a	n/a	n/a	red
405.4897	1.0167	ITI	n/a	n/a	n/a	n/a	n/a	n/a	n/a	n/a
406.5064	0.5167	FIXCROSS	n/a	n/a	n/a	n/a	n/a	n/a	n/a	n/a
407.0231	0.95	COLOR_NAME	41	Neutral	niebieski	blue	Neutral	Neutral	hit	n/a
407.9477	n/a	RESPONSE	n/a	n/a	n/a	n/a	n/a	n/a	n/a	blue
407.9731	1.0167	ITI	n/a	n/a	n/a	n/a	n/a	n/a	n/a	n/a
408.9898	0.5166	FIXCROSS	n/a	n/a	n/a	n/a	n/a	n/a	n/a	n/a
409.5064	0.95	COLOR_NAME	42	Neutral	czerwony	red	Neutral	Neutral	hit	n/a
410.4221	n/a	RESPONSE	n/a	n/a	n/a	n/a	n/a	n/a	n/a	red
410.4564	1.0167	ITI	n/a	n/a	n/a	n/a	n/a	n/a	n/a	n/a
411.4731	0.5167	FIXCROSS	n/a	n/a	n/a	n/a	n/a	n/a	n/a	n/a
411.9898	1.0333	COLOR_NAME	43	Neutral	zielony	green	Neutral	Neutral	incorrect	n/a
412.992	n/a	RESPONSE	n/a	n/a	n/a	n/a	n/a	n/a	n/a	yellow
413.0231	1.0167	ITI	n/a	n/a	n/a	n/a	n/a	n/a	n/a	n/a
414.0398	0.5167	FIXCROSS	n/a	n/a	n/a	n/a	n/a	n/a	n/a	n/a
414.5565	1.2167	COLOR_NAME	44	Neutral	niebieski	blue	Neutral	Neutral	hit	n/a
415.7536	n/a	RESPONSE	n/a	n/a	n/a	n/a	n/a	n/a	n/a	blue
415.7731	1.0167	ITI	n/a	n/a	n/a	n/a	n/a	n/a	n/a	n/a
416.7898	0.5167	FIXCROSS	n/a	n/a	n/a	n/a	n/a	n/a	n/a	n/a
417.3065	1.0667	COLOR_NAME	45	Incongruent	żółty	yellow	zielony	green	hit	n/a
418.3396	n/a	RESPONSE	n/a	n/a	n/a	n/a	n/a	n/a	n/a	yellow
418.3732	1.0167	ITI	n/a	n/a	n/a	n/a	n/a	n/a	n/a	n/a
419.3898	0.5167	FIXCROSS	n/a	n/a	n/a	n/a	n/a	n/a	n/a	n/a
419.9065	1.5	COLOR_NAME	46	Incongruent	żółty	yellow	niebieski	blue	hit	n/a
421.3725	n/a	RESPONSE	n/a	n/a	n/a	n/a	n/a	n/a	n/a	yellow
421.4065	1.0167	ITI	n/a	n/a	n/a	n/a	n/a	n/a	n/a	n/a
422.4232	0.5167	FIXCROSS	n/a	n/a	n/a	n/a	n/a	n/a	n/a	n/a
422.9399	0.95	COLOR_NAME	47	Incongruent	zielony	green	niebieski	blue	hit	n/a
423.8628	n/a	RESPONSE	n/a	n/a	n/a	n/a	n/a	n/a	n/a	green
423.8899	1.0167	ITI	n/a	n/a	n/a	n/a	n/a	n/a	n/a	n/a
424.9066	0.5167	FIXCROSS	n/a	n/a	n/a	n/a	n/a	n/a	n/a	n/a
425.4232	1.3166	COLOR_NAME	48	Incongruent	niebieski	blue	zielony	green	hit	n/a
426.7201	n/a	RESPONSE	n/a	n/a	n/a	n/a	n/a	n/a	n/a	blue
426.7399	1.0167	ITI	n/a	n/a	n/a	n/a	n/a	n/a	n/a	n/a
427.7565	0.5167	FIXCROSS	n/a	n/a	n/a	n/a	n/a	n/a	n/a	n/a
428.2733	1.0	COLOR_NAME	49	Incongruent	niebieski	blue	czerwony	red	hit	n/a
429.2422	n/a	RESPONSE	n/a	n/a	n/a	n/a	n/a	n/a	n/a	blue
429.2733	1.0167	ITI	n/a	n/a	n/a	n/a	n/a	n/a	n/a	n/a
430.2899	0.5167	FIXCROSS	n/a	n/a	n/a	n/a	n/a	n/a	n/a	n/a
430.8066	0.9167	COLOR_NAME	50	Incongruent	niebieski	blue	zielony	green	hit	n/a
431.7004	n/a	RESPONSE	n/a	n/a	n/a	n/a	n/a	n/a	n/a	blue
431.7233	1.0167	ITI	n/a	n/a	n/a	n/a	n/a	n/a	n/a	n/a
432.7399	0.5167	FIXCROSS	n/a	n/a	n/a	n/a	n/a	n/a	n/a	n/a
433.2566	0.9667	COLOR_NAME	51	Incongruent	żółty	yellow	niebieski	blue	hit	n/a
434.1906	n/a	RESPONSE	n/a	n/a	n/a	n/a	n/a	n/a	n/a	yellow
434.2233	1.0167	ITI	n/a	n/a	n/a	n/a	n/a	n/a	n/a	n/a
435.24	0.5167	FIXCROSS	n/a	n/a	n/a	n/a	n/a	n/a	n/a	n/a
435.7566	1.8833	COLOR_NAME	52	Incongruent	niebieski	blue	żółty	yellow	hit	n/a
437.6066	n/a	RESPONSE	n/a	n/a	n/a	n/a	n/a	n/a	n/a	blue
437.64	1.0167	ITI	n/a	n/a	n/a	n/a	n/a	n/a	n/a	n/a
438.6567	0.5167	FIXCROSS	n/a	n/a	n/a	n/a	n/a	n/a	n/a	n/a
439.1733	1.05	COLOR_NAME	53	Neutral	niebieski	blue	Neutral	Neutral	hit	n/a
440.1927	n/a	RESPONSE	n/a	n/a	n/a	n/a	n/a	n/a	n/a	blue
440.2233	1.0167	ITI	n/a	n/a	n/a	n/a	n/a	n/a	n/a	n/a
441.24	0.5167	FIXCROSS	n/a	n/a	n/a	n/a	n/a	n/a	n/a	n/a
441.7567	1.1833	COLOR_NAME	54	Neutral	niebieski	blue	Neutral	Neutral	hit	n/a
442.9063	n/a	RESPONSE	n/a	n/a	n/a	n/a	n/a	n/a	n/a	blue
442.94	1.0166	ITI	n/a	n/a	n/a	n/a	n/a	n/a	n/a	n/a
443.9567	0.5167	FIXCROSS	n/a	n/a	n/a	n/a	n/a	n/a	n/a	n/a
444.4734	0.55	COLOR_NAME	55	Incongruent	niebieski	blue	żółty	yellow	hit	n/a
444.9974	n/a	RESPONSE	n/a	n/a	n/a	n/a	n/a	n/a	n/a	blue
445.0233	1.0167	ITI	n/a	n/a	n/a	n/a	n/a	n/a	n/a	n/a
446.04	0.5167	FIXCROSS	n/a	n/a	n/a	n/a	n/a	n/a	n/a	n/a
446.5567	1.4833	COLOR_NAME	56	Neutral	czerwony	red	Neutral	Neutral	hit	n/a
448.0143	n/a	RESPONSE	n/a	n/a	n/a	n/a	n/a	n/a	n/a	red
448.0401	1.0166	ITI	n/a	n/a	n/a	n/a	n/a	n/a	n/a	n/a
449.0567	0.5167	FIXCROSS	n/a	n/a	n/a	n/a	n/a	n/a	n/a	n/a
449.5734	0.8667	COLOR_NAME	57	Neutral	żółty	yellow	Neutral	Neutral	hit	n/a
450.409	n/a	RESPONSE	n/a	n/a	n/a	n/a	n/a	n/a	n/a	yellow
450.4401	1.0167	ITI	n/a	n/a	n/a	n/a	n/a	n/a	n/a	n/a
451.4568	0.5167	FIXCROSS	n/a	n/a	n/a	n/a	n/a	n/a	n/a	n/a
451.9734	1.1	COLOR_NAME	58	Incongruent	niebieski	blue	żółty	yellow	hit	n/a
453.0428	n/a	RESPONSE	n/a	n/a	n/a	n/a	n/a	n/a	n/a	blue
453.0734	1.0167	ITI	n/a	n/a	n/a	n/a	n/a	n/a	n/a	n/a
454.0901	0.5167	FIXCROSS	n/a	n/a	n/a	n/a	n/a	n/a	n/a	n/a
454.6068	1.55	COLOR_NAME	59	Neutral	żółty	yellow	Neutral	Neutral	hit	n/a
456.1236	n/a	RESPONSE	n/a	n/a	n/a	n/a	n/a	n/a	n/a	yellow
456.1568	1.0167	ITI	n/a	n/a	n/a	n/a	n/a	n/a	n/a	n/a
457.1735	0.5166	FIXCROSS	n/a	n/a	n/a	n/a	n/a	n/a	n/a	n/a
457.6901	1.1334	COLOR_NAME	60	Incongruent	zielony	green	czerwony	red	hit	n/a
458.8054	n/a	RESPONSE	n/a	n/a	n/a	n/a	n/a	n/a	n/a	green
458.8235	1.0167	ITI	n/a	n/a	n/a	n/a	n/a	n/a	n/a	n/a
459.8402	0.5167	FIXCROSS	n/a	n/a	n/a	n/a	n/a	n/a	n/a	n/a
460.3568	0.7667	COLOR_NAME	61	Incongruent	żółty	yellow	niebieski	blue	hit	n/a
461.104	n/a	RESPONSE	n/a	n/a	n/a	n/a	n/a	n/a	n/a	yellow
461.1235	1.0166	ITI	n/a	n/a	n/a	n/a	n/a	n/a	n/a	n/a
462.1401	0.5167	FIXCROSS	n/a	n/a	n/a	n/a	n/a	n/a	n/a	n/a
462.6568	1.25	COLOR_NAME	62	Neutral	zielony	green	Neutral	Neutral	hit	n/a
463.8816	n/a	RESPONSE	n/a	n/a	n/a	n/a	n/a	n/a	n/a	green
463.9069	1.0167	ITI	n/a	n/a	n/a	n/a	n/a	n/a	n/a	n/a
464.9235	0.5167	FIXCROSS	n/a	n/a	n/a	n/a	n/a	n/a	n/a	n/a
465.4402	1.1167	COLOR_NAME	63	Neutral	żółty	yellow	Neutral	Neutral	hit	n/a
466.5314	n/a	RESPONSE	n/a	n/a	n/a	n/a	n/a	n/a	n/a	yellow
466.5569	1.0167	ITI	n/a	n/a	n/a	n/a	n/a	n/a	n/a	n/a
467.5736	0.5167	FIXCROSS	n/a	n/a	n/a	n/a	n/a	n/a	n/a	n/a
468.0902	1.45	COLOR_NAME	64	Incongruent	czerwony	red	niebieski	blue	hit	n/a
469.5164	n/a	RESPONSE	n/a	n/a	n/a	n/a	n/a	n/a	n/a	red
469.5402	1.0167	ITI	n/a	n/a	n/a	n/a	n/a	n/a	n/a	n/a
470.5569	0.5167	FIXCROSS	n/a	n/a	n/a	n/a	n/a	n/a	n/a	n/a
471.0736	0.9833	COLOR_NAME	65	Neutral	zielony	green	Neutral	Neutral	hit	n/a
472.0385	n/a	RESPONSE	n/a	n/a	n/a	n/a	n/a	n/a	n/a	green
472.0569	1.0167	ITI	n/a	n/a	n/a	n/a	n/a	n/a	n/a	n/a
473.0736	0.5166	FIXCROSS	n/a	n/a	n/a	n/a	n/a	n/a	n/a	n/a
473.5902	0.5167	COLOR_NAME	66	Neutral	zielony	green	Neutral	Neutral	hit	n/a
474.0818	n/a	RESPONSE	n/a	n/a	n/a	n/a	n/a	n/a	n/a	green
474.1069	1.0167	ITI	n/a	n/a	n/a	n/a	n/a	n/a	n/a	n/a
475.1236	0.5167	FIXCROSS	n/a	n/a	n/a	n/a	n/a	n/a	n/a	n/a
475.6403	0.7167	COLOR_NAME	67	Incongruent	zielony	green	żółty	yellow	hit	n/a
476.3326	n/a	RESPONSE	n/a	n/a	n/a	n/a	n/a	n/a	n/a	green
476.357	1.0167	ITI	n/a	n/a	n/a	n/a	n/a	n/a	n/a	n/a
477.3736	0.5167	FIXCROSS	n/a	n/a	n/a	n/a	n/a	n/a	n/a	n/a
477.8903	0.9333	COLOR_NAME	68	Incongruent	żółty	yellow	czerwony	red	hit	n/a
478.7908	n/a	RESPONSE	n/a	n/a	n/a	n/a	n/a	n/a	n/a	yellow
478.8236	1.0167	ITI	n/a	n/a	n/a	n/a	n/a	n/a	n/a	n/a
479.8403	0.5167	FIXCROSS	n/a	n/a	n/a	n/a	n/a	n/a	n/a	n/a
480.357	1.5666	COLOR_NAME	69	Incongruent	zielony	green	żółty	yellow	hit	n/a
481.9036	n/a	RESPONSE	n/a	n/a	n/a	n/a	n/a	n/a	n/a	green
481.9236	1.0167	ITI	n/a	n/a	n/a	n/a	n/a	n/a	n/a	n/a
482.9403	0.5167	FIXCROSS	n/a	n/a	n/a	n/a	n/a	n/a	n/a	n/a
483.457	1.1	COLOR_NAME	70	Incongruent	zielony	green	niebieski	blue	hit	n/a
484.5375	n/a	RESPONSE	n/a	n/a	n/a	n/a	n/a	n/a	n/a	green
484.557	1.0167	ITI	n/a	n/a	n/a	n/a	n/a	n/a	n/a	n/a
485.5737	0.5167	FIXCROSS	n/a	n/a	n/a	n/a	n/a	n/a	n/a	n/a
486.0904	0.8833	COLOR_NAME	71	Incongruent	niebieski	blue	czerwony	red	hit	n/a
486.9478	n/a	RESPONSE	n/a	n/a	n/a	n/a	n/a	n/a	n/a	blue
486.9737	1.0167	ITI	n/a	n/a	n/a	n/a	n/a	n/a	n/a	n/a
487.9904	0.5166	FIXCROSS	n/a	n/a	n/a	n/a	n/a	n/a	n/a	n/a
488.507	0.8667	COLOR_NAME	72	Incongruent	czerwony	red	niebieski	blue	hit	n/a
489.3423	n/a	RESPONSE	n/a	n/a	n/a	n/a	n/a	n/a	n/a	red
489.3737	1.0333	ITI	n/a	n/a	n/a	n/a	n/a	n/a	n/a	n/a
493.7001	n/a	RESPONSE	n/a	n/a	n/a	n/a	n/a	n/a	n/a	n/a
