onset	duration	trial_type	trial_number	stroop_condition	stim_text(PL)	stim_text(eng)	stim_color(PL)	stim_color(eng)	response_type	response_color
0.0	n/a	RESPONSE	n/a	n/a	n/a	n/a	n/a	n/a	n/a	n/a
0.0542	1.0333	ITI	n/a	n/a	n/a	n/a	n/a	n/a	n/a	n/a
1.0876	0.5167	FIXCROSS	n/a	n/a	n/a	n/a	n/a	n/a	n/a	n/a
1.6042	1.1833	T_INK	1	Neutral	xxxxx	xxxxx	zielony	green	hit	n/a
2.7514	n/a	RESPONSE	n/a	n/a	n/a	n/a	n/a	n/a	n/a	green
2.7876	0.5167	FEEDBACK	n/a	n/a	n/a	n/a	n/a	n/a	n/a	n/a
3.3042	1.0167	ITI	n/a	n/a	n/a	n/a	n/a	n/a	n/a	n/a
4.3209	0.5167	FIXCROSS	n/a	n/a	n/a	n/a	n/a	n/a	n/a	n/a
4.8376	1.6	T_INK	2	Incongruent	żółty	yellow	niebieski	blue	hit	n/a
6.4146	n/a	RESPONSE	n/a	n/a	n/a	n/a	n/a	n/a	n/a	blue
6.4376	0.5167	FEEDBACK	n/a	n/a	n/a	n/a	n/a	n/a	n/a	n/a
6.9543	1.0167	ITI	n/a	n/a	n/a	n/a	n/a	n/a	n/a	n/a
7.9709	0.5167	FIXCROSS	n/a	n/a	n/a	n/a	n/a	n/a	n/a	n/a
8.4876	1.1333	T_INK	3	Incongruent	czerwony	red	niebieski	blue	hit	n/a
9.5979	n/a	RESPONSE	n/a	n/a	n/a	n/a	n/a	n/a	n/a	blue
9.621	0.5167	FEEDBACK	n/a	n/a	n/a	n/a	n/a	n/a	n/a	n/a
10.1376	1.0167	ITI	n/a	n/a	n/a	n/a	n/a	n/a	n/a	n/a
11.1543	0.5167	FIXCROSS	n/a	n/a	n/a	n/a	n/a	n/a	n/a	n/a
11.671	1.05	T_INK	4	Neutral	xxxxx	xxxxx	czerwony	red	hit	n/a
12.6853	n/a	RESPONSE	n/a	n/a	n/a	n/a	n/a	n/a	n/a	red
12.721	0.5167	FEEDBACK	n/a	n/a	n/a	n/a	n/a	n/a	n/a	n/a
13.2377	1.0167	ITI	n/a	n/a	n/a	n/a	n/a	n/a	n/a	n/a
14.2543	0.5167	FIXCROSS	n/a	n/a	n/a	n/a	n/a	n/a	n/a	n/a
14.771	0.5833	T_INK	5	Neutral	xxxxxxxx	xxxxxxxx	żółty	yellow	hit	n/a
15.3248	n/a	RESPONSE	n/a	n/a	n/a	n/a	n/a	n/a	n/a	yellow
15.3543	0.5167	FEEDBACK	n/a	n/a	n/a	n/a	n/a	n/a	n/a	n/a
15.871	1.0167	ITI	n/a	n/a	n/a	n/a	n/a	n/a	n/a	n/a
16.8877	0.5167	FIXCROSS	n/a	n/a	n/a	n/a	n/a	n/a	n/a	n/a
17.4044	0.6167	T_INK	6	Neutral	xxxxxxx	xxxxxxx	żółty	yellow	hit	n/a
17.9962	n/a	RESPONSE	n/a	n/a	n/a	n/a	n/a	n/a	n/a	yellow
18.021	0.5167	FEEDBACK	n/a	n/a	n/a	n/a	n/a	n/a	n/a	n/a
18.5377	1.0167	ITI	n/a	n/a	n/a	n/a	n/a	n/a	n/a	n/a
19.5544	0.5167	FIXCROSS	n/a	n/a	n/a	n/a	n/a	n/a	n/a	n/a
20.071	0.65	T_INK	7	Neutral	xxxxxxxxx	xxxxxxxxx	żółty	yellow	hit	n/a
20.6996	n/a	RESPONSE	n/a	n/a	n/a	n/a	n/a	n/a	n/a	yellow
20.721	0.5167	FEEDBACK	n/a	n/a	n/a	n/a	n/a	n/a	n/a	n/a
21.2377	1.0167	ITI	n/a	n/a	n/a	n/a	n/a	n/a	n/a	n/a
22.2544	0.5167	FIXCROSS	n/a	n/a	n/a	n/a	n/a	n/a	n/a	n/a
22.771	0.55	T_INK	8	Incongruent	żółty	yellow	zielony	green	hit	n/a
23.2911	n/a	RESPONSE	n/a	n/a	n/a	n/a	n/a	n/a	n/a	green
23.3211	0.5167	FEEDBACK	n/a	n/a	n/a	n/a	n/a	n/a	n/a	n/a
23.8377	1.0167	ITI	n/a	n/a	n/a	n/a	n/a	n/a	n/a	n/a
24.8544	0.5167	FIXCROSS	n/a	n/a	n/a	n/a	n/a	n/a	n/a	n/a
25.3711	0.8	T_INK	9	Incongruent	zielony	green	żółty	yellow	hit	n/a
26.1385	n/a	RESPONSE	n/a	n/a	n/a	n/a	n/a	n/a	n/a	yellow
26.1711	0.5167	FEEDBACK	n/a	n/a	n/a	n/a	n/a	n/a	n/a	n/a
26.2824	n/a	RESPONSE	n/a	n/a	n/a	n/a	n/a	n/a	n/a	yellow
26.6877	1.0167	ITI	n/a	n/a	n/a	n/a	n/a	n/a	n/a	n/a
27.7044	0.5167	FIXCROSS	n/a	n/a	n/a	n/a	n/a	n/a	n/a	n/a
28.2211	0.7	T_INK	10	Neutral	xxxxx	xxxxx	niebieski	blue	hit	n/a
28.8899	n/a	RESPONSE	n/a	n/a	n/a	n/a	n/a	n/a	n/a	blue
28.9211	0.5167	FEEDBACK	n/a	n/a	n/a	n/a	n/a	n/a	n/a	n/a
29.4378	1.0167	ITI	n/a	n/a	n/a	n/a	n/a	n/a	n/a	n/a
30.4544	0.5167	FIXCROSS	n/a	n/a	n/a	n/a	n/a	n/a	n/a	n/a
30.9711	1.1333	T_INK	11	Neutral	xxxxxxxx	xxxxxxxx	zielony	green	hit	n/a
32.0732	n/a	RESPONSE	n/a	n/a	n/a	n/a	n/a	n/a	n/a	green
32.1044	0.5167	FEEDBACK	n/a	n/a	n/a	n/a	n/a	n/a	n/a	n/a
32.6211	1.0167	ITI	n/a	n/a	n/a	n/a	n/a	n/a	n/a	n/a
33.6378	0.5167	FIXCROSS	n/a	n/a	n/a	n/a	n/a	n/a	n/a	n/a
34.1545	0.9	T_INK	12	Incongruent	niebieski	blue	żółty	yellow	hit	n/a
35.0326	n/a	RESPONSE	n/a	n/a	n/a	n/a	n/a	n/a	n/a	yellow
35.0545	0.5167	FEEDBACK	n/a	n/a	n/a	n/a	n/a	n/a	n/a	n/a
35.5711	1.0333	ITI	n/a	n/a	n/a	n/a	n/a	n/a	n/a	n/a
43.8468	n/a	RESPONSE	n/a	n/a	n/a	n/a	n/a	n/a	n/a	n/a
43.9045	1.0167	ITI	n/a	n/a	n/a	n/a	n/a	n/a	n/a	n/a
44.9212	0.5167	FIXCROSS	n/a	n/a	n/a	n/a	n/a	n/a	n/a	n/a
45.4379	1.0	INK	1	Incongruent	zielony	green	czerwony	red	hit	n/a
46.4062	n/a	RESPONSE	n/a	n/a	n/a	n/a	n/a	n/a	n/a	red
46.4379	1.0167	ITI	n/a	n/a	n/a	n/a	n/a	n/a	n/a	n/a
47.4545	0.5167	FIXCROSS	n/a	n/a	n/a	n/a	n/a	n/a	n/a	n/a
47.9712	0.75	INK	2	Neutral	xxxxx	xxxxx	zielony	green	hit	n/a
48.6937	n/a	RESPONSE	n/a	n/a	n/a	n/a	n/a	n/a	n/a	green
48.7212	1.0167	ITI	n/a	n/a	n/a	n/a	n/a	n/a	n/a	n/a
49.7379	0.5167	FIXCROSS	n/a	n/a	n/a	n/a	n/a	n/a	n/a	n/a
50.2546	0.5333	INK	3	Neutral	xxxxxxx	xxxxxxx	żółty	yellow	hit	n/a
50.7573	n/a	RESPONSE	n/a	n/a	n/a	n/a	n/a	n/a	n/a	yellow
50.7879	1.0167	ITI	n/a	n/a	n/a	n/a	n/a	n/a	n/a	n/a
51.8046	0.5167	FIXCROSS	n/a	n/a	n/a	n/a	n/a	n/a	n/a	n/a
52.3212	0.7667	INK	4	Neutral	xxxxxxx	xxxxxxx	czerwony	red	hit	n/a
53.0608	n/a	RESPONSE	n/a	n/a	n/a	n/a	n/a	n/a	n/a	red
53.0879	1.0167	ITI	n/a	n/a	n/a	n/a	n/a	n/a	n/a	n/a
54.1046	0.5167	FIXCROSS	n/a	n/a	n/a	n/a	n/a	n/a	n/a	n/a
54.6213	0.4333	INK	5	Neutral	xxxxx	xxxxx	czerwony	red	hit	n/a
55.0284	n/a	RESPONSE	n/a	n/a	n/a	n/a	n/a	n/a	n/a	red
55.0546	1.0167	ITI	n/a	n/a	n/a	n/a	n/a	n/a	n/a	n/a
56.0713	0.5167	FIXCROSS	n/a	n/a	n/a	n/a	n/a	n/a	n/a	n/a
56.588	1.0833	INK	6	Neutral	xxxxx	xxxxx	zielony	green	hit	n/a
57.6519	n/a	RESPONSE	n/a	n/a	n/a	n/a	n/a	n/a	n/a	green
57.6713	1.0167	ITI	n/a	n/a	n/a	n/a	n/a	n/a	n/a	n/a
58.688	0.5167	FIXCROSS	n/a	n/a	n/a	n/a	n/a	n/a	n/a	n/a
59.2046	0.6333	INK	7	Incongruent	czerwony	red	żółty	yellow	hit	n/a
59.8114	n/a	RESPONSE	n/a	n/a	n/a	n/a	n/a	n/a	n/a	yellow
59.838	1.0167	ITI	n/a	n/a	n/a	n/a	n/a	n/a	n/a	n/a
60.8546	0.5167	FIXCROSS	n/a	n/a	n/a	n/a	n/a	n/a	n/a	n/a
61.3713	0.6	INK	8	Neutral	xxxxxxx	xxxxxxx	czerwony	red	hit	n/a
61.939	n/a	RESPONSE	n/a	n/a	n/a	n/a	n/a	n/a	n/a	red
61.9713	1.0167	ITI	n/a	n/a	n/a	n/a	n/a	n/a	n/a	n/a
62.988	0.5167	FIXCROSS	n/a	n/a	n/a	n/a	n/a	n/a	n/a	n/a
63.5047	0.5167	INK	9	Neutral	xxxxxxxxx	xxxxxxxxx	czerwony	red	hit	n/a
63.9865	n/a	RESPONSE	n/a	n/a	n/a	n/a	n/a	n/a	n/a	red
64.0213	1.0167	ITI	n/a	n/a	n/a	n/a	n/a	n/a	n/a	n/a
65.038	0.5167	FIXCROSS	n/a	n/a	n/a	n/a	n/a	n/a	n/a	n/a
65.5547	0.8	INK	10	Neutral	xxxxx	xxxxx	niebieski	blue	hit	n/a
66.322	n/a	RESPONSE	n/a	n/a	n/a	n/a	n/a	n/a	n/a	blue
66.3547	1.0167	ITI	n/a	n/a	n/a	n/a	n/a	n/a	n/a	n/a
67.3714	0.5167	FIXCROSS	n/a	n/a	n/a	n/a	n/a	n/a	n/a	n/a
67.888	1.2333	INK	11	Incongruent	niebieski	blue	zielony	green	hit	n/a
69.0894	n/a	RESPONSE	n/a	n/a	n/a	n/a	n/a	n/a	n/a	green
69.1214	1.0167	ITI	n/a	n/a	n/a	n/a	n/a	n/a	n/a	n/a
70.138	0.5167	FIXCROSS	n/a	n/a	n/a	n/a	n/a	n/a	n/a	n/a
70.6547	0.5333	INK	12	Neutral	xxxxxxxx	xxxxxxxx	żółty	yellow	hit	n/a
71.169	n/a	RESPONSE	n/a	n/a	n/a	n/a	n/a	n/a	n/a	yellow
71.188	1.0167	ITI	n/a	n/a	n/a	n/a	n/a	n/a	n/a	n/a
72.2047	0.5167	FIXCROSS	n/a	n/a	n/a	n/a	n/a	n/a	n/a	n/a
72.7214	0.6667	INK	13	Incongruent	żółty	yellow	niebieski	blue	hit	n/a
73.3605	n/a	RESPONSE	n/a	n/a	n/a	n/a	n/a	n/a	n/a	blue
73.3881	1.0167	ITI	n/a	n/a	n/a	n/a	n/a	n/a	n/a	n/a
74.4047	0.5167	FIXCROSS	n/a	n/a	n/a	n/a	n/a	n/a	n/a	n/a
74.9214	0.6	INK	14	Neutral	xxxxxxxxx	xxxxxxxxx	żółty	yellow	hit	n/a
75.4881	n/a	RESPONSE	n/a	n/a	n/a	n/a	n/a	n/a	n/a	yellow
75.5214	1.0167	ITI	n/a	n/a	n/a	n/a	n/a	n/a	n/a	n/a
76.5381	0.5167	FIXCROSS	n/a	n/a	n/a	n/a	n/a	n/a	n/a	n/a
77.0547	0.5333	INK	15	Neutral	xxxxx	xxxxx	czerwony	red	hit	n/a
77.5677	n/a	RESPONSE	n/a	n/a	n/a	n/a	n/a	n/a	n/a	red
77.5881	1.0167	ITI	n/a	n/a	n/a	n/a	n/a	n/a	n/a	n/a
78.6048	0.5167	FIXCROSS	n/a	n/a	n/a	n/a	n/a	n/a	n/a	n/a
79.1214	0.5833	INK	16	Incongruent	zielony	green	czerwony	red	hit	n/a
79.6792	n/a	RESPONSE	n/a	n/a	n/a	n/a	n/a	n/a	n/a	red
79.7048	1.0167	ITI	n/a	n/a	n/a	n/a	n/a	n/a	n/a	n/a
80.7214	0.5167	FIXCROSS	n/a	n/a	n/a	n/a	n/a	n/a	n/a	n/a
81.2381	0.5833	INK	17	Neutral	xxxxxxx	xxxxxxx	niebieski	blue	hit	n/a
81.7908	n/a	RESPONSE	n/a	n/a	n/a	n/a	n/a	n/a	n/a	blue
81.8214	1.0167	ITI	n/a	n/a	n/a	n/a	n/a	n/a	n/a	n/a
82.8381	0.5167	FIXCROSS	n/a	n/a	n/a	n/a	n/a	n/a	n/a	n/a
83.3548	0.8167	INK	18	Incongruent	żółty	yellow	zielony	green	hit	n/a
84.1423	n/a	RESPONSE	n/a	n/a	n/a	n/a	n/a	n/a	n/a	green
84.1715	1.0167	ITI	n/a	n/a	n/a	n/a	n/a	n/a	n/a	n/a
85.1881	0.5167	FIXCROSS	n/a	n/a	n/a	n/a	n/a	n/a	n/a	n/a
85.7048	0.7667	INK	19	Neutral	xxxxxxxx	xxxxxxxx	niebieski	blue	hit	n/a
86.4458	n/a	RESPONSE	n/a	n/a	n/a	n/a	n/a	n/a	n/a	blue
86.4715	1.0167	ITI	n/a	n/a	n/a	n/a	n/a	n/a	n/a	n/a
87.4882	0.5167	FIXCROSS	n/a	n/a	n/a	n/a	n/a	n/a	n/a	n/a
88.0048	0.4	INK	20	Neutral	xxxxxxxx	xxxxxxxx	żółty	yellow	hit	n/a
88.3814	n/a	RESPONSE	n/a	n/a	n/a	n/a	n/a	n/a	n/a	yellow
88.4048	1.0167	ITI	n/a	n/a	n/a	n/a	n/a	n/a	n/a	n/a
89.4215	0.5167	FIXCROSS	n/a	n/a	n/a	n/a	n/a	n/a	n/a	n/a
89.9382	0.8167	INK	21	Neutral	xxxxxxxx	xxxxxxxx	zielony	green	hit	n/a
90.7329	n/a	RESPONSE	n/a	n/a	n/a	n/a	n/a	n/a	n/a	green
90.7548	1.0167	ITI	n/a	n/a	n/a	n/a	n/a	n/a	n/a	n/a
91.7715	0.5167	FIXCROSS	n/a	n/a	n/a	n/a	n/a	n/a	n/a	n/a
92.2882	0.6667	INK	22	Neutral	xxxxxxxx	xxxxxxxx	zielony	green	hit	n/a
92.9244	n/a	RESPONSE	n/a	n/a	n/a	n/a	n/a	n/a	n/a	green
92.9549	1.0167	ITI	n/a	n/a	n/a	n/a	n/a	n/a	n/a	n/a
93.9715	0.5167	FIXCROSS	n/a	n/a	n/a	n/a	n/a	n/a	n/a	n/a
94.4882	0.8167	INK	23	Incongruent	niebieski	blue	czerwony	red	hit	n/a
95.2759	n/a	RESPONSE	n/a	n/a	n/a	n/a	n/a	n/a	n/a	red
95.3049	1.0167	ITI	n/a	n/a	n/a	n/a	n/a	n/a	n/a	n/a
96.3215	0.5167	FIXCROSS	n/a	n/a	n/a	n/a	n/a	n/a	n/a	n/a
96.8382	1.2166	INK	24	Incongruent	czerwony	red	zielony	green	hit	n/a
98.0274	n/a	RESPONSE	n/a	n/a	n/a	n/a	n/a	n/a	n/a	green
98.0548	1.0167	ITI	n/a	n/a	n/a	n/a	n/a	n/a	n/a	n/a
99.0716	0.5167	FIXCROSS	n/a	n/a	n/a	n/a	n/a	n/a	n/a	n/a
99.5882	0.5333	INK	25	Incongruent	niebieski	blue	zielony	green	hit	n/a
100.0909	n/a	RESPONSE	n/a	n/a	n/a	n/a	n/a	n/a	n/a	green
100.1216	1.0167	ITI	n/a	n/a	n/a	n/a	n/a	n/a	n/a	n/a
101.1382	0.5167	FIXCROSS	n/a	n/a	n/a	n/a	n/a	n/a	n/a	n/a
101.6549	0.8	INK	26	Incongruent	niebieski	blue	żółty	yellow	hit	n/a
102.4264	n/a	RESPONSE	n/a	n/a	n/a	n/a	n/a	n/a	n/a	yellow
102.4549	1.0167	ITI	n/a	n/a	n/a	n/a	n/a	n/a	n/a	n/a
103.4716	0.5167	FIXCROSS	n/a	n/a	n/a	n/a	n/a	n/a	n/a	n/a
103.9883	0.8	INK	27	Incongruent	zielony	green	niebieski	blue	hit	n/a
104.7619	n/a	RESPONSE	n/a	n/a	n/a	n/a	n/a	n/a	n/a	blue
104.7883	1.0167	ITI	n/a	n/a	n/a	n/a	n/a	n/a	n/a	n/a
105.8049	0.5167	FIXCROSS	n/a	n/a	n/a	n/a	n/a	n/a	n/a	n/a
106.3216	0.45	INK	28	Neutral	xxxxxxxxx	xxxxxxxxx	żółty	yellow	hit	n/a
106.7455	n/a	RESPONSE	n/a	n/a	n/a	n/a	n/a	n/a	n/a	yellow
106.7716	1.0167	ITI	n/a	n/a	n/a	n/a	n/a	n/a	n/a	n/a
107.7883	0.5167	FIXCROSS	n/a	n/a	n/a	n/a	n/a	n/a	n/a	n/a
108.305	0.9	INK	29	Incongruent	czerwony	red	niebieski	blue	hit	n/a
109.177	n/a	RESPONSE	n/a	n/a	n/a	n/a	n/a	n/a	n/a	blue
109.205	1.0167	ITI	n/a	n/a	n/a	n/a	n/a	n/a	n/a	n/a
110.2216	0.5167	FIXCROSS	n/a	n/a	n/a	n/a	n/a	n/a	n/a	n/a
110.7383	0.7667	INK	30	Neutral	xxxxxxx	xxxxxxx	niebieski	blue	hit	n/a
111.4805	n/a	RESPONSE	n/a	n/a	n/a	n/a	n/a	n/a	n/a	blue
111.505	1.0167	ITI	n/a	n/a	n/a	n/a	n/a	n/a	n/a	n/a
112.5217	0.5167	FIXCROSS	n/a	n/a	n/a	n/a	n/a	n/a	n/a	n/a
113.0383	0.55	INK	31	Incongruent	czerwony	red	niebieski	blue	hit	n/a
113.5601	n/a	RESPONSE	n/a	n/a	n/a	n/a	n/a	n/a	n/a	blue
113.5883	1.0167	ITI	n/a	n/a	n/a	n/a	n/a	n/a	n/a	n/a
114.605	0.5167	FIXCROSS	n/a	n/a	n/a	n/a	n/a	n/a	n/a	n/a
115.1217	0.45	INK	32	Neutral	xxxxxxxxx	xxxxxxxxx	zielony	green	incorrect	n/a
115.5437	n/a	RESPONSE	n/a	n/a	n/a	n/a	n/a	n/a	n/a	yellow
115.5717	1.0167	ITI	n/a	n/a	n/a	n/a	n/a	n/a	n/a	n/a
116.5883	0.5167	FIXCROSS	n/a	n/a	n/a	n/a	n/a	n/a	n/a	n/a
117.105	0.55	INK	33	Incongruent	zielony	green	czerwony	red	hit	n/a
117.6232	n/a	RESPONSE	n/a	n/a	n/a	n/a	n/a	n/a	n/a	red
117.655	1.0167	ITI	n/a	n/a	n/a	n/a	n/a	n/a	n/a	n/a
118.6717	0.5167	FIXCROSS	n/a	n/a	n/a	n/a	n/a	n/a	n/a	n/a
119.1884	0.7333	INK	34	Incongruent	czerwony	red	zielony	green	hit	n/a
119.8947	n/a	RESPONSE	n/a	n/a	n/a	n/a	n/a	n/a	n/a	green
119.9217	1.0167	ITI	n/a	n/a	n/a	n/a	n/a	n/a	n/a	n/a
120.9384	0.5167	FIXCROSS	n/a	n/a	n/a	n/a	n/a	n/a	n/a	n/a
121.455	0.55	INK	35	Neutral	xxxxxxxx	xxxxxxxx	zielony	green	hit	n/a
121.9743	n/a	RESPONSE	n/a	n/a	n/a	n/a	n/a	n/a	n/a	green
122.005	1.0167	ITI	n/a	n/a	n/a	n/a	n/a	n/a	n/a	n/a
123.0217	0.5167	FIXCROSS	n/a	n/a	n/a	n/a	n/a	n/a	n/a	n/a
123.5384	0.6167	INK	36	Neutral	xxxxxxxxx	xxxxxxxxx	czerwony	red	hit	n/a
124.1339	n/a	RESPONSE	n/a	n/a	n/a	n/a	n/a	n/a	n/a	red
124.1551	1.0167	ITI	n/a	n/a	n/a	n/a	n/a	n/a	n/a	n/a
125.1717	0.5167	FIXCROSS	n/a	n/a	n/a	n/a	n/a	n/a	n/a	n/a
125.6884	0.7167	INK	37	Neutral	xxxxxxxxx	xxxxxxxxx	zielony	green	hit	n/a
126.3734	n/a	RESPONSE	n/a	n/a	n/a	n/a	n/a	n/a	n/a	green
126.4051	1.0167	ITI	n/a	n/a	n/a	n/a	n/a	n/a	n/a	n/a
127.4218	0.5167	FIXCROSS	n/a	n/a	n/a	n/a	n/a	n/a	n/a	n/a
127.9384	0.45	INK	38	Neutral	xxxxxxxxx	xxxxxxxxx	zielony	green	hit	n/a
128.357	n/a	RESPONSE	n/a	n/a	n/a	n/a	n/a	n/a	n/a	green
128.3884	1.0167	ITI	n/a	n/a	n/a	n/a	n/a	n/a	n/a	n/a
129.4051	0.5167	FIXCROSS	n/a	n/a	n/a	n/a	n/a	n/a	n/a	n/a
129.9218	0.5167	INK	39	Neutral	xxxxxxxx	xxxxxxxx	żółty	yellow	hit	n/a
130.4205	n/a	RESPONSE	n/a	n/a	n/a	n/a	n/a	n/a	n/a	yellow
130.4384	1.0167	ITI	n/a	n/a	n/a	n/a	n/a	n/a	n/a	n/a
131.4551	0.5167	FIXCROSS	n/a	n/a	n/a	n/a	n/a	n/a	n/a	n/a
131.9718	0.4833	INK	40	Neutral	xxxxxxxxx	xxxxxxxxx	czerwony	red	hit	n/a
132.4361	n/a	RESPONSE	n/a	n/a	n/a	n/a	n/a	n/a	n/a	red
132.4551	1.0167	ITI	n/a	n/a	n/a	n/a	n/a	n/a	n/a	n/a
133.4718	0.5167	FIXCROSS	n/a	n/a	n/a	n/a	n/a	n/a	n/a	n/a
133.9885	0.4667	INK	41	Neutral	xxxxxxx	xxxxxxx	żółty	yellow	hit	n/a
134.4357	n/a	RESPONSE	n/a	n/a	n/a	n/a	n/a	n/a	n/a	yellow
134.4551	1.0167	ITI	n/a	n/a	n/a	n/a	n/a	n/a	n/a	n/a
135.4718	0.5167	FIXCROSS	n/a	n/a	n/a	n/a	n/a	n/a	n/a	n/a
135.9885	0.8167	INK	42	Incongruent	żółty	yellow	zielony	green	hit	n/a
136.7872	n/a	RESPONSE	n/a	n/a	n/a	n/a	n/a	n/a	n/a	green
136.8051	1.0167	ITI	n/a	n/a	n/a	n/a	n/a	n/a	n/a	n/a
137.8218	0.5167	FIXCROSS	n/a	n/a	n/a	n/a	n/a	n/a	n/a	n/a
138.3385	0.6667	INK	43	Incongruent	żółty	yellow	niebieski	blue	hit	n/a
138.9787	n/a	RESPONSE	n/a	n/a	n/a	n/a	n/a	n/a	n/a	blue
139.0052	1.0167	ITI	n/a	n/a	n/a	n/a	n/a	n/a	n/a	n/a
140.0218	0.5167	FIXCROSS	n/a	n/a	n/a	n/a	n/a	n/a	n/a	n/a
140.5385	1.1833	INK	44	Incongruent	żółty	yellow	niebieski	blue	hit	n/a
141.6982	n/a	RESPONSE	n/a	n/a	n/a	n/a	n/a	n/a	n/a	blue
141.7219	1.0167	ITI	n/a	n/a	n/a	n/a	n/a	n/a	n/a	n/a
142.7385	0.5167	FIXCROSS	n/a	n/a	n/a	n/a	n/a	n/a	n/a	n/a
143.2552	0.7167	INK	45	Incongruent	czerwony	red	żółty	yellow	hit	n/a
143.9537	n/a	RESPONSE	n/a	n/a	n/a	n/a	n/a	n/a	n/a	yellow
143.9719	1.0167	ITI	n/a	n/a	n/a	n/a	n/a	n/a	n/a	n/a
144.9885	0.5167	FIXCROSS	n/a	n/a	n/a	n/a	n/a	n/a	n/a	n/a
145.5052	0.6167	INK	46	Incongruent	czerwony	red	niebieski	blue	hit	n/a
146.0972	n/a	RESPONSE	n/a	n/a	n/a	n/a	n/a	n/a	n/a	blue
146.1219	1.0167	ITI	n/a	n/a	n/a	n/a	n/a	n/a	n/a	n/a
147.1385	0.5167	FIXCROSS	n/a	n/a	n/a	n/a	n/a	n/a	n/a	n/a
147.6552	0.4667	INK	47	Neutral	xxxxxxx	xxxxxxx	czerwony	red	hit	n/a
148.0968	n/a	RESPONSE	n/a	n/a	n/a	n/a	n/a	n/a	n/a	red
148.1219	1.0167	ITI	n/a	n/a	n/a	n/a	n/a	n/a	n/a	n/a
149.1386	0.5167	FIXCROSS	n/a	n/a	n/a	n/a	n/a	n/a	n/a	n/a
149.6552	0.75	INK	48	Neutral	xxxxxxxx	xxxxxxxx	niebieski	blue	hit	n/a
150.3843	n/a	RESPONSE	n/a	n/a	n/a	n/a	n/a	n/a	n/a	blue
150.4052	1.0167	ITI	n/a	n/a	n/a	n/a	n/a	n/a	n/a	n/a
151.4219	0.5167	FIXCROSS	n/a	n/a	n/a	n/a	n/a	n/a	n/a	n/a
151.9386	0.8667	INK	49	Incongruent	żółty	yellow	zielony	green	hit	n/a
152.7838	n/a	RESPONSE	n/a	n/a	n/a	n/a	n/a	n/a	n/a	green
152.8052	1.0167	ITI	n/a	n/a	n/a	n/a	n/a	n/a	n/a	n/a
153.8219	0.5167	FIXCROSS	n/a	n/a	n/a	n/a	n/a	n/a	n/a	n/a
154.3386	0.7	INK	50	Incongruent	niebieski	blue	zielony	green	hit	n/a
155.0074	n/a	RESPONSE	n/a	n/a	n/a	n/a	n/a	n/a	n/a	green
155.0386	1.0167	ITI	n/a	n/a	n/a	n/a	n/a	n/a	n/a	n/a
156.0553	0.5167	FIXCROSS	n/a	n/a	n/a	n/a	n/a	n/a	n/a	n/a
156.5719	0.7167	INK	51	Neutral	xxxxx	xxxxx	czerwony	red	hit	n/a
157.2629	n/a	RESPONSE	n/a	n/a	n/a	n/a	n/a	n/a	n/a	red
157.2886	1.0167	ITI	n/a	n/a	n/a	n/a	n/a	n/a	n/a	n/a
158.3053	0.5167	FIXCROSS	n/a	n/a	n/a	n/a	n/a	n/a	n/a	n/a
158.822	0.7667	INK	52	Incongruent	zielony	green	żółty	yellow	hit	n/a
159.5664	n/a	RESPONSE	n/a	n/a	n/a	n/a	n/a	n/a	n/a	yellow
159.5886	1.0167	ITI	n/a	n/a	n/a	n/a	n/a	n/a	n/a	n/a
160.6053	0.5167	FIXCROSS	n/a	n/a	n/a	n/a	n/a	n/a	n/a	n/a
161.122	0.85	INK	53	Incongruent	żółty	yellow	czerwony	red	hit	n/a
161.95	n/a	RESPONSE	n/a	n/a	n/a	n/a	n/a	n/a	n/a	red
161.972	1.0167	ITI	n/a	n/a	n/a	n/a	n/a	n/a	n/a	n/a
162.9886	0.5167	FIXCROSS	n/a	n/a	n/a	n/a	n/a	n/a	n/a	n/a
163.5053	0.6833	INK	54	Incongruent	zielony	green	żółty	yellow	hit	n/a
164.1574	n/a	RESPONSE	n/a	n/a	n/a	n/a	n/a	n/a	n/a	yellow
164.1887	1.0167	ITI	n/a	n/a	n/a	n/a	n/a	n/a	n/a	n/a
165.2053	0.5167	FIXCROSS	n/a	n/a	n/a	n/a	n/a	n/a	n/a	n/a
165.722	0.6667	INK	55	Incongruent	zielony	green	niebieski	blue	hit	n/a
166.365	n/a	RESPONSE	n/a	n/a	n/a	n/a	n/a	n/a	n/a	blue
166.3887	1.0167	ITI	n/a	n/a	n/a	n/a	n/a	n/a	n/a	n/a
167.4053	0.5167	FIXCROSS	n/a	n/a	n/a	n/a	n/a	n/a	n/a	n/a
167.922	0.5333	INK	56	Neutral	xxxxxxxxx	xxxxxxxxx	żółty	yellow	hit	n/a
168.4285	n/a	RESPONSE	n/a	n/a	n/a	n/a	n/a	n/a	n/a	yellow
168.4554	1.0167	ITI	n/a	n/a	n/a	n/a	n/a	n/a	n/a	n/a
169.472	0.5167	FIXCROSS	n/a	n/a	n/a	n/a	n/a	n/a	n/a	n/a
169.9887	0.4333	INK	57	Neutral	xxxxxxx	xxxxxxx	żółty	yellow	hit	n/a
170.3961	n/a	RESPONSE	n/a	n/a	n/a	n/a	n/a	n/a	n/a	yellow
170.422	1.0167	ITI	n/a	n/a	n/a	n/a	n/a	n/a	n/a	n/a
171.4387	0.5167	FIXCROSS	n/a	n/a	n/a	n/a	n/a	n/a	n/a	n/a
171.9554	0.85	INK	58	Incongruent	czerwony	red	zielony	green	hit	n/a
172.7796	n/a	RESPONSE	n/a	n/a	n/a	n/a	n/a	n/a	n/a	green
172.8054	1.0167	ITI	n/a	n/a	n/a	n/a	n/a	n/a	n/a	n/a
173.8221	0.5167	FIXCROSS	n/a	n/a	n/a	n/a	n/a	n/a	n/a	n/a
174.3387	0.4167	INK	59	Incongruent	niebieski	blue	czerwony	red	hit	n/a
174.7312	n/a	RESPONSE	n/a	n/a	n/a	n/a	n/a	n/a	n/a	red
174.7554	1.0167	ITI	n/a	n/a	n/a	n/a	n/a	n/a	n/a	n/a
175.7721	0.5167	FIXCROSS	n/a	n/a	n/a	n/a	n/a	n/a	n/a	n/a
176.2887	0.6333	INK	60	Neutral	xxxxx	xxxxx	niebieski	blue	hit	n/a
176.8908	n/a	RESPONSE	n/a	n/a	n/a	n/a	n/a	n/a	n/a	blue
176.9221	1.0167	ITI	n/a	n/a	n/a	n/a	n/a	n/a	n/a	n/a
177.9387	0.5167	FIXCROSS	n/a	n/a	n/a	n/a	n/a	n/a	n/a	n/a
178.4554	0.6167	INK	61	Incongruent	żółty	yellow	czerwony	red	hit	n/a
179.0503	n/a	RESPONSE	n/a	n/a	n/a	n/a	n/a	n/a	n/a	red
179.0721	1.0167	ITI	n/a	n/a	n/a	n/a	n/a	n/a	n/a	n/a
180.0888	0.5167	FIXCROSS	n/a	n/a	n/a	n/a	n/a	n/a	n/a	n/a
180.6054	0.4333	INK	62	Incongruent	zielony	green	żółty	yellow	hit	n/a
181.0179	n/a	RESPONSE	n/a	n/a	n/a	n/a	n/a	n/a	n/a	yellow
181.0388	1.0167	ITI	n/a	n/a	n/a	n/a	n/a	n/a	n/a	n/a
182.0554	0.5167	FIXCROSS	n/a	n/a	n/a	n/a	n/a	n/a	n/a	n/a
182.5721	0.4667	INK	63	Incongruent	niebieski	blue	żółty	yellow	hit	n/a
183.0175	n/a	RESPONSE	n/a	n/a	n/a	n/a	n/a	n/a	n/a	yellow
183.0388	1.0167	ITI	n/a	n/a	n/a	n/a	n/a	n/a	n/a	n/a
184.0554	0.5167	FIXCROSS	n/a	n/a	n/a	n/a	n/a	n/a	n/a	n/a
184.5721	0.3833	INK	64	Incongruent	czerwony	red	żółty	yellow	hit	n/a
184.9371	n/a	RESPONSE	n/a	n/a	n/a	n/a	n/a	n/a	n/a	yellow
184.9555	1.0167	ITI	n/a	n/a	n/a	n/a	n/a	n/a	n/a	n/a
185.9721	0.5167	FIXCROSS	n/a	n/a	n/a	n/a	n/a	n/a	n/a	n/a
186.4888	0.6	INK	65	Incongruent	niebieski	blue	czerwony	red	hit	n/a
187.0646	n/a	RESPONSE	n/a	n/a	n/a	n/a	n/a	n/a	n/a	red
187.0888	1.0167	ITI	n/a	n/a	n/a	n/a	n/a	n/a	n/a	n/a
188.1055	0.5167	FIXCROSS	n/a	n/a	n/a	n/a	n/a	n/a	n/a	n/a
188.6221	0.5667	INK	66	Incongruent	niebieski	blue	żółty	yellow	hit	n/a
189.1602	n/a	RESPONSE	n/a	n/a	n/a	n/a	n/a	n/a	n/a	yellow
189.1888	1.0167	ITI	n/a	n/a	n/a	n/a	n/a	n/a	n/a	n/a
190.2055	0.5167	FIXCROSS	n/a	n/a	n/a	n/a	n/a	n/a	n/a	n/a
190.7222	0.5333	INK	67	Incongruent	zielony	green	niebieski	blue	hit	n/a
191.2237	n/a	RESPONSE	n/a	n/a	n/a	n/a	n/a	n/a	n/a	blue
191.2555	1.0167	ITI	n/a	n/a	n/a	n/a	n/a	n/a	n/a	n/a
192.2722	0.5167	FIXCROSS	n/a	n/a	n/a	n/a	n/a	n/a	n/a	n/a
192.7888	0.6333	INK	68	Incongruent	żółty	yellow	czerwony	red	hit	n/a
193.3993	n/a	RESPONSE	n/a	n/a	n/a	n/a	n/a	n/a	n/a	red
193.4222	1.0167	ITI	n/a	n/a	n/a	n/a	n/a	n/a	n/a	n/a
194.4388	0.5167	FIXCROSS	n/a	n/a	n/a	n/a	n/a	n/a	n/a	n/a
194.9555	0.45	INK	69	Neutral	xxxxxxxx	xxxxxxxx	niebieski	blue	hit	n/a
195.3828	n/a	RESPONSE	n/a	n/a	n/a	n/a	n/a	n/a	n/a	blue
195.4055	1.0167	ITI	n/a	n/a	n/a	n/a	n/a	n/a	n/a	n/a
196.4222	0.5167	FIXCROSS	n/a	n/a	n/a	n/a	n/a	n/a	n/a	n/a
196.9389	0.4333	INK	70	Neutral	xxxxxxx	xxxxxxx	niebieski	blue	hit	n/a
197.3505	n/a	RESPONSE	n/a	n/a	n/a	n/a	n/a	n/a	n/a	blue
197.3722	1.0167	ITI	n/a	n/a	n/a	n/a	n/a	n/a	n/a	n/a
198.3889	0.5167	FIXCROSS	n/a	n/a	n/a	n/a	n/a	n/a	n/a	n/a
198.9055	0.6333	INK	71	Neutral	xxxxx	xxxxx	zielony	green	incorrect	n/a
199.51	n/a	RESPONSE	n/a	n/a	n/a	n/a	n/a	n/a	n/a	yellow
199.5389	1.0167	ITI	n/a	n/a	n/a	n/a	n/a	n/a	n/a	n/a
200.5556	0.5167	FIXCROSS	n/a	n/a	n/a	n/a	n/a	n/a	n/a	n/a
201.0722	0.6	INK	72	Neutral	xxxxx	xxxxx	niebieski	blue	hit	n/a
201.6535	n/a	RESPONSE	n/a	n/a	n/a	n/a	n/a	n/a	n/a	blue
201.6722	1.0833	ITI	n/a	n/a	n/a	n/a	n/a	n/a	n/a	n/a
218.338	n/a	RESPONSE	n/a	n/a	n/a	n/a	n/a	n/a	n/a	n/a
218.4057	1.0167	ITI	n/a	n/a	n/a	n/a	n/a	n/a	n/a	n/a
219.4223	0.5167	FIXCROSS	n/a	n/a	n/a	n/a	n/a	n/a	n/a	n/a
219.939	1.65	T_COLOR_NAME	1	Neutral	żółty	yellow	Neutral	Neutral	hit	n/a
221.5534	n/a	RESPONSE	n/a	n/a	n/a	n/a	n/a	n/a	n/a	yellow
221.589	0.5167	FEEDBACK	n/a	n/a	n/a	n/a	n/a	n/a	n/a	n/a
222.1057	1.0167	ITI	n/a	n/a	n/a	n/a	n/a	n/a	n/a	n/a
223.1224	0.5167	FIXCROSS	n/a	n/a	n/a	n/a	n/a	n/a	n/a	n/a
223.639	0.7	T_COLOR_NAME	2	Incongruent	żółty	yellow	niebieski	blue	hit	n/a
224.3048	n/a	RESPONSE	n/a	n/a	n/a	n/a	n/a	n/a	n/a	yellow
224.339	0.5167	FEEDBACK	n/a	n/a	n/a	n/a	n/a	n/a	n/a	n/a
224.8557	1.0167	ITI	n/a	n/a	n/a	n/a	n/a	n/a	n/a	n/a
225.8724	0.5167	FIXCROSS	n/a	n/a	n/a	n/a	n/a	n/a	n/a	n/a
226.3891	0.7833	T_COLOR_NAME	3	Incongruent	niebieski	blue	żółty	yellow	hit	n/a
227.1522	n/a	RESPONSE	n/a	n/a	n/a	n/a	n/a	n/a	n/a	blue
227.1724	0.5167	FEEDBACK	n/a	n/a	n/a	n/a	n/a	n/a	n/a	n/a
227.6891	1.0167	ITI	n/a	n/a	n/a	n/a	n/a	n/a	n/a	n/a
228.7057	0.5167	FIXCROSS	n/a	n/a	n/a	n/a	n/a	n/a	n/a	n/a
229.2224	0.8167	T_COLOR_NAME	4	Incongruent	zielony	green	żółty	yellow	hit	n/a
230.0156	n/a	RESPONSE	n/a	n/a	n/a	n/a	n/a	n/a	n/a	green
230.0391	0.5167	FEEDBACK	n/a	n/a	n/a	n/a	n/a	n/a	n/a	n/a
230.5558	1.0167	ITI	n/a	n/a	n/a	n/a	n/a	n/a	n/a	n/a
231.5724	0.5167	FIXCROSS	n/a	n/a	n/a	n/a	n/a	n/a	n/a	n/a
232.0891	0.4667	T_COLOR_NAME	5	Neutral	czerwony	red	Neutral	Neutral	hit	n/a
232.5271	n/a	RESPONSE	n/a	n/a	n/a	n/a	n/a	n/a	n/a	red
232.5558	0.5167	FEEDBACK	n/a	n/a	n/a	n/a	n/a	n/a	n/a	n/a
233.0724	1.0167	ITI	n/a	n/a	n/a	n/a	n/a	n/a	n/a	n/a
234.0891	0.5167	FIXCROSS	n/a	n/a	n/a	n/a	n/a	n/a	n/a	n/a
234.6058	0.85	T_COLOR_NAME	6	Neutral	żółty	yellow	Neutral	Neutral	hit	n/a
235.4224	n/a	RESPONSE	n/a	n/a	n/a	n/a	n/a	n/a	n/a	yellow
235.4558	0.5167	FEEDBACK	n/a	n/a	n/a	n/a	n/a	n/a	n/a	n/a
235.9725	1.0167	ITI	n/a	n/a	n/a	n/a	n/a	n/a	n/a	n/a
236.9891	0.5167	FIXCROSS	n/a	n/a	n/a	n/a	n/a	n/a	n/a	n/a
237.5058	0.8833	T_COLOR_NAME	7	Incongruent	żółty	yellow	zielony	green	hit	n/a
238.3658	n/a	RESPONSE	n/a	n/a	n/a	n/a	n/a	n/a	n/a	yellow
238.3891	0.5167	FEEDBACK	n/a	n/a	n/a	n/a	n/a	n/a	n/a	n/a
238.9058	1.0167	ITI	n/a	n/a	n/a	n/a	n/a	n/a	n/a	n/a
239.9225	0.5167	FIXCROSS	n/a	n/a	n/a	n/a	n/a	n/a	n/a	n/a
240.4391	1.1667	T_COLOR_NAME	8	Neutral	zielony	green	Neutral	Neutral	hit	n/a
241.5811	n/a	RESPONSE	n/a	n/a	n/a	n/a	n/a	n/a	n/a	green
241.6058	0.5167	FEEDBACK	n/a	n/a	n/a	n/a	n/a	n/a	n/a	n/a
242.1225	1.0167	ITI	n/a	n/a	n/a	n/a	n/a	n/a	n/a	n/a
243.1392	0.5167	FIXCROSS	n/a	n/a	n/a	n/a	n/a	n/a	n/a	n/a
243.6558	0.6333	T_COLOR_NAME	9	Neutral	niebieski	blue	Neutral	Neutral	hit	n/a
244.2686	n/a	RESPONSE	n/a	n/a	n/a	n/a	n/a	n/a	n/a	blue
244.2892	0.5167	FEEDBACK	n/a	n/a	n/a	n/a	n/a	n/a	n/a	n/a
244.8058	1.0167	ITI	n/a	n/a	n/a	n/a	n/a	n/a	n/a	n/a
245.8225	0.5167	FIXCROSS	n/a	n/a	n/a	n/a	n/a	n/a	n/a	n/a
246.3392	0.6667	T_COLOR_NAME	10	Incongruent	czerwony	red	niebieski	blue	hit	n/a
246.972	n/a	RESPONSE	n/a	n/a	n/a	n/a	n/a	n/a	n/a	red
247.0059	0.5167	FEEDBACK	n/a	n/a	n/a	n/a	n/a	n/a	n/a	n/a
247.5225	1.0167	ITI	n/a	n/a	n/a	n/a	n/a	n/a	n/a	n/a
248.5392	0.5167	FIXCROSS	n/a	n/a	n/a	n/a	n/a	n/a	n/a	n/a
249.0559	0.6667	T_COLOR_NAME	11	Neutral	czerwony	red	Neutral	Neutral	hit	n/a
249.6914	n/a	RESPONSE	n/a	n/a	n/a	n/a	n/a	n/a	n/a	red
249.7225	0.5167	FEEDBACK	n/a	n/a	n/a	n/a	n/a	n/a	n/a	n/a
250.2392	1.0167	ITI	n/a	n/a	n/a	n/a	n/a	n/a	n/a	n/a
251.2559	0.5167	FIXCROSS	n/a	n/a	n/a	n/a	n/a	n/a	n/a	n/a
251.7726	0.6333	T_COLOR_NAME	12	Neutral	żółty	yellow	Neutral	Neutral	hit	n/a
252.3789	n/a	RESPONSE	n/a	n/a	n/a	n/a	n/a	n/a	n/a	yellow
252.4059	0.5167	FEEDBACK	n/a	n/a	n/a	n/a	n/a	n/a	n/a	n/a
252.9226	1.0333	ITI	n/a	n/a	n/a	n/a	n/a	n/a	n/a	n/a
256.49	n/a	RESPONSE	n/a	n/a	n/a	n/a	n/a	n/a	n/a	n/a
256.5559	1.0167	ITI	n/a	n/a	n/a	n/a	n/a	n/a	n/a	n/a
257.5726	0.5167	FIXCROSS	n/a	n/a	n/a	n/a	n/a	n/a	n/a	n/a
258.0893	0.95	COLOR_NAME	1	Neutral	czerwony	red	Neutral	Neutral	hit	n/a
259.0175	n/a	RESPONSE	n/a	n/a	n/a	n/a	n/a	n/a	n/a	red
259.0393	1.0167	ITI	n/a	n/a	n/a	n/a	n/a	n/a	n/a	n/a
260.0559	0.5167	FIXCROSS	n/a	n/a	n/a	n/a	n/a	n/a	n/a	n/a
260.5726	0.8	COLOR_NAME	2	Neutral	zielony	green	Neutral	Neutral	hit	n/a
261.353	n/a	RESPONSE	n/a	n/a	n/a	n/a	n/a	n/a	n/a	green
261.3726	1.0167	ITI	n/a	n/a	n/a	n/a	n/a	n/a	n/a	n/a
262.3893	0.5167	FIXCROSS	n/a	n/a	n/a	n/a	n/a	n/a	n/a	n/a
262.906	0.55	COLOR_NAME	3	Incongruent	zielony	green	żółty	yellow	hit	n/a
263.4325	n/a	RESPONSE	n/a	n/a	n/a	n/a	n/a	n/a	n/a	green
263.456	1.0167	ITI	n/a	n/a	n/a	n/a	n/a	n/a	n/a	n/a
264.4726	0.5167	FIXCROSS	n/a	n/a	n/a	n/a	n/a	n/a	n/a	n/a
264.9893	0.5167	COLOR_NAME	4	Neutral	żółty	yellow	Neutral	Neutral	hit	n/a
265.4801	n/a	RESPONSE	n/a	n/a	n/a	n/a	n/a	n/a	n/a	yellow
265.506	1.0167	ITI	n/a	n/a	n/a	n/a	n/a	n/a	n/a	n/a
266.5226	0.5167	FIXCROSS	n/a	n/a	n/a	n/a	n/a	n/a	n/a	n/a
267.0393	0.6167	COLOR_NAME	5	Incongruent	czerwony	red	zielony	green	hit	n/a
267.6237	n/a	RESPONSE	n/a	n/a	n/a	n/a	n/a	n/a	n/a	red
267.656	1.0167	ITI	n/a	n/a	n/a	n/a	n/a	n/a	n/a	n/a
268.6727	0.5167	FIXCROSS	n/a	n/a	n/a	n/a	n/a	n/a	n/a	n/a
269.1893	0.8167	COLOR_NAME	6	Neutral	niebieski	blue	Neutral	Neutral	hit	n/a
269.9752	n/a	RESPONSE	n/a	n/a	n/a	n/a	n/a	n/a	n/a	blue
270.006	1.0167	ITI	n/a	n/a	n/a	n/a	n/a	n/a	n/a	n/a
271.0227	0.5167	FIXCROSS	n/a	n/a	n/a	n/a	n/a	n/a	n/a	n/a
271.5393	0.5167	COLOR_NAME	7	Neutral	czerwony	red	Neutral	Neutral	hit	n/a
272.0228	n/a	RESPONSE	n/a	n/a	n/a	n/a	n/a	n/a	n/a	red
272.056	1.0167	ITI	n/a	n/a	n/a	n/a	n/a	n/a	n/a	n/a
273.0727	0.5167	FIXCROSS	n/a	n/a	n/a	n/a	n/a	n/a	n/a	n/a
273.5894	0.55	COLOR_NAME	8	Incongruent	czerwony	red	żółty	yellow	hit	n/a
274.1183	n/a	RESPONSE	n/a	n/a	n/a	n/a	n/a	n/a	n/a	red
274.1394	1.0167	ITI	n/a	n/a	n/a	n/a	n/a	n/a	n/a	n/a
275.156	0.5167	FIXCROSS	n/a	n/a	n/a	n/a	n/a	n/a	n/a	n/a
275.6727	0.4667	COLOR_NAME	9	Neutral	czerwony	red	Neutral	Neutral	hit	n/a
276.1179	n/a	RESPONSE	n/a	n/a	n/a	n/a	n/a	n/a	n/a	red
276.1394	1.0167	ITI	n/a	n/a	n/a	n/a	n/a	n/a	n/a	n/a
277.156	0.5167	FIXCROSS	n/a	n/a	n/a	n/a	n/a	n/a	n/a	n/a
277.6727	0.4333	COLOR_NAME	10	Incongruent	czerwony	red	żółty	yellow	hit	n/a
278.0854	n/a	RESPONSE	n/a	n/a	n/a	n/a	n/a	n/a	n/a	red
278.1061	1.0167	ITI	n/a	n/a	n/a	n/a	n/a	n/a	n/a	n/a
279.1227	0.5167	FIXCROSS	n/a	n/a	n/a	n/a	n/a	n/a	n/a	n/a
279.6394	0.5667	COLOR_NAME	11	Incongruent	żółty	yellow	niebieski	blue	hit	n/a
280.181	n/a	RESPONSE	n/a	n/a	n/a	n/a	n/a	n/a	n/a	yellow
280.2061	1.0167	ITI	n/a	n/a	n/a	n/a	n/a	n/a	n/a	n/a
281.2227	0.5167	FIXCROSS	n/a	n/a	n/a	n/a	n/a	n/a	n/a	n/a
281.7394	0.7667	COLOR_NAME	12	Neutral	żółty	yellow	Neutral	Neutral	hit	n/a
282.4845	n/a	RESPONSE	n/a	n/a	n/a	n/a	n/a	n/a	n/a	yellow
282.5061	1.0167	ITI	n/a	n/a	n/a	n/a	n/a	n/a	n/a	n/a
283.5228	0.5167	FIXCROSS	n/a	n/a	n/a	n/a	n/a	n/a	n/a	n/a
284.0394	0.7	COLOR_NAME	13	Incongruent	niebieski	blue	żółty	yellow	hit	n/a
284.708	n/a	RESPONSE	n/a	n/a	n/a	n/a	n/a	n/a	n/a	blue
284.7394	1.0167	ITI	n/a	n/a	n/a	n/a	n/a	n/a	n/a	n/a
285.7561	0.5167	FIXCROSS	n/a	n/a	n/a	n/a	n/a	n/a	n/a	n/a
286.2728	0.9167	COLOR_NAME	14	Incongruent	zielony	green	żółty	yellow	hit	n/a
287.1715	n/a	RESPONSE	n/a	n/a	n/a	n/a	n/a	n/a	n/a	green
287.1894	1.0167	ITI	n/a	n/a	n/a	n/a	n/a	n/a	n/a	n/a
288.2061	0.5167	FIXCROSS	n/a	n/a	n/a	n/a	n/a	n/a	n/a	n/a
288.7228	0.5167	COLOR_NAME	15	Incongruent	czerwony	red	niebieski	blue	hit	n/a
289.2191	n/a	RESPONSE	n/a	n/a	n/a	n/a	n/a	n/a	n/a	red
289.2395	1.0167	ITI	n/a	n/a	n/a	n/a	n/a	n/a	n/a	n/a
290.2561	0.5167	FIXCROSS	n/a	n/a	n/a	n/a	n/a	n/a	n/a	n/a
290.7728	0.6333	COLOR_NAME	16	Incongruent	żółty	yellow	czerwony	red	hit	n/a
291.3786	n/a	RESPONSE	n/a	n/a	n/a	n/a	n/a	n/a	n/a	yellow
291.4061	1.0167	ITI	n/a	n/a	n/a	n/a	n/a	n/a	n/a	n/a
292.4228	0.5167	FIXCROSS	n/a	n/a	n/a	n/a	n/a	n/a	n/a	n/a
292.9395	0.5999	COLOR_NAME	17	Incongruent	niebieski	blue	czerwony	red	hit	n/a
293.5062	n/a	RESPONSE	n/a	n/a	n/a	n/a	n/a	n/a	n/a	blue
293.5394	1.0168	ITI	n/a	n/a	n/a	n/a	n/a	n/a	n/a	n/a
294.5562	0.5167	FIXCROSS	n/a	n/a	n/a	n/a	n/a	n/a	n/a	n/a
295.0728	0.5167	COLOR_NAME	18	Neutral	czerwony	red	Neutral	Neutral	hit	n/a
295.5698	n/a	RESPONSE	n/a	n/a	n/a	n/a	n/a	n/a	n/a	red
295.5895	1.0167	ITI	n/a	n/a	n/a	n/a	n/a	n/a	n/a	n/a
296.6062	0.5167	FIXCROSS	n/a	n/a	n/a	n/a	n/a	n/a	n/a	n/a
297.1228	0.5167	COLOR_NAME	19	Neutral	zielony	green	Neutral	Neutral	incorrect	n/a
297.6173	n/a	RESPONSE	n/a	n/a	n/a	n/a	n/a	n/a	n/a	yellow
297.6395	1.0167	ITI	n/a	n/a	n/a	n/a	n/a	n/a	n/a	n/a
298.6562	0.5167	FIXCROSS	n/a	n/a	n/a	n/a	n/a	n/a	n/a	n/a
299.1729	0.5167	COLOR_NAME	20	Incongruent	żółty	yellow	czerwony	red	hit	n/a
299.6649	n/a	RESPONSE	n/a	n/a	n/a	n/a	n/a	n/a	n/a	yellow
299.6895	1.0167	ITI	n/a	n/a	n/a	n/a	n/a	n/a	n/a	n/a
300.7062	0.5167	FIXCROSS	n/a	n/a	n/a	n/a	n/a	n/a	n/a	n/a
301.2229	0.75	COLOR_NAME	21	Neutral	niebieski	blue	Neutral	Neutral	hit	n/a
301.9524	n/a	RESPONSE	n/a	n/a	n/a	n/a	n/a	n/a	n/a	blue
301.9729	1.0167	ITI	n/a	n/a	n/a	n/a	n/a	n/a	n/a	n/a
302.9895	0.5167	FIXCROSS	n/a	n/a	n/a	n/a	n/a	n/a	n/a	n/a
303.5062	0.7833	COLOR_NAME	22	Neutral	zielony	green	Neutral	Neutral	hit	n/a
304.2719	n/a	RESPONSE	n/a	n/a	n/a	n/a	n/a	n/a	n/a	green
304.2896	1.0167	ITI	n/a	n/a	n/a	n/a	n/a	n/a	n/a	n/a
305.3062	0.5167	FIXCROSS	n/a	n/a	n/a	n/a	n/a	n/a	n/a	n/a
305.8229	0.55	COLOR_NAME	23	Neutral	żółty	yellow	Neutral	Neutral	hit	n/a
306.3515	n/a	RESPONSE	n/a	n/a	n/a	n/a	n/a	n/a	n/a	yellow
306.3729	1.0166	ITI	n/a	n/a	n/a	n/a	n/a	n/a	n/a	n/a
307.3895	0.5167	FIXCROSS	n/a	n/a	n/a	n/a	n/a	n/a	n/a	n/a
307.9062	0.6	COLOR_NAME	24	Neutral	czerwony	red	Neutral	Neutral	hit	n/a
308.4791	n/a	RESPONSE	n/a	n/a	n/a	n/a	n/a	n/a	n/a	red
308.5062	1.0167	ITI	n/a	n/a	n/a	n/a	n/a	n/a	n/a	n/a
309.5229	0.5167	FIXCROSS	n/a	n/a	n/a	n/a	n/a	n/a	n/a	n/a
310.0396	0.5833	COLOR_NAME	25	Neutral	czerwony	red	Neutral	Neutral	hit	n/a
310.5906	n/a	RESPONSE	n/a	n/a	n/a	n/a	n/a	n/a	n/a	red
310.6229	1.0167	ITI	n/a	n/a	n/a	n/a	n/a	n/a	n/a	n/a
311.6396	0.5167	FIXCROSS	n/a	n/a	n/a	n/a	n/a	n/a	n/a	n/a
312.1563	0.7167	COLOR_NAME	26	Neutral	zielony	green	Neutral	Neutral	hit	n/a
312.8461	n/a	RESPONSE	n/a	n/a	n/a	n/a	n/a	n/a	n/a	green
312.8729	1.0167	ITI	n/a	n/a	n/a	n/a	n/a	n/a	n/a	n/a
313.8896	0.5167	FIXCROSS	n/a	n/a	n/a	n/a	n/a	n/a	n/a	n/a
314.4063	0.6333	COLOR_NAME	27	Incongruent	niebieski	blue	żółty	yellow	hit	n/a
315.0217	n/a	RESPONSE	n/a	n/a	n/a	n/a	n/a	n/a	n/a	blue
315.0396	1.0167	ITI	n/a	n/a	n/a	n/a	n/a	n/a	n/a	n/a
316.0563	0.5167	FIXCROSS	n/a	n/a	n/a	n/a	n/a	n/a	n/a	n/a
316.573	0.7333	COLOR_NAME	28	Neutral	zielony	green	Neutral	Neutral	hit	n/a
317.2772	n/a	RESPONSE	n/a	n/a	n/a	n/a	n/a	n/a	n/a	green
317.3063	1.0167	ITI	n/a	n/a	n/a	n/a	n/a	n/a	n/a	n/a
318.323	0.5167	FIXCROSS	n/a	n/a	n/a	n/a	n/a	n/a	n/a	n/a
318.8396	0.6167	COLOR_NAME	29	Incongruent	czerwony	red	żółty	yellow	hit	n/a
319.4367	n/a	RESPONSE	n/a	n/a	n/a	n/a	n/a	n/a	n/a	red
319.4563	1.0167	ITI	n/a	n/a	n/a	n/a	n/a	n/a	n/a	n/a
320.473	0.5167	FIXCROSS	n/a	n/a	n/a	n/a	n/a	n/a	n/a	n/a
320.9897	0.75	COLOR_NAME	30	Incongruent	zielony	green	żółty	yellow	hit	n/a
321.7083	n/a	RESPONSE	n/a	n/a	n/a	n/a	n/a	n/a	n/a	green
321.7397	1.0167	ITI	n/a	n/a	n/a	n/a	n/a	n/a	n/a	n/a
322.7563	0.5167	FIXCROSS	n/a	n/a	n/a	n/a	n/a	n/a	n/a	n/a
323.273	0.6167	COLOR_NAME	31	Incongruent	niebieski	blue	żółty	yellow	hit	n/a
323.8678	n/a	RESPONSE	n/a	n/a	n/a	n/a	n/a	n/a	n/a	blue
323.8897	1.0167	ITI	n/a	n/a	n/a	n/a	n/a	n/a	n/a	n/a
324.9063	0.5167	FIXCROSS	n/a	n/a	n/a	n/a	n/a	n/a	n/a	n/a
325.423	0.6	COLOR_NAME	32	Incongruent	żółty	yellow	niebieski	blue	hit	n/a
325.9953	n/a	RESPONSE	n/a	n/a	n/a	n/a	n/a	n/a	n/a	yellow
326.023	1.0167	ITI	n/a	n/a	n/a	n/a	n/a	n/a	n/a	n/a
327.0397	0.5167	FIXCROSS	n/a	n/a	n/a	n/a	n/a	n/a	n/a	n/a
327.5564	0.55	COLOR_NAME	33	Incongruent	czerwony	red	zielony	green	hit	n/a
328.0749	n/a	RESPONSE	n/a	n/a	n/a	n/a	n/a	n/a	n/a	red
328.1064	1.0167	ITI	n/a	n/a	n/a	n/a	n/a	n/a	n/a	n/a
329.123	0.5167	FIXCROSS	n/a	n/a	n/a	n/a	n/a	n/a	n/a	n/a
329.6397	0.8833	COLOR_NAME	34	Neutral	niebieski	blue	Neutral	Neutral	hit	n/a
330.4904	n/a	RESPONSE	n/a	n/a	n/a	n/a	n/a	n/a	n/a	blue
330.5231	1.0167	ITI	n/a	n/a	n/a	n/a	n/a	n/a	n/a	n/a
331.5397	0.5167	FIXCROSS	n/a	n/a	n/a	n/a	n/a	n/a	n/a	n/a
332.0564	0.8	COLOR_NAME	35	Incongruent	niebieski	blue	zielony	green	hit	n/a
332.8259	n/a	RESPONSE	n/a	n/a	n/a	n/a	n/a	n/a	n/a	blue
332.8564	1.0167	ITI	n/a	n/a	n/a	n/a	n/a	n/a	n/a	n/a
333.8731	0.5167	FIXCROSS	n/a	n/a	n/a	n/a	n/a	n/a	n/a	n/a
334.3897	0.7833	COLOR_NAME	36	Neutral	żółty	yellow	Neutral	Neutral	hit	n/a
335.1454	n/a	RESPONSE	n/a	n/a	n/a	n/a	n/a	n/a	n/a	yellow
335.1731	1.0167	ITI	n/a	n/a	n/a	n/a	n/a	n/a	n/a	n/a
336.1898	0.5167	FIXCROSS	n/a	n/a	n/a	n/a	n/a	n/a	n/a	n/a
336.7064	0.6	COLOR_NAME	37	Incongruent	niebieski	blue	zielony	green	incorrect	n/a
337.289	n/a	RESPONSE	n/a	n/a	n/a	n/a	n/a	n/a	n/a	red
337.3064	1.0167	ITI	n/a	n/a	n/a	n/a	n/a	n/a	n/a	n/a
338.3231	0.5167	FIXCROSS	n/a	n/a	n/a	n/a	n/a	n/a	n/a	n/a
338.8398	0.7667	COLOR_NAME	38	Incongruent	niebieski	blue	czerwony	red	hit	n/a
339.5765	n/a	RESPONSE	n/a	n/a	n/a	n/a	n/a	n/a	n/a	blue
339.6064	1.0167	ITI	n/a	n/a	n/a	n/a	n/a	n/a	n/a	n/a
340.6231	0.5167	FIXCROSS	n/a	n/a	n/a	n/a	n/a	n/a	n/a	n/a
341.1398	0.7667	COLOR_NAME	39	Incongruent	zielony	green	czerwony	red	hit	n/a
341.88	n/a	RESPONSE	n/a	n/a	n/a	n/a	n/a	n/a	n/a	green
341.9065	1.0167	ITI	n/a	n/a	n/a	n/a	n/a	n/a	n/a	n/a
342.9231	0.5167	FIXCROSS	n/a	n/a	n/a	n/a	n/a	n/a	n/a	n/a
343.4398	0.65	COLOR_NAME	40	Neutral	niebieski	blue	Neutral	Neutral	hit	n/a
344.0716	n/a	RESPONSE	n/a	n/a	n/a	n/a	n/a	n/a	n/a	blue
344.0898	1.0167	ITI	n/a	n/a	n/a	n/a	n/a	n/a	n/a	n/a
345.1065	0.5167	FIXCROSS	n/a	n/a	n/a	n/a	n/a	n/a	n/a	n/a
345.6231	0.8333	COLOR_NAME	41	Incongruent	zielony	green	czerwony	red	hit	n/a
346.4391	n/a	RESPONSE	n/a	n/a	n/a	n/a	n/a	n/a	n/a	green
346.4565	1.0167	ITI	n/a	n/a	n/a	n/a	n/a	n/a	n/a	n/a
347.4732	0.5167	FIXCROSS	n/a	n/a	n/a	n/a	n/a	n/a	n/a	n/a
347.9898	0.4833	COLOR_NAME	42	Neutral	żółty	yellow	Neutral	Neutral	hit	n/a
348.4547	n/a	RESPONSE	n/a	n/a	n/a	n/a	n/a	n/a	n/a	yellow
348.4732	1.0167	ITI	n/a	n/a	n/a	n/a	n/a	n/a	n/a	n/a
349.4898	0.5167	FIXCROSS	n/a	n/a	n/a	n/a	n/a	n/a	n/a	n/a
350.0065	0.6	COLOR_NAME	43	Incongruent	żółty	yellow	czerwony	red	hit	n/a
350.5822	n/a	RESPONSE	n/a	n/a	n/a	n/a	n/a	n/a	n/a	yellow
350.6065	1.0167	ITI	n/a	n/a	n/a	n/a	n/a	n/a	n/a	n/a
351.6232	0.5167	FIXCROSS	n/a	n/a	n/a	n/a	n/a	n/a	n/a	n/a
352.1399	0.7333	COLOR_NAME	44	Neutral	czerwony	red	Neutral	Neutral	hit	n/a
352.8537	n/a	RESPONSE	n/a	n/a	n/a	n/a	n/a	n/a	n/a	red
352.8732	1.0167	ITI	n/a	n/a	n/a	n/a	n/a	n/a	n/a	n/a
353.8899	0.5167	FIXCROSS	n/a	n/a	n/a	n/a	n/a	n/a	n/a	n/a
354.4065	0.8833	COLOR_NAME	45	Incongruent	czerwony	red	zielony	green	hit	n/a
355.2692	n/a	RESPONSE	n/a	n/a	n/a	n/a	n/a	n/a	n/a	red
355.2899	1.0167	ITI	n/a	n/a	n/a	n/a	n/a	n/a	n/a	n/a
356.3065	0.5167	FIXCROSS	n/a	n/a	n/a	n/a	n/a	n/a	n/a	n/a
356.8232	0.9667	COLOR_NAME	46	Neutral	zielony	green	Neutral	Neutral	hit	n/a
357.7647	n/a	RESPONSE	n/a	n/a	n/a	n/a	n/a	n/a	n/a	green
357.7899	1.0167	ITI	n/a	n/a	n/a	n/a	n/a	n/a	n/a	n/a
358.8066	0.5167	FIXCROSS	n/a	n/a	n/a	n/a	n/a	n/a	n/a	n/a
359.3232	0.8333	COLOR_NAME	47	Neutral	niebieski	blue	Neutral	Neutral	hit	n/a
360.1322	n/a	RESPONSE	n/a	n/a	n/a	n/a	n/a	n/a	n/a	blue
360.1566	1.0167	ITI	n/a	n/a	n/a	n/a	n/a	n/a	n/a	n/a
361.1732	0.5167	FIXCROSS	n/a	n/a	n/a	n/a	n/a	n/a	n/a	n/a
361.6899	0.8667	COLOR_NAME	48	Neutral	żółty	yellow	Neutral	Neutral	hit	n/a
362.5317	n/a	RESPONSE	n/a	n/a	n/a	n/a	n/a	n/a	n/a	yellow
362.5566	1.0167	ITI	n/a	n/a	n/a	n/a	n/a	n/a	n/a	n/a
363.5733	0.5167	FIXCROSS	n/a	n/a	n/a	n/a	n/a	n/a	n/a	n/a
364.0899	0.7333	COLOR_NAME	49	Incongruent	żółty	yellow	zielony	green	hit	n/a
364.8032	n/a	RESPONSE	n/a	n/a	n/a	n/a	n/a	n/a	n/a	yellow
364.8233	1.0167	ITI	n/a	n/a	n/a	n/a	n/a	n/a	n/a	n/a
365.8399	0.5167	FIXCROSS	n/a	n/a	n/a	n/a	n/a	n/a	n/a	n/a
366.3566	0.5833	COLOR_NAME	50	Incongruent	żółty	yellow	niebieski	blue	hit	n/a
366.9147	n/a	RESPONSE	n/a	n/a	n/a	n/a	n/a	n/a	n/a	yellow
366.94	1.0167	ITI	n/a	n/a	n/a	n/a	n/a	n/a	n/a	n/a
367.9566	0.5167	FIXCROSS	n/a	n/a	n/a	n/a	n/a	n/a	n/a	n/a
368.4733	0.4	COLOR_NAME	51	Neutral	żółty	yellow	Neutral	Neutral	hit	n/a
368.8504	n/a	RESPONSE	n/a	n/a	n/a	n/a	n/a	n/a	n/a	yellow
368.8733	1.0167	ITI	n/a	n/a	n/a	n/a	n/a	n/a	n/a	n/a
369.89	0.5167	FIXCROSS	n/a	n/a	n/a	n/a	n/a	n/a	n/a	n/a
370.4066	0.7	COLOR_NAME	52	Neutral	zielony	green	Neutral	Neutral	hit	n/a
371.0739	n/a	RESPONSE	n/a	n/a	n/a	n/a	n/a	n/a	n/a	green
371.1066	1.0167	ITI	n/a	n/a	n/a	n/a	n/a	n/a	n/a	n/a
372.1233	0.5167	FIXCROSS	n/a	n/a	n/a	n/a	n/a	n/a	n/a	n/a
372.64	0.5167	COLOR_NAME	53	Neutral	czerwony	red	Neutral	Neutral	hit	n/a
373.1375	n/a	RESPONSE	n/a	n/a	n/a	n/a	n/a	n/a	n/a	red
373.1567	1.0167	ITI	n/a	n/a	n/a	n/a	n/a	n/a	n/a	n/a
374.1733	0.5167	FIXCROSS	n/a	n/a	n/a	n/a	n/a	n/a	n/a	n/a
374.69	0.75	COLOR_NAME	54	Neutral	niebieski	blue	Neutral	Neutral	hit	n/a
375.409	n/a	RESPONSE	n/a	n/a	n/a	n/a	n/a	n/a	n/a	blue
375.44	1.0167	ITI	n/a	n/a	n/a	n/a	n/a	n/a	n/a	n/a
376.4567	0.5167	FIXCROSS	n/a	n/a	n/a	n/a	n/a	n/a	n/a	n/a
376.9734	0.5167	COLOR_NAME	55	Incongruent	żółty	yellow	zielony	green	hit	n/a
377.4725	n/a	RESPONSE	n/a	n/a	n/a	n/a	n/a	n/a	n/a	yellow
377.49	1.0167	ITI	n/a	n/a	n/a	n/a	n/a	n/a	n/a	n/a
378.5067	0.5167	FIXCROSS	n/a	n/a	n/a	n/a	n/a	n/a	n/a	n/a
379.0234	0.5667	COLOR_NAME	56	Neutral	żółty	yellow	Neutral	Neutral	hit	n/a
379.5681	n/a	RESPONSE	n/a	n/a	n/a	n/a	n/a	n/a	n/a	yellow
379.59	1.0167	ITI	n/a	n/a	n/a	n/a	n/a	n/a	n/a	n/a
380.6067	0.5167	FIXCROSS	n/a	n/a	n/a	n/a	n/a	n/a	n/a	n/a
381.1234	0.5667	COLOR_NAME	57	Neutral	żółty	yellow	Neutral	Neutral	hit	n/a
381.6636	n/a	RESPONSE	n/a	n/a	n/a	n/a	n/a	n/a	n/a	yellow
381.69	1.0167	ITI	n/a	n/a	n/a	n/a	n/a	n/a	n/a	n/a
382.7067	0.5167	FIXCROSS	n/a	n/a	n/a	n/a	n/a	n/a	n/a	n/a
383.2234	0.7167	COLOR_NAME	58	Incongruent	niebieski	blue	czerwony	red	hit	n/a
383.9192	n/a	RESPONSE	n/a	n/a	n/a	n/a	n/a	n/a	n/a	blue
383.9401	1.0167	ITI	n/a	n/a	n/a	n/a	n/a	n/a	n/a	n/a
384.9567	0.5167	FIXCROSS	n/a	n/a	n/a	n/a	n/a	n/a	n/a	n/a
385.4734	0.7667	COLOR_NAME	59	Neutral	niebieski	blue	Neutral	Neutral	hit	n/a
386.2067	n/a	RESPONSE	n/a	n/a	n/a	n/a	n/a	n/a	n/a	blue
386.2401	1.0167	ITI	n/a	n/a	n/a	n/a	n/a	n/a	n/a	n/a
387.2567	0.5167	FIXCROSS	n/a	n/a	n/a	n/a	n/a	n/a	n/a	n/a
387.7734	0.9	COLOR_NAME	60	Incongruent	zielony	green	niebieski	blue	hit	n/a
388.6542	n/a	RESPONSE	n/a	n/a	n/a	n/a	n/a	n/a	n/a	green
388.6734	1.0167	ITI	n/a	n/a	n/a	n/a	n/a	n/a	n/a	n/a
389.6901	0.5167	FIXCROSS	n/a	n/a	n/a	n/a	n/a	n/a	n/a	n/a
390.2068	1.0333	COLOR_NAME	61	Neutral	zielony	green	Neutral	Neutral	hit	n/a
391.2136	n/a	RESPONSE	n/a	n/a	n/a	n/a	n/a	n/a	n/a	green
391.2401	1.0167	ITI	n/a	n/a	n/a	n/a	n/a	n/a	n/a	n/a
392.2568	0.5167	FIXCROSS	n/a	n/a	n/a	n/a	n/a	n/a	n/a	n/a
392.7734	0.7833	COLOR_NAME	62	Neutral	niebieski	blue	Neutral	Neutral	hit	n/a
393.5331	n/a	RESPONSE	n/a	n/a	n/a	n/a	n/a	n/a	n/a	blue
393.5568	1.0167	ITI	n/a	n/a	n/a	n/a	n/a	n/a	n/a	n/a
394.5735	0.5167	FIXCROSS	n/a	n/a	n/a	n/a	n/a	n/a	n/a	n/a
395.0901	0.5833	COLOR_NAME	63	Neutral	niebieski	blue	Neutral	Neutral	hit	n/a
395.6447	n/a	RESPONSE	n/a	n/a	n/a	n/a	n/a	n/a	n/a	blue
395.6735	1.0167	ITI	n/a	n/a	n/a	n/a	n/a	n/a	n/a	n/a
396.6901	0.5167	FIXCROSS	n/a	n/a	n/a	n/a	n/a	n/a	n/a	n/a
397.2068	0.65	COLOR_NAME	64	Neutral	czerwony	red	Neutral	Neutral	hit	n/a
397.8362	n/a	RESPONSE	n/a	n/a	n/a	n/a	n/a	n/a	n/a	red
397.8568	1.0167	ITI	n/a	n/a	n/a	n/a	n/a	n/a	n/a	n/a
398.8735	0.5167	FIXCROSS	n/a	n/a	n/a	n/a	n/a	n/a	n/a	n/a
399.3901	0.8167	COLOR_NAME	65	Incongruent	zielony	green	niebieski	blue	hit	n/a
400.1877	n/a	RESPONSE	n/a	n/a	n/a	n/a	n/a	n/a	n/a	green
400.2068	1.0167	ITI	n/a	n/a	n/a	n/a	n/a	n/a	n/a	n/a
401.2235	0.5167	FIXCROSS	n/a	n/a	n/a	n/a	n/a	n/a	n/a	n/a
401.7402	0.7833	COLOR_NAME	66	Incongruent	czerwony	red	niebieski	blue	hit	n/a
402.4913	n/a	RESPONSE	n/a	n/a	n/a	n/a	n/a	n/a	n/a	red
402.5235	1.0167	ITI	n/a	n/a	n/a	n/a	n/a	n/a	n/a	n/a
403.5402	0.5167	FIXCROSS	n/a	n/a	n/a	n/a	n/a	n/a	n/a	n/a
404.0568	0.7833	COLOR_NAME	67	Incongruent	niebieski	blue	zielony	green	hit	n/a
404.8108	n/a	RESPONSE	n/a	n/a	n/a	n/a	n/a	n/a	n/a	blue
404.8402	1.0167	ITI	n/a	n/a	n/a	n/a	n/a	n/a	n/a	n/a
405.8569	0.5167	FIXCROSS	n/a	n/a	n/a	n/a	n/a	n/a	n/a	n/a
406.3735	0.7	COLOR_NAME	68	Neutral	zielony	green	Neutral	Neutral	hit	n/a
407.0503	n/a	RESPONSE	n/a	n/a	n/a	n/a	n/a	n/a	n/a	green
407.0735	1.0167	ITI	n/a	n/a	n/a	n/a	n/a	n/a	n/a	n/a
408.0902	0.5167	FIXCROSS	n/a	n/a	n/a	n/a	n/a	n/a	n/a	n/a
408.6069	0.6333	COLOR_NAME	69	Incongruent	czerwony	red	niebieski	blue	hit	n/a
409.2099	n/a	RESPONSE	n/a	n/a	n/a	n/a	n/a	n/a	n/a	red
409.2402	1.0167	ITI	n/a	n/a	n/a	n/a	n/a	n/a	n/a	n/a
410.2569	0.5167	FIXCROSS	n/a	n/a	n/a	n/a	n/a	n/a	n/a	n/a
410.7736	0.8667	COLOR_NAME	70	Incongruent	zielony	green	czerwony	red	hit	n/a
411.6093	n/a	RESPONSE	n/a	n/a	n/a	n/a	n/a	n/a	n/a	green
411.6402	1.0167	ITI	n/a	n/a	n/a	n/a	n/a	n/a	n/a	n/a
412.6569	0.5167	FIXCROSS	n/a	n/a	n/a	n/a	n/a	n/a	n/a	n/a
413.1736	0.6167	COLOR_NAME	71	Incongruent	zielony	green	niebieski	blue	hit	n/a
413.7689	n/a	RESPONSE	n/a	n/a	n/a	n/a	n/a	n/a	n/a	green
413.7902	1.0167	ITI	n/a	n/a	n/a	n/a	n/a	n/a	n/a	n/a
414.8069	0.5167	FIXCROSS	n/a	n/a	n/a	n/a	n/a	n/a	n/a	n/a
415.3236	0.4833	COLOR_NAME	72	Incongruent	żółty	yellow	zielony	green	hit	n/a
415.7845	n/a	RESPONSE	n/a	n/a	n/a	n/a	n/a	n/a	n/a	yellow
415.8069	1.0333	ITI	n/a	n/a	n/a	n/a	n/a	n/a	n/a	n/a
419.7676	n/a	RESPONSE	n/a	n/a	n/a	n/a	n/a	n/a	n/a	n/a
