onset	duration	trial_type	trial_number	stroop_condition	stim_text(PL)	stim_text(eng)	stim_color(PL)	stim_color(eng)	response_type	response_color
0.0	n/a	RESPONSE	n/a	n/a	n/a	n/a	n/a	n/a	n/a	n/a
0.0559	1.0333	ITI	n/a	n/a	n/a	n/a	n/a	n/a	n/a	n/a
1.0893	0.5167	FIXCROSS	n/a	n/a	n/a	n/a	n/a	n/a	n/a	n/a
1.6059	1.7167	T_INK	1	Neutral	xxxxxxx	xxxxxxx	niebieski	blue	hit	n/a
3.2915	n/a	RESPONSE	n/a	n/a	n/a	n/a	n/a	n/a	n/a	blue
3.3226	0.5167	FEEDBACK	n/a	n/a	n/a	n/a	n/a	n/a	n/a	n/a
3.8393	1.0167	ITI	n/a	n/a	n/a	n/a	n/a	n/a	n/a	n/a
4.856	0.5167	FIXCROSS	n/a	n/a	n/a	n/a	n/a	n/a	n/a	n/a
5.3726	0.7167	T_INK	2	Neutral	xxxxxxxx	xxxxxxxx	żółty	yellow	hit	n/a
6.0557	n/a	RESPONSE	n/a	n/a	n/a	n/a	n/a	n/a	n/a	yellow
6.0893	0.5167	FEEDBACK	n/a	n/a	n/a	n/a	n/a	n/a	n/a	n/a
6.606	1.0167	ITI	n/a	n/a	n/a	n/a	n/a	n/a	n/a	n/a
7.6227	0.5167	FIXCROSS	n/a	n/a	n/a	n/a	n/a	n/a	n/a	n/a
8.1393	0.8	T_INK	3	Neutral	xxxxx	xxxxx	niebieski	blue	hit	n/a
8.8997	n/a	RESPONSE	n/a	n/a	n/a	n/a	n/a	n/a	n/a	blue
8.9393	0.5167	FEEDBACK	n/a	n/a	n/a	n/a	n/a	n/a	n/a	n/a
9.456	1.0167	ITI	n/a	n/a	n/a	n/a	n/a	n/a	n/a	n/a
10.4727	0.5167	FIXCROSS	n/a	n/a	n/a	n/a	n/a	n/a	n/a	n/a
10.9894	1.2333	T_INK	4	Incongruent	żółty	yellow	zielony	green	hit	n/a
12.1911	n/a	RESPONSE	n/a	n/a	n/a	n/a	n/a	n/a	n/a	green
12.2227	0.5167	FEEDBACK	n/a	n/a	n/a	n/a	n/a	n/a	n/a	n/a
12.7394	1.0167	ITI	n/a	n/a	n/a	n/a	n/a	n/a	n/a	n/a
13.756	0.5167	FIXCROSS	n/a	n/a	n/a	n/a	n/a	n/a	n/a	n/a
14.2727	1.7167	T_INK	5	Incongruent	czerwony	red	niebieski	blue	hit	n/a
15.9619	n/a	RESPONSE	n/a	n/a	n/a	n/a	n/a	n/a	n/a	blue
15.9894	0.5167	FEEDBACK	n/a	n/a	n/a	n/a	n/a	n/a	n/a	n/a
16.5061	1.0167	ITI	n/a	n/a	n/a	n/a	n/a	n/a	n/a	n/a
17.5227	0.5167	FIXCROSS	n/a	n/a	n/a	n/a	n/a	n/a	n/a	n/a
18.0394	0.9	T_INK	6	Incongruent	żółty	yellow	niebieski	blue	hit	n/a
18.9179	n/a	RESPONSE	n/a	n/a	n/a	n/a	n/a	n/a	n/a	blue
18.9394	0.5167	FEEDBACK	n/a	n/a	n/a	n/a	n/a	n/a	n/a	n/a
19.4561	1.0167	ITI	n/a	n/a	n/a	n/a	n/a	n/a	n/a	n/a
20.4728	0.5167	FIXCROSS	n/a	n/a	n/a	n/a	n/a	n/a	n/a	n/a
20.9894	0.9333	T_INK	7	Neutral	xxxxxxxxx	xxxxxxxxx	zielony	green	hit	n/a
21.8898	n/a	RESPONSE	n/a	n/a	n/a	n/a	n/a	n/a	n/a	green
21.9228	0.5167	FEEDBACK	n/a	n/a	n/a	n/a	n/a	n/a	n/a	n/a
22.4394	1.0167	ITI	n/a	n/a	n/a	n/a	n/a	n/a	n/a	n/a
23.4561	0.5167	FIXCROSS	n/a	n/a	n/a	n/a	n/a	n/a	n/a	n/a
23.9728	0.6167	T_INK	8	Incongruent	niebieski	blue	czerwony	red	hit	n/a
24.5583	n/a	RESPONSE	n/a	n/a	n/a	n/a	n/a	n/a	n/a	red
24.5895	0.5167	FEEDBACK	n/a	n/a	n/a	n/a	n/a	n/a	n/a	n/a
25.1061	1.0167	ITI	n/a	n/a	n/a	n/a	n/a	n/a	n/a	n/a
26.1228	0.5167	FIXCROSS	n/a	n/a	n/a	n/a	n/a	n/a	n/a	n/a
26.6395	0.6167	T_INK	9	Neutral	xxxxxxxxx	xxxxxxxxx	żółty	yellow	hit	n/a
27.2265	n/a	RESPONSE	n/a	n/a	n/a	n/a	n/a	n/a	n/a	yellow
27.2562	0.5167	FEEDBACK	n/a	n/a	n/a	n/a	n/a	n/a	n/a	n/a
27.7728	1.0167	ITI	n/a	n/a	n/a	n/a	n/a	n/a	n/a	n/a
28.7895	0.5167	FIXCROSS	n/a	n/a	n/a	n/a	n/a	n/a	n/a	n/a
29.3062	0.65	T_INK	10	Neutral	xxxxx	xxxxx	czerwony	red	hit	n/a
29.9267	n/a	RESPONSE	n/a	n/a	n/a	n/a	n/a	n/a	n/a	red
29.9562	0.5167	FEEDBACK	n/a	n/a	n/a	n/a	n/a	n/a	n/a	n/a
30.4728	1.0167	ITI	n/a	n/a	n/a	n/a	n/a	n/a	n/a	n/a
31.4895	0.5167	FIXCROSS	n/a	n/a	n/a	n/a	n/a	n/a	n/a	n/a
32.0062	0.6667	T_INK	11	Neutral	xxxxxxxx	xxxxxxxx	niebieski	blue	hit	n/a
32.643	n/a	RESPONSE	n/a	n/a	n/a	n/a	n/a	n/a	n/a	blue
32.6729	0.5167	FEEDBACK	n/a	n/a	n/a	n/a	n/a	n/a	n/a	n/a
33.1895	1.0167	ITI	n/a	n/a	n/a	n/a	n/a	n/a	n/a	n/a
34.2062	0.5167	FIXCROSS	n/a	n/a	n/a	n/a	n/a	n/a	n/a	n/a
34.7229	0.7667	T_INK	12	Neutral	xxxxxxxx	xxxxxxxx	zielony	green	hit	n/a
35.4551	n/a	RESPONSE	n/a	n/a	n/a	n/a	n/a	n/a	n/a	green
35.4895	0.5167	FEEDBACK	n/a	n/a	n/a	n/a	n/a	n/a	n/a	n/a
36.0062	1.0333	ITI	n/a	n/a	n/a	n/a	n/a	n/a	n/a	n/a
54.7885	n/a	RESPONSE	n/a	n/a	n/a	n/a	n/a	n/a	n/a	n/a
54.8564	1.0167	ITI	n/a	n/a	n/a	n/a	n/a	n/a	n/a	n/a
55.873	0.5167	FIXCROSS	n/a	n/a	n/a	n/a	n/a	n/a	n/a	n/a
56.3897	0.6833	INK	1	Neutral	xxxxx	xxxxx	niebieski	blue	hit	n/a
57.0414	n/a	RESPONSE	n/a	n/a	n/a	n/a	n/a	n/a	n/a	blue
57.0731	1.0167	ITI	n/a	n/a	n/a	n/a	n/a	n/a	n/a	n/a
58.0897	0.5167	FIXCROSS	n/a	n/a	n/a	n/a	n/a	n/a	n/a	n/a
58.6064	1.05	INK	2	Incongruent	zielony	green	żółty	yellow	hit	n/a
59.6299	n/a	RESPONSE	n/a	n/a	n/a	n/a	n/a	n/a	n/a	yellow
59.6564	1.0167	ITI	n/a	n/a	n/a	n/a	n/a	n/a	n/a	n/a
60.6731	0.5167	FIXCROSS	n/a	n/a	n/a	n/a	n/a	n/a	n/a	n/a
61.1898	0.4333	INK	3	Incongruent	czerwony	red	zielony	green	hit	n/a
61.5951	n/a	RESPONSE	n/a	n/a	n/a	n/a	n/a	n/a	n/a	green
61.6231	1.0167	ITI	n/a	n/a	n/a	n/a	n/a	n/a	n/a	n/a
62.6398	0.5167	FIXCROSS	n/a	n/a	n/a	n/a	n/a	n/a	n/a	n/a
63.1564	0.9	INK	4	Incongruent	zielony	green	żółty	yellow	hit	n/a
64.0238	n/a	RESPONSE	n/a	n/a	n/a	n/a	n/a	n/a	n/a	yellow
64.0564	1.0167	ITI	n/a	n/a	n/a	n/a	n/a	n/a	n/a	n/a
65.0731	0.5167	FIXCROSS	n/a	n/a	n/a	n/a	n/a	n/a	n/a	n/a
65.5898	0.7167	INK	5	Incongruent	czerwony	red	zielony	green	hit	n/a
66.2767	n/a	RESPONSE	n/a	n/a	n/a	n/a	n/a	n/a	n/a	green
66.3065	1.0167	ITI	n/a	n/a	n/a	n/a	n/a	n/a	n/a	n/a
67.3231	0.5167	FIXCROSS	n/a	n/a	n/a	n/a	n/a	n/a	n/a	n/a
67.8398	0.5	INK	6	Incongruent	zielony	green	czerwony	red	hit	n/a
68.306	n/a	RESPONSE	n/a	n/a	n/a	n/a	n/a	n/a	n/a	red
68.3398	1.0167	ITI	n/a	n/a	n/a	n/a	n/a	n/a	n/a	n/a
69.3565	0.5167	FIXCROSS	n/a	n/a	n/a	n/a	n/a	n/a	n/a	n/a
69.8732	0.7833	INK	7	Neutral	xxxxxxxx	xxxxxxxx	zielony	green	hit	n/a
70.6387	n/a	RESPONSE	n/a	n/a	n/a	n/a	n/a	n/a	n/a	green
70.6565	1.0167	ITI	n/a	n/a	n/a	n/a	n/a	n/a	n/a	n/a
71.6732	0.5167	FIXCROSS	n/a	n/a	n/a	n/a	n/a	n/a	n/a	n/a
72.1898	0.4167	INK	8	Neutral	xxxxxxxx	xxxxxxxx	zielony	green	hit	n/a
72.588	n/a	RESPONSE	n/a	n/a	n/a	n/a	n/a	n/a	n/a	green
72.6065	1.0167	ITI	n/a	n/a	n/a	n/a	n/a	n/a	n/a	n/a
73.6232	0.5167	FIXCROSS	n/a	n/a	n/a	n/a	n/a	n/a	n/a	n/a
74.1399	0.55	INK	9	Incongruent	zielony	green	czerwony	red	hit	n/a
74.6652	n/a	RESPONSE	n/a	n/a	n/a	n/a	n/a	n/a	n/a	red
74.6899	1.0167	ITI	n/a	n/a	n/a	n/a	n/a	n/a	n/a	n/a
75.7065	0.5167	FIXCROSS	n/a	n/a	n/a	n/a	n/a	n/a	n/a	n/a
76.2232	0.5	INK	10	Neutral	xxxxxxxx	xxxxxxxx	żółty	yellow	hit	n/a
76.6944	n/a	RESPONSE	n/a	n/a	n/a	n/a	n/a	n/a	n/a	yellow
76.7232	1.0167	ITI	n/a	n/a	n/a	n/a	n/a	n/a	n/a	n/a
77.7399	0.5167	FIXCROSS	n/a	n/a	n/a	n/a	n/a	n/a	n/a	n/a
78.2566	0.7167	INK	11	Incongruent	żółty	yellow	zielony	green	hit	n/a
78.9473	n/a	RESPONSE	n/a	n/a	n/a	n/a	n/a	n/a	n/a	green
78.9732	1.0167	ITI	n/a	n/a	n/a	n/a	n/a	n/a	n/a	n/a
79.9899	0.5167	FIXCROSS	n/a	n/a	n/a	n/a	n/a	n/a	n/a	n/a
80.5066	0.6167	INK	12	Neutral	xxxxxxxx	xxxxxxxx	niebieski	blue	hit	n/a
81.1044	n/a	RESPONSE	n/a	n/a	n/a	n/a	n/a	n/a	n/a	blue
81.1232	1.0167	ITI	n/a	n/a	n/a	n/a	n/a	n/a	n/a	n/a
82.1399	0.5167	FIXCROSS	n/a	n/a	n/a	n/a	n/a	n/a	n/a	n/a
82.6566	0.4833	INK	13	Neutral	xxxxxxxxx	xxxxxxxxx	zielony	green	hit	n/a
83.1176	n/a	RESPONSE	n/a	n/a	n/a	n/a	n/a	n/a	n/a	green
83.1399	1.0167	ITI	n/a	n/a	n/a	n/a	n/a	n/a	n/a	n/a
84.1566	0.5167	FIXCROSS	n/a	n/a	n/a	n/a	n/a	n/a	n/a	n/a
84.6733	0.4	INK	14	Neutral	xxxxxxx	xxxxxxx	czerwony	red	hit	n/a
85.051	n/a	RESPONSE	n/a	n/a	n/a	n/a	n/a	n/a	n/a	red
85.0733	1.0167	ITI	n/a	n/a	n/a	n/a	n/a	n/a	n/a	n/a
86.09	0.5167	FIXCROSS	n/a	n/a	n/a	n/a	n/a	n/a	n/a	n/a
86.6066	0.3667	INK	15	Neutral	xxxxxxx	xxxxxxx	żółty	yellow	hit	n/a
86.9523	n/a	RESPONSE	n/a	n/a	n/a	n/a	n/a	n/a	n/a	yellow
86.9733	1.0167	ITI	n/a	n/a	n/a	n/a	n/a	n/a	n/a	n/a
87.99	0.5167	FIXCROSS	n/a	n/a	n/a	n/a	n/a	n/a	n/a	n/a
88.5066	0.9333	INK	16	Neutral	xxxxx	xxxxx	czerwony	red	hit	n/a
89.4129	n/a	RESPONSE	n/a	n/a	n/a	n/a	n/a	n/a	n/a	red
89.44	1.0167	ITI	n/a	n/a	n/a	n/a	n/a	n/a	n/a	n/a
90.4567	0.5167	FIXCROSS	n/a	n/a	n/a	n/a	n/a	n/a	n/a	n/a
90.9733	1.1833	INK	17	Incongruent	żółty	yellow	niebieski	blue	hit	n/a
92.1293	n/a	RESPONSE	n/a	n/a	n/a	n/a	n/a	n/a	n/a	blue
92.1567	1.0167	ITI	n/a	n/a	n/a	n/a	n/a	n/a	n/a	n/a
93.1733	0.5167	FIXCROSS	n/a	n/a	n/a	n/a	n/a	n/a	n/a	n/a
93.69	0.7167	INK	18	Incongruent	niebieski	blue	żółty	yellow	hit	n/a
94.3821	n/a	RESPONSE	n/a	n/a	n/a	n/a	n/a	n/a	n/a	yellow
94.4067	1.0167	ITI	n/a	n/a	n/a	n/a	n/a	n/a	n/a	n/a
95.4234	0.5167	FIXCROSS	n/a	n/a	n/a	n/a	n/a	n/a	n/a	n/a
95.94	0.65	INK	19	Incongruent	czerwony	red	niebieski	blue	hit	n/a
96.5711	n/a	RESPONSE	n/a	n/a	n/a	n/a	n/a	n/a	n/a	blue
96.59	1.0167	ITI	n/a	n/a	n/a	n/a	n/a	n/a	n/a	n/a
97.6067	0.5167	FIXCROSS	n/a	n/a	n/a	n/a	n/a	n/a	n/a	n/a
98.1234	0.5	INK	20	Neutral	xxxxxxxx	xxxxxxxx	niebieski	blue	hit	n/a
98.6003	n/a	RESPONSE	n/a	n/a	n/a	n/a	n/a	n/a	n/a	blue
98.6234	1.0167	ITI	n/a	n/a	n/a	n/a	n/a	n/a	n/a	n/a
99.6401	0.5167	FIXCROSS	n/a	n/a	n/a	n/a	n/a	n/a	n/a	n/a
100.1567	0.4667	INK	21	Incongruent	czerwony	red	niebieski	blue	hit	n/a
100.5975	n/a	RESPONSE	n/a	n/a	n/a	n/a	n/a	n/a	n/a	blue
100.6234	1.0167	ITI	n/a	n/a	n/a	n/a	n/a	n/a	n/a	n/a
101.6401	0.5167	FIXCROSS	n/a	n/a	n/a	n/a	n/a	n/a	n/a	n/a
102.1568	0.9833	INK	22	Incongruent	żółty	yellow	zielony	green	hit	n/a
103.1221	n/a	RESPONSE	n/a	n/a	n/a	n/a	n/a	n/a	n/a	green
103.1401	1.0167	ITI	n/a	n/a	n/a	n/a	n/a	n/a	n/a	n/a
104.1568	0.5167	FIXCROSS	n/a	n/a	n/a	n/a	n/a	n/a	n/a	n/a
104.6734	0.5167	INK	23	Neutral	xxxxxxxx	xxxxxxxx	zielony	green	hit	n/a
105.1672	n/a	RESPONSE	n/a	n/a	n/a	n/a	n/a	n/a	n/a	green
105.1901	1.0167	ITI	n/a	n/a	n/a	n/a	n/a	n/a	n/a	n/a
106.2068	0.5167	FIXCROSS	n/a	n/a	n/a	n/a	n/a	n/a	n/a	n/a
106.7235	0.5167	INK	24	Incongruent	czerwony	red	żółty	yellow	hit	n/a
107.2125	n/a	RESPONSE	n/a	n/a	n/a	n/a	n/a	n/a	n/a	yellow
107.2401	1.0167	ITI	n/a	n/a	n/a	n/a	n/a	n/a	n/a	n/a
108.2568	0.5167	FIXCROSS	n/a	n/a	n/a	n/a	n/a	n/a	n/a	n/a
108.7735	0.55	INK	25	Neutral	xxxxx	xxxxx	zielony	green	hit	n/a
109.3055	n/a	RESPONSE	n/a	n/a	n/a	n/a	n/a	n/a	n/a	green
109.3235	1.0167	ITI	n/a	n/a	n/a	n/a	n/a	n/a	n/a	n/a
110.3402	0.5167	FIXCROSS	n/a	n/a	n/a	n/a	n/a	n/a	n/a	n/a
110.8568	0.55	INK	26	Neutral	xxxxx	xxxxx	niebieski	blue	hit	n/a
111.3828	n/a	RESPONSE	n/a	n/a	n/a	n/a	n/a	n/a	n/a	blue
111.4068	1.0167	ITI	n/a	n/a	n/a	n/a	n/a	n/a	n/a	n/a
112.4235	0.5167	FIXCROSS	n/a	n/a	n/a	n/a	n/a	n/a	n/a	n/a
112.9402	0.6333	INK	27	Neutral	xxxxxxxxx	xxxxxxxxx	zielony	green	hit	n/a
113.5558	n/a	RESPONSE	n/a	n/a	n/a	n/a	n/a	n/a	n/a	green
113.5735	1.0167	ITI	n/a	n/a	n/a	n/a	n/a	n/a	n/a	n/a
114.5902	0.5167	FIXCROSS	n/a	n/a	n/a	n/a	n/a	n/a	n/a	n/a
115.1069	0.4333	INK	28	Neutral	xxxxx	xxxxx	czerwony	red	hit	n/a
115.5211	n/a	RESPONSE	n/a	n/a	n/a	n/a	n/a	n/a	n/a	red
115.5402	1.0167	ITI	n/a	n/a	n/a	n/a	n/a	n/a	n/a	n/a
116.5569	0.5167	FIXCROSS	n/a	n/a	n/a	n/a	n/a	n/a	n/a	n/a
117.0735	0.3667	INK	29	Incongruent	czerwony	red	żółty	yellow	hit	n/a
117.4225	n/a	RESPONSE	n/a	n/a	n/a	n/a	n/a	n/a	n/a	yellow
117.4402	1.0167	ITI	n/a	n/a	n/a	n/a	n/a	n/a	n/a	n/a
118.4569	0.5167	FIXCROSS	n/a	n/a	n/a	n/a	n/a	n/a	n/a	n/a
118.9736	0.55	INK	30	Neutral	xxxxxxxxx	xxxxxxxxx	czerwony	red	hit	n/a
119.4996	n/a	RESPONSE	n/a	n/a	n/a	n/a	n/a	n/a	n/a	red
119.5235	1.0167	ITI	n/a	n/a	n/a	n/a	n/a	n/a	n/a	n/a
120.5402	0.5167	FIXCROSS	n/a	n/a	n/a	n/a	n/a	n/a	n/a	n/a
121.0569	0.9333	INK	31	Incongruent	żółty	yellow	niebieski	blue	hit	n/a
121.9602	n/a	RESPONSE	n/a	n/a	n/a	n/a	n/a	n/a	n/a	blue
121.9902	1.0167	ITI	n/a	n/a	n/a	n/a	n/a	n/a	n/a	n/a
123.0069	0.5167	FIXCROSS	n/a	n/a	n/a	n/a	n/a	n/a	n/a	n/a
123.5236	0.5833	INK	32	Incongruent	żółty	yellow	niebieski	blue	hit	n/a
124.0853	n/a	RESPONSE	n/a	n/a	n/a	n/a	n/a	n/a	n/a	blue
124.1069	1.0167	ITI	n/a	n/a	n/a	n/a	n/a	n/a	n/a	n/a
125.1236	0.5167	FIXCROSS	n/a	n/a	n/a	n/a	n/a	n/a	n/a	n/a
125.6403	0.45	INK	33	Neutral	xxxxxxxxx	xxxxxxxxx	żółty	yellow	hit	n/a
126.0666	n/a	RESPONSE	n/a	n/a	n/a	n/a	n/a	n/a	n/a	yellow
126.0903	1.0167	ITI	n/a	n/a	n/a	n/a	n/a	n/a	n/a	n/a
127.1069	0.5167	FIXCROSS	n/a	n/a	n/a	n/a	n/a	n/a	n/a	n/a
127.6236	0.4833	INK	34	Incongruent	żółty	yellow	czerwony	red	hit	n/a
128.0797	n/a	RESPONSE	n/a	n/a	n/a	n/a	n/a	n/a	n/a	red
128.107	1.0167	ITI	n/a	n/a	n/a	n/a	n/a	n/a	n/a	n/a
129.1236	0.5167	FIXCROSS	n/a	n/a	n/a	n/a	n/a	n/a	n/a	n/a
129.6403	0.4333	INK	35	Neutral	xxxxxxxxx	xxxxxxxxx	czerwony	red	hit	n/a
130.0451	n/a	RESPONSE	n/a	n/a	n/a	n/a	n/a	n/a	n/a	red
130.0736	1.0167	ITI	n/a	n/a	n/a	n/a	n/a	n/a	n/a	n/a
131.0903	0.5167	FIXCROSS	n/a	n/a	n/a	n/a	n/a	n/a	n/a	n/a
131.607	0.4333	INK	36	Incongruent	niebieski	blue	czerwony	red	hit	n/a
132.0103	n/a	RESPONSE	n/a	n/a	n/a	n/a	n/a	n/a	n/a	red
132.0403	1.0167	ITI	n/a	n/a	n/a	n/a	n/a	n/a	n/a	n/a
133.057	0.5167	FIXCROSS	n/a	n/a	n/a	n/a	n/a	n/a	n/a	n/a
133.5737	0.4333	INK	37	Neutral	xxxxx	xxxxx	czerwony	red	hit	n/a
133.9757	n/a	RESPONSE	n/a	n/a	n/a	n/a	n/a	n/a	n/a	red
134.007	1.0167	ITI	n/a	n/a	n/a	n/a	n/a	n/a	n/a	n/a
135.0237	0.5167	FIXCROSS	n/a	n/a	n/a	n/a	n/a	n/a	n/a	n/a
135.5403	1.0167	INK	38	Incongruent	niebieski	blue	zielony	green	hit	n/a
136.5321	n/a	RESPONSE	n/a	n/a	n/a	n/a	n/a	n/a	n/a	green
136.557	1.0167	ITI	n/a	n/a	n/a	n/a	n/a	n/a	n/a	n/a
137.5737	0.5167	FIXCROSS	n/a	n/a	n/a	n/a	n/a	n/a	n/a	n/a
138.0904	0.5167	INK	39	Neutral	xxxxxxxxx	xxxxxxxxx	czerwony	red	hit	n/a
138.5774	n/a	RESPONSE	n/a	n/a	n/a	n/a	n/a	n/a	n/a	red
138.607	1.0167	ITI	n/a	n/a	n/a	n/a	n/a	n/a	n/a	n/a
139.6237	0.5167	FIXCROSS	n/a	n/a	n/a	n/a	n/a	n/a	n/a	n/a
140.1404	0.8	INK	40	Neutral	xxxxxxxxx	xxxxxxxxx	żółty	yellow	incorrect	n/a
140.8942	n/a	RESPONSE	n/a	n/a	n/a	n/a	n/a	n/a	n/a	green
140.9404	1.0167	ITI	n/a	n/a	n/a	n/a	n/a	n/a	n/a	n/a
141.9571	0.5167	FIXCROSS	n/a	n/a	n/a	n/a	n/a	n/a	n/a	n/a
142.4737	0.65	INK	41	Neutral	xxxxxxx	xxxxxxx	żółty	yellow	hit	n/a
143.0992	n/a	RESPONSE	n/a	n/a	n/a	n/a	n/a	n/a	n/a	yellow
143.1237	1.0167	ITI	n/a	n/a	n/a	n/a	n/a	n/a	n/a	n/a
144.1404	0.5167	FIXCROSS	n/a	n/a	n/a	n/a	n/a	n/a	n/a	n/a
144.6571	0.6	INK	42	Incongruent	zielony	green	niebieski	blue	hit	n/a
145.2242	n/a	RESPONSE	n/a	n/a	n/a	n/a	n/a	n/a	n/a	blue
145.2571	1.0167	ITI	n/a	n/a	n/a	n/a	n/a	n/a	n/a	n/a
146.2738	0.5167	FIXCROSS	n/a	n/a	n/a	n/a	n/a	n/a	n/a	n/a
146.7904	1.15	INK	43	Incongruent	zielony	green	niebieski	blue	hit	n/a
147.9085	n/a	RESPONSE	n/a	n/a	n/a	n/a	n/a	n/a	n/a	blue
147.9404	1.0167	ITI	n/a	n/a	n/a	n/a	n/a	n/a	n/a	n/a
148.9571	0.5167	FIXCROSS	n/a	n/a	n/a	n/a	n/a	n/a	n/a	n/a
149.4738	0.45	INK	44	Incongruent	zielony	green	niebieski	blue	hit	n/a
149.9057	n/a	RESPONSE	n/a	n/a	n/a	n/a	n/a	n/a	n/a	blue
149.9238	1.0167	ITI	n/a	n/a	n/a	n/a	n/a	n/a	n/a	n/a
150.9405	0.5167	FIXCROSS	n/a	n/a	n/a	n/a	n/a	n/a	n/a	n/a
151.4571	0.5	INK	45	Neutral	xxxxxxx	xxxxxxx	niebieski	blue	hit	n/a
151.9351	n/a	RESPONSE	n/a	n/a	n/a	n/a	n/a	n/a	n/a	blue
151.9571	1.0167	ITI	n/a	n/a	n/a	n/a	n/a	n/a	n/a	n/a
152.9738	0.5167	FIXCROSS	n/a	n/a	n/a	n/a	n/a	n/a	n/a	n/a
153.4905	0.6167	INK	46	Incongruent	niebieski	blue	żółty	yellow	hit	n/a
154.0761	n/a	RESPONSE	n/a	n/a	n/a	n/a	n/a	n/a	n/a	yellow
154.1072	1.0167	ITI	n/a	n/a	n/a	n/a	n/a	n/a	n/a	n/a
155.1238	0.5167	FIXCROSS	n/a	n/a	n/a	n/a	n/a	n/a	n/a	n/a
155.6405	0.5833	INK	47	Neutral	xxxxxxx	xxxxxxx	niebieski	blue	hit	n/a
156.2011	n/a	RESPONSE	n/a	n/a	n/a	n/a	n/a	n/a	n/a	blue
156.2238	1.0167	ITI	n/a	n/a	n/a	n/a	n/a	n/a	n/a	n/a
157.2405	0.5167	FIXCROSS	n/a	n/a	n/a	n/a	n/a	n/a	n/a	n/a
157.7572	0.6	INK	48	Incongruent	niebieski	blue	żółty	yellow	hit	n/a
158.3263	n/a	RESPONSE	n/a	n/a	n/a	n/a	n/a	n/a	n/a	yellow
158.3572	1.0167	ITI	n/a	n/a	n/a	n/a	n/a	n/a	n/a	n/a
159.3739	0.5167	FIXCROSS	n/a	n/a	n/a	n/a	n/a	n/a	n/a	n/a
159.8905	0.4667	INK	49	Neutral	xxxxxxxx	xxxxxxxx	żółty	yellow	hit	n/a
160.3395	n/a	RESPONSE	n/a	n/a	n/a	n/a	n/a	n/a	n/a	yellow
160.3572	1.0167	ITI	n/a	n/a	n/a	n/a	n/a	n/a	n/a	n/a
161.3739	0.5167	FIXCROSS	n/a	n/a	n/a	n/a	n/a	n/a	n/a	n/a
161.8905	0.5667	INK	50	Neutral	xxxxx	xxxxx	niebieski	blue	hit	n/a
162.4326	n/a	RESPONSE	n/a	n/a	n/a	n/a	n/a	n/a	n/a	blue
162.4572	1.0167	ITI	n/a	n/a	n/a	n/a	n/a	n/a	n/a	n/a
163.4739	0.5167	FIXCROSS	n/a	n/a	n/a	n/a	n/a	n/a	n/a	n/a
163.9906	0.5	INK	51	Incongruent	niebieski	blue	czerwony	red	hit	n/a
164.4618	n/a	RESPONSE	n/a	n/a	n/a	n/a	n/a	n/a	n/a	red
164.4906	1.0167	ITI	n/a	n/a	n/a	n/a	n/a	n/a	n/a	n/a
165.5072	0.5167	FIXCROSS	n/a	n/a	n/a	n/a	n/a	n/a	n/a	n/a
166.0239	0.6667	INK	52	Neutral	xxxxxxx	xxxxxxx	niebieski	blue	hit	n/a
166.6668	n/a	RESPONSE	n/a	n/a	n/a	n/a	n/a	n/a	n/a	blue
166.6906	1.0167	ITI	n/a	n/a	n/a	n/a	n/a	n/a	n/a	n/a
167.7073	0.5167	FIXCROSS	n/a	n/a	n/a	n/a	n/a	n/a	n/a	n/a
168.2239	0.65	INK	53	Neutral	xxxxxxx	xxxxxxx	żółty	yellow	hit	n/a
168.8559	n/a	RESPONSE	n/a	n/a	n/a	n/a	n/a	n/a	n/a	yellow
168.8739	1.0167	ITI	n/a	n/a	n/a	n/a	n/a	n/a	n/a	n/a
169.8906	0.5167	FIXCROSS	n/a	n/a	n/a	n/a	n/a	n/a	n/a	n/a
170.4073	0.5167	INK	54	Incongruent	żółty	yellow	czerwony	red	hit	n/a
170.901	n/a	RESPONSE	n/a	n/a	n/a	n/a	n/a	n/a	n/a	red
170.924	1.0167	ITI	n/a	n/a	n/a	n/a	n/a	n/a	n/a	n/a
171.9406	0.5167	FIXCROSS	n/a	n/a	n/a	n/a	n/a	n/a	n/a	n/a
172.4573	0.5	INK	55	Neutral	xxxxxxxx	xxxxxxxx	żółty	yellow	hit	n/a
172.9302	n/a	RESPONSE	n/a	n/a	n/a	n/a	n/a	n/a	n/a	yellow
172.9573	1.0167	ITI	n/a	n/a	n/a	n/a	n/a	n/a	n/a	n/a
173.974	0.5167	FIXCROSS	n/a	n/a	n/a	n/a	n/a	n/a	n/a	n/a
174.4907	0.6167	INK	56	Incongruent	zielony	green	czerwony	red	hit	n/a
175.0872	n/a	RESPONSE	n/a	n/a	n/a	n/a	n/a	n/a	n/a	red
175.1073	1.0167	ITI	n/a	n/a	n/a	n/a	n/a	n/a	n/a	n/a
176.124	0.5167	FIXCROSS	n/a	n/a	n/a	n/a	n/a	n/a	n/a	n/a
176.6407	0.7833	INK	57	Neutral	xxxxxxxx	xxxxxxxx	niebieski	blue	hit	n/a
177.404	n/a	RESPONSE	n/a	n/a	n/a	n/a	n/a	n/a	n/a	blue
177.424	1.0167	ITI	n/a	n/a	n/a	n/a	n/a	n/a	n/a	n/a
178.4407	0.5167	FIXCROSS	n/a	n/a	n/a	n/a	n/a	n/a	n/a	n/a
178.9574	0.6333	INK	58	Neutral	xxxxx	xxxxx	zielony	green	hit	n/a
179.561	n/a	RESPONSE	n/a	n/a	n/a	n/a	n/a	n/a	n/a	green
179.5907	1.0167	ITI	n/a	n/a	n/a	n/a	n/a	n/a	n/a	n/a
180.6074	0.5167	FIXCROSS	n/a	n/a	n/a	n/a	n/a	n/a	n/a	n/a
181.124	0.45	INK	59	Neutral	xxxxxxxxx	xxxxxxxxx	zielony	green	hit	n/a
181.5423	n/a	RESPONSE	n/a	n/a	n/a	n/a	n/a	n/a	n/a	green
181.574	1.0167	ITI	n/a	n/a	n/a	n/a	n/a	n/a	n/a	n/a
182.5907	0.5167	FIXCROSS	n/a	n/a	n/a	n/a	n/a	n/a	n/a	n/a
183.1074	0.6167	INK	60	Neutral	xxxxxxxxx	xxxxxxxxx	żółty	yellow	hit	n/a
183.6994	n/a	RESPONSE	n/a	n/a	n/a	n/a	n/a	n/a	n/a	yellow
183.7241	1.0167	ITI	n/a	n/a	n/a	n/a	n/a	n/a	n/a	n/a
184.7407	0.5167	FIXCROSS	n/a	n/a	n/a	n/a	n/a	n/a	n/a	n/a
185.2574	0.45	INK	61	Incongruent	czerwony	red	żółty	yellow	hit	n/a
185.6807	n/a	RESPONSE	n/a	n/a	n/a	n/a	n/a	n/a	n/a	yellow
185.7074	1.0167	ITI	n/a	n/a	n/a	n/a	n/a	n/a	n/a	n/a
186.7241	0.5167	FIXCROSS	n/a	n/a	n/a	n/a	n/a	n/a	n/a	n/a
187.2407	0.75	INK	62	Neutral	xxxxx	xxxxx	zielony	green	hit	n/a
187.9656	n/a	RESPONSE	n/a	n/a	n/a	n/a	n/a	n/a	n/a	green
187.9908	1.0167	ITI	n/a	n/a	n/a	n/a	n/a	n/a	n/a	n/a
189.0074	0.5167	FIXCROSS	n/a	n/a	n/a	n/a	n/a	n/a	n/a	n/a
189.5241	0.65	INK	63	Incongruent	żółty	yellow	zielony	green	hit	n/a
190.1545	n/a	RESPONSE	n/a	n/a	n/a	n/a	n/a	n/a	n/a	green
190.1741	1.0167	ITI	n/a	n/a	n/a	n/a	n/a	n/a	n/a	n/a
191.1908	0.5167	FIXCROSS	n/a	n/a	n/a	n/a	n/a	n/a	n/a	n/a
191.7074	0.6333	INK	64	Incongruent	żółty	yellow	czerwony	red	hit	n/a
192.3116	n/a	RESPONSE	n/a	n/a	n/a	n/a	n/a	n/a	n/a	red
192.3408	1.0167	ITI	n/a	n/a	n/a	n/a	n/a	n/a	n/a	n/a
193.3575	0.5167	FIXCROSS	n/a	n/a	n/a	n/a	n/a	n/a	n/a	n/a
193.8741	0.8833	INK	65	Incongruent	czerwony	red	niebieski	blue	hit	n/a
194.7402	n/a	RESPONSE	n/a	n/a	n/a	n/a	n/a	n/a	n/a	blue
194.7575	1.0167	ITI	n/a	n/a	n/a	n/a	n/a	n/a	n/a	n/a
195.7741	0.5167	FIXCROSS	n/a	n/a	n/a	n/a	n/a	n/a	n/a	n/a
196.2908	0.5167	INK	66	Incongruent	niebieski	blue	czerwony	red	hit	n/a
196.7853	n/a	RESPONSE	n/a	n/a	n/a	n/a	n/a	n/a	n/a	red
196.8075	1.0167	ITI	n/a	n/a	n/a	n/a	n/a	n/a	n/a	n/a
197.8242	0.5167	FIXCROSS	n/a	n/a	n/a	n/a	n/a	n/a	n/a	n/a
198.3408	0.55	INK	67	Incongruent	zielony	green	żółty	yellow	hit	n/a
198.8626	n/a	RESPONSE	n/a	n/a	n/a	n/a	n/a	n/a	n/a	yellow
198.8908	1.0167	ITI	n/a	n/a	n/a	n/a	n/a	n/a	n/a	n/a
199.9075	0.5167	FIXCROSS	n/a	n/a	n/a	n/a	n/a	n/a	n/a	n/a
200.4242	0.75	INK	68	Incongruent	niebieski	blue	zielony	green	hit	n/a
201.1474	n/a	RESPONSE	n/a	n/a	n/a	n/a	n/a	n/a	n/a	green
201.1742	1.0167	ITI	n/a	n/a	n/a	n/a	n/a	n/a	n/a	n/a
202.1909	0.5167	FIXCROSS	n/a	n/a	n/a	n/a	n/a	n/a	n/a	n/a
202.7075	0.3667	INK	69	Incongruent	czerwony	red	zielony	green	hit	n/a
203.0488	n/a	RESPONSE	n/a	n/a	n/a	n/a	n/a	n/a	n/a	green
203.0742	1.0167	ITI	n/a	n/a	n/a	n/a	n/a	n/a	n/a	n/a
204.0909	0.5167	FIXCROSS	n/a	n/a	n/a	n/a	n/a	n/a	n/a	n/a
204.6075	0.4	INK	70	Incongruent	niebieski	blue	zielony	green	hit	n/a
204.9822	n/a	RESPONSE	n/a	n/a	n/a	n/a	n/a	n/a	n/a	green
205.0075	1.0167	ITI	n/a	n/a	n/a	n/a	n/a	n/a	n/a	n/a
206.0242	0.5167	FIXCROSS	n/a	n/a	n/a	n/a	n/a	n/a	n/a	n/a
206.5409	0.5833	INK	71	Neutral	xxxxxxx	xxxxxxx	czerwony	red	hit	n/a
207.0913	n/a	RESPONSE	n/a	n/a	n/a	n/a	n/a	n/a	n/a	red
207.1242	1.0167	ITI	n/a	n/a	n/a	n/a	n/a	n/a	n/a	n/a
208.1409	0.5167	FIXCROSS	n/a	n/a	n/a	n/a	n/a	n/a	n/a	n/a
208.6576	0.4667	INK	72	Neutral	xxxxxxx	xxxxxxx	czerwony	red	hit	n/a
209.1046	n/a	RESPONSE	n/a	n/a	n/a	n/a	n/a	n/a	n/a	red
209.1242	1.0833	ITI	n/a	n/a	n/a	n/a	n/a	n/a	n/a	n/a
232.0331	n/a	RESPONSE	n/a	n/a	n/a	n/a	n/a	n/a	n/a	n/a
232.0911	1.0167	ITI	n/a	n/a	n/a	n/a	n/a	n/a	n/a	n/a
233.1078	0.5167	FIXCROSS	n/a	n/a	n/a	n/a	n/a	n/a	n/a	n/a
233.6244	1.2	T_COLOR_NAME	1	Incongruent	żółty	yellow	zielony	green	hit	n/a
234.7973	n/a	RESPONSE	n/a	n/a	n/a	n/a	n/a	n/a	n/a	yellow
234.8244	0.5167	FEEDBACK	n/a	n/a	n/a	n/a	n/a	n/a	n/a	n/a
235.3411	1.0167	ITI	n/a	n/a	n/a	n/a	n/a	n/a	n/a	n/a
236.3578	0.5167	FIXCROSS	n/a	n/a	n/a	n/a	n/a	n/a	n/a	n/a
236.8745	0.8167	T_COLOR_NAME	2	Incongruent	niebieski	blue	czerwony	red	hit	n/a
237.6574	n/a	RESPONSE	n/a	n/a	n/a	n/a	n/a	n/a	n/a	blue
237.6911	0.5167	FEEDBACK	n/a	n/a	n/a	n/a	n/a	n/a	n/a	n/a
238.2078	1.0167	ITI	n/a	n/a	n/a	n/a	n/a	n/a	n/a	n/a
239.2245	0.5167	FIXCROSS	n/a	n/a	n/a	n/a	n/a	n/a	n/a	n/a
239.7411	0.7333	T_COLOR_NAME	3	Neutral	niebieski	blue	Neutral	Neutral	hit	n/a
240.4535	n/a	RESPONSE	n/a	n/a	n/a	n/a	n/a	n/a	n/a	blue
240.4745	0.5167	FEEDBACK	n/a	n/a	n/a	n/a	n/a	n/a	n/a	n/a
240.9912	1.0167	ITI	n/a	n/a	n/a	n/a	n/a	n/a	n/a	n/a
242.0078	0.5167	FIXCROSS	n/a	n/a	n/a	n/a	n/a	n/a	n/a	n/a
242.5245	0.75	T_COLOR_NAME	4	Incongruent	żółty	yellow	niebieski	blue	hit	n/a
243.2497	n/a	RESPONSE	n/a	n/a	n/a	n/a	n/a	n/a	n/a	yellow
243.2745	0.5167	FEEDBACK	n/a	n/a	n/a	n/a	n/a	n/a	n/a	n/a
243.7912	1.0167	ITI	n/a	n/a	n/a	n/a	n/a	n/a	n/a	n/a
244.8079	0.5167	FIXCROSS	n/a	n/a	n/a	n/a	n/a	n/a	n/a	n/a
245.3245	0.6333	T_COLOR_NAME	5	Neutral	niebieski	blue	Neutral	Neutral	hit	n/a
245.934	n/a	RESPONSE	n/a	n/a	n/a	n/a	n/a	n/a	n/a	blue
245.9579	0.5167	FEEDBACK	n/a	n/a	n/a	n/a	n/a	n/a	n/a	n/a
246.4745	1.0167	ITI	n/a	n/a	n/a	n/a	n/a	n/a	n/a	n/a
247.4912	0.5167	FIXCROSS	n/a	n/a	n/a	n/a	n/a	n/a	n/a	n/a
248.0079	0.5667	T_COLOR_NAME	6	Neutral	czerwony	red	Neutral	Neutral	hit	n/a
248.5544	n/a	RESPONSE	n/a	n/a	n/a	n/a	n/a	n/a	n/a	red
248.5745	0.5167	FEEDBACK	n/a	n/a	n/a	n/a	n/a	n/a	n/a	n/a
249.0912	1.0167	ITI	n/a	n/a	n/a	n/a	n/a	n/a	n/a	n/a
250.1079	0.5167	FIXCROSS	n/a	n/a	n/a	n/a	n/a	n/a	n/a	n/a
250.6246	0.55	T_COLOR_NAME	7	Neutral	czerwony	red	Neutral	Neutral	hit	n/a
251.1429	n/a	RESPONSE	n/a	n/a	n/a	n/a	n/a	n/a	n/a	red
251.1746	0.5167	FEEDBACK	n/a	n/a	n/a	n/a	n/a	n/a	n/a	n/a
251.6912	1.0167	ITI	n/a	n/a	n/a	n/a	n/a	n/a	n/a	n/a
252.7079	0.5167	FIXCROSS	n/a	n/a	n/a	n/a	n/a	n/a	n/a	n/a
253.2246	0.6667	T_COLOR_NAME	8	Neutral	żółty	yellow	Neutral	Neutral	hit	n/a
253.8591	n/a	RESPONSE	n/a	n/a	n/a	n/a	n/a	n/a	n/a	yellow
253.8913	0.5167	FEEDBACK	n/a	n/a	n/a	n/a	n/a	n/a	n/a	n/a
254.4079	1.0167	ITI	n/a	n/a	n/a	n/a	n/a	n/a	n/a	n/a
255.4246	0.5167	FIXCROSS	n/a	n/a	n/a	n/a	n/a	n/a	n/a	n/a
255.9413	0.5167	T_COLOR_NAME	9	Neutral	żółty	yellow	Neutral	Neutral	hit	n/a
256.4315	n/a	RESPONSE	n/a	n/a	n/a	n/a	n/a	n/a	n/a	yellow
256.4579	0.5167	FEEDBACK	n/a	n/a	n/a	n/a	n/a	n/a	n/a	n/a
256.9746	1.0167	ITI	n/a	n/a	n/a	n/a	n/a	n/a	n/a	n/a
257.9913	0.5167	FIXCROSS	n/a	n/a	n/a	n/a	n/a	n/a	n/a	n/a
258.508	1.55	T_COLOR_NAME	10	Incongruent	czerwony	red	niebieski	blue	hit	n/a
260.0266	n/a	RESPONSE	n/a	n/a	n/a	n/a	n/a	n/a	n/a	red
260.058	0.5167	FEEDBACK	n/a	n/a	n/a	n/a	n/a	n/a	n/a	n/a
260.5746	1.0167	ITI	n/a	n/a	n/a	n/a	n/a	n/a	n/a	n/a
261.5913	0.5167	FIXCROSS	n/a	n/a	n/a	n/a	n/a	n/a	n/a	n/a
262.108	0.85	T_COLOR_NAME	11	Neutral	zielony	green	Neutral	Neutral	hit	n/a
262.9346	n/a	RESPONSE	n/a	n/a	n/a	n/a	n/a	n/a	n/a	green
262.958	0.5167	FEEDBACK	n/a	n/a	n/a	n/a	n/a	n/a	n/a	n/a
263.4747	1.0167	ITI	n/a	n/a	n/a	n/a	n/a	n/a	n/a	n/a
264.4913	0.5167	FIXCROSS	n/a	n/a	n/a	n/a	n/a	n/a	n/a	n/a
265.008	0.5667	T_COLOR_NAME	12	Neutral	czerwony	red	Neutral	Neutral	hit	n/a
265.5549	n/a	RESPONSE	n/a	n/a	n/a	n/a	n/a	n/a	n/a	red
265.5747	0.5167	FEEDBACK	n/a	n/a	n/a	n/a	n/a	n/a	n/a	n/a
266.0913	1.0334	ITI	n/a	n/a	n/a	n/a	n/a	n/a	n/a	n/a
269.3897	n/a	RESPONSE	n/a	n/a	n/a	n/a	n/a	n/a	n/a	n/a
269.4414	1.0167	ITI	n/a	n/a	n/a	n/a	n/a	n/a	n/a	n/a
270.458	0.5167	FIXCROSS	n/a	n/a	n/a	n/a	n/a	n/a	n/a	n/a
270.9747	1.0667	COLOR_NAME	1	Neutral	zielony	green	Neutral	Neutral	hit	n/a
272.0101	n/a	RESPONSE	n/a	n/a	n/a	n/a	n/a	n/a	n/a	green
272.0414	1.0167	ITI	n/a	n/a	n/a	n/a	n/a	n/a	n/a	n/a
273.0581	0.5167	FIXCROSS	n/a	n/a	n/a	n/a	n/a	n/a	n/a	n/a
273.5747	0.8333	COLOR_NAME	2	Incongruent	zielony	green	niebieski	blue	hit	n/a
274.3748	n/a	RESPONSE	n/a	n/a	n/a	n/a	n/a	n/a	n/a	green
274.4081	1.0167	ITI	n/a	n/a	n/a	n/a	n/a	n/a	n/a	n/a
275.4248	0.5167	FIXCROSS	n/a	n/a	n/a	n/a	n/a	n/a	n/a	n/a
275.9414	0.55	COLOR_NAME	3	Incongruent	czerwony	red	niebieski	blue	hit	n/a
276.4679	n/a	RESPONSE	n/a	n/a	n/a	n/a	n/a	n/a	n/a	red
276.4914	1.0167	ITI	n/a	n/a	n/a	n/a	n/a	n/a	n/a	n/a
277.5081	0.5167	FIXCROSS	n/a	n/a	n/a	n/a	n/a	n/a	n/a	n/a
278.0248	0.75	COLOR_NAME	4	Incongruent	zielony	green	niebieski	blue	hit	n/a
278.7529	n/a	RESPONSE	n/a	n/a	n/a	n/a	n/a	n/a	n/a	green
278.7748	1.0167	ITI	n/a	n/a	n/a	n/a	n/a	n/a	n/a	n/a
279.7915	0.5167	FIXCROSS	n/a	n/a	n/a	n/a	n/a	n/a	n/a	n/a
280.3081	0.6833	COLOR_NAME	5	Incongruent	zielony	green	czerwony	red	hit	n/a
280.9738	n/a	RESPONSE	n/a	n/a	n/a	n/a	n/a	n/a	n/a	green
280.9915	1.0167	ITI	n/a	n/a	n/a	n/a	n/a	n/a	n/a	n/a
282.0081	0.5167	FIXCROSS	n/a	n/a	n/a	n/a	n/a	n/a	n/a	n/a
282.5248	0.8	COLOR_NAME	6	Incongruent	niebieski	blue	czerwony	red	hit	n/a
283.3066	n/a	RESPONSE	n/a	n/a	n/a	n/a	n/a	n/a	n/a	blue
283.3248	1.0167	ITI	n/a	n/a	n/a	n/a	n/a	n/a	n/a	n/a
284.3415	0.5167	FIXCROSS	n/a	n/a	n/a	n/a	n/a	n/a	n/a	n/a
284.8582	0.8	COLOR_NAME	7	Incongruent	czerwony	red	zielony	green	hit	n/a
285.6393	n/a	RESPONSE	n/a	n/a	n/a	n/a	n/a	n/a	n/a	red
285.6582	1.0167	ITI	n/a	n/a	n/a	n/a	n/a	n/a	n/a	n/a
286.6748	0.5167	FIXCROSS	n/a	n/a	n/a	n/a	n/a	n/a	n/a	n/a
287.1915	0.7333	COLOR_NAME	8	Incongruent	niebieski	blue	żółty	yellow	hit	n/a
287.8923	n/a	RESPONSE	n/a	n/a	n/a	n/a	n/a	n/a	n/a	blue
287.9248	1.0167	ITI	n/a	n/a	n/a	n/a	n/a	n/a	n/a	n/a
288.9415	0.5167	FIXCROSS	n/a	n/a	n/a	n/a	n/a	n/a	n/a	n/a
289.4582	0.7333	COLOR_NAME	9	Incongruent	czerwony	red	zielony	green	hit	n/a
290.1612	n/a	RESPONSE	n/a	n/a	n/a	n/a	n/a	n/a	n/a	red
290.1915	1.0167	ITI	n/a	n/a	n/a	n/a	n/a	n/a	n/a	n/a
291.2082	0.5167	FIXCROSS	n/a	n/a	n/a	n/a	n/a	n/a	n/a	n/a
291.7249	0.4667	COLOR_NAME	10	Incongruent	żółty	yellow	zielony	green	hit	n/a
292.1585	n/a	RESPONSE	n/a	n/a	n/a	n/a	n/a	n/a	n/a	yellow
292.1915	1.0167	ITI	n/a	n/a	n/a	n/a	n/a	n/a	n/a	n/a
293.2082	0.5167	FIXCROSS	n/a	n/a	n/a	n/a	n/a	n/a	n/a	n/a
293.7249	0.4667	COLOR_NAME	11	Incongruent	żółty	yellow	zielony	green	hit	n/a
294.1716	n/a	RESPONSE	n/a	n/a	n/a	n/a	n/a	n/a	n/a	yellow
294.1916	1.0167	ITI	n/a	n/a	n/a	n/a	n/a	n/a	n/a	n/a
295.2082	0.5167	FIXCROSS	n/a	n/a	n/a	n/a	n/a	n/a	n/a	n/a
295.7249	0.6667	COLOR_NAME	12	Neutral	zielony	green	Neutral	Neutral	incorrect	n/a
296.3606	n/a	RESPONSE	n/a	n/a	n/a	n/a	n/a	n/a	n/a	red
296.3916	1.0167	ITI	n/a	n/a	n/a	n/a	n/a	n/a	n/a	n/a
297.4083	0.5167	FIXCROSS	n/a	n/a	n/a	n/a	n/a	n/a	n/a	n/a
297.9249	0.7833	COLOR_NAME	13	Neutral	żółty	yellow	Neutral	Neutral	hit	n/a
298.6774	n/a	RESPONSE	n/a	n/a	n/a	n/a	n/a	n/a	n/a	yellow
298.7083	1.0167	ITI	n/a	n/a	n/a	n/a	n/a	n/a	n/a	n/a
299.7249	0.5167	FIXCROSS	n/a	n/a	n/a	n/a	n/a	n/a	n/a	n/a
300.2416	0.6167	COLOR_NAME	14	Neutral	czerwony	red	Neutral	Neutral	hit	n/a
300.8345	n/a	RESPONSE	n/a	n/a	n/a	n/a	n/a	n/a	n/a	red
300.8583	1.0167	ITI	n/a	n/a	n/a	n/a	n/a	n/a	n/a	n/a
301.875	0.5167	FIXCROSS	n/a	n/a	n/a	n/a	n/a	n/a	n/a	n/a
302.3916	0.8	COLOR_NAME	15	Incongruent	czerwony	red	żółty	yellow	hit	n/a
303.1674	n/a	RESPONSE	n/a	n/a	n/a	n/a	n/a	n/a	n/a	red
303.1916	1.0167	ITI	n/a	n/a	n/a	n/a	n/a	n/a	n/a	n/a
304.2083	0.5167	FIXCROSS	n/a	n/a	n/a	n/a	n/a	n/a	n/a	n/a
304.725	0.55	COLOR_NAME	16	Neutral	czerwony	red	Neutral	Neutral	hit	n/a
305.2444	n/a	RESPONSE	n/a	n/a	n/a	n/a	n/a	n/a	n/a	red
305.275	1.0167	ITI	n/a	n/a	n/a	n/a	n/a	n/a	n/a	n/a
306.2917	0.5167	FIXCROSS	n/a	n/a	n/a	n/a	n/a	n/a	n/a	n/a
306.8083	0.55	COLOR_NAME	17	Incongruent	czerwony	red	żółty	yellow	hit	n/a
307.3376	n/a	RESPONSE	n/a	n/a	n/a	n/a	n/a	n/a	n/a	red
307.3583	1.0167	ITI	n/a	n/a	n/a	n/a	n/a	n/a	n/a	n/a
308.375	0.5167	FIXCROSS	n/a	n/a	n/a	n/a	n/a	n/a	n/a	n/a
308.8917	1.3833	COLOR_NAME	18	Incongruent	niebieski	blue	czerwony	red	hit	n/a
310.2456	n/a	RESPONSE	n/a	n/a	n/a	n/a	n/a	n/a	n/a	blue
310.275	1.0167	ITI	n/a	n/a	n/a	n/a	n/a	n/a	n/a	n/a
311.2917	0.5167	FIXCROSS	n/a	n/a	n/a	n/a	n/a	n/a	n/a	n/a
311.8084	0.5167	COLOR_NAME	19	Neutral	niebieski	blue	Neutral	Neutral	hit	n/a
312.3067	n/a	RESPONSE	n/a	n/a	n/a	n/a	n/a	n/a	n/a	blue
312.325	1.0167	ITI	n/a	n/a	n/a	n/a	n/a	n/a	n/a	n/a
313.3417	0.5167	FIXCROSS	n/a	n/a	n/a	n/a	n/a	n/a	n/a	n/a
313.8584	0.6167	COLOR_NAME	20	Neutral	czerwony	red	Neutral	Neutral	hit	n/a
314.4477	n/a	RESPONSE	n/a	n/a	n/a	n/a	n/a	n/a	n/a	red
314.4751	1.0167	ITI	n/a	n/a	n/a	n/a	n/a	n/a	n/a	n/a
315.4917	0.5167	FIXCROSS	n/a	n/a	n/a	n/a	n/a	n/a	n/a	n/a
316.0084	0.6833	COLOR_NAME	21	Neutral	niebieski	blue	Neutral	Neutral	hit	n/a
316.6688	n/a	RESPONSE	n/a	n/a	n/a	n/a	n/a	n/a	n/a	blue
316.6917	1.0167	ITI	n/a	n/a	n/a	n/a	n/a	n/a	n/a	n/a
317.7084	0.5167	FIXCROSS	n/a	n/a	n/a	n/a	n/a	n/a	n/a	n/a
318.2251	0.7167	COLOR_NAME	22	Neutral	żółty	yellow	Neutral	Neutral	hit	n/a
318.9217	n/a	RESPONSE	n/a	n/a	n/a	n/a	n/a	n/a	n/a	yellow
318.9418	1.0167	ITI	n/a	n/a	n/a	n/a	n/a	n/a	n/a	n/a
319.9584	0.5167	FIXCROSS	n/a	n/a	n/a	n/a	n/a	n/a	n/a	n/a
320.4751	1.0333	COLOR_NAME	23	Neutral	niebieski	blue	Neutral	Neutral	hit	n/a
321.4782	n/a	RESPONSE	n/a	n/a	n/a	n/a	n/a	n/a	n/a	blue
321.5084	1.0167	ITI	n/a	n/a	n/a	n/a	n/a	n/a	n/a	n/a
322.5251	0.5167	FIXCROSS	n/a	n/a	n/a	n/a	n/a	n/a	n/a	n/a
323.0418	0.6333	COLOR_NAME	24	Neutral	czerwony	red	Neutral	Neutral	hit	n/a
323.6512	n/a	RESPONSE	n/a	n/a	n/a	n/a	n/a	n/a	n/a	red
323.6751	1.0167	ITI	n/a	n/a	n/a	n/a	n/a	n/a	n/a	n/a
324.6918	0.5167	FIXCROSS	n/a	n/a	n/a	n/a	n/a	n/a	n/a	n/a
325.2085	0.4833	COLOR_NAME	25	Neutral	czerwony	red	Neutral	Neutral	hit	n/a
325.6644	n/a	RESPONSE	n/a	n/a	n/a	n/a	n/a	n/a	n/a	red
325.6918	1.0167	ITI	n/a	n/a	n/a	n/a	n/a	n/a	n/a	n/a
326.7085	0.5167	FIXCROSS	n/a	n/a	n/a	n/a	n/a	n/a	n/a	n/a
327.2252	1.0833	COLOR_NAME	26	Incongruent	zielony	green	czerwony	red	incorrect	n/a
328.2848	n/a	RESPONSE	n/a	n/a	n/a	n/a	n/a	n/a	n/a	blue
328.3085	1.0167	ITI	n/a	n/a	n/a	n/a	n/a	n/a	n/a	n/a
329.3252	0.5167	FIXCROSS	n/a	n/a	n/a	n/a	n/a	n/a	n/a	n/a
329.8418	0.6667	COLOR_NAME	27	Neutral	niebieski	blue	Neutral	Neutral	hit	n/a
330.4898	n/a	RESPONSE	n/a	n/a	n/a	n/a	n/a	n/a	n/a	blue
330.5085	1.0167	ITI	n/a	n/a	n/a	n/a	n/a	n/a	n/a	n/a
331.5252	0.5167	FIXCROSS	n/a	n/a	n/a	n/a	n/a	n/a	n/a	n/a
332.0419	0.4833	COLOR_NAME	28	Neutral	zielony	green	Neutral	Neutral	hit	n/a
332.5031	n/a	RESPONSE	n/a	n/a	n/a	n/a	n/a	n/a	n/a	green
332.5252	1.0167	ITI	n/a	n/a	n/a	n/a	n/a	n/a	n/a	n/a
333.5419	0.5167	FIXCROSS	n/a	n/a	n/a	n/a	n/a	n/a	n/a	n/a
334.0585	0.7	COLOR_NAME	29	Neutral	żółty	yellow	Neutral	Neutral	hit	n/a
334.74	n/a	RESPONSE	n/a	n/a	n/a	n/a	n/a	n/a	n/a	yellow
334.7585	1.0167	ITI	n/a	n/a	n/a	n/a	n/a	n/a	n/a	n/a
335.7752	0.5167	FIXCROSS	n/a	n/a	n/a	n/a	n/a	n/a	n/a	n/a
336.2919	0.4833	COLOR_NAME	30	Incongruent	żółty	yellow	niebieski	blue	hit	n/a
336.7533	n/a	RESPONSE	n/a	n/a	n/a	n/a	n/a	n/a	n/a	yellow
336.7752	1.0167	ITI	n/a	n/a	n/a	n/a	n/a	n/a	n/a	n/a
337.7919	0.5167	FIXCROSS	n/a	n/a	n/a	n/a	n/a	n/a	n/a	n/a
338.3086	0.7	COLOR_NAME	31	Neutral	niebieski	blue	Neutral	Neutral	hit	n/a
338.9903	n/a	RESPONSE	n/a	n/a	n/a	n/a	n/a	n/a	n/a	blue
339.0086	1.0167	ITI	n/a	n/a	n/a	n/a	n/a	n/a	n/a	n/a
340.0253	0.5167	FIXCROSS	n/a	n/a	n/a	n/a	n/a	n/a	n/a	n/a
340.5419	0.7167	COLOR_NAME	32	Incongruent	żółty	yellow	zielony	green	hit	n/a
341.2271	n/a	RESPONSE	n/a	n/a	n/a	n/a	n/a	n/a	n/a	yellow
341.2586	1.0167	ITI	n/a	n/a	n/a	n/a	n/a	n/a	n/a	n/a
342.2753	0.5167	FIXCROSS	n/a	n/a	n/a	n/a	n/a	n/a	n/a	n/a
342.7919	0.5833	COLOR_NAME	33	Incongruent	zielony	green	niebieski	blue	hit	n/a
343.3522	n/a	RESPONSE	n/a	n/a	n/a	n/a	n/a	n/a	n/a	green
343.3753	1.0167	ITI	n/a	n/a	n/a	n/a	n/a	n/a	n/a	n/a
344.392	0.5167	FIXCROSS	n/a	n/a	n/a	n/a	n/a	n/a	n/a	n/a
344.9086	0.6833	COLOR_NAME	34	Incongruent	niebieski	blue	zielony	green	hit	n/a
345.5732	n/a	RESPONSE	n/a	n/a	n/a	n/a	n/a	n/a	n/a	blue
345.592	1.0167	ITI	n/a	n/a	n/a	n/a	n/a	n/a	n/a	n/a
346.6086	0.5167	FIXCROSS	n/a	n/a	n/a	n/a	n/a	n/a	n/a	n/a
347.1253	0.6333	COLOR_NAME	35	Neutral	żółty	yellow	Neutral	Neutral	hit	n/a
347.7301	n/a	RESPONSE	n/a	n/a	n/a	n/a	n/a	n/a	n/a	yellow
347.7586	1.0167	ITI	n/a	n/a	n/a	n/a	n/a	n/a	n/a	n/a
348.7753	0.5167	FIXCROSS	n/a	n/a	n/a	n/a	n/a	n/a	n/a	n/a
349.292	0.6833	COLOR_NAME	36	Incongruent	zielony	green	żółty	yellow	hit	n/a
349.9511	n/a	RESPONSE	n/a	n/a	n/a	n/a	n/a	n/a	n/a	green
349.9753	1.0167	ITI	n/a	n/a	n/a	n/a	n/a	n/a	n/a	n/a
350.992	0.5167	FIXCROSS	n/a	n/a	n/a	n/a	n/a	n/a	n/a	n/a
351.5087	0.6333	COLOR_NAME	37	Neutral	zielony	green	Neutral	Neutral	hit	n/a
352.1242	n/a	RESPONSE	n/a	n/a	n/a	n/a	n/a	n/a	n/a	green
352.142	1.0167	ITI	n/a	n/a	n/a	n/a	n/a	n/a	n/a	n/a
353.1587	0.5167	FIXCROSS	n/a	n/a	n/a	n/a	n/a	n/a	n/a	n/a
353.6754	1.0833	COLOR_NAME	38	Neutral	żółty	yellow	Neutral	Neutral	hit	n/a
354.7286	n/a	RESPONSE	n/a	n/a	n/a	n/a	n/a	n/a	n/a	yellow
354.7587	1.0167	ITI	n/a	n/a	n/a	n/a	n/a	n/a	n/a	n/a
355.7754	0.5167	FIXCROSS	n/a	n/a	n/a	n/a	n/a	n/a	n/a	n/a
356.292	0.7667	COLOR_NAME	39	Incongruent	niebieski	blue	żółty	yellow	hit	n/a
357.0294	n/a	RESPONSE	n/a	n/a	n/a	n/a	n/a	n/a	n/a	blue
357.0587	1.0167	ITI	n/a	n/a	n/a	n/a	n/a	n/a	n/a	n/a
358.0754	0.5167	FIXCROSS	n/a	n/a	n/a	n/a	n/a	n/a	n/a	n/a
358.5921	0.5833	COLOR_NAME	40	Neutral	czerwony	red	Neutral	Neutral	hit	n/a
359.1545	n/a	RESPONSE	n/a	n/a	n/a	n/a	n/a	n/a	n/a	red
359.1754	1.0167	ITI	n/a	n/a	n/a	n/a	n/a	n/a	n/a	n/a
360.1921	0.5167	FIXCROSS	n/a	n/a	n/a	n/a	n/a	n/a	n/a	n/a
360.7087	0.4	COLOR_NAME	41	Incongruent	czerwony	red	niebieski	blue	hit	n/a
361.0879	n/a	RESPONSE	n/a	n/a	n/a	n/a	n/a	n/a	n/a	red
361.1087	1.0167	ITI	n/a	n/a	n/a	n/a	n/a	n/a	n/a	n/a
362.1254	0.5167	FIXCROSS	n/a	n/a	n/a	n/a	n/a	n/a	n/a	n/a
362.6421	0.5833	COLOR_NAME	42	Neutral	żółty	yellow	Neutral	Neutral	hit	n/a
363.197	n/a	RESPONSE	n/a	n/a	n/a	n/a	n/a	n/a	n/a	yellow
363.2254	1.0167	ITI	n/a	n/a	n/a	n/a	n/a	n/a	n/a	n/a
364.2421	0.5167	FIXCROSS	n/a	n/a	n/a	n/a	n/a	n/a	n/a	n/a
364.7588	0.5	COLOR_NAME	43	Incongruent	żółty	yellow	niebieski	blue	hit	n/a
365.2262	n/a	RESPONSE	n/a	n/a	n/a	n/a	n/a	n/a	n/a	yellow
365.2588	1.0167	ITI	n/a	n/a	n/a	n/a	n/a	n/a	n/a	n/a
366.2755	0.5167	FIXCROSS	n/a	n/a	n/a	n/a	n/a	n/a	n/a	n/a
366.7921	0.6167	COLOR_NAME	44	Incongruent	czerwony	red	żółty	yellow	hit	n/a
367.3832	n/a	RESPONSE	n/a	n/a	n/a	n/a	n/a	n/a	n/a	red
367.4088	1.0167	ITI	n/a	n/a	n/a	n/a	n/a	n/a	n/a	n/a
368.4255	0.5167	FIXCROSS	n/a	n/a	n/a	n/a	n/a	n/a	n/a	n/a
368.9421	1.2667	COLOR_NAME	45	Incongruent	żółty	yellow	niebieski	blue	hit	n/a
370.1794	n/a	RESPONSE	n/a	n/a	n/a	n/a	n/a	n/a	n/a	yellow
370.2088	1.0167	ITI	n/a	n/a	n/a	n/a	n/a	n/a	n/a	n/a
371.2255	0.5167	FIXCROSS	n/a	n/a	n/a	n/a	n/a	n/a	n/a	n/a
371.7421	0.5167	COLOR_NAME	46	Neutral	czerwony	red	Neutral	Neutral	hit	n/a
372.2406	n/a	RESPONSE	n/a	n/a	n/a	n/a	n/a	n/a	n/a	red
372.2588	1.0167	ITI	n/a	n/a	n/a	n/a	n/a	n/a	n/a	n/a
373.2755	0.5167	FIXCROSS	n/a	n/a	n/a	n/a	n/a	n/a	n/a	n/a
373.7922	0.7667	COLOR_NAME	47	Neutral	zielony	green	Neutral	Neutral	hit	n/a
374.5414	n/a	RESPONSE	n/a	n/a	n/a	n/a	n/a	n/a	n/a	green
374.5588	1.0167	ITI	n/a	n/a	n/a	n/a	n/a	n/a	n/a	n/a
375.5755	0.5167	FIXCROSS	n/a	n/a	n/a	n/a	n/a	n/a	n/a	n/a
376.0922	0.5667	COLOR_NAME	48	Neutral	żółty	yellow	Neutral	Neutral	hit	n/a
376.6346	n/a	RESPONSE	n/a	n/a	n/a	n/a	n/a	n/a	n/a	yellow
376.6589	1.0167	ITI	n/a	n/a	n/a	n/a	n/a	n/a	n/a	n/a
377.6755	0.5167	FIXCROSS	n/a	n/a	n/a	n/a	n/a	n/a	n/a	n/a
378.1922	0.7833	COLOR_NAME	49	Neutral	żółty	yellow	Neutral	Neutral	hit	n/a
378.9513	n/a	RESPONSE	n/a	n/a	n/a	n/a	n/a	n/a	n/a	yellow
378.9755	1.0167	ITI	n/a	n/a	n/a	n/a	n/a	n/a	n/a	n/a
379.9922	0.5167	FIXCROSS	n/a	n/a	n/a	n/a	n/a	n/a	n/a	n/a
380.5089	0.9333	COLOR_NAME	50	Neutral	niebieski	blue	Neutral	Neutral	hit	n/a
381.4119	n/a	RESPONSE	n/a	n/a	n/a	n/a	n/a	n/a	n/a	blue
381.4422	1.0167	ITI	n/a	n/a	n/a	n/a	n/a	n/a	n/a	n/a
382.4589	0.5167	FIXCROSS	n/a	n/a	n/a	n/a	n/a	n/a	n/a	n/a
382.9756	1.35	COLOR_NAME	51	Neutral	zielony	green	Neutral	Neutral	hit	n/a
384.304	n/a	RESPONSE	n/a	n/a	n/a	n/a	n/a	n/a	n/a	green
384.3256	1.0167	ITI	n/a	n/a	n/a	n/a	n/a	n/a	n/a	n/a
385.3423	0.5167	FIXCROSS	n/a	n/a	n/a	n/a	n/a	n/a	n/a	n/a
385.8589	0.6833	COLOR_NAME	52	Incongruent	niebieski	blue	czerwony	red	hit	n/a
386.509	n/a	RESPONSE	n/a	n/a	n/a	n/a	n/a	n/a	n/a	blue
386.5423	1.0167	ITI	n/a	n/a	n/a	n/a	n/a	n/a	n/a	n/a
387.5589	0.5167	FIXCROSS	n/a	n/a	n/a	n/a	n/a	n/a	n/a	n/a
388.0756	0.6667	COLOR_NAME	53	Incongruent	czerwony	red	zielony	green	hit	n/a
388.7139	n/a	RESPONSE	n/a	n/a	n/a	n/a	n/a	n/a	n/a	red
388.7423	1.0167	ITI	n/a	n/a	n/a	n/a	n/a	n/a	n/a	n/a
389.759	0.5167	FIXCROSS	n/a	n/a	n/a	n/a	n/a	n/a	n/a	n/a
390.2756	0.8833	COLOR_NAME	54	Incongruent	zielony	green	żółty	yellow	hit	n/a
391.1267	n/a	RESPONSE	n/a	n/a	n/a	n/a	n/a	n/a	n/a	green
391.159	1.0167	ITI	n/a	n/a	n/a	n/a	n/a	n/a	n/a	n/a
392.1756	0.5167	FIXCROSS	n/a	n/a	n/a	n/a	n/a	n/a	n/a	n/a
392.6923	0.7	COLOR_NAME	55	Incongruent	żółty	yellow	czerwony	red	hit	n/a
393.3636	n/a	RESPONSE	n/a	n/a	n/a	n/a	n/a	n/a	n/a	yellow
393.3923	1.0167	ITI	n/a	n/a	n/a	n/a	n/a	n/a	n/a	n/a
394.409	0.5167	FIXCROSS	n/a	n/a	n/a	n/a	n/a	n/a	n/a	n/a
394.9257	1.0834	COLOR_NAME	56	Incongruent	niebieski	blue	żółty	yellow	hit	n/a
395.9839	n/a	RESPONSE	n/a	n/a	n/a	n/a	n/a	n/a	n/a	blue
396.009	1.0167	ITI	n/a	n/a	n/a	n/a	n/a	n/a	n/a	n/a
397.0257	0.5167	FIXCROSS	n/a	n/a	n/a	n/a	n/a	n/a	n/a	n/a
397.5423	0.65	COLOR_NAME	57	Incongruent	niebieski	blue	zielony	green	hit	n/a
398.157	n/a	RESPONSE	n/a	n/a	n/a	n/a	n/a	n/a	n/a	blue
398.1924	1.0167	ITI	n/a	n/a	n/a	n/a	n/a	n/a	n/a	n/a
399.209	0.5167	FIXCROSS	n/a	n/a	n/a	n/a	n/a	n/a	n/a	n/a
399.7257	0.6	COLOR_NAME	58	Neutral	żółty	yellow	Neutral	Neutral	hit	n/a
400.2981	n/a	RESPONSE	n/a	n/a	n/a	n/a	n/a	n/a	n/a	yellow
400.3257	1.0167	ITI	n/a	n/a	n/a	n/a	n/a	n/a	n/a	n/a
401.3424	0.5167	FIXCROSS	n/a	n/a	n/a	n/a	n/a	n/a	n/a	n/a
401.859	0.7333	COLOR_NAME	59	Incongruent	czerwony	red	niebieski	blue	hit	n/a
402.567	n/a	RESPONSE	n/a	n/a	n/a	n/a	n/a	n/a	n/a	red
402.5924	1.0167	ITI	n/a	n/a	n/a	n/a	n/a	n/a	n/a	n/a
403.6091	0.5167	FIXCROSS	n/a	n/a	n/a	n/a	n/a	n/a	n/a	n/a
404.1257	1.3	COLOR_NAME	60	Neutral	niebieski	blue	Neutral	Neutral	hit	n/a
405.3951	n/a	RESPONSE	n/a	n/a	n/a	n/a	n/a	n/a	n/a	blue
405.4257	1.0167	ITI	n/a	n/a	n/a	n/a	n/a	n/a	n/a	n/a
406.4424	0.5167	FIXCROSS	n/a	n/a	n/a	n/a	n/a	n/a	n/a	n/a
406.9591	0.5833	COLOR_NAME	61	Incongruent	żółty	yellow	czerwony	red	hit	n/a
407.5202	n/a	RESPONSE	n/a	n/a	n/a	n/a	n/a	n/a	n/a	yellow
407.5424	1.0167	ITI	n/a	n/a	n/a	n/a	n/a	n/a	n/a	n/a
408.5591	0.5167	FIXCROSS	n/a	n/a	n/a	n/a	n/a	n/a	n/a	n/a
409.0758	0.6333	COLOR_NAME	62	Incongruent	zielony	green	czerwony	red	hit	n/a
409.6773	n/a	RESPONSE	n/a	n/a	n/a	n/a	n/a	n/a	n/a	green
409.7091	1.0167	ITI	n/a	n/a	n/a	n/a	n/a	n/a	n/a	n/a
410.7258	0.5167	FIXCROSS	n/a	n/a	n/a	n/a	n/a	n/a	n/a	n/a
411.2425	0.8	COLOR_NAME	63	Neutral	zielony	green	Neutral	Neutral	hit	n/a
412.0102	n/a	RESPONSE	n/a	n/a	n/a	n/a	n/a	n/a	n/a	green
412.0425	1.0167	ITI	n/a	n/a	n/a	n/a	n/a	n/a	n/a	n/a
413.0591	0.5167	FIXCROSS	n/a	n/a	n/a	n/a	n/a	n/a	n/a	n/a
413.5758	0.5667	COLOR_NAME	64	Neutral	niebieski	blue	Neutral	Neutral	hit	n/a
414.1192	n/a	RESPONSE	n/a	n/a	n/a	n/a	n/a	n/a	n/a	blue
414.1425	1.0167	ITI	n/a	n/a	n/a	n/a	n/a	n/a	n/a	n/a
415.1592	0.5167	FIXCROSS	n/a	n/a	n/a	n/a	n/a	n/a	n/a	n/a
415.6758	1.0	COLOR_NAME	65	Incongruent	niebieski	blue	zielony	green	hit	n/a
416.6438	n/a	RESPONSE	n/a	n/a	n/a	n/a	n/a	n/a	n/a	blue
416.6758	1.0167	ITI	n/a	n/a	n/a	n/a	n/a	n/a	n/a	n/a
417.6925	0.5167	FIXCROSS	n/a	n/a	n/a	n/a	n/a	n/a	n/a	n/a
418.2092	0.6167	COLOR_NAME	66	Neutral	czerwony	red	Neutral	Neutral	hit	n/a
418.8008	n/a	RESPONSE	n/a	n/a	n/a	n/a	n/a	n/a	n/a	red
418.8258	1.0167	ITI	n/a	n/a	n/a	n/a	n/a	n/a	n/a	n/a
419.8425	0.5167	FIXCROSS	n/a	n/a	n/a	n/a	n/a	n/a	n/a	n/a
420.3592	0.6833	COLOR_NAME	67	Neutral	zielony	green	Neutral	Neutral	hit	n/a
421.0218	n/a	RESPONSE	n/a	n/a	n/a	n/a	n/a	n/a	n/a	green
421.0425	1.0167	ITI	n/a	n/a	n/a	n/a	n/a	n/a	n/a	n/a
422.0592	0.5167	FIXCROSS	n/a	n/a	n/a	n/a	n/a	n/a	n/a	n/a
422.5759	0.7333	COLOR_NAME	68	Incongruent	zielony	green	żółty	yellow	hit	n/a
423.2747	n/a	RESPONSE	n/a	n/a	n/a	n/a	n/a	n/a	n/a	green
423.3092	1.0167	ITI	n/a	n/a	n/a	n/a	n/a	n/a	n/a	n/a
424.3259	0.5167	FIXCROSS	n/a	n/a	n/a	n/a	n/a	n/a	n/a	n/a
424.8426	0.5333	COLOR_NAME	69	Neutral	zielony	green	Neutral	Neutral	hit	n/a
425.3519	n/a	RESPONSE	n/a	n/a	n/a	n/a	n/a	n/a	n/a	green
425.3759	1.0167	ITI	n/a	n/a	n/a	n/a	n/a	n/a	n/a	n/a
426.3926	0.5167	FIXCROSS	n/a	n/a	n/a	n/a	n/a	n/a	n/a	n/a
426.9092	0.8	COLOR_NAME	70	Incongruent	żółty	yellow	czerwony	red	hit	n/a
427.6846	n/a	RESPONSE	n/a	n/a	n/a	n/a	n/a	n/a	n/a	yellow
427.7092	1.0167	ITI	n/a	n/a	n/a	n/a	n/a	n/a	n/a	n/a
428.7259	0.5167	FIXCROSS	n/a	n/a	n/a	n/a	n/a	n/a	n/a	n/a
429.2426	0.6833	COLOR_NAME	71	Neutral	niebieski	blue	Neutral	Neutral	hit	n/a
429.9056	n/a	RESPONSE	n/a	n/a	n/a	n/a	n/a	n/a	n/a	blue
429.9259	1.0167	ITI	n/a	n/a	n/a	n/a	n/a	n/a	n/a	n/a
430.9426	0.5167	FIXCROSS	n/a	n/a	n/a	n/a	n/a	n/a	n/a	n/a
431.4593	0.7167	COLOR_NAME	72	Neutral	czerwony	red	Neutral	Neutral	hit	n/a
432.1586	n/a	RESPONSE	n/a	n/a	n/a	n/a	n/a	n/a	n/a	red
432.1759	1.0333	ITI	n/a	n/a	n/a	n/a	n/a	n/a	n/a	n/a
436.0892	n/a	RESPONSE	n/a	n/a	n/a	n/a	n/a	n/a	n/a	n/a
