onset	duration	trial_type	trial_number	stroop_condition	stim_text(PL)	stim_text(eng)	stim_color(PL)	stim_color(eng)	response_type	response_color
0.0	n/a	RESPONSE	n/a	n/a	n/a	n/a	n/a	n/a	n/a	n/a
0.029	1.0166	ITI	n/a	n/a	n/a	n/a	n/a	n/a	n/a	n/a
1.0456	0.5	FIXCROSS	n/a	n/a	n/a	n/a	n/a	n/a	n/a	n/a
1.5456	2.3666	T_INK	1	Incongruent	żółty	yellow	zielony	green	hit	n/a
3.9012	n/a	RESPONSE	n/a	n/a	n/a	n/a	n/a	n/a	n/a	green
3.9122	0.5	FEEDBACK	n/a	n/a	n/a	n/a	n/a	n/a	n/a	n/a
4.4122	1.0	ITI	n/a	n/a	n/a	n/a	n/a	n/a	n/a	n/a
5.4122	0.5	FIXCROSS	n/a	n/a	n/a	n/a	n/a	n/a	n/a	n/a
5.9122	0.9667	T_INK	2	Neutral	xxxxxxxx	xxxxxxxx	zielony	green	hit	n/a
6.8591	n/a	RESPONSE	n/a	n/a	n/a	n/a	n/a	n/a	n/a	green
6.8788	0.5	FEEDBACK	n/a	n/a	n/a	n/a	n/a	n/a	n/a	n/a
7.3788	1.0	ITI	n/a	n/a	n/a	n/a	n/a	n/a	n/a	n/a
8.3788	0.5	FIXCROSS	n/a	n/a	n/a	n/a	n/a	n/a	n/a	n/a
8.8788	1.0333	T_INK	3	Neutral	xxxxx	xxxxx	niebieski	blue	hit	n/a
9.8969	n/a	RESPONSE	n/a	n/a	n/a	n/a	n/a	n/a	n/a	blue
9.9121	0.5	FEEDBACK	n/a	n/a	n/a	n/a	n/a	n/a	n/a	n/a
10.4121	1.0	ITI	n/a	n/a	n/a	n/a	n/a	n/a	n/a	n/a
11.4121	0.5	FIXCROSS	n/a	n/a	n/a	n/a	n/a	n/a	n/a	n/a
11.912	0.7	T_INK	4	Incongruent	zielony	green	żółty	yellow	hit	n/a
12.599	n/a	RESPONSE	n/a	n/a	n/a	n/a	n/a	n/a	n/a	yellow
12.612	0.5	FEEDBACK	n/a	n/a	n/a	n/a	n/a	n/a	n/a	n/a
13.112	1.0	ITI	n/a	n/a	n/a	n/a	n/a	n/a	n/a	n/a
14.112	0.5	FIXCROSS	n/a	n/a	n/a	n/a	n/a	n/a	n/a	n/a
14.612	0.8166	T_INK	5	Neutral	xxxxxxxxx	xxxxxxxxx	zielony	green	hit	n/a
15.413	n/a	RESPONSE	n/a	n/a	n/a	n/a	n/a	n/a	n/a	green
15.4286	0.5	FEEDBACK	n/a	n/a	n/a	n/a	n/a	n/a	n/a	n/a
15.9286	1.0	ITI	n/a	n/a	n/a	n/a	n/a	n/a	n/a	n/a
16.9286	0.5	FIXCROSS	n/a	n/a	n/a	n/a	n/a	n/a	n/a	n/a
17.4286	0.7333	T_INK	6	Neutral	xxxxxxxx	xxxxxxxx	niebieski	blue	hit	n/a
18.1471	n/a	RESPONSE	n/a	n/a	n/a	n/a	n/a	n/a	n/a	blue
18.1619	0.5	FEEDBACK	n/a	n/a	n/a	n/a	n/a	n/a	n/a	n/a
18.6619	1.0	ITI	n/a	n/a	n/a	n/a	n/a	n/a	n/a	n/a
19.6619	0.5	FIXCROSS	n/a	n/a	n/a	n/a	n/a	n/a	n/a	n/a
20.1619	0.65	T_INK	7	Neutral	xxxxxxxxx	xxxxxxxxx	żółty	yellow	hit	n/a
20.8012	n/a	RESPONSE	n/a	n/a	n/a	n/a	n/a	n/a	n/a	yellow
20.8119	0.5	FEEDBACK	n/a	n/a	n/a	n/a	n/a	n/a	n/a	n/a
21.3119	1.0	ITI	n/a	n/a	n/a	n/a	n/a	n/a	n/a	n/a
22.3118	0.5	FIXCROSS	n/a	n/a	n/a	n/a	n/a	n/a	n/a	n/a
22.8118	0.8833	T_INK	8	Incongruent	czerwony	red	niebieski	blue	hit	n/a
23.6792	n/a	RESPONSE	n/a	n/a	n/a	n/a	n/a	n/a	n/a	blue
23.6951	0.5	FEEDBACK	n/a	n/a	n/a	n/a	n/a	n/a	n/a	n/a
24.1951	1.0	ITI	n/a	n/a	n/a	n/a	n/a	n/a	n/a	n/a
25.1951	0.5	FIXCROSS	n/a	n/a	n/a	n/a	n/a	n/a	n/a	n/a
25.6951	0.6	T_INK	9	Neutral	xxxxxxxxx	xxxxxxxxx	czerwony	red	hit	n/a
26.2853	n/a	RESPONSE	n/a	n/a	n/a	n/a	n/a	n/a	n/a	red
26.2951	0.5	FEEDBACK	n/a	n/a	n/a	n/a	n/a	n/a	n/a	n/a
26.7951	1.0	ITI	n/a	n/a	n/a	n/a	n/a	n/a	n/a	n/a
27.7951	0.5	FIXCROSS	n/a	n/a	n/a	n/a	n/a	n/a	n/a	n/a
28.295	1.1	T_INK	10	Incongruent	niebieski	blue	żółty	yellow	incorrect	n/a
29.387	n/a	RESPONSE	n/a	n/a	n/a	n/a	n/a	n/a	n/a	blue
29.395	0.5	FEEDBACK	n/a	n/a	n/a	n/a	n/a	n/a	n/a	n/a
29.895	1.0	ITI	n/a	n/a	n/a	n/a	n/a	n/a	n/a	n/a
30.895	0.5	FIXCROSS	n/a	n/a	n/a	n/a	n/a	n/a	n/a	n/a
31.395	0.85	T_INK	11	Neutral	xxxxxxx	xxxxxxx	niebieski	blue	hit	n/a
32.233	n/a	RESPONSE	n/a	n/a	n/a	n/a	n/a	n/a	n/a	blue
32.245	0.5	FEEDBACK	n/a	n/a	n/a	n/a	n/a	n/a	n/a	n/a
32.745	1.0	ITI	n/a	n/a	n/a	n/a	n/a	n/a	n/a	n/a
33.7449	0.5	FIXCROSS	n/a	n/a	n/a	n/a	n/a	n/a	n/a	n/a
34.2449	0.9333	T_INK	12	Neutral	xxxxx	xxxxx	czerwony	red	hit	n/a
35.159	n/a	RESPONSE	n/a	n/a	n/a	n/a	n/a	n/a	n/a	red
35.1782	0.5	FEEDBACK	n/a	n/a	n/a	n/a	n/a	n/a	n/a	n/a
35.6782	1.0	ITI	n/a	n/a	n/a	n/a	n/a	n/a	n/a	n/a
38.9642	n/a	RESPONSE	n/a	n/a	n/a	n/a	n/a	n/a	n/a	n/a
38.9948	1.0	ITI	n/a	n/a	n/a	n/a	n/a	n/a	n/a	n/a
39.9948	0.5	FIXCROSS	n/a	n/a	n/a	n/a	n/a	n/a	n/a	n/a
40.4948	1.2333	INK	1	Incongruent	zielony	green	żółty	yellow	hit	n/a
41.7143	n/a	RESPONSE	n/a	n/a	n/a	n/a	n/a	n/a	n/a	yellow
41.7281	1.0	ITI	n/a	n/a	n/a	n/a	n/a	n/a	n/a	n/a
42.7281	0.5	FIXCROSS	n/a	n/a	n/a	n/a	n/a	n/a	n/a	n/a
43.2281	0.55	INK	2	Incongruent	czerwony	red	żółty	yellow	hit	n/a
43.7607	n/a	RESPONSE	n/a	n/a	n/a	n/a	n/a	n/a	n/a	yellow
43.7781	1.0	ITI	n/a	n/a	n/a	n/a	n/a	n/a	n/a	n/a
44.778	0.5	FIXCROSS	n/a	n/a	n/a	n/a	n/a	n/a	n/a	n/a
45.278	0.35	INK	3	Incongruent	żółty	yellow	czerwony	red	hit	n/a
45.6155	n/a	RESPONSE	n/a	n/a	n/a	n/a	n/a	n/a	n/a	red
45.628	1.0	ITI	n/a	n/a	n/a	n/a	n/a	n/a	n/a	n/a
46.628	0.5	FIXCROSS	n/a	n/a	n/a	n/a	n/a	n/a	n/a	n/a
47.128	0.6	INK	4	Incongruent	niebieski	blue	czerwony	red	hit	n/a
47.7099	n/a	RESPONSE	n/a	n/a	n/a	n/a	n/a	n/a	n/a	red
47.728	1.0	ITI	n/a	n/a	n/a	n/a	n/a	n/a	n/a	n/a
48.728	0.5	FIXCROSS	n/a	n/a	n/a	n/a	n/a	n/a	n/a	n/a
49.228	1.3	INK	5	Neutral	xxxxxxx	xxxxxxx	czerwony	red	hit	n/a
50.5238	n/a	RESPONSE	n/a	n/a	n/a	n/a	n/a	n/a	n/a	red
50.5279	1.0	ITI	n/a	n/a	n/a	n/a	n/a	n/a	n/a	n/a
51.5279	0.5	FIXCROSS	n/a	n/a	n/a	n/a	n/a	n/a	n/a	n/a
52.0279	0.6	INK	6	Neutral	xxxxxxxxx	xxxxxxxxx	zielony	green	hit	n/a
52.6183	n/a	RESPONSE	n/a	n/a	n/a	n/a	n/a	n/a	n/a	green
52.6279	1.0	ITI	n/a	n/a	n/a	n/a	n/a	n/a	n/a	n/a
53.6279	0.5	FIXCROSS	n/a	n/a	n/a	n/a	n/a	n/a	n/a	n/a
54.1279	0.7666	INK	7	Incongruent	żółty	yellow	niebieski	blue	hit	n/a
54.8887	n/a	RESPONSE	n/a	n/a	n/a	n/a	n/a	n/a	n/a	blue
54.8945	1.0	ITI	n/a	n/a	n/a	n/a	n/a	n/a	n/a	n/a
55.8945	0.5	FIXCROSS	n/a	n/a	n/a	n/a	n/a	n/a	n/a	n/a
56.3945	0.3333	INK	8	Incongruent	czerwony	red	żółty	yellow	hit	n/a
56.7114	n/a	RESPONSE	n/a	n/a	n/a	n/a	n/a	n/a	n/a	yellow
56.7278	1.0	ITI	n/a	n/a	n/a	n/a	n/a	n/a	n/a	n/a
57.7278	0.5	FIXCROSS	n/a	n/a	n/a	n/a	n/a	n/a	n/a	n/a
58.2278	0.4833	INK	9	Incongruent	zielony	green	żółty	yellow	hit	n/a
58.694	n/a	RESPONSE	n/a	n/a	n/a	n/a	n/a	n/a	n/a	yellow
58.7111	1.0	ITI	n/a	n/a	n/a	n/a	n/a	n/a	n/a	n/a
59.7111	0.5	FIXCROSS	n/a	n/a	n/a	n/a	n/a	n/a	n/a	n/a
60.2111	0.4167	INK	10	Neutral	xxxxxxxxx	xxxxxxxxx	żółty	yellow	hit	n/a
60.6126	n/a	RESPONSE	n/a	n/a	n/a	n/a	n/a	n/a	n/a	yellow
60.6277	1.0	ITI	n/a	n/a	n/a	n/a	n/a	n/a	n/a	n/a
61.6277	0.5	FIXCROSS	n/a	n/a	n/a	n/a	n/a	n/a	n/a	n/a
62.1277	0.5815	INK	11	Neutral	xxxxx	xxxxx	czerwony	red	hit	n/a
62.7071	n/a	RESPONSE	n/a	n/a	n/a	n/a	n/a	n/a	n/a	red
62.7092	1.0018	ITI	n/a	n/a	n/a	n/a	n/a	n/a	n/a	n/a
63.711	0.5	FIXCROSS	n/a	n/a	n/a	n/a	n/a	n/a	n/a	n/a
64.211	0.3833	INK	12	Neutral	xxxxxxxxx	xxxxxxxxx	zielony	green	hit	n/a
64.5778	n/a	RESPONSE	n/a	n/a	n/a	n/a	n/a	n/a	n/a	green
64.5943	0.9999	ITI	n/a	n/a	n/a	n/a	n/a	n/a	n/a	n/a
65.5943	0.5	FIXCROSS	n/a	n/a	n/a	n/a	n/a	n/a	n/a	n/a
66.0943	0.5333	INK	13	Neutral	xxxxxxx	xxxxxxx	czerwony	red	hit	n/a
66.6243	n/a	RESPONSE	n/a	n/a	n/a	n/a	n/a	n/a	n/a	red
66.6276	1.0	ITI	n/a	n/a	n/a	n/a	n/a	n/a	n/a	n/a
67.6276	0.5	FIXCROSS	n/a	n/a	n/a	n/a	n/a	n/a	n/a	n/a
68.1276	0.3667	INK	14	Neutral	xxxxx	xxxxx	zielony	green	hit	n/a
68.4789	n/a	RESPONSE	n/a	n/a	n/a	n/a	n/a	n/a	n/a	green
68.4942	1.0	ITI	n/a	n/a	n/a	n/a	n/a	n/a	n/a	n/a
69.4942	0.5	FIXCROSS	n/a	n/a	n/a	n/a	n/a	n/a	n/a	n/a
69.9942	0.5833	INK	15	Incongruent	czerwony	red	zielony	green	hit	n/a
70.5734	n/a	RESPONSE	n/a	n/a	n/a	n/a	n/a	n/a	n/a	green
70.5775	1.0	ITI	n/a	n/a	n/a	n/a	n/a	n/a	n/a	n/a
71.5775	0.5	FIXCROSS	n/a	n/a	n/a	n/a	n/a	n/a	n/a	n/a
72.0775	0.7	INK	16	Neutral	xxxxxxxx	xxxxxxxx	żółty	yellow	hit	n/a
72.7639	n/a	RESPONSE	n/a	n/a	n/a	n/a	n/a	n/a	n/a	yellow
72.7775	1.0	ITI	n/a	n/a	n/a	n/a	n/a	n/a	n/a	n/a
73.7775	0.5	FIXCROSS	n/a	n/a	n/a	n/a	n/a	n/a	n/a	n/a
74.2775	0.5666	INK	17	Incongruent	czerwony	red	niebieski	blue	hit	n/a
74.8264	n/a	RESPONSE	n/a	n/a	n/a	n/a	n/a	n/a	n/a	blue
74.8441	1.0	ITI	n/a	n/a	n/a	n/a	n/a	n/a	n/a	n/a
75.8441	0.5	FIXCROSS	n/a	n/a	n/a	n/a	n/a	n/a	n/a	n/a
76.3441	0.3667	INK	18	Neutral	xxxxxxxx	xxxxxxxx	niebieski	blue	hit	n/a
76.6969	n/a	RESPONSE	n/a	n/a	n/a	n/a	n/a	n/a	n/a	blue
76.7107	1.0	ITI	n/a	n/a	n/a	n/a	n/a	n/a	n/a	n/a
77.7107	0.5	FIXCROSS	n/a	n/a	n/a	n/a	n/a	n/a	n/a	n/a
78.2107	1.9	INK	19	Incongruent	niebieski	blue	żółty	yellow	hit	n/a
80.1026	n/a	RESPONSE	n/a	n/a	n/a	n/a	n/a	n/a	n/a	yellow
80.1107	1.0	ITI	n/a	n/a	n/a	n/a	n/a	n/a	n/a	n/a
81.1106	0.5	FIXCROSS	n/a	n/a	n/a	n/a	n/a	n/a	n/a	n/a
81.6106	0.5833	INK	20	Neutral	xxxxxxx	xxxxxxx	żółty	yellow	hit	n/a
82.1812	n/a	RESPONSE	n/a	n/a	n/a	n/a	n/a	n/a	n/a	yellow
82.194	1.0	ITI	n/a	n/a	n/a	n/a	n/a	n/a	n/a	n/a
83.1939	0.5	FIXCROSS	n/a	n/a	n/a	n/a	n/a	n/a	n/a	n/a
83.6939	0.7	INK	21	Incongruent	żółty	yellow	zielony	green	hit	n/a
84.3875	n/a	RESPONSE	n/a	n/a	n/a	n/a	n/a	n/a	n/a	green
84.3939	1.0	ITI	n/a	n/a	n/a	n/a	n/a	n/a	n/a	n/a
85.3939	0.5	FIXCROSS	n/a	n/a	n/a	n/a	n/a	n/a	n/a	n/a
85.8939	0.5833	INK	22	Neutral	xxxxxxx	xxxxxxx	czerwony	red	hit	n/a
86.466	n/a	RESPONSE	n/a	n/a	n/a	n/a	n/a	n/a	n/a	red
86.4772	1.0	ITI	n/a	n/a	n/a	n/a	n/a	n/a	n/a	n/a
87.4772	0.5	FIXCROSS	n/a	n/a	n/a	n/a	n/a	n/a	n/a	n/a
87.9772	0.3667	INK	23	Incongruent	zielony	green	niebieski	blue	hit	n/a
88.3366	n/a	RESPONSE	n/a	n/a	n/a	n/a	n/a	n/a	n/a	blue
88.3438	1.0	ITI	n/a	n/a	n/a	n/a	n/a	n/a	n/a	n/a
89.3438	0.5	FIXCROSS	n/a	n/a	n/a	n/a	n/a	n/a	n/a	n/a
89.8438	0.5167	INK	24	Neutral	xxxxxxxxx	xxxxxxxxx	czerwony	red	hit	n/a
90.3512	n/a	RESPONSE	n/a	n/a	n/a	n/a	n/a	n/a	n/a	red
90.3605	1.0	ITI	n/a	n/a	n/a	n/a	n/a	n/a	n/a	n/a
91.3604	0.5	FIXCROSS	n/a	n/a	n/a	n/a	n/a	n/a	n/a	n/a
91.8604	1.3	INK	25	Incongruent	żółty	yellow	niebieski	blue	hit	n/a
93.1492	n/a	RESPONSE	n/a	n/a	n/a	n/a	n/a	n/a	n/a	blue
93.1604	1.0	ITI	n/a	n/a	n/a	n/a	n/a	n/a	n/a	n/a
94.1604	0.5	FIXCROSS	n/a	n/a	n/a	n/a	n/a	n/a	n/a	n/a
94.6604	0.95	INK	26	Incongruent	żółty	yellow	czerwony	red	hit	n/a
95.5954	n/a	RESPONSE	n/a	n/a	n/a	n/a	n/a	n/a	n/a	red
95.6104	1.0	ITI	n/a	n/a	n/a	n/a	n/a	n/a	n/a	n/a
96.6103	0.5	FIXCROSS	n/a	n/a	n/a	n/a	n/a	n/a	n/a	n/a
97.1103	1.0	INK	27	Incongruent	czerwony	red	niebieski	blue	hit	n/a
98.1056	n/a	RESPONSE	n/a	n/a	n/a	n/a	n/a	n/a	n/a	blue
98.1103	1.0	ITI	n/a	n/a	n/a	n/a	n/a	n/a	n/a	n/a
99.1103	0.5	FIXCROSS	n/a	n/a	n/a	n/a	n/a	n/a	n/a	n/a
99.6103	0.4333	INK	28	Incongruent	niebieski	blue	zielony	green	hit	n/a
100.0243	n/a	RESPONSE	n/a	n/a	n/a	n/a	n/a	n/a	n/a	green
100.0436	1.0	ITI	n/a	n/a	n/a	n/a	n/a	n/a	n/a	n/a
101.0436	0.5	FIXCROSS	n/a	n/a	n/a	n/a	n/a	n/a	n/a	n/a
101.5436	0.5167	INK	29	Neutral	xxxxxxxxx	xxxxxxxxx	czerwony	red	hit	n/a
102.0548	n/a	RESPONSE	n/a	n/a	n/a	n/a	n/a	n/a	n/a	red
102.0602	1.0	ITI	n/a	n/a	n/a	n/a	n/a	n/a	n/a	n/a
103.0602	0.5	FIXCROSS	n/a	n/a	n/a	n/a	n/a	n/a	n/a	n/a
103.5602	0.5833	INK	30	Incongruent	żółty	yellow	zielony	green	hit	n/a
104.1333	n/a	RESPONSE	n/a	n/a	n/a	n/a	n/a	n/a	n/a	green
104.1435	1.0	ITI	n/a	n/a	n/a	n/a	n/a	n/a	n/a	n/a
105.1435	0.5	FIXCROSS	n/a	n/a	n/a	n/a	n/a	n/a	n/a	n/a
105.6435	0.3833	INK	31	Neutral	xxxxxxxx	xxxxxxxx	zielony	green	hit	n/a
106.0199	n/a	RESPONSE	n/a	n/a	n/a	n/a	n/a	n/a	n/a	green
106.0268	1.0	ITI	n/a	n/a	n/a	n/a	n/a	n/a	n/a	n/a
107.0268	0.5	FIXCROSS	n/a	n/a	n/a	n/a	n/a	n/a	n/a	n/a
107.5268	0.4667	INK	32	Incongruent	żółty	yellow	zielony	green	hit	n/a
107.9866	n/a	RESPONSE	n/a	n/a	n/a	n/a	n/a	n/a	n/a	green
107.9934	1.0	ITI	n/a	n/a	n/a	n/a	n/a	n/a	n/a	n/a
108.9934	0.5	FIXCROSS	n/a	n/a	n/a	n/a	n/a	n/a	n/a	n/a
109.4934	0.5667	INK	33	Neutral	xxxxxxxx	xxxxxxxx	żółty	yellow	hit	n/a
110.0492	n/a	RESPONSE	n/a	n/a	n/a	n/a	n/a	n/a	n/a	yellow
110.0601	1.0	ITI	n/a	n/a	n/a	n/a	n/a	n/a	n/a	n/a
111.06	0.5	FIXCROSS	n/a	n/a	n/a	n/a	n/a	n/a	n/a	n/a
111.56	0.7333	INK	34	Incongruent	żółty	yellow	niebieski	blue	hit	n/a
112.2875	n/a	RESPONSE	n/a	n/a	n/a	n/a	n/a	n/a	n/a	blue
112.2933	1.0	ITI	n/a	n/a	n/a	n/a	n/a	n/a	n/a	n/a
113.2933	0.5	FIXCROSS	n/a	n/a	n/a	n/a	n/a	n/a	n/a	n/a
113.7933	0.4167	INK	35	Neutral	xxxxx	xxxxx	niebieski	blue	hit	n/a
114.2062	n/a	RESPONSE	n/a	n/a	n/a	n/a	n/a	n/a	n/a	blue
114.21	1.0	ITI	n/a	n/a	n/a	n/a	n/a	n/a	n/a	n/a
115.21	0.5	FIXCROSS	n/a	n/a	n/a	n/a	n/a	n/a	n/a	n/a
115.71	0.3833	INK	36	Neutral	xxxxxxxx	xxxxxxxx	niebieski	blue	hit	n/a
116.0769	n/a	RESPONSE	n/a	n/a	n/a	n/a	n/a	n/a	n/a	blue
116.0933	1.0	ITI	n/a	n/a	n/a	n/a	n/a	n/a	n/a	n/a
117.0933	0.5	FIXCROSS	n/a	n/a	n/a	n/a	n/a	n/a	n/a	n/a
117.5932	0.4167	INK	37	Incongruent	niebieski	blue	czerwony	red	hit	n/a
117.9955	n/a	RESPONSE	n/a	n/a	n/a	n/a	n/a	n/a	n/a	red
118.0099	1.0	ITI	n/a	n/a	n/a	n/a	n/a	n/a	n/a	n/a
119.0099	0.5	FIXCROSS	n/a	n/a	n/a	n/a	n/a	n/a	n/a	n/a
119.5099	0.3667	INK	38	Incongruent	niebieski	blue	zielony	green	hit	n/a
119.8661	n/a	RESPONSE	n/a	n/a	n/a	n/a	n/a	n/a	n/a	green
119.8765	1.0	ITI	n/a	n/a	n/a	n/a	n/a	n/a	n/a	n/a
120.8765	0.5	FIXCROSS	n/a	n/a	n/a	n/a	n/a	n/a	n/a	n/a
121.3765	0.5	INK	39	Neutral	xxxxxxxx	xxxxxxxx	żółty	yellow	hit	n/a
121.8647	n/a	RESPONSE	n/a	n/a	n/a	n/a	n/a	n/a	n/a	yellow
121.8765	1.0	ITI	n/a	n/a	n/a	n/a	n/a	n/a	n/a	n/a
122.8765	0.5	FIXCROSS	n/a	n/a	n/a	n/a	n/a	n/a	n/a	n/a
123.3765	0.5167	INK	40	Incongruent	zielony	green	czerwony	red	hit	n/a
123.8792	n/a	RESPONSE	n/a	n/a	n/a	n/a	n/a	n/a	n/a	red
123.8931	1.0	ITI	n/a	n/a	n/a	n/a	n/a	n/a	n/a	n/a
124.8931	0.5	FIXCROSS	n/a	n/a	n/a	n/a	n/a	n/a	n/a	n/a
125.3931	0.55	INK	41	Neutral	xxxxxxx	xxxxxxx	niebieski	blue	hit	n/a
125.9258	n/a	RESPONSE	n/a	n/a	n/a	n/a	n/a	n/a	n/a	blue
125.9431	1.0	ITI	n/a	n/a	n/a	n/a	n/a	n/a	n/a	n/a
126.9431	0.5	FIXCROSS	n/a	n/a	n/a	n/a	n/a	n/a	n/a	n/a
127.443	0.5333	INK	42	Neutral	xxxxxxxxx	xxxxxxxxx	żółty	yellow	hit	n/a
127.9722	n/a	RESPONSE	n/a	n/a	n/a	n/a	n/a	n/a	n/a	yellow
127.9764	1.0	ITI	n/a	n/a	n/a	n/a	n/a	n/a	n/a	n/a
128.9764	0.5	FIXCROSS	n/a	n/a	n/a	n/a	n/a	n/a	n/a	n/a
129.4763	0.5167	INK	43	Incongruent	żółty	yellow	czerwony	red	hit	n/a
129.9868	n/a	RESPONSE	n/a	n/a	n/a	n/a	n/a	n/a	n/a	red
129.993	1.0	ITI	n/a	n/a	n/a	n/a	n/a	n/a	n/a	n/a
130.993	0.5	FIXCROSS	n/a	n/a	n/a	n/a	n/a	n/a	n/a	n/a
131.493	0.4833	INK	44	Neutral	xxxxx	xxxxx	czerwony	red	hit	n/a
131.9695	n/a	RESPONSE	n/a	n/a	n/a	n/a	n/a	n/a	n/a	red
131.9763	1.0	ITI	n/a	n/a	n/a	n/a	n/a	n/a	n/a	n/a
132.9763	0.5	FIXCROSS	n/a	n/a	n/a	n/a	n/a	n/a	n/a	n/a
133.4763	1.0667	INK	45	Neutral	xxxxxxx	xxxxxxx	żółty	yellow	hit	n/a
134.5276	n/a	RESPONSE	n/a	n/a	n/a	n/a	n/a	n/a	n/a	yellow
134.5429	1.0	ITI	n/a	n/a	n/a	n/a	n/a	n/a	n/a	n/a
135.5429	0.5	FIXCROSS	n/a	n/a	n/a	n/a	n/a	n/a	n/a	n/a
136.0429	0.6833	INK	46	Incongruent	zielony	green	czerwony	red	hit	n/a
136.718	n/a	RESPONSE	n/a	n/a	n/a	n/a	n/a	n/a	n/a	red
136.7262	1.0	ITI	n/a	n/a	n/a	n/a	n/a	n/a	n/a	n/a
137.7262	0.5	FIXCROSS	n/a	n/a	n/a	n/a	n/a	n/a	n/a	n/a
138.2262	0.3667	INK	47	Incongruent	czerwony	red	zielony	green	hit	n/a
138.5887	n/a	RESPONSE	n/a	n/a	n/a	n/a	n/a	n/a	n/a	green
138.5928	1.0	ITI	n/a	n/a	n/a	n/a	n/a	n/a	n/a	n/a
139.5928	0.5	FIXCROSS	n/a	n/a	n/a	n/a	n/a	n/a	n/a	n/a
140.0928	0.5667	INK	48	Incongruent	zielony	green	czerwony	red	hit	n/a
140.6513	n/a	RESPONSE	n/a	n/a	n/a	n/a	n/a	n/a	n/a	red
140.6594	1.0	ITI	n/a	n/a	n/a	n/a	n/a	n/a	n/a	n/a
141.6594	0.5	FIXCROSS	n/a	n/a	n/a	n/a	n/a	n/a	n/a	n/a
142.1594	0.6167	INK	49	Incongruent	czerwony	red	niebieski	blue	hit	n/a
142.7617	n/a	RESPONSE	n/a	n/a	n/a	n/a	n/a	n/a	n/a	blue
142.7761	1.0	ITI	n/a	n/a	n/a	n/a	n/a	n/a	n/a	n/a
143.7761	0.5	FIXCROSS	n/a	n/a	n/a	n/a	n/a	n/a	n/a	n/a
144.276	0.5	INK	50	Neutral	xxxxx	xxxxx	niebieski	blue	hit	n/a
144.7603	n/a	RESPONSE	n/a	n/a	n/a	n/a	n/a	n/a	n/a	blue
144.776	1.0	ITI	n/a	n/a	n/a	n/a	n/a	n/a	n/a	n/a
145.776	0.5	FIXCROSS	n/a	n/a	n/a	n/a	n/a	n/a	n/a	n/a
146.276	0.5	INK	51	Neutral	xxxxxxxxx	xxxxxxxxx	zielony	green	hit	n/a
146.7588	n/a	RESPONSE	n/a	n/a	n/a	n/a	n/a	n/a	n/a	green
146.776	1.0	ITI	n/a	n/a	n/a	n/a	n/a	n/a	n/a	n/a
147.776	0.5	FIXCROSS	n/a	n/a	n/a	n/a	n/a	n/a	n/a	n/a
148.276	0.5	INK	52	Incongruent	zielony	green	żółty	yellow	hit	n/a
148.7573	n/a	RESPONSE	n/a	n/a	n/a	n/a	n/a	n/a	n/a	yellow
148.7759	1.0	ITI	n/a	n/a	n/a	n/a	n/a	n/a	n/a	n/a
149.7759	0.5	FIXCROSS	n/a	n/a	n/a	n/a	n/a	n/a	n/a	n/a
150.2759	0.5167	INK	53	Incongruent	zielony	green	niebieski	blue	hit	n/a
150.788	n/a	RESPONSE	n/a	n/a	n/a	n/a	n/a	n/a	n/a	blue
150.7926	1.0	ITI	n/a	n/a	n/a	n/a	n/a	n/a	n/a	n/a
151.7926	0.5	FIXCROSS	n/a	n/a	n/a	n/a	n/a	n/a	n/a	n/a
152.2925	1.5166	INK	54	Incongruent	niebieski	blue	żółty	yellow	hit	n/a
153.7938	n/a	RESPONSE	n/a	n/a	n/a	n/a	n/a	n/a	n/a	yellow
153.8092	1.0	ITI	n/a	n/a	n/a	n/a	n/a	n/a	n/a	n/a
154.8092	0.5	FIXCROSS	n/a	n/a	n/a	n/a	n/a	n/a	n/a	n/a
155.3091	0.5	INK	55	Incongruent	niebieski	blue	żółty	yellow	hit	n/a
155.7923	n/a	RESPONSE	n/a	n/a	n/a	n/a	n/a	n/a	n/a	yellow
155.8091	1.0	ITI	n/a	n/a	n/a	n/a	n/a	n/a	n/a	n/a
156.8091	0.5	FIXCROSS	n/a	n/a	n/a	n/a	n/a	n/a	n/a	n/a
157.3091	0.6167	INK	56	Incongruent	czerwony	red	żółty	yellow	hit	n/a
157.9187	n/a	RESPONSE	n/a	n/a	n/a	n/a	n/a	n/a	n/a	yellow
157.9258	1.0	ITI	n/a	n/a	n/a	n/a	n/a	n/a	n/a	n/a
158.9257	0.5	FIXCROSS	n/a	n/a	n/a	n/a	n/a	n/a	n/a	n/a
159.4257	0.45	INK	57	Neutral	xxxxxxx	xxxxxxx	żółty	yellow	hit	n/a
159.8695	n/a	RESPONSE	n/a	n/a	n/a	n/a	n/a	n/a	n/a	yellow
159.8757	1.0	ITI	n/a	n/a	n/a	n/a	n/a	n/a	n/a	n/a
160.8757	0.5	FIXCROSS	n/a	n/a	n/a	n/a	n/a	n/a	n/a	n/a
161.3757	0.4667	INK	58	Neutral	xxxxxxxxx	xxxxxxxxx	czerwony	red	hit	n/a
161.8359	n/a	RESPONSE	n/a	n/a	n/a	n/a	n/a	n/a	n/a	red
161.8423	1.0	ITI	n/a	n/a	n/a	n/a	n/a	n/a	n/a	n/a
162.8423	0.5	FIXCROSS	n/a	n/a	n/a	n/a	n/a	n/a	n/a	n/a
163.3423	0.5166	INK	59	Neutral	xxxxxxxx	xxxxxxxx	zielony	green	hit	n/a
163.8506	n/a	RESPONSE	n/a	n/a	n/a	n/a	n/a	n/a	n/a	green
163.859	1.0	ITI	n/a	n/a	n/a	n/a	n/a	n/a	n/a	n/a
164.8589	0.5	FIXCROSS	n/a	n/a	n/a	n/a	n/a	n/a	n/a	n/a
165.3589	0.4833	INK	60	Neutral	xxxxx	xxxxx	czerwony	red	hit	n/a
165.8331	n/a	RESPONSE	n/a	n/a	n/a	n/a	n/a	n/a	n/a	red
165.8423	1.0	ITI	n/a	n/a	n/a	n/a	n/a	n/a	n/a	n/a
166.8422	0.5	FIXCROSS	n/a	n/a	n/a	n/a	n/a	n/a	n/a	n/a
167.3422	0.7333	INK	61	Neutral	xxxxxxxx	xxxxxxxx	zielony	green	hit	n/a
168.0716	n/a	RESPONSE	n/a	n/a	n/a	n/a	n/a	n/a	n/a	green
168.0755	1.0	ITI	n/a	n/a	n/a	n/a	n/a	n/a	n/a	n/a
169.0755	0.5	FIXCROSS	n/a	n/a	n/a	n/a	n/a	n/a	n/a	n/a
169.5755	0.65	INK	62	Neutral	xxxxxxxxx	xxxxxxxxx	żółty	yellow	hit	n/a
170.214	n/a	RESPONSE	n/a	n/a	n/a	n/a	n/a	n/a	n/a	yellow
170.2255	1.0	ITI	n/a	n/a	n/a	n/a	n/a	n/a	n/a	n/a
171.2255	0.5	FIXCROSS	n/a	n/a	n/a	n/a	n/a	n/a	n/a	n/a
171.7255	0.65	INK	63	Neutral	xxxxx	xxxxx	zielony	green	hit	n/a
172.3724	n/a	RESPONSE	n/a	n/a	n/a	n/a	n/a	n/a	n/a	green
172.3755	1.0	ITI	n/a	n/a	n/a	n/a	n/a	n/a	n/a	n/a
173.3755	0.5	FIXCROSS	n/a	n/a	n/a	n/a	n/a	n/a	n/a	n/a
173.8754	0.7	INK	64	Incongruent	niebieski	blue	czerwony	red	hit	n/a
174.5628	n/a	RESPONSE	n/a	n/a	n/a	n/a	n/a	n/a	n/a	red
174.5754	1.0	ITI	n/a	n/a	n/a	n/a	n/a	n/a	n/a	n/a
175.5754	0.5	FIXCROSS	n/a	n/a	n/a	n/a	n/a	n/a	n/a	n/a
176.0754	0.5167	INK	65	Incongruent	zielony	green	niebieski	blue	hit	n/a
176.5773	n/a	RESPONSE	n/a	n/a	n/a	n/a	n/a	n/a	n/a	blue
176.592	1.0	ITI	n/a	n/a	n/a	n/a	n/a	n/a	n/a	n/a
177.592	0.5	FIXCROSS	n/a	n/a	n/a	n/a	n/a	n/a	n/a	n/a
178.092	0.55	INK	66	Neutral	xxxxx	xxxxx	zielony	green	hit	n/a
178.624	n/a	RESPONSE	n/a	n/a	n/a	n/a	n/a	n/a	n/a	green
178.642	1.0	ITI	n/a	n/a	n/a	n/a	n/a	n/a	n/a	n/a
179.642	0.5	FIXCROSS	n/a	n/a	n/a	n/a	n/a	n/a	n/a	n/a
180.142	0.3833	INK	67	Neutral	xxxxxxx	xxxxxxx	niebieski	blue	hit	n/a
180.5105	n/a	RESPONSE	n/a	n/a	n/a	n/a	n/a	n/a	n/a	blue
180.5253	1.0	ITI	n/a	n/a	n/a	n/a	n/a	n/a	n/a	n/a
181.5253	0.5	FIXCROSS	n/a	n/a	n/a	n/a	n/a	n/a	n/a	n/a
182.0253	0.5167	INK	68	Neutral	xxxxx	xxxxx	niebieski	blue	hit	n/a
182.5252	n/a	RESPONSE	n/a	n/a	n/a	n/a	n/a	n/a	n/a	blue
182.5419	1.0	ITI	n/a	n/a	n/a	n/a	n/a	n/a	n/a	n/a
183.5419	0.5	FIXCROSS	n/a	n/a	n/a	n/a	n/a	n/a	n/a	n/a
184.0419	0.4667	INK	69	Incongruent	niebieski	blue	zielony	green	hit	n/a
184.4916	n/a	RESPONSE	n/a	n/a	n/a	n/a	n/a	n/a	n/a	green
184.5086	0.9999	ITI	n/a	n/a	n/a	n/a	n/a	n/a	n/a	n/a
185.5085	0.5001	FIXCROSS	n/a	n/a	n/a	n/a	n/a	n/a	n/a	n/a
186.0085	0.5667	INK	70	Neutral	xxxxxxxx	xxxxxxxx	niebieski	blue	hit	n/a
186.5703	n/a	RESPONSE	n/a	n/a	n/a	n/a	n/a	n/a	n/a	blue
186.5752	1.0	ITI	n/a	n/a	n/a	n/a	n/a	n/a	n/a	n/a
187.5752	0.5	FIXCROSS	n/a	n/a	n/a	n/a	n/a	n/a	n/a	n/a
188.0751	0.7833	INK	71	Incongruent	czerwony	red	zielony	green	hit	n/a
188.8406	n/a	RESPONSE	n/a	n/a	n/a	n/a	n/a	n/a	n/a	green
188.8585	1.0	ITI	n/a	n/a	n/a	n/a	n/a	n/a	n/a	n/a
189.8584	0.5	FIXCROSS	n/a	n/a	n/a	n/a	n/a	n/a	n/a	n/a
190.3584	0.35	INK	72	Neutral	xxxxxxx	xxxxxxx	niebieski	blue	hit	n/a
190.6952	n/a	RESPONSE	n/a	n/a	n/a	n/a	n/a	n/a	n/a	blue
190.7084	1.0333	ITI	n/a	n/a	n/a	n/a	n/a	n/a	n/a	n/a
216.8837	n/a	RESPONSE	n/a	n/a	n/a	n/a	n/a	n/a	n/a	n/a
216.9079	1.0	ITI	n/a	n/a	n/a	n/a	n/a	n/a	n/a	n/a
217.9079	0.5	FIXCROSS	n/a	n/a	n/a	n/a	n/a	n/a	n/a	n/a
218.4079	1.0833	T_COLOR_NAME	1	Neutral	czerwony	red	Neutral	Neutral	hit	n/a
219.474	n/a	RESPONSE	n/a	n/a	n/a	n/a	n/a	n/a	n/a	red
219.4912	0.5	FEEDBACK	n/a	n/a	n/a	n/a	n/a	n/a	n/a	n/a
219.9912	1.0	ITI	n/a	n/a	n/a	n/a	n/a	n/a	n/a	n/a
220.9911	0.5	FIXCROSS	n/a	n/a	n/a	n/a	n/a	n/a	n/a	n/a
221.4911	0.5667	T_COLOR_NAME	2	Neutral	czerwony	red	Neutral	Neutral	hit	n/a
222.0481	n/a	RESPONSE	n/a	n/a	n/a	n/a	n/a	n/a	n/a	red
222.0578	0.5	FEEDBACK	n/a	n/a	n/a	n/a	n/a	n/a	n/a	n/a
222.5578	1.0	ITI	n/a	n/a	n/a	n/a	n/a	n/a	n/a	n/a
223.5578	0.5	FIXCROSS	n/a	n/a	n/a	n/a	n/a	n/a	n/a	n/a
224.0578	1.0166	T_COLOR_NAME	3	Incongruent	zielony	green	żółty	yellow	hit	n/a
225.0699	n/a	RESPONSE	n/a	n/a	n/a	n/a	n/a	n/a	n/a	green
225.0744	0.5	FEEDBACK	n/a	n/a	n/a	n/a	n/a	n/a	n/a	n/a
225.5744	1.0	ITI	n/a	n/a	n/a	n/a	n/a	n/a	n/a	n/a
226.5744	0.5	FIXCROSS	n/a	n/a	n/a	n/a	n/a	n/a	n/a	n/a
227.0744	0.7666	T_COLOR_NAME	4	Incongruent	żółty	yellow	zielony	green	hit	n/a
227.8359	n/a	RESPONSE	n/a	n/a	n/a	n/a	n/a	n/a	n/a	yellow
227.841	0.5	FEEDBACK	n/a	n/a	n/a	n/a	n/a	n/a	n/a	n/a
228.341	1.0	ITI	n/a	n/a	n/a	n/a	n/a	n/a	n/a	n/a
229.341	0.5	FIXCROSS	n/a	n/a	n/a	n/a	n/a	n/a	n/a	n/a
229.841	0.6333	T_COLOR_NAME	5	Neutral	niebieski	blue	Neutral	Neutral	hit	n/a
230.458	n/a	RESPONSE	n/a	n/a	n/a	n/a	n/a	n/a	n/a	blue
230.4743	0.5	FEEDBACK	n/a	n/a	n/a	n/a	n/a	n/a	n/a	n/a
230.9743	1.0	ITI	n/a	n/a	n/a	n/a	n/a	n/a	n/a	n/a
231.9743	0.5	FIXCROSS	n/a	n/a	n/a	n/a	n/a	n/a	n/a	n/a
232.4743	0.5833	T_COLOR_NAME	6	Neutral	zielony	green	Neutral	Neutral	hit	n/a
233.0483	n/a	RESPONSE	n/a	n/a	n/a	n/a	n/a	n/a	n/a	green
233.0576	0.5	FEEDBACK	n/a	n/a	n/a	n/a	n/a	n/a	n/a	n/a
233.5576	1.0	ITI	n/a	n/a	n/a	n/a	n/a	n/a	n/a	n/a
234.5575	0.5	FIXCROSS	n/a	n/a	n/a	n/a	n/a	n/a	n/a	n/a
235.0575	0.55	T_COLOR_NAME	7	Neutral	żółty	yellow	Neutral	Neutral	hit	n/a
235.5903	n/a	RESPONSE	n/a	n/a	n/a	n/a	n/a	n/a	n/a	yellow
235.6075	0.5	FEEDBACK	n/a	n/a	n/a	n/a	n/a	n/a	n/a	n/a
236.1075	1.0	ITI	n/a	n/a	n/a	n/a	n/a	n/a	n/a	n/a
237.1075	0.5	FIXCROSS	n/a	n/a	n/a	n/a	n/a	n/a	n/a	n/a
237.6075	1.4666	T_COLOR_NAME	8	Neutral	niebieski	blue	Neutral	Neutral	hit	n/a
239.0598	n/a	RESPONSE	n/a	n/a	n/a	n/a	n/a	n/a	n/a	blue
239.0741	0.5	FEEDBACK	n/a	n/a	n/a	n/a	n/a	n/a	n/a	n/a
239.5741	1.0	ITI	n/a	n/a	n/a	n/a	n/a	n/a	n/a	n/a
240.5741	0.5	FIXCROSS	n/a	n/a	n/a	n/a	n/a	n/a	n/a	n/a
241.0741	0.7333	T_COLOR_NAME	9	Neutral	niebieski	blue	Neutral	Neutral	hit	n/a
241.7939	n/a	RESPONSE	n/a	n/a	n/a	n/a	n/a	n/a	n/a	blue
241.8074	0.5	FEEDBACK	n/a	n/a	n/a	n/a	n/a	n/a	n/a	n/a
242.3074	1.0	ITI	n/a	n/a	n/a	n/a	n/a	n/a	n/a	n/a
243.3074	0.5	FIXCROSS	n/a	n/a	n/a	n/a	n/a	n/a	n/a	n/a
243.8074	0.6666	T_COLOR_NAME	10	Incongruent	czerwony	red	niebieski	blue	hit	n/a
244.464	n/a	RESPONSE	n/a	n/a	n/a	n/a	n/a	n/a	n/a	red
244.474	0.5	FEEDBACK	n/a	n/a	n/a	n/a	n/a	n/a	n/a	n/a
244.974	1.0	ITI	n/a	n/a	n/a	n/a	n/a	n/a	n/a	n/a
245.974	0.5	FIXCROSS	n/a	n/a	n/a	n/a	n/a	n/a	n/a	n/a
246.474	0.7167	T_COLOR_NAME	11	Incongruent	niebieski	blue	żółty	yellow	hit	n/a
247.1821	n/a	RESPONSE	n/a	n/a	n/a	n/a	n/a	n/a	n/a	blue
247.1906	0.5	FEEDBACK	n/a	n/a	n/a	n/a	n/a	n/a	n/a	n/a
247.6906	1.0	ITI	n/a	n/a	n/a	n/a	n/a	n/a	n/a	n/a
248.6906	0.5	FIXCROSS	n/a	n/a	n/a	n/a	n/a	n/a	n/a	n/a
249.1906	0.6667	T_COLOR_NAME	12	Neutral	żółty	yellow	Neutral	Neutral	hit	n/a
249.8522	n/a	RESPONSE	n/a	n/a	n/a	n/a	n/a	n/a	n/a	yellow
249.8572	0.5	FEEDBACK	n/a	n/a	n/a	n/a	n/a	n/a	n/a	n/a
250.3572	1.0	ITI	n/a	n/a	n/a	n/a	n/a	n/a	n/a	n/a
253.1778	n/a	RESPONSE	n/a	n/a	n/a	n/a	n/a	n/a	n/a	n/a
253.2072	1.0	ITI	n/a	n/a	n/a	n/a	n/a	n/a	n/a	n/a
254.2071	0.5	FIXCROSS	n/a	n/a	n/a	n/a	n/a	n/a	n/a	n/a
254.7071	0.7	COLOR_NAME	1	Neutral	niebieski	blue	Neutral	Neutral	hit	n/a
255.4001	n/a	RESPONSE	n/a	n/a	n/a	n/a	n/a	n/a	n/a	blue
255.4071	1.0	ITI	n/a	n/a	n/a	n/a	n/a	n/a	n/a	n/a
256.4071	0.5	FIXCROSS	n/a	n/a	n/a	n/a	n/a	n/a	n/a	n/a
256.9071	0.7666	COLOR_NAME	2	Neutral	zielony	green	Neutral	Neutral	hit	n/a
257.6707	n/a	RESPONSE	n/a	n/a	n/a	n/a	n/a	n/a	n/a	green
257.6737	1.0	ITI	n/a	n/a	n/a	n/a	n/a	n/a	n/a	n/a
258.6737	0.5	FIXCROSS	n/a	n/a	n/a	n/a	n/a	n/a	n/a	n/a
259.1737	0.6667	COLOR_NAME	3	Incongruent	zielony	green	żółty	yellow	hit	n/a
259.829	n/a	RESPONSE	n/a	n/a	n/a	n/a	n/a	n/a	n/a	green
259.8404	1.0	ITI	n/a	n/a	n/a	n/a	n/a	n/a	n/a	n/a
260.8403	0.5	FIXCROSS	n/a	n/a	n/a	n/a	n/a	n/a	n/a	n/a
261.3403	0.4667	COLOR_NAME	4	Incongruent	żółty	yellow	zielony	green	hit	n/a
261.7956	n/a	RESPONSE	n/a	n/a	n/a	n/a	n/a	n/a	n/a	yellow
261.807	1.0	ITI	n/a	n/a	n/a	n/a	n/a	n/a	n/a	n/a
262.807	0.5	FIXCROSS	n/a	n/a	n/a	n/a	n/a	n/a	n/a	n/a
263.307	0.7	COLOR_NAME	5	Neutral	niebieski	blue	Neutral	Neutral	hit	n/a
264.0021	n/a	RESPONSE	n/a	n/a	n/a	n/a	n/a	n/a	n/a	blue
264.0069	1.0	ITI	n/a	n/a	n/a	n/a	n/a	n/a	n/a	n/a
265.0069	0.5	FIXCROSS	n/a	n/a	n/a	n/a	n/a	n/a	n/a	n/a
265.5069	0.3667	COLOR_NAME	6	Neutral	czerwony	red	Neutral	Neutral	hit	n/a
265.8567	n/a	RESPONSE	n/a	n/a	n/a	n/a	n/a	n/a	n/a	red
265.8736	1.0	ITI	n/a	n/a	n/a	n/a	n/a	n/a	n/a	n/a
266.8736	0.5	FIXCROSS	n/a	n/a	n/a	n/a	n/a	n/a	n/a	n/a
267.3735	1.2166	COLOR_NAME	7	Incongruent	zielony	green	czerwony	red	hit	n/a
268.5748	n/a	RESPONSE	n/a	n/a	n/a	n/a	n/a	n/a	n/a	green
268.5902	1.0	ITI	n/a	n/a	n/a	n/a	n/a	n/a	n/a	n/a
269.5902	0.5	FIXCROSS	n/a	n/a	n/a	n/a	n/a	n/a	n/a	n/a
270.0902	0.5333	COLOR_NAME	8	Neutral	niebieski	blue	Neutral	Neutral	hit	n/a
270.6053	n/a	RESPONSE	n/a	n/a	n/a	n/a	n/a	n/a	n/a	blue
270.6235	1.0	ITI	n/a	n/a	n/a	n/a	n/a	n/a	n/a	n/a
271.6235	0.5	FIXCROSS	n/a	n/a	n/a	n/a	n/a	n/a	n/a	n/a
272.1234	0.8333	COLOR_NAME	9	Incongruent	zielony	green	żółty	yellow	hit	n/a
272.9396	n/a	RESPONSE	n/a	n/a	n/a	n/a	n/a	n/a	n/a	green
272.9568	1.0	ITI	n/a	n/a	n/a	n/a	n/a	n/a	n/a	n/a
273.9567	0.5	FIXCROSS	n/a	n/a	n/a	n/a	n/a	n/a	n/a	n/a
274.4567	0.6167	COLOR_NAME	10	Neutral	czerwony	red	Neutral	Neutral	hit	n/a
275.0661	n/a	RESPONSE	n/a	n/a	n/a	n/a	n/a	n/a	n/a	red
275.0734	1.0	ITI	n/a	n/a	n/a	n/a	n/a	n/a	n/a	n/a
276.0734	0.5	FIXCROSS	n/a	n/a	n/a	n/a	n/a	n/a	n/a	n/a
276.5734	0.4167	COLOR_NAME	11	Incongruent	żółty	yellow	niebieski	blue	hit	n/a
276.9847	n/a	RESPONSE	n/a	n/a	n/a	n/a	n/a	n/a	n/a	yellow
276.99	1.0	ITI	n/a	n/a	n/a	n/a	n/a	n/a	n/a	n/a
277.99	0.5	FIXCROSS	n/a	n/a	n/a	n/a	n/a	n/a	n/a	n/a
278.49	0.45	COLOR_NAME	12	Incongruent	czerwony	red	niebieski	blue	hit	n/a
278.9355	n/a	RESPONSE	n/a	n/a	n/a	n/a	n/a	n/a	n/a	red
278.94	1.0	ITI	n/a	n/a	n/a	n/a	n/a	n/a	n/a	n/a
279.94	0.5	FIXCROSS	n/a	n/a	n/a	n/a	n/a	n/a	n/a	n/a
280.4399	0.5167	COLOR_NAME	13	Incongruent	czerwony	red	niebieski	blue	hit	n/a
280.95	n/a	RESPONSE	n/a	n/a	n/a	n/a	n/a	n/a	n/a	red
280.9566	1.0	ITI	n/a	n/a	n/a	n/a	n/a	n/a	n/a	n/a
281.9566	0.5	FIXCROSS	n/a	n/a	n/a	n/a	n/a	n/a	n/a	n/a
282.4566	0.75	COLOR_NAME	14	Incongruent	żółty	yellow	zielony	green	hit	n/a
283.1885	n/a	RESPONSE	n/a	n/a	n/a	n/a	n/a	n/a	n/a	yellow
283.2066	1.0	ITI	n/a	n/a	n/a	n/a	n/a	n/a	n/a	n/a
284.2065	0.5	FIXCROSS	n/a	n/a	n/a	n/a	n/a	n/a	n/a	n/a
284.7065	0.7833	COLOR_NAME	15	Incongruent	czerwony	red	żółty	yellow	hit	n/a
285.4746	n/a	RESPONSE	n/a	n/a	n/a	n/a	n/a	n/a	n/a	red
285.4898	1.0	ITI	n/a	n/a	n/a	n/a	n/a	n/a	n/a	n/a
286.4898	0.5	FIXCROSS	n/a	n/a	n/a	n/a	n/a	n/a	n/a	n/a
286.9898	0.6	COLOR_NAME	16	Incongruent	niebieski	blue	zielony	green	hit	n/a
287.5851	n/a	RESPONSE	n/a	n/a	n/a	n/a	n/a	n/a	n/a	blue
287.5898	1.0	ITI	n/a	n/a	n/a	n/a	n/a	n/a	n/a	n/a
288.5898	0.5	FIXCROSS	n/a	n/a	n/a	n/a	n/a	n/a	n/a	n/a
289.0898	0.55	COLOR_NAME	17	Neutral	zielony	green	Neutral	Neutral	hit	n/a
289.6317	n/a	RESPONSE	n/a	n/a	n/a	n/a	n/a	n/a	n/a	green
289.6398	1.0	ITI	n/a	n/a	n/a	n/a	n/a	n/a	n/a	n/a
290.6397	0.5	FIXCROSS	n/a	n/a	n/a	n/a	n/a	n/a	n/a	n/a
291.1397	0.7833	COLOR_NAME	18	Incongruent	czerwony	red	niebieski	blue	hit	n/a
291.9181	n/a	RESPONSE	n/a	n/a	n/a	n/a	n/a	n/a	n/a	red
291.923	1.0	ITI	n/a	n/a	n/a	n/a	n/a	n/a	n/a	n/a
292.923	0.5	FIXCROSS	n/a	n/a	n/a	n/a	n/a	n/a	n/a	n/a
293.423	0.6167	COLOR_NAME	19	Incongruent	żółty	yellow	niebieski	blue	hit	n/a
294.0286	n/a	RESPONSE	n/a	n/a	n/a	n/a	n/a	n/a	n/a	yellow
294.0397	1.0	ITI	n/a	n/a	n/a	n/a	n/a	n/a	n/a	n/a
295.0396	0.5	FIXCROSS	n/a	n/a	n/a	n/a	n/a	n/a	n/a	n/a
295.5396	0.6	COLOR_NAME	20	Neutral	żółty	yellow	Neutral	Neutral	hit	n/a
296.1231	n/a	RESPONSE	n/a	n/a	n/a	n/a	n/a	n/a	n/a	yellow
296.1396	1.0	ITI	n/a	n/a	n/a	n/a	n/a	n/a	n/a	n/a
297.1396	0.5	FIXCROSS	n/a	n/a	n/a	n/a	n/a	n/a	n/a	n/a
297.6396	0.4833	COLOR_NAME	21	Incongruent	żółty	yellow	niebieski	blue	hit	n/a
298.1057	n/a	RESPONSE	n/a	n/a	n/a	n/a	n/a	n/a	n/a	yellow
298.1229	1.0	ITI	n/a	n/a	n/a	n/a	n/a	n/a	n/a	n/a
299.1229	0.5	FIXCROSS	n/a	n/a	n/a	n/a	n/a	n/a	n/a	n/a
299.6229	0.3667	COLOR_NAME	22	Neutral	żółty	yellow	Neutral	Neutral	hit	n/a
299.9763	n/a	RESPONSE	n/a	n/a	n/a	n/a	n/a	n/a	n/a	yellow
299.9896	1.0	ITI	n/a	n/a	n/a	n/a	n/a	n/a	n/a	n/a
300.9895	0.5	FIXCROSS	n/a	n/a	n/a	n/a	n/a	n/a	n/a	n/a
301.4895	0.8833	COLOR_NAME	23	Neutral	zielony	green	Neutral	Neutral	hit	n/a
302.3585	n/a	RESPONSE	n/a	n/a	n/a	n/a	n/a	n/a	n/a	green
302.3728	1.0	ITI	n/a	n/a	n/a	n/a	n/a	n/a	n/a	n/a
303.3728	0.5	FIXCROSS	n/a	n/a	n/a	n/a	n/a	n/a	n/a	n/a
303.8728	0.5833	COLOR_NAME	24	Incongruent	czerwony	red	zielony	green	hit	n/a
304.4371	n/a	RESPONSE	n/a	n/a	n/a	n/a	n/a	n/a	n/a	red
304.4561	1.0	ITI	n/a	n/a	n/a	n/a	n/a	n/a	n/a	n/a
305.4561	0.5	FIXCROSS	n/a	n/a	n/a	n/a	n/a	n/a	n/a	n/a
305.9561	0.7333	COLOR_NAME	25	Neutral	zielony	green	Neutral	Neutral	hit	n/a
306.6755	n/a	RESPONSE	n/a	n/a	n/a	n/a	n/a	n/a	n/a	green
306.6894	1.0	ITI	n/a	n/a	n/a	n/a	n/a	n/a	n/a	n/a
307.6894	0.5	FIXCROSS	n/a	n/a	n/a	n/a	n/a	n/a	n/a	n/a
308.1894	1.0	COLOR_NAME	26	Incongruent	zielony	green	niebieski	blue	hit	n/a
309.1856	n/a	RESPONSE	n/a	n/a	n/a	n/a	n/a	n/a	n/a	green
309.1894	1.0	ITI	n/a	n/a	n/a	n/a	n/a	n/a	n/a	n/a
310.1893	0.5	FIXCROSS	n/a	n/a	n/a	n/a	n/a	n/a	n/a	n/a
310.6893	0.45	COLOR_NAME	27	Neutral	zielony	green	Neutral	Neutral	hit	n/a
311.1363	n/a	RESPONSE	n/a	n/a	n/a	n/a	n/a	n/a	n/a	green
311.1393	1.0	ITI	n/a	n/a	n/a	n/a	n/a	n/a	n/a	n/a
312.1393	0.5	FIXCROSS	n/a	n/a	n/a	n/a	n/a	n/a	n/a	n/a
312.6393	0.3333	COLOR_NAME	28	Neutral	zielony	green	Neutral	Neutral	hit	n/a
312.9589	n/a	RESPONSE	n/a	n/a	n/a	n/a	n/a	n/a	n/a	green
312.9726	1.0	ITI	n/a	n/a	n/a	n/a	n/a	n/a	n/a	n/a
313.9726	0.5	FIXCROSS	n/a	n/a	n/a	n/a	n/a	n/a	n/a	n/a
314.4726	0.4333	COLOR_NAME	29	Incongruent	zielony	green	czerwony	red	hit	n/a
314.8935	n/a	RESPONSE	n/a	n/a	n/a	n/a	n/a	n/a	n/a	green
314.9059	1.0	ITI	n/a	n/a	n/a	n/a	n/a	n/a	n/a	n/a
315.9059	0.5	FIXCROSS	n/a	n/a	n/a	n/a	n/a	n/a	n/a	n/a
316.4059	0.5833	COLOR_NAME	30	Incongruent	niebieski	blue	czerwony	red	hit	n/a
316.9721	n/a	RESPONSE	n/a	n/a	n/a	n/a	n/a	n/a	n/a	blue
316.9892	1.0	ITI	n/a	n/a	n/a	n/a	n/a	n/a	n/a	n/a
317.9892	0.5	FIXCROSS	n/a	n/a	n/a	n/a	n/a	n/a	n/a	n/a
318.4892	0.4667	COLOR_NAME	31	Neutral	niebieski	blue	Neutral	Neutral	hit	n/a
318.9386	n/a	RESPONSE	n/a	n/a	n/a	n/a	n/a	n/a	n/a	blue
318.9558	1.0	ITI	n/a	n/a	n/a	n/a	n/a	n/a	n/a	n/a
319.9558	0.5	FIXCROSS	n/a	n/a	n/a	n/a	n/a	n/a	n/a	n/a
320.4558	0.6	COLOR_NAME	32	Incongruent	żółty	yellow	czerwony	red	hit	n/a
321.0491	n/a	RESPONSE	n/a	n/a	n/a	n/a	n/a	n/a	n/a	yellow
321.0558	1.0	ITI	n/a	n/a	n/a	n/a	n/a	n/a	n/a	n/a
322.0558	0.5	FIXCROSS	n/a	n/a	n/a	n/a	n/a	n/a	n/a	n/a
322.5558	0.7833	COLOR_NAME	33	Neutral	żółty	yellow	Neutral	Neutral	hit	n/a
323.3355	n/a	RESPONSE	n/a	n/a	n/a	n/a	n/a	n/a	n/a	yellow
323.3391	1.0	ITI	n/a	n/a	n/a	n/a	n/a	n/a	n/a	n/a
324.3391	0.5	FIXCROSS	n/a	n/a	n/a	n/a	n/a	n/a	n/a	n/a
324.839	0.45	COLOR_NAME	34	Neutral	żółty	yellow	Neutral	Neutral	hit	n/a
325.2701	n/a	RESPONSE	n/a	n/a	n/a	n/a	n/a	n/a	n/a	yellow
325.289	1.0	ITI	n/a	n/a	n/a	n/a	n/a	n/a	n/a	n/a
326.289	0.5	FIXCROSS	n/a	n/a	n/a	n/a	n/a	n/a	n/a	n/a
326.789	0.65	COLOR_NAME	35	Neutral	czerwony	red	Neutral	Neutral	hit	n/a
327.4285	n/a	RESPONSE	n/a	n/a	n/a	n/a	n/a	n/a	n/a	red
327.439	1.0	ITI	n/a	n/a	n/a	n/a	n/a	n/a	n/a	n/a
328.439	0.5	FIXCROSS	n/a	n/a	n/a	n/a	n/a	n/a	n/a	n/a
328.939	1.0666	COLOR_NAME	36	Incongruent	zielony	green	niebieski	blue	hit	n/a
329.9866	n/a	RESPONSE	n/a	n/a	n/a	n/a	n/a	n/a	n/a	green
330.0056	1.0	ITI	n/a	n/a	n/a	n/a	n/a	n/a	n/a	n/a
331.0056	0.5	FIXCROSS	n/a	n/a	n/a	n/a	n/a	n/a	n/a	n/a
331.5056	0.65	COLOR_NAME	37	Neutral	niebieski	blue	Neutral	Neutral	hit	n/a
332.1451	n/a	RESPONSE	n/a	n/a	n/a	n/a	n/a	n/a	n/a	blue
332.1556	1.0	ITI	n/a	n/a	n/a	n/a	n/a	n/a	n/a	n/a
333.1556	0.5	FIXCROSS	n/a	n/a	n/a	n/a	n/a	n/a	n/a	n/a
333.6555	0.4833	COLOR_NAME	38	Incongruent	niebieski	blue	zielony	green	hit	n/a
334.1277	n/a	RESPONSE	n/a	n/a	n/a	n/a	n/a	n/a	n/a	blue
334.1388	1.0	ITI	n/a	n/a	n/a	n/a	n/a	n/a	n/a	n/a
335.1388	0.5	FIXCROSS	n/a	n/a	n/a	n/a	n/a	n/a	n/a	n/a
335.6388	0.5333	COLOR_NAME	39	Neutral	niebieski	blue	Neutral	Neutral	hit	n/a
336.1582	n/a	RESPONSE	n/a	n/a	n/a	n/a	n/a	n/a	n/a	blue
336.1722	1.0	ITI	n/a	n/a	n/a	n/a	n/a	n/a	n/a	n/a
337.1721	0.5	FIXCROSS	n/a	n/a	n/a	n/a	n/a	n/a	n/a	n/a
337.6721	0.3	COLOR_NAME	40	Neutral	niebieski	blue	Neutral	Neutral	hit	n/a
337.9649	n/a	RESPONSE	n/a	n/a	n/a	n/a	n/a	n/a	n/a	blue
337.9721	1.0	ITI	n/a	n/a	n/a	n/a	n/a	n/a	n/a	n/a
338.9721	0.5	FIXCROSS	n/a	n/a	n/a	n/a	n/a	n/a	n/a	n/a
339.4721	0.3333	COLOR_NAME	41	Neutral	czerwony	red	Neutral	Neutral	incorrect	n/a
339.7875	n/a	RESPONSE	n/a	n/a	n/a	n/a	n/a	n/a	n/a	blue
339.8054	1.0	ITI	n/a	n/a	n/a	n/a	n/a	n/a	n/a	n/a
340.8054	0.5	FIXCROSS	n/a	n/a	n/a	n/a	n/a	n/a	n/a	n/a
341.3054	0.4833	COLOR_NAME	42	Neutral	czerwony	red	Neutral	Neutral	hit	n/a
341.7702	n/a	RESPONSE	n/a	n/a	n/a	n/a	n/a	n/a	n/a	red
341.7887	1.0	ITI	n/a	n/a	n/a	n/a	n/a	n/a	n/a	n/a
342.7887	0.5	FIXCROSS	n/a	n/a	n/a	n/a	n/a	n/a	n/a	n/a
343.2887	0.65	COLOR_NAME	43	Incongruent	niebieski	blue	żółty	yellow	hit	n/a
343.9286	n/a	RESPONSE	n/a	n/a	n/a	n/a	n/a	n/a	n/a	blue
343.9387	1.0	ITI	n/a	n/a	n/a	n/a	n/a	n/a	n/a	n/a
344.9386	0.5	FIXCROSS	n/a	n/a	n/a	n/a	n/a	n/a	n/a	n/a
345.4386	0.5333	COLOR_NAME	44	Neutral	niebieski	blue	Neutral	Neutral	hit	n/a
345.9591	n/a	RESPONSE	n/a	n/a	n/a	n/a	n/a	n/a	n/a	blue
345.972	1.0	ITI	n/a	n/a	n/a	n/a	n/a	n/a	n/a	n/a
346.9719	0.5	FIXCROSS	n/a	n/a	n/a	n/a	n/a	n/a	n/a	n/a
347.4719	0.5833	COLOR_NAME	45	Incongruent	czerwony	red	żółty	yellow	hit	n/a
348.0378	n/a	RESPONSE	n/a	n/a	n/a	n/a	n/a	n/a	n/a	red
348.0552	1.0	ITI	n/a	n/a	n/a	n/a	n/a	n/a	n/a	n/a
349.0552	0.5	FIXCROSS	n/a	n/a	n/a	n/a	n/a	n/a	n/a	n/a
349.5552	0.4333	COLOR_NAME	46	Incongruent	czerwony	red	żółty	yellow	hit	n/a
349.9722	n/a	RESPONSE	n/a	n/a	n/a	n/a	n/a	n/a	n/a	red
349.9885	1.0	ITI	n/a	n/a	n/a	n/a	n/a	n/a	n/a	n/a
350.9885	0.5	FIXCROSS	n/a	n/a	n/a	n/a	n/a	n/a	n/a	n/a
351.4885	0.5333	COLOR_NAME	47	Neutral	niebieski	blue	Neutral	Neutral	hit	n/a
352.0029	n/a	RESPONSE	n/a	n/a	n/a	n/a	n/a	n/a	n/a	blue
352.0218	1.0	ITI	n/a	n/a	n/a	n/a	n/a	n/a	n/a	n/a
353.0218	0.5	FIXCROSS	n/a	n/a	n/a	n/a	n/a	n/a	n/a	n/a
353.5218	0.6667	COLOR_NAME	48	Neutral	czerwony	red	Neutral	Neutral	hit	n/a
354.1772	n/a	RESPONSE	n/a	n/a	n/a	n/a	n/a	n/a	n/a	red
354.1885	1.0	ITI	n/a	n/a	n/a	n/a	n/a	n/a	n/a	n/a
355.1884	0.5	FIXCROSS	n/a	n/a	n/a	n/a	n/a	n/a	n/a	n/a
355.6884	0.7833	COLOR_NAME	49	Incongruent	żółty	yellow	czerwony	red	hit	n/a
356.4635	n/a	RESPONSE	n/a	n/a	n/a	n/a	n/a	n/a	n/a	yellow
356.4717	1.0	ITI	n/a	n/a	n/a	n/a	n/a	n/a	n/a	n/a
357.4717	0.5	FIXCROSS	n/a	n/a	n/a	n/a	n/a	n/a	n/a	n/a
357.9717	0.5667	COLOR_NAME	50	Neutral	żółty	yellow	Neutral	Neutral	hit	n/a
358.5262	n/a	RESPONSE	n/a	n/a	n/a	n/a	n/a	n/a	n/a	yellow
358.5384	1.0	ITI	n/a	n/a	n/a	n/a	n/a	n/a	n/a	n/a
359.5383	0.5	FIXCROSS	n/a	n/a	n/a	n/a	n/a	n/a	n/a	n/a
360.0383	0.55	COLOR_NAME	51	Incongruent	żółty	yellow	czerwony	red	hit	n/a
360.5728	n/a	RESPONSE	n/a	n/a	n/a	n/a	n/a	n/a	n/a	yellow
360.5883	1.0	ITI	n/a	n/a	n/a	n/a	n/a	n/a	n/a	n/a
361.5883	0.5	FIXCROSS	n/a	n/a	n/a	n/a	n/a	n/a	n/a	n/a
362.0883	0.65	COLOR_NAME	52	Incongruent	niebieski	blue	zielony	green	hit	n/a
362.7311	n/a	RESPONSE	n/a	n/a	n/a	n/a	n/a	n/a	n/a	blue
362.7383	1.0	ITI	n/a	n/a	n/a	n/a	n/a	n/a	n/a	n/a
363.7383	0.5	FIXCROSS	n/a	n/a	n/a	n/a	n/a	n/a	n/a	n/a
364.2382	0.5167	COLOR_NAME	53	Incongruent	niebieski	blue	czerwony	red	hit	n/a
364.7457	n/a	RESPONSE	n/a	n/a	n/a	n/a	n/a	n/a	n/a	blue
364.7549	1.0	ITI	n/a	n/a	n/a	n/a	n/a	n/a	n/a	n/a
365.7549	0.5	FIXCROSS	n/a	n/a	n/a	n/a	n/a	n/a	n/a	n/a
366.2549	0.65	COLOR_NAME	54	Neutral	żółty	yellow	Neutral	Neutral	hit	n/a
366.8881	n/a	RESPONSE	n/a	n/a	n/a	n/a	n/a	n/a	n/a	yellow
366.9049	1.0	ITI	n/a	n/a	n/a	n/a	n/a	n/a	n/a	n/a
367.9048	0.5	FIXCROSS	n/a	n/a	n/a	n/a	n/a	n/a	n/a	n/a
368.4048	0.7	COLOR_NAME	55	Neutral	czerwony	red	Neutral	Neutral	hit	n/a
369.0946	n/a	RESPONSE	n/a	n/a	n/a	n/a	n/a	n/a	n/a	red
369.1048	1.0	ITI	n/a	n/a	n/a	n/a	n/a	n/a	n/a	n/a
370.1048	0.5	FIXCROSS	n/a	n/a	n/a	n/a	n/a	n/a	n/a	n/a
370.6048	0.6833	COLOR_NAME	56	Neutral	czerwony	red	Neutral	Neutral	hit	n/a
371.2849	n/a	RESPONSE	n/a	n/a	n/a	n/a	n/a	n/a	n/a	red
371.2881	1.0	ITI	n/a	n/a	n/a	n/a	n/a	n/a	n/a	n/a
372.2881	0.5	FIXCROSS	n/a	n/a	n/a	n/a	n/a	n/a	n/a	n/a
372.7881	0.55	COLOR_NAME	57	Incongruent	niebieski	blue	żółty	yellow	hit	n/a
373.3314	n/a	RESPONSE	n/a	n/a	n/a	n/a	n/a	n/a	n/a	blue
373.3381	1.0	ITI	n/a	n/a	n/a	n/a	n/a	n/a	n/a	n/a
374.3381	0.5	FIXCROSS	n/a	n/a	n/a	n/a	n/a	n/a	n/a	n/a
374.838	0.6666	COLOR_NAME	58	Incongruent	żółty	yellow	zielony	green	hit	n/a
375.4899	n/a	RESPONSE	n/a	n/a	n/a	n/a	n/a	n/a	n/a	yellow
375.5047	1.0	ITI	n/a	n/a	n/a	n/a	n/a	n/a	n/a	n/a
376.5047	0.5	FIXCROSS	n/a	n/a	n/a	n/a	n/a	n/a	n/a	n/a
377.0047	0.3333	COLOR_NAME	59	Incongruent	zielony	green	niebieski	blue	hit	n/a
377.3286	n/a	RESPONSE	n/a	n/a	n/a	n/a	n/a	n/a	n/a	green
377.338	1.0	ITI	n/a	n/a	n/a	n/a	n/a	n/a	n/a	n/a
378.338	0.5	FIXCROSS	n/a	n/a	n/a	n/a	n/a	n/a	n/a	n/a
378.8379	0.65	COLOR_NAME	60	Neutral	czerwony	red	Neutral	Neutral	hit	n/a
379.4711	n/a	RESPONSE	n/a	n/a	n/a	n/a	n/a	n/a	n/a	red
379.4879	1.0	ITI	n/a	n/a	n/a	n/a	n/a	n/a	n/a	n/a
380.4879	0.5	FIXCROSS	n/a	n/a	n/a	n/a	n/a	n/a	n/a	n/a
380.9879	0.5833	COLOR_NAME	61	Neutral	zielony	green	Neutral	Neutral	hit	n/a
381.5656	n/a	RESPONSE	n/a	n/a	n/a	n/a	n/a	n/a	n/a	green
381.5712	1.0	ITI	n/a	n/a	n/a	n/a	n/a	n/a	n/a	n/a
382.5712	0.5	FIXCROSS	n/a	n/a	n/a	n/a	n/a	n/a	n/a	n/a
383.0712	0.4833	COLOR_NAME	62	Incongruent	zielony	green	czerwony	red	hit	n/a
383.5482	n/a	RESPONSE	n/a	n/a	n/a	n/a	n/a	n/a	n/a	green
383.5545	1.0	ITI	n/a	n/a	n/a	n/a	n/a	n/a	n/a	n/a
384.5545	0.5	FIXCROSS	n/a	n/a	n/a	n/a	n/a	n/a	n/a	n/a
385.0545	0.55	COLOR_NAME	63	Neutral	żółty	yellow	Neutral	Neutral	hit	n/a
385.5947	n/a	RESPONSE	n/a	n/a	n/a	n/a	n/a	n/a	n/a	yellow
385.6045	1.0	ITI	n/a	n/a	n/a	n/a	n/a	n/a	n/a	n/a
386.6045	0.5	FIXCROSS	n/a	n/a	n/a	n/a	n/a	n/a	n/a	n/a
387.1045	0.3833	COLOR_NAME	64	Incongruent	niebieski	blue	żółty	yellow	hit	n/a
387.4813	n/a	RESPONSE	n/a	n/a	n/a	n/a	n/a	n/a	n/a	blue
387.4878	1.0	ITI	n/a	n/a	n/a	n/a	n/a	n/a	n/a	n/a
388.4878	0.5	FIXCROSS	n/a	n/a	n/a	n/a	n/a	n/a	n/a	n/a
388.9877	0.5	COLOR_NAME	65	Neutral	żółty	yellow	Neutral	Neutral	hit	n/a
389.4799	n/a	RESPONSE	n/a	n/a	n/a	n/a	n/a	n/a	n/a	yellow
389.4877	1.0	ITI	n/a	n/a	n/a	n/a	n/a	n/a	n/a	n/a
390.4877	0.5	FIXCROSS	n/a	n/a	n/a	n/a	n/a	n/a	n/a	n/a
390.9877	1.0	COLOR_NAME	66	Incongruent	niebieski	blue	czerwony	red	incorrect	n/a
391.9741	n/a	RESPONSE	n/a	n/a	n/a	n/a	n/a	n/a	n/a	green
391.9877	1.0	ITI	n/a	n/a	n/a	n/a	n/a	n/a	n/a	n/a
392.9877	0.5	FIXCROSS	n/a	n/a	n/a	n/a	n/a	n/a	n/a	n/a
393.4877	0.6166	COLOR_NAME	67	Neutral	zielony	green	Neutral	Neutral	incorrect	n/a
394.1006	n/a	RESPONSE	n/a	n/a	n/a	n/a	n/a	n/a	n/a	blue
394.1043	1.0	ITI	n/a	n/a	n/a	n/a	n/a	n/a	n/a	n/a
395.1043	0.5	FIXCROSS	n/a	n/a	n/a	n/a	n/a	n/a	n/a	n/a
395.6043	1.0666	COLOR_NAME	68	Incongruent	zielony	green	żółty	yellow	hit	n/a
396.6587	n/a	RESPONSE	n/a	n/a	n/a	n/a	n/a	n/a	n/a	green
396.6709	1.0	ITI	n/a	n/a	n/a	n/a	n/a	n/a	n/a	n/a
397.6709	0.5	FIXCROSS	n/a	n/a	n/a	n/a	n/a	n/a	n/a	n/a
398.1709	0.7167	COLOR_NAME	69	Incongruent	czerwony	red	zielony	green	hit	n/a
398.8812	n/a	RESPONSE	n/a	n/a	n/a	n/a	n/a	n/a	n/a	red
398.8876	1.0	ITI	n/a	n/a	n/a	n/a	n/a	n/a	n/a	n/a
399.8875	0.5	FIXCROSS	n/a	n/a	n/a	n/a	n/a	n/a	n/a	n/a
400.3875	0.7833	COLOR_NAME	70	Incongruent	czerwony	red	zielony	green	hit	n/a
401.1675	n/a	RESPONSE	n/a	n/a	n/a	n/a	n/a	n/a	n/a	red
401.1708	1.0	ITI	n/a	n/a	n/a	n/a	n/a	n/a	n/a	n/a
402.1708	0.5	FIXCROSS	n/a	n/a	n/a	n/a	n/a	n/a	n/a	n/a
402.6708	0.8166	COLOR_NAME	71	Neutral	zielony	green	Neutral	Neutral	hit	n/a
403.4699	n/a	RESPONSE	n/a	n/a	n/a	n/a	n/a	n/a	n/a	green
403.4875	1.0	ITI	n/a	n/a	n/a	n/a	n/a	n/a	n/a	n/a
404.4874	0.5	FIXCROSS	n/a	n/a	n/a	n/a	n/a	n/a	n/a	n/a
404.9874	0.6	COLOR_NAME	72	Neutral	żółty	yellow	Neutral	Neutral	hit	n/a
405.5804	n/a	RESPONSE	n/a	n/a	n/a	n/a	n/a	n/a	n/a	yellow
405.5874	1.0167	ITI	n/a	n/a	n/a	n/a	n/a	n/a	n/a	n/a
409.7694	n/a	RESPONSE	n/a	n/a	n/a	n/a	n/a	n/a	n/a	n/a
