onset	duration	trial_type	melody_number	melody_part	key	sound	action
0.0	14.085	CUE_START	n/a	n/a	n/a	n/a	n/a
14.085	7.76	FIXCROSS	n/a	n/a	n/a	n/a	n/a
21.845	6.324	CUE_LISTEN	M1	1	n/a	n/a	n/a
28.168	7.758	FIXCROSS	n/a	n/a	n/a	n/a	n/a
29.388	n/a	RESPONSE	M1	1	00	C3	press
29.39	n/a	RESPONSE	M1	1	07	G3	press
29.415	n/a	RESPONSE	M1	1	19	G4	press
29.442	n/a	RESPONSE	M1	1	04	E3	press
29.99	n/a	RESPONSE	M1	1	16	E4	press
30.033	n/a	RESPONSE	M1	1	19	G4	release
30.375	n/a	RESPONSE	M1	1	16	E4	release
30.547	n/a	RESPONSE	M1	1	16	E4	press
30.917	n/a	RESPONSE	M1	1	04	E3	release
30.938	n/a	RESPONSE	M1	1	00	C3	release
30.945	n/a	RESPONSE	M1	1	16	E4	release
31.064	n/a	RESPONSE	M1	1	02	D3	press
31.085	n/a	RESPONSE	M1	1	17	F4	press
31.219	n/a	RESPONSE	M1	1	05	F3	press
31.64	n/a	RESPONSE	M1	1	14	D4	press
31.714	n/a	RESPONSE	M1	1	17	F4	release
31.96	n/a	RESPONSE	M1	1	14	D4	release
32.169	n/a	RESPONSE	M1	1	14	D4	press
32.438	n/a	RESPONSE	M1	1	05	F3	release
32.504	n/a	RESPONSE	M1	1	02	D3	release
32.528	n/a	RESPONSE	M1	1	14	D4	release
32.648	n/a	RESPONSE	M1	1	00	C3	press
32.672	n/a	RESPONSE	M1	1	04	E3	press
32.692	n/a	RESPONSE	M1	1	12	C4	press
33.002	n/a	RESPONSE	M1	1	16	E4	press
33.133	n/a	RESPONSE	M1	1	12	C4	release
33.344	n/a	RESPONSE	M1	1	19	G4	press
33.545	n/a	RESPONSE	M1	1	16	E4	release
34.907	n/a	RESPONSE	M1	1	19	G4	release
35.078	n/a	RESPONSE	M1	1	04	E3	release
35.619	n/a	RESPONSE	M1	1	00	C3	release
35.927	6.317	CUE_PLAYBACK_RIGHT_HAND	M1	1	n/a	n/a	n/a
38.973	n/a	RESPONSE	M1	1	19	G4	press
39.473	n/a	RESPONSE	M1	1	16	E4	press
39.513	n/a	RESPONSE	M1	1	19	G4	release
39.799	n/a	RESPONSE	M1	1	16	E4	release
39.95	n/a	RESPONSE	M1	1	16	E4	press
40.334	n/a	RESPONSE	M1	1	16	E4	release
40.405	n/a	RESPONSE	M1	1	17	F4	press
40.917	n/a	RESPONSE	M1	1	14	D4	press
40.919	n/a	RESPONSE	M1	1	17	F4	release
41.26	n/a	RESPONSE	M1	1	14	D4	release
41.385	n/a	RESPONSE	M1	1	14	D4	press
41.738	n/a	RESPONSE	M1	1	14	D4	release
41.846	n/a	RESPONSE	M1	1	12	C4	press
42.078	n/a	RESPONSE	M1	1	16	E4	press
42.165	n/a	RESPONSE	M1	1	12	C4	release
42.243	7.758	FIXCROSS	n/a	n/a	n/a	n/a	n/a
42.419	n/a	RESPONSE	M1	1	19	G4	press
42.526	n/a	RESPONSE	M1	1	16	E4	release
43.019	n/a	RESPONSE	M1	1	19	G4	release
43.56	n/a	RESPONSE	M1	1	07	G3	release
50.002	6.317	CUE_LISTEN	        M1	2	n/a	n/a	n/a
56.318	7.758	FIXCROSS	n/a	n/a	n/a	n/a	n/a
64.077	6.317	CUE_PLAYBACK_RIGHT_HAND	        M1	2	n/a	n/a	n/a
64.633	n/a	RESPONSE	        M1	2	19	G4	press
65.146	n/a	RESPONSE	        M1	2	16	E4	press
65.195	n/a	RESPONSE	        M1	2	19	G4	release
65.466	n/a	RESPONSE	        M1	2	16	E4	release
65.659	n/a	RESPONSE	        M1	2	16	E4	press
66.072	n/a	RESPONSE	        M1	2	16	E4	release
66.11	n/a	RESPONSE	        M1	2	17	F4	press
66.652	n/a	RESPONSE	        M1	2	17	F4	release
66.673	n/a	RESPONSE	        M1	2	14	D4	press
66.986	n/a	RESPONSE	        M1	2	14	D4	release
67.145	n/a	RESPONSE	        M1	2	14	D4	press
67.556	n/a	RESPONSE	        M1	2	14	D4	release
67.67	n/a	RESPONSE	        M1	2	12	C4	press
67.949	n/a	RESPONSE	        M1	2	16	E4	press
68.03	n/a	RESPONSE	        M1	2	12	C4	release
68.302	n/a	RESPONSE	        M1	2	12	C4	press
68.383	n/a	RESPONSE	        M1	2	16	E4	release
69.545	n/a	RESPONSE	        M1	2	12	C4	release
70.394	7.758	FIXCROSS	n/a	n/a	n/a	n/a	n/a
78.152	6.325	CUE_LISTEN	        M7	1	n/a	n/a	n/a
84.477	7.758	FIXCROSS	n/a	n/a	n/a	n/a	n/a
89.76	n/a	RESPONSE	        M7	1	07	G3	press
90.162	n/a	RESPONSE	        M7	1	07	G3	release
92.235	6.317	CUE_PLAYBACK_BOTH_HANDS	        M7	1	n/a	n/a	n/a
94.868	n/a	RESPONSE	        M7	1	14	D4	press
95.509	n/a	RESPONSE	        M7	1	12	C4	press
96.04	n/a	RESPONSE	        M7	1	14	D4	release
96.682	n/a	RESPONSE	        M7	1	10	A#3	press
96.883	n/a	RESPONSE	        M7	1	12	C4	release
97.294	n/a	RESPONSE	        M7	1	09	A3	press
97.405	n/a	RESPONSE	        M7	1	10	A#3	release
98.552	7.758	FIXCROSS	n/a	n/a	n/a	n/a	n/a
98.936	n/a	RESPONSE	        M7	1	09	A3	release
106.31	6.325	CUE_LISTEN	        M7	2	n/a	n/a	n/a
112.635	7.758	FIXCROSS	n/a	n/a	n/a	n/a	n/a
120.394	6.317	CUE_PLAYBACK_BOTH_HANDS	        M7	2	n/a	n/a	n/a
123.639	n/a	RESPONSE	        M7	2	12	C4	press
123.653	n/a	RESPONSE	        M7	2	09	A3	press
123.662	n/a	RESPONSE	        M7	2	16	E4	press
124.375	n/a	RESPONSE	        M7	2	17	F4	press
124.405	n/a	RESPONSE	        M7	2	16	E4	release
124.745	n/a	RESPONSE	        M7	2	16	E4	press
124.886	n/a	RESPONSE	        M7	2	17	F4	release
125.37	n/a	RESPONSE	        M7	2	13	C#4	press
125.462	n/a	RESPONSE	        M7	2	05	F3	press
125.502	n/a	RESPONSE	        M7	2	16	E4	release
125.562	n/a	RESPONSE	        M7	2	09	A3	release
125.575	n/a	RESPONSE	        M7	2	12	C4	release
126.71	7.758	FIXCROSS	n/a	n/a	n/a	n/a	n/a
126.824	n/a	RESPONSE	        M7	2	12	C4	press
126.855	n/a	RESPONSE	        M7	2	09	A3	press
127.096	n/a	RESPONSE	        M7	2	13	C#4	release
127.568	n/a	RESPONSE	        M7	2	13	C#4	press
127.679	n/a	RESPONSE	        M7	2	12	C4	release
127.76	n/a	RESPONSE	        M7	2	05	F3	release
128.174	n/a	RESPONSE	        M7	2	09	A3	release
128.194	n/a	RESPONSE	        M7	2	13	C#4	release
134.469	6.317	CUE_LISTEN	        M5	1	n/a	n/a	n/a
140.785	7.758	FIXCROSS	n/a	n/a	n/a	n/a	n/a
148.544	6.317	CUE_PLAYBACK_RIGHT_HAND	        M5	1	n/a	n/a	n/a
149.202	n/a	RESPONSE	        M5	1	21	A4	press
149.5	n/a	RESPONSE	        M5	1	21	A4	release
149.575	n/a	RESPONSE	        M5	1	21	A4	press
149.828	n/a	RESPONSE	        M5	1	21	A4	release
149.946	n/a	RESPONSE	        M5	1	21	A4	press
150.42	n/a	RESPONSE	        M5	1	21	A4	release
150.618	n/a	RESPONSE	        M5	1	21	A4	press
150.85	n/a	RESPONSE	        M5	1	21	A4	release
150.968	n/a	RESPONSE	        M5	1	21	A4	press
151.194	n/a	RESPONSE	        M5	1	21	A4	release
151.334	n/a	RESPONSE	        M5	1	21	A4	press
151.914	n/a	RESPONSE	        M5	1	21	A4	release
152.086	n/a	RESPONSE	        M5	1	21	A4	press
152.519	n/a	RESPONSE	        M5	1	24	C5	press
152.614	n/a	RESPONSE	        M5	1	21	A4	release
152.955	n/a	RESPONSE	        M5	1	17	F4	press
153.049	n/a	RESPONSE	        M5	1	24	C5	release
153.358	n/a	RESPONSE	        M5	1	19	G4	press
153.469	n/a	RESPONSE	        M5	1	17	F4	release
153.77	n/a	RESPONSE	        M5	1	21	A4	press
153.854	n/a	RESPONSE	        M5	1	19	G4	release
154.844	n/a	RESPONSE	        M5	1	21	A4	release
154.86	7.758	FIXCROSS	n/a	n/a	n/a	n/a	n/a
162.619	6.325	CUE_LISTEN	        M5	2	n/a	n/a	n/a
168.944	7.758	FIXCROSS	n/a	n/a	n/a	n/a	n/a
176.702	6.317	CUE_PLAYBACK_RIGHT_HAND	        M5	2	n/a	n/a	n/a
177.339	n/a	RESPONSE	        M5	2	22	A#4	press
177.63	n/a	RESPONSE	        M5	2	22	A#4	release
177.713	n/a	RESPONSE	        M5	2	22	A#4	press
177.973	n/a	RESPONSE	        M5	2	22	A#4	release
178.074	n/a	RESPONSE	        M5	2	22	A#4	press
178.705	n/a	RESPONSE	        M5	2	22	A#4	release
178.799	n/a	RESPONSE	        M5	2	22	A#4	press
179.763	n/a	RESPONSE	        M5	2	22	A#4	release
179.921	n/a	RESPONSE	        M5	2	21	A4	press
180.226	n/a	RESPONSE	        M5	2	21	A4	release
180.299	n/a	RESPONSE	        M5	2	21	A4	press
180.662	n/a	RESPONSE	        M5	2	21	A4	release
180.784	n/a	RESPONSE	        M5	2	21	A4	press
181.305	n/a	RESPONSE	        M5	2	21	A4	release
181.404	n/a	RESPONSE	        M5	2	19	G4	press
181.91	n/a	RESPONSE	        M5	2	21	A4	press
181.97	n/a	RESPONSE	        M5	2	19	G4	release
182.259	n/a	RESPONSE	        M5	2	19	G4	press
182.582	n/a	RESPONSE	        M5	2	21	A4	release
182.948	n/a	RESPONSE	        M5	2	24	C5	press
182.989	n/a	RESPONSE	        M5	2	19	G4	release
183.019	7.758	FIXCROSS	n/a	n/a	n/a	n/a	n/a
183.49	n/a	RESPONSE	        M5	2	24	C5	release
190.777	6.325	CUE_LISTEN	        M3	1	n/a	n/a	n/a
197.102	7.758	FIXCROSS	n/a	n/a	n/a	n/a	n/a
204.86	6.317	CUE_PLAYBACK_BOTH_HANDS	        M3	1	n/a	n/a	n/a
205.961	n/a	RESPONSE	        M3	1	00	C3	press
205.983	n/a	RESPONSE	        M3	1	12	C4	press
206.414	n/a	RESPONSE	        M3	1	07	G3	press
206.428	n/a	RESPONSE	        M3	1	14	D4	press
206.536	n/a	RESPONSE	        M3	1	12	C4	release
206.789	n/a	RESPONSE	        M3	1	00	C3	release
206.859	n/a	RESPONSE	        M3	1	16	E4	press
206.87	n/a	RESPONSE	        M3	1	04	E3	press
206.901	n/a	RESPONSE	        M3	1	14	D4	release
206.933	n/a	RESPONSE	        M3	1	07	G3	release
207.314	n/a	RESPONSE	        M3	1	07	G3	press
207.368	n/a	RESPONSE	        M3	1	12	C4	press
207.416	n/a	RESPONSE	        M3	1	04	E3	release
207.458	n/a	RESPONSE	        M3	1	16	E4	release
207.629	n/a	RESPONSE	        M3	1	12	C4	release
207.721	n/a	RESPONSE	        M3	1	07	G3	release
207.781	n/a	RESPONSE	        M3	1	00	C3	press
207.823	n/a	RESPONSE	        M3	1	12	C4	press
208.244	n/a	RESPONSE	        M3	1	14	D4	press
208.246	n/a	RESPONSE	        M3	1	07	G3	press
208.309	n/a	RESPONSE	        M3	1	12	C4	release
208.638	n/a	RESPONSE	        M3	1	16	E4	press
208.699	n/a	RESPONSE	        M3	1	14	D4	release
208.702	n/a	RESPONSE	        M3	1	04	E3	press
208.704	n/a	RESPONSE	        M3	1	00	C3	release
208.723	n/a	RESPONSE	        M3	1	07	G3	release
209.108	n/a	RESPONSE	        M3	1	07	G3	press
209.114	n/a	RESPONSE	        M3	1	12	C4	press
209.186	n/a	RESPONSE	        M3	1	16	E4	release
209.211	n/a	RESPONSE	        M3	1	04	E3	release
209.405	n/a	RESPONSE	        M3	1	12	C4	release
209.435	n/a	RESPONSE	        M3	1	07	G3	release
209.544	n/a	RESPONSE	        M3	1	00	C3	press
209.571	n/a	RESPONSE	        M3	1	16	E4	press
210.009	n/a	RESPONSE	        M3	1	17	F4	press
210.023	n/a	RESPONSE	        M3	1	07	G3	press
210.134	n/a	RESPONSE	        M3	1	16	E4	release
210.45	n/a	RESPONSE	        M3	1	19	G4	press
210.454	n/a	RESPONSE	        M3	1	04	E3	press
210.486	n/a	RESPONSE	        M3	1	07	G3	release
210.519	n/a	RESPONSE	        M3	1	00	C3	release
210.585	n/a	RESPONSE	        M3	1	17	F4	release
210.889	n/a	RESPONSE	        M3	1	07	G3	press
211.033	n/a	RESPONSE	        M3	1	04	E3	release
211.177	7.758	FIXCROSS	n/a	n/a	n/a	n/a	n/a
211.319	n/a	RESPONSE	        M3	1	07	G3	release
211.325	n/a	RESPONSE	        M3	1	00	C3	press
211.351	n/a	RESPONSE	        M3	1	16	E4	press
211.358	n/a	RESPONSE	        M3	1	19	G4	release
211.37	n/a	RESPONSE	        M3	1	17	F4	press
211.799	n/a	RESPONSE	        M3	1	07	G3	press
211.82	n/a	RESPONSE	        M3	1	16	E4	release
212.219	n/a	RESPONSE	        M3	1	04	E3	press
212.232	n/a	RESPONSE	        M3	1	19	G4	press
212.24	n/a	RESPONSE	        M3	1	07	G3	release
212.353	n/a	RESPONSE	        M3	1	00	C3	release
212.379	n/a	RESPONSE	        M3	1	17	F4	release
212.635	n/a	RESPONSE	        M3	1	07	G3	press
212.794	n/a	RESPONSE	        M3	1	04	E3	release
212.856	n/a	RESPONSE	        M3	1	19	G4	release
212.966	n/a	RESPONSE	        M3	1	07	G3	release
218.936	6.325	CUE_LISTEN	        M3	2	n/a	n/a	n/a
225.26	7.758	FIXCROSS	n/a	n/a	n/a	n/a	n/a
233.019	6.317	CUE_PLAYBACK_BOTH_HANDS	        M3	2	n/a	n/a	n/a
234.335	n/a	RESPONSE	        M3	2	00	C3	press
234.338	n/a	RESPONSE	        M3	2	19	G4	press
234.638	n/a	RESPONSE	        M3	2	21	A4	press
234.681	n/a	RESPONSE	        M3	2	07	G3	press
234.71	n/a	RESPONSE	        M3	2	19	G4	release
235.193	n/a	RESPONSE	        M3	2	07	G3	release
235.203	n/a	RESPONSE	        M3	2	00	C3	release
235.304	n/a	RESPONSE	        M3	2	21	A4	release
235.465	n/a	RESPONSE	        M3	2	00	C3	press
235.496	n/a	RESPONSE	        M3	2	19	G4	press
235.779	n/a	RESPONSE	        M3	2	21	A4	press
235.829	n/a	RESPONSE	        M3	2	19	G4	release
236.11	n/a	RESPONSE	        M3	2	19	G4	press
236.131	n/a	RESPONSE	        M3	2	07	G3	press
236.943	n/a	RESPONSE	        M3	2	17	F4	press
236.984	n/a	RESPONSE	        M3	2	21	A4	release
237.045	n/a	RESPONSE	        M3	2	04	E3	press
237.106	n/a	RESPONSE	        M3	2	00	C3	release
237.118	n/a	RESPONSE	        M3	2	19	G4	release
237.169	n/a	RESPONSE	        M3	2	07	G3	release
237.952	n/a	RESPONSE	        M3	2	16	E4	press
237.961	n/a	RESPONSE	        M3	2	14	D4	press
237.973	n/a	RESPONSE	        M3	2	07	G3	press
238.114	n/a	RESPONSE	        M3	2	04	E3	release
238.855	n/a	RESPONSE	        M3	2	14	D4	release
239.284	n/a	RESPONSE	        M3	2	12	C4	press
239.294	n/a	RESPONSE	        M3	2	00	C3	press
239.315	n/a	RESPONSE	        M3	2	17	F4	release
239.336	7.758	FIXCROSS	n/a	n/a	n/a	n/a	n/a
239.344	n/a	RESPONSE	        M3	2	16	E4	release
239.358	n/a	RESPONSE	        M3	2	07	G3	release
240.146	n/a	RESPONSE	        M3	2	00	C3	release
240.164	n/a	RESPONSE	        M3	2	12	C4	release
240.374	n/a	RESPONSE	        M3	2	00	C3	press
240.383	n/a	RESPONSE	        M3	2	17	F4	press
240.404	n/a	RESPONSE	        M3	2	19	G4	press
240.584	n/a	RESPONSE	        M3	2	19	G4	release
240.701	n/a	RESPONSE	        M3	2	19	G4	press
240.799	n/a	RESPONSE	        M3	2	17	F4	release
241.045	n/a	RESPONSE	        M3	2	17	F4	press
241.096	n/a	RESPONSE	        M3	2	07	G3	press
241.356	n/a	RESPONSE	        M3	2	16	E4	press
241.419	n/a	RESPONSE	        M3	2	19	G4	release
241.568	n/a	RESPONSE	        M3	2	17	F4	release
241.739	n/a	RESPONSE	        M3	2	04	E3	press
241.741	n/a	RESPONSE	        M3	2	14	D4	press
241.756	n/a	RESPONSE	        M3	2	07	G3	release
241.874	n/a	RESPONSE	        M3	2	00	C3	release
241.916	n/a	RESPONSE	        M3	2	16	E4	release
242.338	n/a	RESPONSE	        M3	2	12	C4	press
242.356	n/a	RESPONSE	        M3	2	07	G3	press
242.449	n/a	RESPONSE	        M3	2	04	E3	release
242.464	n/a	RESPONSE	        M3	2	14	D4	release
242.799	n/a	RESPONSE	        M3	2	12	C4	release
242.808	n/a	RESPONSE	        M3	2	07	G3	release
243.263	n/a	RESPONSE	        M3	2	00	C3	press
243.281	n/a	RESPONSE	        M3	2	12	C4	press
244.033	n/a	RESPONSE	        M3	2	07	G3	press
244.084	n/a	RESPONSE	        M3	2	12	C4	release
244.505	n/a	RESPONSE	        M3	2	07	G3	release
244.566	n/a	RESPONSE	        M3	2	12	C4	press
245.078	n/a	RESPONSE	        M3	2	00	C3	release
245.121	n/a	RESPONSE	        M3	2	12	C4	release
247.094	6.317	CUE_LISTEN	        M6	1	n/a	n/a	n/a
253.41	7.758	FIXCROSS	n/a	n/a	n/a	n/a	n/a
256.09	n/a	RESPONSE	        M6	1	16	E4	press
258.021	n/a	RESPONSE	        M6	1	16	E4	release
259.749	n/a	RESPONSE	        M6	1	16	E4	press
260.746	n/a	RESPONSE	        M6	1	16	E4	release
261.169	6.325	CUE_PLAYBACK_BOTH_HANDS	        M6	1	n/a	n/a	n/a
262.543	n/a	RESPONSE	        M6	1	16	E4	press
262.549	n/a	RESPONSE	        M6	1	05	F3	press
263.16	n/a	RESPONSE	        M6	1	19	G4	press
263.179	n/a	RESPONSE	        M6	1	11	B3	press
263.243	n/a	RESPONSE	        M6	1	16	E4	release
263.274	n/a	RESPONSE	        M6	1	05	F3	release
263.593	n/a	RESPONSE	        M6	1	18	F#4	press
264.114	n/a	RESPONSE	        M6	1	18	F#4	release
264.585	n/a	RESPONSE	        M6	1	11	B3	release
264.588	n/a	RESPONSE	        M6	1	19	G4	release
264.829	n/a	RESPONSE	        M6	1	05	F3	press
264.831	n/a	RESPONSE	        M6	1	16	E4	press
265.35	n/a	RESPONSE	        M6	1	11	B3	press
265.391	n/a	RESPONSE	        M6	1	16	E4	release
265.394	n/a	RESPONSE	        M6	1	19	G4	press
265.396	n/a	RESPONSE	        M6	1	05	F3	release
265.725	n/a	RESPONSE	        M6	1	18	F#4	press
265.846	n/a	RESPONSE	        M6	1	19	G4	release
266.818	n/a	RESPONSE	        M6	1	19	G4	press
266.839	n/a	RESPONSE	        M6	1	16	E4	press
266.87	n/a	RESPONSE	        M6	1	09	A3	press
266.911	n/a	RESPONSE	        M6	1	05	F3	press
266.925	n/a	RESPONSE	        M6	1	18	F#4	release
266.934	n/a	RESPONSE	        M6	1	11	B3	release
267.494	7.758	FIXCROSS	n/a	n/a	n/a	n/a	n/a
268.695	n/a	RESPONSE	        M6	1	23	B4	press
268.698	n/a	RESPONSE	        M6	1	11	B3	press
268.728	n/a	RESPONSE	        M6	1	09	A3	release
268.739	n/a	RESPONSE	        M6	1	24	C5	press
268.78	n/a	RESPONSE	        M6	1	16	E4	release
268.861	n/a	RESPONSE	        M6	1	24	C5	release
269.073	n/a	RESPONSE	        M6	1	24	C5	press
269.185	n/a	RESPONSE	        M6	1	23	B4	release
269.259	n/a	RESPONSE	        M6	1	19	G4	release
269.378	n/a	RESPONSE	        M6	1	05	F3	release
269.415	n/a	RESPONSE	        M6	1	23	B4	press
269.494	n/a	RESPONSE	        M6	1	16	E4	press
269.514	n/a	RESPONSE	        M6	1	24	C5	release
269.57	n/a	RESPONSE	        M6	1	05	F3	press
269.874	n/a	RESPONSE	        M6	1	11	B3	release
270.174	n/a	RESPONSE	        M6	1	23	B4	release
270.19	n/a	RESPONSE	        M6	1	11	B3	press
270.349	n/a	RESPONSE	        M6	1	16	E4	release
270.836	n/a	RESPONSE	        M6	1	16	E4	press
270.883	n/a	RESPONSE	        M6	1	09	A3	press
270.99	n/a	RESPONSE	        M6	1	11	B3	release
271.46	n/a	RESPONSE	        M6	1	11	B3	press
271.544	n/a	RESPONSE	        M6	1	09	A3	release
271.608	n/a	RESPONSE	        M6	1	16	E4	release
271.645	n/a	RESPONSE	        M6	1	05	F3	release
272.73	n/a	RESPONSE	        M6	1	11	B3	release
273.92	n/a	RESPONSE	        M6	1	16	E4	press
273.931	n/a	RESPONSE	        M6	1	05	F3	press
274.704	n/a	RESPONSE	        M6	1	16	E4	release
274.904	n/a	RESPONSE	        M6	1	05	F3	release
275.252	6.317	CUE_LISTEN	        M6	2	n/a	n/a	n/a
281.569	7.758	FIXCROSS	n/a	n/a	n/a	n/a	n/a
282.303	n/a	RESPONSE	        M6	2	04	E3	press
285.21	n/a	RESPONSE	        M6	2	16	E4	press
285.801	n/a	RESPONSE	        M6	2	16	E4	release
285.834	n/a	RESPONSE	        M6	2	14	D4	press
286.054	n/a	RESPONSE	        M6	2	04	E3	release
286.615	n/a	RESPONSE	        M6	2	02	D3	press
288.296	n/a	RESPONSE	        M6	2	16	E4	press
289.259	n/a	RESPONSE	        M6	2	16	E4	release
289.327	6.317	CUE_PLAYBACK_BOTH_HANDS	        M6	2	n/a	n/a	n/a
290.254	n/a	RESPONSE	        M6	2	02	D3	release
290.704	n/a	RESPONSE	        M6	2	14	D4	release
290.799	n/a	RESPONSE	        M6	2	02	D3	press
290.805	n/a	RESPONSE	        M6	2	14	D4	press
291.349	n/a	RESPONSE	        M6	2	09	A3	press
291.404	n/a	RESPONSE	        M6	2	14	D4	release
291.903	n/a	RESPONSE	        M6	2	09	A3	release
291.928	n/a	RESPONSE	        M6	2	02	D3	release
292.069	n/a	RESPONSE	        M6	2	14	D4	press
292.08	n/a	RESPONSE	        M6	2	02	D3	press
292.496	n/a	RESPONSE	        M6	2	09	A3	press
292.521	n/a	RESPONSE	        M6	2	18	F#4	press
292.581	n/a	RESPONSE	        M6	2	14	D4	release
292.665	n/a	RESPONSE	        M6	2	02	D3	release
292.874	n/a	RESPONSE	        M6	2	16	E4	press
292.958	n/a	RESPONSE	        M6	2	18	F#4	release
293.606	n/a	RESPONSE	        M6	2	06	F#3	press
293.609	n/a	RESPONSE	        M6	2	14	D4	press
293.649	n/a	RESPONSE	        M6	2	18	F#4	press
293.66	n/a	RESPONSE	        M6	2	09	A3	release
293.703	n/a	RESPONSE	        M6	2	16	E4	release
294.283	n/a	RESPONSE	        M6	2	09	A3	press
294.354	n/a	RESPONSE	        M6	2	06	F#3	release
294.375	n/a	RESPONSE	        M6	2	14	D4	release
294.919	n/a	RESPONSE	        M6	2	14	D4	press
294.948	n/a	RESPONSE	        M6	2	02	D3	press
295.049	n/a	RESPONSE	        M6	2	09	A3	release
295.483	n/a	RESPONSE	        M6	2	09	A3	press
295.631	n/a	RESPONSE	        M6	2	14	D4	release
295.635	n/a	RESPONSE	        M6	2	02	D3	release
295.644	7.758	FIXCROSS	n/a	n/a	n/a	n/a	n/a
296.164	n/a	RESPONSE	        M6	2	06	F#3	press
296.175	n/a	RESPONSE	        M6	2	14	D4	press
296.286	n/a	RESPONSE	        M6	2	09	A3	release
296.798	n/a	RESPONSE	        M6	2	09	A3	press
296.959	n/a	RESPONSE	        M6	2	14	D4	release
296.961	n/a	RESPONSE	        M6	2	06	F#3	release
297.424	n/a	RESPONSE	        M6	2	14	D4	press
297.473	n/a	RESPONSE	        M6	2	02	D3	press
297.584	n/a	RESPONSE	        M6	2	09	A3	release
299.16	n/a	RESPONSE	        M6	2	18	F#4	release
299.186	n/a	RESPONSE	        M6	2	14	D4	release
299.355	n/a	RESPONSE	        M6	2	02	D3	release
303.402	6.317	CUE_LISTEN	        M2	1	n/a	n/a	n/a
309.719	7.758	FIXCROSS	n/a	n/a	n/a	n/a	n/a
317.477	6.325	CUE_PLAYBACK_RIGHT_HAND	        M2	1	n/a	n/a	n/a
318.23	n/a	RESPONSE	        M2	1	12	C4	press
319.452	n/a	RESPONSE	        M2	1	12	C4	release
319.496	n/a	RESPONSE	        M2	1	17	F4	press
320.039	n/a	RESPONSE	        M2	1	21	A4	press
320.114	n/a	RESPONSE	        M2	1	17	F4	release
320.484	n/a	RESPONSE	        M2	1	19	G4	press
320.879	n/a	RESPONSE	        M2	1	17	F4	press
320.924	n/a	RESPONSE	        M2	1	21	A4	release
321.018	n/a	RESPONSE	        M2	1	19	G4	release
321.278	n/a	RESPONSE	        M2	1	16	E4	press
321.368	n/a	RESPONSE	        M2	1	17	F4	release
321.661	n/a	RESPONSE	        M2	1	17	F4	press
321.764	n/a	RESPONSE	        M2	1	16	E4	release
322.454	n/a	RESPONSE	        M2	1	17	F4	release
322.685	n/a	RESPONSE	        M2	1	12	C4	press
323.276	n/a	RESPONSE	        M2	1	17	F4	press
323.368	n/a	RESPONSE	        M2	1	12	C4	release
323.802	7.758	FIXCROSS	n/a	n/a	n/a	n/a	n/a
323.859	n/a	RESPONSE	        M2	1	17	F4	release
324.013	n/a	RESPONSE	        M2	1	17	F4	press
324.441	n/a	RESPONSE	        M2	1	21	A4	press
324.513	n/a	RESPONSE	        M2	1	17	F4	release
324.804	n/a	RESPONSE	        M2	1	19	G4	press
325.095	n/a	RESPONSE	        M2	1	21	A4	release
325.176	n/a	RESPONSE	        M2	1	17	F4	press
325.408	n/a	RESPONSE	        M2	1	19	G4	release
325.529	n/a	RESPONSE	        M2	1	16	E4	press
325.69	n/a	RESPONSE	        M2	1	17	F4	release
325.891	n/a	RESPONSE	        M2	1	17	F4	press
325.983	n/a	RESPONSE	        M2	1	16	E4	release
326.804	n/a	RESPONSE	        M2	1	17	F4	release
331.561	6.317	CUE_LISTEN	        M2	2	n/a	n/a	n/a
337.877	7.758	FIXCROSS	n/a	n/a	n/a	n/a	n/a
345.636	6.317	CUE_PLAYBACK_RIGHT_HAND	        M2	2	n/a	n/a	n/a
346.775	n/a	RESPONSE	        M2	2	12	C4	press
347.556	n/a	RESPONSE	        M2	2	17	F4	press
347.575	n/a	RESPONSE	        M2	2	19	G4	press
347.638	n/a	RESPONSE	        M2	2	12	C4	release
347.898	n/a	RESPONSE	        M2	2	19	G4	release
348.059	n/a	RESPONSE	        M2	2	17	F4	release
348.42	n/a	RESPONSE	        M2	2	12	C4	press
348.901	n/a	RESPONSE	        M2	2	17	F4	press
348.983	n/a	RESPONSE	        M2	2	12	C4	release
349.399	n/a	RESPONSE	        M2	2	17	F4	release
349.531	n/a	RESPONSE	        M2	2	17	F4	press
350.639	n/a	RESPONSE	        M2	2	21	A4	press
351.015	n/a	RESPONSE	        M2	2	17	F4	release
351.439	n/a	RESPONSE	        M2	2	24	C5	press
351.549	n/a	RESPONSE	        M2	2	21	A4	release
351.952	7.758	FIXCROSS	n/a	n/a	n/a	n/a	n/a
352.096	n/a	RESPONSE	        M2	2	22	A#4	press
352.84	n/a	RESPONSE	        M2	2	21	A4	press
353.021	n/a	RESPONSE	        M2	2	22	A#4	release
353.325	n/a	RESPONSE	        M2	2	24	C5	release
353.334	n/a	RESPONSE	        M2	2	19	G4	press
353.425	n/a	RESPONSE	        M2	2	21	A4	release
354.286	n/a	RESPONSE	        M2	2	19	G4	release
359.711	6.325	CUE_LISTEN	        M8	1	n/a	n/a	n/a
366.036	7.758	FIXCROSS	n/a	n/a	n/a	n/a	n/a
367.398	n/a	RESPONSE	        M8	1	21	A4	press
367.796	n/a	RESPONSE	        M8	1	21	A4	release
373.794	6.317	CUE_PLAYBACK_RIGHT_HAND	        M8	1	n/a	n/a	n/a
374.405	n/a	RESPONSE	        M8	1	16	E4	press
374.745	n/a	RESPONSE	        M8	1	19	G4	press
374.886	n/a	RESPONSE	        M8	1	16	E4	release
375.118	n/a	RESPONSE	        M8	1	23	B4	press
375.289	n/a	RESPONSE	        M8	1	19	G4	release
375.473	n/a	RESPONSE	        M8	1	23	B4	release
375.651	n/a	RESPONSE	        M8	1	23	B4	press
376.263	n/a	RESPONSE	        M8	1	18	F#4	press
376.384	n/a	RESPONSE	        M8	1	23	B4	release
376.975	n/a	RESPONSE	        M8	1	21	A4	press
377.146	n/a	RESPONSE	        M8	1	18	F#4	release
377.718	n/a	RESPONSE	        M8	1	21	A4	release
377.99	n/a	RESPONSE	        M8	1	23	B4	press
378.63	n/a	RESPONSE	        M8	1	21	A4	press
378.901	n/a	RESPONSE	        M8	1	19	G4	press
378.965	n/a	RESPONSE	        M8	1	23	B4	release
379.064	n/a	RESPONSE	        M8	1	21	A4	release
379.219	n/a	RESPONSE	        M8	1	18	F#4	press
379.31	n/a	RESPONSE	        M8	1	19	G4	release
379.529	n/a	RESPONSE	        M8	1	16	E4	press
379.671	n/a	RESPONSE	        M8	1	18	F#4	release
380.091	n/a	RESPONSE	        M8	1	23	B4	press
380.111	7.758	FIXCROSS	n/a	n/a	n/a	n/a	n/a
380.185	n/a	RESPONSE	        M8	1	16	E4	release
381.191	n/a	RESPONSE	        M8	1	23	B4	release
387.869	6.317	CUE_LISTEN	        M8	2	n/a	n/a	n/a
394.186	7.758	FIXCROSS	n/a	n/a	n/a	n/a	n/a
401.944	6.325	CUE_PLAYBACK_RIGHT_HAND	        M8	2	n/a	n/a	n/a
402.354	n/a	RESPONSE	        M8	2	16	E4	press
402.66	n/a	RESPONSE	        M8	2	19	G4	press
402.8	n/a	RESPONSE	        M8	2	16	E4	release
402.991	n/a	RESPONSE	        M8	2	23	B4	press
403.112	n/a	RESPONSE	        M8	2	19	G4	release
403.364	n/a	RESPONSE	        M8	2	23	B4	release
403.515	n/a	RESPONSE	        M8	2	23	B4	press
404.016	n/a	RESPONSE	        M8	2	21	A4	press
404.448	n/a	RESPONSE	        M8	2	23	B4	release
404.999	n/a	RESPONSE	        M8	2	21	A4	release
405.2	n/a	RESPONSE	        M8	2	16	E4	press
405.491	n/a	RESPONSE	        M8	2	19	G4	press
405.632	n/a	RESPONSE	        M8	2	16	E4	release
405.754	n/a	RESPONSE	        M8	2	23	B4	press
405.905	n/a	RESPONSE	        M8	2	19	G4	release
406.076	n/a	RESPONSE	        M8	2	23	B4	release
406.188	n/a	RESPONSE	        M8	2	23	B4	press
406.729	n/a	RESPONSE	        M8	2	18	F#4	press
406.84	n/a	RESPONSE	        M8	2	23	B4	release
407.161	n/a	RESPONSE	        M8	2	21	A4	press
407.243	n/a	RESPONSE	        M8	2	18	F#4	release
407.804	n/a	RESPONSE	        M8	2	21	A4	release
407.985	n/a	RESPONSE	        M8	2	23	B4	press
408.269	7.758	FIXCROSS	n/a	n/a	n/a	n/a	n/a
408.636	n/a	RESPONSE	        M8	2	21	A4	press
408.89	n/a	RESPONSE	        M8	2	19	G4	press
408.994	n/a	RESPONSE	        M8	2	23	B4	release
409.063	n/a	RESPONSE	        M8	2	21	A4	release
409.23	n/a	RESPONSE	        M8	2	18	F#4	press
409.324	n/a	RESPONSE	        M8	2	19	G4	release
409.519	n/a	RESPONSE	        M8	2	19	G4	press
409.599	n/a	RESPONSE	        M8	2	18	F#4	release
410.01	n/a	RESPONSE	        M8	2	16	E4	press
410.122	n/a	RESPONSE	        M8	2	19	G4	release
411.095	n/a	RESPONSE	        M8	2	16	E4	release
416.028	6.317	CUE_LISTEN	        M4	1	n/a	n/a	n/a
422.344	7.759	FIXCROSS	n/a	n/a	n/a	n/a	n/a
430.103	6.325	CUE_PLAYBACK_BOTH_HANDS	        M4	1	n/a	n/a	n/a
431.624	n/a	RESPONSE	        M4	1	12	C4	press
431.634	n/a	RESPONSE	        M4	1	09	A3	press
431.644	n/a	RESPONSE	        M4	1	05	F3	press
432.371	n/a	RESPONSE	        M4	1	17	F4	press
432.951	n/a	RESPONSE	        M4	1	21	A4	press
433.023	n/a	RESPONSE	        M4	1	17	F4	release
433.404	n/a	RESPONSE	        M4	1	19	G4	press
433.655	n/a	RESPONSE	        M4	1	21	A4	release
433.838	n/a	RESPONSE	        M4	1	17	F4	press
434.198	n/a	RESPONSE	        M4	1	16	E4	press
434.249	n/a	RESPONSE	        M4	1	19	G4	release
434.3	n/a	RESPONSE	        M4	1	17	F4	release
434.611	n/a	RESPONSE	        M4	1	17	F4	press
434.712	n/a	RESPONSE	        M4	1	16	E4	release
435.244	n/a	RESPONSE	        M4	1	17	F4	release
435.295	n/a	RESPONSE	        M4	1	12	C4	release
435.319	n/a	RESPONSE	        M4	1	09	A3	release
435.598	n/a	RESPONSE	        M4	1	12	C4	press
435.6	n/a	RESPONSE	        M4	1	09	A3	press
436.32	n/a	RESPONSE	        M4	1	17	F4	press
436.428	7.758	FIXCROSS	n/a	n/a	n/a	n/a	n/a
436.901	n/a	RESPONSE	        M4	1	21	A4	press
436.973	n/a	RESPONSE	        M4	1	17	F4	release
437.304	n/a	RESPONSE	        M4	1	19	G4	press
437.465	n/a	RESPONSE	        M4	1	21	A4	release
437.706	n/a	RESPONSE	        M4	1	17	F4	press
438.028	n/a	RESPONSE	        M4	1	16	E4	press
438.079	n/a	RESPONSE	        M4	1	19	G4	release
438.17	n/a	RESPONSE	        M4	1	17	F4	release
438.401	n/a	RESPONSE	        M4	1	17	F4	press
438.503	n/a	RESPONSE	        M4	1	16	E4	release
439.181	n/a	RESPONSE	        M4	1	17	F4	release
439.244	n/a	RESPONSE	        M4	1	09	A3	release
439.296	n/a	RESPONSE	        M4	1	12	C4	release
439.85	n/a	RESPONSE	        M4	1	05	F3	release
444.186	6.317	CUE_LISTEN	        M4	2	n/a	n/a	n/a
450.503	7.758	FIXCROSS	n/a	n/a	n/a	n/a	n/a
458.261	6.317	CUE_PLAYBACK_BOTH_HANDS	        M4	2	n/a	n/a	n/a
460.626	n/a	RESPONSE	        M4	2	05	F3	press
460.631	n/a	RESPONSE	        M4	2	12	C4	press
460.636	n/a	RESPONSE	        M4	2	09	A3	press
460.798	n/a	RESPONSE	        M4	2	21	A4	press
461.462	n/a	RESPONSE	        M4	2	17	F4	press
461.632	n/a	RESPONSE	        M4	2	21	A4	release
462.1	n/a	RESPONSE	        M4	2	21	A4	press
462.176	n/a	RESPONSE	        M4	2	17	F4	release
462.656	n/a	RESPONSE	        M4	2	23	B4	press
462.76	n/a	RESPONSE	        M4	2	21	A4	release
463.379	n/a	RESPONSE	        M4	2	23	B4	release
463.77	n/a	RESPONSE	        M4	2	24	C5	press
464.452	n/a	RESPONSE	        M4	2	22	A#4	press
464.522	n/a	RESPONSE	        M4	2	24	C5	release
464.578	7.758	FIXCROSS	n/a	n/a	n/a	n/a	n/a
464.934	n/a	RESPONSE	        M4	2	21	A4	press
465.028	n/a	RESPONSE	        M4	2	22	A#4	release
465.416	n/a	RESPONSE	        M4	2	19	G4	press
465.498	n/a	RESPONSE	        M4	2	21	A4	release
466.059	n/a	RESPONSE	        M4	2	19	G4	release
466.18	n/a	RESPONSE	        M4	2	12	C4	release
466.221	n/a	RESPONSE	        M4	2	09	A3	release
466.242	n/a	RESPONSE	        M4	2	05	F3	release
466.794	n/a	RESPONSE	        M4	2	12	C4	press
466.808	n/a	RESPONSE	        M4	2	05	F3	press
466.838	n/a	RESPONSE	        M4	2	09	A3	press
467.509	n/a	RESPONSE	        M4	2	17	F4	press
471.636	n/a	RESPONSE	        M4	2	17	F4	release
471.859	n/a	RESPONSE	        M4	2	05	F3	release
471.916	n/a	RESPONSE	        M4	2	12	C4	release
472.07	n/a	RESPONSE	        M4	2	09	A3	release
472.336	6.325	CUE_LISTEN	        M3	1	n/a	n/a	n/a
478.661	7.758	FIXCROSS	n/a	n/a	n/a	n/a	n/a
484.259	n/a	RESPONSE	        M3	1	07	G3	press
485.0	n/a	RESPONSE	        M3	1	05	F3	press
485.171	n/a	RESPONSE	        M3	1	07	G3	release
485.442	n/a	RESPONSE	        M3	1	05	F3	release
486.419	6.317	CUE_PLAYBACK_RIGHT_HAND	        M3	1	n/a	n/a	n/a
487.424	n/a	RESPONSE	        M3	1	12	C4	press
487.766	n/a	RESPONSE	        M3	1	14	D4	press
487.876	n/a	RESPONSE	        M3	1	12	C4	release
488.178	n/a	RESPONSE	        M3	1	16	E4	press
488.319	n/a	RESPONSE	        M3	1	14	D4	release
488.65	n/a	RESPONSE	        M3	1	12	C4	press
488.732	n/a	RESPONSE	        M3	1	16	E4	release
488.912	n/a	RESPONSE	        M3	1	12	C4	release
489.085	n/a	RESPONSE	        M3	1	12	C4	press
489.499	n/a	RESPONSE	        M3	1	14	D4	press
489.578	n/a	RESPONSE	        M3	1	12	C4	release
489.652	n/a	RESPONSE	        M3	1	16	E4	press
490.016	n/a	RESPONSE	        M3	1	14	D4	release
490.148	n/a	RESPONSE	        M3	1	16	E4	release
490.39	n/a	RESPONSE	        M3	1	12	C4	press
490.695	n/a	RESPONSE	        M3	1	14	D4	press
490.805	n/a	RESPONSE	        M3	1	12	C4	release
490.96	n/a	RESPONSE	        M3	1	16	E4	press
491.071	n/a	RESPONSE	        M3	1	14	D4	release
491.339	n/a	RESPONSE	        M3	1	12	C4	press
491.46	n/a	RESPONSE	        M3	1	16	E4	release
491.766	n/a	RESPONSE	        M3	1	12	C4	release
491.894	n/a	RESPONSE	        M3	1	16	E4	press
492.28	n/a	RESPONSE	        M3	1	17	F4	press
492.359	n/a	RESPONSE	        M3	1	16	E4	release
492.69	n/a	RESPONSE	        M3	1	19	G4	press
492.736	7.758	FIXCROSS	n/a	n/a	n/a	n/a	n/a
492.781	n/a	RESPONSE	        M3	1	17	F4	release
493.404	n/a	RESPONSE	        M3	1	16	E4	press
493.434	n/a	RESPONSE	        M3	1	19	G4	release
493.798	n/a	RESPONSE	        M3	1	17	F4	press
493.876	n/a	RESPONSE	        M3	1	16	E4	release
494.228	n/a	RESPONSE	        M3	1	19	G4	press
494.299	n/a	RESPONSE	        M3	1	17	F4	release
495.01	n/a	RESPONSE	        M3	1	19	G4	release
500.494	6.317	CUE_LISTEN	        M3	2	n/a	n/a	n/a
504.642	n/a	RESPONSE	        M3	2	12	C4	press
505.264	n/a	RESPONSE	        M3	2	12	C4	release
506.811	7.758	FIXCROSS	n/a	n/a	n/a	n/a	n/a
514.569	6.325	CUE_PLAYBACK_RIGHT_HAND	        M3	2	n/a	n/a	n/a
516.148	n/a	RESPONSE	        M3	2	19	G4	press
516.436	n/a	RESPONSE	        M3	2	21	A4	press
516.5	n/a	RESPONSE	        M3	2	19	G4	release
516.709	n/a	RESPONSE	        M3	2	19	G4	press
516.85	n/a	RESPONSE	        M3	2	21	A4	release
517.021	n/a	RESPONSE	        M3	2	17	F4	press
517.303	n/a	RESPONSE	        M3	2	19	G4	release
517.374	n/a	RESPONSE	        M3	2	16	E4	press
517.638	n/a	RESPONSE	        M3	2	17	F4	release
518.206	n/a	RESPONSE	        M3	2	12	C4	press
518.648	n/a	RESPONSE	        M3	2	12	C4	release
518.729	n/a	RESPONSE	        M3	2	16	E4	release
518.862	n/a	RESPONSE	        M3	2	19	G4	press
519.172	n/a	RESPONSE	        M3	2	21	A4	press
519.249	n/a	RESPONSE	        M3	2	19	G4	release
519.461	n/a	RESPONSE	        M3	2	19	G4	press
519.668	n/a	RESPONSE	        M3	2	21	A4	release
520.232	n/a	RESPONSE	        M3	2	19	G4	release
520.355	n/a	RESPONSE	        M3	2	19	G4	press
520.742	n/a	RESPONSE	        M3	2	17	F4	press
520.818	n/a	RESPONSE	        M3	2	19	G4	release
520.894	7.759	FIXCROSS	n/a	n/a	n/a	n/a	n/a
522.001	n/a	RESPONSE	        M3	2	16	E4	press
522.111	n/a	RESPONSE	        M3	2	17	F4	release
522.802	n/a	RESPONSE	        M3	2	12	C4	press
522.834	n/a	RESPONSE	        M3	2	16	E4	release
524.065	n/a	RESPONSE	        M3	2	12	C4	release
528.653	6.317	CUE_LISTEN	        M5	1	n/a	n/a	n/a
532.865	n/a	RESPONSE	        M5	1	04	E3	press
533.205	n/a	RESPONSE	        M5	1	04	E3	release
533.259	n/a	RESPONSE	        M5	1	05	F3	press
533.558	n/a	RESPONSE	        M5	1	07	G3	press
534.109	n/a	RESPONSE	        M5	1	05	F3	release
534.97	7.758	FIXCROSS	n/a	n/a	n/a	n/a	n/a
538.622	n/a	RESPONSE	        M5	1	04	E3	press
538.746	n/a	RESPONSE	        M5	1	07	G3	release
539.079	n/a	RESPONSE	        M5	1	05	F3	press
540.522	n/a	RESPONSE	        M5	1	05	F3	release
542.728	6.317	CUE_PLAYBACK_BOTH_HANDS	        M5	1	n/a	n/a	n/a
543.479	n/a	RESPONSE	        M5	1	04	E3	release
543.93	n/a	RESPONSE	        M5	1	21	A4	press
543.941	n/a	RESPONSE	        M5	1	05	F3	press
544.232	n/a	RESPONSE	        M5	1	21	A4	release
544.296	n/a	RESPONSE	        M5	1	09	A3	press
544.325	n/a	RESPONSE	        M5	1	21	A4	press
544.458	n/a	RESPONSE	        M5	1	05	F3	release
544.6	n/a	RESPONSE	        M5	1	21	A4	release
544.709	n/a	RESPONSE	        M5	1	04	E3	press
544.711	n/a	RESPONSE	        M5	1	09	A3	release
544.721	n/a	RESPONSE	        M5	1	21	A4	press
545.072	n/a	RESPONSE	        M5	1	09	A3	press
545.306	n/a	RESPONSE	        M5	1	04	E3	release
545.335	n/a	RESPONSE	        M5	1	21	A4	release
545.436	n/a	RESPONSE	        M5	1	02	D3	press
545.439	n/a	RESPONSE	        M5	1	09	A3	release
545.479	n/a	RESPONSE	        M5	1	21	A4	press
545.73	n/a	RESPONSE	        M5	1	21	A4	release
545.791	n/a	RESPONSE	        M5	1	09	A3	press
545.815	n/a	RESPONSE	        M5	1	21	A4	press
545.854	n/a	RESPONSE	        M5	1	02	D3	release
546.058	n/a	RESPONSE	        M5	1	21	A4	release
546.156	n/a	RESPONSE	        M5	1	00	C3	press
546.159	n/a	RESPONSE	        M5	1	21	A4	press
546.189	n/a	RESPONSE	        M5	1	09	A3	release
546.48	n/a	RESPONSE	        M5	1	09	A3	press
546.611	n/a	RESPONSE	        M5	1	21	A4	release
546.752	n/a	RESPONSE	        M5	1	09	A3	release
546.824	n/a	RESPONSE	        M5	1	21	A4	press
546.855	n/a	RESPONSE	        M5	1	05	F3	press
547.226	n/a	RESPONSE	        M5	1	24	C5	press
547.249	n/a	RESPONSE	        M5	1	09	A3	press
547.32	n/a	RESPONSE	        M5	1	21	A4	release
547.36	n/a	RESPONSE	        M5	1	05	F3	release
547.881	n/a	RESPONSE	        M5	1	04	E3	press
547.892	n/a	RESPONSE	        M5	1	17	F4	press
547.934	n/a	RESPONSE	        M5	1	09	A3	release
548.445	n/a	RESPONSE	        M5	1	09	A3	press
548.496	n/a	RESPONSE	        M5	1	19	G4	press
548.61	n/a	RESPONSE	        M5	1	17	F4	release
548.94	n/a	RESPONSE	        M5	1	24	C5	release
548.97	n/a	RESPONSE	        M5	1	00	C3	release
548.995	n/a	RESPONSE	        M5	1	21	A4	press
549.034	n/a	RESPONSE	        M5	1	02	D3	press
549.044	7.758	FIXCROSS	n/a	n/a	n/a	n/a	n/a
549.058	n/a	RESPONSE	        M5	1	19	G4	release
549.06	n/a	RESPONSE	        M5	1	09	A3	release
549.426	n/a	RESPONSE	        M5	1	09	A3	press
549.502	n/a	RESPONSE	        M5	1	04	E3	release
549.54	n/a	RESPONSE	        M5	1	02	D3	release
549.811	n/a	RESPONSE	        M5	1	00	C3	press
549.902	n/a	RESPONSE	        M5	1	09	A3	release
550.17	n/a	RESPONSE	        M5	1	09	A3	press
550.958	n/a	RESPONSE	        M5	1	21	A4	release
551.471	n/a	RESPONSE	        M5	1	09	A3	release
552.876	n/a	RESPONSE	        M5	1	00	C3	release
556.803	6.325	CUE_LISTEN	        M5	2	n/a	n/a	n/a
563.128	7.758	FIXCROSS	n/a	n/a	n/a	n/a	n/a
570.886	6.317	CUE_PLAYBACK_BOTH_HANDS	        M5	2	n/a	n/a	n/a
571.686	n/a	RESPONSE	        M5	2	07	G3	press
571.722	n/a	RESPONSE	        M5	2	22	A#4	press
571.996	n/a	RESPONSE	        M5	2	22	A#4	release
572.069	n/a	RESPONSE	        M5	2	07	G3	release
572.16	n/a	RESPONSE	        M5	2	22	A#4	press
572.172	n/a	RESPONSE	        M5	2	07	G3	press
572.496	n/a	RESPONSE	        M5	2	22	A#4	release
572.621	n/a	RESPONSE	        M5	2	22	A#4	press
573.252	n/a	RESPONSE	        M5	2	07	G3	release
573.294	n/a	RESPONSE	        M5	2	22	A#4	release
573.496	n/a	RESPONSE	        M5	2	07	G3	press
573.508	n/a	RESPONSE	        M5	2	22	A#4	press
574.007	n/a	RESPONSE	        M5	2	22	A#4	release
574.039	n/a	RESPONSE	        M5	2	07	G3	release
574.08	n/a	RESPONSE	        M5	2	10	A#3	press
574.131	n/a	RESPONSE	        M5	2	22	A#4	press
574.482	n/a	RESPONSE	        M5	2	22	A#4	release
574.515	n/a	RESPONSE	        M5	2	04	E3	press
574.555	n/a	RESPONSE	        M5	2	10	A#3	release
574.589	n/a	RESPONSE	        M5	2	22	A#4	press
574.928	n/a	RESPONSE	        M5	2	22	A#4	release
575.009	n/a	RESPONSE	        M5	2	04	E3	release
575.031	n/a	RESPONSE	        M5	2	10	A#3	press
575.062	n/a	RESPONSE	        M5	2	22	A#4	press
575.332	n/a	RESPONSE	        M5	2	10	A#3	release
575.354	n/a	RESPONSE	        M5	2	22	A#4	release
575.515	n/a	RESPONSE	        M5	2	22	A#4	press
575.536	n/a	RESPONSE	        M5	2	05	F3	press
576.098	n/a	RESPONSE	        M5	2	09	A3	press
576.109	n/a	RESPONSE	        M5	2	21	A4	press
576.151	n/a	RESPONSE	        M5	2	05	F3	release
576.201	n/a	RESPONSE	        M5	2	22	A#4	release
576.512	n/a	RESPONSE	        M5	2	21	A4	release
576.534	n/a	RESPONSE	        M5	2	00	C3	press
576.615	n/a	RESPONSE	        M5	2	09	A3	release
576.658	n/a	RESPONSE	        M5	2	21	A4	press
576.988	n/a	RESPONSE	        M5	2	21	A4	release
577.099	n/a	RESPONSE	        M5	2	09	A3	press
577.101	n/a	RESPONSE	        M5	2	00	C3	release
577.191	n/a	RESPONSE	        M5	2	21	A4	press
577.203	7.758	FIXCROSS	n/a	n/a	n/a	n/a	n/a
577.652	n/a	RESPONSE	        M5	2	09	A3	release
577.704	n/a	RESPONSE	        M5	2	07	G3	press
577.755	n/a	RESPONSE	        M5	2	19	G4	press
577.769	n/a	RESPONSE	        M5	2	21	A4	release
579.358	n/a	RESPONSE	        M5	2	19	G4	release
579.472	n/a	RESPONSE	        M5	2	11	B3	press
579.491	n/a	RESPONSE	        M5	2	07	G3	release
579.525	n/a	RESPONSE	        M5	2	19	G4	press
580.772	n/a	RESPONSE	        M5	2	11	B3	release
580.815	n/a	RESPONSE	        M5	2	21	A4	press
580.839	n/a	RESPONSE	        M5	2	00	C3	press
580.86	n/a	RESPONSE	        M5	2	19	G4	release
583.814	n/a	RESPONSE	        M5	2	19	G4	press
583.885	n/a	RESPONSE	        M5	2	21	A4	release
583.887	n/a	RESPONSE	        M5	2	07	G3	press
583.958	n/a	RESPONSE	        M5	2	00	C3	release
584.589	n/a	RESPONSE	        M5	2	07	G3	release
584.961	6.317	CUE_LISTEN	        M1	1	n/a	n/a	n/a
585.332	n/a	RESPONSE	        M1	1	19	G4	release
588.514	n/a	RESPONSE	        M1	1	07	G3	press
591.278	7.758	FIXCROSS	n/a	n/a	n/a	n/a	n/a
592.249	n/a	RESPONSE	        M1	1	07	G3	release
596.398	n/a	RESPONSE	        M1	1	19	G4	press
597.408	n/a	RESPONSE	        M1	1	19	G4	release
599.036	6.325	CUE_PLAYBACK_BOTH_HANDS	        M1	1	n/a	n/a	n/a
599.974	n/a	RESPONSE	        M1	1	07	G3	press
600.001	n/a	RESPONSE	        M1	1	00	C3	press
600.014	n/a	RESPONSE	        M1	1	19	G4	press
600.016	n/a	RESPONSE	        M1	1	04	E3	press
600.548	n/a	RESPONSE	        M1	1	16	E4	press
600.587	n/a	RESPONSE	        M1	1	19	G4	release
600.889	n/a	RESPONSE	        M1	1	16	E4	release
601.072	n/a	RESPONSE	        M1	1	16	E4	press
601.4	n/a	RESPONSE	        M1	1	00	C3	release
601.434	n/a	RESPONSE	        M1	1	04	E3	release
601.437	n/a	RESPONSE	        M1	1	16	E4	release
601.582	n/a	RESPONSE	        M1	1	02	D3	press
601.601	n/a	RESPONSE	        M1	1	17	F4	press
602.119	n/a	RESPONSE	        M1	1	14	D4	press
602.152	n/a	RESPONSE	        M1	1	17	F4	release
602.469	n/a	RESPONSE	        M1	1	14	D4	release
602.625	n/a	RESPONSE	        M1	1	14	D4	press
602.946	n/a	RESPONSE	        M1	1	02	D3	release
602.96	n/a	RESPONSE	        M1	1	14	D4	release
603.129	n/a	RESPONSE	        M1	1	04	E3	press
603.131	n/a	RESPONSE	        M1	1	00	C3	press
603.151	n/a	RESPONSE	        M1	1	12	C4	press
603.392	n/a	RESPONSE	        M1	1	16	E4	press
603.514	n/a	RESPONSE	        M1	1	12	C4	release
603.725	n/a	RESPONSE	        M1	1	19	G4	press
603.846	n/a	RESPONSE	        M1	1	16	E4	release
604.818	n/a	RESPONSE	        M1	1	19	G4	release
604.849	n/a	RESPONSE	        M1	1	04	E3	release
604.892	n/a	RESPONSE	        M1	1	00	C3	release
605.361	7.758	FIXCROSS	n/a	n/a	n/a	n/a	n/a
613.12	6.317	CUE_LISTEN	        M1	2	n/a	n/a	n/a
619.436	7.758	FIXCROSS	n/a	n/a	n/a	n/a	n/a
627.195	6.317	CUE_PLAYBACK_BOTH_HANDS	        M1	2	n/a	n/a	n/a
627.52	n/a	RESPONSE	        M1	2	07	G3	release
627.861	n/a	RESPONSE	        M1	2	07	G3	press
627.872	n/a	RESPONSE	        M1	2	04	E3	press
627.905	n/a	RESPONSE	        M1	2	16	E4	press
628.475	n/a	RESPONSE	        M1	2	00	C3	press
628.736	n/a	RESPONSE	        M1	2	16	E4	release
628.807	n/a	RESPONSE	        M1	2	00	C3	release
628.81	n/a	RESPONSE	        M1	2	04	E3	release
628.822	n/a	RESPONSE	        M1	2	07	G3	release
629.311	n/a	RESPONSE	        M1	2	00	C3	press
629.314	n/a	RESPONSE	        M1	2	07	G3	press
629.351	n/a	RESPONSE	        M1	2	04	E3	press
629.354	n/a	RESPONSE	        M1	2	19	G4	press
629.812	n/a	RESPONSE	        M1	2	16	E4	press
629.866	n/a	RESPONSE	        M1	2	19	G4	release
630.141	n/a	RESPONSE	        M1	2	16	E4	release
630.29	n/a	RESPONSE	        M1	2	16	E4	press
630.597	n/a	RESPONSE	        M1	2	04	E3	release
630.605	n/a	RESPONSE	        M1	2	00	C3	release
630.631	n/a	RESPONSE	        M1	2	16	E4	release
630.772	n/a	RESPONSE	        M1	2	02	D3	press
630.787	n/a	RESPONSE	        M1	2	17	F4	press
630.794	n/a	RESPONSE	        M1	2	05	F3	press
631.241	n/a	RESPONSE	        M1	2	14	D4	press
631.317	n/a	RESPONSE	        M1	2	17	F4	release
631.585	n/a	RESPONSE	        M1	2	14	D4	release
631.697	n/a	RESPONSE	        M1	2	14	D4	press
631.99	n/a	RESPONSE	        M1	2	05	F3	release
632.007	n/a	RESPONSE	        M1	2	02	D3	release
632.01	n/a	RESPONSE	        M1	2	14	D4	release
632.162	n/a	RESPONSE	        M1	2	04	E3	press
632.167	n/a	RESPONSE	        M1	2	00	C3	press
632.206	n/a	RESPONSE	        M1	2	12	C4	press
632.464	n/a	RESPONSE	        M1	2	16	E4	press
632.55	n/a	RESPONSE	        M1	2	12	C4	release
632.74	n/a	RESPONSE	        M1	2	12	C4	press
632.784	n/a	RESPONSE	        M1	2	16	E4	release
633.511	7.758	FIXCROSS	n/a	n/a	n/a	n/a	n/a
633.675	n/a	RESPONSE	        M1	2	00	C3	release
633.744	n/a	RESPONSE	        M1	2	12	C4	release
633.896	n/a	RESPONSE	        M1	2	04	E3	release
634.707	n/a	RESPONSE	        M1	2	07	G3	release
641.27	6.325	CUE_LISTEN	        M7	1	n/a	n/a	n/a
647.595	7.758	FIXCROSS	n/a	n/a	n/a	n/a	n/a
655.353	6.317	CUE_PLAYBACK_RIGHT_HAND	        M7	1	n/a	n/a	n/a
656.315	n/a	RESPONSE	        M7	1	22	A#4	press
656.336	n/a	RESPONSE	        M7	1	07	G3	press
656.627	n/a	RESPONSE	        M7	1	07	G3	release
656.689	n/a	RESPONSE	        M7	1	22	A#4	release
657.03	n/a	RESPONSE	        M7	1	22	A#4	press
657.611	n/a	RESPONSE	        M7	1	21	A4	press
657.702	n/a	RESPONSE	        M7	1	22	A#4	release
658.154	n/a	RESPONSE	        M7	1	19	G4	press
658.255	n/a	RESPONSE	        M7	1	21	A4	release
658.726	n/a	RESPONSE	        M7	1	21	A4	press
658.827	n/a	RESPONSE	        M7	1	19	G4	release
660.4	n/a	RESPONSE	        M7	1	21	A4	release
660.444	n/a	RESPONSE	        M7	1	14	D4	press
660.812	n/a	RESPONSE	        M7	1	14	D4	release
661.01	n/a	RESPONSE	        M7	1	14	D4	press
661.564	n/a	RESPONSE	        M7	1	19	G4	press
661.584	n/a	RESPONSE	        M7	1	14	D4	release
661.67	7.758	FIXCROSS	n/a	n/a	n/a	n/a	n/a
662.486	n/a	RESPONSE	        M7	1	19	G4	release
662.682	n/a	RESPONSE	        M7	1	07	G3	press
663.054	n/a	RESPONSE	        M7	1	09	A3	press
663.175	n/a	RESPONSE	        M7	1	07	G3	release
663.426	n/a	RESPONSE	        M7	1	10	A#3	press
663.487	n/a	RESPONSE	        M7	1	09	A3	release
664.119	n/a	RESPONSE	        M7	1	12	C4	press
664.18	n/a	RESPONSE	        M7	1	10	A#3	release
664.971	n/a	RESPONSE	        M7	1	14	D4	press
665.042	n/a	RESPONSE	        M7	1	12	C4	release
669.428	6.325	CUE_LISTEN	        M7	2	n/a	n/a	n/a
673.627	n/a	RESPONSE	        M7	2	14	D4	release
675.753	7.758	FIXCROSS	n/a	n/a	n/a	n/a	n/a
683.512	6.317	CUE_PLAYBACK_RIGHT_HAND	        M7	2	n/a	n/a	n/a
684.166	n/a	RESPONSE	        M7	2	15	D#4	press
684.789	n/a	RESPONSE	        M7	2	17	F4	press
684.869	n/a	RESPONSE	        M7	2	15	D#4	release
685.141	n/a	RESPONSE	        M7	2	15	D#4	press
685.241	n/a	RESPONSE	        M7	2	17	F4	release
686.212	n/a	RESPONSE	        M7	2	14	D4	press
686.336	n/a	RESPONSE	        M7	2	15	D#4	release
686.865	n/a	RESPONSE	        M7	2	12	C4	press
686.939	n/a	RESPONSE	        M7	2	14	D4	release
688.62	n/a	RESPONSE	        M7	2	14	D4	press
688.679	n/a	RESPONSE	        M7	2	12	C4	release
689.261	n/a	RESPONSE	        M7	2	14	D4	release
689.828	7.759	FIXCROSS	n/a	n/a	n/a	n/a	n/a
690.127	n/a	RESPONSE	        M7	2	15	D#4	press
690.465	n/a	RESPONSE	        M7	2	14	D4	press
690.571	n/a	RESPONSE	        M7	2	15	D#4	release
690.831	n/a	RESPONSE	        M7	2	12	C4	press
690.942	n/a	RESPONSE	        M7	2	14	D4	release
691.184	n/a	RESPONSE	        M7	2	14	D4	press
691.275	n/a	RESPONSE	        M7	2	12	C4	release
691.615	n/a	RESPONSE	        M7	2	15	D#4	press
691.651	n/a	RESPONSE	        M7	2	14	D4	release
692.375	n/a	RESPONSE	        M7	2	15	D#4	release
693.747	n/a	RESPONSE	        M7	2	14	D4	press
694.05	n/a	RESPONSE	        M7	2	12	C4	press
694.19	n/a	RESPONSE	        M7	2	14	D4	release
694.591	n/a	RESPONSE	        M7	2	10	A#3	press
694.694	n/a	RESPONSE	        M7	2	12	C4	release
695.175	n/a	RESPONSE	        M7	2	12	C4	press
695.297	n/a	RESPONSE	        M7	2	10	A#3	release
695.536	n/a	RESPONSE	        M7	2	14	D4	press
695.66	n/a	RESPONSE	        M7	2	12	C4	release
695.959	n/a	RESPONSE	        M7	2	12	C4	press
696.03	n/a	RESPONSE	        M7	2	14	D4	release
696.351	n/a	RESPONSE	        M7	2	10	A#3	press
696.444	n/a	RESPONSE	        M7	2	12	C4	release
696.754	n/a	RESPONSE	        M7	2	12	C4	press
696.845	n/a	RESPONSE	        M7	2	10	A#3	release
697.346	n/a	RESPONSE	        M7	2	09	A3	press
697.457	n/a	RESPONSE	        M7	2	12	C4	release
697.587	6.317	CUE_LISTEN	        M4	1	n/a	n/a	n/a
698.33	n/a	RESPONSE	        M4	1	09	A3	release
703.903	7.758	FIXCROSS	n/a	n/a	n/a	n/a	n/a
711.662	6.325	CUE_PLAYBACK_RIGHT_HAND	        M4	1	n/a	n/a	n/a
712.351	n/a	RESPONSE	        M4	1	12	C4	press
712.751	n/a	RESPONSE	        M4	1	17	F4	press
712.841	n/a	RESPONSE	        M4	1	12	C4	release
713.202	n/a	RESPONSE	        M4	1	21	A4	press
713.244	n/a	RESPONSE	        M4	1	17	F4	release
713.615	n/a	RESPONSE	        M4	1	19	G4	press
713.776	n/a	RESPONSE	        M4	1	21	A4	release
714.037	n/a	RESPONSE	        M4	1	17	F4	press
714.229	n/a	RESPONSE	        M4	1	19	G4	release
714.47	n/a	RESPONSE	        M4	1	16	E4	press
714.561	n/a	RESPONSE	        M4	1	17	F4	release
714.864	n/a	RESPONSE	        M4	1	17	F4	press
714.964	n/a	RESPONSE	        M4	1	16	E4	release
715.485	n/a	RESPONSE	        M4	1	17	F4	release
715.686	n/a	RESPONSE	        M4	1	12	C4	press
716.137	n/a	RESPONSE	        M4	1	17	F4	press
716.229	n/a	RESPONSE	        M4	1	12	C4	release
716.63	n/a	RESPONSE	        M4	1	21	A4	press
716.721	n/a	RESPONSE	        M4	1	17	F4	release
717.052	n/a	RESPONSE	        M4	1	19	G4	press
717.474	n/a	RESPONSE	        M4	1	17	F4	press
717.496	n/a	RESPONSE	        M4	1	21	A4	release
717.636	n/a	RESPONSE	        M4	1	19	G4	release
717.907	n/a	RESPONSE	        M4	1	16	E4	press
717.986	7.767	FIXCROSS	n/a	n/a	n/a	n/a	n/a
718.039	n/a	RESPONSE	        M4	1	17	F4	release
718.32	n/a	RESPONSE	        M4	1	17	F4	press
718.391	n/a	RESPONSE	        M4	1	16	E4	release
719.147	n/a	RESPONSE	        M4	1	17	F4	release
725.753	6.308	CUE_LISTEN	        M4	2	n/a	n/a	n/a
732.062	7.758	FIXCROSS	n/a	n/a	n/a	n/a	n/a
739.82	6.325	CUE_PLAYBACK_RIGHT_HAND	        M4	2	n/a	n/a	n/a
740.445	n/a	RESPONSE	        M4	2	12	C4	press
740.871	n/a	RESPONSE	        M4	2	17	F4	press
740.989	n/a	RESPONSE	        M4	2	12	C4	release
741.964	n/a	RESPONSE	        M4	2	21	A4	press
742.022	n/a	RESPONSE	        M4	2	17	F4	release
742.762	n/a	RESPONSE	        M4	2	24	C5	press
742.864	n/a	RESPONSE	        M4	2	21	A4	release
743.557	n/a	RESPONSE	        M4	2	22	A#4	press
743.719	n/a	RESPONSE	        M4	2	24	C5	release
744.039	n/a	RESPONSE	        M4	2	21	A4	press
744.149	n/a	RESPONSE	        M4	2	22	A#4	release
744.54	n/a	RESPONSE	        M4	2	19	G4	press
744.641	n/a	RESPONSE	        M4	2	21	A4	release
745.882	n/a	RESPONSE	        M4	2	19	G4	release
746.145	7.758	FIXCROSS	n/a	n/a	n/a	n/a	n/a
746.836	n/a	RESPONSE	        M4	2	12	C4	press
747.815	n/a	RESPONSE	        M4	2	14	D4	press
747.906	n/a	RESPONSE	        M4	2	12	C4	release
748.459	n/a	RESPONSE	        M4	2	17	F4	press
748.519	n/a	RESPONSE	        M4	2	14	D4	release
749.505	n/a	RESPONSE	        M4	2	20	G#4	press
749.567	n/a	RESPONSE	        M4	2	17	F4	release
750.406	n/a	RESPONSE	        M4	2	19	G4	press
750.481	n/a	RESPONSE	        M4	2	20	G#4	release
750.929	n/a	RESPONSE	        M4	2	17	F4	press
751.031	n/a	RESPONSE	        M4	2	19	G4	release
751.412	n/a	RESPONSE	        M4	2	16	E4	press
751.587	n/a	RESPONSE	        M4	2	17	F4	release
752.355	n/a	RESPONSE	        M4	2	16	E4	release
753.903	6.317	CUE_LISTEN	        M2	1	n/a	n/a	n/a
760.22	7.758	FIXCROSS	n/a	n/a	n/a	n/a	n/a
767.978	6.317	CUE_PLAYBACK_BOTH_HANDS	        M2	1	n/a	n/a	n/a
769.19	n/a	RESPONSE	        M2	1	24	C5	press
769.207	n/a	RESPONSE	        M2	1	00	C3	press
769.217	n/a	RESPONSE	        M2	1	07	G3	press
769.585	n/a	RESPONSE	        M2	1	19	G4	press
769.686	n/a	RESPONSE	        M2	1	24	C5	release
769.784	n/a	RESPONSE	        M2	1	07	G3	release
769.786	n/a	RESPONSE	        M2	1	00	C3	release
769.814	n/a	RESPONSE	        M2	1	19	G4	release
769.961	n/a	RESPONSE	        M2	1	07	G3	press
769.964	n/a	RESPONSE	        M2	1	00	C3	press
769.974	n/a	RESPONSE	        M2	1	19	G4	press
770.331	n/a	RESPONSE	        M2	1	17	F4	press
770.488	n/a	RESPONSE	        M2	1	19	G4	release
770.526	n/a	RESPONSE	        M2	1	00	C3	release
770.546	n/a	RESPONSE	        M2	1	07	G3	release
770.726	n/a	RESPONSE	        M2	1	16	E4	press
770.73	n/a	RESPONSE	        M2	1	07	G3	press
770.735	n/a	RESPONSE	        M2	1	00	C3	press
770.762	n/a	RESPONSE	        M2	1	17	F4	release
771.131	n/a	RESPONSE	        M2	1	17	F4	press
771.209	n/a	RESPONSE	        M2	1	16	E4	release
771.355	n/a	RESPONSE	        M2	1	07	G3	release
771.357	n/a	RESPONSE	        M2	1	00	C3	release
771.496	n/a	RESPONSE	        M2	1	17	F4	release
771.499	n/a	RESPONSE	        M2	1	19	G4	press
771.519	n/a	RESPONSE	        M2	1	00	C3	press
771.522	n/a	RESPONSE	        M2	1	07	G3	press
772.064	n/a	RESPONSE	        M2	1	00	C3	release
772.081	n/a	RESPONSE	        M2	1	07	G3	release
772.118	n/a	RESPONSE	        M2	1	19	G4	release
772.281	n/a	RESPONSE	        M2	1	24	C5	press
772.306	n/a	RESPONSE	        M2	1	00	C3	press
772.311	n/a	RESPONSE	        M2	1	07	G3	press
772.647	n/a	RESPONSE	        M2	1	19	G4	press
772.719	n/a	RESPONSE	        M2	1	24	C5	release
772.88	n/a	RESPONSE	        M2	1	07	G3	release
772.882	n/a	RESPONSE	        M2	1	19	G4	release
772.902	n/a	RESPONSE	        M2	1	00	C3	release
773.024	n/a	RESPONSE	        M2	1	00	C3	press
773.026	n/a	RESPONSE	        M2	1	19	G4	press
773.029	n/a	RESPONSE	        M2	1	07	G3	press
773.349	n/a	RESPONSE	        M2	1	17	F4	press
773.47	n/a	RESPONSE	        M2	1	19	G4	release
773.561	n/a	RESPONSE	        M2	1	00	C3	release
773.582	n/a	RESPONSE	        M2	1	07	G3	release
773.742	n/a	RESPONSE	        M2	1	07	G3	press
773.754	n/a	RESPONSE	        M2	1	16	E4	press
773.775	n/a	RESPONSE	        M2	1	17	F4	release
774.146	n/a	RESPONSE	        M2	1	14	D4	press
774.28	n/a	RESPONSE	        M2	1	16	E4	release
774.295	7.758	FIXCROSS	n/a	n/a	n/a	n/a	n/a
774.378	n/a	RESPONSE	        M2	1	07	G3	release
774.51	n/a	RESPONSE	        M2	1	07	G3	press
774.524	n/a	RESPONSE	        M2	1	12	C4	press
774.552	n/a	RESPONSE	        M2	1	00	C3	press
774.966	n/a	RESPONSE	        M2	1	14	D4	release
775.645	n/a	RESPONSE	        M2	1	00	C3	release
775.726	n/a	RESPONSE	        M2	1	07	G3	release
775.787	n/a	RESPONSE	        M2	1	12	C4	release
782.053	6.317	CUE_LISTEN	        M2	2	n/a	n/a	n/a
788.37	7.758	FIXCROSS	n/a	n/a	n/a	n/a	n/a
796.128	6.325	CUE_PLAYBACK_BOTH_HANDS	        M2	2	n/a	n/a	n/a
796.825	n/a	RESPONSE	        M2	2	00	C3	press
796.827	n/a	RESPONSE	        M2	2	07	G3	press
796.836	n/a	RESPONSE	        M2	2	12	C4	press
797.227	n/a	RESPONSE	        M2	2	14	D4	press
797.309	n/a	RESPONSE	        M2	2	12	C4	release
797.54	n/a	RESPONSE	        M2	2	07	G3	release
797.581	n/a	RESPONSE	        M2	2	00	C3	release
797.592	n/a	RESPONSE	        M2	2	14	D4	release
797.654	n/a	RESPONSE	        M2	2	16	E4	press
797.675	n/a	RESPONSE	        M2	2	00	C3	press
797.686	n/a	RESPONSE	        M2	2	07	G3	press
798.087	n/a	RESPONSE	        M2	2	14	D4	press
798.149	n/a	RESPONSE	        M2	2	16	E4	release
798.27	n/a	RESPONSE	        M2	2	00	C3	release
798.291	n/a	RESPONSE	        M2	2	07	G3	release
798.342	n/a	RESPONSE	        M2	2	14	D4	release
798.474	n/a	RESPONSE	        M2	2	00	C3	press
798.476	n/a	RESPONSE	        M2	2	07	G3	press
798.486	n/a	RESPONSE	        M2	2	16	E4	press
798.927	n/a	RESPONSE	        M2	2	17	F4	press
799.065	n/a	RESPONSE	        M2	2	16	E4	release
799.195	n/a	RESPONSE	        M2	2	07	G3	release
799.218	n/a	RESPONSE	        M2	2	00	C3	release
799.301	n/a	RESPONSE	        M2	2	17	F4	release
799.357	n/a	RESPONSE	        M2	2	19	G4	press
799.396	n/a	RESPONSE	        M2	2	00	C3	press
799.411	n/a	RESPONSE	        M2	2	07	G3	press
799.995	n/a	RESPONSE	        M2	2	07	G3	release
800.006	n/a	RESPONSE	        M2	2	00	C3	release
800.048	n/a	RESPONSE	        M2	2	19	G4	release
800.198	n/a	RESPONSE	        M2	2	16	E4	press
800.202	n/a	RESPONSE	        M2	2	00	C3	press
800.205	n/a	RESPONSE	        M2	2	07	G3	press
800.66	n/a	RESPONSE	        M2	2	19	G4	press
800.742	n/a	RESPONSE	        M2	2	16	E4	release
800.842	n/a	RESPONSE	        M2	2	07	G3	release
800.848	n/a	RESPONSE	        M2	2	00	C3	release
800.877	n/a	RESPONSE	        M2	2	19	G4	release
801.028	n/a	RESPONSE	        M2	2	07	G3	press
801.031	n/a	RESPONSE	        M2	2	00	C3	press
801.038	n/a	RESPONSE	        M2	2	19	G4	press
801.427	n/a	RESPONSE	        M2	2	17	F4	press
801.599	n/a	RESPONSE	        M2	2	19	G4	release
801.706	n/a	RESPONSE	        M2	2	07	G3	release
801.739	n/a	RESPONSE	        M2	2	00	C3	release
801.864	n/a	RESPONSE	        M2	2	17	F4	release
801.867	n/a	RESPONSE	        M2	2	15	D#4	press
801.996	n/a	RESPONSE	        M2	2	15	D#4	release
802.453	7.758	FIXCROSS	n/a	n/a	n/a	n/a	n/a
803.001	n/a	RESPONSE	        M2	2	16	E4	press
803.042	n/a	RESPONSE	        M2	2	07	G3	press
803.094	n/a	RESPONSE	        M2	2	00	C3	press
803.416	n/a	RESPONSE	        M2	2	14	D4	press
803.607	n/a	RESPONSE	        M2	2	16	E4	release
803.868	n/a	RESPONSE	        M2	2	00	C3	release
803.9	n/a	RESPONSE	        M2	2	07	G3	release
804.04	n/a	RESPONSE	        M2	2	14	D4	release
804.102	n/a	RESPONSE	        M2	2	00	C3	press
804.112	n/a	RESPONSE	        M2	2	07	G3	press
804.115	n/a	RESPONSE	        M2	2	12	C4	press
805.175	n/a	RESPONSE	        M2	2	00	C3	release
805.247	n/a	RESPONSE	        M2	2	12	C4	release
805.25	n/a	RESPONSE	        M2	2	07	G3	release
810.212	6.317	CUE_LISTEN	        M8	1	n/a	n/a	n/a
815.948	n/a	RESPONSE	        M8	1	17	F4	press
816.528	7.758	FIXCROSS	n/a	n/a	n/a	n/a	n/a
817.09	n/a	RESPONSE	        M8	1	17	F4	release
821.722	n/a	RESPONSE	        M8	1	17	F4	press
822.076	n/a	RESPONSE	        M8	1	19	G4	press
822.12	n/a	RESPONSE	        M8	1	17	F4	release
822.616	n/a	RESPONSE	        M8	1	19	G4	release
822.666	n/a	RESPONSE	        M8	1	21	A4	press
822.917	n/a	RESPONSE	        M8	1	21	A4	release
824.287	6.317	CUE_PLAYBACK_BOTH_HANDS	        M8	1	n/a	n/a	n/a
824.988	n/a	RESPONSE	        M8	1	16	E4	press
825.42	n/a	RESPONSE	        M8	1	19	G4	press
825.511	n/a	RESPONSE	        M8	1	16	E4	release
825.824	n/a	RESPONSE	        M8	1	23	B4	press
826.036	n/a	RESPONSE	        M8	1	19	G4	release
826.205	n/a	RESPONSE	        M8	1	23	B4	release
826.396	n/a	RESPONSE	        M8	1	23	B4	press
827.047	n/a	RESPONSE	        M8	1	09	A3	press
827.078	n/a	RESPONSE	        M8	1	18	F#4	press
827.261	n/a	RESPONSE	        M8	1	23	B4	release
827.641	n/a	RESPONSE	        M8	1	12	C4	press
828.032	n/a	RESPONSE	        M8	1	09	A3	release
828.244	n/a	RESPONSE	        M8	1	16	E4	press
828.255	n/a	RESPONSE	        M8	1	21	A4	press
828.336	n/a	RESPONSE	        M8	1	18	F#4	release
828.338	n/a	RESPONSE	        M8	1	12	C4	release
828.578	n/a	RESPONSE	        M8	1	16	E4	release
828.62	n/a	RESPONSE	        M8	1	21	A4	release
828.791	n/a	RESPONSE	        M8	1	21	A4	press
828.794	n/a	RESPONSE	        M8	1	16	E4	press
829.728	n/a	RESPONSE	        M8	1	23	B4	press
829.742	n/a	RESPONSE	        M8	1	15	D#4	press
829.761	n/a	RESPONSE	        M8	1	21	A4	release
829.785	n/a	RESPONSE	        M8	1	16	E4	release
830.518	n/a	RESPONSE	        M8	1	11	B3	press
830.597	n/a	RESPONSE	        M8	1	15	D#4	release
830.604	7.758	FIXCROSS	n/a	n/a	n/a	n/a	n/a
830.818	n/a	RESPONSE	        M8	1	21	A4	press
830.985	n/a	RESPONSE	        M8	1	23	B4	release
831.134	n/a	RESPONSE	        M8	1	19	G4	press
831.324	n/a	RESPONSE	        M8	1	21	A4	release
831.545	n/a	RESPONSE	        M8	1	18	F#4	press
831.685	n/a	RESPONSE	        M8	1	19	G4	release
832.081	n/a	RESPONSE	        M8	1	16	E4	press
832.311	n/a	RESPONSE	        M8	1	18	F#4	release
833.787	n/a	RESPONSE	        M8	1	12	C4	press
833.808	n/a	RESPONSE	        M8	1	11	B3	release
834.48	n/a	RESPONSE	        M8	1	23	B4	press
834.502	n/a	RESPONSE	        M8	1	11	B3	press
834.582	n/a	RESPONSE	        M8	1	16	E4	release
834.604	n/a	RESPONSE	        M8	1	12	C4	release
835.015	n/a	RESPONSE	        M8	1	11	B3	release
835.107	n/a	RESPONSE	        M8	1	11	B3	press
836.297	n/a	RESPONSE	        M8	1	23	B4	release
836.361	n/a	RESPONSE	        M8	1	11	B3	release
838.362	6.325	CUE_LISTEN	        M8	2	n/a	n/a	n/a
844.687	7.758	FIXCROSS	n/a	n/a	n/a	n/a	n/a
852.445	6.317	CUE_PLAYBACK_BOTH_HANDS	        M8	2	n/a	n/a	n/a
852.898	n/a	RESPONSE	        M8	2	16	E4	press
853.18	n/a	RESPONSE	        M8	2	19	G4	press
853.321	n/a	RESPONSE	        M8	2	16	E4	release
853.525	n/a	RESPONSE	        M8	2	23	B4	press
853.684	n/a	RESPONSE	        M8	2	19	G4	release
853.915	n/a	RESPONSE	        M8	2	23	B4	release
854.096	n/a	RESPONSE	        M8	2	23	B4	press
854.707	n/a	RESPONSE	        M8	2	09	A3	press
854.728	n/a	RESPONSE	        M8	2	18	F#4	press
854.912	n/a	RESPONSE	        M8	2	23	B4	release
855.291	n/a	RESPONSE	        M8	2	12	C4	press
855.382	n/a	RESPONSE	        M8	2	09	A3	release
855.876	n/a	RESPONSE	        M8	2	21	A4	press
855.896	n/a	RESPONSE	        M8	2	16	E4	press
855.926	n/a	RESPONSE	        M8	2	18	F#4	release
855.978	n/a	RESPONSE	        M8	2	12	C4	release
856.271	n/a	RESPONSE	        M8	2	16	E4	release
856.481	n/a	RESPONSE	        M8	2	16	E4	press
857.145	n/a	RESPONSE	        M8	2	23	B4	press
857.156	n/a	RESPONSE	        M8	2	15	D#4	press
857.226	n/a	RESPONSE	        M8	2	21	A4	release
857.236	n/a	RESPONSE	        M8	2	16	E4	release
857.767	n/a	RESPONSE	        M8	2	11	B3	press
857.838	n/a	RESPONSE	        M8	2	15	D#4	release
858.15	n/a	RESPONSE	        M8	2	21	A4	press
858.291	n/a	RESPONSE	        M8	2	23	B4	release
858.482	n/a	RESPONSE	        M8	2	19	G4	press
858.665	n/a	RESPONSE	        M8	2	21	A4	release
858.762	7.758	FIXCROSS	n/a	n/a	n/a	n/a	n/a
858.825	n/a	RESPONSE	        M8	2	18	F#4	press
858.896	n/a	RESPONSE	        M8	2	19	G4	release
859.172	n/a	RESPONSE	        M8	2	19	G4	press
859.25	n/a	RESPONSE	        M8	2	18	F#4	release
859.842	n/a	RESPONSE	        M8	2	12	C4	press
859.916	n/a	RESPONSE	        M8	2	11	B3	release
862.951	n/a	RESPONSE	        M8	2	11	B3	press
862.954	n/a	RESPONSE	        M8	2	12	C4	release
862.974	n/a	RESPONSE	        M8	2	16	E4	press
863.155	n/a	RESPONSE	        M8	2	19	G4	release
864.176	n/a	RESPONSE	        M8	2	09	A3	press
864.217	n/a	RESPONSE	        M8	2	11	B3	release
865.641	n/a	RESPONSE	        M8	2	04	E3	press
865.731	n/a	RESPONSE	        M8	2	09	A3	release
866.52	6.317	CUE_LISTEN	        M6	1	n/a	n/a	n/a
867.214	n/a	RESPONSE	        M6	1	04	E3	release
867.222	n/a	RESPONSE	        M6	1	16	E4	release
872.837	7.758	FIXCROSS	n/a	n/a	n/a	n/a	n/a
880.595	6.325	CUE_PLAYBACK_RIGHT_HAND	        M6	1	n/a	n/a	n/a
881.625	n/a	RESPONSE	        M6	1	22	A#4	press
881.64	n/a	RESPONSE	        M6	1	09	A3	press
881.921	n/a	RESPONSE	        M6	1	21	A4	press
882.068	n/a	RESPONSE	        M6	1	22	A#4	release
882.265	n/a	RESPONSE	        M6	1	19	G4	press
882.385	n/a	RESPONSE	        M6	1	19	G4	release
882.527	n/a	RESPONSE	        M6	1	21	A4	release
882.584	n/a	RESPONSE	        M6	1	09	A3	release
882.795	n/a	RESPONSE	        M6	1	22	A#4	press
883.086	n/a	RESPONSE	        M6	1	21	A4	press
883.22	n/a	RESPONSE	        M6	1	22	A#4	release
883.368	n/a	RESPONSE	        M6	1	19	G4	press
883.47	n/a	RESPONSE	        M6	1	21	A4	release
883.851	n/a	RESPONSE	        M6	1	21	A4	press
883.942	n/a	RESPONSE	        M6	1	19	G4	release
884.954	n/a	RESPONSE	        M6	1	21	A4	release
886.92	7.759	FIXCROSS	n/a	n/a	n/a	n/a	n/a
894.679	6.325	CUE_LISTEN	        M6	2	n/a	n/a	n/a
901.004	7.758	FIXCROSS	n/a	n/a	n/a	n/a	n/a
908.762	192.745	CUE_PLAYBACK_RIGHT_HAND	        M6	2	n/a	n/a	n/a
909.85	n/a	RESPONSE	        M6	2	14	D4	press
910.94	n/a	RESPONSE	        M6	2	12	C4	press
911.128	n/a	RESPONSE	        M6	2	14	D4	release
912.145	n/a	RESPONSE	        M6	2	14	D4	press
912.201	n/a	RESPONSE	        M6	2	12	C4	release
912.536	n/a	RESPONSE	        M6	2	14	D4	release
912.751	n/a	RESPONSE	        M6	2	19	G4	press
913.256	n/a	FIXCROSS	n/a	n/a	n/a	n/a	n/a
913.59	n/a	RESPONSE	        M6	2	12	C4	press
913.701	n/a	RESPONSE	        M6	2	19	G4	release
914.222	n/a	RESPONSE	        M6	2	10	A#3	press
914.355	n/a	RESPONSE	        M6	2	12	C4	release
914.475	n/a	RESPONSE	        M6	2	10	A#3	release
