onset	duration	trial_type	n_back_condition	trial_number	stimulus	response_type
0.0	n/a	RESPONSE	n/a	n/a	n/a	n/a
0.0288	1.0	ISI	n/a	n/a	n/a	n/a
1.0288	0.5	DISTRACTOR	1	1	B	Correct Rejection
1.5288	1.0	ISI	n/a	n/a	n/a	n/a
2.5288	0.5	DISTRACTOR	1	2	I	Correct Rejection
3.0288	1.0	ISI	n/a	n/a	n/a	n/a
4.0288	0.5	DISTRACTOR	1	3	H	Correct Rejection
4.5288	1.0	ISI	n/a	n/a	n/a	n/a
5.5288	0.5	DISTRACTOR	1	4	I	Correct Rejection
6.0288	1.0	ISI	n/a	n/a	n/a	n/a
7.0288	0.5	DISTRACTOR	1	5	F	Correct Rejection
7.5288	1.0	ISI	n/a	n/a	n/a	n/a
8.5288	0.5	TARGET	1	6	F	Hit
8.9162	n/a	RESPONSE	n/a	n/a	n/a	n/a
9.0288	1.0	ISI	n/a	n/a	n/a	n/a
10.0288	0.5	DISTRACTOR	1	7	D	Correct Rejection
10.5288	1.0	ISI	n/a	n/a	n/a	n/a
11.5288	0.5	DISTRACTOR	1	8	I	Correct Rejection
12.0289	1.0	ISI	n/a	n/a	n/a	n/a
13.0289	0.5	DISTRACTOR	1	9	H	Correct Rejection
13.5289	1.0	ISI	n/a	n/a	n/a	n/a
14.5289	0.5	DISTRACTOR	1	10	A	Correct Rejection
15.0289	1.0	ISI	n/a	n/a	n/a	n/a
16.0289	0.5	DISTRACTOR	1	11	I	Correct Rejection
16.5289	1.0	ISI	n/a	n/a	n/a	n/a
17.5289	0.5	TARGET	1	12	I	Hit
17.9443	n/a	RESPONSE	n/a	n/a	n/a	n/a
18.0289	1.0	ISI	n/a	n/a	n/a	n/a
19.0289	0.5	DISTRACTOR	1	13	H	Correct Rejection
19.5289	1.0	ISI	n/a	n/a	n/a	n/a
20.5289	0.5	DISTRACTOR	1	14	C	Correct Rejection
21.0289	1.0	ISI	n/a	n/a	n/a	n/a
22.0289	0.5	DISTRACTOR	1	15	F	Correct Rejection
22.5289	1.0	ISI	n/a	n/a	n/a	n/a
23.5289	0.5	DISTRACTOR	1	16	J	Correct Rejection
24.0289	1.0	ISI	n/a	n/a	n/a	n/a
25.0289	0.5167	DISTRACTOR	1	17	I	Correct Rejection
25.5456	1.0167	ISI	n/a	n/a	n/a	n/a
26.5623	0.5167	DISTRACTOR	1	18	H	Correct Rejection
27.079	1.0167	ISI	n/a	n/a	n/a	n/a
28.0956	0.5167	TARGET	1	19	H	Hit
28.4904	n/a	RESPONSE	n/a	n/a	n/a	n/a
28.6123	1.0167	ISI	n/a	n/a	n/a	n/a
29.629	0.5167	DISTRACTOR	1	20	D	Correct Rejection
30.1456	1.0167	ISI	n/a	n/a	n/a	n/a
31.1623	0.5167	TARGET	1	21	D	Hit
31.4943	n/a	RESPONSE	n/a	n/a	n/a	n/a
31.679	1.0167	ISI	n/a	n/a	n/a	n/a
32.6957	0.5167	DISTRACTOR	1	22	C	Correct Rejection
33.2123	1.0167	ISI	n/a	n/a	n/a	n/a
34.229	0.5167	DISTRACTOR	1	23	D	Correct Rejection
34.7457	1.0167	ISI	n/a	n/a	n/a	n/a
35.7624	0.5167	DISTRACTOR	1	24	A	Correct Rejection
36.279	1.0167	ISI	n/a	n/a	n/a	n/a
37.2957	0.5167	DISTRACTOR	1	25	I	Correct Rejection
37.8124	1.0167	ISI	n/a	n/a	n/a	n/a
38.829	0.5167	TARGET	1	26	I	Miss
39.3457	1.0167	ISI	n/a	n/a	n/a	n/a
40.3624	0.5167	DISTRACTOR	1	27	A	Correct Rejection
40.8791	1.0167	ISI	n/a	n/a	n/a	n/a
41.8957	0.5167	DISTRACTOR	1	28	I	Correct Rejection
42.4124	1.0167	ISI	n/a	n/a	n/a	n/a
43.4291	0.5167	DISTRACTOR	1	29	A	False Alarm
43.9458	1.0167	ISI	n/a	n/a	n/a	n/a
43.9739	n/a	RESPONSE	n/a	n/a	n/a	n/a
44.9624	0.5167	TARGET	1	30	A	Hit
45.4791	1.0167	ISI	n/a	n/a	n/a	n/a
45.5079	n/a	RESPONSE	n/a	n/a	n/a	n/a
46.4958	0.5167	DISTRACTOR	1	31	B	Correct Rejection
47.0124	1.0167	ISI	n/a	n/a	n/a	n/a
48.0291	0.5167	DISTRACTOR	1	32	I	Correct Rejection
48.5458	1.0167	ISI	n/a	n/a	n/a	n/a
49.5625	0.5167	DISTRACTOR	1	33	J	Correct Rejection
50.0791	1.0167	ISI	n/a	n/a	n/a	n/a
51.0958	0.5167	DISTRACTOR	1	34	C	Correct Rejection
51.6125	1.0167	ISI	n/a	n/a	n/a	n/a
52.6291	0.5167	DISTRACTOR	1	35	D	Correct Rejection
53.1458	1.0167	ISI	n/a	n/a	n/a	n/a
54.1625	0.5167	TARGET	1	36	D	Hit
54.6792	1.0167	ISI	n/a	n/a	n/a	n/a
54.7277	n/a	RESPONSE	n/a	n/a	n/a	n/a
55.6958	0.5167	DISTRACTOR	1	37	A	Correct Rejection
56.2125	1.0167	ISI	n/a	n/a	n/a	n/a
57.2292	0.5167	TARGET	1	38	A	Hit
57.6359	n/a	RESPONSE	n/a	n/a	n/a	n/a
57.7458	1.0167	ISI	n/a	n/a	n/a	n/a
58.7625	0.5167	DISTRACTOR	1	39	B	Correct Rejection
59.2792	1.0167	ISI	n/a	n/a	n/a	n/a
60.2959	0.5167	TARGET	1	40	B	Hit
60.608	n/a	RESPONSE	n/a	n/a	n/a	n/a
60.8125	1.0167	ISI	n/a	n/a	n/a	n/a
61.8292	0.5167	DISTRACTOR	1	41	I	Correct Rejection
62.3459	1.0167	ISI	n/a	n/a	n/a	n/a
63.3626	0.5167	DISTRACTOR	1	42	H	Correct Rejection
63.8792	1.0167	ISI	n/a	n/a	n/a	n/a
64.8959	0.5167	DISTRACTOR	1	43	B	Correct Rejection
65.4126	1.0167	ISI	n/a	n/a	n/a	n/a
66.4292	0.5167	DISTRACTOR	1	44	G	Correct Rejection
66.9459	1.0167	ISI	n/a	n/a	n/a	n/a
67.9626	0.5167	DISTRACTOR	1	45	C	Correct Rejection
68.4793	1.0167	ISI	n/a	n/a	n/a	n/a
69.4959	0.5167	DISTRACTOR	1	46	G	Correct Rejection
70.0126	1.0167	ISI	n/a	n/a	n/a	n/a
71.0293	0.5167	DISTRACTOR	1	47	E	Correct Rejection
71.5459	1.0167	ISI	n/a	n/a	n/a	n/a
72.5626	0.5167	DISTRACTOR	1	48	D	Correct Rejection
73.0793	1.0167	ISI	n/a	n/a	n/a	n/a
74.096	0.5167	DISTRACTOR	1	49	A	Correct Rejection
74.6126	1.0167	ISI	n/a	n/a	n/a	n/a
75.6293	0.5167	TARGET	1	50	A	Hit
76.146	1.0999	ISI	n/a	n/a	n/a	n/a
76.3632	n/a	RESPONSE	n/a	n/a	n/a	n/a
84.3367	n/a	RESPONSE	n/a	n/a	n/a	n/a
84.396	1.0167	ISI	n/a	n/a	n/a	n/a
85.4127	0.5167	DISTRACTOR	2	1	A	Correct Rejection
85.9294	1.0167	ISI	n/a	n/a	n/a	n/a
86.9461	0.5167	DISTRACTOR	2	2	I	Correct Rejection
87.4627	1.0167	ISI	n/a	n/a	n/a	n/a
88.4794	0.5167	TARGET	2	3	A	Hit
88.9387	n/a	RESPONSE	n/a	n/a	n/a	n/a
88.9961	1.0167	ISI	n/a	n/a	n/a	n/a
90.0127	0.5167	TARGET	2	4	I	Hit
90.4566	n/a	RESPONSE	n/a	n/a	n/a	n/a
90.5294	1.0167	ISI	n/a	n/a	n/a	n/a
91.5461	0.5167	DISTRACTOR	2	5	I	Correct Rejection
92.0628	1.0167	ISI	n/a	n/a	n/a	n/a
93.0794	0.5167	DISTRACTOR	2	6	E	Correct Rejection
93.5961	1.0167	ISI	n/a	n/a	n/a	n/a
94.6128	0.5167	DISTRACTOR	2	7	C	Correct Rejection
95.1294	1.0167	ISI	n/a	n/a	n/a	n/a
96.1461	0.5167	TARGET	2	8	E	Hit
96.6628	1.0167	ISI	n/a	n/a	n/a	n/a
96.8961	n/a	RESPONSE	n/a	n/a	n/a	n/a
97.6795	0.5167	TARGET	2	9	C	Hit
98.1961	1.0167	ISI	n/a	n/a	n/a	n/a
98.5899	n/a	RESPONSE	n/a	n/a	n/a	n/a
99.2128	0.5167	TARGET	2	10	E	Hit
99.6125	n/a	RESPONSE	n/a	n/a	n/a	n/a
99.7295	1.0167	ISI	n/a	n/a	n/a	n/a
100.7462	0.5167	DISTRACTOR	2	11	I	Correct Rejection
101.2628	1.0167	ISI	n/a	n/a	n/a	n/a
102.2795	0.5167	TARGET	2	12	E	Hit
102.6485	n/a	RESPONSE	n/a	n/a	n/a	n/a
102.7962	1.0167	ISI	n/a	n/a	n/a	n/a
103.8128	0.5167	TARGET	2	13	I	Hit
104.1346	n/a	RESPONSE	n/a	n/a	n/a	n/a
104.3295	1.0167	ISI	n/a	n/a	n/a	n/a
105.3462	0.5167	DISTRACTOR	2	14	H	Correct Rejection
105.8629	1.0167	ISI	n/a	n/a	n/a	n/a
106.8795	0.5167	DISTRACTOR	2	15	C	Correct Rejection
107.3962	1.0167	ISI	n/a	n/a	n/a	n/a
108.4129	0.5167	DISTRACTOR	2	16	C	Correct Rejection
108.9296	1.0167	ISI	n/a	n/a	n/a	n/a
109.9462	0.5167	DISTRACTOR	2	17	B	Correct Rejection
110.4629	1.0167	ISI	n/a	n/a	n/a	n/a
111.4796	0.5167	DISTRACTOR	2	18	G	Correct Rejection
111.9962	1.0167	ISI	n/a	n/a	n/a	n/a
113.0129	0.5167	DISTRACTOR	2	19	A	Correct Rejection
113.5296	1.0167	ISI	n/a	n/a	n/a	n/a
114.5463	0.5167	DISTRACTOR	2	20	B	Correct Rejection
115.0629	1.0167	ISI	n/a	n/a	n/a	n/a
116.0796	0.5167	TARGET	2	21	A	Hit
116.4703	n/a	RESPONSE	n/a	n/a	n/a	n/a
116.5963	1.0167	ISI	n/a	n/a	n/a	n/a
117.6129	0.5167	DISTRACTOR	2	22	G	Correct Rejection
118.1296	1.0167	ISI	n/a	n/a	n/a	n/a
119.1463	0.5167	DISTRACTOR	2	23	C	Correct Rejection
119.663	1.0167	ISI	n/a	n/a	n/a	n/a
120.6796	0.5167	DISTRACTOR	2	24	A	Correct Rejection
121.1963	1.0167	ISI	n/a	n/a	n/a	n/a
122.213	0.5167	DISTRACTOR	2	25	E	Correct Rejection
122.7296	1.0166	ISI	n/a	n/a	n/a	n/a
123.7463	0.5167	DISTRACTOR	2	26	B	Correct Rejection
124.263	1.0167	ISI	n/a	n/a	n/a	n/a
125.2797	0.5167	DISTRACTOR	2	27	I	Correct Rejection
125.7963	1.0167	ISI	n/a	n/a	n/a	n/a
126.813	0.5167	DISTRACTOR	2	28	D	Correct Rejection
127.3297	1.0167	ISI	n/a	n/a	n/a	n/a
128.3463	0.5167	DISTRACTOR	2	29	G	Correct Rejection
128.863	1.0167	ISI	n/a	n/a	n/a	n/a
129.8797	0.5167	DISTRACTOR	2	30	E	Correct Rejection
130.3964	1.0167	ISI	n/a	n/a	n/a	n/a
131.413	0.5167	DISTRACTOR	2	31	B	Correct Rejection
131.9297	1.0167	ISI	n/a	n/a	n/a	n/a
132.9464	0.5167	DISTRACTOR	2	32	D	Correct Rejection
133.4631	1.0167	ISI	n/a	n/a	n/a	n/a
134.4797	0.5167	DISTRACTOR	2	33	H	Correct Rejection
134.9964	1.0167	ISI	n/a	n/a	n/a	n/a
136.0131	0.5167	DISTRACTOR	2	34	B	Correct Rejection
136.5297	1.0167	ISI	n/a	n/a	n/a	n/a
137.5464	0.5167	DISTRACTOR	2	35	D	Correct Rejection
138.0631	1.0167	ISI	n/a	n/a	n/a	n/a
139.0798	0.5167	DISTRACTOR	2	36	E	False Alarm
139.5964	1.0167	ISI	n/a	n/a	n/a	n/a
139.7836	n/a	RESPONSE	n/a	n/a	n/a	n/a
140.6131	0.5167	DISTRACTOR	2	37	B	Correct Rejection
141.1298	1.0167	ISI	n/a	n/a	n/a	n/a
142.1465	0.5167	TARGET	2	38	E	Hit
142.6631	1.0167	ISI	n/a	n/a	n/a	n/a
142.6758	n/a	RESPONSE	n/a	n/a	n/a	n/a
143.6798	0.5167	DISTRACTOR	2	39	A	Correct Rejection
144.1965	1.0167	ISI	n/a	n/a	n/a	n/a
145.2131	0.5167	DISTRACTOR	2	40	G	Correct Rejection
145.7298	1.0167	ISI	n/a	n/a	n/a	n/a
146.7465	0.5167	DISTRACTOR	2	41	B	Correct Rejection
147.2631	1.0167	ISI	n/a	n/a	n/a	n/a
148.2798	0.5167	DISTRACTOR	2	42	H	Correct Rejection
148.7965	1.0167	ISI	n/a	n/a	n/a	n/a
149.8132	0.5167	DISTRACTOR	2	43	I	Correct Rejection
150.3298	1.0167	ISI	n/a	n/a	n/a	n/a
151.3465	0.5167	DISTRACTOR	2	44	G	Correct Rejection
151.8632	1.0167	ISI	n/a	n/a	n/a	n/a
152.8799	0.5167	DISTRACTOR	2	45	B	Correct Rejection
153.3965	1.0167	ISI	n/a	n/a	n/a	n/a
154.4132	0.5167	DISTRACTOR	2	46	E	Correct Rejection
154.9299	1.0167	ISI	n/a	n/a	n/a	n/a
155.9465	0.5167	TARGET	2	47	B	Hit
156.4016	n/a	RESPONSE	n/a	n/a	n/a	n/a
156.4632	1.0167	ISI	n/a	n/a	n/a	n/a
157.4799	0.5167	DISTRACTOR	2	48	G	Correct Rejection
157.9966	1.0167	ISI	n/a	n/a	n/a	n/a
159.0132	0.5167	DISTRACTOR	2	49	D	Correct Rejection
159.5299	1.0167	ISI	n/a	n/a	n/a	n/a
160.5466	0.5167	DISTRACTOR	2	50	B	Correct Rejection
161.0632	1.1	ISI	n/a	n/a	n/a	n/a
165.6375	n/a	RESPONSE	n/a	n/a	n/a	n/a
165.6633	1.0	ISI	n/a	n/a	n/a	n/a
166.6633	0.5	DISTRACTOR	3	1	C	Correct Rejection
167.1633	1.0167	ISI	n/a	n/a	n/a	n/a
168.18	0.5167	DISTRACTOR	3	2	A	Correct Rejection
168.6966	1.0167	ISI	n/a	n/a	n/a	n/a
169.7133	0.5167	DISTRACTOR	3	3	G	Correct Rejection
170.23	1.0167	ISI	n/a	n/a	n/a	n/a
171.2466	0.5167	DISTRACTOR	3	4	D	Correct Rejection
171.7633	1.0167	ISI	n/a	n/a	n/a	n/a
172.78	0.5167	DISTRACTOR	3	5	I	Correct Rejection
173.2967	1.0167	ISI	n/a	n/a	n/a	n/a
174.3133	0.5167	DISTRACTOR	3	6	B	Correct Rejection
174.83	1.0167	ISI	n/a	n/a	n/a	n/a
175.8467	0.5167	DISTRACTOR	3	7	E	Correct Rejection
176.3633	1.0167	ISI	n/a	n/a	n/a	n/a
177.38	0.5167	TARGET	3	8	I	Hit
177.8967	1.0167	ISI	n/a	n/a	n/a	n/a
177.9732	n/a	RESPONSE	n/a	n/a	n/a	n/a
178.9134	0.5167	TARGET	3	9	B	Hit
179.3154	n/a	RESPONSE	n/a	n/a	n/a	n/a
179.43	1.0167	ISI	n/a	n/a	n/a	n/a
180.4467	0.5167	TARGET	3	10	E	Hit
180.8334	n/a	RESPONSE	n/a	n/a	n/a	n/a
180.9634	1.0167	ISI	n/a	n/a	n/a	n/a
181.9801	0.5167	TARGET	3	11	I	Hit
182.3514	n/a	RESPONSE	n/a	n/a	n/a	n/a
182.4967	1.0167	ISI	n/a	n/a	n/a	n/a
183.5134	0.5167	DISTRACTOR	3	12	F	Correct Rejection
184.0301	1.0167	ISI	n/a	n/a	n/a	n/a
185.0467	0.5167	DISTRACTOR	3	13	D	Correct Rejection
185.5634	1.0167	ISI	n/a	n/a	n/a	n/a
186.5801	0.5167	DISTRACTOR	3	14	G	Correct Rejection
187.0968	1.0167	ISI	n/a	n/a	n/a	n/a
188.1134	0.5167	DISTRACTOR	3	15	D	Correct Rejection
188.6301	1.0167	ISI	n/a	n/a	n/a	n/a
189.6468	0.5167	DISTRACTOR	3	16	C	Correct Rejection
190.1634	1.0167	ISI	n/a	n/a	n/a	n/a
191.1801	0.5167	DISTRACTOR	3	17	C	Correct Rejection
191.6968	1.0167	ISI	n/a	n/a	n/a	n/a
192.7135	0.5167	DISTRACTOR	3	18	B	Correct Rejection
193.2301	1.0167	ISI	n/a	n/a	n/a	n/a
194.2468	0.5167	DISTRACTOR	3	19	A	Correct Rejection
194.7635	1.0167	ISI	n/a	n/a	n/a	n/a
195.7801	0.5167	DISTRACTOR	3	20	A	Correct Rejection
196.2968	1.0167	ISI	n/a	n/a	n/a	n/a
197.3135	0.5167	DISTRACTOR	3	21	J	Correct Rejection
197.8302	1.0167	ISI	n/a	n/a	n/a	n/a
198.8468	0.5167	DISTRACTOR	3	22	B	Correct Rejection
199.3635	1.0167	ISI	n/a	n/a	n/a	n/a
200.3802	0.5167	DISTRACTOR	3	23	D	Correct Rejection
200.8969	1.0167	ISI	n/a	n/a	n/a	n/a
201.9135	0.5167	DISTRACTOR	3	24	F	Correct Rejection
202.4302	1.0167	ISI	n/a	n/a	n/a	n/a
203.4469	0.5167	DISTRACTOR	3	25	D	Correct Rejection
203.9635	1.0167	ISI	n/a	n/a	n/a	n/a
204.9802	0.5167	TARGET	3	26	D	Hit
205.4969	1.0167	ISI	n/a	n/a	n/a	n/a
205.6648	n/a	RESPONSE	n/a	n/a	n/a	n/a
206.5136	0.5167	DISTRACTOR	3	27	G	Correct Rejection
207.0302	1.0167	ISI	n/a	n/a	n/a	n/a
208.0469	0.5167	DISTRACTOR	3	28	I	Correct Rejection
208.5636	1.0167	ISI	n/a	n/a	n/a	n/a
209.5803	0.5167	DISTRACTOR	3	29	B	Correct Rejection
210.0969	1.0167	ISI	n/a	n/a	n/a	n/a
211.1136	0.5167	DISTRACTOR	3	30	B	Correct Rejection
211.6303	1.0167	ISI	n/a	n/a	n/a	n/a
212.6469	0.5167	DISTRACTOR	3	31	A	Correct Rejection
213.1636	1.0167	ISI	n/a	n/a	n/a	n/a
214.1803	0.5167	TARGET	3	32	B	Hit
214.565	n/a	RESPONSE	n/a	n/a	n/a	n/a
214.6969	1.0167	ISI	n/a	n/a	n/a	n/a
215.7136	0.5167	TARGET	3	33	B	Hit
216.0511	n/a	RESPONSE	n/a	n/a	n/a	n/a
216.2303	1.0167	ISI	n/a	n/a	n/a	n/a
217.247	0.5167	DISTRACTOR	3	34	B	Correct Rejection
217.7636	1.0167	ISI	n/a	n/a	n/a	n/a
218.7803	0.5167	DISTRACTOR	3	35	D	Correct Rejection
219.297	1.0167	ISI	n/a	n/a	n/a	n/a
220.3137	0.5167	DISTRACTOR	3	36	G	Correct Rejection
220.8303	1.0167	ISI	n/a	n/a	n/a	n/a
221.847	0.5167	DISTRACTOR	3	37	A	Correct Rejection
222.3637	1.0167	ISI	n/a	n/a	n/a	n/a
223.3803	0.5167	DISTRACTOR	3	38	A	Correct Rejection
223.897	1.0167	ISI	n/a	n/a	n/a	n/a
224.9137	0.5167	DISTRACTOR	3	39	J	Correct Rejection
225.4304	1.0167	ISI	n/a	n/a	n/a	n/a
226.447	0.5167	DISTRACTOR	3	40	H	Correct Rejection
226.9637	1.0167	ISI	n/a	n/a	n/a	n/a
227.9804	0.5167	TARGET	3	41	A	Hit
228.307	n/a	RESPONSE	n/a	n/a	n/a	n/a
228.497	1.0167	ISI	n/a	n/a	n/a	n/a
229.5137	0.5167	TARGET	3	42	J	Hit
229.9049	n/a	RESPONSE	n/a	n/a	n/a	n/a
230.0304	1.0167	ISI	n/a	n/a	n/a	n/a
231.0471	0.5167	DISTRACTOR	3	43	C	Correct Rejection
231.5637	1.0167	ISI	n/a	n/a	n/a	n/a
232.5804	0.5167	DISTRACTOR	3	44	I	Correct Rejection
233.0971	1.0167	ISI	n/a	n/a	n/a	n/a
234.1137	0.5167	DISTRACTOR	3	45	G	Correct Rejection
234.6304	1.0167	ISI	n/a	n/a	n/a	n/a
235.6471	0.5167	DISTRACTOR	3	46	F	Correct Rejection
236.1638	1.0167	ISI	n/a	n/a	n/a	n/a
237.1804	0.5167	DISTRACTOR	3	47	C	Correct Rejection
237.6971	1.0167	ISI	n/a	n/a	n/a	n/a
238.7138	0.5167	DISTRACTOR	3	48	E	Correct Rejection
239.2304	1.0167	ISI	n/a	n/a	n/a	n/a
240.2471	0.5167	DISTRACTOR	3	49	E	Correct Rejection
240.7638	1.0167	ISI	n/a	n/a	n/a	n/a
241.7805	0.5167	TARGET	3	50	C	Hit
242.2971	1.0333	ISI	n/a	n/a	n/a	n/a
242.7041	n/a	RESPONSE	n/a	n/a	n/a	n/a
244.7653	n/a	RESPONSE	n/a	n/a	n/a	n/a
