onset	duration	trial_type	trial_number	stroop_condition	stim_text(PL)	stim_text(eng)	stim_color(PL)	stim_color(eng)	response_type	response_color
0.0	n/a	RESPONSE	n/a	n/a	n/a	n/a	n/a	n/a	n/a	n/a
0.053	1.0334	ITI	n/a	n/a	n/a	n/a	n/a	n/a	n/a	n/a
1.0863	0.5167	FIXCROSS	n/a	n/a	n/a	n/a	n/a	n/a	n/a	n/a
1.603	0.7333	T_INK	1	Neutral	xxxxxxx	xxxxxxx	niebieski	blue	hit	n/a
2.301	n/a	RESPONSE	n/a	n/a	n/a	n/a	n/a	n/a	n/a	blue
2.3363	0.5167	FEEDBACK	n/a	n/a	n/a	n/a	n/a	n/a	n/a	n/a
2.853	1.0167	ITI	n/a	n/a	n/a	n/a	n/a	n/a	n/a	n/a
3.8697	0.5167	FIXCROSS	n/a	n/a	n/a	n/a	n/a	n/a	n/a	n/a
4.3863	0.75	T_INK	2	Neutral	xxxxxxx	xxxxxxx	żółty	yellow	hit	n/a
5.1132	n/a	RESPONSE	n/a	n/a	n/a	n/a	n/a	n/a	n/a	yellow
5.1363	0.5167	FEEDBACK	n/a	n/a	n/a	n/a	n/a	n/a	n/a	n/a
5.653	1.0167	ITI	n/a	n/a	n/a	n/a	n/a	n/a	n/a	n/a
6.6697	0.5167	FIXCROSS	n/a	n/a	n/a	n/a	n/a	n/a	n/a	n/a
7.1863	0.7667	T_INK	3	Neutral	xxxxxxxx	xxxxxxxx	zielony	green	hit	n/a
7.9253	n/a	RESPONSE	n/a	n/a	n/a	n/a	n/a	n/a	n/a	green
7.953	0.5167	FEEDBACK	n/a	n/a	n/a	n/a	n/a	n/a	n/a	n/a
8.4697	1.0167	ITI	n/a	n/a	n/a	n/a	n/a	n/a	n/a	n/a
9.4864	0.5167	FIXCROSS	n/a	n/a	n/a	n/a	n/a	n/a	n/a	n/a
10.003	0.8	T_INK	4	Neutral	xxxxxxxx	xxxxxxxx	niebieski	blue	hit	n/a
10.7695	n/a	RESPONSE	n/a	n/a	n/a	n/a	n/a	n/a	n/a	blue
10.803	0.5167	FEEDBACK	n/a	n/a	n/a	n/a	n/a	n/a	n/a	n/a
11.3197	1.0167	ITI	n/a	n/a	n/a	n/a	n/a	n/a	n/a	n/a
12.3364	0.5167	FIXCROSS	n/a	n/a	n/a	n/a	n/a	n/a	n/a	n/a
12.853	0.6333	T_INK	5	Incongruent	niebieski	blue	żółty	yellow	hit	n/a
13.4539	n/a	RESPONSE	n/a	n/a	n/a	n/a	n/a	n/a	n/a	yellow
13.4864	0.5167	FEEDBACK	n/a	n/a	n/a	n/a	n/a	n/a	n/a	n/a
14.003	1.0167	ITI	n/a	n/a	n/a	n/a	n/a	n/a	n/a	n/a
15.0197	0.5167	FIXCROSS	n/a	n/a	n/a	n/a	n/a	n/a	n/a	n/a
15.5364	0.9	T_INK	6	Incongruent	żółty	yellow	zielony	green	hit	n/a
16.4099	n/a	RESPONSE	n/a	n/a	n/a	n/a	n/a	n/a	n/a	green
16.4364	0.5167	FEEDBACK	n/a	n/a	n/a	n/a	n/a	n/a	n/a	n/a
16.9531	1.0167	ITI	n/a	n/a	n/a	n/a	n/a	n/a	n/a	n/a
17.9697	0.5167	FIXCROSS	n/a	n/a	n/a	n/a	n/a	n/a	n/a	n/a
18.4864	0.7333	T_INK	7	Neutral	xxxxx	xxxxx	niebieski	blue	hit	n/a
19.1901	n/a	RESPONSE	n/a	n/a	n/a	n/a	n/a	n/a	n/a	blue
19.2197	0.5167	FEEDBACK	n/a	n/a	n/a	n/a	n/a	n/a	n/a	n/a
19.7364	1.0167	ITI	n/a	n/a	n/a	n/a	n/a	n/a	n/a	n/a
20.7531	0.5167	FIXCROSS	n/a	n/a	n/a	n/a	n/a	n/a	n/a	n/a
21.2698	0.6	T_INK	8	Incongruent	żółty	yellow	niebieski	blue	hit	n/a
21.8426	n/a	RESPONSE	n/a	n/a	n/a	n/a	n/a	n/a	n/a	blue
21.8698	0.5167	FEEDBACK	n/a	n/a	n/a	n/a	n/a	n/a	n/a	n/a
22.3864	1.0167	ITI	n/a	n/a	n/a	n/a	n/a	n/a	n/a	n/a
23.4031	0.5167	FIXCROSS	n/a	n/a	n/a	n/a	n/a	n/a	n/a	n/a
23.9198	0.5	T_INK	9	Neutral	xxxxxxxx	xxxxxxxx	żółty	yellow	incorrect	n/a
24.3992	n/a	RESPONSE	n/a	n/a	n/a	n/a	n/a	n/a	n/a	green
24.4198	0.5167	FEEDBACK	n/a	n/a	n/a	n/a	n/a	n/a	n/a	n/a
24.9365	1.0167	ITI	n/a	n/a	n/a	n/a	n/a	n/a	n/a	n/a
25.9531	0.5167	FIXCROSS	n/a	n/a	n/a	n/a	n/a	n/a	n/a	n/a
26.4698	0.5667	T_INK	10	Incongruent	zielony	green	żółty	yellow	hit	n/a
27.0038	n/a	RESPONSE	n/a	n/a	n/a	n/a	n/a	n/a	n/a	yellow
27.0365	0.5167	FEEDBACK	n/a	n/a	n/a	n/a	n/a	n/a	n/a	n/a
27.5531	1.0167	ITI	n/a	n/a	n/a	n/a	n/a	n/a	n/a	n/a
28.5698	0.5167	FIXCROSS	n/a	n/a	n/a	n/a	n/a	n/a	n/a	n/a
29.0865	0.8833	T_INK	11	Incongruent	czerwony	red	niebieski	blue	hit	n/a
29.9439	n/a	RESPONSE	n/a	n/a	n/a	n/a	n/a	n/a	n/a	blue
29.9698	0.5167	FEEDBACK	n/a	n/a	n/a	n/a	n/a	n/a	n/a	n/a
30.4865	1.0167	ITI	n/a	n/a	n/a	n/a	n/a	n/a	n/a	n/a
31.5032	0.5167	FIXCROSS	n/a	n/a	n/a	n/a	n/a	n/a	n/a	n/a
32.0198	0.7	T_INK	12	Incongruent	zielony	green	czerwony	red	hit	n/a
32.6922	n/a	RESPONSE	n/a	n/a	n/a	n/a	n/a	n/a	n/a	red
32.7198	0.5167	FEEDBACK	n/a	n/a	n/a	n/a	n/a	n/a	n/a	n/a
33.2365	1.0333	ITI	n/a	n/a	n/a	n/a	n/a	n/a	n/a	n/a
38.7322	n/a	RESPONSE	n/a	n/a	n/a	n/a	n/a	n/a	n/a	n/a
38.7866	1.0167	ITI	n/a	n/a	n/a	n/a	n/a	n/a	n/a	n/a
39.8032	0.5167	FIXCROSS	n/a	n/a	n/a	n/a	n/a	n/a	n/a	n/a
40.3199	0.85	INK	1	Incongruent	czerwony	red	zielony	green	hit	n/a
41.1449	n/a	RESPONSE	n/a	n/a	n/a	n/a	n/a	n/a	n/a	green
41.1699	1.0167	ITI	n/a	n/a	n/a	n/a	n/a	n/a	n/a	n/a
42.1866	0.5167	FIXCROSS	n/a	n/a	n/a	n/a	n/a	n/a	n/a	n/a
42.7032	0.7	INK	2	Incongruent	czerwony	red	niebieski	blue	hit	n/a
43.382	n/a	RESPONSE	n/a	n/a	n/a	n/a	n/a	n/a	n/a	blue
43.4032	1.0167	ITI	n/a	n/a	n/a	n/a	n/a	n/a	n/a	n/a
44.4199	0.5167	FIXCROSS	n/a	n/a	n/a	n/a	n/a	n/a	n/a	n/a
44.9366	0.6167	INK	3	Neutral	xxxxxxx	xxxxxxx	żółty	yellow	hit	n/a
45.5231	n/a	RESPONSE	n/a	n/a	n/a	n/a	n/a	n/a	n/a	yellow
45.5533	1.0167	ITI	n/a	n/a	n/a	n/a	n/a	n/a	n/a	n/a
46.5699	0.5167	FIXCROSS	n/a	n/a	n/a	n/a	n/a	n/a	n/a	n/a
47.0866	0.6833	INK	4	Incongruent	żółty	yellow	czerwony	red	hit	n/a
47.744	n/a	RESPONSE	n/a	n/a	n/a	n/a	n/a	n/a	n/a	red
47.7699	1.0167	ITI	n/a	n/a	n/a	n/a	n/a	n/a	n/a	n/a
48.7866	0.5167	FIXCROSS	n/a	n/a	n/a	n/a	n/a	n/a	n/a	n/a
49.3033	0.6833	INK	5	Neutral	xxxxxxxxx	xxxxxxxxx	zielony	green	hit	n/a
49.9652	n/a	RESPONSE	n/a	n/a	n/a	n/a	n/a	n/a	n/a	green
49.9866	1.0167	ITI	n/a	n/a	n/a	n/a	n/a	n/a	n/a	n/a
51.0033	0.5167	FIXCROSS	n/a	n/a	n/a	n/a	n/a	n/a	n/a	n/a
51.52	0.5	INK	6	Incongruent	żółty	yellow	zielony	green	hit	n/a
51.9944	n/a	RESPONSE	n/a	n/a	n/a	n/a	n/a	n/a	n/a	green
52.02	1.0167	ITI	n/a	n/a	n/a	n/a	n/a	n/a	n/a	n/a
53.0366	0.5167	FIXCROSS	n/a	n/a	n/a	n/a	n/a	n/a	n/a	n/a
53.5533	0.5333	INK	7	Incongruent	czerwony	red	żółty	yellow	hit	n/a
54.0557	n/a	RESPONSE	n/a	n/a	n/a	n/a	n/a	n/a	n/a	yellow
54.0867	1.0167	ITI	n/a	n/a	n/a	n/a	n/a	n/a	n/a	n/a
55.1033	0.5167	FIXCROSS	n/a	n/a	n/a	n/a	n/a	n/a	n/a	n/a
55.62	0.6667	INK	8	Neutral	xxxxxxxx	xxxxxxxx	zielony	green	hit	n/a
56.2607	n/a	RESPONSE	n/a	n/a	n/a	n/a	n/a	n/a	n/a	green
56.2867	1.0167	ITI	n/a	n/a	n/a	n/a	n/a	n/a	n/a	n/a
57.3033	0.5167	FIXCROSS	n/a	n/a	n/a	n/a	n/a	n/a	n/a	n/a
57.82	0.65	INK	9	Incongruent	czerwony	red	zielony	green	hit	n/a
58.4498	n/a	RESPONSE	n/a	n/a	n/a	n/a	n/a	n/a	n/a	green
58.47	1.0167	ITI	n/a	n/a	n/a	n/a	n/a	n/a	n/a	n/a
59.4867	0.5167	FIXCROSS	n/a	n/a	n/a	n/a	n/a	n/a	n/a	n/a
60.0033	0.6167	INK	10	Incongruent	niebieski	blue	zielony	green	hit	n/a
60.5909	n/a	RESPONSE	n/a	n/a	n/a	n/a	n/a	n/a	n/a	green
60.62	1.0167	ITI	n/a	n/a	n/a	n/a	n/a	n/a	n/a	n/a
61.6367	0.5167	FIXCROSS	n/a	n/a	n/a	n/a	n/a	n/a	n/a	n/a
62.1534	0.5167	INK	11	Neutral	xxxxxxxxx	xxxxxxxxx	żółty	yellow	hit	n/a
62.6362	n/a	RESPONSE	n/a	n/a	n/a	n/a	n/a	n/a	n/a	yellow
62.67	1.0167	ITI	n/a	n/a	n/a	n/a	n/a	n/a	n/a	n/a
63.6867	0.5167	FIXCROSS	n/a	n/a	n/a	n/a	n/a	n/a	n/a	n/a
64.2034	0.6667	INK	12	Incongruent	zielony	green	żółty	yellow	hit	n/a
64.8412	n/a	RESPONSE	n/a	n/a	n/a	n/a	n/a	n/a	n/a	yellow
64.8701	1.0167	ITI	n/a	n/a	n/a	n/a	n/a	n/a	n/a	n/a
65.8867	0.5167	FIXCROSS	n/a	n/a	n/a	n/a	n/a	n/a	n/a	n/a
66.4034	0.6333	INK	13	Incongruent	żółty	yellow	niebieski	blue	hit	n/a
67.0145	n/a	RESPONSE	n/a	n/a	n/a	n/a	n/a	n/a	n/a	blue
67.0367	1.0167	ITI	n/a	n/a	n/a	n/a	n/a	n/a	n/a	n/a
68.0534	0.5167	FIXCROSS	n/a	n/a	n/a	n/a	n/a	n/a	n/a	n/a
68.5701	0.6167	INK	14	Incongruent	zielony	green	czerwony	red	hit	n/a
69.1555	n/a	RESPONSE	n/a	n/a	n/a	n/a	n/a	n/a	n/a	red
69.1867	1.0167	ITI	n/a	n/a	n/a	n/a	n/a	n/a	n/a	n/a
70.2034	0.5167	FIXCROSS	n/a	n/a	n/a	n/a	n/a	n/a	n/a	n/a
70.7201	0.5167	INK	15	Incongruent	zielony	green	czerwony	red	hit	n/a
71.2168	n/a	RESPONSE	n/a	n/a	n/a	n/a	n/a	n/a	n/a	red
71.2368	1.0167	ITI	n/a	n/a	n/a	n/a	n/a	n/a	n/a	n/a
72.2534	0.5167	FIXCROSS	n/a	n/a	n/a	n/a	n/a	n/a	n/a	n/a
72.7701	0.6667	INK	16	Incongruent	żółty	yellow	niebieski	blue	hit	n/a
73.4059	n/a	RESPONSE	n/a	n/a	n/a	n/a	n/a	n/a	n/a	blue
73.4368	1.0167	ITI	n/a	n/a	n/a	n/a	n/a	n/a	n/a	n/a
74.4534	0.5167	FIXCROSS	n/a	n/a	n/a	n/a	n/a	n/a	n/a	n/a
74.9701	0.4666	INK	17	Incongruent	niebieski	blue	żółty	yellow	hit	n/a
75.4192	n/a	RESPONSE	n/a	n/a	n/a	n/a	n/a	n/a	n/a	yellow
75.4368	1.0167	ITI	n/a	n/a	n/a	n/a	n/a	n/a	n/a	n/a
76.4535	0.5167	FIXCROSS	n/a	n/a	n/a	n/a	n/a	n/a	n/a	n/a
76.9701	0.7	INK	18	Neutral	xxxxxxx	xxxxxxx	czerwony	red	hit	n/a
77.6403	n/a	RESPONSE	n/a	n/a	n/a	n/a	n/a	n/a	n/a	red
77.6701	1.0167	ITI	n/a	n/a	n/a	n/a	n/a	n/a	n/a	n/a
78.6868	0.5167	FIXCROSS	n/a	n/a	n/a	n/a	n/a	n/a	n/a	n/a
79.2035	0.6667	INK	19	Neutral	xxxxx	xxxxx	niebieski	blue	hit	n/a
79.8454	n/a	RESPONSE	n/a	n/a	n/a	n/a	n/a	n/a	n/a	blue
79.8701	1.0167	ITI	n/a	n/a	n/a	n/a	n/a	n/a	n/a	n/a
80.8868	0.5167	FIXCROSS	n/a	n/a	n/a	n/a	n/a	n/a	n/a	n/a
81.4035	0.6167	INK	20	Neutral	xxxxxxxx	xxxxxxxx	żółty	yellow	hit	n/a
82.0025	n/a	RESPONSE	n/a	n/a	n/a	n/a	n/a	n/a	n/a	yellow
82.0202	1.0167	ITI	n/a	n/a	n/a	n/a	n/a	n/a	n/a	n/a
83.0368	0.5167	FIXCROSS	n/a	n/a	n/a	n/a	n/a	n/a	n/a	n/a
83.5535	0.8667	INK	21	Incongruent	niebieski	blue	zielony	green	hit	n/a
84.3994	n/a	RESPONSE	n/a	n/a	n/a	n/a	n/a	n/a	n/a	green
84.4202	1.0167	ITI	n/a	n/a	n/a	n/a	n/a	n/a	n/a	n/a
85.4368	0.5167	FIXCROSS	n/a	n/a	n/a	n/a	n/a	n/a	n/a	n/a
85.9535	0.7167	INK	22	Incongruent	żółty	yellow	zielony	green	hit	n/a
86.6363	n/a	RESPONSE	n/a	n/a	n/a	n/a	n/a	n/a	n/a	green
86.6702	1.0167	ITI	n/a	n/a	n/a	n/a	n/a	n/a	n/a	n/a
87.6869	0.5167	FIXCROSS	n/a	n/a	n/a	n/a	n/a	n/a	n/a	n/a
88.2035	0.7167	INK	23	Incongruent	niebieski	blue	czerwony	red	hit	n/a
88.8893	n/a	RESPONSE	n/a	n/a	n/a	n/a	n/a	n/a	n/a	red
88.9202	1.0167	ITI	n/a	n/a	n/a	n/a	n/a	n/a	n/a	n/a
89.9369	0.5167	FIXCROSS	n/a	n/a	n/a	n/a	n/a	n/a	n/a	n/a
90.4535	0.7	INK	24	Neutral	xxxxx	xxxxx	zielony	green	hit	n/a
91.1263	n/a	RESPONSE	n/a	n/a	n/a	n/a	n/a	n/a	n/a	green
91.1536	1.0167	ITI	n/a	n/a	n/a	n/a	n/a	n/a	n/a	n/a
92.1702	0.5167	FIXCROSS	n/a	n/a	n/a	n/a	n/a	n/a	n/a	n/a
92.6869	0.7	INK	25	Incongruent	żółty	yellow	czerwony	red	hit	n/a
93.3634	n/a	RESPONSE	n/a	n/a	n/a	n/a	n/a	n/a	n/a	red
93.3869	1.0167	ITI	n/a	n/a	n/a	n/a	n/a	n/a	n/a	n/a
94.4036	0.5167	FIXCROSS	n/a	n/a	n/a	n/a	n/a	n/a	n/a	n/a
94.9202	0.5667	INK	26	Incongruent	niebieski	blue	żółty	yellow	hit	n/a
95.4567	n/a	RESPONSE	n/a	n/a	n/a	n/a	n/a	n/a	n/a	yellow
95.4869	1.0167	ITI	n/a	n/a	n/a	n/a	n/a	n/a	n/a	n/a
96.5036	0.5167	FIXCROSS	n/a	n/a	n/a	n/a	n/a	n/a	n/a	n/a
97.0203	0.6667	INK	27	Incongruent	zielony	green	czerwony	red	hit	n/a
97.6616	n/a	RESPONSE	n/a	n/a	n/a	n/a	n/a	n/a	n/a	red
97.6869	1.0167	ITI	n/a	n/a	n/a	n/a	n/a	n/a	n/a	n/a
98.7036	0.5167	FIXCROSS	n/a	n/a	n/a	n/a	n/a	n/a	n/a	n/a
99.2203	0.6	INK	28	Incongruent	zielony	green	żółty	yellow	hit	n/a
99.7868	n/a	RESPONSE	n/a	n/a	n/a	n/a	n/a	n/a	n/a	yellow
99.8203	1.0167	ITI	n/a	n/a	n/a	n/a	n/a	n/a	n/a	n/a
100.8369	0.5167	FIXCROSS	n/a	n/a	n/a	n/a	n/a	n/a	n/a	n/a
101.3536	0.6667	INK	29	Incongruent	czerwony	red	niebieski	blue	hit	n/a
101.9919	n/a	RESPONSE	n/a	n/a	n/a	n/a	n/a	n/a	n/a	blue
102.0203	1.0167	ITI	n/a	n/a	n/a	n/a	n/a	n/a	n/a	n/a
103.037	0.5167	FIXCROSS	n/a	n/a	n/a	n/a	n/a	n/a	n/a	n/a
103.5536	0.8	INK	30	Incongruent	żółty	yellow	zielony	green	hit	n/a
104.3248	n/a	RESPONSE	n/a	n/a	n/a	n/a	n/a	n/a	n/a	green
104.3536	1.0167	ITI	n/a	n/a	n/a	n/a	n/a	n/a	n/a	n/a
105.3703	0.5167	FIXCROSS	n/a	n/a	n/a	n/a	n/a	n/a	n/a	n/a
105.887	0.5333	INK	31	Neutral	xxxxxxx	xxxxxxx	niebieski	blue	incorrect	n/a
106.402	n/a	RESPONSE	n/a	n/a	n/a	n/a	n/a	n/a	n/a	red
106.4203	1.0167	ITI	n/a	n/a	n/a	n/a	n/a	n/a	n/a	n/a
107.437	0.5167	FIXCROSS	n/a	n/a	n/a	n/a	n/a	n/a	n/a	n/a
107.9537	0.5	INK	32	Neutral	xxxxxxxxx	xxxxxxxxx	czerwony	red	hit	n/a
108.4313	n/a	RESPONSE	n/a	n/a	n/a	n/a	n/a	n/a	n/a	red
108.4537	1.0167	ITI	n/a	n/a	n/a	n/a	n/a	n/a	n/a	n/a
109.4703	0.5167	FIXCROSS	n/a	n/a	n/a	n/a	n/a	n/a	n/a	n/a
109.987	0.6	INK	33	Incongruent	niebieski	blue	czerwony	red	hit	n/a
110.5564	n/a	RESPONSE	n/a	n/a	n/a	n/a	n/a	n/a	n/a	red
110.587	1.0167	ITI	n/a	n/a	n/a	n/a	n/a	n/a	n/a	n/a
111.6037	0.5167	FIXCROSS	n/a	n/a	n/a	n/a	n/a	n/a	n/a	n/a
112.1204	0.6167	INK	34	Neutral	xxxxx	xxxxx	niebieski	blue	hit	n/a
112.7135	n/a	RESPONSE	n/a	n/a	n/a	n/a	n/a	n/a	n/a	blue
112.737	1.0167	ITI	n/a	n/a	n/a	n/a	n/a	n/a	n/a	n/a
113.7537	0.5167	FIXCROSS	n/a	n/a	n/a	n/a	n/a	n/a	n/a	n/a
114.2704	0.5667	INK	35	Incongruent	zielony	green	niebieski	blue	hit	n/a
114.8068	n/a	RESPONSE	n/a	n/a	n/a	n/a	n/a	n/a	n/a	blue
114.837	1.0167	ITI	n/a	n/a	n/a	n/a	n/a	n/a	n/a	n/a
115.8537	0.5167	FIXCROSS	n/a	n/a	n/a	n/a	n/a	n/a	n/a	n/a
116.3704	0.55	INK	36	Neutral	xxxxx	xxxxx	czerwony	red	hit	n/a
116.9	n/a	RESPONSE	n/a	n/a	n/a	n/a	n/a	n/a	n/a	red
116.9204	1.0167	ITI	n/a	n/a	n/a	n/a	n/a	n/a	n/a	n/a
117.9371	0.5167	FIXCROSS	n/a	n/a	n/a	n/a	n/a	n/a	n/a	n/a
118.4537	0.6	INK	37	Neutral	xxxxxxx	xxxxxxx	niebieski	blue	hit	n/a
119.0252	n/a	RESPONSE	n/a	n/a	n/a	n/a	n/a	n/a	n/a	blue
119.0537	1.0167	ITI	n/a	n/a	n/a	n/a	n/a	n/a	n/a	n/a
120.0704	0.5167	FIXCROSS	n/a	n/a	n/a	n/a	n/a	n/a	n/a	n/a
120.5871	0.5167	INK	38	Neutral	xxxxxxx	xxxxxxx	niebieski	blue	hit	n/a
121.0704	n/a	RESPONSE	n/a	n/a	n/a	n/a	n/a	n/a	n/a	blue
121.1037	1.0167	ITI	n/a	n/a	n/a	n/a	n/a	n/a	n/a	n/a
122.1204	0.5167	FIXCROSS	n/a	n/a	n/a	n/a	n/a	n/a	n/a	n/a
122.6371	0.55	INK	39	Neutral	xxxxxxxxx	xxxxxxxxx	żółty	yellow	hit	n/a
123.1636	n/a	RESPONSE	n/a	n/a	n/a	n/a	n/a	n/a	n/a	yellow
123.1871	1.0167	ITI	n/a	n/a	n/a	n/a	n/a	n/a	n/a	n/a
124.2038	0.5167	FIXCROSS	n/a	n/a	n/a	n/a	n/a	n/a	n/a	n/a
124.7204	0.7333	INK	40	Neutral	xxxxxxx	xxxxxxx	czerwony	red	hit	n/a
125.4326	n/a	RESPONSE	n/a	n/a	n/a	n/a	n/a	n/a	n/a	red
125.4538	1.0167	ITI	n/a	n/a	n/a	n/a	n/a	n/a	n/a	n/a
126.4704	0.5167	FIXCROSS	n/a	n/a	n/a	n/a	n/a	n/a	n/a	n/a
126.9871	0.5167	INK	41	Neutral	xxxxxxxx	xxxxxxxx	niebieski	blue	hit	n/a
127.4779	n/a	RESPONSE	n/a	n/a	n/a	n/a	n/a	n/a	n/a	blue
127.5038	1.0167	ITI	n/a	n/a	n/a	n/a	n/a	n/a	n/a	n/a
128.5205	0.5167	FIXCROSS	n/a	n/a	n/a	n/a	n/a	n/a	n/a	n/a
129.0371	0.6333	INK	42	Incongruent	zielony	green	żółty	yellow	hit	n/a
129.6509	n/a	RESPONSE	n/a	n/a	n/a	n/a	n/a	n/a	n/a	yellow
129.6705	1.0167	ITI	n/a	n/a	n/a	n/a	n/a	n/a	n/a	n/a
130.6871	0.5167	FIXCROSS	n/a	n/a	n/a	n/a	n/a	n/a	n/a	n/a
131.2038	0.7	INK	43	Neutral	xxxxxxxx	xxxxxxxx	niebieski	blue	hit	n/a
131.872	n/a	RESPONSE	n/a	n/a	n/a	n/a	n/a	n/a	n/a	blue
131.9038	1.0167	ITI	n/a	n/a	n/a	n/a	n/a	n/a	n/a	n/a
132.9205	0.5167	FIXCROSS	n/a	n/a	n/a	n/a	n/a	n/a	n/a	n/a
133.4372	0.5	INK	44	Incongruent	zielony	green	niebieski	blue	hit	n/a
133.9173	n/a	RESPONSE	n/a	n/a	n/a	n/a	n/a	n/a	n/a	blue
133.9372	1.0167	ITI	n/a	n/a	n/a	n/a	n/a	n/a	n/a	n/a
134.9538	0.5167	FIXCROSS	n/a	n/a	n/a	n/a	n/a	n/a	n/a	n/a
135.4705	0.65	INK	45	Incongruent	niebieski	blue	żółty	yellow	hit	n/a
136.0905	n/a	RESPONSE	n/a	n/a	n/a	n/a	n/a	n/a	n/a	yellow
136.1205	1.0167	ITI	n/a	n/a	n/a	n/a	n/a	n/a	n/a	n/a
137.1372	0.5167	FIXCROSS	n/a	n/a	n/a	n/a	n/a	n/a	n/a	n/a
137.6538	0.65	INK	46	Incongruent	niebieski	blue	czerwony	red	hit	n/a
138.2795	n/a	RESPONSE	n/a	n/a	n/a	n/a	n/a	n/a	n/a	red
138.3039	1.0167	ITI	n/a	n/a	n/a	n/a	n/a	n/a	n/a	n/a
139.3205	0.5167	FIXCROSS	n/a	n/a	n/a	n/a	n/a	n/a	n/a	n/a
139.8372	0.5333	INK	47	Neutral	xxxxx	xxxxx	czerwony	red	hit	n/a
140.3408	n/a	RESPONSE	n/a	n/a	n/a	n/a	n/a	n/a	n/a	red
140.3705	1.0167	ITI	n/a	n/a	n/a	n/a	n/a	n/a	n/a	n/a
141.3872	0.5167	FIXCROSS	n/a	n/a	n/a	n/a	n/a	n/a	n/a	n/a
141.9039	0.5833	INK	48	Incongruent	żółty	yellow	niebieski	blue	hit	n/a
142.4659	n/a	RESPONSE	n/a	n/a	n/a	n/a	n/a	n/a	n/a	blue
142.4872	1.0167	ITI	n/a	n/a	n/a	n/a	n/a	n/a	n/a	n/a
143.5039	0.5167	FIXCROSS	n/a	n/a	n/a	n/a	n/a	n/a	n/a	n/a
144.0206	0.65	INK	49	Neutral	xxxxxxxxx	xxxxxxxxx	zielony	green	hit	n/a
144.639	n/a	RESPONSE	n/a	n/a	n/a	n/a	n/a	n/a	n/a	green
144.6706	1.0167	ITI	n/a	n/a	n/a	n/a	n/a	n/a	n/a	n/a
145.6872	0.5167	FIXCROSS	n/a	n/a	n/a	n/a	n/a	n/a	n/a	n/a
146.2039	0.6	INK	50	Neutral	xxxxxxxx	xxxxxxxx	niebieski	blue	hit	n/a
146.7802	n/a	RESPONSE	n/a	n/a	n/a	n/a	n/a	n/a	n/a	blue
146.8039	1.0167	ITI	n/a	n/a	n/a	n/a	n/a	n/a	n/a	n/a
147.8206	0.5167	FIXCROSS	n/a	n/a	n/a	n/a	n/a	n/a	n/a	n/a
148.3372	0.6667	INK	51	Neutral	xxxxxxxxx	xxxxxxxxx	żółty	yellow	hit	n/a
148.9852	n/a	RESPONSE	n/a	n/a	n/a	n/a	n/a	n/a	n/a	yellow
149.0039	1.0167	ITI	n/a	n/a	n/a	n/a	n/a	n/a	n/a	n/a
150.0206	0.5167	FIXCROSS	n/a	n/a	n/a	n/a	n/a	n/a	n/a	n/a
150.5373	0.5667	INK	52	Neutral	xxxxxxxx	xxxxxxxx	żółty	yellow	hit	n/a
151.0786	n/a	RESPONSE	n/a	n/a	n/a	n/a	n/a	n/a	n/a	yellow
151.1039	1.0167	ITI	n/a	n/a	n/a	n/a	n/a	n/a	n/a	n/a
152.1206	0.5167	FIXCROSS	n/a	n/a	n/a	n/a	n/a	n/a	n/a	n/a
152.6373	0.6333	INK	53	Incongruent	czerwony	red	żółty	yellow	hit	n/a
153.2515	n/a	RESPONSE	n/a	n/a	n/a	n/a	n/a	n/a	n/a	yellow
153.2706	1.0167	ITI	n/a	n/a	n/a	n/a	n/a	n/a	n/a	n/a
154.2873	0.5167	FIXCROSS	n/a	n/a	n/a	n/a	n/a	n/a	n/a	n/a
154.804	0.75	INK	54	Neutral	xxxxx	xxxxx	czerwony	red	hit	n/a
155.5365	n/a	RESPONSE	n/a	n/a	n/a	n/a	n/a	n/a	n/a	red
155.554	1.0167	ITI	n/a	n/a	n/a	n/a	n/a	n/a	n/a	n/a
156.5706	0.5167	FIXCROSS	n/a	n/a	n/a	n/a	n/a	n/a	n/a	n/a
157.0873	0.5167	INK	55	Neutral	xxxxxxxx	xxxxxxxx	żółty	yellow	hit	n/a
157.5819	n/a	RESPONSE	n/a	n/a	n/a	n/a	n/a	n/a	n/a	yellow
157.604	1.0167	ITI	n/a	n/a	n/a	n/a	n/a	n/a	n/a	n/a
158.6206	0.5167	FIXCROSS	n/a	n/a	n/a	n/a	n/a	n/a	n/a	n/a
159.1373	0.6667	INK	56	Neutral	xxxxxxx	xxxxxxx	czerwony	red	hit	n/a
159.771	n/a	RESPONSE	n/a	n/a	n/a	n/a	n/a	n/a	n/a	red
159.804	1.0167	ITI	n/a	n/a	n/a	n/a	n/a	n/a	n/a	n/a
160.8207	0.5167	FIXCROSS	n/a	n/a	n/a	n/a	n/a	n/a	n/a	n/a
161.3373	0.6333	INK	57	Incongruent	czerwony	red	niebieski	blue	hit	n/a
161.9441	n/a	RESPONSE	n/a	n/a	n/a	n/a	n/a	n/a	n/a	blue
161.9707	1.0167	ITI	n/a	n/a	n/a	n/a	n/a	n/a	n/a	n/a
162.9874	0.5167	FIXCROSS	n/a	n/a	n/a	n/a	n/a	n/a	n/a	n/a
163.504	0.6	INK	58	Incongruent	czerwony	red	żółty	yellow	hit	n/a
164.0851	n/a	RESPONSE	n/a	n/a	n/a	n/a	n/a	n/a	n/a	yellow
164.104	1.0167	ITI	n/a	n/a	n/a	n/a	n/a	n/a	n/a	n/a
165.1207	0.5167	FIXCROSS	n/a	n/a	n/a	n/a	n/a	n/a	n/a	n/a
165.6374	0.7333	INK	59	Neutral	xxxxx	xxxxx	zielony	green	hit	n/a
166.3383	n/a	RESPONSE	n/a	n/a	n/a	n/a	n/a	n/a	n/a	green
166.3707	1.0167	ITI	n/a	n/a	n/a	n/a	n/a	n/a	n/a	n/a
167.3874	0.5167	FIXCROSS	n/a	n/a	n/a	n/a	n/a	n/a	n/a	n/a
167.9041	0.7	INK	60	Neutral	xxxxx	xxxxx	niebieski	blue	hit	n/a
168.5752	n/a	RESPONSE	n/a	n/a	n/a	n/a	n/a	n/a	n/a	blue
168.6041	1.0167	ITI	n/a	n/a	n/a	n/a	n/a	n/a	n/a	n/a
169.6207	0.5167	FIXCROSS	n/a	n/a	n/a	n/a	n/a	n/a	n/a	n/a
170.1374	0.6667	INK	61	Neutral	xxxxxxxxx	xxxxxxxxx	czerwony	red	hit	n/a
170.7803	n/a	RESPONSE	n/a	n/a	n/a	n/a	n/a	n/a	n/a	red
170.8041	1.0167	ITI	n/a	n/a	n/a	n/a	n/a	n/a	n/a	n/a
171.8207	0.5167	FIXCROSS	n/a	n/a	n/a	n/a	n/a	n/a	n/a	n/a
172.3374	0.8	INK	62	Neutral	xxxxxxxxx	xxxxxxxxx	zielony	green	hit	n/a
173.1132	n/a	RESPONSE	n/a	n/a	n/a	n/a	n/a	n/a	n/a	green
173.1374	1.0167	ITI	n/a	n/a	n/a	n/a	n/a	n/a	n/a	n/a
174.1541	0.5167	FIXCROSS	n/a	n/a	n/a	n/a	n/a	n/a	n/a	n/a
174.6708	0.5	INK	63	Neutral	xxxxxxxx	xxxxxxxx	zielony	green	hit	n/a
175.1425	n/a	RESPONSE	n/a	n/a	n/a	n/a	n/a	n/a	n/a	green
175.1708	1.0167	ITI	n/a	n/a	n/a	n/a	n/a	n/a	n/a	n/a
176.1874	0.5167	FIXCROSS	n/a	n/a	n/a	n/a	n/a	n/a	n/a	n/a
176.7041	0.6167	INK	64	Neutral	xxxxxxxxx	xxxxxxxxx	czerwony	red	hit	n/a
177.2996	n/a	RESPONSE	n/a	n/a	n/a	n/a	n/a	n/a	n/a	red
177.3208	1.0167	ITI	n/a	n/a	n/a	n/a	n/a	n/a	n/a	n/a
178.3374	0.5167	FIXCROSS	n/a	n/a	n/a	n/a	n/a	n/a	n/a	n/a
178.8541	0.7167	INK	65	Incongruent	czerwony	red	zielony	green	hit	n/a
179.5526	n/a	RESPONSE	n/a	n/a	n/a	n/a	n/a	n/a	n/a	green
179.5708	1.0167	ITI	n/a	n/a	n/a	n/a	n/a	n/a	n/a	n/a
180.5875	0.5167	FIXCROSS	n/a	n/a	n/a	n/a	n/a	n/a	n/a	n/a
181.1041	0.5167	INK	66	Neutral	xxxxx	xxxxx	zielony	green	hit	n/a
181.598	n/a	RESPONSE	n/a	n/a	n/a	n/a	n/a	n/a	n/a	green
181.6208	1.0167	ITI	n/a	n/a	n/a	n/a	n/a	n/a	n/a	n/a
182.6375	0.5167	FIXCROSS	n/a	n/a	n/a	n/a	n/a	n/a	n/a	n/a
183.1541	0.65	INK	67	Neutral	xxxxxxx	xxxxxxx	żółty	yellow	hit	n/a
183.7869	n/a	RESPONSE	n/a	n/a	n/a	n/a	n/a	n/a	n/a	yellow
183.8041	1.0167	ITI	n/a	n/a	n/a	n/a	n/a	n/a	n/a	n/a
184.8208	0.5167	FIXCROSS	n/a	n/a	n/a	n/a	n/a	n/a	n/a	n/a
185.3375	0.75	INK	68	Incongruent	zielony	green	niebieski	blue	hit	n/a
186.0559	n/a	RESPONSE	n/a	n/a	n/a	n/a	n/a	n/a	n/a	blue
186.0875	1.0167	ITI	n/a	n/a	n/a	n/a	n/a	n/a	n/a	n/a
187.1042	0.5167	FIXCROSS	n/a	n/a	n/a	n/a	n/a	n/a	n/a	n/a
187.6208	0.65	INK	69	Incongruent	niebieski	blue	zielony	green	hit	n/a
188.2451	n/a	RESPONSE	n/a	n/a	n/a	n/a	n/a	n/a	n/a	green
188.2708	1.0167	ITI	n/a	n/a	n/a	n/a	n/a	n/a	n/a	n/a
189.2875	0.5167	FIXCROSS	n/a	n/a	n/a	n/a	n/a	n/a	n/a	n/a
189.8042	0.65	INK	70	Incongruent	żółty	yellow	czerwony	red	hit	n/a
190.4342	n/a	RESPONSE	n/a	n/a	n/a	n/a	n/a	n/a	n/a	red
190.4542	1.0167	ITI	n/a	n/a	n/a	n/a	n/a	n/a	n/a	n/a
191.4709	0.5167	FIXCROSS	n/a	n/a	n/a	n/a	n/a	n/a	n/a	n/a
191.9875	0.6833	INK	71	Neutral	xxxxxxxx	xxxxxxxx	zielony	green	hit	n/a
192.6392	n/a	RESPONSE	n/a	n/a	n/a	n/a	n/a	n/a	n/a	green
192.6709	1.0167	ITI	n/a	n/a	n/a	n/a	n/a	n/a	n/a	n/a
193.6875	0.5167	FIXCROSS	n/a	n/a	n/a	n/a	n/a	n/a	n/a	n/a
194.2042	0.5667	INK	72	Neutral	xxxxxxx	xxxxxxx	żółty	yellow	hit	n/a
194.7484	n/a	RESPONSE	n/a	n/a	n/a	n/a	n/a	n/a	n/a	yellow
194.7709	1.0833	ITI	n/a	n/a	n/a	n/a	n/a	n/a	n/a	n/a
222.6313	n/a	RESPONSE	n/a	n/a	n/a	n/a	n/a	n/a	n/a	n/a
222.6877	1.0167	ITI	n/a	n/a	n/a	n/a	n/a	n/a	n/a	n/a
223.7044	0.5167	FIXCROSS	n/a	n/a	n/a	n/a	n/a	n/a	n/a	n/a
224.2211	1.2833	T_COLOR_NAME	1	Incongruent	niebieski	blue	żółty	yellow	hit	n/a
225.4755	n/a	RESPONSE	n/a	n/a	n/a	n/a	n/a	n/a	n/a	blue
225.5044	0.5167	FEEDBACK	n/a	n/a	n/a	n/a	n/a	n/a	n/a	n/a
226.0211	1.0167	ITI	n/a	n/a	n/a	n/a	n/a	n/a	n/a	n/a
227.0378	0.5167	FIXCROSS	n/a	n/a	n/a	n/a	n/a	n/a	n/a	n/a
227.5544	0.85	T_COLOR_NAME	2	Incongruent	żółty	yellow	zielony	green	hit	n/a
228.3676	n/a	RESPONSE	n/a	n/a	n/a	n/a	n/a	n/a	n/a	yellow
228.4044	0.5167	FEEDBACK	n/a	n/a	n/a	n/a	n/a	n/a	n/a	n/a
228.9211	1.0167	ITI	n/a	n/a	n/a	n/a	n/a	n/a	n/a	n/a
229.9378	0.5167	FIXCROSS	n/a	n/a	n/a	n/a	n/a	n/a	n/a	n/a
230.4545	0.7833	T_COLOR_NAME	3	Neutral	czerwony	red	Neutral	Neutral	hit	n/a
231.2119	n/a	RESPONSE	n/a	n/a	n/a	n/a	n/a	n/a	n/a	red
231.2378	0.5167	FEEDBACK	n/a	n/a	n/a	n/a	n/a	n/a	n/a	n/a
231.7545	1.0167	ITI	n/a	n/a	n/a	n/a	n/a	n/a	n/a	n/a
232.7711	0.5167	FIXCROSS	n/a	n/a	n/a	n/a	n/a	n/a	n/a	n/a
233.2878	0.8667	T_COLOR_NAME	4	Neutral	czerwony	red	Neutral	Neutral	hit	n/a
234.1199	n/a	RESPONSE	n/a	n/a	n/a	n/a	n/a	n/a	n/a	red
234.1545	0.5167	FEEDBACK	n/a	n/a	n/a	n/a	n/a	n/a	n/a	n/a
234.6711	1.0167	ITI	n/a	n/a	n/a	n/a	n/a	n/a	n/a	n/a
235.6878	0.5167	FIXCROSS	n/a	n/a	n/a	n/a	n/a	n/a	n/a	n/a
236.2045	0.7167	T_COLOR_NAME	5	Neutral	zielony	green	Neutral	Neutral	hit	n/a
236.9003	n/a	RESPONSE	n/a	n/a	n/a	n/a	n/a	n/a	n/a	green
236.9211	0.5167	FEEDBACK	n/a	n/a	n/a	n/a	n/a	n/a	n/a	n/a
237.4378	1.0167	ITI	n/a	n/a	n/a	n/a	n/a	n/a	n/a	n/a
238.4545	0.5167	FIXCROSS	n/a	n/a	n/a	n/a	n/a	n/a	n/a	n/a
238.9712	1.4833	T_COLOR_NAME	6	Incongruent	czerwony	red	niebieski	blue	hit	n/a
240.4316	n/a	RESPONSE	n/a	n/a	n/a	n/a	n/a	n/a	n/a	red
240.4545	0.5167	FEEDBACK	n/a	n/a	n/a	n/a	n/a	n/a	n/a	n/a
240.9712	1.0167	ITI	n/a	n/a	n/a	n/a	n/a	n/a	n/a	n/a
241.9879	0.5167	FIXCROSS	n/a	n/a	n/a	n/a	n/a	n/a	n/a	n/a
242.5045	0.85	T_COLOR_NAME	7	Neutral	żółty	yellow	Neutral	Neutral	hit	n/a
243.3238	n/a	RESPONSE	n/a	n/a	n/a	n/a	n/a	n/a	n/a	yellow
243.3545	0.5167	FEEDBACK	n/a	n/a	n/a	n/a	n/a	n/a	n/a	n/a
243.8712	1.0167	ITI	n/a	n/a	n/a	n/a	n/a	n/a	n/a	n/a
244.8879	0.5167	FIXCROSS	n/a	n/a	n/a	n/a	n/a	n/a	n/a	n/a
245.4045	1.0333	T_COLOR_NAME	8	Incongruent	zielony	green	żółty	yellow	hit	n/a
246.4077	n/a	RESPONSE	n/a	n/a	n/a	n/a	n/a	n/a	n/a	green
246.4379	0.5167	FEEDBACK	n/a	n/a	n/a	n/a	n/a	n/a	n/a	n/a
246.9545	1.0167	ITI	n/a	n/a	n/a	n/a	n/a	n/a	n/a	n/a
247.9712	0.5167	FIXCROSS	n/a	n/a	n/a	n/a	n/a	n/a	n/a	n/a
248.4879	0.65	T_COLOR_NAME	9	Neutral	zielony	green	Neutral	Neutral	hit	n/a
249.1081	n/a	RESPONSE	n/a	n/a	n/a	n/a	n/a	n/a	n/a	green
249.1379	0.5167	FEEDBACK	n/a	n/a	n/a	n/a	n/a	n/a	n/a	n/a
249.6546	1.0167	ITI	n/a	n/a	n/a	n/a	n/a	n/a	n/a	n/a
250.6712	0.5167	FIXCROSS	n/a	n/a	n/a	n/a	n/a	n/a	n/a	n/a
251.1879	0.85	T_COLOR_NAME	10	Neutral	czerwony	red	Neutral	Neutral	hit	n/a
252.0162	n/a	RESPONSE	n/a	n/a	n/a	n/a	n/a	n/a	n/a	red
252.0379	0.5167	FEEDBACK	n/a	n/a	n/a	n/a	n/a	n/a	n/a	n/a
252.5546	1.0167	ITI	n/a	n/a	n/a	n/a	n/a	n/a	n/a	n/a
253.5713	0.5167	FIXCROSS	n/a	n/a	n/a	n/a	n/a	n/a	n/a	n/a
254.0879	0.7833	T_COLOR_NAME	11	Incongruent	zielony	green	czerwony	red	hit	n/a
254.8445	n/a	RESPONSE	n/a	n/a	n/a	n/a	n/a	n/a	n/a	green
254.8713	0.5167	FEEDBACK	n/a	n/a	n/a	n/a	n/a	n/a	n/a	n/a
255.3879	1.0167	ITI	n/a	n/a	n/a	n/a	n/a	n/a	n/a	n/a
256.4046	0.5167	FIXCROSS	n/a	n/a	n/a	n/a	n/a	n/a	n/a	n/a
256.9213	0.6667	T_COLOR_NAME	12	Incongruent	żółty	yellow	niebieski	blue	hit	n/a
257.5609	n/a	RESPONSE	n/a	n/a	n/a	n/a	n/a	n/a	n/a	yellow
257.5879	0.5167	FEEDBACK	n/a	n/a	n/a	n/a	n/a	n/a	n/a	n/a
258.1046	1.0333	ITI	n/a	n/a	n/a	n/a	n/a	n/a	n/a	n/a
263.489	n/a	RESPONSE	n/a	n/a	n/a	n/a	n/a	n/a	n/a	n/a
263.5547	1.0167	ITI	n/a	n/a	n/a	n/a	n/a	n/a	n/a	n/a
264.5713	0.5167	FIXCROSS	n/a	n/a	n/a	n/a	n/a	n/a	n/a	n/a
265.088	0.8833	COLOR_NAME	1	Incongruent	czerwony	red	zielony	green	hit	n/a
265.9498	n/a	RESPONSE	n/a	n/a	n/a	n/a	n/a	n/a	n/a	red
265.9713	1.0167	ITI	n/a	n/a	n/a	n/a	n/a	n/a	n/a	n/a
266.988	0.5167	FIXCROSS	n/a	n/a	n/a	n/a	n/a	n/a	n/a	n/a
267.5047	1.2	COLOR_NAME	2	Incongruent	zielony	green	żółty	yellow	hit	n/a
268.6822	n/a	RESPONSE	n/a	n/a	n/a	n/a	n/a	n/a	n/a	green
268.7047	1.0167	ITI	n/a	n/a	n/a	n/a	n/a	n/a	n/a	n/a
269.7214	0.5167	FIXCROSS	n/a	n/a	n/a	n/a	n/a	n/a	n/a	n/a
270.238	0.8167	COLOR_NAME	3	Neutral	zielony	green	Neutral	Neutral	hit	n/a
271.0311	n/a	RESPONSE	n/a	n/a	n/a	n/a	n/a	n/a	n/a	green
271.0547	1.0167	ITI	n/a	n/a	n/a	n/a	n/a	n/a	n/a	n/a
272.0714	0.5167	FIXCROSS	n/a	n/a	n/a	n/a	n/a	n/a	n/a	n/a
272.5881	0.8167	COLOR_NAME	4	Neutral	żółty	yellow	Neutral	Neutral	hit	n/a
273.3799	n/a	RESPONSE	n/a	n/a	n/a	n/a	n/a	n/a	n/a	yellow
273.4047	1.0167	ITI	n/a	n/a	n/a	n/a	n/a	n/a	n/a	n/a
274.4214	0.5167	FIXCROSS	n/a	n/a	n/a	n/a	n/a	n/a	n/a	n/a
274.9381	0.95	COLOR_NAME	5	Neutral	zielony	green	Neutral	Neutral	hit	n/a
275.8566	n/a	RESPONSE	n/a	n/a	n/a	n/a	n/a	n/a	n/a	green
275.8881	1.0167	ITI	n/a	n/a	n/a	n/a	n/a	n/a	n/a	n/a
276.9047	0.5167	FIXCROSS	n/a	n/a	n/a	n/a	n/a	n/a	n/a	n/a
277.4214	0.5167	COLOR_NAME	6	Neutral	zielony	green	Neutral	Neutral	hit	n/a
277.9179	n/a	RESPONSE	n/a	n/a	n/a	n/a	n/a	n/a	n/a	green
277.9381	1.0167	ITI	n/a	n/a	n/a	n/a	n/a	n/a	n/a	n/a
278.9548	0.5167	FIXCROSS	n/a	n/a	n/a	n/a	n/a	n/a	n/a	n/a
279.4714	0.7334	COLOR_NAME	7	Incongruent	żółty	yellow	niebieski	blue	hit	n/a
280.1709	n/a	RESPONSE	n/a	n/a	n/a	n/a	n/a	n/a	n/a	yellow
280.2048	1.0167	ITI	n/a	n/a	n/a	n/a	n/a	n/a	n/a	n/a
281.2214	0.5167	FIXCROSS	n/a	n/a	n/a	n/a	n/a	n/a	n/a	n/a
281.7381	0.8333	COLOR_NAME	8	Incongruent	żółty	yellow	zielony	green	hit	n/a
282.5517	n/a	RESPONSE	n/a	n/a	n/a	n/a	n/a	n/a	n/a	yellow
282.5714	1.0167	ITI	n/a	n/a	n/a	n/a	n/a	n/a	n/a	n/a
283.5881	0.5167	FIXCROSS	n/a	n/a	n/a	n/a	n/a	n/a	n/a	n/a
284.1048	0.8	COLOR_NAME	9	Incongruent	niebieski	blue	czerwony	red	hit	n/a
284.8846	n/a	RESPONSE	n/a	n/a	n/a	n/a	n/a	n/a	n/a	blue
284.9048	1.0167	ITI	n/a	n/a	n/a	n/a	n/a	n/a	n/a	n/a
285.9215	0.5167	FIXCROSS	n/a	n/a	n/a	n/a	n/a	n/a	n/a	n/a
286.4381	0.7167	COLOR_NAME	10	Neutral	czerwony	red	Neutral	Neutral	hit	n/a
287.1216	n/a	RESPONSE	n/a	n/a	n/a	n/a	n/a	n/a	n/a	red
287.1548	1.0167	ITI	n/a	n/a	n/a	n/a	n/a	n/a	n/a	n/a
288.1715	0.5167	FIXCROSS	n/a	n/a	n/a	n/a	n/a	n/a	n/a	n/a
288.6882	0.4667	COLOR_NAME	11	Neutral	czerwony	red	Neutral	Neutral	hit	n/a
289.1349	n/a	RESPONSE	n/a	n/a	n/a	n/a	n/a	n/a	n/a	red
289.1548	1.0167	ITI	n/a	n/a	n/a	n/a	n/a	n/a	n/a	n/a
290.1715	0.5167	FIXCROSS	n/a	n/a	n/a	n/a	n/a	n/a	n/a	n/a
290.6882	0.55	COLOR_NAME	12	Incongruent	czerwony	red	żółty	yellow	hit	n/a
291.2121	n/a	RESPONSE	n/a	n/a	n/a	n/a	n/a	n/a	n/a	red
291.2382	1.0167	ITI	n/a	n/a	n/a	n/a	n/a	n/a	n/a	n/a
292.2548	0.5167	FIXCROSS	n/a	n/a	n/a	n/a	n/a	n/a	n/a	n/a
292.7715	0.7667	COLOR_NAME	13	Incongruent	żółty	yellow	czerwony	red	hit	n/a
293.5131	n/a	RESPONSE	n/a	n/a	n/a	n/a	n/a	n/a	n/a	yellow
293.5382	1.0167	ITI	n/a	n/a	n/a	n/a	n/a	n/a	n/a	n/a
294.5549	0.5167	FIXCROSS	n/a	n/a	n/a	n/a	n/a	n/a	n/a	n/a
295.0715	0.55	COLOR_NAME	14	Neutral	żółty	yellow	Neutral	Neutral	hit	n/a
295.5903	n/a	RESPONSE	n/a	n/a	n/a	n/a	n/a	n/a	n/a	yellow
295.6215	1.0167	ITI	n/a	n/a	n/a	n/a	n/a	n/a	n/a	n/a
296.6382	0.5167	FIXCROSS	n/a	n/a	n/a	n/a	n/a	n/a	n/a	n/a
297.1549	0.8	COLOR_NAME	15	Incongruent	zielony	green	niebieski	blue	hit	n/a
297.9233	n/a	RESPONSE	n/a	n/a	n/a	n/a	n/a	n/a	n/a	green
297.9549	1.0167	ITI	n/a	n/a	n/a	n/a	n/a	n/a	n/a	n/a
298.9716	0.5167	FIXCROSS	n/a	n/a	n/a	n/a	n/a	n/a	n/a	n/a
299.4882	0.6333	COLOR_NAME	16	Neutral	żółty	yellow	Neutral	Neutral	hit	n/a
300.0964	n/a	RESPONSE	n/a	n/a	n/a	n/a	n/a	n/a	n/a	yellow
300.1216	1.0167	ITI	n/a	n/a	n/a	n/a	n/a	n/a	n/a	n/a
301.1382	0.5167	FIXCROSS	n/a	n/a	n/a	n/a	n/a	n/a	n/a	n/a
301.6549	0.8	COLOR_NAME	17	Neutral	niebieski	blue	Neutral	Neutral	hit	n/a
302.4292	n/a	RESPONSE	n/a	n/a	n/a	n/a	n/a	n/a	n/a	blue
302.4549	1.0167	ITI	n/a	n/a	n/a	n/a	n/a	n/a	n/a	n/a
303.4716	0.5167	FIXCROSS	n/a	n/a	n/a	n/a	n/a	n/a	n/a	n/a
303.9882	0.6	COLOR_NAME	18	Neutral	niebieski	blue	Neutral	Neutral	hit	n/a
304.5705	n/a	RESPONSE	n/a	n/a	n/a	n/a	n/a	n/a	n/a	blue
304.5882	1.0167	ITI	n/a	n/a	n/a	n/a	n/a	n/a	n/a	n/a
305.6049	0.5167	FIXCROSS	n/a	n/a	n/a	n/a	n/a	n/a	n/a	n/a
306.1216	0.6167	COLOR_NAME	19	Incongruent	niebieski	blue	żółty	yellow	hit	n/a
306.7116	n/a	RESPONSE	n/a	n/a	n/a	n/a	n/a	n/a	n/a	blue
306.7383	1.0167	ITI	n/a	n/a	n/a	n/a	n/a	n/a	n/a	n/a
307.7549	0.5167	FIXCROSS	n/a	n/a	n/a	n/a	n/a	n/a	n/a	n/a
308.2716	0.75	COLOR_NAME	20	Incongruent	zielony	green	niebieski	blue	hit	n/a
308.9967	n/a	RESPONSE	n/a	n/a	n/a	n/a	n/a	n/a	n/a	green
309.0216	1.0167	ITI	n/a	n/a	n/a	n/a	n/a	n/a	n/a	n/a
310.0383	0.5167	FIXCROSS	n/a	n/a	n/a	n/a	n/a	n/a	n/a	n/a
310.555	0.6167	COLOR_NAME	21	Incongruent	żółty	yellow	zielony	green	hit	n/a
311.1378	n/a	RESPONSE	n/a	n/a	n/a	n/a	n/a	n/a	n/a	yellow
311.1716	1.0167	ITI	n/a	n/a	n/a	n/a	n/a	n/a	n/a	n/a
312.1883	0.5167	FIXCROSS	n/a	n/a	n/a	n/a	n/a	n/a	n/a	n/a
312.705	0.6333	COLOR_NAME	22	Neutral	zielony	green	Neutral	Neutral	hit	n/a
313.3109	n/a	RESPONSE	n/a	n/a	n/a	n/a	n/a	n/a	n/a	green
313.3383	1.0167	ITI	n/a	n/a	n/a	n/a	n/a	n/a	n/a	n/a
314.355	0.5167	FIXCROSS	n/a	n/a	n/a	n/a	n/a	n/a	n/a	n/a
314.8717	0.7667	COLOR_NAME	23	Neutral	niebieski	blue	Neutral	Neutral	hit	n/a
315.6119	n/a	RESPONSE	n/a	n/a	n/a	n/a	n/a	n/a	n/a	blue
315.6383	1.0167	ITI	n/a	n/a	n/a	n/a	n/a	n/a	n/a	n/a
316.655	0.5167	FIXCROSS	n/a	n/a	n/a	n/a	n/a	n/a	n/a	n/a
317.1717	0.5833	COLOR_NAME	24	Neutral	czerwony	red	Neutral	Neutral	hit	n/a
317.737	n/a	RESPONSE	n/a	n/a	n/a	n/a	n/a	n/a	n/a	red
317.755	1.0167	ITI	n/a	n/a	n/a	n/a	n/a	n/a	n/a	n/a
318.7717	0.5167	FIXCROSS	n/a	n/a	n/a	n/a	n/a	n/a	n/a	n/a
319.2884	0.8167	COLOR_NAME	25	Neutral	zielony	green	Neutral	Neutral	hit	n/a
320.0859	n/a	RESPONSE	n/a	n/a	n/a	n/a	n/a	n/a	n/a	green
320.105	1.0167	ITI	n/a	n/a	n/a	n/a	n/a	n/a	n/a	n/a
321.1217	0.5167	FIXCROSS	n/a	n/a	n/a	n/a	n/a	n/a	n/a	n/a
321.6384	0.7167	COLOR_NAME	26	Incongruent	zielony	green	żółty	yellow	hit	n/a
322.3229	n/a	RESPONSE	n/a	n/a	n/a	n/a	n/a	n/a	n/a	green
322.355	1.0167	ITI	n/a	n/a	n/a	n/a	n/a	n/a	n/a	n/a
323.3717	0.5167	FIXCROSS	n/a	n/a	n/a	n/a	n/a	n/a	n/a	n/a
323.8884	0.5667	COLOR_NAME	27	Neutral	czerwony	red	Neutral	Neutral	hit	n/a
324.4321	n/a	RESPONSE	n/a	n/a	n/a	n/a	n/a	n/a	n/a	red
324.4551	1.0167	ITI	n/a	n/a	n/a	n/a	n/a	n/a	n/a	n/a
325.4717	0.5167	FIXCROSS	n/a	n/a	n/a	n/a	n/a	n/a	n/a	n/a
325.9884	0.6333	COLOR_NAME	28	Neutral	żółty	yellow	Neutral	Neutral	hit	n/a
326.5892	n/a	RESPONSE	n/a	n/a	n/a	n/a	n/a	n/a	n/a	yellow
326.6217	1.0167	ITI	n/a	n/a	n/a	n/a	n/a	n/a	n/a	n/a
327.6384	0.5167	FIXCROSS	n/a	n/a	n/a	n/a	n/a	n/a	n/a	n/a
328.1551	0.8333	COLOR_NAME	29	Incongruent	zielony	green	niebieski	blue	hit	n/a
328.9701	n/a	RESPONSE	n/a	n/a	n/a	n/a	n/a	n/a	n/a	green
328.9884	1.0167	ITI	n/a	n/a	n/a	n/a	n/a	n/a	n/a	n/a
330.0051	0.5167	FIXCROSS	n/a	n/a	n/a	n/a	n/a	n/a	n/a	n/a
330.5218	0.7167	COLOR_NAME	30	Incongruent	żółty	yellow	niebieski	blue	hit	n/a
331.2072	n/a	RESPONSE	n/a	n/a	n/a	n/a	n/a	n/a	n/a	yellow
331.2384	1.0167	ITI	n/a	n/a	n/a	n/a	n/a	n/a	n/a	n/a
332.2551	0.5167	FIXCROSS	n/a	n/a	n/a	n/a	n/a	n/a	n/a	n/a
332.7718	1.3833	COLOR_NAME	31	Incongruent	niebieski	blue	zielony	green	hit	n/a
334.1313	n/a	RESPONSE	n/a	n/a	n/a	n/a	n/a	n/a	n/a	blue
334.1551	1.0167	ITI	n/a	n/a	n/a	n/a	n/a	n/a	n/a	n/a
335.1718	0.5167	FIXCROSS	n/a	n/a	n/a	n/a	n/a	n/a	n/a	n/a
335.6884	0.65	COLOR_NAME	32	Neutral	żółty	yellow	Neutral	Neutral	hit	n/a
336.3203	n/a	RESPONSE	n/a	n/a	n/a	n/a	n/a	n/a	n/a	yellow
336.3385	1.0167	ITI	n/a	n/a	n/a	n/a	n/a	n/a	n/a	n/a
337.3551	0.5167	FIXCROSS	n/a	n/a	n/a	n/a	n/a	n/a	n/a	n/a
337.8718	0.7167	COLOR_NAME	33	Neutral	zielony	green	Neutral	Neutral	hit	n/a
338.5573	n/a	RESPONSE	n/a	n/a	n/a	n/a	n/a	n/a	n/a	green
338.5885	1.0167	ITI	n/a	n/a	n/a	n/a	n/a	n/a	n/a	n/a
339.6051	0.5167	FIXCROSS	n/a	n/a	n/a	n/a	n/a	n/a	n/a	n/a
340.1218	0.6333	COLOR_NAME	34	Neutral	niebieski	blue	Neutral	Neutral	hit	n/a
340.7304	n/a	RESPONSE	n/a	n/a	n/a	n/a	n/a	n/a	n/a	blue
340.7551	1.0167	ITI	n/a	n/a	n/a	n/a	n/a	n/a	n/a	n/a
341.7718	0.5167	FIXCROSS	n/a	n/a	n/a	n/a	n/a	n/a	n/a	n/a
342.2885	0.8333	COLOR_NAME	35	Incongruent	niebieski	blue	żółty	yellow	incorrect	n/a
343.0953	n/a	RESPONSE	n/a	n/a	n/a	n/a	n/a	n/a	n/a	yellow
343.1218	1.0167	ITI	n/a	n/a	n/a	n/a	n/a	n/a	n/a	n/a
344.1385	0.5167	FIXCROSS	n/a	n/a	n/a	n/a	n/a	n/a	n/a	n/a
344.6552	0.85	COLOR_NAME	36	Incongruent	czerwony	red	żółty	yellow	hit	n/a
345.4762	n/a	RESPONSE	n/a	n/a	n/a	n/a	n/a	n/a	n/a	red
345.5052	1.0167	ITI	n/a	n/a	n/a	n/a	n/a	n/a	n/a	n/a
346.5219	0.5167	FIXCROSS	n/a	n/a	n/a	n/a	n/a	n/a	n/a	n/a
347.0385	0.85	COLOR_NAME	37	Incongruent	niebieski	blue	zielony	green	incorrect	n/a
347.8571	n/a	RESPONSE	n/a	n/a	n/a	n/a	n/a	n/a	n/a	green
347.8885	1.0167	ITI	n/a	n/a	n/a	n/a	n/a	n/a	n/a	n/a
348.9052	0.5167	FIXCROSS	n/a	n/a	n/a	n/a	n/a	n/a	n/a	n/a
349.4219	0.6667	COLOR_NAME	38	Incongruent	czerwony	red	żółty	yellow	hit	n/a
350.0622	n/a	RESPONSE	n/a	n/a	n/a	n/a	n/a	n/a	n/a	red
350.0885	1.0167	ITI	n/a	n/a	n/a	n/a	n/a	n/a	n/a	n/a
351.1052	0.5167	FIXCROSS	n/a	n/a	n/a	n/a	n/a	n/a	n/a	n/a
351.6219	0.7667	COLOR_NAME	39	Neutral	niebieski	blue	Neutral	Neutral	hit	n/a
352.3631	n/a	RESPONSE	n/a	n/a	n/a	n/a	n/a	n/a	n/a	blue
352.3886	1.0167	ITI	n/a	n/a	n/a	n/a	n/a	n/a	n/a	n/a
353.4052	0.5167	FIXCROSS	n/a	n/a	n/a	n/a	n/a	n/a	n/a	n/a
353.9219	0.7333	COLOR_NAME	40	Neutral	czerwony	red	Neutral	Neutral	hit	n/a
354.6321	n/a	RESPONSE	n/a	n/a	n/a	n/a	n/a	n/a	n/a	red
354.6552	1.0167	ITI	n/a	n/a	n/a	n/a	n/a	n/a	n/a	n/a
355.6719	0.5167	FIXCROSS	n/a	n/a	n/a	n/a	n/a	n/a	n/a	n/a
356.1886	0.5667	COLOR_NAME	41	Neutral	czerwony	red	Neutral	Neutral	hit	n/a
356.7412	n/a	RESPONSE	n/a	n/a	n/a	n/a	n/a	n/a	n/a	red
356.7553	1.0167	ITI	n/a	n/a	n/a	n/a	n/a	n/a	n/a	n/a
357.7719	0.5167	FIXCROSS	n/a	n/a	n/a	n/a	n/a	n/a	n/a	n/a
358.2886	0.8333	COLOR_NAME	42	Neutral	niebieski	blue	Neutral	Neutral	hit	n/a
359.0902	n/a	RESPONSE	n/a	n/a	n/a	n/a	n/a	n/a	n/a	blue
359.1219	1.0167	ITI	n/a	n/a	n/a	n/a	n/a	n/a	n/a	n/a
360.1386	0.5167	FIXCROSS	n/a	n/a	n/a	n/a	n/a	n/a	n/a	n/a
360.6553	0.7333	COLOR_NAME	43	Neutral	czerwony	red	Neutral	Neutral	hit	n/a
361.3592	n/a	RESPONSE	n/a	n/a	n/a	n/a	n/a	n/a	n/a	red
361.3886	1.0167	ITI	n/a	n/a	n/a	n/a	n/a	n/a	n/a	n/a
362.4053	0.5167	FIXCROSS	n/a	n/a	n/a	n/a	n/a	n/a	n/a	n/a
362.922	0.7167	COLOR_NAME	44	Neutral	niebieski	blue	Neutral	Neutral	hit	n/a
363.6122	n/a	RESPONSE	n/a	n/a	n/a	n/a	n/a	n/a	n/a	blue
363.6386	1.0167	ITI	n/a	n/a	n/a	n/a	n/a	n/a	n/a	n/a
364.6553	0.5167	FIXCROSS	n/a	n/a	n/a	n/a	n/a	n/a	n/a	n/a
365.172	0.75	COLOR_NAME	45	Neutral	niebieski	blue	Neutral	Neutral	hit	n/a
365.8971	n/a	RESPONSE	n/a	n/a	n/a	n/a	n/a	n/a	n/a	blue
365.922	1.0167	ITI	n/a	n/a	n/a	n/a	n/a	n/a	n/a	n/a
366.9387	0.5167	FIXCROSS	n/a	n/a	n/a	n/a	n/a	n/a	n/a	n/a
367.4553	1.35	COLOR_NAME	46	Incongruent	zielony	green	czerwony	red	hit	n/a
368.7733	n/a	RESPONSE	n/a	n/a	n/a	n/a	n/a	n/a	n/a	green
368.8053	1.0167	ITI	n/a	n/a	n/a	n/a	n/a	n/a	n/a	n/a
369.822	0.5167	FIXCROSS	n/a	n/a	n/a	n/a	n/a	n/a	n/a	n/a
370.3387	0.6833	COLOR_NAME	47	Neutral	żółty	yellow	Neutral	Neutral	hit	n/a
370.9943	n/a	RESPONSE	n/a	n/a	n/a	n/a	n/a	n/a	n/a	yellow
371.022	1.0167	ITI	n/a	n/a	n/a	n/a	n/a	n/a	n/a	n/a
372.0387	0.5167	FIXCROSS	n/a	n/a	n/a	n/a	n/a	n/a	n/a	n/a
372.5554	0.8167	COLOR_NAME	48	Incongruent	żółty	yellow	czerwony	red	hit	n/a
373.3433	n/a	RESPONSE	n/a	n/a	n/a	n/a	n/a	n/a	n/a	yellow
373.372	1.0167	ITI	n/a	n/a	n/a	n/a	n/a	n/a	n/a	n/a
374.3887	0.5167	FIXCROSS	n/a	n/a	n/a	n/a	n/a	n/a	n/a	n/a
374.9054	0.8333	COLOR_NAME	49	Incongruent	żółty	yellow	zielony	green	hit	n/a
375.7081	n/a	RESPONSE	n/a	n/a	n/a	n/a	n/a	n/a	n/a	yellow
375.7387	1.0167	ITI	n/a	n/a	n/a	n/a	n/a	n/a	n/a	n/a
376.7554	0.5167	FIXCROSS	n/a	n/a	n/a	n/a	n/a	n/a	n/a	n/a
377.2721	0.4833	COLOR_NAME	50	Neutral	żółty	yellow	Neutral	Neutral	hit	n/a
377.7374	n/a	RESPONSE	n/a	n/a	n/a	n/a	n/a	n/a	n/a	yellow
377.7554	1.0167	ITI	n/a	n/a	n/a	n/a	n/a	n/a	n/a	n/a
378.7721	0.5167	FIXCROSS	n/a	n/a	n/a	n/a	n/a	n/a	n/a	n/a
379.2887	1.0167	COLOR_NAME	51	Incongruent	czerwony	red	niebieski	blue	hit	n/a
380.2781	n/a	RESPONSE	n/a	n/a	n/a	n/a	n/a	n/a	n/a	red
380.3054	1.0167	ITI	n/a	n/a	n/a	n/a	n/a	n/a	n/a	n/a
381.3221	0.5167	FIXCROSS	n/a	n/a	n/a	n/a	n/a	n/a	n/a	n/a
381.8388	1.0	COLOR_NAME	52	Incongruent	zielony	green	czerwony	red	hit	n/a
382.8187	n/a	RESPONSE	n/a	n/a	n/a	n/a	n/a	n/a	n/a	green
382.8388	1.0167	ITI	n/a	n/a	n/a	n/a	n/a	n/a	n/a	n/a
383.8554	0.5167	FIXCROSS	n/a	n/a	n/a	n/a	n/a	n/a	n/a	n/a
384.3721	0.7667	COLOR_NAME	53	Neutral	żółty	yellow	Neutral	Neutral	hit	n/a
385.1196	n/a	RESPONSE	n/a	n/a	n/a	n/a	n/a	n/a	n/a	yellow
385.1388	1.0167	ITI	n/a	n/a	n/a	n/a	n/a	n/a	n/a	n/a
386.1554	0.5167	FIXCROSS	n/a	n/a	n/a	n/a	n/a	n/a	n/a	n/a
386.6721	0.7167	COLOR_NAME	54	Neutral	zielony	green	Neutral	Neutral	hit	n/a
387.3567	n/a	RESPONSE	n/a	n/a	n/a	n/a	n/a	n/a	n/a	green
387.3888	1.0167	ITI	n/a	n/a	n/a	n/a	n/a	n/a	n/a	n/a
388.4055	0.5167	FIXCROSS	n/a	n/a	n/a	n/a	n/a	n/a	n/a	n/a
388.9221	1.0667	COLOR_NAME	55	Incongruent	zielony	green	czerwony	red	hit	n/a
389.9612	n/a	RESPONSE	n/a	n/a	n/a	n/a	n/a	n/a	n/a	green
389.9888	1.0167	ITI	n/a	n/a	n/a	n/a	n/a	n/a	n/a	n/a
391.0055	0.5167	FIXCROSS	n/a	n/a	n/a	n/a	n/a	n/a	n/a	n/a
391.5222	0.6833	COLOR_NAME	56	Incongruent	czerwony	red	zielony	green	hit	n/a
392.1823	n/a	RESPONSE	n/a	n/a	n/a	n/a	n/a	n/a	n/a	red
392.2055	1.0167	ITI	n/a	n/a	n/a	n/a	n/a	n/a	n/a	n/a
393.2222	0.5167	FIXCROSS	n/a	n/a	n/a	n/a	n/a	n/a	n/a	n/a
393.7388	0.6167	COLOR_NAME	57	Neutral	niebieski	blue	Neutral	Neutral	hit	n/a
394.3234	n/a	RESPONSE	n/a	n/a	n/a	n/a	n/a	n/a	n/a	blue
394.3555	1.0167	ITI	n/a	n/a	n/a	n/a	n/a	n/a	n/a	n/a
395.3722	0.5167	FIXCROSS	n/a	n/a	n/a	n/a	n/a	n/a	n/a	n/a
395.8888	0.8167	COLOR_NAME	58	Incongruent	niebieski	blue	żółty	yellow	hit	n/a
396.6724	n/a	RESPONSE	n/a	n/a	n/a	n/a	n/a	n/a	n/a	blue
396.7055	1.0167	ITI	n/a	n/a	n/a	n/a	n/a	n/a	n/a	n/a
397.7222	0.5167	FIXCROSS	n/a	n/a	n/a	n/a	n/a	n/a	n/a	n/a
398.2389	0.75	COLOR_NAME	59	Incongruent	czerwony	red	niebieski	blue	hit	n/a
398.9574	n/a	RESPONSE	n/a	n/a	n/a	n/a	n/a	n/a	n/a	red
398.9889	1.0167	ITI	n/a	n/a	n/a	n/a	n/a	n/a	n/a	n/a
400.0055	0.5167	FIXCROSS	n/a	n/a	n/a	n/a	n/a	n/a	n/a	n/a
400.5222	0.5667	COLOR_NAME	60	Neutral	żółty	yellow	Neutral	Neutral	hit	n/a
401.0666	n/a	RESPONSE	n/a	n/a	n/a	n/a	n/a	n/a	n/a	yellow
401.0889	1.0167	ITI	n/a	n/a	n/a	n/a	n/a	n/a	n/a	n/a
402.1055	0.5167	FIXCROSS	n/a	n/a	n/a	n/a	n/a	n/a	n/a	n/a
402.6222	0.7	COLOR_NAME	61	Incongruent	niebieski	blue	czerwony	red	hit	n/a
403.3036	n/a	RESPONSE	n/a	n/a	n/a	n/a	n/a	n/a	n/a	blue
403.3222	1.0167	ITI	n/a	n/a	n/a	n/a	n/a	n/a	n/a	n/a
404.3389	0.5167	FIXCROSS	n/a	n/a	n/a	n/a	n/a	n/a	n/a	n/a
404.8556	0.7	COLOR_NAME	62	Neutral	zielony	green	Neutral	Neutral	hit	n/a
405.5247	n/a	RESPONSE	n/a	n/a	n/a	n/a	n/a	n/a	n/a	green
405.5556	1.0167	ITI	n/a	n/a	n/a	n/a	n/a	n/a	n/a	n/a
406.5722	0.5167	FIXCROSS	n/a	n/a	n/a	n/a	n/a	n/a	n/a	n/a
407.0889	0.7	COLOR_NAME	63	Incongruent	niebieski	blue	czerwony	red	hit	n/a
407.7616	n/a	RESPONSE	n/a	n/a	n/a	n/a	n/a	n/a	n/a	blue
407.7889	1.0167	ITI	n/a	n/a	n/a	n/a	n/a	n/a	n/a	n/a
408.8056	0.5167	FIXCROSS	n/a	n/a	n/a	n/a	n/a	n/a	n/a	n/a
409.3223	0.6	COLOR_NAME	64	Neutral	czerwony	red	Neutral	Neutral	hit	n/a
409.9027	n/a	RESPONSE	n/a	n/a	n/a	n/a	n/a	n/a	n/a	red
409.9223	1.0167	ITI	n/a	n/a	n/a	n/a	n/a	n/a	n/a	n/a
410.9389	0.5167	FIXCROSS	n/a	n/a	n/a	n/a	n/a	n/a	n/a	n/a
411.4556	0.6	COLOR_NAME	65	Incongruent	żółty	yellow	niebieski	blue	hit	n/a
412.0279	n/a	RESPONSE	n/a	n/a	n/a	n/a	n/a	n/a	n/a	yellow
412.0556	1.0167	ITI	n/a	n/a	n/a	n/a	n/a	n/a	n/a	n/a
413.0723	0.5167	FIXCROSS	n/a	n/a	n/a	n/a	n/a	n/a	n/a	n/a
413.589	0.65	COLOR_NAME	66	Neutral	zielony	green	Neutral	Neutral	hit	n/a
414.217	n/a	RESPONSE	n/a	n/a	n/a	n/a	n/a	n/a	n/a	green
414.239	1.0167	ITI	n/a	n/a	n/a	n/a	n/a	n/a	n/a	n/a
415.2556	0.5167	FIXCROSS	n/a	n/a	n/a	n/a	n/a	n/a	n/a	n/a
415.7723	1.15	COLOR_NAME	67	Incongruent	żółty	yellow	czerwony	red	hit	n/a
416.9015	n/a	RESPONSE	n/a	n/a	n/a	n/a	n/a	n/a	n/a	yellow
416.9223	1.0167	ITI	n/a	n/a	n/a	n/a	n/a	n/a	n/a	n/a
417.939	0.5167	FIXCROSS	n/a	n/a	n/a	n/a	n/a	n/a	n/a	n/a
418.4557	0.6667	COLOR_NAME	68	Incongruent	niebieski	blue	zielony	green	hit	n/a
419.0906	n/a	RESPONSE	n/a	n/a	n/a	n/a	n/a	n/a	n/a	blue
419.1223	1.0167	ITI	n/a	n/a	n/a	n/a	n/a	n/a	n/a	n/a
420.139	0.5167	FIXCROSS	n/a	n/a	n/a	n/a	n/a	n/a	n/a	n/a
420.6557	0.9	COLOR_NAME	69	Incongruent	zielony	green	żółty	yellow	hit	n/a
421.5353	n/a	RESPONSE	n/a	n/a	n/a	n/a	n/a	n/a	n/a	green
421.5557	1.0167	ITI	n/a	n/a	n/a	n/a	n/a	n/a	n/a	n/a
422.5723	0.5167	FIXCROSS	n/a	n/a	n/a	n/a	n/a	n/a	n/a	n/a
423.089	0.95	COLOR_NAME	70	Incongruent	czerwony	red	niebieski	blue	hit	n/a
424.012	n/a	RESPONSE	n/a	n/a	n/a	n/a	n/a	n/a	n/a	red
424.039	1.0167	ITI	n/a	n/a	n/a	n/a	n/a	n/a	n/a	n/a
425.0557	0.5167	FIXCROSS	n/a	n/a	n/a	n/a	n/a	n/a	n/a	n/a
425.5724	0.6667	COLOR_NAME	71	Neutral	czerwony	red	Neutral	Neutral	hit	n/a
426.2173	n/a	RESPONSE	n/a	n/a	n/a	n/a	n/a	n/a	n/a	red
426.239	1.0167	ITI	n/a	n/a	n/a	n/a	n/a	n/a	n/a	n/a
427.2557	0.5167	FIXCROSS	n/a	n/a	n/a	n/a	n/a	n/a	n/a	n/a
427.7724	0.6667	COLOR_NAME	72	Incongruent	czerwony	red	zielony	green	hit	n/a
428.4063	n/a	RESPONSE	n/a	n/a	n/a	n/a	n/a	n/a	n/a	red
428.4391	1.0333	ITI	n/a	n/a	n/a	n/a	n/a	n/a	n/a	n/a
431.5541	n/a	RESPONSE	n/a	n/a	n/a	n/a	n/a	n/a	n/a	n/a
