onset	duration	trial_type	n_back_condition	trial_number	stimulus	response_type
0.0	n/a	RESPONSE	n/a	n/a	n/a	n/a
0.0249	1.0	ISI	n/a	n/a	n/a	n/a
1.0249	0.5	DISTRACTOR	1	1	E	Correct Rejection
1.5249	1.0	ISI	n/a	n/a	n/a	n/a
2.5249	0.5	DISTRACTOR	1	2	I	Correct Rejection
3.0249	1.0	ISI	n/a	n/a	n/a	n/a
4.0249	0.5	DISTRACTOR	1	3	A	Correct Rejection
4.5249	1.0	ISI	n/a	n/a	n/a	n/a
5.525	0.5	DISTRACTOR	1	4	H	Correct Rejection
6.0249	1.0	ISI	n/a	n/a	n/a	n/a
7.025	0.5	TARGET	1	5	H	Hit
7.3744	n/a	RESPONSE	n/a	n/a	n/a	n/a
7.525	1.0	ISI	n/a	n/a	n/a	n/a
8.525	0.5	TARGET	1	6	H	Hit
9.025	1.0	ISI	n/a	n/a	n/a	n/a
9.0861	n/a	RESPONSE	n/a	n/a	n/a	n/a
10.025	0.5	DISTRACTOR	1	7	I	Correct Rejection
10.525	1.0	ISI	n/a	n/a	n/a	n/a
11.525	0.5	DISTRACTOR	1	8	G	Correct Rejection
12.025	1.0	ISI	n/a	n/a	n/a	n/a
13.025	0.5	DISTRACTOR	1	9	C	Correct Rejection
13.525	1.0	ISI	n/a	n/a	n/a	n/a
14.525	0.5	DISTRACTOR	1	10	J	Correct Rejection
15.025	1.0	ISI	n/a	n/a	n/a	n/a
16.025	0.5	TARGET	1	11	J	Hit
16.5085	n/a	RESPONSE	n/a	n/a	n/a	n/a
16.525	1.0	ISI	n/a	n/a	n/a	n/a
17.525	0.5	DISTRACTOR	1	12	C	False Alarm
17.9802	n/a	RESPONSE	n/a	n/a	n/a	n/a
18.025	1.0167	ISI	n/a	n/a	n/a	n/a
19.0417	0.5167	DISTRACTOR	1	13	A	Correct Rejection
19.5584	1.0167	ISI	n/a	n/a	n/a	n/a
20.5751	0.5167	DISTRACTOR	1	14	H	Correct Rejection
21.0917	1.0167	ISI	n/a	n/a	n/a	n/a
22.1084	0.5167	DISTRACTOR	1	15	A	False Alarm
22.5392	n/a	RESPONSE	n/a	n/a	n/a	n/a
22.6251	1.0167	ISI	n/a	n/a	n/a	n/a
23.6417	0.5167	DISTRACTOR	1	16	H	Correct Rejection
24.1584	1.0167	ISI	n/a	n/a	n/a	n/a
25.1751	0.5167	DISTRACTOR	1	17	F	Correct Rejection
25.6918	1.0167	ISI	n/a	n/a	n/a	n/a
26.7084	0.5167	DISTRACTOR	1	18	I	Correct Rejection
27.2251	1.0167	ISI	n/a	n/a	n/a	n/a
28.2418	0.5167	DISTRACTOR	1	19	A	Correct Rejection
28.7584	1.0167	ISI	n/a	n/a	n/a	n/a
29.7751	0.5167	TARGET	1	20	A	Hit
30.2336	n/a	RESPONSE	n/a	n/a	n/a	n/a
30.2918	1.0167	ISI	n/a	n/a	n/a	n/a
31.3085	0.5167	DISTRACTOR	1	21	F	Correct Rejection
31.8251	1.0167	ISI	n/a	n/a	n/a	n/a
32.8418	0.5167	DISTRACTOR	1	22	H	Correct Rejection
33.3585	1.0167	ISI	n/a	n/a	n/a	n/a
34.3752	0.5167	TARGET	1	23	H	Hit
34.8918	1.0167	ISI	n/a	n/a	n/a	n/a
34.9846	n/a	RESPONSE	n/a	n/a	n/a	n/a
35.9085	0.5167	TARGET	1	24	H	Hit
36.4252	1.0167	ISI	n/a	n/a	n/a	n/a
37.0162	n/a	RESPONSE	n/a	n/a	n/a	n/a
37.4418	0.5167	DISTRACTOR	1	25	B	Correct Rejection
37.9585	1.0167	ISI	n/a	n/a	n/a	n/a
38.9752	0.5167	DISTRACTOR	1	26	A	Correct Rejection
39.4919	1.0167	ISI	n/a	n/a	n/a	n/a
40.5085	0.5167	DISTRACTOR	1	27	F	Correct Rejection
41.0252	1.0167	ISI	n/a	n/a	n/a	n/a
42.0419	0.5167	DISTRACTOR	1	28	B	Correct Rejection
42.5586	1.0167	ISI	n/a	n/a	n/a	n/a
43.5752	0.5167	DISTRACTOR	1	29	C	Correct Rejection
44.0919	1.0167	ISI	n/a	n/a	n/a	n/a
45.1086	0.5167	DISTRACTOR	1	30	H	Correct Rejection
45.6252	1.0167	ISI	n/a	n/a	n/a	n/a
46.6419	0.5167	DISTRACTOR	1	31	F	Correct Rejection
47.1586	1.0167	ISI	n/a	n/a	n/a	n/a
48.1753	0.5167	DISTRACTOR	1	32	I	Correct Rejection
48.6919	1.0167	ISI	n/a	n/a	n/a	n/a
49.7086	0.5167	DISTRACTOR	1	33	G	Correct Rejection
50.2253	1.0167	ISI	n/a	n/a	n/a	n/a
51.242	0.5167	DISTRACTOR	1	34	B	Correct Rejection
51.7586	1.0167	ISI	n/a	n/a	n/a	n/a
52.7753	0.5167	DISTRACTOR	1	35	H	Correct Rejection
53.292	1.0167	ISI	n/a	n/a	n/a	n/a
54.3086	0.5167	DISTRACTOR	1	36	J	Correct Rejection
54.8253	1.0167	ISI	n/a	n/a	n/a	n/a
55.842	0.5167	DISTRACTOR	1	37	C	Correct Rejection
56.3586	1.0167	ISI	n/a	n/a	n/a	n/a
57.3753	0.5167	TARGET	1	38	C	Hit
57.892	1.0167	ISI	n/a	n/a	n/a	n/a
58.0518	n/a	RESPONSE	n/a	n/a	n/a	n/a
58.9087	0.5167	DISTRACTOR	1	39	B	Correct Rejection
59.4253	1.0167	ISI	n/a	n/a	n/a	n/a
60.442	0.5167	DISTRACTOR	1	40	E	Correct Rejection
60.9587	1.0167	ISI	n/a	n/a	n/a	n/a
61.9754	0.5167	DISTRACTOR	1	41	F	Correct Rejection
62.492	1.0167	ISI	n/a	n/a	n/a	n/a
63.5087	0.5167	DISTRACTOR	1	42	B	Correct Rejection
64.0254	1.0167	ISI	n/a	n/a	n/a	n/a
65.042	0.5167	DISTRACTOR	1	43	H	Correct Rejection
65.5587	1.0167	ISI	n/a	n/a	n/a	n/a
66.5754	0.5167	DISTRACTOR	1	44	J	Correct Rejection
67.0921	1.0167	ISI	n/a	n/a	n/a	n/a
68.1087	0.5167	TARGET	1	45	J	Hit
68.5457	n/a	RESPONSE	n/a	n/a	n/a	n/a
68.6254	1.0167	ISI	n/a	n/a	n/a	n/a
69.6421	0.5167	DISTRACTOR	1	46	C	Correct Rejection
70.1588	1.0167	ISI	n/a	n/a	n/a	n/a
71.1754	0.5167	DISTRACTOR	1	47	I	Correct Rejection
71.6921	1.0167	ISI	n/a	n/a	n/a	n/a
72.7088	0.5167	DISTRACTOR	1	48	J	Correct Rejection
73.2254	1.0167	ISI	n/a	n/a	n/a	n/a
74.2421	0.5167	TARGET	1	49	J	Hit
74.6243	n/a	RESPONSE	n/a	n/a	n/a	n/a
74.7588	1.0167	ISI	n/a	n/a	n/a	n/a
75.7755	0.5167	TARGET	1	50	J	Hit
76.2399	n/a	RESPONSE	n/a	n/a	n/a	n/a
76.2921	1.1167	ISI	n/a	n/a	n/a	n/a
80.5271	n/a	RESPONSE	n/a	n/a	n/a	n/a
80.5588	1.0	ISI	n/a	n/a	n/a	n/a
81.5588	0.5	DISTRACTOR	2	1	C	Correct Rejection
82.0588	1.0	ISI	n/a	n/a	n/a	n/a
83.0588	0.5167	DISTRACTOR	2	2	G	Correct Rejection
83.5755	1.0167	ISI	n/a	n/a	n/a	n/a
84.5922	0.5167	DISTRACTOR	2	3	B	Correct Rejection
85.1089	1.0167	ISI	n/a	n/a	n/a	n/a
86.1255	0.5167	DISTRACTOR	2	4	B	Correct Rejection
86.6422	1.0167	ISI	n/a	n/a	n/a	n/a
87.6589	0.5167	DISTRACTOR	2	5	E	Correct Rejection
88.1755	1.0167	ISI	n/a	n/a	n/a	n/a
89.1922	0.5167	DISTRACTOR	2	6	I	Correct Rejection
89.7089	1.0167	ISI	n/a	n/a	n/a	n/a
90.7256	0.5167	DISTRACTOR	2	7	I	Correct Rejection
91.2422	1.0167	ISI	n/a	n/a	n/a	n/a
92.2589	0.5167	DISTRACTOR	2	8	B	Correct Rejection
92.7756	1.0167	ISI	n/a	n/a	n/a	n/a
93.7923	0.5167	TARGET	2	9	I	Hit
94.1402	n/a	RESPONSE	n/a	n/a	n/a	n/a
94.3089	1.0167	ISI	n/a	n/a	n/a	n/a
95.3256	0.5167	DISTRACTOR	2	10	I	Correct Rejection
95.8423	1.0167	ISI	n/a	n/a	n/a	n/a
96.8589	0.5167	DISTRACTOR	2	11	B	False Alarm
97.3756	1.0167	ISI	n/a	n/a	n/a	n/a
97.3875	n/a	RESPONSE	n/a	n/a	n/a	n/a
98.3923	0.5167	DISTRACTOR	2	12	E	Correct Rejection
98.909	1.0167	ISI	n/a	n/a	n/a	n/a
99.9256	0.5167	DISTRACTOR	2	13	C	Correct Rejection
100.4423	1.0167	ISI	n/a	n/a	n/a	n/a
101.459	0.5167	TARGET	2	14	E	Hit
101.9625	n/a	RESPONSE	n/a	n/a	n/a	n/a
101.9756	1.0167	ISI	n/a	n/a	n/a	n/a
102.9923	0.5167	DISTRACTOR	2	15	E	Correct Rejection
103.509	1.0167	ISI	n/a	n/a	n/a	n/a
104.5257	0.5167	DISTRACTOR	2	16	A	Correct Rejection
105.0423	1.0167	ISI	n/a	n/a	n/a	n/a
106.059	0.5167	DISTRACTOR	2	17	F	Correct Rejection
106.5757	1.0167	ISI	n/a	n/a	n/a	n/a
107.5924	0.5167	DISTRACTOR	2	18	F	Correct Rejection
108.109	1.0167	ISI	n/a	n/a	n/a	n/a
109.1257	0.5167	DISTRACTOR	2	19	C	Correct Rejection
109.6424	1.0167	ISI	n/a	n/a	n/a	n/a
110.659	0.5167	DISTRACTOR	2	20	C	Correct Rejection
111.1757	1.0167	ISI	n/a	n/a	n/a	n/a
112.1924	0.5167	TARGET	2	21	C	Hit
112.5523	n/a	RESPONSE	n/a	n/a	n/a	n/a
112.7091	1.0167	ISI	n/a	n/a	n/a	n/a
113.7257	0.5167	TARGET	2	22	C	Hit
114.2424	1.0167	ISI	n/a	n/a	n/a	n/a
114.3759	n/a	RESPONSE	n/a	n/a	n/a	n/a
115.2591	0.5167	DISTRACTOR	2	23	D	Correct Rejection
115.7757	1.0167	ISI	n/a	n/a	n/a	n/a
116.7924	0.5167	DISTRACTOR	2	24	E	Correct Rejection
117.3091	1.0167	ISI	n/a	n/a	n/a	n/a
118.3258	0.5167	DISTRACTOR	2	25	F	Correct Rejection
118.8424	1.0167	ISI	n/a	n/a	n/a	n/a
119.8591	0.5167	DISTRACTOR	2	26	F	False Alarm
120.3758	1.0167	ISI	n/a	n/a	n/a	n/a
120.5346	n/a	RESPONSE	n/a	n/a	n/a	n/a
121.3925	0.5167	TARGET	2	27	F	Hit
121.9091	1.0167	ISI	n/a	n/a	n/a	n/a
122.0703	n/a	RESPONSE	n/a	n/a	n/a	n/a
122.9258	0.5167	DISTRACTOR	2	28	J	Correct Rejection
123.4425	1.0167	ISI	n/a	n/a	n/a	n/a
124.4591	0.5167	DISTRACTOR	2	29	B	Correct Rejection
124.9758	1.0167	ISI	n/a	n/a	n/a	n/a
125.9925	0.5167	TARGET	2	30	J	Hit
126.5092	1.0167	ISI	n/a	n/a	n/a	n/a
126.5334	n/a	RESPONSE	n/a	n/a	n/a	n/a
127.5258	0.5167	DISTRACTOR	2	31	J	Correct Rejection
128.0425	1.0167	ISI	n/a	n/a	n/a	n/a
129.0592	0.5167	DISTRACTOR	2	32	B	False Alarm
129.5758	1.0167	ISI	n/a	n/a	n/a	n/a
129.5887	n/a	RESPONSE	n/a	n/a	n/a	n/a
130.5925	0.5167	DISTRACTOR	2	33	D	Correct Rejection
131.1092	1.0167	ISI	n/a	n/a	n/a	n/a
132.1259	0.5167	TARGET	2	34	B	Miss
132.6425	1.0167	ISI	n/a	n/a	n/a	n/a
133.6592	0.5167	DISTRACTOR	2	35	B	False Alarm
134.1759	1.0167	ISI	n/a	n/a	n/a	n/a
134.3717	n/a	RESPONSE	n/a	n/a	n/a	n/a
135.1926	0.5167	DISTRACTOR	2	36	G	Correct Rejection
135.7092	1.0167	ISI	n/a	n/a	n/a	n/a
136.7259	0.5167	DISTRACTOR	2	37	G	False Alarm
137.2426	1.0167	ISI	n/a	n/a	n/a	n/a
137.2831	n/a	RESPONSE	n/a	n/a	n/a	n/a
138.2592	0.5167	TARGET	2	38	G	Hit
138.7759	1.0167	ISI	n/a	n/a	n/a	n/a
138.8348	n/a	RESPONSE	n/a	n/a	n/a	n/a
139.7926	0.5167	DISTRACTOR	2	39	D	Correct Rejection
140.3093	1.0167	ISI	n/a	n/a	n/a	n/a
141.3259	0.5167	DISTRACTOR	2	40	I	Correct Rejection
141.8426	1.0167	ISI	n/a	n/a	n/a	n/a
142.8593	0.5167	DISTRACTOR	2	41	I	False Alarm
143.3759	1.0167	ISI	n/a	n/a	n/a	n/a
143.4258	n/a	RESPONSE	n/a	n/a	n/a	n/a
144.3926	0.5167	TARGET	2	42	I	Hit
144.9093	1.0167	ISI	n/a	n/a	n/a	n/a
145.3134	n/a	RESPONSE	n/a	n/a	n/a	n/a
145.926	0.5167	DISTRACTOR	2	43	H	Correct Rejection
146.4426	1.0167	ISI	n/a	n/a	n/a	n/a
147.4593	0.5167	DISTRACTOR	2	44	A	Correct Rejection
147.976	1.0167	ISI	n/a	n/a	n/a	n/a
148.9927	0.5167	DISTRACTOR	2	45	A	Correct Rejection
149.5093	1.0167	ISI	n/a	n/a	n/a	n/a
150.526	0.5167	DISTRACTOR	2	46	C	Correct Rejection
151.0427	1.0167	ISI	n/a	n/a	n/a	n/a
152.0593	0.5167	DISTRACTOR	2	47	F	Correct Rejection
152.576	1.0167	ISI	n/a	n/a	n/a	n/a
153.5927	0.5167	DISTRACTOR	2	48	I	Correct Rejection
154.1094	1.0167	ISI	n/a	n/a	n/a	n/a
155.126	0.5167	TARGET	2	49	F	Hit
155.6312	n/a	RESPONSE	n/a	n/a	n/a	n/a
155.6427	1.0167	ISI	n/a	n/a	n/a	n/a
156.6594	0.5167	DISTRACTOR	2	50	H	Correct Rejection
157.176	1.1	ISI	n/a	n/a	n/a	n/a
161.1021	n/a	RESPONSE	n/a	n/a	n/a	n/a
161.1261	1.0	ISI	n/a	n/a	n/a	n/a
162.1261	0.5	DISTRACTOR	3	1	J	Correct Rejection
162.6261	1.0	ISI	n/a	n/a	n/a	n/a
163.6261	0.5167	DISTRACTOR	3	2	B	Correct Rejection
164.1428	1.0167	ISI	n/a	n/a	n/a	n/a
165.1594	0.5167	DISTRACTOR	3	3	D	Correct Rejection
165.6761	1.0167	ISI	n/a	n/a	n/a	n/a
166.6928	0.5167	DISTRACTOR	3	4	B	False Alarm
167.2094	1.0167	ISI	n/a	n/a	n/a	n/a
167.3728	n/a	RESPONSE	n/a	n/a	n/a	n/a
168.2261	0.5167	DISTRACTOR	3	5	J	Correct Rejection
168.7428	1.0167	ISI	n/a	n/a	n/a	n/a
169.7595	0.5167	DISTRACTOR	3	6	A	Correct Rejection
170.2761	1.0167	ISI	n/a	n/a	n/a	n/a
171.2928	0.5167	DISTRACTOR	3	7	F	Correct Rejection
171.8095	1.0167	ISI	n/a	n/a	n/a	n/a
172.8261	0.5167	DISTRACTOR	3	8	G	Correct Rejection
173.3428	1.0167	ISI	n/a	n/a	n/a	n/a
174.3595	0.5167	DISTRACTOR	3	9	D	Correct Rejection
174.8762	1.0167	ISI	n/a	n/a	n/a	n/a
175.8928	0.5167	TARGET	3	10	F	Hit
176.2989	n/a	RESPONSE	n/a	n/a	n/a	n/a
176.4095	1.0167	ISI	n/a	n/a	n/a	n/a
177.4262	0.5167	TARGET	3	11	G	Miss
177.9428	1.0167	ISI	n/a	n/a	n/a	n/a
178.9595	0.5167	TARGET	3	12	D	Miss
179.4762	1.0167	ISI	n/a	n/a	n/a	n/a
180.4929	0.5167	DISTRACTOR	3	13	J	Correct Rejection
181.0095	1.0167	ISI	n/a	n/a	n/a	n/a
182.0262	0.5167	DISTRACTOR	3	14	A	Correct Rejection
182.5429	1.0167	ISI	n/a	n/a	n/a	n/a
183.5596	0.5167	DISTRACTOR	3	15	H	Correct Rejection
184.0762	1.0167	ISI	n/a	n/a	n/a	n/a
185.0929	0.5167	DISTRACTOR	3	16	D	Correct Rejection
185.6096	1.0167	ISI	n/a	n/a	n/a	n/a
186.6262	0.5167	DISTRACTOR	3	17	I	Correct Rejection
187.1429	1.0167	ISI	n/a	n/a	n/a	n/a
188.1596	0.5167	DISTRACTOR	3	18	G	Correct Rejection
188.6763	1.0167	ISI	n/a	n/a	n/a	n/a
189.6929	0.5167	DISTRACTOR	3	19	A	False Alarm
190.2096	1.0167	ISI	n/a	n/a	n/a	n/a
190.232	n/a	RESPONSE	n/a	n/a	n/a	n/a
191.2263	0.5167	TARGET	3	20	I	Miss
191.7429	1.0167	ISI	n/a	n/a	n/a	n/a
192.7596	0.5167	DISTRACTOR	3	21	F	Correct Rejection
193.2763	1.0167	ISI	n/a	n/a	n/a	n/a
194.293	0.5167	DISTRACTOR	3	22	C	Correct Rejection
194.8096	1.0167	ISI	n/a	n/a	n/a	n/a
195.8263	0.5167	TARGET	3	23	I	Hit
196.2467	n/a	RESPONSE	n/a	n/a	n/a	n/a
196.343	1.0167	ISI	n/a	n/a	n/a	n/a
197.3597	0.5167	TARGET	3	24	F	Miss
197.8763	1.0167	ISI	n/a	n/a	n/a	n/a
198.893	0.5167	DISTRACTOR	3	25	I	Correct Rejection
199.4097	1.0167	ISI	n/a	n/a	n/a	n/a
200.4263	0.5167	DISTRACTOR	3	26	B	Correct Rejection
200.943	1.0167	ISI	n/a	n/a	n/a	n/a
201.9597	0.5167	DISTRACTOR	3	27	E	Correct Rejection
202.4764	1.0167	ISI	n/a	n/a	n/a	n/a
203.493	0.5167	DISTRACTOR	3	28	C	Correct Rejection
204.0097	1.0167	ISI	n/a	n/a	n/a	n/a
205.0264	0.5167	DISTRACTOR	3	29	J	Correct Rejection
205.543	1.0167	ISI	n/a	n/a	n/a	n/a
206.5597	0.5167	DISTRACTOR	3	30	H	Correct Rejection
207.0764	1.0167	ISI	n/a	n/a	n/a	n/a
208.0931	0.5167	DISTRACTOR	3	31	H	Correct Rejection
208.6097	1.0167	ISI	n/a	n/a	n/a	n/a
209.6264	0.5167	TARGET	3	32	J	Miss
210.1431	1.0167	ISI	n/a	n/a	n/a	n/a
211.1597	0.5167	DISTRACTOR	3	33	G	Correct Rejection
211.6764	1.0167	ISI	n/a	n/a	n/a	n/a
212.6931	0.5167	DISTRACTOR	3	34	G	False Alarm
212.9472	n/a	RESPONSE	n/a	n/a	n/a	n/a
213.2098	1.0167	ISI	n/a	n/a	n/a	n/a
214.2264	0.5167	TARGET	3	35	J	Miss
214.7431	1.0167	ISI	n/a	n/a	n/a	n/a
215.7598	0.5167	DISTRACTOR	3	36	H	False Alarm
216.2764	1.0167	ISI	n/a	n/a	n/a	n/a
216.7864	n/a	RESPONSE	n/a	n/a	n/a	n/a
217.2931	0.5167	TARGET	3	37	G	Miss
217.8098	1.0167	ISI	n/a	n/a	n/a	n/a
218.8265	0.5167	DISTRACTOR	3	38	C	Correct Rejection
218.9139	n/a	RESPONSE	n/a	n/a	n/a	n/a
219.3431	1.0167	ISI	n/a	n/a	n/a	n/a
220.3598	0.5167	DISTRACTOR	3	39	D	Correct Rejection
220.8765	1.0167	ISI	n/a	n/a	n/a	n/a
221.8932	0.5167	DISTRACTOR	3	40	I	Correct Rejection
222.4098	1.0167	ISI	n/a	n/a	n/a	n/a
223.4265	0.5167	DISTRACTOR	3	41	D	Correct Rejection
223.9432	1.0167	ISI	n/a	n/a	n/a	n/a
224.9598	0.5167	DISTRACTOR	3	42	G	Correct Rejection
225.4765	1.0167	ISI	n/a	n/a	n/a	n/a
226.4932	0.5167	DISTRACTOR	3	43	F	Correct Rejection
227.0099	1.0167	ISI	n/a	n/a	n/a	n/a
228.0265	0.5167	DISTRACTOR	3	44	J	Correct Rejection
228.5432	1.0167	ISI	n/a	n/a	n/a	n/a
229.5599	0.5167	DISTRACTOR	3	45	I	Correct Rejection
230.0765	1.0167	ISI	n/a	n/a	n/a	n/a
231.0932	0.5167	DISTRACTOR	3	46	J	False Alarm
231.4393	n/a	RESPONSE	n/a	n/a	n/a	n/a
231.6099	1.0167	ISI	n/a	n/a	n/a	n/a
232.6266	0.5167	TARGET	3	47	J	Miss
233.1432	1.0167	ISI	n/a	n/a	n/a	n/a
234.1599	0.5167	DISTRACTOR	3	48	G	False Alarm
234.6766	1.0167	ISI	n/a	n/a	n/a	n/a
235.3745	n/a	RESPONSE	n/a	n/a	n/a	n/a
235.6932	0.5167	DISTRACTOR	3	49	D	Correct Rejection
236.2099	1.0167	ISI	n/a	n/a	n/a	n/a
237.2266	0.5167	DISTRACTOR	3	50	G	False Alarm
237.7433	1.0333	ISI	n/a	n/a	n/a	n/a
237.9339	n/a	RESPONSE	n/a	n/a	n/a	n/a
241.6771	n/a	RESPONSE	n/a	n/a	n/a	n/a
