onset	duration	trial_type	trial_number	stroop_condition	stim_text(PL)	stim_text(eng)	stim_color(PL)	stim_color(eng)	response_type	response_color
0.0	n/a	RESPONSE	n/a	n/a	n/a	n/a	n/a	n/a	n/a	n/a
0.0614	1.0334	ITI	n/a	n/a	n/a	n/a	n/a	n/a	n/a	n/a
1.0947	0.5167	FIXCROSS	n/a	n/a	n/a	n/a	n/a	n/a	n/a	n/a
1.6114	2.3667	T_INK	1	Incongruent	czerwony	red	zielony	green	hit	n/a
3.9511	n/a	RESPONSE	n/a	n/a	n/a	n/a	n/a	n/a	n/a	green
3.9781	0.5167	FEEDBACK	n/a	n/a	n/a	n/a	n/a	n/a	n/a	n/a
4.4947	1.0167	ITI	n/a	n/a	n/a	n/a	n/a	n/a	n/a	n/a
5.5114	0.5167	FIXCROSS	n/a	n/a	n/a	n/a	n/a	n/a	n/a	n/a
6.0281	1.2333	T_INK	2	Neutral	xxxxxxx	xxxxxxx	czerwony	red	hit	n/a
7.2305	n/a	RESPONSE	n/a	n/a	n/a	n/a	n/a	n/a	n/a	red
7.2614	0.5167	FEEDBACK	n/a	n/a	n/a	n/a	n/a	n/a	n/a	n/a
7.7781	1.0167	ITI	n/a	n/a	n/a	n/a	n/a	n/a	n/a	n/a
8.7948	0.5167	FIXCROSS	n/a	n/a	n/a	n/a	n/a	n/a	n/a	n/a
9.3114	1.2	T_INK	3	Neutral	xxxxxxxx	xxxxxxxx	żółty	yellow	hit	n/a
10.4779	n/a	RESPONSE	n/a	n/a	n/a	n/a	n/a	n/a	n/a	yellow
10.5114	0.5167	FEEDBACK	n/a	n/a	n/a	n/a	n/a	n/a	n/a	n/a
11.0281	1.0167	ITI	n/a	n/a	n/a	n/a	n/a	n/a	n/a	n/a
12.0448	0.5167	FIXCROSS	n/a	n/a	n/a	n/a	n/a	n/a	n/a	n/a
12.5615	1.3667	T_INK	4	Incongruent	zielony	green	żółty	yellow	hit	n/a
13.9013	n/a	RESPONSE	n/a	n/a	n/a	n/a	n/a	n/a	n/a	yellow
13.9281	0.5167	FEEDBACK	n/a	n/a	n/a	n/a	n/a	n/a	n/a	n/a
14.4448	1.0167	ITI	n/a	n/a	n/a	n/a	n/a	n/a	n/a	n/a
15.4615	0.5167	FIXCROSS	n/a	n/a	n/a	n/a	n/a	n/a	n/a	n/a
15.9781	0.95	T_INK	5	Neutral	xxxxxxxx	xxxxxxxx	zielony	green	hit	n/a
16.9087	n/a	RESPONSE	n/a	n/a	n/a	n/a	n/a	n/a	n/a	green
16.9281	0.5167	FEEDBACK	n/a	n/a	n/a	n/a	n/a	n/a	n/a	n/a
17.4448	1.0167	ITI	n/a	n/a	n/a	n/a	n/a	n/a	n/a	n/a
18.4615	0.5167	FIXCROSS	n/a	n/a	n/a	n/a	n/a	n/a	n/a	n/a
18.9782	2.45	T_INK	6	Incongruent	żółty	yellow	czerwony	red	hit	n/a
21.4035	n/a	RESPONSE	n/a	n/a	n/a	n/a	n/a	n/a	n/a	red
21.4282	0.5167	FEEDBACK	n/a	n/a	n/a	n/a	n/a	n/a	n/a	n/a
21.9448	1.0167	ITI	n/a	n/a	n/a	n/a	n/a	n/a	n/a	n/a
22.9615	0.5167	FIXCROSS	n/a	n/a	n/a	n/a	n/a	n/a	n/a	n/a
23.4782	1.6	T_INK	7	Incongruent	czerwony	red	niebieski	blue	hit	n/a
25.0506	n/a	RESPONSE	n/a	n/a	n/a	n/a	n/a	n/a	n/a	blue
25.0782	0.5167	FEEDBACK	n/a	n/a	n/a	n/a	n/a	n/a	n/a	n/a
25.5949	1.0167	ITI	n/a	n/a	n/a	n/a	n/a	n/a	n/a	n/a
26.6116	0.5167	FIXCROSS	n/a	n/a	n/a	n/a	n/a	n/a	n/a	n/a
27.1282	0.95	T_INK	8	Neutral	xxxxxxx	xxxxxxx	niebieski	blue	hit	n/a
28.0578	n/a	RESPONSE	n/a	n/a	n/a	n/a	n/a	n/a	n/a	blue
28.0782	0.5167	FEEDBACK	n/a	n/a	n/a	n/a	n/a	n/a	n/a	n/a
28.5949	1.0167	ITI	n/a	n/a	n/a	n/a	n/a	n/a	n/a	n/a
29.6116	0.5167	FIXCROSS	n/a	n/a	n/a	n/a	n/a	n/a	n/a	n/a
30.1282	1.0	T_INK	9	Neutral	xxxxx	xxxxx	zielony	green	hit	n/a
31.0972	n/a	RESPONSE	n/a	n/a	n/a	n/a	n/a	n/a	n/a	green
31.1282	0.5167	FEEDBACK	n/a	n/a	n/a	n/a	n/a	n/a	n/a	n/a
31.6449	1.0167	ITI	n/a	n/a	n/a	n/a	n/a	n/a	n/a	n/a
32.6616	0.5167	FIXCROSS	n/a	n/a	n/a	n/a	n/a	n/a	n/a	n/a
33.1783	1.05	T_INK	10	Incongruent	niebieski	blue	czerwony	red	hit	n/a
34.2005	n/a	RESPONSE	n/a	n/a	n/a	n/a	n/a	n/a	n/a	red
34.2283	0.5167	FEEDBACK	n/a	n/a	n/a	n/a	n/a	n/a	n/a	n/a
34.7449	1.0167	ITI	n/a	n/a	n/a	n/a	n/a	n/a	n/a	n/a
35.7616	0.5167	FIXCROSS	n/a	n/a	n/a	n/a	n/a	n/a	n/a	n/a
36.2783	1.6	T_INK	11	Incongruent	żółty	yellow	zielony	green	hit	n/a
37.8477	n/a	RESPONSE	n/a	n/a	n/a	n/a	n/a	n/a	n/a	green
37.8783	0.5167	FEEDBACK	n/a	n/a	n/a	n/a	n/a	n/a	n/a	n/a
38.395	1.0167	ITI	n/a	n/a	n/a	n/a	n/a	n/a	n/a	n/a
39.4116	0.5167	FIXCROSS	n/a	n/a	n/a	n/a	n/a	n/a	n/a	n/a
39.9283	1.4333	T_INK	12	Neutral	xxxxxxxxx	xxxxxxxxx	żółty	yellow	hit	n/a
41.3349	n/a	RESPONSE	n/a	n/a	n/a	n/a	n/a	n/a	n/a	yellow
41.3617	0.5167	FEEDBACK	n/a	n/a	n/a	n/a	n/a	n/a	n/a	n/a
41.8783	1.0333	ITI	n/a	n/a	n/a	n/a	n/a	n/a	n/a	n/a
49.1892	n/a	RESPONSE	n/a	n/a	n/a	n/a	n/a	n/a	n/a	n/a
49.245	1.0167	ITI	n/a	n/a	n/a	n/a	n/a	n/a	n/a	n/a
50.2617	0.5167	FIXCROSS	n/a	n/a	n/a	n/a	n/a	n/a	n/a	n/a
50.7784	1.45	INK	1	Incongruent	żółty	yellow	niebieski	blue	hit	n/a
52.1967	n/a	RESPONSE	n/a	n/a	n/a	n/a	n/a	n/a	n/a	blue
52.2284	1.0167	ITI	n/a	n/a	n/a	n/a	n/a	n/a	n/a	n/a
53.2451	0.5167	FIXCROSS	n/a	n/a	n/a	n/a	n/a	n/a	n/a	n/a
53.7617	0.9	INK	2	Neutral	xxxxxxxx	xxxxxxxx	niebieski	blue	hit	n/a
54.6281	n/a	RESPONSE	n/a	n/a	n/a	n/a	n/a	n/a	n/a	blue
54.6618	1.0167	ITI	n/a	n/a	n/a	n/a	n/a	n/a	n/a	n/a
55.6784	0.5167	FIXCROSS	n/a	n/a	n/a	n/a	n/a	n/a	n/a	n/a
56.1951	1.0667	INK	3	Incongruent	czerwony	red	zielony	green	hit	n/a
57.2356	n/a	RESPONSE	n/a	n/a	n/a	n/a	n/a	n/a	n/a	green
57.2618	1.0167	ITI	n/a	n/a	n/a	n/a	n/a	n/a	n/a	n/a
58.2784	0.5167	FIXCROSS	n/a	n/a	n/a	n/a	n/a	n/a	n/a	n/a
58.7951	0.7667	INK	4	Neutral	xxxxxxxx	xxxxxxxx	zielony	green	hit	n/a
59.5391	n/a	RESPONSE	n/a	n/a	n/a	n/a	n/a	n/a	n/a	green
59.5618	1.0333	ITI	n/a	n/a	n/a	n/a	n/a	n/a	n/a	n/a
60.5951	0.5167	FIXCROSS	n/a	n/a	n/a	n/a	n/a	n/a	n/a	n/a
61.1118	0.9833	INK	5	Neutral	xxxxxxxx	xxxxxxxx	żółty	yellow	hit	n/a
62.0665	n/a	RESPONSE	n/a	n/a	n/a	n/a	n/a	n/a	n/a	yellow
62.0951	1.0167	ITI	n/a	n/a	n/a	n/a	n/a	n/a	n/a	n/a
63.1118	0.5167	FIXCROSS	n/a	n/a	n/a	n/a	n/a	n/a	n/a	n/a
63.6285	1.0333	INK	6	Neutral	xxxxxxxx	xxxxxxxx	zielony	green	hit	n/a
64.642	n/a	RESPONSE	n/a	n/a	n/a	n/a	n/a	n/a	n/a	green
64.6618	1.0167	ITI	n/a	n/a	n/a	n/a	n/a	n/a	n/a	n/a
65.6785	0.5167	FIXCROSS	n/a	n/a	n/a	n/a	n/a	n/a	n/a	n/a
66.1952	1.0667	INK	7	Incongruent	zielony	green	żółty	yellow	hit	n/a
67.2334	n/a	RESPONSE	n/a	n/a	n/a	n/a	n/a	n/a	n/a	yellow
67.2618	1.0167	ITI	n/a	n/a	n/a	n/a	n/a	n/a	n/a	n/a
68.2785	0.5167	FIXCROSS	n/a	n/a	n/a	n/a	n/a	n/a	n/a	n/a
68.7952	0.9167	INK	8	Neutral	xxxxxxx	xxxxxxx	niebieski	blue	hit	n/a
69.6809	n/a	RESPONSE	n/a	n/a	n/a	n/a	n/a	n/a	n/a	blue
69.7119	1.0167	ITI	n/a	n/a	n/a	n/a	n/a	n/a	n/a	n/a
70.7285	0.5167	FIXCROSS	n/a	n/a	n/a	n/a	n/a	n/a	n/a	n/a
71.2452	0.9333	INK	9	Incongruent	żółty	yellow	czerwony	red	hit	n/a
72.1604	n/a	RESPONSE	n/a	n/a	n/a	n/a	n/a	n/a	n/a	red
72.1786	1.0167	ITI	n/a	n/a	n/a	n/a	n/a	n/a	n/a	n/a
73.1952	0.5167	FIXCROSS	n/a	n/a	n/a	n/a	n/a	n/a	n/a	n/a
73.7119	1.1667	INK	10	Neutral	xxxxx	xxxxx	niebieski	blue	hit	n/a
74.8478	n/a	RESPONSE	n/a	n/a	n/a	n/a	n/a	n/a	n/a	blue
74.8786	1.0167	ITI	n/a	n/a	n/a	n/a	n/a	n/a	n/a	n/a
75.8952	0.5167	FIXCROSS	n/a	n/a	n/a	n/a	n/a	n/a	n/a	n/a
76.4119	0.8833	INK	11	Neutral	xxxxx	xxxxx	niebieski	blue	hit	n/a
77.2633	n/a	RESPONSE	n/a	n/a	n/a	n/a	n/a	n/a	n/a	blue
77.2952	1.0167	ITI	n/a	n/a	n/a	n/a	n/a	n/a	n/a	n/a
78.3119	0.5167	FIXCROSS	n/a	n/a	n/a	n/a	n/a	n/a	n/a	n/a
78.8286	0.8667	INK	12	Incongruent	zielony	green	niebieski	blue	hit	n/a
79.6628	n/a	RESPONSE	n/a	n/a	n/a	n/a	n/a	n/a	n/a	blue
79.6953	1.0167	ITI	n/a	n/a	n/a	n/a	n/a	n/a	n/a	n/a
80.7119	0.5167	FIXCROSS	n/a	n/a	n/a	n/a	n/a	n/a	n/a	n/a
81.2286	0.8167	INK	13	Neutral	xxxxxxx	xxxxxxx	czerwony	red	hit	n/a
82.0143	n/a	RESPONSE	n/a	n/a	n/a	n/a	n/a	n/a	n/a	red
82.0453	1.0167	ITI	n/a	n/a	n/a	n/a	n/a	n/a	n/a	n/a
83.062	0.5167	FIXCROSS	n/a	n/a	n/a	n/a	n/a	n/a	n/a	n/a
83.5786	0.65	INK	14	Neutral	xxxxxxxxx	xxxxxxxxx	czerwony	red	hit	n/a
84.2058	n/a	RESPONSE	n/a	n/a	n/a	n/a	n/a	n/a	n/a	red
84.2286	1.0167	ITI	n/a	n/a	n/a	n/a	n/a	n/a	n/a	n/a
85.2453	0.5167	FIXCROSS	n/a	n/a	n/a	n/a	n/a	n/a	n/a	n/a
85.762	0.9667	INK	15	Neutral	xxxxxxxxx	xxxxxxxxx	zielony	green	hit	n/a
86.7013	n/a	RESPONSE	n/a	n/a	n/a	n/a	n/a	n/a	n/a	green
86.7286	1.0167	ITI	n/a	n/a	n/a	n/a	n/a	n/a	n/a	n/a
87.7453	0.5167	FIXCROSS	n/a	n/a	n/a	n/a	n/a	n/a	n/a	n/a
88.262	0.9667	INK	16	Incongruent	niebieski	blue	żółty	yellow	hit	n/a
89.1968	n/a	RESPONSE	n/a	n/a	n/a	n/a	n/a	n/a	n/a	yellow
89.2287	1.0167	ITI	n/a	n/a	n/a	n/a	n/a	n/a	n/a	n/a
90.2453	0.5167	FIXCROSS	n/a	n/a	n/a	n/a	n/a	n/a	n/a	n/a
90.762	0.7667	INK	17	Neutral	xxxxxxx	xxxxxxx	czerwony	red	hit	n/a
91.5003	n/a	RESPONSE	n/a	n/a	n/a	n/a	n/a	n/a	n/a	red
91.5287	1.0167	ITI	n/a	n/a	n/a	n/a	n/a	n/a	n/a	n/a
92.5454	0.5167	FIXCROSS	n/a	n/a	n/a	n/a	n/a	n/a	n/a	n/a
93.062	1.0167	INK	18	Neutral	xxxxx	xxxxx	zielony	green	hit	n/a
94.0598	n/a	RESPONSE	n/a	n/a	n/a	n/a	n/a	n/a	n/a	green
94.0787	1.0167	ITI	n/a	n/a	n/a	n/a	n/a	n/a	n/a	n/a
95.0954	0.5167	FIXCROSS	n/a	n/a	n/a	n/a	n/a	n/a	n/a	n/a
95.612	0.8167	INK	19	Neutral	xxxxxxxx	xxxxxxxx	żółty	yellow	hit	n/a
96.4113	n/a	RESPONSE	n/a	n/a	n/a	n/a	n/a	n/a	n/a	yellow
96.4287	1.0167	ITI	n/a	n/a	n/a	n/a	n/a	n/a	n/a	n/a
97.4454	0.5167	FIXCROSS	n/a	n/a	n/a	n/a	n/a	n/a	n/a	n/a
97.9621	0.8333	INK	20	Neutral	xxxxxxxxx	xxxxxxxxx	czerwony	red	hit	n/a
98.7628	n/a	RESPONSE	n/a	n/a	n/a	n/a	n/a	n/a	n/a	red
98.7954	1.0167	ITI	n/a	n/a	n/a	n/a	n/a	n/a	n/a	n/a
99.8121	0.5167	FIXCROSS	n/a	n/a	n/a	n/a	n/a	n/a	n/a	n/a
100.3287	1.0833	INK	21	Incongruent	czerwony	red	zielony	green	hit	n/a
101.3862	n/a	RESPONSE	n/a	n/a	n/a	n/a	n/a	n/a	n/a	green
101.4121	1.0167	ITI	n/a	n/a	n/a	n/a	n/a	n/a	n/a	n/a
102.4288	0.5167	FIXCROSS	n/a	n/a	n/a	n/a	n/a	n/a	n/a	n/a
102.9454	1.55	INK	22	Incongruent	zielony	green	niebieski	blue	hit	n/a
104.4735	n/a	RESPONSE	n/a	n/a	n/a	n/a	n/a	n/a	n/a	blue
104.4954	1.0167	ITI	n/a	n/a	n/a	n/a	n/a	n/a	n/a	n/a
105.5121	0.5167	FIXCROSS	n/a	n/a	n/a	n/a	n/a	n/a	n/a	n/a
106.0288	1.2167	INK	23	Incongruent	żółty	yellow	niebieski	blue	hit	n/a
107.225	n/a	RESPONSE	n/a	n/a	n/a	n/a	n/a	n/a	n/a	blue
107.2455	1.0167	ITI	n/a	n/a	n/a	n/a	n/a	n/a	n/a	n/a
108.2621	0.5167	FIXCROSS	n/a	n/a	n/a	n/a	n/a	n/a	n/a	n/a
108.7788	0.85	INK	24	Incongruent	zielony	green	czerwony	red	hit	n/a
109.6085	n/a	RESPONSE	n/a	n/a	n/a	n/a	n/a	n/a	n/a	red
109.6288	1.0167	ITI	n/a	n/a	n/a	n/a	n/a	n/a	n/a	n/a
110.6455	0.5167	FIXCROSS	n/a	n/a	n/a	n/a	n/a	n/a	n/a	n/a
111.1621	0.9333	INK	25	Incongruent	czerwony	red	niebieski	blue	hit	n/a
112.072	n/a	RESPONSE	n/a	n/a	n/a	n/a	n/a	n/a	n/a	blue
112.0955	1.0167	ITI	n/a	n/a	n/a	n/a	n/a	n/a	n/a	n/a
113.1122	0.5167	FIXCROSS	n/a	n/a	n/a	n/a	n/a	n/a	n/a	n/a
113.6288	0.9833	INK	26	Neutral	xxxxxxxxx	xxxxxxxxx	żółty	yellow	hit	n/a
114.5834	n/a	RESPONSE	n/a	n/a	n/a	n/a	n/a	n/a	n/a	yellow
114.6122	1.0167	ITI	n/a	n/a	n/a	n/a	n/a	n/a	n/a	n/a
115.6288	0.5167	FIXCROSS	n/a	n/a	n/a	n/a	n/a	n/a	n/a	n/a
116.1455	1.2667	INK	27	Incongruent	niebieski	blue	żółty	yellow	hit	n/a
117.3828	n/a	RESPONSE	n/a	n/a	n/a	n/a	n/a	n/a	n/a	yellow
117.4122	1.0167	ITI	n/a	n/a	n/a	n/a	n/a	n/a	n/a	n/a
118.4289	0.5167	FIXCROSS	n/a	n/a	n/a	n/a	n/a	n/a	n/a	n/a
118.9455	0.8167	INK	28	Neutral	xxxxxxx	xxxxxxx	żółty	yellow	hit	n/a
119.7344	n/a	RESPONSE	n/a	n/a	n/a	n/a	n/a	n/a	n/a	yellow
119.7622	1.0167	ITI	n/a	n/a	n/a	n/a	n/a	n/a	n/a	n/a
120.7789	0.5167	FIXCROSS	n/a	n/a	n/a	n/a	n/a	n/a	n/a	n/a
121.2955	0.75	INK	29	Neutral	xxxxx	xxxxx	czerwony	red	hit	n/a
122.0218	n/a	RESPONSE	n/a	n/a	n/a	n/a	n/a	n/a	n/a	red
122.0456	1.0167	ITI	n/a	n/a	n/a	n/a	n/a	n/a	n/a	n/a
123.0622	0.5167	FIXCROSS	n/a	n/a	n/a	n/a	n/a	n/a	n/a	n/a
123.5789	0.9333	INK	30	Incongruent	niebieski	blue	czerwony	red	hit	n/a
124.4854	n/a	RESPONSE	n/a	n/a	n/a	n/a	n/a	n/a	n/a	red
124.5122	1.0167	ITI	n/a	n/a	n/a	n/a	n/a	n/a	n/a	n/a
125.5289	0.5167	FIXCROSS	n/a	n/a	n/a	n/a	n/a	n/a	n/a	n/a
126.0456	0.9667	INK	31	Incongruent	żółty	yellow	zielony	green	hit	n/a
126.9808	n/a	RESPONSE	n/a	n/a	n/a	n/a	n/a	n/a	n/a	green
127.0123	1.0167	ITI	n/a	n/a	n/a	n/a	n/a	n/a	n/a	n/a
128.0289	0.5167	FIXCROSS	n/a	n/a	n/a	n/a	n/a	n/a	n/a	n/a
128.5456	1.0167	INK	32	Incongruent	żółty	yellow	czerwony	red	hit	n/a
129.5403	n/a	RESPONSE	n/a	n/a	n/a	n/a	n/a	n/a	n/a	red
129.5623	1.0167	ITI	n/a	n/a	n/a	n/a	n/a	n/a	n/a	n/a
130.579	0.5167	FIXCROSS	n/a	n/a	n/a	n/a	n/a	n/a	n/a	n/a
131.0956	0.95	INK	33	Neutral	xxxxxxxx	xxxxxxxx	żółty	yellow	hit	n/a
132.0198	n/a	RESPONSE	n/a	n/a	n/a	n/a	n/a	n/a	n/a	yellow
132.0456	1.0167	ITI	n/a	n/a	n/a	n/a	n/a	n/a	n/a	n/a
133.0623	0.5167	FIXCROSS	n/a	n/a	n/a	n/a	n/a	n/a	n/a	n/a
133.579	0.8833	INK	34	Neutral	xxxxx	xxxxx	zielony	green	hit	n/a
134.4353	n/a	RESPONSE	n/a	n/a	n/a	n/a	n/a	n/a	n/a	green
134.4623	1.0167	ITI	n/a	n/a	n/a	n/a	n/a	n/a	n/a	n/a
135.479	0.5167	FIXCROSS	n/a	n/a	n/a	n/a	n/a	n/a	n/a	n/a
135.9957	1.4167	INK	35	Incongruent	żółty	yellow	niebieski	blue	hit	n/a
137.3786	n/a	RESPONSE	n/a	n/a	n/a	n/a	n/a	n/a	n/a	blue
137.4123	1.0167	ITI	n/a	n/a	n/a	n/a	n/a	n/a	n/a	n/a
138.429	0.5167	FIXCROSS	n/a	n/a	n/a	n/a	n/a	n/a	n/a	n/a
138.9457	0.6	INK	36	Neutral	xxxxxxxxx	xxxxxxxxx	czerwony	red	hit	n/a
139.5222	n/a	RESPONSE	n/a	n/a	n/a	n/a	n/a	n/a	n/a	red
139.5457	1.0167	ITI	n/a	n/a	n/a	n/a	n/a	n/a	n/a	n/a
140.5624	0.5167	FIXCROSS	n/a	n/a	n/a	n/a	n/a	n/a	n/a	n/a
141.079	0.9833	INK	37	Neutral	xxxxxxx	xxxxxxx	niebieski	blue	hit	n/a
142.0337	n/a	RESPONSE	n/a	n/a	n/a	n/a	n/a	n/a	n/a	blue
142.0624	1.0167	ITI	n/a	n/a	n/a	n/a	n/a	n/a	n/a	n/a
143.079	0.5167	FIXCROSS	n/a	n/a	n/a	n/a	n/a	n/a	n/a	n/a
143.5957	1.4167	INK	38	Incongruent	czerwony	red	żółty	yellow	hit	n/a
144.993	n/a	RESPONSE	n/a	n/a	n/a	n/a	n/a	n/a	n/a	yellow
145.0124	1.0167	ITI	n/a	n/a	n/a	n/a	n/a	n/a	n/a	n/a
146.029	0.5167	FIXCROSS	n/a	n/a	n/a	n/a	n/a	n/a	n/a	n/a
146.5457	1.0167	INK	39	Incongruent	czerwony	red	żółty	yellow	hit	n/a
147.5365	n/a	RESPONSE	n/a	n/a	n/a	n/a	n/a	n/a	n/a	yellow
147.5624	1.0167	ITI	n/a	n/a	n/a	n/a	n/a	n/a	n/a	n/a
148.5791	0.5167	FIXCROSS	n/a	n/a	n/a	n/a	n/a	n/a	n/a	n/a
149.0957	1.0334	INK	40	Incongruent	żółty	yellow	zielony	green	hit	n/a
150.096	n/a	RESPONSE	n/a	n/a	n/a	n/a	n/a	n/a	n/a	green
150.1291	1.0167	ITI	n/a	n/a	n/a	n/a	n/a	n/a	n/a	n/a
151.1458	0.5167	FIXCROSS	n/a	n/a	n/a	n/a	n/a	n/a	n/a	n/a
151.6624	0.7833	INK	41	Neutral	xxxxxxx	xxxxxxx	czerwony	red	hit	n/a
152.4155	n/a	RESPONSE	n/a	n/a	n/a	n/a	n/a	n/a	n/a	red
152.4458	1.0166	ITI	n/a	n/a	n/a	n/a	n/a	n/a	n/a	n/a
153.4623	0.5168	FIXCROSS	n/a	n/a	n/a	n/a	n/a	n/a	n/a	n/a
153.9791	0.8833	INK	42	Incongruent	niebieski	blue	czerwony	red	hit	n/a
154.8309	n/a	RESPONSE	n/a	n/a	n/a	n/a	n/a	n/a	n/a	red
154.8625	1.0167	ITI	n/a	n/a	n/a	n/a	n/a	n/a	n/a	n/a
155.8791	0.5167	FIXCROSS	n/a	n/a	n/a	n/a	n/a	n/a	n/a	n/a
156.3958	1.6	INK	43	Incongruent	czerwony	red	niebieski	blue	hit	n/a
157.9663	n/a	RESPONSE	n/a	n/a	n/a	n/a	n/a	n/a	n/a	blue
157.9958	1.0167	ITI	n/a	n/a	n/a	n/a	n/a	n/a	n/a	n/a
159.0125	0.5167	FIXCROSS	n/a	n/a	n/a	n/a	n/a	n/a	n/a	n/a
159.5292	0.8833	INK	44	Incongruent	zielony	green	niebieski	blue	hit	n/a
160.3818	n/a	RESPONSE	n/a	n/a	n/a	n/a	n/a	n/a	n/a	blue
160.4125	1.0167	ITI	n/a	n/a	n/a	n/a	n/a	n/a	n/a	n/a
161.4292	0.5167	FIXCROSS	n/a	n/a	n/a	n/a	n/a	n/a	n/a	n/a
161.9458	0.7667	INK	45	Incongruent	żółty	yellow	czerwony	red	hit	n/a
162.6853	n/a	RESPONSE	n/a	n/a	n/a	n/a	n/a	n/a	n/a	red
162.7125	1.0167	ITI	n/a	n/a	n/a	n/a	n/a	n/a	n/a	n/a
163.7292	0.5167	FIXCROSS	n/a	n/a	n/a	n/a	n/a	n/a	n/a	n/a
164.2459	0.6667	INK	46	Incongruent	zielony	green	czerwony	red	hit	n/a
164.8929	n/a	RESPONSE	n/a	n/a	n/a	n/a	n/a	n/a	n/a	red
164.9125	1.0167	ITI	n/a	n/a	n/a	n/a	n/a	n/a	n/a	n/a
165.9292	0.5167	FIXCROSS	n/a	n/a	n/a	n/a	n/a	n/a	n/a	n/a
166.4459	0.8667	INK	47	Incongruent	niebieski	blue	zielony	green	hit	n/a
167.2923	n/a	RESPONSE	n/a	n/a	n/a	n/a	n/a	n/a	n/a	green
167.3125	1.0167	ITI	n/a	n/a	n/a	n/a	n/a	n/a	n/a	n/a
168.3292	0.5167	FIXCROSS	n/a	n/a	n/a	n/a	n/a	n/a	n/a	n/a
168.8459	1.0167	INK	48	Incongruent	czerwony	red	niebieski	blue	hit	n/a
169.8358	n/a	RESPONSE	n/a	n/a	n/a	n/a	n/a	n/a	n/a	blue
169.8626	1.0167	ITI	n/a	n/a	n/a	n/a	n/a	n/a	n/a	n/a
170.8792	0.5167	FIXCROSS	n/a	n/a	n/a	n/a	n/a	n/a	n/a	n/a
171.3959	1.0333	INK	49	Neutral	xxxxxxxxx	xxxxxxxxx	żółty	yellow	hit	n/a
172.3953	n/a	RESPONSE	n/a	n/a	n/a	n/a	n/a	n/a	n/a	yellow
172.4292	1.0167	ITI	n/a	n/a	n/a	n/a	n/a	n/a	n/a	n/a
173.4459	0.5167	FIXCROSS	n/a	n/a	n/a	n/a	n/a	n/a	n/a	n/a
173.9626	0.8334	INK	50	Neutral	xxxxx	xxxxx	zielony	green	hit	n/a
174.7628	n/a	RESPONSE	n/a	n/a	n/a	n/a	n/a	n/a	n/a	green
174.7959	1.0167	ITI	n/a	n/a	n/a	n/a	n/a	n/a	n/a	n/a
175.8126	0.5167	FIXCROSS	n/a	n/a	n/a	n/a	n/a	n/a	n/a	n/a
176.3293	1.1	INK	51	Incongruent	niebieski	blue	zielony	green	hit	n/a
177.4022	n/a	RESPONSE	n/a	n/a	n/a	n/a	n/a	n/a	n/a	green
177.4293	1.0167	ITI	n/a	n/a	n/a	n/a	n/a	n/a	n/a	n/a
178.4459	0.5167	FIXCROSS	n/a	n/a	n/a	n/a	n/a	n/a	n/a	n/a
178.9626	0.95	INK	52	Neutral	xxxxxxxxx	xxxxxxxxx	żółty	yellow	hit	n/a
179.8817	n/a	RESPONSE	n/a	n/a	n/a	n/a	n/a	n/a	n/a	yellow
179.9126	1.0167	ITI	n/a	n/a	n/a	n/a	n/a	n/a	n/a	n/a
180.9293	0.5167	FIXCROSS	n/a	n/a	n/a	n/a	n/a	n/a	n/a	n/a
181.446	0.9167	INK	53	Incongruent	zielony	green	żółty	yellow	hit	n/a
182.3292	n/a	RESPONSE	n/a	n/a	n/a	n/a	n/a	n/a	n/a	yellow
182.3626	1.0167	ITI	n/a	n/a	n/a	n/a	n/a	n/a	n/a	n/a
183.3793	0.5167	FIXCROSS	n/a	n/a	n/a	n/a	n/a	n/a	n/a	n/a
183.896	0.8	INK	54	Incongruent	niebieski	blue	żółty	yellow	hit	n/a
184.6647	n/a	RESPONSE	n/a	n/a	n/a	n/a	n/a	n/a	n/a	yellow
184.696	1.0167	ITI	n/a	n/a	n/a	n/a	n/a	n/a	n/a	n/a
185.7127	0.5167	FIXCROSS	n/a	n/a	n/a	n/a	n/a	n/a	n/a	n/a
186.2293	0.9333	INK	55	Neutral	xxxxxxxx	xxxxxxxx	zielony	green	hit	n/a
187.1441	n/a	RESPONSE	n/a	n/a	n/a	n/a	n/a	n/a	n/a	green
187.1627	1.0167	ITI	n/a	n/a	n/a	n/a	n/a	n/a	n/a	n/a
188.1793	0.5167	FIXCROSS	n/a	n/a	n/a	n/a	n/a	n/a	n/a	n/a
188.696	0.9167	INK	56	Neutral	xxxxxxx	xxxxxxx	żółty	yellow	hit	n/a
189.5916	n/a	RESPONSE	n/a	n/a	n/a	n/a	n/a	n/a	n/a	yellow
189.6127	1.0167	ITI	n/a	n/a	n/a	n/a	n/a	n/a	n/a	n/a
190.6294	0.5167	FIXCROSS	n/a	n/a	n/a	n/a	n/a	n/a	n/a	n/a
191.146	1.0167	INK	57	Neutral	xxxxxxx	xxxxxxx	żółty	yellow	hit	n/a
192.1351	n/a	RESPONSE	n/a	n/a	n/a	n/a	n/a	n/a	n/a	yellow
192.1627	1.0167	ITI	n/a	n/a	n/a	n/a	n/a	n/a	n/a	n/a
193.1794	0.5167	FIXCROSS	n/a	n/a	n/a	n/a	n/a	n/a	n/a	n/a
193.6961	0.85	INK	58	Incongruent	niebieski	blue	czerwony	red	hit	n/a
194.5186	n/a	RESPONSE	n/a	n/a	n/a	n/a	n/a	n/a	n/a	red
194.5461	1.0167	ITI	n/a	n/a	n/a	n/a	n/a	n/a	n/a	n/a
195.5627	0.5167	FIXCROSS	n/a	n/a	n/a	n/a	n/a	n/a	n/a	n/a
196.0794	0.95	INK	59	Neutral	xxxxxxxxx	xxxxxxxxx	zielony	green	hit	n/a
196.9981	n/a	RESPONSE	n/a	n/a	n/a	n/a	n/a	n/a	n/a	green
197.0294	1.0167	ITI	n/a	n/a	n/a	n/a	n/a	n/a	n/a	n/a
198.0461	0.5167	FIXCROSS	n/a	n/a	n/a	n/a	n/a	n/a	n/a	n/a
198.5628	0.7333	INK	60	Incongruent	niebieski	blue	zielony	green	hit	n/a
199.2696	n/a	RESPONSE	n/a	n/a	n/a	n/a	n/a	n/a	n/a	green
199.2961	1.0167	ITI	n/a	n/a	n/a	n/a	n/a	n/a	n/a	n/a
200.3128	0.5167	FIXCROSS	n/a	n/a	n/a	n/a	n/a	n/a	n/a	n/a
200.8294	0.5333	INK	61	Neutral	xxxxx	xxxxx	czerwony	red	hit	n/a
201.3331	n/a	RESPONSE	n/a	n/a	n/a	n/a	n/a	n/a	n/a	red
201.3628	1.0167	ITI	n/a	n/a	n/a	n/a	n/a	n/a	n/a	n/a
202.3794	0.5167	FIXCROSS	n/a	n/a	n/a	n/a	n/a	n/a	n/a	n/a
202.8961	0.95	INK	62	Incongruent	żółty	yellow	zielony	green	hit	n/a
203.8126	n/a	RESPONSE	n/a	n/a	n/a	n/a	n/a	n/a	n/a	green
203.8461	1.0167	ITI	n/a	n/a	n/a	n/a	n/a	n/a	n/a	n/a
204.8628	0.5167	FIXCROSS	n/a	n/a	n/a	n/a	n/a	n/a	n/a	n/a
205.3795	0.8333	INK	63	Neutral	xxxxx	xxxxx	czerwony	red	hit	n/a
206.1801	n/a	RESPONSE	n/a	n/a	n/a	n/a	n/a	n/a	n/a	red
206.2128	1.0167	ITI	n/a	n/a	n/a	n/a	n/a	n/a	n/a	n/a
207.2295	0.5167	FIXCROSS	n/a	n/a	n/a	n/a	n/a	n/a	n/a	n/a
207.7461	0.8834	INK	64	Neutral	xxxxxxx	xxxxxxx	niebieski	blue	hit	n/a
208.5957	n/a	RESPONSE	n/a	n/a	n/a	n/a	n/a	n/a	n/a	blue
208.6295	1.0167	ITI	n/a	n/a	n/a	n/a	n/a	n/a	n/a	n/a
209.6462	0.5167	FIXCROSS	n/a	n/a	n/a	n/a	n/a	n/a	n/a	n/a
210.1628	0.95	INK	65	Incongruent	czerwony	red	żółty	yellow	hit	n/a
211.0911	n/a	RESPONSE	n/a	n/a	n/a	n/a	n/a	n/a	n/a	yellow
211.1128	1.0167	ITI	n/a	n/a	n/a	n/a	n/a	n/a	n/a	n/a
212.1295	0.5167	FIXCROSS	n/a	n/a	n/a	n/a	n/a	n/a	n/a	n/a
212.6462	0.9	INK	66	Neutral	xxxxxxxxx	xxxxxxxxx	zielony	green	hit	n/a
213.5226	n/a	RESPONSE	n/a	n/a	n/a	n/a	n/a	n/a	n/a	green
213.5462	1.0167	ITI	n/a	n/a	n/a	n/a	n/a	n/a	n/a	n/a
214.5629	0.5167	FIXCROSS	n/a	n/a	n/a	n/a	n/a	n/a	n/a	n/a
215.0795	0.9667	INK	67	Neutral	xxxxxxxx	xxxxxxxx	niebieski	blue	hit	n/a
216.0181	n/a	RESPONSE	n/a	n/a	n/a	n/a	n/a	n/a	n/a	blue
216.0462	1.0167	ITI	n/a	n/a	n/a	n/a	n/a	n/a	n/a	n/a
217.0629	0.5167	FIXCROSS	n/a	n/a	n/a	n/a	n/a	n/a	n/a	n/a
217.5796	1.1833	INK	68	Incongruent	zielony	green	czerwony	red	hit	n/a
218.7375	n/a	RESPONSE	n/a	n/a	n/a	n/a	n/a	n/a	n/a	red
218.7629	1.0167	ITI	n/a	n/a	n/a	n/a	n/a	n/a	n/a	n/a
219.7796	0.5167	FIXCROSS	n/a	n/a	n/a	n/a	n/a	n/a	n/a	n/a
220.2962	0.9667	INK	69	Neutral	xxxxxxxx	xxxxxxxx	niebieski	blue	hit	n/a
221.233	n/a	RESPONSE	n/a	n/a	n/a	n/a	n/a	n/a	n/a	blue
221.2629	1.0167	ITI	n/a	n/a	n/a	n/a	n/a	n/a	n/a	n/a
222.2796	0.5167	FIXCROSS	n/a	n/a	n/a	n/a	n/a	n/a	n/a	n/a
222.7962	0.9334	INK	70	Incongruent	czerwony	red	zielony	green	hit	n/a
223.6964	n/a	RESPONSE	n/a	n/a	n/a	n/a	n/a	n/a	n/a	green
223.7296	1.0167	ITI	n/a	n/a	n/a	n/a	n/a	n/a	n/a	n/a
224.7463	0.5167	FIXCROSS	n/a	n/a	n/a	n/a	n/a	n/a	n/a	n/a
225.2629	0.9333	INK	71	Neutral	xxxxx	xxxxx	niebieski	blue	hit	n/a
226.1759	n/a	RESPONSE	n/a	n/a	n/a	n/a	n/a	n/a	n/a	blue
226.1963	1.0167	ITI	n/a	n/a	n/a	n/a	n/a	n/a	n/a	n/a
227.213	0.5167	FIXCROSS	n/a	n/a	n/a	n/a	n/a	n/a	n/a	n/a
227.7296	0.75	INK	72	Incongruent	zielony	green	żółty	yellow	hit	n/a
228.4475	n/a	RESPONSE	n/a	n/a	n/a	n/a	n/a	n/a	n/a	yellow
228.4796	1.0833	ITI	n/a	n/a	n/a	n/a	n/a	n/a	n/a	n/a
251.1787	n/a	RESPONSE	n/a	n/a	n/a	n/a	n/a	n/a	n/a	n/a
251.2464	1.0167	ITI	n/a	n/a	n/a	n/a	n/a	n/a	n/a	n/a
252.2631	0.5167	FIXCROSS	n/a	n/a	n/a	n/a	n/a	n/a	n/a	n/a
252.7798	1.3	T_COLOR_NAME	1	Incongruent	żółty	yellow	zielony	green	incorrect	n/a
254.0581	n/a	RESPONSE	n/a	n/a	n/a	n/a	n/a	n/a	n/a	green
254.0798	0.5167	FEEDBACK	n/a	n/a	n/a	n/a	n/a	n/a	n/a	n/a
254.5965	1.0167	ITI	n/a	n/a	n/a	n/a	n/a	n/a	n/a	n/a
255.6131	0.5167	FIXCROSS	n/a	n/a	n/a	n/a	n/a	n/a	n/a	n/a
256.1298	2.0833	T_COLOR_NAME	2	Incongruent	czerwony	red	niebieski	blue	hit	n/a
258.1852	n/a	RESPONSE	n/a	n/a	n/a	n/a	n/a	n/a	n/a	red
258.2132	0.5167	FEEDBACK	n/a	n/a	n/a	n/a	n/a	n/a	n/a	n/a
258.7298	1.0167	ITI	n/a	n/a	n/a	n/a	n/a	n/a	n/a	n/a
259.7465	0.5167	FIXCROSS	n/a	n/a	n/a	n/a	n/a	n/a	n/a	n/a
260.2632	1.3167	T_COLOR_NAME	3	Incongruent	zielony	green	żółty	yellow	hit	n/a
261.5445	n/a	RESPONSE	n/a	n/a	n/a	n/a	n/a	n/a	n/a	green
261.5799	0.5167	FEEDBACK	n/a	n/a	n/a	n/a	n/a	n/a	n/a	n/a
262.0965	1.0167	ITI	n/a	n/a	n/a	n/a	n/a	n/a	n/a	n/a
263.1132	0.5167	FIXCROSS	n/a	n/a	n/a	n/a	n/a	n/a	n/a	n/a
263.6299	1.5333	T_COLOR_NAME	4	Neutral	czerwony	red	Neutral	Neutral	hit	n/a
265.1277	n/a	RESPONSE	n/a	n/a	n/a	n/a	n/a	n/a	n/a	red
265.1632	0.5167	FEEDBACK	n/a	n/a	n/a	n/a	n/a	n/a	n/a	n/a
265.6799	1.0167	ITI	n/a	n/a	n/a	n/a	n/a	n/a	n/a	n/a
266.6966	0.5167	FIXCROSS	n/a	n/a	n/a	n/a	n/a	n/a	n/a	n/a
267.2132	1.2	T_COLOR_NAME	5	Incongruent	niebieski	blue	czerwony	red	hit	n/a
268.391	n/a	RESPONSE	n/a	n/a	n/a	n/a	n/a	n/a	n/a	blue
268.4132	0.5167	FEEDBACK	n/a	n/a	n/a	n/a	n/a	n/a	n/a	n/a
268.9299	1.0167	ITI	n/a	n/a	n/a	n/a	n/a	n/a	n/a	n/a
269.9466	0.5167	FIXCROSS	n/a	n/a	n/a	n/a	n/a	n/a	n/a	n/a
270.4633	1.5833	T_COLOR_NAME	6	Neutral	zielony	green	Neutral	Neutral	hit	n/a
272.0223	n/a	RESPONSE	n/a	n/a	n/a	n/a	n/a	n/a	n/a	green
272.0466	0.5167	FEEDBACK	n/a	n/a	n/a	n/a	n/a	n/a	n/a	n/a
272.5633	1.0167	ITI	n/a	n/a	n/a	n/a	n/a	n/a	n/a	n/a
273.5799	0.5167	FIXCROSS	n/a	n/a	n/a	n/a	n/a	n/a	n/a	n/a
274.0966	1.3167	T_COLOR_NAME	7	Incongruent	żółty	yellow	czerwony	red	hit	n/a
275.3816	n/a	RESPONSE	n/a	n/a	n/a	n/a	n/a	n/a	n/a	yellow
275.4133	0.5167	FEEDBACK	n/a	n/a	n/a	n/a	n/a	n/a	n/a	n/a
275.93	1.0167	ITI	n/a	n/a	n/a	n/a	n/a	n/a	n/a	n/a
276.9466	0.5167	FIXCROSS	n/a	n/a	n/a	n/a	n/a	n/a	n/a	n/a
277.4633	1.3334	T_COLOR_NAME	8	Neutral	żółty	yellow	Neutral	Neutral	hit	n/a
278.7729	n/a	RESPONSE	n/a	n/a	n/a	n/a	n/a	n/a	n/a	yellow
278.7966	0.5167	FEEDBACK	n/a	n/a	n/a	n/a	n/a	n/a	n/a	n/a
279.3133	1.0167	ITI	n/a	n/a	n/a	n/a	n/a	n/a	n/a	n/a
280.33	0.5167	FIXCROSS	n/a	n/a	n/a	n/a	n/a	n/a	n/a	n/a
280.8466	1.4	T_COLOR_NAME	9	Incongruent	czerwony	red	zielony	green	hit	n/a
282.2121	n/a	RESPONSE	n/a	n/a	n/a	n/a	n/a	n/a	n/a	red
282.2467	0.5167	FEEDBACK	n/a	n/a	n/a	n/a	n/a	n/a	n/a	n/a
282.7633	1.0167	ITI	n/a	n/a	n/a	n/a	n/a	n/a	n/a	n/a
283.78	0.5167	FIXCROSS	n/a	n/a	n/a	n/a	n/a	n/a	n/a	n/a
284.2967	0.6333	T_COLOR_NAME	10	Neutral	czerwony	red	Neutral	Neutral	hit	n/a
284.8996	n/a	RESPONSE	n/a	n/a	n/a	n/a	n/a	n/a	n/a	red
284.93	0.5167	FEEDBACK	n/a	n/a	n/a	n/a	n/a	n/a	n/a	n/a
285.4467	1.0167	ITI	n/a	n/a	n/a	n/a	n/a	n/a	n/a	n/a
286.4634	0.5167	FIXCROSS	n/a	n/a	n/a	n/a	n/a	n/a	n/a	n/a
286.98	1.3	T_COLOR_NAME	11	Neutral	zielony	green	Neutral	Neutral	hit	n/a
288.2589	n/a	RESPONSE	n/a	n/a	n/a	n/a	n/a	n/a	n/a	green
288.28	0.5167	FEEDBACK	n/a	n/a	n/a	n/a	n/a	n/a	n/a	n/a
288.7967	1.0167	ITI	n/a	n/a	n/a	n/a	n/a	n/a	n/a	n/a
289.8134	0.5167	FIXCROSS	n/a	n/a	n/a	n/a	n/a	n/a	n/a	n/a
290.33	1.2	T_COLOR_NAME	12	Neutral	niebieski	blue	Neutral	Neutral	hit	n/a
291.5062	n/a	RESPONSE	n/a	n/a	n/a	n/a	n/a	n/a	n/a	blue
291.5301	0.5167	FEEDBACK	n/a	n/a	n/a	n/a	n/a	n/a	n/a	n/a
292.0467	1.0333	ITI	n/a	n/a	n/a	n/a	n/a	n/a	n/a	n/a
296.8011	n/a	RESPONSE	n/a	n/a	n/a	n/a	n/a	n/a	n/a	n/a
296.8634	1.0167	ITI	n/a	n/a	n/a	n/a	n/a	n/a	n/a	n/a
297.8801	0.5167	FIXCROSS	n/a	n/a	n/a	n/a	n/a	n/a	n/a	n/a
298.3968	1.5167	COLOR_NAME	1	Neutral	niebieski	blue	Neutral	Neutral	hit	n/a
299.8884	n/a	RESPONSE	n/a	n/a	n/a	n/a	n/a	n/a	n/a	blue
299.9135	1.0167	ITI	n/a	n/a	n/a	n/a	n/a	n/a	n/a	n/a
300.9301	0.5167	FIXCROSS	n/a	n/a	n/a	n/a	n/a	n/a	n/a	n/a
301.4468	1.05	COLOR_NAME	2	Neutral	zielony	green	Neutral	Neutral	hit	n/a
302.4639	n/a	RESPONSE	n/a	n/a	n/a	n/a	n/a	n/a	n/a	green
302.4968	1.0167	ITI	n/a	n/a	n/a	n/a	n/a	n/a	n/a	n/a
303.5135	0.5167	FIXCROSS	n/a	n/a	n/a	n/a	n/a	n/a	n/a	n/a
304.0301	0.7667	COLOR_NAME	3	Neutral	czerwony	red	Neutral	Neutral	hit	n/a
304.7674	n/a	RESPONSE	n/a	n/a	n/a	n/a	n/a	n/a	n/a	red
304.7968	1.0167	ITI	n/a	n/a	n/a	n/a	n/a	n/a	n/a	n/a
305.8135	0.5167	FIXCROSS	n/a	n/a	n/a	n/a	n/a	n/a	n/a	n/a
306.3302	1.5167	COLOR_NAME	4	Incongruent	żółty	yellow	niebieski	blue	incorrect	n/a
307.8227	n/a	RESPONSE	n/a	n/a	n/a	n/a	n/a	n/a	n/a	blue
307.8468	1.0167	ITI	n/a	n/a	n/a	n/a	n/a	n/a	n/a	n/a
308.8635	0.5167	FIXCROSS	n/a	n/a	n/a	n/a	n/a	n/a	n/a	n/a
309.3802	1.2833	COLOR_NAME	5	Neutral	zielony	green	Neutral	Neutral	hit	n/a
310.6381	n/a	RESPONSE	n/a	n/a	n/a	n/a	n/a	n/a	n/a	green
310.6635	1.0167	ITI	n/a	n/a	n/a	n/a	n/a	n/a	n/a	n/a
311.6802	0.5167	FIXCROSS	n/a	n/a	n/a	n/a	n/a	n/a	n/a	n/a
312.1969	2.0667	COLOR_NAME	6	Incongruent	żółty	yellow	czerwony	red	hit	n/a
314.2374	n/a	RESPONSE	n/a	n/a	n/a	n/a	n/a	n/a	n/a	yellow
314.2635	1.0167	ITI	n/a	n/a	n/a	n/a	n/a	n/a	n/a	n/a
315.2802	0.5167	FIXCROSS	n/a	n/a	n/a	n/a	n/a	n/a	n/a	n/a
315.7969	3.2833	COLOR_NAME	7	Incongruent	niebieski	blue	czerwony	red	hit	n/a
319.0524	n/a	RESPONSE	n/a	n/a	n/a	n/a	n/a	n/a	n/a	blue
319.0802	1.0167	ITI	n/a	n/a	n/a	n/a	n/a	n/a	n/a	n/a
320.0969	0.5167	FIXCROSS	n/a	n/a	n/a	n/a	n/a	n/a	n/a	n/a
320.6136	1.3	COLOR_NAME	8	Incongruent	zielony	green	niebieski	blue	hit	n/a
321.8838	n/a	RESPONSE	n/a	n/a	n/a	n/a	n/a	n/a	n/a	green
321.9136	1.0167	ITI	n/a	n/a	n/a	n/a	n/a	n/a	n/a	n/a
322.9303	0.5167	FIXCROSS	n/a	n/a	n/a	n/a	n/a	n/a	n/a	n/a
323.4469	0.8333	COLOR_NAME	9	Incongruent	czerwony	red	niebieski	blue	hit	n/a
324.2513	n/a	RESPONSE	n/a	n/a	n/a	n/a	n/a	n/a	n/a	red
324.2803	1.0167	ITI	n/a	n/a	n/a	n/a	n/a	n/a	n/a	n/a
325.2969	0.5167	FIXCROSS	n/a	n/a	n/a	n/a	n/a	n/a	n/a	n/a
325.8136	0.85	COLOR_NAME	10	Incongruent	czerwony	red	zielony	green	incorrect	n/a
326.6348	n/a	RESPONSE	n/a	n/a	n/a	n/a	n/a	n/a	n/a	green
326.6636	1.0167	ITI	n/a	n/a	n/a	n/a	n/a	n/a	n/a	n/a
327.6803	0.5167	FIXCROSS	n/a	n/a	n/a	n/a	n/a	n/a	n/a	n/a
328.197	1.1167	COLOR_NAME	11	Incongruent	żółty	yellow	czerwony	red	hit	n/a
329.2902	n/a	RESPONSE	n/a	n/a	n/a	n/a	n/a	n/a	n/a	yellow
329.3136	1.0167	ITI	n/a	n/a	n/a	n/a	n/a	n/a	n/a	n/a
330.3303	0.5167	FIXCROSS	n/a	n/a	n/a	n/a	n/a	n/a	n/a	n/a
330.847	1.2167	COLOR_NAME	12	Incongruent	niebieski	blue	żółty	yellow	hit	n/a
332.0417	n/a	RESPONSE	n/a	n/a	n/a	n/a	n/a	n/a	n/a	blue
332.0637	1.0167	ITI	n/a	n/a	n/a	n/a	n/a	n/a	n/a	n/a
333.0803	0.5167	FIXCROSS	n/a	n/a	n/a	n/a	n/a	n/a	n/a	n/a
333.597	1.0	COLOR_NAME	13	Neutral	czerwony	red	Neutral	Neutral	hit	n/a
334.5691	n/a	RESPONSE	n/a	n/a	n/a	n/a	n/a	n/a	n/a	red
334.597	1.0167	ITI	n/a	n/a	n/a	n/a	n/a	n/a	n/a	n/a
335.6137	0.5167	FIXCROSS	n/a	n/a	n/a	n/a	n/a	n/a	n/a	n/a
336.1304	1.3834	COLOR_NAME	14	Incongruent	zielony	green	niebieski	blue	hit	n/a
337.4805	n/a	RESPONSE	n/a	n/a	n/a	n/a	n/a	n/a	n/a	green
337.5137	1.0167	ITI	n/a	n/a	n/a	n/a	n/a	n/a	n/a	n/a
338.5304	0.5167	FIXCROSS	n/a	n/a	n/a	n/a	n/a	n/a	n/a	n/a
339.047	1.7167	COLOR_NAME	15	Incongruent	niebieski	blue	zielony	green	hit	n/a
340.7438	n/a	RESPONSE	n/a	n/a	n/a	n/a	n/a	n/a	n/a	blue
340.7637	1.0167	ITI	n/a	n/a	n/a	n/a	n/a	n/a	n/a	n/a
341.7804	0.5167	FIXCROSS	n/a	n/a	n/a	n/a	n/a	n/a	n/a	n/a
342.2971	2.2167	COLOR_NAME	16	Incongruent	zielony	green	czerwony	red	hit	n/a
344.487	n/a	RESPONSE	n/a	n/a	n/a	n/a	n/a	n/a	n/a	green
344.5137	1.0167	ITI	n/a	n/a	n/a	n/a	n/a	n/a	n/a	n/a
345.5304	0.5167	FIXCROSS	n/a	n/a	n/a	n/a	n/a	n/a	n/a	n/a
346.0471	1.0667	COLOR_NAME	17	Neutral	niebieski	blue	Neutral	Neutral	hit	n/a
347.0945	n/a	RESPONSE	n/a	n/a	n/a	n/a	n/a	n/a	n/a	blue
347.1138	1.0167	ITI	n/a	n/a	n/a	n/a	n/a	n/a	n/a	n/a
348.1304	0.5167	FIXCROSS	n/a	n/a	n/a	n/a	n/a	n/a	n/a	n/a
348.6471	0.8167	COLOR_NAME	18	Neutral	niebieski	blue	Neutral	Neutral	hit	n/a
349.43	n/a	RESPONSE	n/a	n/a	n/a	n/a	n/a	n/a	n/a	blue
349.4638	1.0167	ITI	n/a	n/a	n/a	n/a	n/a	n/a	n/a	n/a
350.4805	0.5167	FIXCROSS	n/a	n/a	n/a	n/a	n/a	n/a	n/a	n/a
350.9971	1.1167	COLOR_NAME	19	Neutral	zielony	green	Neutral	Neutral	hit	n/a
352.0854	n/a	RESPONSE	n/a	n/a	n/a	n/a	n/a	n/a	n/a	green
352.1138	1.0167	ITI	n/a	n/a	n/a	n/a	n/a	n/a	n/a	n/a
353.1305	0.5167	FIXCROSS	n/a	n/a	n/a	n/a	n/a	n/a	n/a	n/a
353.6471	1.0833	COLOR_NAME	20	Neutral	żółty	yellow	Neutral	Neutral	hit	n/a
354.7089	n/a	RESPONSE	n/a	n/a	n/a	n/a	n/a	n/a	n/a	yellow
354.7305	1.0167	ITI	n/a	n/a	n/a	n/a	n/a	n/a	n/a	n/a
355.7472	0.5167	FIXCROSS	n/a	n/a	n/a	n/a	n/a	n/a	n/a	n/a
356.2638	0.8	COLOR_NAME	21	Neutral	czerwony	red	Neutral	Neutral	hit	n/a
357.0444	n/a	RESPONSE	n/a	n/a	n/a	n/a	n/a	n/a	n/a	red
357.0638	1.0167	ITI	n/a	n/a	n/a	n/a	n/a	n/a	n/a	n/a
358.0805	0.5167	FIXCROSS	n/a	n/a	n/a	n/a	n/a	n/a	n/a	n/a
358.5972	1.2334	COLOR_NAME	22	Incongruent	żółty	yellow	zielony	green	hit	n/a
359.8118	n/a	RESPONSE	n/a	n/a	n/a	n/a	n/a	n/a	n/a	yellow
359.8305	1.0167	ITI	n/a	n/a	n/a	n/a	n/a	n/a	n/a	n/a
360.8472	0.5167	FIXCROSS	n/a	n/a	n/a	n/a	n/a	n/a	n/a	n/a
361.3639	0.8667	COLOR_NAME	23	Neutral	żółty	yellow	Neutral	Neutral	hit	n/a
362.2113	n/a	RESPONSE	n/a	n/a	n/a	n/a	n/a	n/a	n/a	yellow
362.2305	1.0167	ITI	n/a	n/a	n/a	n/a	n/a	n/a	n/a	n/a
363.2472	0.5167	FIXCROSS	n/a	n/a	n/a	n/a	n/a	n/a	n/a	n/a
363.7639	1.2167	COLOR_NAME	24	Neutral	niebieski	blue	Neutral	Neutral	hit	n/a
364.9628	n/a	RESPONSE	n/a	n/a	n/a	n/a	n/a	n/a	n/a	blue
364.9806	1.0167	ITI	n/a	n/a	n/a	n/a	n/a	n/a	n/a	n/a
365.9972	0.5167	FIXCROSS	n/a	n/a	n/a	n/a	n/a	n/a	n/a	n/a
366.5139	0.6667	COLOR_NAME	25	Neutral	czerwony	red	Neutral	Neutral	hit	n/a
367.1543	n/a	RESPONSE	n/a	n/a	n/a	n/a	n/a	n/a	n/a	red
367.1806	1.0167	ITI	n/a	n/a	n/a	n/a	n/a	n/a	n/a	n/a
368.1972	0.5167	FIXCROSS	n/a	n/a	n/a	n/a	n/a	n/a	n/a	n/a
368.7139	1.1167	COLOR_NAME	26	Neutral	zielony	green	Neutral	Neutral	hit	n/a
369.8097	n/a	RESPONSE	n/a	n/a	n/a	n/a	n/a	n/a	n/a	green
369.8306	1.0167	ITI	n/a	n/a	n/a	n/a	n/a	n/a	n/a	n/a
370.8473	0.5167	FIXCROSS	n/a	n/a	n/a	n/a	n/a	n/a	n/a	n/a
371.3639	0.95	COLOR_NAME	27	Neutral	żółty	yellow	Neutral	Neutral	hit	n/a
372.2892	n/a	RESPONSE	n/a	n/a	n/a	n/a	n/a	n/a	n/a	yellow
372.3139	1.0167	ITI	n/a	n/a	n/a	n/a	n/a	n/a	n/a	n/a
373.3306	0.5167	FIXCROSS	n/a	n/a	n/a	n/a	n/a	n/a	n/a	n/a
373.8473	1.2334	COLOR_NAME	28	Neutral	zielony	green	Neutral	Neutral	hit	n/a
375.0566	n/a	RESPONSE	n/a	n/a	n/a	n/a	n/a	n/a	n/a	green
375.0806	1.0167	ITI	n/a	n/a	n/a	n/a	n/a	n/a	n/a	n/a
376.0973	0.5167	FIXCROSS	n/a	n/a	n/a	n/a	n/a	n/a	n/a	n/a
376.614	0.7833	COLOR_NAME	29	Neutral	czerwony	red	Neutral	Neutral	hit	n/a
377.3761	n/a	RESPONSE	n/a	n/a	n/a	n/a	n/a	n/a	n/a	red
377.3973	1.0167	ITI	n/a	n/a	n/a	n/a	n/a	n/a	n/a	n/a
378.414	0.5167	FIXCROSS	n/a	n/a	n/a	n/a	n/a	n/a	n/a	n/a
378.9306	0.9667	COLOR_NAME	30	Neutral	zielony	green	Neutral	Neutral	hit	n/a
379.8716	n/a	RESPONSE	n/a	n/a	n/a	n/a	n/a	n/a	n/a	green
379.8973	1.0167	ITI	n/a	n/a	n/a	n/a	n/a	n/a	n/a	n/a
380.914	0.5167	FIXCROSS	n/a	n/a	n/a	n/a	n/a	n/a	n/a	n/a
381.4307	0.9167	COLOR_NAME	31	Neutral	żółty	yellow	Neutral	Neutral	hit	n/a
382.3191	n/a	RESPONSE	n/a	n/a	n/a	n/a	n/a	n/a	n/a	yellow
382.3473	1.0167	ITI	n/a	n/a	n/a	n/a	n/a	n/a	n/a	n/a
383.364	0.5167	FIXCROSS	n/a	n/a	n/a	n/a	n/a	n/a	n/a	n/a
383.8807	1.0834	COLOR_NAME	32	Neutral	niebieski	blue	Neutral	Neutral	hit	n/a
384.9425	n/a	RESPONSE	n/a	n/a	n/a	n/a	n/a	n/a	n/a	blue
384.964	1.0167	ITI	n/a	n/a	n/a	n/a	n/a	n/a	n/a	n/a
385.9807	0.5167	FIXCROSS	n/a	n/a	n/a	n/a	n/a	n/a	n/a	n/a
386.4974	1.4167	COLOR_NAME	33	Incongruent	niebieski	blue	zielony	green	hit	n/a
387.8859	n/a	RESPONSE	n/a	n/a	n/a	n/a	n/a	n/a	n/a	blue
387.914	1.0167	ITI	n/a	n/a	n/a	n/a	n/a	n/a	n/a	n/a
388.9307	0.5167	FIXCROSS	n/a	n/a	n/a	n/a	n/a	n/a	n/a	n/a
389.4474	3.1167	COLOR_NAME	34	Incongruent	żółty	yellow	zielony	green	hit	n/a
392.5409	n/a	RESPONSE	n/a	n/a	n/a	n/a	n/a	n/a	n/a	yellow
392.5641	1.0167	ITI	n/a	n/a	n/a	n/a	n/a	n/a	n/a	n/a
393.5807	0.5167	FIXCROSS	n/a	n/a	n/a	n/a	n/a	n/a	n/a	n/a
394.0974	1.1833	COLOR_NAME	35	Neutral	niebieski	blue	Neutral	Neutral	hit	n/a
395.2604	n/a	RESPONSE	n/a	n/a	n/a	n/a	n/a	n/a	n/a	blue
395.2808	1.0167	ITI	n/a	n/a	n/a	n/a	n/a	n/a	n/a	n/a
396.2974	0.5167	FIXCROSS	n/a	n/a	n/a	n/a	n/a	n/a	n/a	n/a
396.8141	1.25	COLOR_NAME	36	Neutral	zielony	green	Neutral	Neutral	hit	n/a
398.0438	n/a	RESPONSE	n/a	n/a	n/a	n/a	n/a	n/a	n/a	green
398.0641	1.0167	ITI	n/a	n/a	n/a	n/a	n/a	n/a	n/a	n/a
399.0808	0.5167	FIXCROSS	n/a	n/a	n/a	n/a	n/a	n/a	n/a	n/a
399.5975	1.3833	COLOR_NAME	37	Incongruent	niebieski	blue	czerwony	red	hit	n/a
400.9551	n/a	RESPONSE	n/a	n/a	n/a	n/a	n/a	n/a	n/a	blue
400.9808	1.0167	ITI	n/a	n/a	n/a	n/a	n/a	n/a	n/a	n/a
401.9975	0.5167	FIXCROSS	n/a	n/a	n/a	n/a	n/a	n/a	n/a	n/a
402.5141	0.7333	COLOR_NAME	38	Neutral	czerwony	red	Neutral	Neutral	hit	n/a
403.2267	n/a	RESPONSE	n/a	n/a	n/a	n/a	n/a	n/a	n/a	red
403.2475	1.0167	ITI	n/a	n/a	n/a	n/a	n/a	n/a	n/a	n/a
404.2642	0.5167	FIXCROSS	n/a	n/a	n/a	n/a	n/a	n/a	n/a	n/a
404.7808	1.45	COLOR_NAME	39	Incongruent	zielony	green	żółty	yellow	hit	n/a
406.2021	n/a	RESPONSE	n/a	n/a	n/a	n/a	n/a	n/a	n/a	green
406.2308	1.0167	ITI	n/a	n/a	n/a	n/a	n/a	n/a	n/a	n/a
407.2475	0.5167	FIXCROSS	n/a	n/a	n/a	n/a	n/a	n/a	n/a	n/a
407.7642	0.8667	COLOR_NAME	40	Neutral	zielony	green	Neutral	Neutral	hit	n/a
408.6016	n/a	RESPONSE	n/a	n/a	n/a	n/a	n/a	n/a	n/a	green
408.6308	1.0167	ITI	n/a	n/a	n/a	n/a	n/a	n/a	n/a	n/a
409.6475	0.5167	FIXCROSS	n/a	n/a	n/a	n/a	n/a	n/a	n/a	n/a
410.1642	0.5833	COLOR_NAME	41	Neutral	żółty	yellow	Neutral	Neutral	hit	n/a
410.7291	n/a	RESPONSE	n/a	n/a	n/a	n/a	n/a	n/a	n/a	yellow
410.7475	1.0167	ITI	n/a	n/a	n/a	n/a	n/a	n/a	n/a	n/a
411.7642	0.5167	FIXCROSS	n/a	n/a	n/a	n/a	n/a	n/a	n/a	n/a
412.2809	0.6167	COLOR_NAME	42	Incongruent	żółty	yellow	niebieski	blue	hit	n/a
412.8727	n/a	RESPONSE	n/a	n/a	n/a	n/a	n/a	n/a	n/a	yellow
412.8975	1.0167	ITI	n/a	n/a	n/a	n/a	n/a	n/a	n/a	n/a
413.9142	0.5167	FIXCROSS	n/a	n/a	n/a	n/a	n/a	n/a	n/a	n/a
414.4309	0.8167	COLOR_NAME	43	Incongruent	zielony	green	niebieski	blue	hit	n/a
415.2241	n/a	RESPONSE	n/a	n/a	n/a	n/a	n/a	n/a	n/a	green
415.2476	1.0167	ITI	n/a	n/a	n/a	n/a	n/a	n/a	n/a	n/a
416.2642	0.5167	FIXCROSS	n/a	n/a	n/a	n/a	n/a	n/a	n/a	n/a
416.7809	1.7	COLOR_NAME	44	Incongruent	niebieski	blue	żółty	yellow	hit	n/a
418.4555	n/a	RESPONSE	n/a	n/a	n/a	n/a	n/a	n/a	n/a	blue
418.4809	1.0167	ITI	n/a	n/a	n/a	n/a	n/a	n/a	n/a	n/a
419.4976	0.5167	FIXCROSS	n/a	n/a	n/a	n/a	n/a	n/a	n/a	n/a
420.0143	1.0667	COLOR_NAME	45	Neutral	czerwony	red	Neutral	Neutral	hit	n/a
421.0629	n/a	RESPONSE	n/a	n/a	n/a	n/a	n/a	n/a	n/a	red
421.0809	1.0167	ITI	n/a	n/a	n/a	n/a	n/a	n/a	n/a	n/a
422.0976	0.5167	FIXCROSS	n/a	n/a	n/a	n/a	n/a	n/a	n/a	n/a
422.6143	0.5167	COLOR_NAME	46	Incongruent	czerwony	red	żółty	yellow	hit	n/a
423.1105	n/a	RESPONSE	n/a	n/a	n/a	n/a	n/a	n/a	n/a	red
423.131	1.0167	ITI	n/a	n/a	n/a	n/a	n/a	n/a	n/a	n/a
424.1476	0.5167	FIXCROSS	n/a	n/a	n/a	n/a	n/a	n/a	n/a	n/a
424.6643	0.7833	COLOR_NAME	47	Neutral	żółty	yellow	Neutral	Neutral	hit	n/a
425.414	n/a	RESPONSE	n/a	n/a	n/a	n/a	n/a	n/a	n/a	yellow
425.4476	1.0167	ITI	n/a	n/a	n/a	n/a	n/a	n/a	n/a	n/a
426.4643	0.5167	FIXCROSS	n/a	n/a	n/a	n/a	n/a	n/a	n/a	n/a
426.981	0.6667	COLOR_NAME	48	Incongruent	czerwony	red	niebieski	blue	hit	n/a
427.6215	n/a	RESPONSE	n/a	n/a	n/a	n/a	n/a	n/a	n/a	red
427.6476	1.0167	ITI	n/a	n/a	n/a	n/a	n/a	n/a	n/a	n/a
428.6643	0.5167	FIXCROSS	n/a	n/a	n/a	n/a	n/a	n/a	n/a	n/a
429.181	0.4833	COLOR_NAME	49	Incongruent	czerwony	red	zielony	green	hit	n/a
429.6371	n/a	RESPONSE	n/a	n/a	n/a	n/a	n/a	n/a	n/a	red
429.6643	1.0167	ITI	n/a	n/a	n/a	n/a	n/a	n/a	n/a	n/a
430.681	0.5167	FIXCROSS	n/a	n/a	n/a	n/a	n/a	n/a	n/a	n/a
431.1977	1.35	COLOR_NAME	50	Neutral	niebieski	blue	Neutral	Neutral	hit	n/a
432.5165	n/a	RESPONSE	n/a	n/a	n/a	n/a	n/a	n/a	n/a	blue
432.5477	1.0167	ITI	n/a	n/a	n/a	n/a	n/a	n/a	n/a	n/a
433.5643	0.5167	FIXCROSS	n/a	n/a	n/a	n/a	n/a	n/a	n/a	n/a
434.081	0.7167	COLOR_NAME	51	Neutral	czerwony	red	Neutral	Neutral	hit	n/a
434.772	n/a	RESPONSE	n/a	n/a	n/a	n/a	n/a	n/a	n/a	red
434.7977	1.0167	ITI	n/a	n/a	n/a	n/a	n/a	n/a	n/a	n/a
435.8144	0.5167	FIXCROSS	n/a	n/a	n/a	n/a	n/a	n/a	n/a	n/a
436.331	0.9333	COLOR_NAME	52	Incongruent	czerwony	red	zielony	green	hit	n/a
437.2355	n/a	RESPONSE	n/a	n/a	n/a	n/a	n/a	n/a	n/a	red
437.2644	1.0167	ITI	n/a	n/a	n/a	n/a	n/a	n/a	n/a	n/a
438.281	0.5167	FIXCROSS	n/a	n/a	n/a	n/a	n/a	n/a	n/a	n/a
438.7977	0.8667	COLOR_NAME	53	Incongruent	zielony	green	żółty	yellow	hit	n/a
439.635	n/a	RESPONSE	n/a	n/a	n/a	n/a	n/a	n/a	n/a	green
439.6644	1.0167	ITI	n/a	n/a	n/a	n/a	n/a	n/a	n/a	n/a
440.6811	0.5167	FIXCROSS	n/a	n/a	n/a	n/a	n/a	n/a	n/a	n/a
441.1977	1.9	COLOR_NAME	54	Incongruent	czerwony	red	żółty	yellow	hit	n/a
443.0743	n/a	RESPONSE	n/a	n/a	n/a	n/a	n/a	n/a	n/a	red
443.0978	1.0167	ITI	n/a	n/a	n/a	n/a	n/a	n/a	n/a	n/a
444.1144	0.5167	FIXCROSS	n/a	n/a	n/a	n/a	n/a	n/a	n/a	n/a
444.6311	0.7	COLOR_NAME	55	Neutral	żółty	yellow	Neutral	Neutral	hit	n/a
445.2978	n/a	RESPONSE	n/a	n/a	n/a	n/a	n/a	n/a	n/a	yellow
445.3311	1.0167	ITI	n/a	n/a	n/a	n/a	n/a	n/a	n/a	n/a
446.3478	0.5167	FIXCROSS	n/a	n/a	n/a	n/a	n/a	n/a	n/a	n/a
446.8644	1.2333	COLOR_NAME	56	Neutral	zielony	green	Neutral	Neutral	hit	n/a
448.0652	n/a	RESPONSE	n/a	n/a	n/a	n/a	n/a	n/a	n/a	green
448.0978	1.0167	ITI	n/a	n/a	n/a	n/a	n/a	n/a	n/a	n/a
449.1145	0.5167	FIXCROSS	n/a	n/a	n/a	n/a	n/a	n/a	n/a	n/a
449.6311	1.1167	COLOR_NAME	57	Incongruent	zielony	green	żółty	yellow	hit	n/a
450.7207	n/a	RESPONSE	n/a	n/a	n/a	n/a	n/a	n/a	n/a	green
450.7478	1.0167	ITI	n/a	n/a	n/a	n/a	n/a	n/a	n/a	n/a
451.7645	0.5167	FIXCROSS	n/a	n/a	n/a	n/a	n/a	n/a	n/a	n/a
452.2811	1.0834	COLOR_NAME	58	Neutral	żółty	yellow	Neutral	Neutral	hit	n/a
453.3441	n/a	RESPONSE	n/a	n/a	n/a	n/a	n/a	n/a	n/a	yellow
453.3645	1.0167	ITI	n/a	n/a	n/a	n/a	n/a	n/a	n/a	n/a
454.3812	0.5167	FIXCROSS	n/a	n/a	n/a	n/a	n/a	n/a	n/a	n/a
454.8978	0.8833	COLOR_NAME	59	Incongruent	czerwony	red	żółty	yellow	hit	n/a
455.7596	n/a	RESPONSE	n/a	n/a	n/a	n/a	n/a	n/a	n/a	red
455.7812	1.0167	ITI	n/a	n/a	n/a	n/a	n/a	n/a	n/a	n/a
456.7978	0.5167	FIXCROSS	n/a	n/a	n/a	n/a	n/a	n/a	n/a	n/a
457.3145	0.8833	COLOR_NAME	60	Neutral	żółty	yellow	Neutral	Neutral	hit	n/a
458.1751	n/a	RESPONSE	n/a	n/a	n/a	n/a	n/a	n/a	n/a	yellow
458.1979	1.0167	ITI	n/a	n/a	n/a	n/a	n/a	n/a	n/a	n/a
459.2145	0.5167	FIXCROSS	n/a	n/a	n/a	n/a	n/a	n/a	n/a	n/a
459.7312	1.4333	COLOR_NAME	61	Incongruent	niebieski	blue	żółty	yellow	hit	n/a
461.1345	n/a	RESPONSE	n/a	n/a	n/a	n/a	n/a	n/a	n/a	blue
461.1645	1.0167	ITI	n/a	n/a	n/a	n/a	n/a	n/a	n/a	n/a
462.1812	0.5167	FIXCROSS	n/a	n/a	n/a	n/a	n/a	n/a	n/a	n/a
462.6979	1.1333	COLOR_NAME	62	Incongruent	niebieski	blue	zielony	green	hit	n/a
463.8059	n/a	RESPONSE	n/a	n/a	n/a	n/a	n/a	n/a	n/a	blue
463.8312	1.0167	ITI	n/a	n/a	n/a	n/a	n/a	n/a	n/a	n/a
464.8479	0.5167	FIXCROSS	n/a	n/a	n/a	n/a	n/a	n/a	n/a	n/a
465.3646	0.75	COLOR_NAME	63	Incongruent	żółty	yellow	zielony	green	hit	n/a
466.0934	n/a	RESPONSE	n/a	n/a	n/a	n/a	n/a	n/a	n/a	yellow
466.1146	1.0167	ITI	n/a	n/a	n/a	n/a	n/a	n/a	n/a	n/a
467.1312	0.5167	FIXCROSS	n/a	n/a	n/a	n/a	n/a	n/a	n/a	n/a
467.6479	0.8333	COLOR_NAME	64	Incongruent	czerwony	red	niebieski	blue	hit	n/a
468.461	n/a	RESPONSE	n/a	n/a	n/a	n/a	n/a	n/a	n/a	red
468.4813	1.0167	ITI	n/a	n/a	n/a	n/a	n/a	n/a	n/a	n/a
469.4979	0.5167	FIXCROSS	n/a	n/a	n/a	n/a	n/a	n/a	n/a	n/a
470.0146	1.05	COLOR_NAME	65	Neutral	niebieski	blue	Neutral	Neutral	hit	n/a
471.0365	n/a	RESPONSE	n/a	n/a	n/a	n/a	n/a	n/a	n/a	blue
471.0646	1.0167	ITI	n/a	n/a	n/a	n/a	n/a	n/a	n/a	n/a
472.0813	0.5167	FIXCROSS	n/a	n/a	n/a	n/a	n/a	n/a	n/a	n/a
472.598	0.9167	COLOR_NAME	66	Neutral	niebieski	blue	Neutral	Neutral	hit	n/a
473.4839	n/a	RESPONSE	n/a	n/a	n/a	n/a	n/a	n/a	n/a	blue
473.5146	1.0167	ITI	n/a	n/a	n/a	n/a	n/a	n/a	n/a	n/a
474.5313	0.5167	FIXCROSS	n/a	n/a	n/a	n/a	n/a	n/a	n/a	n/a
475.048	0.9667	COLOR_NAME	67	Incongruent	zielony	green	czerwony	red	incorrect	n/a
475.9954	n/a	RESPONSE	n/a	n/a	n/a	n/a	n/a	n/a	n/a	red
476.0146	1.0167	ITI	n/a	n/a	n/a	n/a	n/a	n/a	n/a	n/a
477.0313	0.5167	FIXCROSS	n/a	n/a	n/a	n/a	n/a	n/a	n/a	n/a
477.548	1.7167	COLOR_NAME	68	Incongruent	niebieski	blue	czerwony	red	hit	n/a
479.2427	n/a	RESPONSE	n/a	n/a	n/a	n/a	n/a	n/a	n/a	blue
479.2647	1.0167	ITI	n/a	n/a	n/a	n/a	n/a	n/a	n/a	n/a
480.2813	0.5167	FIXCROSS	n/a	n/a	n/a	n/a	n/a	n/a	n/a	n/a
480.798	0.8	COLOR_NAME	69	Incongruent	żółty	yellow	niebieski	blue	hit	n/a
481.5782	n/a	RESPONSE	n/a	n/a	n/a	n/a	n/a	n/a	n/a	yellow
481.598	1.0167	ITI	n/a	n/a	n/a	n/a	n/a	n/a	n/a	n/a
482.6147	0.5167	FIXCROSS	n/a	n/a	n/a	n/a	n/a	n/a	n/a	n/a
483.1314	0.8167	COLOR_NAME	70	Incongruent	żółty	yellow	czerwony	red	hit	n/a
483.8977	n/a	RESPONSE	n/a	n/a	n/a	n/a	n/a	n/a	n/a	yellow
483.948	1.0167	ITI	n/a	n/a	n/a	n/a	n/a	n/a	n/a	n/a
484.9647	0.5167	FIXCROSS	n/a	n/a	n/a	n/a	n/a	n/a	n/a	n/a
485.4814	1.2333	COLOR_NAME	71	Incongruent	zielony	green	czerwony	red	hit	n/a
486.6811	n/a	RESPONSE	n/a	n/a	n/a	n/a	n/a	n/a	n/a	green
486.7147	1.0167	ITI	n/a	n/a	n/a	n/a	n/a	n/a	n/a	n/a
487.7314	0.5167	FIXCROSS	n/a	n/a	n/a	n/a	n/a	n/a	n/a	n/a
488.2481	0.6833	COLOR_NAME	72	Neutral	czerwony	red	Neutral	Neutral	hit	n/a
488.9046	n/a	RESPONSE	n/a	n/a	n/a	n/a	n/a	n/a	n/a	red
488.9314	1.0333	ITI	n/a	n/a	n/a	n/a	n/a	n/a	n/a	n/a
494.6794	n/a	RESPONSE	n/a	n/a	n/a	n/a	n/a	n/a	n/a	n/a
