onset	duration	trial_type	trial_number	stroop_condition	stim_text(PL)	stim_text(eng)	stim_color(PL)	stim_color(eng)	response_type	response_color
0.0	n/a	RESPONSE	n/a	n/a	n/a	n/a	n/a	n/a	n/a	n/a
0.0601	1.0334	ITI	n/a	n/a	n/a	n/a	n/a	n/a	n/a	n/a
1.0934	0.5166	FIXCROSS	n/a	n/a	n/a	n/a	n/a	n/a	n/a	n/a
1.6101	1.4167	T_INK	1	Incongruent	żółty	yellow	czerwony	red	hit	n/a
3.0013	n/a	RESPONSE	n/a	n/a	n/a	n/a	n/a	n/a	n/a	red
3.0268	0.5167	FEEDBACK	n/a	n/a	n/a	n/a	n/a	n/a	n/a	n/a
3.5435	1.0166	ITI	n/a	n/a	n/a	n/a	n/a	n/a	n/a	n/a
4.5601	0.5167	FIXCROSS	n/a	n/a	n/a	n/a	n/a	n/a	n/a	n/a
5.0768	1.2	T_INK	2	Incongruent	zielony	green	niebieski	blue	hit	n/a
6.2421	n/a	RESPONSE	n/a	n/a	n/a	n/a	n/a	n/a	n/a	blue
6.2768	0.5167	FEEDBACK	n/a	n/a	n/a	n/a	n/a	n/a	n/a	n/a
6.7934	1.0167	ITI	n/a	n/a	n/a	n/a	n/a	n/a	n/a	n/a
7.8101	0.5166	FIXCROSS	n/a	n/a	n/a	n/a	n/a	n/a	n/a	n/a
8.3268	0.8334	T_INK	3	Incongruent	zielony	green	czerwony	red	hit	n/a
9.1318	n/a	RESPONSE	n/a	n/a	n/a	n/a	n/a	n/a	n/a	red
9.1602	0.5167	FEEDBACK	n/a	n/a	n/a	n/a	n/a	n/a	n/a	n/a
9.6768	1.0167	ITI	n/a	n/a	n/a	n/a	n/a	n/a	n/a	n/a
10.6935	0.5167	FIXCROSS	n/a	n/a	n/a	n/a	n/a	n/a	n/a	n/a
11.2102	0.6667	T_INK	4	Neutral	xxxxx	xxxxx	czerwony	red	hit	n/a
11.8457	n/a	RESPONSE	n/a	n/a	n/a	n/a	n/a	n/a	n/a	red
11.8768	0.5167	FEEDBACK	n/a	n/a	n/a	n/a	n/a	n/a	n/a	n/a
12.3935	1.0167	ITI	n/a	n/a	n/a	n/a	n/a	n/a	n/a	n/a
13.4102	0.5167	FIXCROSS	n/a	n/a	n/a	n/a	n/a	n/a	n/a	n/a
13.9269	1.2333	T_INK	5	Incongruent	niebieski	blue	zielony	green	hit	n/a
15.1343	n/a	RESPONSE	n/a	n/a	n/a	n/a	n/a	n/a	n/a	green
15.1602	0.5167	FEEDBACK	n/a	n/a	n/a	n/a	n/a	n/a	n/a	n/a
15.6769	1.0167	ITI	n/a	n/a	n/a	n/a	n/a	n/a	n/a	n/a
16.6935	0.5167	FIXCROSS	n/a	n/a	n/a	n/a	n/a	n/a	n/a	n/a
17.2102	0.7667	T_INK	6	Neutral	xxxxxxxxx	xxxxxxxxx	żółty	yellow	hit	n/a
17.944	n/a	RESPONSE	n/a	n/a	n/a	n/a	n/a	n/a	n/a	yellow
17.9769	0.5167	FEEDBACK	n/a	n/a	n/a	n/a	n/a	n/a	n/a	n/a
18.4936	1.0167	ITI	n/a	n/a	n/a	n/a	n/a	n/a	n/a	n/a
19.5102	0.5167	FIXCROSS	n/a	n/a	n/a	n/a	n/a	n/a	n/a	n/a
20.0269	0.6	T_INK	7	Neutral	xxxxxxx	xxxxxxx	czerwony	red	hit	n/a
20.5941	n/a	RESPONSE	n/a	n/a	n/a	n/a	n/a	n/a	n/a	red
20.6269	0.5166	FEEDBACK	n/a	n/a	n/a	n/a	n/a	n/a	n/a	n/a
21.1435	1.0167	ITI	n/a	n/a	n/a	n/a	n/a	n/a	n/a	n/a
22.1602	0.5167	FIXCROSS	n/a	n/a	n/a	n/a	n/a	n/a	n/a	n/a
22.6769	0.6334	T_INK	8	Incongruent	czerwony	red	niebieski	blue	hit	n/a
23.276	n/a	RESPONSE	n/a	n/a	n/a	n/a	n/a	n/a	n/a	blue
23.3103	0.5167	FEEDBACK	n/a	n/a	n/a	n/a	n/a	n/a	n/a	n/a
23.8269	1.0167	ITI	n/a	n/a	n/a	n/a	n/a	n/a	n/a	n/a
24.8436	0.5167	FIXCROSS	n/a	n/a	n/a	n/a	n/a	n/a	n/a	n/a
25.3603	0.7	T_INK	9	Neutral	xxxxx	xxxxx	niebieski	blue	hit	n/a
26.0379	n/a	RESPONSE	n/a	n/a	n/a	n/a	n/a	n/a	n/a	blue
26.0603	0.5167	FEEDBACK	n/a	n/a	n/a	n/a	n/a	n/a	n/a	n/a
26.577	1.0167	ITI	n/a	n/a	n/a	n/a	n/a	n/a	n/a	n/a
27.5936	0.5166	FIXCROSS	n/a	n/a	n/a	n/a	n/a	n/a	n/a	n/a
28.1103	0.75	T_INK	10	Incongruent	czerwony	red	zielony	green	hit	n/a
28.8318	n/a	RESPONSE	n/a	n/a	n/a	n/a	n/a	n/a	n/a	green
28.8603	0.5167	FEEDBACK	n/a	n/a	n/a	n/a	n/a	n/a	n/a	n/a
29.377	1.0167	ITI	n/a	n/a	n/a	n/a	n/a	n/a	n/a	n/a
30.3936	0.5167	FIXCROSS	n/a	n/a	n/a	n/a	n/a	n/a	n/a	n/a
30.9103	0.5833	T_INK	11	Neutral	xxxxxxxxx	xxxxxxxxx	zielony	green	hit	n/a
31.4658	n/a	RESPONSE	n/a	n/a	n/a	n/a	n/a	n/a	n/a	green
31.4937	0.5167	FEEDBACK	n/a	n/a	n/a	n/a	n/a	n/a	n/a	n/a
32.0103	1.0166	ITI	n/a	n/a	n/a	n/a	n/a	n/a	n/a	n/a
33.027	0.5167	FIXCROSS	n/a	n/a	n/a	n/a	n/a	n/a	n/a	n/a
33.5437	1.1667	T_INK	12	Incongruent	zielony	green	żółty	yellow	hit	n/a
34.6907	n/a	RESPONSE	n/a	n/a	n/a	n/a	n/a	n/a	n/a	yellow
34.7103	0.5166	FEEDBACK	n/a	n/a	n/a	n/a	n/a	n/a	n/a	n/a
35.227	1.0334	ITI	n/a	n/a	n/a	n/a	n/a	n/a	n/a	n/a
41.4117	n/a	RESPONSE	n/a	n/a	n/a	n/a	n/a	n/a	n/a	n/a
41.4771	1.0167	ITI	n/a	n/a	n/a	n/a	n/a	n/a	n/a	n/a
42.4937	0.5167	FIXCROSS	n/a	n/a	n/a	n/a	n/a	n/a	n/a	n/a
43.0104	1.1667	INK	1	Neutral	xxxxxxx	xxxxxxx	niebieski	blue	hit	n/a
44.1575	n/a	RESPONSE	n/a	n/a	n/a	n/a	n/a	n/a	n/a	blue
44.1771	1.0167	ITI	n/a	n/a	n/a	n/a	n/a	n/a	n/a	n/a
45.1938	0.5167	FIXCROSS	n/a	n/a	n/a	n/a	n/a	n/a	n/a	n/a
45.7104	0.8	INK	2	Neutral	xxxxxxxx	xxxxxxxx	żółty	yellow	hit	n/a
46.4883	n/a	RESPONSE	n/a	n/a	n/a	n/a	n/a	n/a	n/a	yellow
46.5104	1.0167	ITI	n/a	n/a	n/a	n/a	n/a	n/a	n/a	n/a
47.5271	0.5167	FIXCROSS	n/a	n/a	n/a	n/a	n/a	n/a	n/a	n/a
48.0438	0.4667	INK	3	Neutral	xxxxxxxxx	xxxxxxxxx	zielony	green	hit	n/a
48.4839	n/a	RESPONSE	n/a	n/a	n/a	n/a	n/a	n/a	n/a	green
48.5105	1.0167	ITI	n/a	n/a	n/a	n/a	n/a	n/a	n/a	n/a
49.5271	0.5167	FIXCROSS	n/a	n/a	n/a	n/a	n/a	n/a	n/a	n/a
50.0438	0.4667	INK	4	Neutral	xxxxxxx	xxxxxxx	czerwony	red	hit	n/a
50.4795	n/a	RESPONSE	n/a	n/a	n/a	n/a	n/a	n/a	n/a	red
50.5105	1.0167	ITI	n/a	n/a	n/a	n/a	n/a	n/a	n/a	n/a
51.5271	0.5167	FIXCROSS	n/a	n/a	n/a	n/a	n/a	n/a	n/a	n/a
52.0438	0.9333	INK	5	Incongruent	czerwony	red	zielony	green	hit	n/a
52.954	n/a	RESPONSE	n/a	n/a	n/a	n/a	n/a	n/a	n/a	green
52.9771	1.0167	ITI	n/a	n/a	n/a	n/a	n/a	n/a	n/a	n/a
53.3212	n/a	RESPONSE	n/a	n/a	n/a	n/a	n/a	n/a	n/a	green
53.9938	0.5167	FIXCROSS	n/a	n/a	n/a	n/a	n/a	n/a	n/a	n/a
54.5105	0.7333	INK	6	Neutral	xxxxxxxxx	xxxxxxxxx	żółty	yellow	hit	n/a
55.2209	n/a	RESPONSE	n/a	n/a	n/a	n/a	n/a	n/a	n/a	yellow
55.2438	1.0167	ITI	n/a	n/a	n/a	n/a	n/a	n/a	n/a	n/a
56.2605	0.5166	FIXCROSS	n/a	n/a	n/a	n/a	n/a	n/a	n/a	n/a
56.7771	0.6834	INK	7	Incongruent	niebieski	blue	czerwony	red	hit	n/a
57.4402	n/a	RESPONSE	n/a	n/a	n/a	n/a	n/a	n/a	n/a	red
57.4605	1.0167	ITI	n/a	n/a	n/a	n/a	n/a	n/a	n/a	n/a
58.4772	0.5166	FIXCROSS	n/a	n/a	n/a	n/a	n/a	n/a	n/a	n/a
58.9938	0.6	INK	8	Incongruent	zielony	green	czerwony	red	hit	n/a
59.5634	n/a	RESPONSE	n/a	n/a	n/a	n/a	n/a	n/a	n/a	red
59.5939	1.0166	ITI	n/a	n/a	n/a	n/a	n/a	n/a	n/a	n/a
60.6105	0.5167	FIXCROSS	n/a	n/a	n/a	n/a	n/a	n/a	n/a	n/a
61.1272	0.5833	INK	9	Neutral	xxxxxxxx	xxxxxxxx	niebieski	blue	hit	n/a
61.6866	n/a	RESPONSE	n/a	n/a	n/a	n/a	n/a	n/a	n/a	blue
61.7105	1.0167	ITI	n/a	n/a	n/a	n/a	n/a	n/a	n/a	n/a
62.7272	0.5166	FIXCROSS	n/a	n/a	n/a	n/a	n/a	n/a	n/a	n/a
63.2439	0.4667	INK	10	Incongruent	zielony	green	niebieski	blue	hit	n/a
63.6822	n/a	RESPONSE	n/a	n/a	n/a	n/a	n/a	n/a	n/a	blue
63.7106	1.0166	ITI	n/a	n/a	n/a	n/a	n/a	n/a	n/a	n/a
64.7272	0.5167	FIXCROSS	n/a	n/a	n/a	n/a	n/a	n/a	n/a	n/a
65.2439	0.6334	INK	11	Incongruent	niebieski	blue	czerwony	red	hit	n/a
65.8534	n/a	RESPONSE	n/a	n/a	n/a	n/a	n/a	n/a	n/a	red
65.8772	1.0167	ITI	n/a	n/a	n/a	n/a	n/a	n/a	n/a	n/a
66.8939	0.5167	FIXCROSS	n/a	n/a	n/a	n/a	n/a	n/a	n/a	n/a
67.4106	0.6167	INK	12	Neutral	xxxxxxxx	xxxxxxxx	niebieski	blue	hit	n/a
68.0087	n/a	RESPONSE	n/a	n/a	n/a	n/a	n/a	n/a	n/a	blue
68.0273	1.0166	ITI	n/a	n/a	n/a	n/a	n/a	n/a	n/a	n/a
69.0439	0.5167	FIXCROSS	n/a	n/a	n/a	n/a	n/a	n/a	n/a	n/a
69.5606	0.5333	INK	13	Neutral	xxxxxxx	xxxxxxx	czerwony	red	hit	n/a
70.0681	n/a	RESPONSE	n/a	n/a	n/a	n/a	n/a	n/a	n/a	red
70.0939	1.0166	ITI	n/a	n/a	n/a	n/a	n/a	n/a	n/a	n/a
71.1106	0.5167	FIXCROSS	n/a	n/a	n/a	n/a	n/a	n/a	n/a	n/a
71.6273	0.8333	INK	14	Neutral	xxxxx	xxxxx	zielony	green	hit	n/a
72.4308	n/a	RESPONSE	n/a	n/a	n/a	n/a	n/a	n/a	n/a	green
72.4606	1.0167	ITI	n/a	n/a	n/a	n/a	n/a	n/a	n/a	n/a
73.4773	0.5166	FIXCROSS	n/a	n/a	n/a	n/a	n/a	n/a	n/a	n/a
73.9939	0.5833	INK	15	Neutral	xxxxx	xxxxx	zielony	green	hit	n/a
74.5541	n/a	RESPONSE	n/a	n/a	n/a	n/a	n/a	n/a	n/a	green
74.5773	1.0167	ITI	n/a	n/a	n/a	n/a	n/a	n/a	n/a	n/a
75.594	0.5167	FIXCROSS	n/a	n/a	n/a	n/a	n/a	n/a	n/a	n/a
76.1107	0.55	INK	16	Neutral	xxxxxxxx	xxxxxxxx	niebieski	blue	hit	n/a
76.6294	n/a	RESPONSE	n/a	n/a	n/a	n/a	n/a	n/a	n/a	blue
76.6606	1.0167	ITI	n/a	n/a	n/a	n/a	n/a	n/a	n/a	n/a
77.6773	0.5166	FIXCROSS	n/a	n/a	n/a	n/a	n/a	n/a	n/a	n/a
78.194	0.65	INK	17	Incongruent	żółty	yellow	czerwony	red	hit	n/a
78.8167	n/a	RESPONSE	n/a	n/a	n/a	n/a	n/a	n/a	n/a	red
78.844	1.0166	ITI	n/a	n/a	n/a	n/a	n/a	n/a	n/a	n/a
79.8606	0.5167	FIXCROSS	n/a	n/a	n/a	n/a	n/a	n/a	n/a	n/a
80.3773	0.7667	INK	18	Neutral	xxxxxxxx	xxxxxxxx	żółty	yellow	hit	n/a
81.1155	n/a	RESPONSE	n/a	n/a	n/a	n/a	n/a	n/a	n/a	yellow
81.144	1.0167	ITI	n/a	n/a	n/a	n/a	n/a	n/a	n/a	n/a
82.1607	0.5167	FIXCROSS	n/a	n/a	n/a	n/a	n/a	n/a	n/a	n/a
82.6774	0.5667	INK	19	Incongruent	zielony	green	czerwony	red	hit	n/a
83.2228	n/a	RESPONSE	n/a	n/a	n/a	n/a	n/a	n/a	n/a	red
83.244	1.0167	ITI	n/a	n/a	n/a	n/a	n/a	n/a	n/a	n/a
84.2607	0.5167	FIXCROSS	n/a	n/a	n/a	n/a	n/a	n/a	n/a	n/a
84.7774	0.4666	INK	20	Neutral	xxxxx	xxxxx	czerwony	red	hit	n/a
85.2184	n/a	RESPONSE	n/a	n/a	n/a	n/a	n/a	n/a	n/a	red
85.244	1.0167	ITI	n/a	n/a	n/a	n/a	n/a	n/a	n/a	n/a
86.2607	0.5167	FIXCROSS	n/a	n/a	n/a	n/a	n/a	n/a	n/a	n/a
86.7774	1.1334	INK	21	Incongruent	niebieski	blue	żółty	yellow	hit	n/a
87.8844	n/a	RESPONSE	n/a	n/a	n/a	n/a	n/a	n/a	n/a	yellow
87.9107	1.0167	ITI	n/a	n/a	n/a	n/a	n/a	n/a	n/a	n/a
88.9274	0.5166	FIXCROSS	n/a	n/a	n/a	n/a	n/a	n/a	n/a	n/a
89.444	0.5334	INK	22	Incongruent	niebieski	blue	żółty	yellow	hit	n/a
89.9599	n/a	RESPONSE	n/a	n/a	n/a	n/a	n/a	n/a	n/a	yellow
89.9774	1.0167	ITI	n/a	n/a	n/a	n/a	n/a	n/a	n/a	n/a
90.9941	0.5167	FIXCROSS	n/a	n/a	n/a	n/a	n/a	n/a	n/a	n/a
91.5108	0.6333	INK	23	Neutral	xxxxxxxx	xxxxxxxx	zielony	green	hit	n/a
92.115	n/a	RESPONSE	n/a	n/a	n/a	n/a	n/a	n/a	n/a	green
92.1441	1.0167	ITI	n/a	n/a	n/a	n/a	n/a	n/a	n/a	n/a
93.1608	0.5167	FIXCROSS	n/a	n/a	n/a	n/a	n/a	n/a	n/a	n/a
93.6774	0.6	INK	24	Incongruent	czerwony	red	niebieski	blue	hit	n/a
94.2542	n/a	RESPONSE	n/a	n/a	n/a	n/a	n/a	n/a	n/a	blue
94.2774	1.0167	ITI	n/a	n/a	n/a	n/a	n/a	n/a	n/a	n/a
95.2941	0.5166	FIXCROSS	n/a	n/a	n/a	n/a	n/a	n/a	n/a	n/a
95.8108	0.55	INK	25	Incongruent	zielony	green	żółty	yellow	hit	n/a
96.3297	n/a	RESPONSE	n/a	n/a	n/a	n/a	n/a	n/a	n/a	yellow
96.3607	1.0167	ITI	n/a	n/a	n/a	n/a	n/a	n/a	n/a	n/a
97.3775	0.5167	FIXCROSS	n/a	n/a	n/a	n/a	n/a	n/a	n/a	n/a
97.8941	0.8833	INK	26	Incongruent	zielony	green	niebieski	blue	hit	n/a
98.7563	n/a	RESPONSE	n/a	n/a	n/a	n/a	n/a	n/a	n/a	blue
98.7775	1.0167	ITI	n/a	n/a	n/a	n/a	n/a	n/a	n/a	n/a
99.7942	0.5166	FIXCROSS	n/a	n/a	n/a	n/a	n/a	n/a	n/a	n/a
100.3108	0.55	INK	27	Neutral	xxxxxxx	xxxxxxx	żółty	yellow	hit	n/a
100.8317	n/a	RESPONSE	n/a	n/a	n/a	n/a	n/a	n/a	n/a	yellow
100.8608	1.0167	ITI	n/a	n/a	n/a	n/a	n/a	n/a	n/a	n/a
101.8775	0.5167	FIXCROSS	n/a	n/a	n/a	n/a	n/a	n/a	n/a	n/a
102.3942	0.6	INK	28	Incongruent	zielony	green	czerwony	red	hit	n/a
102.9709	n/a	RESPONSE	n/a	n/a	n/a	n/a	n/a	n/a	n/a	red
102.9942	1.0167	ITI	n/a	n/a	n/a	n/a	n/a	n/a	n/a	n/a
104.0109	0.5166	FIXCROSS	n/a	n/a	n/a	n/a	n/a	n/a	n/a	n/a
104.5275	0.7	INK	29	Incongruent	czerwony	red	zielony	green	hit	n/a
105.2059	n/a	RESPONSE	n/a	n/a	n/a	n/a	n/a	n/a	n/a	green
105.2275	1.0167	ITI	n/a	n/a	n/a	n/a	n/a	n/a	n/a	n/a
106.2442	0.5167	FIXCROSS	n/a	n/a	n/a	n/a	n/a	n/a	n/a	n/a
106.7609	0.4833	INK	30	Neutral	xxxxxxxxx	xxxxxxxxx	czerwony	red	hit	n/a
107.2173	n/a	RESPONSE	n/a	n/a	n/a	n/a	n/a	n/a	n/a	red
107.2442	1.0167	ITI	n/a	n/a	n/a	n/a	n/a	n/a	n/a	n/a
108.2609	0.5167	FIXCROSS	n/a	n/a	n/a	n/a	n/a	n/a	n/a	n/a
108.7776	1.1166	INK	31	Incongruent	żółty	yellow	zielony	green	hit	n/a
109.8674	n/a	RESPONSE	n/a	n/a	n/a	n/a	n/a	n/a	n/a	green
109.8942	1.0167	ITI	n/a	n/a	n/a	n/a	n/a	n/a	n/a	n/a
110.9109	0.5167	FIXCROSS	n/a	n/a	n/a	n/a	n/a	n/a	n/a	n/a
111.4275	0.5167	INK	32	Neutral	xxxxx	xxxxx	niebieski	blue	hit	n/a
111.9268	n/a	RESPONSE	n/a	n/a	n/a	n/a	n/a	n/a	n/a	blue
111.9442	1.0167	ITI	n/a	n/a	n/a	n/a	n/a	n/a	n/a	n/a
112.9609	0.5166	FIXCROSS	n/a	n/a	n/a	n/a	n/a	n/a	n/a	n/a
113.4775	0.3667	INK	33	Incongruent	żółty	yellow	czerwony	red	hit	n/a
113.8265	n/a	RESPONSE	n/a	n/a	n/a	n/a	n/a	n/a	n/a	red
113.8443	1.0167	ITI	n/a	n/a	n/a	n/a	n/a	n/a	n/a	n/a
114.8609	0.5167	FIXCROSS	n/a	n/a	n/a	n/a	n/a	n/a	n/a	n/a
115.3776	0.95	INK	34	Incongruent	niebieski	blue	zielony	green	incorrect	n/a
116.301	n/a	RESPONSE	n/a	n/a	n/a	n/a	n/a	n/a	n/a	yellow
116.3276	1.0166	ITI	n/a	n/a	n/a	n/a	n/a	n/a	n/a	n/a
117.3442	0.5167	FIXCROSS	n/a	n/a	n/a	n/a	n/a	n/a	n/a	n/a
117.861	0.5667	INK	35	Neutral	xxxxxxx	xxxxxxx	żółty	yellow	hit	n/a
118.3924	n/a	RESPONSE	n/a	n/a	n/a	n/a	n/a	n/a	n/a	yellow
118.4276	1.0167	ITI	n/a	n/a	n/a	n/a	n/a	n/a	n/a	n/a
119.4443	0.5167	FIXCROSS	n/a	n/a	n/a	n/a	n/a	n/a	n/a	n/a
119.961	0.8167	INK	36	Incongruent	czerwony	red	niebieski	blue	hit	n/a
120.755	n/a	RESPONSE	n/a	n/a	n/a	n/a	n/a	n/a	n/a	blue
120.7776	1.0167	ITI	n/a	n/a	n/a	n/a	n/a	n/a	n/a	n/a
121.7943	0.5167	FIXCROSS	n/a	n/a	n/a	n/a	n/a	n/a	n/a	n/a
122.311	0.5333	INK	37	Incongruent	żółty	yellow	niebieski	blue	hit	n/a
122.8144	n/a	RESPONSE	n/a	n/a	n/a	n/a	n/a	n/a	n/a	blue
122.8443	1.0167	ITI	n/a	n/a	n/a	n/a	n/a	n/a	n/a	n/a
123.861	0.5166	FIXCROSS	n/a	n/a	n/a	n/a	n/a	n/a	n/a	n/a
124.3776	0.5167	INK	38	Neutral	xxxxxxx	xxxxxxx	niebieski	blue	hit	n/a
124.8738	n/a	RESPONSE	n/a	n/a	n/a	n/a	n/a	n/a	n/a	blue
124.8943	1.0167	ITI	n/a	n/a	n/a	n/a	n/a	n/a	n/a	n/a
125.911	0.5167	FIXCROSS	n/a	n/a	n/a	n/a	n/a	n/a	n/a	n/a
126.4277	0.7166	INK	39	Incongruent	czerwony	red	żółty	yellow	hit	n/a
127.1248	n/a	RESPONSE	n/a	n/a	n/a	n/a	n/a	n/a	n/a	yellow
127.1443	1.0167	ITI	n/a	n/a	n/a	n/a	n/a	n/a	n/a	n/a
128.161	0.5166	FIXCROSS	n/a	n/a	n/a	n/a	n/a	n/a	n/a	n/a
128.6777	0.55	INK	40	Neutral	xxxxx	xxxxx	czerwony	red	hit	n/a
129.2002	n/a	RESPONSE	n/a	n/a	n/a	n/a	n/a	n/a	n/a	red
129.2277	1.0167	ITI	n/a	n/a	n/a	n/a	n/a	n/a	n/a	n/a
130.2444	0.5167	FIXCROSS	n/a	n/a	n/a	n/a	n/a	n/a	n/a	n/a
130.761	0.8333	INK	41	Incongruent	żółty	yellow	niebieski	blue	hit	n/a
131.5629	n/a	RESPONSE	n/a	n/a	n/a	n/a	n/a	n/a	n/a	blue
131.5944	1.0167	ITI	n/a	n/a	n/a	n/a	n/a	n/a	n/a	n/a
132.6111	0.5167	FIXCROSS	n/a	n/a	n/a	n/a	n/a	n/a	n/a	n/a
133.1277	0.7667	INK	42	Incongruent	czerwony	red	żółty	yellow	hit	n/a
133.8617	n/a	RESPONSE	n/a	n/a	n/a	n/a	n/a	n/a	n/a	yellow
133.8944	1.0167	ITI	n/a	n/a	n/a	n/a	n/a	n/a	n/a	n/a
134.9111	0.5166	FIXCROSS	n/a	n/a	n/a	n/a	n/a	n/a	n/a	n/a
135.4277	0.6667	INK	43	Neutral	xxxxxxx	xxxxxxx	czerwony	red	hit	n/a
136.0648	n/a	RESPONSE	n/a	n/a	n/a	n/a	n/a	n/a	n/a	red
136.0944	1.0167	ITI	n/a	n/a	n/a	n/a	n/a	n/a	n/a	n/a
137.1111	0.5167	FIXCROSS	n/a	n/a	n/a	n/a	n/a	n/a	n/a	n/a
137.6278	1.0167	INK	44	Incongruent	żółty	yellow	czerwony	red	hit	n/a
138.6192	n/a	RESPONSE	n/a	n/a	n/a	n/a	n/a	n/a	n/a	red
138.6444	1.0167	ITI	n/a	n/a	n/a	n/a	n/a	n/a	n/a	n/a
139.6611	0.5167	FIXCROSS	n/a	n/a	n/a	n/a	n/a	n/a	n/a	n/a
140.1778	0.5667	INK	45	Incongruent	zielony	green	żółty	yellow	hit	n/a
140.7105	n/a	RESPONSE	n/a	n/a	n/a	n/a	n/a	n/a	n/a	yellow
140.7444	1.0166	ITI	n/a	n/a	n/a	n/a	n/a	n/a	n/a	n/a
141.7611	0.5167	FIXCROSS	n/a	n/a	n/a	n/a	n/a	n/a	n/a	n/a
142.2778	0.4833	INK	46	Neutral	xxxxxxxxx	xxxxxxxxx	żółty	yellow	hit	n/a
142.738	n/a	RESPONSE	n/a	n/a	n/a	n/a	n/a	n/a	n/a	yellow
142.7611	1.0167	ITI	n/a	n/a	n/a	n/a	n/a	n/a	n/a	n/a
143.7778	0.5167	FIXCROSS	n/a	n/a	n/a	n/a	n/a	n/a	n/a	n/a
144.2945	0.8666	INK	47	Incongruent	żółty	yellow	zielony	green	hit	n/a
145.1326	n/a	RESPONSE	n/a	n/a	n/a	n/a	n/a	n/a	n/a	green
145.1611	1.0167	ITI	n/a	n/a	n/a	n/a	n/a	n/a	n/a	n/a
146.1778	0.5167	FIXCROSS	n/a	n/a	n/a	n/a	n/a	n/a	n/a	n/a
146.6945	0.9167	INK	48	Incongruent	niebieski	blue	żółty	yellow	hit	n/a
147.5912	n/a	RESPONSE	n/a	n/a	n/a	n/a	n/a	n/a	n/a	yellow
147.6112	1.0167	ITI	n/a	n/a	n/a	n/a	n/a	n/a	n/a	n/a
148.6278	0.5167	FIXCROSS	n/a	n/a	n/a	n/a	n/a	n/a	n/a	n/a
149.1445	1.05	INK	49	Incongruent	niebieski	blue	zielony	green	incorrect	n/a
150.1614	n/a	RESPONSE	n/a	n/a	n/a	n/a	n/a	n/a	n/a	red
150.1945	1.0166	ITI	n/a	n/a	n/a	n/a	n/a	n/a	n/a	n/a
151.2112	0.5167	FIXCROSS	n/a	n/a	n/a	n/a	n/a	n/a	n/a	n/a
151.7279	1.2167	INK	50	Incongruent	żółty	yellow	niebieski	blue	hit	n/a
152.9233	n/a	RESPONSE	n/a	n/a	n/a	n/a	n/a	n/a	n/a	blue
152.9445	1.0167	ITI	n/a	n/a	n/a	n/a	n/a	n/a	n/a	n/a
153.9612	0.5167	FIXCROSS	n/a	n/a	n/a	n/a	n/a	n/a	n/a	n/a
154.4779	0.6833	INK	51	Neutral	xxxxxxxx	xxxxxxxx	zielony	green	hit	n/a
155.1423	n/a	RESPONSE	n/a	n/a	n/a	n/a	n/a	n/a	n/a	green
155.1612	1.0167	ITI	n/a	n/a	n/a	n/a	n/a	n/a	n/a	n/a
156.1779	0.5167	FIXCROSS	n/a	n/a	n/a	n/a	n/a	n/a	n/a	n/a
156.6946	1.6333	INK	52	Incongruent	żółty	yellow	zielony	green	hit	n/a
158.3032	n/a	RESPONSE	n/a	n/a	n/a	n/a	n/a	n/a	n/a	green
158.3279	1.0167	ITI	n/a	n/a	n/a	n/a	n/a	n/a	n/a	n/a
159.3446	0.5167	FIXCROSS	n/a	n/a	n/a	n/a	n/a	n/a	n/a	n/a
159.8612	0.4167	INK	53	Neutral	xxxxx	xxxxx	zielony	green	hit	n/a
160.2509	n/a	RESPONSE	n/a	n/a	n/a	n/a	n/a	n/a	n/a	green
160.2779	1.0167	ITI	n/a	n/a	n/a	n/a	n/a	n/a	n/a	n/a
161.2946	0.5166	FIXCROSS	n/a	n/a	n/a	n/a	n/a	n/a	n/a	n/a
161.8112	0.8167	INK	54	Incongruent	czerwony	red	niebieski	blue	hit	n/a
162.5977	n/a	RESPONSE	n/a	n/a	n/a	n/a	n/a	n/a	n/a	blue
162.6279	1.0167	ITI	n/a	n/a	n/a	n/a	n/a	n/a	n/a	n/a
163.6446	0.5166	FIXCROSS	n/a	n/a	n/a	n/a	n/a	n/a	n/a	n/a
164.1613	0.5333	INK	55	Neutral	xxxxx	xxxxx	niebieski	blue	hit	n/a
164.673	n/a	RESPONSE	n/a	n/a	n/a	n/a	n/a	n/a	n/a	blue
164.6946	1.0167	ITI	n/a	n/a	n/a	n/a	n/a	n/a	n/a	n/a
165.7113	0.5167	FIXCROSS	n/a	n/a	n/a	n/a	n/a	n/a	n/a	n/a
166.228	0.7167	INK	56	Neutral	xxxxx	xxxxx	czerwony	red	hit	n/a
166.924	n/a	RESPONSE	n/a	n/a	n/a	n/a	n/a	n/a	n/a	red
166.9446	1.0167	ITI	n/a	n/a	n/a	n/a	n/a	n/a	n/a	n/a
167.9613	0.5167	FIXCROSS	n/a	n/a	n/a	n/a	n/a	n/a	n/a	n/a
168.478	0.55	INK	57	Neutral	xxxxxxxx	xxxxxxxx	zielony	green	hit	n/a
168.9993	n/a	RESPONSE	n/a	n/a	n/a	n/a	n/a	n/a	n/a	green
169.028	1.0167	ITI	n/a	n/a	n/a	n/a	n/a	n/a	n/a	n/a
170.0447	0.5167	FIXCROSS	n/a	n/a	n/a	n/a	n/a	n/a	n/a	n/a
170.5613	0.8333	INK	58	Incongruent	niebieski	blue	czerwony	red	hit	n/a
171.362	n/a	RESPONSE	n/a	n/a	n/a	n/a	n/a	n/a	n/a	red
171.3946	1.0167	ITI	n/a	n/a	n/a	n/a	n/a	n/a	n/a	n/a
172.4114	0.5166	FIXCROSS	n/a	n/a	n/a	n/a	n/a	n/a	n/a	n/a
172.928	0.6334	INK	59	Neutral	xxxxxxx	xxxxxxx	niebieski	blue	hit	n/a
173.5333	n/a	RESPONSE	n/a	n/a	n/a	n/a	n/a	n/a	n/a	blue
173.5614	1.0167	ITI	n/a	n/a	n/a	n/a	n/a	n/a	n/a	n/a
174.578	0.5166	FIXCROSS	n/a	n/a	n/a	n/a	n/a	n/a	n/a	n/a
175.0947	0.8167	INK	60	Neutral	xxxxxxxxx	xxxxxxxxx	czerwony	red	hit	n/a
175.88	n/a	RESPONSE	n/a	n/a	n/a	n/a	n/a	n/a	n/a	red
175.9114	1.0167	ITI	n/a	n/a	n/a	n/a	n/a	n/a	n/a	n/a
176.928	0.5167	FIXCROSS	n/a	n/a	n/a	n/a	n/a	n/a	n/a	n/a
177.4447	0.7167	INK	61	Incongruent	czerwony	red	zielony	green	hit	n/a
178.131	n/a	RESPONSE	n/a	n/a	n/a	n/a	n/a	n/a	n/a	green
178.1614	1.0167	ITI	n/a	n/a	n/a	n/a	n/a	n/a	n/a	n/a
179.1781	0.5166	FIXCROSS	n/a	n/a	n/a	n/a	n/a	n/a	n/a	n/a
179.6947	0.4834	INK	62	Incongruent	niebieski	blue	zielony	green	hit	n/a
180.1585	n/a	RESPONSE	n/a	n/a	n/a	n/a	n/a	n/a	n/a	green
180.1781	1.0167	ITI	n/a	n/a	n/a	n/a	n/a	n/a	n/a	n/a
181.1947	0.5167	FIXCROSS	n/a	n/a	n/a	n/a	n/a	n/a	n/a	n/a
181.7114	0.75	INK	63	Neutral	xxxxxxx	xxxxxxx	żółty	yellow	hit	n/a
182.4413	n/a	RESPONSE	n/a	n/a	n/a	n/a	n/a	n/a	n/a	yellow
182.4614	1.0167	ITI	n/a	n/a	n/a	n/a	n/a	n/a	n/a	n/a
183.4781	0.5166	FIXCROSS	n/a	n/a	n/a	n/a	n/a	n/a	n/a	n/a
183.9947	1.1167	INK	64	Incongruent	zielony	green	niebieski	blue	hit	n/a
185.0914	n/a	RESPONSE	n/a	n/a	n/a	n/a	n/a	n/a	n/a	blue
185.1114	1.0166	ITI	n/a	n/a	n/a	n/a	n/a	n/a	n/a	n/a
186.1281	0.5167	FIXCROSS	n/a	n/a	n/a	n/a	n/a	n/a	n/a	n/a
186.6448	0.9167	INK	65	Neutral	xxxxxxxxx	xxxxxxxxx	zielony	green	hit	n/a
187.534	n/a	RESPONSE	n/a	n/a	n/a	n/a	n/a	n/a	n/a	green
187.5615	1.0167	ITI	n/a	n/a	n/a	n/a	n/a	n/a	n/a	n/a
188.5781	0.5167	FIXCROSS	n/a	n/a	n/a	n/a	n/a	n/a	n/a	n/a
189.0948	0.5167	INK	66	Neutral	xxxxxxxxx	xxxxxxxxx	zielony	green	hit	n/a
189.5933	n/a	RESPONSE	n/a	n/a	n/a	n/a	n/a	n/a	n/a	green
189.6115	1.0167	ITI	n/a	n/a	n/a	n/a	n/a	n/a	n/a	n/a
190.6281	0.5167	FIXCROSS	n/a	n/a	n/a	n/a	n/a	n/a	n/a	n/a
191.1448	0.6833	INK	67	Incongruent	zielony	green	żółty	yellow	hit	n/a
191.7964	n/a	RESPONSE	n/a	n/a	n/a	n/a	n/a	n/a	n/a	yellow
191.8281	1.0167	ITI	n/a	n/a	n/a	n/a	n/a	n/a	n/a	n/a
192.8448	0.5167	FIXCROSS	n/a	n/a	n/a	n/a	n/a	n/a	n/a	n/a
193.3615	0.55	INK	68	Neutral	xxxxxxxxx	xxxxxxxxx	żółty	yellow	hit	n/a
193.8878	n/a	RESPONSE	n/a	n/a	n/a	n/a	n/a	n/a	n/a	yellow
193.9115	1.0167	ITI	n/a	n/a	n/a	n/a	n/a	n/a	n/a	n/a
194.9282	0.5167	FIXCROSS	n/a	n/a	n/a	n/a	n/a	n/a	n/a	n/a
195.4448	0.6833	INK	69	Neutral	xxxxxxxxx	xxxxxxxxx	czerwony	red	hit	n/a
196.1069	n/a	RESPONSE	n/a	n/a	n/a	n/a	n/a	n/a	n/a	red
196.1282	1.0167	ITI	n/a	n/a	n/a	n/a	n/a	n/a	n/a	n/a
197.1449	0.5166	FIXCROSS	n/a	n/a	n/a	n/a	n/a	n/a	n/a	n/a
197.6615	0.6833	INK	70	Neutral	xxxxxxxx	xxxxxxxx	żółty	yellow	hit	n/a
198.3259	n/a	RESPONSE	n/a	n/a	n/a	n/a	n/a	n/a	n/a	yellow
198.3448	1.0167	ITI	n/a	n/a	n/a	n/a	n/a	n/a	n/a	n/a
199.3615	0.5167	FIXCROSS	n/a	n/a	n/a	n/a	n/a	n/a	n/a	n/a
199.8782	0.7333	INK	71	Neutral	xxxxx	xxxxx	niebieski	blue	hit	n/a
200.593	n/a	RESPONSE	n/a	n/a	n/a	n/a	n/a	n/a	n/a	blue
200.6115	1.0167	ITI	n/a	n/a	n/a	n/a	n/a	n/a	n/a	n/a
201.6282	0.5167	FIXCROSS	n/a	n/a	n/a	n/a	n/a	n/a	n/a	n/a
202.1449	0.9667	INK	72	Incongruent	czerwony	red	żółty	yellow	hit	n/a
203.0834	n/a	RESPONSE	n/a	n/a	n/a	n/a	n/a	n/a	n/a	yellow
203.1116	1.0833	ITI	n/a	n/a	n/a	n/a	n/a	n/a	n/a	n/a
290.3441	n/a	RESPONSE	n/a	n/a	n/a	n/a	n/a	n/a	n/a	n/a
290.4122	1.0167	ITI	n/a	n/a	n/a	n/a	n/a	n/a	n/a	n/a
291.4289	0.5166	FIXCROSS	n/a	n/a	n/a	n/a	n/a	n/a	n/a	n/a
291.9455	1.3	T_COLOR_NAME	1	Incongruent	zielony	green	niebieski	blue	incorrect	n/a
293.2177	n/a	RESPONSE	n/a	n/a	n/a	n/a	n/a	n/a	n/a	blue
293.2455	0.5167	FEEDBACK	n/a	n/a	n/a	n/a	n/a	n/a	n/a	n/a
293.7622	1.0167	ITI	n/a	n/a	n/a	n/a	n/a	n/a	n/a	n/a
294.7789	0.5167	FIXCROSS	n/a	n/a	n/a	n/a	n/a	n/a	n/a	n/a
295.2955	1.6833	T_COLOR_NAME	2	Neutral	zielony	green	Neutral	Neutral	hit	n/a
296.9533	n/a	RESPONSE	n/a	n/a	n/a	n/a	n/a	n/a	n/a	green
296.9789	0.5167	FEEDBACK	n/a	n/a	n/a	n/a	n/a	n/a	n/a	n/a
297.4956	1.0167	ITI	n/a	n/a	n/a	n/a	n/a	n/a	n/a	n/a
298.5122	0.5167	FIXCROSS	n/a	n/a	n/a	n/a	n/a	n/a	n/a	n/a
299.0289	1.25	T_COLOR_NAME	3	Incongruent	czerwony	red	niebieski	blue	hit	n/a
300.242	n/a	RESPONSE	n/a	n/a	n/a	n/a	n/a	n/a	n/a	red
300.2789	0.5166	FEEDBACK	n/a	n/a	n/a	n/a	n/a	n/a	n/a	n/a
300.7956	1.0167	ITI	n/a	n/a	n/a	n/a	n/a	n/a	n/a	n/a
301.8123	0.5167	FIXCROSS	n/a	n/a	n/a	n/a	n/a	n/a	n/a	n/a
302.3289	1.25	T_COLOR_NAME	4	Incongruent	czerwony	red	zielony	green	hit	n/a
303.5466	n/a	RESPONSE	n/a	n/a	n/a	n/a	n/a	n/a	n/a	red
303.5789	0.5167	FEEDBACK	n/a	n/a	n/a	n/a	n/a	n/a	n/a	n/a
304.0956	1.0166	ITI	n/a	n/a	n/a	n/a	n/a	n/a	n/a	n/a
305.1123	0.5167	FIXCROSS	n/a	n/a	n/a	n/a	n/a	n/a	n/a	n/a
305.6289	0.9334	T_COLOR_NAME	5	Neutral	żółty	yellow	Neutral	Neutral	hit	n/a
306.532	n/a	RESPONSE	n/a	n/a	n/a	n/a	n/a	n/a	n/a	yellow
306.5623	0.5167	FEEDBACK	n/a	n/a	n/a	n/a	n/a	n/a	n/a	n/a
307.079	1.0167	ITI	n/a	n/a	n/a	n/a	n/a	n/a	n/a	n/a
308.0956	0.5167	FIXCROSS	n/a	n/a	n/a	n/a	n/a	n/a	n/a	n/a
308.6123	0.8833	T_COLOR_NAME	6	Incongruent	żółty	yellow	czerwony	red	hit	n/a
309.4694	n/a	RESPONSE	n/a	n/a	n/a	n/a	n/a	n/a	n/a	yellow
309.4956	0.5167	FEEDBACK	n/a	n/a	n/a	n/a	n/a	n/a	n/a	n/a
310.0123	1.0166	ITI	n/a	n/a	n/a	n/a	n/a	n/a	n/a	n/a
311.029	0.5167	FIXCROSS	n/a	n/a	n/a	n/a	n/a	n/a	n/a	n/a
311.5457	0.9833	T_COLOR_NAME	7	Neutral	niebieski	blue	Neutral	Neutral	hit	n/a
312.5026	n/a	RESPONSE	n/a	n/a	n/a	n/a	n/a	n/a	n/a	blue
312.529	0.5167	FEEDBACK	n/a	n/a	n/a	n/a	n/a	n/a	n/a	n/a
313.0457	1.0166	ITI	n/a	n/a	n/a	n/a	n/a	n/a	n/a	n/a
314.0623	0.5167	FIXCROSS	n/a	n/a	n/a	n/a	n/a	n/a	n/a	n/a
314.579	0.8	T_COLOR_NAME	8	Incongruent	niebieski	blue	zielony	green	hit	n/a
315.3443	n/a	RESPONSE	n/a	n/a	n/a	n/a	n/a	n/a	n/a	blue
315.379	0.5167	FEEDBACK	n/a	n/a	n/a	n/a	n/a	n/a	n/a	n/a
315.8957	1.0167	ITI	n/a	n/a	n/a	n/a	n/a	n/a	n/a	n/a
316.9124	0.5166	FIXCROSS	n/a	n/a	n/a	n/a	n/a	n/a	n/a	n/a
317.429	0.65	T_COLOR_NAME	9	Neutral	niebieski	blue	Neutral	Neutral	hit	n/a
318.0583	n/a	RESPONSE	n/a	n/a	n/a	n/a	n/a	n/a	n/a	blue
318.079	0.5166	FEEDBACK	n/a	n/a	n/a	n/a	n/a	n/a	n/a	n/a
318.5957	1.0167	ITI	n/a	n/a	n/a	n/a	n/a	n/a	n/a	n/a
319.6124	0.5167	FIXCROSS	n/a	n/a	n/a	n/a	n/a	n/a	n/a	n/a
320.129	0.95	T_COLOR_NAME	10	Incongruent	zielony	green	czerwony	red	hit	n/a
321.0436	n/a	RESPONSE	n/a	n/a	n/a	n/a	n/a	n/a	n/a	green
321.079	0.5167	FEEDBACK	n/a	n/a	n/a	n/a	n/a	n/a	n/a	n/a
321.5957	1.0167	ITI	n/a	n/a	n/a	n/a	n/a	n/a	n/a	n/a
322.6124	0.5166	FIXCROSS	n/a	n/a	n/a	n/a	n/a	n/a	n/a	n/a
323.129	0.7	T_COLOR_NAME	11	Incongruent	zielony	green	żółty	yellow	hit	n/a
323.8055	n/a	RESPONSE	n/a	n/a	n/a	n/a	n/a	n/a	n/a	green
323.8291	0.5167	FEEDBACK	n/a	n/a	n/a	n/a	n/a	n/a	n/a	n/a
324.3457	1.0167	ITI	n/a	n/a	n/a	n/a	n/a	n/a	n/a	n/a
325.3624	0.5167	FIXCROSS	n/a	n/a	n/a	n/a	n/a	n/a	n/a	n/a
325.8791	0.7667	T_COLOR_NAME	12	Neutral	żółty	yellow	Neutral	Neutral	hit	n/a
326.6151	n/a	RESPONSE	n/a	n/a	n/a	n/a	n/a	n/a	n/a	yellow
326.6458	0.5167	FEEDBACK	n/a	n/a	n/a	n/a	n/a	n/a	n/a	n/a
327.1624	1.0334	ITI	n/a	n/a	n/a	n/a	n/a	n/a	n/a	n/a
332.9051	n/a	RESPONSE	n/a	n/a	n/a	n/a	n/a	n/a	n/a	n/a
332.9624	1.0167	ITI	n/a	n/a	n/a	n/a	n/a	n/a	n/a	n/a
333.9792	0.5167	FIXCROSS	n/a	n/a	n/a	n/a	n/a	n/a	n/a	n/a
334.4958	0.8833	COLOR_NAME	1	Neutral	żółty	yellow	Neutral	Neutral	hit	n/a
335.3476	n/a	RESPONSE	n/a	n/a	n/a	n/a	n/a	n/a	n/a	yellow
335.3792	1.0167	ITI	n/a	n/a	n/a	n/a	n/a	n/a	n/a	n/a
336.3958	0.5167	FIXCROSS	n/a	n/a	n/a	n/a	n/a	n/a	n/a	n/a
336.9125	0.5833	COLOR_NAME	2	Incongruent	żółty	yellow	czerwony	red	hit	n/a
337.4708	n/a	RESPONSE	n/a	n/a	n/a	n/a	n/a	n/a	n/a	yellow
337.4958	1.0166	ITI	n/a	n/a	n/a	n/a	n/a	n/a	n/a	n/a
338.5125	0.5167	FIXCROSS	n/a	n/a	n/a	n/a	n/a	n/a	n/a	n/a
339.0292	0.7333	COLOR_NAME	3	Neutral	niebieski	blue	Neutral	Neutral	hit	n/a
339.7378	n/a	RESPONSE	n/a	n/a	n/a	n/a	n/a	n/a	n/a	blue
339.7625	1.0167	ITI	n/a	n/a	n/a	n/a	n/a	n/a	n/a	n/a
340.7792	0.5166	FIXCROSS	n/a	n/a	n/a	n/a	n/a	n/a	n/a	n/a
341.2958	0.75	COLOR_NAME	4	Incongruent	żółty	yellow	czerwony	red	hit	n/a
342.0208	n/a	RESPONSE	n/a	n/a	n/a	n/a	n/a	n/a	n/a	yellow
342.0459	1.0166	ITI	n/a	n/a	n/a	n/a	n/a	n/a	n/a	n/a
343.0625	0.5167	FIXCROSS	n/a	n/a	n/a	n/a	n/a	n/a	n/a	n/a
343.5792	0.7	COLOR_NAME	5	Incongruent	niebieski	blue	czerwony	red	hit	n/a
344.2557	n/a	RESPONSE	n/a	n/a	n/a	n/a	n/a	n/a	n/a	blue
344.2792	1.0167	ITI	n/a	n/a	n/a	n/a	n/a	n/a	n/a	n/a
345.2959	0.5167	FIXCROSS	n/a	n/a	n/a	n/a	n/a	n/a	n/a	n/a
345.8126	0.9167	COLOR_NAME	6	Neutral	czerwony	red	Neutral	Neutral	hit	n/a
346.6982	n/a	RESPONSE	n/a	n/a	n/a	n/a	n/a	n/a	n/a	red
346.7292	1.0167	ITI	n/a	n/a	n/a	n/a	n/a	n/a	n/a	n/a
347.7459	0.5167	FIXCROSS	n/a	n/a	n/a	n/a	n/a	n/a	n/a	n/a
348.2626	1.6333	COLOR_NAME	7	Incongruent	zielony	green	niebieski	blue	hit	n/a
349.8752	n/a	RESPONSE	n/a	n/a	n/a	n/a	n/a	n/a	n/a	green
349.8959	1.0167	ITI	n/a	n/a	n/a	n/a	n/a	n/a	n/a	n/a
350.9126	0.5167	FIXCROSS	n/a	n/a	n/a	n/a	n/a	n/a	n/a	n/a
351.4293	0.9833	COLOR_NAME	8	Incongruent	niebieski	blue	żółty	yellow	hit	n/a
352.3817	n/a	RESPONSE	n/a	n/a	n/a	n/a	n/a	n/a	n/a	blue
352.4126	1.0167	ITI	n/a	n/a	n/a	n/a	n/a	n/a	n/a	n/a
353.4293	0.5167	FIXCROSS	n/a	n/a	n/a	n/a	n/a	n/a	n/a	n/a
353.946	1.5833	COLOR_NAME	9	Incongruent	żółty	yellow	niebieski	blue	hit	n/a
355.5106	n/a	RESPONSE	n/a	n/a	n/a	n/a	n/a	n/a	n/a	yellow
355.5293	1.0167	ITI	n/a	n/a	n/a	n/a	n/a	n/a	n/a	n/a
356.5459	0.5167	FIXCROSS	n/a	n/a	n/a	n/a	n/a	n/a	n/a	n/a
357.0626	0.5834	COLOR_NAME	10	Neutral	niebieski	blue	Neutral	Neutral	hit	n/a
357.6179	n/a	RESPONSE	n/a	n/a	n/a	n/a	n/a	n/a	n/a	blue
357.646	1.0167	ITI	n/a	n/a	n/a	n/a	n/a	n/a	n/a	n/a
358.6627	0.5166	FIXCROSS	n/a	n/a	n/a	n/a	n/a	n/a	n/a	n/a
359.1793	0.8667	COLOR_NAME	11	Incongruent	czerwony	red	niebieski	blue	hit	n/a
360.0286	n/a	RESPONSE	n/a	n/a	n/a	n/a	n/a	n/a	n/a	red
360.046	1.0167	ITI	n/a	n/a	n/a	n/a	n/a	n/a	n/a	n/a
361.0627	0.5167	FIXCROSS	n/a	n/a	n/a	n/a	n/a	n/a	n/a	n/a
361.5794	0.6	COLOR_NAME	12	Neutral	zielony	green	Neutral	Neutral	hit	n/a
362.1518	n/a	RESPONSE	n/a	n/a	n/a	n/a	n/a	n/a	n/a	green
362.1793	1.0167	ITI	n/a	n/a	n/a	n/a	n/a	n/a	n/a	n/a
363.196	0.5167	FIXCROSS	n/a	n/a	n/a	n/a	n/a	n/a	n/a	n/a
363.7127	0.75	COLOR_NAME	13	Incongruent	niebieski	blue	czerwony	red	hit	n/a
364.4347	n/a	RESPONSE	n/a	n/a	n/a	n/a	n/a	n/a	n/a	blue
364.4627	1.0167	ITI	n/a	n/a	n/a	n/a	n/a	n/a	n/a	n/a
365.4794	0.5167	FIXCROSS	n/a	n/a	n/a	n/a	n/a	n/a	n/a	n/a
365.996	0.8333	COLOR_NAME	14	Neutral	żółty	yellow	Neutral	Neutral	hit	n/a
366.7975	n/a	RESPONSE	n/a	n/a	n/a	n/a	n/a	n/a	n/a	yellow
366.8294	1.0166	ITI	n/a	n/a	n/a	n/a	n/a	n/a	n/a	n/a
367.846	0.5167	FIXCROSS	n/a	n/a	n/a	n/a	n/a	n/a	n/a	n/a
368.3627	0.6833	COLOR_NAME	15	Incongruent	zielony	green	czerwony	red	hit	n/a
369.0165	n/a	RESPONSE	n/a	n/a	n/a	n/a	n/a	n/a	n/a	green
369.0461	1.0167	ITI	n/a	n/a	n/a	n/a	n/a	n/a	n/a	n/a
370.0627	0.5166	FIXCROSS	n/a	n/a	n/a	n/a	n/a	n/a	n/a	n/a
370.5794	0.7	COLOR_NAME	16	Neutral	czerwony	red	Neutral	Neutral	hit	n/a
371.2514	n/a	RESPONSE	n/a	n/a	n/a	n/a	n/a	n/a	n/a	red
371.2794	1.0167	ITI	n/a	n/a	n/a	n/a	n/a	n/a	n/a	n/a
372.296	0.5167	FIXCROSS	n/a	n/a	n/a	n/a	n/a	n/a	n/a	n/a
372.8128	0.7333	COLOR_NAME	17	Neutral	żółty	yellow	Neutral	Neutral	hit	n/a
373.5184	n/a	RESPONSE	n/a	n/a	n/a	n/a	n/a	n/a	n/a	yellow
373.5461	1.0167	ITI	n/a	n/a	n/a	n/a	n/a	n/a	n/a	n/a
374.5628	0.5167	FIXCROSS	n/a	n/a	n/a	n/a	n/a	n/a	n/a	n/a
375.0794	0.7	COLOR_NAME	18	Neutral	czerwony	red	Neutral	Neutral	hit	n/a
375.7535	n/a	RESPONSE	n/a	n/a	n/a	n/a	n/a	n/a	n/a	red
375.7794	1.0167	ITI	n/a	n/a	n/a	n/a	n/a	n/a	n/a	n/a
376.7961	0.5167	FIXCROSS	n/a	n/a	n/a	n/a	n/a	n/a	n/a	n/a
377.3128	0.65	COLOR_NAME	19	Neutral	niebieski	blue	Neutral	Neutral	hit	n/a
377.9406	n/a	RESPONSE	n/a	n/a	n/a	n/a	n/a	n/a	n/a	blue
377.9628	1.0167	ITI	n/a	n/a	n/a	n/a	n/a	n/a	n/a	n/a
378.9795	0.5166	FIXCROSS	n/a	n/a	n/a	n/a	n/a	n/a	n/a	n/a
379.4961	0.9	COLOR_NAME	20	Incongruent	zielony	green	czerwony	red	hit	n/a
380.3671	n/a	RESPONSE	n/a	n/a	n/a	n/a	n/a	n/a	n/a	green
380.3961	1.0167	ITI	n/a	n/a	n/a	n/a	n/a	n/a	n/a	n/a
381.4128	0.5167	FIXCROSS	n/a	n/a	n/a	n/a	n/a	n/a	n/a	n/a
381.9295	0.4833	COLOR_NAME	21	Neutral	zielony	green	Neutral	Neutral	hit	n/a
382.3947	n/a	RESPONSE	n/a	n/a	n/a	n/a	n/a	n/a	n/a	green
382.4128	1.0167	ITI	n/a	n/a	n/a	n/a	n/a	n/a	n/a	n/a
383.4295	0.5166	FIXCROSS	n/a	n/a	n/a	n/a	n/a	n/a	n/a	n/a
383.9461	0.65	COLOR_NAME	22	Incongruent	czerwony	red	żółty	yellow	hit	n/a
384.5658	n/a	RESPONSE	n/a	n/a	n/a	n/a	n/a	n/a	n/a	red
384.5962	1.0167	ITI	n/a	n/a	n/a	n/a	n/a	n/a	n/a	n/a
385.6128	0.5166	FIXCROSS	n/a	n/a	n/a	n/a	n/a	n/a	n/a	n/a
386.1295	0.8333	COLOR_NAME	23	Incongruent	niebieski	blue	zielony	green	hit	n/a
386.9445	n/a	RESPONSE	n/a	n/a	n/a	n/a	n/a	n/a	n/a	blue
386.9628	1.0167	ITI	n/a	n/a	n/a	n/a	n/a	n/a	n/a	n/a
387.9795	0.5167	FIXCROSS	n/a	n/a	n/a	n/a	n/a	n/a	n/a	n/a
388.4962	0.6333	COLOR_NAME	24	Incongruent	żółty	yellow	zielony	green	hit	n/a
389.0997	n/a	RESPONSE	n/a	n/a	n/a	n/a	n/a	n/a	n/a	yellow
389.1295	1.0167	ITI	n/a	n/a	n/a	n/a	n/a	n/a	n/a	n/a
390.1462	0.5167	FIXCROSS	n/a	n/a	n/a	n/a	n/a	n/a	n/a	n/a
390.6629	0.7	COLOR_NAME	25	Incongruent	zielony	green	żółty	yellow	hit	n/a
391.3346	n/a	RESPONSE	n/a	n/a	n/a	n/a	n/a	n/a	n/a	green
391.3629	1.0167	ITI	n/a	n/a	n/a	n/a	n/a	n/a	n/a	n/a
392.3796	0.5167	FIXCROSS	n/a	n/a	n/a	n/a	n/a	n/a	n/a	n/a
392.8962	1.2333	COLOR_NAME	26	Neutral	czerwony	red	Neutral	Neutral	hit	n/a
394.0965	n/a	RESPONSE	n/a	n/a	n/a	n/a	n/a	n/a	n/a	red
394.1295	1.0167	ITI	n/a	n/a	n/a	n/a	n/a	n/a	n/a	n/a
395.1462	0.5167	FIXCROSS	n/a	n/a	n/a	n/a	n/a	n/a	n/a	n/a
395.6629	0.9333	COLOR_NAME	27	Incongruent	niebieski	blue	zielony	green	hit	n/a
396.5709	n/a	RESPONSE	n/a	n/a	n/a	n/a	n/a	n/a	n/a	blue
396.5963	1.0167	ITI	n/a	n/a	n/a	n/a	n/a	n/a	n/a	n/a
397.6129	0.5167	FIXCROSS	n/a	n/a	n/a	n/a	n/a	n/a	n/a	n/a
398.1296	0.6667	COLOR_NAME	28	Incongruent	żółty	yellow	zielony	green	hit	n/a
398.7741	n/a	RESPONSE	n/a	n/a	n/a	n/a	n/a	n/a	n/a	yellow
398.7963	1.0167	ITI	n/a	n/a	n/a	n/a	n/a	n/a	n/a	n/a
399.8129	0.5167	FIXCROSS	n/a	n/a	n/a	n/a	n/a	n/a	n/a	n/a
400.3296	0.8167	COLOR_NAME	29	Incongruent	czerwony	red	zielony	green	hit	n/a
401.1208	n/a	RESPONSE	n/a	n/a	n/a	n/a	n/a	n/a	n/a	red
401.1463	1.0167	ITI	n/a	n/a	n/a	n/a	n/a	n/a	n/a	n/a
402.163	0.5167	FIXCROSS	n/a	n/a	n/a	n/a	n/a	n/a	n/a	n/a
402.6796	0.5833	COLOR_NAME	30	Incongruent	niebieski	blue	czerwony	red	hit	n/a
403.244	n/a	RESPONSE	n/a	n/a	n/a	n/a	n/a	n/a	n/a	blue
403.263	1.0167	ITI	n/a	n/a	n/a	n/a	n/a	n/a	n/a	n/a
404.2796	0.5166	FIXCROSS	n/a	n/a	n/a	n/a	n/a	n/a	n/a	n/a
404.7963	0.8834	COLOR_NAME	31	Neutral	zielony	green	Neutral	Neutral	hit	n/a
405.6546	n/a	RESPONSE	n/a	n/a	n/a	n/a	n/a	n/a	n/a	green
405.6797	1.0167	ITI	n/a	n/a	n/a	n/a	n/a	n/a	n/a	n/a
406.6963	0.5167	FIXCROSS	n/a	n/a	n/a	n/a	n/a	n/a	n/a	n/a
407.213	0.6667	COLOR_NAME	32	Neutral	zielony	green	Neutral	Neutral	hit	n/a
407.8577	n/a	RESPONSE	n/a	n/a	n/a	n/a	n/a	n/a	n/a	green
407.8797	1.0167	ITI	n/a	n/a	n/a	n/a	n/a	n/a	n/a	n/a
408.8963	0.5167	FIXCROSS	n/a	n/a	n/a	n/a	n/a	n/a	n/a	n/a
409.413	0.4833	COLOR_NAME	33	Incongruent	zielony	green	czerwony	red	hit	n/a
409.8692	n/a	RESPONSE	n/a	n/a	n/a	n/a	n/a	n/a	n/a	green
409.8963	1.0167	ITI	n/a	n/a	n/a	n/a	n/a	n/a	n/a	n/a
410.913	0.5167	FIXCROSS	n/a	n/a	n/a	n/a	n/a	n/a	n/a	n/a
411.4297	0.5166	COLOR_NAME	34	Neutral	niebieski	blue	Neutral	Neutral	hit	n/a
411.9127	n/a	RESPONSE	n/a	n/a	n/a	n/a	n/a	n/a	n/a	blue
411.9463	1.0167	ITI	n/a	n/a	n/a	n/a	n/a	n/a	n/a	n/a
412.963	0.5167	FIXCROSS	n/a	n/a	n/a	n/a	n/a	n/a	n/a	n/a
413.4797	0.6	COLOR_NAME	35	Neutral	czerwony	red	Neutral	Neutral	hit	n/a
414.0519	n/a	RESPONSE	n/a	n/a	n/a	n/a	n/a	n/a	n/a	red
414.0797	1.0166	ITI	n/a	n/a	n/a	n/a	n/a	n/a	n/a	n/a
415.0964	0.5167	FIXCROSS	n/a	n/a	n/a	n/a	n/a	n/a	n/a	n/a
415.613	1.45	COLOR_NAME	36	Incongruent	zielony	green	żółty	yellow	hit	n/a
417.0372	n/a	RESPONSE	n/a	n/a	n/a	n/a	n/a	n/a	n/a	green
417.0631	1.0167	ITI	n/a	n/a	n/a	n/a	n/a	n/a	n/a	n/a
418.0797	0.5167	FIXCROSS	n/a	n/a	n/a	n/a	n/a	n/a	n/a	n/a
418.5964	0.55	COLOR_NAME	37	Neutral	zielony	green	Neutral	Neutral	hit	n/a
419.1126	n/a	RESPONSE	n/a	n/a	n/a	n/a	n/a	n/a	n/a	green
419.1464	1.0167	ITI	n/a	n/a	n/a	n/a	n/a	n/a	n/a	n/a
420.1631	0.5167	FIXCROSS	n/a	n/a	n/a	n/a	n/a	n/a	n/a	n/a
420.6798	0.5833	COLOR_NAME	38	Incongruent	niebieski	blue	żółty	yellow	hit	n/a
421.2358	n/a	RESPONSE	n/a	n/a	n/a	n/a	n/a	n/a	n/a	blue
421.2631	1.0167	ITI	n/a	n/a	n/a	n/a	n/a	n/a	n/a	n/a
422.2798	0.5167	FIXCROSS	n/a	n/a	n/a	n/a	n/a	n/a	n/a	n/a
422.7964	0.8166	COLOR_NAME	39	Neutral	zielony	green	Neutral	Neutral	hit	n/a
423.5826	n/a	RESPONSE	n/a	n/a	n/a	n/a	n/a	n/a	n/a	green
423.6131	1.0167	ITI	n/a	n/a	n/a	n/a	n/a	n/a	n/a	n/a
424.6298	0.5167	FIXCROSS	n/a	n/a	n/a	n/a	n/a	n/a	n/a	n/a
425.1465	1.65	COLOR_NAME	40	Neutral	niebieski	blue	Neutral	Neutral	hit	n/a
426.7754	n/a	RESPONSE	n/a	n/a	n/a	n/a	n/a	n/a	n/a	blue
426.7965	1.0167	ITI	n/a	n/a	n/a	n/a	n/a	n/a	n/a	n/a
427.8131	0.5166	FIXCROSS	n/a	n/a	n/a	n/a	n/a	n/a	n/a	n/a
428.3298	1.2999	COLOR_NAME	41	Incongruent	czerwony	red	zielony	green	hit	n/a
429.6011	n/a	RESPONSE	n/a	n/a	n/a	n/a	n/a	n/a	n/a	red
429.6297	1.0168	ITI	n/a	n/a	n/a	n/a	n/a	n/a	n/a	n/a
430.6465	0.5166	FIXCROSS	n/a	n/a	n/a	n/a	n/a	n/a	n/a	n/a
431.1631	0.9333	COLOR_NAME	42	Incongruent	żółty	yellow	zielony	green	incorrect	n/a
432.0756	n/a	RESPONSE	n/a	n/a	n/a	n/a	n/a	n/a	n/a	green
432.0965	1.0167	ITI	n/a	n/a	n/a	n/a	n/a	n/a	n/a	n/a
433.1132	0.5167	FIXCROSS	n/a	n/a	n/a	n/a	n/a	n/a	n/a	n/a
433.6299	1.0	COLOR_NAME	43	Incongruent	zielony	green	niebieski	blue	hit	n/a
434.5979	n/a	RESPONSE	n/a	n/a	n/a	n/a	n/a	n/a	n/a	green
434.6299	1.0167	ITI	n/a	n/a	n/a	n/a	n/a	n/a	n/a	n/a
435.6465	0.5167	FIXCROSS	n/a	n/a	n/a	n/a	n/a	n/a	n/a	n/a
436.1632	0.75	COLOR_NAME	44	Incongruent	żółty	yellow	niebieski	blue	hit	n/a
436.8809	n/a	RESPONSE	n/a	n/a	n/a	n/a	n/a	n/a	n/a	yellow
436.9132	1.0166	ITI	n/a	n/a	n/a	n/a	n/a	n/a	n/a	n/a
437.9299	0.5167	FIXCROSS	n/a	n/a	n/a	n/a	n/a	n/a	n/a	n/a
438.4466	1.0	COLOR_NAME	45	Neutral	zielony	green	Neutral	Neutral	hit	n/a
439.4192	n/a	RESPONSE	n/a	n/a	n/a	n/a	n/a	n/a	n/a	green
439.4466	1.0167	ITI	n/a	n/a	n/a	n/a	n/a	n/a	n/a	n/a
440.4632	0.5167	FIXCROSS	n/a	n/a	n/a	n/a	n/a	n/a	n/a	n/a
440.9799	0.55	COLOR_NAME	46	Incongruent	zielony	green	żółty	yellow	hit	n/a
441.5106	n/a	RESPONSE	n/a	n/a	n/a	n/a	n/a	n/a	n/a	green
441.5299	1.0167	ITI	n/a	n/a	n/a	n/a	n/a	n/a	n/a	n/a
442.5466	0.5166	FIXCROSS	n/a	n/a	n/a	n/a	n/a	n/a	n/a	n/a
443.0632	0.6334	COLOR_NAME	47	Neutral	żółty	yellow	Neutral	Neutral	hit	n/a
443.6657	n/a	RESPONSE	n/a	n/a	n/a	n/a	n/a	n/a	n/a	yellow
443.6966	1.0167	ITI	n/a	n/a	n/a	n/a	n/a	n/a	n/a	n/a
444.7133	0.5166	FIXCROSS	n/a	n/a	n/a	n/a	n/a	n/a	n/a	n/a
445.2299	0.4834	COLOR_NAME	48	Neutral	żółty	yellow	Neutral	Neutral	hit	n/a
445.6932	n/a	RESPONSE	n/a	n/a	n/a	n/a	n/a	n/a	n/a	yellow
445.7133	1.0167	ITI	n/a	n/a	n/a	n/a	n/a	n/a	n/a	n/a
446.7299	0.5167	FIXCROSS	n/a	n/a	n/a	n/a	n/a	n/a	n/a	n/a
447.2466	0.5833	COLOR_NAME	49	Incongruent	żółty	yellow	czerwony	red	hit	n/a
447.8005	n/a	RESPONSE	n/a	n/a	n/a	n/a	n/a	n/a	n/a	yellow
447.8299	1.0167	ITI	n/a	n/a	n/a	n/a	n/a	n/a	n/a	n/a
448.8466	0.5167	FIXCROSS	n/a	n/a	n/a	n/a	n/a	n/a	n/a	n/a
449.3633	0.7	COLOR_NAME	50	Incongruent	czerwony	red	niebieski	blue	hit	n/a
450.0355	n/a	RESPONSE	n/a	n/a	n/a	n/a	n/a	n/a	n/a	red
450.0633	1.0167	ITI	n/a	n/a	n/a	n/a	n/a	n/a	n/a	n/a
451.08	0.5167	FIXCROSS	n/a	n/a	n/a	n/a	n/a	n/a	n/a	n/a
451.5966	0.9833	COLOR_NAME	51	Incongruent	żółty	yellow	niebieski	blue	hit	n/a
452.5578	n/a	RESPONSE	n/a	n/a	n/a	n/a	n/a	n/a	n/a	yellow
452.58	1.0167	ITI	n/a	n/a	n/a	n/a	n/a	n/a	n/a	n/a
453.5967	0.5167	FIXCROSS	n/a	n/a	n/a	n/a	n/a	n/a	n/a	n/a
454.1133	0.6833	COLOR_NAME	52	Neutral	zielony	green	Neutral	Neutral	hit	n/a
454.7769	n/a	RESPONSE	n/a	n/a	n/a	n/a	n/a	n/a	n/a	green
454.7967	1.0166	ITI	n/a	n/a	n/a	n/a	n/a	n/a	n/a	n/a
455.8133	0.5167	FIXCROSS	n/a	n/a	n/a	n/a	n/a	n/a	n/a	n/a
456.33	0.55	COLOR_NAME	53	Neutral	niebieski	blue	Neutral	Neutral	hit	n/a
456.8523	n/a	RESPONSE	n/a	n/a	n/a	n/a	n/a	n/a	n/a	blue
456.88	1.0167	ITI	n/a	n/a	n/a	n/a	n/a	n/a	n/a	n/a
457.8967	0.5166	FIXCROSS	n/a	n/a	n/a	n/a	n/a	n/a	n/a	n/a
458.4133	0.6833	COLOR_NAME	54	Incongruent	czerwony	red	żółty	yellow	hit	n/a
459.0714	n/a	RESPONSE	n/a	n/a	n/a	n/a	n/a	n/a	n/a	red
459.0967	1.0167	ITI	n/a	n/a	n/a	n/a	n/a	n/a	n/a	n/a
460.1134	0.5166	FIXCROSS	n/a	n/a	n/a	n/a	n/a	n/a	n/a	n/a
460.63	0.5334	COLOR_NAME	55	Incongruent	czerwony	red	niebieski	blue	hit	n/a
461.1307	n/a	RESPONSE	n/a	n/a	n/a	n/a	n/a	n/a	n/a	red
461.1634	1.0167	ITI	n/a	n/a	n/a	n/a	n/a	n/a	n/a	n/a
462.1801	0.5166	FIXCROSS	n/a	n/a	n/a	n/a	n/a	n/a	n/a	n/a
462.6967	0.9167	COLOR_NAME	56	Neutral	żółty	yellow	Neutral	Neutral	hit	n/a
463.5893	n/a	RESPONSE	n/a	n/a	n/a	n/a	n/a	n/a	n/a	yellow
463.6134	1.0167	ITI	n/a	n/a	n/a	n/a	n/a	n/a	n/a	n/a
464.63	0.5167	FIXCROSS	n/a	n/a	n/a	n/a	n/a	n/a	n/a	n/a
465.1467	0.6167	COLOR_NAME	57	Neutral	żółty	yellow	Neutral	Neutral	hit	n/a
465.7444	n/a	RESPONSE	n/a	n/a	n/a	n/a	n/a	n/a	n/a	yellow
465.7634	1.0167	ITI	n/a	n/a	n/a	n/a	n/a	n/a	n/a	n/a
466.7801	0.5167	FIXCROSS	n/a	n/a	n/a	n/a	n/a	n/a	n/a	n/a
467.2968	0.6833	COLOR_NAME	58	Incongruent	czerwony	red	zielony	green	hit	n/a
467.9475	n/a	RESPONSE	n/a	n/a	n/a	n/a	n/a	n/a	n/a	red
467.9801	1.0167	ITI	n/a	n/a	n/a	n/a	n/a	n/a	n/a	n/a
468.9968	0.5167	FIXCROSS	n/a	n/a	n/a	n/a	n/a	n/a	n/a	n/a
469.5134	0.7333	COLOR_NAME	59	Neutral	niebieski	blue	Neutral	Neutral	hit	n/a
470.2145	n/a	RESPONSE	n/a	n/a	n/a	n/a	n/a	n/a	n/a	blue
470.2468	1.0167	ITI	n/a	n/a	n/a	n/a	n/a	n/a	n/a	n/a
471.2635	0.5167	FIXCROSS	n/a	n/a	n/a	n/a	n/a	n/a	n/a	n/a
471.7801	0.5667	COLOR_NAME	60	Incongruent	niebieski	blue	żółty	yellow	hit	n/a
472.3217	n/a	RESPONSE	n/a	n/a	n/a	n/a	n/a	n/a	n/a	blue
472.3468	1.0167	ITI	n/a	n/a	n/a	n/a	n/a	n/a	n/a	n/a
473.3635	0.5167	FIXCROSS	n/a	n/a	n/a	n/a	n/a	n/a	n/a	n/a
473.8801	0.6166	COLOR_NAME	61	Neutral	czerwony	red	Neutral	Neutral	hit	n/a
474.4769	n/a	RESPONSE	n/a	n/a	n/a	n/a	n/a	n/a	n/a	red
474.4968	1.0167	ITI	n/a	n/a	n/a	n/a	n/a	n/a	n/a	n/a
475.5135	0.5167	FIXCROSS	n/a	n/a	n/a	n/a	n/a	n/a	n/a	n/a
476.0302	0.6833	COLOR_NAME	62	Incongruent	czerwony	red	żółty	yellow	hit	n/a
476.696	n/a	RESPONSE	n/a	n/a	n/a	n/a	n/a	n/a	n/a	red
476.7135	1.0167	ITI	n/a	n/a	n/a	n/a	n/a	n/a	n/a	n/a
477.7302	0.5166	FIXCROSS	n/a	n/a	n/a	n/a	n/a	n/a	n/a	n/a
478.2468	0.6334	COLOR_NAME	63	Incongruent	zielony	green	niebieski	blue	hit	n/a
478.8511	n/a	RESPONSE	n/a	n/a	n/a	n/a	n/a	n/a	n/a	green
478.8802	1.0167	ITI	n/a	n/a	n/a	n/a	n/a	n/a	n/a	n/a
479.8968	0.5166	FIXCROSS	n/a	n/a	n/a	n/a	n/a	n/a	n/a	n/a
480.4135	0.5667	COLOR_NAME	64	Neutral	żółty	yellow	Neutral	Neutral	hit	n/a
480.9583	n/a	RESPONSE	n/a	n/a	n/a	n/a	n/a	n/a	n/a	yellow
480.9802	1.0167	ITI	n/a	n/a	n/a	n/a	n/a	n/a	n/a	n/a
481.9969	0.5167	FIXCROSS	n/a	n/a	n/a	n/a	n/a	n/a	n/a	n/a
482.5135	0.55	COLOR_NAME	65	Neutral	niebieski	blue	Neutral	Neutral	hit	n/a
483.0338	n/a	RESPONSE	n/a	n/a	n/a	n/a	n/a	n/a	n/a	blue
483.0635	1.0167	ITI	n/a	n/a	n/a	n/a	n/a	n/a	n/a	n/a
484.0802	0.5166	FIXCROSS	n/a	n/a	n/a	n/a	n/a	n/a	n/a	n/a
484.5968	0.6167	COLOR_NAME	66	Neutral	żółty	yellow	Neutral	Neutral	hit	n/a
485.1891	n/a	RESPONSE	n/a	n/a	n/a	n/a	n/a	n/a	n/a	yellow
485.2135	1.0167	ITI	n/a	n/a	n/a	n/a	n/a	n/a	n/a	n/a
486.2302	0.5167	FIXCROSS	n/a	n/a	n/a	n/a	n/a	n/a	n/a	n/a
486.7469	0.6333	COLOR_NAME	67	Neutral	zielony	green	Neutral	Neutral	hit	n/a
487.3602	n/a	RESPONSE	n/a	n/a	n/a	n/a	n/a	n/a	n/a	green
487.3802	1.0166	ITI	n/a	n/a	n/a	n/a	n/a	n/a	n/a	n/a
488.3969	0.5167	FIXCROSS	n/a	n/a	n/a	n/a	n/a	n/a	n/a	n/a
488.9135	0.3834	COLOR_NAME	68	Neutral	czerwony	red	Neutral	Neutral	hit	n/a
489.2759	n/a	RESPONSE	n/a	n/a	n/a	n/a	n/a	n/a	n/a	red
489.2969	1.0167	ITI	n/a	n/a	n/a	n/a	n/a	n/a	n/a	n/a
490.3136	0.5167	FIXCROSS	n/a	n/a	n/a	n/a	n/a	n/a	n/a	n/a
490.8302	0.6667	COLOR_NAME	69	Incongruent	niebieski	blue	zielony	green	hit	n/a
491.463	n/a	RESPONSE	n/a	n/a	n/a	n/a	n/a	n/a	n/a	blue
491.4969	1.0167	ITI	n/a	n/a	n/a	n/a	n/a	n/a	n/a	n/a
492.5136	0.5167	FIXCROSS	n/a	n/a	n/a	n/a	n/a	n/a	n/a	n/a
493.0303	0.4833	COLOR_NAME	70	Neutral	niebieski	blue	Neutral	Neutral	hit	n/a
493.4905	n/a	RESPONSE	n/a	n/a	n/a	n/a	n/a	n/a	n/a	blue
493.5136	1.0167	ITI	n/a	n/a	n/a	n/a	n/a	n/a	n/a	n/a
494.5303	0.5167	FIXCROSS	n/a	n/a	n/a	n/a	n/a	n/a	n/a	n/a
495.0469	0.6667	COLOR_NAME	71	Neutral	czerwony	red	Neutral	Neutral	hit	n/a
495.6936	n/a	RESPONSE	n/a	n/a	n/a	n/a	n/a	n/a	n/a	red
495.7136	1.0167	ITI	n/a	n/a	n/a	n/a	n/a	n/a	n/a	n/a
496.7303	0.5166	FIXCROSS	n/a	n/a	n/a	n/a	n/a	n/a	n/a	n/a
497.2469	0.4167	COLOR_NAME	72	Neutral	czerwony	red	Neutral	Neutral	hit	n/a
497.6412	n/a	RESPONSE	n/a	n/a	n/a	n/a	n/a	n/a	n/a	red
497.6636	1.0333	ITI	n/a	n/a	n/a	n/a	n/a	n/a	n/a	n/a
503.149	n/a	RESPONSE	n/a	n/a	n/a	n/a	n/a	n/a	n/a	n/a
