onset	duration	trial_type	n_back_condition	trial_number	stimulus	response_type
0.0	n/a	RESPONSE	n/a	n/a	n/a	n/a
0.0314	1.0	ISI	n/a	n/a	n/a	n/a
1.0314	0.5	DISTRACTOR	1	1	D	Correct Rejection
1.5314	1.0	ISI	n/a	n/a	n/a	n/a
2.5314	0.5	DISTRACTOR	1	2	B	Correct Rejection
3.0314	1.0	ISI	n/a	n/a	n/a	n/a
4.0314	0.5	DISTRACTOR	1	3	D	Correct Rejection
4.5315	1.0	ISI	n/a	n/a	n/a	n/a
5.5315	0.5	DISTRACTOR	1	4	H	Correct Rejection
6.0315	1.0	ISI	n/a	n/a	n/a	n/a
7.0315	0.5	DISTRACTOR	1	5	C	Correct Rejection
7.5314	1.0	ISI	n/a	n/a	n/a	n/a
8.5315	0.5	TARGET	1	6	C	Hit
8.8762	n/a	RESPONSE	n/a	n/a	n/a	n/a
9.0315	1.0	ISI	n/a	n/a	n/a	n/a
10.0315	0.5	DISTRACTOR	1	7	D	Correct Rejection
10.5315	1.9667	ISI	n/a	n/a	n/a	n/a
12.4982	2.7834	DISTRACTOR	1	8	J	Correct Rejection
15.2815	1.0	ISI	n/a	n/a	n/a	n/a
16.2815	0.5	DISTRACTOR	1	9	F	Correct Rejection
16.7815	1.0	ISI	n/a	n/a	n/a	n/a
17.7815	0.5	DISTRACTOR	1	10	I	Correct Rejection
18.2816	1.0	ISI	n/a	n/a	n/a	n/a
19.2815	0.5	DISTRACTOR	1	11	F	Correct Rejection
19.7816	1.0167	ISI	n/a	n/a	n/a	n/a
20.7982	0.5166	DISTRACTOR	1	12	G	Correct Rejection
21.3149	1.0167	ISI	n/a	n/a	n/a	n/a
22.3316	0.5167	DISTRACTOR	1	13	A	Correct Rejection
22.8483	1.0167	ISI	n/a	n/a	n/a	n/a
23.8649	0.5167	DISTRACTOR	1	14	F	Correct Rejection
24.3816	1.0167	ISI	n/a	n/a	n/a	n/a
25.3982	0.5167	DISTRACTOR	1	15	J	Correct Rejection
25.9149	1.0167	ISI	n/a	n/a	n/a	n/a
26.9316	0.5166	DISTRACTOR	1	16	G	Correct Rejection
27.4483	1.0167	ISI	n/a	n/a	n/a	n/a
28.465	0.5167	DISTRACTOR	1	17	I	Correct Rejection
28.9816	1.0166	ISI	n/a	n/a	n/a	n/a
29.9983	0.5167	DISTRACTOR	1	18	G	Correct Rejection
30.5149	1.0167	ISI	n/a	n/a	n/a	n/a
31.5317	0.5166	DISTRACTOR	1	19	D	Correct Rejection
32.0483	1.0167	ISI	n/a	n/a	n/a	n/a
33.065	0.5167	DISTRACTOR	1	20	F	Correct Rejection
33.5817	1.0166	ISI	n/a	n/a	n/a	n/a
34.5983	0.5167	DISTRACTOR	1	21	D	Correct Rejection
35.115	1.0167	ISI	n/a	n/a	n/a	n/a
36.1317	0.5167	TARGET	1	22	D	Hit
36.6484	1.0167	ISI	n/a	n/a	n/a	n/a
36.8621	n/a	RESPONSE	n/a	n/a	n/a	n/a
37.665	0.5167	DISTRACTOR	1	23	E	Correct Rejection
38.1817	1.0167	ISI	n/a	n/a	n/a	n/a
39.1984	0.5166	TARGET	1	24	E	Hit
39.5282	n/a	RESPONSE	n/a	n/a	n/a	n/a
39.715	1.0167	ISI	n/a	n/a	n/a	n/a
40.7317	0.5167	DISTRACTOR	1	25	G	Correct Rejection
41.2484	1.0167	ISI	n/a	n/a	n/a	n/a
42.2651	0.5167	TARGET	1	26	G	Hit
42.6733	n/a	RESPONSE	n/a	n/a	n/a	n/a
42.7817	1.0167	ISI	n/a	n/a	n/a	n/a
43.7984	0.5167	DISTRACTOR	1	27	E	Correct Rejection
44.3151	1.0167	ISI	n/a	n/a	n/a	n/a
45.3318	0.5167	DISTRACTOR	1	28	F	Correct Rejection
45.8484	1.0167	ISI	n/a	n/a	n/a	n/a
46.8651	0.5166	DISTRACTOR	1	29	H	Correct Rejection
47.3817	1.0167	ISI	n/a	n/a	n/a	n/a
48.3984	0.5166	DISTRACTOR	1	30	D	Correct Rejection
48.9151	1.0167	ISI	n/a	n/a	n/a	n/a
49.9318	0.5167	DISTRACTOR	1	31	J	Correct Rejection
50.4485	1.0167	ISI	n/a	n/a	n/a	n/a
51.4651	0.5167	TARGET	1	32	J	Hit
51.9818	1.0167	ISI	n/a	n/a	n/a	n/a
52.0444	n/a	RESPONSE	n/a	n/a	n/a	n/a
52.9985	0.5167	DISTRACTOR	1	33	E	Correct Rejection
53.5152	1.0167	ISI	n/a	n/a	n/a	n/a
54.5318	0.5167	DISTRACTOR	1	34	D	Correct Rejection
55.0485	1.0166	ISI	n/a	n/a	n/a	n/a
56.0651	0.5167	TARGET	1	35	D	Hit
56.5464	n/a	RESPONSE	n/a	n/a	n/a	n/a
56.5818	1.0167	ISI	n/a	n/a	n/a	n/a
57.5985	0.5166	DISTRACTOR	1	36	E	Correct Rejection
58.1152	1.0167	ISI	n/a	n/a	n/a	n/a
59.1319	0.5167	DISTRACTOR	1	37	A	Correct Rejection
59.6485	1.0167	ISI	n/a	n/a	n/a	n/a
60.6652	0.5166	TARGET	1	38	A	Hit
61.0802	n/a	RESPONSE	n/a	n/a	n/a	n/a
61.1818	1.0167	ISI	n/a	n/a	n/a	n/a
62.1985	0.5166	TARGET	1	39	A	Hit
62.7152	1.0167	ISI	n/a	n/a	n/a	n/a
62.932	n/a	RESPONSE	n/a	n/a	n/a	n/a
63.7319	0.5167	DISTRACTOR	1	40	F	Correct Rejection
64.2486	1.0166	ISI	n/a	n/a	n/a	n/a
65.2652	0.5167	DISTRACTOR	1	41	A	False Alarm
65.7736	n/a	RESPONSE	n/a	n/a	n/a	n/a
65.7819	1.0167	ISI	n/a	n/a	n/a	n/a
66.7986	0.5167	DISTRACTOR	1	42	I	Correct Rejection
67.3153	1.0167	ISI	n/a	n/a	n/a	n/a
68.3319	0.5167	TARGET	1	43	I	Hit
68.8486	1.0167	ISI	n/a	n/a	n/a	n/a
69.0623	n/a	RESPONSE	n/a	n/a	n/a	n/a
69.8653	0.5166	DISTRACTOR	1	44	E	Correct Rejection
70.3819	1.0167	ISI	n/a	n/a	n/a	n/a
71.3986	0.5166	DISTRACTOR	1	45	H	Correct Rejection
71.9152	1.0167	ISI	n/a	n/a	n/a	n/a
72.932	0.5167	DISTRACTOR	1	46	F	Correct Rejection
73.4486	1.0167	ISI	n/a	n/a	n/a	n/a
74.4653	0.5167	DISTRACTOR	1	47	I	Correct Rejection
74.982	1.0167	ISI	n/a	n/a	n/a	n/a
75.9986	0.5166	TARGET	1	48	I	Hit
76.4857	n/a	RESPONSE	n/a	n/a	n/a	n/a
76.5153	1.0167	ISI	n/a	n/a	n/a	n/a
77.532	0.5167	DISTRACTOR	1	49	G	Correct Rejection
78.0487	1.0167	ISI	n/a	n/a	n/a	n/a
79.0653	0.5167	DISTRACTOR	1	50	J	Correct Rejection
79.582	1.1333	ISI	n/a	n/a	n/a	n/a
83.4621	n/a	RESPONSE	n/a	n/a	n/a	n/a
83.482	1.0166	ISI	n/a	n/a	n/a	n/a
84.4987	0.5	DISTRACTOR	2	1	A	Correct Rejection
84.9987	1.0	ISI	n/a	n/a	n/a	n/a
85.9987	0.5167	DISTRACTOR	2	2	F	Correct Rejection
86.5154	1.0167	ISI	n/a	n/a	n/a	n/a
87.5321	0.5167	TARGET	2	3	A	Hit
87.8843	n/a	RESPONSE	n/a	n/a	n/a	n/a
88.0487	1.0167	ISI	n/a	n/a	n/a	n/a
89.0654	0.5166	TARGET	2	4	F	Hit
89.5821	1.0166	ISI	n/a	n/a	n/a	n/a
89.7522	n/a	RESPONSE	n/a	n/a	n/a	n/a
90.5987	0.5167	TARGET	2	5	A	Hit
90.9335	n/a	RESPONSE	n/a	n/a	n/a	n/a
91.1154	1.0167	ISI	n/a	n/a	n/a	n/a
92.1321	0.5166	DISTRACTOR	2	6	C	Correct Rejection
92.6487	1.0167	ISI	n/a	n/a	n/a	n/a
93.6654	0.5166	DISTRACTOR	2	7	J	Correct Rejection
94.1821	1.0167	ISI	n/a	n/a	n/a	n/a
95.1988	0.5167	DISTRACTOR	2	8	J	False Alarm
95.7069	n/a	RESPONSE	n/a	n/a	n/a	n/a
95.7155	1.0167	ISI	n/a	n/a	n/a	n/a
96.7321	0.5167	TARGET	2	9	J	Hit
97.2488	1.0167	ISI	n/a	n/a	n/a	n/a
97.2555	n/a	RESPONSE	n/a	n/a	n/a	n/a
98.2655	0.5167	TARGET	2	10	J	Hit
98.7822	1.0167	ISI	n/a	n/a	n/a	n/a
98.82	n/a	RESPONSE	n/a	n/a	n/a	n/a
99.7988	0.5166	DISTRACTOR	2	11	D	Correct Rejection
100.3155	1.0167	ISI	n/a	n/a	n/a	n/a
101.3322	0.5166	TARGET	2	12	J	Hit
101.7414	n/a	RESPONSE	n/a	n/a	n/a	n/a
101.8488	1.0167	ISI	n/a	n/a	n/a	n/a
102.8655	0.5167	TARGET	2	13	D	Hit
103.3822	1.0167	ISI	n/a	n/a	n/a	n/a
103.6572	n/a	RESPONSE	n/a	n/a	n/a	n/a
104.3989	0.5166	DISTRACTOR	2	14	C	Correct Rejection
104.9155	1.0167	ISI	n/a	n/a	n/a	n/a
105.9322	0.5167	DISTRACTOR	2	15	J	Correct Rejection
106.4489	1.0166	ISI	n/a	n/a	n/a	n/a
107.4655	0.5167	DISTRACTOR	2	16	F	Correct Rejection
107.9822	1.0167	ISI	n/a	n/a	n/a	n/a
108.9989	0.5167	DISTRACTOR	2	17	H	Correct Rejection
109.5156	1.0166	ISI	n/a	n/a	n/a	n/a
110.5322	0.5167	DISTRACTOR	2	18	A	Correct Rejection
111.0489	1.0167	ISI	n/a	n/a	n/a	n/a
112.0656	0.5166	DISTRACTOR	2	19	F	Correct Rejection
112.5822	1.0167	ISI	n/a	n/a	n/a	n/a
113.5989	0.5167	DISTRACTOR	2	20	B	Correct Rejection
114.1156	1.0166	ISI	n/a	n/a	n/a	n/a
115.1322	0.5167	DISTRACTOR	2	21	J	Correct Rejection
115.6489	1.0167	ISI	n/a	n/a	n/a	n/a
116.6656	0.5167	DISTRACTOR	2	22	E	Correct Rejection
117.1823	1.0166	ISI	n/a	n/a	n/a	n/a
118.1989	0.5167	DISTRACTOR	2	23	A	Correct Rejection
118.7156	1.0167	ISI	n/a	n/a	n/a	n/a
119.7323	0.5167	DISTRACTOR	2	24	F	Correct Rejection
120.249	1.0167	ISI	n/a	n/a	n/a	n/a
121.2656	0.5167	DISTRACTOR	2	25	I	Correct Rejection
121.7823	1.0167	ISI	n/a	n/a	n/a	n/a
122.799	0.5167	DISTRACTOR	2	26	B	Correct Rejection
123.3157	1.0167	ISI	n/a	n/a	n/a	n/a
124.3323	0.5167	DISTRACTOR	2	27	G	Correct Rejection
124.849	1.0167	ISI	n/a	n/a	n/a	n/a
125.8657	0.5166	TARGET	2	28	B	Hit
126.3823	1.0167	ISI	n/a	n/a	n/a	n/a
126.438	n/a	RESPONSE	n/a	n/a	n/a	n/a
127.399	0.5167	DISTRACTOR	2	29	H	Correct Rejection
127.9157	1.0167	ISI	n/a	n/a	n/a	n/a
128.9324	0.5166	DISTRACTOR	2	30	A	Correct Rejection
129.449	1.0167	ISI	n/a	n/a	n/a	n/a
130.4657	0.5167	TARGET	2	31	H	Miss
130.9824	1.0167	ISI	n/a	n/a	n/a	n/a
131.9991	0.5167	DISTRACTOR	2	32	H	Correct Rejection
132.5157	1.0166	ISI	n/a	n/a	n/a	n/a
133.5324	0.5167	TARGET	2	33	H	Hit
134.0491	1.0167	ISI	n/a	n/a	n/a	n/a
134.4362	n/a	RESPONSE	n/a	n/a	n/a	n/a
135.0658	0.5166	DISTRACTOR	2	34	C	Correct Rejection
135.5824	1.0167	ISI	n/a	n/a	n/a	n/a
136.5991	0.5167	DISTRACTOR	2	35	I	Correct Rejection
137.1157	1.0167	ISI	n/a	n/a	n/a	n/a
138.1324	0.5166	DISTRACTOR	2	36	B	Correct Rejection
138.6491	1.0167	ISI	n/a	n/a	n/a	n/a
139.6658	0.5166	DISTRACTOR	2	37	J	Correct Rejection
140.1824	1.0167	ISI	n/a	n/a	n/a	n/a
141.1991	0.5167	DISTRACTOR	2	38	F	Correct Rejection
141.7158	1.0167	ISI	n/a	n/a	n/a	n/a
142.7325	0.5166	DISTRACTOR	2	39	F	Correct Rejection
143.2491	1.0167	ISI	n/a	n/a	n/a	n/a
144.2658	0.5167	DISTRACTOR	2	40	J	Correct Rejection
144.7825	1.0167	ISI	n/a	n/a	n/a	n/a
145.7991	0.5167	DISTRACTOR	2	41	J	Correct Rejection
146.3158	1.0167	ISI	n/a	n/a	n/a	n/a
147.3325	0.5167	DISTRACTOR	2	42	G	Correct Rejection
147.8492	1.0167	ISI	n/a	n/a	n/a	n/a
148.8658	0.5166	DISTRACTOR	2	43	E	Correct Rejection
149.3825	1.0167	ISI	n/a	n/a	n/a	n/a
150.3992	0.5167	DISTRACTOR	2	44	B	Correct Rejection
150.9159	1.0167	ISI	n/a	n/a	n/a	n/a
151.9325	0.5167	DISTRACTOR	2	45	G	Correct Rejection
152.4492	1.0167	ISI	n/a	n/a	n/a	n/a
153.4659	0.5167	DISTRACTOR	2	46	C	Correct Rejection
153.9826	1.0166	ISI	n/a	n/a	n/a	n/a
154.9992	0.5167	DISTRACTOR	2	47	J	Correct Rejection
155.5159	1.0167	ISI	n/a	n/a	n/a	n/a
156.5326	0.5167	DISTRACTOR	2	48	J	Correct Rejection
157.0493	1.0167	ISI	n/a	n/a	n/a	n/a
158.0659	0.5167	DISTRACTOR	2	49	E	Correct Rejection
158.5826	1.0166	ISI	n/a	n/a	n/a	n/a
159.5992	0.5167	DISTRACTOR	2	50	H	Correct Rejection
160.1159	1.1167	ISI	n/a	n/a	n/a	n/a
176.5497	n/a	RESPONSE	n/a	n/a	n/a	n/a
176.6161	1.0167	ISI	n/a	n/a	n/a	n/a
177.6327	0.5167	DISTRACTOR	3	1	A	Correct Rejection
178.1494	1.0167	ISI	n/a	n/a	n/a	n/a
179.1661	0.5167	DISTRACTOR	3	2	H	Correct Rejection
179.6827	1.0167	ISI	n/a	n/a	n/a	n/a
180.6994	0.5167	DISTRACTOR	3	3	E	Correct Rejection
181.2161	1.0167	ISI	n/a	n/a	n/a	n/a
182.2328	0.5167	TARGET	3	4	A	Hit
182.5362	n/a	RESPONSE	n/a	n/a	n/a	n/a
182.7494	1.0167	ISI	n/a	n/a	n/a	n/a
183.7661	0.5166	TARGET	3	5	H	Hit
184.2827	1.0167	ISI	n/a	n/a	n/a	n/a
184.5158	n/a	RESPONSE	n/a	n/a	n/a	n/a
185.2995	0.5167	DISTRACTOR	3	6	F	Correct Rejection
185.8161	1.0167	ISI	n/a	n/a	n/a	n/a
186.8328	0.5167	DISTRACTOR	3	7	D	Correct Rejection
187.3495	1.0167	ISI	n/a	n/a	n/a	n/a
188.3661	0.5167	DISTRACTOR	3	8	A	Correct Rejection
188.8828	1.0167	ISI	n/a	n/a	n/a	n/a
189.8995	0.5166	DISTRACTOR	3	9	H	Correct Rejection
190.4161	1.0167	ISI	n/a	n/a	n/a	n/a
191.4328	0.5167	DISTRACTOR	3	10	E	Correct Rejection
191.9495	1.0167	ISI	n/a	n/a	n/a	n/a
192.9662	0.5166	TARGET	3	11	A	Hit
193.2961	n/a	RESPONSE	n/a	n/a	n/a	n/a
193.4828	1.0167	ISI	n/a	n/a	n/a	n/a
194.4995	0.5167	DISTRACTOR	3	12	E	Correct Rejection
195.0162	1.0167	ISI	n/a	n/a	n/a	n/a
196.0329	0.5167	DISTRACTOR	3	13	F	Correct Rejection
196.5495	1.0167	ISI	n/a	n/a	n/a	n/a
197.5662	0.5167	DISTRACTOR	3	14	J	Correct Rejection
198.0829	1.0167	ISI	n/a	n/a	n/a	n/a
199.0996	0.5167	DISTRACTOR	3	15	J	Correct Rejection
199.6162	1.0166	ISI	n/a	n/a	n/a	n/a
200.6329	0.5167	DISTRACTOR	3	16	D	Correct Rejection
201.1496	1.0167	ISI	n/a	n/a	n/a	n/a
202.1662	0.5167	DISTRACTOR	3	17	F	Correct Rejection
202.6829	1.0166	ISI	n/a	n/a	n/a	n/a
203.6996	0.5167	TARGET	3	18	J	Miss
204.2163	1.0166	ISI	n/a	n/a	n/a	n/a
205.2329	0.5167	TARGET	3	19	D	Hit
205.5566	n/a	RESPONSE	n/a	n/a	n/a	n/a
205.7496	1.0167	ISI	n/a	n/a	n/a	n/a
206.7663	0.5167	DISTRACTOR	3	20	J	Correct Rejection
207.283	1.0167	ISI	n/a	n/a	n/a	n/a
208.2996	0.5167	DISTRACTOR	3	21	A	Correct Rejection
208.8163	1.0166	ISI	n/a	n/a	n/a	n/a
209.8329	0.5167	DISTRACTOR	3	22	F	Correct Rejection
210.3496	1.0167	ISI	n/a	n/a	n/a	n/a
211.3663	0.5167	DISTRACTOR	3	23	F	Correct Rejection
211.883	1.0167	ISI	n/a	n/a	n/a	n/a
212.8997	0.5167	DISTRACTOR	3	24	J	Correct Rejection
213.4163	1.0167	ISI	n/a	n/a	n/a	n/a
214.433	0.5167	DISTRACTOR	3	25	A	Correct Rejection
214.9497	1.0166	ISI	n/a	n/a	n/a	n/a
215.9663	0.5167	DISTRACTOR	3	26	E	Correct Rejection
216.483	1.0167	ISI	n/a	n/a	n/a	n/a
217.4997	0.5167	DISTRACTOR	3	27	I	Correct Rejection
218.0164	1.0167	ISI	n/a	n/a	n/a	n/a
219.033	0.5167	DISTRACTOR	3	28	C	Correct Rejection
219.5497	1.0167	ISI	n/a	n/a	n/a	n/a
220.5664	0.5166	DISTRACTOR	3	29	D	Correct Rejection
221.083	1.0167	ISI	n/a	n/a	n/a	n/a
222.0997	0.5167	TARGET	3	30	I	Miss
222.6164	1.0167	ISI	n/a	n/a	n/a	n/a
223.6331	0.5167	DISTRACTOR	3	31	E	False Alarm
224.1497	1.0167	ISI	n/a	n/a	n/a	n/a
224.2185	n/a	RESPONSE	n/a	n/a	n/a	n/a
225.1664	0.5167	TARGET	3	32	D	Miss
225.6831	1.0167	ISI	n/a	n/a	n/a	n/a
226.6998	0.5166	DISTRACTOR	3	33	H	Correct Rejection
227.2164	1.0167	ISI	n/a	n/a	n/a	n/a
228.2331	0.5167	DISTRACTOR	3	34	J	Correct Rejection
228.7498	1.0167	ISI	n/a	n/a	n/a	n/a
229.7665	0.5167	DISTRACTOR	3	35	A	Correct Rejection
230.2831	1.0167	ISI	n/a	n/a	n/a	n/a
231.2998	0.5167	DISTRACTOR	3	36	F	False Alarm
231.8165	1.0167	ISI	n/a	n/a	n/a	n/a
231.8813	n/a	RESPONSE	n/a	n/a	n/a	n/a
232.8331	0.5167	DISTRACTOR	3	37	A	Correct Rejection
233.3498	1.0167	ISI	n/a	n/a	n/a	n/a
234.3665	0.5167	DISTRACTOR	3	38	I	Correct Rejection
234.8832	1.0167	ISI	n/a	n/a	n/a	n/a
235.8998	0.5166	DISTRACTOR	3	39	B	Correct Rejection
236.4165	1.0167	ISI	n/a	n/a	n/a	n/a
237.4332	0.5167	DISTRACTOR	3	40	I	Correct Rejection
237.9498	1.0166	ISI	n/a	n/a	n/a	n/a
238.9665	0.5167	TARGET	3	41	I	Miss
239.4832	1.0167	ISI	n/a	n/a	n/a	n/a
240.4999	0.5167	DISTRACTOR	3	42	D	Correct Rejection
241.0165	1.0167	ISI	n/a	n/a	n/a	n/a
242.0332	0.5166	DISTRACTOR	3	43	C	Correct Rejection
242.5498	1.0168	ISI	n/a	n/a	n/a	n/a
243.5666	0.5166	DISTRACTOR	3	44	F	Correct Rejection
244.0832	1.0167	ISI	n/a	n/a	n/a	n/a
245.0999	0.5167	DISTRACTOR	3	45	J	Correct Rejection
245.6166	1.0166	ISI	n/a	n/a	n/a	n/a
246.6332	0.5167	DISTRACTOR	3	46	E	Correct Rejection
247.1499	1.0167	ISI	n/a	n/a	n/a	n/a
248.1666	0.5167	DISTRACTOR	3	47	B	Correct Rejection
248.6833	1.0167	ISI	n/a	n/a	n/a	n/a
249.6999	0.5167	TARGET	3	48	J	Miss
250.2166	1.0167	ISI	n/a	n/a	n/a	n/a
251.2333	0.5167	DISTRACTOR	3	49	B	Correct Rejection
251.7499	1.0167	ISI	n/a	n/a	n/a	n/a
252.7666	0.5167	TARGET	3	50	B	Miss
253.2833	1.0334	ISI	n/a	n/a	n/a	n/a
257.0891	n/a	RESPONSE	n/a	n/a	n/a	n/a
