onset	duration	trial_type	melody_number	melody_part	key	sound	action
0.0	14.082	CUE_START	n/a	n/a	n/a	n/a	n/a
14.083	7.76	FIXCROSS	n/a	n/a	n/a	n/a	n/a
21.842	6.324	CUE_LISTEN	M3	1	n/a	n/a	n/a
28.166	7.758	FIXCROSS	n/a	n/a	n/a	n/a	n/a
35.925	6.317	CUE_PLAYBACK_BOTH_HANDS	M3	1	n/a	n/a	n/a
37.618	n/a	RESPONSE	M3	1	00	C3	press
37.645	n/a	RESPONSE	M3	1	12	C4	press
38.244	n/a	RESPONSE	M3	1	07	G3	press
38.284	n/a	RESPONSE	M3	1	14	D4	press
38.351	n/a	RESPONSE	M3	1	00	C3	release
38.907	n/a	RESPONSE	M3	1	04	E3	press
38.91	n/a	RESPONSE	M3	1	16	E4	press
38.95	n/a	RESPONSE	M3	1	12	C4	release
39.001	n/a	RESPONSE	M3	1	14	D4	release
39.012	n/a	RESPONSE	M3	1	07	G3	release
39.584	n/a	RESPONSE	M3	1	07	G3	press
39.615	n/a	RESPONSE	M3	1	12	C4	press
39.656	n/a	RESPONSE	M3	1	16	E4	release
39.708	n/a	RESPONSE	M3	1	04	E3	release
40.078	n/a	RESPONSE	M3	1	12	C4	release
40.11	n/a	RESPONSE	M3	1	07	G3	release
40.321	n/a	RESPONSE	M3	1	12	C4	press
40.325	n/a	RESPONSE	M3	1	00	C3	press
40.974	n/a	RESPONSE	M3	1	07	G3	press
41.007	n/a	RESPONSE	M3	1	14	D4	press
41.066	n/a	RESPONSE	M3	1	00	C3	release
41.087	n/a	RESPONSE	M3	1	12	C4	release
41.618	n/a	RESPONSE	M3	1	16	E4	press
41.621	n/a	RESPONSE	M3	1	04	E3	press
41.681	n/a	RESPONSE	M3	1	14	D4	release
41.684	n/a	RESPONSE	M3	1	07	G3	release
42.241	7.758	FIXCROSS	n/a	n/a	n/a	n/a	n/a
42.265	n/a	RESPONSE	M3	1	07	G3	press
42.267	n/a	RESPONSE	M3	1	12	C4	press
42.296	n/a	RESPONSE	M3	1	16	E4	release
42.347	n/a	RESPONSE	M3	1	04	E3	release
43.008	n/a	RESPONSE	M3	1	07	G3	release
43.051	n/a	RESPONSE	M3	1	12	C4	release
50.0	6.317	CUE_LISTEN	M3	2	n/a	n/a	n/a
56.316	7.758	FIXCROSS	n/a	n/a	n/a	n/a	n/a
64.075	6.325	CUE_PLAYBACK_BOTH_HANDS	M3	2	n/a	n/a	n/a
67.116	n/a	RESPONSE	M3	2	00	C3	press
67.13	n/a	RESPONSE	M3	2	17	F4	press
67.668	n/a	RESPONSE	M3	2	17	F4	release
67.682	n/a	RESPONSE	M3	2	00	C3	release
68.088	n/a	RESPONSE	M3	2	00	C3	press
68.112	n/a	RESPONSE	M3	2	16	E4	press
68.694	n/a	RESPONSE	M3	2	07	G3	press
68.715	n/a	RESPONSE	M3	2	17	F4	press
68.786	n/a	RESPONSE	M3	2	00	C3	release
68.788	n/a	RESPONSE	M3	2	16	E4	release
69.298	n/a	RESPONSE	M3	2	04	E3	press
69.301	n/a	RESPONSE	M3	2	19	G4	press
69.371	n/a	RESPONSE	M3	2	17	F4	release
69.374	n/a	RESPONSE	M3	2	07	G3	release
69.885	n/a	RESPONSE	M3	2	07	G3	press
70.095	n/a	RESPONSE	M3	2	04	E3	release
70.206	n/a	RESPONSE	M3	2	19	G4	release
70.357	n/a	RESPONSE	M3	2	07	G3	release
70.4	7.758	FIXCROSS	n/a	n/a	n/a	n/a	n/a
70.44	n/a	RESPONSE	M3	2	00	C3	press
70.442	n/a	RESPONSE	M3	2	17	F4	press
71.051	n/a	RESPONSE	M3	2	07	G3	press
71.062	n/a	RESPONSE	M3	2	19	G4	press
71.164	n/a	RESPONSE	M3	2	00	C3	release
71.325	n/a	RESPONSE	M3	2	17	F4	release
71.456	n/a	RESPONSE	M3	2	19	G4	release
71.547	n/a	RESPONSE	M3	2	07	G3	release
71.658	n/a	RESPONSE	M3	2	16	E4	press
71.661	n/a	RESPONSE	M3	2	00	C3	press
72.194	n/a	RESPONSE	M3	2	17	F4	press
72.212	n/a	RESPONSE	M3	2	07	G3	press
72.274	n/a	RESPONSE	M3	2	16	E4	release
72.317	n/a	RESPONSE	M3	2	00	C3	release
72.796	n/a	RESPONSE	M3	2	19	G4	press
72.807	n/a	RESPONSE	M3	2	04	E3	press
72.868	n/a	RESPONSE	M3	2	17	F4	release
72.871	n/a	RESPONSE	M3	2	07	G3	release
73.381	n/a	RESPONSE	M3	2	07	G3	press
73.532	n/a	RESPONSE	M3	2	04	E3	release
74.004	n/a	RESPONSE	M3	2	19	G4	release
74.115	n/a	RESPONSE	M3	2	07	G3	release
78.158	6.317	CUE_LISTEN	M3	1	n/a	n/a	n/a
84.475	7.758	FIXCROSS	n/a	n/a	n/a	n/a	n/a
92.233	6.317	CUE_PLAYBACK_BOTH_HANDS	M3	1	n/a	n/a	n/a
92.728	n/a	RESPONSE	M3	1	00	C3	press
92.75	n/a	RESPONSE	M3	1	19	G4	press
93.178	n/a	RESPONSE	M3	1	07	G3	press
93.19	n/a	RESPONSE	M3	1	21	A4	press
93.271	n/a	RESPONSE	M3	1	19	G4	release
93.304	n/a	RESPONSE	M3	1	00	C3	release
93.684	n/a	RESPONSE	M3	1	19	G4	press
93.715	n/a	RESPONSE	M3	1	04	E3	press
93.827	n/a	RESPONSE	M3	1	21	A4	release
93.847	n/a	RESPONSE	M3	1	07	G3	release
94.188	n/a	RESPONSE	M3	1	17	F4	press
94.36	n/a	RESPONSE	M3	1	19	G4	release
94.734	n/a	RESPONSE	M3	1	07	G3	press
94.874	n/a	RESPONSE	M3	1	07	G3	release
94.947	n/a	RESPONSE	M3	1	17	F4	release
95.117	n/a	RESPONSE	M3	1	04	E3	release
95.481	n/a	RESPONSE	M3	1	16	E4	press
95.49	n/a	RESPONSE	M3	1	04	E3	press
96.37	n/a	RESPONSE	M3	1	07	G3	press
96.381	n/a	RESPONSE	M3	1	04	E3	release
96.384	n/a	RESPONSE	M3	1	12	C4	press
96.417	n/a	RESPONSE	M3	1	16	E4	release
97.14	n/a	RESPONSE	M3	1	12	C4	release
97.25	n/a	RESPONSE	M3	1	00	C3	press
97.255	n/a	RESPONSE	M3	1	19	G4	press
97.284	n/a	RESPONSE	M3	1	07	G3	release
97.752	n/a	RESPONSE	M3	1	21	A4	press
97.79	n/a	RESPONSE	M3	1	07	G3	press
97.898	n/a	RESPONSE	M3	1	00	C3	release
97.935	n/a	RESPONSE	M3	1	19	G4	release
98.275	n/a	RESPONSE	M3	1	19	G4	press
98.294	n/a	RESPONSE	M3	1	04	E3	press
98.37	n/a	RESPONSE	M3	1	21	A4	release
98.382	n/a	RESPONSE	M3	1	07	G3	release
98.55	7.758	FIXCROSS	n/a	n/a	n/a	n/a	n/a
98.777	n/a	RESPONSE	M3	1	17	F4	press
98.868	n/a	RESPONSE	M3	1	19	G4	release
99.271	n/a	RESPONSE	M3	1	16	E4	press
99.322	n/a	RESPONSE	M3	1	17	F4	release
99.402	n/a	RESPONSE	M3	1	00	C3	press
99.446	n/a	RESPONSE	M3	1	04	E3	release
99.855	n/a	RESPONSE	M3	1	00	C3	release
100.186	n/a	RESPONSE	M3	1	12	C4	press
100.207	n/a	RESPONSE	M3	1	00	C3	press
100.218	n/a	RESPONSE	M3	1	16	E4	release
101.05	n/a	RESPONSE	M3	1	00	C3	release
101.321	n/a	RESPONSE	M3	1	12	C4	release
106.308	6.325	CUE_LISTEN	M3	2	n/a	n/a	n/a
112.633	7.758	FIXCROSS	n/a	n/a	n/a	n/a	n/a
119.578	n/a	RESPONSE	M3	2	12	C4	press
120.18	n/a	RESPONSE	M3	2	12	C4	release
120.391	6.317	CUE_PLAYBACK_BOTH_HANDS	M3	2	n/a	n/a	n/a
122.021	n/a	RESPONSE	M3	2	00	C3	press
122.052	n/a	RESPONSE	M3	2	12	C4	press
122.774	n/a	RESPONSE	M3	2	07	G3	press
122.797	n/a	RESPONSE	M3	2	09	A3	press
122.846	n/a	RESPONSE	M3	2	12	C4	release
122.957	n/a	RESPONSE	M3	2	09	A3	release
123.421	n/a	RESPONSE	M3	2	00	C3	release
123.67	n/a	RESPONSE	M3	2	07	G3	release
123.811	n/a	RESPONSE	M3	2	00	C3	press
123.842	n/a	RESPONSE	M3	2	12	C4	press
124.494	n/a	RESPONSE	M3	2	07	G3	press
124.585	n/a	RESPONSE	M3	2	12	C4	release
124.666	n/a	RESPONSE	M3	2	00	C3	release
125.024	n/a	RESPONSE	M3	2	07	G3	release
125.105	n/a	RESPONSE	M3	2	00	C3	press
125.125	n/a	RESPONSE	M3	2	12	C4	press
125.288	n/a	RESPONSE	M3	2	07	G3	press
125.321	n/a	RESPONSE	M3	2	12	C4	release
125.714	n/a	RESPONSE	M3	2	07	G3	release
125.89	n/a	RESPONSE	M3	2	00	C3	release
126.291	n/a	RESPONSE	M3	2	00	C3	press
126.3	n/a	RESPONSE	M3	2	12	C4	press
126.708	7.758	FIXCROSS	n/a	n/a	n/a	n/a	n/a
126.942	n/a	RESPONSE	M3	2	07	G3	press
126.978	n/a	RESPONSE	M3	2	00	C3	release
127.021	n/a	RESPONSE	M3	2	12	C4	release
127.504	n/a	RESPONSE	M3	2	07	G3	release
127.577	n/a	RESPONSE	M3	2	12	C4	press
127.584	n/a	RESPONSE	M3	2	00	C3	press
128.638	n/a	RESPONSE	M3	2	00	C3	release
131.491	n/a	RESPONSE	M3	2	12	C4	release
134.466	6.317	CUE_LISTEN	M1	1	n/a	n/a	n/a
140.783	7.759	FIXCROSS	n/a	n/a	n/a	n/a	n/a
148.542	6.325	CUE_PLAYBACK_BOTH_HANDS	M1	1	n/a	n/a	n/a
150.436	n/a	RESPONSE	M1	1	19	G4	press
150.446	n/a	RESPONSE	M1	1	04	E3	press
150.448	n/a	RESPONSE	M1	1	07	G3	press
150.451	n/a	RESPONSE	M1	1	00	C3	press
151.01	n/a	RESPONSE	M1	1	14	D4	press
151.112	n/a	RESPONSE	M1	1	19	G4	release
151.602	n/a	RESPONSE	M1	1	14	D4	release
151.764	n/a	RESPONSE	M1	1	04	E3	release
151.825	n/a	RESPONSE	M1	1	07	G3	release
151.846	n/a	RESPONSE	M1	1	19	G4	press
151.867	n/a	RESPONSE	M1	1	07	G3	press
151.87	n/a	RESPONSE	M1	1	04	E3	press
151.891	n/a	RESPONSE	M1	1	14	D4	press
152.081	n/a	RESPONSE	M1	1	14	D4	release
152.612	n/a	RESPONSE	M1	1	16	E4	press
153.016	n/a	RESPONSE	M1	1	19	G4	release
153.045	n/a	RESPONSE	M1	1	00	C3	release
153.076	n/a	RESPONSE	M1	1	04	E3	release
153.09	n/a	RESPONSE	M1	1	16	E4	release
153.108	n/a	RESPONSE	M1	1	07	G3	release
153.37	n/a	RESPONSE	M1	1	16	E4	press
154.202	n/a	RESPONSE	M1	1	16	E4	release
154.866	7.758	FIXCROSS	n/a	n/a	n/a	n/a	n/a
155.064	n/a	RESPONSE	M1	1	16	E4	press
155.067	n/a	RESPONSE	M1	1	17	F4	press
155.07	n/a	RESPONSE	M1	1	05	F3	press
155.072	n/a	RESPONSE	M1	1	02	D3	press
155.088	n/a	RESPONSE	M1	1	07	G3	press
155.217	n/a	RESPONSE	M1	1	17	F4	release
155.845	n/a	RESPONSE	M1	1	12	C4	press
155.904	n/a	RESPONSE	M1	1	16	E4	release
156.384	n/a	RESPONSE	M1	1	12	C4	release
156.651	n/a	RESPONSE	M1	1	05	F3	release
156.7	n/a	RESPONSE	M1	1	02	D3	release
156.708	n/a	RESPONSE	M1	1	07	G3	release
162.625	6.317	CUE_LISTEN	M1	2	n/a	n/a	n/a
168.941	7.758	FIXCROSS	n/a	n/a	n/a	n/a	n/a
176.7	6.317	CUE_PLAYBACK_BOTH_HANDS	M1	2	n/a	n/a	n/a
177.554	n/a	RESPONSE	M1	2	04	E3	press
177.561	n/a	RESPONSE	M1	2	19	G4	press
177.571	n/a	RESPONSE	M1	2	07	G3	press
177.575	n/a	RESPONSE	M1	2	00	C3	press
178.101	n/a	RESPONSE	M1	2	16	E4	press
178.184	n/a	RESPONSE	M1	2	19	G4	release
178.526	n/a	RESPONSE	M1	2	16	E4	release
178.687	n/a	RESPONSE	M1	2	16	E4	press
178.898	n/a	RESPONSE	M1	2	00	C3	release
179.01	n/a	RESPONSE	M1	2	04	E3	release
179.051	n/a	RESPONSE	M1	2	16	E4	release
179.272	n/a	RESPONSE	M1	2	17	F4	press
179.275	n/a	RESPONSE	M1	2	05	F3	press
179.277	n/a	RESPONSE	M1	2	02	D3	press
179.886	n/a	RESPONSE	M1	2	14	D4	press
179.958	n/a	RESPONSE	M1	2	17	F4	release
180.288	n/a	RESPONSE	M1	2	14	D4	release
180.49	n/a	RESPONSE	M1	2	14	D4	press
180.842	n/a	RESPONSE	M1	2	05	F3	release
180.872	n/a	RESPONSE	M1	2	14	D4	release
180.904	n/a	RESPONSE	M1	2	02	D3	release
181.155	n/a	RESPONSE	M1	2	04	E3	press
181.186	n/a	RESPONSE	M1	2	00	C3	press
181.188	n/a	RESPONSE	M1	2	12	C4	press
181.581	n/a	RESPONSE	M1	2	16	E4	press
181.66	n/a	RESPONSE	M1	2	12	C4	release
181.962	n/a	RESPONSE	M1	2	12	C4	press
181.994	n/a	RESPONSE	M1	2	16	E4	release
183.016	7.758	FIXCROSS	n/a	n/a	n/a	n/a	n/a
183.296	n/a	RESPONSE	M1	2	12	C4	release
183.335	n/a	RESPONSE	M1	2	04	E3	release
183.716	n/a	RESPONSE	M1	2	00	C3	release
183.787	n/a	RESPONSE	M1	2	07	G3	release
190.775	6.325	CUE_LISTEN	M2	1	n/a	n/a	n/a
197.1	7.759	FIXCROSS	n/a	n/a	n/a	n/a	n/a
199.89	n/a	RESPONSE	M2	1	24	C5	press
200.531	n/a	RESPONSE	M2	1	24	C5	release
200.752	n/a	RESPONSE	M2	1	19	G4	press
200.984	n/a	RESPONSE	M2	1	19	G4	release
204.427	n/a	RESPONSE	M2	1	24	C5	press
204.857	n/a	RESPONSE	M2	1	24	C5	release
204.858	6.317	CUE_PLAYBACK_BOTH_HANDS	M2	1	n/a	n/a	n/a
205.584	n/a	RESPONSE	M2	1	24	C5	press
205.586	n/a	RESPONSE	M2	1	07	G3	press
205.595	n/a	RESPONSE	M2	1	04	E3	press
205.615	n/a	RESPONSE	M2	1	00	C3	press
206.181	n/a	RESPONSE	M2	1	19	G4	press
206.194	n/a	RESPONSE	M2	1	21	A4	press
206.302	n/a	RESPONSE	M2	1	21	A4	release
206.577	n/a	RESPONSE	M2	1	19	G4	release
206.807	n/a	RESPONSE	M2	1	24	C5	release
206.826	n/a	RESPONSE	M2	1	00	C3	release
206.844	n/a	RESPONSE	M2	1	04	E3	release
206.881	n/a	RESPONSE	M2	1	07	G3	release
207.017	n/a	RESPONSE	M2	1	24	C5	press
207.021	n/a	RESPONSE	M2	1	04	E3	press
207.03	n/a	RESPONSE	M2	1	07	G3	press
207.056	n/a	RESPONSE	M2	1	00	C3	press
207.642	n/a	RESPONSE	M2	1	19	G4	press
207.79	n/a	RESPONSE	M2	1	24	C5	release
208.127	n/a	RESPONSE	M2	1	00	C3	release
208.134	n/a	RESPONSE	M2	1	19	G4	release
208.167	n/a	RESPONSE	M2	1	04	E3	release
208.17	n/a	RESPONSE	M2	1	07	G3	release
208.29	n/a	RESPONSE	M2	1	04	E3	press
208.297	n/a	RESPONSE	M2	1	07	G3	press
208.301	n/a	RESPONSE	M2	1	19	G4	press
208.312	n/a	RESPONSE	M2	1	00	C3	press
208.961	n/a	RESPONSE	M2	1	17	F4	press
209.045	n/a	RESPONSE	M2	1	19	G4	release
209.454	n/a	RESPONSE	M2	1	00	C3	release
209.456	n/a	RESPONSE	M2	1	07	G3	release
209.476	n/a	RESPONSE	M2	1	04	E3	release
209.517	n/a	RESPONSE	M2	1	17	F4	release
209.841	n/a	RESPONSE	M2	1	04	E3	press
209.85	n/a	RESPONSE	M2	1	07	G3	press
209.881	n/a	RESPONSE	M2	1	00	C3	press
210.062	n/a	RESPONSE	M2	1	16	E4	press
210.104	n/a	RESPONSE	M2	1	17	F4	press
210.175	n/a	RESPONSE	M2	1	17	F4	release
210.686	n/a	RESPONSE	M2	1	17	F4	press
210.767	n/a	RESPONSE	M2	1	16	E4	release
211.008	n/a	RESPONSE	M2	1	00	C3	release
211.06	n/a	RESPONSE	M2	1	04	E3	release
211.062	n/a	RESPONSE	M2	1	07	G3	release
211.132	n/a	RESPONSE	M2	1	17	F4	release
211.175	7.758	FIXCROSS	n/a	n/a	n/a	n/a	n/a
211.304	n/a	RESPONSE	M2	1	07	G3	press
211.306	n/a	RESPONSE	M2	1	04	E3	press
211.308	n/a	RESPONSE	M2	1	19	G4	press
211.34	n/a	RESPONSE	M2	1	00	C3	press
212.428	n/a	RESPONSE	M2	1	19	G4	release
212.56	n/a	RESPONSE	M2	1	04	E3	release
212.581	n/a	RESPONSE	M2	1	00	C3	release
215.948	n/a	RESPONSE	M2	1	07	G3	release
218.933	6.325	CUE_LISTEN	M2	2	n/a	n/a	n/a
225.258	7.758	FIXCROSS	n/a	n/a	n/a	n/a	n/a
233.017	6.317	CUE_PLAYBACK_BOTH_HANDS	M2	2	n/a	n/a	n/a
233.556	n/a	RESPONSE	M2	2	24	C5	press
233.567	n/a	RESPONSE	M2	2	00	C3	press
233.57	n/a	RESPONSE	M2	2	07	G3	press
234.17	n/a	RESPONSE	M2	2	19	G4	press
234.361	n/a	RESPONSE	M2	2	24	C5	release
234.584	n/a	RESPONSE	M2	2	19	G4	release
234.604	n/a	RESPONSE	M2	2	07	G3	release
234.625	n/a	RESPONSE	M2	2	00	C3	release
234.758	n/a	RESPONSE	M2	2	00	C3	press
234.767	n/a	RESPONSE	M2	2	07	G3	press
234.78	n/a	RESPONSE	M2	2	19	G4	press
235.374	n/a	RESPONSE	M2	2	17	F4	press
235.492	n/a	RESPONSE	M2	2	19	G4	release
235.827	n/a	RESPONSE	M2	2	07	G3	release
235.848	n/a	RESPONSE	M2	2	17	F4	release
235.86	n/a	RESPONSE	M2	2	00	C3	release
236.017	n/a	RESPONSE	M2	2	16	E4	press
236.058	n/a	RESPONSE	M2	2	00	C3	press
236.061	n/a	RESPONSE	M2	2	07	G3	press
236.684	n/a	RESPONSE	M2	2	14	D4	press
236.762	n/a	RESPONSE	M2	2	16	E4	release
237.12	n/a	RESPONSE	M2	2	07	G3	release
237.204	n/a	RESPONSE	M2	2	00	C3	release
237.224	n/a	RESPONSE	M2	2	14	D4	release
237.315	n/a	RESPONSE	M2	2	07	G3	press
237.318	n/a	RESPONSE	M2	2	00	C3	press
237.327	n/a	RESPONSE	M2	2	12	C4	press
237.346	n/a	RESPONSE	M2	2	14	D4	press
237.452	n/a	RESPONSE	M2	2	14	D4	release
238.457	n/a	RESPONSE	M2	2	00	C3	release
238.915	n/a	RESPONSE	M2	2	12	C4	release
239.066	n/a	RESPONSE	M2	2	07	G3	release
239.333	7.758	FIXCROSS	n/a	n/a	n/a	n/a	n/a
247.092	6.317	CUE_LISTEN	M2	1	n/a	n/a	n/a
253.408	7.758	FIXCROSS	n/a	n/a	n/a	n/a	n/a
261.167	6.325	CUE_PLAYBACK_BOTH_HANDS	M2	1	n/a	n/a	n/a
262.15	n/a	RESPONSE	M2	1	12	C4	press
262.152	n/a	RESPONSE	M2	1	00	C3	press
262.162	n/a	RESPONSE	M2	1	07	G3	press
262.754	n/a	RESPONSE	M2	1	14	D4	press
262.825	n/a	RESPONSE	M2	1	12	C4	release
263.256	n/a	RESPONSE	M2	1	07	G3	release
263.267	n/a	RESPONSE	M2	1	00	C3	release
263.271	n/a	RESPONSE	M2	1	14	D4	release
263.39	n/a	RESPONSE	M2	1	00	C3	press
263.401	n/a	RESPONSE	M2	1	16	E4	press
263.412	n/a	RESPONSE	M2	1	07	G3	press
264.006	n/a	RESPONSE	M2	1	14	D4	press
264.067	n/a	RESPONSE	M2	1	16	E4	release
264.467	n/a	RESPONSE	M2	1	00	C3	release
264.47	n/a	RESPONSE	M2	1	07	G3	release
264.478	n/a	RESPONSE	M2	1	14	D4	release
264.66	n/a	RESPONSE	M2	1	16	E4	press
264.662	n/a	RESPONSE	M2	1	00	C3	press
264.694	n/a	RESPONSE	M2	1	07	G3	press
265.276	n/a	RESPONSE	M2	1	17	F4	press
265.36	n/a	RESPONSE	M2	1	16	E4	release
265.762	n/a	RESPONSE	M2	1	07	G3	release
265.797	n/a	RESPONSE	M2	1	00	C3	release
265.817	n/a	RESPONSE	M2	1	17	F4	release
265.87	n/a	RESPONSE	M2	1	19	G4	press
265.901	n/a	RESPONSE	M2	1	00	C3	press
265.915	n/a	RESPONSE	M2	1	07	G3	press
267.146	n/a	RESPONSE	M2	1	00	C3	release
267.177	n/a	RESPONSE	M2	1	19	G4	release
267.302	n/a	RESPONSE	M2	1	07	G3	release
267.492	7.758	FIXCROSS	n/a	n/a	n/a	n/a	n/a
275.25	6.317	CUE_LISTEN	M2	2	n/a	n/a	n/a
281.567	7.759	FIXCROSS	n/a	n/a	n/a	n/a	n/a
289.325	6.317	CUE_PLAYBACK_BOTH_HANDS	M2	2	n/a	n/a	n/a
289.762	n/a	RESPONSE	M2	2	07	G3	press
289.765	n/a	RESPONSE	M2	2	00	C3	press
289.775	n/a	RESPONSE	M2	2	16	E4	press
290.338	n/a	RESPONSE	M2	2	19	G4	press
290.407	n/a	RESPONSE	M2	2	16	E4	release
290.688	n/a	RESPONSE	M2	2	19	G4	release
290.72	n/a	RESPONSE	M2	2	07	G3	release
290.732	n/a	RESPONSE	M2	2	00	C3	release
290.892	n/a	RESPONSE	M2	2	00	C3	press
290.904	n/a	RESPONSE	M2	2	07	G3	press
290.906	n/a	RESPONSE	M2	2	19	G4	press
291.486	n/a	RESPONSE	M2	2	17	F4	press
291.637	n/a	RESPONSE	M2	2	19	G4	release
291.788	n/a	RESPONSE	M2	2	17	F4	release
291.802	n/a	RESPONSE	M2	2	07	G3	release
291.831	n/a	RESPONSE	M2	2	00	C3	release
292.042	n/a	RESPONSE	M2	2	00	C3	press
292.064	n/a	RESPONSE	M2	2	16	E4	press
292.066	n/a	RESPONSE	M2	2	07	G3	press
292.647	n/a	RESPONSE	M2	2	14	D4	press
292.738	n/a	RESPONSE	M2	2	16	E4	release
293.088	n/a	RESPONSE	M2	2	07	G3	release
293.091	n/a	RESPONSE	M2	2	14	D4	release
293.101	n/a	RESPONSE	M2	2	00	C3	release
293.232	n/a	RESPONSE	M2	2	12	C4	press
293.244	n/a	RESPONSE	M2	2	00	C3	press
293.246	n/a	RESPONSE	M2	2	07	G3	press
294.316	n/a	RESPONSE	M2	2	00	C3	release
294.417	n/a	RESPONSE	M2	2	12	C4	release
294.518	n/a	RESPONSE	M2	2	07	G3	release
295.642	7.758	FIXCROSS	n/a	n/a	n/a	n/a	n/a
303.4	6.325	CUE_LISTEN	M3	1	n/a	n/a	n/a
309.725	7.758	FIXCROSS	n/a	n/a	n/a	n/a	n/a
317.483	6.317	CUE_PLAYBACK_RIGHT_HAND	M3	1	n/a	n/a	n/a
318.09	n/a	RESPONSE	M3	1	00	C3	press
318.117	n/a	RESPONSE	M3	1	12	C4	press
318.486	n/a	RESPONSE	M3	1	00	C3	release
318.527	n/a	RESPONSE	M3	1	12	C4	release
318.728	n/a	RESPONSE	M3	1	12	C4	press
319.36	n/a	RESPONSE	M3	1	14	D4	press
319.461	n/a	RESPONSE	M3	1	12	C4	release
319.952	n/a	RESPONSE	M3	1	16	E4	press
320.024	n/a	RESPONSE	M3	1	14	D4	release
320.585	n/a	RESPONSE	M3	1	12	C4	press
320.656	n/a	RESPONSE	M3	1	16	E4	release
321.02	n/a	RESPONSE	M3	1	12	C4	release
321.228	n/a	RESPONSE	M3	1	12	C4	press
321.82	n/a	RESPONSE	M3	1	14	D4	press
321.922	n/a	RESPONSE	M3	1	12	C4	release
322.412	n/a	RESPONSE	M3	1	16	E4	press
322.494	n/a	RESPONSE	M3	1	14	D4	release
323.045	n/a	RESPONSE	M3	1	12	C4	press
323.068	n/a	RESPONSE	M3	1	16	E4	release
323.8	7.758	FIXCROSS	n/a	n/a	n/a	n/a	n/a
323.82	n/a	RESPONSE	M3	1	12	C4	release
331.558	6.317	CUE_LISTEN	M3	2	n/a	n/a	n/a
337.875	7.758	FIXCROSS	n/a	n/a	n/a	n/a	n/a
345.634	6.333	CUE_PLAYBACK_RIGHT_HAND	M3	2	n/a	n/a	n/a
346.392	n/a	RESPONSE	M3	2	16	E4	press
346.901	n/a	RESPONSE	M3	2	17	F4	press
346.981	n/a	RESPONSE	M3	2	16	E4	release
347.41	n/a	RESPONSE	M3	2	19	G4	press
347.478	n/a	RESPONSE	M3	2	17	F4	release
348.402	n/a	RESPONSE	M3	2	16	E4	press
348.43	n/a	RESPONSE	M3	2	19	G4	release
348.942	n/a	RESPONSE	M3	2	17	F4	press
348.971	n/a	RESPONSE	M3	2	16	E4	release
349.484	n/a	RESPONSE	M3	2	19	G4	press
349.554	n/a	RESPONSE	M3	2	17	F4	release
350.565	n/a	RESPONSE	M3	2	19	G4	release
351.967	7.758	FIXCROSS	n/a	n/a	n/a	n/a	n/a
359.725	6.308	CUE_LISTEN	M3	1	n/a	n/a	n/a
366.034	7.758	FIXCROSS	n/a	n/a	n/a	n/a	n/a
373.792	6.317	CUE_PLAYBACK_RIGHT_HAND	M3	1	n/a	n/a	n/a
374.306	n/a	RESPONSE	M3	1	19	G4	press
374.647	n/a	RESPONSE	M3	1	21	A4	press
374.718	n/a	RESPONSE	M3	1	19	G4	release
374.957	n/a	RESPONSE	M3	1	19	G4	press
375.107	n/a	RESPONSE	M3	1	21	A4	release
375.288	n/a	RESPONSE	M3	1	17	F4	press
375.628	n/a	RESPONSE	M3	1	16	E4	press
375.655	n/a	RESPONSE	M3	1	19	G4	release
375.72	n/a	RESPONSE	M3	1	17	F4	release
376.347	n/a	RESPONSE	M3	1	12	C4	press
376.481	n/a	RESPONSE	M3	1	16	E4	release
377.072	n/a	RESPONSE	M3	1	19	G4	press
377.087	n/a	RESPONSE	M3	1	12	C4	release
377.107	n/a	RESPONSE	M3	1	17	F4	press
377.187	n/a	RESPONSE	M3	1	17	F4	release
377.482	n/a	RESPONSE	M3	1	21	A4	press
377.552	n/a	RESPONSE	M3	1	19	G4	release
377.841	n/a	RESPONSE	M3	1	19	G4	press
377.956	n/a	RESPONSE	M3	1	21	A4	release
378.205	n/a	RESPONSE	M3	1	17	F4	press
378.387	n/a	RESPONSE	M3	1	19	G4	release
378.596	n/a	RESPONSE	M3	1	16	E4	press
378.687	n/a	RESPONSE	M3	1	17	F4	release
379.298	n/a	RESPONSE	M3	1	12	C4	press
379.352	n/a	RESPONSE	M3	1	16	E4	release
380.108	7.758	FIXCROSS	n/a	n/a	n/a	n/a	n/a
380.331	n/a	RESPONSE	M3	1	12	C4	release
387.867	6.325	CUE_LISTEN	M3	2	n/a	n/a	n/a
394.192	7.758	FIXCROSS	n/a	n/a	n/a	n/a	n/a
401.95	6.317	CUE_PLAYBACK_RIGHT_HAND	M3	2	n/a	n/a	n/a
402.522	n/a	RESPONSE	M3	2	12	C4	press
403.052	n/a	RESPONSE	M3	2	07	G3	press
403.142	n/a	RESPONSE	M3	2	12	C4	release
403.614	n/a	RESPONSE	M3	2	12	C4	press
403.707	n/a	RESPONSE	M3	2	07	G3	release
404.438	n/a	RESPONSE	M3	2	12	C4	release
404.76	n/a	RESPONSE	M3	2	12	C4	press
405.184	n/a	RESPONSE	M3	2	12	C4	release
405.402	n/a	RESPONSE	M3	2	12	C4	press
405.94	n/a	RESPONSE	M3	2	07	G3	press
406.058	n/a	RESPONSE	M3	2	12	C4	release
406.482	n/a	RESPONSE	M3	2	12	C4	press
406.69	n/a	RESPONSE	M3	2	07	G3	release
408.031	n/a	RESPONSE	M3	2	12	C4	release
408.267	7.758	FIXCROSS	n/a	n/a	n/a	n/a	n/a
416.025	6.317	CUE_LISTEN	M1	1	n/a	n/a	n/a
422.342	7.758	FIXCROSS	n/a	n/a	n/a	n/a	n/a
430.1	6.325	CUE_PLAYBACK_RIGHT_HAND	M1	1	n/a	n/a	n/a
431.174	n/a	RESPONSE	M1	1	19	G4	press
431.705	n/a	RESPONSE	M1	1	16	E4	press
431.786	n/a	RESPONSE	M1	1	19	G4	release
432.13	n/a	RESPONSE	M1	1	16	E4	release
432.268	n/a	RESPONSE	M1	1	16	E4	press
432.811	n/a	RESPONSE	M1	1	17	F4	press
432.861	n/a	RESPONSE	M1	1	16	E4	release
433.382	n/a	RESPONSE	M1	1	14	D4	press
433.416	n/a	RESPONSE	M1	1	17	F4	release
433.795	n/a	RESPONSE	M1	1	14	D4	release
433.987	n/a	RESPONSE	M1	1	14	D4	press
434.607	n/a	RESPONSE	M1	1	12	C4	press
434.66	n/a	RESPONSE	M1	1	14	D4	release
434.917	n/a	RESPONSE	M1	1	16	E4	press
435.011	n/a	RESPONSE	M1	1	12	C4	release
435.24	n/a	RESPONSE	M1	1	19	G4	press
435.305	n/a	RESPONSE	M1	1	16	E4	release
436.014	n/a	RESPONSE	M1	1	19	G4	release
436.425	7.758	FIXCROSS	n/a	n/a	n/a	n/a	n/a
444.184	6.317	CUE_LISTEN	M1	2	n/a	n/a	n/a
450.5	7.758	FIXCROSS	n/a	n/a	n/a	n/a	n/a
458.259	6.325	CUE_PLAYBACK_RIGHT_HAND	M1	2	n/a	n/a	n/a
459.069	n/a	RESPONSE	M1	2	19	G4	press
459.627	n/a	RESPONSE	M1	2	16	E4	press
459.698	n/a	RESPONSE	M1	2	19	G4	release
460.01	n/a	RESPONSE	M1	2	16	E4	release
460.164	n/a	RESPONSE	M1	2	16	E4	press
460.704	n/a	RESPONSE	M1	2	17	F4	press
460.744	n/a	RESPONSE	M1	2	16	E4	release
461.305	n/a	RESPONSE	M1	2	14	D4	press
461.316	n/a	RESPONSE	M1	2	17	F4	release
461.677	n/a	RESPONSE	M1	2	14	D4	release
461.888	n/a	RESPONSE	M1	2	14	D4	press
462.502	n/a	RESPONSE	M1	2	12	C4	press
462.521	n/a	RESPONSE	M1	2	14	D4	release
462.832	n/a	RESPONSE	M1	2	16	E4	press
462.904	n/a	RESPONSE	M1	2	12	C4	release
462.906	n/a	RESPONSE	M1	2	14	D4	press
463.038	n/a	RESPONSE	M1	2	14	D4	release
463.287	n/a	RESPONSE	M1	2	12	C4	press
463.328	n/a	RESPONSE	M1	2	16	E4	release
464.181	n/a	RESPONSE	M1	2	12	C4	release
464.584	7.759	FIXCROSS	n/a	n/a	n/a	n/a	n/a
472.342	6.317	CUE_LISTEN	M2	1	n/a	n/a	n/a
478.659	7.758	FIXCROSS	n/a	n/a	n/a	n/a	n/a
482.75	n/a	RESPONSE	M2	1	24	C5	press
483.061	n/a	RESPONSE	M2	1	24	C5	release
486.417	6.325	CUE_PLAYBACK_BOTH_HANDS	M2	1	n/a	n/a	n/a
486.911	n/a	RESPONSE	M2	1	24	C5	press
486.914	n/a	RESPONSE	M2	1	07	G3	press
486.928	n/a	RESPONSE	M2	1	00	C3	press
486.947	n/a	RESPONSE	M2	1	04	E3	press
487.427	n/a	RESPONSE	M2	1	19	G4	press
487.448	n/a	RESPONSE	M2	1	21	A4	press
487.592	n/a	RESPONSE	M2	1	21	A4	release
487.85	n/a	RESPONSE	M2	1	19	G4	release
487.916	n/a	RESPONSE	M2	1	24	C5	release
487.957	n/a	RESPONSE	M2	1	07	G3	release
487.961	n/a	RESPONSE	M2	1	04	E3	release
487.976	n/a	RESPONSE	M2	1	00	C3	release
488.097	n/a	RESPONSE	M2	1	24	C5	press
488.117	n/a	RESPONSE	M2	1	07	G3	press
488.12	n/a	RESPONSE	M2	1	00	C3	press
488.122	n/a	RESPONSE	M2	1	04	E3	press
488.692	n/a	RESPONSE	M2	1	19	G4	press
488.891	n/a	RESPONSE	M2	1	24	C5	release
489.082	n/a	RESPONSE	M2	1	19	G4	release
489.085	n/a	RESPONSE	M2	1	04	E3	release
489.095	n/a	RESPONSE	M2	1	00	C3	release
489.097	n/a	RESPONSE	M2	1	07	G3	release
489.238	n/a	RESPONSE	M2	1	04	E3	press
489.248	n/a	RESPONSE	M2	1	19	G4	press
489.251	n/a	RESPONSE	M2	1	07	G3	press
489.254	n/a	RESPONSE	M2	1	00	C3	press
489.862	n/a	RESPONSE	M2	1	17	F4	press
489.964	n/a	RESPONSE	M2	1	19	G4	release
490.275	n/a	RESPONSE	M2	1	00	C3	release
490.298	n/a	RESPONSE	M2	1	04	E3	release
490.31	n/a	RESPONSE	M2	1	17	F4	release
490.318	n/a	RESPONSE	M2	1	07	G3	release
490.45	n/a	RESPONSE	M2	1	16	E4	press
490.461	n/a	RESPONSE	M2	1	07	G3	press
490.464	n/a	RESPONSE	M2	1	04	E3	press
490.476	n/a	RESPONSE	M2	1	00	C3	press
491.036	n/a	RESPONSE	M2	1	17	F4	press
491.116	n/a	RESPONSE	M2	1	16	E4	release
491.437	n/a	RESPONSE	M2	1	17	F4	release
491.468	n/a	RESPONSE	M2	1	04	E3	release
491.471	n/a	RESPONSE	M2	1	00	C3	release
491.491	n/a	RESPONSE	M2	1	07	G3	release
491.632	n/a	RESPONSE	M2	1	19	G4	press
491.635	n/a	RESPONSE	M2	1	07	G3	press
491.637	n/a	RESPONSE	M2	1	04	E3	press
491.646	n/a	RESPONSE	M2	1	00	C3	press
492.742	7.758	FIXCROSS	n/a	n/a	n/a	n/a	n/a
492.97	n/a	RESPONSE	M2	1	00	C3	release
493.608	n/a	RESPONSE	M2	1	04	E3	release
493.69	n/a	RESPONSE	M2	1	07	G3	release
493.791	n/a	RESPONSE	M2	1	19	G4	release
500.5	6.317	CUE_LISTEN	M2	2	n/a	n/a	n/a
506.817	7.758	FIXCROSS	n/a	n/a	n/a	n/a	n/a
514.575	6.317	CUE_PLAYBACK_BOTH_HANDS	M2	2	n/a	n/a	n/a
515.076	n/a	RESPONSE	M2	2	24	C5	press
515.087	n/a	RESPONSE	M2	2	00	C3	press
515.096	n/a	RESPONSE	M2	2	07	G3	press
515.622	n/a	RESPONSE	M2	2	19	G4	press
515.846	n/a	RESPONSE	M2	2	24	C5	release
515.99	n/a	RESPONSE	M2	2	19	G4	release
516.01	n/a	RESPONSE	M2	2	07	G3	release
516.02	n/a	RESPONSE	M2	2	00	C3	release
516.171	n/a	RESPONSE	M2	2	00	C3	press
516.174	n/a	RESPONSE	M2	2	07	G3	press
516.176	n/a	RESPONSE	M2	2	19	G4	press
516.752	n/a	RESPONSE	M2	2	17	F4	press
516.879	n/a	RESPONSE	M2	2	19	G4	release
517.15	n/a	RESPONSE	M2	2	07	G3	release
517.164	n/a	RESPONSE	M2	2	00	C3	release
517.178	n/a	RESPONSE	M2	2	17	F4	release
517.305	n/a	RESPONSE	M2	2	16	E4	press
517.307	n/a	RESPONSE	M2	2	00	C3	press
517.311	n/a	RESPONSE	M2	2	07	G3	press
517.34	n/a	RESPONSE	M2	2	17	F4	press
517.434	n/a	RESPONSE	M2	2	17	F4	release
517.896	n/a	RESPONSE	M2	2	14	D4	press
517.977	n/a	RESPONSE	M2	2	16	E4	release
518.284	n/a	RESPONSE	M2	2	07	G3	release
518.292	n/a	RESPONSE	M2	2	00	C3	release
518.315	n/a	RESPONSE	M2	2	14	D4	release
518.555	n/a	RESPONSE	M2	2	12	C4	press
518.567	n/a	RESPONSE	M2	2	07	G3	press
518.597	n/a	RESPONSE	M2	2	00	C3	press
519.718	n/a	RESPONSE	M2	2	00	C3	release
519.892	n/a	RESPONSE	M2	2	12	C4	release
520.091	n/a	RESPONSE	M2	2	07	G3	release
520.892	7.758	FIXCROSS	n/a	n/a	n/a	n/a	n/a
528.65	6.317	CUE_LISTEN	M2	1	n/a	n/a	n/a
534.967	7.758	FIXCROSS	n/a	n/a	n/a	n/a	n/a
542.726	6.325	CUE_PLAYBACK_BOTH_HANDS	M2	1	n/a	n/a	n/a
543.63	n/a	RESPONSE	M2	1	07	G3	press
543.632	n/a	RESPONSE	M2	1	00	C3	press
543.642	n/a	RESPONSE	M2	1	12	C4	press
544.194	n/a	RESPONSE	M2	1	14	D4	press
544.295	n/a	RESPONSE	M2	1	12	C4	release
544.628	n/a	RESPONSE	M2	1	07	G3	release
544.657	n/a	RESPONSE	M2	1	14	D4	release
544.668	n/a	RESPONSE	M2	1	00	C3	release
544.76	n/a	RESPONSE	M2	1	00	C3	press
544.762	n/a	RESPONSE	M2	1	16	E4	press
544.782	n/a	RESPONSE	M2	1	07	G3	press
545.35	n/a	RESPONSE	M2	1	14	D4	press
545.415	n/a	RESPONSE	M2	1	16	E4	release
545.685	n/a	RESPONSE	M2	1	14	D4	release
545.705	n/a	RESPONSE	M2	1	07	G3	release
545.724	n/a	RESPONSE	M2	1	00	C3	release
545.909	n/a	RESPONSE	M2	1	00	C3	press
545.917	n/a	RESPONSE	M2	1	07	G3	press
545.924	n/a	RESPONSE	M2	1	16	E4	press
546.468	n/a	RESPONSE	M2	1	17	F4	press
546.536	n/a	RESPONSE	M2	1	16	E4	release
546.908	n/a	RESPONSE	M2	1	17	F4	release
546.916	n/a	RESPONSE	M2	1	07	G3	release
546.944	n/a	RESPONSE	M2	1	00	C3	release
547.018	n/a	RESPONSE	M2	1	19	G4	press
547.04	n/a	RESPONSE	M2	1	00	C3	press
547.042	n/a	RESPONSE	M2	1	07	G3	press
548.001	n/a	RESPONSE	M2	1	19	G4	release
548.065	n/a	RESPONSE	M2	1	00	C3	release
548.11	n/a	RESPONSE	M2	1	07	G3	release
549.05	7.758	FIXCROSS	n/a	n/a	n/a	n/a	n/a
556.809	6.325	CUE_LISTEN	M2	2	n/a	n/a	n/a
563.134	7.758	FIXCROSS	n/a	n/a	n/a	n/a	n/a
570.892	6.308	CUE_PLAYBACK_BOTH_HANDS	M2	2	n/a	n/a	n/a
571.624	n/a	RESPONSE	M2	2	16	E4	press
571.626	n/a	RESPONSE	M2	2	07	G3	press
571.628	n/a	RESPONSE	M2	2	00	C3	press
572.157	n/a	RESPONSE	M2	2	19	G4	press
572.209	n/a	RESPONSE	M2	2	16	E4	release
572.49	n/a	RESPONSE	M2	2	19	G4	release
572.541	n/a	RESPONSE	M2	2	07	G3	release
572.544	n/a	RESPONSE	M2	2	00	C3	release
572.714	n/a	RESPONSE	M2	2	19	G4	press
572.725	n/a	RESPONSE	M2	2	07	G3	press
572.727	n/a	RESPONSE	M2	2	00	C3	press
573.237	n/a	RESPONSE	M2	2	17	F4	press
573.488	n/a	RESPONSE	M2	2	19	G4	release
573.58	n/a	RESPONSE	M2	2	17	F4	release
573.621	n/a	RESPONSE	M2	2	00	C3	release
573.632	n/a	RESPONSE	M2	2	07	G3	release
573.804	n/a	RESPONSE	M2	2	07	G3	press
573.806	n/a	RESPONSE	M2	2	00	C3	press
573.808	n/a	RESPONSE	M2	2	16	E4	press
574.387	n/a	RESPONSE	M2	2	14	D4	press
574.509	n/a	RESPONSE	M2	2	16	E4	release
574.73	n/a	RESPONSE	M2	2	00	C3	release
574.771	n/a	RESPONSE	M2	2	07	G3	release
574.782	n/a	RESPONSE	M2	2	14	D4	release
574.922	n/a	RESPONSE	M2	2	12	C4	press
574.926	n/a	RESPONSE	M2	2	07	G3	press
574.935	n/a	RESPONSE	M2	2	00	C3	press
575.878	n/a	RESPONSE	M2	2	00	C3	release
575.91	n/a	RESPONSE	M2	2	12	C4	release
576.041	n/a	RESPONSE	M2	2	07	G3	release
577.2	7.758	FIXCROSS	n/a	n/a	n/a	n/a	n/a
584.959	6.325	CUE_LISTEN	M1	1	n/a	n/a	n/a
591.284	7.758	FIXCROSS	n/a	n/a	n/a	n/a	n/a
592.906	n/a	RESPONSE	M1	1	12	C4	press
593.367	n/a	RESPONSE	M1	1	14	D4	press
593.378	n/a	RESPONSE	M1	1	12	C4	release
594.201	n/a	RESPONSE	M1	1	14	D4	release
599.042	6.317	CUE_PLAYBACK_RIGHT_HAND	M1	1	n/a	n/a	n/a
599.594	n/a	RESPONSE	M1	1	19	G4	press
600.125	n/a	RESPONSE	M1	1	16	E4	press
600.128	n/a	RESPONSE	M1	1	14	D4	press
600.18	n/a	RESPONSE	M1	1	19	G4	release
600.431	n/a	RESPONSE	M1	1	14	D4	release
600.47	n/a	RESPONSE	M1	1	16	E4	release
600.662	n/a	RESPONSE	M1	1	16	E4	press
601.232	n/a	RESPONSE	M1	1	17	F4	press
601.284	n/a	RESPONSE	M1	1	16	E4	release
601.797	n/a	RESPONSE	M1	1	14	D4	press
601.867	n/a	RESPONSE	M1	1	17	F4	release
602.167	n/a	RESPONSE	M1	1	14	D4	release
602.368	n/a	RESPONSE	M1	1	14	D4	press
602.981	n/a	RESPONSE	M1	1	12	C4	press
603.022	n/a	RESPONSE	M1	1	14	D4	release
603.322	n/a	RESPONSE	M1	1	16	E4	press
603.424	n/a	RESPONSE	M1	1	12	C4	release
603.665	n/a	RESPONSE	M1	1	19	G4	press
603.736	n/a	RESPONSE	M1	1	16	E4	release
604.757	n/a	RESPONSE	M1	1	19	G4	release
605.359	7.758	FIXCROSS	n/a	n/a	n/a	n/a	n/a
613.117	6.317	CUE_LISTEN	M1	2	n/a	n/a	n/a
619.434	7.758	FIXCROSS	n/a	n/a	n/a	n/a	n/a
627.192	6.325	CUE_PLAYBACK_RIGHT_HAND	M1	2	n/a	n/a	n/a
627.69	n/a	RESPONSE	M1	2	19	G4	press
628.285	n/a	RESPONSE	M1	2	14	D4	press
628.29	n/a	RESPONSE	M1	2	16	E4	press
628.335	n/a	RESPONSE	M1	2	19	G4	release
628.397	n/a	RESPONSE	M1	2	16	E4	release
628.677	n/a	RESPONSE	M1	2	14	D4	release
628.861	n/a	RESPONSE	M1	2	14	D4	press
629.19	n/a	RESPONSE	M1	2	14	D4	release
629.504	n/a	RESPONSE	M1	2	19	G4	press
630.164	n/a	RESPONSE	M1	2	16	E4	press
630.195	n/a	RESPONSE	M1	2	14	D4	press
630.275	n/a	RESPONSE	M1	2	19	G4	release
630.376	n/a	RESPONSE	M1	2	14	D4	release
630.577	n/a	RESPONSE	M1	2	16	E4	release
630.79	n/a	RESPONSE	M1	2	16	E4	press
631.352	n/a	RESPONSE	M1	2	17	F4	press
631.451	n/a	RESPONSE	M1	2	16	E4	release
631.992	n/a	RESPONSE	M1	2	14	D4	press
632.054	n/a	RESPONSE	M1	2	17	F4	release
632.405	n/a	RESPONSE	M1	2	14	D4	release
632.578	n/a	RESPONSE	M1	2	14	D4	press
633.23	n/a	RESPONSE	M1	2	12	C4	press
633.25	n/a	RESPONSE	M1	2	14	D4	release
633.517	7.758	FIXCROSS	n/a	n/a	n/a	n/a	n/a
633.581	n/a	RESPONSE	M1	2	16	E4	press
633.664	n/a	RESPONSE	M1	2	12	C4	release
633.974	n/a	RESPONSE	M1	2	12	C4	press
633.995	n/a	RESPONSE	M1	2	16	E4	release
634.916	n/a	RESPONSE	M1	2	12	C4	release
641.276	6.317	CUE_LISTEN	M3	1	n/a	n/a	n/a
647.592	7.758	FIXCROSS	n/a	n/a	n/a	n/a	n/a
655.351	6.325	CUE_PLAYBACK_RIGHT_HAND	M3	1	n/a	n/a	n/a
655.996	n/a	RESPONSE	M3	1	12	C4	press
656.525	n/a	RESPONSE	M3	1	14	D4	press
656.602	n/a	RESPONSE	M3	1	12	C4	release
657.041	n/a	RESPONSE	M3	1	16	E4	press
657.131	n/a	RESPONSE	M3	1	14	D4	release
657.621	n/a	RESPONSE	M3	1	12	C4	press
657.684	n/a	RESPONSE	M3	1	16	E4	release
657.967	n/a	RESPONSE	M3	1	12	C4	release
658.195	n/a	RESPONSE	M3	1	12	C4	press
658.732	n/a	RESPONSE	M3	1	14	D4	press
658.804	n/a	RESPONSE	M3	1	12	C4	release
659.235	n/a	RESPONSE	M3	1	16	E4	press
659.306	n/a	RESPONSE	M3	1	14	D4	release
659.767	n/a	RESPONSE	M3	1	12	C4	press
659.808	n/a	RESPONSE	M3	1	16	E4	release
660.5	n/a	RESPONSE	M3	1	12	C4	release
661.676	7.758	FIXCROSS	n/a	n/a	n/a	n/a	n/a
669.434	6.317	CUE_LISTEN	M3	2	n/a	n/a	n/a
675.751	7.758	FIXCROSS	n/a	n/a	n/a	n/a	n/a
683.509	6.317	CUE_PLAYBACK_RIGHT_HAND	M3	2	n/a	n/a	n/a
683.968	n/a	RESPONSE	M3	2	16	E4	press
684.45	n/a	RESPONSE	M3	2	17	F4	press
684.521	n/a	RESPONSE	M3	2	16	E4	release
684.938	n/a	RESPONSE	M3	2	19	G4	press
685.001	n/a	RESPONSE	M3	2	17	F4	release
685.656	n/a	RESPONSE	M3	2	19	G4	release
685.951	n/a	RESPONSE	M3	2	16	E4	press
686.486	n/a	RESPONSE	M3	2	17	F4	press
686.502	n/a	RESPONSE	M3	2	16	E4	release
687.0	n/a	RESPONSE	M3	2	19	G4	press
687.077	n/a	RESPONSE	M3	2	17	F4	release
687.948	n/a	RESPONSE	M3	2	19	G4	release
689.826	7.758	FIXCROSS	n/a	n/a	n/a	n/a	n/a
697.584	6.325	CUE_LISTEN	M3	1	n/a	n/a	n/a
703.909	7.758	FIXCROSS	n/a	n/a	n/a	n/a	n/a
711.668	6.317	CUE_PLAYBACK_RIGHT_HAND	M3	1	n/a	n/a	n/a
712.181	n/a	RESPONSE	M3	1	19	G4	press
712.522	n/a	RESPONSE	M3	1	21	A4	press
712.576	n/a	RESPONSE	M3	1	19	G4	release
712.865	n/a	RESPONSE	M3	1	19	G4	press
713.216	n/a	RESPONSE	M3	1	17	F4	press
713.368	n/a	RESPONSE	M3	1	21	A4	release
713.598	n/a	RESPONSE	M3	1	16	E4	press
713.67	n/a	RESPONSE	M3	1	17	F4	release
713.694	n/a	RESPONSE	M3	1	19	G4	release
714.672	n/a	RESPONSE	M3	1	16	E4	release
714.734	n/a	RESPONSE	M3	1	12	C4	press
715.475	n/a	RESPONSE	M3	1	12	C4	release
715.507	n/a	RESPONSE	M3	1	19	G4	press
715.886	n/a	RESPONSE	M3	1	21	A4	press
715.964	n/a	RESPONSE	M3	1	19	G4	release
716.264	n/a	RESPONSE	M3	1	19	G4	press
716.617	n/a	RESPONSE	M3	1	17	F4	press
716.9	n/a	RESPONSE	M3	1	21	A4	release
717.035	n/a	RESPONSE	M3	1	16	E4	press
717.084	n/a	RESPONSE	M3	1	19	G4	release
717.101	n/a	RESPONSE	M3	1	17	F4	release
717.785	n/a	RESPONSE	M3	1	12	C4	press
717.86	n/a	RESPONSE	M3	1	16	E4	release
717.984	7.758	FIXCROSS	n/a	n/a	n/a	n/a	n/a
718.841	n/a	RESPONSE	M3	1	12	C4	release
721.022	n/a	RESPONSE	M3	1	12	C4	press
721.804	n/a	RESPONSE	M3	1	12	C4	release
725.742	6.317	CUE_LISTEN	M3	2	n/a	n/a	n/a
732.059	7.758	FIXCROSS	n/a	n/a	n/a	n/a	n/a
739.818	6.325	CUE_PLAYBACK_RIGHT_HAND	M3	2	n/a	n/a	n/a
740.276	n/a	RESPONSE	M3	2	12	C4	press
740.756	n/a	RESPONSE	M3	2	07	G3	press
740.84	n/a	RESPONSE	M3	2	12	C4	release
741.348	n/a	RESPONSE	M3	2	12	C4	press
741.96	n/a	RESPONSE	M3	2	12	C4	release
742.311	n/a	RESPONSE	M3	2	07	G3	release
742.452	n/a	RESPONSE	M3	2	12	C4	press
743.014	n/a	RESPONSE	M3	2	07	G3	press
743.125	n/a	RESPONSE	M3	2	12	C4	release
743.607	n/a	RESPONSE	M3	2	12	C4	press
743.7	n/a	RESPONSE	M3	2	07	G3	release
744.74	n/a	RESPONSE	M3	2	12	C4	release
746.142	7.758	FIXCROSS	n/a	n/a	n/a	n/a	n/a
753.901	6.317	CUE_LISTEN	M1	1	n/a	n/a	n/a
760.218	7.758	FIXCROSS	n/a	n/a	n/a	n/a	n/a
767.976	6.317	CUE_PLAYBACK_BOTH_HANDS	M1	1	n/a	n/a	n/a
768.718	n/a	RESPONSE	M1	1	19	G4	press
768.74	n/a	RESPONSE	M1	1	04	E3	press
768.742	n/a	RESPONSE	M1	1	07	G3	press
768.802	n/a	RESPONSE	M1	1	00	C3	press
769.334	n/a	RESPONSE	M1	1	16	E4	press
769.486	n/a	RESPONSE	M1	1	19	G4	release
769.728	n/a	RESPONSE	M1	1	16	E4	release
769.967	n/a	RESPONSE	M1	1	16	E4	press
770.168	n/a	RESPONSE	M1	1	00	C3	release
770.35	n/a	RESPONSE	M1	1	04	E3	release
770.391	n/a	RESPONSE	M1	1	16	E4	release
770.592	n/a	RESPONSE	M1	1	17	F4	press
770.595	n/a	RESPONSE	M1	1	05	F3	press
770.597	n/a	RESPONSE	M1	1	02	D3	press
771.286	n/a	RESPONSE	M1	1	14	D4	press
771.368	n/a	RESPONSE	M1	1	17	F4	release
771.728	n/a	RESPONSE	M1	1	14	D4	release
771.95	n/a	RESPONSE	M1	1	14	D4	press
772.271	n/a	RESPONSE	M1	1	05	F3	release
772.275	n/a	RESPONSE	M1	1	02	D3	release
772.314	n/a	RESPONSE	M1	1	14	D4	release
772.565	n/a	RESPONSE	M1	1	04	E3	press
772.786	n/a	RESPONSE	M1	1	12	C4	press
772.788	n/a	RESPONSE	M1	1	00	C3	press
773.228	n/a	RESPONSE	M1	1	16	E4	press
773.31	n/a	RESPONSE	M1	1	12	C4	release
773.671	n/a	RESPONSE	M1	1	19	G4	press
773.745	n/a	RESPONSE	M1	1	16	E4	release
774.292	7.758	FIXCROSS	n/a	n/a	n/a	n/a	n/a
774.574	n/a	RESPONSE	M1	1	00	C3	release
774.605	n/a	RESPONSE	M1	1	19	G4	release
774.706	n/a	RESPONSE	M1	1	04	E3	release
774.875	n/a	RESPONSE	M1	1	07	G3	release
782.051	6.325	CUE_LISTEN	M1	2	n/a	n/a	n/a
788.376	7.758	FIXCROSS	n/a	n/a	n/a	n/a	n/a
796.134	6.317	CUE_PLAYBACK_BOTH_HANDS	M1	2	n/a	n/a	n/a
796.691	n/a	RESPONSE	M1	2	19	G4	press
796.7	n/a	RESPONSE	M1	2	04	E3	press
796.702	n/a	RESPONSE	M1	2	07	G3	press
796.746	n/a	RESPONSE	M1	2	00	C3	press
797.255	n/a	RESPONSE	M1	2	16	E4	press
797.32	n/a	RESPONSE	M1	2	19	G4	release
797.617	n/a	RESPONSE	M1	2	16	E4	release
797.792	n/a	RESPONSE	M1	2	16	E4	press
798.108	n/a	RESPONSE	M1	2	00	C3	release
798.154	n/a	RESPONSE	M1	2	16	E4	release
798.175	n/a	RESPONSE	M1	2	04	E3	release
798.307	n/a	RESPONSE	M1	2	07	G3	release
798.374	n/a	RESPONSE	M1	2	17	F4	press
798.376	n/a	RESPONSE	M1	2	05	F3	press
798.382	n/a	RESPONSE	M1	2	02	D3	press
798.385	n/a	RESPONSE	M1	2	07	G3	press
798.972	n/a	RESPONSE	M1	2	14	D4	press
799.064	n/a	RESPONSE	M1	2	17	F4	release
799.326	n/a	RESPONSE	M1	2	14	D4	release
799.537	n/a	RESPONSE	M1	2	14	D4	press
799.758	n/a	RESPONSE	M1	2	05	F3	release
799.781	n/a	RESPONSE	M1	2	14	D4	release
799.791	n/a	RESPONSE	M1	2	02	D3	release
800.032	n/a	RESPONSE	M1	2	07	G3	release
800.162	n/a	RESPONSE	M1	2	07	G3	press
800.165	n/a	RESPONSE	M1	2	12	C4	press
800.167	n/a	RESPONSE	M1	2	04	E3	press
800.176	n/a	RESPONSE	M1	2	00	C3	press
800.48	n/a	RESPONSE	M1	2	16	E4	press
800.538	n/a	RESPONSE	M1	2	12	C4	release
800.8	n/a	RESPONSE	M1	2	12	C4	press
800.861	n/a	RESPONSE	M1	2	16	E4	release
801.762	n/a	RESPONSE	M1	2	00	C3	release
801.944	n/a	RESPONSE	M1	2	12	C4	release
802.005	n/a	RESPONSE	M1	2	07	G3	release
802.026	n/a	RESPONSE	M1	2	04	E3	release
802.451	7.758	FIXCROSS	n/a	n/a	n/a	n/a	n/a
810.209	6.317	CUE_LISTEN	M2	1	n/a	n/a	n/a
816.526	7.759	FIXCROSS	n/a	n/a	n/a	n/a	n/a
824.284	6.325	CUE_PLAYBACK_RIGHT_HAND	M2	1	n/a	n/a	n/a
825.028	n/a	RESPONSE	M2	1	24	C5	press
825.576	n/a	RESPONSE	M2	1	19	G4	press
825.662	n/a	RESPONSE	M2	1	24	C5	release
825.924	n/a	RESPONSE	M2	1	19	G4	release
826.135	n/a	RESPONSE	M2	1	19	G4	press
826.68	n/a	RESPONSE	M2	1	17	F4	press
826.79	n/a	RESPONSE	M2	1	19	G4	release
827.235	n/a	RESPONSE	M2	1	16	E4	press
827.272	n/a	RESPONSE	M2	1	17	F4	release
827.787	n/a	RESPONSE	M2	1	17	F4	press
827.865	n/a	RESPONSE	M2	1	16	E4	release
828.344	n/a	RESPONSE	M2	1	19	G4	press
828.414	n/a	RESPONSE	M2	1	17	F4	release
829.435	n/a	RESPONSE	M2	1	19	G4	release
830.609	7.758	FIXCROSS	n/a	n/a	n/a	n/a	n/a
838.368	6.317	CUE_LISTEN	M2	2	n/a	n/a	n/a
844.684	7.759	FIXCROSS	n/a	n/a	n/a	n/a	n/a
852.443	6.325	CUE_PLAYBACK_RIGHT_HAND	M2	2	n/a	n/a	n/a
852.862	n/a	RESPONSE	M2	2	24	C5	press
853.424	n/a	RESPONSE	M2	2	19	G4	press
853.495	n/a	RESPONSE	M2	2	24	C5	release
853.746	n/a	RESPONSE	M2	2	19	G4	release
853.967	n/a	RESPONSE	M2	2	19	G4	press
854.56	n/a	RESPONSE	M2	2	17	F4	press
854.66	n/a	RESPONSE	M2	2	19	G4	release
855.077	n/a	RESPONSE	M2	2	17	F4	release
855.156	n/a	RESPONSE	M2	2	16	E4	press
855.737	n/a	RESPONSE	M2	2	14	D4	press
855.845	n/a	RESPONSE	M2	2	16	E4	release
856.368	n/a	RESPONSE	M2	2	12	C4	press
856.457	n/a	RESPONSE	M2	2	14	D4	release
858.336	n/a	RESPONSE	M2	2	12	C4	release
858.768	7.758	FIXCROSS	n/a	n/a	n/a	n/a	n/a
866.526	6.317	CUE_LISTEN	M2	1	n/a	n/a	n/a
872.843	7.758	FIXCROSS	n/a	n/a	n/a	n/a	n/a
880.601	6.317	CUE_PLAYBACK_RIGHT_HAND	M2	1	n/a	n/a	n/a
881.215	n/a	RESPONSE	M2	1	12	C4	press
881.736	n/a	RESPONSE	M2	1	14	D4	press
881.83	n/a	RESPONSE	M2	1	12	C4	release
882.248	n/a	RESPONSE	M2	1	16	E4	press
882.321	n/a	RESPONSE	M2	1	14	D4	release
882.761	n/a	RESPONSE	M2	1	14	D4	press
882.832	n/a	RESPONSE	M2	1	16	E4	release
883.284	n/a	RESPONSE	M2	1	16	E4	press
883.386	n/a	RESPONSE	M2	1	14	D4	release
883.837	n/a	RESPONSE	M2	1	17	F4	press
883.93	n/a	RESPONSE	M2	1	16	E4	release
884.331	n/a	RESPONSE	M2	1	19	G4	press
884.421	n/a	RESPONSE	M2	1	17	F4	release
885.381	n/a	RESPONSE	M2	1	19	G4	release
886.918	7.759	FIXCROSS	n/a	n/a	n/a	n/a	n/a
894.676	6.325	CUE_LISTEN	M2	2	n/a	n/a	n/a
901.001	7.758	FIXCROSS	n/a	n/a	n/a	n/a	n/a
908.76	58.168	CUE_PLAYBACK_RIGHT_HAND	M2	2	n/a	n/a	n/a
909.347	n/a	RESPONSE	M2	2	16	E4	press
909.918	n/a	RESPONSE	M2	2	19	G4	press
909.972	n/a	RESPONSE	M2	2	16	E4	release
910.254	n/a	RESPONSE	M2	2	19	G4	release
910.424	n/a	RESPONSE	M2	2	19	G4	press
910.945	n/a	RESPONSE	M2	2	17	F4	press
911.065	n/a	RESPONSE	M2	2	19	G4	release
911.486	n/a	RESPONSE	M2	2	16	E4	press
911.58	n/a	RESPONSE	M2	2	17	F4	release
912.058	n/a	RESPONSE	M2	2	14	D4	press
912.151	n/a	RESPONSE	M2	2	16	E4	release
912.691	n/a	RESPONSE	M2	2	12	C4	press
912.882	n/a	RESPONSE	M2	2	14	D4	release
913.254	n/a	FIXCROSS	n/a	n/a	n/a	n/a	n/a
914.024	n/a	RESPONSE	M2	2	12	C4	release
