onset	duration	trial_type	trial_number	stroop_condition	stim_text(PL)	stim_text(eng)	stim_color(PL)	stim_color(eng)	response_type	response_color
0.0	n/a	RESPONSE	n/a	n/a	n/a	n/a	n/a	n/a	n/a	n/a
0.0672	1.0333	ITI	n/a	n/a	n/a	n/a	n/a	n/a	n/a	n/a
1.1005	0.5167	FIXCROSS	n/a	n/a	n/a	n/a	n/a	n/a	n/a	n/a
1.6172	1.6167	T_INK	1	Incongruent	czerwony	red	żółty	yellow	hit	n/a
3.1992	n/a	RESPONSE	n/a	n/a	n/a	n/a	n/a	n/a	n/a	yellow
3.2339	0.5167	FEEDBACK	n/a	n/a	n/a	n/a	n/a	n/a	n/a	n/a
3.7505	1.0167	ITI	n/a	n/a	n/a	n/a	n/a	n/a	n/a	n/a
4.7672	0.5167	FIXCROSS	n/a	n/a	n/a	n/a	n/a	n/a	n/a	n/a
5.2839	1.0833	T_INK	2	Incongruent	czerwony	red	niebieski	blue	hit	n/a
6.3344	n/a	RESPONSE	n/a	n/a	n/a	n/a	n/a	n/a	n/a	blue
6.3672	0.5167	FEEDBACK	n/a	n/a	n/a	n/a	n/a	n/a	n/a	n/a
6.8839	1.0167	ITI	n/a	n/a	n/a	n/a	n/a	n/a	n/a	n/a
7.9006	0.5167	FIXCROSS	n/a	n/a	n/a	n/a	n/a	n/a	n/a	n/a
8.4172	0.8333	T_INK	3	Incongruent	niebieski	blue	zielony	green	hit	n/a
9.2297	n/a	RESPONSE	n/a	n/a	n/a	n/a	n/a	n/a	n/a	green
9.2506	0.5167	FEEDBACK	n/a	n/a	n/a	n/a	n/a	n/a	n/a	n/a
9.7672	1.0167	ITI	n/a	n/a	n/a	n/a	n/a	n/a	n/a	n/a
10.7839	0.5167	FIXCROSS	n/a	n/a	n/a	n/a	n/a	n/a	n/a	n/a
11.3006	0.6999	T_INK	4	Incongruent	niebieski	blue	żółty	yellow	hit	n/a
11.9811	n/a	RESPONSE	n/a	n/a	n/a	n/a	n/a	n/a	n/a	yellow
12.0005	0.5167	FEEDBACK	n/a	n/a	n/a	n/a	n/a	n/a	n/a	n/a
12.5173	1.0167	ITI	n/a	n/a	n/a	n/a	n/a	n/a	n/a	n/a
13.5339	0.5167	FIXCROSS	n/a	n/a	n/a	n/a	n/a	n/a	n/a	n/a
14.0506	0.8833	T_INK	5	Incongruent	żółty	yellow	niebieski	blue	hit	n/a
14.9084	n/a	RESPONSE	n/a	n/a	n/a	n/a	n/a	n/a	n/a	blue
14.9339	0.5167	FEEDBACK	n/a	n/a	n/a	n/a	n/a	n/a	n/a	n/a
15.4506	1.0167	ITI	n/a	n/a	n/a	n/a	n/a	n/a	n/a	n/a
16.4673	0.5167	FIXCROSS	n/a	n/a	n/a	n/a	n/a	n/a	n/a	n/a
16.984	0.95	T_INK	6	Incongruent	żółty	yellow	zielony	green	hit	n/a
17.8998	n/a	RESPONSE	n/a	n/a	n/a	n/a	n/a	n/a	n/a	green
17.934	0.5167	FEEDBACK	n/a	n/a	n/a	n/a	n/a	n/a	n/a	n/a
18.4506	1.0167	ITI	n/a	n/a	n/a	n/a	n/a	n/a	n/a	n/a
19.4673	0.5167	FIXCROSS	n/a	n/a	n/a	n/a	n/a	n/a	n/a	n/a
19.984	0.6667	T_INK	7	Incongruent	żółty	yellow	czerwony	red	hit	n/a
20.6192	n/a	RESPONSE	n/a	n/a	n/a	n/a	n/a	n/a	n/a	red
20.6507	0.5167	FEEDBACK	n/a	n/a	n/a	n/a	n/a	n/a	n/a	n/a
21.1673	1.0167	ITI	n/a	n/a	n/a	n/a	n/a	n/a	n/a	n/a
22.184	0.5167	FIXCROSS	n/a	n/a	n/a	n/a	n/a	n/a	n/a	n/a
22.7007	0.7667	T_INK	8	Incongruent	czerwony	red	zielony	green	hit	n/a
23.4346	n/a	RESPONSE	n/a	n/a	n/a	n/a	n/a	n/a	n/a	green
23.4673	0.5167	FEEDBACK	n/a	n/a	n/a	n/a	n/a	n/a	n/a	n/a
23.984	1.0167	ITI	n/a	n/a	n/a	n/a	n/a	n/a	n/a	n/a
25.0007	0.5167	FIXCROSS	n/a	n/a	n/a	n/a	n/a	n/a	n/a	n/a
25.5174	0.85	T_INK	9	Neutral	xxxxxxxx	xxxxxxxx	niebieski	blue	hit	n/a
26.346	n/a	RESPONSE	n/a	n/a	n/a	n/a	n/a	n/a	n/a	blue
26.3674	0.5167	FEEDBACK	n/a	n/a	n/a	n/a	n/a	n/a	n/a	n/a
26.884	1.0167	ITI	n/a	n/a	n/a	n/a	n/a	n/a	n/a	n/a
27.9007	0.5167	FIXCROSS	n/a	n/a	n/a	n/a	n/a	n/a	n/a	n/a
28.4174	0.6833	T_INK	10	Neutral	xxxxx	xxxxx	zielony	green	hit	n/a
29.0654	n/a	RESPONSE	n/a	n/a	n/a	n/a	n/a	n/a	n/a	green
29.1007	0.5167	FEEDBACK	n/a	n/a	n/a	n/a	n/a	n/a	n/a	n/a
29.6174	1.0167	ITI	n/a	n/a	n/a	n/a	n/a	n/a	n/a	n/a
30.6341	0.5167	FIXCROSS	n/a	n/a	n/a	n/a	n/a	n/a	n/a	n/a
31.1507	0.7167	T_INK	11	Incongruent	zielony	green	czerwony	red	hit	n/a
31.8328	n/a	RESPONSE	n/a	n/a	n/a	n/a	n/a	n/a	n/a	red
31.8674	0.5167	FEEDBACK	n/a	n/a	n/a	n/a	n/a	n/a	n/a	n/a
32.3841	1.0167	ITI	n/a	n/a	n/a	n/a	n/a	n/a	n/a	n/a
33.4007	0.5167	FIXCROSS	n/a	n/a	n/a	n/a	n/a	n/a	n/a	n/a
33.9174	0.7934	T_INK	12	Neutral	xxxxx	xxxxx	niebieski	blue	hit	n/a
34.6962	n/a	RESPONSE	n/a	n/a	n/a	n/a	n/a	n/a	n/a	blue
34.7108	0.5233	FEEDBACK	n/a	n/a	n/a	n/a	n/a	n/a	n/a	n/a
35.2341	1.0333	ITI	n/a	n/a	n/a	n/a	n/a	n/a	n/a	n/a
43.9262	n/a	RESPONSE	n/a	n/a	n/a	n/a	n/a	n/a	n/a	n/a
43.9842	1.0167	ITI	n/a	n/a	n/a	n/a	n/a	n/a	n/a	n/a
45.0008	0.5167	FIXCROSS	n/a	n/a	n/a	n/a	n/a	n/a	n/a	n/a
45.5175	0.8	INK	1	Neutral	xxxxxxx	xxxxxxx	czerwony	red	hit	n/a
46.2937	n/a	RESPONSE	n/a	n/a	n/a	n/a	n/a	n/a	n/a	red
46.3175	1.0167	ITI	n/a	n/a	n/a	n/a	n/a	n/a	n/a	n/a
47.3342	0.5167	FIXCROSS	n/a	n/a	n/a	n/a	n/a	n/a	n/a	n/a
47.8509	0.7167	INK	2	Neutral	xxxxxxxx	xxxxxxxx	niebieski	blue	hit	n/a
48.5332	n/a	RESPONSE	n/a	n/a	n/a	n/a	n/a	n/a	n/a	blue
48.5675	1.0167	ITI	n/a	n/a	n/a	n/a	n/a	n/a	n/a	n/a
49.5842	0.5167	FIXCROSS	n/a	n/a	n/a	n/a	n/a	n/a	n/a	n/a
50.1009	0.9	INK	3	Neutral	xxxxxxxx	xxxxxxxx	żółty	yellow	hit	n/a
50.9808	n/a	RESPONSE	n/a	n/a	n/a	n/a	n/a	n/a	n/a	yellow
51.0009	1.0167	ITI	n/a	n/a	n/a	n/a	n/a	n/a	n/a	n/a
52.0176	0.5167	FIXCROSS	n/a	n/a	n/a	n/a	n/a	n/a	n/a	n/a
52.5342	0.6667	INK	4	Neutral	xxxxxxxx	xxxxxxxx	niebieski	blue	hit	n/a
53.1723	n/a	RESPONSE	n/a	n/a	n/a	n/a	n/a	n/a	n/a	blue
53.2009	1.0167	ITI	n/a	n/a	n/a	n/a	n/a	n/a	n/a	n/a
54.2176	0.5167	FIXCROSS	n/a	n/a	n/a	n/a	n/a	n/a	n/a	n/a
54.7342	0.6667	INK	5	Neutral	xxxxxxx	xxxxxxx	żółty	yellow	hit	n/a
55.3798	n/a	RESPONSE	n/a	n/a	n/a	n/a	n/a	n/a	n/a	yellow
55.4009	1.0167	ITI	n/a	n/a	n/a	n/a	n/a	n/a	n/a	n/a
56.4176	0.5167	FIXCROSS	n/a	n/a	n/a	n/a	n/a	n/a	n/a	n/a
56.9342	0.65	INK	6	Incongruent	niebieski	blue	zielony	green	hit	n/a
57.5554	n/a	RESPONSE	n/a	n/a	n/a	n/a	n/a	n/a	n/a	green
57.5842	1.0167	ITI	n/a	n/a	n/a	n/a	n/a	n/a	n/a	n/a
58.6009	0.5167	FIXCROSS	n/a	n/a	n/a	n/a	n/a	n/a	n/a	n/a
59.1176	0.65	INK	7	Incongruent	czerwony	red	zielony	green	hit	n/a
59.7469	n/a	RESPONSE	n/a	n/a	n/a	n/a	n/a	n/a	n/a	green
59.7676	1.0167	ITI	n/a	n/a	n/a	n/a	n/a	n/a	n/a	n/a
60.7843	0.5167	FIXCROSS	n/a	n/a	n/a	n/a	n/a	n/a	n/a	n/a
61.3009	0.7833	INK	8	Neutral	xxxxx	xxxxx	niebieski	blue	hit	n/a
62.0664	n/a	RESPONSE	n/a	n/a	n/a	n/a	n/a	n/a	n/a	blue
62.0843	1.0167	ITI	n/a	n/a	n/a	n/a	n/a	n/a	n/a	n/a
63.101	0.5167	FIXCROSS	n/a	n/a	n/a	n/a	n/a	n/a	n/a	n/a
63.6176	0.7	INK	9	Neutral	xxxxxxx	xxxxxxx	niebieski	blue	hit	n/a
64.29	n/a	RESPONSE	n/a	n/a	n/a	n/a	n/a	n/a	n/a	blue
64.3176	1.0167	ITI	n/a	n/a	n/a	n/a	n/a	n/a	n/a	n/a
65.3343	0.5167	FIXCROSS	n/a	n/a	n/a	n/a	n/a	n/a	n/a	n/a
65.851	0.6	INK	10	Incongruent	zielony	green	niebieski	blue	hit	n/a
66.4175	n/a	RESPONSE	n/a	n/a	n/a	n/a	n/a	n/a	n/a	blue
66.451	1.0167	ITI	n/a	n/a	n/a	n/a	n/a	n/a	n/a	n/a
67.4677	0.5167	FIXCROSS	n/a	n/a	n/a	n/a	n/a	n/a	n/a	n/a
67.9843	0.8	INK	11	Incongruent	czerwony	red	zielony	green	hit	n/a
68.753	n/a	RESPONSE	n/a	n/a	n/a	n/a	n/a	n/a	n/a	green
68.7843	1.0167	ITI	n/a	n/a	n/a	n/a	n/a	n/a	n/a	n/a
69.801	0.5167	FIXCROSS	n/a	n/a	n/a	n/a	n/a	n/a	n/a	n/a
70.3177	0.9	INK	12	Neutral	xxxxxxxxx	xxxxxxxxx	żółty	yellow	hit	n/a
71.1845	n/a	RESPONSE	n/a	n/a	n/a	n/a	n/a	n/a	n/a	yellow
71.2177	1.0167	ITI	n/a	n/a	n/a	n/a	n/a	n/a	n/a	n/a
72.2344	0.5167	FIXCROSS	n/a	n/a	n/a	n/a	n/a	n/a	n/a	n/a
72.751	0.6667	INK	13	Neutral	xxxxxxxx	xxxxxxxx	żółty	yellow	hit	n/a
73.392	n/a	RESPONSE	n/a	n/a	n/a	n/a	n/a	n/a	n/a	yellow
73.4177	1.0167	ITI	n/a	n/a	n/a	n/a	n/a	n/a	n/a	n/a
74.4344	0.5167	FIXCROSS	n/a	n/a	n/a	n/a	n/a	n/a	n/a	n/a
74.951	1.0	INK	14	Incongruent	niebieski	blue	zielony	green	hit	n/a
75.9195	n/a	RESPONSE	n/a	n/a	n/a	n/a	n/a	n/a	n/a	green
75.951	1.0167	ITI	n/a	n/a	n/a	n/a	n/a	n/a	n/a	n/a
76.9677	0.5167	FIXCROSS	n/a	n/a	n/a	n/a	n/a	n/a	n/a	n/a
77.4844	0.7667	INK	15	Incongruent	czerwony	red	niebieski	blue	hit	n/a
78.223	n/a	RESPONSE	n/a	n/a	n/a	n/a	n/a	n/a	n/a	blue
78.2511	1.0167	ITI	n/a	n/a	n/a	n/a	n/a	n/a	n/a	n/a
79.2677	0.5167	FIXCROSS	n/a	n/a	n/a	n/a	n/a	n/a	n/a	n/a
79.7844	0.8	INK	16	Neutral	xxxxxxxxx	xxxxxxxxx	czerwony	red	hit	n/a
80.5585	n/a	RESPONSE	n/a	n/a	n/a	n/a	n/a	n/a	n/a	red
80.5844	1.0167	ITI	n/a	n/a	n/a	n/a	n/a	n/a	n/a	n/a
81.6011	0.5167	FIXCROSS	n/a	n/a	n/a	n/a	n/a	n/a	n/a	n/a
82.1177	0.8	INK	17	Incongruent	niebieski	blue	żółty	yellow	hit	n/a
82.894	n/a	RESPONSE	n/a	n/a	n/a	n/a	n/a	n/a	n/a	yellow
82.9178	1.0167	ITI	n/a	n/a	n/a	n/a	n/a	n/a	n/a	n/a
83.9344	0.5167	FIXCROSS	n/a	n/a	n/a	n/a	n/a	n/a	n/a	n/a
84.4511	0.7333	INK	18	Incongruent	czerwony	red	żółty	yellow	hit	n/a
85.1655	n/a	RESPONSE	n/a	n/a	n/a	n/a	n/a	n/a	n/a	yellow
85.1844	1.0167	ITI	n/a	n/a	n/a	n/a	n/a	n/a	n/a	n/a
86.2011	0.5167	FIXCROSS	n/a	n/a	n/a	n/a	n/a	n/a	n/a	n/a
86.7178	0.7833	INK	19	Incongruent	zielony	green	czerwony	red	hit	n/a
87.469	n/a	RESPONSE	n/a	n/a	n/a	n/a	n/a	n/a	n/a	red
87.5011	1.0167	ITI	n/a	n/a	n/a	n/a	n/a	n/a	n/a	n/a
88.5178	0.5167	FIXCROSS	n/a	n/a	n/a	n/a	n/a	n/a	n/a	n/a
89.0345	0.55	INK	20	Incongruent	zielony	green	czerwony	red	hit	n/a
89.5646	n/a	RESPONSE	n/a	n/a	n/a	n/a	n/a	n/a	n/a	red
89.5845	1.0167	ITI	n/a	n/a	n/a	n/a	n/a	n/a	n/a	n/a
90.6012	0.5167	FIXCROSS	n/a	n/a	n/a	n/a	n/a	n/a	n/a	n/a
91.1178	0.4333	INK	21	Neutral	xxxxx	xxxxx	czerwony	red	hit	n/a
91.5322	n/a	RESPONSE	n/a	n/a	n/a	n/a	n/a	n/a	n/a	red
91.5512	1.0167	ITI	n/a	n/a	n/a	n/a	n/a	n/a	n/a	n/a
92.5678	0.5167	FIXCROSS	n/a	n/a	n/a	n/a	n/a	n/a	n/a	n/a
93.0845	0.7	INK	22	Neutral	xxxxx	xxxxx	zielony	green	hit	n/a
93.7557	n/a	RESPONSE	n/a	n/a	n/a	n/a	n/a	n/a	n/a	green
93.7845	1.0167	ITI	n/a	n/a	n/a	n/a	n/a	n/a	n/a	n/a
94.8012	0.5167	FIXCROSS	n/a	n/a	n/a	n/a	n/a	n/a	n/a	n/a
95.3178	0.7	INK	23	Neutral	xxxxxxx	xxxxxxx	niebieski	blue	hit	n/a
95.9952	n/a	RESPONSE	n/a	n/a	n/a	n/a	n/a	n/a	n/a	blue
96.0179	1.0167	ITI	n/a	n/a	n/a	n/a	n/a	n/a	n/a	n/a
97.0345	0.5167	FIXCROSS	n/a	n/a	n/a	n/a	n/a	n/a	n/a	n/a
97.5512	0.7333	INK	24	Incongruent	niebieski	blue	żółty	yellow	hit	n/a
98.2668	n/a	RESPONSE	n/a	n/a	n/a	n/a	n/a	n/a	n/a	yellow
98.2845	1.0167	ITI	n/a	n/a	n/a	n/a	n/a	n/a	n/a	n/a
99.3012	0.5167	FIXCROSS	n/a	n/a	n/a	n/a	n/a	n/a	n/a	n/a
99.8179	0.9	INK	25	Incongruent	żółty	yellow	zielony	green	hit	n/a
100.6983	n/a	RESPONSE	n/a	n/a	n/a	n/a	n/a	n/a	n/a	green
100.7179	1.0167	ITI	n/a	n/a	n/a	n/a	n/a	n/a	n/a	n/a
101.7346	0.5167	FIXCROSS	n/a	n/a	n/a	n/a	n/a	n/a	n/a	n/a
102.2512	0.65	INK	26	Incongruent	żółty	yellow	czerwony	red	hit	n/a
102.8738	n/a	RESPONSE	n/a	n/a	n/a	n/a	n/a	n/a	n/a	red
102.9012	1.0167	ITI	n/a	n/a	n/a	n/a	n/a	n/a	n/a	n/a
103.9179	0.5167	FIXCROSS	n/a	n/a	n/a	n/a	n/a	n/a	n/a	n/a
104.4346	0.6333	INK	27	Incongruent	niebieski	blue	czerwony	red	hit	n/a
105.0493	n/a	RESPONSE	n/a	n/a	n/a	n/a	n/a	n/a	n/a	red
105.0679	1.0167	ITI	n/a	n/a	n/a	n/a	n/a	n/a	n/a	n/a
106.0846	0.5167	FIXCROSS	n/a	n/a	n/a	n/a	n/a	n/a	n/a	n/a
106.6013	0.7167	INK	28	Incongruent	żółty	yellow	zielony	green	hit	n/a
107.2889	n/a	RESPONSE	n/a	n/a	n/a	n/a	n/a	n/a	n/a	green
107.3179	1.0167	ITI	n/a	n/a	n/a	n/a	n/a	n/a	n/a	n/a
108.3346	0.5167	FIXCROSS	n/a	n/a	n/a	n/a	n/a	n/a	n/a	n/a
108.8513	0.6	INK	29	Neutral	xxxxx	xxxxx	czerwony	red	hit	n/a
109.4324	n/a	RESPONSE	n/a	n/a	n/a	n/a	n/a	n/a	n/a	red
109.4513	1.0167	ITI	n/a	n/a	n/a	n/a	n/a	n/a	n/a	n/a
110.468	0.5167	FIXCROSS	n/a	n/a	n/a	n/a	n/a	n/a	n/a	n/a
110.9846	0.7167	INK	30	Neutral	xxxxxxxx	xxxxxxxx	zielony	green	hit	n/a
111.6719	n/a	RESPONSE	n/a	n/a	n/a	n/a	n/a	n/a	n/a	green
111.7013	1.0167	ITI	n/a	n/a	n/a	n/a	n/a	n/a	n/a	n/a
112.718	0.5167	FIXCROSS	n/a	n/a	n/a	n/a	n/a	n/a	n/a	n/a
113.2346	0.7	INK	31	Incongruent	żółty	yellow	niebieski	blue	hit	n/a
113.9115	n/a	RESPONSE	n/a	n/a	n/a	n/a	n/a	n/a	n/a	blue
113.9346	1.0167	ITI	n/a	n/a	n/a	n/a	n/a	n/a	n/a	n/a
114.9513	0.5167	FIXCROSS	n/a	n/a	n/a	n/a	n/a	n/a	n/a	n/a
115.468	0.7	INK	32	Incongruent	żółty	yellow	czerwony	red	hit	n/a
116.135	n/a	RESPONSE	n/a	n/a	n/a	n/a	n/a	n/a	n/a	red
116.168	1.0167	ITI	n/a	n/a	n/a	n/a	n/a	n/a	n/a	n/a
117.1847	0.5167	FIXCROSS	n/a	n/a	n/a	n/a	n/a	n/a	n/a	n/a
117.7013	0.8	INK	33	Neutral	xxxxxxxxx	xxxxxxxxx	żółty	yellow	hit	n/a
118.4705	n/a	RESPONSE	n/a	n/a	n/a	n/a	n/a	n/a	n/a	yellow
118.5013	1.0167	ITI	n/a	n/a	n/a	n/a	n/a	n/a	n/a	n/a
119.518	0.5167	FIXCROSS	n/a	n/a	n/a	n/a	n/a	n/a	n/a	n/a
120.0347	0.7167	INK	34	Neutral	xxxxxxxxx	xxxxxxxxx	zielony	green	hit	n/a
120.726	n/a	RESPONSE	n/a	n/a	n/a	n/a	n/a	n/a	n/a	green
120.7514	1.0167	ITI	n/a	n/a	n/a	n/a	n/a	n/a	n/a	n/a
121.768	0.5167	FIXCROSS	n/a	n/a	n/a	n/a	n/a	n/a	n/a	n/a
122.2847	0.65	INK	35	Neutral	xxxxxxxxx	xxxxxxxxx	czerwony	red	hit	n/a
122.9016	n/a	RESPONSE	n/a	n/a	n/a	n/a	n/a	n/a	n/a	red
122.9347	1.0167	ITI	n/a	n/a	n/a	n/a	n/a	n/a	n/a	n/a
123.9514	0.5167	FIXCROSS	n/a	n/a	n/a	n/a	n/a	n/a	n/a	n/a
124.468	0.7	INK	36	Incongruent	zielony	green	niebieski	blue	hit	n/a
125.1411	n/a	RESPONSE	n/a	n/a	n/a	n/a	n/a	n/a	n/a	blue
125.1681	1.0167	ITI	n/a	n/a	n/a	n/a	n/a	n/a	n/a	n/a
126.1847	0.5167	FIXCROSS	n/a	n/a	n/a	n/a	n/a	n/a	n/a	n/a
126.7014	0.6667	INK	37	Neutral	xxxxxxx	xxxxxxx	żółty	yellow	hit	n/a
127.3487	n/a	RESPONSE	n/a	n/a	n/a	n/a	n/a	n/a	n/a	yellow
127.3681	1.0167	ITI	n/a	n/a	n/a	n/a	n/a	n/a	n/a	n/a
128.3847	0.5167	FIXCROSS	n/a	n/a	n/a	n/a	n/a	n/a	n/a	n/a
128.9014	0.7167	INK	38	Incongruent	żółty	yellow	niebieski	blue	hit	n/a
129.5882	n/a	RESPONSE	n/a	n/a	n/a	n/a	n/a	n/a	n/a	blue
129.6181	1.0167	ITI	n/a	n/a	n/a	n/a	n/a	n/a	n/a	n/a
130.6348	0.5167	FIXCROSS	n/a	n/a	n/a	n/a	n/a	n/a	n/a	n/a
131.1514	0.7167	INK	39	Incongruent	zielony	green	żółty	yellow	hit	n/a
131.8437	n/a	RESPONSE	n/a	n/a	n/a	n/a	n/a	n/a	n/a	yellow
131.8681	1.0167	ITI	n/a	n/a	n/a	n/a	n/a	n/a	n/a	n/a
132.8848	0.5167	FIXCROSS	n/a	n/a	n/a	n/a	n/a	n/a	n/a	n/a
133.4014	0.6833	INK	40	Incongruent	niebieski	blue	czerwony	red	hit	n/a
134.0512	n/a	RESPONSE	n/a	n/a	n/a	n/a	n/a	n/a	n/a	red
134.0848	1.0167	ITI	n/a	n/a	n/a	n/a	n/a	n/a	n/a	n/a
135.1015	0.5167	FIXCROSS	n/a	n/a	n/a	n/a	n/a	n/a	n/a	n/a
135.6181	0.5833	INK	41	Incongruent	żółty	yellow	niebieski	blue	hit	n/a
136.1788	n/a	RESPONSE	n/a	n/a	n/a	n/a	n/a	n/a	n/a	blue
136.2015	1.0167	ITI	n/a	n/a	n/a	n/a	n/a	n/a	n/a	n/a
137.2181	0.5167	FIXCROSS	n/a	n/a	n/a	n/a	n/a	n/a	n/a	n/a
137.7348	0.6167	INK	42	Neutral	xxxxx	xxxxx	niebieski	blue	hit	n/a
138.3223	n/a	RESPONSE	n/a	n/a	n/a	n/a	n/a	n/a	n/a	blue
138.3515	1.0167	ITI	n/a	n/a	n/a	n/a	n/a	n/a	n/a	n/a
139.3681	0.5167	FIXCROSS	n/a	n/a	n/a	n/a	n/a	n/a	n/a	n/a
139.8848	0.9	INK	43	Neutral	xxxxxxxxx	xxxxxxxxx	zielony	green	hit	n/a
140.7538	n/a	RESPONSE	n/a	n/a	n/a	n/a	n/a	n/a	n/a	green
140.7848	1.0167	ITI	n/a	n/a	n/a	n/a	n/a	n/a	n/a	n/a
141.8015	0.5167	FIXCROSS	n/a	n/a	n/a	n/a	n/a	n/a	n/a	n/a
142.3182	0.65	INK	44	Incongruent	niebieski	blue	czerwony	red	hit	n/a
142.9453	n/a	RESPONSE	n/a	n/a	n/a	n/a	n/a	n/a	n/a	red
142.9682	1.0167	ITI	n/a	n/a	n/a	n/a	n/a	n/a	n/a	n/a
143.9848	0.5167	FIXCROSS	n/a	n/a	n/a	n/a	n/a	n/a	n/a	n/a
144.5015	0.7	INK	45	Incongruent	zielony	green	żółty	yellow	hit	n/a
145.1689	n/a	RESPONSE	n/a	n/a	n/a	n/a	n/a	n/a	n/a	yellow
145.2015	1.0167	ITI	n/a	n/a	n/a	n/a	n/a	n/a	n/a	n/a
146.2182	0.5167	FIXCROSS	n/a	n/a	n/a	n/a	n/a	n/a	n/a	n/a
146.7349	0.6833	INK	46	Incongruent	niebieski	blue	zielony	green	hit	n/a
147.3924	n/a	RESPONSE	n/a	n/a	n/a	n/a	n/a	n/a	n/a	green
147.4182	1.0167	ITI	n/a	n/a	n/a	n/a	n/a	n/a	n/a	n/a
148.4349	0.5167	FIXCROSS	n/a	n/a	n/a	n/a	n/a	n/a	n/a	n/a
148.9515	0.5667	INK	47	Neutral	xxxxxxxx	xxxxxxxx	zielony	green	hit	n/a
149.488	n/a	RESPONSE	n/a	n/a	n/a	n/a	n/a	n/a	n/a	green
149.5182	1.0167	ITI	n/a	n/a	n/a	n/a	n/a	n/a	n/a	n/a
150.5349	0.5167	FIXCROSS	n/a	n/a	n/a	n/a	n/a	n/a	n/a	n/a
151.0516	0.5667	INK	48	Neutral	xxxxxxx	xxxxxxx	niebieski	blue	hit	n/a
151.5995	n/a	RESPONSE	n/a	n/a	n/a	n/a	n/a	n/a	n/a	blue
151.6182	1.0167	ITI	n/a	n/a	n/a	n/a	n/a	n/a	n/a	n/a
152.6349	0.5167	FIXCROSS	n/a	n/a	n/a	n/a	n/a	n/a	n/a	n/a
153.1516	0.8167	INK	49	Incongruent	czerwony	red	zielony	green	hit	n/a
153.951	n/a	RESPONSE	n/a	n/a	n/a	n/a	n/a	n/a	n/a	green
153.9682	1.0167	ITI	n/a	n/a	n/a	n/a	n/a	n/a	n/a	n/a
154.9849	0.5167	FIXCROSS	n/a	n/a	n/a	n/a	n/a	n/a	n/a	n/a
155.5016	0.7334	INK	50	Incongruent	czerwony	red	żółty	yellow	hit	n/a
156.2066	n/a	RESPONSE	n/a	n/a	n/a	n/a	n/a	n/a	n/a	yellow
156.2349	1.0167	ITI	n/a	n/a	n/a	n/a	n/a	n/a	n/a	n/a
157.2516	0.5167	FIXCROSS	n/a	n/a	n/a	n/a	n/a	n/a	n/a	n/a
157.7683	0.7	INK	51	Neutral	xxxxxxx	xxxxxxx	czerwony	red	hit	n/a
158.4461	n/a	RESPONSE	n/a	n/a	n/a	n/a	n/a	n/a	n/a	red
158.4683	1.0167	ITI	n/a	n/a	n/a	n/a	n/a	n/a	n/a	n/a
159.485	0.5167	FIXCROSS	n/a	n/a	n/a	n/a	n/a	n/a	n/a	n/a
160.0016	0.7	INK	52	Neutral	xxxxx	xxxxx	niebieski	blue	hit	n/a
160.6696	n/a	RESPONSE	n/a	n/a	n/a	n/a	n/a	n/a	n/a	blue
160.7016	1.0167	ITI	n/a	n/a	n/a	n/a	n/a	n/a	n/a	n/a
161.7183	0.5167	FIXCROSS	n/a	n/a	n/a	n/a	n/a	n/a	n/a	n/a
162.235	0.6333	INK	53	Incongruent	żółty	yellow	zielony	green	hit	n/a
162.8452	n/a	RESPONSE	n/a	n/a	n/a	n/a	n/a	n/a	n/a	green
162.8683	1.0167	ITI	n/a	n/a	n/a	n/a	n/a	n/a	n/a	n/a
163.885	0.5167	FIXCROSS	n/a	n/a	n/a	n/a	n/a	n/a	n/a	n/a
164.4017	0.6833	INK	54	Neutral	xxxxxxxxx	xxxxxxxxx	czerwony	red	hit	n/a
165.0527	n/a	RESPONSE	n/a	n/a	n/a	n/a	n/a	n/a	n/a	red
165.085	1.0167	ITI	n/a	n/a	n/a	n/a	n/a	n/a	n/a	n/a
166.1017	0.5167	FIXCROSS	n/a	n/a	n/a	n/a	n/a	n/a	n/a	n/a
166.6183	0.6667	INK	55	Neutral	xxxxxxxx	xxxxxxxx	żółty	yellow	hit	n/a
167.2602	n/a	RESPONSE	n/a	n/a	n/a	n/a	n/a	n/a	n/a	yellow
167.285	1.0167	ITI	n/a	n/a	n/a	n/a	n/a	n/a	n/a	n/a
168.3017	0.5167	FIXCROSS	n/a	n/a	n/a	n/a	n/a	n/a	n/a	n/a
168.8184	0.7	INK	56	Neutral	xxxxx	xxxxx	zielony	green	hit	n/a
169.4998	n/a	RESPONSE	n/a	n/a	n/a	n/a	n/a	n/a	n/a	green
169.5184	1.0167	ITI	n/a	n/a	n/a	n/a	n/a	n/a	n/a	n/a
170.535	0.5167	FIXCROSS	n/a	n/a	n/a	n/a	n/a	n/a	n/a	n/a
171.0517	0.8	INK	57	Incongruent	czerwony	red	niebieski	blue	hit	n/a
171.8193	n/a	RESPONSE	n/a	n/a	n/a	n/a	n/a	n/a	n/a	blue
171.8517	1.0167	ITI	n/a	n/a	n/a	n/a	n/a	n/a	n/a	n/a
172.8684	0.5167	FIXCROSS	n/a	n/a	n/a	n/a	n/a	n/a	n/a	n/a
173.3851	0.6667	INK	58	Neutral	xxxxxxx	xxxxxxx	czerwony	red	hit	n/a
174.0268	n/a	RESPONSE	n/a	n/a	n/a	n/a	n/a	n/a	n/a	red
174.0517	1.0167	ITI	n/a	n/a	n/a	n/a	n/a	n/a	n/a	n/a
175.0684	0.5167	FIXCROSS	n/a	n/a	n/a	n/a	n/a	n/a	n/a	n/a
175.5851	0.7333	INK	59	Incongruent	czerwony	red	żółty	yellow	hit	n/a
176.2983	n/a	RESPONSE	n/a	n/a	n/a	n/a	n/a	n/a	n/a	yellow
176.3184	1.0167	ITI	n/a	n/a	n/a	n/a	n/a	n/a	n/a	n/a
177.3351	0.5167	FIXCROSS	n/a	n/a	n/a	n/a	n/a	n/a	n/a	n/a
177.8518	0.7833	INK	60	Incongruent	zielony	green	niebieski	blue	hit	n/a
178.6178	n/a	RESPONSE	n/a	n/a	n/a	n/a	n/a	n/a	n/a	blue
178.6351	1.0167	ITI	n/a	n/a	n/a	n/a	n/a	n/a	n/a	n/a
179.6518	0.5167	FIXCROSS	n/a	n/a	n/a	n/a	n/a	n/a	n/a	n/a
180.1684	0.7	INK	61	Neutral	xxxxxxxxx	xxxxxxxxx	zielony	green	hit	n/a
180.8414	n/a	RESPONSE	n/a	n/a	n/a	n/a	n/a	n/a	n/a	green
180.8684	1.0167	ITI	n/a	n/a	n/a	n/a	n/a	n/a	n/a	n/a
181.8851	0.5167	FIXCROSS	n/a	n/a	n/a	n/a	n/a	n/a	n/a	n/a
182.4018	0.65	INK	62	Incongruent	niebieski	blue	żółty	yellow	hit	n/a
183.0329	n/a	RESPONSE	n/a	n/a	n/a	n/a	n/a	n/a	n/a	yellow
183.0518	1.0167	ITI	n/a	n/a	n/a	n/a	n/a	n/a	n/a	n/a
184.0685	0.5167	FIXCROSS	n/a	n/a	n/a	n/a	n/a	n/a	n/a	n/a
184.5851	0.7333	INK	63	Incongruent	zielony	green	żółty	yellow	hit	n/a
185.2885	n/a	RESPONSE	n/a	n/a	n/a	n/a	n/a	n/a	n/a	yellow
185.3185	1.0167	ITI	n/a	n/a	n/a	n/a	n/a	n/a	n/a	n/a
186.3351	0.5167	FIXCROSS	n/a	n/a	n/a	n/a	n/a	n/a	n/a	n/a
186.8518	0.65	INK	64	Incongruent	zielony	green	czerwony	red	hit	n/a
187.48	n/a	RESPONSE	n/a	n/a	n/a	n/a	n/a	n/a	n/a	red
187.5018	1.0167	ITI	n/a	n/a	n/a	n/a	n/a	n/a	n/a	n/a
188.5185	0.5167	FIXCROSS	n/a	n/a	n/a	n/a	n/a	n/a	n/a	n/a
189.0352	0.7333	INK	65	Neutral	xxxxxxxx	xxxxxxxx	zielony	green	hit	n/a
189.7355	n/a	RESPONSE	n/a	n/a	n/a	n/a	n/a	n/a	n/a	green
189.7685	1.0167	ITI	n/a	n/a	n/a	n/a	n/a	n/a	n/a	n/a
190.7852	0.5167	FIXCROSS	n/a	n/a	n/a	n/a	n/a	n/a	n/a	n/a
191.3018	0.4667	INK	66	Incongruent	żółty	yellow	czerwony	red	hit	n/a
191.7511	n/a	RESPONSE	n/a	n/a	n/a	n/a	n/a	n/a	n/a	red
191.7685	1.0167	ITI	n/a	n/a	n/a	n/a	n/a	n/a	n/a	n/a
192.7852	0.5167	FIXCROSS	n/a	n/a	n/a	n/a	n/a	n/a	n/a	n/a
193.3019	0.6	INK	67	Incongruent	czerwony	red	niebieski	blue	hit	n/a
193.8786	n/a	RESPONSE	n/a	n/a	n/a	n/a	n/a	n/a	n/a	blue
193.9019	1.0167	ITI	n/a	n/a	n/a	n/a	n/a	n/a	n/a	n/a
194.9185	0.5167	FIXCROSS	n/a	n/a	n/a	n/a	n/a	n/a	n/a	n/a
195.4352	0.6167	INK	68	Neutral	xxxxxxx	xxxxxxx	żółty	yellow	hit	n/a
196.0222	n/a	RESPONSE	n/a	n/a	n/a	n/a	n/a	n/a	n/a	yellow
196.0519	1.0167	ITI	n/a	n/a	n/a	n/a	n/a	n/a	n/a	n/a
197.0685	0.5167	FIXCROSS	n/a	n/a	n/a	n/a	n/a	n/a	n/a	n/a
197.5852	0.8	INK	69	Neutral	xxxxxxxx	xxxxxxxx	niebieski	blue	hit	n/a
198.3577	n/a	RESPONSE	n/a	n/a	n/a	n/a	n/a	n/a	n/a	blue
198.3852	1.0167	ITI	n/a	n/a	n/a	n/a	n/a	n/a	n/a	n/a
199.4019	0.5167	FIXCROSS	n/a	n/a	n/a	n/a	n/a	n/a	n/a	n/a
199.9186	0.6667	INK	70	Neutral	xxxxxxxxx	xxxxxxxxx	żółty	yellow	hit	n/a
200.5652	n/a	RESPONSE	n/a	n/a	n/a	n/a	n/a	n/a	n/a	yellow
200.5852	1.0167	ITI	n/a	n/a	n/a	n/a	n/a	n/a	n/a	n/a
201.6019	0.5167	FIXCROSS	n/a	n/a	n/a	n/a	n/a	n/a	n/a	n/a
202.1186	0.7167	INK	71	Neutral	xxxxx	xxxxx	zielony	green	hit	n/a
202.8047	n/a	RESPONSE	n/a	n/a	n/a	n/a	n/a	n/a	n/a	green
202.8353	1.0167	ITI	n/a	n/a	n/a	n/a	n/a	n/a	n/a	n/a
203.8519	0.5167	FIXCROSS	n/a	n/a	n/a	n/a	n/a	n/a	n/a	n/a
204.3686	0.5833	INK	72	Neutral	xxxxx	xxxxx	czerwony	red	hit	n/a
204.9323	n/a	RESPONSE	n/a	n/a	n/a	n/a	n/a	n/a	n/a	red
204.9519	1.0834	ITI	n/a	n/a	n/a	n/a	n/a	n/a	n/a	n/a
227.2956	n/a	RESPONSE	n/a	n/a	n/a	n/a	n/a	n/a	n/a	n/a
227.3521	1.0167	ITI	n/a	n/a	n/a	n/a	n/a	n/a	n/a	n/a
228.3688	0.5167	FIXCROSS	n/a	n/a	n/a	n/a	n/a	n/a	n/a	n/a
228.8854	1.0167	T_COLOR_NAME	1	Incongruent	czerwony	red	niebieski	blue	hit	n/a
229.8711	n/a	RESPONSE	n/a	n/a	n/a	n/a	n/a	n/a	n/a	red
229.9021	0.5167	FEEDBACK	n/a	n/a	n/a	n/a	n/a	n/a	n/a	n/a
230.4188	1.0167	ITI	n/a	n/a	n/a	n/a	n/a	n/a	n/a	n/a
231.4354	0.5167	FIXCROSS	n/a	n/a	n/a	n/a	n/a	n/a	n/a	n/a
231.9521	0.8833	T_COLOR_NAME	2	Neutral	czerwony	red	Neutral	Neutral	hit	n/a
232.7985	n/a	RESPONSE	n/a	n/a	n/a	n/a	n/a	n/a	n/a	red
232.8355	0.5167	FEEDBACK	n/a	n/a	n/a	n/a	n/a	n/a	n/a	n/a
233.3521	1.0167	ITI	n/a	n/a	n/a	n/a	n/a	n/a	n/a	n/a
234.3688	0.5167	FIXCROSS	n/a	n/a	n/a	n/a	n/a	n/a	n/a	n/a
234.8855	0.9333	T_COLOR_NAME	3	Incongruent	zielony	green	czerwony	red	hit	n/a
235.7899	n/a	RESPONSE	n/a	n/a	n/a	n/a	n/a	n/a	n/a	green
235.8188	0.5167	FEEDBACK	n/a	n/a	n/a	n/a	n/a	n/a	n/a	n/a
236.3355	1.0167	ITI	n/a	n/a	n/a	n/a	n/a	n/a	n/a	n/a
237.3522	0.5167	FIXCROSS	n/a	n/a	n/a	n/a	n/a	n/a	n/a	n/a
237.8688	1.3167	T_COLOR_NAME	4	Incongruent	czerwony	red	zielony	green	hit	n/a
239.1651	n/a	RESPONSE	n/a	n/a	n/a	n/a	n/a	n/a	n/a	red
239.1855	0.5167	FEEDBACK	n/a	n/a	n/a	n/a	n/a	n/a	n/a	n/a
239.7022	1.0167	ITI	n/a	n/a	n/a	n/a	n/a	n/a	n/a	n/a
240.7188	0.5167	FIXCROSS	n/a	n/a	n/a	n/a	n/a	n/a	n/a	n/a
241.2355	1.3333	T_COLOR_NAME	5	Incongruent	czerwony	red	żółty	yellow	hit	n/a
242.5404	n/a	RESPONSE	n/a	n/a	n/a	n/a	n/a	n/a	n/a	red
242.5689	0.5167	FEEDBACK	n/a	n/a	n/a	n/a	n/a	n/a	n/a	n/a
243.0855	1.0167	ITI	n/a	n/a	n/a	n/a	n/a	n/a	n/a	n/a
244.1022	0.5167	FIXCROSS	n/a	n/a	n/a	n/a	n/a	n/a	n/a	n/a
244.6189	1.4167	T_COLOR_NAME	6	Incongruent	żółty	yellow	niebieski	blue	hit	n/a
246.0116	n/a	RESPONSE	n/a	n/a	n/a	n/a	n/a	n/a	n/a	yellow
246.0355	0.5167	FEEDBACK	n/a	n/a	n/a	n/a	n/a	n/a	n/a	n/a
246.5522	1.0167	ITI	n/a	n/a	n/a	n/a	n/a	n/a	n/a	n/a
247.5689	0.5167	FIXCROSS	n/a	n/a	n/a	n/a	n/a	n/a	n/a	n/a
248.0856	0.8167	T_COLOR_NAME	7	Neutral	żółty	yellow	Neutral	Neutral	hit	n/a
248.875	n/a	RESPONSE	n/a	n/a	n/a	n/a	n/a	n/a	n/a	yellow
248.9022	0.5167	FEEDBACK	n/a	n/a	n/a	n/a	n/a	n/a	n/a	n/a
249.4189	1.0167	ITI	n/a	n/a	n/a	n/a	n/a	n/a	n/a	n/a
250.4356	0.5167	FIXCROSS	n/a	n/a	n/a	n/a	n/a	n/a	n/a	n/a
250.9522	1.3167	T_COLOR_NAME	8	Incongruent	żółty	yellow	czerwony	red	hit	n/a
252.2344	n/a	RESPONSE	n/a	n/a	n/a	n/a	n/a	n/a	n/a	yellow
252.2689	0.5167	FEEDBACK	n/a	n/a	n/a	n/a	n/a	n/a	n/a	n/a
252.7856	1.0167	ITI	n/a	n/a	n/a	n/a	n/a	n/a	n/a	n/a
253.8023	0.5167	FIXCROSS	n/a	n/a	n/a	n/a	n/a	n/a	n/a	n/a
254.3189	1.1667	T_COLOR_NAME	9	Incongruent	niebieski	blue	żółty	yellow	hit	n/a
255.4657	n/a	RESPONSE	n/a	n/a	n/a	n/a	n/a	n/a	n/a	blue
255.4856	0.5167	FEEDBACK	n/a	n/a	n/a	n/a	n/a	n/a	n/a	n/a
256.0023	1.0167	ITI	n/a	n/a	n/a	n/a	n/a	n/a	n/a	n/a
257.019	0.5167	FIXCROSS	n/a	n/a	n/a	n/a	n/a	n/a	n/a	n/a
257.5356	0.9167	T_COLOR_NAME	10	Neutral	żółty	yellow	Neutral	Neutral	hit	n/a
258.425	n/a	RESPONSE	n/a	n/a	n/a	n/a	n/a	n/a	n/a	yellow
258.4523	0.5167	FEEDBACK	n/a	n/a	n/a	n/a	n/a	n/a	n/a	n/a
258.969	1.0167	ITI	n/a	n/a	n/a	n/a	n/a	n/a	n/a	n/a
259.9856	0.5167	FIXCROSS	n/a	n/a	n/a	n/a	n/a	n/a	n/a	n/a
260.5023	1.5	T_COLOR_NAME	11	Incongruent	żółty	yellow	zielony	green	hit	n/a
261.9763	n/a	RESPONSE	n/a	n/a	n/a	n/a	n/a	n/a	n/a	yellow
262.0023	0.5167	FEEDBACK	n/a	n/a	n/a	n/a	n/a	n/a	n/a	n/a
262.519	1.0167	ITI	n/a	n/a	n/a	n/a	n/a	n/a	n/a	n/a
263.5357	0.5167	FIXCROSS	n/a	n/a	n/a	n/a	n/a	n/a	n/a	n/a
264.0523	0.8833	T_COLOR_NAME	12	Incongruent	niebieski	blue	zielony	green	hit	n/a
264.9037	n/a	RESPONSE	n/a	n/a	n/a	n/a	n/a	n/a	n/a	blue
264.9357	0.5167	FEEDBACK	n/a	n/a	n/a	n/a	n/a	n/a	n/a	n/a
265.4524	1.0333	ITI	n/a	n/a	n/a	n/a	n/a	n/a	n/a	n/a
268.6789	n/a	RESPONSE	n/a	n/a	n/a	n/a	n/a	n/a	n/a	n/a
268.7357	1.0166	ITI	n/a	n/a	n/a	n/a	n/a	n/a	n/a	n/a
269.7523	0.5168	FIXCROSS	n/a	n/a	n/a	n/a	n/a	n/a	n/a	n/a
270.2691	0.9667	COLOR_NAME	1	Incongruent	niebieski	blue	żółty	yellow	hit	n/a
271.2064	n/a	RESPONSE	n/a	n/a	n/a	n/a	n/a	n/a	n/a	blue
271.2357	1.0167	ITI	n/a	n/a	n/a	n/a	n/a	n/a	n/a	n/a
272.2524	0.5167	FIXCROSS	n/a	n/a	n/a	n/a	n/a	n/a	n/a	n/a
272.7691	0.9167	COLOR_NAME	2	Neutral	czerwony	red	Neutral	Neutral	hit	n/a
273.6538	n/a	RESPONSE	n/a	n/a	n/a	n/a	n/a	n/a	n/a	red
273.6857	1.0167	ITI	n/a	n/a	n/a	n/a	n/a	n/a	n/a	n/a
274.7024	0.5167	FIXCROSS	n/a	n/a	n/a	n/a	n/a	n/a	n/a	n/a
275.2191	0.6	COLOR_NAME	3	Incongruent	czerwony	red	żółty	yellow	hit	n/a
275.7974	n/a	RESPONSE	n/a	n/a	n/a	n/a	n/a	n/a	n/a	red
275.8191	1.0167	ITI	n/a	n/a	n/a	n/a	n/a	n/a	n/a	n/a
276.8358	0.5167	FIXCROSS	n/a	n/a	n/a	n/a	n/a	n/a	n/a	n/a
277.3524	0.7333	COLOR_NAME	4	Neutral	żółty	yellow	Neutral	Neutral	hit	n/a
278.0529	n/a	RESPONSE	n/a	n/a	n/a	n/a	n/a	n/a	n/a	yellow
278.0858	1.0167	ITI	n/a	n/a	n/a	n/a	n/a	n/a	n/a	n/a
279.1024	0.5167	FIXCROSS	n/a	n/a	n/a	n/a	n/a	n/a	n/a	n/a
279.6191	0.8667	COLOR_NAME	5	Incongruent	zielony	green	niebieski	blue	hit	n/a
280.4524	n/a	RESPONSE	n/a	n/a	n/a	n/a	n/a	n/a	n/a	green
280.4858	1.0167	ITI	n/a	n/a	n/a	n/a	n/a	n/a	n/a	n/a
281.5025	0.5167	FIXCROSS	n/a	n/a	n/a	n/a	n/a	n/a	n/a	n/a
282.0191	0.8333	COLOR_NAME	6	Neutral	niebieski	blue	Neutral	Neutral	hit	n/a
282.8199	n/a	RESPONSE	n/a	n/a	n/a	n/a	n/a	n/a	n/a	blue
282.8525	1.0167	ITI	n/a	n/a	n/a	n/a	n/a	n/a	n/a	n/a
283.8691	0.5167	FIXCROSS	n/a	n/a	n/a	n/a	n/a	n/a	n/a	n/a
284.3858	1.0167	COLOR_NAME	7	Incongruent	zielony	green	niebieski	blue	hit	n/a
285.3794	n/a	RESPONSE	n/a	n/a	n/a	n/a	n/a	n/a	n/a	green
285.4025	1.0167	ITI	n/a	n/a	n/a	n/a	n/a	n/a	n/a	n/a
286.4192	0.5167	FIXCROSS	n/a	n/a	n/a	n/a	n/a	n/a	n/a	n/a
286.9358	0.9833	COLOR_NAME	8	Incongruent	niebieski	blue	zielony	green	hit	n/a
287.8908	n/a	RESPONSE	n/a	n/a	n/a	n/a	n/a	n/a	n/a	blue
287.9192	1.0167	ITI	n/a	n/a	n/a	n/a	n/a	n/a	n/a	n/a
288.9358	0.5167	FIXCROSS	n/a	n/a	n/a	n/a	n/a	n/a	n/a	n/a
289.4525	0.7333	COLOR_NAME	9	Neutral	niebieski	blue	Neutral	Neutral	hit	n/a
290.1623	n/a	RESPONSE	n/a	n/a	n/a	n/a	n/a	n/a	n/a	blue
290.1858	1.0167	ITI	n/a	n/a	n/a	n/a	n/a	n/a	n/a	n/a
291.2025	0.5167	FIXCROSS	n/a	n/a	n/a	n/a	n/a	n/a	n/a	n/a
291.7192	0.7833	COLOR_NAME	10	Neutral	czerwony	red	Neutral	Neutral	hit	n/a
292.4819	n/a	RESPONSE	n/a	n/a	n/a	n/a	n/a	n/a	n/a	red
292.5025	1.0167	ITI	n/a	n/a	n/a	n/a	n/a	n/a	n/a	n/a
293.5192	0.5167	FIXCROSS	n/a	n/a	n/a	n/a	n/a	n/a	n/a	n/a
294.0359	0.8833	COLOR_NAME	11	Neutral	zielony	green	Neutral	Neutral	hit	n/a
294.8974	n/a	RESPONSE	n/a	n/a	n/a	n/a	n/a	n/a	n/a	green
294.9192	1.0167	ITI	n/a	n/a	n/a	n/a	n/a	n/a	n/a	n/a
295.9359	0.5167	FIXCROSS	n/a	n/a	n/a	n/a	n/a	n/a	n/a	n/a
296.4526	0.6167	COLOR_NAME	12	Neutral	zielony	green	Neutral	Neutral	hit	n/a
297.0409	n/a	RESPONSE	n/a	n/a	n/a	n/a	n/a	n/a	n/a	green
297.0692	1.0167	ITI	n/a	n/a	n/a	n/a	n/a	n/a	n/a	n/a
298.0859	0.5167	FIXCROSS	n/a	n/a	n/a	n/a	n/a	n/a	n/a	n/a
298.6026	0.8833	COLOR_NAME	13	Neutral	żółty	yellow	Neutral	Neutral	hit	n/a
299.4564	n/a	RESPONSE	n/a	n/a	n/a	n/a	n/a	n/a	n/a	yellow
299.4859	1.0167	ITI	n/a	n/a	n/a	n/a	n/a	n/a	n/a	n/a
300.5026	0.5167	FIXCROSS	n/a	n/a	n/a	n/a	n/a	n/a	n/a	n/a
301.0193	1.35	COLOR_NAME	14	Incongruent	niebieski	blue	czerwony	red	hit	n/a
302.3358	n/a	RESPONSE	n/a	n/a	n/a	n/a	n/a	n/a	n/a	blue
302.3693	1.0167	ITI	n/a	n/a	n/a	n/a	n/a	n/a	n/a	n/a
303.3859	0.5167	FIXCROSS	n/a	n/a	n/a	n/a	n/a	n/a	n/a	n/a
303.9026	1.1667	COLOR_NAME	15	Incongruent	czerwony	red	zielony	green	hit	n/a
305.0392	n/a	RESPONSE	n/a	n/a	n/a	n/a	n/a	n/a	n/a	red
305.0693	1.0167	ITI	n/a	n/a	n/a	n/a	n/a	n/a	n/a	n/a
306.086	0.5167	FIXCROSS	n/a	n/a	n/a	n/a	n/a	n/a	n/a	n/a
306.6026	0.9167	COLOR_NAME	16	Incongruent	niebieski	blue	zielony	green	hit	n/a
307.4867	n/a	RESPONSE	n/a	n/a	n/a	n/a	n/a	n/a	n/a	blue
307.5193	1.0167	ITI	n/a	n/a	n/a	n/a	n/a	n/a	n/a	n/a
308.536	0.5167	FIXCROSS	n/a	n/a	n/a	n/a	n/a	n/a	n/a	n/a
309.0526	0.7833	COLOR_NAME	17	Incongruent	żółty	yellow	zielony	green	hit	n/a
309.8062	n/a	RESPONSE	n/a	n/a	n/a	n/a	n/a	n/a	n/a	yellow
309.836	1.0167	ITI	n/a	n/a	n/a	n/a	n/a	n/a	n/a	n/a
310.8526	0.5167	FIXCROSS	n/a	n/a	n/a	n/a	n/a	n/a	n/a	n/a
311.3693	0.8833	COLOR_NAME	18	Neutral	niebieski	blue	Neutral	Neutral	hit	n/a
312.2217	n/a	RESPONSE	n/a	n/a	n/a	n/a	n/a	n/a	n/a	blue
312.2527	1.0167	ITI	n/a	n/a	n/a	n/a	n/a	n/a	n/a	n/a
313.2693	0.5167	FIXCROSS	n/a	n/a	n/a	n/a	n/a	n/a	n/a	n/a
313.786	0.9167	COLOR_NAME	19	Incongruent	niebieski	blue	czerwony	red	hit	n/a
314.6692	n/a	RESPONSE	n/a	n/a	n/a	n/a	n/a	n/a	n/a	blue
314.7027	1.0167	ITI	n/a	n/a	n/a	n/a	n/a	n/a	n/a	n/a
315.7193	0.5167	FIXCROSS	n/a	n/a	n/a	n/a	n/a	n/a	n/a	n/a
316.236	0.95	COLOR_NAME	20	Neutral	zielony	green	Neutral	Neutral	hit	n/a
317.1646	n/a	RESPONSE	n/a	n/a	n/a	n/a	n/a	n/a	n/a	green
317.186	1.0167	ITI	n/a	n/a	n/a	n/a	n/a	n/a	n/a	n/a
318.2027	0.5153	FIXCROSS	n/a	n/a	n/a	n/a	n/a	n/a	n/a	n/a
318.718	0.8014	COLOR_NAME	21	Neutral	żółty	yellow	Neutral	Neutral	hit	n/a
319.5002	n/a	RESPONSE	n/a	n/a	n/a	n/a	n/a	n/a	n/a	yellow
319.5194	1.0167	ITI	n/a	n/a	n/a	n/a	n/a	n/a	n/a	n/a
320.5361	0.5167	FIXCROSS	n/a	n/a	n/a	n/a	n/a	n/a	n/a	n/a
321.0527	0.7667	COLOR_NAME	22	Incongruent	żółty	yellow	niebieski	blue	hit	n/a
321.7877	n/a	RESPONSE	n/a	n/a	n/a	n/a	n/a	n/a	n/a	yellow
321.8194	1.0167	ITI	n/a	n/a	n/a	n/a	n/a	n/a	n/a	n/a
322.8361	0.5167	FIXCROSS	n/a	n/a	n/a	n/a	n/a	n/a	n/a	n/a
323.3527	0.7667	COLOR_NAME	23	Incongruent	czerwony	red	niebieski	blue	hit	n/a
324.0912	n/a	RESPONSE	n/a	n/a	n/a	n/a	n/a	n/a	n/a	red
324.1194	1.0167	ITI	n/a	n/a	n/a	n/a	n/a	n/a	n/a	n/a
325.1361	0.5167	FIXCROSS	n/a	n/a	n/a	n/a	n/a	n/a	n/a	n/a
325.6528	0.8333	COLOR_NAME	24	Incongruent	zielony	green	czerwony	red	incorrect	n/a
326.4587	n/a	RESPONSE	n/a	n/a	n/a	n/a	n/a	n/a	n/a	red
326.4861	1.0167	ITI	n/a	n/a	n/a	n/a	n/a	n/a	n/a	n/a
327.5028	0.5167	FIXCROSS	n/a	n/a	n/a	n/a	n/a	n/a	n/a	n/a
328.0194	1.0333	COLOR_NAME	25	Incongruent	zielony	green	czerwony	red	hit	n/a
329.0342	n/a	RESPONSE	n/a	n/a	n/a	n/a	n/a	n/a	n/a	green
329.0528	1.0167	ITI	n/a	n/a	n/a	n/a	n/a	n/a	n/a	n/a
330.0694	0.5167	FIXCROSS	n/a	n/a	n/a	n/a	n/a	n/a	n/a	n/a
330.5861	0.85	COLOR_NAME	26	Incongruent	niebieski	blue	czerwony	red	hit	n/a
331.4177	n/a	RESPONSE	n/a	n/a	n/a	n/a	n/a	n/a	n/a	blue
331.4361	1.0167	ITI	n/a	n/a	n/a	n/a	n/a	n/a	n/a	n/a
332.4528	0.5167	FIXCROSS	n/a	n/a	n/a	n/a	n/a	n/a	n/a	n/a
332.9695	0.8333	COLOR_NAME	27	Neutral	niebieski	blue	Neutral	Neutral	hit	n/a
333.7692	n/a	RESPONSE	n/a	n/a	n/a	n/a	n/a	n/a	n/a	blue
333.8028	1.0167	ITI	n/a	n/a	n/a	n/a	n/a	n/a	n/a	n/a
334.8195	0.5167	FIXCROSS	n/a	n/a	n/a	n/a	n/a	n/a	n/a	n/a
335.3362	0.9667	COLOR_NAME	28	Incongruent	czerwony	red	żółty	yellow	hit	n/a
336.2806	n/a	RESPONSE	n/a	n/a	n/a	n/a	n/a	n/a	n/a	red
336.3028	1.0167	ITI	n/a	n/a	n/a	n/a	n/a	n/a	n/a	n/a
337.3195	0.5167	FIXCROSS	n/a	n/a	n/a	n/a	n/a	n/a	n/a	n/a
337.8362	0.95	COLOR_NAME	29	Neutral	zielony	green	Neutral	Neutral	hit	n/a
338.7601	n/a	RESPONSE	n/a	n/a	n/a	n/a	n/a	n/a	n/a	green
338.7862	1.0167	ITI	n/a	n/a	n/a	n/a	n/a	n/a	n/a	n/a
339.8028	0.5167	FIXCROSS	n/a	n/a	n/a	n/a	n/a	n/a	n/a	n/a
340.3195	0.8	COLOR_NAME	30	Neutral	zielony	green	Neutral	Neutral	hit	n/a
341.0956	n/a	RESPONSE	n/a	n/a	n/a	n/a	n/a	n/a	n/a	green
341.1195	1.0167	ITI	n/a	n/a	n/a	n/a	n/a	n/a	n/a	n/a
342.1362	0.5167	FIXCROSS	n/a	n/a	n/a	n/a	n/a	n/a	n/a	n/a
342.6529	0.7833	COLOR_NAME	31	Neutral	czerwony	red	Neutral	Neutral	hit	n/a
343.4151	n/a	RESPONSE	n/a	n/a	n/a	n/a	n/a	n/a	n/a	red
343.4362	1.0167	ITI	n/a	n/a	n/a	n/a	n/a	n/a	n/a	n/a
344.4529	0.5167	FIXCROSS	n/a	n/a	n/a	n/a	n/a	n/a	n/a	n/a
344.9695	0.7833	COLOR_NAME	32	Neutral	niebieski	blue	Neutral	Neutral	hit	n/a
345.7186	n/a	RESPONSE	n/a	n/a	n/a	n/a	n/a	n/a	n/a	blue
345.7529	1.0167	ITI	n/a	n/a	n/a	n/a	n/a	n/a	n/a	n/a
346.7696	0.5167	FIXCROSS	n/a	n/a	n/a	n/a	n/a	n/a	n/a	n/a
347.2862	1.4	COLOR_NAME	33	Neutral	czerwony	red	Neutral	Neutral	hit	n/a
348.662	n/a	RESPONSE	n/a	n/a	n/a	n/a	n/a	n/a	n/a	red
348.6862	1.0167	ITI	n/a	n/a	n/a	n/a	n/a	n/a	n/a	n/a
349.7029	0.5167	FIXCROSS	n/a	n/a	n/a	n/a	n/a	n/a	n/a	n/a
350.2196	0.7333	COLOR_NAME	34	Incongruent	niebieski	blue	zielony	green	hit	n/a
350.9335	n/a	RESPONSE	n/a	n/a	n/a	n/a	n/a	n/a	n/a	blue
350.9529	1.0167	ITI	n/a	n/a	n/a	n/a	n/a	n/a	n/a	n/a
351.9696	0.5167	FIXCROSS	n/a	n/a	n/a	n/a	n/a	n/a	n/a	n/a
352.4863	0.9167	COLOR_NAME	35	Neutral	czerwony	red	Neutral	Neutral	hit	n/a
353.381	n/a	RESPONSE	n/a	n/a	n/a	n/a	n/a	n/a	n/a	red
353.4029	1.0167	ITI	n/a	n/a	n/a	n/a	n/a	n/a	n/a	n/a
354.4196	0.5167	FIXCROSS	n/a	n/a	n/a	n/a	n/a	n/a	n/a	n/a
354.9363	1.0167	COLOR_NAME	36	Incongruent	zielony	green	żółty	yellow	hit	n/a
355.9245	n/a	RESPONSE	n/a	n/a	n/a	n/a	n/a	n/a	n/a	green
355.953	1.0167	ITI	n/a	n/a	n/a	n/a	n/a	n/a	n/a	n/a
356.9696	0.5166	FIXCROSS	n/a	n/a	n/a	n/a	n/a	n/a	n/a	n/a
357.4862	1.0334	COLOR_NAME	37	Neutral	żółty	yellow	Neutral	Neutral	hit	n/a
358.5	n/a	RESPONSE	n/a	n/a	n/a	n/a	n/a	n/a	n/a	yellow
358.5196	1.0167	ITI	n/a	n/a	n/a	n/a	n/a	n/a	n/a	n/a
359.5363	0.5167	FIXCROSS	n/a	n/a	n/a	n/a	n/a	n/a	n/a	n/a
360.053	0.8834	COLOR_NAME	38	Neutral	zielony	green	Neutral	Neutral	hit	n/a
360.9154	n/a	RESPONSE	n/a	n/a	n/a	n/a	n/a	n/a	n/a	green
360.9363	1.0167	ITI	n/a	n/a	n/a	n/a	n/a	n/a	n/a	n/a
361.953	0.5167	FIXCROSS	n/a	n/a	n/a	n/a	n/a	n/a	n/a	n/a
362.4697	0.7333	COLOR_NAME	39	Neutral	niebieski	blue	Neutral	Neutral	hit	n/a
363.171	n/a	RESPONSE	n/a	n/a	n/a	n/a	n/a	n/a	n/a	blue
363.203	1.0167	ITI	n/a	n/a	n/a	n/a	n/a	n/a	n/a	n/a
364.2197	0.5167	FIXCROSS	n/a	n/a	n/a	n/a	n/a	n/a	n/a	n/a
364.7364	0.6667	COLOR_NAME	40	Neutral	zielony	green	Neutral	Neutral	hit	n/a
365.3785	n/a	RESPONSE	n/a	n/a	n/a	n/a	n/a	n/a	n/a	green
365.403	1.0167	ITI	n/a	n/a	n/a	n/a	n/a	n/a	n/a	n/a
366.4197	0.5167	FIXCROSS	n/a	n/a	n/a	n/a	n/a	n/a	n/a	n/a
366.9364	0.9167	COLOR_NAME	41	Incongruent	żółty	yellow	zielony	green	hit	n/a
367.826	n/a	RESPONSE	n/a	n/a	n/a	n/a	n/a	n/a	n/a	yellow
367.853	1.0167	ITI	n/a	n/a	n/a	n/a	n/a	n/a	n/a	n/a
368.8697	0.5167	FIXCROSS	n/a	n/a	n/a	n/a	n/a	n/a	n/a	n/a
369.3864	0.8167	COLOR_NAME	42	Neutral	żółty	yellow	Neutral	Neutral	hit	n/a
370.1775	n/a	RESPONSE	n/a	n/a	n/a	n/a	n/a	n/a	n/a	yellow
370.2031	1.0167	ITI	n/a	n/a	n/a	n/a	n/a	n/a	n/a	n/a
371.2197	0.5167	FIXCROSS	n/a	n/a	n/a	n/a	n/a	n/a	n/a	n/a
371.7364	0.8	COLOR_NAME	43	Neutral	niebieski	blue	Neutral	Neutral	hit	n/a
372.513	n/a	RESPONSE	n/a	n/a	n/a	n/a	n/a	n/a	n/a	blue
372.5364	1.0167	ITI	n/a	n/a	n/a	n/a	n/a	n/a	n/a	n/a
373.5531	0.5167	FIXCROSS	n/a	n/a	n/a	n/a	n/a	n/a	n/a	n/a
374.0697	0.9	COLOR_NAME	44	Incongruent	zielony	green	żółty	yellow	hit	n/a
374.9445	n/a	RESPONSE	n/a	n/a	n/a	n/a	n/a	n/a	n/a	green
374.9697	1.0167	ITI	n/a	n/a	n/a	n/a	n/a	n/a	n/a	n/a
375.9864	0.5167	FIXCROSS	n/a	n/a	n/a	n/a	n/a	n/a	n/a	n/a
376.5031	0.6333	COLOR_NAME	45	Incongruent	zielony	green	niebieski	blue	hit	n/a
377.1041	n/a	RESPONSE	n/a	n/a	n/a	n/a	n/a	n/a	n/a	green
377.1364	1.0167	ITI	n/a	n/a	n/a	n/a	n/a	n/a	n/a	n/a
378.1531	0.5167	FIXCROSS	n/a	n/a	n/a	n/a	n/a	n/a	n/a	n/a
378.6698	0.6833	COLOR_NAME	46	Neutral	czerwony	red	Neutral	Neutral	hit	n/a
379.3276	n/a	RESPONSE	n/a	n/a	n/a	n/a	n/a	n/a	n/a	red
379.3531	1.0167	ITI	n/a	n/a	n/a	n/a	n/a	n/a	n/a	n/a
380.3698	0.5167	FIXCROSS	n/a	n/a	n/a	n/a	n/a	n/a	n/a	n/a
380.8865	0.6833	COLOR_NAME	47	Neutral	niebieski	blue	Neutral	Neutral	hit	n/a
381.5511	n/a	RESPONSE	n/a	n/a	n/a	n/a	n/a	n/a	n/a	blue
381.5698	1.0167	ITI	n/a	n/a	n/a	n/a	n/a	n/a	n/a	n/a
382.5865	0.5167	FIXCROSS	n/a	n/a	n/a	n/a	n/a	n/a	n/a	n/a
383.1031	0.9	COLOR_NAME	48	Incongruent	czerwony	red	żółty	yellow	hit	n/a
383.9826	n/a	RESPONSE	n/a	n/a	n/a	n/a	n/a	n/a	n/a	red
384.0031	1.0167	ITI	n/a	n/a	n/a	n/a	n/a	n/a	n/a	n/a
385.0198	0.5167	FIXCROSS	n/a	n/a	n/a	n/a	n/a	n/a	n/a	n/a
385.5365	0.8333	COLOR_NAME	49	Neutral	żółty	yellow	Neutral	Neutral	hit	n/a
386.3501	n/a	RESPONSE	n/a	n/a	n/a	n/a	n/a	n/a	n/a	yellow
386.3698	1.0167	ITI	n/a	n/a	n/a	n/a	n/a	n/a	n/a	n/a
387.3865	0.5167	FIXCROSS	n/a	n/a	n/a	n/a	n/a	n/a	n/a	n/a
387.9032	0.7167	COLOR_NAME	50	Incongruent	czerwony	red	zielony	green	hit	n/a
388.5896	n/a	RESPONSE	n/a	n/a	n/a	n/a	n/a	n/a	n/a	red
388.6198	1.0167	ITI	n/a	n/a	n/a	n/a	n/a	n/a	n/a	n/a
389.6365	0.5167	FIXCROSS	n/a	n/a	n/a	n/a	n/a	n/a	n/a	n/a
390.1532	0.9333	COLOR_NAME	51	Incongruent	czerwony	red	niebieski	blue	hit	n/a
391.0691	n/a	RESPONSE	n/a	n/a	n/a	n/a	n/a	n/a	n/a	red
391.0865	1.0167	ITI	n/a	n/a	n/a	n/a	n/a	n/a	n/a	n/a
392.1032	0.5167	FIXCROSS	n/a	n/a	n/a	n/a	n/a	n/a	n/a	n/a
392.6199	0.85	COLOR_NAME	52	Neutral	niebieski	blue	Neutral	Neutral	hit	n/a
393.4526	n/a	RESPONSE	n/a	n/a	n/a	n/a	n/a	n/a	n/a	blue
393.4699	1.0167	ITI	n/a	n/a	n/a	n/a	n/a	n/a	n/a	n/a
394.4865	0.5167	FIXCROSS	n/a	n/a	n/a	n/a	n/a	n/a	n/a	n/a
395.0032	0.9333	COLOR_NAME	53	Neutral	żółty	yellow	Neutral	Neutral	hit	n/a
395.9161	n/a	RESPONSE	n/a	n/a	n/a	n/a	n/a	n/a	n/a	yellow
395.9366	1.0167	ITI	n/a	n/a	n/a	n/a	n/a	n/a	n/a	n/a
396.9532	0.5167	FIXCROSS	n/a	n/a	n/a	n/a	n/a	n/a	n/a	n/a
397.4699	1.1167	COLOR_NAME	54	Incongruent	zielony	green	żółty	yellow	hit	n/a
398.5555	n/a	RESPONSE	n/a	n/a	n/a	n/a	n/a	n/a	n/a	green
398.5866	1.0166	ITI	n/a	n/a	n/a	n/a	n/a	n/a	n/a	n/a
399.6032	0.5168	FIXCROSS	n/a	n/a	n/a	n/a	n/a	n/a	n/a	n/a
400.1199	0.6333	COLOR_NAME	55	Neutral	zielony	green	Neutral	Neutral	hit	n/a
400.7311	n/a	RESPONSE	n/a	n/a	n/a	n/a	n/a	n/a	n/a	green
400.7533	1.0167	ITI	n/a	n/a	n/a	n/a	n/a	n/a	n/a	n/a
401.7699	0.5167	FIXCROSS	n/a	n/a	n/a	n/a	n/a	n/a	n/a	n/a
402.2866	0.6333	COLOR_NAME	56	Incongruent	zielony	green	czerwony	red	hit	n/a
402.8906	n/a	RESPONSE	n/a	n/a	n/a	n/a	n/a	n/a	n/a	green
402.9199	1.0167	ITI	n/a	n/a	n/a	n/a	n/a	n/a	n/a	n/a
403.9366	0.5167	FIXCROSS	n/a	n/a	n/a	n/a	n/a	n/a	n/a	n/a
404.4533	0.7667	COLOR_NAME	57	Incongruent	żółty	yellow	zielony	green	hit	n/a
405.1941	n/a	RESPONSE	n/a	n/a	n/a	n/a	n/a	n/a	n/a	yellow
405.2199	1.0167	ITI	n/a	n/a	n/a	n/a	n/a	n/a	n/a	n/a
406.2366	0.5167	FIXCROSS	n/a	n/a	n/a	n/a	n/a	n/a	n/a	n/a
406.7533	0.9167	COLOR_NAME	58	Incongruent	żółty	yellow	czerwony	red	hit	n/a
407.6416	n/a	RESPONSE	n/a	n/a	n/a	n/a	n/a	n/a	n/a	yellow
407.67	1.0167	ITI	n/a	n/a	n/a	n/a	n/a	n/a	n/a	n/a
408.6866	0.5167	FIXCROSS	n/a	n/a	n/a	n/a	n/a	n/a	n/a	n/a
409.2033	0.8667	COLOR_NAME	59	Neutral	zielony	green	Neutral	Neutral	hit	n/a
410.0411	n/a	RESPONSE	n/a	n/a	n/a	n/a	n/a	n/a	n/a	green
410.07	1.0167	ITI	n/a	n/a	n/a	n/a	n/a	n/a	n/a	n/a
411.0867	0.5167	FIXCROSS	n/a	n/a	n/a	n/a	n/a	n/a	n/a	n/a
411.6033	0.8167	COLOR_NAME	60	Neutral	żółty	yellow	Neutral	Neutral	hit	n/a
412.3926	n/a	RESPONSE	n/a	n/a	n/a	n/a	n/a	n/a	n/a	yellow
412.42	1.0167	ITI	n/a	n/a	n/a	n/a	n/a	n/a	n/a	n/a
413.4367	0.5167	FIXCROSS	n/a	n/a	n/a	n/a	n/a	n/a	n/a	n/a
413.9534	0.7667	COLOR_NAME	61	Incongruent	żółty	yellow	czerwony	red	hit	n/a
414.6961	n/a	RESPONSE	n/a	n/a	n/a	n/a	n/a	n/a	n/a	yellow
414.72	1.0167	ITI	n/a	n/a	n/a	n/a	n/a	n/a	n/a	n/a
415.7367	0.5167	FIXCROSS	n/a	n/a	n/a	n/a	n/a	n/a	n/a	n/a
416.2534	0.8	COLOR_NAME	62	Neutral	czerwony	red	Neutral	Neutral	hit	n/a
417.0316	n/a	RESPONSE	n/a	n/a	n/a	n/a	n/a	n/a	n/a	red
417.0534	1.0167	ITI	n/a	n/a	n/a	n/a	n/a	n/a	n/a	n/a
418.07	0.5167	FIXCROSS	n/a	n/a	n/a	n/a	n/a	n/a	n/a	n/a
418.5867	0.7167	COLOR_NAME	63	Incongruent	żółty	yellow	niebieski	blue	hit	n/a
419.2712	n/a	RESPONSE	n/a	n/a	n/a	n/a	n/a	n/a	n/a	yellow
419.3034	1.0167	ITI	n/a	n/a	n/a	n/a	n/a	n/a	n/a	n/a
420.32	0.5167	FIXCROSS	n/a	n/a	n/a	n/a	n/a	n/a	n/a	n/a
420.8367	0.7167	COLOR_NAME	64	Incongruent	czerwony	red	zielony	green	hit	n/a
421.5267	n/a	RESPONSE	n/a	n/a	n/a	n/a	n/a	n/a	n/a	red
421.5534	1.0167	ITI	n/a	n/a	n/a	n/a	n/a	n/a	n/a	n/a
422.5701	0.5167	FIXCROSS	n/a	n/a	n/a	n/a	n/a	n/a	n/a	n/a
423.0867	0.6667	COLOR_NAME	65	Incongruent	czerwony	red	niebieski	blue	hit	n/a
423.7342	n/a	RESPONSE	n/a	n/a	n/a	n/a	n/a	n/a	n/a	red
423.7534	1.0167	ITI	n/a	n/a	n/a	n/a	n/a	n/a	n/a	n/a
424.7701	0.5167	FIXCROSS	n/a	n/a	n/a	n/a	n/a	n/a	n/a	n/a
425.2868	0.8	COLOR_NAME	66	Incongruent	niebieski	blue	żółty	yellow	hit	n/a
426.0537	n/a	RESPONSE	n/a	n/a	n/a	n/a	n/a	n/a	n/a	blue
426.0868	1.0167	ITI	n/a	n/a	n/a	n/a	n/a	n/a	n/a	n/a
427.1034	0.5167	FIXCROSS	n/a	n/a	n/a	n/a	n/a	n/a	n/a	n/a
427.6201	0.8167	COLOR_NAME	67	Incongruent	niebieski	blue	żółty	yellow	hit	n/a
428.4052	n/a	RESPONSE	n/a	n/a	n/a	n/a	n/a	n/a	n/a	blue
428.4368	1.0167	ITI	n/a	n/a	n/a	n/a	n/a	n/a	n/a	n/a
429.4534	0.5167	FIXCROSS	n/a	n/a	n/a	n/a	n/a	n/a	n/a	n/a
429.9701	0.7667	COLOR_NAME	68	Neutral	czerwony	red	Neutral	Neutral	hit	n/a
430.7087	n/a	RESPONSE	n/a	n/a	n/a	n/a	n/a	n/a	n/a	red
430.7368	1.0167	ITI	n/a	n/a	n/a	n/a	n/a	n/a	n/a	n/a
431.7535	0.5167	FIXCROSS	n/a	n/a	n/a	n/a	n/a	n/a	n/a	n/a
432.2701	0.95	COLOR_NAME	69	Incongruent	żółty	yellow	niebieski	blue	hit	n/a
433.1882	n/a	RESPONSE	n/a	n/a	n/a	n/a	n/a	n/a	n/a	yellow
433.2201	1.0167	ITI	n/a	n/a	n/a	n/a	n/a	n/a	n/a	n/a
434.2368	0.5167	FIXCROSS	n/a	n/a	n/a	n/a	n/a	n/a	n/a	n/a
434.7535	0.6667	COLOR_NAME	70	Incongruent	żółty	yellow	czerwony	red	hit	n/a
435.3958	n/a	RESPONSE	n/a	n/a	n/a	n/a	n/a	n/a	n/a	yellow
435.4202	1.0167	ITI	n/a	n/a	n/a	n/a	n/a	n/a	n/a	n/a
436.4368	0.5167	FIXCROSS	n/a	n/a	n/a	n/a	n/a	n/a	n/a	n/a
436.9535	0.6	COLOR_NAME	71	Neutral	żółty	yellow	Neutral	Neutral	hit	n/a
437.5234	n/a	RESPONSE	n/a	n/a	n/a	n/a	n/a	n/a	n/a	yellow
437.5535	1.0167	ITI	n/a	n/a	n/a	n/a	n/a	n/a	n/a	n/a
438.5702	0.5167	FIXCROSS	n/a	n/a	n/a	n/a	n/a	n/a	n/a	n/a
439.0869	0.6333	COLOR_NAME	72	Neutral	czerwony	red	Neutral	Neutral	hit	n/a
439.6989	n/a	RESPONSE	n/a	n/a	n/a	n/a	n/a	n/a	n/a	red
439.7202	1.0333	ITI	n/a	n/a	n/a	n/a	n/a	n/a	n/a	n/a
443.762	n/a	RESPONSE	n/a	n/a	n/a	n/a	n/a	n/a	n/a	n/a
