onset	duration	trial_type	melody_number	melody_part	key	sound	action
0.0	14.082	CUE_START	n/a	n/a	n/a	n/a	n/a
14.083	7.759	FIXCROSS	n/a	n/a	n/a	n/a	n/a
21.842	6.324	CUE_LISTEN	M1	1	n/a	n/a	n/a
28.166	7.758	FIXCROSS	n/a	n/a	n/a	n/a	n/a
35.924	6.317	CUE_PLAYBACK_RIGHT_HAND	M1	1	n/a	n/a	n/a
36.512	n/a	RESPONSE	M1	1	19	G4	press
37.012	n/a	RESPONSE	M1	1	16	E4	press
37.174	n/a	RESPONSE	M1	1	19	G4	release
37.472	n/a	RESPONSE	M1	1	16	E4	release
37.537	n/a	RESPONSE	M1	1	16	E4	press
38.028	n/a	RESPONSE	M1	1	17	F4	press
38.126	n/a	RESPONSE	M1	1	16	E4	release
38.522	n/a	RESPONSE	M1	1	14	D4	press
38.644	n/a	RESPONSE	M1	1	17	F4	release
39.283	n/a	RESPONSE	M1	1	14	D4	release
39.342	n/a	RESPONSE	M1	1	14	D4	press
39.823	n/a	RESPONSE	M1	1	14	D4	release
39.844	n/a	RESPONSE	M1	1	12	C4	press
40.136	n/a	RESPONSE	M1	1	16	E4	press
40.247	n/a	RESPONSE	M1	1	12	C4	release
40.418	n/a	RESPONSE	M1	1	19	G4	press
40.551	n/a	RESPONSE	M1	1	16	E4	release
41.703	n/a	RESPONSE	M1	1	19	G4	release
42.241	7.758	FIXCROSS	n/a	n/a	n/a	n/a	n/a
49.999	6.317	CUE_LISTEN	        M1	2	n/a	n/a	n/a
56.316	7.758	FIXCROSS	n/a	n/a	n/a	n/a	n/a
64.074	6.325	CUE_PLAYBACK_RIGHT_HAND	        M1	2	n/a	n/a	n/a
64.484	n/a	RESPONSE	        M1	2	19	G4	press
64.977	n/a	RESPONSE	        M1	2	16	E4	press
65.057	n/a	RESPONSE	        M1	2	19	G4	release
65.381	n/a	RESPONSE	        M1	2	16	E4	release
65.462	n/a	RESPONSE	        M1	2	16	E4	press
65.941	n/a	RESPONSE	        M1	2	17	F4	press
66.037	n/a	RESPONSE	        M1	2	16	E4	release
66.422	n/a	RESPONSE	        M1	2	14	D4	press
66.498	n/a	RESPONSE	        M1	2	17	F4	release
66.84	n/a	RESPONSE	        M1	2	14	D4	release
66.883	n/a	RESPONSE	        M1	2	14	D4	press
67.382	n/a	RESPONSE	        M1	2	12	C4	press
67.636	n/a	RESPONSE	        M1	2	16	E4	press
67.647	n/a	RESPONSE	        M1	2	14	D4	release
67.736	n/a	RESPONSE	        M1	2	12	C4	release
67.884	n/a	RESPONSE	        M1	2	12	C4	press
67.973	n/a	RESPONSE	        M1	2	16	E4	release
68.738	n/a	RESPONSE	        M1	2	12	C4	release
70.399	7.758	FIXCROSS	n/a	n/a	n/a	n/a	n/a
78.158	6.317	CUE_LISTEN	        M7	1	n/a	n/a	n/a
84.474	7.758	FIXCROSS	n/a	n/a	n/a	n/a	n/a
92.233	6.317	CUE_PLAYBACK_BOTH_HANDS	        M7	1	n/a	n/a	n/a
92.79	n/a	RESPONSE	        M7	1	07	G3	press
92.809	n/a	RESPONSE	        M7	1	22	A#4	press
93.411	n/a	RESPONSE	        M7	1	21	A4	press
93.532	n/a	RESPONSE	        M7	1	22	A#4	release
94.003	n/a	RESPONSE	        M7	1	19	G4	press
94.074	n/a	RESPONSE	        M7	1	21	A4	release
94.576	n/a	RESPONSE	        M7	1	05	F3	press
94.587	n/a	RESPONSE	        M7	1	21	A4	press
94.668	n/a	RESPONSE	        M7	1	07	G3	release
94.671	n/a	RESPONSE	        M7	1	19	G4	release
95.272	n/a	RESPONSE	        M7	1	14	D4	press
95.352	n/a	RESPONSE	        M7	1	21	A4	release
95.814	n/a	RESPONSE	        M7	1	14	D4	release
95.877	n/a	RESPONSE	        M7	1	14	D4	press
96.443	n/a	RESPONSE	        M7	1	19	G4	press
96.461	n/a	RESPONSE	        M7	1	03	D#3	press
96.488	n/a	RESPONSE	        M7	1	05	F3	release
96.521	n/a	RESPONSE	        M7	1	14	D4	release
97.096	n/a	RESPONSE	        M7	1	07	G3	press
97.172	n/a	RESPONSE	        M7	1	19	G4	release
97.451	n/a	RESPONSE	        M7	1	09	A3	press
97.66	n/a	RESPONSE	        M7	1	07	G3	release
97.936	n/a	RESPONSE	        M7	1	08	G#3	press
98.141	n/a	RESPONSE	        M7	1	09	A3	release
98.242	n/a	RESPONSE	        M7	1	08	G#3	release
98.332	n/a	RESPONSE	        M7	1	10	A#3	press
98.55	7.758	FIXCROSS	n/a	n/a	n/a	n/a	n/a
98.711	n/a	RESPONSE	        M7	1	10	A#3	release
98.724	n/a	RESPONSE	        M7	1	11	B3	press
98.837	n/a	RESPONSE	        M7	1	03	D#3	release
98.904	n/a	RESPONSE	        M7	1	11	B3	release
106.308	6.325	CUE_LISTEN	        M7	2	n/a	n/a	n/a
112.633	7.758	FIXCROSS	n/a	n/a	n/a	n/a	n/a
120.391	6.317	CUE_PLAYBACK_BOTH_HANDS	        M7	2	n/a	n/a	n/a
120.712	n/a	RESPONSE	        M7	2	07	G3	press
120.723	n/a	RESPONSE	        M7	2	15	D#4	press
120.744	n/a	RESPONSE	        M7	2	10	A#3	press
121.456	n/a	RESPONSE	        M7	2	10	A#3	release
121.477	n/a	RESPONSE	        M7	2	15	D#4	release
121.508	n/a	RESPONSE	        M7	2	07	G3	release
122.319	n/a	RESPONSE	        M7	2	07	G3	press
122.341	n/a	RESPONSE	        M7	2	15	D#4	press
122.343	n/a	RESPONSE	        M7	2	10	A#3	press
122.833	n/a	RESPONSE	        M7	2	17	F4	press
122.947	n/a	RESPONSE	        M7	2	15	D#4	release
123.107	n/a	RESPONSE	        M7	2	15	D#4	press
123.207	n/a	RESPONSE	        M7	2	17	F4	release
123.258	n/a	RESPONSE	        M7	2	10	A#3	release
123.33	n/a	RESPONSE	        M7	2	09	A3	press
123.391	n/a	RESPONSE	        M7	2	14	D4	press
123.563	n/a	RESPONSE	        M7	2	15	D#4	release
123.723	n/a	RESPONSE	        M7	2	12	C4	press
123.836	n/a	RESPONSE	        M7	2	14	D4	release
123.947	n/a	RESPONSE	        M7	2	07	G3	release
123.987	n/a	RESPONSE	        M7	2	14	D4	press
123.998	n/a	RESPONSE	        M7	2	10	A#3	press
124.041	n/a	RESPONSE	        M7	2	09	A3	release
124.061	n/a	RESPONSE	        M7	2	12	C4	release
124.492	n/a	RESPONSE	        M7	2	15	D#4	press
124.623	n/a	RESPONSE	        M7	2	14	D4	release
124.744	n/a	RESPONSE	        M7	2	14	D4	press
124.977	n/a	RESPONSE	        M7	2	15	D#4	release
124.987	n/a	RESPONSE	        M7	2	07	G3	press
125.021	n/a	RESPONSE	        M7	2	12	C4	press
125.039	n/a	RESPONSE	        M7	2	10	A#3	release
125.111	n/a	RESPONSE	        M7	2	14	D4	release
125.303	n/a	RESPONSE	        M7	2	10	A#3	press
125.413	n/a	RESPONSE	        M7	2	12	C4	release
125.557	n/a	RESPONSE	        M7	2	09	A3	press
125.566	n/a	RESPONSE	        M7	2	12	C4	press
125.627	n/a	RESPONSE	        M7	2	07	G3	release
125.638	n/a	RESPONSE	        M7	2	10	A#3	release
126.097	n/a	RESPONSE	        M7	2	14	D4	press
126.103	n/a	RESPONSE	        M7	2	06	F#3	press
126.208	n/a	RESPONSE	        M7	2	09	A3	release
126.348	n/a	RESPONSE	        M7	2	12	C4	release
126.516	n/a	RESPONSE	        M7	2	12	C4	press
126.603	n/a	RESPONSE	        M7	2	14	D4	release
126.708	7.758	FIXCROSS	n/a	n/a	n/a	n/a	n/a
126.852	n/a	RESPONSE	        M7	2	10	A#3	press
126.86	n/a	RESPONSE	        M7	2	07	G3	press
126.968	n/a	RESPONSE	        M7	2	06	F#3	release
126.971	n/a	RESPONSE	        M7	2	12	C4	release
127.157	n/a	RESPONSE	        M7	2	10	A#3	release
127.243	n/a	RESPONSE	        M7	2	07	G3	release
134.466	6.317	CUE_LISTEN	        M5	1	n/a	n/a	n/a
140.783	7.758	FIXCROSS	n/a	n/a	n/a	n/a	n/a
148.541	6.325	CUE_PLAYBACK_RIGHT_HAND	        M5	1	n/a	n/a	n/a
148.978	n/a	RESPONSE	        M5	1	21	A4	press
149.207	n/a	RESPONSE	        M5	1	21	A4	release
149.303	n/a	RESPONSE	        M5	1	21	A4	press
149.556	n/a	RESPONSE	        M5	1	21	A4	release
149.636	n/a	RESPONSE	        M5	1	21	A4	press
150.138	n/a	RESPONSE	        M5	1	21	A4	release
150.298	n/a	RESPONSE	        M5	1	21	A4	press
150.569	n/a	RESPONSE	        M5	1	21	A4	release
150.641	n/a	RESPONSE	        M5	1	21	A4	press
150.892	n/a	RESPONSE	        M5	1	21	A4	release
150.996	n/a	RESPONSE	        M5	1	21	A4	press
151.416	n/a	RESPONSE	        M5	1	21	A4	release
151.637	n/a	RESPONSE	        M5	1	21	A4	press
151.937	n/a	RESPONSE	        M5	1	24	C5	press
152.078	n/a	RESPONSE	        M5	1	21	A4	release
152.279	n/a	RESPONSE	        M5	1	16	E4	press
152.341	n/a	RESPONSE	        M5	1	17	F4	press
152.422	n/a	RESPONSE	        M5	1	24	C5	release
152.663	n/a	RESPONSE	        M5	1	16	E4	release
152.666	n/a	RESPONSE	        M5	1	19	G4	press
152.926	n/a	RESPONSE	        M5	1	17	F4	release
152.997	n/a	RESPONSE	        M5	1	21	A4	press
153.168	n/a	RESPONSE	        M5	1	19	G4	release
154.089	n/a	RESPONSE	        M5	1	21	A4	release
154.866	7.758	FIXCROSS	n/a	n/a	n/a	n/a	n/a
162.625	6.317	CUE_LISTEN	        M5	2	n/a	n/a	n/a
168.941	7.758	FIXCROSS	n/a	n/a	n/a	n/a	n/a
176.7	6.317	CUE_PLAYBACK_RIGHT_HAND	        M5	2	n/a	n/a	n/a
177.064	n/a	RESPONSE	        M5	2	22	A#4	press
177.317	n/a	RESPONSE	        M5	2	22	A#4	release
177.397	n/a	RESPONSE	        M5	2	22	A#4	press
177.602	n/a	RESPONSE	        M5	2	22	A#4	release
177.697	n/a	RESPONSE	        M5	2	22	A#4	press
177.922	n/a	RESPONSE	        M5	2	22	A#4	release
178.024	n/a	RESPONSE	        M5	2	22	A#4	press
178.221	n/a	RESPONSE	        M5	2	22	A#4	release
178.363	n/a	RESPONSE	        M5	2	22	A#4	press
178.677	n/a	RESPONSE	        M5	2	21	A4	press
178.777	n/a	RESPONSE	        M5	2	22	A#4	release
178.884	n/a	RESPONSE	        M5	2	21	A4	release
178.999	n/a	RESPONSE	        M5	2	21	A4	press
179.251	n/a	RESPONSE	        M5	2	21	A4	release
179.339	n/a	RESPONSE	        M5	2	21	A4	press
179.661	n/a	RESPONSE	        M5	2	24	C5	press
179.792	n/a	RESPONSE	        M5	2	21	A4	release
179.893	n/a	RESPONSE	        M5	2	24	C5	release
179.984	n/a	RESPONSE	        M5	2	24	C5	press
180.307	n/a	RESPONSE	        M5	2	22	A#4	press
180.637	n/a	RESPONSE	        M5	2	19	G4	press
180.698	n/a	RESPONSE	        M5	2	22	A#4	release
180.729	n/a	RESPONSE	        M5	2	24	C5	release
180.963	n/a	RESPONSE	        M5	2	17	F4	press
181.032	n/a	RESPONSE	        M5	2	19	G4	release
181.873	n/a	RESPONSE	        M5	2	17	F4	release
183.016	7.758	FIXCROSS	n/a	n/a	n/a	n/a	n/a
190.775	6.325	CUE_LISTEN	        M3	1	n/a	n/a	n/a
197.1	7.758	FIXCROSS	n/a	n/a	n/a	n/a	n/a
204.858	6.317	CUE_PLAYBACK_BOTH_HANDS	        M3	1	n/a	n/a	n/a
205.386	n/a	RESPONSE	        M3	1	00	C3	press
205.388	n/a	RESPONSE	        M3	1	12	C4	press
205.767	n/a	RESPONSE	        M3	1	14	D4	press
205.769	n/a	RESPONSE	        M3	1	07	G3	press
205.936	n/a	RESPONSE	        M3	1	00	C3	release
205.943	n/a	RESPONSE	        M3	1	12	C4	release
206.157	n/a	RESPONSE	        M3	1	16	E4	press
206.159	n/a	RESPONSE	        M3	1	04	E3	press
206.248	n/a	RESPONSE	        M3	1	14	D4	release
206.258	n/a	RESPONSE	        M3	1	07	G3	release
206.561	n/a	RESPONSE	        M3	1	12	C4	press
206.563	n/a	RESPONSE	        M3	1	07	G3	press
206.627	n/a	RESPONSE	        M3	1	16	E4	release
206.659	n/a	RESPONSE	        M3	1	04	E3	release
206.899	n/a	RESPONSE	        M3	1	12	C4	release
206.969	n/a	RESPONSE	        M3	1	00	C3	press
206.978	n/a	RESPONSE	        M3	1	12	C4	press
207.012	n/a	RESPONSE	        M3	1	07	G3	release
207.381	n/a	RESPONSE	        M3	1	07	G3	press
207.393	n/a	RESPONSE	        M3	1	14	D4	press
207.463	n/a	RESPONSE	        M3	1	00	C3	release
207.509	n/a	RESPONSE	        M3	1	12	C4	release
207.773	n/a	RESPONSE	        M3	1	16	E4	press
207.776	n/a	RESPONSE	        M3	1	04	E3	press
207.857	n/a	RESPONSE	        M3	1	07	G3	release
207.891	n/a	RESPONSE	        M3	1	14	D4	release
208.182	n/a	RESPONSE	        M3	1	07	G3	press
208.187	n/a	RESPONSE	        M3	1	12	C4	press
208.257	n/a	RESPONSE	        M3	1	16	E4	release
208.283	n/a	RESPONSE	        M3	1	04	E3	release
208.592	n/a	RESPONSE	        M3	1	00	C3	press
208.594	n/a	RESPONSE	        M3	1	16	E4	press
208.674	n/a	RESPONSE	        M3	1	07	G3	release
208.686	n/a	RESPONSE	        M3	1	12	C4	release
208.979	n/a	RESPONSE	        M3	1	17	F4	press
208.987	n/a	RESPONSE	        M3	1	07	G3	press
209.112	n/a	RESPONSE	        M3	1	16	E4	release
209.119	n/a	RESPONSE	        M3	1	00	C3	release
209.372	n/a	RESPONSE	        M3	1	00	C3	press
209.383	n/a	RESPONSE	        M3	1	19	G4	press
209.447	n/a	RESPONSE	        M3	1	07	G3	release
209.468	n/a	RESPONSE	        M3	1	17	F4	release
209.747	n/a	RESPONSE	        M3	1	07	G3	press
209.898	n/a	RESPONSE	        M3	1	00	C3	release
210.139	n/a	RESPONSE	        M3	1	00	C3	press
210.171	n/a	RESPONSE	        M3	1	16	E4	press
210.184	n/a	RESPONSE	        M3	1	07	G3	release
210.233	n/a	RESPONSE	        M3	1	19	G4	release
210.504	n/a	RESPONSE	        M3	1	07	G3	press
210.527	n/a	RESPONSE	        M3	1	17	F4	press
210.577	n/a	RESPONSE	        M3	1	00	C3	release
210.621	n/a	RESPONSE	        M3	1	16	E4	release
210.889	n/a	RESPONSE	        M3	1	04	E3	press
210.921	n/a	RESPONSE	        M3	1	19	G4	press
210.952	n/a	RESPONSE	        M3	1	07	G3	release
211.004	n/a	RESPONSE	        M3	1	17	F4	release
211.175	7.758	FIXCROSS	n/a	n/a	n/a	n/a	n/a
211.264	n/a	RESPONSE	        M3	1	07	G3	press
211.366	n/a	RESPONSE	        M3	1	04	E3	release
211.537	n/a	RESPONSE	        M3	1	19	G4	release
211.788	n/a	RESPONSE	        M3	1	07	G3	release
218.933	6.317	CUE_LISTEN	        M3	2	n/a	n/a	n/a
225.25	7.758	FIXCROSS	n/a	n/a	n/a	n/a	n/a
233.008	6.325	CUE_PLAYBACK_BOTH_HANDS	        M3	2	n/a	n/a	n/a
233.371	n/a	RESPONSE	        M3	2	00	C3	press
233.389	n/a	RESPONSE	        M3	2	19	G4	press
233.651	n/a	RESPONSE	        M3	2	21	A4	press
233.744	n/a	RESPONSE	        M3	2	19	G4	release
233.833	n/a	RESPONSE	        M3	2	07	G3	press
233.854	n/a	RESPONSE	        M3	2	19	G4	press
233.978	n/a	RESPONSE	        M3	2	21	A4	release
234.037	n/a	RESPONSE	        M3	2	00	C3	release
234.078	n/a	RESPONSE	        M3	2	17	F4	press
234.209	n/a	RESPONSE	        M3	2	19	G4	release
234.292	n/a	RESPONSE	        M3	2	04	E3	press
234.332	n/a	RESPONSE	        M3	2	16	E4	press
234.363	n/a	RESPONSE	        M3	2	07	G3	release
234.524	n/a	RESPONSE	        M3	2	17	F4	release
234.766	n/a	RESPONSE	        M3	2	07	G3	press
234.798	n/a	RESPONSE	        M3	2	12	C4	press
234.808	n/a	RESPONSE	        M3	2	14	D4	press
234.822	n/a	RESPONSE	        M3	2	04	E3	release
234.891	n/a	RESPONSE	        M3	2	16	E4	release
235.142	n/a	RESPONSE	        M3	2	14	D4	release
235.203	n/a	RESPONSE	        M3	2	19	G4	press
235.224	n/a	RESPONSE	        M3	2	12	C4	release
235.227	n/a	RESPONSE	        M3	2	00	C3	press
235.257	n/a	RESPONSE	        M3	2	07	G3	release
235.408	n/a	RESPONSE	        M3	2	21	A4	press
235.489	n/a	RESPONSE	        M3	2	19	G4	release
235.623	n/a	RESPONSE	        M3	2	19	G4	press
235.633	n/a	RESPONSE	        M3	2	07	G3	press
235.723	n/a	RESPONSE	        M3	2	21	A4	release
235.764	n/a	RESPONSE	        M3	2	00	C3	release
235.836	n/a	RESPONSE	        M3	2	17	F4	press
235.988	n/a	RESPONSE	        M3	2	19	G4	release
236.038	n/a	RESPONSE	        M3	2	04	E3	press
236.068	n/a	RESPONSE	        M3	2	16	E4	press
236.106	n/a	RESPONSE	        M3	2	07	G3	release
236.367	n/a	RESPONSE	        M3	2	17	F4	release
236.463	n/a	RESPONSE	        M3	2	07	G3	press
236.489	n/a	RESPONSE	        M3	2	12	C4	press
236.529	n/a	RESPONSE	        M3	2	04	E3	release
236.671	n/a	RESPONSE	        M3	2	16	E4	release
236.792	n/a	RESPONSE	        M3	2	12	C4	release
236.883	n/a	RESPONSE	        M3	2	00	C3	press
236.886	n/a	RESPONSE	        M3	2	07	G3	release
236.888	n/a	RESPONSE	        M3	2	12	C4	press
237.282	n/a	RESPONSE	        M3	2	07	G3	press
237.359	n/a	RESPONSE	        M3	2	00	C3	release
237.464	n/a	RESPONSE	        M3	2	12	C4	release
237.686	n/a	RESPONSE	        M3	2	12	C4	press
237.688	n/a	RESPONSE	        M3	2	00	C3	press
237.747	n/a	RESPONSE	        M3	2	07	G3	release
238.367	n/a	RESPONSE	        M3	2	00	C3	release
238.379	n/a	RESPONSE	        M3	2	12	C4	release
238.492	n/a	RESPONSE	        M3	2	12	C4	press
238.499	n/a	RESPONSE	        M3	2	00	C3	press
238.892	n/a	RESPONSE	        M3	2	07	G3	press
238.996	n/a	RESPONSE	        M3	2	00	C3	release
239.064	n/a	RESPONSE	        M3	2	12	C4	release
239.268	n/a	RESPONSE	        M3	2	12	C4	press
239.289	n/a	RESPONSE	        M3	2	00	C3	press
239.333	7.758	FIXCROSS	n/a	n/a	n/a	n/a	n/a
239.363	n/a	RESPONSE	        M3	2	07	G3	release
240.092	n/a	RESPONSE	        M3	2	00	C3	release
240.133	n/a	RESPONSE	        M3	2	12	C4	release
247.092	6.317	CUE_LISTEN	        M6	1	n/a	n/a	n/a
253.408	7.758	FIXCROSS	n/a	n/a	n/a	n/a	n/a
261.167	6.325	CUE_PLAYBACK_BOTH_HANDS	        M6	1	n/a	n/a	n/a
261.504	n/a	RESPONSE	        M6	1	04	E3	press
261.533	n/a	RESPONSE	        M6	1	16	E4	press
261.854	n/a	RESPONSE	        M6	1	19	G4	press
261.866	n/a	RESPONSE	        M6	1	11	B3	press
261.947	n/a	RESPONSE	        M6	1	16	E4	release
261.998	n/a	RESPONSE	        M6	1	18	F#4	press
262.032	n/a	RESPONSE	        M6	1	04	E3	release
262.072	n/a	RESPONSE	        M6	1	19	G4	release
262.173	n/a	RESPONSE	        M6	1	19	G4	press
262.193	n/a	RESPONSE	        M6	1	07	G3	press
262.214	n/a	RESPONSE	        M6	1	16	E4	press
262.296	n/a	RESPONSE	        M6	1	11	B3	release
262.357	n/a	RESPONSE	        M6	1	18	F#4	release
262.508	n/a	RESPONSE	        M6	1	23	B4	press
262.579	n/a	RESPONSE	        M6	1	11	B3	press
262.681	n/a	RESPONSE	        M6	1	16	E4	release
262.692	n/a	RESPONSE	        M6	1	19	G4	release
262.703	n/a	RESPONSE	        M6	1	24	C5	press
262.717	n/a	RESPONSE	        M6	1	07	G3	release
262.787	n/a	RESPONSE	        M6	1	23	B4	release
262.887	n/a	RESPONSE	        M6	1	23	B4	press
262.908	n/a	RESPONSE	        M6	1	04	E3	press
262.919	n/a	RESPONSE	        M6	1	16	E4	press
262.971	n/a	RESPONSE	        M6	1	11	B3	release
262.982	n/a	RESPONSE	        M6	1	24	C5	release
263.283	n/a	RESPONSE	        M6	1	11	B3	press
263.374	n/a	RESPONSE	        M6	1	04	E3	release
263.377	n/a	RESPONSE	        M6	1	16	E4	release
263.637	n/a	RESPONSE	        M6	1	07	G3	press
263.648	n/a	RESPONSE	        M6	1	16	E4	press
263.709	n/a	RESPONSE	        M6	1	11	B3	release
264.011	n/a	RESPONSE	        M6	1	11	B3	press
264.074	n/a	RESPONSE	        M6	1	16	E4	release
264.123	n/a	RESPONSE	        M6	1	07	G3	release
264.367	n/a	RESPONSE	        M6	1	02	D3	press
264.376	n/a	RESPONSE	        M6	1	14	D4	press
264.477	n/a	RESPONSE	        M6	1	11	B3	release
264.488	n/a	RESPONSE	        M6	1	23	B4	release
264.729	n/a	RESPONSE	        M6	1	18	F#4	press
264.733	n/a	RESPONSE	        M6	1	11	B3	press
264.802	n/a	RESPONSE	        M6	1	02	D3	release
264.853	n/a	RESPONSE	        M6	1	14	D4	release
264.884	n/a	RESPONSE	        M6	1	16	E4	press
264.996	n/a	RESPONSE	        M6	1	18	F#4	release
265.089	n/a	RESPONSE	        M6	1	07	G3	press
265.098	n/a	RESPONSE	        M6	1	14	D4	press
265.101	n/a	RESPONSE	        M6	1	18	F#4	press
265.151	n/a	RESPONSE	        M6	1	11	B3	release
265.183	n/a	RESPONSE	        M6	1	16	E4	release
265.456	n/a	RESPONSE	        M6	1	19	G4	press
265.474	n/a	RESPONSE	        M6	1	11	B3	press
265.566	n/a	RESPONSE	        M6	1	07	G3	release
265.569	n/a	RESPONSE	        M6	1	18	F#4	release
265.649	n/a	RESPONSE	        M6	1	21	A4	press
265.652	n/a	RESPONSE	        M6	1	14	D4	release
265.744	n/a	RESPONSE	        M6	1	19	G4	release
265.819	n/a	RESPONSE	        M6	1	19	G4	press
265.843	n/a	RESPONSE	        M6	1	14	D4	press
265.847	n/a	RESPONSE	        M6	1	02	D3	press
265.857	n/a	RESPONSE	        M6	1	04	E3	press
265.917	n/a	RESPONSE	        M6	1	11	B3	release
265.919	n/a	RESPONSE	        M6	1	21	A4	release
266.171	n/a	RESPONSE	        M6	1	11	B3	press
266.212	n/a	RESPONSE	        M6	1	02	D3	release
266.214	n/a	RESPONSE	        M6	1	04	E3	release
266.311	n/a	RESPONSE	        M6	1	14	D4	release
266.528	n/a	RESPONSE	        M6	1	04	E3	press
266.549	n/a	RESPONSE	        M6	1	14	D4	press
266.623	n/a	RESPONSE	        M6	1	11	B3	release
266.903	n/a	RESPONSE	        M6	1	11	B3	press
266.964	n/a	RESPONSE	        M6	1	04	E3	release
267.052	n/a	RESPONSE	        M6	1	14	D4	release
267.268	n/a	RESPONSE	        M6	1	19	G4	release
267.492	7.758	FIXCROSS	n/a	n/a	n/a	n/a	n/a
267.769	n/a	RESPONSE	        M6	1	11	B3	release
275.25	6.317	CUE_LISTEN	        M6	2	n/a	n/a	n/a
281.567	7.758	FIXCROSS	n/a	n/a	n/a	n/a	n/a
289.325	6.325	CUE_PLAYBACK_BOTH_HANDS	        M6	2	n/a	n/a	n/a
289.734	n/a	RESPONSE	        M6	2	23	B4	press
289.737	n/a	RESPONSE	        M6	2	02	D3	press
289.767	n/a	RESPONSE	        M6	2	14	D4	press
290.111	n/a	RESPONSE	        M6	2	11	B3	press
290.189	n/a	RESPONSE	        M6	2	14	D4	release
290.253	n/a	RESPONSE	        M6	2	02	D3	release
290.502	n/a	RESPONSE	        M6	2	06	F#3	press
290.513	n/a	RESPONSE	        M6	2	14	D4	press
290.574	n/a	RESPONSE	        M6	2	11	B3	release
290.826	n/a	RESPONSE	        M6	2	18	F#4	press
290.849	n/a	RESPONSE	        M6	2	11	B3	press
290.868	n/a	RESPONSE	        M6	2	23	B4	release
290.899	n/a	RESPONSE	        M6	2	14	D4	release
290.951	n/a	RESPONSE	        M6	2	06	F#3	release
291.212	n/a	RESPONSE	        M6	2	14	D4	press
291.214	n/a	RESPONSE	        M6	2	02	D3	press
291.274	n/a	RESPONSE	        M6	2	11	B3	release
291.576	n/a	RESPONSE	        M6	2	11	B3	press
291.677	n/a	RESPONSE	        M6	2	14	D4	release
291.691	n/a	RESPONSE	        M6	2	02	D3	release
291.959	n/a	RESPONSE	        M6	2	14	D4	press
291.97	n/a	RESPONSE	        M6	2	06	F#3	press
292.023	n/a	RESPONSE	        M6	2	11	B3	release
292.326	n/a	RESPONSE	        M6	2	11	B3	press
292.474	n/a	RESPONSE	        M6	2	14	D4	release
292.548	n/a	RESPONSE	        M6	2	06	F#3	release
292.677	n/a	RESPONSE	        M6	2	23	B4	press
292.688	n/a	RESPONSE	        M6	2	14	D4	press
292.691	n/a	RESPONSE	        M6	2	02	D3	press
292.723	n/a	RESPONSE	        M6	2	11	B3	release
292.734	n/a	RESPONSE	        M6	2	18	F#4	release
293.043	n/a	RESPONSE	        M6	2	09	A3	press
293.127	n/a	RESPONSE	        M6	2	02	D3	release
293.196	n/a	RESPONSE	        M6	2	14	D4	release
293.397	n/a	RESPONSE	        M6	2	06	F#3	press
293.408	n/a	RESPONSE	        M6	2	14	D4	press
293.521	n/a	RESPONSE	        M6	2	09	A3	release
293.741	n/a	RESPONSE	        M6	2	09	A3	press
293.752	n/a	RESPONSE	        M6	2	21	A4	press
293.833	n/a	RESPONSE	        M6	2	14	D4	release
293.854	n/a	RESPONSE	        M6	2	23	B4	release
293.866	n/a	RESPONSE	        M6	2	06	F#3	release
294.118	n/a	RESPONSE	        M6	2	02	D3	press
294.121	n/a	RESPONSE	        M6	2	14	D4	press
294.211	n/a	RESPONSE	        M6	2	09	A3	release
294.464	n/a	RESPONSE	        M6	2	09	A3	press
294.523	n/a	RESPONSE	        M6	2	02	D3	release
294.617	n/a	RESPONSE	        M6	2	14	D4	release
294.856	n/a	RESPONSE	        M6	2	06	F#3	press
294.858	n/a	RESPONSE	        M6	2	14	D4	press
294.918	n/a	RESPONSE	        M6	2	09	A3	release
295.199	n/a	RESPONSE	        M6	2	09	A3	press
295.291	n/a	RESPONSE	        M6	2	14	D4	release
295.322	n/a	RESPONSE	        M6	2	06	F#3	release
295.65	7.758	FIXCROSS	n/a	n/a	n/a	n/a	n/a
295.723	n/a	RESPONSE	        M6	2	21	A4	release
296.203	n/a	RESPONSE	        M6	2	09	A3	release
303.408	6.317	CUE_LISTEN	        M2	1	n/a	n/a	n/a
309.725	7.758	FIXCROSS	n/a	n/a	n/a	n/a	n/a
317.483	6.317	CUE_PLAYBACK_RIGHT_HAND	        M2	1	n/a	n/a	n/a
317.831	n/a	RESPONSE	        M2	1	24	C5	press
318.187	n/a	RESPONSE	        M2	1	19	G4	press
318.379	n/a	RESPONSE	        M2	1	24	C5	release
318.466	n/a	RESPONSE	        M2	1	19	G4	release
318.528	n/a	RESPONSE	        M2	1	19	G4	press
318.881	n/a	RESPONSE	        M2	1	17	F4	press
319.002	n/a	RESPONSE	        M2	1	19	G4	release
319.246	n/a	RESPONSE	        M2	1	16	E4	press
319.411	n/a	RESPONSE	        M2	1	17	F4	release
319.601	n/a	RESPONSE	        M2	1	17	F4	press
319.692	n/a	RESPONSE	        M2	1	16	E4	release
319.923	n/a	RESPONSE	        M2	1	19	G4	press
320.004	n/a	RESPONSE	        M2	1	17	F4	release
320.606	n/a	RESPONSE	        M2	1	24	C5	press
320.637	n/a	RESPONSE	        M2	1	19	G4	release
320.968	n/a	RESPONSE	        M2	1	19	G4	press
321.059	n/a	RESPONSE	        M2	1	24	C5	release
321.22	n/a	RESPONSE	        M2	1	19	G4	release
321.332	n/a	RESPONSE	        M2	1	19	G4	press
321.673	n/a	RESPONSE	        M2	1	17	F4	press
321.786	n/a	RESPONSE	        M2	1	19	G4	release
322.036	n/a	RESPONSE	        M2	1	16	E4	press
322.137	n/a	RESPONSE	        M2	1	17	F4	release
322.388	n/a	RESPONSE	        M2	1	14	D4	press
322.499	n/a	RESPONSE	        M2	1	16	E4	release
322.751	n/a	RESPONSE	        M2	1	12	C4	press
322.863	n/a	RESPONSE	        M2	1	14	D4	release
323.8	7.758	FIXCROSS	n/a	n/a	n/a	n/a	n/a
323.816	n/a	RESPONSE	        M2	1	12	C4	release
331.558	6.317	CUE_LISTEN	        M2	2	n/a	n/a	n/a
337.875	7.758	FIXCROSS	n/a	n/a	n/a	n/a	n/a
345.633	6.325	CUE_PLAYBACK_RIGHT_HAND	        M2	2	n/a	n/a	n/a
346.018	n/a	RESPONSE	        M2	2	12	C4	press
346.361	n/a	RESPONSE	        M2	2	14	D4	press
346.522	n/a	RESPONSE	        M2	2	12	C4	release
346.736	n/a	RESPONSE	        M2	2	16	E4	press
346.809	n/a	RESPONSE	        M2	2	14	D4	release
347.091	n/a	RESPONSE	        M2	2	14	D4	press
347.163	n/a	RESPONSE	        M2	2	16	E4	release
347.483	n/a	RESPONSE	        M2	2	16	E4	press
347.586	n/a	RESPONSE	        M2	2	14	D4	release
347.826	n/a	RESPONSE	        M2	2	17	F4	press
348.033	n/a	RESPONSE	        M2	2	16	E4	release
348.226	n/a	RESPONSE	        M2	2	19	G4	press
348.416	n/a	RESPONSE	        M2	2	17	F4	release
348.933	n/a	RESPONSE	        M2	2	16	E4	press
349.049	n/a	RESPONSE	        M2	2	19	G4	release
349.303	n/a	RESPONSE	        M2	2	19	G4	press
349.386	n/a	RESPONSE	        M2	2	16	E4	release
349.537	n/a	RESPONSE	        M2	2	19	G4	release
349.647	n/a	RESPONSE	        M2	2	19	G4	press
350.008	n/a	RESPONSE	        M2	2	17	F4	press
350.139	n/a	RESPONSE	        M2	2	19	G4	release
350.371	n/a	RESPONSE	        M2	2	16	E4	press
350.482	n/a	RESPONSE	        M2	2	17	F4	release
350.706	n/a	RESPONSE	        M2	2	14	D4	press
350.824	n/a	RESPONSE	        M2	2	16	E4	release
351.096	n/a	RESPONSE	        M2	2	12	C4	press
351.178	n/a	RESPONSE	        M2	2	14	D4	release
351.958	7.758	FIXCROSS	n/a	n/a	n/a	n/a	n/a
352.228	n/a	RESPONSE	        M2	2	12	C4	release
359.717	6.317	CUE_LISTEN	        M8	1	n/a	n/a	n/a
366.033	7.758	FIXCROSS	n/a	n/a	n/a	n/a	n/a
373.792	6.317	CUE_PLAYBACK_RIGHT_HAND	        M8	1	n/a	n/a	n/a
374.178	n/a	RESPONSE	        M8	1	16	E4	press
374.428	n/a	RESPONSE	        M8	1	19	G4	press
374.72	n/a	RESPONSE	        M8	1	16	E4	release
374.73	n/a	RESPONSE	        M8	1	23	B4	press
374.842	n/a	RESPONSE	        M8	1	19	G4	release
375.123	n/a	RESPONSE	        M8	1	23	B4	release
375.237	n/a	RESPONSE	        M8	1	23	B4	press
375.763	n/a	RESPONSE	        M8	1	18	F#4	press
375.873	n/a	RESPONSE	        M8	1	23	B4	release
376.256	n/a	RESPONSE	        M8	1	23	B4	press
376.546	n/a	RESPONSE	        M8	1	18	F#4	release
376.658	n/a	RESPONSE	        M8	1	23	B4	release
377.55	n/a	RESPONSE	        M8	1	23	B4	press
378.247	n/a	RESPONSE	        M8	1	21	A4	press
378.463	n/a	RESPONSE	        M8	1	23	B4	release
378.504	n/a	RESPONSE	        M8	1	19	G4	press
378.772	n/a	RESPONSE	        M8	1	18	F#4	press
378.93	n/a	RESPONSE	        M8	1	21	A4	release
379.16	n/a	RESPONSE	        M8	1	16	E4	press
379.172	n/a	RESPONSE	        M8	1	19	G4	release
379.233	n/a	RESPONSE	        M8	1	18	F#4	release
379.634	n/a	RESPONSE	        M8	1	23	B4	press
379.726	n/a	RESPONSE	        M8	1	16	E4	release
380.108	7.758	FIXCROSS	n/a	n/a	n/a	n/a	n/a
380.977	n/a	RESPONSE	        M8	1	23	B4	release
387.867	6.325	CUE_LISTEN	        M8	2	n/a	n/a	n/a
394.192	7.758	FIXCROSS	n/a	n/a	n/a	n/a	n/a
401.95	6.317	CUE_PLAYBACK_RIGHT_HAND	        M8	2	n/a	n/a	n/a
402.352	n/a	RESPONSE	        M8	2	16	E4	press
402.593	n/a	RESPONSE	        M8	2	19	G4	press
402.867	n/a	RESPONSE	        M8	2	23	B4	press
402.886	n/a	RESPONSE	        M8	2	16	E4	release
402.957	n/a	RESPONSE	        M8	2	19	G4	release
403.248	n/a	RESPONSE	        M8	2	23	B4	release
403.349	n/a	RESPONSE	        M8	2	23	B4	press
403.83	n/a	RESPONSE	        M8	2	16	E4	press
403.872	n/a	RESPONSE	        M8	2	23	B4	release
404.323	n/a	RESPONSE	        M8	2	16	E4	release
404.764	n/a	RESPONSE	        M8	2	17	F4	press
405.166	n/a	RESPONSE	        M8	2	17	F4	release
405.317	n/a	RESPONSE	        M8	2	19	G4	press
405.319	n/a	RESPONSE	        M8	2	17	F4	press
405.529	n/a	RESPONSE	        M8	2	17	F4	release
405.61	n/a	RESPONSE	        M8	2	19	G4	release
405.614	n/a	RESPONSE	        M8	2	23	B4	press
406.122	n/a	RESPONSE	        M8	2	23	B4	release
406.31	n/a	RESPONSE	        M8	2	23	B4	press
406.889	n/a	RESPONSE	        M8	2	21	A4	press
407.11	n/a	RESPONSE	        M8	2	19	G4	press
407.286	n/a	RESPONSE	        M8	2	23	B4	release
407.344	n/a	RESPONSE	        M8	2	18	F#4	press
407.396	n/a	RESPONSE	        M8	2	21	A4	release
407.44	n/a	RESPONSE	        M8	2	19	G4	release
407.574	n/a	RESPONSE	        M8	2	19	G4	press
408.036	n/a	RESPONSE	        M8	2	16	E4	press
408.088	n/a	RESPONSE	        M8	2	18	F#4	release
408.11	n/a	RESPONSE	        M8	2	19	G4	release
408.267	7.759	FIXCROSS	n/a	n/a	n/a	n/a	n/a
408.846	n/a	RESPONSE	        M8	2	16	E4	release
416.025	6.317	CUE_LISTEN	        M4	1	n/a	n/a	n/a
422.342	7.758	FIXCROSS	n/a	n/a	n/a	n/a	n/a
430.1	6.325	CUE_PLAYBACK_BOTH_HANDS	        M4	1	n/a	n/a	n/a
430.533	n/a	RESPONSE	        M4	1	09	A3	press
430.544	n/a	RESPONSE	        M4	1	05	F3	press
430.566	n/a	RESPONSE	        M4	1	12	C4	press
430.899	n/a	RESPONSE	        M4	1	17	F4	press
431.328	n/a	RESPONSE	        M4	1	21	A4	press
431.33	n/a	RESPONSE	        M4	1	23	B4	press
431.383	n/a	RESPONSE	        M4	1	17	F4	release
431.572	n/a	RESPONSE	        M4	1	23	B4	release
431.683	n/a	RESPONSE	        M4	1	19	G4	press
431.814	n/a	RESPONSE	        M4	1	21	A4	release
432.066	n/a	RESPONSE	        M4	1	17	F4	press
432.217	n/a	RESPONSE	        M4	1	19	G4	release
432.408	n/a	RESPONSE	        M4	1	16	E4	press
432.499	n/a	RESPONSE	        M4	1	17	F4	release
432.79	n/a	RESPONSE	        M4	1	17	F4	press
432.884	n/a	RESPONSE	        M4	1	16	E4	release
433.193	n/a	RESPONSE	        M4	1	09	A3	release
433.196	n/a	RESPONSE	        M4	1	12	C4	release
433.396	n/a	RESPONSE	        M4	1	05	F3	release
433.507	n/a	RESPONSE	        M4	1	09	A3	press
433.52	n/a	RESPONSE	        M4	1	12	C4	press
433.529	n/a	RESPONSE	        M4	1	05	F3	press
433.56	n/a	RESPONSE	        M4	1	17	F4	release
433.873	n/a	RESPONSE	        M4	1	17	F4	press
434.233	n/a	RESPONSE	        M4	1	21	A4	press
434.314	n/a	RESPONSE	        M4	1	17	F4	release
434.596	n/a	RESPONSE	        M4	1	19	G4	press
434.737	n/a	RESPONSE	        M4	1	21	A4	release
434.969	n/a	RESPONSE	        M4	1	17	F4	press
435.079	n/a	RESPONSE	        M4	1	19	G4	release
435.35	n/a	RESPONSE	        M4	1	16	E4	press
435.413	n/a	RESPONSE	        M4	1	17	F4	release
435.701	n/a	RESPONSE	        M4	1	17	F4	press
435.767	n/a	RESPONSE	        M4	1	16	E4	release
436.425	7.758	FIXCROSS	n/a	n/a	n/a	n/a	n/a
436.509	n/a	RESPONSE	        M4	1	05	F3	release
436.58	n/a	RESPONSE	        M4	1	09	A3	release
436.606	n/a	RESPONSE	        M4	1	12	C4	release
436.774	n/a	RESPONSE	        M4	1	17	F4	release
444.184	6.317	CUE_LISTEN	        M4	2	n/a	n/a	n/a
450.5	7.758	FIXCROSS	n/a	n/a	n/a	n/a	n/a
458.259	6.317	CUE_PLAYBACK_BOTH_HANDS	        M4	2	n/a	n/a	n/a
458.612	n/a	RESPONSE	        M4	2	09	A3	press
458.627	n/a	RESPONSE	        M4	2	05	F3	press
458.65	n/a	RESPONSE	        M4	2	12	C4	press
459.023	n/a	RESPONSE	        M4	2	17	F4	press
459.426	n/a	RESPONSE	        M4	2	21	A4	press
459.607	n/a	RESPONSE	        M4	2	17	F4	release
459.829	n/a	RESPONSE	        M4	2	23	B4	press
459.839	n/a	RESPONSE	        M4	2	24	C5	press
459.91	n/a	RESPONSE	        M4	2	21	A4	release
460.002	n/a	RESPONSE	        M4	2	24	C5	release
460.194	n/a	RESPONSE	        M4	2	05	F3	release
460.206	n/a	RESPONSE	        M4	2	09	A3	release
460.376	n/a	RESPONSE	        M4	2	23	B4	release
460.437	n/a	RESPONSE	        M4	2	12	C4	release
460.498	n/a	RESPONSE	        M4	2	07	G3	press
460.509	n/a	RESPONSE	        M4	2	22	A#4	press
460.512	n/a	RESPONSE	        M4	2	04	E3	press
460.802	n/a	RESPONSE	        M4	2	12	C4	press
460.946	n/a	RESPONSE	        M4	2	19	G4	press
461.096	n/a	RESPONSE	        M4	2	22	A#4	release
461.367	n/a	RESPONSE	        M4	2	19	G4	release
461.427	n/a	RESPONSE	        M4	2	12	C4	release
461.43	n/a	RESPONSE	        M4	2	07	G3	release
461.519	n/a	RESPONSE	        M4	2	21	A4	press
461.55	n/a	RESPONSE	        M4	2	07	G3	press
461.612	n/a	RESPONSE	        M4	2	12	C4	press
461.933	n/a	RESPONSE	        M4	2	19	G4	press
462.024	n/a	RESPONSE	        M4	2	21	A4	release
462.456	n/a	RESPONSE	        M4	2	12	C4	release
462.467	n/a	RESPONSE	        M4	2	19	G4	release
462.498	n/a	RESPONSE	        M4	2	07	G3	release
462.589	n/a	RESPONSE	        M4	2	04	E3	release
462.77	n/a	RESPONSE	        M4	2	07	G3	press
462.782	n/a	RESPONSE	        M4	2	04	E3	press
462.823	n/a	RESPONSE	        M4	2	12	C4	press
463.224	n/a	RESPONSE	        M4	2	17	F4	press
463.666	n/a	RESPONSE	        M4	2	17	F4	release
463.717	n/a	RESPONSE	        M4	2	12	C4	release
463.868	n/a	RESPONSE	        M4	2	12	C4	press
464.169	n/a	RESPONSE	        M4	2	16	E4	press
464.49	n/a	RESPONSE	        M4	2	19	G4	press
464.575	7.758	FIXCROSS	n/a	n/a	n/a	n/a	n/a
464.833	n/a	RESPONSE	        M4	2	22	A#4	press
464.836	n/a	RESPONSE	        M4	2	16	E4	release
464.904	n/a	RESPONSE	        M4	2	19	G4	release
464.956	n/a	RESPONSE	        M4	2	07	G3	release
465.118	n/a	RESPONSE	        M4	2	09	A3	press
465.128	n/a	RESPONSE	        M4	2	21	A4	press
465.229	n/a	RESPONSE	        M4	2	05	F3	press
465.27	n/a	RESPONSE	        M4	2	04	E3	release
465.273	n/a	RESPONSE	        M4	2	22	A#4	release
465.446	n/a	RESPONSE	        M4	2	19	G4	press
465.554	n/a	RESPONSE	        M4	2	21	A4	release
465.762	n/a	RESPONSE	        M4	2	17	F4	press
465.88	n/a	RESPONSE	        M4	2	19	G4	release
466.008	n/a	RESPONSE	        M4	2	05	F3	release
466.016	n/a	RESPONSE	        M4	2	09	A3	release
466.042	n/a	RESPONSE	        M4	2	17	F4	release
466.07	n/a	RESPONSE	        M4	2	12	C4	release
472.334	6.325	CUE_LISTEN	        M3	1	n/a	n/a	n/a
478.659	7.767	FIXCROSS	n/a	n/a	n/a	n/a	n/a
486.425	6.308	CUE_PLAYBACK_RIGHT_HAND	        M3	1	n/a	n/a	n/a
487.11	n/a	RESPONSE	        M3	1	12	C4	press
487.508	n/a	RESPONSE	        M3	1	14	D4	press
487.693	n/a	RESPONSE	        M3	1	12	C4	release
487.905	n/a	RESPONSE	        M3	1	16	E4	press
488.015	n/a	RESPONSE	        M3	1	14	D4	release
488.275	n/a	RESPONSE	        M3	1	12	C4	press
488.359	n/a	RESPONSE	        M3	1	16	E4	release
488.57	n/a	RESPONSE	        M3	1	12	C4	release
488.682	n/a	RESPONSE	        M3	1	12	C4	press
489.07	n/a	RESPONSE	        M3	1	14	D4	press
489.188	n/a	RESPONSE	        M3	1	12	C4	release
489.429	n/a	RESPONSE	        M3	1	16	E4	press
489.53	n/a	RESPONSE	        M3	1	14	D4	release
489.812	n/a	RESPONSE	        M3	1	12	C4	press
489.883	n/a	RESPONSE	        M3	1	16	E4	release
490.194	n/a	RESPONSE	        M3	1	16	E4	press
490.277	n/a	RESPONSE	        M3	1	12	C4	release
490.577	n/a	RESPONSE	        M3	1	17	F4	press
490.76	n/a	RESPONSE	        M3	1	16	E4	release
490.952	n/a	RESPONSE	        M3	1	19	G4	press
491.04	n/a	RESPONSE	        M3	1	17	F4	release
491.702	n/a	RESPONSE	        M3	1	16	E4	press
491.804	n/a	RESPONSE	        M3	1	19	G4	release
492.084	n/a	RESPONSE	        M3	1	17	F4	press
492.175	n/a	RESPONSE	        M3	1	16	E4	release
492.447	n/a	RESPONSE	        M3	1	19	G4	press
492.568	n/a	RESPONSE	        M3	1	17	F4	release
492.734	7.758	FIXCROSS	n/a	n/a	n/a	n/a	n/a
493.25	n/a	RESPONSE	        M3	1	19	G4	release
500.492	6.325	CUE_LISTEN	        M3	2	n/a	n/a	n/a
506.817	7.758	FIXCROSS	n/a	n/a	n/a	n/a	n/a
514.576	6.317	CUE_PLAYBACK_RIGHT_HAND	        M3	2	n/a	n/a	n/a
514.908	n/a	RESPONSE	        M3	2	19	G4	press
515.159	n/a	RESPONSE	        M3	2	21	A4	press
515.25	n/a	RESPONSE	        M3	2	19	G4	release
515.384	n/a	RESPONSE	        M3	2	19	G4	press
515.623	n/a	RESPONSE	        M3	2	17	F4	press
515.634	n/a	RESPONSE	        M3	2	21	A4	release
515.718	n/a	RESPONSE	        M3	2	19	G4	release
515.863	n/a	RESPONSE	        M3	2	16	E4	press
516.018	n/a	RESPONSE	        M3	2	17	F4	release
516.33	n/a	RESPONSE	        M3	2	12	C4	press
516.338	n/a	RESPONSE	        M3	2	14	D4	press
516.407	n/a	RESPONSE	        M3	2	16	E4	release
516.467	n/a	RESPONSE	        M3	2	14	D4	release
516.707	n/a	RESPONSE	        M3	2	12	C4	release
516.795	n/a	RESPONSE	        M3	2	19	G4	press
516.949	n/a	RESPONSE	        M3	2	21	A4	press
516.989	n/a	RESPONSE	        M3	2	19	G4	release
517.174	n/a	RESPONSE	        M3	2	19	G4	press
517.299	n/a	RESPONSE	        M3	2	21	A4	release
517.412	n/a	RESPONSE	        M3	2	17	F4	press
517.597	n/a	RESPONSE	        M3	2	19	G4	release
517.629	n/a	RESPONSE	        M3	2	16	E4	press
517.778	n/a	RESPONSE	        M3	2	17	F4	release
518.084	n/a	RESPONSE	        M3	2	12	C4	press
518.113	n/a	RESPONSE	        M3	2	14	D4	press
518.229	n/a	RESPONSE	        M3	2	16	E4	release
518.255	n/a	RESPONSE	        M3	2	14	D4	release
518.439	n/a	RESPONSE	        M3	2	12	C4	release
518.554	n/a	RESPONSE	        M3	2	12	C4	press
519.013	n/a	RESPONSE	        M3	2	09	A3	press
519.16	n/a	RESPONSE	        M3	2	12	C4	release
519.397	n/a	RESPONSE	        M3	2	09	A3	release
519.568	n/a	RESPONSE	        M3	2	12	C4	press
519.869	n/a	RESPONSE	        M3	2	07	G3	press
520.02	n/a	RESPONSE	        M3	2	12	C4	release
520.242	n/a	RESPONSE	        M3	2	12	C4	press
520.323	n/a	RESPONSE	        M3	2	07	G3	release
520.764	n/a	RESPONSE	        M3	2	07	G3	press
520.795	n/a	RESPONSE	        M3	2	12	C4	release
520.892	7.758	FIXCROSS	n/a	n/a	n/a	n/a	n/a
521.109	n/a	RESPONSE	        M3	2	07	G3	release
528.65	6.317	CUE_LISTEN	        M5	1	n/a	n/a	n/a
534.967	7.758	FIXCROSS	n/a	n/a	n/a	n/a	n/a
542.726	6.325	CUE_PLAYBACK_BOTH_HANDS	        M5	1	n/a	n/a	n/a
543.26	n/a	RESPONSE	        M5	1	21	A4	press
543.263	n/a	RESPONSE	        M5	1	05	F3	press
543.583	n/a	RESPONSE	        M5	1	21	A4	release
543.594	n/a	RESPONSE	        M5	1	09	A3	press
543.608	n/a	RESPONSE	        M5	1	21	A4	press
543.688	n/a	RESPONSE	        M5	1	05	F3	release
543.869	n/a	RESPONSE	        M5	1	21	A4	release
543.959	n/a	RESPONSE	        M5	1	21	A4	press
543.962	n/a	RESPONSE	        M5	1	09	A3	release
543.964	n/a	RESPONSE	        M5	1	04	E3	press
544.313	n/a	RESPONSE	        M5	1	09	A3	press
544.454	n/a	RESPONSE	        M5	1	04	E3	release
544.525	n/a	RESPONSE	        M5	1	21	A4	release
544.667	n/a	RESPONSE	        M5	1	02	D3	press
544.67	n/a	RESPONSE	        M5	1	21	A4	press
544.779	n/a	RESPONSE	        M5	1	09	A3	release
544.97	n/a	RESPONSE	        M5	1	21	A4	release
544.992	n/a	RESPONSE	        M5	1	02	D3	release
545.003	n/a	RESPONSE	        M5	1	09	A3	press
545.024	n/a	RESPONSE	        M5	1	21	A4	press
545.295	n/a	RESPONSE	        M5	1	21	A4	release
545.357	n/a	RESPONSE	        M5	1	00	C3	press
545.368	n/a	RESPONSE	        M5	1	09	A3	release
545.37	n/a	RESPONSE	        M5	1	21	A4	press
545.68	n/a	RESPONSE	        M5	1	09	A3	press
545.71	n/a	RESPONSE	        M5	1	00	C3	release
545.844	n/a	RESPONSE	        M5	1	21	A4	release
546.034	n/a	RESPONSE	        M5	1	05	F3	press
546.039	n/a	RESPONSE	        M5	1	09	A3	release
546.045	n/a	RESPONSE	        M5	1	21	A4	press
546.384	n/a	RESPONSE	        M5	1	24	C5	press
546.402	n/a	RESPONSE	        M5	1	09	A3	press
546.41	n/a	RESPONSE	        M5	1	23	B4	press
546.457	n/a	RESPONSE	        M5	1	21	A4	release
546.479	n/a	RESPONSE	        M5	1	05	F3	release
546.688	n/a	RESPONSE	        M5	1	17	F4	press
546.715	n/a	RESPONSE	        M5	1	23	B4	release
546.728	n/a	RESPONSE	        M5	1	04	E3	press
546.817	n/a	RESPONSE	        M5	1	24	C5	release
546.964	n/a	RESPONSE	        M5	1	09	A3	release
547.064	n/a	RESPONSE	        M5	1	09	A3	press
547.079	n/a	RESPONSE	        M5	1	19	G4	press
547.169	n/a	RESPONSE	        M5	1	04	E3	release
547.2	n/a	RESPONSE	        M5	1	17	F4	release
547.419	n/a	RESPONSE	        M5	1	21	A4	press
547.44	n/a	RESPONSE	        M5	1	02	D3	press
547.498	n/a	RESPONSE	        M5	1	09	A3	release
547.508	n/a	RESPONSE	        M5	1	19	G4	release
547.749	n/a	RESPONSE	        M5	1	09	A3	press
547.825	n/a	RESPONSE	        M5	1	02	D3	release
547.999	n/a	RESPONSE	        M5	1	21	A4	release
548.102	n/a	RESPONSE	        M5	1	00	C3	press
548.17	n/a	RESPONSE	        M5	1	09	A3	release
548.434	n/a	RESPONSE	        M5	1	09	A3	press
548.51	n/a	RESPONSE	        M5	1	00	C3	release
549.05	7.758	FIXCROSS	n/a	n/a	n/a	n/a	n/a
549.124	n/a	RESPONSE	        M5	1	09	A3	release
556.809	6.317	CUE_LISTEN	        M5	2	n/a	n/a	n/a
563.126	7.758	FIXCROSS	n/a	n/a	n/a	n/a	n/a
570.884	6.317	CUE_PLAYBACK_BOTH_HANDS	        M5	2	n/a	n/a	n/a
571.214	n/a	RESPONSE	        M5	2	07	G3	press
571.235	n/a	RESPONSE	        M5	2	22	A#4	press
571.477	n/a	RESPONSE	        M5	2	22	A#4	release
571.538	n/a	RESPONSE	        M5	2	10	A#3	press
571.549	n/a	RESPONSE	        M5	2	07	G3	release
571.562	n/a	RESPONSE	        M5	2	22	A#4	press
571.792	n/a	RESPONSE	        M5	2	22	A#4	release
571.913	n/a	RESPONSE	        M5	2	22	A#4	press
571.917	n/a	RESPONSE	        M5	2	04	E3	press
572.055	n/a	RESPONSE	        M5	2	10	A#3	release
572.179	n/a	RESPONSE	        M5	2	22	A#4	release
572.198	n/a	RESPONSE	        M5	2	10	A#3	press
572.209	n/a	RESPONSE	        M5	2	04	E3	release
572.27	n/a	RESPONSE	        M5	2	22	A#4	press
572.462	n/a	RESPONSE	        M5	2	22	A#4	release
572.535	n/a	RESPONSE	        M5	2	10	A#3	release
572.554	n/a	RESPONSE	        M5	2	22	A#4	press
572.575	n/a	RESPONSE	        M5	2	05	F3	press
572.917	n/a	RESPONSE	        M5	2	09	A3	press
572.928	n/a	RESPONSE	        M5	2	21	A4	press
572.979	n/a	RESPONSE	        M5	2	05	F3	release
573.08	n/a	RESPONSE	        M5	2	22	A#4	release
573.174	n/a	RESPONSE	        M5	2	21	A4	release
573.244	n/a	RESPONSE	        M5	2	21	A4	press
573.267	n/a	RESPONSE	        M5	2	00	C3	press
573.277	n/a	RESPONSE	        M5	2	09	A3	release
573.507	n/a	RESPONSE	        M5	2	21	A4	release
573.599	n/a	RESPONSE	        M5	2	09	A3	press
573.602	n/a	RESPONSE	        M5	2	00	C3	release
573.61	n/a	RESPONSE	        M5	2	21	A4	press
573.933	n/a	RESPONSE	        M5	2	00	C3	press
573.943	n/a	RESPONSE	        M5	2	09	A3	release
573.945	n/a	RESPONSE	        M5	2	24	C5	press
573.988	n/a	RESPONSE	        M5	2	21	A4	release
574.167	n/a	RESPONSE	        M5	2	24	C5	release
574.228	n/a	RESPONSE	        M5	2	24	C5	press
574.269	n/a	RESPONSE	        M5	2	07	G3	press
574.29	n/a	RESPONSE	        M5	2	00	C3	release
574.653	n/a	RESPONSE	        M5	2	04	E3	press
574.665	n/a	RESPONSE	        M5	2	07	G3	release
574.874	n/a	RESPONSE	        M5	2	22	A#4	press
575.035	n/a	RESPONSE	        M5	2	24	C5	release
575.237	n/a	RESPONSE	        M5	2	19	G4	press
575.25	n/a	RESPONSE	        M5	2	22	A#4	release
575.3	n/a	RESPONSE	        M5	2	07	G3	press
575.41	n/a	RESPONSE	        M5	2	04	E3	release
575.572	n/a	RESPONSE	        M5	2	17	F4	press
575.583	n/a	RESPONSE	        M5	2	05	F3	press
575.634	n/a	RESPONSE	        M5	2	19	G4	release
575.645	n/a	RESPONSE	        M5	2	07	G3	release
576.585	n/a	RESPONSE	        M5	2	17	F4	release
576.615	n/a	RESPONSE	        M5	2	05	F3	release
577.2	7.758	FIXCROSS	n/a	n/a	n/a	n/a	n/a
584.959	6.325	CUE_LISTEN	        M1	1	n/a	n/a	n/a
591.284	7.767	FIXCROSS	n/a	n/a	n/a	n/a	n/a
599.051	6.308	CUE_PLAYBACK_BOTH_HANDS	        M1	1	n/a	n/a	n/a
599.478	n/a	RESPONSE	        M1	1	19	G4	press
599.48	n/a	RESPONSE	        M1	1	00	C3	press
599.49	n/a	RESPONSE	        M1	1	05	F3	press
599.502	n/a	RESPONSE	        M1	1	07	G3	press
600.053	n/a	RESPONSE	        M1	1	16	E4	press
600.235	n/a	RESPONSE	        M1	1	19	G4	release
600.447	n/a	RESPONSE	        M1	1	16	E4	release
600.577	n/a	RESPONSE	        M1	1	16	E4	press
600.909	n/a	RESPONSE	        M1	1	00	C3	release
600.949	n/a	RESPONSE	        M1	1	05	F3	release
600.953	n/a	RESPONSE	        M1	1	07	G3	release
600.982	n/a	RESPONSE	        M1	1	16	E4	release
601.073	n/a	RESPONSE	        M1	1	17	F4	press
601.094	n/a	RESPONSE	        M1	1	04	E3	press
601.105	n/a	RESPONSE	        M1	1	07	G3	press
601.117	n/a	RESPONSE	        M1	1	02	D3	press
601.168	n/a	RESPONSE	        M1	1	05	F3	press
601.349	n/a	RESPONSE	        M1	1	02	D3	release
601.52	n/a	RESPONSE	        M1	1	05	F3	release
601.582	n/a	RESPONSE	        M1	1	14	D4	press
601.653	n/a	RESPONSE	        M1	1	04	E3	release
601.704	n/a	RESPONSE	        M1	1	17	F4	release
601.795	n/a	RESPONSE	        M1	1	07	G3	release
601.957	n/a	RESPONSE	        M1	1	14	D4	release
602.12	n/a	RESPONSE	        M1	1	14	D4	press
602.559	n/a	RESPONSE	        M1	1	14	D4	release
602.61	n/a	RESPONSE	        M1	1	12	C4	press
602.892	n/a	RESPONSE	        M1	1	14	D4	press
602.993	n/a	RESPONSE	        M1	1	12	C4	release
603.127	n/a	RESPONSE	        M1	1	16	E4	press
603.135	n/a	RESPONSE	        M1	1	14	D4	release
603.278	n/a	RESPONSE	        M1	1	16	E4	release
603.379	n/a	RESPONSE	        M1	1	12	C4	press
603.59	n/a	RESPONSE	        M1	1	16	E4	press
603.764	n/a	RESPONSE	        M1	1	12	C4	release
603.853	n/a	RESPONSE	        M1	1	19	G4	press
603.944	n/a	RESPONSE	        M1	1	16	E4	release
604.258	n/a	RESPONSE	        M1	1	19	G4	release
605.359	7.759	FIXCROSS	n/a	n/a	n/a	n/a	n/a
613.117	6.317	CUE_LISTEN	        M1	2	n/a	n/a	n/a
619.434	7.758	FIXCROSS	n/a	n/a	n/a	n/a	n/a
627.192	6.325	CUE_PLAYBACK_BOTH_HANDS	        M1	2	n/a	n/a	n/a
627.519	n/a	RESPONSE	        M1	2	00	C3	press
627.529	n/a	RESPONSE	        M1	2	04	E3	press
627.535	n/a	RESPONSE	        M1	2	07	G3	press
627.538	n/a	RESPONSE	        M1	2	19	G4	press
628.054	n/a	RESPONSE	        M1	2	16	E4	press
628.323	n/a	RESPONSE	        M1	2	19	G4	release
628.468	n/a	RESPONSE	        M1	2	16	E4	release
628.558	n/a	RESPONSE	        M1	2	16	E4	press
628.835	n/a	RESPONSE	        M1	2	00	C3	release
628.887	n/a	RESPONSE	        M1	2	04	E3	release
628.937	n/a	RESPONSE	        M1	2	16	E4	release
629.008	n/a	RESPONSE	        M1	2	02	D3	press
629.012	n/a	RESPONSE	        M1	2	05	F3	press
629.015	n/a	RESPONSE	        M1	2	17	F4	press
629.522	n/a	RESPONSE	        M1	2	14	D4	press
629.625	n/a	RESPONSE	        M1	2	17	F4	release
629.924	n/a	RESPONSE	        M1	2	14	D4	release
629.985	n/a	RESPONSE	        M1	2	14	D4	press
630.327	n/a	RESPONSE	        M1	2	02	D3	release
630.368	n/a	RESPONSE	        M1	2	05	F3	release
630.379	n/a	RESPONSE	        M1	2	14	D4	release
630.452	n/a	RESPONSE	        M1	2	04	E3	press
630.473	n/a	RESPONSE	        M1	2	12	C4	press
630.513	n/a	RESPONSE	        M1	2	00	C3	press
630.744	n/a	RESPONSE	        M1	2	16	E4	press
630.845	n/a	RESPONSE	        M1	2	12	C4	release
630.998	n/a	RESPONSE	        M1	2	12	C4	press
631.068	n/a	RESPONSE	        M1	2	16	E4	release
631.929	n/a	RESPONSE	        M1	2	12	C4	release
632.09	n/a	RESPONSE	        M1	2	07	G3	release
632.132	n/a	RESPONSE	        M1	2	04	E3	release
633.517	7.758	FIXCROSS	n/a	n/a	n/a	n/a	n/a
641.276	6.317	CUE_LISTEN	        M7	1	n/a	n/a	n/a
647.592	7.758	FIXCROSS	n/a	n/a	n/a	n/a	n/a
655.351	6.317	CUE_PLAYBACK_RIGHT_HAND	        M7	1	n/a	n/a	n/a
656.194	n/a	RESPONSE	        M7	1	22	A#4	press
656.812	n/a	RESPONSE	        M7	1	21	A4	press
656.939	n/a	RESPONSE	        M7	1	22	A#4	release
657.389	n/a	RESPONSE	        M7	1	19	G4	press
657.445	n/a	RESPONSE	        M7	1	21	A4	release
657.943	n/a	RESPONSE	        M7	1	21	A4	press
658.062	n/a	RESPONSE	        M7	1	19	G4	release
658.515	n/a	RESPONSE	        M7	1	16	E4	press
658.644	n/a	RESPONSE	        M7	1	21	A4	release
658.853	n/a	RESPONSE	        M7	1	16	E4	release
658.967	n/a	RESPONSE	        M7	1	14	D4	press
659.755	n/a	RESPONSE	        M7	1	14	D4	release
659.799	n/a	RESPONSE	        M7	1	14	D4	press
660.349	n/a	RESPONSE	        M7	1	19	G4	press
660.429	n/a	RESPONSE	        M7	1	14	D4	release
661.24	n/a	RESPONSE	        M7	1	19	G4	release
661.262	n/a	RESPONSE	        M7	1	07	G3	press
661.423	n/a	RESPONSE	        M7	1	07	G3	release
661.667	7.758	FIXCROSS	n/a	n/a	n/a	n/a	n/a
661.867	n/a	RESPONSE	        M7	1	09	A3	press
662.115	n/a	RESPONSE	        M7	1	10	A#3	press
662.187	n/a	RESPONSE	        M7	1	09	A3	release
662.368	n/a	RESPONSE	        M7	1	12	C4	press
662.399	n/a	RESPONSE	        M7	1	10	A#3	release
662.66	n/a	RESPONSE	        M7	1	14	D4	press
662.914	n/a	RESPONSE	        M7	1	12	C4	release
663.073	n/a	RESPONSE	        M7	1	14	D4	release
669.426	6.325	CUE_LISTEN	        M7	2	n/a	n/a	n/a
673.44	n/a	RESPONSE	        M7	2	00	C3	release
675.751	7.758	FIXCROSS	n/a	n/a	n/a	n/a	n/a
683.509	6.317	CUE_PLAYBACK_RIGHT_HAND	        M7	2	n/a	n/a	n/a
683.828	n/a	RESPONSE	        M7	2	17	F4	press
684.379	n/a	RESPONSE	        M7	2	19	G4	press
684.47	n/a	RESPONSE	        M7	2	17	F4	release
684.652	n/a	RESPONSE	        M7	2	17	F4	press
684.944	n/a	RESPONSE	        M7	2	15	D#4	press
685.024	n/a	RESPONSE	        M7	2	19	G4	release
685.075	n/a	RESPONSE	        M7	2	17	F4	release
685.169	n/a	RESPONSE	        M7	2	14	D4	press
685.278	n/a	RESPONSE	        M7	2	15	D#4	release
685.459	n/a	RESPONSE	        M7	2	15	D#4	press
685.502	n/a	RESPONSE	        M7	2	14	D4	release
686.094	n/a	RESPONSE	        M7	2	17	F4	press
686.195	n/a	RESPONSE	        M7	2	15	D#4	release
686.364	n/a	RESPONSE	        M7	2	15	D#4	press
686.472	n/a	RESPONSE	        M7	2	17	F4	release
686.64	n/a	RESPONSE	        M7	2	14	D4	press
686.769	n/a	RESPONSE	        M7	2	15	D#4	release
687.004	n/a	RESPONSE	        M7	2	12	C4	press
687.317	n/a	RESPONSE	        M7	2	14	D4	release
687.567	n/a	RESPONSE	        M7	2	14	D4	press
687.694	n/a	RESPONSE	        M7	2	12	C4	release
688.14	n/a	RESPONSE	        M7	2	19	G4	press
688.24	n/a	RESPONSE	        M7	2	14	D4	release
688.73	n/a	RESPONSE	        M7	2	12	C4	press
688.754	n/a	RESPONSE	        M7	2	11	B3	press
688.866	n/a	RESPONSE	        M7	2	11	B3	release
688.969	n/a	RESPONSE	        M7	2	12	C4	release
689.085	n/a	RESPONSE	        M7	2	11	B3	press
689.174	n/a	RESPONSE	        M7	2	19	G4	release
689.437	n/a	RESPONSE	        M7	2	11	B3	release
689.538	n/a	RESPONSE	        M7	2	12	C4	press
689.826	7.758	FIXCROSS	n/a	n/a	n/a	n/a	n/a
690.049	n/a	RESPONSE	        M7	2	10	A#3	press
690.122	n/a	RESPONSE	        M7	2	12	C4	release
690.372	n/a	RESPONSE	        M7	2	10	A#3	release
697.584	6.325	CUE_LISTEN	        M4	1	n/a	n/a	n/a
703.909	7.758	FIXCROSS	n/a	n/a	n/a	n/a	n/a
711.668	6.317	CUE_PLAYBACK_RIGHT_HAND	        M4	1	n/a	n/a	n/a
712.123	n/a	RESPONSE	        M4	1	16	E4	press
712.454	n/a	RESPONSE	        M4	1	16	E4	release
712.808	n/a	RESPONSE	        M4	1	14	D4	press
713.226	n/a	RESPONSE	        M4	1	14	D4	release
714.228	n/a	RESPONSE	        M4	1	14	D4	press
714.829	n/a	RESPONSE	        M4	1	14	D4	release
715.092	n/a	RESPONSE	        M4	1	16	E4	press
715.502	n/a	RESPONSE	        M4	1	19	G4	press
715.643	n/a	RESPONSE	        M4	1	16	E4	release
716.02	n/a	RESPONSE	        M4	1	17	F4	press
716.169	n/a	RESPONSE	        M4	1	19	G4	release
716.356	n/a	RESPONSE	        M4	1	16	E4	press
716.402	n/a	RESPONSE	        M4	1	17	F4	release
716.633	n/a	RESPONSE	        M4	1	14	D4	press
716.7	n/a	RESPONSE	        M4	1	16	E4	release
716.858	n/a	RESPONSE	        M4	1	14	D4	release
717.535	n/a	RESPONSE	        M4	1	05	F3	press
717.545	n/a	RESPONSE	        M4	1	09	A3	press
717.608	n/a	RESPONSE	        M4	1	12	C4	press
717.887	n/a	RESPONSE	        M4	1	12	C4	release
717.953	n/a	RESPONSE	        M4	1	09	A3	release
717.984	7.758	FIXCROSS	n/a	n/a	n/a	n/a	n/a
718.014	n/a	RESPONSE	        M4	1	05	F3	release
721.844	n/a	RESPONSE	        M4	1	12	C4	press
722.224	n/a	RESPONSE	        M4	1	12	C4	release
725.743	6.325	CUE_LISTEN	        M4	2	n/a	n/a	n/a
732.068	7.758	FIXCROSS	n/a	n/a	n/a	n/a	n/a
739.826	6.317	CUE_PLAYBACK_RIGHT_HAND	        M4	2	n/a	n/a	n/a
740.205	n/a	RESPONSE	        M4	2	12	C4	press
740.579	n/a	RESPONSE	        M4	2	16	E4	press
740.708	n/a	RESPONSE	        M4	2	12	C4	release
741.339	n/a	RESPONSE	        M4	2	17	F4	press
741.44	n/a	RESPONSE	        M4	2	16	E4	release
741.754	n/a	RESPONSE	        M4	2	17	F4	release
742.163	n/a	RESPONSE	        M4	2	12	C4	press
742.544	n/a	RESPONSE	        M4	2	16	E4	press
742.655	n/a	RESPONSE	        M4	2	12	C4	release
742.939	n/a	RESPONSE	        M4	2	17	F4	press
742.978	n/a	RESPONSE	        M4	2	19	G4	press
743.109	n/a	RESPONSE	        M4	2	19	G4	release
743.36	n/a	RESPONSE	        M4	2	21	A4	press
743.382	n/a	RESPONSE	        M4	2	16	E4	release
743.455	n/a	RESPONSE	        M4	2	17	F4	release
743.934	n/a	RESPONSE	        M4	2	18	F#4	press
744.275	n/a	RESPONSE	        M4	2	18	F#4	release
744.287	n/a	RESPONSE	        M4	2	16	E4	press
744.358	n/a	RESPONSE	        M4	2	21	A4	release
744.589	n/a	RESPONSE	        M4	2	16	E4	release
745.4	n/a	RESPONSE	        M4	2	12	C4	press
745.932	n/a	RESPONSE	        M4	2	16	E4	press
746.054	n/a	RESPONSE	        M4	2	12	C4	release
746.143	7.758	FIXCROSS	n/a	n/a	n/a	n/a	n/a
746.455	n/a	RESPONSE	        M4	2	21	A4	press
746.676	n/a	RESPONSE	        M4	2	16	E4	release
746.88	n/a	RESPONSE	        M4	2	21	A4	release
753.901	6.317	CUE_LISTEN	        M2	1	n/a	n/a	n/a
760.218	7.758	FIXCROSS	n/a	n/a	n/a	n/a	n/a
767.976	6.317	CUE_PLAYBACK_BOTH_HANDS	        M2	1	n/a	n/a	n/a
768.355	n/a	RESPONSE	        M2	1	00	C3	press
768.358	n/a	RESPONSE	        M2	1	24	C5	press
768.365	n/a	RESPONSE	        M2	1	07	G3	press
768.748	n/a	RESPONSE	        M2	1	21	A4	press
769.01	n/a	RESPONSE	        M2	1	24	C5	release
769.043	n/a	RESPONSE	        M2	1	21	A4	release
769.09	n/a	RESPONSE	        M2	1	00	C3	release
769.142	n/a	RESPONSE	        M2	1	07	G3	release
769.212	n/a	RESPONSE	        M2	1	00	C3	press
769.214	n/a	RESPONSE	        M2	1	24	C5	press
769.219	n/a	RESPONSE	        M2	1	07	G3	press
769.598	n/a	RESPONSE	        M2	1	19	G4	press
769.809	n/a	RESPONSE	        M2	1	24	C5	release
769.812	n/a	RESPONSE	        M2	1	00	C3	release
769.892	n/a	RESPONSE	        M2	1	19	G4	release
769.894	n/a	RESPONSE	        M2	1	07	G3	release
769.966	n/a	RESPONSE	        M2	1	00	C3	press
769.985	n/a	RESPONSE	        M2	1	07	G3	press
769.996	n/a	RESPONSE	        M2	1	19	G4	press
770.348	n/a	RESPONSE	        M2	1	17	F4	press
770.472	n/a	RESPONSE	        M2	1	19	G4	release
770.53	n/a	RESPONSE	        M2	1	00	C3	release
770.672	n/a	RESPONSE	        M2	1	07	G3	release
770.713	n/a	RESPONSE	        M2	1	16	E4	press
770.734	n/a	RESPONSE	        M2	1	00	C3	press
770.736	n/a	RESPONSE	        M2	1	07	G3	press
770.766	n/a	RESPONSE	        M2	1	17	F4	release
771.1	n/a	RESPONSE	        M2	1	17	F4	press
771.193	n/a	RESPONSE	        M2	1	16	E4	release
771.252	n/a	RESPONSE	        M2	1	00	C3	release
771.463	n/a	RESPONSE	        M2	1	00	C3	press
771.465	n/a	RESPONSE	        M2	1	19	G4	press
771.555	n/a	RESPONSE	        M2	1	17	F4	release
772.026	n/a	RESPONSE	        M2	1	00	C3	release
772.178	n/a	RESPONSE	        M2	1	24	C5	press
772.192	n/a	RESPONSE	        M2	1	19	G4	release
772.21	n/a	RESPONSE	        M2	1	00	C3	press
772.582	n/a	RESPONSE	        M2	1	19	G4	press
772.733	n/a	RESPONSE	        M2	1	00	C3	release
772.754	n/a	RESPONSE	        M2	1	24	C5	release
772.855	n/a	RESPONSE	        M2	1	07	G3	release
772.896	n/a	RESPONSE	        M2	1	19	G4	release
772.938	n/a	RESPONSE	        M2	1	00	C3	press
772.949	n/a	RESPONSE	        M2	1	07	G3	press
772.963	n/a	RESPONSE	        M2	1	19	G4	press
773.294	n/a	RESPONSE	        M2	1	17	F4	press
773.385	n/a	RESPONSE	        M2	1	19	G4	release
773.494	n/a	RESPONSE	        M2	1	00	C3	release
773.665	n/a	RESPONSE	        M2	1	16	E4	press
773.688	n/a	RESPONSE	        M2	1	00	C3	press
773.75	n/a	RESPONSE	        M2	1	17	F4	release
774.029	n/a	RESPONSE	        M2	1	14	D4	press
774.14	n/a	RESPONSE	        M2	1	16	E4	release
774.242	n/a	RESPONSE	        M2	1	00	C3	release
774.293	7.759	FIXCROSS	n/a	n/a	n/a	n/a	n/a
774.363	n/a	RESPONSE	        M2	1	07	G3	release
774.444	n/a	RESPONSE	        M2	1	12	C4	press
774.455	n/a	RESPONSE	        M2	1	00	C3	press
774.466	n/a	RESPONSE	        M2	1	07	G3	press
774.728	n/a	RESPONSE	        M2	1	14	D4	release
775.199	n/a	RESPONSE	        M2	1	00	C3	release
775.202	n/a	RESPONSE	        M2	1	12	C4	release
782.051	6.325	CUE_LISTEN	        M2	2	n/a	n/a	n/a
786.482	n/a	RESPONSE	        M2	2	07	G3	release
788.376	7.758	FIXCROSS	n/a	n/a	n/a	n/a	n/a
796.134	6.317	CUE_PLAYBACK_BOTH_HANDS	        M2	2	n/a	n/a	n/a
796.523	n/a	RESPONSE	        M2	2	00	C3	press
796.532	n/a	RESPONSE	        M2	2	07	G3	press
796.543	n/a	RESPONSE	        M2	2	12	C4	press
796.915	n/a	RESPONSE	        M2	2	14	D4	press
797.053	n/a	RESPONSE	        M2	2	12	C4	release
797.139	n/a	RESPONSE	        M2	2	00	C3	release
797.166	n/a	RESPONSE	        M2	2	07	G3	release
797.248	n/a	RESPONSE	        M2	2	16	E4	press
797.279	n/a	RESPONSE	        M2	2	07	G3	press
797.282	n/a	RESPONSE	        M2	2	00	C3	press
797.29	n/a	RESPONSE	        M2	2	14	D4	release
797.663	n/a	RESPONSE	        M2	2	14	D4	press
797.729	n/a	RESPONSE	        M2	2	16	E4	release
797.778	n/a	RESPONSE	        M2	2	00	C3	release
798.025	n/a	RESPONSE	        M2	2	16	E4	press
798.028	n/a	RESPONSE	        M2	2	00	C3	press
798.095	n/a	RESPONSE	        M2	2	14	D4	release
798.408	n/a	RESPONSE	        M2	2	17	F4	press
798.55	n/a	RESPONSE	        M2	2	00	C3	release
798.56	n/a	RESPONSE	        M2	2	16	E4	release
798.706	n/a	RESPONSE	        M2	2	07	G3	release
798.764	n/a	RESPONSE	        M2	2	19	G4	press
798.766	n/a	RESPONSE	        M2	2	00	C3	press
798.775	n/a	RESPONSE	        M2	2	07	G3	press
798.846	n/a	RESPONSE	        M2	2	17	F4	release
799.354	n/a	RESPONSE	        M2	2	00	C3	release
799.405	n/a	RESPONSE	        M2	2	19	G4	release
799.518	n/a	RESPONSE	        M2	2	16	E4	press
799.526	n/a	RESPONSE	        M2	2	00	C3	press
799.888	n/a	RESPONSE	        M2	2	19	G4	press
799.999	n/a	RESPONSE	        M2	2	16	E4	release
800.05	n/a	RESPONSE	        M2	2	00	C3	release
800.122	n/a	RESPONSE	        M2	2	07	G3	release
800.173	n/a	RESPONSE	        M2	2	19	G4	release
800.254	n/a	RESPONSE	        M2	2	00	C3	press
800.256	n/a	RESPONSE	        M2	2	07	G3	press
800.286	n/a	RESPONSE	        M2	2	19	G4	press
800.638	n/a	RESPONSE	        M2	2	17	F4	press
800.769	n/a	RESPONSE	        M2	2	19	G4	release
800.85	n/a	RESPONSE	        M2	2	00	C3	release
800.892	n/a	RESPONSE	        M2	2	07	G3	release
801.013	n/a	RESPONSE	        M2	2	16	E4	press
801.024	n/a	RESPONSE	        M2	2	00	C3	press
801.026	n/a	RESPONSE	        M2	2	07	G3	press
801.086	n/a	RESPONSE	        M2	2	17	F4	release
801.358	n/a	RESPONSE	        M2	2	14	D4	press
801.472	n/a	RESPONSE	        M2	2	16	E4	release
801.53	n/a	RESPONSE	        M2	2	00	C3	release
801.682	n/a	RESPONSE	        M2	2	07	G3	release
801.724	n/a	RESPONSE	        M2	2	12	C4	press
801.734	n/a	RESPONSE	        M2	2	07	G3	press
801.736	n/a	RESPONSE	        M2	2	00	C3	press
801.786	n/a	RESPONSE	        M2	2	14	D4	release
802.451	7.759	FIXCROSS	n/a	n/a	n/a	n/a	n/a
802.678	n/a	RESPONSE	        M2	2	00	C3	release
802.709	n/a	RESPONSE	        M2	2	12	C4	release
802.73	n/a	RESPONSE	        M2	2	07	G3	release
810.21	6.317	CUE_LISTEN	        M8	1	n/a	n/a	n/a
816.526	7.758	FIXCROSS	n/a	n/a	n/a	n/a	n/a
824.284	6.325	CUE_PLAYBACK_BOTH_HANDS	        M8	1	n/a	n/a	n/a
824.59	n/a	RESPONSE	        M8	1	16	E4	press
824.83	n/a	RESPONSE	        M8	1	19	G4	press
825.102	n/a	RESPONSE	        M8	1	23	B4	press
825.173	n/a	RESPONSE	        M8	1	16	E4	release
825.194	n/a	RESPONSE	        M8	1	19	G4	release
825.435	n/a	RESPONSE	        M8	1	23	B4	release
825.588	n/a	RESPONSE	        M8	1	23	B4	press
826.084	n/a	RESPONSE	        M8	1	18	F#4	press
826.086	n/a	RESPONSE	        M8	1	09	A3	press
826.104	n/a	RESPONSE	        M8	1	12	C4	press
826.366	n/a	RESPONSE	        M8	1	23	B4	release
826.481	n/a	RESPONSE	        M8	1	09	A3	release
826.533	n/a	RESPONSE	        M8	1	21	A4	press
826.65	n/a	RESPONSE	        M8	1	18	F#4	release
826.768	n/a	RESPONSE	        M8	1	16	E4	press
826.849	n/a	RESPONSE	        M8	1	12	C4	release
827.179	n/a	RESPONSE	        M8	1	15	D#4	press
827.236	n/a	RESPONSE	        M8	1	16	E4	release
827.446	n/a	RESPONSE	        M8	1	23	B4	press
827.512	n/a	RESPONSE	        M8	1	15	D#4	release
827.624	n/a	RESPONSE	        M8	1	21	A4	release
827.844	n/a	RESPONSE	        M8	1	23	B4	release
828.188	n/a	RESPONSE	        M8	1	23	B4	press
828.203	n/a	RESPONSE	        M8	1	15	D#4	press
828.659	n/a	RESPONSE	        M8	1	11	B3	press
828.765	n/a	RESPONSE	        M8	1	15	D#4	release
828.89	n/a	RESPONSE	        M8	1	21	A4	press
829.118	n/a	RESPONSE	        M8	1	19	G4	press
829.296	n/a	RESPONSE	        M8	1	23	B4	release
829.388	n/a	RESPONSE	        M8	1	18	F#4	press
829.451	n/a	RESPONSE	        M8	1	21	A4	release
829.54	n/a	RESPONSE	        M8	1	19	G4	release
829.602	n/a	RESPONSE	        M8	1	16	E4	press
829.813	n/a	RESPONSE	        M8	1	12	C4	press
829.854	n/a	RESPONSE	        M8	1	11	B3	release
830.045	n/a	RESPONSE	        M8	1	23	B4	press
830.056	n/a	RESPONSE	        M8	1	11	B3	press
830.059	n/a	RESPONSE	        M8	1	18	F#4	release
830.109	n/a	RESPONSE	        M8	1	16	E4	release
830.12	n/a	RESPONSE	        M8	1	12	C4	release
830.462	n/a	RESPONSE	        M8	1	11	B3	release
830.523	n/a	RESPONSE	        M8	1	11	B3	press
830.609	7.758	FIXCROSS	n/a	n/a	n/a	n/a	n/a
830.954	n/a	RESPONSE	        M8	1	23	B4	release
831.086	n/a	RESPONSE	        M8	1	11	B3	release
838.368	6.317	CUE_LISTEN	        M8	2	n/a	n/a	n/a
844.684	7.758	FIXCROSS	n/a	n/a	n/a	n/a	n/a
852.443	6.325	CUE_PLAYBACK_BOTH_HANDS	        M8	2	n/a	n/a	n/a
852.743	n/a	RESPONSE	        M8	2	16	E4	press
852.974	n/a	RESPONSE	        M8	2	19	G4	press
853.245	n/a	RESPONSE	        M8	2	16	E4	release
853.256	n/a	RESPONSE	        M8	2	23	B4	press
853.389	n/a	RESPONSE	        M8	2	19	G4	release
853.599	n/a	RESPONSE	        M8	2	23	B4	release
853.721	n/a	RESPONSE	        M8	2	23	B4	press
854.161	n/a	RESPONSE	        M8	2	09	A3	press
854.203	n/a	RESPONSE	        M8	2	18	F#4	press
854.404	n/a	RESPONSE	        M8	2	12	C4	press
854.416	n/a	RESPONSE	        M8	2	23	B4	release
854.596	n/a	RESPONSE	        M8	2	09	A3	release
854.61	n/a	RESPONSE	        M8	2	21	A4	press
854.68	n/a	RESPONSE	        M8	2	16	E4	press
854.8	n/a	RESPONSE	        M8	2	12	C4	release
854.874	n/a	RESPONSE	        M8	2	18	F#4	release
855.043	n/a	RESPONSE	        M8	2	16	E4	release
855.134	n/a	RESPONSE	        M8	2	16	E4	press
855.618	n/a	RESPONSE	        M8	2	23	B4	press
855.636	n/a	RESPONSE	        M8	2	15	D#4	press
855.695	n/a	RESPONSE	        M8	2	21	A4	release
855.709	n/a	RESPONSE	        M8	2	16	E4	release
856.123	n/a	RESPONSE	        M8	2	11	B3	press
856.131	n/a	RESPONSE	        M8	2	15	D#4	release
856.363	n/a	RESPONSE	        M8	2	21	A4	press
856.763	n/a	RESPONSE	        M8	2	19	G4	press
856.888	n/a	RESPONSE	        M8	2	23	B4	release
857.263	n/a	RESPONSE	        M8	2	21	A4	release
857.38	n/a	RESPONSE	        M8	2	18	F#4	press
857.476	n/a	RESPONSE	        M8	2	19	G4	release
857.655	n/a	RESPONSE	        M8	2	16	E4	press
858.008	n/a	RESPONSE	        M8	2	18	F#4	release
858.01	n/a	RESPONSE	        M8	2	16	E4	release
858.078	n/a	RESPONSE	        M8	2	11	B3	release
858.269	n/a	RESPONSE	        M8	2	12	C4	press
858.648	n/a	RESPONSE	        M8	2	23	B4	press
858.672	n/a	RESPONSE	        M8	2	11	B3	press
858.734	n/a	RESPONSE	        M8	2	12	C4	release
858.768	7.758	FIXCROSS	n/a	n/a	n/a	n/a	n/a
859.03	n/a	RESPONSE	        M8	2	09	A3	press
859.128	n/a	RESPONSE	        M8	2	23	B4	release
859.13	n/a	RESPONSE	        M8	2	11	B3	release
859.303	n/a	RESPONSE	        M8	2	05	F3	press
859.383	n/a	RESPONSE	        M8	2	09	A3	release
859.615	n/a	RESPONSE	        M8	2	05	F3	release
859.995	n/a	RESPONSE	        M8	2	09	A3	press
860.146	n/a	RESPONSE	        M8	2	09	A3	release
860.308	n/a	RESPONSE	        M8	2	05	F3	press
860.409	n/a	RESPONSE	        M8	2	05	F3	release
866.526	6.317	CUE_LISTEN	        M6	1	n/a	n/a	n/a
872.843	7.758	FIXCROSS	n/a	n/a	n/a	n/a	n/a
880.601	6.317	CUE_PLAYBACK_RIGHT_HAND	        M6	1	n/a	n/a	n/a
880.994	n/a	RESPONSE	        M6	1	14	D4	press
881.236	n/a	RESPONSE	        M6	1	13	C#4	press
881.359	n/a	RESPONSE	        M6	1	14	D4	release
881.588	n/a	RESPONSE	        M6	1	13	C#4	release
882.099	n/a	RESPONSE	        M6	1	14	D4	press
882.35	n/a	RESPONSE	        M6	1	13	C#4	press
882.441	n/a	RESPONSE	        M6	1	14	D4	release
882.563	n/a	RESPONSE	        M6	1	14	D4	press
882.746	n/a	RESPONSE	        M6	1	13	C#4	release
882.995	n/a	RESPONSE	        M6	1	17	F4	press
883.156	n/a	RESPONSE	        M6	1	14	D4	release
883.168	n/a	RESPONSE	        M6	1	19	G4	press
883.279	n/a	RESPONSE	        M6	1	17	F4	release
883.43	n/a	RESPONSE	        M6	1	19	G4	release
886.918	7.758	FIXCROSS	n/a	n/a	n/a	n/a	n/a
887.258	n/a	RESPONSE	        M6	1	19	G4	press
887.434	n/a	RESPONSE	        M6	1	18	F#4	press
887.508	n/a	RESPONSE	        M6	1	19	G4	release
887.643	n/a	RESPONSE	        M6	1	19	G4	press
887.801	n/a	RESPONSE	        M6	1	18	F#4	release
888.184	n/a	RESPONSE	        M6	1	19	G4	release
894.676	6.317	CUE_LISTEN	        M6	2	n/a	n/a	n/a
900.993	7.758	FIXCROSS	n/a	n/a	n/a	n/a	n/a
908.751	260.421	CUE_PLAYBACK_RIGHT_HAND	        M6	2	n/a	n/a	n/a
909.024	n/a	RESPONSE	        M6	2	23	B4	press
910.01	n/a	RESPONSE	        M6	2	18	F#4	press
910.061	n/a	RESPONSE	        M6	2	23	B4	release
911.53	n/a	RESPONSE	        M6	2	23	B4	press
911.571	n/a	RESPONSE	        M6	2	18	F#4	release
912.483	n/a	RESPONSE	        M6	2	21	A4	press
912.624	n/a	RESPONSE	        M6	2	23	B4	release
913.251	n/a	FIXCROSS	n/a	n/a	n/a	n/a	n/a
913.795	n/a	RESPONSE	        M6	2	21	A4	release
