onset	duration	trial_type	trial_number	stroop_condition	stim_text(PL)	stim_text(eng)	stim_color(PL)	stim_color(eng)	response_type	response_color
0.0	n/a	RESPONSE	n/a	n/a	n/a	n/a	n/a	n/a	n/a	n/a
0.0314	1.0167	ITI	n/a	n/a	n/a	n/a	n/a	n/a	n/a	n/a
1.048	0.5	FIXCROSS	n/a	n/a	n/a	n/a	n/a	n/a	n/a	n/a
1.548	1.6	T_INK	1	Neutral	xxxxx	xxxxx	zielony	green	hit	n/a
3.1353	n/a	RESPONSE	n/a	n/a	n/a	n/a	n/a	n/a	n/a	green
3.1481	0.5	FEEDBACK	n/a	n/a	n/a	n/a	n/a	n/a	n/a	n/a
3.6481	1.0	ITI	n/a	n/a	n/a	n/a	n/a	n/a	n/a	n/a
4.6481	0.5	FIXCROSS	n/a	n/a	n/a	n/a	n/a	n/a	n/a	n/a
5.1481	0.75	T_INK	2	Incongruent	czerwony	red	zielony	green	hit	n/a
5.8867	n/a	RESPONSE	n/a	n/a	n/a	n/a	n/a	n/a	n/a	green
5.8981	0.5	FEEDBACK	n/a	n/a	n/a	n/a	n/a	n/a	n/a	n/a
6.3981	1.0	ITI	n/a	n/a	n/a	n/a	n/a	n/a	n/a	n/a
7.3981	0.5167	FIXCROSS	n/a	n/a	n/a	n/a	n/a	n/a	n/a	n/a
7.9148	0.9	T_INK	3	Incongruent	czerwony	red	żółty	yellow	hit	n/a
8.7821	n/a	RESPONSE	n/a	n/a	n/a	n/a	n/a	n/a	n/a	yellow
8.8148	0.5167	FEEDBACK	n/a	n/a	n/a	n/a	n/a	n/a	n/a	n/a
9.3314	1.0167	ITI	n/a	n/a	n/a	n/a	n/a	n/a	n/a	n/a
10.3481	0.5167	FIXCROSS	n/a	n/a	n/a	n/a	n/a	n/a	n/a	n/a
10.8648	0.6667	T_INK	4	Neutral	xxxxxxxxx	xxxxxxxxx	żółty	yellow	hit	n/a
11.5014	n/a	RESPONSE	n/a	n/a	n/a	n/a	n/a	n/a	n/a	yellow
11.5315	0.5167	FEEDBACK	n/a	n/a	n/a	n/a	n/a	n/a	n/a	n/a
12.0481	1.0167	ITI	n/a	n/a	n/a	n/a	n/a	n/a	n/a	n/a
13.0648	0.5167	FIXCROSS	n/a	n/a	n/a	n/a	n/a	n/a	n/a	n/a
13.5815	0.45	T_INK	5	Neutral	xxxxxxx	xxxxxxx	czerwony	red	hit	n/a
13.9967	n/a	RESPONSE	n/a	n/a	n/a	n/a	n/a	n/a	n/a	red
14.0315	0.5167	FEEDBACK	n/a	n/a	n/a	n/a	n/a	n/a	n/a	n/a
14.5481	1.0167	ITI	n/a	n/a	n/a	n/a	n/a	n/a	n/a	n/a
15.5648	0.5167	FIXCROSS	n/a	n/a	n/a	n/a	n/a	n/a	n/a	n/a
16.0815	0.6333	T_INK	6	Incongruent	zielony	green	żółty	yellow	hit	n/a
16.684	n/a	RESPONSE	n/a	n/a	n/a	n/a	n/a	n/a	n/a	yellow
16.7148	0.5167	FEEDBACK	n/a	n/a	n/a	n/a	n/a	n/a	n/a	n/a
17.2315	1.0167	ITI	n/a	n/a	n/a	n/a	n/a	n/a	n/a	n/a
18.2482	0.5167	FIXCROSS	n/a	n/a	n/a	n/a	n/a	n/a	n/a	n/a
18.7648	0.7	T_INK	7	Incongruent	żółty	yellow	niebieski	blue	hit	n/a
19.4354	n/a	RESPONSE	n/a	n/a	n/a	n/a	n/a	n/a	n/a	blue
19.4648	0.5167	FEEDBACK	n/a	n/a	n/a	n/a	n/a	n/a	n/a	n/a
19.9815	1.0167	ITI	n/a	n/a	n/a	n/a	n/a	n/a	n/a	n/a
20.9982	0.5167	FIXCROSS	n/a	n/a	n/a	n/a	n/a	n/a	n/a	n/a
21.5149	0.7	T_INK	8	Incongruent	niebieski	blue	żółty	yellow	hit	n/a
22.1869	n/a	RESPONSE	n/a	n/a	n/a	n/a	n/a	n/a	n/a	yellow
22.2149	0.5167	FEEDBACK	n/a	n/a	n/a	n/a	n/a	n/a	n/a	n/a
22.7315	1.0167	ITI	n/a	n/a	n/a	n/a	n/a	n/a	n/a	n/a
23.7482	0.5167	FIXCROSS	n/a	n/a	n/a	n/a	n/a	n/a	n/a	n/a
24.2649	0.9	T_INK	9	Incongruent	żółty	yellow	zielony	green	hit	n/a
25.1303	n/a	RESPONSE	n/a	n/a	n/a	n/a	n/a	n/a	n/a	green
25.1649	0.5167	FEEDBACK	n/a	n/a	n/a	n/a	n/a	n/a	n/a	n/a
25.6816	1.0167	ITI	n/a	n/a	n/a	n/a	n/a	n/a	n/a	n/a
26.6982	0.5167	FIXCROSS	n/a	n/a	n/a	n/a	n/a	n/a	n/a	n/a
27.2149	0.5167	T_INK	10	Neutral	xxxxxxx	xxxxxxx	żółty	yellow	hit	n/a
27.7059	n/a	RESPONSE	n/a	n/a	n/a	n/a	n/a	n/a	n/a	yellow
27.7316	0.5167	FEEDBACK	n/a	n/a	n/a	n/a	n/a	n/a	n/a	n/a
28.2483	1.0167	ITI	n/a	n/a	n/a	n/a	n/a	n/a	n/a	n/a
29.2649	0.5167	FIXCROSS	n/a	n/a	n/a	n/a	n/a	n/a	n/a	n/a
29.7816	0.5667	T_INK	11	Neutral	xxxxxxxxx	xxxxxxxxx	czerwony	red	hit	n/a
30.3293	n/a	RESPONSE	n/a	n/a	n/a	n/a	n/a	n/a	n/a	red
30.3483	0.5167	FEEDBACK	n/a	n/a	n/a	n/a	n/a	n/a	n/a	n/a
30.8649	1.0167	ITI	n/a	n/a	n/a	n/a	n/a	n/a	n/a	n/a
31.8816	0.5167	FIXCROSS	n/a	n/a	n/a	n/a	n/a	n/a	n/a	n/a
32.3983	0.6833	T_INK	12	Neutral	xxxxxxxx	xxxxxxxx	żółty	yellow	hit	n/a
33.0488	n/a	RESPONSE	n/a	n/a	n/a	n/a	n/a	n/a	n/a	yellow
33.0816	0.5167	FEEDBACK	n/a	n/a	n/a	n/a	n/a	n/a	n/a	n/a
33.5983	1.0333	ITI	n/a	n/a	n/a	n/a	n/a	n/a	n/a	n/a
40.6474	n/a	RESPONSE	n/a	n/a	n/a	n/a	n/a	n/a	n/a	n/a
40.715	1.0167	ITI	n/a	n/a	n/a	n/a	n/a	n/a	n/a	n/a
41.7317	0.5167	FIXCROSS	n/a	n/a	n/a	n/a	n/a	n/a	n/a	n/a
42.2484	0.8333	INK	1	Neutral	xxxxxxxxx	xxxxxxxxx	zielony	green	hit	n/a
43.0629	n/a	RESPONSE	n/a	n/a	n/a	n/a	n/a	n/a	n/a	green
43.0817	1.0167	ITI	n/a	n/a	n/a	n/a	n/a	n/a	n/a	n/a
44.0984	0.5167	FIXCROSS	n/a	n/a	n/a	n/a	n/a	n/a	n/a	n/a
44.615	0.65	INK	2	Neutral	xxxxx	xxxxx	niebieski	blue	hit	n/a
45.2384	n/a	RESPONSE	n/a	n/a	n/a	n/a	n/a	n/a	n/a	blue
45.265	1.0167	ITI	n/a	n/a	n/a	n/a	n/a	n/a	n/a	n/a
46.2817	0.5167	FIXCROSS	n/a	n/a	n/a	n/a	n/a	n/a	n/a	n/a
46.7984	0.5667	INK	3	Neutral	xxxxxxxxx	xxxxxxxxx	czerwony	red	hit	n/a
47.329	n/a	RESPONSE	n/a	n/a	n/a	n/a	n/a	n/a	n/a	red
47.3651	1.0167	ITI	n/a	n/a	n/a	n/a	n/a	n/a	n/a	n/a
48.3817	0.5167	FIXCROSS	n/a	n/a	n/a	n/a	n/a	n/a	n/a	n/a
48.8984	0.6333	INK	4	Incongruent	żółty	yellow	czerwony	red	hit	n/a
49.5093	n/a	RESPONSE	n/a	n/a	n/a	n/a	n/a	n/a	n/a	red
49.5317	1.0167	ITI	n/a	n/a	n/a	n/a	n/a	n/a	n/a	n/a
50.5484	0.5167	FIXCROSS	n/a	n/a	n/a	n/a	n/a	n/a	n/a	n/a
51.0651	0.8	INK	5	Neutral	xxxxxxxxx	xxxxxxxxx	zielony	green	hit	n/a
51.8446	n/a	RESPONSE	n/a	n/a	n/a	n/a	n/a	n/a	n/a	green
51.8651	1.0167	ITI	n/a	n/a	n/a	n/a	n/a	n/a	n/a	n/a
52.8818	0.5167	FIXCROSS	n/a	n/a	n/a	n/a	n/a	n/a	n/a	n/a
53.3984	0.6333	INK	6	Neutral	xxxxxxx	xxxxxxx	żółty	yellow	hit	n/a
54.0041	n/a	RESPONSE	n/a	n/a	n/a	n/a	n/a	n/a	n/a	yellow
54.0318	1.0167	ITI	n/a	n/a	n/a	n/a	n/a	n/a	n/a	n/a
55.0485	0.5167	FIXCROSS	n/a	n/a	n/a	n/a	n/a	n/a	n/a	n/a
55.5651	0.7	INK	7	Incongruent	zielony	green	żółty	yellow	hit	n/a
56.2435	n/a	RESPONSE	n/a	n/a	n/a	n/a	n/a	n/a	n/a	yellow
56.2651	1.0167	ITI	n/a	n/a	n/a	n/a	n/a	n/a	n/a	n/a
57.2818	0.5167	FIXCROSS	n/a	n/a	n/a	n/a	n/a	n/a	n/a	n/a
57.7985	0.5667	INK	8	Incongruent	niebieski	blue	zielony	green	hit	n/a
58.339	n/a	RESPONSE	n/a	n/a	n/a	n/a	n/a	n/a	n/a	green
58.3651	1.0167	ITI	n/a	n/a	n/a	n/a	n/a	n/a	n/a	n/a
59.3818	0.5167	FIXCROSS	n/a	n/a	n/a	n/a	n/a	n/a	n/a	n/a
59.8985	0.65	INK	9	Neutral	xxxxxxx	xxxxxxx	niebieski	blue	hit	n/a
60.5305	n/a	RESPONSE	n/a	n/a	n/a	n/a	n/a	n/a	n/a	blue
60.5485	1.0167	ITI	n/a	n/a	n/a	n/a	n/a	n/a	n/a	n/a
61.5652	0.5167	FIXCROSS	n/a	n/a	n/a	n/a	n/a	n/a	n/a	n/a
62.0818	0.7	INK	10	Incongruent	żółty	yellow	niebieski	blue	hit	n/a
62.754	n/a	RESPONSE	n/a	n/a	n/a	n/a	n/a	n/a	n/a	blue
62.7818	1.0167	ITI	n/a	n/a	n/a	n/a	n/a	n/a	n/a	n/a
63.7985	0.5167	FIXCROSS	n/a	n/a	n/a	n/a	n/a	n/a	n/a	n/a
64.3152	1.3	INK	11	Neutral	xxxxxxxx	xxxxxxxx	zielony	green	hit	n/a
65.5854	n/a	RESPONSE	n/a	n/a	n/a	n/a	n/a	n/a	n/a	green
65.6152	1.0167	ITI	n/a	n/a	n/a	n/a	n/a	n/a	n/a	n/a
66.6319	0.5167	FIXCROSS	n/a	n/a	n/a	n/a	n/a	n/a	n/a	n/a
67.1485	0.85	INK	12	Incongruent	zielony	green	czerwony	red	hit	n/a
67.9689	n/a	RESPONSE	n/a	n/a	n/a	n/a	n/a	n/a	n/a	red
67.9985	1.0167	ITI	n/a	n/a	n/a	n/a	n/a	n/a	n/a	n/a
69.0152	0.5167	FIXCROSS	n/a	n/a	n/a	n/a	n/a	n/a	n/a	n/a
69.5319	0.75	INK	13	Neutral	xxxxxxxx	xxxxxxxx	niebieski	blue	hit	n/a
70.2564	n/a	RESPONSE	n/a	n/a	n/a	n/a	n/a	n/a	n/a	blue
70.2819	1.0167	ITI	n/a	n/a	n/a	n/a	n/a	n/a	n/a	n/a
71.2986	0.5167	FIXCROSS	n/a	n/a	n/a	n/a	n/a	n/a	n/a	n/a
71.8152	0.7	INK	14	Neutral	xxxxxxx	xxxxxxx	niebieski	blue	hit	n/a
72.4959	n/a	RESPONSE	n/a	n/a	n/a	n/a	n/a	n/a	n/a	blue
72.5152	1.0167	ITI	n/a	n/a	n/a	n/a	n/a	n/a	n/a	n/a
73.5319	0.5167	FIXCROSS	n/a	n/a	n/a	n/a	n/a	n/a	n/a	n/a
74.0486	0.85	INK	15	Incongruent	zielony	green	czerwony	red	hit	n/a
74.8794	n/a	RESPONSE	n/a	n/a	n/a	n/a	n/a	n/a	n/a	red
74.8986	1.0167	ITI	n/a	n/a	n/a	n/a	n/a	n/a	n/a	n/a
75.9153	0.5167	FIXCROSS	n/a	n/a	n/a	n/a	n/a	n/a	n/a	n/a
76.4319	0.6667	INK	16	Neutral	xxxxxxxxx	xxxxxxxxx	żółty	yellow	hit	n/a
77.0709	n/a	RESPONSE	n/a	n/a	n/a	n/a	n/a	n/a	n/a	yellow
77.0986	1.0167	ITI	n/a	n/a	n/a	n/a	n/a	n/a	n/a	n/a
78.1153	0.5167	FIXCROSS	n/a	n/a	n/a	n/a	n/a	n/a	n/a	n/a
78.632	0.6	INK	17	Incongruent	czerwony	red	zielony	green	hit	n/a
79.1985	n/a	RESPONSE	n/a	n/a	n/a	n/a	n/a	n/a	n/a	green
79.232	1.0167	ITI	n/a	n/a	n/a	n/a	n/a	n/a	n/a	n/a
80.2486	0.5167	FIXCROSS	n/a	n/a	n/a	n/a	n/a	n/a	n/a	n/a
80.7653	0.7	INK	18	Incongruent	zielony	green	żółty	yellow	hit	n/a
81.438	n/a	RESPONSE	n/a	n/a	n/a	n/a	n/a	n/a	n/a	yellow
81.4653	1.0167	ITI	n/a	n/a	n/a	n/a	n/a	n/a	n/a	n/a
82.482	0.5167	FIXCROSS	n/a	n/a	n/a	n/a	n/a	n/a	n/a	n/a
82.9987	0.7333	INK	19	Neutral	xxxxx	xxxxx	niebieski	blue	hit	n/a
83.7095	n/a	RESPONSE	n/a	n/a	n/a	n/a	n/a	n/a	n/a	blue
83.732	1.0167	ITI	n/a	n/a	n/a	n/a	n/a	n/a	n/a	n/a
84.7487	0.5167	FIXCROSS	n/a	n/a	n/a	n/a	n/a	n/a	n/a	n/a
85.2653	0.6667	INK	20	Incongruent	niebieski	blue	żółty	yellow	hit	n/a
85.901	n/a	RESPONSE	n/a	n/a	n/a	n/a	n/a	n/a	n/a	yellow
85.932	1.0167	ITI	n/a	n/a	n/a	n/a	n/a	n/a	n/a	n/a
86.9487	0.5167	FIXCROSS	n/a	n/a	n/a	n/a	n/a	n/a	n/a	n/a
87.4654	0.6167	INK	21	Incongruent	żółty	yellow	czerwony	red	incorrect	n/a
88.0606	n/a	RESPONSE	n/a	n/a	n/a	n/a	n/a	n/a	n/a	green
88.082	1.0167	ITI	n/a	n/a	n/a	n/a	n/a	n/a	n/a	n/a
89.0987	0.5167	FIXCROSS	n/a	n/a	n/a	n/a	n/a	n/a	n/a	n/a
89.6154	0.8333	INK	22	Neutral	xxxxxxx	xxxxxxx	czerwony	red	hit	n/a
90.4281	n/a	RESPONSE	n/a	n/a	n/a	n/a	n/a	n/a	n/a	red
90.4487	1.0167	ITI	n/a	n/a	n/a	n/a	n/a	n/a	n/a	n/a
91.4654	0.5167	FIXCROSS	n/a	n/a	n/a	n/a	n/a	n/a	n/a	n/a
91.9821	0.7	INK	23	Neutral	xxxxxxx	xxxxxxx	czerwony	red	hit	n/a
92.6516	n/a	RESPONSE	n/a	n/a	n/a	n/a	n/a	n/a	n/a	red
92.6821	1.0167	ITI	n/a	n/a	n/a	n/a	n/a	n/a	n/a	n/a
93.6987	0.5167	FIXCROSS	n/a	n/a	n/a	n/a	n/a	n/a	n/a	n/a
94.2154	0.9833	INK	24	Neutral	xxxxx	xxxxx	niebieski	blue	hit	n/a
95.179	n/a	RESPONSE	n/a	n/a	n/a	n/a	n/a	n/a	n/a	blue
95.1987	1.0167	ITI	n/a	n/a	n/a	n/a	n/a	n/a	n/a	n/a
96.2154	0.5167	FIXCROSS	n/a	n/a	n/a	n/a	n/a	n/a	n/a	n/a
96.7321	0.7667	INK	25	Neutral	xxxxxxxx	xxxxxxxx	zielony	green	hit	n/a
97.4665	n/a	RESPONSE	n/a	n/a	n/a	n/a	n/a	n/a	n/a	green
97.4988	1.0167	ITI	n/a	n/a	n/a	n/a	n/a	n/a	n/a	n/a
98.5154	0.5167	FIXCROSS	n/a	n/a	n/a	n/a	n/a	n/a	n/a	n/a
99.0321	0.75	INK	26	Incongruent	czerwony	red	żółty	yellow	hit	n/a
99.7541	n/a	RESPONSE	n/a	n/a	n/a	n/a	n/a	n/a	n/a	yellow
99.7821	1.0167	ITI	n/a	n/a	n/a	n/a	n/a	n/a	n/a	n/a
100.7988	0.5167	FIXCROSS	n/a	n/a	n/a	n/a	n/a	n/a	n/a	n/a
101.3155	0.7333	INK	27	Incongruent	niebieski	blue	żółty	yellow	hit	n/a
102.0256	n/a	RESPONSE	n/a	n/a	n/a	n/a	n/a	n/a	n/a	yellow
102.0488	1.0167	ITI	n/a	n/a	n/a	n/a	n/a	n/a	n/a	n/a
103.0655	0.5167	FIXCROSS	n/a	n/a	n/a	n/a	n/a	n/a	n/a	n/a
103.5821	1.0667	INK	28	Neutral	xxxxx	xxxxx	czerwony	red	hit	n/a
104.617	n/a	RESPONSE	n/a	n/a	n/a	n/a	n/a	n/a	n/a	red
104.6488	1.0167	ITI	n/a	n/a	n/a	n/a	n/a	n/a	n/a	n/a
105.6655	0.5167	FIXCROSS	n/a	n/a	n/a	n/a	n/a	n/a	n/a	n/a
106.1822	0.9333	INK	29	Neutral	xxxxx	xxxxx	zielony	green	hit	n/a
107.0965	n/a	RESPONSE	n/a	n/a	n/a	n/a	n/a	n/a	n/a	green
107.1155	1.0167	ITI	n/a	n/a	n/a	n/a	n/a	n/a	n/a	n/a
108.1322	0.5167	FIXCROSS	n/a	n/a	n/a	n/a	n/a	n/a	n/a	n/a
108.6488	0.7	INK	30	Incongruent	zielony	green	niebieski	blue	hit	n/a
109.3201	n/a	RESPONSE	n/a	n/a	n/a	n/a	n/a	n/a	n/a	blue
109.3488	1.0167	ITI	n/a	n/a	n/a	n/a	n/a	n/a	n/a	n/a
110.3655	0.5167	FIXCROSS	n/a	n/a	n/a	n/a	n/a	n/a	n/a	n/a
110.8822	0.7667	INK	31	Incongruent	czerwony	red	niebieski	blue	hit	n/a
111.6236	n/a	RESPONSE	n/a	n/a	n/a	n/a	n/a	n/a	n/a	blue
111.6489	1.0167	ITI	n/a	n/a	n/a	n/a	n/a	n/a	n/a	n/a
112.6655	0.5167	FIXCROSS	n/a	n/a	n/a	n/a	n/a	n/a	n/a	n/a
113.1822	1.15	INK	32	Incongruent	żółty	yellow	zielony	green	hit	n/a
114.311	n/a	RESPONSE	n/a	n/a	n/a	n/a	n/a	n/a	n/a	green
114.3322	1.0167	ITI	n/a	n/a	n/a	n/a	n/a	n/a	n/a	n/a
115.3489	0.5167	FIXCROSS	n/a	n/a	n/a	n/a	n/a	n/a	n/a	n/a
115.8656	0.7833	INK	33	Neutral	xxxxxxxxx	xxxxxxxxx	żółty	yellow	hit	n/a
116.6305	n/a	RESPONSE	n/a	n/a	n/a	n/a	n/a	n/a	n/a	yellow
116.6489	1.0167	ITI	n/a	n/a	n/a	n/a	n/a	n/a	n/a	n/a
117.6656	0.5167	FIXCROSS	n/a	n/a	n/a	n/a	n/a	n/a	n/a	n/a
118.1822	0.7167	INK	34	Neutral	xxxxxxx	xxxxxxx	żółty	yellow	hit	n/a
118.87	n/a	RESPONSE	n/a	n/a	n/a	n/a	n/a	n/a	n/a	yellow
118.8989	1.0167	ITI	n/a	n/a	n/a	n/a	n/a	n/a	n/a	n/a
119.9156	0.5167	FIXCROSS	n/a	n/a	n/a	n/a	n/a	n/a	n/a	n/a
120.4323	0.8833	INK	35	Neutral	xxxxxxxx	xxxxxxxx	niebieski	blue	hit	n/a
121.2855	n/a	RESPONSE	n/a	n/a	n/a	n/a	n/a	n/a	n/a	blue
121.3156	1.0167	ITI	n/a	n/a	n/a	n/a	n/a	n/a	n/a	n/a
122.3323	0.5167	FIXCROSS	n/a	n/a	n/a	n/a	n/a	n/a	n/a	n/a
122.8489	0.6667	INK	36	Incongruent	czerwony	red	żółty	yellow	hit	n/a
123.4931	n/a	RESPONSE	n/a	n/a	n/a	n/a	n/a	n/a	n/a	yellow
123.5156	1.0167	ITI	n/a	n/a	n/a	n/a	n/a	n/a	n/a	n/a
124.5323	0.5167	FIXCROSS	n/a	n/a	n/a	n/a	n/a	n/a	n/a	n/a
125.049	0.8	INK	37	Incongruent	zielony	green	czerwony	red	hit	n/a
125.8286	n/a	RESPONSE	n/a	n/a	n/a	n/a	n/a	n/a	n/a	red
125.849	1.0167	ITI	n/a	n/a	n/a	n/a	n/a	n/a	n/a	n/a
126.8656	0.5167	FIXCROSS	n/a	n/a	n/a	n/a	n/a	n/a	n/a	n/a
127.3823	0.7	INK	38	Neutral	xxxxxxxx	xxxxxxxx	żółty	yellow	hit	n/a
128.0521	n/a	RESPONSE	n/a	n/a	n/a	n/a	n/a	n/a	n/a	yellow
128.0823	1.0167	ITI	n/a	n/a	n/a	n/a	n/a	n/a	n/a	n/a
129.099	0.5167	FIXCROSS	n/a	n/a	n/a	n/a	n/a	n/a	n/a	n/a
129.6157	1.1833	INK	39	Incongruent	niebieski	blue	zielony	green	hit	n/a
130.7715	n/a	RESPONSE	n/a	n/a	n/a	n/a	n/a	n/a	n/a	green
130.799	1.0167	ITI	n/a	n/a	n/a	n/a	n/a	n/a	n/a	n/a
130.9315	n/a	RESPONSE	n/a	n/a	n/a	n/a	n/a	n/a	n/a	green
131.8157	0.5167	FIXCROSS	n/a	n/a	n/a	n/a	n/a	n/a	n/a	n/a
132.3323	0.5833	INK	40	Neutral	xxxxxxx	xxxxxxx	niebieski	blue	hit	n/a
132.8831	n/a	RESPONSE	n/a	n/a	n/a	n/a	n/a	n/a	n/a	blue
132.9157	1.0167	ITI	n/a	n/a	n/a	n/a	n/a	n/a	n/a	n/a
133.9324	0.5167	FIXCROSS	n/a	n/a	n/a	n/a	n/a	n/a	n/a	n/a
134.449	0.7	INK	41	Incongruent	czerwony	red	niebieski	blue	hit	n/a
135.1226	n/a	RESPONSE	n/a	n/a	n/a	n/a	n/a	n/a	n/a	blue
135.149	1.0167	ITI	n/a	n/a	n/a	n/a	n/a	n/a	n/a	n/a
136.1657	0.5167	FIXCROSS	n/a	n/a	n/a	n/a	n/a	n/a	n/a	n/a
136.6824	1.0833	INK	42	Incongruent	niebieski	blue	czerwony	red	hit	n/a
137.746	n/a	RESPONSE	n/a	n/a	n/a	n/a	n/a	n/a	n/a	red
137.7657	1.0167	ITI	n/a	n/a	n/a	n/a	n/a	n/a	n/a	n/a
138.7824	0.5167	FIXCROSS	n/a	n/a	n/a	n/a	n/a	n/a	n/a	n/a
139.2991	0.7667	INK	43	Incongruent	żółty	yellow	niebieski	blue	hit	n/a
140.0335	n/a	RESPONSE	n/a	n/a	n/a	n/a	n/a	n/a	n/a	blue
140.0657	1.0167	ITI	n/a	n/a	n/a	n/a	n/a	n/a	n/a	n/a
141.0824	0.5167	FIXCROSS	n/a	n/a	n/a	n/a	n/a	n/a	n/a	n/a
141.5991	0.9334	INK	44	Incongruent	niebieski	blue	czerwony	red	hit	n/a
142.513	n/a	RESPONSE	n/a	n/a	n/a	n/a	n/a	n/a	n/a	red
142.5324	1.0167	ITI	n/a	n/a	n/a	n/a	n/a	n/a	n/a	n/a
143.5491	0.5167	FIXCROSS	n/a	n/a	n/a	n/a	n/a	n/a	n/a	n/a
144.0658	0.75	INK	45	Neutral	xxxxx	xxxxx	zielony	green	hit	n/a
144.7846	n/a	RESPONSE	n/a	n/a	n/a	n/a	n/a	n/a	n/a	green
144.8158	1.0167	ITI	n/a	n/a	n/a	n/a	n/a	n/a	n/a	n/a
145.8324	0.5167	FIXCROSS	n/a	n/a	n/a	n/a	n/a	n/a	n/a	n/a
146.3491	0.6833	INK	46	Neutral	xxxxxxxx	xxxxxxxx	niebieski	blue	hit	n/a
147.0081	n/a	RESPONSE	n/a	n/a	n/a	n/a	n/a	n/a	n/a	blue
147.0324	1.0167	ITI	n/a	n/a	n/a	n/a	n/a	n/a	n/a	n/a
148.0491	0.5167	FIXCROSS	n/a	n/a	n/a	n/a	n/a	n/a	n/a	n/a
148.5658	0.7834	INK	47	Incongruent	czerwony	red	zielony	green	hit	n/a
149.3276	n/a	RESPONSE	n/a	n/a	n/a	n/a	n/a	n/a	n/a	green
149.3491	1.0167	ITI	n/a	n/a	n/a	n/a	n/a	n/a	n/a	n/a
150.3658	0.5167	FIXCROSS	n/a	n/a	n/a	n/a	n/a	n/a	n/a	n/a
150.8825	0.75	INK	48	Incongruent	zielony	green	niebieski	blue	hit	n/a
151.6151	n/a	RESPONSE	n/a	n/a	n/a	n/a	n/a	n/a	n/a	blue
151.6325	1.0167	ITI	n/a	n/a	n/a	n/a	n/a	n/a	n/a	n/a
152.6492	0.5167	FIXCROSS	n/a	n/a	n/a	n/a	n/a	n/a	n/a	n/a
153.1658	0.7833	INK	49	Neutral	xxxxx	xxxxx	czerwony	red	hit	n/a
153.9186	n/a	RESPONSE	n/a	n/a	n/a	n/a	n/a	n/a	n/a	red
153.9492	1.0167	ITI	n/a	n/a	n/a	n/a	n/a	n/a	n/a	n/a
154.9658	0.5167	FIXCROSS	n/a	n/a	n/a	n/a	n/a	n/a	n/a	n/a
155.4825	1.0667	INK	50	Incongruent	żółty	yellow	zielony	green	hit	n/a
156.5261	n/a	RESPONSE	n/a	n/a	n/a	n/a	n/a	n/a	n/a	green
156.5492	1.0167	ITI	n/a	n/a	n/a	n/a	n/a	n/a	n/a	n/a
157.5659	0.5167	FIXCROSS	n/a	n/a	n/a	n/a	n/a	n/a	n/a	n/a
158.0825	0.6667	INK	51	Neutral	xxxxxxxx	xxxxxxxx	zielony	green	hit	n/a
158.7176	n/a	RESPONSE	n/a	n/a	n/a	n/a	n/a	n/a	n/a	green
158.7492	1.0167	ITI	n/a	n/a	n/a	n/a	n/a	n/a	n/a	n/a
159.7659	0.5167	FIXCROSS	n/a	n/a	n/a	n/a	n/a	n/a	n/a	n/a
160.2825	0.8	INK	52	Neutral	xxxxxxxx	xxxxxxxx	żółty	yellow	hit	n/a
161.0531	n/a	RESPONSE	n/a	n/a	n/a	n/a	n/a	n/a	n/a	yellow
161.0825	1.0167	ITI	n/a	n/a	n/a	n/a	n/a	n/a	n/a	n/a
162.0992	0.5167	FIXCROSS	n/a	n/a	n/a	n/a	n/a	n/a	n/a	n/a
162.6159	0.9167	INK	53	Incongruent	zielony	green	żółty	yellow	hit	n/a
163.5006	n/a	RESPONSE	n/a	n/a	n/a	n/a	n/a	n/a	n/a	yellow
163.5326	1.0167	ITI	n/a	n/a	n/a	n/a	n/a	n/a	n/a	n/a
164.5492	0.5167	FIXCROSS	n/a	n/a	n/a	n/a	n/a	n/a	n/a	n/a
165.0659	0.8333	INK	54	Incongruent	czerwony	red	niebieski	blue	hit	n/a
165.8682	n/a	RESPONSE	n/a	n/a	n/a	n/a	n/a	n/a	n/a	blue
165.8992	1.0167	ITI	n/a	n/a	n/a	n/a	n/a	n/a	n/a	n/a
166.9159	0.5167	FIXCROSS	n/a	n/a	n/a	n/a	n/a	n/a	n/a	n/a
167.4326	0.85	INK	55	Neutral	xxxxxxxxx	xxxxxxxxx	zielony	green	hit	n/a
168.2516	n/a	RESPONSE	n/a	n/a	n/a	n/a	n/a	n/a	n/a	green
168.2826	1.0167	ITI	n/a	n/a	n/a	n/a	n/a	n/a	n/a	n/a
169.2993	0.5167	FIXCROSS	n/a	n/a	n/a	n/a	n/a	n/a	n/a	n/a
169.816	1.2167	INK	56	Neutral	xxxxxxxx	xxxxxxxx	żółty	yellow	hit	n/a
171.003	n/a	RESPONSE	n/a	n/a	n/a	n/a	n/a	n/a	n/a	yellow
171.0326	1.0167	ITI	n/a	n/a	n/a	n/a	n/a	n/a	n/a	n/a
172.0493	0.5167	FIXCROSS	n/a	n/a	n/a	n/a	n/a	n/a	n/a	n/a
172.566	0.85	INK	57	Incongruent	zielony	green	niebieski	blue	hit	n/a
173.3865	n/a	RESPONSE	n/a	n/a	n/a	n/a	n/a	n/a	n/a	blue
173.416	1.0167	ITI	n/a	n/a	n/a	n/a	n/a	n/a	n/a	n/a
174.4326	0.5167	FIXCROSS	n/a	n/a	n/a	n/a	n/a	n/a	n/a	n/a
174.9493	0.6833	INK	58	Incongruent	czerwony	red	żółty	yellow	hit	n/a
175.6101	n/a	RESPONSE	n/a	n/a	n/a	n/a	n/a	n/a	n/a	yellow
175.6326	1.0167	ITI	n/a	n/a	n/a	n/a	n/a	n/a	n/a	n/a
176.6493	0.5167	FIXCROSS	n/a	n/a	n/a	n/a	n/a	n/a	n/a	n/a
177.166	0.7833	INK	59	Neutral	xxxxx	xxxxx	zielony	green	hit	n/a
177.9296	n/a	RESPONSE	n/a	n/a	n/a	n/a	n/a	n/a	n/a	green
177.9493	1.0167	ITI	n/a	n/a	n/a	n/a	n/a	n/a	n/a	n/a
178.966	0.5167	FIXCROSS	n/a	n/a	n/a	n/a	n/a	n/a	n/a	n/a
179.4827	0.6667	INK	60	Neutral	xxxxxxxxx	xxxxxxxxx	żółty	yellow	hit	n/a
180.1211	n/a	RESPONSE	n/a	n/a	n/a	n/a	n/a	n/a	n/a	yellow
180.1494	1.0167	ITI	n/a	n/a	n/a	n/a	n/a	n/a	n/a	n/a
181.166	0.5167	FIXCROSS	n/a	n/a	n/a	n/a	n/a	n/a	n/a	n/a
181.6827	0.8667	INK	61	Neutral	xxxxxxxxx	xxxxxxxxx	czerwony	red	hit	n/a
182.5206	n/a	RESPONSE	n/a	n/a	n/a	n/a	n/a	n/a	n/a	red
182.5494	1.0167	ITI	n/a	n/a	n/a	n/a	n/a	n/a	n/a	n/a
183.566	0.5167	FIXCROSS	n/a	n/a	n/a	n/a	n/a	n/a	n/a	n/a
184.0827	0.65	INK	62	Neutral	xxxxxxxxx	xxxxxxxxx	czerwony	red	hit	n/a
184.7121	n/a	RESPONSE	n/a	n/a	n/a	n/a	n/a	n/a	n/a	red
184.7327	1.0167	ITI	n/a	n/a	n/a	n/a	n/a	n/a	n/a	n/a
185.7494	0.5167	FIXCROSS	n/a	n/a	n/a	n/a	n/a	n/a	n/a	n/a
186.2661	0.8833	INK	63	Incongruent	niebieski	blue	zielony	green	hit	n/a
187.1276	n/a	RESPONSE	n/a	n/a	n/a	n/a	n/a	n/a	n/a	green
187.1494	1.0167	ITI	n/a	n/a	n/a	n/a	n/a	n/a	n/a	n/a
188.1661	0.5167	FIXCROSS	n/a	n/a	n/a	n/a	n/a	n/a	n/a	n/a
188.6828	0.9	INK	64	Neutral	xxxxxxx	xxxxxxx	czerwony	red	hit	n/a
189.5591	n/a	RESPONSE	n/a	n/a	n/a	n/a	n/a	n/a	n/a	red
189.5827	1.0167	ITI	n/a	n/a	n/a	n/a	n/a	n/a	n/a	n/a
190.5994	0.5167	FIXCROSS	n/a	n/a	n/a	n/a	n/a	n/a	n/a	n/a
191.1161	0.7167	INK	65	Incongruent	żółty	yellow	niebieski	blue	hit	n/a
191.8146	n/a	RESPONSE	n/a	n/a	n/a	n/a	n/a	n/a	n/a	blue
191.8328	1.0167	ITI	n/a	n/a	n/a	n/a	n/a	n/a	n/a	n/a
192.8494	0.5167	FIXCROSS	n/a	n/a	n/a	n/a	n/a	n/a	n/a	n/a
193.3661	1.0833	INK	66	Incongruent	niebieski	blue	żółty	yellow	hit	n/a
194.4221	n/a	RESPONSE	n/a	n/a	n/a	n/a	n/a	n/a	n/a	yellow
194.4494	1.0167	ITI	n/a	n/a	n/a	n/a	n/a	n/a	n/a	n/a
195.4661	0.5167	FIXCROSS	n/a	n/a	n/a	n/a	n/a	n/a	n/a	n/a
195.9828	0.6333	INK	67	Neutral	xxxxxxx	xxxxxxx	żółty	yellow	hit	n/a
196.5976	n/a	RESPONSE	n/a	n/a	n/a	n/a	n/a	n/a	n/a	yellow
196.6161	1.0167	ITI	n/a	n/a	n/a	n/a	n/a	n/a	n/a	n/a
197.6328	0.5167	FIXCROSS	n/a	n/a	n/a	n/a	n/a	n/a	n/a	n/a
198.1495	0.8667	INK	68	Neutral	xxxxx	xxxxx	czerwony	red	hit	n/a
198.9971	n/a	RESPONSE	n/a	n/a	n/a	n/a	n/a	n/a	n/a	red
199.0161	1.0167	ITI	n/a	n/a	n/a	n/a	n/a	n/a	n/a	n/a
200.0328	0.5167	FIXCROSS	n/a	n/a	n/a	n/a	n/a	n/a	n/a	n/a
200.5495	0.5833	INK	69	Incongruent	niebieski	blue	czerwony	red	hit	n/a
201.1087	n/a	RESPONSE	n/a	n/a	n/a	n/a	n/a	n/a	n/a	red
201.1328	1.0167	ITI	n/a	n/a	n/a	n/a	n/a	n/a	n/a	n/a
202.1495	0.5167	FIXCROSS	n/a	n/a	n/a	n/a	n/a	n/a	n/a	n/a
202.6662	0.8	INK	70	Incongruent	żółty	yellow	zielony	green	hit	n/a
203.4442	n/a	RESPONSE	n/a	n/a	n/a	n/a	n/a	n/a	n/a	green
203.4662	1.0167	ITI	n/a	n/a	n/a	n/a	n/a	n/a	n/a	n/a
204.4828	0.5167	FIXCROSS	n/a	n/a	n/a	n/a	n/a	n/a	n/a	n/a
204.9995	0.8	INK	71	Incongruent	żółty	yellow	czerwony	red	hit	n/a
205.7797	n/a	RESPONSE	n/a	n/a	n/a	n/a	n/a	n/a	n/a	red
205.7995	1.0167	ITI	n/a	n/a	n/a	n/a	n/a	n/a	n/a	n/a
206.8162	0.5167	FIXCROSS	n/a	n/a	n/a	n/a	n/a	n/a	n/a	n/a
207.3329	0.9167	INK	72	Incongruent	czerwony	red	zielony	green	hit	n/a
208.2272	n/a	RESPONSE	n/a	n/a	n/a	n/a	n/a	n/a	n/a	green
208.2496	1.0833	ITI	n/a	n/a	n/a	n/a	n/a	n/a	n/a	n/a
228.7349	n/a	RESPONSE	n/a	n/a	n/a	n/a	n/a	n/a	n/a	n/a
228.7997	1.0167	ITI	n/a	n/a	n/a	n/a	n/a	n/a	n/a	n/a
229.8164	0.5167	FIXCROSS	n/a	n/a	n/a	n/a	n/a	n/a	n/a	n/a
230.333	1.5834	T_COLOR_NAME	1	Incongruent	czerwony	red	zielony	green	hit	n/a
231.8862	n/a	RESPONSE	n/a	n/a	n/a	n/a	n/a	n/a	n/a	red
231.9164	0.5167	FEEDBACK	n/a	n/a	n/a	n/a	n/a	n/a	n/a	n/a
232.433	1.0167	ITI	n/a	n/a	n/a	n/a	n/a	n/a	n/a	n/a
233.4497	0.5167	FIXCROSS	n/a	n/a	n/a	n/a	n/a	n/a	n/a	n/a
233.9664	0.9	T_COLOR_NAME	2	Neutral	zielony	green	Neutral	Neutral	hit	n/a
234.8456	n/a	RESPONSE	n/a	n/a	n/a	n/a	n/a	n/a	n/a	green
234.8664	0.5167	FEEDBACK	n/a	n/a	n/a	n/a	n/a	n/a	n/a	n/a
235.3831	1.0167	ITI	n/a	n/a	n/a	n/a	n/a	n/a	n/a	n/a
236.3997	0.5167	FIXCROSS	n/a	n/a	n/a	n/a	n/a	n/a	n/a	n/a
236.9164	0.8667	T_COLOR_NAME	3	Neutral	niebieski	blue	Neutral	Neutral	hit	n/a
237.757	n/a	RESPONSE	n/a	n/a	n/a	n/a	n/a	n/a	n/a	blue
237.7831	0.5167	FEEDBACK	n/a	n/a	n/a	n/a	n/a	n/a	n/a	n/a
238.2998	1.0167	ITI	n/a	n/a	n/a	n/a	n/a	n/a	n/a	n/a
239.3164	0.5167	FIXCROSS	n/a	n/a	n/a	n/a	n/a	n/a	n/a	n/a
239.8331	0.7167	T_COLOR_NAME	4	Incongruent	żółty	yellow	zielony	green	hit	n/a
240.5244	n/a	RESPONSE	n/a	n/a	n/a	n/a	n/a	n/a	n/a	yellow
240.5498	0.5167	FEEDBACK	n/a	n/a	n/a	n/a	n/a	n/a	n/a	n/a
241.0665	1.0167	ITI	n/a	n/a	n/a	n/a	n/a	n/a	n/a	n/a
242.0831	0.5167	FIXCROSS	n/a	n/a	n/a	n/a	n/a	n/a	n/a	n/a
242.5998	0.8333	T_COLOR_NAME	5	Neutral	zielony	green	Neutral	Neutral	hit	n/a
243.4038	n/a	RESPONSE	n/a	n/a	n/a	n/a	n/a	n/a	n/a	green
243.4331	0.5167	FEEDBACK	n/a	n/a	n/a	n/a	n/a	n/a	n/a	n/a
243.9498	1.0167	ITI	n/a	n/a	n/a	n/a	n/a	n/a	n/a	n/a
244.9665	0.5167	FIXCROSS	n/a	n/a	n/a	n/a	n/a	n/a	n/a	n/a
245.4831	0.6667	T_COLOR_NAME	6	Neutral	żółty	yellow	Neutral	Neutral	hit	n/a
246.1232	n/a	RESPONSE	n/a	n/a	n/a	n/a	n/a	n/a	n/a	yellow
246.1498	0.5167	FEEDBACK	n/a	n/a	n/a	n/a	n/a	n/a	n/a	n/a
246.6665	1.0167	ITI	n/a	n/a	n/a	n/a	n/a	n/a	n/a	n/a
247.6832	0.5167	FIXCROSS	n/a	n/a	n/a	n/a	n/a	n/a	n/a	n/a
248.1998	0.8333	T_COLOR_NAME	7	Incongruent	niebieski	blue	żółty	yellow	hit	n/a
249.0026	n/a	RESPONSE	n/a	n/a	n/a	n/a	n/a	n/a	n/a	blue
249.0332	0.5167	FEEDBACK	n/a	n/a	n/a	n/a	n/a	n/a	n/a	n/a
249.5498	1.0167	ITI	n/a	n/a	n/a	n/a	n/a	n/a	n/a	n/a
250.5665	0.5167	FIXCROSS	n/a	n/a	n/a	n/a	n/a	n/a	n/a	n/a
251.0832	0.7833	T_COLOR_NAME	8	Incongruent	żółty	yellow	niebieski	blue	hit	n/a
251.834	n/a	RESPONSE	n/a	n/a	n/a	n/a	n/a	n/a	n/a	yellow
251.8665	0.5167	FEEDBACK	n/a	n/a	n/a	n/a	n/a	n/a	n/a	n/a
252.3832	1.0167	ITI	n/a	n/a	n/a	n/a	n/a	n/a	n/a	n/a
253.3999	0.5167	FIXCROSS	n/a	n/a	n/a	n/a	n/a	n/a	n/a	n/a
253.9165	0.8167	T_COLOR_NAME	9	Incongruent	czerwony	red	żółty	yellow	hit	n/a
254.7134	n/a	RESPONSE	n/a	n/a	n/a	n/a	n/a	n/a	n/a	red
254.7332	0.5167	FEEDBACK	n/a	n/a	n/a	n/a	n/a	n/a	n/a	n/a
255.2499	1.0167	ITI	n/a	n/a	n/a	n/a	n/a	n/a	n/a	n/a
256.2666	0.5167	FIXCROSS	n/a	n/a	n/a	n/a	n/a	n/a	n/a	n/a
256.7832	0.6333	T_COLOR_NAME	10	Neutral	niebieski	blue	Neutral	Neutral	hit	n/a
257.3848	n/a	RESPONSE	n/a	n/a	n/a	n/a	n/a	n/a	n/a	blue
257.4166	0.5167	FEEDBACK	n/a	n/a	n/a	n/a	n/a	n/a	n/a	n/a
257.9332	1.0167	ITI	n/a	n/a	n/a	n/a	n/a	n/a	n/a	n/a
258.9499	0.5167	FIXCROSS	n/a	n/a	n/a	n/a	n/a	n/a	n/a	n/a
259.4666	0.7	T_COLOR_NAME	11	Neutral	czerwony	red	Neutral	Neutral	hit	n/a
260.1362	n/a	RESPONSE	n/a	n/a	n/a	n/a	n/a	n/a	n/a	red
260.1666	0.5167	FEEDBACK	n/a	n/a	n/a	n/a	n/a	n/a	n/a	n/a
260.6833	1.0167	ITI	n/a	n/a	n/a	n/a	n/a	n/a	n/a	n/a
261.6999	0.5167	FIXCROSS	n/a	n/a	n/a	n/a	n/a	n/a	n/a	n/a
262.2166	1.0333	T_COLOR_NAME	12	Incongruent	zielony	green	żółty	yellow	hit	n/a
263.2236	n/a	RESPONSE	n/a	n/a	n/a	n/a	n/a	n/a	n/a	green
263.2499	0.5167	FEEDBACK	n/a	n/a	n/a	n/a	n/a	n/a	n/a	n/a
263.7666	1.0334	ITI	n/a	n/a	n/a	n/a	n/a	n/a	n/a	n/a
268.2625	n/a	RESPONSE	n/a	n/a	n/a	n/a	n/a	n/a	n/a	n/a
268.3166	1.0167	ITI	n/a	n/a	n/a	n/a	n/a	n/a	n/a	n/a
269.3333	0.5167	FIXCROSS	n/a	n/a	n/a	n/a	n/a	n/a	n/a	n/a
269.85	1.0	COLOR_NAME	1	Neutral	zielony	green	Neutral	Neutral	hit	n/a
270.822	n/a	RESPONSE	n/a	n/a	n/a	n/a	n/a	n/a	n/a	green
270.85	1.0167	ITI	n/a	n/a	n/a	n/a	n/a	n/a	n/a	n/a
271.8667	0.5167	FIXCROSS	n/a	n/a	n/a	n/a	n/a	n/a	n/a	n/a
272.3833	0.6667	COLOR_NAME	2	Neutral	czerwony	red	Neutral	Neutral	hit	n/a
273.0295	n/a	RESPONSE	n/a	n/a	n/a	n/a	n/a	n/a	n/a	red
273.05	1.0167	ITI	n/a	n/a	n/a	n/a	n/a	n/a	n/a	n/a
274.0667	0.5167	FIXCROSS	n/a	n/a	n/a	n/a	n/a	n/a	n/a	n/a
274.5833	0.6667	COLOR_NAME	3	Incongruent	czerwony	red	żółty	yellow	hit	n/a
275.2211	n/a	RESPONSE	n/a	n/a	n/a	n/a	n/a	n/a	n/a	red
275.25	1.0167	ITI	n/a	n/a	n/a	n/a	n/a	n/a	n/a	n/a
276.2667	0.5167	FIXCROSS	n/a	n/a	n/a	n/a	n/a	n/a	n/a	n/a
276.7834	0.5667	COLOR_NAME	4	Incongruent	czerwony	red	żółty	yellow	hit	n/a
277.3166	n/a	RESPONSE	n/a	n/a	n/a	n/a	n/a	n/a	n/a	red
277.35	1.0167	ITI	n/a	n/a	n/a	n/a	n/a	n/a	n/a	n/a
278.3667	0.5167	FIXCROSS	n/a	n/a	n/a	n/a	n/a	n/a	n/a	n/a
278.8834	0.6	COLOR_NAME	5	Neutral	zielony	green	Neutral	Neutral	hit	n/a
279.4602	n/a	RESPONSE	n/a	n/a	n/a	n/a	n/a	n/a	n/a	green
279.4834	1.0167	ITI	n/a	n/a	n/a	n/a	n/a	n/a	n/a	n/a
280.5001	0.5167	FIXCROSS	n/a	n/a	n/a	n/a	n/a	n/a	n/a	n/a
281.0167	0.7333	COLOR_NAME	6	Neutral	niebieski	blue	Neutral	Neutral	hit	n/a
281.7317	n/a	RESPONSE	n/a	n/a	n/a	n/a	n/a	n/a	n/a	blue
281.7501	1.0167	ITI	n/a	n/a	n/a	n/a	n/a	n/a	n/a	n/a
282.7667	0.5167	FIXCROSS	n/a	n/a	n/a	n/a	n/a	n/a	n/a	n/a
283.2834	0.8333	COLOR_NAME	7	Incongruent	niebieski	blue	zielony	green	hit	n/a
284.0832	n/a	RESPONSE	n/a	n/a	n/a	n/a	n/a	n/a	n/a	blue
284.1167	1.0167	ITI	n/a	n/a	n/a	n/a	n/a	n/a	n/a	n/a
285.1334	0.5167	FIXCROSS	n/a	n/a	n/a	n/a	n/a	n/a	n/a	n/a
285.6501	0.8167	COLOR_NAME	8	Neutral	czerwony	red	Neutral	Neutral	hit	n/a
286.4347	n/a	RESPONSE	n/a	n/a	n/a	n/a	n/a	n/a	n/a	red
286.4668	1.0167	ITI	n/a	n/a	n/a	n/a	n/a	n/a	n/a	n/a
287.4834	0.5167	FIXCROSS	n/a	n/a	n/a	n/a	n/a	n/a	n/a	n/a
288.0001	0.8167	COLOR_NAME	9	Neutral	zielony	green	Neutral	Neutral	hit	n/a
288.7862	n/a	RESPONSE	n/a	n/a	n/a	n/a	n/a	n/a	n/a	green
288.8168	1.0167	ITI	n/a	n/a	n/a	n/a	n/a	n/a	n/a	n/a
289.8335	0.5167	FIXCROSS	n/a	n/a	n/a	n/a	n/a	n/a	n/a	n/a
290.3501	0.7833	COLOR_NAME	10	Neutral	zielony	green	Neutral	Neutral	hit	n/a
291.1057	n/a	RESPONSE	n/a	n/a	n/a	n/a	n/a	n/a	n/a	green
291.1335	1.0167	ITI	n/a	n/a	n/a	n/a	n/a	n/a	n/a	n/a
292.1501	0.5167	FIXCROSS	n/a	n/a	n/a	n/a	n/a	n/a	n/a	n/a
292.6668	0.8667	COLOR_NAME	11	Neutral	niebieski	blue	Neutral	Neutral	hit	n/a
293.5052	n/a	RESPONSE	n/a	n/a	n/a	n/a	n/a	n/a	n/a	blue
293.5335	1.0167	ITI	n/a	n/a	n/a	n/a	n/a	n/a	n/a	n/a
294.5502	0.5167	FIXCROSS	n/a	n/a	n/a	n/a	n/a	n/a	n/a	n/a
295.0668	0.95	COLOR_NAME	12	Incongruent	żółty	yellow	czerwony	red	hit	n/a
295.9847	n/a	RESPONSE	n/a	n/a	n/a	n/a	n/a	n/a	n/a	yellow
296.0168	1.0167	ITI	n/a	n/a	n/a	n/a	n/a	n/a	n/a	n/a
297.0335	0.5167	FIXCROSS	n/a	n/a	n/a	n/a	n/a	n/a	n/a	n/a
297.5502	1.0	COLOR_NAME	13	Incongruent	zielony	green	czerwony	red	hit	n/a
298.5281	n/a	RESPONSE	n/a	n/a	n/a	n/a	n/a	n/a	n/a	green
298.5502	1.0167	ITI	n/a	n/a	n/a	n/a	n/a	n/a	n/a	n/a
299.5669	0.5167	FIXCROSS	n/a	n/a	n/a	n/a	n/a	n/a	n/a	n/a
300.0835	0.6333	COLOR_NAME	14	Neutral	zielony	green	Neutral	Neutral	hit	n/a
300.6877	n/a	RESPONSE	n/a	n/a	n/a	n/a	n/a	n/a	n/a	green
300.7169	1.0167	ITI	n/a	n/a	n/a	n/a	n/a	n/a	n/a	n/a
301.7335	0.5167	FIXCROSS	n/a	n/a	n/a	n/a	n/a	n/a	n/a	n/a
302.2502	0.85	COLOR_NAME	15	Neutral	niebieski	blue	Neutral	Neutral	hit	n/a
303.0712	n/a	RESPONSE	n/a	n/a	n/a	n/a	n/a	n/a	n/a	blue
303.1002	1.0167	ITI	n/a	n/a	n/a	n/a	n/a	n/a	n/a	n/a
304.1169	0.5167	FIXCROSS	n/a	n/a	n/a	n/a	n/a	n/a	n/a	n/a
304.6335	0.9667	COLOR_NAME	16	Neutral	czerwony	red	Neutral	Neutral	hit	n/a
305.5667	n/a	RESPONSE	n/a	n/a	n/a	n/a	n/a	n/a	n/a	red
305.6002	1.0167	ITI	n/a	n/a	n/a	n/a	n/a	n/a	n/a	n/a
306.6169	0.5167	FIXCROSS	n/a	n/a	n/a	n/a	n/a	n/a	n/a	n/a
307.1336	0.5333	COLOR_NAME	17	Neutral	żółty	yellow	Neutral	Neutral	hit	n/a
307.6463	n/a	RESPONSE	n/a	n/a	n/a	n/a	n/a	n/a	n/a	yellow
307.6669	1.0167	ITI	n/a	n/a	n/a	n/a	n/a	n/a	n/a	n/a
308.6836	0.5167	FIXCROSS	n/a	n/a	n/a	n/a	n/a	n/a	n/a	n/a
309.2003	0.8333	COLOR_NAME	18	Incongruent	zielony	green	niebieski	blue	hit	n/a
310.0138	n/a	RESPONSE	n/a	n/a	n/a	n/a	n/a	n/a	n/a	green
310.0336	1.0167	ITI	n/a	n/a	n/a	n/a	n/a	n/a	n/a	n/a
311.0503	0.5167	FIXCROSS	n/a	n/a	n/a	n/a	n/a	n/a	n/a	n/a
311.5669	0.7667	COLOR_NAME	19	Incongruent	niebieski	blue	zielony	green	hit	n/a
312.3013	n/a	RESPONSE	n/a	n/a	n/a	n/a	n/a	n/a	n/a	blue
312.3336	1.0167	ITI	n/a	n/a	n/a	n/a	n/a	n/a	n/a	n/a
313.3503	0.5167	FIXCROSS	n/a	n/a	n/a	n/a	n/a	n/a	n/a	n/a
313.8669	0.7333	COLOR_NAME	20	Incongruent	żółty	yellow	czerwony	red	hit	n/a
314.5728	n/a	RESPONSE	n/a	n/a	n/a	n/a	n/a	n/a	n/a	yellow
314.6003	1.0167	ITI	n/a	n/a	n/a	n/a	n/a	n/a	n/a	n/a
315.617	0.5167	FIXCROSS	n/a	n/a	n/a	n/a	n/a	n/a	n/a	n/a
316.1336	0.6333	COLOR_NAME	21	Neutral	niebieski	blue	Neutral	Neutral	hit	n/a
316.7483	n/a	RESPONSE	n/a	n/a	n/a	n/a	n/a	n/a	n/a	blue
316.767	1.0167	ITI	n/a	n/a	n/a	n/a	n/a	n/a	n/a	n/a
317.7836	0.5167	FIXCROSS	n/a	n/a	n/a	n/a	n/a	n/a	n/a	n/a
318.3003	1.1	COLOR_NAME	22	Incongruent	zielony	green	czerwony	red	hit	n/a
319.3718	n/a	RESPONSE	n/a	n/a	n/a	n/a	n/a	n/a	n/a	green
319.4003	1.0167	ITI	n/a	n/a	n/a	n/a	n/a	n/a	n/a	n/a
320.417	0.5167	FIXCROSS	n/a	n/a	n/a	n/a	n/a	n/a	n/a	n/a
320.9337	0.6667	COLOR_NAME	23	Incongruent	czerwony	red	żółty	yellow	hit	n/a
321.5793	n/a	RESPONSE	n/a	n/a	n/a	n/a	n/a	n/a	n/a	red
321.6003	1.0167	ITI	n/a	n/a	n/a	n/a	n/a	n/a	n/a	n/a
322.617	0.5167	FIXCROSS	n/a	n/a	n/a	n/a	n/a	n/a	n/a	n/a
323.1337	0.7667	COLOR_NAME	24	Incongruent	niebieski	blue	zielony	green	hit	n/a
323.8828	n/a	RESPONSE	n/a	n/a	n/a	n/a	n/a	n/a	n/a	blue
323.9003	1.0167	ITI	n/a	n/a	n/a	n/a	n/a	n/a	n/a	n/a
324.917	0.5167	FIXCROSS	n/a	n/a	n/a	n/a	n/a	n/a	n/a	n/a
325.4337	1.0667	COLOR_NAME	25	Incongruent	zielony	green	czerwony	red	hit	n/a
326.4743	n/a	RESPONSE	n/a	n/a	n/a	n/a	n/a	n/a	n/a	green
326.5004	1.0167	ITI	n/a	n/a	n/a	n/a	n/a	n/a	n/a	n/a
327.517	0.5167	FIXCROSS	n/a	n/a	n/a	n/a	n/a	n/a	n/a	n/a
328.0337	0.6833	COLOR_NAME	26	Neutral	niebieski	blue	Neutral	Neutral	hit	n/a
328.6978	n/a	RESPONSE	n/a	n/a	n/a	n/a	n/a	n/a	n/a	blue
328.7171	1.0167	ITI	n/a	n/a	n/a	n/a	n/a	n/a	n/a	n/a
329.7337	0.5167	FIXCROSS	n/a	n/a	n/a	n/a	n/a	n/a	n/a	n/a
330.2504	0.6833	COLOR_NAME	27	Incongruent	żółty	yellow	zielony	green	hit	n/a
330.9053	n/a	RESPONSE	n/a	n/a	n/a	n/a	n/a	n/a	n/a	yellow
330.9337	1.0167	ITI	n/a	n/a	n/a	n/a	n/a	n/a	n/a	n/a
331.9504	0.5167	FIXCROSS	n/a	n/a	n/a	n/a	n/a	n/a	n/a	n/a
332.4671	0.6167	COLOR_NAME	28	Neutral	zielony	green	Neutral	Neutral	hit	n/a
333.0649	n/a	RESPONSE	n/a	n/a	n/a	n/a	n/a	n/a	n/a	green
333.0838	1.0167	ITI	n/a	n/a	n/a	n/a	n/a	n/a	n/a	n/a
334.1004	0.5167	FIXCROSS	n/a	n/a	n/a	n/a	n/a	n/a	n/a	n/a
334.6171	0.7	COLOR_NAME	29	Incongruent	niebieski	blue	czerwony	red	hit	n/a
335.2884	n/a	RESPONSE	n/a	n/a	n/a	n/a	n/a	n/a	n/a	blue
335.3171	1.0167	ITI	n/a	n/a	n/a	n/a	n/a	n/a	n/a	n/a
336.3338	0.5167	FIXCROSS	n/a	n/a	n/a	n/a	n/a	n/a	n/a	n/a
336.8504	0.7333	COLOR_NAME	30	Neutral	żółty	yellow	Neutral	Neutral	hit	n/a
337.56	n/a	RESPONSE	n/a	n/a	n/a	n/a	n/a	n/a	n/a	yellow
337.5838	1.0167	ITI	n/a	n/a	n/a	n/a	n/a	n/a	n/a	n/a
338.6004	0.5167	FIXCROSS	n/a	n/a	n/a	n/a	n/a	n/a	n/a	n/a
339.1171	0.7	COLOR_NAME	31	Incongruent	niebieski	blue	żółty	yellow	hit	n/a
339.7995	n/a	RESPONSE	n/a	n/a	n/a	n/a	n/a	n/a	n/a	blue
339.8171	1.0167	ITI	n/a	n/a	n/a	n/a	n/a	n/a	n/a	n/a
340.8338	0.5167	FIXCROSS	n/a	n/a	n/a	n/a	n/a	n/a	n/a	n/a
341.3505	0.6333	COLOR_NAME	32	Neutral	żółty	yellow	Neutral	Neutral	hit	n/a
341.959	n/a	RESPONSE	n/a	n/a	n/a	n/a	n/a	n/a	n/a	yellow
341.9838	1.0167	ITI	n/a	n/a	n/a	n/a	n/a	n/a	n/a	n/a
343.0005	0.5167	FIXCROSS	n/a	n/a	n/a	n/a	n/a	n/a	n/a	n/a
343.5172	0.75	COLOR_NAME	33	Neutral	niebieski	blue	Neutral	Neutral	hit	n/a
344.2465	n/a	RESPONSE	n/a	n/a	n/a	n/a	n/a	n/a	n/a	blue
344.2672	1.0167	ITI	n/a	n/a	n/a	n/a	n/a	n/a	n/a	n/a
345.2838	0.5167	FIXCROSS	n/a	n/a	n/a	n/a	n/a	n/a	n/a	n/a
345.8005	0.9333	COLOR_NAME	34	Incongruent	niebieski	blue	czerwony	red	hit	n/a
346.71	n/a	RESPONSE	n/a	n/a	n/a	n/a	n/a	n/a	n/a	blue
346.7338	1.0167	ITI	n/a	n/a	n/a	n/a	n/a	n/a	n/a	n/a
347.7505	0.5167	FIXCROSS	n/a	n/a	n/a	n/a	n/a	n/a	n/a	n/a
348.2672	0.95	COLOR_NAME	35	Incongruent	czerwony	red	zielony	green	hit	n/a
349.1895	n/a	RESPONSE	n/a	n/a	n/a	n/a	n/a	n/a	n/a	red
349.2172	1.0167	ITI	n/a	n/a	n/a	n/a	n/a	n/a	n/a	n/a
350.2339	0.5167	FIXCROSS	n/a	n/a	n/a	n/a	n/a	n/a	n/a	n/a
350.7505	0.7	COLOR_NAME	36	Incongruent	żółty	yellow	zielony	green	hit	n/a
351.429	n/a	RESPONSE	n/a	n/a	n/a	n/a	n/a	n/a	n/a	yellow
351.4505	1.0167	ITI	n/a	n/a	n/a	n/a	n/a	n/a	n/a	n/a
352.4672	0.5167	FIXCROSS	n/a	n/a	n/a	n/a	n/a	n/a	n/a	n/a
352.9839	0.9833	COLOR_NAME	37	Incongruent	zielony	green	niebieski	blue	hit	n/a
353.9405	n/a	RESPONSE	n/a	n/a	n/a	n/a	n/a	n/a	n/a	green
353.9672	1.0167	ITI	n/a	n/a	n/a	n/a	n/a	n/a	n/a	n/a
354.9839	0.5167	FIXCROSS	n/a	n/a	n/a	n/a	n/a	n/a	n/a	n/a
355.5006	0.6333	COLOR_NAME	38	Incongruent	żółty	yellow	czerwony	red	hit	n/a
356.116	n/a	RESPONSE	n/a	n/a	n/a	n/a	n/a	n/a	n/a	yellow
356.1339	1.0167	ITI	n/a	n/a	n/a	n/a	n/a	n/a	n/a	n/a
357.1506	0.5167	FIXCROSS	n/a	n/a	n/a	n/a	n/a	n/a	n/a	n/a
357.6672	0.9333	COLOR_NAME	39	Incongruent	żółty	yellow	niebieski	blue	hit	n/a
358.5795	n/a	RESPONSE	n/a	n/a	n/a	n/a	n/a	n/a	n/a	yellow
358.6006	1.0167	ITI	n/a	n/a	n/a	n/a	n/a	n/a	n/a	n/a
359.6173	0.5167	FIXCROSS	n/a	n/a	n/a	n/a	n/a	n/a	n/a	n/a
360.1339	0.7667	COLOR_NAME	40	Neutral	niebieski	blue	Neutral	Neutral	hit	n/a
360.883	n/a	RESPONSE	n/a	n/a	n/a	n/a	n/a	n/a	n/a	blue
360.9006	1.0167	ITI	n/a	n/a	n/a	n/a	n/a	n/a	n/a	n/a
361.9173	0.5167	FIXCROSS	n/a	n/a	n/a	n/a	n/a	n/a	n/a	n/a
362.434	0.8167	COLOR_NAME	41	Neutral	czerwony	red	Neutral	Neutral	hit	n/a
363.2185	n/a	RESPONSE	n/a	n/a	n/a	n/a	n/a	n/a	n/a	red
363.2506	1.0167	ITI	n/a	n/a	n/a	n/a	n/a	n/a	n/a	n/a
364.2673	0.5167	FIXCROSS	n/a	n/a	n/a	n/a	n/a	n/a	n/a	n/a
364.784	0.65	COLOR_NAME	42	Neutral	żółty	yellow	Neutral	Neutral	hit	n/a
365.4101	n/a	RESPONSE	n/a	n/a	n/a	n/a	n/a	n/a	n/a	yellow
365.434	1.0167	ITI	n/a	n/a	n/a	n/a	n/a	n/a	n/a	n/a
366.4507	0.5167	FIXCROSS	n/a	n/a	n/a	n/a	n/a	n/a	n/a	n/a
366.9673	0.9333	COLOR_NAME	43	Incongruent	czerwony	red	zielony	green	hit	n/a
367.8736	n/a	RESPONSE	n/a	n/a	n/a	n/a	n/a	n/a	n/a	red
367.9007	1.0167	ITI	n/a	n/a	n/a	n/a	n/a	n/a	n/a	n/a
368.9173	0.5167	FIXCROSS	n/a	n/a	n/a	n/a	n/a	n/a	n/a	n/a
369.434	0.8	COLOR_NAME	44	Incongruent	zielony	green	żółty	yellow	hit	n/a
370.2091	n/a	RESPONSE	n/a	n/a	n/a	n/a	n/a	n/a	n/a	green
370.234	1.0167	ITI	n/a	n/a	n/a	n/a	n/a	n/a	n/a	n/a
371.2507	0.5167	FIXCROSS	n/a	n/a	n/a	n/a	n/a	n/a	n/a	n/a
371.7673	0.6834	COLOR_NAME	45	Neutral	żółty	yellow	Neutral	Neutral	hit	n/a
372.4326	n/a	RESPONSE	n/a	n/a	n/a	n/a	n/a	n/a	n/a	yellow
372.4507	1.0167	ITI	n/a	n/a	n/a	n/a	n/a	n/a	n/a	n/a
373.4674	0.5167	FIXCROSS	n/a	n/a	n/a	n/a	n/a	n/a	n/a	n/a
373.984	0.6667	COLOR_NAME	46	Neutral	czerwony	red	Neutral	Neutral	hit	n/a
374.6242	n/a	RESPONSE	n/a	n/a	n/a	n/a	n/a	n/a	n/a	red
374.6507	1.0167	ITI	n/a	n/a	n/a	n/a	n/a	n/a	n/a	n/a
375.6674	0.5167	FIXCROSS	n/a	n/a	n/a	n/a	n/a	n/a	n/a	n/a
376.184	0.5667	COLOR_NAME	47	Incongruent	żółty	yellow	zielony	green	hit	n/a
376.7197	n/a	RESPONSE	n/a	n/a	n/a	n/a	n/a	n/a	n/a	yellow
376.7507	1.0167	ITI	n/a	n/a	n/a	n/a	n/a	n/a	n/a	n/a
377.7674	0.5167	FIXCROSS	n/a	n/a	n/a	n/a	n/a	n/a	n/a	n/a
378.2841	0.6333	COLOR_NAME	48	Incongruent	żółty	yellow	niebieski	blue	hit	n/a
378.8952	n/a	RESPONSE	n/a	n/a	n/a	n/a	n/a	n/a	n/a	yellow
378.9174	1.0167	ITI	n/a	n/a	n/a	n/a	n/a	n/a	n/a	n/a
379.9341	0.5167	FIXCROSS	n/a	n/a	n/a	n/a	n/a	n/a	n/a	n/a
380.4507	1.0667	COLOR_NAME	49	Incongruent	zielony	green	niebieski	blue	incorrect	n/a
381.4867	n/a	RESPONSE	n/a	n/a	n/a	n/a	n/a	n/a	n/a	blue
381.5174	1.0167	ITI	n/a	n/a	n/a	n/a	n/a	n/a	n/a	n/a
382.5341	0.5167	FIXCROSS	n/a	n/a	n/a	n/a	n/a	n/a	n/a	n/a
383.0508	0.8	COLOR_NAME	50	Neutral	czerwony	red	Neutral	Neutral	hit	n/a
383.8222	n/a	RESPONSE	n/a	n/a	n/a	n/a	n/a	n/a	n/a	red
383.8508	1.0167	ITI	n/a	n/a	n/a	n/a	n/a	n/a	n/a	n/a
384.8674	0.5167	FIXCROSS	n/a	n/a	n/a	n/a	n/a	n/a	n/a	n/a
385.3841	1.65	COLOR_NAME	51	Incongruent	zielony	green	żółty	yellow	hit	n/a
387.0055	n/a	RESPONSE	n/a	n/a	n/a	n/a	n/a	n/a	n/a	green
387.0341	1.0167	ITI	n/a	n/a	n/a	n/a	n/a	n/a	n/a	n/a
388.0508	0.5167	FIXCROSS	n/a	n/a	n/a	n/a	n/a	n/a	n/a	n/a
388.5675	0.6	COLOR_NAME	52	Neutral	żółty	yellow	Neutral	Neutral	hit	n/a
389.1491	n/a	RESPONSE	n/a	n/a	n/a	n/a	n/a	n/a	n/a	yellow
389.1675	1.0167	ITI	n/a	n/a	n/a	n/a	n/a	n/a	n/a	n/a
390.1841	0.5167	FIXCROSS	n/a	n/a	n/a	n/a	n/a	n/a	n/a	n/a
390.7008	0.6167	COLOR_NAME	53	Neutral	żółty	yellow	Neutral	Neutral	hit	n/a
391.2926	n/a	RESPONSE	n/a	n/a	n/a	n/a	n/a	n/a	n/a	yellow
391.3175	1.0167	ITI	n/a	n/a	n/a	n/a	n/a	n/a	n/a	n/a
392.3342	0.5167	FIXCROSS	n/a	n/a	n/a	n/a	n/a	n/a	n/a	n/a
392.8508	0.8333	COLOR_NAME	54	Incongruent	żółty	yellow	niebieski	blue	hit	n/a
393.6601	n/a	RESPONSE	n/a	n/a	n/a	n/a	n/a	n/a	n/a	yellow
393.6842	1.0167	ITI	n/a	n/a	n/a	n/a	n/a	n/a	n/a	n/a
394.7008	0.5167	FIXCROSS	n/a	n/a	n/a	n/a	n/a	n/a	n/a	n/a
395.2175	0.7833	COLOR_NAME	55	Incongruent	niebieski	blue	czerwony	red	hit	n/a
395.9797	n/a	RESPONSE	n/a	n/a	n/a	n/a	n/a	n/a	n/a	blue
396.0008	1.0167	ITI	n/a	n/a	n/a	n/a	n/a	n/a	n/a	n/a
397.0175	0.5167	FIXCROSS	n/a	n/a	n/a	n/a	n/a	n/a	n/a	n/a
397.5342	0.6333	COLOR_NAME	56	Neutral	żółty	yellow	Neutral	Neutral	hit	n/a
398.1392	n/a	RESPONSE	n/a	n/a	n/a	n/a	n/a	n/a	n/a	yellow
398.1675	1.0167	ITI	n/a	n/a	n/a	n/a	n/a	n/a	n/a	n/a
399.1842	0.5167	FIXCROSS	n/a	n/a	n/a	n/a	n/a	n/a	n/a	n/a
399.7009	1.25	COLOR_NAME	57	Neutral	zielony	green	Neutral	Neutral	hit	n/a
400.9226	n/a	RESPONSE	n/a	n/a	n/a	n/a	n/a	n/a	n/a	green
400.9509	1.0167	ITI	n/a	n/a	n/a	n/a	n/a	n/a	n/a	n/a
401.9676	0.5167	FIXCROSS	n/a	n/a	n/a	n/a	n/a	n/a	n/a	n/a
402.4842	0.8167	COLOR_NAME	58	Neutral	zielony	green	Neutral	Neutral	hit	n/a
403.2741	n/a	RESPONSE	n/a	n/a	n/a	n/a	n/a	n/a	n/a	green
403.3009	1.0167	ITI	n/a	n/a	n/a	n/a	n/a	n/a	n/a	n/a
404.3176	0.5167	FIXCROSS	n/a	n/a	n/a	n/a	n/a	n/a	n/a	n/a
404.8342	0.7	COLOR_NAME	59	Incongruent	czerwony	red	zielony	green	hit	n/a
405.5136	n/a	RESPONSE	n/a	n/a	n/a	n/a	n/a	n/a	n/a	red
405.5342	1.0167	ITI	n/a	n/a	n/a	n/a	n/a	n/a	n/a	n/a
406.5509	0.5167	FIXCROSS	n/a	n/a	n/a	n/a	n/a	n/a	n/a	n/a
407.0676	0.6	COLOR_NAME	60	Incongruent	czerwony	red	niebieski	blue	hit	n/a
407.6412	n/a	RESPONSE	n/a	n/a	n/a	n/a	n/a	n/a	n/a	red
407.6676	1.0167	ITI	n/a	n/a	n/a	n/a	n/a	n/a	n/a	n/a
408.6843	0.5167	FIXCROSS	n/a	n/a	n/a	n/a	n/a	n/a	n/a	n/a
409.2009	0.5833	COLOR_NAME	61	Neutral	niebieski	blue	Neutral	Neutral	hit	n/a
409.7528	n/a	RESPONSE	n/a	n/a	n/a	n/a	n/a	n/a	n/a	blue
409.7843	1.0167	ITI	n/a	n/a	n/a	n/a	n/a	n/a	n/a	n/a
410.8009	0.5167	FIXCROSS	n/a	n/a	n/a	n/a	n/a	n/a	n/a	n/a
411.3176	0.5833	COLOR_NAME	62	Neutral	niebieski	blue	Neutral	Neutral	hit	n/a
411.8803	n/a	RESPONSE	n/a	n/a	n/a	n/a	n/a	n/a	n/a	blue
411.901	1.0167	ITI	n/a	n/a	n/a	n/a	n/a	n/a	n/a	n/a
412.9176	0.5167	FIXCROSS	n/a	n/a	n/a	n/a	n/a	n/a	n/a	n/a
413.4343	0.9667	COLOR_NAME	63	Neutral	zielony	green	Neutral	Neutral	hit	n/a
414.3758	n/a	RESPONSE	n/a	n/a	n/a	n/a	n/a	n/a	n/a	green
414.401	1.0167	ITI	n/a	n/a	n/a	n/a	n/a	n/a	n/a	n/a
415.4176	0.5167	FIXCROSS	n/a	n/a	n/a	n/a	n/a	n/a	n/a	n/a
415.9343	0.6333	COLOR_NAME	64	Incongruent	czerwony	red	niebieski	blue	hit	n/a
416.5353	n/a	RESPONSE	n/a	n/a	n/a	n/a	n/a	n/a	n/a	red
416.5676	1.0167	ITI	n/a	n/a	n/a	n/a	n/a	n/a	n/a	n/a
417.5843	0.5167	FIXCROSS	n/a	n/a	n/a	n/a	n/a	n/a	n/a	n/a
418.101	0.8833	COLOR_NAME	65	Neutral	żółty	yellow	Neutral	Neutral	hit	n/a
418.9668	n/a	RESPONSE	n/a	n/a	n/a	n/a	n/a	n/a	n/a	yellow
418.9843	1.0167	ITI	n/a	n/a	n/a	n/a	n/a	n/a	n/a	n/a
420.001	0.5167	FIXCROSS	n/a	n/a	n/a	n/a	n/a	n/a	n/a	n/a
420.5177	0.6667	COLOR_NAME	66	Incongruent	niebieski	blue	żółty	yellow	hit	n/a
421.1583	n/a	RESPONSE	n/a	n/a	n/a	n/a	n/a	n/a	n/a	blue
421.1844	1.0167	ITI	n/a	n/a	n/a	n/a	n/a	n/a	n/a	n/a
422.201	0.5167	FIXCROSS	n/a	n/a	n/a	n/a	n/a	n/a	n/a	n/a
422.7177	0.6	COLOR_NAME	67	Neutral	czerwony	red	Neutral	Neutral	hit	n/a
423.2859	n/a	RESPONSE	n/a	n/a	n/a	n/a	n/a	n/a	n/a	red
423.3177	1.0167	ITI	n/a	n/a	n/a	n/a	n/a	n/a	n/a	n/a
424.3344	0.5167	FIXCROSS	n/a	n/a	n/a	n/a	n/a	n/a	n/a	n/a
424.851	0.6667	COLOR_NAME	68	Incongruent	niebieski	blue	żółty	yellow	incorrect	n/a
425.4934	n/a	RESPONSE	n/a	n/a	n/a	n/a	n/a	n/a	n/a	red
425.5177	1.0167	ITI	n/a	n/a	n/a	n/a	n/a	n/a	n/a	n/a
426.5344	0.5167	FIXCROSS	n/a	n/a	n/a	n/a	n/a	n/a	n/a	n/a
427.0511	2.0333	COLOR_NAME	69	Neutral	czerwony	red	Neutral	Neutral	hit	n/a
429.0607	n/a	RESPONSE	n/a	n/a	n/a	n/a	n/a	n/a	n/a	red
429.0844	1.0167	ITI	n/a	n/a	n/a	n/a	n/a	n/a	n/a	n/a
430.1011	0.5167	FIXCROSS	n/a	n/a	n/a	n/a	n/a	n/a	n/a	n/a
430.6177	0.75	COLOR_NAME	70	Neutral	czerwony	red	Neutral	Neutral	hit	n/a
431.3482	n/a	RESPONSE	n/a	n/a	n/a	n/a	n/a	n/a	n/a	red
431.3678	1.0167	ITI	n/a	n/a	n/a	n/a	n/a	n/a	n/a	n/a
432.3844	0.5167	FIXCROSS	n/a	n/a	n/a	n/a	n/a	n/a	n/a	n/a
432.9011	0.6333	COLOR_NAME	71	Incongruent	czerwony	red	niebieski	blue	hit	n/a
433.5077	n/a	RESPONSE	n/a	n/a	n/a	n/a	n/a	n/a	n/a	red
433.5344	1.0167	ITI	n/a	n/a	n/a	n/a	n/a	n/a	n/a	n/a
434.5511	0.5167	FIXCROSS	n/a	n/a	n/a	n/a	n/a	n/a	n/a	n/a
435.0678	1.05	COLOR_NAME	72	Incongruent	zielony	green	żółty	yellow	hit	n/a
436.0992	n/a	RESPONSE	n/a	n/a	n/a	n/a	n/a	n/a	n/a	green
436.1178	1.0333	ITI	n/a	n/a	n/a	n/a	n/a	n/a	n/a	n/a
441.5381	n/a	RESPONSE	n/a	n/a	n/a	n/a	n/a	n/a	n/a	n/a
