onset	duration	trial_type	melody_number	melody_part	key	sound	action
0.0	14.087	CUE_START	n/a	n/a	n/a	n/a	n/a
14.088	7.76	FIXCROSS	n/a	n/a	n/a	n/a	n/a
21.847	6.316	CUE_LISTEN	M1	1	n/a	n/a	n/a
28.163	7.758	FIXCROSS	n/a	n/a	n/a	n/a	n/a
35.921	6.317	CUE_PLAYBACK_RIGHT_HAND	M1	1	n/a	n/a	n/a
37.437	n/a	RESPONSE	M1	1	12	C4	press
37.906	n/a	RESPONSE	M1	1	14	D4	press
38.057	n/a	RESPONSE	M1	1	12	C4	release
38.398	n/a	RESPONSE	M1	1	16	E4	press
38.48	n/a	RESPONSE	M1	1	14	D4	release
38.971	n/a	RESPONSE	M1	1	12	C4	press
39.082	n/a	RESPONSE	M1	1	16	E4	release
39.416	n/a	RESPONSE	M1	1	12	C4	release
39.555	n/a	RESPONSE	M1	1	12	C4	press
40.066	n/a	RESPONSE	M1	1	14	D4	press
40.147	n/a	RESPONSE	M1	1	12	C4	release
40.558	n/a	RESPONSE	M1	1	16	E4	press
40.64	n/a	RESPONSE	M1	1	14	D4	release
41.112	n/a	RESPONSE	M1	1	12	C4	press
41.212	n/a	RESPONSE	M1	1	16	E4	release
41.673	n/a	RESPONSE	M1	1	12	C4	release
41.905	n/a	RESPONSE	M1	1	16	E4	press
42.238	7.758	FIXCROSS	n/a	n/a	n/a	n/a	n/a
42.448	n/a	RESPONSE	M1	1	17	F4	press
42.535	n/a	RESPONSE	M1	1	16	E4	release
42.946	n/a	RESPONSE	M1	1	19	G4	press
43.032	n/a	RESPONSE	M1	1	17	F4	release
43.751	n/a	RESPONSE	M1	1	19	G4	release
43.827	n/a	RESPONSE	M1	1	16	E4	press
44.295	n/a	RESPONSE	M1	1	17	F4	press
44.385	n/a	RESPONSE	M1	1	16	E4	release
44.745	n/a	RESPONSE	M1	1	19	G4	press
44.866	n/a	RESPONSE	M1	1	17	F4	release
45.347	n/a	RESPONSE	M1	1	19	G4	release
49.996	6.325	CUE_LISTEN	        M1	2	n/a	n/a	n/a
56.321	7.758	FIXCROSS	n/a	n/a	n/a	n/a	n/a
64.079	6.317	CUE_PLAYBACK_RIGHT_HAND	        M1	2	n/a	n/a	n/a
65.687	n/a	RESPONSE	        M1	2	17	F4	press
66.118	n/a	RESPONSE	        M1	2	17	F4	release
66.25	n/a	RESPONSE	        M1	2	17	F4	press
66.661	n/a	RESPONSE	        M1	2	19	G4	press
66.712	n/a	RESPONSE	        M1	2	17	F4	release
66.865	n/a	RESPONSE	        M1	2	19	G4	release
67.405	n/a	RESPONSE	        M1	2	19	G4	press
67.648	n/a	RESPONSE	        M1	2	21	A4	press
67.797	n/a	RESPONSE	        M1	2	19	G4	release
67.908	n/a	RESPONSE	        M1	2	19	G4	press
68.03	n/a	RESPONSE	        M1	2	21	A4	release
68.341	n/a	RESPONSE	        M1	2	17	F4	press
68.562	n/a	RESPONSE	        M1	2	19	G4	release
68.713	n/a	RESPONSE	        M1	2	16	E4	press
69.386	n/a	RESPONSE	        M1	2	12	C4	press
69.426	n/a	RESPONSE	        M1	2	17	F4	release
69.617	n/a	RESPONSE	        M1	2	16	E4	release
69.851	n/a	RESPONSE	        M1	2	12	C4	release
69.972	n/a	RESPONSE	        M1	2	19	G4	press
70.341	n/a	RESPONSE	        M1	2	19	G4	release
70.396	7.758	FIXCROSS	n/a	n/a	n/a	n/a	n/a
70.465	n/a	RESPONSE	        M1	2	19	G4	press
70.766	n/a	RESPONSE	        M1	2	21	A4	press
70.915	n/a	RESPONSE	        M1	2	19	G4	release
71.046	n/a	RESPONSE	        M1	2	19	G4	press
71.167	n/a	RESPONSE	        M1	2	21	A4	release
71.318	n/a	RESPONSE	        M1	2	17	F4	press
71.532	n/a	RESPONSE	        M1	2	19	G4	release
71.641	n/a	RESPONSE	        M1	2	16	E4	press
71.912	n/a	RESPONSE	        M1	2	17	F4	release
72.181	n/a	RESPONSE	        M1	2	12	C4	press
72.586	n/a	RESPONSE	        M1	2	16	E4	release
72.66	n/a	RESPONSE	        M1	2	12	C4	release
72.81	n/a	RESPONSE	        M1	2	12	C4	press
73.517	n/a	RESPONSE	        M1	2	12	C4	release
73.647	n/a	RESPONSE	        M1	2	12	C4	press
74.137	n/a	RESPONSE	        M1	2	12	C4	release
78.154	6.317	CUE_LISTEN	        M7	1	n/a	n/a	n/a
84.471	7.758	FIXCROSS	n/a	n/a	n/a	n/a	n/a
92.229	6.325	CUE_PLAYBACK_BOTH_HANDS	        M7	1	n/a	n/a	n/a
94.655	n/a	RESPONSE	        M7	1	05	F3	press
94.705	n/a	RESPONSE	        M7	1	20	G#4	press
94.981	n/a	RESPONSE	        M7	1	20	G#4	release
95.112	n/a	RESPONSE	        M7	1	09	A3	press
95.115	n/a	RESPONSE	        M7	1	20	G#4	press
95.215	n/a	RESPONSE	        M7	1	05	F3	release
95.327	n/a	RESPONSE	        M7	1	20	G#4	release
95.477	n/a	RESPONSE	        M7	1	09	A3	release
95.542	n/a	RESPONSE	        M7	1	20	G#4	press
95.561	n/a	RESPONSE	        M7	1	04	E3	press
95.932	n/a	RESPONSE	        M7	1	20	G#4	release
96.173	n/a	RESPONSE	        M7	1	04	E3	release
96.235	n/a	RESPONSE	        M7	1	09	A3	press
96.266	n/a	RESPONSE	        M7	1	20	G#4	press
96.518	n/a	RESPONSE	        M7	1	20	G#4	release
96.578	n/a	RESPONSE	        M7	1	09	A3	release
96.69	n/a	RESPONSE	        M7	1	02	D3	press
96.702	n/a	RESPONSE	        M7	1	20	G#4	press
96.972	n/a	RESPONSE	        M7	1	20	G#4	release
97.046	n/a	RESPONSE	        M7	1	02	D3	release
97.115	n/a	RESPONSE	        M7	1	09	A3	press
97.136	n/a	RESPONSE	        M7	1	20	G#4	press
97.68	n/a	RESPONSE	        M7	1	20	G#4	release
97.828	n/a	RESPONSE	        M7	1	09	A3	release
98.554	7.758	FIXCROSS	n/a	n/a	n/a	n/a	n/a
99.17	n/a	RESPONSE	        M7	1	20	G#4	press
99.172	n/a	RESPONSE	        M7	1	05	F3	press
99.443	n/a	RESPONSE	        M7	1	20	G#4	release
99.473	n/a	RESPONSE	        M7	1	05	F3	release
106.313	6.317	CUE_LISTEN	        M7	2	n/a	n/a	n/a
112.629	7.758	FIXCROSS	n/a	n/a	n/a	n/a	n/a
120.388	6.325	CUE_PLAYBACK_BOTH_HANDS	        M7	2	n/a	n/a	n/a
121.128	n/a	RESPONSE	        M7	2	05	F3	press
121.152	n/a	RESPONSE	        M7	2	20	G#4	press
121.431	n/a	RESPONSE	        M7	2	20	G#4	release
121.482	n/a	RESPONSE	        M7	2	05	F3	release
122.867	n/a	RESPONSE	        M7	2	05	F3	press
122.955	n/a	RESPONSE	        M7	2	19	G4	press
123.245	n/a	RESPONSE	        M7	2	19	G4	release
123.292	n/a	RESPONSE	        M7	2	05	F3	release
123.42	n/a	RESPONSE	        M7	2	11	B3	press
123.437	n/a	RESPONSE	        M7	2	19	G4	press
123.661	n/a	RESPONSE	        M7	2	19	G4	release
123.851	n/a	RESPONSE	        M7	2	11	B3	release
125.0	n/a	RESPONSE	        M7	2	05	F3	press
125.012	n/a	RESPONSE	        M7	2	20	G#4	press
125.241	n/a	RESPONSE	        M7	2	20	G#4	release
125.292	n/a	RESPONSE	        M7	2	05	F3	release
125.363	n/a	RESPONSE	        M7	2	11	B3	press
125.382	n/a	RESPONSE	        M7	2	20	G#4	press
125.586	n/a	RESPONSE	        M7	2	20	G#4	release
125.727	n/a	RESPONSE	        M7	2	04	E3	press
125.748	n/a	RESPONSE	        M7	2	11	B3	release
126.12	n/a	RESPONSE	        M7	2	11	B3	press
126.181	n/a	RESPONSE	        M7	2	20	G#4	press
126.362	n/a	RESPONSE	        M7	2	20	G#4	release
126.415	n/a	RESPONSE	        M7	2	04	E3	release
126.515	n/a	RESPONSE	        M7	2	11	B3	release
126.616	n/a	RESPONSE	        M7	2	02	D3	press
126.668	n/a	RESPONSE	        M7	2	20	G#4	press
126.713	7.758	FIXCROSS	n/a	n/a	n/a	n/a	n/a
126.838	n/a	RESPONSE	        M7	2	20	G#4	release
127.002	n/a	RESPONSE	        M7	2	11	B3	press
127.292	n/a	RESPONSE	        M7	2	02	D3	release
127.402	n/a	RESPONSE	        M7	2	11	B3	release
127.463	n/a	RESPONSE	        M7	2	00	C3	press
127.915	n/a	RESPONSE	        M7	2	11	B3	press
127.956	n/a	RESPONSE	        M7	2	00	C3	release
128.017	n/a	RESPONSE	        M7	2	20	G#4	press
128.148	n/a	RESPONSE	        M7	2	20	G#4	release
128.41	n/a	RESPONSE	        M7	2	11	B3	release
134.471	6.317	CUE_LISTEN	        M5	1	n/a	n/a	n/a
140.788	7.758	FIXCROSS	n/a	n/a	n/a	n/a	n/a
148.546	6.317	CUE_PLAYBACK_BOTH_HANDS	        M5	1	n/a	n/a	n/a
150.991	n/a	RESPONSE	        M5	1	04	E3	press
151.003	n/a	RESPONSE	        M5	1	19	G4	press
151.006	n/a	RESPONSE	        M5	1	07	G3	press
151.056	n/a	RESPONSE	        M5	1	00	C3	press
151.427	n/a	RESPONSE	        M5	1	16	E4	press
151.521	n/a	RESPONSE	        M5	1	19	G4	release
151.77	n/a	RESPONSE	        M5	1	16	E4	release
151.892	n/a	RESPONSE	        M5	1	16	E4	press
152.127	n/a	RESPONSE	        M5	1	00	C3	release
152.208	n/a	RESPONSE	        M5	1	16	E4	release
152.236	n/a	RESPONSE	        M5	1	04	E3	release
152.35	n/a	RESPONSE	        M5	1	17	F4	press
152.377	n/a	RESPONSE	        M5	1	02	D3	press
152.828	n/a	RESPONSE	        M5	1	14	D4	press
152.905	n/a	RESPONSE	        M5	1	17	F4	release
152.943	n/a	RESPONSE	        M5	1	05	F3	press
153.171	n/a	RESPONSE	        M5	1	14	D4	release
153.277	n/a	RESPONSE	        M5	1	14	D4	press
153.535	n/a	RESPONSE	        M5	1	05	F3	release
153.551	n/a	RESPONSE	        M5	1	14	D4	release
153.666	n/a	RESPONSE	        M5	1	02	D3	release
153.781	n/a	RESPONSE	        M5	1	04	E3	press
153.816	n/a	RESPONSE	        M5	1	12	C4	press
154.193	n/a	RESPONSE	        M5	1	16	E4	press
154.305	n/a	RESPONSE	        M5	1	12	C4	release
154.582	n/a	RESPONSE	        M5	1	19	G4	press
154.645	n/a	RESPONSE	        M5	1	16	E4	release
154.658	n/a	RESPONSE	        M5	1	00	C3	press
154.863	7.758	FIXCROSS	n/a	n/a	n/a	n/a	n/a
155.73	n/a	RESPONSE	        M5	1	19	G4	release
155.772	n/a	RESPONSE	        M5	1	00	C3	release
162.621	6.325	CUE_LISTEN	        M5	2	n/a	n/a	n/a
162.956	n/a	RESPONSE	        M5	2	04	E3	release
168.946	7.758	FIXCROSS	n/a	n/a	n/a	n/a	n/a
176.705	6.317	CUE_PLAYBACK_BOTH_HANDS	        M5	2	n/a	n/a	n/a
177.563	n/a	RESPONSE	        M5	2	07	G3	release
178.377	n/a	RESPONSE	        M5	2	19	G4	press
178.396	n/a	RESPONSE	        M5	2	04	E3	press
178.417	n/a	RESPONSE	        M5	2	07	G3	press
178.43	n/a	RESPONSE	        M5	2	00	C3	press
178.83	n/a	RESPONSE	        M5	2	16	E4	press
178.931	n/a	RESPONSE	        M5	2	19	G4	release
179.172	n/a	RESPONSE	        M5	2	16	E4	release
179.323	n/a	RESPONSE	        M5	2	16	E4	press
179.547	n/a	RESPONSE	        M5	2	00	C3	release
179.627	n/a	RESPONSE	        M5	2	16	E4	release
179.637	n/a	RESPONSE	        M5	2	04	E3	release
179.818	n/a	RESPONSE	        M5	2	17	F4	press
179.821	n/a	RESPONSE	        M5	2	02	D3	press
179.881	n/a	RESPONSE	        M5	2	05	F3	press
180.312	n/a	RESPONSE	        M5	2	14	D4	press
180.443	n/a	RESPONSE	        M5	2	17	F4	release
180.617	n/a	RESPONSE	        M5	2	14	D4	release
180.818	n/a	RESPONSE	        M5	2	14	D4	press
181.057	n/a	RESPONSE	        M5	2	05	F3	release
181.088	n/a	RESPONSE	        M5	2	02	D3	release
181.242	n/a	RESPONSE	        M5	2	14	D4	release
181.391	n/a	RESPONSE	        M5	2	02	D3	press
181.412	n/a	RESPONSE	        M5	2	12	C4	press
181.723	n/a	RESPONSE	        M5	2	00	C3	press
181.805	n/a	RESPONSE	        M5	2	14	D4	press
181.846	n/a	RESPONSE	        M5	2	12	C4	release
182.202	n/a	RESPONSE	        M5	2	11	B3	press
182.745	n/a	RESPONSE	        M5	2	14	D4	release
183.021	7.758	FIXCROSS	n/a	n/a	n/a	n/a	n/a
183.12	n/a	RESPONSE	        M5	2	11	B3	release
183.192	n/a	RESPONSE	        M5	2	02	D3	release
183.251	n/a	RESPONSE	        M5	2	00	C3	release
183.548	n/a	RESPONSE	        M5	2	07	G3	release
190.78	6.317	CUE_LISTEN	        M3	1	n/a	n/a	n/a
197.096	7.758	FIXCROSS	n/a	n/a	n/a	n/a	n/a
204.855	6.325	CUE_PLAYBACK_RIGHT_HAND	        M3	1	n/a	n/a	n/a
206.097	n/a	RESPONSE	        M3	1	09	A3	press
206.118	n/a	RESPONSE	        M3	1	22	A#4	press
206.83	n/a	RESPONSE	        M3	1	21	A4	press
206.862	n/a	RESPONSE	        M3	1	09	A3	release
206.882	n/a	RESPONSE	        M3	1	22	A#4	release
207.483	n/a	RESPONSE	        M3	1	19	G4	press
207.594	n/a	RESPONSE	        M3	1	21	A4	release
208.166	n/a	RESPONSE	        M3	1	21	A4	press
208.18	n/a	RESPONSE	        M3	1	07	G3	press
208.248	n/a	RESPONSE	        M3	1	19	G4	release
209.572	n/a	RESPONSE	        M3	1	14	D4	press
210.061	n/a	RESPONSE	        M3	1	21	A4	release
210.412	n/a	RESPONSE	        M3	1	14	D4	release
210.465	n/a	RESPONSE	        M3	1	14	D4	press
211.18	7.758	FIXCROSS	n/a	n/a	n/a	n/a	n/a
211.446	n/a	RESPONSE	        M3	1	19	G4	press
211.466	n/a	RESPONSE	        M3	1	03	D#3	press
211.497	n/a	RESPONSE	        M3	1	07	G3	release
211.531	n/a	RESPONSE	        M3	1	14	D4	release
212.3	n/a	RESPONSE	        M3	1	11	B3	press
212.432	n/a	RESPONSE	        M3	1	19	G4	release
212.971	n/a	RESPONSE	        M3	1	11	B3	release
213.177	n/a	RESPONSE	        M3	1	03	D#3	release
218.938	6.317	CUE_LISTEN	        M3	2	n/a	n/a	n/a
225.255	7.758	FIXCROSS	n/a	n/a	n/a	n/a	n/a
233.013	6.317	CUE_PLAYBACK_RIGHT_HAND	        M3	2	n/a	n/a	n/a
237.392	n/a	RESPONSE	        M3	2	19	G4	press
237.413	n/a	RESPONSE	        M3	2	02	D3	press
238.416	n/a	RESPONSE	        M3	2	02	D3	release
238.606	n/a	RESPONSE	        M3	2	19	G4	release
238.65	n/a	RESPONSE	        M3	2	15	D#4	press
238.728	n/a	RESPONSE	        M3	2	06	F#3	press
239.33	7.758	FIXCROSS	n/a	n/a	n/a	n/a	n/a
239.75	n/a	RESPONSE	        M3	2	06	F#3	release
239.791	n/a	RESPONSE	        M3	2	15	D#4	release
247.088	6.325	CUE_LISTEN	        M6	1	n/a	n/a	n/a
253.413	7.758	FIXCROSS	n/a	n/a	n/a	n/a	n/a
261.171	6.317	CUE_PLAYBACK_RIGHT_HAND	        M6	1	n/a	n/a	n/a
263.016	n/a	RESPONSE	        M6	1	12	C4	press
263.023	n/a	RESPONSE	        M6	1	09	A3	press
263.04	n/a	RESPONSE	        M6	1	05	F3	press
263.541	n/a	RESPONSE	        M6	1	16	E4	press
264.161	n/a	RESPONSE	        M6	1	19	G4	press
264.29	n/a	RESPONSE	        M6	1	16	E4	release
264.643	n/a	RESPONSE	        M6	1	19	G4	release
265.201	n/a	RESPONSE	        M6	1	09	A3	release
265.234	n/a	RESPONSE	        M6	1	12	C4	release
265.338	n/a	RESPONSE	        M6	1	05	F3	release
265.52	n/a	RESPONSE	        M6	1	09	A3	press
265.533	n/a	RESPONSE	        M6	1	12	C4	press
265.565	n/a	RESPONSE	        M6	1	05	F3	press
266.126	n/a	RESPONSE	        M6	1	16	E4	press
266.797	n/a	RESPONSE	        M6	1	19	G4	press
266.918	n/a	RESPONSE	        M6	1	16	E4	release
267.471	n/a	RESPONSE	        M6	1	17	F4	press
267.488	7.759	FIXCROSS	n/a	n/a	n/a	n/a	n/a
267.491	n/a	RESPONSE	        M6	1	16	E4	press
267.532	n/a	RESPONSE	        M6	1	19	G4	release
267.976	n/a	RESPONSE	        M6	1	17	F4	release
268.594	n/a	RESPONSE	        M6	1	17	F4	press
268.717	n/a	RESPONSE	        M6	1	16	E4	release
269.188	n/a	RESPONSE	        M6	1	17	F4	release
269.421	n/a	RESPONSE	        M6	1	05	F3	release
269.432	n/a	RESPONSE	        M6	1	09	A3	release
269.521	n/a	RESPONSE	        M6	1	12	C4	release
275.246	6.325	CUE_LISTEN	        M6	2	n/a	n/a	n/a
281.571	7.758	FIXCROSS	n/a	n/a	n/a	n/a	n/a
289.33	6.317	CUE_PLAYBACK_RIGHT_HAND	        M6	2	n/a	n/a	n/a
290.853	n/a	RESPONSE	        M6	2	07	G3	press
290.873	n/a	RESPONSE	        M6	2	12	C4	press
290.894	n/a	RESPONSE	        M6	2	04	E3	press
291.846	n/a	RESPONSE	        M6	2	12	C4	release
291.938	n/a	RESPONSE	        M6	2	07	G3	release
291.984	n/a	RESPONSE	        M6	2	04	E3	release
292.113	n/a	RESPONSE	        M6	2	12	C4	press
292.116	n/a	RESPONSE	        M6	2	07	G3	press
292.248	n/a	RESPONSE	        M6	2	04	E3	press
292.838	n/a	RESPONSE	        M6	2	16	E4	press
294.686	n/a	RESPONSE	        M6	2	17	F4	press
295.361	n/a	RESPONSE	        M6	2	17	F4	release
295.37	n/a	RESPONSE	        M6	2	21	A4	press
295.646	7.758	FIXCROSS	n/a	n/a	n/a	n/a	n/a
296.047	n/a	RESPONSE	        M6	2	04	E3	release
296.118	n/a	RESPONSE	        M6	2	07	G3	release
296.14	n/a	RESPONSE	        M6	2	16	E4	release
296.363	n/a	RESPONSE	        M6	2	21	A4	release
296.562	n/a	RESPONSE	        M6	2	09	A3	press
296.583	n/a	RESPONSE	        M6	2	18	F#4	press
297.105	n/a	RESPONSE	        M6	2	17	F4	press
297.206	n/a	RESPONSE	        M6	2	18	F#4	release
297.647	n/a	RESPONSE	        M6	2	16	E4	press
297.748	n/a	RESPONSE	        M6	2	17	F4	release
298.16	n/a	RESPONSE	        M6	2	09	A3	release
298.181	n/a	RESPONSE	        M6	2	16	E4	release
298.282	n/a	RESPONSE	        M6	2	12	C4	release
303.405	6.317	CUE_LISTEN	        M2	1	n/a	n/a	n/a
309.722	7.758	FIXCROSS	n/a	n/a	n/a	n/a	n/a
317.48	6.317	CUE_PLAYBACK_BOTH_HANDS	        M2	1	n/a	n/a	n/a
319.343	n/a	RESPONSE	        M2	1	04	E3	press
319.346	n/a	RESPONSE	        M2	1	24	C5	press
319.348	n/a	RESPONSE	        M2	1	12	C4	press
319.727	n/a	RESPONSE	        M2	1	19	G4	press
319.898	n/a	RESPONSE	        M2	1	24	C5	release
320.031	n/a	RESPONSE	        M2	1	04	E3	release
320.052	n/a	RESPONSE	        M2	1	12	C4	release
320.063	n/a	RESPONSE	        M2	1	19	G4	release
320.194	n/a	RESPONSE	        M2	1	19	G4	press
320.206	n/a	RESPONSE	        M2	1	12	C4	press
320.208	n/a	RESPONSE	        M2	1	04	E3	press
320.648	n/a	RESPONSE	        M2	1	17	F4	press
320.781	n/a	RESPONSE	        M2	1	19	G4	release
320.891	n/a	RESPONSE	        M2	1	04	E3	release
320.982	n/a	RESPONSE	        M2	1	17	F4	release
321.083	n/a	RESPONSE	        M2	1	16	E4	press
321.094	n/a	RESPONSE	        M2	1	04	E3	press
321.536	n/a	RESPONSE	        M2	1	17	F4	press
321.587	n/a	RESPONSE	        M2	1	16	E4	release
321.758	n/a	RESPONSE	        M2	1	04	E3	release
321.78	n/a	RESPONSE	        M2	1	12	C4	release
321.861	n/a	RESPONSE	        M2	1	17	F4	release
321.986	n/a	RESPONSE	        M2	1	12	C4	press
321.99	n/a	RESPONSE	        M2	1	04	E3	press
321.992	n/a	RESPONSE	        M2	1	19	G4	press
323.042	n/a	RESPONSE	        M2	1	19	G4	release
323.071	n/a	RESPONSE	        M2	1	04	E3	release
323.123	n/a	RESPONSE	        M2	1	12	C4	release
323.791	n/a	RESPONSE	        M2	1	24	C5	press
323.796	7.758	FIXCROSS	n/a	n/a	n/a	n/a	n/a
323.837	n/a	RESPONSE	        M2	1	12	C4	press
323.843	n/a	RESPONSE	        M2	1	04	E3	press
324.407	n/a	RESPONSE	        M2	1	04	E3	release
324.474	n/a	RESPONSE	        M2	1	12	C4	release
324.864	n/a	RESPONSE	        M2	1	24	C5	release
331.555	6.325	CUE_LISTEN	        M2	2	n/a	n/a	n/a
337.88	7.758	FIXCROSS	n/a	n/a	n/a	n/a	n/a
345.638	6.317	CUE_PLAYBACK_BOTH_HANDS	        M2	2	n/a	n/a	n/a
348.487	n/a	RESPONSE	        M2	2	14	D4	press
348.498	n/a	RESPONSE	        M2	2	12	C4	press
348.501	n/a	RESPONSE	        M2	2	04	E3	press
349.293	n/a	RESPONSE	        M2	2	14	D4	release
349.354	n/a	RESPONSE	        M2	2	12	C4	release
349.363	n/a	RESPONSE	        M2	2	04	E3	release
349.854	n/a	RESPONSE	        M2	2	14	D4	press
349.866	n/a	RESPONSE	        M2	2	12	C4	press
349.868	n/a	RESPONSE	        M2	2	04	E3	press
350.218	n/a	RESPONSE	        M2	2	16	E4	press
350.281	n/a	RESPONSE	        M2	2	14	D4	release
350.471	n/a	RESPONSE	        M2	2	04	E3	release
350.473	n/a	RESPONSE	        M2	2	12	C4	release
350.563	n/a	RESPONSE	        M2	2	16	E4	release
350.684	n/a	RESPONSE	        M2	2	17	F4	press
350.687	n/a	RESPONSE	        M2	2	12	C4	press
350.69	n/a	RESPONSE	        M2	2	04	E3	press
351.058	n/a	RESPONSE	        M2	2	16	E4	press
351.181	n/a	RESPONSE	        M2	2	17	F4	release
351.241	n/a	RESPONSE	        M2	2	04	E3	release
351.243	n/a	RESPONSE	        M2	2	12	C4	release
351.383	n/a	RESPONSE	        M2	2	16	E4	release
351.544	n/a	RESPONSE	        M2	2	17	F4	press
351.556	n/a	RESPONSE	        M2	2	12	C4	press
351.567	n/a	RESPONSE	        M2	2	04	E3	press
351.949	n/a	RESPONSE	        M2	2	19	G4	press
351.955	7.758	FIXCROSS	n/a	n/a	n/a	n/a	n/a
352.012	n/a	RESPONSE	        M2	2	17	F4	release
352.177	n/a	RESPONSE	        M2	2	04	E3	release
352.193	n/a	RESPONSE	        M2	2	12	C4	release
352.316	n/a	RESPONSE	        M2	2	19	G4	release
352.396	n/a	RESPONSE	        M2	2	12	C4	press
352.404	n/a	RESPONSE	        M2	2	04	E3	press
352.41	n/a	RESPONSE	        M2	2	21	A4	press
353.141	n/a	RESPONSE	        M2	2	04	E3	release
353.143	n/a	RESPONSE	        M2	2	21	A4	release
353.146	n/a	RESPONSE	        M2	2	12	C4	release
359.713	6.317	CUE_LISTEN	        M8	1	n/a	n/a	n/a
366.03	7.758	FIXCROSS	n/a	n/a	n/a	n/a	n/a
373.788	6.325	CUE_PLAYBACK_BOTH_HANDS	        M8	1	n/a	n/a	n/a
375.056	n/a	RESPONSE	        M8	1	16	E4	press
375.7	n/a	RESPONSE	        M8	1	16	E4	release
375.89	n/a	RESPONSE	        M8	1	16	E4	press
376.201	n/a	RESPONSE	        M8	1	19	G4	press
376.373	n/a	RESPONSE	        M8	1	16	E4	release
376.553	n/a	RESPONSE	        M8	1	23	B4	press
376.616	n/a	RESPONSE	        M8	1	19	G4	release
377.076	n/a	RESPONSE	        M8	1	23	B4	release
377.287	n/a	RESPONSE	        M8	1	23	B4	press
378.798	n/a	RESPONSE	        M8	1	09	A3	press
378.801	n/a	RESPONSE	        M8	1	18	F#4	press
378.881	n/a	RESPONSE	        M8	1	23	B4	release
379.463	n/a	RESPONSE	        M8	1	12	C4	press
379.694	n/a	RESPONSE	        M8	1	09	A3	release
380.094	n/a	RESPONSE	        M8	1	21	A4	press
380.106	n/a	RESPONSE	        M8	1	16	E4	press
380.113	7.758	FIXCROSS	n/a	n/a	n/a	n/a	n/a
380.16	n/a	RESPONSE	        M8	1	18	F#4	release
380.198	n/a	RESPONSE	        M8	1	12	C4	release
380.621	n/a	RESPONSE	        M8	1	16	E4	release
380.801	n/a	RESPONSE	        M8	1	16	E4	press
381.503	n/a	RESPONSE	        M8	1	23	B4	press
381.536	n/a	RESPONSE	        M8	1	15	D#4	press
381.594	n/a	RESPONSE	        M8	1	21	A4	release
381.597	n/a	RESPONSE	        M8	1	16	E4	release
382.953	n/a	RESPONSE	        M8	1	21	A4	press
383.203	n/a	RESPONSE	        M8	1	23	B4	release
383.341	n/a	RESPONSE	        M8	1	15	D#4	release
383.488	n/a	RESPONSE	        M8	1	21	A4	release
387.872	6.317	CUE_LISTEN	        M8	2	n/a	n/a	n/a
394.188	7.758	FIXCROSS	n/a	n/a	n/a	n/a	n/a
401.947	6.325	CUE_PLAYBACK_BOTH_HANDS	        M8	2	n/a	n/a	n/a
402.871	n/a	RESPONSE	        M8	2	16	E4	press
403.488	n/a	RESPONSE	        M8	2	16	E4	release
403.717	n/a	RESPONSE	        M8	2	16	E4	press
403.986	n/a	RESPONSE	        M8	2	19	G4	press
404.168	n/a	RESPONSE	        M8	2	16	E4	release
404.288	n/a	RESPONSE	        M8	2	23	B4	press
404.464	n/a	RESPONSE	        M8	2	19	G4	release
404.676	n/a	RESPONSE	        M8	2	23	B4	release
404.876	n/a	RESPONSE	        M8	2	23	B4	press
405.748	n/a	RESPONSE	        M8	2	23	B4	release
405.817	n/a	RESPONSE	        M8	2	18	F#4	press
405.828	n/a	RESPONSE	        M8	2	09	A3	press
406.44	n/a	RESPONSE	        M8	2	16	E4	press
406.813	n/a	RESPONSE	        M8	2	16	E4	release
406.834	n/a	RESPONSE	        M8	2	09	A3	release
407.203	n/a	RESPONSE	        M8	2	18	F#4	release
407.484	n/a	RESPONSE	        M8	2	18	F#4	press
407.496	n/a	RESPONSE	        M8	2	12	C4	press
408.272	7.758	FIXCROSS	n/a	n/a	n/a	n/a	n/a
408.298	n/a	RESPONSE	        M8	2	23	B4	press
408.338	n/a	RESPONSE	        M8	2	16	E4	press
408.402	n/a	RESPONSE	        M8	2	18	F#4	release
408.421	n/a	RESPONSE	        M8	2	12	C4	release
408.812	n/a	RESPONSE	        M8	2	16	E4	release
408.963	n/a	RESPONSE	        M8	2	16	E4	press
409.794	n/a	RESPONSE	        M8	2	15	D#4	press
409.797	n/a	RESPONSE	        M8	2	21	A4	press
409.839	n/a	RESPONSE	        M8	2	16	E4	release
409.868	n/a	RESPONSE	        M8	2	23	B4	release
410.369	n/a	RESPONSE	        M8	2	15	D#4	release
410.851	n/a	RESPONSE	        M8	2	21	A4	release
410.962	n/a	RESPONSE	        M8	2	19	G4	press
411.153	n/a	RESPONSE	        M8	2	17	F4	press
411.277	n/a	RESPONSE	        M8	2	19	G4	release
411.458	n/a	RESPONSE	        M8	2	17	F4	release
416.03	6.317	CUE_LISTEN	        M4	1	n/a	n/a	n/a
422.347	7.758	FIXCROSS	n/a	n/a	n/a	n/a	n/a
430.105	6.317	CUE_PLAYBACK_RIGHT_HAND	        M4	1	n/a	n/a	n/a
434.192	n/a	RESPONSE	        M4	1	22	A#4	press
434.436	n/a	RESPONSE	        M4	1	22	A#4	release
436.422	7.759	FIXCROSS	n/a	n/a	n/a	n/a	n/a
444.18	6.325	CUE_LISTEN	        M4	2	n/a	n/a	n/a
450.505	7.758	FIXCROSS	n/a	n/a	n/a	n/a	n/a
458.264	6.317	CUE_PLAYBACK_RIGHT_HAND	        M4	2	n/a	n/a	n/a
458.813	n/a	RESPONSE	        M4	2	04	E3	press
458.834	n/a	RESPONSE	        M4	2	16	E4	press
459.776	n/a	RESPONSE	        M4	2	16	E4	release
459.778	n/a	RESPONSE	        M4	2	04	E3	release
459.818	n/a	RESPONSE	        M4	2	11	B3	press
460.699	n/a	RESPONSE	        M4	2	11	B3	release
460.822	n/a	RESPONSE	        M4	2	09	A3	press
460.843	n/a	RESPONSE	        M4	2	16	E4	press
461.777	n/a	RESPONSE	        M4	2	11	B3	press
461.806	n/a	RESPONSE	        M4	2	09	A3	release
461.858	n/a	RESPONSE	        M4	2	16	E4	release
462.659	n/a	RESPONSE	        M4	2	11	B3	release
464.58	7.758	FIXCROSS	n/a	n/a	n/a	n/a	n/a
472.338	6.317	CUE_LISTEN	        M3	1	n/a	n/a	n/a
478.655	7.758	FIXCROSS	n/a	n/a	n/a	n/a	n/a
486.414	6.325	CUE_PLAYBACK_RIGHT_HAND	        M3	1	n/a	n/a	n/a
487.947	n/a	RESPONSE	        M3	1	19	G4	press
488.488	n/a	RESPONSE	        M3	1	16	E4	press
488.559	n/a	RESPONSE	        M3	1	19	G4	release
488.911	n/a	RESPONSE	        M3	1	16	E4	release
489.114	n/a	RESPONSE	        M3	1	16	E4	press
489.534	n/a	RESPONSE	        M3	1	16	E4	release
489.594	n/a	RESPONSE	        M3	1	17	F4	press
490.207	n/a	RESPONSE	        M3	1	14	D4	press
490.219	n/a	RESPONSE	        M3	1	17	F4	release
490.588	n/a	RESPONSE	        M3	1	14	D4	release
490.791	n/a	RESPONSE	        M3	1	14	D4	press
491.182	n/a	RESPONSE	        M3	1	14	D4	release
491.392	n/a	RESPONSE	        M3	1	12	C4	press
491.693	n/a	RESPONSE	        M3	1	16	E4	press
491.734	n/a	RESPONSE	        M3	1	12	C4	release
492.033	n/a	RESPONSE	        M3	1	16	E4	release
492.054	n/a	RESPONSE	        M3	1	19	G4	press
492.738	7.758	FIXCROSS	n/a	n/a	n/a	n/a	n/a
493.207	n/a	RESPONSE	        M3	1	19	G4	release
500.497	6.317	CUE_LISTEN	        M3	2	n/a	n/a	n/a
506.814	7.759	FIXCROSS	n/a	n/a	n/a	n/a	n/a
514.572	6.317	CUE_PLAYBACK_RIGHT_HAND	        M3	2	n/a	n/a	n/a
515.422	n/a	RESPONSE	        M3	2	19	G4	press
516.081	n/a	RESPONSE	        M3	2	16	E4	press
516.083	n/a	RESPONSE	        M3	2	19	G4	release
516.414	n/a	RESPONSE	        M3	2	16	E4	release
516.646	n/a	RESPONSE	        M3	2	16	E4	press
517.036	n/a	RESPONSE	        M3	2	16	E4	release
517.237	n/a	RESPONSE	        M3	2	17	F4	press
517.838	n/a	RESPONSE	        M3	2	17	F4	release
517.921	n/a	RESPONSE	        M3	2	14	D4	press
518.233	n/a	RESPONSE	        M3	2	14	D4	release
518.452	n/a	RESPONSE	        M3	2	14	D4	press
518.763	n/a	RESPONSE	        M3	2	14	D4	release
518.984	n/a	RESPONSE	        M3	2	12	C4	press
519.296	n/a	RESPONSE	        M3	2	16	E4	press
519.367	n/a	RESPONSE	        M3	2	12	C4	release
519.558	n/a	RESPONSE	        M3	2	12	C4	press
519.629	n/a	RESPONSE	        M3	2	16	E4	release
520.161	n/a	RESPONSE	        M3	2	12	C4	release
520.889	7.758	FIXCROSS	n/a	n/a	n/a	n/a	n/a
528.647	6.325	CUE_LISTEN	        M5	1	n/a	n/a	n/a
534.972	7.758	FIXCROSS	n/a	n/a	n/a	n/a	n/a
542.73	6.317	CUE_PLAYBACK_BOTH_HANDS	        M5	1	n/a	n/a	n/a
544.237	n/a	RESPONSE	        M5	1	09	A3	press
544.251	n/a	RESPONSE	        M5	1	22	A#4	press
544.879	n/a	RESPONSE	        M5	1	21	A4	press
545.584	n/a	RESPONSE	        M5	1	19	G4	press
545.636	n/a	RESPONSE	        M5	1	07	G3	press
545.657	n/a	RESPONSE	        M5	1	22	A#4	release
545.708	n/a	RESPONSE	        M5	1	09	A3	release
545.759	n/a	RESPONSE	        M5	1	21	A4	release
546.231	n/a	RESPONSE	        M5	1	21	A4	press
546.314	n/a	RESPONSE	        M5	1	19	G4	release
547.483	n/a	RESPONSE	        M5	1	07	G3	release
547.984	n/a	RESPONSE	        M5	1	14	D4	press
547.997	n/a	RESPONSE	        M5	1	06	F#3	press
548.207	n/a	RESPONSE	        M5	1	21	A4	release
548.768	n/a	RESPONSE	        M5	1	06	F#3	release
549.047	7.758	FIXCROSS	n/a	n/a	n/a	n/a	n/a
549.089	n/a	RESPONSE	        M5	1	14	D4	release
549.611	n/a	RESPONSE	        M5	1	16	E4	press
550.174	n/a	RESPONSE	        M5	1	16	E4	release
556.805	6.317	CUE_LISTEN	        M5	2	n/a	n/a	n/a
563.122	7.758	FIXCROSS	n/a	n/a	n/a	n/a	n/a
570.88	6.325	CUE_PLAYBACK_BOTH_HANDS	        M5	2	n/a	n/a	n/a
572.929	n/a	RESPONSE	        M5	2	07	G3	press
572.937	n/a	RESPONSE	        M5	2	14	D4	press
573.929	n/a	RESPONSE	        M5	2	07	G3	release
573.946	n/a	RESPONSE	        M5	2	14	D4	release
574.206	n/a	RESPONSE	        M5	2	14	D4	press
574.211	n/a	RESPONSE	        M5	2	07	G3	press
574.806	n/a	RESPONSE	        M5	2	13	C#4	press
574.942	n/a	RESPONSE	        M5	2	14	D4	release
575.356	n/a	RESPONSE	        M5	2	11	B3	press
576.567	n/a	RESPONSE	        M5	2	11	B3	release
576.667	n/a	RESPONSE	        M5	2	13	C#4	release
576.748	n/a	RESPONSE	        M5	2	07	G3	release
577.205	7.758	FIXCROSS	n/a	n/a	n/a	n/a	n/a
577.729	n/a	RESPONSE	        M5	2	02	D3	press
577.732	n/a	RESPONSE	        M5	2	11	B3	press
578.602	n/a	RESPONSE	        M5	2	00	C3	press
578.613	n/a	RESPONSE	        M5	2	02	D3	release
579.074	n/a	RESPONSE	        M5	2	00	C3	release
579.157	n/a	RESPONSE	        M5	2	11	B3	release
584.964	6.317	CUE_LISTEN	        M1	1	n/a	n/a	n/a
591.28	7.758	FIXCROSS	n/a	n/a	n/a	n/a	n/a
599.039	6.317	CUE_PLAYBACK_RIGHT_HAND	        M1	1	n/a	n/a	n/a
600.804	n/a	RESPONSE	        M1	1	05	F3	press
600.813	n/a	RESPONSE	        M1	1	22	A#4	press
601.116	n/a	RESPONSE	        M1	1	22	A#4	release
601.236	n/a	RESPONSE	        M1	1	22	A#4	press
601.238	n/a	RESPONSE	        M1	1	09	A3	press
601.328	n/a	RESPONSE	        M1	1	05	F3	release
601.499	n/a	RESPONSE	        M1	1	22	A#4	release
601.592	n/a	RESPONSE	        M1	1	09	A3	release
601.693	n/a	RESPONSE	        M1	1	22	A#4	press
601.697	n/a	RESPONSE	        M1	1	04	E3	press
602.244	n/a	RESPONSE	        M1	1	22	A#4	release
602.407	n/a	RESPONSE	        M1	1	09	A3	press
602.594	n/a	RESPONSE	        M1	1	04	E3	release
602.801	n/a	RESPONSE	        M1	1	09	A3	release
604.951	n/a	RESPONSE	        M1	1	22	A#4	press
604.964	n/a	RESPONSE	        M1	1	05	F3	press
605.224	n/a	RESPONSE	        M1	1	22	A#4	release
605.355	7.758	FIXCROSS	n/a	n/a	n/a	n/a	n/a
605.357	n/a	RESPONSE	        M1	1	05	F3	release
605.438	n/a	RESPONSE	        M1	1	09	A3	press
605.451	n/a	RESPONSE	        M1	1	22	A#4	press
605.673	n/a	RESPONSE	        M1	1	22	A#4	release
605.714	n/a	RESPONSE	        M1	1	09	A3	release
605.927	n/a	RESPONSE	        M1	1	04	E3	press
606.007	n/a	RESPONSE	        M1	1	22	A#4	press
606.248	n/a	RESPONSE	        M1	1	22	A#4	release
606.742	n/a	RESPONSE	        M1	1	04	E3	release
613.114	6.325	CUE_LISTEN	        M1	2	n/a	n/a	n/a
619.439	7.758	FIXCROSS	n/a	n/a	n/a	n/a	n/a
627.197	6.317	CUE_PLAYBACK_RIGHT_HAND	        M1	2	n/a	n/a	n/a
628.469	n/a	RESPONSE	        M1	2	07	G3	press
628.499	n/a	RESPONSE	        M1	2	21	A4	press
628.781	n/a	RESPONSE	        M1	2	21	A4	release
628.902	n/a	RESPONSE	        M1	2	07	G3	release
628.904	n/a	RESPONSE	        M1	2	21	A4	press
628.907	n/a	RESPONSE	        M1	2	02	D3	press
629.126	n/a	RESPONSE	        M1	2	21	A4	release
629.187	n/a	RESPONSE	        M1	2	02	D3	release
630.348	n/a	RESPONSE	        M1	2	07	G3	press
630.389	n/a	RESPONSE	        M1	2	21	A4	press
630.691	n/a	RESPONSE	        M1	2	21	A4	release
630.914	n/a	RESPONSE	        M1	2	02	D3	press
630.926	n/a	RESPONSE	        M1	2	21	A4	press
630.934	n/a	RESPONSE	        M1	2	07	G3	release
631.596	n/a	RESPONSE	        M1	2	21	A4	release
631.657	n/a	RESPONSE	        M1	2	02	D3	release
632.189	n/a	RESPONSE	        M1	2	24	C5	press
632.198	n/a	RESPONSE	        M1	2	07	G3	press
632.953	n/a	RESPONSE	        M1	2	07	G3	release
633.382	n/a	RESPONSE	        M1	2	24	C5	release
633.514	7.758	FIXCROSS	n/a	n/a	n/a	n/a	n/a
641.272	6.325	CUE_LISTEN	        M7	1	n/a	n/a	n/a
647.597	7.758	FIXCROSS	n/a	n/a	n/a	n/a	n/a
655.356	6.317	CUE_PLAYBACK_BOTH_HANDS	        M7	1	n/a	n/a	n/a
658.269	n/a	RESPONSE	        M7	1	00	C3	press
658.28	n/a	RESPONSE	        M7	1	12	C4	press
658.752	n/a	RESPONSE	        M7	1	14	D4	press
658.754	n/a	RESPONSE	        M7	1	07	G3	press
658.884	n/a	RESPONSE	        M7	1	12	C4	release
658.996	n/a	RESPONSE	        M7	1	00	C3	release
659.097	n/a	RESPONSE	        M7	1	14	D4	release
659.248	n/a	RESPONSE	        M7	1	07	G3	release
659.259	n/a	RESPONSE	        M7	1	04	E3	press
659.271	n/a	RESPONSE	        M7	1	16	E4	press
659.812	n/a	RESPONSE	        M7	1	16	E4	release
659.823	n/a	RESPONSE	        M7	1	07	G3	press
659.894	n/a	RESPONSE	        M7	1	04	E3	release
660.286	n/a	RESPONSE	        M7	1	07	G3	release
661.672	7.758	FIXCROSS	n/a	n/a	n/a	n/a	n/a
661.936	n/a	RESPONSE	        M7	1	00	C3	press
661.947	n/a	RESPONSE	        M7	1	19	G4	press
662.438	n/a	RESPONSE	        M7	1	19	G4	release
662.493	n/a	RESPONSE	        M7	1	00	C3	release
669.431	6.317	CUE_LISTEN	        M7	2	n/a	n/a	n/a
675.747	7.758	FIXCROSS	n/a	n/a	n/a	n/a	n/a
683.506	6.325	CUE_PLAYBACK_BOTH_HANDS	        M7	2	n/a	n/a	n/a
685.107	n/a	RESPONSE	        M7	2	00	C3	press
685.124	n/a	RESPONSE	        M7	2	19	G4	press
685.429	n/a	RESPONSE	        M7	2	21	A4	press
685.484	n/a	RESPONSE	        M7	2	07	G3	press
685.546	n/a	RESPONSE	        M7	2	19	G4	release
685.646	n/a	RESPONSE	        M7	2	00	C3	release
685.736	n/a	RESPONSE	        M7	2	19	G4	press
685.858	n/a	RESPONSE	        M7	2	21	A4	release
685.938	n/a	RESPONSE	        M7	2	07	G3	release
686.089	n/a	RESPONSE	        M7	2	17	F4	press
686.311	n/a	RESPONSE	        M7	2	19	G4	release
686.482	n/a	RESPONSE	        M7	2	04	E3	press
686.493	n/a	RESPONSE	        M7	2	16	E4	press
686.734	n/a	RESPONSE	        M7	2	17	F4	release
687.186	n/a	RESPONSE	        M7	2	12	C4	press
687.197	n/a	RESPONSE	        M7	2	07	G3	press
687.479	n/a	RESPONSE	        M7	2	16	E4	release
687.71	n/a	RESPONSE	        M7	2	07	G3	release
687.771	n/a	RESPONSE	        M7	2	12	C4	release
687.812	n/a	RESPONSE	        M7	2	00	C3	press
687.823	n/a	RESPONSE	        M7	2	19	G4	press
687.864	n/a	RESPONSE	        M7	2	17	F4	press
687.867	n/a	RESPONSE	        M7	2	04	E3	release
688.018	n/a	RESPONSE	        M7	2	17	F4	release
688.378	n/a	RESPONSE	        M7	2	19	G4	release
688.539	n/a	RESPONSE	        M7	2	00	C3	release
688.791	n/a	RESPONSE	        M7	2	00	C3	press
688.803	n/a	RESPONSE	        M7	2	19	G4	press
689.103	n/a	RESPONSE	        M7	2	21	A4	press
689.214	n/a	RESPONSE	        M7	2	19	G4	release
689.436	n/a	RESPONSE	        M7	2	19	G4	press
689.449	n/a	RESPONSE	        M7	2	07	G3	press
689.568	n/a	RESPONSE	        M7	2	21	A4	release
689.719	n/a	RESPONSE	        M7	2	17	F4	press
689.831	7.758	FIXCROSS	n/a	n/a	n/a	n/a	n/a
689.881	n/a	RESPONSE	        M7	2	00	C3	release
689.932	n/a	RESPONSE	        M7	2	19	G4	release
690.113	n/a	RESPONSE	        M7	2	16	E4	press
690.116	n/a	RESPONSE	        M7	2	04	E3	press
690.136	n/a	RESPONSE	        M7	2	07	G3	release
690.307	n/a	RESPONSE	        M7	2	17	F4	release
690.708	n/a	RESPONSE	        M7	2	12	C4	press
690.71	n/a	RESPONSE	        M7	2	07	G3	press
690.801	n/a	RESPONSE	        M7	2	16	E4	release
690.922	n/a	RESPONSE	        M7	2	04	E3	release
691.133	n/a	RESPONSE	        M7	2	07	G3	release
691.146	n/a	RESPONSE	        M7	2	12	C4	release
691.326	n/a	RESPONSE	        M7	2	00	C3	press
691.329	n/a	RESPONSE	        M7	2	12	C4	press
691.968	n/a	RESPONSE	        M7	2	12	C4	release
691.971	n/a	RESPONSE	        M7	2	07	G3	press
692.004	n/a	RESPONSE	        M7	2	00	C3	release
692.226	n/a	RESPONSE	        M7	2	07	G3	release
692.672	n/a	RESPONSE	        M7	2	00	C3	press
692.694	n/a	RESPONSE	        M7	2	12	C4	press
692.972	n/a	RESPONSE	        M7	2	12	C4	release
693.017	n/a	RESPONSE	        M7	2	00	C3	release
697.589	6.317	CUE_LISTEN	        M4	1	n/a	n/a	n/a
703.906	7.758	FIXCROSS	n/a	n/a	n/a	n/a	n/a
711.664	6.317	CUE_PLAYBACK_BOTH_HANDS	        M4	1	n/a	n/a	n/a
712.732	n/a	RESPONSE	        M4	1	16	E4	press
712.754	n/a	RESPONSE	        M4	1	04	E3	press
713.242	n/a	RESPONSE	        M4	1	16	E4	release
713.269	n/a	RESPONSE	        M4	1	04	E3	release
713.473	n/a	RESPONSE	        M4	1	16	E4	press
713.48	n/a	RESPONSE	        M4	1	04	E3	press
714.022	n/a	RESPONSE	        M4	1	11	B3	press
714.026	n/a	RESPONSE	        M4	1	19	G4	press
714.083	n/a	RESPONSE	        M4	1	16	E4	release
714.09	n/a	RESPONSE	        M4	1	04	E3	release
714.383	n/a	RESPONSE	        M4	1	18	F#4	press
714.482	n/a	RESPONSE	        M4	1	19	G4	release
714.814	n/a	RESPONSE	        M4	1	09	A3	press
714.87	n/a	RESPONSE	        M4	1	19	G4	press
714.878	n/a	RESPONSE	        M4	1	11	B3	release
714.906	n/a	RESPONSE	        M4	1	16	E4	press
715.007	n/a	RESPONSE	        M4	1	18	F#4	release
717.981	7.759	FIXCROSS	n/a	n/a	n/a	n/a	n/a
718.339	n/a	RESPONSE	        M4	1	11	B3	press
718.35	n/a	RESPONSE	        M4	1	23	B4	press
718.362	n/a	RESPONSE	        M4	1	21	A4	press
718.373	n/a	RESPONSE	        M4	1	16	E4	release
718.414	n/a	RESPONSE	        M4	1	09	A3	release
718.626	n/a	RESPONSE	        M4	1	21	A4	release
718.689	n/a	RESPONSE	        M4	1	24	C5	press
718.898	n/a	RESPONSE	        M4	1	23	B4	release
718.939	n/a	RESPONSE	        M4	1	19	G4	release
719.1	n/a	RESPONSE	        M4	1	23	B4	press
719.442	n/a	RESPONSE	        M4	1	24	C5	release
719.833	n/a	RESPONSE	        M4	1	16	E4	press
719.836	n/a	RESPONSE	        M4	1	11	B3	release
719.847	n/a	RESPONSE	        M4	1	05	F3	press
720.387	n/a	RESPONSE	        M4	1	05	F3	release
720.398	n/a	RESPONSE	        M4	1	23	B4	release
720.479	n/a	RESPONSE	        M4	1	16	E4	release
725.739	6.325	CUE_LISTEN	        M4	2	n/a	n/a	n/a
732.064	7.759	FIXCROSS	n/a	n/a	n/a	n/a	n/a
739.822	6.317	CUE_PLAYBACK_BOTH_HANDS	        M4	2	n/a	n/a	n/a
741.002	n/a	RESPONSE	        M4	2	24	C5	press
741.043	n/a	RESPONSE	        M4	2	16	E4	press
741.046	n/a	RESPONSE	        M4	2	04	E3	press
741.778	n/a	RESPONSE	        M4	2	11	B3	press
741.897	n/a	RESPONSE	        M4	2	16	E4	release
741.93	n/a	RESPONSE	        M4	2	04	E3	release
742.498	n/a	RESPONSE	        M4	2	09	A3	press
742.507	n/a	RESPONSE	        M4	2	11	B3	release
742.603	n/a	RESPONSE	        M4	2	16	E4	press
743.368	n/a	RESPONSE	        M4	2	11	B3	press
743.402	n/a	RESPONSE	        M4	2	21	A4	press
743.436	n/a	RESPONSE	        M4	2	16	E4	release
743.456	n/a	RESPONSE	        M4	2	24	C5	release
743.569	n/a	RESPONSE	        M4	2	09	A3	release
744.134	n/a	RESPONSE	        M4	2	16	E4	press
744.156	n/a	RESPONSE	        M4	2	11	B3	release
744.174	n/a	RESPONSE	        M4	2	04	E3	press
744.473	n/a	RESPONSE	        M4	2	21	A4	release
744.85	n/a	RESPONSE	        M4	2	11	B3	press
744.928	n/a	RESPONSE	        M4	2	16	E4	release
744.936	n/a	RESPONSE	        M4	2	04	E3	release
745.559	n/a	RESPONSE	        M4	2	09	A3	press
745.58	n/a	RESPONSE	        M4	2	16	E4	press
745.583	n/a	RESPONSE	        M4	2	11	B3	release
746.139	7.758	FIXCROSS	n/a	n/a	n/a	n/a	n/a
746.276	n/a	RESPONSE	        M4	2	11	B3	press
746.334	n/a	RESPONSE	        M4	2	16	E4	release
746.356	n/a	RESPONSE	        M4	2	09	A3	release
748.628	n/a	RESPONSE	        M4	2	16	E4	press
750.862	n/a	RESPONSE	        M4	2	11	B3	release
751.112	n/a	RESPONSE	        M4	2	16	E4	release
753.897	6.317	CUE_LISTEN	        M2	1	n/a	n/a	n/a
760.214	7.758	FIXCROSS	n/a	n/a	n/a	n/a	n/a
767.972	6.325	CUE_PLAYBACK_RIGHT_HAND	        M2	1	n/a	n/a	n/a
769.257	n/a	RESPONSE	        M2	1	24	C5	press
770.268	n/a	RESPONSE	        M2	1	24	C5	release
770.498	n/a	RESPONSE	        M2	1	24	C5	press
770.99	n/a	RESPONSE	        M2	1	19	G4	press
771.003	n/a	RESPONSE	        M2	1	17	F4	press
771.162	n/a	RESPONSE	        M2	1	17	F4	release
771.253	n/a	RESPONSE	        M2	1	19	G4	release
771.464	n/a	RESPONSE	        M2	1	24	C5	release
771.667	n/a	RESPONSE	        M2	1	24	C5	press
772.107	n/a	RESPONSE	        M2	1	19	G4	press
772.199	n/a	RESPONSE	        M2	1	24	C5	release
772.48	n/a	RESPONSE	        M2	1	19	G4	release
772.588	n/a	RESPONSE	        M2	1	19	G4	press
773.038	n/a	RESPONSE	        M2	1	17	F4	press
773.213	n/a	RESPONSE	        M2	1	19	G4	release
773.53	n/a	RESPONSE	        M2	1	16	E4	press
773.61	n/a	RESPONSE	        M2	1	17	F4	release
774.06	n/a	RESPONSE	        M2	1	17	F4	press
774.146	n/a	RESPONSE	        M2	1	16	E4	release
774.297	7.758	FIXCROSS	n/a	n/a	n/a	n/a	n/a
774.568	n/a	RESPONSE	        M2	1	19	G4	press
774.673	n/a	RESPONSE	        M2	1	17	F4	release
777.728	n/a	RESPONSE	        M2	1	19	G4	release
782.056	6.317	CUE_LISTEN	        M2	2	n/a	n/a	n/a
788.372	7.759	FIXCROSS	n/a	n/a	n/a	n/a	n/a
796.131	6.317	CUE_PLAYBACK_RIGHT_HAND	        M2	2	n/a	n/a	n/a
798.079	n/a	RESPONSE	        M2	2	12	C4	press
798.583	n/a	RESPONSE	        M2	2	14	D4	press
798.663	n/a	RESPONSE	        M2	2	12	C4	release
799.103	n/a	RESPONSE	        M2	2	16	E4	press
799.174	n/a	RESPONSE	        M2	2	14	D4	release
799.586	n/a	RESPONSE	        M2	2	14	D4	press
799.667	n/a	RESPONSE	        M2	2	16	E4	release
800.098	n/a	RESPONSE	        M2	2	16	E4	press
800.259	n/a	RESPONSE	        M2	2	14	D4	release
800.621	n/a	RESPONSE	        M2	2	17	F4	press
800.712	n/a	RESPONSE	        M2	2	16	E4	release
801.183	n/a	RESPONSE	        M2	2	19	G4	press
801.238	n/a	RESPONSE	        M2	2	17	F4	release
802.358	n/a	RESPONSE	        M2	2	19	G4	release
802.448	7.758	FIXCROSS	n/a	n/a	n/a	n/a	n/a
803.249	n/a	RESPONSE	        M2	2	14	D4	press
803.807	n/a	RESPONSE	        M2	2	14	D4	release
804.67	n/a	RESPONSE	        M2	2	16	E4	press
804.996	n/a	RESPONSE	        M2	2	16	E4	release
810.206	6.325	CUE_LISTEN	        M8	1	n/a	n/a	n/a
816.531	7.758	FIXCROSS	n/a	n/a	n/a	n/a	n/a
824.289	6.317	CUE_PLAYBACK_RIGHT_HAND	        M8	1	n/a	n/a	n/a
825.018	n/a	RESPONSE	        M8	1	16	E4	press
825.574	n/a	RESPONSE	        M8	1	16	E4	release
827.083	n/a	RESPONSE	        M8	1	16	E4	press
827.466	n/a	RESPONSE	        M8	1	19	G4	press
827.576	n/a	RESPONSE	        M8	1	16	E4	release
827.917	n/a	RESPONSE	        M8	1	23	B4	press
828.079	n/a	RESPONSE	        M8	1	19	G4	release
828.579	n/a	RESPONSE	        M8	1	23	B4	release
828.743	n/a	RESPONSE	        M8	1	23	B4	press
829.492	n/a	RESPONSE	        M8	1	18	F#4	press
829.533	n/a	RESPONSE	        M8	1	23	B4	release
830.214	n/a	RESPONSE	        M8	1	21	A4	press
830.266	n/a	RESPONSE	        M8	1	18	F#4	release
830.606	7.758	FIXCROSS	n/a	n/a	n/a	n/a	n/a
831.357	n/a	RESPONSE	        M8	1	21	A4	release
831.498	n/a	RESPONSE	        M8	1	23	B4	press
832.12	n/a	RESPONSE	        M8	1	23	B4	release
832.159	n/a	RESPONSE	        M8	1	21	A4	press
832.694	n/a	RESPONSE	        M8	1	19	G4	press
832.74	n/a	RESPONSE	        M8	1	21	A4	release
833.147	n/a	RESPONSE	        M8	1	19	G4	release
838.364	6.317	CUE_LISTEN	        M8	2	n/a	n/a	n/a
844.681	7.758	FIXCROSS	n/a	n/a	n/a	n/a	n/a
852.439	6.333	CUE_PLAYBACK_RIGHT_HAND	        M8	2	n/a	n/a	n/a
853.384	n/a	RESPONSE	        M8	2	17	F4	press
854.296	n/a	RESPONSE	        M8	2	17	F4	release
855.132	n/a	RESPONSE	        M8	2	23	B4	press
855.644	n/a	RESPONSE	        M8	2	21	A4	press
855.736	n/a	RESPONSE	        M8	2	23	B4	release
856.127	n/a	RESPONSE	        M8	2	19	G4	press
856.188	n/a	RESPONSE	        M8	2	21	A4	release
856.929	n/a	RESPONSE	        M8	2	17	F4	press
857.123	n/a	RESPONSE	        M8	2	19	G4	release
858.042	n/a	RESPONSE	        M8	2	17	F4	release
858.393	n/a	RESPONSE	        M8	2	18	F#4	press
858.764	n/a	RESPONSE	        M8	2	18	F#4	release
858.773	7.758	FIXCROSS	n/a	n/a	n/a	n/a	n/a
859.088	n/a	RESPONSE	        M8	2	18	F#4	press
859.318	n/a	RESPONSE	        M8	2	19	G4	press
859.478	n/a	RESPONSE	        M8	2	18	F#4	release
859.759	n/a	RESPONSE	        M8	2	19	G4	release
866.531	6.308	CUE_LISTEN	        M6	1	n/a	n/a	n/a
872.839	7.758	FIXCROSS	n/a	n/a	n/a	n/a	n/a
880.598	6.325	CUE_PLAYBACK_BOTH_HANDS	        M6	1	n/a	n/a	n/a
881.863	n/a	RESPONSE	        M6	1	12	C4	press
881.874	n/a	RESPONSE	        M6	1	09	A3	press
881.988	n/a	RESPONSE	        M6	1	05	F3	press
882.292	n/a	RESPONSE	        M6	1	16	E4	press
882.702	n/a	RESPONSE	        M6	1	19	G4	press
882.807	n/a	RESPONSE	        M6	1	16	E4	release
883.158	n/a	RESPONSE	        M6	1	17	F4	press
883.284	n/a	RESPONSE	        M6	1	19	G4	release
883.517	n/a	RESPONSE	        M6	1	16	E4	press
883.644	n/a	RESPONSE	        M6	1	17	F4	release
883.937	n/a	RESPONSE	        M6	1	14	D4	press
884.082	n/a	RESPONSE	        M6	1	16	E4	release
884.533	n/a	RESPONSE	        M6	1	16	E4	press
884.63	n/a	RESPONSE	        M6	1	14	D4	release
884.963	n/a	RESPONSE	        M6	1	05	F3	release
884.973	n/a	RESPONSE	        M6	1	09	A3	release
885.013	n/a	RESPONSE	        M6	1	16	E4	release
885.04	n/a	RESPONSE	        M6	1	12	C4	release
885.57	n/a	RESPONSE	        M6	1	12	C4	press
885.6	n/a	RESPONSE	        M6	1	05	F3	press
885.603	n/a	RESPONSE	        M6	1	09	A3	press
886.084	n/a	RESPONSE	        M6	1	16	E4	press
886.524	n/a	RESPONSE	        M6	1	19	G4	press
886.655	n/a	RESPONSE	        M6	1	16	E4	release
886.923	7.758	FIXCROSS	n/a	n/a	n/a	n/a	n/a
886.997	n/a	RESPONSE	        M6	1	17	F4	press
887.108	n/a	RESPONSE	        M6	1	19	G4	release
887.389	n/a	RESPONSE	        M6	1	16	E4	press
887.85	n/a	RESPONSE	        M6	1	14	D4	press
888.012	n/a	RESPONSE	        M6	1	17	F4	release
888.273	n/a	RESPONSE	        M6	1	14	D4	release
888.795	n/a	RESPONSE	        M6	1	05	F3	release
888.798	n/a	RESPONSE	        M6	1	16	E4	release
888.847	n/a	RESPONSE	        M6	1	09	A3	release
888.938	n/a	RESPONSE	        M6	1	12	C4	release
894.681	6.317	CUE_LISTEN	        M6	2	n/a	n/a	n/a
900.998	7.758	FIXCROSS	n/a	n/a	n/a	n/a	n/a
908.756	214.314	CUE_PLAYBACK_BOTH_HANDS	        M6	2	n/a	n/a	n/a
909.628	n/a	RESPONSE	        M6	2	09	A3	press
909.638	n/a	RESPONSE	        M6	2	12	C4	press
910.099	n/a	RESPONSE	        M6	2	17	F4	press
910.94	n/a	RESPONSE	        M6	2	19	G4	press
911.452	n/a	RESPONSE	        M6	2	23	B4	press
911.543	n/a	RESPONSE	        M6	2	19	G4	release
911.604	n/a	RESPONSE	        M6	2	17	F4	release
912.344	n/a	RESPONSE	        M6	2	09	A3	release
912.768	n/a	RESPONSE	        M6	2	09	A3	press
912.788	n/a	RESPONSE	        M6	2	20	G#4	press
912.864	n/a	RESPONSE	        M6	2	23	B4	release
913.248	n/a	FIXCROSS	n/a	n/a	n/a	n/a	n/a
913.255	n/a	RESPONSE	        M6	2	05	F3	press
913.302	n/a	RESPONSE	        M6	2	19	G4	press
913.562	n/a	RESPONSE	        M6	2	20	G#4	release
913.743	n/a	RESPONSE	        M6	2	17	F4	press
914.084	n/a	RESPONSE	        M6	2	19	G4	release
914.185	n/a	RESPONSE	        M6	2	05	F3	release
914.205	n/a	RESPONSE	        M6	2	17	F4	release
914.208	n/a	RESPONSE	        M6	2	12	C4	release
914.228	n/a	RESPONSE	        M6	2	09	A3	release
914.654	n/a	RESPONSE	        M6	2	12	C4	press
914.669	n/a	RESPONSE	        M6	2	09	A3	press
914.689	n/a	RESPONSE	        M6	2	05	F3	press
915.198	n/a	RESPONSE	        M6	2	17	F4	press
916.084	n/a	RESPONSE	        M6	2	19	G4	press
916.805	n/a	RESPONSE	        M6	2	20	G#4	press
916.887	n/a	RESPONSE	        M6	2	17	F4	release
916.998	n/a	RESPONSE	        M6	2	05	F3	release
917.019	n/a	RESPONSE	        M6	2	09	A3	release
917.04	n/a	RESPONSE	        M6	2	19	G4	release
917.103	n/a	RESPONSE	        M6	2	12	C4	release
917.293	n/a	RESPONSE	        M6	2	20	G#4	release
917.564	n/a	RESPONSE	        M6	2	19	G4	press
917.585	n/a	RESPONSE	        M6	2	12	C4	press
917.637	n/a	RESPONSE	        M6	2	11	B3	press
917.809	n/a	RESPONSE	        M6	2	07	G3	press
918.009	n/a	RESPONSE	        M6	2	17	F4	press
918.16	n/a	RESPONSE	        M6	2	19	G4	release
918.712	n/a	RESPONSE	        M6	2	17	F4	release
918.784	n/a	RESPONSE	        M6	2	11	B3	release
918.904	n/a	RESPONSE	        M6	2	07	G3	release
919.116	n/a	RESPONSE	        M6	2	12	C4	release
