onset	duration	trial_type	trial_number	stroop_condition	stim_text(PL)	stim_text(eng)	stim_color(PL)	stim_color(eng)	response_type	response_color
0.0	n/a	RESPONSE	n/a	n/a	n/a	n/a	n/a	n/a	n/a	n/a
0.0626	1.0334	ITI	n/a	n/a	n/a	n/a	n/a	n/a	n/a	n/a
1.0959	0.5167	FIXCROSS	n/a	n/a	n/a	n/a	n/a	n/a	n/a	n/a
1.6126	0.75	T_INK	1	Neutral	xxxxx	xxxxx	zielony	green	hit	n/a
2.3354	n/a	RESPONSE	n/a	n/a	n/a	n/a	n/a	n/a	n/a	green
2.3626	0.5167	FEEDBACK	n/a	n/a	n/a	n/a	n/a	n/a	n/a	n/a
2.8793	1.0167	ITI	n/a	n/a	n/a	n/a	n/a	n/a	n/a	n/a
3.896	0.5167	FIXCROSS	n/a	n/a	n/a	n/a	n/a	n/a	n/a	n/a
4.4126	0.7667	T_INK	2	Neutral	xxxxxxx	xxxxxxx	niebieski	blue	hit	n/a
5.1507	n/a	RESPONSE	n/a	n/a	n/a	n/a	n/a	n/a	n/a	blue
5.1793	0.5167	FEEDBACK	n/a	n/a	n/a	n/a	n/a	n/a	n/a	n/a
5.696	1.0167	ITI	n/a	n/a	n/a	n/a	n/a	n/a	n/a	n/a
6.7127	0.5167	FIXCROSS	n/a	n/a	n/a	n/a	n/a	n/a	n/a	n/a
7.2293	0.6167	T_INK	3	Neutral	xxxxxxxx	xxxxxxxx	niebieski	blue	hit	n/a
7.8221	n/a	RESPONSE	n/a	n/a	n/a	n/a	n/a	n/a	n/a	blue
7.846	0.5167	FEEDBACK	n/a	n/a	n/a	n/a	n/a	n/a	n/a	n/a
8.3627	1.0167	ITI	n/a	n/a	n/a	n/a	n/a	n/a	n/a	n/a
9.3794	0.5167	FIXCROSS	n/a	n/a	n/a	n/a	n/a	n/a	n/a	n/a
9.896	0.65	T_INK	4	Incongruent	niebieski	blue	czerwony	red	hit	n/a
10.5255	n/a	RESPONSE	n/a	n/a	n/a	n/a	n/a	n/a	n/a	red
10.5461	0.5167	FEEDBACK	n/a	n/a	n/a	n/a	n/a	n/a	n/a	n/a
11.0627	1.0167	ITI	n/a	n/a	n/a	n/a	n/a	n/a	n/a	n/a
12.0794	0.5167	FIXCROSS	n/a	n/a	n/a	n/a	n/a	n/a	n/a	n/a
12.5961	0.5333	T_INK	5	Neutral	xxxxx	xxxxx	czerwony	red	hit	n/a
13.1008	n/a	RESPONSE	n/a	n/a	n/a	n/a	n/a	n/a	n/a	red
13.1294	0.5167	FEEDBACK	n/a	n/a	n/a	n/a	n/a	n/a	n/a	n/a
13.6461	1.0167	ITI	n/a	n/a	n/a	n/a	n/a	n/a	n/a	n/a
14.6628	0.5167	FIXCROSS	n/a	n/a	n/a	n/a	n/a	n/a	n/a	n/a
15.1794	0.6167	T_INK	6	Incongruent	zielony	green	czerwony	red	hit	n/a
15.7722	n/a	RESPONSE	n/a	n/a	n/a	n/a	n/a	n/a	n/a	red
15.7961	0.5167	FEEDBACK	n/a	n/a	n/a	n/a	n/a	n/a	n/a	n/a
16.3128	1.0167	ITI	n/a	n/a	n/a	n/a	n/a	n/a	n/a	n/a
17.3295	0.5167	FIXCROSS	n/a	n/a	n/a	n/a	n/a	n/a	n/a	n/a
17.8461	0.9167	T_INK	7	Neutral	xxxxxxxxx	xxxxxxxxx	żółty	yellow	hit	n/a
18.7315	n/a	RESPONSE	n/a	n/a	n/a	n/a	n/a	n/a	n/a	yellow
18.7628	0.5167	FEEDBACK	n/a	n/a	n/a	n/a	n/a	n/a	n/a	n/a
19.2795	1.0167	ITI	n/a	n/a	n/a	n/a	n/a	n/a	n/a	n/a
20.2962	0.5167	FIXCROSS	n/a	n/a	n/a	n/a	n/a	n/a	n/a	n/a
20.8128	0.7334	T_INK	8	Incongruent	czerwony	red	zielony	green	hit	n/a
21.5148	n/a	RESPONSE	n/a	n/a	n/a	n/a	n/a	n/a	n/a	green
21.5462	0.5167	FEEDBACK	n/a	n/a	n/a	n/a	n/a	n/a	n/a	n/a
22.0629	1.0167	ITI	n/a	n/a	n/a	n/a	n/a	n/a	n/a	n/a
23.0795	0.5167	FIXCROSS	n/a	n/a	n/a	n/a	n/a	n/a	n/a	n/a
23.5962	1.0667	T_INK	9	Incongruent	żółty	yellow	zielony	green	hit	n/a
24.634	n/a	RESPONSE	n/a	n/a	n/a	n/a	n/a	n/a	n/a	green
24.6629	0.5167	FEEDBACK	n/a	n/a	n/a	n/a	n/a	n/a	n/a	n/a
25.1796	1.0167	ITI	n/a	n/a	n/a	n/a	n/a	n/a	n/a	n/a
26.1962	0.5167	FIXCROSS	n/a	n/a	n/a	n/a	n/a	n/a	n/a	n/a
26.7129	0.6833	T_INK	10	Incongruent	czerwony	red	żółty	yellow	hit	n/a
27.3694	n/a	RESPONSE	n/a	n/a	n/a	n/a	n/a	n/a	n/a	yellow
27.3963	0.5167	FEEDBACK	n/a	n/a	n/a	n/a	n/a	n/a	n/a	n/a
27.9129	1.0167	ITI	n/a	n/a	n/a	n/a	n/a	n/a	n/a	n/a
28.9296	0.5167	FIXCROSS	n/a	n/a	n/a	n/a	n/a	n/a	n/a	n/a
29.4463	0.6	T_INK	11	Incongruent	zielony	green	żółty	yellow	hit	n/a
30.0247	n/a	RESPONSE	n/a	n/a	n/a	n/a	n/a	n/a	n/a	yellow
30.0463	0.5167	FEEDBACK	n/a	n/a	n/a	n/a	n/a	n/a	n/a	n/a
30.563	1.0167	ITI	n/a	n/a	n/a	n/a	n/a	n/a	n/a	n/a
31.5796	0.5167	FIXCROSS	n/a	n/a	n/a	n/a	n/a	n/a	n/a	n/a
32.0963	0.7833	T_INK	12	Incongruent	żółty	yellow	niebieski	blue	hit	n/a
32.8561	n/a	RESPONSE	n/a	n/a	n/a	n/a	n/a	n/a	n/a	blue
32.8796	0.5167	FEEDBACK	n/a	n/a	n/a	n/a	n/a	n/a	n/a	n/a
33.3963	1.0333	ITI	n/a	n/a	n/a	n/a	n/a	n/a	n/a	n/a
36.6471	n/a	RESPONSE	n/a	n/a	n/a	n/a	n/a	n/a	n/a	n/a
36.713	1.0167	ITI	n/a	n/a	n/a	n/a	n/a	n/a	n/a	n/a
37.7297	0.5167	FIXCROSS	n/a	n/a	n/a	n/a	n/a	n/a	n/a	n/a
38.2464	0.8	INK	1	Incongruent	żółty	yellow	zielony	green	hit	n/a
39.0145	n/a	RESPONSE	n/a	n/a	n/a	n/a	n/a	n/a	n/a	green
39.0464	1.0167	ITI	n/a	n/a	n/a	n/a	n/a	n/a	n/a	n/a
40.0631	0.5167	FIXCROSS	n/a	n/a	n/a	n/a	n/a	n/a	n/a	n/a
40.5797	0.6167	INK	2	Incongruent	zielony	green	żółty	yellow	hit	n/a
41.174	n/a	RESPONSE	n/a	n/a	n/a	n/a	n/a	n/a	n/a	yellow
41.1964	1.0167	ITI	n/a	n/a	n/a	n/a	n/a	n/a	n/a	n/a
42.2131	0.5167	FIXCROSS	n/a	n/a	n/a	n/a	n/a	n/a	n/a	n/a
42.7298	0.6667	INK	3	Neutral	xxxxx	xxxxx	niebieski	blue	incorrect	n/a
43.3655	n/a	RESPONSE	n/a	n/a	n/a	n/a	n/a	n/a	n/a	green
43.3964	1.0167	ITI	n/a	n/a	n/a	n/a	n/a	n/a	n/a	n/a
43.6854	n/a	RESPONSE	n/a	n/a	n/a	n/a	n/a	n/a	n/a	blue
44.4131	0.5167	FIXCROSS	n/a	n/a	n/a	n/a	n/a	n/a	n/a	n/a
44.9298	0.5667	INK	4	Neutral	xxxxxxx	xxxxxxx	czerwony	red	hit	n/a
45.477	n/a	RESPONSE	n/a	n/a	n/a	n/a	n/a	n/a	n/a	red
45.4965	1.0167	ITI	n/a	n/a	n/a	n/a	n/a	n/a	n/a	n/a
46.5131	0.5167	FIXCROSS	n/a	n/a	n/a	n/a	n/a	n/a	n/a	n/a
47.0298	0.6	INK	5	Incongruent	zielony	green	czerwony	red	hit	n/a
47.6045	n/a	RESPONSE	n/a	n/a	n/a	n/a	n/a	n/a	n/a	red
47.6298	1.0167	ITI	n/a	n/a	n/a	n/a	n/a	n/a	n/a	n/a
48.6465	0.5167	FIXCROSS	n/a	n/a	n/a	n/a	n/a	n/a	n/a	n/a
49.1632	0.8	INK	6	Incongruent	żółty	yellow	niebieski	blue	hit	n/a
49.9399	n/a	RESPONSE	n/a	n/a	n/a	n/a	n/a	n/a	n/a	blue
49.9632	1.0167	ITI	n/a	n/a	n/a	n/a	n/a	n/a	n/a	n/a
50.9799	0.5167	FIXCROSS	n/a	n/a	n/a	n/a	n/a	n/a	n/a	n/a
51.4965	0.55	INK	7	Incongruent	czerwony	red	żółty	yellow	hit	n/a
52.0194	n/a	RESPONSE	n/a	n/a	n/a	n/a	n/a	n/a	n/a	yellow
52.0465	1.0167	ITI	n/a	n/a	n/a	n/a	n/a	n/a	n/a	n/a
53.0632	0.5167	FIXCROSS	n/a	n/a	n/a	n/a	n/a	n/a	n/a	n/a
53.5799	0.7167	INK	8	Neutral	xxxxxxxxx	xxxxxxxxx	czerwony	red	hit	n/a
54.2749	n/a	RESPONSE	n/a	n/a	n/a	n/a	n/a	n/a	n/a	red
54.2966	1.0167	ITI	n/a	n/a	n/a	n/a	n/a	n/a	n/a	n/a
55.3132	0.5167	FIXCROSS	n/a	n/a	n/a	n/a	n/a	n/a	n/a	n/a
55.8299	0.4833	INK	9	Incongruent	zielony	green	żółty	yellow	hit	n/a
56.2903	n/a	RESPONSE	n/a	n/a	n/a	n/a	n/a	n/a	n/a	yellow
56.3133	1.0167	ITI	n/a	n/a	n/a	n/a	n/a	n/a	n/a	n/a
57.3299	0.5167	FIXCROSS	n/a	n/a	n/a	n/a	n/a	n/a	n/a	n/a
57.8466	0.4667	INK	10	Neutral	xxxxx	xxxxx	niebieski	blue	hit	n/a
58.2899	n/a	RESPONSE	n/a	n/a	n/a	n/a	n/a	n/a	n/a	blue
58.3133	1.0167	ITI	n/a	n/a	n/a	n/a	n/a	n/a	n/a	n/a
59.33	0.5167	FIXCROSS	n/a	n/a	n/a	n/a	n/a	n/a	n/a	n/a
59.8466	0.4167	INK	11	Neutral	xxxxxxx	xxxxxxx	niebieski	blue	hit	n/a
60.2414	n/a	RESPONSE	n/a	n/a	n/a	n/a	n/a	n/a	n/a	blue
60.2633	1.0167	ITI	n/a	n/a	n/a	n/a	n/a	n/a	n/a	n/a
61.28	0.5167	FIXCROSS	n/a	n/a	n/a	n/a	n/a	n/a	n/a	n/a
61.7967	0.5833	INK	12	Incongruent	żółty	yellow	czerwony	red	hit	n/a
62.3529	n/a	RESPONSE	n/a	n/a	n/a	n/a	n/a	n/a	n/a	red
62.38	1.0167	ITI	n/a	n/a	n/a	n/a	n/a	n/a	n/a	n/a
63.3967	0.5167	FIXCROSS	n/a	n/a	n/a	n/a	n/a	n/a	n/a	n/a
63.9133	0.4833	INK	13	Neutral	xxxxxxxxx	xxxxxxxxx	żółty	yellow	hit	n/a
64.3684	n/a	RESPONSE	n/a	n/a	n/a	n/a	n/a	n/a	n/a	yellow
64.3967	1.0167	ITI	n/a	n/a	n/a	n/a	n/a	n/a	n/a	n/a
65.4134	0.5167	FIXCROSS	n/a	n/a	n/a	n/a	n/a	n/a	n/a	n/a
65.93	0.4833	INK	14	Incongruent	czerwony	red	żółty	yellow	hit	n/a
66.3839	n/a	RESPONSE	n/a	n/a	n/a	n/a	n/a	n/a	n/a	yellow
66.4134	1.0167	ITI	n/a	n/a	n/a	n/a	n/a	n/a	n/a	n/a
67.4301	0.5167	FIXCROSS	n/a	n/a	n/a	n/a	n/a	n/a	n/a	n/a
67.9467	0.55	INK	15	Neutral	xxxxxxx	xxxxxxx	czerwony	red	hit	n/a
68.4634	n/a	RESPONSE	n/a	n/a	n/a	n/a	n/a	n/a	n/a	red
68.4967	1.0167	ITI	n/a	n/a	n/a	n/a	n/a	n/a	n/a	n/a
69.5134	0.5167	FIXCROSS	n/a	n/a	n/a	n/a	n/a	n/a	n/a	n/a
70.0301	0.6833	INK	16	Incongruent	czerwony	red	niebieski	blue	hit	n/a
70.6869	n/a	RESPONSE	n/a	n/a	n/a	n/a	n/a	n/a	n/a	blue
70.7134	1.0167	ITI	n/a	n/a	n/a	n/a	n/a	n/a	n/a	n/a
71.7301	0.5167	FIXCROSS	n/a	n/a	n/a	n/a	n/a	n/a	n/a	n/a
72.2468	0.4333	INK	17	Neutral	xxxxxxxx	xxxxxxxx	żółty	yellow	hit	n/a
72.6544	n/a	RESPONSE	n/a	n/a	n/a	n/a	n/a	n/a	n/a	yellow
72.6801	1.0167	ITI	n/a	n/a	n/a	n/a	n/a	n/a	n/a	n/a
73.6968	0.5167	FIXCROSS	n/a	n/a	n/a	n/a	n/a	n/a	n/a	n/a
74.2135	0.5	INK	18	Neutral	xxxxxxxx	xxxxxxxx	niebieski	blue	hit	n/a
74.6859	n/a	RESPONSE	n/a	n/a	n/a	n/a	n/a	n/a	n/a	blue
74.7135	1.0167	ITI	n/a	n/a	n/a	n/a	n/a	n/a	n/a	n/a
75.7302	0.5167	FIXCROSS	n/a	n/a	n/a	n/a	n/a	n/a	n/a	n/a
76.2468	0.6	INK	19	Incongruent	zielony	green	niebieski	blue	hit	n/a
76.8134	n/a	RESPONSE	n/a	n/a	n/a	n/a	n/a	n/a	n/a	blue
76.8468	1.0167	ITI	n/a	n/a	n/a	n/a	n/a	n/a	n/a	n/a
77.8635	0.5167	FIXCROSS	n/a	n/a	n/a	n/a	n/a	n/a	n/a	n/a
78.3802	0.4	INK	20	Neutral	xxxxxxx	xxxxxxx	niebieski	blue	hit	n/a
78.7489	n/a	RESPONSE	n/a	n/a	n/a	n/a	n/a	n/a	n/a	blue
78.7802	1.0167	ITI	n/a	n/a	n/a	n/a	n/a	n/a	n/a	n/a
79.7969	0.5167	FIXCROSS	n/a	n/a	n/a	n/a	n/a	n/a	n/a	n/a
80.3135	0.3833	INK	21	Incongruent	zielony	green	czerwony	red	hit	n/a
80.6685	n/a	RESPONSE	n/a	n/a	n/a	n/a	n/a	n/a	n/a	red
80.6969	1.0167	ITI	n/a	n/a	n/a	n/a	n/a	n/a	n/a	n/a
81.7136	0.5167	FIXCROSS	n/a	n/a	n/a	n/a	n/a	n/a	n/a	n/a
82.2302	0.65	INK	22	Incongruent	czerwony	red	zielony	green	hit	n/a
82.8599	n/a	RESPONSE	n/a	n/a	n/a	n/a	n/a	n/a	n/a	green
82.8802	1.0167	ITI	n/a	n/a	n/a	n/a	n/a	n/a	n/a	n/a
83.8969	0.5167	FIXCROSS	n/a	n/a	n/a	n/a	n/a	n/a	n/a	n/a
84.4136	0.4333	INK	23	Incongruent	żółty	yellow	zielony	green	hit	n/a
84.8275	n/a	RESPONSE	n/a	n/a	n/a	n/a	n/a	n/a	n/a	green
84.8469	1.0167	ITI	n/a	n/a	n/a	n/a	n/a	n/a	n/a	n/a
85.8636	0.5167	FIXCROSS	n/a	n/a	n/a	n/a	n/a	n/a	n/a	n/a
86.3803	0.4333	INK	24	Neutral	xxxxxxx	xxxxxxx	żółty	yellow	hit	n/a
86.795	n/a	RESPONSE	n/a	n/a	n/a	n/a	n/a	n/a	n/a	yellow
86.8136	1.0167	ITI	n/a	n/a	n/a	n/a	n/a	n/a	n/a	n/a
87.8303	0.5167	FIXCROSS	n/a	n/a	n/a	n/a	n/a	n/a	n/a	n/a
88.347	0.4333	INK	25	Neutral	xxxxxxxxx	xxxxxxxxx	żółty	yellow	hit	n/a
88.7625	n/a	RESPONSE	n/a	n/a	n/a	n/a	n/a	n/a	n/a	yellow
88.7803	1.0167	ITI	n/a	n/a	n/a	n/a	n/a	n/a	n/a	n/a
89.797	0.5167	FIXCROSS	n/a	n/a	n/a	n/a	n/a	n/a	n/a	n/a
90.3137	0.45	INK	26	Incongruent	niebieski	blue	żółty	yellow	hit	n/a
90.73	n/a	RESPONSE	n/a	n/a	n/a	n/a	n/a	n/a	n/a	yellow
90.7637	1.0167	ITI	n/a	n/a	n/a	n/a	n/a	n/a	n/a	n/a
91.7803	0.5167	FIXCROSS	n/a	n/a	n/a	n/a	n/a	n/a	n/a	n/a
92.297	0.8333	INK	27	Incongruent	niebieski	blue	zielony	green	hit	n/a
93.0975	n/a	RESPONSE	n/a	n/a	n/a	n/a	n/a	n/a	n/a	green
93.1304	1.0167	ITI	n/a	n/a	n/a	n/a	n/a	n/a	n/a	n/a
94.147	0.5167	FIXCROSS	n/a	n/a	n/a	n/a	n/a	n/a	n/a	n/a
94.6637	0.4167	INK	28	Neutral	xxxxxxxx	xxxxxxxx	zielony	green	hit	n/a
95.049	n/a	RESPONSE	n/a	n/a	n/a	n/a	n/a	n/a	n/a	green
95.0804	1.0167	ITI	n/a	n/a	n/a	n/a	n/a	n/a	n/a	n/a
96.0971	0.5167	FIXCROSS	n/a	n/a	n/a	n/a	n/a	n/a	n/a	n/a
96.6137	0.5667	INK	29	Incongruent	niebieski	blue	czerwony	red	hit	n/a
97.1605	n/a	RESPONSE	n/a	n/a	n/a	n/a	n/a	n/a	n/a	red
97.1804	1.0167	ITI	n/a	n/a	n/a	n/a	n/a	n/a	n/a	n/a
98.1971	0.5167	FIXCROSS	n/a	n/a	n/a	n/a	n/a	n/a	n/a	n/a
98.7138	0.6833	INK	30	Neutral	xxxxx	xxxxx	zielony	green	hit	n/a
99.3679	n/a	RESPONSE	n/a	n/a	n/a	n/a	n/a	n/a	n/a	green
99.3971	1.0167	ITI	n/a	n/a	n/a	n/a	n/a	n/a	n/a	n/a
100.4138	0.5167	FIXCROSS	n/a	n/a	n/a	n/a	n/a	n/a	n/a	n/a
100.9304	0.75	INK	31	Incongruent	niebieski	blue	czerwony	red	hit	n/a
101.6554	n/a	RESPONSE	n/a	n/a	n/a	n/a	n/a	n/a	n/a	red
101.6805	1.0167	ITI	n/a	n/a	n/a	n/a	n/a	n/a	n/a	n/a
102.6971	0.5167	FIXCROSS	n/a	n/a	n/a	n/a	n/a	n/a	n/a	n/a
103.2138	0.7833	INK	32	Incongruent	czerwony	red	zielony	green	hit	n/a
103.9748	n/a	RESPONSE	n/a	n/a	n/a	n/a	n/a	n/a	n/a	green
103.9971	1.0167	ITI	n/a	n/a	n/a	n/a	n/a	n/a	n/a	n/a
105.0138	0.5167	FIXCROSS	n/a	n/a	n/a	n/a	n/a	n/a	n/a	n/a
105.5305	0.4333	INK	33	Neutral	xxxxxxx	xxxxxxx	żółty	yellow	hit	n/a
105.9424	n/a	RESPONSE	n/a	n/a	n/a	n/a	n/a	n/a	n/a	yellow
105.9638	1.0167	ITI	n/a	n/a	n/a	n/a	n/a	n/a	n/a	n/a
106.9805	0.5167	FIXCROSS	n/a	n/a	n/a	n/a	n/a	n/a	n/a	n/a
107.4972	0.35	INK	34	Neutral	xxxxxxxx	xxxxxxxx	żółty	yellow	hit	n/a
107.8299	n/a	RESPONSE	n/a	n/a	n/a	n/a	n/a	n/a	n/a	yellow
107.8472	1.0167	ITI	n/a	n/a	n/a	n/a	n/a	n/a	n/a	n/a
108.8639	0.5167	FIXCROSS	n/a	n/a	n/a	n/a	n/a	n/a	n/a	n/a
109.3805	0.6167	INK	35	Incongruent	zielony	green	niebieski	blue	hit	n/a
109.9734	n/a	RESPONSE	n/a	n/a	n/a	n/a	n/a	n/a	n/a	blue
109.9972	1.0167	ITI	n/a	n/a	n/a	n/a	n/a	n/a	n/a	n/a
111.0139	0.5167	FIXCROSS	n/a	n/a	n/a	n/a	n/a	n/a	n/a	n/a
111.5306	0.7	INK	36	Neutral	xxxxx	xxxxx	zielony	green	hit	n/a
112.1968	n/a	RESPONSE	n/a	n/a	n/a	n/a	n/a	n/a	n/a	green
112.2306	1.0167	ITI	n/a	n/a	n/a	n/a	n/a	n/a	n/a	n/a
113.2473	0.5167	FIXCROSS	n/a	n/a	n/a	n/a	n/a	n/a	n/a	n/a
113.7639	0.5333	INK	37	Neutral	xxxxxxxxx	xxxxxxxxx	czerwony	red	hit	n/a
114.2763	n/a	RESPONSE	n/a	n/a	n/a	n/a	n/a	n/a	n/a	red
114.2973	1.0167	ITI	n/a	n/a	n/a	n/a	n/a	n/a	n/a	n/a
115.3139	0.5167	FIXCROSS	n/a	n/a	n/a	n/a	n/a	n/a	n/a	n/a
115.8306	0.55	INK	38	Neutral	xxxxxxxx	xxxxxxxx	niebieski	blue	hit	n/a
116.3558	n/a	RESPONSE	n/a	n/a	n/a	n/a	n/a	n/a	n/a	blue
116.3806	1.0167	ITI	n/a	n/a	n/a	n/a	n/a	n/a	n/a	n/a
117.3973	0.5167	FIXCROSS	n/a	n/a	n/a	n/a	n/a	n/a	n/a	n/a
117.914	0.4167	INK	39	Incongruent	zielony	green	niebieski	blue	hit	n/a
118.3074	n/a	RESPONSE	n/a	n/a	n/a	n/a	n/a	n/a	n/a	blue
118.3306	1.0167	ITI	n/a	n/a	n/a	n/a	n/a	n/a	n/a	n/a
119.3473	0.5167	FIXCROSS	n/a	n/a	n/a	n/a	n/a	n/a	n/a	n/a
119.864	0.5667	INK	40	Neutral	xxxxx	xxxxx	zielony	green	hit	n/a
120.4028	n/a	RESPONSE	n/a	n/a	n/a	n/a	n/a	n/a	n/a	green
120.4307	1.0167	ITI	n/a	n/a	n/a	n/a	n/a	n/a	n/a	n/a
121.4474	0.5167	FIXCROSS	n/a	n/a	n/a	n/a	n/a	n/a	n/a	n/a
121.964	0.5	INK	41	Neutral	xxxxx	xxxxx	czerwony	red	hit	n/a
122.4344	n/a	RESPONSE	n/a	n/a	n/a	n/a	n/a	n/a	n/a	red
122.464	1.0167	ITI	n/a	n/a	n/a	n/a	n/a	n/a	n/a	n/a
123.4807	0.5167	FIXCROSS	n/a	n/a	n/a	n/a	n/a	n/a	n/a	n/a
123.9974	0.3833	INK	42	Incongruent	zielony	green	czerwony	red	hit	n/a
124.3539	n/a	RESPONSE	n/a	n/a	n/a	n/a	n/a	n/a	n/a	red
124.3807	1.0167	ITI	n/a	n/a	n/a	n/a	n/a	n/a	n/a	n/a
125.3974	0.5167	FIXCROSS	n/a	n/a	n/a	n/a	n/a	n/a	n/a	n/a
125.9141	0.4833	INK	43	Neutral	xxxxxxxx	xxxxxxxx	zielony	green	hit	n/a
126.3694	n/a	RESPONSE	n/a	n/a	n/a	n/a	n/a	n/a	n/a	green
126.3974	1.0167	ITI	n/a	n/a	n/a	n/a	n/a	n/a	n/a	n/a
127.4141	0.5167	FIXCROSS	n/a	n/a	n/a	n/a	n/a	n/a	n/a	n/a
127.9308	0.5	INK	44	Incongruent	czerwony	red	zielony	green	hit	n/a
128.4009	n/a	RESPONSE	n/a	n/a	n/a	n/a	n/a	n/a	n/a	green
128.4308	1.0167	ITI	n/a	n/a	n/a	n/a	n/a	n/a	n/a	n/a
129.4474	0.5167	FIXCROSS	n/a	n/a	n/a	n/a	n/a	n/a	n/a	n/a
129.9641	0.45	INK	45	Neutral	xxxxxxxxx	xxxxxxxxx	żółty	yellow	hit	n/a
130.3844	n/a	RESPONSE	n/a	n/a	n/a	n/a	n/a	n/a	n/a	yellow
130.4141	1.0167	ITI	n/a	n/a	n/a	n/a	n/a	n/a	n/a	n/a
131.4308	0.5167	FIXCROSS	n/a	n/a	n/a	n/a	n/a	n/a	n/a	n/a
131.9475	0.5	INK	46	Neutral	xxxxxxxxx	xxxxxxxxx	zielony	green	hit	n/a
132.416	n/a	RESPONSE	n/a	n/a	n/a	n/a	n/a	n/a	n/a	green
132.4475	1.0167	ITI	n/a	n/a	n/a	n/a	n/a	n/a	n/a	n/a
133.4642	0.5167	FIXCROSS	n/a	n/a	n/a	n/a	n/a	n/a	n/a	n/a
133.9808	0.4333	INK	47	Incongruent	zielony	green	żółty	yellow	hit	n/a
134.3835	n/a	RESPONSE	n/a	n/a	n/a	n/a	n/a	n/a	n/a	yellow
134.4142	1.0167	ITI	n/a	n/a	n/a	n/a	n/a	n/a	n/a	n/a
135.4308	0.5167	FIXCROSS	n/a	n/a	n/a	n/a	n/a	n/a	n/a	n/a
135.9475	0.5	INK	48	Neutral	xxxxxxxxx	xxxxxxxxx	zielony	green	hit	n/a
136.415	n/a	RESPONSE	n/a	n/a	n/a	n/a	n/a	n/a	n/a	green
136.4475	1.0167	ITI	n/a	n/a	n/a	n/a	n/a	n/a	n/a	n/a
137.4642	0.5167	FIXCROSS	n/a	n/a	n/a	n/a	n/a	n/a	n/a	n/a
137.9809	0.4167	INK	49	Neutral	xxxxxxx	xxxxxxx	żółty	yellow	hit	n/a
138.3665	n/a	RESPONSE	n/a	n/a	n/a	n/a	n/a	n/a	n/a	yellow
138.3975	1.0167	ITI	n/a	n/a	n/a	n/a	n/a	n/a	n/a	n/a
139.4142	0.5167	FIXCROSS	n/a	n/a	n/a	n/a	n/a	n/a	n/a	n/a
139.9309	0.4333	INK	50	Incongruent	niebieski	blue	żółty	yellow	hit	n/a
140.334	n/a	RESPONSE	n/a	n/a	n/a	n/a	n/a	n/a	n/a	yellow
140.3642	1.0167	ITI	n/a	n/a	n/a	n/a	n/a	n/a	n/a	n/a
141.3809	0.5167	FIXCROSS	n/a	n/a	n/a	n/a	n/a	n/a	n/a	n/a
141.8976	0.4167	INK	51	Incongruent	niebieski	blue	zielony	green	hit	n/a
142.2856	n/a	RESPONSE	n/a	n/a	n/a	n/a	n/a	n/a	n/a	green
142.3143	1.0167	ITI	n/a	n/a	n/a	n/a	n/a	n/a	n/a	n/a
143.3309	0.5167	FIXCROSS	n/a	n/a	n/a	n/a	n/a	n/a	n/a	n/a
143.8476	0.5333	INK	52	Incongruent	niebieski	blue	żółty	yellow	hit	n/a
144.3491	n/a	RESPONSE	n/a	n/a	n/a	n/a	n/a	n/a	n/a	yellow
144.3809	1.0167	ITI	n/a	n/a	n/a	n/a	n/a	n/a	n/a	n/a
145.3976	0.5167	FIXCROSS	n/a	n/a	n/a	n/a	n/a	n/a	n/a	n/a
145.9143	0.4167	INK	53	Incongruent	czerwony	red	żółty	yellow	hit	n/a
146.3006	n/a	RESPONSE	n/a	n/a	n/a	n/a	n/a	n/a	n/a	yellow
146.331	1.0167	ITI	n/a	n/a	n/a	n/a	n/a	n/a	n/a	n/a
147.3477	0.5167	FIXCROSS	n/a	n/a	n/a	n/a	n/a	n/a	n/a	n/a
147.8643	0.9333	INK	54	Incongruent	żółty	yellow	czerwony	red	hit	n/a
148.78	n/a	RESPONSE	n/a	n/a	n/a	n/a	n/a	n/a	n/a	red
148.7977	1.0167	ITI	n/a	n/a	n/a	n/a	n/a	n/a	n/a	n/a
149.8144	0.5167	FIXCROSS	n/a	n/a	n/a	n/a	n/a	n/a	n/a	n/a
150.331	0.7	INK	55	Incongruent	żółty	yellow	niebieski	blue	hit	n/a
151.0034	n/a	RESPONSE	n/a	n/a	n/a	n/a	n/a	n/a	n/a	blue
151.031	1.0167	ITI	n/a	n/a	n/a	n/a	n/a	n/a	n/a	n/a
152.0477	0.5167	FIXCROSS	n/a	n/a	n/a	n/a	n/a	n/a	n/a	n/a
152.5644	0.5167	INK	56	Neutral	xxxxxxxx	xxxxxxxx	zielony	green	hit	n/a
153.0554	n/a	RESPONSE	n/a	n/a	n/a	n/a	n/a	n/a	n/a	green
153.0811	1.0167	ITI	n/a	n/a	n/a	n/a	n/a	n/a	n/a	n/a
154.0977	0.5167	FIXCROSS	n/a	n/a	n/a	n/a	n/a	n/a	n/a	n/a
154.6144	0.4333	INK	57	Neutral	xxxxx	xxxxx	czerwony	red	hit	n/a
155.0185	n/a	RESPONSE	n/a	n/a	n/a	n/a	n/a	n/a	n/a	red
155.0477	1.0167	ITI	n/a	n/a	n/a	n/a	n/a	n/a	n/a	n/a
156.0644	0.5167	FIXCROSS	n/a	n/a	n/a	n/a	n/a	n/a	n/a	n/a
156.5811	0.3833	INK	58	Neutral	xxxxx	xxxxx	czerwony	red	hit	n/a
156.938	n/a	RESPONSE	n/a	n/a	n/a	n/a	n/a	n/a	n/a	red
156.9644	1.0167	ITI	n/a	n/a	n/a	n/a	n/a	n/a	n/a	n/a
157.9811	0.5167	FIXCROSS	n/a	n/a	n/a	n/a	n/a	n/a	n/a	n/a
158.4978	0.4667	INK	59	Neutral	xxxxxxxx	xxxxxxxx	niebieski	blue	hit	n/a
158.9375	n/a	RESPONSE	n/a	n/a	n/a	n/a	n/a	n/a	n/a	blue
158.9644	1.0167	ITI	n/a	n/a	n/a	n/a	n/a	n/a	n/a	n/a
159.9811	0.5167	FIXCROSS	n/a	n/a	n/a	n/a	n/a	n/a	n/a	n/a
160.4978	0.5	INK	60	Neutral	xxxxxxx	xxxxxxx	czerwony	red	hit	n/a
160.9691	n/a	RESPONSE	n/a	n/a	n/a	n/a	n/a	n/a	n/a	red
160.9978	1.0167	ITI	n/a	n/a	n/a	n/a	n/a	n/a	n/a	n/a
162.0145	0.5167	FIXCROSS	n/a	n/a	n/a	n/a	n/a	n/a	n/a	n/a
162.5312	0.6667	INK	61	Incongruent	niebieski	blue	czerwony	red	hit	n/a
163.1765	n/a	RESPONSE	n/a	n/a	n/a	n/a	n/a	n/a	n/a	red
163.1978	1.0167	ITI	n/a	n/a	n/a	n/a	n/a	n/a	n/a	n/a
164.2145	0.5167	FIXCROSS	n/a	n/a	n/a	n/a	n/a	n/a	n/a	n/a
164.7312	0.4667	INK	62	Neutral	xxxxxxxx	xxxxxxxx	żółty	yellow	hit	n/a
165.1761	n/a	RESPONSE	n/a	n/a	n/a	n/a	n/a	n/a	n/a	yellow
165.1979	1.0167	ITI	n/a	n/a	n/a	n/a	n/a	n/a	n/a	n/a
166.2145	0.5167	FIXCROSS	n/a	n/a	n/a	n/a	n/a	n/a	n/a	n/a
166.7312	0.5167	INK	63	Neutral	xxxxxxxxx	xxxxxxxxx	zielony	green	hit	n/a
167.2235	n/a	RESPONSE	n/a	n/a	n/a	n/a	n/a	n/a	n/a	green
167.2479	1.0167	ITI	n/a	n/a	n/a	n/a	n/a	n/a	n/a	n/a
168.2646	0.5167	FIXCROSS	n/a	n/a	n/a	n/a	n/a	n/a	n/a	n/a
168.7812	0.7	INK	64	Incongruent	żółty	yellow	niebieski	blue	hit	n/a
169.463	n/a	RESPONSE	n/a	n/a	n/a	n/a	n/a	n/a	n/a	blue
169.4812	1.0167	ITI	n/a	n/a	n/a	n/a	n/a	n/a	n/a	n/a
170.4979	0.5167	FIXCROSS	n/a	n/a	n/a	n/a	n/a	n/a	n/a	n/a
171.0146	0.7667	INK	65	Incongruent	żółty	yellow	zielony	green	hit	n/a
171.7504	n/a	RESPONSE	n/a	n/a	n/a	n/a	n/a	n/a	n/a	green
171.7813	1.0167	ITI	n/a	n/a	n/a	n/a	n/a	n/a	n/a	n/a
172.7979	0.5167	FIXCROSS	n/a	n/a	n/a	n/a	n/a	n/a	n/a	n/a
173.3146	0.4167	INK	66	Neutral	xxxxxxxxx	xxxxxxxxx	czerwony	red	hit	n/a
173.702	n/a	RESPONSE	n/a	n/a	n/a	n/a	n/a	n/a	n/a	red
173.7313	1.0167	ITI	n/a	n/a	n/a	n/a	n/a	n/a	n/a	n/a
174.748	0.5167	FIXCROSS	n/a	n/a	n/a	n/a	n/a	n/a	n/a	n/a
175.2646	0.3833	INK	67	Incongruent	żółty	yellow	czerwony	red	hit	n/a
175.6215	n/a	RESPONSE	n/a	n/a	n/a	n/a	n/a	n/a	n/a	red
175.648	1.0167	ITI	n/a	n/a	n/a	n/a	n/a	n/a	n/a	n/a
176.6647	0.5167	FIXCROSS	n/a	n/a	n/a	n/a	n/a	n/a	n/a	n/a
177.1813	0.6834	INK	68	Incongruent	czerwony	red	niebieski	blue	hit	n/a
177.845	n/a	RESPONSE	n/a	n/a	n/a	n/a	n/a	n/a	n/a	blue
177.8647	1.0167	ITI	n/a	n/a	n/a	n/a	n/a	n/a	n/a	n/a
178.8813	0.5167	FIXCROSS	n/a	n/a	n/a	n/a	n/a	n/a	n/a	n/a
179.398	0.3833	INK	69	Incongruent	czerwony	red	niebieski	blue	hit	n/a
179.7485	n/a	RESPONSE	n/a	n/a	n/a	n/a	n/a	n/a	n/a	blue
179.7814	1.0167	ITI	n/a	n/a	n/a	n/a	n/a	n/a	n/a	n/a
180.798	0.5167	FIXCROSS	n/a	n/a	n/a	n/a	n/a	n/a	n/a	n/a
181.3147	0.3667	INK	70	Neutral	xxxxx	xxxxx	niebieski	blue	hit	n/a
181.652	n/a	RESPONSE	n/a	n/a	n/a	n/a	n/a	n/a	n/a	blue
181.6814	1.0167	ITI	n/a	n/a	n/a	n/a	n/a	n/a	n/a	n/a
182.6981	0.5167	FIXCROSS	n/a	n/a	n/a	n/a	n/a	n/a	n/a	n/a
183.2147	0.5667	INK	71	Incongruent	niebieski	blue	zielony	green	hit	n/a
183.7635	n/a	RESPONSE	n/a	n/a	n/a	n/a	n/a	n/a	n/a	green
183.7814	1.0167	ITI	n/a	n/a	n/a	n/a	n/a	n/a	n/a	n/a
184.7981	0.5167	FIXCROSS	n/a	n/a	n/a	n/a	n/a	n/a	n/a	n/a
185.3148	0.4667	INK	72	Neutral	xxxxxxx	xxxxxxx	niebieski	blue	hit	n/a
185.763	n/a	RESPONSE	n/a	n/a	n/a	n/a	n/a	n/a	n/a	blue
185.7814	1.0834	ITI	n/a	n/a	n/a	n/a	n/a	n/a	n/a	n/a
195.5367	n/a	RESPONSE	n/a	n/a	n/a	n/a	n/a	n/a	n/a	n/a
195.5982	1.0167	ITI	n/a	n/a	n/a	n/a	n/a	n/a	n/a	n/a
196.6149	0.5167	FIXCROSS	n/a	n/a	n/a	n/a	n/a	n/a	n/a	n/a
197.1316	0.75	T_COLOR_NAME	1	Neutral	zielony	green	Neutral	Neutral	hit	n/a
197.8561	n/a	RESPONSE	n/a	n/a	n/a	n/a	n/a	n/a	n/a	green
197.8816	0.5167	FEEDBACK	n/a	n/a	n/a	n/a	n/a	n/a	n/a	n/a
198.3982	1.0167	ITI	n/a	n/a	n/a	n/a	n/a	n/a	n/a	n/a
199.4149	0.5167	FIXCROSS	n/a	n/a	n/a	n/a	n/a	n/a	n/a	n/a
199.9316	0.75	T_COLOR_NAME	2	Incongruent	niebieski	blue	czerwony	red	hit	n/a
200.6554	n/a	RESPONSE	n/a	n/a	n/a	n/a	n/a	n/a	n/a	blue
200.6816	0.5167	FEEDBACK	n/a	n/a	n/a	n/a	n/a	n/a	n/a	n/a
201.1983	1.0167	ITI	n/a	n/a	n/a	n/a	n/a	n/a	n/a	n/a
202.2149	0.5167	FIXCROSS	n/a	n/a	n/a	n/a	n/a	n/a	n/a	n/a
202.7316	0.6333	T_COLOR_NAME	3	Neutral	żółty	yellow	Neutral	Neutral	hit	n/a
203.3428	n/a	RESPONSE	n/a	n/a	n/a	n/a	n/a	n/a	n/a	yellow
203.365	0.5167	FEEDBACK	n/a	n/a	n/a	n/a	n/a	n/a	n/a	n/a
203.8816	1.0167	ITI	n/a	n/a	n/a	n/a	n/a	n/a	n/a	n/a
204.8983	0.5167	FIXCROSS	n/a	n/a	n/a	n/a	n/a	n/a	n/a	n/a
205.415	0.65	T_COLOR_NAME	4	Neutral	niebieski	blue	Neutral	Neutral	hit	n/a
206.0461	n/a	RESPONSE	n/a	n/a	n/a	n/a	n/a	n/a	n/a	blue
206.065	0.5167	FEEDBACK	n/a	n/a	n/a	n/a	n/a	n/a	n/a	n/a
206.5817	1.0167	ITI	n/a	n/a	n/a	n/a	n/a	n/a	n/a	n/a
207.5983	0.5167	FIXCROSS	n/a	n/a	n/a	n/a	n/a	n/a	n/a	n/a
208.115	0.7833	T_COLOR_NAME	5	Incongruent	czerwony	red	żółty	yellow	hit	n/a
208.8774	n/a	RESPONSE	n/a	n/a	n/a	n/a	n/a	n/a	n/a	red
208.8984	0.5167	FEEDBACK	n/a	n/a	n/a	n/a	n/a	n/a	n/a	n/a
209.415	1.0167	ITI	n/a	n/a	n/a	n/a	n/a	n/a	n/a	n/a
210.4317	0.5167	FIXCROSS	n/a	n/a	n/a	n/a	n/a	n/a	n/a	n/a
210.9484	0.5833	T_COLOR_NAME	6	Incongruent	żółty	yellow	zielony	green	incorrect	n/a
211.5008	n/a	RESPONSE	n/a	n/a	n/a	n/a	n/a	n/a	n/a	green
211.5317	0.5167	FEEDBACK	n/a	n/a	n/a	n/a	n/a	n/a	n/a	n/a
212.0484	1.0167	ITI	n/a	n/a	n/a	n/a	n/a	n/a	n/a	n/a
213.0651	0.5167	FIXCROSS	n/a	n/a	n/a	n/a	n/a	n/a	n/a	n/a
213.5817	0.5167	T_COLOR_NAME	7	Neutral	żółty	yellow	Neutral	Neutral	hit	n/a
214.0761	n/a	RESPONSE	n/a	n/a	n/a	n/a	n/a	n/a	n/a	yellow
214.0984	0.5167	FEEDBACK	n/a	n/a	n/a	n/a	n/a	n/a	n/a	n/a
214.6151	1.0167	ITI	n/a	n/a	n/a	n/a	n/a	n/a	n/a	n/a
215.6318	0.5167	FIXCROSS	n/a	n/a	n/a	n/a	n/a	n/a	n/a	n/a
216.1484	0.8334	T_COLOR_NAME	8	Incongruent	zielony	green	żółty	yellow	hit	n/a
216.9555	n/a	RESPONSE	n/a	n/a	n/a	n/a	n/a	n/a	n/a	green
216.9818	0.5167	FEEDBACK	n/a	n/a	n/a	n/a	n/a	n/a	n/a	n/a
217.4985	1.0167	ITI	n/a	n/a	n/a	n/a	n/a	n/a	n/a	n/a
218.5151	0.5167	FIXCROSS	n/a	n/a	n/a	n/a	n/a	n/a	n/a	n/a
219.0318	0.5	T_COLOR_NAME	9	Incongruent	zielony	green	czerwony	red	hit	n/a
219.4988	n/a	RESPONSE	n/a	n/a	n/a	n/a	n/a	n/a	n/a	green
219.5318	0.5167	FEEDBACK	n/a	n/a	n/a	n/a	n/a	n/a	n/a	n/a
220.0485	1.0167	ITI	n/a	n/a	n/a	n/a	n/a	n/a	n/a	n/a
221.0652	0.5167	FIXCROSS	n/a	n/a	n/a	n/a	n/a	n/a	n/a	n/a
221.5819	0.6833	T_COLOR_NAME	10	Incongruent	żółty	yellow	niebieski	blue	hit	n/a
222.2342	n/a	RESPONSE	n/a	n/a	n/a	n/a	n/a	n/a	n/a	yellow
222.2652	0.5167	FEEDBACK	n/a	n/a	n/a	n/a	n/a	n/a	n/a	n/a
222.7819	1.0167	ITI	n/a	n/a	n/a	n/a	n/a	n/a	n/a	n/a
223.7985	0.5167	FIXCROSS	n/a	n/a	n/a	n/a	n/a	n/a	n/a	n/a
224.3152	0.55	T_COLOR_NAME	11	Neutral	czerwony	red	Neutral	Neutral	hit	n/a
224.8416	n/a	RESPONSE	n/a	n/a	n/a	n/a	n/a	n/a	n/a	red
224.8652	0.5167	FEEDBACK	n/a	n/a	n/a	n/a	n/a	n/a	n/a	n/a
225.3819	1.0167	ITI	n/a	n/a	n/a	n/a	n/a	n/a	n/a	n/a
226.3986	0.5167	FIXCROSS	n/a	n/a	n/a	n/a	n/a	n/a	n/a	n/a
226.9152	0.6333	T_COLOR_NAME	12	Incongruent	czerwony	red	zielony	green	hit	n/a
227.5289	n/a	RESPONSE	n/a	n/a	n/a	n/a	n/a	n/a	n/a	red
227.5486	0.5167	FEEDBACK	n/a	n/a	n/a	n/a	n/a	n/a	n/a	n/a
228.0652	1.0333	ITI	n/a	n/a	n/a	n/a	n/a	n/a	n/a	n/a
230.3922	n/a	RESPONSE	n/a	n/a	n/a	n/a	n/a	n/a	n/a	n/a
230.4486	1.0167	ITI	n/a	n/a	n/a	n/a	n/a	n/a	n/a	n/a
231.4653	0.5167	FIXCROSS	n/a	n/a	n/a	n/a	n/a	n/a	n/a	n/a
231.982	0.65	COLOR_NAME	1	Neutral	zielony	green	Neutral	Neutral	incorrect	n/a
232.5997	n/a	RESPONSE	n/a	n/a	n/a	n/a	n/a	n/a	n/a	red
232.632	1.0167	ITI	n/a	n/a	n/a	n/a	n/a	n/a	n/a	n/a
233.6486	0.5167	FIXCROSS	n/a	n/a	n/a	n/a	n/a	n/a	n/a	n/a
234.1653	0.8667	COLOR_NAME	2	Incongruent	czerwony	red	niebieski	blue	hit	n/a
234.9991	n/a	RESPONSE	n/a	n/a	n/a	n/a	n/a	n/a	n/a	red
235.032	1.0167	ITI	n/a	n/a	n/a	n/a	n/a	n/a	n/a	n/a
236.0487	0.5167	FIXCROSS	n/a	n/a	n/a	n/a	n/a	n/a	n/a	n/a
236.5653	0.5333	COLOR_NAME	3	Incongruent	czerwony	red	zielony	green	hit	n/a
237.0786	n/a	RESPONSE	n/a	n/a	n/a	n/a	n/a	n/a	n/a	red
237.0987	1.0167	ITI	n/a	n/a	n/a	n/a	n/a	n/a	n/a	n/a
238.1154	0.5167	FIXCROSS	n/a	n/a	n/a	n/a	n/a	n/a	n/a	n/a
238.632	0.4167	COLOR_NAME	4	Incongruent	czerwony	red	zielony	green	hit	n/a
239.0301	n/a	RESPONSE	n/a	n/a	n/a	n/a	n/a	n/a	n/a	red
239.0487	1.0167	ITI	n/a	n/a	n/a	n/a	n/a	n/a	n/a	n/a
240.0654	0.5167	FIXCROSS	n/a	n/a	n/a	n/a	n/a	n/a	n/a	n/a
240.5821	0.6333	COLOR_NAME	5	Neutral	niebieski	blue	Neutral	Neutral	hit	n/a
241.1896	n/a	RESPONSE	n/a	n/a	n/a	n/a	n/a	n/a	n/a	blue
241.2154	1.0167	ITI	n/a	n/a	n/a	n/a	n/a	n/a	n/a	n/a
242.2321	0.5167	FIXCROSS	n/a	n/a	n/a	n/a	n/a	n/a	n/a	n/a
242.7487	0.5833	COLOR_NAME	6	Neutral	czerwony	red	Neutral	Neutral	hit	n/a
243.3011	n/a	RESPONSE	n/a	n/a	n/a	n/a	n/a	n/a	n/a	red
243.3321	1.0167	ITI	n/a	n/a	n/a	n/a	n/a	n/a	n/a	n/a
244.3488	0.5167	FIXCROSS	n/a	n/a	n/a	n/a	n/a	n/a	n/a	n/a
244.8654	0.5	COLOR_NAME	7	Incongruent	niebieski	blue	zielony	green	hit	n/a
245.3326	n/a	RESPONSE	n/a	n/a	n/a	n/a	n/a	n/a	n/a	blue
245.3654	1.0167	ITI	n/a	n/a	n/a	n/a	n/a	n/a	n/a	n/a
246.3821	0.5167	FIXCROSS	n/a	n/a	n/a	n/a	n/a	n/a	n/a	n/a
246.8988	0.6333	COLOR_NAME	8	Incongruent	czerwony	red	niebieski	blue	hit	n/a
247.5081	n/a	RESPONSE	n/a	n/a	n/a	n/a	n/a	n/a	n/a	red
247.5321	1.0167	ITI	n/a	n/a	n/a	n/a	n/a	n/a	n/a	n/a
248.5488	0.5167	FIXCROSS	n/a	n/a	n/a	n/a	n/a	n/a	n/a	n/a
249.0655	0.95	COLOR_NAME	9	Incongruent	zielony	green	czerwony	red	hit	n/a
249.9875	n/a	RESPONSE	n/a	n/a	n/a	n/a	n/a	n/a	n/a	green
250.0155	1.0167	ITI	n/a	n/a	n/a	n/a	n/a	n/a	n/a	n/a
251.0322	0.5167	FIXCROSS	n/a	n/a	n/a	n/a	n/a	n/a	n/a	n/a
251.5488	0.4833	COLOR_NAME	10	Neutral	zielony	green	Neutral	Neutral	hit	n/a
252.003	n/a	RESPONSE	n/a	n/a	n/a	n/a	n/a	n/a	n/a	green
252.0322	1.0167	ITI	n/a	n/a	n/a	n/a	n/a	n/a	n/a	n/a
253.0489	0.5167	FIXCROSS	n/a	n/a	n/a	n/a	n/a	n/a	n/a	n/a
253.5655	0.3667	COLOR_NAME	11	Neutral	zielony	green	Neutral	Neutral	hit	n/a
253.9065	n/a	RESPONSE	n/a	n/a	n/a	n/a	n/a	n/a	n/a	green
253.9322	1.0167	ITI	n/a	n/a	n/a	n/a	n/a	n/a	n/a	n/a
254.9489	0.5167	FIXCROSS	n/a	n/a	n/a	n/a	n/a	n/a	n/a	n/a
255.4656	0.5667	COLOR_NAME	12	Neutral	czerwony	red	Neutral	Neutral	hit	n/a
256.002	n/a	RESPONSE	n/a	n/a	n/a	n/a	n/a	n/a	n/a	red
256.0322	1.0104	ITI	n/a	n/a	n/a	n/a	n/a	n/a	n/a	n/a
257.0427	0.5229	FIXCROSS	n/a	n/a	n/a	n/a	n/a	n/a	n/a	n/a
257.5656	0.6667	COLOR_NAME	13	Incongruent	zielony	green	niebieski	blue	hit	n/a
258.2095	n/a	RESPONSE	n/a	n/a	n/a	n/a	n/a	n/a	n/a	green
258.2323	1.0167	ITI	n/a	n/a	n/a	n/a	n/a	n/a	n/a	n/a
259.2489	0.5167	FIXCROSS	n/a	n/a	n/a	n/a	n/a	n/a	n/a	n/a
259.7656	0.5667	COLOR_NAME	14	Neutral	żółty	yellow	Neutral	Neutral	hit	n/a
260.305	n/a	RESPONSE	n/a	n/a	n/a	n/a	n/a	n/a	n/a	yellow
260.3323	1.0167	ITI	n/a	n/a	n/a	n/a	n/a	n/a	n/a	n/a
261.349	0.5167	FIXCROSS	n/a	n/a	n/a	n/a	n/a	n/a	n/a	n/a
261.8656	0.5	COLOR_NAME	15	Incongruent	żółty	yellow	niebieski	blue	hit	n/a
262.3365	n/a	RESPONSE	n/a	n/a	n/a	n/a	n/a	n/a	n/a	yellow
262.3657	1.0167	ITI	n/a	n/a	n/a	n/a	n/a	n/a	n/a	n/a
263.3823	0.5167	FIXCROSS	n/a	n/a	n/a	n/a	n/a	n/a	n/a	n/a
263.899	0.7333	COLOR_NAME	16	Incongruent	niebieski	blue	zielony	green	hit	n/a
264.6079	n/a	RESPONSE	n/a	n/a	n/a	n/a	n/a	n/a	n/a	blue
264.6323	1.0167	ITI	n/a	n/a	n/a	n/a	n/a	n/a	n/a	n/a
265.649	0.5167	FIXCROSS	n/a	n/a	n/a	n/a	n/a	n/a	n/a	n/a
266.1657	0.5333	COLOR_NAME	17	Neutral	czerwony	red	Neutral	Neutral	hit	n/a
266.6714	n/a	RESPONSE	n/a	n/a	n/a	n/a	n/a	n/a	n/a	red
266.699	1.0167	ITI	n/a	n/a	n/a	n/a	n/a	n/a	n/a	n/a
267.7157	0.5167	FIXCROSS	n/a	n/a	n/a	n/a	n/a	n/a	n/a	n/a
268.2324	0.7167	COLOR_NAME	18	Incongruent	niebieski	blue	żółty	yellow	hit	n/a
268.9269	n/a	RESPONSE	n/a	n/a	n/a	n/a	n/a	n/a	n/a	blue
268.949	1.0167	ITI	n/a	n/a	n/a	n/a	n/a	n/a	n/a	n/a
269.9657	0.5167	FIXCROSS	n/a	n/a	n/a	n/a	n/a	n/a	n/a	n/a
270.4824	0.45	COLOR_NAME	19	Incongruent	niebieski	blue	żółty	yellow	hit	n/a
270.9104	n/a	RESPONSE	n/a	n/a	n/a	n/a	n/a	n/a	n/a	blue
270.9324	1.0167	ITI	n/a	n/a	n/a	n/a	n/a	n/a	n/a	n/a
271.9491	0.5167	FIXCROSS	n/a	n/a	n/a	n/a	n/a	n/a	n/a	n/a
272.4658	0.8333	COLOR_NAME	20	Incongruent	zielony	green	żółty	yellow	hit	n/a
273.2778	n/a	RESPONSE	n/a	n/a	n/a	n/a	n/a	n/a	n/a	green
273.2991	1.0167	ITI	n/a	n/a	n/a	n/a	n/a	n/a	n/a	n/a
274.3158	0.5167	FIXCROSS	n/a	n/a	n/a	n/a	n/a	n/a	n/a	n/a
274.8325	0.5833	COLOR_NAME	21	Neutral	czerwony	red	Neutral	Neutral	hit	n/a
275.3893	n/a	RESPONSE	n/a	n/a	n/a	n/a	n/a	n/a	n/a	red
275.4158	1.0167	ITI	n/a	n/a	n/a	n/a	n/a	n/a	n/a	n/a
276.4325	0.5167	FIXCROSS	n/a	n/a	n/a	n/a	n/a	n/a	n/a	n/a
276.9492	0.45	COLOR_NAME	22	Neutral	czerwony	red	Neutral	Neutral	hit	n/a
277.3728	n/a	RESPONSE	n/a	n/a	n/a	n/a	n/a	n/a	n/a	red
277.3992	1.0167	ITI	n/a	n/a	n/a	n/a	n/a	n/a	n/a	n/a
278.4158	0.5167	FIXCROSS	n/a	n/a	n/a	n/a	n/a	n/a	n/a	n/a
278.9325	0.5	COLOR_NAME	23	Incongruent	czerwony	red	żółty	yellow	hit	n/a
279.4043	n/a	RESPONSE	n/a	n/a	n/a	n/a	n/a	n/a	n/a	red
279.4325	1.0167	ITI	n/a	n/a	n/a	n/a	n/a	n/a	n/a	n/a
280.4492	0.5167	FIXCROSS	n/a	n/a	n/a	n/a	n/a	n/a	n/a	n/a
280.9659	0.55	COLOR_NAME	24	Neutral	niebieski	blue	Neutral	Neutral	hit	n/a
281.4839	n/a	RESPONSE	n/a	n/a	n/a	n/a	n/a	n/a	n/a	blue
281.5159	1.0167	ITI	n/a	n/a	n/a	n/a	n/a	n/a	n/a	n/a
282.5325	0.5167	FIXCROSS	n/a	n/a	n/a	n/a	n/a	n/a	n/a	n/a
283.0492	0.6167	COLOR_NAME	25	Incongruent	czerwony	red	żółty	yellow	hit	n/a
283.6433	n/a	RESPONSE	n/a	n/a	n/a	n/a	n/a	n/a	n/a	red
283.6659	1.0167	ITI	n/a	n/a	n/a	n/a	n/a	n/a	n/a	n/a
284.6826	0.5167	FIXCROSS	n/a	n/a	n/a	n/a	n/a	n/a	n/a	n/a
285.1992	0.6333	COLOR_NAME	26	Neutral	zielony	green	Neutral	Neutral	hit	n/a
285.8028	n/a	RESPONSE	n/a	n/a	n/a	n/a	n/a	n/a	n/a	green
285.8326	1.0167	ITI	n/a	n/a	n/a	n/a	n/a	n/a	n/a	n/a
286.8493	0.5167	FIXCROSS	n/a	n/a	n/a	n/a	n/a	n/a	n/a	n/a
287.3659	0.65	COLOR_NAME	27	Neutral	niebieski	blue	Neutral	Neutral	hit	n/a
287.9943	n/a	RESPONSE	n/a	n/a	n/a	n/a	n/a	n/a	n/a	blue
288.0159	1.0167	ITI	n/a	n/a	n/a	n/a	n/a	n/a	n/a	n/a
289.0326	0.5167	FIXCROSS	n/a	n/a	n/a	n/a	n/a	n/a	n/a	n/a
289.5493	0.75	COLOR_NAME	28	Neutral	zielony	green	Neutral	Neutral	hit	n/a
290.2657	n/a	RESPONSE	n/a	n/a	n/a	n/a	n/a	n/a	n/a	green
290.2993	1.0167	ITI	n/a	n/a	n/a	n/a	n/a	n/a	n/a	n/a
291.316	0.5167	FIXCROSS	n/a	n/a	n/a	n/a	n/a	n/a	n/a	n/a
291.8326	0.6	COLOR_NAME	29	Neutral	żółty	yellow	Neutral	Neutral	hit	n/a
292.4092	n/a	RESPONSE	n/a	n/a	n/a	n/a	n/a	n/a	n/a	yellow
292.4327	1.0167	ITI	n/a	n/a	n/a	n/a	n/a	n/a	n/a	n/a
293.4493	0.5167	FIXCROSS	n/a	n/a	n/a	n/a	n/a	n/a	n/a	n/a
293.966	0.5833	COLOR_NAME	30	Neutral	czerwony	red	Neutral	Neutral	hit	n/a
294.5207	n/a	RESPONSE	n/a	n/a	n/a	n/a	n/a	n/a	n/a	red
294.5493	1.0167	ITI	n/a	n/a	n/a	n/a	n/a	n/a	n/a	n/a
295.566	0.5167	FIXCROSS	n/a	n/a	n/a	n/a	n/a	n/a	n/a	n/a
296.0827	0.5167	COLOR_NAME	31	Incongruent	czerwony	red	zielony	green	hit	n/a
296.5682	n/a	RESPONSE	n/a	n/a	n/a	n/a	n/a	n/a	n/a	red
296.5994	1.0167	ITI	n/a	n/a	n/a	n/a	n/a	n/a	n/a	n/a
297.616	0.5167	FIXCROSS	n/a	n/a	n/a	n/a	n/a	n/a	n/a	n/a
298.1327	0.6167	COLOR_NAME	32	Incongruent	zielony	green	niebieski	blue	hit	n/a
298.7277	n/a	RESPONSE	n/a	n/a	n/a	n/a	n/a	n/a	n/a	green
298.7494	1.0167	ITI	n/a	n/a	n/a	n/a	n/a	n/a	n/a	n/a
299.7661	0.5167	FIXCROSS	n/a	n/a	n/a	n/a	n/a	n/a	n/a	n/a
300.2828	0.5	COLOR_NAME	33	Neutral	żółty	yellow	Neutral	Neutral	hit	n/a
300.7592	n/a	RESPONSE	n/a	n/a	n/a	n/a	n/a	n/a	n/a	yellow
300.7828	1.0167	ITI	n/a	n/a	n/a	n/a	n/a	n/a	n/a	n/a
301.7994	0.5167	FIXCROSS	n/a	n/a	n/a	n/a	n/a	n/a	n/a	n/a
302.3161	0.9833	COLOR_NAME	34	Incongruent	zielony	green	żółty	yellow	hit	n/a
303.2706	n/a	RESPONSE	n/a	n/a	n/a	n/a	n/a	n/a	n/a	green
303.2994	1.0167	ITI	n/a	n/a	n/a	n/a	n/a	n/a	n/a	n/a
304.3161	0.5167	FIXCROSS	n/a	n/a	n/a	n/a	n/a	n/a	n/a	n/a
304.8328	0.6333	COLOR_NAME	35	Neutral	niebieski	blue	Neutral	Neutral	hit	n/a
305.446	n/a	RESPONSE	n/a	n/a	n/a	n/a	n/a	n/a	n/a	blue
305.4661	1.0167	ITI	n/a	n/a	n/a	n/a	n/a	n/a	n/a	n/a
306.4828	0.5167	FIXCROSS	n/a	n/a	n/a	n/a	n/a	n/a	n/a	n/a
306.9995	0.6167	COLOR_NAME	36	Neutral	żółty	yellow	Neutral	Neutral	hit	n/a
307.5895	n/a	RESPONSE	n/a	n/a	n/a	n/a	n/a	n/a	n/a	yellow
307.6162	1.0167	ITI	n/a	n/a	n/a	n/a	n/a	n/a	n/a	n/a
308.6328	0.5167	FIXCROSS	n/a	n/a	n/a	n/a	n/a	n/a	n/a	n/a
309.1495	0.6167	COLOR_NAME	37	Neutral	niebieski	blue	Neutral	Neutral	hit	n/a
309.749	n/a	RESPONSE	n/a	n/a	n/a	n/a	n/a	n/a	n/a	blue
309.7662	1.0167	ITI	n/a	n/a	n/a	n/a	n/a	n/a	n/a	n/a
310.7829	0.5167	FIXCROSS	n/a	n/a	n/a	n/a	n/a	n/a	n/a	n/a
311.2995	0.3833	COLOR_NAME	38	Neutral	niebieski	blue	Neutral	Neutral	hit	n/a
311.6525	n/a	RESPONSE	n/a	n/a	n/a	n/a	n/a	n/a	n/a	blue
311.6829	1.0167	ITI	n/a	n/a	n/a	n/a	n/a	n/a	n/a	n/a
312.6996	0.5167	FIXCROSS	n/a	n/a	n/a	n/a	n/a	n/a	n/a	n/a
313.2162	0.5833	COLOR_NAME	39	Incongruent	niebieski	blue	czerwony	red	hit	n/a
313.78	n/a	RESPONSE	n/a	n/a	n/a	n/a	n/a	n/a	n/a	blue
313.7996	1.0167	ITI	n/a	n/a	n/a	n/a	n/a	n/a	n/a	n/a
314.8162	0.5167	FIXCROSS	n/a	n/a	n/a	n/a	n/a	n/a	n/a	n/a
315.3329	0.65	COLOR_NAME	40	Incongruent	żółty	yellow	niebieski	blue	hit	n/a
315.9555	n/a	RESPONSE	n/a	n/a	n/a	n/a	n/a	n/a	n/a	yellow
315.9829	1.0167	ITI	n/a	n/a	n/a	n/a	n/a	n/a	n/a	n/a
316.9996	0.5167	FIXCROSS	n/a	n/a	n/a	n/a	n/a	n/a	n/a	n/a
317.5163	0.5667	COLOR_NAME	41	Incongruent	niebieski	blue	żółty	yellow	hit	n/a
318.051	n/a	RESPONSE	n/a	n/a	n/a	n/a	n/a	n/a	n/a	blue
318.0829	1.0167	ITI	n/a	n/a	n/a	n/a	n/a	n/a	n/a	n/a
319.0996	0.5167	FIXCROSS	n/a	n/a	n/a	n/a	n/a	n/a	n/a	n/a
319.6163	0.95	COLOR_NAME	42	Incongruent	żółty	yellow	zielony	green	hit	n/a
320.5464	n/a	RESPONSE	n/a	n/a	n/a	n/a	n/a	n/a	n/a	yellow
320.5663	1.0167	ITI	n/a	n/a	n/a	n/a	n/a	n/a	n/a	n/a
321.583	0.5167	FIXCROSS	n/a	n/a	n/a	n/a	n/a	n/a	n/a	n/a
322.0997	0.6167	COLOR_NAME	43	Neutral	czerwony	red	Neutral	Neutral	hit	n/a
322.6899	n/a	RESPONSE	n/a	n/a	n/a	n/a	n/a	n/a	n/a	red
322.7163	1.0167	ITI	n/a	n/a	n/a	n/a	n/a	n/a	n/a	n/a
323.733	0.5167	FIXCROSS	n/a	n/a	n/a	n/a	n/a	n/a	n/a	n/a
324.2497	0.7667	COLOR_NAME	44	Incongruent	zielony	green	czerwony	red	hit	n/a
324.9933	n/a	RESPONSE	n/a	n/a	n/a	n/a	n/a	n/a	n/a	green
325.0164	1.0167	ITI	n/a	n/a	n/a	n/a	n/a	n/a	n/a	n/a
326.033	0.5167	FIXCROSS	n/a	n/a	n/a	n/a	n/a	n/a	n/a	n/a
326.5497	0.5667	COLOR_NAME	45	Neutral	niebieski	blue	Neutral	Neutral	hit	n/a
327.0888	n/a	RESPONSE	n/a	n/a	n/a	n/a	n/a	n/a	n/a	blue
327.1164	1.0167	ITI	n/a	n/a	n/a	n/a	n/a	n/a	n/a	n/a
328.1331	0.5167	FIXCROSS	n/a	n/a	n/a	n/a	n/a	n/a	n/a	n/a
328.6497	0.5333	COLOR_NAME	46	Neutral	żółty	yellow	Neutral	Neutral	hit	n/a
329.1523	n/a	RESPONSE	n/a	n/a	n/a	n/a	n/a	n/a	n/a	yellow
329.1831	1.0167	ITI	n/a	n/a	n/a	n/a	n/a	n/a	n/a	n/a
330.1998	0.5167	FIXCROSS	n/a	n/a	n/a	n/a	n/a	n/a	n/a	n/a
330.7164	0.6333	COLOR_NAME	47	Neutral	zielony	green	Neutral	Neutral	hit	n/a
331.3278	n/a	RESPONSE	n/a	n/a	n/a	n/a	n/a	n/a	n/a	green
331.3498	1.0167	ITI	n/a	n/a	n/a	n/a	n/a	n/a	n/a	n/a
332.3664	0.5167	FIXCROSS	n/a	n/a	n/a	n/a	n/a	n/a	n/a	n/a
332.8831	0.4667	COLOR_NAME	48	Neutral	żółty	yellow	Neutral	Neutral	hit	n/a
333.3273	n/a	RESPONSE	n/a	n/a	n/a	n/a	n/a	n/a	n/a	yellow
333.3498	1.0167	ITI	n/a	n/a	n/a	n/a	n/a	n/a	n/a	n/a
334.3665	0.5167	FIXCROSS	n/a	n/a	n/a	n/a	n/a	n/a	n/a	n/a
334.8831	0.6833	COLOR_NAME	49	Incongruent	czerwony	red	żółty	yellow	hit	n/a
335.5348	n/a	RESPONSE	n/a	n/a	n/a	n/a	n/a	n/a	n/a	red
335.5665	1.0167	ITI	n/a	n/a	n/a	n/a	n/a	n/a	n/a	n/a
336.5832	0.5167	FIXCROSS	n/a	n/a	n/a	n/a	n/a	n/a	n/a	n/a
337.0998	0.5	COLOR_NAME	50	Neutral	żółty	yellow	Neutral	Neutral	hit	n/a
337.5823	n/a	RESPONSE	n/a	n/a	n/a	n/a	n/a	n/a	n/a	yellow
337.5998	1.0167	ITI	n/a	n/a	n/a	n/a	n/a	n/a	n/a	n/a
338.6165	0.5167	FIXCROSS	n/a	n/a	n/a	n/a	n/a	n/a	n/a	n/a
339.1332	0.5667	COLOR_NAME	51	Incongruent	czerwony	red	niebieski	blue	hit	n/a
339.6777	n/a	RESPONSE	n/a	n/a	n/a	n/a	n/a	n/a	n/a	red
339.6999	1.0167	ITI	n/a	n/a	n/a	n/a	n/a	n/a	n/a	n/a
340.7165	0.5167	FIXCROSS	n/a	n/a	n/a	n/a	n/a	n/a	n/a	n/a
341.2332	0.4833	COLOR_NAME	52	Neutral	czerwony	red	Neutral	Neutral	hit	n/a
341.6933	n/a	RESPONSE	n/a	n/a	n/a	n/a	n/a	n/a	n/a	red
341.7166	1.0167	ITI	n/a	n/a	n/a	n/a	n/a	n/a	n/a	n/a
342.7332	0.5167	FIXCROSS	n/a	n/a	n/a	n/a	n/a	n/a	n/a	n/a
343.2499	0.5833	COLOR_NAME	53	Incongruent	żółty	yellow	zielony	green	hit	n/a
343.8047	n/a	RESPONSE	n/a	n/a	n/a	n/a	n/a	n/a	n/a	yellow
343.8333	1.0167	ITI	n/a	n/a	n/a	n/a	n/a	n/a	n/a	n/a
344.8499	0.5167	FIXCROSS	n/a	n/a	n/a	n/a	n/a	n/a	n/a	n/a
345.3666	0.7167	COLOR_NAME	54	Incongruent	zielony	green	czerwony	red	hit	n/a
346.0602	n/a	RESPONSE	n/a	n/a	n/a	n/a	n/a	n/a	n/a	green
346.0833	1.0167	ITI	n/a	n/a	n/a	n/a	n/a	n/a	n/a	n/a
347.0999	0.5167	FIXCROSS	n/a	n/a	n/a	n/a	n/a	n/a	n/a	n/a
347.6166	0.4167	COLOR_NAME	55	Neutral	zielony	green	Neutral	Neutral	hit	n/a
348.0117	n/a	RESPONSE	n/a	n/a	n/a	n/a	n/a	n/a	n/a	green
348.0333	1.0104	ITI	n/a	n/a	n/a	n/a	n/a	n/a	n/a	n/a
349.0437	0.5229	FIXCROSS	n/a	n/a	n/a	n/a	n/a	n/a	n/a	n/a
349.5666	0.3833	COLOR_NAME	56	Incongruent	zielony	green	niebieski	blue	hit	n/a
349.9313	n/a	RESPONSE	n/a	n/a	n/a	n/a	n/a	n/a	n/a	green
349.95	1.0167	ITI	n/a	n/a	n/a	n/a	n/a	n/a	n/a	n/a
350.9667	0.5167	FIXCROSS	n/a	n/a	n/a	n/a	n/a	n/a	n/a	n/a
351.4833	0.7	COLOR_NAME	57	Neutral	żółty	yellow	Neutral	Neutral	hit	n/a
352.1547	n/a	RESPONSE	n/a	n/a	n/a	n/a	n/a	n/a	n/a	yellow
352.1833	1.0167	ITI	n/a	n/a	n/a	n/a	n/a	n/a	n/a	n/a
353.2	0.5167	FIXCROSS	n/a	n/a	n/a	n/a	n/a	n/a	n/a	n/a
353.7167	0.6833	COLOR_NAME	58	Neutral	zielony	green	Neutral	Neutral	hit	n/a
354.3782	n/a	RESPONSE	n/a	n/a	n/a	n/a	n/a	n/a	n/a	green
354.4	1.0167	ITI	n/a	n/a	n/a	n/a	n/a	n/a	n/a	n/a
355.4167	0.5167	FIXCROSS	n/a	n/a	n/a	n/a	n/a	n/a	n/a	n/a
355.9334	0.55	COLOR_NAME	59	Incongruent	żółty	yellow	czerwony	red	hit	n/a
356.4577	n/a	RESPONSE	n/a	n/a	n/a	n/a	n/a	n/a	n/a	yellow
356.4834	1.0167	ITI	n/a	n/a	n/a	n/a	n/a	n/a	n/a	n/a
357.5001	0.5167	FIXCROSS	n/a	n/a	n/a	n/a	n/a	n/a	n/a	n/a
358.0167	0.5	COLOR_NAME	60	Incongruent	żółty	yellow	zielony	green	hit	n/a
358.4892	n/a	RESPONSE	n/a	n/a	n/a	n/a	n/a	n/a	n/a	yellow
358.5168	1.0167	ITI	n/a	n/a	n/a	n/a	n/a	n/a	n/a	n/a
359.5334	0.5167	FIXCROSS	n/a	n/a	n/a	n/a	n/a	n/a	n/a	n/a
360.0501	1.2	COLOR_NAME	61	Neutral	niebieski	blue	Neutral	Neutral	hit	n/a
361.2245	n/a	RESPONSE	n/a	n/a	n/a	n/a	n/a	n/a	n/a	blue
361.2501	1.0167	ITI	n/a	n/a	n/a	n/a	n/a	n/a	n/a	n/a
362.2668	0.5167	FIXCROSS	n/a	n/a	n/a	n/a	n/a	n/a	n/a	n/a
362.7835	0.7667	COLOR_NAME	62	Incongruent	zielony	green	żółty	yellow	incorrect	n/a
363.528	n/a	RESPONSE	n/a	n/a	n/a	n/a	n/a	n/a	n/a	yellow
363.5501	1.0167	ITI	n/a	n/a	n/a	n/a	n/a	n/a	n/a	n/a
364.5668	0.5167	FIXCROSS	n/a	n/a	n/a	n/a	n/a	n/a	n/a	n/a
365.0835	0.6833	COLOR_NAME	63	Incongruent	żółty	yellow	niebieski	blue	hit	n/a
365.7355	n/a	RESPONSE	n/a	n/a	n/a	n/a	n/a	n/a	n/a	yellow
365.7668	1.0167	ITI	n/a	n/a	n/a	n/a	n/a	n/a	n/a	n/a
366.7835	0.5167	FIXCROSS	n/a	n/a	n/a	n/a	n/a	n/a	n/a	n/a
367.3002	0.8	COLOR_NAME	64	Incongruent	niebieski	blue	czerwony	red	hit	n/a
368.0709	n/a	RESPONSE	n/a	n/a	n/a	n/a	n/a	n/a	n/a	blue
368.1002	1.0167	ITI	n/a	n/a	n/a	n/a	n/a	n/a	n/a	n/a
369.1169	0.5167	FIXCROSS	n/a	n/a	n/a	n/a	n/a	n/a	n/a	n/a
369.6335	0.5667	COLOR_NAME	65	Incongruent	niebieski	blue	zielony	green	hit	n/a
370.1664	n/a	RESPONSE	n/a	n/a	n/a	n/a	n/a	n/a	n/a	blue
370.2002	1.0167	ITI	n/a	n/a	n/a	n/a	n/a	n/a	n/a	n/a
371.2169	0.5167	FIXCROSS	n/a	n/a	n/a	n/a	n/a	n/a	n/a	n/a
371.7336	0.85	COLOR_NAME	66	Neutral	zielony	green	Neutral	Neutral	hit	n/a
372.5498	n/a	RESPONSE	n/a	n/a	n/a	n/a	n/a	n/a	n/a	green
372.5836	1.0167	ITI	n/a	n/a	n/a	n/a	n/a	n/a	n/a	n/a
373.6002	0.5167	FIXCROSS	n/a	n/a	n/a	n/a	n/a	n/a	n/a	n/a
374.1169	0.75	COLOR_NAME	67	Incongruent	niebieski	blue	czerwony	red	hit	n/a
374.8372	n/a	RESPONSE	n/a	n/a	n/a	n/a	n/a	n/a	n/a	blue
374.8669	1.0167	ITI	n/a	n/a	n/a	n/a	n/a	n/a	n/a	n/a
375.8836	0.5167	FIXCROSS	n/a	n/a	n/a	n/a	n/a	n/a	n/a	n/a
376.4003	0.5667	COLOR_NAME	68	Incongruent	żółty	yellow	czerwony	red	hit	n/a
376.9487	n/a	RESPONSE	n/a	n/a	n/a	n/a	n/a	n/a	n/a	yellow
376.967	1.0167	ITI	n/a	n/a	n/a	n/a	n/a	n/a	n/a	n/a
377.9836	0.5167	FIXCROSS	n/a	n/a	n/a	n/a	n/a	n/a	n/a	n/a
378.5003	0.55	COLOR_NAME	69	Neutral	żółty	yellow	Neutral	Neutral	hit	n/a
379.0282	n/a	RESPONSE	n/a	n/a	n/a	n/a	n/a	n/a	n/a	yellow
379.0503	1.0167	ITI	n/a	n/a	n/a	n/a	n/a	n/a	n/a	n/a
380.067	0.5167	FIXCROSS	n/a	n/a	n/a	n/a	n/a	n/a	n/a	n/a
380.5837	0.4167	COLOR_NAME	70	Incongruent	żółty	yellow	czerwony	red	hit	n/a
380.9798	n/a	RESPONSE	n/a	n/a	n/a	n/a	n/a	n/a	n/a	yellow
381.0003	1.0167	ITI	n/a	n/a	n/a	n/a	n/a	n/a	n/a	n/a
382.017	0.5167	FIXCROSS	n/a	n/a	n/a	n/a	n/a	n/a	n/a	n/a
382.5337	0.8833	COLOR_NAME	71	Neutral	czerwony	red	Neutral	Neutral	hit	n/a
383.3952	n/a	RESPONSE	n/a	n/a	n/a	n/a	n/a	n/a	n/a	red
383.417	1.0167	ITI	n/a	n/a	n/a	n/a	n/a	n/a	n/a	n/a
384.4337	0.5167	FIXCROSS	n/a	n/a	n/a	n/a	n/a	n/a	n/a	n/a
384.9504	0.6	COLOR_NAME	72	Neutral	niebieski	blue	Neutral	Neutral	hit	n/a
385.5226	n/a	RESPONSE	n/a	n/a	n/a	n/a	n/a	n/a	n/a	blue
385.5504	1.0333	ITI	n/a	n/a	n/a	n/a	n/a	n/a	n/a	n/a
388.7379	n/a	RESPONSE	n/a	n/a	n/a	n/a	n/a	n/a	n/a	n/a
