onset	duration	trial_type	braille_stimulus	targets	response_count
2.013	2.008	CUE_REST	n/a	n/a	n/a
7.013	1.008	FIXCROSS	n/a	n/a	n/a
13.063	1.008	FIXCROSS	n/a	n/a	n/a
21.121	2.008	CUE_6_DOT	n/a	n/a	n/a
26.121	1.008	FIXCROSS	n/a	n/a	n/a
27.138	5.008	6_DOT_DETECTION	C#CEŁ	1	n/a
28.92	n/a	RESPONSE	n/a	n/a	1/1
32.171	1.008	FIXCROSS	n/a	n/a	n/a
33.188	5.008	6_DOT_DETECTION	ITŁEM	0	n/a
38.221	1.008	FIXCROSS	n/a	n/a	n/a
39.237	5.009	6_DOT_DETECTION	TEK##	2	n/a
41.84	n/a	RESPONSE	n/a	n/a	1/2
42.8	n/a	RESPONSE	n/a	n/a	2/2
44.271	1.008	FIXCROSS	n/a	n/a	n/a
45.288	5.009	6_DOT_DETECTION	O#LAS	1	n/a
46.776	n/a	RESPONSE	n/a	n/a	1/1
50.322	1.008	FIXCROSS	n/a	n/a	n/a
51.338	5.009	6_DOT_DETECTION	KOP#M	1	n/a
54.136	n/a	RESPONSE	n/a	n/a	1/1
56.372	1.008	FIXCROSS	n/a	n/a	n/a
57.388	5.009	6_DOT_DETECTION	SB#OL	1	n/a
59.08	n/a	RESPONSE	n/a	n/a	1/1
62.422	1.008	FIXCROSS	n/a	n/a	n/a
63.438	5.008	6_DOT_DETECTION	##KAT	2	n/a
64.32	n/a	RESPONSE	n/a	n/a	1/2
65.36	n/a	RESPONSE	n/a	n/a	2/2
68.472	1.008	FIXCROSS	n/a	n/a	n/a
69.488	5.009	6_DOT_DETECTION	DTIDI	0	n/a
76.03	2.008	CUE_REST	n/a	n/a	n/a
82.53	1.008	FIXCROSS	n/a	n/a	n/a
88.58	1.008	FIXCROSS	n/a	n/a	n/a
95.638	2.008	CUE_6_DOT	n/a	n/a	n/a
100.638	1.008	FIXCROSS	n/a	n/a	n/a
101.654	5.009	6_DOT_DETECTION	BUT##	2	n/a
105.12	n/a	RESPONSE	n/a	n/a	1/2
105.84	n/a	RESPONSE	n/a	n/a	2/2
106.688	1.008	FIXCROSS	n/a	n/a	n/a
107.704	5.009	6_DOT_DETECTION	APD#C	1	n/a
110.056	n/a	RESPONSE	n/a	n/a	1/1
112.738	1.008	FIXCROSS	n/a	n/a	n/a
113.754	5.009	6_DOT_DETECTION	EUBEC	0	n/a
118.788	1.008	FIXCROSS	n/a	n/a	n/a
119.805	5.008	6_DOT_DETECTION	KMŁKM	0	n/a
124.838	1.008	FIXCROSS	n/a	n/a	n/a
125.855	5.008	6_DOT_DETECTION	#PSU#	2	n/a
126.92	n/a	RESPONSE	n/a	n/a	1/2
129.76	n/a	RESPONSE	n/a	n/a	2/2
130.888	1.008	FIXCROSS	n/a	n/a	n/a
131.905	5.008	6_DOT_DETECTION	PMSKK	0	n/a
136.938	1.008	FIXCROSS	n/a	n/a	n/a
137.954	5.009	6_DOT_DETECTION	T#BUD	1	n/a
139.656	n/a	RESPONSE	n/a	n/a	1/1
142.988	1.008	FIXCROSS	n/a	n/a	n/a
144.004	5.009	6_DOT_DETECTION	#KMBŁ	1	n/a
145.36	n/a	RESPONSE	n/a	n/a	1/1
150.547	2.008	CUE_REST	n/a	n/a	n/a
155.047	1.008	FIXCROSS	n/a	n/a	n/a
161.097	1.008	FIXCROSS	n/a	n/a	n/a
168.655	2.008	CUE_6_DOT	n/a	n/a	n/a
175.155	1.008	FIXCROSS	n/a	n/a	n/a
176.172	5.008	6_DOT_DETECTION	A#ŁAP	1	n/a
177.72	n/a	RESPONSE	n/a	n/a	1/1
179.936	n/a	RESPONSE	n/a	n/a	2/1
181.205	1.008	FIXCROSS	n/a	n/a	n/a
182.221	5.009	6_DOT_DETECTION	TYŁ##	2	n/a
185.296	n/a	RESPONSE	n/a	n/a	1/2
186.32	n/a	RESPONSE	n/a	n/a	2/2
187.255	1.008	FIXCROSS	n/a	n/a	n/a
188.272	5.008	6_DOT_DETECTION	TOK##	2	n/a
191.016	n/a	RESPONSE	n/a	n/a	1/2
191.92	n/a	RESPONSE	n/a	n/a	2/2
193.305	1.008	FIXCROSS	n/a	n/a	n/a
194.322	5.008	6_DOT_DETECTION	DBA#C	1	n/a
197.04	n/a	RESPONSE	n/a	n/a	1/1
199.355	1.008	FIXCROSS	n/a	n/a	n/a
200.372	5.008	6_DOT_DETECTION	KTIŁŁ	0	n/a
205.405	1.008	FIXCROSS	n/a	n/a	n/a
206.421	5.009	6_DOT_DETECTION	BLCLK	0	n/a
211.455	1.008	FIXCROSS	n/a	n/a	n/a
212.471	5.009	6_DOT_DETECTION	ESY##	2	n/a
215.68	n/a	RESPONSE	n/a	n/a	1/2
216.44	n/a	RESPONSE	n/a	n/a	2/2
217.505	1.008	FIXCROSS	n/a	n/a	n/a
218.521	5.009	6_DOT_DETECTION	STO#E	1	n/a
221.136	n/a	RESPONSE	n/a	n/a	1/1
225.563	2.008	CUE_REST	n/a	n/a	n/a
229.563	1.008	FIXCROSS	n/a	n/a	n/a
235.613	1.008	FIXCROSS	n/a	n/a	n/a
243.672	2.008	CUE_6_DOT	n/a	n/a	n/a
249.672	1.008	FIXCROSS	n/a	n/a	n/a
250.688	5.008	6_DOT_DETECTION	#ULE#	2	n/a
252.176	n/a	RESPONSE	n/a	n/a	1/2
254.92	n/a	RESPONSE	n/a	n/a	2/2
255.722	1.008	FIXCROSS	n/a	n/a	n/a
256.738	5.009	6_DOT_DETECTION	#SAD#	2	n/a
257.736	n/a	RESPONSE	n/a	n/a	1/2
260.12	n/a	RESPONSE	n/a	n/a	2/2
261.772	1.008	FIXCROSS	n/a	n/a	n/a
262.788	5.009	6_DOT_DETECTION	AŁDLK	0	n/a
267.822	1.008	FIXCROSS	n/a	n/a	n/a
268.838	5.009	6_DOT_DETECTION	##PYŁ	2	n/a
269.856	n/a	RESPONSE	n/a	n/a	1/2
271.28	n/a	RESPONSE	n/a	n/a	2/2
273.872	1.008	FIXCROSS	n/a	n/a	n/a
274.888	5.009	6_DOT_DETECTION	ŁPPTY	0	n/a
279.922	1.008	FIXCROSS	n/a	n/a	n/a
280.938	5.008	6_DOT_DETECTION	ŁY#SE	1	n/a
283.496	n/a	RESPONSE	n/a	n/a	1/1
285.972	1.008	FIXCROSS	n/a	n/a	n/a
286.988	5.008	6_DOT_DETECTION	CIKUE	0	n/a
292.022	1.008	FIXCROSS	n/a	n/a	n/a
293.038	5.008	6_DOT_DETECTION	P#ŁUY	1	n/a
294.816	n/a	RESPONSE	n/a	n/a	1/1
297.336	n/a	RESPONSE	n/a	n/a	2/1
299.08	2.008	CUE_REST	n/a	n/a	n/a
305.08	1.008	FIXCROSS	n/a	n/a	n/a
311.13	1.008	FIXCROSS	n/a	n/a	n/a
318.688	2.008	CUE_6_DOT	n/a	n/a	n/a
324.188	1.008	FIXCROSS	n/a	n/a	n/a
325.205	5.008	6_DOT_DETECTION	LLACB	0	n/a
330.238	1.008	FIXCROSS	n/a	n/a	n/a
331.255	5.008	6_DOT_DETECTION	OAICU	0	n/a
336.288	1.008	FIXCROSS	n/a	n/a	n/a
337.305	5.008	6_DOT_DETECTION	#MIS#	2	n/a
338.816	n/a	RESPONSE	n/a	n/a	1/2
341.36	n/a	RESPONSE	n/a	n/a	2/2
342.338	1.008	FIXCROSS	n/a	n/a	n/a
343.355	5.008	6_DOT_DETECTION	ŁCDCA	0	n/a
348.388	1.008	FIXCROSS	n/a	n/a	n/a
349.405	5.009	6_DOT_DETECTION	Y#LEK	1	n/a
351.336	n/a	RESPONSE	n/a	n/a	1/1
354.438	1.008	FIXCROSS	n/a	n/a	n/a
355.455	5.008	6_DOT_DETECTION	TAK#P	1	n/a
358.176	n/a	RESPONSE	n/a	n/a	1/1
360.489	1.008	FIXCROSS	n/a	n/a	n/a
361.505	5.009	6_DOT_DETECTION	LSC##	2	n/a
364.336	n/a	RESPONSE	n/a	n/a	1/2
365.216	n/a	RESPONSE	n/a	n/a	2/2
366.539	1.008	FIXCROSS	n/a	n/a	n/a
367.555	5.009	6_DOT_DETECTION	BSEBL	0	n/a
373.597	2.008	CUE_REST	n/a	n/a	n/a
380.597	1.008	FIXCROSS	n/a	n/a	n/a
386.647	1.008	FIXCROSS	n/a	n/a	n/a
393.705	2.008	CUE_6_DOT	n/a	n/a	n/a
398.705	1.008	FIXCROSS	n/a	n/a	n/a
399.721	5.009	6_DOT_DETECTION	#DAT#	2	n/a
401.376	n/a	RESPONSE	n/a	n/a	1/2
404.136	n/a	RESPONSE	n/a	n/a	2/2
404.755	1.008	FIXCROSS	n/a	n/a	n/a
405.772	5.008	6_DOT_DETECTION	YEAAK	0	n/a
410.805	1.008	FIXCROSS	n/a	n/a	n/a
411.821	5.009	6_DOT_DETECTION	##IEY	2	n/a
413.2	n/a	RESPONSE	n/a	n/a	1/2
414.4	n/a	RESPONSE	n/a	n/a	2/2
416.855	1.008	FIXCROSS	n/a	n/a	n/a
417.871	5.009	6_DOT_DETECTION	SOK#Ł	1	n/a
420.56	n/a	RESPONSE	n/a	n/a	1/1
422.905	1.008	FIXCROSS	n/a	n/a	n/a
423.921	5.009	6_DOT_DETECTION	##MAK	2	n/a
424.856	n/a	RESPONSE	n/a	n/a	1/2
425.856	n/a	RESPONSE	n/a	n/a	2/2
428.955	1.008	FIXCROSS	n/a	n/a	n/a
429.972	5.009	6_DOT_DETECTION	OYŁ#Ł	1	n/a
433.056	n/a	RESPONSE	n/a	n/a	1/1
435.005	1.008	FIXCROSS	n/a	n/a	n/a
436.021	5.009	6_DOT_DETECTION	##POP	2	n/a
437.096	n/a	RESPONSE	n/a	n/a	1/2
438.352	n/a	RESPONSE	n/a	n/a	2/2
441.055	1.008	FIXCROSS	n/a	n/a	n/a
442.072	5.009	6_DOT_DETECTION	ŁSCPT	0	n/a
