onset	duration	trial_type	melody_number	melody_part	key	sound	action
0.0	14.088	CUE_START	n/a	n/a	n/a	n/a	n/a
14.089	7.759	FIXCROSS	n/a	n/a	n/a	n/a	n/a
21.848	6.316	CUE_LISTEN	M1	1	n/a	n/a	n/a
28.164	7.758	FIXCROSS	n/a	n/a	n/a	n/a	n/a
35.922	6.317	CUE_PLAYBACK_RIGHT_HAND	M1	1	n/a	n/a	n/a
37.445	n/a	RESPONSE	M1	1	19	G4	press
37.938	n/a	RESPONSE	M1	1	16	E4	press
38.109	n/a	RESPONSE	M1	1	19	G4	release
38.209	n/a	RESPONSE	M1	1	16	E4	release
38.43	n/a	RESPONSE	M1	1	16	E4	press
38.912	n/a	RESPONSE	M1	1	17	F4	press
39.035	n/a	RESPONSE	M1	1	16	E4	release
39.404	n/a	RESPONSE	M1	1	14	D4	press
39.606	n/a	RESPONSE	M1	1	17	F4	release
39.666	n/a	RESPONSE	M1	1	14	D4	release
39.888	n/a	RESPONSE	M1	1	14	D4	press
40.429	n/a	RESPONSE	M1	1	12	C4	press
40.502	n/a	RESPONSE	M1	1	14	D4	release
40.722	n/a	RESPONSE	M1	1	16	E4	press
40.904	n/a	RESPONSE	M1	1	12	C4	release
41.034	n/a	RESPONSE	M1	1	19	G4	press
41.575	n/a	RESPONSE	M1	1	16	E4	release
41.696	n/a	RESPONSE	M1	1	19	G4	release
42.239	7.758	FIXCROSS	n/a	n/a	n/a	n/a	n/a
49.997	6.325	CUE_LISTEN	        M1	2	n/a	n/a	n/a
56.322	7.758	FIXCROSS	n/a	n/a	n/a	n/a	n/a
64.08	6.317	CUE_PLAYBACK_RIGHT_HAND	        M1	2	n/a	n/a	n/a
64.585	n/a	RESPONSE	        M1	2	19	G4	press
65.099	n/a	RESPONSE	        M1	2	16	E4	press
65.364	n/a	RESPONSE	        M1	2	16	E4	release
65.599	n/a	RESPONSE	        M1	2	16	E4	press
65.64	n/a	RESPONSE	        M1	2	19	G4	release
66.092	n/a	RESPONSE	        M1	2	17	F4	press
66.18	n/a	RESPONSE	        M1	2	16	E4	release
66.604	n/a	RESPONSE	        M1	2	14	D4	press
66.899	n/a	RESPONSE	        M1	2	14	D4	release
67.105	n/a	RESPONSE	        M1	2	14	D4	press
67.122	n/a	RESPONSE	        M1	2	17	F4	release
67.599	n/a	RESPONSE	        M1	2	12	C4	press
67.73	n/a	RESPONSE	        M1	2	14	D4	release
67.963	n/a	RESPONSE	        M1	2	16	E4	press
68.085	n/a	RESPONSE	        M1	2	12	C4	release
68.294	n/a	RESPONSE	        M1	2	12	C4	press
68.385	n/a	RESPONSE	        M1	2	16	E4	release
68.966	n/a	RESPONSE	        M1	2	12	C4	release
70.397	7.758	FIXCROSS	n/a	n/a	n/a	n/a	n/a
78.156	6.317	CUE_LISTEN	        M7	1	n/a	n/a	n/a
84.472	7.758	FIXCROSS	n/a	n/a	n/a	n/a	n/a
92.23	6.325	CUE_PLAYBACK_BOTH_HANDS	        M7	1	n/a	n/a	n/a
93.285	n/a	RESPONSE	        M7	1	07	G3	press
93.316	n/a	RESPONSE	        M7	1	22	A#4	press
93.903	n/a	RESPONSE	        M7	1	21	A4	press
94.1	n/a	RESPONSE	        M7	1	22	A#4	release
94.484	n/a	RESPONSE	        M7	1	19	G4	press
94.614	n/a	RESPONSE	        M7	1	21	A4	release
95.026	n/a	RESPONSE	        M7	1	05	F3	press
95.063	n/a	RESPONSE	        M7	1	21	A4	press
95.184	n/a	RESPONSE	        M7	1	19	G4	release
95.231	n/a	RESPONSE	        M7	1	07	G3	release
95.449	n/a	RESPONSE	        M7	1	23	B4	press
95.571	n/a	RESPONSE	        M7	1	21	A4	release
95.644	n/a	RESPONSE	        M7	1	23	B4	release
96.819	n/a	RESPONSE	        M7	1	14	D4	press
97.102	n/a	RESPONSE	        M7	1	14	D4	release
97.271	n/a	RESPONSE	        M7	1	14	D4	press
97.884	n/a	RESPONSE	        M7	1	19	G4	press
97.905	n/a	RESPONSE	        M7	1	03	D#3	press
97.986	n/a	RESPONSE	        M7	1	14	D4	release
98.048	n/a	RESPONSE	        M7	1	05	F3	release
98.556	7.758	FIXCROSS	n/a	n/a	n/a	n/a	n/a
98.879	n/a	RESPONSE	        M7	1	19	G4	release
99.232	n/a	RESPONSE	        M7	1	09	A3	press
99.781	n/a	RESPONSE	        M7	1	03	D#3	release
99.914	n/a	RESPONSE	        M7	1	09	A3	release
106.314	6.325	CUE_LISTEN	        M7	2	n/a	n/a	n/a
112.639	7.758	FIXCROSS	n/a	n/a	n/a	n/a	n/a
120.397	6.308	CUE_PLAYBACK_BOTH_HANDS	        M7	2	n/a	n/a	n/a
123.021	n/a	RESPONSE	        M7	2	16	E4	press
123.412	n/a	RESPONSE	        M7	2	17	F4	press
123.533	n/a	RESPONSE	        M7	2	16	E4	release
123.966	n/a	RESPONSE	        M7	2	16	E4	press
124.518	n/a	RESPONSE	        M7	2	17	F4	release
124.569	n/a	RESPONSE	        M7	2	16	E4	release
125.266	n/a	RESPONSE	        M7	2	17	F4	press
125.732	n/a	RESPONSE	        M7	2	19	G4	press
125.843	n/a	RESPONSE	        M7	2	17	F4	release
126.043	n/a	RESPONSE	        M7	2	17	F4	press
126.486	n/a	RESPONSE	        M7	2	15	D#4	press
126.52	n/a	RESPONSE	        M7	2	19	G4	release
126.608	n/a	RESPONSE	        M7	2	17	F4	release
126.706	7.758	FIXCROSS	n/a	n/a	n/a	n/a	n/a
126.854	n/a	RESPONSE	        M7	2	17	F4	press
126.998	n/a	RESPONSE	        M7	2	15	D#4	release
127.708	n/a	RESPONSE	        M7	2	17	F4	release
134.464	6.325	CUE_LISTEN	        M5	1	n/a	n/a	n/a
140.789	7.758	FIXCROSS	n/a	n/a	n/a	n/a	n/a
148.547	6.317	CUE_PLAYBACK_RIGHT_HAND	        M5	1	n/a	n/a	n/a
149.342	n/a	RESPONSE	        M5	1	21	A4	press
149.533	n/a	RESPONSE	        M5	1	21	A4	release
149.674	n/a	RESPONSE	        M5	1	21	A4	press
149.818	n/a	RESPONSE	        M5	1	21	A4	release
149.966	n/a	RESPONSE	        M5	1	21	A4	press
150.428	n/a	RESPONSE	        M5	1	21	A4	release
150.609	n/a	RESPONSE	        M5	1	21	A4	press
150.81	n/a	RESPONSE	        M5	1	21	A4	release
150.961	n/a	RESPONSE	        M5	1	21	A4	press
151.163	n/a	RESPONSE	        M5	1	21	A4	release
151.295	n/a	RESPONSE	        M5	1	21	A4	press
151.675	n/a	RESPONSE	        M5	1	21	A4	release
151.856	n/a	RESPONSE	        M5	1	21	A4	press
152.179	n/a	RESPONSE	        M5	1	24	C5	press
152.31	n/a	RESPONSE	        M5	1	21	A4	release
152.591	n/a	RESPONSE	        M5	1	17	F4	press
152.924	n/a	RESPONSE	        M5	1	19	G4	press
153.043	n/a	RESPONSE	        M5	1	17	F4	release
153.294	n/a	RESPONSE	        M5	1	21	A4	press
153.345	n/a	RESPONSE	        M5	1	24	C5	release
153.863	n/a	RESPONSE	        M5	1	19	G4	release
154.132	n/a	RESPONSE	        M5	1	21	A4	release
154.864	7.758	FIXCROSS	n/a	n/a	n/a	n/a	n/a
162.622	6.317	CUE_LISTEN	        M5	2	n/a	n/a	n/a
168.939	7.758	FIXCROSS	n/a	n/a	n/a	n/a	n/a
176.697	6.325	CUE_PLAYBACK_RIGHT_HAND	        M5	2	n/a	n/a	n/a
177.664	n/a	RESPONSE	        M5	2	22	A#4	press
177.945	n/a	RESPONSE	        M5	2	22	A#4	release
178.066	n/a	RESPONSE	        M5	2	22	A#4	press
178.358	n/a	RESPONSE	        M5	2	22	A#4	release
178.509	n/a	RESPONSE	        M5	2	22	A#4	press
178.79	n/a	RESPONSE	        M5	2	22	A#4	release
178.923	n/a	RESPONSE	        M5	2	22	A#4	press
179.183	n/a	RESPONSE	        M5	2	22	A#4	release
179.354	n/a	RESPONSE	        M5	2	22	A#4	press
179.825	n/a	RESPONSE	        M5	2	21	A4	press
180.076	n/a	RESPONSE	        M5	2	22	A#4	release
180.088	n/a	RESPONSE	        M5	2	21	A4	release
180.25	n/a	RESPONSE	        M5	2	21	A4	press
180.501	n/a	RESPONSE	        M5	2	21	A4	release
180.681	n/a	RESPONSE	        M5	2	21	A4	press
181.075	n/a	RESPONSE	        M5	2	19	G4	press
181.224	n/a	RESPONSE	        M5	2	21	A4	release
181.325	n/a	RESPONSE	        M5	2	19	G4	release
181.478	n/a	RESPONSE	        M5	2	19	G4	press
181.848	n/a	RESPONSE	        M5	2	21	A4	press
181.959	n/a	RESPONSE	        M5	2	19	G4	release
182.243	n/a	RESPONSE	        M5	2	19	G4	press
182.703	n/a	RESPONSE	        M5	2	24	C5	press
182.813	n/a	RESPONSE	        M5	2	21	A4	release
182.854	n/a	RESPONSE	        M5	2	19	G4	release
183.022	7.758	FIXCROSS	n/a	n/a	n/a	n/a	n/a
183.698	n/a	RESPONSE	        M5	2	24	C5	release
190.781	6.317	CUE_LISTEN	        M3	1	n/a	n/a	n/a
197.097	7.758	FIXCROSS	n/a	n/a	n/a	n/a	n/a
204.856	6.317	CUE_PLAYBACK_BOTH_HANDS	        M3	1	n/a	n/a	n/a
205.438	n/a	RESPONSE	        M3	1	00	C3	press
205.483	n/a	RESPONSE	        M3	1	12	C4	press
205.85	n/a	RESPONSE	        M3	1	07	G3	press
205.874	n/a	RESPONSE	        M3	1	14	D4	press
205.995	n/a	RESPONSE	        M3	1	12	C4	release
206.016	n/a	RESPONSE	        M3	1	00	C3	release
206.278	n/a	RESPONSE	        M3	1	04	E3	press
206.304	n/a	RESPONSE	        M3	1	16	E4	press
206.415	n/a	RESPONSE	        M3	1	07	G3	release
206.433	n/a	RESPONSE	        M3	1	14	D4	release
206.685	n/a	RESPONSE	        M3	1	07	G3	press
206.708	n/a	RESPONSE	        M3	1	12	C4	press
206.865	n/a	RESPONSE	        M3	1	04	E3	release
206.941	n/a	RESPONSE	        M3	1	16	E4	release
206.95	n/a	RESPONSE	        M3	1	12	C4	release
207.106	n/a	RESPONSE	        M3	1	00	C3	press
207.146	n/a	RESPONSE	        M3	1	12	C4	press
207.221	n/a	RESPONSE	        M3	1	07	G3	release
207.53	n/a	RESPONSE	        M3	1	07	G3	press
207.561	n/a	RESPONSE	        M3	1	14	D4	press
207.695	n/a	RESPONSE	        M3	1	00	C3	release
207.745	n/a	RESPONSE	        M3	1	12	C4	release
207.958	n/a	RESPONSE	        M3	1	04	E3	press
207.998	n/a	RESPONSE	        M3	1	16	E4	press
208.079	n/a	RESPONSE	        M3	1	07	G3	release
208.18	n/a	RESPONSE	        M3	1	14	D4	release
208.391	n/a	RESPONSE	        M3	1	07	G3	press
208.413	n/a	RESPONSE	        M3	1	12	C4	press
208.554	n/a	RESPONSE	        M3	1	04	E3	release
208.575	n/a	RESPONSE	        M3	1	16	E4	release
208.816	n/a	RESPONSE	        M3	1	00	C3	press
208.858	n/a	RESPONSE	        M3	1	16	E4	press
208.909	n/a	RESPONSE	        M3	1	07	G3	release
208.96	n/a	RESPONSE	        M3	1	12	C4	release
209.261	n/a	RESPONSE	        M3	1	07	G3	press
209.273	n/a	RESPONSE	        M3	1	17	F4	press
209.394	n/a	RESPONSE	        M3	1	00	C3	release
209.405	n/a	RESPONSE	        M3	1	16	E4	release
209.696	n/a	RESPONSE	        M3	1	04	E3	press
209.758	n/a	RESPONSE	        M3	1	19	G4	press
209.789	n/a	RESPONSE	        M3	1	07	G3	release
209.97	n/a	RESPONSE	        M3	1	17	F4	release
210.151	n/a	RESPONSE	        M3	1	07	G3	press
210.263	n/a	RESPONSE	        M3	1	04	E3	release
210.565	n/a	RESPONSE	        M3	1	00	C3	press
210.605	n/a	RESPONSE	        M3	1	16	E4	press
210.656	n/a	RESPONSE	        M3	1	07	G3	release
210.758	n/a	RESPONSE	        M3	1	19	G4	release
211.029	n/a	RESPONSE	        M3	1	17	F4	press
211.04	n/a	RESPONSE	        M3	1	07	G3	press
211.172	7.758	FIXCROSS	n/a	n/a	n/a	n/a	n/a
211.173	n/a	RESPONSE	        M3	1	00	C3	release
211.433	n/a	RESPONSE	        M3	1	04	E3	press
211.484	n/a	RESPONSE	        M3	1	19	G4	press
211.536	n/a	RESPONSE	        M3	1	07	G3	release
211.688	n/a	RESPONSE	        M3	1	16	E4	release
211.878	n/a	RESPONSE	        M3	1	07	G3	press
211.939	n/a	RESPONSE	        M3	1	17	F4	release
212.013	n/a	RESPONSE	        M3	1	04	E3	release
212.133	n/a	RESPONSE	        M3	1	19	G4	release
212.203	n/a	RESPONSE	        M3	1	07	G3	release
218.931	6.325	CUE_LISTEN	        M3	2	n/a	n/a	n/a
225.256	7.758	FIXCROSS	n/a	n/a	n/a	n/a	n/a
233.014	6.317	CUE_PLAYBACK_BOTH_HANDS	        M3	2	n/a	n/a	n/a
233.496	n/a	RESPONSE	        M3	2	19	G4	press
233.499	n/a	RESPONSE	        M3	2	00	C3	press
233.793	n/a	RESPONSE	        M3	2	21	A4	press
233.923	n/a	RESPONSE	        M3	2	19	G4	release
234.073	n/a	RESPONSE	        M3	2	07	G3	press
234.103	n/a	RESPONSE	        M3	2	19	G4	press
234.398	n/a	RESPONSE	        M3	2	17	F4	press
234.708	n/a	RESPONSE	        M3	2	04	E3	press
234.735	n/a	RESPONSE	        M3	2	00	C3	release
234.745	n/a	RESPONSE	        M3	2	16	E4	press
234.765	n/a	RESPONSE	        M3	2	07	G3	release
235.253	n/a	RESPONSE	        M3	2	07	G3	press
235.299	n/a	RESPONSE	        M3	2	19	G4	release
235.319	n/a	RESPONSE	        M3	2	12	C4	press
235.376	n/a	RESPONSE	        M3	2	17	F4	release
235.408	n/a	RESPONSE	        M3	2	21	A4	release
235.414	n/a	RESPONSE	        M3	2	04	E3	release
235.49	n/a	RESPONSE	        M3	2	16	E4	release
235.833	n/a	RESPONSE	        M3	2	00	C3	press
235.855	n/a	RESPONSE	        M3	2	19	G4	press
235.97	n/a	RESPONSE	        M3	2	12	C4	release
235.973	n/a	RESPONSE	        M3	2	07	G3	release
236.071	n/a	RESPONSE	        M3	2	21	A4	press
236.204	n/a	RESPONSE	        M3	2	19	G4	release
236.339	n/a	RESPONSE	        M3	2	07	G3	press
236.378	n/a	RESPONSE	        M3	2	19	G4	press
236.55	n/a	RESPONSE	        M3	2	00	C3	release
236.686	n/a	RESPONSE	        M3	2	17	F4	press
236.898	n/a	RESPONSE	        M3	2	04	E3	press
236.954	n/a	RESPONSE	        M3	2	16	E4	press
237.003	n/a	RESPONSE	        M3	2	07	G3	release
237.423	n/a	RESPONSE	        M3	2	07	G3	press
237.456	n/a	RESPONSE	        M3	2	12	C4	press
237.605	n/a	RESPONSE	        M3	2	17	F4	release
237.608	n/a	RESPONSE	        M3	2	04	E3	release
237.728	n/a	RESPONSE	        M3	2	19	G4	release
237.819	n/a	RESPONSE	        M3	2	12	C4	release
237.943	n/a	RESPONSE	        M3	2	07	G3	release
237.951	n/a	RESPONSE	        M3	2	00	C3	press
238.023	n/a	RESPONSE	        M3	2	12	C4	press
238.444	n/a	RESPONSE	        M3	2	07	G3	press
238.556	n/a	RESPONSE	        M3	2	00	C3	release
238.669	n/a	RESPONSE	        M3	2	12	C4	release
238.858	n/a	RESPONSE	        M3	2	00	C3	press
238.899	n/a	RESPONSE	        M3	2	12	C4	press
238.943	n/a	RESPONSE	        M3	2	07	G3	release
239.331	7.758	FIXCROSS	n/a	n/a	n/a	n/a	n/a
239.441	n/a	RESPONSE	        M3	2	12	C4	release
239.473	n/a	RESPONSE	        M3	2	00	C3	release
240.076	n/a	RESPONSE	        M3	2	16	E4	release
240.186	n/a	RESPONSE	        M3	2	21	A4	release
247.089	6.325	CUE_LISTEN	        M6	1	n/a	n/a	n/a
253.414	7.758	FIXCROSS	n/a	n/a	n/a	n/a	n/a
261.172	6.317	CUE_PLAYBACK_BOTH_HANDS	        M6	1	n/a	n/a	n/a
261.668	n/a	RESPONSE	        M6	1	05	F3	press
261.681	n/a	RESPONSE	        M6	1	04	E3	press
261.69	n/a	RESPONSE	        M6	1	14	D4	press
261.841	n/a	RESPONSE	        M6	1	04	E3	release
262.394	n/a	RESPONSE	        M6	1	19	G4	press
262.414	n/a	RESPONSE	        M6	1	11	B3	press
262.545	n/a	RESPONSE	        M6	1	14	D4	release
262.606	n/a	RESPONSE	        M6	1	18	F#4	press
262.68	n/a	RESPONSE	        M6	1	19	G4	release
262.699	n/a	RESPONSE	        M6	1	05	F3	release
262.84	n/a	RESPONSE	        M6	1	19	G4	press
262.921	n/a	RESPONSE	        M6	1	19	G4	release
262.924	n/a	RESPONSE	        M6	1	07	G3	press
263.274	n/a	RESPONSE	        M6	1	18	F#4	release
263.318	n/a	RESPONSE	        M6	1	19	G4	press
263.376	n/a	RESPONSE	        M6	1	11	B3	release
263.38	n/a	RESPONSE	        M6	1	07	G3	release
264.579	n/a	RESPONSE	        M6	1	04	E3	press
264.593	n/a	RESPONSE	        M6	1	14	D4	press
264.613	n/a	RESPONSE	        M6	1	23	B4	press
264.819	n/a	RESPONSE	        M6	1	24	C5	press
264.871	n/a	RESPONSE	        M6	1	23	B4	release
264.936	n/a	RESPONSE	        M6	1	19	G4	release
265.106	n/a	RESPONSE	        M6	1	23	B4	press
265.762	n/a	RESPONSE	        M6	1	23	B4	release
265.819	n/a	RESPONSE	        M6	1	24	C5	release
265.901	n/a	RESPONSE	        M6	1	14	D4	release
265.931	n/a	RESPONSE	        M6	1	04	E3	release
266.029	n/a	RESPONSE	        M6	1	04	E3	press
266.048	n/a	RESPONSE	        M6	1	14	D4	press
266.54	n/a	RESPONSE	        M6	1	11	B3	press
266.549	n/a	RESPONSE	        M6	1	19	G4	press
266.674	n/a	RESPONSE	        M6	1	14	D4	release
266.764	n/a	RESPONSE	        M6	1	18	F#4	press
266.78	n/a	RESPONSE	        M6	1	04	E3	release
266.833	n/a	RESPONSE	        M6	1	19	G4	release
266.993	n/a	RESPONSE	        M6	1	19	G4	press
267.011	n/a	RESPONSE	        M6	1	14	D4	press
267.096	n/a	RESPONSE	        M6	1	11	B3	release
267.438	n/a	RESPONSE	        M6	1	07	G3	press
267.46	n/a	RESPONSE	        M6	1	23	B4	press
267.489	7.758	FIXCROSS	n/a	n/a	n/a	n/a	n/a
267.54	n/a	RESPONSE	        M6	1	18	F#4	release
267.581	n/a	RESPONSE	        M6	1	14	D4	release
267.743	n/a	RESPONSE	        M6	1	24	C5	press
267.826	n/a	RESPONSE	        M6	1	23	B4	release
267.886	n/a	RESPONSE	        M6	1	07	G3	release
267.916	n/a	RESPONSE	        M6	1	19	G4	release
268.178	n/a	RESPONSE	        M6	1	24	C5	release
275.248	6.317	CUE_LISTEN	        M6	2	n/a	n/a	n/a
281.564	7.758	FIXCROSS	n/a	n/a	n/a	n/a	n/a
283.271	n/a	RESPONSE	        M6	2	04	E3	press
286.074	n/a	RESPONSE	        M6	2	04	E3	release
289.323	6.317	CUE_PLAYBACK_BOTH_HANDS	        M6	2	n/a	n/a	n/a
290.474	n/a	RESPONSE	        M6	2	04	E3	press
290.485	n/a	RESPONSE	        M6	2	23	B4	press
290.508	n/a	RESPONSE	        M6	2	16	E4	press
290.97	n/a	RESPONSE	        M6	2	07	G3	press
291.109	n/a	RESPONSE	        M6	2	16	E4	release
291.38	n/a	RESPONSE	        M6	2	16	E4	press
291.813	n/a	RESPONSE	        M6	2	12	C4	press
291.823	n/a	RESPONSE	        M6	2	19	G4	press
291.914	n/a	RESPONSE	        M6	2	07	G3	release
291.925	n/a	RESPONSE	        M6	2	16	E4	release
291.976	n/a	RESPONSE	        M6	2	04	E3	release
292.26	n/a	RESPONSE	        M6	2	16	E4	press
292.269	n/a	RESPONSE	        M6	2	04	E3	press
292.36	n/a	RESPONSE	        M6	2	12	C4	release
292.704	n/a	RESPONSE	        M6	2	12	C4	press
292.863	n/a	RESPONSE	        M6	2	16	E4	release
293.105	n/a	RESPONSE	        M6	2	16	E4	press
293.155	n/a	RESPONSE	        M6	2	07	G3	press
293.226	n/a	RESPONSE	        M6	2	12	C4	release
293.508	n/a	RESPONSE	        M6	2	12	C4	press
293.684	n/a	RESPONSE	        M6	2	07	G3	release
293.703	n/a	RESPONSE	        M6	2	16	E4	release
293.788	n/a	RESPONSE	        M6	2	04	E3	release
293.831	n/a	RESPONSE	        M6	2	23	B4	release
294.19	n/a	RESPONSE	        M6	2	12	C4	release
294.523	n/a	RESPONSE	        M6	2	14	D4	press
294.528	n/a	RESPONSE	        M6	2	02	D3	press
294.531	n/a	RESPONSE	        M6	2	19	G4	release
294.54	n/a	RESPONSE	        M6	2	23	B4	press
294.99	n/a	RESPONSE	        M6	2	12	C4	press
295.073	n/a	RESPONSE	        M6	2	11	B3	press
295.076	n/a	RESPONSE	        M6	2	02	D3	release
295.254	n/a	RESPONSE	        M6	2	14	D4	release
295.424	n/a	RESPONSE	        M6	2	07	G3	press
295.436	n/a	RESPONSE	        M6	2	14	D4	press
295.446	n/a	RESPONSE	        M6	2	11	B3	release
295.5	n/a	RESPONSE	        M6	2	12	C4	release
295.639	7.758	FIXCROSS	n/a	n/a	n/a	n/a	n/a
295.868	n/a	RESPONSE	        M6	2	19	G4	press
295.876	n/a	RESPONSE	        M6	2	12	C4	press
295.97	n/a	RESPONSE	        M6	2	07	G3	release
296.068	n/a	RESPONSE	        M6	2	14	D4	release
296.508	n/a	RESPONSE	        M6	2	23	B4	release
296.74	n/a	RESPONSE	        M6	2	12	C4	release
297.004	n/a	RESPONSE	        M6	2	19	G4	release
303.398	6.325	CUE_LISTEN	        M2	1	n/a	n/a	n/a
309.723	7.758	FIXCROSS	n/a	n/a	n/a	n/a	n/a
317.481	6.317	CUE_PLAYBACK_RIGHT_HAND	        M2	1	n/a	n/a	n/a
318.039	n/a	RESPONSE	        M2	1	24	C5	press
318.42	n/a	RESPONSE	        M2	1	19	G4	press
318.631	n/a	RESPONSE	        M2	1	19	G4	release
318.793	n/a	RESPONSE	        M2	1	19	G4	press
319.164	n/a	RESPONSE	        M2	1	17	F4	press
319.545	n/a	RESPONSE	        M2	1	19	G4	release
319.626	n/a	RESPONSE	        M2	1	16	E4	press
319.729	n/a	RESPONSE	        M2	1	24	C5	release
319.731	n/a	RESPONSE	        M2	1	17	F4	release
319.963	n/a	RESPONSE	        M2	1	17	F4	press
320.101	n/a	RESPONSE	        M2	1	16	E4	release
320.333	n/a	RESPONSE	        M2	1	19	G4	press
320.724	n/a	RESPONSE	        M2	1	17	F4	release
320.825	n/a	RESPONSE	        M2	1	19	G4	release
320.906	n/a	RESPONSE	        M2	1	24	C5	press
321.258	n/a	RESPONSE	        M2	1	19	G4	press
321.439	n/a	RESPONSE	        M2	1	19	G4	release
321.47	n/a	RESPONSE	        M2	1	24	C5	release
321.651	n/a	RESPONSE	        M2	1	19	G4	press
321.975	n/a	RESPONSE	        M2	1	17	F4	press
322.114	n/a	RESPONSE	        M2	1	19	G4	release
322.525	n/a	RESPONSE	        M2	1	16	E4	press
322.858	n/a	RESPONSE	        M2	1	17	F4	release
323.088	n/a	RESPONSE	        M2	1	14	D4	press
323.189	n/a	RESPONSE	        M2	1	16	E4	release
323.62	n/a	RESPONSE	        M2	1	12	C4	press
323.798	7.758	FIXCROSS	n/a	n/a	n/a	n/a	n/a
323.991	n/a	RESPONSE	        M2	1	14	D4	release
324.165	n/a	RESPONSE	        M2	1	12	C4	release
331.556	6.325	CUE_LISTEN	        M2	2	n/a	n/a	n/a
337.881	7.758	FIXCROSS	n/a	n/a	n/a	n/a	n/a
345.639	6.317	CUE_PLAYBACK_RIGHT_HAND	        M2	2	n/a	n/a	n/a
346.102	n/a	RESPONSE	        M2	2	12	C4	press
346.526	n/a	RESPONSE	        M2	2	14	D4	press
346.956	n/a	RESPONSE	        M2	2	12	C4	release
346.959	n/a	RESPONSE	        M2	2	16	E4	press
347.083	n/a	RESPONSE	        M2	2	14	D4	release
347.42	n/a	RESPONSE	        M2	2	14	D4	press
347.53	n/a	RESPONSE	        M2	2	16	E4	release
347.824	n/a	RESPONSE	        M2	2	16	E4	press
348.214	n/a	RESPONSE	        M2	2	17	F4	press
348.635	n/a	RESPONSE	        M2	2	19	G4	press
348.756	n/a	RESPONSE	        M2	2	14	D4	release
348.83	n/a	RESPONSE	        M2	2	16	E4	release
348.919	n/a	RESPONSE	        M2	2	17	F4	release
349.24	n/a	RESPONSE	        M2	2	16	E4	press
349.292	n/a	RESPONSE	        M2	2	19	G4	release
349.604	n/a	RESPONSE	        M2	2	19	G4	press
349.864	n/a	RESPONSE	        M2	2	19	G4	release
349.918	n/a	RESPONSE	        M2	2	16	E4	release
349.989	n/a	RESPONSE	        M2	2	19	G4	press
350.388	n/a	RESPONSE	        M2	2	17	F4	press
350.729	n/a	RESPONSE	        M2	2	16	E4	press
351.103	n/a	RESPONSE	        M2	2	14	D4	press
351.524	n/a	RESPONSE	        M2	2	12	C4	press
351.584	n/a	RESPONSE	        M2	2	19	G4	release
351.608	n/a	RESPONSE	        M2	2	17	F4	release
351.666	n/a	RESPONSE	        M2	2	16	E4	release
351.688	n/a	RESPONSE	        M2	2	14	D4	release
351.956	7.758	FIXCROSS	n/a	n/a	n/a	n/a	n/a
352.309	n/a	RESPONSE	        M2	2	12	C4	release
359.714	6.317	CUE_LISTEN	        M8	1	n/a	n/a	n/a
366.031	7.758	FIXCROSS	n/a	n/a	n/a	n/a	n/a
373.789	6.325	CUE_PLAYBACK_RIGHT_HAND	        M8	1	n/a	n/a	n/a
374.416	n/a	RESPONSE	        M8	1	16	E4	press
374.68	n/a	RESPONSE	        M8	1	19	G4	press
374.929	n/a	RESPONSE	        M8	1	23	B4	press
375.164	n/a	RESPONSE	        M8	1	19	G4	release
375.209	n/a	RESPONSE	        M8	1	23	B4	release
375.238	n/a	RESPONSE	        M8	1	16	E4	release
375.322	n/a	RESPONSE	        M8	1	23	B4	press
375.774	n/a	RESPONSE	        M8	1	18	F#4	press
375.908	n/a	RESPONSE	        M8	1	23	B4	release
376.202	n/a	RESPONSE	        M8	1	21	A4	press
376.476	n/a	RESPONSE	        M8	1	18	F#4	release
376.701	n/a	RESPONSE	        M8	1	23	B4	press
376.791	n/a	RESPONSE	        M8	1	21	A4	release
377.101	n/a	RESPONSE	        M8	1	21	A4	press
377.381	n/a	RESPONSE	        M8	1	19	G4	press
377.645	n/a	RESPONSE	        M8	1	18	F#4	press
377.864	n/a	RESPONSE	        M8	1	21	A4	release
377.875	n/a	RESPONSE	        M8	1	23	B4	release
377.906	n/a	RESPONSE	        M8	1	16	E4	press
378.028	n/a	RESPONSE	        M8	1	19	G4	release
378.109	n/a	RESPONSE	        M8	1	18	F#4	release
378.32	n/a	RESPONSE	        M8	1	23	B4	press
378.561	n/a	RESPONSE	        M8	1	16	E4	release
378.983	n/a	RESPONSE	        M8	1	23	B4	release
380.114	7.758	FIXCROSS	n/a	n/a	n/a	n/a	n/a
387.873	6.317	CUE_LISTEN	        M8	2	n/a	n/a	n/a
394.189	7.758	FIXCROSS	n/a	n/a	n/a	n/a	n/a
394.683	n/a	RESPONSE	        M8	2	16	E4	press
394.951	n/a	RESPONSE	        M8	2	16	E4	release
401.948	6.317	CUE_PLAYBACK_RIGHT_HAND	        M8	2	n/a	n/a	n/a
402.551	n/a	RESPONSE	        M8	2	16	E4	press
402.86	n/a	RESPONSE	        M8	2	19	G4	press
403.141	n/a	RESPONSE	        M8	2	23	B4	press
403.462	n/a	RESPONSE	        M8	2	23	B4	release
403.504	n/a	RESPONSE	        M8	2	19	G4	release
403.635	n/a	RESPONSE	        M8	2	23	B4	press
403.679	n/a	RESPONSE	        M8	2	16	E4	release
404.096	n/a	RESPONSE	        M8	2	18	F#4	press
404.221	n/a	RESPONSE	        M8	2	23	B4	release
404.58	n/a	RESPONSE	        M8	2	21	A4	press
404.706	n/a	RESPONSE	        M8	2	18	F#4	release
405.108	n/a	RESPONSE	        M8	2	23	B4	press
405.214	n/a	RESPONSE	        M8	2	21	A4	release
405.534	n/a	RESPONSE	        M8	2	21	A4	press
405.844	n/a	RESPONSE	        M8	2	19	G4	press
406.16	n/a	RESPONSE	        M8	2	18	F#4	press
406.266	n/a	RESPONSE	        M8	2	21	A4	release
406.272	n/a	RESPONSE	        M8	2	19	G4	release
406.328	n/a	RESPONSE	        M8	2	23	B4	release
406.464	n/a	RESPONSE	        M8	2	19	G4	press
406.675	n/a	RESPONSE	        M8	2	18	F#4	release
407.058	n/a	RESPONSE	        M8	2	16	E4	press
407.609	n/a	RESPONSE	        M8	2	19	G4	release
408.129	n/a	RESPONSE	        M8	2	16	E4	release
408.264	7.758	FIXCROSS	n/a	n/a	n/a	n/a	n/a
416.023	6.325	CUE_LISTEN	        M4	1	n/a	n/a	n/a
422.348	7.758	FIXCROSS	n/a	n/a	n/a	n/a	n/a
430.106	6.317	CUE_PLAYBACK_BOTH_HANDS	        M4	1	n/a	n/a	n/a
430.761	n/a	RESPONSE	        M4	1	09	A3	press
430.771	n/a	RESPONSE	        M4	1	05	F3	press
430.792	n/a	RESPONSE	        M4	1	12	C4	press
431.124	n/a	RESPONSE	        M4	1	17	F4	press
431.455	n/a	RESPONSE	        M4	1	21	A4	press
431.606	n/a	RESPONSE	        M4	1	17	F4	release
431.818	n/a	RESPONSE	        M4	1	19	G4	press
432.139	n/a	RESPONSE	        M4	1	17	F4	press
432.49	n/a	RESPONSE	        M4	1	16	E4	press
432.611	n/a	RESPONSE	        M4	1	19	G4	release
432.622	n/a	RESPONSE	        M4	1	17	F4	release
432.714	n/a	RESPONSE	        M4	1	21	A4	release
432.858	n/a	RESPONSE	        M4	1	17	F4	press
433.126	n/a	RESPONSE	        M4	1	12	C4	release
433.138	n/a	RESPONSE	        M4	1	16	E4	release
433.191	n/a	RESPONSE	        M4	1	05	F3	release
433.25	n/a	RESPONSE	        M4	1	09	A3	release
433.481	n/a	RESPONSE	        M4	1	05	F3	press
433.484	n/a	RESPONSE	        M4	1	09	A3	press
433.494	n/a	RESPONSE	        M4	1	12	C4	press
433.515	n/a	RESPONSE	        M4	1	17	F4	release
433.816	n/a	RESPONSE	        M4	1	17	F4	press
434.141	n/a	RESPONSE	        M4	1	21	A4	press
434.281	n/a	RESPONSE	        M4	1	17	F4	release
434.456	n/a	RESPONSE	        M4	1	19	G4	press
434.786	n/a	RESPONSE	        M4	1	17	F4	press
435.111	n/a	RESPONSE	        M4	1	16	E4	press
435.244	n/a	RESPONSE	        M4	1	19	G4	release
435.269	n/a	RESPONSE	        M4	1	17	F4	release
435.295	n/a	RESPONSE	        M4	1	21	A4	release
435.432	n/a	RESPONSE	        M4	1	17	F4	press
435.711	n/a	RESPONSE	        M4	1	16	E4	release
436.126	n/a	RESPONSE	        M4	1	05	F3	release
436.129	n/a	RESPONSE	        M4	1	17	F4	release
436.139	n/a	RESPONSE	        M4	1	12	C4	release
436.416	n/a	RESPONSE	        M4	1	09	A3	release
436.423	7.758	FIXCROSS	n/a	n/a	n/a	n/a	n/a
444.181	6.317	CUE_LISTEN	        M4	2	n/a	n/a	n/a
450.498	7.758	FIXCROSS	n/a	n/a	n/a	n/a	n/a
458.256	6.325	CUE_PLAYBACK_BOTH_HANDS	        M4	2	n/a	n/a	n/a
459.048	n/a	RESPONSE	        M4	2	09	A3	press
459.07	n/a	RESPONSE	        M4	2	05	F3	press
459.09	n/a	RESPONSE	        M4	2	12	C4	press
459.59	n/a	RESPONSE	        M4	2	17	F4	press
460.251	n/a	RESPONSE	        M4	2	21	A4	press
460.342	n/a	RESPONSE	        M4	2	17	F4	release
460.876	n/a	RESPONSE	        M4	2	24	C5	press
460.955	n/a	RESPONSE	        M4	2	21	A4	release
461.076	n/a	RESPONSE	        M4	2	05	F3	release
461.138	n/a	RESPONSE	        M4	2	09	A3	release
461.14	n/a	RESPONSE	        M4	2	12	C4	release
461.51	n/a	RESPONSE	        M4	2	04	E3	press
461.521	n/a	RESPONSE	        M4	2	22	A#4	press
461.552	n/a	RESPONSE	        M4	2	07	G3	press
461.574	n/a	RESPONSE	        M4	2	24	C5	release
461.595	n/a	RESPONSE	        M4	2	12	C4	press
461.996	n/a	RESPONSE	        M4	2	21	A4	press
462.048	n/a	RESPONSE	        M4	2	22	A#4	release
462.369	n/a	RESPONSE	        M4	2	19	G4	press
462.56	n/a	RESPONSE	        M4	2	21	A4	release
462.781	n/a	RESPONSE	        M4	2	19	G4	release
463.133	n/a	RESPONSE	        M4	2	12	C4	release
463.256	n/a	RESPONSE	        M4	2	04	E3	release
463.396	n/a	RESPONSE	        M4	2	04	E3	press
463.408	n/a	RESPONSE	        M4	2	12	C4	press
463.986	n/a	RESPONSE	        M4	2	16	E4	press
464.551	n/a	RESPONSE	        M4	2	19	G4	press
464.581	7.758	FIXCROSS	n/a	n/a	n/a	n/a	n/a
464.671	n/a	RESPONSE	        M4	2	16	E4	release
465.076	n/a	RESPONSE	        M4	2	22	A#4	press
465.191	n/a	RESPONSE	        M4	2	04	E3	release
465.242	n/a	RESPONSE	        M4	2	07	G3	release
465.245	n/a	RESPONSE	        M4	2	19	G4	release
465.329	n/a	RESPONSE	        M4	2	12	C4	release
465.714	n/a	RESPONSE	        M4	2	21	A4	press
465.724	n/a	RESPONSE	        M4	2	05	F3	press
465.739	n/a	RESPONSE	        M4	2	09	A3	press
466.184	n/a	RESPONSE	        M4	2	19	G4	press
466.24	n/a	RESPONSE	        M4	2	22	A#4	release
466.616	n/a	RESPONSE	        M4	2	21	A4	release
466.619	n/a	RESPONSE	        M4	2	17	F4	press
466.81	n/a	RESPONSE	        M4	2	19	G4	release
466.912	n/a	RESPONSE	        M4	2	05	F3	release
466.981	n/a	RESPONSE	        M4	2	17	F4	release
466.984	n/a	RESPONSE	        M4	2	09	A3	release
472.34	6.317	CUE_LISTEN	        M3	1	n/a	n/a	n/a
478.656	7.758	FIXCROSS	n/a	n/a	n/a	n/a	n/a
486.415	6.325	CUE_PLAYBACK_RIGHT_HAND	        M3	1	n/a	n/a	n/a
487.071	n/a	RESPONSE	        M3	1	12	C4	press
487.478	n/a	RESPONSE	        M3	1	14	D4	press
487.889	n/a	RESPONSE	        M3	1	16	E4	press
487.9	n/a	RESPONSE	        M3	1	12	C4	release
488.081	n/a	RESPONSE	        M3	1	14	D4	release
488.264	n/a	RESPONSE	        M3	1	12	C4	press
488.514	n/a	RESPONSE	        M3	1	12	C4	release
488.685	n/a	RESPONSE	        M3	1	12	C4	press
488.696	n/a	RESPONSE	        M3	1	16	E4	release
489.088	n/a	RESPONSE	        M3	1	14	D4	press
489.469	n/a	RESPONSE	        M3	1	12	C4	release
489.471	n/a	RESPONSE	        M3	1	16	E4	press
489.711	n/a	RESPONSE	        M3	1	14	D4	release
489.872	n/a	RESPONSE	        M3	1	12	C4	press
490.004	n/a	RESPONSE	        M3	1	16	E4	release
490.245	n/a	RESPONSE	        M3	1	16	E4	press
490.369	n/a	RESPONSE	        M3	1	12	C4	release
490.638	n/a	RESPONSE	        M3	1	17	F4	press
491.009	n/a	RESPONSE	        M3	1	19	G4	press
491.33	n/a	RESPONSE	        M3	1	16	E4	release
491.332	n/a	RESPONSE	        M3	1	17	F4	release
491.692	n/a	RESPONSE	        M3	1	16	E4	press
491.814	n/a	RESPONSE	        M3	1	19	G4	release
492.075	n/a	RESPONSE	        M3	1	17	F4	press
492.466	n/a	RESPONSE	        M3	1	19	G4	press
492.578	n/a	RESPONSE	        M3	1	16	E4	release
492.74	7.759	FIXCROSS	n/a	n/a	n/a	n/a	n/a
492.909	n/a	RESPONSE	        M3	1	17	F4	release
493.06	n/a	RESPONSE	        M3	1	19	G4	release
500.498	6.317	CUE_LISTEN	        M3	2	n/a	n/a	n/a
506.815	7.758	FIXCROSS	n/a	n/a	n/a	n/a	n/a
514.573	6.317	CUE_PLAYBACK_RIGHT_HAND	        M3	2	n/a	n/a	n/a
515.75	n/a	RESPONSE	        M3	2	12	C4	press
516.186	n/a	RESPONSE	        M3	2	12	C4	release
517.279	n/a	RESPONSE	        M3	2	19	G4	press
517.541	n/a	RESPONSE	        M3	2	23	B4	press
517.544	n/a	RESPONSE	        M3	2	21	A4	press
517.654	n/a	RESPONSE	        M3	2	19	G4	release
517.805	n/a	RESPONSE	        M3	2	23	B4	release
517.958	n/a	RESPONSE	        M3	2	21	A4	release
518.218	n/a	RESPONSE	        M3	2	19	G4	press
518.469	n/a	RESPONSE	        M3	2	21	A4	press
518.56	n/a	RESPONSE	        M3	2	19	G4	release
518.731	n/a	RESPONSE	        M3	2	19	G4	press
518.992	n/a	RESPONSE	        M3	2	17	F4	press
519.194	n/a	RESPONSE	        M3	2	16	E4	press
519.705	n/a	RESPONSE	        M3	2	12	C4	press
519.729	n/a	RESPONSE	        M3	2	17	F4	release
519.767	n/a	RESPONSE	        M3	2	19	G4	release
519.819	n/a	RESPONSE	        M3	2	21	A4	release
519.9	n/a	RESPONSE	        M3	2	16	E4	release
520.221	n/a	RESPONSE	        M3	2	19	G4	press
520.312	n/a	RESPONSE	        M3	2	12	C4	release
520.454	n/a	RESPONSE	        M3	2	21	A4	press
520.586	n/a	RESPONSE	        M3	2	19	G4	release
520.756	n/a	RESPONSE	        M3	2	19	G4	press
520.89	7.758	FIXCROSS	n/a	n/a	n/a	n/a	n/a
521.037	n/a	RESPONSE	        M3	2	17	F4	press
521.299	n/a	RESPONSE	        M3	2	16	E4	press
521.901	n/a	RESPONSE	        M3	2	12	C4	press
522.011	n/a	RESPONSE	        M3	2	19	G4	release
522.025	n/a	RESPONSE	        M3	2	17	F4	release
522.254	n/a	RESPONSE	        M3	2	12	C4	release
522.445	n/a	RESPONSE	        M3	2	00	C3	press
522.466	n/a	RESPONSE	        M3	2	12	C4	press
522.997	n/a	RESPONSE	        M3	2	07	G3	press
523.06	n/a	RESPONSE	        M3	2	00	C3	release
523.15	n/a	RESPONSE	        M3	2	12	C4	release
523.161	n/a	RESPONSE	        M3	2	16	E4	release
523.172	n/a	RESPONSE	        M3	2	21	A4	release
523.186	n/a	RESPONSE	        M3	2	07	G3	release
528.648	6.325	CUE_LISTEN	        M5	1	n/a	n/a	n/a
534.973	7.758	FIXCROSS	n/a	n/a	n/a	n/a	n/a
542.732	6.317	CUE_PLAYBACK_BOTH_HANDS	        M5	1	n/a	n/a	n/a
543.279	n/a	RESPONSE	        M5	1	05	F3	press
543.281	n/a	RESPONSE	        M5	1	21	A4	press
543.522	n/a	RESPONSE	        M5	1	21	A4	release
543.642	n/a	RESPONSE	        M5	1	21	A4	press
543.654	n/a	RESPONSE	        M5	1	09	A3	press
543.721	n/a	RESPONSE	        M5	1	05	F3	release
543.816	n/a	RESPONSE	        M5	1	21	A4	release
544.008	n/a	RESPONSE	        M5	1	21	A4	press
544.01	n/a	RESPONSE	        M5	1	04	E3	press
544.084	n/a	RESPONSE	        M5	1	09	A3	release
544.392	n/a	RESPONSE	        M5	1	09	A3	press
544.534	n/a	RESPONSE	        M5	1	21	A4	release
544.538	n/a	RESPONSE	        M5	1	04	E3	release
544.745	n/a	RESPONSE	        M5	1	21	A4	press
544.751	n/a	RESPONSE	        M5	1	02	D3	press
544.804	n/a	RESPONSE	        M5	1	09	A3	release
544.936	n/a	RESPONSE	        M5	1	21	A4	release
545.106	n/a	RESPONSE	        M5	1	09	A3	press
545.129	n/a	RESPONSE	        M5	1	21	A4	press
545.19	n/a	RESPONSE	        M5	1	02	D3	release
545.306	n/a	RESPONSE	        M5	1	21	A4	release
545.471	n/a	RESPONSE	        M5	1	00	C3	press
545.48	n/a	RESPONSE	        M5	1	21	A4	press
545.516	n/a	RESPONSE	        M5	1	09	A3	release
545.805	n/a	RESPONSE	        M5	1	09	A3	press
545.909	n/a	RESPONSE	        M5	1	21	A4	release
546.022	n/a	RESPONSE	        M5	1	00	C3	release
546.19	n/a	RESPONSE	        M5	1	05	F3	press
546.195	n/a	RESPONSE	        M5	1	21	A4	press
546.221	n/a	RESPONSE	        M5	1	09	A3	release
546.545	n/a	RESPONSE	        M5	1	24	C5	press
546.559	n/a	RESPONSE	        M5	1	09	A3	press
546.6	n/a	RESPONSE	        M5	1	05	F3	release
546.624	n/a	RESPONSE	        M5	1	21	A4	release
546.938	n/a	RESPONSE	        M5	1	17	F4	press
546.958	n/a	RESPONSE	        M5	1	04	E3	press
547.01	n/a	RESPONSE	        M5	1	09	A3	release
547.304	n/a	RESPONSE	        M5	1	19	G4	press
547.315	n/a	RESPONSE	        M5	1	09	A3	press
547.356	n/a	RESPONSE	        M5	1	24	C5	release
547.428	n/a	RESPONSE	        M5	1	04	E3	release
547.439	n/a	RESPONSE	        M5	1	17	F4	release
547.69	n/a	RESPONSE	        M5	1	02	D3	press
547.712	n/a	RESPONSE	        M5	1	09	A3	release
547.752	n/a	RESPONSE	        M5	1	23	B4	press
547.755	n/a	RESPONSE	        M5	1	21	A4	press
547.838	n/a	RESPONSE	        M5	1	19	G4	release
548.056	n/a	RESPONSE	        M5	1	09	A3	press
548.138	n/a	RESPONSE	        M5	1	02	D3	release
548.369	n/a	RESPONSE	        M5	1	21	A4	release
548.41	n/a	RESPONSE	        M5	1	00	C3	press
548.431	n/a	RESPONSE	        M5	1	09	A3	release
548.572	n/a	RESPONSE	        M5	1	23	B4	release
548.756	n/a	RESPONSE	        M5	1	09	A3	press
548.876	n/a	RESPONSE	        M5	1	00	C3	release
549.048	7.758	FIXCROSS	n/a	n/a	n/a	n/a	n/a
549.756	n/a	RESPONSE	        M5	1	09	A3	release
556.806	6.317	CUE_LISTEN	        M5	2	n/a	n/a	n/a
563.123	7.758	FIXCROSS	n/a	n/a	n/a	n/a	n/a
570.882	6.325	CUE_PLAYBACK_BOTH_HANDS	        M5	2	n/a	n/a	n/a
571.41	n/a	RESPONSE	        M5	2	22	A#4	press
571.412	n/a	RESPONSE	        M5	2	07	G3	press
571.642	n/a	RESPONSE	        M5	2	22	A#4	release
571.786	n/a	RESPONSE	        M5	2	22	A#4	press
571.795	n/a	RESPONSE	        M5	2	10	A#3	press
571.946	n/a	RESPONSE	        M5	2	22	A#4	release
572.167	n/a	RESPONSE	        M5	2	22	A#4	press
572.209	n/a	RESPONSE	        M5	2	04	E3	press
572.24	n/a	RESPONSE	        M5	2	10	A#3	release
572.461	n/a	RESPONSE	        M5	2	22	A#4	release
572.552	n/a	RESPONSE	        M5	2	10	A#3	press
572.624	n/a	RESPONSE	        M5	2	22	A#4	press
572.765	n/a	RESPONSE	        M5	2	04	E3	release
572.809	n/a	RESPONSE	        M5	2	22	A#4	release
572.827	n/a	RESPONSE	        M5	2	07	G3	release
572.83	n/a	RESPONSE	        M5	2	10	A#3	release
572.94	n/a	RESPONSE	        M5	2	05	F3	press
572.971	n/a	RESPONSE	        M5	2	22	A#4	press
573.719	n/a	RESPONSE	        M5	2	09	A3	press
573.729	n/a	RESPONSE	        M5	2	21	A4	press
573.85	n/a	RESPONSE	        M5	2	05	F3	release
573.929	n/a	RESPONSE	        M5	2	22	A#4	release
573.95	n/a	RESPONSE	        M5	2	21	A4	release
574.281	n/a	RESPONSE	        M5	2	00	C3	press
574.284	n/a	RESPONSE	        M5	2	21	A4	press
574.38	n/a	RESPONSE	        M5	2	09	A3	release
574.525	n/a	RESPONSE	        M5	2	21	A4	release
574.771	n/a	RESPONSE	        M5	2	09	A3	press
574.796	n/a	RESPONSE	        M5	2	21	A4	press
574.889	n/a	RESPONSE	        M5	2	00	C3	release
575.192	n/a	RESPONSE	        M5	2	00	C3	press
575.207	n/a	RESPONSE	        M5	2	24	C5	press
575.326	n/a	RESPONSE	        M5	2	09	A3	release
575.391	n/a	RESPONSE	        M5	2	21	A4	release
575.426	n/a	RESPONSE	        M5	2	24	C5	release
575.634	n/a	RESPONSE	        M5	2	24	C5	press
575.652	n/a	RESPONSE	        M5	2	07	G3	press
576.871	n/a	RESPONSE	        M5	2	05	F3	press
576.88	n/a	RESPONSE	        M5	2	22	A#4	press
576.987	n/a	RESPONSE	        M5	2	07	G3	release
576.995	n/a	RESPONSE	        M5	2	24	C5	release
577.206	7.758	FIXCROSS	n/a	n/a	n/a	n/a	n/a
577.36	n/a	RESPONSE	        M5	2	07	G3	press
577.38	n/a	RESPONSE	        M5	2	19	G4	press
577.461	n/a	RESPONSE	        M5	2	05	F3	release
577.502	n/a	RESPONSE	        M5	2	22	A#4	release
577.534	n/a	RESPONSE	        M5	2	00	C3	release
577.775	n/a	RESPONSE	        M5	2	05	F3	press
577.786	n/a	RESPONSE	        M5	2	17	F4	press
577.897	n/a	RESPONSE	        M5	2	19	G4	release
578.229	n/a	RESPONSE	        M5	2	05	F3	release
578.35	n/a	RESPONSE	        M5	2	07	G3	release
578.361	n/a	RESPONSE	        M5	2	17	F4	release
584.965	6.317	CUE_LISTEN	        M1	1	n/a	n/a	n/a
591.282	7.758	FIXCROSS	n/a	n/a	n/a	n/a	n/a
599.04	6.317	CUE_PLAYBACK_BOTH_HANDS	        M1	1	n/a	n/a	n/a
599.696	n/a	RESPONSE	        M1	1	04	E3	press
599.727	n/a	RESPONSE	        M1	1	16	E4	press
599.73	n/a	RESPONSE	        M1	1	07	G3	press
599.732	n/a	RESPONSE	        M1	1	00	C3	press
600.231	n/a	RESPONSE	        M1	1	19	G4	press
600.472	n/a	RESPONSE	        M1	1	16	E4	release
600.475	n/a	RESPONSE	        M1	1	19	G4	release
601.006	n/a	RESPONSE	        M1	1	00	C3	release
601.136	n/a	RESPONSE	        M1	1	07	G3	release
601.237	n/a	RESPONSE	        M1	1	04	E3	release
601.489	n/a	RESPONSE	        M1	1	19	G4	press
601.492	n/a	RESPONSE	        M1	1	04	E3	press
601.514	n/a	RESPONSE	        M1	1	07	G3	press
601.516	n/a	RESPONSE	        M1	1	00	C3	press
601.885	n/a	RESPONSE	        M1	1	16	E4	press
602.116	n/a	RESPONSE	        M1	1	16	E4	release
602.347	n/a	RESPONSE	        M1	1	16	E4	press
602.399	n/a	RESPONSE	        M1	1	19	G4	release
602.43	n/a	RESPONSE	        M1	1	00	C3	release
602.451	n/a	RESPONSE	        M1	1	04	E3	release
602.465	n/a	RESPONSE	        M1	1	07	G3	release
602.726	n/a	RESPONSE	        M1	1	07	G3	press
602.735	n/a	RESPONSE	        M1	1	05	F3	press
602.739	n/a	RESPONSE	        M1	1	02	D3	press
602.747	n/a	RESPONSE	        M1	1	17	F4	press
602.849	n/a	RESPONSE	        M1	1	16	E4	release
603.13	n/a	RESPONSE	        M1	1	14	D4	press
603.291	n/a	RESPONSE	        M1	1	17	F4	release
603.354	n/a	RESPONSE	        M1	1	14	D4	release
603.584	n/a	RESPONSE	        M1	1	14	D4	press
603.771	n/a	RESPONSE	        M1	1	02	D3	release
603.826	n/a	RESPONSE	        M1	1	05	F3	release
603.856	n/a	RESPONSE	        M1	1	07	G3	release
603.974	n/a	RESPONSE	        M1	1	07	G3	press
603.977	n/a	RESPONSE	        M1	1	00	C3	press
603.995	n/a	RESPONSE	        M1	1	04	E3	press
604.025	n/a	RESPONSE	        M1	1	12	C4	press
604.152	n/a	RESPONSE	        M1	1	14	D4	release
604.242	n/a	RESPONSE	        M1	1	16	E4	press
604.406	n/a	RESPONSE	        M1	1	12	C4	release
604.506	n/a	RESPONSE	        M1	1	19	G4	press
605.164	n/a	RESPONSE	        M1	1	16	E4	release
605.182	n/a	RESPONSE	        M1	1	00	C3	release
605.205	n/a	RESPONSE	        M1	1	19	G4	release
605.239	n/a	RESPONSE	        M1	1	04	E3	release
605.356	7.759	FIXCROSS	n/a	n/a	n/a	n/a	n/a
605.415	n/a	RESPONSE	        M1	1	07	G3	release
613.115	6.325	CUE_LISTEN	        M1	2	n/a	n/a	n/a
619.44	7.758	FIXCROSS	n/a	n/a	n/a	n/a	n/a
627.198	6.317	CUE_PLAYBACK_BOTH_HANDS	        M1	2	n/a	n/a	n/a
627.686	n/a	RESPONSE	        M1	2	19	G4	press
627.689	n/a	RESPONSE	        M1	2	04	E3	press
627.709	n/a	RESPONSE	        M1	2	00	C3	press
627.711	n/a	RESPONSE	        M1	2	07	G3	press
628.161	n/a	RESPONSE	        M1	2	16	E4	press
628.392	n/a	RESPONSE	        M1	2	16	E4	release
628.474	n/a	RESPONSE	        M1	2	19	G4	release
628.635	n/a	RESPONSE	        M1	2	16	E4	press
628.766	n/a	RESPONSE	        M1	2	00	C3	release
628.769	n/a	RESPONSE	        M1	2	04	E3	release
628.809	n/a	RESPONSE	        M1	2	07	G3	release
629.09	n/a	RESPONSE	        M1	2	07	G3	press
629.092	n/a	RESPONSE	        M1	2	05	F3	press
629.104	n/a	RESPONSE	        M1	2	17	F4	press
629.106	n/a	RESPONSE	        M1	2	02	D3	press
629.246	n/a	RESPONSE	        M1	2	16	E4	release
629.547	n/a	RESPONSE	        M1	2	14	D4	press
629.619	n/a	RESPONSE	        M1	2	17	F4	release
629.81	n/a	RESPONSE	        M1	2	14	D4	release
630.041	n/a	RESPONSE	        M1	2	14	D4	press
630.242	n/a	RESPONSE	        M1	2	02	D3	release
630.274	n/a	RESPONSE	        M1	2	05	F3	release
630.285	n/a	RESPONSE	        M1	2	07	G3	release
630.516	n/a	RESPONSE	        M1	2	07	G3	press
630.527	n/a	RESPONSE	        M1	2	04	E3	press
630.53	n/a	RESPONSE	        M1	2	12	C4	press
630.532	n/a	RESPONSE	        M1	2	00	C3	press
630.621	n/a	RESPONSE	        M1	2	14	D4	release
630.822	n/a	RESPONSE	        M1	2	16	E4	press
630.894	n/a	RESPONSE	        M1	2	12	C4	release
631.095	n/a	RESPONSE	        M1	2	12	C4	press
631.206	n/a	RESPONSE	        M1	2	16	E4	release
631.889	n/a	RESPONSE	        M1	2	12	C4	release
631.919	n/a	RESPONSE	        M1	2	07	G3	release
631.93	n/a	RESPONSE	        M1	2	04	E3	release
632.031	n/a	RESPONSE	        M1	2	00	C3	release
633.515	7.758	FIXCROSS	n/a	n/a	n/a	n/a	n/a
641.273	6.317	CUE_LISTEN	        M7	1	n/a	n/a	n/a
647.59	7.758	FIXCROSS	n/a	n/a	n/a	n/a	n/a
655.348	6.325	CUE_PLAYBACK_RIGHT_HAND	        M7	1	n/a	n/a	n/a
655.92	n/a	RESPONSE	        M7	1	22	A#4	press
656.471	n/a	RESPONSE	        M7	1	21	A4	press
656.88	n/a	RESPONSE	        M7	1	22	A#4	release
657.002	n/a	RESPONSE	        M7	1	19	G4	press
657.111	n/a	RESPONSE	        M7	1	21	A4	release
657.601	n/a	RESPONSE	        M7	1	21	A4	press
657.702	n/a	RESPONSE	        M7	1	19	G4	release
659.094	n/a	RESPONSE	        M7	1	21	A4	release
659.196	n/a	RESPONSE	        M7	1	16	E4	press
659.509	n/a	RESPONSE	        M7	1	16	E4	release
659.749	n/a	RESPONSE	        M7	1	16	E4	press
660.301	n/a	RESPONSE	        M7	1	21	A4	press
660.361	n/a	RESPONSE	        M7	1	16	E4	release
661.062	n/a	RESPONSE	        M7	1	21	A4	release
661.673	7.758	FIXCROSS	n/a	n/a	n/a	n/a	n/a
669.432	6.317	CUE_LISTEN	        M7	2	n/a	n/a	n/a
675.748	7.758	FIXCROSS	n/a	n/a	n/a	n/a	n/a
683.507	6.317	CUE_PLAYBACK_RIGHT_HAND	        M7	2	n/a	n/a	n/a
684.009	n/a	RESPONSE	        M7	2	16	E4	press
684.479	n/a	RESPONSE	        M7	2	17	F4	press
684.597	n/a	RESPONSE	        M7	2	16	E4	release
684.775	n/a	RESPONSE	        M7	2	16	E4	press
685.201	n/a	RESPONSE	        M7	2	13	C#4	press
685.267	n/a	RESPONSE	        M7	2	17	F4	release
685.527	n/a	RESPONSE	        M7	2	12	C4	press
685.607	n/a	RESPONSE	        M7	2	16	E4	release
685.676	n/a	RESPONSE	        M7	2	13	C#4	release
685.911	n/a	RESPONSE	        M7	2	13	C#4	press
686.019	n/a	RESPONSE	        M7	2	12	C4	release
686.429	n/a	RESPONSE	        M7	2	13	C#4	release
686.851	n/a	RESPONSE	        M7	2	16	E4	press
687.152	n/a	RESPONSE	        M7	2	13	C#4	press
687.434	n/a	RESPONSE	        M7	2	12	C4	press
687.436	n/a	RESPONSE	        M7	2	16	E4	release
687.767	n/a	RESPONSE	        M7	2	11	B3	press
687.877	n/a	RESPONSE	        M7	2	13	C#4	release
687.88	n/a	RESPONSE	        M7	2	12	C4	release
688.1	n/a	RESPONSE	        M7	2	12	C4	press
688.211	n/a	RESPONSE	        M7	2	11	B3	release
688.564	n/a	RESPONSE	        M7	2	12	C4	release
688.854	n/a	RESPONSE	        M7	2	17	F4	press
689.357	n/a	RESPONSE	        M7	2	17	F4	release
689.646	n/a	RESPONSE	        M7	2	11	B3	press
689.823	7.758	FIXCROSS	n/a	n/a	n/a	n/a	n/a
690.24	n/a	RESPONSE	        M7	2	11	B3	release
690.659	n/a	RESPONSE	        M7	2	08	G#3	press
690.95	n/a	RESPONSE	        M7	2	08	G#3	release
697.582	6.325	CUE_LISTEN	        M4	1	n/a	n/a	n/a
703.907	7.758	FIXCROSS	n/a	n/a	n/a	n/a	n/a
711.665	6.317	CUE_PLAYBACK_RIGHT_HAND	        M4	1	n/a	n/a	n/a
712.57	n/a	RESPONSE	        M4	1	12	C4	press
712.921	n/a	RESPONSE	        M4	1	17	F4	press
713.252	n/a	RESPONSE	        M4	1	21	A4	press
713.384	n/a	RESPONSE	        M4	1	17	F4	release
713.607	n/a	RESPONSE	        M4	1	19	G4	press
713.749	n/a	RESPONSE	        M4	1	12	C4	release
713.942	n/a	RESPONSE	        M4	1	17	F4	press
714.26	n/a	RESPONSE	        M4	1	16	E4	press
714.38	n/a	RESPONSE	        M4	1	19	G4	release
714.382	n/a	RESPONSE	        M4	1	17	F4	release
714.466	n/a	RESPONSE	        M4	1	21	A4	release
714.582	n/a	RESPONSE	        M4	1	17	F4	press
715.11	n/a	RESPONSE	        M4	1	16	E4	release
715.121	n/a	RESPONSE	        M4	1	12	C4	press
715.255	n/a	RESPONSE	        M4	1	17	F4	release
715.45	n/a	RESPONSE	        M4	1	17	F4	press
715.662	n/a	RESPONSE	        M4	1	12	C4	release
715.772	n/a	RESPONSE	        M4	1	21	A4	press
715.88	n/a	RESPONSE	        M4	1	17	F4	release
716.096	n/a	RESPONSE	        M4	1	19	G4	press
716.4	n/a	RESPONSE	        M4	1	17	F4	press
716.71	n/a	RESPONSE	        M4	1	16	E4	press
716.814	n/a	RESPONSE	        M4	1	19	G4	release
716.86	n/a	RESPONSE	        M4	1	17	F4	release
716.874	n/a	RESPONSE	        M4	1	21	A4	release
717.052	n/a	RESPONSE	        M4	1	17	F4	press
717.42	n/a	RESPONSE	        M4	1	16	E4	release
717.571	n/a	RESPONSE	        M4	1	17	F4	release
717.982	7.758	FIXCROSS	n/a	n/a	n/a	n/a	n/a
725.74	6.325	CUE_LISTEN	        M4	2	n/a	n/a	n/a
732.065	7.758	FIXCROSS	n/a	n/a	n/a	n/a	n/a
739.824	6.317	CUE_PLAYBACK_RIGHT_HAND	        M4	2	n/a	n/a	n/a
740.621	n/a	RESPONSE	        M4	2	12	C4	press
741.072	n/a	RESPONSE	        M4	2	17	F4	press
741.544	n/a	RESPONSE	        M4	2	21	A4	press
742.085	n/a	RESPONSE	        M4	2	24	C5	press
742.126	n/a	RESPONSE	        M4	2	12	C4	release
742.157	n/a	RESPONSE	        M4	2	17	F4	release
742.218	n/a	RESPONSE	        M4	2	21	A4	release
742.7	n/a	RESPONSE	        M4	2	22	A#4	press
742.811	n/a	RESPONSE	        M4	2	24	C5	release
743.054	n/a	RESPONSE	        M4	2	21	A4	press
743.434	n/a	RESPONSE	        M4	2	19	G4	press
743.436	n/a	RESPONSE	        M4	2	22	A#4	release
743.635	n/a	RESPONSE	        M4	2	21	A4	release
743.875	n/a	RESPONSE	        M4	2	19	G4	release
744.1	n/a	RESPONSE	        M4	2	12	C4	press
744.594	n/a	RESPONSE	        M4	2	16	E4	press
745.05	n/a	RESPONSE	        M4	2	19	G4	press
745.499	n/a	RESPONSE	        M4	2	22	A#4	press
745.571	n/a	RESPONSE	        M4	2	16	E4	release
745.612	n/a	RESPONSE	        M4	2	19	G4	release
745.977	n/a	RESPONSE	        M4	2	21	A4	press
746.08	n/a	RESPONSE	        M4	2	22	A#4	release
746.14	7.758	FIXCROSS	n/a	n/a	n/a	n/a	n/a
746.3	n/a	RESPONSE	        M4	2	12	C4	release
746.404	n/a	RESPONSE	        M4	2	19	G4	press
746.815	n/a	RESPONSE	        M4	2	17	F4	press
746.88	n/a	RESPONSE	        M4	2	21	A4	release
747.06	n/a	RESPONSE	        M4	2	19	G4	release
747.312	n/a	RESPONSE	        M4	2	17	F4	release
753.899	6.317	CUE_LISTEN	        M2	1	n/a	n/a	n/a
760.215	7.758	FIXCROSS	n/a	n/a	n/a	n/a	n/a
767.974	6.325	CUE_PLAYBACK_BOTH_HANDS	        M2	1	n/a	n/a	n/a
768.557	n/a	RESPONSE	        M2	1	24	C5	press
768.56	n/a	RESPONSE	        M2	1	00	C3	press
768.568	n/a	RESPONSE	        M2	1	07	G3	press
768.93	n/a	RESPONSE	        M2	1	19	G4	press
768.971	n/a	RESPONSE	        M2	1	17	F4	press
769.072	n/a	RESPONSE	        M2	1	07	G3	release
769.094	n/a	RESPONSE	        M2	1	00	C3	release
769.096	n/a	RESPONSE	        M2	1	17	F4	release
769.126	n/a	RESPONSE	        M2	1	19	G4	release
769.327	n/a	RESPONSE	        M2	1	00	C3	press
769.33	n/a	RESPONSE	        M2	1	19	G4	press
769.35	n/a	RESPONSE	        M2	1	07	G3	press
769.721	n/a	RESPONSE	        M2	1	17	F4	press
769.724	n/a	RESPONSE	        M2	1	24	C5	release
769.774	n/a	RESPONSE	        M2	1	00	C3	release
770.045	n/a	RESPONSE	        M2	1	19	G4	release
770.108	n/a	RESPONSE	        M2	1	16	E4	press
770.137	n/a	RESPONSE	        M2	1	00	C3	press
770.14	n/a	RESPONSE	        M2	1	14	D4	press
770.25	n/a	RESPONSE	        M2	1	17	F4	release
770.502	n/a	RESPONSE	        M2	1	17	F4	press
770.544	n/a	RESPONSE	        M2	1	14	D4	release
770.574	n/a	RESPONSE	        M2	1	16	E4	release
770.635	n/a	RESPONSE	        M2	1	00	C3	release
770.659	n/a	RESPONSE	        M2	1	07	G3	release
770.837	n/a	RESPONSE	        M2	1	07	G3	press
770.868	n/a	RESPONSE	        M2	1	00	C3	press
770.872	n/a	RESPONSE	        M2	1	19	G4	press
771.031	n/a	RESPONSE	        M2	1	17	F4	release
771.292	n/a	RESPONSE	        M2	1	00	C3	release
771.354	n/a	RESPONSE	        M2	1	07	G3	release
771.365	n/a	RESPONSE	        M2	1	19	G4	release
771.496	n/a	RESPONSE	        M2	1	00	C3	press
771.498	n/a	RESPONSE	        M2	1	24	C5	press
771.501	n/a	RESPONSE	        M2	1	07	G3	press
771.841	n/a	RESPONSE	        M2	1	19	G4	press
771.991	n/a	RESPONSE	        M2	1	00	C3	release
772.022	n/a	RESPONSE	        M2	1	24	C5	release
772.054	n/a	RESPONSE	        M2	1	07	G3	release
772.085	n/a	RESPONSE	        M2	1	19	G4	release
772.206	n/a	RESPONSE	        M2	1	07	G3	press
772.208	n/a	RESPONSE	        M2	1	19	G4	press
772.218	n/a	RESPONSE	        M2	1	00	C3	press
772.57	n/a	RESPONSE	        M2	1	17	F4	press
772.751	n/a	RESPONSE	        M2	1	00	C3	release
772.792	n/a	RESPONSE	        M2	1	19	G4	release
772.914	n/a	RESPONSE	        M2	1	00	C3	press
772.955	n/a	RESPONSE	        M2	1	16	E4	press
772.976	n/a	RESPONSE	        M2	1	14	D4	press
773.177	n/a	RESPONSE	        M2	1	17	F4	release
773.45	n/a	RESPONSE	        M2	1	16	E4	release
773.482	n/a	RESPONSE	        M2	1	00	C3	release
773.501	n/a	RESPONSE	        M2	1	07	G3	release
773.735	n/a	RESPONSE	        M2	1	07	G3	press
773.774	n/a	RESPONSE	        M2	1	12	C4	press
773.778	n/a	RESPONSE	        M2	1	00	C3	press
773.995	n/a	RESPONSE	        M2	1	14	D4	release
774.074	n/a	RESPONSE	        M2	1	00	C3	release
774.082	n/a	RESPONSE	        M2	1	07	G3	release
774.087	n/a	RESPONSE	        M2	1	12	C4	release
774.299	7.758	FIXCROSS	n/a	n/a	n/a	n/a	n/a
782.057	6.317	CUE_LISTEN	        M2	2	n/a	n/a	n/a
788.374	7.758	FIXCROSS	n/a	n/a	n/a	n/a	n/a
796.132	6.317	CUE_PLAYBACK_BOTH_HANDS	        M2	2	n/a	n/a	n/a
797.268	n/a	RESPONSE	        M2	2	00	C3	press
797.29	n/a	RESPONSE	        M2	2	07	G3	press
797.321	n/a	RESPONSE	        M2	2	12	C4	press
797.726	n/a	RESPONSE	        M2	2	14	D4	press
797.906	n/a	RESPONSE	        M2	2	12	C4	release
798.116	n/a	RESPONSE	        M2	2	00	C3	release
798.177	n/a	RESPONSE	        M2	2	00	C3	press
798.208	n/a	RESPONSE	        M2	2	16	E4	press
798.39	n/a	RESPONSE	        M2	2	14	D4	release
798.661	n/a	RESPONSE	        M2	2	14	D4	press
798.762	n/a	RESPONSE	        M2	2	16	E4	release
798.904	n/a	RESPONSE	        M2	2	00	C3	release
799.057	n/a	RESPONSE	        M2	2	00	C3	press
799.066	n/a	RESPONSE	        M2	2	16	E4	press
799.487	n/a	RESPONSE	        M2	2	17	F4	press
799.561	n/a	RESPONSE	        M2	2	14	D4	release
799.771	n/a	RESPONSE	        M2	2	00	C3	release
799.892	n/a	RESPONSE	        M2	2	00	C3	press
799.914	n/a	RESPONSE	        M2	2	19	G4	press
800.026	n/a	RESPONSE	        M2	2	16	E4	release
800.126	n/a	RESPONSE	        M2	2	17	F4	release
800.467	n/a	RESPONSE	        M2	2	00	C3	release
800.591	n/a	RESPONSE	        M2	2	00	C3	press
800.6	n/a	RESPONSE	        M2	2	16	E4	press
800.641	n/a	RESPONSE	        M2	2	19	G4	release
801.012	n/a	RESPONSE	        M2	2	19	G4	press
801.206	n/a	RESPONSE	        M2	2	00	C3	release
801.255	n/a	RESPONSE	        M2	2	16	E4	release
801.276	n/a	RESPONSE	        M2	2	19	G4	release
801.377	n/a	RESPONSE	        M2	2	00	C3	press
801.38	n/a	RESPONSE	        M2	2	19	G4	press
801.781	n/a	RESPONSE	        M2	2	17	F4	press
801.972	n/a	RESPONSE	        M2	2	00	C3	release
802.114	n/a	RESPONSE	        M2	2	00	C3	press
802.165	n/a	RESPONSE	        M2	2	16	E4	press
802.449	7.758	FIXCROSS	n/a	n/a	n/a	n/a	n/a
802.516	n/a	RESPONSE	        M2	2	14	D4	press
802.578	n/a	RESPONSE	        M2	2	19	G4	release
802.648	n/a	RESPONSE	        M2	2	17	F4	release
802.75	n/a	RESPONSE	        M2	2	00	C3	release
802.894	n/a	RESPONSE	        M2	2	00	C3	press
802.952	n/a	RESPONSE	        M2	2	12	C4	press
803.114	n/a	RESPONSE	        M2	2	16	E4	release
803.436	n/a	RESPONSE	        M2	2	14	D4	release
803.606	n/a	RESPONSE	        M2	2	12	C4	release
803.62	n/a	RESPONSE	        M2	2	00	C3	release
804.035	n/a	RESPONSE	        M2	2	07	G3	release
810.207	6.325	CUE_LISTEN	        M8	1	n/a	n/a	n/a
816.532	7.758	FIXCROSS	n/a	n/a	n/a	n/a	n/a
824.29	6.317	CUE_PLAYBACK_BOTH_HANDS	        M8	1	n/a	n/a	n/a
824.916	n/a	RESPONSE	        M8	1	16	E4	press
825.157	n/a	RESPONSE	        M8	1	19	G4	press
825.367	n/a	RESPONSE	        M8	1	23	B4	press
825.372	n/a	RESPONSE	        M8	1	16	E4	release
825.636	n/a	RESPONSE	        M8	1	23	B4	release
825.69	n/a	RESPONSE	        M8	1	19	G4	release
825.804	n/a	RESPONSE	        M8	1	23	B4	press
826.208	n/a	RESPONSE	        M8	1	09	A3	press
826.25	n/a	RESPONSE	        M8	1	18	F#4	press
826.642	n/a	RESPONSE	        M8	1	12	C4	press
826.744	n/a	RESPONSE	        M8	1	23	B4	release
826.866	n/a	RESPONSE	        M8	1	09	A3	release
827.085	n/a	RESPONSE	        M8	1	21	A4	press
827.091	n/a	RESPONSE	        M8	1	16	E4	press
827.171	n/a	RESPONSE	        M8	1	12	C4	release
827.187	n/a	RESPONSE	        M8	1	18	F#4	release
827.311	n/a	RESPONSE	        M8	1	16	E4	release
827.524	n/a	RESPONSE	        M8	1	16	E4	press
827.976	n/a	RESPONSE	        M8	1	23	B4	press
828.176	n/a	RESPONSE	        M8	1	23	B4	release
828.257	n/a	RESPONSE	        M8	1	21	A4	release
828.358	n/a	RESPONSE	        M8	1	23	B4	press
828.4	n/a	RESPONSE	        M8	1	13	C#4	press
828.461	n/a	RESPONSE	        M8	1	16	E4	release
829.152	n/a	RESPONSE	        M8	1	11	B3	press
829.216	n/a	RESPONSE	        M8	1	13	C#4	release
829.365	n/a	RESPONSE	        M8	1	21	A4	press
829.576	n/a	RESPONSE	        M8	1	19	G4	press
829.82	n/a	RESPONSE	        M8	1	18	F#4	press
829.92	n/a	RESPONSE	        M8	1	23	B4	release
830.06	n/a	RESPONSE	        M8	1	21	A4	release
830.091	n/a	RESPONSE	        M8	1	16	E4	press
830.212	n/a	RESPONSE	        M8	1	19	G4	release
830.274	n/a	RESPONSE	        M8	1	18	F#4	release
830.575	n/a	RESPONSE	        M8	1	12	C4	press
830.577	n/a	RESPONSE	        M8	1	11	B3	release
830.607	7.758	FIXCROSS	n/a	n/a	n/a	n/a	n/a
830.977	n/a	RESPONSE	        M8	1	11	B3	press
830.988	n/a	RESPONSE	        M8	1	23	B4	press
831.07	n/a	RESPONSE	        M8	1	12	C4	release
831.121	n/a	RESPONSE	        M8	1	11	B3	release
831.352	n/a	RESPONSE	        M8	1	11	B3	press
831.595	n/a	RESPONSE	        M8	1	11	B3	release
831.625	n/a	RESPONSE	        M8	1	16	E4	release
831.646	n/a	RESPONSE	        M8	1	23	B4	release
838.365	6.325	CUE_LISTEN	        M8	2	n/a	n/a	n/a
844.69	7.758	FIXCROSS	n/a	n/a	n/a	n/a	n/a
852.449	6.317	CUE_PLAYBACK_BOTH_HANDS	        M8	2	n/a	n/a	n/a
852.98	n/a	RESPONSE	        M8	2	16	E4	press
853.181	n/a	RESPONSE	        M8	2	19	G4	press
853.445	n/a	RESPONSE	        M8	2	23	B4	press
853.718	n/a	RESPONSE	        M8	2	23	B4	release
853.756	n/a	RESPONSE	        M8	2	16	E4	release
853.771	n/a	RESPONSE	        M8	2	19	G4	release
853.907	n/a	RESPONSE	        M8	2	23	B4	press
854.345	n/a	RESPONSE	        M8	2	09	A3	press
854.368	n/a	RESPONSE	        M8	2	18	F#4	press
854.795	n/a	RESPONSE	        M8	2	12	C4	press
854.81	n/a	RESPONSE	        M8	2	23	B4	release
854.906	n/a	RESPONSE	        M8	2	09	A3	release
855.268	n/a	RESPONSE	        M8	2	21	A4	press
855.295	n/a	RESPONSE	        M8	2	16	E4	press
855.331	n/a	RESPONSE	        M8	2	18	F#4	release
855.408	n/a	RESPONSE	        M8	2	12	C4	release
855.486	n/a	RESPONSE	        M8	2	16	E4	release
855.754	n/a	RESPONSE	        M8	2	16	E4	press
856.81	n/a	RESPONSE	        M8	2	13	C#4	press
856.812	n/a	RESPONSE	        M8	2	23	B4	press
856.915	n/a	RESPONSE	        M8	2	16	E4	release
856.94	n/a	RESPONSE	        M8	2	21	A4	release
857.482	n/a	RESPONSE	        M8	2	11	B3	press
857.572	n/a	RESPONSE	        M8	2	13	C#4	release
857.682	n/a	RESPONSE	        M8	2	21	A4	press
857.854	n/a	RESPONSE	        M8	2	23	B4	release
857.925	n/a	RESPONSE	        M8	2	19	G4	press
858.166	n/a	RESPONSE	        M8	2	18	F#4	press
858.228	n/a	RESPONSE	        M8	2	21	A4	release
858.268	n/a	RESPONSE	        M8	2	19	G4	release
858.38	n/a	RESPONSE	        M8	2	19	G4	press
858.572	n/a	RESPONSE	        M8	2	18	F#4	release
858.765	7.758	FIXCROSS	n/a	n/a	n/a	n/a	n/a
858.792	n/a	RESPONSE	        M8	2	12	C4	press
858.964	n/a	RESPONSE	        M8	2	11	B3	release
859.505	n/a	RESPONSE	        M8	2	11	B3	press
859.507	n/a	RESPONSE	        M8	2	16	E4	press
859.607	n/a	RESPONSE	        M8	2	12	C4	release
860.03	n/a	RESPONSE	        M8	2	07	G3	press
860.11	n/a	RESPONSE	        M8	2	11	B3	release
860.191	n/a	RESPONSE	        M8	2	07	G3	release
860.422	n/a	RESPONSE	        M8	2	05	F3	press
860.784	n/a	RESPONSE	        M8	2	05	F3	release
860.855	n/a	RESPONSE	        M8	2	19	G4	release
860.886	n/a	RESPONSE	        M8	2	16	E4	release
866.524	6.317	CUE_LISTEN	        M6	1	n/a	n/a	n/a
872.84	7.758	FIXCROSS	n/a	n/a	n/a	n/a	n/a
880.599	6.325	CUE_PLAYBACK_RIGHT_HAND	        M6	1	n/a	n/a	n/a
881.305	n/a	RESPONSE	        M6	1	19	G4	press
881.526	n/a	RESPONSE	        M6	1	18	F#4	press
881.58	n/a	RESPONSE	        M6	1	19	G4	release
881.74	n/a	RESPONSE	        M6	1	19	G4	press
882.02	n/a	RESPONSE	        M6	1	18	F#4	release
882.191	n/a	RESPONSE	        M6	1	23	B4	press
882.382	n/a	RESPONSE	        M6	1	24	C5	press
882.425	n/a	RESPONSE	        M6	1	23	B4	release
882.435	n/a	RESPONSE	        M6	1	19	G4	release
882.646	n/a	RESPONSE	        M6	1	23	B4	press
883.267	n/a	RESPONSE	        M6	1	18	F#4	press
883.298	n/a	RESPONSE	        M6	1	23	B4	release
883.31	n/a	RESPONSE	        M6	1	24	C5	release
883.551	n/a	RESPONSE	        M6	1	16	E4	press
883.666	n/a	RESPONSE	        M6	1	18	F#4	release
883.808	n/a	RESPONSE	        M6	1	18	F#4	press
883.875	n/a	RESPONSE	        M6	1	16	E4	release
884.286	n/a	RESPONSE	        M6	1	19	G4	press
884.504	n/a	RESPONSE	        M6	1	21	A4	press
884.555	n/a	RESPONSE	        M6	1	18	F#4	release
884.61	n/a	RESPONSE	        M6	1	19	G4	release
884.795	n/a	RESPONSE	        M6	1	19	G4	press
885.426	n/a	RESPONSE	        M6	1	21	A4	release
885.472	n/a	RESPONSE	        M6	1	19	G4	release
886.924	7.758	FIXCROSS	n/a	n/a	n/a	n/a	n/a
894.682	6.317	CUE_LISTEN	        M6	2	n/a	n/a	n/a
900.999	7.758	FIXCROSS	n/a	n/a	n/a	n/a	n/a
908.757	192.442	CUE_PLAYBACK_RIGHT_HAND	        M6	2	n/a	n/a	n/a
909.436	n/a	RESPONSE	        M6	2	23	B4	press
910.24	n/a	RESPONSE	        M6	2	19	G4	press
910.33	n/a	RESPONSE	        M6	2	23	B4	release
911.392	n/a	RESPONSE	        M6	2	23	B4	press
911.462	n/a	RESPONSE	        M6	2	19	G4	release
912.442	n/a	RESPONSE	        M6	2	18	F#4	press
912.464	n/a	RESPONSE	        M6	2	23	B4	release
913.251	n/a	FIXCROSS	n/a	n/a	n/a	n/a	n/a
913.704	n/a	RESPONSE	        M6	2	18	F#4	release
