onset	duration	trial_type	trial_number	stroop_condition	stim_text(PL)	stim_text(eng)	stim_color(PL)	stim_color(eng)	response_type	response_color
0.0	n/a	RESPONSE	n/a	n/a	n/a	n/a	n/a	n/a	n/a	n/a
0.0569	1.0333	ITI	n/a	n/a	n/a	n/a	n/a	n/a	n/a	n/a
1.0903	0.5167	FIXCROSS	n/a	n/a	n/a	n/a	n/a	n/a	n/a	n/a
1.6069	1.5833	T_INK	1	Neutral	xxxxxxxxx	xxxxxxxxx	zielony	green	hit	n/a
3.1672	n/a	RESPONSE	n/a	n/a	n/a	n/a	n/a	n/a	n/a	green
3.1903	0.5167	FEEDBACK	n/a	n/a	n/a	n/a	n/a	n/a	n/a	n/a
3.707	1.0333	ITI	n/a	n/a	n/a	n/a	n/a	n/a	n/a	n/a
4.7403	0.5167	FIXCROSS	n/a	n/a	n/a	n/a	n/a	n/a	n/a	n/a
5.257	0.9	T_INK	2	Neutral	xxxxxxxxx	xxxxxxxxx	żółty	yellow	hit	n/a
6.1264	n/a	RESPONSE	n/a	n/a	n/a	n/a	n/a	n/a	n/a	yellow
6.157	0.5167	FEEDBACK	n/a	n/a	n/a	n/a	n/a	n/a	n/a	n/a
6.6737	1.0167	ITI	n/a	n/a	n/a	n/a	n/a	n/a	n/a	n/a
7.6903	0.5167	FIXCROSS	n/a	n/a	n/a	n/a	n/a	n/a	n/a	n/a
8.207	0.9667	T_INK	3	Incongruent	czerwony	red	niebieski	blue	incorrect	n/a
9.1496	n/a	RESPONSE	n/a	n/a	n/a	n/a	n/a	n/a	n/a	red
9.1737	0.5167	FEEDBACK	n/a	n/a	n/a	n/a	n/a	n/a	n/a	n/a
9.6903	1.0167	ITI	n/a	n/a	n/a	n/a	n/a	n/a	n/a	n/a
10.707	0.5167	FIXCROSS	n/a	n/a	n/a	n/a	n/a	n/a	n/a	n/a
11.2237	1.4667	T_INK	4	Incongruent	zielony	green	czerwony	red	incorrect	n/a
12.6687	n/a	RESPONSE	n/a	n/a	n/a	n/a	n/a	n/a	n/a	green
12.6904	0.5167	FEEDBACK	n/a	n/a	n/a	n/a	n/a	n/a	n/a	n/a
13.207	1.0167	ITI	n/a	n/a	n/a	n/a	n/a	n/a	n/a	n/a
14.2237	0.5167	FIXCROSS	n/a	n/a	n/a	n/a	n/a	n/a	n/a	n/a
14.7404	1.1	T_INK	5	Neutral	xxxxxxxx	xxxxxxxx	zielony	green	hit	n/a
15.8199	n/a	RESPONSE	n/a	n/a	n/a	n/a	n/a	n/a	n/a	green
15.8404	0.5167	FEEDBACK	n/a	n/a	n/a	n/a	n/a	n/a	n/a	n/a
16.3571	1.0167	ITI	n/a	n/a	n/a	n/a	n/a	n/a	n/a	n/a
17.3737	0.5167	FIXCROSS	n/a	n/a	n/a	n/a	n/a	n/a	n/a	n/a
17.8904	0.9833	T_INK	6	Incongruent	niebieski	blue	zielony	green	incorrect	n/a
18.8431	n/a	RESPONSE	n/a	n/a	n/a	n/a	n/a	n/a	n/a	blue
18.8737	0.5167	FEEDBACK	n/a	n/a	n/a	n/a	n/a	n/a	n/a	n/a
19.3904	1.0167	ITI	n/a	n/a	n/a	n/a	n/a	n/a	n/a	n/a
20.4071	0.5167	FIXCROSS	n/a	n/a	n/a	n/a	n/a	n/a	n/a	n/a
20.9238	0.8833	T_INK	7	Neutral	xxxxx	xxxxx	niebieski	blue	hit	n/a
21.7703	n/a	RESPONSE	n/a	n/a	n/a	n/a	n/a	n/a	n/a	blue
21.8071	0.5167	FEEDBACK	n/a	n/a	n/a	n/a	n/a	n/a	n/a	n/a
22.3238	1.0167	ITI	n/a	n/a	n/a	n/a	n/a	n/a	n/a	n/a
23.3405	0.5167	FIXCROSS	n/a	n/a	n/a	n/a	n/a	n/a	n/a	n/a
23.8571	0.65	T_INK	8	Neutral	xxxxxxx	xxxxxxx	żółty	yellow	hit	n/a
24.4736	n/a	RESPONSE	n/a	n/a	n/a	n/a	n/a	n/a	n/a	yellow
24.5071	0.5167	FEEDBACK	n/a	n/a	n/a	n/a	n/a	n/a	n/a	n/a
25.0238	1.0167	ITI	n/a	n/a	n/a	n/a	n/a	n/a	n/a	n/a
26.0405	0.5167	FIXCROSS	n/a	n/a	n/a	n/a	n/a	n/a	n/a	n/a
26.5572	0.7667	T_INK	9	Neutral	xxxxx	xxxxx	czerwony	red	hit	n/a
27.2888	n/a	RESPONSE	n/a	n/a	n/a	n/a	n/a	n/a	n/a	red
27.3238	0.5167	FEEDBACK	n/a	n/a	n/a	n/a	n/a	n/a	n/a	n/a
27.8405	1.0167	ITI	n/a	n/a	n/a	n/a	n/a	n/a	n/a	n/a
28.8572	0.5167	FIXCROSS	n/a	n/a	n/a	n/a	n/a	n/a	n/a	n/a
29.3738	1.0833	T_INK	10	Incongruent	czerwony	red	zielony	green	hit	n/a
30.424	n/a	RESPONSE	n/a	n/a	n/a	n/a	n/a	n/a	n/a	green
30.4572	0.5167	FEEDBACK	n/a	n/a	n/a	n/a	n/a	n/a	n/a	n/a
30.9739	1.0167	ITI	n/a	n/a	n/a	n/a	n/a	n/a	n/a	n/a
31.9905	0.5167	FIXCROSS	n/a	n/a	n/a	n/a	n/a	n/a	n/a	n/a
32.5072	0.7833	T_INK	11	Neutral	xxxxxxxx	xxxxxxxx	niebieski	blue	hit	n/a
33.2553	n/a	RESPONSE	n/a	n/a	n/a	n/a	n/a	n/a	n/a	blue
33.2905	0.5167	FEEDBACK	n/a	n/a	n/a	n/a	n/a	n/a	n/a	n/a
33.8072	1.0333	ITI	n/a	n/a	n/a	n/a	n/a	n/a	n/a	n/a
34.8406	0.5167	FIXCROSS	n/a	n/a	n/a	n/a	n/a	n/a	n/a	n/a
35.3572	1.3333	T_INK	12	Incongruent	żółty	yellow	zielony	green	hit	n/a
36.6625	n/a	RESPONSE	n/a	n/a	n/a	n/a	n/a	n/a	n/a	green
36.6906	0.5167	FEEDBACK	n/a	n/a	n/a	n/a	n/a	n/a	n/a	n/a
37.2072	1.0333	ITI	n/a	n/a	n/a	n/a	n/a	n/a	n/a	n/a
45.7322	n/a	RESPONSE	n/a	n/a	n/a	n/a	n/a	n/a	n/a	n/a
45.7906	1.0167	ITI	n/a	n/a	n/a	n/a	n/a	n/a	n/a	n/a
46.8073	0.5167	FIXCROSS	n/a	n/a	n/a	n/a	n/a	n/a	n/a	n/a
47.324	1.1833	INK	1	Incongruent	zielony	green	niebieski	blue	hit	n/a
48.4835	n/a	RESPONSE	n/a	n/a	n/a	n/a	n/a	n/a	n/a	blue
48.5073	1.0167	ITI	n/a	n/a	n/a	n/a	n/a	n/a	n/a	n/a
49.524	0.5167	FIXCROSS	n/a	n/a	n/a	n/a	n/a	n/a	n/a	n/a
50.0407	1.2	INK	2	Incongruent	czerwony	red	żółty	yellow	hit	n/a
51.2189	n/a	RESPONSE	n/a	n/a	n/a	n/a	n/a	n/a	n/a	yellow
51.2407	1.0167	ITI	n/a	n/a	n/a	n/a	n/a	n/a	n/a	n/a
52.2574	0.5167	FIXCROSS	n/a	n/a	n/a	n/a	n/a	n/a	n/a	n/a
52.774	1.1667	INK	3	Incongruent	niebieski	blue	czerwony	red	hit	n/a
53.9062	n/a	RESPONSE	n/a	n/a	n/a	n/a	n/a	n/a	n/a	red
53.9407	1.0167	ITI	n/a	n/a	n/a	n/a	n/a	n/a	n/a	n/a
54.9574	0.5167	FIXCROSS	n/a	n/a	n/a	n/a	n/a	n/a	n/a	n/a
55.4741	1.2333	INK	4	Incongruent	żółty	yellow	niebieski	blue	hit	n/a
56.6895	n/a	RESPONSE	n/a	n/a	n/a	n/a	n/a	n/a	n/a	blue
56.7074	1.0167	ITI	n/a	n/a	n/a	n/a	n/a	n/a	n/a	n/a
57.7241	0.5167	FIXCROSS	n/a	n/a	n/a	n/a	n/a	n/a	n/a	n/a
58.2407	0.8	INK	5	Neutral	xxxxxxxx	xxxxxxxx	niebieski	blue	hit	n/a
59.0089	n/a	RESPONSE	n/a	n/a	n/a	n/a	n/a	n/a	n/a	blue
59.0408	1.0167	ITI	n/a	n/a	n/a	n/a	n/a	n/a	n/a	n/a
60.0574	0.5167	FIXCROSS	n/a	n/a	n/a	n/a	n/a	n/a	n/a	n/a
60.5741	0.85	INK	6	Incongruent	zielony	green	żółty	yellow	hit	n/a
61.3923	n/a	RESPONSE	n/a	n/a	n/a	n/a	n/a	n/a	n/a	yellow
61.4241	1.0167	ITI	n/a	n/a	n/a	n/a	n/a	n/a	n/a	n/a
62.4408	0.5167	FIXCROSS	n/a	n/a	n/a	n/a	n/a	n/a	n/a	n/a
62.9574	0.6667	INK	7	Neutral	xxxxxxx	xxxxxxx	żółty	yellow	hit	n/a
63.5998	n/a	RESPONSE	n/a	n/a	n/a	n/a	n/a	n/a	n/a	yellow
63.6241	1.0333	ITI	n/a	n/a	n/a	n/a	n/a	n/a	n/a	n/a
64.6575	0.5167	FIXCROSS	n/a	n/a	n/a	n/a	n/a	n/a	n/a	n/a
65.1741	0.7167	INK	8	Neutral	xxxxxxx	xxxxxxx	żółty	yellow	hit	n/a
65.8553	n/a	RESPONSE	n/a	n/a	n/a	n/a	n/a	n/a	n/a	yellow
65.8908	1.0167	ITI	n/a	n/a	n/a	n/a	n/a	n/a	n/a	n/a
66.9075	0.5167	FIXCROSS	n/a	n/a	n/a	n/a	n/a	n/a	n/a	n/a
67.4241	3.25	INK	9	Incongruent	czerwony	red	zielony	green	hit	n/a
70.6541	n/a	RESPONSE	n/a	n/a	n/a	n/a	n/a	n/a	n/a	green
70.6742	1.0167	ITI	n/a	n/a	n/a	n/a	n/a	n/a	n/a	n/a
71.6908	0.5167	FIXCROSS	n/a	n/a	n/a	n/a	n/a	n/a	n/a	n/a
72.2075	0.7667	INK	10	Incongruent	niebieski	blue	zielony	green	hit	n/a
72.9415	n/a	RESPONSE	n/a	n/a	n/a	n/a	n/a	n/a	n/a	green
72.9742	1.0167	ITI	n/a	n/a	n/a	n/a	n/a	n/a	n/a	n/a
73.9909	0.5167	FIXCROSS	n/a	n/a	n/a	n/a	n/a	n/a	n/a	n/a
74.5075	0.6667	INK	11	Incongruent	czerwony	red	niebieski	blue	hit	n/a
75.149	n/a	RESPONSE	n/a	n/a	n/a	n/a	n/a	n/a	n/a	blue
75.1742	1.0167	ITI	n/a	n/a	n/a	n/a	n/a	n/a	n/a	n/a
76.1909	0.5167	FIXCROSS	n/a	n/a	n/a	n/a	n/a	n/a	n/a	n/a
76.7076	0.65	INK	12	Neutral	xxxxxxx	xxxxxxx	niebieski	blue	hit	n/a
77.3244	n/a	RESPONSE	n/a	n/a	n/a	n/a	n/a	n/a	n/a	blue
77.3576	1.0167	ITI	n/a	n/a	n/a	n/a	n/a	n/a	n/a	n/a
78.3742	0.5167	FIXCROSS	n/a	n/a	n/a	n/a	n/a	n/a	n/a	n/a
78.8909	1.25	INK	13	Incongruent	żółty	yellow	zielony	green	hit	n/a
80.1077	n/a	RESPONSE	n/a	n/a	n/a	n/a	n/a	n/a	n/a	green
80.1409	1.0167	ITI	n/a	n/a	n/a	n/a	n/a	n/a	n/a	n/a
81.1576	0.5167	FIXCROSS	n/a	n/a	n/a	n/a	n/a	n/a	n/a	n/a
81.6743	0.9667	INK	14	Incongruent	żółty	yellow	czerwony	red	hit	n/a
82.6191	n/a	RESPONSE	n/a	n/a	n/a	n/a	n/a	n/a	n/a	red
82.6409	1.0167	ITI	n/a	n/a	n/a	n/a	n/a	n/a	n/a	n/a
83.6576	0.5167	FIXCROSS	n/a	n/a	n/a	n/a	n/a	n/a	n/a	n/a
84.1743	0.9667	INK	15	Incongruent	niebieski	blue	żółty	yellow	hit	n/a
85.1145	n/a	RESPONSE	n/a	n/a	n/a	n/a	n/a	n/a	n/a	yellow
85.141	1.0167	ITI	n/a	n/a	n/a	n/a	n/a	n/a	n/a	n/a
86.1576	0.5167	FIXCROSS	n/a	n/a	n/a	n/a	n/a	n/a	n/a	n/a
86.6743	1.0333	INK	16	Neutral	xxxxxxxxx	xxxxxxxxx	zielony	green	incorrect	n/a
87.6739	n/a	RESPONSE	n/a	n/a	n/a	n/a	n/a	n/a	n/a	blue
87.7076	1.0167	ITI	n/a	n/a	n/a	n/a	n/a	n/a	n/a	n/a
88.7243	0.5167	FIXCROSS	n/a	n/a	n/a	n/a	n/a	n/a	n/a	n/a
89.241	1.8	INK	17	Incongruent	niebieski	blue	czerwony	red	hit	n/a
91.0171	n/a	RESPONSE	n/a	n/a	n/a	n/a	n/a	n/a	n/a	red
91.041	1.0167	ITI	n/a	n/a	n/a	n/a	n/a	n/a	n/a	n/a
92.0577	0.5167	FIXCROSS	n/a	n/a	n/a	n/a	n/a	n/a	n/a	n/a
92.5744	2.1833	INK	18	Incongruent	czerwony	red	niebieski	blue	hit	n/a
94.7281	n/a	RESPONSE	n/a	n/a	n/a	n/a	n/a	n/a	n/a	blue
94.7577	1.0167	ITI	n/a	n/a	n/a	n/a	n/a	n/a	n/a	n/a
95.7744	0.5167	FIXCROSS	n/a	n/a	n/a	n/a	n/a	n/a	n/a	n/a
96.2911	0.7333	INK	19	Neutral	xxxxxxxxx	xxxxxxxxx	żółty	yellow	hit	n/a
96.9996	n/a	RESPONSE	n/a	n/a	n/a	n/a	n/a	n/a	n/a	yellow
97.0244	1.0167	ITI	n/a	n/a	n/a	n/a	n/a	n/a	n/a	n/a
98.0411	0.5167	FIXCROSS	n/a	n/a	n/a	n/a	n/a	n/a	n/a	n/a
98.5577	0.7167	INK	20	Incongruent	zielony	green	żółty	yellow	hit	n/a
99.255	n/a	RESPONSE	n/a	n/a	n/a	n/a	n/a	n/a	n/a	yellow
99.2744	1.0167	ITI	n/a	n/a	n/a	n/a	n/a	n/a	n/a	n/a
100.2911	0.5167	FIXCROSS	n/a	n/a	n/a	n/a	n/a	n/a	n/a	n/a
100.8077	0.8	INK	21	Neutral	xxxxx	xxxxx	zielony	green	hit	n/a
101.5905	n/a	RESPONSE	n/a	n/a	n/a	n/a	n/a	n/a	n/a	green
101.6078	1.0167	ITI	n/a	n/a	n/a	n/a	n/a	n/a	n/a	n/a
102.6244	0.5167	FIXCROSS	n/a	n/a	n/a	n/a	n/a	n/a	n/a	n/a
103.1411	0.6833	INK	22	Incongruent	czerwony	red	niebieski	blue	hit	n/a
103.7979	n/a	RESPONSE	n/a	n/a	n/a	n/a	n/a	n/a	n/a	blue
103.8244	1.0167	ITI	n/a	n/a	n/a	n/a	n/a	n/a	n/a	n/a
104.8411	0.5167	FIXCROSS	n/a	n/a	n/a	n/a	n/a	n/a	n/a	n/a
105.3578	0.55	INK	23	Neutral	xxxxxxxx	xxxxxxxx	żółty	yellow	hit	n/a
105.8774	n/a	RESPONSE	n/a	n/a	n/a	n/a	n/a	n/a	n/a	yellow
105.9078	1.0167	ITI	n/a	n/a	n/a	n/a	n/a	n/a	n/a	n/a
106.9245	0.5167	FIXCROSS	n/a	n/a	n/a	n/a	n/a	n/a	n/a	n/a
107.4411	0.5333	INK	24	Neutral	xxxxx	xxxxx	zielony	green	hit	n/a
107.9569	n/a	RESPONSE	n/a	n/a	n/a	n/a	n/a	n/a	n/a	green
107.9745	1.0167	ITI	n/a	n/a	n/a	n/a	n/a	n/a	n/a	n/a
108.9912	0.5167	FIXCROSS	n/a	n/a	n/a	n/a	n/a	n/a	n/a	n/a
109.5078	0.5	INK	25	Neutral	xxxxx	xxxxx	czerwony	red	hit	n/a
109.9884	n/a	RESPONSE	n/a	n/a	n/a	n/a	n/a	n/a	n/a	red
110.0078	1.0167	ITI	n/a	n/a	n/a	n/a	n/a	n/a	n/a	n/a
111.0245	0.5167	FIXCROSS	n/a	n/a	n/a	n/a	n/a	n/a	n/a	n/a
111.5412	0.6667	INK	26	Neutral	xxxxxxxxx	xxxxxxxxx	żółty	yellow	hit	n/a
112.1798	n/a	RESPONSE	n/a	n/a	n/a	n/a	n/a	n/a	n/a	yellow
112.2078	1.0167	ITI	n/a	n/a	n/a	n/a	n/a	n/a	n/a	n/a
113.2245	0.5167	FIXCROSS	n/a	n/a	n/a	n/a	n/a	n/a	n/a	n/a
113.7412	0.7833	INK	27	Neutral	xxxxx	xxxxx	niebieski	blue	hit	n/a
114.4993	n/a	RESPONSE	n/a	n/a	n/a	n/a	n/a	n/a	n/a	blue
114.5245	1.0167	ITI	n/a	n/a	n/a	n/a	n/a	n/a	n/a	n/a
115.5412	0.5167	FIXCROSS	n/a	n/a	n/a	n/a	n/a	n/a	n/a	n/a
116.0579	0.6333	INK	28	Incongruent	czerwony	red	żółty	yellow	hit	n/a
116.6587	n/a	RESPONSE	n/a	n/a	n/a	n/a	n/a	n/a	n/a	yellow
116.6912	1.0167	ITI	n/a	n/a	n/a	n/a	n/a	n/a	n/a	n/a
117.7079	0.5167	FIXCROSS	n/a	n/a	n/a	n/a	n/a	n/a	n/a	n/a
118.2246	0.5667	INK	29	Incongruent	zielony	green	czerwony	red	hit	n/a
118.7702	n/a	RESPONSE	n/a	n/a	n/a	n/a	n/a	n/a	n/a	red
118.7912	1.0167	ITI	n/a	n/a	n/a	n/a	n/a	n/a	n/a	n/a
119.8079	0.5167	FIXCROSS	n/a	n/a	n/a	n/a	n/a	n/a	n/a	n/a
120.3246	0.6667	INK	30	Incongruent	niebieski	blue	czerwony	red	hit	n/a
120.9617	n/a	RESPONSE	n/a	n/a	n/a	n/a	n/a	n/a	n/a	red
120.9913	1.0167	ITI	n/a	n/a	n/a	n/a	n/a	n/a	n/a	n/a
122.0079	0.5167	FIXCROSS	n/a	n/a	n/a	n/a	n/a	n/a	n/a	n/a
122.5246	0.6833	INK	31	Incongruent	zielony	green	czerwony	red	hit	n/a
123.1851	n/a	RESPONSE	n/a	n/a	n/a	n/a	n/a	n/a	n/a	red
123.2079	1.0167	ITI	n/a	n/a	n/a	n/a	n/a	n/a	n/a	n/a
124.2246	0.5167	FIXCROSS	n/a	n/a	n/a	n/a	n/a	n/a	n/a	n/a
124.7413	0.8834	INK	32	Neutral	xxxxxxxx	xxxxxxxx	zielony	green	hit	n/a
125.6005	n/a	RESPONSE	n/a	n/a	n/a	n/a	n/a	n/a	n/a	green
125.6246	1.0167	ITI	n/a	n/a	n/a	n/a	n/a	n/a	n/a	n/a
126.6413	0.5167	FIXCROSS	n/a	n/a	n/a	n/a	n/a	n/a	n/a	n/a
127.158	0.7833	INK	33	Neutral	xxxxxxxxx	xxxxxxxxx	żółty	yellow	hit	n/a
127.92	n/a	RESPONSE	n/a	n/a	n/a	n/a	n/a	n/a	n/a	yellow
127.9413	1.0167	ITI	n/a	n/a	n/a	n/a	n/a	n/a	n/a	n/a
128.958	0.5167	FIXCROSS	n/a	n/a	n/a	n/a	n/a	n/a	n/a	n/a
129.4746	0.5833	INK	34	Neutral	xxxxxxxx	xxxxxxxx	żółty	yellow	hit	n/a
130.0315	n/a	RESPONSE	n/a	n/a	n/a	n/a	n/a	n/a	n/a	yellow
130.058	1.0167	ITI	n/a	n/a	n/a	n/a	n/a	n/a	n/a	n/a
131.0747	0.5167	FIXCROSS	n/a	n/a	n/a	n/a	n/a	n/a	n/a	n/a
131.5913	0.6333	INK	35	Neutral	xxxxxxxx	xxxxxxxx	żółty	yellow	hit	n/a
132.2069	n/a	RESPONSE	n/a	n/a	n/a	n/a	n/a	n/a	n/a	yellow
132.2247	1.0167	ITI	n/a	n/a	n/a	n/a	n/a	n/a	n/a	n/a
133.2414	0.5167	FIXCROSS	n/a	n/a	n/a	n/a	n/a	n/a	n/a	n/a
133.758	0.7833	INK	36	Incongruent	niebieski	blue	zielony	green	hit	n/a
134.5103	n/a	RESPONSE	n/a	n/a	n/a	n/a	n/a	n/a	n/a	green
134.5414	1.0167	ITI	n/a	n/a	n/a	n/a	n/a	n/a	n/a	n/a
135.558	0.5167	FIXCROSS	n/a	n/a	n/a	n/a	n/a	n/a	n/a	n/a
136.0747	0.4833	INK	37	Incongruent	niebieski	blue	zielony	green	hit	n/a
136.5259	n/a	RESPONSE	n/a	n/a	n/a	n/a	n/a	n/a	n/a	green
136.558	1.0167	ITI	n/a	n/a	n/a	n/a	n/a	n/a	n/a	n/a
137.5747	0.5167	FIXCROSS	n/a	n/a	n/a	n/a	n/a	n/a	n/a	n/a
138.0914	0.5333	INK	38	Neutral	xxxxxxxxx	xxxxxxxxx	czerwony	red	hit	n/a
138.6054	n/a	RESPONSE	n/a	n/a	n/a	n/a	n/a	n/a	n/a	red
138.6247	1.0167	ITI	n/a	n/a	n/a	n/a	n/a	n/a	n/a	n/a
139.6414	0.5167	FIXCROSS	n/a	n/a	n/a	n/a	n/a	n/a	n/a	n/a
140.1581	0.7333	INK	39	Neutral	xxxxxxxxx	xxxxxxxxx	zielony	green	hit	n/a
140.8608	n/a	RESPONSE	n/a	n/a	n/a	n/a	n/a	n/a	n/a	green
140.8914	1.0167	ITI	n/a	n/a	n/a	n/a	n/a	n/a	n/a	n/a
141.9081	0.5167	FIXCROSS	n/a	n/a	n/a	n/a	n/a	n/a	n/a	n/a
142.4248	0.4167	INK	40	Neutral	xxxxxxxxx	xxxxxxxxx	zielony	green	hit	n/a
142.8123	n/a	RESPONSE	n/a	n/a	n/a	n/a	n/a	n/a	n/a	green
142.8414	1.0167	ITI	n/a	n/a	n/a	n/a	n/a	n/a	n/a	n/a
143.8581	0.5167	FIXCROSS	n/a	n/a	n/a	n/a	n/a	n/a	n/a	n/a
144.3748	0.6667	INK	41	Neutral	xxxxxxxxx	xxxxxxxxx	czerwony	red	hit	n/a
145.0197	n/a	RESPONSE	n/a	n/a	n/a	n/a	n/a	n/a	n/a	red
145.0414	1.0167	ITI	n/a	n/a	n/a	n/a	n/a	n/a	n/a	n/a
146.0581	0.5167	FIXCROSS	n/a	n/a	n/a	n/a	n/a	n/a	n/a	n/a
146.5748	0.75	INK	42	Neutral	xxxxx	xxxxx	niebieski	blue	hit	n/a
147.3072	n/a	RESPONSE	n/a	n/a	n/a	n/a	n/a	n/a	n/a	blue
147.3248	1.0167	ITI	n/a	n/a	n/a	n/a	n/a	n/a	n/a	n/a
148.3415	0.5167	FIXCROSS	n/a	n/a	n/a	n/a	n/a	n/a	n/a	n/a
148.8581	0.85	INK	43	Incongruent	żółty	yellow	zielony	green	hit	n/a
149.6746	n/a	RESPONSE	n/a	n/a	n/a	n/a	n/a	n/a	n/a	green
149.7082	1.0167	ITI	n/a	n/a	n/a	n/a	n/a	n/a	n/a	n/a
150.7248	0.5167	FIXCROSS	n/a	n/a	n/a	n/a	n/a	n/a	n/a	n/a
151.2415	0.7667	INK	44	Incongruent	czerwony	red	żółty	yellow	hit	n/a
151.9781	n/a	RESPONSE	n/a	n/a	n/a	n/a	n/a	n/a	n/a	yellow
152.0082	1.0167	ITI	n/a	n/a	n/a	n/a	n/a	n/a	n/a	n/a
153.0248	0.5167	FIXCROSS	n/a	n/a	n/a	n/a	n/a	n/a	n/a	n/a
153.5415	0.5833	INK	45	Neutral	xxxxxxxx	xxxxxxxx	zielony	green	hit	n/a
154.1055	n/a	RESPONSE	n/a	n/a	n/a	n/a	n/a	n/a	n/a	green
154.1248	1.0167	ITI	n/a	n/a	n/a	n/a	n/a	n/a	n/a	n/a
155.1415	0.5167	FIXCROSS	n/a	n/a	n/a	n/a	n/a	n/a	n/a	n/a
155.6582	0.4167	INK	46	Incongruent	czerwony	red	zielony	green	hit	n/a
156.0411	n/a	RESPONSE	n/a	n/a	n/a	n/a	n/a	n/a	n/a	green
156.0749	1.0167	ITI	n/a	n/a	n/a	n/a	n/a	n/a	n/a	n/a
157.0915	0.5167	FIXCROSS	n/a	n/a	n/a	n/a	n/a	n/a	n/a	n/a
157.6082	1.2333	INK	47	Neutral	xxxxx	xxxxx	niebieski	blue	hit	n/a
158.8083	n/a	RESPONSE	n/a	n/a	n/a	n/a	n/a	n/a	n/a	blue
158.8416	1.0167	ITI	n/a	n/a	n/a	n/a	n/a	n/a	n/a	n/a
159.8582	0.5167	FIXCROSS	n/a	n/a	n/a	n/a	n/a	n/a	n/a	n/a
160.3749	0.6167	INK	48	Incongruent	zielony	green	niebieski	blue	hit	n/a
160.9678	n/a	RESPONSE	n/a	n/a	n/a	n/a	n/a	n/a	n/a	blue
160.9916	1.0167	ITI	n/a	n/a	n/a	n/a	n/a	n/a	n/a	n/a
162.0082	0.5167	FIXCROSS	n/a	n/a	n/a	n/a	n/a	n/a	n/a	n/a
162.5249	0.6	INK	49	Incongruent	żółty	yellow	niebieski	blue	hit	n/a
163.0953	n/a	RESPONSE	n/a	n/a	n/a	n/a	n/a	n/a	n/a	blue
163.1249	1.0167	ITI	n/a	n/a	n/a	n/a	n/a	n/a	n/a	n/a
164.1416	0.5167	FIXCROSS	n/a	n/a	n/a	n/a	n/a	n/a	n/a	n/a
164.6583	0.5833	INK	50	Neutral	xxxxx	xxxxx	czerwony	red	hit	n/a
165.2228	n/a	RESPONSE	n/a	n/a	n/a	n/a	n/a	n/a	n/a	red
165.2416	1.0167	ITI	n/a	n/a	n/a	n/a	n/a	n/a	n/a	n/a
166.2583	0.5167	FIXCROSS	n/a	n/a	n/a	n/a	n/a	n/a	n/a	n/a
166.7749	0.6667	INK	51	Neutral	xxxxxxxx	xxxxxxxx	zielony	green	hit	n/a
167.4143	n/a	RESPONSE	n/a	n/a	n/a	n/a	n/a	n/a	n/a	green
167.4416	1.0167	ITI	n/a	n/a	n/a	n/a	n/a	n/a	n/a	n/a
168.4583	0.5167	FIXCROSS	n/a	n/a	n/a	n/a	n/a	n/a	n/a	n/a
168.975	0.6667	INK	52	Neutral	xxxxxxx	xxxxxxx	niebieski	blue	hit	n/a
169.6217	n/a	RESPONSE	n/a	n/a	n/a	n/a	n/a	n/a	n/a	blue
169.6416	1.0167	ITI	n/a	n/a	n/a	n/a	n/a	n/a	n/a	n/a
170.6583	0.5167	FIXCROSS	n/a	n/a	n/a	n/a	n/a	n/a	n/a	n/a
171.175	0.45	INK	53	Neutral	xxxxxxxxx	xxxxxxxxx	czerwony	red	hit	n/a
171.6052	n/a	RESPONSE	n/a	n/a	n/a	n/a	n/a	n/a	n/a	red
171.625	1.0167	ITI	n/a	n/a	n/a	n/a	n/a	n/a	n/a	n/a
172.6417	0.5167	FIXCROSS	n/a	n/a	n/a	n/a	n/a	n/a	n/a	n/a
173.1583	0.7	INK	54	Neutral	xxxxxxxx	xxxxxxxx	niebieski	blue	hit	n/a
173.8286	n/a	RESPONSE	n/a	n/a	n/a	n/a	n/a	n/a	n/a	blue
173.8583	1.0167	ITI	n/a	n/a	n/a	n/a	n/a	n/a	n/a	n/a
174.875	0.5167	FIXCROSS	n/a	n/a	n/a	n/a	n/a	n/a	n/a	n/a
175.3917	0.7667	INK	55	Neutral	xxxxxxxx	xxxxxxxx	niebieski	blue	hit	n/a
176.1321	n/a	RESPONSE	n/a	n/a	n/a	n/a	n/a	n/a	n/a	blue
176.1584	1.0167	ITI	n/a	n/a	n/a	n/a	n/a	n/a	n/a	n/a
177.175	0.5167	FIXCROSS	n/a	n/a	n/a	n/a	n/a	n/a	n/a	n/a
177.6917	0.7167	INK	56	Incongruent	żółty	yellow	zielony	green	hit	n/a
178.3875	n/a	RESPONSE	n/a	n/a	n/a	n/a	n/a	n/a	n/a	green
178.4084	1.0167	ITI	n/a	n/a	n/a	n/a	n/a	n/a	n/a	n/a
179.4251	0.5167	FIXCROSS	n/a	n/a	n/a	n/a	n/a	n/a	n/a	n/a
179.9417	0.7667	INK	57	Incongruent	żółty	yellow	czerwony	red	hit	n/a
180.691	n/a	RESPONSE	n/a	n/a	n/a	n/a	n/a	n/a	n/a	red
180.7084	1.0167	ITI	n/a	n/a	n/a	n/a	n/a	n/a	n/a	n/a
181.7251	0.5167	FIXCROSS	n/a	n/a	n/a	n/a	n/a	n/a	n/a	n/a
182.2417	0.8833	INK	58	Incongruent	czerwony	red	zielony	green	hit	n/a
183.1064	n/a	RESPONSE	n/a	n/a	n/a	n/a	n/a	n/a	n/a	green
183.1251	1.0167	ITI	n/a	n/a	n/a	n/a	n/a	n/a	n/a	n/a
184.1418	0.5167	FIXCROSS	n/a	n/a	n/a	n/a	n/a	n/a	n/a	n/a
184.6584	0.65	INK	59	Neutral	xxxxxxx	xxxxxxx	żółty	yellow	hit	n/a
185.2819	n/a	RESPONSE	n/a	n/a	n/a	n/a	n/a	n/a	n/a	yellow
185.3084	1.0167	ITI	n/a	n/a	n/a	n/a	n/a	n/a	n/a	n/a
186.3251	0.5167	FIXCROSS	n/a	n/a	n/a	n/a	n/a	n/a	n/a	n/a
186.8418	0.8167	INK	60	Incongruent	zielony	green	czerwony	red	hit	n/a
187.6333	n/a	RESPONSE	n/a	n/a	n/a	n/a	n/a	n/a	n/a	red
187.6585	1.0167	ITI	n/a	n/a	n/a	n/a	n/a	n/a	n/a	n/a
188.6751	0.5167	FIXCROSS	n/a	n/a	n/a	n/a	n/a	n/a	n/a	n/a
189.1918	0.8167	INK	61	Incongruent	zielony	green	niebieski	blue	hit	n/a
189.9847	n/a	RESPONSE	n/a	n/a	n/a	n/a	n/a	n/a	n/a	blue
190.0085	1.0167	ITI	n/a	n/a	n/a	n/a	n/a	n/a	n/a	n/a
191.0252	0.5167	FIXCROSS	n/a	n/a	n/a	n/a	n/a	n/a	n/a	n/a
191.5418	0.5167	INK	62	Neutral	xxxxx	xxxxx	zielony	green	hit	n/a
192.0322	n/a	RESPONSE	n/a	n/a	n/a	n/a	n/a	n/a	n/a	green
192.0585	1.0167	ITI	n/a	n/a	n/a	n/a	n/a	n/a	n/a	n/a
193.0752	0.5167	FIXCROSS	n/a	n/a	n/a	n/a	n/a	n/a	n/a	n/a
193.5918	0.7833	INK	63	Incongruent	niebieski	blue	żółty	yellow	hit	n/a
194.3516	n/a	RESPONSE	n/a	n/a	n/a	n/a	n/a	n/a	n/a	yellow
194.3752	1.0167	ITI	n/a	n/a	n/a	n/a	n/a	n/a	n/a	n/a
195.3919	0.5167	FIXCROSS	n/a	n/a	n/a	n/a	n/a	n/a	n/a	n/a
195.9085	0.6667	INK	64	Neutral	xxxxxxx	xxxxxxx	czerwony	red	hit	n/a
196.5431	n/a	RESPONSE	n/a	n/a	n/a	n/a	n/a	n/a	n/a	red
196.5752	1.0167	ITI	n/a	n/a	n/a	n/a	n/a	n/a	n/a	n/a
197.5919	0.5167	FIXCROSS	n/a	n/a	n/a	n/a	n/a	n/a	n/a	n/a
198.1085	0.9167	INK	65	Incongruent	żółty	yellow	niebieski	blue	hit	n/a
199.0065	n/a	RESPONSE	n/a	n/a	n/a	n/a	n/a	n/a	n/a	blue
199.0252	1.0167	ITI	n/a	n/a	n/a	n/a	n/a	n/a	n/a	n/a
200.0419	0.5167	FIXCROSS	n/a	n/a	n/a	n/a	n/a	n/a	n/a	n/a
200.5586	0.8167	INK	66	Incongruent	niebieski	blue	żółty	yellow	hit	n/a
201.3419	n/a	RESPONSE	n/a	n/a	n/a	n/a	n/a	n/a	n/a	yellow
201.3752	1.0167	ITI	n/a	n/a	n/a	n/a	n/a	n/a	n/a	n/a
202.3919	0.5167	FIXCROSS	n/a	n/a	n/a	n/a	n/a	n/a	n/a	n/a
202.9086	0.5167	INK	67	Neutral	xxxxx	xxxxx	czerwony	red	hit	n/a
203.4054	n/a	RESPONSE	n/a	n/a	n/a	n/a	n/a	n/a	n/a	red
203.4252	1.0167	ITI	n/a	n/a	n/a	n/a	n/a	n/a	n/a	n/a
204.4419	0.5167	FIXCROSS	n/a	n/a	n/a	n/a	n/a	n/a	n/a	n/a
204.9586	0.8667	INK	68	Neutral	xxxxxxx	xxxxxxx	niebieski	blue	hit	n/a
205.8048	n/a	RESPONSE	n/a	n/a	n/a	n/a	n/a	n/a	n/a	blue
205.8253	1.0167	ITI	n/a	n/a	n/a	n/a	n/a	n/a	n/a	n/a
206.8419	0.5167	FIXCROSS	n/a	n/a	n/a	n/a	n/a	n/a	n/a	n/a
207.3586	0.8167	INK	69	Neutral	xxxxxxx	xxxxxxx	czerwony	red	hit	n/a
208.1562	n/a	RESPONSE	n/a	n/a	n/a	n/a	n/a	n/a	n/a	red
208.1753	1.0167	ITI	n/a	n/a	n/a	n/a	n/a	n/a	n/a	n/a
209.192	0.5167	FIXCROSS	n/a	n/a	n/a	n/a	n/a	n/a	n/a	n/a
209.7086	0.5333	INK	70	Neutral	xxxxxxx	xxxxxxx	czerwony	red	hit	n/a
210.2197	n/a	RESPONSE	n/a	n/a	n/a	n/a	n/a	n/a	n/a	red
210.242	1.0167	ITI	n/a	n/a	n/a	n/a	n/a	n/a	n/a	n/a
211.2586	0.5167	FIXCROSS	n/a	n/a	n/a	n/a	n/a	n/a	n/a	n/a
211.7753	0.8167	INK	71	Incongruent	zielony	green	żółty	yellow	hit	n/a
212.5711	n/a	RESPONSE	n/a	n/a	n/a	n/a	n/a	n/a	n/a	yellow
212.592	1.0167	ITI	n/a	n/a	n/a	n/a	n/a	n/a	n/a	n/a
213.6087	0.5167	FIXCROSS	n/a	n/a	n/a	n/a	n/a	n/a	n/a	n/a
214.1253	0.4667	INK	72	Incongruent	żółty	yellow	czerwony	red	hit	n/a
214.5706	n/a	RESPONSE	n/a	n/a	n/a	n/a	n/a	n/a	n/a	red
214.592	1.0833	ITI	n/a	n/a	n/a	n/a	n/a	n/a	n/a	n/a
257.2321	n/a	RESPONSE	n/a	n/a	n/a	n/a	n/a	n/a	n/a	n/a
257.2923	1.0167	ITI	n/a	n/a	n/a	n/a	n/a	n/a	n/a	n/a
258.309	0.5167	FIXCROSS	n/a	n/a	n/a	n/a	n/a	n/a	n/a	n/a
258.8257	0.7833	T_COLOR_NAME	1	Neutral	czerwony	red	Neutral	Neutral	hit	n/a
259.5836	n/a	RESPONSE	n/a	n/a	n/a	n/a	n/a	n/a	n/a	red
259.609	0.5167	FEEDBACK	n/a	n/a	n/a	n/a	n/a	n/a	n/a	n/a
260.1257	1.0167	ITI	n/a	n/a	n/a	n/a	n/a	n/a	n/a	n/a
261.1424	0.5167	FIXCROSS	n/a	n/a	n/a	n/a	n/a	n/a	n/a	n/a
261.659	1.0833	T_COLOR_NAME	2	Neutral	zielony	green	Neutral	Neutral	hit	n/a
262.7188	n/a	RESPONSE	n/a	n/a	n/a	n/a	n/a	n/a	n/a	green
262.7424	0.5167	FEEDBACK	n/a	n/a	n/a	n/a	n/a	n/a	n/a	n/a
263.2591	1.0167	ITI	n/a	n/a	n/a	n/a	n/a	n/a	n/a	n/a
264.2757	0.5167	FIXCROSS	n/a	n/a	n/a	n/a	n/a	n/a	n/a	n/a
264.7924	1.1167	T_COLOR_NAME	3	Incongruent	czerwony	red	niebieski	blue	incorrect	n/a
265.886	n/a	RESPONSE	n/a	n/a	n/a	n/a	n/a	n/a	n/a	blue
265.9091	0.5167	FEEDBACK	n/a	n/a	n/a	n/a	n/a	n/a	n/a	n/a
266.4257	1.0167	ITI	n/a	n/a	n/a	n/a	n/a	n/a	n/a	n/a
267.4424	0.5167	FIXCROSS	n/a	n/a	n/a	n/a	n/a	n/a	n/a	n/a
267.9591	1.55	T_COLOR_NAME	4	Neutral	niebieski	blue	Neutral	Neutral	hit	n/a
269.4851	n/a	RESPONSE	n/a	n/a	n/a	n/a	n/a	n/a	n/a	blue
269.5091	0.5167	FEEDBACK	n/a	n/a	n/a	n/a	n/a	n/a	n/a	n/a
270.0258	1.0167	ITI	n/a	n/a	n/a	n/a	n/a	n/a	n/a	n/a
271.0424	0.5167	FIXCROSS	n/a	n/a	n/a	n/a	n/a	n/a	n/a	n/a
271.5591	0.8334	T_COLOR_NAME	5	Incongruent	czerwony	red	zielony	green	hit	n/a
272.3644	n/a	RESPONSE	n/a	n/a	n/a	n/a	n/a	n/a	n/a	red
272.3925	0.5167	FEEDBACK	n/a	n/a	n/a	n/a	n/a	n/a	n/a	n/a
272.9091	1.0167	ITI	n/a	n/a	n/a	n/a	n/a	n/a	n/a	n/a
273.9258	0.5167	FIXCROSS	n/a	n/a	n/a	n/a	n/a	n/a	n/a	n/a
274.4425	0.8333	T_COLOR_NAME	6	Neutral	czerwony	red	Neutral	Neutral	hit	n/a
275.2437	n/a	RESPONSE	n/a	n/a	n/a	n/a	n/a	n/a	n/a	red
275.2758	0.5167	FEEDBACK	n/a	n/a	n/a	n/a	n/a	n/a	n/a	n/a
275.7925	1.0167	ITI	n/a	n/a	n/a	n/a	n/a	n/a	n/a	n/a
276.8092	0.5167	FIXCROSS	n/a	n/a	n/a	n/a	n/a	n/a	n/a	n/a
277.3258	0.8333	T_COLOR_NAME	7	Incongruent	zielony	green	czerwony	red	hit	n/a
278.139	n/a	RESPONSE	n/a	n/a	n/a	n/a	n/a	n/a	n/a	green
278.1592	0.5167	FEEDBACK	n/a	n/a	n/a	n/a	n/a	n/a	n/a	n/a
278.6758	1.0167	ITI	n/a	n/a	n/a	n/a	n/a	n/a	n/a	n/a
279.6925	0.5167	FIXCROSS	n/a	n/a	n/a	n/a	n/a	n/a	n/a	n/a
280.2092	0.7667	T_COLOR_NAME	8	Neutral	żółty	yellow	Neutral	Neutral	hit	n/a
280.9543	n/a	RESPONSE	n/a	n/a	n/a	n/a	n/a	n/a	n/a	yellow
280.9759	0.5167	FEEDBACK	n/a	n/a	n/a	n/a	n/a	n/a	n/a	n/a
281.4925	1.0167	ITI	n/a	n/a	n/a	n/a	n/a	n/a	n/a	n/a
282.5092	0.5167	FIXCROSS	n/a	n/a	n/a	n/a	n/a	n/a	n/a	n/a
283.0259	0.75	T_COLOR_NAME	9	Incongruent	żółty	yellow	zielony	green	hit	n/a
283.7536	n/a	RESPONSE	n/a	n/a	n/a	n/a	n/a	n/a	n/a	yellow
283.7759	0.5167	FEEDBACK	n/a	n/a	n/a	n/a	n/a	n/a	n/a	n/a
284.2926	1.0167	ITI	n/a	n/a	n/a	n/a	n/a	n/a	n/a	n/a
285.3092	0.5167	FIXCROSS	n/a	n/a	n/a	n/a	n/a	n/a	n/a	n/a
285.8259	0.6667	T_COLOR_NAME	10	Incongruent	niebieski	blue	zielony	green	hit	n/a
286.4729	n/a	RESPONSE	n/a	n/a	n/a	n/a	n/a	n/a	n/a	blue
286.4926	0.5167	FEEDBACK	n/a	n/a	n/a	n/a	n/a	n/a	n/a	n/a
287.0092	1.0167	ITI	n/a	n/a	n/a	n/a	n/a	n/a	n/a	n/a
288.0259	0.5167	FIXCROSS	n/a	n/a	n/a	n/a	n/a	n/a	n/a	n/a
288.5426	0.7333	T_COLOR_NAME	11	Neutral	niebieski	blue	Neutral	Neutral	hit	n/a
289.2563	n/a	RESPONSE	n/a	n/a	n/a	n/a	n/a	n/a	n/a	blue
289.2759	0.5167	FEEDBACK	n/a	n/a	n/a	n/a	n/a	n/a	n/a	n/a
289.7926	1.0167	ITI	n/a	n/a	n/a	n/a	n/a	n/a	n/a	n/a
290.8093	0.5167	FIXCROSS	n/a	n/a	n/a	n/a	n/a	n/a	n/a	n/a
291.3259	0.7667	T_COLOR_NAME	12	Neutral	żółty	yellow	Neutral	Neutral	hit	n/a
292.0716	n/a	RESPONSE	n/a	n/a	n/a	n/a	n/a	n/a	n/a	yellow
292.0926	0.5167	FEEDBACK	n/a	n/a	n/a	n/a	n/a	n/a	n/a	n/a
292.6093	1.0334	ITI	n/a	n/a	n/a	n/a	n/a	n/a	n/a	n/a
300.7254	n/a	RESPONSE	n/a	n/a	n/a	n/a	n/a	n/a	n/a	n/a
300.7927	1.0167	ITI	n/a	n/a	n/a	n/a	n/a	n/a	n/a	n/a
301.8094	0.5167	FIXCROSS	n/a	n/a	n/a	n/a	n/a	n/a	n/a	n/a
302.326	0.75	COLOR_NAME	1	Neutral	niebieski	blue	Neutral	Neutral	hit	n/a
303.0448	n/a	RESPONSE	n/a	n/a	n/a	n/a	n/a	n/a	n/a	blue
303.076	1.0167	ITI	n/a	n/a	n/a	n/a	n/a	n/a	n/a	n/a
304.0927	0.5167	FIXCROSS	n/a	n/a	n/a	n/a	n/a	n/a	n/a	n/a
304.6094	0.9667	COLOR_NAME	2	Neutral	zielony	green	Neutral	Neutral	hit	n/a
305.5563	n/a	RESPONSE	n/a	n/a	n/a	n/a	n/a	n/a	n/a	green
305.5761	1.0167	ITI	n/a	n/a	n/a	n/a	n/a	n/a	n/a	n/a
306.5927	0.5167	FIXCROSS	n/a	n/a	n/a	n/a	n/a	n/a	n/a	n/a
307.1094	0.7167	COLOR_NAME	3	Neutral	zielony	green	Neutral	Neutral	hit	n/a
307.7957	n/a	RESPONSE	n/a	n/a	n/a	n/a	n/a	n/a	n/a	green
307.8261	1.0167	ITI	n/a	n/a	n/a	n/a	n/a	n/a	n/a	n/a
308.8428	0.5167	FIXCROSS	n/a	n/a	n/a	n/a	n/a	n/a	n/a	n/a
309.3594	0.8833	COLOR_NAME	4	Neutral	niebieski	blue	Neutral	Neutral	hit	n/a
310.2111	n/a	RESPONSE	n/a	n/a	n/a	n/a	n/a	n/a	n/a	blue
310.2428	1.0167	ITI	n/a	n/a	n/a	n/a	n/a	n/a	n/a	n/a
311.2594	0.5167	FIXCROSS	n/a	n/a	n/a	n/a	n/a	n/a	n/a	n/a
311.7761	0.75	COLOR_NAME	5	Incongruent	czerwony	red	zielony	green	hit	n/a
312.4985	n/a	RESPONSE	n/a	n/a	n/a	n/a	n/a	n/a	n/a	red
312.5261	1.0167	ITI	n/a	n/a	n/a	n/a	n/a	n/a	n/a	n/a
313.5428	0.5167	FIXCROSS	n/a	n/a	n/a	n/a	n/a	n/a	n/a	n/a
314.0595	0.75	COLOR_NAME	6	Neutral	żółty	yellow	Neutral	Neutral	hit	n/a
314.7859	n/a	RESPONSE	n/a	n/a	n/a	n/a	n/a	n/a	n/a	yellow
314.8095	1.0167	ITI	n/a	n/a	n/a	n/a	n/a	n/a	n/a	n/a
315.8261	0.5167	FIXCROSS	n/a	n/a	n/a	n/a	n/a	n/a	n/a	n/a
316.3428	0.55	COLOR_NAME	7	Neutral	czerwony	red	Neutral	Neutral	hit	n/a
316.8654	n/a	RESPONSE	n/a	n/a	n/a	n/a	n/a	n/a	n/a	red
316.8928	1.0167	ITI	n/a	n/a	n/a	n/a	n/a	n/a	n/a	n/a
317.9095	0.5167	FIXCROSS	n/a	n/a	n/a	n/a	n/a	n/a	n/a	n/a
318.4262	0.6	COLOR_NAME	8	Neutral	czerwony	red	Neutral	Neutral	hit	n/a
319.0089	n/a	RESPONSE	n/a	n/a	n/a	n/a	n/a	n/a	n/a	red
319.0262	1.0167	ITI	n/a	n/a	n/a	n/a	n/a	n/a	n/a	n/a
320.0428	0.5167	FIXCROSS	n/a	n/a	n/a	n/a	n/a	n/a	n/a	n/a
320.5595	0.8	COLOR_NAME	9	Neutral	żółty	yellow	Neutral	Neutral	hit	n/a
321.3284	n/a	RESPONSE	n/a	n/a	n/a	n/a	n/a	n/a	n/a	yellow
321.3595	1.0167	ITI	n/a	n/a	n/a	n/a	n/a	n/a	n/a	n/a
322.3762	0.5167	FIXCROSS	n/a	n/a	n/a	n/a	n/a	n/a	n/a	n/a
322.8929	0.7833	COLOR_NAME	10	Neutral	niebieski	blue	Neutral	Neutral	hit	n/a
323.6478	n/a	RESPONSE	n/a	n/a	n/a	n/a	n/a	n/a	n/a	blue
323.6762	1.0167	ITI	n/a	n/a	n/a	n/a	n/a	n/a	n/a	n/a
324.6929	0.5167	FIXCROSS	n/a	n/a	n/a	n/a	n/a	n/a	n/a	n/a
325.2096	0.85	COLOR_NAME	11	Neutral	żółty	yellow	Neutral	Neutral	hit	n/a
326.0312	n/a	RESPONSE	n/a	n/a	n/a	n/a	n/a	n/a	n/a	yellow
326.0596	1.0167	ITI	n/a	n/a	n/a	n/a	n/a	n/a	n/a	n/a
327.0762	0.5167	FIXCROSS	n/a	n/a	n/a	n/a	n/a	n/a	n/a	n/a
327.5929	0.6833	COLOR_NAME	12	Incongruent	żółty	yellow	czerwony	red	hit	n/a
328.2546	n/a	RESPONSE	n/a	n/a	n/a	n/a	n/a	n/a	n/a	yellow
328.2762	1.0167	ITI	n/a	n/a	n/a	n/a	n/a	n/a	n/a	n/a
329.2929	0.5167	FIXCROSS	n/a	n/a	n/a	n/a	n/a	n/a	n/a	n/a
329.8096	0.5167	COLOR_NAME	13	Incongruent	żółty	yellow	czerwony	red	hit	n/a
330.3022	n/a	RESPONSE	n/a	n/a	n/a	n/a	n/a	n/a	n/a	yellow
330.3263	1.0167	ITI	n/a	n/a	n/a	n/a	n/a	n/a	n/a	n/a
331.3429	0.5167	FIXCROSS	n/a	n/a	n/a	n/a	n/a	n/a	n/a	n/a
331.8596	0.9333	COLOR_NAME	14	Neutral	zielony	green	Neutral	Neutral	hit	n/a
332.7655	n/a	RESPONSE	n/a	n/a	n/a	n/a	n/a	n/a	n/a	green
332.7929	1.0167	ITI	n/a	n/a	n/a	n/a	n/a	n/a	n/a	n/a
333.8096	0.5167	FIXCROSS	n/a	n/a	n/a	n/a	n/a	n/a	n/a	n/a
334.3263	0.5333	COLOR_NAME	15	Incongruent	zielony	green	czerwony	red	hit	n/a
334.8291	n/a	RESPONSE	n/a	n/a	n/a	n/a	n/a	n/a	n/a	green
334.8596	1.0167	ITI	n/a	n/a	n/a	n/a	n/a	n/a	n/a	n/a
335.8763	0.5167	FIXCROSS	n/a	n/a	n/a	n/a	n/a	n/a	n/a	n/a
336.393	1.7667	COLOR_NAME	16	Incongruent	czerwony	red	zielony	green	hit	n/a
338.1402	n/a	RESPONSE	n/a	n/a	n/a	n/a	n/a	n/a	n/a	red
338.1597	1.0167	ITI	n/a	n/a	n/a	n/a	n/a	n/a	n/a	n/a
339.1763	0.5167	FIXCROSS	n/a	n/a	n/a	n/a	n/a	n/a	n/a	n/a
339.693	1.1334	COLOR_NAME	17	Neutral	zielony	green	Neutral	Neutral	hit	n/a
340.7956	n/a	RESPONSE	n/a	n/a	n/a	n/a	n/a	n/a	n/a	green
340.8263	1.0167	ITI	n/a	n/a	n/a	n/a	n/a	n/a	n/a	n/a
341.843	0.5167	FIXCROSS	n/a	n/a	n/a	n/a	n/a	n/a	n/a	n/a
342.3597	0.7667	COLOR_NAME	18	Neutral	żółty	yellow	Neutral	Neutral	hit	n/a
343.099	n/a	RESPONSE	n/a	n/a	n/a	n/a	n/a	n/a	n/a	yellow
343.1264	1.0167	ITI	n/a	n/a	n/a	n/a	n/a	n/a	n/a	n/a
344.143	0.5167	FIXCROSS	n/a	n/a	n/a	n/a	n/a	n/a	n/a	n/a
344.6597	0.7667	COLOR_NAME	19	Neutral	niebieski	blue	Neutral	Neutral	hit	n/a
345.4024	n/a	RESPONSE	n/a	n/a	n/a	n/a	n/a	n/a	n/a	blue
345.4264	1.0167	ITI	n/a	n/a	n/a	n/a	n/a	n/a	n/a	n/a
346.4431	0.5167	FIXCROSS	n/a	n/a	n/a	n/a	n/a	n/a	n/a	n/a
346.9597	0.8333	COLOR_NAME	20	Incongruent	zielony	green	czerwony	red	hit	n/a
347.7699	n/a	RESPONSE	n/a	n/a	n/a	n/a	n/a	n/a	n/a	green
347.7931	1.0167	ITI	n/a	n/a	n/a	n/a	n/a	n/a	n/a	n/a
348.8097	0.5167	FIXCROSS	n/a	n/a	n/a	n/a	n/a	n/a	n/a	n/a
349.3264	0.9667	COLOR_NAME	21	Incongruent	żółty	yellow	niebieski	blue	hit	n/a
350.2652	n/a	RESPONSE	n/a	n/a	n/a	n/a	n/a	n/a	n/a	yellow
350.2931	1.0167	ITI	n/a	n/a	n/a	n/a	n/a	n/a	n/a	n/a
351.3098	0.5167	FIXCROSS	n/a	n/a	n/a	n/a	n/a	n/a	n/a	n/a
351.8264	0.95	COLOR_NAME	22	Incongruent	niebieski	blue	czerwony	red	hit	n/a
352.7446	n/a	RESPONSE	n/a	n/a	n/a	n/a	n/a	n/a	n/a	blue
352.7764	1.0167	ITI	n/a	n/a	n/a	n/a	n/a	n/a	n/a	n/a
353.7931	0.5167	FIXCROSS	n/a	n/a	n/a	n/a	n/a	n/a	n/a	n/a
354.3098	0.8167	COLOR_NAME	23	Incongruent	zielony	green	niebieski	blue	hit	n/a
355.0961	n/a	RESPONSE	n/a	n/a	n/a	n/a	n/a	n/a	n/a	green
355.1265	1.0167	ITI	n/a	n/a	n/a	n/a	n/a	n/a	n/a	n/a
356.1431	0.5167	FIXCROSS	n/a	n/a	n/a	n/a	n/a	n/a	n/a	n/a
356.6598	0.8167	COLOR_NAME	24	Neutral	niebieski	blue	Neutral	Neutral	incorrect	n/a
357.4475	n/a	RESPONSE	n/a	n/a	n/a	n/a	n/a	n/a	n/a	green
357.4765	1.0167	ITI	n/a	n/a	n/a	n/a	n/a	n/a	n/a	n/a
358.4932	0.5167	FIXCROSS	n/a	n/a	n/a	n/a	n/a	n/a	n/a	n/a
359.0098	1.8667	COLOR_NAME	25	Neutral	czerwony	red	Neutral	Neutral	hit	n/a
360.8546	n/a	RESPONSE	n/a	n/a	n/a	n/a	n/a	n/a	n/a	red
360.8765	1.0167	ITI	n/a	n/a	n/a	n/a	n/a	n/a	n/a	n/a
361.8932	0.5167	FIXCROSS	n/a	n/a	n/a	n/a	n/a	n/a	n/a	n/a
362.4098	0.8833	COLOR_NAME	26	Incongruent	czerwony	red	żółty	yellow	hit	n/a
363.27	n/a	RESPONSE	n/a	n/a	n/a	n/a	n/a	n/a	n/a	red
363.2932	1.0167	ITI	n/a	n/a	n/a	n/a	n/a	n/a	n/a	n/a
364.3099	0.5167	FIXCROSS	n/a	n/a	n/a	n/a	n/a	n/a	n/a	n/a
364.8265	0.9167	COLOR_NAME	27	Neutral	niebieski	blue	Neutral	Neutral	hit	n/a
365.7174	n/a	RESPONSE	n/a	n/a	n/a	n/a	n/a	n/a	n/a	blue
365.7432	1.0167	ITI	n/a	n/a	n/a	n/a	n/a	n/a	n/a	n/a
366.7599	0.5167	FIXCROSS	n/a	n/a	n/a	n/a	n/a	n/a	n/a	n/a
367.2765	0.8833	COLOR_NAME	28	Neutral	żółty	yellow	Neutral	Neutral	hit	n/a
368.1329	n/a	RESPONSE	n/a	n/a	n/a	n/a	n/a	n/a	n/a	yellow
368.1599	1.0167	ITI	n/a	n/a	n/a	n/a	n/a	n/a	n/a	n/a
369.1766	0.5167	FIXCROSS	n/a	n/a	n/a	n/a	n/a	n/a	n/a	n/a
369.6932	0.8	COLOR_NAME	29	Incongruent	czerwony	red	niebieski	blue	hit	n/a
370.4683	n/a	RESPONSE	n/a	n/a	n/a	n/a	n/a	n/a	n/a	red
370.4932	1.0167	ITI	n/a	n/a	n/a	n/a	n/a	n/a	n/a	n/a
371.5099	0.5167	FIXCROSS	n/a	n/a	n/a	n/a	n/a	n/a	n/a	n/a
372.0266	0.5333	COLOR_NAME	30	Neutral	zielony	green	Neutral	Neutral	hit	n/a
372.5318	n/a	RESPONSE	n/a	n/a	n/a	n/a	n/a	n/a	n/a	green
372.5599	1.0167	ITI	n/a	n/a	n/a	n/a	n/a	n/a	n/a	n/a
373.5766	0.5167	FIXCROSS	n/a	n/a	n/a	n/a	n/a	n/a	n/a	n/a
374.0933	0.7833	COLOR_NAME	31	Incongruent	niebieski	blue	żółty	yellow	hit	n/a
374.8512	n/a	RESPONSE	n/a	n/a	n/a	n/a	n/a	n/a	n/a	blue
374.8766	1.0167	ITI	n/a	n/a	n/a	n/a	n/a	n/a	n/a	n/a
375.8933	0.5167	FIXCROSS	n/a	n/a	n/a	n/a	n/a	n/a	n/a	n/a
376.41	0.6167	COLOR_NAME	32	Neutral	żółty	yellow	Neutral	Neutral	hit	n/a
376.9947	n/a	RESPONSE	n/a	n/a	n/a	n/a	n/a	n/a	n/a	yellow
377.0266	1.0167	ITI	n/a	n/a	n/a	n/a	n/a	n/a	n/a	n/a
378.0433	0.5167	FIXCROSS	n/a	n/a	n/a	n/a	n/a	n/a	n/a	n/a
378.56	0.7333	COLOR_NAME	33	Incongruent	zielony	green	niebieski	blue	hit	n/a
379.2661	n/a	RESPONSE	n/a	n/a	n/a	n/a	n/a	n/a	n/a	green
379.2933	1.0167	ITI	n/a	n/a	n/a	n/a	n/a	n/a	n/a	n/a
380.31	0.5167	FIXCROSS	n/a	n/a	n/a	n/a	n/a	n/a	n/a	n/a
380.8267	0.8833	COLOR_NAME	34	Neutral	żółty	yellow	Neutral	Neutral	hit	n/a
381.6815	n/a	RESPONSE	n/a	n/a	n/a	n/a	n/a	n/a	n/a	yellow
381.71	1.0167	ITI	n/a	n/a	n/a	n/a	n/a	n/a	n/a	n/a
382.7267	0.5167	FIXCROSS	n/a	n/a	n/a	n/a	n/a	n/a	n/a	n/a
383.2433	0.8167	COLOR_NAME	35	Incongruent	niebieski	blue	czerwony	red	hit	n/a
384.0329	n/a	RESPONSE	n/a	n/a	n/a	n/a	n/a	n/a	n/a	blue
384.06	1.0167	ITI	n/a	n/a	n/a	n/a	n/a	n/a	n/a	n/a
385.0767	0.5167	FIXCROSS	n/a	n/a	n/a	n/a	n/a	n/a	n/a	n/a
385.5934	0.65	COLOR_NAME	36	Neutral	zielony	green	Neutral	Neutral	hit	n/a
386.2244	n/a	RESPONSE	n/a	n/a	n/a	n/a	n/a	n/a	n/a	green
386.2434	1.0167	ITI	n/a	n/a	n/a	n/a	n/a	n/a	n/a	n/a
387.26	0.5167	FIXCROSS	n/a	n/a	n/a	n/a	n/a	n/a	n/a	n/a
387.7767	5.0167	COLOR_NAME	37	Incongruent	niebieski	blue	żółty	yellow	incorrect	n/a
388.5918	n/a	RESPONSE	n/a	n/a	n/a	n/a	n/a	n/a	n/a	n/a
389.2156	n/a	RESPONSE	n/a	n/a	n/a	n/a	n/a	n/a	n/a	blue
390.5913	n/a	RESPONSE	n/a	n/a	n/a	n/a	n/a	n/a	n/a	blue
392.7934	1.0167	ITI	n/a	n/a	n/a	n/a	n/a	n/a	n/a	n/a
393.8101	0.5167	FIXCROSS	n/a	n/a	n/a	n/a	n/a	n/a	n/a	n/a
394.3268	0.8667	COLOR_NAME	38	Incongruent	niebieski	blue	zielony	green	hit	n/a
395.1662	n/a	RESPONSE	n/a	n/a	n/a	n/a	n/a	n/a	n/a	blue
395.1934	1.0167	ITI	n/a	n/a	n/a	n/a	n/a	n/a	n/a	n/a
396.2101	0.5167	FIXCROSS	n/a	n/a	n/a	n/a	n/a	n/a	n/a	n/a
396.7268	0.5	COLOR_NAME	39	Incongruent	niebieski	blue	czerwony	red	hit	n/a
397.1977	n/a	RESPONSE	n/a	n/a	n/a	n/a	n/a	n/a	n/a	blue
397.2268	1.0167	ITI	n/a	n/a	n/a	n/a	n/a	n/a	n/a	n/a
398.2435	0.5167	FIXCROSS	n/a	n/a	n/a	n/a	n/a	n/a	n/a	n/a
398.7601	1.2833	COLOR_NAME	40	Incongruent	żółty	yellow	czerwony	red	hit	n/a
400.013	n/a	RESPONSE	n/a	n/a	n/a	n/a	n/a	n/a	n/a	yellow
400.0435	1.0167	ITI	n/a	n/a	n/a	n/a	n/a	n/a	n/a	n/a
401.0602	0.5167	FIXCROSS	n/a	n/a	n/a	n/a	n/a	n/a	n/a	n/a
401.5768	0.9834	COLOR_NAME	41	Incongruent	zielony	green	niebieski	blue	hit	n/a
402.5403	n/a	RESPONSE	n/a	n/a	n/a	n/a	n/a	n/a	n/a	green
402.5602	1.0167	ITI	n/a	n/a	n/a	n/a	n/a	n/a	n/a	n/a
403.5768	0.5167	FIXCROSS	n/a	n/a	n/a	n/a	n/a	n/a	n/a	n/a
404.0935	0.9	COLOR_NAME	42	Incongruent	niebieski	blue	zielony	green	hit	n/a
404.9718	n/a	RESPONSE	n/a	n/a	n/a	n/a	n/a	n/a	n/a	blue
404.9935	1.0167	ITI	n/a	n/a	n/a	n/a	n/a	n/a	n/a	n/a
406.0102	0.5167	FIXCROSS	n/a	n/a	n/a	n/a	n/a	n/a	n/a	n/a
406.5269	0.7833	COLOR_NAME	43	Neutral	czerwony	red	Neutral	Neutral	hit	n/a
407.2912	n/a	RESPONSE	n/a	n/a	n/a	n/a	n/a	n/a	n/a	red
407.3102	1.0167	ITI	n/a	n/a	n/a	n/a	n/a	n/a	n/a	n/a
408.3269	0.5167	FIXCROSS	n/a	n/a	n/a	n/a	n/a	n/a	n/a	n/a
408.8436	0.7167	COLOR_NAME	44	Neutral	zielony	green	Neutral	Neutral	hit	n/a
409.5306	n/a	RESPONSE	n/a	n/a	n/a	n/a	n/a	n/a	n/a	green
409.5602	1.0167	ITI	n/a	n/a	n/a	n/a	n/a	n/a	n/a	n/a
410.5769	0.5167	FIXCROSS	n/a	n/a	n/a	n/a	n/a	n/a	n/a	n/a
411.0936	0.75	COLOR_NAME	45	Neutral	niebieski	blue	Neutral	Neutral	hit	n/a
411.8181	n/a	RESPONSE	n/a	n/a	n/a	n/a	n/a	n/a	n/a	blue
411.8436	1.0167	ITI	n/a	n/a	n/a	n/a	n/a	n/a	n/a	n/a
412.8603	0.5167	FIXCROSS	n/a	n/a	n/a	n/a	n/a	n/a	n/a	n/a
413.3769	0.7	COLOR_NAME	46	Neutral	zielony	green	Neutral	Neutral	hit	n/a
414.0575	n/a	RESPONSE	n/a	n/a	n/a	n/a	n/a	n/a	n/a	green
414.0769	1.0167	ITI	n/a	n/a	n/a	n/a	n/a	n/a	n/a	n/a
415.0936	0.5167	FIXCROSS	n/a	n/a	n/a	n/a	n/a	n/a	n/a	n/a
415.6103	0.9167	COLOR_NAME	47	Incongruent	żółty	yellow	zielony	green	hit	n/a
416.5049	n/a	RESPONSE	n/a	n/a	n/a	n/a	n/a	n/a	n/a	yellow
416.5269	1.0167	ITI	n/a	n/a	n/a	n/a	n/a	n/a	n/a	n/a
417.5436	0.5167	FIXCROSS	n/a	n/a	n/a	n/a	n/a	n/a	n/a	n/a
418.0603	0.6667	COLOR_NAME	48	Incongruent	żółty	yellow	niebieski	blue	hit	n/a
418.6964	n/a	RESPONSE	n/a	n/a	n/a	n/a	n/a	n/a	n/a	yellow
418.727	1.0167	ITI	n/a	n/a	n/a	n/a	n/a	n/a	n/a	n/a
419.7436	0.5167	FIXCROSS	n/a	n/a	n/a	n/a	n/a	n/a	n/a	n/a
420.2603	0.6167	COLOR_NAME	49	Incongruent	żółty	yellow	niebieski	blue	hit	n/a
420.8559	n/a	RESPONSE	n/a	n/a	n/a	n/a	n/a	n/a	n/a	yellow
420.877	1.0167	ITI	n/a	n/a	n/a	n/a	n/a	n/a	n/a	n/a
421.8936	0.5167	FIXCROSS	n/a	n/a	n/a	n/a	n/a	n/a	n/a	n/a
422.4103	0.55	COLOR_NAME	50	Incongruent	żółty	yellow	zielony	green	hit	n/a
422.9353	n/a	RESPONSE	n/a	n/a	n/a	n/a	n/a	n/a	n/a	yellow
422.9603	1.0167	ITI	n/a	n/a	n/a	n/a	n/a	n/a	n/a	n/a
423.977	0.5167	FIXCROSS	n/a	n/a	n/a	n/a	n/a	n/a	n/a	n/a
424.4937	0.75	COLOR_NAME	51	Incongruent	niebieski	blue	zielony	green	hit	n/a
425.2228	n/a	RESPONSE	n/a	n/a	n/a	n/a	n/a	n/a	n/a	blue
425.2437	1.0167	ITI	n/a	n/a	n/a	n/a	n/a	n/a	n/a	n/a
426.2603	0.5167	FIXCROSS	n/a	n/a	n/a	n/a	n/a	n/a	n/a	n/a
426.777	0.75	COLOR_NAME	52	Incongruent	zielony	green	żółty	yellow	hit	n/a
427.4942	n/a	RESPONSE	n/a	n/a	n/a	n/a	n/a	n/a	n/a	green
427.527	1.0167	ITI	n/a	n/a	n/a	n/a	n/a	n/a	n/a	n/a
428.5437	0.5167	FIXCROSS	n/a	n/a	n/a	n/a	n/a	n/a	n/a	n/a
429.0604	0.7167	COLOR_NAME	53	Incongruent	czerwony	red	zielony	green	hit	n/a
429.7497	n/a	RESPONSE	n/a	n/a	n/a	n/a	n/a	n/a	n/a	red
429.777	1.0167	ITI	n/a	n/a	n/a	n/a	n/a	n/a	n/a	n/a
430.7937	0.5167	FIXCROSS	n/a	n/a	n/a	n/a	n/a	n/a	n/a	n/a
431.3104	0.9833	COLOR_NAME	54	Neutral	zielony	green	Neutral	Neutral	hit	n/a
432.261	n/a	RESPONSE	n/a	n/a	n/a	n/a	n/a	n/a	n/a	green
432.2937	1.0167	ITI	n/a	n/a	n/a	n/a	n/a	n/a	n/a	n/a
433.3104	0.5167	FIXCROSS	n/a	n/a	n/a	n/a	n/a	n/a	n/a	n/a
433.8271	0.65	COLOR_NAME	55	Neutral	czerwony	red	Neutral	Neutral	hit	n/a
434.4525	n/a	RESPONSE	n/a	n/a	n/a	n/a	n/a	n/a	n/a	red
434.4771	1.0167	ITI	n/a	n/a	n/a	n/a	n/a	n/a	n/a	n/a
435.4938	0.5167	FIXCROSS	n/a	n/a	n/a	n/a	n/a	n/a	n/a	n/a
436.0104	0.7833	COLOR_NAME	56	Neutral	niebieski	blue	Neutral	Neutral	hit	n/a
436.7719	n/a	RESPONSE	n/a	n/a	n/a	n/a	n/a	n/a	n/a	blue
436.7938	1.0167	ITI	n/a	n/a	n/a	n/a	n/a	n/a	n/a	n/a
437.8104	0.5167	FIXCROSS	n/a	n/a	n/a	n/a	n/a	n/a	n/a	n/a
438.3271	0.6833	COLOR_NAME	57	Neutral	czerwony	red	Neutral	Neutral	hit	n/a
438.9794	n/a	RESPONSE	n/a	n/a	n/a	n/a	n/a	n/a	n/a	red
439.0105	1.0167	ITI	n/a	n/a	n/a	n/a	n/a	n/a	n/a	n/a
440.0271	0.5167	FIXCROSS	n/a	n/a	n/a	n/a	n/a	n/a	n/a	n/a
440.5438	0.5167	COLOR_NAME	58	Neutral	czerwony	red	Neutral	Neutral	hit	n/a
441.0429	n/a	RESPONSE	n/a	n/a	n/a	n/a	n/a	n/a	n/a	red
441.0605	1.0167	ITI	n/a	n/a	n/a	n/a	n/a	n/a	n/a	n/a
442.0771	0.5167	FIXCROSS	n/a	n/a	n/a	n/a	n/a	n/a	n/a	n/a
442.5938	0.6833	COLOR_NAME	59	Neutral	niebieski	blue	Neutral	Neutral	hit	n/a
443.2503	n/a	RESPONSE	n/a	n/a	n/a	n/a	n/a	n/a	n/a	blue
443.2772	1.0167	ITI	n/a	n/a	n/a	n/a	n/a	n/a	n/a	n/a
444.2938	0.5167	FIXCROSS	n/a	n/a	n/a	n/a	n/a	n/a	n/a	n/a
444.8105	0.5833	COLOR_NAME	60	Neutral	czerwony	red	Neutral	Neutral	hit	n/a
445.3618	n/a	RESPONSE	n/a	n/a	n/a	n/a	n/a	n/a	n/a	red
445.3938	1.0167	ITI	n/a	n/a	n/a	n/a	n/a	n/a	n/a	n/a
446.4105	0.5167	FIXCROSS	n/a	n/a	n/a	n/a	n/a	n/a	n/a	n/a
446.9272	1.2	COLOR_NAME	61	Neutral	żółty	yellow	Neutral	Neutral	hit	n/a
448.0971	n/a	RESPONSE	n/a	n/a	n/a	n/a	n/a	n/a	n/a	yellow
448.1272	1.0167	ITI	n/a	n/a	n/a	n/a	n/a	n/a	n/a	n/a
449.1439	0.5167	FIXCROSS	n/a	n/a	n/a	n/a	n/a	n/a	n/a	n/a
449.6605	0.7333	COLOR_NAME	62	Incongruent	czerwony	red	żółty	yellow	hit	n/a
450.3686	n/a	RESPONSE	n/a	n/a	n/a	n/a	n/a	n/a	n/a	red
450.3939	1.0167	ITI	n/a	n/a	n/a	n/a	n/a	n/a	n/a	n/a
451.4106	0.5167	FIXCROSS	n/a	n/a	n/a	n/a	n/a	n/a	n/a	n/a
451.9272	0.5167	COLOR_NAME	63	Incongruent	czerwony	red	niebieski	blue	hit	n/a
452.4161	n/a	RESPONSE	n/a	n/a	n/a	n/a	n/a	n/a	n/a	red
452.4439	1.0167	ITI	n/a	n/a	n/a	n/a	n/a	n/a	n/a	n/a
453.4606	0.5167	FIXCROSS	n/a	n/a	n/a	n/a	n/a	n/a	n/a	n/a
453.9772	0.7667	COLOR_NAME	64	Neutral	żółty	yellow	Neutral	Neutral	hit	n/a
454.7195	n/a	RESPONSE	n/a	n/a	n/a	n/a	n/a	n/a	n/a	yellow
454.7439	1.0167	ITI	n/a	n/a	n/a	n/a	n/a	n/a	n/a	n/a
455.7606	0.5167	FIXCROSS	n/a	n/a	n/a	n/a	n/a	n/a	n/a	n/a
456.2773	1.0	COLOR_NAME	65	Incongruent	zielony	green	żółty	yellow	hit	n/a
457.2469	n/a	RESPONSE	n/a	n/a	n/a	n/a	n/a	n/a	n/a	green
457.2773	1.0167	ITI	n/a	n/a	n/a	n/a	n/a	n/a	n/a	n/a
458.2939	0.5167	FIXCROSS	n/a	n/a	n/a	n/a	n/a	n/a	n/a	n/a
458.8106	0.7833	COLOR_NAME	66	Incongruent	żółty	yellow	zielony	green	hit	n/a
459.5663	n/a	RESPONSE	n/a	n/a	n/a	n/a	n/a	n/a	n/a	yellow
459.594	1.0167	ITI	n/a	n/a	n/a	n/a	n/a	n/a	n/a	n/a
460.6106	0.5167	FIXCROSS	n/a	n/a	n/a	n/a	n/a	n/a	n/a	n/a
461.1273	0.6833	COLOR_NAME	67	Incongruent	zielony	green	żółty	yellow	hit	n/a
461.7898	n/a	RESPONSE	n/a	n/a	n/a	n/a	n/a	n/a	n/a	green
461.8106	1.0167	ITI	n/a	n/a	n/a	n/a	n/a	n/a	n/a	n/a
462.8273	0.5167	FIXCROSS	n/a	n/a	n/a	n/a	n/a	n/a	n/a	n/a
463.344	0.75	COLOR_NAME	68	Neutral	czerwony	red	Neutral	Neutral	hit	n/a
464.0612	n/a	RESPONSE	n/a	n/a	n/a	n/a	n/a	n/a	n/a	red
464.094	1.0167	ITI	n/a	n/a	n/a	n/a	n/a	n/a	n/a	n/a
465.1107	0.5167	FIXCROSS	n/a	n/a	n/a	n/a	n/a	n/a	n/a	n/a
465.6273	1.6667	COLOR_NAME	69	Incongruent	zielony	green	czerwony	red	hit	n/a
467.2604	n/a	RESPONSE	n/a	n/a	n/a	n/a	n/a	n/a	n/a	green
467.294	1.0167	ITI	n/a	n/a	n/a	n/a	n/a	n/a	n/a	n/a
468.3107	0.5167	FIXCROSS	n/a	n/a	n/a	n/a	n/a	n/a	n/a	n/a
468.8274	0.9833	COLOR_NAME	70	Incongruent	niebieski	blue	żółty	yellow	hit	n/a
469.7878	n/a	RESPONSE	n/a	n/a	n/a	n/a	n/a	n/a	n/a	blue
469.8107	1.0167	ITI	n/a	n/a	n/a	n/a	n/a	n/a	n/a	n/a
470.8274	0.5167	FIXCROSS	n/a	n/a	n/a	n/a	n/a	n/a	n/a	n/a
471.344	0.7167	COLOR_NAME	71	Incongruent	czerwony	red	żółty	yellow	hit	n/a
472.0433	n/a	RESPONSE	n/a	n/a	n/a	n/a	n/a	n/a	n/a	red
472.0607	1.0167	ITI	n/a	n/a	n/a	n/a	n/a	n/a	n/a	n/a
473.0774	0.5167	FIXCROSS	n/a	n/a	n/a	n/a	n/a	n/a	n/a	n/a
473.5941	0.6167	COLOR_NAME	72	Incongruent	czerwony	red	niebieski	blue	hit	n/a
474.1867	n/a	RESPONSE	n/a	n/a	n/a	n/a	n/a	n/a	n/a	red
474.2107	1.0333	ITI	n/a	n/a	n/a	n/a	n/a	n/a	n/a	n/a
478.0098	n/a	RESPONSE	n/a	n/a	n/a	n/a	n/a	n/a	n/a	n/a
