onset	duration	trial_type	melody_number	melody_part	key	sound	action
0.0	14.086	CUE_START	n/a	n/a	n/a	n/a	n/a
14.086	7.76	FIXCROSS	n/a	n/a	n/a	n/a	n/a
21.846	6.316	CUE_LISTEN	M1	1	n/a	n/a	n/a
28.162	7.758	FIXCROSS	n/a	n/a	n/a	n/a	n/a
35.92	6.317	CUE_PLAYBACK_RIGHT_HAND	M1	1	n/a	n/a	n/a
36.65	n/a	RESPONSE	M1	1	19	G4	press
37.032	n/a	RESPONSE	M1	1	19	G4	release
37.203	n/a	RESPONSE	M1	1	16	E4	press
37.524	n/a	RESPONSE	M1	1	16	E4	release
37.715	n/a	RESPONSE	M1	1	16	E4	press
38.016	n/a	RESPONSE	M1	1	16	E4	release
38.228	n/a	RESPONSE	M1	1	17	F4	press
38.729	n/a	RESPONSE	M1	1	17	F4	release
38.74	n/a	RESPONSE	M1	1	14	D4	press
39.011	n/a	RESPONSE	M1	1	14	D4	release
39.223	n/a	RESPONSE	M1	1	14	D4	press
39.543	n/a	RESPONSE	M1	1	14	D4	release
39.745	n/a	RESPONSE	M1	1	12	C4	press
40.016	n/a	RESPONSE	M1	1	16	E4	press
40.159	n/a	RESPONSE	M1	1	12	C4	release
40.255	n/a	RESPONSE	M1	1	16	E4	release
40.284	n/a	RESPONSE	M1	1	19	G4	press
41.166	n/a	RESPONSE	M1	1	19	G4	release
42.237	7.758	FIXCROSS	n/a	n/a	n/a	n/a	n/a
49.995	6.325	CUE_LISTEN	M1	2	n/a	n/a	n/a
56.32	7.758	FIXCROSS	n/a	n/a	n/a	n/a	n/a
64.078	6.317	CUE_PLAYBACK_RIGHT_HAND	M1	2	n/a	n/a	n/a
64.813	n/a	RESPONSE	M1	2	19	G4	press
65.344	n/a	RESPONSE	M1	2	16	E4	press
65.465	n/a	RESPONSE	M1	2	19	G4	release
65.626	n/a	RESPONSE	M1	2	16	E4	release
65.848	n/a	RESPONSE	M1	2	16	E4	press
66.122	n/a	RESPONSE	M1	2	16	E4	release
66.33	n/a	RESPONSE	M1	2	17	F4	press
66.702	n/a	RESPONSE	M1	2	17	F4	release
66.853	n/a	RESPONSE	M1	2	14	D4	press
67.184	n/a	RESPONSE	M1	2	14	D4	release
67.335	n/a	RESPONSE	M1	2	14	D4	press
67.656	n/a	RESPONSE	M1	2	14	D4	release
67.818	n/a	RESPONSE	M1	2	12	C4	press
68.119	n/a	RESPONSE	M1	2	12	C4	release
68.13	n/a	RESPONSE	M1	2	16	E4	press
68.422	n/a	RESPONSE	M1	2	16	E4	release
68.703	n/a	RESPONSE	M1	2	12	C4	press
69.916	n/a	RESPONSE	M1	2	12	C4	release
70.395	7.758	FIXCROSS	n/a	n/a	n/a	n/a	n/a
78.153	6.317	CUE_LISTEN	M2	1	n/a	n/a	n/a
84.47	7.758	FIXCROSS	n/a	n/a	n/a	n/a	n/a
92.228	6.325	CUE_PLAYBACK_BOTH_HANDS	M2	1	n/a	n/a	n/a
94.566	n/a	RESPONSE	M2	1	00	C3	press
94.578	n/a	RESPONSE	M2	1	07	G3	press
94.58	n/a	RESPONSE	M2	1	21	A4	press
94.583	n/a	RESPONSE	M2	1	09	A3	press
95.052	n/a	RESPONSE	M2	1	16	E4	press
95.303	n/a	RESPONSE	M2	1	21	A4	release
95.305	n/a	RESPONSE	M2	1	16	E4	release
95.376	n/a	RESPONSE	M2	1	09	A3	release
95.456	n/a	RESPONSE	M2	1	07	G3	release
95.468	n/a	RESPONSE	M2	1	00	C3	release
95.619	n/a	RESPONSE	M2	1	07	G3	press
95.63	n/a	RESPONSE	M2	1	09	A3	press
95.644	n/a	RESPONSE	M2	1	00	C3	press
95.663	n/a	RESPONSE	M2	1	16	E4	press
96.084	n/a	RESPONSE	M2	1	14	D4	press
96.255	n/a	RESPONSE	M2	1	16	E4	release
96.336	n/a	RESPONSE	M2	1	14	D4	release
96.388	n/a	RESPONSE	M2	1	09	A3	release
96.402	n/a	RESPONSE	M2	1	00	C3	release
96.42	n/a	RESPONSE	M2	1	07	G3	release
96.573	n/a	RESPONSE	M2	1	07	G3	press
96.583	n/a	RESPONSE	M2	1	09	A3	press
96.594	n/a	RESPONSE	M2	1	00	C3	press
96.596	n/a	RESPONSE	M2	1	12	C4	press
97.066	n/a	RESPONSE	M2	1	14	D4	press
97.258	n/a	RESPONSE	M2	1	12	C4	release
97.35	n/a	RESPONSE	M2	1	14	D4	release
97.43	n/a	RESPONSE	M2	1	09	A3	release
97.592	n/a	RESPONSE	M2	1	09	A3	press
97.594	n/a	RESPONSE	M2	1	16	E4	press
98.384	n/a	RESPONSE	M2	1	16	E4	release
98.553	7.758	FIXCROSS	n/a	n/a	n/a	n/a	n/a
98.706	n/a	RESPONSE	M2	1	00	C3	release
98.806	n/a	RESPONSE	M2	1	09	A3	release
100.242	n/a	RESPONSE	M2	1	07	G3	release
106.312	6.317	CUE_LISTEN	M2	2	n/a	n/a	n/a
112.628	7.758	FIXCROSS	n/a	n/a	n/a	n/a	n/a
120.387	6.325	CUE_PLAYBACK_BOTH_HANDS	M2	2	n/a	n/a	n/a
121.325	n/a	RESPONSE	M2	2	00	C3	press
121.33	n/a	RESPONSE	M2	2	07	G3	press
121.333	n/a	RESPONSE	M2	2	21	A4	press
121.35	n/a	RESPONSE	M2	2	09	A3	press
121.634	n/a	RESPONSE	M2	2	09	A3	release
121.799	n/a	RESPONSE	M2	2	16	E4	press
121.945	n/a	RESPONSE	M2	2	21	A4	release
122.026	n/a	RESPONSE	M2	2	16	E4	release
122.119	n/a	RESPONSE	M2	2	00	C3	release
122.26	n/a	RESPONSE	M2	2	00	C3	press
122.311	n/a	RESPONSE	M2	2	16	E4	press
122.722	n/a	RESPONSE	M2	2	14	D4	press
122.932	n/a	RESPONSE	M2	2	16	E4	release
123.073	n/a	RESPONSE	M2	2	14	D4	release
123.115	n/a	RESPONSE	M2	2	00	C3	release
123.225	n/a	RESPONSE	M2	2	12	C4	press
123.236	n/a	RESPONSE	M2	2	00	C3	press
123.708	n/a	RESPONSE	M2	2	11	B3	press
123.919	n/a	RESPONSE	M2	2	12	C4	release
124.24	n/a	RESPONSE	M2	2	09	A3	press
124.712	n/a	RESPONSE	M2	2	11	B3	release
125.173	n/a	RESPONSE	M2	2	09	A3	release
125.936	n/a	RESPONSE	M2	2	00	C3	release
126.268	n/a	RESPONSE	M2	2	07	G3	release
126.712	7.758	FIXCROSS	n/a	n/a	n/a	n/a	n/a
134.47	6.317	CUE_LISTEN	M2	1	n/a	n/a	n/a
140.787	7.758	FIXCROSS	n/a	n/a	n/a	n/a	n/a
148.545	6.317	CUE_PLAYBACK_BOTH_HANDS	M2	1	n/a	n/a	n/a
149.32	n/a	RESPONSE	M2	1	07	G3	press
149.329	n/a	RESPONSE	M2	1	09	A3	press
149.335	n/a	RESPONSE	M2	1	00	C3	press
150.13	n/a	RESPONSE	M2	1	09	A3	release
150.228	n/a	RESPONSE	M2	1	00	C3	release
150.415	n/a	RESPONSE	M2	1	09	A3	press
150.418	n/a	RESPONSE	M2	1	00	C3	press
150.896	n/a	RESPONSE	M2	1	11	B3	press
151.232	n/a	RESPONSE	M2	1	11	B3	release
151.286	n/a	RESPONSE	M2	1	09	A3	release
151.472	n/a	RESPONSE	M2	1	00	C3	release
151.519	n/a	RESPONSE	M2	1	07	G3	release
151.995	n/a	RESPONSE	M2	1	09	A3	press
152.01	n/a	RESPONSE	M2	1	07	G3	press
152.018	n/a	RESPONSE	M2	1	00	C3	press
152.52	n/a	RESPONSE	M2	1	11	B3	press
152.778	n/a	RESPONSE	M2	1	09	A3	release
152.792	n/a	RESPONSE	M2	1	11	B3	release
152.842	n/a	RESPONSE	M2	1	00	C3	release
153.003	n/a	RESPONSE	M2	1	00	C3	press
153.044	n/a	RESPONSE	M2	1	12	C4	press
153.525	n/a	RESPONSE	M2	1	11	B3	press
153.596	n/a	RESPONSE	M2	1	12	C4	release
153.708	n/a	RESPONSE	M2	1	11	B3	release
153.802	n/a	RESPONSE	M2	1	00	C3	release
153.97	n/a	RESPONSE	M2	1	00	C3	press
154.002	n/a	RESPONSE	M2	1	12	C4	press
154.453	n/a	RESPONSE	M2	1	14	D4	press
154.524	n/a	RESPONSE	M2	1	12	C4	release
154.686	n/a	RESPONSE	M2	1	14	D4	release
154.862	7.758	FIXCROSS	n/a	n/a	n/a	n/a	n/a
154.936	n/a	RESPONSE	M2	1	16	E4	press
156.678	n/a	RESPONSE	M2	1	16	E4	release
162.62	6.325	CUE_LISTEN	M2	2	n/a	n/a	n/a
168.945	7.758	FIXCROSS	n/a	n/a	n/a	n/a	n/a
169.47	n/a	RESPONSE	M2	2	07	G3	release
169.634	n/a	RESPONSE	M2	2	00	C3	release
176.704	6.317	CUE_PLAYBACK_BOTH_HANDS	M2	2	n/a	n/a	n/a
177.809	n/a	RESPONSE	M2	2	07	G3	press
177.811	n/a	RESPONSE	M2	2	00	C3	press
177.822	n/a	RESPONSE	M2	2	12	C4	press
178.263	n/a	RESPONSE	M2	2	16	E4	press
178.286	n/a	RESPONSE	M2	2	12	C4	release
178.505	n/a	RESPONSE	M2	2	16	E4	release
178.516	n/a	RESPONSE	M2	2	00	C3	release
178.748	n/a	RESPONSE	M2	2	00	C3	press
178.779	n/a	RESPONSE	M2	2	16	E4	press
179.301	n/a	RESPONSE	M2	2	14	D4	press
179.652	n/a	RESPONSE	M2	2	00	C3	release
179.655	n/a	RESPONSE	M2	2	14	D4	release
179.789	n/a	RESPONSE	M2	2	00	C3	press
179.815	n/a	RESPONSE	M2	2	12	C4	press
180.253	n/a	RESPONSE	M2	2	11	B3	press
180.432	n/a	RESPONSE	M2	2	12	C4	release
180.515	n/a	RESPONSE	M2	2	11	B3	release
180.753	n/a	RESPONSE	M2	2	09	A3	press
181.748	n/a	RESPONSE	M2	2	16	E4	release
181.906	n/a	RESPONSE	M2	2	09	A3	release
181.965	n/a	RESPONSE	M2	2	00	C3	release
182.0	n/a	RESPONSE	M2	2	07	G3	release
183.02	7.758	FIXCROSS	n/a	n/a	n/a	n/a	n/a
184.919	n/a	RESPONSE	M2	2	07	G3	press
184.93	n/a	RESPONSE	M2	2	00	C3	press
185.344	n/a	RESPONSE	M2	2	00	C3	release
185.393	n/a	RESPONSE	M2	2	07	G3	release
190.779	6.317	CUE_LISTEN	M1	1	n/a	n/a	n/a
197.095	7.758	FIXCROSS	n/a	n/a	n/a	n/a	n/a
204.854	6.325	CUE_PLAYBACK_RIGHT_HAND	M1	1	n/a	n/a	n/a
205.742	n/a	RESPONSE	M1	1	19	G4	press
206.225	n/a	RESPONSE	M1	1	16	E4	press
206.434	n/a	RESPONSE	M1	1	19	G4	release
206.476	n/a	RESPONSE	M1	1	16	E4	release
206.728	n/a	RESPONSE	M1	1	16	E4	press
207.048	n/a	RESPONSE	M1	1	16	E4	release
207.259	n/a	RESPONSE	M1	1	17	F4	press
207.69	n/a	RESPONSE	M1	1	17	F4	release
207.774	n/a	RESPONSE	M1	1	14	D4	press
208.013	n/a	RESPONSE	M1	1	14	D4	release
208.294	n/a	RESPONSE	M1	1	14	D4	press
208.645	n/a	RESPONSE	M1	1	14	D4	release
208.778	n/a	RESPONSE	M1	1	12	C4	press
209.199	n/a	RESPONSE	M1	1	12	C4	release
209.385	n/a	RESPONSE	M1	1	12	C4	press
209.644	n/a	RESPONSE	M1	1	16	E4	press
209.794	n/a	RESPONSE	M1	1	12	C4	release
209.915	n/a	RESPONSE	M1	1	19	G4	press
210.38	n/a	RESPONSE	M1	1	16	E4	release
210.882	n/a	RESPONSE	M1	1	19	G4	release
211.179	7.758	FIXCROSS	n/a	n/a	n/a	n/a	n/a
218.937	6.317	CUE_LISTEN	M1	2	n/a	n/a	n/a
225.254	7.758	FIXCROSS	n/a	n/a	n/a	n/a	n/a
233.012	6.317	CUE_PLAYBACK_RIGHT_HAND	M1	2	n/a	n/a	n/a
233.805	n/a	RESPONSE	M1	2	19	G4	press
234.229	n/a	RESPONSE	M1	2	19	G4	release
234.508	n/a	RESPONSE	M1	2	16	E4	press
234.759	n/a	RESPONSE	M1	2	16	E4	release
235.0	n/a	RESPONSE	M1	2	16	E4	press
235.291	n/a	RESPONSE	M1	2	16	E4	release
235.533	n/a	RESPONSE	M1	2	17	F4	press
235.924	n/a	RESPONSE	M1	2	17	F4	release
236.045	n/a	RESPONSE	M1	2	14	D4	press
236.296	n/a	RESPONSE	M1	2	14	D4	release
236.55	n/a	RESPONSE	M1	2	14	D4	press
236.86	n/a	RESPONSE	M1	2	14	D4	release
237.07	n/a	RESPONSE	M1	2	12	C4	press
237.421	n/a	RESPONSE	M1	2	16	E4	press
237.453	n/a	RESPONSE	M1	2	12	C4	release
237.725	n/a	RESPONSE	M1	2	12	C4	press
237.795	n/a	RESPONSE	M1	2	16	E4	release
238.746	n/a	RESPONSE	M1	2	12	C4	release
239.329	7.758	FIXCROSS	n/a	n/a	n/a	n/a	n/a
247.087	6.325	CUE_LISTEN	M3	1	n/a	n/a	n/a
253.412	7.758	FIXCROSS	n/a	n/a	n/a	n/a	n/a
261.17	6.317	CUE_PLAYBACK_RIGHT_HAND	M3	1	n/a	n/a	n/a
261.925	n/a	RESPONSE	M3	1	12	C4	press
262.26	n/a	RESPONSE	M3	1	12	C4	release
262.473	n/a	RESPONSE	M3	1	14	D4	press
262.838	n/a	RESPONSE	M3	1	14	D4	release
262.988	n/a	RESPONSE	M3	1	16	E4	press
263.239	n/a	RESPONSE	M3	1	16	E4	release
263.47	n/a	RESPONSE	M3	1	12	C4	press
263.733	n/a	RESPONSE	M3	1	12	C4	release
263.993	n/a	RESPONSE	M3	1	12	C4	press
264.314	n/a	RESPONSE	M3	1	12	C4	release
264.495	n/a	RESPONSE	M3	1	14	D4	press
264.796	n/a	RESPONSE	M3	1	14	D4	release
264.978	n/a	RESPONSE	M3	1	16	E4	press
265.259	n/a	RESPONSE	M3	1	16	E4	release
265.453	n/a	RESPONSE	M3	1	12	C4	press
266.212	n/a	RESPONSE	M3	1	12	C4	release
267.487	7.758	FIXCROSS	n/a	n/a	n/a	n/a	n/a
275.246	6.317	CUE_LISTEN	M3	2	n/a	n/a	n/a
281.562	7.758	FIXCROSS	n/a	n/a	n/a	n/a	n/a
283.091	n/a	RESPONSE	M3	2	16	E4	press
283.495	n/a	RESPONSE	M3	2	16	E4	release
289.32	6.325	CUE_PLAYBACK_RIGHT_HAND	M3	2	n/a	n/a	n/a
289.905	n/a	RESPONSE	M3	2	16	E4	press
290.153	n/a	RESPONSE	M3	2	16	E4	release
290.382	n/a	RESPONSE	M3	2	17	F4	press
290.736	n/a	RESPONSE	M3	2	17	F4	release
290.873	n/a	RESPONSE	M3	2	19	G4	press
291.4	n/a	RESPONSE	M3	2	19	G4	release
291.71	n/a	RESPONSE	M3	2	16	E4	press
292.048	n/a	RESPONSE	M3	2	16	E4	release
292.199	n/a	RESPONSE	M3	2	17	F4	press
292.569	n/a	RESPONSE	M3	2	17	F4	release
292.689	n/a	RESPONSE	M3	2	19	G4	press
293.286	n/a	RESPONSE	M3	2	19	G4	release
295.645	7.758	FIXCROSS	n/a	n/a	n/a	n/a	n/a
303.404	6.317	CUE_LISTEN	M3	1	n/a	n/a	n/a
309.72	7.758	FIXCROSS	n/a	n/a	n/a	n/a	n/a
317.479	6.317	CUE_PLAYBACK_RIGHT_HAND	M3	1	n/a	n/a	n/a
318.179	n/a	RESPONSE	M3	1	19	G4	press
318.46	n/a	RESPONSE	M3	1	19	G4	release
319.021	n/a	RESPONSE	M3	1	19	G4	press
319.194	n/a	RESPONSE	M3	1	19	G4	release
319.285	n/a	RESPONSE	M3	1	21	A4	press
319.485	n/a	RESPONSE	M3	1	21	A4	release
319.546	n/a	RESPONSE	M3	1	19	G4	press
319.915	n/a	RESPONSE	M3	1	17	F4	press
320.236	n/a	RESPONSE	M3	1	17	F4	release
320.249	n/a	RESPONSE	M3	1	19	G4	release
320.281	n/a	RESPONSE	M3	1	16	E4	press
320.606	n/a	RESPONSE	M3	1	16	E4	release
320.854	n/a	RESPONSE	M3	1	14	D4	press
320.888	n/a	RESPONSE	M3	1	12	C4	press
321.099	n/a	RESPONSE	M3	1	12	C4	release
321.114	n/a	RESPONSE	M3	1	14	D4	release
321.443	n/a	RESPONSE	M3	1	19	G4	press
321.623	n/a	RESPONSE	M3	1	19	G4	release
321.725	n/a	RESPONSE	M3	1	21	A4	press
321.928	n/a	RESPONSE	M3	1	21	A4	release
321.956	n/a	RESPONSE	M3	1	19	G4	press
322.332	n/a	RESPONSE	M3	1	17	F4	press
322.585	n/a	RESPONSE	M3	1	19	G4	release
322.651	n/a	RESPONSE	M3	1	17	F4	release
322.679	n/a	RESPONSE	M3	1	16	E4	press
322.97	n/a	RESPONSE	M3	1	16	E4	release
323.3	n/a	RESPONSE	M3	1	14	D4	press
323.303	n/a	RESPONSE	M3	1	12	C4	press
323.625	n/a	RESPONSE	M3	1	12	C4	release
323.654	n/a	RESPONSE	M3	1	14	D4	release
323.795	7.759	FIXCROSS	n/a	n/a	n/a	n/a	n/a
331.554	6.325	CUE_LISTEN	M3	2	n/a	n/a	n/a
337.879	7.758	FIXCROSS	n/a	n/a	n/a	n/a	n/a
345.637	6.317	CUE_PLAYBACK_RIGHT_HAND	M3	2	n/a	n/a	n/a
346.083	n/a	RESPONSE	M3	2	12	C4	press
346.484	n/a	RESPONSE	M3	2	12	C4	release
346.565	n/a	RESPONSE	M3	2	07	G3	press
346.999	n/a	RESPONSE	M3	2	07	G3	release
347.058	n/a	RESPONSE	M3	2	12	C4	press
347.819	n/a	RESPONSE	M3	2	12	C4	release
348.09	n/a	RESPONSE	M3	2	12	C4	press
348.562	n/a	RESPONSE	M3	2	12	C4	release
348.655	n/a	RESPONSE	M3	2	07	G3	press
349.174	n/a	RESPONSE	M3	2	07	G3	release
349.275	n/a	RESPONSE	M3	2	12	C4	press
350.413	n/a	RESPONSE	M3	2	12	C4	release
351.954	7.758	FIXCROSS	n/a	n/a	n/a	n/a	n/a
359.712	6.325	CUE_LISTEN	M1	1	n/a	n/a	n/a
366.037	7.758	FIXCROSS	n/a	n/a	n/a	n/a	n/a
373.796	6.317	CUE_PLAYBACK_BOTH_HANDS	M1	1	n/a	n/a	n/a
374.596	n/a	RESPONSE	M1	1	19	G4	press
374.618	n/a	RESPONSE	M1	1	00	C3	press
375.091	n/a	RESPONSE	M1	1	00	C3	release
375.1	n/a	RESPONSE	M1	1	19	G4	release
375.712	n/a	RESPONSE	M1	1	00	C3	press
375.713	n/a	RESPONSE	M1	1	19	G4	press
376.334	n/a	RESPONSE	M1	1	07	G3	press
376.375	n/a	RESPONSE	M1	1	16	E4	press
376.606	n/a	RESPONSE	M1	1	19	G4	release
376.64	n/a	RESPONSE	M1	1	16	E4	release
376.969	n/a	RESPONSE	M1	1	04	E3	press
377.03	n/a	RESPONSE	M1	1	16	E4	press
377.372	n/a	RESPONSE	M1	1	00	C3	release
377.415	n/a	RESPONSE	M1	1	16	E4	release
377.454	n/a	RESPONSE	M1	1	07	G3	release
377.628	n/a	RESPONSE	M1	1	00	C3	press
377.669	n/a	RESPONSE	M1	1	19	G4	press
377.91	n/a	RESPONSE	M1	1	04	E3	release
378.159	n/a	RESPONSE	M1	1	07	G3	press
378.17	n/a	RESPONSE	M1	1	19	G4	release
378.311	n/a	RESPONSE	M1	1	16	E4	press
378.743	n/a	RESPONSE	M1	1	16	E4	release
379.084	n/a	RESPONSE	M1	1	07	G3	release
380.009	n/a	RESPONSE	M1	1	17	F4	press
380.112	7.759	FIXCROSS	n/a	n/a	n/a	n/a	n/a
380.949	n/a	RESPONSE	M1	1	07	G3	press
380.999	n/a	RESPONSE	M1	1	14	D4	press
381.126	n/a	RESPONSE	M1	1	17	F4	release
381.618	n/a	RESPONSE	M1	1	04	E3	press
381.996	n/a	RESPONSE	M1	1	14	D4	release
382.0	n/a	RESPONSE	M1	1	07	G3	release
382.078	n/a	RESPONSE	M1	1	04	E3	release
382.175	n/a	RESPONSE	M1	1	00	C3	release
387.871	6.317	CUE_LISTEN	M1	2	n/a	n/a	n/a
394.187	7.758	FIXCROSS	n/a	n/a	n/a	n/a	n/a
401.946	6.325	CUE_PLAYBACK_BOTH_HANDS	M1	2	n/a	n/a	n/a
403.058	n/a	RESPONSE	M1	2	00	C3	press
403.099	n/a	RESPONSE	M1	2	19	G4	press
403.6	n/a	RESPONSE	M1	2	07	G3	press
403.671	n/a	RESPONSE	M1	2	16	E4	press
403.783	n/a	RESPONSE	M1	2	04	E3	press
403.905	n/a	RESPONSE	M1	2	19	G4	release
404.005	n/a	RESPONSE	M1	2	16	E4	release
404.076	n/a	RESPONSE	M1	2	07	G3	release
404.278	n/a	RESPONSE	M1	2	16	E4	press
404.63	n/a	RESPONSE	M1	2	16	E4	release
404.672	n/a	RESPONSE	M1	2	00	C3	release
404.781	n/a	RESPONSE	M1	2	04	E3	release
405.044	n/a	RESPONSE	M1	2	00	C3	press
405.116	n/a	RESPONSE	M1	2	17	F4	press
405.668	n/a	RESPONSE	M1	2	07	G3	press
405.756	n/a	RESPONSE	M1	2	16	E4	press
406.03	n/a	RESPONSE	M1	2	17	F4	release
406.089	n/a	RESPONSE	M1	2	16	E4	release
406.201	n/a	RESPONSE	M1	2	07	G3	release
407.492	n/a	RESPONSE	M1	2	17	F4	press
408.163	n/a	RESPONSE	M1	2	07	G3	press
408.206	n/a	RESPONSE	M1	2	14	D4	press
408.271	7.758	FIXCROSS	n/a	n/a	n/a	n/a	n/a
408.515	n/a	RESPONSE	M1	2	14	D4	release
408.726	n/a	RESPONSE	M1	2	14	D4	press
409.038	n/a	RESPONSE	M1	2	14	D4	release
409.069	n/a	RESPONSE	M1	2	17	F4	release
409.12	n/a	RESPONSE	M1	2	07	G3	release
409.345	n/a	RESPONSE	M1	2	12	C4	press
409.69	n/a	RESPONSE	M1	2	12	C4	release
409.824	n/a	RESPONSE	M1	2	07	G3	press
409.841	n/a	RESPONSE	M1	2	16	E4	press
410.053	n/a	RESPONSE	M1	2	12	C4	press
410.289	n/a	RESPONSE	M1	2	12	C4	release
410.333	n/a	RESPONSE	M1	2	16	E4	release
410.564	n/a	RESPONSE	M1	2	07	G3	release
410.775	n/a	RESPONSE	M1	2	04	E3	press
410.923	n/a	RESPONSE	M1	2	12	C4	press
411.703	n/a	RESPONSE	M1	2	12	C4	release
411.816	n/a	RESPONSE	M1	2	04	E3	release
412.154	n/a	RESPONSE	M1	2	00	C3	release
416.029	6.317	CUE_LISTEN	M2	1	n/a	n/a	n/a
422.346	7.758	FIXCROSS	n/a	n/a	n/a	n/a	n/a
430.104	6.317	CUE_PLAYBACK_RIGHT_HAND	M2	1	n/a	n/a	n/a
430.871	n/a	RESPONSE	M2	1	21	A4	press
431.398	n/a	RESPONSE	M2	1	16	E4	press
431.501	n/a	RESPONSE	M2	1	21	A4	release
431.655	n/a	RESPONSE	M2	1	16	E4	release
431.861	n/a	RESPONSE	M2	1	16	E4	press
432.28	n/a	RESPONSE	M2	1	16	E4	release
432.341	n/a	RESPONSE	M2	1	14	D4	press
432.723	n/a	RESPONSE	M2	1	14	D4	release
432.821	n/a	RESPONSE	M2	1	12	C4	press
433.193	n/a	RESPONSE	M2	1	12	C4	release
433.324	n/a	RESPONSE	M2	1	14	D4	press
433.765	n/a	RESPONSE	M2	1	14	D4	release
433.828	n/a	RESPONSE	M2	1	16	E4	press
434.358	n/a	RESPONSE	M2	1	16	E4	release
436.421	7.758	FIXCROSS	n/a	n/a	n/a	n/a	n/a
444.179	6.325	CUE_LISTEN	M2	2	n/a	n/a	n/a
450.504	7.758	FIXCROSS	n/a	n/a	n/a	n/a	n/a
458.262	6.317	CUE_PLAYBACK_RIGHT_HAND	M2	2	n/a	n/a	n/a
458.919	n/a	RESPONSE	M2	2	21	A4	press
459.38	n/a	RESPONSE	M2	2	16	E4	press
459.588	n/a	RESPONSE	M2	2	21	A4	release
459.743	n/a	RESPONSE	M2	2	16	E4	release
459.899	n/a	RESPONSE	M2	2	16	E4	press
460.344	n/a	RESPONSE	M2	2	14	D4	press
460.398	n/a	RESPONSE	M2	2	16	E4	release
460.755	n/a	RESPONSE	M2	2	14	D4	release
460.799	n/a	RESPONSE	M2	2	12	C4	press
461.288	n/a	RESPONSE	M2	2	11	B3	press
461.468	n/a	RESPONSE	M2	2	12	C4	release
461.76	n/a	RESPONSE	M2	2	11	B3	release
461.795	n/a	RESPONSE	M2	2	09	A3	press
462.673	n/a	RESPONSE	M2	2	09	A3	release
464.579	7.758	FIXCROSS	n/a	n/a	n/a	n/a	n/a
472.338	6.317	CUE_LISTEN	M2	1	n/a	n/a	n/a
478.654	7.758	FIXCROSS	n/a	n/a	n/a	n/a	n/a
486.412	6.325	CUE_PLAYBACK_RIGHT_HAND	M2	1	n/a	n/a	n/a
487.033	n/a	RESPONSE	M2	1	09	A3	press
487.514	n/a	RESPONSE	M2	1	09	A3	release
487.595	n/a	RESPONSE	M2	1	11	B3	press
487.896	n/a	RESPONSE	M2	1	11	B3	release
488.068	n/a	RESPONSE	M2	1	12	C4	press
488.339	n/a	RESPONSE	M2	1	12	C4	release
488.67	n/a	RESPONSE	M2	1	11	B3	press
489.052	n/a	RESPONSE	M2	1	11	B3	release
489.233	n/a	RESPONSE	M2	1	12	C4	press
489.615	n/a	RESPONSE	M2	1	12	C4	release
489.695	n/a	RESPONSE	M2	1	14	D4	press
490.056	n/a	RESPONSE	M2	1	14	D4	release
490.374	n/a	RESPONSE	M2	1	14	D4	press
490.688	n/a	RESPONSE	M2	1	14	D4	release
490.866	n/a	RESPONSE	M2	1	16	E4	press
491.665	n/a	RESPONSE	M2	1	16	E4	release
492.738	7.758	FIXCROSS	n/a	n/a	n/a	n/a	n/a
500.496	6.317	CUE_LISTEN	M2	2	n/a	n/a	n/a
506.812	7.758	FIXCROSS	n/a	n/a	n/a	n/a	n/a
514.571	6.325	CUE_PLAYBACK_RIGHT_HAND	M2	2	n/a	n/a	n/a
515.634	n/a	RESPONSE	M2	2	12	C4	press
516.035	n/a	RESPONSE	M2	2	12	C4	release
516.178	n/a	RESPONSE	M2	2	16	E4	press
516.418	n/a	RESPONSE	M2	2	16	E4	release
516.659	n/a	RESPONSE	M2	2	16	E4	press
517.11	n/a	RESPONSE	M2	2	16	E4	release
517.281	n/a	RESPONSE	M2	2	14	D4	press
517.354	n/a	RESPONSE	M2	2	16	E4	press
517.676	n/a	RESPONSE	M2	2	16	E4	release
517.725	n/a	RESPONSE	M2	2	14	D4	release
517.756	n/a	RESPONSE	M2	2	12	C4	press
518.129	n/a	RESPONSE	M2	2	12	C4	release
518.259	n/a	RESPONSE	M2	2	11	B3	press
518.633	n/a	RESPONSE	M2	2	11	B3	release
518.754	n/a	RESPONSE	M2	2	09	A3	press
519.624	n/a	RESPONSE	M2	2	09	A3	release
520.896	7.758	FIXCROSS	n/a	n/a	n/a	n/a	n/a
528.654	6.317	CUE_LISTEN	M3	1	n/a	n/a	n/a
534.971	7.758	FIXCROSS	n/a	n/a	n/a	n/a	n/a
542.729	6.317	CUE_PLAYBACK_BOTH_HANDS	M3	1	n/a	n/a	n/a
543.769	n/a	RESPONSE	M3	1	00	C3	press
543.8	n/a	RESPONSE	M3	1	12	C4	press
544.211	n/a	RESPONSE	M3	1	12	C4	release
544.343	n/a	RESPONSE	M3	1	07	G3	press
544.434	n/a	RESPONSE	M3	1	14	D4	press
544.765	n/a	RESPONSE	M3	1	14	D4	release
544.946	n/a	RESPONSE	M3	1	04	E3	press
544.958	n/a	RESPONSE	M3	1	16	E4	press
545.359	n/a	RESPONSE	M3	1	16	E4	release
545.6	n/a	RESPONSE	M3	1	12	C4	press
545.911	n/a	RESPONSE	M3	1	04	E3	release
545.984	n/a	RESPONSE	M3	1	12	C4	release
546.034	n/a	RESPONSE	M3	1	07	G3	release
546.036	n/a	RESPONSE	M3	1	00	C3	release
546.296	n/a	RESPONSE	M3	1	00	C3	press
546.328	n/a	RESPONSE	M3	1	12	C4	press
546.691	n/a	RESPONSE	M3	1	12	C4	release
546.78	n/a	RESPONSE	M3	1	07	G3	press
546.861	n/a	RESPONSE	M3	1	14	D4	press
547.213	n/a	RESPONSE	M3	1	14	D4	release
547.344	n/a	RESPONSE	M3	1	04	E3	press
547.358	n/a	RESPONSE	M3	1	16	E4	press
547.696	n/a	RESPONSE	M3	1	16	E4	release
547.728	n/a	RESPONSE	M3	1	04	E3	release
547.899	n/a	RESPONSE	M3	1	00	C3	release
547.93	n/a	RESPONSE	M3	1	12	C4	press
548.864	n/a	RESPONSE	M3	1	07	G3	release
548.873	n/a	RESPONSE	M3	1	12	C4	release
549.046	7.758	FIXCROSS	n/a	n/a	n/a	n/a	n/a
556.804	6.325	CUE_LISTEN	M3	2	n/a	n/a	n/a
563.129	7.758	FIXCROSS	n/a	n/a	n/a	n/a	n/a
570.888	6.317	CUE_PLAYBACK_BOTH_HANDS	M3	2	n/a	n/a	n/a
571.659	n/a	RESPONSE	M3	2	00	C3	press
571.954	n/a	RESPONSE	M3	2	00	C3	release
572.393	n/a	RESPONSE	M3	2	00	C3	press
572.431	n/a	RESPONSE	M3	2	16	E4	press
572.769	n/a	RESPONSE	M3	2	16	E4	release
572.99	n/a	RESPONSE	M3	2	07	G3	press
573.031	n/a	RESPONSE	M3	2	17	F4	press
573.494	n/a	RESPONSE	M3	2	17	F4	release
573.555	n/a	RESPONSE	M3	2	04	E3	press
573.576	n/a	RESPONSE	M3	2	19	G4	press
573.878	n/a	RESPONSE	M3	2	00	C3	release
573.96	n/a	RESPONSE	M3	2	07	G3	release
573.999	n/a	RESPONSE	M3	2	19	G4	release
574.15	n/a	RESPONSE	M3	2	04	E3	release
574.331	n/a	RESPONSE	M3	2	07	G3	press
574.353	n/a	RESPONSE	M3	2	16	E4	press
574.755	n/a	RESPONSE	M3	2	16	E4	release
575.055	n/a	RESPONSE	M3	2	00	C3	press
575.086	n/a	RESPONSE	M3	2	17	F4	press
575.498	n/a	RESPONSE	M3	2	00	C3	release
575.679	n/a	RESPONSE	M3	2	07	G3	release
575.74	n/a	RESPONSE	M3	2	04	E3	press
576.301	n/a	RESPONSE	M3	2	04	E3	release
576.383	n/a	RESPONSE	M3	2	17	F4	release
576.594	n/a	RESPONSE	M3	2	07	G3	press
576.615	n/a	RESPONSE	M3	2	19	G4	press
577.204	7.758	FIXCROSS	n/a	n/a	n/a	n/a	n/a
577.256	n/a	RESPONSE	M3	2	19	G4	release
578.949	n/a	RESPONSE	M3	2	07	G3	release
584.963	6.317	CUE_LISTEN	M3	1	n/a	n/a	n/a
591.279	7.758	FIXCROSS	n/a	n/a	n/a	n/a	n/a
599.038	6.325	CUE_PLAYBACK_BOTH_HANDS	M3	1	n/a	n/a	n/a
602.635	n/a	RESPONSE	M3	1	00	C3	press
602.676	n/a	RESPONSE	M3	1	19	G4	press
603.145	n/a	RESPONSE	M3	1	00	C3	release
603.148	n/a	RESPONSE	M3	1	19	G4	release
604.258	n/a	RESPONSE	M3	1	00	C3	press
604.629	n/a	RESPONSE	M3	1	00	C3	release
604.91	n/a	RESPONSE	M3	1	00	C3	press
604.961	n/a	RESPONSE	M3	1	19	G4	press
605.303	n/a	RESPONSE	M3	1	07	G3	press
605.363	7.758	FIXCROSS	n/a	n/a	n/a	n/a	n/a
605.364	n/a	RESPONSE	M3	1	21	A4	press
605.575	n/a	RESPONSE	M3	1	21	A4	release
605.668	n/a	RESPONSE	M3	1	19	G4	release
605.708	n/a	RESPONSE	M3	1	07	G3	release
605.799	n/a	RESPONSE	M3	1	04	E3	press
605.82	n/a	RESPONSE	M3	1	19	G4	press
606.174	n/a	RESPONSE	M3	1	04	E3	release
606.205	n/a	RESPONSE	M3	1	00	C3	release
606.344	n/a	RESPONSE	M3	1	07	G3	press
606.385	n/a	RESPONSE	M3	1	17	F4	press
606.756	n/a	RESPONSE	M3	1	17	F4	release
606.768	n/a	RESPONSE	M3	1	19	G4	release
606.889	n/a	RESPONSE	M3	1	07	G3	release
606.92	n/a	RESPONSE	M3	1	00	C3	press
606.951	n/a	RESPONSE	M3	1	16	E4	press
607.583	n/a	RESPONSE	M3	1	16	E4	release
607.644	n/a	RESPONSE	M3	1	00	C3	release
607.735	n/a	RESPONSE	M3	1	07	G3	press
607.766	n/a	RESPONSE	M3	1	14	D4	press
608.468	n/a	RESPONSE	M3	1	14	D4	release
608.592	n/a	RESPONSE	M3	1	07	G3	release
613.121	6.317	CUE_LISTEN	M3	2	n/a	n/a	n/a
619.438	7.758	FIXCROSS	n/a	n/a	n/a	n/a	n/a
627.196	6.317	CUE_PLAYBACK_BOTH_HANDS	M3	2	n/a	n/a	n/a
628.381	n/a	RESPONSE	M3	2	00	C3	press
628.414	n/a	RESPONSE	M3	2	12	C4	press
628.824	n/a	RESPONSE	M3	2	12	C4	release
628.905	n/a	RESPONSE	M3	2	07	G3	press
628.959	n/a	RESPONSE	M3	2	00	C3	release
628.978	n/a	RESPONSE	M3	2	12	C4	press
629.38	n/a	RESPONSE	M3	2	12	C4	release
629.526	n/a	RESPONSE	M3	2	07	G3	release
630.996	n/a	RESPONSE	M3	2	00	C3	press
631.054	n/a	RESPONSE	M3	2	12	C4	press
631.419	n/a	RESPONSE	M3	2	12	C4	release
631.583	n/a	RESPONSE	M3	2	07	G3	press
631.673	n/a	RESPONSE	M3	2	12	C4	press
632.043	n/a	RESPONSE	M3	2	12	C4	release
632.186	n/a	RESPONSE	M3	2	07	G3	release
632.386	n/a	RESPONSE	M3	2	12	C4	press
633.03	n/a	RESPONSE	M3	2	12	C4	release
633.214	n/a	RESPONSE	M3	2	00	C3	release
633.513	7.758	FIXCROSS	n/a	n/a	n/a	n/a	n/a
641.271	6.325	CUE_LISTEN	M1	1	n/a	n/a	n/a
647.596	7.758	FIXCROSS	n/a	n/a	n/a	n/a	n/a
655.354	6.317	CUE_PLAYBACK_BOTH_HANDS	M1	1	n/a	n/a	n/a
656.245	n/a	RESPONSE	M1	1	00	C3	press
656.276	n/a	RESPONSE	M1	1	19	G4	press
656.658	n/a	RESPONSE	M1	1	19	G4	release
656.809	n/a	RESPONSE	M1	1	07	G3	press
656.883	n/a	RESPONSE	M1	1	16	E4	press
657.151	n/a	RESPONSE	M1	1	16	E4	release
657.193	n/a	RESPONSE	M1	1	00	C3	release
657.214	n/a	RESPONSE	M1	1	07	G3	release
657.465	n/a	RESPONSE	M1	1	04	E3	press
657.508	n/a	RESPONSE	M1	1	16	E4	press
657.838	n/a	RESPONSE	M1	1	16	E4	release
657.949	n/a	RESPONSE	M1	1	04	E3	release
658.21	n/a	RESPONSE	M1	1	00	C3	press
658.244	n/a	RESPONSE	M1	1	17	F4	press
658.883	n/a	RESPONSE	M1	1	17	F4	release
659.441	n/a	RESPONSE	M1	1	00	C3	release
659.786	n/a	RESPONSE	M1	1	07	G3	press
659.814	n/a	RESPONSE	M1	1	14	D4	press
660.188	n/a	RESPONSE	M1	1	07	G3	release
660.278	n/a	RESPONSE	M1	1	14	D4	release
660.346	n/a	RESPONSE	M1	1	04	E3	press
660.454	n/a	RESPONSE	M1	1	14	D4	press
660.823	n/a	RESPONSE	M1	1	14	D4	release
660.825	n/a	RESPONSE	M1	1	04	E3	release
661.383	n/a	RESPONSE	M1	1	00	C3	press
661.433	n/a	RESPONSE	M1	1	12	C4	press
661.671	7.758	FIXCROSS	n/a	n/a	n/a	n/a	n/a
661.734	n/a	RESPONSE	M1	1	12	C4	release
661.793	n/a	RESPONSE	M1	1	07	G3	press
661.898	n/a	RESPONSE	M1	1	14	D4	press
662.204	n/a	RESPONSE	M1	1	14	D4	release
662.245	n/a	RESPONSE	M1	1	00	C3	release
662.268	n/a	RESPONSE	M1	1	07	G3	release
662.353	n/a	RESPONSE	M1	1	04	E3	press
662.375	n/a	RESPONSE	M1	1	16	E4	press
662.784	n/a	RESPONSE	M1	1	16	E4	release
663.175	n/a	RESPONSE	M1	1	04	E3	release
669.43	6.325	CUE_LISTEN	M1	2	n/a	n/a	n/a
675.754	7.758	FIXCROSS	n/a	n/a	n/a	n/a	n/a
683.513	6.317	CUE_PLAYBACK_BOTH_HANDS	M1	2	n/a	n/a	n/a
684.619	n/a	RESPONSE	M1	2	00	C3	press
684.63	n/a	RESPONSE	M1	2	19	G4	press
685.191	n/a	RESPONSE	M1	2	07	G3	press
685.243	n/a	RESPONSE	M1	2	14	D4	press
685.484	n/a	RESPONSE	M1	2	19	G4	release
685.505	n/a	RESPONSE	M1	2	14	D4	release
685.549	n/a	RESPONSE	M1	2	00	C3	release
685.558	n/a	RESPONSE	M1	2	07	G3	release
685.779	n/a	RESPONSE	M1	2	04	E3	press
685.843	n/a	RESPONSE	M1	2	14	D4	press
686.302	n/a	RESPONSE	M1	2	14	D4	release
686.383	n/a	RESPONSE	M1	2	04	E3	release
687.584	n/a	RESPONSE	M1	2	00	C3	press
687.635	n/a	RESPONSE	M1	2	17	F4	press
688.066	n/a	RESPONSE	M1	2	17	F4	release
688.098	n/a	RESPONSE	M1	2	00	C3	release
688.619	n/a	RESPONSE	M1	2	00	C3	press
688.66	n/a	RESPONSE	M1	2	17	F4	press
689.281	n/a	RESPONSE	M1	2	07	G3	press
689.314	n/a	RESPONSE	M1	2	14	D4	press
689.561	n/a	RESPONSE	M1	2	00	C3	release
689.569	n/a	RESPONSE	M1	2	14	D4	release
689.685	n/a	RESPONSE	M1	2	17	F4	release
689.814	n/a	RESPONSE	M1	2	07	G3	release
689.83	7.758	FIXCROSS	n/a	n/a	n/a	n/a	n/a
689.903	n/a	RESPONSE	M1	2	04	E3	press
689.931	n/a	RESPONSE	M1	2	14	D4	press
690.356	n/a	RESPONSE	M1	2	14	D4	release
690.388	n/a	RESPONSE	M1	2	04	E3	release
691.219	n/a	RESPONSE	M1	2	00	C3	press
691.263	n/a	RESPONSE	M1	2	12	C4	press
691.519	n/a	RESPONSE	M1	2	12	C4	release
691.639	n/a	RESPONSE	M1	2	07	G3	press
691.646	n/a	RESPONSE	M1	2	16	E4	press
691.961	n/a	RESPONSE	M1	2	16	E4	release
692.034	n/a	RESPONSE	M1	2	07	G3	release
692.094	n/a	RESPONSE	M1	2	04	E3	press
692.135	n/a	RESPONSE	M1	2	14	D4	press
692.629	n/a	RESPONSE	M1	2	00	C3	release
692.798	n/a	RESPONSE	M1	2	14	D4	release
692.88	n/a	RESPONSE	M1	2	04	E3	release
694.338	n/a	RESPONSE	M1	2	12	C4	press
694.639	n/a	RESPONSE	M1	2	12	C4	release
694.66	n/a	RESPONSE	M1	2	16	E4	press
694.993	n/a	RESPONSE	M1	2	12	C4	press
695.013	n/a	RESPONSE	M1	2	16	E4	release
695.584	n/a	RESPONSE	M1	2	12	C4	release
696.956	n/a	RESPONSE	M1	2	00	C3	press
696.996	n/a	RESPONSE	M1	2	16	E4	press
697.308	n/a	RESPONSE	M1	2	16	E4	release
697.419	n/a	RESPONSE	M1	2	07	G3	press
697.47	n/a	RESPONSE	M1	2	12	C4	press
697.501	n/a	RESPONSE	M1	2	00	C3	release
697.588	6.317	CUE_LISTEN	M2	1	n/a	n/a	n/a
697.853	n/a	RESPONSE	M2	1	07	G3	release
698.035	n/a	RESPONSE	M2	1	12	C4	release
703.904	7.759	FIXCROSS	n/a	n/a	n/a	n/a	n/a
711.663	6.325	CUE_PLAYBACK_BOTH_HANDS	M2	1	n/a	n/a	n/a
713.091	n/a	RESPONSE	M2	1	07	G3	press
713.103	n/a	RESPONSE	M2	1	00	C3	press
713.124	n/a	RESPONSE	M2	1	21	A4	press
713.555	n/a	RESPONSE	M2	1	17	F4	press
713.669	n/a	RESPONSE	M2	1	21	A4	release
713.768	n/a	RESPONSE	M2	1	17	F4	release
713.809	n/a	RESPONSE	M2	1	00	C3	release
714.01	n/a	RESPONSE	M2	1	00	C3	press
714.041	n/a	RESPONSE	M2	1	17	F4	press
714.483	n/a	RESPONSE	M2	1	16	E4	press
714.624	n/a	RESPONSE	M2	1	17	F4	release
714.695	n/a	RESPONSE	M2	1	00	C3	release
714.746	n/a	RESPONSE	M2	1	16	E4	release
714.928	n/a	RESPONSE	M2	1	14	D4	press
714.951	n/a	RESPONSE	M2	1	00	C3	press
715.481	n/a	RESPONSE	M2	1	16	E4	press
715.774	n/a	RESPONSE	M2	1	14	D4	release
715.824	n/a	RESPONSE	M2	1	00	C3	release
715.845	n/a	RESPONSE	M2	1	16	E4	release
715.958	n/a	RESPONSE	M2	1	17	F4	press
715.96	n/a	RESPONSE	M2	1	00	C3	press
716.559	n/a	RESPONSE	M2	1	17	F4	release
717.988	7.758	FIXCROSS	n/a	n/a	n/a	n/a	n/a
724.064	n/a	RESPONSE	M2	1	07	G3	release
724.145	n/a	RESPONSE	M2	1	00	C3	release
725.746	6.317	CUE_LISTEN	M2	2	n/a	n/a	n/a
732.063	7.758	FIXCROSS	n/a	n/a	n/a	n/a	n/a
739.821	6.317	CUE_PLAYBACK_BOTH_HANDS	M2	2	n/a	n/a	n/a
740.544	n/a	RESPONSE	M2	2	07	G3	press
740.546	n/a	RESPONSE	M2	2	00	C3	press
740.551	n/a	RESPONSE	M2	2	21	A4	press
741.063	n/a	RESPONSE	M2	2	16	E4	press
741.211	n/a	RESPONSE	M2	2	21	A4	release
741.284	n/a	RESPONSE	M2	2	16	E4	release
741.349	n/a	RESPONSE	M2	2	00	C3	release
741.508	n/a	RESPONSE	M2	2	00	C3	press
741.556	n/a	RESPONSE	M2	2	16	E4	press
741.991	n/a	RESPONSE	M2	2	14	D4	press
742.101	n/a	RESPONSE	M2	2	16	E4	release
742.268	n/a	RESPONSE	M2	2	14	D4	release
742.274	n/a	RESPONSE	M2	2	00	C3	release
742.453	n/a	RESPONSE	M2	2	00	C3	press
742.496	n/a	RESPONSE	M2	2	12	C4	press
742.976	n/a	RESPONSE	M2	2	11	B3	press
743.139	n/a	RESPONSE	M2	2	12	C4	release
743.229	n/a	RESPONSE	M2	2	00	C3	release
743.28	n/a	RESPONSE	M2	2	11	B3	release
743.491	n/a	RESPONSE	M2	2	09	A3	press
743.503	n/a	RESPONSE	M2	2	00	C3	press
743.525	n/a	RESPONSE	M2	2	11	B3	press
743.675	n/a	RESPONSE	M2	2	11	B3	release
745.136	n/a	RESPONSE	M2	2	00	C3	release
745.608	n/a	RESPONSE	M2	2	09	A3	release
746.138	7.758	FIXCROSS	n/a	n/a	n/a	n/a	n/a
749.881	n/a	RESPONSE	M2	2	07	G3	release
753.896	6.325	CUE_LISTEN	M2	1	n/a	n/a	n/a
760.221	7.758	FIXCROSS	n/a	n/a	n/a	n/a	n/a
767.98	6.317	CUE_PLAYBACK_BOTH_HANDS	M2	1	n/a	n/a	n/a
768.763	n/a	RESPONSE	M2	1	09	A3	press
768.781	n/a	RESPONSE	M2	1	07	G3	press
768.793	n/a	RESPONSE	M2	1	00	C3	press
769.283	n/a	RESPONSE	M2	1	11	B3	press
769.541	n/a	RESPONSE	M2	1	11	B3	release
769.574	n/a	RESPONSE	M2	1	09	A3	release
769.629	n/a	RESPONSE	M2	1	00	C3	release
769.78	n/a	RESPONSE	M2	1	00	C3	press
769.849	n/a	RESPONSE	M2	1	12	C4	press
770.28	n/a	RESPONSE	M2	1	11	B3	press
770.44	n/a	RESPONSE	M2	1	12	C4	release
770.463	n/a	RESPONSE	M2	1	11	B3	release
770.51	n/a	RESPONSE	M2	1	00	C3	release
770.774	n/a	RESPONSE	M2	1	00	C3	press
770.828	n/a	RESPONSE	M2	1	11	B3	press
771.214	n/a	RESPONSE	M2	1	11	B3	release
771.704	n/a	RESPONSE	M2	1	00	C3	release
771.873	n/a	RESPONSE	M2	1	07	G3	release
772.036	n/a	RESPONSE	M2	1	07	G3	press
772.046	n/a	RESPONSE	M2	1	09	A3	press
772.05	n/a	RESPONSE	M2	1	00	C3	press
772.543	n/a	RESPONSE	M2	1	11	B3	press
772.811	n/a	RESPONSE	M2	1	09	A3	release
772.841	n/a	RESPONSE	M2	1	11	B3	release
772.918	n/a	RESPONSE	M2	1	00	C3	release
773.069	n/a	RESPONSE	M2	1	00	C3	press
773.13	n/a	RESPONSE	M2	1	12	C4	press
773.571	n/a	RESPONSE	M2	1	11	B3	press
773.615	n/a	RESPONSE	M2	1	12	C4	release
773.756	n/a	RESPONSE	M2	1	11	B3	release
773.775	n/a	RESPONSE	M2	1	00	C3	release
774.009	n/a	RESPONSE	M2	1	00	C3	press
774.05	n/a	RESPONSE	M2	1	11	B3	press
774.296	7.758	FIXCROSS	n/a	n/a	n/a	n/a	n/a
774.509	n/a	RESPONSE	M2	1	11	B3	release
774.52	n/a	RESPONSE	M2	1	12	C4	press
774.743	n/a	RESPONSE	M2	1	12	C4	release
774.824	n/a	RESPONSE	M2	1	00	C3	release
774.844	n/a	RESPONSE	M2	1	07	G3	release
775.015	n/a	RESPONSE	M2	1	07	G3	press
775.036	n/a	RESPONSE	M2	1	00	C3	press
775.058	n/a	RESPONSE	M2	1	14	D4	press
775.819	n/a	RESPONSE	M2	1	14	D4	release
776.34	n/a	RESPONSE	M2	1	07	G3	release
782.055	6.317	CUE_LISTEN	M2	2	n/a	n/a	n/a
787.794	n/a	RESPONSE	M2	2	00	C3	release
788.371	7.758	FIXCROSS	n/a	n/a	n/a	n/a	n/a
796.13	6.325	CUE_PLAYBACK_BOTH_HANDS	M2	2	n/a	n/a	n/a
796.948	n/a	RESPONSE	M2	2	00	C3	press
796.956	n/a	RESPONSE	M2	2	07	G3	press
796.978	n/a	RESPONSE	M2	2	14	D4	press
797.419	n/a	RESPONSE	M2	2	14	D4	release
797.45	n/a	RESPONSE	M2	2	16	E4	press
797.661	n/a	RESPONSE	M2	2	16	E4	release
797.673	n/a	RESPONSE	M2	2	00	C3	release
797.954	n/a	RESPONSE	M2	2	00	C3	press
797.976	n/a	RESPONSE	M2	2	16	E4	press
798.406	n/a	RESPONSE	M2	2	14	D4	press
798.668	n/a	RESPONSE	M2	2	16	E4	release
798.691	n/a	RESPONSE	M2	2	00	C3	release
798.72	n/a	RESPONSE	M2	2	14	D4	release
798.881	n/a	RESPONSE	M2	2	00	C3	press
798.923	n/a	RESPONSE	M2	2	12	C4	press
799.363	n/a	RESPONSE	M2	2	11	B3	press
799.499	n/a	RESPONSE	M2	2	12	C4	release
799.614	n/a	RESPONSE	M2	2	00	C3	release
799.67	n/a	RESPONSE	M2	2	11	B3	release
799.888	n/a	RESPONSE	M2	2	09	A3	press
799.89	n/a	RESPONSE	M2	2	00	C3	press
800.966	n/a	RESPONSE	M2	2	09	A3	release
801.065	n/a	RESPONSE	M2	2	07	G3	release
802.455	7.758	FIXCROSS	n/a	n/a	n/a	n/a	n/a
810.213	6.317	CUE_LISTEN	M3	1	n/a	n/a	n/a
813.344	n/a	RESPONSE	M3	1	00	C3	release
816.53	7.758	FIXCROSS	n/a	n/a	n/a	n/a	n/a
824.288	6.325	CUE_PLAYBACK_RIGHT_HAND	M3	1	n/a	n/a	n/a
825.108	n/a	RESPONSE	M3	1	12	C4	press
825.489	n/a	RESPONSE	M3	1	12	C4	release
825.61	n/a	RESPONSE	M3	1	14	D4	press
825.951	n/a	RESPONSE	M3	1	14	D4	release
826.163	n/a	RESPONSE	M3	1	16	E4	press
826.485	n/a	RESPONSE	M3	1	16	E4	release
826.705	n/a	RESPONSE	M3	1	12	C4	press
827.006	n/a	RESPONSE	M3	1	12	C4	release
827.268	n/a	RESPONSE	M3	1	12	C4	press
827.639	n/a	RESPONSE	M3	1	12	C4	release
827.813	n/a	RESPONSE	M3	1	14	D4	press
828.124	n/a	RESPONSE	M3	1	14	D4	release
828.374	n/a	RESPONSE	M3	1	16	E4	press
828.654	n/a	RESPONSE	M3	1	16	E4	release
828.958	n/a	RESPONSE	M3	1	12	C4	press
829.368	n/a	RESPONSE	M3	1	12	C4	release
830.613	7.758	FIXCROSS	n/a	n/a	n/a	n/a	n/a
838.372	6.317	CUE_LISTEN	M3	2	n/a	n/a	n/a
844.688	7.759	FIXCROSS	n/a	n/a	n/a	n/a	n/a
852.447	6.317	CUE_PLAYBACK_RIGHT_HAND	M3	2	n/a	n/a	n/a
853.191	n/a	RESPONSE	M3	2	16	E4	press
853.483	n/a	RESPONSE	M3	2	16	E4	release
853.734	n/a	RESPONSE	M3	2	17	F4	press
854.098	n/a	RESPONSE	M3	2	17	F4	release
854.266	n/a	RESPONSE	M3	2	19	G4	press
854.878	n/a	RESPONSE	M3	2	19	G4	release
855.219	n/a	RESPONSE	M3	2	16	E4	press
855.54	n/a	RESPONSE	M3	2	16	E4	release
855.743	n/a	RESPONSE	M3	2	17	F4	press
856.035	n/a	RESPONSE	M3	2	17	F4	release
856.304	n/a	RESPONSE	M3	2	19	G4	press
857.288	n/a	RESPONSE	M3	2	19	G4	release
858.763	7.759	FIXCROSS	n/a	n/a	n/a	n/a	n/a
866.522	6.317	CUE_LISTEN	M3	1	n/a	n/a	n/a
872.838	7.758	FIXCROSS	n/a	n/a	n/a	n/a	n/a
880.597	6.325	CUE_PLAYBACK_RIGHT_HAND	M3	1	n/a	n/a	n/a
881.139	n/a	RESPONSE	M3	1	19	G4	press
881.408	n/a	RESPONSE	M3	1	19	G4	release
881.445	n/a	RESPONSE	M3	1	21	A4	press
881.663	n/a	RESPONSE	M3	1	21	A4	release
881.694	n/a	RESPONSE	M3	1	19	G4	press
882.089	n/a	RESPONSE	M3	1	17	F4	press
882.306	n/a	RESPONSE	M3	1	19	G4	release
882.43	n/a	RESPONSE	M3	1	16	E4	press
882.706	n/a	RESPONSE	M3	1	17	F4	release
882.755	n/a	RESPONSE	M3	1	16	E4	release
882.985	n/a	RESPONSE	M3	1	12	C4	press
883.336	n/a	RESPONSE	M3	1	12	C4	release
883.638	n/a	RESPONSE	M3	1	19	G4	press
883.919	n/a	RESPONSE	M3	1	21	A4	press
884.11	n/a	RESPONSE	M3	1	21	A4	release
884.693	n/a	RESPONSE	M3	1	19	G4	release
884.725	n/a	RESPONSE	M3	1	17	F4	press
885.064	n/a	RESPONSE	M3	1	17	F4	release
885.185	n/a	RESPONSE	M3	1	16	E4	press
885.536	n/a	RESPONSE	M3	1	16	E4	release
885.798	n/a	RESPONSE	M3	1	12	C4	press
886.849	n/a	RESPONSE	M3	1	12	C4	release
886.922	7.758	FIXCROSS	n/a	n/a	n/a	n/a	n/a
894.68	6.317	CUE_LISTEN	M3	2	n/a	n/a	n/a
900.997	7.758	FIXCROSS	n/a	n/a	n/a	n/a	n/a
908.755	56.364	CUE_PLAYBACK_RIGHT_HAND	M3	2	n/a	n/a	n/a
909.31	n/a	RESPONSE	M3	2	12	C4	press
909.716	n/a	RESPONSE	M3	2	12	C4	release
909.803	n/a	RESPONSE	M3	2	07	G3	press
910.284	n/a	RESPONSE	M3	2	12	C4	press
910.933	n/a	RESPONSE	M3	2	12	C4	release
911.203	n/a	RESPONSE	M3	2	12	C4	press
911.633	n/a	RESPONSE	M3	2	12	C4	release
912.525	n/a	RESPONSE	M3	2	12	C4	press
913.149	n/a	RESPONSE	M3	2	12	C4	release
913.253	n/a	FIXCROSS	n/a	n/a	n/a	n/a	n/a
913.283	n/a	RESPONSE	M3	2	07	G3	release
