onset	duration	trial_type	trial_number	stroop_condition	stim_text(PL)	stim_text(eng)	stim_color(PL)	stim_color(eng)	response_type	response_color
0.0	n/a	RESPONSE	n/a	n/a	n/a	n/a	n/a	n/a	n/a	blue
55.0308	n/a	RESPONSE	n/a	n/a	n/a	n/a	n/a	n/a	n/a	n/a
55.1002	1.0167	ITI	n/a	n/a	n/a	n/a	n/a	n/a	n/a	n/a
56.1168	0.5167	FIXCROSS	n/a	n/a	n/a	n/a	n/a	n/a	n/a	n/a
56.6335	1.6	T_INK	1	Incongruent	zielony	green	niebieski	blue	hit	n/a
58.2108	n/a	RESPONSE	n/a	n/a	n/a	n/a	n/a	n/a	n/a	blue
58.2335	0.5167	FEEDBACK	n/a	n/a	n/a	n/a	n/a	n/a	n/a	n/a
58.7502	1.0167	ITI	n/a	n/a	n/a	n/a	n/a	n/a	n/a	n/a
59.7669	0.5167	FIXCROSS	n/a	n/a	n/a	n/a	n/a	n/a	n/a	n/a
60.2835	0.9667	T_INK	2	Neutral	xxxxxxxx	xxxxxxxx	żółty	yellow	hit	n/a
61.215	n/a	RESPONSE	n/a	n/a	n/a	n/a	n/a	n/a	n/a	yellow
61.2502	0.5167	FEEDBACK	n/a	n/a	n/a	n/a	n/a	n/a	n/a	n/a
61.7669	1.0167	ITI	n/a	n/a	n/a	n/a	n/a	n/a	n/a	n/a
62.7836	0.5167	FIXCROSS	n/a	n/a	n/a	n/a	n/a	n/a	n/a	n/a
63.3002	0.85	T_INK	3	Incongruent	żółty	yellow	niebieski	blue	incorrect	n/a
64.1233	n/a	RESPONSE	n/a	n/a	n/a	n/a	n/a	n/a	n/a	yellow
64.1502	0.5167	FEEDBACK	n/a	n/a	n/a	n/a	n/a	n/a	n/a	n/a
64.6669	1.0167	ITI	n/a	n/a	n/a	n/a	n/a	n/a	n/a	n/a
65.6836	0.5167	FIXCROSS	n/a	n/a	n/a	n/a	n/a	n/a	n/a	n/a
66.2003	1.4	T_INK	4	Incongruent	zielony	green	żółty	yellow	hit	n/a
67.5748	n/a	RESPONSE	n/a	n/a	n/a	n/a	n/a	n/a	n/a	yellow
67.6003	0.5167	FEEDBACK	n/a	n/a	n/a	n/a	n/a	n/a	n/a	n/a
68.1169	1.0167	ITI	n/a	n/a	n/a	n/a	n/a	n/a	n/a	n/a
69.1336	0.5167	FIXCROSS	n/a	n/a	n/a	n/a	n/a	n/a	n/a	n/a
69.6503	1.0	T_INK	5	Neutral	xxxxx	xxxxx	niebieski	blue	hit	n/a
70.627	n/a	RESPONSE	n/a	n/a	n/a	n/a	n/a	n/a	n/a	blue
70.6503	0.5167	FEEDBACK	n/a	n/a	n/a	n/a	n/a	n/a	n/a	n/a
71.167	1.0167	ITI	n/a	n/a	n/a	n/a	n/a	n/a	n/a	n/a
72.1836	0.5167	FIXCROSS	n/a	n/a	n/a	n/a	n/a	n/a	n/a	n/a
72.7003	0.9833	T_INK	6	Neutral	xxxxxxxx	xxxxxxxx	zielony	green	hit	n/a
73.6473	n/a	RESPONSE	n/a	n/a	n/a	n/a	n/a	n/a	n/a	green
73.6837	0.5167	FEEDBACK	n/a	n/a	n/a	n/a	n/a	n/a	n/a	n/a
74.2003	1.0167	ITI	n/a	n/a	n/a	n/a	n/a	n/a	n/a	n/a
75.217	0.5167	FIXCROSS	n/a	n/a	n/a	n/a	n/a	n/a	n/a	n/a
75.7337	1.6333	T_INK	7	Incongruent	czerwony	red	zielony	green	hit	n/a
77.3387	n/a	RESPONSE	n/a	n/a	n/a	n/a	n/a	n/a	n/a	green
77.367	0.5167	FEEDBACK	n/a	n/a	n/a	n/a	n/a	n/a	n/a	n/a
77.8837	1.0167	ITI	n/a	n/a	n/a	n/a	n/a	n/a	n/a	n/a
78.9004	0.5167	FIXCROSS	n/a	n/a	n/a	n/a	n/a	n/a	n/a	n/a
79.417	1.05	T_INK	8	Incongruent	niebieski	blue	zielony	green	hit	n/a
80.4388	n/a	RESPONSE	n/a	n/a	n/a	n/a	n/a	n/a	n/a	green
80.4671	0.5167	FEEDBACK	n/a	n/a	n/a	n/a	n/a	n/a	n/a	n/a
80.9837	1.0167	ITI	n/a	n/a	n/a	n/a	n/a	n/a	n/a	n/a
82.0004	0.5167	FIXCROSS	n/a	n/a	n/a	n/a	n/a	n/a	n/a	n/a
82.5171	0.55	T_INK	9	Neutral	xxxxxxxxx	xxxxxxxxx	zielony	green	hit	n/a
83.0436	n/a	RESPONSE	n/a	n/a	n/a	n/a	n/a	n/a	n/a	green
83.0671	0.5167	FEEDBACK	n/a	n/a	n/a	n/a	n/a	n/a	n/a	n/a
83.5837	1.0167	ITI	n/a	n/a	n/a	n/a	n/a	n/a	n/a	n/a
84.6004	0.5167	FIXCROSS	n/a	n/a	n/a	n/a	n/a	n/a	n/a	n/a
85.1171	0.85	T_INK	10	Neutral	xxxxx	xxxxx	czerwony	red	hit	n/a
85.9361	n/a	RESPONSE	n/a	n/a	n/a	n/a	n/a	n/a	n/a	red
85.9671	0.5167	FEEDBACK	n/a	n/a	n/a	n/a	n/a	n/a	n/a	n/a
86.4838	1.0167	ITI	n/a	n/a	n/a	n/a	n/a	n/a	n/a	n/a
87.5004	0.5167	FIXCROSS	n/a	n/a	n/a	n/a	n/a	n/a	n/a	n/a
88.0171	1.1833	T_INK	11	Neutral	xxxxxxxx	xxxxxxxx	niebieski	blue	hit	n/a
89.18	n/a	RESPONSE	n/a	n/a	n/a	n/a	n/a	n/a	n/a	blue
89.2005	0.5167	FEEDBACK	n/a	n/a	n/a	n/a	n/a	n/a	n/a	n/a
89.7171	1.0167	ITI	n/a	n/a	n/a	n/a	n/a	n/a	n/a	n/a
90.7338	0.5167	FIXCROSS	n/a	n/a	n/a	n/a	n/a	n/a	n/a	n/a
91.2505	0.9333	T_INK	12	Incongruent	żółty	yellow	zielony	green	hit	n/a
92.1524	n/a	RESPONSE	n/a	n/a	n/a	n/a	n/a	n/a	n/a	green
92.1838	0.5167	FEEDBACK	n/a	n/a	n/a	n/a	n/a	n/a	n/a	n/a
92.7005	1.0333	ITI	n/a	n/a	n/a	n/a	n/a	n/a	n/a	n/a
100.8616	n/a	RESPONSE	n/a	n/a	n/a	n/a	n/a	n/a	n/a	n/a
100.9172	1.0167	ITI	n/a	n/a	n/a	n/a	n/a	n/a	n/a	n/a
101.9339	0.5167	FIXCROSS	n/a	n/a	n/a	n/a	n/a	n/a	n/a	n/a
102.4506	1.1	INK	1	Neutral	xxxxx	xxxxx	niebieski	blue	hit	n/a
103.5304	n/a	RESPONSE	n/a	n/a	n/a	n/a	n/a	n/a	n/a	blue
103.5506	1.0167	ITI	n/a	n/a	n/a	n/a	n/a	n/a	n/a	n/a
104.5673	0.5167	FIXCROSS	n/a	n/a	n/a	n/a	n/a	n/a	n/a	n/a
105.0839	1.0167	INK	2	Neutral	xxxxxxxx	xxxxxxxx	żółty	yellow	hit	n/a
106.0713	n/a	RESPONSE	n/a	n/a	n/a	n/a	n/a	n/a	n/a	yellow
106.1006	1.0167	ITI	n/a	n/a	n/a	n/a	n/a	n/a	n/a	n/a
107.1173	0.5167	FIXCROSS	n/a	n/a	n/a	n/a	n/a	n/a	n/a	n/a
107.6339	0.8333	INK	3	Incongruent	czerwony	red	zielony	green	hit	n/a
108.4366	n/a	RESPONSE	n/a	n/a	n/a	n/a	n/a	n/a	n/a	green
108.4673	1.0167	ITI	n/a	n/a	n/a	n/a	n/a	n/a	n/a	n/a
109.484	0.5167	FIXCROSS	n/a	n/a	n/a	n/a	n/a	n/a	n/a	n/a
110.0006	0.6833	INK	4	Neutral	xxxxxxxxx	xxxxxxxxx	czerwony	red	hit	n/a
110.6579	n/a	RESPONSE	n/a	n/a	n/a	n/a	n/a	n/a	n/a	red
110.684	1.0167	ITI	n/a	n/a	n/a	n/a	n/a	n/a	n/a	n/a
111.7007	0.5167	FIXCROSS	n/a	n/a	n/a	n/a	n/a	n/a	n/a	n/a
112.2173	0.7667	INK	5	Neutral	xxxxxxxxx	xxxxxxxxx	żółty	yellow	hit	n/a
112.9591	n/a	RESPONSE	n/a	n/a	n/a	n/a	n/a	n/a	n/a	yellow
112.984	1.0167	ITI	n/a	n/a	n/a	n/a	n/a	n/a	n/a	n/a
114.0007	0.5167	FIXCROSS	n/a	n/a	n/a	n/a	n/a	n/a	n/a	n/a
114.5173	0.6167	INK	6	Neutral	xxxxxxx	xxxxxxx	czerwony	red	hit	n/a
115.1005	n/a	RESPONSE	n/a	n/a	n/a	n/a	n/a	n/a	n/a	red
115.134	1.0167	ITI	n/a	n/a	n/a	n/a	n/a	n/a	n/a	n/a
116.1507	0.5167	FIXCROSS	n/a	n/a	n/a	n/a	n/a	n/a	n/a	n/a
116.6674	1.0167	INK	7	Neutral	xxxxx	xxxxx	niebieski	blue	hit	n/a
117.6573	n/a	RESPONSE	n/a	n/a	n/a	n/a	n/a	n/a	n/a	blue
117.684	1.0167	ITI	n/a	n/a	n/a	n/a	n/a	n/a	n/a	n/a
118.7007	0.5167	FIXCROSS	n/a	n/a	n/a	n/a	n/a	n/a	n/a	n/a
119.2174	0.8333	INK	8	Incongruent	niebieski	blue	żółty	yellow	hit	n/a
120.0224	n/a	RESPONSE	n/a	n/a	n/a	n/a	n/a	n/a	n/a	yellow
120.0507	1.0167	ITI	n/a	n/a	n/a	n/a	n/a	n/a	n/a	n/a
121.0674	0.5167	FIXCROSS	n/a	n/a	n/a	n/a	n/a	n/a	n/a	n/a
121.5841	1.25	INK	9	Incongruent	niebieski	blue	zielony	green	hit	n/a
122.803	n/a	RESPONSE	n/a	n/a	n/a	n/a	n/a	n/a	n/a	green
122.8341	1.0167	ITI	n/a	n/a	n/a	n/a	n/a	n/a	n/a	n/a
123.8508	0.5167	FIXCROSS	n/a	n/a	n/a	n/a	n/a	n/a	n/a	n/a
124.3674	0.7333	INK	10	Incongruent	zielony	green	czerwony	red	hit	n/a
125.0723	n/a	RESPONSE	n/a	n/a	n/a	n/a	n/a	n/a	n/a	red
125.1008	1.0167	ITI	n/a	n/a	n/a	n/a	n/a	n/a	n/a	n/a
126.1174	0.5167	FIXCROSS	n/a	n/a	n/a	n/a	n/a	n/a	n/a	n/a
126.6341	0.9667	INK	11	Incongruent	żółty	yellow	niebieski	blue	hit	n/a
127.5652	n/a	RESPONSE	n/a	n/a	n/a	n/a	n/a	n/a	n/a	blue
127.6008	1.0167	ITI	n/a	n/a	n/a	n/a	n/a	n/a	n/a	n/a
128.6175	0.5167	FIXCROSS	n/a	n/a	n/a	n/a	n/a	n/a	n/a	n/a
129.1341	0.6833	INK	12	Incongruent	żółty	yellow	czerwony	red	hit	n/a
129.7864	n/a	RESPONSE	n/a	n/a	n/a	n/a	n/a	n/a	n/a	red
129.8175	1.0167	ITI	n/a	n/a	n/a	n/a	n/a	n/a	n/a	n/a
130.8341	0.5167	FIXCROSS	n/a	n/a	n/a	n/a	n/a	n/a	n/a	n/a
131.3508	0.6833	INK	13	Neutral	xxxxxxxx	xxxxxxxx	niebieski	blue	hit	n/a
132.0078	n/a	RESPONSE	n/a	n/a	n/a	n/a	n/a	n/a	n/a	blue
132.0342	1.0167	ITI	n/a	n/a	n/a	n/a	n/a	n/a	n/a	n/a
133.0508	0.5167	FIXCROSS	n/a	n/a	n/a	n/a	n/a	n/a	n/a	n/a
133.5675	0.7833	INK	14	Incongruent	niebieski	blue	żółty	yellow	hit	n/a
134.3249	n/a	RESPONSE	n/a	n/a	n/a	n/a	n/a	n/a	n/a	yellow
134.3509	1.0167	ITI	n/a	n/a	n/a	n/a	n/a	n/a	n/a	n/a
135.3675	0.5167	FIXCROSS	n/a	n/a	n/a	n/a	n/a	n/a	n/a	n/a
135.8842	0.5667	INK	15	Incongruent	czerwony	red	żółty	yellow	hit	n/a
136.4184	n/a	RESPONSE	n/a	n/a	n/a	n/a	n/a	n/a	n/a	yellow
136.4509	1.0167	ITI	n/a	n/a	n/a	n/a	n/a	n/a	n/a	n/a
137.4675	0.5167	FIXCROSS	n/a	n/a	n/a	n/a	n/a	n/a	n/a	n/a
137.9842	0.5667	INK	16	Neutral	xxxxxxx	xxxxxxx	czerwony	red	hit	n/a
138.5277	n/a	RESPONSE	n/a	n/a	n/a	n/a	n/a	n/a	n/a	red
138.5509	1.0167	ITI	n/a	n/a	n/a	n/a	n/a	n/a	n/a	n/a
139.5676	0.5167	FIXCROSS	n/a	n/a	n/a	n/a	n/a	n/a	n/a	n/a
140.0842	0.8833	INK	17	Incongruent	niebieski	blue	zielony	green	hit	n/a
140.9408	n/a	RESPONSE	n/a	n/a	n/a	n/a	n/a	n/a	n/a	green
140.9676	1.0167	ITI	n/a	n/a	n/a	n/a	n/a	n/a	n/a	n/a
141.9842	0.5167	FIXCROSS	n/a	n/a	n/a	n/a	n/a	n/a	n/a	n/a
142.5009	0.8	INK	18	Neutral	xxxxxxx	xxxxxxx	niebieski	blue	hit	n/a
143.2739	n/a	RESPONSE	n/a	n/a	n/a	n/a	n/a	n/a	n/a	blue
143.3009	1.0167	ITI	n/a	n/a	n/a	n/a	n/a	n/a	n/a	n/a
144.3176	0.5167	FIXCROSS	n/a	n/a	n/a	n/a	n/a	n/a	n/a	n/a
144.8343	0.6833	INK	19	Incongruent	czerwony	red	żółty	yellow	hit	n/a
145.4951	n/a	RESPONSE	n/a	n/a	n/a	n/a	n/a	n/a	n/a	yellow
145.5176	1.0167	ITI	n/a	n/a	n/a	n/a	n/a	n/a	n/a	n/a
146.5343	0.5167	FIXCROSS	n/a	n/a	n/a	n/a	n/a	n/a	n/a	n/a
147.0509	0.3667	INK	20	Incongruent	czerwony	red	żółty	yellow	hit	n/a
147.3969	n/a	RESPONSE	n/a	n/a	n/a	n/a	n/a	n/a	n/a	yellow
147.4176	1.0167	ITI	n/a	n/a	n/a	n/a	n/a	n/a	n/a	n/a
148.4343	0.5167	FIXCROSS	n/a	n/a	n/a	n/a	n/a	n/a	n/a	n/a
148.951	0.4	INK	21	Incongruent	zielony	green	żółty	yellow	hit	n/a
149.3305	n/a	RESPONSE	n/a	n/a	n/a	n/a	n/a	n/a	n/a	yellow
149.351	1.0167	ITI	n/a	n/a	n/a	n/a	n/a	n/a	n/a	n/a
150.3676	0.5167	FIXCROSS	n/a	n/a	n/a	n/a	n/a	n/a	n/a	n/a
150.8843	0.95	INK	22	Neutral	xxxxxxxx	xxxxxxxx	zielony	green	hit	n/a
151.8074	n/a	RESPONSE	n/a	n/a	n/a	n/a	n/a	n/a	n/a	green
151.8343	1.0167	ITI	n/a	n/a	n/a	n/a	n/a	n/a	n/a	n/a
152.851	0.5167	FIXCROSS	n/a	n/a	n/a	n/a	n/a	n/a	n/a	n/a
153.3677	0.5667	INK	23	Incongruent	żółty	yellow	zielony	green	hit	n/a
153.9008	n/a	RESPONSE	n/a	n/a	n/a	n/a	n/a	n/a	n/a	green
153.9343	1.0167	ITI	n/a	n/a	n/a	n/a	n/a	n/a	n/a	n/a
154.951	0.5167	FIXCROSS	n/a	n/a	n/a	n/a	n/a	n/a	n/a	n/a
155.4677	0.5333	INK	24	Neutral	xxxxxxx	xxxxxxx	żółty	yellow	hit	n/a
155.9782	n/a	RESPONSE	n/a	n/a	n/a	n/a	n/a	n/a	n/a	yellow
156.001	1.0167	ITI	n/a	n/a	n/a	n/a	n/a	n/a	n/a	n/a
157.0177	0.5167	FIXCROSS	n/a	n/a	n/a	n/a	n/a	n/a	n/a	n/a
157.5344	0.8833	INK	25	Incongruent	żółty	yellow	niebieski	blue	hit	n/a
158.3913	n/a	RESPONSE	n/a	n/a	n/a	n/a	n/a	n/a	n/a	blue
158.4177	1.0167	ITI	n/a	n/a	n/a	n/a	n/a	n/a	n/a	n/a
159.4344	0.5167	FIXCROSS	n/a	n/a	n/a	n/a	n/a	n/a	n/a	n/a
159.9511	0.6833	INK	26	Incongruent	żółty	yellow	czerwony	red	hit	n/a
160.6125	n/a	RESPONSE	n/a	n/a	n/a	n/a	n/a	n/a	n/a	red
160.6344	1.0167	ITI	n/a	n/a	n/a	n/a	n/a	n/a	n/a	n/a
161.6511	0.5167	FIXCROSS	n/a	n/a	n/a	n/a	n/a	n/a	n/a	n/a
162.1677	0.4833	INK	27	Incongruent	żółty	yellow	czerwony	red	hit	n/a
162.626	n/a	RESPONSE	n/a	n/a	n/a	n/a	n/a	n/a	n/a	red
162.6511	1.0167	ITI	n/a	n/a	n/a	n/a	n/a	n/a	n/a	n/a
163.6678	0.5167	FIXCROSS	n/a	n/a	n/a	n/a	n/a	n/a	n/a	n/a
164.1844	0.4	INK	28	Neutral	xxxxx	xxxxx	czerwony	red	hit	n/a
164.5596	n/a	RESPONSE	n/a	n/a	n/a	n/a	n/a	n/a	n/a	red
164.5844	1.0167	ITI	n/a	n/a	n/a	n/a	n/a	n/a	n/a	n/a
165.6011	0.5167	FIXCROSS	n/a	n/a	n/a	n/a	n/a	n/a	n/a	n/a
166.1178	0.9667	INK	29	Incongruent	zielony	green	niebieski	blue	hit	n/a
167.0525	n/a	RESPONSE	n/a	n/a	n/a	n/a	n/a	n/a	n/a	blue
167.0844	1.0167	ITI	n/a	n/a	n/a	n/a	n/a	n/a	n/a	n/a
168.1011	0.5167	FIXCROSS	n/a	n/a	n/a	n/a	n/a	n/a	n/a	n/a
168.6178	0.7	INK	30	Incongruent	żółty	yellow	zielony	green	incorrect	n/a
169.2897	n/a	RESPONSE	n/a	n/a	n/a	n/a	n/a	n/a	n/a	yellow
169.3178	1.0167	ITI	n/a	n/a	n/a	n/a	n/a	n/a	n/a	n/a
170.3345	0.5167	FIXCROSS	n/a	n/a	n/a	n/a	n/a	n/a	n/a	n/a
170.8511	1.4334	INK	31	Incongruent	zielony	green	czerwony	red	hit	n/a
172.2622	n/a	RESPONSE	n/a	n/a	n/a	n/a	n/a	n/a	n/a	red
172.2845	1.0167	ITI	n/a	n/a	n/a	n/a	n/a	n/a	n/a	n/a
173.3012	0.5167	FIXCROSS	n/a	n/a	n/a	n/a	n/a	n/a	n/a	n/a
173.8178	0.9167	INK	32	Incongruent	żółty	yellow	zielony	green	hit	n/a
174.7072	n/a	RESPONSE	n/a	n/a	n/a	n/a	n/a	n/a	n/a	green
174.7345	1.0167	ITI	n/a	n/a	n/a	n/a	n/a	n/a	n/a	n/a
175.7512	0.5167	FIXCROSS	n/a	n/a	n/a	n/a	n/a	n/a	n/a	n/a
176.2679	0.6667	INK	33	Neutral	xxxxx	xxxxx	zielony	green	hit	n/a
176.9124	n/a	RESPONSE	n/a	n/a	n/a	n/a	n/a	n/a	n/a	green
176.9345	1.0167	ITI	n/a	n/a	n/a	n/a	n/a	n/a	n/a	n/a
177.9512	0.5167	FIXCROSS	n/a	n/a	n/a	n/a	n/a	n/a	n/a	n/a
178.4679	0.45	INK	34	Neutral	xxxxxxxx	xxxxxxxx	zielony	green	hit	n/a
178.894	n/a	RESPONSE	n/a	n/a	n/a	n/a	n/a	n/a	n/a	green
178.9179	1.0167	ITI	n/a	n/a	n/a	n/a	n/a	n/a	n/a	n/a
179.9346	0.5167	FIXCROSS	n/a	n/a	n/a	n/a	n/a	n/a	n/a	n/a
180.4512	1.0667	INK	35	Incongruent	czerwony	red	niebieski	blue	hit	n/a
181.4987	n/a	RESPONSE	n/a	n/a	n/a	n/a	n/a	n/a	n/a	blue
181.5179	1.0167	ITI	n/a	n/a	n/a	n/a	n/a	n/a	n/a	n/a
182.5346	0.5167	FIXCROSS	n/a	n/a	n/a	n/a	n/a	n/a	n/a	n/a
183.0512	0.7667	INK	36	Neutral	xxxxx	xxxxx	niebieski	blue	hit	n/a
183.7841	n/a	RESPONSE	n/a	n/a	n/a	n/a	n/a	n/a	n/a	blue
183.8179	1.0167	ITI	n/a	n/a	n/a	n/a	n/a	n/a	n/a	n/a
184.8346	0.5167	FIXCROSS	n/a	n/a	n/a	n/a	n/a	n/a	n/a	n/a
185.3513	0.8833	INK	37	Neutral	xxxxx	xxxxx	zielony	green	hit	n/a
186.2131	n/a	RESPONSE	n/a	n/a	n/a	n/a	n/a	n/a	n/a	green
186.2346	1.0167	ITI	n/a	n/a	n/a	n/a	n/a	n/a	n/a	n/a
187.2513	0.5167	FIXCROSS	n/a	n/a	n/a	n/a	n/a	n/a	n/a	n/a
187.768	1.1333	INK	38	Incongruent	zielony	green	czerwony	red	hit	n/a
188.8817	n/a	RESPONSE	n/a	n/a	n/a	n/a	n/a	n/a	n/a	red
188.9013	1.0167	ITI	n/a	n/a	n/a	n/a	n/a	n/a	n/a	n/a
189.918	0.5167	FIXCROSS	n/a	n/a	n/a	n/a	n/a	n/a	n/a	n/a
190.4347	0.5833	INK	39	Neutral	xxxxxxxxx	xxxxxxxxx	żółty	yellow	hit	n/a
190.9911	n/a	RESPONSE	n/a	n/a	n/a	n/a	n/a	n/a	n/a	yellow
191.018	1.0167	ITI	n/a	n/a	n/a	n/a	n/a	n/a	n/a	n/a
192.0347	0.5167	FIXCROSS	n/a	n/a	n/a	n/a	n/a	n/a	n/a	n/a
192.5513	0.8	INK	40	Neutral	xxxxxxxx	xxxxxxxx	niebieski	blue	hit	n/a
193.3242	n/a	RESPONSE	n/a	n/a	n/a	n/a	n/a	n/a	n/a	blue
193.3513	1.0167	ITI	n/a	n/a	n/a	n/a	n/a	n/a	n/a	n/a
194.368	0.5167	FIXCROSS	n/a	n/a	n/a	n/a	n/a	n/a	n/a	n/a
194.8847	0.8333	INK	41	Incongruent	zielony	green	żółty	yellow	hit	n/a
195.6895	n/a	RESPONSE	n/a	n/a	n/a	n/a	n/a	n/a	n/a	yellow
195.718	1.0167	ITI	n/a	n/a	n/a	n/a	n/a	n/a	n/a	n/a
196.7347	0.5167	FIXCROSS	n/a	n/a	n/a	n/a	n/a	n/a	n/a	n/a
197.2514	0.6833	INK	42	Neutral	xxxxxxxxx	xxxxxxxxx	czerwony	red	hit	n/a
197.9107	n/a	RESPONSE	n/a	n/a	n/a	n/a	n/a	n/a	n/a	red
197.9347	1.0167	ITI	n/a	n/a	n/a	n/a	n/a	n/a	n/a	n/a
198.9514	0.5167	FIXCROSS	n/a	n/a	n/a	n/a	n/a	n/a	n/a	n/a
199.4681	0.6333	INK	43	Neutral	xxxxxxx	xxxxxxx	żółty	yellow	hit	n/a
200.084	n/a	RESPONSE	n/a	n/a	n/a	n/a	n/a	n/a	n/a	yellow
200.1014	1.0167	ITI	n/a	n/a	n/a	n/a	n/a	n/a	n/a	n/a
201.1181	0.5167	FIXCROSS	n/a	n/a	n/a	n/a	n/a	n/a	n/a	n/a
201.6347	0.9833	INK	44	Incongruent	zielony	green	niebieski	blue	hit	n/a
202.5929	n/a	RESPONSE	n/a	n/a	n/a	n/a	n/a	n/a	n/a	blue
202.6181	1.0167	ITI	n/a	n/a	n/a	n/a	n/a	n/a	n/a	n/a
203.6348	0.5167	FIXCROSS	n/a	n/a	n/a	n/a	n/a	n/a	n/a	n/a
204.1514	0.5	INK	45	Incongruent	czerwony	red	niebieski	blue	hit	n/a
204.6224	n/a	RESPONSE	n/a	n/a	n/a	n/a	n/a	n/a	n/a	blue
204.6514	1.0167	ITI	n/a	n/a	n/a	n/a	n/a	n/a	n/a	n/a
205.6681	0.5167	FIXCROSS	n/a	n/a	n/a	n/a	n/a	n/a	n/a	n/a
206.1848	0.6667	INK	46	Neutral	xxxxxxx	xxxxxxx	czerwony	red	hit	n/a
206.8277	n/a	RESPONSE	n/a	n/a	n/a	n/a	n/a	n/a	n/a	red
206.8515	1.0167	ITI	n/a	n/a	n/a	n/a	n/a	n/a	n/a	n/a
207.8681	0.5167	FIXCROSS	n/a	n/a	n/a	n/a	n/a	n/a	n/a	n/a
208.3848	0.4833	INK	47	Neutral	xxxxxxxxx	xxxxxxxxx	czerwony	red	hit	n/a
208.8412	n/a	RESPONSE	n/a	n/a	n/a	n/a	n/a	n/a	n/a	red
208.8681	1.0167	ITI	n/a	n/a	n/a	n/a	n/a	n/a	n/a	n/a
209.8848	0.5167	FIXCROSS	n/a	n/a	n/a	n/a	n/a	n/a	n/a	n/a
210.4015	0.5167	INK	48	Neutral	xxxxxxxx	xxxxxxxx	żółty	yellow	hit	n/a
210.8867	n/a	RESPONSE	n/a	n/a	n/a	n/a	n/a	n/a	n/a	yellow
210.9181	1.0167	ITI	n/a	n/a	n/a	n/a	n/a	n/a	n/a	n/a
211.9348	0.5167	FIXCROSS	n/a	n/a	n/a	n/a	n/a	n/a	n/a	n/a
212.4515	0.5333	INK	49	Incongruent	żółty	yellow	niebieski	blue	hit	n/a
212.9641	n/a	RESPONSE	n/a	n/a	n/a	n/a	n/a	n/a	n/a	blue
212.9848	1.0167	ITI	n/a	n/a	n/a	n/a	n/a	n/a	n/a	n/a
214.0015	0.5167	FIXCROSS	n/a	n/a	n/a	n/a	n/a	n/a	n/a	n/a
214.5182	0.6833	INK	50	Neutral	xxxxxxxxx	xxxxxxxxx	żółty	yellow	hit	n/a
215.1694	n/a	RESPONSE	n/a	n/a	n/a	n/a	n/a	n/a	n/a	yellow
215.2015	1.0167	ITI	n/a	n/a	n/a	n/a	n/a	n/a	n/a	n/a
216.2182	0.5167	FIXCROSS	n/a	n/a	n/a	n/a	n/a	n/a	n/a	n/a
216.7349	0.8333	INK	51	Incongruent	niebieski	blue	czerwony	red	hit	n/a
217.5345	n/a	RESPONSE	n/a	n/a	n/a	n/a	n/a	n/a	n/a	red
217.5682	1.0167	ITI	n/a	n/a	n/a	n/a	n/a	n/a	n/a	n/a
218.5849	0.5167	FIXCROSS	n/a	n/a	n/a	n/a	n/a	n/a	n/a	n/a
219.1015	0.6167	INK	52	Neutral	xxxxxxxxx	xxxxxxxxx	zielony	green	incorrect	n/a
219.6918	n/a	RESPONSE	n/a	n/a	n/a	n/a	n/a	n/a	n/a	yellow
219.7182	1.0167	ITI	n/a	n/a	n/a	n/a	n/a	n/a	n/a	n/a
220.7349	0.5167	FIXCROSS	n/a	n/a	n/a	n/a	n/a	n/a	n/a	n/a
221.2516	0.9667	INK	53	Incongruent	zielony	green	niebieski	blue	hit	n/a
222.2007	n/a	RESPONSE	n/a	n/a	n/a	n/a	n/a	n/a	n/a	blue
222.2182	1.0167	ITI	n/a	n/a	n/a	n/a	n/a	n/a	n/a	n/a
223.2349	0.5167	FIXCROSS	n/a	n/a	n/a	n/a	n/a	n/a	n/a	n/a
223.7516	1.0833	INK	54	Incongruent	niebieski	blue	czerwony	red	hit	n/a
224.8056	n/a	RESPONSE	n/a	n/a	n/a	n/a	n/a	n/a	n/a	red
224.8349	1.0167	ITI	n/a	n/a	n/a	n/a	n/a	n/a	n/a	n/a
225.8516	0.5167	FIXCROSS	n/a	n/a	n/a	n/a	n/a	n/a	n/a	n/a
226.3683	0.7333	INK	55	Neutral	xxxxxxxx	xxxxxxxx	żółty	yellow	hit	n/a
227.0747	n/a	RESPONSE	n/a	n/a	n/a	n/a	n/a	n/a	n/a	yellow
227.1016	1.0167	ITI	n/a	n/a	n/a	n/a	n/a	n/a	n/a	n/a
228.1183	0.5167	FIXCROSS	n/a	n/a	n/a	n/a	n/a	n/a	n/a	n/a
228.635	1.5667	INK	56	Incongruent	czerwony	red	zielony	green	hit	n/a
230.1749	n/a	RESPONSE	n/a	n/a	n/a	n/a	n/a	n/a	n/a	green
230.2016	1.0167	ITI	n/a	n/a	n/a	n/a	n/a	n/a	n/a	n/a
231.2183	0.5167	FIXCROSS	n/a	n/a	n/a	n/a	n/a	n/a	n/a	n/a
231.735	0.4333	INK	57	Incongruent	czerwony	red	zielony	green	hit	n/a
232.1406	n/a	RESPONSE	n/a	n/a	n/a	n/a	n/a	n/a	n/a	green
232.1683	1.0167	ITI	n/a	n/a	n/a	n/a	n/a	n/a	n/a	n/a
233.185	0.5167	FIXCROSS	n/a	n/a	n/a	n/a	n/a	n/a	n/a	n/a
233.7017	0.8333	INK	58	Neutral	xxxxxxx	xxxxxxx	niebieski	blue	hit	n/a
234.5055	n/a	RESPONSE	n/a	n/a	n/a	n/a	n/a	n/a	n/a	blue
234.535	1.0167	ITI	n/a	n/a	n/a	n/a	n/a	n/a	n/a	n/a
235.5517	0.5167	FIXCROSS	n/a	n/a	n/a	n/a	n/a	n/a	n/a	n/a
236.0684	1.0667	INK	59	Incongruent	niebieski	blue	zielony	green	hit	n/a
237.1104	n/a	RESPONSE	n/a	n/a	n/a	n/a	n/a	n/a	n/a	green
237.135	1.0167	ITI	n/a	n/a	n/a	n/a	n/a	n/a	n/a	n/a
238.1517	0.5167	FIXCROSS	n/a	n/a	n/a	n/a	n/a	n/a	n/a	n/a
238.6684	0.8667	INK	60	Incongruent	czerwony	red	niebieski	blue	hit	n/a
239.5075	n/a	RESPONSE	n/a	n/a	n/a	n/a	n/a	n/a	n/a	blue
239.5351	1.0167	ITI	n/a	n/a	n/a	n/a	n/a	n/a	n/a	n/a
240.5517	0.5167	FIXCROSS	n/a	n/a	n/a	n/a	n/a	n/a	n/a	n/a
241.0684	0.8833	INK	61	Neutral	xxxxxxxx	xxxxxxxx	niebieski	blue	hit	n/a
241.9204	n/a	RESPONSE	n/a	n/a	n/a	n/a	n/a	n/a	n/a	blue
241.9517	1.0167	ITI	n/a	n/a	n/a	n/a	n/a	n/a	n/a	n/a
242.9684	0.5167	FIXCROSS	n/a	n/a	n/a	n/a	n/a	n/a	n/a	n/a
243.4851	0.85	INK	62	Incongruent	niebieski	blue	czerwony	red	hit	n/a
244.3015	n/a	RESPONSE	n/a	n/a	n/a	n/a	n/a	n/a	n/a	red
244.3351	1.0167	ITI	n/a	n/a	n/a	n/a	n/a	n/a	n/a	n/a
245.3518	0.5167	FIXCROSS	n/a	n/a	n/a	n/a	n/a	n/a	n/a	n/a
245.8684	1.0167	INK	63	Neutral	xxxxxxxx	xxxxxxxx	zielony	green	hit	n/a
246.8584	n/a	RESPONSE	n/a	n/a	n/a	n/a	n/a	n/a	n/a	green
246.8851	1.0167	ITI	n/a	n/a	n/a	n/a	n/a	n/a	n/a	n/a
247.9018	0.5167	FIXCROSS	n/a	n/a	n/a	n/a	n/a	n/a	n/a	n/a
248.4185	0.65	INK	64	Neutral	xxxxx	xxxxx	czerwony	red	hit	n/a
249.0476	n/a	RESPONSE	n/a	n/a	n/a	n/a	n/a	n/a	n/a	red
249.0685	1.0167	ITI	n/a	n/a	n/a	n/a	n/a	n/a	n/a	n/a
250.0851	0.5167	FIXCROSS	n/a	n/a	n/a	n/a	n/a	n/a	n/a	n/a
250.6018	0.5167	INK	65	Neutral	xxxxx	xxxxx	czerwony	red	hit	n/a
251.0931	n/a	RESPONSE	n/a	n/a	n/a	n/a	n/a	n/a	n/a	red
251.1185	1.0167	ITI	n/a	n/a	n/a	n/a	n/a	n/a	n/a	n/a
252.1351	0.5167	FIXCROSS	n/a	n/a	n/a	n/a	n/a	n/a	n/a	n/a
252.6518	0.6167	INK	66	Neutral	xxxxx	xxxxx	zielony	green	hit	n/a
253.2504	n/a	RESPONSE	n/a	n/a	n/a	n/a	n/a	n/a	n/a	green
253.2685	1.0167	ITI	n/a	n/a	n/a	n/a	n/a	n/a	n/a	n/a
254.2852	0.5167	FIXCROSS	n/a	n/a	n/a	n/a	n/a	n/a	n/a	n/a
254.8018	0.9333	INK	67	Incongruent	niebieski	blue	żółty	yellow	hit	n/a
255.7114	n/a	RESPONSE	n/a	n/a	n/a	n/a	n/a	n/a	n/a	yellow
255.7352	1.0167	ITI	n/a	n/a	n/a	n/a	n/a	n/a	n/a	n/a
256.7519	0.5167	FIXCROSS	n/a	n/a	n/a	n/a	n/a	n/a	n/a	n/a
257.2685	0.6667	INK	68	Neutral	xxxxxxxxx	xxxxxxxxx	zielony	green	hit	n/a
257.9167	n/a	RESPONSE	n/a	n/a	n/a	n/a	n/a	n/a	n/a	green
257.9352	1.0167	ITI	n/a	n/a	n/a	n/a	n/a	n/a	n/a	n/a
258.9519	0.5167	FIXCROSS	n/a	n/a	n/a	n/a	n/a	n/a	n/a	n/a
259.4685	0.8	INK	69	Neutral	xxxxxxx	xxxxxxx	niebieski	blue	hit	n/a
260.2499	n/a	RESPONSE	n/a	n/a	n/a	n/a	n/a	n/a	n/a	blue
260.2685	1.0167	ITI	n/a	n/a	n/a	n/a	n/a	n/a	n/a	n/a
261.2852	0.5167	FIXCROSS	n/a	n/a	n/a	n/a	n/a	n/a	n/a	n/a
261.8019	0.7	INK	70	Incongruent	zielony	green	żółty	yellow	hit	n/a
262.4712	n/a	RESPONSE	n/a	n/a	n/a	n/a	n/a	n/a	n/a	yellow
262.5019	1.0167	ITI	n/a	n/a	n/a	n/a	n/a	n/a	n/a	n/a
263.5186	0.5167	FIXCROSS	n/a	n/a	n/a	n/a	n/a	n/a	n/a	n/a
264.0352	0.6	INK	71	Neutral	xxxxxxx	xxxxxxx	żółty	yellow	hit	n/a
264.6126	n/a	RESPONSE	n/a	n/a	n/a	n/a	n/a	n/a	n/a	yellow
264.6352	1.0167	ITI	n/a	n/a	n/a	n/a	n/a	n/a	n/a	n/a
265.6519	0.5167	FIXCROSS	n/a	n/a	n/a	n/a	n/a	n/a	n/a	n/a
266.1686	0.5333	INK	72	Neutral	xxxxxxxxx	xxxxxxxxx	zielony	green	hit	n/a
266.674	n/a	RESPONSE	n/a	n/a	n/a	n/a	n/a	n/a	n/a	green
266.7019	1.0833	ITI	n/a	n/a	n/a	n/a	n/a	n/a	n/a	n/a
294.3361	n/a	RESPONSE	n/a	n/a	n/a	n/a	n/a	n/a	n/a	n/a
294.4022	1.0167	ITI	n/a	n/a	n/a	n/a	n/a	n/a	n/a	n/a
295.4188	0.5167	FIXCROSS	n/a	n/a	n/a	n/a	n/a	n/a	n/a	n/a
295.9355	1.35	T_COLOR_NAME	1	Neutral	czerwony	red	Neutral	Neutral	hit	n/a
297.2606	n/a	RESPONSE	n/a	n/a	n/a	n/a	n/a	n/a	n/a	red
297.2855	0.5167	FEEDBACK	n/a	n/a	n/a	n/a	n/a	n/a	n/a	n/a
297.8022	1.0167	ITI	n/a	n/a	n/a	n/a	n/a	n/a	n/a	n/a
298.8189	0.5167	FIXCROSS	n/a	n/a	n/a	n/a	n/a	n/a	n/a	n/a
299.3355	0.5667	T_COLOR_NAME	2	Neutral	czerwony	red	Neutral	Neutral	hit	n/a
299.8654	n/a	RESPONSE	n/a	n/a	n/a	n/a	n/a	n/a	n/a	red
299.9022	0.5167	FEEDBACK	n/a	n/a	n/a	n/a	n/a	n/a	n/a	n/a
300.4189	1.0167	ITI	n/a	n/a	n/a	n/a	n/a	n/a	n/a	n/a
301.4356	0.5167	FIXCROSS	n/a	n/a	n/a	n/a	n/a	n/a	n/a	n/a
301.9522	1.3	T_COLOR_NAME	3	Incongruent	zielony	green	niebieski	blue	hit	n/a
303.2213	n/a	RESPONSE	n/a	n/a	n/a	n/a	n/a	n/a	n/a	green
303.2522	0.5167	FEEDBACK	n/a	n/a	n/a	n/a	n/a	n/a	n/a	n/a
303.7689	1.0167	ITI	n/a	n/a	n/a	n/a	n/a	n/a	n/a	n/a
304.7856	0.5167	FIXCROSS	n/a	n/a	n/a	n/a	n/a	n/a	n/a	n/a
305.3022	0.85	T_COLOR_NAME	4	Incongruent	żółty	yellow	zielony	green	hit	n/a
306.1297	n/a	RESPONSE	n/a	n/a	n/a	n/a	n/a	n/a	n/a	yellow
306.1523	0.5167	FEEDBACK	n/a	n/a	n/a	n/a	n/a	n/a	n/a	n/a
306.6689	1.0167	ITI	n/a	n/a	n/a	n/a	n/a	n/a	n/a	n/a
307.6856	0.5167	FIXCROSS	n/a	n/a	n/a	n/a	n/a	n/a	n/a	n/a
308.2023	0.65	T_COLOR_NAME	5	Neutral	czerwony	red	Neutral	Neutral	hit	n/a
308.8303	n/a	RESPONSE	n/a	n/a	n/a	n/a	n/a	n/a	n/a	red
308.8523	0.5167	FEEDBACK	n/a	n/a	n/a	n/a	n/a	n/a	n/a	n/a
309.3689	1.0167	ITI	n/a	n/a	n/a	n/a	n/a	n/a	n/a	n/a
310.3856	0.5167	FIXCROSS	n/a	n/a	n/a	n/a	n/a	n/a	n/a	n/a
310.9023	0.7833	T_COLOR_NAME	6	Neutral	żółty	yellow	Neutral	Neutral	hit	n/a
311.6589	n/a	RESPONSE	n/a	n/a	n/a	n/a	n/a	n/a	n/a	yellow
311.6856	0.5167	FEEDBACK	n/a	n/a	n/a	n/a	n/a	n/a	n/a	n/a
312.2023	1.0167	ITI	n/a	n/a	n/a	n/a	n/a	n/a	n/a	n/a
313.219	0.5167	FIXCROSS	n/a	n/a	n/a	n/a	n/a	n/a	n/a	n/a
313.7356	1.0	T_COLOR_NAME	7	Incongruent	niebieski	blue	zielony	green	hit	n/a
314.7111	n/a	RESPONSE	n/a	n/a	n/a	n/a	n/a	n/a	n/a	blue
314.7357	0.5167	FEEDBACK	n/a	n/a	n/a	n/a	n/a	n/a	n/a	n/a
315.2523	1.0167	ITI	n/a	n/a	n/a	n/a	n/a	n/a	n/a	n/a
316.269	0.5167	FIXCROSS	n/a	n/a	n/a	n/a	n/a	n/a	n/a	n/a
316.7857	0.7667	T_COLOR_NAME	8	Incongruent	czerwony	red	zielony	green	hit	n/a
317.5237	n/a	RESPONSE	n/a	n/a	n/a	n/a	n/a	n/a	n/a	red
317.5523	0.5167	FEEDBACK	n/a	n/a	n/a	n/a	n/a	n/a	n/a	n/a
318.069	1.0167	ITI	n/a	n/a	n/a	n/a	n/a	n/a	n/a	n/a
319.0857	0.5167	FIXCROSS	n/a	n/a	n/a	n/a	n/a	n/a	n/a	n/a
319.6024	0.85	T_COLOR_NAME	9	Incongruent	zielony	green	żółty	yellow	hit	n/a
320.4321	n/a	RESPONSE	n/a	n/a	n/a	n/a	n/a	n/a	n/a	green
320.4524	0.5167	FEEDBACK	n/a	n/a	n/a	n/a	n/a	n/a	n/a	n/a
320.969	1.0167	ITI	n/a	n/a	n/a	n/a	n/a	n/a	n/a	n/a
321.9857	0.5167	FIXCROSS	n/a	n/a	n/a	n/a	n/a	n/a	n/a	n/a
322.5024	0.8333	T_COLOR_NAME	10	Incongruent	żółty	yellow	niebieski	blue	hit	n/a
323.3085	n/a	RESPONSE	n/a	n/a	n/a	n/a	n/a	n/a	n/a	yellow
323.3357	0.5167	FEEDBACK	n/a	n/a	n/a	n/a	n/a	n/a	n/a	n/a
323.8524	1.0167	ITI	n/a	n/a	n/a	n/a	n/a	n/a	n/a	n/a
324.8691	0.5167	FIXCROSS	n/a	n/a	n/a	n/a	n/a	n/a	n/a	n/a
325.3857	0.6167	T_COLOR_NAME	11	Neutral	żółty	yellow	Neutral	Neutral	hit	n/a
325.9773	n/a	RESPONSE	n/a	n/a	n/a	n/a	n/a	n/a	n/a	yellow
326.0024	0.5167	FEEDBACK	n/a	n/a	n/a	n/a	n/a	n/a	n/a	n/a
326.5191	1.0167	ITI	n/a	n/a	n/a	n/a	n/a	n/a	n/a	n/a
327.5357	0.5167	FIXCROSS	n/a	n/a	n/a	n/a	n/a	n/a	n/a	n/a
328.0524	0.8667	T_COLOR_NAME	12	Neutral	niebieski	blue	Neutral	Neutral	hit	n/a
328.8857	n/a	RESPONSE	n/a	n/a	n/a	n/a	n/a	n/a	n/a	blue
328.9191	0.5167	FEEDBACK	n/a	n/a	n/a	n/a	n/a	n/a	n/a	n/a
329.4358	1.0333	ITI	n/a	n/a	n/a	n/a	n/a	n/a	n/a	n/a
332.4974	n/a	RESPONSE	n/a	n/a	n/a	n/a	n/a	n/a	n/a	n/a
332.5525	1.0167	ITI	n/a	n/a	n/a	n/a	n/a	n/a	n/a	n/a
333.5691	0.5167	FIXCROSS	n/a	n/a	n/a	n/a	n/a	n/a	n/a	n/a
334.0858	1.2167	COLOR_NAME	1	Incongruent	czerwony	red	zielony	green	hit	n/a
335.2779	n/a	RESPONSE	n/a	n/a	n/a	n/a	n/a	n/a	n/a	red
335.3025	1.0167	ITI	n/a	n/a	n/a	n/a	n/a	n/a	n/a	n/a
336.3191	0.5167	FIXCROSS	n/a	n/a	n/a	n/a	n/a	n/a	n/a	n/a
336.8358	0.4833	COLOR_NAME	2	Neutral	czerwony	red	Neutral	Neutral	hit	n/a
337.2915	n/a	RESPONSE	n/a	n/a	n/a	n/a	n/a	n/a	n/a	red
337.3192	1.0167	ITI	n/a	n/a	n/a	n/a	n/a	n/a	n/a	n/a
338.3358	0.5167	FIXCROSS	n/a	n/a	n/a	n/a	n/a	n/a	n/a	n/a
338.8525	0.4333	COLOR_NAME	3	Incongruent	czerwony	red	zielony	green	hit	n/a
339.2569	n/a	RESPONSE	n/a	n/a	n/a	n/a	n/a	n/a	n/a	red
339.2858	1.0167	ITI	n/a	n/a	n/a	n/a	n/a	n/a	n/a	n/a
340.3025	0.5167	FIXCROSS	n/a	n/a	n/a	n/a	n/a	n/a	n/a	n/a
340.8192	0.9667	COLOR_NAME	4	Neutral	niebieski	blue	Neutral	Neutral	hit	n/a
341.766	n/a	RESPONSE	n/a	n/a	n/a	n/a	n/a	n/a	n/a	blue
341.7859	1.0167	ITI	n/a	n/a	n/a	n/a	n/a	n/a	n/a	n/a
342.8025	0.5167	FIXCROSS	n/a	n/a	n/a	n/a	n/a	n/a	n/a	n/a
343.3192	0.7667	COLOR_NAME	5	Incongruent	żółty	yellow	zielony	green	hit	n/a
344.0671	n/a	RESPONSE	n/a	n/a	n/a	n/a	n/a	n/a	n/a	yellow
344.0859	1.0167	ITI	n/a	n/a	n/a	n/a	n/a	n/a	n/a	n/a
345.1025	0.5167	FIXCROSS	n/a	n/a	n/a	n/a	n/a	n/a	n/a	n/a
345.6192	0.4833	COLOR_NAME	6	Neutral	żółty	yellow	Neutral	Neutral	hit	n/a
346.0807	n/a	RESPONSE	n/a	n/a	n/a	n/a	n/a	n/a	n/a	yellow
346.1026	1.0167	ITI	n/a	n/a	n/a	n/a	n/a	n/a	n/a	n/a
347.1192	0.5167	FIXCROSS	n/a	n/a	n/a	n/a	n/a	n/a	n/a	n/a
347.6359	0.9667	COLOR_NAME	7	Neutral	niebieski	blue	Neutral	Neutral	hit	n/a
348.5735	n/a	RESPONSE	n/a	n/a	n/a	n/a	n/a	n/a	n/a	blue
348.6026	1.0167	ITI	n/a	n/a	n/a	n/a	n/a	n/a	n/a	n/a
349.6193	0.5167	FIXCROSS	n/a	n/a	n/a	n/a	n/a	n/a	n/a	n/a
350.1359	0.8167	COLOR_NAME	8	Neutral	zielony	green	Neutral	Neutral	hit	n/a
350.9226	n/a	RESPONSE	n/a	n/a	n/a	n/a	n/a	n/a	n/a	green
350.9526	1.0167	ITI	n/a	n/a	n/a	n/a	n/a	n/a	n/a	n/a
351.9693	0.5167	FIXCROSS	n/a	n/a	n/a	n/a	n/a	n/a	n/a	n/a
352.4859	0.7833	COLOR_NAME	9	Incongruent	niebieski	blue	zielony	green	hit	n/a
353.2398	n/a	RESPONSE	n/a	n/a	n/a	n/a	n/a	n/a	n/a	blue
353.2693	1.0167	ITI	n/a	n/a	n/a	n/a	n/a	n/a	n/a	n/a
354.286	0.5167	FIXCROSS	n/a	n/a	n/a	n/a	n/a	n/a	n/a	n/a
354.8026	1.0334	COLOR_NAME	10	Incongruent	żółty	yellow	czerwony	red	hit	n/a
355.8127	n/a	RESPONSE	n/a	n/a	n/a	n/a	n/a	n/a	n/a	yellow
355.836	1.0167	ITI	n/a	n/a	n/a	n/a	n/a	n/a	n/a	n/a
356.8527	0.5167	FIXCROSS	n/a	n/a	n/a	n/a	n/a	n/a	n/a	n/a
357.3693	0.5833	COLOR_NAME	11	Incongruent	żółty	yellow	czerwony	red	hit	n/a
357.922	n/a	RESPONSE	n/a	n/a	n/a	n/a	n/a	n/a	n/a	yellow
357.9526	1.0167	ITI	n/a	n/a	n/a	n/a	n/a	n/a	n/a	n/a
358.9693	0.5166	FIXCROSS	n/a	n/a	n/a	n/a	n/a	n/a	n/a	n/a
359.486	0.9334	COLOR_NAME	12	Neutral	niebieski	blue	Neutral	Neutral	hit	n/a
360.399	n/a	RESPONSE	n/a	n/a	n/a	n/a	n/a	n/a	n/a	blue
360.4193	1.0167	ITI	n/a	n/a	n/a	n/a	n/a	n/a	n/a	n/a
361.436	0.5167	FIXCROSS	n/a	n/a	n/a	n/a	n/a	n/a	n/a	n/a
361.9527	0.85	COLOR_NAME	13	Incongruent	zielony	green	żółty	yellow	hit	n/a
362.7801	n/a	RESPONSE	n/a	n/a	n/a	n/a	n/a	n/a	n/a	green
362.8027	1.0167	ITI	n/a	n/a	n/a	n/a	n/a	n/a	n/a	n/a
363.8194	0.5167	FIXCROSS	n/a	n/a	n/a	n/a	n/a	n/a	n/a	n/a
364.336	0.8	COLOR_NAME	14	Incongruent	żółty	yellow	czerwony	red	hit	n/a
365.1132	n/a	RESPONSE	n/a	n/a	n/a	n/a	n/a	n/a	n/a	yellow
365.136	1.0167	ITI	n/a	n/a	n/a	n/a	n/a	n/a	n/a	n/a
366.1527	0.5167	FIXCROSS	n/a	n/a	n/a	n/a	n/a	n/a	n/a	n/a
366.6694	0.8333	COLOR_NAME	15	Incongruent	niebieski	blue	żółty	yellow	hit	n/a
367.4783	n/a	RESPONSE	n/a	n/a	n/a	n/a	n/a	n/a	n/a	blue
367.5027	1.0167	ITI	n/a	n/a	n/a	n/a	n/a	n/a	n/a	n/a
368.5194	0.5167	FIXCROSS	n/a	n/a	n/a	n/a	n/a	n/a	n/a	n/a
369.0361	0.8167	COLOR_NAME	16	Neutral	zielony	green	Neutral	Neutral	hit	n/a
369.8273	n/a	RESPONSE	n/a	n/a	n/a	n/a	n/a	n/a	n/a	green
369.8527	1.0167	ITI	n/a	n/a	n/a	n/a	n/a	n/a	n/a	n/a
370.8694	0.5167	FIXCROSS	n/a	n/a	n/a	n/a	n/a	n/a	n/a	n/a
371.3861	0.9167	COLOR_NAME	17	Incongruent	zielony	green	żółty	yellow	hit	n/a
372.2724	n/a	RESPONSE	n/a	n/a	n/a	n/a	n/a	n/a	n/a	green
372.3028	1.0167	ITI	n/a	n/a	n/a	n/a	n/a	n/a	n/a	n/a
373.3194	0.5167	FIXCROSS	n/a	n/a	n/a	n/a	n/a	n/a	n/a	n/a
373.8361	0.5667	COLOR_NAME	18	Neutral	żółty	yellow	Neutral	Neutral	hit	n/a
374.3817	n/a	RESPONSE	n/a	n/a	n/a	n/a	n/a	n/a	n/a	yellow
374.4028	1.0167	ITI	n/a	n/a	n/a	n/a	n/a	n/a	n/a	n/a
375.4195	0.5167	FIXCROSS	n/a	n/a	n/a	n/a	n/a	n/a	n/a	n/a
375.9361	0.4834	COLOR_NAME	19	Neutral	żółty	yellow	Neutral	Neutral	hit	n/a
376.3952	n/a	RESPONSE	n/a	n/a	n/a	n/a	n/a	n/a	n/a	yellow
376.4195	1.0167	ITI	n/a	n/a	n/a	n/a	n/a	n/a	n/a	n/a
377.4361	0.5167	FIXCROSS	n/a	n/a	n/a	n/a	n/a	n/a	n/a	n/a
377.9528	1.0333	COLOR_NAME	20	Incongruent	czerwony	red	zielony	green	hit	n/a
378.952	n/a	RESPONSE	n/a	n/a	n/a	n/a	n/a	n/a	n/a	red
378.9861	1.0167	ITI	n/a	n/a	n/a	n/a	n/a	n/a	n/a	n/a
380.0028	0.5167	FIXCROSS	n/a	n/a	n/a	n/a	n/a	n/a	n/a	n/a
380.5195	0.8667	COLOR_NAME	21	Neutral	zielony	green	Neutral	Neutral	hit	n/a
381.3651	n/a	RESPONSE	n/a	n/a	n/a	n/a	n/a	n/a	n/a	green
381.3862	1.0167	ITI	n/a	n/a	n/a	n/a	n/a	n/a	n/a	n/a
382.4028	0.5167	FIXCROSS	n/a	n/a	n/a	n/a	n/a	n/a	n/a	n/a
382.9195	0.7833	COLOR_NAME	22	Incongruent	czerwony	red	niebieski	blue	hit	n/a
383.6822	n/a	RESPONSE	n/a	n/a	n/a	n/a	n/a	n/a	n/a	red
383.7029	1.0167	ITI	n/a	n/a	n/a	n/a	n/a	n/a	n/a	n/a
384.7195	0.5167	FIXCROSS	n/a	n/a	n/a	n/a	n/a	n/a	n/a	n/a
385.2362	0.8833	COLOR_NAME	23	Incongruent	zielony	green	czerwony	red	hit	n/a
386.0952	n/a	RESPONSE	n/a	n/a	n/a	n/a	n/a	n/a	n/a	green
386.1195	1.0167	ITI	n/a	n/a	n/a	n/a	n/a	n/a	n/a	n/a
387.1362	0.5167	FIXCROSS	n/a	n/a	n/a	n/a	n/a	n/a	n/a	n/a
387.6529	0.8167	COLOR_NAME	24	Incongruent	czerwony	red	żółty	yellow	hit	n/a
388.4445	n/a	RESPONSE	n/a	n/a	n/a	n/a	n/a	n/a	n/a	red
388.4696	1.0167	ITI	n/a	n/a	n/a	n/a	n/a	n/a	n/a	n/a
389.4862	0.5167	FIXCROSS	n/a	n/a	n/a	n/a	n/a	n/a	n/a	n/a
390.0029	0.6333	COLOR_NAME	25	Neutral	czerwony	red	Neutral	Neutral	hit	n/a
390.6178	n/a	RESPONSE	n/a	n/a	n/a	n/a	n/a	n/a	n/a	red
390.6362	1.0167	ITI	n/a	n/a	n/a	n/a	n/a	n/a	n/a	n/a
391.6529	0.5167	FIXCROSS	n/a	n/a	n/a	n/a	n/a	n/a	n/a	n/a
392.1696	0.9167	COLOR_NAME	26	Incongruent	żółty	yellow	zielony	green	hit	n/a
393.0627	n/a	RESPONSE	n/a	n/a	n/a	n/a	n/a	n/a	n/a	yellow
393.0863	1.0167	ITI	n/a	n/a	n/a	n/a	n/a	n/a	n/a	n/a
394.1029	0.5167	FIXCROSS	n/a	n/a	n/a	n/a	n/a	n/a	n/a	n/a
394.6196	0.8667	COLOR_NAME	27	Incongruent	niebieski	blue	czerwony	red	hit	n/a
395.4597	n/a	RESPONSE	n/a	n/a	n/a	n/a	n/a	n/a	n/a	blue
395.4863	1.0167	ITI	n/a	n/a	n/a	n/a	n/a	n/a	n/a	n/a
396.503	0.5167	FIXCROSS	n/a	n/a	n/a	n/a	n/a	n/a	n/a	n/a
397.0196	0.7	COLOR_NAME	28	Incongruent	żółty	yellow	zielony	green	hit	n/a
397.697	n/a	RESPONSE	n/a	n/a	n/a	n/a	n/a	n/a	n/a	yellow
397.7196	1.0167	ITI	n/a	n/a	n/a	n/a	n/a	n/a	n/a	n/a
398.7363	0.5167	FIXCROSS	n/a	n/a	n/a	n/a	n/a	n/a	n/a	n/a
399.253	0.7667	COLOR_NAME	29	Neutral	czerwony	red	Neutral	Neutral	hit	n/a
399.9982	n/a	RESPONSE	n/a	n/a	n/a	n/a	n/a	n/a	n/a	red
400.0196	1.0167	ITI	n/a	n/a	n/a	n/a	n/a	n/a	n/a	n/a
401.0363	0.5167	FIXCROSS	n/a	n/a	n/a	n/a	n/a	n/a	n/a	n/a
401.553	0.85	COLOR_NAME	30	Incongruent	niebieski	blue	zielony	green	hit	n/a
402.3792	n/a	RESPONSE	n/a	n/a	n/a	n/a	n/a	n/a	n/a	blue
402.403	1.0167	ITI	n/a	n/a	n/a	n/a	n/a	n/a	n/a	n/a
403.4197	0.5167	FIXCROSS	n/a	n/a	n/a	n/a	n/a	n/a	n/a	n/a
403.9363	0.9	COLOR_NAME	31	Incongruent	zielony	green	niebieski	blue	hit	n/a
404.8083	n/a	RESPONSE	n/a	n/a	n/a	n/a	n/a	n/a	n/a	green
404.8364	1.0167	ITI	n/a	n/a	n/a	n/a	n/a	n/a	n/a	n/a
405.853	0.5167	FIXCROSS	n/a	n/a	n/a	n/a	n/a	n/a	n/a	n/a
406.3697	0.85	COLOR_NAME	32	Incongruent	zielony	green	czerwony	red	hit	n/a
407.1892	n/a	RESPONSE	n/a	n/a	n/a	n/a	n/a	n/a	n/a	green
407.2197	1.0167	ITI	n/a	n/a	n/a	n/a	n/a	n/a	n/a	n/a
408.2364	0.5167	FIXCROSS	n/a	n/a	n/a	n/a	n/a	n/a	n/a	n/a
408.7531	0.6	COLOR_NAME	33	Incongruent	zielony	green	niebieski	blue	hit	n/a
409.3306	n/a	RESPONSE	n/a	n/a	n/a	n/a	n/a	n/a	n/a	green
409.3531	1.0167	ITI	n/a	n/a	n/a	n/a	n/a	n/a	n/a	n/a
410.3697	0.5167	FIXCROSS	n/a	n/a	n/a	n/a	n/a	n/a	n/a	n/a
410.8864	0.65	COLOR_NAME	34	Neutral	czerwony	red	Neutral	Neutral	hit	n/a
411.5039	n/a	RESPONSE	n/a	n/a	n/a	n/a	n/a	n/a	n/a	red
411.5364	1.0167	ITI	n/a	n/a	n/a	n/a	n/a	n/a	n/a	n/a
412.5531	0.5167	FIXCROSS	n/a	n/a	n/a	n/a	n/a	n/a	n/a	n/a
413.0697	0.8667	COLOR_NAME	35	Neutral	żółty	yellow	Neutral	Neutral	hit	n/a
413.9169	n/a	RESPONSE	n/a	n/a	n/a	n/a	n/a	n/a	n/a	yellow
413.9364	1.0167	ITI	n/a	n/a	n/a	n/a	n/a	n/a	n/a	n/a
414.9531	0.5167	FIXCROSS	n/a	n/a	n/a	n/a	n/a	n/a	n/a	n/a
415.4698	0.6833	COLOR_NAME	36	Incongruent	żółty	yellow	niebieski	blue	hit	n/a
416.1223	n/a	RESPONSE	n/a	n/a	n/a	n/a	n/a	n/a	n/a	yellow
416.1531	1.0167	ITI	n/a	n/a	n/a	n/a	n/a	n/a	n/a	n/a
417.1698	0.5167	FIXCROSS	n/a	n/a	n/a	n/a	n/a	n/a	n/a	n/a
417.6864	0.5	COLOR_NAME	37	Neutral	żółty	yellow	Neutral	Neutral	hit	n/a
418.1677	n/a	RESPONSE	n/a	n/a	n/a	n/a	n/a	n/a	n/a	yellow
418.1865	1.0167	ITI	n/a	n/a	n/a	n/a	n/a	n/a	n/a	n/a
419.2031	0.5167	FIXCROSS	n/a	n/a	n/a	n/a	n/a	n/a	n/a	n/a
419.7198	0.8167	COLOR_NAME	38	Neutral	zielony	green	Neutral	Neutral	hit	n/a
420.5168	n/a	RESPONSE	n/a	n/a	n/a	n/a	n/a	n/a	n/a	green
420.5365	1.0167	ITI	n/a	n/a	n/a	n/a	n/a	n/a	n/a	n/a
421.5531	0.5167	FIXCROSS	n/a	n/a	n/a	n/a	n/a	n/a	n/a	n/a
422.0698	0.9334	COLOR_NAME	39	Neutral	niebieski	blue	Neutral	Neutral	hit	n/a
422.9778	n/a	RESPONSE	n/a	n/a	n/a	n/a	n/a	n/a	n/a	blue
423.0032	1.0167	ITI	n/a	n/a	n/a	n/a	n/a	n/a	n/a	n/a
424.0198	0.5167	FIXCROSS	n/a	n/a	n/a	n/a	n/a	n/a	n/a	n/a
424.5365	0.7667	COLOR_NAME	40	Incongruent	czerwony	red	niebieski	blue	hit	n/a
425.2789	n/a	RESPONSE	n/a	n/a	n/a	n/a	n/a	n/a	n/a	red
425.3032	1.0167	ITI	n/a	n/a	n/a	n/a	n/a	n/a	n/a	n/a
426.3199	0.5167	FIXCROSS	n/a	n/a	n/a	n/a	n/a	n/a	n/a	n/a
426.8365	0.8833	COLOR_NAME	41	Neutral	zielony	green	Neutral	Neutral	hit	n/a
427.692	n/a	RESPONSE	n/a	n/a	n/a	n/a	n/a	n/a	n/a	green
427.7199	1.0167	ITI	n/a	n/a	n/a	n/a	n/a	n/a	n/a	n/a
428.7365	0.5167	FIXCROSS	n/a	n/a	n/a	n/a	n/a	n/a	n/a	n/a
429.2532	0.8167	COLOR_NAME	42	Incongruent	niebieski	blue	zielony	green	hit	n/a
430.0411	n/a	RESPONSE	n/a	n/a	n/a	n/a	n/a	n/a	n/a	blue
430.0699	1.0167	ITI	n/a	n/a	n/a	n/a	n/a	n/a	n/a	n/a
431.0866	0.5167	FIXCROSS	n/a	n/a	n/a	n/a	n/a	n/a	n/a	n/a
431.6032	0.8333	COLOR_NAME	43	Incongruent	żółty	yellow	niebieski	blue	hit	n/a
432.4062	n/a	RESPONSE	n/a	n/a	n/a	n/a	n/a	n/a	n/a	yellow
432.4366	1.0167	ITI	n/a	n/a	n/a	n/a	n/a	n/a	n/a	n/a
433.4532	0.5167	FIXCROSS	n/a	n/a	n/a	n/a	n/a	n/a	n/a	n/a
433.9699	0.4833	COLOR_NAME	44	Neutral	żółty	yellow	Neutral	Neutral	hit	n/a
434.4197	n/a	RESPONSE	n/a	n/a	n/a	n/a	n/a	n/a	n/a	yellow
434.4532	1.0167	ITI	n/a	n/a	n/a	n/a	n/a	n/a	n/a	n/a
435.4699	0.5167	FIXCROSS	n/a	n/a	n/a	n/a	n/a	n/a	n/a	n/a
435.9866	0.8833	COLOR_NAME	45	Neutral	niebieski	blue	Neutral	Neutral	hit	n/a
436.8487	n/a	RESPONSE	n/a	n/a	n/a	n/a	n/a	n/a	n/a	blue
436.8699	1.0167	ITI	n/a	n/a	n/a	n/a	n/a	n/a	n/a	n/a
437.8866	0.5167	FIXCROSS	n/a	n/a	n/a	n/a	n/a	n/a	n/a	n/a
438.4033	0.7333	COLOR_NAME	46	Incongruent	niebieski	blue	żółty	yellow	hit	n/a
439.118	n/a	RESPONSE	n/a	n/a	n/a	n/a	n/a	n/a	n/a	blue
439.1366	1.0167	ITI	n/a	n/a	n/a	n/a	n/a	n/a	n/a	n/a
440.1533	0.5167	FIXCROSS	n/a	n/a	n/a	n/a	n/a	n/a	n/a	n/a
440.67	0.5333	COLOR_NAME	47	Neutral	żółty	yellow	Neutral	Neutral	hit	n/a
441.1793	n/a	RESPONSE	n/a	n/a	n/a	n/a	n/a	n/a	n/a	yellow
441.2033	1.0167	ITI	n/a	n/a	n/a	n/a	n/a	n/a	n/a	n/a
442.22	0.5167	FIXCROSS	n/a	n/a	n/a	n/a	n/a	n/a	n/a	n/a
442.7366	0.5833	COLOR_NAME	48	Neutral	żółty	yellow	Neutral	Neutral	hit	n/a
443.2888	n/a	RESPONSE	n/a	n/a	n/a	n/a	n/a	n/a	n/a	yellow
443.32	1.0167	ITI	n/a	n/a	n/a	n/a	n/a	n/a	n/a	n/a
444.3367	0.5167	FIXCROSS	n/a	n/a	n/a	n/a	n/a	n/a	n/a	n/a
444.8533	0.85	COLOR_NAME	49	Incongruent	niebieski	blue	czerwony	red	hit	n/a
445.6699	n/a	RESPONSE	n/a	n/a	n/a	n/a	n/a	n/a	n/a	blue
445.7033	1.0167	ITI	n/a	n/a	n/a	n/a	n/a	n/a	n/a	n/a
446.72	0.5167	FIXCROSS	n/a	n/a	n/a	n/a	n/a	n/a	n/a	n/a
447.2367	0.7333	COLOR_NAME	50	Neutral	niebieski	blue	Neutral	Neutral	hit	n/a
447.9391	n/a	RESPONSE	n/a	n/a	n/a	n/a	n/a	n/a	n/a	blue
447.97	1.0167	ITI	n/a	n/a	n/a	n/a	n/a	n/a	n/a	n/a
448.9867	0.5167	FIXCROSS	n/a	n/a	n/a	n/a	n/a	n/a	n/a	n/a
449.5034	0.7333	COLOR_NAME	51	Incongruent	czerwony	red	niebieski	blue	hit	n/a
450.2083	n/a	RESPONSE	n/a	n/a	n/a	n/a	n/a	n/a	n/a	red
450.2367	1.0167	ITI	n/a	n/a	n/a	n/a	n/a	n/a	n/a	n/a
451.2534	0.5167	FIXCROSS	n/a	n/a	n/a	n/a	n/a	n/a	n/a	n/a
451.77	0.75	COLOR_NAME	52	Incongruent	zielony	green	niebieski	blue	hit	n/a
452.4935	n/a	RESPONSE	n/a	n/a	n/a	n/a	n/a	n/a	n/a	green
452.52	1.0167	ITI	n/a	n/a	n/a	n/a	n/a	n/a	n/a	n/a
453.5367	0.5167	FIXCROSS	n/a	n/a	n/a	n/a	n/a	n/a	n/a	n/a
454.0534	0.7	COLOR_NAME	53	Incongruent	żółty	yellow	niebieski	blue	hit	n/a
454.7307	n/a	RESPONSE	n/a	n/a	n/a	n/a	n/a	n/a	n/a	yellow
454.7534	1.0167	ITI	n/a	n/a	n/a	n/a	n/a	n/a	n/a	n/a
455.7701	0.5167	FIXCROSS	n/a	n/a	n/a	n/a	n/a	n/a	n/a	n/a
456.2868	0.9333	COLOR_NAME	54	Neutral	zielony	green	Neutral	Neutral	hit	n/a
457.1917	n/a	RESPONSE	n/a	n/a	n/a	n/a	n/a	n/a	n/a	green
457.2201	1.0167	ITI	n/a	n/a	n/a	n/a	n/a	n/a	n/a	n/a
458.2368	0.5167	FIXCROSS	n/a	n/a	n/a	n/a	n/a	n/a	n/a	n/a
458.7534	0.9833	COLOR_NAME	55	Incongruent	niebieski	blue	żółty	yellow	hit	n/a
459.7165	n/a	RESPONSE	n/a	n/a	n/a	n/a	n/a	n/a	n/a	blue
459.7368	1.0167	ITI	n/a	n/a	n/a	n/a	n/a	n/a	n/a	n/a
460.7535	0.5167	FIXCROSS	n/a	n/a	n/a	n/a	n/a	n/a	n/a	n/a
461.2701	0.8833	COLOR_NAME	56	Incongruent	czerwony	red	żółty	yellow	hit	n/a
462.1295	n/a	RESPONSE	n/a	n/a	n/a	n/a	n/a	n/a	n/a	red
462.1535	1.0167	ITI	n/a	n/a	n/a	n/a	n/a	n/a	n/a	n/a
463.1701	0.5167	FIXCROSS	n/a	n/a	n/a	n/a	n/a	n/a	n/a	n/a
463.6868	0.8167	COLOR_NAME	57	Neutral	niebieski	blue	Neutral	Neutral	hit	n/a
464.4786	n/a	RESPONSE	n/a	n/a	n/a	n/a	n/a	n/a	n/a	blue
464.5035	1.0167	ITI	n/a	n/a	n/a	n/a	n/a	n/a	n/a	n/a
465.5202	0.5167	FIXCROSS	n/a	n/a	n/a	n/a	n/a	n/a	n/a	n/a
466.0368	0.7167	COLOR_NAME	58	Neutral	czerwony	red	Neutral	Neutral	hit	n/a
466.7319	n/a	RESPONSE	n/a	n/a	n/a	n/a	n/a	n/a	n/a	red
466.7535	1.0167	ITI	n/a	n/a	n/a	n/a	n/a	n/a	n/a	n/a
467.7702	0.5167	FIXCROSS	n/a	n/a	n/a	n/a	n/a	n/a	n/a	n/a
468.2868	0.7667	COLOR_NAME	59	Neutral	niebieski	blue	Neutral	Neutral	hit	n/a
469.033	n/a	RESPONSE	n/a	n/a	n/a	n/a	n/a	n/a	n/a	blue
469.0535	1.0167	ITI	n/a	n/a	n/a	n/a	n/a	n/a	n/a	n/a
470.0702	0.5167	FIXCROSS	n/a	n/a	n/a	n/a	n/a	n/a	n/a	n/a
470.5869	0.6833	COLOR_NAME	60	Neutral	czerwony	red	Neutral	Neutral	hit	n/a
471.2383	n/a	RESPONSE	n/a	n/a	n/a	n/a	n/a	n/a	n/a	red
471.2702	1.0167	ITI	n/a	n/a	n/a	n/a	n/a	n/a	n/a	n/a
472.2869	0.5167	FIXCROSS	n/a	n/a	n/a	n/a	n/a	n/a	n/a	n/a
472.8035	0.8333	COLOR_NAME	61	Neutral	zielony	green	Neutral	Neutral	hit	n/a
473.6034	n/a	RESPONSE	n/a	n/a	n/a	n/a	n/a	n/a	n/a	green
473.6369	1.0167	ITI	n/a	n/a	n/a	n/a	n/a	n/a	n/a	n/a
474.6536	0.5167	FIXCROSS	n/a	n/a	n/a	n/a	n/a	n/a	n/a	n/a
475.1702	0.6167	COLOR_NAME	62	Neutral	czerwony	red	Neutral	Neutral	hit	n/a
475.7607	n/a	RESPONSE	n/a	n/a	n/a	n/a	n/a	n/a	n/a	red
475.7869	1.0167	ITI	n/a	n/a	n/a	n/a	n/a	n/a	n/a	n/a
476.8036	0.5167	FIXCROSS	n/a	n/a	n/a	n/a	n/a	n/a	n/a	n/a
477.3202	0.9	COLOR_NAME	63	Neutral	czerwony	red	Neutral	Neutral	hit	n/a
478.1897	n/a	RESPONSE	n/a	n/a	n/a	n/a	n/a	n/a	n/a	red
478.2202	1.0167	ITI	n/a	n/a	n/a	n/a	n/a	n/a	n/a	n/a
479.2369	0.5167	FIXCROSS	n/a	n/a	n/a	n/a	n/a	n/a	n/a	n/a
479.7536	0.6333	COLOR_NAME	64	Incongruent	czerwony	red	żółty	yellow	hit	n/a
480.363	n/a	RESPONSE	n/a	n/a	n/a	n/a	n/a	n/a	n/a	red
480.3869	1.0167	ITI	n/a	n/a	n/a	n/a	n/a	n/a	n/a	n/a
481.4036	0.5167	FIXCROSS	n/a	n/a	n/a	n/a	n/a	n/a	n/a	n/a
481.9203	1.05	COLOR_NAME	65	Neutral	niebieski	blue	Neutral	Neutral	hit	n/a
482.9518	n/a	RESPONSE	n/a	n/a	n/a	n/a	n/a	n/a	n/a	blue
482.9703	1.0167	ITI	n/a	n/a	n/a	n/a	n/a	n/a	n/a	n/a
483.987	0.5167	FIXCROSS	n/a	n/a	n/a	n/a	n/a	n/a	n/a	n/a
484.5036	0.6333	COLOR_NAME	66	Neutral	żółty	yellow	Neutral	Neutral	hit	n/a
485.1091	n/a	RESPONSE	n/a	n/a	n/a	n/a	n/a	n/a	n/a	yellow
485.137	1.0167	ITI	n/a	n/a	n/a	n/a	n/a	n/a	n/a	n/a
486.1537	0.5167	FIXCROSS	n/a	n/a	n/a	n/a	n/a	n/a	n/a	n/a
486.6703	0.6	COLOR_NAME	67	Neutral	czerwony	red	Neutral	Neutral	hit	n/a
487.2505	n/a	RESPONSE	n/a	n/a	n/a	n/a	n/a	n/a	n/a	red
487.2703	1.0167	ITI	n/a	n/a	n/a	n/a	n/a	n/a	n/a	n/a
488.287	0.5167	FIXCROSS	n/a	n/a	n/a	n/a	n/a	n/a	n/a	n/a
488.8037	0.9167	COLOR_NAME	68	Neutral	zielony	green	Neutral	Neutral	hit	n/a
489.6954	n/a	RESPONSE	n/a	n/a	n/a	n/a	n/a	n/a	n/a	green
489.7203	1.0167	ITI	n/a	n/a	n/a	n/a	n/a	n/a	n/a	n/a
490.737	0.5167	FIXCROSS	n/a	n/a	n/a	n/a	n/a	n/a	n/a	n/a
491.2537	0.7833	COLOR_NAME	69	Neutral	zielony	green	Neutral	Neutral	hit	n/a
492.0127	n/a	RESPONSE	n/a	n/a	n/a	n/a	n/a	n/a	n/a	green
492.037	1.0167	ITI	n/a	n/a	n/a	n/a	n/a	n/a	n/a	n/a
493.0537	0.5167	FIXCROSS	n/a	n/a	n/a	n/a	n/a	n/a	n/a	n/a
493.5704	0.65	COLOR_NAME	70	Incongruent	zielony	green	żółty	yellow	hit	n/a
494.2019	n/a	RESPONSE	n/a	n/a	n/a	n/a	n/a	n/a	n/a	green
494.2204	1.0167	ITI	n/a	n/a	n/a	n/a	n/a	n/a	n/a	n/a
495.2371	0.5167	FIXCROSS	n/a	n/a	n/a	n/a	n/a	n/a	n/a	n/a
495.7537	0.7	COLOR_NAME	71	Incongruent	zielony	green	czerwony	red	hit	n/a
496.4231	n/a	RESPONSE	n/a	n/a	n/a	n/a	n/a	n/a	n/a	green
496.4537	1.0167	ITI	n/a	n/a	n/a	n/a	n/a	n/a	n/a	n/a
497.4704	0.5167	FIXCROSS	n/a	n/a	n/a	n/a	n/a	n/a	n/a	n/a
497.9871	0.8	COLOR_NAME	72	Incongruent	niebieski	blue	czerwony	red	hit	n/a
498.7562	n/a	RESPONSE	n/a	n/a	n/a	n/a	n/a	n/a	n/a	blue
498.7871	1.0333	ITI	n/a	n/a	n/a	n/a	n/a	n/a	n/a	n/a
502.911	n/a	RESPONSE	n/a	n/a	n/a	n/a	n/a	n/a	n/a	n/a
