onset	duration	trial_type	melody_number	melody_part	key	sound	action
0.0	14.083	CUE_START	n/a	n/a	n/a	n/a	n/a
14.084	7.76	FIXCROSS	n/a	n/a	n/a	n/a	n/a
21.843	6.315	CUE_LISTEN	M1	1	n/a	n/a	n/a
28.159	7.758	FIXCROSS	n/a	n/a	n/a	n/a	n/a
35.917	6.325	CUE_PLAYBACK_RIGHT_HAND	M1	1	n/a	n/a	n/a
37.388	n/a	RESPONSE	M1	1	19	G4	press
37.927	n/a	RESPONSE	M1	1	19	G4	release
38.298	n/a	RESPONSE	M1	1	19	G4	press
38.979	n/a	RESPONSE	M1	1	16	E4	press
39.233	n/a	RESPONSE	M1	1	19	G4	release
39.354	n/a	RESPONSE	M1	1	16	E4	release
39.667	n/a	RESPONSE	M1	1	16	E4	press
40.243	n/a	RESPONSE	M1	1	17	F4	press
40.617	n/a	RESPONSE	M1	1	16	E4	release
40.789	n/a	RESPONSE	M1	1	14	D4	press
41.19	n/a	RESPONSE	M1	1	14	D4	release
41.432	n/a	RESPONSE	M1	1	14	D4	press
42.093	n/a	RESPONSE	M1	1	12	C4	press
42.242	7.758	FIXCROSS	n/a	n/a	n/a	n/a	n/a
42.484	n/a	RESPONSE	M1	1	17	F4	release
42.717	n/a	RESPONSE	M1	1	16	E4	press
42.998	n/a	RESPONSE	M1	1	12	C4	release
43.338	n/a	RESPONSE	M1	1	19	G4	press
43.539	n/a	RESPONSE	M1	1	17	F4	press
43.922	n/a	RESPONSE	M1	1	19	G4	release
43.942	n/a	RESPONSE	M1	1	17	F4	release
43.964	n/a	RESPONSE	M1	1	16	E4	release
43.974	n/a	RESPONSE	M1	1	14	D4	release
50.001	6.317	CUE_LISTEN	M1	2	n/a	n/a	n/a
56.317	7.758	FIXCROSS	n/a	n/a	n/a	n/a	n/a
64.076	6.317	CUE_PLAYBACK_RIGHT_HAND	M1	2	n/a	n/a	n/a
64.833	n/a	RESPONSE	M1	2	19	G4	press
65.724	n/a	RESPONSE	M1	2	16	E4	press
66.115	n/a	RESPONSE	M1	2	16	E4	release
66.437	n/a	RESPONSE	M1	2	16	E4	press
66.688	n/a	RESPONSE	M1	2	19	G4	release
67.054	n/a	RESPONSE	M1	2	17	F4	press
67.435	n/a	RESPONSE	M1	2	16	E4	release
67.537	n/a	RESPONSE	M1	2	17	F4	release
67.905	n/a	RESPONSE	M1	2	17	F4	press
68.432	n/a	RESPONSE	M1	2	17	F4	release
68.629	n/a	RESPONSE	M1	2	17	F4	press
68.74	n/a	RESPONSE	M1	2	16	E4	press
69.083	n/a	RESPONSE	M1	2	16	E4	release
69.369	n/a	RESPONSE	M1	2	14	D4	press
69.828	n/a	RESPONSE	M1	2	14	D4	release
69.983	n/a	RESPONSE	M1	2	14	D4	press
70.392	7.758	FIXCROSS	n/a	n/a	n/a	n/a	n/a
70.653	n/a	RESPONSE	M1	2	12	C4	press
71.254	n/a	RESPONSE	M1	2	16	E4	press
71.506	n/a	RESPONSE	M1	2	12	C4	release
71.808	n/a	RESPONSE	M1	2	12	C4	press
72.409	n/a	RESPONSE	M1	2	12	C4	release
72.439	n/a	RESPONSE	M1	2	16	E4	release
72.48	n/a	RESPONSE	M1	2	14	D4	release
72.562	n/a	RESPONSE	M1	2	17	F4	release
78.151	6.325	CUE_LISTEN	M2	1	n/a	n/a	n/a
84.476	7.758	FIXCROSS	n/a	n/a	n/a	n/a	n/a
92.234	6.317	CUE_PLAYBACK_BOTH_HANDS	M2	1	n/a	n/a	n/a
94.327	n/a	RESPONSE	M2	1	07	G3	press
94.448	n/a	RESPONSE	M2	1	21	A4	press
94.489	n/a	RESPONSE	M2	1	00	C3	press
95.09	n/a	RESPONSE	M2	1	21	A4	release
95.192	n/a	RESPONSE	M2	1	00	C3	release
95.483	n/a	RESPONSE	M2	1	21	A4	press
95.485	n/a	RESPONSE	M2	1	00	C3	press
96.267	n/a	RESPONSE	M2	1	21	A4	release
96.497	n/a	RESPONSE	M2	1	00	C3	release
97.604	n/a	RESPONSE	M2	1	16	E4	press
98.213	n/a	RESPONSE	M2	1	16	E4	release
98.551	7.758	FIXCROSS	n/a	n/a	n/a	n/a	n/a
98.609	n/a	RESPONSE	M2	1	21	A4	press
98.652	n/a	RESPONSE	M2	1	00	C3	press
99.209	n/a	RESPONSE	M2	1	21	A4	release
99.457	n/a	RESPONSE	M2	1	16	E4	press
100.01	n/a	RESPONSE	M2	1	16	E4	release
100.485	n/a	RESPONSE	M2	1	16	E4	press
101.007	n/a	RESPONSE	M2	1	00	C3	release
101.668	n/a	RESPONSE	M2	1	14	D4	press
101.722	n/a	RESPONSE	M2	1	16	E4	release
103.13	n/a	RESPONSE	M2	1	12	C4	press
103.812	n/a	RESPONSE	M2	1	14	D4	release
103.913	n/a	RESPONSE	M2	1	12	C4	release
104.124	n/a	RESPONSE	M2	1	12	C4	press
104.155	n/a	RESPONSE	M2	1	00	C3	press
104.319	n/a	RESPONSE	M2	1	14	D4	press
104.648	n/a	RESPONSE	M2	1	00	C3	release
104.819	n/a	RESPONSE	M2	1	12	C4	release
104.85	n/a	RESPONSE	M2	1	14	D4	release
105.402	n/a	RESPONSE	M2	1	14	D4	press
105.433	n/a	RESPONSE	M2	1	00	C3	press
106.154	n/a	RESPONSE	M2	1	00	C3	release
106.245	n/a	RESPONSE	M2	1	14	D4	release
106.309	6.325	CUE_LISTEN	M2	2	n/a	n/a	n/a
109.257	n/a	RESPONSE	M2	2	07	G3	release
112.634	7.758	FIXCROSS	n/a	n/a	n/a	n/a	n/a
120.392	6.317	CUE_PLAYBACK_BOTH_HANDS	M2	2	n/a	n/a	n/a
121.892	n/a	RESPONSE	M2	2	07	G3	press
121.903	n/a	RESPONSE	M2	2	19	G4	press
121.954	n/a	RESPONSE	M2	2	00	C3	press
122.595	n/a	RESPONSE	M2	2	00	C3	release
122.607	n/a	RESPONSE	M2	2	19	G4	release
122.759	n/a	RESPONSE	M2	2	19	G4	press
122.809	n/a	RESPONSE	M2	2	00	C3	press
123.22	n/a	RESPONSE	M2	2	00	C3	release
123.352	n/a	RESPONSE	M2	2	19	G4	release
126.104	n/a	RESPONSE	M2	2	19	G4	press
126.125	n/a	RESPONSE	M2	2	00	C3	press
126.709	7.758	FIXCROSS	n/a	n/a	n/a	n/a	n/a
126.933	n/a	RESPONSE	M2	2	19	G4	release
127.078	n/a	RESPONSE	M2	2	14	D4	press
127.473	n/a	RESPONSE	M2	2	14	D4	release
128.398	n/a	RESPONSE	M2	2	00	C3	release
129.043	n/a	RESPONSE	M2	2	14	D4	press
129.047	n/a	RESPONSE	M2	2	00	C3	press
129.685	n/a	RESPONSE	M2	2	00	C3	release
129.77	n/a	RESPONSE	M2	2	14	D4	release
130.022	n/a	RESPONSE	M2	2	12	C4	press
131.229	n/a	RESPONSE	M2	2	00	C3	press
131.24	n/a	RESPONSE	M2	2	11	B3	press
131.612	n/a	RESPONSE	M2	2	12	C4	release
132.203	n/a	RESPONSE	M2	2	09	A3	press
132.424	n/a	RESPONSE	M2	2	11	B3	release
132.817	n/a	RESPONSE	M2	2	00	C3	release
132.867	n/a	RESPONSE	M2	2	09	A3	release
134.467	6.317	CUE_LISTEN	M2	1	n/a	n/a	n/a
137.358	n/a	RESPONSE	M2	1	07	G3	release
140.784	7.758	FIXCROSS	n/a	n/a	n/a	n/a	n/a
148.542	6.325	CUE_PLAYBACK_BOTH_HANDS	M2	1	n/a	n/a	n/a
150.583	n/a	RESPONSE	M2	1	07	G3	press
150.605	n/a	RESPONSE	M2	1	00	C3	press
150.635	n/a	RESPONSE	M2	1	12	C4	press
151.939	n/a	RESPONSE	M2	1	12	C4	release
152.028	n/a	RESPONSE	M2	1	00	C3	release
152.369	n/a	RESPONSE	M2	1	00	C3	press
152.372	n/a	RESPONSE	M2	1	12	C4	press
153.122	n/a	RESPONSE	M2	1	14	D4	press
154.867	7.758	FIXCROSS	n/a	n/a	n/a	n/a	n/a
154.983	n/a	RESPONSE	M2	1	12	C4	release
155.174	n/a	RESPONSE	M2	1	16	E4	press
155.318	n/a	RESPONSE	M2	1	14	D4	release
155.907	n/a	RESPONSE	M2	1	16	E4	release
156.038	n/a	RESPONSE	M2	1	14	D4	press
156.589	n/a	RESPONSE	M2	1	16	E4	press
157.128	n/a	RESPONSE	M2	1	17	F4	press
157.462	n/a	RESPONSE	M2	1	17	F4	release
157.48	n/a	RESPONSE	M2	1	14	D4	release
157.492	n/a	RESPONSE	M2	1	16	E4	release
157.742	n/a	RESPONSE	M2	1	17	F4	press
158.32	n/a	RESPONSE	M2	1	19	G4	press
158.789	n/a	RESPONSE	M2	1	17	F4	release
158.929	n/a	RESPONSE	M2	1	19	G4	release
159.108	n/a	RESPONSE	M2	1	00	C3	release
162.626	6.317	CUE_LISTEN	M2	2	n/a	n/a	n/a
168.942	7.758	FIXCROSS	n/a	n/a	n/a	n/a	n/a
176.701	6.317	CUE_PLAYBACK_BOTH_HANDS	M2	2	n/a	n/a	n/a
179.217	n/a	RESPONSE	M2	2	00	C3	press
179.219	n/a	RESPONSE	M2	2	16	E4	press
179.783	n/a	RESPONSE	M2	2	16	E4	release
179.855	n/a	RESPONSE	M2	2	00	C3	release
180.063	n/a	RESPONSE	M2	2	00	C3	press
180.084	n/a	RESPONSE	M2	2	16	E4	press
180.947	n/a	RESPONSE	M2	2	14	D4	press
181.798	n/a	RESPONSE	M2	2	16	E4	release
183.018	7.767	FIXCROSS	n/a	n/a	n/a	n/a	n/a
183.612	n/a	RESPONSE	M2	2	17	F4	press
184.04	n/a	RESPONSE	M2	2	14	D4	release
184.522	n/a	RESPONSE	M2	2	16	E4	press
184.833	n/a	RESPONSE	M2	2	17	F4	release
185.214	n/a	RESPONSE	M2	2	14	D4	press
185.418	n/a	RESPONSE	M2	2	00	C3	release
185.477	n/a	RESPONSE	M2	2	14	D4	release
185.67	n/a	RESPONSE	M2	2	14	D4	press
185.689	n/a	RESPONSE	M2	2	00	C3	press
186.01	n/a	RESPONSE	M2	2	16	E4	release
186.839	n/a	RESPONSE	M2	2	12	C4	press
187.512	n/a	RESPONSE	M2	2	00	C3	release
188.055	n/a	RESPONSE	M2	2	12	C4	release
188.148	n/a	RESPONSE	M2	2	14	D4	release
188.492	n/a	RESPONSE	M2	2	07	G3	release
190.784	6.317	CUE_LISTEN	M1	1	n/a	n/a	n/a
197.101	7.758	FIXCROSS	n/a	n/a	n/a	n/a	n/a
204.859	6.317	CUE_PLAYBACK_RIGHT_HAND	M1	1	n/a	n/a	n/a
206.804	n/a	RESPONSE	M1	1	19	G4	press
207.277	n/a	RESPONSE	M1	1	19	G4	release
207.592	n/a	RESPONSE	M1	1	19	G4	press
208.183	n/a	RESPONSE	M1	1	19	G4	release
208.428	n/a	RESPONSE	M1	1	16	E4	press
209.68	n/a	RESPONSE	M1	1	16	E4	release
209.79	n/a	RESPONSE	M1	1	17	F4	press
210.972	n/a	RESPONSE	M1	1	14	D4	press
211.176	7.758	FIXCROSS	n/a	n/a	n/a	n/a	n/a
211.423	n/a	RESPONSE	M1	1	14	D4	release
211.925	n/a	RESPONSE	M1	1	14	D4	press
212.427	n/a	RESPONSE	M1	1	14	D4	release
215.148	n/a	RESPONSE	M1	1	17	F4	release
218.934	6.317	CUE_LISTEN	M1	2	n/a	n/a	n/a
225.251	7.758	FIXCROSS	n/a	n/a	n/a	n/a	n/a
233.009	6.325	CUE_PLAYBACK_RIGHT_HAND	M1	2	n/a	n/a	n/a
233.987	n/a	RESPONSE	M1	2	19	G4	press
234.158	n/a	RESPONSE	M1	2	17	F4	press
234.439	n/a	RESPONSE	M1	2	17	F4	release
234.51	n/a	RESPONSE	M1	2	19	G4	release
234.853	n/a	RESPONSE	M1	2	19	G4	press
235.713	n/a	RESPONSE	M1	2	19	G4	release
236.654	n/a	RESPONSE	M1	2	16	E4	press
237.084	n/a	RESPONSE	M1	2	16	E4	release
237.207	n/a	RESPONSE	M1	2	16	E4	press
237.825	n/a	RESPONSE	M1	2	17	F4	press
238.189	n/a	RESPONSE	M1	2	16	E4	release
238.353	n/a	RESPONSE	M1	2	14	D4	press
238.787	n/a	RESPONSE	M1	2	14	D4	release
238.962	n/a	RESPONSE	M1	2	14	D4	press
239.334	7.758	FIXCROSS	n/a	n/a	n/a	n/a	n/a
239.64	n/a	RESPONSE	M1	2	12	C4	press
239.9	n/a	RESPONSE	M1	2	17	F4	release
240.174	n/a	RESPONSE	M1	2	16	E4	press
240.525	n/a	RESPONSE	M1	2	12	C4	release
240.847	n/a	RESPONSE	M1	2	19	G4	press
241.128	n/a	RESPONSE	M1	2	16	E4	release
241.249	n/a	RESPONSE	M1	2	14	D4	release
241.63	n/a	RESPONSE	M1	2	12	C4	press
241.674	n/a	RESPONSE	M1	2	19	G4	release
242.385	n/a	RESPONSE	M1	2	12	C4	release
247.093	6.317	CUE_LISTEN	M3	1	n/a	n/a	n/a
253.409	7.758	FIXCROSS	n/a	n/a	n/a	n/a	n/a
261.168	6.316	CUE_PLAYBACK_RIGHT_HAND	M3	1	n/a	n/a	n/a
261.8	n/a	RESPONSE	M3	1	12	C4	press
262.292	n/a	RESPONSE	M3	1	12	C4	release
262.513	n/a	RESPONSE	M3	1	12	C4	press
263.094	n/a	RESPONSE	M3	1	14	D4	press
263.696	n/a	RESPONSE	M3	1	16	E4	press
263.947	n/a	RESPONSE	M3	1	12	C4	release
264.3	n/a	RESPONSE	M3	1	12	C4	press
264.589	n/a	RESPONSE	M3	1	16	E4	release
264.7	n/a	RESPONSE	M3	1	14	D4	release
264.703	n/a	RESPONSE	M3	1	12	C4	release
264.963	n/a	RESPONSE	M3	1	12	C4	press
265.544	n/a	RESPONSE	M3	1	14	D4	press
266.148	n/a	RESPONSE	M3	1	16	E4	press
266.407	n/a	RESPONSE	M3	1	12	C4	release
266.745	n/a	RESPONSE	M3	1	12	C4	press
267.193	n/a	RESPONSE	M3	1	12	C4	release
267.195	n/a	RESPONSE	M3	1	16	E4	release
267.484	7.759	FIXCROSS	n/a	n/a	n/a	n/a	n/a
268.33	n/a	RESPONSE	M3	1	14	D4	release
275.243	6.325	CUE_LISTEN	M3	2	n/a	n/a	n/a
281.568	7.758	FIXCROSS	n/a	n/a	n/a	n/a	n/a
289.326	6.325	CUE_PLAYBACK_RIGHT_HAND	M3	2	n/a	n/a	n/a
289.987	n/a	RESPONSE	M3	2	16	E4	press
290.043	n/a	RESPONSE	M3	2	14	D4	press
290.642	n/a	RESPONSE	M3	2	17	F4	press
291.223	n/a	RESPONSE	M3	2	19	G4	press
291.677	n/a	RESPONSE	M3	2	14	D4	release
291.725	n/a	RESPONSE	M3	2	19	G4	release
291.797	n/a	RESPONSE	M3	2	17	F4	release
292.1	n/a	RESPONSE	M3	2	14	D4	press
292.479	n/a	RESPONSE	M3	2	14	D4	release
292.482	n/a	RESPONSE	M3	2	16	E4	release
292.684	n/a	RESPONSE	M3	2	16	E4	press
293.213	n/a	RESPONSE	M3	2	17	F4	press
293.774	n/a	RESPONSE	M3	2	19	G4	press
294.207	n/a	RESPONSE	M3	2	16	E4	release
294.238	n/a	RESPONSE	M3	2	17	F4	release
294.258	n/a	RESPONSE	M3	2	19	G4	release
295.651	7.758	FIXCROSS	n/a	n/a	n/a	n/a	n/a
303.409	6.308	CUE_LISTEN	M3	1	n/a	n/a	n/a
309.718	7.758	FIXCROSS	n/a	n/a	n/a	n/a	n/a
317.476	6.325	CUE_PLAYBACK_RIGHT_HAND	M3	1	n/a	n/a	n/a
318.617	n/a	RESPONSE	M3	1	19	G4	press
319.07	n/a	RESPONSE	M3	1	19	G4	release
319.214	n/a	RESPONSE	M3	1	19	G4	press
319.612	n/a	RESPONSE	M3	1	21	A4	press
319.933	n/a	RESPONSE	M3	1	19	G4	release
319.992	n/a	RESPONSE	M3	1	21	A4	release
320.018	n/a	RESPONSE	M3	1	19	G4	press
320.417	n/a	RESPONSE	M3	1	17	F4	press
320.668	n/a	RESPONSE	M3	1	19	G4	release
320.839	n/a	RESPONSE	M3	1	16	E4	press
321.823	n/a	RESPONSE	M3	1	14	D4	press
322.292	n/a	RESPONSE	M3	1	17	F4	release
322.313	n/a	RESPONSE	M3	1	16	E4	release
322.504	n/a	RESPONSE	M3	1	14	D4	release
322.735	n/a	RESPONSE	M3	1	19	G4	press
323.801	7.758	FIXCROSS	n/a	n/a	n/a	n/a	n/a
323.809	n/a	RESPONSE	M3	1	21	A4	press
324.068	n/a	RESPONSE	M3	1	21	A4	release
324.549	n/a	RESPONSE	M3	1	17	F4	press
324.7	n/a	RESPONSE	M3	1	19	G4	release
325.002	n/a	RESPONSE	M3	1	16	E4	press
325.213	n/a	RESPONSE	M3	1	17	F4	release
325.654	n/a	RESPONSE	M3	1	14	D4	press
326.058	n/a	RESPONSE	M3	1	14	D4	release
326.439	n/a	RESPONSE	M3	1	16	E4	release
331.56	6.317	CUE_LISTEN	M3	2	n/a	n/a	n/a
337.876	7.758	FIXCROSS	n/a	n/a	n/a	n/a	n/a
345.634	6.325	CUE_PLAYBACK_RIGHT_HAND	M3	2	n/a	n/a	n/a
346.323	n/a	RESPONSE	M3	2	12	C4	press
346.759	n/a	RESPONSE	M3	2	12	C4	release
347.502	n/a	RESPONSE	M3	2	09	A3	press
347.913	n/a	RESPONSE	M3	2	09	A3	release
348.343	n/a	RESPONSE	M3	2	12	C4	press
348.784	n/a	RESPONSE	M3	2	12	C4	release
350.189	n/a	RESPONSE	M3	2	12	C4	press
350.673	n/a	RESPONSE	M3	2	12	C4	release
351.354	n/a	RESPONSE	M3	2	09	A3	press
351.959	7.758	FIXCROSS	n/a	n/a	n/a	n/a	n/a
351.995	n/a	RESPONSE	M3	2	09	A3	release
352.737	n/a	RESPONSE	M3	2	14	D4	press
353.348	n/a	RESPONSE	M3	2	14	D4	release
359.718	6.317	CUE_LISTEN	M1	1	n/a	n/a	n/a
366.034	7.758	FIXCROSS	n/a	n/a	n/a	n/a	n/a
373.793	6.317	CUE_PLAYBACK_BOTH_HANDS	M1	1	n/a	n/a	n/a
377.244	n/a	RESPONSE	M1	1	19	G4	press
377.365	n/a	RESPONSE	M1	1	07	G3	press
377.397	n/a	RESPONSE	M1	1	00	C3	press
377.887	n/a	RESPONSE	M1	1	19	G4	release
377.929	n/a	RESPONSE	M1	1	00	C3	release
378.802	n/a	RESPONSE	M1	1	19	G4	press
378.842	n/a	RESPONSE	M1	1	00	C3	press
379.553	n/a	RESPONSE	M1	1	16	E4	press
379.697	n/a	RESPONSE	M1	1	19	G4	release
379.999	n/a	RESPONSE	M1	1	16	E4	release
380.11	7.758	FIXCROSS	n/a	n/a	n/a	n/a	n/a
380.112	n/a	RESPONSE	M1	1	16	E4	press
380.505	n/a	RESPONSE	M1	1	16	E4	release
380.627	n/a	RESPONSE	M1	1	00	C3	release
380.858	n/a	RESPONSE	M1	1	17	F4	press
380.86	n/a	RESPONSE	M1	1	00	C3	press
381.89	n/a	RESPONSE	M1	1	14	D4	press
382.102	n/a	RESPONSE	M1	1	17	F4	release
382.913	n/a	RESPONSE	M1	1	00	C3	release
383.064	n/a	RESPONSE	M1	1	07	G3	release
384.745	n/a	RESPONSE	M1	1	04	E3	press
385.389	n/a	RESPONSE	M1	1	14	D4	release
385.908	n/a	RESPONSE	M1	1	00	C3	press
386.259	n/a	RESPONSE	M1	1	07	G3	press
386.48	n/a	RESPONSE	M1	1	12	C4	press
386.949	n/a	RESPONSE	M1	1	12	C4	release
387.277	n/a	RESPONSE	M1	1	16	E4	press
387.742	n/a	RESPONSE	M1	1	16	E4	release
387.823	n/a	RESPONSE	M1	1	12	C4	press
387.868	6.325	CUE_LISTEN	M1	2	n/a	n/a	n/a
388.237	n/a	RESPONSE	M1	2	12	C4	release
388.714	n/a	RESPONSE	M1	2	07	G3	release
388.725	n/a	RESPONSE	M1	2	00	C3	release
393.67	n/a	RESPONSE	M1	2	04	E3	release
394.193	7.758	FIXCROSS	n/a	n/a	n/a	n/a	n/a
401.951	6.317	CUE_PLAYBACK_BOTH_HANDS	M1	2	n/a	n/a	n/a
405.782	n/a	RESPONSE	M1	2	07	G3	press
405.843	n/a	RESPONSE	M1	2	00	C3	press
405.895	n/a	RESPONSE	M1	2	12	C4	press
406.275	n/a	RESPONSE	M1	2	00	C3	release
406.425	n/a	RESPONSE	M1	2	12	C4	release
407.837	n/a	RESPONSE	M1	2	19	G4	press
407.873	n/a	RESPONSE	M1	2	00	C3	press
408.268	7.758	FIXCROSS	n/a	n/a	n/a	n/a	n/a
408.682	n/a	RESPONSE	M1	2	16	E4	press
408.973	n/a	RESPONSE	M1	2	19	G4	release
409.777	n/a	RESPONSE	M1	2	16	E4	release
409.799	n/a	RESPONSE	M1	2	00	C3	release
409.992	n/a	RESPONSE	M1	2	17	F4	press
410.055	n/a	RESPONSE	M1	2	00	C3	press
410.81	n/a	RESPONSE	M1	2	17	F4	release
411.912	n/a	RESPONSE	M1	2	00	C3	release
412.163	n/a	RESPONSE	M1	2	07	G3	release
412.514	n/a	RESPONSE	M1	2	02	D3	press
412.517	n/a	RESPONSE	M1	2	14	D4	press
412.577	n/a	RESPONSE	M1	2	05	F3	press
413.008	n/a	RESPONSE	M1	2	14	D4	release
413.119	n/a	RESPONSE	M1	2	14	D4	press
414.03	n/a	RESPONSE	M1	2	14	D4	release
414.223	n/a	RESPONSE	M1	2	05	F3	release
414.574	n/a	RESPONSE	M1	2	07	G3	press
414.865	n/a	RESPONSE	M1	2	00	C3	press
414.905	n/a	RESPONSE	M1	2	12	C4	press
415.277	n/a	RESPONSE	M1	2	16	E4	press
415.438	n/a	RESPONSE	M1	2	12	C4	release
415.832	n/a	RESPONSE	M1	2	19	G4	press
415.87	n/a	RESPONSE	M1	2	16	E4	release
416.026	6.317	CUE_LISTEN	M2	1	n/a	n/a	n/a
416.152	n/a	RESPONSE	M2	1	07	G3	release
416.173	n/a	RESPONSE	M2	1	19	G4	release
416.317	n/a	RESPONSE	M2	1	02	D3	release
416.475	n/a	RESPONSE	M2	1	00	C3	release
422.343	7.758	FIXCROSS	n/a	n/a	n/a	n/a	n/a
430.101	6.325	CUE_PLAYBACK_RIGHT_HAND	M2	1	n/a	n/a	n/a
430.807	n/a	RESPONSE	M2	1	21	A4	press
431.278	n/a	RESPONSE	M2	1	21	A4	release
431.599	n/a	RESPONSE	M2	1	21	A4	press
432.132	n/a	RESPONSE	M2	1	21	A4	release
432.952	n/a	RESPONSE	M2	1	21	A4	press
433.334	n/a	RESPONSE	M2	1	21	A4	release
433.394	n/a	RESPONSE	M2	1	16	E4	press
433.767	n/a	RESPONSE	M2	1	16	E4	release
434.017	n/a	RESPONSE	M2	1	16	E4	press
434.338	n/a	RESPONSE	M2	1	16	E4	release
434.53	n/a	RESPONSE	M2	1	16	E4	press
435.013	n/a	RESPONSE	M2	1	16	E4	release
435.052	n/a	RESPONSE	M2	1	14	D4	press
435.723	n/a	RESPONSE	M2	1	12	C4	press
436.104	n/a	RESPONSE	M2	1	12	C4	release
436.185	n/a	RESPONSE	M2	1	14	D4	release
436.327	n/a	RESPONSE	M2	1	14	D4	press
436.426	7.758	FIXCROSS	n/a	n/a	n/a	n/a	n/a
436.757	n/a	RESPONSE	M2	1	14	D4	release
436.892	n/a	RESPONSE	M2	1	16	E4	press
437.5	n/a	RESPONSE	M2	1	16	E4	release
444.185	6.317	CUE_LISTEN	M2	2	n/a	n/a	n/a
450.501	7.758	FIXCROSS	n/a	n/a	n/a	n/a	n/a
458.26	6.325	CUE_PLAYBACK_RIGHT_HAND	M2	2	n/a	n/a	n/a
458.927	n/a	RESPONSE	M2	2	19	G4	press
459.317	n/a	RESPONSE	M2	2	19	G4	release
460.1	n/a	RESPONSE	M2	2	16	E4	press
460.365	n/a	RESPONSE	M2	2	16	E4	release
461.087	n/a	RESPONSE	M2	2	16	E4	press
461.518	n/a	RESPONSE	M2	2	16	E4	release
461.73	n/a	RESPONSE	M2	2	14	D4	press
462.303	n/a	RESPONSE	M2	2	12	C4	press
462.312	n/a	RESPONSE	M2	2	14	D4	release
462.803	n/a	RESPONSE	M2	2	12	C4	release
462.824	n/a	RESPONSE	M2	2	11	B3	press
463.678	n/a	RESPONSE	M2	2	09	A3	press
464.537	n/a	RESPONSE	M2	2	11	B3	release
464.585	7.758	FIXCROSS	n/a	n/a	n/a	n/a	n/a
464.648	n/a	RESPONSE	M2	2	09	A3	release
472.343	6.317	CUE_LISTEN	M2	1	n/a	n/a	n/a
478.66	7.758	FIXCROSS	n/a	n/a	n/a	n/a	n/a
486.418	6.317	CUE_PLAYBACK_RIGHT_HAND	M2	1	n/a	n/a	n/a
487.107	n/a	RESPONSE	M2	1	12	C4	press
488.163	n/a	RESPONSE	M2	1	12	C4	release
488.378	n/a	RESPONSE	M2	1	12	C4	press
488.808	n/a	RESPONSE	M2	1	12	C4	release
488.959	n/a	RESPONSE	M2	1	14	D4	press
489.389	n/a	RESPONSE	M2	1	14	D4	release
489.654	n/a	RESPONSE	M2	1	16	E4	press
490.42	n/a	RESPONSE	M2	1	16	E4	release
490.482	n/a	RESPONSE	M2	1	17	F4	press
491.302	n/a	RESPONSE	M2	1	17	F4	release
491.534	n/a	RESPONSE	M2	1	17	F4	press
492.444	n/a	RESPONSE	M2	1	17	F4	release
492.735	7.758	FIXCROSS	n/a	n/a	n/a	n/a	n/a
492.825	n/a	RESPONSE	M2	1	12	C4	press
493.339	n/a	RESPONSE	M2	1	12	C4	release
493.528	n/a	RESPONSE	M2	1	12	C4	press
493.979	n/a	RESPONSE	M2	1	12	C4	release
494.063	n/a	RESPONSE	M2	1	14	D4	press
494.452	n/a	RESPONSE	M2	1	14	D4	release
494.683	n/a	RESPONSE	M2	1	16	E4	press
495.374	n/a	RESPONSE	M2	1	16	E4	release
495.405	n/a	RESPONSE	M2	1	14	D4	press
495.767	n/a	RESPONSE	M2	1	14	D4	release
495.858	n/a	RESPONSE	M2	1	16	E4	press
496.579	n/a	RESPONSE	M2	1	17	F4	press
496.872	n/a	RESPONSE	M2	1	19	G4	press
497.032	n/a	RESPONSE	M2	1	16	E4	release
497.254	n/a	RESPONSE	M2	1	19	G4	release
497.714	n/a	RESPONSE	M2	1	17	F4	release
500.493	6.325	CUE_LISTEN	M2	2	n/a	n/a	n/a
506.818	7.758	FIXCROSS	n/a	n/a	n/a	n/a	n/a
514.576	6.317	CUE_PLAYBACK_RIGHT_HAND	M2	2	n/a	n/a	n/a
515.977	n/a	RESPONSE	M2	2	17	F4	press
516.97	n/a	RESPONSE	M2	2	17	F4	release
517.567	n/a	RESPONSE	M2	2	17	F4	press
518.092	n/a	RESPONSE	M2	2	16	E4	press
518.275	n/a	RESPONSE	M2	2	17	F4	release
518.639	n/a	RESPONSE	M2	2	16	E4	release
518.922	n/a	RESPONSE	M2	2	16	E4	press
519.252	n/a	RESPONSE	M2	2	16	E4	release
519.429	n/a	RESPONSE	M2	2	14	D4	press
520.755	n/a	RESPONSE	M2	2	14	D4	release
520.869	n/a	RESPONSE	M2	2	12	C4	press
520.893	7.758	FIXCROSS	n/a	n/a	n/a	n/a	n/a
521.378	n/a	RESPONSE	M2	2	12	C4	release
528.652	6.317	CUE_LISTEN	M3	1	n/a	n/a	n/a
534.968	7.758	FIXCROSS	n/a	n/a	n/a	n/a	n/a
542.726	6.325	CUE_PLAYBACK_BOTH_HANDS	M3	1	n/a	n/a	n/a
543.549	n/a	RESPONSE	M3	1	00	C3	press
543.57	n/a	RESPONSE	M3	1	12	C4	press
544.142	n/a	RESPONSE	M3	1	00	C3	release
544.295	n/a	RESPONSE	M3	1	12	C4	release
546.698	n/a	RESPONSE	M3	1	00	C3	press
546.743	n/a	RESPONSE	M3	1	12	C4	press
547.847	n/a	RESPONSE	M3	1	12	C4	release
548.06	n/a	RESPONSE	M3	1	00	C3	release
548.504	n/a	RESPONSE	M3	1	00	C3	press
548.539	n/a	RESPONSE	M3	1	12	C4	press
549.052	7.758	FIXCROSS	n/a	n/a	n/a	n/a	n/a
549.252	n/a	RESPONSE	M3	1	00	C3	release
549.337	n/a	RESPONSE	M3	1	12	C4	release
549.768	n/a	RESPONSE	M3	1	00	C3	press
549.783	n/a	RESPONSE	M3	1	12	C4	press
550.979	n/a	RESPONSE	M3	1	14	D4	press
552.52	n/a	RESPONSE	M3	1	16	E4	press
552.532	n/a	RESPONSE	M3	1	07	G3	press
555.764	n/a	RESPONSE	M3	1	16	E4	release
556.105	n/a	RESPONSE	M3	1	12	C4	release
556.477	n/a	RESPONSE	M3	1	00	C3	release
556.733	n/a	RESPONSE	M3	1	07	G3	release
556.81	6.317	CUE_LISTEN	M3	2	n/a	n/a	n/a
557.363	n/a	RESPONSE	M3	2	14	D4	release
563.126	7.758	FIXCROSS	n/a	n/a	n/a	n/a	n/a
570.885	6.317	CUE_PLAYBACK_BOTH_HANDS	M3	2	n/a	n/a	n/a
571.803	n/a	RESPONSE	M3	2	00	C3	press
571.833	n/a	RESPONSE	M3	2	16	E4	press
572.365	n/a	RESPONSE	M3	2	17	F4	press
573.527	n/a	RESPONSE	M3	2	07	G3	press
573.577	n/a	RESPONSE	M3	2	19	G4	press
574.59	n/a	RESPONSE	M3	2	00	C3	release
574.672	n/a	RESPONSE	M3	2	16	E4	release
574.783	n/a	RESPONSE	M3	2	17	F4	release
574.802	n/a	RESPONSE	M3	2	19	G4	release
574.823	n/a	RESPONSE	M3	2	07	G3	release
575.464	n/a	RESPONSE	M3	2	07	G3	press
576.395	n/a	RESPONSE	M3	2	12	C4	press
577.202	7.758	FIXCROSS	n/a	n/a	n/a	n/a	n/a
577.608	n/a	RESPONSE	M3	2	16	E4	press
577.638	n/a	RESPONSE	M3	2	04	E3	press
578.124	n/a	RESPONSE	M3	2	12	C4	release
578.26	n/a	RESPONSE	M3	2	17	F4	press
579.008	n/a	RESPONSE	M3	2	19	G4	press
580.165	n/a	RESPONSE	M3	2	16	E4	release
580.197	n/a	RESPONSE	M3	2	17	F4	release
580.732	n/a	RESPONSE	M3	2	07	G3	release
581.313	n/a	RESPONSE	M3	2	19	G4	release
581.564	n/a	RESPONSE	M3	2	04	E3	release
584.96	6.325	CUE_LISTEN	M3	1	n/a	n/a	n/a
591.285	7.758	FIXCROSS	n/a	n/a	n/a	n/a	n/a
599.043	6.317	CUE_PLAYBACK_BOTH_HANDS	M3	1	n/a	n/a	n/a
599.782	n/a	RESPONSE	M3	1	00	C3	press
599.788	n/a	RESPONSE	M3	1	19	G4	press
599.968	n/a	RESPONSE	M3	1	17	F4	press
600.267	n/a	RESPONSE	M3	1	19	G4	release
600.319	n/a	RESPONSE	M3	1	00	C3	release
600.347	n/a	RESPONSE	M3	1	17	F4	release
600.645	n/a	RESPONSE	M3	1	19	G4	press
600.747	n/a	RESPONSE	M3	1	00	C3	press
601.948	n/a	RESPONSE	M3	1	19	G4	release
602.022	n/a	RESPONSE	M3	1	00	C3	release
602.203	n/a	RESPONSE	M3	1	19	G4	press
602.232	n/a	RESPONSE	M3	1	00	C3	press
602.573	n/a	RESPONSE	M3	1	21	A4	press
602.674	n/a	RESPONSE	M3	1	17	F4	press
603.655	n/a	RESPONSE	M3	1	19	G4	release
603.797	n/a	RESPONSE	M3	1	17	F4	release
603.948	n/a	RESPONSE	M3	1	19	G4	press
604.779	n/a	RESPONSE	M3	1	19	G4	release
605.36	7.758	FIXCROSS	n/a	n/a	n/a	n/a	n/a
605.413	n/a	RESPONSE	M3	1	19	G4	press
605.452	n/a	RESPONSE	M3	1	07	G3	press
606.475	n/a	RESPONSE	M3	1	17	F4	press
607.71	n/a	RESPONSE	M3	1	16	E4	press
607.714	n/a	RESPONSE	M3	1	04	E3	press
608.57	n/a	RESPONSE	M3	1	21	A4	release
608.64	n/a	RESPONSE	M3	1	17	F4	release
609.363	n/a	RESPONSE	M3	1	14	D4	press
609.955	n/a	RESPONSE	M3	1	07	G3	release
609.963	n/a	RESPONSE	M3	1	00	C3	release
610.019	n/a	RESPONSE	M3	1	14	D4	release
610.25	n/a	RESPONSE	M3	1	19	G4	release
611.155	n/a	RESPONSE	M3	1	16	E4	release
613.118	6.317	CUE_LISTEN	M3	2	n/a	n/a	n/a
617.442	n/a	RESPONSE	M3	2	04	E3	release
619.435	7.758	FIXCROSS	n/a	n/a	n/a	n/a	n/a
627.193	6.325	CUE_PLAYBACK_BOTH_HANDS	M3	2	n/a	n/a	n/a
628.085	n/a	RESPONSE	M3	2	12	C4	press
628.089	n/a	RESPONSE	M3	2	00	C3	press
628.979	n/a	RESPONSE	M3	2	12	C4	release
629.46	n/a	RESPONSE	M3	2	09	A3	press
630.509	n/a	RESPONSE	M3	2	00	C3	release
630.59	n/a	RESPONSE	M3	2	09	A3	release
630.802	n/a	RESPONSE	M3	2	00	C3	press
630.823	n/a	RESPONSE	M3	2	09	A3	press
631.194	n/a	RESPONSE	M3	2	09	A3	release
631.295	n/a	RESPONSE	M3	2	00	C3	release
631.627	n/a	RESPONSE	M3	2	00	C3	press
631.668	n/a	RESPONSE	M3	2	12	C4	press
632.479	n/a	RESPONSE	M3	2	12	C4	release
632.5	n/a	RESPONSE	M3	2	00	C3	release
632.732	n/a	RESPONSE	M3	2	00	C3	press
632.775	n/a	RESPONSE	M3	2	12	C4	press
633.134	n/a	RESPONSE	M3	2	12	C4	release
633.395	n/a	RESPONSE	M3	2	09	A3	press
633.518	7.758	FIXCROSS	n/a	n/a	n/a	n/a	n/a
633.707	n/a	RESPONSE	M3	2	09	A3	release
633.978	n/a	RESPONSE	M3	2	00	C3	release
634.069	n/a	RESPONSE	M3	2	00	C3	press
634.11	n/a	RESPONSE	M3	2	12	C4	press
634.892	n/a	RESPONSE	M3	2	12	C4	release
634.915	n/a	RESPONSE	M3	2	00	C3	release
641.277	6.317	CUE_LISTEN	M1	1	n/a	n/a	n/a
647.593	7.759	FIXCROSS	n/a	n/a	n/a	n/a	n/a
655.352	6.316	CUE_PLAYBACK_BOTH_HANDS	M1	1	n/a	n/a	n/a
656.377	n/a	RESPONSE	M1	1	00	C3	press
656.779	n/a	RESPONSE	M1	1	07	G3	press
656.807	n/a	RESPONSE	M1	1	04	E3	press
656.839	n/a	RESPONSE	M1	1	19	G4	press
657.545	n/a	RESPONSE	M1	1	04	E3	release
657.7	n/a	RESPONSE	M1	1	00	C3	release
657.723	n/a	RESPONSE	M1	1	19	G4	release
658.17	n/a	RESPONSE	M1	1	00	C3	press
658.177	n/a	RESPONSE	M1	1	19	G4	press
658.199	n/a	RESPONSE	M1	1	04	E3	press
659.09	n/a	RESPONSE	M1	1	16	E4	press
659.324	n/a	RESPONSE	M1	1	19	G4	release
659.57	n/a	RESPONSE	M1	1	16	E4	release
659.688	n/a	RESPONSE	M1	1	16	E4	press
660.443	n/a	RESPONSE	M1	1	16	E4	release
660.984	n/a	RESPONSE	M1	1	00	C3	release
661.668	7.758	FIXCROSS	n/a	n/a	n/a	n/a	n/a
662.085	n/a	RESPONSE	M1	1	17	F4	press
662.118	n/a	RESPONSE	M1	1	00	C3	press
663.228	n/a	RESPONSE	M1	1	00	C3	release
663.319	n/a	RESPONSE	M1	1	04	E3	release
663.66	n/a	RESPONSE	M1	1	05	F3	press
663.692	n/a	RESPONSE	M1	1	02	D3	press
664.615	n/a	RESPONSE	M1	1	14	D4	press
664.964	n/a	RESPONSE	M1	1	14	D4	release
665.165	n/a	RESPONSE	M1	1	14	D4	press
665.557	n/a	RESPONSE	M1	1	14	D4	release
665.718	n/a	RESPONSE	M1	1	05	F3	release
666.13	n/a	RESPONSE	M1	1	00	C3	press
666.16	n/a	RESPONSE	M1	1	12	C4	press
667.199	n/a	RESPONSE	M1	1	16	E4	press
667.468	n/a	RESPONSE	M1	1	12	C4	release
668.337	n/a	RESPONSE	M1	1	17	F4	release
668.437	n/a	RESPONSE	M1	1	00	C3	release
668.975	n/a	RESPONSE	M1	1	07	G3	release
669.14	n/a	RESPONSE	M1	1	05	F3	press
669.357	n/a	RESPONSE	M1	1	14	D4	press
669.427	6.325	CUE_LISTEN	M1	2	n/a	n/a	n/a
669.453	n/a	RESPONSE	M1	2	16	E4	release
669.504	n/a	RESPONSE	M1	2	12	C4	press
669.955	n/a	RESPONSE	M1	2	14	D4	release
669.992	n/a	RESPONSE	M1	2	12	C4	release
670.068	n/a	RESPONSE	M1	2	02	D3	release
670.117	n/a	RESPONSE	M1	2	05	F3	release
675.752	7.758	FIXCROSS	n/a	n/a	n/a	n/a	n/a
683.51	6.317	CUE_PLAYBACK_BOTH_HANDS	M1	2	n/a	n/a	n/a
685.85	n/a	RESPONSE	M1	2	04	E3	press
685.882	n/a	RESPONSE	M1	2	19	G4	press
685.895	n/a	RESPONSE	M1	2	07	G3	press
685.907	n/a	RESPONSE	M1	2	00	C3	press
686.565	n/a	RESPONSE	M1	2	19	G4	release
686.945	n/a	RESPONSE	M1	2	19	G4	press
687.592	n/a	RESPONSE	M1	2	16	E4	press
687.83	n/a	RESPONSE	M1	2	19	G4	release
688.809	n/a	RESPONSE	M1	2	04	E3	release
688.812	n/a	RESPONSE	M1	2	16	E4	release
688.992	n/a	RESPONSE	M1	2	00	C3	release
689.168	n/a	RESPONSE	M1	2	07	G3	release
689.244	n/a	RESPONSE	M1	2	02	D3	press
689.267	n/a	RESPONSE	M1	2	05	F3	press
689.305	n/a	RESPONSE	M1	2	17	F4	press
689.827	7.758	FIXCROSS	n/a	n/a	n/a	n/a	n/a
690.64	n/a	RESPONSE	M1	2	17	F4	release
690.972	n/a	RESPONSE	M1	2	14	D4	press
691.38	n/a	RESPONSE	M1	2	14	D4	release
691.474	n/a	RESPONSE	M1	2	14	D4	press
692.043	n/a	RESPONSE	M1	2	05	F3	release
692.064	n/a	RESPONSE	M1	2	14	D4	release
692.285	n/a	RESPONSE	M1	2	02	D3	release
692.657	n/a	RESPONSE	M1	2	07	G3	press
692.818	n/a	RESPONSE	M1	2	00	C3	press
692.86	n/a	RESPONSE	M1	2	02	D3	press
693.29	n/a	RESPONSE	M1	2	00	C3	release
693.322	n/a	RESPONSE	M1	2	02	D3	release
694.403	n/a	RESPONSE	M1	2	04	E3	press
694.484	n/a	RESPONSE	M1	2	00	C3	press
694.548	n/a	RESPONSE	M1	2	12	C4	press
695.157	n/a	RESPONSE	M1	2	12	C4	release
695.288	n/a	RESPONSE	M1	2	14	D4	press
695.969	n/a	RESPONSE	M1	2	14	D4	release
696.2	n/a	RESPONSE	M1	2	16	E4	press
696.909	n/a	RESPONSE	M1	2	12	C4	press
697.017	n/a	RESPONSE	M1	2	16	E4	release
697.319	n/a	RESPONSE	M1	2	12	C4	release
697.509	n/a	RESPONSE	M1	2	00	C3	release
697.585	6.317	CUE_LISTEN	M2	1	n/a	n/a	n/a
697.625	n/a	RESPONSE	M2	1	04	E3	release
697.729	n/a	RESPONSE	M2	1	07	G3	release
703.902	7.758	FIXCROSS	n/a	n/a	n/a	n/a	n/a
711.66	6.325	CUE_PLAYBACK_BOTH_HANDS	M2	1	n/a	n/a	n/a
712.28	n/a	RESPONSE	M2	1	21	A4	press
712.312	n/a	RESPONSE	M2	1	00	C3	press
712.343	n/a	RESPONSE	M2	1	07	G3	press
712.855	n/a	RESPONSE	M2	1	00	C3	release
713.115	n/a	RESPONSE	M2	1	00	C3	press
713.687	n/a	RESPONSE	M2	1	16	E4	press
714.228	n/a	RESPONSE	M2	1	21	A4	release
714.679	n/a	RESPONSE	M2	1	16	E4	release
714.77	n/a	RESPONSE	M2	1	00	C3	release
715.542	n/a	RESPONSE	M2	1	21	A4	press
715.725	n/a	RESPONSE	M2	1	00	C3	press
716.314	n/a	RESPONSE	M2	1	00	C3	release
716.355	n/a	RESPONSE	M2	1	21	A4	release
716.437	n/a	RESPONSE	M2	1	21	A4	press
716.439	n/a	RESPONSE	M2	1	00	C3	press
716.91	n/a	RESPONSE	M2	1	16	E4	press
717.215	n/a	RESPONSE	M2	1	21	A4	release
717.315	n/a	RESPONSE	M2	1	16	E4	release
717.539	n/a	RESPONSE	M2	1	16	E4	press
717.854	n/a	RESPONSE	M2	1	16	E4	release
717.92	n/a	RESPONSE	M2	1	00	C3	release
717.985	7.758	FIXCROSS	n/a	n/a	n/a	n/a	n/a
718.095	n/a	RESPONSE	M2	1	16	E4	press
718.11	n/a	RESPONSE	M2	1	00	C3	press
718.534	n/a	RESPONSE	M2	1	14	D4	press
718.537	n/a	RESPONSE	M2	1	16	E4	release
719.39	n/a	RESPONSE	M2	1	12	C4	press
719.715	n/a	RESPONSE	M2	1	14	D4	release
719.84	n/a	RESPONSE	M2	1	12	C4	release
720.175	n/a	RESPONSE	M2	1	00	C3	release
720.269	n/a	RESPONSE	M2	1	14	D4	press
720.284	n/a	RESPONSE	M2	1	00	C3	press
720.722	n/a	RESPONSE	M2	1	16	E4	press
720.954	n/a	RESPONSE	M2	1	14	D4	release
721.385	n/a	RESPONSE	M2	1	00	C3	release
721.425	n/a	RESPONSE	M2	1	16	E4	release
721.577	n/a	RESPONSE	M2	1	07	G3	release
725.744	6.317	CUE_LISTEN	M2	2	n/a	n/a	n/a
732.06	7.758	FIXCROSS	n/a	n/a	n/a	n/a	n/a
739.819	6.325	CUE_PLAYBACK_BOTH_HANDS	M2	2	n/a	n/a	n/a
741.058	n/a	RESPONSE	M2	2	19	G4	press
741.099	n/a	RESPONSE	M2	2	07	G3	press
741.108	n/a	RESPONSE	M2	2	00	C3	press
741.6	n/a	RESPONSE	M2	2	00	C3	release
741.73	n/a	RESPONSE	M2	2	19	G4	release
741.822	n/a	RESPONSE	M2	2	14	D4	press
742.623	n/a	RESPONSE	M2	2	14	D4	release
742.784	n/a	RESPONSE	M2	2	14	D4	press
742.815	n/a	RESPONSE	M2	2	00	C3	press
743.457	n/a	RESPONSE	M2	2	12	C4	press
743.939	n/a	RESPONSE	M2	2	14	D4	release
744.859	n/a	RESPONSE	M2	2	00	C3	release
745.39	n/a	RESPONSE	M2	2	12	C4	release
745.452	n/a	RESPONSE	M2	2	11	B3	press
745.473	n/a	RESPONSE	M2	2	00	C3	press
746.084	n/a	RESPONSE	M2	2	09	A3	press
746.144	7.758	FIXCROSS	n/a	n/a	n/a	n/a	n/a
746.425	n/a	RESPONSE	M2	2	11	B3	release
746.599	n/a	RESPONSE	M2	2	00	C3	release
747.525	n/a	RESPONSE	M2	2	09	A3	release
747.57	n/a	RESPONSE	M2	2	07	G3	release
753.902	6.317	CUE_LISTEN	M2	1	n/a	n/a	n/a
760.218	7.758	FIXCROSS	n/a	n/a	n/a	n/a	n/a
767.977	6.317	CUE_PLAYBACK_BOTH_HANDS	M2	1	n/a	n/a	n/a
769.455	n/a	RESPONSE	M2	1	07	G3	press
769.468	n/a	RESPONSE	M2	1	00	C3	press
769.482	n/a	RESPONSE	M2	1	12	C4	press
770.01	n/a	RESPONSE	M2	1	14	D4	press
770.838	n/a	RESPONSE	M2	1	16	E4	press
771.1	n/a	RESPONSE	M2	1	12	C4	release
771.37	n/a	RESPONSE	M2	1	14	D4	release
771.373	n/a	RESPONSE	M2	1	16	E4	release
771.483	n/a	RESPONSE	M2	1	00	C3	release
771.604	n/a	RESPONSE	M2	1	16	E4	press
771.645	n/a	RESPONSE	M2	1	00	C3	press
772.258	n/a	RESPONSE	M2	1	14	D4	press
773.358	n/a	RESPONSE	M2	1	17	F4	press
773.749	n/a	RESPONSE	M2	1	14	D4	release
773.83	n/a	RESPONSE	M2	1	16	E4	release
774.282	n/a	RESPONSE	M2	1	19	G4	press
774.294	7.759	FIXCROSS	n/a	n/a	n/a	n/a	n/a
774.843	n/a	RESPONSE	M2	1	17	F4	release
775.054	n/a	RESPONSE	M2	1	00	C3	release
775.245	n/a	RESPONSE	M2	1	19	G4	release
775.277	n/a	RESPONSE	M2	1	07	G3	release
782.052	6.325	CUE_LISTEN	M2	2	n/a	n/a	n/a
788.377	7.758	FIXCROSS	n/a	n/a	n/a	n/a	n/a
796.135	6.317	CUE_PLAYBACK_BOTH_HANDS	M2	2	n/a	n/a	n/a
797.483	n/a	RESPONSE	M2	2	17	F4	press
797.5	n/a	RESPONSE	M2	2	00	C3	press
797.503	n/a	RESPONSE	M2	2	07	G3	press
798.102	n/a	RESPONSE	M2	2	00	C3	release
798.134	n/a	RESPONSE	M2	2	17	F4	release
798.41	n/a	RESPONSE	M2	2	00	C3	press
798.42	n/a	RESPONSE	M2	2	17	F4	press
798.975	n/a	RESPONSE	M2	2	16	E4	press
800.684	n/a	RESPONSE	M2	2	14	D4	press
800.985	n/a	RESPONSE	M2	2	17	F4	release
801.017	n/a	RESPONSE	M2	2	16	E4	release
801.558	n/a	RESPONSE	M2	2	12	C4	press
802.339	n/a	RESPONSE	M2	2	14	D4	release
802.452	7.758	FIXCROSS	n/a	n/a	n/a	n/a	n/a
803.34	n/a	RESPONSE	M2	2	12	C4	release
803.914	n/a	RESPONSE	M2	2	00	C3	release
810.21	6.317	CUE_LISTEN	M3	1	n/a	n/a	n/a
816.527	7.758	FIXCROSS	n/a	n/a	n/a	n/a	n/a
824.285	6.325	CUE_PLAYBACK_RIGHT_HAND	M3	1	n/a	n/a	n/a
825.108	n/a	RESPONSE	M3	1	12	C4	press
825.699	n/a	RESPONSE	M3	1	14	D4	press
826.032	n/a	RESPONSE	M3	1	12	C4	release
826.283	n/a	RESPONSE	M3	1	16	E4	press
826.934	n/a	RESPONSE	M3	1	12	C4	press
827.253	n/a	RESPONSE	M3	1	16	E4	release
827.3	n/a	RESPONSE	M3	1	12	C4	release
827.689	n/a	RESPONSE	M3	1	12	C4	press
828.039	n/a	RESPONSE	M3	1	14	D4	release
828.232	n/a	RESPONSE	M3	1	14	D4	press
828.818	n/a	RESPONSE	M3	1	16	E4	press
829.069	n/a	RESPONSE	M3	1	12	C4	release
829.284	n/a	RESPONSE	M3	1	16	E4	release
829.394	n/a	RESPONSE	M3	1	12	C4	press
829.869	n/a	RESPONSE	M3	1	14	D4	release
829.88	n/a	RESPONSE	M3	1	12	C4	release
830.61	7.758	FIXCROSS	n/a	n/a	n/a	n/a	n/a
831.105	n/a	RESPONSE	M3	1	07	G3	release
838.369	6.317	CUE_LISTEN	M3	2	n/a	n/a	n/a
844.685	7.758	FIXCROSS	n/a	n/a	n/a	n/a	n/a
852.444	6.317	CUE_PLAYBACK_RIGHT_HAND	M3	2	n/a	n/a	n/a
853.452	n/a	RESPONSE	M3	2	19	G4	press
853.862	n/a	RESPONSE	M3	2	19	G4	release
854.134	n/a	RESPONSE	M3	2	19	G4	press
854.744	n/a	RESPONSE	M3	2	16	E4	press
854.925	n/a	RESPONSE	M3	2	19	G4	release
855.117	n/a	RESPONSE	M3	2	16	E4	release
855.679	n/a	RESPONSE	M3	2	12	C4	press
856.122	n/a	RESPONSE	M3	2	12	C4	release
856.57	n/a	RESPONSE	M3	2	12	C4	press
857.079	n/a	RESPONSE	M3	2	16	E4	press
857.347	n/a	RESPONSE	M3	2	12	C4	release
857.629	n/a	RESPONSE	M3	2	12	C4	press
858.552	n/a	RESPONSE	M3	2	16	E4	release
858.76	7.758	FIXCROSS	n/a	n/a	n/a	n/a	n/a
859.627	n/a	RESPONSE	M3	2	12	C4	release
859.772	n/a	RESPONSE	M3	2	12	C4	press
860.233	n/a	RESPONSE	M3	2	16	E4	press
860.324	n/a	RESPONSE	M3	2	12	C4	release
860.77	n/a	RESPONSE	M3	2	19	G4	press
861.422	n/a	RESPONSE	M3	2	16	E4	release
861.473	n/a	RESPONSE	M3	2	19	G4	release
866.519	6.325	CUE_LISTEN	M3	1	n/a	n/a	n/a
872.844	7.758	FIXCROSS	n/a	n/a	n/a	n/a	n/a
880.602	6.317	CUE_PLAYBACK_RIGHT_HAND	M3	1	n/a	n/a	n/a
881.294	n/a	RESPONSE	M3	1	17	F4	press
881.685	n/a	RESPONSE	M3	1	19	G4	press
881.838	n/a	RESPONSE	M3	1	17	F4	release
881.978	n/a	RESPONSE	M3	1	19	G4	release
884.92	n/a	RESPONSE	M3	1	17	F4	press
885.262	n/a	RESPONSE	M3	1	19	G4	press
885.463	n/a	RESPONSE	M3	1	17	F4	release
885.644	n/a	RESPONSE	M3	1	17	F4	press
885.748	n/a	RESPONSE	M3	1	19	G4	release
885.977	n/a	RESPONSE	M3	1	16	E4	press
886.148	n/a	RESPONSE	M3	1	17	F4	release
886.369	n/a	RESPONSE	M3	1	14	D4	press
886.828	n/a	RESPONSE	M3	1	16	E4	release
886.919	7.758	FIXCROSS	n/a	n/a	n/a	n/a	n/a
886.949	n/a	RESPONSE	M3	1	14	D4	release
887.564	n/a	RESPONSE	M3	1	17	F4	press
887.779	n/a	RESPONSE	M3	1	17	F4	release
888.595	n/a	RESPONSE	M3	1	16	E4	press
888.967	n/a	RESPONSE	M3	1	17	F4	press
889.173	n/a	RESPONSE	M3	1	16	E4	release
889.38	n/a	RESPONSE	M3	1	16	E4	press
889.54	n/a	RESPONSE	M3	1	17	F4	release
889.835	n/a	RESPONSE	M3	1	14	D4	press
890.144	n/a	RESPONSE	M3	1	16	E4	release
890.818	n/a	RESPONSE	M3	1	12	C4	press
891.037	n/a	RESPONSE	M3	1	14	D4	release
891.128	n/a	RESPONSE	M3	1	12	C4	release
894.677	6.317	CUE_LISTEN	M3	2	n/a	n/a	n/a
900.994	7.758	FIXCROSS	n/a	n/a	n/a	n/a	n/a
908.752	39.903	CUE_PLAYBACK_RIGHT_HAND	M3	2	n/a	n/a	n/a
909.89	n/a	RESPONSE	M3	2	12	C4	press
910.313	n/a	RESPONSE	M3	2	12	C4	release
910.787	n/a	RESPONSE	M3	2	02	D3	press
911.458	n/a	RESPONSE	M3	2	02	D3	release
911.569	n/a	RESPONSE	M3	2	12	C4	press
912.24	n/a	RESPONSE	M3	2	12	C4	release
912.534	n/a	RESPONSE	M3	2	12	C4	press
913.104	n/a	RESPONSE	M3	2	02	D3	press
913.154	n/a	RESPONSE	M3	2	12	C4	release
913.252	n/a	FIXCROSS	n/a	n/a	n/a	n/a	n/a
913.615	n/a	RESPONSE	M3	2	02	D3	release
913.677	n/a	RESPONSE	M3	2	12	C4	press
914.538	n/a	RESPONSE	M3	2	12	C4	release
