onset	duration	trial_type	trial_number	stroop_condition	stim_text(PL)	stim_text(eng)	stim_color(PL)	stim_color(eng)	response_type	response_color
0.0	n/a	RESPONSE	n/a	n/a	n/a	n/a	n/a	n/a	n/a	n/a
0.0265	1.0166	ITI	n/a	n/a	n/a	n/a	n/a	n/a	n/a	n/a
1.0431	0.5	FIXCROSS	n/a	n/a	n/a	n/a	n/a	n/a	n/a	n/a
1.5431	1.0333	T_INK	1	Neutral	xxxxxxxxx	xxxxxxxxx	zielony	green	hit	n/a
2.5582	n/a	RESPONSE	n/a	n/a	n/a	n/a	n/a	n/a	n/a	green
2.5764	0.5	FEEDBACK	n/a	n/a	n/a	n/a	n/a	n/a	n/a	n/a
3.0764	1.0	ITI	n/a	n/a	n/a	n/a	n/a	n/a	n/a	n/a
4.0764	0.5	FIXCROSS	n/a	n/a	n/a	n/a	n/a	n/a	n/a	n/a
4.5764	1.35	T_INK	2	Incongruent	czerwony	red	niebieski	blue	hit	n/a
5.9159	n/a	RESPONSE	n/a	n/a	n/a	n/a	n/a	n/a	n/a	blue
5.9264	0.4998	FEEDBACK	n/a	n/a	n/a	n/a	n/a	n/a	n/a	n/a
6.4262	1.0002	ITI	n/a	n/a	n/a	n/a	n/a	n/a	n/a	n/a
7.4263	0.5	FIXCROSS	n/a	n/a	n/a	n/a	n/a	n/a	n/a	n/a
7.9263	0.6833	T_INK	3	Neutral	xxxxxxx	xxxxxxx	niebieski	blue	hit	n/a
8.6022	n/a	RESPONSE	n/a	n/a	n/a	n/a	n/a	n/a	n/a	blue
8.6096	0.5	FEEDBACK	n/a	n/a	n/a	n/a	n/a	n/a	n/a	n/a
9.1096	1.0	ITI	n/a	n/a	n/a	n/a	n/a	n/a	n/a	n/a
10.1096	0.5	FIXCROSS	n/a	n/a	n/a	n/a	n/a	n/a	n/a	n/a
10.6096	0.6667	T_INK	4	Neutral	xxxxxxxx	xxxxxxxx	zielony	green	hit	n/a
11.2564	n/a	RESPONSE	n/a	n/a	n/a	n/a	n/a	n/a	n/a	green
11.2763	0.5	FEEDBACK	n/a	n/a	n/a	n/a	n/a	n/a	n/a	n/a
11.7763	1.0	ITI	n/a	n/a	n/a	n/a	n/a	n/a	n/a	n/a
12.7762	0.5	FIXCROSS	n/a	n/a	n/a	n/a	n/a	n/a	n/a	n/a
13.2762	1.2166	T_INK	5	Incongruent	czerwony	red	żółty	yellow	hit	n/a
14.4861	n/a	RESPONSE	n/a	n/a	n/a	n/a	n/a	n/a	n/a	yellow
14.4929	0.5	FEEDBACK	n/a	n/a	n/a	n/a	n/a	n/a	n/a	n/a
14.9929	1.0	ITI	n/a	n/a	n/a	n/a	n/a	n/a	n/a	n/a
15.9929	0.5	FIXCROSS	n/a	n/a	n/a	n/a	n/a	n/a	n/a	n/a
16.4928	0.7333	T_INK	6	Incongruent	niebieski	blue	żółty	yellow	hit	n/a
17.2204	n/a	RESPONSE	n/a	n/a	n/a	n/a	n/a	n/a	n/a	yellow
17.2262	0.5	FEEDBACK	n/a	n/a	n/a	n/a	n/a	n/a	n/a	n/a
17.7262	1.0	ITI	n/a	n/a	n/a	n/a	n/a	n/a	n/a	n/a
18.7261	0.5	FIXCROSS	n/a	n/a	n/a	n/a	n/a	n/a	n/a	n/a
19.2261	0.6333	T_INK	7	Neutral	xxxxxxx	xxxxxxx	czerwony	red	hit	n/a
19.8425	n/a	RESPONSE	n/a	n/a	n/a	n/a	n/a	n/a	n/a	red
19.8594	0.5	FEEDBACK	n/a	n/a	n/a	n/a	n/a	n/a	n/a	n/a
20.3594	1.0	ITI	n/a	n/a	n/a	n/a	n/a	n/a	n/a	n/a
21.3594	0.5	FIXCROSS	n/a	n/a	n/a	n/a	n/a	n/a	n/a	n/a
21.8594	0.75	T_INK	8	Incongruent	niebieski	blue	zielony	green	hit	n/a
22.5927	n/a	RESPONSE	n/a	n/a	n/a	n/a	n/a	n/a	n/a	green
22.6094	0.5	FEEDBACK	n/a	n/a	n/a	n/a	n/a	n/a	n/a	n/a
23.1094	1.0	ITI	n/a	n/a	n/a	n/a	n/a	n/a	n/a	n/a
24.1094	0.5	FIXCROSS	n/a	n/a	n/a	n/a	n/a	n/a	n/a	n/a
24.6094	0.85	T_INK	9	Incongruent	niebieski	blue	czerwony	red	hit	n/a
25.4388	n/a	RESPONSE	n/a	n/a	n/a	n/a	n/a	n/a	n/a	red
25.4593	0.5	FEEDBACK	n/a	n/a	n/a	n/a	n/a	n/a	n/a	n/a
25.9593	1.0	ITI	n/a	n/a	n/a	n/a	n/a	n/a	n/a	n/a
26.9593	0.5	FIXCROSS	n/a	n/a	n/a	n/a	n/a	n/a	n/a	n/a
27.4593	0.8	T_INK	10	Neutral	xxxxx	xxxxx	zielony	green	hit	n/a
28.2529	n/a	RESPONSE	n/a	n/a	n/a	n/a	n/a	n/a	n/a	green
28.2593	0.5	FEEDBACK	n/a	n/a	n/a	n/a	n/a	n/a	n/a	n/a
28.7593	1.0167	ITI	n/a	n/a	n/a	n/a	n/a	n/a	n/a	n/a
29.7759	0.5	FIXCROSS	n/a	n/a	n/a	n/a	n/a	n/a	n/a	n/a
30.2759	0.7666	T_INK	11	Incongruent	żółty	yellow	zielony	green	hit	n/a
31.035	n/a	RESPONSE	n/a	n/a	n/a	n/a	n/a	n/a	n/a	green
31.0426	0.5	FEEDBACK	n/a	n/a	n/a	n/a	n/a	n/a	n/a	n/a
31.5426	1.0	ITI	n/a	n/a	n/a	n/a	n/a	n/a	n/a	n/a
32.5426	0.5	FIXCROSS	n/a	n/a	n/a	n/a	n/a	n/a	n/a	n/a
33.0425	0.55	T_INK	12	Incongruent	czerwony	red	zielony	green	hit	n/a
33.5774	n/a	RESPONSE	n/a	n/a	n/a	n/a	n/a	n/a	n/a	green
33.5925	0.5	FEEDBACK	n/a	n/a	n/a	n/a	n/a	n/a	n/a	n/a
34.0925	1.0	ITI	n/a	n/a	n/a	n/a	n/a	n/a	n/a	n/a
42.5794	n/a	RESPONSE	n/a	n/a	n/a	n/a	n/a	n/a	n/a	n/a
42.609	1.0	ITI	n/a	n/a	n/a	n/a	n/a	n/a	n/a	n/a
43.609	0.5	FIXCROSS	n/a	n/a	n/a	n/a	n/a	n/a	n/a	n/a
44.109	0.85	INK	1	Neutral	xxxxxxxx	xxxxxxxx	żółty	yellow	hit	n/a
44.9457	n/a	RESPONSE	n/a	n/a	n/a	n/a	n/a	n/a	n/a	yellow
44.959	1.0	ITI	n/a	n/a	n/a	n/a	n/a	n/a	n/a	n/a
45.959	0.5	FIXCROSS	n/a	n/a	n/a	n/a	n/a	n/a	n/a	n/a
46.459	0.7833	INK	2	Incongruent	niebieski	blue	zielony	green	hit	n/a
47.2322	n/a	RESPONSE	n/a	n/a	n/a	n/a	n/a	n/a	n/a	green
47.2423	1.0	ITI	n/a	n/a	n/a	n/a	n/a	n/a	n/a	n/a
48.2423	0.5	FIXCROSS	n/a	n/a	n/a	n/a	n/a	n/a	n/a	n/a
48.7423	0.8833	INK	3	Neutral	xxxxxxx	xxxxxxx	czerwony	red	hit	n/a
49.6146	n/a	RESPONSE	n/a	n/a	n/a	n/a	n/a	n/a	n/a	red
49.6256	1.0	ITI	n/a	n/a	n/a	n/a	n/a	n/a	n/a	n/a
50.6256	0.5	FIXCROSS	n/a	n/a	n/a	n/a	n/a	n/a	n/a	n/a
51.1256	0.7167	INK	4	Neutral	xxxxxxxxx	xxxxxxxxx	żółty	yellow	hit	n/a
51.837	n/a	RESPONSE	n/a	n/a	n/a	n/a	n/a	n/a	n/a	yellow
51.8422	1.0	ITI	n/a	n/a	n/a	n/a	n/a	n/a	n/a	n/a
52.8422	0.5	FIXCROSS	n/a	n/a	n/a	n/a	n/a	n/a	n/a	n/a
53.3422	0.9166	INK	5	Incongruent	czerwony	red	niebieski	blue	hit	n/a
54.2515	n/a	RESPONSE	n/a	n/a	n/a	n/a	n/a	n/a	n/a	blue
54.2588	1.0	ITI	n/a	n/a	n/a	n/a	n/a	n/a	n/a	n/a
55.2588	0.5	FIXCROSS	n/a	n/a	n/a	n/a	n/a	n/a	n/a	n/a
55.7588	0.7167	INK	6	Incongruent	żółty	yellow	niebieski	blue	hit	n/a
56.458	n/a	RESPONSE	n/a	n/a	n/a	n/a	n/a	n/a	n/a	blue
56.4755	1.0	ITI	n/a	n/a	n/a	n/a	n/a	n/a	n/a	n/a
57.4755	0.5	FIXCROSS	n/a	n/a	n/a	n/a	n/a	n/a	n/a	n/a
57.9754	0.65	INK	7	Neutral	xxxxxxxxx	xxxxxxxxx	czerwony	red	hit	n/a
58.6166	n/a	RESPONSE	n/a	n/a	n/a	n/a	n/a	n/a	n/a	red
58.6254	1.0	ITI	n/a	n/a	n/a	n/a	n/a	n/a	n/a	n/a
59.6254	0.5	FIXCROSS	n/a	n/a	n/a	n/a	n/a	n/a	n/a	n/a
60.1254	0.7167	INK	8	Neutral	xxxxxxxxx	xxxxxxxxx	zielony	green	hit	n/a
60.8391	n/a	RESPONSE	n/a	n/a	n/a	n/a	n/a	n/a	n/a	green
60.8421	1.0	ITI	n/a	n/a	n/a	n/a	n/a	n/a	n/a	n/a
61.842	0.5	FIXCROSS	n/a	n/a	n/a	n/a	n/a	n/a	n/a	n/a
62.342	0.65	INK	9	Incongruent	żółty	yellow	zielony	green	hit	n/a
62.9817	n/a	RESPONSE	n/a	n/a	n/a	n/a	n/a	n/a	n/a	green
62.992	1.0	ITI	n/a	n/a	n/a	n/a	n/a	n/a	n/a	n/a
63.992	0.5	FIXCROSS	n/a	n/a	n/a	n/a	n/a	n/a	n/a	n/a
64.492	1.0333	INK	10	Incongruent	niebieski	blue	żółty	yellow	hit	n/a
65.508	n/a	RESPONSE	n/a	n/a	n/a	n/a	n/a	n/a	n/a	yellow
65.5253	1.0	ITI	n/a	n/a	n/a	n/a	n/a	n/a	n/a	n/a
66.5253	0.5	FIXCROSS	n/a	n/a	n/a	n/a	n/a	n/a	n/a	n/a
67.0253	0.9333	INK	11	Incongruent	zielony	green	czerwony	red	hit	n/a
67.9543	n/a	RESPONSE	n/a	n/a	n/a	n/a	n/a	n/a	n/a	red
67.9586	1.0	ITI	n/a	n/a	n/a	n/a	n/a	n/a	n/a	n/a
68.9586	0.5	FIXCROSS	n/a	n/a	n/a	n/a	n/a	n/a	n/a	n/a
69.4586	0.7167	INK	12	Incongruent	czerwony	red	niebieski	blue	hit	n/a
70.1609	n/a	RESPONSE	n/a	n/a	n/a	n/a	n/a	n/a	n/a	blue
70.1752	1.0	ITI	n/a	n/a	n/a	n/a	n/a	n/a	n/a	n/a
71.1752	0.5	FIXCROSS	n/a	n/a	n/a	n/a	n/a	n/a	n/a	n/a
71.6752	0.75	INK	13	Incongruent	czerwony	red	zielony	green	hit	n/a
72.4154	n/a	RESPONSE	n/a	n/a	n/a	n/a	n/a	n/a	n/a	green
72.4252	1.0	ITI	n/a	n/a	n/a	n/a	n/a	n/a	n/a	n/a
73.4252	0.5	FIXCROSS	n/a	n/a	n/a	n/a	n/a	n/a	n/a	n/a
73.9252	1.0667	INK	14	Incongruent	zielony	green	niebieski	blue	hit	n/a
74.9736	n/a	RESPONSE	n/a	n/a	n/a	n/a	n/a	n/a	n/a	blue
74.9918	1.0	ITI	n/a	n/a	n/a	n/a	n/a	n/a	n/a	n/a
75.9918	0.5	FIXCROSS	n/a	n/a	n/a	n/a	n/a	n/a	n/a	n/a
76.4918	0.7	INK	15	Neutral	xxxxx	xxxxx	czerwony	red	hit	n/a
77.1801	n/a	RESPONSE	n/a	n/a	n/a	n/a	n/a	n/a	n/a	red
77.1918	1.0	ITI	n/a	n/a	n/a	n/a	n/a	n/a	n/a	n/a
78.1918	0.5	FIXCROSS	n/a	n/a	n/a	n/a	n/a	n/a	n/a	n/a
78.6917	0.7167	INK	16	Neutral	xxxxxxxx	xxxxxxxx	żółty	yellow	hit	n/a
79.4028	n/a	RESPONSE	n/a	n/a	n/a	n/a	n/a	n/a	n/a	yellow
79.4084	1.0	ITI	n/a	n/a	n/a	n/a	n/a	n/a	n/a	n/a
80.4084	0.5	FIXCROSS	n/a	n/a	n/a	n/a	n/a	n/a	n/a	n/a
80.9084	0.6833	INK	17	Neutral	xxxxxxx	xxxxxxx	niebieski	blue	hit	n/a
81.5772	n/a	RESPONSE	n/a	n/a	n/a	n/a	n/a	n/a	n/a	blue
81.5917	1.0	ITI	n/a	n/a	n/a	n/a	n/a	n/a	n/a	n/a
82.5917	0.5	FIXCROSS	n/a	n/a	n/a	n/a	n/a	n/a	n/a	n/a
83.0917	0.8166	INK	18	Neutral	xxxxxxxx	xxxxxxxx	żółty	yellow	hit	n/a
83.8957	n/a	RESPONSE	n/a	n/a	n/a	n/a	n/a	n/a	n/a	yellow
83.9083	1.0	ITI	n/a	n/a	n/a	n/a	n/a	n/a	n/a	n/a
84.9083	0.5	FIXCROSS	n/a	n/a	n/a	n/a	n/a	n/a	n/a	n/a
85.4083	0.9333	INK	19	Incongruent	zielony	green	niebieski	blue	hit	n/a
86.3261	n/a	RESPONSE	n/a	n/a	n/a	n/a	n/a	n/a	n/a	blue
86.3416	1.0	ITI	n/a	n/a	n/a	n/a	n/a	n/a	n/a	n/a
87.3416	0.5	FIXCROSS	n/a	n/a	n/a	n/a	n/a	n/a	n/a	n/a
87.8416	0.55	INK	20	Neutral	xxxxxxxx	xxxxxxxx	niebieski	blue	hit	n/a
88.3727	n/a	RESPONSE	n/a	n/a	n/a	n/a	n/a	n/a	n/a	blue
88.3916	1.0	ITI	n/a	n/a	n/a	n/a	n/a	n/a	n/a	n/a
89.3916	0.5	FIXCROSS	n/a	n/a	n/a	n/a	n/a	n/a	n/a	n/a
89.8915	0.75	INK	21	Incongruent	zielony	green	czerwony	red	hit	n/a
90.6272	n/a	RESPONSE	n/a	n/a	n/a	n/a	n/a	n/a	n/a	red
90.6415	1.0	ITI	n/a	n/a	n/a	n/a	n/a	n/a	n/a	n/a
91.6415	0.5	FIXCROSS	n/a	n/a	n/a	n/a	n/a	n/a	n/a	n/a
92.1415	1.0	INK	22	Incongruent	żółty	yellow	czerwony	red	hit	n/a
93.1375	n/a	RESPONSE	n/a	n/a	n/a	n/a	n/a	n/a	n/a	red
93.1415	1.0	ITI	n/a	n/a	n/a	n/a	n/a	n/a	n/a	n/a
94.1415	0.5	FIXCROSS	n/a	n/a	n/a	n/a	n/a	n/a	n/a	n/a
94.6415	0.6833	INK	23	Neutral	xxxxx	xxxxx	niebieski	blue	hit	n/a
95.312	n/a	RESPONSE	n/a	n/a	n/a	n/a	n/a	n/a	n/a	blue
95.3248	1.0	ITI	n/a	n/a	n/a	n/a	n/a	n/a	n/a	n/a
96.3248	0.5	FIXCROSS	n/a	n/a	n/a	n/a	n/a	n/a	n/a	n/a
96.8248	0.65	INK	24	Incongruent	niebieski	blue	żółty	yellow	hit	n/a
97.4705	n/a	RESPONSE	n/a	n/a	n/a	n/a	n/a	n/a	n/a	yellow
97.4747	1.0	ITI	n/a	n/a	n/a	n/a	n/a	n/a	n/a	n/a
98.4747	0.5	FIXCROSS	n/a	n/a	n/a	n/a	n/a	n/a	n/a	n/a
98.9747	0.6833	INK	25	Incongruent	żółty	yellow	czerwony	red	hit	n/a
99.6452	n/a	RESPONSE	n/a	n/a	n/a	n/a	n/a	n/a	n/a	red
99.658	1.0	ITI	n/a	n/a	n/a	n/a	n/a	n/a	n/a	n/a
100.658	0.5	FIXCROSS	n/a	n/a	n/a	n/a	n/a	n/a	n/a	n/a
101.158	0.55	INK	26	Neutral	xxxxx	xxxxx	czerwony	red	hit	n/a
101.6918	n/a	RESPONSE	n/a	n/a	n/a	n/a	n/a	n/a	n/a	red
101.708	1.0	ITI	n/a	n/a	n/a	n/a	n/a	n/a	n/a	n/a
102.708	0.5	FIXCROSS	n/a	n/a	n/a	n/a	n/a	n/a	n/a	n/a
103.208	0.6	INK	27	Neutral	xxxxxxxxx	xxxxxxxxx	zielony	green	hit	n/a
103.8024	n/a	RESPONSE	n/a	n/a	n/a	n/a	n/a	n/a	n/a	green
103.808	1.0	ITI	n/a	n/a	n/a	n/a	n/a	n/a	n/a	n/a
104.808	0.5	FIXCROSS	n/a	n/a	n/a	n/a	n/a	n/a	n/a	n/a
105.3079	0.6333	INK	28	Neutral	xxxxxxxx	xxxxxxxx	niebieski	blue	hit	n/a
105.9289	n/a	RESPONSE	n/a	n/a	n/a	n/a	n/a	n/a	n/a	blue
105.9413	1.0	ITI	n/a	n/a	n/a	n/a	n/a	n/a	n/a	n/a
106.9412	0.5	FIXCROSS	n/a	n/a	n/a	n/a	n/a	n/a	n/a	n/a
107.4412	0.7667	INK	29	Incongruent	zielony	green	żółty	yellow	hit	n/a
108.1994	n/a	RESPONSE	n/a	n/a	n/a	n/a	n/a	n/a	n/a	yellow
108.2079	1.0	ITI	n/a	n/a	n/a	n/a	n/a	n/a	n/a	n/a
109.2079	0.5	FIXCROSS	n/a	n/a	n/a	n/a	n/a	n/a	n/a	n/a
109.7079	0.6166	INK	30	Neutral	xxxxx	xxxxx	zielony	green	hit	n/a
110.31	n/a	RESPONSE	n/a	n/a	n/a	n/a	n/a	n/a	n/a	green
110.3245	1.0	ITI	n/a	n/a	n/a	n/a	n/a	n/a	n/a	n/a
111.3245	0.5	FIXCROSS	n/a	n/a	n/a	n/a	n/a	n/a	n/a	n/a
111.8245	0.65	INK	31	Neutral	xxxxxxx	xxxxxxx	żółty	yellow	hit	n/a
112.4684	n/a	RESPONSE	n/a	n/a	n/a	n/a	n/a	n/a	n/a	yellow
112.4745	1.0	ITI	n/a	n/a	n/a	n/a	n/a	n/a	n/a	n/a
113.4745	0.5	FIXCROSS	n/a	n/a	n/a	n/a	n/a	n/a	n/a	n/a
113.9745	0.7	INK	32	Neutral	xxxxxxxxx	xxxxxxxxx	czerwony	red	hit	n/a
114.659	n/a	RESPONSE	n/a	n/a	n/a	n/a	n/a	n/a	n/a	red
114.6744	1.0	ITI	n/a	n/a	n/a	n/a	n/a	n/a	n/a	n/a
115.6744	0.5	FIXCROSS	n/a	n/a	n/a	n/a	n/a	n/a	n/a	n/a
116.1744	0.5167	INK	33	Neutral	xxxxxxxxx	xxxxxxxxx	żółty	yellow	hit	n/a
116.6737	n/a	RESPONSE	n/a	n/a	n/a	n/a	n/a	n/a	n/a	yellow
116.6911	1.0	ITI	n/a	n/a	n/a	n/a	n/a	n/a	n/a	n/a
117.6911	0.5	FIXCROSS	n/a	n/a	n/a	n/a	n/a	n/a	n/a	n/a
118.1911	0.5833	INK	34	Neutral	xxxxx	xxxxx	czerwony	red	hit	n/a
118.7682	n/a	RESPONSE	n/a	n/a	n/a	n/a	n/a	n/a	n/a	red
118.7744	1.0	ITI	n/a	n/a	n/a	n/a	n/a	n/a	n/a	n/a
119.7744	0.5	FIXCROSS	n/a	n/a	n/a	n/a	n/a	n/a	n/a	n/a
120.2743	0.4833	INK	35	Neutral	xxxxxxx	xxxxxxx	żółty	yellow	hit	n/a
120.7509	n/a	RESPONSE	n/a	n/a	n/a	n/a	n/a	n/a	n/a	yellow
120.7577	1.0	ITI	n/a	n/a	n/a	n/a	n/a	n/a	n/a	n/a
121.7576	0.5	FIXCROSS	n/a	n/a	n/a	n/a	n/a	n/a	n/a	n/a
122.2576	0.55	INK	36	Incongruent	czerwony	red	niebieski	blue	hit	n/a
122.7975	n/a	RESPONSE	n/a	n/a	n/a	n/a	n/a	n/a	n/a	blue
122.8076	1.0	ITI	n/a	n/a	n/a	n/a	n/a	n/a	n/a	n/a
123.8076	0.5	FIXCROSS	n/a	n/a	n/a	n/a	n/a	n/a	n/a	n/a
124.3076	0.6333	INK	37	Neutral	xxxxxxxx	xxxxxxxx	zielony	green	hit	n/a
124.9241	n/a	RESPONSE	n/a	n/a	n/a	n/a	n/a	n/a	n/a	green
124.9409	1.0	ITI	n/a	n/a	n/a	n/a	n/a	n/a	n/a	n/a
125.9409	0.5	FIXCROSS	n/a	n/a	n/a	n/a	n/a	n/a	n/a	n/a
126.4409	0.5833	INK	38	Incongruent	zielony	green	żółty	yellow	hit	n/a
127.0187	n/a	RESPONSE	n/a	n/a	n/a	n/a	n/a	n/a	n/a	yellow
127.0242	1.0	ITI	n/a	n/a	n/a	n/a	n/a	n/a	n/a	n/a
128.0242	0.5	FIXCROSS	n/a	n/a	n/a	n/a	n/a	n/a	n/a	n/a
128.5242	0.65	INK	39	Neutral	xxxxx	xxxxx	niebieski	blue	hit	n/a
129.1612	n/a	RESPONSE	n/a	n/a	n/a	n/a	n/a	n/a	n/a	blue
129.1742	1.0	ITI	n/a	n/a	n/a	n/a	n/a	n/a	n/a	n/a
130.1742	0.5	FIXCROSS	n/a	n/a	n/a	n/a	n/a	n/a	n/a	n/a
130.6742	0.6667	INK	40	Incongruent	niebieski	blue	zielony	green	hit	n/a
131.3358	n/a	RESPONSE	n/a	n/a	n/a	n/a	n/a	n/a	n/a	green
131.3408	1.0	ITI	n/a	n/a	n/a	n/a	n/a	n/a	n/a	n/a
132.3408	0.5	FIXCROSS	n/a	n/a	n/a	n/a	n/a	n/a	n/a	n/a
132.8408	0.5833	INK	41	Incongruent	żółty	yellow	zielony	green	hit	n/a
133.4144	n/a	RESPONSE	n/a	n/a	n/a	n/a	n/a	n/a	n/a	green
133.4241	1.0	ITI	n/a	n/a	n/a	n/a	n/a	n/a	n/a	n/a
134.4241	0.5	FIXCROSS	n/a	n/a	n/a	n/a	n/a	n/a	n/a	n/a
134.9241	0.6667	INK	42	Incongruent	zielony	green	niebieski	blue	hit	n/a
135.5729	n/a	RESPONSE	n/a	n/a	n/a	n/a	n/a	n/a	n/a	blue
135.5907	1.0	ITI	n/a	n/a	n/a	n/a	n/a	n/a	n/a	n/a
136.5907	0.5	FIXCROSS	n/a	n/a	n/a	n/a	n/a	n/a	n/a	n/a
137.0907	0.6166	INK	43	Incongruent	żółty	yellow	niebieski	blue	hit	n/a
137.6995	n/a	RESPONSE	n/a	n/a	n/a	n/a	n/a	n/a	n/a	blue
137.7074	1.0	ITI	n/a	n/a	n/a	n/a	n/a	n/a	n/a	n/a
138.7074	0.5	FIXCROSS	n/a	n/a	n/a	n/a	n/a	n/a	n/a	n/a
139.2073	0.5333	INK	44	Incongruent	zielony	green	żółty	yellow	hit	n/a
139.7301	n/a	RESPONSE	n/a	n/a	n/a	n/a	n/a	n/a	n/a	yellow
139.7407	1.0	ITI	n/a	n/a	n/a	n/a	n/a	n/a	n/a	n/a
140.7406	0.5	FIXCROSS	n/a	n/a	n/a	n/a	n/a	n/a	n/a	n/a
141.2406	0.75	INK	45	Incongruent	niebieski	blue	czerwony	red	hit	n/a
141.9847	n/a	RESPONSE	n/a	n/a	n/a	n/a	n/a	n/a	n/a	red
141.9906	1.0	ITI	n/a	n/a	n/a	n/a	n/a	n/a	n/a	n/a
142.9906	0.5	FIXCROSS	n/a	n/a	n/a	n/a	n/a	n/a	n/a	n/a
143.4906	0.6667	INK	46	Incongruent	niebieski	blue	zielony	green	hit	n/a
144.1432	n/a	RESPONSE	n/a	n/a	n/a	n/a	n/a	n/a	n/a	green
144.1573	1.0	ITI	n/a	n/a	n/a	n/a	n/a	n/a	n/a	n/a
145.1572	0.5	FIXCROSS	n/a	n/a	n/a	n/a	n/a	n/a	n/a	n/a
145.6572	0.7667	INK	47	Neutral	xxxxxxx	xxxxxxx	niebieski	blue	hit	n/a
146.4137	n/a	RESPONSE	n/a	n/a	n/a	n/a	n/a	n/a	n/a	blue
146.4239	1.0	ITI	n/a	n/a	n/a	n/a	n/a	n/a	n/a	n/a
147.4239	0.5	FIXCROSS	n/a	n/a	n/a	n/a	n/a	n/a	n/a	n/a
147.9239	0.6833	INK	48	Neutral	xxxxx	xxxxx	zielony	green	hit	n/a
148.5882	n/a	RESPONSE	n/a	n/a	n/a	n/a	n/a	n/a	n/a	green
148.6072	1.0	ITI	n/a	n/a	n/a	n/a	n/a	n/a	n/a	n/a
149.6072	0.5	FIXCROSS	n/a	n/a	n/a	n/a	n/a	n/a	n/a	n/a
150.1071	0.5	INK	49	Neutral	xxxxxxxx	xxxxxxxx	zielony	green	hit	n/a
150.6029	n/a	RESPONSE	n/a	n/a	n/a	n/a	n/a	n/a	n/a	green
150.6071	1.0	ITI	n/a	n/a	n/a	n/a	n/a	n/a	n/a	n/a
151.6071	0.5	FIXCROSS	n/a	n/a	n/a	n/a	n/a	n/a	n/a	n/a
152.1071	0.5167	INK	50	Incongruent	czerwony	red	zielony	green	hit	n/a
152.6175	n/a	RESPONSE	n/a	n/a	n/a	n/a	n/a	n/a	n/a	green
152.6238	1.0	ITI	n/a	n/a	n/a	n/a	n/a	n/a	n/a	n/a
153.6238	0.5	FIXCROSS	n/a	n/a	n/a	n/a	n/a	n/a	n/a	n/a
154.1238	0.5	INK	51	Neutral	xxxxxxxxx	xxxxxxxxx	żółty	yellow	hit	n/a
154.6162	n/a	RESPONSE	n/a	n/a	n/a	n/a	n/a	n/a	n/a	yellow
154.6237	1.0	ITI	n/a	n/a	n/a	n/a	n/a	n/a	n/a	n/a
155.6237	0.5	FIXCROSS	n/a	n/a	n/a	n/a	n/a	n/a	n/a	n/a
156.1237	0.7	INK	52	Incongruent	niebieski	blue	żółty	yellow	hit	n/a
156.8066	n/a	RESPONSE	n/a	n/a	n/a	n/a	n/a	n/a	n/a	yellow
156.8237	1.0	ITI	n/a	n/a	n/a	n/a	n/a	n/a	n/a	n/a
157.8237	0.5	FIXCROSS	n/a	n/a	n/a	n/a	n/a	n/a	n/a	n/a
158.3237	0.9166	INK	53	Incongruent	niebieski	blue	czerwony	red	hit	n/a
159.2211	n/a	RESPONSE	n/a	n/a	n/a	n/a	n/a	n/a	n/a	red
159.2403	1.0	ITI	n/a	n/a	n/a	n/a	n/a	n/a	n/a	n/a
160.2403	0.5	FIXCROSS	n/a	n/a	n/a	n/a	n/a	n/a	n/a	n/a
160.7403	0.6167	INK	54	Incongruent	żółty	yellow	zielony	green	hit	n/a
161.3476	n/a	RESPONSE	n/a	n/a	n/a	n/a	n/a	n/a	n/a	green
161.357	1.0	ITI	n/a	n/a	n/a	n/a	n/a	n/a	n/a	n/a
162.3569	0.5	FIXCROSS	n/a	n/a	n/a	n/a	n/a	n/a	n/a	n/a
162.8569	0.6333	INK	55	Incongruent	czerwony	red	żółty	yellow	hit	n/a
163.4742	n/a	RESPONSE	n/a	n/a	n/a	n/a	n/a	n/a	n/a	yellow
163.4902	1.0	ITI	n/a	n/a	n/a	n/a	n/a	n/a	n/a	n/a
164.4902	0.5	FIXCROSS	n/a	n/a	n/a	n/a	n/a	n/a	n/a	n/a
164.9902	0.5167	INK	56	Neutral	xxxxx	xxxxx	niebieski	blue	hit	n/a
165.4889	n/a	RESPONSE	n/a	n/a	n/a	n/a	n/a	n/a	n/a	blue
165.5069	1.0	ITI	n/a	n/a	n/a	n/a	n/a	n/a	n/a	n/a
166.5069	0.5	FIXCROSS	n/a	n/a	n/a	n/a	n/a	n/a	n/a	n/a
167.0069	0.6166	INK	57	Incongruent	żółty	yellow	niebieski	blue	hit	n/a
167.6154	n/a	RESPONSE	n/a	n/a	n/a	n/a	n/a	n/a	n/a	blue
167.6235	1.0	ITI	n/a	n/a	n/a	n/a	n/a	n/a	n/a	n/a
168.6235	0.5	FIXCROSS	n/a	n/a	n/a	n/a	n/a	n/a	n/a	n/a
169.1235	0.6167	INK	58	Neutral	xxxxx	xxxxx	zielony	green	hit	n/a
169.7261	n/a	RESPONSE	n/a	n/a	n/a	n/a	n/a	n/a	n/a	green
169.7401	1.0	ITI	n/a	n/a	n/a	n/a	n/a	n/a	n/a	n/a
170.7401	0.5	FIXCROSS	n/a	n/a	n/a	n/a	n/a	n/a	n/a	n/a
171.2401	0.6167	INK	59	Neutral	xxxxxxxxx	xxxxxxxxx	zielony	green	hit	n/a
171.8527	n/a	RESPONSE	n/a	n/a	n/a	n/a	n/a	n/a	n/a	green
171.8568	1.0	ITI	n/a	n/a	n/a	n/a	n/a	n/a	n/a	n/a
172.8567	0.5	FIXCROSS	n/a	n/a	n/a	n/a	n/a	n/a	n/a	n/a
173.3567	0.85	INK	60	Neutral	xxxxxxxx	xxxxxxxx	niebieski	blue	hit	n/a
174.2031	n/a	RESPONSE	n/a	n/a	n/a	n/a	n/a	n/a	n/a	blue
174.2067	1.0	ITI	n/a	n/a	n/a	n/a	n/a	n/a	n/a	n/a
175.2067	0.5	FIXCROSS	n/a	n/a	n/a	n/a	n/a	n/a	n/a	n/a
175.7067	0.7167	INK	61	Neutral	xxxxxxxx	xxxxxxxx	zielony	green	hit	n/a
176.4095	n/a	RESPONSE	n/a	n/a	n/a	n/a	n/a	n/a	n/a	green
176.4233	1.0	ITI	n/a	n/a	n/a	n/a	n/a	n/a	n/a	n/a
177.4233	0.5	FIXCROSS	n/a	n/a	n/a	n/a	n/a	n/a	n/a	n/a
177.9233	0.6667	INK	62	Incongruent	zielony	green	czerwony	red	hit	n/a
178.584	n/a	RESPONSE	n/a	n/a	n/a	n/a	n/a	n/a	n/a	red
178.59	1.0	ITI	n/a	n/a	n/a	n/a	n/a	n/a	n/a	n/a
179.59	0.5	FIXCROSS	n/a	n/a	n/a	n/a	n/a	n/a	n/a	n/a
180.09	0.5333	INK	63	Incongruent	niebieski	blue	czerwony	red	hit	n/a
180.6147	n/a	RESPONSE	n/a	n/a	n/a	n/a	n/a	n/a	n/a	red
180.6233	1.0	ITI	n/a	n/a	n/a	n/a	n/a	n/a	n/a	n/a
181.6233	0.5	FIXCROSS	n/a	n/a	n/a	n/a	n/a	n/a	n/a	n/a
182.1233	0.4333	INK	64	Neutral	xxxxxxx	xxxxxxx	czerwony	red	hit	n/a
182.5495	n/a	RESPONSE	n/a	n/a	n/a	n/a	n/a	n/a	n/a	red
182.5566	1.0	ITI	n/a	n/a	n/a	n/a	n/a	n/a	n/a	n/a
183.5566	0.5	FIXCROSS	n/a	n/a	n/a	n/a	n/a	n/a	n/a	n/a
184.0566	0.55	INK	65	Incongruent	czerwony	red	żółty	yellow	hit	n/a
184.5961	n/a	RESPONSE	n/a	n/a	n/a	n/a	n/a	n/a	n/a	yellow
184.6065	1.0	ITI	n/a	n/a	n/a	n/a	n/a	n/a	n/a	n/a
185.6065	0.5	FIXCROSS	n/a	n/a	n/a	n/a	n/a	n/a	n/a	n/a
186.1065	0.5	INK	66	Incongruent	czerwony	red	zielony	green	hit	n/a
186.5947	n/a	RESPONSE	n/a	n/a	n/a	n/a	n/a	n/a	n/a	green
186.6065	1.0	ITI	n/a	n/a	n/a	n/a	n/a	n/a	n/a	n/a
187.6065	0.5	FIXCROSS	n/a	n/a	n/a	n/a	n/a	n/a	n/a	n/a
188.1065	0.4333	INK	67	Neutral	xxxxxxxxx	xxxxxxxxx	czerwony	red	hit	n/a
188.5294	n/a	RESPONSE	n/a	n/a	n/a	n/a	n/a	n/a	n/a	red
188.5398	1.0	ITI	n/a	n/a	n/a	n/a	n/a	n/a	n/a	n/a
189.5398	0.5	FIXCROSS	n/a	n/a	n/a	n/a	n/a	n/a	n/a	n/a
190.0398	0.5667	INK	68	Incongruent	czerwony	red	żółty	yellow	hit	n/a
190.5921	n/a	RESPONSE	n/a	n/a	n/a	n/a	n/a	n/a	n/a	yellow
190.6064	1.0	ITI	n/a	n/a	n/a	n/a	n/a	n/a	n/a	n/a
191.6064	0.5	FIXCROSS	n/a	n/a	n/a	n/a	n/a	n/a	n/a	n/a
192.1064	0.55	INK	69	Neutral	xxxxxxx	xxxxxxx	niebieski	blue	hit	n/a
192.6387	n/a	RESPONSE	n/a	n/a	n/a	n/a	n/a	n/a	n/a	blue
192.6564	1.0	ITI	n/a	n/a	n/a	n/a	n/a	n/a	n/a	n/a
193.6564	0.5	FIXCROSS	n/a	n/a	n/a	n/a	n/a	n/a	n/a	n/a
194.1564	0.5	INK	70	Neutral	xxxxxxx	xxxxxxx	żółty	yellow	hit	n/a
194.6534	n/a	RESPONSE	n/a	n/a	n/a	n/a	n/a	n/a	n/a	yellow
194.6564	1.0	ITI	n/a	n/a	n/a	n/a	n/a	n/a	n/a	n/a
195.6563	0.5	FIXCROSS	n/a	n/a	n/a	n/a	n/a	n/a	n/a	n/a
196.1563	0.5667	INK	71	Incongruent	żółty	yellow	czerwony	red	hit	n/a
196.716	n/a	RESPONSE	n/a	n/a	n/a	n/a	n/a	n/a	n/a	red
196.723	1.0	ITI	n/a	n/a	n/a	n/a	n/a	n/a	n/a	n/a
197.723	0.5	FIXCROSS	n/a	n/a	n/a	n/a	n/a	n/a	n/a	n/a
198.223	0.4667	INK	72	Neutral	xxxxxxx	xxxxxxx	czerwony	red	hit	n/a
198.6828	n/a	RESPONSE	n/a	n/a	n/a	n/a	n/a	n/a	n/a	red
198.6896	1.0333	ITI	n/a	n/a	n/a	n/a	n/a	n/a	n/a	n/a
208.3084	n/a	RESPONSE	n/a	n/a	n/a	n/a	n/a	n/a	n/a	n/a
208.3395	1.0	ITI	n/a	n/a	n/a	n/a	n/a	n/a	n/a	n/a
209.3394	0.5	FIXCROSS	n/a	n/a	n/a	n/a	n/a	n/a	n/a	n/a
209.8394	1.5166	T_COLOR_NAME	1	Incongruent	niebieski	blue	czerwony	red	hit	n/a
211.3463	n/a	RESPONSE	n/a	n/a	n/a	n/a	n/a	n/a	n/a	blue
211.3561	0.5	FEEDBACK	n/a	n/a	n/a	n/a	n/a	n/a	n/a	n/a
211.8561	1.0	ITI	n/a	n/a	n/a	n/a	n/a	n/a	n/a	n/a
212.856	0.5	FIXCROSS	n/a	n/a	n/a	n/a	n/a	n/a	n/a	n/a
213.356	0.6833	T_COLOR_NAME	2	Neutral	czerwony	red	Neutral	Neutral	hit	n/a
214.0324	n/a	RESPONSE	n/a	n/a	n/a	n/a	n/a	n/a	n/a	red
214.0394	0.5	FEEDBACK	n/a	n/a	n/a	n/a	n/a	n/a	n/a	n/a
214.5393	1.0	ITI	n/a	n/a	n/a	n/a	n/a	n/a	n/a	n/a
215.5393	0.5	FIXCROSS	n/a	n/a	n/a	n/a	n/a	n/a	n/a	n/a
216.0393	0.6833	T_COLOR_NAME	3	Neutral	zielony	green	Neutral	Neutral	hit	n/a
216.7187	n/a	RESPONSE	n/a	n/a	n/a	n/a	n/a	n/a	n/a	green
216.7226	0.5	FEEDBACK	n/a	n/a	n/a	n/a	n/a	n/a	n/a	n/a
217.2226	1.0	ITI	n/a	n/a	n/a	n/a	n/a	n/a	n/a	n/a
218.2226	0.5	FIXCROSS	n/a	n/a	n/a	n/a	n/a	n/a	n/a	n/a
218.7226	0.65	T_COLOR_NAME	4	Incongruent	żółty	yellow	zielony	green	hit	n/a
219.3569	n/a	RESPONSE	n/a	n/a	n/a	n/a	n/a	n/a	n/a	yellow
219.3726	0.5	FEEDBACK	n/a	n/a	n/a	n/a	n/a	n/a	n/a	n/a
219.8726	1.0	ITI	n/a	n/a	n/a	n/a	n/a	n/a	n/a	n/a
220.8726	0.5	FIXCROSS	n/a	n/a	n/a	n/a	n/a	n/a	n/a	n/a
221.3726	0.5667	T_COLOR_NAME	5	Incongruent	niebieski	blue	żółty	yellow	hit	n/a
221.9313	n/a	RESPONSE	n/a	n/a	n/a	n/a	n/a	n/a	n/a	blue
221.9392	0.5	FEEDBACK	n/a	n/a	n/a	n/a	n/a	n/a	n/a	n/a
222.4392	1.0	ITI	n/a	n/a	n/a	n/a	n/a	n/a	n/a	n/a
223.4392	0.5	FIXCROSS	n/a	n/a	n/a	n/a	n/a	n/a	n/a	n/a
223.9392	0.5667	T_COLOR_NAME	6	Incongruent	czerwony	red	zielony	green	hit	n/a
224.4895	n/a	RESPONSE	n/a	n/a	n/a	n/a	n/a	n/a	n/a	red
224.5058	0.5	FEEDBACK	n/a	n/a	n/a	n/a	n/a	n/a	n/a	n/a
225.0058	1.0	ITI	n/a	n/a	n/a	n/a	n/a	n/a	n/a	n/a
226.0058	0.5	FIXCROSS	n/a	n/a	n/a	n/a	n/a	n/a	n/a	n/a
226.5058	0.3333	T_COLOR_NAME	7	Neutral	zielony	green	Neutral	Neutral	incorrect	n/a
226.824	n/a	RESPONSE	n/a	n/a	n/a	n/a	n/a	n/a	n/a	yellow
226.8391	0.5	FEEDBACK	n/a	n/a	n/a	n/a	n/a	n/a	n/a	n/a
227.3391	1.0	ITI	n/a	n/a	n/a	n/a	n/a	n/a	n/a	n/a
228.3391	0.5	FIXCROSS	n/a	n/a	n/a	n/a	n/a	n/a	n/a	n/a
228.8391	0.65	T_COLOR_NAME	8	Incongruent	czerwony	red	żółty	yellow	hit	n/a
229.4781	n/a	RESPONSE	n/a	n/a	n/a	n/a	n/a	n/a	n/a	red
229.4891	0.5	FEEDBACK	n/a	n/a	n/a	n/a	n/a	n/a	n/a	n/a
229.9891	1.0	ITI	n/a	n/a	n/a	n/a	n/a	n/a	n/a	n/a
230.9891	0.5	FIXCROSS	n/a	n/a	n/a	n/a	n/a	n/a	n/a	n/a
231.489	0.7167	T_COLOR_NAME	9	Incongruent	czerwony	red	niebieski	blue	hit	n/a
232.1961	n/a	RESPONSE	n/a	n/a	n/a	n/a	n/a	n/a	n/a	red
232.2057	0.5	FEEDBACK	n/a	n/a	n/a	n/a	n/a	n/a	n/a	n/a
232.7057	1.0	ITI	n/a	n/a	n/a	n/a	n/a	n/a	n/a	n/a
233.7057	0.5	FIXCROSS	n/a	n/a	n/a	n/a	n/a	n/a	n/a	n/a
234.2057	0.8333	T_COLOR_NAME	10	Neutral	żółty	yellow	Neutral	Neutral	hit	n/a
235.0262	n/a	RESPONSE	n/a	n/a	n/a	n/a	n/a	n/a	n/a	yellow
235.039	0.5	FEEDBACK	n/a	n/a	n/a	n/a	n/a	n/a	n/a	n/a
235.539	1.0	ITI	n/a	n/a	n/a	n/a	n/a	n/a	n/a	n/a
236.539	0.5	FIXCROSS	n/a	n/a	n/a	n/a	n/a	n/a	n/a	n/a
237.039	0.95	T_COLOR_NAME	11	Neutral	niebieski	blue	Neutral	Neutral	hit	n/a
237.9841	n/a	RESPONSE	n/a	n/a	n/a	n/a	n/a	n/a	n/a	blue
237.9889	0.5	FEEDBACK	n/a	n/a	n/a	n/a	n/a	n/a	n/a	n/a
238.4889	1.0	ITI	n/a	n/a	n/a	n/a	n/a	n/a	n/a	n/a
239.4889	0.5	FIXCROSS	n/a	n/a	n/a	n/a	n/a	n/a	n/a	n/a
239.9889	0.8	T_COLOR_NAME	12	Incongruent	niebieski	blue	zielony	green	hit	n/a
240.7823	n/a	RESPONSE	n/a	n/a	n/a	n/a	n/a	n/a	n/a	blue
240.7889	0.5	FEEDBACK	n/a	n/a	n/a	n/a	n/a	n/a	n/a	n/a
241.2889	1.0	ITI	n/a	n/a	n/a	n/a	n/a	n/a	n/a	n/a
244.4599	n/a	RESPONSE	n/a	n/a	n/a	n/a	n/a	n/a	n/a	n/a
244.4888	1.0	ITI	n/a	n/a	n/a	n/a	n/a	n/a	n/a	n/a
245.4888	0.5	FIXCROSS	n/a	n/a	n/a	n/a	n/a	n/a	n/a	n/a
245.9888	0.7167	COLOR_NAME	1	Neutral	czerwony	red	Neutral	Neutral	hit	n/a
246.6983	n/a	RESPONSE	n/a	n/a	n/a	n/a	n/a	n/a	n/a	red
246.7054	1.0	ITI	n/a	n/a	n/a	n/a	n/a	n/a	n/a	n/a
247.7054	0.5	FIXCROSS	n/a	n/a	n/a	n/a	n/a	n/a	n/a	n/a
248.2054	0.7667	COLOR_NAME	2	Incongruent	niebieski	blue	czerwony	red	hit	n/a
248.9687	n/a	RESPONSE	n/a	n/a	n/a	n/a	n/a	n/a	n/a	blue
248.9721	1.0	ITI	n/a	n/a	n/a	n/a	n/a	n/a	n/a	n/a
249.9721	0.5	FIXCROSS	n/a	n/a	n/a	n/a	n/a	n/a	n/a	n/a
250.472	0.6	COLOR_NAME	3	Neutral	niebieski	blue	Neutral	Neutral	hit	n/a
251.0633	n/a	RESPONSE	n/a	n/a	n/a	n/a	n/a	n/a	n/a	blue
251.072	1.0	ITI	n/a	n/a	n/a	n/a	n/a	n/a	n/a	n/a
252.072	0.5	FIXCROSS	n/a	n/a	n/a	n/a	n/a	n/a	n/a	n/a
252.572	0.6	COLOR_NAME	4	Neutral	żółty	yellow	Neutral	Neutral	hit	n/a
253.158	n/a	RESPONSE	n/a	n/a	n/a	n/a	n/a	n/a	n/a	yellow
253.172	1.0	ITI	n/a	n/a	n/a	n/a	n/a	n/a	n/a	n/a
254.172	0.5	FIXCROSS	n/a	n/a	n/a	n/a	n/a	n/a	n/a	n/a
254.672	0.6167	COLOR_NAME	5	Neutral	niebieski	blue	Neutral	Neutral	hit	n/a
255.2841	n/a	RESPONSE	n/a	n/a	n/a	n/a	n/a	n/a	n/a	blue
255.2886	1.0	ITI	n/a	n/a	n/a	n/a	n/a	n/a	n/a	n/a
256.2886	0.5	FIXCROSS	n/a	n/a	n/a	n/a	n/a	n/a	n/a	n/a
256.7886	0.5333	COLOR_NAME	6	Neutral	czerwony	red	Neutral	Neutral	hit	n/a
257.3148	n/a	RESPONSE	n/a	n/a	n/a	n/a	n/a	n/a	n/a	red
257.3219	1.0	ITI	n/a	n/a	n/a	n/a	n/a	n/a	n/a	n/a
258.3219	0.5	FIXCROSS	n/a	n/a	n/a	n/a	n/a	n/a	n/a	n/a
258.8219	0.65	COLOR_NAME	7	Incongruent	czerwony	red	niebieski	blue	hit	n/a
259.4573	n/a	RESPONSE	n/a	n/a	n/a	n/a	n/a	n/a	n/a	red
259.4719	1.0	ITI	n/a	n/a	n/a	n/a	n/a	n/a	n/a	n/a
260.4719	0.5	FIXCROSS	n/a	n/a	n/a	n/a	n/a	n/a	n/a	n/a
260.9718	0.75	COLOR_NAME	8	Incongruent	zielony	green	czerwony	red	hit	n/a
261.7117	n/a	RESPONSE	n/a	n/a	n/a	n/a	n/a	n/a	n/a	green
261.7218	1.0	ITI	n/a	n/a	n/a	n/a	n/a	n/a	n/a	n/a
262.7218	0.4999	FIXCROSS	n/a	n/a	n/a	n/a	n/a	n/a	n/a	n/a
263.2218	0.5834	COLOR_NAME	9	Incongruent	żółty	yellow	niebieski	blue	hit	n/a
263.7904	n/a	RESPONSE	n/a	n/a	n/a	n/a	n/a	n/a	n/a	yellow
263.8051	1.0	ITI	n/a	n/a	n/a	n/a	n/a	n/a	n/a	n/a
264.8051	0.5	FIXCROSS	n/a	n/a	n/a	n/a	n/a	n/a	n/a	n/a
265.3051	0.5833	COLOR_NAME	10	Incongruent	żółty	yellow	czerwony	red	hit	n/a
265.885	n/a	RESPONSE	n/a	n/a	n/a	n/a	n/a	n/a	n/a	yellow
265.8884	1.0	ITI	n/a	n/a	n/a	n/a	n/a	n/a	n/a	n/a
266.8884	0.5	FIXCROSS	n/a	n/a	n/a	n/a	n/a	n/a	n/a	n/a
267.3884	0.4667	COLOR_NAME	11	Neutral	czerwony	red	Neutral	Neutral	hit	n/a
267.8517	n/a	RESPONSE	n/a	n/a	n/a	n/a	n/a	n/a	n/a	red
267.8551	1.0	ITI	n/a	n/a	n/a	n/a	n/a	n/a	n/a	n/a
268.855	0.5	FIXCROSS	n/a	n/a	n/a	n/a	n/a	n/a	n/a	n/a
269.355	0.45	COLOR_NAME	12	Neutral	zielony	green	Neutral	Neutral	hit	n/a
269.7863	n/a	RESPONSE	n/a	n/a	n/a	n/a	n/a	n/a	n/a	green
269.805	1.0	ITI	n/a	n/a	n/a	n/a	n/a	n/a	n/a	n/a
270.805	0.5	FIXCROSS	n/a	n/a	n/a	n/a	n/a	n/a	n/a	n/a
271.305	0.4167	COLOR_NAME	13	Neutral	zielony	green	Neutral	Neutral	hit	n/a
271.7051	n/a	RESPONSE	n/a	n/a	n/a	n/a	n/a	n/a	n/a	green
271.7217	1.0	ITI	n/a	n/a	n/a	n/a	n/a	n/a	n/a	n/a
272.7216	0.5	FIXCROSS	n/a	n/a	n/a	n/a	n/a	n/a	n/a	n/a
273.2216	0.5333	COLOR_NAME	14	Incongruent	niebieski	blue	czerwony	red	hit	n/a
273.7517	n/a	RESPONSE	n/a	n/a	n/a	n/a	n/a	n/a	n/a	blue
273.755	1.0	ITI	n/a	n/a	n/a	n/a	n/a	n/a	n/a	n/a
274.755	0.5	FIXCROSS	n/a	n/a	n/a	n/a	n/a	n/a	n/a	n/a
275.2549	0.6333	COLOR_NAME	15	Neutral	czerwony	red	Neutral	Neutral	hit	n/a
275.8783	n/a	RESPONSE	n/a	n/a	n/a	n/a	n/a	n/a	n/a	red
275.8883	1.0	ITI	n/a	n/a	n/a	n/a	n/a	n/a	n/a	n/a
276.8882	0.5	FIXCROSS	n/a	n/a	n/a	n/a	n/a	n/a	n/a	n/a
277.3882	0.5167	COLOR_NAME	16	Neutral	czerwony	red	Neutral	Neutral	hit	n/a
277.8929	n/a	RESPONSE	n/a	n/a	n/a	n/a	n/a	n/a	n/a	red
277.9049	1.0	ITI	n/a	n/a	n/a	n/a	n/a	n/a	n/a	n/a
278.9049	0.5	FIXCROSS	n/a	n/a	n/a	n/a	n/a	n/a	n/a	n/a
279.4049	0.5167	COLOR_NAME	17	Incongruent	czerwony	red	zielony	green	hit	n/a
279.9077	n/a	RESPONSE	n/a	n/a	n/a	n/a	n/a	n/a	n/a	red
279.9215	1.0	ITI	n/a	n/a	n/a	n/a	n/a	n/a	n/a	n/a
280.9215	0.5	FIXCROSS	n/a	n/a	n/a	n/a	n/a	n/a	n/a	n/a
281.4215	1.1166	COLOR_NAME	18	Neutral	niebieski	blue	Neutral	Neutral	hit	n/a
282.5299	n/a	RESPONSE	n/a	n/a	n/a	n/a	n/a	n/a	n/a	blue
282.5381	1.0	ITI	n/a	n/a	n/a	n/a	n/a	n/a	n/a	n/a
283.5381	0.4998	FIXCROSS	n/a	n/a	n/a	n/a	n/a	n/a	n/a	n/a
284.0379	0.6002	COLOR_NAME	19	Neutral	żółty	yellow	Neutral	Neutral	hit	n/a
284.6245	n/a	RESPONSE	n/a	n/a	n/a	n/a	n/a	n/a	n/a	yellow
284.6381	1.0	ITI	n/a	n/a	n/a	n/a	n/a	n/a	n/a	n/a
285.6381	0.5	FIXCROSS	n/a	n/a	n/a	n/a	n/a	n/a	n/a	n/a
286.1381	0.5833	COLOR_NAME	20	Neutral	zielony	green	Neutral	Neutral	hit	n/a
286.7031	n/a	RESPONSE	n/a	n/a	n/a	n/a	n/a	n/a	n/a	green
286.7214	1.0	ITI	n/a	n/a	n/a	n/a	n/a	n/a	n/a	n/a
287.7214	0.5	FIXCROSS	n/a	n/a	n/a	n/a	n/a	n/a	n/a	n/a
288.2214	0.5167	COLOR_NAME	21	Neutral	czerwony	red	Neutral	Neutral	hit	n/a
288.7337	n/a	RESPONSE	n/a	n/a	n/a	n/a	n/a	n/a	n/a	red
288.738	1.0	ITI	n/a	n/a	n/a	n/a	n/a	n/a	n/a	n/a
289.738	0.5	FIXCROSS	n/a	n/a	n/a	n/a	n/a	n/a	n/a	n/a
290.238	0.5667	COLOR_NAME	22	Neutral	żółty	yellow	Neutral	Neutral	hit	n/a
290.7963	n/a	RESPONSE	n/a	n/a	n/a	n/a	n/a	n/a	n/a	yellow
290.8047	1.0	ITI	n/a	n/a	n/a	n/a	n/a	n/a	n/a	n/a
291.8046	0.5	FIXCROSS	n/a	n/a	n/a	n/a	n/a	n/a	n/a	n/a
292.3046	0.4667	COLOR_NAME	23	Neutral	żółty	yellow	Neutral	Neutral	hit	n/a
292.7631	n/a	RESPONSE	n/a	n/a	n/a	n/a	n/a	n/a	n/a	yellow
292.7713	1.0	ITI	n/a	n/a	n/a	n/a	n/a	n/a	n/a	n/a
293.7713	0.5	FIXCROSS	n/a	n/a	n/a	n/a	n/a	n/a	n/a	n/a
294.2713	0.5	COLOR_NAME	24	Neutral	niebieski	blue	Neutral	Neutral	hit	n/a
294.7618	n/a	RESPONSE	n/a	n/a	n/a	n/a	n/a	n/a	n/a	blue
294.7713	1.0	ITI	n/a	n/a	n/a	n/a	n/a	n/a	n/a	n/a
295.7712	0.5	FIXCROSS	n/a	n/a	n/a	n/a	n/a	n/a	n/a	n/a
296.2712	0.5	COLOR_NAME	25	Neutral	niebieski	blue	Neutral	Neutral	hit	n/a
296.7603	n/a	RESPONSE	n/a	n/a	n/a	n/a	n/a	n/a	n/a	blue
296.7712	1.0	ITI	n/a	n/a	n/a	n/a	n/a	n/a	n/a	n/a
297.7712	0.5	FIXCROSS	n/a	n/a	n/a	n/a	n/a	n/a	n/a	n/a
298.2712	0.7667	COLOR_NAME	26	Neutral	żółty	yellow	Neutral	Neutral	hit	n/a
299.0308	n/a	RESPONSE	n/a	n/a	n/a	n/a	n/a	n/a	n/a	yellow
299.0379	1.0	ITI	n/a	n/a	n/a	n/a	n/a	n/a	n/a	n/a
300.0378	0.5	FIXCROSS	n/a	n/a	n/a	n/a	n/a	n/a	n/a	n/a
300.5378	0.5833	COLOR_NAME	27	Incongruent	czerwony	red	zielony	green	hit	n/a
301.1094	n/a	RESPONSE	n/a	n/a	n/a	n/a	n/a	n/a	n/a	red
301.1211	1.0	ITI	n/a	n/a	n/a	n/a	n/a	n/a	n/a	n/a
302.1211	0.5	FIXCROSS	n/a	n/a	n/a	n/a	n/a	n/a	n/a	n/a
302.6211	0.9833	COLOR_NAME	28	Neutral	zielony	green	Neutral	Neutral	hit	n/a
303.5878	n/a	RESPONSE	n/a	n/a	n/a	n/a	n/a	n/a	n/a	green
303.6044	1.0	ITI	n/a	n/a	n/a	n/a	n/a	n/a	n/a	n/a
304.6044	0.5	FIXCROSS	n/a	n/a	n/a	n/a	n/a	n/a	n/a	n/a
305.1044	0.45	COLOR_NAME	29	Neutral	niebieski	blue	Neutral	Neutral	hit	n/a
305.5385	n/a	RESPONSE	n/a	n/a	n/a	n/a	n/a	n/a	n/a	blue
305.5544	1.0	ITI	n/a	n/a	n/a	n/a	n/a	n/a	n/a	n/a
306.5544	0.5	FIXCROSS	n/a	n/a	n/a	n/a	n/a	n/a	n/a	n/a
307.0544	0.5833	COLOR_NAME	30	Incongruent	zielony	green	niebieski	blue	hit	n/a
307.6331	n/a	RESPONSE	n/a	n/a	n/a	n/a	n/a	n/a	n/a	green
307.6377	1.0	ITI	n/a	n/a	n/a	n/a	n/a	n/a	n/a	n/a
308.6377	0.5	FIXCROSS	n/a	n/a	n/a	n/a	n/a	n/a	n/a	n/a
309.1377	0.6833	COLOR_NAME	31	Incongruent	niebieski	blue	zielony	green	hit	n/a
309.8077	n/a	RESPONSE	n/a	n/a	n/a	n/a	n/a	n/a	n/a	blue
309.821	1.0	ITI	n/a	n/a	n/a	n/a	n/a	n/a	n/a	n/a
310.821	0.5	FIXCROSS	n/a	n/a	n/a	n/a	n/a	n/a	n/a	n/a
311.321	0.5667	COLOR_NAME	32	Incongruent	niebieski	blue	zielony	green	hit	n/a
311.8702	n/a	RESPONSE	n/a	n/a	n/a	n/a	n/a	n/a	n/a	blue
311.8876	1.0	ITI	n/a	n/a	n/a	n/a	n/a	n/a	n/a	n/a
312.8876	0.5	FIXCROSS	n/a	n/a	n/a	n/a	n/a	n/a	n/a	n/a
313.3876	1.15	COLOR_NAME	33	Incongruent	czerwony	red	żółty	yellow	hit	n/a
314.5245	n/a	RESPONSE	n/a	n/a	n/a	n/a	n/a	n/a	n/a	red
314.5376	1.0	ITI	n/a	n/a	n/a	n/a	n/a	n/a	n/a	n/a
315.5376	0.5	FIXCROSS	n/a	n/a	n/a	n/a	n/a	n/a	n/a	n/a
316.0375	0.5167	COLOR_NAME	34	Incongruent	żółty	yellow	niebieski	blue	hit	n/a
316.5392	n/a	RESPONSE	n/a	n/a	n/a	n/a	n/a	n/a	n/a	yellow
316.5542	1.0	ITI	n/a	n/a	n/a	n/a	n/a	n/a	n/a	n/a
317.5542	0.5	FIXCROSS	n/a	n/a	n/a	n/a	n/a	n/a	n/a	n/a
318.0542	0.6833	COLOR_NAME	35	Incongruent	czerwony	red	zielony	green	hit	n/a
318.7296	n/a	RESPONSE	n/a	n/a	n/a	n/a	n/a	n/a	n/a	red
318.7375	1.0	ITI	n/a	n/a	n/a	n/a	n/a	n/a	n/a	n/a
319.7375	0.5	FIXCROSS	n/a	n/a	n/a	n/a	n/a	n/a	n/a	n/a
320.2375	0.5167	COLOR_NAME	36	Incongruent	niebieski	blue	żółty	yellow	hit	n/a
320.7443	n/a	RESPONSE	n/a	n/a	n/a	n/a	n/a	n/a	n/a	blue
320.7541	1.0	ITI	n/a	n/a	n/a	n/a	n/a	n/a	n/a	n/a
321.7541	0.5	FIXCROSS	n/a	n/a	n/a	n/a	n/a	n/a	n/a	n/a
322.2541	0.7	COLOR_NAME	37	Incongruent	żółty	yellow	niebieski	blue	hit	n/a
322.9348	n/a	RESPONSE	n/a	n/a	n/a	n/a	n/a	n/a	n/a	yellow
322.9541	1.0	ITI	n/a	n/a	n/a	n/a	n/a	n/a	n/a	n/a
323.9541	0.5	FIXCROSS	n/a	n/a	n/a	n/a	n/a	n/a	n/a	n/a
324.4541	0.5333	COLOR_NAME	38	Neutral	żółty	yellow	Neutral	Neutral	hit	n/a
324.9815	n/a	RESPONSE	n/a	n/a	n/a	n/a	n/a	n/a	n/a	yellow
324.9874	1.0	ITI	n/a	n/a	n/a	n/a	n/a	n/a	n/a	n/a
325.9874	0.5	FIXCROSS	n/a	n/a	n/a	n/a	n/a	n/a	n/a	n/a
326.4874	0.8333	COLOR_NAME	39	Incongruent	niebieski	blue	zielony	green	hit	n/a
327.3159	n/a	RESPONSE	n/a	n/a	n/a	n/a	n/a	n/a	n/a	blue
327.3207	1.0	ITI	n/a	n/a	n/a	n/a	n/a	n/a	n/a	n/a
328.3207	0.5	FIXCROSS	n/a	n/a	n/a	n/a	n/a	n/a	n/a	n/a
328.8207	1.0666	COLOR_NAME	40	Incongruent	zielony	green	żółty	yellow	hit	n/a
329.8742	n/a	RESPONSE	n/a	n/a	n/a	n/a	n/a	n/a	n/a	green
329.8873	1.0	ITI	n/a	n/a	n/a	n/a	n/a	n/a	n/a	n/a
330.8873	0.5	FIXCROSS	n/a	n/a	n/a	n/a	n/a	n/a	n/a	n/a
331.3873	0.95	COLOR_NAME	41	Incongruent	czerwony	red	niebieski	blue	hit	n/a
332.3206	n/a	RESPONSE	n/a	n/a	n/a	n/a	n/a	n/a	n/a	red
332.3373	1.0	ITI	n/a	n/a	n/a	n/a	n/a	n/a	n/a	n/a
333.3372	0.5	FIXCROSS	n/a	n/a	n/a	n/a	n/a	n/a	n/a	n/a
333.8372	1.5333	COLOR_NAME	42	Neutral	zielony	green	Neutral	Neutral	hit	n/a
335.3585	n/a	RESPONSE	n/a	n/a	n/a	n/a	n/a	n/a	n/a	green
335.3705	1.0	ITI	n/a	n/a	n/a	n/a	n/a	n/a	n/a	n/a
336.3705	0.5	FIXCROSS	n/a	n/a	n/a	n/a	n/a	n/a	n/a	n/a
336.8705	0.95	COLOR_NAME	43	Incongruent	zielony	green	niebieski	blue	hit	n/a
337.8048	n/a	RESPONSE	n/a	n/a	n/a	n/a	n/a	n/a	n/a	green
337.8205	1.0	ITI	n/a	n/a	n/a	n/a	n/a	n/a	n/a	n/a
338.8205	0.5	FIXCROSS	n/a	n/a	n/a	n/a	n/a	n/a	n/a	n/a
339.3205	0.5167	COLOR_NAME	44	Neutral	niebieski	blue	Neutral	Neutral	hit	n/a
339.8196	n/a	RESPONSE	n/a	n/a	n/a	n/a	n/a	n/a	n/a	blue
339.8371	1.0	ITI	n/a	n/a	n/a	n/a	n/a	n/a	n/a	n/a
340.8371	0.5	FIXCROSS	n/a	n/a	n/a	n/a	n/a	n/a	n/a	n/a
341.3371	0.4667	COLOR_NAME	45	Neutral	niebieski	blue	Neutral	Neutral	hit	n/a
341.7861	n/a	RESPONSE	n/a	n/a	n/a	n/a	n/a	n/a	n/a	blue
341.8038	1.0	ITI	n/a	n/a	n/a	n/a	n/a	n/a	n/a	n/a
342.8037	0.5	FIXCROSS	n/a	n/a	n/a	n/a	n/a	n/a	n/a	n/a
343.3037	0.45	COLOR_NAME	46	Neutral	żółty	yellow	Neutral	Neutral	hit	n/a
343.7369	n/a	RESPONSE	n/a	n/a	n/a	n/a	n/a	n/a	n/a	yellow
343.7537	1.0	ITI	n/a	n/a	n/a	n/a	n/a	n/a	n/a	n/a
344.7537	0.5	FIXCROSS	n/a	n/a	n/a	n/a	n/a	n/a	n/a	n/a
345.2537	0.9333	COLOR_NAME	47	Neutral	niebieski	blue	Neutral	Neutral	hit	n/a
346.1833	n/a	RESPONSE	n/a	n/a	n/a	n/a	n/a	n/a	n/a	blue
346.187	1.0	ITI	n/a	n/a	n/a	n/a	n/a	n/a	n/a	n/a
347.187	0.5	FIXCROSS	n/a	n/a	n/a	n/a	n/a	n/a	n/a	n/a
347.687	0.85	COLOR_NAME	48	Incongruent	czerwony	red	żółty	yellow	hit	n/a
348.5336	n/a	RESPONSE	n/a	n/a	n/a	n/a	n/a	n/a	n/a	red
348.537	1.0	ITI	n/a	n/a	n/a	n/a	n/a	n/a	n/a	n/a
349.537	0.5	FIXCROSS	n/a	n/a	n/a	n/a	n/a	n/a	n/a	n/a
350.0369	0.8667	COLOR_NAME	49	Incongruent	zielony	green	żółty	yellow	incorrect	n/a
350.9	n/a	RESPONSE	n/a	n/a	n/a	n/a	n/a	n/a	n/a	blue
350.9036	1.0	ITI	n/a	n/a	n/a	n/a	n/a	n/a	n/a	n/a
351.9036	0.5	FIXCROSS	n/a	n/a	n/a	n/a	n/a	n/a	n/a	n/a
352.4036	0.6333	COLOR_NAME	50	Neutral	czerwony	red	Neutral	Neutral	hit	n/a
353.0266	n/a	RESPONSE	n/a	n/a	n/a	n/a	n/a	n/a	n/a	red
353.0369	1.0	ITI	n/a	n/a	n/a	n/a	n/a	n/a	n/a	n/a
354.0369	0.5	FIXCROSS	n/a	n/a	n/a	n/a	n/a	n/a	n/a	n/a
354.5369	1.1666	COLOR_NAME	51	Incongruent	zielony	green	żółty	yellow	hit	n/a
355.6968	n/a	RESPONSE	n/a	n/a	n/a	n/a	n/a	n/a	n/a	green
355.7035	1.0	ITI	n/a	n/a	n/a	n/a	n/a	n/a	n/a	n/a
356.7035	0.5	FIXCROSS	n/a	n/a	n/a	n/a	n/a	n/a	n/a	n/a
357.2035	0.55	COLOR_NAME	52	Neutral	żółty	yellow	Neutral	Neutral	hit	n/a
357.7434	n/a	RESPONSE	n/a	n/a	n/a	n/a	n/a	n/a	n/a	yellow
357.7535	1.0	ITI	n/a	n/a	n/a	n/a	n/a	n/a	n/a	n/a
358.7535	0.5	FIXCROSS	n/a	n/a	n/a	n/a	n/a	n/a	n/a	n/a
359.2534	0.55	COLOR_NAME	53	Incongruent	żółty	yellow	zielony	green	hit	n/a
359.79	n/a	RESPONSE	n/a	n/a	n/a	n/a	n/a	n/a	n/a	yellow
359.8034	1.0	ITI	n/a	n/a	n/a	n/a	n/a	n/a	n/a	n/a
360.8034	0.5	FIXCROSS	n/a	n/a	n/a	n/a	n/a	n/a	n/a	n/a
361.3034	1.4	COLOR_NAME	54	Neutral	zielony	green	Neutral	Neutral	hit	n/a
362.6841	n/a	RESPONSE	n/a	n/a	n/a	n/a	n/a	n/a	n/a	green
362.7034	1.0	ITI	n/a	n/a	n/a	n/a	n/a	n/a	n/a	n/a
363.7034	0.5	FIXCROSS	n/a	n/a	n/a	n/a	n/a	n/a	n/a	n/a
364.2034	0.55	COLOR_NAME	55	Incongruent	zielony	green	czerwony	red	hit	n/a
364.7468	n/a	RESPONSE	n/a	n/a	n/a	n/a	n/a	n/a	n/a	green
364.7533	1.0	ITI	n/a	n/a	n/a	n/a	n/a	n/a	n/a	n/a
365.7533	0.5	FIXCROSS	n/a	n/a	n/a	n/a	n/a	n/a	n/a	n/a
366.2533	0.3833	COLOR_NAME	56	Incongruent	zielony	green	niebieski	blue	hit	n/a
366.6175	n/a	RESPONSE	n/a	n/a	n/a	n/a	n/a	n/a	n/a	green
366.6367	1.0	ITI	n/a	n/a	n/a	n/a	n/a	n/a	n/a	n/a
367.6366	0.5	FIXCROSS	n/a	n/a	n/a	n/a	n/a	n/a	n/a	n/a
368.1366	0.6333	COLOR_NAME	57	Incongruent	żółty	yellow	zielony	green	hit	n/a
368.76	n/a	RESPONSE	n/a	n/a	n/a	n/a	n/a	n/a	n/a	yellow
368.7699	1.0	ITI	n/a	n/a	n/a	n/a	n/a	n/a	n/a	n/a
369.7699	0.5	FIXCROSS	n/a	n/a	n/a	n/a	n/a	n/a	n/a	n/a
370.2699	0.6667	COLOR_NAME	58	Neutral	czerwony	red	Neutral	Neutral	hit	n/a
370.9186	n/a	RESPONSE	n/a	n/a	n/a	n/a	n/a	n/a	n/a	red
370.9366	1.0	ITI	n/a	n/a	n/a	n/a	n/a	n/a	n/a	n/a
371.9366	0.5	FIXCROSS	n/a	n/a	n/a	n/a	n/a	n/a	n/a	n/a
372.4366	0.4667	COLOR_NAME	59	Neutral	czerwony	red	Neutral	Neutral	hit	n/a
372.8853	n/a	RESPONSE	n/a	n/a	n/a	n/a	n/a	n/a	n/a	red
372.9032	1.0	ITI	n/a	n/a	n/a	n/a	n/a	n/a	n/a	n/a
373.9032	0.5	FIXCROSS	n/a	n/a	n/a	n/a	n/a	n/a	n/a	n/a
374.4032	0.8167	COLOR_NAME	60	Incongruent	zielony	green	czerwony	red	hit	n/a
375.2037	n/a	RESPONSE	n/a	n/a	n/a	n/a	n/a	n/a	n/a	green
375.2198	1.0	ITI	n/a	n/a	n/a	n/a	n/a	n/a	n/a	n/a
376.2198	0.5	FIXCROSS	n/a	n/a	n/a	n/a	n/a	n/a	n/a	n/a
376.7198	0.9833	COLOR_NAME	61	Incongruent	czerwony	red	niebieski	blue	hit	n/a
377.698	n/a	RESPONSE	n/a	n/a	n/a	n/a	n/a	n/a	n/a	red
377.7031	1.0	ITI	n/a	n/a	n/a	n/a	n/a	n/a	n/a	n/a
378.7031	0.5	FIXCROSS	n/a	n/a	n/a	n/a	n/a	n/a	n/a	n/a
379.2031	0.4833	COLOR_NAME	62	Incongruent	czerwony	red	żółty	yellow	hit	n/a
379.6807	n/a	RESPONSE	n/a	n/a	n/a	n/a	n/a	n/a	n/a	red
379.6864	1.0	ITI	n/a	n/a	n/a	n/a	n/a	n/a	n/a	n/a
380.6864	0.5	FIXCROSS	n/a	n/a	n/a	n/a	n/a	n/a	n/a	n/a
381.1864	0.4833	COLOR_NAME	63	Incongruent	niebieski	blue	żółty	yellow	hit	n/a
381.6633	n/a	RESPONSE	n/a	n/a	n/a	n/a	n/a	n/a	n/a	blue
381.6697	1.0	ITI	n/a	n/a	n/a	n/a	n/a	n/a	n/a	n/a
382.6697	0.5	FIXCROSS	n/a	n/a	n/a	n/a	n/a	n/a	n/a	n/a
383.1697	1.1833	COLOR_NAME	64	Incongruent	niebieski	blue	żółty	yellow	hit	n/a
384.3495	n/a	RESPONSE	n/a	n/a	n/a	n/a	n/a	n/a	n/a	blue
384.353	1.0	ITI	n/a	n/a	n/a	n/a	n/a	n/a	n/a	n/a
385.353	0.5	FIXCROSS	n/a	n/a	n/a	n/a	n/a	n/a	n/a	n/a
385.853	0.7166	COLOR_NAME	65	Neutral	zielony	green	Neutral	Neutral	hit	n/a
386.556	n/a	RESPONSE	n/a	n/a	n/a	n/a	n/a	n/a	n/a	green
386.5696	1.0	ITI	n/a	n/a	n/a	n/a	n/a	n/a	n/a	n/a
387.5696	0.5	FIXCROSS	n/a	n/a	n/a	n/a	n/a	n/a	n/a	n/a
388.0696	0.4	COLOR_NAME	66	Neutral	zielony	green	Neutral	Neutral	hit	n/a
388.4587	n/a	RESPONSE	n/a	n/a	n/a	n/a	n/a	n/a	n/a	green
388.4696	1.0	ITI	n/a	n/a	n/a	n/a	n/a	n/a	n/a	n/a
389.4696	0.5	FIXCROSS	n/a	n/a	n/a	n/a	n/a	n/a	n/a	n/a
389.9696	0.4	COLOR_NAME	67	Neutral	zielony	green	Neutral	Neutral	hit	n/a
390.3615	n/a	RESPONSE	n/a	n/a	n/a	n/a	n/a	n/a	n/a	green
390.3696	1.0	ITI	n/a	n/a	n/a	n/a	n/a	n/a	n/a	n/a
391.3695	0.5	FIXCROSS	n/a	n/a	n/a	n/a	n/a	n/a	n/a	n/a
391.8695	0.6	COLOR_NAME	68	Incongruent	żółty	yellow	zielony	green	hit	n/a
392.4561	n/a	RESPONSE	n/a	n/a	n/a	n/a	n/a	n/a	n/a	yellow
392.4695	1.0	ITI	n/a	n/a	n/a	n/a	n/a	n/a	n/a	n/a
393.4695	0.5	FIXCROSS	n/a	n/a	n/a	n/a	n/a	n/a	n/a	n/a
393.9695	0.5167	COLOR_NAME	69	Incongruent	żółty	yellow	czerwony	red	hit	n/a
394.4707	n/a	RESPONSE	n/a	n/a	n/a	n/a	n/a	n/a	n/a	yellow
394.4862	1.0	ITI	n/a	n/a	n/a	n/a	n/a	n/a	n/a	n/a
395.4861	0.5	FIXCROSS	n/a	n/a	n/a	n/a	n/a	n/a	n/a	n/a
395.9861	0.6	COLOR_NAME	70	Incongruent	niebieski	blue	czerwony	red	hit	n/a
396.5813	n/a	RESPONSE	n/a	n/a	n/a	n/a	n/a	n/a	n/a	blue
396.5861	1.0	ITI	n/a	n/a	n/a	n/a	n/a	n/a	n/a	n/a
397.5861	0.5	FIXCROSS	n/a	n/a	n/a	n/a	n/a	n/a	n/a	n/a
398.0861	0.55	COLOR_NAME	71	Incongruent	żółty	yellow	czerwony	red	hit	n/a
398.6279	n/a	RESPONSE	n/a	n/a	n/a	n/a	n/a	n/a	n/a	yellow
398.6361	1.0	ITI	n/a	n/a	n/a	n/a	n/a	n/a	n/a	n/a
399.6361	0.5	FIXCROSS	n/a	n/a	n/a	n/a	n/a	n/a	n/a	n/a
400.1361	0.4167	COLOR_NAME	72	Neutral	żółty	yellow	Neutral	Neutral	hit	n/a
400.5466	n/a	RESPONSE	n/a	n/a	n/a	n/a	n/a	n/a	n/a	yellow
400.5527	1.0	ITI	n/a	n/a	n/a	n/a	n/a	n/a	n/a	n/a
405.7272	n/a	RESPONSE	n/a	n/a	n/a	n/a	n/a	n/a	n/a	n/a
