onset	duration	trial_type	trial_number	stroop_condition	stim_text(PL)	stim_text(eng)	stim_color(PL)	stim_color(eng)	response_type	response_color
0.0	n/a	RESPONSE	n/a	n/a	n/a	n/a	n/a	n/a	n/a	n/a
0.0704	1.0334	ITI	n/a	n/a	n/a	n/a	n/a	n/a	n/a	n/a
1.1038	0.5167	FIXCROSS	n/a	n/a	n/a	n/a	n/a	n/a	n/a	n/a
1.6205	1.5667	T_INK	1	Neutral	xxxxx	xxxxx	zielony	green	hit	n/a
3.1514	n/a	RESPONSE	n/a	n/a	n/a	n/a	n/a	n/a	n/a	green
3.1872	0.5167	FEEDBACK	n/a	n/a	n/a	n/a	n/a	n/a	n/a	n/a
3.7038	1.0167	ITI	n/a	n/a	n/a	n/a	n/a	n/a	n/a	n/a
4.7205	0.5167	FIXCROSS	n/a	n/a	n/a	n/a	n/a	n/a	n/a	n/a
5.2372	1.8167	T_INK	2	Incongruent	zielony	green	niebieski	blue	hit	n/a
7.0225	n/a	RESPONSE	n/a	n/a	n/a	n/a	n/a	n/a	n/a	blue
7.0539	0.5167	FEEDBACK	n/a	n/a	n/a	n/a	n/a	n/a	n/a	n/a
7.5706	1.0167	ITI	n/a	n/a	n/a	n/a	n/a	n/a	n/a	n/a
8.5872	0.5167	FIXCROSS	n/a	n/a	n/a	n/a	n/a	n/a	n/a	n/a
9.1039	1.1	T_INK	3	Incongruent	zielony	green	żółty	yellow	hit	n/a
10.1738	n/a	RESPONSE	n/a	n/a	n/a	n/a	n/a	n/a	n/a	yellow
10.2039	0.5167	FEEDBACK	n/a	n/a	n/a	n/a	n/a	n/a	n/a	n/a
10.7206	1.0167	ITI	n/a	n/a	n/a	n/a	n/a	n/a	n/a	n/a
11.7373	0.5167	FIXCROSS	n/a	n/a	n/a	n/a	n/a	n/a	n/a	n/a
12.254	0.8333	T_INK	4	Incongruent	czerwony	red	żółty	yellow	hit	n/a
13.0532	n/a	RESPONSE	n/a	n/a	n/a	n/a	n/a	n/a	n/a	yellow
13.0873	0.5167	FEEDBACK	n/a	n/a	n/a	n/a	n/a	n/a	n/a	n/a
13.604	1.0167	ITI	n/a	n/a	n/a	n/a	n/a	n/a	n/a	n/a
14.6207	0.5167	FIXCROSS	n/a	n/a	n/a	n/a	n/a	n/a	n/a	n/a
15.1373	0.85	T_INK	5	Neutral	xxxxxxx	xxxxxxx	żółty	yellow	hit	n/a
15.9646	n/a	RESPONSE	n/a	n/a	n/a	n/a	n/a	n/a	n/a	yellow
15.9873	0.5167	FEEDBACK	n/a	n/a	n/a	n/a	n/a	n/a	n/a	n/a
16.504	1.0167	ITI	n/a	n/a	n/a	n/a	n/a	n/a	n/a	n/a
17.5207	0.5167	FIXCROSS	n/a	n/a	n/a	n/a	n/a	n/a	n/a	n/a
18.0374	0.85	T_INK	6	Neutral	xxxxxxxxx	xxxxxxxxx	czerwony	red	hit	n/a
18.8599	n/a	RESPONSE	n/a	n/a	n/a	n/a	n/a	n/a	n/a	red
18.8874	0.5167	FEEDBACK	n/a	n/a	n/a	n/a	n/a	n/a	n/a	n/a
19.4041	1.0167	ITI	n/a	n/a	n/a	n/a	n/a	n/a	n/a	n/a
20.4207	0.5167	FIXCROSS	n/a	n/a	n/a	n/a	n/a	n/a	n/a	n/a
20.9374	0.9167	T_INK	7	Incongruent	czerwony	red	niebieski	blue	hit	n/a
21.8352	n/a	RESPONSE	n/a	n/a	n/a	n/a	n/a	n/a	n/a	blue
21.8541	0.5167	FEEDBACK	n/a	n/a	n/a	n/a	n/a	n/a	n/a	n/a
22.3708	1.0167	ITI	n/a	n/a	n/a	n/a	n/a	n/a	n/a	n/a
23.3875	0.5167	FIXCROSS	n/a	n/a	n/a	n/a	n/a	n/a	n/a	n/a
23.9041	0.7834	T_INK	8	Incongruent	czerwony	red	zielony	green	hit	n/a
24.6665	n/a	RESPONSE	n/a	n/a	n/a	n/a	n/a	n/a	n/a	green
24.6875	0.5167	FEEDBACK	n/a	n/a	n/a	n/a	n/a	n/a	n/a	n/a
25.2041	1.0167	ITI	n/a	n/a	n/a	n/a	n/a	n/a	n/a	n/a
26.2208	0.5167	FIXCROSS	n/a	n/a	n/a	n/a	n/a	n/a	n/a	n/a
26.7375	0.7333	T_INK	9	Incongruent	zielony	green	czerwony	red	hit	n/a
27.4498	n/a	RESPONSE	n/a	n/a	n/a	n/a	n/a	n/a	n/a	red
27.4708	0.5167	FEEDBACK	n/a	n/a	n/a	n/a	n/a	n/a	n/a	n/a
27.9875	1.0167	ITI	n/a	n/a	n/a	n/a	n/a	n/a	n/a	n/a
29.0042	0.5167	FIXCROSS	n/a	n/a	n/a	n/a	n/a	n/a	n/a	n/a
29.5209	0.8667	T_INK	10	Incongruent	niebieski	blue	zielony	green	hit	n/a
30.3613	n/a	RESPONSE	n/a	n/a	n/a	n/a	n/a	n/a	n/a	green
30.3876	0.5167	FEEDBACK	n/a	n/a	n/a	n/a	n/a	n/a	n/a	n/a
30.9042	1.0167	ITI	n/a	n/a	n/a	n/a	n/a	n/a	n/a	n/a
31.9209	0.5167	FIXCROSS	n/a	n/a	n/a	n/a	n/a	n/a	n/a	n/a
32.4376	0.6167	T_INK	11	Neutral	xxxxxxx	xxxxxxx	niebieski	blue	hit	n/a
33.0327	n/a	RESPONSE	n/a	n/a	n/a	n/a	n/a	n/a	n/a	blue
33.0543	0.5167	FEEDBACK	n/a	n/a	n/a	n/a	n/a	n/a	n/a	n/a
33.5709	1.0167	ITI	n/a	n/a	n/a	n/a	n/a	n/a	n/a	n/a
34.5876	0.5167	FIXCROSS	n/a	n/a	n/a	n/a	n/a	n/a	n/a	n/a
35.1043	0.6334	T_INK	12	Neutral	xxxxxxx	xxxxxxx	czerwony	red	hit	n/a
35.7042	n/a	RESPONSE	n/a	n/a	n/a	n/a	n/a	n/a	n/a	red
35.7376	0.5167	FEEDBACK	n/a	n/a	n/a	n/a	n/a	n/a	n/a	n/a
36.2543	1.0333	ITI	n/a	n/a	n/a	n/a	n/a	n/a	n/a	n/a
40.1194	n/a	RESPONSE	n/a	n/a	n/a	n/a	n/a	n/a	n/a	n/a
40.171	1.0167	ITI	n/a	n/a	n/a	n/a	n/a	n/a	n/a	n/a
41.1877	0.5167	FIXCROSS	n/a	n/a	n/a	n/a	n/a	n/a	n/a	n/a
41.7044	0.75	INK	1	Neutral	xxxxxxx	xxxxxxx	żółty	yellow	hit	n/a
42.423	n/a	RESPONSE	n/a	n/a	n/a	n/a	n/a	n/a	n/a	yellow
42.4544	1.0167	ITI	n/a	n/a	n/a	n/a	n/a	n/a	n/a	n/a
43.4711	0.5167	FIXCROSS	n/a	n/a	n/a	n/a	n/a	n/a	n/a	n/a
43.9877	0.9	INK	2	Neutral	xxxxxxxxx	xxxxxxxxx	zielony	green	hit	n/a
44.8545	n/a	RESPONSE	n/a	n/a	n/a	n/a	n/a	n/a	n/a	green
44.8878	1.0167	ITI	n/a	n/a	n/a	n/a	n/a	n/a	n/a	n/a
45.9044	0.5167	FIXCROSS	n/a	n/a	n/a	n/a	n/a	n/a	n/a	n/a
46.4211	0.6167	INK	3	Neutral	xxxxx	xxxxx	zielony	green	hit	n/a
47.0141	n/a	RESPONSE	n/a	n/a	n/a	n/a	n/a	n/a	n/a	green
47.0378	1.0167	ITI	n/a	n/a	n/a	n/a	n/a	n/a	n/a	n/a
48.0545	0.5167	FIXCROSS	n/a	n/a	n/a	n/a	n/a	n/a	n/a	n/a
48.5711	0.65	INK	4	Incongruent	żółty	yellow	czerwony	red	hit	n/a
49.1896	n/a	RESPONSE	n/a	n/a	n/a	n/a	n/a	n/a	n/a	red
49.2212	1.0167	ITI	n/a	n/a	n/a	n/a	n/a	n/a	n/a	n/a
50.2378	0.5167	FIXCROSS	n/a	n/a	n/a	n/a	n/a	n/a	n/a	n/a
50.7545	0.85	INK	5	Incongruent	czerwony	red	zielony	green	hit	n/a
51.573	n/a	RESPONSE	n/a	n/a	n/a	n/a	n/a	n/a	n/a	green
51.6045	1.0167	ITI	n/a	n/a	n/a	n/a	n/a	n/a	n/a	n/a
52.6212	0.5167	FIXCROSS	n/a	n/a	n/a	n/a	n/a	n/a	n/a	n/a
53.1379	0.6833	INK	6	Incongruent	zielony	green	żółty	yellow	hit	n/a
53.7964	n/a	RESPONSE	n/a	n/a	n/a	n/a	n/a	n/a	n/a	yellow
53.8212	1.0167	ITI	n/a	n/a	n/a	n/a	n/a	n/a	n/a	n/a
54.8379	0.5167	FIXCROSS	n/a	n/a	n/a	n/a	n/a	n/a	n/a	n/a
55.3546	0.6833	INK	7	Neutral	xxxxx	xxxxx	czerwony	red	hit	n/a
56.0198	n/a	RESPONSE	n/a	n/a	n/a	n/a	n/a	n/a	n/a	red
56.0379	1.0167	ITI	n/a	n/a	n/a	n/a	n/a	n/a	n/a	n/a
57.0546	0.5167	FIXCROSS	n/a	n/a	n/a	n/a	n/a	n/a	n/a	n/a
57.5713	0.8167	INK	8	Incongruent	niebieski	blue	czerwony	red	hit	n/a
58.3552	n/a	RESPONSE	n/a	n/a	n/a	n/a	n/a	n/a	n/a	red
58.3879	1.0167	ITI	n/a	n/a	n/a	n/a	n/a	n/a	n/a	n/a
59.4046	0.5167	FIXCROSS	n/a	n/a	n/a	n/a	n/a	n/a	n/a	n/a
59.9213	0.7167	INK	9	Incongruent	zielony	green	niebieski	blue	hit	n/a
60.6106	n/a	RESPONSE	n/a	n/a	n/a	n/a	n/a	n/a	n/a	blue
60.638	1.0167	ITI	n/a	n/a	n/a	n/a	n/a	n/a	n/a	n/a
61.6547	0.5167	FIXCROSS	n/a	n/a	n/a	n/a	n/a	n/a	n/a	n/a
62.1713	0.6667	INK	10	Neutral	xxxxxxxxx	xxxxxxxxx	czerwony	red	hit	n/a
62.8021	n/a	RESPONSE	n/a	n/a	n/a	n/a	n/a	n/a	n/a	red
62.838	1.0167	ITI	n/a	n/a	n/a	n/a	n/a	n/a	n/a	n/a
63.8547	0.5167	FIXCROSS	n/a	n/a	n/a	n/a	n/a	n/a	n/a	n/a
64.3714	0.6	INK	11	Neutral	xxxxxxxxx	xxxxxxxxx	żółty	yellow	hit	n/a
64.9455	n/a	RESPONSE	n/a	n/a	n/a	n/a	n/a	n/a	n/a	yellow
64.9714	1.0167	ITI	n/a	n/a	n/a	n/a	n/a	n/a	n/a	n/a
65.9881	0.5167	FIXCROSS	n/a	n/a	n/a	n/a	n/a	n/a	n/a	n/a
66.5047	0.8667	INK	12	Neutral	xxxxxxxx	xxxxxxxx	zielony	green	hit	n/a
67.3449	n/a	RESPONSE	n/a	n/a	n/a	n/a	n/a	n/a	n/a	green
67.3714	1.0167	ITI	n/a	n/a	n/a	n/a	n/a	n/a	n/a	n/a
68.3881	0.5166	FIXCROSS	n/a	n/a	n/a	n/a	n/a	n/a	n/a	n/a
68.9047	0.8167	INK	13	Incongruent	żółty	yellow	niebieski	blue	hit	n/a
69.6964	n/a	RESPONSE	n/a	n/a	n/a	n/a	n/a	n/a	n/a	blue
69.7214	1.0167	ITI	n/a	n/a	n/a	n/a	n/a	n/a	n/a	n/a
70.7381	0.5167	FIXCROSS	n/a	n/a	n/a	n/a	n/a	n/a	n/a	n/a
71.2548	0.8	INK	14	Incongruent	żółty	yellow	zielony	green	hit	n/a
72.0319	n/a	RESPONSE	n/a	n/a	n/a	n/a	n/a	n/a	n/a	green
72.0548	1.0167	ITI	n/a	n/a	n/a	n/a	n/a	n/a	n/a	n/a
73.0715	0.5167	FIXCROSS	n/a	n/a	n/a	n/a	n/a	n/a	n/a	n/a
73.5882	0.7167	INK	15	Neutral	xxxxxxxxx	xxxxxxxxx	żółty	yellow	hit	n/a
74.2875	n/a	RESPONSE	n/a	n/a	n/a	n/a	n/a	n/a	n/a	yellow
74.3048	1.0167	ITI	n/a	n/a	n/a	n/a	n/a	n/a	n/a	n/a
75.3215	0.5167	FIXCROSS	n/a	n/a	n/a	n/a	n/a	n/a	n/a	n/a
75.8382	0.8167	INK	16	Neutral	xxxxxxxxx	xxxxxxxxx	zielony	green	hit	n/a
76.623	n/a	RESPONSE	n/a	n/a	n/a	n/a	n/a	n/a	n/a	green
76.6549	1.0167	ITI	n/a	n/a	n/a	n/a	n/a	n/a	n/a	n/a
77.6716	0.5167	FIXCROSS	n/a	n/a	n/a	n/a	n/a	n/a	n/a	n/a
78.1882	0.6333	INK	17	Incongruent	czerwony	red	zielony	green	hit	n/a
78.7985	n/a	RESPONSE	n/a	n/a	n/a	n/a	n/a	n/a	n/a	green
78.8216	1.0167	ITI	n/a	n/a	n/a	n/a	n/a	n/a	n/a	n/a
79.8382	0.5167	FIXCROSS	n/a	n/a	n/a	n/a	n/a	n/a	n/a	n/a
80.3549	0.75	INK	18	Neutral	xxxxxxxx	xxxxxxxx	żółty	yellow	hit	n/a
81.07	n/a	RESPONSE	n/a	n/a	n/a	n/a	n/a	n/a	n/a	yellow
81.1049	1.0167	ITI	n/a	n/a	n/a	n/a	n/a	n/a	n/a	n/a
82.1216	0.5167	FIXCROSS	n/a	n/a	n/a	n/a	n/a	n/a	n/a	n/a
82.6383	0.6	INK	19	Incongruent	zielony	green	żółty	yellow	hit	n/a
83.2136	n/a	RESPONSE	n/a	n/a	n/a	n/a	n/a	n/a	n/a	yellow
83.2383	1.0167	ITI	n/a	n/a	n/a	n/a	n/a	n/a	n/a	n/a
84.255	0.5167	FIXCROSS	n/a	n/a	n/a	n/a	n/a	n/a	n/a	n/a
84.7717	0.8667	INK	20	Incongruent	żółty	yellow	zielony	green	hit	n/a
85.613	n/a	RESPONSE	n/a	n/a	n/a	n/a	n/a	n/a	n/a	green
85.6383	1.0167	ITI	n/a	n/a	n/a	n/a	n/a	n/a	n/a	n/a
86.655	0.5167	FIXCROSS	n/a	n/a	n/a	n/a	n/a	n/a	n/a	n/a
87.1717	0.7667	INK	21	Incongruent	czerwony	red	żółty	yellow	hit	n/a
87.9166	n/a	RESPONSE	n/a	n/a	n/a	n/a	n/a	n/a	n/a	yellow
87.9384	1.0167	ITI	n/a	n/a	n/a	n/a	n/a	n/a	n/a	n/a
88.955	0.5167	FIXCROSS	n/a	n/a	n/a	n/a	n/a	n/a	n/a	n/a
89.4717	0.75	INK	22	Incongruent	zielony	green	czerwony	red	hit	n/a
90.1881	n/a	RESPONSE	n/a	n/a	n/a	n/a	n/a	n/a	n/a	red
90.2217	1.0167	ITI	n/a	n/a	n/a	n/a	n/a	n/a	n/a	n/a
91.2384	0.5167	FIXCROSS	n/a	n/a	n/a	n/a	n/a	n/a	n/a	n/a
91.7551	0.7833	INK	23	Neutral	xxxxxxxx	xxxxxxxx	zielony	green	hit	n/a
92.5076	n/a	RESPONSE	n/a	n/a	n/a	n/a	n/a	n/a	n/a	green
92.5384	1.0167	ITI	n/a	n/a	n/a	n/a	n/a	n/a	n/a	n/a
93.5551	0.5167	FIXCROSS	n/a	n/a	n/a	n/a	n/a	n/a	n/a	n/a
94.0718	0.5667	INK	24	Neutral	xxxxxxxx	xxxxxxxx	zielony	green	hit	n/a
94.6192	n/a	RESPONSE	n/a	n/a	n/a	n/a	n/a	n/a	n/a	green
94.6385	1.0167	ITI	n/a	n/a	n/a	n/a	n/a	n/a	n/a	n/a
95.6551	0.5167	FIXCROSS	n/a	n/a	n/a	n/a	n/a	n/a	n/a	n/a
96.1718	0.6667	INK	25	Neutral	xxxxxxxx	xxxxxxxx	niebieski	blue	hit	n/a
96.8107	n/a	RESPONSE	n/a	n/a	n/a	n/a	n/a	n/a	n/a	blue
96.8385	1.0167	ITI	n/a	n/a	n/a	n/a	n/a	n/a	n/a	n/a
97.8552	0.5167	FIXCROSS	n/a	n/a	n/a	n/a	n/a	n/a	n/a	n/a
98.3718	0.7667	INK	26	Incongruent	żółty	yellow	zielony	green	hit	n/a
99.1143	n/a	RESPONSE	n/a	n/a	n/a	n/a	n/a	n/a	n/a	green
99.1385	1.0167	ITI	n/a	n/a	n/a	n/a	n/a	n/a	n/a	n/a
100.1552	0.5167	FIXCROSS	n/a	n/a	n/a	n/a	n/a	n/a	n/a	n/a
100.6719	0.6834	INK	27	Neutral	xxxxx	xxxxx	czerwony	red	hit	n/a
101.3379	n/a	RESPONSE	n/a	n/a	n/a	n/a	n/a	n/a	n/a	red
101.3552	1.0167	ITI	n/a	n/a	n/a	n/a	n/a	n/a	n/a	n/a
102.3719	0.5167	FIXCROSS	n/a	n/a	n/a	n/a	n/a	n/a	n/a	n/a
102.8886	0.7333	INK	28	Incongruent	czerwony	red	zielony	green	hit	n/a
103.5933	n/a	RESPONSE	n/a	n/a	n/a	n/a	n/a	n/a	n/a	green
103.6219	1.0167	ITI	n/a	n/a	n/a	n/a	n/a	n/a	n/a	n/a
104.6386	0.5167	FIXCROSS	n/a	n/a	n/a	n/a	n/a	n/a	n/a	n/a
105.1553	0.65	INK	29	Incongruent	czerwony	red	żółty	yellow	hit	n/a
105.7849	n/a	RESPONSE	n/a	n/a	n/a	n/a	n/a	n/a	n/a	yellow
105.8053	1.0167	ITI	n/a	n/a	n/a	n/a	n/a	n/a	n/a	n/a
106.822	0.5167	FIXCROSS	n/a	n/a	n/a	n/a	n/a	n/a	n/a	n/a
107.3386	0.8333	INK	30	Neutral	xxxxxxx	xxxxxxx	niebieski	blue	hit	n/a
108.1524	n/a	RESPONSE	n/a	n/a	n/a	n/a	n/a	n/a	n/a	blue
108.172	1.0167	ITI	n/a	n/a	n/a	n/a	n/a	n/a	n/a	n/a
109.1887	0.5167	FIXCROSS	n/a	n/a	n/a	n/a	n/a	n/a	n/a	n/a
109.7053	0.65	INK	31	Neutral	xxxxxxxx	xxxxxxxx	niebieski	blue	hit	n/a
110.3279	n/a	RESPONSE	n/a	n/a	n/a	n/a	n/a	n/a	n/a	blue
110.3553	1.0167	ITI	n/a	n/a	n/a	n/a	n/a	n/a	n/a	n/a
111.372	0.5167	FIXCROSS	n/a	n/a	n/a	n/a	n/a	n/a	n/a	n/a
111.8887	0.6667	INK	32	Neutral	xxxxxxx	xxxxxxx	czerwony	red	hit	n/a
112.5355	n/a	RESPONSE	n/a	n/a	n/a	n/a	n/a	n/a	n/a	red
112.5554	1.0167	ITI	n/a	n/a	n/a	n/a	n/a	n/a	n/a	n/a
113.5721	0.5167	FIXCROSS	n/a	n/a	n/a	n/a	n/a	n/a	n/a	n/a
114.0887	0.75	INK	33	Neutral	xxxxx	xxxxx	niebieski	blue	hit	n/a
114.807	n/a	RESPONSE	n/a	n/a	n/a	n/a	n/a	n/a	n/a	blue
114.8387	1.0167	ITI	n/a	n/a	n/a	n/a	n/a	n/a	n/a	n/a
115.8554	0.5167	FIXCROSS	n/a	n/a	n/a	n/a	n/a	n/a	n/a	n/a
116.3721	0.6834	INK	34	Incongruent	zielony	green	niebieski	blue	hit	n/a
117.0305	n/a	RESPONSE	n/a	n/a	n/a	n/a	n/a	n/a	n/a	blue
117.0554	1.0167	ITI	n/a	n/a	n/a	n/a	n/a	n/a	n/a	n/a
118.0721	0.5167	FIXCROSS	n/a	n/a	n/a	n/a	n/a	n/a	n/a	n/a
118.5888	0.6667	INK	35	Neutral	xxxxxxx	xxxxxxx	żółty	yellow	hit	n/a
119.2381	n/a	RESPONSE	n/a	n/a	n/a	n/a	n/a	n/a	n/a	yellow
119.2555	1.0167	ITI	n/a	n/a	n/a	n/a	n/a	n/a	n/a	n/a
120.2722	0.5167	FIXCROSS	n/a	n/a	n/a	n/a	n/a	n/a	n/a	n/a
120.7888	0.7167	INK	36	Neutral	xxxxxxxxx	xxxxxxxxx	czerwony	red	hit	n/a
121.4776	n/a	RESPONSE	n/a	n/a	n/a	n/a	n/a	n/a	n/a	red
121.5055	1.0167	ITI	n/a	n/a	n/a	n/a	n/a	n/a	n/a	n/a
122.5222	0.5167	FIXCROSS	n/a	n/a	n/a	n/a	n/a	n/a	n/a	n/a
123.0389	0.6833	INK	37	Neutral	xxxxx	xxxxx	zielony	green	hit	n/a
123.7011	n/a	RESPONSE	n/a	n/a	n/a	n/a	n/a	n/a	n/a	green
123.7222	1.0167	ITI	n/a	n/a	n/a	n/a	n/a	n/a	n/a	n/a
124.7389	0.5167	FIXCROSS	n/a	n/a	n/a	n/a	n/a	n/a	n/a	n/a
125.2556	0.5833	INK	38	Incongruent	czerwony	red	niebieski	blue	hit	n/a
125.8127	n/a	RESPONSE	n/a	n/a	n/a	n/a	n/a	n/a	n/a	blue
125.8389	1.0167	ITI	n/a	n/a	n/a	n/a	n/a	n/a	n/a	n/a
126.8556	0.5167	FIXCROSS	n/a	n/a	n/a	n/a	n/a	n/a	n/a	n/a
127.3723	0.8167	INK	39	Incongruent	zielony	green	czerwony	red	hit	n/a
128.1642	n/a	RESPONSE	n/a	n/a	n/a	n/a	n/a	n/a	n/a	red
128.1889	1.0167	ITI	n/a	n/a	n/a	n/a	n/a	n/a	n/a	n/a
129.2056	0.5167	FIXCROSS	n/a	n/a	n/a	n/a	n/a	n/a	n/a	n/a
129.7223	0.7833	INK	40	Incongruent	żółty	yellow	czerwony	red	hit	n/a
130.4837	n/a	RESPONSE	n/a	n/a	n/a	n/a	n/a	n/a	n/a	red
130.5056	1.0167	ITI	n/a	n/a	n/a	n/a	n/a	n/a	n/a	n/a
131.5223	0.5167	FIXCROSS	n/a	n/a	n/a	n/a	n/a	n/a	n/a	n/a
132.039	0.7	INK	41	Incongruent	żółty	yellow	niebieski	blue	hit	n/a
132.7072	n/a	RESPONSE	n/a	n/a	n/a	n/a	n/a	n/a	n/a	blue
132.739	1.0167	ITI	n/a	n/a	n/a	n/a	n/a	n/a	n/a	n/a
133.7557	0.5167	FIXCROSS	n/a	n/a	n/a	n/a	n/a	n/a	n/a	n/a
134.2723	0.7667	INK	42	Incongruent	czerwony	red	żółty	yellow	hit	n/a
135.0108	n/a	RESPONSE	n/a	n/a	n/a	n/a	n/a	n/a	n/a	yellow
135.039	1.0167	ITI	n/a	n/a	n/a	n/a	n/a	n/a	n/a	n/a
136.0557	0.5167	FIXCROSS	n/a	n/a	n/a	n/a	n/a	n/a	n/a	n/a
136.5724	0.65	INK	43	Incongruent	zielony	green	niebieski	blue	hit	n/a
137.2023	n/a	RESPONSE	n/a	n/a	n/a	n/a	n/a	n/a	n/a	blue
137.2224	1.0167	ITI	n/a	n/a	n/a	n/a	n/a	n/a	n/a	n/a
138.2391	0.5167	FIXCROSS	n/a	n/a	n/a	n/a	n/a	n/a	n/a	n/a
138.7557	0.6833	INK	44	Incongruent	niebieski	blue	żółty	yellow	hit	n/a
139.4099	n/a	RESPONSE	n/a	n/a	n/a	n/a	n/a	n/a	n/a	yellow
139.4391	1.0167	ITI	n/a	n/a	n/a	n/a	n/a	n/a	n/a	n/a
140.4558	0.5167	FIXCROSS	n/a	n/a	n/a	n/a	n/a	n/a	n/a	n/a
140.9724	0.8	INK	45	Incongruent	czerwony	red	niebieski	blue	hit	n/a
141.7454	n/a	RESPONSE	n/a	n/a	n/a	n/a	n/a	n/a	n/a	blue
141.7725	1.0167	ITI	n/a	n/a	n/a	n/a	n/a	n/a	n/a	n/a
142.7891	0.5167	FIXCROSS	n/a	n/a	n/a	n/a	n/a	n/a	n/a	n/a
143.3058	0.6667	INK	46	Neutral	xxxxxxxxx	xxxxxxxxx	zielony	green	hit	n/a
143.9529	n/a	RESPONSE	n/a	n/a	n/a	n/a	n/a	n/a	n/a	green
143.9725	1.0167	ITI	n/a	n/a	n/a	n/a	n/a	n/a	n/a	n/a
144.9892	0.5167	FIXCROSS	n/a	n/a	n/a	n/a	n/a	n/a	n/a	n/a
145.5058	0.8	INK	47	Incongruent	niebieski	blue	zielony	green	hit	n/a
146.2725	n/a	RESPONSE	n/a	n/a	n/a	n/a	n/a	n/a	n/a	green
146.3058	1.0167	ITI	n/a	n/a	n/a	n/a	n/a	n/a	n/a	n/a
147.3225	0.5167	FIXCROSS	n/a	n/a	n/a	n/a	n/a	n/a	n/a	n/a
147.8392	0.6667	INK	48	Incongruent	niebieski	blue	zielony	green	hit	n/a
148.48	n/a	RESPONSE	n/a	n/a	n/a	n/a	n/a	n/a	n/a	green
148.5059	1.0167	ITI	n/a	n/a	n/a	n/a	n/a	n/a	n/a	n/a
149.5226	0.5167	FIXCROSS	n/a	n/a	n/a	n/a	n/a	n/a	n/a	n/a
150.0392	0.6334	INK	49	Incongruent	zielony	green	czerwony	red	hit	n/a
150.6395	n/a	RESPONSE	n/a	n/a	n/a	n/a	n/a	n/a	n/a	red
150.6726	1.0167	ITI	n/a	n/a	n/a	n/a	n/a	n/a	n/a	n/a
151.6893	0.5167	FIXCROSS	n/a	n/a	n/a	n/a	n/a	n/a	n/a	n/a
152.2059	0.8	INK	50	Neutral	xxxxxxx	xxxxxxx	czerwony	red	hit	n/a
152.975	n/a	RESPONSE	n/a	n/a	n/a	n/a	n/a	n/a	n/a	red
153.0059	1.0167	ITI	n/a	n/a	n/a	n/a	n/a	n/a	n/a	n/a
154.0226	0.5167	FIXCROSS	n/a	n/a	n/a	n/a	n/a	n/a	n/a	n/a
154.5393	0.6333	INK	51	Neutral	xxxxx	xxxxx	niebieski	blue	hit	n/a
155.1506	n/a	RESPONSE	n/a	n/a	n/a	n/a	n/a	n/a	n/a	blue
155.1726	1.0167	ITI	n/a	n/a	n/a	n/a	n/a	n/a	n/a	n/a
156.1893	0.5167	FIXCROSS	n/a	n/a	n/a	n/a	n/a	n/a	n/a	n/a
156.706	0.6167	INK	52	Neutral	xxxxxxxx	xxxxxxxx	żółty	yellow	hit	n/a
157.2941	n/a	RESPONSE	n/a	n/a	n/a	n/a	n/a	n/a	n/a	yellow
157.3227	1.0167	ITI	n/a	n/a	n/a	n/a	n/a	n/a	n/a	n/a
158.3393	0.5167	FIXCROSS	n/a	n/a	n/a	n/a	n/a	n/a	n/a	n/a
158.856	0.6667	INK	53	Neutral	xxxxxxx	xxxxxxx	czerwony	red	hit	n/a
159.5017	n/a	RESPONSE	n/a	n/a	n/a	n/a	n/a	n/a	n/a	red
159.5227	1.0167	ITI	n/a	n/a	n/a	n/a	n/a	n/a	n/a	n/a
160.5394	0.5167	FIXCROSS	n/a	n/a	n/a	n/a	n/a	n/a	n/a	n/a
161.056	0.75	INK	54	Neutral	xxxxx	xxxxx	zielony	green	hit	n/a
161.7732	n/a	RESPONSE	n/a	n/a	n/a	n/a	n/a	n/a	n/a	green
161.8061	1.0167	ITI	n/a	n/a	n/a	n/a	n/a	n/a	n/a	n/a
162.8227	0.5167	FIXCROSS	n/a	n/a	n/a	n/a	n/a	n/a	n/a	n/a
163.3394	0.6834	INK	55	Neutral	xxxxxxx	xxxxxxx	żółty	yellow	hit	n/a
163.9968	n/a	RESPONSE	n/a	n/a	n/a	n/a	n/a	n/a	n/a	yellow
164.0228	1.0167	ITI	n/a	n/a	n/a	n/a	n/a	n/a	n/a	n/a
165.0394	0.5167	FIXCROSS	n/a	n/a	n/a	n/a	n/a	n/a	n/a	n/a
165.5561	0.7333	INK	56	Incongruent	czerwony	red	niebieski	blue	hit	n/a
166.2683	n/a	RESPONSE	n/a	n/a	n/a	n/a	n/a	n/a	n/a	blue
166.2895	1.0167	ITI	n/a	n/a	n/a	n/a	n/a	n/a	n/a	n/a
167.3061	0.5167	FIXCROSS	n/a	n/a	n/a	n/a	n/a	n/a	n/a	n/a
167.8228	0.65	INK	57	Neutral	xxxxxxxxx	xxxxxxxxx	żółty	yellow	hit	n/a
168.4438	n/a	RESPONSE	n/a	n/a	n/a	n/a	n/a	n/a	n/a	yellow
168.4728	1.0167	ITI	n/a	n/a	n/a	n/a	n/a	n/a	n/a	n/a
169.4895	0.5167	FIXCROSS	n/a	n/a	n/a	n/a	n/a	n/a	n/a	n/a
170.0062	0.6833	INK	58	Incongruent	żółty	yellow	niebieski	blue	hit	n/a
170.6674	n/a	RESPONSE	n/a	n/a	n/a	n/a	n/a	n/a	n/a	blue
170.6895	1.0167	ITI	n/a	n/a	n/a	n/a	n/a	n/a	n/a	n/a
171.7062	0.5167	FIXCROSS	n/a	n/a	n/a	n/a	n/a	n/a	n/a	n/a
172.2229	0.9167	INK	59	Incongruent	niebieski	blue	zielony	green	hit	n/a
173.1148	n/a	RESPONSE	n/a	n/a	n/a	n/a	n/a	n/a	n/a	green
173.1395	1.0167	ITI	n/a	n/a	n/a	n/a	n/a	n/a	n/a	n/a
174.1562	0.5167	FIXCROSS	n/a	n/a	n/a	n/a	n/a	n/a	n/a	n/a
174.6729	0.6833	INK	60	Neutral	xxxxxxx	xxxxxxx	niebieski	blue	hit	n/a
175.3224	n/a	RESPONSE	n/a	n/a	n/a	n/a	n/a	n/a	n/a	blue
175.3562	1.0167	ITI	n/a	n/a	n/a	n/a	n/a	n/a	n/a	n/a
176.3729	0.5167	FIXCROSS	n/a	n/a	n/a	n/a	n/a	n/a	n/a	n/a
176.8896	0.75	INK	61	Neutral	xxxxx	xxxxx	niebieski	blue	hit	n/a
177.6099	n/a	RESPONSE	n/a	n/a	n/a	n/a	n/a	n/a	n/a	blue
177.6396	1.0167	ITI	n/a	n/a	n/a	n/a	n/a	n/a	n/a	n/a
178.6563	0.5167	FIXCROSS	n/a	n/a	n/a	n/a	n/a	n/a	n/a	n/a
179.173	0.7	INK	62	Neutral	xxxxxxxxx	xxxxxxxxx	czerwony	red	hit	n/a
179.8495	n/a	RESPONSE	n/a	n/a	n/a	n/a	n/a	n/a	n/a	red
179.873	1.0167	ITI	n/a	n/a	n/a	n/a	n/a	n/a	n/a	n/a
180.8897	0.5167	FIXCROSS	n/a	n/a	n/a	n/a	n/a	n/a	n/a	n/a
181.4063	0.8	INK	63	Incongruent	żółty	yellow	czerwony	red	hit	n/a
182.1849	n/a	RESPONSE	n/a	n/a	n/a	n/a	n/a	n/a	n/a	red
182.2064	1.0167	ITI	n/a	n/a	n/a	n/a	n/a	n/a	n/a	n/a
183.223	0.5167	FIXCROSS	n/a	n/a	n/a	n/a	n/a	n/a	n/a	n/a
183.7397	0.6667	INK	64	Neutral	xxxxx	xxxxx	czerwony	red	hit	n/a
184.3765	n/a	RESPONSE	n/a	n/a	n/a	n/a	n/a	n/a	n/a	red
184.4064	1.0167	ITI	n/a	n/a	n/a	n/a	n/a	n/a	n/a	n/a
185.4231	0.5167	FIXCROSS	n/a	n/a	n/a	n/a	n/a	n/a	n/a	n/a
185.9397	0.7667	INK	65	Incongruent	niebieski	blue	żółty	yellow	hit	n/a
186.68	n/a	RESPONSE	n/a	n/a	n/a	n/a	n/a	n/a	n/a	yellow
186.7064	1.0167	ITI	n/a	n/a	n/a	n/a	n/a	n/a	n/a	n/a
187.7231	0.5167	FIXCROSS	n/a	n/a	n/a	n/a	n/a	n/a	n/a	n/a
188.2398	0.6834	INK	66	Incongruent	zielony	green	żółty	yellow	hit	n/a
188.9036	n/a	RESPONSE	n/a	n/a	n/a	n/a	n/a	n/a	n/a	yellow
188.9231	1.0167	ITI	n/a	n/a	n/a	n/a	n/a	n/a	n/a	n/a
189.9398	0.5167	FIXCROSS	n/a	n/a	n/a	n/a	n/a	n/a	n/a	n/a
190.4565	0.7167	INK	67	Incongruent	niebieski	blue	czerwony	red	hit	n/a
191.1431	n/a	RESPONSE	n/a	n/a	n/a	n/a	n/a	n/a	n/a	red
191.1731	1.0167	ITI	n/a	n/a	n/a	n/a	n/a	n/a	n/a	n/a
192.1898	0.5167	FIXCROSS	n/a	n/a	n/a	n/a	n/a	n/a	n/a	n/a
192.7065	0.6333	INK	68	Neutral	xxxxxxx	xxxxxxx	niebieski	blue	hit	n/a
193.3187	n/a	RESPONSE	n/a	n/a	n/a	n/a	n/a	n/a	n/a	blue
193.3398	1.0167	ITI	n/a	n/a	n/a	n/a	n/a	n/a	n/a	n/a
194.3565	0.5167	FIXCROSS	n/a	n/a	n/a	n/a	n/a	n/a	n/a	n/a
194.8732	0.7	INK	69	Incongruent	niebieski	blue	czerwony	red	hit	n/a
195.5422	n/a	RESPONSE	n/a	n/a	n/a	n/a	n/a	n/a	n/a	red
195.5732	1.0167	ITI	n/a	n/a	n/a	n/a	n/a	n/a	n/a	n/a
196.5899	0.5167	FIXCROSS	n/a	n/a	n/a	n/a	n/a	n/a	n/a	n/a
197.1066	0.6167	INK	70	Neutral	xxxxxxxx	xxxxxxxx	żółty	yellow	hit	n/a
197.7017	n/a	RESPONSE	n/a	n/a	n/a	n/a	n/a	n/a	n/a	yellow
197.7232	1.0167	ITI	n/a	n/a	n/a	n/a	n/a	n/a	n/a	n/a
198.7399	0.5167	FIXCROSS	n/a	n/a	n/a	n/a	n/a	n/a	n/a	n/a
199.2566	0.6167	INK	71	Incongruent	niebieski	blue	żółty	yellow	hit	n/a
199.8453	n/a	RESPONSE	n/a	n/a	n/a	n/a	n/a	n/a	n/a	yellow
199.8733	1.0167	ITI	n/a	n/a	n/a	n/a	n/a	n/a	n/a	n/a
200.8899	0.5167	FIXCROSS	n/a	n/a	n/a	n/a	n/a	n/a	n/a	n/a
201.4066	0.5833	INK	72	Neutral	xxxxxxxx	xxxxxxxx	niebieski	blue	hit	n/a
201.9568	n/a	RESPONSE	n/a	n/a	n/a	n/a	n/a	n/a	n/a	blue
201.99	1.0833	ITI	n/a	n/a	n/a	n/a	n/a	n/a	n/a	n/a
208.3395	n/a	RESPONSE	n/a	n/a	n/a	n/a	n/a	n/a	n/a	n/a
208.3734	1.0	ITI	n/a	n/a	n/a	n/a	n/a	n/a	n/a	n/a
209.3734	0.5	FIXCROSS	n/a	n/a	n/a	n/a	n/a	n/a	n/a	n/a
209.8734	1.05	T_COLOR_NAME	1	Neutral	zielony	green	Neutral	Neutral	hit	n/a
210.915	n/a	RESPONSE	n/a	n/a	n/a	n/a	n/a	n/a	n/a	green
210.9234	0.5167	FEEDBACK	n/a	n/a	n/a	n/a	n/a	n/a	n/a	n/a
211.4401	1.0167	ITI	n/a	n/a	n/a	n/a	n/a	n/a	n/a	n/a
212.4568	0.5167	FIXCROSS	n/a	n/a	n/a	n/a	n/a	n/a	n/a	n/a
212.9734	0.9	T_COLOR_NAME	2	Incongruent	czerwony	red	zielony	green	hit	n/a
213.8424	n/a	RESPONSE	n/a	n/a	n/a	n/a	n/a	n/a	n/a	red
213.8734	0.5167	FEEDBACK	n/a	n/a	n/a	n/a	n/a	n/a	n/a	n/a
214.3901	1.0167	ITI	n/a	n/a	n/a	n/a	n/a	n/a	n/a	n/a
215.4068	0.5167	FIXCROSS	n/a	n/a	n/a	n/a	n/a	n/a	n/a	n/a
215.9235	0.7167	T_COLOR_NAME	3	Incongruent	niebieski	blue	zielony	green	hit	n/a
216.6098	n/a	RESPONSE	n/a	n/a	n/a	n/a	n/a	n/a	n/a	blue
216.6402	0.5167	FEEDBACK	n/a	n/a	n/a	n/a	n/a	n/a	n/a	n/a
217.1568	1.0167	ITI	n/a	n/a	n/a	n/a	n/a	n/a	n/a	n/a
218.1735	0.5167	FIXCROSS	n/a	n/a	n/a	n/a	n/a	n/a	n/a	n/a
218.6902	0.9834	T_COLOR_NAME	4	Incongruent	czerwony	red	żółty	yellow	hit	n/a
219.6492	n/a	RESPONSE	n/a	n/a	n/a	n/a	n/a	n/a	n/a	red
219.6735	0.5167	FEEDBACK	n/a	n/a	n/a	n/a	n/a	n/a	n/a	n/a
220.1902	1.0167	ITI	n/a	n/a	n/a	n/a	n/a	n/a	n/a	n/a
221.2069	0.5167	FIXCROSS	n/a	n/a	n/a	n/a	n/a	n/a	n/a	n/a
221.7236	1.0167	T_COLOR_NAME	5	Incongruent	zielony	green	czerwony	red	hit	n/a
222.7205	n/a	RESPONSE	n/a	n/a	n/a	n/a	n/a	n/a	n/a	green
222.7402	0.5167	FEEDBACK	n/a	n/a	n/a	n/a	n/a	n/a	n/a	n/a
223.2569	1.0167	ITI	n/a	n/a	n/a	n/a	n/a	n/a	n/a	n/a
224.2736	0.5167	FIXCROSS	n/a	n/a	n/a	n/a	n/a	n/a	n/a	n/a
224.7903	0.7833	T_COLOR_NAME	6	Neutral	żółty	yellow	Neutral	Neutral	hit	n/a
225.5519	n/a	RESPONSE	n/a	n/a	n/a	n/a	n/a	n/a	n/a	yellow
225.5736	0.5167	FEEDBACK	n/a	n/a	n/a	n/a	n/a	n/a	n/a	n/a
226.0903	1.0167	ITI	n/a	n/a	n/a	n/a	n/a	n/a	n/a	n/a
227.107	0.5167	FIXCROSS	n/a	n/a	n/a	n/a	n/a	n/a	n/a	n/a
227.6236	1.1333	T_COLOR_NAME	7	Incongruent	zielony	green	żółty	yellow	hit	n/a
228.7353	n/a	RESPONSE	n/a	n/a	n/a	n/a	n/a	n/a	n/a	green
228.757	0.5167	FEEDBACK	n/a	n/a	n/a	n/a	n/a	n/a	n/a	n/a
229.2737	1.0167	ITI	n/a	n/a	n/a	n/a	n/a	n/a	n/a	n/a
230.2903	0.5167	FIXCROSS	n/a	n/a	n/a	n/a	n/a	n/a	n/a	n/a
230.807	0.6667	T_COLOR_NAME	8	Neutral	niebieski	blue	Neutral	Neutral	hit	n/a
231.4547	n/a	RESPONSE	n/a	n/a	n/a	n/a	n/a	n/a	n/a	blue
231.4737	0.5167	FEEDBACK	n/a	n/a	n/a	n/a	n/a	n/a	n/a	n/a
231.9904	1.0167	ITI	n/a	n/a	n/a	n/a	n/a	n/a	n/a	n/a
233.0071	0.5167	FIXCROSS	n/a	n/a	n/a	n/a	n/a	n/a	n/a	n/a
233.5237	0.8667	T_COLOR_NAME	9	Neutral	zielony	green	Neutral	Neutral	hit	n/a
234.3661	n/a	RESPONSE	n/a	n/a	n/a	n/a	n/a	n/a	n/a	green
234.3904	0.5167	FEEDBACK	n/a	n/a	n/a	n/a	n/a	n/a	n/a	n/a
234.9071	1.0167	ITI	n/a	n/a	n/a	n/a	n/a	n/a	n/a	n/a
235.9237	0.5167	FIXCROSS	n/a	n/a	n/a	n/a	n/a	n/a	n/a	n/a
236.4404	0.6333	T_COLOR_NAME	10	Incongruent	zielony	green	niebieski	blue	hit	n/a
237.0536	n/a	RESPONSE	n/a	n/a	n/a	n/a	n/a	n/a	n/a	green
237.0738	0.5167	FEEDBACK	n/a	n/a	n/a	n/a	n/a	n/a	n/a	n/a
237.5904	1.0167	ITI	n/a	n/a	n/a	n/a	n/a	n/a	n/a	n/a
238.6071	0.5167	FIXCROSS	n/a	n/a	n/a	n/a	n/a	n/a	n/a	n/a
239.1238	0.8333	T_COLOR_NAME	11	Incongruent	czerwony	red	niebieski	blue	hit	n/a
239.933	n/a	RESPONSE	n/a	n/a	n/a	n/a	n/a	n/a	n/a	red
239.9571	0.5167	FEEDBACK	n/a	n/a	n/a	n/a	n/a	n/a	n/a	n/a
240.4738	1.0167	ITI	n/a	n/a	n/a	n/a	n/a	n/a	n/a	n/a
241.4905	0.5167	FIXCROSS	n/a	n/a	n/a	n/a	n/a	n/a	n/a	n/a
242.0072	0.7333	T_COLOR_NAME	12	Neutral	zielony	green	Neutral	Neutral	hit	n/a
242.7164	n/a	RESPONSE	n/a	n/a	n/a	n/a	n/a	n/a	n/a	green
242.7405	0.5167	FEEDBACK	n/a	n/a	n/a	n/a	n/a	n/a	n/a	n/a
243.2572	1.0334	ITI	n/a	n/a	n/a	n/a	n/a	n/a	n/a	n/a
245.7398	n/a	RESPONSE	n/a	n/a	n/a	n/a	n/a	n/a	n/a	n/a
245.8072	1.0167	ITI	n/a	n/a	n/a	n/a	n/a	n/a	n/a	n/a
246.8239	0.5167	FIXCROSS	n/a	n/a	n/a	n/a	n/a	n/a	n/a	n/a
247.3406	0.8333	COLOR_NAME	1	Neutral	żółty	yellow	Neutral	Neutral	hit	n/a
248.1552	n/a	RESPONSE	n/a	n/a	n/a	n/a	n/a	n/a	n/a	yellow
248.1739	1.0167	ITI	n/a	n/a	n/a	n/a	n/a	n/a	n/a	n/a
249.1906	0.5167	FIXCROSS	n/a	n/a	n/a	n/a	n/a	n/a	n/a	n/a
249.7073	0.6833	COLOR_NAME	2	Incongruent	czerwony	red	niebieski	blue	hit	n/a
250.3628	n/a	RESPONSE	n/a	n/a	n/a	n/a	n/a	n/a	n/a	red
250.3906	1.0167	ITI	n/a	n/a	n/a	n/a	n/a	n/a	n/a	n/a
251.4073	0.5167	FIXCROSS	n/a	n/a	n/a	n/a	n/a	n/a	n/a	n/a
251.924	0.85	COLOR_NAME	3	Incongruent	zielony	green	żółty	yellow	hit	n/a
252.7463	n/a	RESPONSE	n/a	n/a	n/a	n/a	n/a	n/a	n/a	green
252.774	1.0167	ITI	n/a	n/a	n/a	n/a	n/a	n/a	n/a	n/a
253.7907	0.5167	FIXCROSS	n/a	n/a	n/a	n/a	n/a	n/a	n/a	n/a
254.3073	0.7333	COLOR_NAME	4	Incongruent	żółty	yellow	czerwony	red	hit	n/a
255.0178	n/a	RESPONSE	n/a	n/a	n/a	n/a	n/a	n/a	n/a	yellow
255.0407	1.0167	ITI	n/a	n/a	n/a	n/a	n/a	n/a	n/a	n/a
256.0574	0.5167	FIXCROSS	n/a	n/a	n/a	n/a	n/a	n/a	n/a	n/a
256.574	0.5167	COLOR_NAME	5	Neutral	czerwony	red	Neutral	Neutral	hit	n/a
257.0654	n/a	RESPONSE	n/a	n/a	n/a	n/a	n/a	n/a	n/a	red
257.0907	1.0167	ITI	n/a	n/a	n/a	n/a	n/a	n/a	n/a	n/a
258.1074	0.5167	FIXCROSS	n/a	n/a	n/a	n/a	n/a	n/a	n/a	n/a
258.6241	1.0667	COLOR_NAME	6	Neutral	niebieski	blue	Neutral	Neutral	hit	n/a
259.6569	n/a	RESPONSE	n/a	n/a	n/a	n/a	n/a	n/a	n/a	blue
259.6907	1.0167	ITI	n/a	n/a	n/a	n/a	n/a	n/a	n/a	n/a
260.7074	0.5167	FIXCROSS	n/a	n/a	n/a	n/a	n/a	n/a	n/a	n/a
261.2241	0.8833	COLOR_NAME	7	Incongruent	zielony	green	czerwony	red	incorrect	n/a
262.0884	n/a	RESPONSE	n/a	n/a	n/a	n/a	n/a	n/a	n/a	red
262.1074	1.0167	ITI	n/a	n/a	n/a	n/a	n/a	n/a	n/a	n/a
263.1241	0.5167	FIXCROSS	n/a	n/a	n/a	n/a	n/a	n/a	n/a	n/a
263.6408	0.8167	COLOR_NAME	8	Incongruent	czerwony	red	żółty	yellow	hit	n/a
264.4399	n/a	RESPONSE	n/a	n/a	n/a	n/a	n/a	n/a	n/a	red
264.4575	1.0167	ITI	n/a	n/a	n/a	n/a	n/a	n/a	n/a	n/a
265.4742	0.5167	FIXCROSS	n/a	n/a	n/a	n/a	n/a	n/a	n/a	n/a
265.9908	0.7333	COLOR_NAME	9	Incongruent	czerwony	red	zielony	green	hit	n/a
266.6954	n/a	RESPONSE	n/a	n/a	n/a	n/a	n/a	n/a	n/a	red
266.7242	1.0167	ITI	n/a	n/a	n/a	n/a	n/a	n/a	n/a	n/a
267.7409	0.5167	FIXCROSS	n/a	n/a	n/a	n/a	n/a	n/a	n/a	n/a
268.2575	0.85	COLOR_NAME	10	Incongruent	zielony	green	niebieski	blue	hit	n/a
269.0789	n/a	RESPONSE	n/a	n/a	n/a	n/a	n/a	n/a	n/a	green
269.1076	1.0167	ITI	n/a	n/a	n/a	n/a	n/a	n/a	n/a	n/a
270.1242	0.5167	FIXCROSS	n/a	n/a	n/a	n/a	n/a	n/a	n/a	n/a
270.6409	0.7833	COLOR_NAME	11	Neutral	niebieski	blue	Neutral	Neutral	hit	n/a
271.3984	n/a	RESPONSE	n/a	n/a	n/a	n/a	n/a	n/a	n/a	blue
271.4242	1.0167	ITI	n/a	n/a	n/a	n/a	n/a	n/a	n/a	n/a
272.4409	0.5167	FIXCROSS	n/a	n/a	n/a	n/a	n/a	n/a	n/a	n/a
272.9576	0.65	COLOR_NAME	12	Neutral	żółty	yellow	Neutral	Neutral	hit	n/a
273.574	n/a	RESPONSE	n/a	n/a	n/a	n/a	n/a	n/a	n/a	yellow
273.6076	1.0167	ITI	n/a	n/a	n/a	n/a	n/a	n/a	n/a	n/a
274.6243	0.5167	FIXCROSS	n/a	n/a	n/a	n/a	n/a	n/a	n/a	n/a
275.141	0.6833	COLOR_NAME	13	Neutral	czerwony	red	Neutral	Neutral	hit	n/a
275.7975	n/a	RESPONSE	n/a	n/a	n/a	n/a	n/a	n/a	n/a	red
275.8243	1.0167	ITI	n/a	n/a	n/a	n/a	n/a	n/a	n/a	n/a
276.841	0.5167	FIXCROSS	n/a	n/a	n/a	n/a	n/a	n/a	n/a	n/a
277.3577	0.7	COLOR_NAME	14	Neutral	żółty	yellow	Neutral	Neutral	hit	n/a
278.037	n/a	RESPONSE	n/a	n/a	n/a	n/a	n/a	n/a	n/a	yellow
278.0577	1.0167	ITI	n/a	n/a	n/a	n/a	n/a	n/a	n/a	n/a
279.0743	0.5167	FIXCROSS	n/a	n/a	n/a	n/a	n/a	n/a	n/a	n/a
279.591	0.6667	COLOR_NAME	15	Neutral	żółty	yellow	Neutral	Neutral	hit	n/a
280.2286	n/a	RESPONSE	n/a	n/a	n/a	n/a	n/a	n/a	n/a	yellow
280.2577	1.0167	ITI	n/a	n/a	n/a	n/a	n/a	n/a	n/a	n/a
281.2744	0.5167	FIXCROSS	n/a	n/a	n/a	n/a	n/a	n/a	n/a	n/a
281.791	0.7167	COLOR_NAME	16	Incongruent	niebieski	blue	czerwony	red	hit	n/a
282.4841	n/a	RESPONSE	n/a	n/a	n/a	n/a	n/a	n/a	n/a	blue
282.5077	1.0167	ITI	n/a	n/a	n/a	n/a	n/a	n/a	n/a	n/a
283.5244	0.5167	FIXCROSS	n/a	n/a	n/a	n/a	n/a	n/a	n/a	n/a
284.0411	0.7834	COLOR_NAME	17	Incongruent	żółty	yellow	zielony	green	hit	n/a
284.8036	n/a	RESPONSE	n/a	n/a	n/a	n/a	n/a	n/a	n/a	yellow
284.8244	1.0167	ITI	n/a	n/a	n/a	n/a	n/a	n/a	n/a	n/a
285.8411	0.5167	FIXCROSS	n/a	n/a	n/a	n/a	n/a	n/a	n/a	n/a
286.3578	1.05	COLOR_NAME	18	Incongruent	zielony	green	żółty	yellow	hit	n/a
287.3791	n/a	RESPONSE	n/a	n/a	n/a	n/a	n/a	n/a	n/a	green
287.4078	1.0167	ITI	n/a	n/a	n/a	n/a	n/a	n/a	n/a	n/a
288.4245	0.5167	FIXCROSS	n/a	n/a	n/a	n/a	n/a	n/a	n/a	n/a
288.9411	0.7667	COLOR_NAME	19	Neutral	czerwony	red	Neutral	Neutral	hit	n/a
289.6826	n/a	RESPONSE	n/a	n/a	n/a	n/a	n/a	n/a	n/a	red
289.7078	1.0167	ITI	n/a	n/a	n/a	n/a	n/a	n/a	n/a	n/a
290.7245	0.5167	FIXCROSS	n/a	n/a	n/a	n/a	n/a	n/a	n/a	n/a
291.2412	0.7333	COLOR_NAME	20	Neutral	zielony	green	Neutral	Neutral	hit	n/a
291.9542	n/a	RESPONSE	n/a	n/a	n/a	n/a	n/a	n/a	n/a	green
291.9745	1.0167	ITI	n/a	n/a	n/a	n/a	n/a	n/a	n/a	n/a
292.9912	0.5167	FIXCROSS	n/a	n/a	n/a	n/a	n/a	n/a	n/a	n/a
293.5079	0.9167	COLOR_NAME	21	Incongruent	czerwony	red	zielony	green	hit	n/a
294.4016	n/a	RESPONSE	n/a	n/a	n/a	n/a	n/a	n/a	n/a	red
294.4246	1.0167	ITI	n/a	n/a	n/a	n/a	n/a	n/a	n/a	n/a
295.4412	0.5167	FIXCROSS	n/a	n/a	n/a	n/a	n/a	n/a	n/a	n/a
295.9579	0.5333	COLOR_NAME	22	Incongruent	czerwony	red	zielony	green	hit	n/a
296.4652	n/a	RESPONSE	n/a	n/a	n/a	n/a	n/a	n/a	n/a	red
296.4912	1.0167	ITI	n/a	n/a	n/a	n/a	n/a	n/a	n/a	n/a
297.5079	0.5167	FIXCROSS	n/a	n/a	n/a	n/a	n/a	n/a	n/a	n/a
298.0246	0.8833	COLOR_NAME	23	Neutral	niebieski	blue	Neutral	Neutral	hit	n/a
298.8808	n/a	RESPONSE	n/a	n/a	n/a	n/a	n/a	n/a	n/a	blue
298.9079	1.0167	ITI	n/a	n/a	n/a	n/a	n/a	n/a	n/a	n/a
299.9246	0.5167	FIXCROSS	n/a	n/a	n/a	n/a	n/a	n/a	n/a	n/a
300.4413	0.7833	COLOR_NAME	24	Neutral	czerwony	red	Neutral	Neutral	hit	n/a
301.2002	n/a	RESPONSE	n/a	n/a	n/a	n/a	n/a	n/a	n/a	red
301.2246	1.0167	ITI	n/a	n/a	n/a	n/a	n/a	n/a	n/a	n/a
302.2413	0.5167	FIXCROSS	n/a	n/a	n/a	n/a	n/a	n/a	n/a	n/a
302.758	0.6833	COLOR_NAME	25	Neutral	zielony	green	Neutral	Neutral	hit	n/a
303.4238	n/a	RESPONSE	n/a	n/a	n/a	n/a	n/a	n/a	n/a	green
303.4413	1.0167	ITI	n/a	n/a	n/a	n/a	n/a	n/a	n/a	n/a
304.458	0.5167	FIXCROSS	n/a	n/a	n/a	n/a	n/a	n/a	n/a	n/a
304.9747	0.6167	COLOR_NAME	26	Neutral	zielony	green	Neutral	Neutral	hit	n/a
305.5673	n/a	RESPONSE	n/a	n/a	n/a	n/a	n/a	n/a	n/a	green
305.5914	1.0167	ITI	n/a	n/a	n/a	n/a	n/a	n/a	n/a	n/a
306.6081	0.5167	FIXCROSS	n/a	n/a	n/a	n/a	n/a	n/a	n/a	n/a
307.1247	0.75	COLOR_NAME	27	Neutral	żółty	yellow	Neutral	Neutral	hit	n/a
307.8548	n/a	RESPONSE	n/a	n/a	n/a	n/a	n/a	n/a	n/a	yellow
307.8747	1.0167	ITI	n/a	n/a	n/a	n/a	n/a	n/a	n/a	n/a
308.8914	0.5167	FIXCROSS	n/a	n/a	n/a	n/a	n/a	n/a	n/a	n/a
309.4081	1.2333	COLOR_NAME	28	Incongruent	niebieski	blue	czerwony	red	hit	n/a
310.6222	n/a	RESPONSE	n/a	n/a	n/a	n/a	n/a	n/a	n/a	blue
310.6414	1.0167	ITI	n/a	n/a	n/a	n/a	n/a	n/a	n/a	n/a
311.6581	0.5167	FIXCROSS	n/a	n/a	n/a	n/a	n/a	n/a	n/a	n/a
312.1748	0.8667	COLOR_NAME	29	Neutral	żółty	yellow	Neutral	Neutral	hit	n/a
313.0218	n/a	RESPONSE	n/a	n/a	n/a	n/a	n/a	n/a	n/a	yellow
313.0415	1.0167	ITI	n/a	n/a	n/a	n/a	n/a	n/a	n/a	n/a
314.0582	0.5167	FIXCROSS	n/a	n/a	n/a	n/a	n/a	n/a	n/a	n/a
314.5748	0.7333	COLOR_NAME	30	Neutral	niebieski	blue	Neutral	Neutral	hit	n/a
315.2773	n/a	RESPONSE	n/a	n/a	n/a	n/a	n/a	n/a	n/a	blue
315.3082	1.0167	ITI	n/a	n/a	n/a	n/a	n/a	n/a	n/a	n/a
316.3249	0.5167	FIXCROSS	n/a	n/a	n/a	n/a	n/a	n/a	n/a	n/a
316.8415	0.5667	COLOR_NAME	31	Neutral	niebieski	blue	Neutral	Neutral	hit	n/a
317.3889	n/a	RESPONSE	n/a	n/a	n/a	n/a	n/a	n/a	n/a	blue
317.4082	1.0167	ITI	n/a	n/a	n/a	n/a	n/a	n/a	n/a	n/a
318.4249	0.5167	FIXCROSS	n/a	n/a	n/a	n/a	n/a	n/a	n/a	n/a
318.9416	0.8	COLOR_NAME	32	Neutral	zielony	green	Neutral	Neutral	hit	n/a
319.7084	n/a	RESPONSE	n/a	n/a	n/a	n/a	n/a	n/a	n/a	green
319.7416	1.0167	ITI	n/a	n/a	n/a	n/a	n/a	n/a	n/a	n/a
320.7582	0.5167	FIXCROSS	n/a	n/a	n/a	n/a	n/a	n/a	n/a	n/a
321.2749	0.8333	COLOR_NAME	33	Incongruent	żółty	yellow	niebieski	blue	hit	n/a
322.0759	n/a	RESPONSE	n/a	n/a	n/a	n/a	n/a	n/a	n/a	yellow
322.1083	1.0167	ITI	n/a	n/a	n/a	n/a	n/a	n/a	n/a	n/a
323.1249	0.5167	FIXCROSS	n/a	n/a	n/a	n/a	n/a	n/a	n/a	n/a
323.6416	0.9	COLOR_NAME	34	Incongruent	niebieski	blue	żółty	yellow	hit	n/a
324.5234	n/a	RESPONSE	n/a	n/a	n/a	n/a	n/a	n/a	n/a	blue
324.5416	1.0167	ITI	n/a	n/a	n/a	n/a	n/a	n/a	n/a	n/a
325.5583	0.5167	FIXCROSS	n/a	n/a	n/a	n/a	n/a	n/a	n/a	n/a
326.075	0.7	COLOR_NAME	35	Neutral	czerwony	red	Neutral	Neutral	hit	n/a
326.7469	n/a	RESPONSE	n/a	n/a	n/a	n/a	n/a	n/a	n/a	red
326.775	1.0167	ITI	n/a	n/a	n/a	n/a	n/a	n/a	n/a	n/a
327.7917	0.5167	FIXCROSS	n/a	n/a	n/a	n/a	n/a	n/a	n/a	n/a
328.3083	0.8	COLOR_NAME	36	Incongruent	niebieski	blue	czerwony	red	hit	n/a
329.0824	n/a	RESPONSE	n/a	n/a	n/a	n/a	n/a	n/a	n/a	blue
329.1084	1.0167	ITI	n/a	n/a	n/a	n/a	n/a	n/a	n/a	n/a
330.125	0.5167	FIXCROSS	n/a	n/a	n/a	n/a	n/a	n/a	n/a	n/a
330.6417	0.6167	COLOR_NAME	37	Incongruent	niebieski	blue	zielony	green	hit	n/a
331.226	n/a	RESPONSE	n/a	n/a	n/a	n/a	n/a	n/a	n/a	blue
331.2584	1.0167	ITI	n/a	n/a	n/a	n/a	n/a	n/a	n/a	n/a
332.2751	0.5167	FIXCROSS	n/a	n/a	n/a	n/a	n/a	n/a	n/a	n/a
332.7918	0.9	COLOR_NAME	38	Incongruent	zielony	green	żółty	yellow	hit	n/a
333.6575	n/a	RESPONSE	n/a	n/a	n/a	n/a	n/a	n/a	n/a	green
333.6918	1.0167	ITI	n/a	n/a	n/a	n/a	n/a	n/a	n/a	n/a
334.7084	0.5167	FIXCROSS	n/a	n/a	n/a	n/a	n/a	n/a	n/a	n/a
335.2251	0.9167	COLOR_NAME	39	Incongruent	czerwony	red	niebieski	blue	hit	n/a
336.1209	n/a	RESPONSE	n/a	n/a	n/a	n/a	n/a	n/a	n/a	red
336.1418	1.0167	ITI	n/a	n/a	n/a	n/a	n/a	n/a	n/a	n/a
337.1585	0.5167	FIXCROSS	n/a	n/a	n/a	n/a	n/a	n/a	n/a	n/a
337.6751	0.7333	COLOR_NAME	40	Neutral	niebieski	blue	Neutral	Neutral	hit	n/a
338.3765	n/a	RESPONSE	n/a	n/a	n/a	n/a	n/a	n/a	n/a	blue
338.4085	1.0167	ITI	n/a	n/a	n/a	n/a	n/a	n/a	n/a	n/a
339.4252	0.5167	FIXCROSS	n/a	n/a	n/a	n/a	n/a	n/a	n/a	n/a
339.9418	0.75	COLOR_NAME	41	Neutral	zielony	green	Neutral	Neutral	hit	n/a
340.664	n/a	RESPONSE	n/a	n/a	n/a	n/a	n/a	n/a	n/a	green
340.6919	1.0167	ITI	n/a	n/a	n/a	n/a	n/a	n/a	n/a	n/a
341.7085	0.5167	FIXCROSS	n/a	n/a	n/a	n/a	n/a	n/a	n/a	n/a
342.2252	0.6333	COLOR_NAME	42	Neutral	zielony	green	Neutral	Neutral	hit	n/a
342.8396	n/a	RESPONSE	n/a	n/a	n/a	n/a	n/a	n/a	n/a	green
342.8585	1.0167	ITI	n/a	n/a	n/a	n/a	n/a	n/a	n/a	n/a
343.8752	0.5167	FIXCROSS	n/a	n/a	n/a	n/a	n/a	n/a	n/a	n/a
344.3919	0.5	COLOR_NAME	43	Neutral	zielony	green	Neutral	Neutral	hit	n/a
344.8712	n/a	RESPONSE	n/a	n/a	n/a	n/a	n/a	n/a	n/a	green
344.8919	1.0167	ITI	n/a	n/a	n/a	n/a	n/a	n/a	n/a	n/a
345.9086	0.5167	FIXCROSS	n/a	n/a	n/a	n/a	n/a	n/a	n/a	n/a
346.4253	0.5333	COLOR_NAME	44	Incongruent	zielony	green	niebieski	blue	hit	n/a
346.9347	n/a	RESPONSE	n/a	n/a	n/a	n/a	n/a	n/a	n/a	green
346.9586	1.0167	ITI	n/a	n/a	n/a	n/a	n/a	n/a	n/a	n/a
347.9753	0.5167	FIXCROSS	n/a	n/a	n/a	n/a	n/a	n/a	n/a	n/a
348.492	0.7	COLOR_NAME	45	Neutral	niebieski	blue	Neutral	Neutral	hit	n/a
349.1742	n/a	RESPONSE	n/a	n/a	n/a	n/a	n/a	n/a	n/a	blue
349.192	1.0167	ITI	n/a	n/a	n/a	n/a	n/a	n/a	n/a	n/a
350.2086	0.5167	FIXCROSS	n/a	n/a	n/a	n/a	n/a	n/a	n/a	n/a
350.7253	0.6167	COLOR_NAME	46	Incongruent	żółty	yellow	zielony	green	hit	n/a
351.3178	n/a	RESPONSE	n/a	n/a	n/a	n/a	n/a	n/a	n/a	yellow
351.342	1.0167	ITI	n/a	n/a	n/a	n/a	n/a	n/a	n/a	n/a
352.3587	0.5167	FIXCROSS	n/a	n/a	n/a	n/a	n/a	n/a	n/a	n/a
352.8753	0.7	COLOR_NAME	47	Incongruent	żółty	yellow	czerwony	red	hit	n/a
353.5574	n/a	RESPONSE	n/a	n/a	n/a	n/a	n/a	n/a	n/a	yellow
353.5754	1.0167	ITI	n/a	n/a	n/a	n/a	n/a	n/a	n/a	n/a
354.592	0.5167	FIXCROSS	n/a	n/a	n/a	n/a	n/a	n/a	n/a	n/a
355.1087	0.7167	COLOR_NAME	48	Incongruent	niebieski	blue	żółty	yellow	hit	n/a
355.7969	n/a	RESPONSE	n/a	n/a	n/a	n/a	n/a	n/a	n/a	blue
355.8254	1.0167	ITI	n/a	n/a	n/a	n/a	n/a	n/a	n/a	n/a
356.8421	0.5167	FIXCROSS	n/a	n/a	n/a	n/a	n/a	n/a	n/a	n/a
357.3587	0.5833	COLOR_NAME	49	Incongruent	żółty	yellow	niebieski	blue	hit	n/a
357.9085	n/a	RESPONSE	n/a	n/a	n/a	n/a	n/a	n/a	n/a	yellow
357.9421	1.0167	ITI	n/a	n/a	n/a	n/a	n/a	n/a	n/a	n/a
358.9588	0.5167	FIXCROSS	n/a	n/a	n/a	n/a	n/a	n/a	n/a	n/a
359.4754	1.0833	COLOR_NAME	50	Incongruent	czerwony	red	żółty	yellow	hit	n/a
360.5319	n/a	RESPONSE	n/a	n/a	n/a	n/a	n/a	n/a	n/a	red
360.5588	1.0167	ITI	n/a	n/a	n/a	n/a	n/a	n/a	n/a	n/a
361.5755	0.5167	FIXCROSS	n/a	n/a	n/a	n/a	n/a	n/a	n/a	n/a
362.0921	0.6833	COLOR_NAME	51	Neutral	czerwony	red	Neutral	Neutral	hit	n/a
362.7554	n/a	RESPONSE	n/a	n/a	n/a	n/a	n/a	n/a	n/a	red
362.7755	1.0167	ITI	n/a	n/a	n/a	n/a	n/a	n/a	n/a	n/a
363.7922	0.5167	FIXCROSS	n/a	n/a	n/a	n/a	n/a	n/a	n/a	n/a
364.3088	1.2	COLOR_NAME	52	Neutral	zielony	green	Neutral	Neutral	hit	n/a
365.4908	n/a	RESPONSE	n/a	n/a	n/a	n/a	n/a	n/a	n/a	green
365.5089	1.0167	ITI	n/a	n/a	n/a	n/a	n/a	n/a	n/a	n/a
366.5255	0.5167	FIXCROSS	n/a	n/a	n/a	n/a	n/a	n/a	n/a	n/a
367.0422	0.6167	COLOR_NAME	53	Neutral	żółty	yellow	Neutral	Neutral	hit	n/a
367.6344	n/a	RESPONSE	n/a	n/a	n/a	n/a	n/a	n/a	n/a	yellow
367.6589	1.0167	ITI	n/a	n/a	n/a	n/a	n/a	n/a	n/a	n/a
368.6756	0.5167	FIXCROSS	n/a	n/a	n/a	n/a	n/a	n/a	n/a	n/a
369.1922	0.7833	COLOR_NAME	54	Incongruent	czerwony	red	niebieski	blue	hit	n/a
369.9539	n/a	RESPONSE	n/a	n/a	n/a	n/a	n/a	n/a	n/a	red
369.9756	1.0167	ITI	n/a	n/a	n/a	n/a	n/a	n/a	n/a	n/a
370.9923	0.5167	FIXCROSS	n/a	n/a	n/a	n/a	n/a	n/a	n/a	n/a
371.5089	0.65	COLOR_NAME	55	Incongruent	żółty	yellow	czerwony	red	hit	n/a
372.1295	n/a	RESPONSE	n/a	n/a	n/a	n/a	n/a	n/a	n/a	yellow
372.159	1.0167	ITI	n/a	n/a	n/a	n/a	n/a	n/a	n/a	n/a
373.1756	0.5167	FIXCROSS	n/a	n/a	n/a	n/a	n/a	n/a	n/a	n/a
373.6923	0.6667	COLOR_NAME	56	Neutral	czerwony	red	Neutral	Neutral	hit	n/a
374.337	n/a	RESPONSE	n/a	n/a	n/a	n/a	n/a	n/a	n/a	red
374.359	1.0167	ITI	n/a	n/a	n/a	n/a	n/a	n/a	n/a	n/a
375.3757	0.5167	FIXCROSS	n/a	n/a	n/a	n/a	n/a	n/a	n/a	n/a
375.8923	0.55	COLOR_NAME	57	Neutral	czerwony	red	Neutral	Neutral	hit	n/a
376.4166	n/a	RESPONSE	n/a	n/a	n/a	n/a	n/a	n/a	n/a	red
376.4423	1.0167	ITI	n/a	n/a	n/a	n/a	n/a	n/a	n/a	n/a
377.459	0.5167	FIXCROSS	n/a	n/a	n/a	n/a	n/a	n/a	n/a	n/a
377.9757	0.95	COLOR_NAME	58	Incongruent	niebieski	blue	zielony	green	hit	n/a
378.8961	n/a	RESPONSE	n/a	n/a	n/a	n/a	n/a	n/a	n/a	blue
378.9257	1.0167	ITI	n/a	n/a	n/a	n/a	n/a	n/a	n/a	n/a
379.9424	0.5167	FIXCROSS	n/a	n/a	n/a	n/a	n/a	n/a	n/a	n/a
380.4591	0.7167	COLOR_NAME	59	Incongruent	żółty	yellow	zielony	green	hit	n/a
381.1516	n/a	RESPONSE	n/a	n/a	n/a	n/a	n/a	n/a	n/a	yellow
381.1757	1.0167	ITI	n/a	n/a	n/a	n/a	n/a	n/a	n/a	n/a
382.1924	0.5167	FIXCROSS	n/a	n/a	n/a	n/a	n/a	n/a	n/a	n/a
382.7091	0.5167	COLOR_NAME	60	Incongruent	żółty	yellow	niebieski	blue	hit	n/a
383.1992	n/a	RESPONSE	n/a	n/a	n/a	n/a	n/a	n/a	n/a	yellow
383.2258	1.0167	ITI	n/a	n/a	n/a	n/a	n/a	n/a	n/a	n/a
384.2424	0.5167	FIXCROSS	n/a	n/a	n/a	n/a	n/a	n/a	n/a	n/a
384.7591	0.8167	COLOR_NAME	61	Incongruent	czerwony	red	żółty	yellow	hit	n/a
385.5507	n/a	RESPONSE	n/a	n/a	n/a	n/a	n/a	n/a	n/a	red
385.5758	1.0167	ITI	n/a	n/a	n/a	n/a	n/a	n/a	n/a	n/a
386.5925	0.5167	FIXCROSS	n/a	n/a	n/a	n/a	n/a	n/a	n/a	n/a
387.1092	1.4167	COLOR_NAME	62	Incongruent	niebieski	blue	żółty	yellow	hit	n/a
388.4941	n/a	RESPONSE	n/a	n/a	n/a	n/a	n/a	n/a	n/a	blue
388.5258	1.0167	ITI	n/a	n/a	n/a	n/a	n/a	n/a	n/a	n/a
389.5425	0.5167	FIXCROSS	n/a	n/a	n/a	n/a	n/a	n/a	n/a	n/a
390.0592	0.7667	COLOR_NAME	63	Neutral	zielony	green	Neutral	Neutral	hit	n/a
390.7976	n/a	RESPONSE	n/a	n/a	n/a	n/a	n/a	n/a	n/a	green
390.8259	1.0167	ITI	n/a	n/a	n/a	n/a	n/a	n/a	n/a	n/a
391.8425	0.5167	FIXCROSS	n/a	n/a	n/a	n/a	n/a	n/a	n/a	n/a
392.3592	0.6833	COLOR_NAME	64	Neutral	czerwony	red	Neutral	Neutral	hit	n/a
393.0212	n/a	RESPONSE	n/a	n/a	n/a	n/a	n/a	n/a	n/a	red
393.0426	1.0167	ITI	n/a	n/a	n/a	n/a	n/a	n/a	n/a	n/a
394.0592	0.5167	FIXCROSS	n/a	n/a	n/a	n/a	n/a	n/a	n/a	n/a
394.5759	0.7667	COLOR_NAME	65	Incongruent	zielony	green	niebieski	blue	hit	n/a
395.3247	n/a	RESPONSE	n/a	n/a	n/a	n/a	n/a	n/a	n/a	green
395.3426	1.0167	ITI	n/a	n/a	n/a	n/a	n/a	n/a	n/a	n/a
396.3593	0.5167	FIXCROSS	n/a	n/a	n/a	n/a	n/a	n/a	n/a	n/a
396.876	0.4667	COLOR_NAME	66	Neutral	żółty	yellow	Neutral	Neutral	hit	n/a
397.3243	n/a	RESPONSE	n/a	n/a	n/a	n/a	n/a	n/a	n/a	yellow
397.3426	1.0167	ITI	n/a	n/a	n/a	n/a	n/a	n/a	n/a	n/a
398.3593	0.5167	FIXCROSS	n/a	n/a	n/a	n/a	n/a	n/a	n/a	n/a
398.876	0.8333	COLOR_NAME	67	Neutral	niebieski	blue	Neutral	Neutral	hit	n/a
399.6758	n/a	RESPONSE	n/a	n/a	n/a	n/a	n/a	n/a	n/a	blue
399.7093	1.0167	ITI	n/a	n/a	n/a	n/a	n/a	n/a	n/a	n/a
400.726	0.5167	FIXCROSS	n/a	n/a	n/a	n/a	n/a	n/a	n/a	n/a
401.2427	0.8167	COLOR_NAME	68	Incongruent	zielony	green	czerwony	red	hit	n/a
402.0272	n/a	RESPONSE	n/a	n/a	n/a	n/a	n/a	n/a	n/a	green
402.0594	1.0167	ITI	n/a	n/a	n/a	n/a	n/a	n/a	n/a	n/a
403.076	0.5167	FIXCROSS	n/a	n/a	n/a	n/a	n/a	n/a	n/a	n/a
403.5927	0.7667	COLOR_NAME	69	Neutral	niebieski	blue	Neutral	Neutral	hit	n/a
404.3308	n/a	RESPONSE	n/a	n/a	n/a	n/a	n/a	n/a	n/a	blue
404.3594	1.0167	ITI	n/a	n/a	n/a	n/a	n/a	n/a	n/a	n/a
405.3761	0.5167	FIXCROSS	n/a	n/a	n/a	n/a	n/a	n/a	n/a	n/a
405.8927	0.6667	COLOR_NAME	70	Neutral	żółty	yellow	Neutral	Neutral	hit	n/a
406.5384	n/a	RESPONSE	n/a	n/a	n/a	n/a	n/a	n/a	n/a	yellow
406.5594	1.0167	ITI	n/a	n/a	n/a	n/a	n/a	n/a	n/a	n/a
407.5761	0.5167	FIXCROSS	n/a	n/a	n/a	n/a	n/a	n/a	n/a	n/a
408.0928	0.85	COLOR_NAME	71	Incongruent	zielony	green	czerwony	red	hit	n/a
408.9218	n/a	RESPONSE	n/a	n/a	n/a	n/a	n/a	n/a	n/a	green
408.9428	1.0167	ITI	n/a	n/a	n/a	n/a	n/a	n/a	n/a	n/a
409.9595	0.5167	FIXCROSS	n/a	n/a	n/a	n/a	n/a	n/a	n/a	n/a
410.4761	0.9833	COLOR_NAME	72	Incongruent	niebieski	blue	zielony	green	hit	n/a
411.4333	n/a	RESPONSE	n/a	n/a	n/a	n/a	n/a	n/a	n/a	blue
411.4595	1.0334	ITI	n/a	n/a	n/a	n/a	n/a	n/a	n/a	n/a
414.5847	n/a	RESPONSE	n/a	n/a	n/a	n/a	n/a	n/a	n/a	n/a
