onset	duration	trial_type	melody_number	melody_part	key	sound	action
0.0	14.086	CUE_START	n/a	n/a	n/a	n/a	n/a
14.086	7.76	FIXCROSS	n/a	n/a	n/a	n/a	n/a
21.846	6.315	CUE_LISTEN	M3	1	n/a	n/a	n/a
28.161	7.758	FIXCROSS	n/a	n/a	n/a	n/a	n/a
35.92	6.325	CUE_PLAYBACK_BOTH_HANDS	M3	1	n/a	n/a	n/a
37.346	n/a	RESPONSE	M3	1	00	C3	press
37.356	n/a	RESPONSE	M3	1	12	C4	press
37.824	n/a	RESPONSE	M3	1	07	G3	press
37.854	n/a	RESPONSE	M3	1	14	D4	press
38.055	n/a	RESPONSE	M3	1	00	C3	release
38.067	n/a	RESPONSE	M3	1	12	C4	release
38.315	n/a	RESPONSE	M3	1	16	E4	press
38.332	n/a	RESPONSE	M3	1	04	E3	press
38.371	n/a	RESPONSE	M3	1	14	D4	release
38.425	n/a	RESPONSE	M3	1	07	G3	release
38.802	n/a	RESPONSE	M3	1	07	G3	press
38.842	n/a	RESPONSE	M3	1	12	C4	press
38.906	n/a	RESPONSE	M3	1	04	E3	release
38.94	n/a	RESPONSE	M3	1	16	E4	release
39.092	n/a	RESPONSE	M3	1	12	C4	release
39.118	n/a	RESPONSE	M3	1	07	G3	release
39.288	n/a	RESPONSE	M3	1	00	C3	press
39.317	n/a	RESPONSE	M3	1	12	C4	press
39.788	n/a	RESPONSE	M3	1	07	G3	press
39.81	n/a	RESPONSE	M3	1	14	D4	press
39.921	n/a	RESPONSE	M3	1	00	C3	release
40.002	n/a	RESPONSE	M3	1	12	C4	release
40.305	n/a	RESPONSE	M3	1	16	E4	press
40.316	n/a	RESPONSE	M3	1	04	E3	press
40.396	n/a	RESPONSE	M3	1	14	D4	release
40.41	n/a	RESPONSE	M3	1	07	G3	release
40.778	n/a	RESPONSE	M3	1	07	G3	press
40.79	n/a	RESPONSE	M3	1	12	C4	press
40.822	n/a	RESPONSE	M3	1	04	E3	release
40.835	n/a	RESPONSE	M3	1	16	E4	release
41.145	n/a	RESPONSE	M3	1	07	G3	release
41.157	n/a	RESPONSE	M3	1	12	C4	release
42.245	7.758	FIXCROSS	n/a	n/a	n/a	n/a	n/a
50.003	6.316	CUE_LISTEN	M3	2	n/a	n/a	n/a
56.32	7.759	FIXCROSS	n/a	n/a	n/a	n/a	n/a
64.078	6.317	CUE_PLAYBACK_BOTH_HANDS	M3	2	n/a	n/a	n/a
64.936	n/a	RESPONSE	M3	2	00	C3	press
64.948	n/a	RESPONSE	M3	2	16	E4	press
65.499	n/a	RESPONSE	M3	2	07	G3	press
65.52	n/a	RESPONSE	M3	2	17	F4	press
65.632	n/a	RESPONSE	M3	2	16	E4	release
65.672	n/a	RESPONSE	M3	2	00	C3	release
66.004	n/a	RESPONSE	M3	2	19	G4	press
66.035	n/a	RESPONSE	M3	2	04	E3	press
66.108	n/a	RESPONSE	M3	2	17	F4	release
66.114	n/a	RESPONSE	M3	2	07	G3	release
66.552	n/a	RESPONSE	M3	2	07	G3	press
66.626	n/a	RESPONSE	M3	2	04	E3	release
66.858	n/a	RESPONSE	M3	2	07	G3	release
66.871	n/a	RESPONSE	M3	2	19	G4	release
67.077	n/a	RESPONSE	M3	2	00	C3	press
67.112	n/a	RESPONSE	M3	2	16	E4	press
67.606	n/a	RESPONSE	M3	2	17	F4	press
67.618	n/a	RESPONSE	M3	2	07	G3	press
67.722	n/a	RESPONSE	M3	2	00	C3	release
67.746	n/a	RESPONSE	M3	2	16	E4	release
68.137	n/a	RESPONSE	M3	2	04	E3	press
68.202	n/a	RESPONSE	M3	2	19	G4	press
68.27	n/a	RESPONSE	M3	2	07	G3	release
68.318	n/a	RESPONSE	M3	2	17	F4	release
68.677	n/a	RESPONSE	M3	2	07	G3	press
68.734	n/a	RESPONSE	M3	2	04	E3	release
69.096	n/a	RESPONSE	M3	2	19	G4	release
69.126	n/a	RESPONSE	M3	2	07	G3	release
70.395	7.758	FIXCROSS	n/a	n/a	n/a	n/a	n/a
78.153	6.325	CUE_LISTEN	M3	1	n/a	n/a	n/a
84.478	7.758	FIXCROSS	n/a	n/a	n/a	n/a	n/a
92.236	6.317	CUE_PLAYBACK_BOTH_HANDS	M3	1	n/a	n/a	n/a
92.858	n/a	RESPONSE	M3	1	00	C3	press
92.861	n/a	RESPONSE	M3	1	19	G4	press
93.174	n/a	RESPONSE	M3	1	21	A4	press
93.192	n/a	RESPONSE	M3	1	07	G3	press
93.274	n/a	RESPONSE	M3	1	19	G4	release
93.495	n/a	RESPONSE	M3	1	00	C3	release
93.506	n/a	RESPONSE	M3	1	07	G3	release
93.508	n/a	RESPONSE	M3	1	21	A4	release
93.511	n/a	RESPONSE	M3	1	19	G4	press
93.57	n/a	RESPONSE	M3	1	00	C3	press
93.672	n/a	RESPONSE	M3	1	00	C3	release
93.912	n/a	RESPONSE	M3	1	17	F4	press
93.924	n/a	RESPONSE	M3	1	07	G3	press
94.005	n/a	RESPONSE	M3	1	19	G4	release
94.196	n/a	RESPONSE	M3	1	04	E3	press
94.237	n/a	RESPONSE	M3	1	16	E4	press
94.261	n/a	RESPONSE	M3	1	07	G3	release
94.431	n/a	RESPONSE	M3	1	17	F4	release
94.741	n/a	RESPONSE	M3	1	07	G3	press
94.752	n/a	RESPONSE	M3	1	12	C4	press
94.786	n/a	RESPONSE	M3	1	14	D4	press
94.815	n/a	RESPONSE	M3	1	04	E3	release
94.826	n/a	RESPONSE	M3	1	16	E4	release
94.96	n/a	RESPONSE	M3	1	14	D4	release
95.03	n/a	RESPONSE	M3	1	12	C4	release
95.052	n/a	RESPONSE	M3	1	07	G3	release
95.321	n/a	RESPONSE	M3	1	00	C3	press
95.324	n/a	RESPONSE	M3	1	19	G4	press
95.594	n/a	RESPONSE	M3	1	21	A4	press
95.675	n/a	RESPONSE	M3	1	19	G4	release
95.836	n/a	RESPONSE	M3	1	21	A4	release
95.897	n/a	RESPONSE	M3	1	19	G4	press
95.92	n/a	RESPONSE	M3	1	07	G3	press
95.961	n/a	RESPONSE	M3	1	00	C3	release
96.06	n/a	RESPONSE	M3	1	17	F4	press
96.175	n/a	RESPONSE	M3	1	19	G4	release
96.437	n/a	RESPONSE	M3	1	04	E3	press
96.465	n/a	RESPONSE	M3	1	16	E4	press
96.498	n/a	RESPONSE	M3	1	07	G3	release
96.705	n/a	RESPONSE	M3	1	17	F4	release
97.002	n/a	RESPONSE	M3	1	07	G3	press
97.044	n/a	RESPONSE	M3	1	12	C4	press
97.116	n/a	RESPONSE	M3	1	04	E3	release
97.124	n/a	RESPONSE	M3	1	16	E4	release
97.382	n/a	RESPONSE	M3	1	12	C4	release
97.401	n/a	RESPONSE	M3	1	07	G3	release
98.553	7.758	FIXCROSS	n/a	n/a	n/a	n/a	n/a
106.312	6.317	CUE_LISTEN	M3	2	n/a	n/a	n/a
112.628	7.758	FIXCROSS	n/a	n/a	n/a	n/a	n/a
120.387	6.325	CUE_PLAYBACK_BOTH_HANDS	M3	2	n/a	n/a	n/a
121.038	n/a	RESPONSE	M3	2	00	C3	press
121.071	n/a	RESPONSE	M3	2	12	C4	press
121.482	n/a	RESPONSE	M3	2	00	C3	release
121.544	n/a	RESPONSE	M3	2	12	C4	release
121.647	n/a	RESPONSE	M3	2	07	G3	press
122.016	n/a	RESPONSE	M3	2	07	G3	release
122.157	n/a	RESPONSE	M3	2	00	C3	press
122.168	n/a	RESPONSE	M3	2	12	C4	press
122.79	n/a	RESPONSE	M3	2	12	C4	release
122.801	n/a	RESPONSE	M3	2	00	C3	release
123.172	n/a	RESPONSE	M3	2	00	C3	press
123.194	n/a	RESPONSE	M3	2	12	C4	press
123.625	n/a	RESPONSE	M3	2	12	C4	release
123.716	n/a	RESPONSE	M3	2	00	C3	release
123.747	n/a	RESPONSE	M3	2	07	G3	press
124.108	n/a	RESPONSE	M3	2	07	G3	release
124.27	n/a	RESPONSE	M3	2	00	C3	press
124.281	n/a	RESPONSE	M3	2	12	C4	press
124.952	n/a	RESPONSE	M3	2	12	C4	release
125.044	n/a	RESPONSE	M3	2	00	C3	release
126.712	7.758	FIXCROSS	n/a	n/a	n/a	n/a	n/a
134.47	6.317	CUE_LISTEN	M1	1	n/a	n/a	n/a
140.786	7.758	FIXCROSS	n/a	n/a	n/a	n/a	n/a
148.545	6.317	CUE_PLAYBACK_BOTH_HANDS	M1	1	n/a	n/a	n/a
149.152	n/a	RESPONSE	M1	1	19	G4	press
149.155	n/a	RESPONSE	M1	1	00	C3	press
149.157	n/a	RESPONSE	M1	1	04	E3	press
149.17	n/a	RESPONSE	M1	1	07	G3	press
149.615	n/a	RESPONSE	M1	1	16	E4	press
149.772	n/a	RESPONSE	M1	1	19	G4	release
149.896	n/a	RESPONSE	M1	1	16	E4	release
150.037	n/a	RESPONSE	M1	1	16	E4	press
150.286	n/a	RESPONSE	M1	1	00	C3	release
150.337	n/a	RESPONSE	M1	1	04	E3	release
150.358	n/a	RESPONSE	M1	1	16	E4	release
150.42	n/a	RESPONSE	M1	1	07	G3	release
150.881	n/a	RESPONSE	M1	1	05	F3	press
150.892	n/a	RESPONSE	M1	1	02	D3	press
150.904	n/a	RESPONSE	M1	1	07	G3	press
150.935	n/a	RESPONSE	M1	1	17	F4	press
151.427	n/a	RESPONSE	M1	1	14	D4	press
151.648	n/a	RESPONSE	M1	1	14	D4	release
151.682	n/a	RESPONSE	M1	1	17	F4	release
151.841	n/a	RESPONSE	M1	1	14	D4	press
152.152	n/a	RESPONSE	M1	1	14	D4	release
152.174	n/a	RESPONSE	M1	1	02	D3	release
152.207	n/a	RESPONSE	M1	1	07	G3	release
152.296	n/a	RESPONSE	M1	1	05	F3	release
152.677	n/a	RESPONSE	M1	1	04	E3	press
152.681	n/a	RESPONSE	M1	1	00	C3	press
152.71	n/a	RESPONSE	M1	1	07	G3	press
152.721	n/a	RESPONSE	M1	1	12	C4	press
153.142	n/a	RESPONSE	M1	1	16	E4	press
153.254	n/a	RESPONSE	M1	1	12	C4	release
153.555	n/a	RESPONSE	M1	1	19	G4	press
153.638	n/a	RESPONSE	M1	1	16	E4	release
154.077	n/a	RESPONSE	M1	1	19	G4	release
154.228	n/a	RESPONSE	M1	1	07	G3	release
154.28	n/a	RESPONSE	M1	1	00	C3	release
154.392	n/a	RESPONSE	M1	1	04	E3	release
154.862	7.758	FIXCROSS	n/a	n/a	n/a	n/a	n/a
162.62	6.325	CUE_LISTEN	M1	2	n/a	n/a	n/a
168.945	7.758	FIXCROSS	n/a	n/a	n/a	n/a	n/a
176.703	6.317	CUE_PLAYBACK_BOTH_HANDS	M1	2	n/a	n/a	n/a
177.447	n/a	RESPONSE	M1	2	04	E3	press
177.461	n/a	RESPONSE	M1	2	19	G4	press
177.465	n/a	RESPONSE	M1	2	07	G3	press
177.481	n/a	RESPONSE	M1	2	00	C3	press
177.892	n/a	RESPONSE	M1	2	16	E4	press
177.991	n/a	RESPONSE	M1	2	19	G4	release
178.147	n/a	RESPONSE	M1	2	16	E4	release
178.345	n/a	RESPONSE	M1	2	16	E4	press
178.586	n/a	RESPONSE	M1	2	00	C3	release
178.601	n/a	RESPONSE	M1	2	16	E4	release
178.658	n/a	RESPONSE	M1	2	04	E3	release
178.677	n/a	RESPONSE	M1	2	07	G3	release
178.964	n/a	RESPONSE	M1	2	05	F3	press
178.966	n/a	RESPONSE	M1	2	17	F4	press
178.975	n/a	RESPONSE	M1	2	07	G3	press
178.977	n/a	RESPONSE	M1	2	02	D3	press
179.438	n/a	RESPONSE	M1	2	14	D4	press
179.561	n/a	RESPONSE	M1	2	17	F4	release
179.638	n/a	RESPONSE	M1	2	14	D4	release
179.875	n/a	RESPONSE	M1	2	14	D4	press
180.136	n/a	RESPONSE	M1	2	02	D3	release
180.167	n/a	RESPONSE	M1	2	14	D4	release
180.248	n/a	RESPONSE	M1	2	07	G3	release
180.31	n/a	RESPONSE	M1	2	05	F3	release
180.531	n/a	RESPONSE	M1	2	04	E3	press
180.552	n/a	RESPONSE	M1	2	12	C4	press
180.555	n/a	RESPONSE	M1	2	07	G3	press
180.567	n/a	RESPONSE	M1	2	00	C3	press
180.868	n/a	RESPONSE	M1	2	16	E4	press
181.018	n/a	RESPONSE	M1	2	12	C4	release
181.24	n/a	RESPONSE	M1	2	12	C4	press
181.324	n/a	RESPONSE	M1	2	16	E4	release
181.752	n/a	RESPONSE	M1	2	00	C3	release
181.784	n/a	RESPONSE	M1	2	12	C4	release
182.516	n/a	RESPONSE	M1	2	07	G3	release
182.906	n/a	RESPONSE	M1	2	04	E3	release
183.02	7.758	FIXCROSS	n/a	n/a	n/a	n/a	n/a
190.778	6.317	CUE_LISTEN	M2	1	n/a	n/a	n/a
196.155	n/a	RESPONSE	M2	1	24	C5	press
197.095	7.758	FIXCROSS	n/a	n/a	n/a	n/a	n/a
197.626	n/a	RESPONSE	M2	1	24	C5	release
200.34	n/a	RESPONSE	M2	1	24	C5	press
202.556	n/a	RESPONSE	M2	1	24	C5	release
204.853	6.325	CUE_PLAYBACK_BOTH_HANDS	M2	1	n/a	n/a	n/a
205.306	n/a	RESPONSE	M2	1	00	C3	press
205.32	n/a	RESPONSE	M2	1	24	C5	press
205.328	n/a	RESPONSE	M2	1	07	G3	press
205.73	n/a	RESPONSE	M2	1	19	G4	press
205.831	n/a	RESPONSE	M2	1	24	C5	release
205.922	n/a	RESPONSE	M2	1	19	G4	release
205.925	n/a	RESPONSE	M2	1	00	C3	release
206.005	n/a	RESPONSE	M2	1	07	G3	release
206.194	n/a	RESPONSE	M2	1	00	C3	press
206.196	n/a	RESPONSE	M2	1	07	G3	press
206.198	n/a	RESPONSE	M2	1	19	G4	press
206.684	n/a	RESPONSE	M2	1	17	F4	press
206.814	n/a	RESPONSE	M2	1	19	G4	release
206.877	n/a	RESPONSE	M2	1	00	C3	release
206.89	n/a	RESPONSE	M2	1	07	G3	release
206.921	n/a	RESPONSE	M2	1	17	F4	release
207.135	n/a	RESPONSE	M2	1	16	E4	press
207.161	n/a	RESPONSE	M2	1	00	C3	press
207.165	n/a	RESPONSE	M2	1	07	G3	press
207.526	n/a	RESPONSE	M2	1	17	F4	press
207.745	n/a	RESPONSE	M2	1	16	E4	release
207.796	n/a	RESPONSE	M2	1	07	G3	release
207.798	n/a	RESPONSE	M2	1	00	C3	release
207.804	n/a	RESPONSE	M2	1	17	F4	release
208.016	n/a	RESPONSE	M2	1	00	C3	press
208.021	n/a	RESPONSE	M2	1	19	G4	press
208.024	n/a	RESPONSE	M2	1	07	G3	press
208.602	n/a	RESPONSE	M2	1	19	G4	release
208.765	n/a	RESPONSE	M2	1	07	G3	release
208.774	n/a	RESPONSE	M2	1	00	C3	release
211.178	7.758	FIXCROSS	n/a	n/a	n/a	n/a	n/a
214.952	n/a	RESPONSE	M2	1	24	C5	press
216.672	n/a	RESPONSE	M2	1	24	C5	release
218.937	6.317	CUE_LISTEN	M2	2	n/a	n/a	n/a
225.253	7.758	FIXCROSS	n/a	n/a	n/a	n/a	n/a
233.012	6.325	CUE_PLAYBACK_BOTH_HANDS	M2	2	n/a	n/a	n/a
233.616	n/a	RESPONSE	M2	2	24	C5	press
233.637	n/a	RESPONSE	M2	2	00	C3	press
233.65	n/a	RESPONSE	M2	2	07	G3	press
234.061	n/a	RESPONSE	M2	2	19	G4	press
234.191	n/a	RESPONSE	M2	2	24	C5	release
234.202	n/a	RESPONSE	M2	2	00	C3	release
234.234	n/a	RESPONSE	M2	2	07	G3	release
234.315	n/a	RESPONSE	M2	2	19	G4	release
234.546	n/a	RESPONSE	M2	2	00	C3	press
234.557	n/a	RESPONSE	M2	2	07	G3	press
234.578	n/a	RESPONSE	M2	2	19	G4	press
235.05	n/a	RESPONSE	M2	2	17	F4	press
235.161	n/a	RESPONSE	M2	2	19	G4	release
235.232	n/a	RESPONSE	M2	2	00	C3	release
235.244	n/a	RESPONSE	M2	2	07	G3	release
235.265	n/a	RESPONSE	M2	2	17	F4	release
235.546	n/a	RESPONSE	M2	2	16	E4	press
235.578	n/a	RESPONSE	M2	2	07	G3	press
235.598	n/a	RESPONSE	M2	2	00	C3	press
236.116	n/a	RESPONSE	M2	2	14	D4	press
236.277	n/a	RESPONSE	M2	2	00	C3	release
236.295	n/a	RESPONSE	M2	2	07	G3	release
236.3	n/a	RESPONSE	M2	2	14	D4	release
236.308	n/a	RESPONSE	M2	2	16	E4	release
236.556	n/a	RESPONSE	M2	2	00	C3	press
236.565	n/a	RESPONSE	M2	2	07	G3	press
236.584	n/a	RESPONSE	M2	2	12	C4	press
237.175	n/a	RESPONSE	M2	2	12	C4	release
237.264	n/a	RESPONSE	M2	2	00	C3	release
237.396	n/a	RESPONSE	M2	2	07	G3	release
239.337	7.758	FIXCROSS	n/a	n/a	n/a	n/a	n/a
247.095	6.317	CUE_LISTEN	M2	1	n/a	n/a	n/a
253.412	7.758	FIXCROSS	n/a	n/a	n/a	n/a	n/a
261.17	6.325	CUE_PLAYBACK_BOTH_HANDS	M2	1	n/a	n/a	n/a
261.86	n/a	RESPONSE	M2	1	07	G3	press
261.871	n/a	RESPONSE	M2	1	12	C4	press
261.881	n/a	RESPONSE	M2	1	00	C3	press
262.302	n/a	RESPONSE	M2	1	14	D4	press
262.434	n/a	RESPONSE	M2	1	12	C4	release
262.565	n/a	RESPONSE	M2	1	14	D4	release
262.567	n/a	RESPONSE	M2	1	00	C3	release
262.597	n/a	RESPONSE	M2	1	07	G3	release
262.788	n/a	RESPONSE	M2	1	00	C3	press
262.802	n/a	RESPONSE	M2	1	16	E4	press
262.811	n/a	RESPONSE	M2	1	07	G3	press
263.232	n/a	RESPONSE	M2	1	14	D4	press
263.294	n/a	RESPONSE	M2	1	16	E4	release
263.455	n/a	RESPONSE	M2	1	00	C3	release
263.476	n/a	RESPONSE	M2	1	14	D4	release
263.488	n/a	RESPONSE	M2	1	07	G3	release
263.708	n/a	RESPONSE	M2	1	00	C3	press
263.73	n/a	RESPONSE	M2	1	07	G3	press
263.732	n/a	RESPONSE	M2	1	16	E4	press
264.162	n/a	RESPONSE	M2	1	17	F4	press
264.254	n/a	RESPONSE	M2	1	16	E4	release
264.357	n/a	RESPONSE	M2	1	07	G3	release
264.386	n/a	RESPONSE	M2	1	00	C3	release
264.388	n/a	RESPONSE	M2	1	17	F4	release
264.621	n/a	RESPONSE	M2	1	00	C3	press
264.63	n/a	RESPONSE	M2	1	19	G4	press
264.641	n/a	RESPONSE	M2	1	07	G3	press
265.132	n/a	RESPONSE	M2	1	19	G4	release
265.446	n/a	RESPONSE	M2	1	07	G3	release
265.477	n/a	RESPONSE	M2	1	00	C3	release
267.495	7.758	FIXCROSS	n/a	n/a	n/a	n/a	n/a
275.254	6.308	CUE_LISTEN	M2	2	n/a	n/a	n/a
281.562	7.758	FIXCROSS	n/a	n/a	n/a	n/a	n/a
289.32	6.325	CUE_PLAYBACK_BOTH_HANDS	M2	2	n/a	n/a	n/a
289.961	n/a	RESPONSE	M2	2	00	C3	press
289.964	n/a	RESPONSE	M2	2	07	G3	press
289.974	n/a	RESPONSE	M2	2	16	E4	press
290.445	n/a	RESPONSE	M2	2	19	G4	press
290.508	n/a	RESPONSE	M2	2	16	E4	release
290.547	n/a	RESPONSE	M2	2	07	G3	release
290.56	n/a	RESPONSE	M2	2	00	C3	release
290.66	n/a	RESPONSE	M2	2	19	G4	release
290.941	n/a	RESPONSE	M2	2	19	G4	press
290.952	n/a	RESPONSE	M2	2	00	C3	press
290.984	n/a	RESPONSE	M2	2	07	G3	press
291.366	n/a	RESPONSE	M2	2	17	F4	press
291.497	n/a	RESPONSE	M2	2	19	G4	release
291.578	n/a	RESPONSE	M2	2	00	C3	release
291.591	n/a	RESPONSE	M2	2	17	F4	release
291.602	n/a	RESPONSE	M2	2	07	G3	release
291.864	n/a	RESPONSE	M2	2	00	C3	press
291.884	n/a	RESPONSE	M2	2	07	G3	press
291.895	n/a	RESPONSE	M2	2	16	E4	press
292.328	n/a	RESPONSE	M2	2	14	D4	press
292.427	n/a	RESPONSE	M2	2	16	E4	release
292.508	n/a	RESPONSE	M2	2	00	C3	release
292.53	n/a	RESPONSE	M2	2	07	G3	release
292.532	n/a	RESPONSE	M2	2	14	D4	release
292.784	n/a	RESPONSE	M2	2	00	C3	press
292.803	n/a	RESPONSE	M2	2	07	G3	press
292.806	n/a	RESPONSE	M2	2	12	C4	press
293.526	n/a	RESPONSE	M2	2	12	C4	release
293.537	n/a	RESPONSE	M2	2	00	C3	release
293.63	n/a	RESPONSE	M2	2	07	G3	release
295.645	7.758	FIXCROSS	n/a	n/a	n/a	n/a	n/a
303.404	6.325	CUE_LISTEN	M3	1	n/a	n/a	n/a
309.728	7.758	FIXCROSS	n/a	n/a	n/a	n/a	n/a
317.487	6.317	CUE_PLAYBACK_RIGHT_HAND	M3	1	n/a	n/a	n/a
318.146	n/a	RESPONSE	M3	1	12	C4	press
318.651	n/a	RESPONSE	M3	1	14	D4	press
318.808	n/a	RESPONSE	M3	1	12	C4	release
319.164	n/a	RESPONSE	M3	1	16	E4	press
319.211	n/a	RESPONSE	M3	1	14	D4	release
319.666	n/a	RESPONSE	M3	1	16	E4	release
319.726	n/a	RESPONSE	M3	1	12	C4	press
320.007	n/a	RESPONSE	M3	1	12	C4	release
320.188	n/a	RESPONSE	M3	1	12	C4	press
320.67	n/a	RESPONSE	M3	1	14	D4	press
320.792	n/a	RESPONSE	M3	1	12	C4	release
321.154	n/a	RESPONSE	M3	1	16	E4	press
321.215	n/a	RESPONSE	M3	1	14	D4	release
321.686	n/a	RESPONSE	M3	1	12	C4	press
321.757	n/a	RESPONSE	M3	1	16	E4	release
322.058	n/a	RESPONSE	M3	1	12	C4	release
323.804	7.758	FIXCROSS	n/a	n/a	n/a	n/a	n/a
331.562	6.317	CUE_LISTEN	M3	2	n/a	n/a	n/a
337.879	7.758	FIXCROSS	n/a	n/a	n/a	n/a	n/a
345.637	6.317	CUE_PLAYBACK_RIGHT_HAND	M3	2	n/a	n/a	n/a
346.296	n/a	RESPONSE	M3	2	16	E4	press
346.761	n/a	RESPONSE	M3	2	17	F4	press
347.101	n/a	RESPONSE	M3	2	16	E4	release
347.257	n/a	RESPONSE	M3	2	19	G4	press
347.298	n/a	RESPONSE	M3	2	17	F4	release
347.676	n/a	RESPONSE	M3	2	19	G4	release
348.147	n/a	RESPONSE	M3	2	16	E4	press
348.634	n/a	RESPONSE	M3	2	17	F4	press
348.721	n/a	RESPONSE	M3	2	16	E4	release
349.095	n/a	RESPONSE	M3	2	19	G4	press
349.134	n/a	RESPONSE	M3	2	17	F4	release
349.581	n/a	RESPONSE	M3	2	19	G4	release
351.954	7.758	FIXCROSS	n/a	n/a	n/a	n/a	n/a
359.712	6.325	CUE_LISTEN	M3	1	n/a	n/a	n/a
366.037	7.758	FIXCROSS	n/a	n/a	n/a	n/a	n/a
373.795	6.325	CUE_PLAYBACK_RIGHT_HAND	M3	1	n/a	n/a	n/a
374.496	n/a	RESPONSE	M3	1	19	G4	press
374.787	n/a	RESPONSE	M3	1	21	A4	press
374.848	n/a	RESPONSE	M3	1	19	G4	release
375.06	n/a	RESPONSE	M3	1	21	A4	release
375.081	n/a	RESPONSE	M3	1	19	G4	press
375.352	n/a	RESPONSE	M3	1	17	F4	press
375.444	n/a	RESPONSE	M3	1	19	G4	release
375.636	n/a	RESPONSE	M3	1	16	E4	press
375.826	n/a	RESPONSE	M3	1	17	F4	release
376.207	n/a	RESPONSE	M3	1	12	C4	press
376.291	n/a	RESPONSE	M3	1	16	E4	release
376.492	n/a	RESPONSE	M3	1	12	C4	release
376.702	n/a	RESPONSE	M3	1	19	G4	press
376.986	n/a	RESPONSE	M3	1	21	A4	press
377.068	n/a	RESPONSE	M3	1	19	G4	release
377.275	n/a	RESPONSE	M3	1	19	G4	press
377.314	n/a	RESPONSE	M3	1	21	A4	release
377.514	n/a	RESPONSE	M3	1	17	F4	press
377.632	n/a	RESPONSE	M3	1	19	G4	release
377.844	n/a	RESPONSE	M3	1	16	E4	press
378.021	n/a	RESPONSE	M3	1	17	F4	release
378.372	n/a	RESPONSE	M3	1	12	C4	press
378.475	n/a	RESPONSE	M3	1	16	E4	release
378.762	n/a	RESPONSE	M3	1	12	C4	release
380.12	7.758	FIXCROSS	n/a	n/a	n/a	n/a	n/a
387.879	6.308	CUE_LISTEN	M3	2	n/a	n/a	n/a
394.187	7.758	FIXCROSS	n/a	n/a	n/a	n/a	n/a
401.945	6.325	CUE_PLAYBACK_RIGHT_HAND	M3	2	n/a	n/a	n/a
402.631	n/a	RESPONSE	M3	2	12	C4	press
403.082	n/a	RESPONSE	M3	2	12	C4	release
403.164	n/a	RESPONSE	M3	2	07	G3	press
403.627	n/a	RESPONSE	M3	2	07	G3	release
403.646	n/a	RESPONSE	M3	2	12	C4	press
404.207	n/a	RESPONSE	M3	2	12	C4	release
404.558	n/a	RESPONSE	M3	2	12	C4	press
405.1	n/a	RESPONSE	M3	2	07	G3	press
405.111	n/a	RESPONSE	M3	2	12	C4	release
405.532	n/a	RESPONSE	M3	2	07	G3	release
405.565	n/a	RESPONSE	M3	2	12	C4	press
406.28	n/a	RESPONSE	M3	2	12	C4	release
408.27	7.758	FIXCROSS	n/a	n/a	n/a	n/a	n/a
416.029	6.317	CUE_LISTEN	M1	1	n/a	n/a	n/a
422.345	7.758	FIXCROSS	n/a	n/a	n/a	n/a	n/a
430.104	6.317	CUE_PLAYBACK_RIGHT_HAND	M1	1	n/a	n/a	n/a
430.76	n/a	RESPONSE	M1	1	19	G4	press
431.126	n/a	RESPONSE	M1	1	19	G4	release
431.247	n/a	RESPONSE	M1	1	16	E4	press
431.508	n/a	RESPONSE	M1	1	16	E4	release
431.71	n/a	RESPONSE	M1	1	16	E4	press
431.971	n/a	RESPONSE	M1	1	16	E4	release
432.135	n/a	RESPONSE	M1	1	17	F4	press
432.534	n/a	RESPONSE	M1	1	17	F4	release
432.605	n/a	RESPONSE	M1	1	14	D4	press
432.796	n/a	RESPONSE	M1	1	14	D4	release
433.027	n/a	RESPONSE	M1	1	14	D4	press
433.28	n/a	RESPONSE	M1	1	14	D4	release
433.46	n/a	RESPONSE	M1	1	12	C4	press
433.661	n/a	RESPONSE	M1	1	16	E4	press
433.722	n/a	RESPONSE	M1	1	12	C4	release
433.914	n/a	RESPONSE	M1	1	19	G4	press
433.967	n/a	RESPONSE	M1	1	16	E4	release
434.226	n/a	RESPONSE	M1	1	19	G4	release
436.42	7.758	FIXCROSS	n/a	n/a	n/a	n/a	n/a
444.179	6.325	CUE_LISTEN	M1	2	n/a	n/a	n/a
450.504	7.758	FIXCROSS	n/a	n/a	n/a	n/a	n/a
458.262	6.317	CUE_PLAYBACK_RIGHT_HAND	M1	2	n/a	n/a	n/a
458.866	n/a	RESPONSE	M1	2	19	G4	press
459.172	n/a	RESPONSE	M1	2	19	G4	release
459.346	n/a	RESPONSE	M1	2	16	E4	press
459.58	n/a	RESPONSE	M1	2	16	E4	release
459.825	n/a	RESPONSE	M1	2	16	E4	press
460.075	n/a	RESPONSE	M1	2	16	E4	release
460.286	n/a	RESPONSE	M1	2	17	F4	press
460.56	n/a	RESPONSE	M1	2	17	F4	release
460.771	n/a	RESPONSE	M1	2	14	D4	press
461.001	n/a	RESPONSE	M1	2	14	D4	release
461.222	n/a	RESPONSE	M1	2	14	D4	press
461.485	n/a	RESPONSE	M1	2	14	D4	release
461.725	n/a	RESPONSE	M1	2	12	C4	press
461.967	n/a	RESPONSE	M1	2	16	E4	press
461.987	n/a	RESPONSE	M1	2	12	C4	release
462.258	n/a	RESPONSE	M1	2	12	C4	press
462.261	n/a	RESPONSE	M1	2	16	E4	release
462.761	n/a	RESPONSE	M1	2	12	C4	release
464.579	7.758	FIXCROSS	n/a	n/a	n/a	n/a	n/a
472.337	6.317	CUE_LISTEN	M2	1	n/a	n/a	n/a
478.654	7.758	FIXCROSS	n/a	n/a	n/a	n/a	n/a
486.412	6.325	CUE_PLAYBACK_BOTH_HANDS	M2	1	n/a	n/a	n/a
488.095	n/a	RESPONSE	M2	1	00	C3	press
488.108	n/a	RESPONSE	M2	1	07	G3	press
488.124	n/a	RESPONSE	M2	1	24	C5	press
488.565	n/a	RESPONSE	M2	1	19	G4	press
488.766	n/a	RESPONSE	M2	1	24	C5	release
488.77	n/a	RESPONSE	M2	1	07	G3	release
488.777	n/a	RESPONSE	M2	1	00	C3	release
488.784	n/a	RESPONSE	M2	1	19	G4	release
489.062	n/a	RESPONSE	M2	1	00	C3	press
489.065	n/a	RESPONSE	M2	1	19	G4	press
489.078	n/a	RESPONSE	M2	1	07	G3	press
489.485	n/a	RESPONSE	M2	1	17	F4	press
489.645	n/a	RESPONSE	M2	1	00	C3	release
489.647	n/a	RESPONSE	M2	1	19	G4	release
489.67	n/a	RESPONSE	M2	1	07	G3	release
489.751	n/a	RESPONSE	M2	1	17	F4	release
489.972	n/a	RESPONSE	M2	1	16	E4	press
489.985	n/a	RESPONSE	M2	1	00	C3	press
490.005	n/a	RESPONSE	M2	1	07	G3	press
490.366	n/a	RESPONSE	M2	1	17	F4	press
490.547	n/a	RESPONSE	M2	1	16	E4	release
490.58	n/a	RESPONSE	M2	1	07	G3	release
490.61	n/a	RESPONSE	M2	1	00	C3	release
490.612	n/a	RESPONSE	M2	1	17	F4	release
490.835	n/a	RESPONSE	M2	1	00	C3	press
490.844	n/a	RESPONSE	M2	1	07	G3	press
490.846	n/a	RESPONSE	M2	1	19	G4	press
491.42	n/a	RESPONSE	M2	1	19	G4	release
491.488	n/a	RESPONSE	M2	1	00	C3	release
491.63	n/a	RESPONSE	M2	1	07	G3	release
492.737	7.758	FIXCROSS	n/a	n/a	n/a	n/a	n/a
500.496	6.317	CUE_LISTEN	M2	2	n/a	n/a	n/a
506.812	7.758	FIXCROSS	n/a	n/a	n/a	n/a	n/a
514.571	6.325	CUE_PLAYBACK_BOTH_HANDS	M2	2	n/a	n/a	n/a
515.196	n/a	RESPONSE	M2	2	24	C5	press
515.207	n/a	RESPONSE	M2	2	00	C3	press
515.229	n/a	RESPONSE	M2	2	07	G3	press
515.65	n/a	RESPONSE	M2	2	19	G4	press
515.761	n/a	RESPONSE	M2	2	24	C5	release
515.803	n/a	RESPONSE	M2	2	00	C3	release
515.854	n/a	RESPONSE	M2	2	07	G3	release
515.885	n/a	RESPONSE	M2	2	19	G4	release
516.16	n/a	RESPONSE	M2	2	00	C3	press
516.172	n/a	RESPONSE	M2	2	19	G4	press
516.175	n/a	RESPONSE	M2	2	07	G3	press
516.64	n/a	RESPONSE	M2	2	17	F4	press
516.75	n/a	RESPONSE	M2	2	19	G4	release
516.843	n/a	RESPONSE	M2	2	00	C3	release
516.866	n/a	RESPONSE	M2	2	07	G3	release
516.89	n/a	RESPONSE	M2	2	17	F4	release
517.085	n/a	RESPONSE	M2	2	16	E4	press
517.156	n/a	RESPONSE	M2	2	07	G3	press
517.158	n/a	RESPONSE	M2	2	00	C3	press
517.606	n/a	RESPONSE	M2	2	14	D4	press
517.786	n/a	RESPONSE	M2	2	16	E4	release
517.794	n/a	RESPONSE	M2	2	07	G3	release
517.815	n/a	RESPONSE	M2	2	00	C3	release
517.847	n/a	RESPONSE	M2	2	14	D4	release
518.077	n/a	RESPONSE	M2	2	00	C3	press
518.082	n/a	RESPONSE	M2	2	12	C4	press
518.087	n/a	RESPONSE	M2	2	07	G3	press
518.7	n/a	RESPONSE	M2	2	12	C4	release
518.784	n/a	RESPONSE	M2	2	00	C3	release
518.848	n/a	RESPONSE	M2	2	07	G3	release
520.896	7.758	FIXCROSS	n/a	n/a	n/a	n/a	n/a
528.654	6.317	CUE_LISTEN	M2	1	n/a	n/a	n/a
534.971	7.758	FIXCROSS	n/a	n/a	n/a	n/a	n/a
542.729	6.317	CUE_PLAYBACK_BOTH_HANDS	M2	1	n/a	n/a	n/a
543.441	n/a	RESPONSE	M2	1	12	C4	press
543.443	n/a	RESPONSE	M2	1	07	G3	press
543.446	n/a	RESPONSE	M2	1	00	C3	press
544.005	n/a	RESPONSE	M2	1	14	D4	press
544.106	n/a	RESPONSE	M2	1	00	C3	release
544.127	n/a	RESPONSE	M2	1	12	C4	release
544.14	n/a	RESPONSE	M2	1	07	G3	release
544.202	n/a	RESPONSE	M2	1	14	D4	release
544.501	n/a	RESPONSE	M2	1	00	C3	press
544.512	n/a	RESPONSE	M2	1	07	G3	press
544.515	n/a	RESPONSE	M2	1	16	E4	press
544.977	n/a	RESPONSE	M2	1	14	D4	press
545.047	n/a	RESPONSE	M2	1	16	E4	release
545.158	n/a	RESPONSE	M2	1	00	C3	release
545.17	n/a	RESPONSE	M2	1	07	G3	release
545.172	n/a	RESPONSE	M2	1	14	D4	release
545.482	n/a	RESPONSE	M2	1	00	C3	press
545.485	n/a	RESPONSE	M2	1	16	E4	press
545.495	n/a	RESPONSE	M2	1	07	G3	press
545.947	n/a	RESPONSE	M2	1	17	F4	press
546.093	n/a	RESPONSE	M2	1	16	E4	release
546.162	n/a	RESPONSE	M2	1	00	C3	release
546.184	n/a	RESPONSE	M2	1	17	F4	release
546.205	n/a	RESPONSE	M2	1	07	G3	release
546.427	n/a	RESPONSE	M2	1	00	C3	press
546.443	n/a	RESPONSE	M2	1	19	G4	press
546.455	n/a	RESPONSE	M2	1	07	G3	press
547.024	n/a	RESPONSE	M2	1	19	G4	release
547.175	n/a	RESPONSE	M2	1	00	C3	release
547.3	n/a	RESPONSE	M2	1	07	G3	release
549.046	7.758	FIXCROSS	n/a	n/a	n/a	n/a	n/a
556.804	6.325	CUE_LISTEN	M2	2	n/a	n/a	n/a
563.129	7.758	FIXCROSS	n/a	n/a	n/a	n/a	n/a
570.887	6.317	CUE_PLAYBACK_BOTH_HANDS	M2	2	n/a	n/a	n/a
571.671	n/a	RESPONSE	M2	2	00	C3	press
571.674	n/a	RESPONSE	M2	2	07	G3	press
571.694	n/a	RESPONSE	M2	2	16	E4	press
572.205	n/a	RESPONSE	M2	2	19	G4	press
572.256	n/a	RESPONSE	M2	2	00	C3	release
572.258	n/a	RESPONSE	M2	2	16	E4	release
572.268	n/a	RESPONSE	M2	2	07	G3	release
572.36	n/a	RESPONSE	M2	2	19	G4	release
572.671	n/a	RESPONSE	M2	2	19	G4	press
572.675	n/a	RESPONSE	M2	2	00	C3	press
572.684	n/a	RESPONSE	M2	2	07	G3	press
573.185	n/a	RESPONSE	M2	2	17	F4	press
573.208	n/a	RESPONSE	M2	2	16	E4	press
573.267	n/a	RESPONSE	M2	2	19	G4	release
573.338	n/a	RESPONSE	M2	2	00	C3	release
573.38	n/a	RESPONSE	M2	2	16	E4	release
573.461	n/a	RESPONSE	M2	2	07	G3	release
573.484	n/a	RESPONSE	M2	2	17	F4	release
573.725	n/a	RESPONSE	M2	2	16	E4	press
573.735	n/a	RESPONSE	M2	2	07	G3	press
573.737	n/a	RESPONSE	M2	2	00	C3	press
574.22	n/a	RESPONSE	M2	2	14	D4	press
574.29	n/a	RESPONSE	M2	2	16	E4	release
574.38	n/a	RESPONSE	M2	2	00	C3	release
574.441	n/a	RESPONSE	M2	2	14	D4	release
574.444	n/a	RESPONSE	M2	2	07	G3	release
574.694	n/a	RESPONSE	M2	2	00	C3	press
574.705	n/a	RESPONSE	M2	2	07	G3	press
574.716	n/a	RESPONSE	M2	2	12	C4	press
575.587	n/a	RESPONSE	M2	2	12	C4	release
575.808	n/a	RESPONSE	M2	2	00	C3	release
575.811	n/a	RESPONSE	M2	2	07	G3	release
577.204	7.767	FIXCROSS	n/a	n/a	n/a	n/a	n/a
584.971	6.308	CUE_LISTEN	M1	1	n/a	n/a	n/a
591.279	7.758	FIXCROSS	n/a	n/a	n/a	n/a	n/a
599.038	6.325	CUE_PLAYBACK_RIGHT_HAND	M1	1	n/a	n/a	n/a
599.724	n/a	RESPONSE	M1	1	19	G4	press
600.175	n/a	RESPONSE	M1	1	16	E4	press
600.188	n/a	RESPONSE	M1	1	19	G4	release
600.407	n/a	RESPONSE	M1	1	16	E4	release
600.66	n/a	RESPONSE	M1	1	16	E4	press
600.98	n/a	RESPONSE	M1	1	16	E4	release
601.122	n/a	RESPONSE	M1	1	17	F4	press
601.504	n/a	RESPONSE	M1	1	17	F4	release
601.535	n/a	RESPONSE	M1	1	14	D4	press
601.726	n/a	RESPONSE	M1	1	14	D4	release
602.0	n/a	RESPONSE	M1	1	14	D4	press
602.26	n/a	RESPONSE	M1	1	14	D4	release
602.49	n/a	RESPONSE	M1	1	12	C4	press
602.694	n/a	RESPONSE	M1	1	16	E4	press
602.772	n/a	RESPONSE	M1	1	12	C4	release
602.984	n/a	RESPONSE	M1	1	19	G4	press
602.997	n/a	RESPONSE	M1	1	16	E4	release
603.796	n/a	RESPONSE	M1	1	19	G4	release
605.362	7.758	FIXCROSS	n/a	n/a	n/a	n/a	n/a
613.121	6.317	CUE_LISTEN	M1	2	n/a	n/a	n/a
619.437	7.758	FIXCROSS	n/a	n/a	n/a	n/a	n/a
627.196	6.325	CUE_PLAYBACK_RIGHT_HAND	M1	2	n/a	n/a	n/a
627.831	n/a	RESPONSE	M1	2	19	G4	press
628.286	n/a	RESPONSE	M1	2	19	G4	release
628.288	n/a	RESPONSE	M1	2	16	E4	press
628.515	n/a	RESPONSE	M1	2	16	E4	release
628.756	n/a	RESPONSE	M1	2	16	E4	press
629.12	n/a	RESPONSE	M1	2	16	E4	release
629.198	n/a	RESPONSE	M1	2	17	F4	press
629.71	n/a	RESPONSE	M1	2	14	D4	press
629.741	n/a	RESPONSE	M1	2	17	F4	release
629.912	n/a	RESPONSE	M1	2	14	D4	release
630.164	n/a	RESPONSE	M1	2	14	D4	press
630.445	n/a	RESPONSE	M1	2	14	D4	release
630.676	n/a	RESPONSE	M1	2	12	C4	press
630.897	n/a	RESPONSE	M1	2	16	E4	press
631.01	n/a	RESPONSE	M1	2	12	C4	release
631.201	n/a	RESPONSE	M1	2	12	C4	press
631.272	n/a	RESPONSE	M1	2	16	E4	release
631.765	n/a	RESPONSE	M1	2	12	C4	release
633.521	7.758	FIXCROSS	n/a	n/a	n/a	n/a	n/a
641.279	6.317	CUE_LISTEN	M3	1	n/a	n/a	n/a
647.596	7.758	FIXCROSS	n/a	n/a	n/a	n/a	n/a
655.354	6.317	CUE_PLAYBACK_RIGHT_HAND	M3	1	n/a	n/a	n/a
655.995	n/a	RESPONSE	M3	1	12	C4	press
656.477	n/a	RESPONSE	M3	1	14	D4	press
656.597	n/a	RESPONSE	M3	1	12	C4	release
656.968	n/a	RESPONSE	M3	1	16	E4	press
657.043	n/a	RESPONSE	M3	1	14	D4	release
657.49	n/a	RESPONSE	M3	1	12	C4	press
657.536	n/a	RESPONSE	M3	1	16	E4	release
657.766	n/a	RESPONSE	M3	1	12	C4	release
657.95	n/a	RESPONSE	M3	1	12	C4	press
658.466	n/a	RESPONSE	M3	1	14	D4	press
658.604	n/a	RESPONSE	M3	1	12	C4	release
658.941	n/a	RESPONSE	M3	1	16	E4	press
659.034	n/a	RESPONSE	M3	1	14	D4	release
659.461	n/a	RESPONSE	M3	1	12	C4	press
659.516	n/a	RESPONSE	M3	1	16	E4	release
659.871	n/a	RESPONSE	M3	1	12	C4	release
661.671	7.758	FIXCROSS	n/a	n/a	n/a	n/a	n/a
669.429	6.317	CUE_LISTEN	M3	2	n/a	n/a	n/a
675.746	7.758	FIXCROSS	n/a	n/a	n/a	n/a	n/a
683.504	6.325	CUE_PLAYBACK_RIGHT_HAND	M3	2	n/a	n/a	n/a
684.091	n/a	RESPONSE	M3	2	16	E4	press
684.671	n/a	RESPONSE	M3	2	17	F4	press
684.711	n/a	RESPONSE	M3	2	16	E4	release
685.082	n/a	RESPONSE	M3	2	19	G4	press
685.154	n/a	RESPONSE	M3	2	17	F4	release
685.845	n/a	RESPONSE	M3	2	19	G4	release
686.087	n/a	RESPONSE	M3	2	16	E4	press
686.608	n/a	RESPONSE	M3	2	17	F4	press
686.656	n/a	RESPONSE	M3	2	16	E4	release
687.134	n/a	RESPONSE	M3	2	19	G4	press
687.206	n/a	RESPONSE	M3	2	17	F4	release
687.516	n/a	RESPONSE	M3	2	19	G4	release
689.829	7.759	FIXCROSS	n/a	n/a	n/a	n/a	n/a
697.588	6.317	CUE_LISTEN	M3	1	n/a	n/a	n/a
703.904	7.758	FIXCROSS	n/a	n/a	n/a	n/a	n/a
711.663	6.317	CUE_PLAYBACK_RIGHT_HAND	M3	1	n/a	n/a	n/a
712.201	n/a	RESPONSE	M3	1	19	G4	press
712.464	n/a	RESPONSE	M3	1	21	A4	press
712.555	n/a	RESPONSE	M3	1	19	G4	release
712.745	n/a	RESPONSE	M3	1	21	A4	release
712.756	n/a	RESPONSE	M3	1	19	G4	press
713.037	n/a	RESPONSE	M3	1	17	F4	press
713.191	n/a	RESPONSE	M3	1	19	G4	release
713.34	n/a	RESPONSE	M3	1	16	E4	press
713.502	n/a	RESPONSE	M3	1	17	F4	release
713.874	n/a	RESPONSE	M3	1	12	C4	press
713.934	n/a	RESPONSE	M3	1	16	E4	release
714.195	n/a	RESPONSE	M3	1	12	C4	release
714.436	n/a	RESPONSE	M3	1	19	G4	press
714.438	n/a	RESPONSE	M3	1	17	F4	press
714.638	n/a	RESPONSE	M3	1	17	F4	release
714.96	n/a	RESPONSE	M3	1	21	A4	press
715.081	n/a	RESPONSE	M3	1	19	G4	release
715.242	n/a	RESPONSE	M3	1	19	G4	press
715.285	n/a	RESPONSE	M3	1	21	A4	release
715.535	n/a	RESPONSE	M3	1	17	F4	press
715.636	n/a	RESPONSE	M3	1	19	G4	release
715.818	n/a	RESPONSE	M3	1	16	E4	press
716.018	n/a	RESPONSE	M3	1	17	F4	release
716.348	n/a	RESPONSE	M3	1	12	C4	press
716.606	n/a	RESPONSE	M3	1	16	E4	release
716.707	n/a	RESPONSE	M3	1	12	C4	release
717.979	7.758	FIXCROSS	n/a	n/a	n/a	n/a	n/a
725.738	6.325	CUE_LISTEN	M3	2	n/a	n/a	n/a
732.063	7.758	FIXCROSS	n/a	n/a	n/a	n/a	n/a
733.444	n/a	RESPONSE	M3	2	07	G3	press
733.855	n/a	RESPONSE	M3	2	07	G3	release
739.821	6.317	CUE_PLAYBACK_RIGHT_HAND	M3	2	n/a	n/a	n/a
740.516	n/a	RESPONSE	M3	2	12	C4	press
741.037	n/a	RESPONSE	M3	2	07	G3	press
741.1	n/a	RESPONSE	M3	2	12	C4	release
741.524	n/a	RESPONSE	M3	2	12	C4	press
741.545	n/a	RESPONSE	M3	2	07	G3	release
742.123	n/a	RESPONSE	M3	2	12	C4	release
742.435	n/a	RESPONSE	M3	2	12	C4	press
743.006	n/a	RESPONSE	M3	2	07	G3	press
743.158	n/a	RESPONSE	M3	2	12	C4	release
743.448	n/a	RESPONSE	M3	2	07	G3	release
743.47	n/a	RESPONSE	M3	2	12	C4	press
744.441	n/a	RESPONSE	M3	2	12	C4	release
746.138	7.758	FIXCROSS	n/a	n/a	n/a	n/a	n/a
753.896	6.325	CUE_LISTEN	M1	1	n/a	n/a	n/a
760.221	7.758	FIXCROSS	n/a	n/a	n/a	n/a	n/a
767.979	6.317	CUE_PLAYBACK_BOTH_HANDS	M1	1	n/a	n/a	n/a
768.637	n/a	RESPONSE	M1	1	19	G4	press
768.645	n/a	RESPONSE	M1	1	00	C3	press
768.65	n/a	RESPONSE	M1	1	04	E3	press
768.652	n/a	RESPONSE	M1	1	07	G3	press
769.076	n/a	RESPONSE	M1	1	16	E4	press
769.145	n/a	RESPONSE	M1	1	19	G4	release
769.366	n/a	RESPONSE	M1	1	00	C3	release
769.378	n/a	RESPONSE	M1	1	16	E4	release
769.396	n/a	RESPONSE	M1	1	07	G3	release
769.415	n/a	RESPONSE	M1	1	04	E3	release
769.601	n/a	RESPONSE	M1	1	07	G3	press
769.603	n/a	RESPONSE	M1	1	04	E3	press
769.628	n/a	RESPONSE	M1	1	16	E4	press
769.756	n/a	RESPONSE	M1	1	16	E4	release
769.777	n/a	RESPONSE	M1	1	04	E3	release
769.811	n/a	RESPONSE	M1	1	07	G3	release
770.4	n/a	RESPONSE	M1	1	17	F4	press
770.402	n/a	RESPONSE	M1	1	05	F3	press
770.405	n/a	RESPONSE	M1	1	02	D3	press
770.425	n/a	RESPONSE	M1	1	07	G3	press
770.815	n/a	RESPONSE	M1	1	14	D4	press
770.937	n/a	RESPONSE	M1	1	17	F4	release
771.058	n/a	RESPONSE	M1	1	14	D4	release
771.32	n/a	RESPONSE	M1	1	14	D4	press
771.581	n/a	RESPONSE	M1	1	02	D3	release
771.625	n/a	RESPONSE	M1	1	14	D4	release
771.723	n/a	RESPONSE	M1	1	05	F3	release
771.946	n/a	RESPONSE	M1	1	04	E3	press
771.966	n/a	RESPONSE	M1	1	00	C3	press
771.977	n/a	RESPONSE	M1	1	12	C4	press
772.29	n/a	RESPONSE	M1	1	16	E4	press
772.48	n/a	RESPONSE	M1	1	12	C4	release
772.801	n/a	RESPONSE	M1	1	19	G4	press
772.862	n/a	RESPONSE	M1	1	16	E4	release
773.784	n/a	RESPONSE	M1	1	19	G4	release
774.057	n/a	RESPONSE	M1	1	00	C3	release
774.096	n/a	RESPONSE	M1	1	04	E3	release
774.147	n/a	RESPONSE	M1	1	07	G3	release
774.296	7.758	FIXCROSS	n/a	n/a	n/a	n/a	n/a
782.054	6.317	CUE_LISTEN	M1	2	n/a	n/a	n/a
788.371	7.758	FIXCROSS	n/a	n/a	n/a	n/a	n/a
796.13	6.325	CUE_PLAYBACK_BOTH_HANDS	M1	2	n/a	n/a	n/a
796.612	n/a	RESPONSE	M1	2	04	E3	press
796.615	n/a	RESPONSE	M1	2	19	G4	press
796.622	n/a	RESPONSE	M1	2	00	C3	press
796.625	n/a	RESPONSE	M1	2	07	G3	press
797.11	n/a	RESPONSE	M1	2	16	E4	press
797.185	n/a	RESPONSE	M1	2	19	G4	release
797.427	n/a	RESPONSE	M1	2	16	E4	release
797.51	n/a	RESPONSE	M1	2	16	E4	press
797.734	n/a	RESPONSE	M1	2	00	C3	release
797.764	n/a	RESPONSE	M1	2	04	E3	release
797.774	n/a	RESPONSE	M1	2	16	E4	release
797.855	n/a	RESPONSE	M1	2	07	G3	release
798.048	n/a	RESPONSE	M1	2	05	F3	press
798.051	n/a	RESPONSE	M1	2	17	F4	press
798.057	n/a	RESPONSE	M1	2	07	G3	press
798.06	n/a	RESPONSE	M1	2	02	D3	press
798.515	n/a	RESPONSE	M1	2	14	D4	press
798.555	n/a	RESPONSE	M1	2	17	F4	release
798.734	n/a	RESPONSE	M1	2	14	D4	release
798.942	n/a	RESPONSE	M1	2	14	D4	press
799.196	n/a	RESPONSE	M1	2	02	D3	release
799.211	n/a	RESPONSE	M1	2	14	D4	release
799.256	n/a	RESPONSE	M1	2	07	G3	release
799.287	n/a	RESPONSE	M1	2	05	F3	release
799.526	n/a	RESPONSE	M1	2	12	C4	press
799.532	n/a	RESPONSE	M1	2	04	E3	press
799.537	n/a	RESPONSE	M1	2	00	C3	press
799.551	n/a	RESPONSE	M1	2	07	G3	press
799.872	n/a	RESPONSE	M1	2	16	E4	press
800.011	n/a	RESPONSE	M1	2	12	C4	release
800.212	n/a	RESPONSE	M1	2	12	C4	press
800.284	n/a	RESPONSE	M1	2	16	E4	release
801.066	n/a	RESPONSE	M1	2	12	C4	release
801.43	n/a	RESPONSE	M1	2	04	E3	release
801.448	n/a	RESPONSE	M1	2	07	G3	release
801.46	n/a	RESPONSE	M1	2	00	C3	release
802.454	7.758	FIXCROSS	n/a	n/a	n/a	n/a	n/a
810.213	6.317	CUE_LISTEN	M2	1	n/a	n/a	n/a
816.53	7.758	FIXCROSS	n/a	n/a	n/a	n/a	n/a
824.288	6.317	CUE_PLAYBACK_RIGHT_HAND	M2	1	n/a	n/a	n/a
825.038	n/a	RESPONSE	M2	1	24	C5	press
825.55	n/a	RESPONSE	M2	1	19	G4	press
825.601	n/a	RESPONSE	M2	1	24	C5	release
825.792	n/a	RESPONSE	M2	1	19	G4	release
826.014	n/a	RESPONSE	M2	1	19	G4	press
826.484	n/a	RESPONSE	M2	1	17	F4	press
826.604	n/a	RESPONSE	M2	1	19	G4	release
826.934	n/a	RESPONSE	M2	1	16	E4	press
827.044	n/a	RESPONSE	M2	1	17	F4	release
827.412	n/a	RESPONSE	M2	1	17	F4	press
827.625	n/a	RESPONSE	M2	1	16	E4	release
827.835	n/a	RESPONSE	M2	1	19	G4	press
827.906	n/a	RESPONSE	M2	1	17	F4	release
828.704	n/a	RESPONSE	M2	1	19	G4	release
830.604	7.758	FIXCROSS	n/a	n/a	n/a	n/a	n/a
838.363	6.325	CUE_LISTEN	M2	2	n/a	n/a	n/a
844.688	7.758	FIXCROSS	n/a	n/a	n/a	n/a	n/a
852.446	6.317	CUE_PLAYBACK_RIGHT_HAND	M2	2	n/a	n/a	n/a
853.004	n/a	RESPONSE	M2	2	24	C5	press
853.555	n/a	RESPONSE	M2	2	19	G4	press
853.566	n/a	RESPONSE	M2	2	17	F4	press
853.747	n/a	RESPONSE	M2	2	17	F4	release
853.75	n/a	RESPONSE	M2	2	24	C5	release
853.8	n/a	RESPONSE	M2	2	19	G4	release
854.042	n/a	RESPONSE	M2	2	19	G4	press
854.522	n/a	RESPONSE	M2	2	17	F4	press
854.664	n/a	RESPONSE	M2	2	19	G4	release
854.965	n/a	RESPONSE	M2	2	16	E4	press
855.028	n/a	RESPONSE	M2	2	17	F4	release
855.46	n/a	RESPONSE	M2	2	14	D4	press
855.668	n/a	RESPONSE	M2	2	16	E4	release
855.922	n/a	RESPONSE	M2	2	12	C4	press
856.021	n/a	RESPONSE	M2	2	14	D4	release
857.238	n/a	RESPONSE	M2	2	12	C4	release
858.763	7.759	FIXCROSS	n/a	n/a	n/a	n/a	n/a
866.521	6.317	CUE_LISTEN	M2	1	n/a	n/a	n/a
872.838	7.758	FIXCROSS	n/a	n/a	n/a	n/a	n/a
880.596	6.325	CUE_PLAYBACK_RIGHT_HAND	M2	1	n/a	n/a	n/a
881.237	n/a	RESPONSE	M2	1	12	C4	press
881.728	n/a	RESPONSE	M2	1	14	D4	press
881.808	n/a	RESPONSE	M2	1	12	C4	release
882.252	n/a	RESPONSE	M2	1	16	E4	press
882.321	n/a	RESPONSE	M2	1	14	D4	release
882.734	n/a	RESPONSE	M2	1	14	D4	press
882.794	n/a	RESPONSE	M2	1	16	E4	release
883.235	n/a	RESPONSE	M2	1	16	E4	press
883.277	n/a	RESPONSE	M2	1	14	D4	release
883.747	n/a	RESPONSE	M2	1	17	F4	press
883.828	n/a	RESPONSE	M2	1	16	E4	release
884.25	n/a	RESPONSE	M2	1	19	G4	press
884.301	n/a	RESPONSE	M2	1	17	F4	release
885.042	n/a	RESPONSE	M2	1	19	G4	release
886.921	7.758	FIXCROSS	n/a	n/a	n/a	n/a	n/a
894.68	6.317	CUE_LISTEN	M2	2	n/a	n/a	n/a
900.996	7.758	FIXCROSS	n/a	n/a	n/a	n/a	n/a
908.755	42.076	CUE_PLAYBACK_RIGHT_HAND	M2	2	n/a	n/a	n/a
909.406	n/a	RESPONSE	M2	2	16	E4	press
909.906	n/a	RESPONSE	M2	2	19	G4	press
909.917	n/a	RESPONSE	M2	2	16	E4	release
910.158	n/a	RESPONSE	M2	2	19	G4	release
910.38	n/a	RESPONSE	M2	2	19	G4	press
910.891	n/a	RESPONSE	M2	2	17	F4	press
910.912	n/a	RESPONSE	M2	2	19	G4	release
911.407	n/a	RESPONSE	M2	2	16	E4	press
911.488	n/a	RESPONSE	M2	2	17	F4	release
911.91	n/a	RESPONSE	M2	2	14	D4	press
912.024	n/a	RESPONSE	M2	2	16	E4	release
912.372	n/a	RESPONSE	M2	2	12	C4	press
912.443	n/a	RESPONSE	M2	2	14	D4	release
913.245	n/a	FIXCROSS	n/a	n/a	n/a	n/a	n/a
913.455	n/a	RESPONSE	M2	2	12	C4	release
