onset	duration	trial_type	trial_number	stroop_condition	stim_text(PL)	stim_text(eng)	stim_color(PL)	stim_color(eng)	response_type	response_color
0.0	n/a	RESPONSE	n/a	n/a	n/a	n/a	n/a	n/a	n/a	red
0.0	n/a	RESPONSE	n/a	n/a	n/a	n/a	n/a	n/a	n/a	red
0.0	n/a	RESPONSE	n/a	n/a	n/a	n/a	n/a	n/a	n/a	blue
0.0001	n/a	RESPONSE	n/a	n/a	n/a	n/a	n/a	n/a	n/a	blue
0.0001	n/a	RESPONSE	n/a	n/a	n/a	n/a	n/a	n/a	n/a	red
0.0001	n/a	RESPONSE	n/a	n/a	n/a	n/a	n/a	n/a	n/a	blue
0.0001	n/a	RESPONSE	n/a	n/a	n/a	n/a	n/a	n/a	n/a	green
0.0001	n/a	RESPONSE	n/a	n/a	n/a	n/a	n/a	n/a	n/a	blue
39.5079	n/a	RESPONSE	n/a	n/a	n/a	n/a	n/a	n/a	n/a	n/a
39.5667	1.0167	ITI	n/a	n/a	n/a	n/a	n/a	n/a	n/a	n/a
40.5833	0.5167	FIXCROSS	n/a	n/a	n/a	n/a	n/a	n/a	n/a	n/a
41.1	0.9333	T_INK	1	Neutral	xxxxxxxxx	xxxxxxxxx	zielony	green	hit	n/a
42.0007	n/a	RESPONSE	n/a	n/a	n/a	n/a	n/a	n/a	n/a	green
42.0333	0.5167	FEEDBACK	n/a	n/a	n/a	n/a	n/a	n/a	n/a	n/a
42.55	1.0167	ITI	n/a	n/a	n/a	n/a	n/a	n/a	n/a	n/a
43.5667	0.5167	FIXCROSS	n/a	n/a	n/a	n/a	n/a	n/a	n/a	n/a
44.0834	0.85	T_INK	2	Neutral	xxxxxxx	xxxxxxx	żółty	yellow	hit	n/a
44.9087	n/a	RESPONSE	n/a	n/a	n/a	n/a	n/a	n/a	n/a	yellow
44.9334	0.5167	FEEDBACK	n/a	n/a	n/a	n/a	n/a	n/a	n/a	n/a
45.45	1.0167	ITI	n/a	n/a	n/a	n/a	n/a	n/a	n/a	n/a
46.4667	0.5167	FIXCROSS	n/a	n/a	n/a	n/a	n/a	n/a	n/a	n/a
46.9834	0.9833	T_INK	3	Incongruent	czerwony	red	żółty	yellow	hit	n/a
47.9447	n/a	RESPONSE	n/a	n/a	n/a	n/a	n/a	n/a	n/a	yellow
47.9667	0.5167	FEEDBACK	n/a	n/a	n/a	n/a	n/a	n/a	n/a	n/a
48.4834	1.0167	ITI	n/a	n/a	n/a	n/a	n/a	n/a	n/a	n/a
49.5001	0.5167	FIXCROSS	n/a	n/a	n/a	n/a	n/a	n/a	n/a	n/a
50.0167	0.95	T_INK	4	Incongruent	żółty	yellow	zielony	green	hit	n/a
50.9328	n/a	RESPONSE	n/a	n/a	n/a	n/a	n/a	n/a	n/a	green
50.9667	0.5167	FEEDBACK	n/a	n/a	n/a	n/a	n/a	n/a	n/a	n/a
51.4834	1.0167	ITI	n/a	n/a	n/a	n/a	n/a	n/a	n/a	n/a
52.5001	0.5167	FIXCROSS	n/a	n/a	n/a	n/a	n/a	n/a	n/a	n/a
53.0168	0.7333	T_INK	5	Neutral	xxxxxxxx	xxxxxxxx	niebieski	blue	hit	n/a
53.7293	n/a	RESPONSE	n/a	n/a	n/a	n/a	n/a	n/a	n/a	blue
53.7501	0.5167	FEEDBACK	n/a	n/a	n/a	n/a	n/a	n/a	n/a	n/a
54.2668	1.0167	ITI	n/a	n/a	n/a	n/a	n/a	n/a	n/a	n/a
55.2834	0.5167	FIXCROSS	n/a	n/a	n/a	n/a	n/a	n/a	n/a	n/a
55.8001	0.7167	T_INK	6	Neutral	xxxxxxxxx	xxxxxxxxx	czerwony	red	hit	n/a
56.4935	n/a	RESPONSE	n/a	n/a	n/a	n/a	n/a	n/a	n/a	red
56.5168	0.5167	FEEDBACK	n/a	n/a	n/a	n/a	n/a	n/a	n/a	n/a
57.0335	1.0167	ITI	n/a	n/a	n/a	n/a	n/a	n/a	n/a	n/a
58.0501	0.5167	FIXCROSS	n/a	n/a	n/a	n/a	n/a	n/a	n/a	n/a
58.5668	0.7667	T_INK	7	Neutral	xxxxx	xxxxx	czerwony	red	hit	n/a
59.3058	n/a	RESPONSE	n/a	n/a	n/a	n/a	n/a	n/a	n/a	red
59.3335	0.5167	FEEDBACK	n/a	n/a	n/a	n/a	n/a	n/a	n/a	n/a
59.8501	1.0167	ITI	n/a	n/a	n/a	n/a	n/a	n/a	n/a	n/a
60.8668	0.5167	FIXCROSS	n/a	n/a	n/a	n/a	n/a	n/a	n/a	n/a
61.3835	0.7667	T_INK	8	Incongruent	niebieski	blue	zielony	green	hit	n/a
62.1181	n/a	RESPONSE	n/a	n/a	n/a	n/a	n/a	n/a	n/a	green
62.1502	0.5167	FEEDBACK	n/a	n/a	n/a	n/a	n/a	n/a	n/a	n/a
62.6668	1.0167	ITI	n/a	n/a	n/a	n/a	n/a	n/a	n/a	n/a
63.6835	0.5167	FIXCROSS	n/a	n/a	n/a	n/a	n/a	n/a	n/a	n/a
64.2002	0.7	T_INK	9	Neutral	xxxxx	xxxxx	zielony	green	hit	n/a
64.8667	n/a	RESPONSE	n/a	n/a	n/a	n/a	n/a	n/a	n/a	green
64.9002	0.5167	FEEDBACK	n/a	n/a	n/a	n/a	n/a	n/a	n/a	n/a
65.4168	1.0167	ITI	n/a	n/a	n/a	n/a	n/a	n/a	n/a	n/a
66.4335	0.5167	FIXCROSS	n/a	n/a	n/a	n/a	n/a	n/a	n/a	n/a
66.9502	0.7167	T_INK	10	Neutral	xxxxx	xxxxx	niebieski	blue	hit	n/a
67.6469	n/a	RESPONSE	n/a	n/a	n/a	n/a	n/a	n/a	n/a	blue
67.6669	0.5167	FEEDBACK	n/a	n/a	n/a	n/a	n/a	n/a	n/a	n/a
68.1835	1.0167	ITI	n/a	n/a	n/a	n/a	n/a	n/a	n/a	n/a
69.2002	0.5167	FIXCROSS	n/a	n/a	n/a	n/a	n/a	n/a	n/a	n/a
69.7169	0.7167	T_INK	11	Incongruent	zielony	green	czerwony	red	hit	n/a
70.4113	n/a	RESPONSE	n/a	n/a	n/a	n/a	n/a	n/a	n/a	red
70.4335	0.5167	FEEDBACK	n/a	n/a	n/a	n/a	n/a	n/a	n/a	n/a
70.9502	1.0167	ITI	n/a	n/a	n/a	n/a	n/a	n/a	n/a	n/a
71.9669	0.5167	FIXCROSS	n/a	n/a	n/a	n/a	n/a	n/a	n/a	n/a
72.4836	0.8167	T_INK	12	Neutral	xxxxxxxx	xxxxxxxx	zielony	green	hit	n/a
73.2716	n/a	RESPONSE	n/a	n/a	n/a	n/a	n/a	n/a	n/a	green
73.3002	0.5167	FEEDBACK	n/a	n/a	n/a	n/a	n/a	n/a	n/a	n/a
73.8169	1.0333	ITI	n/a	n/a	n/a	n/a	n/a	n/a	n/a	n/a
107.6904	n/a	RESPONSE	n/a	n/a	n/a	n/a	n/a	n/a	n/a	n/a
107.7505	1.0167	ITI	n/a	n/a	n/a	n/a	n/a	n/a	n/a	n/a
108.7672	0.5167	FIXCROSS	n/a	n/a	n/a	n/a	n/a	n/a	n/a	n/a
109.2838	0.55	INK	1	Neutral	xxxxx	xxxxx	zielony	green	hit	n/a
109.7996	n/a	RESPONSE	n/a	n/a	n/a	n/a	n/a	n/a	n/a	green
109.8338	1.0167	ITI	n/a	n/a	n/a	n/a	n/a	n/a	n/a	n/a
110.8505	0.5167	FIXCROSS	n/a	n/a	n/a	n/a	n/a	n/a	n/a	n/a
111.3672	0.8333	INK	2	Incongruent	czerwony	red	niebieski	blue	hit	n/a
112.1805	n/a	RESPONSE	n/a	n/a	n/a	n/a	n/a	n/a	n/a	blue
112.2005	1.0167	ITI	n/a	n/a	n/a	n/a	n/a	n/a	n/a	n/a
113.2172	0.5167	FIXCROSS	n/a	n/a	n/a	n/a	n/a	n/a	n/a	n/a
113.7339	0.4667	INK	3	Neutral	xxxxxxx	xxxxxxx	niebieski	blue	hit	n/a
114.1778	n/a	RESPONSE	n/a	n/a	n/a	n/a	n/a	n/a	n/a	blue
114.2005	1.0167	ITI	n/a	n/a	n/a	n/a	n/a	n/a	n/a	n/a
115.2172	0.5167	FIXCROSS	n/a	n/a	n/a	n/a	n/a	n/a	n/a	n/a
115.7339	0.6333	INK	4	Incongruent	czerwony	red	zielony	green	hit	n/a
116.3351	n/a	RESPONSE	n/a	n/a	n/a	n/a	n/a	n/a	n/a	green
116.3672	1.0167	ITI	n/a	n/a	n/a	n/a	n/a	n/a	n/a	n/a
117.3839	0.5167	FIXCROSS	n/a	n/a	n/a	n/a	n/a	n/a	n/a	n/a
117.9006	0.4667	INK	5	Neutral	xxxxxxxx	xxxxxxxx	zielony	green	hit	n/a
118.3483	n/a	RESPONSE	n/a	n/a	n/a	n/a	n/a	n/a	n/a	green
118.3672	1.0167	ITI	n/a	n/a	n/a	n/a	n/a	n/a	n/a	n/a
119.3839	0.5167	FIXCROSS	n/a	n/a	n/a	n/a	n/a	n/a	n/a	n/a
119.9006	0.5	INK	6	Neutral	xxxxxxxx	xxxxxxxx	zielony	green	hit	n/a
120.3777	n/a	RESPONSE	n/a	n/a	n/a	n/a	n/a	n/a	n/a	green
120.4006	1.0167	ITI	n/a	n/a	n/a	n/a	n/a	n/a	n/a	n/a
121.4173	0.5167	FIXCROSS	n/a	n/a	n/a	n/a	n/a	n/a	n/a	n/a
121.9339	0.5667	INK	7	Neutral	xxxxxxx	xxxxxxx	żółty	yellow	hit	n/a
122.471	n/a	RESPONSE	n/a	n/a	n/a	n/a	n/a	n/a	n/a	yellow
122.5006	1.0167	ITI	n/a	n/a	n/a	n/a	n/a	n/a	n/a	n/a
123.5173	0.5167	FIXCROSS	n/a	n/a	n/a	n/a	n/a	n/a	n/a	n/a
124.0339	0.6333	INK	8	Neutral	xxxxx	xxxxx	niebieski	blue	hit	n/a
124.6441	n/a	RESPONSE	n/a	n/a	n/a	n/a	n/a	n/a	n/a	blue
124.6673	1.0167	ITI	n/a	n/a	n/a	n/a	n/a	n/a	n/a	n/a
125.684	0.5167	FIXCROSS	n/a	n/a	n/a	n/a	n/a	n/a	n/a	n/a
126.2006	0.4333	INK	9	Neutral	xxxxx	xxxxx	niebieski	blue	hit	n/a
126.6096	n/a	RESPONSE	n/a	n/a	n/a	n/a	n/a	n/a	n/a	blue
126.6339	1.0167	ITI	n/a	n/a	n/a	n/a	n/a	n/a	n/a	n/a
127.6506	0.5167	FIXCROSS	n/a	n/a	n/a	n/a	n/a	n/a	n/a	n/a
128.1673	0.4333	INK	10	Incongruent	czerwony	red	niebieski	blue	hit	n/a
128.5749	n/a	RESPONSE	n/a	n/a	n/a	n/a	n/a	n/a	n/a	blue
128.6006	1.0167	ITI	n/a	n/a	n/a	n/a	n/a	n/a	n/a	n/a
129.6173	0.5167	FIXCROSS	n/a	n/a	n/a	n/a	n/a	n/a	n/a	n/a
130.134	0.4167	INK	11	Incongruent	czerwony	red	niebieski	blue	hit	n/a
130.5244	n/a	RESPONSE	n/a	n/a	n/a	n/a	n/a	n/a	n/a	blue
130.5507	1.0167	ITI	n/a	n/a	n/a	n/a	n/a	n/a	n/a	n/a
131.5673	0.5167	FIXCROSS	n/a	n/a	n/a	n/a	n/a	n/a	n/a	n/a
132.084	0.7167	INK	12	Incongruent	zielony	green	żółty	yellow	hit	n/a
132.7774	n/a	RESPONSE	n/a	n/a	n/a	n/a	n/a	n/a	n/a	yellow
132.8007	1.0167	ITI	n/a	n/a	n/a	n/a	n/a	n/a	n/a	n/a
133.8174	0.5167	FIXCROSS	n/a	n/a	n/a	n/a	n/a	n/a	n/a	n/a
134.334	1.0833	INK	13	Neutral	xxxxxxx	xxxxxxx	czerwony	red	hit	n/a
135.398	n/a	RESPONSE	n/a	n/a	n/a	n/a	n/a	n/a	n/a	red
135.4174	1.0167	ITI	n/a	n/a	n/a	n/a	n/a	n/a	n/a	n/a
136.434	0.5167	FIXCROSS	n/a	n/a	n/a	n/a	n/a	n/a	n/a	n/a
136.9507	0.6667	INK	14	Incongruent	żółty	yellow	czerwony	red	hit	n/a
137.587	n/a	RESPONSE	n/a	n/a	n/a	n/a	n/a	n/a	n/a	red
137.6174	1.0167	ITI	n/a	n/a	n/a	n/a	n/a	n/a	n/a	n/a
138.6341	0.5167	FIXCROSS	n/a	n/a	n/a	n/a	n/a	n/a	n/a	n/a
139.1507	0.5667	INK	15	Incongruent	żółty	yellow	niebieski	blue	hit	n/a
139.6963	n/a	RESPONSE	n/a	n/a	n/a	n/a	n/a	n/a	n/a	blue
139.7174	1.0167	ITI	n/a	n/a	n/a	n/a	n/a	n/a	n/a	n/a
140.7341	0.5167	FIXCROSS	n/a	n/a	n/a	n/a	n/a	n/a	n/a	n/a
141.2508	0.6667	INK	16	Incongruent	zielony	green	czerwony	red	hit	n/a
141.8854	n/a	RESPONSE	n/a	n/a	n/a	n/a	n/a	n/a	n/a	red
141.9174	1.0167	ITI	n/a	n/a	n/a	n/a	n/a	n/a	n/a	n/a
142.9341	0.5167	FIXCROSS	n/a	n/a	n/a	n/a	n/a	n/a	n/a	n/a
143.4508	0.65	INK	17	Incongruent	żółty	yellow	zielony	green	hit	n/a
144.0745	n/a	RESPONSE	n/a	n/a	n/a	n/a	n/a	n/a	n/a	green
144.1008	1.0167	ITI	n/a	n/a	n/a	n/a	n/a	n/a	n/a	n/a
145.1174	0.5167	FIXCROSS	n/a	n/a	n/a	n/a	n/a	n/a	n/a	n/a
145.6341	0.6167	INK	18	Neutral	xxxxxxx	xxxxxxx	żółty	yellow	hit	n/a
146.2317	n/a	RESPONSE	n/a	n/a	n/a	n/a	n/a	n/a	n/a	yellow
146.2508	1.0167	ITI	n/a	n/a	n/a	n/a	n/a	n/a	n/a	n/a
147.2675	0.5167	FIXCROSS	n/a	n/a	n/a	n/a	n/a	n/a	n/a	n/a
147.7841	0.4833	INK	19	Neutral	xxxxxxxx	xxxxxxxx	żółty	yellow	hit	n/a
148.2451	n/a	RESPONSE	n/a	n/a	n/a	n/a	n/a	n/a	n/a	yellow
148.2675	1.0167	ITI	n/a	n/a	n/a	n/a	n/a	n/a	n/a	n/a
149.2841	0.5167	FIXCROSS	n/a	n/a	n/a	n/a	n/a	n/a	n/a	n/a
149.8008	0.7833	INK	20	Neutral	xxxxxxxx	xxxxxxxx	niebieski	blue	hit	n/a
150.5621	n/a	RESPONSE	n/a	n/a	n/a	n/a	n/a	n/a	n/a	blue
150.5842	1.0167	ITI	n/a	n/a	n/a	n/a	n/a	n/a	n/a	n/a
151.6008	0.5167	FIXCROSS	n/a	n/a	n/a	n/a	n/a	n/a	n/a	n/a
152.1175	0.4	INK	21	Neutral	xxxxxxx	xxxxxxx	niebieski	blue	hit	n/a
152.4955	n/a	RESPONSE	n/a	n/a	n/a	n/a	n/a	n/a	n/a	blue
152.5175	1.0167	ITI	n/a	n/a	n/a	n/a	n/a	n/a	n/a	n/a
153.5342	0.5167	FIXCROSS	n/a	n/a	n/a	n/a	n/a	n/a	n/a	n/a
154.0508	0.6333	INK	22	Incongruent	żółty	yellow	czerwony	red	hit	n/a
154.6526	n/a	RESPONSE	n/a	n/a	n/a	n/a	n/a	n/a	n/a	red
154.6842	1.0167	ITI	n/a	n/a	n/a	n/a	n/a	n/a	n/a	n/a
155.7008	0.5167	FIXCROSS	n/a	n/a	n/a	n/a	n/a	n/a	n/a	n/a
156.2175	0.6167	INK	23	Incongruent	zielony	green	niebieski	blue	hit	n/a
156.8099	n/a	RESPONSE	n/a	n/a	n/a	n/a	n/a	n/a	n/a	blue
156.8342	1.0167	ITI	n/a	n/a	n/a	n/a	n/a	n/a	n/a	n/a
157.8509	0.5167	FIXCROSS	n/a	n/a	n/a	n/a	n/a	n/a	n/a	n/a
158.3675	0.6333	INK	24	Neutral	xxxxx	xxxxx	czerwony	red	hit	n/a
158.9671	n/a	RESPONSE	n/a	n/a	n/a	n/a	n/a	n/a	n/a	red
159.0009	1.0167	ITI	n/a	n/a	n/a	n/a	n/a	n/a	n/a	n/a
160.0176	0.5167	FIXCROSS	n/a	n/a	n/a	n/a	n/a	n/a	n/a	n/a
160.5342	0.6	INK	25	Incongruent	czerwony	red	zielony	green	hit	n/a
161.1082	n/a	RESPONSE	n/a	n/a	n/a	n/a	n/a	n/a	n/a	green
161.1342	1.0167	ITI	n/a	n/a	n/a	n/a	n/a	n/a	n/a	n/a
162.1509	0.5167	FIXCROSS	n/a	n/a	n/a	n/a	n/a	n/a	n/a	n/a
162.6676	0.3833	INK	26	Neutral	xxxxx	xxxxx	zielony	green	hit	n/a
163.0258	n/a	RESPONSE	n/a	n/a	n/a	n/a	n/a	n/a	n/a	green
163.0509	1.0167	ITI	n/a	n/a	n/a	n/a	n/a	n/a	n/a	n/a
164.0676	0.5167	FIXCROSS	n/a	n/a	n/a	n/a	n/a	n/a	n/a	n/a
164.5842	0.6333	INK	27	Incongruent	zielony	green	czerwony	red	hit	n/a
165.1989	n/a	RESPONSE	n/a	n/a	n/a	n/a	n/a	n/a	n/a	red
165.2176	1.0167	ITI	n/a	n/a	n/a	n/a	n/a	n/a	n/a	n/a
166.2343	0.5167	FIXCROSS	n/a	n/a	n/a	n/a	n/a	n/a	n/a	n/a
166.7509	0.5167	INK	28	Neutral	xxxxxxxxx	xxxxxxxxx	zielony	green	hit	n/a
167.2441	n/a	RESPONSE	n/a	n/a	n/a	n/a	n/a	n/a	n/a	green
167.2676	1.0167	ITI	n/a	n/a	n/a	n/a	n/a	n/a	n/a	n/a
168.2843	0.5167	FIXCROSS	n/a	n/a	n/a	n/a	n/a	n/a	n/a	n/a
168.801	0.4167	INK	29	Incongruent	żółty	yellow	zielony	green	hit	n/a
169.1936	n/a	RESPONSE	n/a	n/a	n/a	n/a	n/a	n/a	n/a	green
169.2176	1.0167	ITI	n/a	n/a	n/a	n/a	n/a	n/a	n/a	n/a
170.2343	0.5167	FIXCROSS	n/a	n/a	n/a	n/a	n/a	n/a	n/a	n/a
170.751	0.4833	INK	30	Incongruent	zielony	green	żółty	yellow	hit	n/a
171.207	n/a	RESPONSE	n/a	n/a	n/a	n/a	n/a	n/a	n/a	yellow
171.2343	1.0167	ITI	n/a	n/a	n/a	n/a	n/a	n/a	n/a	n/a
172.251	0.5167	FIXCROSS	n/a	n/a	n/a	n/a	n/a	n/a	n/a	n/a
172.7676	0.5667	INK	31	Neutral	xxxxxxxx	xxxxxxxx	zielony	green	hit	n/a
173.3162	n/a	RESPONSE	n/a	n/a	n/a	n/a	n/a	n/a	n/a	green
173.3343	1.0167	ITI	n/a	n/a	n/a	n/a	n/a	n/a	n/a	n/a
174.351	0.5167	FIXCROSS	n/a	n/a	n/a	n/a	n/a	n/a	n/a	n/a
174.8676	0.5167	INK	32	Neutral	xxxxxxx	xxxxxxx	czerwony	red	hit	n/a
175.3615	n/a	RESPONSE	n/a	n/a	n/a	n/a	n/a	n/a	n/a	red
175.3843	1.0167	ITI	n/a	n/a	n/a	n/a	n/a	n/a	n/a	n/a
176.401	0.5167	FIXCROSS	n/a	n/a	n/a	n/a	n/a	n/a	n/a	n/a
176.9177	0.5833	INK	33	Incongruent	niebieski	blue	żółty	yellow	hit	n/a
177.4708	n/a	RESPONSE	n/a	n/a	n/a	n/a	n/a	n/a	n/a	yellow
177.501	1.0167	ITI	n/a	n/a	n/a	n/a	n/a	n/a	n/a	n/a
178.5177	0.5167	FIXCROSS	n/a	n/a	n/a	n/a	n/a	n/a	n/a	n/a
179.0344	0.45	INK	34	Incongruent	niebieski	blue	żółty	yellow	hit	n/a
179.4521	n/a	RESPONSE	n/a	n/a	n/a	n/a	n/a	n/a	n/a	yellow
179.4843	1.0167	ITI	n/a	n/a	n/a	n/a	n/a	n/a	n/a	n/a
180.501	0.5167	FIXCROSS	n/a	n/a	n/a	n/a	n/a	n/a	n/a	n/a
181.0177	0.6	INK	35	Incongruent	niebieski	blue	czerwony	red	hit	n/a
181.5933	n/a	RESPONSE	n/a	n/a	n/a	n/a	n/a	n/a	n/a	red
181.6177	1.0167	ITI	n/a	n/a	n/a	n/a	n/a	n/a	n/a	n/a
182.6344	0.5167	FIXCROSS	n/a	n/a	n/a	n/a	n/a	n/a	n/a	n/a
183.1511	0.55	INK	36	Neutral	xxxxxxxx	xxxxxxxx	niebieski	blue	hit	n/a
183.6707	n/a	RESPONSE	n/a	n/a	n/a	n/a	n/a	n/a	n/a	blue
183.7011	1.0167	ITI	n/a	n/a	n/a	n/a	n/a	n/a	n/a	n/a
184.7177	0.5167	FIXCROSS	n/a	n/a	n/a	n/a	n/a	n/a	n/a	n/a
185.2344	0.5	INK	37	Incongruent	niebieski	blue	żółty	yellow	hit	n/a
185.7159	n/a	RESPONSE	n/a	n/a	n/a	n/a	n/a	n/a	n/a	yellow
185.7344	1.0167	ITI	n/a	n/a	n/a	n/a	n/a	n/a	n/a	n/a
186.7511	0.5167	FIXCROSS	n/a	n/a	n/a	n/a	n/a	n/a	n/a	n/a
187.2677	0.65	INK	38	Neutral	xxxxxxxx	xxxxxxxx	niebieski	blue	hit	n/a
187.8891	n/a	RESPONSE	n/a	n/a	n/a	n/a	n/a	n/a	n/a	blue
187.9177	1.0167	ITI	n/a	n/a	n/a	n/a	n/a	n/a	n/a	n/a
188.9344	0.5167	FIXCROSS	n/a	n/a	n/a	n/a	n/a	n/a	n/a	n/a
189.4511	0.5833	INK	39	Neutral	xxxxxxxxx	xxxxxxxxx	czerwony	red	incorrect	n/a
190.0144	n/a	RESPONSE	n/a	n/a	n/a	n/a	n/a	n/a	n/a	green
190.0344	1.0167	ITI	n/a	n/a	n/a	n/a	n/a	n/a	n/a	n/a
191.0511	0.5167	FIXCROSS	n/a	n/a	n/a	n/a	n/a	n/a	n/a	n/a
191.5678	0.65	INK	40	Incongruent	czerwony	red	żółty	yellow	hit	n/a
192.1875	n/a	RESPONSE	n/a	n/a	n/a	n/a	n/a	n/a	n/a	yellow
192.2178	1.0167	ITI	n/a	n/a	n/a	n/a	n/a	n/a	n/a	n/a
193.2345	0.5167	FIXCROSS	n/a	n/a	n/a	n/a	n/a	n/a	n/a	n/a
193.7511	0.6833	INK	41	Incongruent	niebieski	blue	czerwony	red	hit	n/a
194.4087	n/a	RESPONSE	n/a	n/a	n/a	n/a	n/a	n/a	n/a	red
194.4345	1.0167	ITI	n/a	n/a	n/a	n/a	n/a	n/a	n/a	n/a
195.4511	0.5167	FIXCROSS	n/a	n/a	n/a	n/a	n/a	n/a	n/a	n/a
195.9678	0.5333	INK	42	Neutral	xxxxx	xxxxx	czerwony	red	hit	n/a
196.4699	n/a	RESPONSE	n/a	n/a	n/a	n/a	n/a	n/a	n/a	red
196.5011	1.0167	ITI	n/a	n/a	n/a	n/a	n/a	n/a	n/a	n/a
197.5178	0.5167	FIXCROSS	n/a	n/a	n/a	n/a	n/a	n/a	n/a	n/a
198.0345	0.65	INK	43	Incongruent	niebieski	blue	zielony	green	hit	n/a
198.659	n/a	RESPONSE	n/a	n/a	n/a	n/a	n/a	n/a	n/a	green
198.6845	1.0167	ITI	n/a	n/a	n/a	n/a	n/a	n/a	n/a	n/a
199.7012	0.5167	FIXCROSS	n/a	n/a	n/a	n/a	n/a	n/a	n/a	n/a
200.2178	0.75	INK	44	Incongruent	zielony	green	czerwony	red	hit	n/a
200.944	n/a	RESPONSE	n/a	n/a	n/a	n/a	n/a	n/a	n/a	red
200.9678	1.0167	ITI	n/a	n/a	n/a	n/a	n/a	n/a	n/a	n/a
201.9845	0.5167	FIXCROSS	n/a	n/a	n/a	n/a	n/a	n/a	n/a	n/a
202.5012	0.5833	INK	45	Neutral	xxxxx	xxxxx	zielony	green	hit	n/a
203.0532	n/a	RESPONSE	n/a	n/a	n/a	n/a	n/a	n/a	n/a	green
203.0845	1.0167	ITI	n/a	n/a	n/a	n/a	n/a	n/a	n/a	n/a
204.1012	0.5167	FIXCROSS	n/a	n/a	n/a	n/a	n/a	n/a	n/a	n/a
204.6179	0.5833	INK	46	Neutral	xxxxxxx	xxxxxxx	żółty	yellow	hit	n/a
205.1786	n/a	RESPONSE	n/a	n/a	n/a	n/a	n/a	n/a	n/a	yellow
205.2012	1.0167	ITI	n/a	n/a	n/a	n/a	n/a	n/a	n/a	n/a
206.2179	0.5167	FIXCROSS	n/a	n/a	n/a	n/a	n/a	n/a	n/a	n/a
206.7346	0.45	INK	47	Incongruent	czerwony	red	żółty	yellow	hit	n/a
207.1599	n/a	RESPONSE	n/a	n/a	n/a	n/a	n/a	n/a	n/a	yellow
207.1846	1.0167	ITI	n/a	n/a	n/a	n/a	n/a	n/a	n/a	n/a
208.2012	0.5167	FIXCROSS	n/a	n/a	n/a	n/a	n/a	n/a	n/a	n/a
208.7179	0.7834	INK	48	Neutral	xxxxxxx	xxxxxxx	niebieski	blue	hit	n/a
209.4769	n/a	RESPONSE	n/a	n/a	n/a	n/a	n/a	n/a	n/a	blue
209.5012	1.0167	ITI	n/a	n/a	n/a	n/a	n/a	n/a	n/a	n/a
210.5179	0.5167	FIXCROSS	n/a	n/a	n/a	n/a	n/a	n/a	n/a	n/a
211.0346	0.8	INK	49	Incongruent	niebieski	blue	zielony	green	hit	n/a
211.8099	n/a	RESPONSE	n/a	n/a	n/a	n/a	n/a	n/a	n/a	green
211.8346	1.0167	ITI	n/a	n/a	n/a	n/a	n/a	n/a	n/a	n/a
212.8513	0.5167	FIXCROSS	n/a	n/a	n/a	n/a	n/a	n/a	n/a	n/a
213.3679	0.5167	INK	50	Neutral	xxxxxxxxx	xxxxxxxxx	czerwony	red	hit	n/a
213.8551	n/a	RESPONSE	n/a	n/a	n/a	n/a	n/a	n/a	n/a	red
213.8846	1.0167	ITI	n/a	n/a	n/a	n/a	n/a	n/a	n/a	n/a
214.9013	0.5167	FIXCROSS	n/a	n/a	n/a	n/a	n/a	n/a	n/a	n/a
215.418	0.6333	INK	51	Neutral	xxxxxxxxx	xxxxxxxxx	zielony	green	hit	n/a
216.0284	n/a	RESPONSE	n/a	n/a	n/a	n/a	n/a	n/a	n/a	green
216.0513	1.0167	ITI	n/a	n/a	n/a	n/a	n/a	n/a	n/a	n/a
217.068	0.5167	FIXCROSS	n/a	n/a	n/a	n/a	n/a	n/a	n/a	n/a
217.5846	0.6333	INK	52	Incongruent	żółty	yellow	czerwony	red	hit	n/a
218.1856	n/a	RESPONSE	n/a	n/a	n/a	n/a	n/a	n/a	n/a	red
218.218	1.0167	ITI	n/a	n/a	n/a	n/a	n/a	n/a	n/a	n/a
219.2346	0.5167	FIXCROSS	n/a	n/a	n/a	n/a	n/a	n/a	n/a	n/a
219.7513	0.5833	INK	53	Incongruent	zielony	green	niebieski	blue	hit	n/a
220.3108	n/a	RESPONSE	n/a	n/a	n/a	n/a	n/a	n/a	n/a	blue
220.3347	1.0167	ITI	n/a	n/a	n/a	n/a	n/a	n/a	n/a	n/a
221.3513	0.5167	FIXCROSS	n/a	n/a	n/a	n/a	n/a	n/a	n/a	n/a
221.868	0.5	INK	54	Incongruent	zielony	green	niebieski	blue	hit	n/a
222.34	n/a	RESPONSE	n/a	n/a	n/a	n/a	n/a	n/a	n/a	blue
222.368	1.0167	ITI	n/a	n/a	n/a	n/a	n/a	n/a	n/a	n/a
223.3847	0.5167	FIXCROSS	n/a	n/a	n/a	n/a	n/a	n/a	n/a	n/a
223.9013	0.65	INK	55	Incongruent	niebieski	blue	zielony	green	hit	n/a
224.5292	n/a	RESPONSE	n/a	n/a	n/a	n/a	n/a	n/a	n/a	green
224.5513	1.0167	ITI	n/a	n/a	n/a	n/a	n/a	n/a	n/a	n/a
225.568	0.5167	FIXCROSS	n/a	n/a	n/a	n/a	n/a	n/a	n/a	n/a
226.0847	0.6	INK	56	Incongruent	zielony	green	żółty	yellow	hit	n/a
226.6545	n/a	RESPONSE	n/a	n/a	n/a	n/a	n/a	n/a	n/a	yellow
226.6847	1.0167	ITI	n/a	n/a	n/a	n/a	n/a	n/a	n/a	n/a
227.7014	0.5167	FIXCROSS	n/a	n/a	n/a	n/a	n/a	n/a	n/a	n/a
228.218	0.4333	INK	57	Neutral	xxxxxxxxx	xxxxxxxxx	żółty	yellow	hit	n/a
228.6198	n/a	RESPONSE	n/a	n/a	n/a	n/a	n/a	n/a	n/a	yellow
228.6514	1.0167	ITI	n/a	n/a	n/a	n/a	n/a	n/a	n/a	n/a
229.668	0.5167	FIXCROSS	n/a	n/a	n/a	n/a	n/a	n/a	n/a	n/a
230.1847	0.6667	INK	58	Incongruent	czerwony	red	zielony	green	hit	n/a
230.8249	n/a	RESPONSE	n/a	n/a	n/a	n/a	n/a	n/a	n/a	green
230.8514	1.0167	ITI	n/a	n/a	n/a	n/a	n/a	n/a	n/a	n/a
231.8681	0.5167	FIXCROSS	n/a	n/a	n/a	n/a	n/a	n/a	n/a	n/a
232.3847	0.75	INK	59	Incongruent	czerwony	red	żółty	yellow	hit	n/a
233.11	n/a	RESPONSE	n/a	n/a	n/a	n/a	n/a	n/a	n/a	yellow
233.1347	1.0167	ITI	n/a	n/a	n/a	n/a	n/a	n/a	n/a	n/a
234.1514	0.5167	FIXCROSS	n/a	n/a	n/a	n/a	n/a	n/a	n/a	n/a
234.6681	0.5667	INK	60	Neutral	xxxxxxxxx	xxxxxxxxx	żółty	yellow	hit	n/a
235.2032	n/a	RESPONSE	n/a	n/a	n/a	n/a	n/a	n/a	n/a	yellow
235.2348	1.0167	ITI	n/a	n/a	n/a	n/a	n/a	n/a	n/a	n/a
236.2514	0.5167	FIXCROSS	n/a	n/a	n/a	n/a	n/a	n/a	n/a	n/a
236.7681	0.55	INK	61	Incongruent	żółty	yellow	zielony	green	hit	n/a
237.2965	n/a	RESPONSE	n/a	n/a	n/a	n/a	n/a	n/a	n/a	green
237.3181	1.0167	ITI	n/a	n/a	n/a	n/a	n/a	n/a	n/a	n/a
238.3348	0.5167	FIXCROSS	n/a	n/a	n/a	n/a	n/a	n/a	n/a	n/a
238.8514	0.7167	INK	62	Neutral	xxxxxxx	xxxxxxx	czerwony	red	hit	n/a
239.5495	n/a	RESPONSE	n/a	n/a	n/a	n/a	n/a	n/a	n/a	red
239.5681	1.0167	ITI	n/a	n/a	n/a	n/a	n/a	n/a	n/a	n/a
240.5848	0.5167	FIXCROSS	n/a	n/a	n/a	n/a	n/a	n/a	n/a	n/a
241.1015	0.4	INK	63	Neutral	xxxxxxxxx	xxxxxxxxx	czerwony	red	hit	n/a
241.4829	n/a	RESPONSE	n/a	n/a	n/a	n/a	n/a	n/a	n/a	red
241.5015	1.0167	ITI	n/a	n/a	n/a	n/a	n/a	n/a	n/a	n/a
242.5181	0.5167	FIXCROSS	n/a	n/a	n/a	n/a	n/a	n/a	n/a	n/a
243.0348	0.4667	INK	64	Neutral	xxxxxxxx	xxxxxxxx	żółty	yellow	hit	n/a
243.4802	n/a	RESPONSE	n/a	n/a	n/a	n/a	n/a	n/a	n/a	yellow
243.5015	1.0167	ITI	n/a	n/a	n/a	n/a	n/a	n/a	n/a	n/a
244.5182	0.5167	FIXCROSS	n/a	n/a	n/a	n/a	n/a	n/a	n/a	n/a
245.0348	0.6833	INK	65	Neutral	xxxxxxxxx	xxxxxxxxx	zielony	green	hit	n/a
245.6854	n/a	RESPONSE	n/a	n/a	n/a	n/a	n/a	n/a	n/a	green
245.7182	1.0167	ITI	n/a	n/a	n/a	n/a	n/a	n/a	n/a	n/a
246.7348	0.5167	FIXCROSS	n/a	n/a	n/a	n/a	n/a	n/a	n/a	n/a
247.2515	0.55	INK	66	Neutral	xxxxx	xxxxx	czerwony	red	hit	n/a
247.7786	n/a	RESPONSE	n/a	n/a	n/a	n/a	n/a	n/a	n/a	red
247.8015	1.0167	ITI	n/a	n/a	n/a	n/a	n/a	n/a	n/a	n/a
248.8182	0.5167	FIXCROSS	n/a	n/a	n/a	n/a	n/a	n/a	n/a	n/a
249.3349	0.6667	INK	67	Incongruent	żółty	yellow	niebieski	blue	hit	n/a
249.9838	n/a	RESPONSE	n/a	n/a	n/a	n/a	n/a	n/a	n/a	blue
250.0015	1.0167	ITI	n/a	n/a	n/a	n/a	n/a	n/a	n/a	n/a
251.0182	0.5167	FIXCROSS	n/a	n/a	n/a	n/a	n/a	n/a	n/a	n/a
251.5349	0.4333	INK	68	Neutral	xxxxx	xxxxx	niebieski	blue	hit	n/a
251.9492	n/a	RESPONSE	n/a	n/a	n/a	n/a	n/a	n/a	n/a	blue
251.9682	1.0167	ITI	n/a	n/a	n/a	n/a	n/a	n/a	n/a	n/a
252.9849	0.5167	FIXCROSS	n/a	n/a	n/a	n/a	n/a	n/a	n/a	n/a
253.5016	0.3833	INK	69	Incongruent	żółty	yellow	niebieski	blue	hit	n/a
253.8667	n/a	RESPONSE	n/a	n/a	n/a	n/a	n/a	n/a	n/a	blue
253.8849	1.0167	ITI	n/a	n/a	n/a	n/a	n/a	n/a	n/a	n/a
254.9016	0.5167	FIXCROSS	n/a	n/a	n/a	n/a	n/a	n/a	n/a	n/a
255.4182	0.5	INK	70	Neutral	xxxxxxxxx	xxxxxxxxx	żółty	yellow	hit	n/a
255.896	n/a	RESPONSE	n/a	n/a	n/a	n/a	n/a	n/a	n/a	yellow
255.9182	1.0167	ITI	n/a	n/a	n/a	n/a	n/a	n/a	n/a	n/a
256.9349	0.5167	FIXCROSS	n/a	n/a	n/a	n/a	n/a	n/a	n/a	n/a
257.4516	0.7	INK	71	Incongruent	niebieski	blue	czerwony	red	hit	n/a
258.1331	n/a	RESPONSE	n/a	n/a	n/a	n/a	n/a	n/a	n/a	red
258.1516	1.0167	ITI	n/a	n/a	n/a	n/a	n/a	n/a	n/a	n/a
259.1683	0.5167	FIXCROSS	n/a	n/a	n/a	n/a	n/a	n/a	n/a	n/a
259.6849	0.45	INK	72	Neutral	xxxxxxxx	xxxxxxxx	żółty	yellow	hit	n/a
260.1145	n/a	RESPONSE	n/a	n/a	n/a	n/a	n/a	n/a	n/a	yellow
260.1349	1.0833	ITI	n/a	n/a	n/a	n/a	n/a	n/a	n/a	n/a
279.689	n/a	RESPONSE	n/a	n/a	n/a	n/a	n/a	n/a	n/a	n/a
279.7517	1.0167	ITI	n/a	n/a	n/a	n/a	n/a	n/a	n/a	n/a
280.7684	0.5167	FIXCROSS	n/a	n/a	n/a	n/a	n/a	n/a	n/a	n/a
281.2851	0.9667	T_COLOR_NAME	1	Neutral	niebieski	blue	Neutral	Neutral	hit	n/a
282.2137	n/a	RESPONSE	n/a	n/a	n/a	n/a	n/a	n/a	n/a	blue
282.2518	0.5167	FEEDBACK	n/a	n/a	n/a	n/a	n/a	n/a	n/a	n/a
282.7684	1.0167	ITI	n/a	n/a	n/a	n/a	n/a	n/a	n/a	n/a
283.7851	0.5167	FIXCROSS	n/a	n/a	n/a	n/a	n/a	n/a	n/a	n/a
284.3018	0.5833	T_COLOR_NAME	2	Neutral	żółty	yellow	Neutral	Neutral	hit	n/a
284.8502	n/a	RESPONSE	n/a	n/a	n/a	n/a	n/a	n/a	n/a	yellow
284.8851	0.5167	FEEDBACK	n/a	n/a	n/a	n/a	n/a	n/a	n/a	n/a
285.4018	1.0167	ITI	n/a	n/a	n/a	n/a	n/a	n/a	n/a	n/a
286.4185	0.5167	FIXCROSS	n/a	n/a	n/a	n/a	n/a	n/a	n/a	n/a
286.9351	0.6667	T_COLOR_NAME	3	Neutral	czerwony	red	Neutral	Neutral	hit	n/a
287.5666	n/a	RESPONSE	n/a	n/a	n/a	n/a	n/a	n/a	n/a	red
287.6018	0.5167	FEEDBACK	n/a	n/a	n/a	n/a	n/a	n/a	n/a	n/a
288.1185	1.0167	ITI	n/a	n/a	n/a	n/a	n/a	n/a	n/a	n/a
289.1351	0.5167	FIXCROSS	n/a	n/a	n/a	n/a	n/a	n/a	n/a	n/a
289.6518	0.6833	T_COLOR_NAME	4	Neutral	niebieski	blue	Neutral	Neutral	hit	n/a
290.3151	n/a	RESPONSE	n/a	n/a	n/a	n/a	n/a	n/a	n/a	blue
290.3352	0.5167	FEEDBACK	n/a	n/a	n/a	n/a	n/a	n/a	n/a	n/a
290.8518	1.0167	ITI	n/a	n/a	n/a	n/a	n/a	n/a	n/a	n/a
291.8685	0.5167	FIXCROSS	n/a	n/a	n/a	n/a	n/a	n/a	n/a	n/a
292.3852	1.0167	T_COLOR_NAME	5	Incongruent	czerwony	red	żółty	yellow	hit	n/a
293.3671	n/a	RESPONSE	n/a	n/a	n/a	n/a	n/a	n/a	n/a	red
293.4018	0.5167	FEEDBACK	n/a	n/a	n/a	n/a	n/a	n/a	n/a	n/a
293.9185	1.0167	ITI	n/a	n/a	n/a	n/a	n/a	n/a	n/a	n/a
294.9352	0.5167	FIXCROSS	n/a	n/a	n/a	n/a	n/a	n/a	n/a	n/a
295.4519	1.0167	T_COLOR_NAME	6	Incongruent	niebieski	blue	zielony	green	hit	n/a
296.4351	n/a	RESPONSE	n/a	n/a	n/a	n/a	n/a	n/a	n/a	blue
296.4685	0.5167	FEEDBACK	n/a	n/a	n/a	n/a	n/a	n/a	n/a	n/a
296.9852	1.0167	ITI	n/a	n/a	n/a	n/a	n/a	n/a	n/a	n/a
298.0019	0.5167	FIXCROSS	n/a	n/a	n/a	n/a	n/a	n/a	n/a	n/a
298.5186	0.6	T_COLOR_NAME	7	Neutral	żółty	yellow	Neutral	Neutral	hit	n/a
299.0876	n/a	RESPONSE	n/a	n/a	n/a	n/a	n/a	n/a	n/a	yellow
299.1186	0.5167	FEEDBACK	n/a	n/a	n/a	n/a	n/a	n/a	n/a	n/a
299.6352	1.0167	ITI	n/a	n/a	n/a	n/a	n/a	n/a	n/a	n/a
300.6519	0.5167	FIXCROSS	n/a	n/a	n/a	n/a	n/a	n/a	n/a	n/a
301.1686	0.8	T_COLOR_NAME	8	Incongruent	żółty	yellow	zielony	green	hit	n/a
301.9479	n/a	RESPONSE	n/a	n/a	n/a	n/a	n/a	n/a	n/a	yellow
301.9686	0.5167	FEEDBACK	n/a	n/a	n/a	n/a	n/a	n/a	n/a	n/a
302.4852	1.0167	ITI	n/a	n/a	n/a	n/a	n/a	n/a	n/a	n/a
303.5019	0.5167	FIXCROSS	n/a	n/a	n/a	n/a	n/a	n/a	n/a	n/a
304.0186	0.7167	T_COLOR_NAME	9	Incongruent	zielony	green	czerwony	red	hit	n/a
304.7123	n/a	RESPONSE	n/a	n/a	n/a	n/a	n/a	n/a	n/a	green
304.7353	0.5167	FEEDBACK	n/a	n/a	n/a	n/a	n/a	n/a	n/a	n/a
305.2519	1.0167	ITI	n/a	n/a	n/a	n/a	n/a	n/a	n/a	n/a
306.2686	0.5167	FIXCROSS	n/a	n/a	n/a	n/a	n/a	n/a	n/a	n/a
306.7853	0.8	T_COLOR_NAME	10	Neutral	czerwony	red	Neutral	Neutral	hit	n/a
307.5566	n/a	RESPONSE	n/a	n/a	n/a	n/a	n/a	n/a	n/a	red
307.5853	0.5167	FEEDBACK	n/a	n/a	n/a	n/a	n/a	n/a	n/a	n/a
308.102	1.0167	ITI	n/a	n/a	n/a	n/a	n/a	n/a	n/a	n/a
309.1186	0.5167	FIXCROSS	n/a	n/a	n/a	n/a	n/a	n/a	n/a	n/a
309.6353	0.7833	T_COLOR_NAME	11	Neutral	zielony	green	Neutral	Neutral	hit	n/a
310.3849	n/a	RESPONSE	n/a	n/a	n/a	n/a	n/a	n/a	n/a	green
310.4186	0.5167	FEEDBACK	n/a	n/a	n/a	n/a	n/a	n/a	n/a	n/a
310.9353	1.0167	ITI	n/a	n/a	n/a	n/a	n/a	n/a	n/a	n/a
311.952	0.5167	FIXCROSS	n/a	n/a	n/a	n/a	n/a	n/a	n/a	n/a
312.4686	0.6333	T_COLOR_NAME	12	Neutral	żółty	yellow	Neutral	Neutral	hit	n/a
313.0694	n/a	RESPONSE	n/a	n/a	n/a	n/a	n/a	n/a	n/a	yellow
313.102	0.5167	FEEDBACK	n/a	n/a	n/a	n/a	n/a	n/a	n/a	n/a
313.6187	1.0333	ITI	n/a	n/a	n/a	n/a	n/a	n/a	n/a	n/a
318.1348	n/a	RESPONSE	n/a	n/a	n/a	n/a	n/a	n/a	n/a	n/a
318.202	1.0167	ITI	n/a	n/a	n/a	n/a	n/a	n/a	n/a	n/a
319.2187	0.5167	FIXCROSS	n/a	n/a	n/a	n/a	n/a	n/a	n/a	n/a
319.7354	0.8833	COLOR_NAME	1	Neutral	czerwony	red	Neutral	Neutral	hit	n/a
320.5955	n/a	RESPONSE	n/a	n/a	n/a	n/a	n/a	n/a	n/a	red
320.6187	1.0167	ITI	n/a	n/a	n/a	n/a	n/a	n/a	n/a	n/a
321.6354	0.5167	FIXCROSS	n/a	n/a	n/a	n/a	n/a	n/a	n/a	n/a
322.1521	0.6833	COLOR_NAME	2	Neutral	niebieski	blue	Neutral	Neutral	hit	n/a
322.8166	n/a	RESPONSE	n/a	n/a	n/a	n/a	n/a	n/a	n/a	blue
322.8354	1.0167	ITI	n/a	n/a	n/a	n/a	n/a	n/a	n/a	n/a
323.8521	0.5167	FIXCROSS	n/a	n/a	n/a	n/a	n/a	n/a	n/a	n/a
324.3687	0.7167	COLOR_NAME	3	Neutral	zielony	green	Neutral	Neutral	hit	n/a
325.0537	n/a	RESPONSE	n/a	n/a	n/a	n/a	n/a	n/a	n/a	green
325.0854	1.0167	ITI	n/a	n/a	n/a	n/a	n/a	n/a	n/a	n/a
326.1021	0.5167	FIXCROSS	n/a	n/a	n/a	n/a	n/a	n/a	n/a	n/a
326.6187	1.2167	COLOR_NAME	4	Incongruent	niebieski	blue	czerwony	red	hit	n/a
327.8182	n/a	RESPONSE	n/a	n/a	n/a	n/a	n/a	n/a	n/a	blue
327.8354	1.0167	ITI	n/a	n/a	n/a	n/a	n/a	n/a	n/a	n/a
328.8521	0.5167	FIXCROSS	n/a	n/a	n/a	n/a	n/a	n/a	n/a	n/a
329.3688	0.7667	COLOR_NAME	5	Neutral	żółty	yellow	Neutral	Neutral	hit	n/a
330.1032	n/a	RESPONSE	n/a	n/a	n/a	n/a	n/a	n/a	n/a	yellow
330.1354	1.0167	ITI	n/a	n/a	n/a	n/a	n/a	n/a	n/a	n/a
331.1521	0.5167	FIXCROSS	n/a	n/a	n/a	n/a	n/a	n/a	n/a	n/a
331.6688	0.7833	COLOR_NAME	6	Incongruent	zielony	green	czerwony	red	hit	n/a
332.4202	n/a	RESPONSE	n/a	n/a	n/a	n/a	n/a	n/a	n/a	green
332.4521	1.0167	ITI	n/a	n/a	n/a	n/a	n/a	n/a	n/a	n/a
333.4688	0.5167	FIXCROSS	n/a	n/a	n/a	n/a	n/a	n/a	n/a	n/a
333.9855	1.3833	COLOR_NAME	7	Incongruent	czerwony	red	zielony	green	hit	n/a
335.3443	n/a	RESPONSE	n/a	n/a	n/a	n/a	n/a	n/a	n/a	red
335.3688	1.0167	ITI	n/a	n/a	n/a	n/a	n/a	n/a	n/a	n/a
336.3855	0.5167	FIXCROSS	n/a	n/a	n/a	n/a	n/a	n/a	n/a	n/a
336.9022	0.7333	COLOR_NAME	8	Incongruent	niebieski	blue	czerwony	red	hit	n/a
337.6133	n/a	RESPONSE	n/a	n/a	n/a	n/a	n/a	n/a	n/a	blue
337.6355	1.0167	ITI	n/a	n/a	n/a	n/a	n/a	n/a	n/a	n/a
338.6522	0.5167	FIXCROSS	n/a	n/a	n/a	n/a	n/a	n/a	n/a	n/a
339.1688	0.6667	COLOR_NAME	9	Incongruent	niebieski	blue	zielony	green	hit	n/a
339.8025	n/a	RESPONSE	n/a	n/a	n/a	n/a	n/a	n/a	n/a	blue
339.8355	1.0167	ITI	n/a	n/a	n/a	n/a	n/a	n/a	n/a	n/a
340.8522	0.5167	FIXCROSS	n/a	n/a	n/a	n/a	n/a	n/a	n/a	n/a
341.3689	0.6333	COLOR_NAME	10	Incongruent	zielony	green	niebieski	blue	hit	n/a
341.9756	n/a	RESPONSE	n/a	n/a	n/a	n/a	n/a	n/a	n/a	green
342.0022	1.0167	ITI	n/a	n/a	n/a	n/a	n/a	n/a	n/a	n/a
343.0189	0.5167	FIXCROSS	n/a	n/a	n/a	n/a	n/a	n/a	n/a	n/a
343.5355	0.7	COLOR_NAME	11	Neutral	zielony	green	Neutral	Neutral	hit	n/a
344.2127	n/a	RESPONSE	n/a	n/a	n/a	n/a	n/a	n/a	n/a	green
344.2356	1.0167	ITI	n/a	n/a	n/a	n/a	n/a	n/a	n/a	n/a
345.2522	0.5167	FIXCROSS	n/a	n/a	n/a	n/a	n/a	n/a	n/a	n/a
345.7689	0.65	COLOR_NAME	12	Incongruent	niebieski	blue	czerwony	red	hit	n/a
346.3858	n/a	RESPONSE	n/a	n/a	n/a	n/a	n/a	n/a	n/a	blue
346.4189	1.0167	ITI	n/a	n/a	n/a	n/a	n/a	n/a	n/a	n/a
347.4356	0.5167	FIXCROSS	n/a	n/a	n/a	n/a	n/a	n/a	n/a	n/a
347.9522	0.65	COLOR_NAME	13	Incongruent	żółty	yellow	czerwony	red	hit	n/a
348.5749	n/a	RESPONSE	n/a	n/a	n/a	n/a	n/a	n/a	n/a	yellow
348.6022	1.0167	ITI	n/a	n/a	n/a	n/a	n/a	n/a	n/a	n/a
349.6189	0.5167	FIXCROSS	n/a	n/a	n/a	n/a	n/a	n/a	n/a	n/a
350.1356	0.7667	COLOR_NAME	14	Incongruent	żółty	yellow	zielony	green	hit	n/a
350.876	n/a	RESPONSE	n/a	n/a	n/a	n/a	n/a	n/a	n/a	yellow
350.9023	1.0167	ITI	n/a	n/a	n/a	n/a	n/a	n/a	n/a	n/a
351.9189	0.5167	FIXCROSS	n/a	n/a	n/a	n/a	n/a	n/a	n/a	n/a
352.4356	0.5333	COLOR_NAME	15	Neutral	żółty	yellow	Neutral	Neutral	hit	n/a
352.9372	n/a	RESPONSE	n/a	n/a	n/a	n/a	n/a	n/a	n/a	yellow
352.9689	1.0167	ITI	n/a	n/a	n/a	n/a	n/a	n/a	n/a	n/a
353.9856	0.5167	FIXCROSS	n/a	n/a	n/a	n/a	n/a	n/a	n/a	n/a
354.5023	0.8	COLOR_NAME	16	Incongruent	czerwony	red	niebieski	blue	hit	n/a
355.2702	n/a	RESPONSE	n/a	n/a	n/a	n/a	n/a	n/a	n/a	red
355.3023	1.0167	ITI	n/a	n/a	n/a	n/a	n/a	n/a	n/a	n/a
356.319	0.5167	FIXCROSS	n/a	n/a	n/a	n/a	n/a	n/a	n/a	n/a
356.8356	0.6667	COLOR_NAME	17	Incongruent	żółty	yellow	niebieski	blue	hit	n/a
357.4752	n/a	RESPONSE	n/a	n/a	n/a	n/a	n/a	n/a	n/a	yellow
357.5023	1.0167	ITI	n/a	n/a	n/a	n/a	n/a	n/a	n/a	n/a
358.519	0.5167	FIXCROSS	n/a	n/a	n/a	n/a	n/a	n/a	n/a	n/a
359.0356	0.6833	COLOR_NAME	18	Incongruent	czerwony	red	niebieski	blue	hit	n/a
359.6962	n/a	RESPONSE	n/a	n/a	n/a	n/a	n/a	n/a	n/a	red
359.719	1.0167	ITI	n/a	n/a	n/a	n/a	n/a	n/a	n/a	n/a
360.7357	0.5167	FIXCROSS	n/a	n/a	n/a	n/a	n/a	n/a	n/a	n/a
361.2523	0.6667	COLOR_NAME	19	Neutral	czerwony	red	Neutral	Neutral	hit	n/a
361.8854	n/a	RESPONSE	n/a	n/a	n/a	n/a	n/a	n/a	n/a	red
361.919	1.0167	ITI	n/a	n/a	n/a	n/a	n/a	n/a	n/a	n/a
362.9357	0.5167	FIXCROSS	n/a	n/a	n/a	n/a	n/a	n/a	n/a	n/a
363.4523	0.8	COLOR_NAME	20	Neutral	niebieski	blue	Neutral	Neutral	hit	n/a
364.2343	n/a	RESPONSE	n/a	n/a	n/a	n/a	n/a	n/a	n/a	blue
364.2524	1.0167	ITI	n/a	n/a	n/a	n/a	n/a	n/a	n/a	n/a
365.269	0.5167	FIXCROSS	n/a	n/a	n/a	n/a	n/a	n/a	n/a	n/a
365.7857	0.5	COLOR_NAME	21	Neutral	zielony	green	Neutral	Neutral	hit	n/a
366.2638	n/a	RESPONSE	n/a	n/a	n/a	n/a	n/a	n/a	n/a	green
366.2857	1.0167	ITI	n/a	n/a	n/a	n/a	n/a	n/a	n/a	n/a
367.3024	0.5167	FIXCROSS	n/a	n/a	n/a	n/a	n/a	n/a	n/a	n/a
367.8191	0.5833	COLOR_NAME	22	Neutral	żółty	yellow	Neutral	Neutral	hit	n/a
368.3729	n/a	RESPONSE	n/a	n/a	n/a	n/a	n/a	n/a	n/a	yellow
368.4024	1.0167	ITI	n/a	n/a	n/a	n/a	n/a	n/a	n/a	n/a
369.4191	0.5167	FIXCROSS	n/a	n/a	n/a	n/a	n/a	n/a	n/a	n/a
369.9357	0.8167	COLOR_NAME	23	Incongruent	czerwony	red	żółty	yellow	hit	n/a
370.7219	n/a	RESPONSE	n/a	n/a	n/a	n/a	n/a	n/a	n/a	red
370.7524	1.0167	ITI	n/a	n/a	n/a	n/a	n/a	n/a	n/a	n/a
371.7691	0.5167	FIXCROSS	n/a	n/a	n/a	n/a	n/a	n/a	n/a	n/a
372.2857	0.75	COLOR_NAME	24	Incongruent	niebieski	blue	żółty	yellow	hit	n/a
373.0068	n/a	RESPONSE	n/a	n/a	n/a	n/a	n/a	n/a	n/a	blue
373.0358	1.0167	ITI	n/a	n/a	n/a	n/a	n/a	n/a	n/a	n/a
374.0524	0.5167	FIXCROSS	n/a	n/a	n/a	n/a	n/a	n/a	n/a	n/a
374.5691	0.6	COLOR_NAME	25	Incongruent	żółty	yellow	niebieski	blue	hit	n/a
375.1479	n/a	RESPONSE	n/a	n/a	n/a	n/a	n/a	n/a	n/a	yellow
375.1691	1.0167	ITI	n/a	n/a	n/a	n/a	n/a	n/a	n/a	n/a
376.1858	0.5167	FIXCROSS	n/a	n/a	n/a	n/a	n/a	n/a	n/a	n/a
376.7024	0.8167	COLOR_NAME	26	Incongruent	zielony	green	czerwony	red	incorrect	n/a
377.4969	n/a	RESPONSE	n/a	n/a	n/a	n/a	n/a	n/a	n/a	red
377.5191	1.0167	ITI	n/a	n/a	n/a	n/a	n/a	n/a	n/a	n/a
378.5358	0.5167	FIXCROSS	n/a	n/a	n/a	n/a	n/a	n/a	n/a	n/a
379.0525	0.8	COLOR_NAME	27	Neutral	żółty	yellow	Neutral	Neutral	hit	n/a
379.8299	n/a	RESPONSE	n/a	n/a	n/a	n/a	n/a	n/a	n/a	yellow
379.8525	1.0167	ITI	n/a	n/a	n/a	n/a	n/a	n/a	n/a	n/a
380.8691	0.5167	FIXCROSS	n/a	n/a	n/a	n/a	n/a	n/a	n/a	n/a
381.3858	1.0667	COLOR_NAME	28	Neutral	czerwony	red	Neutral	Neutral	hit	n/a
382.4345	n/a	RESPONSE	n/a	n/a	n/a	n/a	n/a	n/a	n/a	red
382.4525	1.0167	ITI	n/a	n/a	n/a	n/a	n/a	n/a	n/a	n/a
383.4692	0.5167	FIXCROSS	n/a	n/a	n/a	n/a	n/a	n/a	n/a	n/a
383.9858	0.8833	COLOR_NAME	29	Incongruent	żółty	yellow	zielony	green	hit	n/a
384.8473	n/a	RESPONSE	n/a	n/a	n/a	n/a	n/a	n/a	n/a	yellow
384.8692	1.0167	ITI	n/a	n/a	n/a	n/a	n/a	n/a	n/a	n/a
385.8858	0.5167	FIXCROSS	n/a	n/a	n/a	n/a	n/a	n/a	n/a	n/a
386.4025	0.7667	COLOR_NAME	30	Neutral	żółty	yellow	Neutral	Neutral	hit	n/a
387.1483	n/a	RESPONSE	n/a	n/a	n/a	n/a	n/a	n/a	n/a	yellow
387.1692	1.0167	ITI	n/a	n/a	n/a	n/a	n/a	n/a	n/a	n/a
388.1859	0.5167	FIXCROSS	n/a	n/a	n/a	n/a	n/a	n/a	n/a	n/a
388.7025	0.8334	COLOR_NAME	31	Incongruent	zielony	green	czerwony	red	hit	n/a
389.5133	n/a	RESPONSE	n/a	n/a	n/a	n/a	n/a	n/a	n/a	green
389.5359	1.0167	ITI	n/a	n/a	n/a	n/a	n/a	n/a	n/a	n/a
390.5525	0.5167	FIXCROSS	n/a	n/a	n/a	n/a	n/a	n/a	n/a	n/a
391.0692	0.7833	COLOR_NAME	32	Neutral	niebieski	blue	Neutral	Neutral	hit	n/a
391.8302	n/a	RESPONSE	n/a	n/a	n/a	n/a	n/a	n/a	n/a	blue
391.8526	1.0167	ITI	n/a	n/a	n/a	n/a	n/a	n/a	n/a	n/a
392.8692	0.5167	FIXCROSS	n/a	n/a	n/a	n/a	n/a	n/a	n/a	n/a
393.3859	0.5667	COLOR_NAME	33	Neutral	niebieski	blue	Neutral	Neutral	hit	n/a
393.9235	n/a	RESPONSE	n/a	n/a	n/a	n/a	n/a	n/a	n/a	blue
393.9526	1.0167	ITI	n/a	n/a	n/a	n/a	n/a	n/a	n/a	n/a
394.9692	0.5167	FIXCROSS	n/a	n/a	n/a	n/a	n/a	n/a	n/a	n/a
395.4859	0.4333	COLOR_NAME	34	Neutral	niebieski	blue	Neutral	Neutral	hit	n/a
395.8889	n/a	RESPONSE	n/a	n/a	n/a	n/a	n/a	n/a	n/a	blue
395.9193	1.0167	ITI	n/a	n/a	n/a	n/a	n/a	n/a	n/a	n/a
396.9359	0.5167	FIXCROSS	n/a	n/a	n/a	n/a	n/a	n/a	n/a	n/a
397.4526	0.8	COLOR_NAME	35	Incongruent	czerwony	red	zielony	green	incorrect	n/a
398.2219	n/a	RESPONSE	n/a	n/a	n/a	n/a	n/a	n/a	n/a	green
398.2526	1.0167	ITI	n/a	n/a	n/a	n/a	n/a	n/a	n/a	n/a
399.2693	0.5167	FIXCROSS	n/a	n/a	n/a	n/a	n/a	n/a	n/a	n/a
399.7859	0.6833	COLOR_NAME	36	Neutral	zielony	green	Neutral	Neutral	hit	n/a
400.443	n/a	RESPONSE	n/a	n/a	n/a	n/a	n/a	n/a	n/a	green
400.4693	1.0167	ITI	n/a	n/a	n/a	n/a	n/a	n/a	n/a	n/a
401.486	0.5167	FIXCROSS	n/a	n/a	n/a	n/a	n/a	n/a	n/a	n/a
402.0026	0.5833	COLOR_NAME	37	Neutral	czerwony	red	Neutral	Neutral	hit	n/a
402.5681	n/a	RESPONSE	n/a	n/a	n/a	n/a	n/a	n/a	n/a	red
402.586	1.0167	ITI	n/a	n/a	n/a	n/a	n/a	n/a	n/a	n/a
403.6026	0.5167	FIXCROSS	n/a	n/a	n/a	n/a	n/a	n/a	n/a	n/a
404.1193	0.7667	COLOR_NAME	38	Incongruent	zielony	green	żółty	yellow	hit	n/a
404.8532	n/a	RESPONSE	n/a	n/a	n/a	n/a	n/a	n/a	n/a	green
404.886	1.0167	ITI	n/a	n/a	n/a	n/a	n/a	n/a	n/a	n/a
405.9027	0.5167	FIXCROSS	n/a	n/a	n/a	n/a	n/a	n/a	n/a	n/a
406.4193	0.65	COLOR_NAME	39	Incongruent	zielony	green	niebieski	blue	hit	n/a
407.0423	n/a	RESPONSE	n/a	n/a	n/a	n/a	n/a	n/a	n/a	green
407.0693	1.0167	ITI	n/a	n/a	n/a	n/a	n/a	n/a	n/a	n/a
408.086	0.5167	FIXCROSS	n/a	n/a	n/a	n/a	n/a	n/a	n/a	n/a
408.6027	0.75	COLOR_NAME	40	Neutral	niebieski	blue	Neutral	Neutral	hit	n/a
409.3273	n/a	RESPONSE	n/a	n/a	n/a	n/a	n/a	n/a	n/a	blue
409.3527	1.0167	ITI	n/a	n/a	n/a	n/a	n/a	n/a	n/a	n/a
410.3693	0.5167	FIXCROSS	n/a	n/a	n/a	n/a	n/a	n/a	n/a	n/a
410.886	0.6667	COLOR_NAME	41	Incongruent	niebieski	blue	zielony	green	hit	n/a
411.5324	n/a	RESPONSE	n/a	n/a	n/a	n/a	n/a	n/a	n/a	blue
411.5527	1.0167	ITI	n/a	n/a	n/a	n/a	n/a	n/a	n/a	n/a
412.5694	0.5167	FIXCROSS	n/a	n/a	n/a	n/a	n/a	n/a	n/a	n/a
413.086	0.5833	COLOR_NAME	42	Neutral	niebieski	blue	Neutral	Neutral	hit	n/a
413.6416	n/a	RESPONSE	n/a	n/a	n/a	n/a	n/a	n/a	n/a	blue
413.6694	1.0167	ITI	n/a	n/a	n/a	n/a	n/a	n/a	n/a	n/a
414.6861	0.5167	FIXCROSS	n/a	n/a	n/a	n/a	n/a	n/a	n/a	n/a
415.2027	0.55	COLOR_NAME	43	Incongruent	niebieski	blue	żółty	yellow	hit	n/a
415.735	n/a	RESPONSE	n/a	n/a	n/a	n/a	n/a	n/a	n/a	blue
415.7527	1.0167	ITI	n/a	n/a	n/a	n/a	n/a	n/a	n/a	n/a
416.7694	0.5167	FIXCROSS	n/a	n/a	n/a	n/a	n/a	n/a	n/a	n/a
417.2861	0.7	COLOR_NAME	44	Incongruent	zielony	green	żółty	yellow	hit	n/a
417.9561	n/a	RESPONSE	n/a	n/a	n/a	n/a	n/a	n/a	n/a	green
417.9861	1.0167	ITI	n/a	n/a	n/a	n/a	n/a	n/a	n/a	n/a
419.0027	0.5167	FIXCROSS	n/a	n/a	n/a	n/a	n/a	n/a	n/a	n/a
419.5194	0.75	COLOR_NAME	45	Neutral	żółty	yellow	Neutral	Neutral	hit	n/a
420.2411	n/a	RESPONSE	n/a	n/a	n/a	n/a	n/a	n/a	n/a	yellow
420.2694	1.0167	ITI	n/a	n/a	n/a	n/a	n/a	n/a	n/a	n/a
421.2861	0.5167	FIXCROSS	n/a	n/a	n/a	n/a	n/a	n/a	n/a	n/a
421.8028	0.75	COLOR_NAME	46	Neutral	zielony	green	Neutral	Neutral	hit	n/a
422.5262	n/a	RESPONSE	n/a	n/a	n/a	n/a	n/a	n/a	n/a	green
422.5528	1.0167	ITI	n/a	n/a	n/a	n/a	n/a	n/a	n/a	n/a
423.5694	0.5167	FIXCROSS	n/a	n/a	n/a	n/a	n/a	n/a	n/a	n/a
424.0861	0.8667	COLOR_NAME	47	Incongruent	czerwony	red	żółty	yellow	hit	n/a
424.9229	n/a	RESPONSE	n/a	n/a	n/a	n/a	n/a	n/a	n/a	red
424.9528	1.0167	ITI	n/a	n/a	n/a	n/a	n/a	n/a	n/a	n/a
425.9695	0.5167	FIXCROSS	n/a	n/a	n/a	n/a	n/a	n/a	n/a	n/a
426.4861	0.7333	COLOR_NAME	48	Neutral	żółty	yellow	Neutral	Neutral	hit	n/a
427.1919	n/a	RESPONSE	n/a	n/a	n/a	n/a	n/a	n/a	n/a	yellow
427.2195	1.0167	ITI	n/a	n/a	n/a	n/a	n/a	n/a	n/a	n/a
428.2362	0.5167	FIXCROSS	n/a	n/a	n/a	n/a	n/a	n/a	n/a	n/a
428.7528	0.5333	COLOR_NAME	49	Neutral	żółty	yellow	Neutral	Neutral	hit	n/a
429.2533	n/a	RESPONSE	n/a	n/a	n/a	n/a	n/a	n/a	n/a	yellow
429.2862	1.0167	ITI	n/a	n/a	n/a	n/a	n/a	n/a	n/a	n/a
430.3028	0.5167	FIXCROSS	n/a	n/a	n/a	n/a	n/a	n/a	n/a	n/a
430.8195	0.7667	COLOR_NAME	50	Incongruent	czerwony	red	niebieski	blue	hit	n/a
431.5543	n/a	RESPONSE	n/a	n/a	n/a	n/a	n/a	n/a	n/a	red
431.5862	1.0167	ITI	n/a	n/a	n/a	n/a	n/a	n/a	n/a	n/a
432.6028	0.5167	FIXCROSS	n/a	n/a	n/a	n/a	n/a	n/a	n/a	n/a
433.1195	0.6167	COLOR_NAME	51	Incongruent	żółty	yellow	czerwony	red	hit	n/a
433.7114	n/a	RESPONSE	n/a	n/a	n/a	n/a	n/a	n/a	n/a	yellow
433.7362	1.0167	ITI	n/a	n/a	n/a	n/a	n/a	n/a	n/a	n/a
434.7529	0.5167	FIXCROSS	n/a	n/a	n/a	n/a	n/a	n/a	n/a	n/a
435.2695	0.8667	COLOR_NAME	52	Incongruent	niebieski	blue	zielony	green	hit	n/a
436.1084	n/a	RESPONSE	n/a	n/a	n/a	n/a	n/a	n/a	n/a	blue
436.1362	1.0167	ITI	n/a	n/a	n/a	n/a	n/a	n/a	n/a	n/a
437.1529	0.5167	FIXCROSS	n/a	n/a	n/a	n/a	n/a	n/a	n/a	n/a
437.6695	0.85	COLOR_NAME	53	Incongruent	czerwony	red	zielony	green	hit	n/a
438.4892	n/a	RESPONSE	n/a	n/a	n/a	n/a	n/a	n/a	n/a	red
438.5196	1.0167	ITI	n/a	n/a	n/a	n/a	n/a	n/a	n/a	n/a
439.5362	0.5167	FIXCROSS	n/a	n/a	n/a	n/a	n/a	n/a	n/a	n/a
440.0529	0.7167	COLOR_NAME	54	Neutral	zielony	green	Neutral	Neutral	hit	n/a
440.7423	n/a	RESPONSE	n/a	n/a	n/a	n/a	n/a	n/a	n/a	green
440.7696	1.0167	ITI	n/a	n/a	n/a	n/a	n/a	n/a	n/a	n/a
441.7862	0.5167	FIXCROSS	n/a	n/a	n/a	n/a	n/a	n/a	n/a	n/a
442.3029	0.6833	COLOR_NAME	55	Incongruent	żółty	yellow	niebieski	blue	hit	n/a
442.9633	n/a	RESPONSE	n/a	n/a	n/a	n/a	n/a	n/a	n/a	yellow
442.9862	1.0167	ITI	n/a	n/a	n/a	n/a	n/a	n/a	n/a	n/a
444.0029	0.5167	FIXCROSS	n/a	n/a	n/a	n/a	n/a	n/a	n/a	n/a
444.5196	0.8	COLOR_NAME	56	Incongruent	niebieski	blue	żółty	yellow	hit	n/a
445.2963	n/a	RESPONSE	n/a	n/a	n/a	n/a	n/a	n/a	n/a	blue
445.3196	1.0167	ITI	n/a	n/a	n/a	n/a	n/a	n/a	n/a	n/a
446.3363	0.5167	FIXCROSS	n/a	n/a	n/a	n/a	n/a	n/a	n/a	n/a
446.8529	0.7333	COLOR_NAME	57	Incongruent	zielony	green	niebieski	blue	hit	n/a
447.5653	n/a	RESPONSE	n/a	n/a	n/a	n/a	n/a	n/a	n/a	green
447.5863	1.0167	ITI	n/a	n/a	n/a	n/a	n/a	n/a	n/a	n/a
448.603	0.5167	FIXCROSS	n/a	n/a	n/a	n/a	n/a	n/a	n/a	n/a
449.1196	0.6333	COLOR_NAME	58	Neutral	zielony	green	Neutral	Neutral	hit	n/a
449.7225	n/a	RESPONSE	n/a	n/a	n/a	n/a	n/a	n/a	n/a	green
449.753	1.0167	ITI	n/a	n/a	n/a	n/a	n/a	n/a	n/a	n/a
450.7696	0.5167	FIXCROSS	n/a	n/a	n/a	n/a	n/a	n/a	n/a	n/a
451.2863	0.7833	COLOR_NAME	59	Incongruent	czerwony	red	żółty	yellow	hit	n/a
452.0395	n/a	RESPONSE	n/a	n/a	n/a	n/a	n/a	n/a	n/a	red
452.0697	1.0167	ITI	n/a	n/a	n/a	n/a	n/a	n/a	n/a	n/a
453.0863	0.5167	FIXCROSS	n/a	n/a	n/a	n/a	n/a	n/a	n/a	n/a
453.603	0.5167	COLOR_NAME	60	Neutral	czerwony	red	Neutral	Neutral	hit	n/a
454.1008	n/a	RESPONSE	n/a	n/a	n/a	n/a	n/a	n/a	n/a	red
454.1197	1.0167	ITI	n/a	n/a	n/a	n/a	n/a	n/a	n/a	n/a
455.1363	0.5167	FIXCROSS	n/a	n/a	n/a	n/a	n/a	n/a	n/a	n/a
455.653	0.6833	COLOR_NAME	61	Neutral	niebieski	blue	Neutral	Neutral	hit	n/a
456.3059	n/a	RESPONSE	n/a	n/a	n/a	n/a	n/a	n/a	n/a	blue
456.3363	1.0167	ITI	n/a	n/a	n/a	n/a	n/a	n/a	n/a	n/a
457.353	0.5167	FIXCROSS	n/a	n/a	n/a	n/a	n/a	n/a	n/a	n/a
457.8697	0.6833	COLOR_NAME	62	Neutral	zielony	green	Neutral	Neutral	hit	n/a
458.527	n/a	RESPONSE	n/a	n/a	n/a	n/a	n/a	n/a	n/a	green
458.553	1.0167	ITI	n/a	n/a	n/a	n/a	n/a	n/a	n/a	n/a
459.5697	0.5167	FIXCROSS	n/a	n/a	n/a	n/a	n/a	n/a	n/a	n/a
460.0864	0.6833	COLOR_NAME	63	Incongruent	zielony	green	żółty	yellow	hit	n/a
460.7481	n/a	RESPONSE	n/a	n/a	n/a	n/a	n/a	n/a	n/a	green
460.7697	1.0167	ITI	n/a	n/a	n/a	n/a	n/a	n/a	n/a	n/a
461.7864	0.5167	FIXCROSS	n/a	n/a	n/a	n/a	n/a	n/a	n/a	n/a
462.3031	0.8334	COLOR_NAME	64	Neutral	niebieski	blue	Neutral	Neutral	hit	n/a
463.113	n/a	RESPONSE	n/a	n/a	n/a	n/a	n/a	n/a	n/a	blue
463.1364	1.0167	ITI	n/a	n/a	n/a	n/a	n/a	n/a	n/a	n/a
464.1531	0.5167	FIXCROSS	n/a	n/a	n/a	n/a	n/a	n/a	n/a	n/a
464.6697	0.7	COLOR_NAME	65	Neutral	czerwony	red	Neutral	Neutral	hit	n/a
465.35	n/a	RESPONSE	n/a	n/a	n/a	n/a	n/a	n/a	n/a	red
465.3697	1.0167	ITI	n/a	n/a	n/a	n/a	n/a	n/a	n/a	n/a
466.3864	0.5167	FIXCROSS	n/a	n/a	n/a	n/a	n/a	n/a	n/a	n/a
466.9031	0.7333	COLOR_NAME	66	Incongruent	żółty	yellow	czerwony	red	hit	n/a
467.603	n/a	RESPONSE	n/a	n/a	n/a	n/a	n/a	n/a	n/a	yellow
467.6364	1.0167	ITI	n/a	n/a	n/a	n/a	n/a	n/a	n/a	n/a
468.6531	0.5167	FIXCROSS	n/a	n/a	n/a	n/a	n/a	n/a	n/a	n/a
469.1698	0.9	COLOR_NAME	67	Neutral	czerwony	red	Neutral	Neutral	hit	n/a
470.0479	n/a	RESPONSE	n/a	n/a	n/a	n/a	n/a	n/a	n/a	red
470.0698	1.0167	ITI	n/a	n/a	n/a	n/a	n/a	n/a	n/a	n/a
471.0864	0.5167	FIXCROSS	n/a	n/a	n/a	n/a	n/a	n/a	n/a	n/a
471.6031	0.6	COLOR_NAME	68	Neutral	zielony	green	Neutral	Neutral	hit	n/a
472.1731	n/a	RESPONSE	n/a	n/a	n/a	n/a	n/a	n/a	n/a	green
472.2031	1.0167	ITI	n/a	n/a	n/a	n/a	n/a	n/a	n/a	n/a
473.2198	0.5167	FIXCROSS	n/a	n/a	n/a	n/a	n/a	n/a	n/a	n/a
473.7365	0.75	COLOR_NAME	69	Neutral	czerwony	red	Neutral	Neutral	hit	n/a
474.4581	n/a	RESPONSE	n/a	n/a	n/a	n/a	n/a	n/a	n/a	red
474.4865	1.0167	ITI	n/a	n/a	n/a	n/a	n/a	n/a	n/a	n/a
475.5032	0.5167	FIXCROSS	n/a	n/a	n/a	n/a	n/a	n/a	n/a	n/a
476.0198	0.5333	COLOR_NAME	70	Neutral	żółty	yellow	Neutral	Neutral	hit	n/a
476.5354	n/a	RESPONSE	n/a	n/a	n/a	n/a	n/a	n/a	n/a	yellow
476.5532	1.0167	ITI	n/a	n/a	n/a	n/a	n/a	n/a	n/a	n/a
477.5698	0.5167	FIXCROSS	n/a	n/a	n/a	n/a	n/a	n/a	n/a	n/a
478.0865	0.6167	COLOR_NAME	71	Neutral	czerwony	red	Neutral	Neutral	hit	n/a
478.6767	n/a	RESPONSE	n/a	n/a	n/a	n/a	n/a	n/a	n/a	red
478.7032	1.0167	ITI	n/a	n/a	n/a	n/a	n/a	n/a	n/a	n/a
479.7199	0.5167	FIXCROSS	n/a	n/a	n/a	n/a	n/a	n/a	n/a	n/a
480.2365	0.7	COLOR_NAME	72	Incongruent	żółty	yellow	zielony	green	hit	n/a
480.9136	n/a	RESPONSE	n/a	n/a	n/a	n/a	n/a	n/a	n/a	yellow
480.9365	1.0333	ITI	n/a	n/a	n/a	n/a	n/a	n/a	n/a	n/a
484.3971	n/a	RESPONSE	n/a	n/a	n/a	n/a	n/a	n/a	n/a	n/a
