onset	duration	trial_type	melody_number	melody_part	key	sound	action
0.0	14.083	CUE_START	n/a	n/a	n/a	n/a	n/a
14.083	7.76	FIXCROSS	n/a	n/a	n/a	n/a	n/a
21.843	6.315	CUE_LISTEN	M1	1	n/a	n/a	n/a
28.158	7.758	FIXCROSS	n/a	n/a	n/a	n/a	n/a
35.916	6.325	CUE_PLAYBACK_RIGHT_HAND	M1	1	n/a	n/a	n/a
36.627	n/a	RESPONSE	M1	1	12	C4	press
37.016	n/a	RESPONSE	M1	1	14	D4	press
37.097	n/a	RESPONSE	M1	1	12	C4	release
37.44	n/a	RESPONSE	M1	1	16	E4	press
37.5	n/a	RESPONSE	M1	1	14	D4	release
37.804	n/a	RESPONSE	M1	1	12	C4	press
37.832	n/a	RESPONSE	M1	1	16	E4	release
37.945	n/a	RESPONSE	M1	1	12	C4	release
38.185	n/a	RESPONSE	M1	1	12	C4	press
38.571	n/a	RESPONSE	M1	1	14	D4	press
38.62	n/a	RESPONSE	M1	1	12	C4	release
38.97	n/a	RESPONSE	M1	1	16	E4	press
39.037	n/a	RESPONSE	M1	1	14	D4	release
39.325	n/a	RESPONSE	M1	1	12	C4	press
39.36	n/a	RESPONSE	M1	1	16	E4	release
39.485	n/a	RESPONSE	M1	1	12	C4	release
39.716	n/a	RESPONSE	M1	1	16	E4	press
40.111	n/a	RESPONSE	M1	1	17	F4	press
40.134	n/a	RESPONSE	M1	1	16	E4	release
40.486	n/a	RESPONSE	M1	1	19	G4	press
40.516	n/a	RESPONSE	M1	1	17	F4	release
41.054	n/a	RESPONSE	M1	1	19	G4	release
41.305	n/a	RESPONSE	M1	1	16	E4	press
41.666	n/a	RESPONSE	M1	1	17	F4	press
41.687	n/a	RESPONSE	M1	1	16	E4	release
42.069	n/a	RESPONSE	M1	1	19	G4	press
42.1	n/a	RESPONSE	M1	1	17	F4	release
42.242	7.758	FIXCROSS	n/a	n/a	n/a	n/a	n/a
42.781	n/a	RESPONSE	M1	1	19	G4	release
50.0	6.317	CUE_LISTEN	        M1	2	n/a	n/a	n/a
56.316	7.758	FIXCROSS	n/a	n/a	n/a	n/a	n/a
64.075	6.317	CUE_PLAYBACK_RIGHT_HAND	        M1	2	n/a	n/a	n/a
64.577	n/a	RESPONSE	        M1	2	19	G4	press
64.739	n/a	RESPONSE	        M1	2	21	A4	press
64.78	n/a	RESPONSE	        M1	2	19	G4	release
64.941	n/a	RESPONSE	        M1	2	19	G4	press
64.992	n/a	RESPONSE	        M1	2	21	A4	release
65.126	n/a	RESPONSE	        M1	2	17	F4	press
65.217	n/a	RESPONSE	        M1	2	19	G4	release
65.366	n/a	RESPONSE	        M1	2	16	E4	press
65.407	n/a	RESPONSE	        M1	2	17	F4	release
65.76	n/a	RESPONSE	        M1	2	12	C4	press
65.77	n/a	RESPONSE	        M1	2	16	E4	release
65.961	n/a	RESPONSE	        M1	2	12	C4	release
66.192	n/a	RESPONSE	        M1	2	19	G4	press
66.344	n/a	RESPONSE	        M1	2	21	A4	press
66.355	n/a	RESPONSE	        M1	2	19	G4	release
66.516	n/a	RESPONSE	        M1	2	19	G4	press
66.577	n/a	RESPONSE	        M1	2	21	A4	release
66.729	n/a	RESPONSE	        M1	2	17	F4	press
66.78	n/a	RESPONSE	        M1	2	19	G4	release
66.931	n/a	RESPONSE	        M1	2	16	E4	press
66.972	n/a	RESPONSE	        M1	2	17	F4	release
67.304	n/a	RESPONSE	        M1	2	12	C4	press
67.366	n/a	RESPONSE	        M1	2	16	E4	release
67.45	n/a	RESPONSE	        M1	2	12	C4	release
67.731	n/a	RESPONSE	        M1	2	12	C4	press
68.137	n/a	RESPONSE	        M1	2	00	C3	press
68.191	n/a	RESPONSE	        M1	2	12	C4	release
68.605	n/a	RESPONSE	        M1	2	00	C3	release
68.886	n/a	RESPONSE	        M1	2	12	C4	press
69.296	n/a	RESPONSE	        M1	2	12	C4	release
69.766	n/a	RESPONSE	        M1	2	12	C4	press
70.239	n/a	RESPONSE	        M1	2	12	C4	release
70.347	n/a	RESPONSE	        M1	2	02	D3	press
70.392	7.758	FIXCROSS	n/a	n/a	n/a	n/a	n/a
70.616	n/a	RESPONSE	        M1	2	02	D3	release
70.699	n/a	RESPONSE	        M1	2	12	C4	press
71.046	n/a	RESPONSE	        M1	2	12	C4	release
78.15	6.325	CUE_LISTEN	        M7	1	n/a	n/a	n/a
84.475	7.758	FIXCROSS	n/a	n/a	n/a	n/a	n/a
92.233	6.317	CUE_PLAYBACK_BOTH_HANDS	        M7	1	n/a	n/a	n/a
92.931	n/a	RESPONSE	        M7	1	05	F3	press
92.935	n/a	RESPONSE	        M7	1	21	A4	press
93.114	n/a	RESPONSE	        M7	1	21	A4	release
93.325	n/a	RESPONSE	        M7	1	09	A3	press
93.336	n/a	RESPONSE	        M7	1	21	A4	press
93.358	n/a	RESPONSE	        M7	1	05	F3	release
93.481	n/a	RESPONSE	        M7	1	21	A4	release
93.73	n/a	RESPONSE	        M7	1	04	E3	press
93.732	n/a	RESPONSE	        M7	1	21	A4	press
93.802	n/a	RESPONSE	        M7	1	09	A3	release
94.094	n/a	RESPONSE	        M7	1	09	A3	press
94.137	n/a	RESPONSE	        M7	1	21	A4	release
94.176	n/a	RESPONSE	        M7	1	04	E3	release
94.457	n/a	RESPONSE	        M7	1	02	D3	press
94.46	n/a	RESPONSE	        M7	1	21	A4	press
94.502	n/a	RESPONSE	        M7	1	09	A3	release
94.601	n/a	RESPONSE	        M7	1	21	A4	release
94.834	n/a	RESPONSE	        M7	1	21	A4	press
94.836	n/a	RESPONSE	        M7	1	09	A3	press
94.867	n/a	RESPONSE	        M7	1	02	D3	release
94.946	n/a	RESPONSE	        M7	1	21	A4	release
95.197	n/a	RESPONSE	        M7	1	21	A4	press
95.2	n/a	RESPONSE	        M7	1	00	C3	press
95.271	n/a	RESPONSE	        M7	1	09	A3	release
95.584	n/a	RESPONSE	        M7	1	09	A3	press
95.634	n/a	RESPONSE	        M7	1	21	A4	release
95.735	n/a	RESPONSE	        M7	1	00	C3	release
95.946	n/a	RESPONSE	        M7	1	05	F3	press
95.948	n/a	RESPONSE	        M7	1	21	A4	press
96.008	n/a	RESPONSE	        M7	1	09	A3	release
96.312	n/a	RESPONSE	        M7	1	23	B4	press
96.322	n/a	RESPONSE	        M7	1	09	A3	press
96.352	n/a	RESPONSE	        M7	1	21	A4	release
96.424	n/a	RESPONSE	        M7	1	05	F3	release
96.667	n/a	RESPONSE	        M7	1	23	B4	release
96.786	n/a	RESPONSE	        M7	1	09	A3	release
97.297	n/a	RESPONSE	        M7	1	05	F3	press
97.3	n/a	RESPONSE	        M7	1	21	A4	press
97.886	n/a	RESPONSE	        M7	1	09	A3	press
97.894	n/a	RESPONSE	        M7	1	23	B4	press
97.925	n/a	RESPONSE	        M7	1	21	A4	release
97.95	n/a	RESPONSE	        M7	1	05	F3	release
98.205	n/a	RESPONSE	        M7	1	23	B4	release
98.369	n/a	RESPONSE	        M7	1	23	B4	press
98.381	n/a	RESPONSE	        M7	1	24	C5	press
98.55	7.758	FIXCROSS	n/a	n/a	n/a	n/a	n/a
98.565	n/a	RESPONSE	        M7	1	24	C5	release
99.005	n/a	RESPONSE	        M7	1	16	E4	press
99.011	n/a	RESPONSE	        M7	1	09	A3	release
99.015	n/a	RESPONSE	        M7	1	04	E3	press
99.096	n/a	RESPONSE	        M7	1	23	B4	release
99.346	n/a	RESPONSE	        M7	1	17	F4	press
99.355	n/a	RESPONSE	        M7	1	16	E4	release
99.52	n/a	RESPONSE	        M7	1	04	E3	release
99.604	n/a	RESPONSE	        M7	1	19	G4	press
99.617	n/a	RESPONSE	        M7	1	17	F4	release
99.822	n/a	RESPONSE	        M7	1	19	G4	release
99.884	n/a	RESPONSE	        M7	1	21	A4	press
99.931	n/a	RESPONSE	        M7	1	02	D3	press
100.057	n/a	RESPONSE	        M7	1	02	D3	release
100.075	n/a	RESPONSE	        M7	1	21	A4	release
100.187	n/a	RESPONSE	        M7	1	00	C3	press
100.206	n/a	RESPONSE	        M7	1	21	A4	press
100.635	n/a	RESPONSE	        M7	1	07	G3	press
100.795	n/a	RESPONSE	        M7	1	00	C3	release
101.011	n/a	RESPONSE	        M7	1	00	C3	press
101.042	n/a	RESPONSE	        M7	1	07	G3	release
101.344	n/a	RESPONSE	        M7	1	00	C3	release
101.355	n/a	RESPONSE	        M7	1	21	A4	release
106.308	6.325	CUE_LISTEN	        M7	2	n/a	n/a	n/a
112.394	n/a	RESPONSE	        M7	2	04	E3	press
112.633	7.758	FIXCROSS	n/a	n/a	n/a	n/a	n/a
112.715	n/a	RESPONSE	        M7	2	04	E3	release
120.392	6.317	CUE_PLAYBACK_BOTH_HANDS	        M7	2	n/a	n/a	n/a
120.895	n/a	RESPONSE	        M7	2	04	E3	press
120.904	n/a	RESPONSE	        M7	2	22	A#4	press
121.067	n/a	RESPONSE	        M7	2	22	A#4	release
121.299	n/a	RESPONSE	        M7	2	22	A#4	press
121.327	n/a	RESPONSE	        M7	2	08	G#3	press
121.368	n/a	RESPONSE	        M7	2	04	E3	release
121.431	n/a	RESPONSE	        M7	2	22	A#4	release
121.681	n/a	RESPONSE	        M7	2	08	G#3	release
122.792	n/a	RESPONSE	        M7	2	02	D3	press
122.804	n/a	RESPONSE	        M7	2	22	A#4	press
123.025	n/a	RESPONSE	        M7	2	22	A#4	release
123.296	n/a	RESPONSE	        M7	2	08	G#3	press
123.337	n/a	RESPONSE	        M7	2	02	D3	release
123.358	n/a	RESPONSE	        M7	2	22	A#4	press
123.53	n/a	RESPONSE	        M7	2	22	A#4	release
123.862	n/a	RESPONSE	        M7	2	08	G#3	release
126.708	7.759	FIXCROSS	n/a	n/a	n/a	n/a	n/a
134.467	6.317	CUE_LISTEN	        M5	1	n/a	n/a	n/a
140.783	7.758	FIXCROSS	n/a	n/a	n/a	n/a	n/a
148.542	6.325	CUE_PLAYBACK_BOTH_HANDS	        M5	1	n/a	n/a	n/a
149.331	n/a	RESPONSE	        M5	1	00	C3	press
149.347	n/a	RESPONSE	        M5	1	07	G3	press
149.354	n/a	RESPONSE	        M5	1	19	G4	press
149.77	n/a	RESPONSE	        M5	1	16	E4	press
149.826	n/a	RESPONSE	        M5	1	19	G4	release
149.905	n/a	RESPONSE	        M5	1	16	E4	release
150.28	n/a	RESPONSE	        M5	1	16	E4	press
150.426	n/a	RESPONSE	        M5	1	00	C3	release
150.757	n/a	RESPONSE	        M5	1	02	D3	press
150.76	n/a	RESPONSE	        M5	1	05	F3	press
150.776	n/a	RESPONSE	        M5	1	17	F4	press
150.857	n/a	RESPONSE	        M5	1	16	E4	release
151.246	n/a	RESPONSE	        M5	1	14	D4	press
151.3	n/a	RESPONSE	        M5	1	17	F4	release
151.4	n/a	RESPONSE	        M5	1	14	D4	release
151.72	n/a	RESPONSE	        M5	1	14	D4	press
151.802	n/a	RESPONSE	        M5	1	02	D3	release
151.832	n/a	RESPONSE	        M5	1	05	F3	release
151.894	n/a	RESPONSE	        M5	1	07	G3	release
152.217	n/a	RESPONSE	        M5	1	07	G3	press
152.226	n/a	RESPONSE	        M5	1	12	C4	press
152.228	n/a	RESPONSE	        M5	1	04	E3	press
152.231	n/a	RESPONSE	        M5	1	00	C3	press
152.29	n/a	RESPONSE	        M5	1	14	D4	release
152.481	n/a	RESPONSE	        M5	1	16	E4	press
152.514	n/a	RESPONSE	        M5	1	12	C4	release
152.764	n/a	RESPONSE	        M5	1	19	G4	press
152.766	n/a	RESPONSE	        M5	1	16	E4	release
153.556	n/a	RESPONSE	        M5	1	19	G4	release
153.638	n/a	RESPONSE	        M5	1	04	E3	release
153.688	n/a	RESPONSE	        M5	1	07	G3	release
153.71	n/a	RESPONSE	        M5	1	00	C3	release
154.867	7.758	FIXCROSS	n/a	n/a	n/a	n/a	n/a
162.625	6.317	CUE_LISTEN	        M5	2	n/a	n/a	n/a
168.942	7.758	FIXCROSS	n/a	n/a	n/a	n/a	n/a
176.7	6.317	CUE_PLAYBACK_BOTH_HANDS	        M5	2	n/a	n/a	n/a
177.731	n/a	RESPONSE	        M5	2	00	C3	press
177.742	n/a	RESPONSE	        M5	2	07	G3	press
177.755	n/a	RESPONSE	        M5	2	19	G4	press
178.24	n/a	RESPONSE	        M5	2	16	E4	press
178.281	n/a	RESPONSE	        M5	2	19	G4	release
178.367	n/a	RESPONSE	        M5	2	16	E4	release
178.711	n/a	RESPONSE	        M5	2	16	E4	press
178.83	n/a	RESPONSE	        M5	2	00	C3	release
179.216	n/a	RESPONSE	        M5	2	02	D3	press
179.234	n/a	RESPONSE	        M5	2	05	F3	press
179.238	n/a	RESPONSE	        M5	2	17	F4	press
179.264	n/a	RESPONSE	        M5	2	16	E4	release
179.687	n/a	RESPONSE	        M5	2	14	D4	press
179.72	n/a	RESPONSE	        M5	2	17	F4	release
179.795	n/a	RESPONSE	        M5	2	14	D4	release
180.151	n/a	RESPONSE	        M5	2	14	D4	press
180.198	n/a	RESPONSE	        M5	2	02	D3	release
180.268	n/a	RESPONSE	        M5	2	05	F3	release
180.327	n/a	RESPONSE	        M5	2	07	G3	release
180.642	n/a	RESPONSE	        M5	2	07	G3	press
180.647	n/a	RESPONSE	        M5	2	00	C3	press
180.654	n/a	RESPONSE	        M5	2	12	C4	press
180.671	n/a	RESPONSE	        M5	2	04	E3	press
180.685	n/a	RESPONSE	        M5	2	14	D4	release
180.93	n/a	RESPONSE	        M5	2	16	E4	press
180.941	n/a	RESPONSE	        M5	2	12	C4	release
181.142	n/a	RESPONSE	        M5	2	12	C4	press
181.156	n/a	RESPONSE	        M5	2	16	E4	release
181.945	n/a	RESPONSE	        M5	2	12	C4	release
181.956	n/a	RESPONSE	        M5	2	00	C3	release
181.977	n/a	RESPONSE	        M5	2	04	E3	release
181.988	n/a	RESPONSE	        M5	2	07	G3	release
183.017	7.758	FIXCROSS	n/a	n/a	n/a	n/a	n/a
190.775	6.325	CUE_LISTEN	        M3	1	n/a	n/a	n/a
197.1	7.758	FIXCROSS	n/a	n/a	n/a	n/a	n/a
204.859	6.325	CUE_PLAYBACK_RIGHT_HAND	        M3	1	n/a	n/a	n/a
205.896	n/a	RESPONSE	        M3	1	22	A#4	press
206.38	n/a	RESPONSE	        M3	1	21	A4	press
206.448	n/a	RESPONSE	        M3	1	22	A#4	release
206.99	n/a	RESPONSE	        M3	1	19	G4	press
207.031	n/a	RESPONSE	        M3	1	21	A4	release
207.564	n/a	RESPONSE	        M3	1	21	A4	press
207.59	n/a	RESPONSE	        M3	1	19	G4	release
208.135	n/a	RESPONSE	        M3	1	16	E4	press
208.168	n/a	RESPONSE	        M3	1	21	A4	release
208.455	n/a	RESPONSE	        M3	1	16	E4	release
209.595	n/a	RESPONSE	        M3	1	15	D#4	press
209.831	n/a	RESPONSE	        M3	1	15	D#4	release
210.0	n/a	RESPONSE	        M3	1	14	D4	press
210.197	n/a	RESPONSE	        M3	1	14	D4	release
210.565	n/a	RESPONSE	        M3	1	14	D4	press
211.184	7.758	FIXCROSS	n/a	n/a	n/a	n/a	n/a
211.255	n/a	RESPONSE	        M3	1	14	D4	release
211.856	n/a	RESPONSE	        M3	1	19	G4	press
212.387	n/a	RESPONSE	        M3	1	19	G4	release
213.101	n/a	RESPONSE	        M3	1	07	G3	press
213.412	n/a	RESPONSE	        M3	1	09	A3	press
213.472	n/a	RESPONSE	        M3	1	07	G3	release
213.762	n/a	RESPONSE	        M3	1	10	A#3	press
213.794	n/a	RESPONSE	        M3	1	09	A3	release
214.075	n/a	RESPONSE	        M3	1	12	C4	press
214.136	n/a	RESPONSE	        M3	1	10	A#3	release
214.36	n/a	RESPONSE	        M3	1	14	D4	press
214.388	n/a	RESPONSE	        M3	1	12	C4	release
215.532	n/a	RESPONSE	        M3	1	14	D4	release
218.942	6.308	CUE_LISTEN	        M3	2	n/a	n/a	n/a
225.25	7.758	FIXCROSS	n/a	n/a	n/a	n/a	n/a
233.009	6.325	CUE_PLAYBACK_RIGHT_HAND	        M3	2	n/a	n/a	n/a
233.468	n/a	RESPONSE	        M3	2	15	D#4	press
234.14	n/a	RESPONSE	        M3	2	17	F4	press
234.162	n/a	RESPONSE	        M3	2	15	D#4	release
234.425	n/a	RESPONSE	        M3	2	15	D#4	press
234.466	n/a	RESPONSE	        M3	2	17	F4	release
234.747	n/a	RESPONSE	        M3	2	14	D4	press
234.776	n/a	RESPONSE	        M3	2	15	D#4	release
235.01	n/a	RESPONSE	        M3	2	12	C4	press
235.031	n/a	RESPONSE	        M3	2	14	D4	release
235.36	n/a	RESPONSE	        M3	2	14	D4	press
235.391	n/a	RESPONSE	        M3	2	12	C4	release
235.972	n/a	RESPONSE	        M3	2	15	D#4	press
235.996	n/a	RESPONSE	        M3	2	14	D4	release
236.255	n/a	RESPONSE	        M3	2	14	D4	press
236.287	n/a	RESPONSE	        M3	2	15	D#4	release
236.567	n/a	RESPONSE	        M3	2	12	C4	press
236.571	n/a	RESPONSE	        M3	2	14	D4	release
236.852	n/a	RESPONSE	        M3	2	10	A#3	press
236.891	n/a	RESPONSE	        M3	2	12	C4	release
237.163	n/a	RESPONSE	        M3	2	12	C4	press
237.173	n/a	RESPONSE	        M3	2	10	A#3	release
237.942	n/a	RESPONSE	        M3	2	12	C4	release
238.207	n/a	RESPONSE	        M3	2	17	F4	press
238.785	n/a	RESPONSE	        M3	2	17	F4	release
238.846	n/a	RESPONSE	        M3	2	12	C4	press
239.182	n/a	RESPONSE	        M3	2	12	C4	release
239.334	7.758	FIXCROSS	n/a	n/a	n/a	n/a	n/a
247.092	6.317	CUE_LISTEN	        M6	1	n/a	n/a	n/a
253.409	7.758	FIXCROSS	n/a	n/a	n/a	n/a	n/a
261.167	6.317	CUE_PLAYBACK_RIGHT_HAND	        M6	1	n/a	n/a	n/a
262.123	n/a	RESPONSE	        M6	1	07	G3	press
262.457	n/a	RESPONSE	        M6	1	07	G3	release
262.508	n/a	RESPONSE	        M6	1	07	G3	press
262.808	n/a	RESPONSE	        M6	1	07	G3	release
266.552	n/a	RESPONSE	        M6	1	12	C4	press
267.013	n/a	RESPONSE	        M6	1	16	E4	press
267.063	n/a	RESPONSE	        M6	1	12	C4	release
267.452	n/a	RESPONSE	        M6	1	16	E4	release
267.484	7.767	FIXCROSS	n/a	n/a	n/a	n/a	n/a
268.018	n/a	RESPONSE	        M6	1	12	C4	press
268.237	n/a	RESPONSE	        M6	1	16	E4	press
268.316	n/a	RESPONSE	        M6	1	12	C4	release
268.472	n/a	RESPONSE	        M6	1	19	G4	press
268.488	n/a	RESPONSE	        M6	1	16	E4	release
268.667	n/a	RESPONSE	        M6	1	17	F4	press
268.731	n/a	RESPONSE	        M6	1	19	G4	release
268.88	n/a	RESPONSE	        M6	1	17	F4	release
275.25	6.317	CUE_LISTEN	        M6	2	n/a	n/a	n/a
281.567	7.758	FIXCROSS	n/a	n/a	n/a	n/a	n/a
289.326	6.317	CUE_PLAYBACK_RIGHT_HAND	        M6	2	n/a	n/a	n/a
289.911	n/a	RESPONSE	        M6	2	12	C4	press
290.333	n/a	RESPONSE	        M6	2	17	F4	press
290.397	n/a	RESPONSE	        M6	2	12	C4	release
290.822	n/a	RESPONSE	        M6	2	21	A4	press
290.881	n/a	RESPONSE	        M6	2	17	F4	release
291.216	n/a	RESPONSE	        M6	2	23	B4	press
291.267	n/a	RESPONSE	        M6	2	21	A4	release
291.558	n/a	RESPONSE	        M6	2	23	B4	release
291.68	n/a	RESPONSE	        M6	2	24	C5	press
292.511	n/a	RESPONSE	        M6	2	22	A#4	press
292.572	n/a	RESPONSE	        M6	2	24	C5	release
292.943	n/a	RESPONSE	        M6	2	21	A4	press
293.035	n/a	RESPONSE	        M6	2	22	A#4	release
293.348	n/a	RESPONSE	        M6	2	19	G4	press
293.397	n/a	RESPONSE	        M6	2	21	A4	release
294.131	n/a	RESPONSE	        M6	2	12	C4	press
294.19	n/a	RESPONSE	        M6	2	19	G4	release
294.581	n/a	RESPONSE	        M6	2	16	E4	press
294.635	n/a	RESPONSE	        M6	2	12	C4	release
294.993	n/a	RESPONSE	        M6	2	19	G4	press
295.065	n/a	RESPONSE	        M6	2	16	E4	release
295.456	n/a	RESPONSE	        M6	2	21	A4	press
295.477	n/a	RESPONSE	        M6	2	19	G4	release
295.548	n/a	RESPONSE	        M6	2	21	A4	release
295.642	7.758	FIXCROSS	n/a	n/a	n/a	n/a	n/a
295.66	n/a	RESPONSE	        M6	2	19	G4	press
296.181	n/a	RESPONSE	        M6	2	22	A#4	press
296.222	n/a	RESPONSE	        M6	2	19	G4	release
296.563	n/a	RESPONSE	        M6	2	19	G4	press
296.635	n/a	RESPONSE	        M6	2	22	A#4	release
297.066	n/a	RESPONSE	        M6	2	19	G4	release
298.022	n/a	RESPONSE	        M6	2	19	G4	press
298.335	n/a	RESPONSE	        M6	2	17	F4	press
298.405	n/a	RESPONSE	        M6	2	19	G4	release
298.631	n/a	RESPONSE	        M6	2	17	F4	release
303.4	6.325	CUE_LISTEN	        M2	1	n/a	n/a	n/a
309.725	7.759	FIXCROSS	n/a	n/a	n/a	n/a	n/a
317.484	6.317	CUE_PLAYBACK_BOTH_HANDS	        M2	1	n/a	n/a	n/a
317.93	n/a	RESPONSE	        M2	1	00	C3	press
317.932	n/a	RESPONSE	        M2	1	07	G3	press
317.945	n/a	RESPONSE	        M2	1	24	C5	press
318.348	n/a	RESPONSE	        M2	1	19	G4	press
318.397	n/a	RESPONSE	        M2	1	24	C5	release
318.515	n/a	RESPONSE	        M2	1	19	G4	release
318.546	n/a	RESPONSE	        M2	1	00	C3	release
318.548	n/a	RESPONSE	        M2	1	07	G3	release
318.757	n/a	RESPONSE	        M2	1	00	C3	press
318.76	n/a	RESPONSE	        M2	1	07	G3	press
318.762	n/a	RESPONSE	        M2	1	19	G4	press
319.141	n/a	RESPONSE	        M2	1	17	F4	press
319.183	n/a	RESPONSE	        M2	1	19	G4	release
319.276	n/a	RESPONSE	        M2	1	07	G3	release
319.381	n/a	RESPONSE	        M2	1	00	C3	release
319.56	n/a	RESPONSE	        M2	1	00	C3	press
319.562	n/a	RESPONSE	        M2	1	07	G3	press
319.566	n/a	RESPONSE	        M2	1	16	E4	press
319.588	n/a	RESPONSE	        M2	1	17	F4	release
319.936	n/a	RESPONSE	        M2	1	17	F4	press
319.97	n/a	RESPONSE	        M2	1	16	E4	release
320.071	n/a	RESPONSE	        M2	1	07	G3	release
320.082	n/a	RESPONSE	        M2	1	00	C3	release
320.337	n/a	RESPONSE	        M2	1	19	G4	press
320.357	n/a	RESPONSE	        M2	1	00	C3	press
320.36	n/a	RESPONSE	        M2	1	07	G3	press
320.382	n/a	RESPONSE	        M2	1	17	F4	release
320.8	n/a	RESPONSE	        M2	1	00	C3	release
321.033	n/a	RESPONSE	        M2	1	07	G3	release
321.165	n/a	RESPONSE	        M2	1	00	C3	press
321.167	n/a	RESPONSE	        M2	1	07	G3	press
321.176	n/a	RESPONSE	        M2	1	24	C5	press
321.197	n/a	RESPONSE	        M2	1	19	G4	release
321.588	n/a	RESPONSE	        M2	1	19	G4	press
321.63	n/a	RESPONSE	        M2	1	24	C5	release
321.712	n/a	RESPONSE	        M2	1	19	G4	release
321.722	n/a	RESPONSE	        M2	1	00	C3	release
321.756	n/a	RESPONSE	        M2	1	07	G3	release
321.995	n/a	RESPONSE	        M2	1	19	G4	press
321.997	n/a	RESPONSE	        M2	1	00	C3	press
322.0	n/a	RESPONSE	        M2	1	07	G3	press
322.388	n/a	RESPONSE	        M2	1	17	F4	press
322.421	n/a	RESPONSE	        M2	1	19	G4	release
322.462	n/a	RESPONSE	        M2	1	00	C3	release
322.485	n/a	RESPONSE	        M2	1	07	G3	release
322.783	n/a	RESPONSE	        M2	1	07	G3	press
322.786	n/a	RESPONSE	        M2	1	00	C3	press
322.788	n/a	RESPONSE	        M2	1	16	E4	press
322.817	n/a	RESPONSE	        M2	1	17	F4	release
323.168	n/a	RESPONSE	        M2	1	14	D4	press
323.221	n/a	RESPONSE	        M2	1	16	E4	release
323.271	n/a	RESPONSE	        M2	1	00	C3	release
323.312	n/a	RESPONSE	        M2	1	07	G3	release
323.605	n/a	RESPONSE	        M2	1	00	C3	press
323.607	n/a	RESPONSE	        M2	1	12	C4	press
323.616	n/a	RESPONSE	        M2	1	07	G3	press
323.8	7.758	FIXCROSS	n/a	n/a	n/a	n/a	n/a
323.867	n/a	RESPONSE	        M2	1	14	D4	release
324.331	n/a	RESPONSE	        M2	1	12	C4	release
324.352	n/a	RESPONSE	        M2	1	00	C3	release
324.361	n/a	RESPONSE	        M2	1	07	G3	release
331.559	6.317	CUE_LISTEN	        M2	2	n/a	n/a	n/a
337.876	7.758	FIXCROSS	n/a	n/a	n/a	n/a	n/a
345.634	6.325	CUE_PLAYBACK_BOTH_HANDS	        M2	2	n/a	n/a	n/a
346.376	n/a	RESPONSE	        M2	2	00	C3	press
346.387	n/a	RESPONSE	        M2	2	07	G3	press
346.391	n/a	RESPONSE	        M2	2	12	C4	press
346.78	n/a	RESPONSE	        M2	2	14	D4	press
346.833	n/a	RESPONSE	        M2	2	12	C4	release
346.882	n/a	RESPONSE	        M2	2	00	C3	release
346.903	n/a	RESPONSE	        M2	2	07	G3	release
347.185	n/a	RESPONSE	        M2	2	00	C3	press
347.187	n/a	RESPONSE	        M2	2	07	G3	press
347.19	n/a	RESPONSE	        M2	2	16	E4	press
347.228	n/a	RESPONSE	        M2	2	14	D4	release
347.578	n/a	RESPONSE	        M2	2	14	D4	press
347.611	n/a	RESPONSE	        M2	2	16	E4	release
347.641	n/a	RESPONSE	        M2	2	00	C3	release
347.673	n/a	RESPONSE	        M2	2	07	G3	release
347.956	n/a	RESPONSE	        M2	2	00	C3	press
347.958	n/a	RESPONSE	        M2	2	07	G3	press
347.975	n/a	RESPONSE	        M2	2	16	E4	press
348.013	n/a	RESPONSE	        M2	2	14	D4	release
348.352	n/a	RESPONSE	        M2	2	16	E4	release
348.355	n/a	RESPONSE	        M2	2	17	F4	press
348.398	n/a	RESPONSE	        M2	2	00	C3	release
348.457	n/a	RESPONSE	        M2	2	07	G3	release
348.756	n/a	RESPONSE	        M2	2	00	C3	press
348.76	n/a	RESPONSE	        M2	2	07	G3	press
348.78	n/a	RESPONSE	        M2	2	19	G4	press
348.82	n/a	RESPONSE	        M2	2	17	F4	release
349.175	n/a	RESPONSE	        M2	2	07	G3	release
349.215	n/a	RESPONSE	        M2	2	00	C3	release
349.513	n/a	RESPONSE	        M2	2	00	C3	press
349.516	n/a	RESPONSE	        M2	2	07	G3	press
349.521	n/a	RESPONSE	        M2	2	12	C4	press
349.528	n/a	RESPONSE	        M2	2	19	G4	release
349.907	n/a	RESPONSE	        M2	2	12	C4	release
350.015	n/a	RESPONSE	        M2	2	16	E4	press
350.046	n/a	RESPONSE	        M2	2	07	G3	release
350.052	n/a	RESPONSE	        M2	2	00	C3	release
350.1	n/a	RESPONSE	        M2	2	16	E4	release
350.322	n/a	RESPONSE	        M2	2	07	G3	press
350.325	n/a	RESPONSE	        M2	2	00	C3	press
350.328	n/a	RESPONSE	        M2	2	16	E4	press
350.655	n/a	RESPONSE	        M2	2	19	G4	press
350.675	n/a	RESPONSE	        M2	2	16	E4	release
350.857	n/a	RESPONSE	        M2	2	07	G3	release
350.868	n/a	RESPONSE	        M2	2	00	C3	release
350.871	n/a	RESPONSE	        M2	2	19	G4	release
351.096	n/a	RESPONSE	        M2	2	00	C3	press
351.098	n/a	RESPONSE	        M2	2	07	G3	press
351.108	n/a	RESPONSE	        M2	2	19	G4	press
351.45	n/a	RESPONSE	        M2	2	17	F4	press
351.471	n/a	RESPONSE	        M2	2	19	G4	release
351.552	n/a	RESPONSE	        M2	2	00	C3	release
351.573	n/a	RESPONSE	        M2	2	07	G3	release
351.865	n/a	RESPONSE	        M2	2	16	E4	press
351.867	n/a	RESPONSE	        M2	2	00	C3	press
351.87	n/a	RESPONSE	        M2	2	07	G3	press
351.908	n/a	RESPONSE	        M2	2	17	F4	release
351.959	7.758	FIXCROSS	n/a	n/a	n/a	n/a	n/a
352.24	n/a	RESPONSE	        M2	2	14	D4	press
352.271	n/a	RESPONSE	        M2	2	16	E4	release
352.275	n/a	RESPONSE	        M2	2	00	C3	release
352.296	n/a	RESPONSE	        M2	2	07	G3	release
352.636	n/a	RESPONSE	        M2	2	00	C3	press
352.647	n/a	RESPONSE	        M2	2	07	G3	press
352.658	n/a	RESPONSE	        M2	2	12	C4	press
352.661	n/a	RESPONSE	        M2	2	14	D4	release
353.391	n/a	RESPONSE	        M2	2	00	C3	release
353.422	n/a	RESPONSE	        M2	2	12	C4	release
353.436	n/a	RESPONSE	        M2	2	07	G3	release
359.717	6.317	CUE_LISTEN	        M8	1	n/a	n/a	n/a
366.034	7.758	FIXCROSS	n/a	n/a	n/a	n/a	n/a
373.792	6.317	CUE_PLAYBACK_BOTH_HANDS	        M8	1	n/a	n/a	n/a
374.268	n/a	RESPONSE	        M8	1	16	E4	press
374.51	n/a	RESPONSE	        M8	1	19	G4	press
374.621	n/a	RESPONSE	        M8	1	16	E4	release
374.782	n/a	RESPONSE	        M8	1	23	B4	press
374.823	n/a	RESPONSE	        M8	1	19	G4	release
375.055	n/a	RESPONSE	        M8	1	23	B4	release
375.326	n/a	RESPONSE	        M8	1	23	B4	press
375.838	n/a	RESPONSE	        M8	1	09	A3	press
375.86	n/a	RESPONSE	        M8	1	18	F#4	press
375.9	n/a	RESPONSE	        M8	1	23	B4	release
376.141	n/a	RESPONSE	        M8	1	12	C4	press
376.272	n/a	RESPONSE	        M8	1	09	A3	release
376.423	n/a	RESPONSE	        M8	1	21	A4	press
376.426	n/a	RESPONSE	        M8	1	16	E4	press
376.456	n/a	RESPONSE	        M8	1	18	F#4	release
376.487	n/a	RESPONSE	        M8	1	12	C4	release
376.768	n/a	RESPONSE	        M8	1	16	E4	release
376.96	n/a	RESPONSE	        M8	1	16	E4	press
377.462	n/a	RESPONSE	        M8	1	15	D#4	press
377.478	n/a	RESPONSE	        M8	1	23	B4	press
377.5	n/a	RESPONSE	        M8	1	16	E4	release
377.525	n/a	RESPONSE	        M8	1	21	A4	release
377.978	n/a	RESPONSE	        M8	1	09	A3	press
378.055	n/a	RESPONSE	        M8	1	15	D#4	release
378.271	n/a	RESPONSE	        M8	1	21	A4	press
378.317	n/a	RESPONSE	        M8	1	23	B4	release
378.655	n/a	RESPONSE	        M8	1	19	G4	press
378.765	n/a	RESPONSE	        M8	1	21	A4	release
378.903	n/a	RESPONSE	        M8	1	09	A3	release
379.15	n/a	RESPONSE	        M8	1	18	F#4	press
379.208	n/a	RESPONSE	        M8	1	19	G4	release
379.511	n/a	RESPONSE	        M8	1	16	E4	press
379.513	n/a	RESPONSE	        M8	1	11	B3	press
379.528	n/a	RESPONSE	        M8	1	18	F#4	release
380.086	n/a	RESPONSE	        M8	1	16	E4	release
380.109	7.758	FIXCROSS	n/a	n/a	n/a	n/a	n/a
380.198	n/a	RESPONSE	        M8	1	23	B4	press
380.222	n/a	RESPONSE	        M8	1	09	A3	press
380.286	n/a	RESPONSE	        M8	1	11	B3	release
380.592	n/a	RESPONSE	        M8	1	23	B4	release
380.623	n/a	RESPONSE	        M8	1	09	A3	release
380.94	n/a	RESPONSE	        M8	1	09	A3	press
380.983	n/a	RESPONSE	        M8	1	23	B4	press
381.125	n/a	RESPONSE	        M8	1	23	B4	release
381.335	n/a	RESPONSE	        M8	1	09	A3	release
387.867	6.325	CUE_LISTEN	        M8	2	n/a	n/a	n/a
394.192	7.758	FIXCROSS	n/a	n/a	n/a	n/a	n/a
395.552	n/a	RESPONSE	        M8	2	16	E4	press
395.733	n/a	RESPONSE	        M8	2	16	E4	release
401.951	6.317	CUE_PLAYBACK_BOTH_HANDS	        M8	2	n/a	n/a	n/a
402.363	n/a	RESPONSE	        M8	2	16	E4	press
402.645	n/a	RESPONSE	        M8	2	19	G4	press
402.706	n/a	RESPONSE	        M8	2	16	E4	release
402.937	n/a	RESPONSE	        M8	2	23	B4	press
402.971	n/a	RESPONSE	        M8	2	19	G4	release
403.16	n/a	RESPONSE	        M8	2	23	B4	release
403.441	n/a	RESPONSE	        M8	2	23	B4	press
403.982	n/a	RESPONSE	        M8	2	09	A3	press
404.003	n/a	RESPONSE	        M8	2	18	F#4	press
404.045	n/a	RESPONSE	        M8	2	23	B4	release
404.266	n/a	RESPONSE	        M8	2	12	C4	press
404.357	n/a	RESPONSE	        M8	2	09	A3	release
404.581	n/a	RESPONSE	        M8	2	21	A4	press
404.59	n/a	RESPONSE	        M8	2	16	E4	press
404.631	n/a	RESPONSE	        M8	2	18	F#4	release
404.633	n/a	RESPONSE	        M8	2	12	C4	release
404.903	n/a	RESPONSE	        M8	2	16	E4	release
405.145	n/a	RESPONSE	        M8	2	16	E4	press
405.668	n/a	RESPONSE	        M8	2	15	D#4	press
405.687	n/a	RESPONSE	        M8	2	23	B4	press
405.711	n/a	RESPONSE	        M8	2	16	E4	release
405.722	n/a	RESPONSE	        M8	2	21	A4	release
406.241	n/a	RESPONSE	        M8	2	09	A3	press
406.315	n/a	RESPONSE	        M8	2	15	D#4	release
406.493	n/a	RESPONSE	        M8	2	21	A4	press
406.535	n/a	RESPONSE	        M8	2	23	B4	release
406.766	n/a	RESPONSE	        M8	2	19	G4	press
406.827	n/a	RESPONSE	        M8	2	21	A4	release
407.058	n/a	RESPONSE	        M8	2	18	F#4	press
407.09	n/a	RESPONSE	        M8	2	19	G4	release
407.34	n/a	RESPONSE	        M8	2	11	B3	press
407.35	n/a	RESPONSE	        M8	2	19	G4	press
407.387	n/a	RESPONSE	        M8	2	18	F#4	release
407.411	n/a	RESPONSE	        M8	2	09	A3	release
407.926	n/a	RESPONSE	        M8	2	16	E4	press
407.977	n/a	RESPONSE	        M8	2	19	G4	release
408.132	n/a	RESPONSE	        M8	2	09	A3	press
408.267	7.759	FIXCROSS	n/a	n/a	n/a	n/a	n/a
408.318	n/a	RESPONSE	        M8	2	11	B3	release
408.671	n/a	RESPONSE	        M8	2	07	G3	press
408.788	n/a	RESPONSE	        M8	2	09	A3	release
409.036	n/a	RESPONSE	        M8	2	02	D3	press
409.125	n/a	RESPONSE	        M8	2	07	G3	release
409.421	n/a	RESPONSE	        M8	2	02	D3	release
409.68	n/a	RESPONSE	        M8	2	05	F3	press
409.682	n/a	RESPONSE	        M8	2	04	E3	press
409.99	n/a	RESPONSE	        M8	2	04	E3	release
410.048	n/a	RESPONSE	        M8	2	05	F3	release
410.141	n/a	RESPONSE	        M8	2	04	E3	press
411.465	n/a	RESPONSE	        M8	2	16	E4	release
411.526	n/a	RESPONSE	        M8	2	04	E3	release
416.026	6.317	CUE_LISTEN	        M4	1	n/a	n/a	n/a
422.342	7.758	FIXCROSS	n/a	n/a	n/a	n/a	n/a
430.101	6.325	CUE_PLAYBACK_RIGHT_HAND	        M4	1	n/a	n/a	n/a
430.638	n/a	RESPONSE	        M4	1	19	G4	press
430.887	n/a	RESPONSE	        M4	1	18	F#4	press
430.937	n/a	RESPONSE	        M4	1	19	G4	release
431.106	n/a	RESPONSE	        M4	1	19	G4	press
431.127	n/a	RESPONSE	        M4	1	18	F#4	release
431.571	n/a	RESPONSE	        M4	1	21	A4	press
431.67	n/a	RESPONSE	        M4	1	21	A4	release
431.791	n/a	RESPONSE	        M4	1	23	B4	press
431.993	n/a	RESPONSE	        M4	1	19	G4	release
432.083	n/a	RESPONSE	        M4	1	24	C5	press
432.115	n/a	RESPONSE	        M4	1	23	B4	release
432.278	n/a	RESPONSE	        M4	1	23	B4	press
432.337	n/a	RESPONSE	        M4	1	24	C5	release
432.518	n/a	RESPONSE	        M4	1	23	B4	release
432.521	n/a	RESPONSE	        M4	1	21	A4	press
432.601	n/a	RESPONSE	        M4	1	21	A4	release
432.603	n/a	RESPONSE	        M4	1	23	B4	press
433.613	n/a	RESPONSE	        M4	1	18	F#4	press
433.635	n/a	RESPONSE	        M4	1	23	B4	release
433.818	n/a	RESPONSE	        M4	1	16	E4	press
433.837	n/a	RESPONSE	        M4	1	18	F#4	release
434.068	n/a	RESPONSE	        M4	1	18	F#4	press
434.12	n/a	RESPONSE	        M4	1	16	E4	release
434.503	n/a	RESPONSE	        M4	1	19	G4	press
434.522	n/a	RESPONSE	        M4	1	18	F#4	release
434.533	n/a	RESPONSE	        M4	1	21	A4	press
434.725	n/a	RESPONSE	        M4	1	21	A4	release
434.737	n/a	RESPONSE	        M4	1	21	A4	press
434.758	n/a	RESPONSE	        M4	1	19	G4	release
434.978	n/a	RESPONSE	        M4	1	19	G4	press
435.022	n/a	RESPONSE	        M4	1	21	A4	release
436.426	7.758	FIXCROSS	n/a	n/a	n/a	n/a	n/a
436.451	n/a	RESPONSE	        M4	1	19	G4	release
444.184	6.317	CUE_LISTEN	        M4	2	n/a	n/a	n/a
450.501	7.758	FIXCROSS	n/a	n/a	n/a	n/a	n/a
458.259	6.317	CUE_PLAYBACK_RIGHT_HAND	        M4	2	n/a	n/a	n/a
458.728	n/a	RESPONSE	        M4	2	23	B4	press
459.653	n/a	RESPONSE	        M4	2	19	G4	press
459.676	n/a	RESPONSE	        M4	2	23	B4	release
461.201	n/a	RESPONSE	        M4	2	19	G4	release
461.525	n/a	RESPONSE	        M4	2	23	B4	press
462.563	n/a	RESPONSE	        M4	2	21	A4	press
462.604	n/a	RESPONSE	        M4	2	23	B4	release
464.416	n/a	RESPONSE	        M4	2	21	A4	release
464.576	7.758	FIXCROSS	n/a	n/a	n/a	n/a	n/a
472.334	6.325	CUE_LISTEN	        M3	1	n/a	n/a	n/a
478.659	7.758	FIXCROSS	n/a	n/a	n/a	n/a	n/a
486.418	6.317	CUE_PLAYBACK_RIGHT_HAND	        M3	1	n/a	n/a	n/a
486.886	n/a	RESPONSE	        M3	1	19	G4	press
487.343	n/a	RESPONSE	        M3	1	16	E4	press
487.406	n/a	RESPONSE	        M3	1	19	G4	release
487.498	n/a	RESPONSE	        M3	1	16	E4	release
487.827	n/a	RESPONSE	        M3	1	16	E4	press
488.313	n/a	RESPONSE	        M3	1	17	F4	press
488.332	n/a	RESPONSE	        M3	1	16	E4	release
488.784	n/a	RESPONSE	        M3	1	14	D4	press
488.81	n/a	RESPONSE	        M3	1	17	F4	release
488.908	n/a	RESPONSE	        M3	1	14	D4	release
489.26	n/a	RESPONSE	        M3	1	14	D4	press
489.731	n/a	RESPONSE	        M3	1	12	C4	press
489.75	n/a	RESPONSE	        M3	1	14	D4	release
489.966	n/a	RESPONSE	        M3	1	16	E4	press
489.998	n/a	RESPONSE	        M3	1	12	C4	release
490.213	n/a	RESPONSE	        M3	1	19	G4	press
490.218	n/a	RESPONSE	        M3	1	16	E4	release
490.953	n/a	RESPONSE	        M3	1	19	G4	release
492.734	7.758	FIXCROSS	n/a	n/a	n/a	n/a	n/a
500.493	6.317	CUE_LISTEN	        M3	2	n/a	n/a	n/a
506.809	7.758	FIXCROSS	n/a	n/a	n/a	n/a	n/a
514.568	6.325	CUE_PLAYBACK_RIGHT_HAND	        M3	2	n/a	n/a	n/a
514.98	n/a	RESPONSE	        M3	2	19	G4	press
515.501	n/a	RESPONSE	        M3	2	16	E4	press
515.553	n/a	RESPONSE	        M3	2	19	G4	release
515.673	n/a	RESPONSE	        M3	2	16	E4	release
515.994	n/a	RESPONSE	        M3	2	16	E4	press
516.526	n/a	RESPONSE	        M3	2	17	F4	press
516.54	n/a	RESPONSE	        M3	2	16	E4	release
516.998	n/a	RESPONSE	        M3	2	14	D4	press
517.03	n/a	RESPONSE	        M3	2	17	F4	release
517.151	n/a	RESPONSE	        M3	2	14	D4	release
517.471	n/a	RESPONSE	        M3	2	14	D4	press
517.942	n/a	RESPONSE	        M3	2	12	C4	press
517.963	n/a	RESPONSE	        M3	2	14	D4	release
518.193	n/a	RESPONSE	        M3	2	16	E4	press
518.241	n/a	RESPONSE	        M3	2	12	C4	release
518.455	n/a	RESPONSE	        M3	2	12	C4	press
518.458	n/a	RESPONSE	        M3	2	16	E4	release
519.393	n/a	RESPONSE	        M3	2	12	C4	release
520.893	7.758	FIXCROSS	n/a	n/a	n/a	n/a	n/a
528.651	6.317	CUE_LISTEN	        M5	1	n/a	n/a	n/a
534.968	7.759	FIXCROSS	n/a	n/a	n/a	n/a	n/a
542.726	6.325	CUE_PLAYBACK_BOTH_HANDS	        M5	1	n/a	n/a	n/a
544.051	n/a	RESPONSE	        M5	1	05	F3	press
544.063	n/a	RESPONSE	        M5	1	15	D#4	press
544.083	n/a	RESPONSE	        M5	1	08	G#3	press
544.426	n/a	RESPONSE	        M5	1	15	D#4	release
544.467	n/a	RESPONSE	        M5	1	05	F3	release
544.478	n/a	RESPONSE	        M5	1	08	G#3	release
545.888	n/a	RESPONSE	        M5	1	07	G3	press
545.92	n/a	RESPONSE	        M5	1	17	F4	press
545.931	n/a	RESPONSE	        M5	1	10	A#3	press
546.303	n/a	RESPONSE	        M5	1	17	F4	release
546.323	n/a	RESPONSE	        M5	1	07	G3	release
546.354	n/a	RESPONSE	        M5	1	10	A#3	release
548.363	n/a	RESPONSE	        M5	1	19	G4	press
548.391	n/a	RESPONSE	        M5	1	07	G3	press
548.87	n/a	RESPONSE	        M5	1	07	G3	release
548.892	n/a	RESPONSE	        M5	1	19	G4	release
549.051	7.758	FIXCROSS	n/a	n/a	n/a	n/a	n/a
549.268	n/a	RESPONSE	        M5	1	07	G3	press
549.281	n/a	RESPONSE	        M5	1	19	G4	press
549.526	n/a	RESPONSE	        M5	1	17	F4	press
549.583	n/a	RESPONSE	        M5	1	19	G4	release
549.681	n/a	RESPONSE	        M5	1	07	G3	release
549.812	n/a	RESPONSE	        M5	1	17	F4	release
556.809	6.317	CUE_LISTEN	        M5	2	n/a	n/a	n/a
563.126	7.758	FIXCROSS	n/a	n/a	n/a	n/a	n/a
570.884	6.317	CUE_PLAYBACK_BOTH_HANDS	        M5	2	n/a	n/a	n/a
571.836	n/a	RESPONSE	        M5	2	09	A3	press
571.848	n/a	RESPONSE	        M5	2	14	D4	press
571.868	n/a	RESPONSE	        M5	2	17	F4	press
572.54	n/a	RESPONSE	        M5	2	19	G4	press
572.583	n/a	RESPONSE	        M5	2	17	F4	release
572.852	n/a	RESPONSE	        M5	2	17	F4	press
572.896	n/a	RESPONSE	        M5	2	19	G4	release
573.234	n/a	RESPONSE	        M5	2	11	B3	press
573.286	n/a	RESPONSE	        M5	2	14	D4	release
573.309	n/a	RESPONSE	        M5	2	11	B3	release
574.108	n/a	RESPONSE	        M5	2	12	C4	press
574.119	n/a	RESPONSE	        M5	2	15	D#4	press
574.143	n/a	RESPONSE	        M5	2	09	A3	release
574.162	n/a	RESPONSE	        M5	2	17	F4	release
574.463	n/a	RESPONSE	        M5	2	14	D4	press
574.494	n/a	RESPONSE	        M5	2	15	D#4	release
574.886	n/a	RESPONSE	        M5	2	10	A#3	press
574.897	n/a	RESPONSE	        M5	2	15	D#4	press
574.909	n/a	RESPONSE	        M5	2	12	C4	release
574.929	n/a	RESPONSE	        M5	2	14	D4	release
575.561	n/a	RESPONSE	        M5	2	17	F4	press
575.603	n/a	RESPONSE	        M5	2	15	D#4	release
575.853	n/a	RESPONSE	        M5	2	15	D#4	press
575.904	n/a	RESPONSE	        M5	2	17	F4	release
576.196	n/a	RESPONSE	        M5	2	09	A3	press
576.208	n/a	RESPONSE	        M5	2	14	D4	press
576.248	n/a	RESPONSE	        M5	2	10	A#3	release
576.252	n/a	RESPONSE	        M5	2	15	D#4	release
576.521	n/a	RESPONSE	        M5	2	12	C4	press
576.532	n/a	RESPONSE	        M5	2	14	D4	release
576.983	n/a	RESPONSE	        M5	2	12	C4	release
577.201	7.758	FIXCROSS	n/a	n/a	n/a	n/a	n/a
577.593	n/a	RESPONSE	        M5	2	09	A3	release
577.886	n/a	RESPONSE	        M5	2	08	G#3	press
577.891	n/a	RESPONSE	        M5	2	14	D4	press
578.269	n/a	RESPONSE	        M5	2	14	D4	release
578.473	n/a	RESPONSE	        M5	2	19	G4	press
578.5	n/a	RESPONSE	        M5	2	08	G#3	release
578.967	n/a	RESPONSE	        M5	2	19	G4	release
584.96	6.325	CUE_LISTEN	        M1	1	n/a	n/a	n/a
591.284	7.759	FIXCROSS	n/a	n/a	n/a	n/a	n/a
599.043	6.317	CUE_PLAYBACK_RIGHT_HAND	        M1	1	n/a	n/a	n/a
599.458	n/a	RESPONSE	        M1	1	21	A4	press
599.612	n/a	RESPONSE	        M1	1	21	A4	release
599.809	n/a	RESPONSE	        M1	1	21	A4	press
599.949	n/a	RESPONSE	        M1	1	21	A4	release
600.168	n/a	RESPONSE	        M1	1	21	A4	press
600.582	n/a	RESPONSE	        M1	1	21	A4	release
600.853	n/a	RESPONSE	        M1	1	21	A4	press
600.959	n/a	RESPONSE	        M1	1	21	A4	release
601.201	n/a	RESPONSE	        M1	1	21	A4	press
601.322	n/a	RESPONSE	        M1	1	21	A4	release
601.573	n/a	RESPONSE	        M1	1	21	A4	press
602.004	n/a	RESPONSE	        M1	1	21	A4	release
602.228	n/a	RESPONSE	        M1	1	21	A4	press
602.557	n/a	RESPONSE	        M1	1	24	C5	press
602.588	n/a	RESPONSE	        M1	1	21	A4	release
602.929	n/a	RESPONSE	        M1	1	17	F4	press
602.953	n/a	RESPONSE	        M1	1	24	C5	release
603.262	n/a	RESPONSE	        M1	1	19	G4	press
603.314	n/a	RESPONSE	        M1	1	17	F4	release
603.614	n/a	RESPONSE	        M1	1	21	A4	press
603.636	n/a	RESPONSE	        M1	1	19	G4	release
604.678	n/a	RESPONSE	        M1	1	21	A4	release
605.36	7.767	FIXCROSS	n/a	n/a	n/a	n/a	n/a
613.126	6.308	CUE_LISTEN	        M1	2	n/a	n/a	n/a
619.434	7.758	FIXCROSS	n/a	n/a	n/a	n/a	n/a
627.193	6.325	CUE_PLAYBACK_RIGHT_HAND	        M1	2	n/a	n/a	n/a
627.678	n/a	RESPONSE	        M1	2	22	A#4	press
627.786	n/a	RESPONSE	        M1	2	22	A#4	release
628.059	n/a	RESPONSE	        M1	2	22	A#4	press
628.233	n/a	RESPONSE	        M1	2	22	A#4	release
628.458	n/a	RESPONSE	        M1	2	22	A#4	press
628.641	n/a	RESPONSE	        M1	2	22	A#4	release
628.806	n/a	RESPONSE	        M1	2	22	A#4	press
628.998	n/a	RESPONSE	        M1	2	22	A#4	release
629.181	n/a	RESPONSE	        M1	2	22	A#4	press
629.544	n/a	RESPONSE	        M1	2	21	A4	press
629.622	n/a	RESPONSE	        M1	2	22	A#4	release
629.694	n/a	RESPONSE	        M1	2	21	A4	release
629.932	n/a	RESPONSE	        M1	2	21	A4	press
630.067	n/a	RESPONSE	        M1	2	21	A4	release
630.308	n/a	RESPONSE	        M1	2	21	A4	press
630.708	n/a	RESPONSE	        M1	2	24	C5	press
630.736	n/a	RESPONSE	        M1	2	21	A4	release
630.873	n/a	RESPONSE	        M1	2	24	C5	release
631.094	n/a	RESPONSE	        M1	2	24	C5	press
631.476	n/a	RESPONSE	        M1	2	22	A#4	press
631.517	n/a	RESPONSE	        M1	2	24	C5	release
631.808	n/a	RESPONSE	        M1	2	21	A4	press
631.879	n/a	RESPONSE	        M1	2	22	A#4	release
632.091	n/a	RESPONSE	        M1	2	21	A4	release
632.312	n/a	RESPONSE	        M1	2	24	C5	press
632.443	n/a	RESPONSE	        M1	2	24	C5	release
632.534	n/a	RESPONSE	        M1	2	24	C5	press
632.806	n/a	RESPONSE	        M1	2	22	A#4	press
632.877	n/a	RESPONSE	        M1	2	24	C5	release
633.098	n/a	RESPONSE	        M1	2	19	G4	press
633.139	n/a	RESPONSE	        M1	2	22	A#4	release
633.401	n/a	RESPONSE	        M1	2	17	F4	press
633.413	n/a	RESPONSE	        M1	2	19	G4	release
633.518	7.758	FIXCROSS	n/a	n/a	n/a	n/a	n/a
634.623	n/a	RESPONSE	        M1	2	17	F4	release
641.276	6.317	CUE_LISTEN	        M7	1	n/a	n/a	n/a
647.593	7.758	FIXCROSS	n/a	n/a	n/a	n/a	n/a
655.351	6.317	CUE_PLAYBACK_BOTH_HANDS	        M7	1	n/a	n/a	n/a
655.928	n/a	RESPONSE	        M7	1	05	F3	press
655.931	n/a	RESPONSE	        M7	1	21	A4	press
656.443	n/a	RESPONSE	        M7	1	21	A4	release
656.452	n/a	RESPONSE	        M7	1	05	F3	release
660.784	n/a	RESPONSE	        M7	1	00	C3	press
660.791	n/a	RESPONSE	        M7	1	12	C4	press
661.208	n/a	RESPONSE	        M7	1	07	G3	press
661.218	n/a	RESPONSE	        M7	1	16	E4	press
661.279	n/a	RESPONSE	        M7	1	12	C4	release
661.331	n/a	RESPONSE	        M7	1	00	C3	release
661.668	7.758	FIXCROSS	n/a	n/a	n/a	n/a	n/a
661.692	n/a	RESPONSE	        M7	1	16	E4	release
661.704	n/a	RESPONSE	        M7	1	07	G3	release
669.426	6.325	CUE_LISTEN	        M7	2	n/a	n/a	n/a
675.751	7.758	FIXCROSS	n/a	n/a	n/a	n/a	n/a
683.51	6.317	CUE_PLAYBACK_BOTH_HANDS	        M7	2	n/a	n/a	n/a
684.172	n/a	RESPONSE	        M7	2	19	G4	press
684.183	n/a	RESPONSE	        M7	2	00	C3	press
684.384	n/a	RESPONSE	        M7	2	21	A4	press
684.436	n/a	RESPONSE	        M7	2	19	G4	release
684.587	n/a	RESPONSE	        M7	2	19	G4	press
684.608	n/a	RESPONSE	        M7	2	07	G3	press
684.649	n/a	RESPONSE	        M7	2	21	A4	release
684.812	n/a	RESPONSE	        M7	2	17	F4	press
684.872	n/a	RESPONSE	        M7	2	00	C3	release
684.883	n/a	RESPONSE	        M7	2	19	G4	release
685.044	n/a	RESPONSE	        M7	2	04	E3	press
685.066	n/a	RESPONSE	        M7	2	16	E4	press
685.087	n/a	RESPONSE	        M7	2	07	G3	release
685.098	n/a	RESPONSE	        M7	2	17	F4	release
685.461	n/a	RESPONSE	        M7	2	07	G3	press
685.503	n/a	RESPONSE	        M7	2	12	C4	press
685.532	n/a	RESPONSE	        M7	2	04	E3	release
685.573	n/a	RESPONSE	        M7	2	16	E4	release
685.724	n/a	RESPONSE	        M7	2	12	C4	release
685.916	n/a	RESPONSE	        M7	2	00	C3	press
685.957	n/a	RESPONSE	        M7	2	19	G4	press
685.979	n/a	RESPONSE	        M7	2	07	G3	release
686.139	n/a	RESPONSE	        M7	2	21	A4	press
686.191	n/a	RESPONSE	        M7	2	19	G4	release
686.354	n/a	RESPONSE	        M7	2	19	G4	press
686.363	n/a	RESPONSE	        M7	2	07	G3	press
686.404	n/a	RESPONSE	        M7	2	21	A4	release
686.416	n/a	RESPONSE	        M7	2	00	C3	release
686.569	n/a	RESPONSE	        M7	2	17	F4	press
686.618	n/a	RESPONSE	        M7	2	19	G4	release
686.771	n/a	RESPONSE	        M7	2	04	E3	press
686.801	n/a	RESPONSE	        M7	2	16	E4	press
686.842	n/a	RESPONSE	        M7	2	07	G3	release
686.844	n/a	RESPONSE	        M7	2	17	F4	release
687.204	n/a	RESPONSE	        M7	2	07	G3	press
687.207	n/a	RESPONSE	        M7	2	12	C4	press
687.247	n/a	RESPONSE	        M7	2	04	E3	release
687.249	n/a	RESPONSE	        M7	2	16	E4	release
687.342	n/a	RESPONSE	        M7	2	12	C4	release
687.643	n/a	RESPONSE	        M7	2	00	C3	press
687.649	n/a	RESPONSE	        M7	2	12	C4	press
687.673	n/a	RESPONSE	        M7	2	07	G3	release
688.077	n/a	RESPONSE	        M7	2	07	G3	press
688.132	n/a	RESPONSE	        M7	2	00	C3	release
688.159	n/a	RESPONSE	        M7	2	12	C4	release
688.517	n/a	RESPONSE	        M7	2	00	C3	press
688.539	n/a	RESPONSE	        M7	2	12	C4	press
688.543	n/a	RESPONSE	        M7	2	07	G3	release
689.072	n/a	RESPONSE	        M7	2	00	C3	release
689.102	n/a	RESPONSE	        M7	2	12	C4	release
689.422	n/a	RESPONSE	        M7	2	00	C3	press
689.436	n/a	RESPONSE	        M7	2	12	C4	press
689.826	7.758	FIXCROSS	n/a	n/a	n/a	n/a	n/a
689.842	n/a	RESPONSE	        M7	2	07	G3	press
689.883	n/a	RESPONSE	        M7	2	00	C3	release
689.886	n/a	RESPONSE	        M7	2	12	C4	release
690.237	n/a	RESPONSE	        M7	2	00	C3	press
690.269	n/a	RESPONSE	        M7	2	12	C4	press
690.273	n/a	RESPONSE	        M7	2	07	G3	release
690.942	n/a	RESPONSE	        M7	2	12	C4	release
690.964	n/a	RESPONSE	        M7	2	00	C3	release
697.585	6.317	CUE_LISTEN	        M4	1	n/a	n/a	n/a
703.901	7.758	FIXCROSS	n/a	n/a	n/a	n/a	n/a
711.66	6.325	CUE_PLAYBACK_BOTH_HANDS	        M4	1	n/a	n/a	n/a
712.608	n/a	RESPONSE	        M4	1	05	F3	press
712.637	n/a	RESPONSE	        M4	1	16	E4	press
713.118	n/a	RESPONSE	        M4	1	19	G4	press
713.129	n/a	RESPONSE	        M4	1	12	C4	press
713.241	n/a	RESPONSE	        M4	1	16	E4	release
713.254	n/a	RESPONSE	        M4	1	05	F3	release
713.273	n/a	RESPONSE	        M4	1	18	F#4	press
713.324	n/a	RESPONSE	        M4	1	19	G4	release
713.517	n/a	RESPONSE	        M4	1	19	G4	press
713.579	n/a	RESPONSE	        M4	1	16	E4	press
713.648	n/a	RESPONSE	        M4	1	18	F#4	release
713.682	n/a	RESPONSE	        M4	1	12	C4	release
714.001	n/a	RESPONSE	        M4	1	21	A4	press
714.043	n/a	RESPONSE	        M4	1	12	C4	press
714.053	n/a	RESPONSE	        M4	1	19	G4	release
714.097	n/a	RESPONSE	        M4	1	16	E4	release
714.216	n/a	RESPONSE	        M4	1	23	B4	press
714.247	n/a	RESPONSE	        M4	1	21	A4	release
714.478	n/a	RESPONSE	        M4	1	21	A4	press
714.539	n/a	RESPONSE	        M4	1	16	E4	press
714.542	n/a	RESPONSE	        M4	1	05	F3	press
714.552	n/a	RESPONSE	        M4	1	23	B4	release
714.563	n/a	RESPONSE	        M4	1	12	C4	release
714.734	n/a	RESPONSE	        M4	1	21	A4	release
714.826	n/a	RESPONSE	        M4	1	16	E4	release
714.907	n/a	RESPONSE	        M4	1	05	F3	release
717.985	7.758	FIXCROSS	n/a	n/a	n/a	n/a	n/a
718.441	n/a	RESPONSE	        M4	1	19	G4	press
718.457	n/a	RESPONSE	        M4	1	05	F3	press
718.482	n/a	RESPONSE	        M4	1	16	E4	press
718.754	n/a	RESPONSE	        M4	1	18	F#4	press
718.806	n/a	RESPONSE	        M4	1	19	G4	release
718.821	n/a	RESPONSE	        M4	1	12	C4	press
718.973	n/a	RESPONSE	        M4	1	19	G4	press
719.006	n/a	RESPONSE	        M4	1	05	F3	release
719.028	n/a	RESPONSE	        M4	1	18	F#4	release
719.038	n/a	RESPONSE	        M4	1	16	E4	release
719.066	n/a	RESPONSE	        M4	1	12	C4	release
719.329	n/a	RESPONSE	        M4	1	19	G4	release
720.297	n/a	RESPONSE	        M4	1	05	F3	press
720.321	n/a	RESPONSE	        M4	1	16	E4	press
720.727	n/a	RESPONSE	        M4	1	05	F3	release
720.788	n/a	RESPONSE	        M4	1	16	E4	release
720.936	n/a	RESPONSE	        M4	1	16	E4	press
720.947	n/a	RESPONSE	        M4	1	05	F3	press
721.389	n/a	RESPONSE	        M4	1	05	F3	release
721.401	n/a	RESPONSE	        M4	1	16	E4	release
725.743	6.317	CUE_LISTEN	        M4	2	n/a	n/a	n/a
732.06	7.758	FIXCROSS	n/a	n/a	n/a	n/a	n/a
739.404	n/a	RESPONSE	        M4	2	04	E3	press
739.818	6.317	CUE_PLAYBACK_BOTH_HANDS	        M4	2	n/a	n/a	n/a
740.401	n/a	RESPONSE	        M4	2	23	B4	press
740.411	n/a	RESPONSE	        M4	2	16	E4	press
740.912	n/a	RESPONSE	        M4	2	12	C4	press
741.078	n/a	RESPONSE	        M4	2	16	E4	release
741.212	n/a	RESPONSE	        M4	2	04	E3	release
741.512	n/a	RESPONSE	        M4	2	12	C4	release
741.572	n/a	RESPONSE	        M4	2	16	E4	press
741.663	n/a	RESPONSE	        M4	2	09	A3	press
742.187	n/a	RESPONSE	        M4	2	09	A3	release
742.206	n/a	RESPONSE	        M4	2	17	F4	press
742.239	n/a	RESPONSE	        M4	2	16	E4	release
742.358	n/a	RESPONSE	        M4	2	23	B4	release
742.369	n/a	RESPONSE	        M4	2	12	C4	press
742.512	n/a	RESPONSE	        M4	2	12	C4	release
742.514	n/a	RESPONSE	        M4	2	17	F4	release
743.173	n/a	RESPONSE	        M4	2	19	G4	press
743.426	n/a	RESPONSE	        M4	2	04	E3	press
743.606	n/a	RESPONSE	        M4	2	19	G4	release
743.738	n/a	RESPONSE	        M4	2	19	G4	press
743.761	n/a	RESPONSE	        M4	2	16	E4	press
744.149	n/a	RESPONSE	        M4	2	12	C4	press
744.231	n/a	RESPONSE	        M4	2	04	E3	release
744.243	n/a	RESPONSE	        M4	2	16	E4	release
744.593	n/a	RESPONSE	        M4	2	19	G4	release
744.624	n/a	RESPONSE	        M4	2	12	C4	release
746.135	7.758	FIXCROSS	n/a	n/a	n/a	n/a	n/a
753.893	6.325	CUE_LISTEN	        M2	1	n/a	n/a	n/a
760.218	7.758	FIXCROSS	n/a	n/a	n/a	n/a	n/a
767.977	6.317	CUE_PLAYBACK_RIGHT_HAND	        M2	1	n/a	n/a	n/a
768.379	n/a	RESPONSE	        M2	1	21	A4	press
768.697	n/a	RESPONSE	        M2	1	21	A4	release
770.102	n/a	RESPONSE	        M2	1	23	B4	press
770.447	n/a	RESPONSE	        M2	1	23	B4	release
774.293	7.758	FIXCROSS	n/a	n/a	n/a	n/a	n/a
774.464	n/a	RESPONSE	        M2	1	19	G4	press
774.787	n/a	RESPONSE	        M2	1	19	G4	release
776.476	n/a	RESPONSE	        M2	1	20	G#4	press
776.797	n/a	RESPONSE	        M2	1	20	G#4	release
779.098	n/a	RESPONSE	        M2	1	20	G#4	press
779.401	n/a	RESPONSE	        M2	1	20	G#4	release
782.052	6.325	CUE_LISTEN	        M2	2	n/a	n/a	n/a
788.377	7.758	FIXCROSS	n/a	n/a	n/a	n/a	n/a
796.135	6.317	CUE_PLAYBACK_RIGHT_HAND	        M2	2	n/a	n/a	n/a
796.598	n/a	RESPONSE	        M2	2	12	C4	press
796.949	n/a	RESPONSE	        M2	2	16	E4	press
797.162	n/a	RESPONSE	        M2	2	12	C4	release
797.242	n/a	RESPONSE	        M2	2	16	E4	release
797.783	n/a	RESPONSE	        M2	2	12	C4	press
798.2	n/a	RESPONSE	        M2	2	14	D4	press
798.297	n/a	RESPONSE	        M2	2	12	C4	release
798.602	n/a	RESPONSE	        M2	2	16	E4	press
798.696	n/a	RESPONSE	        M2	2	14	D4	release
799.053	n/a	RESPONSE	        M2	2	12	C4	press
799.113	n/a	RESPONSE	        M2	2	16	E4	release
799.353	n/a	RESPONSE	        M2	2	12	C4	release
799.747	n/a	RESPONSE	        M2	2	12	C4	press
799.987	n/a	RESPONSE	        M2	2	14	D4	press
800.076	n/a	RESPONSE	        M2	2	12	C4	release
800.298	n/a	RESPONSE	        M2	2	16	E4	press
800.347	n/a	RESPONSE	        M2	2	14	D4	release
800.628	n/a	RESPONSE	        M2	2	14	D4	press
800.659	n/a	RESPONSE	        M2	2	16	E4	release
800.954	n/a	RESPONSE	        M2	2	17	F4	press
801.006	n/a	RESPONSE	        M2	2	14	D4	release
801.327	n/a	RESPONSE	        M2	2	17	F4	release
801.578	n/a	RESPONSE	        M2	2	12	C4	press
801.779	n/a	RESPONSE	        M2	2	14	D4	press
801.87	n/a	RESPONSE	        M2	2	12	C4	release
802.033	n/a	RESPONSE	        M2	2	16	E4	press
802.076	n/a	RESPONSE	        M2	2	14	D4	release
802.384	n/a	RESPONSE	        M2	2	14	D4	press
802.408	n/a	RESPONSE	        M2	2	16	E4	release
802.452	7.758	FIXCROSS	n/a	n/a	n/a	n/a	n/a
802.947	n/a	RESPONSE	        M2	2	16	E4	press
803.0	n/a	RESPONSE	        M2	2	14	D4	release
803.44	n/a	RESPONSE	        M2	2	18	F#4	press
803.47	n/a	RESPONSE	        M2	2	16	E4	release
803.834	n/a	RESPONSE	        M2	2	18	F#4	release
804.413	n/a	RESPONSE	        M2	2	19	G4	press
804.686	n/a	RESPONSE	        M2	2	21	A4	press
804.756	n/a	RESPONSE	        M2	2	19	G4	release
805.207	n/a	RESPONSE	        M2	2	21	A4	release
810.21	6.317	CUE_LISTEN	        M8	1	n/a	n/a	n/a
816.527	7.758	FIXCROSS	n/a	n/a	n/a	n/a	n/a
824.285	6.325	CUE_PLAYBACK_RIGHT_HAND	        M8	1	n/a	n/a	n/a
824.662	n/a	RESPONSE	        M8	1	16	E4	press
824.933	n/a	RESPONSE	        M8	1	19	G4	press
825.004	n/a	RESPONSE	        M8	1	16	E4	release
825.236	n/a	RESPONSE	        M8	1	23	B4	press
825.247	n/a	RESPONSE	        M8	1	19	G4	release
825.48	n/a	RESPONSE	        M8	1	23	B4	release
825.749	n/a	RESPONSE	        M8	1	23	B4	press
826.26	n/a	RESPONSE	        M8	1	18	F#4	press
826.292	n/a	RESPONSE	        M8	1	23	B4	release
826.763	n/a	RESPONSE	        M8	1	18	F#4	release
826.766	n/a	RESPONSE	        M8	1	21	A4	press
827.834	n/a	RESPONSE	        M8	1	23	B4	press
827.837	n/a	RESPONSE	        M8	1	21	A4	release
828.559	n/a	RESPONSE	        M8	1	21	A4	press
828.562	n/a	RESPONSE	        M8	1	23	B4	release
828.817	n/a	RESPONSE	        M8	1	19	G4	press
828.867	n/a	RESPONSE	        M8	1	21	A4	release
829.069	n/a	RESPONSE	        M8	1	18	F#4	press
829.116	n/a	RESPONSE	        M8	1	19	G4	release
829.323	n/a	RESPONSE	        M8	1	18	F#4	release
829.326	n/a	RESPONSE	        M8	1	16	E4	press
829.83	n/a	RESPONSE	        M8	1	16	E4	release
829.848	n/a	RESPONSE	        M8	1	23	B4	press
830.61	7.758	FIXCROSS	n/a	n/a	n/a	n/a	n/a
830.866	n/a	RESPONSE	        M8	1	23	B4	release
838.368	6.317	CUE_LISTEN	        M8	2	n/a	n/a	n/a
844.685	7.758	FIXCROSS	n/a	n/a	n/a	n/a	n/a
852.443	6.325	CUE_PLAYBACK_RIGHT_HAND	        M8	2	n/a	n/a	n/a
852.916	n/a	RESPONSE	        M8	2	16	E4	press
853.167	n/a	RESPONSE	        M8	2	19	G4	press
853.236	n/a	RESPONSE	        M8	2	16	E4	release
853.457	n/a	RESPONSE	        M8	2	23	B4	press
853.48	n/a	RESPONSE	        M8	2	19	G4	release
853.739	n/a	RESPONSE	        M8	2	23	B4	release
853.99	n/a	RESPONSE	        M8	2	23	B4	press
854.582	n/a	RESPONSE	        M8	2	18	F#4	press
854.613	n/a	RESPONSE	        M8	2	23	B4	release
855.117	n/a	RESPONSE	        M8	2	21	A4	press
855.136	n/a	RESPONSE	        M8	2	18	F#4	release
855.987	n/a	RESPONSE	        M8	2	21	A4	release
856.258	n/a	RESPONSE	        M8	2	23	B4	press
856.999	n/a	RESPONSE	        M8	2	21	A4	press
857.04	n/a	RESPONSE	        M8	2	23	B4	release
857.252	n/a	RESPONSE	        M8	2	19	G4	press
857.304	n/a	RESPONSE	        M8	2	21	A4	release
857.49	n/a	RESPONSE	        M8	2	18	F#4	press
857.53	n/a	RESPONSE	        M8	2	19	G4	release
857.758	n/a	RESPONSE	        M8	2	19	G4	press
857.786	n/a	RESPONSE	        M8	2	18	F#4	release
858.25	n/a	RESPONSE	        M8	2	16	E4	press
858.269	n/a	RESPONSE	        M8	2	19	G4	release
858.768	7.758	FIXCROSS	n/a	n/a	n/a	n/a	n/a
859.31	n/a	RESPONSE	        M8	2	16	E4	release
866.527	6.317	CUE_LISTEN	        M6	1	n/a	n/a	n/a
872.843	7.758	FIXCROSS	n/a	n/a	n/a	n/a	n/a
880.602	6.317	CUE_PLAYBACK_BOTH_HANDS	        M6	1	n/a	n/a	n/a
881.298	n/a	RESPONSE	        M6	1	12	C4	press
881.3	n/a	RESPONSE	        M6	1	05	F3	press
881.303	n/a	RESPONSE	        M6	1	09	A3	press
881.702	n/a	RESPONSE	        M6	1	17	F4	press
882.083	n/a	RESPONSE	        M6	1	21	A4	press
882.104	n/a	RESPONSE	        M6	1	17	F4	release
882.426	n/a	RESPONSE	        M6	1	19	G4	press
882.467	n/a	RESPONSE	        M6	1	21	A4	release
882.79	n/a	RESPONSE	        M6	1	17	F4	press
882.832	n/a	RESPONSE	        M6	1	19	G4	release
883.2	n/a	RESPONSE	        M6	1	17	F4	release
883.352	n/a	RESPONSE	        M6	1	16	E4	press
883.733	n/a	RESPONSE	        M6	1	17	F4	press
883.754	n/a	RESPONSE	        M6	1	16	E4	release
884.087	n/a	RESPONSE	        M6	1	09	A3	release
884.117	n/a	RESPONSE	        M6	1	05	F3	release
884.119	n/a	RESPONSE	        M6	1	12	C4	release
884.519	n/a	RESPONSE	        M6	1	05	F3	press
884.523	n/a	RESPONSE	        M6	1	12	C4	press
884.552	n/a	RESPONSE	        M6	1	09	A3	press
884.606	n/a	RESPONSE	        M6	1	17	F4	release
884.936	n/a	RESPONSE	        M6	1	17	F4	press
885.316	n/a	RESPONSE	        M6	1	21	A4	press
885.327	n/a	RESPONSE	        M6	1	17	F4	release
885.648	n/a	RESPONSE	        M6	1	19	G4	press
885.679	n/a	RESPONSE	        M6	1	21	A4	release
886.032	n/a	RESPONSE	        M6	1	17	F4	press
886.064	n/a	RESPONSE	        M6	1	19	G4	release
886.383	n/a	RESPONSE	        M6	1	16	E4	press
886.406	n/a	RESPONSE	        M6	1	17	F4	release
886.736	n/a	RESPONSE	        M6	1	17	F4	press
886.757	n/a	RESPONSE	        M6	1	16	E4	release
886.918	7.758	FIXCROSS	n/a	n/a	n/a	n/a	n/a
887.468	n/a	RESPONSE	        M6	1	12	C4	release
887.49	n/a	RESPONSE	        M6	1	09	A3	release
887.5	n/a	RESPONSE	        M6	1	17	F4	release
887.556	n/a	RESPONSE	        M6	1	05	F3	release
894.677	6.317	CUE_LISTEN	        M6	2	n/a	n/a	n/a
900.994	7.758	FIXCROSS	n/a	n/a	n/a	n/a	n/a
908.752	295.528	CUE_PLAYBACK_BOTH_HANDS	        M6	2	n/a	n/a	n/a
909.392	n/a	RESPONSE	        M6	2	05	F3	press
909.394	n/a	RESPONSE	        M6	2	12	C4	press
909.42	n/a	RESPONSE	        M6	2	09	A3	press
909.822	n/a	RESPONSE	        M6	2	17	F4	press
910.227	n/a	RESPONSE	        M6	2	21	A4	press
910.257	n/a	RESPONSE	        M6	2	20	G#4	press
910.259	n/a	RESPONSE	        M6	2	17	F4	release
910.345	n/a	RESPONSE	        M6	2	20	G#4	release
910.638	n/a	RESPONSE	        M6	2	23	B4	press
910.674	n/a	RESPONSE	        M6	2	21	A4	release
910.718	n/a	RESPONSE	        M6	2	09	A3	release
910.732	n/a	RESPONSE	        M6	2	05	F3	release
910.798	n/a	RESPONSE	        M6	2	12	C4	release
911.134	n/a	RESPONSE	        M6	2	23	B4	release
911.213	n/a	RESPONSE	        M6	2	24	C5	press
911.694	n/a	RESPONSE	        M6	2	04	E3	press
911.718	n/a	RESPONSE	        M6	2	07	G3	press
911.739	n/a	RESPONSE	        M6	2	22	A#4	press
911.758	n/a	RESPONSE	        M6	2	12	C4	press
911.999	n/a	RESPONSE	        M6	2	24	C5	release
912.192	n/a	RESPONSE	        M6	2	21	A4	press
912.272	n/a	RESPONSE	        M6	2	22	A#4	release
912.603	n/a	RESPONSE	        M6	2	19	G4	press
912.634	n/a	RESPONSE	        M6	2	21	A4	release
913.007	n/a	RESPONSE	        M6	2	07	G3	release
913.027	n/a	RESPONSE	        M6	2	12	C4	release
913.058	n/a	RESPONSE	        M6	2	04	E3	release
913.246	n/a	FIXCROSS	n/a	n/a	n/a	n/a	n/a
913.519	n/a	RESPONSE	        M6	2	19	G4	release
913.53	n/a	RESPONSE	        M6	2	04	E3	press
913.552	n/a	RESPONSE	        M6	2	12	C4	press
913.573	n/a	RESPONSE	        M6	2	07	G3	press
913.904	n/a	RESPONSE	        M6	2	07	G3	release
913.917	n/a	RESPONSE	        M6	2	12	C4	release
913.937	n/a	RESPONSE	        M6	2	04	E3	release
913.988	n/a	RESPONSE	        M6	2	04	E3	press
914.009	n/a	RESPONSE	        M6	2	12	C4	press
914.02	n/a	RESPONSE	        M6	2	07	G3	press
914.412	n/a	RESPONSE	        M6	2	17	F4	press
914.803	n/a	RESPONSE	        M6	2	17	F4	release
915.964	n/a	RESPONSE	        M6	2	17	F4	press
916.236	n/a	RESPONSE	        M6	2	19	G4	press
916.317	n/a	RESPONSE	        M6	2	17	F4	release
916.32	n/a	RESPONSE	        M6	2	19	G4	release
916.422	n/a	RESPONSE	        M6	2	19	G4	press
916.71	n/a	RESPONSE	        M6	2	21	A4	press
916.714	n/a	RESPONSE	        M6	2	19	G4	release
916.913	n/a	RESPONSE	        M6	2	07	G3	release
916.937	n/a	RESPONSE	        M6	2	04	E3	release
917.136	n/a	RESPONSE	        M6	2	12	C4	release
917.227	n/a	RESPONSE	        M6	2	19	G4	press
917.248	n/a	RESPONSE	        M6	2	05	F3	press
917.252	n/a	RESPONSE	        M6	2	09	A3	press
917.26	n/a	RESPONSE	        M6	2	12	C4	press
917.283	n/a	RESPONSE	        M6	2	21	A4	release
917.539	n/a	RESPONSE	        M6	2	17	F4	press
917.587	n/a	RESPONSE	        M6	2	19	G4	release
917.783	n/a	RESPONSE	        M6	2	17	F4	release
917.799	n/a	RESPONSE	        M6	2	14	D4	press
917.908	n/a	RESPONSE	        M6	2	09	A3	release
917.91	n/a	RESPONSE	        M6	2	12	C4	release
917.913	n/a	RESPONSE	        M6	2	05	F3	release
917.935	n/a	RESPONSE	        M6	2	14	D4	release
