onset	duration	trial_type	trial_number	stroop_condition	stim_text(PL)	stim_text(eng)	stim_color(PL)	stim_color(eng)	response_type	response_color
0.0	n/a	RESPONSE	n/a	n/a	n/a	n/a	n/a	n/a	n/a	n/a
0.0225	1.0166	ITI	n/a	n/a	n/a	n/a	n/a	n/a	n/a	n/a
1.0392	0.5	FIXCROSS	n/a	n/a	n/a	n/a	n/a	n/a	n/a	n/a
1.5392	1.7666	T_INK	1	Neutral	xxxxxxx	xxxxxxx	żółty	yellow	hit	n/a
3.2937	n/a	RESPONSE	n/a	n/a	n/a	n/a	n/a	n/a	n/a	yellow
3.3058	0.5	FEEDBACK	n/a	n/a	n/a	n/a	n/a	n/a	n/a	n/a
3.8058	1.0	ITI	n/a	n/a	n/a	n/a	n/a	n/a	n/a	n/a
4.8058	0.5	FIXCROSS	n/a	n/a	n/a	n/a	n/a	n/a	n/a	n/a
5.3058	1.4666	T_INK	2	Incongruent	czerwony	red	zielony	green	hit	n/a
6.7631	n/a	RESPONSE	n/a	n/a	n/a	n/a	n/a	n/a	n/a	green
6.7724	0.5	FEEDBACK	n/a	n/a	n/a	n/a	n/a	n/a	n/a	n/a
7.2724	1.0	ITI	n/a	n/a	n/a	n/a	n/a	n/a	n/a	n/a
8.2724	0.5	FIXCROSS	n/a	n/a	n/a	n/a	n/a	n/a	n/a	n/a
8.7724	0.9667	T_INK	3	Incongruent	zielony	green	czerwony	red	hit	n/a
9.721	n/a	RESPONSE	n/a	n/a	n/a	n/a	n/a	n/a	n/a	red
9.739	0.5	FEEDBACK	n/a	n/a	n/a	n/a	n/a	n/a	n/a	n/a
10.239	1.0	ITI	n/a	n/a	n/a	n/a	n/a	n/a	n/a	n/a
11.239	0.5	FIXCROSS	n/a	n/a	n/a	n/a	n/a	n/a	n/a	n/a
11.739	0.9166	T_INK	4	Neutral	xxxxx	xxxxx	czerwony	red	hit	n/a
12.6468	n/a	RESPONSE	n/a	n/a	n/a	n/a	n/a	n/a	n/a	red
12.6556	0.5	FEEDBACK	n/a	n/a	n/a	n/a	n/a	n/a	n/a	n/a
13.1556	1.0	ITI	n/a	n/a	n/a	n/a	n/a	n/a	n/a	n/a
14.1556	0.5	FIXCROSS	n/a	n/a	n/a	n/a	n/a	n/a	n/a	n/a
14.6556	1.0	T_INK	5	Incongruent	czerwony	red	żółty	yellow	hit	n/a
15.6368	n/a	RESPONSE	n/a	n/a	n/a	n/a	n/a	n/a	n/a	yellow
15.6555	0.5	FEEDBACK	n/a	n/a	n/a	n/a	n/a	n/a	n/a	n/a
16.1555	1.0	ITI	n/a	n/a	n/a	n/a	n/a	n/a	n/a	n/a
17.1555	0.5	FIXCROSS	n/a	n/a	n/a	n/a	n/a	n/a	n/a	n/a
17.6555	0.8667	T_INK	6	Neutral	xxxxxxxx	xxxxxxxx	niebieski	blue	hit	n/a
18.5146	n/a	RESPONSE	n/a	n/a	n/a	n/a	n/a	n/a	n/a	blue
18.5222	0.5	FEEDBACK	n/a	n/a	n/a	n/a	n/a	n/a	n/a	n/a
19.0221	1.0	ITI	n/a	n/a	n/a	n/a	n/a	n/a	n/a	n/a
20.0221	0.5	FIXCROSS	n/a	n/a	n/a	n/a	n/a	n/a	n/a	n/a
20.5221	0.8333	T_INK	7	Neutral	xxxxx	xxxxx	niebieski	blue	hit	n/a
21.3447	n/a	RESPONSE	n/a	n/a	n/a	n/a	n/a	n/a	n/a	blue
21.3554	0.5	FEEDBACK	n/a	n/a	n/a	n/a	n/a	n/a	n/a	n/a
21.8554	1.0	ITI	n/a	n/a	n/a	n/a	n/a	n/a	n/a	n/a
22.8554	0.5	FIXCROSS	n/a	n/a	n/a	n/a	n/a	n/a	n/a	n/a
23.3554	0.7667	T_INK	8	Incongruent	niebieski	blue	zielony	green	hit	n/a
24.1106	n/a	RESPONSE	n/a	n/a	n/a	n/a	n/a	n/a	n/a	green
24.122	0.5	FEEDBACK	n/a	n/a	n/a	n/a	n/a	n/a	n/a	n/a
24.622	1.0	ITI	n/a	n/a	n/a	n/a	n/a	n/a	n/a	n/a
25.622	0.5	FIXCROSS	n/a	n/a	n/a	n/a	n/a	n/a	n/a	n/a
26.122	0.8833	T_INK	9	Neutral	xxxxxxxxx	xxxxxxxxx	żółty	yellow	hit	n/a
26.9886	n/a	RESPONSE	n/a	n/a	n/a	n/a	n/a	n/a	n/a	yellow
27.0053	0.5	FEEDBACK	n/a	n/a	n/a	n/a	n/a	n/a	n/a	n/a
27.5053	1.0	ITI	n/a	n/a	n/a	n/a	n/a	n/a	n/a	n/a
28.5053	0.5	FIXCROSS	n/a	n/a	n/a	n/a	n/a	n/a	n/a	n/a
29.0053	0.9666	T_INK	10	Neutral	xxxxxxx	xxxxxxx	niebieski	blue	hit	n/a
29.9624	n/a	RESPONSE	n/a	n/a	n/a	n/a	n/a	n/a	n/a	blue
29.9719	0.5	FEEDBACK	n/a	n/a	n/a	n/a	n/a	n/a	n/a	n/a
30.4719	1.0	ITI	n/a	n/a	n/a	n/a	n/a	n/a	n/a	n/a
31.4719	0.5	FIXCROSS	n/a	n/a	n/a	n/a	n/a	n/a	n/a	n/a
31.9719	1.1833	T_INK	11	Incongruent	niebieski	blue	żółty	yellow	hit	n/a
33.1442	n/a	RESPONSE	n/a	n/a	n/a	n/a	n/a	n/a	n/a	yellow
33.1552	0.5	FEEDBACK	n/a	n/a	n/a	n/a	n/a	n/a	n/a	n/a
33.6552	1.0	ITI	n/a	n/a	n/a	n/a	n/a	n/a	n/a	n/a
34.6552	0.5	FIXCROSS	n/a	n/a	n/a	n/a	n/a	n/a	n/a	n/a
35.1551	0.9333	T_INK	12	Neutral	xxxxxxx	xxxxxxx	czerwony	red	hit	n/a
36.0701	n/a	RESPONSE	n/a	n/a	n/a	n/a	n/a	n/a	n/a	red
36.0885	0.5	FEEDBACK	n/a	n/a	n/a	n/a	n/a	n/a	n/a	n/a
36.5885	1.0	ITI	n/a	n/a	n/a	n/a	n/a	n/a	n/a	n/a
42.5295	n/a	RESPONSE	n/a	n/a	n/a	n/a	n/a	n/a	n/a	n/a
42.555	1.0	ITI	n/a	n/a	n/a	n/a	n/a	n/a	n/a	n/a
43.555	0.5	FIXCROSS	n/a	n/a	n/a	n/a	n/a	n/a	n/a	n/a
44.055	1.4333	INK	1	Incongruent	czerwony	red	zielony	green	hit	n/a
45.4715	n/a	RESPONSE	n/a	n/a	n/a	n/a	n/a	n/a	n/a	green
45.4883	1.0	ITI	n/a	n/a	n/a	n/a	n/a	n/a	n/a	n/a
46.4883	0.5	FIXCROSS	n/a	n/a	n/a	n/a	n/a	n/a	n/a	n/a
46.9882	0.8166	INK	2	Neutral	xxxxxxx	xxxxxxx	niebieski	blue	hit	n/a
47.7896	n/a	RESPONSE	n/a	n/a	n/a	n/a	n/a	n/a	n/a	blue
47.8049	1.0	ITI	n/a	n/a	n/a	n/a	n/a	n/a	n/a	n/a
48.8049	0.5	FIXCROSS	n/a	n/a	n/a	n/a	n/a	n/a	n/a	n/a
49.3049	0.5833	INK	3	Neutral	xxxxxxxxx	xxxxxxxxx	żółty	yellow	hit	n/a
49.8842	n/a	RESPONSE	n/a	n/a	n/a	n/a	n/a	n/a	n/a	yellow
49.8882	1.0	ITI	n/a	n/a	n/a	n/a	n/a	n/a	n/a	n/a
50.8881	0.5	FIXCROSS	n/a	n/a	n/a	n/a	n/a	n/a	n/a	n/a
51.3882	0.85	INK	4	Incongruent	czerwony	red	żółty	yellow	hit	n/a
52.2345	n/a	RESPONSE	n/a	n/a	n/a	n/a	n/a	n/a	n/a	yellow
52.2381	1.0	ITI	n/a	n/a	n/a	n/a	n/a	n/a	n/a	n/a
53.2381	0.5	FIXCROSS	n/a	n/a	n/a	n/a	n/a	n/a	n/a	n/a
53.7381	0.6333	INK	5	Incongruent	niebieski	blue	żółty	yellow	hit	n/a
54.361	n/a	RESPONSE	n/a	n/a	n/a	n/a	n/a	n/a	n/a	yellow
54.3714	1.0	ITI	n/a	n/a	n/a	n/a	n/a	n/a	n/a	n/a
55.3714	0.5	FIXCROSS	n/a	n/a	n/a	n/a	n/a	n/a	n/a	n/a
55.8714	0.9	INK	6	Incongruent	czerwony	red	niebieski	blue	hit	n/a
56.7593	n/a	RESPONSE	n/a	n/a	n/a	n/a	n/a	n/a	n/a	blue
56.7714	1.0166	ITI	n/a	n/a	n/a	n/a	n/a	n/a	n/a	n/a
57.788	0.5	FIXCROSS	n/a	n/a	n/a	n/a	n/a	n/a	n/a	n/a
58.288	0.8333	INK	7	Incongruent	żółty	yellow	zielony	green	hit	n/a
59.1097	n/a	RESPONSE	n/a	n/a	n/a	n/a	n/a	n/a	n/a	green
59.1213	1.0	ITI	n/a	n/a	n/a	n/a	n/a	n/a	n/a	n/a
60.1213	0.5	FIXCROSS	n/a	n/a	n/a	n/a	n/a	n/a	n/a	n/a
60.6213	0.6	INK	8	Neutral	xxxxxxx	xxxxxxx	czerwony	red	hit	n/a
61.2042	n/a	RESPONSE	n/a	n/a	n/a	n/a	n/a	n/a	n/a	red
61.2213	1.0	ITI	n/a	n/a	n/a	n/a	n/a	n/a	n/a	n/a
62.2213	0.5	FIXCROSS	n/a	n/a	n/a	n/a	n/a	n/a	n/a	n/a
62.7213	1.1166	INK	9	Incongruent	czerwony	red	niebieski	blue	hit	n/a
63.8263	n/a	RESPONSE	n/a	n/a	n/a	n/a	n/a	n/a	n/a	blue
63.8379	1.0	ITI	n/a	n/a	n/a	n/a	n/a	n/a	n/a	n/a
64.8379	0.5	FIXCROSS	n/a	n/a	n/a	n/a	n/a	n/a	n/a	n/a
65.3379	0.8	INK	10	Neutral	xxxxxxx	xxxxxxx	niebieski	blue	hit	n/a
66.1287	n/a	RESPONSE	n/a	n/a	n/a	n/a	n/a	n/a	n/a	blue
66.1379	1.0	ITI	n/a	n/a	n/a	n/a	n/a	n/a	n/a	n/a
67.1378	0.5	FIXCROSS	n/a	n/a	n/a	n/a	n/a	n/a	n/a	n/a
67.6378	0.85	INK	11	Neutral	xxxxxxxx	xxxxxxxx	zielony	green	hit	n/a
68.4788	n/a	RESPONSE	n/a	n/a	n/a	n/a	n/a	n/a	n/a	green
68.4878	1.0	ITI	n/a	n/a	n/a	n/a	n/a	n/a	n/a	n/a
69.4878	0.5	FIXCROSS	n/a	n/a	n/a	n/a	n/a	n/a	n/a	n/a
69.9878	0.6667	INK	12	Incongruent	zielony	green	żółty	yellow	hit	n/a
70.6373	n/a	RESPONSE	n/a	n/a	n/a	n/a	n/a	n/a	n/a	yellow
70.6544	1.0	ITI	n/a	n/a	n/a	n/a	n/a	n/a	n/a	n/a
71.6544	0.5	FIXCROSS	n/a	n/a	n/a	n/a	n/a	n/a	n/a	n/a
72.1544	0.85	INK	13	Neutral	xxxxxxxxx	xxxxxxxxx	zielony	green	hit	n/a
72.9877	n/a	RESPONSE	n/a	n/a	n/a	n/a	n/a	n/a	n/a	green
73.0044	1.0	ITI	n/a	n/a	n/a	n/a	n/a	n/a	n/a	n/a
74.0044	0.5	FIXCROSS	n/a	n/a	n/a	n/a	n/a	n/a	n/a	n/a
74.5044	0.8167	INK	14	Neutral	xxxxxxxxx	xxxxxxxxx	zielony	green	hit	n/a
75.306	n/a	RESPONSE	n/a	n/a	n/a	n/a	n/a	n/a	n/a	green
75.321	1.0	ITI	n/a	n/a	n/a	n/a	n/a	n/a	n/a	n/a
76.321	0.5	FIXCROSS	n/a	n/a	n/a	n/a	n/a	n/a	n/a	n/a
76.821	1.3666	INK	15	Neutral	xxxxxxx	xxxxxxx	czerwony	red	hit	n/a
78.1839	n/a	RESPONSE	n/a	n/a	n/a	n/a	n/a	n/a	n/a	red
78.1876	1.0	ITI	n/a	n/a	n/a	n/a	n/a	n/a	n/a	n/a
79.1876	0.5	FIXCROSS	n/a	n/a	n/a	n/a	n/a	n/a	n/a	n/a
79.6876	0.7167	INK	16	Neutral	xxxxxxx	xxxxxxx	żółty	yellow	hit	n/a
80.3903	n/a	RESPONSE	n/a	n/a	n/a	n/a	n/a	n/a	n/a	yellow
80.4042	1.0	ITI	n/a	n/a	n/a	n/a	n/a	n/a	n/a	n/a
81.4042	0.5	FIXCROSS	n/a	n/a	n/a	n/a	n/a	n/a	n/a	n/a
81.9042	0.8333	INK	17	Incongruent	zielony	green	niebieski	blue	hit	n/a
82.7246	n/a	RESPONSE	n/a	n/a	n/a	n/a	n/a	n/a	n/a	blue
82.7375	1.0	ITI	n/a	n/a	n/a	n/a	n/a	n/a	n/a	n/a
83.7375	0.5	FIXCROSS	n/a	n/a	n/a	n/a	n/a	n/a	n/a	n/a
84.2375	0.8666	INK	18	Incongruent	zielony	green	czerwony	red	hit	n/a
85.091	n/a	RESPONSE	n/a	n/a	n/a	n/a	n/a	n/a	n/a	red
85.1041	1.0	ITI	n/a	n/a	n/a	n/a	n/a	n/a	n/a	n/a
86.1041	0.5	FIXCROSS	n/a	n/a	n/a	n/a	n/a	n/a	n/a	n/a
86.6041	0.8	INK	19	Neutral	xxxxxxxx	xxxxxxxx	żółty	yellow	hit	n/a
87.3933	n/a	RESPONSE	n/a	n/a	n/a	n/a	n/a	n/a	n/a	yellow
87.4041	1.0	ITI	n/a	n/a	n/a	n/a	n/a	n/a	n/a	n/a
88.4041	0.5	FIXCROSS	n/a	n/a	n/a	n/a	n/a	n/a	n/a	n/a
88.9041	0.7333	INK	20	Neutral	xxxxx	xxxxx	czerwony	red	hit	n/a
89.6317	n/a	RESPONSE	n/a	n/a	n/a	n/a	n/a	n/a	n/a	red
89.6374	1.0	ITI	n/a	n/a	n/a	n/a	n/a	n/a	n/a	n/a
90.6374	0.5	FIXCROSS	n/a	n/a	n/a	n/a	n/a	n/a	n/a	n/a
91.1374	0.8833	INK	21	Neutral	xxxxx	xxxxx	zielony	green	hit	n/a
92.0139	n/a	RESPONSE	n/a	n/a	n/a	n/a	n/a	n/a	n/a	green
92.0207	1.0	ITI	n/a	n/a	n/a	n/a	n/a	n/a	n/a	n/a
93.0206	0.5	FIXCROSS	n/a	n/a	n/a	n/a	n/a	n/a	n/a	n/a
93.5207	0.85	INK	22	Incongruent	zielony	green	żółty	yellow	hit	n/a
94.3642	n/a	RESPONSE	n/a	n/a	n/a	n/a	n/a	n/a	n/a	yellow
94.3706	1.0	ITI	n/a	n/a	n/a	n/a	n/a	n/a	n/a	n/a
95.3706	0.5	FIXCROSS	n/a	n/a	n/a	n/a	n/a	n/a	n/a	n/a
95.8706	0.7	INK	23	Neutral	xxxxxxxxx	xxxxxxxxx	żółty	yellow	hit	n/a
96.5548	n/a	RESPONSE	n/a	n/a	n/a	n/a	n/a	n/a	n/a	yellow
96.5706	1.0	ITI	n/a	n/a	n/a	n/a	n/a	n/a	n/a	n/a
97.5706	0.5	FIXCROSS	n/a	n/a	n/a	n/a	n/a	n/a	n/a	n/a
98.0705	0.8833	INK	24	Incongruent	niebieski	blue	czerwony	red	hit	n/a
98.937	n/a	RESPONSE	n/a	n/a	n/a	n/a	n/a	n/a	n/a	red
98.9539	1.0	ITI	n/a	n/a	n/a	n/a	n/a	n/a	n/a	n/a
99.9538	0.5	FIXCROSS	n/a	n/a	n/a	n/a	n/a	n/a	n/a	n/a
100.4538	0.9667	INK	25	Incongruent	zielony	green	niebieski	blue	hit	n/a
101.4152	n/a	RESPONSE	n/a	n/a	n/a	n/a	n/a	n/a	n/a	blue
101.4205	1.0	ITI	n/a	n/a	n/a	n/a	n/a	n/a	n/a	n/a
102.4205	0.5	FIXCROSS	n/a	n/a	n/a	n/a	n/a	n/a	n/a	n/a
102.9205	0.8333	INK	26	Neutral	xxxxxxx	xxxxxxx	żółty	yellow	hit	n/a
103.7495	n/a	RESPONSE	n/a	n/a	n/a	n/a	n/a	n/a	n/a	yellow
103.7538	1.0	ITI	n/a	n/a	n/a	n/a	n/a	n/a	n/a	n/a
104.7537	0.5	FIXCROSS	n/a	n/a	n/a	n/a	n/a	n/a	n/a	n/a
105.2537	0.8666	INK	27	Neutral	xxxxxxxxx	xxxxxxxxx	czerwony	red	hit	n/a
106.1159	n/a	RESPONSE	n/a	n/a	n/a	n/a	n/a	n/a	n/a	red
106.1204	1.0	ITI	n/a	n/a	n/a	n/a	n/a	n/a	n/a	n/a
107.1204	0.5	FIXCROSS	n/a	n/a	n/a	n/a	n/a	n/a	n/a	n/a
107.6204	0.75	INK	28	Neutral	xxxxx	xxxxx	czerwony	red	hit	n/a
108.3542	n/a	RESPONSE	n/a	n/a	n/a	n/a	n/a	n/a	n/a	red
108.3703	1.0	ITI	n/a	n/a	n/a	n/a	n/a	n/a	n/a	n/a
109.3703	0.5	FIXCROSS	n/a	n/a	n/a	n/a	n/a	n/a	n/a	n/a
109.8703	0.7167	INK	29	Incongruent	czerwony	red	żółty	yellow	hit	n/a
110.5768	n/a	RESPONSE	n/a	n/a	n/a	n/a	n/a	n/a	n/a	yellow
110.587	1.0	ITI	n/a	n/a	n/a	n/a	n/a	n/a	n/a	n/a
111.5869	0.5	FIXCROSS	n/a	n/a	n/a	n/a	n/a	n/a	n/a	n/a
112.0869	0.8333	INK	30	Incongruent	niebieski	blue	zielony	green	hit	n/a
112.9111	n/a	RESPONSE	n/a	n/a	n/a	n/a	n/a	n/a	n/a	green
112.9203	1.0	ITI	n/a	n/a	n/a	n/a	n/a	n/a	n/a	n/a
113.9202	0.5	FIXCROSS	n/a	n/a	n/a	n/a	n/a	n/a	n/a	n/a
114.4202	1.0	INK	31	Neutral	xxxxx	xxxxx	niebieski	blue	hit	n/a
115.4052	n/a	RESPONSE	n/a	n/a	n/a	n/a	n/a	n/a	n/a	blue
115.4202	1.0	ITI	n/a	n/a	n/a	n/a	n/a	n/a	n/a	n/a
116.4202	0.5	FIXCROSS	n/a	n/a	n/a	n/a	n/a	n/a	n/a	n/a
116.9202	1.2333	INK	32	Incongruent	żółty	yellow	czerwony	red	hit	n/a
118.1393	n/a	RESPONSE	n/a	n/a	n/a	n/a	n/a	n/a	n/a	red
118.1535	1.0	ITI	n/a	n/a	n/a	n/a	n/a	n/a	n/a	n/a
119.1535	0.5	FIXCROSS	n/a	n/a	n/a	n/a	n/a	n/a	n/a	n/a
119.6534	0.9833	INK	33	Incongruent	czerwony	red	niebieski	blue	hit	n/a
120.6176	n/a	RESPONSE	n/a	n/a	n/a	n/a	n/a	n/a	n/a	blue
120.6368	1.0	ITI	n/a	n/a	n/a	n/a	n/a	n/a	n/a	n/a
121.6368	0.5	FIXCROSS	n/a	n/a	n/a	n/a	n/a	n/a	n/a	n/a
122.1367	0.9333	INK	34	Incongruent	niebieski	blue	czerwony	red	hit	n/a
123.0637	n/a	RESPONSE	n/a	n/a	n/a	n/a	n/a	n/a	n/a	red
123.0701	1.0	ITI	n/a	n/a	n/a	n/a	n/a	n/a	n/a	n/a
124.07	0.5	FIXCROSS	n/a	n/a	n/a	n/a	n/a	n/a	n/a	n/a
124.57	0.75	INK	35	Incongruent	niebieski	blue	żółty	yellow	hit	n/a
125.3021	n/a	RESPONSE	n/a	n/a	n/a	n/a	n/a	n/a	n/a	yellow
125.32	1.0	ITI	n/a	n/a	n/a	n/a	n/a	n/a	n/a	n/a
126.32	0.5	FIXCROSS	n/a	n/a	n/a	n/a	n/a	n/a	n/a	n/a
126.82	0.9166	INK	36	Neutral	xxxxxxxxx	xxxxxxxxx	czerwony	red	hit	n/a
127.7324	n/a	RESPONSE	n/a	n/a	n/a	n/a	n/a	n/a	n/a	red
127.7366	1.0	ITI	n/a	n/a	n/a	n/a	n/a	n/a	n/a	n/a
128.7366	0.5	FIXCROSS	n/a	n/a	n/a	n/a	n/a	n/a	n/a	n/a
129.2366	1.0167	INK	37	Incongruent	niebieski	blue	zielony	green	hit	n/a
130.2426	n/a	RESPONSE	n/a	n/a	n/a	n/a	n/a	n/a	n/a	green
130.2532	1.0	ITI	n/a	n/a	n/a	n/a	n/a	n/a	n/a	n/a
131.2532	0.5	FIXCROSS	n/a	n/a	n/a	n/a	n/a	n/a	n/a	n/a
131.7532	0.85	INK	38	Neutral	xxxxxxx	xxxxxxx	czerwony	red	hit	n/a
132.5929	n/a	RESPONSE	n/a	n/a	n/a	n/a	n/a	n/a	n/a	red
132.6032	1.0	ITI	n/a	n/a	n/a	n/a	n/a	n/a	n/a	n/a
133.6032	0.5	FIXCROSS	n/a	n/a	n/a	n/a	n/a	n/a	n/a	n/a
134.1032	0.6833	INK	39	Incongruent	zielony	green	żółty	yellow	hit	n/a
134.7834	n/a	RESPONSE	n/a	n/a	n/a	n/a	n/a	n/a	n/a	yellow
134.7865	1.0	ITI	n/a	n/a	n/a	n/a	n/a	n/a	n/a	n/a
135.7865	0.5	FIXCROSS	n/a	n/a	n/a	n/a	n/a	n/a	n/a	n/a
136.2865	0.85	INK	40	Neutral	xxxxx	xxxxx	czerwony	red	hit	n/a
137.1336	n/a	RESPONSE	n/a	n/a	n/a	n/a	n/a	n/a	n/a	red
137.1364	1.0	ITI	n/a	n/a	n/a	n/a	n/a	n/a	n/a	n/a
138.1364	0.5	FIXCROSS	n/a	n/a	n/a	n/a	n/a	n/a	n/a	n/a
138.6364	0.9	INK	41	Incongruent	żółty	yellow	zielony	green	hit	n/a
139.532	n/a	RESPONSE	n/a	n/a	n/a	n/a	n/a	n/a	n/a	green
139.5364	1.0	ITI	n/a	n/a	n/a	n/a	n/a	n/a	n/a	n/a
140.5364	0.5	FIXCROSS	n/a	n/a	n/a	n/a	n/a	n/a	n/a	n/a
141.0363	0.6833	INK	42	Neutral	xxxxxxxx	xxxxxxxx	żółty	yellow	hit	n/a
141.7065	n/a	RESPONSE	n/a	n/a	n/a	n/a	n/a	n/a	n/a	yellow
141.7197	1.0	ITI	n/a	n/a	n/a	n/a	n/a	n/a	n/a	n/a
142.7196	0.5	FIXCROSS	n/a	n/a	n/a	n/a	n/a	n/a	n/a	n/a
143.2196	0.7167	INK	43	Incongruent	czerwony	red	żółty	yellow	hit	n/a
143.9289	n/a	RESPONSE	n/a	n/a	n/a	n/a	n/a	n/a	n/a	yellow
143.9363	1.0	ITI	n/a	n/a	n/a	n/a	n/a	n/a	n/a	n/a
144.9363	0.5	FIXCROSS	n/a	n/a	n/a	n/a	n/a	n/a	n/a	n/a
145.4363	0.9666	INK	44	Neutral	xxxxx	xxxxx	niebieski	blue	hit	n/a
146.3909	n/a	RESPONSE	n/a	n/a	n/a	n/a	n/a	n/a	n/a	blue
146.4029	1.0	ITI	n/a	n/a	n/a	n/a	n/a	n/a	n/a	n/a
147.4029	0.5	FIXCROSS	n/a	n/a	n/a	n/a	n/a	n/a	n/a	n/a
147.9029	0.9666	INK	45	Incongruent	niebieski	blue	zielony	green	hit	n/a
148.8533	n/a	RESPONSE	n/a	n/a	n/a	n/a	n/a	n/a	n/a	green
148.8695	1.0	ITI	n/a	n/a	n/a	n/a	n/a	n/a	n/a	n/a
149.8695	0.5	FIXCROSS	n/a	n/a	n/a	n/a	n/a	n/a	n/a	n/a
150.3695	1.2333	INK	46	Incongruent	zielony	green	niebieski	blue	hit	n/a
151.5874	n/a	RESPONSE	n/a	n/a	n/a	n/a	n/a	n/a	n/a	blue
151.6028	1.0	ITI	n/a	n/a	n/a	n/a	n/a	n/a	n/a	n/a
152.6028	0.5	FIXCROSS	n/a	n/a	n/a	n/a	n/a	n/a	n/a	n/a
153.1028	0.7667	INK	47	Incongruent	zielony	green	czerwony	red	hit	n/a
153.8576	n/a	RESPONSE	n/a	n/a	n/a	n/a	n/a	n/a	n/a	red
153.8694	1.0	ITI	n/a	n/a	n/a	n/a	n/a	n/a	n/a	n/a
154.8694	0.5	FIXCROSS	n/a	n/a	n/a	n/a	n/a	n/a	n/a	n/a
155.3694	1.0333	INK	48	Neutral	xxxxxxxx	xxxxxxxx	niebieski	blue	hit	n/a
156.3839	n/a	RESPONSE	n/a	n/a	n/a	n/a	n/a	n/a	n/a	blue
156.4027	1.0	ITI	n/a	n/a	n/a	n/a	n/a	n/a	n/a	n/a
157.4027	0.5	FIXCROSS	n/a	n/a	n/a	n/a	n/a	n/a	n/a	n/a
157.9027	0.8166	INK	49	Neutral	xxxxx	xxxxx	zielony	green	hit	n/a
158.7022	n/a	RESPONSE	n/a	n/a	n/a	n/a	n/a	n/a	n/a	green
158.7193	1.0	ITI	n/a	n/a	n/a	n/a	n/a	n/a	n/a	n/a
159.7193	0.5	FIXCROSS	n/a	n/a	n/a	n/a	n/a	n/a	n/a	n/a
160.2193	1.0667	INK	50	Incongruent	żółty	yellow	niebieski	blue	hit	n/a
161.2763	n/a	RESPONSE	n/a	n/a	n/a	n/a	n/a	n/a	n/a	blue
161.286	1.0	ITI	n/a	n/a	n/a	n/a	n/a	n/a	n/a	n/a
162.2859	0.5	FIXCROSS	n/a	n/a	n/a	n/a	n/a	n/a	n/a	n/a
162.7859	0.9667	INK	51	Neutral	xxxxxxxx	xxxxxxxx	niebieski	blue	hit	n/a
163.7385	n/a	RESPONSE	n/a	n/a	n/a	n/a	n/a	n/a	n/a	blue
163.7526	1.0	ITI	n/a	n/a	n/a	n/a	n/a	n/a	n/a	n/a
164.7525	0.5	FIXCROSS	n/a	n/a	n/a	n/a	n/a	n/a	n/a	n/a
165.2525	0.6166	INK	52	Neutral	xxxxxxx	xxxxxxx	żółty	yellow	hit	n/a
165.865	n/a	RESPONSE	n/a	n/a	n/a	n/a	n/a	n/a	n/a	yellow
165.8692	1.0	ITI	n/a	n/a	n/a	n/a	n/a	n/a	n/a	n/a
166.8692	0.5	FIXCROSS	n/a	n/a	n/a	n/a	n/a	n/a	n/a	n/a
167.3692	0.7333	INK	53	Neutral	xxxxx	xxxxx	niebieski	blue	hit	n/a
168.0874	n/a	RESPONSE	n/a	n/a	n/a	n/a	n/a	n/a	n/a	blue
168.1025	1.0	ITI	n/a	n/a	n/a	n/a	n/a	n/a	n/a	n/a
169.1024	0.5	FIXCROSS	n/a	n/a	n/a	n/a	n/a	n/a	n/a	n/a
169.6024	0.6833	INK	54	Neutral	xxxxxxxx	xxxxxxxx	zielony	green	hit	n/a
170.2778	n/a	RESPONSE	n/a	n/a	n/a	n/a	n/a	n/a	n/a	green
170.2858	1.0	ITI	n/a	n/a	n/a	n/a	n/a	n/a	n/a	n/a
171.2857	0.5	FIXCROSS	n/a	n/a	n/a	n/a	n/a	n/a	n/a	n/a
171.7857	0.9333	INK	55	Neutral	xxxxxxxx	xxxxxxxx	niebieski	blue	hit	n/a
172.7082	n/a	RESPONSE	n/a	n/a	n/a	n/a	n/a	n/a	n/a	blue
172.719	1.0	ITI	n/a	n/a	n/a	n/a	n/a	n/a	n/a	n/a
173.719	0.5	FIXCROSS	n/a	n/a	n/a	n/a	n/a	n/a	n/a	n/a
174.219	0.5667	INK	56	Neutral	xxxxxxxx	xxxxxxxx	żółty	yellow	hit	n/a
174.7706	n/a	RESPONSE	n/a	n/a	n/a	n/a	n/a	n/a	n/a	yellow
174.7857	1.0	ITI	n/a	n/a	n/a	n/a	n/a	n/a	n/a	n/a
175.7857	0.5	FIXCROSS	n/a	n/a	n/a	n/a	n/a	n/a	n/a	n/a
176.2856	0.75	INK	57	Neutral	xxxxxxx	xxxxxxx	niebieski	blue	hit	n/a
177.025	n/a	RESPONSE	n/a	n/a	n/a	n/a	n/a	n/a	n/a	blue
177.0356	1.0	ITI	n/a	n/a	n/a	n/a	n/a	n/a	n/a	n/a
178.0356	0.5	FIXCROSS	n/a	n/a	n/a	n/a	n/a	n/a	n/a	n/a
178.5356	0.7333	INK	58	Incongruent	żółty	yellow	czerwony	red	hit	n/a
179.2635	n/a	RESPONSE	n/a	n/a	n/a	n/a	n/a	n/a	n/a	red
179.2689	1.0	ITI	n/a	n/a	n/a	n/a	n/a	n/a	n/a	n/a
180.2689	0.5	FIXCROSS	n/a	n/a	n/a	n/a	n/a	n/a	n/a	n/a
180.7689	0.9	INK	59	Neutral	xxxxxxxxx	xxxxxxxxx	zielony	green	hit	n/a
181.6616	n/a	RESPONSE	n/a	n/a	n/a	n/a	n/a	n/a	n/a	green
181.6689	1.0	ITI	n/a	n/a	n/a	n/a	n/a	n/a	n/a	n/a
182.6688	0.5	FIXCROSS	n/a	n/a	n/a	n/a	n/a	n/a	n/a	n/a
183.1688	0.85	INK	60	Incongruent	czerwony	red	zielony	green	hit	n/a
184.012	n/a	RESPONSE	n/a	n/a	n/a	n/a	n/a	n/a	n/a	green
184.0188	1.0	ITI	n/a	n/a	n/a	n/a	n/a	n/a	n/a	n/a
185.0188	0.5	FIXCROSS	n/a	n/a	n/a	n/a	n/a	n/a	n/a	n/a
185.5188	0.5667	INK	61	Incongruent	niebieski	blue	żółty	yellow	hit	n/a
186.0745	n/a	RESPONSE	n/a	n/a	n/a	n/a	n/a	n/a	n/a	yellow
186.0854	1.0	ITI	n/a	n/a	n/a	n/a	n/a	n/a	n/a	n/a
187.0854	0.5	FIXCROSS	n/a	n/a	n/a	n/a	n/a	n/a	n/a	n/a
187.5854	0.6167	INK	62	Incongruent	niebieski	blue	czerwony	red	hit	n/a
188.1849	n/a	RESPONSE	n/a	n/a	n/a	n/a	n/a	n/a	n/a	red
188.2021	1.0	ITI	n/a	n/a	n/a	n/a	n/a	n/a	n/a	n/a
189.202	0.5	FIXCROSS	n/a	n/a	n/a	n/a	n/a	n/a	n/a	n/a
189.702	0.5333	INK	63	Neutral	xxxxxxxxx	xxxxxxxxx	czerwony	red	hit	n/a
190.2314	n/a	RESPONSE	n/a	n/a	n/a	n/a	n/a	n/a	n/a	red
190.2354	1.0	ITI	n/a	n/a	n/a	n/a	n/a	n/a	n/a	n/a
191.2353	0.5	FIXCROSS	n/a	n/a	n/a	n/a	n/a	n/a	n/a	n/a
191.7353	0.8333	INK	64	Neutral	xxxxxxxx	xxxxxxxx	zielony	green	hit	n/a
192.5497	n/a	RESPONSE	n/a	n/a	n/a	n/a	n/a	n/a	n/a	green
192.5686	1.0	ITI	n/a	n/a	n/a	n/a	n/a	n/a	n/a	n/a
193.5686	0.5	FIXCROSS	n/a	n/a	n/a	n/a	n/a	n/a	n/a	n/a
194.0686	0.5167	INK	65	Neutral	xxxxxxxxx	xxxxxxxxx	żółty	yellow	hit	n/a
194.5801	n/a	RESPONSE	n/a	n/a	n/a	n/a	n/a	n/a	n/a	yellow
194.5853	1.0	ITI	n/a	n/a	n/a	n/a	n/a	n/a	n/a	n/a
195.5853	0.5	FIXCROSS	n/a	n/a	n/a	n/a	n/a	n/a	n/a	n/a
196.0852	0.9	INK	66	Incongruent	żółty	yellow	niebieski	blue	hit	n/a
196.9785	n/a	RESPONSE	n/a	n/a	n/a	n/a	n/a	n/a	n/a	blue
196.9852	1.0	ITI	n/a	n/a	n/a	n/a	n/a	n/a	n/a	n/a
197.9852	0.5	FIXCROSS	n/a	n/a	n/a	n/a	n/a	n/a	n/a	n/a
198.4852	0.6667	INK	67	Incongruent	żółty	yellow	czerwony	red	hit	n/a
199.137	n/a	RESPONSE	n/a	n/a	n/a	n/a	n/a	n/a	n/a	red
199.1519	1.0	ITI	n/a	n/a	n/a	n/a	n/a	n/a	n/a	n/a
200.1518	0.5	FIXCROSS	n/a	n/a	n/a	n/a	n/a	n/a	n/a	n/a
200.6518	1.0833	INK	68	Incongruent	żółty	yellow	niebieski	blue	hit	n/a
201.7269	n/a	RESPONSE	n/a	n/a	n/a	n/a	n/a	n/a	n/a	blue
201.7351	1.0	ITI	n/a	n/a	n/a	n/a	n/a	n/a	n/a	n/a
202.7351	0.5	FIXCROSS	n/a	n/a	n/a	n/a	n/a	n/a	n/a	n/a
203.2351	0.8	INK	69	Incongruent	żółty	yellow	zielony	green	hit	n/a
204.0293	n/a	RESPONSE	n/a	n/a	n/a	n/a	n/a	n/a	n/a	green
204.0351	1.0	ITI	n/a	n/a	n/a	n/a	n/a	n/a	n/a	n/a
205.0351	0.5	FIXCROSS	n/a	n/a	n/a	n/a	n/a	n/a	n/a	n/a
205.5351	0.7333	INK	70	Incongruent	zielony	green	czerwony	red	hit	n/a
206.2518	n/a	RESPONSE	n/a	n/a	n/a	n/a	n/a	n/a	n/a	red
206.2684	1.0	ITI	n/a	n/a	n/a	n/a	n/a	n/a	n/a	n/a
207.2684	0.5	FIXCROSS	n/a	n/a	n/a	n/a	n/a	n/a	n/a	n/a
207.7683	0.7667	INK	71	Neutral	xxxxx	xxxxx	zielony	green	hit	n/a
208.5218	n/a	RESPONSE	n/a	n/a	n/a	n/a	n/a	n/a	n/a	green
208.535	1.0	ITI	n/a	n/a	n/a	n/a	n/a	n/a	n/a	n/a
209.535	0.5	FIXCROSS	n/a	n/a	n/a	n/a	n/a	n/a	n/a	n/a
210.035	1.1666	INK	72	Incongruent	czerwony	red	zielony	green	hit	n/a
211.1919	n/a	RESPONSE	n/a	n/a	n/a	n/a	n/a	n/a	n/a	green
211.2016	1.0333	ITI	n/a	n/a	n/a	n/a	n/a	n/a	n/a	n/a
236.6776	n/a	RESPONSE	n/a	n/a	n/a	n/a	n/a	n/a	n/a	n/a
236.7011	1.0	ITI	n/a	n/a	n/a	n/a	n/a	n/a	n/a	n/a
237.7011	0.5	FIXCROSS	n/a	n/a	n/a	n/a	n/a	n/a	n/a	n/a
238.2011	1.4166	T_COLOR_NAME	1	Incongruent	czerwony	red	zielony	green	hit	n/a
239.6035	n/a	RESPONSE	n/a	n/a	n/a	n/a	n/a	n/a	n/a	red
239.6177	0.5	FEEDBACK	n/a	n/a	n/a	n/a	n/a	n/a	n/a	n/a
240.1177	1.0	ITI	n/a	n/a	n/a	n/a	n/a	n/a	n/a	n/a
241.1177	0.5	FIXCROSS	n/a	n/a	n/a	n/a	n/a	n/a	n/a	n/a
241.6177	1.05	T_COLOR_NAME	2	Incongruent	niebieski	blue	zielony	green	hit	n/a
242.6573	n/a	RESPONSE	n/a	n/a	n/a	n/a	n/a	n/a	n/a	blue
242.6676	0.5	FEEDBACK	n/a	n/a	n/a	n/a	n/a	n/a	n/a	n/a
243.1676	1.0	ITI	n/a	n/a	n/a	n/a	n/a	n/a	n/a	n/a
244.1676	0.5	FIXCROSS	n/a	n/a	n/a	n/a	n/a	n/a	n/a	n/a
244.6676	1.0666	T_COLOR_NAME	3	Incongruent	czerwony	red	żółty	yellow	hit	n/a
245.7271	n/a	RESPONSE	n/a	n/a	n/a	n/a	n/a	n/a	n/a	red
245.7342	0.5	FEEDBACK	n/a	n/a	n/a	n/a	n/a	n/a	n/a	n/a
246.2342	1.0	ITI	n/a	n/a	n/a	n/a	n/a	n/a	n/a	n/a
247.2342	0.5	FIXCROSS	n/a	n/a	n/a	n/a	n/a	n/a	n/a	n/a
247.7342	1.0167	T_COLOR_NAME	4	Neutral	zielony	green	Neutral	Neutral	hit	n/a
248.7328	n/a	RESPONSE	n/a	n/a	n/a	n/a	n/a	n/a	n/a	green
248.7509	0.5	FEEDBACK	n/a	n/a	n/a	n/a	n/a	n/a	n/a	n/a
249.2508	1.0	ITI	n/a	n/a	n/a	n/a	n/a	n/a	n/a	n/a
250.2508	0.5	FIXCROSS	n/a	n/a	n/a	n/a	n/a	n/a	n/a	n/a
250.7508	0.95	T_COLOR_NAME	5	Neutral	żółty	yellow	Neutral	Neutral	hit	n/a
251.6908	n/a	RESPONSE	n/a	n/a	n/a	n/a	n/a	n/a	n/a	yellow
251.7008	0.5	FEEDBACK	n/a	n/a	n/a	n/a	n/a	n/a	n/a	n/a
252.2008	1.0	ITI	n/a	n/a	n/a	n/a	n/a	n/a	n/a	n/a
253.2008	0.5	FIXCROSS	n/a	n/a	n/a	n/a	n/a	n/a	n/a	n/a
253.7007	1.1166	T_COLOR_NAME	6	Neutral	zielony	green	Neutral	Neutral	hit	n/a
254.8085	n/a	RESPONSE	n/a	n/a	n/a	n/a	n/a	n/a	n/a	green
254.8174	0.5	FEEDBACK	n/a	n/a	n/a	n/a	n/a	n/a	n/a	n/a
255.3174	1.0	ITI	n/a	n/a	n/a	n/a	n/a	n/a	n/a	n/a
256.3174	0.5	FIXCROSS	n/a	n/a	n/a	n/a	n/a	n/a	n/a	n/a
256.8174	1.4166	T_COLOR_NAME	7	Incongruent	zielony	green	czerwony	red	hit	n/a
258.2141	n/a	RESPONSE	n/a	n/a	n/a	n/a	n/a	n/a	n/a	green
258.234	0.5	FEEDBACK	n/a	n/a	n/a	n/a	n/a	n/a	n/a	n/a
258.734	1.0	ITI	n/a	n/a	n/a	n/a	n/a	n/a	n/a	n/a
259.734	0.5	FIXCROSS	n/a	n/a	n/a	n/a	n/a	n/a	n/a	n/a
260.234	1.0333	T_COLOR_NAME	8	Neutral	czerwony	red	Neutral	Neutral	hit	n/a
261.2519	n/a	RESPONSE	n/a	n/a	n/a	n/a	n/a	n/a	n/a	red
261.2673	0.5	FEEDBACK	n/a	n/a	n/a	n/a	n/a	n/a	n/a	n/a
261.7672	1.0	ITI	n/a	n/a	n/a	n/a	n/a	n/a	n/a	n/a
262.7672	0.498	FIXCROSS	n/a	n/a	n/a	n/a	n/a	n/a	n/a	n/a
263.2652	1.3853	T_COLOR_NAME	9	Neutral	zielony	green	Neutral	Neutral	hit	n/a
264.6414	n/a	RESPONSE	n/a	n/a	n/a	n/a	n/a	n/a	n/a	green
264.6505	0.5	FEEDBACK	n/a	n/a	n/a	n/a	n/a	n/a	n/a	n/a
265.1505	1.0	ITI	n/a	n/a	n/a	n/a	n/a	n/a	n/a	n/a
266.1505	0.5	FIXCROSS	n/a	n/a	n/a	n/a	n/a	n/a	n/a	n/a
266.6505	1.25	T_COLOR_NAME	10	Incongruent	niebieski	blue	żółty	yellow	hit	n/a
267.8872	n/a	RESPONSE	n/a	n/a	n/a	n/a	n/a	n/a	n/a	blue
267.9005	0.5	FEEDBACK	n/a	n/a	n/a	n/a	n/a	n/a	n/a	n/a
268.4004	1.0	ITI	n/a	n/a	n/a	n/a	n/a	n/a	n/a	n/a
269.4004	0.5	FIXCROSS	n/a	n/a	n/a	n/a	n/a	n/a	n/a	n/a
269.9004	0.9666	T_COLOR_NAME	11	Neutral	żółty	yellow	Neutral	Neutral	hit	n/a
270.861	n/a	RESPONSE	n/a	n/a	n/a	n/a	n/a	n/a	n/a	yellow
270.8671	0.5	FEEDBACK	n/a	n/a	n/a	n/a	n/a	n/a	n/a	n/a
271.3671	1.0	ITI	n/a	n/a	n/a	n/a	n/a	n/a	n/a	n/a
272.367	0.5	FIXCROSS	n/a	n/a	n/a	n/a	n/a	n/a	n/a	n/a
272.867	0.9833	T_COLOR_NAME	12	Neutral	niebieski	blue	Neutral	Neutral	hit	n/a
273.8348	n/a	RESPONSE	n/a	n/a	n/a	n/a	n/a	n/a	n/a	blue
273.8503	0.5	FEEDBACK	n/a	n/a	n/a	n/a	n/a	n/a	n/a	n/a
274.3503	1.0	ITI	n/a	n/a	n/a	n/a	n/a	n/a	n/a	n/a
277.0326	n/a	RESPONSE	n/a	n/a	n/a	n/a	n/a	n/a	n/a	n/a
277.0669	1.0	ITI	n/a	n/a	n/a	n/a	n/a	n/a	n/a	n/a
278.0669	0.5	FIXCROSS	n/a	n/a	n/a	n/a	n/a	n/a	n/a	n/a
278.5669	0.8833	COLOR_NAME	1	Incongruent	zielony	green	żółty	yellow	hit	n/a
279.4309	n/a	RESPONSE	n/a	n/a	n/a	n/a	n/a	n/a	n/a	green
279.4502	1.0	ITI	n/a	n/a	n/a	n/a	n/a	n/a	n/a	n/a
280.4502	0.5	FIXCROSS	n/a	n/a	n/a	n/a	n/a	n/a	n/a	n/a
280.9502	0.95	COLOR_NAME	2	Incongruent	czerwony	red	żółty	yellow	hit	n/a
281.8931	n/a	RESPONSE	n/a	n/a	n/a	n/a	n/a	n/a	n/a	red
281.9002	1.0	ITI	n/a	n/a	n/a	n/a	n/a	n/a	n/a	n/a
282.9002	0.5	FIXCROSS	n/a	n/a	n/a	n/a	n/a	n/a	n/a	n/a
283.4001	1.0167	COLOR_NAME	3	Incongruent	niebieski	blue	czerwony	red	hit	n/a
284.4032	n/a	RESPONSE	n/a	n/a	n/a	n/a	n/a	n/a	n/a	blue
284.4168	1.0	ITI	n/a	n/a	n/a	n/a	n/a	n/a	n/a	n/a
285.4168	0.5	FIXCROSS	n/a	n/a	n/a	n/a	n/a	n/a	n/a	n/a
285.9168	0.8333	COLOR_NAME	4	Neutral	czerwony	red	Neutral	Neutral	hit	n/a
286.7376	n/a	RESPONSE	n/a	n/a	n/a	n/a	n/a	n/a	n/a	red
286.7501	1.0	ITI	n/a	n/a	n/a	n/a	n/a	n/a	n/a	n/a
287.7501	0.5	FIXCROSS	n/a	n/a	n/a	n/a	n/a	n/a	n/a	n/a
288.25	0.6833	COLOR_NAME	5	Incongruent	żółty	yellow	niebieski	blue	hit	n/a
288.9281	n/a	RESPONSE	n/a	n/a	n/a	n/a	n/a	n/a	n/a	yellow
288.9334	1.0	ITI	n/a	n/a	n/a	n/a	n/a	n/a	n/a	n/a
289.9333	0.5	FIXCROSS	n/a	n/a	n/a	n/a	n/a	n/a	n/a	n/a
290.4333	0.7833	COLOR_NAME	6	Incongruent	zielony	green	czerwony	red	hit	n/a
291.1984	n/a	RESPONSE	n/a	n/a	n/a	n/a	n/a	n/a	n/a	green
291.2167	1.0	ITI	n/a	n/a	n/a	n/a	n/a	n/a	n/a	n/a
292.2166	0.5	FIXCROSS	n/a	n/a	n/a	n/a	n/a	n/a	n/a	n/a
292.7166	0.6167	COLOR_NAME	7	Incongruent	żółty	yellow	niebieski	blue	hit	n/a
293.3248	n/a	RESPONSE	n/a	n/a	n/a	n/a	n/a	n/a	n/a	yellow
293.3333	1.0	ITI	n/a	n/a	n/a	n/a	n/a	n/a	n/a	n/a
294.3333	0.5	FIXCROSS	n/a	n/a	n/a	n/a	n/a	n/a	n/a	n/a
294.8333	0.6166	COLOR_NAME	8	Incongruent	żółty	yellow	czerwony	red	hit	n/a
295.4354	n/a	RESPONSE	n/a	n/a	n/a	n/a	n/a	n/a	n/a	yellow
295.4499	1.0	ITI	n/a	n/a	n/a	n/a	n/a	n/a	n/a	n/a
296.4499	0.5	FIXCROSS	n/a	n/a	n/a	n/a	n/a	n/a	n/a	n/a
296.9499	0.5667	COLOR_NAME	9	Neutral	żółty	yellow	Neutral	Neutral	hit	n/a
297.4979	n/a	RESPONSE	n/a	n/a	n/a	n/a	n/a	n/a	n/a	yellow
297.5165	1.0	ITI	n/a	n/a	n/a	n/a	n/a	n/a	n/a	n/a
298.5165	0.5	FIXCROSS	n/a	n/a	n/a	n/a	n/a	n/a	n/a	n/a
299.0165	1.0833	COLOR_NAME	10	Incongruent	niebieski	blue	żółty	yellow	hit	n/a
300.088	n/a	RESPONSE	n/a	n/a	n/a	n/a	n/a	n/a	n/a	blue
300.0998	1.0	ITI	n/a	n/a	n/a	n/a	n/a	n/a	n/a	n/a
301.0998	0.5	FIXCROSS	n/a	n/a	n/a	n/a	n/a	n/a	n/a	n/a
301.5998	1.15	COLOR_NAME	11	Neutral	zielony	green	Neutral	Neutral	hit	n/a
302.7421	n/a	RESPONSE	n/a	n/a	n/a	n/a	n/a	n/a	n/a	green
302.7498	1.0	ITI	n/a	n/a	n/a	n/a	n/a	n/a	n/a	n/a
303.7497	0.5	FIXCROSS	n/a	n/a	n/a	n/a	n/a	n/a	n/a	n/a
304.2497	0.6666	COLOR_NAME	12	Neutral	żółty	yellow	Neutral	Neutral	hit	n/a
304.9006	n/a	RESPONSE	n/a	n/a	n/a	n/a	n/a	n/a	n/a	yellow
304.9164	1.0	ITI	n/a	n/a	n/a	n/a	n/a	n/a	n/a	n/a
305.9164	0.5	FIXCROSS	n/a	n/a	n/a	n/a	n/a	n/a	n/a	n/a
306.4163	1.0	COLOR_NAME	13	Incongruent	niebieski	blue	zielony	green	hit	n/a
307.4108	n/a	RESPONSE	n/a	n/a	n/a	n/a	n/a	n/a	n/a	blue
307.4163	1.0	ITI	n/a	n/a	n/a	n/a	n/a	n/a	n/a	n/a
308.4163	0.5	FIXCROSS	n/a	n/a	n/a	n/a	n/a	n/a	n/a	n/a
308.9163	0.7666	COLOR_NAME	14	Neutral	niebieski	blue	Neutral	Neutral	hit	n/a
309.6651	n/a	RESPONSE	n/a	n/a	n/a	n/a	n/a	n/a	n/a	blue
309.6829	1.0	ITI	n/a	n/a	n/a	n/a	n/a	n/a	n/a	n/a
310.6829	0.5	FIXCROSS	n/a	n/a	n/a	n/a	n/a	n/a	n/a	n/a
311.1829	0.7166	COLOR_NAME	15	Incongruent	żółty	yellow	niebieski	blue	hit	n/a
311.8875	n/a	RESPONSE	n/a	n/a	n/a	n/a	n/a	n/a	n/a	yellow
311.8996	1.0	ITI	n/a	n/a	n/a	n/a	n/a	n/a	n/a	n/a
312.8996	0.5	FIXCROSS	n/a	n/a	n/a	n/a	n/a	n/a	n/a	n/a
313.3995	0.7	COLOR_NAME	16	Incongruent	czerwony	red	niebieski	blue	hit	n/a
314.094	n/a	RESPONSE	n/a	n/a	n/a	n/a	n/a	n/a	n/a	red
314.0995	1.0	ITI	n/a	n/a	n/a	n/a	n/a	n/a	n/a	n/a
315.0995	0.5	FIXCROSS	n/a	n/a	n/a	n/a	n/a	n/a	n/a	n/a
315.5995	0.8833	COLOR_NAME	17	Incongruent	niebieski	blue	żółty	yellow	hit	n/a
316.4762	n/a	RESPONSE	n/a	n/a	n/a	n/a	n/a	n/a	n/a	blue
316.4828	1.0	ITI	n/a	n/a	n/a	n/a	n/a	n/a	n/a	n/a
317.4828	0.5	FIXCROSS	n/a	n/a	n/a	n/a	n/a	n/a	n/a	n/a
317.9828	0.6667	COLOR_NAME	18	Incongruent	czerwony	red	zielony	green	hit	n/a
318.6347	n/a	RESPONSE	n/a	n/a	n/a	n/a	n/a	n/a	n/a	red
318.6494	1.0	ITI	n/a	n/a	n/a	n/a	n/a	n/a	n/a	n/a
319.6494	0.5	FIXCROSS	n/a	n/a	n/a	n/a	n/a	n/a	n/a	n/a
320.1494	0.7667	COLOR_NAME	19	Neutral	niebieski	blue	Neutral	Neutral	hit	n/a
320.905	n/a	RESPONSE	n/a	n/a	n/a	n/a	n/a	n/a	n/a	blue
320.9161	1.0	ITI	n/a	n/a	n/a	n/a	n/a	n/a	n/a	n/a
321.916	0.5	FIXCROSS	n/a	n/a	n/a	n/a	n/a	n/a	n/a	n/a
322.416	0.6333	COLOR_NAME	20	Neutral	żółty	yellow	Neutral	Neutral	hit	n/a
323.0316	n/a	RESPONSE	n/a	n/a	n/a	n/a	n/a	n/a	n/a	yellow
323.0494	1.0	ITI	n/a	n/a	n/a	n/a	n/a	n/a	n/a	n/a
324.0493	0.5	FIXCROSS	n/a	n/a	n/a	n/a	n/a	n/a	n/a	n/a
324.5493	0.65	COLOR_NAME	21	Neutral	czerwony	red	Neutral	Neutral	hit	n/a
325.19	n/a	RESPONSE	n/a	n/a	n/a	n/a	n/a	n/a	n/a	red
325.1993	1.0	ITI	n/a	n/a	n/a	n/a	n/a	n/a	n/a	n/a
326.1993	0.5	FIXCROSS	n/a	n/a	n/a	n/a	n/a	n/a	n/a	n/a
326.6993	0.6666	COLOR_NAME	22	Neutral	czerwony	red	Neutral	Neutral	hit	n/a
327.3484	n/a	RESPONSE	n/a	n/a	n/a	n/a	n/a	n/a	n/a	red
327.3659	1.0	ITI	n/a	n/a	n/a	n/a	n/a	n/a	n/a	n/a
328.3659	0.5	FIXCROSS	n/a	n/a	n/a	n/a	n/a	n/a	n/a	n/a
328.8659	0.9666	COLOR_NAME	23	Incongruent	zielony	green	czerwony	red	hit	n/a
329.8266	n/a	RESPONSE	n/a	n/a	n/a	n/a	n/a	n/a	n/a	green
329.8325	1.0	ITI	n/a	n/a	n/a	n/a	n/a	n/a	n/a	n/a
330.8325	0.5	FIXCROSS	n/a	n/a	n/a	n/a	n/a	n/a	n/a	n/a
331.3325	0.6833	COLOR_NAME	24	Incongruent	żółty	yellow	czerwony	red	hit	n/a
332.0011	n/a	RESPONSE	n/a	n/a	n/a	n/a	n/a	n/a	n/a	yellow
332.0158	1.0	ITI	n/a	n/a	n/a	n/a	n/a	n/a	n/a	n/a
333.0158	0.5	FIXCROSS	n/a	n/a	n/a	n/a	n/a	n/a	n/a	n/a
333.5158	0.7166	COLOR_NAME	25	Neutral	czerwony	red	Neutral	Neutral	hit	n/a
334.2236	n/a	RESPONSE	n/a	n/a	n/a	n/a	n/a	n/a	n/a	red
334.2325	1.0	ITI	n/a	n/a	n/a	n/a	n/a	n/a	n/a	n/a
335.2324	0.5	FIXCROSS	n/a	n/a	n/a	n/a	n/a	n/a	n/a	n/a
335.7324	0.6667	COLOR_NAME	26	Incongruent	czerwony	red	niebieski	blue	hit	n/a
336.382	n/a	RESPONSE	n/a	n/a	n/a	n/a	n/a	n/a	n/a	red
336.3991	1.0	ITI	n/a	n/a	n/a	n/a	n/a	n/a	n/a	n/a
337.3991	0.5	FIXCROSS	n/a	n/a	n/a	n/a	n/a	n/a	n/a	n/a
337.899	0.6	COLOR_NAME	27	Incongruent	czerwony	red	zielony	green	hit	n/a
338.4924	n/a	RESPONSE	n/a	n/a	n/a	n/a	n/a	n/a	n/a	red
338.499	1.0	ITI	n/a	n/a	n/a	n/a	n/a	n/a	n/a	n/a
339.499	0.5	FIXCROSS	n/a	n/a	n/a	n/a	n/a	n/a	n/a	n/a
339.999	0.5667	COLOR_NAME	28	Incongruent	żółty	yellow	zielony	green	hit	n/a
340.555	n/a	RESPONSE	n/a	n/a	n/a	n/a	n/a	n/a	n/a	yellow
340.5657	1.0	ITI	n/a	n/a	n/a	n/a	n/a	n/a	n/a	n/a
341.5656	0.5	FIXCROSS	n/a	n/a	n/a	n/a	n/a	n/a	n/a	n/a
342.0656	0.6666	COLOR_NAME	29	Incongruent	czerwony	red	żółty	yellow	hit	n/a
342.7294	n/a	RESPONSE	n/a	n/a	n/a	n/a	n/a	n/a	n/a	red
342.7323	1.0	ITI	n/a	n/a	n/a	n/a	n/a	n/a	n/a	n/a
343.7323	0.5	FIXCROSS	n/a	n/a	n/a	n/a	n/a	n/a	n/a	n/a
344.2323	0.6333	COLOR_NAME	30	Neutral	czerwony	red	Neutral	Neutral	hit	n/a
344.8558	n/a	RESPONSE	n/a	n/a	n/a	n/a	n/a	n/a	n/a	red
344.8656	1.0	ITI	n/a	n/a	n/a	n/a	n/a	n/a	n/a	n/a
345.8656	0.5	FIXCROSS	n/a	n/a	n/a	n/a	n/a	n/a	n/a	n/a
346.3655	0.8333	COLOR_NAME	31	Incongruent	niebieski	blue	żółty	yellow	hit	n/a
347.1902	n/a	RESPONSE	n/a	n/a	n/a	n/a	n/a	n/a	n/a	blue
347.1989	1.0	ITI	n/a	n/a	n/a	n/a	n/a	n/a	n/a	n/a
348.1988	0.5	FIXCROSS	n/a	n/a	n/a	n/a	n/a	n/a	n/a	n/a
348.6988	0.7167	COLOR_NAME	32	Incongruent	niebieski	blue	czerwony	red	hit	n/a
349.3967	n/a	RESPONSE	n/a	n/a	n/a	n/a	n/a	n/a	n/a	blue
349.4155	1.0	ITI	n/a	n/a	n/a	n/a	n/a	n/a	n/a	n/a
350.4155	0.5	FIXCROSS	n/a	n/a	n/a	n/a	n/a	n/a	n/a	n/a
350.9155	0.6667	COLOR_NAME	33	Incongruent	czerwony	red	niebieski	blue	hit	n/a
351.571	n/a	RESPONSE	n/a	n/a	n/a	n/a	n/a	n/a	n/a	red
351.5821	1.0	ITI	n/a	n/a	n/a	n/a	n/a	n/a	n/a	n/a
352.5821	0.5	FIXCROSS	n/a	n/a	n/a	n/a	n/a	n/a	n/a	n/a
353.0821	0.65	COLOR_NAME	34	Incongruent	żółty	yellow	czerwony	red	hit	n/a
353.7136	n/a	RESPONSE	n/a	n/a	n/a	n/a	n/a	n/a	n/a	yellow
353.7321	1.0	ITI	n/a	n/a	n/a	n/a	n/a	n/a	n/a	n/a
354.732	0.5	FIXCROSS	n/a	n/a	n/a	n/a	n/a	n/a	n/a	n/a
355.232	0.4667	COLOR_NAME	35	Neutral	żółty	yellow	Neutral	Neutral	hit	n/a
355.6801	n/a	RESPONSE	n/a	n/a	n/a	n/a	n/a	n/a	n/a	yellow
355.6987	1.0	ITI	n/a	n/a	n/a	n/a	n/a	n/a	n/a	n/a
356.6987	0.5	FIXCROSS	n/a	n/a	n/a	n/a	n/a	n/a	n/a	n/a
357.1987	1.6	COLOR_NAME	36	Incongruent	zielony	green	niebieski	blue	hit	n/a
358.7819	n/a	RESPONSE	n/a	n/a	n/a	n/a	n/a	n/a	n/a	green
358.7986	1.0	ITI	n/a	n/a	n/a	n/a	n/a	n/a	n/a	n/a
359.7986	0.5	FIXCROSS	n/a	n/a	n/a	n/a	n/a	n/a	n/a	n/a
360.2986	0.75	COLOR_NAME	37	Neutral	żółty	yellow	Neutral	Neutral	hit	n/a
361.0362	n/a	RESPONSE	n/a	n/a	n/a	n/a	n/a	n/a	n/a	yellow
361.0486	1.0	ITI	n/a	n/a	n/a	n/a	n/a	n/a	n/a	n/a
362.0486	0.5	FIXCROSS	n/a	n/a	n/a	n/a	n/a	n/a	n/a	n/a
362.5486	0.7333	COLOR_NAME	38	Neutral	zielony	green	Neutral	Neutral	hit	n/a
363.2747	n/a	RESPONSE	n/a	n/a	n/a	n/a	n/a	n/a	n/a	green
363.2819	1.0	ITI	n/a	n/a	n/a	n/a	n/a	n/a	n/a	n/a
364.2819	0.5	FIXCROSS	n/a	n/a	n/a	n/a	n/a	n/a	n/a	n/a
364.7818	0.7	COLOR_NAME	39	Incongruent	zielony	green	niebieski	blue	hit	n/a
365.465	n/a	RESPONSE	n/a	n/a	n/a	n/a	n/a	n/a	n/a	green
365.4818	1.0	ITI	n/a	n/a	n/a	n/a	n/a	n/a	n/a	n/a
366.4818	0.5	FIXCROSS	n/a	n/a	n/a	n/a	n/a	n/a	n/a	n/a
366.9818	0.55	COLOR_NAME	40	Neutral	żółty	yellow	Neutral	Neutral	hit	n/a
367.5276	n/a	RESPONSE	n/a	n/a	n/a	n/a	n/a	n/a	n/a	yellow
367.5318	1.0	ITI	n/a	n/a	n/a	n/a	n/a	n/a	n/a	n/a
368.5318	0.5	FIXCROSS	n/a	n/a	n/a	n/a	n/a	n/a	n/a	n/a
369.0318	0.7833	COLOR_NAME	41	Neutral	niebieski	blue	Neutral	Neutral	hit	n/a
369.798	n/a	RESPONSE	n/a	n/a	n/a	n/a	n/a	n/a	n/a	blue
369.8151	1.0	ITI	n/a	n/a	n/a	n/a	n/a	n/a	n/a	n/a
370.815	0.5	FIXCROSS	n/a	n/a	n/a	n/a	n/a	n/a	n/a	n/a
371.315	0.6667	COLOR_NAME	42	Incongruent	czerwony	red	żółty	yellow	hit	n/a
371.9725	n/a	RESPONSE	n/a	n/a	n/a	n/a	n/a	n/a	n/a	red
371.9817	1.0	ITI	n/a	n/a	n/a	n/a	n/a	n/a	n/a	n/a
372.9817	0.5	FIXCROSS	n/a	n/a	n/a	n/a	n/a	n/a	n/a	n/a
373.4817	0.5167	COLOR_NAME	43	Incongruent	żółty	yellow	zielony	green	hit	n/a
373.987	n/a	RESPONSE	n/a	n/a	n/a	n/a	n/a	n/a	n/a	yellow
373.9983	1.0	ITI	n/a	n/a	n/a	n/a	n/a	n/a	n/a	n/a
374.9983	0.5	FIXCROSS	n/a	n/a	n/a	n/a	n/a	n/a	n/a	n/a
375.4983	0.5167	COLOR_NAME	44	Neutral	żółty	yellow	Neutral	Neutral	hit	n/a
376.0016	n/a	RESPONSE	n/a	n/a	n/a	n/a	n/a	n/a	n/a	yellow
376.015	1.0	ITI	n/a	n/a	n/a	n/a	n/a	n/a	n/a	n/a
377.0149	0.5	FIXCROSS	n/a	n/a	n/a	n/a	n/a	n/a	n/a	n/a
377.5149	0.8	COLOR_NAME	45	Neutral	niebieski	blue	Neutral	Neutral	hit	n/a
378.3039	n/a	RESPONSE	n/a	n/a	n/a	n/a	n/a	n/a	n/a	blue
378.3149	1.0	ITI	n/a	n/a	n/a	n/a	n/a	n/a	n/a	n/a
379.3149	0.5	FIXCROSS	n/a	n/a	n/a	n/a	n/a	n/a	n/a	n/a
379.8149	0.7333	COLOR_NAME	46	Neutral	niebieski	blue	Neutral	Neutral	hit	n/a
380.5423	n/a	RESPONSE	n/a	n/a	n/a	n/a	n/a	n/a	n/a	blue
380.5482	1.0	ITI	n/a	n/a	n/a	n/a	n/a	n/a	n/a	n/a
381.5482	0.5	FIXCROSS	n/a	n/a	n/a	n/a	n/a	n/a	n/a	n/a
382.0482	0.9	COLOR_NAME	47	Neutral	czerwony	red	Neutral	Neutral	hit	n/a
382.9405	n/a	RESPONSE	n/a	n/a	n/a	n/a	n/a	n/a	n/a	red
382.9482	1.0	ITI	n/a	n/a	n/a	n/a	n/a	n/a	n/a	n/a
383.9481	0.5	FIXCROSS	n/a	n/a	n/a	n/a	n/a	n/a	n/a	n/a
384.4481	0.8167	COLOR_NAME	48	Incongruent	czerwony	red	zielony	green	hit	n/a
385.2589	n/a	RESPONSE	n/a	n/a	n/a	n/a	n/a	n/a	n/a	red
385.2648	1.0	ITI	n/a	n/a	n/a	n/a	n/a	n/a	n/a	n/a
386.2647	0.5	FIXCROSS	n/a	n/a	n/a	n/a	n/a	n/a	n/a	n/a
386.7647	0.6166	COLOR_NAME	49	Incongruent	żółty	yellow	zielony	green	hit	n/a
387.3695	n/a	RESPONSE	n/a	n/a	n/a	n/a	n/a	n/a	n/a	yellow
387.3814	1.0	ITI	n/a	n/a	n/a	n/a	n/a	n/a	n/a	n/a
388.3814	0.5	FIXCROSS	n/a	n/a	n/a	n/a	n/a	n/a	n/a	n/a
388.8814	0.65	COLOR_NAME	50	Neutral	zielony	green	Neutral	Neutral	hit	n/a
389.5119	n/a	RESPONSE	n/a	n/a	n/a	n/a	n/a	n/a	n/a	green
389.5313	1.0	ITI	n/a	n/a	n/a	n/a	n/a	n/a	n/a	n/a
390.5313	0.5	FIXCROSS	n/a	n/a	n/a	n/a	n/a	n/a	n/a	n/a
391.0313	0.7	COLOR_NAME	51	Neutral	niebieski	blue	Neutral	Neutral	hit	n/a
391.7183	n/a	RESPONSE	n/a	n/a	n/a	n/a	n/a	n/a	n/a	blue
391.7313	1.0	ITI	n/a	n/a	n/a	n/a	n/a	n/a	n/a	n/a
392.7313	0.5	FIXCROSS	n/a	n/a	n/a	n/a	n/a	n/a	n/a	n/a
393.2313	0.7333	COLOR_NAME	52	Neutral	niebieski	blue	Neutral	Neutral	hit	n/a
393.9567	n/a	RESPONSE	n/a	n/a	n/a	n/a	n/a	n/a	n/a	blue
393.9646	1.0	ITI	n/a	n/a	n/a	n/a	n/a	n/a	n/a	n/a
394.9646	0.5	FIXCROSS	n/a	n/a	n/a	n/a	n/a	n/a	n/a	n/a
395.4646	0.85	COLOR_NAME	53	Incongruent	niebieski	blue	czerwony	red	hit	n/a
396.3071	n/a	RESPONSE	n/a	n/a	n/a	n/a	n/a	n/a	n/a	blue
396.3145	1.0	ITI	n/a	n/a	n/a	n/a	n/a	n/a	n/a	n/a
397.3145	0.5	FIXCROSS	n/a	n/a	n/a	n/a	n/a	n/a	n/a	n/a
397.8145	0.75	COLOR_NAME	54	Incongruent	zielony	green	niebieski	blue	hit	n/a
398.5614	n/a	RESPONSE	n/a	n/a	n/a	n/a	n/a	n/a	n/a	green
398.5645	1.0	ITI	n/a	n/a	n/a	n/a	n/a	n/a	n/a	n/a
399.5645	0.5	FIXCROSS	n/a	n/a	n/a	n/a	n/a	n/a	n/a	n/a
400.0645	0.6166	COLOR_NAME	55	Incongruent	zielony	green	czerwony	red	hit	n/a
400.6719	n/a	RESPONSE	n/a	n/a	n/a	n/a	n/a	n/a	n/a	green
400.6811	1.0	ITI	n/a	n/a	n/a	n/a	n/a	n/a	n/a	n/a
401.6811	0.5	FIXCROSS	n/a	n/a	n/a	n/a	n/a	n/a	n/a	n/a
402.1811	0.5	COLOR_NAME	56	Neutral	zielony	green	Neutral	Neutral	hit	n/a
402.6705	n/a	RESPONSE	n/a	n/a	n/a	n/a	n/a	n/a	n/a	green
402.6811	1.0	ITI	n/a	n/a	n/a	n/a	n/a	n/a	n/a	n/a
403.6811	0.5	FIXCROSS	n/a	n/a	n/a	n/a	n/a	n/a	n/a	n/a
404.1811	0.85	COLOR_NAME	57	Neutral	niebieski	blue	Neutral	Neutral	hit	n/a
405.0208	n/a	RESPONSE	n/a	n/a	n/a	n/a	n/a	n/a	n/a	blue
405.031	1.0	ITI	n/a	n/a	n/a	n/a	n/a	n/a	n/a	n/a
406.031	0.5	FIXCROSS	n/a	n/a	n/a	n/a	n/a	n/a	n/a	n/a
406.531	0.8	COLOR_NAME	58	Incongruent	zielony	green	żółty	yellow	hit	n/a
407.3232	n/a	RESPONSE	n/a	n/a	n/a	n/a	n/a	n/a	n/a	green
407.331	1.0	ITI	n/a	n/a	n/a	n/a	n/a	n/a	n/a	n/a
408.331	0.5	FIXCROSS	n/a	n/a	n/a	n/a	n/a	n/a	n/a	n/a
408.831	0.4667	COLOR_NAME	59	Neutral	czerwony	red	Neutral	Neutral	hit	n/a
409.2898	n/a	RESPONSE	n/a	n/a	n/a	n/a	n/a	n/a	n/a	red
409.2976	1.0	ITI	n/a	n/a	n/a	n/a	n/a	n/a	n/a	n/a
410.2976	0.5	FIXCROSS	n/a	n/a	n/a	n/a	n/a	n/a	n/a	n/a
410.7976	0.6166	COLOR_NAME	60	Neutral	zielony	green	Neutral	Neutral	hit	n/a
411.4003	n/a	RESPONSE	n/a	n/a	n/a	n/a	n/a	n/a	n/a	green
411.4142	1.0	ITI	n/a	n/a	n/a	n/a	n/a	n/a	n/a	n/a
412.4142	0.5	FIXCROSS	n/a	n/a	n/a	n/a	n/a	n/a	n/a	n/a
412.9142	0.4667	COLOR_NAME	61	Neutral	zielony	green	Neutral	Neutral	hit	n/a
413.3669	n/a	RESPONSE	n/a	n/a	n/a	n/a	n/a	n/a	n/a	green
413.3809	1.0	ITI	n/a	n/a	n/a	n/a	n/a	n/a	n/a	n/a
414.3808	0.5	FIXCROSS	n/a	n/a	n/a	n/a	n/a	n/a	n/a	n/a
414.8808	0.8333	COLOR_NAME	62	Neutral	niebieski	blue	Neutral	Neutral	hit	n/a
415.7012	n/a	RESPONSE	n/a	n/a	n/a	n/a	n/a	n/a	n/a	blue
415.7142	1.0	ITI	n/a	n/a	n/a	n/a	n/a	n/a	n/a	n/a
416.7141	0.5	FIXCROSS	n/a	n/a	n/a	n/a	n/a	n/a	n/a	n/a
417.2141	0.8167	COLOR_NAME	63	Neutral	czerwony	red	Neutral	Neutral	hit	n/a
418.0196	n/a	RESPONSE	n/a	n/a	n/a	n/a	n/a	n/a	n/a	red
418.0308	1.0	ITI	n/a	n/a	n/a	n/a	n/a	n/a	n/a	n/a
419.0308	0.5	FIXCROSS	n/a	n/a	n/a	n/a	n/a	n/a	n/a	n/a
419.5307	1.15	COLOR_NAME	64	Incongruent	zielony	green	żółty	yellow	hit	n/a
420.6737	n/a	RESPONSE	n/a	n/a	n/a	n/a	n/a	n/a	n/a	green
420.6807	1.0	ITI	n/a	n/a	n/a	n/a	n/a	n/a	n/a	n/a
421.6807	0.5	FIXCROSS	n/a	n/a	n/a	n/a	n/a	n/a	n/a	n/a
422.1807	0.75	COLOR_NAME	65	Incongruent	niebieski	blue	zielony	green	hit	n/a
422.9121	n/a	RESPONSE	n/a	n/a	n/a	n/a	n/a	n/a	n/a	blue
422.9307	1.0	ITI	n/a	n/a	n/a	n/a	n/a	n/a	n/a	n/a
423.9307	0.5	FIXCROSS	n/a	n/a	n/a	n/a	n/a	n/a	n/a	n/a
424.4306	0.5833	COLOR_NAME	66	Neutral	czerwony	red	Neutral	Neutral	hit	n/a
425.0066	n/a	RESPONSE	n/a	n/a	n/a	n/a	n/a	n/a	n/a	red
425.014	1.0	ITI	n/a	n/a	n/a	n/a	n/a	n/a	n/a	n/a
426.0139	0.5	FIXCROSS	n/a	n/a	n/a	n/a	n/a	n/a	n/a	n/a
426.5139	0.5833	COLOR_NAME	67	Neutral	zielony	green	Neutral	Neutral	hit	n/a
427.085	n/a	RESPONSE	n/a	n/a	n/a	n/a	n/a	n/a	n/a	green
427.0973	1.0	ITI	n/a	n/a	n/a	n/a	n/a	n/a	n/a	n/a
428.0972	0.5	FIXCROSS	n/a	n/a	n/a	n/a	n/a	n/a	n/a	n/a
428.5972	0.5	COLOR_NAME	68	Neutral	zielony	green	Neutral	Neutral	hit	n/a
429.0836	n/a	RESPONSE	n/a	n/a	n/a	n/a	n/a	n/a	n/a	green
429.0972	1.0	ITI	n/a	n/a	n/a	n/a	n/a	n/a	n/a	n/a
429.2915	n/a	RESPONSE	n/a	n/a	n/a	n/a	n/a	n/a	n/a	green
430.0972	0.5	FIXCROSS	n/a	n/a	n/a	n/a	n/a	n/a	n/a	n/a
430.5972	0.9166	COLOR_NAME	69	Incongruent	niebieski	blue	zielony	green	hit	n/a
431.498	n/a	RESPONSE	n/a	n/a	n/a	n/a	n/a	n/a	n/a	blue
431.5138	1.0	ITI	n/a	n/a	n/a	n/a	n/a	n/a	n/a	n/a
432.5138	0.5	FIXCROSS	n/a	n/a	n/a	n/a	n/a	n/a	n/a	n/a
433.0138	0.55	COLOR_NAME	70	Neutral	żółty	yellow	Neutral	Neutral	hit	n/a
433.5603	n/a	RESPONSE	n/a	n/a	n/a	n/a	n/a	n/a	n/a	yellow
433.5638	1.0	ITI	n/a	n/a	n/a	n/a	n/a	n/a	n/a	n/a
434.5638	0.5	FIXCROSS	n/a	n/a	n/a	n/a	n/a	n/a	n/a	n/a
435.0638	0.6667	COLOR_NAME	71	Neutral	zielony	green	Neutral	Neutral	hit	n/a
435.7189	n/a	RESPONSE	n/a	n/a	n/a	n/a	n/a	n/a	n/a	green
435.7304	1.0	ITI	n/a	n/a	n/a	n/a	n/a	n/a	n/a	n/a
436.7304	0.5	FIXCROSS	n/a	n/a	n/a	n/a	n/a	n/a	n/a	n/a
437.2304	0.4833	COLOR_NAME	72	Neutral	żółty	yellow	Neutral	Neutral	hit	n/a
437.7015	n/a	RESPONSE	n/a	n/a	n/a	n/a	n/a	n/a	n/a	yellow
437.7137	1.0	ITI	n/a	n/a	n/a	n/a	n/a	n/a	n/a	n/a
441.5547	n/a	RESPONSE	n/a	n/a	n/a	n/a	n/a	n/a	n/a	n/a
