onset	duration	trial_type	n_back_condition	trial_number	stimulus	response_type
0.0	n/a	RESPONSE	n/a	n/a	n/a	n/a
0.0353	1.0	ISI	n/a	n/a	n/a	n/a
1.0353	0.5	DISTRACTOR	1	1	C	Correct Rejection
1.5353	1.0	ISI	n/a	n/a	n/a	n/a
2.5353	0.5	DISTRACTOR	1	2	H	Correct Rejection
3.0353	1.0	ISI	n/a	n/a	n/a	n/a
4.0353	0.5	DISTRACTOR	1	3	A	Correct Rejection
4.5352	1.0	ISI	n/a	n/a	n/a	n/a
5.5352	0.5	DISTRACTOR	1	4	E	Correct Rejection
6.0352	1.0	ISI	n/a	n/a	n/a	n/a
7.0352	0.5	TARGET	1	5	E	Hit
7.3227	n/a	RESPONSE	n/a	n/a	n/a	n/a
7.5352	1.0	ISI	n/a	n/a	n/a	n/a
8.5352	0.5	TARGET	1	6	E	Hit
9.0352	1.0	ISI	n/a	n/a	n/a	n/a
9.2573	n/a	RESPONSE	n/a	n/a	n/a	n/a
10.0351	0.5	TARGET	1	7	E	Hit
10.3765	n/a	RESPONSE	n/a	n/a	n/a	n/a
10.5351	1.0	ISI	n/a	n/a	n/a	n/a
11.5351	0.5	DISTRACTOR	1	8	D	Correct Rejection
12.0351	1.0	ISI	n/a	n/a	n/a	n/a
13.0351	0.5	DISTRACTOR	1	9	I	Correct Rejection
13.5351	1.0	ISI	n/a	n/a	n/a	n/a
14.535	0.5	DISTRACTOR	1	10	H	Correct Rejection
15.035	1.0	ISI	n/a	n/a	n/a	n/a
16.035	0.5	DISTRACTOR	1	11	I	False Alarm
16.535	1.0	ISI	n/a	n/a	n/a	n/a
16.5481	n/a	RESPONSE	n/a	n/a	n/a	n/a
17.535	0.5	DISTRACTOR	1	12	C	Correct Rejection
18.035	1.0	ISI	n/a	n/a	n/a	n/a
19.035	0.5	DISTRACTOR	1	13	G	Correct Rejection
19.535	1.0	ISI	n/a	n/a	n/a	n/a
20.5349	0.5	DISTRACTOR	1	14	A	Correct Rejection
21.0349	1.0	ISI	n/a	n/a	n/a	n/a
22.0349	0.5	DISTRACTOR	1	15	C	Correct Rejection
22.5349	1.0	ISI	n/a	n/a	n/a	n/a
23.5349	0.5	DISTRACTOR	1	16	I	Correct Rejection
24.0349	1.0	ISI	n/a	n/a	n/a	n/a
25.0348	0.5	DISTRACTOR	1	17	A	Correct Rejection
25.5348	1.0	ISI	n/a	n/a	n/a	n/a
26.5348	0.5	DISTRACTOR	1	18	D	Correct Rejection
27.0348	1.0	ISI	n/a	n/a	n/a	n/a
28.0348	0.5	DISTRACTOR	1	19	J	Correct Rejection
28.5348	1.0	ISI	n/a	n/a	n/a	n/a
29.5348	0.5	DISTRACTOR	1	20	C	Correct Rejection
30.0347	1.0	ISI	n/a	n/a	n/a	n/a
31.0347	0.5	TARGET	1	21	C	Hit
31.3535	n/a	RESPONSE	n/a	n/a	n/a	n/a
31.5347	1.0	ISI	n/a	n/a	n/a	n/a
32.5347	0.5	DISTRACTOR	1	22	I	Correct Rejection
33.0347	1.0	ISI	n/a	n/a	n/a	n/a
34.0347	0.5	TARGET	1	23	I	Hit
34.4075	n/a	RESPONSE	n/a	n/a	n/a	n/a
34.5346	1.0	ISI	n/a	n/a	n/a	n/a
35.5346	0.5	DISTRACTOR	1	24	B	Correct Rejection
36.0346	1.0	ISI	n/a	n/a	n/a	n/a
37.0346	0.5	DISTRACTOR	1	25	I	Correct Rejection
37.5346	1.0	ISI	n/a	n/a	n/a	n/a
38.5346	0.5	DISTRACTOR	1	26	F	Correct Rejection
39.0346	1.0	ISI	n/a	n/a	n/a	n/a
40.0345	0.5	DISTRACTOR	1	27	B	Correct Rejection
40.5345	1.0	ISI	n/a	n/a	n/a	n/a
41.5345	0.5	DISTRACTOR	1	28	I	Correct Rejection
42.0345	1.0	ISI	n/a	n/a	n/a	n/a
43.0345	0.5	DISTRACTOR	1	29	G	Correct Rejection
43.5345	1.0	ISI	n/a	n/a	n/a	n/a
44.5344	0.5	DISTRACTOR	1	30	I	Correct Rejection
45.0344	1.0	ISI	n/a	n/a	n/a	n/a
46.0344	0.5	DISTRACTOR	1	31	F	Correct Rejection
46.5344	1.0	ISI	n/a	n/a	n/a	n/a
47.5344	0.5	DISTRACTOR	1	32	G	Correct Rejection
48.0344	1.0	ISI	n/a	n/a	n/a	n/a
49.0344	0.5	DISTRACTOR	1	33	J	Correct Rejection
49.5344	1.0	ISI	n/a	n/a	n/a	n/a
50.5343	0.5	DISTRACTOR	1	34	F	Correct Rejection
51.0343	1.0	ISI	n/a	n/a	n/a	n/a
52.0343	0.5	DISTRACTOR	1	35	A	Correct Rejection
52.5343	1.0	ISI	n/a	n/a	n/a	n/a
53.5343	0.5	DISTRACTOR	1	36	B	Correct Rejection
54.0343	1.0	ISI	n/a	n/a	n/a	n/a
55.0342	0.5	DISTRACTOR	1	37	C	Correct Rejection
55.5342	1.0	ISI	n/a	n/a	n/a	n/a
56.5342	0.5	DISTRACTOR	1	38	A	Correct Rejection
57.0342	1.0	ISI	n/a	n/a	n/a	n/a
58.0342	0.5	DISTRACTOR	1	39	C	Correct Rejection
58.5342	1.0	ISI	n/a	n/a	n/a	n/a
59.5341	0.5	DISTRACTOR	1	40	F	Correct Rejection
60.0341	1.0	ISI	n/a	n/a	n/a	n/a
61.0341	0.5	TARGET	1	41	F	Hit
61.3482	n/a	RESPONSE	n/a	n/a	n/a	n/a
61.5341	1.0	ISI	n/a	n/a	n/a	n/a
62.5341	0.5	TARGET	1	42	F	Hit
63.0341	1.0	ISI	n/a	n/a	n/a	n/a
63.1548	n/a	RESPONSE	n/a	n/a	n/a	n/a
64.0341	0.5	DISTRACTOR	1	43	I	Correct Rejection
64.5341	1.0	ISI	n/a	n/a	n/a	n/a
65.534	0.5	DISTRACTOR	1	44	E	Correct Rejection
66.034	1.0	ISI	n/a	n/a	n/a	n/a
67.034	0.5	DISTRACTOR	1	45	J	Correct Rejection
67.534	1.0	ISI	n/a	n/a	n/a	n/a
68.534	0.5	DISTRACTOR	1	46	B	Correct Rejection
69.034	1.0	ISI	n/a	n/a	n/a	n/a
70.034	0.5	TARGET	1	47	B	Hit
70.4138	n/a	RESPONSE	n/a	n/a	n/a	n/a
70.5339	1.0	ISI	n/a	n/a	n/a	n/a
71.5339	0.5	DISTRACTOR	1	48	I	Correct Rejection
72.0339	1.0	ISI	n/a	n/a	n/a	n/a
73.0339	0.5	TARGET	1	49	I	Hit
73.4675	n/a	RESPONSE	n/a	n/a	n/a	n/a
73.5339	1.0	ISI	n/a	n/a	n/a	n/a
74.5338	0.5	TARGET	1	50	I	Hit
74.8425	n/a	RESPONSE	n/a	n/a	n/a	n/a
75.0338	1.0667	ISI	n/a	n/a	n/a	n/a
87.7293	n/a	RESPONSE	n/a	n/a	n/a	n/a
87.7669	1.0	ISI	n/a	n/a	n/a	n/a
88.7669	0.5	DISTRACTOR	2	1	I	Correct Rejection
89.2669	1.0	ISI	n/a	n/a	n/a	n/a
90.2669	0.5	DISTRACTOR	2	2	D	Correct Rejection
90.7669	1.0	ISI	n/a	n/a	n/a	n/a
91.7668	0.5	TARGET	2	3	I	Hit
92.2061	n/a	RESPONSE	n/a	n/a	n/a	n/a
92.2668	1.0	ISI	n/a	n/a	n/a	n/a
93.2668	0.5	TARGET	2	4	D	Hit
93.7668	1.0	ISI	n/a	n/a	n/a	n/a
93.8209	n/a	RESPONSE	n/a	n/a	n/a	n/a
94.7668	0.5	TARGET	2	5	I	Miss
95.2668	1.0	ISI	n/a	n/a	n/a	n/a
96.2668	0.5	DISTRACTOR	2	6	I	Correct Rejection
96.7667	1.0	ISI	n/a	n/a	n/a	n/a
97.7667	0.5	DISTRACTOR	2	7	F	Correct Rejection
98.2667	1.0	ISI	n/a	n/a	n/a	n/a
99.2667	0.5	TARGET	2	8	I	Hit
99.5768	n/a	RESPONSE	n/a	n/a	n/a	n/a
99.7667	1.0	ISI	n/a	n/a	n/a	n/a
100.7667	0.5	DISTRACTOR	2	9	J	Correct Rejection
101.2666	1.0	ISI	n/a	n/a	n/a	n/a
102.2666	0.5	DISTRACTOR	2	10	G	Correct Rejection
102.7666	1.0	ISI	n/a	n/a	n/a	n/a
103.7666	0.5	DISTRACTOR	2	11	F	Correct Rejection
104.2666	1.0	ISI	n/a	n/a	n/a	n/a
105.2666	0.5	DISTRACTOR	2	12	E	Correct Rejection
105.7666	1.0	ISI	n/a	n/a	n/a	n/a
106.7665	0.5	DISTRACTOR	2	13	B	Correct Rejection
107.2665	1.0	ISI	n/a	n/a	n/a	n/a
108.2665	0.5	DISTRACTOR	2	14	G	Correct Rejection
108.7665	1.0	ISI	n/a	n/a	n/a	n/a
109.7665	0.5	DISTRACTOR	2	15	G	False Alarm
110.2665	1.0	ISI	n/a	n/a	n/a	n/a
110.2892	n/a	RESPONSE	n/a	n/a	n/a	n/a
111.2664	0.5	DISTRACTOR	2	16	J	Correct Rejection
111.7664	1.0	ISI	n/a	n/a	n/a	n/a
112.7664	0.5	DISTRACTOR	2	17	E	Correct Rejection
113.2664	1.0	ISI	n/a	n/a	n/a	n/a
114.2664	0.5	DISTRACTOR	2	18	H	Correct Rejection
114.7664	1.0	ISI	n/a	n/a	n/a	n/a
115.7664	0.5	TARGET	2	19	E	Hit
116.061	n/a	RESPONSE	n/a	n/a	n/a	n/a
116.2663	1.0	ISI	n/a	n/a	n/a	n/a
117.2663	0.5	DISTRACTOR	2	20	F	Correct Rejection
117.7663	1.0	ISI	n/a	n/a	n/a	n/a
118.7663	0.5	DISTRACTOR	2	21	D	Correct Rejection
119.2663	1.0	ISI	n/a	n/a	n/a	n/a
120.2663	0.5	DISTRACTOR	2	22	E	Correct Rejection
120.7663	1.0	ISI	n/a	n/a	n/a	n/a
121.7662	0.5	TARGET	2	23	D	Hit
122.1686	n/a	RESPONSE	n/a	n/a	n/a	n/a
122.2662	1.0	ISI	n/a	n/a	n/a	n/a
123.2662	0.5	DISTRACTOR	2	24	I	Correct Rejection
123.7662	1.0	ISI	n/a	n/a	n/a	n/a
124.7662	0.5	DISTRACTOR	2	25	E	False Alarm
125.1586	n/a	RESPONSE	n/a	n/a	n/a	n/a
125.2662	1.0	ISI	n/a	n/a	n/a	n/a
126.2662	0.5	DISTRACTOR	2	26	E	Correct Rejection
126.7661	1.0	ISI	n/a	n/a	n/a	n/a
127.7661	0.5	DISTRACTOR	2	27	B	Correct Rejection
128.2661	1.0	ISI	n/a	n/a	n/a	n/a
129.2661	0.5	DISTRACTOR	2	28	D	Correct Rejection
129.7661	1.0	ISI	n/a	n/a	n/a	n/a
130.7661	0.5	DISTRACTOR	2	29	I	Correct Rejection
131.266	1.0	ISI	n/a	n/a	n/a	n/a
132.266	0.5	DISTRACTOR	2	30	I	Correct Rejection
132.766	1.0	ISI	n/a	n/a	n/a	n/a
133.766	0.5	DISTRACTOR	2	31	C	Correct Rejection
134.266	1.0	ISI	n/a	n/a	n/a	n/a
135.266	0.5	DISTRACTOR	2	32	G	Correct Rejection
135.766	1.0	ISI	n/a	n/a	n/a	n/a
136.7659	0.5	DISTRACTOR	2	33	D	Correct Rejection
137.2659	1.0	ISI	n/a	n/a	n/a	n/a
138.2659	0.5	TARGET	2	34	G	Hit
138.7659	1.0	ISI	n/a	n/a	n/a	n/a
138.7807	n/a	RESPONSE	n/a	n/a	n/a	n/a
139.7659	0.5	TARGET	2	35	D	Hit
140.2659	1.0	ISI	n/a	n/a	n/a	n/a
140.7791	n/a	RESPONSE	n/a	n/a	n/a	n/a
141.2659	0.5	DISTRACTOR	2	36	E	Correct Rejection
141.7658	1.0	ISI	n/a	n/a	n/a	n/a
142.7658	0.5	DISTRACTOR	2	37	I	Correct Rejection
143.2658	1.0	ISI	n/a	n/a	n/a	n/a
144.2658	0.5	DISTRACTOR	2	38	A	Correct Rejection
144.7658	1.0	ISI	n/a	n/a	n/a	n/a
145.7658	0.5	DISTRACTOR	2	39	D	Correct Rejection
146.2657	1.0	ISI	n/a	n/a	n/a	n/a
147.2657	0.5	DISTRACTOR	2	40	I	False Alarm
147.7657	1.0	ISI	n/a	n/a	n/a	n/a
148.0701	n/a	RESPONSE	n/a	n/a	n/a	n/a
148.7657	0.5	DISTRACTOR	2	41	H	Correct Rejection
149.2657	1.0	ISI	n/a	n/a	n/a	n/a
150.2657	0.5	DISTRACTOR	2	42	H	Correct Rejection
150.7657	1.0	ISI	n/a	n/a	n/a	n/a
151.7656	0.5	DISTRACTOR	2	43	C	Correct Rejection
152.2656	1.0	ISI	n/a	n/a	n/a	n/a
153.2656	0.5	TARGET	2	44	H	Hit
153.7656	1.0	ISI	n/a	n/a	n/a	n/a
153.8099	n/a	RESPONSE	n/a	n/a	n/a	n/a
154.7656	0.5	DISTRACTOR	2	45	J	Correct Rejection
155.2656	1.0	ISI	n/a	n/a	n/a	n/a
156.2655	0.5	DISTRACTOR	2	46	J	Correct Rejection
156.7655	1.0	ISI	n/a	n/a	n/a	n/a
157.7655	0.5	TARGET	2	47	J	Hit
158.2655	1.0	ISI	n/a	n/a	n/a	n/a
158.6704	n/a	RESPONSE	n/a	n/a	n/a	n/a
159.2655	0.5	DISTRACTOR	2	48	H	Correct Rejection
159.7655	1.0	ISI	n/a	n/a	n/a	n/a
160.7655	0.5	DISTRACTOR	2	49	C	Correct Rejection
161.2654	1.0	ISI	n/a	n/a	n/a	n/a
162.2654	0.5	DISTRACTOR	2	50	D	Correct Rejection
162.7654	1.05	ISI	n/a	n/a	n/a	n/a
174.4191	n/a	RESPONSE	n/a	n/a	n/a	n/a
174.4485	1.0	ISI	n/a	n/a	n/a	n/a
175.4485	0.5	DISTRACTOR	3	1	F	Correct Rejection
175.9485	1.0	ISI	n/a	n/a	n/a	n/a
176.9485	0.5	DISTRACTOR	3	2	A	Correct Rejection
177.4484	1.0	ISI	n/a	n/a	n/a	n/a
178.4484	0.5	DISTRACTOR	3	3	J	Correct Rejection
178.9484	1.0	ISI	n/a	n/a	n/a	n/a
179.9484	0.5	DISTRACTOR	3	4	I	Correct Rejection
180.4484	1.0	ISI	n/a	n/a	n/a	n/a
181.4484	0.5	DISTRACTOR	3	5	G	Correct Rejection
181.9484	1.0	ISI	n/a	n/a	n/a	n/a
182.9483	0.5	DISTRACTOR	3	6	D	Correct Rejection
183.4483	1.0	ISI	n/a	n/a	n/a	n/a
184.4483	0.5	TARGET	3	7	I	Hit
184.9076	n/a	RESPONSE	n/a	n/a	n/a	n/a
184.9483	1.0	ISI	n/a	n/a	n/a	n/a
185.9483	0.5	DISTRACTOR	3	8	A	Correct Rejection
186.4483	1.0	ISI	n/a	n/a	n/a	n/a
187.4483	0.5	DISTRACTOR	3	9	C	Correct Rejection
187.9483	1.0	ISI	n/a	n/a	n/a	n/a
188.9482	0.5	DISTRACTOR	3	10	J	False Alarm
189.4482	1.0	ISI	n/a	n/a	n/a	n/a
189.848	n/a	RESPONSE	n/a	n/a	n/a	n/a
190.4482	0.5	DISTRACTOR	3	11	G	Correct Rejection
190.9482	1.0	ISI	n/a	n/a	n/a	n/a
191.9482	0.5	DISTRACTOR	3	12	E	Correct Rejection
192.4482	1.0	ISI	n/a	n/a	n/a	n/a
193.4481	0.5	TARGET	3	13	J	Hit
193.9481	1.0	ISI	n/a	n/a	n/a	n/a
194.3728	n/a	RESPONSE	n/a	n/a	n/a	n/a
194.9481	0.5	DISTRACTOR	3	14	D	Correct Rejection
195.4481	1.0	ISI	n/a	n/a	n/a	n/a
196.4481	0.5	DISTRACTOR	3	15	A	Correct Rejection
196.9481	1.0	ISI	n/a	n/a	n/a	n/a
197.948	0.5	TARGET	3	16	J	Hit
198.2901	n/a	RESPONSE	n/a	n/a	n/a	n/a
198.448	1.0	ISI	n/a	n/a	n/a	n/a
199.448	0.5	DISTRACTOR	3	17	I	Correct Rejection
199.948	1.0	ISI	n/a	n/a	n/a	n/a
200.948	0.5	DISTRACTOR	3	18	H	Correct Rejection
201.448	1.0	ISI	n/a	n/a	n/a	n/a
202.448	0.5	DISTRACTOR	3	19	E	Correct Rejection
202.9479	1.0	ISI	n/a	n/a	n/a	n/a
203.9479	0.5	DISTRACTOR	3	20	G	Correct Rejection
204.4479	1.0	ISI	n/a	n/a	n/a	n/a
205.4479	0.5	DISTRACTOR	3	21	F	Correct Rejection
205.9479	1.0	ISI	n/a	n/a	n/a	n/a
206.9479	0.5	TARGET	3	22	E	Miss
207.4479	1.0	ISI	n/a	n/a	n/a	n/a
208.4478	0.5	DISTRACTOR	3	23	B	Correct Rejection
208.9478	1.0	ISI	n/a	n/a	n/a	n/a
209.9478	0.5	DISTRACTOR	3	24	A	Correct Rejection
210.4478	1.0	ISI	n/a	n/a	n/a	n/a
211.4478	0.5	DISTRACTOR	3	25	J	False Alarm
211.9478	1.0	ISI	n/a	n/a	n/a	n/a
212.1522	n/a	RESPONSE	n/a	n/a	n/a	n/a
212.9477	0.5	TARGET	3	26	B	Miss
213.4477	1.0	ISI	n/a	n/a	n/a	n/a
214.4477	0.5	TARGET	3	27	A	Miss
214.9477	1.0	ISI	n/a	n/a	n/a	n/a
215.9477	0.5	DISTRACTOR	3	28	I	Correct Rejection
216.4477	1.0	ISI	n/a	n/a	n/a	n/a
217.4476	0.5	DISTRACTOR	3	29	E	Correct Rejection
217.9476	1.0	ISI	n/a	n/a	n/a	n/a
218.9476	0.5	TARGET	3	30	A	Hit
219.4476	1.0	ISI	n/a	n/a	n/a	n/a
220.2264	n/a	RESPONSE	n/a	n/a	n/a	n/a
220.4476	0.5	DISTRACTOR	3	31	E	Correct Rejection
220.9476	1.0	ISI	n/a	n/a	n/a	n/a
221.9476	0.5	DISTRACTOR	3	32	D	Correct Rejection
222.4475	1.0	ISI	n/a	n/a	n/a	n/a
223.4475	0.5	DISTRACTOR	3	33	E	False Alarm
223.9475	1.0	ISI	n/a	n/a	n/a	n/a
224.0315	n/a	RESPONSE	n/a	n/a	n/a	n/a
224.9475	0.5	DISTRACTOR	3	34	F	Correct Rejection
225.4475	1.0	ISI	n/a	n/a	n/a	n/a
226.4475	0.5	TARGET	3	35	D	Miss
226.9475	1.0	ISI	n/a	n/a	n/a	n/a
227.9474	0.5	DISTRACTOR	3	36	A	Correct Rejection
228.4474	1.0	ISI	n/a	n/a	n/a	n/a
229.4474	0.5	DISTRACTOR	3	37	I	Correct Rejection
229.9474	1.0	ISI	n/a	n/a	n/a	n/a
230.9474	0.5	DISTRACTOR	3	38	H	Correct Rejection
231.4474	1.0	ISI	n/a	n/a	n/a	n/a
232.4473	0.5	DISTRACTOR	3	39	J	False Alarm
232.9473	1.0	ISI	n/a	n/a	n/a	n/a
232.9531	n/a	RESPONSE	n/a	n/a	n/a	n/a
233.9473	0.5	TARGET	3	40	I	Hit
234.4473	0.9999	ISI	n/a	n/a	n/a	n/a
234.6319	n/a	RESPONSE	n/a	n/a	n/a	n/a
235.4472	0.5	DISTRACTOR	3	41	C	Correct Rejection
235.9473	1.0	ISI	n/a	n/a	n/a	n/a
236.9473	0.5	DISTRACTOR	3	42	F	Correct Rejection
237.4473	1.0	ISI	n/a	n/a	n/a	n/a
238.4472	0.5	DISTRACTOR	3	43	A	Correct Rejection
238.9472	1.0	ISI	n/a	n/a	n/a	n/a
239.9472	0.5	DISTRACTOR	3	44	G	Correct Rejection
240.4472	1.0	ISI	n/a	n/a	n/a	n/a
241.4472	0.5	DISTRACTOR	3	45	E	Correct Rejection
241.9471	1.0	ISI	n/a	n/a	n/a	n/a
242.9471	0.5	DISTRACTOR	3	46	F	Correct Rejection
243.4471	1.0	ISI	n/a	n/a	n/a	n/a
244.4471	0.5	DISTRACTOR	3	47	B	Correct Rejection
244.9471	1.0	ISI	n/a	n/a	n/a	n/a
245.9471	0.5	DISTRACTOR	3	48	C	Correct Rejection
246.4471	1.0	ISI	n/a	n/a	n/a	n/a
247.4471	0.5	TARGET	3	49	F	Miss
247.947	1.0	ISI	n/a	n/a	n/a	n/a
248.947	0.5	DISTRACTOR	3	50	H	Correct Rejection
249.447	1.0	ISI	n/a	n/a	n/a	n/a
252.1074	n/a	RESPONSE	n/a	n/a	n/a	n/a
