onset	duration	trial_type	trial_number	stroop_condition	stim_text(PL)	stim_text(eng)	stim_color(PL)	stim_color(eng)	response_type	response_color
0.0	n/a	RESPONSE	n/a	n/a	n/a	n/a	n/a	n/a	n/a	n/a
0.0518	1.0167	ITI	n/a	n/a	n/a	n/a	n/a	n/a	n/a	n/a
1.0685	0.5167	FIXCROSS	n/a	n/a	n/a	n/a	n/a	n/a	n/a	n/a
1.5851	0.9	T_INK	1	Incongruent	czerwony	red	żółty	yellow	hit	n/a
2.4606	n/a	RESPONSE	n/a	n/a	n/a	n/a	n/a	n/a	n/a	yellow
2.4851	0.5167	FEEDBACK	n/a	n/a	n/a	n/a	n/a	n/a	n/a	n/a
3.0018	1.0167	ITI	n/a	n/a	n/a	n/a	n/a	n/a	n/a	n/a
4.0185	0.5167	FIXCROSS	n/a	n/a	n/a	n/a	n/a	n/a	n/a	n/a
4.5352	1.0333	T_INK	2	Incongruent	zielony	green	niebieski	blue	incorrect	n/a
5.5444	n/a	RESPONSE	n/a	n/a	n/a	n/a	n/a	n/a	n/a	green
5.5685	0.5167	FEEDBACK	n/a	n/a	n/a	n/a	n/a	n/a	n/a	n/a
6.0852	1.0167	ITI	n/a	n/a	n/a	n/a	n/a	n/a	n/a	n/a
7.1018	0.5167	FIXCROSS	n/a	n/a	n/a	n/a	n/a	n/a	n/a	n/a
7.6185	1.9167	T_INK	3	Incongruent	niebieski	blue	czerwony	red	hit	n/a
9.5068	n/a	RESPONSE	n/a	n/a	n/a	n/a	n/a	n/a	n/a	red
9.5352	0.5167	FEEDBACK	n/a	n/a	n/a	n/a	n/a	n/a	n/a	n/a
10.0519	1.0167	ITI	n/a	n/a	n/a	n/a	n/a	n/a	n/a	n/a
11.0685	0.5167	FIXCROSS	n/a	n/a	n/a	n/a	n/a	n/a	n/a	n/a
11.5852	1.1334	T_INK	4	Neutral	xxxxxxxxx	xxxxxxxxx	żółty	yellow	hit	n/a
12.6865	n/a	RESPONSE	n/a	n/a	n/a	n/a	n/a	n/a	n/a	yellow
12.7186	0.5167	FEEDBACK	n/a	n/a	n/a	n/a	n/a	n/a	n/a	n/a
13.2352	1.0167	ITI	n/a	n/a	n/a	n/a	n/a	n/a	n/a	n/a
14.2519	0.5167	FIXCROSS	n/a	n/a	n/a	n/a	n/a	n/a	n/a	n/a
14.7686	1.2667	T_INK	5	Incongruent	żółty	yellow	zielony	green	hit	n/a
16.0099	n/a	RESPONSE	n/a	n/a	n/a	n/a	n/a	n/a	n/a	green
16.0353	0.5167	FEEDBACK	n/a	n/a	n/a	n/a	n/a	n/a	n/a	n/a
16.5519	1.0167	ITI	n/a	n/a	n/a	n/a	n/a	n/a	n/a	n/a
17.5686	0.5167	FIXCROSS	n/a	n/a	n/a	n/a	n/a	n/a	n/a	n/a
18.0853	0.6167	T_INK	6	Incongruent	czerwony	red	niebieski	blue	hit	n/a
18.6782	n/a	RESPONSE	n/a	n/a	n/a	n/a	n/a	n/a	n/a	blue
18.7019	0.5167	FEEDBACK	n/a	n/a	n/a	n/a	n/a	n/a	n/a	n/a
19.2186	1.0167	ITI	n/a	n/a	n/a	n/a	n/a	n/a	n/a	n/a
20.2353	0.5167	FIXCROSS	n/a	n/a	n/a	n/a	n/a	n/a	n/a	n/a
20.752	0.6333	T_INK	7	Neutral	xxxxxxx	xxxxxxx	żółty	yellow	hit	n/a
21.3626	n/a	RESPONSE	n/a	n/a	n/a	n/a	n/a	n/a	n/a	yellow
21.3853	0.5167	FEEDBACK	n/a	n/a	n/a	n/a	n/a	n/a	n/a	n/a
21.902	1.0167	ITI	n/a	n/a	n/a	n/a	n/a	n/a	n/a	n/a
22.9186	0.5167	FIXCROSS	n/a	n/a	n/a	n/a	n/a	n/a	n/a	n/a
23.4353	1.1	T_INK	8	Neutral	xxxxxxx	xxxxxxx	niebieski	blue	hit	n/a
24.5103	n/a	RESPONSE	n/a	n/a	n/a	n/a	n/a	n/a	n/a	blue
24.5353	0.5167	FEEDBACK	n/a	n/a	n/a	n/a	n/a	n/a	n/a	n/a
25.052	1.0167	ITI	n/a	n/a	n/a	n/a	n/a	n/a	n/a	n/a
26.0687	0.5167	FIXCROSS	n/a	n/a	n/a	n/a	n/a	n/a	n/a	n/a
26.5853	1.5833	T_INK	9	Neutral	xxxxx	xxxxx	zielony	green	hit	n/a
28.1372	n/a	RESPONSE	n/a	n/a	n/a	n/a	n/a	n/a	n/a	green
28.1687	0.5167	FEEDBACK	n/a	n/a	n/a	n/a	n/a	n/a	n/a	n/a
28.6853	1.0167	ITI	n/a	n/a	n/a	n/a	n/a	n/a	n/a	n/a
29.702	0.5167	FIXCROSS	n/a	n/a	n/a	n/a	n/a	n/a	n/a	n/a
30.2187	0.9	T_INK	10	Neutral	xxxxxxxxx	xxxxxxxxx	zielony	green	hit	n/a
31.0932	n/a	RESPONSE	n/a	n/a	n/a	n/a	n/a	n/a	n/a	green
31.1187	0.5167	FEEDBACK	n/a	n/a	n/a	n/a	n/a	n/a	n/a	n/a
31.6354	1.0167	ITI	n/a	n/a	n/a	n/a	n/a	n/a	n/a	n/a
32.652	0.5167	FIXCROSS	n/a	n/a	n/a	n/a	n/a	n/a	n/a	n/a
33.1687	0.5	T_INK	11	Incongruent	zielony	green	czerwony	red	hit	n/a
33.6337	n/a	RESPONSE	n/a	n/a	n/a	n/a	n/a	n/a	n/a	red
33.6687	0.5167	FEEDBACK	n/a	n/a	n/a	n/a	n/a	n/a	n/a	n/a
34.1854	1.0167	ITI	n/a	n/a	n/a	n/a	n/a	n/a	n/a	n/a
35.2021	0.5167	FIXCROSS	n/a	n/a	n/a	n/a	n/a	n/a	n/a	n/a
35.7187	0.6	T_INK	12	Neutral	xxxxx	xxxxx	czerwony	red	hit	n/a
36.286	n/a	RESPONSE	n/a	n/a	n/a	n/a	n/a	n/a	n/a	red
36.3187	0.5167	FEEDBACK	n/a	n/a	n/a	n/a	n/a	n/a	n/a	n/a
36.8354	1.0333	ITI	n/a	n/a	n/a	n/a	n/a	n/a	n/a	n/a
56.9935	n/a	RESPONSE	n/a	n/a	n/a	n/a	n/a	n/a	n/a	n/a
57.0522	1.0167	ITI	n/a	n/a	n/a	n/a	n/a	n/a	n/a	n/a
58.0689	0.5167	FIXCROSS	n/a	n/a	n/a	n/a	n/a	n/a	n/a	n/a
58.5856	0.7833	INK	1	Neutral	xxxxxxx	xxxxxxx	czerwony	red	hit	n/a
59.3423	n/a	RESPONSE	n/a	n/a	n/a	n/a	n/a	n/a	n/a	red
59.3689	1.0167	ITI	n/a	n/a	n/a	n/a	n/a	n/a	n/a	n/a
60.3856	0.5167	FIXCROSS	n/a	n/a	n/a	n/a	n/a	n/a	n/a	n/a
60.9023	1.4833	INK	2	Neutral	xxxxx	xxxxx	zielony	green	hit	n/a
62.3621	n/a	RESPONSE	n/a	n/a	n/a	n/a	n/a	n/a	n/a	green
62.3856	1.0167	ITI	n/a	n/a	n/a	n/a	n/a	n/a	n/a	n/a
63.4023	0.5167	FIXCROSS	n/a	n/a	n/a	n/a	n/a	n/a	n/a	n/a
63.919	0.8833	INK	3	Neutral	xxxxxxxx	xxxxxxxx	żółty	yellow	hit	n/a
64.7748	n/a	RESPONSE	n/a	n/a	n/a	n/a	n/a	n/a	n/a	yellow
64.8023	1.0167	ITI	n/a	n/a	n/a	n/a	n/a	n/a	n/a	n/a
65.819	0.5167	FIXCROSS	n/a	n/a	n/a	n/a	n/a	n/a	n/a	n/a
66.3357	1.35	INK	4	Incongruent	zielony	green	niebieski	blue	hit	n/a
67.6667	n/a	RESPONSE	n/a	n/a	n/a	n/a	n/a	n/a	n/a	blue
67.6857	1.0167	ITI	n/a	n/a	n/a	n/a	n/a	n/a	n/a	n/a
68.7023	0.5167	FIXCROSS	n/a	n/a	n/a	n/a	n/a	n/a	n/a	n/a
69.219	0.8333	INK	5	Incongruent	czerwony	red	żółty	yellow	hit	n/a
70.0155	n/a	RESPONSE	n/a	n/a	n/a	n/a	n/a	n/a	n/a	yellow
70.0524	1.0167	ITI	n/a	n/a	n/a	n/a	n/a	n/a	n/a	n/a
71.069	0.5167	FIXCROSS	n/a	n/a	n/a	n/a	n/a	n/a	n/a	n/a
71.5857	0.9	INK	6	Incongruent	niebieski	blue	zielony	green	hit	n/a
72.4601	n/a	RESPONSE	n/a	n/a	n/a	n/a	n/a	n/a	n/a	green
72.4857	1.0167	ITI	n/a	n/a	n/a	n/a	n/a	n/a	n/a	n/a
73.5024	0.5167	FIXCROSS	n/a	n/a	n/a	n/a	n/a	n/a	n/a	n/a
74.019	1.85	INK	7	Incongruent	żółty	yellow	niebieski	blue	hit	n/a
75.8475	n/a	RESPONSE	n/a	n/a	n/a	n/a	n/a	n/a	n/a	blue
75.8691	1.0167	ITI	n/a	n/a	n/a	n/a	n/a	n/a	n/a	n/a
76.8857	0.5167	FIXCROSS	n/a	n/a	n/a	n/a	n/a	n/a	n/a	n/a
77.4024	0.8167	INK	8	Incongruent	czerwony	red	żółty	yellow	hit	n/a
78.1963	n/a	RESPONSE	n/a	n/a	n/a	n/a	n/a	n/a	n/a	yellow
78.2191	1.0167	ITI	n/a	n/a	n/a	n/a	n/a	n/a	n/a	n/a
79.2358	0.5167	FIXCROSS	n/a	n/a	n/a	n/a	n/a	n/a	n/a	n/a
79.7524	1.2333	INK	9	Incongruent	czerwony	red	niebieski	blue	hit	n/a
80.9604	n/a	RESPONSE	n/a	n/a	n/a	n/a	n/a	n/a	n/a	blue
80.9858	1.0167	ITI	n/a	n/a	n/a	n/a	n/a	n/a	n/a	n/a
82.0024	0.5167	FIXCROSS	n/a	n/a	n/a	n/a	n/a	n/a	n/a	n/a
82.5191	0.6	INK	10	Incongruent	czerwony	red	zielony	green	hit	n/a
83.0855	n/a	RESPONSE	n/a	n/a	n/a	n/a	n/a	n/a	n/a	green
83.1191	1.0167	ITI	n/a	n/a	n/a	n/a	n/a	n/a	n/a	n/a
84.1358	0.5167	FIXCROSS	n/a	n/a	n/a	n/a	n/a	n/a	n/a	n/a
84.6525	0.65	INK	11	Incongruent	niebieski	blue	zielony	green	hit	n/a
85.2746	n/a	RESPONSE	n/a	n/a	n/a	n/a	n/a	n/a	n/a	green
85.3025	1.0167	ITI	n/a	n/a	n/a	n/a	n/a	n/a	n/a	n/a
86.3191	0.5167	FIXCROSS	n/a	n/a	n/a	n/a	n/a	n/a	n/a	n/a
86.8358	0.7	INK	12	Neutral	xxxxx	xxxxx	niebieski	blue	hit	n/a
87.5114	n/a	RESPONSE	n/a	n/a	n/a	n/a	n/a	n/a	n/a	blue
87.5358	1.0167	ITI	n/a	n/a	n/a	n/a	n/a	n/a	n/a	n/a
88.5525	0.5167	FIXCROSS	n/a	n/a	n/a	n/a	n/a	n/a	n/a	n/a
89.0692	0.7333	INK	13	Neutral	xxxxxxxx	xxxxxxxx	zielony	green	hit	n/a
89.7804	n/a	RESPONSE	n/a	n/a	n/a	n/a	n/a	n/a	n/a	green
89.8025	1.0167	ITI	n/a	n/a	n/a	n/a	n/a	n/a	n/a	n/a
90.8192	0.5165	FIXCROSS	n/a	n/a	n/a	n/a	n/a	n/a	n/a	n/a
91.3356	0.7669	INK	14	Neutral	xxxxxxx	xxxxxxx	niebieski	blue	hit	n/a
92.0813	n/a	RESPONSE	n/a	n/a	n/a	n/a	n/a	n/a	n/a	blue
92.1025	1.0167	ITI	n/a	n/a	n/a	n/a	n/a	n/a	n/a	n/a
93.1192	0.5167	FIXCROSS	n/a	n/a	n/a	n/a	n/a	n/a	n/a	n/a
93.6359	0.5833	INK	15	Neutral	xxxxx	xxxxx	niebieski	blue	hit	n/a
94.1903	n/a	RESPONSE	n/a	n/a	n/a	n/a	n/a	n/a	n/a	blue
94.2192	1.0167	ITI	n/a	n/a	n/a	n/a	n/a	n/a	n/a	n/a
95.2359	0.5167	FIXCROSS	n/a	n/a	n/a	n/a	n/a	n/a	n/a	n/a
95.7526	0.5833	INK	16	Incongruent	niebieski	blue	czerwony	red	hit	n/a
96.3153	n/a	RESPONSE	n/a	n/a	n/a	n/a	n/a	n/a	n/a	red
96.3359	1.0167	ITI	n/a	n/a	n/a	n/a	n/a	n/a	n/a	n/a
97.3526	0.5167	FIXCROSS	n/a	n/a	n/a	n/a	n/a	n/a	n/a	n/a
97.8692	0.4667	INK	17	Neutral	xxxxxxxxx	xxxxxxxxx	żółty	yellow	hit	n/a
98.3127	n/a	RESPONSE	n/a	n/a	n/a	n/a	n/a	n/a	n/a	yellow
98.3359	1.0167	ITI	n/a	n/a	n/a	n/a	n/a	n/a	n/a	n/a
99.3526	0.5167	FIXCROSS	n/a	n/a	n/a	n/a	n/a	n/a	n/a	n/a
99.8692	0.55	INK	18	Neutral	xxxxxxx	xxxxxxx	żółty	yellow	hit	n/a
100.3898	n/a	RESPONSE	n/a	n/a	n/a	n/a	n/a	n/a	n/a	yellow
100.4193	1.0167	ITI	n/a	n/a	n/a	n/a	n/a	n/a	n/a	n/a
101.4359	0.5167	FIXCROSS	n/a	n/a	n/a	n/a	n/a	n/a	n/a	n/a
101.9526	0.8833	INK	19	Incongruent	żółty	yellow	niebieski	blue	hit	n/a
102.8025	n/a	RESPONSE	n/a	n/a	n/a	n/a	n/a	n/a	n/a	blue
102.8359	1.0167	ITI	n/a	n/a	n/a	n/a	n/a	n/a	n/a	n/a
103.8526	0.5167	FIXCROSS	n/a	n/a	n/a	n/a	n/a	n/a	n/a	n/a
104.3693	0.7	INK	20	Incongruent	żółty	yellow	czerwony	red	hit	n/a
105.0394	n/a	RESPONSE	n/a	n/a	n/a	n/a	n/a	n/a	n/a	red
105.0693	1.0167	ITI	n/a	n/a	n/a	n/a	n/a	n/a	n/a	n/a
106.086	0.5167	FIXCROSS	n/a	n/a	n/a	n/a	n/a	n/a	n/a	n/a
106.6026	0.6333	INK	21	Incongruent	zielony	green	czerwony	red	hit	n/a
107.2124	n/a	RESPONSE	n/a	n/a	n/a	n/a	n/a	n/a	n/a	red
107.236	1.0167	ITI	n/a	n/a	n/a	n/a	n/a	n/a	n/a	n/a
108.2526	0.5167	FIXCROSS	n/a	n/a	n/a	n/a	n/a	n/a	n/a	n/a
108.7693	0.9	INK	22	Incongruent	niebieski	blue	zielony	green	hit	n/a
109.6411	n/a	RESPONSE	n/a	n/a	n/a	n/a	n/a	n/a	n/a	green
109.6693	1.0167	ITI	n/a	n/a	n/a	n/a	n/a	n/a	n/a	n/a
110.686	0.5167	FIXCROSS	n/a	n/a	n/a	n/a	n/a	n/a	n/a	n/a
111.2027	0.6333	INK	23	Incongruent	niebieski	blue	żółty	yellow	hit	n/a
111.8141	n/a	RESPONSE	n/a	n/a	n/a	n/a	n/a	n/a	n/a	yellow
111.836	1.0167	ITI	n/a	n/a	n/a	n/a	n/a	n/a	n/a	n/a
112.8527	0.5167	FIXCROSS	n/a	n/a	n/a	n/a	n/a	n/a	n/a	n/a
113.3694	0.8167	INK	24	Incongruent	czerwony	red	niebieski	blue	hit	n/a
114.1629	n/a	RESPONSE	n/a	n/a	n/a	n/a	n/a	n/a	n/a	blue
114.186	1.0167	ITI	n/a	n/a	n/a	n/a	n/a	n/a	n/a	n/a
115.2027	0.5167	FIXCROSS	n/a	n/a	n/a	n/a	n/a	n/a	n/a	n/a
115.7194	0.6667	INK	25	Neutral	xxxxxxx	xxxxxxx	niebieski	blue	hit	n/a
116.3677	n/a	RESPONSE	n/a	n/a	n/a	n/a	n/a	n/a	n/a	blue
116.386	1.0167	ITI	n/a	n/a	n/a	n/a	n/a	n/a	n/a	n/a
117.4027	0.5167	FIXCROSS	n/a	n/a	n/a	n/a	n/a	n/a	n/a	n/a
117.9194	0.7167	INK	26	Incongruent	czerwony	red	zielony	green	hit	n/a
118.6047	n/a	RESPONSE	n/a	n/a	n/a	n/a	n/a	n/a	n/a	green
118.6361	1.0167	ITI	n/a	n/a	n/a	n/a	n/a	n/a	n/a	n/a
119.6527	0.5167	FIXCROSS	n/a	n/a	n/a	n/a	n/a	n/a	n/a	n/a
120.1694	0.5167	INK	27	Neutral	xxxxx	xxxxx	czerwony	red	hit	n/a
120.6658	n/a	RESPONSE	n/a	n/a	n/a	n/a	n/a	n/a	n/a	red
120.6861	1.0167	ITI	n/a	n/a	n/a	n/a	n/a	n/a	n/a	n/a
121.7028	0.5167	FIXCROSS	n/a	n/a	n/a	n/a	n/a	n/a	n/a	n/a
122.2194	1.2333	INK	28	Incongruent	żółty	yellow	niebieski	blue	incorrect	n/a
123.43	n/a	RESPONSE	n/a	n/a	n/a	n/a	n/a	n/a	n/a	yellow
123.4528	1.0167	ITI	n/a	n/a	n/a	n/a	n/a	n/a	n/a	n/a
124.4694	0.5167	FIXCROSS	n/a	n/a	n/a	n/a	n/a	n/a	n/a	n/a
124.9861	0.8167	INK	29	Neutral	xxxxx	xxxxx	niebieski	blue	incorrect	n/a
125.7789	n/a	RESPONSE	n/a	n/a	n/a	n/a	n/a	n/a	n/a	yellow
125.8028	1.0167	ITI	n/a	n/a	n/a	n/a	n/a	n/a	n/a	n/a
126.8195	0.5167	FIXCROSS	n/a	n/a	n/a	n/a	n/a	n/a	n/a	n/a
127.3361	0.95	INK	30	Incongruent	zielony	green	niebieski	blue	hit	n/a
128.2555	n/a	RESPONSE	n/a	n/a	n/a	n/a	n/a	n/a	n/a	blue
128.2861	1.0167	ITI	n/a	n/a	n/a	n/a	n/a	n/a	n/a	n/a
129.3028	0.5167	FIXCROSS	n/a	n/a	n/a	n/a	n/a	n/a	n/a	n/a
129.8195	0.9667	INK	31	Neutral	xxxxxxx	xxxxxxx	czerwony	red	hit	n/a
130.764	n/a	RESPONSE	n/a	n/a	n/a	n/a	n/a	n/a	n/a	red
130.7862	1.0167	ITI	n/a	n/a	n/a	n/a	n/a	n/a	n/a	n/a
131.8028	0.5167	FIXCROSS	n/a	n/a	n/a	n/a	n/a	n/a	n/a	n/a
132.3195	0.8167	INK	32	Neutral	xxxxx	xxxxx	czerwony	red	hit	n/a
133.1128	n/a	RESPONSE	n/a	n/a	n/a	n/a	n/a	n/a	n/a	red
133.1362	1.0333	ITI	n/a	n/a	n/a	n/a	n/a	n/a	n/a	n/a
134.1695	0.5167	FIXCROSS	n/a	n/a	n/a	n/a	n/a	n/a	n/a	n/a
134.6862	0.6833	INK	33	Neutral	xxxxx	xxxxx	zielony	green	hit	n/a
135.3497	n/a	RESPONSE	n/a	n/a	n/a	n/a	n/a	n/a	n/a	green
135.3695	1.0167	ITI	n/a	n/a	n/a	n/a	n/a	n/a	n/a	n/a
136.3862	0.5167	FIXCROSS	n/a	n/a	n/a	n/a	n/a	n/a	n/a	n/a
136.9029	0.75	INK	34	Neutral	xxxxxxx	xxxxxxx	żółty	yellow	hit	n/a
137.6345	n/a	RESPONSE	n/a	n/a	n/a	n/a	n/a	n/a	n/a	yellow
137.6529	1.0167	ITI	n/a	n/a	n/a	n/a	n/a	n/a	n/a	n/a
138.6696	0.5167	FIXCROSS	n/a	n/a	n/a	n/a	n/a	n/a	n/a	n/a
139.1862	1.55	INK	35	Incongruent	czerwony	red	niebieski	blue	hit	n/a
140.7184	n/a	RESPONSE	n/a	n/a	n/a	n/a	n/a	n/a	n/a	blue
140.7362	1.0167	ITI	n/a	n/a	n/a	n/a	n/a	n/a	n/a	n/a
141.7529	0.5167	FIXCROSS	n/a	n/a	n/a	n/a	n/a	n/a	n/a	n/a
142.2696	0.7667	INK	36	Incongruent	niebieski	blue	żółty	yellow	hit	n/a
143.0032	n/a	RESPONSE	n/a	n/a	n/a	n/a	n/a	n/a	n/a	yellow
143.0363	1.0167	ITI	n/a	n/a	n/a	n/a	n/a	n/a	n/a	n/a
144.0529	0.5167	FIXCROSS	n/a	n/a	n/a	n/a	n/a	n/a	n/a	n/a
144.5696	0.6333	INK	37	Incongruent	żółty	yellow	czerwony	red	incorrect	n/a
145.1762	n/a	RESPONSE	n/a	n/a	n/a	n/a	n/a	n/a	n/a	blue
145.2029	1.0167	ITI	n/a	n/a	n/a	n/a	n/a	n/a	n/a	n/a
146.2196	0.5167	FIXCROSS	n/a	n/a	n/a	n/a	n/a	n/a	n/a	n/a
146.7363	1.7667	INK	38	Incongruent	zielony	green	żółty	yellow	hit	n/a
148.4836	n/a	RESPONSE	n/a	n/a	n/a	n/a	n/a	n/a	n/a	yellow
148.503	1.0167	ITI	n/a	n/a	n/a	n/a	n/a	n/a	n/a	n/a
149.5196	0.5167	FIXCROSS	n/a	n/a	n/a	n/a	n/a	n/a	n/a	n/a
150.0363	1.0333	INK	39	Incongruent	czerwony	red	zielony	green	hit	n/a
151.0401	n/a	RESPONSE	n/a	n/a	n/a	n/a	n/a	n/a	n/a	green
151.0697	1.0167	ITI	n/a	n/a	n/a	n/a	n/a	n/a	n/a	n/a
152.0863	0.5167	FIXCROSS	n/a	n/a	n/a	n/a	n/a	n/a	n/a	n/a
152.603	0.95	INK	40	Neutral	xxxxxxxx	xxxxxxxx	niebieski	blue	hit	n/a
153.5327	n/a	RESPONSE	n/a	n/a	n/a	n/a	n/a	n/a	n/a	blue
153.553	1.0167	ITI	n/a	n/a	n/a	n/a	n/a	n/a	n/a	n/a
154.5697	0.5167	FIXCROSS	n/a	n/a	n/a	n/a	n/a	n/a	n/a	n/a
155.0864	0.4667	INK	41	Neutral	xxxxxxxxx	xxxxxxxxx	czerwony	red	hit	n/a
155.5299	n/a	RESPONSE	n/a	n/a	n/a	n/a	n/a	n/a	n/a	red
155.553	1.0167	ITI	n/a	n/a	n/a	n/a	n/a	n/a	n/a	n/a
156.5697	0.5167	FIXCROSS	n/a	n/a	n/a	n/a	n/a	n/a	n/a	n/a
157.0864	0.7167	INK	42	Incongruent	niebieski	blue	czerwony	red	hit	n/a
157.7828	n/a	RESPONSE	n/a	n/a	n/a	n/a	n/a	n/a	n/a	red
157.803	1.0167	ITI	n/a	n/a	n/a	n/a	n/a	n/a	n/a	n/a
158.8197	0.5167	FIXCROSS	n/a	n/a	n/a	n/a	n/a	n/a	n/a	n/a
159.3364	0.55	INK	43	Neutral	xxxxx	xxxxx	czerwony	red	hit	n/a
159.86	n/a	RESPONSE	n/a	n/a	n/a	n/a	n/a	n/a	n/a	red
159.8864	1.0167	ITI	n/a	n/a	n/a	n/a	n/a	n/a	n/a	n/a
160.9031	0.5167	FIXCROSS	n/a	n/a	n/a	n/a	n/a	n/a	n/a	n/a
161.4197	0.7167	INK	44	Neutral	xxxxxxxxx	xxxxxxxxx	żółty	yellow	hit	n/a
162.1129	n/a	RESPONSE	n/a	n/a	n/a	n/a	n/a	n/a	n/a	yellow
162.1364	1.0167	ITI	n/a	n/a	n/a	n/a	n/a	n/a	n/a	n/a
163.1531	0.5167	FIXCROSS	n/a	n/a	n/a	n/a	n/a	n/a	n/a	n/a
163.6697	0.7667	INK	45	Neutral	xxxxxxxxx	xxxxxxxxx	czerwony	red	hit	n/a
164.4137	n/a	RESPONSE	n/a	n/a	n/a	n/a	n/a	n/a	n/a	red
164.4364	1.0167	ITI	n/a	n/a	n/a	n/a	n/a	n/a	n/a	n/a
165.4531	0.5167	FIXCROSS	n/a	n/a	n/a	n/a	n/a	n/a	n/a	n/a
165.9698	0.85	INK	46	Neutral	xxxxxxx	xxxxxxx	czerwony	red	hit	n/a
166.7944	n/a	RESPONSE	n/a	n/a	n/a	n/a	n/a	n/a	n/a	red
166.8198	1.0167	ITI	n/a	n/a	n/a	n/a	n/a	n/a	n/a	n/a
167.8365	0.5167	FIXCROSS	n/a	n/a	n/a	n/a	n/a	n/a	n/a	n/a
168.3531	1.2333	INK	47	Neutral	xxxxxxxx	xxxxxxxx	zielony	green	hit	n/a
169.5587	n/a	RESPONSE	n/a	n/a	n/a	n/a	n/a	n/a	n/a	green
169.5865	1.0167	ITI	n/a	n/a	n/a	n/a	n/a	n/a	n/a	n/a
170.6031	0.5167	FIXCROSS	n/a	n/a	n/a	n/a	n/a	n/a	n/a	n/a
171.1198	0.7	INK	48	Incongruent	żółty	yellow	zielony	green	hit	n/a
171.7955	n/a	RESPONSE	n/a	n/a	n/a	n/a	n/a	n/a	n/a	green
171.8198	1.0167	ITI	n/a	n/a	n/a	n/a	n/a	n/a	n/a	n/a
172.8365	0.5167	FIXCROSS	n/a	n/a	n/a	n/a	n/a	n/a	n/a	n/a
173.3532	0.7	INK	49	Incongruent	czerwony	red	żółty	yellow	hit	n/a
174.0324	n/a	RESPONSE	n/a	n/a	n/a	n/a	n/a	n/a	n/a	yellow
174.0532	1.0167	ITI	n/a	n/a	n/a	n/a	n/a	n/a	n/a	n/a
175.0698	0.5167	FIXCROSS	n/a	n/a	n/a	n/a	n/a	n/a	n/a	n/a
175.5865	0.6333	INK	50	Neutral	xxxxxxxxx	xxxxxxxxx	czerwony	red	hit	n/a
176.1895	n/a	RESPONSE	n/a	n/a	n/a	n/a	n/a	n/a	n/a	red
176.2198	1.0167	ITI	n/a	n/a	n/a	n/a	n/a	n/a	n/a	n/a
177.2365	0.5167	FIXCROSS	n/a	n/a	n/a	n/a	n/a	n/a	n/a	n/a
177.7532	0.7667	INK	51	Neutral	xxxxxxxxx	xxxxxxxxx	żółty	yellow	hit	n/a
178.4903	n/a	RESPONSE	n/a	n/a	n/a	n/a	n/a	n/a	n/a	yellow
178.5199	1.0167	ITI	n/a	n/a	n/a	n/a	n/a	n/a	n/a	n/a
179.5365	0.5167	FIXCROSS	n/a	n/a	n/a	n/a	n/a	n/a	n/a	n/a
180.0532	0.5833	INK	52	Incongruent	żółty	yellow	zielony	green	hit	n/a
180.6154	n/a	RESPONSE	n/a	n/a	n/a	n/a	n/a	n/a	n/a	green
180.6365	1.0167	ITI	n/a	n/a	n/a	n/a	n/a	n/a	n/a	n/a
181.6532	0.5167	FIXCROSS	n/a	n/a	n/a	n/a	n/a	n/a	n/a	n/a
182.1699	0.6167	INK	53	Neutral	xxxxxxxxx	xxxxxxxxx	zielony	green	hit	n/a
182.7565	n/a	RESPONSE	n/a	n/a	n/a	n/a	n/a	n/a	n/a	green
182.7866	1.0167	ITI	n/a	n/a	n/a	n/a	n/a	n/a	n/a	n/a
183.8032	0.5167	FIXCROSS	n/a	n/a	n/a	n/a	n/a	n/a	n/a	n/a
184.3199	0.8167	INK	54	Incongruent	zielony	green	żółty	yellow	hit	n/a
185.1052	n/a	RESPONSE	n/a	n/a	n/a	n/a	n/a	n/a	n/a	yellow
185.1366	1.0167	ITI	n/a	n/a	n/a	n/a	n/a	n/a	n/a	n/a
186.1533	0.5167	FIXCROSS	n/a	n/a	n/a	n/a	n/a	n/a	n/a	n/a
186.6699	0.7667	INK	55	Neutral	xxxxxxxx	xxxxxxxx	żółty	yellow	hit	n/a
187.4061	n/a	RESPONSE	n/a	n/a	n/a	n/a	n/a	n/a	n/a	yellow
187.4366	1.0167	ITI	n/a	n/a	n/a	n/a	n/a	n/a	n/a	n/a
188.4533	0.5167	FIXCROSS	n/a	n/a	n/a	n/a	n/a	n/a	n/a	n/a
188.9699	1.1167	INK	56	Neutral	xxxxxxxx	xxxxxxxx	niebieski	blue	hit	n/a
190.0584	n/a	RESPONSE	n/a	n/a	n/a	n/a	n/a	n/a	n/a	blue
190.0866	1.0167	ITI	n/a	n/a	n/a	n/a	n/a	n/a	n/a	n/a
191.1033	0.5167	FIXCROSS	n/a	n/a	n/a	n/a	n/a	n/a	n/a	n/a
191.62	0.8	INK	57	Incongruent	zielony	green	czerwony	red	hit	n/a
192.3913	n/a	RESPONSE	n/a	n/a	n/a	n/a	n/a	n/a	n/a	red
192.42	1.0167	ITI	n/a	n/a	n/a	n/a	n/a	n/a	n/a	n/a
193.4367	0.5167	FIXCROSS	n/a	n/a	n/a	n/a	n/a	n/a	n/a	n/a
193.9533	1.2333	INK	58	Neutral	xxxxx	xxxxx	zielony	green	hit	n/a
195.1554	n/a	RESPONSE	n/a	n/a	n/a	n/a	n/a	n/a	n/a	green
195.1867	1.0167	ITI	n/a	n/a	n/a	n/a	n/a	n/a	n/a	n/a
196.2033	0.5167	FIXCROSS	n/a	n/a	n/a	n/a	n/a	n/a	n/a	n/a
196.72	0.6	INK	59	Incongruent	zielony	green	niebieski	blue	hit	n/a
197.2965	n/a	RESPONSE	n/a	n/a	n/a	n/a	n/a	n/a	n/a	blue
197.32	1.0167	ITI	n/a	n/a	n/a	n/a	n/a	n/a	n/a	n/a
198.3367	0.5167	FIXCROSS	n/a	n/a	n/a	n/a	n/a	n/a	n/a	n/a
198.8534	0.9	INK	60	Neutral	xxxxxxx	xxxxxxx	niebieski	blue	hit	n/a
199.7252	n/a	RESPONSE	n/a	n/a	n/a	n/a	n/a	n/a	n/a	blue
199.7534	1.0167	ITI	n/a	n/a	n/a	n/a	n/a	n/a	n/a	n/a
200.77	0.5167	FIXCROSS	n/a	n/a	n/a	n/a	n/a	n/a	n/a	n/a
201.2867	0.9833	INK	61	Incongruent	niebieski	blue	czerwony	red	hit	n/a
202.2496	n/a	RESPONSE	n/a	n/a	n/a	n/a	n/a	n/a	n/a	red
202.2701	1.0167	ITI	n/a	n/a	n/a	n/a	n/a	n/a	n/a	n/a
203.2867	0.5167	FIXCROSS	n/a	n/a	n/a	n/a	n/a	n/a	n/a	n/a
203.8034	0.6667	INK	62	Incongruent	zielony	green	czerwony	red	hit	n/a
204.4386	n/a	RESPONSE	n/a	n/a	n/a	n/a	n/a	n/a	n/a	red
204.4701	1.0167	ITI	n/a	n/a	n/a	n/a	n/a	n/a	n/a	n/a
205.4867	0.5167	FIXCROSS	n/a	n/a	n/a	n/a	n/a	n/a	n/a	n/a
206.0034	1.2167	INK	63	Neutral	xxxxxxxxx	xxxxxxxxx	zielony	green	hit	n/a
207.1868	n/a	RESPONSE	n/a	n/a	n/a	n/a	n/a	n/a	n/a	green
207.2201	1.0167	ITI	n/a	n/a	n/a	n/a	n/a	n/a	n/a	n/a
208.2368	0.5167	FIXCROSS	n/a	n/a	n/a	n/a	n/a	n/a	n/a	n/a
208.7534	0.7667	INK	64	Neutral	xxxxxxxx	xxxxxxxx	niebieski	blue	hit	n/a
209.4877	n/a	RESPONSE	n/a	n/a	n/a	n/a	n/a	n/a	n/a	blue
209.5201	1.0167	ITI	n/a	n/a	n/a	n/a	n/a	n/a	n/a	n/a
210.5368	0.5167	FIXCROSS	n/a	n/a	n/a	n/a	n/a	n/a	n/a	n/a
211.0535	1.3667	INK	65	Neutral	xxxxxxxx	xxxxxxxx	zielony	green	hit	n/a
212.3957	n/a	RESPONSE	n/a	n/a	n/a	n/a	n/a	n/a	n/a	green
212.4201	1.0167	ITI	n/a	n/a	n/a	n/a	n/a	n/a	n/a	n/a
213.4368	0.5167	FIXCROSS	n/a	n/a	n/a	n/a	n/a	n/a	n/a	n/a
213.9535	0.7333	INK	66	Neutral	xxxxxxxx	xxxxxxxx	żółty	yellow	hit	n/a
214.6646	n/a	RESPONSE	n/a	n/a	n/a	n/a	n/a	n/a	n/a	yellow
214.6868	1.0167	ITI	n/a	n/a	n/a	n/a	n/a	n/a	n/a	n/a
215.7035	0.5167	FIXCROSS	n/a	n/a	n/a	n/a	n/a	n/a	n/a	n/a
216.2202	1.3667	INK	67	Incongruent	zielony	green	żółty	yellow	hit	n/a
217.5567	n/a	RESPONSE	n/a	n/a	n/a	n/a	n/a	n/a	n/a	yellow
217.5868	1.0167	ITI	n/a	n/a	n/a	n/a	n/a	n/a	n/a	n/a
218.6035	0.5167	FIXCROSS	n/a	n/a	n/a	n/a	n/a	n/a	n/a	n/a
219.1202	0.7333	INK	68	Incongruent	żółty	yellow	czerwony	red	incorrect	n/a
219.8256	n/a	RESPONSE	n/a	n/a	n/a	n/a	n/a	n/a	n/a	yellow
219.8535	1.0167	ITI	n/a	n/a	n/a	n/a	n/a	n/a	n/a	n/a
220.8702	0.5167	FIXCROSS	n/a	n/a	n/a	n/a	n/a	n/a	n/a	n/a
221.3869	1.2833	INK	69	Neutral	xxxxxxx	xxxxxxx	żółty	yellow	hit	n/a
222.6377	n/a	RESPONSE	n/a	n/a	n/a	n/a	n/a	n/a	n/a	yellow
222.6702	1.0167	ITI	n/a	n/a	n/a	n/a	n/a	n/a	n/a	n/a
223.6869	0.5167	FIXCROSS	n/a	n/a	n/a	n/a	n/a	n/a	n/a	n/a
224.2036	0.9167	INK	70	Neutral	xxxxxxxxx	xxxxxxxxx	zielony	green	hit	n/a
225.0984	n/a	RESPONSE	n/a	n/a	n/a	n/a	n/a	n/a	n/a	green
225.1202	1.0167	ITI	n/a	n/a	n/a	n/a	n/a	n/a	n/a	n/a
226.1369	0.5167	FIXCROSS	n/a	n/a	n/a	n/a	n/a	n/a	n/a	n/a
226.6536	0.75	INK	71	Incongruent	żółty	yellow	zielony	green	hit	n/a
227.3833	n/a	RESPONSE	n/a	n/a	n/a	n/a	n/a	n/a	n/a	green
227.4036	1.0167	ITI	n/a	n/a	n/a	n/a	n/a	n/a	n/a	n/a
228.4203	0.5167	FIXCROSS	n/a	n/a	n/a	n/a	n/a	n/a	n/a	n/a
228.9369	1.0	INK	72	Incongruent	niebieski	blue	żółty	yellow	hit	n/a
229.9077	n/a	RESPONSE	n/a	n/a	n/a	n/a	n/a	n/a	n/a	yellow
229.9369	1.0833	ITI	n/a	n/a	n/a	n/a	n/a	n/a	n/a	n/a
260.9851	n/a	RESPONSE	n/a	n/a	n/a	n/a	n/a	n/a	n/a	n/a
261.0538	1.0167	ITI	n/a	n/a	n/a	n/a	n/a	n/a	n/a	n/a
262.0705	0.5167	FIXCROSS	n/a	n/a	n/a	n/a	n/a	n/a	n/a	n/a
262.5872	2.1334	T_COLOR_NAME	1	Neutral	niebieski	blue	Neutral	Neutral	hit	n/a
264.6921	n/a	RESPONSE	n/a	n/a	n/a	n/a	n/a	n/a	n/a	blue
264.7205	0.5167	FEEDBACK	n/a	n/a	n/a	n/a	n/a	n/a	n/a	n/a
265.2372	1.0167	ITI	n/a	n/a	n/a	n/a	n/a	n/a	n/a	n/a
266.2539	0.5167	FIXCROSS	n/a	n/a	n/a	n/a	n/a	n/a	n/a	n/a
266.7706	0.8833	T_COLOR_NAME	2	Neutral	żółty	yellow	Neutral	Neutral	hit	n/a
267.6321	n/a	RESPONSE	n/a	n/a	n/a	n/a	n/a	n/a	n/a	yellow
267.6539	0.5167	FEEDBACK	n/a	n/a	n/a	n/a	n/a	n/a	n/a	n/a
268.1706	1.0167	ITI	n/a	n/a	n/a	n/a	n/a	n/a	n/a	n/a
269.1872	0.5167	FIXCROSS	n/a	n/a	n/a	n/a	n/a	n/a	n/a	n/a
269.7039	1.2333	T_COLOR_NAME	3	Incongruent	czerwony	red	żółty	yellow	hit	n/a
270.9075	n/a	RESPONSE	n/a	n/a	n/a	n/a	n/a	n/a	n/a	red
270.9373	0.5167	FEEDBACK	n/a	n/a	n/a	n/a	n/a	n/a	n/a	n/a
271.4539	1.0167	ITI	n/a	n/a	n/a	n/a	n/a	n/a	n/a	n/a
272.4706	0.5167	FIXCROSS	n/a	n/a	n/a	n/a	n/a	n/a	n/a	n/a
272.9873	0.9834	T_COLOR_NAME	4	Neutral	niebieski	blue	Neutral	Neutral	hit	n/a
273.9434	n/a	RESPONSE	n/a	n/a	n/a	n/a	n/a	n/a	n/a	blue
273.9706	0.5167	FEEDBACK	n/a	n/a	n/a	n/a	n/a	n/a	n/a	n/a
274.4873	1.0167	ITI	n/a	n/a	n/a	n/a	n/a	n/a	n/a	n/a
275.5039	0.5167	FIXCROSS	n/a	n/a	n/a	n/a	n/a	n/a	n/a	n/a
276.0206	1.5333	T_COLOR_NAME	5	Incongruent	czerwony	red	niebieski	blue	hit	n/a
277.5224	n/a	RESPONSE	n/a	n/a	n/a	n/a	n/a	n/a	n/a	red
277.554	0.5167	FEEDBACK	n/a	n/a	n/a	n/a	n/a	n/a	n/a	n/a
278.0706	1.0167	ITI	n/a	n/a	n/a	n/a	n/a	n/a	n/a	n/a
279.0873	0.5167	FIXCROSS	n/a	n/a	n/a	n/a	n/a	n/a	n/a	n/a
279.604	1.1167	T_COLOR_NAME	6	Neutral	zielony	green	Neutral	Neutral	hit	n/a
280.686	n/a	RESPONSE	n/a	n/a	n/a	n/a	n/a	n/a	n/a	green
280.7207	0.5167	FEEDBACK	n/a	n/a	n/a	n/a	n/a	n/a	n/a	n/a
281.2373	1.0167	ITI	n/a	n/a	n/a	n/a	n/a	n/a	n/a	n/a
282.254	0.5167	FIXCROSS	n/a	n/a	n/a	n/a	n/a	n/a	n/a	n/a
282.7707	0.85	T_COLOR_NAME	7	Neutral	żółty	yellow	Neutral	Neutral	hit	n/a
283.5941	n/a	RESPONSE	n/a	n/a	n/a	n/a	n/a	n/a	n/a	yellow
283.6207	0.5167	FEEDBACK	n/a	n/a	n/a	n/a	n/a	n/a	n/a	n/a
284.1374	1.0167	ITI	n/a	n/a	n/a	n/a	n/a	n/a	n/a	n/a
285.154	0.5167	FIXCROSS	n/a	n/a	n/a	n/a	n/a	n/a	n/a	n/a
285.6707	1.4	T_COLOR_NAME	8	Incongruent	zielony	green	niebieski	blue	hit	n/a
287.0453	n/a	RESPONSE	n/a	n/a	n/a	n/a	n/a	n/a	n/a	green
287.0707	0.5167	FEEDBACK	n/a	n/a	n/a	n/a	n/a	n/a	n/a	n/a
287.5874	1.0167	ITI	n/a	n/a	n/a	n/a	n/a	n/a	n/a	n/a
288.6041	0.5167	FIXCROSS	n/a	n/a	n/a	n/a	n/a	n/a	n/a	n/a
289.1207	0.85	T_COLOR_NAME	9	Neutral	zielony	green	Neutral	Neutral	hit	n/a
289.9374	n/a	RESPONSE	n/a	n/a	n/a	n/a	n/a	n/a	n/a	green
289.9707	0.5167	FEEDBACK	n/a	n/a	n/a	n/a	n/a	n/a	n/a	n/a
290.4874	1.0167	ITI	n/a	n/a	n/a	n/a	n/a	n/a	n/a	n/a
291.5041	0.5167	FIXCROSS	n/a	n/a	n/a	n/a	n/a	n/a	n/a	n/a
292.0207	0.8167	T_COLOR_NAME	10	Incongruent	zielony	green	czerwony	red	hit	n/a
292.8134	n/a	RESPONSE	n/a	n/a	n/a	n/a	n/a	n/a	n/a	green
292.8374	0.5167	FEEDBACK	n/a	n/a	n/a	n/a	n/a	n/a	n/a	n/a
293.3541	1.0167	ITI	n/a	n/a	n/a	n/a	n/a	n/a	n/a	n/a
294.3708	0.5167	FIXCROSS	n/a	n/a	n/a	n/a	n/a	n/a	n/a	n/a
294.8874	0.95	T_COLOR_NAME	11	Incongruent	niebieski	blue	czerwony	red	hit	n/a
295.8174	n/a	RESPONSE	n/a	n/a	n/a	n/a	n/a	n/a	n/a	blue
295.8374	0.5167	FEEDBACK	n/a	n/a	n/a	n/a	n/a	n/a	n/a	n/a
296.3541	1.0167	ITI	n/a	n/a	n/a	n/a	n/a	n/a	n/a	n/a
297.3708	0.5167	FIXCROSS	n/a	n/a	n/a	n/a	n/a	n/a	n/a	n/a
297.8874	0.7167	T_COLOR_NAME	12	Incongruent	żółty	yellow	zielony	green	hit	n/a
298.5816	n/a	RESPONSE	n/a	n/a	n/a	n/a	n/a	n/a	n/a	yellow
298.6041	0.5167	FEEDBACK	n/a	n/a	n/a	n/a	n/a	n/a	n/a	n/a
299.1208	1.0333	ITI	n/a	n/a	n/a	n/a	n/a	n/a	n/a	n/a
306.3149	n/a	RESPONSE	n/a	n/a	n/a	n/a	n/a	n/a	n/a	n/a
306.3709	1.0167	ITI	n/a	n/a	n/a	n/a	n/a	n/a	n/a	n/a
307.3875	0.5167	FIXCROSS	n/a	n/a	n/a	n/a	n/a	n/a	n/a	n/a
307.9042	1.15	COLOR_NAME	1	Incongruent	niebieski	blue	zielony	green	incorrect	n/a
309.0311	n/a	RESPONSE	n/a	n/a	n/a	n/a	n/a	n/a	n/a	red
309.0542	1.0167	ITI	n/a	n/a	n/a	n/a	n/a	n/a	n/a	n/a
310.0709	0.5167	FIXCROSS	n/a	n/a	n/a	n/a	n/a	n/a	n/a	n/a
310.5875	2.4	COLOR_NAME	2	Incongruent	zielony	green	żółty	yellow	hit	n/a
312.9617	n/a	RESPONSE	n/a	n/a	n/a	n/a	n/a	n/a	n/a	green
312.9876	1.0167	ITI	n/a	n/a	n/a	n/a	n/a	n/a	n/a	n/a
314.0042	0.5167	FIXCROSS	n/a	n/a	n/a	n/a	n/a	n/a	n/a	n/a
314.5209	1.2167	COLOR_NAME	3	Neutral	żółty	yellow	Neutral	Neutral	hit	n/a
315.7099	n/a	RESPONSE	n/a	n/a	n/a	n/a	n/a	n/a	n/a	yellow
315.7376	1.0167	ITI	n/a	n/a	n/a	n/a	n/a	n/a	n/a	n/a
316.7543	0.5167	FIXCROSS	n/a	n/a	n/a	n/a	n/a	n/a	n/a	n/a
317.2709	1.55	COLOR_NAME	4	Neutral	niebieski	blue	Neutral	Neutral	hit	n/a
318.7937	n/a	RESPONSE	n/a	n/a	n/a	n/a	n/a	n/a	n/a	blue
318.8209	1.0167	ITI	n/a	n/a	n/a	n/a	n/a	n/a	n/a	n/a
319.8376	0.5167	FIXCROSS	n/a	n/a	n/a	n/a	n/a	n/a	n/a	n/a
320.3543	1.0	COLOR_NAME	5	Incongruent	żółty	yellow	niebieski	blue	hit	n/a
321.3342	n/a	RESPONSE	n/a	n/a	n/a	n/a	n/a	n/a	n/a	yellow
321.3543	1.0167	ITI	n/a	n/a	n/a	n/a	n/a	n/a	n/a	n/a
322.371	0.5167	FIXCROSS	n/a	n/a	n/a	n/a	n/a	n/a	n/a	n/a
322.8876	1.0667	COLOR_NAME	6	Neutral	niebieski	blue	Neutral	Neutral	hit	n/a
323.9227	n/a	RESPONSE	n/a	n/a	n/a	n/a	n/a	n/a	n/a	blue
323.9543	1.0167	ITI	n/a	n/a	n/a	n/a	n/a	n/a	n/a	n/a
324.971	0.5167	FIXCROSS	n/a	n/a	n/a	n/a	n/a	n/a	n/a	n/a
325.4877	0.7667	COLOR_NAME	7	Neutral	czerwony	red	Neutral	Neutral	hit	n/a
326.2235	n/a	RESPONSE	n/a	n/a	n/a	n/a	n/a	n/a	n/a	red
326.2543	1.0167	ITI	n/a	n/a	n/a	n/a	n/a	n/a	n/a	n/a
327.271	0.5167	FIXCROSS	n/a	n/a	n/a	n/a	n/a	n/a	n/a	n/a
327.7877	1.1667	COLOR_NAME	8	Incongruent	zielony	green	czerwony	red	hit	n/a
328.9239	n/a	RESPONSE	n/a	n/a	n/a	n/a	n/a	n/a	n/a	green
328.9544	1.0167	ITI	n/a	n/a	n/a	n/a	n/a	n/a	n/a	n/a
329.971	0.5167	FIXCROSS	n/a	n/a	n/a	n/a	n/a	n/a	n/a	n/a
330.4877	1.1	COLOR_NAME	9	Incongruent	żółty	yellow	zielony	green	hit	n/a
331.5602	n/a	RESPONSE	n/a	n/a	n/a	n/a	n/a	n/a	n/a	yellow
331.5877	1.0167	ITI	n/a	n/a	n/a	n/a	n/a	n/a	n/a	n/a
332.6044	0.5167	FIXCROSS	n/a	n/a	n/a	n/a	n/a	n/a	n/a	n/a
333.1211	1.0333	COLOR_NAME	10	Incongruent	niebieski	blue	zielony	green	incorrect	n/a
334.1327	n/a	RESPONSE	n/a	n/a	n/a	n/a	n/a	n/a	n/a	green
334.1544	1.0167	ITI	n/a	n/a	n/a	n/a	n/a	n/a	n/a	n/a
335.1711	0.5167	FIXCROSS	n/a	n/a	n/a	n/a	n/a	n/a	n/a	n/a
335.6877	1.0667	COLOR_NAME	11	Incongruent	czerwony	red	niebieski	blue	hit	n/a
336.7372	n/a	RESPONSE	n/a	n/a	n/a	n/a	n/a	n/a	n/a	red
336.7544	1.0167	ITI	n/a	n/a	n/a	n/a	n/a	n/a	n/a	n/a
337.7711	0.5167	FIXCROSS	n/a	n/a	n/a	n/a	n/a	n/a	n/a	n/a
338.2878	1.6834	COLOR_NAME	12	Incongruent	zielony	green	czerwony	red	hit	n/a
339.9488	n/a	RESPONSE	n/a	n/a	n/a	n/a	n/a	n/a	n/a	green
339.9711	1.0167	ITI	n/a	n/a	n/a	n/a	n/a	n/a	n/a	n/a
340.9878	0.5167	FIXCROSS	n/a	n/a	n/a	n/a	n/a	n/a	n/a	n/a
341.5045	0.95	COLOR_NAME	13	Neutral	czerwony	red	Neutral	Neutral	hit	n/a
342.4253	n/a	RESPONSE	n/a	n/a	n/a	n/a	n/a	n/a	n/a	red
342.4545	1.0167	ITI	n/a	n/a	n/a	n/a	n/a	n/a	n/a	n/a
343.4711	0.5167	FIXCROSS	n/a	n/a	n/a	n/a	n/a	n/a	n/a	n/a
343.9878	1.3833	COLOR_NAME	14	Neutral	niebieski	blue	Neutral	Neutral	hit	n/a
345.3493	n/a	RESPONSE	n/a	n/a	n/a	n/a	n/a	n/a	n/a	blue
345.3712	1.0167	ITI	n/a	n/a	n/a	n/a	n/a	n/a	n/a	n/a
346.3878	0.5167	FIXCROSS	n/a	n/a	n/a	n/a	n/a	n/a	n/a	n/a
346.9045	0.7833	COLOR_NAME	15	Neutral	czerwony	red	Neutral	Neutral	hit	n/a
347.6661	n/a	RESPONSE	n/a	n/a	n/a	n/a	n/a	n/a	n/a	red
347.6878	1.0167	ITI	n/a	n/a	n/a	n/a	n/a	n/a	n/a	n/a
348.7045	0.5167	FIXCROSS	n/a	n/a	n/a	n/a	n/a	n/a	n/a	n/a
349.2212	1.05	COLOR_NAME	16	Incongruent	zielony	green	żółty	yellow	hit	n/a
350.2386	n/a	RESPONSE	n/a	n/a	n/a	n/a	n/a	n/a	n/a	green
350.2712	1.0167	ITI	n/a	n/a	n/a	n/a	n/a	n/a	n/a	n/a
351.2879	0.5167	FIXCROSS	n/a	n/a	n/a	n/a	n/a	n/a	n/a	n/a
351.8045	0.9833	COLOR_NAME	17	Neutral	czerwony	red	Neutral	Neutral	hit	n/a
352.7631	n/a	RESPONSE	n/a	n/a	n/a	n/a	n/a	n/a	n/a	red
352.7879	1.0167	ITI	n/a	n/a	n/a	n/a	n/a	n/a	n/a	n/a
353.8045	0.5167	FIXCROSS	n/a	n/a	n/a	n/a	n/a	n/a	n/a	n/a
354.3212	1.0167	COLOR_NAME	18	Neutral	niebieski	blue	Neutral	Neutral	hit	n/a
355.3196	n/a	RESPONSE	n/a	n/a	n/a	n/a	n/a	n/a	n/a	blue
355.3379	1.0167	ITI	n/a	n/a	n/a	n/a	n/a	n/a	n/a	n/a
356.3546	0.5167	FIXCROSS	n/a	n/a	n/a	n/a	n/a	n/a	n/a	n/a
356.8712	0.75	COLOR_NAME	19	Neutral	niebieski	blue	Neutral	Neutral	hit	n/a
357.5885	n/a	RESPONSE	n/a	n/a	n/a	n/a	n/a	n/a	n/a	blue
357.6213	1.0167	ITI	n/a	n/a	n/a	n/a	n/a	n/a	n/a	n/a
358.6379	0.5167	FIXCROSS	n/a	n/a	n/a	n/a	n/a	n/a	n/a	n/a
359.1546	1.2	COLOR_NAME	20	Neutral	zielony	green	Neutral	Neutral	hit	n/a
360.3209	n/a	RESPONSE	n/a	n/a	n/a	n/a	n/a	n/a	n/a	green
360.3546	1.0167	ITI	n/a	n/a	n/a	n/a	n/a	n/a	n/a	n/a
361.3713	0.5167	FIXCROSS	n/a	n/a	n/a	n/a	n/a	n/a	n/a	n/a
361.8879	1.25	COLOR_NAME	21	Incongruent	niebieski	blue	żółty	yellow	hit	n/a
363.117	n/a	RESPONSE	n/a	n/a	n/a	n/a	n/a	n/a	n/a	blue
363.138	1.0167	ITI	n/a	n/a	n/a	n/a	n/a	n/a	n/a	n/a
364.1546	0.5167	FIXCROSS	n/a	n/a	n/a	n/a	n/a	n/a	n/a	n/a
364.6713	0.8	COLOR_NAME	22	Neutral	żółty	yellow	Neutral	Neutral	hit	n/a
365.4498	n/a	RESPONSE	n/a	n/a	n/a	n/a	n/a	n/a	n/a	yellow
365.4713	1.0167	ITI	n/a	n/a	n/a	n/a	n/a	n/a	n/a	n/a
366.488	0.5167	FIXCROSS	n/a	n/a	n/a	n/a	n/a	n/a	n/a	n/a
367.0047	0.7667	COLOR_NAME	23	Neutral	żółty	yellow	Neutral	Neutral	hit	n/a
367.7506	n/a	RESPONSE	n/a	n/a	n/a	n/a	n/a	n/a	n/a	yellow
367.7713	1.0167	ITI	n/a	n/a	n/a	n/a	n/a	n/a	n/a	n/a
368.788	0.5167	FIXCROSS	n/a	n/a	n/a	n/a	n/a	n/a	n/a	n/a
369.3047	1.3167	COLOR_NAME	24	Neutral	zielony	green	Neutral	Neutral	incorrect	n/a
370.5948	n/a	RESPONSE	n/a	n/a	n/a	n/a	n/a	n/a	n/a	blue
370.6213	1.0167	ITI	n/a	n/a	n/a	n/a	n/a	n/a	n/a	n/a
371.638	0.5167	FIXCROSS	n/a	n/a	n/a	n/a	n/a	n/a	n/a	n/a
372.1547	1.2834	COLOR_NAME	25	Neutral	żółty	yellow	Neutral	Neutral	hit	n/a
373.4069	n/a	RESPONSE	n/a	n/a	n/a	n/a	n/a	n/a	n/a	yellow
373.438	1.0167	ITI	n/a	n/a	n/a	n/a	n/a	n/a	n/a	n/a
374.4547	0.5167	FIXCROSS	n/a	n/a	n/a	n/a	n/a	n/a	n/a	n/a
374.9714	0.7167	COLOR_NAME	26	Neutral	zielony	green	Neutral	Neutral	hit	n/a
375.6597	n/a	RESPONSE	n/a	n/a	n/a	n/a	n/a	n/a	n/a	green
375.6881	1.0167	ITI	n/a	n/a	n/a	n/a	n/a	n/a	n/a	n/a
376.7047	0.5167	FIXCROSS	n/a	n/a	n/a	n/a	n/a	n/a	n/a	n/a
377.2214	1.0167	COLOR_NAME	27	Incongruent	niebieski	blue	czerwony	red	hit	n/a
378.2162	n/a	RESPONSE	n/a	n/a	n/a	n/a	n/a	n/a	n/a	blue
378.2381	1.0167	ITI	n/a	n/a	n/a	n/a	n/a	n/a	n/a	n/a
379.2547	0.5167	FIXCROSS	n/a	n/a	n/a	n/a	n/a	n/a	n/a	n/a
379.7714	0.7667	COLOR_NAME	28	Neutral	niebieski	blue	Neutral	Neutral	hit	n/a
380.517	n/a	RESPONSE	n/a	n/a	n/a	n/a	n/a	n/a	n/a	blue
380.5381	1.0167	ITI	n/a	n/a	n/a	n/a	n/a	n/a	n/a	n/a
381.5548	0.5167	FIXCROSS	n/a	n/a	n/a	n/a	n/a	n/a	n/a	n/a
382.0714	0.8667	COLOR_NAME	29	Incongruent	niebieski	blue	czerwony	red	hit	n/a
382.9138	n/a	RESPONSE	n/a	n/a	n/a	n/a	n/a	n/a	n/a	blue
382.9381	1.0167	ITI	n/a	n/a	n/a	n/a	n/a	n/a	n/a	n/a
383.9548	0.5167	FIXCROSS	n/a	n/a	n/a	n/a	n/a	n/a	n/a	n/a
384.4715	1.3	COLOR_NAME	30	Incongruent	żółty	yellow	zielony	green	hit	n/a
385.7419	n/a	RESPONSE	n/a	n/a	n/a	n/a	n/a	n/a	n/a	yellow
385.7715	1.0167	ITI	n/a	n/a	n/a	n/a	n/a	n/a	n/a	n/a
386.7881	0.5167	FIXCROSS	n/a	n/a	n/a	n/a	n/a	n/a	n/a	n/a
387.3048	1.15	COLOR_NAME	31	Incongruent	zielony	green	czerwony	red	hit	n/a
388.4262	n/a	RESPONSE	n/a	n/a	n/a	n/a	n/a	n/a	n/a	green
388.4548	1.0167	ITI	n/a	n/a	n/a	n/a	n/a	n/a	n/a	n/a
389.4715	0.5167	FIXCROSS	n/a	n/a	n/a	n/a	n/a	n/a	n/a	n/a
389.9882	0.8333	COLOR_NAME	32	Neutral	zielony	green	Neutral	Neutral	hit	n/a
390.7909	n/a	RESPONSE	n/a	n/a	n/a	n/a	n/a	n/a	n/a	green
390.8215	1.0167	ITI	n/a	n/a	n/a	n/a	n/a	n/a	n/a	n/a
391.8382	0.5167	FIXCROSS	n/a	n/a	n/a	n/a	n/a	n/a	n/a	n/a
392.3548	0.9	COLOR_NAME	33	Incongruent	czerwony	red	żółty	yellow	hit	n/a
393.2357	n/a	RESPONSE	n/a	n/a	n/a	n/a	n/a	n/a	n/a	red
393.2548	1.0167	ITI	n/a	n/a	n/a	n/a	n/a	n/a	n/a	n/a
394.2715	0.5167	FIXCROSS	n/a	n/a	n/a	n/a	n/a	n/a	n/a	n/a
394.7882	0.85	COLOR_NAME	34	Incongruent	czerwony	red	żółty	yellow	hit	n/a
395.6164	n/a	RESPONSE	n/a	n/a	n/a	n/a	n/a	n/a	n/a	red
395.6382	1.0167	ITI	n/a	n/a	n/a	n/a	n/a	n/a	n/a	n/a
396.6549	0.5167	FIXCROSS	n/a	n/a	n/a	n/a	n/a	n/a	n/a	n/a
397.1716	0.9667	COLOR_NAME	35	Incongruent	żółty	yellow	niebieski	blue	hit	n/a
398.109	n/a	RESPONSE	n/a	n/a	n/a	n/a	n/a	n/a	n/a	yellow
398.1382	1.0167	ITI	n/a	n/a	n/a	n/a	n/a	n/a	n/a	n/a
399.1549	0.5167	FIXCROSS	n/a	n/a	n/a	n/a	n/a	n/a	n/a	n/a
399.6716	0.7167	COLOR_NAME	36	Neutral	zielony	green	Neutral	Neutral	hit	n/a
400.3618	n/a	RESPONSE	n/a	n/a	n/a	n/a	n/a	n/a	n/a	green
400.3882	1.0167	ITI	n/a	n/a	n/a	n/a	n/a	n/a	n/a	n/a
401.4049	0.5167	FIXCROSS	n/a	n/a	n/a	n/a	n/a	n/a	n/a	n/a
401.9216	0.7833	COLOR_NAME	37	Incongruent	czerwony	red	niebieski	blue	hit	n/a
402.6786	n/a	RESPONSE	n/a	n/a	n/a	n/a	n/a	n/a	n/a	red
402.7049	1.0167	ITI	n/a	n/a	n/a	n/a	n/a	n/a	n/a	n/a
403.7216	0.5167	FIXCROSS	n/a	n/a	n/a	n/a	n/a	n/a	n/a	n/a
404.2383	1.0167	COLOR_NAME	38	Incongruent	niebieski	blue	żółty	yellow	hit	n/a
405.2351	n/a	RESPONSE	n/a	n/a	n/a	n/a	n/a	n/a	n/a	blue
405.2549	1.0167	ITI	n/a	n/a	n/a	n/a	n/a	n/a	n/a	n/a
406.2716	0.5167	FIXCROSS	n/a	n/a	n/a	n/a	n/a	n/a	n/a	n/a
406.7883	1.2833	COLOR_NAME	39	Neutral	czerwony	red	Neutral	Neutral	hit	n/a
408.0474	n/a	RESPONSE	n/a	n/a	n/a	n/a	n/a	n/a	n/a	red
408.0716	1.0167	ITI	n/a	n/a	n/a	n/a	n/a	n/a	n/a	n/a
409.0883	0.5167	FIXCROSS	n/a	n/a	n/a	n/a	n/a	n/a	n/a	n/a
409.605	1.0667	COLOR_NAME	40	Incongruent	zielony	green	niebieski	blue	hit	n/a
410.6517	n/a	RESPONSE	n/a	n/a	n/a	n/a	n/a	n/a	n/a	green
410.6717	1.0167	ITI	n/a	n/a	n/a	n/a	n/a	n/a	n/a	n/a
411.6883	0.5167	FIXCROSS	n/a	n/a	n/a	n/a	n/a	n/a	n/a	n/a
412.205	0.7333	COLOR_NAME	41	Incongruent	zielony	green	niebieski	blue	hit	n/a
412.9045	n/a	RESPONSE	n/a	n/a	n/a	n/a	n/a	n/a	n/a	green
412.9383	1.0167	ITI	n/a	n/a	n/a	n/a	n/a	n/a	n/a	n/a
413.955	0.5167	FIXCROSS	n/a	n/a	n/a	n/a	n/a	n/a	n/a	n/a
414.4717	0.7833	COLOR_NAME	42	Neutral	czerwony	red	Neutral	Neutral	hit	n/a
415.2374	n/a	RESPONSE	n/a	n/a	n/a	n/a	n/a	n/a	n/a	red
415.255	1.0167	ITI	n/a	n/a	n/a	n/a	n/a	n/a	n/a	n/a
416.2717	0.5167	FIXCROSS	n/a	n/a	n/a	n/a	n/a	n/a	n/a	n/a
416.7884	0.9167	COLOR_NAME	43	Neutral	żółty	yellow	Neutral	Neutral	hit	n/a
417.682	n/a	RESPONSE	n/a	n/a	n/a	n/a	n/a	n/a	n/a	yellow
417.705	1.0167	ITI	n/a	n/a	n/a	n/a	n/a	n/a	n/a	n/a
418.7217	0.5167	FIXCROSS	n/a	n/a	n/a	n/a	n/a	n/a	n/a	n/a
419.2384	1.0	COLOR_NAME	44	Incongruent	czerwony	red	niebieski	blue	hit	n/a
420.2066	n/a	RESPONSE	n/a	n/a	n/a	n/a	n/a	n/a	n/a	red
420.2384	1.0167	ITI	n/a	n/a	n/a	n/a	n/a	n/a	n/a	n/a
421.2551	0.5167	FIXCROSS	n/a	n/a	n/a	n/a	n/a	n/a	n/a	n/a
421.7717	0.85	COLOR_NAME	45	Incongruent	żółty	yellow	czerwony	red	hit	n/a
422.6033	n/a	RESPONSE	n/a	n/a	n/a	n/a	n/a	n/a	n/a	yellow
422.6217	1.0167	ITI	n/a	n/a	n/a	n/a	n/a	n/a	n/a	n/a
423.6384	0.5167	FIXCROSS	n/a	n/a	n/a	n/a	n/a	n/a	n/a	n/a
424.1551	0.65	COLOR_NAME	46	Neutral	czerwony	red	Neutral	Neutral	hit	n/a
424.7763	n/a	RESPONSE	n/a	n/a	n/a	n/a	n/a	n/a	n/a	red
424.8051	1.0167	ITI	n/a	n/a	n/a	n/a	n/a	n/a	n/a	n/a
425.8218	0.5167	FIXCROSS	n/a	n/a	n/a	n/a	n/a	n/a	n/a	n/a
426.3384	0.9667	COLOR_NAME	47	Neutral	niebieski	blue	Neutral	Neutral	hit	n/a
427.2848	n/a	RESPONSE	n/a	n/a	n/a	n/a	n/a	n/a	n/a	blue
427.3051	1.0167	ITI	n/a	n/a	n/a	n/a	n/a	n/a	n/a	n/a
428.3218	0.5167	FIXCROSS	n/a	n/a	n/a	n/a	n/a	n/a	n/a	n/a
428.8384	0.7	COLOR_NAME	48	Neutral	zielony	green	Neutral	Neutral	hit	n/a
429.5058	n/a	RESPONSE	n/a	n/a	n/a	n/a	n/a	n/a	n/a	green
429.5385	1.0167	ITI	n/a	n/a	n/a	n/a	n/a	n/a	n/a	n/a
430.5551	0.5167	FIXCROSS	n/a	n/a	n/a	n/a	n/a	n/a	n/a	n/a
431.0718	1.2	COLOR_NAME	49	Neutral	żółty	yellow	Neutral	Neutral	hit	n/a
432.2541	n/a	RESPONSE	n/a	n/a	n/a	n/a	n/a	n/a	n/a	yellow
432.2718	1.0167	ITI	n/a	n/a	n/a	n/a	n/a	n/a	n/a	n/a
433.2885	0.5167	FIXCROSS	n/a	n/a	n/a	n/a	n/a	n/a	n/a	n/a
433.8052	0.8333	COLOR_NAME	50	Incongruent	zielony	green	niebieski	blue	hit	n/a
434.6028	n/a	RESPONSE	n/a	n/a	n/a	n/a	n/a	n/a	n/a	green
434.6385	1.0167	ITI	n/a	n/a	n/a	n/a	n/a	n/a	n/a	n/a
435.6552	0.5167	FIXCROSS	n/a	n/a	n/a	n/a	n/a	n/a	n/a	n/a
436.1718	0.75	COLOR_NAME	51	Neutral	żółty	yellow	Neutral	Neutral	hit	n/a
436.9037	n/a	RESPONSE	n/a	n/a	n/a	n/a	n/a	n/a	n/a	yellow
436.9218	1.0167	ITI	n/a	n/a	n/a	n/a	n/a	n/a	n/a	n/a
437.9385	0.5167	FIXCROSS	n/a	n/a	n/a	n/a	n/a	n/a	n/a	n/a
438.4552	0.7333	COLOR_NAME	52	Neutral	zielony	green	Neutral	Neutral	hit	n/a
439.1565	n/a	RESPONSE	n/a	n/a	n/a	n/a	n/a	n/a	n/a	green
439.1885	1.0167	ITI	n/a	n/a	n/a	n/a	n/a	n/a	n/a	n/a
440.2052	0.5167	FIXCROSS	n/a	n/a	n/a	n/a	n/a	n/a	n/a	n/a
440.7219	0.6	COLOR_NAME	53	Neutral	niebieski	blue	Neutral	Neutral	hit	n/a
441.2976	n/a	RESPONSE	n/a	n/a	n/a	n/a	n/a	n/a	n/a	blue
441.3219	1.0167	ITI	n/a	n/a	n/a	n/a	n/a	n/a	n/a	n/a
442.3386	0.5167	FIXCROSS	n/a	n/a	n/a	n/a	n/a	n/a	n/a	n/a
442.8552	0.6167	COLOR_NAME	54	Neutral	niebieski	blue	Neutral	Neutral	hit	n/a
443.4362	n/a	RESPONSE	n/a	n/a	n/a	n/a	n/a	n/a	n/a	blue
443.4719	1.0167	ITI	n/a	n/a	n/a	n/a	n/a	n/a	n/a	n/a
444.4886	0.5167	FIXCROSS	n/a	n/a	n/a	n/a	n/a	n/a	n/a	n/a
445.0052	0.8	COLOR_NAME	55	Incongruent	czerwony	red	zielony	green	hit	n/a
445.7876	n/a	RESPONSE	n/a	n/a	n/a	n/a	n/a	n/a	n/a	red
445.8053	1.0167	ITI	n/a	n/a	n/a	n/a	n/a	n/a	n/a	n/a
446.8219	0.5167	FIXCROSS	n/a	n/a	n/a	n/a	n/a	n/a	n/a	n/a
447.3386	0.7333	COLOR_NAME	56	Incongruent	żółty	yellow	niebieski	blue	hit	n/a
448.0404	n/a	RESPONSE	n/a	n/a	n/a	n/a	n/a	n/a	n/a	yellow
448.0719	1.0167	ITI	n/a	n/a	n/a	n/a	n/a	n/a	n/a	n/a
449.0886	0.5167	FIXCROSS	n/a	n/a	n/a	n/a	n/a	n/a	n/a	n/a
449.6053	0.6167	COLOR_NAME	57	Neutral	żółty	yellow	Neutral	Neutral	hit	n/a
450.1975	n/a	RESPONSE	n/a	n/a	n/a	n/a	n/a	n/a	n/a	yellow
450.2219	1.0167	ITI	n/a	n/a	n/a	n/a	n/a	n/a	n/a	n/a
451.2386	0.5167	FIXCROSS	n/a	n/a	n/a	n/a	n/a	n/a	n/a	n/a
451.7553	0.75	COLOR_NAME	58	Neutral	czerwony	red	Neutral	Neutral	hit	n/a
452.4824	n/a	RESPONSE	n/a	n/a	n/a	n/a	n/a	n/a	n/a	red
452.5053	1.0167	ITI	n/a	n/a	n/a	n/a	n/a	n/a	n/a	n/a
453.522	0.5167	FIXCROSS	n/a	n/a	n/a	n/a	n/a	n/a	n/a	n/a
454.0386	1.0	COLOR_NAME	59	Neutral	zielony	green	Neutral	Neutral	hit	n/a
455.007	n/a	RESPONSE	n/a	n/a	n/a	n/a	n/a	n/a	n/a	green
455.0387	1.0167	ITI	n/a	n/a	n/a	n/a	n/a	n/a	n/a	n/a
456.0553	0.5167	FIXCROSS	n/a	n/a	n/a	n/a	n/a	n/a	n/a	n/a
456.572	0.6167	COLOR_NAME	60	Incongruent	niebieski	blue	czerwony	red	hit	n/a
457.1639	n/a	RESPONSE	n/a	n/a	n/a	n/a	n/a	n/a	n/a	blue
457.1887	1.0167	ITI	n/a	n/a	n/a	n/a	n/a	n/a	n/a	n/a
458.2053	0.5167	FIXCROSS	n/a	n/a	n/a	n/a	n/a	n/a	n/a	n/a
458.722	1.8667	COLOR_NAME	61	Incongruent	zielony	green	żółty	yellow	incorrect	n/a
460.5673	n/a	RESPONSE	n/a	n/a	n/a	n/a	n/a	n/a	n/a	blue
460.5887	1.0167	ITI	n/a	n/a	n/a	n/a	n/a	n/a	n/a	n/a
461.6054	0.5167	FIXCROSS	n/a	n/a	n/a	n/a	n/a	n/a	n/a	n/a
462.122	0.7833	COLOR_NAME	62	Incongruent	czerwony	red	zielony	green	hit	n/a
462.8842	n/a	RESPONSE	n/a	n/a	n/a	n/a	n/a	n/a	n/a	red
462.9054	1.0167	ITI	n/a	n/a	n/a	n/a	n/a	n/a	n/a	n/a
463.9221	0.5167	FIXCROSS	n/a	n/a	n/a	n/a	n/a	n/a	n/a	n/a
464.4387	0.8667	COLOR_NAME	63	Neutral	żółty	yellow	Neutral	Neutral	hit	n/a
465.2809	n/a	RESPONSE	n/a	n/a	n/a	n/a	n/a	n/a	n/a	yellow
465.3054	1.0167	ITI	n/a	n/a	n/a	n/a	n/a	n/a	n/a	n/a
466.3221	0.5167	FIXCROSS	n/a	n/a	n/a	n/a	n/a	n/a	n/a	n/a
466.8387	0.8	COLOR_NAME	64	Incongruent	żółty	yellow	czerwony	red	hit	n/a
467.6137	n/a	RESPONSE	n/a	n/a	n/a	n/a	n/a	n/a	n/a	yellow
467.6388	1.0167	ITI	n/a	n/a	n/a	n/a	n/a	n/a	n/a	n/a
468.6554	0.5167	FIXCROSS	n/a	n/a	n/a	n/a	n/a	n/a	n/a	n/a
469.1721	0.9833	COLOR_NAME	65	Incongruent	niebieski	blue	żółty	yellow	hit	n/a
470.1382	n/a	RESPONSE	n/a	n/a	n/a	n/a	n/a	n/a	n/a	blue
470.1554	1.0167	ITI	n/a	n/a	n/a	n/a	n/a	n/a	n/a	n/a
471.1721	0.5167	FIXCROSS	n/a	n/a	n/a	n/a	n/a	n/a	n/a	n/a
471.6888	0.7333	COLOR_NAME	66	Incongruent	żółty	yellow	czerwony	red	hit	n/a
472.391	n/a	RESPONSE	n/a	n/a	n/a	n/a	n/a	n/a	n/a	yellow
472.4221	1.0167	ITI	n/a	n/a	n/a	n/a	n/a	n/a	n/a	n/a
473.4388	0.5167	FIXCROSS	n/a	n/a	n/a	n/a	n/a	n/a	n/a	n/a
473.9555	0.85	COLOR_NAME	67	Incongruent	niebieski	blue	zielony	green	hit	n/a
474.7719	n/a	RESPONSE	n/a	n/a	n/a	n/a	n/a	n/a	n/a	blue
474.8055	1.0167	ITI	n/a	n/a	n/a	n/a	n/a	n/a	n/a	n/a
475.8221	0.5167	FIXCROSS	n/a	n/a	n/a	n/a	n/a	n/a	n/a	n/a
476.3388	0.7833	COLOR_NAME	68	Neutral	czerwony	red	Neutral	Neutral	hit	n/a
477.0887	n/a	RESPONSE	n/a	n/a	n/a	n/a	n/a	n/a	n/a	red
477.1222	1.0167	ITI	n/a	n/a	n/a	n/a	n/a	n/a	n/a	n/a
478.1388	0.5167	FIXCROSS	n/a	n/a	n/a	n/a	n/a	n/a	n/a	n/a
478.6555	0.8	COLOR_NAME	69	Incongruent	czerwony	red	zielony	green	hit	n/a
479.4374	n/a	RESPONSE	n/a	n/a	n/a	n/a	n/a	n/a	n/a	red
479.4555	1.0167	ITI	n/a	n/a	n/a	n/a	n/a	n/a	n/a	n/a
480.4722	0.5167	FIXCROSS	n/a	n/a	n/a	n/a	n/a	n/a	n/a	n/a
480.9889	0.9167	COLOR_NAME	70	Incongruent	żółty	yellow	zielony	green	hit	n/a
481.882	n/a	RESPONSE	n/a	n/a	n/a	n/a	n/a	n/a	n/a	yellow
481.9055	1.0167	ITI	n/a	n/a	n/a	n/a	n/a	n/a	n/a	n/a
482.4253	n/a	RESPONSE	n/a	n/a	n/a	n/a	n/a	n/a	n/a	yellow
482.9222	0.5167	FIXCROSS	n/a	n/a	n/a	n/a	n/a	n/a	n/a	n/a
483.4389	0.7333	COLOR_NAME	71	Neutral	zielony	green	Neutral	Neutral	hit	n/a
484.151	n/a	RESPONSE	n/a	n/a	n/a	n/a	n/a	n/a	n/a	green
484.1722	1.0167	ITI	n/a	n/a	n/a	n/a	n/a	n/a	n/a	n/a
485.1889	0.5167	FIXCROSS	n/a	n/a	n/a	n/a	n/a	n/a	n/a	n/a
485.7056	0.7833	COLOR_NAME	72	Incongruent	czerwony	red	żółty	yellow	hit	n/a
486.4679	n/a	RESPONSE	n/a	n/a	n/a	n/a	n/a	n/a	n/a	red
486.4889	1.0333	ITI	n/a	n/a	n/a	n/a	n/a	n/a	n/a	n/a
490.5422	n/a	RESPONSE	n/a	n/a	n/a	n/a	n/a	n/a	n/a	n/a
