onset	duration	trial_type	trial_number	stroop_condition	stim_text(PL)	stim_text(eng)	stim_color(PL)	stim_color(eng)	response_type	response_color
0.0	n/a	RESPONSE	n/a	n/a	n/a	n/a	n/a	n/a	n/a	n/a
0.062	1.0167	ITI	n/a	n/a	n/a	n/a	n/a	n/a	n/a	n/a
1.0787	0.5167	FIXCROSS	n/a	n/a	n/a	n/a	n/a	n/a	n/a	n/a
1.5953	0.95	T_INK	1	Neutral	xxxxxxxxx	xxxxxxxxx	czerwony	red	hit	n/a
2.5089	n/a	RESPONSE	n/a	n/a	n/a	n/a	n/a	n/a	n/a	red
2.5453	0.5167	FEEDBACK	n/a	n/a	n/a	n/a	n/a	n/a	n/a	n/a
3.062	1.0167	ITI	n/a	n/a	n/a	n/a	n/a	n/a	n/a	n/a
4.0787	0.5167	FIXCROSS	n/a	n/a	n/a	n/a	n/a	n/a	n/a	n/a
4.5954	0.8167	T_INK	2	Incongruent	zielony	green	żółty	yellow	hit	n/a
5.3856	n/a	RESPONSE	n/a	n/a	n/a	n/a	n/a	n/a	n/a	yellow
5.412	0.5167	FEEDBACK	n/a	n/a	n/a	n/a	n/a	n/a	n/a	n/a
5.9287	1.0167	ITI	n/a	n/a	n/a	n/a	n/a	n/a	n/a	n/a
6.9454	0.5167	FIXCROSS	n/a	n/a	n/a	n/a	n/a	n/a	n/a	n/a
7.4621	0.8333	T_INK	3	Incongruent	czerwony	red	zielony	green	hit	n/a
8.2622	n/a	RESPONSE	n/a	n/a	n/a	n/a	n/a	n/a	n/a	green
8.2954	0.5167	FEEDBACK	n/a	n/a	n/a	n/a	n/a	n/a	n/a	n/a
8.8121	1.0167	ITI	n/a	n/a	n/a	n/a	n/a	n/a	n/a	n/a
9.8287	0.5167	FIXCROSS	n/a	n/a	n/a	n/a	n/a	n/a	n/a	n/a
10.3454	0.9667	T_INK	4	Neutral	xxxxxxxx	xxxxxxxx	niebieski	blue	hit	n/a
11.2827	n/a	RESPONSE	n/a	n/a	n/a	n/a	n/a	n/a	n/a	blue
11.3121	0.5167	FEEDBACK	n/a	n/a	n/a	n/a	n/a	n/a	n/a	n/a
11.8287	1.0167	ITI	n/a	n/a	n/a	n/a	n/a	n/a	n/a	n/a
12.8454	0.5167	FIXCROSS	n/a	n/a	n/a	n/a	n/a	n/a	n/a	n/a
13.3621	0.7667	T_INK	5	Incongruent	czerwony	red	niebieski	blue	hit	n/a
14.0954	n/a	RESPONSE	n/a	n/a	n/a	n/a	n/a	n/a	n/a	blue
14.1288	0.5167	FEEDBACK	n/a	n/a	n/a	n/a	n/a	n/a	n/a	n/a
14.6454	1.0167	ITI	n/a	n/a	n/a	n/a	n/a	n/a	n/a	n/a
15.6621	0.5167	FIXCROSS	n/a	n/a	n/a	n/a	n/a	n/a	n/a	n/a
16.1788	0.4833	T_INK	6	Neutral	xxxxx	xxxxx	niebieski	blue	hit	n/a
16.6365	n/a	RESPONSE	n/a	n/a	n/a	n/a	n/a	n/a	n/a	blue
16.6621	0.5167	FEEDBACK	n/a	n/a	n/a	n/a	n/a	n/a	n/a	n/a
17.1788	1.0167	ITI	n/a	n/a	n/a	n/a	n/a	n/a	n/a	n/a
18.1955	0.5167	FIXCROSS	n/a	n/a	n/a	n/a	n/a	n/a	n/a	n/a
18.7121	1.0667	T_INK	7	Incongruent	niebieski	blue	zielony	green	hit	n/a
19.7529	n/a	RESPONSE	n/a	n/a	n/a	n/a	n/a	n/a	n/a	green
19.7788	0.5167	FEEDBACK	n/a	n/a	n/a	n/a	n/a	n/a	n/a	n/a
20.2955	1.0167	ITI	n/a	n/a	n/a	n/a	n/a	n/a	n/a	n/a
21.3122	0.5167	FIXCROSS	n/a	n/a	n/a	n/a	n/a	n/a	n/a	n/a
21.8288	0.8833	T_INK	8	Neutral	xxxxx	xxxxx	zielony	green	hit	n/a
22.6774	n/a	RESPONSE	n/a	n/a	n/a	n/a	n/a	n/a	n/a	green
22.7122	0.5167	FEEDBACK	n/a	n/a	n/a	n/a	n/a	n/a	n/a	n/a
23.2288	1.0167	ITI	n/a	n/a	n/a	n/a	n/a	n/a	n/a	n/a
24.2455	0.5167	FIXCROSS	n/a	n/a	n/a	n/a	n/a	n/a	n/a	n/a
24.7622	0.8	T_INK	9	Incongruent	zielony	green	niebieski	blue	hit	n/a
25.538	n/a	RESPONSE	n/a	n/a	n/a	n/a	n/a	n/a	n/a	blue
25.5622	0.5167	FEEDBACK	n/a	n/a	n/a	n/a	n/a	n/a	n/a	n/a
26.0789	1.0167	ITI	n/a	n/a	n/a	n/a	n/a	n/a	n/a	n/a
27.0955	0.5167	FIXCROSS	n/a	n/a	n/a	n/a	n/a	n/a	n/a	n/a
27.6122	0.7167	T_INK	10	Neutral	xxxxxxxxx	xxxxxxxxx	żółty	yellow	hit	n/a
28.3029	n/a	RESPONSE	n/a	n/a	n/a	n/a	n/a	n/a	n/a	yellow
28.3289	0.5167	FEEDBACK	n/a	n/a	n/a	n/a	n/a	n/a	n/a	n/a
28.8455	1.0167	ITI	n/a	n/a	n/a	n/a	n/a	n/a	n/a	n/a
29.8622	0.5167	FIXCROSS	n/a	n/a	n/a	n/a	n/a	n/a	n/a	n/a
30.3789	0.8833	T_INK	11	Incongruent	żółty	yellow	niebieski	blue	hit	n/a
31.2273	n/a	RESPONSE	n/a	n/a	n/a	n/a	n/a	n/a	n/a	blue
31.2622	0.5167	FEEDBACK	n/a	n/a	n/a	n/a	n/a	n/a	n/a	n/a
31.7789	1.0167	ITI	n/a	n/a	n/a	n/a	n/a	n/a	n/a	n/a
32.7956	0.5167	FIXCROSS	n/a	n/a	n/a	n/a	n/a	n/a	n/a	n/a
33.3123	0.9167	T_INK	12	Neutral	xxxxxxx	xxxxxxx	czerwony	red	hit	n/a
34.1999	n/a	RESPONSE	n/a	n/a	n/a	n/a	n/a	n/a	n/a	red
34.2289	0.5167	FEEDBACK	n/a	n/a	n/a	n/a	n/a	n/a	n/a	n/a
34.7456	1.0333	ITI	n/a	n/a	n/a	n/a	n/a	n/a	n/a	n/a
40.6882	n/a	RESPONSE	n/a	n/a	n/a	n/a	n/a	n/a	n/a	n/a
40.7457	1.0167	ITI	n/a	n/a	n/a	n/a	n/a	n/a	n/a	n/a
41.7623	0.5167	FIXCROSS	n/a	n/a	n/a	n/a	n/a	n/a	n/a	n/a
42.279	2.1	INK	1	Incongruent	czerwony	red	żółty	yellow	hit	n/a
44.3479	n/a	RESPONSE	n/a	n/a	n/a	n/a	n/a	n/a	n/a	yellow
44.379	1.0167	ITI	n/a	n/a	n/a	n/a	n/a	n/a	n/a	n/a
45.3957	0.5167	FIXCROSS	n/a	n/a	n/a	n/a	n/a	n/a	n/a	n/a
45.9124	0.8333	INK	2	Neutral	xxxxxxxx	xxxxxxxx	zielony	green	hit	n/a
46.7133	n/a	RESPONSE	n/a	n/a	n/a	n/a	n/a	n/a	n/a	green
46.7457	1.0167	ITI	n/a	n/a	n/a	n/a	n/a	n/a	n/a	n/a
47.7624	0.5167	FIXCROSS	n/a	n/a	n/a	n/a	n/a	n/a	n/a	n/a
48.279	0.8	INK	3	Neutral	xxxxx	xxxxx	czerwony	red	hit	n/a
49.0466	n/a	RESPONSE	n/a	n/a	n/a	n/a	n/a	n/a	n/a	red
49.079	1.0167	ITI	n/a	n/a	n/a	n/a	n/a	n/a	n/a	n/a
50.0957	0.5167	FIXCROSS	n/a	n/a	n/a	n/a	n/a	n/a	n/a	n/a
50.6124	0.9	INK	4	Neutral	xxxxx	xxxxx	zielony	green	hit	n/a
51.4917	n/a	RESPONSE	n/a	n/a	n/a	n/a	n/a	n/a	n/a	green
51.5124	1.0167	ITI	n/a	n/a	n/a	n/a	n/a	n/a	n/a	n/a
52.5291	0.5167	FIXCROSS	n/a	n/a	n/a	n/a	n/a	n/a	n/a	n/a
53.0458	0.6333	INK	5	Neutral	xxxxx	xxxxx	zielony	green	hit	n/a
53.6492	n/a	RESPONSE	n/a	n/a	n/a	n/a	n/a	n/a	n/a	green
53.6791	1.0167	ITI	n/a	n/a	n/a	n/a	n/a	n/a	n/a	n/a
54.6958	0.5167	FIXCROSS	n/a	n/a	n/a	n/a	n/a	n/a	n/a	n/a
55.2124	1.9834	INK	6	Incongruent	zielony	green	niebieski	blue	hit	n/a
57.165	n/a	RESPONSE	n/a	n/a	n/a	n/a	n/a	n/a	n/a	blue
57.1958	1.0167	ITI	n/a	n/a	n/a	n/a	n/a	n/a	n/a	n/a
58.2125	0.5167	FIXCROSS	n/a	n/a	n/a	n/a	n/a	n/a	n/a	n/a
58.7291	0.8667	INK	7	Incongruent	niebieski	blue	zielony	green	hit	n/a
59.5782	n/a	RESPONSE	n/a	n/a	n/a	n/a	n/a	n/a	n/a	green
59.5958	1.0167	ITI	n/a	n/a	n/a	n/a	n/a	n/a	n/a	n/a
60.6125	0.5167	FIXCROSS	n/a	n/a	n/a	n/a	n/a	n/a	n/a	n/a
61.1292	0.7667	INK	8	Neutral	xxxxxxxx	xxxxxxxx	żółty	yellow	hit	n/a
61.8635	n/a	RESPONSE	n/a	n/a	n/a	n/a	n/a	n/a	n/a	yellow
61.8958	1.0167	ITI	n/a	n/a	n/a	n/a	n/a	n/a	n/a	n/a
62.9125	0.5167	FIXCROSS	n/a	n/a	n/a	n/a	n/a	n/a	n/a	n/a
63.4292	0.9	INK	9	Neutral	xxxxxxx	xxxxxxx	niebieski	blue	hit	n/a
64.3087	n/a	RESPONSE	n/a	n/a	n/a	n/a	n/a	n/a	n/a	blue
64.3292	1.0167	ITI	n/a	n/a	n/a	n/a	n/a	n/a	n/a	n/a
65.3458	0.5167	FIXCROSS	n/a	n/a	n/a	n/a	n/a	n/a	n/a	n/a
65.8625	0.8667	INK	10	Incongruent	czerwony	red	niebieski	blue	hit	n/a
66.7058	n/a	RESPONSE	n/a	n/a	n/a	n/a	n/a	n/a	n/a	blue
66.7292	1.0167	ITI	n/a	n/a	n/a	n/a	n/a	n/a	n/a	n/a
67.7459	0.5167	FIXCROSS	n/a	n/a	n/a	n/a	n/a	n/a	n/a	n/a
68.2625	1.0833	INK	11	Incongruent	żółty	yellow	czerwony	red	hit	n/a
69.3108	n/a	RESPONSE	n/a	n/a	n/a	n/a	n/a	n/a	n/a	red
69.3459	1.0167	ITI	n/a	n/a	n/a	n/a	n/a	n/a	n/a	n/a
70.3625	0.5167	FIXCROSS	n/a	n/a	n/a	n/a	n/a	n/a	n/a	n/a
70.8792	1.0	INK	12	Incongruent	czerwony	red	niebieski	blue	hit	n/a
71.8519	n/a	RESPONSE	n/a	n/a	n/a	n/a	n/a	n/a	n/a	blue
71.8792	1.0167	ITI	n/a	n/a	n/a	n/a	n/a	n/a	n/a	n/a
72.8959	0.5167	FIXCROSS	n/a	n/a	n/a	n/a	n/a	n/a	n/a	n/a
73.4126	0.7833	INK	13	Neutral	xxxxxxx	xxxxxxx	czerwony	red	hit	n/a
74.1692	n/a	RESPONSE	n/a	n/a	n/a	n/a	n/a	n/a	n/a	red
74.1959	1.0167	ITI	n/a	n/a	n/a	n/a	n/a	n/a	n/a	n/a
75.2126	0.5167	FIXCROSS	n/a	n/a	n/a	n/a	n/a	n/a	n/a	n/a
75.7293	0.85	INK	14	Incongruent	żółty	yellow	niebieski	blue	hit	n/a
76.5504	n/a	RESPONSE	n/a	n/a	n/a	n/a	n/a	n/a	n/a	blue
76.5793	1.0167	ITI	n/a	n/a	n/a	n/a	n/a	n/a	n/a	n/a
77.5959	0.5167	FIXCROSS	n/a	n/a	n/a	n/a	n/a	n/a	n/a	n/a
78.1126	0.7167	INK	15	Incongruent	zielony	green	żółty	yellow	hit	n/a
78.8038	n/a	RESPONSE	n/a	n/a	n/a	n/a	n/a	n/a	n/a	yellow
78.8293	1.0167	ITI	n/a	n/a	n/a	n/a	n/a	n/a	n/a	n/a
79.846	0.5167	FIXCROSS	n/a	n/a	n/a	n/a	n/a	n/a	n/a	n/a
80.3626	0.7167	INK	16	Incongruent	niebieski	blue	zielony	green	hit	n/a
81.0572	n/a	RESPONSE	n/a	n/a	n/a	n/a	n/a	n/a	n/a	green
81.0793	1.0167	ITI	n/a	n/a	n/a	n/a	n/a	n/a	n/a	n/a
82.096	0.5167	FIXCROSS	n/a	n/a	n/a	n/a	n/a	n/a	n/a	n/a
82.6126	0.7167	INK	17	Neutral	xxxxx	xxxxx	niebieski	blue	hit	n/a
83.3106	n/a	RESPONSE	n/a	n/a	n/a	n/a	n/a	n/a	n/a	blue
83.3293	1.0167	ITI	n/a	n/a	n/a	n/a	n/a	n/a	n/a	n/a
84.346	0.5167	FIXCROSS	n/a	n/a	n/a	n/a	n/a	n/a	n/a	n/a
84.8627	0.7167	INK	18	Neutral	xxxxxxxxx	xxxxxxxxx	czerwony	red	hit	n/a
85.5481	n/a	RESPONSE	n/a	n/a	n/a	n/a	n/a	n/a	n/a	red
85.5793	1.0167	ITI	n/a	n/a	n/a	n/a	n/a	n/a	n/a	n/a
86.596	0.5167	FIXCROSS	n/a	n/a	n/a	n/a	n/a	n/a	n/a	n/a
87.1127	0.65	INK	19	Neutral	xxxxx	xxxxx	czerwony	red	hit	n/a
87.7375	n/a	RESPONSE	n/a	n/a	n/a	n/a	n/a	n/a	n/a	red
87.7627	1.0167	ITI	n/a	n/a	n/a	n/a	n/a	n/a	n/a	n/a
88.7794	0.5167	FIXCROSS	n/a	n/a	n/a	n/a	n/a	n/a	n/a	n/a
89.296	0.8834	INK	20	Neutral	xxxxxxxx	xxxxxxxx	żółty	yellow	hit	n/a
90.1508	n/a	RESPONSE	n/a	n/a	n/a	n/a	n/a	n/a	n/a	yellow
90.1794	1.0167	ITI	n/a	n/a	n/a	n/a	n/a	n/a	n/a	n/a
91.196	0.5167	FIXCROSS	n/a	n/a	n/a	n/a	n/a	n/a	n/a	n/a
91.7127	1.0167	INK	21	Incongruent	żółty	yellow	zielony	green	hit	n/a
92.7079	n/a	RESPONSE	n/a	n/a	n/a	n/a	n/a	n/a	n/a	green
92.7294	1.0167	ITI	n/a	n/a	n/a	n/a	n/a	n/a	n/a	n/a
93.7461	0.5167	FIXCROSS	n/a	n/a	n/a	n/a	n/a	n/a	n/a	n/a
94.2627	0.8833	INK	22	Incongruent	zielony	green	czerwony	red	hit	n/a
95.1211	n/a	RESPONSE	n/a	n/a	n/a	n/a	n/a	n/a	n/a	red
95.1461	1.0167	ITI	n/a	n/a	n/a	n/a	n/a	n/a	n/a	n/a
96.1628	0.5167	FIXCROSS	n/a	n/a	n/a	n/a	n/a	n/a	n/a	n/a
96.6794	0.85	INK	23	Incongruent	zielony	green	żółty	yellow	hit	n/a
97.5023	n/a	RESPONSE	n/a	n/a	n/a	n/a	n/a	n/a	n/a	yellow
97.5294	1.0167	ITI	n/a	n/a	n/a	n/a	n/a	n/a	n/a	n/a
98.5461	0.5167	FIXCROSS	n/a	n/a	n/a	n/a	n/a	n/a	n/a	n/a
99.0628	0.6667	INK	24	Incongruent	żółty	yellow	czerwony	red	hit	n/a
99.7078	n/a	RESPONSE	n/a	n/a	n/a	n/a	n/a	n/a	n/a	red
99.7294	1.0167	ITI	n/a	n/a	n/a	n/a	n/a	n/a	n/a	n/a
100.7461	0.5167	FIXCROSS	n/a	n/a	n/a	n/a	n/a	n/a	n/a	n/a
101.2628	0.5333	INK	25	Incongruent	żółty	yellow	czerwony	red	hit	n/a
101.7694	n/a	RESPONSE	n/a	n/a	n/a	n/a	n/a	n/a	n/a	red
101.7961	1.0167	ITI	n/a	n/a	n/a	n/a	n/a	n/a	n/a	n/a
102.8128	0.5167	FIXCROSS	n/a	n/a	n/a	n/a	n/a	n/a	n/a	n/a
103.3295	0.9667	INK	26	Neutral	xxxxxxxx	xxxxxxxx	zielony	green	hit	n/a
104.2625	n/a	RESPONSE	n/a	n/a	n/a	n/a	n/a	n/a	n/a	green
104.2961	1.0167	ITI	n/a	n/a	n/a	n/a	n/a	n/a	n/a	n/a
105.3128	0.5167	FIXCROSS	n/a	n/a	n/a	n/a	n/a	n/a	n/a	n/a
105.8295	0.8833	INK	27	Incongruent	niebieski	blue	żółty	yellow	hit	n/a
106.6917	n/a	RESPONSE	n/a	n/a	n/a	n/a	n/a	n/a	n/a	yellow
106.7128	1.0167	ITI	n/a	n/a	n/a	n/a	n/a	n/a	n/a	n/a
107.7295	0.5167	FIXCROSS	n/a	n/a	n/a	n/a	n/a	n/a	n/a	n/a
108.2462	1.1667	INK	28	Incongruent	czerwony	red	zielony	green	hit	n/a
109.3925	n/a	RESPONSE	n/a	n/a	n/a	n/a	n/a	n/a	n/a	green
109.4128	1.0167	ITI	n/a	n/a	n/a	n/a	n/a	n/a	n/a	n/a
110.4295	0.5167	FIXCROSS	n/a	n/a	n/a	n/a	n/a	n/a	n/a	n/a
110.9462	0.6333	INK	29	Neutral	xxxxxxxxx	xxxxxxxxx	żółty	yellow	hit	n/a
111.55	n/a	RESPONSE	n/a	n/a	n/a	n/a	n/a	n/a	n/a	yellow
111.5795	1.0167	ITI	n/a	n/a	n/a	n/a	n/a	n/a	n/a	n/a
112.5962	0.5167	FIXCROSS	n/a	n/a	n/a	n/a	n/a	n/a	n/a	n/a
113.1129	0.95	INK	30	Neutral	xxxxxxxx	xxxxxxxx	niebieski	blue	hit	n/a
114.0431	n/a	RESPONSE	n/a	n/a	n/a	n/a	n/a	n/a	n/a	blue
114.0629	1.0167	ITI	n/a	n/a	n/a	n/a	n/a	n/a	n/a	n/a
115.0796	0.5167	FIXCROSS	n/a	n/a	n/a	n/a	n/a	n/a	n/a	n/a
115.5962	0.8833	INK	31	Neutral	xxxxxxxxx	xxxxxxxxx	zielony	green	hit	n/a
116.4562	n/a	RESPONSE	n/a	n/a	n/a	n/a	n/a	n/a	n/a	green
116.4796	1.0167	ITI	n/a	n/a	n/a	n/a	n/a	n/a	n/a	n/a
117.4963	0.5167	FIXCROSS	n/a	n/a	n/a	n/a	n/a	n/a	n/a	n/a
118.0129	0.9333	INK	32	Incongruent	niebieski	blue	zielony	green	hit	n/a
118.9173	n/a	RESPONSE	n/a	n/a	n/a	n/a	n/a	n/a	n/a	green
118.9463	1.0167	ITI	n/a	n/a	n/a	n/a	n/a	n/a	n/a	n/a
119.9629	0.5167	FIXCROSS	n/a	n/a	n/a	n/a	n/a	n/a	n/a	n/a
120.4796	0.9833	INK	33	Neutral	xxxxxxx	xxxxxxx	niebieski	blue	hit	n/a
121.4424	n/a	RESPONSE	n/a	n/a	n/a	n/a	n/a	n/a	n/a	blue
121.4629	1.0167	ITI	n/a	n/a	n/a	n/a	n/a	n/a	n/a	n/a
122.4796	0.5167	FIXCROSS	n/a	n/a	n/a	n/a	n/a	n/a	n/a	n/a
122.9963	0.8667	INK	34	Neutral	xxxxxxx	xxxxxxx	żółty	yellow	hit	n/a
123.8395	n/a	RESPONSE	n/a	n/a	n/a	n/a	n/a	n/a	n/a	yellow
123.863	1.0167	ITI	n/a	n/a	n/a	n/a	n/a	n/a	n/a	n/a
124.8796	0.5167	FIXCROSS	n/a	n/a	n/a	n/a	n/a	n/a	n/a	n/a
125.3963	0.9667	INK	35	Incongruent	żółty	yellow	niebieski	blue	hit	n/a
126.3327	n/a	RESPONSE	n/a	n/a	n/a	n/a	n/a	n/a	n/a	blue
126.363	1.0167	ITI	n/a	n/a	n/a	n/a	n/a	n/a	n/a	n/a
127.3797	0.5167	FIXCROSS	n/a	n/a	n/a	n/a	n/a	n/a	n/a	n/a
127.8963	0.7667	INK	36	Neutral	xxxxxxxxx	xxxxxxxxx	żółty	yellow	hit	n/a
128.6339	n/a	RESPONSE	n/a	n/a	n/a	n/a	n/a	n/a	n/a	yellow
128.663	1.0167	ITI	n/a	n/a	n/a	n/a	n/a	n/a	n/a	n/a
129.6797	0.5167	FIXCROSS	n/a	n/a	n/a	n/a	n/a	n/a	n/a	n/a
130.1963	0.9167	INK	37	Incongruent	czerwony	red	niebieski	blue	hit	n/a
131.0951	n/a	RESPONSE	n/a	n/a	n/a	n/a	n/a	n/a	n/a	blue
131.113	1.0167	ITI	n/a	n/a	n/a	n/a	n/a	n/a	n/a	n/a
132.1297	0.5167	FIXCROSS	n/a	n/a	n/a	n/a	n/a	n/a	n/a	n/a
132.6464	1.25	INK	38	Incongruent	żółty	yellow	zielony	green	hit	n/a
133.8757	n/a	RESPONSE	n/a	n/a	n/a	n/a	n/a	n/a	n/a	green
133.8964	1.0167	ITI	n/a	n/a	n/a	n/a	n/a	n/a	n/a	n/a
134.913	0.5167	FIXCROSS	n/a	n/a	n/a	n/a	n/a	n/a	n/a	n/a
135.4297	0.95	INK	39	Incongruent	niebieski	blue	czerwony	red	hit	n/a
136.3528	n/a	RESPONSE	n/a	n/a	n/a	n/a	n/a	n/a	n/a	red
136.3797	1.0167	ITI	n/a	n/a	n/a	n/a	n/a	n/a	n/a	n/a
137.3964	0.5167	FIXCROSS	n/a	n/a	n/a	n/a	n/a	n/a	n/a	n/a
137.9131	0.75	INK	40	Neutral	xxxxxxx	xxxxxxx	żółty	yellow	hit	n/a
138.6382	n/a	RESPONSE	n/a	n/a	n/a	n/a	n/a	n/a	n/a	yellow
138.6631	1.0167	ITI	n/a	n/a	n/a	n/a	n/a	n/a	n/a	n/a
139.6798	0.5167	FIXCROSS	n/a	n/a	n/a	n/a	n/a	n/a	n/a	n/a
140.1964	1.2333	INK	41	Incongruent	niebieski	blue	czerwony	red	hit	n/a
141.403	n/a	RESPONSE	n/a	n/a	n/a	n/a	n/a	n/a	n/a	red
141.4298	1.0167	ITI	n/a	n/a	n/a	n/a	n/a	n/a	n/a	n/a
142.4464	0.5167	FIXCROSS	n/a	n/a	n/a	n/a	n/a	n/a	n/a	n/a
142.9631	1.0333	INK	42	Neutral	xxxxx	xxxxx	zielony	green	hit	n/a
143.976	n/a	RESPONSE	n/a	n/a	n/a	n/a	n/a	n/a	n/a	green
143.9964	1.0167	ITI	n/a	n/a	n/a	n/a	n/a	n/a	n/a	n/a
145.0131	0.5167	FIXCROSS	n/a	n/a	n/a	n/a	n/a	n/a	n/a	n/a
145.5298	0.7	INK	43	Neutral	xxxxxxxxx	xxxxxxxxx	czerwony	red	hit	n/a
146.1974	n/a	RESPONSE	n/a	n/a	n/a	n/a	n/a	n/a	n/a	red
146.2298	1.0167	ITI	n/a	n/a	n/a	n/a	n/a	n/a	n/a	n/a
147.2465	0.5167	FIXCROSS	n/a	n/a	n/a	n/a	n/a	n/a	n/a	n/a
147.7631	0.9333	INK	44	Incongruent	zielony	green	żółty	yellow	hit	n/a
148.6744	n/a	RESPONSE	n/a	n/a	n/a	n/a	n/a	n/a	n/a	yellow
148.6965	1.0167	ITI	n/a	n/a	n/a	n/a	n/a	n/a	n/a	n/a
149.7132	0.5167	FIXCROSS	n/a	n/a	n/a	n/a	n/a	n/a	n/a	n/a
150.2298	1.0167	INK	45	Neutral	xxxxxxx	xxxxxxx	niebieski	blue	hit	n/a
151.2154	n/a	RESPONSE	n/a	n/a	n/a	n/a	n/a	n/a	n/a	blue
151.2465	1.0167	ITI	n/a	n/a	n/a	n/a	n/a	n/a	n/a	n/a
152.2632	0.5167	FIXCROSS	n/a	n/a	n/a	n/a	n/a	n/a	n/a	n/a
152.7799	0.8167	INK	46	Incongruent	zielony	green	czerwony	red	hit	n/a
153.5648	n/a	RESPONSE	n/a	n/a	n/a	n/a	n/a	n/a	n/a	red
153.5965	1.0167	ITI	n/a	n/a	n/a	n/a	n/a	n/a	n/a	n/a
154.6132	0.5167	FIXCROSS	n/a	n/a	n/a	n/a	n/a	n/a	n/a	n/a
155.1299	0.65	INK	47	Neutral	xxxxxxx	xxxxxxx	czerwony	red	hit	n/a
155.7541	n/a	RESPONSE	n/a	n/a	n/a	n/a	n/a	n/a	n/a	red
155.7799	1.0167	ITI	n/a	n/a	n/a	n/a	n/a	n/a	n/a	n/a
156.7966	0.5167	FIXCROSS	n/a	n/a	n/a	n/a	n/a	n/a	n/a	n/a
157.3132	0.8667	INK	48	Neutral	xxxxxxxx	xxxxxxxx	niebieski	blue	hit	n/a
158.1513	n/a	RESPONSE	n/a	n/a	n/a	n/a	n/a	n/a	n/a	blue
158.1799	1.0167	ITI	n/a	n/a	n/a	n/a	n/a	n/a	n/a	n/a
159.1966	0.5166	FIXCROSS	n/a	n/a	n/a	n/a	n/a	n/a	n/a	n/a
159.7132	0.55	INK	49	Neutral	xxxxx	xxxxx	niebieski	blue	hit	n/a
160.2449	n/a	RESPONSE	n/a	n/a	n/a	n/a	n/a	n/a	n/a	blue
160.2632	1.0167	ITI	n/a	n/a	n/a	n/a	n/a	n/a	n/a	n/a
161.2799	0.5167	FIXCROSS	n/a	n/a	n/a	n/a	n/a	n/a	n/a	n/a
161.7966	0.7833	INK	50	Neutral	xxxxxxxx	xxxxxxxx	zielony	green	hit	n/a
162.5623	n/a	RESPONSE	n/a	n/a	n/a	n/a	n/a	n/a	n/a	green
162.5799	1.0167	ITI	n/a	n/a	n/a	n/a	n/a	n/a	n/a	n/a
163.5966	0.5167	FIXCROSS	n/a	n/a	n/a	n/a	n/a	n/a	n/a	n/a
164.1133	0.9833	INK	51	Incongruent	zielony	green	niebieski	blue	hit	n/a
165.0712	n/a	RESPONSE	n/a	n/a	n/a	n/a	n/a	n/a	n/a	blue
165.0966	1.0167	ITI	n/a	n/a	n/a	n/a	n/a	n/a	n/a	n/a
166.1133	0.5167	FIXCROSS	n/a	n/a	n/a	n/a	n/a	n/a	n/a	n/a
166.63	0.6167	INK	52	Neutral	xxxxxxxxx	xxxxxxxxx	zielony	green	incorrect	n/a
167.2287	n/a	RESPONSE	n/a	n/a	n/a	n/a	n/a	n/a	n/a	yellow
167.2466	1.0167	ITI	n/a	n/a	n/a	n/a	n/a	n/a	n/a	n/a
168.2633	0.5167	FIXCROSS	n/a	n/a	n/a	n/a	n/a	n/a	n/a	n/a
168.78	0.5833	INK	53	Neutral	xxxxxxxx	xxxxxxxx	żółty	yellow	hit	n/a
169.3383	n/a	RESPONSE	n/a	n/a	n/a	n/a	n/a	n/a	n/a	yellow
169.3633	1.0167	ITI	n/a	n/a	n/a	n/a	n/a	n/a	n/a	n/a
170.38	0.5167	FIXCROSS	n/a	n/a	n/a	n/a	n/a	n/a	n/a	n/a
170.8967	0.85	INK	54	Incongruent	niebieski	blue	żółty	yellow	hit	n/a
171.7194	n/a	RESPONSE	n/a	n/a	n/a	n/a	n/a	n/a	n/a	yellow
171.7467	1.0167	ITI	n/a	n/a	n/a	n/a	n/a	n/a	n/a	n/a
172.7633	0.5167	FIXCROSS	n/a	n/a	n/a	n/a	n/a	n/a	n/a	n/a
173.28	0.9333	INK	55	Neutral	xxxxxxxxx	xxxxxxxxx	czerwony	red	hit	n/a
174.1806	n/a	RESPONSE	n/a	n/a	n/a	n/a	n/a	n/a	n/a	red
174.2134	1.0167	ITI	n/a	n/a	n/a	n/a	n/a	n/a	n/a	n/a
175.23	0.5167	FIXCROSS	n/a	n/a	n/a	n/a	n/a	n/a	n/a	n/a
175.7467	0.9	INK	56	Incongruent	zielony	green	niebieski	blue	hit	n/a
176.6257	n/a	RESPONSE	n/a	n/a	n/a	n/a	n/a	n/a	n/a	blue
176.6467	1.0167	ITI	n/a	n/a	n/a	n/a	n/a	n/a	n/a	n/a
177.6634	0.5167	FIXCROSS	n/a	n/a	n/a	n/a	n/a	n/a	n/a	n/a
178.18	0.85	INK	57	Incongruent	czerwony	red	żółty	yellow	hit	n/a
179.0069	n/a	RESPONSE	n/a	n/a	n/a	n/a	n/a	n/a	n/a	yellow
179.03	1.0167	ITI	n/a	n/a	n/a	n/a	n/a	n/a	n/a	n/a
180.0467	0.5167	FIXCROSS	n/a	n/a	n/a	n/a	n/a	n/a	n/a	n/a
180.5634	1.2167	INK	58	Incongruent	żółty	yellow	zielony	green	hit	n/a
181.7557	n/a	RESPONSE	n/a	n/a	n/a	n/a	n/a	n/a	n/a	green
181.7801	1.0167	ITI	n/a	n/a	n/a	n/a	n/a	n/a	n/a	n/a
182.7967	0.5167	FIXCROSS	n/a	n/a	n/a	n/a	n/a	n/a	n/a	n/a
183.3134	0.9	INK	59	Neutral	xxxxxxxx	xxxxxxxx	niebieski	blue	hit	n/a
184.1849	n/a	RESPONSE	n/a	n/a	n/a	n/a	n/a	n/a	n/a	blue
184.2134	1.0167	ITI	n/a	n/a	n/a	n/a	n/a	n/a	n/a	n/a
185.2301	0.5167	FIXCROSS	n/a	n/a	n/a	n/a	n/a	n/a	n/a	n/a
185.7468	1.2833	INK	60	Incongruent	czerwony	red	zielony	green	hit	n/a
186.9976	n/a	RESPONSE	n/a	n/a	n/a	n/a	n/a	n/a	n/a	green
187.0301	1.0167	ITI	n/a	n/a	n/a	n/a	n/a	n/a	n/a	n/a
188.0468	0.5167	FIXCROSS	n/a	n/a	n/a	n/a	n/a	n/a	n/a	n/a
188.5635	0.6667	INK	61	Incongruent	czerwony	red	zielony	green	hit	n/a
189.2031	n/a	RESPONSE	n/a	n/a	n/a	n/a	n/a	n/a	n/a	green
189.2301	1.0167	ITI	n/a	n/a	n/a	n/a	n/a	n/a	n/a	n/a
190.2468	0.5167	FIXCROSS	n/a	n/a	n/a	n/a	n/a	n/a	n/a	n/a
190.7635	0.6667	INK	62	Incongruent	zielony	green	czerwony	red	hit	n/a
191.4084	n/a	RESPONSE	n/a	n/a	n/a	n/a	n/a	n/a	n/a	red
191.4301	1.0167	ITI	n/a	n/a	n/a	n/a	n/a	n/a	n/a	n/a
192.4468	0.5167	FIXCROSS	n/a	n/a	n/a	n/a	n/a	n/a	n/a	n/a
192.9635	0.6833	INK	63	Neutral	xxxxxxxxx	xxxxxxxxx	żółty	yellow	hit	n/a
193.6139	n/a	RESPONSE	n/a	n/a	n/a	n/a	n/a	n/a	n/a	yellow
193.6468	1.0167	ITI	n/a	n/a	n/a	n/a	n/a	n/a	n/a	n/a
194.6635	0.5167	FIXCROSS	n/a	n/a	n/a	n/a	n/a	n/a	n/a	n/a
195.1802	1.0833	INK	64	Neutral	xxxxxxxxx	xxxxxxxxx	zielony	green	hit	n/a
196.2348	n/a	RESPONSE	n/a	n/a	n/a	n/a	n/a	n/a	n/a	green
196.2635	1.0167	ITI	n/a	n/a	n/a	n/a	n/a	n/a	n/a	n/a
197.2802	0.5167	FIXCROSS	n/a	n/a	n/a	n/a	n/a	n/a	n/a	n/a
197.7969	0.8167	INK	65	Incongruent	niebieski	blue	czerwony	red	hit	n/a
198.5841	n/a	RESPONSE	n/a	n/a	n/a	n/a	n/a	n/a	n/a	red
198.6135	1.0167	ITI	n/a	n/a	n/a	n/a	n/a	n/a	n/a	n/a
199.6302	0.5167	FIXCROSS	n/a	n/a	n/a	n/a	n/a	n/a	n/a	n/a
200.1469	0.4667	INK	66	Neutral	xxxxx	xxxxx	czerwony	red	hit	n/a
200.5818	n/a	RESPONSE	n/a	n/a	n/a	n/a	n/a	n/a	n/a	red
200.6135	1.0167	ITI	n/a	n/a	n/a	n/a	n/a	n/a	n/a	n/a
201.6302	0.5167	FIXCROSS	n/a	n/a	n/a	n/a	n/a	n/a	n/a	n/a
202.1469	0.8833	INK	67	Neutral	xxxxx	xxxxx	niebieski	blue	hit	n/a
202.9949	n/a	RESPONSE	n/a	n/a	n/a	n/a	n/a	n/a	n/a	blue
203.0302	1.0167	ITI	n/a	n/a	n/a	n/a	n/a	n/a	n/a	n/a
204.0469	0.5167	FIXCROSS	n/a	n/a	n/a	n/a	n/a	n/a	n/a	n/a
204.5636	0.85	INK	68	Incongruent	czerwony	red	żółty	yellow	hit	n/a
205.3921	n/a	RESPONSE	n/a	n/a	n/a	n/a	n/a	n/a	n/a	yellow
205.4136	1.0167	ITI	n/a	n/a	n/a	n/a	n/a	n/a	n/a	n/a
206.4303	0.5167	FIXCROSS	n/a	n/a	n/a	n/a	n/a	n/a	n/a	n/a
206.9469	0.6667	INK	69	Incongruent	niebieski	blue	żółty	yellow	hit	n/a
207.5816	n/a	RESPONSE	n/a	n/a	n/a	n/a	n/a	n/a	n/a	yellow
207.6136	1.0167	ITI	n/a	n/a	n/a	n/a	n/a	n/a	n/a	n/a
208.6303	0.5167	FIXCROSS	n/a	n/a	n/a	n/a	n/a	n/a	n/a	n/a
209.1469	0.4167	INK	70	Neutral	xxxxxxx	xxxxxxx	żółty	yellow	hit	n/a
209.5313	n/a	RESPONSE	n/a	n/a	n/a	n/a	n/a	n/a	n/a	yellow
209.5636	1.0167	ITI	n/a	n/a	n/a	n/a	n/a	n/a	n/a	n/a
210.5803	0.5167	FIXCROSS	n/a	n/a	n/a	n/a	n/a	n/a	n/a	n/a
211.097	0.7667	INK	71	Incongruent	żółty	yellow	niebieski	blue	hit	n/a
211.8327	n/a	RESPONSE	n/a	n/a	n/a	n/a	n/a	n/a	n/a	blue
211.8636	1.0167	ITI	n/a	n/a	n/a	n/a	n/a	n/a	n/a	n/a
212.8803	0.5167	FIXCROSS	n/a	n/a	n/a	n/a	n/a	n/a	n/a	n/a
213.397	0.7333	INK	72	Neutral	xxxxxxx	xxxxxxx	czerwony	red	hit	n/a
214.1019	n/a	RESPONSE	n/a	n/a	n/a	n/a	n/a	n/a	n/a	red
214.1303	1.0833	ITI	n/a	n/a	n/a	n/a	n/a	n/a	n/a	n/a
243.6035	n/a	RESPONSE	n/a	n/a	n/a	n/a	n/a	n/a	n/a	n/a
243.6639	1.0167	ITI	n/a	n/a	n/a	n/a	n/a	n/a	n/a	n/a
244.6805	0.5167	FIXCROSS	n/a	n/a	n/a	n/a	n/a	n/a	n/a	n/a
245.1972	1.3	T_COLOR_NAME	1	Neutral	zielony	green	Neutral	Neutral	hit	n/a
246.4643	n/a	RESPONSE	n/a	n/a	n/a	n/a	n/a	n/a	n/a	green
246.4972	0.5166	FEEDBACK	n/a	n/a	n/a	n/a	n/a	n/a	n/a	n/a
247.0139	1.0167	ITI	n/a	n/a	n/a	n/a	n/a	n/a	n/a	n/a
248.0306	0.5167	FIXCROSS	n/a	n/a	n/a	n/a	n/a	n/a	n/a	n/a
248.5472	0.9	T_COLOR_NAME	2	Neutral	żółty	yellow	Neutral	Neutral	hit	n/a
249.4209	n/a	RESPONSE	n/a	n/a	n/a	n/a	n/a	n/a	n/a	yellow
249.4473	0.5167	FEEDBACK	n/a	n/a	n/a	n/a	n/a	n/a	n/a	n/a
249.9639	1.0167	ITI	n/a	n/a	n/a	n/a	n/a	n/a	n/a	n/a
250.9806	0.5167	FIXCROSS	n/a	n/a	n/a	n/a	n/a	n/a	n/a	n/a
251.4973	1.1	T_COLOR_NAME	3	Neutral	niebieski	blue	Neutral	Neutral	hit	n/a
252.5692	n/a	RESPONSE	n/a	n/a	n/a	n/a	n/a	n/a	n/a	blue
252.5973	0.5167	FEEDBACK	n/a	n/a	n/a	n/a	n/a	n/a	n/a	n/a
253.1139	1.0167	ITI	n/a	n/a	n/a	n/a	n/a	n/a	n/a	n/a
254.1306	0.5167	FIXCROSS	n/a	n/a	n/a	n/a	n/a	n/a	n/a	n/a
254.6473	2.3667	T_COLOR_NAME	4	Incongruent	zielony	green	żółty	yellow	hit	n/a
256.9801	n/a	RESPONSE	n/a	n/a	n/a	n/a	n/a	n/a	n/a	green
257.014	0.5167	FEEDBACK	n/a	n/a	n/a	n/a	n/a	n/a	n/a	n/a
257.5306	1.0167	ITI	n/a	n/a	n/a	n/a	n/a	n/a	n/a	n/a
258.5473	0.5167	FIXCROSS	n/a	n/a	n/a	n/a	n/a	n/a	n/a	n/a
259.064	1.45	T_COLOR_NAME	5	Incongruent	czerwony	red	niebieski	blue	hit	n/a
260.4801	n/a	RESPONSE	n/a	n/a	n/a	n/a	n/a	n/a	n/a	red
260.514	0.5166	FEEDBACK	n/a	n/a	n/a	n/a	n/a	n/a	n/a	n/a
261.0306	1.0168	ITI	n/a	n/a	n/a	n/a	n/a	n/a	n/a	n/a
262.0473	0.5167	FIXCROSS	n/a	n/a	n/a	n/a	n/a	n/a	n/a	n/a
262.564	0.75	T_COLOR_NAME	6	Neutral	żółty	yellow	Neutral	Neutral	hit	n/a
263.2928	n/a	RESPONSE	n/a	n/a	n/a	n/a	n/a	n/a	n/a	yellow
263.314	0.5167	FEEDBACK	n/a	n/a	n/a	n/a	n/a	n/a	n/a	n/a
263.8307	1.0167	ITI	n/a	n/a	n/a	n/a	n/a	n/a	n/a	n/a
264.8474	0.5167	FIXCROSS	n/a	n/a	n/a	n/a	n/a	n/a	n/a	n/a
265.364	1.8	T_COLOR_NAME	7	Incongruent	zielony	green	niebieski	blue	hit	n/a
267.1444	n/a	RESPONSE	n/a	n/a	n/a	n/a	n/a	n/a	n/a	green
267.164	0.5167	FEEDBACK	n/a	n/a	n/a	n/a	n/a	n/a	n/a	n/a
267.6807	1.0167	ITI	n/a	n/a	n/a	n/a	n/a	n/a	n/a	n/a
268.6974	0.5167	FIXCROSS	n/a	n/a	n/a	n/a	n/a	n/a	n/a	n/a
269.2141	0.9833	T_COLOR_NAME	8	Neutral	niebieski	blue	Neutral	Neutral	hit	n/a
270.165	n/a	RESPONSE	n/a	n/a	n/a	n/a	n/a	n/a	n/a	blue
270.1974	0.5167	FEEDBACK	n/a	n/a	n/a	n/a	n/a	n/a	n/a	n/a
270.7141	1.0167	ITI	n/a	n/a	n/a	n/a	n/a	n/a	n/a	n/a
271.7307	0.5167	FIXCROSS	n/a	n/a	n/a	n/a	n/a	n/a	n/a	n/a
272.2474	0.9333	T_COLOR_NAME	9	Incongruent	czerwony	red	zielony	green	hit	n/a
273.1535	n/a	RESPONSE	n/a	n/a	n/a	n/a	n/a	n/a	n/a	red
273.1808	0.5167	FEEDBACK	n/a	n/a	n/a	n/a	n/a	n/a	n/a	n/a
273.6974	1.0167	ITI	n/a	n/a	n/a	n/a	n/a	n/a	n/a	n/a
274.7141	0.5167	FIXCROSS	n/a	n/a	n/a	n/a	n/a	n/a	n/a	n/a
275.2308	1.6	T_COLOR_NAME	10	Incongruent	niebieski	blue	zielony	green	hit	n/a
276.7973	n/a	RESPONSE	n/a	n/a	n/a	n/a	n/a	n/a	n/a	blue
276.8308	0.5167	FEEDBACK	n/a	n/a	n/a	n/a	n/a	n/a	n/a	n/a
277.3474	1.0167	ITI	n/a	n/a	n/a	n/a	n/a	n/a	n/a	n/a
278.3641	0.5167	FIXCROSS	n/a	n/a	n/a	n/a	n/a	n/a	n/a	n/a
278.8808	0.85	T_COLOR_NAME	11	Incongruent	żółty	yellow	niebieski	blue	hit	n/a
279.706	n/a	RESPONSE	n/a	n/a	n/a	n/a	n/a	n/a	n/a	yellow
279.7308	0.5167	FEEDBACK	n/a	n/a	n/a	n/a	n/a	n/a	n/a	n/a
280.2475	1.0167	ITI	n/a	n/a	n/a	n/a	n/a	n/a	n/a	n/a
281.2642	0.5167	FIXCROSS	n/a	n/a	n/a	n/a	n/a	n/a	n/a	n/a
281.7808	0.7833	T_COLOR_NAME	12	Neutral	czerwony	red	Neutral	Neutral	hit	n/a
282.5348	n/a	RESPONSE	n/a	n/a	n/a	n/a	n/a	n/a	n/a	red
282.5642	0.5167	FEEDBACK	n/a	n/a	n/a	n/a	n/a	n/a	n/a	n/a
283.0808	1.0333	ITI	n/a	n/a	n/a	n/a	n/a	n/a	n/a	n/a
286.8658	n/a	RESPONSE	n/a	n/a	n/a	n/a	n/a	n/a	n/a	n/a
286.9309	1.0167	ITI	n/a	n/a	n/a	n/a	n/a	n/a	n/a	n/a
287.9475	0.5167	FIXCROSS	n/a	n/a	n/a	n/a	n/a	n/a	n/a	n/a
288.4642	1.3833	COLOR_NAME	1	Incongruent	czerwony	red	zielony	green	hit	n/a
289.8224	n/a	RESPONSE	n/a	n/a	n/a	n/a	n/a	n/a	n/a	red
289.8475	1.0167	ITI	n/a	n/a	n/a	n/a	n/a	n/a	n/a	n/a
290.8642	0.5167	FIXCROSS	n/a	n/a	n/a	n/a	n/a	n/a	n/a	n/a
291.3809	0.6833	COLOR_NAME	2	Neutral	czerwony	red	Neutral	Neutral	hit	n/a
292.0438	n/a	RESPONSE	n/a	n/a	n/a	n/a	n/a	n/a	n/a	red
292.0642	1.0167	ITI	n/a	n/a	n/a	n/a	n/a	n/a	n/a	n/a
293.0809	0.5167	FIXCROSS	n/a	n/a	n/a	n/a	n/a	n/a	n/a	n/a
293.5976	0.9667	COLOR_NAME	3	Incongruent	zielony	green	czerwony	red	hit	n/a
294.5371	n/a	RESPONSE	n/a	n/a	n/a	n/a	n/a	n/a	n/a	green
294.5643	1.0167	ITI	n/a	n/a	n/a	n/a	n/a	n/a	n/a	n/a
295.5809	0.5167	FIXCROSS	n/a	n/a	n/a	n/a	n/a	n/a	n/a	n/a
296.0976	0.8333	COLOR_NAME	4	Neutral	niebieski	blue	Neutral	Neutral	hit	n/a
296.9023	n/a	RESPONSE	n/a	n/a	n/a	n/a	n/a	n/a	n/a	blue
296.9309	1.0167	ITI	n/a	n/a	n/a	n/a	n/a	n/a	n/a	n/a
297.9476	0.5167	FIXCROSS	n/a	n/a	n/a	n/a	n/a	n/a	n/a	n/a
298.4643	0.8833	COLOR_NAME	5	Incongruent	niebieski	blue	żółty	yellow	hit	n/a
299.3156	n/a	RESPONSE	n/a	n/a	n/a	n/a	n/a	n/a	n/a	blue
299.3476	1.0167	ITI	n/a	n/a	n/a	n/a	n/a	n/a	n/a	n/a
300.3643	0.5167	FIXCROSS	n/a	n/a	n/a	n/a	n/a	n/a	n/a	n/a
300.881	0.95	COLOR_NAME	6	Neutral	zielony	green	Neutral	Neutral	hit	n/a
301.8088	n/a	RESPONSE	n/a	n/a	n/a	n/a	n/a	n/a	n/a	green
301.831	1.0167	ITI	n/a	n/a	n/a	n/a	n/a	n/a	n/a	n/a
302.8476	0.5167	FIXCROSS	n/a	n/a	n/a	n/a	n/a	n/a	n/a	n/a
303.3643	0.8167	COLOR_NAME	7	Neutral	niebieski	blue	Neutral	Neutral	hit	n/a
304.1581	n/a	RESPONSE	n/a	n/a	n/a	n/a	n/a	n/a	n/a	blue
304.181	1.0167	ITI	n/a	n/a	n/a	n/a	n/a	n/a	n/a	n/a
305.1977	0.5167	FIXCROSS	n/a	n/a	n/a	n/a	n/a	n/a	n/a	n/a
305.7143	0.7167	COLOR_NAME	8	Neutral	żółty	yellow	Neutral	Neutral	hit	n/a
306.4114	n/a	RESPONSE	n/a	n/a	n/a	n/a	n/a	n/a	n/a	yellow
306.431	1.0167	ITI	n/a	n/a	n/a	n/a	n/a	n/a	n/a	n/a
307.4477	0.5167	FIXCROSS	n/a	n/a	n/a	n/a	n/a	n/a	n/a	n/a
307.9644	0.7667	COLOR_NAME	9	Incongruent	czerwony	red	niebieski	blue	hit	n/a
308.7128	n/a	RESPONSE	n/a	n/a	n/a	n/a	n/a	n/a	n/a	red
308.731	1.0167	ITI	n/a	n/a	n/a	n/a	n/a	n/a	n/a	n/a
309.7477	0.5167	FIXCROSS	n/a	n/a	n/a	n/a	n/a	n/a	n/a	n/a
310.2644	0.5167	COLOR_NAME	10	Neutral	czerwony	red	Neutral	Neutral	hit	n/a
310.7744	n/a	RESPONSE	n/a	n/a	n/a	n/a	n/a	n/a	n/a	red
310.781	1.0	ITI	n/a	n/a	n/a	n/a	n/a	n/a	n/a	n/a
311.781	0.5	FIXCROSS	n/a	n/a	n/a	n/a	n/a	n/a	n/a	n/a
312.2811	0.75	COLOR_NAME	11	Neutral	żółty	yellow	Neutral	Neutral	hit	n/a
313.0277	n/a	RESPONSE	n/a	n/a	n/a	n/a	n/a	n/a	n/a	yellow
313.031	1.0	ITI	n/a	n/a	n/a	n/a	n/a	n/a	n/a	n/a
314.0311	0.5	FIXCROSS	n/a	n/a	n/a	n/a	n/a	n/a	n/a	n/a
314.5311	0.5333	COLOR_NAME	12	Neutral	żółty	yellow	Neutral	Neutral	hit	n/a
315.0574	n/a	RESPONSE	n/a	n/a	n/a	n/a	n/a	n/a	n/a	yellow
315.0644	1.0167	ITI	n/a	n/a	n/a	n/a	n/a	n/a	n/a	n/a
316.0811	0.5167	FIXCROSS	n/a	n/a	n/a	n/a	n/a	n/a	n/a	n/a
316.5977	0.5333	COLOR_NAME	13	Neutral	żółty	yellow	Neutral	Neutral	hit	n/a
317.1031	n/a	RESPONSE	n/a	n/a	n/a	n/a	n/a	n/a	n/a	yellow
317.1311	1.0167	ITI	n/a	n/a	n/a	n/a	n/a	n/a	n/a	n/a
318.1478	0.5167	FIXCROSS	n/a	n/a	n/a	n/a	n/a	n/a	n/a	n/a
318.6644	0.6167	COLOR_NAME	14	Incongruent	czerwony	red	niebieski	blue	hit	n/a
319.2607	n/a	RESPONSE	n/a	n/a	n/a	n/a	n/a	n/a	n/a	red
319.2811	1.0167	ITI	n/a	n/a	n/a	n/a	n/a	n/a	n/a	n/a
320.2978	0.5167	FIXCROSS	n/a	n/a	n/a	n/a	n/a	n/a	n/a	n/a
320.8144	0.7667	COLOR_NAME	15	Neutral	zielony	green	Neutral	Neutral	hit	n/a
321.562	n/a	RESPONSE	n/a	n/a	n/a	n/a	n/a	n/a	n/a	green
321.5811	1.0167	ITI	n/a	n/a	n/a	n/a	n/a	n/a	n/a	n/a
322.5978	0.5167	FIXCROSS	n/a	n/a	n/a	n/a	n/a	n/a	n/a	n/a
323.1145	1.0667	COLOR_NAME	16	Incongruent	zielony	green	żółty	yellow	hit	n/a
324.1511	n/a	RESPONSE	n/a	n/a	n/a	n/a	n/a	n/a	n/a	green
324.1811	1.0167	ITI	n/a	n/a	n/a	n/a	n/a	n/a	n/a	n/a
325.1978	0.5167	FIXCROSS	n/a	n/a	n/a	n/a	n/a	n/a	n/a	n/a
325.7145	0.85	COLOR_NAME	17	Neutral	niebieski	blue	Neutral	Neutral	hit	n/a
326.5323	n/a	RESPONSE	n/a	n/a	n/a	n/a	n/a	n/a	n/a	blue
326.5645	1.0167	ITI	n/a	n/a	n/a	n/a	n/a	n/a	n/a	n/a
327.5812	0.5167	FIXCROSS	n/a	n/a	n/a	n/a	n/a	n/a	n/a	n/a
328.0978	0.8333	COLOR_NAME	18	Incongruent	czerwony	red	zielony	green	hit	n/a
328.9137	n/a	RESPONSE	n/a	n/a	n/a	n/a	n/a	n/a	n/a	red
328.9312	1.0167	ITI	n/a	n/a	n/a	n/a	n/a	n/a	n/a	n/a
329.9478	0.5167	FIXCROSS	n/a	n/a	n/a	n/a	n/a	n/a	n/a	n/a
330.4645	0.9667	COLOR_NAME	19	Neutral	niebieski	blue	Neutral	Neutral	hit	n/a
331.4068	n/a	RESPONSE	n/a	n/a	n/a	n/a	n/a	n/a	n/a	blue
331.4312	1.0167	ITI	n/a	n/a	n/a	n/a	n/a	n/a	n/a	n/a
332.4479	0.5167	FIXCROSS	n/a	n/a	n/a	n/a	n/a	n/a	n/a	n/a
332.9645	0.5833	COLOR_NAME	20	Incongruent	czerwony	red	żółty	yellow	hit	n/a
333.5164	n/a	RESPONSE	n/a	n/a	n/a	n/a	n/a	n/a	n/a	red
333.5479	1.0167	ITI	n/a	n/a	n/a	n/a	n/a	n/a	n/a	n/a
334.5645	0.5167	FIXCROSS	n/a	n/a	n/a	n/a	n/a	n/a	n/a	n/a
335.0812	0.55	COLOR_NAME	21	Neutral	czerwony	red	Neutral	Neutral	hit	n/a
335.61	n/a	RESPONSE	n/a	n/a	n/a	n/a	n/a	n/a	n/a	red
335.6312	1.0167	ITI	n/a	n/a	n/a	n/a	n/a	n/a	n/a	n/a
336.6479	0.5167	FIXCROSS	n/a	n/a	n/a	n/a	n/a	n/a	n/a	n/a
337.1646	0.5333	COLOR_NAME	22	Neutral	czerwony	red	Neutral	Neutral	hit	n/a
337.6717	n/a	RESPONSE	n/a	n/a	n/a	n/a	n/a	n/a	n/a	red
337.6979	1.0167	ITI	n/a	n/a	n/a	n/a	n/a	n/a	n/a	n/a
338.7146	0.5167	FIXCROSS	n/a	n/a	n/a	n/a	n/a	n/a	n/a	n/a
339.2312	0.4833	COLOR_NAME	23	Neutral	czerwony	red	Neutral	Neutral	hit	n/a
339.6852	n/a	RESPONSE	n/a	n/a	n/a	n/a	n/a	n/a	n/a	red
339.7146	1.0167	ITI	n/a	n/a	n/a	n/a	n/a	n/a	n/a	n/a
340.7313	0.5167	FIXCROSS	n/a	n/a	n/a	n/a	n/a	n/a	n/a	n/a
341.2479	1.1667	COLOR_NAME	24	Neutral	niebieski	blue	Neutral	Neutral	hit	n/a
342.3862	n/a	RESPONSE	n/a	n/a	n/a	n/a	n/a	n/a	n/a	blue
342.4146	1.0167	ITI	n/a	n/a	n/a	n/a	n/a	n/a	n/a	n/a
343.4313	0.5167	FIXCROSS	n/a	n/a	n/a	n/a	n/a	n/a	n/a	n/a
343.9479	1.1167	COLOR_NAME	25	Neutral	zielony	green	Neutral	Neutral	hit	n/a
345.0392	n/a	RESPONSE	n/a	n/a	n/a	n/a	n/a	n/a	n/a	green
345.0646	1.0167	ITI	n/a	n/a	n/a	n/a	n/a	n/a	n/a	n/a
346.0813	0.5167	FIXCROSS	n/a	n/a	n/a	n/a	n/a	n/a	n/a	n/a
346.598	1.3167	COLOR_NAME	26	Incongruent	niebieski	blue	żółty	yellow	hit	n/a
347.884	n/a	RESPONSE	n/a	n/a	n/a	n/a	n/a	n/a	n/a	blue
347.9146	1.0167	ITI	n/a	n/a	n/a	n/a	n/a	n/a	n/a	n/a
348.9313	0.5167	FIXCROSS	n/a	n/a	n/a	n/a	n/a	n/a	n/a	n/a
349.448	0.8167	COLOR_NAME	27	Incongruent	czerwony	red	niebieski	blue	hit	n/a
350.2333	n/a	RESPONSE	n/a	n/a	n/a	n/a	n/a	n/a	n/a	red
350.2647	1.0167	ITI	n/a	n/a	n/a	n/a	n/a	n/a	n/a	n/a
351.2813	0.5167	FIXCROSS	n/a	n/a	n/a	n/a	n/a	n/a	n/a	n/a
351.798	0.8667	COLOR_NAME	28	Incongruent	niebieski	blue	czerwony	red	hit	n/a
352.6465	n/a	RESPONSE	n/a	n/a	n/a	n/a	n/a	n/a	n/a	blue
352.6647	1.0167	ITI	n/a	n/a	n/a	n/a	n/a	n/a	n/a	n/a
353.6813	0.5167	FIXCROSS	n/a	n/a	n/a	n/a	n/a	n/a	n/a	n/a
354.198	0.9667	COLOR_NAME	29	Incongruent	żółty	yellow	zielony	green	hit	n/a
355.1397	n/a	RESPONSE	n/a	n/a	n/a	n/a	n/a	n/a	n/a	yellow
355.1647	1.0167	ITI	n/a	n/a	n/a	n/a	n/a	n/a	n/a	n/a
356.1814	0.5167	FIXCROSS	n/a	n/a	n/a	n/a	n/a	n/a	n/a	n/a
356.698	1.0	COLOR_NAME	30	Incongruent	zielony	green	niebieski	blue	hit	n/a
357.6648	n/a	RESPONSE	n/a	n/a	n/a	n/a	n/a	n/a	n/a	green
357.698	1.0167	ITI	n/a	n/a	n/a	n/a	n/a	n/a	n/a	n/a
358.7147	0.5167	FIXCROSS	n/a	n/a	n/a	n/a	n/a	n/a	n/a	n/a
359.2314	0.5833	COLOR_NAME	31	Neutral	zielony	green	Neutral	Neutral	hit	n/a
359.7904	n/a	RESPONSE	n/a	n/a	n/a	n/a	n/a	n/a	n/a	green
359.8147	1.0167	ITI	n/a	n/a	n/a	n/a	n/a	n/a	n/a	n/a
360.8314	0.5167	FIXCROSS	n/a	n/a	n/a	n/a	n/a	n/a	n/a	n/a
361.3481	1.0667	COLOR_NAME	32	Neutral	niebieski	blue	Neutral	Neutral	hit	n/a
362.3954	n/a	RESPONSE	n/a	n/a	n/a	n/a	n/a	n/a	n/a	blue
362.4147	1.0167	ITI	n/a	n/a	n/a	n/a	n/a	n/a	n/a	n/a
363.4314	0.5167	FIXCROSS	n/a	n/a	n/a	n/a	n/a	n/a	n/a	n/a
363.9481	0.7667	COLOR_NAME	33	Neutral	czerwony	red	Neutral	Neutral	hit	n/a
364.6969	n/a	RESPONSE	n/a	n/a	n/a	n/a	n/a	n/a	n/a	red
364.7148	1.0167	ITI	n/a	n/a	n/a	n/a	n/a	n/a	n/a	n/a
365.7314	0.5167	FIXCROSS	n/a	n/a	n/a	n/a	n/a	n/a	n/a	n/a
366.2481	0.5167	COLOR_NAME	34	Incongruent	czerwony	red	żółty	yellow	hit	n/a
366.7425	n/a	RESPONSE	n/a	n/a	n/a	n/a	n/a	n/a	n/a	red
366.7648	1.0167	ITI	n/a	n/a	n/a	n/a	n/a	n/a	n/a	n/a
367.7814	0.5167	FIXCROSS	n/a	n/a	n/a	n/a	n/a	n/a	n/a	n/a
368.2981	0.9333	COLOR_NAME	35	Incongruent	zielony	green	czerwony	red	hit	n/a
369.2037	n/a	RESPONSE	n/a	n/a	n/a	n/a	n/a	n/a	n/a	green
369.2315	1.0167	ITI	n/a	n/a	n/a	n/a	n/a	n/a	n/a	n/a
370.2481	0.5167	FIXCROSS	n/a	n/a	n/a	n/a	n/a	n/a	n/a	n/a
370.7648	0.55	COLOR_NAME	36	Neutral	zielony	green	Neutral	Neutral	hit	n/a
371.2973	n/a	RESPONSE	n/a	n/a	n/a	n/a	n/a	n/a	n/a	green
371.3148	1.0167	ITI	n/a	n/a	n/a	n/a	n/a	n/a	n/a	n/a
372.3315	0.5167	FIXCROSS	n/a	n/a	n/a	n/a	n/a	n/a	n/a	n/a
372.8481	0.8833	COLOR_NAME	37	Incongruent	żółty	yellow	niebieski	blue	hit	n/a
373.7105	n/a	RESPONSE	n/a	n/a	n/a	n/a	n/a	n/a	n/a	yellow
373.7315	1.0167	ITI	n/a	n/a	n/a	n/a	n/a	n/a	n/a	n/a
374.7482	0.5167	FIXCROSS	n/a	n/a	n/a	n/a	n/a	n/a	n/a	n/a
375.2648	0.9667	COLOR_NAME	38	Neutral	niebieski	blue	Neutral	Neutral	hit	n/a
376.2036	n/a	RESPONSE	n/a	n/a	n/a	n/a	n/a	n/a	n/a	blue
376.2315	1.0167	ITI	n/a	n/a	n/a	n/a	n/a	n/a	n/a	n/a
377.2482	0.5167	FIXCROSS	n/a	n/a	n/a	n/a	n/a	n/a	n/a	n/a
377.7649	1.1	COLOR_NAME	39	Incongruent	niebieski	blue	zielony	green	hit	n/a
378.8406	n/a	RESPONSE	n/a	n/a	n/a	n/a	n/a	n/a	n/a	blue
378.8648	1.0167	ITI	n/a	n/a	n/a	n/a	n/a	n/a	n/a	n/a
379.8815	0.5167	FIXCROSS	n/a	n/a	n/a	n/a	n/a	n/a	n/a	n/a
380.3982	0.8167	COLOR_NAME	40	Incongruent	żółty	yellow	czerwony	red	hit	n/a
381.1897	n/a	RESPONSE	n/a	n/a	n/a	n/a	n/a	n/a	n/a	yellow
381.2149	1.0167	ITI	n/a	n/a	n/a	n/a	n/a	n/a	n/a	n/a
382.2316	0.5167	FIXCROSS	n/a	n/a	n/a	n/a	n/a	n/a	n/a	n/a
382.7482	0.4667	COLOR_NAME	41	Incongruent	żółty	yellow	czerwony	red	hit	n/a
383.1875	n/a	RESPONSE	n/a	n/a	n/a	n/a	n/a	n/a	n/a	yellow
383.2149	1.0167	ITI	n/a	n/a	n/a	n/a	n/a	n/a	n/a	n/a
384.2316	0.5167	FIXCROSS	n/a	n/a	n/a	n/a	n/a	n/a	n/a	n/a
384.7482	0.95	COLOR_NAME	42	Incongruent	zielony	green	żółty	yellow	hit	n/a
385.6806	n/a	RESPONSE	n/a	n/a	n/a	n/a	n/a	n/a	n/a	green
385.6982	1.0167	ITI	n/a	n/a	n/a	n/a	n/a	n/a	n/a	n/a
386.7149	0.5167	FIXCROSS	n/a	n/a	n/a	n/a	n/a	n/a	n/a	n/a
387.2316	1.15	COLOR_NAME	43	Incongruent	niebieski	blue	czerwony	red	hit	n/a
388.3496	n/a	RESPONSE	n/a	n/a	n/a	n/a	n/a	n/a	n/a	blue
388.3816	1.0167	ITI	n/a	n/a	n/a	n/a	n/a	n/a	n/a	n/a
389.3983	0.5167	FIXCROSS	n/a	n/a	n/a	n/a	n/a	n/a	n/a	n/a
389.9149	0.8333	COLOR_NAME	44	Incongruent	niebieski	blue	żółty	yellow	hit	n/a
390.7308	n/a	RESPONSE	n/a	n/a	n/a	n/a	n/a	n/a	n/a	blue
390.7483	1.0167	ITI	n/a	n/a	n/a	n/a	n/a	n/a	n/a	n/a
391.7649	0.5167	FIXCROSS	n/a	n/a	n/a	n/a	n/a	n/a	n/a	n/a
392.2816	0.8833	COLOR_NAME	45	Incongruent	zielony	green	żółty	yellow	hit	n/a
393.144	n/a	RESPONSE	n/a	n/a	n/a	n/a	n/a	n/a	n/a	green
393.165	1.0167	ITI	n/a	n/a	n/a	n/a	n/a	n/a	n/a	n/a
394.1816	0.5167	FIXCROSS	n/a	n/a	n/a	n/a	n/a	n/a	n/a	n/a
394.6983	0.8833	COLOR_NAME	46	Incongruent	czerwony	red	zielony	green	hit	n/a
395.5571	n/a	RESPONSE	n/a	n/a	n/a	n/a	n/a	n/a	n/a	red
395.5816	1.0167	ITI	n/a	n/a	n/a	n/a	n/a	n/a	n/a	n/a
396.5983	0.5167	FIXCROSS	n/a	n/a	n/a	n/a	n/a	n/a	n/a	n/a
397.115	0.9167	COLOR_NAME	47	Incongruent	niebieski	blue	zielony	green	hit	n/a
398.0025	n/a	RESPONSE	n/a	n/a	n/a	n/a	n/a	n/a	n/a	blue
398.0317	1.0167	ITI	n/a	n/a	n/a	n/a	n/a	n/a	n/a	n/a
399.0483	0.5167	FIXCROSS	n/a	n/a	n/a	n/a	n/a	n/a	n/a	n/a
399.565	0.8333	COLOR_NAME	48	Incongruent	zielony	green	niebieski	blue	hit	n/a
400.3675	n/a	RESPONSE	n/a	n/a	n/a	n/a	n/a	n/a	n/a	green
400.3983	1.0167	ITI	n/a	n/a	n/a	n/a	n/a	n/a	n/a	n/a
401.415	0.5167	FIXCROSS	n/a	n/a	n/a	n/a	n/a	n/a	n/a	n/a
401.9317	0.6833	COLOR_NAME	49	Incongruent	żółty	yellow	zielony	green	hit	n/a
402.589	n/a	RESPONSE	n/a	n/a	n/a	n/a	n/a	n/a	n/a	yellow
402.615	1.0167	ITI	n/a	n/a	n/a	n/a	n/a	n/a	n/a	n/a
403.6317	0.5167	FIXCROSS	n/a	n/a	n/a	n/a	n/a	n/a	n/a	n/a
404.1484	0.95	COLOR_NAME	50	Neutral	czerwony	red	Neutral	Neutral	hit	n/a
405.0661	n/a	RESPONSE	n/a	n/a	n/a	n/a	n/a	n/a	n/a	red
405.0984	1.0167	ITI	n/a	n/a	n/a	n/a	n/a	n/a	n/a	n/a
406.1151	0.5167	FIXCROSS	n/a	n/a	n/a	n/a	n/a	n/a	n/a	n/a
406.6317	0.7333	COLOR_NAME	51	Incongruent	żółty	yellow	niebieski	blue	hit	n/a
407.3355	n/a	RESPONSE	n/a	n/a	n/a	n/a	n/a	n/a	n/a	yellow
407.3651	1.0167	ITI	n/a	n/a	n/a	n/a	n/a	n/a	n/a	n/a
408.3817	0.5167	FIXCROSS	n/a	n/a	n/a	n/a	n/a	n/a	n/a	n/a
408.8984	0.8	COLOR_NAME	52	Neutral	żółty	yellow	Neutral	Neutral	hit	n/a
409.6688	n/a	RESPONSE	n/a	n/a	n/a	n/a	n/a	n/a	n/a	yellow
409.6984	1.0167	ITI	n/a	n/a	n/a	n/a	n/a	n/a	n/a	n/a
410.7151	0.5167	FIXCROSS	n/a	n/a	n/a	n/a	n/a	n/a	n/a	n/a
411.2318	0.9167	COLOR_NAME	53	Neutral	zielony	green	Neutral	Neutral	hit	n/a
412.114	n/a	RESPONSE	n/a	n/a	n/a	n/a	n/a	n/a	n/a	green
412.1484	1.0167	ITI	n/a	n/a	n/a	n/a	n/a	n/a	n/a	n/a
413.1651	0.5167	FIXCROSS	n/a	n/a	n/a	n/a	n/a	n/a	n/a	n/a
413.6818	0.7	COLOR_NAME	54	Neutral	zielony	green	Neutral	Neutral	hit	n/a
414.3514	n/a	RESPONSE	n/a	n/a	n/a	n/a	n/a	n/a	n/a	green
414.3818	1.0167	ITI	n/a	n/a	n/a	n/a	n/a	n/a	n/a	n/a
415.3984	0.5167	FIXCROSS	n/a	n/a	n/a	n/a	n/a	n/a	n/a	n/a
415.9151	0.8833	COLOR_NAME	55	Neutral	niebieski	blue	Neutral	Neutral	hit	n/a
416.7646	n/a	RESPONSE	n/a	n/a	n/a	n/a	n/a	n/a	n/a	blue
416.7985	1.0167	ITI	n/a	n/a	n/a	n/a	n/a	n/a	n/a	n/a
417.8151	0.5167	FIXCROSS	n/a	n/a	n/a	n/a	n/a	n/a	n/a	n/a
418.3318	0.75	COLOR_NAME	56	Neutral	żółty	yellow	Neutral	Neutral	hit	n/a
419.05	n/a	RESPONSE	n/a	n/a	n/a	n/a	n/a	n/a	n/a	yellow
419.0818	1.0167	ITI	n/a	n/a	n/a	n/a	n/a	n/a	n/a	n/a
420.0985	0.5167	FIXCROSS	n/a	n/a	n/a	n/a	n/a	n/a	n/a	n/a
420.6152	0.65	COLOR_NAME	57	Neutral	żółty	yellow	Neutral	Neutral	hit	n/a
421.2394	n/a	RESPONSE	n/a	n/a	n/a	n/a	n/a	n/a	n/a	yellow
421.2652	1.0167	ITI	n/a	n/a	n/a	n/a	n/a	n/a	n/a	n/a
422.2818	0.5167	FIXCROSS	n/a	n/a	n/a	n/a	n/a	n/a	n/a	n/a
422.7985	0.95	COLOR_NAME	58	Incongruent	zielony	green	czerwony	red	hit	n/a
423.7165	n/a	RESPONSE	n/a	n/a	n/a	n/a	n/a	n/a	n/a	green
423.7485	1.0167	ITI	n/a	n/a	n/a	n/a	n/a	n/a	n/a	n/a
424.7652	0.5167	FIXCROSS	n/a	n/a	n/a	n/a	n/a	n/a	n/a	n/a
425.2818	0.9	COLOR_NAME	59	Incongruent	niebieski	blue	zielony	green	hit	n/a
426.1617	n/a	RESPONSE	n/a	n/a	n/a	n/a	n/a	n/a	n/a	blue
426.1819	1.0167	ITI	n/a	n/a	n/a	n/a	n/a	n/a	n/a	n/a
427.1985	0.5167	FIXCROSS	n/a	n/a	n/a	n/a	n/a	n/a	n/a	n/a
427.7152	0.7833	COLOR_NAME	60	Neutral	czerwony	red	Neutral	Neutral	hit	n/a
428.4791	n/a	RESPONSE	n/a	n/a	n/a	n/a	n/a	n/a	n/a	red
428.4985	1.0167	ITI	n/a	n/a	n/a	n/a	n/a	n/a	n/a	n/a
429.5152	0.5167	FIXCROSS	n/a	n/a	n/a	n/a	n/a	n/a	n/a	n/a
430.0319	0.5333	COLOR_NAME	61	Neutral	czerwony	red	Neutral	Neutral	hit	n/a
430.5406	n/a	RESPONSE	n/a	n/a	n/a	n/a	n/a	n/a	n/a	red
430.5652	1.0167	ITI	n/a	n/a	n/a	n/a	n/a	n/a	n/a	n/a
431.5819	0.5167	FIXCROSS	n/a	n/a	n/a	n/a	n/a	n/a	n/a	n/a
432.0986	0.75	COLOR_NAME	62	Neutral	zielony	green	Neutral	Neutral	hit	n/a
432.826	n/a	RESPONSE	n/a	n/a	n/a	n/a	n/a	n/a	n/a	green
432.8486	1.0167	ITI	n/a	n/a	n/a	n/a	n/a	n/a	n/a	n/a
433.8652	0.5167	FIXCROSS	n/a	n/a	n/a	n/a	n/a	n/a	n/a	n/a
434.3819	0.6833	COLOR_NAME	63	Incongruent	czerwony	red	żółty	yellow	hit	n/a
435.0314	n/a	RESPONSE	n/a	n/a	n/a	n/a	n/a	n/a	n/a	red
435.0653	1.0167	ITI	n/a	n/a	n/a	n/a	n/a	n/a	n/a	n/a
436.0819	0.5167	FIXCROSS	n/a	n/a	n/a	n/a	n/a	n/a	n/a	n/a
436.5986	0.85	COLOR_NAME	64	Neutral	niebieski	blue	Neutral	Neutral	hit	n/a
437.4286	n/a	RESPONSE	n/a	n/a	n/a	n/a	n/a	n/a	n/a	blue
437.4486	1.0167	ITI	n/a	n/a	n/a	n/a	n/a	n/a	n/a	n/a
437.5725	n/a	RESPONSE	n/a	n/a	n/a	n/a	n/a	n/a	n/a	yellow
438.4653	0.5167	FIXCROSS	n/a	n/a	n/a	n/a	n/a	n/a	n/a	n/a
438.982	1.0667	COLOR_NAME	65	Incongruent	niebieski	blue	czerwony	red	hit	n/a
440.0176	n/a	RESPONSE	n/a	n/a	n/a	n/a	n/a	n/a	n/a	blue
440.0486	1.0167	ITI	n/a	n/a	n/a	n/a	n/a	n/a	n/a	n/a
441.0653	0.5167	FIXCROSS	n/a	n/a	n/a	n/a	n/a	n/a	n/a	n/a
441.582	0.7167	COLOR_NAME	66	Incongruent	żółty	yellow	niebieski	blue	hit	n/a
442.2709	n/a	RESPONSE	n/a	n/a	n/a	n/a	n/a	n/a	n/a	yellow
442.2986	1.0167	ITI	n/a	n/a	n/a	n/a	n/a	n/a	n/a	n/a
443.3153	0.5167	FIXCROSS	n/a	n/a	n/a	n/a	n/a	n/a	n/a	n/a
443.832	0.7833	COLOR_NAME	67	Incongruent	zielony	green	niebieski	blue	hit	n/a
444.5883	n/a	RESPONSE	n/a	n/a	n/a	n/a	n/a	n/a	n/a	green
444.6153	1.0167	ITI	n/a	n/a	n/a	n/a	n/a	n/a	n/a	n/a
445.632	0.5167	FIXCROSS	n/a	n/a	n/a	n/a	n/a	n/a	n/a	n/a
446.1487	0.8833	COLOR_NAME	68	Neutral	żółty	yellow	Neutral	Neutral	hit	n/a
447.0015	n/a	RESPONSE	n/a	n/a	n/a	n/a	n/a	n/a	n/a	yellow
447.032	1.0167	ITI	n/a	n/a	n/a	n/a	n/a	n/a	n/a	n/a
448.0487	0.5167	FIXCROSS	n/a	n/a	n/a	n/a	n/a	n/a	n/a	n/a
448.5654	0.6333	COLOR_NAME	69	Incongruent	żółty	yellow	zielony	green	hit	n/a
449.175	n/a	RESPONSE	n/a	n/a	n/a	n/a	n/a	n/a	n/a	yellow
449.1987	1.0167	ITI	n/a	n/a	n/a	n/a	n/a	n/a	n/a	n/a
450.2154	0.5167	FIXCROSS	n/a	n/a	n/a	n/a	n/a	n/a	n/a	n/a
450.732	1.0333	COLOR_NAME	70	Neutral	zielony	green	Neutral	Neutral	hit	n/a
451.7479	n/a	RESPONSE	n/a	n/a	n/a	n/a	n/a	n/a	n/a	green
451.7654	1.0167	ITI	n/a	n/a	n/a	n/a	n/a	n/a	n/a	n/a
452.7821	0.5167	FIXCROSS	n/a	n/a	n/a	n/a	n/a	n/a	n/a	n/a
453.2987	0.5667	COLOR_NAME	71	Neutral	żółty	yellow	Neutral	Neutral	hit	n/a
453.8415	n/a	RESPONSE	n/a	n/a	n/a	n/a	n/a	n/a	n/a	yellow
453.8654	1.0167	ITI	n/a	n/a	n/a	n/a	n/a	n/a	n/a	n/a
454.8821	0.5167	FIXCROSS	n/a	n/a	n/a	n/a	n/a	n/a	n/a	n/a
455.3987	0.6167	COLOR_NAME	72	Incongruent	żółty	yellow	czerwony	red	hit	n/a
455.983	n/a	RESPONSE	n/a	n/a	n/a	n/a	n/a	n/a	n/a	yellow
456.0154	1.0333	ITI	n/a	n/a	n/a	n/a	n/a	n/a	n/a	n/a
461.4807	n/a	RESPONSE	n/a	n/a	n/a	n/a	n/a	n/a	n/a	n/a
