onset	duration	trial_type	trial_number	stroop_condition	stim_text(PL)	stim_text(eng)	stim_color(PL)	stim_color(eng)	response_type	response_color
0.0	n/a	RESPONSE	n/a	n/a	n/a	n/a	n/a	n/a	n/a	n/a
0.0288	1.0166	ITI	n/a	n/a	n/a	n/a	n/a	n/a	n/a	n/a
1.0454	0.5	FIXCROSS	n/a	n/a	n/a	n/a	n/a	n/a	n/a	n/a
1.5454	1.0166	T_INK	1	Neutral	xxxxx	xxxxx	zielony	green	hit	n/a
2.5557	n/a	RESPONSE	n/a	n/a	n/a	n/a	n/a	n/a	n/a	green
2.5621	0.5	FEEDBACK	n/a	n/a	n/a	n/a	n/a	n/a	n/a	n/a
3.0621	1.0	ITI	n/a	n/a	n/a	n/a	n/a	n/a	n/a	n/a
4.0621	0.5	FIXCROSS	n/a	n/a	n/a	n/a	n/a	n/a	n/a	n/a
4.562	1.1333	T_INK	2	Incongruent	zielony	green	żółty	yellow	hit	n/a
5.6865	n/a	RESPONSE	n/a	n/a	n/a	n/a	n/a	n/a	n/a	yellow
5.6954	0.5	FEEDBACK	n/a	n/a	n/a	n/a	n/a	n/a	n/a	n/a
6.1953	1.0	ITI	n/a	n/a	n/a	n/a	n/a	n/a	n/a	n/a
7.1953	0.5	FIXCROSS	n/a	n/a	n/a	n/a	n/a	n/a	n/a	n/a
7.6953	1.0	T_INK	3	Incongruent	czerwony	red	niebieski	blue	hit	n/a
8.6894	n/a	RESPONSE	n/a	n/a	n/a	n/a	n/a	n/a	n/a	blue
8.6953	0.5	FEEDBACK	n/a	n/a	n/a	n/a	n/a	n/a	n/a	n/a
9.1953	1.0	ITI	n/a	n/a	n/a	n/a	n/a	n/a	n/a	n/a
10.1953	0.5	FIXCROSS	n/a	n/a	n/a	n/a	n/a	n/a	n/a	n/a
10.6953	0.6666	T_INK	4	Neutral	xxxxxxxxx	xxxxxxxxx	zielony	green	hit	n/a
11.357	n/a	RESPONSE	n/a	n/a	n/a	n/a	n/a	n/a	n/a	green
11.3619	0.5	FEEDBACK	n/a	n/a	n/a	n/a	n/a	n/a	n/a	n/a
11.8619	1.0	ITI	n/a	n/a	n/a	n/a	n/a	n/a	n/a	n/a
12.8619	0.5	FIXCROSS	n/a	n/a	n/a	n/a	n/a	n/a	n/a	n/a
13.3619	0.8833	T_INK	5	Incongruent	zielony	green	niebieski	blue	hit	n/a
14.2323	n/a	RESPONSE	n/a	n/a	n/a	n/a	n/a	n/a	n/a	blue
14.2452	0.5	FEEDBACK	n/a	n/a	n/a	n/a	n/a	n/a	n/a	n/a
14.7452	1.0166	ITI	n/a	n/a	n/a	n/a	n/a	n/a	n/a	n/a
15.7618	0.5	FIXCROSS	n/a	n/a	n/a	n/a	n/a	n/a	n/a	n/a
16.2618	0.7	T_INK	6	Incongruent	żółty	yellow	niebieski	blue	hit	n/a
16.9479	n/a	RESPONSE	n/a	n/a	n/a	n/a	n/a	n/a	n/a	blue
16.9618	0.5	FEEDBACK	n/a	n/a	n/a	n/a	n/a	n/a	n/a	n/a
17.4618	1.0	ITI	n/a	n/a	n/a	n/a	n/a	n/a	n/a	n/a
18.4618	0.5	FIXCROSS	n/a	n/a	n/a	n/a	n/a	n/a	n/a	n/a
18.9618	0.7833	T_INK	7	Neutral	xxxxxxxx	xxxxxxxx	żółty	yellow	hit	n/a
19.7273	n/a	RESPONSE	n/a	n/a	n/a	n/a	n/a	n/a	n/a	yellow
19.7451	0.5	FEEDBACK	n/a	n/a	n/a	n/a	n/a	n/a	n/a	n/a
20.2451	1.0	ITI	n/a	n/a	n/a	n/a	n/a	n/a	n/a	n/a
21.2451	0.5	FIXCROSS	n/a	n/a	n/a	n/a	n/a	n/a	n/a	n/a
21.7451	0.7833	T_INK	8	Incongruent	czerwony	red	zielony	green	hit	n/a
22.5226	n/a	RESPONSE	n/a	n/a	n/a	n/a	n/a	n/a	n/a	green
22.5284	0.5	FEEDBACK	n/a	n/a	n/a	n/a	n/a	n/a	n/a	n/a
23.0284	1.0	ITI	n/a	n/a	n/a	n/a	n/a	n/a	n/a	n/a
24.0284	0.5	FIXCROSS	n/a	n/a	n/a	n/a	n/a	n/a	n/a	n/a
24.5284	0.7833	T_INK	9	Neutral	xxxxx	xxxxx	niebieski	blue	hit	n/a
25.3021	n/a	RESPONSE	n/a	n/a	n/a	n/a	n/a	n/a	n/a	blue
25.3117	0.5	FEEDBACK	n/a	n/a	n/a	n/a	n/a	n/a	n/a	n/a
25.8117	1.0	ITI	n/a	n/a	n/a	n/a	n/a	n/a	n/a	n/a
26.8116	0.5	FIXCROSS	n/a	n/a	n/a	n/a	n/a	n/a	n/a	n/a
27.3116	0.7	T_INK	10	Neutral	xxxxxxxxx	xxxxxxxxx	żółty	yellow	hit	n/a
28.0016	n/a	RESPONSE	n/a	n/a	n/a	n/a	n/a	n/a	n/a	yellow
28.0116	0.5	FEEDBACK	n/a	n/a	n/a	n/a	n/a	n/a	n/a	n/a
28.5116	1.0	ITI	n/a	n/a	n/a	n/a	n/a	n/a	n/a	n/a
29.5116	0.5	FIXCROSS	n/a	n/a	n/a	n/a	n/a	n/a	n/a	n/a
30.0116	0.7667	T_INK	11	Neutral	xxxxxxxx	xxxxxxxx	niebieski	blue	hit	n/a
30.7651	n/a	RESPONSE	n/a	n/a	n/a	n/a	n/a	n/a	n/a	blue
30.7782	0.5	FEEDBACK	n/a	n/a	n/a	n/a	n/a	n/a	n/a	n/a
31.2782	1.0	ITI	n/a	n/a	n/a	n/a	n/a	n/a	n/a	n/a
32.2782	0.5	FIXCROSS	n/a	n/a	n/a	n/a	n/a	n/a	n/a	n/a
32.7782	0.7667	T_INK	12	Incongruent	czerwony	red	żółty	yellow	hit	n/a
33.5284	n/a	RESPONSE	n/a	n/a	n/a	n/a	n/a	n/a	n/a	yellow
33.5449	0.5	FEEDBACK	n/a	n/a	n/a	n/a	n/a	n/a	n/a	n/a
34.0448	1.0167	ITI	n/a	n/a	n/a	n/a	n/a	n/a	n/a	n/a
47.122	n/a	RESPONSE	n/a	n/a	n/a	n/a	n/a	n/a	n/a	n/a
47.1446	1.0	ITI	n/a	n/a	n/a	n/a	n/a	n/a	n/a	n/a
48.1446	0.5	FIXCROSS	n/a	n/a	n/a	n/a	n/a	n/a	n/a	n/a
48.6446	0.9333	INK	1	Incongruent	niebieski	blue	zielony	green	hit	n/a
49.5659	n/a	RESPONSE	n/a	n/a	n/a	n/a	n/a	n/a	n/a	green
49.5779	1.0	ITI	n/a	n/a	n/a	n/a	n/a	n/a	n/a	n/a
50.5779	0.5	FIXCROSS	n/a	n/a	n/a	n/a	n/a	n/a	n/a	n/a
51.0779	0.7333	INK	2	Neutral	xxxxxxxxx	xxxxxxxxx	żółty	yellow	hit	n/a
51.8023	n/a	RESPONSE	n/a	n/a	n/a	n/a	n/a	n/a	n/a	yellow
51.8112	1.0	ITI	n/a	n/a	n/a	n/a	n/a	n/a	n/a	n/a
52.8112	0.5	FIXCROSS	n/a	n/a	n/a	n/a	n/a	n/a	n/a	n/a
53.3112	0.6	INK	3	Incongruent	zielony	green	żółty	yellow	hit	n/a
53.8948	n/a	RESPONSE	n/a	n/a	n/a	n/a	n/a	n/a	n/a	yellow
53.9112	1.0	ITI	n/a	n/a	n/a	n/a	n/a	n/a	n/a	n/a
54.9111	0.5	FIXCROSS	n/a	n/a	n/a	n/a	n/a	n/a	n/a	n/a
55.4111	0.75	INK	4	Neutral	xxxxxxxx	xxxxxxxx	zielony	green	hit	n/a
56.1471	n/a	RESPONSE	n/a	n/a	n/a	n/a	n/a	n/a	n/a	green
56.1611	1.0	ITI	n/a	n/a	n/a	n/a	n/a	n/a	n/a	n/a
57.1611	0.5	FIXCROSS	n/a	n/a	n/a	n/a	n/a	n/a	n/a	n/a
57.6611	0.65	INK	5	Neutral	xxxxxxx	xxxxxxx	żółty	yellow	hit	n/a
58.3036	n/a	RESPONSE	n/a	n/a	n/a	n/a	n/a	n/a	n/a	yellow
58.3111	1.0	ITI	n/a	n/a	n/a	n/a	n/a	n/a	n/a	n/a
59.3111	0.5	FIXCROSS	n/a	n/a	n/a	n/a	n/a	n/a	n/a	n/a
59.8111	0.8666	INK	6	Neutral	xxxxxxxxx	xxxxxxxxx	czerwony	red	hit	n/a
60.6676	n/a	RESPONSE	n/a	n/a	n/a	n/a	n/a	n/a	n/a	red
60.6777	1.0	ITI	n/a	n/a	n/a	n/a	n/a	n/a	n/a	n/a
61.6777	0.5	FIXCROSS	n/a	n/a	n/a	n/a	n/a	n/a	n/a	n/a
62.1777	0.5167	INK	7	Incongruent	czerwony	red	niebieski	blue	hit	n/a
62.6802	n/a	RESPONSE	n/a	n/a	n/a	n/a	n/a	n/a	n/a	blue
62.6943	1.0	ITI	n/a	n/a	n/a	n/a	n/a	n/a	n/a	n/a
63.6943	0.5	FIXCROSS	n/a	n/a	n/a	n/a	n/a	n/a	n/a	n/a
64.1943	0.65	INK	8	Incongruent	zielony	green	czerwony	red	hit	n/a
64.8367	n/a	RESPONSE	n/a	n/a	n/a	n/a	n/a	n/a	n/a	red
64.8443	1.0	ITI	n/a	n/a	n/a	n/a	n/a	n/a	n/a	n/a
65.8443	0.5	FIXCROSS	n/a	n/a	n/a	n/a	n/a	n/a	n/a	n/a
66.3443	0.7666	INK	9	Incongruent	czerwony	red	zielony	green	hit	n/a
67.105	n/a	RESPONSE	n/a	n/a	n/a	n/a	n/a	n/a	n/a	green
67.1109	1.0	ITI	n/a	n/a	n/a	n/a	n/a	n/a	n/a	n/a
68.1109	0.5	FIXCROSS	n/a	n/a	n/a	n/a	n/a	n/a	n/a	n/a
68.6109	0.4167	INK	10	Neutral	xxxxxxxxx	xxxxxxxxx	zielony	green	hit	n/a
69.0218	n/a	RESPONSE	n/a	n/a	n/a	n/a	n/a	n/a	n/a	green
69.0276	1.0	ITI	n/a	n/a	n/a	n/a	n/a	n/a	n/a	n/a
70.0275	0.5	FIXCROSS	n/a	n/a	n/a	n/a	n/a	n/a	n/a	n/a
70.5275	0.6666	INK	11	Incongruent	czerwony	red	żółty	yellow	hit	n/a
71.1782	n/a	RESPONSE	n/a	n/a	n/a	n/a	n/a	n/a	n/a	yellow
71.1942	1.0	ITI	n/a	n/a	n/a	n/a	n/a	n/a	n/a	n/a
72.1942	0.5	FIXCROSS	n/a	n/a	n/a	n/a	n/a	n/a	n/a	n/a
72.6942	0.7667	INK	12	Neutral	xxxxx	xxxxx	zielony	green	hit	n/a
73.4464	n/a	RESPONSE	n/a	n/a	n/a	n/a	n/a	n/a	n/a	green
73.4608	1.0	ITI	n/a	n/a	n/a	n/a	n/a	n/a	n/a	n/a
74.4608	0.5	FIXCROSS	n/a	n/a	n/a	n/a	n/a	n/a	n/a	n/a
74.9608	0.6	INK	13	Neutral	xxxxxxx	xxxxxxx	czerwony	red	hit	n/a
75.5549	n/a	RESPONSE	n/a	n/a	n/a	n/a	n/a	n/a	n/a	red
75.5608	1.0	ITI	n/a	n/a	n/a	n/a	n/a	n/a	n/a	n/a
76.5608	0.5	FIXCROSS	n/a	n/a	n/a	n/a	n/a	n/a	n/a	n/a
77.0607	0.4833	INK	14	Neutral	xxxxxxxxx	xxxxxxxxx	zielony	green	incorrect	n/a
77.5356	n/a	RESPONSE	n/a	n/a	n/a	n/a	n/a	n/a	n/a	red
77.5441	1.0	ITI	n/a	n/a	n/a	n/a	n/a	n/a	n/a	n/a
78.5441	0.5	FIXCROSS	n/a	n/a	n/a	n/a	n/a	n/a	n/a	n/a
79.044	0.6833	INK	15	Incongruent	żółty	yellow	niebieski	blue	hit	n/a
79.708	n/a	RESPONSE	n/a	n/a	n/a	n/a	n/a	n/a	n/a	blue
79.7274	1.0	ITI	n/a	n/a	n/a	n/a	n/a	n/a	n/a	n/a
80.7273	0.5	FIXCROSS	n/a	n/a	n/a	n/a	n/a	n/a	n/a	n/a
81.2273	0.6167	INK	16	Incongruent	zielony	green	żółty	yellow	hit	n/a
81.8325	n/a	RESPONSE	n/a	n/a	n/a	n/a	n/a	n/a	n/a	yellow
81.844	1.0	ITI	n/a	n/a	n/a	n/a	n/a	n/a	n/a	n/a
82.844	0.5	FIXCROSS	n/a	n/a	n/a	n/a	n/a	n/a	n/a	n/a
83.344	0.6167	INK	17	Incongruent	zielony	green	czerwony	red	hit	n/a
83.957	n/a	RESPONSE	n/a	n/a	n/a	n/a	n/a	n/a	n/a	red
83.9606	1.0	ITI	n/a	n/a	n/a	n/a	n/a	n/a	n/a	n/a
84.9606	0.5	FIXCROSS	n/a	n/a	n/a	n/a	n/a	n/a	n/a	n/a
85.4606	0.7166	INK	18	Neutral	xxxxx	xxxxx	zielony	green	hit	n/a
86.1613	n/a	RESPONSE	n/a	n/a	n/a	n/a	n/a	n/a	n/a	green
86.1772	1.0	ITI	n/a	n/a	n/a	n/a	n/a	n/a	n/a	n/a
87.1772	0.5	FIXCROSS	n/a	n/a	n/a	n/a	n/a	n/a	n/a	n/a
87.6772	0.6667	INK	19	Neutral	xxxxxxxxx	xxxxxxxxx	żółty	yellow	hit	n/a
88.3337	n/a	RESPONSE	n/a	n/a	n/a	n/a	n/a	n/a	n/a	yellow
88.3439	1.0	ITI	n/a	n/a	n/a	n/a	n/a	n/a	n/a	n/a
89.3439	0.5	FIXCROSS	n/a	n/a	n/a	n/a	n/a	n/a	n/a	n/a
89.8438	0.6333	INK	20	Incongruent	żółty	yellow	czerwony	red	hit	n/a
90.4582	n/a	RESPONSE	n/a	n/a	n/a	n/a	n/a	n/a	n/a	red
90.4772	1.0	ITI	n/a	n/a	n/a	n/a	n/a	n/a	n/a	n/a
91.4771	0.5	FIXCROSS	n/a	n/a	n/a	n/a	n/a	n/a	n/a	n/a
91.9771	0.5667	INK	21	Neutral	xxxxxxx	xxxxxxx	niebieski	blue	hit	n/a
92.5348	n/a	RESPONSE	n/a	n/a	n/a	n/a	n/a	n/a	n/a	blue
92.5438	1.0	ITI	n/a	n/a	n/a	n/a	n/a	n/a	n/a	n/a
93.5438	0.5	FIXCROSS	n/a	n/a	n/a	n/a	n/a	n/a	n/a	n/a
94.0438	0.7833	INK	22	Neutral	xxxxxxx	xxxxxxx	czerwony	red	hit	n/a
94.819	n/a	RESPONSE	n/a	n/a	n/a	n/a	n/a	n/a	n/a	red
94.8271	1.0	ITI	n/a	n/a	n/a	n/a	n/a	n/a	n/a	n/a
95.8271	0.5	FIXCROSS	n/a	n/a	n/a	n/a	n/a	n/a	n/a	n/a
96.3271	0.8333	INK	23	Incongruent	żółty	yellow	zielony	green	hit	n/a
97.1511	n/a	RESPONSE	n/a	n/a	n/a	n/a	n/a	n/a	n/a	green
97.1604	1.0	ITI	n/a	n/a	n/a	n/a	n/a	n/a	n/a	n/a
98.1604	0.5	FIXCROSS	n/a	n/a	n/a	n/a	n/a	n/a	n/a	n/a
98.6604	0.8833	INK	24	Incongruent	niebieski	blue	żółty	yellow	hit	n/a
99.5311	n/a	RESPONSE	n/a	n/a	n/a	n/a	n/a	n/a	n/a	yellow
99.5437	1.0	ITI	n/a	n/a	n/a	n/a	n/a	n/a	n/a	n/a
100.5437	0.5	FIXCROSS	n/a	n/a	n/a	n/a	n/a	n/a	n/a	n/a
101.0437	0.8333	INK	25	Neutral	xxxxxxxx	xxxxxxxx	żółty	yellow	hit	n/a
101.8634	n/a	RESPONSE	n/a	n/a	n/a	n/a	n/a	n/a	n/a	yellow
101.877	1.0	ITI	n/a	n/a	n/a	n/a	n/a	n/a	n/a	n/a
102.877	0.5	FIXCROSS	n/a	n/a	n/a	n/a	n/a	n/a	n/a	n/a
103.3769	0.85	INK	26	Neutral	xxxxxxx	xxxxxxx	niebieski	blue	hit	n/a
104.2114	n/a	RESPONSE	n/a	n/a	n/a	n/a	n/a	n/a	n/a	blue
104.2269	1.0	ITI	n/a	n/a	n/a	n/a	n/a	n/a	n/a	n/a
105.2269	0.5	FIXCROSS	n/a	n/a	n/a	n/a	n/a	n/a	n/a	n/a
105.7269	0.75	INK	27	Incongruent	niebieski	blue	zielony	green	hit	n/a
106.4636	n/a	RESPONSE	n/a	n/a	n/a	n/a	n/a	n/a	n/a	green
106.4769	1.0	ITI	n/a	n/a	n/a	n/a	n/a	n/a	n/a	n/a
107.4769	0.5	FIXCROSS	n/a	n/a	n/a	n/a	n/a	n/a	n/a	n/a
107.9769	0.6667	INK	28	Neutral	xxxxxxxx	xxxxxxxx	żółty	yellow	hit	n/a
108.636	n/a	RESPONSE	n/a	n/a	n/a	n/a	n/a	n/a	n/a	yellow
108.6435	1.0	ITI	n/a	n/a	n/a	n/a	n/a	n/a	n/a	n/a
109.6435	0.5	FIXCROSS	n/a	n/a	n/a	n/a	n/a	n/a	n/a	n/a
110.1435	0.6667	INK	29	Neutral	xxxxxxxxx	xxxxxxxxx	czerwony	red	hit	n/a
110.7924	n/a	RESPONSE	n/a	n/a	n/a	n/a	n/a	n/a	n/a	red
110.8101	1.0	ITI	n/a	n/a	n/a	n/a	n/a	n/a	n/a	n/a
111.8101	0.5	FIXCROSS	n/a	n/a	n/a	n/a	n/a	n/a	n/a	n/a
112.3101	1.0	INK	30	Incongruent	niebieski	blue	żółty	yellow	hit	n/a
113.3003	n/a	RESPONSE	n/a	n/a	n/a	n/a	n/a	n/a	n/a	yellow
113.3101	1.0	ITI	n/a	n/a	n/a	n/a	n/a	n/a	n/a	n/a
114.3101	0.5	FIXCROSS	n/a	n/a	n/a	n/a	n/a	n/a	n/a	n/a
114.8101	0.5	INK	31	Neutral	xxxxxxxx	xxxxxxxx	żółty	yellow	hit	n/a
115.2969	n/a	RESPONSE	n/a	n/a	n/a	n/a	n/a	n/a	n/a	yellow
115.3101	1.0	ITI	n/a	n/a	n/a	n/a	n/a	n/a	n/a	n/a
116.31	0.5	FIXCROSS	n/a	n/a	n/a	n/a	n/a	n/a	n/a	n/a
116.81	0.4667	INK	32	Incongruent	zielony	green	niebieski	blue	hit	n/a
117.2617	n/a	RESPONSE	n/a	n/a	n/a	n/a	n/a	n/a	n/a	blue
117.2767	1.0	ITI	n/a	n/a	n/a	n/a	n/a	n/a	n/a	n/a
118.2767	0.5	FIXCROSS	n/a	n/a	n/a	n/a	n/a	n/a	n/a	n/a
118.7767	0.7667	INK	33	Neutral	xxxxxxxxx	xxxxxxxxx	zielony	green	hit	n/a
119.53	n/a	RESPONSE	n/a	n/a	n/a	n/a	n/a	n/a	n/a	green
119.5433	1.0	ITI	n/a	n/a	n/a	n/a	n/a	n/a	n/a	n/a
120.5433	0.5	FIXCROSS	n/a	n/a	n/a	n/a	n/a	n/a	n/a	n/a
121.0433	0.65	INK	34	Incongruent	czerwony	red	niebieski	blue	hit	n/a
121.6864	n/a	RESPONSE	n/a	n/a	n/a	n/a	n/a	n/a	n/a	blue
121.6933	1.0	ITI	n/a	n/a	n/a	n/a	n/a	n/a	n/a	n/a
122.6933	0.5	FIXCROSS	n/a	n/a	n/a	n/a	n/a	n/a	n/a	n/a
123.1933	0.6167	INK	35	Incongruent	niebieski	blue	czerwony	red	hit	n/a
123.7949	n/a	RESPONSE	n/a	n/a	n/a	n/a	n/a	n/a	n/a	red
123.8099	1.0	ITI	n/a	n/a	n/a	n/a	n/a	n/a	n/a	n/a
124.8099	0.5	FIXCROSS	n/a	n/a	n/a	n/a	n/a	n/a	n/a	n/a
125.3099	1.05	INK	36	Incongruent	czerwony	red	zielony	green	hit	n/a
126.3506	n/a	RESPONSE	n/a	n/a	n/a	n/a	n/a	n/a	n/a	green
126.3599	1.0	ITI	n/a	n/a	n/a	n/a	n/a	n/a	n/a	n/a
127.3598	0.5	FIXCROSS	n/a	n/a	n/a	n/a	n/a	n/a	n/a	n/a
127.8598	0.7833	INK	37	Neutral	xxxxxxxx	xxxxxxxx	niebieski	blue	hit	n/a
128.6348	n/a	RESPONSE	n/a	n/a	n/a	n/a	n/a	n/a	n/a	blue
128.6431	1.0	ITI	n/a	n/a	n/a	n/a	n/a	n/a	n/a	n/a
129.6431	0.5	FIXCROSS	n/a	n/a	n/a	n/a	n/a	n/a	n/a	n/a
130.1431	0.4666	INK	38	Incongruent	żółty	yellow	niebieski	blue	hit	n/a
130.5996	n/a	RESPONSE	n/a	n/a	n/a	n/a	n/a	n/a	n/a	blue
130.6098	1.0	ITI	n/a	n/a	n/a	n/a	n/a	n/a	n/a	n/a
131.6098	0.5	FIXCROSS	n/a	n/a	n/a	n/a	n/a	n/a	n/a	n/a
132.1098	0.35	INK	39	Neutral	xxxxx	xxxxx	niebieski	blue	hit	n/a
132.4526	n/a	RESPONSE	n/a	n/a	n/a	n/a	n/a	n/a	n/a	blue
132.4598	1.0	ITI	n/a	n/a	n/a	n/a	n/a	n/a	n/a	n/a
133.4597	0.5	FIXCROSS	n/a	n/a	n/a	n/a	n/a	n/a	n/a	n/a
133.9597	0.6167	INK	40	Incongruent	czerwony	red	żółty	yellow	hit	n/a
134.561	n/a	RESPONSE	n/a	n/a	n/a	n/a	n/a	n/a	n/a	yellow
134.5764	1.0	ITI	n/a	n/a	n/a	n/a	n/a	n/a	n/a	n/a
135.5764	0.5	FIXCROSS	n/a	n/a	n/a	n/a	n/a	n/a	n/a	n/a
136.0764	0.3667	INK	41	Incongruent	żółty	yellow	niebieski	blue	hit	n/a
136.4299	n/a	RESPONSE	n/a	n/a	n/a	n/a	n/a	n/a	n/a	blue
136.443	1.0	ITI	n/a	n/a	n/a	n/a	n/a	n/a	n/a	n/a
137.443	0.5	FIXCROSS	n/a	n/a	n/a	n/a	n/a	n/a	n/a	n/a
137.943	0.9667	INK	42	Incongruent	czerwony	red	zielony	green	hit	n/a
138.9059	n/a	RESPONSE	n/a	n/a	n/a	n/a	n/a	n/a	n/a	green
138.9096	1.0	ITI	n/a	n/a	n/a	n/a	n/a	n/a	n/a	n/a
139.9096	0.5	FIXCROSS	n/a	n/a	n/a	n/a	n/a	n/a	n/a	n/a
140.4096	0.8	INK	43	Neutral	xxxxx	xxxxx	czerwony	red	hit	n/a
141.2061	n/a	RESPONSE	n/a	n/a	n/a	n/a	n/a	n/a	n/a	red
141.2096	1.0	ITI	n/a	n/a	n/a	n/a	n/a	n/a	n/a	n/a
142.2096	0.5	FIXCROSS	n/a	n/a	n/a	n/a	n/a	n/a	n/a	n/a
142.7096	0.6833	INK	44	Neutral	xxxxxxx	xxxxxxx	niebieski	blue	hit	n/a
143.3785	n/a	RESPONSE	n/a	n/a	n/a	n/a	n/a	n/a	n/a	blue
143.3929	1.0	ITI	n/a	n/a	n/a	n/a	n/a	n/a	n/a	n/a
144.3929	0.5	FIXCROSS	n/a	n/a	n/a	n/a	n/a	n/a	n/a	n/a
144.8929	0.7833	INK	45	Neutral	xxxxx	xxxxx	czerwony	red	hit	n/a
145.6627	n/a	RESPONSE	n/a	n/a	n/a	n/a	n/a	n/a	n/a	red
145.6762	1.0	ITI	n/a	n/a	n/a	n/a	n/a	n/a	n/a	n/a
146.6762	0.5	FIXCROSS	n/a	n/a	n/a	n/a	n/a	n/a	n/a	n/a
147.1761	0.6167	INK	46	Neutral	xxxxxxxxx	xxxxxxxxx	czerwony	red	hit	n/a
147.7872	n/a	RESPONSE	n/a	n/a	n/a	n/a	n/a	n/a	n/a	red
147.7928	1.0	ITI	n/a	n/a	n/a	n/a	n/a	n/a	n/a	n/a
148.7928	0.5	FIXCROSS	n/a	n/a	n/a	n/a	n/a	n/a	n/a	n/a
149.2928	0.75	INK	47	Neutral	xxxxxxxx	xxxxxxxx	niebieski	blue	hit	n/a
150.0234	n/a	RESPONSE	n/a	n/a	n/a	n/a	n/a	n/a	n/a	blue
150.0428	1.0	ITI	n/a	n/a	n/a	n/a	n/a	n/a	n/a	n/a
151.0428	0.5	FIXCROSS	n/a	n/a	n/a	n/a	n/a	n/a	n/a	n/a
151.5427	0.7667	INK	48	Incongruent	żółty	yellow	czerwony	red	hit	n/a
152.2917	n/a	RESPONSE	n/a	n/a	n/a	n/a	n/a	n/a	n/a	red
152.3094	1.0	ITI	n/a	n/a	n/a	n/a	n/a	n/a	n/a	n/a
153.3094	0.5	FIXCROSS	n/a	n/a	n/a	n/a	n/a	n/a	n/a	n/a
153.8094	0.6333	INK	49	Incongruent	zielony	green	niebieski	blue	hit	n/a
154.4322	n/a	RESPONSE	n/a	n/a	n/a	n/a	n/a	n/a	n/a	blue
154.4427	1.0	ITI	n/a	n/a	n/a	n/a	n/a	n/a	n/a	n/a
155.4427	0.5	FIXCROSS	n/a	n/a	n/a	n/a	n/a	n/a	n/a	n/a
155.9427	0.5167	INK	50	Incongruent	zielony	green	żółty	yellow	hit	n/a
156.4448	n/a	RESPONSE	n/a	n/a	n/a	n/a	n/a	n/a	n/a	yellow
156.4593	1.0	ITI	n/a	n/a	n/a	n/a	n/a	n/a	n/a	n/a
157.4593	0.4999	FIXCROSS	n/a	n/a	n/a	n/a	n/a	n/a	n/a	n/a
157.9592	0.6501	INK	51	Neutral	xxxxxxxx	xxxxxxxx	niebieski	blue	hit	n/a
158.6013	n/a	RESPONSE	n/a	n/a	n/a	n/a	n/a	n/a	n/a	blue
158.6093	1.0	ITI	n/a	n/a	n/a	n/a	n/a	n/a	n/a	n/a
159.6093	0.5	FIXCROSS	n/a	n/a	n/a	n/a	n/a	n/a	n/a	n/a
160.1093	0.7833	INK	52	Incongruent	niebieski	blue	czerwony	red	hit	n/a
160.8855	n/a	RESPONSE	n/a	n/a	n/a	n/a	n/a	n/a	n/a	red
160.8926	1.0	ITI	n/a	n/a	n/a	n/a	n/a	n/a	n/a	n/a
161.8926	0.5	FIXCROSS	n/a	n/a	n/a	n/a	n/a	n/a	n/a	n/a
162.3925	0.95	INK	53	Neutral	xxxxx	xxxxx	zielony	green	hit	n/a
163.3295	n/a	RESPONSE	n/a	n/a	n/a	n/a	n/a	n/a	n/a	green
163.3425	1.0	ITI	n/a	n/a	n/a	n/a	n/a	n/a	n/a	n/a
164.3425	0.5	FIXCROSS	n/a	n/a	n/a	n/a	n/a	n/a	n/a	n/a
164.8425	0.55	INK	54	Neutral	xxxxxxxx	xxxxxxxx	zielony	green	hit	n/a
165.3741	n/a	RESPONSE	n/a	n/a	n/a	n/a	n/a	n/a	n/a	green
165.3925	1.0	ITI	n/a	n/a	n/a	n/a	n/a	n/a	n/a	n/a
166.3925	0.5	FIXCROSS	n/a	n/a	n/a	n/a	n/a	n/a	n/a	n/a
166.8925	0.7667	INK	55	Incongruent	zielony	green	niebieski	blue	hit	n/a
167.6423	n/a	RESPONSE	n/a	n/a	n/a	n/a	n/a	n/a	n/a	blue
167.6591	1.0	ITI	n/a	n/a	n/a	n/a	n/a	n/a	n/a	n/a
168.6591	0.5	FIXCROSS	n/a	n/a	n/a	n/a	n/a	n/a	n/a	n/a
169.1591	0.6833	INK	56	Incongruent	żółty	yellow	zielony	green	hit	n/a
169.8308	n/a	RESPONSE	n/a	n/a	n/a	n/a	n/a	n/a	n/a	green
169.8424	1.0	ITI	n/a	n/a	n/a	n/a	n/a	n/a	n/a	n/a
170.8424	0.5	FIXCROSS	n/a	n/a	n/a	n/a	n/a	n/a	n/a	n/a
171.3424	0.7833	INK	57	Neutral	xxxxx	xxxxx	czerwony	red	hit	n/a
172.1149	n/a	RESPONSE	n/a	n/a	n/a	n/a	n/a	n/a	n/a	red
172.1257	1.0	ITI	n/a	n/a	n/a	n/a	n/a	n/a	n/a	n/a
173.1257	0.5	FIXCROSS	n/a	n/a	n/a	n/a	n/a	n/a	n/a	n/a
173.6257	0.7333	INK	58	Incongruent	żółty	yellow	zielony	green	hit	n/a
174.3513	n/a	RESPONSE	n/a	n/a	n/a	n/a	n/a	n/a	n/a	green
174.359	1.0	ITI	n/a	n/a	n/a	n/a	n/a	n/a	n/a	n/a
175.359	0.5	FIXCROSS	n/a	n/a	n/a	n/a	n/a	n/a	n/a	n/a
175.859	0.75	INK	59	Incongruent	zielony	green	czerwony	red	hit	n/a
176.6036	n/a	RESPONSE	n/a	n/a	n/a	n/a	n/a	n/a	n/a	red
176.609	1.0	ITI	n/a	n/a	n/a	n/a	n/a	n/a	n/a	n/a
177.6089	0.5	FIXCROSS	n/a	n/a	n/a	n/a	n/a	n/a	n/a	n/a
178.1089	0.7167	INK	60	Incongruent	czerwony	red	żółty	yellow	hit	n/a
178.8079	n/a	RESPONSE	n/a	n/a	n/a	n/a	n/a	n/a	n/a	yellow
178.8256	1.0	ITI	n/a	n/a	n/a	n/a	n/a	n/a	n/a	n/a
179.8256	0.5	FIXCROSS	n/a	n/a	n/a	n/a	n/a	n/a	n/a	n/a
180.3256	0.6167	INK	61	Neutral	xxxxxxxxx	xxxxxxxxx	żółty	yellow	hit	n/a
180.9324	n/a	RESPONSE	n/a	n/a	n/a	n/a	n/a	n/a	n/a	yellow
180.9422	1.0	ITI	n/a	n/a	n/a	n/a	n/a	n/a	n/a	n/a
181.9422	0.5	FIXCROSS	n/a	n/a	n/a	n/a	n/a	n/a	n/a	n/a
182.4422	0.6667	INK	62	Neutral	xxxxx	xxxxx	niebieski	blue	hit	n/a
183.1049	n/a	RESPONSE	n/a	n/a	n/a	n/a	n/a	n/a	n/a	blue
183.1088	1.0	ITI	n/a	n/a	n/a	n/a	n/a	n/a	n/a	n/a
184.1088	0.5	FIXCROSS	n/a	n/a	n/a	n/a	n/a	n/a	n/a	n/a
184.6088	0.4166	INK	63	Incongruent	czerwony	red	niebieski	blue	hit	n/a
185.0216	n/a	RESPONSE	n/a	n/a	n/a	n/a	n/a	n/a	n/a	blue
185.0255	1.0	ITI	n/a	n/a	n/a	n/a	n/a	n/a	n/a	n/a
186.0255	0.5	FIXCROSS	n/a	n/a	n/a	n/a	n/a	n/a	n/a	n/a
186.5255	0.7667	INK	64	Incongruent	żółty	yellow	czerwony	red	hit	n/a
187.2739	n/a	RESPONSE	n/a	n/a	n/a	n/a	n/a	n/a	n/a	red
187.2921	1.0	ITI	n/a	n/a	n/a	n/a	n/a	n/a	n/a	n/a
188.2921	0.5	FIXCROSS	n/a	n/a	n/a	n/a	n/a	n/a	n/a	n/a
188.7921	0.65	INK	65	Neutral	xxxxx	xxxxx	niebieski	blue	hit	n/a
189.4303	n/a	RESPONSE	n/a	n/a	n/a	n/a	n/a	n/a	n/a	blue
189.4421	1.0	ITI	n/a	n/a	n/a	n/a	n/a	n/a	n/a	n/a
190.442	0.5	FIXCROSS	n/a	n/a	n/a	n/a	n/a	n/a	n/a	n/a
190.942	0.6	INK	66	Incongruent	niebieski	blue	żółty	yellow	hit	n/a
191.5228	n/a	RESPONSE	n/a	n/a	n/a	n/a	n/a	n/a	n/a	yellow
191.542	1.0	ITI	n/a	n/a	n/a	n/a	n/a	n/a	n/a	n/a
192.542	0.5	FIXCROSS	n/a	n/a	n/a	n/a	n/a	n/a	n/a	n/a
193.042	0.6833	INK	67	Neutral	xxxxxxx	xxxxxxx	żółty	yellow	hit	n/a
193.7112	n/a	RESPONSE	n/a	n/a	n/a	n/a	n/a	n/a	n/a	yellow
193.7253	1.0	ITI	n/a	n/a	n/a	n/a	n/a	n/a	n/a	n/a
194.7253	0.5	FIXCROSS	n/a	n/a	n/a	n/a	n/a	n/a	n/a	n/a
195.2253	0.7333	INK	68	Neutral	xxxxxxxx	xxxxxxxx	zielony	green	hit	n/a
195.9476	n/a	RESPONSE	n/a	n/a	n/a	n/a	n/a	n/a	n/a	green
195.9586	1.0	ITI	n/a	n/a	n/a	n/a	n/a	n/a	n/a	n/a
196.9586	0.5	FIXCROSS	n/a	n/a	n/a	n/a	n/a	n/a	n/a	n/a
197.4586	1.0166	INK	69	Incongruent	niebieski	blue	czerwony	red	hit	n/a
198.4712	n/a	RESPONSE	n/a	n/a	n/a	n/a	n/a	n/a	n/a	red
198.4752	1.0	ITI	n/a	n/a	n/a	n/a	n/a	n/a	n/a	n/a
199.4752	0.5	FIXCROSS	n/a	n/a	n/a	n/a	n/a	n/a	n/a	n/a
199.9752	0.6833	INK	70	Neutral	xxxxxxx	xxxxxxx	żółty	yellow	hit	n/a
200.6435	n/a	RESPONSE	n/a	n/a	n/a	n/a	n/a	n/a	n/a	yellow
200.6585	1.0	ITI	n/a	n/a	n/a	n/a	n/a	n/a	n/a	n/a
201.6585	0.5	FIXCROSS	n/a	n/a	n/a	n/a	n/a	n/a	n/a	n/a
202.1585	0.6667	INK	71	Incongruent	niebieski	blue	zielony	green	hit	n/a
202.816	n/a	RESPONSE	n/a	n/a	n/a	n/a	n/a	n/a	n/a	green
202.8252	1.0	ITI	n/a	n/a	n/a	n/a	n/a	n/a	n/a	n/a
203.8251	0.5	FIXCROSS	n/a	n/a	n/a	n/a	n/a	n/a	n/a	n/a
204.3251	0.8	INK	72	Neutral	xxxxxxx	xxxxxxx	czerwony	red	hit	n/a
205.1161	n/a	RESPONSE	n/a	n/a	n/a	n/a	n/a	n/a	n/a	red
205.1251	1.0333	ITI	n/a	n/a	n/a	n/a	n/a	n/a	n/a	n/a
230.9613	n/a	RESPONSE	n/a	n/a	n/a	n/a	n/a	n/a	n/a	n/a
230.9913	1.0	ITI	n/a	n/a	n/a	n/a	n/a	n/a	n/a	n/a
231.9913	0.5	FIXCROSS	n/a	n/a	n/a	n/a	n/a	n/a	n/a	n/a
232.4913	0.8167	T_COLOR_NAME	1	Neutral	czerwony	red	Neutral	Neutral	hit	n/a
233.2934	n/a	RESPONSE	n/a	n/a	n/a	n/a	n/a	n/a	n/a	red
233.3079	0.5	FEEDBACK	n/a	n/a	n/a	n/a	n/a	n/a	n/a	n/a
233.8079	1.0	ITI	n/a	n/a	n/a	n/a	n/a	n/a	n/a	n/a
234.8079	0.5	FIXCROSS	n/a	n/a	n/a	n/a	n/a	n/a	n/a	n/a
235.3079	0.5	T_COLOR_NAME	2	Incongruent	czerwony	red	zielony	green	hit	n/a
235.8012	n/a	RESPONSE	n/a	n/a	n/a	n/a	n/a	n/a	n/a	red
235.8079	0.5	FEEDBACK	n/a	n/a	n/a	n/a	n/a	n/a	n/a	n/a
236.3079	1.0	ITI	n/a	n/a	n/a	n/a	n/a	n/a	n/a	n/a
237.3079	0.5	FIXCROSS	n/a	n/a	n/a	n/a	n/a	n/a	n/a	n/a
237.8079	0.9667	T_COLOR_NAME	3	Incongruent	zielony	green	niebieski	blue	hit	n/a
238.7562	n/a	RESPONSE	n/a	n/a	n/a	n/a	n/a	n/a	n/a	green
238.7745	0.5	FEEDBACK	n/a	n/a	n/a	n/a	n/a	n/a	n/a	n/a
239.2745	1.0	ITI	n/a	n/a	n/a	n/a	n/a	n/a	n/a	n/a
240.2745	0.5	FIXCROSS	n/a	n/a	n/a	n/a	n/a	n/a	n/a	n/a
240.7745	0.5833	T_COLOR_NAME	4	Neutral	czerwony	red	Neutral	Neutral	hit	n/a
241.344	n/a	RESPONSE	n/a	n/a	n/a	n/a	n/a	n/a	n/a	red
241.3578	0.5	FEEDBACK	n/a	n/a	n/a	n/a	n/a	n/a	n/a	n/a
241.8578	1.0	ITI	n/a	n/a	n/a	n/a	n/a	n/a	n/a	n/a
242.8578	0.5	FIXCROSS	n/a	n/a	n/a	n/a	n/a	n/a	n/a	n/a
243.3578	0.8	T_COLOR_NAME	5	Neutral	niebieski	blue	Neutral	Neutral	hit	n/a
244.1395	n/a	RESPONSE	n/a	n/a	n/a	n/a	n/a	n/a	n/a	blue
244.1578	0.5	FEEDBACK	n/a	n/a	n/a	n/a	n/a	n/a	n/a	n/a
244.6577	1.0	ITI	n/a	n/a	n/a	n/a	n/a	n/a	n/a	n/a
245.6577	0.5	FIXCROSS	n/a	n/a	n/a	n/a	n/a	n/a	n/a	n/a
246.1577	1.0667	T_COLOR_NAME	6	Incongruent	zielony	green	żółty	yellow	hit	n/a
247.2064	n/a	RESPONSE	n/a	n/a	n/a	n/a	n/a	n/a	n/a	green
247.2244	0.5	FEEDBACK	n/a	n/a	n/a	n/a	n/a	n/a	n/a	n/a
247.7244	1.0	ITI	n/a	n/a	n/a	n/a	n/a	n/a	n/a	n/a
248.7243	0.5	FIXCROSS	n/a	n/a	n/a	n/a	n/a	n/a	n/a	n/a
249.2243	0.85	T_COLOR_NAME	7	Incongruent	czerwony	red	żółty	yellow	hit	n/a
250.0656	n/a	RESPONSE	n/a	n/a	n/a	n/a	n/a	n/a	n/a	red
250.0743	0.5	FEEDBACK	n/a	n/a	n/a	n/a	n/a	n/a	n/a	n/a
250.5743	1.0	ITI	n/a	n/a	n/a	n/a	n/a	n/a	n/a	n/a
251.5743	0.5	FIXCROSS	n/a	n/a	n/a	n/a	n/a	n/a	n/a	n/a
252.0743	0.8666	T_COLOR_NAME	8	Neutral	żółty	yellow	Neutral	Neutral	hit	n/a
252.9249	n/a	RESPONSE	n/a	n/a	n/a	n/a	n/a	n/a	n/a	yellow
252.9409	0.5	FEEDBACK	n/a	n/a	n/a	n/a	n/a	n/a	n/a	n/a
253.4409	1.0	ITI	n/a	n/a	n/a	n/a	n/a	n/a	n/a	n/a
254.4409	0.5	FIXCROSS	n/a	n/a	n/a	n/a	n/a	n/a	n/a	n/a
254.9409	0.5833	T_COLOR_NAME	9	Neutral	żółty	yellow	Neutral	Neutral	hit	n/a
255.5126	n/a	RESPONSE	n/a	n/a	n/a	n/a	n/a	n/a	n/a	yellow
255.5242	0.5	FEEDBACK	n/a	n/a	n/a	n/a	n/a	n/a	n/a	n/a
256.0242	1.0	ITI	n/a	n/a	n/a	n/a	n/a	n/a	n/a	n/a
257.0242	0.5	FIXCROSS	n/a	n/a	n/a	n/a	n/a	n/a	n/a	n/a
257.5242	0.5654	T_COLOR_NAME	10	Incongruent	żółty	yellow	niebieski	blue	hit	n/a
258.0844	n/a	RESPONSE	n/a	n/a	n/a	n/a	n/a	n/a	n/a	yellow
258.0896	0.5013	FEEDBACK	n/a	n/a	n/a	n/a	n/a	n/a	n/a	n/a
258.5908	1.0	ITI	n/a	n/a	n/a	n/a	n/a	n/a	n/a	n/a
259.5908	0.5	FIXCROSS	n/a	n/a	n/a	n/a	n/a	n/a	n/a	n/a
260.0908	0.95	T_COLOR_NAME	11	Incongruent	czerwony	red	niebieski	blue	hit	n/a
261.0235	n/a	RESPONSE	n/a	n/a	n/a	n/a	n/a	n/a	n/a	red
261.0408	0.5	FEEDBACK	n/a	n/a	n/a	n/a	n/a	n/a	n/a	n/a
261.5408	1.0	ITI	n/a	n/a	n/a	n/a	n/a	n/a	n/a	n/a
262.5408	0.5	FIXCROSS	n/a	n/a	n/a	n/a	n/a	n/a	n/a	n/a
263.0408	0.7167	T_COLOR_NAME	12	Neutral	niebieski	blue	Neutral	Neutral	hit	n/a
263.739	n/a	RESPONSE	n/a	n/a	n/a	n/a	n/a	n/a	n/a	blue
263.7574	0.5	FEEDBACK	n/a	n/a	n/a	n/a	n/a	n/a	n/a	n/a
264.2574	1.0	ITI	n/a	n/a	n/a	n/a	n/a	n/a	n/a	n/a
266.6462	n/a	RESPONSE	n/a	n/a	n/a	n/a	n/a	n/a	n/a	n/a
266.674	1.0	ITI	n/a	n/a	n/a	n/a	n/a	n/a	n/a	n/a
267.674	0.5	FIXCROSS	n/a	n/a	n/a	n/a	n/a	n/a	n/a	n/a
268.174	0.8666	COLOR_NAME	1	Incongruent	niebieski	blue	żółty	yellow	hit	n/a
269.0262	n/a	RESPONSE	n/a	n/a	n/a	n/a	n/a	n/a	n/a	blue
269.0406	1.0	ITI	n/a	n/a	n/a	n/a	n/a	n/a	n/a	n/a
270.0406	0.5	FIXCROSS	n/a	n/a	n/a	n/a	n/a	n/a	n/a	n/a
270.5406	0.5333	COLOR_NAME	2	Incongruent	żółty	yellow	zielony	green	hit	n/a
271.0708	n/a	RESPONSE	n/a	n/a	n/a	n/a	n/a	n/a	n/a	yellow
271.0739	1.0	ITI	n/a	n/a	n/a	n/a	n/a	n/a	n/a	n/a
272.0739	0.5	FIXCROSS	n/a	n/a	n/a	n/a	n/a	n/a	n/a	n/a
272.5739	0.9333	COLOR_NAME	3	Neutral	zielony	green	Neutral	Neutral	incorrect	n/a
273.4988	n/a	RESPONSE	n/a	n/a	n/a	n/a	n/a	n/a	n/a	red
273.5072	1.0	ITI	n/a	n/a	n/a	n/a	n/a	n/a	n/a	n/a
274.5072	0.5	FIXCROSS	n/a	n/a	n/a	n/a	n/a	n/a	n/a	n/a
275.0072	0.9666	COLOR_NAME	4	Incongruent	czerwony	red	żółty	yellow	hit	n/a
275.9588	n/a	RESPONSE	n/a	n/a	n/a	n/a	n/a	n/a	n/a	red
275.9738	1.0	ITI	n/a	n/a	n/a	n/a	n/a	n/a	n/a	n/a
276.9738	0.5	FIXCROSS	n/a	n/a	n/a	n/a	n/a	n/a	n/a	n/a
277.4738	0.7333	COLOR_NAME	5	Neutral	żółty	yellow	Neutral	Neutral	hit	n/a
278.195	n/a	RESPONSE	n/a	n/a	n/a	n/a	n/a	n/a	n/a	yellow
278.2071	1.0	ITI	n/a	n/a	n/a	n/a	n/a	n/a	n/a	n/a
279.2071	0.5	FIXCROSS	n/a	n/a	n/a	n/a	n/a	n/a	n/a	n/a
279.7071	0.55	COLOR_NAME	6	Neutral	żółty	yellow	Neutral	Neutral	hit	n/a
280.2397	n/a	RESPONSE	n/a	n/a	n/a	n/a	n/a	n/a	n/a	yellow
280.2571	1.0	ITI	n/a	n/a	n/a	n/a	n/a	n/a	n/a	n/a
281.2571	0.5	FIXCROSS	n/a	n/a	n/a	n/a	n/a	n/a	n/a	n/a
281.7571	1.2333	COLOR_NAME	7	Incongruent	zielony	green	żółty	yellow	hit	n/a
282.9872	n/a	RESPONSE	n/a	n/a	n/a	n/a	n/a	n/a	n/a	green
282.9904	1.0	ITI	n/a	n/a	n/a	n/a	n/a	n/a	n/a	n/a
283.9904	0.5	FIXCROSS	n/a	n/a	n/a	n/a	n/a	n/a	n/a	n/a
284.4904	0.8	COLOR_NAME	8	Incongruent	niebieski	blue	żółty	yellow	hit	n/a
285.2714	n/a	RESPONSE	n/a	n/a	n/a	n/a	n/a	n/a	n/a	blue
285.2903	1.0	ITI	n/a	n/a	n/a	n/a	n/a	n/a	n/a	n/a
286.2903	0.5	FIXCROSS	n/a	n/a	n/a	n/a	n/a	n/a	n/a	n/a
286.7903	0.5833	COLOR_NAME	9	Neutral	żółty	yellow	Neutral	Neutral	hit	n/a
287.3639	n/a	RESPONSE	n/a	n/a	n/a	n/a	n/a	n/a	n/a	yellow
287.3736	1.0	ITI	n/a	n/a	n/a	n/a	n/a	n/a	n/a	n/a
288.3736	0.5	FIXCROSS	n/a	n/a	n/a	n/a	n/a	n/a	n/a	n/a
288.8736	1.0667	COLOR_NAME	10	Incongruent	zielony	green	żółty	yellow	hit	n/a
289.9356	n/a	RESPONSE	n/a	n/a	n/a	n/a	n/a	n/a	n/a	green
289.9403	1.0	ITI	n/a	n/a	n/a	n/a	n/a	n/a	n/a	n/a
290.9402	0.5	FIXCROSS	n/a	n/a	n/a	n/a	n/a	n/a	n/a	n/a
291.4402	0.6333	COLOR_NAME	11	Neutral	niebieski	blue	Neutral	Neutral	hit	n/a
292.0602	n/a	RESPONSE	n/a	n/a	n/a	n/a	n/a	n/a	n/a	blue
292.0736	1.0	ITI	n/a	n/a	n/a	n/a	n/a	n/a	n/a	n/a
293.0735	0.5	FIXCROSS	n/a	n/a	n/a	n/a	n/a	n/a	n/a	n/a
293.5735	0.7667	COLOR_NAME	12	Neutral	żółty	yellow	Neutral	Neutral	hit	n/a
294.3283	n/a	RESPONSE	n/a	n/a	n/a	n/a	n/a	n/a	n/a	yellow
294.3402	1.0	ITI	n/a	n/a	n/a	n/a	n/a	n/a	n/a	n/a
295.3402	0.5	FIXCROSS	n/a	n/a	n/a	n/a	n/a	n/a	n/a	n/a
295.8402	0.5	COLOR_NAME	13	Incongruent	żółty	yellow	zielony	green	hit	n/a
296.3252	n/a	RESPONSE	n/a	n/a	n/a	n/a	n/a	n/a	n/a	yellow
296.3401	1.0	ITI	n/a	n/a	n/a	n/a	n/a	n/a	n/a	n/a
297.3401	0.5	FIXCROSS	n/a	n/a	n/a	n/a	n/a	n/a	n/a	n/a
297.8401	0.4	COLOR_NAME	14	Incongruent	żółty	yellow	niebieski	blue	hit	n/a
298.2259	n/a	RESPONSE	n/a	n/a	n/a	n/a	n/a	n/a	n/a	yellow
298.2401	1.0	ITI	n/a	n/a	n/a	n/a	n/a	n/a	n/a	n/a
299.2401	0.5	FIXCROSS	n/a	n/a	n/a	n/a	n/a	n/a	n/a	n/a
299.7401	0.9666	COLOR_NAME	15	Incongruent	niebieski	blue	czerwony	red	hit	n/a
300.7019	n/a	RESPONSE	n/a	n/a	n/a	n/a	n/a	n/a	n/a	blue
300.7067	1.0	ITI	n/a	n/a	n/a	n/a	n/a	n/a	n/a	n/a
301.7067	0.5	FIXCROSS	n/a	n/a	n/a	n/a	n/a	n/a	n/a	n/a
302.2067	1.15	COLOR_NAME	16	Incongruent	zielony	green	niebieski	blue	hit	n/a
303.3535	n/a	RESPONSE	n/a	n/a	n/a	n/a	n/a	n/a	n/a	green
303.3567	1.0	ITI	n/a	n/a	n/a	n/a	n/a	n/a	n/a	n/a
304.3567	0.5	FIXCROSS	n/a	n/a	n/a	n/a	n/a	n/a	n/a	n/a
304.8567	0.6333	COLOR_NAME	17	Incongruent	niebieski	blue	zielony	green	hit	n/a
305.478	n/a	RESPONSE	n/a	n/a	n/a	n/a	n/a	n/a	n/a	blue
305.49	1.0	ITI	n/a	n/a	n/a	n/a	n/a	n/a	n/a	n/a
306.49	0.5	FIXCROSS	n/a	n/a	n/a	n/a	n/a	n/a	n/a	n/a
306.99	0.7167	COLOR_NAME	18	Neutral	czerwony	red	Neutral	Neutral	hit	n/a
307.6984	n/a	RESPONSE	n/a	n/a	n/a	n/a	n/a	n/a	n/a	red
307.7066	1.0	ITI	n/a	n/a	n/a	n/a	n/a	n/a	n/a	n/a
308.7066	0.5	FIXCROSS	n/a	n/a	n/a	n/a	n/a	n/a	n/a	n/a
309.2066	0.5167	COLOR_NAME	19	Incongruent	czerwony	red	zielony	green	hit	n/a
309.711	n/a	RESPONSE	n/a	n/a	n/a	n/a	n/a	n/a	n/a	red
309.7232	1.0	ITI	n/a	n/a	n/a	n/a	n/a	n/a	n/a	n/a
310.7232	0.5	FIXCROSS	n/a	n/a	n/a	n/a	n/a	n/a	n/a	n/a
311.2232	0.5333	COLOR_NAME	20	Neutral	czerwony	red	Neutral	Neutral	hit	n/a
311.7396	n/a	RESPONSE	n/a	n/a	n/a	n/a	n/a	n/a	n/a	red
311.7565	1.0	ITI	n/a	n/a	n/a	n/a	n/a	n/a	n/a	n/a
312.0111	n/a	RESPONSE	n/a	n/a	n/a	n/a	n/a	n/a	n/a	red
312.7565	0.5	FIXCROSS	n/a	n/a	n/a	n/a	n/a	n/a	n/a	n/a
313.2565	0.7833	COLOR_NAME	21	Neutral	niebieski	blue	Neutral	Neutral	hit	n/a
314.0238	n/a	RESPONSE	n/a	n/a	n/a	n/a	n/a	n/a	n/a	blue
314.0398	1.0	ITI	n/a	n/a	n/a	n/a	n/a	n/a	n/a	n/a
315.0398	0.5	FIXCROSS	n/a	n/a	n/a	n/a	n/a	n/a	n/a	n/a
315.5398	0.7333	COLOR_NAME	22	Neutral	zielony	green	Neutral	Neutral	hit	n/a
316.2602	n/a	RESPONSE	n/a	n/a	n/a	n/a	n/a	n/a	n/a	green
316.2731	1.0	ITI	n/a	n/a	n/a	n/a	n/a	n/a	n/a	n/a
317.2731	0.5	FIXCROSS	n/a	n/a	n/a	n/a	n/a	n/a	n/a	n/a
317.7731	0.6667	COLOR_NAME	23	Neutral	czerwony	red	Neutral	Neutral	hit	n/a
318.4325	n/a	RESPONSE	n/a	n/a	n/a	n/a	n/a	n/a	n/a	red
318.4398	1.0	ITI	n/a	n/a	n/a	n/a	n/a	n/a	n/a	n/a
319.4397	0.5	FIXCROSS	n/a	n/a	n/a	n/a	n/a	n/a	n/a	n/a
319.9397	0.8167	COLOR_NAME	24	Incongruent	zielony	green	czerwony	red	hit	n/a
320.7487	n/a	RESPONSE	n/a	n/a	n/a	n/a	n/a	n/a	n/a	green
320.7564	1.0	ITI	n/a	n/a	n/a	n/a	n/a	n/a	n/a	n/a
321.7564	0.5	FIXCROSS	n/a	n/a	n/a	n/a	n/a	n/a	n/a	n/a
322.2564	0.4333	COLOR_NAME	25	Neutral	zielony	green	Neutral	Neutral	hit	n/a
322.6815	n/a	RESPONSE	n/a	n/a	n/a	n/a	n/a	n/a	n/a	green
322.6897	1.0	ITI	n/a	n/a	n/a	n/a	n/a	n/a	n/a	n/a
323.6897	0.5	FIXCROSS	n/a	n/a	n/a	n/a	n/a	n/a	n/a	n/a
324.1897	0.4667	COLOR_NAME	26	Incongruent	zielony	green	czerwony	red	hit	n/a
324.6463	n/a	RESPONSE	n/a	n/a	n/a	n/a	n/a	n/a	n/a	green
324.6563	1.0	ITI	n/a	n/a	n/a	n/a	n/a	n/a	n/a	n/a
325.6563	0.5	FIXCROSS	n/a	n/a	n/a	n/a	n/a	n/a	n/a	n/a
326.1563	0.3667	COLOR_NAME	27	Incongruent	zielony	green	niebieski	blue	hit	n/a
326.5151	n/a	RESPONSE	n/a	n/a	n/a	n/a	n/a	n/a	n/a	green
326.5229	1.0	ITI	n/a	n/a	n/a	n/a	n/a	n/a	n/a	n/a
327.5229	0.5	FIXCROSS	n/a	n/a	n/a	n/a	n/a	n/a	n/a	n/a
328.0229	0.8833	COLOR_NAME	28	Neutral	żółty	yellow	Neutral	Neutral	hit	n/a
328.8952	n/a	RESPONSE	n/a	n/a	n/a	n/a	n/a	n/a	n/a	yellow
328.9062	1.0	ITI	n/a	n/a	n/a	n/a	n/a	n/a	n/a	n/a
329.9062	0.5	FIXCROSS	n/a	n/a	n/a	n/a	n/a	n/a	n/a	n/a
330.4062	1.0833	COLOR_NAME	29	Incongruent	niebieski	blue	czerwony	red	hit	n/a
331.483	n/a	RESPONSE	n/a	n/a	n/a	n/a	n/a	n/a	n/a	blue
331.4895	1.0	ITI	n/a	n/a	n/a	n/a	n/a	n/a	n/a	n/a
332.4895	0.5	FIXCROSS	n/a	n/a	n/a	n/a	n/a	n/a	n/a	n/a
332.9895	0.5667	COLOR_NAME	30	Neutral	czerwony	red	Neutral	Neutral	hit	n/a
333.5436	n/a	RESPONSE	n/a	n/a	n/a	n/a	n/a	n/a	n/a	red
333.5562	1.0	ITI	n/a	n/a	n/a	n/a	n/a	n/a	n/a	n/a
334.5561	0.5	FIXCROSS	n/a	n/a	n/a	n/a	n/a	n/a	n/a	n/a
335.0561	0.6666	COLOR_NAME	31	Incongruent	niebieski	blue	żółty	yellow	hit	n/a
335.7159	n/a	RESPONSE	n/a	n/a	n/a	n/a	n/a	n/a	n/a	blue
335.7228	1.0	ITI	n/a	n/a	n/a	n/a	n/a	n/a	n/a	n/a
336.7228	0.5	FIXCROSS	n/a	n/a	n/a	n/a	n/a	n/a	n/a	n/a
337.2228	0.5167	COLOR_NAME	32	Neutral	czerwony	red	Neutral	Neutral	hit	n/a
337.7286	n/a	RESPONSE	n/a	n/a	n/a	n/a	n/a	n/a	n/a	red
337.7394	1.0	ITI	n/a	n/a	n/a	n/a	n/a	n/a	n/a	n/a
338.7394	0.5	FIXCROSS	n/a	n/a	n/a	n/a	n/a	n/a	n/a	n/a
339.2394	0.9333	COLOR_NAME	33	Neutral	zielony	green	Neutral	Neutral	hit	n/a
340.1565	n/a	RESPONSE	n/a	n/a	n/a	n/a	n/a	n/a	n/a	green
340.1727	1.0	ITI	n/a	n/a	n/a	n/a	n/a	n/a	n/a	n/a
341.1727	0.5	FIXCROSS	n/a	n/a	n/a	n/a	n/a	n/a	n/a	n/a
341.6727	0.4833	COLOR_NAME	34	Neutral	zielony	green	Neutral	Neutral	hit	n/a
342.1373	n/a	RESPONSE	n/a	n/a	n/a	n/a	n/a	n/a	n/a	green
342.156	1.0	ITI	n/a	n/a	n/a	n/a	n/a	n/a	n/a	n/a
343.156	0.5	FIXCROSS	n/a	n/a	n/a	n/a	n/a	n/a	n/a	n/a
343.656	0.5833	COLOR_NAME	35	Incongruent	czerwony	red	żółty	yellow	hit	n/a
344.2299	n/a	RESPONSE	n/a	n/a	n/a	n/a	n/a	n/a	n/a	red
344.2393	1.0	ITI	n/a	n/a	n/a	n/a	n/a	n/a	n/a	n/a
345.2393	0.5	FIXCROSS	n/a	n/a	n/a	n/a	n/a	n/a	n/a	n/a
345.7393	0.45	COLOR_NAME	36	Incongruent	czerwony	red	zielony	green	hit	n/a
346.1786	n/a	RESPONSE	n/a	n/a	n/a	n/a	n/a	n/a	n/a	red
346.1893	1.0	ITI	n/a	n/a	n/a	n/a	n/a	n/a	n/a	n/a
347.1892	0.5	FIXCROSS	n/a	n/a	n/a	n/a	n/a	n/a	n/a	n/a
347.6892	0.7333	COLOR_NAME	37	Incongruent	niebieski	blue	zielony	green	hit	n/a
348.4148	n/a	RESPONSE	n/a	n/a	n/a	n/a	n/a	n/a	n/a	blue
348.4226	1.0	ITI	n/a	n/a	n/a	n/a	n/a	n/a	n/a	n/a
349.4225	0.5	FIXCROSS	n/a	n/a	n/a	n/a	n/a	n/a	n/a	n/a
349.9225	0.6	COLOR_NAME	38	Neutral	żółty	yellow	Neutral	Neutral	hit	n/a
350.5074	n/a	RESPONSE	n/a	n/a	n/a	n/a	n/a	n/a	n/a	yellow
350.5225	1.0	ITI	n/a	n/a	n/a	n/a	n/a	n/a	n/a	n/a
351.5225	0.5	FIXCROSS	n/a	n/a	n/a	n/a	n/a	n/a	n/a	n/a
352.0225	0.7833	COLOR_NAME	39	Neutral	zielony	green	Neutral	Neutral	hit	n/a
352.7916	n/a	RESPONSE	n/a	n/a	n/a	n/a	n/a	n/a	n/a	green
352.8058	1.0	ITI	n/a	n/a	n/a	n/a	n/a	n/a	n/a	n/a
353.8058	0.5	FIXCROSS	n/a	n/a	n/a	n/a	n/a	n/a	n/a	n/a
354.3058	0.5333	COLOR_NAME	40	Incongruent	czerwony	red	niebieski	blue	hit	n/a
354.8361	n/a	RESPONSE	n/a	n/a	n/a	n/a	n/a	n/a	n/a	red
354.8391	1.0	ITI	n/a	n/a	n/a	n/a	n/a	n/a	n/a	n/a
355.8391	0.5	FIXCROSS	n/a	n/a	n/a	n/a	n/a	n/a	n/a	n/a
356.3391	0.5667	COLOR_NAME	41	Neutral	czerwony	red	Neutral	Neutral	hit	n/a
356.8968	n/a	RESPONSE	n/a	n/a	n/a	n/a	n/a	n/a	n/a	red
356.9057	1.0	ITI	n/a	n/a	n/a	n/a	n/a	n/a	n/a	n/a
357.9057	0.5	FIXCROSS	n/a	n/a	n/a	n/a	n/a	n/a	n/a	n/a
358.4057	1.0166	COLOR_NAME	42	Neutral	zielony	green	Neutral	Neutral	hit	n/a
359.4045	n/a	RESPONSE	n/a	n/a	n/a	n/a	n/a	n/a	n/a	green
359.4224	1.0	ITI	n/a	n/a	n/a	n/a	n/a	n/a	n/a	n/a
360.4223	0.5	FIXCROSS	n/a	n/a	n/a	n/a	n/a	n/a	n/a	n/a
360.9223	0.7167	COLOR_NAME	43	Neutral	niebieski	blue	Neutral	Neutral	hit	n/a
361.6248	n/a	RESPONSE	n/a	n/a	n/a	n/a	n/a	n/a	n/a	blue
361.639	1.0	ITI	n/a	n/a	n/a	n/a	n/a	n/a	n/a	n/a
362.639	0.5	FIXCROSS	n/a	n/a	n/a	n/a	n/a	n/a	n/a	n/a
363.139	0.9166	COLOR_NAME	44	Neutral	niebieski	blue	Neutral	Neutral	hit	n/a
364.0368	n/a	RESPONSE	n/a	n/a	n/a	n/a	n/a	n/a	n/a	blue
364.0556	1.0	ITI	n/a	n/a	n/a	n/a	n/a	n/a	n/a	n/a
365.0556	0.5	FIXCROSS	n/a	n/a	n/a	n/a	n/a	n/a	n/a	n/a
365.5556	0.8166	COLOR_NAME	45	Incongruent	niebieski	blue	zielony	green	hit	n/a
366.369	n/a	RESPONSE	n/a	n/a	n/a	n/a	n/a	n/a	n/a	blue
366.3722	1.0	ITI	n/a	n/a	n/a	n/a	n/a	n/a	n/a	n/a
367.3722	0.5	FIXCROSS	n/a	n/a	n/a	n/a	n/a	n/a	n/a	n/a
367.8722	0.7667	COLOR_NAME	46	Neutral	niebieski	blue	Neutral	Neutral	hit	n/a
368.6212	n/a	RESPONSE	n/a	n/a	n/a	n/a	n/a	n/a	n/a	blue
368.6389	1.0	ITI	n/a	n/a	n/a	n/a	n/a	n/a	n/a	n/a
369.6388	0.5	FIXCROSS	n/a	n/a	n/a	n/a	n/a	n/a	n/a	n/a
370.1388	0.4667	COLOR_NAME	47	Neutral	niebieski	blue	Neutral	Neutral	hit	n/a
370.602	n/a	RESPONSE	n/a	n/a	n/a	n/a	n/a	n/a	n/a	blue
370.6055	1.0	ITI	n/a	n/a	n/a	n/a	n/a	n/a	n/a	n/a
371.6055	0.5	FIXCROSS	n/a	n/a	n/a	n/a	n/a	n/a	n/a	n/a
372.1055	1.1	COLOR_NAME	48	Incongruent	żółty	yellow	zielony	green	incorrect	n/a
373.1897	n/a	RESPONSE	n/a	n/a	n/a	n/a	n/a	n/a	n/a	green
373.2054	1.0	ITI	n/a	n/a	n/a	n/a	n/a	n/a	n/a	n/a
374.2054	0.5	FIXCROSS	n/a	n/a	n/a	n/a	n/a	n/a	n/a	n/a
374.7054	0.6833	COLOR_NAME	49	Neutral	żółty	yellow	Neutral	Neutral	hit	n/a
375.3781	n/a	RESPONSE	n/a	n/a	n/a	n/a	n/a	n/a	n/a	yellow
375.3887	1.0	ITI	n/a	n/a	n/a	n/a	n/a	n/a	n/a	n/a
376.3887	0.5	FIXCROSS	n/a	n/a	n/a	n/a	n/a	n/a	n/a	n/a
376.8887	0.9166	COLOR_NAME	50	Incongruent	zielony	green	niebieski	blue	hit	n/a
377.7901	n/a	RESPONSE	n/a	n/a	n/a	n/a	n/a	n/a	n/a	green
377.8054	1.0	ITI	n/a	n/a	n/a	n/a	n/a	n/a	n/a	n/a
378.8053	0.5	FIXCROSS	n/a	n/a	n/a	n/a	n/a	n/a	n/a	n/a
379.3053	1.7813	COLOR_NAME	51	Incongruent	niebieski	blue	czerwony	red	hit	n/a
381.0807	n/a	RESPONSE	n/a	n/a	n/a	n/a	n/a	n/a	n/a	blue
381.0866	1.002	ITI	n/a	n/a	n/a	n/a	n/a	n/a	n/a	n/a
382.0886	0.5	FIXCROSS	n/a	n/a	n/a	n/a	n/a	n/a	n/a	n/a
382.5886	0.95	COLOR_NAME	52	Neutral	żółty	yellow	Neutral	Neutral	hit	n/a
383.5247	n/a	RESPONSE	n/a	n/a	n/a	n/a	n/a	n/a	n/a	yellow
383.5386	1.0	ITI	n/a	n/a	n/a	n/a	n/a	n/a	n/a	n/a
384.5386	0.5	FIXCROSS	n/a	n/a	n/a	n/a	n/a	n/a	n/a	n/a
385.0386	0.6833	COLOR_NAME	53	Neutral	czerwony	red	Neutral	Neutral	hit	n/a
385.713	n/a	RESPONSE	n/a	n/a	n/a	n/a	n/a	n/a	n/a	red
385.7219	1.0	ITI	n/a	n/a	n/a	n/a	n/a	n/a	n/a	n/a
386.7219	0.5	FIXCROSS	n/a	n/a	n/a	n/a	n/a	n/a	n/a	n/a
387.2219	0.7	COLOR_NAME	54	Incongruent	czerwony	red	niebieski	blue	hit	n/a
387.9174	n/a	RESPONSE	n/a	n/a	n/a	n/a	n/a	n/a	n/a	red
387.9218	1.0	ITI	n/a	n/a	n/a	n/a	n/a	n/a	n/a	n/a
388.9218	0.5	FIXCROSS	n/a	n/a	n/a	n/a	n/a	n/a	n/a	n/a
389.4218	0.75	COLOR_NAME	55	Neutral	zielony	green	Neutral	Neutral	hit	n/a
390.1536	n/a	RESPONSE	n/a	n/a	n/a	n/a	n/a	n/a	n/a	green
390.1718	1.0	ITI	n/a	n/a	n/a	n/a	n/a	n/a	n/a	n/a
391.1718	0.5	FIXCROSS	n/a	n/a	n/a	n/a	n/a	n/a	n/a	n/a
391.6718	0.5333	COLOR_NAME	56	Neutral	zielony	green	Neutral	Neutral	hit	n/a
392.1982	n/a	RESPONSE	n/a	n/a	n/a	n/a	n/a	n/a	n/a	green
392.2051	1.0	ITI	n/a	n/a	n/a	n/a	n/a	n/a	n/a	n/a
393.2051	0.5	FIXCROSS	n/a	n/a	n/a	n/a	n/a	n/a	n/a	n/a
393.7051	0.6333	COLOR_NAME	57	Neutral	czerwony	red	Neutral	Neutral	hit	n/a
394.3227	n/a	RESPONSE	n/a	n/a	n/a	n/a	n/a	n/a	n/a	red
394.3384	1.0	ITI	n/a	n/a	n/a	n/a	n/a	n/a	n/a	n/a
395.3384	0.5	FIXCROSS	n/a	n/a	n/a	n/a	n/a	n/a	n/a	n/a
395.8384	0.7333	COLOR_NAME	58	Neutral	żółty	yellow	Neutral	Neutral	hit	n/a
396.559	n/a	RESPONSE	n/a	n/a	n/a	n/a	n/a	n/a	n/a	yellow
396.5717	1.0	ITI	n/a	n/a	n/a	n/a	n/a	n/a	n/a	n/a
397.5717	0.5	FIXCROSS	n/a	n/a	n/a	n/a	n/a	n/a	n/a	n/a
398.0717	0.7833	COLOR_NAME	59	Incongruent	czerwony	red	żółty	yellow	hit	n/a
398.8432	n/a	RESPONSE	n/a	n/a	n/a	n/a	n/a	n/a	n/a	red
398.855	1.0	ITI	n/a	n/a	n/a	n/a	n/a	n/a	n/a	n/a
399.855	0.5	FIXCROSS	n/a	n/a	n/a	n/a	n/a	n/a	n/a	n/a
400.355	0.8166	COLOR_NAME	60	Incongruent	żółty	yellow	czerwony	red	hit	n/a
401.1594	n/a	RESPONSE	n/a	n/a	n/a	n/a	n/a	n/a	n/a	yellow
401.1716	1.0	ITI	n/a	n/a	n/a	n/a	n/a	n/a	n/a	n/a
402.1716	0.5	FIXCROSS	n/a	n/a	n/a	n/a	n/a	n/a	n/a	n/a
402.6716	0.7166	COLOR_NAME	61	Neutral	niebieski	blue	Neutral	Neutral	hit	n/a
403.3797	n/a	RESPONSE	n/a	n/a	n/a	n/a	n/a	n/a	n/a	blue
403.3882	1.0	ITI	n/a	n/a	n/a	n/a	n/a	n/a	n/a	n/a
404.3882	0.5	FIXCROSS	n/a	n/a	n/a	n/a	n/a	n/a	n/a	n/a
404.8882	0.6167	COLOR_NAME	62	Incongruent	żółty	yellow	czerwony	red	hit	n/a
405.4881	n/a	RESPONSE	n/a	n/a	n/a	n/a	n/a	n/a	n/a	yellow
405.5049	1.0	ITI	n/a	n/a	n/a	n/a	n/a	n/a	n/a	n/a
406.5048	0.5	FIXCROSS	n/a	n/a	n/a	n/a	n/a	n/a	n/a	n/a
407.0048	0.55	COLOR_NAME	63	Incongruent	czerwony	red	niebieski	blue	hit	n/a
407.5488	n/a	RESPONSE	n/a	n/a	n/a	n/a	n/a	n/a	n/a	red
407.5548	1.0	ITI	n/a	n/a	n/a	n/a	n/a	n/a	n/a	n/a
408.5548	0.5	FIXCROSS	n/a	n/a	n/a	n/a	n/a	n/a	n/a	n/a
409.0548	1.1166	COLOR_NAME	64	Incongruent	zielony	green	czerwony	red	incorrect	n/a
410.1525	n/a	RESPONSE	n/a	n/a	n/a	n/a	n/a	n/a	n/a	red
410.1714	1.0	ITI	n/a	n/a	n/a	n/a	n/a	n/a	n/a	n/a
411.1714	0.5	FIXCROSS	n/a	n/a	n/a	n/a	n/a	n/a	n/a	n/a
411.6714	0.7333	COLOR_NAME	65	Neutral	niebieski	blue	Neutral	Neutral	hit	n/a
412.3889	n/a	RESPONSE	n/a	n/a	n/a	n/a	n/a	n/a	n/a	blue
412.4047	1.0	ITI	n/a	n/a	n/a	n/a	n/a	n/a	n/a	n/a
413.4047	0.5	FIXCROSS	n/a	n/a	n/a	n/a	n/a	n/a	n/a	n/a
413.9047	1.8	COLOR_NAME	66	Incongruent	zielony	green	żółty	yellow	hit	n/a
415.6953	n/a	RESPONSE	n/a	n/a	n/a	n/a	n/a	n/a	n/a	green
415.7047	1.0	ITI	n/a	n/a	n/a	n/a	n/a	n/a	n/a	n/a
416.7047	0.5	FIXCROSS	n/a	n/a	n/a	n/a	n/a	n/a	n/a	n/a
417.2047	0.65	COLOR_NAME	67	Neutral	niebieski	blue	Neutral	Neutral	hit	n/a
417.8358	n/a	RESPONSE	n/a	n/a	n/a	n/a	n/a	n/a	n/a	blue
417.8546	1.0	ITI	n/a	n/a	n/a	n/a	n/a	n/a	n/a	n/a
418.8546	0.5	FIXCROSS	n/a	n/a	n/a	n/a	n/a	n/a	n/a	n/a
419.3546	0.7833	COLOR_NAME	68	Incongruent	żółty	yellow	niebieski	blue	hit	n/a
420.1201	n/a	RESPONSE	n/a	n/a	n/a	n/a	n/a	n/a	n/a	yellow
420.1379	1.0	ITI	n/a	n/a	n/a	n/a	n/a	n/a	n/a	n/a
421.1379	0.5	FIXCROSS	n/a	n/a	n/a	n/a	n/a	n/a	n/a	n/a
421.6379	0.4833	COLOR_NAME	69	Incongruent	żółty	yellow	niebieski	blue	hit	n/a
422.1167	n/a	RESPONSE	n/a	n/a	n/a	n/a	n/a	n/a	n/a	yellow
422.1212	1.0	ITI	n/a	n/a	n/a	n/a	n/a	n/a	n/a	n/a
423.1212	0.5	FIXCROSS	n/a	n/a	n/a	n/a	n/a	n/a	n/a	n/a
423.6212	0.6667	COLOR_NAME	70	Neutral	czerwony	red	Neutral	Neutral	hit	n/a
424.273	n/a	RESPONSE	n/a	n/a	n/a	n/a	n/a	n/a	n/a	red
424.2879	1.0	ITI	n/a	n/a	n/a	n/a	n/a	n/a	n/a	n/a
425.2878	0.5	FIXCROSS	n/a	n/a	n/a	n/a	n/a	n/a	n/a	n/a
425.7878	0.6333	COLOR_NAME	71	Incongruent	czerwony	red	zielony	green	hit	n/a
426.4135	n/a	RESPONSE	n/a	n/a	n/a	n/a	n/a	n/a	n/a	red
426.4212	1.0	ITI	n/a	n/a	n/a	n/a	n/a	n/a	n/a	n/a
427.4211	0.5	FIXCROSS	n/a	n/a	n/a	n/a	n/a	n/a	n/a	n/a
427.9211	0.6167	COLOR_NAME	72	Incongruent	żółty	yellow	czerwony	red	hit	n/a
428.522	n/a	RESPONSE	n/a	n/a	n/a	n/a	n/a	n/a	n/a	yellow
428.5378	1.0	ITI	n/a	n/a	n/a	n/a	n/a	n/a	n/a	n/a
431.9085	n/a	RESPONSE	n/a	n/a	n/a	n/a	n/a	n/a	n/a	n/a
