onset	duration	trial_type	trial_number	stroop_condition	stim_text(PL)	stim_text(eng)	stim_color(PL)	stim_color(eng)	response_type	response_color
0.0	n/a	RESPONSE	n/a	n/a	n/a	n/a	n/a	n/a	n/a	n/a
0.0544	1.0333	ITI	n/a	n/a	n/a	n/a	n/a	n/a	n/a	n/a
1.0877	0.5167	FIXCROSS	n/a	n/a	n/a	n/a	n/a	n/a	n/a	n/a
1.6044	1.6667	T_INK	1	Neutral	xxxxxxx	xxxxxxx	niebieski	blue	hit	n/a
3.2473	n/a	RESPONSE	n/a	n/a	n/a	n/a	n/a	n/a	n/a	blue
3.2711	0.5167	FEEDBACK	n/a	n/a	n/a	n/a	n/a	n/a	n/a	n/a
3.7878	1.0167	ITI	n/a	n/a	n/a	n/a	n/a	n/a	n/a	n/a
4.8045	0.5167	FIXCROSS	n/a	n/a	n/a	n/a	n/a	n/a	n/a	n/a
5.3211	1.3	T_INK	2	Incongruent	zielony	green	żółty	yellow	hit	n/a
6.5905	n/a	RESPONSE	n/a	n/a	n/a	n/a	n/a	n/a	n/a	yellow
6.6211	0.5167	FEEDBACK	n/a	n/a	n/a	n/a	n/a	n/a	n/a	n/a
7.1378	1.0167	ITI	n/a	n/a	n/a	n/a	n/a	n/a	n/a	n/a
8.1545	0.5167	FIXCROSS	n/a	n/a	n/a	n/a	n/a	n/a	n/a	n/a
8.6712	0.8333	T_INK	3	Incongruent	żółty	yellow	zielony	green	hit	n/a
9.4698	n/a	RESPONSE	n/a	n/a	n/a	n/a	n/a	n/a	n/a	green
9.5045	0.5167	FEEDBACK	n/a	n/a	n/a	n/a	n/a	n/a	n/a	n/a
10.0212	1.0167	ITI	n/a	n/a	n/a	n/a	n/a	n/a	n/a	n/a
11.0379	0.5167	FIXCROSS	n/a	n/a	n/a	n/a	n/a	n/a	n/a	n/a
11.5545	0.6	T_INK	4	Incongruent	niebieski	blue	żółty	yellow	hit	n/a
12.1251	n/a	RESPONSE	n/a	n/a	n/a	n/a	n/a	n/a	n/a	yellow
12.1545	0.5167	FEEDBACK	n/a	n/a	n/a	n/a	n/a	n/a	n/a	n/a
12.6712	1.0167	ITI	n/a	n/a	n/a	n/a	n/a	n/a	n/a	n/a
13.6879	0.5167	FIXCROSS	n/a	n/a	n/a	n/a	n/a	n/a	n/a	n/a
14.2046	0.75	T_INK	5	Incongruent	czerwony	red	żółty	yellow	hit	n/a
14.9244	n/a	RESPONSE	n/a	n/a	n/a	n/a	n/a	n/a	n/a	yellow
14.9546	0.5167	FEEDBACK	n/a	n/a	n/a	n/a	n/a	n/a	n/a	n/a
15.4713	1.0167	ITI	n/a	n/a	n/a	n/a	n/a	n/a	n/a	n/a
16.4879	0.5167	FIXCROSS	n/a	n/a	n/a	n/a	n/a	n/a	n/a	n/a
17.0046	0.7667	T_INK	6	Incongruent	czerwony	red	niebieski	blue	hit	n/a
17.7398	n/a	RESPONSE	n/a	n/a	n/a	n/a	n/a	n/a	n/a	blue
17.7713	0.5167	FEEDBACK	n/a	n/a	n/a	n/a	n/a	n/a	n/a	n/a
18.288	1.0167	ITI	n/a	n/a	n/a	n/a	n/a	n/a	n/a	n/a
19.3046	0.5167	FIXCROSS	n/a	n/a	n/a	n/a	n/a	n/a	n/a	n/a
19.8213	0.5667	T_INK	7	Neutral	xxxxxxxxx	xxxxxxxxx	czerwony	red	hit	n/a
20.3631	n/a	RESPONSE	n/a	n/a	n/a	n/a	n/a	n/a	n/a	red
20.388	0.5167	FEEDBACK	n/a	n/a	n/a	n/a	n/a	n/a	n/a	n/a
20.9047	1.0167	ITI	n/a	n/a	n/a	n/a	n/a	n/a	n/a	n/a
21.9213	0.5167	FIXCROSS	n/a	n/a	n/a	n/a	n/a	n/a	n/a	n/a
22.438	0.7333	T_INK	8	Incongruent	zielony	green	niebieski	blue	hit	n/a
23.1465	n/a	RESPONSE	n/a	n/a	n/a	n/a	n/a	n/a	n/a	blue
23.1714	0.5167	FEEDBACK	n/a	n/a	n/a	n/a	n/a	n/a	n/a	n/a
23.688	1.0167	ITI	n/a	n/a	n/a	n/a	n/a	n/a	n/a	n/a
24.7047	0.5167	FIXCROSS	n/a	n/a	n/a	n/a	n/a	n/a	n/a	n/a
25.2214	0.4667	T_INK	9	Neutral	xxxxxxxx	xxxxxxxx	żółty	yellow	hit	n/a
25.6579	n/a	RESPONSE	n/a	n/a	n/a	n/a	n/a	n/a	n/a	yellow
25.6881	0.5167	FEEDBACK	n/a	n/a	n/a	n/a	n/a	n/a	n/a	n/a
26.2047	1.0167	ITI	n/a	n/a	n/a	n/a	n/a	n/a	n/a	n/a
27.2214	0.5167	FIXCROSS	n/a	n/a	n/a	n/a	n/a	n/a	n/a	n/a
27.7381	0.7333	T_INK	10	Incongruent	zielony	green	czerwony	red	hit	n/a
28.4412	n/a	RESPONSE	n/a	n/a	n/a	n/a	n/a	n/a	n/a	red
28.4714	0.5167	FEEDBACK	n/a	n/a	n/a	n/a	n/a	n/a	n/a	n/a
28.9881	1.0167	ITI	n/a	n/a	n/a	n/a	n/a	n/a	n/a	n/a
30.0048	0.5167	FIXCROSS	n/a	n/a	n/a	n/a	n/a	n/a	n/a	n/a
30.5215	0.5833	T_INK	11	Incongruent	niebieski	blue	zielony	green	hit	n/a
31.0805	n/a	RESPONSE	n/a	n/a	n/a	n/a	n/a	n/a	n/a	green
31.1048	0.5167	FEEDBACK	n/a	n/a	n/a	n/a	n/a	n/a	n/a	n/a
31.6215	1.0167	ITI	n/a	n/a	n/a	n/a	n/a	n/a	n/a	n/a
32.6381	0.5167	FIXCROSS	n/a	n/a	n/a	n/a	n/a	n/a	n/a	n/a
33.1548	0.6	T_INK	12	Incongruent	żółty	yellow	niebieski	blue	hit	n/a
33.7359	n/a	RESPONSE	n/a	n/a	n/a	n/a	n/a	n/a	n/a	blue
33.7548	0.5167	FEEDBACK	n/a	n/a	n/a	n/a	n/a	n/a	n/a	n/a
34.2715	1.0334	ITI	n/a	n/a	n/a	n/a	n/a	n/a	n/a	n/a
65.6962	n/a	RESPONSE	n/a	n/a	n/a	n/a	n/a	n/a	n/a	n/a
65.7552	1.0167	ITI	n/a	n/a	n/a	n/a	n/a	n/a	n/a	n/a
66.7719	0.5167	FIXCROSS	n/a	n/a	n/a	n/a	n/a	n/a	n/a	n/a
67.2886	0.9333	INK	1	Neutral	xxxxxxxx	xxxxxxxx	zielony	green	hit	n/a
68.1917	n/a	RESPONSE	n/a	n/a	n/a	n/a	n/a	n/a	n/a	green
68.2219	1.0167	ITI	n/a	n/a	n/a	n/a	n/a	n/a	n/a	n/a
69.2386	0.5167	FIXCROSS	n/a	n/a	n/a	n/a	n/a	n/a	n/a	n/a
69.7553	0.6333	INK	2	Neutral	xxxxx	xxxxx	niebieski	blue	hit	n/a
70.3671	n/a	RESPONSE	n/a	n/a	n/a	n/a	n/a	n/a	n/a	blue
70.3886	1.0167	ITI	n/a	n/a	n/a	n/a	n/a	n/a	n/a	n/a
71.4053	0.5167	FIXCROSS	n/a	n/a	n/a	n/a	n/a	n/a	n/a	n/a
71.922	0.5167	INK	3	Neutral	xxxxxxxxx	xxxxxxxxx	czerwony	red	hit	n/a
72.4146	n/a	RESPONSE	n/a	n/a	n/a	n/a	n/a	n/a	n/a	red
72.4387	1.0167	ITI	n/a	n/a	n/a	n/a	n/a	n/a	n/a	n/a
73.4553	0.5167	FIXCROSS	n/a	n/a	n/a	n/a	n/a	n/a	n/a	n/a
73.972	0.6167	INK	4	Incongruent	zielony	green	niebieski	blue	hit	n/a
74.5581	n/a	RESPONSE	n/a	n/a	n/a	n/a	n/a	n/a	n/a	blue
74.5887	1.0167	ITI	n/a	n/a	n/a	n/a	n/a	n/a	n/a	n/a
75.6054	0.5167	FIXCROSS	n/a	n/a	n/a	n/a	n/a	n/a	n/a	n/a
76.122	0.45	INK	5	Neutral	xxxxxxxxx	xxxxxxxxx	zielony	green	hit	n/a
76.5416	n/a	RESPONSE	n/a	n/a	n/a	n/a	n/a	n/a	n/a	green
76.5721	1.0167	ITI	n/a	n/a	n/a	n/a	n/a	n/a	n/a	n/a
77.5887	0.5167	FIXCROSS	n/a	n/a	n/a	n/a	n/a	n/a	n/a	n/a
78.1054	0.4667	INK	6	Incongruent	niebieski	blue	czerwony	red	hit	n/a
78.5411	n/a	RESPONSE	n/a	n/a	n/a	n/a	n/a	n/a	n/a	red
78.5721	1.0167	ITI	n/a	n/a	n/a	n/a	n/a	n/a	n/a	n/a
79.5888	0.5167	FIXCROSS	n/a	n/a	n/a	n/a	n/a	n/a	n/a	n/a
80.1054	0.5167	INK	7	Neutral	xxxxxxxxx	xxxxxxxxx	żółty	yellow	hit	n/a
80.5886	n/a	RESPONSE	n/a	n/a	n/a	n/a	n/a	n/a	n/a	yellow
80.6221	1.0167	ITI	n/a	n/a	n/a	n/a	n/a	n/a	n/a	n/a
81.6388	0.5167	FIXCROSS	n/a	n/a	n/a	n/a	n/a	n/a	n/a	n/a
82.1555	0.5333	INK	8	Neutral	xxxxx	xxxxx	czerwony	red	hit	n/a
82.6681	n/a	RESPONSE	n/a	n/a	n/a	n/a	n/a	n/a	n/a	red
82.6888	1.0167	ITI	n/a	n/a	n/a	n/a	n/a	n/a	n/a	n/a
83.7055	0.5167	FIXCROSS	n/a	n/a	n/a	n/a	n/a	n/a	n/a	n/a
84.2221	0.6667	INK	9	Incongruent	niebieski	blue	żółty	yellow	hit	n/a
84.8596	n/a	RESPONSE	n/a	n/a	n/a	n/a	n/a	n/a	n/a	yellow
84.8888	1.0167	ITI	n/a	n/a	n/a	n/a	n/a	n/a	n/a	n/a
85.9055	0.5167	FIXCROSS	n/a	n/a	n/a	n/a	n/a	n/a	n/a	n/a
86.4222	0.55	INK	10	Incongruent	zielony	green	żółty	yellow	hit	n/a
86.9392	n/a	RESPONSE	n/a	n/a	n/a	n/a	n/a	n/a	n/a	yellow
86.9722	1.0167	ITI	n/a	n/a	n/a	n/a	n/a	n/a	n/a	n/a
87.9889	0.5167	FIXCROSS	n/a	n/a	n/a	n/a	n/a	n/a	n/a	n/a
88.5055	0.5667	INK	11	Incongruent	czerwony	red	niebieski	blue	hit	n/a
89.0506	n/a	RESPONSE	n/a	n/a	n/a	n/a	n/a	n/a	n/a	blue
89.0722	1.0167	ITI	n/a	n/a	n/a	n/a	n/a	n/a	n/a	n/a
90.0889	0.5167	FIXCROSS	n/a	n/a	n/a	n/a	n/a	n/a	n/a	n/a
90.6056	0.5833	INK	12	Neutral	xxxxxxxx	xxxxxxxx	zielony	green	hit	n/a
91.1621	n/a	RESPONSE	n/a	n/a	n/a	n/a	n/a	n/a	n/a	green
91.1889	1.0167	ITI	n/a	n/a	n/a	n/a	n/a	n/a	n/a	n/a
92.2056	0.5167	FIXCROSS	n/a	n/a	n/a	n/a	n/a	n/a	n/a	n/a
92.7223	0.5833	INK	13	Neutral	xxxxxxx	xxxxxxx	niebieski	blue	hit	n/a
93.2736	n/a	RESPONSE	n/a	n/a	n/a	n/a	n/a	n/a	n/a	blue
93.3056	1.0167	ITI	n/a	n/a	n/a	n/a	n/a	n/a	n/a	n/a
94.3223	0.5167	FIXCROSS	n/a	n/a	n/a	n/a	n/a	n/a	n/a	n/a
94.839	0.6	INK	14	Neutral	xxxxxxx	xxxxxxx	niebieski	blue	hit	n/a
95.417	n/a	RESPONSE	n/a	n/a	n/a	n/a	n/a	n/a	n/a	blue
95.4389	1.0167	ITI	n/a	n/a	n/a	n/a	n/a	n/a	n/a	n/a
96.4556	0.5167	FIXCROSS	n/a	n/a	n/a	n/a	n/a	n/a	n/a	n/a
96.9723	0.7333	INK	15	Neutral	xxxxxxxxx	xxxxxxxxx	zielony	green	hit	n/a
97.6725	n/a	RESPONSE	n/a	n/a	n/a	n/a	n/a	n/a	n/a	green
97.7056	1.0167	ITI	n/a	n/a	n/a	n/a	n/a	n/a	n/a	n/a
98.7223	0.5167	FIXCROSS	n/a	n/a	n/a	n/a	n/a	n/a	n/a	n/a
99.239	0.55	INK	16	Neutral	xxxxxxxxx	xxxxxxxxx	czerwony	red	hit	n/a
99.768	n/a	RESPONSE	n/a	n/a	n/a	n/a	n/a	n/a	n/a	red
99.789	1.0167	ITI	n/a	n/a	n/a	n/a	n/a	n/a	n/a	n/a
100.8057	0.5167	FIXCROSS	n/a	n/a	n/a	n/a	n/a	n/a	n/a	n/a
101.3224	0.6667	INK	17	Incongruent	zielony	green	niebieski	blue	hit	n/a
101.9595	n/a	RESPONSE	n/a	n/a	n/a	n/a	n/a	n/a	n/a	blue
101.989	1.0167	ITI	n/a	n/a	n/a	n/a	n/a	n/a	n/a	n/a
103.0057	0.5167	FIXCROSS	n/a	n/a	n/a	n/a	n/a	n/a	n/a	n/a
103.5224	0.55	INK	18	Incongruent	żółty	yellow	zielony	green	hit	n/a
104.055	n/a	RESPONSE	n/a	n/a	n/a	n/a	n/a	n/a	n/a	green
104.0724	1.0167	ITI	n/a	n/a	n/a	n/a	n/a	n/a	n/a	n/a
105.0891	0.5167	FIXCROSS	n/a	n/a	n/a	n/a	n/a	n/a	n/a	n/a
105.6058	0.4667	INK	19	Neutral	xxxxxxxxx	xxxxxxxxx	żółty	yellow	hit	n/a
106.0545	n/a	RESPONSE	n/a	n/a	n/a	n/a	n/a	n/a	n/a	yellow
106.0724	1.0167	ITI	n/a	n/a	n/a	n/a	n/a	n/a	n/a	n/a
107.0891	0.5167	FIXCROSS	n/a	n/a	n/a	n/a	n/a	n/a	n/a	n/a
107.6058	0.4667	INK	20	Neutral	xxxxxxxxx	xxxxxxxxx	żółty	yellow	hit	n/a
108.054	n/a	RESPONSE	n/a	n/a	n/a	n/a	n/a	n/a	n/a	yellow
108.0725	1.0167	ITI	n/a	n/a	n/a	n/a	n/a	n/a	n/a	n/a
109.0891	0.5167	FIXCROSS	n/a	n/a	n/a	n/a	n/a	n/a	n/a	n/a
109.6058	0.55	INK	21	Neutral	xxxxxxx	xxxxxxx	czerwony	red	hit	n/a
110.1335	n/a	RESPONSE	n/a	n/a	n/a	n/a	n/a	n/a	n/a	red
110.1558	1.0167	ITI	n/a	n/a	n/a	n/a	n/a	n/a	n/a	n/a
111.1725	0.5167	FIXCROSS	n/a	n/a	n/a	n/a	n/a	n/a	n/a	n/a
111.6892	0.65	INK	22	Neutral	xxxxxxxxx	xxxxxxxxx	zielony	green	hit	n/a
112.309	n/a	RESPONSE	n/a	n/a	n/a	n/a	n/a	n/a	n/a	green
112.3392	1.0167	ITI	n/a	n/a	n/a	n/a	n/a	n/a	n/a	n/a
113.3559	0.5167	FIXCROSS	n/a	n/a	n/a	n/a	n/a	n/a	n/a	n/a
113.8725	0.6	INK	23	Incongruent	czerwony	red	niebieski	blue	hit	n/a
114.4525	n/a	RESPONSE	n/a	n/a	n/a	n/a	n/a	n/a	n/a	blue
114.4725	1.0167	ITI	n/a	n/a	n/a	n/a	n/a	n/a	n/a	n/a
115.4892	0.5167	FIXCROSS	n/a	n/a	n/a	n/a	n/a	n/a	n/a	n/a
116.0059	0.5667	INK	24	Neutral	xxxxx	xxxxx	niebieski	blue	hit	n/a
116.548	n/a	RESPONSE	n/a	n/a	n/a	n/a	n/a	n/a	n/a	blue
116.5726	1.0167	ITI	n/a	n/a	n/a	n/a	n/a	n/a	n/a	n/a
117.5892	0.5167	FIXCROSS	n/a	n/a	n/a	n/a	n/a	n/a	n/a	n/a
118.1059	0.5833	INK	25	Incongruent	zielony	green	niebieski	blue	hit	n/a
118.6595	n/a	RESPONSE	n/a	n/a	n/a	n/a	n/a	n/a	n/a	blue
118.6892	1.0167	ITI	n/a	n/a	n/a	n/a	n/a	n/a	n/a	n/a
119.7059	0.5167	FIXCROSS	n/a	n/a	n/a	n/a	n/a	n/a	n/a	n/a
120.2226	0.6	INK	26	Neutral	xxxxx	xxxxx	zielony	green	hit	n/a
120.8029	n/a	RESPONSE	n/a	n/a	n/a	n/a	n/a	n/a	n/a	green
120.8226	1.0167	ITI	n/a	n/a	n/a	n/a	n/a	n/a	n/a	n/a
121.8393	0.5167	FIXCROSS	n/a	n/a	n/a	n/a	n/a	n/a	n/a	n/a
122.356	0.6167	INK	27	Neutral	xxxxxxxx	xxxxxxxx	niebieski	blue	hit	n/a
122.9464	n/a	RESPONSE	n/a	n/a	n/a	n/a	n/a	n/a	n/a	blue
122.9726	1.0167	ITI	n/a	n/a	n/a	n/a	n/a	n/a	n/a	n/a
123.9893	0.5167	FIXCROSS	n/a	n/a	n/a	n/a	n/a	n/a	n/a	n/a
124.506	0.5667	INK	28	Neutral	xxxxxxxxx	xxxxxxxxx	czerwony	red	hit	n/a
125.0419	n/a	RESPONSE	n/a	n/a	n/a	n/a	n/a	n/a	n/a	red
125.0727	1.0167	ITI	n/a	n/a	n/a	n/a	n/a	n/a	n/a	n/a
126.0893	0.5167	FIXCROSS	n/a	n/a	n/a	n/a	n/a	n/a	n/a	n/a
126.606	0.5833	INK	29	Incongruent	żółty	yellow	niebieski	blue	hit	n/a
127.1694	n/a	RESPONSE	n/a	n/a	n/a	n/a	n/a	n/a	n/a	blue
127.1894	1.0167	ITI	n/a	n/a	n/a	n/a	n/a	n/a	n/a	n/a
128.206	0.5167	FIXCROSS	n/a	n/a	n/a	n/a	n/a	n/a	n/a	n/a
128.7227	0.4167	INK	30	Neutral	xxxxxxx	xxxxxxx	żółty	yellow	hit	n/a
129.1209	n/a	RESPONSE	n/a	n/a	n/a	n/a	n/a	n/a	n/a	yellow
129.1394	1.0167	ITI	n/a	n/a	n/a	n/a	n/a	n/a	n/a	n/a
130.1561	0.5167	FIXCROSS	n/a	n/a	n/a	n/a	n/a	n/a	n/a	n/a
130.6727	0.5833	INK	31	Incongruent	niebieski	blue	zielony	green	hit	n/a
131.2324	n/a	RESPONSE	n/a	n/a	n/a	n/a	n/a	n/a	n/a	green
131.2561	1.0167	ITI	n/a	n/a	n/a	n/a	n/a	n/a	n/a	n/a
132.2728	0.5167	FIXCROSS	n/a	n/a	n/a	n/a	n/a	n/a	n/a	n/a
132.7894	0.5833	INK	32	Neutral	xxxxx	xxxxx	czerwony	red	hit	n/a
133.3439	n/a	RESPONSE	n/a	n/a	n/a	n/a	n/a	n/a	n/a	red
133.3728	1.0167	ITI	n/a	n/a	n/a	n/a	n/a	n/a	n/a	n/a
134.3895	0.5167	FIXCROSS	n/a	n/a	n/a	n/a	n/a	n/a	n/a	n/a
134.9061	0.5667	INK	33	Neutral	xxxxxxx	xxxxxxx	żółty	yellow	hit	n/a
135.4554	n/a	RESPONSE	n/a	n/a	n/a	n/a	n/a	n/a	n/a	yellow
135.4728	1.0167	ITI	n/a	n/a	n/a	n/a	n/a	n/a	n/a	n/a
136.4895	0.5167	FIXCROSS	n/a	n/a	n/a	n/a	n/a	n/a	n/a	n/a
137.0062	0.5333	INK	34	Incongruent	zielony	green	czerwony	red	hit	n/a
137.5189	n/a	RESPONSE	n/a	n/a	n/a	n/a	n/a	n/a	n/a	red
137.5395	1.0167	ITI	n/a	n/a	n/a	n/a	n/a	n/a	n/a	n/a
138.5562	0.5167	FIXCROSS	n/a	n/a	n/a	n/a	n/a	n/a	n/a	n/a
139.0729	0.5667	INK	35	Neutral	xxxxxxxx	xxxxxxxx	niebieski	blue	hit	n/a
139.6144	n/a	RESPONSE	n/a	n/a	n/a	n/a	n/a	n/a	n/a	blue
139.6395	1.0167	ITI	n/a	n/a	n/a	n/a	n/a	n/a	n/a	n/a
140.6562	0.5167	FIXCROSS	n/a	n/a	n/a	n/a	n/a	n/a	n/a	n/a
141.1729	0.6667	INK	36	Incongruent	żółty	yellow	niebieski	blue	hit	n/a
141.8059	n/a	RESPONSE	n/a	n/a	n/a	n/a	n/a	n/a	n/a	blue
141.8396	1.0167	ITI	n/a	n/a	n/a	n/a	n/a	n/a	n/a	n/a
142.8562	0.5167	FIXCROSS	n/a	n/a	n/a	n/a	n/a	n/a	n/a	n/a
143.3729	0.6167	INK	37	Neutral	xxxxxxx	xxxxxxx	niebieski	blue	hit	n/a
143.9653	n/a	RESPONSE	n/a	n/a	n/a	n/a	n/a	n/a	n/a	blue
143.9896	1.0167	ITI	n/a	n/a	n/a	n/a	n/a	n/a	n/a	n/a
145.0063	0.5167	FIXCROSS	n/a	n/a	n/a	n/a	n/a	n/a	n/a	n/a
145.5229	0.5167	INK	38	Neutral	xxxxxxxx	xxxxxxxx	żółty	yellow	hit	n/a
146.0129	n/a	RESPONSE	n/a	n/a	n/a	n/a	n/a	n/a	n/a	yellow
146.0396	1.0167	ITI	n/a	n/a	n/a	n/a	n/a	n/a	n/a	n/a
147.0563	0.5167	FIXCROSS	n/a	n/a	n/a	n/a	n/a	n/a	n/a	n/a
147.573	0.5834	INK	39	Neutral	xxxxxxxx	xxxxxxxx	niebieski	blue	hit	n/a
148.1244	n/a	RESPONSE	n/a	n/a	n/a	n/a	n/a	n/a	n/a	blue
148.1563	1.0167	ITI	n/a	n/a	n/a	n/a	n/a	n/a	n/a	n/a
149.173	0.5167	FIXCROSS	n/a	n/a	n/a	n/a	n/a	n/a	n/a	n/a
149.6897	0.6	INK	40	Neutral	xxxxx	xxxxx	zielony	green	hit	n/a
150.2679	n/a	RESPONSE	n/a	n/a	n/a	n/a	n/a	n/a	n/a	green
150.2897	1.0167	ITI	n/a	n/a	n/a	n/a	n/a	n/a	n/a	n/a
151.3063	0.5167	FIXCROSS	n/a	n/a	n/a	n/a	n/a	n/a	n/a	n/a
151.823	0.6	INK	41	Neutral	xxxxx	xxxxx	zielony	green	hit	n/a
152.3953	n/a	RESPONSE	n/a	n/a	n/a	n/a	n/a	n/a	n/a	green
152.423	1.0167	ITI	n/a	n/a	n/a	n/a	n/a	n/a	n/a	n/a
153.4397	0.5167	FIXCROSS	n/a	n/a	n/a	n/a	n/a	n/a	n/a	n/a
153.9564	0.5333	INK	42	Neutral	xxxxxxxx	xxxxxxxx	żółty	yellow	hit	n/a
154.4588	n/a	RESPONSE	n/a	n/a	n/a	n/a	n/a	n/a	n/a	yellow
154.4897	1.0167	ITI	n/a	n/a	n/a	n/a	n/a	n/a	n/a	n/a
155.5064	0.5167	FIXCROSS	n/a	n/a	n/a	n/a	n/a	n/a	n/a	n/a
156.0231	0.5167	INK	43	Incongruent	zielony	green	czerwony	red	hit	n/a
156.5223	n/a	RESPONSE	n/a	n/a	n/a	n/a	n/a	n/a	n/a	red
156.5397	1.0167	ITI	n/a	n/a	n/a	n/a	n/a	n/a	n/a	n/a
157.5564	0.5167	FIXCROSS	n/a	n/a	n/a	n/a	n/a	n/a	n/a	n/a
158.0731	0.55	INK	44	Neutral	xxxxx	xxxxx	czerwony	red	hit	n/a
158.6018	n/a	RESPONSE	n/a	n/a	n/a	n/a	n/a	n/a	n/a	red
158.6231	1.0167	ITI	n/a	n/a	n/a	n/a	n/a	n/a	n/a	n/a
159.6398	0.5167	FIXCROSS	n/a	n/a	n/a	n/a	n/a	n/a	n/a	n/a
160.1565	0.5833	INK	45	Incongruent	niebieski	blue	zielony	green	hit	n/a
160.7133	n/a	RESPONSE	n/a	n/a	n/a	n/a	n/a	n/a	n/a	green
160.7398	1.0167	ITI	n/a	n/a	n/a	n/a	n/a	n/a	n/a	n/a
161.7565	0.5167	FIXCROSS	n/a	n/a	n/a	n/a	n/a	n/a	n/a	n/a
162.2732	0.6	INK	46	Incongruent	czerwony	red	żółty	yellow	hit	n/a
162.8408	n/a	RESPONSE	n/a	n/a	n/a	n/a	n/a	n/a	n/a	yellow
162.8732	1.0167	ITI	n/a	n/a	n/a	n/a	n/a	n/a	n/a	n/a
163.8898	0.5167	FIXCROSS	n/a	n/a	n/a	n/a	n/a	n/a	n/a	n/a
164.4065	0.5	INK	47	Incongruent	niebieski	blue	żółty	yellow	hit	n/a
164.8883	n/a	RESPONSE	n/a	n/a	n/a	n/a	n/a	n/a	n/a	yellow
164.9065	1.0167	ITI	n/a	n/a	n/a	n/a	n/a	n/a	n/a	n/a
165.9232	0.5167	FIXCROSS	n/a	n/a	n/a	n/a	n/a	n/a	n/a	n/a
166.4399	0.55	INK	48	Neutral	xxxxxxx	xxxxxxx	czerwony	red	hit	n/a
166.9678	n/a	RESPONSE	n/a	n/a	n/a	n/a	n/a	n/a	n/a	red
166.9899	1.0167	ITI	n/a	n/a	n/a	n/a	n/a	n/a	n/a	n/a
168.0066	0.5167	FIXCROSS	n/a	n/a	n/a	n/a	n/a	n/a	n/a	n/a
168.5232	0.5833	INK	49	Incongruent	żółty	yellow	niebieski	blue	hit	n/a
169.0793	n/a	RESPONSE	n/a	n/a	n/a	n/a	n/a	n/a	n/a	blue
169.1066	1.0167	ITI	n/a	n/a	n/a	n/a	n/a	n/a	n/a	n/a
170.1233	0.5167	FIXCROSS	n/a	n/a	n/a	n/a	n/a	n/a	n/a	n/a
170.6399	0.5833	INK	50	Incongruent	czerwony	red	żółty	yellow	hit	n/a
171.1908	n/a	RESPONSE	n/a	n/a	n/a	n/a	n/a	n/a	n/a	yellow
171.2233	1.0167	ITI	n/a	n/a	n/a	n/a	n/a	n/a	n/a	n/a
172.2399	0.5167	FIXCROSS	n/a	n/a	n/a	n/a	n/a	n/a	n/a	n/a
172.7566	0.5167	INK	51	Incongruent	zielony	green	czerwony	red	hit	n/a
173.2543	n/a	RESPONSE	n/a	n/a	n/a	n/a	n/a	n/a	n/a	red
173.2733	1.0167	ITI	n/a	n/a	n/a	n/a	n/a	n/a	n/a	n/a
174.29	0.5167	FIXCROSS	n/a	n/a	n/a	n/a	n/a	n/a	n/a	n/a
174.8066	0.8167	INK	52	Incongruent	niebieski	blue	zielony	green	hit	n/a
175.6057	n/a	RESPONSE	n/a	n/a	n/a	n/a	n/a	n/a	n/a	green
175.6233	1.0167	ITI	n/a	n/a	n/a	n/a	n/a	n/a	n/a	n/a
176.64	0.5167	FIXCROSS	n/a	n/a	n/a	n/a	n/a	n/a	n/a	n/a
177.1567	0.75	INK	53	Incongruent	czerwony	red	zielony	green	hit	n/a
177.8772	n/a	RESPONSE	n/a	n/a	n/a	n/a	n/a	n/a	n/a	green
177.9067	1.0167	ITI	n/a	n/a	n/a	n/a	n/a	n/a	n/a	n/a
178.9234	0.5167	FIXCROSS	n/a	n/a	n/a	n/a	n/a	n/a	n/a	n/a
179.44	0.7	INK	54	Incongruent	żółty	yellow	czerwony	red	hit	n/a
180.1167	n/a	RESPONSE	n/a	n/a	n/a	n/a	n/a	n/a	n/a	red
180.1401	1.0167	ITI	n/a	n/a	n/a	n/a	n/a	n/a	n/a	n/a
181.1567	0.5167	FIXCROSS	n/a	n/a	n/a	n/a	n/a	n/a	n/a	n/a
181.6734	0.6667	INK	55	Incongruent	czerwony	red	niebieski	blue	hit	n/a
182.3081	n/a	RESPONSE	n/a	n/a	n/a	n/a	n/a	n/a	n/a	blue
182.3401	1.0167	ITI	n/a	n/a	n/a	n/a	n/a	n/a	n/a	n/a
183.3568	0.5167	FIXCROSS	n/a	n/a	n/a	n/a	n/a	n/a	n/a	n/a
183.8734	0.8667	INK	56	Incongruent	żółty	yellow	zielony	green	hit	n/a
184.7076	n/a	RESPONSE	n/a	n/a	n/a	n/a	n/a	n/a	n/a	green
184.7401	1.0167	ITI	n/a	n/a	n/a	n/a	n/a	n/a	n/a	n/a
185.7568	0.5167	FIXCROSS	n/a	n/a	n/a	n/a	n/a	n/a	n/a	n/a
186.2735	0.6167	INK	57	Incongruent	żółty	yellow	czerwony	red	hit	n/a
186.867	n/a	RESPONSE	n/a	n/a	n/a	n/a	n/a	n/a	n/a	red
186.8901	1.0167	ITI	n/a	n/a	n/a	n/a	n/a	n/a	n/a	n/a
187.9068	0.5167	FIXCROSS	n/a	n/a	n/a	n/a	n/a	n/a	n/a	n/a
188.4235	0.55	INK	58	Incongruent	niebieski	blue	czerwony	red	hit	n/a
188.9465	n/a	RESPONSE	n/a	n/a	n/a	n/a	n/a	n/a	n/a	red
188.9735	1.0167	ITI	n/a	n/a	n/a	n/a	n/a	n/a	n/a	n/a
189.9902	0.5167	FIXCROSS	n/a	n/a	n/a	n/a	n/a	n/a	n/a	n/a
190.5068	0.55	INK	59	Neutral	xxxxxxx	xxxxxxx	żółty	yellow	hit	n/a
191.026	n/a	RESPONSE	n/a	n/a	n/a	n/a	n/a	n/a	n/a	yellow
191.0569	1.0167	ITI	n/a	n/a	n/a	n/a	n/a	n/a	n/a	n/a
192.0735	0.5167	FIXCROSS	n/a	n/a	n/a	n/a	n/a	n/a	n/a	n/a
192.5902	0.5833	INK	60	Incongruent	czerwony	red	zielony	green	hit	n/a
193.1535	n/a	RESPONSE	n/a	n/a	n/a	n/a	n/a	n/a	n/a	green
193.1736	1.0167	ITI	n/a	n/a	n/a	n/a	n/a	n/a	n/a	n/a
194.1902	0.5167	FIXCROSS	n/a	n/a	n/a	n/a	n/a	n/a	n/a	n/a
194.7069	0.5167	INK	61	Neutral	xxxxxxxx	xxxxxxxx	żółty	yellow	hit	n/a
195.201	n/a	RESPONSE	n/a	n/a	n/a	n/a	n/a	n/a	n/a	yellow
195.2236	1.0167	ITI	n/a	n/a	n/a	n/a	n/a	n/a	n/a	n/a
196.2403	0.5167	FIXCROSS	n/a	n/a	n/a	n/a	n/a	n/a	n/a	n/a
196.7569	0.5	INK	62	Neutral	xxxxxxx	xxxxxxx	czerwony	red	hit	n/a
197.2326	n/a	RESPONSE	n/a	n/a	n/a	n/a	n/a	n/a	n/a	red
197.2569	1.0167	ITI	n/a	n/a	n/a	n/a	n/a	n/a	n/a	n/a
198.2736	0.5167	FIXCROSS	n/a	n/a	n/a	n/a	n/a	n/a	n/a	n/a
198.7903	0.5834	INK	63	Neutral	xxxxx	xxxxx	niebieski	blue	hit	n/a
199.344	n/a	RESPONSE	n/a	n/a	n/a	n/a	n/a	n/a	n/a	blue
199.3736	1.0167	ITI	n/a	n/a	n/a	n/a	n/a	n/a	n/a	n/a
200.3903	0.5167	FIXCROSS	n/a	n/a	n/a	n/a	n/a	n/a	n/a	n/a
200.907	0.5833	INK	64	Incongruent	zielony	green	żółty	yellow	hit	n/a
201.4555	n/a	RESPONSE	n/a	n/a	n/a	n/a	n/a	n/a	n/a	yellow
201.4903	1.0167	ITI	n/a	n/a	n/a	n/a	n/a	n/a	n/a	n/a
202.507	0.5167	FIXCROSS	n/a	n/a	n/a	n/a	n/a	n/a	n/a	n/a
203.0237	0.5	INK	65	Incongruent	zielony	green	żółty	yellow	hit	n/a
203.503	n/a	RESPONSE	n/a	n/a	n/a	n/a	n/a	n/a	n/a	yellow
203.5237	1.0167	ITI	n/a	n/a	n/a	n/a	n/a	n/a	n/a	n/a
204.5404	0.5167	FIXCROSS	n/a	n/a	n/a	n/a	n/a	n/a	n/a	n/a
205.057	0.7834	INK	66	Neutral	xxxxxxxx	xxxxxxxx	zielony	green	hit	n/a
205.8065	n/a	RESPONSE	n/a	n/a	n/a	n/a	n/a	n/a	n/a	green
205.8404	1.0167	ITI	n/a	n/a	n/a	n/a	n/a	n/a	n/a	n/a
206.8571	0.5167	FIXCROSS	n/a	n/a	n/a	n/a	n/a	n/a	n/a	n/a
207.3737	0.5833	INK	67	Incongruent	niebieski	blue	żółty	yellow	hit	n/a
207.934	n/a	RESPONSE	n/a	n/a	n/a	n/a	n/a	n/a	n/a	yellow
207.9571	1.0167	ITI	n/a	n/a	n/a	n/a	n/a	n/a	n/a	n/a
208.9738	0.5167	FIXCROSS	n/a	n/a	n/a	n/a	n/a	n/a	n/a	n/a
209.4904	0.7167	INK	68	Incongruent	czerwony	red	żółty	yellow	incorrect	n/a
210.1894	n/a	RESPONSE	n/a	n/a	n/a	n/a	n/a	n/a	n/a	red
210.2071	1.0167	ITI	n/a	n/a	n/a	n/a	n/a	n/a	n/a	n/a
211.2238	0.5167	FIXCROSS	n/a	n/a	n/a	n/a	n/a	n/a	n/a	n/a
211.7405	0.85	INK	69	Incongruent	czerwony	red	zielony	green	hit	n/a
212.5569	n/a	RESPONSE	n/a	n/a	n/a	n/a	n/a	n/a	n/a	green
212.5905	1.0167	ITI	n/a	n/a	n/a	n/a	n/a	n/a	n/a	n/a
213.6071	0.5167	FIXCROSS	n/a	n/a	n/a	n/a	n/a	n/a	n/a	n/a
214.1238	0.7833	INK	70	Incongruent	niebieski	blue	czerwony	red	hit	n/a
214.8763	n/a	RESPONSE	n/a	n/a	n/a	n/a	n/a	n/a	n/a	red
214.9072	1.0167	ITI	n/a	n/a	n/a	n/a	n/a	n/a	n/a	n/a
215.9238	0.5167	FIXCROSS	n/a	n/a	n/a	n/a	n/a	n/a	n/a	n/a
216.4405	0.6667	INK	71	Incongruent	żółty	yellow	czerwony	red	hit	n/a
217.0837	n/a	RESPONSE	n/a	n/a	n/a	n/a	n/a	n/a	n/a	red
217.1072	1.0167	ITI	n/a	n/a	n/a	n/a	n/a	n/a	n/a	n/a
218.1239	0.5167	FIXCROSS	n/a	n/a	n/a	n/a	n/a	n/a	n/a	n/a
218.6405	0.7167	INK	72	Incongruent	żółty	yellow	zielony	green	hit	n/a
219.3392	n/a	RESPONSE	n/a	n/a	n/a	n/a	n/a	n/a	n/a	green
219.3572	1.0834	ITI	n/a	n/a	n/a	n/a	n/a	n/a	n/a	n/a
232.44	n/a	RESPONSE	n/a	n/a	n/a	n/a	n/a	n/a	n/a	n/a
232.5074	1.0167	ITI	n/a	n/a	n/a	n/a	n/a	n/a	n/a	n/a
233.5241	0.5167	FIXCROSS	n/a	n/a	n/a	n/a	n/a	n/a	n/a	n/a
234.0407	0.9667	T_COLOR_NAME	1	Neutral	czerwony	red	Neutral	Neutral	hit	n/a
234.9834	n/a	RESPONSE	n/a	n/a	n/a	n/a	n/a	n/a	n/a	red
235.0074	0.5167	FEEDBACK	n/a	n/a	n/a	n/a	n/a	n/a	n/a	n/a
235.5241	1.0167	ITI	n/a	n/a	n/a	n/a	n/a	n/a	n/a	n/a
236.5408	0.5167	FIXCROSS	n/a	n/a	n/a	n/a	n/a	n/a	n/a	n/a
237.0575	0.7667	T_COLOR_NAME	2	Incongruent	zielony	green	niebieski	blue	hit	n/a
237.7988	n/a	RESPONSE	n/a	n/a	n/a	n/a	n/a	n/a	n/a	green
237.8241	0.5167	FEEDBACK	n/a	n/a	n/a	n/a	n/a	n/a	n/a	n/a
238.3408	1.0167	ITI	n/a	n/a	n/a	n/a	n/a	n/a	n/a	n/a
239.3575	0.5167	FIXCROSS	n/a	n/a	n/a	n/a	n/a	n/a	n/a	n/a
239.8742	0.7	T_COLOR_NAME	3	Neutral	zielony	green	Neutral	Neutral	hit	n/a
240.5501	n/a	RESPONSE	n/a	n/a	n/a	n/a	n/a	n/a	n/a	green
240.5742	0.5167	FEEDBACK	n/a	n/a	n/a	n/a	n/a	n/a	n/a	n/a
241.0908	1.0167	ITI	n/a	n/a	n/a	n/a	n/a	n/a	n/a	n/a
242.1075	0.5167	FIXCROSS	n/a	n/a	n/a	n/a	n/a	n/a	n/a	n/a
242.6242	0.6667	T_COLOR_NAME	4	Incongruent	czerwony	red	niebieski	blue	hit	n/a
243.2694	n/a	RESPONSE	n/a	n/a	n/a	n/a	n/a	n/a	n/a	red
243.2909	0.5167	FEEDBACK	n/a	n/a	n/a	n/a	n/a	n/a	n/a	n/a
243.8075	1.0167	ITI	n/a	n/a	n/a	n/a	n/a	n/a	n/a	n/a
244.8242	0.5167	FIXCROSS	n/a	n/a	n/a	n/a	n/a	n/a	n/a	n/a
245.3409	0.9	T_COLOR_NAME	5	Incongruent	zielony	green	czerwony	red	hit	n/a
246.2127	n/a	RESPONSE	n/a	n/a	n/a	n/a	n/a	n/a	n/a	green
246.2409	0.5167	FEEDBACK	n/a	n/a	n/a	n/a	n/a	n/a	n/a	n/a
246.7576	1.0167	ITI	n/a	n/a	n/a	n/a	n/a	n/a	n/a	n/a
247.7743	0.5167	FIXCROSS	n/a	n/a	n/a	n/a	n/a	n/a	n/a	n/a
248.2909	0.9	T_COLOR_NAME	6	Incongruent	zielony	green	żółty	yellow	hit	n/a
249.172	n/a	RESPONSE	n/a	n/a	n/a	n/a	n/a	n/a	n/a	green
249.1909	0.5167	FEEDBACK	n/a	n/a	n/a	n/a	n/a	n/a	n/a	n/a
249.7076	1.0167	ITI	n/a	n/a	n/a	n/a	n/a	n/a	n/a	n/a
250.7243	0.5167	FIXCROSS	n/a	n/a	n/a	n/a	n/a	n/a	n/a	n/a
251.241	0.6667	T_COLOR_NAME	7	Incongruent	żółty	yellow	zielony	green	hit	n/a
251.8754	n/a	RESPONSE	n/a	n/a	n/a	n/a	n/a	n/a	n/a	yellow
251.9077	0.5167	FEEDBACK	n/a	n/a	n/a	n/a	n/a	n/a	n/a	n/a
252.4243	1.0167	ITI	n/a	n/a	n/a	n/a	n/a	n/a	n/a	n/a
253.441	0.5167	FIXCROSS	n/a	n/a	n/a	n/a	n/a	n/a	n/a	n/a
253.9577	0.85	T_COLOR_NAME	8	Incongruent	niebieski	blue	żółty	yellow	hit	n/a
254.7867	n/a	RESPONSE	n/a	n/a	n/a	n/a	n/a	n/a	n/a	blue
254.8077	0.5167	FEEDBACK	n/a	n/a	n/a	n/a	n/a	n/a	n/a	n/a
255.3244	1.0167	ITI	n/a	n/a	n/a	n/a	n/a	n/a	n/a	n/a
256.341	0.5167	FIXCROSS	n/a	n/a	n/a	n/a	n/a	n/a	n/a	n/a
256.8577	0.7167	T_COLOR_NAME	9	Incongruent	czerwony	red	żółty	yellow	hit	n/a
257.554	n/a	RESPONSE	n/a	n/a	n/a	n/a	n/a	n/a	n/a	red
257.5744	0.5167	FEEDBACK	n/a	n/a	n/a	n/a	n/a	n/a	n/a	n/a
258.0911	1.0167	ITI	n/a	n/a	n/a	n/a	n/a	n/a	n/a	n/a
259.1077	0.5167	FIXCROSS	n/a	n/a	n/a	n/a	n/a	n/a	n/a	n/a
259.6244	0.7667	T_COLOR_NAME	10	Incongruent	żółty	yellow	niebieski	blue	hit	n/a
260.3693	n/a	RESPONSE	n/a	n/a	n/a	n/a	n/a	n/a	n/a	yellow
260.3911	0.5167	FEEDBACK	n/a	n/a	n/a	n/a	n/a	n/a	n/a	n/a
260.9078	1.0167	ITI	n/a	n/a	n/a	n/a	n/a	n/a	n/a	n/a
261.9244	0.5167	FIXCROSS	n/a	n/a	n/a	n/a	n/a	n/a	n/a	n/a
262.4411	0.6334	T_COLOR_NAME	11	Neutral	niebieski	blue	Neutral	Neutral	hit	n/a
263.0407	n/a	RESPONSE	n/a	n/a	n/a	n/a	n/a	n/a	n/a	blue
263.0745	0.5167	FEEDBACK	n/a	n/a	n/a	n/a	n/a	n/a	n/a	n/a
263.5911	1.0167	ITI	n/a	n/a	n/a	n/a	n/a	n/a	n/a	n/a
264.6078	0.5167	FIXCROSS	n/a	n/a	n/a	n/a	n/a	n/a	n/a	n/a
265.1245	0.6833	T_COLOR_NAME	12	Incongruent	niebieski	blue	zielony	green	hit	n/a
265.776	n/a	RESPONSE	n/a	n/a	n/a	n/a	n/a	n/a	n/a	blue
265.8078	0.5167	FEEDBACK	n/a	n/a	n/a	n/a	n/a	n/a	n/a	n/a
266.3245	1.0333	ITI	n/a	n/a	n/a	n/a	n/a	n/a	n/a	n/a
271.2627	n/a	RESPONSE	n/a	n/a	n/a	n/a	n/a	n/a	n/a	n/a
271.3246	1.0167	ITI	n/a	n/a	n/a	n/a	n/a	n/a	n/a	n/a
272.3412	0.5167	FIXCROSS	n/a	n/a	n/a	n/a	n/a	n/a	n/a	n/a
272.8579	0.6667	COLOR_NAME	1	Incongruent	niebieski	blue	żółty	yellow	hit	n/a
273.5021	n/a	RESPONSE	n/a	n/a	n/a	n/a	n/a	n/a	n/a	blue
273.5246	1.0167	ITI	n/a	n/a	n/a	n/a	n/a	n/a	n/a	n/a
274.5413	0.5167	FIXCROSS	n/a	n/a	n/a	n/a	n/a	n/a	n/a	n/a
275.058	0.6333	COLOR_NAME	2	Incongruent	zielony	green	niebieski	blue	hit	n/a
275.6616	n/a	RESPONSE	n/a	n/a	n/a	n/a	n/a	n/a	n/a	green
275.6913	1.0167	ITI	n/a	n/a	n/a	n/a	n/a	n/a	n/a	n/a
276.708	0.5167	FIXCROSS	n/a	n/a	n/a	n/a	n/a	n/a	n/a	n/a
277.2246	0.6334	COLOR_NAME	3	Neutral	żółty	yellow	Neutral	Neutral	hit	n/a
277.8371	n/a	RESPONSE	n/a	n/a	n/a	n/a	n/a	n/a	n/a	yellow
277.858	1.0167	ITI	n/a	n/a	n/a	n/a	n/a	n/a	n/a	n/a
278.8747	0.5167	FIXCROSS	n/a	n/a	n/a	n/a	n/a	n/a	n/a	n/a
279.3913	0.6	COLOR_NAME	4	Neutral	czerwony	red	Neutral	Neutral	hit	n/a
279.9646	n/a	RESPONSE	n/a	n/a	n/a	n/a	n/a	n/a	n/a	red
279.9914	1.0167	ITI	n/a	n/a	n/a	n/a	n/a	n/a	n/a	n/a
281.008	0.5167	FIXCROSS	n/a	n/a	n/a	n/a	n/a	n/a	n/a	n/a
281.5247	0.8667	COLOR_NAME	5	Neutral	zielony	green	Neutral	Neutral	hit	n/a
282.364	n/a	RESPONSE	n/a	n/a	n/a	n/a	n/a	n/a	n/a	green
282.3914	1.0167	ITI	n/a	n/a	n/a	n/a	n/a	n/a	n/a	n/a
283.4081	0.5167	FIXCROSS	n/a	n/a	n/a	n/a	n/a	n/a	n/a	n/a
283.9247	0.8	COLOR_NAME	6	Incongruent	zielony	green	czerwony	red	hit	n/a
284.6994	n/a	RESPONSE	n/a	n/a	n/a	n/a	n/a	n/a	n/a	green
284.7247	1.0167	ITI	n/a	n/a	n/a	n/a	n/a	n/a	n/a	n/a
285.7414	0.5167	FIXCROSS	n/a	n/a	n/a	n/a	n/a	n/a	n/a	n/a
286.2581	0.5833	COLOR_NAME	7	Neutral	zielony	green	Neutral	Neutral	hit	n/a
286.8109	n/a	RESPONSE	n/a	n/a	n/a	n/a	n/a	n/a	n/a	green
286.8414	1.0167	ITI	n/a	n/a	n/a	n/a	n/a	n/a	n/a	n/a
287.8581	0.5167	FIXCROSS	n/a	n/a	n/a	n/a	n/a	n/a	n/a	n/a
288.3748	0.5833	COLOR_NAME	8	Neutral	czerwony	red	Neutral	Neutral	hit	n/a
288.9384	n/a	RESPONSE	n/a	n/a	n/a	n/a	n/a	n/a	n/a	red
288.9581	1.0167	ITI	n/a	n/a	n/a	n/a	n/a	n/a	n/a	n/a
289.9748	0.5167	FIXCROSS	n/a	n/a	n/a	n/a	n/a	n/a	n/a	n/a
290.4915	0.65	COLOR_NAME	9	Incongruent	żółty	yellow	zielony	green	hit	n/a
291.1139	n/a	RESPONSE	n/a	n/a	n/a	n/a	n/a	n/a	n/a	yellow
291.1415	1.0167	ITI	n/a	n/a	n/a	n/a	n/a	n/a	n/a	n/a
292.1582	0.5167	FIXCROSS	n/a	n/a	n/a	n/a	n/a	n/a	n/a	n/a
292.6748	0.6167	COLOR_NAME	10	Incongruent	żółty	yellow	czerwony	red	hit	n/a
293.2734	n/a	RESPONSE	n/a	n/a	n/a	n/a	n/a	n/a	n/a	yellow
293.2915	1.0167	ITI	n/a	n/a	n/a	n/a	n/a	n/a	n/a	n/a
294.3082	0.5167	FIXCROSS	n/a	n/a	n/a	n/a	n/a	n/a	n/a	n/a
294.8249	0.65	COLOR_NAME	11	Neutral	zielony	green	Neutral	Neutral	hit	n/a
295.4489	n/a	RESPONSE	n/a	n/a	n/a	n/a	n/a	n/a	n/a	green
295.4749	1.0167	ITI	n/a	n/a	n/a	n/a	n/a	n/a	n/a	n/a
296.4916	0.5167	FIXCROSS	n/a	n/a	n/a	n/a	n/a	n/a	n/a	n/a
297.0082	0.6167	COLOR_NAME	12	Incongruent	żółty	yellow	niebieski	blue	hit	n/a
297.5924	n/a	RESPONSE	n/a	n/a	n/a	n/a	n/a	n/a	n/a	yellow
297.6249	1.0167	ITI	n/a	n/a	n/a	n/a	n/a	n/a	n/a	n/a
298.6416	0.5167	FIXCROSS	n/a	n/a	n/a	n/a	n/a	n/a	n/a	n/a
299.1583	0.85	COLOR_NAME	13	Incongruent	zielony	green	czerwony	red	hit	n/a
299.9758	n/a	RESPONSE	n/a	n/a	n/a	n/a	n/a	n/a	n/a	green
300.0083	1.0167	ITI	n/a	n/a	n/a	n/a	n/a	n/a	n/a	n/a
301.0249	0.5167	FIXCROSS	n/a	n/a	n/a	n/a	n/a	n/a	n/a	n/a
301.5416	0.6833	COLOR_NAME	14	Incongruent	żółty	yellow	czerwony	red	hit	n/a
302.1992	n/a	RESPONSE	n/a	n/a	n/a	n/a	n/a	n/a	n/a	yellow
302.225	1.0167	ITI	n/a	n/a	n/a	n/a	n/a	n/a	n/a	n/a
303.2416	0.5167	FIXCROSS	n/a	n/a	n/a	n/a	n/a	n/a	n/a	n/a
303.7583	0.5667	COLOR_NAME	15	Incongruent	czerwony	red	niebieski	blue	hit	n/a
304.2947	n/a	RESPONSE	n/a	n/a	n/a	n/a	n/a	n/a	n/a	red
304.325	1.0167	ITI	n/a	n/a	n/a	n/a	n/a	n/a	n/a	n/a
305.3417	0.5167	FIXCROSS	n/a	n/a	n/a	n/a	n/a	n/a	n/a	n/a
305.8583	0.85	COLOR_NAME	16	Incongruent	zielony	green	niebieski	blue	hit	n/a
306.6781	n/a	RESPONSE	n/a	n/a	n/a	n/a	n/a	n/a	n/a	green
306.7084	1.0167	ITI	n/a	n/a	n/a	n/a	n/a	n/a	n/a	n/a
307.725	0.5167	FIXCROSS	n/a	n/a	n/a	n/a	n/a	n/a	n/a	n/a
308.2417	0.5833	COLOR_NAME	17	Incongruent	czerwony	red	żółty	yellow	hit	n/a
308.8056	n/a	RESPONSE	n/a	n/a	n/a	n/a	n/a	n/a	n/a	red
308.825	1.0167	ITI	n/a	n/a	n/a	n/a	n/a	n/a	n/a	n/a
309.8417	0.5167	FIXCROSS	n/a	n/a	n/a	n/a	n/a	n/a	n/a	n/a
310.3584	0.5167	COLOR_NAME	18	Incongruent	czerwony	red	żółty	yellow	hit	n/a
310.8532	n/a	RESPONSE	n/a	n/a	n/a	n/a	n/a	n/a	n/a	red
310.8751	1.0167	ITI	n/a	n/a	n/a	n/a	n/a	n/a	n/a	n/a
311.8918	0.5167	FIXCROSS	n/a	n/a	n/a	n/a	n/a	n/a	n/a	n/a
312.4084	0.6667	COLOR_NAME	19	Neutral	niebieski	blue	Neutral	Neutral	hit	n/a
313.0446	n/a	RESPONSE	n/a	n/a	n/a	n/a	n/a	n/a	n/a	blue
313.0751	1.0167	ITI	n/a	n/a	n/a	n/a	n/a	n/a	n/a	n/a
314.0918	0.5167	FIXCROSS	n/a	n/a	n/a	n/a	n/a	n/a	n/a	n/a
314.6085	0.6833	COLOR_NAME	20	Incongruent	zielony	green	żółty	yellow	hit	n/a
315.2681	n/a	RESPONSE	n/a	n/a	n/a	n/a	n/a	n/a	n/a	green
315.2918	1.0167	ITI	n/a	n/a	n/a	n/a	n/a	n/a	n/a	n/a
316.3085	0.5167	FIXCROSS	n/a	n/a	n/a	n/a	n/a	n/a	n/a	n/a
316.8252	0.6833	COLOR_NAME	21	Neutral	czerwony	red	Neutral	Neutral	hit	n/a
317.4756	n/a	RESPONSE	n/a	n/a	n/a	n/a	n/a	n/a	n/a	red
317.5085	1.0167	ITI	n/a	n/a	n/a	n/a	n/a	n/a	n/a	n/a
318.5252	0.5167	FIXCROSS	n/a	n/a	n/a	n/a	n/a	n/a	n/a	n/a
319.0419	0.6833	COLOR_NAME	22	Incongruent	niebieski	blue	zielony	green	hit	n/a
319.699	n/a	RESPONSE	n/a	n/a	n/a	n/a	n/a	n/a	n/a	blue
319.7252	1.0167	ITI	n/a	n/a	n/a	n/a	n/a	n/a	n/a	n/a
320.7419	0.5167	FIXCROSS	n/a	n/a	n/a	n/a	n/a	n/a	n/a	n/a
321.2585	0.8333	COLOR_NAME	23	Incongruent	niebieski	blue	czerwony	red	hit	n/a
322.0664	n/a	RESPONSE	n/a	n/a	n/a	n/a	n/a	n/a	n/a	blue
322.0919	1.0167	ITI	n/a	n/a	n/a	n/a	n/a	n/a	n/a	n/a
323.1086	0.5167	FIXCROSS	n/a	n/a	n/a	n/a	n/a	n/a	n/a	n/a
323.6252	0.6833	COLOR_NAME	24	Neutral	czerwony	red	Neutral	Neutral	hit	n/a
324.2899	n/a	RESPONSE	n/a	n/a	n/a	n/a	n/a	n/a	n/a	red
324.3086	1.0167	ITI	n/a	n/a	n/a	n/a	n/a	n/a	n/a	n/a
325.3253	0.5167	FIXCROSS	n/a	n/a	n/a	n/a	n/a	n/a	n/a	n/a
325.8419	0.6	COLOR_NAME	25	Neutral	czerwony	red	Neutral	Neutral	hit	n/a
326.4174	n/a	RESPONSE	n/a	n/a	n/a	n/a	n/a	n/a	n/a	red
326.4419	1.0167	ITI	n/a	n/a	n/a	n/a	n/a	n/a	n/a	n/a
327.4586	0.5167	FIXCROSS	n/a	n/a	n/a	n/a	n/a	n/a	n/a	n/a
327.9753	0.6834	COLOR_NAME	26	Neutral	niebieski	blue	Neutral	Neutral	hit	n/a
328.6249	n/a	RESPONSE	n/a	n/a	n/a	n/a	n/a	n/a	n/a	blue
328.6586	1.0167	ITI	n/a	n/a	n/a	n/a	n/a	n/a	n/a	n/a
329.6753	0.5167	FIXCROSS	n/a	n/a	n/a	n/a	n/a	n/a	n/a	n/a
330.192	0.7	COLOR_NAME	27	Incongruent	czerwony	red	niebieski	blue	hit	n/a
330.8643	n/a	RESPONSE	n/a	n/a	n/a	n/a	n/a	n/a	n/a	red
330.892	1.0167	ITI	n/a	n/a	n/a	n/a	n/a	n/a	n/a	n/a
331.9087	0.5167	FIXCROSS	n/a	n/a	n/a	n/a	n/a	n/a	n/a	n/a
332.4254	0.7167	COLOR_NAME	28	Incongruent	zielony	green	żółty	yellow	hit	n/a
333.1198	n/a	RESPONSE	n/a	n/a	n/a	n/a	n/a	n/a	n/a	green
333.142	1.0167	ITI	n/a	n/a	n/a	n/a	n/a	n/a	n/a	n/a
334.1587	0.5167	FIXCROSS	n/a	n/a	n/a	n/a	n/a	n/a	n/a	n/a
334.6754	0.65	COLOR_NAME	29	Neutral	niebieski	blue	Neutral	Neutral	hit	n/a
335.2953	n/a	RESPONSE	n/a	n/a	n/a	n/a	n/a	n/a	n/a	blue
335.3254	1.0167	ITI	n/a	n/a	n/a	n/a	n/a	n/a	n/a	n/a
336.3421	0.5167	FIXCROSS	n/a	n/a	n/a	n/a	n/a	n/a	n/a	n/a
336.8588	0.5833	COLOR_NAME	30	Neutral	czerwony	red	Neutral	Neutral	hit	n/a
337.4227	n/a	RESPONSE	n/a	n/a	n/a	n/a	n/a	n/a	n/a	red
337.4421	1.0167	ITI	n/a	n/a	n/a	n/a	n/a	n/a	n/a	n/a
338.4588	0.5167	FIXCROSS	n/a	n/a	n/a	n/a	n/a	n/a	n/a	n/a
338.9754	0.5333	COLOR_NAME	31	Incongruent	żółty	yellow	niebieski	blue	hit	n/a
339.4862	n/a	RESPONSE	n/a	n/a	n/a	n/a	n/a	n/a	n/a	yellow
339.5088	1.0167	ITI	n/a	n/a	n/a	n/a	n/a	n/a	n/a	n/a
340.5255	0.5167	FIXCROSS	n/a	n/a	n/a	n/a	n/a	n/a	n/a	n/a
341.0421	0.4833	COLOR_NAME	32	Neutral	żółty	yellow	Neutral	Neutral	hit	n/a
341.5017	n/a	RESPONSE	n/a	n/a	n/a	n/a	n/a	n/a	n/a	yellow
341.5255	1.0167	ITI	n/a	n/a	n/a	n/a	n/a	n/a	n/a	n/a
342.5421	0.5167	FIXCROSS	n/a	n/a	n/a	n/a	n/a	n/a	n/a	n/a
343.0588	0.5667	COLOR_NAME	33	Neutral	czerwony	red	Neutral	Neutral	hit	n/a
343.5973	n/a	RESPONSE	n/a	n/a	n/a	n/a	n/a	n/a	n/a	red
343.6255	1.0167	ITI	n/a	n/a	n/a	n/a	n/a	n/a	n/a	n/a
344.6422	0.5167	FIXCROSS	n/a	n/a	n/a	n/a	n/a	n/a	n/a	n/a
345.1589	0.65	COLOR_NAME	34	Neutral	niebieski	blue	Neutral	Neutral	hit	n/a
345.7887	n/a	RESPONSE	n/a	n/a	n/a	n/a	n/a	n/a	n/a	blue
345.8089	1.0167	ITI	n/a	n/a	n/a	n/a	n/a	n/a	n/a	n/a
346.8256	0.5167	FIXCROSS	n/a	n/a	n/a	n/a	n/a	n/a	n/a	n/a
347.3422	0.5167	COLOR_NAME	35	Neutral	niebieski	blue	Neutral	Neutral	hit	n/a
347.8362	n/a	RESPONSE	n/a	n/a	n/a	n/a	n/a	n/a	n/a	blue
347.8589	1.0167	ITI	n/a	n/a	n/a	n/a	n/a	n/a	n/a	n/a
348.8756	0.5167	FIXCROSS	n/a	n/a	n/a	n/a	n/a	n/a	n/a	n/a
349.3922	0.7167	COLOR_NAME	36	Neutral	zielony	green	Neutral	Neutral	hit	n/a
350.0757	n/a	RESPONSE	n/a	n/a	n/a	n/a	n/a	n/a	n/a	green
350.1089	1.0167	ITI	n/a	n/a	n/a	n/a	n/a	n/a	n/a	n/a
351.1256	0.5167	FIXCROSS	n/a	n/a	n/a	n/a	n/a	n/a	n/a	n/a
351.6423	0.55	COLOR_NAME	37	Neutral	zielony	green	Neutral	Neutral	hit	n/a
352.1712	n/a	RESPONSE	n/a	n/a	n/a	n/a	n/a	n/a	n/a	green
352.1923	1.0167	ITI	n/a	n/a	n/a	n/a	n/a	n/a	n/a	n/a
353.209	0.5167	FIXCROSS	n/a	n/a	n/a	n/a	n/a	n/a	n/a	n/a
353.7256	0.6	COLOR_NAME	38	Incongruent	czerwony	red	zielony	green	hit	n/a
354.2987	n/a	RESPONSE	n/a	n/a	n/a	n/a	n/a	n/a	n/a	red
354.3256	1.0167	ITI	n/a	n/a	n/a	n/a	n/a	n/a	n/a	n/a
355.3423	0.5167	FIXCROSS	n/a	n/a	n/a	n/a	n/a	n/a	n/a	n/a
355.859	0.6167	COLOR_NAME	39	Neutral	niebieski	blue	Neutral	Neutral	hit	n/a
356.4582	n/a	RESPONSE	n/a	n/a	n/a	n/a	n/a	n/a	n/a	blue
356.4757	1.0167	ITI	n/a	n/a	n/a	n/a	n/a	n/a	n/a	n/a
357.4923	0.5167	FIXCROSS	n/a	n/a	n/a	n/a	n/a	n/a	n/a	n/a
358.009	0.85	COLOR_NAME	40	Neutral	zielony	green	Neutral	Neutral	hit	n/a
358.8256	n/a	RESPONSE	n/a	n/a	n/a	n/a	n/a	n/a	n/a	green
358.859	1.0167	ITI	n/a	n/a	n/a	n/a	n/a	n/a	n/a	n/a
359.8757	0.5167	FIXCROSS	n/a	n/a	n/a	n/a	n/a	n/a	n/a	n/a
360.3924	0.6333	COLOR_NAME	41	Neutral	zielony	green	Neutral	Neutral	hit	n/a
361.0171	n/a	RESPONSE	n/a	n/a	n/a	n/a	n/a	n/a	n/a	green
361.0257	1.0167	ITI	n/a	n/a	n/a	n/a	n/a	n/a	n/a	n/a
362.0424	0.5167	FIXCROSS	n/a	n/a	n/a	n/a	n/a	n/a	n/a	n/a
362.5591	0.6333	COLOR_NAME	42	Neutral	żółty	yellow	Neutral	Neutral	hit	n/a
363.1606	n/a	RESPONSE	n/a	n/a	n/a	n/a	n/a	n/a	n/a	yellow
363.1924	1.0167	ITI	n/a	n/a	n/a	n/a	n/a	n/a	n/a	n/a
364.2091	0.5167	FIXCROSS	n/a	n/a	n/a	n/a	n/a	n/a	n/a	n/a
364.7258	0.6834	COLOR_NAME	43	Neutral	zielony	green	Neutral	Neutral	hit	n/a
365.384	n/a	RESPONSE	n/a	n/a	n/a	n/a	n/a	n/a	n/a	green
365.4091	1.0167	ITI	n/a	n/a	n/a	n/a	n/a	n/a	n/a	n/a
366.4258	0.5167	FIXCROSS	n/a	n/a	n/a	n/a	n/a	n/a	n/a	n/a
366.9425	0.6	COLOR_NAME	44	Neutral	żółty	yellow	Neutral	Neutral	hit	n/a
367.5114	n/a	RESPONSE	n/a	n/a	n/a	n/a	n/a	n/a	n/a	yellow
367.5425	1.0167	ITI	n/a	n/a	n/a	n/a	n/a	n/a	n/a	n/a
368.5592	0.5167	FIXCROSS	n/a	n/a	n/a	n/a	n/a	n/a	n/a	n/a
369.0758	0.7	COLOR_NAME	45	Incongruent	czerwony	red	niebieski	blue	hit	n/a
369.751	n/a	RESPONSE	n/a	n/a	n/a	n/a	n/a	n/a	n/a	red
369.7758	1.0167	ITI	n/a	n/a	n/a	n/a	n/a	n/a	n/a	n/a
370.7925	0.5167	FIXCROSS	n/a	n/a	n/a	n/a	n/a	n/a	n/a	n/a
371.3092	0.5833	COLOR_NAME	46	Neutral	żółty	yellow	Neutral	Neutral	hit	n/a
371.8625	n/a	RESPONSE	n/a	n/a	n/a	n/a	n/a	n/a	n/a	yellow
371.8925	1.0167	ITI	n/a	n/a	n/a	n/a	n/a	n/a	n/a	n/a
372.9092	0.5167	FIXCROSS	n/a	n/a	n/a	n/a	n/a	n/a	n/a	n/a
373.4259	0.8	COLOR_NAME	47	Incongruent	zielony	green	czerwony	red	hit	n/a
374.1979	n/a	RESPONSE	n/a	n/a	n/a	n/a	n/a	n/a	n/a	green
374.2259	1.0167	ITI	n/a	n/a	n/a	n/a	n/a	n/a	n/a	n/a
375.2426	0.5167	FIXCROSS	n/a	n/a	n/a	n/a	n/a	n/a	n/a	n/a
375.7592	0.6667	COLOR_NAME	48	Incongruent	niebieski	blue	czerwony	red	hit	n/a
376.4054	n/a	RESPONSE	n/a	n/a	n/a	n/a	n/a	n/a	n/a	blue
376.4259	1.0167	ITI	n/a	n/a	n/a	n/a	n/a	n/a	n/a	n/a
377.4426	0.5167	FIXCROSS	n/a	n/a	n/a	n/a	n/a	n/a	n/a	n/a
377.9593	0.6667	COLOR_NAME	49	Incongruent	zielony	green	niebieski	blue	hit	n/a
378.5968	n/a	RESPONSE	n/a	n/a	n/a	n/a	n/a	n/a	n/a	green
378.626	1.0167	ITI	n/a	n/a	n/a	n/a	n/a	n/a	n/a	n/a
379.6426	0.5167	FIXCROSS	n/a	n/a	n/a	n/a	n/a	n/a	n/a	n/a
380.1593	0.6167	COLOR_NAME	50	Neutral	zielony	green	Neutral	Neutral	hit	n/a
380.7563	n/a	RESPONSE	n/a	n/a	n/a	n/a	n/a	n/a	n/a	green
380.776	1.0167	ITI	n/a	n/a	n/a	n/a	n/a	n/a	n/a	n/a
381.7927	0.5167	FIXCROSS	n/a	n/a	n/a	n/a	n/a	n/a	n/a	n/a
382.3093	0.6333	COLOR_NAME	51	Neutral	czerwony	red	Neutral	Neutral	hit	n/a
382.9158	n/a	RESPONSE	n/a	n/a	n/a	n/a	n/a	n/a	n/a	red
382.9427	1.0167	ITI	n/a	n/a	n/a	n/a	n/a	n/a	n/a	n/a
383.9594	0.5167	FIXCROSS	n/a	n/a	n/a	n/a	n/a	n/a	n/a	n/a
384.476	0.6833	COLOR_NAME	52	Incongruent	niebieski	blue	żółty	yellow	hit	n/a
385.1393	n/a	RESPONSE	n/a	n/a	n/a	n/a	n/a	n/a	n/a	blue
385.1594	1.0167	ITI	n/a	n/a	n/a	n/a	n/a	n/a	n/a	n/a
386.176	0.5167	FIXCROSS	n/a	n/a	n/a	n/a	n/a	n/a	n/a	n/a
386.6927	0.6833	COLOR_NAME	53	Neutral	niebieski	blue	Neutral	Neutral	hit	n/a
387.3467	n/a	RESPONSE	n/a	n/a	n/a	n/a	n/a	n/a	n/a	blue
387.3761	1.0167	ITI	n/a	n/a	n/a	n/a	n/a	n/a	n/a	n/a
388.3927	0.5167	FIXCROSS	n/a	n/a	n/a	n/a	n/a	n/a	n/a	n/a
388.9094	0.6	COLOR_NAME	54	Incongruent	żółty	yellow	niebieski	blue	hit	n/a
389.4902	n/a	RESPONSE	n/a	n/a	n/a	n/a	n/a	n/a	n/a	yellow
389.5094	1.0167	ITI	n/a	n/a	n/a	n/a	n/a	n/a	n/a	n/a
390.5261	0.5167	FIXCROSS	n/a	n/a	n/a	n/a	n/a	n/a	n/a	n/a
391.0428	0.5667	COLOR_NAME	55	Incongruent	czerwony	red	żółty	yellow	hit	n/a
391.5857	n/a	RESPONSE	n/a	n/a	n/a	n/a	n/a	n/a	n/a	red
391.6095	1.0167	ITI	n/a	n/a	n/a	n/a	n/a	n/a	n/a	n/a
392.6261	0.5167	FIXCROSS	n/a	n/a	n/a	n/a	n/a	n/a	n/a	n/a
393.1428	0.6167	COLOR_NAME	56	Incongruent	żółty	yellow	zielony	green	hit	n/a
393.7292	n/a	RESPONSE	n/a	n/a	n/a	n/a	n/a	n/a	n/a	yellow
393.7595	1.0167	ITI	n/a	n/a	n/a	n/a	n/a	n/a	n/a	n/a
394.7762	0.5167	FIXCROSS	n/a	n/a	n/a	n/a	n/a	n/a	n/a	n/a
395.2928	0.6	COLOR_NAME	57	Neutral	niebieski	blue	Neutral	Neutral	hit	n/a
395.8727	n/a	RESPONSE	n/a	n/a	n/a	n/a	n/a	n/a	n/a	blue
395.8928	1.0167	ITI	n/a	n/a	n/a	n/a	n/a	n/a	n/a	n/a
396.9095	0.5167	FIXCROSS	n/a	n/a	n/a	n/a	n/a	n/a	n/a	n/a
397.4262	0.7333	COLOR_NAME	58	Incongruent	zielony	green	żółty	yellow	hit	n/a
398.1281	n/a	RESPONSE	n/a	n/a	n/a	n/a	n/a	n/a	n/a	green
398.1595	1.0167	ITI	n/a	n/a	n/a	n/a	n/a	n/a	n/a	n/a
399.1762	0.5167	FIXCROSS	n/a	n/a	n/a	n/a	n/a	n/a	n/a	n/a
399.6929	0.6	COLOR_NAME	59	Incongruent	czerwony	red	zielony	green	hit	n/a
400.2716	n/a	RESPONSE	n/a	n/a	n/a	n/a	n/a	n/a	n/a	red
400.2929	1.0167	ITI	n/a	n/a	n/a	n/a	n/a	n/a	n/a	n/a
401.3096	0.5167	FIXCROSS	n/a	n/a	n/a	n/a	n/a	n/a	n/a	n/a
401.8263	0.6333	COLOR_NAME	60	Incongruent	niebieski	blue	żółty	yellow	hit	n/a
402.4311	n/a	RESPONSE	n/a	n/a	n/a	n/a	n/a	n/a	n/a	blue
402.4596	1.0167	ITI	n/a	n/a	n/a	n/a	n/a	n/a	n/a	n/a
403.4763	0.5167	FIXCROSS	n/a	n/a	n/a	n/a	n/a	n/a	n/a	n/a
403.993	0.55	COLOR_NAME	61	Neutral	żółty	yellow	Neutral	Neutral	hit	n/a
404.5106	n/a	RESPONSE	n/a	n/a	n/a	n/a	n/a	n/a	n/a	yellow
404.543	1.0167	ITI	n/a	n/a	n/a	n/a	n/a	n/a	n/a	n/a
405.5596	0.5167	FIXCROSS	n/a	n/a	n/a	n/a	n/a	n/a	n/a	n/a
406.0763	0.7167	COLOR_NAME	62	Neutral	żółty	yellow	Neutral	Neutral	hit	n/a
406.766	n/a	RESPONSE	n/a	n/a	n/a	n/a	n/a	n/a	n/a	yellow
406.793	1.0167	ITI	n/a	n/a	n/a	n/a	n/a	n/a	n/a	n/a
407.8097	0.5167	FIXCROSS	n/a	n/a	n/a	n/a	n/a	n/a	n/a	n/a
408.3263	0.7333	COLOR_NAME	63	Incongruent	niebieski	blue	zielony	green	hit	n/a
409.0375	n/a	RESPONSE	n/a	n/a	n/a	n/a	n/a	n/a	n/a	blue
409.0597	1.0167	ITI	n/a	n/a	n/a	n/a	n/a	n/a	n/a	n/a
410.0764	0.5167	FIXCROSS	n/a	n/a	n/a	n/a	n/a	n/a	n/a	n/a
410.593	0.5833	COLOR_NAME	64	Neutral	żółty	yellow	Neutral	Neutral	hit	n/a
411.149	n/a	RESPONSE	n/a	n/a	n/a	n/a	n/a	n/a	n/a	yellow
411.1764	1.0167	ITI	n/a	n/a	n/a	n/a	n/a	n/a	n/a	n/a
412.1931	0.5167	FIXCROSS	n/a	n/a	n/a	n/a	n/a	n/a	n/a	n/a
412.7097	0.5833	COLOR_NAME	65	Neutral	żółty	yellow	Neutral	Neutral	hit	n/a
413.2605	n/a	RESPONSE	n/a	n/a	n/a	n/a	n/a	n/a	n/a	yellow
413.2931	1.0167	ITI	n/a	n/a	n/a	n/a	n/a	n/a	n/a	n/a
414.3098	0.5167	FIXCROSS	n/a	n/a	n/a	n/a	n/a	n/a	n/a	n/a
414.8264	0.6334	COLOR_NAME	66	Neutral	niebieski	blue	Neutral	Neutral	hit	n/a
415.436	n/a	RESPONSE	n/a	n/a	n/a	n/a	n/a	n/a	n/a	blue
415.4598	1.0167	ITI	n/a	n/a	n/a	n/a	n/a	n/a	n/a	n/a
416.4764	0.5167	FIXCROSS	n/a	n/a	n/a	n/a	n/a	n/a	n/a	n/a
416.9931	0.6333	COLOR_NAME	67	Incongruent	żółty	yellow	czerwony	red	hit	n/a
417.5954	n/a	RESPONSE	n/a	n/a	n/a	n/a	n/a	n/a	n/a	yellow
417.6265	1.0167	ITI	n/a	n/a	n/a	n/a	n/a	n/a	n/a	n/a
418.6431	0.5167	FIXCROSS	n/a	n/a	n/a	n/a	n/a	n/a	n/a	n/a
419.1598	0.5667	COLOR_NAME	68	Incongruent	żółty	yellow	zielony	green	hit	n/a
419.7069	n/a	RESPONSE	n/a	n/a	n/a	n/a	n/a	n/a	n/a	yellow
419.7265	1.0166	ITI	n/a	n/a	n/a	n/a	n/a	n/a	n/a	n/a
420.7431	0.5167	FIXCROSS	n/a	n/a	n/a	n/a	n/a	n/a	n/a	n/a
421.2598	0.8	COLOR_NAME	69	Neutral	czerwony	red	Neutral	Neutral	hit	n/a
422.0264	n/a	RESPONSE	n/a	n/a	n/a	n/a	n/a	n/a	n/a	red
422.0599	1.0167	ITI	n/a	n/a	n/a	n/a	n/a	n/a	n/a	n/a
423.0765	0.5167	FIXCROSS	n/a	n/a	n/a	n/a	n/a	n/a	n/a	n/a
423.5932	0.75	COLOR_NAME	70	Incongruent	niebieski	blue	czerwony	red	hit	n/a
424.3137	n/a	RESPONSE	n/a	n/a	n/a	n/a	n/a	n/a	n/a	blue
424.3432	1.0167	ITI	n/a	n/a	n/a	n/a	n/a	n/a	n/a	n/a
425.3599	0.5167	FIXCROSS	n/a	n/a	n/a	n/a	n/a	n/a	n/a	n/a
425.8766	0.7	COLOR_NAME	71	Incongruent	czerwony	red	zielony	green	hit	n/a
426.5533	n/a	RESPONSE	n/a	n/a	n/a	n/a	n/a	n/a	n/a	red
426.5766	1.0167	ITI	n/a	n/a	n/a	n/a	n/a	n/a	n/a	n/a
427.5933	0.5167	FIXCROSS	n/a	n/a	n/a	n/a	n/a	n/a	n/a	n/a
428.1099	0.8333	COLOR_NAME	72	Incongruent	niebieski	blue	zielony	green	hit	n/a
428.9207	n/a	RESPONSE	n/a	n/a	n/a	n/a	n/a	n/a	n/a	blue
428.9433	1.0334	ITI	n/a	n/a	n/a	n/a	n/a	n/a	n/a	n/a
438.1505	n/a	RESPONSE	n/a	n/a	n/a	n/a	n/a	n/a	n/a	n/a
