onset	duration	trial_type	trial_number	stroop_condition	stim_text(PL)	stim_text(eng)	stim_color(PL)	stim_color(eng)	response_type	response_color
0.0	n/a	RESPONSE	n/a	n/a	n/a	n/a	n/a	n/a	n/a	n/a
0.0582	1.0333	ITI	n/a	n/a	n/a	n/a	n/a	n/a	n/a	n/a
1.0916	0.5167	FIXCROSS	n/a	n/a	n/a	n/a	n/a	n/a	n/a	n/a
1.6083	0.9167	T_INK	1	Incongruent	zielony	green	niebieski	blue	hit	n/a
2.4936	n/a	RESPONSE	n/a	n/a	n/a	n/a	n/a	n/a	n/a	blue
2.5249	0.5167	FEEDBACK	n/a	n/a	n/a	n/a	n/a	n/a	n/a	n/a
3.0416	1.0167	ITI	n/a	n/a	n/a	n/a	n/a	n/a	n/a	n/a
4.0583	0.5167	FIXCROSS	n/a	n/a	n/a	n/a	n/a	n/a	n/a	n/a
4.575	0.5667	T_INK	2	Incongruent	zielony	green	żółty	yellow	hit	n/a
5.1152	n/a	RESPONSE	n/a	n/a	n/a	n/a	n/a	n/a	n/a	yellow
5.1416	0.5167	FEEDBACK	n/a	n/a	n/a	n/a	n/a	n/a	n/a	n/a
5.6583	1.0167	ITI	n/a	n/a	n/a	n/a	n/a	n/a	n/a	n/a
6.675	0.5167	FIXCROSS	n/a	n/a	n/a	n/a	n/a	n/a	n/a	n/a
7.1917	0.55	T_INK	3	Neutral	xxxxxxx	xxxxxxx	żółty	yellow	hit	n/a
7.7207	n/a	RESPONSE	n/a	n/a	n/a	n/a	n/a	n/a	n/a	yellow
7.7417	0.5167	FEEDBACK	n/a	n/a	n/a	n/a	n/a	n/a	n/a	n/a
8.2583	1.0167	ITI	n/a	n/a	n/a	n/a	n/a	n/a	n/a	n/a
9.275	0.5167	FIXCROSS	n/a	n/a	n/a	n/a	n/a	n/a	n/a	n/a
9.7917	0.5334	T_INK	4	Neutral	xxxxx	xxxxx	czerwony	red	hit	n/a
10.2943	n/a	RESPONSE	n/a	n/a	n/a	n/a	n/a	n/a	n/a	red
10.325	0.5167	FEEDBACK	n/a	n/a	n/a	n/a	n/a	n/a	n/a	n/a
10.8417	1.0167	ITI	n/a	n/a	n/a	n/a	n/a	n/a	n/a	n/a
11.8584	0.5167	FIXCROSS	n/a	n/a	n/a	n/a	n/a	n/a	n/a	n/a
12.3751	0.45	T_INK	5	Neutral	xxxxx	xxxxx	niebieski	blue	hit	n/a
12.804	n/a	RESPONSE	n/a	n/a	n/a	n/a	n/a	n/a	n/a	blue
12.8251	0.5167	FEEDBACK	n/a	n/a	n/a	n/a	n/a	n/a	n/a	n/a
13.3417	1.0167	ITI	n/a	n/a	n/a	n/a	n/a	n/a	n/a	n/a
14.3584	0.5167	FIXCROSS	n/a	n/a	n/a	n/a	n/a	n/a	n/a	n/a
14.8751	0.4833	T_INK	6	Neutral	xxxxxxxx	xxxxxxxx	żółty	yellow	hit	n/a
15.3295	n/a	RESPONSE	n/a	n/a	n/a	n/a	n/a	n/a	n/a	yellow
15.3584	0.5167	FEEDBACK	n/a	n/a	n/a	n/a	n/a	n/a	n/a	n/a
15.8751	1.0167	ITI	n/a	n/a	n/a	n/a	n/a	n/a	n/a	n/a
16.8918	0.5167	FIXCROSS	n/a	n/a	n/a	n/a	n/a	n/a	n/a	n/a
17.4084	0.5167	T_INK	7	Neutral	xxxxxxxxx	xxxxxxxxx	zielony	green	hit	n/a
17.9031	n/a	RESPONSE	n/a	n/a	n/a	n/a	n/a	n/a	n/a	green
17.9251	0.5167	FEEDBACK	n/a	n/a	n/a	n/a	n/a	n/a	n/a	n/a
18.4418	1.0167	ITI	n/a	n/a	n/a	n/a	n/a	n/a	n/a	n/a
19.4585	0.5167	FIXCROSS	n/a	n/a	n/a	n/a	n/a	n/a	n/a	n/a
19.9752	0.7167	T_INK	8	Incongruent	niebieski	blue	żółty	yellow	hit	n/a
20.6684	n/a	RESPONSE	n/a	n/a	n/a	n/a	n/a	n/a	n/a	yellow
20.6918	0.5167	FEEDBACK	n/a	n/a	n/a	n/a	n/a	n/a	n/a	n/a
21.2085	1.0167	ITI	n/a	n/a	n/a	n/a	n/a	n/a	n/a	n/a
22.2252	0.5166	FIXCROSS	n/a	n/a	n/a	n/a	n/a	n/a	n/a	n/a
22.7418	0.5168	T_INK	9	Neutral	xxxxxxx	xxxxxxx	czerwony	red	hit	n/a
23.226	n/a	RESPONSE	n/a	n/a	n/a	n/a	n/a	n/a	n/a	red
23.2585	0.5167	FEEDBACK	n/a	n/a	n/a	n/a	n/a	n/a	n/a	n/a
23.7752	1.0167	ITI	n/a	n/a	n/a	n/a	n/a	n/a	n/a	n/a
24.7919	0.5167	FIXCROSS	n/a	n/a	n/a	n/a	n/a	n/a	n/a	n/a
25.3085	0.8167	T_INK	10	Incongruent	niebieski	blue	zielony	green	hit	n/a
26.1034	n/a	RESPONSE	n/a	n/a	n/a	n/a	n/a	n/a	n/a	green
26.1252	0.5167	FEEDBACK	n/a	n/a	n/a	n/a	n/a	n/a	n/a	n/a
26.6419	1.0167	ITI	n/a	n/a	n/a	n/a	n/a	n/a	n/a	n/a
27.6586	0.5167	FIXCROSS	n/a	n/a	n/a	n/a	n/a	n/a	n/a	n/a
28.1752	0.5333	T_INK	11	Neutral	xxxxxxxxx	xxxxxxxxx	żółty	yellow	hit	n/a
28.6769	n/a	RESPONSE	n/a	n/a	n/a	n/a	n/a	n/a	n/a	yellow
28.7086	0.5167	FEEDBACK	n/a	n/a	n/a	n/a	n/a	n/a	n/a	n/a
29.2253	1.0167	ITI	n/a	n/a	n/a	n/a	n/a	n/a	n/a	n/a
30.2419	0.5167	FIXCROSS	n/a	n/a	n/a	n/a	n/a	n/a	n/a	n/a
30.7586	1.05	T_INK	12	Incongruent	czerwony	red	niebieski	blue	hit	n/a
31.778	n/a	RESPONSE	n/a	n/a	n/a	n/a	n/a	n/a	n/a	blue
31.8086	0.5167	FEEDBACK	n/a	n/a	n/a	n/a	n/a	n/a	n/a	n/a
32.3253	1.0333	ITI	n/a	n/a	n/a	n/a	n/a	n/a	n/a	n/a
53.5815	n/a	RESPONSE	n/a	n/a	n/a	n/a	n/a	n/a	n/a	n/a
53.6422	1.0167	ITI	n/a	n/a	n/a	n/a	n/a	n/a	n/a	n/a
54.6589	0.5167	FIXCROSS	n/a	n/a	n/a	n/a	n/a	n/a	n/a	n/a
55.1756	0.6333	INK	1	Neutral	xxxxxxx	xxxxxxx	żółty	yellow	hit	n/a
55.7713	n/a	RESPONSE	n/a	n/a	n/a	n/a	n/a	n/a	n/a	yellow
55.8089	1.0167	ITI	n/a	n/a	n/a	n/a	n/a	n/a	n/a	n/a
56.8256	0.5167	FIXCROSS	n/a	n/a	n/a	n/a	n/a	n/a	n/a	n/a
57.3423	0.4167	INK	2	Neutral	xxxxxxxx	xxxxxxxx	żółty	yellow	hit	n/a
57.7374	n/a	RESPONSE	n/a	n/a	n/a	n/a	n/a	n/a	n/a	yellow
57.7589	1.0167	ITI	n/a	n/a	n/a	n/a	n/a	n/a	n/a	n/a
58.7756	0.5167	FIXCROSS	n/a	n/a	n/a	n/a	n/a	n/a	n/a	n/a
59.2923	0.6667	INK	3	Incongruent	żółty	yellow	zielony	green	hit	n/a
59.9274	n/a	RESPONSE	n/a	n/a	n/a	n/a	n/a	n/a	n/a	green
59.959	1.0167	ITI	n/a	n/a	n/a	n/a	n/a	n/a	n/a	n/a
60.9756	0.5167	FIXCROSS	n/a	n/a	n/a	n/a	n/a	n/a	n/a	n/a
61.4923	0.6	INK	4	Incongruent	zielony	green	żółty	yellow	hit	n/a
62.0694	n/a	RESPONSE	n/a	n/a	n/a	n/a	n/a	n/a	n/a	yellow
62.0923	1.0167	ITI	n/a	n/a	n/a	n/a	n/a	n/a	n/a	n/a
63.109	0.5167	FIXCROSS	n/a	n/a	n/a	n/a	n/a	n/a	n/a	n/a
63.6257	0.4667	INK	5	Neutral	xxxxxxxxx	xxxxxxxxx	zielony	green	incorrect	n/a
64.0675	n/a	RESPONSE	n/a	n/a	n/a	n/a	n/a	n/a	n/a	red
64.0923	1.0167	ITI	n/a	n/a	n/a	n/a	n/a	n/a	n/a	n/a
65.109	0.5167	FIXCROSS	n/a	n/a	n/a	n/a	n/a	n/a	n/a	n/a
65.6257	0.6833	INK	6	Neutral	xxxxxxx	xxxxxxx	niebieski	blue	hit	n/a
66.2894	n/a	RESPONSE	n/a	n/a	n/a	n/a	n/a	n/a	n/a	blue
66.309	1.0167	ITI	n/a	n/a	n/a	n/a	n/a	n/a	n/a	n/a
67.3257	0.5167	FIXCROSS	n/a	n/a	n/a	n/a	n/a	n/a	n/a	n/a
67.8424	0.5833	INK	7	Neutral	xxxxxxxxx	xxxxxxxxx	żółty	yellow	hit	n/a
68.3993	n/a	RESPONSE	n/a	n/a	n/a	n/a	n/a	n/a	n/a	yellow
68.4257	1.0167	ITI	n/a	n/a	n/a	n/a	n/a	n/a	n/a	n/a
69.4424	0.5167	FIXCROSS	n/a	n/a	n/a	n/a	n/a	n/a	n/a	n/a
69.9591	0.6	INK	8	Incongruent	zielony	green	czerwony	red	hit	n/a
70.5413	n/a	RESPONSE	n/a	n/a	n/a	n/a	n/a	n/a	n/a	red
70.5591	1.0167	ITI	n/a	n/a	n/a	n/a	n/a	n/a	n/a	n/a
71.5758	0.5167	FIXCROSS	n/a	n/a	n/a	n/a	n/a	n/a	n/a	n/a
72.0924	0.3667	INK	9	Neutral	xxxxxxxxx	xxxxxxxxx	czerwony	red	hit	n/a
72.4276	n/a	RESPONSE	n/a	n/a	n/a	n/a	n/a	n/a	n/a	red
72.4591	1.0167	ITI	n/a	n/a	n/a	n/a	n/a	n/a	n/a	n/a
73.4758	0.5167	FIXCROSS	n/a	n/a	n/a	n/a	n/a	n/a	n/a	n/a
73.9925	0.6167	INK	10	Incongruent	zielony	green	niebieski	blue	hit	n/a
74.5856	n/a	RESPONSE	n/a	n/a	n/a	n/a	n/a	n/a	n/a	blue
74.6091	1.0167	ITI	n/a	n/a	n/a	n/a	n/a	n/a	n/a	n/a
75.6258	0.5167	FIXCROSS	n/a	n/a	n/a	n/a	n/a	n/a	n/a	n/a
76.1425	0.6333	INK	11	Neutral	xxxxx	xxxxx	zielony	green	hit	n/a
76.7435	n/a	RESPONSE	n/a	n/a	n/a	n/a	n/a	n/a	n/a	green
76.7758	1.0167	ITI	n/a	n/a	n/a	n/a	n/a	n/a	n/a	n/a
77.7925	0.5167	FIXCROSS	n/a	n/a	n/a	n/a	n/a	n/a	n/a	n/a
78.3092	0.6	INK	12	Incongruent	żółty	yellow	niebieski	blue	hit	n/a
78.8855	n/a	RESPONSE	n/a	n/a	n/a	n/a	n/a	n/a	n/a	blue
78.9092	1.0167	ITI	n/a	n/a	n/a	n/a	n/a	n/a	n/a	n/a
79.9259	0.5167	FIXCROSS	n/a	n/a	n/a	n/a	n/a	n/a	n/a	n/a
80.4425	0.4667	INK	13	Neutral	xxxxxxx	xxxxxxx	niebieski	blue	hit	n/a
80.8836	n/a	RESPONSE	n/a	n/a	n/a	n/a	n/a	n/a	n/a	blue
80.9092	1.0167	ITI	n/a	n/a	n/a	n/a	n/a	n/a	n/a	n/a
81.9259	0.5167	FIXCROSS	n/a	n/a	n/a	n/a	n/a	n/a	n/a	n/a
82.4426	0.5167	INK	14	Neutral	xxxxxxx	xxxxxxx	czerwony	red	hit	n/a
82.9297	n/a	RESPONSE	n/a	n/a	n/a	n/a	n/a	n/a	n/a	red
82.9592	1.0167	ITI	n/a	n/a	n/a	n/a	n/a	n/a	n/a	n/a
83.9759	0.5167	FIXCROSS	n/a	n/a	n/a	n/a	n/a	n/a	n/a	n/a
84.4926	0.6	INK	15	Incongruent	niebieski	blue	zielony	green	hit	n/a
85.0717	n/a	RESPONSE	n/a	n/a	n/a	n/a	n/a	n/a	n/a	green
85.0926	1.0167	ITI	n/a	n/a	n/a	n/a	n/a	n/a	n/a	n/a
86.1093	0.5167	FIXCROSS	n/a	n/a	n/a	n/a	n/a	n/a	n/a	n/a
86.6259	0.5667	INK	16	Neutral	xxxxxxxxx	xxxxxxxxx	żółty	yellow	hit	n/a
87.1657	n/a	RESPONSE	n/a	n/a	n/a	n/a	n/a	n/a	n/a	yellow
87.1926	1.0167	ITI	n/a	n/a	n/a	n/a	n/a	n/a	n/a	n/a
88.2093	0.5167	FIXCROSS	n/a	n/a	n/a	n/a	n/a	n/a	n/a	n/a
88.726	0.65	INK	17	Incongruent	czerwony	red	zielony	green	hit	n/a
89.3557	n/a	RESPONSE	n/a	n/a	n/a	n/a	n/a	n/a	n/a	green
89.376	1.0167	ITI	n/a	n/a	n/a	n/a	n/a	n/a	n/a	n/a
90.3927	0.5167	FIXCROSS	n/a	n/a	n/a	n/a	n/a	n/a	n/a	n/a
90.9093	0.7	INK	18	Incongruent	niebieski	blue	żółty	yellow	hit	n/a
91.5775	n/a	RESPONSE	n/a	n/a	n/a	n/a	n/a	n/a	n/a	yellow
91.6093	1.0167	ITI	n/a	n/a	n/a	n/a	n/a	n/a	n/a	n/a
92.626	0.5167	FIXCROSS	n/a	n/a	n/a	n/a	n/a	n/a	n/a	n/a
93.1427	0.65	INK	19	Neutral	xxxxxxxxx	xxxxxxxxx	zielony	green	hit	n/a
93.7675	n/a	RESPONSE	n/a	n/a	n/a	n/a	n/a	n/a	n/a	green
93.7927	1.0167	ITI	n/a	n/a	n/a	n/a	n/a	n/a	n/a	n/a
94.8094	0.5167	FIXCROSS	n/a	n/a	n/a	n/a	n/a	n/a	n/a	n/a
95.3261	0.5	INK	20	Neutral	xxxxxxxx	xxxxxxxx	zielony	green	hit	n/a
95.7975	n/a	RESPONSE	n/a	n/a	n/a	n/a	n/a	n/a	n/a	green
95.8261	1.0167	ITI	n/a	n/a	n/a	n/a	n/a	n/a	n/a	n/a
96.8427	0.5167	FIXCROSS	n/a	n/a	n/a	n/a	n/a	n/a	n/a	n/a
97.3594	0.6333	INK	21	Neutral	xxxxxxxx	xxxxxxxx	niebieski	blue	hit	n/a
97.9715	n/a	RESPONSE	n/a	n/a	n/a	n/a	n/a	n/a	n/a	blue
97.9928	1.0167	ITI	n/a	n/a	n/a	n/a	n/a	n/a	n/a	n/a
99.0094	0.5167	FIXCROSS	n/a	n/a	n/a	n/a	n/a	n/a	n/a	n/a
99.5261	0.5167	INK	22	Neutral	xxxxxxxx	xxxxxxxx	niebieski	blue	hit	n/a
100.0176	n/a	RESPONSE	n/a	n/a	n/a	n/a	n/a	n/a	n/a	blue
100.0428	1.0167	ITI	n/a	n/a	n/a	n/a	n/a	n/a	n/a	n/a
101.0594	0.5167	FIXCROSS	n/a	n/a	n/a	n/a	n/a	n/a	n/a	n/a
101.5761	0.4667	INK	23	Neutral	xxxxx	xxxxx	niebieski	blue	hit	n/a
102.0157	n/a	RESPONSE	n/a	n/a	n/a	n/a	n/a	n/a	n/a	blue
102.0428	1.0167	ITI	n/a	n/a	n/a	n/a	n/a	n/a	n/a	n/a
103.0595	0.5167	FIXCROSS	n/a	n/a	n/a	n/a	n/a	n/a	n/a	n/a
103.5761	0.6	INK	24	Incongruent	żółty	yellow	zielony	green	hit	n/a
104.1257	n/a	RESPONSE	n/a	n/a	n/a	n/a	n/a	n/a	n/a	green
104.1762	1.0167	ITI	n/a	n/a	n/a	n/a	n/a	n/a	n/a	n/a
105.1928	0.5167	FIXCROSS	n/a	n/a	n/a	n/a	n/a	n/a	n/a	n/a
105.7095	0.5333	INK	25	Neutral	xxxxxxx	xxxxxxx	niebieski	blue	hit	n/a
106.2197	n/a	RESPONSE	n/a	n/a	n/a	n/a	n/a	n/a	n/a	blue
106.2428	1.0167	ITI	n/a	n/a	n/a	n/a	n/a	n/a	n/a	n/a
107.2595	0.5167	FIXCROSS	n/a	n/a	n/a	n/a	n/a	n/a	n/a	n/a
107.7762	0.4167	INK	26	Neutral	xxxxx	xxxxx	niebieski	blue	hit	n/a
108.1699	n/a	RESPONSE	n/a	n/a	n/a	n/a	n/a	n/a	n/a	blue
108.1929	1.0167	ITI	n/a	n/a	n/a	n/a	n/a	n/a	n/a	n/a
109.2095	0.5167	FIXCROSS	n/a	n/a	n/a	n/a	n/a	n/a	n/a	n/a
109.7262	0.6167	INK	27	Neutral	xxxxxxxx	xxxxxxxx	zielony	green	hit	n/a
110.3119	n/a	RESPONSE	n/a	n/a	n/a	n/a	n/a	n/a	n/a	green
110.3429	1.0167	ITI	n/a	n/a	n/a	n/a	n/a	n/a	n/a	n/a
111.3596	0.5167	FIXCROSS	n/a	n/a	n/a	n/a	n/a	n/a	n/a	n/a
111.8762	0.6167	INK	28	Incongruent	czerwony	red	niebieski	blue	hit	n/a
112.4698	n/a	RESPONSE	n/a	n/a	n/a	n/a	n/a	n/a	n/a	blue
112.4929	1.0167	ITI	n/a	n/a	n/a	n/a	n/a	n/a	n/a	n/a
113.5096	0.5167	FIXCROSS	n/a	n/a	n/a	n/a	n/a	n/a	n/a	n/a
114.0263	0.5167	INK	29	Incongruent	niebieski	blue	czerwony	red	hit	n/a
114.5159	n/a	RESPONSE	n/a	n/a	n/a	n/a	n/a	n/a	n/a	red
114.5429	1.0167	ITI	n/a	n/a	n/a	n/a	n/a	n/a	n/a	n/a
115.5596	0.5167	FIXCROSS	n/a	n/a	n/a	n/a	n/a	n/a	n/a	n/a
116.0763	0.75	INK	30	Incongruent	zielony	green	niebieski	blue	hit	n/a
116.8017	n/a	RESPONSE	n/a	n/a	n/a	n/a	n/a	n/a	n/a	blue
116.8263	1.0167	ITI	n/a	n/a	n/a	n/a	n/a	n/a	n/a	n/a
117.843	0.5167	FIXCROSS	n/a	n/a	n/a	n/a	n/a	n/a	n/a	n/a
118.3597	0.5167	INK	31	Incongruent	żółty	yellow	zielony	green	hit	n/a
118.8478	n/a	RESPONSE	n/a	n/a	n/a	n/a	n/a	n/a	n/a	green
118.8763	1.0167	ITI	n/a	n/a	n/a	n/a	n/a	n/a	n/a	n/a
119.893	0.5167	FIXCROSS	n/a	n/a	n/a	n/a	n/a	n/a	n/a	n/a
120.4097	0.45	INK	32	Neutral	xxxxx	xxxxx	czerwony	red	hit	n/a
120.83	n/a	RESPONSE	n/a	n/a	n/a	n/a	n/a	n/a	n/a	red
120.8597	1.0167	ITI	n/a	n/a	n/a	n/a	n/a	n/a	n/a	n/a
121.8764	0.5167	FIXCROSS	n/a	n/a	n/a	n/a	n/a	n/a	n/a	n/a
122.393	0.7	INK	33	Incongruent	czerwony	red	żółty	yellow	hit	n/a
123.0678	n/a	RESPONSE	n/a	n/a	n/a	n/a	n/a	n/a	n/a	yellow
123.093	1.0167	ITI	n/a	n/a	n/a	n/a	n/a	n/a	n/a	n/a
124.1097	0.5167	FIXCROSS	n/a	n/a	n/a	n/a	n/a	n/a	n/a	n/a
124.6264	0.5167	INK	34	Neutral	xxxxxxxx	xxxxxxxx	niebieski	blue	hit	n/a
125.1139	n/a	RESPONSE	n/a	n/a	n/a	n/a	n/a	n/a	n/a	blue
125.1431	1.0167	ITI	n/a	n/a	n/a	n/a	n/a	n/a	n/a	n/a
126.1597	0.5167	FIXCROSS	n/a	n/a	n/a	n/a	n/a	n/a	n/a	n/a
126.6764	0.5167	INK	35	Incongruent	zielony	green	niebieski	blue	hit	n/a
127.1601	n/a	RESPONSE	n/a	n/a	n/a	n/a	n/a	n/a	n/a	blue
127.1931	1.0167	ITI	n/a	n/a	n/a	n/a	n/a	n/a	n/a	n/a
128.2098	0.5167	FIXCROSS	n/a	n/a	n/a	n/a	n/a	n/a	n/a	n/a
128.7264	0.6333	INK	36	Incongruent	czerwony	red	żółty	yellow	hit	n/a
129.3339	n/a	RESPONSE	n/a	n/a	n/a	n/a	n/a	n/a	n/a	yellow
129.3598	1.0167	ITI	n/a	n/a	n/a	n/a	n/a	n/a	n/a	n/a
130.3765	0.5167	FIXCROSS	n/a	n/a	n/a	n/a	n/a	n/a	n/a	n/a
130.8931	0.5667	INK	37	Incongruent	żółty	yellow	czerwony	red	hit	n/a
131.428	n/a	RESPONSE	n/a	n/a	n/a	n/a	n/a	n/a	n/a	red
131.4598	1.0167	ITI	n/a	n/a	n/a	n/a	n/a	n/a	n/a	n/a
132.4765	0.5167	FIXCROSS	n/a	n/a	n/a	n/a	n/a	n/a	n/a	n/a
132.9932	0.45	INK	38	Incongruent	zielony	green	czerwony	red	hit	n/a
133.4101	n/a	RESPONSE	n/a	n/a	n/a	n/a	n/a	n/a	n/a	red
133.4432	1.0167	ITI	n/a	n/a	n/a	n/a	n/a	n/a	n/a	n/a
134.4598	0.5167	FIXCROSS	n/a	n/a	n/a	n/a	n/a	n/a	n/a	n/a
134.9765	0.6833	INK	39	Incongruent	niebieski	blue	zielony	green	hit	n/a
135.6321	n/a	RESPONSE	n/a	n/a	n/a	n/a	n/a	n/a	n/a	green
135.6599	1.0167	ITI	n/a	n/a	n/a	n/a	n/a	n/a	n/a	n/a
136.6765	0.5167	FIXCROSS	n/a	n/a	n/a	n/a	n/a	n/a	n/a	n/a
137.1932	1.35	INK	40	Incongruent	zielony	green	żółty	yellow	hit	n/a
138.5253	n/a	RESPONSE	n/a	n/a	n/a	n/a	n/a	n/a	n/a	yellow
138.5432	1.0167	ITI	n/a	n/a	n/a	n/a	n/a	n/a	n/a	n/a
139.5599	0.5167	FIXCROSS	n/a	n/a	n/a	n/a	n/a	n/a	n/a	n/a
140.0766	0.5833	INK	41	Neutral	xxxxxxx	xxxxxxx	czerwony	red	hit	n/a
140.6353	n/a	RESPONSE	n/a	n/a	n/a	n/a	n/a	n/a	n/a	red
140.6599	1.0167	ITI	n/a	n/a	n/a	n/a	n/a	n/a	n/a	n/a
141.6766	0.5167	FIXCROSS	n/a	n/a	n/a	n/a	n/a	n/a	n/a	n/a
142.1933	0.65	INK	42	Neutral	xxxxx	xxxxx	zielony	green	hit	n/a
142.8252	n/a	RESPONSE	n/a	n/a	n/a	n/a	n/a	n/a	n/a	green
142.8433	1.0167	ITI	n/a	n/a	n/a	n/a	n/a	n/a	n/a	n/a
143.86	0.5167	FIXCROSS	n/a	n/a	n/a	n/a	n/a	n/a	n/a	n/a
144.3766	0.4667	INK	43	Neutral	xxxxx	xxxxx	zielony	green	hit	n/a
144.8233	n/a	RESPONSE	n/a	n/a	n/a	n/a	n/a	n/a	n/a	green
144.8433	1.0167	ITI	n/a	n/a	n/a	n/a	n/a	n/a	n/a	n/a
145.86	0.5167	FIXCROSS	n/a	n/a	n/a	n/a	n/a	n/a	n/a	n/a
146.3766	0.7333	INK	44	Incongruent	niebieski	blue	czerwony	red	hit	n/a
147.0773	n/a	RESPONSE	n/a	n/a	n/a	n/a	n/a	n/a	n/a	red
147.11	1.0167	ITI	n/a	n/a	n/a	n/a	n/a	n/a	n/a	n/a
148.1267	0.5167	FIXCROSS	n/a	n/a	n/a	n/a	n/a	n/a	n/a	n/a
148.6434	0.3833	INK	45	Neutral	xxxxx	xxxxx	czerwony	red	hit	n/a
148.9954	n/a	RESPONSE	n/a	n/a	n/a	n/a	n/a	n/a	n/a	red
149.0267	1.0167	ITI	n/a	n/a	n/a	n/a	n/a	n/a	n/a	n/a
150.0434	0.5167	FIXCROSS	n/a	n/a	n/a	n/a	n/a	n/a	n/a	n/a
150.56	0.8333	INK	46	Neutral	xxxxxxxx	xxxxxxxx	zielony	green	hit	n/a
151.3611	n/a	RESPONSE	n/a	n/a	n/a	n/a	n/a	n/a	n/a	green
151.3934	1.0167	ITI	n/a	n/a	n/a	n/a	n/a	n/a	n/a	n/a
152.4101	0.5167	FIXCROSS	n/a	n/a	n/a	n/a	n/a	n/a	n/a	n/a
152.9267	0.4833	INK	47	Incongruent	czerwony	red	zielony	green	hit	n/a
153.3912	n/a	RESPONSE	n/a	n/a	n/a	n/a	n/a	n/a	n/a	green
153.4101	1.0167	ITI	n/a	n/a	n/a	n/a	n/a	n/a	n/a	n/a
154.4267	0.5167	FIXCROSS	n/a	n/a	n/a	n/a	n/a	n/a	n/a	n/a
154.9434	0.75	INK	48	Incongruent	niebieski	blue	żółty	yellow	hit	n/a
155.6611	n/a	RESPONSE	n/a	n/a	n/a	n/a	n/a	n/a	n/a	yellow
155.6934	1.0167	ITI	n/a	n/a	n/a	n/a	n/a	n/a	n/a	n/a
156.7101	0.5167	FIXCROSS	n/a	n/a	n/a	n/a	n/a	n/a	n/a	n/a
157.2268	0.4833	INK	49	Neutral	xxxxx	xxxxx	czerwony	red	hit	n/a
157.6912	n/a	RESPONSE	n/a	n/a	n/a	n/a	n/a	n/a	n/a	red
157.7101	1.0167	ITI	n/a	n/a	n/a	n/a	n/a	n/a	n/a	n/a
158.7268	0.5167	FIXCROSS	n/a	n/a	n/a	n/a	n/a	n/a	n/a	n/a
159.2435	0.7667	INK	50	Neutral	xxxxxxx	xxxxxxx	żółty	yellow	hit	n/a
159.977	n/a	RESPONSE	n/a	n/a	n/a	n/a	n/a	n/a	n/a	yellow
160.0101	1.0167	ITI	n/a	n/a	n/a	n/a	n/a	n/a	n/a	n/a
161.0268	0.5167	FIXCROSS	n/a	n/a	n/a	n/a	n/a	n/a	n/a	n/a
161.5435	0.55	INK	51	Incongruent	zielony	green	czerwony	red	hit	n/a
162.071	n/a	RESPONSE	n/a	n/a	n/a	n/a	n/a	n/a	n/a	red
162.0935	1.0167	ITI	n/a	n/a	n/a	n/a	n/a	n/a	n/a	n/a
163.1102	0.5167	FIXCROSS	n/a	n/a	n/a	n/a	n/a	n/a	n/a	n/a
163.6268	0.5167	INK	52	Incongruent	niebieski	blue	żółty	yellow	hit	n/a
164.1171	n/a	RESPONSE	n/a	n/a	n/a	n/a	n/a	n/a	n/a	yellow
164.1435	1.0167	ITI	n/a	n/a	n/a	n/a	n/a	n/a	n/a	n/a
165.1602	0.5167	FIXCROSS	n/a	n/a	n/a	n/a	n/a	n/a	n/a	n/a
165.6769	0.5333	INK	53	Incongruent	niebieski	blue	zielony	green	hit	n/a
166.1791	n/a	RESPONSE	n/a	n/a	n/a	n/a	n/a	n/a	n/a	green
166.2102	1.0167	ITI	n/a	n/a	n/a	n/a	n/a	n/a	n/a	n/a
167.2269	0.5167	FIXCROSS	n/a	n/a	n/a	n/a	n/a	n/a	n/a	n/a
167.7436	0.6	INK	54	Neutral	xxxxxxxxx	xxxxxxxxx	czerwony	red	hit	n/a
168.3211	n/a	RESPONSE	n/a	n/a	n/a	n/a	n/a	n/a	n/a	red
168.3436	1.0167	ITI	n/a	n/a	n/a	n/a	n/a	n/a	n/a	n/a
169.3603	0.5167	FIXCROSS	n/a	n/a	n/a	n/a	n/a	n/a	n/a	n/a
169.8769	0.4167	INK	55	Incongruent	żółty	yellow	czerwony	red	hit	n/a
170.2712	n/a	RESPONSE	n/a	n/a	n/a	n/a	n/a	n/a	n/a	red
170.2936	1.0167	ITI	n/a	n/a	n/a	n/a	n/a	n/a	n/a	n/a
171.3103	0.5167	FIXCROSS	n/a	n/a	n/a	n/a	n/a	n/a	n/a	n/a
171.8269	0.5167	INK	56	Neutral	xxxxxxxx	xxxxxxxx	żółty	yellow	hit	n/a
172.3173	n/a	RESPONSE	n/a	n/a	n/a	n/a	n/a	n/a	n/a	yellow
172.3436	1.0167	ITI	n/a	n/a	n/a	n/a	n/a	n/a	n/a	n/a
173.3603	0.5167	FIXCROSS	n/a	n/a	n/a	n/a	n/a	n/a	n/a	n/a
173.877	0.5167	INK	57	Neutral	xxxxxxxxx	xxxxxxxxx	zielony	green	hit	n/a
174.3635	n/a	RESPONSE	n/a	n/a	n/a	n/a	n/a	n/a	n/a	green
174.3936	1.0167	ITI	n/a	n/a	n/a	n/a	n/a	n/a	n/a	n/a
175.4103	0.5167	FIXCROSS	n/a	n/a	n/a	n/a	n/a	n/a	n/a	n/a
175.927	0.4667	INK	58	Incongruent	czerwony	red	zielony	green	hit	n/a
176.3616	n/a	RESPONSE	n/a	n/a	n/a	n/a	n/a	n/a	n/a	green
176.3937	1.0167	ITI	n/a	n/a	n/a	n/a	n/a	n/a	n/a	n/a
177.4103	0.5167	FIXCROSS	n/a	n/a	n/a	n/a	n/a	n/a	n/a	n/a
177.927	0.4667	INK	59	Neutral	xxxxxxxx	xxxxxxxx	żółty	yellow	hit	n/a
178.3757	n/a	RESPONSE	n/a	n/a	n/a	n/a	n/a	n/a	n/a	yellow
178.3937	1.0167	ITI	n/a	n/a	n/a	n/a	n/a	n/a	n/a	n/a
179.4104	0.5167	FIXCROSS	n/a	n/a	n/a	n/a	n/a	n/a	n/a	n/a
179.927	0.4333	INK	60	Incongruent	czerwony	red	żółty	yellow	hit	n/a
180.3418	n/a	RESPONSE	n/a	n/a	n/a	n/a	n/a	n/a	n/a	yellow
180.3604	1.0167	ITI	n/a	n/a	n/a	n/a	n/a	n/a	n/a	n/a
181.3771	0.5167	FIXCROSS	n/a	n/a	n/a	n/a	n/a	n/a	n/a	n/a
181.8937	0.6333	INK	61	Neutral	xxxxx	xxxxx	niebieski	blue	hit	n/a
182.4998	n/a	RESPONSE	n/a	n/a	n/a	n/a	n/a	n/a	n/a	blue
182.5271	1.0167	ITI	n/a	n/a	n/a	n/a	n/a	n/a	n/a	n/a
183.5438	0.5167	FIXCROSS	n/a	n/a	n/a	n/a	n/a	n/a	n/a	n/a
184.0604	0.4667	INK	62	Incongruent	zielony	green	żółty	yellow	hit	n/a
184.4979	n/a	RESPONSE	n/a	n/a	n/a	n/a	n/a	n/a	n/a	yellow
184.5271	1.0167	ITI	n/a	n/a	n/a	n/a	n/a	n/a	n/a	n/a
185.5438	0.5167	FIXCROSS	n/a	n/a	n/a	n/a	n/a	n/a	n/a	n/a
186.0604	0.4333	INK	63	Neutral	xxxxxxx	xxxxxxx	czerwony	red	hit	n/a
186.464	n/a	RESPONSE	n/a	n/a	n/a	n/a	n/a	n/a	n/a	red
186.4938	1.0167	ITI	n/a	n/a	n/a	n/a	n/a	n/a	n/a	n/a
187.5105	0.5167	FIXCROSS	n/a	n/a	n/a	n/a	n/a	n/a	n/a	n/a
188.0271	0.4833	INK	64	Incongruent	niebieski	blue	czerwony	red	hit	n/a
188.4781	n/a	RESPONSE	n/a	n/a	n/a	n/a	n/a	n/a	n/a	red
188.5105	1.0167	ITI	n/a	n/a	n/a	n/a	n/a	n/a	n/a	n/a
189.5272	0.5167	FIXCROSS	n/a	n/a	n/a	n/a	n/a	n/a	n/a	n/a
190.0438	0.8333	INK	65	Neutral	xxxxxxxxx	xxxxxxxxx	żółty	yellow	hit	n/a
190.8438	n/a	RESPONSE	n/a	n/a	n/a	n/a	n/a	n/a	n/a	yellow
190.8772	1.0167	ITI	n/a	n/a	n/a	n/a	n/a	n/a	n/a	n/a
191.8938	0.5167	FIXCROSS	n/a	n/a	n/a	n/a	n/a	n/a	n/a	n/a
192.4105	0.75	INK	66	Incongruent	czerwony	red	niebieski	blue	hit	n/a
193.1297	n/a	RESPONSE	n/a	n/a	n/a	n/a	n/a	n/a	n/a	blue
193.1605	1.0167	ITI	n/a	n/a	n/a	n/a	n/a	n/a	n/a	n/a
194.1772	0.5167	FIXCROSS	n/a	n/a	n/a	n/a	n/a	n/a	n/a	n/a
194.6939	0.5333	INK	67	Incongruent	żółty	yellow	czerwony	red	hit	n/a
195.2077	n/a	RESPONSE	n/a	n/a	n/a	n/a	n/a	n/a	n/a	red
195.2272	1.0167	ITI	n/a	n/a	n/a	n/a	n/a	n/a	n/a	n/a
196.2439	0.5167	FIXCROSS	n/a	n/a	n/a	n/a	n/a	n/a	n/a	n/a
196.7606	0.9333	INK	68	Incongruent	żółty	yellow	niebieski	blue	hit	n/a
197.6694	n/a	RESPONSE	n/a	n/a	n/a	n/a	n/a	n/a	n/a	blue
197.6939	1.0167	ITI	n/a	n/a	n/a	n/a	n/a	n/a	n/a	n/a
198.7106	0.5167	FIXCROSS	n/a	n/a	n/a	n/a	n/a	n/a	n/a	n/a
199.2273	0.5167	INK	69	Incongruent	żółty	yellow	niebieski	blue	hit	n/a
199.7155	n/a	RESPONSE	n/a	n/a	n/a	n/a	n/a	n/a	n/a	blue
199.7439	1.0167	ITI	n/a	n/a	n/a	n/a	n/a	n/a	n/a	n/a
200.7606	0.5167	FIXCROSS	n/a	n/a	n/a	n/a	n/a	n/a	n/a	n/a
201.2773	0.7	INK	70	Neutral	xxxxxxxxx	xxxxxxxxx	czerwony	red	hit	n/a
201.9533	n/a	RESPONSE	n/a	n/a	n/a	n/a	n/a	n/a	n/a	red
201.9773	1.0167	ITI	n/a	n/a	n/a	n/a	n/a	n/a	n/a	n/a
202.994	0.5167	FIXCROSS	n/a	n/a	n/a	n/a	n/a	n/a	n/a	n/a
203.5106	0.7833	INK	71	Incongruent	czerwony	red	niebieski	blue	hit	n/a
204.2711	n/a	RESPONSE	n/a	n/a	n/a	n/a	n/a	n/a	n/a	blue
204.294	1.0167	ITI	n/a	n/a	n/a	n/a	n/a	n/a	n/a	n/a
205.3107	0.5167	FIXCROSS	n/a	n/a	n/a	n/a	n/a	n/a	n/a	n/a
205.8273	0.55	INK	72	Neutral	xxxxxxx	xxxxxxx	żółty	yellow	hit	n/a
206.3492	n/a	RESPONSE	n/a	n/a	n/a	n/a	n/a	n/a	n/a	yellow
206.3773	1.0833	ITI	n/a	n/a	n/a	n/a	n/a	n/a	n/a	n/a
211.4324	n/a	RESPONSE	n/a	n/a	n/a	n/a	n/a	n/a	n/a	n/a
211.4607	1.0	ITI	n/a	n/a	n/a	n/a	n/a	n/a	n/a	n/a
212.4607	0.5167	FIXCROSS	n/a	n/a	n/a	n/a	n/a	n/a	n/a	n/a
212.9774	1.3667	T_COLOR_NAME	1	Incongruent	niebieski	blue	żółty	yellow	hit	n/a
214.3097	n/a	RESPONSE	n/a	n/a	n/a	n/a	n/a	n/a	n/a	blue
214.3441	0.5167	FEEDBACK	n/a	n/a	n/a	n/a	n/a	n/a	n/a	n/a
214.8608	1.0167	ITI	n/a	n/a	n/a	n/a	n/a	n/a	n/a	n/a
215.8775	0.5167	FIXCROSS	n/a	n/a	n/a	n/a	n/a	n/a	n/a	n/a
216.3941	0.8	T_COLOR_NAME	2	Neutral	zielony	green	Neutral	Neutral	hit	n/a
217.171	n/a	RESPONSE	n/a	n/a	n/a	n/a	n/a	n/a	n/a	green
217.1941	0.5167	FEEDBACK	n/a	n/a	n/a	n/a	n/a	n/a	n/a	n/a
217.7108	1.0167	ITI	n/a	n/a	n/a	n/a	n/a	n/a	n/a	n/a
218.7275	0.5167	FIXCROSS	n/a	n/a	n/a	n/a	n/a	n/a	n/a	n/a
219.2442	0.6667	T_COLOR_NAME	3	Neutral	niebieski	blue	Neutral	Neutral	hit	n/a
219.8725	n/a	RESPONSE	n/a	n/a	n/a	n/a	n/a	n/a	n/a	blue
219.9108	0.5167	FEEDBACK	n/a	n/a	n/a	n/a	n/a	n/a	n/a	n/a
220.4275	1.0167	ITI	n/a	n/a	n/a	n/a	n/a	n/a	n/a	n/a
221.4442	0.5167	FIXCROSS	n/a	n/a	n/a	n/a	n/a	n/a	n/a	n/a
221.9609	0.7167	T_COLOR_NAME	4	Neutral	zielony	green	Neutral	Neutral	hit	n/a
222.6537	n/a	RESPONSE	n/a	n/a	n/a	n/a	n/a	n/a	n/a	green
222.6775	0.5167	FEEDBACK	n/a	n/a	n/a	n/a	n/a	n/a	n/a	n/a
223.1942	1.0167	ITI	n/a	n/a	n/a	n/a	n/a	n/a	n/a	n/a
224.2109	0.5167	FIXCROSS	n/a	n/a	n/a	n/a	n/a	n/a	n/a	n/a
224.7276	0.7834	T_COLOR_NAME	5	Neutral	żółty	yellow	Neutral	Neutral	hit	n/a
225.4831	n/a	RESPONSE	n/a	n/a	n/a	n/a	n/a	n/a	n/a	yellow
225.5109	0.5167	FEEDBACK	n/a	n/a	n/a	n/a	n/a	n/a	n/a	n/a
226.0276	1.0167	ITI	n/a	n/a	n/a	n/a	n/a	n/a	n/a	n/a
227.0442	0.5167	FIXCROSS	n/a	n/a	n/a	n/a	n/a	n/a	n/a	n/a
227.5609	1.4167	T_COLOR_NAME	6	Incongruent	czerwony	red	niebieski	blue	hit	n/a
228.9518	n/a	RESPONSE	n/a	n/a	n/a	n/a	n/a	n/a	n/a	red
228.9776	0.5167	FEEDBACK	n/a	n/a	n/a	n/a	n/a	n/a	n/a	n/a
229.4943	1.0167	ITI	n/a	n/a	n/a	n/a	n/a	n/a	n/a	n/a
230.511	0.5167	FIXCROSS	n/a	n/a	n/a	n/a	n/a	n/a	n/a	n/a
231.0276	1.15	T_COLOR_NAME	7	Incongruent	zielony	green	żółty	yellow	hit	n/a
232.1488	n/a	RESPONSE	n/a	n/a	n/a	n/a	n/a	n/a	n/a	green
232.1776	0.5167	FEEDBACK	n/a	n/a	n/a	n/a	n/a	n/a	n/a	n/a
232.6943	1.0167	ITI	n/a	n/a	n/a	n/a	n/a	n/a	n/a	n/a
233.711	0.5167	FIXCROSS	n/a	n/a	n/a	n/a	n/a	n/a	n/a	n/a
234.2277	0.7834	T_COLOR_NAME	8	Neutral	niebieski	blue	Neutral	Neutral	hit	n/a
234.9782	n/a	RESPONSE	n/a	n/a	n/a	n/a	n/a	n/a	n/a	blue
235.011	0.5167	FEEDBACK	n/a	n/a	n/a	n/a	n/a	n/a	n/a	n/a
235.5277	1.0167	ITI	n/a	n/a	n/a	n/a	n/a	n/a	n/a	n/a
236.5444	0.5167	FIXCROSS	n/a	n/a	n/a	n/a	n/a	n/a	n/a	n/a
237.061	0.6333	T_COLOR_NAME	9	Incongruent	niebieski	blue	zielony	green	hit	n/a
237.6636	n/a	RESPONSE	n/a	n/a	n/a	n/a	n/a	n/a	n/a	blue
237.6944	0.5167	FEEDBACK	n/a	n/a	n/a	n/a	n/a	n/a	n/a	n/a
238.211	1.0167	ITI	n/a	n/a	n/a	n/a	n/a	n/a	n/a	n/a
239.2277	0.5167	FIXCROSS	n/a	n/a	n/a	n/a	n/a	n/a	n/a	n/a
239.7444	0.6833	T_COLOR_NAME	10	Incongruent	zielony	green	niebieski	blue	hit	n/a
240.3969	n/a	RESPONSE	n/a	n/a	n/a	n/a	n/a	n/a	n/a	green
240.4277	0.5167	FEEDBACK	n/a	n/a	n/a	n/a	n/a	n/a	n/a	n/a
240.9444	1.0167	ITI	n/a	n/a	n/a	n/a	n/a	n/a	n/a	n/a
241.9611	0.5167	FIXCROSS	n/a	n/a	n/a	n/a	n/a	n/a	n/a	n/a
242.4778	0.5833	T_COLOR_NAME	11	Neutral	żółty	yellow	Neutral	Neutral	hit	n/a
243.0346	n/a	RESPONSE	n/a	n/a	n/a	n/a	n/a	n/a	n/a	yellow
243.0611	0.5167	FEEDBACK	n/a	n/a	n/a	n/a	n/a	n/a	n/a	n/a
243.5778	1.0167	ITI	n/a	n/a	n/a	n/a	n/a	n/a	n/a	n/a
244.5945	0.5167	FIXCROSS	n/a	n/a	n/a	n/a	n/a	n/a	n/a	n/a
245.1111	0.55	T_COLOR_NAME	12	Neutral	czerwony	red	Neutral	Neutral	hit	n/a
245.6401	n/a	RESPONSE	n/a	n/a	n/a	n/a	n/a	n/a	n/a	red
245.6611	0.5167	FEEDBACK	n/a	n/a	n/a	n/a	n/a	n/a	n/a	n/a
246.1778	1.0333	ITI	n/a	n/a	n/a	n/a	n/a	n/a	n/a	n/a
252.5455	n/a	RESPONSE	n/a	n/a	n/a	n/a	n/a	n/a	n/a	n/a
252.6112	1.0167	ITI	n/a	n/a	n/a	n/a	n/a	n/a	n/a	n/a
253.6279	0.5167	FIXCROSS	n/a	n/a	n/a	n/a	n/a	n/a	n/a	n/a
254.1446	0.7167	COLOR_NAME	1	Neutral	zielony	green	Neutral	Neutral	hit	n/a
254.8314	n/a	RESPONSE	n/a	n/a	n/a	n/a	n/a	n/a	n/a	green
254.8612	1.0167	ITI	n/a	n/a	n/a	n/a	n/a	n/a	n/a	n/a
255.8779	0.5167	FIXCROSS	n/a	n/a	n/a	n/a	n/a	n/a	n/a	n/a
256.3946	0.5667	COLOR_NAME	2	Incongruent	zielony	green	żółty	yellow	hit	n/a
256.9413	n/a	RESPONSE	n/a	n/a	n/a	n/a	n/a	n/a	n/a	green
256.9613	1.0167	ITI	n/a	n/a	n/a	n/a	n/a	n/a	n/a	n/a
257.9779	0.5167	FIXCROSS	n/a	n/a	n/a	n/a	n/a	n/a	n/a	n/a
258.4946	0.7333	COLOR_NAME	3	Neutral	żółty	yellow	Neutral	Neutral	hit	n/a
259.1952	n/a	RESPONSE	n/a	n/a	n/a	n/a	n/a	n/a	n/a	yellow
259.228	1.0167	ITI	n/a	n/a	n/a	n/a	n/a	n/a	n/a	n/a
260.2446	0.5167	FIXCROSS	n/a	n/a	n/a	n/a	n/a	n/a	n/a	n/a
260.7613	0.6834	COLOR_NAME	4	Neutral	zielony	green	Neutral	Neutral	hit	n/a
261.4172	n/a	RESPONSE	n/a	n/a	n/a	n/a	n/a	n/a	n/a	green
261.4446	1.0167	ITI	n/a	n/a	n/a	n/a	n/a	n/a	n/a	n/a
262.4613	0.5167	FIXCROSS	n/a	n/a	n/a	n/a	n/a	n/a	n/a	n/a
262.978	0.7667	COLOR_NAME	5	Incongruent	niebieski	blue	czerwony	red	incorrect	n/a
263.7189	n/a	RESPONSE	n/a	n/a	n/a	n/a	n/a	n/a	n/a	red
263.7447	1.0167	ITI	n/a	n/a	n/a	n/a	n/a	n/a	n/a	n/a
264.7613	0.5167	FIXCROSS	n/a	n/a	n/a	n/a	n/a	n/a	n/a	n/a
265.278	0.8	COLOR_NAME	6	Incongruent	niebieski	blue	zielony	green	hit	n/a
266.0528	n/a	RESPONSE	n/a	n/a	n/a	n/a	n/a	n/a	n/a	blue
266.078	1.0167	ITI	n/a	n/a	n/a	n/a	n/a	n/a	n/a	n/a
267.0947	0.5167	FIXCROSS	n/a	n/a	n/a	n/a	n/a	n/a	n/a	n/a
267.6114	0.9333	COLOR_NAME	7	Neutral	czerwony	red	Neutral	Neutral	hit	n/a
268.5144	n/a	RESPONSE	n/a	n/a	n/a	n/a	n/a	n/a	n/a	red
268.5447	1.0167	ITI	n/a	n/a	n/a	n/a	n/a	n/a	n/a	n/a
269.5614	0.5167	FIXCROSS	n/a	n/a	n/a	n/a	n/a	n/a	n/a	n/a
270.0781	0.65	COLOR_NAME	8	Neutral	żółty	yellow	Neutral	Neutral	hit	n/a
270.7044	n/a	RESPONSE	n/a	n/a	n/a	n/a	n/a	n/a	n/a	yellow
270.7281	1.0167	ITI	n/a	n/a	n/a	n/a	n/a	n/a	n/a	n/a
271.7448	0.5167	FIXCROSS	n/a	n/a	n/a	n/a	n/a	n/a	n/a	n/a
272.2614	0.65	COLOR_NAME	9	Neutral	czerwony	red	Neutral	Neutral	hit	n/a
272.8782	n/a	RESPONSE	n/a	n/a	n/a	n/a	n/a	n/a	n/a	red
272.9114	1.0167	ITI	n/a	n/a	n/a	n/a	n/a	n/a	n/a	n/a
273.9281	0.5166	FIXCROSS	n/a	n/a	n/a	n/a	n/a	n/a	n/a	n/a
274.4448	0.7334	COLOR_NAME	10	Neutral	niebieski	blue	Neutral	Neutral	hit	n/a
275.1482	n/a	RESPONSE	n/a	n/a	n/a	n/a	n/a	n/a	n/a	blue
275.1781	1.0167	ITI	n/a	n/a	n/a	n/a	n/a	n/a	n/a	n/a
276.1948	0.5167	FIXCROSS	n/a	n/a	n/a	n/a	n/a	n/a	n/a	n/a
276.7115	0.5833	COLOR_NAME	11	Incongruent	niebieski	blue	zielony	green	hit	n/a
277.2742	n/a	RESPONSE	n/a	n/a	n/a	n/a	n/a	n/a	n/a	blue
277.2948	1.0167	ITI	n/a	n/a	n/a	n/a	n/a	n/a	n/a	n/a
278.3115	0.5167	FIXCROSS	n/a	n/a	n/a	n/a	n/a	n/a	n/a	n/a
278.8282	0.65	COLOR_NAME	12	Neutral	czerwony	red	Neutral	Neutral	hit	n/a
279.4481	n/a	RESPONSE	n/a	n/a	n/a	n/a	n/a	n/a	n/a	red
279.4782	1.0167	ITI	n/a	n/a	n/a	n/a	n/a	n/a	n/a	n/a
280.4949	0.5167	FIXCROSS	n/a	n/a	n/a	n/a	n/a	n/a	n/a	n/a
281.0115	0.7167	COLOR_NAME	13	Incongruent	żółty	yellow	niebieski	blue	hit	n/a
281.702	n/a	RESPONSE	n/a	n/a	n/a	n/a	n/a	n/a	n/a	yellow
281.7282	1.0167	ITI	n/a	n/a	n/a	n/a	n/a	n/a	n/a	n/a
282.7449	0.5167	FIXCROSS	n/a	n/a	n/a	n/a	n/a	n/a	n/a	n/a
283.2616	0.6667	COLOR_NAME	14	Incongruent	czerwony	red	niebieski	blue	hit	n/a
283.9079	n/a	RESPONSE	n/a	n/a	n/a	n/a	n/a	n/a	n/a	red
283.9282	1.0167	ITI	n/a	n/a	n/a	n/a	n/a	n/a	n/a	n/a
284.9449	0.5167	FIXCROSS	n/a	n/a	n/a	n/a	n/a	n/a	n/a	n/a
285.4616	0.7167	COLOR_NAME	15	Neutral	zielony	green	Neutral	Neutral	hit	n/a
286.1457	n/a	RESPONSE	n/a	n/a	n/a	n/a	n/a	n/a	n/a	green
286.1783	1.0167	ITI	n/a	n/a	n/a	n/a	n/a	n/a	n/a	n/a
287.1949	0.5167	FIXCROSS	n/a	n/a	n/a	n/a	n/a	n/a	n/a	n/a
287.7116	0.6833	COLOR_NAME	16	Neutral	czerwony	red	Neutral	Neutral	hit	n/a
288.3677	n/a	RESPONSE	n/a	n/a	n/a	n/a	n/a	n/a	n/a	red
288.395	1.0167	ITI	n/a	n/a	n/a	n/a	n/a	n/a	n/a	n/a
289.4116	0.5167	FIXCROSS	n/a	n/a	n/a	n/a	n/a	n/a	n/a	n/a
289.9283	0.5167	COLOR_NAME	17	Neutral	czerwony	red	Neutral	Neutral	hit	n/a
290.4137	n/a	RESPONSE	n/a	n/a	n/a	n/a	n/a	n/a	n/a	red
290.445	1.0167	ITI	n/a	n/a	n/a	n/a	n/a	n/a	n/a	n/a
291.4617	0.5167	FIXCROSS	n/a	n/a	n/a	n/a	n/a	n/a	n/a	n/a
291.9783	0.5833	COLOR_NAME	18	Neutral	żółty	yellow	Neutral	Neutral	hit	n/a
292.5397	n/a	RESPONSE	n/a	n/a	n/a	n/a	n/a	n/a	n/a	yellow
292.5617	1.0167	ITI	n/a	n/a	n/a	n/a	n/a	n/a	n/a	n/a
293.5783	0.5167	FIXCROSS	n/a	n/a	n/a	n/a	n/a	n/a	n/a	n/a
294.095	0.65	COLOR_NAME	19	Incongruent	czerwony	red	niebieski	blue	hit	n/a
294.7137	n/a	RESPONSE	n/a	n/a	n/a	n/a	n/a	n/a	n/a	red
294.745	1.0167	ITI	n/a	n/a	n/a	n/a	n/a	n/a	n/a	n/a
295.7617	0.5167	FIXCROSS	n/a	n/a	n/a	n/a	n/a	n/a	n/a	n/a
296.2784	0.6667	COLOR_NAME	20	Incongruent	zielony	green	niebieski	blue	hit	n/a
296.9196	n/a	RESPONSE	n/a	n/a	n/a	n/a	n/a	n/a	n/a	green
296.945	1.0167	ITI	n/a	n/a	n/a	n/a	n/a	n/a	n/a	n/a
297.9617	0.5167	FIXCROSS	n/a	n/a	n/a	n/a	n/a	n/a	n/a	n/a
298.4784	0.6	COLOR_NAME	21	Incongruent	czerwony	red	żółty	yellow	hit	n/a
299.0455	n/a	RESPONSE	n/a	n/a	n/a	n/a	n/a	n/a	n/a	red
299.0784	1.0167	ITI	n/a	n/a	n/a	n/a	n/a	n/a	n/a	n/a
300.0951	0.5167	FIXCROSS	n/a	n/a	n/a	n/a	n/a	n/a	n/a	n/a
300.6118	0.55	COLOR_NAME	22	Incongruent	żółty	yellow	czerwony	red	hit	n/a
301.1397	n/a	RESPONSE	n/a	n/a	n/a	n/a	n/a	n/a	n/a	yellow
301.1618	1.0167	ITI	n/a	n/a	n/a	n/a	n/a	n/a	n/a	n/a
302.1784	0.5167	FIXCROSS	n/a	n/a	n/a	n/a	n/a	n/a	n/a	n/a
302.6951	0.5	COLOR_NAME	23	Neutral	żółty	yellow	Neutral	Neutral	hit	n/a
303.1698	n/a	RESPONSE	n/a	n/a	n/a	n/a	n/a	n/a	n/a	yellow
303.1951	1.0167	ITI	n/a	n/a	n/a	n/a	n/a	n/a	n/a	n/a
304.2118	0.5167	FIXCROSS	n/a	n/a	n/a	n/a	n/a	n/a	n/a	n/a
304.7285	0.55	COLOR_NAME	24	Incongruent	żółty	yellow	zielony	green	hit	n/a
305.2477	n/a	RESPONSE	n/a	n/a	n/a	n/a	n/a	n/a	n/a	yellow
305.2785	1.0167	ITI	n/a	n/a	n/a	n/a	n/a	n/a	n/a	n/a
306.2952	0.5167	FIXCROSS	n/a	n/a	n/a	n/a	n/a	n/a	n/a	n/a
306.8118	0.4667	COLOR_NAME	25	Neutral	żółty	yellow	Neutral	Neutral	hit	n/a
307.2459	n/a	RESPONSE	n/a	n/a	n/a	n/a	n/a	n/a	n/a	yellow
307.2785	1.0167	ITI	n/a	n/a	n/a	n/a	n/a	n/a	n/a	n/a
308.2952	0.5167	FIXCROSS	n/a	n/a	n/a	n/a	n/a	n/a	n/a	n/a
308.8119	0.6333	COLOR_NAME	26	Neutral	niebieski	blue	Neutral	Neutral	incorrect	n/a
309.4198	n/a	RESPONSE	n/a	n/a	n/a	n/a	n/a	n/a	n/a	green
309.4452	1.0167	ITI	n/a	n/a	n/a	n/a	n/a	n/a	n/a	n/a
310.4619	0.5167	FIXCROSS	n/a	n/a	n/a	n/a	n/a	n/a	n/a	n/a
310.9785	1.15	COLOR_NAME	27	Incongruent	żółty	yellow	zielony	green	hit	n/a
312.1053	n/a	RESPONSE	n/a	n/a	n/a	n/a	n/a	n/a	n/a	yellow
312.1286	1.0167	ITI	n/a	n/a	n/a	n/a	n/a	n/a	n/a	n/a
313.1452	0.5167	FIXCROSS	n/a	n/a	n/a	n/a	n/a	n/a	n/a	n/a
313.6619	0.9167	COLOR_NAME	28	Incongruent	żółty	yellow	czerwony	red	hit	n/a
314.5509	n/a	RESPONSE	n/a	n/a	n/a	n/a	n/a	n/a	n/a	yellow
314.5786	1.0167	ITI	n/a	n/a	n/a	n/a	n/a	n/a	n/a	n/a
315.5953	0.5167	FIXCROSS	n/a	n/a	n/a	n/a	n/a	n/a	n/a	n/a
316.1119	0.5833	COLOR_NAME	29	Neutral	żółty	yellow	Neutral	Neutral	hit	n/a
316.6769	n/a	RESPONSE	n/a	n/a	n/a	n/a	n/a	n/a	n/a	yellow
316.6953	1.0167	ITI	n/a	n/a	n/a	n/a	n/a	n/a	n/a	n/a
317.7119	0.5167	FIXCROSS	n/a	n/a	n/a	n/a	n/a	n/a	n/a	n/a
318.2286	0.6333	COLOR_NAME	30	Incongruent	żółty	yellow	zielony	green	hit	n/a
318.8349	n/a	RESPONSE	n/a	n/a	n/a	n/a	n/a	n/a	n/a	yellow
318.862	1.0167	ITI	n/a	n/a	n/a	n/a	n/a	n/a	n/a	n/a
319.8786	0.5167	FIXCROSS	n/a	n/a	n/a	n/a	n/a	n/a	n/a	n/a
320.3953	0.8167	COLOR_NAME	31	Neutral	niebieski	blue	Neutral	Neutral	hit	n/a
321.1848	n/a	RESPONSE	n/a	n/a	n/a	n/a	n/a	n/a	n/a	blue
321.212	1.0167	ITI	n/a	n/a	n/a	n/a	n/a	n/a	n/a	n/a
322.2287	0.5167	FIXCROSS	n/a	n/a	n/a	n/a	n/a	n/a	n/a	n/a
322.7454	0.6833	COLOR_NAME	32	Neutral	niebieski	blue	Neutral	Neutral	hit	n/a
323.4066	n/a	RESPONSE	n/a	n/a	n/a	n/a	n/a	n/a	n/a	blue
323.4287	1.0167	ITI	n/a	n/a	n/a	n/a	n/a	n/a	n/a	n/a
324.4454	0.5167	FIXCROSS	n/a	n/a	n/a	n/a	n/a	n/a	n/a	n/a
324.962	0.6833	COLOR_NAME	33	Neutral	niebieski	blue	Neutral	Neutral	hit	n/a
325.6125	n/a	RESPONSE	n/a	n/a	n/a	n/a	n/a	n/a	n/a	blue
325.6454	1.0167	ITI	n/a	n/a	n/a	n/a	n/a	n/a	n/a	n/a
326.6621	0.5167	FIXCROSS	n/a	n/a	n/a	n/a	n/a	n/a	n/a	n/a
327.1787	0.75	COLOR_NAME	34	Neutral	czerwony	red	Neutral	Neutral	hit	n/a
327.8983	n/a	RESPONSE	n/a	n/a	n/a	n/a	n/a	n/a	n/a	red
327.9287	1.0167	ITI	n/a	n/a	n/a	n/a	n/a	n/a	n/a	n/a
328.9454	0.5167	FIXCROSS	n/a	n/a	n/a	n/a	n/a	n/a	n/a	n/a
329.4621	0.7	COLOR_NAME	35	Neutral	zielony	green	Neutral	Neutral	hit	n/a
330.1363	n/a	RESPONSE	n/a	n/a	n/a	n/a	n/a	n/a	n/a	green
330.1621	1.0167	ITI	n/a	n/a	n/a	n/a	n/a	n/a	n/a	n/a
331.1788	0.5167	FIXCROSS	n/a	n/a	n/a	n/a	n/a	n/a	n/a	n/a
331.6954	0.8	COLOR_NAME	36	Neutral	niebieski	blue	Neutral	Neutral	hit	n/a
332.47	n/a	RESPONSE	n/a	n/a	n/a	n/a	n/a	n/a	n/a	blue
332.4954	1.0167	ITI	n/a	n/a	n/a	n/a	n/a	n/a	n/a	n/a
333.5121	0.5167	FIXCROSS	n/a	n/a	n/a	n/a	n/a	n/a	n/a	n/a
334.0288	0.8833	COLOR_NAME	37	Incongruent	zielony	green	czerwony	red	hit	n/a
334.8838	n/a	RESPONSE	n/a	n/a	n/a	n/a	n/a	n/a	n/a	green
334.9121	1.0167	ITI	n/a	n/a	n/a	n/a	n/a	n/a	n/a	n/a
335.9288	0.5167	FIXCROSS	n/a	n/a	n/a	n/a	n/a	n/a	n/a	n/a
336.4455	1.05	COLOR_NAME	38	Incongruent	żółty	yellow	czerwony	red	hit	n/a
337.4734	n/a	RESPONSE	n/a	n/a	n/a	n/a	n/a	n/a	n/a	yellow
337.4955	1.0167	ITI	n/a	n/a	n/a	n/a	n/a	n/a	n/a	n/a
338.5122	0.5167	FIXCROSS	n/a	n/a	n/a	n/a	n/a	n/a	n/a	n/a
339.0289	0.7667	COLOR_NAME	39	Incongruent	czerwony	red	żółty	yellow	hit	n/a
339.7751	n/a	RESPONSE	n/a	n/a	n/a	n/a	n/a	n/a	n/a	red
339.7955	1.0167	ITI	n/a	n/a	n/a	n/a	n/a	n/a	n/a	n/a
340.8122	0.5167	FIXCROSS	n/a	n/a	n/a	n/a	n/a	n/a	n/a	n/a
341.3289	0.7333	COLOR_NAME	40	Incongruent	czerwony	red	zielony	green	hit	n/a
342.045	n/a	RESPONSE	n/a	n/a	n/a	n/a	n/a	n/a	n/a	red
342.0622	1.0167	ITI	n/a	n/a	n/a	n/a	n/a	n/a	n/a	n/a
343.0789	0.5167	FIXCROSS	n/a	n/a	n/a	n/a	n/a	n/a	n/a	n/a
343.5956	0.8	COLOR_NAME	41	Neutral	żółty	yellow	Neutral	Neutral	hit	n/a
344.3628	n/a	RESPONSE	n/a	n/a	n/a	n/a	n/a	n/a	n/a	yellow
344.3956	1.0167	ITI	n/a	n/a	n/a	n/a	n/a	n/a	n/a	n/a
345.4123	0.5167	FIXCROSS	n/a	n/a	n/a	n/a	n/a	n/a	n/a	n/a
345.9289	0.6833	COLOR_NAME	42	Neutral	czerwony	red	Neutral	Neutral	hit	n/a
346.5847	n/a	RESPONSE	n/a	n/a	n/a	n/a	n/a	n/a	n/a	red
346.6123	1.0167	ITI	n/a	n/a	n/a	n/a	n/a	n/a	n/a	n/a
347.629	0.5167	FIXCROSS	n/a	n/a	n/a	n/a	n/a	n/a	n/a	n/a
348.1456	0.8	COLOR_NAME	43	Incongruent	zielony	green	czerwony	red	hit	n/a
348.9185	n/a	RESPONSE	n/a	n/a	n/a	n/a	n/a	n/a	n/a	green
348.9456	1.0167	ITI	n/a	n/a	n/a	n/a	n/a	n/a	n/a	n/a
349.9623	0.5167	FIXCROSS	n/a	n/a	n/a	n/a	n/a	n/a	n/a	n/a
350.479	0.7667	COLOR_NAME	44	Incongruent	niebieski	blue	zielony	green	hit	n/a
351.2203	n/a	RESPONSE	n/a	n/a	n/a	n/a	n/a	n/a	n/a	blue
351.2457	1.0167	ITI	n/a	n/a	n/a	n/a	n/a	n/a	n/a	n/a
352.2624	0.5167	FIXCROSS	n/a	n/a	n/a	n/a	n/a	n/a	n/a	n/a
352.779	0.6667	COLOR_NAME	45	Incongruent	niebieski	blue	czerwony	red	hit	n/a
353.4263	n/a	RESPONSE	n/a	n/a	n/a	n/a	n/a	n/a	n/a	blue
353.4457	1.0167	ITI	n/a	n/a	n/a	n/a	n/a	n/a	n/a	n/a
354.4624	0.5167	FIXCROSS	n/a	n/a	n/a	n/a	n/a	n/a	n/a	n/a
354.979	0.8667	COLOR_NAME	46	Neutral	zielony	green	Neutral	Neutral	hit	n/a
355.824	n/a	RESPONSE	n/a	n/a	n/a	n/a	n/a	n/a	n/a	green
355.8457	1.0167	ITI	n/a	n/a	n/a	n/a	n/a	n/a	n/a	n/a
356.8624	0.5167	FIXCROSS	n/a	n/a	n/a	n/a	n/a	n/a	n/a	n/a
357.3791	0.7	COLOR_NAME	47	Incongruent	zielony	green	żółty	yellow	hit	n/a
358.0459	n/a	RESPONSE	n/a	n/a	n/a	n/a	n/a	n/a	n/a	green
358.0791	1.0167	ITI	n/a	n/a	n/a	n/a	n/a	n/a	n/a	n/a
359.0958	0.5167	FIXCROSS	n/a	n/a	n/a	n/a	n/a	n/a	n/a	n/a
359.6124	0.7167	COLOR_NAME	48	Incongruent	żółty	yellow	niebieski	blue	hit	n/a
360.2997	n/a	RESPONSE	n/a	n/a	n/a	n/a	n/a	n/a	n/a	yellow
360.3291	1.0167	ITI	n/a	n/a	n/a	n/a	n/a	n/a	n/a	n/a
361.3458	0.5167	FIXCROSS	n/a	n/a	n/a	n/a	n/a	n/a	n/a	n/a
361.8624	0.8333	COLOR_NAME	49	Incongruent	niebieski	blue	czerwony	red	hit	n/a
362.6656	n/a	RESPONSE	n/a	n/a	n/a	n/a	n/a	n/a	n/a	blue
362.6958	1.0167	ITI	n/a	n/a	n/a	n/a	n/a	n/a	n/a	n/a
363.7125	0.5167	FIXCROSS	n/a	n/a	n/a	n/a	n/a	n/a	n/a	n/a
364.2292	0.85	COLOR_NAME	50	Neutral	żółty	yellow	Neutral	Neutral	hit	n/a
365.0473	n/a	RESPONSE	n/a	n/a	n/a	n/a	n/a	n/a	n/a	yellow
365.0792	1.0167	ITI	n/a	n/a	n/a	n/a	n/a	n/a	n/a	n/a
365.1592	n/a	RESPONSE	n/a	n/a	n/a	n/a	n/a	n/a	n/a	yellow
366.0958	0.5167	FIXCROSS	n/a	n/a	n/a	n/a	n/a	n/a	n/a	n/a
366.6125	0.6167	COLOR_NAME	51	Neutral	zielony	green	Neutral	Neutral	hit	n/a
367.2052	n/a	RESPONSE	n/a	n/a	n/a	n/a	n/a	n/a	n/a	green
367.2292	1.0167	ITI	n/a	n/a	n/a	n/a	n/a	n/a	n/a	n/a
368.2459	0.5167	FIXCROSS	n/a	n/a	n/a	n/a	n/a	n/a	n/a	n/a
368.7625	0.65	COLOR_NAME	52	Incongruent	czerwony	red	niebieski	blue	hit	n/a
369.3791	n/a	RESPONSE	n/a	n/a	n/a	n/a	n/a	n/a	n/a	red
369.4125	1.0167	ITI	n/a	n/a	n/a	n/a	n/a	n/a	n/a	n/a
370.4292	0.5167	FIXCROSS	n/a	n/a	n/a	n/a	n/a	n/a	n/a	n/a
370.9459	0.8167	COLOR_NAME	53	Incongruent	niebieski	blue	żółty	yellow	hit	n/a
371.729	n/a	RESPONSE	n/a	n/a	n/a	n/a	n/a	n/a	n/a	blue
371.7626	1.0167	ITI	n/a	n/a	n/a	n/a	n/a	n/a	n/a	n/a
372.7792	0.5167	FIXCROSS	n/a	n/a	n/a	n/a	n/a	n/a	n/a	n/a
373.2959	0.7167	COLOR_NAME	54	Neutral	niebieski	blue	Neutral	Neutral	hit	n/a
373.9828	n/a	RESPONSE	n/a	n/a	n/a	n/a	n/a	n/a	n/a	blue
374.0126	1.0167	ITI	n/a	n/a	n/a	n/a	n/a	n/a	n/a	n/a
375.0293	0.5167	FIXCROSS	n/a	n/a	n/a	n/a	n/a	n/a	n/a	n/a
375.5459	0.8167	COLOR_NAME	55	Incongruent	niebieski	blue	żółty	yellow	hit	n/a
376.3326	n/a	RESPONSE	n/a	n/a	n/a	n/a	n/a	n/a	n/a	blue
376.3626	1.0167	ITI	n/a	n/a	n/a	n/a	n/a	n/a	n/a	n/a
377.3793	0.5167	FIXCROSS	n/a	n/a	n/a	n/a	n/a	n/a	n/a	n/a
377.896	0.7167	COLOR_NAME	56	Neutral	żółty	yellow	Neutral	Neutral	hit	n/a
378.5864	n/a	RESPONSE	n/a	n/a	n/a	n/a	n/a	n/a	n/a	yellow
378.6126	1.0167	ITI	n/a	n/a	n/a	n/a	n/a	n/a	n/a	n/a
379.6293	0.5167	FIXCROSS	n/a	n/a	n/a	n/a	n/a	n/a	n/a	n/a
380.146	0.75	COLOR_NAME	57	Neutral	niebieski	blue	Neutral	Neutral	hit	n/a
380.8723	n/a	RESPONSE	n/a	n/a	n/a	n/a	n/a	n/a	n/a	blue
380.896	1.0167	ITI	n/a	n/a	n/a	n/a	n/a	n/a	n/a	n/a
381.9127	0.5167	FIXCROSS	n/a	n/a	n/a	n/a	n/a	n/a	n/a	n/a
382.4293	0.7167	COLOR_NAME	58	Incongruent	zielony	green	żółty	yellow	hit	n/a
383.1263	n/a	RESPONSE	n/a	n/a	n/a	n/a	n/a	n/a	n/a	green
383.146	1.0167	ITI	n/a	n/a	n/a	n/a	n/a	n/a	n/a	n/a
384.1627	0.5167	FIXCROSS	n/a	n/a	n/a	n/a	n/a	n/a	n/a	n/a
384.6794	0.8	COLOR_NAME	59	Neutral	czerwony	red	Neutral	Neutral	hit	n/a
385.46	n/a	RESPONSE	n/a	n/a	n/a	n/a	n/a	n/a	n/a	red
385.4794	1.0167	ITI	n/a	n/a	n/a	n/a	n/a	n/a	n/a	n/a
386.4961	0.5167	FIXCROSS	n/a	n/a	n/a	n/a	n/a	n/a	n/a	n/a
387.0127	0.7167	COLOR_NAME	60	Incongruent	czerwony	red	zielony	green	hit	n/a
387.6979	n/a	RESPONSE	n/a	n/a	n/a	n/a	n/a	n/a	n/a	red
387.7294	1.0167	ITI	n/a	n/a	n/a	n/a	n/a	n/a	n/a	n/a
388.7461	0.5167	FIXCROSS	n/a	n/a	n/a	n/a	n/a	n/a	n/a	n/a
389.2628	1.5333	COLOR_NAME	61	Incongruent	niebieski	blue	żółty	yellow	hit	n/a
390.767	n/a	RESPONSE	n/a	n/a	n/a	n/a	n/a	n/a	n/a	blue
390.7961	1.0167	ITI	n/a	n/a	n/a	n/a	n/a	n/a	n/a	n/a
391.8128	0.5167	FIXCROSS	n/a	n/a	n/a	n/a	n/a	n/a	n/a	n/a
392.3295	0.9	COLOR_NAME	62	Incongruent	czerwony	red	żółty	yellow	hit	n/a
393.1967	n/a	RESPONSE	n/a	n/a	n/a	n/a	n/a	n/a	n/a	red
393.2295	1.0167	ITI	n/a	n/a	n/a	n/a	n/a	n/a	n/a	n/a
394.2462	0.5167	FIXCROSS	n/a	n/a	n/a	n/a	n/a	n/a	n/a	n/a
394.7628	0.9	COLOR_NAME	63	Incongruent	zielony	green	niebieski	blue	hit	n/a
395.6425	n/a	RESPONSE	n/a	n/a	n/a	n/a	n/a	n/a	n/a	green
395.6628	1.0167	ITI	n/a	n/a	n/a	n/a	n/a	n/a	n/a	n/a
396.6795	0.5167	FIXCROSS	n/a	n/a	n/a	n/a	n/a	n/a	n/a	n/a
397.1962	0.85	COLOR_NAME	64	Neutral	niebieski	blue	Neutral	Neutral	hit	n/a
398.0242	n/a	RESPONSE	n/a	n/a	n/a	n/a	n/a	n/a	n/a	blue
398.0462	1.0167	ITI	n/a	n/a	n/a	n/a	n/a	n/a	n/a	n/a
399.0629	0.5167	FIXCROSS	n/a	n/a	n/a	n/a	n/a	n/a	n/a	n/a
399.5795	0.8667	COLOR_NAME	65	Incongruent	żółty	yellow	niebieski	blue	hit	n/a
400.4218	n/a	RESPONSE	n/a	n/a	n/a	n/a	n/a	n/a	n/a	yellow
400.4462	1.0167	ITI	n/a	n/a	n/a	n/a	n/a	n/a	n/a	n/a
401.4629	0.5167	FIXCROSS	n/a	n/a	n/a	n/a	n/a	n/a	n/a	n/a
401.9796	1.0	COLOR_NAME	66	Incongruent	zielony	green	niebieski	blue	hit	n/a
402.9475	n/a	RESPONSE	n/a	n/a	n/a	n/a	n/a	n/a	n/a	green
402.9796	1.0167	ITI	n/a	n/a	n/a	n/a	n/a	n/a	n/a	n/a
403.9963	0.5167	FIXCROSS	n/a	n/a	n/a	n/a	n/a	n/a	n/a	n/a
404.5129	0.75	COLOR_NAME	67	Incongruent	czerwony	red	zielony	green	hit	n/a
405.2334	n/a	RESPONSE	n/a	n/a	n/a	n/a	n/a	n/a	n/a	red
405.2629	1.0167	ITI	n/a	n/a	n/a	n/a	n/a	n/a	n/a	n/a
406.2796	0.5167	FIXCROSS	n/a	n/a	n/a	n/a	n/a	n/a	n/a	n/a
406.7963	1.2167	COLOR_NAME	68	Incongruent	zielony	green	czerwony	red	hit	n/a
407.9827	n/a	RESPONSE	n/a	n/a	n/a	n/a	n/a	n/a	n/a	green
408.013	1.0167	ITI	n/a	n/a	n/a	n/a	n/a	n/a	n/a	n/a
409.0297	0.5167	FIXCROSS	n/a	n/a	n/a	n/a	n/a	n/a	n/a	n/a
409.5463	0.65	COLOR_NAME	69	Neutral	zielony	green	Neutral	Neutral	hit	n/a
410.1726	n/a	RESPONSE	n/a	n/a	n/a	n/a	n/a	n/a	n/a	green
410.1963	1.0167	ITI	n/a	n/a	n/a	n/a	n/a	n/a	n/a	n/a
411.213	0.5167	FIXCROSS	n/a	n/a	n/a	n/a	n/a	n/a	n/a	n/a
411.7297	0.7667	COLOR_NAME	70	Neutral	czerwony	red	Neutral	Neutral	hit	n/a
412.4745	n/a	RESPONSE	n/a	n/a	n/a	n/a	n/a	n/a	n/a	red
412.4964	1.0167	ITI	n/a	n/a	n/a	n/a	n/a	n/a	n/a	n/a
413.513	0.5167	FIXCROSS	n/a	n/a	n/a	n/a	n/a	n/a	n/a	n/a
414.0297	0.7333	COLOR_NAME	71	Neutral	zielony	green	Neutral	Neutral	hit	n/a
414.7443	n/a	RESPONSE	n/a	n/a	n/a	n/a	n/a	n/a	n/a	green
414.7631	1.0167	ITI	n/a	n/a	n/a	n/a	n/a	n/a	n/a	n/a
415.7797	0.5167	FIXCROSS	n/a	n/a	n/a	n/a	n/a	n/a	n/a	n/a
416.2964	0.8333	COLOR_NAME	72	Neutral	zielony	green	Neutral	Neutral	hit	n/a
417.1101	n/a	RESPONSE	n/a	n/a	n/a	n/a	n/a	n/a	n/a	green
417.1297	1.0333	ITI	n/a	n/a	n/a	n/a	n/a	n/a	n/a	n/a
420.7707	n/a	RESPONSE	n/a	n/a	n/a	n/a	n/a	n/a	n/a	n/a
