onset	duration	trial_type	melody_number	melody_part	key	sound	action
0.0	14.086	CUE_START	n/a	n/a	n/a	n/a	n/a
14.086	7.76	FIXCROSS	n/a	n/a	n/a	n/a	n/a
21.846	6.316	CUE_LISTEN	M4	1	n/a	n/a	n/a
28.161	7.758	FIXCROSS	n/a	n/a	n/a	n/a	n/a
35.92	6.325	CUE_PLAYBACK_BOTH_HANDS	M4	1	n/a	n/a	n/a
39.483	n/a	RESPONSE	M4	1	09	A3	press
39.493	n/a	RESPONSE	M4	1	12	C4	press
39.524	n/a	RESPONSE	M4	1	05	F3	press
40.276	n/a	RESPONSE	M4	1	16	E4	press
40.676	n/a	RESPONSE	M4	1	16	E4	release
40.75	n/a	RESPONSE	M4	1	09	A3	release
40.76	n/a	RESPONSE	M4	1	12	C4	release
40.89	n/a	RESPONSE	M4	1	05	F3	release
41.212	n/a	RESPONSE	M4	1	12	C4	press
41.224	n/a	RESPONSE	M4	1	09	A3	press
41.244	n/a	RESPONSE	M4	1	05	F3	press
41.855	n/a	RESPONSE	M4	1	17	F4	press
42.245	7.758	FIXCROSS	n/a	n/a	n/a	n/a	n/a
42.626	n/a	RESPONSE	M4	1	21	A4	press
42.678	n/a	RESPONSE	M4	1	17	F4	release
43.119	n/a	RESPONSE	M4	1	19	G4	press
43.18	n/a	RESPONSE	M4	1	21	A4	release
43.683	n/a	RESPONSE	M4	1	17	F4	press
43.843	n/a	RESPONSE	M4	1	19	G4	release
44.18	n/a	RESPONSE	M4	1	16	E4	press
44.263	n/a	RESPONSE	M4	1	17	F4	release
44.652	n/a	RESPONSE	M4	1	17	F4	press
44.758	n/a	RESPONSE	M4	1	16	E4	release
45.235	n/a	RESPONSE	M4	1	17	F4	release
45.245	n/a	RESPONSE	M4	1	09	A3	release
45.304	n/a	RESPONSE	M4	1	05	F3	release
45.316	n/a	RESPONSE	M4	1	12	C4	release
50.003	6.317	CUE_LISTEN	M4	2	n/a	n/a	n/a
56.32	7.758	FIXCROSS	n/a	n/a	n/a	n/a	n/a
64.078	6.316	CUE_PLAYBACK_BOTH_HANDS	M4	2	n/a	n/a	n/a
64.966	n/a	RESPONSE	M4	2	09	A3	press
64.97	n/a	RESPONSE	M4	2	12	C4	press
64.979	n/a	RESPONSE	M4	2	05	F3	press
65.623	n/a	RESPONSE	M4	2	17	F4	press
66.472	n/a	RESPONSE	M4	2	21	A4	press
66.622	n/a	RESPONSE	M4	2	17	F4	release
66.98	n/a	RESPONSE	M4	2	21	A4	release
67.436	n/a	RESPONSE	M4	2	23	B4	press
67.896	n/a	RESPONSE	M4	2	23	B4	release
68.135	n/a	RESPONSE	M4	2	24	C5	press
68.936	n/a	RESPONSE	M4	2	24	C5	release
69.258	n/a	RESPONSE	M4	2	05	F3	release
69.389	n/a	RESPONSE	M4	2	12	C4	release
70.394	7.759	FIXCROSS	n/a	n/a	n/a	n/a	n/a
70.45	n/a	RESPONSE	M4	2	05	F3	press
70.453	n/a	RESPONSE	M4	2	22	A#4	press
70.463	n/a	RESPONSE	M4	2	12	C4	press
70.964	n/a	RESPONSE	M4	2	19	G4	press
71.696	n/a	RESPONSE	M4	2	19	G4	release
71.768	n/a	RESPONSE	M4	2	22	A#4	release
72.3	n/a	RESPONSE	M4	2	17	F4	press
72.589	n/a	RESPONSE	M4	2	17	F4	release
72.68	n/a	RESPONSE	M4	2	05	F3	release
72.702	n/a	RESPONSE	M4	2	09	A3	release
72.785	n/a	RESPONSE	M4	2	12	C4	release
78.153	6.325	CUE_LISTEN	M1	1	n/a	n/a	n/a
84.478	7.758	FIXCROSS	n/a	n/a	n/a	n/a	n/a
92.236	6.317	CUE_PLAYBACK_RIGHT_HAND	M1	1	n/a	n/a	n/a
92.929	n/a	RESPONSE	M1	1	19	G4	press
93.46	n/a	RESPONSE	M1	1	16	E4	press
93.512	n/a	RESPONSE	M1	1	19	G4	release
93.844	n/a	RESPONSE	M1	1	16	E4	release
93.946	n/a	RESPONSE	M1	1	16	E4	press
94.438	n/a	RESPONSE	M1	1	17	F4	press
94.475	n/a	RESPONSE	M1	1	16	E4	release
94.968	n/a	RESPONSE	M1	1	14	D4	press
95.003	n/a	RESPONSE	M1	1	17	F4	release
95.392	n/a	RESPONSE	M1	1	14	D4	release
95.483	n/a	RESPONSE	M1	1	14	D4	press
95.795	n/a	RESPONSE	M1	1	14	D4	release
95.994	n/a	RESPONSE	M1	1	12	C4	press
96.3	n/a	RESPONSE	M1	1	16	E4	press
96.436	n/a	RESPONSE	M1	1	12	C4	release
96.534	n/a	RESPONSE	M1	1	19	G4	press
96.626	n/a	RESPONSE	M1	1	16	E4	release
97.849	n/a	RESPONSE	M1	1	19	G4	release
98.553	7.758	FIXCROSS	n/a	n/a	n/a	n/a	n/a
106.311	6.317	CUE_LISTEN	M1	2	n/a	n/a	n/a
112.628	7.758	FIXCROSS	n/a	n/a	n/a	n/a	n/a
120.386	6.325	CUE_PLAYBACK_RIGHT_HAND	M1	2	n/a	n/a	n/a
120.893	n/a	RESPONSE	M1	2	19	G4	press
121.424	n/a	RESPONSE	M1	2	16	E4	press
121.515	n/a	RESPONSE	M1	2	19	G4	release
121.806	n/a	RESPONSE	M1	2	16	E4	release
121.958	n/a	RESPONSE	M1	2	16	E4	press
122.499	n/a	RESPONSE	M1	2	17	F4	press
122.55	n/a	RESPONSE	M1	2	16	E4	release
123.082	n/a	RESPONSE	M1	2	14	D4	press
123.143	n/a	RESPONSE	M1	2	17	F4	release
123.516	n/a	RESPONSE	M1	2	14	D4	release
123.675	n/a	RESPONSE	M1	2	14	D4	press
124.173	n/a	RESPONSE	M1	2	14	D4	release
124.243	n/a	RESPONSE	M1	2	12	C4	press
124.569	n/a	RESPONSE	M1	2	16	E4	press
124.72	n/a	RESPONSE	M1	2	12	C4	release
124.865	n/a	RESPONSE	M1	2	12	C4	press
124.926	n/a	RESPONSE	M1	2	16	E4	release
125.914	n/a	RESPONSE	M1	2	12	C4	release
126.711	7.758	FIXCROSS	n/a	n/a	n/a	n/a	n/a
134.47	6.317	CUE_LISTEN	M5	1	n/a	n/a	n/a
140.786	7.758	FIXCROSS	n/a	n/a	n/a	n/a	n/a
148.545	6.317	CUE_PLAYBACK_BOTH_HANDS	M5	1	n/a	n/a	n/a
149.157	n/a	RESPONSE	M5	1	21	A4	press
149.16	n/a	RESPONSE	M5	1	05	F3	press
149.489	n/a	RESPONSE	M5	1	21	A4	release
149.62	n/a	RESPONSE	M5	1	21	A4	press
149.994	n/a	RESPONSE	M5	1	21	A4	release
150.003	n/a	RESPONSE	M5	1	09	A3	press
150.224	n/a	RESPONSE	M5	1	05	F3	release
150.506	n/a	RESPONSE	M5	1	04	E3	press
150.528	n/a	RESPONSE	M5	1	21	A4	press
150.629	n/a	RESPONSE	M5	1	09	A3	release
150.939	n/a	RESPONSE	M5	1	21	A4	release
150.98	n/a	RESPONSE	M5	1	09	A3	press
151.152	n/a	RESPONSE	M5	1	04	E3	release
151.475	n/a	RESPONSE	M5	1	02	D3	press
151.494	n/a	RESPONSE	M5	1	21	A4	press
151.595	n/a	RESPONSE	M5	1	09	A3	release
151.966	n/a	RESPONSE	M5	1	09	A3	press
152.02	n/a	RESPONSE	M5	1	21	A4	release
152.089	n/a	RESPONSE	M5	1	02	D3	release
152.36	n/a	RESPONSE	M5	1	00	C3	press
152.562	n/a	RESPONSE	M5	1	21	A4	press
152.605	n/a	RESPONSE	M5	1	09	A3	release
152.935	n/a	RESPONSE	M5	1	09	A3	press
152.985	n/a	RESPONSE	M5	1	21	A4	release
153.096	n/a	RESPONSE	M5	1	00	C3	release
153.418	n/a	RESPONSE	M5	1	09	A3	release
153.972	n/a	RESPONSE	M5	1	05	F3	press
153.993	n/a	RESPONSE	M5	1	21	A4	press
154.265	n/a	RESPONSE	M5	1	21	A4	release
154.56	n/a	RESPONSE	M5	1	09	A3	press
154.832	n/a	RESPONSE	M5	1	05	F3	release
154.862	7.758	FIXCROSS	n/a	n/a	n/a	n/a	n/a
155.226	n/a	RESPONSE	M5	1	21	A4	press
155.245	n/a	RESPONSE	M5	1	04	E3	press
155.323	n/a	RESPONSE	M5	1	21	A4	release
155.379	n/a	RESPONSE	M5	1	09	A3	release
155.487	n/a	RESPONSE	M5	1	04	E3	release
162.62	6.325	CUE_LISTEN	M5	2	n/a	n/a	n/a
168.945	7.758	FIXCROSS	n/a	n/a	n/a	n/a	n/a
176.703	6.317	CUE_PLAYBACK_BOTH_HANDS	M5	2	n/a	n/a	n/a
177.629	n/a	RESPONSE	M5	2	05	F3	press
177.72	n/a	RESPONSE	M5	2	22	A#4	press
177.932	n/a	RESPONSE	M5	2	22	A#4	release
178.155	n/a	RESPONSE	M5	2	08	G#3	press
178.186	n/a	RESPONSE	M5	2	22	A#4	press
178.295	n/a	RESPONSE	M5	2	05	F3	release
178.426	n/a	RESPONSE	M5	2	22	A#4	release
178.688	n/a	RESPONSE	M5	2	02	D3	press
178.69	n/a	RESPONSE	M5	2	22	A#4	press
178.78	n/a	RESPONSE	M5	2	08	G#3	release
178.942	n/a	RESPONSE	M5	2	22	A#4	release
179.193	n/a	RESPONSE	M5	2	08	G#3	press
179.195	n/a	RESPONSE	M5	2	22	A#4	press
179.247	n/a	RESPONSE	M5	2	02	D3	release
179.41	n/a	RESPONSE	M5	2	22	A#4	release
179.7	n/a	RESPONSE	M5	2	22	A#4	press
179.703	n/a	RESPONSE	M5	2	03	D#3	press
179.732	n/a	RESPONSE	M5	2	08	G#3	release
179.843	n/a	RESPONSE	M5	2	04	E3	press
179.874	n/a	RESPONSE	M5	2	03	D#3	release
180.295	n/a	RESPONSE	M5	2	21	A4	press
180.368	n/a	RESPONSE	M5	2	07	G3	press
180.37	n/a	RESPONSE	M5	2	09	A3	press
180.399	n/a	RESPONSE	M5	2	22	A#4	release
180.44	n/a	RESPONSE	M5	2	04	E3	release
180.582	n/a	RESPONSE	M5	2	09	A3	release
180.595	n/a	RESPONSE	M5	2	21	A4	release
181.034	n/a	RESPONSE	M5	2	07	G3	release
181.255	n/a	RESPONSE	M5	2	00	C3	press
181.347	n/a	RESPONSE	M5	2	21	A4	press
181.718	n/a	RESPONSE	M5	2	21	A4	release
181.959	n/a	RESPONSE	M5	2	07	G3	press
181.98	n/a	RESPONSE	M5	2	00	C3	release
181.994	n/a	RESPONSE	M5	2	21	A4	press
183.02	7.758	FIXCROSS	n/a	n/a	n/a	n/a	n/a
183.453	n/a	RESPONSE	M5	2	07	G3	release
183.575	n/a	RESPONSE	M5	2	05	F3	press
184.064	n/a	RESPONSE	M5	2	21	A4	release
184.075	n/a	RESPONSE	M5	2	05	F3	release
190.778	6.325	CUE_LISTEN	M5	1	n/a	n/a	n/a
197.103	7.758	FIXCROSS	n/a	n/a	n/a	n/a	n/a
204.862	6.317	CUE_PLAYBACK_BOTH_HANDS	M5	1	n/a	n/a	n/a
205.445	n/a	RESPONSE	M5	1	05	F3	press
205.457	n/a	RESPONSE	M5	1	21	A4	press
205.75	n/a	RESPONSE	M5	1	21	A4	release
205.932	n/a	RESPONSE	M5	1	21	A4	press
205.955	n/a	RESPONSE	M5	1	09	A3	press
205.993	n/a	RESPONSE	M5	1	07	G3	press
206.103	n/a	RESPONSE	M5	1	05	F3	release
206.17	n/a	RESPONSE	M5	1	21	A4	release
206.204	n/a	RESPONSE	M5	1	07	G3	release
206.448	n/a	RESPONSE	M5	1	05	F3	press
206.497	n/a	RESPONSE	M5	1	21	A4	press
206.499	n/a	RESPONSE	M5	1	09	A3	release
206.997	n/a	RESPONSE	M5	1	21	A4	release
207.393	n/a	RESPONSE	M5	1	05	F3	press
207.423	n/a	RESPONSE	M5	1	21	A4	press
207.593	n/a	RESPONSE	M5	1	21	A4	release
207.842	n/a	RESPONSE	M5	1	21	A4	press
207.853	n/a	RESPONSE	M5	1	09	A3	press
208.015	n/a	RESPONSE	M5	1	05	F3	release
208.045	n/a	RESPONSE	M5	1	21	A4	release
208.269	n/a	RESPONSE	M5	1	04	E3	press
208.29	n/a	RESPONSE	M5	1	21	A4	press
208.372	n/a	RESPONSE	M5	1	09	A3	release
208.693	n/a	RESPONSE	M5	1	21	A4	release
208.714	n/a	RESPONSE	M5	1	09	A3	press
208.843	n/a	RESPONSE	M5	1	04	E3	release
209.154	n/a	RESPONSE	M5	1	02	D3	press
209.175	n/a	RESPONSE	M5	1	21	A4	press
209.246	n/a	RESPONSE	M5	1	09	A3	release
209.388	n/a	RESPONSE	M5	1	21	A4	release
209.549	n/a	RESPONSE	M5	1	21	A4	press
209.612	n/a	RESPONSE	M5	1	09	A3	press
209.752	n/a	RESPONSE	M5	1	21	A4	release
209.823	n/a	RESPONSE	M5	1	02	D3	release
210.064	n/a	RESPONSE	M5	1	21	A4	press
210.075	n/a	RESPONSE	M5	1	00	C3	press
210.147	n/a	RESPONSE	M5	1	09	A3	release
210.49	n/a	RESPONSE	M5	1	09	A3	press
210.549	n/a	RESPONSE	M5	1	00	C3	release
210.57	n/a	RESPONSE	M5	1	21	A4	release
210.912	n/a	RESPONSE	M5	1	05	F3	press
210.933	n/a	RESPONSE	M5	1	21	A4	press
210.945	n/a	RESPONSE	M5	1	09	A3	release
211.178	7.758	FIXCROSS	n/a	n/a	n/a	n/a	n/a
211.365	n/a	RESPONSE	M5	1	24	C5	press
211.397	n/a	RESPONSE	M5	1	09	A3	press
211.438	n/a	RESPONSE	M5	1	21	A4	release
211.499	n/a	RESPONSE	M5	1	05	F3	release
211.972	n/a	RESPONSE	M5	1	09	A3	release
212.072	n/a	RESPONSE	M5	1	24	C5	release
218.937	6.317	CUE_LISTEN	M5	2	n/a	n/a	n/a
225.253	14.075	FIXCROSS	n/a	n/a	n/a	n/a	n/a
233.012	n/a	CUE_PLAYBACK_BOTH_HANDS	M4	2	n/a	n/a	n/a
233.58	n/a	RESPONSE	M5	2	05	F3	press
233.622	n/a	RESPONSE	M5	2	22	A#4	press
233.833	n/a	RESPONSE	M5	2	22	A#4	release
234.11	n/a	RESPONSE	M5	2	08	G#3	press
234.113	n/a	RESPONSE	M5	2	22	A#4	press
234.252	n/a	RESPONSE	M5	2	05	F3	release
234.313	n/a	RESPONSE	M5	2	22	A#4	release
234.599	n/a	RESPONSE	M5	2	02	D3	press
234.614	n/a	RESPONSE	M5	2	22	A#4	press
234.682	n/a	RESPONSE	M5	2	08	G#3	release
234.835	n/a	RESPONSE	M5	2	22	A#4	release
235.105	n/a	RESPONSE	M5	2	08	G#3	press
235.137	n/a	RESPONSE	M5	2	22	A#4	press
235.17	n/a	RESPONSE	M5	2	02	D3	release
235.748	n/a	RESPONSE	M5	2	08	G#3	release
235.768	n/a	RESPONSE	M5	2	04	E3	press
235.783	n/a	RESPONSE	M5	2	05	F3	press
235.803	n/a	RESPONSE	M5	2	21	A4	press
235.824	n/a	RESPONSE	M5	2	19	G4	press
235.888	n/a	RESPONSE	M5	2	22	A#4	release
235.967	n/a	RESPONSE	M5	2	19	G4	release
235.973	n/a	RESPONSE	M5	2	04	E3	release
236.639	n/a	RESPONSE	M5	2	05	F3	release
236.762	n/a	RESPONSE	M5	2	21	A4	release
236.96	n/a	RESPONSE	M5	2	00	C3	press
236.997	n/a	RESPONSE	M5	2	21	A4	press
237.419	n/a	RESPONSE	M5	2	21	A4	release
237.635	n/a	RESPONSE	M5	2	07	G3	press
237.647	n/a	RESPONSE	M5	2	00	C3	release
237.668	n/a	RESPONSE	M5	2	21	A4	press
238.129	n/a	RESPONSE	M5	2	21	A4	release
238.223	n/a	RESPONSE	M5	2	00	C3	press
238.292	n/a	RESPONSE	M5	2	21	A4	press
238.294	n/a	RESPONSE	M5	2	07	G3	release
239.074	n/a	RESPONSE	M5	2	21	A4	release
239.167	n/a	RESPONSE	M5	2	00	C3	release
239.217	n/a	RESPONSE	M5	2	24	C5	press
239.25	n/a	RESPONSE	M5	2	00	C3	press
239.328	7.758	FIXCROSS	n/a	n/a	n/a	n/a	n/a
239.599	n/a	RESPONSE	M5	2	24	C5	release
239.68	n/a	RESPONSE	M5	2	24	C5	press
240.522	n/a	RESPONSE	M5	2	00	C3	release
240.524	n/a	RESPONSE	M5	2	24	C5	release
247.087	6.325	CUE_LISTEN	M2	1	n/a	n/a	n/a
253.412	7.759	FIXCROSS	n/a	n/a	n/a	n/a	n/a
261.17	6.317	CUE_PLAYBACK_RIGHT_HAND	M2	1	n/a	n/a	n/a
261.612	n/a	RESPONSE	M2	1	24	C5	press
262.075	n/a	RESPONSE	M2	1	19	G4	press
262.134	n/a	RESPONSE	M2	1	24	C5	release
262.365	n/a	RESPONSE	M2	1	19	G4	release
262.517	n/a	RESPONSE	M2	1	19	G4	press
262.959	n/a	RESPONSE	M2	1	17	F4	press
263.069	n/a	RESPONSE	M2	1	19	G4	release
263.42	n/a	RESPONSE	M2	1	16	E4	press
263.562	n/a	RESPONSE	M2	1	16	E4	release
263.583	n/a	RESPONSE	M2	1	17	F4	release
263.734	n/a	RESPONSE	M2	1	17	F4	press
263.915	n/a	RESPONSE	M2	1	17	F4	release
264.072	n/a	RESPONSE	M2	1	17	F4	press
264.453	n/a	RESPONSE	M2	1	19	G4	press
264.558	n/a	RESPONSE	M2	1	17	F4	release
265.217	n/a	RESPONSE	M2	1	19	G4	release
267.487	7.758	FIXCROSS	n/a	n/a	n/a	n/a	n/a
275.245	6.325	CUE_LISTEN	M2	2	n/a	n/a	n/a
281.57	7.758	FIXCROSS	n/a	n/a	n/a	n/a	n/a
289.329	6.317	CUE_PLAYBACK_RIGHT_HAND	M2	2	n/a	n/a	n/a
289.748	n/a	RESPONSE	M2	2	24	C5	press
290.317	n/a	RESPONSE	M2	2	17	F4	press
290.398	n/a	RESPONSE	M2	2	24	C5	release
290.659	n/a	RESPONSE	M2	2	17	F4	release
291.08	n/a	RESPONSE	M2	2	24	C5	press
291.722	n/a	RESPONSE	M2	2	19	G4	press
292.073	n/a	RESPONSE	M2	2	24	C5	release
292.154	n/a	RESPONSE	M2	2	19	G4	release
292.338	n/a	RESPONSE	M2	2	19	G4	press
292.847	n/a	RESPONSE	M2	2	17	F4	press
292.958	n/a	RESPONSE	M2	2	19	G4	release
293.41	n/a	RESPONSE	M2	2	16	E4	press
293.48	n/a	RESPONSE	M2	2	17	F4	release
293.932	n/a	RESPONSE	M2	2	14	D4	press
294.018	n/a	RESPONSE	M2	2	16	E4	release
294.605	n/a	RESPONSE	M2	2	12	C4	press
294.674	n/a	RESPONSE	M2	2	14	D4	release
295.645	7.758	FIXCROSS	n/a	n/a	n/a	n/a	n/a
296.07	n/a	RESPONSE	M2	2	12	C4	release
303.404	6.317	CUE_LISTEN	M2	1	n/a	n/a	n/a
309.72	7.758	FIXCROSS	n/a	n/a	n/a	n/a	n/a
317.479	6.325	CUE_PLAYBACK_RIGHT_HAND	M2	1	n/a	n/a	n/a
317.91	n/a	RESPONSE	M2	1	14	D4	press
318.362	n/a	RESPONSE	M2	1	14	D4	release
318.782	n/a	RESPONSE	M2	1	12	C4	press
319.285	n/a	RESPONSE	M2	1	14	D4	press
319.364	n/a	RESPONSE	M2	1	12	C4	release
319.775	n/a	RESPONSE	M2	1	16	E4	press
319.857	n/a	RESPONSE	M2	1	14	D4	release
320.218	n/a	RESPONSE	M2	1	14	D4	press
320.26	n/a	RESPONSE	M2	1	16	E4	release
320.69	n/a	RESPONSE	M2	1	16	E4	press
320.774	n/a	RESPONSE	M2	1	14	D4	release
321.195	n/a	RESPONSE	M2	1	17	F4	press
321.244	n/a	RESPONSE	M2	1	16	E4	release
321.685	n/a	RESPONSE	M2	1	19	G4	press
321.767	n/a	RESPONSE	M2	1	17	F4	release
323.55	n/a	RESPONSE	M2	1	19	G4	release
323.804	7.758	FIXCROSS	n/a	n/a	n/a	n/a	n/a
331.562	6.317	CUE_LISTEN	M2	2	n/a	n/a	n/a
337.879	7.758	FIXCROSS	n/a	n/a	n/a	n/a	n/a
345.637	6.317	CUE_PLAYBACK_RIGHT_HAND	M2	2	n/a	n/a	n/a
346.143	n/a	RESPONSE	M2	2	16	E4	press
346.598	n/a	RESPONSE	M2	2	16	E4	release
346.608	n/a	RESPONSE	M2	2	19	G4	press
346.99	n/a	RESPONSE	M2	2	19	G4	release
347.104	n/a	RESPONSE	M2	2	19	G4	press
347.552	n/a	RESPONSE	M2	2	17	F4	press
347.612	n/a	RESPONSE	M2	2	19	G4	release
348.035	n/a	RESPONSE	M2	2	16	E4	press
348.124	n/a	RESPONSE	M2	2	17	F4	release
348.525	n/a	RESPONSE	M2	2	14	D4	press
348.629	n/a	RESPONSE	M2	2	16	E4	release
348.968	n/a	RESPONSE	M2	2	16	E4	press
349.049	n/a	RESPONSE	M2	2	14	D4	release
349.43	n/a	RESPONSE	M2	2	14	D4	press
349.452	n/a	RESPONSE	M2	2	16	E4	release
349.883	n/a	RESPONSE	M2	2	12	C4	press
350.004	n/a	RESPONSE	M2	2	14	D4	release
350.697	n/a	RESPONSE	M2	2	12	C4	release
351.954	7.758	FIXCROSS	n/a	n/a	n/a	n/a	n/a
359.712	6.325	CUE_LISTEN	M3	1	n/a	n/a	n/a
366.037	7.758	FIXCROSS	n/a	n/a	n/a	n/a	n/a
373.795	6.317	CUE_PLAYBACK_BOTH_HANDS	M3	1	n/a	n/a	n/a
374.333	n/a	RESPONSE	M3	1	00	C3	press
374.375	n/a	RESPONSE	M3	1	12	C4	press
374.889	n/a	RESPONSE	M3	1	07	G3	press
374.922	n/a	RESPONSE	M3	1	14	D4	press
375.03	n/a	RESPONSE	M3	1	00	C3	release
375.054	n/a	RESPONSE	M3	1	12	C4	release
375.423	n/a	RESPONSE	M3	1	04	E3	press
375.459	n/a	RESPONSE	M3	1	16	E4	press
375.535	n/a	RESPONSE	M3	1	07	G3	release
375.565	n/a	RESPONSE	M3	1	14	D4	release
376.108	n/a	RESPONSE	M3	1	07	G3	press
376.317	n/a	RESPONSE	M3	1	07	G3	release
376.422	n/a	RESPONSE	M3	1	07	G3	press
376.457	n/a	RESPONSE	M3	1	12	C4	press
376.489	n/a	RESPONSE	M3	1	16	E4	release
376.585	n/a	RESPONSE	M3	1	04	E3	release
376.885	n/a	RESPONSE	M3	1	12	C4	release
376.935	n/a	RESPONSE	M3	1	07	G3	release
377.03	n/a	RESPONSE	M3	1	00	C3	press
377.055	n/a	RESPONSE	M3	1	12	C4	press
377.612	n/a	RESPONSE	M3	1	07	G3	press
377.655	n/a	RESPONSE	M3	1	14	D4	press
377.767	n/a	RESPONSE	M3	1	00	C3	release
377.87	n/a	RESPONSE	M3	1	12	C4	release
378.229	n/a	RESPONSE	M3	1	04	E3	press
378.24	n/a	RESPONSE	M3	1	16	E4	press
378.313	n/a	RESPONSE	M3	1	07	G3	release
378.333	n/a	RESPONSE	M3	1	14	D4	release
378.914	n/a	RESPONSE	M3	1	07	G3	press
378.947	n/a	RESPONSE	M3	1	12	C4	press
379.007	n/a	RESPONSE	M3	1	16	E4	release
379.028	n/a	RESPONSE	M3	1	04	E3	release
379.849	n/a	RESPONSE	M3	1	07	G3	release
379.87	n/a	RESPONSE	M3	1	12	C4	release
380.112	7.758	FIXCROSS	n/a	n/a	n/a	n/a	n/a
387.87	6.317	CUE_LISTEN	M3	2	n/a	n/a	n/a
394.187	7.758	FIXCROSS	n/a	n/a	n/a	n/a	n/a
401.946	6.325	CUE_PLAYBACK_BOTH_HANDS	M3	2	n/a	n/a	n/a
402.493	n/a	RESPONSE	M3	2	00	C3	press
402.495	n/a	RESPONSE	M3	2	16	E4	press
403.026	n/a	RESPONSE	M3	2	07	G3	press
403.047	n/a	RESPONSE	M3	2	17	F4	press
403.139	n/a	RESPONSE	M3	2	16	E4	release
403.179	n/a	RESPONSE	M3	2	00	C3	release
403.56	n/a	RESPONSE	M3	2	04	E3	press
403.582	n/a	RESPONSE	M3	2	19	G4	press
403.653	n/a	RESPONSE	M3	2	17	F4	release
403.664	n/a	RESPONSE	M3	2	07	G3	release
404.1	n/a	RESPONSE	M3	2	07	G3	press
404.2	n/a	RESPONSE	M3	2	04	E3	release
404.64	n/a	RESPONSE	M3	2	00	C3	press
404.653	n/a	RESPONSE	M3	2	16	E4	press
404.7	n/a	RESPONSE	M3	2	19	G4	release
404.71	n/a	RESPONSE	M3	2	07	G3	release
405.18	n/a	RESPONSE	M3	2	07	G3	press
405.183	n/a	RESPONSE	M3	2	17	F4	press
405.264	n/a	RESPONSE	M3	2	16	E4	release
405.299	n/a	RESPONSE	M3	2	00	C3	release
405.732	n/a	RESPONSE	M3	2	04	E3	press
405.756	n/a	RESPONSE	M3	2	19	G4	press
405.83	n/a	RESPONSE	M3	2	17	F4	release
405.837	n/a	RESPONSE	M3	2	07	G3	release
406.327	n/a	RESPONSE	M3	2	07	G3	press
406.465	n/a	RESPONSE	M3	2	04	E3	release
407.29	n/a	RESPONSE	M3	2	07	G3	release
407.343	n/a	RESPONSE	M3	2	19	G4	release
408.27	7.758	FIXCROSS	n/a	n/a	n/a	n/a	n/a
416.029	6.317	CUE_LISTEN	M3	1	n/a	n/a	n/a
422.346	7.758	FIXCROSS	n/a	n/a	n/a	n/a	n/a
430.104	6.325	CUE_PLAYBACK_BOTH_HANDS	M3	1	n/a	n/a	n/a
430.728	n/a	RESPONSE	M3	1	00	C3	press
430.737	n/a	RESPONSE	M3	1	19	G4	press
431.098	n/a	RESPONSE	M3	1	21	A4	press
431.199	n/a	RESPONSE	M3	1	19	G4	release
431.403	n/a	RESPONSE	M3	1	19	G4	press
431.432	n/a	RESPONSE	M3	1	07	G3	press
431.483	n/a	RESPONSE	M3	1	21	A4	release
431.557	n/a	RESPONSE	M3	1	00	C3	release
431.716	n/a	RESPONSE	M3	1	17	F4	press
431.847	n/a	RESPONSE	M3	1	19	G4	release
432.048	n/a	RESPONSE	M3	1	04	E3	press
432.099	n/a	RESPONSE	M3	1	16	E4	press
432.17	n/a	RESPONSE	M3	1	07	G3	release
432.192	n/a	RESPONSE	M3	1	17	F4	release
432.713	n/a	RESPONSE	M3	1	12	C4	press
432.734	n/a	RESPONSE	M3	1	07	G3	press
432.776	n/a	RESPONSE	M3	1	16	E4	release
432.867	n/a	RESPONSE	M3	1	04	E3	release
433.119	n/a	RESPONSE	M3	1	12	C4	release
433.229	n/a	RESPONSE	M3	1	07	G3	release
433.372	n/a	RESPONSE	M3	1	19	G4	press
433.374	n/a	RESPONSE	M3	1	00	C3	press
433.764	n/a	RESPONSE	M3	1	21	A4	press
433.864	n/a	RESPONSE	M3	1	19	G4	release
434.059	n/a	RESPONSE	M3	1	19	G4	press
434.096	n/a	RESPONSE	M3	1	07	G3	press
434.122	n/a	RESPONSE	M3	1	21	A4	release
434.192	n/a	RESPONSE	M3	1	00	C3	release
434.4	n/a	RESPONSE	M3	1	17	F4	press
434.513	n/a	RESPONSE	M3	1	19	G4	release
434.764	n/a	RESPONSE	M3	1	04	E3	press
434.774	n/a	RESPONSE	M3	1	16	E4	press
434.868	n/a	RESPONSE	M3	1	17	F4	release
434.87	n/a	RESPONSE	M3	1	07	G3	release
435.414	n/a	RESPONSE	M3	1	07	G3	press
435.422	n/a	RESPONSE	M3	1	12	C4	press
435.478	n/a	RESPONSE	M3	1	16	E4	release
435.487	n/a	RESPONSE	M3	1	04	E3	release
436.054	n/a	RESPONSE	M3	1	07	G3	release
436.09	n/a	RESPONSE	M3	1	12	C4	release
436.429	7.758	FIXCROSS	n/a	n/a	n/a	n/a	n/a
444.187	6.317	CUE_LISTEN	M3	2	n/a	n/a	n/a
450.504	7.758	FIXCROSS	n/a	n/a	n/a	n/a	n/a
458.262	6.317	CUE_PLAYBACK_BOTH_HANDS	M3	2	n/a	n/a	n/a
458.858	n/a	RESPONSE	M3	2	00	C3	press
458.889	n/a	RESPONSE	M3	2	12	C4	press
459.49	n/a	RESPONSE	M3	2	04	E3	press
459.632	n/a	RESPONSE	M3	2	12	C4	release
459.703	n/a	RESPONSE	M3	2	00	C3	release
459.884	n/a	RESPONSE	M3	2	04	E3	release
460.136	n/a	RESPONSE	M3	2	04	E3	press
460.657	n/a	RESPONSE	M3	2	04	E3	release
461.298	n/a	RESPONSE	M3	2	00	C3	press
461.31	n/a	RESPONSE	M3	2	12	C4	press
461.88	n/a	RESPONSE	M3	2	05	F3	press
461.983	n/a	RESPONSE	M3	2	00	C3	release
461.993	n/a	RESPONSE	M3	2	12	C4	release
462.324	n/a	RESPONSE	M3	2	05	F3	release
462.446	n/a	RESPONSE	M3	2	00	C3	press
462.488	n/a	RESPONSE	M3	2	12	C4	press
462.958	n/a	RESPONSE	M3	2	00	C3	release
463.04	n/a	RESPONSE	M3	2	12	C4	release
463.4	n/a	RESPONSE	M3	2	00	C3	press
463.472	n/a	RESPONSE	M3	2	12	C4	press
464.194	n/a	RESPONSE	M3	2	04	E3	press
464.268	n/a	RESPONSE	M3	2	12	C4	release
464.354	n/a	RESPONSE	M3	2	00	C3	release
464.56	n/a	RESPONSE	M3	2	04	E3	release
464.579	7.759	FIXCROSS	n/a	n/a	n/a	n/a	n/a
464.797	n/a	RESPONSE	M3	2	00	C3	press
464.8	n/a	RESPONSE	M3	2	12	C4	press
465.299	n/a	RESPONSE	M3	2	12	C4	release
465.323	n/a	RESPONSE	M3	2	00	C3	release
472.337	6.317	CUE_LISTEN	M5	1	n/a	n/a	n/a
478.654	7.758	FIXCROSS	n/a	n/a	n/a	n/a	n/a
486.412	6.325	CUE_PLAYBACK_RIGHT_HAND	M5	1	n/a	n/a	n/a
487.197	n/a	RESPONSE	M5	1	05	F3	press
487.207	n/a	RESPONSE	M5	1	21	A4	press
487.524	n/a	RESPONSE	M5	1	21	A4	release
487.67	n/a	RESPONSE	M5	1	21	A4	press
487.722	n/a	RESPONSE	M5	1	09	A3	press
487.863	n/a	RESPONSE	M5	1	05	F3	release
487.924	n/a	RESPONSE	M5	1	21	A4	release
488.258	n/a	RESPONSE	M5	1	09	A3	release
488.517	n/a	RESPONSE	M5	1	21	A4	press
488.768	n/a	RESPONSE	M5	1	21	A4	release
488.919	n/a	RESPONSE	M5	1	21	A4	press
489.13	n/a	RESPONSE	M5	1	21	A4	release
489.302	n/a	RESPONSE	M5	1	21	A4	press
489.833	n/a	RESPONSE	M5	1	21	A4	release
490.034	n/a	RESPONSE	M5	1	21	A4	press
490.276	n/a	RESPONSE	M5	1	21	A4	release
490.437	n/a	RESPONSE	M5	1	21	A4	press
490.658	n/a	RESPONSE	M5	1	21	A4	release
490.829	n/a	RESPONSE	M5	1	21	A4	press
491.28	n/a	RESPONSE	M5	1	21	A4	release
491.572	n/a	RESPONSE	M5	1	21	A4	press
491.984	n/a	RESPONSE	M5	1	24	C5	press
492.054	n/a	RESPONSE	M5	1	21	A4	release
492.426	n/a	RESPONSE	M5	1	21	A4	press
492.527	n/a	RESPONSE	M5	1	24	C5	release
492.737	7.758	FIXCROSS	n/a	n/a	n/a	n/a	n/a
492.758	n/a	RESPONSE	M5	1	21	A4	release
500.496	6.317	CUE_LISTEN	M5	2	n/a	n/a	n/a
506.812	7.758	FIXCROSS	n/a	n/a	n/a	n/a	n/a
514.571	6.325	CUE_PLAYBACK_RIGHT_HAND	M5	2	n/a	n/a	n/a
515.254	n/a	RESPONSE	M5	2	22	A#4	press
515.594	n/a	RESPONSE	M5	2	22	A#4	release
515.697	n/a	RESPONSE	M5	2	22	A#4	press
515.953	n/a	RESPONSE	M5	2	22	A#4	release
516.089	n/a	RESPONSE	M5	2	22	A#4	press
516.389	n/a	RESPONSE	M5	2	22	A#4	release
516.513	n/a	RESPONSE	M5	2	22	A#4	press
516.783	n/a	RESPONSE	M5	2	22	A#4	release
516.944	n/a	RESPONSE	M5	2	22	A#4	press
517.179	n/a	RESPONSE	M5	2	22	A#4	release
517.382	n/a	RESPONSE	M5	2	21	A4	press
517.659	n/a	RESPONSE	M5	2	21	A4	release
517.839	n/a	RESPONSE	M5	2	21	A4	press
518.079	n/a	RESPONSE	M5	2	21	A4	release
518.23	n/a	RESPONSE	M5	2	21	A4	press
518.592	n/a	RESPONSE	M5	2	21	A4	release
518.653	n/a	RESPONSE	M5	2	19	G4	press
518.887	n/a	RESPONSE	M5	2	19	G4	release
519.525	n/a	RESPONSE	M5	2	21	A4	press
519.837	n/a	RESPONSE	M5	2	21	A4	release
520.896	7.758	FIXCROSS	n/a	n/a	n/a	n/a	n/a
528.654	6.317	CUE_LISTEN	M5	1	n/a	n/a	n/a
534.971	7.758	FIXCROSS	n/a	n/a	n/a	n/a	n/a
542.729	6.317	CUE_PLAYBACK_RIGHT_HAND	M5	1	n/a	n/a	n/a
543.203	n/a	RESPONSE	M5	1	21	A4	press
543.414	n/a	RESPONSE	M5	1	21	A4	release
543.556	n/a	RESPONSE	M5	1	21	A4	press
543.807	n/a	RESPONSE	M5	1	21	A4	release
543.918	n/a	RESPONSE	M5	1	21	A4	press
544.334	n/a	RESPONSE	M5	1	21	A4	release
544.523	n/a	RESPONSE	M5	1	21	A4	press
544.767	n/a	RESPONSE	M5	1	21	A4	release
544.884	n/a	RESPONSE	M5	1	21	A4	press
545.079	n/a	RESPONSE	M5	1	21	A4	release
545.29	n/a	RESPONSE	M5	1	21	A4	press
545.633	n/a	RESPONSE	M5	1	21	A4	release
545.859	n/a	RESPONSE	M5	1	21	A4	press
546.297	n/a	RESPONSE	M5	1	16	E4	press
546.358	n/a	RESPONSE	M5	1	21	A4	release
546.423	n/a	RESPONSE	M5	1	16	E4	release
546.784	n/a	RESPONSE	M5	1	21	A4	press
547.213	n/a	RESPONSE	M5	1	16	E4	press
547.609	n/a	RESPONSE	M5	1	16	E4	release
548.138	n/a	RESPONSE	M5	1	21	A4	release
548.289	n/a	RESPONSE	M5	1	21	A4	press
548.77	n/a	RESPONSE	M5	1	16	E4	press
549.032	n/a	RESPONSE	M5	1	21	A4	release
549.046	7.758	FIXCROSS	n/a	n/a	n/a	n/a	n/a
549.114	n/a	RESPONSE	M5	1	16	E4	release
553.397	n/a	RESPONSE	M5	1	17	F4	press
553.708	n/a	RESPONSE	M5	1	17	F4	release
554.776	n/a	RESPONSE	M5	1	16	E4	press
555.304	n/a	RESPONSE	M5	1	16	E4	release
555.554	n/a	RESPONSE	M5	1	17	F4	press
556.406	n/a	RESPONSE	M5	1	19	G4	press
556.632	n/a	RESPONSE	M5	1	17	F4	release
556.804	6.325	CUE_LISTEN	M5	2	n/a	n/a	n/a
557.253	n/a	RESPONSE	M5	2	19	G4	release
563.129	7.758	FIXCROSS	n/a	n/a	n/a	n/a	n/a
570.888	6.317	CUE_PLAYBACK_RIGHT_HAND	M5	2	n/a	n/a	n/a
571.278	n/a	RESPONSE	M5	2	22	A#4	press
571.568	n/a	RESPONSE	M5	2	22	A#4	release
571.679	n/a	RESPONSE	M5	2	22	A#4	press
571.94	n/a	RESPONSE	M5	2	22	A#4	release
572.062	n/a	RESPONSE	M5	2	22	A#4	press
572.353	n/a	RESPONSE	M5	2	22	A#4	release
572.474	n/a	RESPONSE	M5	2	22	A#4	press
572.736	n/a	RESPONSE	M5	2	22	A#4	release
572.907	n/a	RESPONSE	M5	2	22	A#4	press
573.159	n/a	RESPONSE	M5	2	22	A#4	release
573.339	n/a	RESPONSE	M5	2	21	A4	press
573.6	n/a	RESPONSE	M5	2	21	A4	release
573.763	n/a	RESPONSE	M5	2	21	A4	press
574.023	n/a	RESPONSE	M5	2	21	A4	release
574.174	n/a	RESPONSE	M5	2	21	A4	press
574.472	n/a	RESPONSE	M5	2	21	A4	release
574.619	n/a	RESPONSE	M5	2	24	C5	press
574.883	n/a	RESPONSE	M5	2	24	C5	release
575.05	n/a	RESPONSE	M5	2	24	C5	press
575.61	n/a	RESPONSE	M5	2	22	A#4	press
575.658	n/a	RESPONSE	M5	2	24	C5	release
576.239	n/a	RESPONSE	M5	2	19	G4	press
576.306	n/a	RESPONSE	M5	2	22	A#4	release
576.779	n/a	RESPONSE	M5	2	17	F4	press
576.874	n/a	RESPONSE	M5	2	19	G4	release
577.204	7.758	FIXCROSS	n/a	n/a	n/a	n/a	n/a
577.693	n/a	RESPONSE	M5	2	17	F4	release
584.963	6.317	CUE_LISTEN	M1	1	n/a	n/a	n/a
591.279	7.758	FIXCROSS	n/a	n/a	n/a	n/a	n/a
599.038	6.325	CUE_PLAYBACK_BOTH_HANDS	M1	1	n/a	n/a	n/a
599.508	n/a	RESPONSE	M1	1	04	E3	press
599.51	n/a	RESPONSE	M1	1	19	G4	press
599.52	n/a	RESPONSE	M1	1	07	G3	press
599.542	n/a	RESPONSE	M1	1	00	C3	press
600.044	n/a	RESPONSE	M1	1	16	E4	press
600.074	n/a	RESPONSE	M1	1	19	G4	release
600.396	n/a	RESPONSE	M1	1	16	E4	release
600.567	n/a	RESPONSE	M1	1	16	E4	press
600.799	n/a	RESPONSE	M1	1	00	C3	release
600.809	n/a	RESPONSE	M1	1	16	E4	release
600.812	n/a	RESPONSE	M1	1	04	E3	release
601.084	n/a	RESPONSE	M1	1	17	F4	press
601.093	n/a	RESPONSE	M1	1	02	D3	press
601.097	n/a	RESPONSE	M1	1	05	F3	press
601.616	n/a	RESPONSE	M1	1	14	D4	press
601.647	n/a	RESPONSE	M1	1	17	F4	release
601.988	n/a	RESPONSE	M1	1	14	D4	release
602.109	n/a	RESPONSE	M1	1	14	D4	press
602.321	n/a	RESPONSE	M1	1	02	D3	release
602.352	n/a	RESPONSE	M1	1	14	D4	release
602.354	n/a	RESPONSE	M1	1	05	F3	release
602.644	n/a	RESPONSE	M1	1	04	E3	press
602.676	n/a	RESPONSE	M1	1	12	C4	press
602.807	n/a	RESPONSE	M1	1	00	C3	press
603.05	n/a	RESPONSE	M1	1	16	E4	press
603.519	n/a	RESPONSE	M1	1	19	G4	press
603.593	n/a	RESPONSE	M1	1	12	C4	release
603.602	n/a	RESPONSE	M1	1	16	E4	release
604.814	n/a	RESPONSE	M1	1	04	E3	release
604.913	n/a	RESPONSE	M1	1	19	G4	release
605.154	n/a	RESPONSE	M1	1	00	C3	release
605.363	7.758	FIXCROSS	n/a	n/a	n/a	n/a	n/a
605.969	n/a	RESPONSE	M1	1	07	G3	release
613.121	6.317	CUE_LISTEN	M1	2	n/a	n/a	n/a
619.438	7.758	FIXCROSS	n/a	n/a	n/a	n/a	n/a
627.196	6.317	CUE_PLAYBACK_BOTH_HANDS	M1	2	n/a	n/a	n/a
627.763	n/a	RESPONSE	M1	2	07	G3	press
627.773	n/a	RESPONSE	M1	2	19	G4	press
627.776	n/a	RESPONSE	M1	2	04	E3	press
627.816	n/a	RESPONSE	M1	2	00	C3	press
628.317	n/a	RESPONSE	M1	2	16	E4	press
628.348	n/a	RESPONSE	M1	2	19	G4	release
628.629	n/a	RESPONSE	M1	2	16	E4	release
628.803	n/a	RESPONSE	M1	2	16	E4	press
629.052	n/a	RESPONSE	M1	2	00	C3	release
629.064	n/a	RESPONSE	M1	2	04	E3	release
629.077	n/a	RESPONSE	M1	2	16	E4	release
629.336	n/a	RESPONSE	M1	2	17	F4	press
629.338	n/a	RESPONSE	M1	2	05	F3	press
629.368	n/a	RESPONSE	M1	2	02	D3	press
629.899	n/a	RESPONSE	M1	2	14	D4	press
629.962	n/a	RESPONSE	M1	2	17	F4	release
630.232	n/a	RESPONSE	M1	2	14	D4	release
630.373	n/a	RESPONSE	M1	2	14	D4	press
630.584	n/a	RESPONSE	M1	2	05	F3	release
630.587	n/a	RESPONSE	M1	2	14	D4	release
630.647	n/a	RESPONSE	M1	2	02	D3	release
630.918	n/a	RESPONSE	M1	2	04	E3	press
630.93	n/a	RESPONSE	M1	2	12	C4	press
630.971	n/a	RESPONSE	M1	2	00	C3	press
631.062	n/a	RESPONSE	M1	2	07	G3	release
631.563	n/a	RESPONSE	M1	2	07	G3	press
631.864	n/a	RESPONSE	M1	2	16	E4	press
631.986	n/a	RESPONSE	M1	2	12	C4	release
632.227	n/a	RESPONSE	M1	2	12	C4	press
632.298	n/a	RESPONSE	M1	2	16	E4	release
633.349	n/a	RESPONSE	M1	2	04	E3	release
633.392	n/a	RESPONSE	M1	2	12	C4	release
633.513	7.759	FIXCROSS	n/a	n/a	n/a	n/a	n/a
633.532	n/a	RESPONSE	M1	2	00	C3	release
633.553	n/a	RESPONSE	M1	2	07	G3	release
641.271	6.325	CUE_LISTEN	M4	1	n/a	n/a	n/a
647.596	7.758	FIXCROSS	n/a	n/a	n/a	n/a	n/a
651.816	n/a	RESPONSE	M4	1	16	E4	press
652.237	n/a	RESPONSE	M4	1	16	E4	release
652.598	n/a	RESPONSE	M4	1	17	F4	press
653.052	n/a	RESPONSE	M4	1	17	F4	release
655.354	6.317	CUE_PLAYBACK_RIGHT_HAND	M4	1	n/a	n/a	n/a
655.872	n/a	RESPONSE	M4	1	12	C4	press
656.328	n/a	RESPONSE	M4	1	17	F4	press
656.428	n/a	RESPONSE	M4	1	12	C4	release
656.894	n/a	RESPONSE	M4	1	21	A4	press
656.962	n/a	RESPONSE	M4	1	17	F4	release
657.326	n/a	RESPONSE	M4	1	19	G4	press
657.406	n/a	RESPONSE	M4	1	21	A4	release
657.816	n/a	RESPONSE	M4	1	17	F4	press
657.889	n/a	RESPONSE	M4	1	19	G4	release
658.318	n/a	RESPONSE	M4	1	16	E4	press
658.449	n/a	RESPONSE	M4	1	17	F4	release
658.811	n/a	RESPONSE	M4	1	17	F4	press
658.882	n/a	RESPONSE	M4	1	16	E4	release
659.873	n/a	RESPONSE	M4	1	17	F4	release
660.774	n/a	RESPONSE	M4	1	12	C4	press
661.268	n/a	RESPONSE	M4	1	17	F4	press
661.347	n/a	RESPONSE	M4	1	12	C4	release
661.671	7.758	FIXCROSS	n/a	n/a	n/a	n/a	n/a
662.189	n/a	RESPONSE	M4	1	17	F4	release
669.43	6.317	CUE_LISTEN	M4	2	n/a	n/a	n/a
675.746	7.758	FIXCROSS	n/a	n/a	n/a	n/a	n/a
683.504	6.325	CUE_PLAYBACK_RIGHT_HAND	M4	2	n/a	n/a	n/a
683.953	n/a	RESPONSE	M4	2	12	C4	press
684.357	n/a	RESPONSE	M4	2	17	F4	press
684.468	n/a	RESPONSE	M4	2	12	C4	release
684.954	n/a	RESPONSE	M4	2	21	A4	press
685.209	n/a	RESPONSE	M4	2	17	F4	release
685.656	n/a	RESPONSE	M4	2	24	C5	press
685.702	n/a	RESPONSE	M4	2	21	A4	release
686.357	n/a	RESPONSE	M4	2	22	A#4	press
686.434	n/a	RESPONSE	M4	2	24	C5	release
686.908	n/a	RESPONSE	M4	2	21	A4	press
687.406	n/a	RESPONSE	M4	2	19	G4	press
687.448	n/a	RESPONSE	M4	2	22	A#4	release
687.504	n/a	RESPONSE	M4	2	21	A4	release
688.131	n/a	RESPONSE	M4	2	19	G4	release
688.382	n/a	RESPONSE	M4	2	14	D4	press
688.854	n/a	RESPONSE	M4	2	14	D4	release
689.134	n/a	RESPONSE	M4	2	16	E4	press
689.528	n/a	RESPONSE	M4	2	16	E4	release
689.83	7.758	FIXCROSS	n/a	n/a	n/a	n/a	n/a
690.117	n/a	RESPONSE	M4	2	12	C4	press
690.658	n/a	RESPONSE	M4	2	12	C4	release
697.588	6.317	CUE_LISTEN	M2	1	n/a	n/a	n/a
702.572	n/a	RESPONSE	M2	1	00	C3	press
702.574	n/a	RESPONSE	M2	1	07	G3	press
703.084	n/a	RESPONSE	M2	1	07	G3	release
703.098	n/a	RESPONSE	M2	1	00	C3	release
703.307	n/a	RESPONSE	M2	1	00	C3	press
703.328	n/a	RESPONSE	M2	1	07	G3	press
703.859	n/a	RESPONSE	M2	1	07	G3	release
703.904	7.759	FIXCROSS	n/a	n/a	n/a	n/a	n/a
703.933	n/a	RESPONSE	M2	1	00	C3	release
704.377	n/a	RESPONSE	M2	1	09	A3	press
704.391	n/a	RESPONSE	M2	1	00	C3	press
704.841	n/a	RESPONSE	M2	1	09	A3	release
705.069	n/a	RESPONSE	M2	1	00	C3	release
705.237	n/a	RESPONSE	M2	1	07	G3	press
705.298	n/a	RESPONSE	M2	1	00	C3	press
705.683	n/a	RESPONSE	M2	1	00	C3	release
705.713	n/a	RESPONSE	M2	1	07	G3	release
711.663	6.325	CUE_PLAYBACK_BOTH_HANDS	M2	1	n/a	n/a	n/a
712.154	n/a	RESPONSE	M2	1	00	C3	press
712.157	n/a	RESPONSE	M2	1	24	C5	press
712.159	n/a	RESPONSE	M2	1	07	G3	press
712.598	n/a	RESPONSE	M2	1	19	G4	press
712.649	n/a	RESPONSE	M2	1	24	C5	release
712.871	n/a	RESPONSE	M2	1	00	C3	release
712.892	n/a	RESPONSE	M2	1	19	G4	release
713.033	n/a	RESPONSE	M2	1	00	C3	press
713.044	n/a	RESPONSE	M2	1	19	G4	press
713.477	n/a	RESPONSE	M2	1	17	F4	press
713.597	n/a	RESPONSE	M2	1	19	G4	release
713.621	n/a	RESPONSE	M2	1	00	C3	release
713.641	n/a	RESPONSE	M2	1	07	G3	release
713.942	n/a	RESPONSE	M2	1	07	G3	press
713.944	n/a	RESPONSE	M2	1	00	C3	press
713.963	n/a	RESPONSE	M2	1	16	E4	press
714.022	n/a	RESPONSE	M2	1	17	F4	release
714.404	n/a	RESPONSE	M2	1	17	F4	press
714.532	n/a	RESPONSE	M2	1	00	C3	release
714.567	n/a	RESPONSE	M2	1	16	E4	release
714.668	n/a	RESPONSE	M2	1	07	G3	release
714.843	n/a	RESPONSE	M2	1	19	G4	press
714.868	n/a	RESPONSE	M2	1	00	C3	press
714.871	n/a	RESPONSE	M2	1	07	G3	press
714.963	n/a	RESPONSE	M2	1	17	F4	release
715.754	n/a	RESPONSE	M2	1	19	G4	release
715.912	n/a	RESPONSE	M2	1	00	C3	release
716.208	n/a	RESPONSE	M2	1	07	G3	release
717.988	7.758	FIXCROSS	n/a	n/a	n/a	n/a	n/a
725.746	6.317	CUE_LISTEN	M2	2	n/a	n/a	n/a
732.063	7.758	FIXCROSS	n/a	n/a	n/a	n/a	n/a
739.821	6.317	CUE_PLAYBACK_BOTH_HANDS	M2	2	n/a	n/a	n/a
740.309	n/a	RESPONSE	M2	2	24	C5	press
740.329	n/a	RESPONSE	M2	2	07	G3	press
740.351	n/a	RESPONSE	M2	2	00	C3	press
740.843	n/a	RESPONSE	M2	2	17	F4	press
740.883	n/a	RESPONSE	M2	2	24	C5	release
741.064	n/a	RESPONSE	M2	2	00	C3	release
741.088	n/a	RESPONSE	M2	2	17	F4	release
741.177	n/a	RESPONSE	M2	2	07	G3	release
741.598	n/a	RESPONSE	M2	2	24	C5	press
741.629	n/a	RESPONSE	M2	2	00	C3	press
741.632	n/a	RESPONSE	M2	2	07	G3	press
742.193	n/a	RESPONSE	M2	2	19	G4	press
742.323	n/a	RESPONSE	M2	2	24	C5	release
742.417	n/a	RESPONSE	M2	2	00	C3	release
742.456	n/a	RESPONSE	M2	2	07	G3	release
742.477	n/a	RESPONSE	M2	2	19	G4	release
742.631	n/a	RESPONSE	M2	2	00	C3	press
742.649	n/a	RESPONSE	M2	2	19	G4	press
742.652	n/a	RESPONSE	M2	2	07	G3	press
743.102	n/a	RESPONSE	M2	2	17	F4	press
743.216	n/a	RESPONSE	M2	2	19	G4	release
743.274	n/a	RESPONSE	M2	2	07	G3	release
743.277	n/a	RESPONSE	M2	2	00	C3	release
743.587	n/a	RESPONSE	M2	2	16	E4	press
743.601	n/a	RESPONSE	M2	2	07	G3	press
743.609	n/a	RESPONSE	M2	2	00	C3	press
743.631	n/a	RESPONSE	M2	2	17	F4	release
744.071	n/a	RESPONSE	M2	2	14	D4	press
744.144	n/a	RESPONSE	M2	2	16	E4	release
744.196	n/a	RESPONSE	M2	2	07	G3	release
744.211	n/a	RESPONSE	M2	2	00	C3	release
744.537	n/a	RESPONSE	M2	2	07	G3	press
744.551	n/a	RESPONSE	M2	2	00	C3	press
744.561	n/a	RESPONSE	M2	2	12	C4	press
744.692	n/a	RESPONSE	M2	2	14	D4	release
745.659	n/a	RESPONSE	M2	2	00	C3	release
745.728	n/a	RESPONSE	M2	2	12	C4	release
745.813	n/a	RESPONSE	M2	2	07	G3	release
746.138	7.758	FIXCROSS	n/a	n/a	n/a	n/a	n/a
750.372	n/a	RESPONSE	M2	2	14	D4	press
750.762	n/a	RESPONSE	M2	2	14	D4	release
751.093	n/a	RESPONSE	M2	2	12	C4	press
751.674	n/a	RESPONSE	M2	2	12	C4	release
753.896	6.325	CUE_LISTEN	M2	1	n/a	n/a	n/a
760.221	7.758	FIXCROSS	n/a	n/a	n/a	n/a	n/a
767.98	6.317	CUE_PLAYBACK_BOTH_HANDS	M2	1	n/a	n/a	n/a
768.582	n/a	RESPONSE	M2	1	12	C4	press
768.584	n/a	RESPONSE	M2	1	07	G3	press
768.594	n/a	RESPONSE	M2	1	00	C3	press
769.056	n/a	RESPONSE	M2	1	14	D4	press
769.137	n/a	RESPONSE	M2	1	12	C4	release
769.218	n/a	RESPONSE	M2	1	00	C3	release
769.329	n/a	RESPONSE	M2	1	07	G3	release
769.511	n/a	RESPONSE	M2	1	16	E4	press
769.532	n/a	RESPONSE	M2	1	07	G3	press
769.543	n/a	RESPONSE	M2	1	00	C3	press
769.564	n/a	RESPONSE	M2	1	14	D4	release
769.996	n/a	RESPONSE	M2	1	14	D4	press
770.077	n/a	RESPONSE	M2	1	00	C3	release
770.088	n/a	RESPONSE	M2	1	16	E4	release
770.159	n/a	RESPONSE	M2	1	07	G3	release
770.471	n/a	RESPONSE	M2	1	16	E4	press
770.492	n/a	RESPONSE	M2	1	07	G3	press
770.494	n/a	RESPONSE	M2	1	00	C3	press
770.554	n/a	RESPONSE	M2	1	14	D4	release
770.936	n/a	RESPONSE	M2	1	17	F4	press
770.987	n/a	RESPONSE	M2	1	16	E4	release
771.101	n/a	RESPONSE	M2	1	00	C3	release
771.239	n/a	RESPONSE	M2	1	07	G3	release
771.441	n/a	RESPONSE	M2	1	19	G4	press
771.452	n/a	RESPONSE	M2	1	07	G3	press
771.456	n/a	RESPONSE	M2	1	00	C3	press
771.507	n/a	RESPONSE	M2	1	17	F4	release
772.256	n/a	RESPONSE	M2	1	00	C3	release
772.268	n/a	RESPONSE	M2	1	07	G3	release
772.428	n/a	RESPONSE	M2	1	19	G4	release
774.296	7.758	FIXCROSS	n/a	n/a	n/a	n/a	n/a
782.055	6.333	CUE_LISTEN	M2	2	n/a	n/a	n/a
788.388	7.758	FIXCROSS	n/a	n/a	n/a	n/a	n/a
796.146	6.308	CUE_PLAYBACK_BOTH_HANDS	M2	2	n/a	n/a	n/a
796.693	n/a	RESPONSE	M2	2	07	G3	press
796.696	n/a	RESPONSE	M2	2	16	E4	press
796.709	n/a	RESPONSE	M2	2	00	C3	press
797.134	n/a	RESPONSE	M2	2	19	G4	press
797.154	n/a	RESPONSE	M2	2	16	E4	release
797.349	n/a	RESPONSE	M2	2	00	C3	release
797.352	n/a	RESPONSE	M2	2	07	G3	release
797.463	n/a	RESPONSE	M2	2	19	G4	release
797.582	n/a	RESPONSE	M2	2	00	C3	press
797.584	n/a	RESPONSE	M2	2	19	G4	press
797.591	n/a	RESPONSE	M2	2	07	G3	press
798.028	n/a	RESPONSE	M2	2	17	F4	press
798.137	n/a	RESPONSE	M2	2	19	G4	release
798.291	n/a	RESPONSE	M2	2	00	C3	release
798.299	n/a	RESPONSE	M2	2	07	G3	release
798.481	n/a	RESPONSE	M2	2	16	E4	press
798.512	n/a	RESPONSE	M2	2	00	C3	press
798.514	n/a	RESPONSE	M2	2	07	G3	press
798.524	n/a	RESPONSE	M2	2	17	F4	release
798.946	n/a	RESPONSE	M2	2	14	D4	press
799.017	n/a	RESPONSE	M2	2	16	E4	release
799.108	n/a	RESPONSE	M2	2	00	C3	release
799.139	n/a	RESPONSE	M2	2	07	G3	release
799.381	n/a	RESPONSE	M2	2	12	C4	press
799.392	n/a	RESPONSE	M2	2	00	C3	press
799.403	n/a	RESPONSE	M2	2	07	G3	press
799.414	n/a	RESPONSE	M2	2	14	D4	release
800.826	n/a	RESPONSE	M2	2	00	C3	release
800.867	n/a	RESPONSE	M2	2	12	C4	release
800.968	n/a	RESPONSE	M2	2	07	G3	release
802.455	7.758	FIXCROSS	n/a	n/a	n/a	n/a	n/a
810.213	6.317	CUE_LISTEN	M3	1	n/a	n/a	n/a
816.53	7.758	FIXCROSS	n/a	n/a	n/a	n/a	n/a
824.288	6.317	CUE_PLAYBACK_RIGHT_HAND	M3	1	n/a	n/a	n/a
824.841	n/a	RESPONSE	M3	1	12	C4	press
825.341	n/a	RESPONSE	M3	1	14	D4	press
825.459	n/a	RESPONSE	M3	1	12	C4	release
825.867	n/a	RESPONSE	M3	1	16	E4	press
825.937	n/a	RESPONSE	M3	1	14	D4	release
826.343	n/a	RESPONSE	M3	1	12	C4	press
826.346	n/a	RESPONSE	M3	1	16	E4	release
826.626	n/a	RESPONSE	M3	1	12	C4	release
826.829	n/a	RESPONSE	M3	1	12	C4	press
827.338	n/a	RESPONSE	M3	1	14	D4	press
827.513	n/a	RESPONSE	M3	1	12	C4	release
827.847	n/a	RESPONSE	M3	1	16	E4	press
827.978	n/a	RESPONSE	M3	1	14	D4	release
828.399	n/a	RESPONSE	M3	1	12	C4	press
828.402	n/a	RESPONSE	M3	1	11	B3	press
828.404	n/a	RESPONSE	M3	1	16	E4	release
828.466	n/a	RESPONSE	M3	1	11	B3	release
829.184	n/a	RESPONSE	M3	1	12	C4	release
830.605	7.758	FIXCROSS	n/a	n/a	n/a	n/a	n/a
838.363	6.325	CUE_LISTEN	M3	2	n/a	n/a	n/a
844.688	7.758	FIXCROSS	n/a	n/a	n/a	n/a	n/a
852.447	6.325	CUE_PLAYBACK_RIGHT_HAND	M3	2	n/a	n/a	n/a
852.914	n/a	RESPONSE	M3	2	16	E4	press
853.326	n/a	RESPONSE	M3	2	17	F4	press
853.397	n/a	RESPONSE	M3	2	16	E4	release
853.798	n/a	RESPONSE	M3	2	19	G4	press
853.859	n/a	RESPONSE	M3	2	17	F4	release
854.621	n/a	RESPONSE	M3	2	16	E4	press
854.678	n/a	RESPONSE	M3	2	19	G4	release
855.058	n/a	RESPONSE	M3	2	17	F4	press
855.167	n/a	RESPONSE	M3	2	16	E4	release
855.498	n/a	RESPONSE	M3	2	19	G4	press
855.611	n/a	RESPONSE	M3	2	17	F4	release
856.518	n/a	RESPONSE	M3	2	19	G4	release
858.772	7.758	FIXCROSS	n/a	n/a	n/a	n/a	n/a
864.578	n/a	RESPONSE	M3	2	19	G4	press
865.241	n/a	RESPONSE	M3	2	19	G4	release
866.53	6.308	CUE_LISTEN	M3	1	n/a	n/a	n/a
872.838	7.758	FIXCROSS	n/a	n/a	n/a	n/a	n/a
880.597	6.325	CUE_PLAYBACK_RIGHT_HAND	M3	1	n/a	n/a	n/a
881.019	n/a	RESPONSE	M3	1	19	G4	press
881.363	n/a	RESPONSE	M3	1	21	A4	press
881.733	n/a	RESPONSE	M3	1	21	A4	release
882.393	n/a	RESPONSE	M3	1	19	G4	release
882.544	n/a	RESPONSE	M3	1	19	G4	press
882.547	n/a	RESPONSE	M3	1	17	F4	press
882.797	n/a	RESPONSE	M3	1	17	F4	release
883.091	n/a	RESPONSE	M3	1	17	F4	press
883.189	n/a	RESPONSE	M3	1	19	G4	release
883.511	n/a	RESPONSE	M3	1	16	E4	press
883.592	n/a	RESPONSE	M3	1	17	F4	release
884.147	n/a	RESPONSE	M3	1	12	C4	press
884.159	n/a	RESPONSE	M3	1	16	E4	release
884.596	n/a	RESPONSE	M3	1	12	C4	release
884.864	n/a	RESPONSE	M3	1	19	G4	press
885.232	n/a	RESPONSE	M3	1	21	A4	press
885.314	n/a	RESPONSE	M3	1	19	G4	release
885.526	n/a	RESPONSE	M3	1	19	G4	press
885.62	n/a	RESPONSE	M3	1	21	A4	release
885.884	n/a	RESPONSE	M3	1	17	F4	press
886.023	n/a	RESPONSE	M3	1	19	G4	release
886.311	n/a	RESPONSE	M3	1	16	E4	press
886.417	n/a	RESPONSE	M3	1	17	F4	release
886.922	7.758	FIXCROSS	n/a	n/a	n/a	n/a	n/a
887.022	n/a	RESPONSE	M3	1	12	C4	press
887.058	n/a	RESPONSE	M3	1	16	E4	release
887.828	n/a	RESPONSE	M3	1	12	C4	release
894.68	6.317	CUE_LISTEN	M3	2	n/a	n/a	n/a
900.997	7.758	FIXCROSS	n/a	n/a	n/a	n/a	n/a
908.755	201.531	CUE_PLAYBACK_RIGHT_HAND	M3	2	n/a	n/a	n/a
909.322	n/a	RESPONSE	M3	2	12	C4	press
909.833	n/a	RESPONSE	M3	2	04	E3	press
910.146	n/a	RESPONSE	M3	2	12	C4	release
910.326	n/a	RESPONSE	M3	2	04	E3	release
910.447	n/a	RESPONSE	M3	2	12	C4	press
911.048	n/a	RESPONSE	M3	2	12	C4	release
911.399	n/a	RESPONSE	M3	2	12	C4	press
911.901	n/a	RESPONSE	M3	2	05	F3	press
912.023	n/a	RESPONSE	M3	2	12	C4	release
912.423	n/a	RESPONSE	M3	2	05	F3	release
912.464	n/a	RESPONSE	M3	2	12	C4	press
913.216	n/a	RESPONSE	M3	2	12	C4	release
913.25	n/a	FIXCROSS	n/a	n/a	n/a	n/a	n/a
913.987	n/a	RESPONSE	M3	2	07	G3	press
914.496	n/a	RESPONSE	M3	2	07	G3	release
915.047	n/a	RESPONSE	M3	2	07	G3	press
915.501	n/a	RESPONSE	M3	2	07	G3	release
