onset	duration	trial_type	melody_number	melody_part	key	sound	action
0.0	14.094	CUE_START	n/a	n/a	n/a	n/a	n/a
14.095	7.759	FIXCROSS	n/a	n/a	n/a	n/a	n/a
21.854	6.307	CUE_LISTEN	M4	1	n/a	n/a	n/a
28.162	7.758	FIXCROSS	n/a	n/a	n/a	n/a	n/a
35.92	6.317	CUE_PLAYBACK_BOTH_HANDS	M4	1	n/a	n/a	n/a
36.835	n/a	RESPONSE	M4	1	12	C4	press
36.837	n/a	RESPONSE	M4	1	09	A3	press
36.842	n/a	RESPONSE	M4	1	05	F3	press
36.954	n/a	RESPONSE	M4	1	17	F4	press
39.088	n/a	RESPONSE	M4	1	21	A4	press
39.355	n/a	RESPONSE	M4	1	17	F4	release
39.55	n/a	RESPONSE	M4	1	19	G4	press
39.618	n/a	RESPONSE	M4	1	21	A4	release
39.846	n/a	RESPONSE	M4	1	17	F4	press
39.944	n/a	RESPONSE	M4	1	19	G4	release
40.187	n/a	RESPONSE	M4	1	16	E4	press
40.304	n/a	RESPONSE	M4	1	17	F4	release
40.501	n/a	RESPONSE	M4	1	17	F4	press
40.581	n/a	RESPONSE	M4	1	16	E4	release
40.822	n/a	RESPONSE	M4	1	12	C4	release
40.825	n/a	RESPONSE	M4	1	05	F3	release
40.857	n/a	RESPONSE	M4	1	09	A3	release
41.008	n/a	RESPONSE	M4	1	17	F4	release
41.257	n/a	RESPONSE	M4	1	09	A3	press
41.26	n/a	RESPONSE	M4	1	12	C4	press
41.28	n/a	RESPONSE	M4	1	05	F3	press
41.661	n/a	RESPONSE	M4	1	17	F4	press
42.022	n/a	RESPONSE	M4	1	21	A4	press
42.144	n/a	RESPONSE	M4	1	17	F4	release
42.237	7.758	FIXCROSS	n/a	n/a	n/a	n/a	n/a
42.375	n/a	RESPONSE	M4	1	19	G4	press
42.576	n/a	RESPONSE	M4	1	21	A4	release
42.717	n/a	RESPONSE	M4	1	17	F4	press
42.778	n/a	RESPONSE	M4	1	19	G4	release
43.02	n/a	RESPONSE	M4	1	16	E4	press
43.113	n/a	RESPONSE	M4	1	17	F4	release
43.342	n/a	RESPONSE	M4	1	17	F4	press
43.404	n/a	RESPONSE	M4	1	16	E4	release
43.865	n/a	RESPONSE	M4	1	17	F4	release
43.938	n/a	RESPONSE	M4	1	05	F3	release
43.997	n/a	RESPONSE	M4	1	09	A3	release
44.018	n/a	RESPONSE	M4	1	12	C4	release
49.995	6.325	CUE_LISTEN	M4	2	n/a	n/a	n/a
56.32	7.758	FIXCROSS	n/a	n/a	n/a	n/a	n/a
64.078	6.317	CUE_PLAYBACK_BOTH_HANDS	M4	2	n/a	n/a	n/a
64.527	n/a	RESPONSE	M4	2	12	C4	press
64.53	n/a	RESPONSE	M4	2	09	A3	press
64.58	n/a	RESPONSE	M4	2	05	F3	press
65.791	n/a	RESPONSE	M4	2	19	G4	press
66.152	n/a	RESPONSE	M4	2	19	G4	release
66.246	n/a	RESPONSE	M4	2	17	F4	press
66.892	n/a	RESPONSE	M4	2	21	A4	press
67.014	n/a	RESPONSE	M4	2	17	F4	release
67.966	n/a	RESPONSE	M4	2	23	B4	press
68.038	n/a	RESPONSE	M4	2	21	A4	release
68.328	n/a	RESPONSE	M4	2	09	A3	release
68.391	n/a	RESPONSE	M4	2	23	B4	release
68.426	n/a	RESPONSE	M4	2	05	F3	release
70.395	7.758	FIXCROSS	n/a	n/a	n/a	n/a	n/a
70.657	n/a	RESPONSE	M4	2	05	F3	press
70.801	n/a	RESPONSE	M4	2	12	C4	release
70.82	n/a	RESPONSE	M4	2	05	F3	release
70.972	n/a	RESPONSE	M4	2	05	F3	press
71.084	n/a	RESPONSE	M4	2	12	C4	press
71.564	n/a	RESPONSE	M4	2	12	C4	release
71.695	n/a	RESPONSE	M4	2	09	A3	press
71.716	n/a	RESPONSE	M4	2	12	C4	press
71.917	n/a	RESPONSE	M4	2	05	F3	release
72.058	n/a	RESPONSE	M4	2	09	A3	release
72.22	n/a	RESPONSE	M4	2	12	C4	release
72.331	n/a	RESPONSE	M4	2	07	G3	press
72.333	n/a	RESPONSE	M4	2	04	E3	press
72.375	n/a	RESPONSE	M4	2	12	C4	press
73.225	n/a	RESPONSE	M4	2	17	F4	press
73.886	n/a	RESPONSE	M4	2	21	A4	press
74.097	n/a	RESPONSE	M4	2	17	F4	release
74.428	n/a	RESPONSE	M4	2	24	C5	press
74.61	n/a	RESPONSE	M4	2	21	A4	release
74.691	n/a	RESPONSE	M4	2	04	E3	release
74.752	n/a	RESPONSE	M4	2	07	G3	release
74.785	n/a	RESPONSE	M4	2	24	C5	release
74.925	n/a	RESPONSE	M4	2	12	C4	release
75.516	n/a	RESPONSE	M4	2	21	A4	press
75.547	n/a	RESPONSE	M4	2	09	A3	press
75.558	n/a	RESPONSE	M4	2	05	F3	press
75.561	n/a	RESPONSE	M4	2	12	C4	press
75.831	n/a	RESPONSE	M4	2	19	G4	press
75.902	n/a	RESPONSE	M4	2	21	A4	release
76.124	n/a	RESPONSE	M4	2	17	F4	press
76.135	n/a	RESPONSE	M4	2	19	G4	release
76.497	n/a	RESPONSE	M4	2	09	A3	release
76.548	n/a	RESPONSE	M4	2	17	F4	release
76.6	n/a	RESPONSE	M4	2	05	F3	release
76.662	n/a	RESPONSE	M4	2	12	C4	release
78.153	6.317	CUE_LISTEN	M1	1	n/a	n/a	n/a
84.47	7.758	FIXCROSS	n/a	n/a	n/a	n/a	n/a
92.228	6.325	CUE_PLAYBACK_RIGHT_HAND	M1	1	n/a	n/a	n/a
93.228	n/a	RESPONSE	M1	1	19	G4	press
93.762	n/a	RESPONSE	M1	1	16	E4	press
93.771	n/a	RESPONSE	M1	1	19	G4	release
94.014	n/a	RESPONSE	M1	1	16	E4	release
94.214	n/a	RESPONSE	M1	1	16	E4	press
94.635	n/a	RESPONSE	M1	1	16	E4	release
94.657	n/a	RESPONSE	M1	1	17	F4	press
95.118	n/a	RESPONSE	M1	1	14	D4	press
95.198	n/a	RESPONSE	M1	1	17	F4	release
95.41	n/a	RESPONSE	M1	1	14	D4	release
95.541	n/a	RESPONSE	M1	1	14	D4	press
96.005	n/a	RESPONSE	M1	1	14	D4	release
96.054	n/a	RESPONSE	M1	1	12	C4	press
96.308	n/a	RESPONSE	M1	1	16	E4	press
96.397	n/a	RESPONSE	M1	1	12	C4	release
96.588	n/a	RESPONSE	M1	1	19	G4	press
96.71	n/a	RESPONSE	M1	1	16	E4	release
97.364	n/a	RESPONSE	M1	1	19	G4	release
98.553	7.758	FIXCROSS	n/a	n/a	n/a	n/a	n/a
106.312	6.317	CUE_LISTEN	M1	2	n/a	n/a	n/a
112.628	7.758	FIXCROSS	n/a	n/a	n/a	n/a	n/a
120.387	6.325	CUE_PLAYBACK_RIGHT_HAND	M1	2	n/a	n/a	n/a
120.902	n/a	RESPONSE	M1	2	19	G4	press
121.416	n/a	RESPONSE	M1	2	16	E4	press
121.465	n/a	RESPONSE	M1	2	19	G4	release
121.698	n/a	RESPONSE	M1	2	16	E4	release
121.857	n/a	RESPONSE	M1	2	16	E4	press
122.278	n/a	RESPONSE	M1	2	16	E4	release
122.33	n/a	RESPONSE	M1	2	17	F4	press
122.811	n/a	RESPONSE	M1	2	17	F4	release
122.862	n/a	RESPONSE	M1	2	14	D4	press
123.244	n/a	RESPONSE	M1	2	14	D4	release
123.365	n/a	RESPONSE	M1	2	14	D4	press
123.746	n/a	RESPONSE	M1	2	14	D4	release
123.887	n/a	RESPONSE	M1	2	12	C4	press
124.188	n/a	RESPONSE	M1	2	16	E4	press
124.232	n/a	RESPONSE	M1	2	12	C4	release
124.501	n/a	RESPONSE	M1	2	12	C4	press
124.572	n/a	RESPONSE	M1	2	16	E4	release
125.214	n/a	RESPONSE	M1	2	12	C4	release
126.712	7.759	FIXCROSS	n/a	n/a	n/a	n/a	n/a
134.47	6.317	CUE_LISTEN	M5	1	n/a	n/a	n/a
140.787	7.758	FIXCROSS	n/a	n/a	n/a	n/a	n/a
148.545	6.317	CUE_PLAYBACK_BOTH_HANDS	M5	1	n/a	n/a	n/a
149.564	n/a	RESPONSE	M5	1	21	A4	press
149.574	n/a	RESPONSE	M5	1	05	F3	press
150.02	n/a	RESPONSE	M5	1	09	A3	press
150.191	n/a	RESPONSE	M5	1	05	F3	release
150.324	n/a	RESPONSE	M5	1	21	A4	release
150.457	n/a	RESPONSE	M5	1	04	E3	press
150.46	n/a	RESPONSE	M5	1	21	A4	press
150.47	n/a	RESPONSE	M5	1	09	A3	release
151.061	n/a	RESPONSE	M5	1	04	E3	release
151.065	n/a	RESPONSE	M5	1	21	A4	release
151.076	n/a	RESPONSE	M5	1	09	A3	press
151.295	n/a	RESPONSE	M5	1	09	A3	release
151.447	n/a	RESPONSE	M5	1	02	D3	press
151.45	n/a	RESPONSE	M5	1	21	A4	press
151.751	n/a	RESPONSE	M5	1	21	A4	release
151.9	n/a	RESPONSE	M5	1	21	A4	press
151.911	n/a	RESPONSE	M5	1	09	A3	press
151.972	n/a	RESPONSE	M5	1	02	D3	release
152.135	n/a	RESPONSE	M5	1	21	A4	release
152.335	n/a	RESPONSE	M5	1	21	A4	press
152.337	n/a	RESPONSE	M5	1	00	C3	press
152.457	n/a	RESPONSE	M5	1	09	A3	release
152.768	n/a	RESPONSE	M5	1	09	A3	press
152.861	n/a	RESPONSE	M5	1	00	C3	release
152.871	n/a	RESPONSE	M5	1	21	A4	release
153.202	n/a	RESPONSE	M5	1	21	A4	press
153.214	n/a	RESPONSE	M5	1	09	A3	release
153.216	n/a	RESPONSE	M5	1	05	F3	press
153.616	n/a	RESPONSE	M5	1	24	C5	press
153.657	n/a	RESPONSE	M5	1	09	A3	press
153.71	n/a	RESPONSE	M5	1	21	A4	release
153.732	n/a	RESPONSE	M5	1	05	F3	release
154.211	n/a	RESPONSE	M5	1	19	G4	press
154.222	n/a	RESPONSE	M5	1	05	F3	press
154.324	n/a	RESPONSE	M5	1	09	A3	release
154.385	n/a	RESPONSE	M5	1	24	C5	release
154.736	n/a	RESPONSE	M5	1	05	F3	release
154.767	n/a	RESPONSE	M5	1	19	G4	release
154.862	7.758	FIXCROSS	n/a	n/a	n/a	n/a	n/a
155.528	n/a	RESPONSE	M5	1	21	A4	press
155.552	n/a	RESPONSE	M5	1	09	A3	press
156.134	n/a	RESPONSE	M5	1	09	A3	release
156.224	n/a	RESPONSE	M5	1	21	A4	release
156.606	n/a	RESPONSE	M5	1	21	A4	press
156.637	n/a	RESPONSE	M5	1	05	F3	press
156.967	n/a	RESPONSE	M5	1	24	C5	press
156.976	n/a	RESPONSE	M5	1	09	A3	press
157.081	n/a	RESPONSE	M5	1	05	F3	release
157.367	n/a	RESPONSE	M5	1	04	E3	press
157.38	n/a	RESPONSE	M5	1	17	F4	press
157.426	n/a	RESPONSE	M5	1	21	A4	release
157.567	n/a	RESPONSE	M5	1	09	A3	release
157.7	n/a	RESPONSE	M5	1	24	C5	release
157.737	n/a	RESPONSE	M5	1	19	G4	press
157.75	n/a	RESPONSE	M5	1	09	A3	press
157.854	n/a	RESPONSE	M5	1	04	E3	release
158.046	n/a	RESPONSE	M5	1	17	F4	release
158.114	n/a	RESPONSE	M5	1	02	D3	press
158.118	n/a	RESPONSE	M5	1	21	A4	press
158.195	n/a	RESPONSE	M5	1	19	G4	release
158.22	n/a	RESPONSE	M5	1	09	A3	release
158.485	n/a	RESPONSE	M5	1	09	A3	press
158.545	n/a	RESPONSE	M5	1	02	D3	release
158.63	n/a	RESPONSE	M5	1	21	A4	release
158.867	n/a	RESPONSE	M5	1	00	C3	press
158.988	n/a	RESPONSE	M5	1	09	A3	release
159.219	n/a	RESPONSE	M5	1	09	A3	press
159.27	n/a	RESPONSE	M5	1	00	C3	release
159.701	n/a	RESPONSE	M5	1	09	A3	release
162.62	6.325	CUE_LISTEN	M5	2	n/a	n/a	n/a
168.945	7.758	FIXCROSS	n/a	n/a	n/a	n/a	n/a
176.704	6.316	CUE_PLAYBACK_BOTH_HANDS	M5	2	n/a	n/a	n/a
177.451	n/a	RESPONSE	M5	2	07	G3	press
177.454	n/a	RESPONSE	M5	2	22	A#4	press
177.967	n/a	RESPONSE	M5	2	10	A#3	press
178.09	n/a	RESPONSE	M5	2	07	G3	release
178.374	n/a	RESPONSE	M5	2	10	A#3	release
178.392	n/a	RESPONSE	M5	2	22	A#4	release
178.465	n/a	RESPONSE	M5	2	22	A#4	press
178.478	n/a	RESPONSE	M5	2	04	E3	press
178.905	n/a	RESPONSE	M5	2	10	A#3	press
178.926	n/a	RESPONSE	M5	2	04	E3	release
179.25	n/a	RESPONSE	M5	2	10	A#3	release
179.297	n/a	RESPONSE	M5	2	22	A#4	release
179.395	n/a	RESPONSE	M5	2	22	A#4	press
179.408	n/a	RESPONSE	M5	2	05	F3	press
179.84	n/a	RESPONSE	M5	2	09	A3	press
179.866	n/a	RESPONSE	M5	2	21	A4	press
179.9	n/a	RESPONSE	M5	2	05	F3	release
179.987	n/a	RESPONSE	M5	2	22	A#4	release
180.1	n/a	RESPONSE	M5	2	00	C3	press
180.274	n/a	RESPONSE	M5	2	09	A3	release
180.49	n/a	RESPONSE	M5	2	09	A3	press
180.711	n/a	RESPONSE	M5	2	00	C3	release
180.852	n/a	RESPONSE	M5	2	21	A4	release
181.114	n/a	RESPONSE	M5	2	09	A3	release
181.715	n/a	RESPONSE	M5	2	00	C3	press
181.727	n/a	RESPONSE	M5	2	21	A4	press
182.14	n/a	RESPONSE	M5	2	21	A4	release
182.198	n/a	RESPONSE	M5	2	21	A4	press
182.201	n/a	RESPONSE	M5	2	00	C3	release
182.214	n/a	RESPONSE	M5	2	09	A3	press
182.564	n/a	RESPONSE	M5	2	21	A4	release
182.595	n/a	RESPONSE	M5	2	09	A3	release
183.02	7.758	FIXCROSS	n/a	n/a	n/a	n/a	n/a
183.326	n/a	RESPONSE	M5	2	21	A4	press
183.337	n/a	RESPONSE	M5	2	05	F3	press
183.818	n/a	RESPONSE	M5	2	05	F3	release
185.25	n/a	RESPONSE	M5	2	21	A4	release
185.852	n/a	RESPONSE	M5	2	07	G3	press
185.865	n/a	RESPONSE	M5	2	22	A#4	press
186.535	n/a	RESPONSE	M5	2	07	G3	release
186.566	n/a	RESPONSE	M5	2	10	A#3	press
186.921	n/a	RESPONSE	M5	2	10	A#3	release
186.989	n/a	RESPONSE	M5	2	04	E3	press
187.334	n/a	RESPONSE	M5	2	10	A#3	press
187.352	n/a	RESPONSE	M5	2	04	E3	release
187.688	n/a	RESPONSE	M5	2	10	A#3	release
187.745	n/a	RESPONSE	M5	2	05	F3	press
188.147	n/a	RESPONSE	M5	2	22	A#4	release
188.15	n/a	RESPONSE	M5	2	09	A3	press
188.166	n/a	RESPONSE	M5	2	21	A4	press
188.201	n/a	RESPONSE	M5	2	05	F3	release
188.358	n/a	RESPONSE	M5	2	00	C3	press
188.447	n/a	RESPONSE	M5	2	09	A3	release
188.636	n/a	RESPONSE	M5	2	09	A3	press
188.774	n/a	RESPONSE	M5	2	00	C3	release
188.899	n/a	RESPONSE	M5	2	21	A4	release
189.287	n/a	RESPONSE	M5	2	09	A3	release
189.989	n/a	RESPONSE	M5	2	07	G3	press
189.992	n/a	RESPONSE	M5	2	21	A4	press
190.352	n/a	RESPONSE	M5	2	19	G4	press
190.366	n/a	RESPONSE	M5	2	11	B3	press
190.395	n/a	RESPONSE	M5	2	21	A4	release
190.452	n/a	RESPONSE	M5	2	07	G3	release
190.594	n/a	RESPONSE	M5	2	19	G4	release
190.605	n/a	RESPONSE	M5	2	11	B3	release
190.687	n/a	RESPONSE	M5	2	02	D3	press
190.727	n/a	RESPONSE	M5	2	19	G4	press
190.779	6.317	CUE_LISTEN	M5	1	n/a	n/a	n/a
191.028	n/a	RESPONSE	M5	1	02	D3	release
191.031	n/a	RESPONSE	M5	1	19	G4	release
197.095	7.758	FIXCROSS	n/a	n/a	n/a	n/a	n/a
204.854	6.325	CUE_PLAYBACK_BOTH_HANDS	M5	1	n/a	n/a	n/a
205.869	n/a	RESPONSE	M5	1	21	A4	press
205.89	n/a	RESPONSE	M5	1	05	F3	press
206.169	n/a	RESPONSE	M5	1	21	A4	release
206.341	n/a	RESPONSE	M5	1	21	A4	press
206.344	n/a	RESPONSE	M5	1	07	G3	press
206.486	n/a	RESPONSE	M5	1	05	F3	release
206.617	n/a	RESPONSE	M5	1	21	A4	release
206.756	n/a	RESPONSE	M5	1	21	A4	press
206.767	n/a	RESPONSE	M5	1	07	G3	release
206.77	n/a	RESPONSE	M5	1	04	E3	press
207.276	n/a	RESPONSE	M5	1	04	E3	release
207.285	n/a	RESPONSE	M5	1	21	A4	release
208.751	n/a	RESPONSE	M5	1	21	A4	press
208.777	n/a	RESPONSE	M5	1	05	F3	press
209.069	n/a	RESPONSE	M5	1	21	A4	release
209.112	n/a	RESPONSE	M5	1	21	A4	press
209.115	n/a	RESPONSE	M5	1	09	A3	press
209.274	n/a	RESPONSE	M5	1	05	F3	release
209.362	n/a	RESPONSE	M5	1	21	A4	release
209.469	n/a	RESPONSE	M5	1	04	E3	press
209.474	n/a	RESPONSE	M5	1	21	A4	press
209.532	n/a	RESPONSE	M5	1	09	A3	release
209.801	n/a	RESPONSE	M5	1	09	A3	press
209.917	n/a	RESPONSE	M5	1	21	A4	release
209.95	n/a	RESPONSE	M5	1	04	E3	release
210.154	n/a	RESPONSE	M5	1	21	A4	press
210.159	n/a	RESPONSE	M5	1	02	D3	press
210.277	n/a	RESPONSE	M5	1	09	A3	release
210.445	n/a	RESPONSE	M5	1	21	A4	release
210.517	n/a	RESPONSE	M5	1	21	A4	press
210.547	n/a	RESPONSE	M5	1	09	A3	press
210.649	n/a	RESPONSE	M5	1	02	D3	release
210.76	n/a	RESPONSE	M5	1	21	A4	release
210.901	n/a	RESPONSE	M5	1	21	A4	press
210.904	n/a	RESPONSE	M5	1	00	C3	press
211.034	n/a	RESPONSE	M5	1	09	A3	release
211.179	7.758	FIXCROSS	n/a	n/a	n/a	n/a	n/a
211.255	n/a	RESPONSE	M5	1	09	A3	press
211.308	n/a	RESPONSE	M5	1	00	C3	release
211.377	n/a	RESPONSE	M5	1	21	A4	release
211.638	n/a	RESPONSE	M5	1	21	A4	press
211.641	n/a	RESPONSE	M5	1	05	F3	press
211.744	n/a	RESPONSE	M5	1	09	A3	release
211.934	n/a	RESPONSE	M5	1	24	C5	press
211.994	n/a	RESPONSE	M5	1	09	A3	press
212.075	n/a	RESPONSE	M5	1	05	F3	release
212.096	n/a	RESPONSE	M5	1	21	A4	release
212.977	n/a	RESPONSE	M5	1	09	A3	release
213.309	n/a	RESPONSE	M5	1	24	C5	release
213.86	n/a	RESPONSE	M5	1	21	A4	press
213.881	n/a	RESPONSE	M5	1	05	F3	press
214.212	n/a	RESPONSE	M5	1	09	A3	press
214.216	n/a	RESPONSE	M5	1	24	C5	press
214.316	n/a	RESPONSE	M5	1	05	F3	release
214.499	n/a	RESPONSE	M5	1	21	A4	release
214.549	n/a	RESPONSE	M5	1	17	F4	press
214.551	n/a	RESPONSE	M5	1	04	E3	press
214.682	n/a	RESPONSE	M5	1	09	A3	release
214.872	n/a	RESPONSE	M5	1	09	A3	press
214.875	n/a	RESPONSE	M5	1	19	G4	press
215.025	n/a	RESPONSE	M5	1	04	E3	release
215.176	n/a	RESPONSE	M5	1	17	F4	release
215.187	n/a	RESPONSE	M5	1	21	A4	press
215.199	n/a	RESPONSE	M5	1	02	D3	press
215.232	n/a	RESPONSE	M5	1	24	C5	release
215.252	n/a	RESPONSE	M5	1	19	G4	release
215.295	n/a	RESPONSE	M5	1	09	A3	release
215.524	n/a	RESPONSE	M5	1	09	A3	press
215.595	n/a	RESPONSE	M5	1	02	D3	release
215.769	n/a	RESPONSE	M5	1	21	A4	release
215.85	n/a	RESPONSE	M5	1	00	C3	press
215.989	n/a	RESPONSE	M5	1	09	A3	release
216.17	n/a	RESPONSE	M5	1	09	A3	press
216.23	n/a	RESPONSE	M5	1	00	C3	release
216.754	n/a	RESPONSE	M5	1	09	A3	release
218.937	6.325	CUE_LISTEN	M5	2	n/a	n/a	n/a
225.262	14.075	FIXCROSS	n/a	n/a	n/a	n/a	n/a
233.02	n/a	CUE_PLAYBACK_BOTH_HANDS	M4	2	n/a	n/a	n/a
233.73	n/a	RESPONSE	M5	2	22	A#4	press
233.741	n/a	RESPONSE	M5	2	07	G3	press
234.202	n/a	RESPONSE	M5	2	10	A#3	press
234.294	n/a	RESPONSE	M5	2	07	G3	release
234.615	n/a	RESPONSE	M5	2	10	A#3	release
234.629	n/a	RESPONSE	M5	2	22	A#4	release
234.657	n/a	RESPONSE	M5	2	04	E3	press
234.669	n/a	RESPONSE	M5	2	22	A#4	press
235.07	n/a	RESPONSE	M5	2	04	E3	release
235.072	n/a	RESPONSE	M5	2	10	A#3	press
235.402	n/a	RESPONSE	M5	2	10	A#3	release
235.944	n/a	RESPONSE	M5	2	22	A#4	release
236.036	n/a	RESPONSE	M5	2	21	A4	press
236.056	n/a	RESPONSE	M5	2	05	F3	press
236.449	n/a	RESPONSE	M5	2	05	F3	release
236.66	n/a	RESPONSE	M5	2	21	A4	release
237.02	n/a	RESPONSE	M5	2	07	G3	press
237.036	n/a	RESPONSE	M5	2	22	A#4	press
237.376	n/a	RESPONSE	M5	2	10	A#3	press
237.482	n/a	RESPONSE	M5	2	07	G3	release
237.669	n/a	RESPONSE	M5	2	22	A#4	release
237.725	n/a	RESPONSE	M5	2	10	A#3	release
237.746	n/a	RESPONSE	M5	2	22	A#4	press
237.76	n/a	RESPONSE	M5	2	04	E3	press
238.099	n/a	RESPONSE	M5	2	10	A#3	press
238.144	n/a	RESPONSE	M5	2	04	E3	release
238.336	n/a	RESPONSE	M5	2	22	A#4	release
238.391	n/a	RESPONSE	M5	2	10	A#3	release
238.414	n/a	RESPONSE	M5	2	22	A#4	press
238.44	n/a	RESPONSE	M5	2	05	F3	press
238.746	n/a	RESPONSE	M5	2	21	A4	press
238.76	n/a	RESPONSE	M5	2	22	A#4	release
238.779	n/a	RESPONSE	M5	2	09	A3	press
238.867	n/a	RESPONSE	M5	2	05	F3	release
239.017	n/a	RESPONSE	M5	2	21	A4	release
239.064	n/a	RESPONSE	M5	2	00	C3	press
239.119	n/a	RESPONSE	M5	2	21	A4	press
239.232	n/a	RESPONSE	M5	2	09	A3	release
239.337	7.758	FIXCROSS	n/a	n/a	n/a	n/a	n/a
239.396	n/a	RESPONSE	M5	2	21	A4	release
239.466	n/a	RESPONSE	M5	2	21	A4	press
239.48	n/a	RESPONSE	M5	2	00	C3	release
239.487	n/a	RESPONSE	M5	2	09	A3	press
239.804	n/a	RESPONSE	M5	2	21	A4	release
239.945	n/a	RESPONSE	M5	2	09	A3	release
239.975	n/a	RESPONSE	M5	2	24	C5	press
239.99	n/a	RESPONSE	M5	2	00	C3	press
240.341	n/a	RESPONSE	M5	2	07	G3	press
240.441	n/a	RESPONSE	M5	2	00	C3	release
240.65	n/a	RESPONSE	M5	2	24	C5	release
240.914	n/a	RESPONSE	M5	2	04	E3	press
240.922	n/a	RESPONSE	M5	2	22	A#4	press
240.936	n/a	RESPONSE	M5	2	07	G3	release
241.265	n/a	RESPONSE	M5	2	07	G3	press
241.286	n/a	RESPONSE	M5	2	19	G4	press
241.357	n/a	RESPONSE	M5	2	22	A#4	release
241.361	n/a	RESPONSE	M5	2	04	E3	release
241.63	n/a	RESPONSE	M5	2	17	F4	press
241.634	n/a	RESPONSE	M5	2	05	F3	press
241.692	n/a	RESPONSE	M5	2	07	G3	release
241.704	n/a	RESPONSE	M5	2	19	G4	release
242.435	n/a	RESPONSE	M5	2	05	F3	release
242.456	n/a	RESPONSE	M5	2	17	F4	release
247.096	6.317	CUE_LISTEN	M2	1	n/a	n/a	n/a
253.412	7.758	FIXCROSS	n/a	n/a	n/a	n/a	n/a
261.171	6.317	CUE_PLAYBACK_RIGHT_HAND	M2	1	n/a	n/a	n/a
261.642	n/a	RESPONSE	M2	1	24	C5	press
261.664	n/a	RESPONSE	M2	1	23	B4	press
261.896	n/a	RESPONSE	M2	1	23	B4	release
262.086	n/a	RESPONSE	M2	1	24	C5	release
262.217	n/a	RESPONSE	M2	1	24	C5	press
262.689	n/a	RESPONSE	M2	1	19	G4	press
262.722	n/a	RESPONSE	M2	1	24	C5	release
262.951	n/a	RESPONSE	M2	1	19	G4	release
263.092	n/a	RESPONSE	M2	1	19	G4	press
263.494	n/a	RESPONSE	M2	1	17	F4	press
263.585	n/a	RESPONSE	M2	1	19	G4	release
263.896	n/a	RESPONSE	M2	1	16	E4	press
263.997	n/a	RESPONSE	M2	1	17	F4	release
264.279	n/a	RESPONSE	M2	1	17	F4	press
264.38	n/a	RESPONSE	M2	1	16	E4	release
264.642	n/a	RESPONSE	M2	1	19	G4	press
264.762	n/a	RESPONSE	M2	1	17	F4	release
265.434	n/a	RESPONSE	M2	1	19	G4	release
267.487	7.758	FIXCROSS	n/a	n/a	n/a	n/a	n/a
275.246	6.317	CUE_LISTEN	M2	2	n/a	n/a	n/a
281.562	7.758	FIXCROSS	n/a	n/a	n/a	n/a	n/a
289.321	6.325	CUE_PLAYBACK_RIGHT_HAND	M2	2	n/a	n/a	n/a
289.86	n/a	RESPONSE	M2	2	24	C5	press
290.346	n/a	RESPONSE	M2	2	19	G4	press
290.379	n/a	RESPONSE	M2	2	24	C5	release
290.617	n/a	RESPONSE	M2	2	19	G4	release
290.787	n/a	RESPONSE	M2	2	19	G4	press
291.269	n/a	RESPONSE	M2	2	17	F4	press
291.342	n/a	RESPONSE	M2	2	19	G4	release
291.701	n/a	RESPONSE	M2	2	16	E4	press
291.812	n/a	RESPONSE	M2	2	17	F4	release
292.154	n/a	RESPONSE	M2	2	14	D4	press
292.275	n/a	RESPONSE	M2	2	16	E4	release
292.647	n/a	RESPONSE	M2	2	12	C4	press
292.777	n/a	RESPONSE	M2	2	14	D4	release
293.439	n/a	RESPONSE	M2	2	12	C4	release
295.646	7.758	FIXCROSS	n/a	n/a	n/a	n/a	n/a
303.404	6.317	CUE_LISTEN	M2	1	n/a	n/a	n/a
309.721	7.758	FIXCROSS	n/a	n/a	n/a	n/a	n/a
317.479	6.325	CUE_PLAYBACK_RIGHT_HAND	M2	1	n/a	n/a	n/a
318.385	n/a	RESPONSE	M2	1	12	C4	press
318.845	n/a	RESPONSE	M2	1	14	D4	press
318.944	n/a	RESPONSE	M2	1	12	C4	release
319.3	n/a	RESPONSE	M2	1	16	E4	press
319.384	n/a	RESPONSE	M2	1	14	D4	release
319.732	n/a	RESPONSE	M2	1	14	D4	press
319.81	n/a	RESPONSE	M2	1	16	E4	release
320.171	n/a	RESPONSE	M2	1	16	E4	press
320.242	n/a	RESPONSE	M2	1	14	D4	release
320.601	n/a	RESPONSE	M2	1	17	F4	press
320.672	n/a	RESPONSE	M2	1	16	E4	release
321.064	n/a	RESPONSE	M2	1	19	G4	press
321.135	n/a	RESPONSE	M2	1	17	F4	release
321.756	n/a	RESPONSE	M2	1	19	G4	release
323.804	7.758	FIXCROSS	n/a	n/a	n/a	n/a	n/a
331.562	6.317	CUE_LISTEN	M2	2	n/a	n/a	n/a
337.879	7.758	FIXCROSS	n/a	n/a	n/a	n/a	n/a
345.638	6.317	CUE_PLAYBACK_RIGHT_HAND	M2	2	n/a	n/a	n/a
346.376	n/a	RESPONSE	M2	2	16	E4	press
346.829	n/a	RESPONSE	M2	2	19	G4	press
347.022	n/a	RESPONSE	M2	2	16	E4	release
347.11	n/a	RESPONSE	M2	2	19	G4	release
347.224	n/a	RESPONSE	M2	2	19	G4	press
347.702	n/a	RESPONSE	M2	2	17	F4	press
347.716	n/a	RESPONSE	M2	2	19	G4	release
348.109	n/a	RESPONSE	M2	2	16	E4	press
348.164	n/a	RESPONSE	M2	2	17	F4	release
348.537	n/a	RESPONSE	M2	2	14	D4	press
348.576	n/a	RESPONSE	M2	2	16	E4	release
348.957	n/a	RESPONSE	M2	2	12	C4	press
349.019	n/a	RESPONSE	M2	2	14	D4	release
349.487	n/a	RESPONSE	M2	2	12	C4	release
351.954	7.758	FIXCROSS	n/a	n/a	n/a	n/a	n/a
359.712	6.325	CUE_LISTEN	M3	1	n/a	n/a	n/a
366.038	7.758	FIXCROSS	n/a	n/a	n/a	n/a	n/a
373.796	6.317	CUE_PLAYBACK_BOTH_HANDS	M3	1	n/a	n/a	n/a
374.411	n/a	RESPONSE	M3	1	12	C4	press
374.904	n/a	RESPONSE	M3	1	07	G3	press
374.914	n/a	RESPONSE	M3	1	14	D4	press
375.055	n/a	RESPONSE	M3	1	00	C3	release
375.196	n/a	RESPONSE	M3	1	12	C4	release
375.367	n/a	RESPONSE	M3	1	04	E3	press
375.37	n/a	RESPONSE	M3	1	16	E4	press
375.512	n/a	RESPONSE	M3	1	07	G3	release
375.521	n/a	RESPONSE	M3	1	14	D4	release
375.852	n/a	RESPONSE	M3	1	12	C4	press
375.855	n/a	RESPONSE	M3	1	07	G3	press
375.907	n/a	RESPONSE	M3	1	04	E3	release
375.916	n/a	RESPONSE	M3	1	16	E4	release
376.219	n/a	RESPONSE	M3	1	12	C4	release
376.3	n/a	RESPONSE	M3	1	00	C3	press
376.311	n/a	RESPONSE	M3	1	12	C4	press
376.392	n/a	RESPONSE	M3	1	07	G3	release
376.744	n/a	RESPONSE	M3	1	07	G3	press
376.765	n/a	RESPONSE	M3	1	14	D4	press
376.796	n/a	RESPONSE	M3	1	00	C3	release
376.922	n/a	RESPONSE	M3	1	12	C4	release
377.196	n/a	RESPONSE	M3	1	04	E3	press
377.199	n/a	RESPONSE	M3	1	16	E4	press
377.28	n/a	RESPONSE	M3	1	14	D4	release
377.335	n/a	RESPONSE	M3	1	07	G3	release
377.63	n/a	RESPONSE	M3	1	07	G3	press
377.632	n/a	RESPONSE	M3	1	12	C4	press
377.69	n/a	RESPONSE	M3	1	16	E4	release
377.692	n/a	RESPONSE	M3	1	04	E3	release
378.411	n/a	RESPONSE	M3	1	12	C4	release
378.429	n/a	RESPONSE	M3	1	07	G3	release
380.112	7.758	FIXCROSS	n/a	n/a	n/a	n/a	n/a
387.871	6.317	CUE_LISTEN	M3	2	n/a	n/a	n/a
394.188	7.758	FIXCROSS	n/a	n/a	n/a	n/a	n/a
401.946	6.325	CUE_PLAYBACK_BOTH_HANDS	M3	2	n/a	n/a	n/a
402.501	n/a	RESPONSE	M3	2	00	C3	press
402.522	n/a	RESPONSE	M3	2	16	E4	press
403.064	n/a	RESPONSE	M3	2	07	G3	press
403.115	n/a	RESPONSE	M3	2	19	G4	press
403.117	n/a	RESPONSE	M3	2	16	E4	release
403.237	n/a	RESPONSE	M3	2	00	C3	release
403.48	n/a	RESPONSE	M3	2	19	G4	release
403.5	n/a	RESPONSE	M3	2	07	G3	release
403.701	n/a	RESPONSE	M3	2	00	C3	press
403.704	n/a	RESPONSE	M3	2	16	E4	press
404.134	n/a	RESPONSE	M3	2	07	G3	press
404.155	n/a	RESPONSE	M3	2	17	F4	press
404.256	n/a	RESPONSE	M3	2	16	E4	release
404.309	n/a	RESPONSE	M3	2	00	C3	release
404.569	n/a	RESPONSE	M3	2	19	G4	press
404.571	n/a	RESPONSE	M3	2	04	E3	press
404.631	n/a	RESPONSE	M3	2	17	F4	release
404.712	n/a	RESPONSE	M3	2	07	G3	release
405.014	n/a	RESPONSE	M3	2	07	G3	press
405.065	n/a	RESPONSE	M3	2	19	G4	release
405.087	n/a	RESPONSE	M3	2	04	E3	release
405.447	n/a	RESPONSE	M3	2	00	C3	press
405.469	n/a	RESPONSE	M3	2	16	E4	press
405.602	n/a	RESPONSE	M3	2	07	G3	release
405.841	n/a	RESPONSE	M3	2	07	G3	press
405.875	n/a	RESPONSE	M3	2	17	F4	press
405.894	n/a	RESPONSE	M3	2	00	C3	release
405.985	n/a	RESPONSE	M3	2	16	E4	release
406.247	n/a	RESPONSE	M3	2	19	G4	press
406.259	n/a	RESPONSE	M3	2	04	E3	press
406.31	n/a	RESPONSE	M3	2	17	F4	release
406.381	n/a	RESPONSE	M3	2	07	G3	release
406.652	n/a	RESPONSE	M3	2	07	G3	press
406.734	n/a	RESPONSE	M3	2	04	E3	release
406.746	n/a	RESPONSE	M3	2	19	G4	release
407.13	n/a	RESPONSE	M3	2	07	G3	release
408.271	7.758	FIXCROSS	n/a	n/a	n/a	n/a	n/a
416.029	6.317	CUE_LISTEN	M3	1	n/a	n/a	n/a
422.346	7.758	FIXCROSS	n/a	n/a	n/a	n/a	n/a
430.104	6.317	CUE_PLAYBACK_BOTH_HANDS	M3	1	n/a	n/a	n/a
430.955	n/a	RESPONSE	M3	1	00	C3	press
430.986	n/a	RESPONSE	M3	1	19	G4	press
431.287	n/a	RESPONSE	M3	1	21	A4	press
431.399	n/a	RESPONSE	M3	1	19	G4	release
431.56	n/a	RESPONSE	M3	1	19	G4	press
431.571	n/a	RESPONSE	M3	1	07	G3	press
431.592	n/a	RESPONSE	M3	1	21	A4	release
431.804	n/a	RESPONSE	M3	1	00	C3	release
431.885	n/a	RESPONSE	M3	1	17	F4	press
432.147	n/a	RESPONSE	M3	1	04	E3	press
432.169	n/a	RESPONSE	M3	1	19	G4	release
432.259	n/a	RESPONSE	M3	1	07	G3	release
432.65	n/a	RESPONSE	M3	1	07	G3	press
432.652	n/a	RESPONSE	M3	1	16	E4	press
432.682	n/a	RESPONSE	M3	1	17	F4	release
432.685	n/a	RESPONSE	M3	1	04	E3	release
432.886	n/a	RESPONSE	M3	1	16	E4	release
432.956	n/a	RESPONSE	M3	1	07	G3	release
433.277	n/a	RESPONSE	M3	1	00	C3	press
433.28	n/a	RESPONSE	M3	1	19	G4	press
433.54	n/a	RESPONSE	M3	1	21	A4	press
433.561	n/a	RESPONSE	M3	1	19	G4	release
433.792	n/a	RESPONSE	M3	1	19	G4	press
433.804	n/a	RESPONSE	M3	1	21	A4	release
433.806	n/a	RESPONSE	M3	1	07	G3	press
433.876	n/a	RESPONSE	M3	1	00	C3	release
434.06	n/a	RESPONSE	M3	1	17	F4	press
434.279	n/a	RESPONSE	M3	1	19	G4	release
434.281	n/a	RESPONSE	M3	1	04	E3	press
434.301	n/a	RESPONSE	M3	1	16	E4	press
434.335	n/a	RESPONSE	M3	1	07	G3	release
434.354	n/a	RESPONSE	M3	1	17	F4	release
434.755	n/a	RESPONSE	M3	1	07	G3	press
434.786	n/a	RESPONSE	M3	1	12	C4	press
434.827	n/a	RESPONSE	M3	1	04	E3	release
435.219	n/a	RESPONSE	M3	1	00	C3	press
435.221	n/a	RESPONSE	M3	1	16	E4	release
435.224	n/a	RESPONSE	M3	1	12	C4	release
435.232	n/a	RESPONSE	M3	1	19	G4	press
435.284	n/a	RESPONSE	M3	1	07	G3	release
435.495	n/a	RESPONSE	M3	1	21	A4	press
435.546	n/a	RESPONSE	M3	1	19	G4	release
435.729	n/a	RESPONSE	M3	1	21	A4	release
435.731	n/a	RESPONSE	M3	1	19	G4	press
435.74	n/a	RESPONSE	M3	1	07	G3	press
435.781	n/a	RESPONSE	M3	1	00	C3	release
436.012	n/a	RESPONSE	M3	1	17	F4	press
436.194	n/a	RESPONSE	M3	1	19	G4	release
436.196	n/a	RESPONSE	M3	1	04	E3	press
436.226	n/a	RESPONSE	M3	1	16	E4	press
436.271	n/a	RESPONSE	M3	1	07	G3	release
436.311	n/a	RESPONSE	M3	1	17	F4	release
436.421	7.758	FIXCROSS	n/a	n/a	n/a	n/a	n/a
436.684	n/a	RESPONSE	M3	1	07	G3	press
436.702	n/a	RESPONSE	M3	1	12	C4	press
436.736	n/a	RESPONSE	M3	1	04	E3	release
436.852	n/a	RESPONSE	M3	1	16	E4	release
437.21	n/a	RESPONSE	M3	1	12	C4	release
437.219	n/a	RESPONSE	M3	1	07	G3	release
444.179	6.325	CUE_LISTEN	M3	2	n/a	n/a	n/a
450.504	7.758	FIXCROSS	n/a	n/a	n/a	n/a	n/a
458.263	6.317	CUE_PLAYBACK_BOTH_HANDS	M3	2	n/a	n/a	n/a
459.916	n/a	RESPONSE	M3	2	00	C3	press
459.935	n/a	RESPONSE	M3	2	12	C4	press
460.402	n/a	RESPONSE	M3	2	07	G3	press
460.481	n/a	RESPONSE	M3	2	12	C4	release
460.554	n/a	RESPONSE	M3	2	00	C3	release
460.895	n/a	RESPONSE	M3	2	04	E3	press
460.905	n/a	RESPONSE	M3	2	12	C4	press
460.996	n/a	RESPONSE	M3	2	07	G3	release
461.457	n/a	RESPONSE	M3	2	04	E3	release
461.499	n/a	RESPONSE	M3	2	12	C4	release
461.74	n/a	RESPONSE	M3	2	12	C4	press
461.742	n/a	RESPONSE	M3	2	00	C3	press
462.192	n/a	RESPONSE	M3	2	07	G3	press
462.274	n/a	RESPONSE	M3	2	00	C3	release
462.277	n/a	RESPONSE	M3	2	12	C4	release
462.597	n/a	RESPONSE	M3	2	00	C3	press
462.627	n/a	RESPONSE	M3	2	12	C4	press
462.65	n/a	RESPONSE	M3	2	07	G3	release
463.51	n/a	RESPONSE	M3	2	12	C4	release
463.512	n/a	RESPONSE	M3	2	00	C3	release
464.579	7.758	FIXCROSS	n/a	n/a	n/a	n/a	n/a
472.338	6.317	CUE_LISTEN	M5	1	n/a	n/a	n/a
478.654	7.758	FIXCROSS	n/a	n/a	n/a	n/a	n/a
486.413	6.325	CUE_PLAYBACK_RIGHT_HAND	M5	1	n/a	n/a	n/a
486.839	n/a	RESPONSE	M5	1	21	A4	press
487.152	n/a	RESPONSE	M5	1	21	A4	release
487.251	n/a	RESPONSE	M5	1	21	A4	press
487.529	n/a	RESPONSE	M5	1	21	A4	release
487.639	n/a	RESPONSE	M5	1	21	A4	press
488.151	n/a	RESPONSE	M5	1	21	A4	release
488.384	n/a	RESPONSE	M5	1	21	A4	press
488.705	n/a	RESPONSE	M5	1	21	A4	release
488.796	n/a	RESPONSE	M5	1	21	A4	press
489.085	n/a	RESPONSE	M5	1	21	A4	release
489.192	n/a	RESPONSE	M5	1	21	A4	press
489.708	n/a	RESPONSE	M5	1	21	A4	release
489.887	n/a	RESPONSE	M5	1	21	A4	press
490.362	n/a	RESPONSE	M5	1	24	C5	press
490.754	n/a	RESPONSE	M5	1	17	F4	press
490.827	n/a	RESPONSE	M5	1	24	C5	release
490.866	n/a	RESPONSE	M5	1	21	A4	release
491.158	n/a	RESPONSE	M5	1	19	G4	press
491.24	n/a	RESPONSE	M5	1	17	F4	release
491.53	n/a	RESPONSE	M5	1	21	A4	press
491.621	n/a	RESPONSE	M5	1	19	G4	release
492.312	n/a	RESPONSE	M5	1	21	A4	release
492.738	7.758	FIXCROSS	n/a	n/a	n/a	n/a	n/a
500.496	6.317	CUE_LISTEN	M5	2	n/a	n/a	n/a
506.813	7.758	FIXCROSS	n/a	n/a	n/a	n/a	n/a
514.571	6.317	CUE_PLAYBACK_RIGHT_HAND	M5	2	n/a	n/a	n/a
515.151	n/a	RESPONSE	M5	2	22	A#4	press
515.46	n/a	RESPONSE	M5	2	22	A#4	release
515.521	n/a	RESPONSE	M5	2	22	A#4	press
515.812	n/a	RESPONSE	M5	2	22	A#4	release
515.906	n/a	RESPONSE	M5	2	22	A#4	press
516.165	n/a	RESPONSE	M5	2	22	A#4	release
516.28	n/a	RESPONSE	M5	2	22	A#4	press
516.519	n/a	RESPONSE	M5	2	22	A#4	release
516.64	n/a	RESPONSE	M5	2	22	A#4	press
517.052	n/a	RESPONSE	M5	2	21	A4	press
517.119	n/a	RESPONSE	M5	2	22	A#4	release
517.321	n/a	RESPONSE	M5	2	21	A4	release
517.421	n/a	RESPONSE	M5	2	21	A4	press
517.619	n/a	RESPONSE	M5	2	21	A4	release
517.755	n/a	RESPONSE	M5	2	21	A4	press
517.984	n/a	RESPONSE	M5	2	21	A4	release
518.126	n/a	RESPONSE	M5	2	21	A4	press
518.491	n/a	RESPONSE	M5	2	19	G4	press
518.511	n/a	RESPONSE	M5	2	21	A4	release
518.753	n/a	RESPONSE	M5	2	19	G4	release
518.851	n/a	RESPONSE	M5	2	19	G4	press
519.196	n/a	RESPONSE	M5	2	21	A4	press
519.215	n/a	RESPONSE	M5	2	19	G4	release
519.595	n/a	RESPONSE	M5	2	19	G4	press
519.696	n/a	RESPONSE	M5	2	21	A4	release
520.199	n/a	RESPONSE	M5	2	24	C5	press
520.269	n/a	RESPONSE	M5	2	19	G4	release
520.888	7.758	FIXCROSS	n/a	n/a	n/a	n/a	n/a
521.178	n/a	RESPONSE	M5	2	24	C5	release
528.646	6.325	CUE_LISTEN	M5	1	n/a	n/a	n/a
534.971	7.758	FIXCROSS	n/a	n/a	n/a	n/a	n/a
542.73	6.317	CUE_PLAYBACK_RIGHT_HAND	M5	1	n/a	n/a	n/a
543.331	n/a	RESPONSE	M5	1	21	A4	press
543.592	n/a	RESPONSE	M5	1	21	A4	release
543.684	n/a	RESPONSE	M5	1	21	A4	press
543.935	n/a	RESPONSE	M5	1	21	A4	release
544.016	n/a	RESPONSE	M5	1	21	A4	press
544.478	n/a	RESPONSE	M5	1	21	A4	release
544.649	n/a	RESPONSE	M5	1	21	A4	press
544.89	n/a	RESPONSE	M5	1	21	A4	release
545.021	n/a	RESPONSE	M5	1	21	A4	press
545.252	n/a	RESPONSE	M5	1	21	A4	release
545.364	n/a	RESPONSE	M5	1	21	A4	press
545.835	n/a	RESPONSE	M5	1	21	A4	release
545.976	n/a	RESPONSE	M5	1	21	A4	press
546.299	n/a	RESPONSE	M5	1	24	C5	press
546.38	n/a	RESPONSE	M5	1	21	A4	release
546.661	n/a	RESPONSE	M5	1	17	F4	press
546.96	n/a	RESPONSE	M5	1	19	G4	press
547.184	n/a	RESPONSE	M5	1	17	F4	release
547.238	n/a	RESPONSE	M5	1	24	C5	release
547.248	n/a	RESPONSE	M5	1	21	A4	press
547.388	n/a	RESPONSE	M5	1	19	G4	release
548.186	n/a	RESPONSE	M5	1	21	A4	release
549.046	7.758	FIXCROSS	n/a	n/a	n/a	n/a	n/a
556.805	6.325	CUE_LISTEN	M5	2	n/a	n/a	n/a
563.13	7.758	FIXCROSS	n/a	n/a	n/a	n/a	n/a
570.888	6.317	CUE_PLAYBACK_RIGHT_HAND	M5	2	n/a	n/a	n/a
571.575	n/a	RESPONSE	M5	2	22	A#4	press
571.836	n/a	RESPONSE	M5	2	22	A#4	release
571.928	n/a	RESPONSE	M5	2	22	A#4	press
572.211	n/a	RESPONSE	M5	2	22	A#4	release
572.3	n/a	RESPONSE	M5	2	22	A#4	press
572.581	n/a	RESPONSE	M5	2	22	A#4	release
572.662	n/a	RESPONSE	M5	2	22	A#4	press
572.904	n/a	RESPONSE	M5	2	22	A#4	release
573.005	n/a	RESPONSE	M5	2	22	A#4	press
573.389	n/a	RESPONSE	M5	2	21	A4	press
573.428	n/a	RESPONSE	M5	2	22	A#4	release
573.649	n/a	RESPONSE	M5	2	21	A4	release
573.76	n/a	RESPONSE	M5	2	21	A4	press
574.004	n/a	RESPONSE	M5	2	21	A4	release
574.136	n/a	RESPONSE	M5	2	21	A4	press
574.476	n/a	RESPONSE	M5	2	21	A4	release
574.529	n/a	RESPONSE	M5	2	24	C5	press
575.138	n/a	RESPONSE	M5	2	24	C5	release
575.249	n/a	RESPONSE	M5	2	24	C5	press
575.52	n/a	RESPONSE	M5	2	24	C5	release
575.821	n/a	RESPONSE	M5	2	22	A#4	press
576.162	n/a	RESPONSE	M5	2	19	G4	press
576.214	n/a	RESPONSE	M5	2	22	A#4	release
576.446	n/a	RESPONSE	M5	2	17	F4	press
576.548	n/a	RESPONSE	M5	2	19	G4	release
577.205	7.758	FIXCROSS	n/a	n/a	n/a	n/a	n/a
577.326	n/a	RESPONSE	M5	2	17	F4	release
584.963	6.317	CUE_LISTEN	M1	1	n/a	n/a	n/a
591.28	7.758	FIXCROSS	n/a	n/a	n/a	n/a	n/a
599.038	6.325	CUE_PLAYBACK_BOTH_HANDS	M1	1	n/a	n/a	n/a
601.249	n/a	RESPONSE	M1	1	17	F4	press
601.269	n/a	RESPONSE	M1	1	07	G3	press
601.271	n/a	RESPONSE	M1	1	00	C3	press
601.281	n/a	RESPONSE	M1	1	04	E3	press
601.735	n/a	RESPONSE	M1	1	17	F4	release
601.984	n/a	RESPONSE	M1	1	07	G3	release
602.025	n/a	RESPONSE	M1	1	04	E3	release
602.156	n/a	RESPONSE	M1	1	19	G4	press
602.168	n/a	RESPONSE	M1	1	04	E3	press
602.18	n/a	RESPONSE	M1	1	07	G3	press
602.58	n/a	RESPONSE	M1	1	19	G4	release
602.651	n/a	RESPONSE	M1	1	14	D4	press
602.932	n/a	RESPONSE	M1	1	14	D4	release
603.384	n/a	RESPONSE	M1	1	07	G3	release
604.545	n/a	RESPONSE	M1	1	17	F4	press
604.576	n/a	RESPONSE	M1	1	07	G3	press
604.968	n/a	RESPONSE	M1	1	17	F4	release
605.009	n/a	RESPONSE	M1	1	14	D4	press
605.25	n/a	RESPONSE	M1	1	14	D4	release
605.363	7.758	FIXCROSS	n/a	n/a	n/a	n/a	n/a
605.391	n/a	RESPONSE	M1	1	14	D4	press
605.452	n/a	RESPONSE	M1	1	00	C3	release
605.474	n/a	RESPONSE	M1	1	14	D4	release
605.505	n/a	RESPONSE	M1	1	04	E3	release
605.796	n/a	RESPONSE	M1	1	07	G3	release
605.998	n/a	RESPONSE	M1	1	17	F4	press
606.01	n/a	RESPONSE	M1	1	07	G3	press
606.02	n/a	RESPONSE	M1	1	04	E3	press
606.444	n/a	RESPONSE	M1	1	17	F4	release
606.524	n/a	RESPONSE	M1	1	07	G3	release
606.545	n/a	RESPONSE	M1	1	04	E3	release
611.71	n/a	RESPONSE	M1	1	19	G4	press
611.861	n/a	RESPONSE	M1	1	19	G4	release
613.122	6.317	CUE_LISTEN	M1	2	n/a	n/a	n/a
619.438	7.758	FIXCROSS	n/a	n/a	n/a	n/a	n/a
627.196	6.317	CUE_PLAYBACK_BOTH_HANDS	M1	2	n/a	n/a	n/a
628.058	n/a	RESPONSE	M1	2	19	G4	press
628.075	n/a	RESPONSE	M1	2	07	G3	press
628.081	n/a	RESPONSE	M1	2	04	E3	press
628.13	n/a	RESPONSE	M1	2	00	C3	press
628.469	n/a	RESPONSE	M1	2	19	G4	release
628.52	n/a	RESPONSE	M1	2	16	E4	press
628.766	n/a	RESPONSE	M1	2	16	E4	release
629.004	n/a	RESPONSE	M1	2	16	E4	press
629.205	n/a	RESPONSE	M1	2	00	C3	release
629.281	n/a	RESPONSE	M1	2	16	E4	release
629.31	n/a	RESPONSE	M1	2	04	E3	release
629.52	n/a	RESPONSE	M1	2	17	F4	press
629.526	n/a	RESPONSE	M1	2	02	D3	press
629.549	n/a	RESPONSE	M1	2	05	F3	press
629.976	n/a	RESPONSE	M1	2	17	F4	release
630.052	n/a	RESPONSE	M1	2	14	D4	press
630.326	n/a	RESPONSE	M1	2	14	D4	release
630.512	n/a	RESPONSE	M1	2	14	D4	press
630.856	n/a	RESPONSE	M1	2	05	F3	release
630.865	n/a	RESPONSE	M1	2	02	D3	release
630.876	n/a	RESPONSE	M1	2	14	D4	release
631.038	n/a	RESPONSE	M1	2	07	G3	release
631.239	n/a	RESPONSE	M1	2	12	C4	press
631.25	n/a	RESPONSE	M1	2	04	E3	press
631.252	n/a	RESPONSE	M1	2	07	G3	press
631.682	n/a	RESPONSE	M1	2	16	E4	press
631.734	n/a	RESPONSE	M1	2	12	C4	release
631.968	n/a	RESPONSE	M1	2	12	C4	press
632.279	n/a	RESPONSE	M1	2	16	E4	release
632.868	n/a	RESPONSE	M1	2	12	C4	release
632.989	n/a	RESPONSE	M1	2	04	E3	release
633.052	n/a	RESPONSE	M1	2	07	G3	release
633.513	7.758	FIXCROSS	n/a	n/a	n/a	n/a	n/a
641.272	6.325	CUE_LISTEN	M4	1	n/a	n/a	n/a
647.596	7.758	FIXCROSS	n/a	n/a	n/a	n/a	n/a
655.355	6.317	CUE_PLAYBACK_RIGHT_HAND	M4	1	n/a	n/a	n/a
655.878	n/a	RESPONSE	M4	1	12	C4	press
656.381	n/a	RESPONSE	M4	1	17	F4	press
656.561	n/a	RESPONSE	M4	1	12	C4	release
656.921	n/a	RESPONSE	M4	1	21	A4	press
657.026	n/a	RESPONSE	M4	1	17	F4	release
657.306	n/a	RESPONSE	M4	1	19	G4	press
657.441	n/a	RESPONSE	M4	1	21	A4	release
657.716	n/a	RESPONSE	M4	1	17	F4	press
657.822	n/a	RESPONSE	M4	1	19	G4	release
658.121	n/a	RESPONSE	M4	1	16	E4	press
658.225	n/a	RESPONSE	M4	1	17	F4	release
658.492	n/a	RESPONSE	M4	1	17	F4	press
658.62	n/a	RESPONSE	M4	1	16	E4	release
659.218	n/a	RESPONSE	M4	1	17	F4	release
659.508	n/a	RESPONSE	M4	1	12	C4	press
659.874	n/a	RESPONSE	M4	1	17	F4	press
660.01	n/a	RESPONSE	M4	1	12	C4	release
660.354	n/a	RESPONSE	M4	1	17	F4	release
660.508	n/a	RESPONSE	M4	1	17	F4	press
660.969	n/a	RESPONSE	M4	1	21	A4	press
661.02	n/a	RESPONSE	M4	1	17	F4	release
661.381	n/a	RESPONSE	M4	1	19	G4	press
661.484	n/a	RESPONSE	M4	1	21	A4	release
661.672	7.758	FIXCROSS	n/a	n/a	n/a	n/a	n/a
661.804	n/a	RESPONSE	M4	1	17	F4	press
661.908	n/a	RESPONSE	M4	1	19	G4	release
662.156	n/a	RESPONSE	M4	1	16	E4	press
662.238	n/a	RESPONSE	M4	1	17	F4	release
662.5	n/a	RESPONSE	M4	1	17	F4	press
662.61	n/a	RESPONSE	M4	1	16	E4	release
663.251	n/a	RESPONSE	M4	1	17	F4	release
669.43	6.317	CUE_LISTEN	M4	2	n/a	n/a	n/a
675.747	7.758	FIXCROSS	n/a	n/a	n/a	n/a	n/a
683.505	6.325	CUE_PLAYBACK_RIGHT_HAND	M4	2	n/a	n/a	n/a
683.88	n/a	RESPONSE	M4	2	12	C4	press
684.311	n/a	RESPONSE	M4	2	17	F4	press
684.354	n/a	RESPONSE	M4	2	12	C4	release
684.954	n/a	RESPONSE	M4	2	21	A4	press
685.045	n/a	RESPONSE	M4	2	17	F4	release
685.986	n/a	RESPONSE	M4	2	24	C5	press
686.068	n/a	RESPONSE	M4	2	21	A4	release
686.601	n/a	RESPONSE	M4	2	22	A#4	press
686.701	n/a	RESPONSE	M4	2	24	C5	release
686.93	n/a	RESPONSE	M4	2	21	A4	press
687.008	n/a	RESPONSE	M4	2	22	A#4	release
687.305	n/a	RESPONSE	M4	2	19	G4	press
687.531	n/a	RESPONSE	M4	2	21	A4	release
688.019	n/a	RESPONSE	M4	2	19	G4	release
688.942	n/a	RESPONSE	M4	2	12	C4	press
689.534	n/a	RESPONSE	M4	2	17	F4	press
689.614	n/a	RESPONSE	M4	2	12	C4	release
689.83	7.759	FIXCROSS	n/a	n/a	n/a	n/a	n/a
690.431	n/a	RESPONSE	M4	2	12	C4	press
690.521	n/a	RESPONSE	M4	2	17	F4	release
690.872	n/a	RESPONSE	M4	2	16	E4	press
691.014	n/a	RESPONSE	M4	2	12	C4	release
691.345	n/a	RESPONSE	M4	2	17	F4	press
691.348	n/a	RESPONSE	M4	2	19	G4	press
691.428	n/a	RESPONSE	M4	2	16	E4	release
691.51	n/a	RESPONSE	M4	2	19	G4	release
692.03	n/a	RESPONSE	M4	2	17	F4	release
692.631	n/a	RESPONSE	M4	2	12	C4	press
693.012	n/a	RESPONSE	M4	2	16	E4	press
693.116	n/a	RESPONSE	M4	2	12	C4	release
693.275	n/a	RESPONSE	M4	2	16	E4	release
693.278	n/a	RESPONSE	M4	2	17	F4	press
693.828	n/a	RESPONSE	M4	2	17	F4	release
694.559	n/a	RESPONSE	M4	2	19	G4	press
694.871	n/a	RESPONSE	M4	2	19	G4	release
695.221	n/a	RESPONSE	M4	2	20	G#4	press
695.462	n/a	RESPONSE	M4	2	20	G#4	release
697.588	6.317	CUE_LISTEN	M2	1	n/a	n/a	n/a
703.905	7.758	FIXCROSS	n/a	n/a	n/a	n/a	n/a
711.663	6.317	CUE_PLAYBACK_BOTH_HANDS	M2	1	n/a	n/a	n/a
712.635	n/a	RESPONSE	M2	1	00	C3	press
712.646	n/a	RESPONSE	M2	1	24	C5	press
712.649	n/a	RESPONSE	M2	1	07	G3	press
713.059	n/a	RESPONSE	M2	1	19	G4	press
713.181	n/a	RESPONSE	M2	1	24	C5	release
713.381	n/a	RESPONSE	M2	1	07	G3	release
713.394	n/a	RESPONSE	M2	1	19	G4	release
713.444	n/a	RESPONSE	M2	1	00	C3	release
713.495	n/a	RESPONSE	M2	1	19	G4	press
713.506	n/a	RESPONSE	M2	1	00	C3	press
713.509	n/a	RESPONSE	M2	1	07	G3	press
713.939	n/a	RESPONSE	M2	1	17	F4	press
714.032	n/a	RESPONSE	M2	1	19	G4	release
714.264	n/a	RESPONSE	M2	1	07	G3	release
714.333	n/a	RESPONSE	M2	1	17	F4	release
714.334	n/a	RESPONSE	M2	1	16	E4	press
714.365	n/a	RESPONSE	M2	1	07	G3	press
714.746	n/a	RESPONSE	M2	1	17	F4	press
714.868	n/a	RESPONSE	M2	1	16	E4	release
715.071	n/a	RESPONSE	M2	1	17	F4	release
715.08	n/a	RESPONSE	M2	1	00	C3	release
715.101	n/a	RESPONSE	M2	1	07	G3	release
715.172	n/a	RESPONSE	M2	1	19	G4	press
715.184	n/a	RESPONSE	M2	1	00	C3	press
715.186	n/a	RESPONSE	M2	1	07	G3	press
716.059	n/a	RESPONSE	M2	1	19	G4	release
716.061	n/a	RESPONSE	M2	1	00	C3	release
716.13	n/a	RESPONSE	M2	1	07	G3	release
717.98	7.758	FIXCROSS	n/a	n/a	n/a	n/a	n/a
725.738	6.325	CUE_LISTEN	M2	2	n/a	n/a	n/a
732.063	7.758	FIXCROSS	n/a	n/a	n/a	n/a	n/a
739.822	6.317	CUE_PLAYBACK_BOTH_HANDS	M2	2	n/a	n/a	n/a
740.404	n/a	RESPONSE	M2	2	00	C3	press
740.406	n/a	RESPONSE	M2	2	24	C5	press
740.409	n/a	RESPONSE	M2	2	07	G3	press
740.918	n/a	RESPONSE	M2	2	19	G4	press
741.07	n/a	RESPONSE	M2	2	24	C5	release
741.16	n/a	RESPONSE	M2	2	19	G4	release
741.204	n/a	RESPONSE	M2	2	07	G3	release
741.213	n/a	RESPONSE	M2	2	00	C3	release
741.324	n/a	RESPONSE	M2	2	00	C3	press
741.326	n/a	RESPONSE	M2	2	07	G3	press
741.329	n/a	RESPONSE	M2	2	19	G4	press
741.778	n/a	RESPONSE	M2	2	17	F4	press
741.849	n/a	RESPONSE	M2	2	19	G4	release
742.07	n/a	RESPONSE	M2	2	07	G3	release
742.101	n/a	RESPONSE	M2	2	00	C3	release
742.123	n/a	RESPONSE	M2	2	17	F4	release
742.206	n/a	RESPONSE	M2	2	16	E4	press
742.215	n/a	RESPONSE	M2	2	07	G3	press
742.218	n/a	RESPONSE	M2	2	00	C3	press
742.658	n/a	RESPONSE	M2	2	14	D4	press
742.849	n/a	RESPONSE	M2	2	16	E4	release
742.971	n/a	RESPONSE	M2	2	07	G3	release
743.001	n/a	RESPONSE	M2	2	14	D4	release
743.015	n/a	RESPONSE	M2	2	00	C3	release
743.134	n/a	RESPONSE	M2	2	00	C3	press
743.136	n/a	RESPONSE	M2	2	12	C4	press
743.146	n/a	RESPONSE	M2	2	07	G3	press
743.979	n/a	RESPONSE	M2	2	12	C4	release
744.009	n/a	RESPONSE	M2	2	00	C3	release
744.15	n/a	RESPONSE	M2	2	07	G3	release
746.138	7.758	FIXCROSS	n/a	n/a	n/a	n/a	n/a
753.897	6.325	CUE_LISTEN	M2	1	n/a	n/a	n/a
760.222	7.758	FIXCROSS	n/a	n/a	n/a	n/a	n/a
767.98	6.317	CUE_PLAYBACK_BOTH_HANDS	M2	1	n/a	n/a	n/a
768.911	n/a	RESPONSE	M2	1	00	C3	press
768.923	n/a	RESPONSE	M2	1	07	G3	press
768.929	n/a	RESPONSE	M2	1	12	C4	press
769.369	n/a	RESPONSE	M2	1	16	E4	press
769.475	n/a	RESPONSE	M2	1	12	C4	release
769.764	n/a	RESPONSE	M2	1	16	E4	release
769.818	n/a	RESPONSE	M2	1	07	G3	release
769.882	n/a	RESPONSE	M2	1	00	C3	release
770.368	n/a	RESPONSE	M2	1	00	C3	press
770.37	n/a	RESPONSE	M2	1	12	C4	press
770.381	n/a	RESPONSE	M2	1	07	G3	press
770.774	n/a	RESPONSE	M2	1	12	C4	release
770.784	n/a	RESPONSE	M2	1	16	E4	press
771.035	n/a	RESPONSE	M2	1	16	E4	release
771.106	n/a	RESPONSE	M2	1	07	G3	release
771.148	n/a	RESPONSE	M2	1	00	C3	release
772.219	n/a	RESPONSE	M2	1	12	C4	press
772.531	n/a	RESPONSE	M2	1	14	D4	press
772.631	n/a	RESPONSE	M2	1	12	C4	release
772.755	n/a	RESPONSE	M2	1	14	D4	release
773.194	n/a	RESPONSE	M2	1	07	G3	press
773.196	n/a	RESPONSE	M2	1	00	C3	press
773.199	n/a	RESPONSE	M2	1	12	C4	press
773.568	n/a	RESPONSE	M2	1	14	D4	press
773.7	n/a	RESPONSE	M2	1	12	C4	release
773.8	n/a	RESPONSE	M2	1	00	C3	release
773.803	n/a	RESPONSE	M2	1	14	D4	release
773.805	n/a	RESPONSE	M2	1	07	G3	release
773.906	n/a	RESPONSE	M2	1	00	C3	press
773.915	n/a	RESPONSE	M2	1	16	E4	press
773.936	n/a	RESPONSE	M2	1	07	G3	press
774.258	n/a	RESPONSE	M2	1	14	D4	press
774.297	7.759	FIXCROSS	n/a	n/a	n/a	n/a	n/a
774.341	n/a	RESPONSE	M2	1	16	E4	release
774.42	n/a	RESPONSE	M2	1	00	C3	release
774.461	n/a	RESPONSE	M2	1	14	D4	release
774.465	n/a	RESPONSE	M2	1	07	G3	release
774.584	n/a	RESPONSE	M2	1	00	C3	press
774.586	n/a	RESPONSE	M2	1	16	E4	press
774.589	n/a	RESPONSE	M2	1	07	G3	press
774.948	n/a	RESPONSE	M2	1	17	F4	press
775.02	n/a	RESPONSE	M2	1	16	E4	release
775.17	n/a	RESPONSE	M2	1	00	C3	release
775.194	n/a	RESPONSE	M2	1	07	G3	release
775.233	n/a	RESPONSE	M2	1	17	F4	release
775.364	n/a	RESPONSE	M2	1	19	G4	press
775.375	n/a	RESPONSE	M2	1	00	C3	press
775.386	n/a	RESPONSE	M2	1	07	G3	press
776.15	n/a	RESPONSE	M2	1	00	C3	release
776.179	n/a	RESPONSE	M2	1	19	G4	release
776.23	n/a	RESPONSE	M2	1	07	G3	release
782.055	6.325	CUE_LISTEN	M2	2	n/a	n/a	n/a
788.38	7.758	FIXCROSS	n/a	n/a	n/a	n/a	n/a
796.139	6.317	CUE_PLAYBACK_BOTH_HANDS	M2	2	n/a	n/a	n/a
797.475	n/a	RESPONSE	M2	2	00	C3	press
797.48	n/a	RESPONSE	M2	2	16	E4	press
797.494	n/a	RESPONSE	M2	2	07	G3	press
797.916	n/a	RESPONSE	M2	2	19	G4	press
798.068	n/a	RESPONSE	M2	2	16	E4	release
798.165	n/a	RESPONSE	M2	2	00	C3	release
798.188	n/a	RESPONSE	M2	2	07	G3	release
798.233	n/a	RESPONSE	M2	2	19	G4	release
798.345	n/a	RESPONSE	M2	2	00	C3	press
798.356	n/a	RESPONSE	M2	2	19	G4	press
798.369	n/a	RESPONSE	M2	2	07	G3	press
798.753	n/a	RESPONSE	M2	2	19	G4	release
798.774	n/a	RESPONSE	M2	2	17	F4	press
799.046	n/a	RESPONSE	M2	2	00	C3	release
799.065	n/a	RESPONSE	M2	2	07	G3	release
799.096	n/a	RESPONSE	M2	2	17	F4	release
799.213	n/a	RESPONSE	M2	2	00	C3	press
799.219	n/a	RESPONSE	M2	2	07	G3	press
799.23	n/a	RESPONSE	M2	2	16	E4	press
799.643	n/a	RESPONSE	M2	2	14	D4	press
799.673	n/a	RESPONSE	M2	2	16	E4	release
799.865	n/a	RESPONSE	M2	2	00	C3	release
799.9	n/a	RESPONSE	M2	2	07	G3	release
799.914	n/a	RESPONSE	M2	2	14	D4	release
800.1	n/a	RESPONSE	M2	2	00	C3	press
800.103	n/a	RESPONSE	M2	2	07	G3	press
800.105	n/a	RESPONSE	M2	2	12	C4	press
800.895	n/a	RESPONSE	M2	2	00	C3	release
801.016	n/a	RESPONSE	M2	2	12	C4	release
801.318	n/a	RESPONSE	M2	2	07	G3	release
802.455	7.759	FIXCROSS	n/a	n/a	n/a	n/a	n/a
810.214	6.317	CUE_LISTEN	M3	1	n/a	n/a	n/a
816.53	7.758	FIXCROSS	n/a	n/a	n/a	n/a	n/a
824.289	6.317	CUE_PLAYBACK_RIGHT_HAND	M3	1	n/a	n/a	n/a
824.741	n/a	RESPONSE	M3	1	12	C4	press
825.185	n/a	RESPONSE	M3	1	14	D4	press
825.264	n/a	RESPONSE	M3	1	12	C4	release
825.655	n/a	RESPONSE	M3	1	16	E4	press
825.839	n/a	RESPONSE	M3	1	14	D4	release
826.099	n/a	RESPONSE	M3	1	12	C4	press
826.17	n/a	RESPONSE	M3	1	16	E4	release
826.413	n/a	RESPONSE	M3	1	12	C4	release
826.514	n/a	RESPONSE	M3	1	12	C4	press
826.984	n/a	RESPONSE	M3	1	14	D4	press
827.03	n/a	RESPONSE	M3	1	12	C4	release
827.39	n/a	RESPONSE	M3	1	16	E4	press
827.485	n/a	RESPONSE	M3	1	14	D4	release
827.85	n/a	RESPONSE	M3	1	12	C4	press
827.905	n/a	RESPONSE	M3	1	16	E4	release
828.486	n/a	RESPONSE	M3	1	12	C4	release
830.605	7.758	FIXCROSS	n/a	n/a	n/a	n/a	n/a
838.364	6.325	CUE_LISTEN	M3	2	n/a	n/a	n/a
844.689	7.758	FIXCROSS	n/a	n/a	n/a	n/a	n/a
852.447	6.317	CUE_PLAYBACK_RIGHT_HAND	M3	2	n/a	n/a	n/a
853.064	n/a	RESPONSE	M3	2	16	E4	press
853.515	n/a	RESPONSE	M3	2	17	F4	press
853.686	n/a	RESPONSE	M3	2	16	E4	release
853.969	n/a	RESPONSE	M3	2	19	G4	press
854.129	n/a	RESPONSE	M3	2	17	F4	release
854.65	n/a	RESPONSE	M3	2	19	G4	release
854.791	n/a	RESPONSE	M3	2	16	E4	press
855.235	n/a	RESPONSE	M3	2	17	F4	press
855.244	n/a	RESPONSE	M3	2	16	E4	release
855.645	n/a	RESPONSE	M3	2	19	G4	press
855.686	n/a	RESPONSE	M3	2	17	F4	release
856.449	n/a	RESPONSE	M3	2	19	G4	release
858.764	7.758	FIXCROSS	n/a	n/a	n/a	n/a	n/a
866.522	6.317	CUE_LISTEN	M3	1	n/a	n/a	n/a
872.839	7.759	FIXCROSS	n/a	n/a	n/a	n/a	n/a
880.597	6.325	CUE_PLAYBACK_RIGHT_HAND	M3	1	n/a	n/a	n/a
881.469	n/a	RESPONSE	M3	1	19	G4	press
881.77	n/a	RESPONSE	M3	1	21	A4	press
881.839	n/a	RESPONSE	M3	1	19	G4	release
882.04	n/a	RESPONSE	M3	1	19	G4	press
882.091	n/a	RESPONSE	M3	1	21	A4	release
882.305	n/a	RESPONSE	M3	1	17	F4	press
882.434	n/a	RESPONSE	M3	1	19	G4	release
882.575	n/a	RESPONSE	M3	1	16	E4	press
882.646	n/a	RESPONSE	M3	1	17	F4	release
883.148	n/a	RESPONSE	M3	1	14	D4	press
883.269	n/a	RESPONSE	M3	1	16	E4	release
883.51	n/a	RESPONSE	M3	1	14	D4	release
883.763	n/a	RESPONSE	M3	1	19	G4	press
884.033	n/a	RESPONSE	M3	1	21	A4	press
884.084	n/a	RESPONSE	M3	1	19	G4	release
884.216	n/a	RESPONSE	M3	1	19	G4	press
884.236	n/a	RESPONSE	M3	1	21	A4	release
884.708	n/a	RESPONSE	M3	1	17	F4	press
884.809	n/a	RESPONSE	M3	1	19	G4	release
885.05	n/a	RESPONSE	M3	1	16	E4	press
885.121	n/a	RESPONSE	M3	1	17	F4	release
885.803	n/a	RESPONSE	M3	1	16	E4	release
885.824	n/a	RESPONSE	M3	1	12	C4	press
886.366	n/a	RESPONSE	M3	1	12	C4	release
886.922	7.758	FIXCROSS	n/a	n/a	n/a	n/a	n/a
887.025	n/a	RESPONSE	M3	1	19	G4	press
887.389	n/a	RESPONSE	M3	1	21	A4	press
887.438	n/a	RESPONSE	M3	1	19	G4	release
887.613	n/a	RESPONSE	M3	1	19	G4	press
887.683	n/a	RESPONSE	M3	1	21	A4	release
887.876	n/a	RESPONSE	M3	1	17	F4	press
888.043	n/a	RESPONSE	M3	1	19	G4	release
888.135	n/a	RESPONSE	M3	1	16	E4	press
888.154	n/a	RESPONSE	M3	1	17	F4	release
888.728	n/a	RESPONSE	M3	1	12	C4	press
888.735	n/a	RESPONSE	M3	1	16	E4	release
889.175	n/a	RESPONSE	M3	1	12	C4	release
894.68	6.317	CUE_LISTEN	M3	2	n/a	n/a	n/a
900.997	7.758	FIXCROSS	n/a	n/a	n/a	n/a	n/a
908.756	198.659	CUE_PLAYBACK_RIGHT_HAND	M3	2	n/a	n/a	n/a
909.518	n/a	RESPONSE	M3	2	12	C4	press
910.021	n/a	RESPONSE	M3	2	07	G3	press
910.031	n/a	RESPONSE	M3	2	12	C4	release
910.436	n/a	RESPONSE	M3	2	12	C4	press
910.951	n/a	RESPONSE	M3	2	12	C4	release
910.963	n/a	RESPONSE	M3	2	07	G3	release
911.206	n/a	RESPONSE	M3	2	12	C4	press
911.665	n/a	RESPONSE	M3	2	07	G3	press
911.849	n/a	RESPONSE	M3	2	12	C4	release
912.168	n/a	RESPONSE	M3	2	12	C4	press
912.83	n/a	RESPONSE	M3	2	07	G3	release
912.833	n/a	RESPONSE	M3	2	12	C4	release
913.254	n/a	FIXCROSS	n/a	n/a	n/a	n/a	n/a
926.616	n/a	RESPONSE	M3	2	21	A4	press
926.648	n/a	RESPONSE	M3	2	23	B4	press
926.769	n/a	RESPONSE	M3	2	21	A4	release
926.849	n/a	RESPONSE	M3	2	23	B4	release
