onset	duration	trial_type	melody_number	melody_part	key	sound	action
0.0	14.085	CUE_START	n/a	n/a	n/a	n/a	n/a
14.086	7.76	FIXCROSS	n/a	n/a	n/a	n/a	n/a
21.845	6.316	CUE_LISTEN	M1	1	n/a	n/a	n/a
28.161	7.758	FIXCROSS	n/a	n/a	n/a	n/a	n/a
35.919	6.325	CUE_PLAYBACK_RIGHT_HAND	M1	1	n/a	n/a	n/a
36.545	n/a	RESPONSE	M1	1	19	G4	press
37.156	n/a	RESPONSE	M1	1	19	G4	release
37.488	n/a	RESPONSE	M1	1	16	E4	press
37.889	n/a	RESPONSE	M1	1	16	E4	release
38.022	n/a	RESPONSE	M1	1	16	E4	press
38.362	n/a	RESPONSE	M1	1	16	E4	release
38.574	n/a	RESPONSE	M1	1	17	F4	press
38.984	n/a	RESPONSE	M1	1	17	F4	release
39.205	n/a	RESPONSE	M1	1	14	D4	press
39.526	n/a	RESPONSE	M1	1	14	D4	release
39.778	n/a	RESPONSE	M1	1	14	D4	press
40.032	n/a	RESPONSE	M1	1	14	D4	release
40.403	n/a	RESPONSE	M1	1	12	C4	press
40.692	n/a	RESPONSE	M1	1	16	E4	press
40.703	n/a	RESPONSE	M1	1	12	C4	release
41.024	n/a	RESPONSE	M1	1	16	E4	release
41.13	n/a	RESPONSE	M1	1	19	G4	press
41.949	n/a	RESPONSE	M1	1	19	G4	release
42.244	7.767	FIXCROSS	n/a	n/a	n/a	n/a	n/a
50.011	6.308	CUE_LISTEN	M1	2	n/a	n/a	n/a
56.319	7.758	FIXCROSS	n/a	n/a	n/a	n/a	n/a
64.078	6.317	CUE_PLAYBACK_RIGHT_HAND	M1	2	n/a	n/a	n/a
64.832	n/a	RESPONSE	M1	2	19	G4	press
65.2	n/a	RESPONSE	M1	2	19	G4	release
65.504	n/a	RESPONSE	M1	2	14	D4	press
65.883	n/a	RESPONSE	M1	2	14	D4	release
66.354	n/a	RESPONSE	M1	2	19	G4	press
66.635	n/a	RESPONSE	M1	2	19	G4	release
66.957	n/a	RESPONSE	M1	2	16	E4	press
67.318	n/a	RESPONSE	M1	2	16	E4	release
67.552	n/a	RESPONSE	M1	2	16	E4	press
67.942	n/a	RESPONSE	M1	2	16	E4	release
68.142	n/a	RESPONSE	M1	2	17	F4	press
68.533	n/a	RESPONSE	M1	2	17	F4	release
68.764	n/a	RESPONSE	M1	2	14	D4	press
69.065	n/a	RESPONSE	M1	2	14	D4	release
69.367	n/a	RESPONSE	M1	2	14	D4	press
69.65	n/a	RESPONSE	M1	2	14	D4	release
70.049	n/a	RESPONSE	M1	2	12	C4	press
70.36	n/a	RESPONSE	M1	2	16	E4	press
70.382	n/a	RESPONSE	M1	2	12	C4	release
70.394	7.758	FIXCROSS	n/a	n/a	n/a	n/a	n/a
70.743	n/a	RESPONSE	M1	2	16	E4	release
70.754	n/a	RESPONSE	M1	2	12	C4	press
71.752	n/a	RESPONSE	M1	2	12	C4	release
78.153	6.325	CUE_LISTEN	M1	1	n/a	n/a	n/a
84.478	7.758	FIXCROSS	n/a	n/a	n/a	n/a	n/a
92.236	6.317	CUE_PLAYBACK_BOTH_HANDS	M1	1	n/a	n/a	n/a
92.907	n/a	RESPONSE	M1	1	19	G4	press
92.914	n/a	RESPONSE	M1	1	07	G3	press
93.283	n/a	RESPONSE	M1	1	19	G4	release
93.412	n/a	RESPONSE	M1	1	07	G3	release
93.548	n/a	RESPONSE	M1	1	04	E3	press
93.568	n/a	RESPONSE	M1	1	16	E4	press
93.963	n/a	RESPONSE	M1	1	16	E4	release
93.983	n/a	RESPONSE	M1	1	04	E3	release
94.132	n/a	RESPONSE	M1	1	04	E3	press
94.142	n/a	RESPONSE	M1	1	16	E4	press
94.504	n/a	RESPONSE	M1	1	04	E3	release
94.53	n/a	RESPONSE	M1	1	16	E4	release
94.755	n/a	RESPONSE	M1	1	05	F3	press
94.764	n/a	RESPONSE	M1	1	17	F4	press
95.158	n/a	RESPONSE	M1	1	17	F4	release
95.197	n/a	RESPONSE	M1	1	05	F3	release
95.398	n/a	RESPONSE	M1	1	02	D3	press
95.412	n/a	RESPONSE	M1	1	14	D4	press
95.75	n/a	RESPONSE	M1	1	14	D4	release
96.032	n/a	RESPONSE	M1	1	14	D4	press
96.313	n/a	RESPONSE	M1	1	14	D4	release
96.374	n/a	RESPONSE	M1	1	02	D3	release
96.617	n/a	RESPONSE	M1	1	00	C3	press
96.657	n/a	RESPONSE	M1	1	12	C4	press
96.929	n/a	RESPONSE	M1	1	00	C3	release
96.932	n/a	RESPONSE	M1	1	12	C4	release
96.984	n/a	RESPONSE	M1	1	04	E3	press
97.015	n/a	RESPONSE	M1	1	16	E4	press
97.244	n/a	RESPONSE	M1	1	16	E4	release
97.265	n/a	RESPONSE	M1	1	04	E3	release
97.367	n/a	RESPONSE	M1	1	07	G3	press
97.398	n/a	RESPONSE	M1	1	19	G4	press
98.219	n/a	RESPONSE	M1	1	19	G4	release
98.293	n/a	RESPONSE	M1	1	07	G3	release
98.553	7.758	FIXCROSS	n/a	n/a	n/a	n/a	n/a
106.311	6.317	CUE_LISTEN	M1	2	n/a	n/a	n/a
112.628	7.758	FIXCROSS	n/a	n/a	n/a	n/a	n/a
120.386	6.325	CUE_PLAYBACK_BOTH_HANDS	M1	2	n/a	n/a	n/a
121.029	n/a	RESPONSE	M1	2	19	G4	press
121.062	n/a	RESPONSE	M1	2	07	G3	press
121.422	n/a	RESPONSE	M1	2	19	G4	release
121.582	n/a	RESPONSE	M1	2	07	G3	release
121.659	n/a	RESPONSE	M1	2	04	E3	press
121.69	n/a	RESPONSE	M1	2	16	E4	press
122.037	n/a	RESPONSE	M1	2	16	E4	release
122.282	n/a	RESPONSE	M1	2	16	E4	press
122.677	n/a	RESPONSE	M1	2	16	E4	release
122.684	n/a	RESPONSE	M1	2	04	E3	release
122.913	n/a	RESPONSE	M1	2	05	F3	press
122.922	n/a	RESPONSE	M1	2	17	F4	press
123.239	n/a	RESPONSE	M1	2	17	F4	release
123.322	n/a	RESPONSE	M1	2	05	F3	release
123.517	n/a	RESPONSE	M1	2	02	D3	press
123.558	n/a	RESPONSE	M1	2	14	D4	press
123.987	n/a	RESPONSE	M1	2	14	D4	release
124.183	n/a	RESPONSE	M1	2	14	D4	press
124.464	n/a	RESPONSE	M1	2	14	D4	release
124.569	n/a	RESPONSE	M1	2	02	D3	release
124.779	n/a	RESPONSE	M1	2	00	C3	press
124.84	n/a	RESPONSE	M1	2	12	C4	press
125.089	n/a	RESPONSE	M1	2	12	C4	release
125.092	n/a	RESPONSE	M1	2	00	C3	release
125.152	n/a	RESPONSE	M1	2	04	E3	press
125.194	n/a	RESPONSE	M1	2	16	E4	press
125.444	n/a	RESPONSE	M1	2	16	E4	release
125.465	n/a	RESPONSE	M1	2	04	E3	release
125.498	n/a	RESPONSE	M1	2	00	C3	press
125.608	n/a	RESPONSE	M1	2	12	C4	press
126.38	n/a	RESPONSE	M1	2	12	C4	release
126.483	n/a	RESPONSE	M1	2	00	C3	release
126.711	7.759	FIXCROSS	n/a	n/a	n/a	n/a	n/a
134.47	6.317	CUE_LISTEN	M1	1	n/a	n/a	n/a
140.786	7.758	FIXCROSS	n/a	n/a	n/a	n/a	n/a
148.544	6.317	CUE_PLAYBACK_RIGHT_HAND	M1	1	n/a	n/a	n/a
149.093	n/a	RESPONSE	M1	1	19	G4	press
149.534	n/a	RESPONSE	M1	1	19	G4	release
149.775	n/a	RESPONSE	M1	1	16	E4	press
150.127	n/a	RESPONSE	M1	1	16	E4	release
150.328	n/a	RESPONSE	M1	1	16	E4	press
150.699	n/a	RESPONSE	M1	1	16	E4	release
150.91	n/a	RESPONSE	M1	1	17	F4	press
151.262	n/a	RESPONSE	M1	1	17	F4	release
151.527	n/a	RESPONSE	M1	1	14	D4	press
151.847	n/a	RESPONSE	M1	1	14	D4	release
152.142	n/a	RESPONSE	M1	1	14	D4	press
152.418	n/a	RESPONSE	M1	1	14	D4	release
152.81	n/a	RESPONSE	M1	1	12	C4	press
153.107	n/a	RESPONSE	M1	1	16	E4	press
153.148	n/a	RESPONSE	M1	1	12	C4	release
153.457	n/a	RESPONSE	M1	1	16	E4	release
153.474	n/a	RESPONSE	M1	1	19	G4	press
154.356	n/a	RESPONSE	M1	1	19	G4	release
154.861	7.758	FIXCROSS	n/a	n/a	n/a	n/a	n/a
162.62	6.325	CUE_LISTEN	M1	2	n/a	n/a	n/a
168.944	7.758	FIXCROSS	n/a	n/a	n/a	n/a	n/a
176.703	6.317	CUE_PLAYBACK_RIGHT_HAND	M1	2	n/a	n/a	n/a
177.284	n/a	RESPONSE	M1	2	19	G4	press
177.666	n/a	RESPONSE	M1	2	19	G4	release
177.927	n/a	RESPONSE	M1	2	16	E4	press
178.308	n/a	RESPONSE	M1	2	16	E4	release
178.509	n/a	RESPONSE	M1	2	16	E4	press
178.872	n/a	RESPONSE	M1	2	16	E4	release
179.092	n/a	RESPONSE	M1	2	17	F4	press
179.453	n/a	RESPONSE	M1	2	17	F4	release
179.707	n/a	RESPONSE	M1	2	14	D4	press
180.098	n/a	RESPONSE	M1	2	14	D4	release
180.329	n/a	RESPONSE	M1	2	14	D4	press
180.63	n/a	RESPONSE	M1	2	14	D4	release
181.029	n/a	RESPONSE	M1	2	12	C4	press
181.357	n/a	RESPONSE	M1	2	16	E4	press
181.42	n/a	RESPONSE	M1	2	12	C4	release
181.723	n/a	RESPONSE	M1	2	12	C4	press
181.81	n/a	RESPONSE	M1	2	16	E4	release
182.626	n/a	RESPONSE	M1	2	12	C4	release
183.02	7.758	FIXCROSS	n/a	n/a	n/a	n/a	n/a
190.778	6.317	CUE_LISTEN	M1	1	n/a	n/a	n/a
197.095	7.758	FIXCROSS	n/a	n/a	n/a	n/a	n/a
204.853	6.325	CUE_PLAYBACK_BOTH_HANDS	M1	1	n/a	n/a	n/a
205.347	n/a	RESPONSE	M1	1	19	G4	press
205.378	n/a	RESPONSE	M1	1	07	G3	press
205.719	n/a	RESPONSE	M1	1	19	G4	release
205.84	n/a	RESPONSE	M1	1	07	G3	release
206.002	n/a	RESPONSE	M1	1	04	E3	press
206.004	n/a	RESPONSE	M1	1	16	E4	press
206.367	n/a	RESPONSE	M1	1	16	E4	release
206.577	n/a	RESPONSE	M1	1	16	E4	press
206.928	n/a	RESPONSE	M1	1	16	E4	release
206.958	n/a	RESPONSE	M1	1	04	E3	release
207.179	n/a	RESPONSE	M1	1	17	F4	press
207.182	n/a	RESPONSE	M1	1	05	F3	press
207.544	n/a	RESPONSE	M1	1	17	F4	release
207.636	n/a	RESPONSE	M1	1	05	F3	release
207.784	n/a	RESPONSE	M1	1	02	D3	press
207.798	n/a	RESPONSE	M1	1	14	D4	press
208.207	n/a	RESPONSE	M1	1	14	D4	release
208.43	n/a	RESPONSE	M1	1	14	D4	press
208.71	n/a	RESPONSE	M1	1	14	D4	release
208.77	n/a	RESPONSE	M1	1	02	D3	release
208.992	n/a	RESPONSE	M1	1	00	C3	press
209.043	n/a	RESPONSE	M1	1	12	C4	press
209.274	n/a	RESPONSE	M1	1	00	C3	release
209.296	n/a	RESPONSE	M1	1	12	C4	release
209.398	n/a	RESPONSE	M1	1	04	E3	press
209.409	n/a	RESPONSE	M1	1	16	E4	press
209.611	n/a	RESPONSE	M1	1	16	E4	release
209.632	n/a	RESPONSE	M1	1	04	E3	release
209.756	n/a	RESPONSE	M1	1	07	G3	press
209.764	n/a	RESPONSE	M1	1	19	G4	press
210.596	n/a	RESPONSE	M1	1	19	G4	release
210.737	n/a	RESPONSE	M1	1	07	G3	release
211.178	7.758	FIXCROSS	n/a	n/a	n/a	n/a	n/a
218.936	6.317	CUE_LISTEN	M1	2	n/a	n/a	n/a
225.253	7.758	FIXCROSS	n/a	n/a	n/a	n/a	n/a
233.012	6.317	CUE_PLAYBACK_BOTH_HANDS	M1	2	n/a	n/a	n/a
233.632	n/a	RESPONSE	M1	2	19	G4	press
233.634	n/a	RESPONSE	M1	2	07	G3	press
234.016	n/a	RESPONSE	M1	2	19	G4	release
234.097	n/a	RESPONSE	M1	2	07	G3	release
234.302	n/a	RESPONSE	M1	2	04	E3	press
234.323	n/a	RESPONSE	M1	2	16	E4	press
234.603	n/a	RESPONSE	M1	2	16	E4	release
234.862	n/a	RESPONSE	M1	2	16	E4	press
235.173	n/a	RESPONSE	M1	2	16	E4	release
235.204	n/a	RESPONSE	M1	2	04	E3	release
235.416	n/a	RESPONSE	M1	2	17	F4	press
235.437	n/a	RESPONSE	M1	2	05	F3	press
235.738	n/a	RESPONSE	M1	2	17	F4	release
235.832	n/a	RESPONSE	M1	2	05	F3	release
236.041	n/a	RESPONSE	M1	2	02	D3	press
236.052	n/a	RESPONSE	M1	2	14	D4	press
236.934	n/a	RESPONSE	M1	2	14	D4	release
237.014	n/a	RESPONSE	M1	2	02	D3	release
237.306	n/a	RESPONSE	M1	2	00	C3	press
237.327	n/a	RESPONSE	M1	2	12	C4	press
237.578	n/a	RESPONSE	M1	2	00	C3	release
237.589	n/a	RESPONSE	M1	2	12	C4	release
237.701	n/a	RESPONSE	M1	2	04	E3	press
237.722	n/a	RESPONSE	M1	2	16	E4	press
237.953	n/a	RESPONSE	M1	2	16	E4	release
237.974	n/a	RESPONSE	M1	2	04	E3	release
238.018	n/a	RESPONSE	M1	2	00	C3	press
238.067	n/a	RESPONSE	M1	2	12	C4	press
238.878	n/a	RESPONSE	M1	2	12	C4	release
238.922	n/a	RESPONSE	M1	2	00	C3	release
239.328	7.758	FIXCROSS	n/a	n/a	n/a	n/a	n/a
247.086	6.325	CUE_LISTEN	M1	1	n/a	n/a	n/a
253.412	7.758	FIXCROSS	n/a	n/a	n/a	n/a	n/a
261.17	6.317	CUE_PLAYBACK_RIGHT_HAND	M1	1	n/a	n/a	n/a
261.792	n/a	RESPONSE	M1	1	19	G4	press
262.113	n/a	RESPONSE	M1	1	19	G4	release
262.663	n/a	RESPONSE	M1	1	16	E4	press
263.054	n/a	RESPONSE	M1	1	16	E4	release
263.207	n/a	RESPONSE	M1	1	16	E4	press
263.594	n/a	RESPONSE	M1	1	16	E4	release
263.774	n/a	RESPONSE	M1	1	17	F4	press
264.084	n/a	RESPONSE	M1	1	17	F4	release
264.353	n/a	RESPONSE	M1	1	14	D4	press
264.686	n/a	RESPONSE	M1	1	14	D4	release
264.939	n/a	RESPONSE	M1	1	14	D4	press
265.218	n/a	RESPONSE	M1	1	14	D4	release
265.639	n/a	RESPONSE	M1	1	12	C4	press
265.931	n/a	RESPONSE	M1	1	16	E4	press
265.963	n/a	RESPONSE	M1	1	12	C4	release
266.223	n/a	RESPONSE	M1	1	16	E4	release
266.404	n/a	RESPONSE	M1	1	19	G4	press
267.136	n/a	RESPONSE	M1	1	19	G4	release
267.487	7.758	FIXCROSS	n/a	n/a	n/a	n/a	n/a
275.245	6.325	CUE_LISTEN	M1	2	n/a	n/a	n/a
281.57	7.758	FIXCROSS	n/a	n/a	n/a	n/a	n/a
289.328	6.317	CUE_PLAYBACK_RIGHT_HAND	M1	2	n/a	n/a	n/a
289.802	n/a	RESPONSE	M1	2	19	G4	press
290.173	n/a	RESPONSE	M1	2	19	G4	release
290.394	n/a	RESPONSE	M1	2	16	E4	press
290.706	n/a	RESPONSE	M1	2	16	E4	release
290.957	n/a	RESPONSE	M1	2	16	E4	press
291.323	n/a	RESPONSE	M1	2	16	E4	release
291.526	n/a	RESPONSE	M1	2	17	F4	press
291.851	n/a	RESPONSE	M1	2	17	F4	release
292.103	n/a	RESPONSE	M1	2	14	D4	press
292.397	n/a	RESPONSE	M1	2	14	D4	release
292.706	n/a	RESPONSE	M1	2	14	D4	press
292.973	n/a	RESPONSE	M1	2	14	D4	release
293.364	n/a	RESPONSE	M1	2	12	C4	press
293.636	n/a	RESPONSE	M1	2	16	E4	press
293.746	n/a	RESPONSE	M1	2	12	C4	release
293.991	n/a	RESPONSE	M1	2	12	C4	press
294.052	n/a	RESPONSE	M1	2	16	E4	release
294.961	n/a	RESPONSE	M1	2	12	C4	release
295.645	7.758	FIXCROSS	n/a	n/a	n/a	n/a	n/a
303.403	6.317	CUE_LISTEN	M1	1	n/a	n/a	n/a
309.72	7.758	FIXCROSS	n/a	n/a	n/a	n/a	n/a
317.478	6.325	CUE_PLAYBACK_BOTH_HANDS	M1	1	n/a	n/a	n/a
318.117	n/a	RESPONSE	M1	1	19	G4	press
318.12	n/a	RESPONSE	M1	1	07	G3	press
318.451	n/a	RESPONSE	M1	1	19	G4	release
318.541	n/a	RESPONSE	M1	1	07	G3	release
318.692	n/a	RESPONSE	M1	1	04	E3	press
318.723	n/a	RESPONSE	M1	1	16	E4	press
319.074	n/a	RESPONSE	M1	1	16	E4	release
319.266	n/a	RESPONSE	M1	1	16	E4	press
319.717	n/a	RESPONSE	M1	1	04	E3	release
319.728	n/a	RESPONSE	M1	1	16	E4	release
319.841	n/a	RESPONSE	M1	1	17	F4	press
319.843	n/a	RESPONSE	M1	1	05	F3	press
320.212	n/a	RESPONSE	M1	1	17	F4	release
320.243	n/a	RESPONSE	M1	1	05	F3	release
320.406	n/a	RESPONSE	M1	1	02	D3	press
320.416	n/a	RESPONSE	M1	1	14	D4	press
320.768	n/a	RESPONSE	M1	1	14	D4	release
320.808	n/a	RESPONSE	M1	1	02	D3	release
320.98	n/a	RESPONSE	M1	1	02	D3	press
320.983	n/a	RESPONSE	M1	1	14	D4	press
321.296	n/a	RESPONSE	M1	1	14	D4	release
321.357	n/a	RESPONSE	M1	1	02	D3	release
321.536	n/a	RESPONSE	M1	1	00	C3	press
321.573	n/a	RESPONSE	M1	1	12	C4	press
321.808	n/a	RESPONSE	M1	1	12	C4	release
321.811	n/a	RESPONSE	M1	1	00	C3	release
321.873	n/a	RESPONSE	M1	1	04	E3	press
321.913	n/a	RESPONSE	M1	1	16	E4	press
322.104	n/a	RESPONSE	M1	1	16	E4	release
322.148	n/a	RESPONSE	M1	1	04	E3	release
322.22	n/a	RESPONSE	M1	1	07	G3	press
322.258	n/a	RESPONSE	M1	1	19	G4	press
322.921	n/a	RESPONSE	M1	1	19	G4	release
323.083	n/a	RESPONSE	M1	1	07	G3	release
323.803	7.758	FIXCROSS	n/a	n/a	n/a	n/a	n/a
331.562	6.317	CUE_LISTEN	M1	2	n/a	n/a	n/a
337.878	7.758	FIXCROSS	n/a	n/a	n/a	n/a	n/a
345.637	6.317	CUE_PLAYBACK_BOTH_HANDS	M1	2	n/a	n/a	n/a
346.42	n/a	RESPONSE	M1	2	19	G4	press
346.442	n/a	RESPONSE	M1	2	07	G3	press
346.792	n/a	RESPONSE	M1	2	19	G4	release
346.884	n/a	RESPONSE	M1	2	07	G3	release
347.007	n/a	RESPONSE	M1	2	04	E3	press
347.028	n/a	RESPONSE	M1	2	16	E4	press
347.317	n/a	RESPONSE	M1	2	16	E4	release
347.551	n/a	RESPONSE	M1	2	16	E4	press
347.861	n/a	RESPONSE	M1	2	16	E4	release
347.891	n/a	RESPONSE	M1	2	04	E3	release
348.083	n/a	RESPONSE	M1	2	17	F4	press
348.096	n/a	RESPONSE	M1	2	05	F3	press
348.404	n/a	RESPONSE	M1	2	17	F4	release
348.486	n/a	RESPONSE	M1	2	05	F3	release
348.647	n/a	RESPONSE	M1	2	14	D4	press
348.658	n/a	RESPONSE	M1	2	02	D3	press
348.99	n/a	RESPONSE	M1	2	14	D4	release
348.993	n/a	RESPONSE	M1	2	02	D3	release
349.212	n/a	RESPONSE	M1	2	02	D3	press
349.216	n/a	RESPONSE	M1	2	14	D4	press
349.526	n/a	RESPONSE	M1	2	14	D4	release
349.596	n/a	RESPONSE	M1	2	02	D3	release
349.777	n/a	RESPONSE	M1	2	00	C3	press
349.828	n/a	RESPONSE	M1	2	12	C4	press
350.051	n/a	RESPONSE	M1	2	12	C4	release
350.053	n/a	RESPONSE	M1	2	00	C3	release
350.153	n/a	RESPONSE	M1	2	04	E3	press
350.174	n/a	RESPONSE	M1	2	16	E4	press
350.366	n/a	RESPONSE	M1	2	16	E4	release
350.398	n/a	RESPONSE	M1	2	04	E3	release
350.458	n/a	RESPONSE	M1	2	00	C3	press
350.502	n/a	RESPONSE	M1	2	12	C4	press
351.271	n/a	RESPONSE	M1	2	00	C3	release
351.317	n/a	RESPONSE	M1	2	12	C4	release
351.954	7.758	FIXCROSS	n/a	n/a	n/a	n/a	n/a
359.712	6.325	CUE_LISTEN	M1	1	n/a	n/a	n/a
366.037	7.758	FIXCROSS	n/a	n/a	n/a	n/a	n/a
373.795	6.317	CUE_PLAYBACK_RIGHT_HAND	M1	1	n/a	n/a	n/a
374.295	n/a	RESPONSE	M1	1	19	G4	press
374.626	n/a	RESPONSE	M1	1	19	G4	release
374.821	n/a	RESPONSE	M1	1	16	E4	press
375.182	n/a	RESPONSE	M1	1	16	E4	release
375.343	n/a	RESPONSE	M1	1	16	E4	press
375.695	n/a	RESPONSE	M1	1	16	E4	release
375.886	n/a	RESPONSE	M1	1	17	F4	press
376.207	n/a	RESPONSE	M1	1	17	F4	release
376.448	n/a	RESPONSE	M1	1	14	D4	press
376.761	n/a	RESPONSE	M1	1	14	D4	release
377.001	n/a	RESPONSE	M1	1	14	D4	press
377.342	n/a	RESPONSE	M1	1	14	D4	release
377.683	n/a	RESPONSE	M1	1	12	C4	press
377.965	n/a	RESPONSE	M1	1	16	E4	press
378.026	n/a	RESPONSE	M1	1	12	C4	release
378.277	n/a	RESPONSE	M1	1	16	E4	release
378.28	n/a	RESPONSE	M1	1	19	G4	press
378.98	n/a	RESPONSE	M1	1	19	G4	release
380.112	7.758	FIXCROSS	n/a	n/a	n/a	n/a	n/a
387.87	6.317	CUE_LISTEN	M1	2	n/a	n/a	n/a
394.187	7.758	FIXCROSS	n/a	n/a	n/a	n/a	n/a
401.946	6.325	CUE_PLAYBACK_RIGHT_HAND	M1	2	n/a	n/a	n/a
402.412	n/a	RESPONSE	M1	2	19	G4	press
402.745	n/a	RESPONSE	M1	2	19	G4	release
402.951	n/a	RESPONSE	M1	2	16	E4	press
403.278	n/a	RESPONSE	M1	2	16	E4	release
403.513	n/a	RESPONSE	M1	2	16	E4	press
403.911	n/a	RESPONSE	M1	2	16	E4	release
404.065	n/a	RESPONSE	M1	2	17	F4	press
404.485	n/a	RESPONSE	M1	2	17	F4	release
404.652	n/a	RESPONSE	M1	2	14	D4	press
405.046	n/a	RESPONSE	M1	2	14	D4	release
405.257	n/a	RESPONSE	M1	2	14	D4	press
405.638	n/a	RESPONSE	M1	2	14	D4	release
405.92	n/a	RESPONSE	M1	2	12	C4	press
406.212	n/a	RESPONSE	M1	2	16	E4	press
406.312	n/a	RESPONSE	M1	2	12	C4	release
406.603	n/a	RESPONSE	M1	2	12	C4	press
406.725	n/a	RESPONSE	M1	2	16	E4	release
407.677	n/a	RESPONSE	M1	2	12	C4	release
408.27	7.758	FIXCROSS	n/a	n/a	n/a	n/a	n/a
416.029	6.317	CUE_LISTEN	M1	1	n/a	n/a	n/a
422.346	7.758	FIXCROSS	n/a	n/a	n/a	n/a	n/a
430.104	6.317	CUE_PLAYBACK_BOTH_HANDS	M1	1	n/a	n/a	n/a
430.705	n/a	RESPONSE	M1	1	19	G4	press
430.713	n/a	RESPONSE	M1	1	07	G3	press
431.072	n/a	RESPONSE	M1	1	19	G4	release
431.195	n/a	RESPONSE	M1	1	07	G3	release
431.293	n/a	RESPONSE	M1	1	04	E3	press
431.337	n/a	RESPONSE	M1	1	16	E4	press
431.648	n/a	RESPONSE	M1	1	16	E4	release
431.86	n/a	RESPONSE	M1	1	16	E4	press
432.27	n/a	RESPONSE	M1	1	16	E4	release
432.308	n/a	RESPONSE	M1	1	04	E3	release
432.445	n/a	RESPONSE	M1	1	17	F4	press
432.451	n/a	RESPONSE	M1	1	05	F3	press
432.82	n/a	RESPONSE	M1	1	17	F4	release
432.887	n/a	RESPONSE	M1	1	05	F3	release
433.015	n/a	RESPONSE	M1	1	02	D3	press
433.021	n/a	RESPONSE	M1	1	14	D4	press
433.395	n/a	RESPONSE	M1	1	14	D4	release
433.566	n/a	RESPONSE	M1	1	14	D4	press
433.882	n/a	RESPONSE	M1	1	14	D4	release
433.995	n/a	RESPONSE	M1	1	02	D3	release
434.147	n/a	RESPONSE	M1	1	00	C3	press
434.23	n/a	RESPONSE	M1	1	12	C4	press
434.496	n/a	RESPONSE	M1	1	00	C3	release
434.517	n/a	RESPONSE	M1	1	12	C4	release
434.55	n/a	RESPONSE	M1	1	16	E4	press
434.568	n/a	RESPONSE	M1	1	04	E3	press
434.793	n/a	RESPONSE	M1	1	16	E4	release
434.796	n/a	RESPONSE	M1	1	04	E3	release
434.876	n/a	RESPONSE	M1	1	07	G3	press
434.926	n/a	RESPONSE	M1	1	19	G4	press
435.627	n/a	RESPONSE	M1	1	19	G4	release
435.771	n/a	RESPONSE	M1	1	07	G3	release
436.42	7.758	FIXCROSS	n/a	n/a	n/a	n/a	n/a
444.179	6.325	CUE_LISTEN	M1	2	n/a	n/a	n/a
450.504	7.758	FIXCROSS	n/a	n/a	n/a	n/a	n/a
458.262	6.317	CUE_PLAYBACK_BOTH_HANDS	M1	2	n/a	n/a	n/a
458.825	n/a	RESPONSE	M1	2	19	G4	press
458.836	n/a	RESPONSE	M1	2	07	G3	press
459.187	n/a	RESPONSE	M1	2	19	G4	release
459.348	n/a	RESPONSE	M1	2	07	G3	release
459.38	n/a	RESPONSE	M1	2	04	E3	press
459.431	n/a	RESPONSE	M1	2	16	E4	press
459.834	n/a	RESPONSE	M1	2	16	E4	release
459.984	n/a	RESPONSE	M1	2	16	E4	press
460.436	n/a	RESPONSE	M1	2	04	E3	release
460.448	n/a	RESPONSE	M1	2	16	E4	release
460.557	n/a	RESPONSE	M1	2	05	F3	press
460.56	n/a	RESPONSE	M1	2	17	F4	press
461.091	n/a	RESPONSE	M1	2	05	F3	release
461.12	n/a	RESPONSE	M1	2	17	F4	release
461.124	n/a	RESPONSE	M1	2	02	D3	press
461.152	n/a	RESPONSE	M1	2	14	D4	press
461.62	n/a	RESPONSE	M1	2	02	D3	release
461.75	n/a	RESPONSE	M1	2	02	D3	press
462.192	n/a	RESPONSE	M1	2	14	D4	release
462.264	n/a	RESPONSE	M1	2	02	D3	release
462.312	n/a	RESPONSE	M1	2	00	C3	press
462.414	n/a	RESPONSE	M1	2	12	C4	press
462.69	n/a	RESPONSE	M1	2	00	C3	release
462.692	n/a	RESPONSE	M1	2	12	C4	release
462.732	n/a	RESPONSE	M1	2	04	E3	press
462.756	n/a	RESPONSE	M1	2	16	E4	press
463.017	n/a	RESPONSE	M1	2	04	E3	release
463.03	n/a	RESPONSE	M1	2	16	E4	release
463.046	n/a	RESPONSE	M1	2	00	C3	press
463.111	n/a	RESPONSE	M1	2	12	C4	press
464.092	n/a	RESPONSE	M1	2	12	C4	release
464.154	n/a	RESPONSE	M1	2	00	C3	release
464.579	7.758	FIXCROSS	n/a	n/a	n/a	n/a	n/a
472.337	6.325	CUE_LISTEN	M1	1	n/a	n/a	n/a
478.662	7.758	FIXCROSS	n/a	n/a	n/a	n/a	n/a
486.421	6.317	CUE_PLAYBACK_RIGHT_HAND	M1	1	n/a	n/a	n/a
487.048	n/a	RESPONSE	M1	1	19	G4	press
487.43	n/a	RESPONSE	M1	1	19	G4	release
487.641	n/a	RESPONSE	M1	1	16	E4	press
488.032	n/a	RESPONSE	M1	1	16	E4	release
488.244	n/a	RESPONSE	M1	1	16	E4	press
488.675	n/a	RESPONSE	M1	1	16	E4	release
488.846	n/a	RESPONSE	M1	1	17	F4	press
489.268	n/a	RESPONSE	M1	1	17	F4	release
489.478	n/a	RESPONSE	M1	1	14	D4	press
489.84	n/a	RESPONSE	M1	1	14	D4	release
490.141	n/a	RESPONSE	M1	1	14	D4	press
490.502	n/a	RESPONSE	M1	1	14	D4	release
490.824	n/a	RESPONSE	M1	1	12	C4	press
491.138	n/a	RESPONSE	M1	1	16	E4	press
491.225	n/a	RESPONSE	M1	1	12	C4	release
491.512	n/a	RESPONSE	M1	1	16	E4	release
491.521	n/a	RESPONSE	M1	1	19	G4	press
492.331	n/a	RESPONSE	M1	1	19	G4	release
492.737	7.758	FIXCROSS	n/a	n/a	n/a	n/a	n/a
500.496	6.317	CUE_LISTEN	M1	2	n/a	n/a	n/a
506.812	7.759	FIXCROSS	n/a	n/a	n/a	n/a	n/a
514.571	6.325	CUE_PLAYBACK_RIGHT_HAND	M1	2	n/a	n/a	n/a
515.072	n/a	RESPONSE	M1	2	19	G4	press
515.455	n/a	RESPONSE	M1	2	19	G4	release
515.665	n/a	RESPONSE	M1	2	16	E4	press
515.996	n/a	RESPONSE	M1	2	16	E4	release
516.237	n/a	RESPONSE	M1	2	16	E4	press
516.678	n/a	RESPONSE	M1	2	16	E4	release
516.84	n/a	RESPONSE	M1	2	17	F4	press
517.321	n/a	RESPONSE	M1	2	17	F4	release
517.442	n/a	RESPONSE	M1	2	14	D4	press
518.414	n/a	RESPONSE	M1	2	14	D4	release
518.595	n/a	RESPONSE	M1	2	14	D4	press
518.876	n/a	RESPONSE	M1	2	14	D4	release
519.27	n/a	RESPONSE	M1	2	12	C4	press
519.56	n/a	RESPONSE	M1	2	16	E4	press
519.68	n/a	RESPONSE	M1	2	12	C4	release
519.971	n/a	RESPONSE	M1	2	12	C4	press
520.072	n/a	RESPONSE	M1	2	16	E4	release
520.896	7.758	FIXCROSS	n/a	n/a	n/a	n/a	n/a
521.131	n/a	RESPONSE	M1	2	12	C4	release
528.654	6.317	CUE_LISTEN	M1	1	n/a	n/a	n/a
534.971	7.758	FIXCROSS	n/a	n/a	n/a	n/a	n/a
542.729	6.317	CUE_PLAYBACK_BOTH_HANDS	M1	1	n/a	n/a	n/a
543.276	n/a	RESPONSE	M1	1	19	G4	press
543.317	n/a	RESPONSE	M1	1	07	G3	press
543.631	n/a	RESPONSE	M1	1	19	G4	release
543.775	n/a	RESPONSE	M1	1	07	G3	release
543.875	n/a	RESPONSE	M1	1	04	E3	press
543.89	n/a	RESPONSE	M1	1	16	E4	press
544.285	n/a	RESPONSE	M1	1	16	E4	release
544.455	n/a	RESPONSE	M1	1	16	E4	press
544.897	n/a	RESPONSE	M1	1	16	E4	release
544.929	n/a	RESPONSE	M1	1	04	E3	release
545.071	n/a	RESPONSE	M1	1	05	F3	press
545.074	n/a	RESPONSE	M1	1	17	F4	press
545.632	n/a	RESPONSE	M1	1	05	F3	release
545.654	n/a	RESPONSE	M1	1	17	F4	release
545.656	n/a	RESPONSE	M1	1	02	D3	press
545.679	n/a	RESPONSE	M1	1	14	D4	press
546.127	n/a	RESPONSE	M1	1	14	D4	release
546.31	n/a	RESPONSE	M1	1	14	D4	press
546.73	n/a	RESPONSE	M1	1	14	D4	release
546.771	n/a	RESPONSE	M1	1	02	D3	release
546.885	n/a	RESPONSE	M1	1	00	C3	press
546.944	n/a	RESPONSE	M1	1	12	C4	press
547.205	n/a	RESPONSE	M1	1	12	C4	release
547.207	n/a	RESPONSE	M1	1	00	C3	release
547.287	n/a	RESPONSE	M1	1	04	E3	press
547.299	n/a	RESPONSE	M1	1	16	E4	press
547.49	n/a	RESPONSE	M1	1	16	E4	release
547.514	n/a	RESPONSE	M1	1	04	E3	release
547.612	n/a	RESPONSE	M1	1	07	G3	press
547.644	n/a	RESPONSE	M1	1	19	G4	press
548.416	n/a	RESPONSE	M1	1	19	G4	release
548.579	n/a	RESPONSE	M1	1	07	G3	release
549.046	7.759	FIXCROSS	n/a	n/a	n/a	n/a	n/a
556.804	6.325	CUE_LISTEN	M1	2	n/a	n/a	n/a
563.129	7.758	FIXCROSS	n/a	n/a	n/a	n/a	n/a
570.888	6.317	CUE_PLAYBACK_BOTH_HANDS	M1	2	n/a	n/a	n/a
571.569	n/a	RESPONSE	M1	2	19	G4	press
571.587	n/a	RESPONSE	M1	2	07	G3	press
571.922	n/a	RESPONSE	M1	2	19	G4	release
572.061	n/a	RESPONSE	M1	2	07	G3	release
572.142	n/a	RESPONSE	M1	2	04	E3	press
572.177	n/a	RESPONSE	M1	2	16	E4	press
572.54	n/a	RESPONSE	M1	2	16	E4	release
572.697	n/a	RESPONSE	M1	2	16	E4	press
573.117	n/a	RESPONSE	M1	2	16	E4	release
573.15	n/a	RESPONSE	M1	2	04	E3	release
573.279	n/a	RESPONSE	M1	2	17	F4	press
573.281	n/a	RESPONSE	M1	2	05	F3	press
573.682	n/a	RESPONSE	M1	2	17	F4	release
573.742	n/a	RESPONSE	M1	2	05	F3	release
573.885	n/a	RESPONSE	M1	2	02	D3	press
573.891	n/a	RESPONSE	M1	2	14	D4	press
574.219	n/a	RESPONSE	M1	2	14	D4	release
574.475	n/a	RESPONSE	M1	2	14	D4	press
574.789	n/a	RESPONSE	M1	2	14	D4	release
574.89	n/a	RESPONSE	M1	2	02	D3	release
575.064	n/a	RESPONSE	M1	2	00	C3	press
575.132	n/a	RESPONSE	M1	2	12	C4	press
575.405	n/a	RESPONSE	M1	2	00	C3	release
575.415	n/a	RESPONSE	M1	2	12	C4	release
575.567	n/a	RESPONSE	M1	2	04	E3	press
575.597	n/a	RESPONSE	M1	2	16	E4	press
575.799	n/a	RESPONSE	M1	2	16	E4	release
575.9	n/a	RESPONSE	M1	2	04	E3	release
576.022	n/a	RESPONSE	M1	2	00	C3	press
576.112	n/a	RESPONSE	M1	2	14	D4	press
576.476	n/a	RESPONSE	M1	2	14	D4	release
576.605	n/a	RESPONSE	M1	2	00	C3	release
577.204	7.758	FIXCROSS	n/a	n/a	n/a	n/a	n/a
584.963	6.325	CUE_LISTEN	M1	1	n/a	n/a	n/a
591.288	7.758	FIXCROSS	n/a	n/a	n/a	n/a	n/a
599.046	6.317	CUE_PLAYBACK_RIGHT_HAND	M1	1	n/a	n/a	n/a
599.636	n/a	RESPONSE	M1	1	19	G4	press
600.037	n/a	RESPONSE	M1	1	19	G4	release
600.23	n/a	RESPONSE	M1	1	16	E4	press
600.56	n/a	RESPONSE	M1	1	16	E4	release
600.821	n/a	RESPONSE	M1	1	16	E4	press
601.176	n/a	RESPONSE	M1	1	16	E4	release
601.367	n/a	RESPONSE	M1	1	17	F4	press
601.715	n/a	RESPONSE	M1	1	17	F4	release
601.929	n/a	RESPONSE	M1	1	14	D4	press
602.274	n/a	RESPONSE	M1	1	14	D4	release
602.51	n/a	RESPONSE	M1	1	14	D4	press
602.875	n/a	RESPONSE	M1	1	14	D4	release
603.211	n/a	RESPONSE	M1	1	12	C4	press
603.48	n/a	RESPONSE	M1	1	16	E4	press
603.582	n/a	RESPONSE	M1	1	12	C4	release
603.831	n/a	RESPONSE	M1	1	16	E4	release
603.834	n/a	RESPONSE	M1	1	19	G4	press
604.53	n/a	RESPONSE	M1	1	19	G4	release
605.363	7.758	FIXCROSS	n/a	n/a	n/a	n/a	n/a
613.121	6.317	CUE_LISTEN	M1	2	n/a	n/a	n/a
619.438	7.758	FIXCROSS	n/a	n/a	n/a	n/a	n/a
627.196	6.317	CUE_PLAYBACK_RIGHT_HAND	M1	2	n/a	n/a	n/a
627.62	n/a	RESPONSE	M1	2	19	G4	press
627.97	n/a	RESPONSE	M1	2	19	G4	release
628.181	n/a	RESPONSE	M1	2	16	E4	press
628.504	n/a	RESPONSE	M1	2	16	E4	release
628.674	n/a	RESPONSE	M1	2	16	E4	press
629.065	n/a	RESPONSE	M1	2	16	E4	release
629.248	n/a	RESPONSE	M1	2	17	F4	press
629.618	n/a	RESPONSE	M1	2	17	F4	release
629.831	n/a	RESPONSE	M1	2	14	D4	press
630.66	n/a	RESPONSE	M1	2	14	D4	release
631.085	n/a	RESPONSE	M1	2	12	C4	press
631.415	n/a	RESPONSE	M1	2	12	C4	release
631.449	n/a	RESPONSE	M1	2	16	E4	press
631.785	n/a	RESPONSE	M1	2	12	C4	press
631.795	n/a	RESPONSE	M1	2	16	E4	release
632.63	n/a	RESPONSE	M1	2	12	C4	release
633.513	7.759	FIXCROSS	n/a	n/a	n/a	n/a	n/a
641.271	6.325	CUE_LISTEN	M1	1	n/a	n/a	n/a
647.596	7.758	FIXCROSS	n/a	n/a	n/a	n/a	n/a
655.355	6.317	CUE_PLAYBACK_BOTH_HANDS	M1	1	n/a	n/a	n/a
655.962	n/a	RESPONSE	M1	1	07	G3	press
655.984	n/a	RESPONSE	M1	1	19	G4	press
656.325	n/a	RESPONSE	M1	1	19	G4	release
656.446	n/a	RESPONSE	M1	1	07	G3	release
656.588	n/a	RESPONSE	M1	1	04	E3	press
656.601	n/a	RESPONSE	M1	1	16	E4	press
657.001	n/a	RESPONSE	M1	1	16	E4	release
657.251	n/a	RESPONSE	M1	1	16	E4	press
657.652	n/a	RESPONSE	M1	1	16	E4	release
657.734	n/a	RESPONSE	M1	1	04	E3	release
657.865	n/a	RESPONSE	M1	1	05	F3	press
657.868	n/a	RESPONSE	M1	1	17	F4	press
658.24	n/a	RESPONSE	M1	1	17	F4	release
658.289	n/a	RESPONSE	M1	1	05	F3	release
658.49	n/a	RESPONSE	M1	1	02	D3	press
658.502	n/a	RESPONSE	M1	1	14	D4	press
659.503	n/a	RESPONSE	M1	1	14	D4	release
659.544	n/a	RESPONSE	M1	1	02	D3	release
659.845	n/a	RESPONSE	M1	1	00	C3	press
659.916	n/a	RESPONSE	M1	1	12	C4	press
660.198	n/a	RESPONSE	M1	1	12	C4	release
660.209	n/a	RESPONSE	M1	1	00	C3	release
660.75	n/a	RESPONSE	M1	1	04	E3	press
660.814	n/a	RESPONSE	M1	1	14	D4	press
661.081	n/a	RESPONSE	M1	1	14	D4	release
661.124	n/a	RESPONSE	M1	1	04	E3	release
661.326	n/a	RESPONSE	M1	1	07	G3	press
661.532	n/a	RESPONSE	M1	1	17	F4	press
661.671	7.759	FIXCROSS	n/a	n/a	n/a	n/a	n/a
661.735	n/a	RESPONSE	M1	1	17	F4	release
661.89	n/a	RESPONSE	M1	1	07	G3	release
669.43	6.325	CUE_LISTEN	M1	2	n/a	n/a	n/a
675.755	7.758	FIXCROSS	n/a	n/a	n/a	n/a	n/a
683.513	6.317	CUE_PLAYBACK_BOTH_HANDS	M1	2	n/a	n/a	n/a
684.02	n/a	RESPONSE	M1	2	19	G4	press
684.082	n/a	RESPONSE	M1	2	07	G3	press
684.379	n/a	RESPONSE	M1	2	19	G4	release
684.489	n/a	RESPONSE	M1	2	07	G3	release
684.614	n/a	RESPONSE	M1	2	04	E3	press
684.62	n/a	RESPONSE	M1	2	16	E4	press
684.865	n/a	RESPONSE	M1	2	16	E4	release
684.946	n/a	RESPONSE	M1	2	04	E3	release
685.138	n/a	RESPONSE	M1	2	16	E4	press
685.149	n/a	RESPONSE	M1	2	04	E3	press
685.433	n/a	RESPONSE	M1	2	16	E4	release
685.474	n/a	RESPONSE	M1	2	04	E3	release
685.673	n/a	RESPONSE	M1	2	05	F3	press
685.675	n/a	RESPONSE	M1	2	17	F4	press
685.945	n/a	RESPONSE	M1	2	17	F4	release
685.988	n/a	RESPONSE	M1	2	05	F3	release
686.24	n/a	RESPONSE	M1	2	02	D3	press
686.25	n/a	RESPONSE	M1	2	14	D4	press
686.52	n/a	RESPONSE	M1	2	14	D4	release
686.551	n/a	RESPONSE	M1	2	02	D3	release
686.833	n/a	RESPONSE	M1	2	02	D3	press
686.844	n/a	RESPONSE	M1	2	14	D4	press
687.078	n/a	RESPONSE	M1	2	14	D4	release
687.099	n/a	RESPONSE	M1	2	02	D3	release
687.388	n/a	RESPONSE	M1	2	00	C3	press
687.419	n/a	RESPONSE	M1	2	12	C4	press
687.61	n/a	RESPONSE	M1	2	00	C3	release
687.613	n/a	RESPONSE	M1	2	12	C4	release
687.743	n/a	RESPONSE	M1	2	04	E3	press
687.754	n/a	RESPONSE	M1	2	16	E4	press
687.915	n/a	RESPONSE	M1	2	16	E4	release
687.938	n/a	RESPONSE	M1	2	04	E3	release
688.048	n/a	RESPONSE	M1	2	00	C3	press
688.07	n/a	RESPONSE	M1	2	12	C4	press
688.87	n/a	RESPONSE	M1	2	12	C4	release
688.88	n/a	RESPONSE	M1	2	00	C3	release
689.83	7.758	FIXCROSS	n/a	n/a	n/a	n/a	n/a
697.588	6.325	CUE_LISTEN	M1	1	n/a	n/a	n/a
703.913	7.758	FIXCROSS	n/a	n/a	n/a	n/a	n/a
711.672	6.317	CUE_PLAYBACK_RIGHT_HAND	M1	1	n/a	n/a	n/a
712.744	n/a	RESPONSE	M1	1	19	G4	press
713.09	n/a	RESPONSE	M1	1	19	G4	release
713.28	n/a	RESPONSE	M1	1	16	E4	press
713.571	n/a	RESPONSE	M1	1	16	E4	release
713.783	n/a	RESPONSE	M1	1	16	E4	press
714.119	n/a	RESPONSE	M1	1	16	E4	release
714.316	n/a	RESPONSE	M1	1	17	F4	press
714.594	n/a	RESPONSE	M1	1	17	F4	release
714.871	n/a	RESPONSE	M1	1	14	D4	press
715.153	n/a	RESPONSE	M1	1	14	D4	release
715.454	n/a	RESPONSE	M1	1	14	D4	press
715.716	n/a	RESPONSE	M1	1	14	D4	release
715.986	n/a	RESPONSE	M1	1	12	C4	press
716.248	n/a	RESPONSE	M1	1	12	C4	release
716.289	n/a	RESPONSE	M1	1	16	E4	press
716.48	n/a	RESPONSE	M1	1	16	E4	release
716.551	n/a	RESPONSE	M1	1	19	G4	press
717.064	n/a	RESPONSE	M1	1	19	G4	release
717.988	7.758	FIXCROSS	n/a	n/a	n/a	n/a	n/a
725.747	6.317	CUE_LISTEN	M1	2	n/a	n/a	n/a
732.063	7.758	FIXCROSS	n/a	n/a	n/a	n/a	n/a
739.822	6.317	CUE_PLAYBACK_RIGHT_HAND	M1	2	n/a	n/a	n/a
740.266	n/a	RESPONSE	M1	2	19	G4	press
740.568	n/a	RESPONSE	M1	2	19	G4	release
740.799	n/a	RESPONSE	M1	2	16	E4	press
741.086	n/a	RESPONSE	M1	2	16	E4	release
741.325	n/a	RESPONSE	M1	2	16	E4	press
741.689	n/a	RESPONSE	M1	2	16	E4	release
741.868	n/a	RESPONSE	M1	2	17	F4	press
742.193	n/a	RESPONSE	M1	2	17	F4	release
742.423	n/a	RESPONSE	M1	2	14	D4	press
742.674	n/a	RESPONSE	M1	2	14	D4	release
742.965	n/a	RESPONSE	M1	2	14	D4	press
743.263	n/a	RESPONSE	M1	2	14	D4	release
743.584	n/a	RESPONSE	M1	2	12	C4	press
743.829	n/a	RESPONSE	M1	2	12	C4	release
743.926	n/a	RESPONSE	M1	2	16	E4	press
744.209	n/a	RESPONSE	M1	2	16	E4	release
744.322	n/a	RESPONSE	M1	2	12	C4	press
745.305	n/a	RESPONSE	M1	2	12	C4	release
746.138	7.759	FIXCROSS	n/a	n/a	n/a	n/a	n/a
753.897	6.325	CUE_LISTEN	M1	1	n/a	n/a	n/a
760.222	7.758	FIXCROSS	n/a	n/a	n/a	n/a	n/a
767.98	6.317	CUE_PLAYBACK_BOTH_HANDS	M1	1	n/a	n/a	n/a
768.532	n/a	RESPONSE	M1	1	07	G3	press
768.55	n/a	RESPONSE	M1	1	19	G4	press
768.864	n/a	RESPONSE	M1	1	19	G4	release
768.994	n/a	RESPONSE	M1	1	07	G3	release
769.114	n/a	RESPONSE	M1	1	04	E3	press
769.116	n/a	RESPONSE	M1	1	16	E4	press
769.416	n/a	RESPONSE	M1	1	16	E4	release
769.68	n/a	RESPONSE	M1	1	16	E4	press
770.019	n/a	RESPONSE	M1	1	16	E4	release
770.05	n/a	RESPONSE	M1	1	04	E3	release
770.271	n/a	RESPONSE	M1	1	05	F3	press
770.274	n/a	RESPONSE	M1	1	17	F4	press
770.534	n/a	RESPONSE	M1	1	17	F4	release
770.635	n/a	RESPONSE	M1	1	05	F3	release
770.836	n/a	RESPONSE	M1	1	02	D3	press
770.84	n/a	RESPONSE	M1	1	14	D4	press
771.119	n/a	RESPONSE	M1	1	14	D4	release
771.156	n/a	RESPONSE	M1	1	02	D3	release
771.453	n/a	RESPONSE	M1	1	02	D3	press
771.455	n/a	RESPONSE	M1	1	14	D4	press
771.704	n/a	RESPONSE	M1	1	14	D4	release
771.809	n/a	RESPONSE	M1	1	02	D3	release
772.029	n/a	RESPONSE	M1	1	00	C3	press
772.068	n/a	RESPONSE	M1	1	12	C4	press
772.271	n/a	RESPONSE	M1	1	00	C3	release
772.279	n/a	RESPONSE	M1	1	12	C4	release
772.424	n/a	RESPONSE	M1	1	04	E3	press
772.431	n/a	RESPONSE	M1	1	16	E4	press
772.604	n/a	RESPONSE	M1	1	16	E4	release
772.631	n/a	RESPONSE	M1	1	04	E3	release
772.754	n/a	RESPONSE	M1	1	07	G3	press
772.786	n/a	RESPONSE	M1	1	19	G4	press
773.456	n/a	RESPONSE	M1	1	19	G4	release
773.618	n/a	RESPONSE	M1	1	07	G3	release
774.297	7.758	FIXCROSS	n/a	n/a	n/a	n/a	n/a
782.055	6.317	CUE_LISTEN	M1	2	n/a	n/a	n/a
788.372	7.758	FIXCROSS	n/a	n/a	n/a	n/a	n/a
796.13	6.325	CUE_PLAYBACK_BOTH_HANDS	M1	2	n/a	n/a	n/a
796.733	n/a	RESPONSE	M1	2	19	G4	press
796.743	n/a	RESPONSE	M1	2	04	E3	press
797.044	n/a	RESPONSE	M1	2	19	G4	release
797.195	n/a	RESPONSE	M1	2	04	E3	release
798.138	n/a	RESPONSE	M1	2	07	G3	press
798.188	n/a	RESPONSE	M1	2	19	G4	press
798.449	n/a	RESPONSE	M1	2	19	G4	release
798.52	n/a	RESPONSE	M1	2	07	G3	release
798.732	n/a	RESPONSE	M1	2	04	E3	press
798.743	n/a	RESPONSE	M1	2	16	E4	press
799.064	n/a	RESPONSE	M1	2	16	E4	release
799.286	n/a	RESPONSE	M1	2	16	E4	press
799.586	n/a	RESPONSE	M1	2	16	E4	release
799.6	n/a	RESPONSE	M1	2	04	E3	release
799.819	n/a	RESPONSE	M1	2	17	F4	press
799.822	n/a	RESPONSE	M1	2	05	F3	press
800.132	n/a	RESPONSE	M1	2	17	F4	release
800.213	n/a	RESPONSE	M1	2	05	F3	release
800.374	n/a	RESPONSE	M1	2	02	D3	press
800.388	n/a	RESPONSE	M1	2	14	D4	press
800.686	n/a	RESPONSE	M1	2	14	D4	release
800.718	n/a	RESPONSE	M1	2	02	D3	release
800.969	n/a	RESPONSE	M1	2	14	D4	press
800.98	n/a	RESPONSE	M1	2	02	D3	press
801.262	n/a	RESPONSE	M1	2	14	D4	release
801.326	n/a	RESPONSE	M1	2	02	D3	release
801.453	n/a	RESPONSE	M1	2	00	C3	press
801.502	n/a	RESPONSE	M1	2	12	C4	press
801.746	n/a	RESPONSE	M1	2	00	C3	release
801.756	n/a	RESPONSE	M1	2	12	C4	release
801.866	n/a	RESPONSE	M1	2	04	E3	press
801.886	n/a	RESPONSE	M1	2	16	E4	press
802.086	n/a	RESPONSE	M1	2	16	E4	release
802.13	n/a	RESPONSE	M1	2	04	E3	release
802.21	n/a	RESPONSE	M1	2	00	C3	press
802.246	n/a	RESPONSE	M1	2	12	C4	press
802.455	7.758	FIXCROSS	n/a	n/a	n/a	n/a	n/a
803.069	n/a	RESPONSE	M1	2	00	C3	release
803.085	n/a	RESPONSE	M1	2	12	C4	release
810.214	6.317	CUE_LISTEN	M1	1	n/a	n/a	n/a
816.53	7.758	FIXCROSS	n/a	n/a	n/a	n/a	n/a
824.289	6.317	CUE_PLAYBACK_RIGHT_HAND	M1	1	n/a	n/a	n/a
824.845	n/a	RESPONSE	M1	1	19	G4	press
825.158	n/a	RESPONSE	M1	1	19	G4	release
825.379	n/a	RESPONSE	M1	1	16	E4	press
825.669	n/a	RESPONSE	M1	1	16	E4	release
825.93	n/a	RESPONSE	M1	1	16	E4	press
826.312	n/a	RESPONSE	M1	1	16	E4	release
826.503	n/a	RESPONSE	M1	1	17	F4	press
826.794	n/a	RESPONSE	M1	1	17	F4	release
827.055	n/a	RESPONSE	M1	1	14	D4	press
827.349	n/a	RESPONSE	M1	1	14	D4	release
827.638	n/a	RESPONSE	M1	1	14	D4	press
827.942	n/a	RESPONSE	M1	1	14	D4	release
828.25	n/a	RESPONSE	M1	1	12	C4	press
828.534	n/a	RESPONSE	M1	1	12	C4	release
828.583	n/a	RESPONSE	M1	1	16	E4	press
828.814	n/a	RESPONSE	M1	1	16	E4	release
828.928	n/a	RESPONSE	M1	1	19	G4	press
829.557	n/a	RESPONSE	M1	1	19	G4	release
830.605	7.758	FIXCROSS	n/a	n/a	n/a	n/a	n/a
838.364	6.325	CUE_LISTEN	M1	2	n/a	n/a	n/a
844.689	7.758	FIXCROSS	n/a	n/a	n/a	n/a	n/a
852.447	6.317	CUE_PLAYBACK_RIGHT_HAND	M1	2	n/a	n/a	n/a
852.994	n/a	RESPONSE	M1	2	19	G4	press
853.264	n/a	RESPONSE	M1	2	19	G4	release
853.578	n/a	RESPONSE	M1	2	16	E4	press
853.814	n/a	RESPONSE	M1	2	16	E4	release
854.084	n/a	RESPONSE	M1	2	16	E4	press
854.414	n/a	RESPONSE	M1	2	16	E4	release
854.644	n/a	RESPONSE	M1	2	17	F4	press
854.932	n/a	RESPONSE	M1	2	17	F4	release
855.203	n/a	RESPONSE	M1	2	14	D4	press
855.502	n/a	RESPONSE	M1	2	14	D4	release
855.803	n/a	RESPONSE	M1	2	14	D4	press
856.114	n/a	RESPONSE	M1	2	14	D4	release
856.445	n/a	RESPONSE	M1	2	12	C4	press
856.737	n/a	RESPONSE	M1	2	12	C4	release
856.798	n/a	RESPONSE	M1	2	16	E4	press
857.109	n/a	RESPONSE	M1	2	16	E4	release
857.15	n/a	RESPONSE	M1	2	12	C4	press
858.032	n/a	RESPONSE	M1	2	12	C4	release
858.764	7.759	FIXCROSS	n/a	n/a	n/a	n/a	n/a
866.522	6.325	CUE_LISTEN	M1	1	n/a	n/a	n/a
872.847	7.758	FIXCROSS	n/a	n/a	n/a	n/a	n/a
880.606	6.317	CUE_PLAYBACK_BOTH_HANDS	M1	1	n/a	n/a	n/a
881.283	n/a	RESPONSE	M1	1	19	G4	press
881.288	n/a	RESPONSE	M1	1	07	G3	press
881.605	n/a	RESPONSE	M1	1	19	G4	release
881.729	n/a	RESPONSE	M1	1	07	G3	release
881.842	n/a	RESPONSE	M1	1	04	E3	press
881.86	n/a	RESPONSE	M1	1	16	E4	press
882.162	n/a	RESPONSE	M1	1	16	E4	release
882.404	n/a	RESPONSE	M1	1	16	E4	press
882.734	n/a	RESPONSE	M1	1	16	E4	release
882.773	n/a	RESPONSE	M1	1	04	E3	release
882.958	n/a	RESPONSE	M1	1	17	F4	press
882.975	n/a	RESPONSE	M1	1	05	F3	press
883.254	n/a	RESPONSE	M1	1	17	F4	release
883.408	n/a	RESPONSE	M1	1	05	F3	release
883.539	n/a	RESPONSE	M1	1	02	D3	press
883.553	n/a	RESPONSE	M1	1	14	D4	press
883.824	n/a	RESPONSE	M1	1	14	D4	release
883.934	n/a	RESPONSE	M1	1	02	D3	release
884.119	n/a	RESPONSE	M1	1	02	D3	press
884.139	n/a	RESPONSE	M1	1	14	D4	press
884.404	n/a	RESPONSE	M1	1	14	D4	release
884.479	n/a	RESPONSE	M1	1	02	D3	release
884.653	n/a	RESPONSE	M1	1	00	C3	press
884.702	n/a	RESPONSE	M1	1	12	C4	press
884.933	n/a	RESPONSE	M1	1	00	C3	release
884.944	n/a	RESPONSE	M1	1	12	C4	release
885.055	n/a	RESPONSE	M1	1	04	E3	press
885.067	n/a	RESPONSE	M1	1	16	E4	press
885.218	n/a	RESPONSE	M1	1	16	E4	release
885.24	n/a	RESPONSE	M1	1	04	E3	release
885.36	n/a	RESPONSE	M1	1	07	G3	press
885.383	n/a	RESPONSE	M1	1	19	G4	press
885.934	n/a	RESPONSE	M1	1	19	G4	release
886.207	n/a	RESPONSE	M1	1	07	G3	release
886.922	7.758	FIXCROSS	n/a	n/a	n/a	n/a	n/a
894.681	6.317	CUE_LISTEN	M1	2	n/a	n/a	n/a
900.997	7.758	FIXCROSS	n/a	n/a	n/a	n/a	n/a
908.756	40.9	CUE_PLAYBACK_BOTH_HANDS	M1	2	n/a	n/a	n/a
909.399	n/a	RESPONSE	M1	2	07	G3	press
909.41	n/a	RESPONSE	M1	2	19	G4	press
909.733	n/a	RESPONSE	M1	2	19	G4	release
909.835	n/a	RESPONSE	M1	2	07	G3	release
909.954	n/a	RESPONSE	M1	2	04	E3	press
909.967	n/a	RESPONSE	M1	2	16	E4	press
910.268	n/a	RESPONSE	M1	2	16	E4	release
910.498	n/a	RESPONSE	M1	2	16	E4	press
910.829	n/a	RESPONSE	M1	2	16	E4	release
910.85	n/a	RESPONSE	M1	2	04	E3	release
911.042	n/a	RESPONSE	M1	2	05	F3	press
911.044	n/a	RESPONSE	M1	2	17	F4	press
911.328	n/a	RESPONSE	M1	2	17	F4	release
911.404	n/a	RESPONSE	M1	2	05	F3	release
911.569	n/a	RESPONSE	M1	2	02	D3	press
911.592	n/a	RESPONSE	M1	2	14	D4	press
911.863	n/a	RESPONSE	M1	2	14	D4	release
911.898	n/a	RESPONSE	M1	2	02	D3	release
912.13	n/a	RESPONSE	M1	2	02	D3	press
912.149	n/a	RESPONSE	M1	2	14	D4	press
912.394	n/a	RESPONSE	M1	2	14	D4	release
912.426	n/a	RESPONSE	M1	2	02	D3	release
912.687	n/a	RESPONSE	M1	2	00	C3	press
912.727	n/a	RESPONSE	M1	2	12	C4	press
912.922	n/a	RESPONSE	M1	2	00	C3	release
912.936	n/a	RESPONSE	M1	2	12	C4	release
913.038	n/a	RESPONSE	M1	2	04	E3	press
913.044	n/a	RESPONSE	M1	2	16	E4	press
913.199	n/a	RESPONSE	M1	2	16	E4	release
913.229	n/a	RESPONSE	M1	2	04	E3	release
913.254	n/a	FIXCROSS	n/a	n/a	n/a	n/a	n/a
913.339	n/a	RESPONSE	M1	2	00	C3	press
913.384	n/a	RESPONSE	M1	2	12	C4	press
914.479	n/a	RESPONSE	M1	2	12	C4	release
914.514	n/a	RESPONSE	M1	2	00	C3	release
