onset	duration	trial_type	trial_number	stroop_condition	stim_text(PL)	stim_text(eng)	stim_color(PL)	stim_color(eng)	response_type	response_color
0.0	n/a	RESPONSE	n/a	n/a	n/a	n/a	n/a	n/a	n/a	n/a
0.0555	1.0334	ITI	n/a	n/a	n/a	n/a	n/a	n/a	n/a	n/a
1.0888	0.5167	FIXCROSS	n/a	n/a	n/a	n/a	n/a	n/a	n/a	n/a
1.6055	1.2333	T_INK	1	Neutral	xxxxxxx	xxxxxxx	żółty	yellow	hit	n/a
2.7994	n/a	RESPONSE	n/a	n/a	n/a	n/a	n/a	n/a	n/a	yellow
2.8389	0.5167	FEEDBACK	n/a	n/a	n/a	n/a	n/a	n/a	n/a	n/a
3.3555	1.0167	ITI	n/a	n/a	n/a	n/a	n/a	n/a	n/a	n/a
4.3722	0.5167	FIXCROSS	n/a	n/a	n/a	n/a	n/a	n/a	n/a	n/a
4.8889	1.2167	T_INK	2	Neutral	xxxxxxx	xxxxxxx	niebieski	blue	hit	n/a
6.0787	n/a	RESPONSE	n/a	n/a	n/a	n/a	n/a	n/a	n/a	blue
6.1056	0.5167	FEEDBACK	n/a	n/a	n/a	n/a	n/a	n/a	n/a	n/a
6.6222	1.0167	ITI	n/a	n/a	n/a	n/a	n/a	n/a	n/a	n/a
7.6389	0.5167	FIXCROSS	n/a	n/a	n/a	n/a	n/a	n/a	n/a	n/a
8.1556	1.6	T_INK	3	Incongruent	czerwony	red	niebieski	blue	hit	n/a
9.726	n/a	RESPONSE	n/a	n/a	n/a	n/a	n/a	n/a	n/a	blue
9.7556	0.5167	FEEDBACK	n/a	n/a	n/a	n/a	n/a	n/a	n/a	n/a
10.2723	1.0167	ITI	n/a	n/a	n/a	n/a	n/a	n/a	n/a	n/a
11.289	0.5167	FIXCROSS	n/a	n/a	n/a	n/a	n/a	n/a	n/a	n/a
11.8056	0.9	T_INK	4	Neutral	xxxxxxxxx	xxxxxxxxx	żółty	yellow	hit	n/a
12.6853	n/a	RESPONSE	n/a	n/a	n/a	n/a	n/a	n/a	n/a	yellow
12.7057	0.5167	FEEDBACK	n/a	n/a	n/a	n/a	n/a	n/a	n/a	n/a
13.2223	1.0167	ITI	n/a	n/a	n/a	n/a	n/a	n/a	n/a	n/a
14.239	0.5167	FIXCROSS	n/a	n/a	n/a	n/a	n/a	n/a	n/a	n/a
14.7557	1.0667	T_INK	5	Incongruent	żółty	yellow	czerwony	red	hit	n/a
15.7887	n/a	RESPONSE	n/a	n/a	n/a	n/a	n/a	n/a	n/a	red
15.8224	0.5167	FEEDBACK	n/a	n/a	n/a	n/a	n/a	n/a	n/a	n/a
16.339	1.0167	ITI	n/a	n/a	n/a	n/a	n/a	n/a	n/a	n/a
17.3557	0.5167	FIXCROSS	n/a	n/a	n/a	n/a	n/a	n/a	n/a	n/a
17.8724	1.0167	T_INK	6	Incongruent	zielony	green	niebieski	blue	hit	n/a
18.8601	n/a	RESPONSE	n/a	n/a	n/a	n/a	n/a	n/a	n/a	blue
18.8891	0.5167	FEEDBACK	n/a	n/a	n/a	n/a	n/a	n/a	n/a	n/a
19.4057	1.0167	ITI	n/a	n/a	n/a	n/a	n/a	n/a	n/a	n/a
20.4224	0.5167	FIXCROSS	n/a	n/a	n/a	n/a	n/a	n/a	n/a	n/a
20.9391	0.9833	T_INK	7	Incongruent	czerwony	red	żółty	yellow	hit	n/a
21.8994	n/a	RESPONSE	n/a	n/a	n/a	n/a	n/a	n/a	n/a	yellow
21.9224	0.5167	FEEDBACK	n/a	n/a	n/a	n/a	n/a	n/a	n/a	n/a
22.4391	1.0167	ITI	n/a	n/a	n/a	n/a	n/a	n/a	n/a	n/a
23.4558	0.5167	FIXCROSS	n/a	n/a	n/a	n/a	n/a	n/a	n/a	n/a
23.9725	1.0333	T_INK	8	Neutral	xxxxx	xxxxx	zielony	green	hit	n/a
24.9868	n/a	RESPONSE	n/a	n/a	n/a	n/a	n/a	n/a	n/a	green
25.0058	0.5167	FEEDBACK	n/a	n/a	n/a	n/a	n/a	n/a	n/a	n/a
25.5225	1.0167	ITI	n/a	n/a	n/a	n/a	n/a	n/a	n/a	n/a
26.5392	0.5167	FIXCROSS	n/a	n/a	n/a	n/a	n/a	n/a	n/a	n/a
27.0558	0.75	T_INK	9	Neutral	xxxxx	xxxxx	niebieski	blue	hit	n/a
27.7862	n/a	RESPONSE	n/a	n/a	n/a	n/a	n/a	n/a	n/a	blue
27.8058	0.5167	FEEDBACK	n/a	n/a	n/a	n/a	n/a	n/a	n/a	n/a
28.3225	1.0167	ITI	n/a	n/a	n/a	n/a	n/a	n/a	n/a	n/a
29.3392	0.5167	FIXCROSS	n/a	n/a	n/a	n/a	n/a	n/a	n/a	n/a
29.8559	0.7833	T_INK	10	Neutral	xxxxxxxx	xxxxxxxx	żółty	yellow	hit	n/a
30.6176	n/a	RESPONSE	n/a	n/a	n/a	n/a	n/a	n/a	n/a	yellow
30.6392	0.5167	FEEDBACK	n/a	n/a	n/a	n/a	n/a	n/a	n/a	n/a
31.1559	1.0167	ITI	n/a	n/a	n/a	n/a	n/a	n/a	n/a	n/a
32.1726	0.5167	FIXCROSS	n/a	n/a	n/a	n/a	n/a	n/a	n/a	n/a
32.6893	0.8167	T_INK	11	Neutral	xxxxx	xxxxx	czerwony	red	hit	n/a
33.481	n/a	RESPONSE	n/a	n/a	n/a	n/a	n/a	n/a	n/a	red
33.5059	0.5167	FEEDBACK	n/a	n/a	n/a	n/a	n/a	n/a	n/a	n/a
34.0226	1.0167	ITI	n/a	n/a	n/a	n/a	n/a	n/a	n/a	n/a
35.0393	0.5167	FIXCROSS	n/a	n/a	n/a	n/a	n/a	n/a	n/a	n/a
35.5559	0.8	T_INK	12	Neutral	xxxxxxxx	xxxxxxxx	niebieski	blue	hit	n/a
36.3285	n/a	RESPONSE	n/a	n/a	n/a	n/a	n/a	n/a	n/a	blue
36.356	0.5167	FEEDBACK	n/a	n/a	n/a	n/a	n/a	n/a	n/a	n/a
36.8726	1.0334	ITI	n/a	n/a	n/a	n/a	n/a	n/a	n/a	n/a
43.191	n/a	RESPONSE	n/a	n/a	n/a	n/a	n/a	n/a	n/a	n/a
43.256	1.0167	ITI	n/a	n/a	n/a	n/a	n/a	n/a	n/a	n/a
44.2727	0.5167	FIXCROSS	n/a	n/a	n/a	n/a	n/a	n/a	n/a	n/a
44.7894	1.15	INK	1	Neutral	xxxxxxxxx	xxxxxxxxx	czerwony	red	hit	n/a
45.9105	n/a	RESPONSE	n/a	n/a	n/a	n/a	n/a	n/a	n/a	red
45.9394	1.0167	ITI	n/a	n/a	n/a	n/a	n/a	n/a	n/a	n/a
46.9561	0.5167	FIXCROSS	n/a	n/a	n/a	n/a	n/a	n/a	n/a	n/a
47.4728	0.75	INK	2	Incongruent	zielony	green	czerwony	red	hit	n/a
48.198	n/a	RESPONSE	n/a	n/a	n/a	n/a	n/a	n/a	n/a	red
48.2228	1.0167	ITI	n/a	n/a	n/a	n/a	n/a	n/a	n/a	n/a
49.2395	0.5167	FIXCROSS	n/a	n/a	n/a	n/a	n/a	n/a	n/a	n/a
49.7561	0.75	INK	3	Neutral	xxxxxxxx	xxxxxxxx	zielony	green	hit	n/a
50.4855	n/a	RESPONSE	n/a	n/a	n/a	n/a	n/a	n/a	n/a	green
50.5061	1.0167	ITI	n/a	n/a	n/a	n/a	n/a	n/a	n/a	n/a
51.5228	0.5167	FIXCROSS	n/a	n/a	n/a	n/a	n/a	n/a	n/a	n/a
52.0395	0.5	INK	4	Neutral	xxxxxxxxx	xxxxxxxxx	czerwony	red	hit	n/a
52.5171	n/a	RESPONSE	n/a	n/a	n/a	n/a	n/a	n/a	n/a	red
52.5395	1.0167	ITI	n/a	n/a	n/a	n/a	n/a	n/a	n/a	n/a
53.5562	0.5167	FIXCROSS	n/a	n/a	n/a	n/a	n/a	n/a	n/a	n/a
54.0729	0.6	INK	5	Incongruent	niebieski	blue	czerwony	red	hit	n/a
54.6446	n/a	RESPONSE	n/a	n/a	n/a	n/a	n/a	n/a	n/a	red
54.6729	1.0167	ITI	n/a	n/a	n/a	n/a	n/a	n/a	n/a	n/a
55.6895	0.5167	FIXCROSS	n/a	n/a	n/a	n/a	n/a	n/a	n/a	n/a
56.2062	0.9	INK	6	Neutral	xxxxxxx	xxxxxxx	niebieski	blue	hit	n/a
57.0761	n/a	RESPONSE	n/a	n/a	n/a	n/a	n/a	n/a	n/a	blue
57.1062	1.0167	ITI	n/a	n/a	n/a	n/a	n/a	n/a	n/a	n/a
58.1229	0.5167	FIXCROSS	n/a	n/a	n/a	n/a	n/a	n/a	n/a	n/a
58.6396	0.6833	INK	7	Incongruent	żółty	yellow	czerwony	red	hit	n/a
59.2997	n/a	RESPONSE	n/a	n/a	n/a	n/a	n/a	n/a	n/a	red
59.3229	1.0167	ITI	n/a	n/a	n/a	n/a	n/a	n/a	n/a	n/a
60.3396	0.5167	FIXCROSS	n/a	n/a	n/a	n/a	n/a	n/a	n/a	n/a
60.8563	0.7	INK	8	Neutral	xxxxxxxx	xxxxxxxx	żółty	yellow	hit	n/a
61.5232	n/a	RESPONSE	n/a	n/a	n/a	n/a	n/a	n/a	n/a	yellow
61.5563	1.0167	ITI	n/a	n/a	n/a	n/a	n/a	n/a	n/a	n/a
62.573	0.5167	FIXCROSS	n/a	n/a	n/a	n/a	n/a	n/a	n/a	n/a
63.0896	0.7667	INK	9	Neutral	xxxxx	xxxxx	zielony	green	hit	n/a
63.8267	n/a	RESPONSE	n/a	n/a	n/a	n/a	n/a	n/a	n/a	green
63.8563	1.0167	ITI	n/a	n/a	n/a	n/a	n/a	n/a	n/a	n/a
64.873	0.5167	FIXCROSS	n/a	n/a	n/a	n/a	n/a	n/a	n/a	n/a
65.3897	1.0333	INK	10	Incongruent	czerwony	red	żółty	yellow	hit	n/a
66.4022	n/a	RESPONSE	n/a	n/a	n/a	n/a	n/a	n/a	n/a	yellow
66.423	1.0167	ITI	n/a	n/a	n/a	n/a	n/a	n/a	n/a	n/a
67.4397	0.5167	FIXCROSS	n/a	n/a	n/a	n/a	n/a	n/a	n/a	n/a
67.9564	0.45	INK	11	Neutral	xxxxxxx	xxxxxxx	żółty	yellow	hit	n/a
68.3858	n/a	RESPONSE	n/a	n/a	n/a	n/a	n/a	n/a	n/a	yellow
68.4064	1.0167	ITI	n/a	n/a	n/a	n/a	n/a	n/a	n/a	n/a
69.4231	0.5167	FIXCROSS	n/a	n/a	n/a	n/a	n/a	n/a	n/a	n/a
69.9397	1.1	INK	12	Neutral	xxxxx	xxxxx	zielony	green	hit	n/a
71.0092	n/a	RESPONSE	n/a	n/a	n/a	n/a	n/a	n/a	n/a	green
71.0397	1.0167	ITI	n/a	n/a	n/a	n/a	n/a	n/a	n/a	n/a
72.0564	0.5167	FIXCROSS	n/a	n/a	n/a	n/a	n/a	n/a	n/a	n/a
72.5731	0.95	INK	13	Incongruent	czerwony	red	niebieski	blue	hit	n/a
73.5048	n/a	RESPONSE	n/a	n/a	n/a	n/a	n/a	n/a	n/a	blue
73.5231	1.0167	ITI	n/a	n/a	n/a	n/a	n/a	n/a	n/a	n/a
74.5398	0.5167	FIXCROSS	n/a	n/a	n/a	n/a	n/a	n/a	n/a	n/a
75.0565	0.7833	INK	14	Incongruent	żółty	yellow	niebieski	blue	hit	n/a
75.8082	n/a	RESPONSE	n/a	n/a	n/a	n/a	n/a	n/a	n/a	blue
75.8398	1.0167	ITI	n/a	n/a	n/a	n/a	n/a	n/a	n/a	n/a
76.8565	0.5167	FIXCROSS	n/a	n/a	n/a	n/a	n/a	n/a	n/a	n/a
77.3732	0.8	INK	15	Incongruent	niebieski	blue	żółty	yellow	hit	n/a
78.1437	n/a	RESPONSE	n/a	n/a	n/a	n/a	n/a	n/a	n/a	yellow
78.1732	1.0167	ITI	n/a	n/a	n/a	n/a	n/a	n/a	n/a	n/a
79.1898	0.5167	FIXCROSS	n/a	n/a	n/a	n/a	n/a	n/a	n/a	n/a
79.7065	0.8333	INK	16	Incongruent	niebieski	blue	czerwony	red	hit	n/a
80.5113	n/a	RESPONSE	n/a	n/a	n/a	n/a	n/a	n/a	n/a	red
80.5399	1.0167	ITI	n/a	n/a	n/a	n/a	n/a	n/a	n/a	n/a
81.5565	0.5167	FIXCROSS	n/a	n/a	n/a	n/a	n/a	n/a	n/a	n/a
82.0732	0.4667	INK	17	Neutral	xxxxxxxxx	xxxxxxxxx	czerwony	red	hit	n/a
82.5109	n/a	RESPONSE	n/a	n/a	n/a	n/a	n/a	n/a	n/a	red
82.5399	1.0167	ITI	n/a	n/a	n/a	n/a	n/a	n/a	n/a	n/a
83.5566	0.5167	FIXCROSS	n/a	n/a	n/a	n/a	n/a	n/a	n/a	n/a
84.0732	0.6833	INK	18	Neutral	xxxxxxxx	xxxxxxxx	zielony	green	hit	n/a
84.7344	n/a	RESPONSE	n/a	n/a	n/a	n/a	n/a	n/a	n/a	green
84.7566	1.0167	ITI	n/a	n/a	n/a	n/a	n/a	n/a	n/a	n/a
85.7733	0.5167	FIXCROSS	n/a	n/a	n/a	n/a	n/a	n/a	n/a	n/a
86.2899	0.9667	INK	19	Incongruent	zielony	green	czerwony	red	incorrect	n/a
87.2299	n/a	RESPONSE	n/a	n/a	n/a	n/a	n/a	n/a	n/a	green
87.2566	1.0167	ITI	n/a	n/a	n/a	n/a	n/a	n/a	n/a	n/a
88.2733	0.5167	FIXCROSS	n/a	n/a	n/a	n/a	n/a	n/a	n/a	n/a
88.79	0.6271	INK	20	Neutral	xxxxxxx	xxxxxxx	czerwony	red	hit	n/a
89.4054	n/a	RESPONSE	n/a	n/a	n/a	n/a	n/a	n/a	n/a	red
89.417	1.0229	ITI	n/a	n/a	n/a	n/a	n/a	n/a	n/a	n/a
90.44	0.5167	FIXCROSS	n/a	n/a	n/a	n/a	n/a	n/a	n/a	n/a
90.9567	1.0334	INK	21	Neutral	xxxxxxx	xxxxxxx	żółty	yellow	hit	n/a
91.9649	n/a	RESPONSE	n/a	n/a	n/a	n/a	n/a	n/a	n/a	yellow
91.99	1.0167	ITI	n/a	n/a	n/a	n/a	n/a	n/a	n/a	n/a
93.0067	0.5167	FIXCROSS	n/a	n/a	n/a	n/a	n/a	n/a	n/a	n/a
93.5234	0.95	INK	22	Incongruent	żółty	yellow	niebieski	blue	hit	n/a
94.4444	n/a	RESPONSE	n/a	n/a	n/a	n/a	n/a	n/a	n/a	blue
94.4734	1.0167	ITI	n/a	n/a	n/a	n/a	n/a	n/a	n/a	n/a
95.4901	0.5167	FIXCROSS	n/a	n/a	n/a	n/a	n/a	n/a	n/a	n/a
96.0067	0.6167	INK	23	Neutral	xxxxxxx	xxxxxxx	żółty	yellow	hit	n/a
96.6039	n/a	RESPONSE	n/a	n/a	n/a	n/a	n/a	n/a	n/a	yellow
96.6234	1.0167	ITI	n/a	n/a	n/a	n/a	n/a	n/a	n/a	n/a
97.6401	0.5167	FIXCROSS	n/a	n/a	n/a	n/a	n/a	n/a	n/a	n/a
98.1567	0.7	INK	24	Incongruent	niebieski	blue	żółty	yellow	hit	n/a
98.8275	n/a	RESPONSE	n/a	n/a	n/a	n/a	n/a	n/a	n/a	yellow
98.8568	1.0167	ITI	n/a	n/a	n/a	n/a	n/a	n/a	n/a	n/a
99.8734	0.5167	FIXCROSS	n/a	n/a	n/a	n/a	n/a	n/a	n/a	n/a
100.3901	0.75	INK	25	Incongruent	niebieski	blue	zielony	green	hit	n/a
101.115	n/a	RESPONSE	n/a	n/a	n/a	n/a	n/a	n/a	n/a	green
101.1401	1.0167	ITI	n/a	n/a	n/a	n/a	n/a	n/a	n/a	n/a
102.1568	0.5167	FIXCROSS	n/a	n/a	n/a	n/a	n/a	n/a	n/a	n/a
102.6735	0.6667	INK	26	Incongruent	niebieski	blue	zielony	green	hit	n/a
103.3225	n/a	RESPONSE	n/a	n/a	n/a	n/a	n/a	n/a	n/a	green
103.3401	1.0167	ITI	n/a	n/a	n/a	n/a	n/a	n/a	n/a	n/a
104.3568	0.5167	FIXCROSS	n/a	n/a	n/a	n/a	n/a	n/a	n/a	n/a
104.8735	0.7834	INK	27	Incongruent	niebieski	blue	czerwony	red	hit	n/a
105.626	n/a	RESPONSE	n/a	n/a	n/a	n/a	n/a	n/a	n/a	red
105.6569	1.0167	ITI	n/a	n/a	n/a	n/a	n/a	n/a	n/a	n/a
106.6735	0.5167	FIXCROSS	n/a	n/a	n/a	n/a	n/a	n/a	n/a	n/a
107.1902	0.95	INK	28	Incongruent	zielony	green	żółty	yellow	hit	n/a
108.1215	n/a	RESPONSE	n/a	n/a	n/a	n/a	n/a	n/a	n/a	yellow
108.1402	1.0167	ITI	n/a	n/a	n/a	n/a	n/a	n/a	n/a	n/a
109.1569	0.5167	FIXCROSS	n/a	n/a	n/a	n/a	n/a	n/a	n/a	n/a
109.6736	0.8167	INK	29	Incongruent	żółty	yellow	czerwony	red	hit	n/a
110.457	n/a	RESPONSE	n/a	n/a	n/a	n/a	n/a	n/a	n/a	red
110.4902	1.0167	ITI	n/a	n/a	n/a	n/a	n/a	n/a	n/a	n/a
111.5069	0.5167	FIXCROSS	n/a	n/a	n/a	n/a	n/a	n/a	n/a	n/a
112.0236	0.8333	INK	30	Neutral	xxxxx	xxxxx	niebieski	blue	hit	n/a
112.8245	n/a	RESPONSE	n/a	n/a	n/a	n/a	n/a	n/a	n/a	blue
112.8569	1.0167	ITI	n/a	n/a	n/a	n/a	n/a	n/a	n/a	n/a
113.8736	0.5167	FIXCROSS	n/a	n/a	n/a	n/a	n/a	n/a	n/a	n/a
114.3903	0.7833	INK	31	Neutral	xxxxxxx	xxxxxxx	czerwony	red	hit	n/a
115.144	n/a	RESPONSE	n/a	n/a	n/a	n/a	n/a	n/a	n/a	red
115.1736	1.0167	ITI	n/a	n/a	n/a	n/a	n/a	n/a	n/a	n/a
116.1903	0.5167	FIXCROSS	n/a	n/a	n/a	n/a	n/a	n/a	n/a	n/a
116.707	0.8334	INK	32	Incongruent	zielony	green	żółty	yellow	hit	n/a
117.5115	n/a	RESPONSE	n/a	n/a	n/a	n/a	n/a	n/a	n/a	yellow
117.5403	1.0167	ITI	n/a	n/a	n/a	n/a	n/a	n/a	n/a	n/a
118.557	0.5167	FIXCROSS	n/a	n/a	n/a	n/a	n/a	n/a	n/a	n/a
119.0737	0.75	INK	33	Neutral	xxxxxxxxx	xxxxxxxxx	zielony	green	hit	n/a
119.799	n/a	RESPONSE	n/a	n/a	n/a	n/a	n/a	n/a	n/a	green
119.8237	1.0167	ITI	n/a	n/a	n/a	n/a	n/a	n/a	n/a	n/a
120.8404	0.5167	FIXCROSS	n/a	n/a	n/a	n/a	n/a	n/a	n/a	n/a
121.357	0.7333	INK	34	Neutral	xxxxx	xxxxx	zielony	green	hit	n/a
122.0544	n/a	RESPONSE	n/a	n/a	n/a	n/a	n/a	n/a	n/a	green
122.0904	1.0167	ITI	n/a	n/a	n/a	n/a	n/a	n/a	n/a	n/a
123.1071	0.5167	FIXCROSS	n/a	n/a	n/a	n/a	n/a	n/a	n/a	n/a
123.6237	0.7167	INK	35	Neutral	xxxxx	xxxxx	czerwony	red	hit	n/a
124.3098	n/a	RESPONSE	n/a	n/a	n/a	n/a	n/a	n/a	n/a	red
124.3404	1.0167	ITI	n/a	n/a	n/a	n/a	n/a	n/a	n/a	n/a
125.3571	0.5167	FIXCROSS	n/a	n/a	n/a	n/a	n/a	n/a	n/a	n/a
125.8738	0.85	INK	36	Incongruent	żółty	yellow	niebieski	blue	hit	n/a
126.6932	n/a	RESPONSE	n/a	n/a	n/a	n/a	n/a	n/a	n/a	blue
126.7238	1.0167	ITI	n/a	n/a	n/a	n/a	n/a	n/a	n/a	n/a
127.7405	0.5167	FIXCROSS	n/a	n/a	n/a	n/a	n/a	n/a	n/a	n/a
128.2571	0.7333	INK	37	Incongruent	niebieski	blue	zielony	green	hit	n/a
128.9648	n/a	RESPONSE	n/a	n/a	n/a	n/a	n/a	n/a	n/a	green
128.9905	1.0167	ITI	n/a	n/a	n/a	n/a	n/a	n/a	n/a	n/a
130.0072	0.5167	FIXCROSS	n/a	n/a	n/a	n/a	n/a	n/a	n/a	n/a
130.5238	0.7667	INK	38	Neutral	xxxxxxxx	xxxxxxxx	niebieski	blue	hit	n/a
131.2683	n/a	RESPONSE	n/a	n/a	n/a	n/a	n/a	n/a	n/a	blue
131.2905	1.0167	ITI	n/a	n/a	n/a	n/a	n/a	n/a	n/a	n/a
132.3072	0.5167	FIXCROSS	n/a	n/a	n/a	n/a	n/a	n/a	n/a	n/a
132.8239	0.7833	INK	39	Incongruent	żółty	yellow	zielony	green	hit	n/a
133.5879	n/a	RESPONSE	n/a	n/a	n/a	n/a	n/a	n/a	n/a	green
133.6072	1.0167	ITI	n/a	n/a	n/a	n/a	n/a	n/a	n/a	n/a
134.6239	0.5167	FIXCROSS	n/a	n/a	n/a	n/a	n/a	n/a	n/a	n/a
135.1406	1.0833	INK	40	Incongruent	czerwony	red	zielony	green	hit	n/a
136.1954	n/a	RESPONSE	n/a	n/a	n/a	n/a	n/a	n/a	n/a	green
136.2239	1.0167	ITI	n/a	n/a	n/a	n/a	n/a	n/a	n/a	n/a
137.2406	0.5167	FIXCROSS	n/a	n/a	n/a	n/a	n/a	n/a	n/a	n/a
137.7573	1.3	INK	41	Incongruent	zielony	green	niebieski	blue	hit	n/a
139.0268	n/a	RESPONSE	n/a	n/a	n/a	n/a	n/a	n/a	n/a	blue
139.0573	1.0167	ITI	n/a	n/a	n/a	n/a	n/a	n/a	n/a	n/a
140.074	0.5167	FIXCROSS	n/a	n/a	n/a	n/a	n/a	n/a	n/a	n/a
140.5906	0.7833	INK	42	Neutral	xxxxxxxxx	xxxxxxxxx	zielony	green	hit	n/a
141.3464	n/a	RESPONSE	n/a	n/a	n/a	n/a	n/a	n/a	n/a	green
141.374	1.0167	ITI	n/a	n/a	n/a	n/a	n/a	n/a	n/a	n/a
142.3907	0.5167	FIXCROSS	n/a	n/a	n/a	n/a	n/a	n/a	n/a	n/a
142.9073	0.6833	INK	43	Incongruent	czerwony	red	zielony	green	hit	n/a
143.57	n/a	RESPONSE	n/a	n/a	n/a	n/a	n/a	n/a	n/a	green
143.5907	1.0167	ITI	n/a	n/a	n/a	n/a	n/a	n/a	n/a	n/a
144.6073	0.5167	FIXCROSS	n/a	n/a	n/a	n/a	n/a	n/a	n/a	n/a
145.124	0.6	INK	44	Neutral	xxxxxxxx	xxxxxxxx	zielony	green	hit	n/a
145.6974	n/a	RESPONSE	n/a	n/a	n/a	n/a	n/a	n/a	n/a	green
145.724	1.0167	ITI	n/a	n/a	n/a	n/a	n/a	n/a	n/a	n/a
146.7407	0.5167	FIXCROSS	n/a	n/a	n/a	n/a	n/a	n/a	n/a	n/a
147.2574	0.8167	INK	45	Neutral	xxxxx	xxxxx	niebieski	blue	hit	n/a
148.0488	n/a	RESPONSE	n/a	n/a	n/a	n/a	n/a	n/a	n/a	blue
148.0741	1.0167	ITI	n/a	n/a	n/a	n/a	n/a	n/a	n/a	n/a
149.0907	0.5167	FIXCROSS	n/a	n/a	n/a	n/a	n/a	n/a	n/a	n/a
149.6074	0.95	INK	46	Incongruent	niebieski	blue	żółty	yellow	hit	n/a
150.5282	n/a	RESPONSE	n/a	n/a	n/a	n/a	n/a	n/a	n/a	yellow
150.5574	1.0167	ITI	n/a	n/a	n/a	n/a	n/a	n/a	n/a	n/a
151.5741	0.5167	FIXCROSS	n/a	n/a	n/a	n/a	n/a	n/a	n/a	n/a
152.0908	0.5834	INK	47	Neutral	xxxxxxxxx	xxxxxxxxx	żółty	yellow	hit	n/a
152.6556	n/a	RESPONSE	n/a	n/a	n/a	n/a	n/a	n/a	n/a	yellow
152.6741	1.0167	ITI	n/a	n/a	n/a	n/a	n/a	n/a	n/a	n/a
153.6908	0.5167	FIXCROSS	n/a	n/a	n/a	n/a	n/a	n/a	n/a	n/a
154.2075	0.4333	INK	48	Incongruent	żółty	yellow	czerwony	red	hit	n/a
154.6072	n/a	RESPONSE	n/a	n/a	n/a	n/a	n/a	n/a	n/a	red
154.6408	1.0167	ITI	n/a	n/a	n/a	n/a	n/a	n/a	n/a	n/a
155.6575	0.5167	FIXCROSS	n/a	n/a	n/a	n/a	n/a	n/a	n/a	n/a
156.1742	0.55	INK	49	Neutral	xxxxx	xxxxx	czerwony	red	hit	n/a
156.7028	n/a	RESPONSE	n/a	n/a	n/a	n/a	n/a	n/a	n/a	red
156.7242	1.0167	ITI	n/a	n/a	n/a	n/a	n/a	n/a	n/a	n/a
157.7409	0.5167	FIXCROSS	n/a	n/a	n/a	n/a	n/a	n/a	n/a	n/a
158.2575	0.7833	INK	50	Incongruent	zielony	green	niebieski	blue	hit	n/a
159.0223	n/a	RESPONSE	n/a	n/a	n/a	n/a	n/a	n/a	n/a	blue
159.0409	1.0167	ITI	n/a	n/a	n/a	n/a	n/a	n/a	n/a	n/a
160.0576	0.5167	FIXCROSS	n/a	n/a	n/a	n/a	n/a	n/a	n/a	n/a
160.5742	0.55	INK	51	Incongruent	czerwony	red	zielony	green	hit	n/a
161.1019	n/a	RESPONSE	n/a	n/a	n/a	n/a	n/a	n/a	n/a	green
161.1242	1.0167	ITI	n/a	n/a	n/a	n/a	n/a	n/a	n/a	n/a
162.1409	0.5167	FIXCROSS	n/a	n/a	n/a	n/a	n/a	n/a	n/a	n/a
162.6576	0.7667	INK	52	Neutral	xxxxxxxxx	xxxxxxxxx	żółty	yellow	hit	n/a
163.4054	n/a	RESPONSE	n/a	n/a	n/a	n/a	n/a	n/a	n/a	yellow
163.4243	1.0167	ITI	n/a	n/a	n/a	n/a	n/a	n/a	n/a	n/a
164.4409	0.5167	FIXCROSS	n/a	n/a	n/a	n/a	n/a	n/a	n/a	n/a
164.9576	0.9	INK	53	Neutral	xxxxxxxx	xxxxxxxx	niebieski	blue	hit	n/a
165.8369	n/a	RESPONSE	n/a	n/a	n/a	n/a	n/a	n/a	n/a	blue
165.8576	1.0167	ITI	n/a	n/a	n/a	n/a	n/a	n/a	n/a	n/a
166.8743	0.5167	FIXCROSS	n/a	n/a	n/a	n/a	n/a	n/a	n/a	n/a
167.391	0.65	INK	54	Incongruent	czerwony	red	żółty	yellow	hit	n/a
168.0124	n/a	RESPONSE	n/a	n/a	n/a	n/a	n/a	n/a	n/a	yellow
168.041	1.0	ITI	n/a	n/a	n/a	n/a	n/a	n/a	n/a	n/a
169.041	0.5	FIXCROSS	n/a	n/a	n/a	n/a	n/a	n/a	n/a	n/a
169.541	0.9167	INK	55	Neutral	xxxxxxx	xxxxxxx	niebieski	blue	hit	n/a
170.4439	n/a	RESPONSE	n/a	n/a	n/a	n/a	n/a	n/a	n/a	blue
170.4577	1.0	ITI	n/a	n/a	n/a	n/a	n/a	n/a	n/a	n/a
171.4577	0.5	FIXCROSS	n/a	n/a	n/a	n/a	n/a	n/a	n/a	n/a
171.9577	0.7167	INK	56	Incongruent	czerwony	red	niebieski	blue	hit	n/a
172.6674	n/a	RESPONSE	n/a	n/a	n/a	n/a	n/a	n/a	n/a	blue
172.6744	1.0	ITI	n/a	n/a	n/a	n/a	n/a	n/a	n/a	n/a
173.6744	0.5	FIXCROSS	n/a	n/a	n/a	n/a	n/a	n/a	n/a	n/a
174.1744	0.7334	INK	57	Neutral	xxxxx	xxxxx	niebieski	blue	hit	n/a
174.875	n/a	RESPONSE	n/a	n/a	n/a	n/a	n/a	n/a	n/a	blue
174.9077	1.0167	ITI	n/a	n/a	n/a	n/a	n/a	n/a	n/a	n/a
175.9244	0.5167	FIXCROSS	n/a	n/a	n/a	n/a	n/a	n/a	n/a	n/a
176.4411	0.6167	INK	58	Incongruent	zielony	green	niebieski	blue	hit	n/a
177.0345	n/a	RESPONSE	n/a	n/a	n/a	n/a	n/a	n/a	n/a	blue
177.0578	1.0167	ITI	n/a	n/a	n/a	n/a	n/a	n/a	n/a	n/a
178.0744	0.5167	FIXCROSS	n/a	n/a	n/a	n/a	n/a	n/a	n/a	n/a
178.5911	0.7167	INK	59	Neutral	xxxxxxxx	xxxxxxxx	żółty	yellow	hit	n/a
179.2741	n/a	RESPONSE	n/a	n/a	n/a	n/a	n/a	n/a	n/a	yellow
179.3078	1.0167	ITI	n/a	n/a	n/a	n/a	n/a	n/a	n/a	n/a
180.3245	0.5167	FIXCROSS	n/a	n/a	n/a	n/a	n/a	n/a	n/a	n/a
180.8411	0.8167	INK	60	Incongruent	czerwony	red	żółty	yellow	hit	n/a
181.6256	n/a	RESPONSE	n/a	n/a	n/a	n/a	n/a	n/a	n/a	yellow
181.6578	1.0167	ITI	n/a	n/a	n/a	n/a	n/a	n/a	n/a	n/a
182.6745	0.5167	FIXCROSS	n/a	n/a	n/a	n/a	n/a	n/a	n/a	n/a
183.1912	0.9667	INK	61	Incongruent	czerwony	red	niebieski	blue	hit	n/a
184.1371	n/a	RESPONSE	n/a	n/a	n/a	n/a	n/a	n/a	n/a	blue
184.1579	1.0167	ITI	n/a	n/a	n/a	n/a	n/a	n/a	n/a	n/a
185.1745	0.5167	FIXCROSS	n/a	n/a	n/a	n/a	n/a	n/a	n/a	n/a
185.6912	0.5333	INK	62	Incongruent	zielony	green	żółty	yellow	hit	n/a
186.2006	n/a	RESPONSE	n/a	n/a	n/a	n/a	n/a	n/a	n/a	yellow
186.2245	1.0167	ITI	n/a	n/a	n/a	n/a	n/a	n/a	n/a	n/a
187.2412	0.5167	FIXCROSS	n/a	n/a	n/a	n/a	n/a	n/a	n/a	n/a
187.7579	0.75	INK	63	Neutral	xxxxxxx	xxxxxxx	niebieski	blue	hit	n/a
188.4881	n/a	RESPONSE	n/a	n/a	n/a	n/a	n/a	n/a	n/a	blue
188.5079	1.0167	ITI	n/a	n/a	n/a	n/a	n/a	n/a	n/a	n/a
189.5246	0.5167	FIXCROSS	n/a	n/a	n/a	n/a	n/a	n/a	n/a	n/a
190.0413	0.9667	INK	64	Incongruent	żółty	yellow	zielony	green	hit	n/a
190.9836	n/a	RESPONSE	n/a	n/a	n/a	n/a	n/a	n/a	n/a	green
191.0079	1.0167	ITI	n/a	n/a	n/a	n/a	n/a	n/a	n/a	n/a
192.0246	0.5167	FIXCROSS	n/a	n/a	n/a	n/a	n/a	n/a	n/a	n/a
192.5413	0.6833	INK	65	Incongruent	żółty	yellow	zielony	green	hit	n/a
193.1912	n/a	RESPONSE	n/a	n/a	n/a	n/a	n/a	n/a	n/a	green
193.2246	1.0167	ITI	n/a	n/a	n/a	n/a	n/a	n/a	n/a	n/a
194.2413	0.5167	FIXCROSS	n/a	n/a	n/a	n/a	n/a	n/a	n/a	n/a
194.758	0.7834	INK	66	Neutral	xxxxx	xxxxx	czerwony	red	hit	n/a
195.5107	n/a	RESPONSE	n/a	n/a	n/a	n/a	n/a	n/a	n/a	red
195.5413	1.0167	ITI	n/a	n/a	n/a	n/a	n/a	n/a	n/a	n/a
196.558	0.5167	FIXCROSS	n/a	n/a	n/a	n/a	n/a	n/a	n/a	n/a
197.0747	0.75	INK	67	Neutral	xxxxxxxxx	xxxxxxxxx	zielony	green	hit	n/a
197.7982	n/a	RESPONSE	n/a	n/a	n/a	n/a	n/a	n/a	n/a	green
197.8247	1.0167	ITI	n/a	n/a	n/a	n/a	n/a	n/a	n/a	n/a
198.8414	0.5167	FIXCROSS	n/a	n/a	n/a	n/a	n/a	n/a	n/a	n/a
199.358	0.9167	INK	68	Incongruent	zielony	green	czerwony	red	hit	n/a
200.2458	n/a	RESPONSE	n/a	n/a	n/a	n/a	n/a	n/a	n/a	red
200.2747	1.0167	ITI	n/a	n/a	n/a	n/a	n/a	n/a	n/a	n/a
201.2914	0.5167	FIXCROSS	n/a	n/a	n/a	n/a	n/a	n/a	n/a	n/a
201.8081	0.7667	INK	69	Neutral	xxxxxxxx	xxxxxxxx	niebieski	blue	hit	n/a
202.5492	n/a	RESPONSE	n/a	n/a	n/a	n/a	n/a	n/a	n/a	blue
202.5748	1.0167	ITI	n/a	n/a	n/a	n/a	n/a	n/a	n/a	n/a
203.5914	0.5167	FIXCROSS	n/a	n/a	n/a	n/a	n/a	n/a	n/a	n/a
204.1081	0.7667	INK	70	Neutral	xxxxxxx	xxxxxxx	czerwony	red	hit	n/a
204.8527	n/a	RESPONSE	n/a	n/a	n/a	n/a	n/a	n/a	n/a	red
204.8748	1.0167	ITI	n/a	n/a	n/a	n/a	n/a	n/a	n/a	n/a
205.8915	0.5167	FIXCROSS	n/a	n/a	n/a	n/a	n/a	n/a	n/a	n/a
206.4081	0.9333	INK	71	Neutral	xxxxxxxxx	xxxxxxxxx	żółty	yellow	hit	n/a
207.3162	n/a	RESPONSE	n/a	n/a	n/a	n/a	n/a	n/a	n/a	yellow
207.3415	1.0167	ITI	n/a	n/a	n/a	n/a	n/a	n/a	n/a	n/a
208.3582	0.5167	FIXCROSS	n/a	n/a	n/a	n/a	n/a	n/a	n/a	n/a
208.8748	0.5666	INK	72	Neutral	xxxxxxxx	xxxxxxxx	żółty	yellow	hit	n/a
209.4166	n/a	RESPONSE	n/a	n/a	n/a	n/a	n/a	n/a	n/a	yellow
209.4415	1.0834	ITI	n/a	n/a	n/a	n/a	n/a	n/a	n/a	n/a
235.9983	n/a	RESPONSE	n/a	n/a	n/a	n/a	n/a	n/a	n/a	n/a
236.0585	1.0167	ITI	n/a	n/a	n/a	n/a	n/a	n/a	n/a	n/a
237.0752	0.5167	FIXCROSS	n/a	n/a	n/a	n/a	n/a	n/a	n/a	n/a
237.5919	0.8167	T_COLOR_NAME	1	Neutral	czerwony	red	Neutral	Neutral	hit	n/a
238.3818	n/a	RESPONSE	n/a	n/a	n/a	n/a	n/a	n/a	n/a	red
238.4086	0.5167	FEEDBACK	n/a	n/a	n/a	n/a	n/a	n/a	n/a	n/a
238.9252	1.0167	ITI	n/a	n/a	n/a	n/a	n/a	n/a	n/a	n/a
239.9419	0.5167	FIXCROSS	n/a	n/a	n/a	n/a	n/a	n/a	n/a	n/a
240.4586	0.8333	T_COLOR_NAME	2	Neutral	żółty	yellow	Neutral	Neutral	hit	n/a
241.2612	n/a	RESPONSE	n/a	n/a	n/a	n/a	n/a	n/a	n/a	yellow
241.2919	0.5167	FEEDBACK	n/a	n/a	n/a	n/a	n/a	n/a	n/a	n/a
241.8086	1.0167	ITI	n/a	n/a	n/a	n/a	n/a	n/a	n/a	n/a
242.8253	0.5167	FIXCROSS	n/a	n/a	n/a	n/a	n/a	n/a	n/a	n/a
243.342	0.5834	T_COLOR_NAME	3	Neutral	żółty	yellow	Neutral	Neutral	hit	n/a
243.9006	n/a	RESPONSE	n/a	n/a	n/a	n/a	n/a	n/a	n/a	yellow
243.9253	0.5167	FEEDBACK	n/a	n/a	n/a	n/a	n/a	n/a	n/a	n/a
244.442	1.0167	ITI	n/a	n/a	n/a	n/a	n/a	n/a	n/a	n/a
245.4586	0.5167	FIXCROSS	n/a	n/a	n/a	n/a	n/a	n/a	n/a	n/a
245.9753	1.25	T_COLOR_NAME	4	Incongruent	żółty	yellow	czerwony	red	hit	n/a
247.196	n/a	RESPONSE	n/a	n/a	n/a	n/a	n/a	n/a	n/a	yellow
247.2253	0.5167	FEEDBACK	n/a	n/a	n/a	n/a	n/a	n/a	n/a	n/a
247.742	1.0167	ITI	n/a	n/a	n/a	n/a	n/a	n/a	n/a	n/a
248.7587	0.5167	FIXCROSS	n/a	n/a	n/a	n/a	n/a	n/a	n/a	n/a
249.2754	0.8667	T_COLOR_NAME	5	Neutral	czerwony	red	Neutral	Neutral	hit	n/a
250.1073	n/a	RESPONSE	n/a	n/a	n/a	n/a	n/a	n/a	n/a	red
250.142	0.5167	FEEDBACK	n/a	n/a	n/a	n/a	n/a	n/a	n/a	n/a
250.6587	1.0167	ITI	n/a	n/a	n/a	n/a	n/a	n/a	n/a	n/a
251.6754	0.5167	FIXCROSS	n/a	n/a	n/a	n/a	n/a	n/a	n/a	n/a
252.1921	0.8833	T_COLOR_NAME	6	Incongruent	czerwony	red	niebieski	blue	hit	n/a
253.0508	n/a	RESPONSE	n/a	n/a	n/a	n/a	n/a	n/a	n/a	red
253.0754	0.5167	FEEDBACK	n/a	n/a	n/a	n/a	n/a	n/a	n/a	n/a
253.5921	1.0167	ITI	n/a	n/a	n/a	n/a	n/a	n/a	n/a	n/a
254.6088	0.5167	FIXCROSS	n/a	n/a	n/a	n/a	n/a	n/a	n/a	n/a
255.1254	1.0833	T_COLOR_NAME	7	Neutral	zielony	green	Neutral	Neutral	hit	n/a
256.1861	n/a	RESPONSE	n/a	n/a	n/a	n/a	n/a	n/a	n/a	green
256.2088	0.5167	FEEDBACK	n/a	n/a	n/a	n/a	n/a	n/a	n/a	n/a
256.7255	1.0167	ITI	n/a	n/a	n/a	n/a	n/a	n/a	n/a	n/a
257.7421	0.5166	FIXCROSS	n/a	n/a	n/a	n/a	n/a	n/a	n/a	n/a
258.2588	1.0167	T_COLOR_NAME	8	Incongruent	czerwony	red	żółty	yellow	hit	n/a
259.2414	n/a	RESPONSE	n/a	n/a	n/a	n/a	n/a	n/a	n/a	red
259.2754	0.5167	FEEDBACK	n/a	n/a	n/a	n/a	n/a	n/a	n/a	n/a
259.7922	1.0167	ITI	n/a	n/a	n/a	n/a	n/a	n/a	n/a	n/a
260.8089	0.5167	FIXCROSS	n/a	n/a	n/a	n/a	n/a	n/a	n/a	n/a
261.3255	0.7167	T_COLOR_NAME	9	Neutral	żółty	yellow	Neutral	Neutral	hit	n/a
262.0089	n/a	RESPONSE	n/a	n/a	n/a	n/a	n/a	n/a	n/a	yellow
262.0422	0.5167	FEEDBACK	n/a	n/a	n/a	n/a	n/a	n/a	n/a	n/a
262.5589	1.0167	ITI	n/a	n/a	n/a	n/a	n/a	n/a	n/a	n/a
263.5756	0.5167	FIXCROSS	n/a	n/a	n/a	n/a	n/a	n/a	n/a	n/a
264.0922	1.1167	T_COLOR_NAME	10	Neutral	zielony	green	Neutral	Neutral	hit	n/a
265.1762	n/a	RESPONSE	n/a	n/a	n/a	n/a	n/a	n/a	n/a	green
265.2089	0.5167	FEEDBACK	n/a	n/a	n/a	n/a	n/a	n/a	n/a	n/a
265.7256	1.0167	ITI	n/a	n/a	n/a	n/a	n/a	n/a	n/a	n/a
266.7423	0.5167	FIXCROSS	n/a	n/a	n/a	n/a	n/a	n/a	n/a	n/a
267.2589	0.75	T_COLOR_NAME	11	Neutral	niebieski	blue	Neutral	Neutral	hit	n/a
267.9757	n/a	RESPONSE	n/a	n/a	n/a	n/a	n/a	n/a	n/a	blue
268.0089	0.5167	FEEDBACK	n/a	n/a	n/a	n/a	n/a	n/a	n/a	n/a
268.5256	1.0167	ITI	n/a	n/a	n/a	n/a	n/a	n/a	n/a	n/a
269.5423	0.5167	FIXCROSS	n/a	n/a	n/a	n/a	n/a	n/a	n/a	n/a
270.059	1.2	T_COLOR_NAME	12	Incongruent	zielony	green	niebieski	blue	hit	n/a
271.239	n/a	RESPONSE	n/a	n/a	n/a	n/a	n/a	n/a	n/a	green
271.259	0.5167	FEEDBACK	n/a	n/a	n/a	n/a	n/a	n/a	n/a	n/a
271.7757	1.0334	ITI	n/a	n/a	n/a	n/a	n/a	n/a	n/a	n/a
272.3907	n/a	RESPONSE	n/a	n/a	n/a	n/a	n/a	n/a	n/a	green
274.5503	n/a	RESPONSE	n/a	n/a	n/a	n/a	n/a	n/a	n/a	n/a
274.609	1.0167	ITI	n/a	n/a	n/a	n/a	n/a	n/a	n/a	n/a
275.6257	0.5167	FIXCROSS	n/a	n/a	n/a	n/a	n/a	n/a	n/a	n/a
276.1424	0.7667	COLOR_NAME	1	Neutral	czerwony	red	Neutral	Neutral	hit	n/a
276.8858	n/a	RESPONSE	n/a	n/a	n/a	n/a	n/a	n/a	n/a	red
276.9091	1.0167	ITI	n/a	n/a	n/a	n/a	n/a	n/a	n/a	n/a
277.9257	0.5167	FIXCROSS	n/a	n/a	n/a	n/a	n/a	n/a	n/a	n/a
278.4424	1.1667	COLOR_NAME	2	Neutral	niebieski	blue	Neutral	Neutral	hit	n/a
279.5892	n/a	RESPONSE	n/a	n/a	n/a	n/a	n/a	n/a	n/a	blue
279.6091	1.0167	ITI	n/a	n/a	n/a	n/a	n/a	n/a	n/a	n/a
280.6258	0.5167	FIXCROSS	n/a	n/a	n/a	n/a	n/a	n/a	n/a	n/a
281.1425	0.85	COLOR_NAME	3	Neutral	zielony	green	Neutral	Neutral	hit	n/a
281.9727	n/a	RESPONSE	n/a	n/a	n/a	n/a	n/a	n/a	n/a	green
281.9925	1.0167	ITI	n/a	n/a	n/a	n/a	n/a	n/a	n/a	n/a
283.0091	0.5167	FIXCROSS	n/a	n/a	n/a	n/a	n/a	n/a	n/a	n/a
283.5258	1.0167	COLOR_NAME	4	Incongruent	żółty	yellow	zielony	green	hit	n/a
284.5162	n/a	RESPONSE	n/a	n/a	n/a	n/a	n/a	n/a	n/a	yellow
284.5425	1.0167	ITI	n/a	n/a	n/a	n/a	n/a	n/a	n/a	n/a
285.5592	0.5167	FIXCROSS	n/a	n/a	n/a	n/a	n/a	n/a	n/a	n/a
286.0758	1.1167	COLOR_NAME	5	Neutral	niebieski	blue	Neutral	Neutral	hit	n/a
287.1717	n/a	RESPONSE	n/a	n/a	n/a	n/a	n/a	n/a	n/a	blue
287.1925	1.0167	ITI	n/a	n/a	n/a	n/a	n/a	n/a	n/a	n/a
288.2092	0.5167	FIXCROSS	n/a	n/a	n/a	n/a	n/a	n/a	n/a	n/a
288.7259	0.6667	COLOR_NAME	6	Incongruent	czerwony	red	niebieski	blue	hit	n/a
289.3632	n/a	RESPONSE	n/a	n/a	n/a	n/a	n/a	n/a	n/a	red
289.3926	1.0167	ITI	n/a	n/a	n/a	n/a	n/a	n/a	n/a	n/a
290.4092	0.5167	FIXCROSS	n/a	n/a	n/a	n/a	n/a	n/a	n/a	n/a
290.9259	0.8667	COLOR_NAME	7	Neutral	zielony	green	Neutral	Neutral	hit	n/a
291.7627	n/a	RESPONSE	n/a	n/a	n/a	n/a	n/a	n/a	n/a	green
291.7926	1.0167	ITI	n/a	n/a	n/a	n/a	n/a	n/a	n/a	n/a
292.8093	0.5167	FIXCROSS	n/a	n/a	n/a	n/a	n/a	n/a	n/a	n/a
293.3259	0.6	COLOR_NAME	8	Incongruent	czerwony	red	zielony	green	hit	n/a
293.9063	n/a	RESPONSE	n/a	n/a	n/a	n/a	n/a	n/a	n/a	red
293.9259	1.0167	ITI	n/a	n/a	n/a	n/a	n/a	n/a	n/a	n/a
294.9426	0.5167	FIXCROSS	n/a	n/a	n/a	n/a	n/a	n/a	n/a	n/a
295.4593	0.7333	COLOR_NAME	9	Neutral	żółty	yellow	Neutral	Neutral	hit	n/a
296.1618	n/a	RESPONSE	n/a	n/a	n/a	n/a	n/a	n/a	n/a	yellow
296.1926	1.0167	ITI	n/a	n/a	n/a	n/a	n/a	n/a	n/a	n/a
297.2093	0.5167	FIXCROSS	n/a	n/a	n/a	n/a	n/a	n/a	n/a	n/a
297.726	0.7167	COLOR_NAME	10	Neutral	czerwony	red	Neutral	Neutral	hit	n/a
298.4173	n/a	RESPONSE	n/a	n/a	n/a	n/a	n/a	n/a	n/a	red
298.4427	1.0167	ITI	n/a	n/a	n/a	n/a	n/a	n/a	n/a	n/a
299.4593	0.5167	FIXCROSS	n/a	n/a	n/a	n/a	n/a	n/a	n/a	n/a
299.976	0.7	COLOR_NAME	11	Incongruent	żółty	yellow	czerwony	red	hit	n/a
300.6569	n/a	RESPONSE	n/a	n/a	n/a	n/a	n/a	n/a	n/a	yellow
300.676	1.0167	ITI	n/a	n/a	n/a	n/a	n/a	n/a	n/a	n/a
301.6927	0.5167	FIXCROSS	n/a	n/a	n/a	n/a	n/a	n/a	n/a	n/a
302.2094	1.9334	COLOR_NAME	12	Incongruent	zielony	green	żółty	yellow	hit	n/a
304.1122	n/a	RESPONSE	n/a	n/a	n/a	n/a	n/a	n/a	n/a	green
304.1428	1.0167	ITI	n/a	n/a	n/a	n/a	n/a	n/a	n/a	n/a
305.1594	0.5167	FIXCROSS	n/a	n/a	n/a	n/a	n/a	n/a	n/a	n/a
305.6761	0.95	COLOR_NAME	13	Incongruent	czerwony	red	niebieski	blue	hit	n/a
306.5916	n/a	RESPONSE	n/a	n/a	n/a	n/a	n/a	n/a	n/a	red
306.6261	1.0167	ITI	n/a	n/a	n/a	n/a	n/a	n/a	n/a	n/a
307.6428	0.5167	FIXCROSS	n/a	n/a	n/a	n/a	n/a	n/a	n/a	n/a
308.1595	0.6833	COLOR_NAME	14	Incongruent	czerwony	red	żółty	yellow	hit	n/a
308.8152	n/a	RESPONSE	n/a	n/a	n/a	n/a	n/a	n/a	n/a	red
308.8428	1.0167	ITI	n/a	n/a	n/a	n/a	n/a	n/a	n/a	n/a
309.8595	0.5167	FIXCROSS	n/a	n/a	n/a	n/a	n/a	n/a	n/a	n/a
310.3762	1.0333	COLOR_NAME	15	Incongruent	niebieski	blue	czerwony	red	hit	n/a
311.3906	n/a	RESPONSE	n/a	n/a	n/a	n/a	n/a	n/a	n/a	blue
311.4095	1.0167	ITI	n/a	n/a	n/a	n/a	n/a	n/a	n/a	n/a
312.4262	0.5167	FIXCROSS	n/a	n/a	n/a	n/a	n/a	n/a	n/a	n/a
312.9429	0.7	COLOR_NAME	16	Incongruent	niebieski	blue	żółty	yellow	hit	n/a
313.6142	n/a	RESPONSE	n/a	n/a	n/a	n/a	n/a	n/a	n/a	blue
313.6429	1.0167	ITI	n/a	n/a	n/a	n/a	n/a	n/a	n/a	n/a
314.6596	0.5167	FIXCROSS	n/a	n/a	n/a	n/a	n/a	n/a	n/a	n/a
315.1762	0.65	COLOR_NAME	17	Incongruent	niebieski	blue	żółty	yellow	hit	n/a
315.8057	n/a	RESPONSE	n/a	n/a	n/a	n/a	n/a	n/a	n/a	blue
315.8262	1.0167	ITI	n/a	n/a	n/a	n/a	n/a	n/a	n/a	n/a
316.8429	0.5167	FIXCROSS	n/a	n/a	n/a	n/a	n/a	n/a	n/a	n/a
317.3596	0.6	COLOR_NAME	18	Incongruent	żółty	yellow	czerwony	red	hit	n/a
317.9333	n/a	RESPONSE	n/a	n/a	n/a	n/a	n/a	n/a	n/a	yellow
317.9596	1.0167	ITI	n/a	n/a	n/a	n/a	n/a	n/a	n/a	n/a
318.9763	0.5167	FIXCROSS	n/a	n/a	n/a	n/a	n/a	n/a	n/a	n/a
319.4929	1.3167	COLOR_NAME	19	Neutral	zielony	green	Neutral	Neutral	hit	n/a
320.7807	n/a	RESPONSE	n/a	n/a	n/a	n/a	n/a	n/a	n/a	green
320.8096	1.0167	ITI	n/a	n/a	n/a	n/a	n/a	n/a	n/a	n/a
321.8263	0.5167	FIXCROSS	n/a	n/a	n/a	n/a	n/a	n/a	n/a	n/a
322.343	0.5667	COLOR_NAME	20	Neutral	czerwony	red	Neutral	Neutral	hit	n/a
322.8922	n/a	RESPONSE	n/a	n/a	n/a	n/a	n/a	n/a	n/a	red
322.9097	1.0167	ITI	n/a	n/a	n/a	n/a	n/a	n/a	n/a	n/a
323.9263	0.5167	FIXCROSS	n/a	n/a	n/a	n/a	n/a	n/a	n/a	n/a
324.443	0.9667	COLOR_NAME	21	Neutral	czerwony	red	Neutral	Neutral	hit	n/a
325.3877	n/a	RESPONSE	n/a	n/a	n/a	n/a	n/a	n/a	n/a	red
325.4097	1.0167	ITI	n/a	n/a	n/a	n/a	n/a	n/a	n/a	n/a
326.4264	0.5167	FIXCROSS	n/a	n/a	n/a	n/a	n/a	n/a	n/a	n/a
326.9431	1.1	COLOR_NAME	22	Neutral	żółty	yellow	Neutral	Neutral	hit	n/a
328.0112	n/a	RESPONSE	n/a	n/a	n/a	n/a	n/a	n/a	n/a	yellow
328.0431	1.0167	ITI	n/a	n/a	n/a	n/a	n/a	n/a	n/a	n/a
329.0597	0.5167	FIXCROSS	n/a	n/a	n/a	n/a	n/a	n/a	n/a	n/a
329.5764	0.7333	COLOR_NAME	23	Incongruent	czerwony	red	żółty	yellow	hit	n/a
330.2827	n/a	RESPONSE	n/a	n/a	n/a	n/a	n/a	n/a	n/a	red
330.3098	1.0167	ITI	n/a	n/a	n/a	n/a	n/a	n/a	n/a	n/a
331.3264	0.5167	FIXCROSS	n/a	n/a	n/a	n/a	n/a	n/a	n/a	n/a
331.8431	1.6167	COLOR_NAME	24	Incongruent	niebieski	blue	czerwony	red	hit	n/a
333.4341	n/a	RESPONSE	n/a	n/a	n/a	n/a	n/a	n/a	n/a	blue
333.4598	1.0167	ITI	n/a	n/a	n/a	n/a	n/a	n/a	n/a	n/a
334.4765	0.5167	FIXCROSS	n/a	n/a	n/a	n/a	n/a	n/a	n/a	n/a
334.9931	0.75	COLOR_NAME	25	Neutral	zielony	green	Neutral	Neutral	hit	n/a
335.7216	n/a	RESPONSE	n/a	n/a	n/a	n/a	n/a	n/a	n/a	green
335.7432	1.0167	ITI	n/a	n/a	n/a	n/a	n/a	n/a	n/a	n/a
336.7598	0.5167	FIXCROSS	n/a	n/a	n/a	n/a	n/a	n/a	n/a	n/a
337.2765	1.4833	COLOR_NAME	26	Incongruent	zielony	green	czerwony	red	hit	n/a
338.729	n/a	RESPONSE	n/a	n/a	n/a	n/a	n/a	n/a	n/a	green
338.7599	1.0167	ITI	n/a	n/a	n/a	n/a	n/a	n/a	n/a	n/a
339.7765	0.5167	FIXCROSS	n/a	n/a	n/a	n/a	n/a	n/a	n/a	n/a
340.2932	1.0	COLOR_NAME	27	Neutral	niebieski	blue	Neutral	Neutral	hit	n/a
341.2724	n/a	RESPONSE	n/a	n/a	n/a	n/a	n/a	n/a	n/a	blue
341.2932	1.0167	ITI	n/a	n/a	n/a	n/a	n/a	n/a	n/a	n/a
342.3099	0.5167	FIXCROSS	n/a	n/a	n/a	n/a	n/a	n/a	n/a	n/a
342.8266	0.75	COLOR_NAME	28	Neutral	żółty	yellow	Neutral	Neutral	hit	n/a
343.544	n/a	RESPONSE	n/a	n/a	n/a	n/a	n/a	n/a	n/a	yellow
343.5766	1.0167	ITI	n/a	n/a	n/a	n/a	n/a	n/a	n/a	n/a
344.5933	0.5167	FIXCROSS	n/a	n/a	n/a	n/a	n/a	n/a	n/a	n/a
345.1099	0.6334	COLOR_NAME	29	Neutral	czerwony	red	Neutral	Neutral	hit	n/a
345.7195	n/a	RESPONSE	n/a	n/a	n/a	n/a	n/a	n/a	n/a	red
345.7433	1.0167	ITI	n/a	n/a	n/a	n/a	n/a	n/a	n/a	n/a
346.76	0.5167	FIXCROSS	n/a	n/a	n/a	n/a	n/a	n/a	n/a	n/a
347.2766	1.8334	COLOR_NAME	30	Incongruent	zielony	green	żółty	yellow	hit	n/a
349.0788	n/a	RESPONSE	n/a	n/a	n/a	n/a	n/a	n/a	n/a	green
349.11	1.0167	ITI	n/a	n/a	n/a	n/a	n/a	n/a	n/a	n/a
350.1267	0.5167	FIXCROSS	n/a	n/a	n/a	n/a	n/a	n/a	n/a	n/a
350.6434	0.6833	COLOR_NAME	31	Incongruent	żółty	yellow	niebieski	blue	hit	n/a
351.3024	n/a	RESPONSE	n/a	n/a	n/a	n/a	n/a	n/a	n/a	yellow
351.3267	1.0167	ITI	n/a	n/a	n/a	n/a	n/a	n/a	n/a	n/a
352.3434	0.5167	FIXCROSS	n/a	n/a	n/a	n/a	n/a	n/a	n/a	n/a
352.8601	1.6333	COLOR_NAME	32	Neutral	niebieski	blue	Neutral	Neutral	hit	n/a
354.4697	n/a	RESPONSE	n/a	n/a	n/a	n/a	n/a	n/a	n/a	blue
354.4934	1.0167	ITI	n/a	n/a	n/a	n/a	n/a	n/a	n/a	n/a
355.5101	0.5167	FIXCROSS	n/a	n/a	n/a	n/a	n/a	n/a	n/a	n/a
356.0268	0.6333	COLOR_NAME	33	Incongruent	żółty	yellow	zielony	green	hit	n/a
356.6292	n/a	RESPONSE	n/a	n/a	n/a	n/a	n/a	n/a	n/a	yellow
356.6601	1.0167	ITI	n/a	n/a	n/a	n/a	n/a	n/a	n/a	n/a
357.6768	0.5167	FIXCROSS	n/a	n/a	n/a	n/a	n/a	n/a	n/a	n/a
358.1935	1.35	COLOR_NAME	34	Incongruent	niebieski	blue	żółty	yellow	hit	n/a
359.5247	n/a	RESPONSE	n/a	n/a	n/a	n/a	n/a	n/a	n/a	blue
359.5435	1.0167	ITI	n/a	n/a	n/a	n/a	n/a	n/a	n/a	n/a
360.5602	0.5167	FIXCROSS	n/a	n/a	n/a	n/a	n/a	n/a	n/a	n/a
361.0768	1.1834	COLOR_NAME	35	Neutral	czerwony	red	Neutral	Neutral	hit	n/a
362.2281	n/a	RESPONSE	n/a	n/a	n/a	n/a	n/a	n/a	n/a	red
362.2602	1.0167	ITI	n/a	n/a	n/a	n/a	n/a	n/a	n/a	n/a
363.2769	0.5167	FIXCROSS	n/a	n/a	n/a	n/a	n/a	n/a	n/a	n/a
363.7935	0.5667	COLOR_NAME	36	Neutral	żółty	yellow	Neutral	Neutral	hit	n/a
364.3396	n/a	RESPONSE	n/a	n/a	n/a	n/a	n/a	n/a	n/a	yellow
364.3602	1.0167	ITI	n/a	n/a	n/a	n/a	n/a	n/a	n/a	n/a
365.3769	0.5167	FIXCROSS	n/a	n/a	n/a	n/a	n/a	n/a	n/a	n/a
365.8936	0.5833	COLOR_NAME	37	Neutral	żółty	yellow	Neutral	Neutral	hit	n/a
366.4512	n/a	RESPONSE	n/a	n/a	n/a	n/a	n/a	n/a	n/a	yellow
366.4769	1.0167	ITI	n/a	n/a	n/a	n/a	n/a	n/a	n/a	n/a
367.4936	0.5167	FIXCROSS	n/a	n/a	n/a	n/a	n/a	n/a	n/a	n/a
368.0102	0.55	COLOR_NAME	38	Incongruent	żółty	yellow	niebieski	blue	hit	n/a
368.5308	n/a	RESPONSE	n/a	n/a	n/a	n/a	n/a	n/a	n/a	yellow
368.5603	1.0167	ITI	n/a	n/a	n/a	n/a	n/a	n/a	n/a	n/a
369.5769	0.5167	FIXCROSS	n/a	n/a	n/a	n/a	n/a	n/a	n/a	n/a
370.0936	1.0167	COLOR_NAME	39	Incongruent	niebieski	blue	zielony	green	hit	n/a
371.0903	n/a	RESPONSE	n/a	n/a	n/a	n/a	n/a	n/a	n/a	blue
371.1103	1.0167	ITI	n/a	n/a	n/a	n/a	n/a	n/a	n/a	n/a
372.127	0.5167	FIXCROSS	n/a	n/a	n/a	n/a	n/a	n/a	n/a	n/a
372.6436	0.8167	COLOR_NAME	40	Neutral	czerwony	red	Neutral	Neutral	hit	n/a
373.4418	n/a	RESPONSE	n/a	n/a	n/a	n/a	n/a	n/a	n/a	red
373.4603	1.0167	ITI	n/a	n/a	n/a	n/a	n/a	n/a	n/a	n/a
374.477	0.5167	FIXCROSS	n/a	n/a	n/a	n/a	n/a	n/a	n/a	n/a
374.9937	0.5833	COLOR_NAME	41	Neutral	żółty	yellow	Neutral	Neutral	hit	n/a
375.5533	n/a	RESPONSE	n/a	n/a	n/a	n/a	n/a	n/a	n/a	yellow
375.577	1.0167	ITI	n/a	n/a	n/a	n/a	n/a	n/a	n/a	n/a
376.5937	0.5167	FIXCROSS	n/a	n/a	n/a	n/a	n/a	n/a	n/a	n/a
377.1104	1.0167	COLOR_NAME	42	Neutral	niebieski	blue	Neutral	Neutral	hit	n/a
378.0968	n/a	RESPONSE	n/a	n/a	n/a	n/a	n/a	n/a	n/a	blue
378.1271	1.0167	ITI	n/a	n/a	n/a	n/a	n/a	n/a	n/a	n/a
379.1437	0.5167	FIXCROSS	n/a	n/a	n/a	n/a	n/a	n/a	n/a	n/a
379.6604	0.9667	COLOR_NAME	43	Incongruent	niebieski	blue	czerwony	red	hit	n/a
380.5923	n/a	RESPONSE	n/a	n/a	n/a	n/a	n/a	n/a	n/a	blue
380.6271	1.0167	ITI	n/a	n/a	n/a	n/a	n/a	n/a	n/a	n/a
381.6438	0.5167	FIXCROSS	n/a	n/a	n/a	n/a	n/a	n/a	n/a	n/a
382.1604	0.75	COLOR_NAME	44	Neutral	zielony	green	Neutral	Neutral	hit	n/a
382.8798	n/a	RESPONSE	n/a	n/a	n/a	n/a	n/a	n/a	n/a	green
382.9104	1.0167	ITI	n/a	n/a	n/a	n/a	n/a	n/a	n/a	n/a
383.9271	0.5167	FIXCROSS	n/a	n/a	n/a	n/a	n/a	n/a	n/a	n/a
384.4438	1.3	COLOR_NAME	45	Neutral	zielony	green	Neutral	Neutral	hit	n/a
385.7113	n/a	RESPONSE	n/a	n/a	n/a	n/a	n/a	n/a	n/a	green
385.7438	1.0167	ITI	n/a	n/a	n/a	n/a	n/a	n/a	n/a	n/a
386.7605	0.5167	FIXCROSS	n/a	n/a	n/a	n/a	n/a	n/a	n/a	n/a
387.2772	0.8167	COLOR_NAME	46	Incongruent	czerwony	red	żółty	yellow	hit	n/a
388.0627	n/a	RESPONSE	n/a	n/a	n/a	n/a	n/a	n/a	n/a	red
388.0938	1.0167	ITI	n/a	n/a	n/a	n/a	n/a	n/a	n/a	n/a
389.1105	0.5167	FIXCROSS	n/a	n/a	n/a	n/a	n/a	n/a	n/a	n/a
389.6272	0.7167	COLOR_NAME	47	Incongruent	żółty	yellow	niebieski	blue	hit	n/a
390.3182	n/a	RESPONSE	n/a	n/a	n/a	n/a	n/a	n/a	n/a	yellow
390.3439	1.0167	ITI	n/a	n/a	n/a	n/a	n/a	n/a	n/a	n/a
391.3606	0.5167	FIXCROSS	n/a	n/a	n/a	n/a	n/a	n/a	n/a	n/a
391.8772	0.6334	COLOR_NAME	48	Neutral	czerwony	red	Neutral	Neutral	hit	n/a
392.4778	n/a	RESPONSE	n/a	n/a	n/a	n/a	n/a	n/a	n/a	red
392.5106	1.0167	ITI	n/a	n/a	n/a	n/a	n/a	n/a	n/a	n/a
393.5272	0.5167	FIXCROSS	n/a	n/a	n/a	n/a	n/a	n/a	n/a	n/a
394.0439	0.7334	COLOR_NAME	49	Neutral	czerwony	red	Neutral	Neutral	hit	n/a
394.7494	n/a	RESPONSE	n/a	n/a	n/a	n/a	n/a	n/a	n/a	red
394.7773	1.0167	ITI	n/a	n/a	n/a	n/a	n/a	n/a	n/a	n/a
395.7939	0.5167	FIXCROSS	n/a	n/a	n/a	n/a	n/a	n/a	n/a	n/a
396.3106	0.7667	COLOR_NAME	50	Incongruent	zielony	green	czerwony	red	hit	n/a
397.0528	n/a	RESPONSE	n/a	n/a	n/a	n/a	n/a	n/a	n/a	green
397.0773	1.0167	ITI	n/a	n/a	n/a	n/a	n/a	n/a	n/a	n/a
398.094	0.5167	FIXCROSS	n/a	n/a	n/a	n/a	n/a	n/a	n/a	n/a
398.3326	n/a	RESPONSE	n/a	n/a	n/a	n/a	n/a	n/a	n/a	red
398.6106	0.6833	COLOR_NAME	51	Incongruent	niebieski	blue	zielony	green	hit	n/a
399.2604	n/a	RESPONSE	n/a	n/a	n/a	n/a	n/a	n/a	n/a	blue
399.294	1.0167	ITI	n/a	n/a	n/a	n/a	n/a	n/a	n/a	n/a
400.3107	0.5167	FIXCROSS	n/a	n/a	n/a	n/a	n/a	n/a	n/a	n/a
400.8274	0.8	COLOR_NAME	52	Incongruent	zielony	green	niebieski	blue	hit	n/a
401.5959	n/a	RESPONSE	n/a	n/a	n/a	n/a	n/a	n/a	n/a	green
401.6274	1.0167	ITI	n/a	n/a	n/a	n/a	n/a	n/a	n/a	n/a
402.644	0.5167	FIXCROSS	n/a	n/a	n/a	n/a	n/a	n/a	n/a	n/a
403.1607	0.6667	COLOR_NAME	53	Neutral	żółty	yellow	Neutral	Neutral	hit	n/a
403.8034	n/a	RESPONSE	n/a	n/a	n/a	n/a	n/a	n/a	n/a	yellow
403.8274	1.0167	ITI	n/a	n/a	n/a	n/a	n/a	n/a	n/a	n/a
404.8441	0.5167	FIXCROSS	n/a	n/a	n/a	n/a	n/a	n/a	n/a	n/a
405.3607	1.0667	COLOR_NAME	54	Incongruent	zielony	green	niebieski	blue	hit	n/a
406.3949	n/a	RESPONSE	n/a	n/a	n/a	n/a	n/a	n/a	n/a	green
406.4274	1.0167	ITI	n/a	n/a	n/a	n/a	n/a	n/a	n/a	n/a
407.4441	0.5167	FIXCROSS	n/a	n/a	n/a	n/a	n/a	n/a	n/a	n/a
407.9608	1.1167	COLOR_NAME	55	Neutral	niebieski	blue	Neutral	Neutral	hit	n/a
409.0504	n/a	RESPONSE	n/a	n/a	n/a	n/a	n/a	n/a	n/a	blue
409.0775	1.0167	ITI	n/a	n/a	n/a	n/a	n/a	n/a	n/a	n/a
410.0941	0.5167	FIXCROSS	n/a	n/a	n/a	n/a	n/a	n/a	n/a	n/a
410.6108	0.7833	COLOR_NAME	56	Incongruent	czerwony	red	niebieski	blue	hit	n/a
411.3699	n/a	RESPONSE	n/a	n/a	n/a	n/a	n/a	n/a	n/a	red
411.3941	1.0167	ITI	n/a	n/a	n/a	n/a	n/a	n/a	n/a	n/a
412.4108	0.5167	FIXCROSS	n/a	n/a	n/a	n/a	n/a	n/a	n/a	n/a
412.9275	0.9167	COLOR_NAME	57	Incongruent	żółty	yellow	czerwony	red	hit	n/a
413.8174	n/a	RESPONSE	n/a	n/a	n/a	n/a	n/a	n/a	n/a	yellow
413.8442	1.0167	ITI	n/a	n/a	n/a	n/a	n/a	n/a	n/a	n/a
414.8609	0.5167	FIXCROSS	n/a	n/a	n/a	n/a	n/a	n/a	n/a	n/a
415.3775	0.7833	COLOR_NAME	58	Neutral	niebieski	blue	Neutral	Neutral	hit	n/a
416.1369	n/a	RESPONSE	n/a	n/a	n/a	n/a	n/a	n/a	n/a	blue
416.1609	1.0167	ITI	n/a	n/a	n/a	n/a	n/a	n/a	n/a	n/a
417.1776	0.5167	FIXCROSS	n/a	n/a	n/a	n/a	n/a	n/a	n/a	n/a
417.6942	0.7333	COLOR_NAME	59	Incongruent	czerwony	red	zielony	green	hit	n/a
418.4084	n/a	RESPONSE	n/a	n/a	n/a	n/a	n/a	n/a	n/a	red
418.4276	1.0167	ITI	n/a	n/a	n/a	n/a	n/a	n/a	n/a	n/a
419.4443	0.5167	FIXCROSS	n/a	n/a	n/a	n/a	n/a	n/a	n/a	n/a
419.9609	0.8	COLOR_NAME	60	Incongruent	niebieski	blue	zielony	green	hit	n/a
420.728	n/a	RESPONSE	n/a	n/a	n/a	n/a	n/a	n/a	n/a	blue
420.7609	1.0167	ITI	n/a	n/a	n/a	n/a	n/a	n/a	n/a	n/a
421.7776	0.5167	FIXCROSS	n/a	n/a	n/a	n/a	n/a	n/a	n/a	n/a
422.2943	0.8	COLOR_NAME	61	Incongruent	żółty	yellow	zielony	green	hit	n/a
423.0635	n/a	RESPONSE	n/a	n/a	n/a	n/a	n/a	n/a	n/a	yellow
423.0943	1.0167	ITI	n/a	n/a	n/a	n/a	n/a	n/a	n/a	n/a
424.111	0.5167	FIXCROSS	n/a	n/a	n/a	n/a	n/a	n/a	n/a	n/a
424.6277	1.0167	COLOR_NAME	62	Incongruent	zielony	green	czerwony	red	hit	n/a
425.6229	n/a	RESPONSE	n/a	n/a	n/a	n/a	n/a	n/a	n/a	green
425.6443	1.0167	ITI	n/a	n/a	n/a	n/a	n/a	n/a	n/a	n/a
426.661	0.5167	FIXCROSS	n/a	n/a	n/a	n/a	n/a	n/a	n/a	n/a
427.1777	0.8333	COLOR_NAME	63	Incongruent	zielony	green	niebieski	blue	hit	n/a
427.9905	n/a	RESPONSE	n/a	n/a	n/a	n/a	n/a	n/a	n/a	green
428.011	1.0167	ITI	n/a	n/a	n/a	n/a	n/a	n/a	n/a	n/a
429.0277	0.5167	FIXCROSS	n/a	n/a	n/a	n/a	n/a	n/a	n/a	n/a
429.5444	0.9667	COLOR_NAME	64	Neutral	niebieski	blue	Neutral	Neutral	hit	n/a
430.4859	n/a	RESPONSE	n/a	n/a	n/a	n/a	n/a	n/a	n/a	blue
430.5111	1.0167	ITI	n/a	n/a	n/a	n/a	n/a	n/a	n/a	n/a
431.5277	0.5167	FIXCROSS	n/a	n/a	n/a	n/a	n/a	n/a	n/a	n/a
432.0444	0.9833	COLOR_NAME	65	Incongruent	czerwony	red	zielony	green	hit	n/a
432.9974	n/a	RESPONSE	n/a	n/a	n/a	n/a	n/a	n/a	n/a	red
433.0278	1.0167	ITI	n/a	n/a	n/a	n/a	n/a	n/a	n/a	n/a
434.0444	0.5167	FIXCROSS	n/a	n/a	n/a	n/a	n/a	n/a	n/a	n/a
434.5611	0.5667	COLOR_NAME	66	Neutral	żółty	yellow	Neutral	Neutral	hit	n/a
435.109	n/a	RESPONSE	n/a	n/a	n/a	n/a	n/a	n/a	n/a	yellow
435.1278	1.0167	ITI	n/a	n/a	n/a	n/a	n/a	n/a	n/a	n/a
436.1445	0.5167	FIXCROSS	n/a	n/a	n/a	n/a	n/a	n/a	n/a	n/a
436.6611	1.45	COLOR_NAME	67	Incongruent	zielony	green	żółty	yellow	hit	n/a
438.0844	n/a	RESPONSE	n/a	n/a	n/a	n/a	n/a	n/a	n/a	green
438.1112	1.0167	ITI	n/a	n/a	n/a	n/a	n/a	n/a	n/a	n/a
439.1279	0.5167	FIXCROSS	n/a	n/a	n/a	n/a	n/a	n/a	n/a	n/a
439.6445	1.0	COLOR_NAME	68	Neutral	zielony	green	Neutral	Neutral	hit	n/a
440.6118	n/a	RESPONSE	n/a	n/a	n/a	n/a	n/a	n/a	n/a	green
440.6445	1.0167	ITI	n/a	n/a	n/a	n/a	n/a	n/a	n/a	n/a
441.6612	0.5167	FIXCROSS	n/a	n/a	n/a	n/a	n/a	n/a	n/a	n/a
442.1779	0.5167	COLOR_NAME	69	Neutral	zielony	green	Neutral	Neutral	hit	n/a
442.6754	n/a	RESPONSE	n/a	n/a	n/a	n/a	n/a	n/a	n/a	green
442.6946	1.0167	ITI	n/a	n/a	n/a	n/a	n/a	n/a	n/a	n/a
443.7112	0.5167	FIXCROSS	n/a	n/a	n/a	n/a	n/a	n/a	n/a	n/a
444.2279	0.5833	COLOR_NAME	70	Neutral	żółty	yellow	Neutral	Neutral	hit	n/a
444.787	n/a	RESPONSE	n/a	n/a	n/a	n/a	n/a	n/a	n/a	yellow
444.8112	1.0167	ITI	n/a	n/a	n/a	n/a	n/a	n/a	n/a	n/a
445.8279	0.5167	FIXCROSS	n/a	n/a	n/a	n/a	n/a	n/a	n/a	n/a
446.3446	0.5	COLOR_NAME	71	Neutral	zielony	green	Neutral	Neutral	hit	n/a
446.8185	n/a	RESPONSE	n/a	n/a	n/a	n/a	n/a	n/a	n/a	green
446.8446	1.0167	ITI	n/a	n/a	n/a	n/a	n/a	n/a	n/a	n/a
447.8613	0.5167	FIXCROSS	n/a	n/a	n/a	n/a	n/a	n/a	n/a	n/a
448.378	1.0	COLOR_NAME	72	Neutral	niebieski	blue	Neutral	Neutral	hit	n/a
449.346	n/a	RESPONSE	n/a	n/a	n/a	n/a	n/a	n/a	n/a	blue
449.378	1.0333	ITI	n/a	n/a	n/a	n/a	n/a	n/a	n/a	n/a
455.2168	n/a	RESPONSE	n/a	n/a	n/a	n/a	n/a	n/a	n/a	n/a
