onset	duration	trial_type	melody_number	melody_part	key	sound	action
0.0	14.081	CUE_START	n/a	n/a	n/a	n/a	n/a
14.082	7.76	FIXCROSS	n/a	n/a	n/a	n/a	n/a
21.841	6.324	CUE_LISTEN	M1	1	n/a	n/a	n/a
28.165	7.758	FIXCROSS	n/a	n/a	n/a	n/a	n/a
35.924	6.317	CUE_PLAYBACK_RIGHT_HAND	M1	1	n/a	n/a	n/a
36.922	n/a	RESPONSE	M1	1	19	G4	press
37.356	n/a	RESPONSE	M1	1	19	G4	release
37.484	n/a	RESPONSE	M1	1	16	E4	press
37.899	n/a	RESPONSE	M1	1	16	E4	release
38.044	n/a	RESPONSE	M1	1	16	E4	press
38.425	n/a	RESPONSE	M1	1	16	E4	release
38.628	n/a	RESPONSE	M1	1	17	F4	press
39.114	n/a	RESPONSE	M1	1	17	F4	release
39.218	n/a	RESPONSE	M1	1	14	D4	press
39.61	n/a	RESPONSE	M1	1	14	D4	release
39.78	n/a	RESPONSE	M1	1	14	D4	press
40.21	n/a	RESPONSE	M1	1	14	D4	release
40.398	n/a	RESPONSE	M1	1	12	C4	press
40.744	n/a	RESPONSE	M1	1	16	E4	press
40.791	n/a	RESPONSE	M1	1	12	C4	release
41.084	n/a	RESPONSE	M1	1	19	G4	press
41.222	n/a	RESPONSE	M1	1	16	E4	release
42.056	n/a	RESPONSE	M1	1	19	G4	release
42.24	7.758	FIXCROSS	n/a	n/a	n/a	n/a	n/a
49.998	6.317	CUE_LISTEN	M1	2	n/a	n/a	n/a
56.315	7.758	FIXCROSS	n/a	n/a	n/a	n/a	n/a
64.073	6.325	CUE_PLAYBACK_RIGHT_HAND	M1	2	n/a	n/a	n/a
64.735	n/a	RESPONSE	M1	2	19	G4	press
65.131	n/a	RESPONSE	M1	2	19	G4	release
65.27	n/a	RESPONSE	M1	2	16	E4	press
65.666	n/a	RESPONSE	M1	2	16	E4	release
65.818	n/a	RESPONSE	M1	2	16	E4	press
66.278	n/a	RESPONSE	M1	2	16	E4	release
66.34	n/a	RESPONSE	M1	2	17	F4	press
66.832	n/a	RESPONSE	M1	2	17	F4	release
66.899	n/a	RESPONSE	M1	2	14	D4	press
67.308	n/a	RESPONSE	M1	2	14	D4	release
67.448	n/a	RESPONSE	M1	2	14	D4	press
67.855	n/a	RESPONSE	M1	2	14	D4	release
67.989	n/a	RESPONSE	M1	2	12	C4	press
68.295	n/a	RESPONSE	M1	2	16	E4	press
68.346	n/a	RESPONSE	M1	2	12	C4	release
68.672	n/a	RESPONSE	M1	2	16	E4	release
68.68	n/a	RESPONSE	M1	2	12	C4	press
69.611	n/a	RESPONSE	M1	2	12	C4	release
70.398	7.758	FIXCROSS	n/a	n/a	n/a	n/a	n/a
78.157	6.317	CUE_LISTEN	M2	1	n/a	n/a	n/a
84.474	7.758	FIXCROSS	n/a	n/a	n/a	n/a	n/a
92.232	6.317	CUE_PLAYBACK_BOTH_HANDS	M2	1	n/a	n/a	n/a
93.006	n/a	RESPONSE	M2	1	00	C3	press
93.011	n/a	RESPONSE	M2	1	07	G3	press
93.514	n/a	RESPONSE	M2	1	00	C3	release
93.65	n/a	RESPONSE	M2	1	07	G3	release
94.832	n/a	RESPONSE	M2	1	24	C5	press
95.181	n/a	RESPONSE	M2	1	24	C5	release
95.366	n/a	RESPONSE	M2	1	24	C5	press
95.374	n/a	RESPONSE	M2	1	00	C3	press
95.385	n/a	RESPONSE	M2	1	07	G3	press
96.595	n/a	RESPONSE	M2	1	24	C5	release
96.63	n/a	RESPONSE	M2	1	00	C3	release
96.708	n/a	RESPONSE	M2	1	07	G3	release
96.981	n/a	RESPONSE	M2	1	00	C3	press
96.984	n/a	RESPONSE	M2	1	07	G3	press
96.994	n/a	RESPONSE	M2	1	24	C5	press
97.617	n/a	RESPONSE	M2	1	23	B4	press
97.894	n/a	RESPONSE	M2	1	23	B4	release
97.898	n/a	RESPONSE	M2	1	24	C5	release
98.158	n/a	RESPONSE	M2	1	00	C3	release
98.339	n/a	RESPONSE	M2	1	07	G3	release
98.435	n/a	RESPONSE	M2	1	07	G3	press
98.442	n/a	RESPONSE	M2	1	00	C3	press
98.445	n/a	RESPONSE	M2	1	24	C5	press
98.548	7.758	FIXCROSS	n/a	n/a	n/a	n/a	n/a
99.001	n/a	RESPONSE	M2	1	24	C5	release
99.314	n/a	RESPONSE	M2	1	21	A4	press
99.655	n/a	RESPONSE	M2	1	21	A4	release
99.69	n/a	RESPONSE	M2	1	00	C3	release
99.781	n/a	RESPONSE	M2	1	07	G3	release
106.307	6.325	CUE_LISTEN	M2	2	n/a	n/a	n/a
109.202	n/a	RESPONSE	M2	2	24	C5	press
109.382	n/a	RESPONSE	M2	2	24	C5	release
112.632	7.758	FIXCROSS	n/a	n/a	n/a	n/a	n/a
120.39	6.317	CUE_PLAYBACK_BOTH_HANDS	M2	2	n/a	n/a	n/a
120.948	n/a	RESPONSE	M2	2	07	G3	press
120.956	n/a	RESPONSE	M2	2	00	C3	press
120.961	n/a	RESPONSE	M2	2	24	C5	press
121.412	n/a	RESPONSE	M2	2	24	C5	release
121.51	n/a	RESPONSE	M2	2	00	C3	release
121.534	n/a	RESPONSE	M2	2	19	G4	press
121.914	n/a	RESPONSE	M2	2	19	G4	release
122.066	n/a	RESPONSE	M2	2	19	G4	press
122.07	n/a	RESPONSE	M2	2	00	C3	press
122.611	n/a	RESPONSE	M2	2	17	F4	press
122.895	n/a	RESPONSE	M2	2	19	G4	release
123.005	n/a	RESPONSE	M2	2	00	C3	release
123.019	n/a	RESPONSE	M2	2	17	F4	release
123.15	n/a	RESPONSE	M2	2	16	E4	press
123.162	n/a	RESPONSE	M2	2	00	C3	press
123.684	n/a	RESPONSE	M2	2	14	D4	press
123.764	n/a	RESPONSE	M2	2	16	E4	release
124.088	n/a	RESPONSE	M2	2	00	C3	release
124.125	n/a	RESPONSE	M2	2	07	G3	release
124.182	n/a	RESPONSE	M2	2	14	D4	release
124.26	n/a	RESPONSE	M2	2	12	C4	press
124.268	n/a	RESPONSE	M2	2	00	C3	press
124.27	n/a	RESPONSE	M2	2	07	G3	press
125.192	n/a	RESPONSE	M2	2	12	C4	release
125.221	n/a	RESPONSE	M2	2	00	C3	release
125.379	n/a	RESPONSE	M2	2	07	G3	release
126.707	7.758	FIXCROSS	n/a	n/a	n/a	n/a	n/a
134.465	6.325	CUE_LISTEN	M2	1	n/a	n/a	n/a
140.79	7.758	FIXCROSS	n/a	n/a	n/a	n/a	n/a
144.132	n/a	RESPONSE	M2	1	07	G3	press
144.154	n/a	RESPONSE	M2	1	00	C3	press
144.174	n/a	RESPONSE	M2	1	12	C4	press
144.805	n/a	RESPONSE	M2	1	14	D4	press
144.927	n/a	RESPONSE	M2	1	12	C4	release
145.278	n/a	RESPONSE	M2	1	14	D4	release
145.532	n/a	RESPONSE	M2	1	16	E4	press
146.085	n/a	RESPONSE	M2	1	16	E4	release
146.149	n/a	RESPONSE	M2	1	14	D4	press
146.504	n/a	RESPONSE	M2	1	00	C3	release
146.515	n/a	RESPONSE	M2	1	14	D4	release
146.562	n/a	RESPONSE	M2	1	07	G3	release
146.741	n/a	RESPONSE	M2	1	00	C3	press
146.744	n/a	RESPONSE	M2	1	16	E4	press
146.749	n/a	RESPONSE	M2	1	07	G3	press
147.238	n/a	RESPONSE	M2	1	16	E4	release
147.332	n/a	RESPONSE	M2	1	17	F4	press
147.726	n/a	RESPONSE	M2	1	00	C3	release
147.735	n/a	RESPONSE	M2	1	17	F4	release
147.762	n/a	RESPONSE	M2	1	07	G3	release
147.968	n/a	RESPONSE	M2	1	00	C3	press
147.97	n/a	RESPONSE	M2	1	07	G3	press
147.981	n/a	RESPONSE	M2	1	19	G4	press
148.549	6.317	CUE_PLAYBACK_BOTH_HANDS	M2	1	n/a	n/a	n/a
148.782	n/a	RESPONSE	M2	1	19	G4	release
148.834	n/a	RESPONSE	M2	1	00	C3	release
148.906	n/a	RESPONSE	M2	1	07	G3	release
151.207	n/a	RESPONSE	M2	1	00	C3	press
151.22	n/a	RESPONSE	M2	1	07	G3	press
151.235	n/a	RESPONSE	M2	1	12	C4	press
151.798	n/a	RESPONSE	M2	1	14	D4	press
151.802	n/a	RESPONSE	M2	1	12	C4	release
152.172	n/a	RESPONSE	M2	1	14	D4	release
152.24	n/a	RESPONSE	M2	1	00	C3	release
152.298	n/a	RESPONSE	M2	1	07	G3	release
152.396	n/a	RESPONSE	M2	1	00	C3	press
152.401	n/a	RESPONSE	M2	1	16	E4	press
152.411	n/a	RESPONSE	M2	1	07	G3	press
152.992	n/a	RESPONSE	M2	1	14	D4	press
153.082	n/a	RESPONSE	M2	1	16	E4	release
153.345	n/a	RESPONSE	M2	1	00	C3	release
153.35	n/a	RESPONSE	M2	1	14	D4	release
153.391	n/a	RESPONSE	M2	1	07	G3	release
153.542	n/a	RESPONSE	M2	1	00	C3	press
153.555	n/a	RESPONSE	M2	1	07	G3	press
153.572	n/a	RESPONSE	M2	1	16	E4	press
154.055	n/a	RESPONSE	M2	1	16	E4	release
154.109	n/a	RESPONSE	M2	1	17	F4	press
154.515	n/a	RESPONSE	M2	1	17	F4	release
154.53	n/a	RESPONSE	M2	1	00	C3	release
154.621	n/a	RESPONSE	M2	1	07	G3	release
154.71	n/a	RESPONSE	M2	1	19	G4	press
154.712	n/a	RESPONSE	M2	1	00	C3	press
154.719	n/a	RESPONSE	M2	1	07	G3	press
154.865	7.758	FIXCROSS	n/a	n/a	n/a	n/a	n/a
155.37	n/a	RESPONSE	M2	1	19	G4	release
155.401	n/a	RESPONSE	M2	1	00	C3	release
155.474	n/a	RESPONSE	M2	1	07	G3	release
162.624	6.317	CUE_LISTEN	M2	2	n/a	n/a	n/a
167.681	n/a	RESPONSE	M2	2	00	C3	press
167.689	n/a	RESPONSE	M2	2	07	G3	press
168.002	n/a	RESPONSE	M2	2	00	C3	release
168.165	n/a	RESPONSE	M2	2	07	G3	release
168.94	7.758	FIXCROSS	n/a	n/a	n/a	n/a	n/a
176.699	6.325	CUE_PLAYBACK_BOTH_HANDS	M2	2	n/a	n/a	n/a
177.709	n/a	RESPONSE	M2	2	00	C3	press
177.716	n/a	RESPONSE	M2	2	16	E4	press
177.719	n/a	RESPONSE	M2	2	07	G3	press
178.132	n/a	RESPONSE	M2	2	16	E4	release
178.256	n/a	RESPONSE	M2	2	19	G4	press
178.562	n/a	RESPONSE	M2	2	00	C3	release
178.595	n/a	RESPONSE	M2	2	19	G4	release
178.675	n/a	RESPONSE	M2	2	07	G3	release
178.781	n/a	RESPONSE	M2	2	00	C3	press
178.8	n/a	RESPONSE	M2	2	07	G3	press
178.814	n/a	RESPONSE	M2	2	19	G4	press
179.285	n/a	RESPONSE	M2	2	19	G4	release
179.349	n/a	RESPONSE	M2	2	17	F4	press
179.676	n/a	RESPONSE	M2	2	17	F4	release
179.71	n/a	RESPONSE	M2	2	00	C3	release
179.784	n/a	RESPONSE	M2	2	07	G3	release
179.901	n/a	RESPONSE	M2	2	00	C3	press
179.914	n/a	RESPONSE	M2	2	16	E4	press
179.942	n/a	RESPONSE	M2	2	07	G3	press
180.476	n/a	RESPONSE	M2	2	14	D4	press
180.556	n/a	RESPONSE	M2	2	16	E4	release
180.832	n/a	RESPONSE	M2	2	00	C3	release
180.855	n/a	RESPONSE	M2	2	07	G3	release
180.886	n/a	RESPONSE	M2	2	14	D4	release
181.02	n/a	RESPONSE	M2	2	00	C3	press
181.039	n/a	RESPONSE	M2	2	12	C4	press
181.064	n/a	RESPONSE	M2	2	07	G3	press
181.878	n/a	RESPONSE	M2	2	00	C3	release
181.886	n/a	RESPONSE	M2	2	12	C4	release
182.638	n/a	RESPONSE	M2	2	07	G3	release
183.024	7.758	FIXCROSS	n/a	n/a	n/a	n/a	n/a
190.782	6.317	CUE_LISTEN	M1	1	n/a	n/a	n/a
197.099	7.758	FIXCROSS	n/a	n/a	n/a	n/a	n/a
204.857	6.317	CUE_PLAYBACK_RIGHT_HAND	M1	1	n/a	n/a	n/a
205.521	n/a	RESPONSE	M1	1	19	G4	press
205.922	n/a	RESPONSE	M1	1	19	G4	release
206.035	n/a	RESPONSE	M1	1	16	E4	press
206.461	n/a	RESPONSE	M1	1	16	E4	release
206.584	n/a	RESPONSE	M1	1	16	E4	press
206.952	n/a	RESPONSE	M1	1	16	E4	release
207.134	n/a	RESPONSE	M1	1	17	F4	press
207.502	n/a	RESPONSE	M1	1	17	F4	release
207.655	n/a	RESPONSE	M1	1	14	D4	press
207.995	n/a	RESPONSE	M1	1	14	D4	release
208.158	n/a	RESPONSE	M1	1	14	D4	press
208.485	n/a	RESPONSE	M1	1	14	D4	release
208.704	n/a	RESPONSE	M1	1	12	C4	press
209.052	n/a	RESPONSE	M1	1	12	C4	release
209.08	n/a	RESPONSE	M1	1	16	E4	press
209.419	n/a	RESPONSE	M1	1	16	E4	release
209.421	n/a	RESPONSE	M1	1	19	G4	press
210.212	n/a	RESPONSE	M1	1	19	G4	release
211.174	7.758	FIXCROSS	n/a	n/a	n/a	n/a	n/a
218.932	6.325	CUE_LISTEN	M1	2	n/a	n/a	n/a
225.257	7.758	FIXCROSS	n/a	n/a	n/a	n/a	n/a
233.016	6.317	CUE_PLAYBACK_RIGHT_HAND	M1	2	n/a	n/a	n/a
233.879	n/a	RESPONSE	M1	2	19	G4	press
234.264	n/a	RESPONSE	M1	2	19	G4	release
234.415	n/a	RESPONSE	M1	2	16	E4	press
234.856	n/a	RESPONSE	M1	2	16	E4	release
234.991	n/a	RESPONSE	M1	2	16	E4	press
235.389	n/a	RESPONSE	M1	2	16	E4	release
235.549	n/a	RESPONSE	M1	2	17	F4	press
236.005	n/a	RESPONSE	M1	2	17	F4	release
236.118	n/a	RESPONSE	M1	2	14	D4	press
236.467	n/a	RESPONSE	M1	2	14	D4	release
236.662	n/a	RESPONSE	M1	2	14	D4	press
236.987	n/a	RESPONSE	M1	2	14	D4	release
237.201	n/a	RESPONSE	M1	2	12	C4	press
237.5	n/a	RESPONSE	M1	2	12	C4	release
237.566	n/a	RESPONSE	M1	2	16	E4	press
237.824	n/a	RESPONSE	M1	2	16	E4	release
237.926	n/a	RESPONSE	M1	2	12	C4	press
238.492	n/a	RESPONSE	M1	2	16	E4	press
238.79	n/a	RESPONSE	M1	2	16	E4	release
238.839	n/a	RESPONSE	M1	2	12	C4	release
239.332	7.758	FIXCROSS	n/a	n/a	n/a	n/a	n/a
247.09	6.317	CUE_LISTEN	M3	1	n/a	n/a	n/a
253.407	7.758	FIXCROSS	n/a	n/a	n/a	n/a	n/a
261.166	6.325	CUE_PLAYBACK_RIGHT_HAND	M3	1	n/a	n/a	n/a
261.729	n/a	RESPONSE	M3	1	12	C4	press
262.171	n/a	RESPONSE	M3	1	12	C4	release
262.212	n/a	RESPONSE	M3	1	14	D4	press
262.626	n/a	RESPONSE	M3	1	14	D4	release
262.748	n/a	RESPONSE	M3	1	16	E4	press
263.194	n/a	RESPONSE	M3	1	16	E4	release
263.296	n/a	RESPONSE	M3	1	12	C4	press
263.654	n/a	RESPONSE	M3	1	12	C4	release
263.822	n/a	RESPONSE	M3	1	12	C4	press
264.264	n/a	RESPONSE	M3	1	12	C4	release
264.418	n/a	RESPONSE	M3	1	14	D4	press
264.799	n/a	RESPONSE	M3	1	14	D4	release
264.968	n/a	RESPONSE	M3	1	16	E4	press
265.409	n/a	RESPONSE	M3	1	16	E4	release
265.548	n/a	RESPONSE	M3	1	12	C4	press
266.114	n/a	RESPONSE	M3	1	12	C4	release
267.49	7.758	FIXCROSS	n/a	n/a	n/a	n/a	n/a
275.249	6.325	CUE_LISTEN	M3	2	n/a	n/a	n/a
281.574	7.758	FIXCROSS	n/a	n/a	n/a	n/a	n/a
289.332	6.308	CUE_PLAYBACK_RIGHT_HAND	M3	2	n/a	n/a	n/a
289.944	n/a	RESPONSE	M3	2	16	E4	press
290.399	n/a	RESPONSE	M3	2	16	E4	release
290.632	n/a	RESPONSE	M3	2	16	E4	press
291.085	n/a	RESPONSE	M3	2	16	E4	release
291.195	n/a	RESPONSE	M3	2	17	F4	press
291.609	n/a	RESPONSE	M3	2	17	F4	release
291.777	n/a	RESPONSE	M3	2	19	G4	press
292.401	n/a	RESPONSE	M3	2	19	G4	release
292.972	n/a	RESPONSE	M3	2	16	E4	press
293.451	n/a	RESPONSE	M3	2	16	E4	release
293.592	n/a	RESPONSE	M3	2	17	F4	press
293.985	n/a	RESPONSE	M3	2	17	F4	release
294.199	n/a	RESPONSE	M3	2	19	G4	press
294.897	n/a	RESPONSE	M3	2	19	G4	release
295.641	7.758	FIXCROSS	n/a	n/a	n/a	n/a	n/a
303.399	6.325	CUE_LISTEN	M3	1	n/a	n/a	n/a
309.724	7.758	FIXCROSS	n/a	n/a	n/a	n/a	n/a
317.482	6.317	CUE_PLAYBACK_RIGHT_HAND	M3	1	n/a	n/a	n/a
319.462	n/a	RESPONSE	M3	1	19	G4	press
319.802	n/a	RESPONSE	M3	1	19	G4	release
319.84	n/a	RESPONSE	M3	1	21	A4	press
320.111	n/a	RESPONSE	M3	1	21	A4	release
320.231	n/a	RESPONSE	M3	1	19	G4	press
320.63	n/a	RESPONSE	M3	1	17	F4	press
320.704	n/a	RESPONSE	M3	1	19	G4	release
321.03	n/a	RESPONSE	M3	1	16	E4	press
321.119	n/a	RESPONSE	M3	1	17	F4	release
321.802	n/a	RESPONSE	M3	1	12	C4	press
321.85	n/a	RESPONSE	M3	1	16	E4	release
322.361	n/a	RESPONSE	M3	1	12	C4	release
322.591	n/a	RESPONSE	M3	1	17	F4	press
322.945	n/a	RESPONSE	M3	1	17	F4	release
323.371	n/a	RESPONSE	M3	1	17	F4	press
323.799	7.758	FIXCROSS	n/a	n/a	n/a	n/a	n/a
323.842	n/a	RESPONSE	M3	1	17	F4	release
324.426	n/a	RESPONSE	M3	1	19	G4	press
324.757	n/a	RESPONSE	M3	1	19	G4	release
324.864	n/a	RESPONSE	M3	1	21	A4	press
325.094	n/a	RESPONSE	M3	1	21	A4	release
325.23	n/a	RESPONSE	M3	1	19	G4	press
325.536	n/a	RESPONSE	M3	1	19	G4	release
325.604	n/a	RESPONSE	M3	1	17	F4	press
326.03	n/a	RESPONSE	M3	1	16	E4	press
326.056	n/a	RESPONSE	M3	1	17	F4	release
326.795	n/a	RESPONSE	M3	1	12	C4	press
326.806	n/a	RESPONSE	M3	1	16	E4	release
327.521	n/a	RESPONSE	M3	1	12	C4	release
331.557	6.325	CUE_LISTEN	M3	2	n/a	n/a	n/a
337.882	7.758	FIXCROSS	n/a	n/a	n/a	n/a	n/a
338.815	n/a	RESPONSE	M3	2	12	C4	press
339.512	n/a	RESPONSE	M3	2	07	G3	press
339.549	n/a	RESPONSE	M3	2	12	C4	release
340.176	n/a	RESPONSE	M3	2	12	C4	press
341.156	n/a	RESPONSE	M3	2	07	G3	release
341.32	n/a	RESPONSE	M3	2	12	C4	release
341.661	n/a	RESPONSE	M3	2	12	C4	press
342.351	n/a	RESPONSE	M3	2	07	G3	press
342.396	n/a	RESPONSE	M3	2	12	C4	release
342.996	n/a	RESPONSE	M3	2	12	C4	press
343.075	n/a	RESPONSE	M3	2	07	G3	release
343.972	n/a	RESPONSE	M3	2	12	C4	release
345.641	6.317	CUE_PLAYBACK_RIGHT_HAND	M3	2	n/a	n/a	n/a
346.185	n/a	RESPONSE	M3	2	12	C4	press
346.861	n/a	RESPONSE	M3	2	07	G3	press
346.93	n/a	RESPONSE	M3	2	12	C4	release
347.535	n/a	RESPONSE	M3	2	12	C4	press
347.579	n/a	RESPONSE	M3	2	07	G3	release
348.788	n/a	RESPONSE	M3	2	12	C4	release
349.146	n/a	RESPONSE	M3	2	12	C4	press
349.84	n/a	RESPONSE	M3	2	07	G3	press
349.901	n/a	RESPONSE	M3	2	12	C4	release
350.517	n/a	RESPONSE	M3	2	12	C4	press
350.54	n/a	RESPONSE	M3	2	07	G3	release
351.768	n/a	RESPONSE	M3	2	12	C4	release
351.957	7.759	FIXCROSS	n/a	n/a	n/a	n/a	n/a
359.716	6.317	CUE_LISTEN	M1	1	n/a	n/a	n/a
366.032	7.758	FIXCROSS	n/a	n/a	n/a	n/a	n/a
373.791	6.325	CUE_PLAYBACK_BOTH_HANDS	M1	1	n/a	n/a	n/a
375.345	n/a	RESPONSE	M1	1	00	C3	press
375.349	n/a	RESPONSE	M1	1	04	E3	press
375.351	n/a	RESPONSE	M1	1	19	G4	press
375.386	n/a	RESPONSE	M1	1	07	G3	press
375.829	n/a	RESPONSE	M1	1	19	G4	release
375.962	n/a	RESPONSE	M1	1	16	E4	press
376.379	n/a	RESPONSE	M1	1	16	E4	release
376.496	n/a	RESPONSE	M1	1	16	E4	press
376.794	n/a	RESPONSE	M1	1	07	G3	release
376.812	n/a	RESPONSE	M1	1	00	C3	release
376.819	n/a	RESPONSE	M1	1	04	E3	release
376.821	n/a	RESPONSE	M1	1	16	E4	release
377.102	n/a	RESPONSE	M1	1	02	D3	press
377.105	n/a	RESPONSE	M1	1	05	F3	press
377.11	n/a	RESPONSE	M1	1	17	F4	press
377.156	n/a	RESPONSE	M1	1	07	G3	press
377.707	n/a	RESPONSE	M1	1	17	F4	release
377.725	n/a	RESPONSE	M1	1	14	D4	press
378.101	n/a	RESPONSE	M1	1	14	D4	release
378.284	n/a	RESPONSE	M1	1	14	D4	press
378.576	n/a	RESPONSE	M1	1	14	D4	release
378.59	n/a	RESPONSE	M1	1	05	F3	release
378.625	n/a	RESPONSE	M1	1	02	D3	release
379.419	n/a	RESPONSE	M1	1	04	E3	press
379.45	n/a	RESPONSE	M1	1	16	E4	press
379.701	n/a	RESPONSE	M1	1	00	C3	press
379.875	n/a	RESPONSE	M1	1	00	C3	release
379.91	n/a	RESPONSE	M1	1	16	E4	release
380.052	n/a	RESPONSE	M1	1	04	E3	release
380.116	7.758	FIXCROSS	n/a	n/a	n/a	n/a	n/a
380.145	n/a	RESPONSE	M1	1	07	G3	release
380.431	n/a	RESPONSE	M1	1	04	E3	press
380.459	n/a	RESPONSE	M1	1	07	G3	press
380.495	n/a	RESPONSE	M1	1	16	E4	press
380.507	n/a	RESPONSE	M1	1	00	C3	press
380.92	n/a	RESPONSE	M1	1	12	C4	press
381.255	n/a	RESPONSE	M1	1	16	E4	release
381.31	n/a	RESPONSE	M1	1	12	C4	release
381.726	n/a	RESPONSE	M1	1	07	G3	release
381.764	n/a	RESPONSE	M1	1	04	E3	release
381.998	n/a	RESPONSE	M1	1	00	C3	release
383.701	n/a	RESPONSE	M1	1	19	G4	press
383.711	n/a	RESPONSE	M1	1	04	E3	press
383.725	n/a	RESPONSE	M1	1	07	G3	press
383.73	n/a	RESPONSE	M1	1	00	C3	press
384.095	n/a	RESPONSE	M1	1	19	G4	release
384.467	n/a	RESPONSE	M1	1	04	E3	release
385.094	n/a	RESPONSE	M1	1	07	G3	release
386.589	n/a	RESPONSE	M1	1	00	C3	release
387.874	6.317	CUE_LISTEN	M1	2	n/a	n/a	n/a
394.191	7.758	FIXCROSS	n/a	n/a	n/a	n/a	n/a
401.949	6.317	CUE_PLAYBACK_BOTH_HANDS	M1	2	n/a	n/a	n/a
402.885	n/a	RESPONSE	M1	2	04	E3	press
402.899	n/a	RESPONSE	M1	2	19	G4	press
402.906	n/a	RESPONSE	M1	2	07	G3	press
402.912	n/a	RESPONSE	M1	2	00	C3	press
403.359	n/a	RESPONSE	M1	2	19	G4	release
403.484	n/a	RESPONSE	M1	2	16	E4	press
403.855	n/a	RESPONSE	M1	2	16	E4	release
404.012	n/a	RESPONSE	M1	2	16	E4	press
404.339	n/a	RESPONSE	M1	2	00	C3	release
404.356	n/a	RESPONSE	M1	2	16	E4	release
404.365	n/a	RESPONSE	M1	2	04	E3	release
404.455	n/a	RESPONSE	M1	2	07	G3	release
404.586	n/a	RESPONSE	M1	2	17	F4	press
404.605	n/a	RESPONSE	M1	2	02	D3	press
404.609	n/a	RESPONSE	M1	2	05	F3	press
404.616	n/a	RESPONSE	M1	2	07	G3	press
405.106	n/a	RESPONSE	M1	2	17	F4	release
405.208	n/a	RESPONSE	M1	2	14	D4	press
405.586	n/a	RESPONSE	M1	2	14	D4	release
405.76	n/a	RESPONSE	M1	2	14	D4	press
406.075	n/a	RESPONSE	M1	2	02	D3	release
406.11	n/a	RESPONSE	M1	2	05	F3	release
406.126	n/a	RESPONSE	M1	2	14	D4	release
406.174	n/a	RESPONSE	M1	2	07	G3	release
406.536	n/a	RESPONSE	M1	2	04	E3	press
406.554	n/a	RESPONSE	M1	2	07	G3	press
406.572	n/a	RESPONSE	M1	2	12	C4	press
406.591	n/a	RESPONSE	M1	2	00	C3	press
407.044	n/a	RESPONSE	M1	2	16	E4	press
407.081	n/a	RESPONSE	M1	2	12	C4	release
407.471	n/a	RESPONSE	M1	2	16	E4	release
407.545	n/a	RESPONSE	M1	2	04	E3	release
407.67	n/a	RESPONSE	M1	2	12	C4	press
407.686	n/a	RESPONSE	M1	2	04	E3	press
408.266	7.758	FIXCROSS	n/a	n/a	n/a	n/a	n/a
408.611	n/a	RESPONSE	M1	2	12	C4	release
408.63	n/a	RESPONSE	M1	2	04	E3	release
408.665	n/a	RESPONSE	M1	2	07	G3	release
408.957	n/a	RESPONSE	M1	2	00	C3	release
416.024	6.325	CUE_LISTEN	M2	1	n/a	n/a	n/a
422.349	7.758	FIXCROSS	n/a	n/a	n/a	n/a	n/a
430.108	6.317	CUE_PLAYBACK_RIGHT_HAND	M2	1	n/a	n/a	n/a
431.195	n/a	RESPONSE	M2	1	24	C5	press
431.736	n/a	RESPONSE	M2	1	19	G4	press
431.74	n/a	RESPONSE	M2	1	24	C5	release
432.176	n/a	RESPONSE	M2	1	19	G4	release
432.257	n/a	RESPONSE	M2	1	19	G4	press
432.682	n/a	RESPONSE	M2	1	19	G4	release
432.779	n/a	RESPONSE	M2	1	17	F4	press
433.209	n/a	RESPONSE	M2	1	17	F4	release
433.277	n/a	RESPONSE	M2	1	16	E4	press
433.705	n/a	RESPONSE	M2	1	16	E4	release
433.735	n/a	RESPONSE	M2	1	17	F4	press
434.175	n/a	RESPONSE	M2	1	17	F4	release
434.234	n/a	RESPONSE	M2	1	19	G4	press
434.745	n/a	RESPONSE	M2	1	19	G4	release
436.424	7.758	FIXCROSS	n/a	n/a	n/a	n/a	n/a
444.183	6.317	CUE_LISTEN	M2	2	n/a	n/a	n/a
450.499	7.759	FIXCROSS	n/a	n/a	n/a	n/a	n/a
458.258	6.325	CUE_PLAYBACK_RIGHT_HAND	M2	2	n/a	n/a	n/a
459.204	n/a	RESPONSE	M2	2	24	C5	press
459.679	n/a	RESPONSE	M2	2	19	G4	press
459.685	n/a	RESPONSE	M2	2	24	C5	release
460.076	n/a	RESPONSE	M2	2	19	G4	release
460.2	n/a	RESPONSE	M2	2	19	G4	press
460.636	n/a	RESPONSE	M2	2	19	G4	release
460.707	n/a	RESPONSE	M2	2	17	F4	press
461.194	n/a	RESPONSE	M2	2	17	F4	release
461.242	n/a	RESPONSE	M2	2	16	E4	press
461.79	n/a	RESPONSE	M2	2	14	D4	press
461.871	n/a	RESPONSE	M2	2	16	E4	release
462.351	n/a	RESPONSE	M2	2	12	C4	press
462.395	n/a	RESPONSE	M2	2	14	D4	release
463.248	n/a	RESPONSE	M2	2	12	C4	release
464.583	7.758	FIXCROSS	n/a	n/a	n/a	n/a	n/a
472.341	6.317	CUE_LISTEN	M2	1	n/a	n/a	n/a
478.658	7.758	FIXCROSS	n/a	n/a	n/a	n/a	n/a
486.416	6.317	CUE_PLAYBACK_RIGHT_HAND	M2	1	n/a	n/a	n/a
487.411	n/a	RESPONSE	M2	1	12	C4	press
487.911	n/a	RESPONSE	M2	1	12	C4	release
487.946	n/a	RESPONSE	M2	1	14	D4	press
488.367	n/a	RESPONSE	M2	1	14	D4	release
488.47	n/a	RESPONSE	M2	1	16	E4	press
488.942	n/a	RESPONSE	M2	1	16	E4	release
489.005	n/a	RESPONSE	M2	1	14	D4	press
489.52	n/a	RESPONSE	M2	1	14	D4	release
489.57	n/a	RESPONSE	M2	1	16	E4	press
490.052	n/a	RESPONSE	M2	1	16	E4	release
490.094	n/a	RESPONSE	M2	1	17	F4	press
490.544	n/a	RESPONSE	M2	1	17	F4	release
490.604	n/a	RESPONSE	M2	1	19	G4	press
491.317	n/a	RESPONSE	M2	1	19	G4	release
492.733	7.758	FIXCROSS	n/a	n/a	n/a	n/a	n/a
500.491	6.325	CUE_LISTEN	M2	2	n/a	n/a	n/a
506.816	7.758	FIXCROSS	n/a	n/a	n/a	n/a	n/a
514.574	6.317	CUE_PLAYBACK_RIGHT_HAND	M2	2	n/a	n/a	n/a
515.465	n/a	RESPONSE	M2	2	16	E4	press
516.061	n/a	RESPONSE	M2	2	16	E4	release
517.364	n/a	RESPONSE	M2	2	19	G4	press
517.812	n/a	RESPONSE	M2	2	19	G4	release
517.964	n/a	RESPONSE	M2	2	19	G4	press
518.394	n/a	RESPONSE	M2	2	19	G4	release
518.567	n/a	RESPONSE	M2	2	17	F4	press
518.989	n/a	RESPONSE	M2	2	17	F4	release
519.201	n/a	RESPONSE	M2	2	16	E4	press
519.676	n/a	RESPONSE	M2	2	16	E4	release
519.822	n/a	RESPONSE	M2	2	14	D4	press
520.276	n/a	RESPONSE	M2	2	14	D4	release
520.424	n/a	RESPONSE	M2	2	12	C4	press
520.891	7.767	FIXCROSS	n/a	n/a	n/a	n/a	n/a
521.055	n/a	RESPONSE	M2	2	12	C4	release
528.658	6.308	CUE_LISTEN	M3	1	n/a	n/a	n/a
534.966	7.758	FIXCROSS	n/a	n/a	n/a	n/a	n/a
542.724	6.325	CUE_PLAYBACK_BOTH_HANDS	M3	1	n/a	n/a	n/a
543.556	n/a	RESPONSE	M3	1	00	C3	press
543.559	n/a	RESPONSE	M3	1	12	C4	press
544.01	n/a	RESPONSE	M3	1	12	C4	release
544.097	n/a	RESPONSE	M3	1	07	G3	press
544.114	n/a	RESPONSE	M3	1	00	C3	release
544.126	n/a	RESPONSE	M3	1	14	D4	press
544.535	n/a	RESPONSE	M3	1	07	G3	release
544.559	n/a	RESPONSE	M3	1	14	D4	release
544.622	n/a	RESPONSE	M3	1	04	E3	press
544.659	n/a	RESPONSE	M3	1	16	E4	press
545.116	n/a	RESPONSE	M3	1	16	E4	release
545.12	n/a	RESPONSE	M3	1	04	E3	release
545.189	n/a	RESPONSE	M3	1	07	G3	press
545.222	n/a	RESPONSE	M3	1	12	C4	press
545.61	n/a	RESPONSE	M3	1	07	G3	release
545.632	n/a	RESPONSE	M3	1	12	C4	release
545.74	n/a	RESPONSE	M3	1	00	C3	press
545.796	n/a	RESPONSE	M3	1	12	C4	press
546.192	n/a	RESPONSE	M3	1	12	C4	release
546.286	n/a	RESPONSE	M3	1	07	G3	press
546.296	n/a	RESPONSE	M3	1	00	C3	release
546.374	n/a	RESPONSE	M3	1	14	D4	press
546.747	n/a	RESPONSE	M3	1	14	D4	release
546.777	n/a	RESPONSE	M3	1	07	G3	release
546.872	n/a	RESPONSE	M3	1	04	E3	press
546.896	n/a	RESPONSE	M3	1	16	E4	press
547.354	n/a	RESPONSE	M3	1	16	E4	release
547.37	n/a	RESPONSE	M3	1	04	E3	release
547.411	n/a	RESPONSE	M3	1	07	G3	press
547.426	n/a	RESPONSE	M3	1	12	C4	press
547.946	n/a	RESPONSE	M3	1	12	C4	release
548.001	n/a	RESPONSE	M3	1	07	G3	release
549.049	7.758	FIXCROSS	n/a	n/a	n/a	n/a	n/a
556.808	6.317	CUE_LISTEN	M3	2	n/a	n/a	n/a
563.124	7.758	FIXCROSS	n/a	n/a	n/a	n/a	n/a
570.883	6.317	CUE_PLAYBACK_BOTH_HANDS	M3	2	n/a	n/a	n/a
572.094	n/a	RESPONSE	M3	2	16	E4	press
572.117	n/a	RESPONSE	M3	2	00	C3	press
572.624	n/a	RESPONSE	M3	2	16	E4	release
572.732	n/a	RESPONSE	M3	2	07	G3	press
572.752	n/a	RESPONSE	M3	2	17	F4	press
573.136	n/a	RESPONSE	M3	2	00	C3	release
573.226	n/a	RESPONSE	M3	2	17	F4	release
573.29	n/a	RESPONSE	M3	2	07	G3	release
574.346	n/a	RESPONSE	M3	2	00	C3	press
574.384	n/a	RESPONSE	M3	2	16	E4	press
574.522	n/a	RESPONSE	M3	2	16	E4	release
574.581	n/a	RESPONSE	M3	2	00	C3	release
574.802	n/a	RESPONSE	M3	2	00	C3	press
574.821	n/a	RESPONSE	M3	2	16	E4	press
575.2	n/a	RESPONSE	M3	2	16	E4	release
575.311	n/a	RESPONSE	M3	2	07	G3	press
575.341	n/a	RESPONSE	M3	2	17	F4	press
575.686	n/a	RESPONSE	M3	2	00	C3	release
575.697	n/a	RESPONSE	M3	2	17	F4	release
575.714	n/a	RESPONSE	M3	2	07	G3	release
576.661	n/a	RESPONSE	M3	2	04	E3	press
576.74	n/a	RESPONSE	M3	2	17	F4	press
577.17	n/a	RESPONSE	M3	2	17	F4	release
577.2	7.758	FIXCROSS	n/a	n/a	n/a	n/a	n/a
577.201	n/a	RESPONSE	M3	2	04	E3	release
584.958	6.325	CUE_LISTEN	M3	1	n/a	n/a	n/a
591.283	7.758	FIXCROSS	n/a	n/a	n/a	n/a	n/a
599.041	6.317	CUE_PLAYBACK_BOTH_HANDS	M3	1	n/a	n/a	n/a
599.871	n/a	RESPONSE	M3	1	00	C3	press
599.88	n/a	RESPONSE	M3	1	19	G4	press
600.317	n/a	RESPONSE	M3	1	21	A4	press
600.324	n/a	RESPONSE	M3	1	07	G3	press
600.66	n/a	RESPONSE	M3	1	21	A4	release
600.707	n/a	RESPONSE	M3	1	07	G3	release
600.989	n/a	RESPONSE	M3	1	04	E3	press
601.369	n/a	RESPONSE	M3	1	00	C3	release
601.474	n/a	RESPONSE	M3	1	04	E3	release
601.626	n/a	RESPONSE	M3	1	19	G4	release
602.41	n/a	RESPONSE	M3	1	19	G4	press
602.414	n/a	RESPONSE	M3	1	00	C3	press
602.865	n/a	RESPONSE	M3	1	00	C3	release
602.87	n/a	RESPONSE	M3	1	19	G4	release
603.115	n/a	RESPONSE	M3	1	00	C3	press
603.122	n/a	RESPONSE	M3	1	19	G4	press
603.515	n/a	RESPONSE	M3	1	21	A4	press
603.775	n/a	RESPONSE	M3	1	19	G4	release
603.797	n/a	RESPONSE	M3	1	21	A4	release
603.882	n/a	RESPONSE	M3	1	07	G3	press
603.926	n/a	RESPONSE	M3	1	19	G4	press
604.279	n/a	RESPONSE	M3	1	17	F4	press
604.46	n/a	RESPONSE	M3	1	19	G4	release
604.597	n/a	RESPONSE	M3	1	07	G3	release
604.605	n/a	RESPONSE	M3	1	00	C3	release
604.681	n/a	RESPONSE	M3	1	04	E3	press
604.689	n/a	RESPONSE	M3	1	16	E4	press
605.358	7.758	FIXCROSS	n/a	n/a	n/a	n/a	n/a
605.432	n/a	RESPONSE	M3	1	07	G3	press
605.435	n/a	RESPONSE	M3	1	12	C4	press
605.445	n/a	RESPONSE	M3	1	04	E3	release
605.504	n/a	RESPONSE	M3	1	16	E4	release
605.891	n/a	RESPONSE	M3	1	17	F4	release
605.942	n/a	RESPONSE	M3	1	12	C4	release
606.006	n/a	RESPONSE	M3	1	07	G3	release
606.152	n/a	RESPONSE	M3	1	00	C3	press
606.164	n/a	RESPONSE	M3	1	19	G4	press
606.649	n/a	RESPONSE	M3	1	19	G4	release
606.756	n/a	RESPONSE	M3	1	21	A4	press
607.055	n/a	RESPONSE	M3	1	21	A4	release
607.172	n/a	RESPONSE	M3	1	07	G3	press
607.182	n/a	RESPONSE	M3	1	19	G4	press
607.572	n/a	RESPONSE	M3	1	17	F4	press
607.609	n/a	RESPONSE	M3	1	04	E3	press
607.665	n/a	RESPONSE	M3	1	07	G3	release
607.8	n/a	RESPONSE	M3	1	00	C3	release
607.821	n/a	RESPONSE	M3	1	19	G4	release
608.047	n/a	RESPONSE	M3	1	16	E4	press
608.114	n/a	RESPONSE	M3	1	07	G3	press
608.187	n/a	RESPONSE	M3	1	12	C4	press
608.589	n/a	RESPONSE	M3	1	04	E3	release
608.631	n/a	RESPONSE	M3	1	16	E4	release
608.662	n/a	RESPONSE	M3	1	12	C4	release
608.762	n/a	RESPONSE	M3	1	07	G3	release
608.772	n/a	RESPONSE	M3	1	17	F4	release
613.116	6.325	CUE_LISTEN	M3	2	n/a	n/a	n/a
619.441	7.758	FIXCROSS	n/a	n/a	n/a	n/a	n/a
627.2	6.317	CUE_PLAYBACK_BOTH_HANDS	M3	2	n/a	n/a	n/a
629.285	n/a	RESPONSE	M3	2	00	C3	press
629.287	n/a	RESPONSE	M3	2	12	C4	press
629.854	n/a	RESPONSE	M3	2	12	C4	release
629.967	n/a	RESPONSE	M3	2	00	C3	release
630.022	n/a	RESPONSE	M3	2	07	G3	press
630.612	n/a	RESPONSE	M3	2	07	G3	release
630.731	n/a	RESPONSE	M3	2	00	C3	press
630.762	n/a	RESPONSE	M3	2	12	C4	press
631.715	n/a	RESPONSE	M3	2	12	C4	release
632.005	n/a	RESPONSE	M3	2	00	C3	release
633.516	7.758	FIXCROSS	n/a	n/a	n/a	n/a	n/a
633.806	n/a	RESPONSE	M3	2	00	C3	press
633.831	n/a	RESPONSE	M3	2	12	C4	press
634.336	n/a	RESPONSE	M3	2	12	C4	release
634.405	n/a	RESPONSE	M3	2	07	G3	press
634.455	n/a	RESPONSE	M3	2	12	C4	press
634.799	n/a	RESPONSE	M3	2	00	C3	release
634.809	n/a	RESPONSE	M3	2	12	C4	release
634.93	n/a	RESPONSE	M3	2	07	G3	release
635.451	n/a	RESPONSE	M3	2	00	C3	press
635.506	n/a	RESPONSE	M3	2	12	C4	press
635.955	n/a	RESPONSE	M3	2	12	C4	release
636.096	n/a	RESPONSE	M3	2	00	C3	release
636.121	n/a	RESPONSE	M3	2	07	G3	press
636.565	n/a	RESPONSE	M3	2	07	G3	release
636.715	n/a	RESPONSE	M3	2	00	C3	press
636.747	n/a	RESPONSE	M3	2	12	C4	press
637.616	n/a	RESPONSE	M3	2	12	C4	release
637.732	n/a	RESPONSE	M3	2	00	C3	release
641.275	6.317	CUE_LISTEN	M1	1	n/a	n/a	n/a
647.591	7.758	FIXCROSS	n/a	n/a	n/a	n/a	n/a
655.35	6.325	CUE_PLAYBACK_BOTH_HANDS	M1	1	n/a	n/a	n/a
656.924	n/a	RESPONSE	M1	1	04	E3	press
656.93	n/a	RESPONSE	M1	1	00	C3	press
656.945	n/a	RESPONSE	M1	1	19	G4	press
656.962	n/a	RESPONSE	M1	1	07	G3	press
657.49	n/a	RESPONSE	M1	1	19	G4	release
657.677	n/a	RESPONSE	M1	1	16	E4	press
658.135	n/a	RESPONSE	M1	1	16	E4	release
658.347	n/a	RESPONSE	M1	1	16	E4	press
658.831	n/a	RESPONSE	M1	1	07	G3	release
658.834	n/a	RESPONSE	M1	1	16	E4	release
658.937	n/a	RESPONSE	M1	1	04	E3	release
658.942	n/a	RESPONSE	M1	1	00	C3	release
659.856	n/a	RESPONSE	M1	1	02	D3	press
659.87	n/a	RESPONSE	M1	1	05	F3	press
659.874	n/a	RESPONSE	M1	1	07	G3	press
659.877	n/a	RESPONSE	M1	1	17	F4	press
660.581	n/a	RESPONSE	M1	1	17	F4	release
660.597	n/a	RESPONSE	M1	1	14	D4	press
661.015	n/a	RESPONSE	M1	1	14	D4	release
661.227	n/a	RESPONSE	M1	1	14	D4	press
661.586	n/a	RESPONSE	M1	1	05	F3	release
661.639	n/a	RESPONSE	M1	1	02	D3	release
661.65	n/a	RESPONSE	M1	1	14	D4	release
661.675	7.758	FIXCROSS	n/a	n/a	n/a	n/a	n/a
661.802	n/a	RESPONSE	M1	1	07	G3	release
663.407	n/a	RESPONSE	M1	1	04	E3	press
663.419	n/a	RESPONSE	M1	1	00	C3	press
663.447	n/a	RESPONSE	M1	1	16	E4	press
663.451	n/a	RESPONSE	M1	1	07	G3	press
663.575	n/a	RESPONSE	M1	1	01	C#3	press
663.785	n/a	RESPONSE	M1	1	16	E4	release
663.815	n/a	RESPONSE	M1	1	01	C#3	release
664.01	n/a	RESPONSE	M1	1	07	G3	release
664.04	n/a	RESPONSE	M1	1	04	E3	release
664.195	n/a	RESPONSE	M1	1	04	E3	press
664.209	n/a	RESPONSE	M1	1	07	G3	press
664.216	n/a	RESPONSE	M1	1	12	C4	press
664.668	n/a	RESPONSE	M1	1	16	E4	press
664.732	n/a	RESPONSE	M1	1	12	C4	release
665.12	n/a	RESPONSE	M1	1	19	G4	press
665.149	n/a	RESPONSE	M1	1	21	A4	press
665.197	n/a	RESPONSE	M1	1	16	E4	release
665.377	n/a	RESPONSE	M1	1	21	A4	release
665.995	n/a	RESPONSE	M1	1	04	E3	release
666.012	n/a	RESPONSE	M1	1	19	G4	release
666.157	n/a	RESPONSE	M1	1	07	G3	release
666.206	n/a	RESPONSE	M1	1	00	C3	release
669.433	6.325	CUE_LISTEN	M1	2	n/a	n/a	n/a
675.758	7.758	FIXCROSS	n/a	n/a	n/a	n/a	n/a
683.516	6.308	CUE_PLAYBACK_BOTH_HANDS	M1	2	n/a	n/a	n/a
684.686	n/a	RESPONSE	M1	2	04	E3	press
684.706	n/a	RESPONSE	M1	2	07	G3	press
684.724	n/a	RESPONSE	M1	2	19	G4	press
684.737	n/a	RESPONSE	M1	2	00	C3	press
685.156	n/a	RESPONSE	M1	2	19	G4	release
685.387	n/a	RESPONSE	M1	2	16	E4	press
685.864	n/a	RESPONSE	M1	2	16	E4	release
686.015	n/a	RESPONSE	M1	2	16	E4	press
686.307	n/a	RESPONSE	M1	2	00	C3	release
686.384	n/a	RESPONSE	M1	2	16	E4	release
686.396	n/a	RESPONSE	M1	2	04	E3	release
686.532	n/a	RESPONSE	M1	2	07	G3	release
686.725	n/a	RESPONSE	M1	2	05	F3	press
686.737	n/a	RESPONSE	M1	2	17	F4	press
686.757	n/a	RESPONSE	M1	2	07	G3	press
686.761	n/a	RESPONSE	M1	2	02	D3	press
687.336	n/a	RESPONSE	M1	2	17	F4	release
687.41	n/a	RESPONSE	M1	2	14	D4	press
687.842	n/a	RESPONSE	M1	2	14	D4	release
688.044	n/a	RESPONSE	M1	2	14	D4	press
688.385	n/a	RESPONSE	M1	2	02	D3	release
688.431	n/a	RESPONSE	M1	2	05	F3	release
688.46	n/a	RESPONSE	M1	2	14	D4	release
688.522	n/a	RESPONSE	M1	2	07	G3	release
689.721	n/a	RESPONSE	M1	2	07	G3	press
689.727	n/a	RESPONSE	M1	2	12	C4	press
689.73	n/a	RESPONSE	M1	2	04	E3	press
689.742	n/a	RESPONSE	M1	2	00	C3	press
689.825	7.758	FIXCROSS	n/a	n/a	n/a	n/a	n/a
690.23	n/a	RESPONSE	M1	2	16	E4	press
690.309	n/a	RESPONSE	M1	2	12	C4	release
690.712	n/a	RESPONSE	M1	2	12	C4	press
690.762	n/a	RESPONSE	M1	2	16	E4	release
691.762	n/a	RESPONSE	M1	2	12	C4	release
691.787	n/a	RESPONSE	M1	2	04	E3	release
691.804	n/a	RESPONSE	M1	2	07	G3	release
692.08	n/a	RESPONSE	M1	2	00	C3	release
697.583	6.325	CUE_LISTEN	M2	1	n/a	n/a	n/a
703.908	7.758	FIXCROSS	n/a	n/a	n/a	n/a	n/a
711.666	6.317	CUE_PLAYBACK_BOTH_HANDS	M2	1	n/a	n/a	n/a
712.537	n/a	RESPONSE	M2	1	00	C3	press
712.545	n/a	RESPONSE	M2	1	24	C5	press
712.551	n/a	RESPONSE	M2	1	07	G3	press
713.082	n/a	RESPONSE	M2	1	19	G4	press
713.251	n/a	RESPONSE	M2	1	24	C5	release
713.447	n/a	RESPONSE	M2	1	19	G4	release
713.777	n/a	RESPONSE	M2	1	00	C3	release
714.357	n/a	RESPONSE	M2	1	07	G3	release
714.365	n/a	RESPONSE	M2	1	19	G4	press
714.72	n/a	RESPONSE	M2	1	19	G4	release
714.886	n/a	RESPONSE	M2	1	07	G3	press
714.889	n/a	RESPONSE	M2	1	00	C3	press
714.891	n/a	RESPONSE	M2	1	19	G4	press
715.427	n/a	RESPONSE	M2	1	17	F4	press
715.711	n/a	RESPONSE	M2	1	19	G4	release
715.867	n/a	RESPONSE	M2	1	17	F4	release
715.927	n/a	RESPONSE	M2	1	00	C3	release
715.969	n/a	RESPONSE	M2	1	16	E4	press
716.435	n/a	RESPONSE	M2	1	16	E4	release
716.444	n/a	RESPONSE	M2	1	07	G3	release
716.511	n/a	RESPONSE	M2	1	00	C3	press
716.526	n/a	RESPONSE	M2	1	16	E4	press
716.53	n/a	RESPONSE	M2	1	07	G3	press
716.942	n/a	RESPONSE	M2	1	16	E4	release
717.045	n/a	RESPONSE	M2	1	17	F4	press
717.419	n/a	RESPONSE	M2	1	17	F4	release
717.46	n/a	RESPONSE	M2	1	00	C3	release
717.516	n/a	RESPONSE	M2	1	07	G3	release
717.602	n/a	RESPONSE	M2	1	19	G4	press
717.616	n/a	RESPONSE	M2	1	00	C3	press
717.62	n/a	RESPONSE	M2	1	07	G3	press
717.983	7.758	FIXCROSS	n/a	n/a	n/a	n/a	n/a
718.352	n/a	RESPONSE	M2	1	00	C3	release
718.368	n/a	RESPONSE	M2	1	19	G4	release
721.534	n/a	RESPONSE	M2	1	07	G3	release
725.742	6.325	CUE_LISTEN	M2	2	n/a	n/a	n/a
732.066	7.758	FIXCROSS	n/a	n/a	n/a	n/a	n/a
739.825	6.317	CUE_PLAYBACK_BOTH_HANDS	M2	2	n/a	n/a	n/a
740.562	n/a	RESPONSE	M2	2	00	C3	press
740.569	n/a	RESPONSE	M2	2	24	C5	press
740.574	n/a	RESPONSE	M2	2	07	G3	press
741.007	n/a	RESPONSE	M2	2	24	C5	release
741.149	n/a	RESPONSE	M2	2	19	G4	press
741.535	n/a	RESPONSE	M2	2	19	G4	release
741.559	n/a	RESPONSE	M2	2	00	C3	release
741.746	n/a	RESPONSE	M2	2	19	G4	press
741.749	n/a	RESPONSE	M2	2	00	C3	press
742.32	n/a	RESPONSE	M2	2	17	F4	press
742.357	n/a	RESPONSE	M2	2	19	G4	release
742.7	n/a	RESPONSE	M2	2	00	C3	release
742.719	n/a	RESPONSE	M2	2	17	F4	release
742.764	n/a	RESPONSE	M2	2	07	G3	release
742.881	n/a	RESPONSE	M2	2	16	E4	press
742.894	n/a	RESPONSE	M2	2	07	G3	press
742.906	n/a	RESPONSE	M2	2	00	C3	press
743.479	n/a	RESPONSE	M2	2	14	D4	press
743.54	n/a	RESPONSE	M2	2	16	E4	release
743.867	n/a	RESPONSE	M2	2	00	C3	release
743.929	n/a	RESPONSE	M2	2	07	G3	release
743.957	n/a	RESPONSE	M2	2	14	D4	release
744.08	n/a	RESPONSE	M2	2	00	C3	press
744.096	n/a	RESPONSE	M2	2	12	C4	press
744.099	n/a	RESPONSE	M2	2	07	G3	press
745.022	n/a	RESPONSE	M2	2	12	C4	release
745.039	n/a	RESPONSE	M2	2	00	C3	release
746.071	n/a	RESPONSE	M2	2	07	G3	release
746.141	7.759	FIXCROSS	n/a	n/a	n/a	n/a	n/a
753.9	6.317	CUE_LISTEN	M2	1	n/a	n/a	n/a
760.216	7.758	FIXCROSS	n/a	n/a	n/a	n/a	n/a
767.975	6.317	CUE_PLAYBACK_BOTH_HANDS	M2	1	n/a	n/a	n/a
769.227	n/a	RESPONSE	M2	1	07	G3	press
769.232	n/a	RESPONSE	M2	1	00	C3	press
769.246	n/a	RESPONSE	M2	1	12	C4	press
769.706	n/a	RESPONSE	M2	1	12	C4	release
769.781	n/a	RESPONSE	M2	1	14	D4	press
770.177	n/a	RESPONSE	M2	1	14	D4	release
770.272	n/a	RESPONSE	M2	1	00	C3	release
770.35	n/a	RESPONSE	M2	1	00	C3	press
770.372	n/a	RESPONSE	M2	1	16	E4	press
770.907	n/a	RESPONSE	M2	1	16	E4	release
771.026	n/a	RESPONSE	M2	1	14	D4	press
771.435	n/a	RESPONSE	M2	1	14	D4	release
771.474	n/a	RESPONSE	M2	1	00	C3	release
771.546	n/a	RESPONSE	M2	1	07	G3	release
771.659	n/a	RESPONSE	M2	1	16	E4	press
771.666	n/a	RESPONSE	M2	1	00	C3	press
771.68	n/a	RESPONSE	M2	1	07	G3	press
772.265	n/a	RESPONSE	M2	1	16	E4	release
772.292	n/a	RESPONSE	M2	1	17	F4	press
772.71	n/a	RESPONSE	M2	1	17	F4	release
772.775	n/a	RESPONSE	M2	1	00	C3	release
772.921	n/a	RESPONSE	M2	1	19	G4	press
772.93	n/a	RESPONSE	M2	1	00	C3	press
773.762	n/a	RESPONSE	M2	1	19	G4	release
773.819	n/a	RESPONSE	M2	1	00	C3	release
774.292	7.758	FIXCROSS	n/a	n/a	n/a	n/a	n/a
776.33	n/a	RESPONSE	M2	1	07	G3	release
782.05	6.325	CUE_LISTEN	M2	2	n/a	n/a	n/a
788.375	7.758	FIXCROSS	n/a	n/a	n/a	n/a	n/a
796.133	6.317	CUE_PLAYBACK_BOTH_HANDS	M2	2	n/a	n/a	n/a
797.097	n/a	RESPONSE	M2	2	16	E4	press
797.102	n/a	RESPONSE	M2	2	00	C3	press
797.116	n/a	RESPONSE	M2	2	07	G3	press
797.605	n/a	RESPONSE	M2	2	16	E4	release
797.607	n/a	RESPONSE	M2	2	19	G4	press
797.931	n/a	RESPONSE	M2	2	00	C3	release
797.965	n/a	RESPONSE	M2	2	19	G4	release
798.151	n/a	RESPONSE	M2	2	00	C3	press
798.165	n/a	RESPONSE	M2	2	19	G4	press
798.677	n/a	RESPONSE	M2	2	19	G4	release
798.69	n/a	RESPONSE	M2	2	17	F4	press
799.08	n/a	RESPONSE	M2	2	17	F4	release
799.13	n/a	RESPONSE	M2	2	00	C3	release
799.162	n/a	RESPONSE	M2	2	07	G3	release
799.286	n/a	RESPONSE	M2	2	16	E4	press
799.289	n/a	RESPONSE	M2	2	00	C3	press
799.307	n/a	RESPONSE	M2	2	07	G3	press
799.86	n/a	RESPONSE	M2	2	14	D4	press
799.96	n/a	RESPONSE	M2	2	16	E4	release
800.259	n/a	RESPONSE	M2	2	14	D4	release
800.261	n/a	RESPONSE	M2	2	00	C3	release
800.271	n/a	RESPONSE	M2	2	07	G3	release
800.411	n/a	RESPONSE	M2	2	12	C4	press
800.415	n/a	RESPONSE	M2	2	00	C3	press
800.427	n/a	RESPONSE	M2	2	07	G3	press
801.095	n/a	RESPONSE	M2	2	00	C3	release
801.114	n/a	RESPONSE	M2	2	12	C4	release
801.225	n/a	RESPONSE	M2	2	07	G3	release
802.45	7.758	FIXCROSS	n/a	n/a	n/a	n/a	n/a
810.208	6.325	CUE_LISTEN	M3	1	n/a	n/a	n/a
816.533	7.759	FIXCROSS	n/a	n/a	n/a	n/a	n/a
824.292	6.317	CUE_PLAYBACK_RIGHT_HAND	M3	1	n/a	n/a	n/a
825.41	n/a	RESPONSE	M3	1	12	C4	press
825.855	n/a	RESPONSE	M3	1	12	C4	release
825.937	n/a	RESPONSE	M3	1	14	D4	press
826.357	n/a	RESPONSE	M3	1	14	D4	release
826.482	n/a	RESPONSE	M3	1	16	E4	press
826.936	n/a	RESPONSE	M3	1	16	E4	release
827.051	n/a	RESPONSE	M3	1	12	C4	press
827.416	n/a	RESPONSE	M3	1	12	C4	release
827.585	n/a	RESPONSE	M3	1	12	C4	press
828.031	n/a	RESPONSE	M3	1	12	C4	release
828.102	n/a	RESPONSE	M3	1	14	D4	press
828.515	n/a	RESPONSE	M3	1	14	D4	release
828.629	n/a	RESPONSE	M3	1	16	E4	press
829.077	n/a	RESPONSE	M3	1	16	E4	release
829.222	n/a	RESPONSE	M3	1	12	C4	press
829.744	n/a	RESPONSE	M3	1	12	C4	release
830.608	7.758	FIXCROSS	n/a	n/a	n/a	n/a	n/a
838.367	6.325	CUE_LISTEN	M3	2	n/a	n/a	n/a
844.692	7.758	FIXCROSS	n/a	n/a	n/a	n/a	n/a
852.45	6.317	CUE_PLAYBACK_RIGHT_HAND	M3	2	n/a	n/a	n/a
853.067	n/a	RESPONSE	M3	2	16	E4	press
853.482	n/a	RESPONSE	M3	2	16	E4	release
853.595	n/a	RESPONSE	M3	2	17	F4	press
853.992	n/a	RESPONSE	M3	2	17	F4	release
854.126	n/a	RESPONSE	M3	2	19	G4	press
854.775	n/a	RESPONSE	M3	2	19	G4	release
855.146	n/a	RESPONSE	M3	2	16	E4	press
855.575	n/a	RESPONSE	M3	2	16	E4	release
855.694	n/a	RESPONSE	M3	2	17	F4	press
856.127	n/a	RESPONSE	M3	2	17	F4	release
856.214	n/a	RESPONSE	M3	2	19	G4	press
856.864	n/a	RESPONSE	M3	2	19	G4	release
858.767	7.758	FIXCROSS	n/a	n/a	n/a	n/a	n/a
866.525	6.317	CUE_LISTEN	M3	1	n/a	n/a	n/a
872.842	7.758	FIXCROSS	n/a	n/a	n/a	n/a	n/a
880.6	6.317	CUE_PLAYBACK_RIGHT_HAND	M3	1	n/a	n/a	n/a
881.552	n/a	RESPONSE	M3	1	19	G4	press
881.899	n/a	RESPONSE	M3	1	19	G4	release
881.927	n/a	RESPONSE	M3	1	21	A4	press
882.27	n/a	RESPONSE	M3	1	21	A4	release
882.344	n/a	RESPONSE	M3	1	19	G4	press
882.744	n/a	RESPONSE	M3	1	19	G4	release
882.755	n/a	RESPONSE	M3	1	17	F4	press
883.092	n/a	RESPONSE	M3	1	17	F4	release
883.17	n/a	RESPONSE	M3	1	16	E4	press
883.961	n/a	RESPONSE	M3	1	12	C4	press
884.001	n/a	RESPONSE	M3	1	16	E4	release
884.481	n/a	RESPONSE	M3	1	12	C4	release
884.739	n/a	RESPONSE	M3	1	19	G4	press
885.1	n/a	RESPONSE	M3	1	19	G4	release
885.369	n/a	RESPONSE	M3	1	19	G4	press
885.716	n/a	RESPONSE	M3	1	21	A4	press
885.905	n/a	RESPONSE	M3	1	19	G4	release
885.982	n/a	RESPONSE	M3	1	21	A4	release
886.121	n/a	RESPONSE	M3	1	19	G4	press
886.529	n/a	RESPONSE	M3	1	17	F4	press
886.619	n/a	RESPONSE	M3	1	19	G4	release
886.917	7.758	FIXCROSS	n/a	n/a	n/a	n/a	n/a
886.934	n/a	RESPONSE	M3	1	16	E4	press
887.01	n/a	RESPONSE	M3	1	17	F4	release
887.676	n/a	RESPONSE	M3	1	12	C4	press
887.726	n/a	RESPONSE	M3	1	16	E4	release
888.336	n/a	RESPONSE	M3	1	12	C4	release
894.675	6.325	CUE_LISTEN	M3	2	n/a	n/a	n/a
901.0	7.758	FIXCROSS	n/a	n/a	n/a	n/a	n/a
908.758	39.292	CUE_PLAYBACK_RIGHT_HAND	M3	2	n/a	n/a	n/a
909.416	n/a	RESPONSE	M3	2	12	C4	press
909.956	n/a	RESPONSE	M3	2	07	G3	press
909.966	n/a	RESPONSE	M3	2	12	C4	release
910.446	n/a	RESPONSE	M3	2	07	G3	release
910.504	n/a	RESPONSE	M3	2	12	C4	press
911.49	n/a	RESPONSE	M3	2	12	C4	release
911.682	n/a	RESPONSE	M3	2	12	C4	press
912.254	n/a	RESPONSE	M3	2	07	G3	press
912.259	n/a	RESPONSE	M3	2	12	C4	release
912.786	n/a	RESPONSE	M3	2	07	G3	release
912.794	n/a	RESPONSE	M3	2	12	C4	press
913.253	n/a	FIXCROSS	n/a	n/a	n/a	n/a	n/a
913.631	n/a	RESPONSE	M3	2	12	C4	release
