onset	duration	trial_type	trial_number	stroop_condition	stim_text(PL)	stim_text(eng)	stim_color(PL)	stim_color(eng)	response_type	response_color
0.0	n/a	RESPONSE	n/a	n/a	n/a	n/a	n/a	n/a	n/a	n/a
0.0521	1.0334	ITI	n/a	n/a	n/a	n/a	n/a	n/a	n/a	n/a
1.0855	0.5167	FIXCROSS	n/a	n/a	n/a	n/a	n/a	n/a	n/a	n/a
1.6021	1.2333	T_INK	1	Incongruent	zielony	green	czerwony	red	incorrect	n/a
2.8096	n/a	RESPONSE	n/a	n/a	n/a	n/a	n/a	n/a	n/a	green
2.8355	0.5167	FEEDBACK	n/a	n/a	n/a	n/a	n/a	n/a	n/a	n/a
3.3521	1.0166	ITI	n/a	n/a	n/a	n/a	n/a	n/a	n/a	n/a
4.3688	0.5333	FIXCROSS	n/a	n/a	n/a	n/a	n/a	n/a	n/a	n/a
4.9021	0.9667	T_INK	2	Neutral	xxxxxxx	xxxxxxx	czerwony	red	hit	n/a
5.8427	n/a	RESPONSE	n/a	n/a	n/a	n/a	n/a	n/a	n/a	red
5.8688	0.5167	FEEDBACK	n/a	n/a	n/a	n/a	n/a	n/a	n/a	n/a
6.3855	1.0167	ITI	n/a	n/a	n/a	n/a	n/a	n/a	n/a	n/a
7.4022	0.5166	FIXCROSS	n/a	n/a	n/a	n/a	n/a	n/a	n/a	n/a
7.9188	0.7667	T_INK	3	Neutral	xxxxxxxx	xxxxxxxx	zielony	green	incorrect	n/a
8.6522	n/a	RESPONSE	n/a	n/a	n/a	n/a	n/a	n/a	n/a	yellow
8.6855	0.5167	FEEDBACK	n/a	n/a	n/a	n/a	n/a	n/a	n/a	n/a
9.2022	1.0167	ITI	n/a	n/a	n/a	n/a	n/a	n/a	n/a	n/a
10.2189	0.5167	FIXCROSS	n/a	n/a	n/a	n/a	n/a	n/a	n/a	n/a
10.7355	0.6833	T_INK	4	Neutral	xxxxx	xxxxx	zielony	green	hit	n/a
11.3979	n/a	RESPONSE	n/a	n/a	n/a	n/a	n/a	n/a	n/a	green
11.4189	0.5166	FEEDBACK	n/a	n/a	n/a	n/a	n/a	n/a	n/a	n/a
11.9355	1.0167	ITI	n/a	n/a	n/a	n/a	n/a	n/a	n/a	n/a
12.9522	0.5166	FIXCROSS	n/a	n/a	n/a	n/a	n/a	n/a	n/a	n/a
13.4689	0.8334	T_INK	5	Neutral	xxxxxxx	xxxxxxx	niebieski	blue	hit	n/a
14.2714	n/a	RESPONSE	n/a	n/a	n/a	n/a	n/a	n/a	n/a	blue
14.3022	0.5167	FEEDBACK	n/a	n/a	n/a	n/a	n/a	n/a	n/a	n/a
14.8189	1.0166	ITI	n/a	n/a	n/a	n/a	n/a	n/a	n/a	n/a
15.8355	0.5167	FIXCROSS	n/a	n/a	n/a	n/a	n/a	n/a	n/a	n/a
16.3522	0.6833	T_INK	6	Incongruent	zielony	green	żółty	yellow	hit	n/a
17.0011	n/a	RESPONSE	n/a	n/a	n/a	n/a	n/a	n/a	n/a	yellow
17.0356	0.5167	FEEDBACK	n/a	n/a	n/a	n/a	n/a	n/a	n/a	n/a
17.5522	1.0334	ITI	n/a	n/a	n/a	n/a	n/a	n/a	n/a	n/a
18.5856	0.5167	FIXCROSS	n/a	n/a	n/a	n/a	n/a	n/a	n/a	n/a
19.1023	1.1166	T_INK	7	Incongruent	żółty	yellow	niebieski	blue	hit	n/a
20.1937	n/a	RESPONSE	n/a	n/a	n/a	n/a	n/a	n/a	n/a	blue
20.2189	0.5167	FEEDBACK	n/a	n/a	n/a	n/a	n/a	n/a	n/a	n/a
20.7356	1.0167	ITI	n/a	n/a	n/a	n/a	n/a	n/a	n/a	n/a
21.7523	0.5167	FIXCROSS	n/a	n/a	n/a	n/a	n/a	n/a	n/a	n/a
22.2689	0.9166	T_INK	8	Incongruent	żółty	yellow	zielony	green	hit	n/a
23.1628	n/a	RESPONSE	n/a	n/a	n/a	n/a	n/a	n/a	n/a	green
23.1856	0.5167	FEEDBACK	n/a	n/a	n/a	n/a	n/a	n/a	n/a	n/a
23.7023	1.0167	ITI	n/a	n/a	n/a	n/a	n/a	n/a	n/a	n/a
24.719	0.5167	FIXCROSS	n/a	n/a	n/a	n/a	n/a	n/a	n/a	n/a
25.2356	0.8	T_INK	9	Neutral	xxxxxxxx	xxxxxxxx	niebieski	blue	hit	n/a
26.0045	n/a	RESPONSE	n/a	n/a	n/a	n/a	n/a	n/a	n/a	blue
26.0356	0.5167	FEEDBACK	n/a	n/a	n/a	n/a	n/a	n/a	n/a	n/a
26.5523	1.0167	ITI	n/a	n/a	n/a	n/a	n/a	n/a	n/a	n/a
27.569	0.5167	FIXCROSS	n/a	n/a	n/a	n/a	n/a	n/a	n/a	n/a
28.0857	0.95	T_INK	10	Neutral	xxxxxxxxx	xxxxxxxxx	czerwony	red	hit	n/a
29.0055	n/a	RESPONSE	n/a	n/a	n/a	n/a	n/a	n/a	n/a	red
29.0356	0.5167	FEEDBACK	n/a	n/a	n/a	n/a	n/a	n/a	n/a	n/a
29.5523	1.0167	ITI	n/a	n/a	n/a	n/a	n/a	n/a	n/a	n/a
30.569	0.5167	FIXCROSS	n/a	n/a	n/a	n/a	n/a	n/a	n/a	n/a
31.0857	0.8167	T_INK	11	Neutral	xxxxxxxxx	xxxxxxxxx	żółty	yellow	hit	n/a
31.879	n/a	RESPONSE	n/a	n/a	n/a	n/a	n/a	n/a	n/a	yellow
31.9023	0.5166	FEEDBACK	n/a	n/a	n/a	n/a	n/a	n/a	n/a	n/a
32.419	1.0167	ITI	n/a	n/a	n/a	n/a	n/a	n/a	n/a	n/a
33.4357	0.5166	FIXCROSS	n/a	n/a	n/a	n/a	n/a	n/a	n/a	n/a
33.9523	0.85	T_INK	12	Neutral	xxxxx	xxxxx	niebieski	blue	hit	n/a
34.7683	n/a	RESPONSE	n/a	n/a	n/a	n/a	n/a	n/a	n/a	blue
34.8024	0.5167	FEEDBACK	n/a	n/a	n/a	n/a	n/a	n/a	n/a	n/a
35.319	1.0333	ITI	n/a	n/a	n/a	n/a	n/a	n/a	n/a	n/a
44.3942	n/a	RESPONSE	n/a	n/a	n/a	n/a	n/a	n/a	n/a	n/a
44.4524	1.0167	ITI	n/a	n/a	n/a	n/a	n/a	n/a	n/a	n/a
45.4691	0.5167	FIXCROSS	n/a	n/a	n/a	n/a	n/a	n/a	n/a	n/a
45.9858	0.8	INK	1	Neutral	xxxxxxxx	xxxxxxxx	żółty	yellow	hit	n/a
46.7568	n/a	RESPONSE	n/a	n/a	n/a	n/a	n/a	n/a	n/a	yellow
46.7858	1.0167	ITI	n/a	n/a	n/a	n/a	n/a	n/a	n/a	n/a
47.8024	0.5167	FIXCROSS	n/a	n/a	n/a	n/a	n/a	n/a	n/a	n/a
48.3191	0.7167	INK	2	Incongruent	czerwony	red	żółty	yellow	hit	n/a
49.0075	n/a	RESPONSE	n/a	n/a	n/a	n/a	n/a	n/a	n/a	yellow
49.0358	1.0167	ITI	n/a	n/a	n/a	n/a	n/a	n/a	n/a	n/a
50.0525	0.5167	FIXCROSS	n/a	n/a	n/a	n/a	n/a	n/a	n/a	n/a
50.5692	0.7	INK	3	Neutral	xxxxxxx	xxxxxxx	niebieski	blue	hit	n/a
51.2426	n/a	RESPONSE	n/a	n/a	n/a	n/a	n/a	n/a	n/a	blue
51.2691	1.0167	ITI	n/a	n/a	n/a	n/a	n/a	n/a	n/a	n/a
52.2858	0.5167	FIXCROSS	n/a	n/a	n/a	n/a	n/a	n/a	n/a	n/a
52.8025	0.6833	INK	4	Incongruent	niebieski	blue	żółty	yellow	hit	n/a
53.4614	n/a	RESPONSE	n/a	n/a	n/a	n/a	n/a	n/a	n/a	yellow
53.4858	1.0167	ITI	n/a	n/a	n/a	n/a	n/a	n/a	n/a	n/a
54.5025	0.5167	FIXCROSS	n/a	n/a	n/a	n/a	n/a	n/a	n/a	n/a
55.0192	0.6667	INK	5	Neutral	xxxxxxxxx	xxxxxxxxx	czerwony	red	hit	n/a
55.6644	n/a	RESPONSE	n/a	n/a	n/a	n/a	n/a	n/a	n/a	red
55.6859	1.0167	ITI	n/a	n/a	n/a	n/a	n/a	n/a	n/a	n/a
56.7025	0.5167	FIXCROSS	n/a	n/a	n/a	n/a	n/a	n/a	n/a	n/a
57.2192	0.7166	INK	6	Incongruent	żółty	yellow	czerwony	red	hit	n/a
57.9151	n/a	RESPONSE	n/a	n/a	n/a	n/a	n/a	n/a	n/a	red
57.9358	1.0167	ITI	n/a	n/a	n/a	n/a	n/a	n/a	n/a	n/a
58.9525	0.5167	FIXCROSS	n/a	n/a	n/a	n/a	n/a	n/a	n/a	n/a
59.4692	0.6	INK	7	Neutral	xxxxx	xxxxx	zielony	green	hit	n/a
60.0382	n/a	RESPONSE	n/a	n/a	n/a	n/a	n/a	n/a	n/a	green
60.0692	1.0167	ITI	n/a	n/a	n/a	n/a	n/a	n/a	n/a	n/a
61.0859	0.5167	FIXCROSS	n/a	n/a	n/a	n/a	n/a	n/a	n/a	n/a
61.6026	0.8333	INK	8	Incongruent	żółty	yellow	niebieski	blue	hit	n/a
62.4008	n/a	RESPONSE	n/a	n/a	n/a	n/a	n/a	n/a	n/a	blue
62.4359	1.0167	ITI	n/a	n/a	n/a	n/a	n/a	n/a	n/a	n/a
63.4526	0.5166	FIXCROSS	n/a	n/a	n/a	n/a	n/a	n/a	n/a	n/a
63.9692	1.0834	INK	9	Neutral	xxxxxxxx	xxxxxxxx	niebieski	blue	hit	n/a
65.0188	n/a	RESPONSE	n/a	n/a	n/a	n/a	n/a	n/a	n/a	blue
65.0526	1.0167	ITI	n/a	n/a	n/a	n/a	n/a	n/a	n/a	n/a
66.0693	0.5167	FIXCROSS	n/a	n/a	n/a	n/a	n/a	n/a	n/a	n/a
66.5859	1.1833	INK	10	Incongruent	zielony	green	niebieski	blue	hit	n/a
67.7484	n/a	RESPONSE	n/a	n/a	n/a	n/a	n/a	n/a	n/a	blue
67.7693	1.0167	ITI	n/a	n/a	n/a	n/a	n/a	n/a	n/a	n/a
68.786	0.5167	FIXCROSS	n/a	n/a	n/a	n/a	n/a	n/a	n/a	n/a
69.3026	0.7333	INK	11	Neutral	xxxxxxx	xxxxxxx	czerwony	red	hit	n/a
70.0153	n/a	RESPONSE	n/a	n/a	n/a	n/a	n/a	n/a	n/a	red
70.036	1.0166	ITI	n/a	n/a	n/a	n/a	n/a	n/a	n/a	n/a
71.0526	0.5167	FIXCROSS	n/a	n/a	n/a	n/a	n/a	n/a	n/a	n/a
71.5693	1.2	INK	12	Neutral	xxxxxxxxx	xxxxxxxxx	zielony	green	hit	n/a
72.7449	n/a	RESPONSE	n/a	n/a	n/a	n/a	n/a	n/a	n/a	green
72.7693	1.0167	ITI	n/a	n/a	n/a	n/a	n/a	n/a	n/a	n/a
73.786	0.5166	FIXCROSS	n/a	n/a	n/a	n/a	n/a	n/a	n/a	n/a
74.3026	0.7667	INK	13	Incongruent	czerwony	red	zielony	green	hit	n/a
75.0437	n/a	RESPONSE	n/a	n/a	n/a	n/a	n/a	n/a	n/a	green
75.0693	1.0167	ITI	n/a	n/a	n/a	n/a	n/a	n/a	n/a	n/a
76.086	0.5166	FIXCROSS	n/a	n/a	n/a	n/a	n/a	n/a	n/a	n/a
76.6026	0.7	INK	14	Neutral	xxxxxxx	xxxxxxx	niebieski	blue	hit	n/a
77.2786	n/a	RESPONSE	n/a	n/a	n/a	n/a	n/a	n/a	n/a	blue
77.3027	1.0167	ITI	n/a	n/a	n/a	n/a	n/a	n/a	n/a	n/a
78.3194	0.5167	FIXCROSS	n/a	n/a	n/a	n/a	n/a	n/a	n/a	n/a
78.836	0.6666	INK	15	Neutral	xxxxxxxx	xxxxxxxx	zielony	green	hit	n/a
79.4816	n/a	RESPONSE	n/a	n/a	n/a	n/a	n/a	n/a	n/a	green
79.5027	1.0167	ITI	n/a	n/a	n/a	n/a	n/a	n/a	n/a	n/a
80.5194	0.5167	FIXCROSS	n/a	n/a	n/a	n/a	n/a	n/a	n/a	n/a
81.036	0.6333	INK	16	Incongruent	niebieski	blue	żółty	yellow	hit	n/a
81.6366	n/a	RESPONSE	n/a	n/a	n/a	n/a	n/a	n/a	n/a	yellow
81.6694	1.0167	ITI	n/a	n/a	n/a	n/a	n/a	n/a	n/a	n/a
82.686	0.5167	FIXCROSS	n/a	n/a	n/a	n/a	n/a	n/a	n/a	n/a
83.2027	0.7666	INK	17	Neutral	xxxxxxxxx	xxxxxxxxx	czerwony	red	hit	n/a
83.9512	n/a	RESPONSE	n/a	n/a	n/a	n/a	n/a	n/a	n/a	red
83.9694	1.0167	ITI	n/a	n/a	n/a	n/a	n/a	n/a	n/a	n/a
84.986	0.5167	FIXCROSS	n/a	n/a	n/a	n/a	n/a	n/a	n/a	n/a
85.5027	0.8167	INK	18	Incongruent	czerwony	red	niebieski	blue	hit	n/a
86.2977	n/a	RESPONSE	n/a	n/a	n/a	n/a	n/a	n/a	n/a	blue
86.3194	1.0166	ITI	n/a	n/a	n/a	n/a	n/a	n/a	n/a	n/a
87.336	0.5167	FIXCROSS	n/a	n/a	n/a	n/a	n/a	n/a	n/a	n/a
87.8528	1.1	INK	19	Incongruent	zielony	green	żółty	yellow	hit	n/a
88.9317	n/a	RESPONSE	n/a	n/a	n/a	n/a	n/a	n/a	n/a	yellow
88.9527	1.0167	ITI	n/a	n/a	n/a	n/a	n/a	n/a	n/a	n/a
89.9694	0.5166	FIXCROSS	n/a	n/a	n/a	n/a	n/a	n/a	n/a	n/a
90.4861	1.15	INK	20	Incongruent	żółty	yellow	zielony	green	hit	n/a
91.6136	n/a	RESPONSE	n/a	n/a	n/a	n/a	n/a	n/a	n/a	green
91.6361	1.0167	ITI	n/a	n/a	n/a	n/a	n/a	n/a	n/a	n/a
92.6528	0.5167	FIXCROSS	n/a	n/a	n/a	n/a	n/a	n/a	n/a	n/a
93.1695	1.0	INK	21	Neutral	xxxxxxxxx	xxxxxxxxx	czerwony	red	hit	n/a
94.1516	n/a	RESPONSE	n/a	n/a	n/a	n/a	n/a	n/a	n/a	red
94.1694	1.0167	ITI	n/a	n/a	n/a	n/a	n/a	n/a	n/a	n/a
95.1861	0.5167	FIXCROSS	n/a	n/a	n/a	n/a	n/a	n/a	n/a	n/a
95.7028	0.7	INK	22	Neutral	xxxxxxx	xxxxxxx	żółty	yellow	hit	n/a
96.3706	n/a	RESPONSE	n/a	n/a	n/a	n/a	n/a	n/a	n/a	yellow
96.4028	1.0166	ITI	n/a	n/a	n/a	n/a	n/a	n/a	n/a	n/a
97.4195	0.5167	FIXCROSS	n/a	n/a	n/a	n/a	n/a	n/a	n/a	n/a
97.9361	0.7	INK	23	Neutral	xxxxxxx	xxxxxxx	czerwony	red	hit	n/a
98.6054	n/a	RESPONSE	n/a	n/a	n/a	n/a	n/a	n/a	n/a	red
98.6362	1.0166	ITI	n/a	n/a	n/a	n/a	n/a	n/a	n/a	n/a
99.6528	0.5167	FIXCROSS	n/a	n/a	n/a	n/a	n/a	n/a	n/a	n/a
100.1695	0.7	INK	24	Neutral	xxxxxxxxx	xxxxxxxxx	żółty	yellow	hit	n/a
100.8403	n/a	RESPONSE	n/a	n/a	n/a	n/a	n/a	n/a	n/a	yellow
100.8695	1.0167	ITI	n/a	n/a	n/a	n/a	n/a	n/a	n/a	n/a
101.8862	0.5167	FIXCROSS	n/a	n/a	n/a	n/a	n/a	n/a	n/a	n/a
102.4029	0.8833	INK	25	Incongruent	żółty	yellow	czerwony	red	hit	n/a
103.2667	n/a	RESPONSE	n/a	n/a	n/a	n/a	n/a	n/a	n/a	red
103.2862	1.0167	ITI	n/a	n/a	n/a	n/a	n/a	n/a	n/a	n/a
104.3029	0.5167	FIXCROSS	n/a	n/a	n/a	n/a	n/a	n/a	n/a	n/a
104.8196	0.9167	INK	26	Incongruent	zielony	green	czerwony	red	hit	n/a
105.7092	n/a	RESPONSE	n/a	n/a	n/a	n/a	n/a	n/a	n/a	red
105.7362	1.0167	ITI	n/a	n/a	n/a	n/a	n/a	n/a	n/a	n/a
106.7529	0.5166	FIXCROSS	n/a	n/a	n/a	n/a	n/a	n/a	n/a	n/a
107.2695	0.8167	INK	27	Incongruent	zielony	green	niebieski	blue	hit	n/a
108.0557	n/a	RESPONSE	n/a	n/a	n/a	n/a	n/a	n/a	n/a	blue
108.0862	1.0167	ITI	n/a	n/a	n/a	n/a	n/a	n/a	n/a	n/a
109.1029	0.5167	FIXCROSS	n/a	n/a	n/a	n/a	n/a	n/a	n/a	n/a
109.6196	0.6166	INK	28	Incongruent	niebieski	blue	zielony	green	hit	n/a
110.2107	n/a	RESPONSE	n/a	n/a	n/a	n/a	n/a	n/a	n/a	green
110.2362	1.0167	ITI	n/a	n/a	n/a	n/a	n/a	n/a	n/a	n/a
111.2529	0.5167	FIXCROSS	n/a	n/a	n/a	n/a	n/a	n/a	n/a	n/a
111.7696	0.7834	INK	29	Neutral	xxxxx	xxxxx	czerwony	red	hit	n/a
112.5253	n/a	RESPONSE	n/a	n/a	n/a	n/a	n/a	n/a	n/a	red
112.5529	1.0167	ITI	n/a	n/a	n/a	n/a	n/a	n/a	n/a	n/a
113.5696	0.5167	FIXCROSS	n/a	n/a	n/a	n/a	n/a	n/a	n/a	n/a
114.0863	0.7333	INK	30	Incongruent	żółty	yellow	niebieski	blue	hit	n/a
114.7922	n/a	RESPONSE	n/a	n/a	n/a	n/a	n/a	n/a	n/a	blue
114.8196	1.0167	ITI	n/a	n/a	n/a	n/a	n/a	n/a	n/a	n/a
115.8363	0.5167	FIXCROSS	n/a	n/a	n/a	n/a	n/a	n/a	n/a	n/a
116.353	0.8	INK	31	Incongruent	niebieski	blue	czerwony	red	hit	n/a
117.1228	n/a	RESPONSE	n/a	n/a	n/a	n/a	n/a	n/a	n/a	red
117.153	1.0167	ITI	n/a	n/a	n/a	n/a	n/a	n/a	n/a	n/a
118.1696	0.5167	FIXCROSS	n/a	n/a	n/a	n/a	n/a	n/a	n/a	n/a
118.6863	0.8667	INK	32	Incongruent	niebieski	blue	czerwony	red	hit	n/a
119.5332	n/a	RESPONSE	n/a	n/a	n/a	n/a	n/a	n/a	n/a	red
119.553	1.0167	ITI	n/a	n/a	n/a	n/a	n/a	n/a	n/a	n/a
120.5697	0.5167	FIXCROSS	n/a	n/a	n/a	n/a	n/a	n/a	n/a	n/a
121.0863	0.9333	INK	33	Neutral	xxxxxxxxx	xxxxxxxxx	żółty	yellow	hit	n/a
121.9916	n/a	RESPONSE	n/a	n/a	n/a	n/a	n/a	n/a	n/a	yellow
122.0197	1.0167	ITI	n/a	n/a	n/a	n/a	n/a	n/a	n/a	n/a
123.0363	0.5167	FIXCROSS	n/a	n/a	n/a	n/a	n/a	n/a	n/a	n/a
123.553	1.2667	INK	34	Incongruent	czerwony	red	niebieski	blue	hit	n/a
124.7852	n/a	RESPONSE	n/a	n/a	n/a	n/a	n/a	n/a	n/a	blue
124.8197	1.0167	ITI	n/a	n/a	n/a	n/a	n/a	n/a	n/a	n/a
125.8364	0.5167	FIXCROSS	n/a	n/a	n/a	n/a	n/a	n/a	n/a	n/a
126.353	1.1833	INK	35	Incongruent	zielony	green	żółty	yellow	hit	n/a
127.5148	n/a	RESPONSE	n/a	n/a	n/a	n/a	n/a	n/a	n/a	yellow
127.5364	1.0167	ITI	n/a	n/a	n/a	n/a	n/a	n/a	n/a	n/a
128.553	0.5167	FIXCROSS	n/a	n/a	n/a	n/a	n/a	n/a	n/a	n/a
129.0697	0.7333	INK	36	Incongruent	czerwony	red	zielony	green	hit	n/a
129.7816	n/a	RESPONSE	n/a	n/a	n/a	n/a	n/a	n/a	n/a	green
129.8031	1.0167	ITI	n/a	n/a	n/a	n/a	n/a	n/a	n/a	n/a
130.8197	0.5167	FIXCROSS	n/a	n/a	n/a	n/a	n/a	n/a	n/a	n/a
131.3364	0.5333	INK	37	Incongruent	żółty	yellow	zielony	green	hit	n/a
131.8408	n/a	RESPONSE	n/a	n/a	n/a	n/a	n/a	n/a	n/a	green
131.8697	1.0167	ITI	n/a	n/a	n/a	n/a	n/a	n/a	n/a	n/a
132.8864	0.5166	FIXCROSS	n/a	n/a	n/a	n/a	n/a	n/a	n/a	n/a
133.403	0.4667	INK	38	Incongruent	niebieski	blue	zielony	green	hit	n/a
133.8362	n/a	RESPONSE	n/a	n/a	n/a	n/a	n/a	n/a	n/a	green
133.8698	1.0166	ITI	n/a	n/a	n/a	n/a	n/a	n/a	n/a	n/a
134.8864	0.5167	FIXCROSS	n/a	n/a	n/a	n/a	n/a	n/a	n/a	n/a
135.4031	0.4834	INK	39	Neutral	xxxxx	xxxxx	zielony	green	hit	n/a
135.8635	n/a	RESPONSE	n/a	n/a	n/a	n/a	n/a	n/a	n/a	green
135.8864	1.0167	ITI	n/a	n/a	n/a	n/a	n/a	n/a	n/a	n/a
136.9031	0.5167	FIXCROSS	n/a	n/a	n/a	n/a	n/a	n/a	n/a	n/a
137.4198	0.7333	INK	40	Incongruent	zielony	green	czerwony	red	hit	n/a
138.1304	n/a	RESPONSE	n/a	n/a	n/a	n/a	n/a	n/a	n/a	red
138.1531	1.0167	ITI	n/a	n/a	n/a	n/a	n/a	n/a	n/a	n/a
139.1698	0.5166	FIXCROSS	n/a	n/a	n/a	n/a	n/a	n/a	n/a	n/a
139.6864	0.6834	INK	41	Neutral	xxxxx	xxxxx	zielony	green	hit	n/a
140.3492	n/a	RESPONSE	n/a	n/a	n/a	n/a	n/a	n/a	n/a	green
140.3698	1.0167	ITI	n/a	n/a	n/a	n/a	n/a	n/a	n/a	n/a
141.3865	0.5166	FIXCROSS	n/a	n/a	n/a	n/a	n/a	n/a	n/a	n/a
141.9031	0.6	INK	42	Incongruent	żółty	yellow	czerwony	red	hit	n/a
142.4723	n/a	RESPONSE	n/a	n/a	n/a	n/a	n/a	n/a	n/a	red
142.5031	1.0167	ITI	n/a	n/a	n/a	n/a	n/a	n/a	n/a	n/a
143.5198	0.5166	FIXCROSS	n/a	n/a	n/a	n/a	n/a	n/a	n/a	n/a
144.0365	0.4834	INK	43	Neutral	xxxxxxx	xxxxxxx	czerwony	red	hit	n/a
144.4997	n/a	RESPONSE	n/a	n/a	n/a	n/a	n/a	n/a	n/a	red
144.5198	1.0166	ITI	n/a	n/a	n/a	n/a	n/a	n/a	n/a	n/a
145.5365	0.5167	FIXCROSS	n/a	n/a	n/a	n/a	n/a	n/a	n/a	n/a
146.0532	0.4334	INK	44	Incongruent	zielony	green	czerwony	red	hit	n/a
146.4631	n/a	RESPONSE	n/a	n/a	n/a	n/a	n/a	n/a	n/a	red
146.4865	1.0167	ITI	n/a	n/a	n/a	n/a	n/a	n/a	n/a	n/a
147.5032	0.5167	FIXCROSS	n/a	n/a	n/a	n/a	n/a	n/a	n/a	n/a
148.0199	0.6666	INK	45	Neutral	xxxxxxxxx	xxxxxxxxx	żółty	yellow	hit	n/a
148.6661	n/a	RESPONSE	n/a	n/a	n/a	n/a	n/a	n/a	n/a	yellow
148.6865	1.0167	ITI	n/a	n/a	n/a	n/a	n/a	n/a	n/a	n/a
149.7032	0.5166	FIXCROSS	n/a	n/a	n/a	n/a	n/a	n/a	n/a	n/a
150.2198	0.6667	INK	46	Neutral	xxxxxxxxx	xxxxxxxxx	zielony	green	hit	n/a
150.8531	n/a	RESPONSE	n/a	n/a	n/a	n/a	n/a	n/a	n/a	green
150.8866	1.0167	ITI	n/a	n/a	n/a	n/a	n/a	n/a	n/a	n/a
151.9032	0.5167	FIXCROSS	n/a	n/a	n/a	n/a	n/a	n/a	n/a	n/a
152.4199	0.6666	INK	47	Incongruent	czerwony	red	żółty	yellow	hit	n/a
153.0559	n/a	RESPONSE	n/a	n/a	n/a	n/a	n/a	n/a	n/a	yellow
153.0865	1.0167	ITI	n/a	n/a	n/a	n/a	n/a	n/a	n/a	n/a
154.1032	0.5167	FIXCROSS	n/a	n/a	n/a	n/a	n/a	n/a	n/a	n/a
154.6199	0.8833	INK	48	Incongruent	niebieski	blue	czerwony	red	hit	n/a
155.4824	n/a	RESPONSE	n/a	n/a	n/a	n/a	n/a	n/a	n/a	red
155.5032	1.0167	ITI	n/a	n/a	n/a	n/a	n/a	n/a	n/a	n/a
156.5199	0.5166	FIXCROSS	n/a	n/a	n/a	n/a	n/a	n/a	n/a	n/a
157.0366	0.7167	INK	49	Incongruent	zielony	green	żółty	yellow	hit	n/a
157.7333	n/a	RESPONSE	n/a	n/a	n/a	n/a	n/a	n/a	n/a	yellow
157.7532	1.0167	ITI	n/a	n/a	n/a	n/a	n/a	n/a	n/a	n/a
158.7699	0.5167	FIXCROSS	n/a	n/a	n/a	n/a	n/a	n/a	n/a	n/a
159.2866	0.55	INK	50	Neutral	xxxxxxxx	xxxxxxxx	żółty	yellow	hit	n/a
159.8085	n/a	RESPONSE	n/a	n/a	n/a	n/a	n/a	n/a	n/a	yellow
159.8366	1.0167	ITI	n/a	n/a	n/a	n/a	n/a	n/a	n/a	n/a
160.8533	0.5166	FIXCROSS	n/a	n/a	n/a	n/a	n/a	n/a	n/a	n/a
161.3699	0.8167	INK	51	Neutral	xxxxx	xxxxx	niebieski	blue	hit	n/a
162.155	n/a	RESPONSE	n/a	n/a	n/a	n/a	n/a	n/a	n/a	blue
162.1866	1.0167	ITI	n/a	n/a	n/a	n/a	n/a	n/a	n/a	n/a
163.2033	0.5167	FIXCROSS	n/a	n/a	n/a	n/a	n/a	n/a	n/a	n/a
163.72	0.8	INK	52	Neutral	xxxxx	xxxxx	czerwony	red	hit	n/a
164.5016	n/a	RESPONSE	n/a	n/a	n/a	n/a	n/a	n/a	n/a	red
164.52	1.0167	ITI	n/a	n/a	n/a	n/a	n/a	n/a	n/a	n/a
165.5367	0.5167	FIXCROSS	n/a	n/a	n/a	n/a	n/a	n/a	n/a	n/a
166.0533	0.6667	INK	53	Neutral	xxxxxxx	xxxxxxx	żółty	yellow	hit	n/a
166.6886	n/a	RESPONSE	n/a	n/a	n/a	n/a	n/a	n/a	n/a	yellow
166.72	1.0167	ITI	n/a	n/a	n/a	n/a	n/a	n/a	n/a	n/a
167.7367	0.5167	FIXCROSS	n/a	n/a	n/a	n/a	n/a	n/a	n/a	n/a
168.2533	0.8	INK	54	Incongruent	niebieski	blue	zielony	green	hit	n/a
169.0351	n/a	RESPONSE	n/a	n/a	n/a	n/a	n/a	n/a	n/a	green
169.0533	1.0167	ITI	n/a	n/a	n/a	n/a	n/a	n/a	n/a	n/a
170.07	0.5167	FIXCROSS	n/a	n/a	n/a	n/a	n/a	n/a	n/a	n/a
170.5867	0.7333	INK	55	Incongruent	niebieski	blue	żółty	yellow	hit	n/a
171.302	n/a	RESPONSE	n/a	n/a	n/a	n/a	n/a	n/a	n/a	yellow
171.32	1.0167	ITI	n/a	n/a	n/a	n/a	n/a	n/a	n/a	n/a
172.3367	0.5166	FIXCROSS	n/a	n/a	n/a	n/a	n/a	n/a	n/a	n/a
172.8533	0.6334	INK	56	Incongruent	czerwony	red	żółty	yellow	hit	n/a
173.457	n/a	RESPONSE	n/a	n/a	n/a	n/a	n/a	n/a	n/a	yellow
173.4867	1.0167	ITI	n/a	n/a	n/a	n/a	n/a	n/a	n/a	n/a
174.5034	0.5167	FIXCROSS	n/a	n/a	n/a	n/a	n/a	n/a	n/a	n/a
175.0201	0.7667	INK	57	Neutral	xxxxxxxx	xxxxxxxx	niebieski	blue	hit	n/a
175.7557	n/a	RESPONSE	n/a	n/a	n/a	n/a	n/a	n/a	n/a	blue
175.7867	1.0167	ITI	n/a	n/a	n/a	n/a	n/a	n/a	n/a	n/a
176.8034	0.5167	FIXCROSS	n/a	n/a	n/a	n/a	n/a	n/a	n/a	n/a
177.3201	0.65	INK	58	Neutral	xxxxxxxx	xxxxxxxx	żółty	yellow	hit	n/a
177.9426	n/a	RESPONSE	n/a	n/a	n/a	n/a	n/a	n/a	n/a	yellow
177.9701	1.0167	ITI	n/a	n/a	n/a	n/a	n/a	n/a	n/a	n/a
178.9868	0.5167	FIXCROSS	n/a	n/a	n/a	n/a	n/a	n/a	n/a	n/a
179.5034	0.75	INK	59	Neutral	xxxxx	xxxxx	niebieski	blue	hit	n/a
180.2254	n/a	RESPONSE	n/a	n/a	n/a	n/a	n/a	n/a	n/a	blue
180.2534	1.0167	ITI	n/a	n/a	n/a	n/a	n/a	n/a	n/a	n/a
181.2701	0.5167	FIXCROSS	n/a	n/a	n/a	n/a	n/a	n/a	n/a	n/a
181.7868	0.5333	INK	60	Neutral	xxxxxxxx	xxxxxxxx	niebieski	blue	hit	n/a
182.3006	n/a	RESPONSE	n/a	n/a	n/a	n/a	n/a	n/a	n/a	blue
182.3201	1.0167	ITI	n/a	n/a	n/a	n/a	n/a	n/a	n/a	n/a
183.3368	0.5167	FIXCROSS	n/a	n/a	n/a	n/a	n/a	n/a	n/a	n/a
183.8535	0.4167	INK	61	Neutral	xxxxx	xxxxx	niebieski	blue	hit	n/a
184.2481	n/a	RESPONSE	n/a	n/a	n/a	n/a	n/a	n/a	n/a	blue
184.2701	1.0167	ITI	n/a	n/a	n/a	n/a	n/a	n/a	n/a	n/a
185.2868	0.5167	FIXCROSS	n/a	n/a	n/a	n/a	n/a	n/a	n/a	n/a
185.8035	0.7166	INK	62	Neutral	xxxxxxxx	xxxxxxxx	zielony	green	hit	n/a
186.4989	n/a	RESPONSE	n/a	n/a	n/a	n/a	n/a	n/a	n/a	green
186.5201	1.0167	ITI	n/a	n/a	n/a	n/a	n/a	n/a	n/a	n/a
187.5368	0.5167	FIXCROSS	n/a	n/a	n/a	n/a	n/a	n/a	n/a	n/a
188.0535	0.8667	INK	63	Incongruent	czerwony	red	zielony	green	hit	n/a
188.8934	n/a	RESPONSE	n/a	n/a	n/a	n/a	n/a	n/a	n/a	green
188.9202	1.0167	ITI	n/a	n/a	n/a	n/a	n/a	n/a	n/a	n/a
189.9368	0.5167	FIXCROSS	n/a	n/a	n/a	n/a	n/a	n/a	n/a	n/a
190.4535	0.75	INK	64	Incongruent	zielony	green	niebieski	blue	hit	n/a
191.1762	n/a	RESPONSE	n/a	n/a	n/a	n/a	n/a	n/a	n/a	blue
191.2035	1.0167	ITI	n/a	n/a	n/a	n/a	n/a	n/a	n/a	n/a
192.2202	0.5166	FIXCROSS	n/a	n/a	n/a	n/a	n/a	n/a	n/a	n/a
192.7368	0.8834	INK	65	Neutral	xxxxxxxx	xxxxxxxx	zielony	green	hit	n/a
193.5867	n/a	RESPONSE	n/a	n/a	n/a	n/a	n/a	n/a	n/a	green
193.6202	1.0167	ITI	n/a	n/a	n/a	n/a	n/a	n/a	n/a	n/a
194.6369	0.5166	FIXCROSS	n/a	n/a	n/a	n/a	n/a	n/a	n/a	n/a
195.1535	0.7334	INK	66	Incongruent	żółty	yellow	niebieski	blue	hit	n/a
195.8694	n/a	RESPONSE	n/a	n/a	n/a	n/a	n/a	n/a	n/a	blue
195.8869	1.0167	ITI	n/a	n/a	n/a	n/a	n/a	n/a	n/a	n/a
196.9036	0.5167	FIXCROSS	n/a	n/a	n/a	n/a	n/a	n/a	n/a	n/a
197.4202	1.1167	INK	67	Incongruent	żółty	yellow	zielony	green	hit	n/a
198.5034	n/a	RESPONSE	n/a	n/a	n/a	n/a	n/a	n/a	n/a	green
198.5369	1.0166	ITI	n/a	n/a	n/a	n/a	n/a	n/a	n/a	n/a
199.5535	0.5167	FIXCROSS	n/a	n/a	n/a	n/a	n/a	n/a	n/a	n/a
200.0702	1.2833	INK	68	Neutral	xxxxx	xxxxx	czerwony	red	hit	n/a
201.329	n/a	RESPONSE	n/a	n/a	n/a	n/a	n/a	n/a	n/a	red
201.3536	1.0167	ITI	n/a	n/a	n/a	n/a	n/a	n/a	n/a	n/a
202.3702	0.5167	FIXCROSS	n/a	n/a	n/a	n/a	n/a	n/a	n/a	n/a
202.8869	0.85	INK	69	Incongruent	czerwony	red	niebieski	blue	hit	n/a
203.7075	n/a	RESPONSE	n/a	n/a	n/a	n/a	n/a	n/a	n/a	blue
203.7369	1.0167	ITI	n/a	n/a	n/a	n/a	n/a	n/a	n/a	n/a
204.7536	0.5167	FIXCROSS	n/a	n/a	n/a	n/a	n/a	n/a	n/a	n/a
205.2703	0.7167	INK	70	Neutral	xxxxxxxxx	xxxxxxxxx	zielony	green	hit	n/a
205.9584	n/a	RESPONSE	n/a	n/a	n/a	n/a	n/a	n/a	n/a	green
205.9869	1.0166	ITI	n/a	n/a	n/a	n/a	n/a	n/a	n/a	n/a
207.0036	0.5167	FIXCROSS	n/a	n/a	n/a	n/a	n/a	n/a	n/a	n/a
207.5203	0.6833	INK	71	Neutral	xxxxxxx	xxxxxxx	niebieski	blue	hit	n/a
208.1773	n/a	RESPONSE	n/a	n/a	n/a	n/a	n/a	n/a	n/a	blue
208.2036	1.0167	ITI	n/a	n/a	n/a	n/a	n/a	n/a	n/a	n/a
209.2203	0.5166	FIXCROSS	n/a	n/a	n/a	n/a	n/a	n/a	n/a	n/a
209.7369	0.7334	INK	72	Neutral	xxxxxxx	xxxxxxx	żółty	yellow	hit	n/a
210.444	n/a	RESPONSE	n/a	n/a	n/a	n/a	n/a	n/a	n/a	yellow
210.4703	1.0833	ITI	n/a	n/a	n/a	n/a	n/a	n/a	n/a	n/a
220.6126	n/a	RESPONSE	n/a	n/a	n/a	n/a	n/a	n/a	n/a	n/a
220.6704	1.0167	ITI	n/a	n/a	n/a	n/a	n/a	n/a	n/a	n/a
221.6871	0.5166	FIXCROSS	n/a	n/a	n/a	n/a	n/a	n/a	n/a	n/a
222.2037	0.9334	T_COLOR_NAME	1	Neutral	niebieski	blue	Neutral	Neutral	hit	n/a
223.1028	n/a	RESPONSE	n/a	n/a	n/a	n/a	n/a	n/a	n/a	blue
223.1371	0.5166	FEEDBACK	n/a	n/a	n/a	n/a	n/a	n/a	n/a	n/a
223.6537	1.0167	ITI	n/a	n/a	n/a	n/a	n/a	n/a	n/a	n/a
224.6704	0.5166	FIXCROSS	n/a	n/a	n/a	n/a	n/a	n/a	n/a	n/a
225.1871	0.6666	T_COLOR_NAME	2	Neutral	zielony	green	Neutral	Neutral	hit	n/a
225.8326	n/a	RESPONSE	n/a	n/a	n/a	n/a	n/a	n/a	n/a	green
225.8537	0.5168	FEEDBACK	n/a	n/a	n/a	n/a	n/a	n/a	n/a	n/a
226.3704	1.0166	ITI	n/a	n/a	n/a	n/a	n/a	n/a	n/a	n/a
227.3871	0.5167	FIXCROSS	n/a	n/a	n/a	n/a	n/a	n/a	n/a	n/a
227.9038	0.7167	T_COLOR_NAME	3	Neutral	niebieski	blue	Neutral	Neutral	hit	n/a
228.5943	n/a	RESPONSE	n/a	n/a	n/a	n/a	n/a	n/a	n/a	blue
228.6205	0.5167	FEEDBACK	n/a	n/a	n/a	n/a	n/a	n/a	n/a	n/a
229.1371	1.0167	ITI	n/a	n/a	n/a	n/a	n/a	n/a	n/a	n/a
230.1538	0.5167	FIXCROSS	n/a	n/a	n/a	n/a	n/a	n/a	n/a	n/a
230.6705	1.1167	T_COLOR_NAME	4	Incongruent	żółty	yellow	zielony	green	hit	n/a
231.755	n/a	RESPONSE	n/a	n/a	n/a	n/a	n/a	n/a	n/a	yellow
231.7871	0.5167	FEEDBACK	n/a	n/a	n/a	n/a	n/a	n/a	n/a	n/a
232.3038	1.0167	ITI	n/a	n/a	n/a	n/a	n/a	n/a	n/a	n/a
233.3205	0.5167	FIXCROSS	n/a	n/a	n/a	n/a	n/a	n/a	n/a	n/a
233.8372	0.75	T_COLOR_NAME	5	Neutral	czerwony	red	Neutral	Neutral	hit	n/a
234.5647	n/a	RESPONSE	n/a	n/a	n/a	n/a	n/a	n/a	n/a	red
234.5871	0.5167	FEEDBACK	n/a	n/a	n/a	n/a	n/a	n/a	n/a	n/a
235.1038	1.0167	ITI	n/a	n/a	n/a	n/a	n/a	n/a	n/a	n/a
236.1205	0.5167	FIXCROSS	n/a	n/a	n/a	n/a	n/a	n/a	n/a	n/a
236.6372	1.2333	T_COLOR_NAME	6	Incongruent	zielony	green	żółty	yellow	hit	n/a
237.8371	n/a	RESPONSE	n/a	n/a	n/a	n/a	n/a	n/a	n/a	green
237.8705	0.5166	FEEDBACK	n/a	n/a	n/a	n/a	n/a	n/a	n/a	n/a
238.3872	1.0167	ITI	n/a	n/a	n/a	n/a	n/a	n/a	n/a	n/a
239.4039	0.5166	FIXCROSS	n/a	n/a	n/a	n/a	n/a	n/a	n/a	n/a
239.9205	1.0167	T_COLOR_NAME	7	Incongruent	zielony	green	czerwony	red	hit	n/a
240.9021	n/a	RESPONSE	n/a	n/a	n/a	n/a	n/a	n/a	n/a	green
240.9372	0.5167	FEEDBACK	n/a	n/a	n/a	n/a	n/a	n/a	n/a	n/a
241.4539	1.0167	ITI	n/a	n/a	n/a	n/a	n/a	n/a	n/a	n/a
242.4706	0.5166	FIXCROSS	n/a	n/a	n/a	n/a	n/a	n/a	n/a	n/a
242.9872	0.7834	T_COLOR_NAME	8	Neutral	żółty	yellow	Neutral	Neutral	hit	n/a
243.7436	n/a	RESPONSE	n/a	n/a	n/a	n/a	n/a	n/a	n/a	yellow
243.7706	0.5167	FEEDBACK	n/a	n/a	n/a	n/a	n/a	n/a	n/a	n/a
244.2872	1.0167	ITI	n/a	n/a	n/a	n/a	n/a	n/a	n/a	n/a
245.3039	0.5166	FIXCROSS	n/a	n/a	n/a	n/a	n/a	n/a	n/a	n/a
245.8205	0.9	T_COLOR_NAME	9	Incongruent	żółty	yellow	niebieski	blue	hit	n/a
246.6968	n/a	RESPONSE	n/a	n/a	n/a	n/a	n/a	n/a	n/a	yellow
246.7206	0.5167	FEEDBACK	n/a	n/a	n/a	n/a	n/a	n/a	n/a	n/a
247.2372	1.0167	ITI	n/a	n/a	n/a	n/a	n/a	n/a	n/a	n/a
248.2539	0.5167	FIXCROSS	n/a	n/a	n/a	n/a	n/a	n/a	n/a	n/a
248.7706	0.6667	T_COLOR_NAME	10	Neutral	czerwony	red	Neutral	Neutral	hit	n/a
249.4106	n/a	RESPONSE	n/a	n/a	n/a	n/a	n/a	n/a	n/a	red
249.4373	0.5167	FEEDBACK	n/a	n/a	n/a	n/a	n/a	n/a	n/a	n/a
249.9539	1.0167	ITI	n/a	n/a	n/a	n/a	n/a	n/a	n/a	n/a
250.9706	0.5167	FIXCROSS	n/a	n/a	n/a	n/a	n/a	n/a	n/a	n/a
251.4873	0.75	T_COLOR_NAME	11	Neutral	zielony	green	Neutral	Neutral	hit	n/a
252.2041	n/a	RESPONSE	n/a	n/a	n/a	n/a	n/a	n/a	n/a	green
252.2373	0.5167	FEEDBACK	n/a	n/a	n/a	n/a	n/a	n/a	n/a	n/a
252.754	1.0167	ITI	n/a	n/a	n/a	n/a	n/a	n/a	n/a	n/a
253.7706	0.5167	FIXCROSS	n/a	n/a	n/a	n/a	n/a	n/a	n/a	n/a
254.2873	0.65	T_COLOR_NAME	12	Neutral	żółty	yellow	Neutral	Neutral	hit	n/a
254.902	n/a	RESPONSE	n/a	n/a	n/a	n/a	n/a	n/a	n/a	yellow
254.9373	0.5166	FEEDBACK	n/a	n/a	n/a	n/a	n/a	n/a	n/a	n/a
255.454	1.0334	ITI	n/a	n/a	n/a	n/a	n/a	n/a	n/a	n/a
257.4881	n/a	RESPONSE	n/a	n/a	n/a	n/a	n/a	n/a	n/a	n/a
257.554	1.0166	ITI	n/a	n/a	n/a	n/a	n/a	n/a	n/a	n/a
258.5706	0.5167	FIXCROSS	n/a	n/a	n/a	n/a	n/a	n/a	n/a	n/a
259.0873	1.0999	COLOR_NAME	1	Neutral	czerwony	red	Neutral	Neutral	hit	n/a
260.1699	n/a	RESPONSE	n/a	n/a	n/a	n/a	n/a	n/a	n/a	red
260.1873	1.0168	ITI	n/a	n/a	n/a	n/a	n/a	n/a	n/a	n/a
261.204	0.5166	FIXCROSS	n/a	n/a	n/a	n/a	n/a	n/a	n/a	n/a
261.7207	0.4834	COLOR_NAME	2	Neutral	czerwony	red	Neutral	Neutral	hit	n/a
262.1814	n/a	RESPONSE	n/a	n/a	n/a	n/a	n/a	n/a	n/a	red
262.204	1.0167	ITI	n/a	n/a	n/a	n/a	n/a	n/a	n/a	n/a
263.2207	0.5167	FIXCROSS	n/a	n/a	n/a	n/a	n/a	n/a	n/a	n/a
263.7374	0.5833	COLOR_NAME	3	Neutral	niebieski	blue	Neutral	Neutral	hit	n/a
264.2885	n/a	RESPONSE	n/a	n/a	n/a	n/a	n/a	n/a	n/a	blue
264.3207	1.0167	ITI	n/a	n/a	n/a	n/a	n/a	n/a	n/a	n/a
265.3374	0.5167	FIXCROSS	n/a	n/a	n/a	n/a	n/a	n/a	n/a	n/a
265.8541	0.5667	COLOR_NAME	4	Incongruent	niebieski	blue	czerwony	red	hit	n/a
266.3956	n/a	RESPONSE	n/a	n/a	n/a	n/a	n/a	n/a	n/a	blue
266.4207	1.0167	ITI	n/a	n/a	n/a	n/a	n/a	n/a	n/a	n/a
267.4374	0.5167	FIXCROSS	n/a	n/a	n/a	n/a	n/a	n/a	n/a	n/a
267.9541	0.6333	COLOR_NAME	5	Neutral	niebieski	blue	Neutral	Neutral	hit	n/a
268.5667	n/a	RESPONSE	n/a	n/a	n/a	n/a	n/a	n/a	n/a	blue
268.5874	1.0167	ITI	n/a	n/a	n/a	n/a	n/a	n/a	n/a	n/a
269.6041	0.5167	FIXCROSS	n/a	n/a	n/a	n/a	n/a	n/a	n/a	n/a
270.1208	0.7333	COLOR_NAME	6	Neutral	żółty	yellow	Neutral	Neutral	hit	n/a
270.8334	n/a	RESPONSE	n/a	n/a	n/a	n/a	n/a	n/a	n/a	yellow
270.8541	1.0167	ITI	n/a	n/a	n/a	n/a	n/a	n/a	n/a	n/a
271.8708	0.5166	FIXCROSS	n/a	n/a	n/a	n/a	n/a	n/a	n/a	n/a
272.3874	0.9333	COLOR_NAME	7	Incongruent	czerwony	red	niebieski	blue	hit	n/a
273.2919	n/a	RESPONSE	n/a	n/a	n/a	n/a	n/a	n/a	n/a	red
273.3207	1.0167	ITI	n/a	n/a	n/a	n/a	n/a	n/a	n/a	n/a
274.3374	0.5167	FIXCROSS	n/a	n/a	n/a	n/a	n/a	n/a	n/a	n/a
274.8541	0.8333	COLOR_NAME	8	Neutral	zielony	green	Neutral	Neutral	hit	n/a
275.6545	n/a	RESPONSE	n/a	n/a	n/a	n/a	n/a	n/a	n/a	green
275.6875	1.0167	ITI	n/a	n/a	n/a	n/a	n/a	n/a	n/a	n/a
276.7041	0.5166	FIXCROSS	n/a	n/a	n/a	n/a	n/a	n/a	n/a	n/a
277.2208	0.55	COLOR_NAME	9	Incongruent	zielony	green	niebieski	blue	hit	n/a
277.7457	n/a	RESPONSE	n/a	n/a	n/a	n/a	n/a	n/a	n/a	green
277.7708	1.0167	ITI	n/a	n/a	n/a	n/a	n/a	n/a	n/a	n/a
278.7874	0.5167	FIXCROSS	n/a	n/a	n/a	n/a	n/a	n/a	n/a	n/a
279.3042	1.4	COLOR_NAME	10	Incongruent	niebieski	blue	żółty	yellow	hit	n/a
280.6829	n/a	RESPONSE	n/a	n/a	n/a	n/a	n/a	n/a	n/a	blue
280.7042	1.0167	ITI	n/a	n/a	n/a	n/a	n/a	n/a	n/a	n/a
281.7208	0.5167	FIXCROSS	n/a	n/a	n/a	n/a	n/a	n/a	n/a	n/a
282.2375	0.75	COLOR_NAME	11	Neutral	czerwony	red	Neutral	Neutral	hit	n/a
282.9658	n/a	RESPONSE	n/a	n/a	n/a	n/a	n/a	n/a	n/a	red
282.9875	1.0166	ITI	n/a	n/a	n/a	n/a	n/a	n/a	n/a	n/a
284.0042	0.5167	FIXCROSS	n/a	n/a	n/a	n/a	n/a	n/a	n/a	n/a
284.5209	0.7833	COLOR_NAME	12	Neutral	żółty	yellow	Neutral	Neutral	hit	n/a
285.2804	n/a	RESPONSE	n/a	n/a	n/a	n/a	n/a	n/a	n/a	yellow
285.3042	1.0167	ITI	n/a	n/a	n/a	n/a	n/a	n/a	n/a	n/a
286.3209	0.5167	FIXCROSS	n/a	n/a	n/a	n/a	n/a	n/a	n/a	n/a
286.8375	0.8166	COLOR_NAME	13	Incongruent	żółty	yellow	zielony	green	hit	n/a
287.6271	n/a	RESPONSE	n/a	n/a	n/a	n/a	n/a	n/a	n/a	yellow
287.6542	1.0167	ITI	n/a	n/a	n/a	n/a	n/a	n/a	n/a	n/a
288.6709	0.5167	FIXCROSS	n/a	n/a	n/a	n/a	n/a	n/a	n/a	n/a
289.1876	0.4667	COLOR_NAME	14	Neutral	żółty	yellow	Neutral	Neutral	hit	n/a
289.6225	n/a	RESPONSE	n/a	n/a	n/a	n/a	n/a	n/a	n/a	yellow
289.6542	1.0166	ITI	n/a	n/a	n/a	n/a	n/a	n/a	n/a	n/a
290.6709	0.5167	FIXCROSS	n/a	n/a	n/a	n/a	n/a	n/a	n/a	n/a
291.1876	0.5833	COLOR_NAME	15	Incongruent	żółty	yellow	czerwony	red	hit	n/a
291.7457	n/a	RESPONSE	n/a	n/a	n/a	n/a	n/a	n/a	n/a	yellow
291.7709	1.0166	ITI	n/a	n/a	n/a	n/a	n/a	n/a	n/a	n/a
292.7875	0.5167	FIXCROSS	n/a	n/a	n/a	n/a	n/a	n/a	n/a	n/a
293.3042	0.9333	COLOR_NAME	16	Incongruent	zielony	green	niebieski	blue	hit	n/a
294.204	n/a	RESPONSE	n/a	n/a	n/a	n/a	n/a	n/a	n/a	green
294.2375	1.0167	ITI	n/a	n/a	n/a	n/a	n/a	n/a	n/a	n/a
295.2542	0.5167	FIXCROSS	n/a	n/a	n/a	n/a	n/a	n/a	n/a	n/a
295.7709	0.75	COLOR_NAME	17	Incongruent	niebieski	blue	czerwony	red	hit	n/a
296.4869	n/a	RESPONSE	n/a	n/a	n/a	n/a	n/a	n/a	n/a	blue
296.5209	1.0167	ITI	n/a	n/a	n/a	n/a	n/a	n/a	n/a	n/a
297.5376	0.5166	FIXCROSS	n/a	n/a	n/a	n/a	n/a	n/a	n/a	n/a
298.0543	0.85	COLOR_NAME	18	Incongruent	czerwony	red	żółty	yellow	hit	n/a
298.8813	n/a	RESPONSE	n/a	n/a	n/a	n/a	n/a	n/a	n/a	red
298.9043	1.0167	ITI	n/a	n/a	n/a	n/a	n/a	n/a	n/a	n/a
299.921	0.5167	FIXCROSS	n/a	n/a	n/a	n/a	n/a	n/a	n/a	n/a
300.4376	0.6167	COLOR_NAME	19	Incongruent	czerwony	red	niebieski	blue	hit	n/a
301.0204	n/a	RESPONSE	n/a	n/a	n/a	n/a	n/a	n/a	n/a	red
301.0543	1.0167	ITI	n/a	n/a	n/a	n/a	n/a	n/a	n/a	n/a
302.071	0.5167	FIXCROSS	n/a	n/a	n/a	n/a	n/a	n/a	n/a	n/a
302.5877	0.5333	COLOR_NAME	20	Neutral	czerwony	red	Neutral	Neutral	hit	n/a
303.0957	n/a	RESPONSE	n/a	n/a	n/a	n/a	n/a	n/a	n/a	red
303.121	1.0166	ITI	n/a	n/a	n/a	n/a	n/a	n/a	n/a	n/a
304.1376	0.5167	FIXCROSS	n/a	n/a	n/a	n/a	n/a	n/a	n/a	n/a
304.6543	0.9667	COLOR_NAME	21	Incongruent	niebieski	blue	żółty	yellow	hit	n/a
305.586	n/a	RESPONSE	n/a	n/a	n/a	n/a	n/a	n/a	n/a	blue
305.621	1.0167	ITI	n/a	n/a	n/a	n/a	n/a	n/a	n/a	n/a
306.6377	0.5166	FIXCROSS	n/a	n/a	n/a	n/a	n/a	n/a	n/a	n/a
307.1543	0.8167	COLOR_NAME	22	Incongruent	zielony	green	żółty	yellow	hit	n/a
307.9486	n/a	RESPONSE	n/a	n/a	n/a	n/a	n/a	n/a	n/a	green
307.971	1.0167	ITI	n/a	n/a	n/a	n/a	n/a	n/a	n/a	n/a
308.9877	0.5166	FIXCROSS	n/a	n/a	n/a	n/a	n/a	n/a	n/a	n/a
309.5043	1.1334	COLOR_NAME	23	Incongruent	żółty	yellow	zielony	green	incorrect	n/a
310.6144	n/a	RESPONSE	n/a	n/a	n/a	n/a	n/a	n/a	n/a	green
310.6377	1.0167	ITI	n/a	n/a	n/a	n/a	n/a	n/a	n/a	n/a
311.6544	0.5166	FIXCROSS	n/a	n/a	n/a	n/a	n/a	n/a	n/a	n/a
312.171	1.1834	COLOR_NAME	24	Neutral	żółty	yellow	Neutral	Neutral	hit	n/a
313.3282	n/a	RESPONSE	n/a	n/a	n/a	n/a	n/a	n/a	n/a	yellow
313.3544	1.0167	ITI	n/a	n/a	n/a	n/a	n/a	n/a	n/a	n/a
314.3711	0.5167	FIXCROSS	n/a	n/a	n/a	n/a	n/a	n/a	n/a	n/a
314.8877	1.0333	COLOR_NAME	25	Incongruent	niebieski	blue	zielony	green	hit	n/a
315.8982	n/a	RESPONSE	n/a	n/a	n/a	n/a	n/a	n/a	n/a	blue
315.9211	1.0166	ITI	n/a	n/a	n/a	n/a	n/a	n/a	n/a	n/a
316.9377	0.5167	FIXCROSS	n/a	n/a	n/a	n/a	n/a	n/a	n/a	n/a
317.4544	0.75	COLOR_NAME	26	Neutral	zielony	green	Neutral	Neutral	hit	n/a
318.1811	n/a	RESPONSE	n/a	n/a	n/a	n/a	n/a	n/a	n/a	green
318.2044	1.0167	ITI	n/a	n/a	n/a	n/a	n/a	n/a	n/a	n/a
319.2211	0.5167	FIXCROSS	n/a	n/a	n/a	n/a	n/a	n/a	n/a	n/a
319.7378	0.6333	COLOR_NAME	27	Incongruent	zielony	green	żółty	yellow	hit	n/a
320.3521	n/a	RESPONSE	n/a	n/a	n/a	n/a	n/a	n/a	n/a	green
320.3711	1.0167	ITI	n/a	n/a	n/a	n/a	n/a	n/a	n/a	n/a
321.3878	0.5167	FIXCROSS	n/a	n/a	n/a	n/a	n/a	n/a	n/a	n/a
321.9045	0.6333	COLOR_NAME	28	Neutral	żółty	yellow	Neutral	Neutral	hit	n/a
322.5072	n/a	RESPONSE	n/a	n/a	n/a	n/a	n/a	n/a	n/a	yellow
322.5378	1.0167	ITI	n/a	n/a	n/a	n/a	n/a	n/a	n/a	n/a
323.5545	0.5167	FIXCROSS	n/a	n/a	n/a	n/a	n/a	n/a	n/a	n/a
324.0711	0.7666	COLOR_NAME	29	Incongruent	niebieski	blue	zielony	green	hit	n/a
324.8059	n/a	RESPONSE	n/a	n/a	n/a	n/a	n/a	n/a	n/a	blue
324.8378	1.0167	ITI	n/a	n/a	n/a	n/a	n/a	n/a	n/a	n/a
325.8544	0.5167	FIXCROSS	n/a	n/a	n/a	n/a	n/a	n/a	n/a	n/a
326.3712	1.1	COLOR_NAME	30	Incongruent	zielony	green	czerwony	red	hit	n/a
327.4397	n/a	RESPONSE	n/a	n/a	n/a	n/a	n/a	n/a	n/a	green
327.4712	1.0167	ITI	n/a	n/a	n/a	n/a	n/a	n/a	n/a	n/a
328.4878	0.5167	FIXCROSS	n/a	n/a	n/a	n/a	n/a	n/a	n/a	n/a
329.0045	0.4333	COLOR_NAME	31	Neutral	zielony	green	Neutral	Neutral	hit	n/a
329.4192	n/a	RESPONSE	n/a	n/a	n/a	n/a	n/a	n/a	n/a	green
329.4378	1.0167	ITI	n/a	n/a	n/a	n/a	n/a	n/a	n/a	n/a
330.4545	0.5167	FIXCROSS	n/a	n/a	n/a	n/a	n/a	n/a	n/a	n/a
330.9712	0.5333	COLOR_NAME	32	Neutral	niebieski	blue	Neutral	Neutral	hit	n/a
331.4786	n/a	RESPONSE	n/a	n/a	n/a	n/a	n/a	n/a	n/a	blue
331.5045	1.0167	ITI	n/a	n/a	n/a	n/a	n/a	n/a	n/a	n/a
332.5212	0.5167	FIXCROSS	n/a	n/a	n/a	n/a	n/a	n/a	n/a	n/a
333.0378	0.6667	COLOR_NAME	33	Neutral	czerwony	red	Neutral	Neutral	hit	n/a
333.6815	n/a	RESPONSE	n/a	n/a	n/a	n/a	n/a	n/a	n/a	red
333.7045	1.0167	ITI	n/a	n/a	n/a	n/a	n/a	n/a	n/a	n/a
334.7212	0.5167	FIXCROSS	n/a	n/a	n/a	n/a	n/a	n/a	n/a	n/a
335.2379	0.7833	COLOR_NAME	34	Neutral	niebieski	blue	Neutral	Neutral	hit	n/a
335.9961	n/a	RESPONSE	n/a	n/a	n/a	n/a	n/a	n/a	n/a	blue
336.0212	1.0167	ITI	n/a	n/a	n/a	n/a	n/a	n/a	n/a	n/a
337.0379	0.5167	FIXCROSS	n/a	n/a	n/a	n/a	n/a	n/a	n/a	n/a
337.5546	0.6167	COLOR_NAME	35	Incongruent	niebieski	blue	żółty	yellow	hit	n/a
338.1512	n/a	RESPONSE	n/a	n/a	n/a	n/a	n/a	n/a	n/a	blue
338.1712	1.0167	ITI	n/a	n/a	n/a	n/a	n/a	n/a	n/a	n/a
339.1879	0.5166	FIXCROSS	n/a	n/a	n/a	n/a	n/a	n/a	n/a	n/a
339.7045	0.7667	COLOR_NAME	36	Neutral	czerwony	red	Neutral	Neutral	hit	n/a
340.45	n/a	RESPONSE	n/a	n/a	n/a	n/a	n/a	n/a	n/a	red
340.4713	1.0166	ITI	n/a	n/a	n/a	n/a	n/a	n/a	n/a	n/a
341.4879	0.5167	FIXCROSS	n/a	n/a	n/a	n/a	n/a	n/a	n/a	n/a
342.0046	1.5333	COLOR_NAME	37	Neutral	zielony	green	Neutral	Neutral	hit	n/a
343.5148	n/a	RESPONSE	n/a	n/a	n/a	n/a	n/a	n/a	n/a	green
343.5379	1.0166	ITI	n/a	n/a	n/a	n/a	n/a	n/a	n/a	n/a
344.5546	0.5167	FIXCROSS	n/a	n/a	n/a	n/a	n/a	n/a	n/a	n/a
345.0713	0.7	COLOR_NAME	38	Incongruent	zielony	green	czerwony	red	hit	n/a
345.7498	n/a	RESPONSE	n/a	n/a	n/a	n/a	n/a	n/a	n/a	green
345.7713	1.0166	ITI	n/a	n/a	n/a	n/a	n/a	n/a	n/a	n/a
346.7879	0.5167	FIXCROSS	n/a	n/a	n/a	n/a	n/a	n/a	n/a	n/a
347.3046	0.95	COLOR_NAME	39	Incongruent	czerwony	red	zielony	green	hit	n/a
348.224	n/a	RESPONSE	n/a	n/a	n/a	n/a	n/a	n/a	n/a	red
348.2546	1.0167	ITI	n/a	n/a	n/a	n/a	n/a	n/a	n/a	n/a
349.2713	0.5167	FIXCROSS	n/a	n/a	n/a	n/a	n/a	n/a	n/a	n/a
349.788	0.7166	COLOR_NAME	40	Incongruent	żółty	yellow	czerwony	red	hit	n/a
350.4748	n/a	RESPONSE	n/a	n/a	n/a	n/a	n/a	n/a	n/a	yellow
350.5046	1.0167	ITI	n/a	n/a	n/a	n/a	n/a	n/a	n/a	n/a
351.5213	0.5167	FIXCROSS	n/a	n/a	n/a	n/a	n/a	n/a	n/a	n/a
352.038	0.6833	COLOR_NAME	41	Incongruent	niebieski	blue	zielony	green	hit	n/a
352.6937	n/a	RESPONSE	n/a	n/a	n/a	n/a	n/a	n/a	n/a	blue
352.7213	1.0167	ITI	n/a	n/a	n/a	n/a	n/a	n/a	n/a	n/a
353.738	0.5167	FIXCROSS	n/a	n/a	n/a	n/a	n/a	n/a	n/a	n/a
354.2547	0.8833	COLOR_NAME	42	Neutral	zielony	green	Neutral	Neutral	hit	n/a
355.1201	n/a	RESPONSE	n/a	n/a	n/a	n/a	n/a	n/a	n/a	green
355.138	1.0167	ITI	n/a	n/a	n/a	n/a	n/a	n/a	n/a	n/a
356.1547	0.5166	FIXCROSS	n/a	n/a	n/a	n/a	n/a	n/a	n/a	n/a
356.6713	0.8167	COLOR_NAME	43	Incongruent	żółty	yellow	czerwony	red	hit	n/a
357.4667	n/a	RESPONSE	n/a	n/a	n/a	n/a	n/a	n/a	n/a	yellow
357.488	1.0167	ITI	n/a	n/a	n/a	n/a	n/a	n/a	n/a	n/a
358.5047	0.5166	FIXCROSS	n/a	n/a	n/a	n/a	n/a	n/a	n/a	n/a
359.0214	0.7	COLOR_NAME	44	Incongruent	zielony	green	żółty	yellow	incorrect	n/a
359.7016	n/a	RESPONSE	n/a	n/a	n/a	n/a	n/a	n/a	n/a	yellow
359.7214	1.0167	ITI	n/a	n/a	n/a	n/a	n/a	n/a	n/a	n/a
360.738	0.5167	FIXCROSS	n/a	n/a	n/a	n/a	n/a	n/a	n/a	n/a
361.2547	0.7667	COLOR_NAME	45	Neutral	czerwony	red	Neutral	Neutral	hit	n/a
362.0003	n/a	RESPONSE	n/a	n/a	n/a	n/a	n/a	n/a	n/a	red
362.0214	1.0167	ITI	n/a	n/a	n/a	n/a	n/a	n/a	n/a	n/a
363.0381	0.5167	FIXCROSS	n/a	n/a	n/a	n/a	n/a	n/a	n/a	n/a
363.5548	0.7833	COLOR_NAME	46	Neutral	żółty	yellow	Neutral	Neutral	hit	n/a
364.3149	n/a	RESPONSE	n/a	n/a	n/a	n/a	n/a	n/a	n/a	yellow
364.3381	1.0167	ITI	n/a	n/a	n/a	n/a	n/a	n/a	n/a	n/a
365.3548	0.5166	FIXCROSS	n/a	n/a	n/a	n/a	n/a	n/a	n/a	n/a
365.8714	0.9167	COLOR_NAME	47	Incongruent	żółty	yellow	zielony	green	hit	n/a
366.7573	n/a	RESPONSE	n/a	n/a	n/a	n/a	n/a	n/a	n/a	yellow
366.7881	1.0167	ITI	n/a	n/a	n/a	n/a	n/a	n/a	n/a	n/a
367.8048	0.5167	FIXCROSS	n/a	n/a	n/a	n/a	n/a	n/a	n/a	n/a
368.3215	0.9333	COLOR_NAME	48	Neutral	niebieski	blue	Neutral	Neutral	hit	n/a
369.2316	n/a	RESPONSE	n/a	n/a	n/a	n/a	n/a	n/a	n/a	blue
369.2548	1.0167	ITI	n/a	n/a	n/a	n/a	n/a	n/a	n/a	n/a
370.2715	0.5166	FIXCROSS	n/a	n/a	n/a	n/a	n/a	n/a	n/a	n/a
370.7881	0.8667	COLOR_NAME	49	Neutral	żółty	yellow	Neutral	Neutral	hit	n/a
371.6261	n/a	RESPONSE	n/a	n/a	n/a	n/a	n/a	n/a	n/a	yellow
371.6548	1.0167	ITI	n/a	n/a	n/a	n/a	n/a	n/a	n/a	n/a
372.6715	0.5167	FIXCROSS	n/a	n/a	n/a	n/a	n/a	n/a	n/a	n/a
373.1882	2.0	COLOR_NAME	50	Incongruent	czerwony	red	zielony	green	hit	n/a
375.17	n/a	RESPONSE	n/a	n/a	n/a	n/a	n/a	n/a	n/a	red
375.1881	1.0167	ITI	n/a	n/a	n/a	n/a	n/a	n/a	n/a	n/a
376.2048	0.5167	FIXCROSS	n/a	n/a	n/a	n/a	n/a	n/a	n/a	n/a
376.7215	1.1166	COLOR_NAME	51	Neutral	zielony	green	Neutral	Neutral	incorrect	n/a
377.8197	n/a	RESPONSE	n/a	n/a	n/a	n/a	n/a	n/a	n/a	yellow
377.8382	1.0167	ITI	n/a	n/a	n/a	n/a	n/a	n/a	n/a	n/a
378.8549	0.5167	FIXCROSS	n/a	n/a	n/a	n/a	n/a	n/a	n/a	n/a
379.3715	0.8	COLOR_NAME	52	Neutral	czerwony	red	Neutral	Neutral	hit	n/a
380.1505	n/a	RESPONSE	n/a	n/a	n/a	n/a	n/a	n/a	n/a	red
380.1715	1.0166	ITI	n/a	n/a	n/a	n/a	n/a	n/a	n/a	n/a
381.1882	0.5167	FIXCROSS	n/a	n/a	n/a	n/a	n/a	n/a	n/a	n/a
381.7049	0.7667	COLOR_NAME	53	Neutral	niebieski	blue	Neutral	Neutral	hit	n/a
382.4492	n/a	RESPONSE	n/a	n/a	n/a	n/a	n/a	n/a	n/a	blue
382.4716	1.0167	ITI	n/a	n/a	n/a	n/a	n/a	n/a	n/a	n/a
383.4882	0.5167	FIXCROSS	n/a	n/a	n/a	n/a	n/a	n/a	n/a	n/a
384.0049	1.9833	COLOR_NAME	54	Incongruent	zielony	green	niebieski	blue	hit	n/a
385.961	n/a	RESPONSE	n/a	n/a	n/a	n/a	n/a	n/a	n/a	green
385.9882	1.0167	ITI	n/a	n/a	n/a	n/a	n/a	n/a	n/a	n/a
387.0049	0.5167	FIXCROSS	n/a	n/a	n/a	n/a	n/a	n/a	n/a	n/a
387.5216	0.6333	COLOR_NAME	55	Neutral	niebieski	blue	Neutral	Neutral	hit	n/a
388.1321	n/a	RESPONSE	n/a	n/a	n/a	n/a	n/a	n/a	n/a	blue
388.1549	1.0167	ITI	n/a	n/a	n/a	n/a	n/a	n/a	n/a	n/a
389.1716	0.5166	FIXCROSS	n/a	n/a	n/a	n/a	n/a	n/a	n/a	n/a
389.6882	1.0667	COLOR_NAME	56	Incongruent	żółty	yellow	niebieski	blue	hit	n/a
390.7341	n/a	RESPONSE	n/a	n/a	n/a	n/a	n/a	n/a	n/a	yellow
390.7549	1.0167	ITI	n/a	n/a	n/a	n/a	n/a	n/a	n/a	n/a
391.7716	0.5167	FIXCROSS	n/a	n/a	n/a	n/a	n/a	n/a	n/a	n/a
392.2883	0.7667	COLOR_NAME	57	Neutral	zielony	green	Neutral	Neutral	hit	n/a
393.0328	n/a	RESPONSE	n/a	n/a	n/a	n/a	n/a	n/a	n/a	green
393.055	1.0167	ITI	n/a	n/a	n/a	n/a	n/a	n/a	n/a	n/a
394.0716	0.5166	FIXCROSS	n/a	n/a	n/a	n/a	n/a	n/a	n/a	n/a
394.5883	0.8167	COLOR_NAME	58	Incongruent	żółty	yellow	niebieski	blue	hit	n/a
395.3794	n/a	RESPONSE	n/a	n/a	n/a	n/a	n/a	n/a	n/a	yellow
395.405	1.0167	ITI	n/a	n/a	n/a	n/a	n/a	n/a	n/a	n/a
396.4217	0.5167	FIXCROSS	n/a	n/a	n/a	n/a	n/a	n/a	n/a	n/a
396.9383	0.8333	COLOR_NAME	59	Neutral	czerwony	red	Neutral	Neutral	hit	n/a
397.7419	n/a	RESPONSE	n/a	n/a	n/a	n/a	n/a	n/a	n/a	red
397.7717	1.0166	ITI	n/a	n/a	n/a	n/a	n/a	n/a	n/a	n/a
398.7883	0.5167	FIXCROSS	n/a	n/a	n/a	n/a	n/a	n/a	n/a	n/a
399.305	1.2167	COLOR_NAME	60	Incongruent	czerwony	red	niebieski	blue	hit	n/a
400.5036	n/a	RESPONSE	n/a	n/a	n/a	n/a	n/a	n/a	n/a	red
400.5217	1.0167	ITI	n/a	n/a	n/a	n/a	n/a	n/a	n/a	n/a
401.5383	0.5167	FIXCROSS	n/a	n/a	n/a	n/a	n/a	n/a	n/a	n/a
402.055	1.15	COLOR_NAME	61	Incongruent	zielony	green	czerwony	red	hit	n/a
403.1854	n/a	RESPONSE	n/a	n/a	n/a	n/a	n/a	n/a	n/a	green
403.205	1.0167	ITI	n/a	n/a	n/a	n/a	n/a	n/a	n/a	n/a
404.2217	0.5167	FIXCROSS	n/a	n/a	n/a	n/a	n/a	n/a	n/a	n/a
404.7384	0.5666	COLOR_NAME	62	Neutral	zielony	green	Neutral	Neutral	hit	n/a
405.2767	n/a	RESPONSE	n/a	n/a	n/a	n/a	n/a	n/a	n/a	green
405.305	1.0167	ITI	n/a	n/a	n/a	n/a	n/a	n/a	n/a	n/a
406.3217	0.5167	FIXCROSS	n/a	n/a	n/a	n/a	n/a	n/a	n/a	n/a
406.8384	0.45	COLOR_NAME	63	Neutral	zielony	green	Neutral	Neutral	hit	n/a
407.256	n/a	RESPONSE	n/a	n/a	n/a	n/a	n/a	n/a	n/a	green
407.2884	1.0167	ITI	n/a	n/a	n/a	n/a	n/a	n/a	n/a	n/a
408.3051	0.5167	FIXCROSS	n/a	n/a	n/a	n/a	n/a	n/a	n/a	n/a
408.8218	0.8166	COLOR_NAME	64	Incongruent	czerwony	red	żółty	yellow	hit	n/a
409.6186	n/a	RESPONSE	n/a	n/a	n/a	n/a	n/a	n/a	n/a	red
409.6384	1.0167	ITI	n/a	n/a	n/a	n/a	n/a	n/a	n/a	n/a
410.6551	0.5167	FIXCROSS	n/a	n/a	n/a	n/a	n/a	n/a	n/a	n/a
411.1718	0.6833	COLOR_NAME	65	Neutral	niebieski	blue	Neutral	Neutral	hit	n/a
411.8375	n/a	RESPONSE	n/a	n/a	n/a	n/a	n/a	n/a	n/a	blue
411.8551	1.0167	ITI	n/a	n/a	n/a	n/a	n/a	n/a	n/a	n/a
412.8718	0.5167	FIXCROSS	n/a	n/a	n/a	n/a	n/a	n/a	n/a	n/a
413.3885	0.6	COLOR_NAME	66	Incongruent	czerwony	red	żółty	yellow	hit	n/a
413.9606	n/a	RESPONSE	n/a	n/a	n/a	n/a	n/a	n/a	n/a	red
413.9884	1.0167	ITI	n/a	n/a	n/a	n/a	n/a	n/a	n/a	n/a
415.0051	0.5166	FIXCROSS	n/a	n/a	n/a	n/a	n/a	n/a	n/a	n/a
415.5218	0.5167	COLOR_NAME	67	Neutral	niebieski	blue	Neutral	Neutral	hit	n/a
416.0198	n/a	RESPONSE	n/a	n/a	n/a	n/a	n/a	n/a	n/a	blue
416.0384	1.0167	ITI	n/a	n/a	n/a	n/a	n/a	n/a	n/a	n/a
417.0551	0.5166	FIXCROSS	n/a	n/a	n/a	n/a	n/a	n/a	n/a	n/a
417.5718	0.6167	COLOR_NAME	68	Incongruent	czerwony	red	zielony	green	hit	n/a
418.1589	n/a	RESPONSE	n/a	n/a	n/a	n/a	n/a	n/a	n/a	red
418.1884	1.0167	ITI	n/a	n/a	n/a	n/a	n/a	n/a	n/a	n/a
419.2051	0.5167	FIXCROSS	n/a	n/a	n/a	n/a	n/a	n/a	n/a	n/a
419.7218	1.05	COLOR_NAME	69	Neutral	żółty	yellow	Neutral	Neutral	hit	n/a
420.745	n/a	RESPONSE	n/a	n/a	n/a	n/a	n/a	n/a	n/a	yellow
420.7718	1.0167	ITI	n/a	n/a	n/a	n/a	n/a	n/a	n/a	n/a
421.7885	0.5167	FIXCROSS	n/a	n/a	n/a	n/a	n/a	n/a	n/a	n/a
422.3052	0.6	COLOR_NAME	70	Neutral	żółty	yellow	Neutral	Neutral	hit	n/a
422.884	n/a	RESPONSE	n/a	n/a	n/a	n/a	n/a	n/a	n/a	yellow
422.9052	1.0167	ITI	n/a	n/a	n/a	n/a	n/a	n/a	n/a	n/a
423.9219	0.5166	FIXCROSS	n/a	n/a	n/a	n/a	n/a	n/a	n/a	n/a
424.4385	0.4167	COLOR_NAME	71	Incongruent	żółty	yellow	niebieski	blue	hit	n/a
424.8316	n/a	RESPONSE	n/a	n/a	n/a	n/a	n/a	n/a	n/a	yellow
424.8552	1.0166	ITI	n/a	n/a	n/a	n/a	n/a	n/a	n/a	n/a
425.8718	0.5167	FIXCROSS	n/a	n/a	n/a	n/a	n/a	n/a	n/a	n/a
426.3885	1.2167	COLOR_NAME	72	Incongruent	niebieski	blue	czerwony	red	hit	n/a
427.5773	n/a	RESPONSE	n/a	n/a	n/a	n/a	n/a	n/a	n/a	blue
427.6052	1.0333	ITI	n/a	n/a	n/a	n/a	n/a	n/a	n/a	n/a
431.1371	n/a	RESPONSE	n/a	n/a	n/a	n/a	n/a	n/a	n/a	n/a
