onset	duration	trial_type	melody_number	melody_part	key	sound	action
0.0	14.081	CUE_START	n/a	n/a	n/a	n/a	n/a
14.081	7.76	FIXCROSS	n/a	n/a	n/a	n/a	n/a
21.841	6.324	CUE_LISTEN	M1	1	n/a	n/a	n/a
28.164	7.758	FIXCROSS	n/a	n/a	n/a	n/a	n/a
35.923	6.317	CUE_PLAYBACK_RIGHT_HAND	M1	1	n/a	n/a	n/a
36.815	n/a	RESPONSE	M1	1	19	G4	press
37.365	n/a	RESPONSE	M1	1	19	G4	release
37.496	n/a	RESPONSE	M1	1	16	E4	press
37.897	n/a	RESPONSE	M1	1	16	E4	release
38.088	n/a	RESPONSE	M1	1	16	E4	press
38.43	n/a	RESPONSE	M1	1	16	E4	release
38.661	n/a	RESPONSE	M1	1	17	F4	press
39.292	n/a	RESPONSE	M1	1	14	D4	press
39.443	n/a	RESPONSE	M1	1	17	F4	release
39.592	n/a	RESPONSE	M1	1	14	D4	release
39.87	n/a	RESPONSE	M1	1	14	D4	press
40.268	n/a	RESPONSE	M1	1	14	D4	release
40.542	n/a	RESPONSE	M1	1	12	C4	press
40.832	n/a	RESPONSE	M1	1	12	C4	release
40.913	n/a	RESPONSE	M1	1	16	E4	press
41.158	n/a	RESPONSE	M1	1	16	E4	release
41.273	n/a	RESPONSE	M1	1	19	G4	press
42.148	n/a	RESPONSE	M1	1	19	G4	release
42.24	7.758	FIXCROSS	n/a	n/a	n/a	n/a	n/a
49.998	6.317	CUE_LISTEN	M1	2	n/a	n/a	n/a
56.314	7.758	FIXCROSS	n/a	n/a	n/a	n/a	n/a
64.073	6.325	CUE_PLAYBACK_RIGHT_HAND	M1	2	n/a	n/a	n/a
64.811	n/a	RESPONSE	M1	2	19	G4	press
65.361	n/a	RESPONSE	M1	2	19	G4	release
65.481	n/a	RESPONSE	M1	2	16	E4	press
65.902	n/a	RESPONSE	M1	2	16	E4	release
66.003	n/a	RESPONSE	M1	2	16	E4	press
66.344	n/a	RESPONSE	M1	2	16	E4	release
66.516	n/a	RESPONSE	M1	2	17	F4	press
66.907	n/a	RESPONSE	M1	2	17	F4	release
67.071	n/a	RESPONSE	M1	2	14	D4	press
67.352	n/a	RESPONSE	M1	2	14	D4	release
67.561	n/a	RESPONSE	M1	2	14	D4	press
67.845	n/a	RESPONSE	M1	2	14	D4	release
68.063	n/a	RESPONSE	M1	2	12	C4	press
68.305	n/a	RESPONSE	M1	2	12	C4	release
68.336	n/a	RESPONSE	M1	2	16	E4	press
68.58	n/a	RESPONSE	M1	2	16	E4	release
68.668	n/a	RESPONSE	M1	2	12	C4	press
69.281	n/a	RESPONSE	M1	2	12	C4	release
70.398	7.758	FIXCROSS	n/a	n/a	n/a	n/a	n/a
78.156	6.317	CUE_LISTEN	M1	1	n/a	n/a	n/a
84.473	7.758	FIXCROSS	n/a	n/a	n/a	n/a	n/a
92.231	6.317	CUE_PLAYBACK_BOTH_HANDS	M1	1	n/a	n/a	n/a
92.837	n/a	RESPONSE	M1	1	07	G3	press
92.861	n/a	RESPONSE	M1	1	19	G4	press
93.207	n/a	RESPONSE	M1	1	07	G3	release
93.298	n/a	RESPONSE	M1	1	19	G4	release
93.38	n/a	RESPONSE	M1	1	04	E3	press
93.403	n/a	RESPONSE	M1	1	16	E4	press
93.732	n/a	RESPONSE	M1	1	16	E4	release
93.903	n/a	RESPONSE	M1	1	16	E4	press
94.224	n/a	RESPONSE	M1	1	16	E4	release
94.286	n/a	RESPONSE	M1	1	04	E3	release
94.407	n/a	RESPONSE	M1	1	05	F3	press
94.428	n/a	RESPONSE	M1	1	17	F4	press
94.711	n/a	RESPONSE	M1	1	05	F3	release
94.812	n/a	RESPONSE	M1	1	17	F4	release
94.913	n/a	RESPONSE	M1	1	02	D3	press
94.944	n/a	RESPONSE	M1	1	14	D4	press
95.236	n/a	RESPONSE	M1	1	14	D4	release
95.42	n/a	RESPONSE	M1	1	14	D4	press
95.678	n/a	RESPONSE	M1	1	02	D3	release
95.71	n/a	RESPONSE	M1	1	14	D4	release
95.861	n/a	RESPONSE	M1	1	00	C3	press
95.912	n/a	RESPONSE	M1	1	12	C4	press
96.163	n/a	RESPONSE	M1	1	12	C4	release
96.194	n/a	RESPONSE	M1	1	04	E3	press
96.216	n/a	RESPONSE	M1	1	16	E4	press
96.388	n/a	RESPONSE	M1	1	00	C3	release
96.428	n/a	RESPONSE	M1	1	16	E4	release
96.46	n/a	RESPONSE	M1	1	04	E3	release
96.491	n/a	RESPONSE	M1	1	05	F3	press
96.522	n/a	RESPONSE	M1	1	19	G4	press
96.593	n/a	RESPONSE	M1	1	07	G3	press
96.964	n/a	RESPONSE	M1	1	05	F3	release
97.326	n/a	RESPONSE	M1	1	07	G3	release
97.797	n/a	RESPONSE	M1	1	19	G4	release
98.548	7.758	FIXCROSS	n/a	n/a	n/a	n/a	n/a
106.306	6.325	CUE_LISTEN	M1	2	n/a	n/a	n/a
112.631	7.758	FIXCROSS	n/a	n/a	n/a	n/a	n/a
120.39	6.317	CUE_PLAYBACK_BOTH_HANDS	M1	2	n/a	n/a	n/a
121.264	n/a	RESPONSE	M1	2	07	G3	press
121.267	n/a	RESPONSE	M1	2	19	G4	press
121.694	n/a	RESPONSE	M1	2	07	G3	release
121.741	n/a	RESPONSE	M1	2	19	G4	release
121.85	n/a	RESPONSE	M1	2	04	E3	press
121.892	n/a	RESPONSE	M1	2	17	F4	press
122.313	n/a	RESPONSE	M1	2	04	E3	release
122.326	n/a	RESPONSE	M1	2	17	F4	release
122.636	n/a	RESPONSE	M1	2	04	E3	press
122.677	n/a	RESPONSE	M1	2	17	F4	press
123.172	n/a	RESPONSE	M1	2	04	E3	release
123.243	n/a	RESPONSE	M1	2	17	F4	release
124.497	n/a	RESPONSE	M1	2	17	F4	press
124.506	n/a	RESPONSE	M1	2	05	F3	press
124.838	n/a	RESPONSE	M1	2	05	F3	release
124.9	n/a	RESPONSE	M1	2	17	F4	release
125.061	n/a	RESPONSE	M1	2	02	D3	press
125.132	n/a	RESPONSE	M1	2	14	D4	press
125.463	n/a	RESPONSE	M1	2	14	D4	release
125.695	n/a	RESPONSE	M1	2	14	D4	press
125.986	n/a	RESPONSE	M1	2	14	D4	release
126.027	n/a	RESPONSE	M1	2	02	D3	release
126.278	n/a	RESPONSE	M1	2	00	C3	press
126.34	n/a	RESPONSE	M1	2	12	C4	press
126.631	n/a	RESPONSE	M1	2	12	C4	release
126.706	7.758	FIXCROSS	n/a	n/a	n/a	n/a	n/a
126.772	n/a	RESPONSE	M1	2	04	E3	press
126.783	n/a	RESPONSE	M1	2	00	C3	release
126.834	n/a	RESPONSE	M1	2	16	E4	press
127.106	n/a	RESPONSE	M1	2	04	E3	release
127.147	n/a	RESPONSE	M1	2	16	E4	release
127.291	n/a	RESPONSE	M1	2	00	C3	press
127.32	n/a	RESPONSE	M1	2	12	C4	press
128.271	n/a	RESPONSE	M1	2	12	C4	release
128.954	n/a	RESPONSE	M1	2	00	C3	release
134.465	6.325	CUE_LISTEN	M1	1	n/a	n/a	n/a
140.79	7.758	FIXCROSS	n/a	n/a	n/a	n/a	n/a
148.548	6.317	CUE_PLAYBACK_RIGHT_HAND	M1	1	n/a	n/a	n/a
149.32	n/a	RESPONSE	M1	1	19	G4	press
149.781	n/a	RESPONSE	M1	1	19	G4	release
149.843	n/a	RESPONSE	M1	1	16	E4	press
150.196	n/a	RESPONSE	M1	1	16	E4	release
150.331	n/a	RESPONSE	M1	1	16	E4	press
150.663	n/a	RESPONSE	M1	1	16	E4	release
150.871	n/a	RESPONSE	M1	1	17	F4	press
151.212	n/a	RESPONSE	M1	1	17	F4	release
151.406	n/a	RESPONSE	M1	1	14	D4	press
151.703	n/a	RESPONSE	M1	1	14	D4	release
151.91	n/a	RESPONSE	M1	1	14	D4	press
152.187	n/a	RESPONSE	M1	1	14	D4	release
152.438	n/a	RESPONSE	M1	1	12	C4	press
152.696	n/a	RESPONSE	M1	1	12	C4	release
152.831	n/a	RESPONSE	M1	1	16	E4	press
153.126	n/a	RESPONSE	M1	1	16	E4	release
153.267	n/a	RESPONSE	M1	1	19	G4	press
154.348	n/a	RESPONSE	M1	1	19	G4	release
154.865	7.758	FIXCROSS	n/a	n/a	n/a	n/a	n/a
162.623	6.317	CUE_LISTEN	M1	2	n/a	n/a	n/a
168.94	7.758	FIXCROSS	n/a	n/a	n/a	n/a	n/a
176.698	6.325	CUE_PLAYBACK_RIGHT_HAND	M1	2	n/a	n/a	n/a
177.393	n/a	RESPONSE	M1	2	19	G4	press
177.894	n/a	RESPONSE	M1	2	19	G4	release
178.096	n/a	RESPONSE	M1	2	19	G4	press
178.57	n/a	RESPONSE	M1	2	19	G4	release
178.658	n/a	RESPONSE	M1	2	16	E4	press
179.01	n/a	RESPONSE	M1	2	16	E4	release
179.181	n/a	RESPONSE	M1	2	16	E4	press
179.492	n/a	RESPONSE	M1	2	16	E4	release
179.707	n/a	RESPONSE	M1	2	17	F4	press
180.01	n/a	RESPONSE	M1	2	17	F4	release
180.204	n/a	RESPONSE	M1	2	14	D4	press
180.484	n/a	RESPONSE	M1	2	14	D4	release
180.682	n/a	RESPONSE	M1	2	14	D4	press
180.986	n/a	RESPONSE	M1	2	14	D4	release
181.197	n/a	RESPONSE	M1	2	12	C4	press
181.489	n/a	RESPONSE	M1	2	12	C4	release
181.527	n/a	RESPONSE	M1	2	16	E4	press
181.842	n/a	RESPONSE	M1	2	16	E4	release
181.974	n/a	RESPONSE	M1	2	12	C4	press
182.746	n/a	RESPONSE	M1	2	12	C4	release
183.023	7.758	FIXCROSS	n/a	n/a	n/a	n/a	n/a
190.781	6.317	CUE_LISTEN	M1	1	n/a	n/a	n/a
197.098	7.758	FIXCROSS	n/a	n/a	n/a	n/a	n/a
204.856	6.317	CUE_PLAYBACK_BOTH_HANDS	M1	1	n/a	n/a	n/a
206.067	n/a	RESPONSE	M1	1	19	G4	press
206.078	n/a	RESPONSE	M1	1	07	G3	press
206.409	n/a	RESPONSE	M1	1	07	G3	release
206.461	n/a	RESPONSE	M1	1	19	G4	release
206.632	n/a	RESPONSE	M1	1	04	E3	press
206.653	n/a	RESPONSE	M1	1	16	E4	press
207.014	n/a	RESPONSE	M1	1	16	E4	release
207.217	n/a	RESPONSE	M1	1	16	E4	press
207.537	n/a	RESPONSE	M1	1	16	E4	release
207.628	n/a	RESPONSE	M1	1	04	E3	release
207.729	n/a	RESPONSE	M1	1	05	F3	press
207.762	n/a	RESPONSE	M1	1	17	F4	press
208.002	n/a	RESPONSE	M1	1	05	F3	release
208.116	n/a	RESPONSE	M1	1	17	F4	release
208.274	n/a	RESPONSE	M1	1	02	D3	press
208.296	n/a	RESPONSE	M1	1	14	D4	press
208.577	n/a	RESPONSE	M1	1	14	D4	release
208.638	n/a	RESPONSE	M1	1	02	D3	release
208.801	n/a	RESPONSE	M1	1	02	D3	press
208.812	n/a	RESPONSE	M1	1	14	D4	press
209.032	n/a	RESPONSE	M1	1	02	D3	release
209.063	n/a	RESPONSE	M1	1	14	D4	release
209.267	n/a	RESPONSE	M1	1	00	C3	press
209.326	n/a	RESPONSE	M1	1	12	C4	press
209.556	n/a	RESPONSE	M1	1	00	C3	release
209.558	n/a	RESPONSE	M1	1	12	C4	release
209.981	n/a	RESPONSE	M1	1	04	E3	press
210.014	n/a	RESPONSE	M1	1	16	E4	press
210.349	n/a	RESPONSE	M1	1	16	E4	release
210.388	n/a	RESPONSE	M1	1	04	E3	release
210.731	n/a	RESPONSE	M1	1	07	G3	press
210.806	n/a	RESPONSE	M1	1	19	G4	press
211.173	7.758	FIXCROSS	n/a	n/a	n/a	n/a	n/a
211.503	n/a	RESPONSE	M1	1	07	G3	release
211.521	n/a	RESPONSE	M1	1	19	G4	release
218.931	6.325	CUE_LISTEN	M1	2	n/a	n/a	n/a
225.256	7.758	FIXCROSS	n/a	n/a	n/a	n/a	n/a
233.015	6.317	CUE_PLAYBACK_BOTH_HANDS	M1	2	n/a	n/a	n/a
234.017	n/a	RESPONSE	M1	2	07	G3	press
234.068	n/a	RESPONSE	M1	2	19	G4	press
234.379	n/a	RESPONSE	M1	2	07	G3	release
234.421	n/a	RESPONSE	M1	2	19	G4	release
234.564	n/a	RESPONSE	M1	2	04	E3	press
234.624	n/a	RESPONSE	M1	2	16	E4	press
234.926	n/a	RESPONSE	M1	2	16	E4	release
235.127	n/a	RESPONSE	M1	2	16	E4	press
235.399	n/a	RESPONSE	M1	2	16	E4	release
235.449	n/a	RESPONSE	M1	2	04	E3	release
235.631	n/a	RESPONSE	M1	2	05	F3	press
235.634	n/a	RESPONSE	M1	2	17	F4	press
235.914	n/a	RESPONSE	M1	2	05	F3	release
235.997	n/a	RESPONSE	M1	2	17	F4	release
236.166	n/a	RESPONSE	M1	2	02	D3	press
236.178	n/a	RESPONSE	M1	2	14	D4	press
236.468	n/a	RESPONSE	M1	2	14	D4	release
236.669	n/a	RESPONSE	M1	2	14	D4	press
236.931	n/a	RESPONSE	M1	2	02	D3	release
236.942	n/a	RESPONSE	M1	2	14	D4	release
237.174	n/a	RESPONSE	M1	2	00	C3	press
237.214	n/a	RESPONSE	M1	2	12	C4	press
237.446	n/a	RESPONSE	M1	2	12	C4	release
237.669	n/a	RESPONSE	M1	2	00	C3	release
237.799	n/a	RESPONSE	M1	2	04	E3	press
237.881	n/a	RESPONSE	M1	2	16	E4	press
238.171	n/a	RESPONSE	M1	2	04	E3	release
238.182	n/a	RESPONSE	M1	2	16	E4	release
238.453	n/a	RESPONSE	M1	2	00	C3	press
238.487	n/a	RESPONSE	M1	2	12	C4	press
239.326	n/a	RESPONSE	M1	2	00	C3	release
239.331	7.758	FIXCROSS	n/a	n/a	n/a	n/a	n/a
239.357	n/a	RESPONSE	M1	2	12	C4	release
247.09	6.317	CUE_LISTEN	M1	1	n/a	n/a	n/a
253.406	7.758	FIXCROSS	n/a	n/a	n/a	n/a	n/a
261.165	6.325	CUE_PLAYBACK_RIGHT_HAND	M1	1	n/a	n/a	n/a
261.736	n/a	RESPONSE	M1	1	19	G4	press
262.192	n/a	RESPONSE	M1	1	19	G4	release
262.268	n/a	RESPONSE	M1	1	16	E4	press
262.577	n/a	RESPONSE	M1	1	16	E4	release
262.766	n/a	RESPONSE	M1	1	16	E4	press
263.072	n/a	RESPONSE	M1	1	16	E4	release
263.323	n/a	RESPONSE	M1	1	17	F4	press
263.674	n/a	RESPONSE	M1	1	17	F4	release
263.856	n/a	RESPONSE	M1	1	14	D4	press
264.139	n/a	RESPONSE	M1	1	14	D4	release
264.369	n/a	RESPONSE	M1	1	14	D4	press
264.651	n/a	RESPONSE	M1	1	14	D4	release
264.884	n/a	RESPONSE	M1	1	12	C4	press
265.103	n/a	RESPONSE	M1	1	12	C4	release
265.227	n/a	RESPONSE	M1	1	16	E4	press
265.466	n/a	RESPONSE	M1	1	16	E4	release
265.567	n/a	RESPONSE	M1	1	19	G4	press
266.258	n/a	RESPONSE	M1	1	19	G4	release
267.49	7.758	FIXCROSS	n/a	n/a	n/a	n/a	n/a
275.248	6.317	CUE_LISTEN	M1	2	n/a	n/a	n/a
281.565	7.758	FIXCROSS	n/a	n/a	n/a	n/a	n/a
289.323	6.325	CUE_PLAYBACK_RIGHT_HAND	M1	2	n/a	n/a	n/a
290.389	n/a	RESPONSE	M1	2	19	G4	press
290.823	n/a	RESPONSE	M1	2	19	G4	release
290.906	n/a	RESPONSE	M1	2	16	E4	press
291.263	n/a	RESPONSE	M1	2	16	E4	release
291.428	n/a	RESPONSE	M1	2	16	E4	press
291.729	n/a	RESPONSE	M1	2	16	E4	release
291.989	n/a	RESPONSE	M1	2	17	F4	press
292.343	n/a	RESPONSE	M1	2	17	F4	release
292.507	n/a	RESPONSE	M1	2	14	D4	press
292.809	n/a	RESPONSE	M1	2	14	D4	release
293.023	n/a	RESPONSE	M1	2	14	D4	press
293.356	n/a	RESPONSE	M1	2	14	D4	release
293.547	n/a	RESPONSE	M1	2	12	C4	press
293.801	n/a	RESPONSE	M1	2	12	C4	release
293.849	n/a	RESPONSE	M1	2	16	E4	press
294.091	n/a	RESPONSE	M1	2	16	E4	release
294.164	n/a	RESPONSE	M1	2	12	C4	press
295.016	n/a	RESPONSE	M1	2	12	C4	release
295.648	7.758	FIXCROSS	n/a	n/a	n/a	n/a	n/a
303.407	6.317	CUE_LISTEN	M1	1	n/a	n/a	n/a
309.723	7.758	FIXCROSS	n/a	n/a	n/a	n/a	n/a
317.482	6.317	CUE_PLAYBACK_BOTH_HANDS	M1	1	n/a	n/a	n/a
318.954	n/a	RESPONSE	M1	1	19	G4	press
318.957	n/a	RESPONSE	M1	1	07	G3	press
319.307	n/a	RESPONSE	M1	1	07	G3	release
319.479	n/a	RESPONSE	M1	1	04	E3	press
319.503	n/a	RESPONSE	M1	1	16	E4	press
319.739	n/a	RESPONSE	M1	1	19	G4	release
319.867	n/a	RESPONSE	M1	1	16	E4	release
320.021	n/a	RESPONSE	M1	1	16	E4	press
320.373	n/a	RESPONSE	M1	1	16	E4	release
320.387	n/a	RESPONSE	M1	1	04	E3	release
320.519	n/a	RESPONSE	M1	1	05	F3	press
320.532	n/a	RESPONSE	M1	1	17	F4	press
320.796	n/a	RESPONSE	M1	1	05	F3	release
320.874	n/a	RESPONSE	M1	1	17	F4	release
321.043	n/a	RESPONSE	M1	1	02	D3	press
321.054	n/a	RESPONSE	M1	1	14	D4	press
321.379	n/a	RESPONSE	M1	1	14	D4	release
321.543	n/a	RESPONSE	M1	1	14	D4	press
321.793	n/a	RESPONSE	M1	1	02	D3	release
321.81	n/a	RESPONSE	M1	1	14	D4	release
322.041	n/a	RESPONSE	M1	1	00	C3	press
322.062	n/a	RESPONSE	M1	1	12	C4	press
322.324	n/a	RESPONSE	M1	1	12	C4	release
322.363	n/a	RESPONSE	M1	1	04	E3	press
322.487	n/a	RESPONSE	M1	1	14	D4	press
322.508	n/a	RESPONSE	M1	1	00	C3	release
322.709	n/a	RESPONSE	M1	1	04	E3	release
322.714	n/a	RESPONSE	M1	1	14	D4	release
322.979	n/a	RESPONSE	M1	1	19	G4	press
322.99	n/a	RESPONSE	M1	1	07	G3	press
323.763	n/a	RESPONSE	M1	1	07	G3	release
323.798	7.758	FIXCROSS	n/a	n/a	n/a	n/a	n/a
323.874	n/a	RESPONSE	M1	1	19	G4	release
331.557	6.325	CUE_LISTEN	M1	2	n/a	n/a	n/a
337.882	7.758	FIXCROSS	n/a	n/a	n/a	n/a	n/a
345.64	6.317	CUE_PLAYBACK_BOTH_HANDS	M1	2	n/a	n/a	n/a
346.464	n/a	RESPONSE	M1	2	07	G3	press
346.476	n/a	RESPONSE	M1	2	19	G4	press
346.849	n/a	RESPONSE	M1	2	07	G3	release
346.958	n/a	RESPONSE	M1	2	19	G4	release
347.019	n/a	RESPONSE	M1	2	04	E3	press
347.08	n/a	RESPONSE	M1	2	16	E4	press
347.462	n/a	RESPONSE	M1	2	16	E4	release
347.616	n/a	RESPONSE	M1	2	16	E4	press
347.964	n/a	RESPONSE	M1	2	16	E4	release
348.046	n/a	RESPONSE	M1	2	04	E3	release
348.159	n/a	RESPONSE	M1	2	05	F3	press
348.178	n/a	RESPONSE	M1	2	17	F4	press
348.459	n/a	RESPONSE	M1	2	05	F3	release
348.551	n/a	RESPONSE	M1	2	17	F4	release
348.714	n/a	RESPONSE	M1	2	02	D3	press
348.734	n/a	RESPONSE	M1	2	14	D4	press
349.044	n/a	RESPONSE	M1	2	14	D4	release
349.086	n/a	RESPONSE	M1	2	02	D3	release
349.267	n/a	RESPONSE	M1	2	02	D3	press
349.288	n/a	RESPONSE	M1	2	14	D4	press
349.547	n/a	RESPONSE	M1	2	02	D3	release
349.583	n/a	RESPONSE	M1	2	14	D4	release
349.768	n/a	RESPONSE	M1	2	00	C3	press
349.839	n/a	RESPONSE	M1	2	12	C4	press
350.042	n/a	RESPONSE	M1	2	00	C3	release
350.063	n/a	RESPONSE	M1	2	12	C4	release
350.207	n/a	RESPONSE	M1	2	04	E3	press
350.234	n/a	RESPONSE	M1	2	16	E4	press
350.431	n/a	RESPONSE	M1	2	04	E3	release
350.474	n/a	RESPONSE	M1	2	16	E4	release
350.516	n/a	RESPONSE	M1	2	00	C3	press
350.557	n/a	RESPONSE	M1	2	12	C4	press
351.491	n/a	RESPONSE	M1	2	12	C4	release
351.548	n/a	RESPONSE	M1	2	00	C3	release
351.957	7.758	FIXCROSS	n/a	n/a	n/a	n/a	n/a
359.715	6.317	CUE_LISTEN	M1	1	n/a	n/a	n/a
366.032	7.758	FIXCROSS	n/a	n/a	n/a	n/a	n/a
373.79	6.325	CUE_PLAYBACK_RIGHT_HAND	M1	1	n/a	n/a	n/a
374.898	n/a	RESPONSE	M1	1	19	G4	press
375.339	n/a	RESPONSE	M1	1	19	G4	release
375.45	n/a	RESPONSE	M1	1	16	E4	press
375.804	n/a	RESPONSE	M1	1	16	E4	release
375.964	n/a	RESPONSE	M1	1	16	E4	press
376.284	n/a	RESPONSE	M1	1	16	E4	release
376.486	n/a	RESPONSE	M1	1	17	F4	press
376.817	n/a	RESPONSE	M1	1	17	F4	release
377.028	n/a	RESPONSE	M1	1	14	D4	press
377.352	n/a	RESPONSE	M1	1	14	D4	release
377.55	n/a	RESPONSE	M1	1	14	D4	press
377.822	n/a	RESPONSE	M1	1	14	D4	release
378.084	n/a	RESPONSE	M1	1	12	C4	press
378.334	n/a	RESPONSE	M1	1	12	C4	release
378.396	n/a	RESPONSE	M1	1	16	E4	press
378.617	n/a	RESPONSE	M1	1	16	E4	release
378.708	n/a	RESPONSE	M1	1	19	G4	press
379.554	n/a	RESPONSE	M1	1	19	G4	release
380.115	7.758	FIXCROSS	n/a	n/a	n/a	n/a	n/a
387.873	6.317	CUE_LISTEN	M1	2	n/a	n/a	n/a
394.19	7.758	FIXCROSS	n/a	n/a	n/a	n/a	n/a
401.948	6.317	CUE_PLAYBACK_RIGHT_HAND	M1	2	n/a	n/a	n/a
403.069	n/a	RESPONSE	M1	2	19	G4	press
403.623	n/a	RESPONSE	M1	2	16	E4	press
403.974	n/a	RESPONSE	M1	2	16	E4	release
404.113	n/a	RESPONSE	M1	2	19	G4	release
404.154	n/a	RESPONSE	M1	2	16	E4	press
404.456	n/a	RESPONSE	M1	2	16	E4	release
404.678	n/a	RESPONSE	M1	2	17	F4	press
405.029	n/a	RESPONSE	M1	2	17	F4	release
405.22	n/a	RESPONSE	M1	2	14	D4	press
405.494	n/a	RESPONSE	M1	2	14	D4	release
405.753	n/a	RESPONSE	M1	2	14	D4	press
406.064	n/a	RESPONSE	M1	2	14	D4	release
406.306	n/a	RESPONSE	M1	2	12	C4	press
406.577	n/a	RESPONSE	M1	2	12	C4	release
406.599	n/a	RESPONSE	M1	2	16	E4	press
406.842	n/a	RESPONSE	M1	2	16	E4	release
406.94	n/a	RESPONSE	M1	2	12	C4	press
407.733	n/a	RESPONSE	M1	2	12	C4	release
408.265	7.758	FIXCROSS	n/a	n/a	n/a	n/a	n/a
416.023	6.325	CUE_LISTEN	M1	1	n/a	n/a	n/a
422.348	7.758	FIXCROSS	n/a	n/a	n/a	n/a	n/a
430.107	6.317	CUE_PLAYBACK_BOTH_HANDS	M1	1	n/a	n/a	n/a
431.207	n/a	RESPONSE	M1	1	07	G3	press
431.244	n/a	RESPONSE	M1	1	19	G4	press
431.564	n/a	RESPONSE	M1	1	07	G3	release
431.626	n/a	RESPONSE	M1	1	19	G4	release
431.727	n/a	RESPONSE	M1	1	04	E3	press
431.772	n/a	RESPONSE	M1	1	16	E4	press
432.578	n/a	RESPONSE	M1	1	04	E3	release
432.594	n/a	RESPONSE	M1	1	16	E4	release
432.809	n/a	RESPONSE	M1	1	16	E4	press
432.816	n/a	RESPONSE	M1	1	04	E3	press
433.174	n/a	RESPONSE	M1	1	16	E4	release
433.177	n/a	RESPONSE	M1	1	04	E3	release
433.427	n/a	RESPONSE	M1	1	05	F3	press
433.448	n/a	RESPONSE	M1	1	17	F4	press
433.729	n/a	RESPONSE	M1	1	05	F3	release
433.792	n/a	RESPONSE	M1	1	17	F4	release
433.992	n/a	RESPONSE	M1	1	02	D3	press
434.023	n/a	RESPONSE	M1	1	14	D4	press
434.316	n/a	RESPONSE	M1	1	14	D4	release
434.587	n/a	RESPONSE	M1	1	14	D4	press
434.859	n/a	RESPONSE	M1	1	14	D4	release
434.879	n/a	RESPONSE	M1	1	02	D3	release
435.143	n/a	RESPONSE	M1	1	00	C3	press
435.182	n/a	RESPONSE	M1	1	12	C4	press
435.434	n/a	RESPONSE	M1	1	12	C4	release
435.524	n/a	RESPONSE	M1	1	00	C3	release
435.556	n/a	RESPONSE	M1	1	04	E3	press
435.558	n/a	RESPONSE	M1	1	16	E4	press
435.828	n/a	RESPONSE	M1	1	16	E4	release
435.842	n/a	RESPONSE	M1	1	04	E3	release
435.942	n/a	RESPONSE	M1	1	05	F3	press
435.972	n/a	RESPONSE	M1	1	19	G4	press
436.206	n/a	RESPONSE	M1	1	07	G3	press
436.394	n/a	RESPONSE	M1	1	07	G3	release
436.423	7.759	FIXCROSS	n/a	n/a	n/a	n/a	n/a
436.436	n/a	RESPONSE	M1	1	05	F3	release
436.739	n/a	RESPONSE	M1	1	07	G3	press
437.308	n/a	RESPONSE	M1	1	07	G3	release
437.319	n/a	RESPONSE	M1	1	19	G4	release
444.182	6.317	CUE_LISTEN	M1	2	n/a	n/a	n/a
450.498	7.758	FIXCROSS	n/a	n/a	n/a	n/a	n/a
458.257	6.325	CUE_PLAYBACK_BOTH_HANDS	M1	2	n/a	n/a	n/a
459.715	n/a	RESPONSE	M1	2	19	G4	press
459.728	n/a	RESPONSE	M1	2	07	G3	press
460.032	n/a	RESPONSE	M1	2	07	G3	release
460.15	n/a	RESPONSE	M1	2	19	G4	release
460.297	n/a	RESPONSE	M1	2	04	E3	press
460.305	n/a	RESPONSE	M1	2	16	E4	press
460.634	n/a	RESPONSE	M1	2	16	E4	release
460.697	n/a	RESPONSE	M1	2	04	E3	release
460.843	n/a	RESPONSE	M1	2	16	E4	press
460.846	n/a	RESPONSE	M1	2	04	E3	press
461.189	n/a	RESPONSE	M1	2	04	E3	release
461.192	n/a	RESPONSE	M1	2	16	E4	release
461.399	n/a	RESPONSE	M1	2	05	F3	press
461.402	n/a	RESPONSE	M1	2	17	F4	press
461.692	n/a	RESPONSE	M1	2	05	F3	release
461.718	n/a	RESPONSE	M1	2	17	F4	release
461.949	n/a	RESPONSE	M1	2	02	D3	press
461.973	n/a	RESPONSE	M1	2	14	D4	press
462.244	n/a	RESPONSE	M1	2	14	D4	release
462.298	n/a	RESPONSE	M1	2	02	D3	release
462.494	n/a	RESPONSE	M1	2	02	D3	press
462.51	n/a	RESPONSE	M1	2	14	D4	press
462.774	n/a	RESPONSE	M1	2	02	D3	release
462.788	n/a	RESPONSE	M1	2	14	D4	release
462.978	n/a	RESPONSE	M1	2	00	C3	press
463.028	n/a	RESPONSE	M1	2	12	C4	press
463.259	n/a	RESPONSE	M1	2	12	C4	release
463.319	n/a	RESPONSE	M1	2	04	E3	press
463.33	n/a	RESPONSE	M1	2	16	E4	press
463.482	n/a	RESPONSE	M1	2	00	C3	release
463.563	n/a	RESPONSE	M1	2	04	E3	release
463.574	n/a	RESPONSE	M1	2	16	E4	release
463.637	n/a	RESPONSE	M1	2	00	C3	press
463.657	n/a	RESPONSE	M1	2	12	C4	press
464.582	7.758	FIXCROSS	n/a	n/a	n/a	n/a	n/a
464.589	n/a	RESPONSE	M1	2	12	C4	release
464.6	n/a	RESPONSE	M1	2	00	C3	release
472.34	6.317	CUE_LISTEN	M1	1	n/a	n/a	n/a
478.657	7.758	FIXCROSS	n/a	n/a	n/a	n/a	n/a
486.415	6.317	CUE_PLAYBACK_RIGHT_HAND	M1	1	n/a	n/a	n/a
487.455	n/a	RESPONSE	M1	1	19	G4	press
487.907	n/a	RESPONSE	M1	1	19	G4	release
488.118	n/a	RESPONSE	M1	1	19	G4	press
488.549	n/a	RESPONSE	M1	1	19	G4	release
488.683	n/a	RESPONSE	M1	1	16	E4	press
489.022	n/a	RESPONSE	M1	1	16	E4	release
489.185	n/a	RESPONSE	M1	1	16	E4	press
489.468	n/a	RESPONSE	M1	1	16	E4	release
489.693	n/a	RESPONSE	M1	1	17	F4	press
490.024	n/a	RESPONSE	M1	1	17	F4	release
490.219	n/a	RESPONSE	M1	1	14	D4	press
490.507	n/a	RESPONSE	M1	1	14	D4	release
490.708	n/a	RESPONSE	M1	1	14	D4	press
490.974	n/a	RESPONSE	M1	1	14	D4	release
491.195	n/a	RESPONSE	M1	1	12	C4	press
491.437	n/a	RESPONSE	M1	1	12	C4	release
491.47	n/a	RESPONSE	M1	1	16	E4	press
491.672	n/a	RESPONSE	M1	1	16	E4	release
491.769	n/a	RESPONSE	M1	1	19	G4	press
492.629	n/a	RESPONSE	M1	1	19	G4	release
492.732	7.758	FIXCROSS	n/a	n/a	n/a	n/a	n/a
500.49	6.325	CUE_LISTEN	M1	2	n/a	n/a	n/a
506.815	7.758	FIXCROSS	n/a	n/a	n/a	n/a	n/a
514.573	6.317	CUE_PLAYBACK_RIGHT_HAND	M1	2	n/a	n/a	n/a
515.237	n/a	RESPONSE	M1	2	19	G4	press
515.668	n/a	RESPONSE	M1	2	19	G4	release
515.769	n/a	RESPONSE	M1	2	16	E4	press
516.14	n/a	RESPONSE	M1	2	16	E4	release
516.272	n/a	RESPONSE	M1	2	16	E4	press
516.553	n/a	RESPONSE	M1	2	16	E4	release
516.805	n/a	RESPONSE	M1	2	17	F4	press
517.067	n/a	RESPONSE	M1	2	17	F4	release
517.308	n/a	RESPONSE	M1	2	14	D4	press
517.58	n/a	RESPONSE	M1	2	14	D4	release
517.809	n/a	RESPONSE	M1	2	14	D4	press
518.06	n/a	RESPONSE	M1	2	14	D4	release
518.272	n/a	RESPONSE	M1	2	12	C4	press
518.533	n/a	RESPONSE	M1	2	12	C4	release
518.737	n/a	RESPONSE	M1	2	16	E4	press
519.015	n/a	RESPONSE	M1	2	16	E4	release
519.198	n/a	RESPONSE	M1	2	12	C4	press
520.218	n/a	RESPONSE	M1	2	12	C4	release
520.89	7.758	FIXCROSS	n/a	n/a	n/a	n/a	n/a
528.648	6.317	CUE_LISTEN	M1	1	n/a	n/a	n/a
534.965	7.759	FIXCROSS	n/a	n/a	n/a	n/a	n/a
542.724	6.325	CUE_PLAYBACK_BOTH_HANDS	M1	1	n/a	n/a	n/a
543.693	n/a	RESPONSE	M1	1	07	G3	press
543.727	n/a	RESPONSE	M1	1	19	G4	press
544.025	n/a	RESPONSE	M1	1	07	G3	release
544.097	n/a	RESPONSE	M1	1	19	G4	release
544.189	n/a	RESPONSE	M1	1	04	E3	press
544.229	n/a	RESPONSE	M1	1	16	E4	press
544.53	n/a	RESPONSE	M1	1	16	E4	release
544.734	n/a	RESPONSE	M1	1	16	E4	press
545.047	n/a	RESPONSE	M1	1	16	E4	release
545.108	n/a	RESPONSE	M1	1	04	E3	release
545.237	n/a	RESPONSE	M1	1	05	F3	press
545.239	n/a	RESPONSE	M1	1	17	F4	press
545.519	n/a	RESPONSE	M1	1	05	F3	release
545.622	n/a	RESPONSE	M1	1	17	F4	release
545.713	n/a	RESPONSE	M1	1	02	D3	press
545.753	n/a	RESPONSE	M1	1	14	D4	press
546.004	n/a	RESPONSE	M1	1	14	D4	release
546.047	n/a	RESPONSE	M1	1	02	D3	release
546.227	n/a	RESPONSE	M1	1	02	D3	press
546.248	n/a	RESPONSE	M1	1	14	D4	press
546.469	n/a	RESPONSE	M1	1	02	D3	release
546.51	n/a	RESPONSE	M1	1	14	D4	release
546.672	n/a	RESPONSE	M1	1	00	C3	press
546.713	n/a	RESPONSE	M1	1	12	C4	press
546.964	n/a	RESPONSE	M1	1	12	C4	release
547.005	n/a	RESPONSE	M1	1	04	E3	press
547.037	n/a	RESPONSE	M1	1	16	E4	press
547.128	n/a	RESPONSE	M1	1	00	C3	release
547.299	n/a	RESPONSE	M1	1	04	E3	release
547.302	n/a	RESPONSE	M1	1	16	E4	release
547.382	n/a	RESPONSE	M1	1	19	G4	press
547.413	n/a	RESPONSE	M1	1	07	G3	press
548.204	n/a	RESPONSE	M1	1	19	G4	release
548.215	n/a	RESPONSE	M1	1	07	G3	release
549.048	7.758	FIXCROSS	n/a	n/a	n/a	n/a	n/a
556.807	6.317	CUE_LISTEN	M1	2	n/a	n/a	n/a
563.124	7.758	FIXCROSS	n/a	n/a	n/a	n/a	n/a
570.882	6.325	CUE_PLAYBACK_BOTH_HANDS	M1	2	n/a	n/a	n/a
572.9	n/a	RESPONSE	M1	2	07	G3	press
572.947	n/a	RESPONSE	M1	2	19	G4	press
573.224	n/a	RESPONSE	M1	2	07	G3	release
573.295	n/a	RESPONSE	M1	2	19	G4	release
573.417	n/a	RESPONSE	M1	2	04	E3	press
573.448	n/a	RESPONSE	M1	2	16	E4	press
573.789	n/a	RESPONSE	M1	2	16	E4	release
573.792	n/a	RESPONSE	M1	2	04	E3	release
573.942	n/a	RESPONSE	M1	2	16	E4	press
573.963	n/a	RESPONSE	M1	2	04	E3	press
574.264	n/a	RESPONSE	M1	2	16	E4	release
574.288	n/a	RESPONSE	M1	2	04	E3	release
574.448	n/a	RESPONSE	M1	2	05	F3	press
574.458	n/a	RESPONSE	M1	2	17	F4	press
574.71	n/a	RESPONSE	M1	2	05	F3	release
574.762	n/a	RESPONSE	M1	2	17	F4	release
574.955	n/a	RESPONSE	M1	2	02	D3	press
574.974	n/a	RESPONSE	M1	2	14	D4	press
575.265	n/a	RESPONSE	M1	2	14	D4	release
575.497	n/a	RESPONSE	M1	2	14	D4	press
575.758	n/a	RESPONSE	M1	2	14	D4	release
575.76	n/a	RESPONSE	M1	2	02	D3	release
575.97	n/a	RESPONSE	M1	2	00	C3	press
576.023	n/a	RESPONSE	M1	2	12	C4	press
576.303	n/a	RESPONSE	M1	2	12	C4	release
576.424	n/a	RESPONSE	M1	2	04	E3	press
576.428	n/a	RESPONSE	M1	2	00	C3	release
576.519	n/a	RESPONSE	M1	2	16	E4	press
576.758	n/a	RESPONSE	M1	2	04	E3	release
576.79	n/a	RESPONSE	M1	2	16	E4	release
576.91	n/a	RESPONSE	M1	2	00	C3	press
576.942	n/a	RESPONSE	M1	2	12	C4	press
577.207	7.758	FIXCROSS	n/a	n/a	n/a	n/a	n/a
577.893	n/a	RESPONSE	M1	2	12	C4	release
577.984	n/a	RESPONSE	M1	2	00	C3	release
584.965	6.317	CUE_LISTEN	M1	1	n/a	n/a	n/a
591.282	7.758	FIXCROSS	n/a	n/a	n/a	n/a	n/a
599.04	6.317	CUE_PLAYBACK_RIGHT_HAND	M1	1	n/a	n/a	n/a
600.169	n/a	RESPONSE	M1	1	19	G4	press
600.702	n/a	RESPONSE	M1	1	16	E4	press
600.88	n/a	RESPONSE	M1	1	19	G4	release
600.998	n/a	RESPONSE	M1	1	16	E4	release
601.202	n/a	RESPONSE	M1	1	16	E4	press
601.508	n/a	RESPONSE	M1	1	16	E4	release
601.774	n/a	RESPONSE	M1	1	17	F4	press
602.095	n/a	RESPONSE	M1	1	17	F4	release
602.31	n/a	RESPONSE	M1	1	14	D4	press
602.595	n/a	RESPONSE	M1	1	14	D4	release
602.808	n/a	RESPONSE	M1	1	14	D4	press
603.088	n/a	RESPONSE	M1	1	14	D4	release
603.309	n/a	RESPONSE	M1	1	12	C4	press
603.55	n/a	RESPONSE	M1	1	12	C4	release
603.602	n/a	RESPONSE	M1	1	16	E4	press
603.823	n/a	RESPONSE	M1	1	16	E4	release
603.894	n/a	RESPONSE	M1	1	19	G4	press
604.736	n/a	RESPONSE	M1	1	19	G4	release
605.357	7.758	FIXCROSS	n/a	n/a	n/a	n/a	n/a
613.115	6.325	CUE_LISTEN	M1	2	n/a	n/a	n/a
619.44	7.758	FIXCROSS	n/a	n/a	n/a	n/a	n/a
627.199	6.317	CUE_PLAYBACK_RIGHT_HAND	M1	2	n/a	n/a	n/a
627.936	n/a	RESPONSE	M1	2	19	G4	press
628.385	n/a	RESPONSE	M1	2	19	G4	release
628.466	n/a	RESPONSE	M1	2	16	E4	press
628.778	n/a	RESPONSE	M1	2	16	E4	release
628.969	n/a	RESPONSE	M1	2	16	E4	press
629.26	n/a	RESPONSE	M1	2	16	E4	release
629.458	n/a	RESPONSE	M1	2	17	F4	press
629.808	n/a	RESPONSE	M1	2	17	F4	release
629.988	n/a	RESPONSE	M1	2	14	D4	press
630.272	n/a	RESPONSE	M1	2	14	D4	release
630.489	n/a	RESPONSE	M1	2	14	D4	press
630.764	n/a	RESPONSE	M1	2	14	D4	release
631.075	n/a	RESPONSE	M1	2	12	C4	press
631.345	n/a	RESPONSE	M1	2	16	E4	press
631.355	n/a	RESPONSE	M1	2	12	C4	release
631.608	n/a	RESPONSE	M1	2	16	E4	release
631.679	n/a	RESPONSE	M1	2	12	C4	press
632.597	n/a	RESPONSE	M1	2	12	C4	release
633.515	7.758	FIXCROSS	n/a	n/a	n/a	n/a	n/a
641.274	6.317	CUE_LISTEN	M1	1	n/a	n/a	n/a
647.59	7.758	FIXCROSS	n/a	n/a	n/a	n/a	n/a
655.349	6.325	CUE_PLAYBACK_BOTH_HANDS	M1	1	n/a	n/a	n/a
656.51	n/a	RESPONSE	M1	1	07	G3	press
656.542	n/a	RESPONSE	M1	1	19	G4	press
656.845	n/a	RESPONSE	M1	1	07	G3	release
656.904	n/a	RESPONSE	M1	1	19	G4	release
657.035	n/a	RESPONSE	M1	1	04	E3	press
657.046	n/a	RESPONSE	M1	1	16	E4	press
657.368	n/a	RESPONSE	M1	1	16	E4	release
657.429	n/a	RESPONSE	M1	1	04	E3	release
657.553	n/a	RESPONSE	M1	1	04	E3	press
657.562	n/a	RESPONSE	M1	1	16	E4	press
657.863	n/a	RESPONSE	M1	1	16	E4	release
657.894	n/a	RESPONSE	M1	1	04	E3	release
658.035	n/a	RESPONSE	M1	1	05	F3	press
658.056	n/a	RESPONSE	M1	1	17	F4	press
658.328	n/a	RESPONSE	M1	1	05	F3	release
658.409	n/a	RESPONSE	M1	1	17	F4	release
658.54	n/a	RESPONSE	M1	1	02	D3	press
658.562	n/a	RESPONSE	M1	1	14	D4	press
658.873	n/a	RESPONSE	M1	1	02	D3	release
658.876	n/a	RESPONSE	M1	1	14	D4	release
659.055	n/a	RESPONSE	M1	1	02	D3	press
659.066	n/a	RESPONSE	M1	1	14	D4	press
659.308	n/a	RESPONSE	M1	1	02	D3	release
659.349	n/a	RESPONSE	M1	1	14	D4	release
659.506	n/a	RESPONSE	M1	1	00	C3	press
659.535	n/a	RESPONSE	M1	1	12	C4	press
659.783	n/a	RESPONSE	M1	1	12	C4	release
659.822	n/a	RESPONSE	M1	1	04	E3	press
659.89	n/a	RESPONSE	M1	1	16	E4	press
659.936	n/a	RESPONSE	M1	1	00	C3	release
660.148	n/a	RESPONSE	M1	1	16	E4	release
660.234	n/a	RESPONSE	M1	1	07	G3	press
660.303	n/a	RESPONSE	M1	1	19	G4	press
660.975	n/a	RESPONSE	M1	1	04	E3	release
661.018	n/a	RESPONSE	M1	1	19	G4	release
661.062	n/a	RESPONSE	M1	1	07	G3	release
661.674	7.758	FIXCROSS	n/a	n/a	n/a	n/a	n/a
669.432	6.317	CUE_LISTEN	M1	2	n/a	n/a	n/a
675.749	7.758	FIXCROSS	n/a	n/a	n/a	n/a	n/a
683.507	6.317	CUE_PLAYBACK_BOTH_HANDS	M1	2	n/a	n/a	n/a
684.613	n/a	RESPONSE	M1	2	19	G4	press
684.623	n/a	RESPONSE	M1	2	07	G3	press
684.946	n/a	RESPONSE	M1	2	07	G3	release
684.965	n/a	RESPONSE	M1	2	19	G4	release
685.096	n/a	RESPONSE	M1	2	04	E3	press
685.119	n/a	RESPONSE	M1	2	16	E4	press
685.439	n/a	RESPONSE	M1	2	16	E4	release
685.453	n/a	RESPONSE	M1	2	04	E3	release
685.604	n/a	RESPONSE	M1	2	16	E4	press
685.623	n/a	RESPONSE	M1	2	04	E3	press
685.895	n/a	RESPONSE	M1	2	16	E4	release
685.945	n/a	RESPONSE	M1	2	04	E3	release
686.106	n/a	RESPONSE	M1	2	05	F3	press
686.109	n/a	RESPONSE	M1	2	17	F4	press
686.389	n/a	RESPONSE	M1	2	05	F3	release
686.45	n/a	RESPONSE	M1	2	17	F4	release
686.602	n/a	RESPONSE	M1	2	02	D3	press
686.625	n/a	RESPONSE	M1	2	14	D4	press
686.934	n/a	RESPONSE	M1	2	14	D4	release
686.945	n/a	RESPONSE	M1	2	02	D3	release
687.108	n/a	RESPONSE	M1	2	02	D3	press
687.128	n/a	RESPONSE	M1	2	14	D4	press
687.399	n/a	RESPONSE	M1	2	02	D3	release
687.41	n/a	RESPONSE	M1	2	14	D4	release
687.573	n/a	RESPONSE	M1	2	00	C3	press
687.663	n/a	RESPONSE	M1	2	12	C4	press
687.864	n/a	RESPONSE	M1	2	00	C3	release
687.895	n/a	RESPONSE	M1	2	12	C4	release
687.939	n/a	RESPONSE	M1	2	04	E3	press
687.968	n/a	RESPONSE	M1	2	16	E4	press
688.199	n/a	RESPONSE	M1	2	04	E3	release
688.203	n/a	RESPONSE	M1	2	00	C3	press
688.243	n/a	RESPONSE	M1	2	12	C4	press
688.253	n/a	RESPONSE	M1	2	16	E4	release
689.084	n/a	RESPONSE	M1	2	12	C4	release
689.155	n/a	RESPONSE	M1	2	00	C3	release
689.824	7.758	FIXCROSS	n/a	n/a	n/a	n/a	n/a
697.582	6.325	CUE_LISTEN	M1	1	n/a	n/a	n/a
703.907	7.758	FIXCROSS	n/a	n/a	n/a	n/a	n/a
711.665	6.317	CUE_PLAYBACK_RIGHT_HAND	M1	1	n/a	n/a	n/a
712.852	n/a	RESPONSE	M1	1	19	G4	press
713.213	n/a	RESPONSE	M1	1	19	G4	release
713.374	n/a	RESPONSE	M1	1	16	E4	press
713.696	n/a	RESPONSE	M1	1	16	E4	release
713.886	n/a	RESPONSE	M1	1	16	E4	press
714.208	n/a	RESPONSE	M1	1	16	E4	release
714.399	n/a	RESPONSE	M1	1	17	F4	press
714.762	n/a	RESPONSE	M1	1	17	F4	release
714.923	n/a	RESPONSE	M1	1	14	D4	press
715.224	n/a	RESPONSE	M1	1	14	D4	release
715.425	n/a	RESPONSE	M1	1	14	D4	press
715.706	n/a	RESPONSE	M1	1	14	D4	release
715.888	n/a	RESPONSE	M1	1	12	C4	press
716.159	n/a	RESPONSE	M1	1	12	C4	release
716.182	n/a	RESPONSE	M1	1	16	E4	press
716.412	n/a	RESPONSE	M1	1	16	E4	release
716.455	n/a	RESPONSE	M1	1	19	G4	press
717.415	n/a	RESPONSE	M1	1	19	G4	release
717.982	7.759	FIXCROSS	n/a	n/a	n/a	n/a	n/a
725.74	6.317	CUE_LISTEN	M1	2	n/a	n/a	n/a
732.057	7.758	FIXCROSS	n/a	n/a	n/a	n/a	n/a
739.816	6.325	CUE_PLAYBACK_RIGHT_HAND	M1	2	n/a	n/a	n/a
741.076	n/a	RESPONSE	M1	2	19	G4	press
741.416	n/a	RESPONSE	M1	2	19	G4	release
741.571	n/a	RESPONSE	M1	2	16	E4	press
741.878	n/a	RESPONSE	M1	2	16	E4	release
742.07	n/a	RESPONSE	M1	2	16	E4	press
742.389	n/a	RESPONSE	M1	2	16	E4	release
742.604	n/a	RESPONSE	M1	2	17	F4	press
742.914	n/a	RESPONSE	M1	2	17	F4	release
743.119	n/a	RESPONSE	M1	2	14	D4	press
743.409	n/a	RESPONSE	M1	2	14	D4	release
743.63	n/a	RESPONSE	M1	2	14	D4	press
743.903	n/a	RESPONSE	M1	2	14	D4	release
744.143	n/a	RESPONSE	M1	2	12	C4	press
744.404	n/a	RESPONSE	M1	2	12	C4	release
744.436	n/a	RESPONSE	M1	2	16	E4	press
744.648	n/a	RESPONSE	M1	2	16	E4	release
744.699	n/a	RESPONSE	M1	2	12	C4	press
745.41	n/a	RESPONSE	M1	2	12	C4	release
746.14	7.758	FIXCROSS	n/a	n/a	n/a	n/a	n/a
753.899	6.317	CUE_LISTEN	M1	1	n/a	n/a	n/a
760.216	7.758	FIXCROSS	n/a	n/a	n/a	n/a	n/a
767.974	6.325	CUE_PLAYBACK_BOTH_HANDS	M1	1	n/a	n/a	n/a
769.164	n/a	RESPONSE	M1	1	07	G3	press
769.175	n/a	RESPONSE	M1	1	19	G4	press
769.494	n/a	RESPONSE	M1	1	07	G3	release
769.528	n/a	RESPONSE	M1	1	19	G4	release
769.689	n/a	RESPONSE	M1	1	04	E3	press
769.738	n/a	RESPONSE	M1	1	16	E4	press
770.104	n/a	RESPONSE	M1	1	04	E3	release
770.108	n/a	RESPONSE	M1	1	16	E4	release
770.283	n/a	RESPONSE	M1	1	16	E4	press
770.289	n/a	RESPONSE	M1	1	04	E3	press
770.619	n/a	RESPONSE	M1	1	16	E4	release
770.651	n/a	RESPONSE	M1	1	04	E3	release
770.813	n/a	RESPONSE	M1	1	05	F3	press
770.826	n/a	RESPONSE	M1	1	17	F4	press
771.124	n/a	RESPONSE	M1	1	05	F3	release
771.149	n/a	RESPONSE	M1	1	17	F4	release
771.364	n/a	RESPONSE	M1	1	02	D3	press
771.389	n/a	RESPONSE	M1	1	14	D4	press
771.71	n/a	RESPONSE	M1	1	14	D4	release
771.823	n/a	RESPONSE	M1	1	02	D3	release
771.928	n/a	RESPONSE	M1	1	02	D3	press
771.944	n/a	RESPONSE	M1	1	14	D4	press
772.214	n/a	RESPONSE	M1	1	14	D4	release
772.216	n/a	RESPONSE	M1	1	02	D3	release
772.443	n/a	RESPONSE	M1	1	00	C3	press
772.476	n/a	RESPONSE	M1	1	12	C4	press
772.729	n/a	RESPONSE	M1	1	00	C3	release
772.74	n/a	RESPONSE	M1	1	12	C4	release
772.955	n/a	RESPONSE	M1	1	04	E3	press
773.009	n/a	RESPONSE	M1	1	16	E4	press
773.343	n/a	RESPONSE	M1	1	16	E4	release
773.366	n/a	RESPONSE	M1	1	04	E3	release
773.568	n/a	RESPONSE	M1	1	05	F3	press
773.589	n/a	RESPONSE	M1	1	19	G4	press
774.299	7.758	FIXCROSS	n/a	n/a	n/a	n/a	n/a
774.308	n/a	RESPONSE	M1	1	05	F3	release
774.551	n/a	RESPONSE	M1	1	19	G4	release
782.057	6.317	CUE_LISTEN	M1	2	n/a	n/a	n/a
788.374	7.758	FIXCROSS	n/a	n/a	n/a	n/a	n/a
796.132	6.317	CUE_PLAYBACK_BOTH_HANDS	M1	2	n/a	n/a	n/a
796.989	n/a	RESPONSE	M1	2	19	G4	press
797.0	n/a	RESPONSE	M1	2	07	G3	press
797.311	n/a	RESPONSE	M1	2	07	G3	release
797.345	n/a	RESPONSE	M1	2	19	G4	release
797.494	n/a	RESPONSE	M1	2	04	E3	press
797.556	n/a	RESPONSE	M1	2	16	E4	press
797.876	n/a	RESPONSE	M1	2	16	E4	release
797.898	n/a	RESPONSE	M1	2	04	E3	release
798.049	n/a	RESPONSE	M1	2	16	E4	press
798.07	n/a	RESPONSE	M1	2	04	E3	press
798.331	n/a	RESPONSE	M1	2	16	E4	release
798.403	n/a	RESPONSE	M1	2	04	E3	release
798.544	n/a	RESPONSE	M1	2	05	F3	press
798.546	n/a	RESPONSE	M1	2	17	F4	press
798.809	n/a	RESPONSE	M1	2	05	F3	release
798.858	n/a	RESPONSE	M1	2	17	F4	release
799.039	n/a	RESPONSE	M1	2	02	D3	press
799.06	n/a	RESPONSE	M1	2	14	D4	press
799.361	n/a	RESPONSE	M1	2	14	D4	release
799.405	n/a	RESPONSE	M1	2	02	D3	release
799.561	n/a	RESPONSE	M1	2	02	D3	press
799.575	n/a	RESPONSE	M1	2	14	D4	press
799.821	n/a	RESPONSE	M1	2	02	D3	release
799.845	n/a	RESPONSE	M1	2	14	D4	release
799.995	n/a	RESPONSE	M1	2	00	C3	press
800.018	n/a	RESPONSE	M1	2	12	C4	press
800.3	n/a	RESPONSE	M1	2	12	C4	release
800.365	n/a	RESPONSE	M1	2	04	E3	press
800.375	n/a	RESPONSE	M1	2	16	E4	press
800.513	n/a	RESPONSE	M1	2	00	C3	release
800.589	n/a	RESPONSE	M1	2	04	E3	release
800.661	n/a	RESPONSE	M1	2	16	E4	release
800.784	n/a	RESPONSE	M1	2	00	C3	press
800.799	n/a	RESPONSE	M1	2	12	C4	press
801.625	n/a	RESPONSE	M1	2	12	C4	release
801.726	n/a	RESPONSE	M1	2	00	C3	release
802.449	7.759	FIXCROSS	n/a	n/a	n/a	n/a	n/a
810.207	6.325	CUE_LISTEN	M1	1	n/a	n/a	n/a
816.532	7.758	FIXCROSS	n/a	n/a	n/a	n/a	n/a
824.291	6.317	CUE_PLAYBACK_RIGHT_HAND	M1	1	n/a	n/a	n/a
824.97	n/a	RESPONSE	M1	1	19	G4	press
825.351	n/a	RESPONSE	M1	1	19	G4	release
825.514	n/a	RESPONSE	M1	1	16	E4	press
825.896	n/a	RESPONSE	M1	1	16	E4	release
826.055	n/a	RESPONSE	M1	1	16	E4	press
826.366	n/a	RESPONSE	M1	1	16	E4	release
826.568	n/a	RESPONSE	M1	1	17	F4	press
826.889	n/a	RESPONSE	M1	1	17	F4	release
827.08	n/a	RESPONSE	M1	1	14	D4	press
827.371	n/a	RESPONSE	M1	1	14	D4	release
827.593	n/a	RESPONSE	M1	1	14	D4	press
827.856	n/a	RESPONSE	M1	1	14	D4	release
828.085	n/a	RESPONSE	M1	1	12	C4	press
828.346	n/a	RESPONSE	M1	1	12	C4	release
828.378	n/a	RESPONSE	M1	1	16	E4	press
828.639	n/a	RESPONSE	M1	1	16	E4	release
828.75	n/a	RESPONSE	M1	1	19	G4	press
829.484	n/a	RESPONSE	M1	1	19	G4	release
830.607	7.758	FIXCROSS	n/a	n/a	n/a	n/a	n/a
838.366	6.317	CUE_LISTEN	M1	2	n/a	n/a	n/a
844.682	7.758	FIXCROSS	n/a	n/a	n/a	n/a	n/a
852.441	6.325	CUE_PLAYBACK_RIGHT_HAND	M1	2	n/a	n/a	n/a
853.731	n/a	RESPONSE	M1	2	19	G4	press
854.063	n/a	RESPONSE	M1	2	19	G4	release
854.244	n/a	RESPONSE	M1	2	16	E4	press
854.558	n/a	RESPONSE	M1	2	16	E4	release
854.728	n/a	RESPONSE	M1	2	16	E4	press
855.029	n/a	RESPONSE	M1	2	16	E4	release
855.25	n/a	RESPONSE	M1	2	17	F4	press
855.573	n/a	RESPONSE	M1	2	17	F4	release
855.753	n/a	RESPONSE	M1	2	14	D4	press
856.074	n/a	RESPONSE	M1	2	14	D4	release
856.245	n/a	RESPONSE	M1	2	14	D4	press
856.526	n/a	RESPONSE	M1	2	14	D4	release
856.708	n/a	RESPONSE	M1	2	12	C4	press
856.991	n/a	RESPONSE	M1	2	16	E4	press
857.0	n/a	RESPONSE	M1	2	12	C4	release
857.414	n/a	RESPONSE	M1	2	16	E4	release
857.453	n/a	RESPONSE	M1	2	12	C4	press
858.274	n/a	RESPONSE	M1	2	12	C4	release
858.766	7.758	FIXCROSS	n/a	n/a	n/a	n/a	n/a
866.524	6.317	CUE_LISTEN	M1	1	n/a	n/a	n/a
872.841	7.758	FIXCROSS	n/a	n/a	n/a	n/a	n/a
880.599	6.317	CUE_PLAYBACK_BOTH_HANDS	M1	1	n/a	n/a	n/a
881.609	n/a	RESPONSE	M1	1	07	G3	press
881.64	n/a	RESPONSE	M1	1	19	G4	press
881.696	n/a	RESPONSE	M1	1	17	F4	press
881.976	n/a	RESPONSE	M1	1	17	F4	release
881.999	n/a	RESPONSE	M1	1	07	G3	release
882.096	n/a	RESPONSE	M1	1	19	G4	release
882.621	n/a	RESPONSE	M1	1	07	G3	press
882.674	n/a	RESPONSE	M1	1	19	G4	press
882.99	n/a	RESPONSE	M1	1	07	G3	release
883.023	n/a	RESPONSE	M1	1	19	G4	release
883.126	n/a	RESPONSE	M1	1	04	E3	press
883.188	n/a	RESPONSE	M1	1	16	E4	press
883.519	n/a	RESPONSE	M1	1	04	E3	release
883.54	n/a	RESPONSE	M1	1	16	E4	release
883.681	n/a	RESPONSE	M1	1	16	E4	press
883.713	n/a	RESPONSE	M1	1	04	E3	press
883.994	n/a	RESPONSE	M1	1	16	E4	release
884.005	n/a	RESPONSE	M1	1	04	E3	release
884.169	n/a	RESPONSE	M1	1	05	F3	press
884.178	n/a	RESPONSE	M1	1	17	F4	press
884.459	n/a	RESPONSE	M1	1	05	F3	release
884.49	n/a	RESPONSE	M1	1	17	F4	release
884.645	n/a	RESPONSE	M1	1	02	D3	press
884.684	n/a	RESPONSE	M1	1	14	D4	press
884.956	n/a	RESPONSE	M1	1	14	D4	release
885.008	n/a	RESPONSE	M1	1	02	D3	release
885.188	n/a	RESPONSE	M1	1	14	D4	press
885.199	n/a	RESPONSE	M1	1	02	D3	press
885.403	n/a	RESPONSE	M1	1	02	D3	release
885.443	n/a	RESPONSE	M1	1	14	D4	release
885.643	n/a	RESPONSE	M1	1	00	C3	press
885.684	n/a	RESPONSE	M1	1	12	C4	press
885.965	n/a	RESPONSE	M1	1	12	C4	release
885.986	n/a	RESPONSE	M1	1	04	E3	press
886.02	n/a	RESPONSE	M1	1	16	E4	press
886.249	n/a	RESPONSE	M1	1	00	C3	release
886.251	n/a	RESPONSE	M1	1	04	E3	release
886.261	n/a	RESPONSE	M1	1	16	E4	release
886.443	n/a	RESPONSE	M1	1	07	G3	press
886.484	n/a	RESPONSE	M1	1	19	G4	press
886.916	7.758	FIXCROSS	n/a	n/a	n/a	n/a	n/a
887.245	n/a	RESPONSE	M1	1	19	G4	release
887.296	n/a	RESPONSE	M1	1	07	G3	release
894.674	6.325	CUE_LISTEN	M1	2	n/a	n/a	n/a
900.999	7.758	FIXCROSS	n/a	n/a	n/a	n/a	n/a
908.757	122.235	CUE_PLAYBACK_BOTH_HANDS	M1	2	n/a	n/a	n/a
910.406	n/a	RESPONSE	M1	2	07	G3	press
910.444	n/a	RESPONSE	M1	2	19	G4	press
910.726	n/a	RESPONSE	M1	2	07	G3	release
910.789	n/a	RESPONSE	M1	2	19	G4	release
910.911	n/a	RESPONSE	M1	2	04	E3	press
910.945	n/a	RESPONSE	M1	2	16	E4	press
911.286	n/a	RESPONSE	M1	2	16	E4	release
911.303	n/a	RESPONSE	M1	2	04	E3	release
911.425	n/a	RESPONSE	M1	2	16	E4	press
911.46	n/a	RESPONSE	M1	2	04	E3	press
911.76	n/a	RESPONSE	M1	2	04	E3	release
911.762	n/a	RESPONSE	M1	2	16	E4	release
911.924	n/a	RESPONSE	M1	2	05	F3	press
911.944	n/a	RESPONSE	M1	2	17	F4	press
912.199	n/a	RESPONSE	M1	2	05	F3	release
912.245	n/a	RESPONSE	M1	2	17	F4	release
912.429	n/a	RESPONSE	M1	2	14	D4	press
912.451	n/a	RESPONSE	M1	2	02	D3	press
912.74	n/a	RESPONSE	M1	2	14	D4	release
912.769	n/a	RESPONSE	M1	2	02	D3	release
912.935	n/a	RESPONSE	M1	2	02	D3	press
912.958	n/a	RESPONSE	M1	2	14	D4	press
913.24	n/a	RESPONSE	M1	2	02	D3	release
913.254	n/a	FIXCROSS	n/a	n/a	n/a	n/a	n/a
913.261	n/a	RESPONSE	M1	2	14	D4	release
913.463	n/a	RESPONSE	M1	2	00	C3	press
913.495	n/a	RESPONSE	M1	2	12	C4	press
913.775	n/a	RESPONSE	M1	2	12	C4	release
913.857	n/a	RESPONSE	M1	2	04	E3	press
913.868	n/a	RESPONSE	M1	2	16	E4	press
914.1	n/a	RESPONSE	M1	2	04	E3	release
914.16	n/a	RESPONSE	M1	2	16	E4	release
914.311	n/a	RESPONSE	M1	2	12	C4	press
915.124	n/a	RESPONSE	M1	2	12	C4	release
915.265	n/a	RESPONSE	M1	2	00	C3	release
973.388	n/a	RESPONSE	M1	2	07	G3	press
973.47	n/a	RESPONSE	M1	2	17	F4	press
973.561	n/a	RESPONSE	M1	2	07	G3	release
973.701	n/a	RESPONSE	M1	2	17	F4	release
