onset	duration	trial_type	trial_number	stroop_condition	stim_text(PL)	stim_text(eng)	stim_color(PL)	stim_color(eng)	response_type	response_color
0.0	n/a	RESPONSE	n/a	n/a	n/a	n/a	n/a	n/a	n/a	n/a
0.0582	1.0334	ITI	n/a	n/a	n/a	n/a	n/a	n/a	n/a	n/a
1.0916	0.5167	FIXCROSS	n/a	n/a	n/a	n/a	n/a	n/a	n/a	n/a
1.6083	1.0333	T_INK	1	Neutral	xxxxxxxxx	xxxxxxxxx	żółty	yellow	hit	n/a
2.618	n/a	RESPONSE	n/a	n/a	n/a	n/a	n/a	n/a	n/a	yellow
2.6416	0.5167	FEEDBACK	n/a	n/a	n/a	n/a	n/a	n/a	n/a	n/a
3.1583	1.0167	ITI	n/a	n/a	n/a	n/a	n/a	n/a	n/a	n/a
4.175	0.5166	FIXCROSS	n/a	n/a	n/a	n/a	n/a	n/a	n/a	n/a
4.6916	0.8501	T_INK	2	Neutral	xxxxxxxxx	xxxxxxxxx	czerwony	red	hit	n/a
5.5073	n/a	RESPONSE	n/a	n/a	n/a	n/a	n/a	n/a	n/a	red
5.5416	0.5166	FEEDBACK	n/a	n/a	n/a	n/a	n/a	n/a	n/a	n/a
6.0583	1.0167	ITI	n/a	n/a	n/a	n/a	n/a	n/a	n/a	n/a
7.075	0.5166	FIXCROSS	n/a	n/a	n/a	n/a	n/a	n/a	n/a	n/a
7.5916	2.1167	T_INK	3	Incongruent	czerwony	red	zielony	green	hit	n/a
9.6737	n/a	RESPONSE	n/a	n/a	n/a	n/a	n/a	n/a	n/a	green
9.7084	0.5167	FEEDBACK	n/a	n/a	n/a	n/a	n/a	n/a	n/a	n/a
10.225	1.0166	ITI	n/a	n/a	n/a	n/a	n/a	n/a	n/a	n/a
11.2416	0.5167	FIXCROSS	n/a	n/a	n/a	n/a	n/a	n/a	n/a	n/a
11.7584	1.1666	T_INK	4	Incongruent	niebieski	blue	czerwony	red	hit	n/a
12.8982	n/a	RESPONSE	n/a	n/a	n/a	n/a	n/a	n/a	n/a	red
12.925	0.5167	FEEDBACK	n/a	n/a	n/a	n/a	n/a	n/a	n/a	n/a
13.4417	1.0167	ITI	n/a	n/a	n/a	n/a	n/a	n/a	n/a	n/a
14.4584	0.5166	FIXCROSS	n/a	n/a	n/a	n/a	n/a	n/a	n/a	n/a
14.975	1.0834	T_INK	5	Incongruent	czerwony	red	niebieski	blue	hit	n/a
16.0269	n/a	RESPONSE	n/a	n/a	n/a	n/a	n/a	n/a	n/a	blue
16.0584	0.5167	FEEDBACK	n/a	n/a	n/a	n/a	n/a	n/a	n/a	n/a
16.5751	1.0167	ITI	n/a	n/a	n/a	n/a	n/a	n/a	n/a	n/a
17.5918	0.5166	FIXCROSS	n/a	n/a	n/a	n/a	n/a	n/a	n/a	n/a
18.1084	1.1667	T_INK	6	Neutral	xxxxx	xxxxx	zielony	green	hit	n/a
19.2514	n/a	RESPONSE	n/a	n/a	n/a	n/a	n/a	n/a	n/a	green
19.2751	0.5167	FEEDBACK	n/a	n/a	n/a	n/a	n/a	n/a	n/a	n/a
19.7917	1.0167	ITI	n/a	n/a	n/a	n/a	n/a	n/a	n/a	n/a
20.8084	0.5167	FIXCROSS	n/a	n/a	n/a	n/a	n/a	n/a	n/a	n/a
21.3251	0.9667	T_INK	7	Neutral	xxxxxxx	xxxxxxx	żółty	yellow	hit	n/a
22.2684	n/a	RESPONSE	n/a	n/a	n/a	n/a	n/a	n/a	n/a	yellow
22.2918	0.5166	FEEDBACK	n/a	n/a	n/a	n/a	n/a	n/a	n/a	n/a
22.8084	1.0167	ITI	n/a	n/a	n/a	n/a	n/a	n/a	n/a	n/a
23.8251	0.5167	FIXCROSS	n/a	n/a	n/a	n/a	n/a	n/a	n/a	n/a
24.3418	0.9167	T_INK	8	Neutral	xxxxxxxx	xxxxxxxx	niebieski	blue	hit	n/a
25.2375	n/a	RESPONSE	n/a	n/a	n/a	n/a	n/a	n/a	n/a	blue
25.2585	0.5167	FEEDBACK	n/a	n/a	n/a	n/a	n/a	n/a	n/a	n/a
25.7751	1.0167	ITI	n/a	n/a	n/a	n/a	n/a	n/a	n/a	n/a
26.7918	0.5167	FIXCROSS	n/a	n/a	n/a	n/a	n/a	n/a	n/a	n/a
27.3085	0.9833	T_INK	9	Incongruent	niebieski	blue	żółty	yellow	hit	n/a
28.2705	n/a	RESPONSE	n/a	n/a	n/a	n/a	n/a	n/a	n/a	yellow
28.2918	0.5167	FEEDBACK	n/a	n/a	n/a	n/a	n/a	n/a	n/a	n/a
28.8085	1.0334	ITI	n/a	n/a	n/a	n/a	n/a	n/a	n/a	n/a
29.8419	0.5166	FIXCROSS	n/a	n/a	n/a	n/a	n/a	n/a	n/a	n/a
30.3585	1.0001	T_INK	10	Incongruent	żółty	yellow	czerwony	red	hit	n/a
31.3353	n/a	RESPONSE	n/a	n/a	n/a	n/a	n/a	n/a	n/a	red
31.3585	0.5166	FEEDBACK	n/a	n/a	n/a	n/a	n/a	n/a	n/a	n/a
31.8752	1.0167	ITI	n/a	n/a	n/a	n/a	n/a	n/a	n/a	n/a
32.8919	0.5166	FIXCROSS	n/a	n/a	n/a	n/a	n/a	n/a	n/a	n/a
33.4085	1.0167	T_INK	11	Neutral	xxxxxxx	xxxxxxx	niebieski	blue	hit	n/a
34.4003	n/a	RESPONSE	n/a	n/a	n/a	n/a	n/a	n/a	n/a	blue
34.4252	0.5167	FEEDBACK	n/a	n/a	n/a	n/a	n/a	n/a	n/a	n/a
34.9419	1.0167	ITI	n/a	n/a	n/a	n/a	n/a	n/a	n/a	n/a
35.9586	0.5166	FIXCROSS	n/a	n/a	n/a	n/a	n/a	n/a	n/a	n/a
36.4752	0.5167	T_INK	12	Neutral	xxxxxxxx	xxxxxxxx	żółty	yellow	hit	n/a
36.9703	n/a	RESPONSE	n/a	n/a	n/a	n/a	n/a	n/a	n/a	yellow
36.9919	0.5167	FEEDBACK	n/a	n/a	n/a	n/a	n/a	n/a	n/a	n/a
37.5086	1.0333	ITI	n/a	n/a	n/a	n/a	n/a	n/a	n/a	n/a
41.7274	n/a	RESPONSE	n/a	n/a	n/a	n/a	n/a	n/a	n/a	n/a
41.7919	1.0167	ITI	n/a	n/a	n/a	n/a	n/a	n/a	n/a	n/a
42.8086	0.5167	FIXCROSS	n/a	n/a	n/a	n/a	n/a	n/a	n/a	n/a
43.3253	0.9667	INK	1	Incongruent	zielony	green	niebieski	blue	hit	n/a
44.2654	n/a	RESPONSE	n/a	n/a	n/a	n/a	n/a	n/a	n/a	blue
44.292	1.0166	ITI	n/a	n/a	n/a	n/a	n/a	n/a	n/a	n/a
45.3086	0.5167	FIXCROSS	n/a	n/a	n/a	n/a	n/a	n/a	n/a	n/a
45.8253	0.7667	INK	2	Neutral	xxxxxxxxx	xxxxxxxxx	czerwony	red	hit	n/a
46.5642	n/a	RESPONSE	n/a	n/a	n/a	n/a	n/a	n/a	n/a	red
46.592	1.0167	ITI	n/a	n/a	n/a	n/a	n/a	n/a	n/a	n/a
47.6087	0.5167	FIXCROSS	n/a	n/a	n/a	n/a	n/a	n/a	n/a	n/a
48.1253	0.5833	INK	3	Incongruent	zielony	green	żółty	yellow	hit	n/a
48.6871	n/a	RESPONSE	n/a	n/a	n/a	n/a	n/a	n/a	n/a	yellow
48.7087	1.0167	ITI	n/a	n/a	n/a	n/a	n/a	n/a	n/a	n/a
49.7253	0.5167	FIXCROSS	n/a	n/a	n/a	n/a	n/a	n/a	n/a	n/a
50.242	0.65	INK	4	Incongruent	zielony	green	niebieski	blue	hit	n/a
50.8581	n/a	RESPONSE	n/a	n/a	n/a	n/a	n/a	n/a	n/a	blue
50.892	1.0167	ITI	n/a	n/a	n/a	n/a	n/a	n/a	n/a	n/a
51.9087	0.5167	FIXCROSS	n/a	n/a	n/a	n/a	n/a	n/a	n/a	n/a
52.4254	0.7333	INK	5	Incongruent	czerwony	red	niebieski	blue	hit	n/a
53.1408	n/a	RESPONSE	n/a	n/a	n/a	n/a	n/a	n/a	n/a	blue
53.1587	1.0167	ITI	n/a	n/a	n/a	n/a	n/a	n/a	n/a	n/a
54.1754	0.5166	FIXCROSS	n/a	n/a	n/a	n/a	n/a	n/a	n/a	n/a
54.692	0.6167	INK	6	Incongruent	żółty	yellow	niebieski	blue	hit	n/a
55.2799	n/a	RESPONSE	n/a	n/a	n/a	n/a	n/a	n/a	n/a	blue
55.3087	1.0167	ITI	n/a	n/a	n/a	n/a	n/a	n/a	n/a	n/a
56.3254	0.5167	FIXCROSS	n/a	n/a	n/a	n/a	n/a	n/a	n/a	n/a
56.8421	0.55	INK	7	Neutral	xxxxxxxx	xxxxxxxx	niebieski	blue	hit	n/a
57.371	n/a	RESPONSE	n/a	n/a	n/a	n/a	n/a	n/a	n/a	blue
57.3921	1.0167	ITI	n/a	n/a	n/a	n/a	n/a	n/a	n/a	n/a
58.4088	0.5167	FIXCROSS	n/a	n/a	n/a	n/a	n/a	n/a	n/a	n/a
58.9254	0.5833	INK	8	Neutral	xxxxxxxx	xxxxxxxx	żółty	yellow	hit	n/a
59.4782	n/a	RESPONSE	n/a	n/a	n/a	n/a	n/a	n/a	n/a	yellow
59.5088	1.0167	ITI	n/a	n/a	n/a	n/a	n/a	n/a	n/a	n/a
60.5254	0.5167	FIXCROSS	n/a	n/a	n/a	n/a	n/a	n/a	n/a	n/a
61.0421	0.6667	INK	9	Incongruent	czerwony	red	zielony	green	hit	n/a
61.681	n/a	RESPONSE	n/a	n/a	n/a	n/a	n/a	n/a	n/a	green
61.7088	1.0166	ITI	n/a	n/a	n/a	n/a	n/a	n/a	n/a	n/a
62.7254	0.5167	FIXCROSS	n/a	n/a	n/a	n/a	n/a	n/a	n/a	n/a
63.2421	0.5333	INK	10	Neutral	xxxxxxxxx	xxxxxxxxx	zielony	green	hit	n/a
63.7562	n/a	RESPONSE	n/a	n/a	n/a	n/a	n/a	n/a	n/a	green
63.7755	1.0167	ITI	n/a	n/a	n/a	n/a	n/a	n/a	n/a	n/a
64.7921	0.5167	FIXCROSS	n/a	n/a	n/a	n/a	n/a	n/a	n/a	n/a
65.3088	0.4	INK	11	Neutral	xxxxx	xxxxx	czerwony	red	hit	n/a
65.6877	n/a	RESPONSE	n/a	n/a	n/a	n/a	n/a	n/a	n/a	red
65.7088	1.0167	ITI	n/a	n/a	n/a	n/a	n/a	n/a	n/a	n/a
66.7255	0.5167	FIXCROSS	n/a	n/a	n/a	n/a	n/a	n/a	n/a	n/a
67.2422	0.65	INK	12	Incongruent	niebieski	blue	żółty	yellow	hit	n/a
67.8587	n/a	RESPONSE	n/a	n/a	n/a	n/a	n/a	n/a	n/a	yellow
67.8922	1.0167	ITI	n/a	n/a	n/a	n/a	n/a	n/a	n/a	n/a
68.9088	0.5167	FIXCROSS	n/a	n/a	n/a	n/a	n/a	n/a	n/a	n/a
69.4255	0.7	INK	13	Neutral	xxxxxxx	xxxxxxx	czerwony	red	hit	n/a
70.0935	n/a	RESPONSE	n/a	n/a	n/a	n/a	n/a	n/a	n/a	red
70.1255	1.0167	ITI	n/a	n/a	n/a	n/a	n/a	n/a	n/a	n/a
71.1422	0.5167	FIXCROSS	n/a	n/a	n/a	n/a	n/a	n/a	n/a	n/a
71.6589	0.7167	INK	14	Incongruent	żółty	yellow	zielony	green	hit	n/a
72.3444	n/a	RESPONSE	n/a	n/a	n/a	n/a	n/a	n/a	n/a	green
72.3755	1.0167	ITI	n/a	n/a	n/a	n/a	n/a	n/a	n/a	n/a
73.3922	0.5166	FIXCROSS	n/a	n/a	n/a	n/a	n/a	n/a	n/a	n/a
73.9089	0.8334	INK	15	Incongruent	czerwony	red	żółty	yellow	hit	n/a
74.7228	n/a	RESPONSE	n/a	n/a	n/a	n/a	n/a	n/a	n/a	yellow
74.7422	1.0166	ITI	n/a	n/a	n/a	n/a	n/a	n/a	n/a	n/a
75.7589	0.5167	FIXCROSS	n/a	n/a	n/a	n/a	n/a	n/a	n/a	n/a
76.2756	0.8333	INK	16	Incongruent	żółty	yellow	czerwony	red	hit	n/a
77.0853	n/a	RESPONSE	n/a	n/a	n/a	n/a	n/a	n/a	n/a	red
77.1089	1.0167	ITI	n/a	n/a	n/a	n/a	n/a	n/a	n/a	n/a
78.1256	0.5166	FIXCROSS	n/a	n/a	n/a	n/a	n/a	n/a	n/a	n/a
78.6422	1.2334	INK	17	Incongruent	zielony	green	żółty	yellow	hit	n/a
79.8469	n/a	RESPONSE	n/a	n/a	n/a	n/a	n/a	n/a	n/a	yellow
79.8756	1.0166	ITI	n/a	n/a	n/a	n/a	n/a	n/a	n/a	n/a
80.8922	0.5167	FIXCROSS	n/a	n/a	n/a	n/a	n/a	n/a	n/a	n/a
81.4089	0.7	INK	18	Incongruent	zielony	green	czerwony	red	hit	n/a
82.0816	n/a	RESPONSE	n/a	n/a	n/a	n/a	n/a	n/a	n/a	red
82.1089	1.0167	ITI	n/a	n/a	n/a	n/a	n/a	n/a	n/a	n/a
83.1256	0.5167	FIXCROSS	n/a	n/a	n/a	n/a	n/a	n/a	n/a	n/a
83.6423	0.65	INK	19	Neutral	xxxxxxxx	xxxxxxxx	zielony	green	hit	n/a
84.2686	n/a	RESPONSE	n/a	n/a	n/a	n/a	n/a	n/a	n/a	green
84.2923	1.0167	ITI	n/a	n/a	n/a	n/a	n/a	n/a	n/a	n/a
85.309	0.5167	FIXCROSS	n/a	n/a	n/a	n/a	n/a	n/a	n/a	n/a
85.8256	0.6833	INK	20	Neutral	xxxxxxx	xxxxxxx	żółty	yellow	hit	n/a
86.4875	n/a	RESPONSE	n/a	n/a	n/a	n/a	n/a	n/a	n/a	yellow
86.5089	1.0167	ITI	n/a	n/a	n/a	n/a	n/a	n/a	n/a	n/a
87.5256	0.5167	FIXCROSS	n/a	n/a	n/a	n/a	n/a	n/a	n/a	n/a
88.0423	0.6333	INK	21	Incongruent	czerwony	red	niebieski	blue	hit	n/a
88.6424	n/a	RESPONSE	n/a	n/a	n/a	n/a	n/a	n/a	n/a	blue
88.6756	1.0167	ITI	n/a	n/a	n/a	n/a	n/a	n/a	n/a	n/a
89.6923	0.5167	FIXCROSS	n/a	n/a	n/a	n/a	n/a	n/a	n/a	n/a
90.209	0.5333	INK	22	Neutral	xxxxx	xxxxx	czerwony	red	hit	n/a
90.7177	n/a	RESPONSE	n/a	n/a	n/a	n/a	n/a	n/a	n/a	red
90.7423	1.0167	ITI	n/a	n/a	n/a	n/a	n/a	n/a	n/a	n/a
91.759	0.5167	FIXCROSS	n/a	n/a	n/a	n/a	n/a	n/a	n/a	n/a
92.2757	0.4333	INK	23	Incongruent	czerwony	red	zielony	green	hit	n/a
92.681	n/a	RESPONSE	n/a	n/a	n/a	n/a	n/a	n/a	n/a	green
92.709	1.0166	ITI	n/a	n/a	n/a	n/a	n/a	n/a	n/a	n/a
93.7257	0.5167	FIXCROSS	n/a	n/a	n/a	n/a	n/a	n/a	n/a	n/a
94.2424	0.3333	INK	24	Incongruent	zielony	green	żółty	yellow	hit	n/a
94.5486	n/a	RESPONSE	n/a	n/a	n/a	n/a	n/a	n/a	n/a	yellow
94.5757	1.0167	ITI	n/a	n/a	n/a	n/a	n/a	n/a	n/a	n/a
95.5924	0.5167	FIXCROSS	n/a	n/a	n/a	n/a	n/a	n/a	n/a	n/a
96.1091	0.5833	INK	25	Incongruent	żółty	yellow	czerwony	red	hit	n/a
96.6717	n/a	RESPONSE	n/a	n/a	n/a	n/a	n/a	n/a	n/a	red
96.6924	1.0167	ITI	n/a	n/a	n/a	n/a	n/a	n/a	n/a	n/a
97.7091	0.5167	FIXCROSS	n/a	n/a	n/a	n/a	n/a	n/a	n/a	n/a
98.2257	0.5167	INK	26	Neutral	xxxxxxxxx	xxxxxxxxx	czerwony	red	incorrect	n/a
98.715	n/a	RESPONSE	n/a	n/a	n/a	n/a	n/a	n/a	n/a	green
98.7424	1.0167	ITI	n/a	n/a	n/a	n/a	n/a	n/a	n/a	n/a
98.8427	n/a	RESPONSE	n/a	n/a	n/a	n/a	n/a	n/a	n/a	red
99.7591	0.5167	FIXCROSS	n/a	n/a	n/a	n/a	n/a	n/a	n/a	n/a
100.2758	0.5667	INK	27	Neutral	xxxxx	xxxxx	niebieski	blue	hit	n/a
100.8221	n/a	RESPONSE	n/a	n/a	n/a	n/a	n/a	n/a	n/a	blue
100.8424	1.0167	ITI	n/a	n/a	n/a	n/a	n/a	n/a	n/a	n/a
101.8591	0.5167	FIXCROSS	n/a	n/a	n/a	n/a	n/a	n/a	n/a	n/a
102.3758	0.7667	INK	28	Incongruent	zielony	green	czerwony	red	hit	n/a
103.1208	n/a	RESPONSE	n/a	n/a	n/a	n/a	n/a	n/a	n/a	red
103.1424	1.0166	ITI	n/a	n/a	n/a	n/a	n/a	n/a	n/a	n/a
104.159	0.5168	FIXCROSS	n/a	n/a	n/a	n/a	n/a	n/a	n/a	n/a
104.6758	1.05	INK	29	Incongruent	żółty	yellow	zielony	green	hit	n/a
105.7067	n/a	RESPONSE	n/a	n/a	n/a	n/a	n/a	n/a	n/a	green
105.7258	1.0167	ITI	n/a	n/a	n/a	n/a	n/a	n/a	n/a	n/a
106.7425	0.5167	FIXCROSS	n/a	n/a	n/a	n/a	n/a	n/a	n/a	n/a
107.2591	0.6334	INK	30	Incongruent	żółty	yellow	niebieski	blue	incorrect	n/a
107.8617	n/a	RESPONSE	n/a	n/a	n/a	n/a	n/a	n/a	n/a	red
107.8925	1.0166	ITI	n/a	n/a	n/a	n/a	n/a	n/a	n/a	n/a
108.9091	0.5167	FIXCROSS	n/a	n/a	n/a	n/a	n/a	n/a	n/a	n/a
109.4258	0.9834	INK	31	Neutral	xxxxx	xxxxx	niebieski	blue	hit	n/a
110.3838	n/a	RESPONSE	n/a	n/a	n/a	n/a	n/a	n/a	n/a	blue
110.4092	1.0166	ITI	n/a	n/a	n/a	n/a	n/a	n/a	n/a	n/a
111.4258	0.5167	FIXCROSS	n/a	n/a	n/a	n/a	n/a	n/a	n/a	n/a
111.9425	0.8667	INK	32	Incongruent	niebieski	blue	czerwony	red	hit	n/a
112.7782	n/a	RESPONSE	n/a	n/a	n/a	n/a	n/a	n/a	n/a	red
112.8092	1.0167	ITI	n/a	n/a	n/a	n/a	n/a	n/a	n/a	n/a
113.8259	0.5167	FIXCROSS	n/a	n/a	n/a	n/a	n/a	n/a	n/a	n/a
114.3425	0.9834	INK	33	Neutral	xxxxx	xxxxx	zielony	green	hit	n/a
115.3004	n/a	RESPONSE	n/a	n/a	n/a	n/a	n/a	n/a	n/a	green
115.3259	1.0167	ITI	n/a	n/a	n/a	n/a	n/a	n/a	n/a	n/a
116.3426	0.5167	FIXCROSS	n/a	n/a	n/a	n/a	n/a	n/a	n/a	n/a
116.8592	0.9333	INK	34	Incongruent	zielony	green	niebieski	blue	hit	n/a
117.7586	n/a	RESPONSE	n/a	n/a	n/a	n/a	n/a	n/a	n/a	blue
117.7926	1.0166	ITI	n/a	n/a	n/a	n/a	n/a	n/a	n/a	n/a
118.8092	0.5167	FIXCROSS	n/a	n/a	n/a	n/a	n/a	n/a	n/a	n/a
119.3259	0.7333	INK	35	Neutral	xxxxxxx	xxxxxxx	czerwony	red	hit	n/a
120.0413	n/a	RESPONSE	n/a	n/a	n/a	n/a	n/a	n/a	n/a	red
120.0593	1.0167	ITI	n/a	n/a	n/a	n/a	n/a	n/a	n/a	n/a
121.0759	0.5167	FIXCROSS	n/a	n/a	n/a	n/a	n/a	n/a	n/a	n/a
121.5926	0.8167	INK	36	Incongruent	niebieski	blue	zielony	green	hit	n/a
122.3878	n/a	RESPONSE	n/a	n/a	n/a	n/a	n/a	n/a	n/a	green
122.4093	1.0166	ITI	n/a	n/a	n/a	n/a	n/a	n/a	n/a	n/a
123.4259	0.5167	FIXCROSS	n/a	n/a	n/a	n/a	n/a	n/a	n/a	n/a
123.9426	0.6667	INK	37	Incongruent	czerwony	red	żółty	yellow	hit	n/a
124.5907	n/a	RESPONSE	n/a	n/a	n/a	n/a	n/a	n/a	n/a	yellow
124.6093	1.0167	ITI	n/a	n/a	n/a	n/a	n/a	n/a	n/a	n/a
125.626	0.5167	FIXCROSS	n/a	n/a	n/a	n/a	n/a	n/a	n/a	n/a
126.1426	0.7167	INK	38	Neutral	xxxxxxx	xxxxxxx	niebieski	blue	hit	n/a
126.8255	n/a	RESPONSE	n/a	n/a	n/a	n/a	n/a	n/a	n/a	blue
126.8593	1.0166	ITI	n/a	n/a	n/a	n/a	n/a	n/a	n/a	n/a
127.8759	0.5167	FIXCROSS	n/a	n/a	n/a	n/a	n/a	n/a	n/a	n/a
128.3927	1.1	INK	39	Neutral	xxxxxxxxx	xxxxxxxxx	zielony	green	hit	n/a
129.4594	n/a	RESPONSE	n/a	n/a	n/a	n/a	n/a	n/a	n/a	green
129.4927	1.0167	ITI	n/a	n/a	n/a	n/a	n/a	n/a	n/a	n/a
130.5093	0.5167	FIXCROSS	n/a	n/a	n/a	n/a	n/a	n/a	n/a	n/a
131.026	0.75	INK	40	Neutral	xxxxxxxxx	xxxxxxxxx	zielony	green	hit	n/a
131.7579	n/a	RESPONSE	n/a	n/a	n/a	n/a	n/a	n/a	n/a	green
131.776	1.0166	ITI	n/a	n/a	n/a	n/a	n/a	n/a	n/a	n/a
132.7927	0.5167	FIXCROSS	n/a	n/a	n/a	n/a	n/a	n/a	n/a	n/a
133.3094	0.6333	INK	41	Neutral	xxxxxxx	xxxxxxx	niebieski	blue	hit	n/a
133.913	n/a	RESPONSE	n/a	n/a	n/a	n/a	n/a	n/a	n/a	blue
133.9427	1.0167	ITI	n/a	n/a	n/a	n/a	n/a	n/a	n/a	n/a
134.9594	0.5167	FIXCROSS	n/a	n/a	n/a	n/a	n/a	n/a	n/a	n/a
135.476	0.5833	INK	42	Neutral	xxxxx	xxxxx	zielony	green	hit	n/a
136.036	n/a	RESPONSE	n/a	n/a	n/a	n/a	n/a	n/a	n/a	green
136.0594	1.0167	ITI	n/a	n/a	n/a	n/a	n/a	n/a	n/a	n/a
137.0761	0.5167	FIXCROSS	n/a	n/a	n/a	n/a	n/a	n/a	n/a	n/a
137.5927	0.7167	INK	43	Neutral	xxxxxxxx	xxxxxxxx	zielony	green	hit	n/a
138.2868	n/a	RESPONSE	n/a	n/a	n/a	n/a	n/a	n/a	n/a	green
138.3094	1.0167	ITI	n/a	n/a	n/a	n/a	n/a	n/a	n/a	n/a
139.326	0.5167	FIXCROSS	n/a	n/a	n/a	n/a	n/a	n/a	n/a	n/a
139.8427	0.6334	INK	44	Incongruent	zielony	green	czerwony	red	hit	n/a
140.4577	n/a	RESPONSE	n/a	n/a	n/a	n/a	n/a	n/a	n/a	red
140.4761	1.0167	ITI	n/a	n/a	n/a	n/a	n/a	n/a	n/a	n/a
141.4928	0.5167	FIXCROSS	n/a	n/a	n/a	n/a	n/a	n/a	n/a	n/a
142.0094	0.4167	INK	45	Neutral	xxxxxxx	xxxxxxx	żółty	yellow	hit	n/a
142.4052	n/a	RESPONSE	n/a	n/a	n/a	n/a	n/a	n/a	n/a	yellow
142.4261	1.0167	ITI	n/a	n/a	n/a	n/a	n/a	n/a	n/a	n/a
143.4428	0.5167	FIXCROSS	n/a	n/a	n/a	n/a	n/a	n/a	n/a	n/a
143.9594	0.4333	INK	46	Neutral	xxxxx	xxxxx	czerwony	red	hit	n/a
144.3687	n/a	RESPONSE	n/a	n/a	n/a	n/a	n/a	n/a	n/a	red
144.3928	1.0167	ITI	n/a	n/a	n/a	n/a	n/a	n/a	n/a	n/a
145.4095	0.5167	FIXCROSS	n/a	n/a	n/a	n/a	n/a	n/a	n/a	n/a
145.9261	0.3666	INK	47	Neutral	xxxxxxxxx	xxxxxxxxx	żółty	yellow	hit	n/a
146.2683	n/a	RESPONSE	n/a	n/a	n/a	n/a	n/a	n/a	n/a	yellow
146.2928	1.0167	ITI	n/a	n/a	n/a	n/a	n/a	n/a	n/a	n/a
147.3095	0.5167	FIXCROSS	n/a	n/a	n/a	n/a	n/a	n/a	n/a	n/a
147.8261	0.6	INK	48	Incongruent	czerwony	red	żółty	yellow	hit	n/a
148.4073	n/a	RESPONSE	n/a	n/a	n/a	n/a	n/a	n/a	n/a	yellow
148.4262	1.0166	ITI	n/a	n/a	n/a	n/a	n/a	n/a	n/a	n/a
149.4428	0.5167	FIXCROSS	n/a	n/a	n/a	n/a	n/a	n/a	n/a	n/a
149.9595	0.7333	INK	49	Incongruent	niebieski	blue	zielony	green	hit	n/a
150.674	n/a	RESPONSE	n/a	n/a	n/a	n/a	n/a	n/a	n/a	green
150.6928	1.0167	ITI	n/a	n/a	n/a	n/a	n/a	n/a	n/a	n/a
151.7095	0.5167	FIXCROSS	n/a	n/a	n/a	n/a	n/a	n/a	n/a	n/a
152.2262	0.4	INK	50	Neutral	xxxxxxx	xxxxxxx	niebieski	blue	hit	n/a
152.6055	n/a	RESPONSE	n/a	n/a	n/a	n/a	n/a	n/a	n/a	blue
152.6262	1.0167	ITI	n/a	n/a	n/a	n/a	n/a	n/a	n/a	n/a
153.6429	0.5167	FIXCROSS	n/a	n/a	n/a	n/a	n/a	n/a	n/a	n/a
154.1595	0.8167	INK	51	Incongruent	niebieski	blue	żółty	yellow	hit	n/a
154.9519	n/a	RESPONSE	n/a	n/a	n/a	n/a	n/a	n/a	n/a	yellow
154.9762	1.0167	ITI	n/a	n/a	n/a	n/a	n/a	n/a	n/a	n/a
155.9929	0.5167	FIXCROSS	n/a	n/a	n/a	n/a	n/a	n/a	n/a	n/a
156.5095	1.25	INK	52	Incongruent	żółty	yellow	zielony	green	hit	n/a
157.7295	n/a	RESPONSE	n/a	n/a	n/a	n/a	n/a	n/a	n/a	green
157.7595	1.0167	ITI	n/a	n/a	n/a	n/a	n/a	n/a	n/a	n/a
158.7762	0.5167	FIXCROSS	n/a	n/a	n/a	n/a	n/a	n/a	n/a	n/a
159.2929	0.6	INK	53	Neutral	xxxxxxxx	xxxxxxxx	niebieski	blue	hit	n/a
159.8685	n/a	RESPONSE	n/a	n/a	n/a	n/a	n/a	n/a	n/a	blue
159.8929	1.0167	ITI	n/a	n/a	n/a	n/a	n/a	n/a	n/a	n/a
160.9096	0.5167	FIXCROSS	n/a	n/a	n/a	n/a	n/a	n/a	n/a	n/a
161.4263	0.5333	INK	54	Neutral	xxxxxxxx	xxxxxxxx	żółty	yellow	hit	n/a
161.9279	n/a	RESPONSE	n/a	n/a	n/a	n/a	n/a	n/a	n/a	yellow
161.9596	1.0167	ITI	n/a	n/a	n/a	n/a	n/a	n/a	n/a	n/a
162.9763	0.5166	FIXCROSS	n/a	n/a	n/a	n/a	n/a	n/a	n/a	n/a
163.4929	0.8834	INK	55	Incongruent	czerwony	red	zielony	green	hit	n/a
164.3541	n/a	RESPONSE	n/a	n/a	n/a	n/a	n/a	n/a	n/a	green
164.3763	1.0167	ITI	n/a	n/a	n/a	n/a	n/a	n/a	n/a	n/a
165.393	0.5167	FIXCROSS	n/a	n/a	n/a	n/a	n/a	n/a	n/a	n/a
165.9096	0.5833	INK	56	Neutral	xxxxx	xxxxx	zielony	green	hit	n/a
166.4612	n/a	RESPONSE	n/a	n/a	n/a	n/a	n/a	n/a	n/a	green
166.493	1.0167	ITI	n/a	n/a	n/a	n/a	n/a	n/a	n/a	n/a
167.5096	0.5166	FIXCROSS	n/a	n/a	n/a	n/a	n/a	n/a	n/a	n/a
168.0263	0.6334	INK	57	Incongruent	żółty	yellow	niebieski	blue	hit	n/a
168.6322	n/a	RESPONSE	n/a	n/a	n/a	n/a	n/a	n/a	n/a	blue
168.6596	1.0167	ITI	n/a	n/a	n/a	n/a	n/a	n/a	n/a	n/a
169.6763	0.5167	FIXCROSS	n/a	n/a	n/a	n/a	n/a	n/a	n/a	n/a
170.193	0.7333	INK	58	Incongruent	niebieski	blue	czerwony	red	hit	n/a
170.8989	n/a	RESPONSE	n/a	n/a	n/a	n/a	n/a	n/a	n/a	red
170.9263	1.0167	ITI	n/a	n/a	n/a	n/a	n/a	n/a	n/a	n/a
171.943	0.5167	FIXCROSS	n/a	n/a	n/a	n/a	n/a	n/a	n/a	n/a
172.4597	0.5667	INK	59	Neutral	xxxxxxxxx	xxxxxxxxx	czerwony	red	hit	n/a
173.006	n/a	RESPONSE	n/a	n/a	n/a	n/a	n/a	n/a	n/a	red
173.0263	1.0167	ITI	n/a	n/a	n/a	n/a	n/a	n/a	n/a	n/a
174.043	0.5167	FIXCROSS	n/a	n/a	n/a	n/a	n/a	n/a	n/a	n/a
174.5597	0.6833	INK	60	Incongruent	czerwony	red	niebieski	blue	hit	n/a
175.2247	n/a	RESPONSE	n/a	n/a	n/a	n/a	n/a	n/a	n/a	blue
175.243	1.0167	ITI	n/a	n/a	n/a	n/a	n/a	n/a	n/a	n/a
176.2597	0.5167	FIXCROSS	n/a	n/a	n/a	n/a	n/a	n/a	n/a	n/a
176.7764	0.9833	INK	61	Neutral	xxxxxxx	xxxxxxx	czerwony	red	hit	n/a
177.731	n/a	RESPONSE	n/a	n/a	n/a	n/a	n/a	n/a	n/a	red
177.7597	1.0167	ITI	n/a	n/a	n/a	n/a	n/a	n/a	n/a	n/a
178.7764	0.5167	FIXCROSS	n/a	n/a	n/a	n/a	n/a	n/a	n/a	n/a
179.2931	0.5667	INK	62	Incongruent	niebieski	blue	żółty	yellow	hit	n/a
179.8379	n/a	RESPONSE	n/a	n/a	n/a	n/a	n/a	n/a	n/a	yellow
179.8597	1.0166	ITI	n/a	n/a	n/a	n/a	n/a	n/a	n/a	n/a
180.8764	0.5167	FIXCROSS	n/a	n/a	n/a	n/a	n/a	n/a	n/a	n/a
181.3931	0.7333	INK	63	Incongruent	niebieski	blue	zielony	green	hit	n/a
182.1047	n/a	RESPONSE	n/a	n/a	n/a	n/a	n/a	n/a	n/a	green
182.1264	1.0167	ITI	n/a	n/a	n/a	n/a	n/a	n/a	n/a	n/a
183.1431	0.5167	FIXCROSS	n/a	n/a	n/a	n/a	n/a	n/a	n/a	n/a
183.6598	0.8333	INK	64	Incongruent	niebieski	blue	czerwony	red	hit	n/a
184.4671	n/a	RESPONSE	n/a	n/a	n/a	n/a	n/a	n/a	n/a	red
184.4931	1.0167	ITI	n/a	n/a	n/a	n/a	n/a	n/a	n/a	n/a
185.5098	0.5166	FIXCROSS	n/a	n/a	n/a	n/a	n/a	n/a	n/a	n/a
186.0264	0.7167	INK	65	Neutral	xxxxxxxx	xxxxxxxx	niebieski	blue	hit	n/a
186.7179	n/a	RESPONSE	n/a	n/a	n/a	n/a	n/a	n/a	n/a	blue
186.7431	1.0167	ITI	n/a	n/a	n/a	n/a	n/a	n/a	n/a	n/a
187.7598	0.5167	FIXCROSS	n/a	n/a	n/a	n/a	n/a	n/a	n/a	n/a
188.2765	0.6167	INK	66	Neutral	xxxxxxxx	xxxxxxxx	żółty	yellow	hit	n/a
188.873	n/a	RESPONSE	n/a	n/a	n/a	n/a	n/a	n/a	n/a	yellow
188.8932	1.0167	ITI	n/a	n/a	n/a	n/a	n/a	n/a	n/a	n/a
189.9098	0.5167	FIXCROSS	n/a	n/a	n/a	n/a	n/a	n/a	n/a	n/a
190.4265	0.7166	INK	67	Neutral	xxxxx	xxxxx	niebieski	blue	hit	n/a
191.1237	n/a	RESPONSE	n/a	n/a	n/a	n/a	n/a	n/a	n/a	blue
191.1431	1.0167	ITI	n/a	n/a	n/a	n/a	n/a	n/a	n/a	n/a
192.1598	0.5167	FIXCROSS	n/a	n/a	n/a	n/a	n/a	n/a	n/a	n/a
192.6765	0.7833	INK	68	Neutral	xxxxxxx	xxxxxxx	żółty	yellow	hit	n/a
193.4383	n/a	RESPONSE	n/a	n/a	n/a	n/a	n/a	n/a	n/a	yellow
193.4598	1.0166	ITI	n/a	n/a	n/a	n/a	n/a	n/a	n/a	n/a
194.4765	0.5167	FIXCROSS	n/a	n/a	n/a	n/a	n/a	n/a	n/a	n/a
194.9932	0.45	INK	69	Neutral	xxxxxxxxx	xxxxxxxxx	żółty	yellow	hit	n/a
195.4177	n/a	RESPONSE	n/a	n/a	n/a	n/a	n/a	n/a	n/a	yellow
195.4432	1.0167	ITI	n/a	n/a	n/a	n/a	n/a	n/a	n/a	n/a
196.4599	0.5166	FIXCROSS	n/a	n/a	n/a	n/a	n/a	n/a	n/a	n/a
196.9765	0.4334	INK	70	Neutral	xxxxxxxxx	xxxxxxxxx	żółty	yellow	hit	n/a
197.3811	n/a	RESPONSE	n/a	n/a	n/a	n/a	n/a	n/a	n/a	yellow
197.4099	1.0166	ITI	n/a	n/a	n/a	n/a	n/a	n/a	n/a	n/a
198.4265	0.5167	FIXCROSS	n/a	n/a	n/a	n/a	n/a	n/a	n/a	n/a
198.9432	0.55	INK	71	Incongruent	żółty	yellow	czerwony	red	hit	n/a
199.4722	n/a	RESPONSE	n/a	n/a	n/a	n/a	n/a	n/a	n/a	red
199.4932	1.0167	ITI	n/a	n/a	n/a	n/a	n/a	n/a	n/a	n/a
200.5099	0.5167	FIXCROSS	n/a	n/a	n/a	n/a	n/a	n/a	n/a	n/a
201.0266	0.5667	INK	72	Neutral	xxxxxxxx	xxxxxxxx	zielony	green	hit	n/a
201.5634	n/a	RESPONSE	n/a	n/a	n/a	n/a	n/a	n/a	n/a	green
201.5932	1.0833	ITI	n/a	n/a	n/a	n/a	n/a	n/a	n/a	n/a
227.7903	n/a	RESPONSE	n/a	n/a	n/a	n/a	n/a	n/a	n/a	n/a
227.8601	1.0167	ITI	n/a	n/a	n/a	n/a	n/a	n/a	n/a	n/a
228.8768	0.5167	FIXCROSS	n/a	n/a	n/a	n/a	n/a	n/a	n/a	n/a
229.3935	1.2833	T_COLOR_NAME	1	Neutral	czerwony	red	Neutral	Neutral	hit	n/a
230.6476	n/a	RESPONSE	n/a	n/a	n/a	n/a	n/a	n/a	n/a	red
230.6768	0.5166	FEEDBACK	n/a	n/a	n/a	n/a	n/a	n/a	n/a	n/a
231.1935	1.0167	ITI	n/a	n/a	n/a	n/a	n/a	n/a	n/a	n/a
232.2102	0.5167	FIXCROSS	n/a	n/a	n/a	n/a	n/a	n/a	n/a	n/a
232.7268	1.0333	T_COLOR_NAME	2	Incongruent	czerwony	red	zielony	green	hit	n/a
233.7285	n/a	RESPONSE	n/a	n/a	n/a	n/a	n/a	n/a	n/a	red
233.7602	0.5167	FEEDBACK	n/a	n/a	n/a	n/a	n/a	n/a	n/a	n/a
234.2769	1.0167	ITI	n/a	n/a	n/a	n/a	n/a	n/a	n/a	n/a
235.2935	0.5167	FIXCROSS	n/a	n/a	n/a	n/a	n/a	n/a	n/a	n/a
235.8102	0.5167	T_COLOR_NAME	3	Neutral	czerwony	red	Neutral	Neutral	hit	n/a
236.2984	n/a	RESPONSE	n/a	n/a	n/a	n/a	n/a	n/a	n/a	red
236.3269	0.5167	FEEDBACK	n/a	n/a	n/a	n/a	n/a	n/a	n/a	n/a
236.8435	1.0167	ITI	n/a	n/a	n/a	n/a	n/a	n/a	n/a	n/a
237.8602	0.5167	FIXCROSS	n/a	n/a	n/a	n/a	n/a	n/a	n/a	n/a
238.3769	0.9167	T_COLOR_NAME	4	Neutral	zielony	green	Neutral	Neutral	hit	n/a
239.2675	n/a	RESPONSE	n/a	n/a	n/a	n/a	n/a	n/a	n/a	green
239.2936	0.5167	FEEDBACK	n/a	n/a	n/a	n/a	n/a	n/a	n/a	n/a
239.8102	1.0167	ITI	n/a	n/a	n/a	n/a	n/a	n/a	n/a	n/a
240.8269	0.5167	FIXCROSS	n/a	n/a	n/a	n/a	n/a	n/a	n/a	n/a
241.3436	0.5333	T_COLOR_NAME	5	Neutral	zielony	green	Neutral	Neutral	hit	n/a
241.8535	n/a	RESPONSE	n/a	n/a	n/a	n/a	n/a	n/a	n/a	green
241.8769	0.5167	FEEDBACK	n/a	n/a	n/a	n/a	n/a	n/a	n/a	n/a
242.3936	1.0166	ITI	n/a	n/a	n/a	n/a	n/a	n/a	n/a	n/a
243.4102	0.5167	FIXCROSS	n/a	n/a	n/a	n/a	n/a	n/a	n/a	n/a
243.9269	1.2	T_COLOR_NAME	6	Incongruent	niebieski	blue	żółty	yellow	incorrect	n/a
245.0939	n/a	RESPONSE	n/a	n/a	n/a	n/a	n/a	n/a	n/a	yellow
245.1269	0.5167	FEEDBACK	n/a	n/a	n/a	n/a	n/a	n/a	n/a	n/a
245.6436	1.0167	ITI	n/a	n/a	n/a	n/a	n/a	n/a	n/a	n/a
246.6603	0.5166	FIXCROSS	n/a	n/a	n/a	n/a	n/a	n/a	n/a	n/a
247.1769	2.15	T_COLOR_NAME	7	Incongruent	żółty	yellow	czerwony	red	hit	n/a
249.2921	n/a	RESPONSE	n/a	n/a	n/a	n/a	n/a	n/a	n/a	yellow
249.327	0.5167	FEEDBACK	n/a	n/a	n/a	n/a	n/a	n/a	n/a	n/a
249.8436	1.0167	ITI	n/a	n/a	n/a	n/a	n/a	n/a	n/a	n/a
250.8603	0.5166	FIXCROSS	n/a	n/a	n/a	n/a	n/a	n/a	n/a	n/a
251.377	0.8334	T_COLOR_NAME	8	Neutral	żółty	yellow	Neutral	Neutral	hit	n/a
252.1815	n/a	RESPONSE	n/a	n/a	n/a	n/a	n/a	n/a	n/a	yellow
252.2103	0.5166	FEEDBACK	n/a	n/a	n/a	n/a	n/a	n/a	n/a	n/a
252.727	1.0167	ITI	n/a	n/a	n/a	n/a	n/a	n/a	n/a	n/a
253.7436	0.5167	FIXCROSS	n/a	n/a	n/a	n/a	n/a	n/a	n/a	n/a
254.2604	1.2333	T_COLOR_NAME	9	Incongruent	niebieski	blue	czerwony	red	hit	n/a
255.4699	n/a	RESPONSE	n/a	n/a	n/a	n/a	n/a	n/a	n/a	blue
255.4937	0.5166	FEEDBACK	n/a	n/a	n/a	n/a	n/a	n/a	n/a	n/a
256.0103	1.0167	ITI	n/a	n/a	n/a	n/a	n/a	n/a	n/a	n/a
257.027	0.5167	FIXCROSS	n/a	n/a	n/a	n/a	n/a	n/a	n/a	n/a
257.5437	0.5333	T_COLOR_NAME	10	Neutral	niebieski	blue	Neutral	Neutral	hit	n/a
258.0558	n/a	RESPONSE	n/a	n/a	n/a	n/a	n/a	n/a	n/a	blue
258.077	0.5167	FEEDBACK	n/a	n/a	n/a	n/a	n/a	n/a	n/a	n/a
258.5937	1.0166	ITI	n/a	n/a	n/a	n/a	n/a	n/a	n/a	n/a
259.6104	0.5167	FIXCROSS	n/a	n/a	n/a	n/a	n/a	n/a	n/a	n/a
260.127	0.6834	T_COLOR_NAME	11	Incongruent	czerwony	red	niebieski	blue	incorrect	n/a
260.7854	n/a	RESPONSE	n/a	n/a	n/a	n/a	n/a	n/a	n/a	green
260.8104	0.5167	FEEDBACK	n/a	n/a	n/a	n/a	n/a	n/a	n/a	n/a
261.3271	1.0167	ITI	n/a	n/a	n/a	n/a	n/a	n/a	n/a	n/a
262.3437	0.5167	FIXCROSS	n/a	n/a	n/a	n/a	n/a	n/a	n/a	n/a
262.8604	1.05	T_COLOR_NAME	12	Neutral	niebieski	blue	Neutral	Neutral	hit	n/a
263.8823	n/a	RESPONSE	n/a	n/a	n/a	n/a	n/a	n/a	n/a	blue
263.9104	0.5166	FEEDBACK	n/a	n/a	n/a	n/a	n/a	n/a	n/a	n/a
264.4271	1.0333	ITI	n/a	n/a	n/a	n/a	n/a	n/a	n/a	n/a
267.5697	n/a	RESPONSE	n/a	n/a	n/a	n/a	n/a	n/a	n/a	n/a
267.6271	1.0167	ITI	n/a	n/a	n/a	n/a	n/a	n/a	n/a	n/a
268.6438	0.5167	FIXCROSS	n/a	n/a	n/a	n/a	n/a	n/a	n/a	n/a
269.1605	1.3667	COLOR_NAME	1	Neutral	niebieski	blue	Neutral	Neutral	hit	n/a
270.5069	n/a	RESPONSE	n/a	n/a	n/a	n/a	n/a	n/a	n/a	blue
270.5271	1.0167	ITI	n/a	n/a	n/a	n/a	n/a	n/a	n/a	n/a
271.5438	0.5167	FIXCROSS	n/a	n/a	n/a	n/a	n/a	n/a	n/a	n/a
272.0605	0.7333	COLOR_NAME	2	Neutral	czerwony	red	Neutral	Neutral	hit	n/a
272.7736	n/a	RESPONSE	n/a	n/a	n/a	n/a	n/a	n/a	n/a	red
272.7938	1.0167	ITI	n/a	n/a	n/a	n/a	n/a	n/a	n/a	n/a
273.8105	0.5167	FIXCROSS	n/a	n/a	n/a	n/a	n/a	n/a	n/a	n/a
274.3272	0.55	COLOR_NAME	3	Neutral	czerwony	red	Neutral	Neutral	hit	n/a
274.8488	n/a	RESPONSE	n/a	n/a	n/a	n/a	n/a	n/a	n/a	red
274.8772	1.0167	ITI	n/a	n/a	n/a	n/a	n/a	n/a	n/a	n/a
275.8939	0.5167	FIXCROSS	n/a	n/a	n/a	n/a	n/a	n/a	n/a	n/a
276.4105	1.1167	COLOR_NAME	4	Incongruent	czerwony	red	niebieski	blue	hit	n/a
277.4986	n/a	RESPONSE	n/a	n/a	n/a	n/a	n/a	n/a	n/a	red
277.5272	1.0167	ITI	n/a	n/a	n/a	n/a	n/a	n/a	n/a	n/a
278.5439	0.5167	FIXCROSS	n/a	n/a	n/a	n/a	n/a	n/a	n/a	n/a
279.0606	0.7166	COLOR_NAME	5	Neutral	żółty	yellow	Neutral	Neutral	hit	n/a
279.7492	n/a	RESPONSE	n/a	n/a	n/a	n/a	n/a	n/a	n/a	yellow
279.7772	1.0167	ITI	n/a	n/a	n/a	n/a	n/a	n/a	n/a	n/a
280.7939	0.5167	FIXCROSS	n/a	n/a	n/a	n/a	n/a	n/a	n/a	n/a
281.3106	0.7833	COLOR_NAME	6	Neutral	czerwony	red	Neutral	Neutral	hit	n/a
282.0639	n/a	RESPONSE	n/a	n/a	n/a	n/a	n/a	n/a	n/a	red
282.0939	1.0167	ITI	n/a	n/a	n/a	n/a	n/a	n/a	n/a	n/a
283.1106	0.5167	FIXCROSS	n/a	n/a	n/a	n/a	n/a	n/a	n/a	n/a
283.6273	0.6333	COLOR_NAME	7	Neutral	czerwony	red	Neutral	Neutral	hit	n/a
284.2348	n/a	RESPONSE	n/a	n/a	n/a	n/a	n/a	n/a	n/a	red
284.2606	1.0167	ITI	n/a	n/a	n/a	n/a	n/a	n/a	n/a	n/a
285.2773	0.5167	FIXCROSS	n/a	n/a	n/a	n/a	n/a	n/a	n/a	n/a
285.7939	0.6333	COLOR_NAME	8	Incongruent	czerwony	red	niebieski	blue	hit	n/a
286.4057	n/a	RESPONSE	n/a	n/a	n/a	n/a	n/a	n/a	n/a	red
286.4273	1.0167	ITI	n/a	n/a	n/a	n/a	n/a	n/a	n/a	n/a
287.444	0.5167	FIXCROSS	n/a	n/a	n/a	n/a	n/a	n/a	n/a	n/a
287.9606	0.6167	COLOR_NAME	9	Neutral	żółty	yellow	Neutral	Neutral	hit	n/a
288.5448	n/a	RESPONSE	n/a	n/a	n/a	n/a	n/a	n/a	n/a	yellow
288.5773	1.0167	ITI	n/a	n/a	n/a	n/a	n/a	n/a	n/a	n/a
289.594	0.5167	FIXCROSS	n/a	n/a	n/a	n/a	n/a	n/a	n/a	n/a
290.1106	0.85	COLOR_NAME	10	Neutral	zielony	green	Neutral	Neutral	hit	n/a
290.9392	n/a	RESPONSE	n/a	n/a	n/a	n/a	n/a	n/a	n/a	green
290.9607	1.0167	ITI	n/a	n/a	n/a	n/a	n/a	n/a	n/a	n/a
291.9773	0.5166	FIXCROSS	n/a	n/a	n/a	n/a	n/a	n/a	n/a	n/a
292.494	1.4834	COLOR_NAME	11	Incongruent	żółty	yellow	niebieski	blue	hit	n/a
293.9562	n/a	RESPONSE	n/a	n/a	n/a	n/a	n/a	n/a	n/a	yellow
293.9773	1.0167	ITI	n/a	n/a	n/a	n/a	n/a	n/a	n/a	n/a
294.994	0.5167	FIXCROSS	n/a	n/a	n/a	n/a	n/a	n/a	n/a	n/a
295.5107	0.5667	COLOR_NAME	12	Neutral	żółty	yellow	Neutral	Neutral	hit	n/a
296.0474	n/a	RESPONSE	n/a	n/a	n/a	n/a	n/a	n/a	n/a	yellow
296.0774	1.0167	ITI	n/a	n/a	n/a	n/a	n/a	n/a	n/a	n/a
297.094	0.5167	FIXCROSS	n/a	n/a	n/a	n/a	n/a	n/a	n/a	n/a
297.6107	0.4666	COLOR_NAME	13	Incongruent	żółty	yellow	czerwony	red	hit	n/a
298.0586	n/a	RESPONSE	n/a	n/a	n/a	n/a	n/a	n/a	n/a	yellow
298.0774	1.0167	ITI	n/a	n/a	n/a	n/a	n/a	n/a	n/a	n/a
299.094	0.5167	FIXCROSS	n/a	n/a	n/a	n/a	n/a	n/a	n/a	n/a
299.6107	0.75	COLOR_NAME	14	Neutral	niebieski	blue	Neutral	Neutral	hit	n/a
300.3413	n/a	RESPONSE	n/a	n/a	n/a	n/a	n/a	n/a	n/a	blue
300.3607	1.0167	ITI	n/a	n/a	n/a	n/a	n/a	n/a	n/a	n/a
301.3774	0.5167	FIXCROSS	n/a	n/a	n/a	n/a	n/a	n/a	n/a	n/a
301.8941	0.6833	COLOR_NAME	15	Incongruent	zielony	green	niebieski	blue	incorrect	n/a
302.5601	n/a	RESPONSE	n/a	n/a	n/a	n/a	n/a	n/a	n/a	red
302.5774	1.0167	ITI	n/a	n/a	n/a	n/a	n/a	n/a	n/a	n/a
303.5941	0.5167	FIXCROSS	n/a	n/a	n/a	n/a	n/a	n/a	n/a	n/a
304.1108	0.7167	COLOR_NAME	16	Neutral	niebieski	blue	Neutral	Neutral	hit	n/a
304.7948	n/a	RESPONSE	n/a	n/a	n/a	n/a	n/a	n/a	n/a	blue
304.8274	1.0167	ITI	n/a	n/a	n/a	n/a	n/a	n/a	n/a	n/a
305.8441	0.5166	FIXCROSS	n/a	n/a	n/a	n/a	n/a	n/a	n/a	n/a
306.3607	0.4834	COLOR_NAME	17	Incongruent	zielony	green	czerwony	red	incorrect	n/a
306.8221	n/a	RESPONSE	n/a	n/a	n/a	n/a	n/a	n/a	n/a	red
306.8441	1.0167	ITI	n/a	n/a	n/a	n/a	n/a	n/a	n/a	n/a
307.8608	0.5167	FIXCROSS	n/a	n/a	n/a	n/a	n/a	n/a	n/a	n/a
308.3775	0.8167	COLOR_NAME	18	Incongruent	żółty	yellow	niebieski	blue	hit	n/a
309.1686	n/a	RESPONSE	n/a	n/a	n/a	n/a	n/a	n/a	n/a	yellow
309.1941	1.0167	ITI	n/a	n/a	n/a	n/a	n/a	n/a	n/a	n/a
310.2108	0.5166	FIXCROSS	n/a	n/a	n/a	n/a	n/a	n/a	n/a	n/a
310.7275	1.0	COLOR_NAME	19	Incongruent	niebieski	blue	zielony	green	hit	n/a
311.7067	n/a	RESPONSE	n/a	n/a	n/a	n/a	n/a	n/a	n/a	blue
311.7275	1.0167	ITI	n/a	n/a	n/a	n/a	n/a	n/a	n/a	n/a
312.7442	0.5167	FIXCROSS	n/a	n/a	n/a	n/a	n/a	n/a	n/a	n/a
313.2608	0.8	COLOR_NAME	20	Incongruent	zielony	green	żółty	yellow	incorrect	n/a
314.0373	n/a	RESPONSE	n/a	n/a	n/a	n/a	n/a	n/a	n/a	red
314.0608	1.0166	ITI	n/a	n/a	n/a	n/a	n/a	n/a	n/a	n/a
315.0775	0.5167	FIXCROSS	n/a	n/a	n/a	n/a	n/a	n/a	n/a	n/a
315.5942	1.4	COLOR_NAME	21	Incongruent	niebieski	blue	czerwony	red	hit	n/a
316.9744	n/a	RESPONSE	n/a	n/a	n/a	n/a	n/a	n/a	n/a	blue
316.9942	1.0167	ITI	n/a	n/a	n/a	n/a	n/a	n/a	n/a	n/a
318.0109	0.5167	FIXCROSS	n/a	n/a	n/a	n/a	n/a	n/a	n/a	n/a
318.5275	0.7	COLOR_NAME	22	Neutral	zielony	green	Neutral	Neutral	hit	n/a
319.2092	n/a	RESPONSE	n/a	n/a	n/a	n/a	n/a	n/a	n/a	green
319.2275	1.0167	ITI	n/a	n/a	n/a	n/a	n/a	n/a	n/a	n/a
320.2442	0.5166	FIXCROSS	n/a	n/a	n/a	n/a	n/a	n/a	n/a	n/a
320.7609	0.6167	COLOR_NAME	23	Neutral	zielony	green	Neutral	Neutral	hit	n/a
321.3482	n/a	RESPONSE	n/a	n/a	n/a	n/a	n/a	n/a	n/a	green
321.3775	1.0167	ITI	n/a	n/a	n/a	n/a	n/a	n/a	n/a	n/a
322.3942	0.5167	FIXCROSS	n/a	n/a	n/a	n/a	n/a	n/a	n/a	n/a
322.9109	0.85	COLOR_NAME	24	Incongruent	niebieski	blue	czerwony	red	hit	n/a
323.7267	n/a	RESPONSE	n/a	n/a	n/a	n/a	n/a	n/a	n/a	blue
323.7609	1.0167	ITI	n/a	n/a	n/a	n/a	n/a	n/a	n/a	n/a
324.7776	0.5167	FIXCROSS	n/a	n/a	n/a	n/a	n/a	n/a	n/a	n/a
325.2943	0.8333	COLOR_NAME	25	Incongruent	żółty	yellow	zielony	green	hit	n/a
326.1052	n/a	RESPONSE	n/a	n/a	n/a	n/a	n/a	n/a	n/a	yellow
326.1276	1.0167	ITI	n/a	n/a	n/a	n/a	n/a	n/a	n/a	n/a
327.1443	0.5167	FIXCROSS	n/a	n/a	n/a	n/a	n/a	n/a	n/a	n/a
327.661	0.7667	COLOR_NAME	26	Incongruent	czerwony	red	zielony	green	hit	n/a
328.4038	n/a	RESPONSE	n/a	n/a	n/a	n/a	n/a	n/a	n/a	red
328.4276	1.0166	ITI	n/a	n/a	n/a	n/a	n/a	n/a	n/a	n/a
329.4443	0.5167	FIXCROSS	n/a	n/a	n/a	n/a	n/a	n/a	n/a	n/a
329.961	1.15	COLOR_NAME	27	Neutral	czerwony	red	Neutral	Neutral	hit	n/a
331.0854	n/a	RESPONSE	n/a	n/a	n/a	n/a	n/a	n/a	n/a	red
331.111	1.0167	ITI	n/a	n/a	n/a	n/a	n/a	n/a	n/a	n/a
332.1277	0.5167	FIXCROSS	n/a	n/a	n/a	n/a	n/a	n/a	n/a	n/a
332.6443	0.7667	COLOR_NAME	28	Neutral	czerwony	red	Neutral	Neutral	hit	n/a
333.3842	n/a	RESPONSE	n/a	n/a	n/a	n/a	n/a	n/a	n/a	red
333.411	1.0167	ITI	n/a	n/a	n/a	n/a	n/a	n/a	n/a	n/a
334.4277	0.5166	FIXCROSS	n/a	n/a	n/a	n/a	n/a	n/a	n/a	n/a
334.9442	0.6668	COLOR_NAME	29	Incongruent	żółty	yellow	zielony	green	hit	n/a
335.5871	n/a	RESPONSE	n/a	n/a	n/a	n/a	n/a	n/a	n/a	yellow
335.611	1.0167	ITI	n/a	n/a	n/a	n/a	n/a	n/a	n/a	n/a
336.6277	0.5166	FIXCROSS	n/a	n/a	n/a	n/a	n/a	n/a	n/a	n/a
337.1443	1.3001	COLOR_NAME	30	Incongruent	zielony	green	niebieski	blue	hit	n/a
338.4124	n/a	RESPONSE	n/a	n/a	n/a	n/a	n/a	n/a	n/a	green
338.4444	1.0167	ITI	n/a	n/a	n/a	n/a	n/a	n/a	n/a	n/a
339.4611	0.5167	FIXCROSS	n/a	n/a	n/a	n/a	n/a	n/a	n/a	n/a
339.9777	0.7833	COLOR_NAME	31	Incongruent	niebieski	blue	zielony	green	hit	n/a
340.727	n/a	RESPONSE	n/a	n/a	n/a	n/a	n/a	n/a	n/a	blue
340.761	1.0167	ITI	n/a	n/a	n/a	n/a	n/a	n/a	n/a	n/a
341.7777	0.5167	FIXCROSS	n/a	n/a	n/a	n/a	n/a	n/a	n/a	n/a
342.2944	0.5666	COLOR_NAME	32	Neutral	niebieski	blue	Neutral	Neutral	hit	n/a
342.8341	n/a	RESPONSE	n/a	n/a	n/a	n/a	n/a	n/a	n/a	blue
342.861	1.0167	ITI	n/a	n/a	n/a	n/a	n/a	n/a	n/a	n/a
343.8777	0.5167	FIXCROSS	n/a	n/a	n/a	n/a	n/a	n/a	n/a	n/a
344.3944	1.1667	COLOR_NAME	33	Neutral	zielony	green	Neutral	Neutral	hit	n/a
345.5318	n/a	RESPONSE	n/a	n/a	n/a	n/a	n/a	n/a	n/a	green
345.5611	1.0167	ITI	n/a	n/a	n/a	n/a	n/a	n/a	n/a	n/a
346.5778	0.5167	FIXCROSS	n/a	n/a	n/a	n/a	n/a	n/a	n/a	n/a
347.0944	0.7	COLOR_NAME	34	Incongruent	żółty	yellow	niebieski	blue	hit	n/a
347.7667	n/a	RESPONSE	n/a	n/a	n/a	n/a	n/a	n/a	n/a	yellow
347.7944	1.0167	ITI	n/a	n/a	n/a	n/a	n/a	n/a	n/a	n/a
348.8111	0.5167	FIXCROSS	n/a	n/a	n/a	n/a	n/a	n/a	n/a	n/a
349.3278	1.0167	COLOR_NAME	35	Neutral	niebieski	blue	Neutral	Neutral	hit	n/a
350.3206	n/a	RESPONSE	n/a	n/a	n/a	n/a	n/a	n/a	n/a	blue
350.3445	1.0167	ITI	n/a	n/a	n/a	n/a	n/a	n/a	n/a	n/a
351.3611	0.5167	FIXCROSS	n/a	n/a	n/a	n/a	n/a	n/a	n/a	n/a
351.8778	0.5333	COLOR_NAME	36	Neutral	żółty	yellow	Neutral	Neutral	hit	n/a
352.3799	n/a	RESPONSE	n/a	n/a	n/a	n/a	n/a	n/a	n/a	yellow
352.4112	1.0167	ITI	n/a	n/a	n/a	n/a	n/a	n/a	n/a	n/a
353.4278	0.5166	FIXCROSS	n/a	n/a	n/a	n/a	n/a	n/a	n/a	n/a
353.9445	0.7834	COLOR_NAME	37	Incongruent	czerwony	red	żółty	yellow	hit	n/a
354.6945	n/a	RESPONSE	n/a	n/a	n/a	n/a	n/a	n/a	n/a	red
354.7278	1.0167	ITI	n/a	n/a	n/a	n/a	n/a	n/a	n/a	n/a
355.7445	0.5167	FIXCROSS	n/a	n/a	n/a	n/a	n/a	n/a	n/a	n/a
356.2612	1.5833	COLOR_NAME	38	Incongruent	zielony	green	żółty	yellow	hit	n/a
357.8232	n/a	RESPONSE	n/a	n/a	n/a	n/a	n/a	n/a	n/a	green
357.8445	1.0167	ITI	n/a	n/a	n/a	n/a	n/a	n/a	n/a	n/a
358.8612	0.5167	FIXCROSS	n/a	n/a	n/a	n/a	n/a	n/a	n/a	n/a
359.3779	0.8	COLOR_NAME	39	Incongruent	niebieski	blue	żółty	yellow	hit	n/a
360.1537	n/a	RESPONSE	n/a	n/a	n/a	n/a	n/a	n/a	n/a	blue
360.1779	1.0167	ITI	n/a	n/a	n/a	n/a	n/a	n/a	n/a	n/a
361.1946	0.5167	FIXCROSS	n/a	n/a	n/a	n/a	n/a	n/a	n/a	n/a
361.7112	0.95	COLOR_NAME	40	Incongruent	czerwony	red	zielony	green	hit	n/a
362.6279	n/a	RESPONSE	n/a	n/a	n/a	n/a	n/a	n/a	n/a	red
362.6612	1.0167	ITI	n/a	n/a	n/a	n/a	n/a	n/a	n/a	n/a
363.6779	0.5166	FIXCROSS	n/a	n/a	n/a	n/a	n/a	n/a	n/a	n/a
364.1946	0.7834	COLOR_NAME	41	Incongruent	żółty	yellow	czerwony	red	hit	n/a
364.9585	n/a	RESPONSE	n/a	n/a	n/a	n/a	n/a	n/a	n/a	yellow
364.9779	1.0167	ITI	n/a	n/a	n/a	n/a	n/a	n/a	n/a	n/a
365.9946	0.5167	FIXCROSS	n/a	n/a	n/a	n/a	n/a	n/a	n/a	n/a
366.5113	1.0167	COLOR_NAME	42	Incongruent	zielony	green	czerwony	red	hit	n/a
367.4966	n/a	RESPONSE	n/a	n/a	n/a	n/a	n/a	n/a	n/a	green
367.5279	1.0167	ITI	n/a	n/a	n/a	n/a	n/a	n/a	n/a	n/a
368.5446	0.5167	FIXCROSS	n/a	n/a	n/a	n/a	n/a	n/a	n/a	n/a
369.0613	0.4833	COLOR_NAME	43	Neutral	niebieski	blue	Neutral	Neutral	hit	n/a
369.5238	n/a	RESPONSE	n/a	n/a	n/a	n/a	n/a	n/a	n/a	blue
369.5446	1.0166	ITI	n/a	n/a	n/a	n/a	n/a	n/a	n/a	n/a
370.5613	0.5167	FIXCROSS	n/a	n/a	n/a	n/a	n/a	n/a	n/a	n/a
371.078	0.6333	COLOR_NAME	44	Neutral	czerwony	red	Neutral	Neutral	hit	n/a
371.6788	n/a	RESPONSE	n/a	n/a	n/a	n/a	n/a	n/a	n/a	red
371.7113	1.0167	ITI	n/a	n/a	n/a	n/a	n/a	n/a	n/a	n/a
372.728	0.5167	FIXCROSS	n/a	n/a	n/a	n/a	n/a	n/a	n/a	n/a
373.2447	0.95	COLOR_NAME	45	Neutral	niebieski	blue	Neutral	Neutral	hit	n/a
374.169	n/a	RESPONSE	n/a	n/a	n/a	n/a	n/a	n/a	n/a	blue
374.1947	1.0167	ITI	n/a	n/a	n/a	n/a	n/a	n/a	n/a	n/a
375.2113	0.5166	FIXCROSS	n/a	n/a	n/a	n/a	n/a	n/a	n/a	n/a
375.728	0.75	COLOR_NAME	46	Neutral	żółty	yellow	Neutral	Neutral	hit	n/a
376.4518	n/a	RESPONSE	n/a	n/a	n/a	n/a	n/a	n/a	n/a	yellow
376.478	1.0167	ITI	n/a	n/a	n/a	n/a	n/a	n/a	n/a	n/a
377.4947	0.5167	FIXCROSS	n/a	n/a	n/a	n/a	n/a	n/a	n/a	n/a
378.0114	0.8667	COLOR_NAME	47	Incongruent	zielony	green	żółty	yellow	hit	n/a
378.8461	n/a	RESPONSE	n/a	n/a	n/a	n/a	n/a	n/a	n/a	green
378.878	1.0166	ITI	n/a	n/a	n/a	n/a	n/a	n/a	n/a	n/a
379.8947	0.5166	FIXCROSS	n/a	n/a	n/a	n/a	n/a	n/a	n/a	n/a
380.4113	0.6834	COLOR_NAME	48	Neutral	czerwony	red	Neutral	Neutral	hit	n/a
381.0649	n/a	RESPONSE	n/a	n/a	n/a	n/a	n/a	n/a	n/a	red
381.0947	1.0167	ITI	n/a	n/a	n/a	n/a	n/a	n/a	n/a	n/a
382.1114	0.5167	FIXCROSS	n/a	n/a	n/a	n/a	n/a	n/a	n/a	n/a
382.6281	0.8167	COLOR_NAME	49	Incongruent	żółty	yellow	zielony	green	hit	n/a
383.4114	n/a	RESPONSE	n/a	n/a	n/a	n/a	n/a	n/a	n/a	yellow
383.4448	1.0167	ITI	n/a	n/a	n/a	n/a	n/a	n/a	n/a	n/a
384.4614	0.5167	FIXCROSS	n/a	n/a	n/a	n/a	n/a	n/a	n/a	n/a
384.9781	0.4833	COLOR_NAME	50	Incongruent	niebieski	blue	zielony	green	hit	n/a
385.4386	n/a	RESPONSE	n/a	n/a	n/a	n/a	n/a	n/a	n/a	blue
385.4614	1.0167	ITI	n/a	n/a	n/a	n/a	n/a	n/a	n/a	n/a
386.4781	0.5166	FIXCROSS	n/a	n/a	n/a	n/a	n/a	n/a	n/a	n/a
386.9947	1.1	COLOR_NAME	51	Neutral	zielony	green	Neutral	Neutral	hit	n/a
388.0725	n/a	RESPONSE	n/a	n/a	n/a	n/a	n/a	n/a	n/a	green
388.0948	1.0167	ITI	n/a	n/a	n/a	n/a	n/a	n/a	n/a	n/a
389.1115	0.5166	FIXCROSS	n/a	n/a	n/a	n/a	n/a	n/a	n/a	n/a
389.6281	0.6667	COLOR_NAME	52	Neutral	czerwony	red	Neutral	Neutral	hit	n/a
390.2754	n/a	RESPONSE	n/a	n/a	n/a	n/a	n/a	n/a	n/a	red
390.2948	1.0167	ITI	n/a	n/a	n/a	n/a	n/a	n/a	n/a	n/a
391.3115	0.5167	FIXCROSS	n/a	n/a	n/a	n/a	n/a	n/a	n/a	n/a
391.8281	0.7333	COLOR_NAME	53	Incongruent	czerwony	red	zielony	green	incorrect	n/a
392.542	n/a	RESPONSE	n/a	n/a	n/a	n/a	n/a	n/a	n/a	green
392.5615	1.0167	ITI	n/a	n/a	n/a	n/a	n/a	n/a	n/a	n/a
393.5782	0.5167	FIXCROSS	n/a	n/a	n/a	n/a	n/a	n/a	n/a	n/a
394.0948	1.0667	COLOR_NAME	54	Neutral	niebieski	blue	Neutral	Neutral	hit	n/a
395.144	n/a	RESPONSE	n/a	n/a	n/a	n/a	n/a	n/a	n/a	blue
395.1615	1.0167	ITI	n/a	n/a	n/a	n/a	n/a	n/a	n/a	n/a
396.1782	0.5167	FIXCROSS	n/a	n/a	n/a	n/a	n/a	n/a	n/a	n/a
396.6948	0.75	COLOR_NAME	55	Neutral	żółty	yellow	Neutral	Neutral	hit	n/a
397.4266	n/a	RESPONSE	n/a	n/a	n/a	n/a	n/a	n/a	n/a	yellow
397.4449	1.0167	ITI	n/a	n/a	n/a	n/a	n/a	n/a	n/a	n/a
398.4615	0.5167	FIXCROSS	n/a	n/a	n/a	n/a	n/a	n/a	n/a	n/a
398.9782	0.8333	COLOR_NAME	56	Incongruent	czerwony	red	żółty	yellow	hit	n/a
399.7893	n/a	RESPONSE	n/a	n/a	n/a	n/a	n/a	n/a	n/a	red
399.8115	1.0166	ITI	n/a	n/a	n/a	n/a	n/a	n/a	n/a	n/a
400.8282	0.5167	FIXCROSS	n/a	n/a	n/a	n/a	n/a	n/a	n/a	n/a
401.3449	0.5333	COLOR_NAME	57	Neutral	zielony	green	Neutral	Neutral	hit	n/a
401.8483	n/a	RESPONSE	n/a	n/a	n/a	n/a	n/a	n/a	n/a	green
401.8782	1.0167	ITI	n/a	n/a	n/a	n/a	n/a	n/a	n/a	n/a
402.8949	0.5167	FIXCROSS	n/a	n/a	n/a	n/a	n/a	n/a	n/a	n/a
403.4116	1.1333	COLOR_NAME	58	Incongruent	czerwony	red	żółty	yellow	hit	n/a
404.5142	n/a	RESPONSE	n/a	n/a	n/a	n/a	n/a	n/a	n/a	red
404.5449	1.0167	ITI	n/a	n/a	n/a	n/a	n/a	n/a	n/a	n/a
405.5616	0.5166	FIXCROSS	n/a	n/a	n/a	n/a	n/a	n/a	n/a	n/a
406.0782	1.15	COLOR_NAME	59	Neutral	zielony	green	Neutral	Neutral	hit	n/a
407.1959	n/a	RESPONSE	n/a	n/a	n/a	n/a	n/a	n/a	n/a	green
407.2283	1.0166	ITI	n/a	n/a	n/a	n/a	n/a	n/a	n/a	n/a
408.2449	0.5167	FIXCROSS	n/a	n/a	n/a	n/a	n/a	n/a	n/a	n/a
408.7616	2.0	COLOR_NAME	60	Neutral	żółty	yellow	Neutral	Neutral	hit	n/a
410.7396	n/a	RESPONSE	n/a	n/a	n/a	n/a	n/a	n/a	n/a	yellow
410.7616	1.0167	ITI	n/a	n/a	n/a	n/a	n/a	n/a	n/a	n/a
411.7783	0.5167	FIXCROSS	n/a	n/a	n/a	n/a	n/a	n/a	n/a	n/a
412.295	0.9333	COLOR_NAME	61	Incongruent	czerwony	red	niebieski	blue	hit	n/a
413.1978	n/a	RESPONSE	n/a	n/a	n/a	n/a	n/a	n/a	n/a	red
413.2283	1.0167	ITI	n/a	n/a	n/a	n/a	n/a	n/a	n/a	n/a
414.245	0.5166	FIXCROSS	n/a	n/a	n/a	n/a	n/a	n/a	n/a	n/a
414.7616	1.5167	COLOR_NAME	62	Neutral	zielony	green	Neutral	Neutral	hit	n/a
416.2467	n/a	RESPONSE	n/a	n/a	n/a	n/a	n/a	n/a	n/a	green
416.2783	1.0167	ITI	n/a	n/a	n/a	n/a	n/a	n/a	n/a	n/a
417.295	0.5167	FIXCROSS	n/a	n/a	n/a	n/a	n/a	n/a	n/a	n/a
417.8117	0.6167	COLOR_NAME	63	Incongruent	zielony	green	niebieski	blue	hit	n/a
418.4016	n/a	RESPONSE	n/a	n/a	n/a	n/a	n/a	n/a	n/a	green
418.4284	1.0167	ITI	n/a	n/a	n/a	n/a	n/a	n/a	n/a	n/a
419.445	0.5167	FIXCROSS	n/a	n/a	n/a	n/a	n/a	n/a	n/a	n/a
419.9617	0.85	COLOR_NAME	64	Neutral	żółty	yellow	Neutral	Neutral	hit	n/a
420.7801	n/a	RESPONSE	n/a	n/a	n/a	n/a	n/a	n/a	n/a	yellow
420.8117	1.0167	ITI	n/a	n/a	n/a	n/a	n/a	n/a	n/a	n/a
421.8284	0.5167	FIXCROSS	n/a	n/a	n/a	n/a	n/a	n/a	n/a	n/a
422.3451	1.1	COLOR_NAME	65	Incongruent	zielony	green	czerwony	red	hit	n/a
423.414	n/a	RESPONSE	n/a	n/a	n/a	n/a	n/a	n/a	n/a	green
423.4451	1.0167	ITI	n/a	n/a	n/a	n/a	n/a	n/a	n/a	n/a
424.4618	0.5167	FIXCROSS	n/a	n/a	n/a	n/a	n/a	n/a	n/a	n/a
424.9784	0.7	COLOR_NAME	66	Neutral	żółty	yellow	Neutral	Neutral	hit	n/a
425.6487	n/a	RESPONSE	n/a	n/a	n/a	n/a	n/a	n/a	n/a	yellow
425.6784	1.0167	ITI	n/a	n/a	n/a	n/a	n/a	n/a	n/a	n/a
426.6951	0.5166	FIXCROSS	n/a	n/a	n/a	n/a	n/a	n/a	n/a	n/a
427.2117	0.6334	COLOR_NAME	67	Incongruent	żółty	yellow	czerwony	red	hit	n/a
427.8196	n/a	RESPONSE	n/a	n/a	n/a	n/a	n/a	n/a	n/a	yellow
427.8451	1.0167	ITI	n/a	n/a	n/a	n/a	n/a	n/a	n/a	n/a
428.8618	0.5167	FIXCROSS	n/a	n/a	n/a	n/a	n/a	n/a	n/a	n/a
429.3785	0.7667	COLOR_NAME	68	Neutral	zielony	green	Neutral	Neutral	hit	n/a
430.1183	n/a	RESPONSE	n/a	n/a	n/a	n/a	n/a	n/a	n/a	green
430.1451	1.0167	ITI	n/a	n/a	n/a	n/a	n/a	n/a	n/a	n/a
431.1618	0.5167	FIXCROSS	n/a	n/a	n/a	n/a	n/a	n/a	n/a	n/a
431.6785	0.8167	COLOR_NAME	69	Incongruent	niebieski	blue	żółty	yellow	hit	n/a
432.4649	n/a	RESPONSE	n/a	n/a	n/a	n/a	n/a	n/a	n/a	blue
432.4951	1.0167	ITI	n/a	n/a	n/a	n/a	n/a	n/a	n/a	n/a
433.5118	0.5166	FIXCROSS	n/a	n/a	n/a	n/a	n/a	n/a	n/a	n/a
434.0285	0.5333	COLOR_NAME	70	Incongruent	niebieski	blue	żółty	yellow	hit	n/a
434.5399	n/a	RESPONSE	n/a	n/a	n/a	n/a	n/a	n/a	n/a	blue
434.5618	1.0167	ITI	n/a	n/a	n/a	n/a	n/a	n/a	n/a	n/a
435.5785	0.5167	FIXCROSS	n/a	n/a	n/a	n/a	n/a	n/a	n/a	n/a
436.0952	0.75	COLOR_NAME	71	Neutral	niebieski	blue	Neutral	Neutral	hit	n/a
436.8226	n/a	RESPONSE	n/a	n/a	n/a	n/a	n/a	n/a	n/a	blue
436.8452	1.0166	ITI	n/a	n/a	n/a	n/a	n/a	n/a	n/a	n/a
437.8618	0.5167	FIXCROSS	n/a	n/a	n/a	n/a	n/a	n/a	n/a	n/a
438.3785	0.55	COLOR_NAME	72	Incongruent	niebieski	blue	czerwony	red	hit	n/a
438.8978	n/a	RESPONSE	n/a	n/a	n/a	n/a	n/a	n/a	n/a	blue
438.9285	1.0333	ITI	n/a	n/a	n/a	n/a	n/a	n/a	n/a	n/a
442.186	n/a	RESPONSE	n/a	n/a	n/a	n/a	n/a	n/a	n/a	n/a
