onset	duration	trial_type	melody_number	melody_part	key	sound	action
0.0	14.089	CUE_START	n/a	n/a	n/a	n/a	n/a
14.089	7.76	FIXCROSS	n/a	n/a	n/a	n/a	n/a
21.849	6.316	CUE_LISTEN	M1	1	n/a	n/a	n/a
28.164	7.758	FIXCROSS	n/a	n/a	n/a	n/a	n/a
35.923	6.317	CUE_PLAYBACK_RIGHT_HAND	M1	1	n/a	n/a	n/a
36.79	n/a	RESPONSE	M1	1	12	C4	press
37.193	n/a	RESPONSE	M1	1	14	D4	press
37.297	n/a	RESPONSE	M1	1	12	C4	release
37.596	n/a	RESPONSE	M1	1	16	E4	press
37.667	n/a	RESPONSE	M1	1	14	D4	release
38.066	n/a	RESPONSE	M1	1	12	C4	press
38.1	n/a	RESPONSE	M1	1	16	E4	release
38.374	n/a	RESPONSE	M1	1	12	C4	release
38.513	n/a	RESPONSE	M1	1	12	C4	press
38.936	n/a	RESPONSE	M1	1	14	D4	press
39.036	n/a	RESPONSE	M1	1	12	C4	release
39.358	n/a	RESPONSE	M1	1	16	E4	press
39.432	n/a	RESPONSE	M1	1	14	D4	release
39.804	n/a	RESPONSE	M1	1	12	C4	press
39.906	n/a	RESPONSE	M1	1	16	E4	release
40.442	n/a	RESPONSE	M1	1	16	E4	press
40.517	n/a	RESPONSE	M1	1	12	C4	release
40.89	n/a	RESPONSE	M1	1	17	F4	press
40.95	n/a	RESPONSE	M1	1	16	E4	release
41.341	n/a	RESPONSE	M1	1	19	G4	press
41.372	n/a	RESPONSE	M1	1	17	F4	release
42.193	n/a	RESPONSE	M1	1	19	G4	release
42.214	n/a	RESPONSE	M1	1	16	E4	press
42.239	7.758	FIXCROSS	n/a	n/a	n/a	n/a	n/a
42.616	n/a	RESPONSE	M1	1	17	F4	press
42.687	n/a	RESPONSE	M1	1	16	E4	release
43.048	n/a	RESPONSE	M1	1	19	G4	press
43.15	n/a	RESPONSE	M1	1	17	F4	release
43.821	n/a	RESPONSE	M1	1	19	G4	release
49.998	6.317	CUE_LISTEN	        M1	2	n/a	n/a	n/a
56.314	7.758	FIXCROSS	n/a	n/a	n/a	n/a	n/a
64.073	6.325	CUE_PLAYBACK_RIGHT_HAND	        M1	2	n/a	n/a	n/a
64.661	n/a	RESPONSE	        M1	2	19	G4	press
64.934	n/a	RESPONSE	        M1	2	21	A4	press
65.213	n/a	RESPONSE	        M1	2	21	A4	release
65.504	n/a	RESPONSE	        M1	2	19	G4	release
65.716	n/a	RESPONSE	        M1	2	19	G4	press
66.017	n/a	RESPONSE	        M1	2	21	A4	press
66.048	n/a	RESPONSE	        M1	2	19	G4	release
66.29	n/a	RESPONSE	        M1	2	19	G4	press
66.391	n/a	RESPONSE	        M1	2	21	A4	release
66.573	n/a	RESPONSE	        M1	2	17	F4	press
66.663	n/a	RESPONSE	        M1	2	19	G4	release
66.873	n/a	RESPONSE	        M1	2	15	D#4	press
66.92	n/a	RESPONSE	        M1	2	16	E4	press
67.11	n/a	RESPONSE	        M1	2	17	F4	release
67.181	n/a	RESPONSE	        M1	2	15	D#4	release
67.473	n/a	RESPONSE	        M1	2	12	C4	press
67.502	n/a	RESPONSE	        M1	2	14	D4	press
67.538	n/a	RESPONSE	        M1	2	16	E4	release
67.741	n/a	RESPONSE	        M1	2	14	D4	release
67.841	n/a	RESPONSE	        M1	2	12	C4	release
68.117	n/a	RESPONSE	        M1	2	19	G4	press
68.395	n/a	RESPONSE	        M1	2	21	A4	press
68.462	n/a	RESPONSE	        M1	2	19	G4	release
68.667	n/a	RESPONSE	        M1	2	19	G4	press
68.743	n/a	RESPONSE	        M1	2	21	A4	release
68.927	n/a	RESPONSE	        M1	2	17	F4	press
69.058	n/a	RESPONSE	        M1	2	19	G4	release
69.253	n/a	RESPONSE	        M1	2	15	D#4	press
69.276	n/a	RESPONSE	        M1	2	16	E4	press
69.318	n/a	RESPONSE	        M1	2	17	F4	release
69.802	n/a	RESPONSE	        M1	2	15	D#4	release
69.832	n/a	RESPONSE	        M1	2	12	C4	press
69.866	n/a	RESPONSE	        M1	2	16	E4	release
70.398	7.758	FIXCROSS	n/a	n/a	n/a	n/a	n/a
70.67	n/a	RESPONSE	        M1	2	12	C4	release
71.641	n/a	RESPONSE	        M1	2	12	C4	press
72.222	n/a	RESPONSE	        M1	2	07	G3	press
72.393	n/a	RESPONSE	        M1	2	12	C4	release
72.767	n/a	RESPONSE	        M1	2	12	C4	press
72.806	n/a	RESPONSE	        M1	2	07	G3	release
73.487	n/a	RESPONSE	        M1	2	12	C4	release
78.156	6.317	CUE_LISTEN	        M7	1	n/a	n/a	n/a
84.473	7.758	FIXCROSS	n/a	n/a	n/a	n/a	n/a
92.231	6.325	CUE_PLAYBACK_BOTH_HANDS	        M7	1	n/a	n/a	n/a
92.903	n/a	RESPONSE	        M7	1	05	F3	press
92.914	n/a	RESPONSE	        M7	1	21	A4	press
93.126	n/a	RESPONSE	        M7	1	05	F3	release
93.157	n/a	RESPONSE	        M7	1	21	A4	release
93.261	n/a	RESPONSE	        M7	1	09	A3	press
93.311	n/a	RESPONSE	        M7	1	21	A4	press
93.491	n/a	RESPONSE	        M7	1	09	A3	release
93.532	n/a	RESPONSE	        M7	1	21	A4	release
93.653	n/a	RESPONSE	        M7	1	04	E3	press
93.677	n/a	RESPONSE	        M7	1	21	A4	press
93.686	n/a	RESPONSE	        M7	1	05	F3	press
93.738	n/a	RESPONSE	        M7	1	05	F3	release
93.948	n/a	RESPONSE	        M7	1	04	E3	release
94.06	n/a	RESPONSE	        M7	1	09	A3	press
94.251	n/a	RESPONSE	        M7	1	21	A4	release
94.274	n/a	RESPONSE	        M7	1	09	A3	release
94.434	n/a	RESPONSE	        M7	1	02	D3	press
94.446	n/a	RESPONSE	        M7	1	21	A4	press
94.667	n/a	RESPONSE	        M7	1	02	D3	release
94.678	n/a	RESPONSE	        M7	1	21	A4	release
94.79	n/a	RESPONSE	        M7	1	09	A3	press
94.831	n/a	RESPONSE	        M7	1	21	A4	press
95.032	n/a	RESPONSE	        M7	1	21	A4	release
95.043	n/a	RESPONSE	        M7	1	09	A3	release
95.184	n/a	RESPONSE	        M7	1	02	D3	press
95.196	n/a	RESPONSE	        M7	1	21	A4	press
95.517	n/a	RESPONSE	        M7	1	02	D3	release
95.558	n/a	RESPONSE	        M7	1	09	A3	press
95.77	n/a	RESPONSE	        M7	1	21	A4	release
95.801	n/a	RESPONSE	        M7	1	09	A3	release
95.942	n/a	RESPONSE	        M7	1	05	F3	press
95.953	n/a	RESPONSE	        M7	1	21	A4	press
96.204	n/a	RESPONSE	        M7	1	05	F3	release
96.256	n/a	RESPONSE	        M7	1	21	A4	release
96.287	n/a	RESPONSE	        M7	1	23	B4	press
96.308	n/a	RESPONSE	        M7	1	09	A3	press
96.56	n/a	RESPONSE	        M7	1	09	A3	release
96.563	n/a	RESPONSE	        M7	1	23	B4	release
96.642	n/a	RESPONSE	        M7	1	16	E4	press
96.653	n/a	RESPONSE	        M7	1	04	E3	press
96.97	n/a	RESPONSE	        M7	1	04	E3	release
96.991	n/a	RESPONSE	        M7	1	16	E4	release
97.004	n/a	RESPONSE	        M7	1	17	F4	press
97.028	n/a	RESPONSE	        M7	1	09	A3	press
97.286	n/a	RESPONSE	        M7	1	09	A3	release
97.354	n/a	RESPONSE	        M7	1	17	F4	release
97.407	n/a	RESPONSE	        M7	1	19	G4	press
97.422	n/a	RESPONSE	        M7	1	04	E3	press
98.196	n/a	RESPONSE	        M7	1	04	E3	release
98.356	n/a	RESPONSE	        M7	1	19	G4	release
98.556	7.758	FIXCROSS	n/a	n/a	n/a	n/a	n/a
106.315	6.317	CUE_LISTEN	        M7	2	n/a	n/a	n/a
112.631	7.758	FIXCROSS	n/a	n/a	n/a	n/a	n/a
120.39	6.317	CUE_PLAYBACK_BOTH_HANDS	        M7	2	n/a	n/a	n/a
120.967	n/a	RESPONSE	        M7	2	07	G3	press
120.969	n/a	RESPONSE	        M7	2	22	A#4	press
121.29	n/a	RESPONSE	        M7	2	07	G3	release
121.393	n/a	RESPONSE	        M7	2	22	A#4	release
122.082	n/a	RESPONSE	        M7	2	07	G3	press
122.084	n/a	RESPONSE	        M7	2	22	A#4	press
122.404	n/a	RESPONSE	        M7	2	07	G3	release
122.427	n/a	RESPONSE	        M7	2	22	A#4	release
122.677	n/a	RESPONSE	        M7	2	07	G3	press
122.708	n/a	RESPONSE	        M7	2	22	A#4	press
123.03	n/a	RESPONSE	        M7	2	22	A#4	release
123.111	n/a	RESPONSE	        M7	2	07	G3	release
123.124	n/a	RESPONSE	        M7	2	10	A#3	press
123.233	n/a	RESPONSE	        M7	2	22	A#4	press
123.434	n/a	RESPONSE	        M7	2	10	A#3	release
123.456	n/a	RESPONSE	        M7	2	22	A#4	release
123.62	n/a	RESPONSE	        M7	2	04	E3	press
123.628	n/a	RESPONSE	        M7	2	22	A#4	press
123.891	n/a	RESPONSE	        M7	2	22	A#4	release
123.903	n/a	RESPONSE	        M7	2	04	E3	release
124.026	n/a	RESPONSE	        M7	2	10	A#3	press
124.104	n/a	RESPONSE	        M7	2	22	A#4	press
124.256	n/a	RESPONSE	        M7	2	10	A#3	release
124.307	n/a	RESPONSE	        M7	2	22	A#4	release
124.528	n/a	RESPONSE	        M7	2	05	F3	press
124.541	n/a	RESPONSE	        M7	2	22	A#4	press
124.781	n/a	RESPONSE	        M7	2	05	F3	release
124.832	n/a	RESPONSE	        M7	2	22	A#4	release
125.003	n/a	RESPONSE	        M7	2	09	A3	press
125.014	n/a	RESPONSE	        M7	2	21	A4	press
125.256	n/a	RESPONSE	        M7	2	09	A3	release
125.45	n/a	RESPONSE	        M7	2	21	A4	release
125.538	n/a	RESPONSE	        M7	2	02	D3	press
125.549	n/a	RESPONSE	        M7	2	21	A4	press
125.871	n/a	RESPONSE	        M7	2	21	A4	release
125.892	n/a	RESPONSE	        M7	2	02	D3	release
125.973	n/a	RESPONSE	        M7	2	09	A3	press
126.014	n/a	RESPONSE	        M7	2	21	A4	press
126.336	n/a	RESPONSE	        M7	2	21	A4	release
126.417	n/a	RESPONSE	        M7	2	09	A3	release
126.706	7.758	FIXCROSS	n/a	n/a	n/a	n/a	n/a
126.858	n/a	RESPONSE	        M7	2	02	D3	press
126.912	n/a	RESPONSE	        M7	2	21	A4	press
127.357	n/a	RESPONSE	        M7	2	02	D3	release
127.387	n/a	RESPONSE	        M7	2	21	A4	release
128.136	n/a	RESPONSE	        M7	2	02	D3	press
128.155	n/a	RESPONSE	        M7	2	24	C5	press
128.51	n/a	RESPONSE	        M7	2	02	D3	release
128.616	n/a	RESPONSE	        M7	2	07	G3	press
128.923	n/a	RESPONSE	        M7	2	07	G3	release
129.146	n/a	RESPONSE	        M7	2	24	C5	release
129.167	n/a	RESPONSE	        M7	2	04	E3	press
129.187	n/a	RESPONSE	        M7	2	22	A#4	press
129.643	n/a	RESPONSE	        M7	2	22	A#4	release
129.651	n/a	RESPONSE	        M7	2	04	E3	release
129.836	n/a	RESPONSE	        M7	2	07	G3	press
129.866	n/a	RESPONSE	        M7	2	19	G4	press
129.878	n/a	RESPONSE	        M7	2	21	A4	press
130.216	n/a	RESPONSE	        M7	2	21	A4	release
130.351	n/a	RESPONSE	        M7	2	19	G4	release
130.67	n/a	RESPONSE	        M7	2	21	A4	press
131.111	n/a	RESPONSE	        M7	2	21	A4	release
131.153	n/a	RESPONSE	        M7	2	07	G3	release
131.366	n/a	RESPONSE	        M7	2	05	F3	press
131.396	n/a	RESPONSE	        M7	2	19	G4	press
132.057	n/a	RESPONSE	        M7	2	05	F3	release
132.418	n/a	RESPONSE	        M7	2	19	G4	release
134.465	6.325	CUE_LISTEN	        M5	1	n/a	n/a	n/a
139.117	n/a	RESPONSE	        M5	1	07	G3	press
139.728	n/a	RESPONSE	        M5	1	07	G3	release
140.79	7.758	FIXCROSS	n/a	n/a	n/a	n/a	n/a
141.021	n/a	RESPONSE	        M5	1	07	G3	press
141.432	n/a	RESPONSE	        M5	1	07	G3	release
148.548	6.317	CUE_PLAYBACK_BOTH_HANDS	        M5	1	n/a	n/a	n/a
149.71	n/a	RESPONSE	        M5	1	19	G4	press
149.718	n/a	RESPONSE	        M5	1	00	C3	press
149.729	n/a	RESPONSE	        M5	1	07	G3	press
149.742	n/a	RESPONSE	        M5	1	04	E3	press
150.221	n/a	RESPONSE	        M5	1	19	G4	release
150.258	n/a	RESPONSE	        M5	1	16	E4	press
150.531	n/a	RESPONSE	        M5	1	16	E4	release
150.783	n/a	RESPONSE	        M5	1	16	E4	press
150.963	n/a	RESPONSE	        M5	1	00	C3	release
150.974	n/a	RESPONSE	        M5	1	04	E3	release
151.056	n/a	RESPONSE	        M5	1	16	E4	release
151.287	n/a	RESPONSE	        M5	1	05	F3	press
151.308	n/a	RESPONSE	        M5	1	02	D3	press
151.311	n/a	RESPONSE	        M5	1	17	F4	press
151.762	n/a	RESPONSE	        M5	1	17	F4	release
151.872	n/a	RESPONSE	        M5	1	14	D4	press
152.103	n/a	RESPONSE	        M5	1	14	D4	release
152.354	n/a	RESPONSE	        M5	1	14	D4	press
152.456	n/a	RESPONSE	        M5	1	02	D3	release
152.617	n/a	RESPONSE	        M5	1	14	D4	release
152.628	n/a	RESPONSE	        M5	1	05	F3	release
152.912	n/a	RESPONSE	        M5	1	04	E3	press
152.932	n/a	RESPONSE	        M5	1	12	C4	press
152.934	n/a	RESPONSE	        M5	1	00	C3	press
153.193	n/a	RESPONSE	        M5	1	16	E4	press
153.286	n/a	RESPONSE	        M5	1	12	C4	release
153.516	n/a	RESPONSE	        M5	1	19	G4	press
153.568	n/a	RESPONSE	        M5	1	16	E4	release
154.865	7.758	FIXCROSS	n/a	n/a	n/a	n/a	n/a
154.918	n/a	RESPONSE	        M5	1	19	G4	release
155.029	n/a	RESPONSE	        M5	1	04	E3	release
155.181	n/a	RESPONSE	        M5	1	00	C3	release
155.252	n/a	RESPONSE	        M5	1	07	G3	release
162.623	6.317	CUE_LISTEN	        M5	2	n/a	n/a	n/a
168.94	7.758	FIXCROSS	n/a	n/a	n/a	n/a	n/a
176.698	6.325	CUE_PLAYBACK_BOTH_HANDS	        M5	2	n/a	n/a	n/a
178.453	n/a	RESPONSE	        M5	2	19	G4	press
178.468	n/a	RESPONSE	        M5	2	00	C3	press
178.479	n/a	RESPONSE	        M5	2	07	G3	press
178.489	n/a	RESPONSE	        M5	2	04	E3	press
178.911	n/a	RESPONSE	        M5	2	19	G4	release
178.987	n/a	RESPONSE	        M5	2	16	E4	press
179.244	n/a	RESPONSE	        M5	2	16	E4	release
179.453	n/a	RESPONSE	        M5	2	16	E4	press
179.66	n/a	RESPONSE	        M5	2	04	E3	release
179.726	n/a	RESPONSE	        M5	2	16	E4	release
179.742	n/a	RESPONSE	        M5	2	00	C3	release
180.031	n/a	RESPONSE	        M5	2	17	F4	press
180.044	n/a	RESPONSE	        M5	2	05	F3	press
180.051	n/a	RESPONSE	        M5	2	02	D3	press
180.533	n/a	RESPONSE	        M5	2	14	D4	press
180.544	n/a	RESPONSE	        M5	2	17	F4	release
180.816	n/a	RESPONSE	        M5	2	14	D4	release
180.977	n/a	RESPONSE	        M5	2	14	D4	press
181.068	n/a	RESPONSE	        M5	2	02	D3	release
181.139	n/a	RESPONSE	        M5	2	05	F3	release
181.241	n/a	RESPONSE	        M5	2	14	D4	release
181.462	n/a	RESPONSE	        M5	2	00	C3	press
181.483	n/a	RESPONSE	        M5	2	04	E3	press
181.517	n/a	RESPONSE	        M5	2	12	C4	press
181.776	n/a	RESPONSE	        M5	2	16	E4	press
181.887	n/a	RESPONSE	        M5	2	12	C4	release
182.108	n/a	RESPONSE	        M5	2	12	C4	press
182.171	n/a	RESPONSE	        M5	2	16	E4	release
183.023	7.758	FIXCROSS	n/a	n/a	n/a	n/a	n/a
183.351	n/a	RESPONSE	        M5	2	12	C4	release
183.373	n/a	RESPONSE	        M5	2	00	C3	release
183.426	n/a	RESPONSE	        M5	2	04	E3	release
187.482	n/a	RESPONSE	        M5	2	07	G3	release
190.781	6.317	CUE_LISTEN	        M3	1	n/a	n/a	n/a
197.098	7.758	FIXCROSS	n/a	n/a	n/a	n/a	n/a
204.856	6.317	CUE_PLAYBACK_RIGHT_HAND	        M3	1	n/a	n/a	n/a
205.531	n/a	RESPONSE	        M3	1	22	A#4	press
206.141	n/a	RESPONSE	        M3	1	21	A4	press
206.272	n/a	RESPONSE	        M3	1	22	A#4	release
206.776	n/a	RESPONSE	        M3	1	19	G4	press
206.864	n/a	RESPONSE	        M3	1	21	A4	release
207.387	n/a	RESPONSE	        M3	1	21	A4	press
207.516	n/a	RESPONSE	        M3	1	19	G4	release
209.706	n/a	RESPONSE	        M3	1	21	A4	release
209.714	n/a	RESPONSE	        M3	1	14	D4	press
209.74	n/a	RESPONSE	        M3	1	16	E4	press
209.929	n/a	RESPONSE	        M3	1	16	E4	release
210.133	n/a	RESPONSE	        M3	1	14	D4	release
210.438	n/a	RESPONSE	        M3	1	14	D4	press
210.963	n/a	RESPONSE	        M3	1	14	D4	release
211.173	7.758	FIXCROSS	n/a	n/a	n/a	n/a	n/a
211.752	n/a	RESPONSE	        M3	1	19	G4	press
212.586	n/a	RESPONSE	        M3	1	19	G4	release
212.716	n/a	RESPONSE	        M3	1	07	G3	press
213.136	n/a	RESPONSE	        M3	1	09	A3	press
213.207	n/a	RESPONSE	        M3	1	07	G3	release
213.661	n/a	RESPONSE	        M3	1	10	A#3	press
213.749	n/a	RESPONSE	        M3	1	09	A3	release
214.071	n/a	RESPONSE	        M3	1	12	C4	press
214.132	n/a	RESPONSE	        M3	1	10	A#3	release
214.523	n/a	RESPONSE	        M3	1	13	C#4	press
214.614	n/a	RESPONSE	        M3	1	12	C4	release
214.716	n/a	RESPONSE	        M3	1	12	C4	press
214.888	n/a	RESPONSE	        M3	1	13	C#4	release
215.038	n/a	RESPONSE	        M3	1	12	C4	release
216.041	n/a	RESPONSE	        M3	1	07	G3	press
216.442	n/a	RESPONSE	        M3	1	09	A3	press
216.542	n/a	RESPONSE	        M3	1	07	G3	release
216.823	n/a	RESPONSE	        M3	1	10	A#3	press
216.874	n/a	RESPONSE	        M3	1	09	A3	release
217.224	n/a	RESPONSE	        M3	1	12	C4	press
217.267	n/a	RESPONSE	        M3	1	10	A#3	release
217.778	n/a	RESPONSE	        M3	1	14	D4	press
218.104	n/a	RESPONSE	        M3	1	12	C4	release
218.932	6.325	CUE_LISTEN	        M3	2	n/a	n/a	n/a
218.981	n/a	RESPONSE	        M3	2	14	D4	release
225.256	7.758	FIXCROSS	n/a	n/a	n/a	n/a	n/a
233.015	6.317	CUE_PLAYBACK_RIGHT_HAND	        M3	2	n/a	n/a	n/a
233.593	n/a	RESPONSE	        M3	2	15	D#4	press
234.297	n/a	RESPONSE	        M3	2	17	F4	press
234.356	n/a	RESPONSE	        M3	2	15	D#4	release
234.638	n/a	RESPONSE	        M3	2	15	D#4	press
234.738	n/a	RESPONSE	        M3	2	17	F4	release
235.019	n/a	RESPONSE	        M3	2	14	D4	press
235.101	n/a	RESPONSE	        M3	2	15	D#4	release
235.362	n/a	RESPONSE	        M3	2	12	C4	press
235.426	n/a	RESPONSE	        M3	2	14	D4	release
235.754	n/a	RESPONSE	        M3	2	14	D4	press
235.848	n/a	RESPONSE	        M3	2	12	C4	release
236.658	n/a	RESPONSE	        M3	2	15	D#4	press
236.738	n/a	RESPONSE	        M3	2	14	D4	release
237.052	n/a	RESPONSE	        M3	2	14	D4	press
237.173	n/a	RESPONSE	        M3	2	15	D#4	release
237.419	n/a	RESPONSE	        M3	2	12	C4	press
237.466	n/a	RESPONSE	        M3	2	14	D4	release
237.941	n/a	RESPONSE	        M3	2	10	A#3	press
238.077	n/a	RESPONSE	        M3	2	12	C4	release
238.408	n/a	RESPONSE	        M3	2	12	C4	press
238.521	n/a	RESPONSE	        M3	2	10	A#3	release
239.252	n/a	RESPONSE	        M3	2	14	D4	press
239.313	n/a	RESPONSE	        M3	2	12	C4	release
239.332	7.758	FIXCROSS	n/a	n/a	n/a	n/a	n/a
239.637	n/a	RESPONSE	        M3	2	12	C4	press
239.683	n/a	RESPONSE	        M3	2	14	D4	release
240.031	n/a	RESPONSE	        M3	2	10	A#3	press
240.101	n/a	RESPONSE	        M3	2	12	C4	release
240.452	n/a	RESPONSE	        M3	2	12	C4	press
240.457	n/a	RESPONSE	        M3	2	13	C#4	press
240.522	n/a	RESPONSE	        M3	2	10	A#3	release
240.733	n/a	RESPONSE	        M3	2	13	C#4	release
240.884	n/a	RESPONSE	        M3	2	09	A3	press
240.946	n/a	RESPONSE	        M3	2	12	C4	release
242.179	n/a	RESPONSE	        M3	2	09	A3	release
247.09	6.317	CUE_LISTEN	        M6	1	n/a	n/a	n/a
253.406	7.758	FIXCROSS	n/a	n/a	n/a	n/a	n/a
261.165	6.325	CUE_PLAYBACK_RIGHT_HAND	        M6	1	n/a	n/a	n/a
261.897	n/a	RESPONSE	        M6	1	12	C4	press
262.378	n/a	RESPONSE	        M6	1	17	F4	press
262.419	n/a	RESPONSE	        M6	1	12	C4	release
262.841	n/a	RESPONSE	        M6	1	21	A4	press
262.902	n/a	RESPONSE	        M6	1	17	F4	release
263.243	n/a	RESPONSE	        M6	1	19	G4	press
263.484	n/a	RESPONSE	        M6	1	21	A4	release
263.726	n/a	RESPONSE	        M6	1	17	F4	press
263.838	n/a	RESPONSE	        M6	1	19	G4	release
264.118	n/a	RESPONSE	        M6	1	16	E4	press
264.229	n/a	RESPONSE	        M6	1	17	F4	release
264.531	n/a	RESPONSE	        M6	1	17	F4	press
264.623	n/a	RESPONSE	        M6	1	16	E4	release
265.656	n/a	RESPONSE	        M6	1	17	F4	release
265.724	n/a	RESPONSE	        M6	1	12	C4	press
266.106	n/a	RESPONSE	        M6	1	17	F4	press
266.147	n/a	RESPONSE	        M6	1	12	C4	release
266.558	n/a	RESPONSE	        M6	1	21	A4	press
266.689	n/a	RESPONSE	        M6	1	17	F4	release
266.894	n/a	RESPONSE	        M6	1	19	G4	press
267.118	n/a	RESPONSE	        M6	1	21	A4	release
267.262	n/a	RESPONSE	        M6	1	17	F4	press
267.339	n/a	RESPONSE	        M6	1	19	G4	release
267.49	7.758	FIXCROSS	n/a	n/a	n/a	n/a	n/a
267.608	n/a	RESPONSE	        M6	1	16	E4	press
267.717	n/a	RESPONSE	        M6	1	17	F4	release
267.999	n/a	RESPONSE	        M6	1	17	F4	press
268.096	n/a	RESPONSE	        M6	1	16	E4	release
268.996	n/a	RESPONSE	        M6	1	17	F4	release
275.248	6.317	CUE_LISTEN	        M6	2	n/a	n/a	n/a
281.565	7.758	FIXCROSS	n/a	n/a	n/a	n/a	n/a
289.323	6.325	CUE_PLAYBACK_RIGHT_HAND	        M6	2	n/a	n/a	n/a
289.972	n/a	RESPONSE	        M6	2	12	C4	press
290.363	n/a	RESPONSE	        M6	2	17	F4	press
290.431	n/a	RESPONSE	        M6	2	12	C4	release
292.229	n/a	RESPONSE	        M6	2	21	A4	press
292.241	n/a	RESPONSE	        M6	2	17	F4	release
294.092	n/a	RESPONSE	        M6	2	24	C5	press
294.143	n/a	RESPONSE	        M6	2	21	A4	release
294.644	n/a	RESPONSE	        M6	2	22	A#4	press
294.996	n/a	RESPONSE	        M6	2	24	C5	release
295.447	n/a	RESPONSE	        M6	2	21	A4	press
295.589	n/a	RESPONSE	        M6	2	22	A#4	release
295.648	7.759	FIXCROSS	n/a	n/a	n/a	n/a	n/a
295.989	n/a	RESPONSE	        M6	2	19	G4	press
296.081	n/a	RESPONSE	        M6	2	21	A4	release
298.667	n/a	RESPONSE	        M6	2	19	G4	release
298.787	n/a	RESPONSE	        M6	2	12	C4	press
299.257	n/a	RESPONSE	        M6	2	17	F4	press
299.277	n/a	RESPONSE	        M6	2	12	C4	release
299.968	n/a	RESPONSE	        M6	2	21	A4	press
300.069	n/a	RESPONSE	        M6	2	17	F4	release
302.043	n/a	RESPONSE	        M6	2	22	A#4	press
302.096	n/a	RESPONSE	        M6	2	21	A4	release
302.496	n/a	RESPONSE	        M6	2	22	A#4	release
302.728	n/a	RESPONSE	        M6	2	21	A4	press
303.188	n/a	RESPONSE	        M6	2	19	G4	press
303.407	6.317	CUE_LISTEN	        M2	1	n/a	n/a	n/a
303.589	n/a	RESPONSE	        M2	1	21	A4	release
303.711	n/a	RESPONSE	        M2	1	17	F4	press
303.813	n/a	RESPONSE	        M2	1	19	G4	release
304.163	n/a	RESPONSE	        M2	1	17	F4	release
309.684	n/a	RESPONSE	        M2	1	07	G3	press
309.723	7.758	FIXCROSS	n/a	n/a	n/a	n/a	n/a
316.077	n/a	RESPONSE	        M2	1	19	G4	press
316.388	n/a	RESPONSE	        M2	1	19	G4	release
317.482	6.317	CUE_PLAYBACK_BOTH_HANDS	        M2	1	n/a	n/a	n/a
318.614	n/a	RESPONSE	        M2	1	24	C5	press
318.626	n/a	RESPONSE	        M2	1	00	C3	press
319.027	n/a	RESPONSE	        M2	1	00	C3	release
319.037	n/a	RESPONSE	        M2	1	19	G4	press
319.284	n/a	RESPONSE	        M2	1	19	G4	release
319.288	n/a	RESPONSE	        M2	1	24	C5	release
319.478	n/a	RESPONSE	        M2	1	00	C3	press
319.508	n/a	RESPONSE	        M2	1	19	G4	press
319.532	n/a	RESPONSE	        M2	1	20	G#4	press
319.772	n/a	RESPONSE	        M2	1	20	G#4	release
319.891	n/a	RESPONSE	        M2	1	00	C3	release
320.128	n/a	RESPONSE	        M2	1	19	G4	release
320.936	n/a	RESPONSE	        M2	1	07	G3	release
321.424	n/a	RESPONSE	        M2	1	24	C5	press
321.516	n/a	RESPONSE	        M2	1	00	C3	press
321.528	n/a	RESPONSE	        M2	1	07	G3	press
321.828	n/a	RESPONSE	        M2	1	24	C5	release
321.869	n/a	RESPONSE	        M2	1	00	C3	release
322.012	n/a	RESPONSE	        M2	1	19	G4	press
322.262	n/a	RESPONSE	        M2	1	07	G3	release
322.453	n/a	RESPONSE	        M2	1	00	C3	press
322.456	n/a	RESPONSE	        M2	1	07	G3	press
322.746	n/a	RESPONSE	        M2	1	00	C3	release
322.867	n/a	RESPONSE	        M2	1	19	G4	release
322.908	n/a	RESPONSE	        M2	1	17	F4	press
323.319	n/a	RESPONSE	        M2	1	16	E4	press
323.332	n/a	RESPONSE	        M2	1	00	C3	press
323.392	n/a	RESPONSE	        M2	1	17	F4	release
323.633	n/a	RESPONSE	        M2	1	00	C3	release
323.686	n/a	RESPONSE	        M2	1	17	F4	press
323.688	n/a	RESPONSE	        M2	1	16	E4	release
323.798	7.758	FIXCROSS	n/a	n/a	n/a	n/a	n/a
323.867	n/a	RESPONSE	        M2	1	07	G3	release
324.068	n/a	RESPONSE	        M2	1	17	F4	release
324.079	n/a	RESPONSE	        M2	1	19	G4	press
324.101	n/a	RESPONSE	        M2	1	00	C3	press
324.112	n/a	RESPONSE	        M2	1	07	G3	press
324.633	n/a	RESPONSE	        M2	1	07	G3	release
324.636	n/a	RESPONSE	        M2	1	00	C3	release
324.706	n/a	RESPONSE	        M2	1	19	G4	release
324.917	n/a	RESPONSE	        M2	1	24	C5	press
324.928	n/a	RESPONSE	        M2	1	00	C3	press
324.941	n/a	RESPONSE	        M2	1	07	G3	press
325.261	n/a	RESPONSE	        M2	1	24	C5	release
325.263	n/a	RESPONSE	        M2	1	00	C3	release
325.384	n/a	RESPONSE	        M2	1	19	G4	press
325.574	n/a	RESPONSE	        M2	1	07	G3	release
325.607	n/a	RESPONSE	        M2	1	19	G4	release
325.767	n/a	RESPONSE	        M2	1	00	C3	press
325.769	n/a	RESPONSE	        M2	1	07	G3	press
325.789	n/a	RESPONSE	        M2	1	19	G4	press
326.103	n/a	RESPONSE	        M2	1	00	C3	release
326.182	n/a	RESPONSE	        M2	1	17	F4	press
326.253	n/a	RESPONSE	        M2	1	19	G4	release
326.364	n/a	RESPONSE	        M2	1	07	G3	release
326.547	n/a	RESPONSE	        M2	1	16	E4	press
326.559	n/a	RESPONSE	        M2	1	07	G3	press
326.568	n/a	RESPONSE	        M2	1	00	C3	press
326.819	n/a	RESPONSE	        M2	1	17	F4	release
326.877	n/a	RESPONSE	        M2	1	00	C3	release
326.967	n/a	RESPONSE	        M2	1	14	D4	press
327.031	n/a	RESPONSE	        M2	1	16	E4	release
327.073	n/a	RESPONSE	        M2	1	07	G3	release
327.363	n/a	RESPONSE	        M2	1	07	G3	press
327.366	n/a	RESPONSE	        M2	1	00	C3	press
327.368	n/a	RESPONSE	        M2	1	12	C4	press
328.147	n/a	RESPONSE	        M2	1	14	D4	release
328.252	n/a	RESPONSE	        M2	1	00	C3	release
328.318	n/a	RESPONSE	        M2	1	12	C4	release
328.344	n/a	RESPONSE	        M2	1	07	G3	release
331.557	6.325	CUE_LISTEN	        M2	2	n/a	n/a	n/a
337.882	7.758	FIXCROSS	n/a	n/a	n/a	n/a	n/a
345.64	6.317	CUE_PLAYBACK_BOTH_HANDS	        M2	2	n/a	n/a	n/a
346.379	n/a	RESPONSE	        M2	2	00	C3	press
346.382	n/a	RESPONSE	        M2	2	07	G3	press
346.402	n/a	RESPONSE	        M2	2	12	C4	press
346.773	n/a	RESPONSE	        M2	2	00	C3	release
346.814	n/a	RESPONSE	        M2	2	14	D4	press
346.889	n/a	RESPONSE	        M2	2	12	C4	release
347.004	n/a	RESPONSE	        M2	2	07	G3	release
347.132	n/a	RESPONSE	        M2	2	14	D4	release
347.218	n/a	RESPONSE	        M2	2	00	C3	press
347.227	n/a	RESPONSE	        M2	2	16	E4	press
347.231	n/a	RESPONSE	        M2	2	07	G3	press
347.598	n/a	RESPONSE	        M2	2	00	C3	release
347.631	n/a	RESPONSE	        M2	2	16	E4	release
347.672	n/a	RESPONSE	        M2	2	14	D4	press
347.718	n/a	RESPONSE	        M2	2	07	G3	release
348.059	n/a	RESPONSE	        M2	2	00	C3	press
348.073	n/a	RESPONSE	        M2	2	14	D4	release
348.076	n/a	RESPONSE	        M2	2	07	G3	press
348.083	n/a	RESPONSE	        M2	2	16	E4	press
348.444	n/a	RESPONSE	        M2	2	16	E4	release
348.469	n/a	RESPONSE	        M2	2	00	C3	release
348.499	n/a	RESPONSE	        M2	2	17	F4	press
348.646	n/a	RESPONSE	        M2	2	07	G3	release
348.858	n/a	RESPONSE	        M2	2	19	G4	press
348.872	n/a	RESPONSE	        M2	2	00	C3	press
348.878	n/a	RESPONSE	        M2	2	17	F4	release
348.9	n/a	RESPONSE	        M2	2	07	G3	press
349.333	n/a	RESPONSE	        M2	2	19	G4	release
349.362	n/a	RESPONSE	        M2	2	00	C3	release
349.507	n/a	RESPONSE	        M2	2	07	G3	release
350.101	n/a	RESPONSE	        M2	2	00	C3	press
350.103	n/a	RESPONSE	        M2	2	16	E4	press
350.106	n/a	RESPONSE	        M2	2	07	G3	press
350.454	n/a	RESPONSE	        M2	2	16	E4	release
350.467	n/a	RESPONSE	        M2	2	00	C3	release
350.569	n/a	RESPONSE	        M2	2	17	F4	press
350.738	n/a	RESPONSE	        M2	2	07	G3	release
350.889	n/a	RESPONSE	        M2	2	17	F4	release
351.581	n/a	RESPONSE	        M2	2	00	C3	press
351.592	n/a	RESPONSE	        M2	2	19	G4	press
351.594	n/a	RESPONSE	        M2	2	07	G3	press
351.944	n/a	RESPONSE	        M2	2	00	C3	release
351.947	n/a	RESPONSE	        M2	2	19	G4	release
351.957	7.758	FIXCROSS	n/a	n/a	n/a	n/a	n/a
352.467	n/a	RESPONSE	        M2	2	00	C3	press
352.491	n/a	RESPONSE	        M2	2	16	E4	press
352.809	n/a	RESPONSE	        M2	2	00	C3	release
352.842	n/a	RESPONSE	        M2	2	16	E4	release
352.912	n/a	RESPONSE	        M2	2	19	G4	press
353.143	n/a	RESPONSE	        M2	2	07	G3	release
353.184	n/a	RESPONSE	        M2	2	19	G4	release
353.326	n/a	RESPONSE	        M2	2	00	C3	press
353.328	n/a	RESPONSE	        M2	2	07	G3	press
353.338	n/a	RESPONSE	        M2	2	19	G4	press
353.702	n/a	RESPONSE	        M2	2	00	C3	release
353.742	n/a	RESPONSE	        M2	2	17	F4	press
354.023	n/a	RESPONSE	        M2	2	07	G3	release
354.064	n/a	RESPONSE	        M2	2	17	F4	release
354.146	n/a	RESPONSE	        M2	2	00	C3	press
354.148	n/a	RESPONSE	        M2	2	16	E4	press
354.158	n/a	RESPONSE	        M2	2	07	G3	press
354.502	n/a	RESPONSE	        M2	2	00	C3	release
354.563	n/a	RESPONSE	        M2	2	14	D4	press
354.582	n/a	RESPONSE	        M2	2	16	E4	release
354.724	n/a	RESPONSE	        M2	2	07	G3	release
354.974	n/a	RESPONSE	        M2	2	14	D4	release
354.988	n/a	RESPONSE	        M2	2	00	C3	press
354.997	n/a	RESPONSE	        M2	2	07	G3	press
354.999	n/a	RESPONSE	        M2	2	12	C4	press
355.792	n/a	RESPONSE	        M2	2	00	C3	release
355.871	n/a	RESPONSE	        M2	2	12	C4	release
359.715	6.317	CUE_LISTEN	        M8	1	n/a	n/a	n/a
362.742	n/a	RESPONSE	        M8	1	07	G3	release
366.032	7.758	FIXCROSS	n/a	n/a	n/a	n/a	n/a
369.056	n/a	RESPONSE	        M8	1	16	E4	press
369.304	n/a	RESPONSE	        M8	1	16	E4	release
373.79	6.325	CUE_PLAYBACK_BOTH_HANDS	        M8	1	n/a	n/a	n/a
373.843	n/a	RESPONSE	        M8	1	17	F4	press
374.154	n/a	RESPONSE	        M8	1	17	F4	release
374.506	n/a	RESPONSE	        M8	1	16	E4	press
374.777	n/a	RESPONSE	        M8	1	19	G4	press
374.909	n/a	RESPONSE	        M8	1	16	E4	release
375.099	n/a	RESPONSE	        M8	1	23	B4	press
375.12	n/a	RESPONSE	        M8	1	19	G4	release
375.423	n/a	RESPONSE	        M8	1	23	B4	release
375.553	n/a	RESPONSE	        M8	1	23	B4	press
376.034	n/a	RESPONSE	        M8	1	09	A3	press
376.086	n/a	RESPONSE	        M8	1	18	F#4	press
376.137	n/a	RESPONSE	        M8	1	23	B4	release
376.418	n/a	RESPONSE	        M8	1	13	C#4	press
376.579	n/a	RESPONSE	        M8	1	09	A3	release
376.861	n/a	RESPONSE	        M8	1	18	F#4	release
377.092	n/a	RESPONSE	        M8	1	21	A4	press
377.157	n/a	RESPONSE	        M8	1	13	C#4	release
377.451	n/a	RESPONSE	        M8	1	21	A4	release
377.738	n/a	RESPONSE	        M8	1	21	A4	press
378.067	n/a	RESPONSE	        M8	1	21	A4	release
378.344	n/a	RESPONSE	        M8	1	21	A4	press
378.739	n/a	RESPONSE	        M8	1	21	A4	release
379.184	n/a	RESPONSE	        M8	1	23	B4	press
380.115	7.758	FIXCROSS	n/a	n/a	n/a	n/a	n/a
380.379	n/a	RESPONSE	        M8	1	21	A4	press
380.582	n/a	RESPONSE	        M8	1	23	B4	release
380.743	n/a	RESPONSE	        M8	1	19	G4	press
380.834	n/a	RESPONSE	        M8	1	21	A4	release
381.356	n/a	RESPONSE	        M8	1	18	F#4	press
381.447	n/a	RESPONSE	        M8	1	19	G4	release
382.629	n/a	RESPONSE	        M8	1	12	C4	press
383.069	n/a	RESPONSE	        M8	1	18	F#4	release
383.072	n/a	RESPONSE	        M8	1	19	G4	press
383.074	n/a	RESPONSE	        M8	1	09	A3	press
383.106	n/a	RESPONSE	        M8	1	12	C4	release
383.454	n/a	RESPONSE	        M8	1	09	A3	release
383.848	n/a	RESPONSE	        M8	1	19	G4	release
384.788	n/a	RESPONSE	        M8	1	16	E4	press
385.249	n/a	RESPONSE	        M8	1	16	E4	release
385.329	n/a	RESPONSE	        M8	1	23	B4	press
385.341	n/a	RESPONSE	        M8	1	09	A3	press
385.672	n/a	RESPONSE	        M8	1	09	A3	release
385.913	n/a	RESPONSE	        M8	1	23	B4	release
386.304	n/a	RESPONSE	        M8	1	09	A3	press
387.416	n/a	RESPONSE	        M8	1	09	A3	release
387.874	6.317	CUE_LISTEN	        M8	2	n/a	n/a	n/a
394.19	7.758	FIXCROSS	n/a	n/a	n/a	n/a	n/a
401.948	6.317	CUE_PLAYBACK_BOTH_HANDS	        M8	2	n/a	n/a	n/a
402.786	n/a	RESPONSE	        M8	2	17	F4	press
403.117	n/a	RESPONSE	        M8	2	19	G4	press
403.271	n/a	RESPONSE	        M8	2	19	G4	release
403.469	n/a	RESPONSE	        M8	2	17	F4	release
403.991	n/a	RESPONSE	        M8	2	17	F4	press
404.302	n/a	RESPONSE	        M8	2	21	A4	press
404.453	n/a	RESPONSE	        M8	2	17	F4	release
404.874	n/a	RESPONSE	        M8	2	21	A4	release
406.626	n/a	RESPONSE	        M8	2	16	E4	press
406.932	n/a	RESPONSE	        M8	2	19	G4	press
407.011	n/a	RESPONSE	        M8	2	16	E4	release
407.314	n/a	RESPONSE	        M8	2	19	G4	release
407.321	n/a	RESPONSE	        M8	2	23	B4	press
407.628	n/a	RESPONSE	        M8	2	23	B4	release
407.867	n/a	RESPONSE	        M8	2	23	B4	press
408.265	7.758	FIXCROSS	n/a	n/a	n/a	n/a	n/a
408.448	n/a	RESPONSE	        M8	2	09	A3	press
408.489	n/a	RESPONSE	        M8	2	18	F#4	press
408.564	n/a	RESPONSE	        M8	2	23	B4	release
408.847	n/a	RESPONSE	        M8	2	11	B3	press
408.874	n/a	RESPONSE	        M8	2	12	C4	press
408.969	n/a	RESPONSE	        M8	2	11	B3	release
409.037	n/a	RESPONSE	        M8	2	12	C4	release
409.586	n/a	RESPONSE	        M8	2	18	F#4	release
409.621	n/a	RESPONSE	        M8	2	21	A4	press
409.722	n/a	RESPONSE	        M8	2	09	A3	release
410.568	n/a	RESPONSE	        M8	2	21	A4	release
411.799	n/a	RESPONSE	        M8	2	16	E4	press
412.27	n/a	RESPONSE	        M8	2	16	E4	release
412.283	n/a	RESPONSE	        M8	2	23	B4	press
412.923	n/a	RESPONSE	        M8	2	21	A4	press
413.027	n/a	RESPONSE	        M8	2	23	B4	release
413.206	n/a	RESPONSE	        M8	2	19	G4	press
413.237	n/a	RESPONSE	        M8	2	21	A4	release
413.538	n/a	RESPONSE	        M8	2	18	F#4	press
413.699	n/a	RESPONSE	        M8	2	19	G4	release
413.951	n/a	RESPONSE	        M8	2	19	G4	press
414.164	n/a	RESPONSE	        M8	2	18	F#4	release
414.383	n/a	RESPONSE	        M8	2	16	E4	press
414.494	n/a	RESPONSE	        M8	2	19	G4	release
415.736	n/a	RESPONSE	        M8	2	16	E4	release
416.024	6.325	CUE_LISTEN	        M4	1	n/a	n/a	n/a
422.348	7.758	FIXCROSS	n/a	n/a	n/a	n/a	n/a
430.107	6.325	CUE_PLAYBACK_RIGHT_HAND	        M4	1	n/a	n/a	n/a
431.539	n/a	RESPONSE	        M4	1	19	G4	press
431.79	n/a	RESPONSE	        M4	1	18	F#4	press
431.852	n/a	RESPONSE	        M4	1	19	G4	release
432.014	n/a	RESPONSE	        M4	1	19	G4	press
432.084	n/a	RESPONSE	        M4	1	18	F#4	release
432.446	n/a	RESPONSE	        M4	1	23	B4	press
432.497	n/a	RESPONSE	        M4	1	19	G4	release
432.668	n/a	RESPONSE	        M4	1	24	C5	press
432.769	n/a	RESPONSE	        M4	1	23	B4	release
432.91	n/a	RESPONSE	        M4	1	23	B4	press
432.942	n/a	RESPONSE	        M4	1	24	C5	release
433.693	n/a	RESPONSE	        M4	1	23	B4	release
434.184	n/a	RESPONSE	        M4	1	18	F#4	press
434.426	n/a	RESPONSE	        M4	1	16	E4	press
434.507	n/a	RESPONSE	        M4	1	18	F#4	release
434.678	n/a	RESPONSE	        M4	1	18	F#4	press
434.729	n/a	RESPONSE	        M4	1	16	E4	release
435.08	n/a	RESPONSE	        M4	1	19	G4	press
435.092	n/a	RESPONSE	        M4	1	18	F#4	release
435.293	n/a	RESPONSE	        M4	1	21	A4	press
435.384	n/a	RESPONSE	        M4	1	19	G4	release
435.506	n/a	RESPONSE	        M4	1	19	G4	press
435.577	n/a	RESPONSE	        M4	1	21	A4	release
436.432	7.758	FIXCROSS	n/a	n/a	n/a	n/a	n/a
436.778	n/a	RESPONSE	        M4	1	19	G4	release
444.19	6.308	CUE_LISTEN	        M4	2	n/a	n/a	n/a
450.499	7.758	FIXCROSS	n/a	n/a	n/a	n/a	n/a
455.006	n/a	RESPONSE	        M4	2	23	B4	press
455.997	n/a	RESPONSE	        M4	2	23	B4	release
458.257	6.325	CUE_PLAYBACK_RIGHT_HAND	        M4	2	n/a	n/a	n/a
458.944	n/a	RESPONSE	        M4	2	23	B4	press
460.009	n/a	RESPONSE	        M4	2	18	F#4	press
460.099	n/a	RESPONSE	        M4	2	23	B4	release
461.906	n/a	RESPONSE	        M4	2	23	B4	press
461.964	n/a	RESPONSE	        M4	2	18	F#4	release
462.957	n/a	RESPONSE	        M4	2	21	A4	press
462.987	n/a	RESPONSE	        M4	2	23	B4	release
464.298	n/a	RESPONSE	        M4	2	21	A4	release
464.582	7.758	FIXCROSS	n/a	n/a	n/a	n/a	n/a
472.34	6.317	CUE_LISTEN	        M3	1	n/a	n/a	n/a
478.657	7.758	FIXCROSS	n/a	n/a	n/a	n/a	n/a
480.647	n/a	RESPONSE	        M3	1	19	G4	press
480.827	n/a	RESPONSE	        M3	1	19	G4	release
486.415	6.317	CUE_PLAYBACK_RIGHT_HAND	        M3	1	n/a	n/a	n/a
487.726	n/a	RESPONSE	        M3	1	19	G4	press
488.233	n/a	RESPONSE	        M3	1	16	E4	press
488.292	n/a	RESPONSE	        M3	1	19	G4	release
488.532	n/a	RESPONSE	        M3	1	16	E4	release
488.733	n/a	RESPONSE	        M3	1	16	E4	press
489.198	n/a	RESPONSE	        M3	1	18	F#4	press
489.2	n/a	RESPONSE	        M3	1	16	E4	release
489.703	n/a	RESPONSE	        M3	1	18	F#4	release
490.529	n/a	RESPONSE	        M3	1	19	G4	press
491.01	n/a	RESPONSE	        M3	1	16	E4	press
491.072	n/a	RESPONSE	        M3	1	19	G4	release
491.323	n/a	RESPONSE	        M3	1	16	E4	release
491.464	n/a	RESPONSE	        M3	1	16	E4	press
491.766	n/a	RESPONSE	        M3	1	16	E4	release
491.908	n/a	RESPONSE	        M3	1	17	F4	press
492.308	n/a	RESPONSE	        M3	1	17	F4	release
492.379	n/a	RESPONSE	        M3	1	14	D4	press
492.62	n/a	RESPONSE	        M3	1	14	D4	release
492.732	7.758	FIXCROSS	n/a	n/a	n/a	n/a	n/a
492.802	n/a	RESPONSE	        M3	1	14	D4	press
493.103	n/a	RESPONSE	        M3	1	14	D4	release
493.226	n/a	RESPONSE	        M3	1	12	C4	press
493.496	n/a	RESPONSE	        M3	1	16	E4	press
493.527	n/a	RESPONSE	        M3	1	12	C4	release
493.728	n/a	RESPONSE	        M3	1	19	G4	press
493.809	n/a	RESPONSE	        M3	1	16	E4	release
494.81	n/a	RESPONSE	        M3	1	19	G4	release
500.49	6.325	CUE_LISTEN	        M3	2	n/a	n/a	n/a
506.815	7.758	FIXCROSS	n/a	n/a	n/a	n/a	n/a
514.574	6.317	CUE_PLAYBACK_RIGHT_HAND	        M3	2	n/a	n/a	n/a
515.214	n/a	RESPONSE	        M3	2	19	G4	press
515.594	n/a	RESPONSE	        M3	2	19	G4	release
515.726	n/a	RESPONSE	        M3	2	16	E4	press
516.057	n/a	RESPONSE	        M3	2	16	E4	release
516.22	n/a	RESPONSE	        M3	2	16	E4	press
516.549	n/a	RESPONSE	        M3	2	16	E4	release
516.72	n/a	RESPONSE	        M3	2	17	F4	press
517.071	n/a	RESPONSE	        M3	2	17	F4	release
517.206	n/a	RESPONSE	        M3	2	14	D4	press
517.476	n/a	RESPONSE	        M3	2	14	D4	release
517.679	n/a	RESPONSE	        M3	2	14	D4	press
517.923	n/a	RESPONSE	        M3	2	14	D4	release
518.129	n/a	RESPONSE	        M3	2	12	C4	press
518.357	n/a	RESPONSE	        M3	2	16	E4	press
518.429	n/a	RESPONSE	        M3	2	12	C4	release
518.619	n/a	RESPONSE	        M3	2	12	C4	press
518.643	n/a	RESPONSE	        M3	2	16	E4	release
519.624	n/a	RESPONSE	        M3	2	12	C4	release
520.89	7.758	FIXCROSS	n/a	n/a	n/a	n/a	n/a
528.649	6.317	CUE_LISTEN	        M5	1	n/a	n/a	n/a
534.965	7.758	FIXCROSS	n/a	n/a	n/a	n/a	n/a
540.417	n/a	RESPONSE	        M5	1	07	G3	press
542.724	6.325	CUE_PLAYBACK_BOTH_HANDS	        M5	1	n/a	n/a	n/a
543.167	n/a	RESPONSE	        M5	1	07	G3	release
543.8	n/a	RESPONSE	        M5	1	07	G3	press
543.83	n/a	RESPONSE	        M5	1	22	A#4	press
544.412	n/a	RESPONSE	        M5	1	21	A4	press
544.553	n/a	RESPONSE	        M5	1	22	A#4	release
545.013	n/a	RESPONSE	        M5	1	19	G4	press
545.084	n/a	RESPONSE	        M5	1	21	A4	release
545.605	n/a	RESPONSE	        M5	1	05	F3	press
545.617	n/a	RESPONSE	        M5	1	21	A4	press
545.648	n/a	RESPONSE	        M5	1	04	E3	press
545.669	n/a	RESPONSE	        M5	1	19	G4	release
545.68	n/a	RESPONSE	        M5	1	07	G3	release
545.782	n/a	RESPONSE	        M5	1	04	E3	release
547.512	n/a	RESPONSE	        M5	1	21	A4	release
547.758	n/a	RESPONSE	        M5	1	14	D4	press
548.908	n/a	RESPONSE	        M5	1	14	D4	release
549.036	n/a	RESPONSE	        M5	1	14	D4	press
549.049	7.758	FIXCROSS	n/a	n/a	n/a	n/a	n/a
549.598	n/a	RESPONSE	        M5	1	19	G4	press
549.607	n/a	RESPONSE	        M5	1	03	D#3	press
549.666	n/a	RESPONSE	        M5	1	14	D4	release
549.696	n/a	RESPONSE	        M5	1	05	F3	release
550.927	n/a	RESPONSE	        M5	1	19	G4	release
551.03	n/a	RESPONSE	        M5	1	07	G3	press
551.432	n/a	RESPONSE	        M5	1	07	G3	release
551.58	n/a	RESPONSE	        M5	1	07	G3	press
551.612	n/a	RESPONSE	        M5	1	09	A3	press
552.043	n/a	RESPONSE	        M5	1	07	G3	release
552.544	n/a	RESPONSE	        M5	1	10	A#3	press
552.628	n/a	RESPONSE	        M5	1	09	A3	release
552.907	n/a	RESPONSE	        M5	1	12	C4	press
552.978	n/a	RESPONSE	        M5	1	10	A#3	release
553.429	n/a	RESPONSE	        M5	1	03	D#3	release
553.432	n/a	RESPONSE	        M5	1	02	D3	press
553.573	n/a	RESPONSE	        M5	1	14	D4	press
554.266	n/a	RESPONSE	        M5	1	12	C4	release
554.587	n/a	RESPONSE	        M5	1	14	D4	release
554.706	n/a	RESPONSE	        M5	1	02	D3	release
556.807	6.317	CUE_LISTEN	        M5	2	n/a	n/a	n/a
563.124	7.758	FIXCROSS	n/a	n/a	n/a	n/a	n/a
570.882	6.325	CUE_PLAYBACK_BOTH_HANDS	        M5	2	n/a	n/a	n/a
571.62	n/a	RESPONSE	        M5	2	07	G3	press
571.624	n/a	RESPONSE	        M5	2	10	A#3	press
571.653	n/a	RESPONSE	        M5	2	15	D#4	press
572.594	n/a	RESPONSE	        M5	2	17	F4	press
572.658	n/a	RESPONSE	        M5	2	15	D#4	release
572.987	n/a	RESPONSE	        M5	2	15	D#4	press
573.388	n/a	RESPONSE	        M5	2	09	A3	press
573.429	n/a	RESPONSE	        M5	2	07	G3	release
573.433	n/a	RESPONSE	        M5	2	14	D4	press
573.442	n/a	RESPONSE	        M5	2	17	F4	release
573.453	n/a	RESPONSE	        M5	2	10	A#3	release
573.524	n/a	RESPONSE	        M5	2	15	D#4	release
573.825	n/a	RESPONSE	        M5	2	12	C4	press
573.917	n/a	RESPONSE	        M5	2	14	D4	release
574.209	n/a	RESPONSE	        M5	2	14	D4	press
574.219	n/a	RESPONSE	        M5	2	10	A#3	press
574.28	n/a	RESPONSE	        M5	2	09	A3	release
574.303	n/a	RESPONSE	        M5	2	12	C4	release
575.003	n/a	RESPONSE	        M5	2	15	D#4	press
575.064	n/a	RESPONSE	        M5	2	14	D4	release
575.418	n/a	RESPONSE	        M5	2	14	D4	press
575.557	n/a	RESPONSE	        M5	2	15	D#4	release
575.828	n/a	RESPONSE	        M5	2	07	G3	press
575.83	n/a	RESPONSE	        M5	2	12	C4	press
575.883	n/a	RESPONSE	        M5	2	10	A#3	release
575.902	n/a	RESPONSE	        M5	2	14	D4	release
576.585	n/a	RESPONSE	        M5	2	11	B3	press
576.694	n/a	RESPONSE	        M5	2	12	C4	release
577.207	7.758	FIXCROSS	n/a	n/a	n/a	n/a	n/a
578.137	n/a	RESPONSE	        M5	2	09	A3	press
578.142	n/a	RESPONSE	        M5	2	11	B3	release
578.152	n/a	RESPONSE	        M5	2	12	C4	press
578.182	n/a	RESPONSE	        M5	2	07	G3	release
581.12	n/a	RESPONSE	        M5	2	14	D4	press
581.153	n/a	RESPONSE	        M5	2	12	C4	release
581.824	n/a	RESPONSE	        M5	2	12	C4	press
583.154	n/a	RESPONSE	        M5	2	07	G3	press
583.207	n/a	RESPONSE	        M5	2	10	A#3	press
583.209	n/a	RESPONSE	        M5	2	09	A3	release
583.249	n/a	RESPONSE	        M5	2	14	D4	release
583.302	n/a	RESPONSE	        M5	2	12	C4	release
583.932	n/a	RESPONSE	        M5	2	12	C4	press
583.975	n/a	RESPONSE	        M5	2	10	A#3	release
584.394	n/a	RESPONSE	        M5	2	07	G3	release
584.966	6.317	CUE_LISTEN	        M1	1	n/a	n/a	n/a
585.307	n/a	RESPONSE	        M1	1	02	D3	press
585.327	n/a	RESPONSE	        M1	1	09	A3	press
585.398	n/a	RESPONSE	        M1	1	12	C4	release
585.669	n/a	RESPONSE	        M1	1	02	D3	release
586.0	n/a	RESPONSE	        M1	1	09	A3	release
591.282	7.758	FIXCROSS	n/a	n/a	n/a	n/a	n/a
596.373	n/a	RESPONSE	        M1	1	21	A4	press
599.041	6.317	CUE_PLAYBACK_RIGHT_HAND	        M1	1	n/a	n/a	n/a
599.655	n/a	RESPONSE	        M1	1	21	A4	release
599.783	n/a	RESPONSE	        M1	1	21	A4	press
600.038	n/a	RESPONSE	        M1	1	21	A4	release
600.134	n/a	RESPONSE	        M1	1	21	A4	press
600.329	n/a	RESPONSE	        M1	1	21	A4	release
600.48	n/a	RESPONSE	        M1	1	21	A4	press
600.872	n/a	RESPONSE	        M1	1	21	A4	release
601.085	n/a	RESPONSE	        M1	1	21	A4	press
601.324	n/a	RESPONSE	        M1	1	21	A4	release
601.438	n/a	RESPONSE	        M1	1	21	A4	press
601.607	n/a	RESPONSE	        M1	1	21	A4	release
601.78	n/a	RESPONSE	        M1	1	21	A4	press
602.089	n/a	RESPONSE	        M1	1	21	A4	release
602.353	n/a	RESPONSE	        M1	1	21	A4	press
602.732	n/a	RESPONSE	        M1	1	24	C5	press
602.833	n/a	RESPONSE	        M1	1	21	A4	release
603.104	n/a	RESPONSE	        M1	1	16	E4	press
603.107	n/a	RESPONSE	        M1	1	17	F4	press
603.187	n/a	RESPONSE	        M1	1	24	C5	release
603.348	n/a	RESPONSE	        M1	1	16	E4	release
603.689	n/a	RESPONSE	        M1	1	17	F4	release
603.942	n/a	RESPONSE	        M1	1	21	A4	press
604.313	n/a	RESPONSE	        M1	1	24	C5	press
604.404	n/a	RESPONSE	        M1	1	21	A4	release
604.668	n/a	RESPONSE	        M1	1	17	F4	press
604.768	n/a	RESPONSE	        M1	1	24	C5	release
605.008	n/a	RESPONSE	        M1	1	19	G4	press
605.082	n/a	RESPONSE	        M1	1	17	F4	release
605.357	7.758	FIXCROSS	n/a	n/a	n/a	n/a	n/a
605.39	n/a	RESPONSE	        M1	1	21	A4	press
605.412	n/a	RESPONSE	        M1	1	19	G4	release
607.545	n/a	RESPONSE	        M1	1	21	A4	release
613.116	6.325	CUE_LISTEN	        M1	2	n/a	n/a	n/a
616.787	n/a	RESPONSE	        M1	2	21	A4	press
619.441	7.758	FIXCROSS	n/a	n/a	n/a	n/a	n/a
621.625	n/a	RESPONSE	        M1	2	21	A4	release
627.199	6.317	CUE_PLAYBACK_RIGHT_HAND	        M1	2	n/a	n/a	n/a
627.878	n/a	RESPONSE	        M1	2	22	A#4	press
628.197	n/a	RESPONSE	        M1	2	22	A#4	release
628.254	n/a	RESPONSE	        M1	2	22	A#4	press
628.435	n/a	RESPONSE	        M1	2	22	A#4	release
628.573	n/a	RESPONSE	        M1	2	22	A#4	press
628.788	n/a	RESPONSE	        M1	2	22	A#4	release
628.939	n/a	RESPONSE	        M1	2	22	A#4	press
629.144	n/a	RESPONSE	        M1	2	22	A#4	release
629.305	n/a	RESPONSE	        M1	2	22	A#4	press
629.563	n/a	RESPONSE	        M1	2	22	A#4	release
629.639	n/a	RESPONSE	        M1	2	21	A4	press
629.888	n/a	RESPONSE	        M1	2	21	A4	release
630.013	n/a	RESPONSE	        M1	2	21	A4	press
630.215	n/a	RESPONSE	        M1	2	21	A4	release
630.359	n/a	RESPONSE	        M1	2	21	A4	press
630.607	n/a	RESPONSE	        M1	2	21	A4	release
630.728	n/a	RESPONSE	        M1	2	24	C5	press
630.982	n/a	RESPONSE	        M1	2	24	C5	release
631.07	n/a	RESPONSE	        M1	2	24	C5	press
631.362	n/a	RESPONSE	        M1	2	24	C5	release
631.523	n/a	RESPONSE	        M1	2	22	A#4	press
631.914	n/a	RESPONSE	        M1	2	19	G4	press
631.928	n/a	RESPONSE	        M1	2	22	A#4	release
632.297	n/a	RESPONSE	        M1	2	17	F4	press
632.378	n/a	RESPONSE	        M1	2	19	G4	release
633.516	7.758	FIXCROSS	n/a	n/a	n/a	n/a	n/a
633.839	n/a	RESPONSE	        M1	2	17	F4	release
641.274	6.317	CUE_LISTEN	        M7	1	n/a	n/a	n/a
646.523	n/a	RESPONSE	        M7	1	07	G3	press
646.932	n/a	RESPONSE	        M7	1	07	G3	release
647.591	7.758	FIXCROSS	n/a	n/a	n/a	n/a	n/a
651.952	n/a	RESPONSE	        M7	1	02	D3	press
652.503	n/a	RESPONSE	        M7	1	02	D3	release
655.349	6.325	CUE_PLAYBACK_BOTH_HANDS	        M7	1	n/a	n/a	n/a
657.808	n/a	RESPONSE	        M7	1	02	D3	press
657.814	n/a	RESPONSE	        M7	1	12	C4	press
658.208	n/a	RESPONSE	        M7	1	12	C4	release
658.233	n/a	RESPONSE	        M7	1	07	G3	press
658.249	n/a	RESPONSE	        M7	1	14	D4	press
658.264	n/a	RESPONSE	        M7	1	02	D3	release
658.539	n/a	RESPONSE	        M7	1	14	D4	release
658.569	n/a	RESPONSE	        M7	1	07	G3	release
658.675	n/a	RESPONSE	        M7	1	04	E3	press
658.695	n/a	RESPONSE	        M7	1	16	E4	press
658.972	n/a	RESPONSE	        M7	1	04	E3	release
658.979	n/a	RESPONSE	        M7	1	16	E4	release
659.108	n/a	RESPONSE	        M7	1	07	G3	press
659.11	n/a	RESPONSE	        M7	1	12	C4	press
659.365	n/a	RESPONSE	        M7	1	07	G3	release
659.389	n/a	RESPONSE	        M7	1	12	C4	release
659.527	n/a	RESPONSE	        M7	1	02	D3	press
659.537	n/a	RESPONSE	        M7	1	12	C4	press
659.828	n/a	RESPONSE	        M7	1	02	D3	release
659.834	n/a	RESPONSE	        M7	1	12	C4	release
659.922	n/a	RESPONSE	        M7	1	07	G3	press
659.932	n/a	RESPONSE	        M7	1	14	D4	press
660.173	n/a	RESPONSE	        M7	1	14	D4	release
660.202	n/a	RESPONSE	        M7	1	07	G3	release
660.327	n/a	RESPONSE	        M7	1	16	E4	press
660.335	n/a	RESPONSE	        M7	1	04	E3	press
660.599	n/a	RESPONSE	        M7	1	04	E3	release
660.64	n/a	RESPONSE	        M7	1	16	E4	release
660.713	n/a	RESPONSE	        M7	1	07	G3	press
660.715	n/a	RESPONSE	        M7	1	12	C4	press
660.954	n/a	RESPONSE	        M7	1	12	C4	release
660.978	n/a	RESPONSE	        M7	1	07	G3	release
661.117	n/a	RESPONSE	        M7	1	16	E4	press
661.128	n/a	RESPONSE	        M7	1	02	D3	press
661.489	n/a	RESPONSE	        M7	1	16	E4	release
661.5	n/a	RESPONSE	        M7	1	17	F4	press
661.512	n/a	RESPONSE	        M7	1	07	G3	press
661.523	n/a	RESPONSE	        M7	1	02	D3	release
661.674	7.758	FIXCROSS	n/a	n/a	n/a	n/a	n/a
661.834	n/a	RESPONSE	        M7	1	07	G3	release
661.875	n/a	RESPONSE	        M7	1	19	G4	press
661.917	n/a	RESPONSE	        M7	1	04	E3	press
661.928	n/a	RESPONSE	        M7	1	17	F4	release
661.942	n/a	RESPONSE	        M7	1	05	F3	press
662.17	n/a	RESPONSE	        M7	1	05	F3	release
662.273	n/a	RESPONSE	        M7	1	07	G3	press
662.275	n/a	RESPONSE	        M7	1	19	G4	release
662.294	n/a	RESPONSE	        M7	1	04	E3	release
662.545	n/a	RESPONSE	        M7	1	07	G3	release
662.657	n/a	RESPONSE	        M7	1	16	E4	press
662.688	n/a	RESPONSE	        M7	1	04	E3	press
663.01	n/a	RESPONSE	        M7	1	16	E4	release
663.03	n/a	RESPONSE	        M7	1	17	F4	press
663.043	n/a	RESPONSE	        M7	1	04	E3	release
663.073	n/a	RESPONSE	        M7	1	07	G3	press
663.357	n/a	RESPONSE	        M7	1	17	F4	release
663.397	n/a	RESPONSE	        M7	1	19	G4	press
663.447	n/a	RESPONSE	        M7	1	02	D3	press
663.458	n/a	RESPONSE	        M7	1	07	G3	release
663.769	n/a	RESPONSE	        M7	1	02	D3	release
663.773	n/a	RESPONSE	        M7	1	19	G4	release
666.043	n/a	RESPONSE	        M7	1	07	G3	press
669.043	n/a	RESPONSE	        M7	1	02	D3	press
669.432	6.317	CUE_LISTEN	        M7	2	n/a	n/a	n/a
669.872	n/a	RESPONSE	        M7	2	02	D3	release
675.749	7.758	FIXCROSS	n/a	n/a	n/a	n/a	n/a
680.505	n/a	RESPONSE	        M7	2	07	G3	release
683.507	6.317	CUE_PLAYBACK_BOTH_HANDS	        M7	2	n/a	n/a	n/a
684.065	n/a	RESPONSE	        M7	2	00	C3	press
684.097	n/a	RESPONSE	        M7	2	19	G4	press
684.419	n/a	RESPONSE	        M7	2	21	A4	press
684.519	n/a	RESPONSE	        M7	2	19	G4	release
684.74	n/a	RESPONSE	        M7	2	19	G4	press
684.762	n/a	RESPONSE	        M7	2	21	A4	release
684.784	n/a	RESPONSE	        M7	2	07	G3	press
684.874	n/a	RESPONSE	        M7	2	00	C3	release
685.126	n/a	RESPONSE	        M7	2	17	F4	press
685.287	n/a	RESPONSE	        M7	2	19	G4	release
685.508	n/a	RESPONSE	        M7	2	04	E3	press
685.549	n/a	RESPONSE	        M7	2	16	E4	press
685.6	n/a	RESPONSE	        M7	2	07	G3	release
685.632	n/a	RESPONSE	        M7	2	17	F4	release
686.273	n/a	RESPONSE	        M7	2	12	C4	press
686.284	n/a	RESPONSE	        M7	2	07	G3	press
686.325	n/a	RESPONSE	        M7	2	04	E3	release
686.397	n/a	RESPONSE	        M7	2	16	E4	release
686.975	n/a	RESPONSE	        M7	2	19	G4	press
686.995	n/a	RESPONSE	        M7	2	00	C3	press
687.015	n/a	RESPONSE	        M7	2	12	C4	release
687.035	n/a	RESPONSE	        M7	2	07	G3	release
687.333	n/a	RESPONSE	        M7	2	21	A4	press
687.452	n/a	RESPONSE	        M7	2	19	G4	release
687.62	n/a	RESPONSE	        M7	2	21	A4	release
687.65	n/a	RESPONSE	        M7	2	19	G4	press
687.665	n/a	RESPONSE	        M7	2	07	G3	press
687.723	n/a	RESPONSE	        M7	2	00	C3	release
687.955	n/a	RESPONSE	        M7	2	17	F4	press
688.169	n/a	RESPONSE	        M7	2	19	G4	release
688.295	n/a	RESPONSE	        M7	2	04	E3	press
688.337	n/a	RESPONSE	        M7	2	16	E4	press
688.413	n/a	RESPONSE	        M7	2	07	G3	release
688.44	n/a	RESPONSE	        M7	2	17	F4	release
689.008	n/a	RESPONSE	        M7	2	12	C4	press
689.02	n/a	RESPONSE	        M7	2	07	G3	press
689.047	n/a	RESPONSE	        M7	2	04	E3	release
689.092	n/a	RESPONSE	        M7	2	16	E4	release
689.824	7.758	FIXCROSS	n/a	n/a	n/a	n/a	n/a
689.993	n/a	RESPONSE	        M7	2	07	G3	release
690.005	n/a	RESPONSE	        M7	2	12	C4	release
691.045	n/a	RESPONSE	        M7	2	02	D3	press
691.057	n/a	RESPONSE	        M7	2	12	C4	press
691.578	n/a	RESPONSE	        M7	2	12	C4	release
691.599	n/a	RESPONSE	        M7	2	02	D3	release
691.65	n/a	RESPONSE	        M7	2	07	G3	press
692.122	n/a	RESPONSE	        M7	2	07	G3	release
692.243	n/a	RESPONSE	        M7	2	02	D3	press
692.274	n/a	RESPONSE	        M7	2	12	C4	press
693.045	n/a	RESPONSE	        M7	2	02	D3	release
693.077	n/a	RESPONSE	        M7	2	12	C4	release
697.582	6.325	CUE_LISTEN	        M4	1	n/a	n/a	n/a
703.907	7.758	FIXCROSS	n/a	n/a	n/a	n/a	n/a
706.28	n/a	RESPONSE	        M4	1	16	E4	press
710.997	n/a	RESPONSE	        M4	1	16	E4	release
711.666	6.317	CUE_PLAYBACK_BOTH_HANDS	        M4	1	n/a	n/a	n/a
712.168	n/a	RESPONSE	        M4	1	04	E3	press
712.17	n/a	RESPONSE	        M4	1	16	E4	press
712.68	n/a	RESPONSE	        M4	1	16	E4	release
712.892	n/a	RESPONSE	        M4	1	16	E4	press
713.303	n/a	RESPONSE	        M4	1	17	F4	press
713.334	n/a	RESPONSE	        M4	1	11	B3	press
713.385	n/a	RESPONSE	        M4	1	04	E3	release
713.457	n/a	RESPONSE	        M4	1	16	E4	release
713.588	n/a	RESPONSE	        M4	1	15	D#4	press
713.699	n/a	RESPONSE	        M4	1	17	F4	release
713.843	n/a	RESPONSE	        M4	1	17	F4	press
713.902	n/a	RESPONSE	        M4	1	15	D#4	release
714.313	n/a	RESPONSE	        M4	1	07	G3	press
714.344	n/a	RESPONSE	        M4	1	11	B3	release
714.365	n/a	RESPONSE	        M4	1	16	E4	press
715.017	n/a	RESPONSE	        M4	1	11	B3	press
715.02	n/a	RESPONSE	        M4	1	21	A4	press
715.039	n/a	RESPONSE	        M4	1	07	G3	release
715.07	n/a	RESPONSE	        M4	1	16	E4	release
715.092	n/a	RESPONSE	        M4	1	17	F4	release
715.285	n/a	RESPONSE	        M4	1	23	B4	press
715.394	n/a	RESPONSE	        M4	1	21	A4	release
715.528	n/a	RESPONSE	        M4	1	23	B4	release
715.587	n/a	RESPONSE	        M4	1	21	A4	press
715.618	n/a	RESPONSE	        M4	1	04	E3	press
715.642	n/a	RESPONSE	        M4	1	16	E4	press
715.67	n/a	RESPONSE	        M4	1	11	B3	release
716.183	n/a	RESPONSE	        M4	1	11	B3	press
716.253	n/a	RESPONSE	        M4	1	16	E4	release
716.257	n/a	RESPONSE	        M4	1	04	E3	release
716.645	n/a	RESPONSE	        M4	1	07	G3	press
716.697	n/a	RESPONSE	        M4	1	21	A4	release
716.7	n/a	RESPONSE	        M4	1	16	E4	press
716.709	n/a	RESPONSE	        M4	1	11	B3	release
717.085	n/a	RESPONSE	        M4	1	11	B3	press
717.113	n/a	RESPONSE	        M4	1	07	G3	release
717.135	n/a	RESPONSE	        M4	1	16	E4	release
717.469	n/a	RESPONSE	        M4	1	16	E4	press
717.507	n/a	RESPONSE	        M4	1	04	E3	press
717.574	n/a	RESPONSE	        M4	1	11	B3	release
717.923	n/a	RESPONSE	        M4	1	11	B3	press
717.969	n/a	RESPONSE	        M4	1	04	E3	release
717.982	7.758	FIXCROSS	n/a	n/a	n/a	n/a	n/a
717.989	n/a	RESPONSE	        M4	1	16	E4	release
718.328	n/a	RESPONSE	        M4	1	07	G3	press
718.388	n/a	RESPONSE	        M4	1	11	B3	release
718.778	n/a	RESPONSE	        M4	1	11	B3	press
718.82	n/a	RESPONSE	        M4	1	07	G3	release
719.298	n/a	RESPONSE	        M4	1	04	E3	press
719.345	n/a	RESPONSE	        M4	1	16	E4	press
719.395	n/a	RESPONSE	        M4	1	11	B3	release
721.619	n/a	RESPONSE	        M4	1	04	E3	release
721.76	n/a	RESPONSE	        M4	1	16	E4	release
725.741	6.317	CUE_LISTEN	        M4	2	n/a	n/a	n/a
732.058	7.758	FIXCROSS	n/a	n/a	n/a	n/a	n/a
732.584	n/a	RESPONSE	        M4	2	16	E4	press
736.644	n/a	RESPONSE	        M4	2	04	E3	press
739.042	n/a	RESPONSE	        M4	2	16	E4	release
739.816	6.333	CUE_PLAYBACK_BOTH_HANDS	        M4	2	n/a	n/a	n/a
740.303	n/a	RESPONSE	        M4	2	04	E3	release
740.7	n/a	RESPONSE	        M4	2	16	E4	press
740.712	n/a	RESPONSE	        M4	2	04	E3	press
740.724	n/a	RESPONSE	        M4	2	23	B4	press
741.164	n/a	RESPONSE	        M4	2	11	B3	press
741.255	n/a	RESPONSE	        M4	2	23	B4	release
741.267	n/a	RESPONSE	        M4	2	04	E3	release
741.518	n/a	RESPONSE	        M4	2	07	G3	press
741.599	n/a	RESPONSE	        M4	2	11	B3	release
741.963	n/a	RESPONSE	        M4	2	11	B3	press
742.032	n/a	RESPONSE	        M4	2	16	E4	release
742.093	n/a	RESPONSE	        M4	2	07	G3	release
742.384	n/a	RESPONSE	        M4	2	16	E4	press
742.425	n/a	RESPONSE	        M4	2	04	E3	press
742.527	n/a	RESPONSE	        M4	2	11	B3	release
742.878	n/a	RESPONSE	        M4	2	11	B3	press
743.009	n/a	RESPONSE	        M4	2	16	E4	release
743.04	n/a	RESPONSE	        M4	2	04	E3	release
743.272	n/a	RESPONSE	        M4	2	07	G3	press
743.383	n/a	RESPONSE	        M4	2	16	E4	press
743.394	n/a	RESPONSE	        M4	2	11	B3	release
743.815	n/a	RESPONSE	        M4	2	11	B3	press
743.897	n/a	RESPONSE	        M4	2	16	E4	release
743.899	n/a	RESPONSE	        M4	2	07	G3	release
745.119	n/a	RESPONSE	        M4	2	11	B3	release
745.14	n/a	RESPONSE	        M4	2	04	E3	press
745.152	n/a	RESPONSE	        M4	2	16	E4	press
745.154	n/a	RESPONSE	        M4	2	23	B4	press
745.564	n/a	RESPONSE	        M4	2	11	B3	press
745.635	n/a	RESPONSE	        M4	2	16	E4	release
745.647	n/a	RESPONSE	        M4	2	23	B4	release
745.68	n/a	RESPONSE	        M4	2	04	E3	release
745.919	n/a	RESPONSE	        M4	2	07	G3	press
745.99	n/a	RESPONSE	        M4	2	11	B3	release
746.012	n/a	RESPONSE	        M4	2	16	E4	press
746.149	7.758	FIXCROSS	n/a	n/a	n/a	n/a	n/a
746.435	n/a	RESPONSE	        M4	2	11	B3	press
746.444	n/a	RESPONSE	        M4	2	17	F4	press
746.465	n/a	RESPONSE	        M4	2	07	G3	release
746.528	n/a	RESPONSE	        M4	2	16	E4	release
746.885	n/a	RESPONSE	        M4	2	16	E4	press
746.889	n/a	RESPONSE	        M4	2	04	E3	press
746.983	n/a	RESPONSE	        M4	2	11	B3	release
747.29	n/a	RESPONSE	        M4	2	11	B3	press
747.353	n/a	RESPONSE	        M4	2	16	E4	release
747.37	n/a	RESPONSE	        M4	2	04	E3	release
747.413	n/a	RESPONSE	        M4	2	17	F4	release
747.683	n/a	RESPONSE	        M4	2	04	E3	press
747.732	n/a	RESPONSE	        M4	2	11	B3	release
747.75	n/a	RESPONSE	        M4	2	07	G3	press
748.13	n/a	RESPONSE	        M4	2	04	E3	release
748.163	n/a	RESPONSE	        M4	2	11	B3	press
748.189	n/a	RESPONSE	        M4	2	07	G3	release
749.199	n/a	RESPONSE	        M4	2	04	E3	press
749.208	n/a	RESPONSE	        M4	2	16	E4	press
749.227	n/a	RESPONSE	        M4	2	23	B4	press
749.237	n/a	RESPONSE	        M4	2	11	B3	release
749.788	n/a	RESPONSE	        M4	2	11	B3	press
749.835	n/a	RESPONSE	        M4	2	16	E4	release
749.859	n/a	RESPONSE	        M4	2	23	B4	release
749.935	n/a	RESPONSE	        M4	2	04	E3	release
750.392	n/a	RESPONSE	        M4	2	11	B3	release
753.908	6.308	CUE_LISTEN	        M2	1	n/a	n/a	n/a
760.216	7.758	FIXCROSS	n/a	n/a	n/a	n/a	n/a
762.025	n/a	RESPONSE	        M2	1	14	D4	press
762.147	n/a	RESPONSE	        M2	1	14	D4	release
767.143	n/a	RESPONSE	        M2	1	19	G4	press
767.974	6.325	CUE_PLAYBACK_RIGHT_HAND	        M2	1	n/a	n/a	n/a
768.994	n/a	RESPONSE	        M2	1	19	G4	release
769.278	n/a	RESPONSE	        M2	1	24	C5	press
769.59	n/a	RESPONSE	        M2	1	24	C5	release
769.693	n/a	RESPONSE	        M2	1	19	G4	press
769.913	n/a	RESPONSE	        M2	1	19	G4	release
770.129	n/a	RESPONSE	        M2	1	19	G4	press
770.515	n/a	RESPONSE	        M2	1	17	F4	press
770.567	n/a	RESPONSE	        M2	1	19	G4	release
770.878	n/a	RESPONSE	        M2	1	16	E4	press
770.962	n/a	RESPONSE	        M2	1	17	F4	release
771.23	n/a	RESPONSE	        M2	1	17	F4	press
771.303	n/a	RESPONSE	        M2	1	16	E4	release
771.583	n/a	RESPONSE	        M2	1	19	G4	press
771.654	n/a	RESPONSE	        M2	1	17	F4	release
772.035	n/a	RESPONSE	        M2	1	19	G4	release
772.296	n/a	RESPONSE	        M2	1	24	C5	press
772.628	n/a	RESPONSE	        M2	1	24	C5	release
772.699	n/a	RESPONSE	        M2	1	19	G4	press
772.92	n/a	RESPONSE	        M2	1	19	G4	release
773.114	n/a	RESPONSE	        M2	1	19	G4	press
773.494	n/a	RESPONSE	        M2	1	17	F4	press
773.594	n/a	RESPONSE	        M2	1	19	G4	release
773.868	n/a	RESPONSE	        M2	1	16	E4	press
773.957	n/a	RESPONSE	        M2	1	17	F4	release
774.238	n/a	RESPONSE	        M2	1	14	D4	press
774.299	7.758	FIXCROSS	n/a	n/a	n/a	n/a	n/a
774.37	n/a	RESPONSE	        M2	1	16	E4	release
774.63	n/a	RESPONSE	        M2	1	12	C4	press
775.632	n/a	RESPONSE	        M2	1	14	D4	release
775.933	n/a	RESPONSE	        M2	1	12	C4	release
782.058	6.317	CUE_LISTEN	        M2	2	n/a	n/a	n/a
788.374	7.758	FIXCROSS	n/a	n/a	n/a	n/a	n/a
796.133	6.317	CUE_PLAYBACK_RIGHT_HAND	        M2	2	n/a	n/a	n/a
797.809	n/a	RESPONSE	        M2	2	12	C4	press
798.207	n/a	RESPONSE	        M2	2	14	D4	press
798.313	n/a	RESPONSE	        M2	2	12	C4	release
798.592	n/a	RESPONSE	        M2	2	16	E4	press
798.654	n/a	RESPONSE	        M2	2	14	D4	release
798.966	n/a	RESPONSE	        M2	2	14	D4	press
799.007	n/a	RESPONSE	        M2	2	16	E4	release
799.339	n/a	RESPONSE	        M2	2	16	E4	press
799.4	n/a	RESPONSE	        M2	2	14	D4	release
799.743	n/a	RESPONSE	        M2	2	17	F4	press
799.888	n/a	RESPONSE	        M2	2	16	E4	release
800.092	n/a	RESPONSE	        M2	2	19	G4	press
800.14	n/a	RESPONSE	        M2	2	17	F4	release
800.67	n/a	RESPONSE	        M2	2	19	G4	release
800.852	n/a	RESPONSE	        M2	2	16	E4	press
801.143	n/a	RESPONSE	        M2	2	16	E4	release
801.204	n/a	RESPONSE	        M2	2	19	G4	press
801.485	n/a	RESPONSE	        M2	2	19	G4	release
801.596	n/a	RESPONSE	        M2	2	19	G4	press
801.958	n/a	RESPONSE	        M2	2	17	F4	press
801.969	n/a	RESPONSE	        M2	2	19	G4	release
802.31	n/a	RESPONSE	        M2	2	16	E4	press
802.392	n/a	RESPONSE	        M2	2	17	F4	release
802.449	7.758	FIXCROSS	n/a	n/a	n/a	n/a	n/a
802.673	n/a	RESPONSE	        M2	2	14	D4	press
802.915	n/a	RESPONSE	        M2	2	16	E4	release
803.065	n/a	RESPONSE	        M2	2	12	C4	press
803.188	n/a	RESPONSE	        M2	2	14	D4	release
804.028	n/a	RESPONSE	        M2	2	12	C4	release
810.208	6.325	CUE_LISTEN	        M8	1	n/a	n/a	n/a
816.533	7.758	FIXCROSS	n/a	n/a	n/a	n/a	n/a
818.913	n/a	RESPONSE	        M8	1	16	E4	press
820.543	n/a	RESPONSE	        M8	1	16	E4	release
824.291	6.317	CUE_PLAYBACK_RIGHT_HAND	        M8	1	n/a	n/a	n/a
825.186	n/a	RESPONSE	        M8	1	16	E4	press
825.468	n/a	RESPONSE	        M8	1	19	G4	press
825.622	n/a	RESPONSE	        M8	1	16	E4	release
825.76	n/a	RESPONSE	        M8	1	23	B4	press
825.794	n/a	RESPONSE	        M8	1	19	G4	release
826.193	n/a	RESPONSE	        M8	1	23	B4	release
826.364	n/a	RESPONSE	        M8	1	23	B4	press
828.424	n/a	RESPONSE	        M8	1	18	F#4	press
828.487	n/a	RESPONSE	        M8	1	23	B4	release
829.205	n/a	RESPONSE	        M8	1	19	G4	press
829.473	n/a	RESPONSE	        M8	1	18	F#4	release
830.269	n/a	RESPONSE	        M8	1	19	G4	release
830.284	n/a	RESPONSE	        M8	1	23	B4	press
830.608	7.758	FIXCROSS	n/a	n/a	n/a	n/a	n/a
831.005	n/a	RESPONSE	        M8	1	21	A4	press
831.186	n/a	RESPONSE	        M8	1	23	B4	release
831.258	n/a	RESPONSE	        M8	1	19	G4	press
831.329	n/a	RESPONSE	        M8	1	21	A4	release
831.53	n/a	RESPONSE	        M8	1	18	F#4	press
831.615	n/a	RESPONSE	        M8	1	19	G4	release
832.144	n/a	RESPONSE	        M8	1	16	E4	press
832.225	n/a	RESPONSE	        M8	1	18	F#4	release
832.646	n/a	RESPONSE	        M8	1	23	B4	press
832.758	n/a	RESPONSE	        M8	1	16	E4	release
838.366	6.317	CUE_LISTEN	        M8	2	n/a	n/a	n/a
839.505	n/a	RESPONSE	        M8	2	23	B4	release
844.683	7.758	FIXCROSS	n/a	n/a	n/a	n/a	n/a
852.441	6.325	CUE_PLAYBACK_RIGHT_HAND	        M8	2	n/a	n/a	n/a
853.078	n/a	RESPONSE	        M8	2	16	E4	press
853.359	n/a	RESPONSE	        M8	2	19	G4	press
853.51	n/a	RESPONSE	        M8	2	16	E4	release
853.682	n/a	RESPONSE	        M8	2	23	B4	press
853.713	n/a	RESPONSE	        M8	2	19	G4	release
854.066	n/a	RESPONSE	        M8	2	23	B4	release
854.195	n/a	RESPONSE	        M8	2	23	B4	press
854.756	n/a	RESPONSE	        M8	2	18	F#4	press
854.81	n/a	RESPONSE	        M8	2	23	B4	release
855.312	n/a	RESPONSE	        M8	2	23	B4	press
855.4	n/a	RESPONSE	        M8	2	18	F#4	release
855.872	n/a	RESPONSE	        M8	2	23	B4	release
856.245	n/a	RESPONSE	        M8	2	16	E4	press
856.454	n/a	RESPONSE	        M8	2	19	G4	press
856.645	n/a	RESPONSE	        M8	2	16	E4	release
856.788	n/a	RESPONSE	        M8	2	23	B4	press
856.828	n/a	RESPONSE	        M8	2	19	G4	release
857.066	n/a	RESPONSE	        M8	2	23	B4	release
857.219	n/a	RESPONSE	        M8	2	23	B4	press
857.642	n/a	RESPONSE	        M8	2	23	B4	release
857.673	n/a	RESPONSE	        M8	2	18	F#4	press
858.068	n/a	RESPONSE	        M8	2	21	A4	press
858.11	n/a	RESPONSE	        M8	2	18	F#4	release
858.736	n/a	RESPONSE	        M8	2	23	B4	press
858.766	7.758	FIXCROSS	n/a	n/a	n/a	n/a	n/a
858.822	n/a	RESPONSE	        M8	2	21	A4	release
859.38	n/a	RESPONSE	        M8	2	21	A4	press
859.716	n/a	RESPONSE	        M8	2	23	B4	release
859.744	n/a	RESPONSE	        M8	2	19	G4	press
859.794	n/a	RESPONSE	        M8	2	21	A4	release
860.106	n/a	RESPONSE	        M8	2	18	F#4	press
860.213	n/a	RESPONSE	        M8	2	19	G4	release
860.759	n/a	RESPONSE	        M8	2	18	F#4	release
861.109	n/a	RESPONSE	        M8	2	16	E4	press
861.183	n/a	RESPONSE	        M8	2	19	G4	release
862.374	n/a	RESPONSE	        M8	2	16	E4	release
866.524	6.317	CUE_LISTEN	        M6	1	n/a	n/a	n/a
870.422	n/a	RESPONSE	        M6	1	12	C4	press
870.8	n/a	RESPONSE	        M6	1	12	C4	release
872.841	7.758	FIXCROSS	n/a	n/a	n/a	n/a	n/a
880.6	6.317	CUE_PLAYBACK_BOTH_HANDS	        M6	1	n/a	n/a	n/a
881.202	n/a	RESPONSE	        M6	1	05	F3	press
881.213	n/a	RESPONSE	        M6	1	11	B3	press
881.215	n/a	RESPONSE	        M6	1	12	C4	press
881.905	n/a	RESPONSE	        M6	1	05	F3	release
881.916	n/a	RESPONSE	        M6	1	11	B3	release
882.16	n/a	RESPONSE	        M6	1	12	C4	release
884.372	n/a	RESPONSE	        M6	1	05	F3	press
884.382	n/a	RESPONSE	        M6	1	09	A3	press
884.393	n/a	RESPONSE	        M6	1	12	C4	press
884.784	n/a	RESPONSE	        M6	1	17	F4	press
885.156	n/a	RESPONSE	        M6	1	21	A4	press
885.228	n/a	RESPONSE	        M6	1	17	F4	release
885.5	n/a	RESPONSE	        M6	1	19	G4	press
885.692	n/a	RESPONSE	        M6	1	21	A4	release
885.86	n/a	RESPONSE	        M6	1	17	F4	press
886.152	n/a	RESPONSE	        M6	1	19	G4	release
886.233	n/a	RESPONSE	        M6	1	16	E4	press
886.346	n/a	RESPONSE	        M6	1	17	F4	release
886.596	n/a	RESPONSE	        M6	1	17	F4	press
886.726	n/a	RESPONSE	        M6	1	16	E4	release
886.819	n/a	RESPONSE	        M6	1	05	F3	release
886.893	n/a	RESPONSE	        M6	1	12	C4	release
886.916	7.758	FIXCROSS	n/a	n/a	n/a	n/a	n/a
886.94	n/a	RESPONSE	        M6	1	09	A3	release
886.984	n/a	RESPONSE	        M6	1	17	F4	release
887.314	n/a	RESPONSE	        M6	1	12	C4	press
887.316	n/a	RESPONSE	        M6	1	05	F3	press
887.32	n/a	RESPONSE	        M6	1	09	A3	press
887.679	n/a	RESPONSE	        M6	1	17	F4	press
888.023	n/a	RESPONSE	        M6	1	21	A4	press
888.122	n/a	RESPONSE	        M6	1	17	F4	release
888.358	n/a	RESPONSE	        M6	1	19	G4	press
888.572	n/a	RESPONSE	        M6	1	21	A4	release
888.715	n/a	RESPONSE	        M6	1	17	F4	press
888.976	n/a	RESPONSE	        M6	1	19	G4	release
889.06	n/a	RESPONSE	        M6	1	16	E4	press
889.159	n/a	RESPONSE	        M6	1	17	F4	release
889.395	n/a	RESPONSE	        M6	1	17	F4	press
889.528	n/a	RESPONSE	        M6	1	16	E4	release
890.009	n/a	RESPONSE	        M6	1	17	F4	release
890.029	n/a	RESPONSE	        M6	1	05	F3	release
890.092	n/a	RESPONSE	        M6	1	12	C4	release
890.164	n/a	RESPONSE	        M6	1	09	A3	release
894.674	6.325	CUE_LISTEN	        M6	2	n/a	n/a	n/a
899.563	n/a	RESPONSE	        M6	2	17	F4	press
899.692	n/a	RESPONSE	        M6	2	17	F4	release
901.0	7.758	FIXCROSS	n/a	n/a	n/a	n/a	n/a
908.758	190.824	CUE_PLAYBACK_BOTH_HANDS	        M6	2	n/a	n/a	n/a
909.63	n/a	RESPONSE	        M6	2	05	F3	press
909.633	n/a	RESPONSE	        M6	2	12	C4	press
909.636	n/a	RESPONSE	        M6	2	09	A3	press
910.076	n/a	RESPONSE	        M6	2	17	F4	press
910.725	n/a	RESPONSE	        M6	2	21	A4	press
910.836	n/a	RESPONSE	        M6	2	17	F4	release
911.158	n/a	RESPONSE	        M6	2	21	A4	release
911.322	n/a	RESPONSE	        M6	2	21	A4	press
912.132	n/a	RESPONSE	        M6	2	24	C5	press
912.151	n/a	RESPONSE	        M6	2	21	A4	release
912.804	n/a	RESPONSE	        M6	2	22	A#4	press
913.174	n/a	RESPONSE	        M6	2	05	F3	release
913.176	n/a	RESPONSE	        M6	2	09	A3	release
913.254	n/a	FIXCROSS	n/a	n/a	n/a	n/a	n/a
914.336	n/a	RESPONSE	        M6	2	07	G3	press
914.39	n/a	RESPONSE	        M6	2	19	G4	press
914.399	n/a	RESPONSE	        M6	2	04	E3	press
914.462	n/a	RESPONSE	        M6	2	24	C5	release
914.464	n/a	RESPONSE	        M6	2	22	A#4	release
914.904	n/a	RESPONSE	        M6	2	17	F4	press
914.995	n/a	RESPONSE	        M6	2	19	G4	release
915.676	n/a	RESPONSE	        M6	2	04	E3	release
915.798	n/a	RESPONSE	        M6	2	07	G3	release
915.859	n/a	RESPONSE	        M6	2	17	F4	release
916.413	n/a	RESPONSE	        M6	2	12	C4	release
