onset	duration	trial_type	trial_number	stroop_condition	stim_text(PL)	stim_text(eng)	stim_color(PL)	stim_color(eng)	response_type	response_color
0.0	n/a	RESPONSE	n/a	n/a	n/a	n/a	n/a	n/a	n/a	n/a
0.056	1.0333	ITI	n/a	n/a	n/a	n/a	n/a	n/a	n/a	n/a
1.0893	0.5167	FIXCROSS	n/a	n/a	n/a	n/a	n/a	n/a	n/a	n/a
1.606	1.3	T_INK	1	Neutral	xxxxxxxxx	xxxxxxxxx	zielony	green	hit	n/a
2.8734	n/a	RESPONSE	n/a	n/a	n/a	n/a	n/a	n/a	n/a	green
2.9061	0.5167	FEEDBACK	n/a	n/a	n/a	n/a	n/a	n/a	n/a	n/a
3.4227	1.0167	ITI	n/a	n/a	n/a	n/a	n/a	n/a	n/a	n/a
4.4394	0.5167	FIXCROSS	n/a	n/a	n/a	n/a	n/a	n/a	n/a	n/a
4.9561	1.0333	T_INK	2	Neutral	xxxxx	xxxxx	czerwony	red	hit	n/a
5.9542	n/a	RESPONSE	n/a	n/a	n/a	n/a	n/a	n/a	n/a	red
5.9894	0.5167	FEEDBACK	n/a	n/a	n/a	n/a	n/a	n/a	n/a	n/a
6.5061	1.0167	ITI	n/a	n/a	n/a	n/a	n/a	n/a	n/a	n/a
7.5228	0.5167	FIXCROSS	n/a	n/a	n/a	n/a	n/a	n/a	n/a	n/a
8.0394	0.7333	T_INK	3	Neutral	xxxxxxxx	xxxxxxxx	żółty	yellow	hit	n/a
8.7476	n/a	RESPONSE	n/a	n/a	n/a	n/a	n/a	n/a	n/a	yellow
8.7728	0.5166	FEEDBACK	n/a	n/a	n/a	n/a	n/a	n/a	n/a	n/a
9.2894	1.0167	ITI	n/a	n/a	n/a	n/a	n/a	n/a	n/a	n/a
10.3061	0.5166	FIXCROSS	n/a	n/a	n/a	n/a	n/a	n/a	n/a	n/a
10.8227	0.6167	T_INK	4	Incongruent	niebieski	blue	czerwony	red	incorrect	n/a
11.4134	n/a	RESPONSE	n/a	n/a	n/a	n/a	n/a	n/a	n/a	green
11.4395	0.5167	FEEDBACK	n/a	n/a	n/a	n/a	n/a	n/a	n/a	n/a
11.9561	1.0167	ITI	n/a	n/a	n/a	n/a	n/a	n/a	n/a	n/a
12.9728	0.5167	FIXCROSS	n/a	n/a	n/a	n/a	n/a	n/a	n/a	n/a
13.4895	0.9167	T_INK	5	Neutral	xxxxx	xxxxx	zielony	green	hit	n/a
14.3825	n/a	RESPONSE	n/a	n/a	n/a	n/a	n/a	n/a	n/a	green
14.4062	0.5167	FEEDBACK	n/a	n/a	n/a	n/a	n/a	n/a	n/a	n/a
14.9228	1.0167	ITI	n/a	n/a	n/a	n/a	n/a	n/a	n/a	n/a
15.9395	0.5167	FIXCROSS	n/a	n/a	n/a	n/a	n/a	n/a	n/a	n/a
16.4562	0.8167	T_INK	6	Neutral	xxxxxxxxx	xxxxxxxxx	czerwony	red	hit	n/a
17.2398	n/a	RESPONSE	n/a	n/a	n/a	n/a	n/a	n/a	n/a	red
17.2728	0.5167	FEEDBACK	n/a	n/a	n/a	n/a	n/a	n/a	n/a	n/a
17.7895	1.0167	ITI	n/a	n/a	n/a	n/a	n/a	n/a	n/a	n/a
18.8062	0.5167	FIXCROSS	n/a	n/a	n/a	n/a	n/a	n/a	n/a	n/a
19.3229	0.7667	T_INK	7	Incongruent	czerwony	red	niebieski	blue	incorrect	n/a
20.0652	n/a	RESPONSE	n/a	n/a	n/a	n/a	n/a	n/a	n/a	red
20.0895	0.5166	FEEDBACK	n/a	n/a	n/a	n/a	n/a	n/a	n/a	n/a
20.6062	1.0167	ITI	n/a	n/a	n/a	n/a	n/a	n/a	n/a	n/a
21.6229	0.5167	FIXCROSS	n/a	n/a	n/a	n/a	n/a	n/a	n/a	n/a
22.1395	0.95	T_INK	8	Neutral	xxxxxxx	xxxxxxx	żółty	yellow	hit	n/a
23.0661	n/a	RESPONSE	n/a	n/a	n/a	n/a	n/a	n/a	n/a	yellow
23.0896	0.5167	FEEDBACK	n/a	n/a	n/a	n/a	n/a	n/a	n/a	n/a
23.6062	1.0167	ITI	n/a	n/a	n/a	n/a	n/a	n/a	n/a	n/a
24.6229	0.5167	FIXCROSS	n/a	n/a	n/a	n/a	n/a	n/a	n/a	n/a
25.1396	1.0333	T_INK	9	Incongruent	czerwony	red	zielony	green	hit	n/a
26.147	n/a	RESPONSE	n/a	n/a	n/a	n/a	n/a	n/a	n/a	green
26.1729	0.5167	FEEDBACK	n/a	n/a	n/a	n/a	n/a	n/a	n/a	n/a
26.6895	1.0167	ITI	n/a	n/a	n/a	n/a	n/a	n/a	n/a	n/a
27.7063	0.5167	FIXCROSS	n/a	n/a	n/a	n/a	n/a	n/a	n/a	n/a
28.2229	1.05	T_INK	10	Incongruent	zielony	green	niebieski	blue	hit	n/a
29.2437	n/a	RESPONSE	n/a	n/a	n/a	n/a	n/a	n/a	n/a	blue
29.2729	0.5167	FEEDBACK	n/a	n/a	n/a	n/a	n/a	n/a	n/a	n/a
29.7896	1.0167	ITI	n/a	n/a	n/a	n/a	n/a	n/a	n/a	n/a
30.8063	0.5167	FIXCROSS	n/a	n/a	n/a	n/a	n/a	n/a	n/a	n/a
31.323	1.2834	T_INK	11	Incongruent	niebieski	blue	żółty	yellow	hit	n/a
32.5799	n/a	RESPONSE	n/a	n/a	n/a	n/a	n/a	n/a	n/a	yellow
32.6063	0.5167	FEEDBACK	n/a	n/a	n/a	n/a	n/a	n/a	n/a	n/a
33.123	1.0167	ITI	n/a	n/a	n/a	n/a	n/a	n/a	n/a	n/a
34.1396	0.5167	FIXCROSS	n/a	n/a	n/a	n/a	n/a	n/a	n/a	n/a
34.6563	1.0667	T_INK	12	Incongruent	czerwony	red	żółty	yellow	hit	n/a
35.6926	n/a	RESPONSE	n/a	n/a	n/a	n/a	n/a	n/a	n/a	yellow
35.723	0.5167	FEEDBACK	n/a	n/a	n/a	n/a	n/a	n/a	n/a	n/a
36.2397	1.0333	ITI	n/a	n/a	n/a	n/a	n/a	n/a	n/a	n/a
40.5772	n/a	RESPONSE	n/a	n/a	n/a	n/a	n/a	n/a	n/a	n/a
40.6397	1.0167	ITI	n/a	n/a	n/a	n/a	n/a	n/a	n/a	n/a
41.6564	0.5167	FIXCROSS	n/a	n/a	n/a	n/a	n/a	n/a	n/a	n/a
42.173	0.9	INK	1	Neutral	xxxxxxxx	xxxxxxxx	niebieski	blue	hit	n/a
43.0514	n/a	RESPONSE	n/a	n/a	n/a	n/a	n/a	n/a	n/a	blue
43.0731	1.0333	ITI	n/a	n/a	n/a	n/a	n/a	n/a	n/a	n/a
44.1064	0.5167	FIXCROSS	n/a	n/a	n/a	n/a	n/a	n/a	n/a	n/a
44.6231	0.65	INK	2	Neutral	xxxxxxxx	xxxxxxxx	niebieski	blue	hit	n/a
45.2543	n/a	RESPONSE	n/a	n/a	n/a	n/a	n/a	n/a	n/a	blue
45.273	1.0334	ITI	n/a	n/a	n/a	n/a	n/a	n/a	n/a	n/a
46.3064	0.5167	FIXCROSS	n/a	n/a	n/a	n/a	n/a	n/a	n/a	n/a
46.8231	1.0833	INK	3	Incongruent	żółty	yellow	czerwony	red	hit	n/a
47.8881	n/a	RESPONSE	n/a	n/a	n/a	n/a	n/a	n/a	n/a	red
47.9064	1.0166	ITI	n/a	n/a	n/a	n/a	n/a	n/a	n/a	n/a
48.9231	0.5167	FIXCROSS	n/a	n/a	n/a	n/a	n/a	n/a	n/a	n/a
49.4397	0.8333	INK	4	Neutral	xxxxxxxxx	xxxxxxxxx	zielony	green	hit	n/a
50.2506	n/a	RESPONSE	n/a	n/a	n/a	n/a	n/a	n/a	n/a	green
50.2731	1.0167	ITI	n/a	n/a	n/a	n/a	n/a	n/a	n/a	n/a
51.2898	0.5167	FIXCROSS	n/a	n/a	n/a	n/a	n/a	n/a	n/a	n/a
51.8065	0.4833	INK	5	Neutral	xxxxxxxxx	xxxxxxxxx	żółty	yellow	hit	n/a
52.2619	n/a	RESPONSE	n/a	n/a	n/a	n/a	n/a	n/a	n/a	yellow
52.2898	1.0167	ITI	n/a	n/a	n/a	n/a	n/a	n/a	n/a	n/a
53.3065	0.5167	FIXCROSS	n/a	n/a	n/a	n/a	n/a	n/a	n/a	n/a
53.8231	0.8166	INK	6	Neutral	xxxxxxxxx	xxxxxxxxx	czerwony	red	hit	n/a
54.6084	n/a	RESPONSE	n/a	n/a	n/a	n/a	n/a	n/a	n/a	red
54.6398	1.0167	ITI	n/a	n/a	n/a	n/a	n/a	n/a	n/a	n/a
55.6565	0.5167	FIXCROSS	n/a	n/a	n/a	n/a	n/a	n/a	n/a	n/a
56.1732	0.4833	INK	7	Neutral	xxxxxxxx	xxxxxxxx	niebieski	blue	hit	n/a
56.6358	n/a	RESPONSE	n/a	n/a	n/a	n/a	n/a	n/a	n/a	blue
56.6565	1.0167	ITI	n/a	n/a	n/a	n/a	n/a	n/a	n/a	n/a
57.6732	0.5166	FIXCROSS	n/a	n/a	n/a	n/a	n/a	n/a	n/a	n/a
58.1898	0.9334	INK	8	Incongruent	niebieski	blue	żółty	yellow	hit	n/a
59.0939	n/a	RESPONSE	n/a	n/a	n/a	n/a	n/a	n/a	n/a	yellow
59.1232	1.0166	ITI	n/a	n/a	n/a	n/a	n/a	n/a	n/a	n/a
60.1398	0.5167	FIXCROSS	n/a	n/a	n/a	n/a	n/a	n/a	n/a	n/a
60.6565	1.0	INK	9	Incongruent	zielony	green	czerwony	red	hit	n/a
61.632	n/a	RESPONSE	n/a	n/a	n/a	n/a	n/a	n/a	n/a	red
61.6565	1.0167	ITI	n/a	n/a	n/a	n/a	n/a	n/a	n/a	n/a
62.6732	0.5167	FIXCROSS	n/a	n/a	n/a	n/a	n/a	n/a	n/a	n/a
63.1899	0.6833	INK	10	Incongruent	niebieski	blue	żółty	yellow	hit	n/a
63.8507	n/a	RESPONSE	n/a	n/a	n/a	n/a	n/a	n/a	n/a	yellow
63.8732	1.0167	ITI	n/a	n/a	n/a	n/a	n/a	n/a	n/a	n/a
64.8899	0.5167	FIXCROSS	n/a	n/a	n/a	n/a	n/a	n/a	n/a	n/a
65.4066	0.6667	INK	11	Neutral	xxxxx	xxxxx	czerwony	red	hit	n/a
66.0536	n/a	RESPONSE	n/a	n/a	n/a	n/a	n/a	n/a	n/a	red
66.0732	1.0167	ITI	n/a	n/a	n/a	n/a	n/a	n/a	n/a	n/a
67.0899	0.5167	FIXCROSS	n/a	n/a	n/a	n/a	n/a	n/a	n/a	n/a
67.6066	0.7667	INK	12	Incongruent	czerwony	red	niebieski	blue	hit	n/a
68.3521	n/a	RESPONSE	n/a	n/a	n/a	n/a	n/a	n/a	n/a	blue
68.3733	1.0167	ITI	n/a	n/a	n/a	n/a	n/a	n/a	n/a	n/a
69.3899	0.5167	FIXCROSS	n/a	n/a	n/a	n/a	n/a	n/a	n/a	n/a
69.9066	0.75	INK	13	Incongruent	niebieski	blue	czerwony	red	hit	n/a
70.6349	n/a	RESPONSE	n/a	n/a	n/a	n/a	n/a	n/a	n/a	red
70.6566	1.0166	ITI	n/a	n/a	n/a	n/a	n/a	n/a	n/a	n/a
71.6732	0.5167	FIXCROSS	n/a	n/a	n/a	n/a	n/a	n/a	n/a	n/a
72.19	0.9	INK	14	Incongruent	niebieski	blue	czerwony	red	hit	n/a
73.0611	n/a	RESPONSE	n/a	n/a	n/a	n/a	n/a	n/a	n/a	red
73.09	1.0167	ITI	n/a	n/a	n/a	n/a	n/a	n/a	n/a	n/a
74.1066	0.5167	FIXCROSS	n/a	n/a	n/a	n/a	n/a	n/a	n/a	n/a
74.6233	1.05	INK	15	Incongruent	żółty	yellow	zielony	green	incorrect	n/a
75.6471	n/a	RESPONSE	n/a	n/a	n/a	n/a	n/a	n/a	n/a	yellow
75.6733	1.0167	ITI	n/a	n/a	n/a	n/a	n/a	n/a	n/a	n/a
76.69	0.5167	FIXCROSS	n/a	n/a	n/a	n/a	n/a	n/a	n/a	n/a
77.2067	0.55	INK	16	Neutral	xxxxxxx	xxxxxxx	żółty	yellow	hit	n/a
77.7382	n/a	RESPONSE	n/a	n/a	n/a	n/a	n/a	n/a	n/a	yellow
77.7567	1.0167	ITI	n/a	n/a	n/a	n/a	n/a	n/a	n/a	n/a
78.7733	0.5167	FIXCROSS	n/a	n/a	n/a	n/a	n/a	n/a	n/a	n/a
79.29	1.3334	INK	17	Incongruent	zielony	green	czerwony	red	hit	n/a
80.5955	n/a	RESPONSE	n/a	n/a	n/a	n/a	n/a	n/a	n/a	red
80.6234	1.0167	ITI	n/a	n/a	n/a	n/a	n/a	n/a	n/a	n/a
81.64	0.5166	FIXCROSS	n/a	n/a	n/a	n/a	n/a	n/a	n/a	n/a
82.1567	1.2334	INK	18	Incongruent	niebieski	blue	zielony	green	hit	n/a
83.3569	n/a	RESPONSE	n/a	n/a	n/a	n/a	n/a	n/a	n/a	green
83.39	1.0167	ITI	n/a	n/a	n/a	n/a	n/a	n/a	n/a	n/a
84.4067	0.5167	FIXCROSS	n/a	n/a	n/a	n/a	n/a	n/a	n/a	n/a
84.9234	1.0333	INK	19	Incongruent	żółty	yellow	niebieski	blue	hit	n/a
85.9271	n/a	RESPONSE	n/a	n/a	n/a	n/a	n/a	n/a	n/a	blue
85.9567	1.0167	ITI	n/a	n/a	n/a	n/a	n/a	n/a	n/a	n/a
86.9734	0.5167	FIXCROSS	n/a	n/a	n/a	n/a	n/a	n/a	n/a	n/a
87.4901	1.3833	INK	20	Incongruent	niebieski	blue	zielony	green	hit	n/a
88.8481	n/a	RESPONSE	n/a	n/a	n/a	n/a	n/a	n/a	n/a	green
88.8734	1.0167	ITI	n/a	n/a	n/a	n/a	n/a	n/a	n/a	n/a
89.8901	0.5166	FIXCROSS	n/a	n/a	n/a	n/a	n/a	n/a	n/a	n/a
90.4067	0.5834	INK	21	Neutral	xxxxxxxx	xxxxxxxx	żółty	yellow	hit	n/a
90.9711	n/a	RESPONSE	n/a	n/a	n/a	n/a	n/a	n/a	n/a	yellow
90.9901	1.0167	ITI	n/a	n/a	n/a	n/a	n/a	n/a	n/a	n/a
92.0068	0.5167	FIXCROSS	n/a	n/a	n/a	n/a	n/a	n/a	n/a	n/a
92.5235	0.55	INK	22	Neutral	xxxxxxxx	xxxxxxxx	żółty	yellow	hit	n/a
93.0463	n/a	RESPONSE	n/a	n/a	n/a	n/a	n/a	n/a	n/a	yellow
93.0735	1.0166	ITI	n/a	n/a	n/a	n/a	n/a	n/a	n/a	n/a
94.0901	0.5167	FIXCROSS	n/a	n/a	n/a	n/a	n/a	n/a	n/a	n/a
94.6068	0.45	INK	23	Neutral	xxxxxxx	xxxxxxx	żółty	yellow	hit	n/a
95.0257	n/a	RESPONSE	n/a	n/a	n/a	n/a	n/a	n/a	n/a	yellow
95.0568	1.0167	ITI	n/a	n/a	n/a	n/a	n/a	n/a	n/a	n/a
96.0735	0.5166	FIXCROSS	n/a	n/a	n/a	n/a	n/a	n/a	n/a	n/a
96.5901	0.8834	INK	24	Incongruent	żółty	yellow	zielony	green	hit	n/a
97.4519	n/a	RESPONSE	n/a	n/a	n/a	n/a	n/a	n/a	n/a	green
97.4735	1.0167	ITI	n/a	n/a	n/a	n/a	n/a	n/a	n/a	n/a
98.4902	0.5167	FIXCROSS	n/a	n/a	n/a	n/a	n/a	n/a	n/a	n/a
99.0068	0.5834	INK	25	Incongruent	zielony	green	niebieski	blue	hit	n/a
99.559	n/a	RESPONSE	n/a	n/a	n/a	n/a	n/a	n/a	n/a	blue
99.5902	1.0167	ITI	n/a	n/a	n/a	n/a	n/a	n/a	n/a	n/a
100.6069	0.5167	FIXCROSS	n/a	n/a	n/a	n/a	n/a	n/a	n/a	n/a
101.1235	0.55	INK	26	Incongruent	zielony	green	niebieski	blue	hit	n/a
101.6503	n/a	RESPONSE	n/a	n/a	n/a	n/a	n/a	n/a	n/a	blue
101.6735	1.0166	ITI	n/a	n/a	n/a	n/a	n/a	n/a	n/a	n/a
102.6902	0.5167	FIXCROSS	n/a	n/a	n/a	n/a	n/a	n/a	n/a	n/a
103.2069	0.5333	INK	27	Neutral	xxxxxxxxx	xxxxxxxxx	zielony	green	incorrect	n/a
103.7093	n/a	RESPONSE	n/a	n/a	n/a	n/a	n/a	n/a	n/a	yellow
103.7402	1.0167	ITI	n/a	n/a	n/a	n/a	n/a	n/a	n/a	n/a
104.7569	0.5167	FIXCROSS	n/a	n/a	n/a	n/a	n/a	n/a	n/a	n/a
105.2736	1.0666	INK	28	Neutral	xxxxx	xxxxx	niebieski	blue	hit	n/a
106.3112	n/a	RESPONSE	n/a	n/a	n/a	n/a	n/a	n/a	n/a	blue
106.3402	1.0167	ITI	n/a	n/a	n/a	n/a	n/a	n/a	n/a	n/a
107.3569	0.5167	FIXCROSS	n/a	n/a	n/a	n/a	n/a	n/a	n/a	n/a
107.8736	0.8333	INK	29	Neutral	xxxxxxxxx	xxxxxxxxx	czerwony	red	hit	n/a
108.6897	n/a	RESPONSE	n/a	n/a	n/a	n/a	n/a	n/a	n/a	red
108.7069	1.0167	ITI	n/a	n/a	n/a	n/a	n/a	n/a	n/a	n/a
109.7236	0.5166	FIXCROSS	n/a	n/a	n/a	n/a	n/a	n/a	n/a	n/a
110.2402	0.9001	INK	30	Neutral	xxxxxxx	xxxxxxx	niebieski	blue	hit	n/a
111.116	n/a	RESPONSE	n/a	n/a	n/a	n/a	n/a	n/a	n/a	blue
111.1403	1.0167	ITI	n/a	n/a	n/a	n/a	n/a	n/a	n/a	n/a
112.157	0.5166	FIXCROSS	n/a	n/a	n/a	n/a	n/a	n/a	n/a	n/a
112.6736	0.5834	INK	31	Neutral	xxxxxxxxx	xxxxxxxxx	żółty	yellow	hit	n/a
113.2391	n/a	RESPONSE	n/a	n/a	n/a	n/a	n/a	n/a	n/a	yellow
113.257	1.0167	ITI	n/a	n/a	n/a	n/a	n/a	n/a	n/a	n/a
114.2736	0.5167	FIXCROSS	n/a	n/a	n/a	n/a	n/a	n/a	n/a	n/a
114.7903	1.1167	INK	32	Neutral	xxxxx	xxxxx	niebieski	blue	hit	n/a
115.8888	n/a	RESPONSE	n/a	n/a	n/a	n/a	n/a	n/a	n/a	blue
115.907	1.0167	ITI	n/a	n/a	n/a	n/a	n/a	n/a	n/a	n/a
116.9237	0.5167	FIXCROSS	n/a	n/a	n/a	n/a	n/a	n/a	n/a	n/a
117.4403	1.2333	INK	33	Neutral	xxxxxxxx	xxxxxxxx	zielony	green	hit	n/a
118.6503	n/a	RESPONSE	n/a	n/a	n/a	n/a	n/a	n/a	n/a	green
118.6736	1.0167	ITI	n/a	n/a	n/a	n/a	n/a	n/a	n/a	n/a
119.6903	0.5166	FIXCROSS	n/a	n/a	n/a	n/a	n/a	n/a	n/a	n/a
120.207	2.1	INK	34	Incongruent	żółty	yellow	niebieski	blue	hit	n/a
122.2738	n/a	RESPONSE	n/a	n/a	n/a	n/a	n/a	n/a	n/a	blue
122.307	1.0167	ITI	n/a	n/a	n/a	n/a	n/a	n/a	n/a	n/a
123.3237	0.5167	FIXCROSS	n/a	n/a	n/a	n/a	n/a	n/a	n/a	n/a
123.8404	0.6166	INK	35	Incongruent	niebieski	blue	żółty	yellow	hit	n/a
124.4287	n/a	RESPONSE	n/a	n/a	n/a	n/a	n/a	n/a	n/a	yellow
124.457	1.0167	ITI	n/a	n/a	n/a	n/a	n/a	n/a	n/a	n/a
125.4737	0.5167	FIXCROSS	n/a	n/a	n/a	n/a	n/a	n/a	n/a	n/a
125.9904	0.6833	INK	36	Neutral	xxxxx	xxxxx	czerwony	red	hit	n/a
126.6475	n/a	RESPONSE	n/a	n/a	n/a	n/a	n/a	n/a	n/a	red
126.6737	1.0167	ITI	n/a	n/a	n/a	n/a	n/a	n/a	n/a	n/a
127.6904	0.5167	FIXCROSS	n/a	n/a	n/a	n/a	n/a	n/a	n/a	n/a
128.2071	0.5833	INK	37	Neutral	xxxxxxxx	xxxxxxxx	żółty	yellow	hit	n/a
128.7706	n/a	RESPONSE	n/a	n/a	n/a	n/a	n/a	n/a	n/a	yellow
128.7904	1.0167	ITI	n/a	n/a	n/a	n/a	n/a	n/a	n/a	n/a
129.8071	0.5166	FIXCROSS	n/a	n/a	n/a	n/a	n/a	n/a	n/a	n/a
130.3237	0.45	INK	38	Neutral	xxxxxxxxx	xxxxxxxxx	żółty	yellow	hit	n/a
130.7499	n/a	RESPONSE	n/a	n/a	n/a	n/a	n/a	n/a	n/a	yellow
130.7737	1.0167	ITI	n/a	n/a	n/a	n/a	n/a	n/a	n/a	n/a
131.7904	0.5167	FIXCROSS	n/a	n/a	n/a	n/a	n/a	n/a	n/a	n/a
132.3071	0.95	INK	39	Neutral	xxxxxxxx	xxxxxxxx	zielony	green	hit	n/a
133.224	n/a	RESPONSE	n/a	n/a	n/a	n/a	n/a	n/a	n/a	green
133.2571	1.0167	ITI	n/a	n/a	n/a	n/a	n/a	n/a	n/a	n/a
134.2738	0.5166	FIXCROSS	n/a	n/a	n/a	n/a	n/a	n/a	n/a	n/a
134.7904	0.6334	INK	40	Neutral	xxxxx	xxxxx	zielony	green	hit	n/a
135.395	n/a	RESPONSE	n/a	n/a	n/a	n/a	n/a	n/a	n/a	green
135.4238	1.0166	ITI	n/a	n/a	n/a	n/a	n/a	n/a	n/a	n/a
136.4404	0.5167	FIXCROSS	n/a	n/a	n/a	n/a	n/a	n/a	n/a	n/a
136.9572	1.0167	INK	41	Incongruent	zielony	green	żółty	yellow	hit	n/a
137.949	n/a	RESPONSE	n/a	n/a	n/a	n/a	n/a	n/a	n/a	yellow
137.9738	1.0167	ITI	n/a	n/a	n/a	n/a	n/a	n/a	n/a	n/a
138.9905	0.5167	FIXCROSS	n/a	n/a	n/a	n/a	n/a	n/a	n/a	n/a
139.5072	1.1667	INK	42	Incongruent	niebieski	blue	zielony	green	hit	n/a
140.6467	n/a	RESPONSE	n/a	n/a	n/a	n/a	n/a	n/a	n/a	green
140.6739	1.0167	ITI	n/a	n/a	n/a	n/a	n/a	n/a	n/a	n/a
141.6905	0.5166	FIXCROSS	n/a	n/a	n/a	n/a	n/a	n/a	n/a	n/a
142.2072	0.75	INK	43	Neutral	xxxxxxxxx	xxxxxxxxx	zielony	green	hit	n/a
142.9293	n/a	RESPONSE	n/a	n/a	n/a	n/a	n/a	n/a	n/a	green
142.9572	1.0167	ITI	n/a	n/a	n/a	n/a	n/a	n/a	n/a	n/a
143.9739	0.5167	FIXCROSS	n/a	n/a	n/a	n/a	n/a	n/a	n/a	n/a
144.4905	0.6333	INK	44	Incongruent	czerwony	red	żółty	yellow	hit	n/a
145.1003	n/a	RESPONSE	n/a	n/a	n/a	n/a	n/a	n/a	n/a	yellow
145.1239	1.0167	ITI	n/a	n/a	n/a	n/a	n/a	n/a	n/a	n/a
146.1406	0.5167	FIXCROSS	n/a	n/a	n/a	n/a	n/a	n/a	n/a	n/a
146.6572	0.7833	INK	45	Neutral	xxxxxxx	xxxxxxx	niebieski	blue	hit	n/a
147.4148	n/a	RESPONSE	n/a	n/a	n/a	n/a	n/a	n/a	n/a	blue
147.4406	1.0167	ITI	n/a	n/a	n/a	n/a	n/a	n/a	n/a	n/a
148.4572	0.5167	FIXCROSS	n/a	n/a	n/a	n/a	n/a	n/a	n/a	n/a
148.9739	0.8	INK	46	Incongruent	zielony	green	żółty	yellow	hit	n/a
149.7453	n/a	RESPONSE	n/a	n/a	n/a	n/a	n/a	n/a	n/a	yellow
149.7739	1.0167	ITI	n/a	n/a	n/a	n/a	n/a	n/a	n/a	n/a
150.7906	0.5167	FIXCROSS	n/a	n/a	n/a	n/a	n/a	n/a	n/a	n/a
151.3073	1.1	INK	47	Incongruent	czerwony	red	niebieski	blue	hit	n/a
152.3792	n/a	RESPONSE	n/a	n/a	n/a	n/a	n/a	n/a	n/a	blue
152.4072	1.0167	ITI	n/a	n/a	n/a	n/a	n/a	n/a	n/a	n/a
153.424	0.5167	FIXCROSS	n/a	n/a	n/a	n/a	n/a	n/a	n/a	n/a
153.9406	0.4667	INK	48	Incongruent	żółty	yellow	czerwony	red	hit	n/a
154.3745	n/a	RESPONSE	n/a	n/a	n/a	n/a	n/a	n/a	n/a	red
154.4073	1.0167	ITI	n/a	n/a	n/a	n/a	n/a	n/a	n/a	n/a
155.424	0.5166	FIXCROSS	n/a	n/a	n/a	n/a	n/a	n/a	n/a	n/a
155.9406	1.25	INK	49	Neutral	xxxxx	xxxxx	zielony	green	hit	n/a
157.1679	n/a	RESPONSE	n/a	n/a	n/a	n/a	n/a	n/a	n/a	green
157.1906	1.0167	ITI	n/a	n/a	n/a	n/a	n/a	n/a	n/a	n/a
158.2073	0.5166	FIXCROSS	n/a	n/a	n/a	n/a	n/a	n/a	n/a	n/a
158.724	0.4	INK	50	Neutral	xxxxxxx	xxxxxxx	żółty	yellow	hit	n/a
159.0993	n/a	RESPONSE	n/a	n/a	n/a	n/a	n/a	n/a	n/a	yellow
159.124	1.0167	ITI	n/a	n/a	n/a	n/a	n/a	n/a	n/a	n/a
160.1407	0.5166	FIXCROSS	n/a	n/a	n/a	n/a	n/a	n/a	n/a	n/a
160.6573	0.7	INK	51	Incongruent	czerwony	red	żółty	yellow	hit	n/a
161.3342	n/a	RESPONSE	n/a	n/a	n/a	n/a	n/a	n/a	n/a	yellow
161.3573	1.0167	ITI	n/a	n/a	n/a	n/a	n/a	n/a	n/a	n/a
162.374	0.5167	FIXCROSS	n/a	n/a	n/a	n/a	n/a	n/a	n/a	n/a
162.8907	0.5833	INK	52	Neutral	xxxxxxxx	xxxxxxxx	zielony	green	incorrect	n/a
163.4412	n/a	RESPONSE	n/a	n/a	n/a	n/a	n/a	n/a	n/a	yellow
163.474	1.0166	ITI	n/a	n/a	n/a	n/a	n/a	n/a	n/a	n/a
164.4907	0.5167	FIXCROSS	n/a	n/a	n/a	n/a	n/a	n/a	n/a	n/a
165.0074	0.6667	INK	53	Neutral	xxxxxxx	xxxxxxx	czerwony	red	hit	n/a
165.6442	n/a	RESPONSE	n/a	n/a	n/a	n/a	n/a	n/a	n/a	red
165.6741	1.0167	ITI	n/a	n/a	n/a	n/a	n/a	n/a	n/a	n/a
166.6907	0.5166	FIXCROSS	n/a	n/a	n/a	n/a	n/a	n/a	n/a	n/a
167.2074	1.0667	INK	54	Incongruent	czerwony	red	zielony	green	hit	n/a
168.246	n/a	RESPONSE	n/a	n/a	n/a	n/a	n/a	n/a	n/a	green
168.2741	1.0167	ITI	n/a	n/a	n/a	n/a	n/a	n/a	n/a	n/a
169.2908	0.5167	FIXCROSS	n/a	n/a	n/a	n/a	n/a	n/a	n/a	n/a
169.8074	0.9167	INK	55	Incongruent	żółty	yellow	czerwony	red	hit	n/a
170.7042	n/a	RESPONSE	n/a	n/a	n/a	n/a	n/a	n/a	n/a	red
170.7241	1.0166	ITI	n/a	n/a	n/a	n/a	n/a	n/a	n/a	n/a
171.7406	0.5168	FIXCROSS	n/a	n/a	n/a	n/a	n/a	n/a	n/a	n/a
172.2575	1.1167	INK	56	Neutral	xxxxxxxxx	xxxxxxxxx	czerwony	red	hit	n/a
173.3541	n/a	RESPONSE	n/a	n/a	n/a	n/a	n/a	n/a	n/a	red
173.3741	1.0167	ITI	n/a	n/a	n/a	n/a	n/a	n/a	n/a	n/a
174.3908	0.5166	FIXCROSS	n/a	n/a	n/a	n/a	n/a	n/a	n/a	n/a
174.9074	0.95	INK	57	Incongruent	niebieski	blue	czerwony	red	hit	n/a
175.8283	n/a	RESPONSE	n/a	n/a	n/a	n/a	n/a	n/a	n/a	red
175.8574	1.0167	ITI	n/a	n/a	n/a	n/a	n/a	n/a	n/a	n/a
176.8741	0.5167	FIXCROSS	n/a	n/a	n/a	n/a	n/a	n/a	n/a	n/a
177.3908	0.95	INK	58	Incongruent	czerwony	red	zielony	green	hit	n/a
178.3184	n/a	RESPONSE	n/a	n/a	n/a	n/a	n/a	n/a	n/a	green
178.3408	1.0166	ITI	n/a	n/a	n/a	n/a	n/a	n/a	n/a	n/a
179.3575	0.5167	FIXCROSS	n/a	n/a	n/a	n/a	n/a	n/a	n/a	n/a
179.8741	0.9334	INK	59	Incongruent	żółty	yellow	zielony	green	hit	n/a
180.7766	n/a	RESPONSE	n/a	n/a	n/a	n/a	n/a	n/a	n/a	green
180.8075	1.0167	ITI	n/a	n/a	n/a	n/a	n/a	n/a	n/a	n/a
181.8242	0.5166	FIXCROSS	n/a	n/a	n/a	n/a	n/a	n/a	n/a	n/a
182.3408	0.8	INK	60	Incongruent	żółty	yellow	niebieski	blue	hit	n/a
183.1072	n/a	RESPONSE	n/a	n/a	n/a	n/a	n/a	n/a	n/a	blue
183.1409	1.0167	ITI	n/a	n/a	n/a	n/a	n/a	n/a	n/a	n/a
184.1575	0.5167	FIXCROSS	n/a	n/a	n/a	n/a	n/a	n/a	n/a	n/a
184.6742	0.4833	INK	61	Neutral	xxxxx	xxxxx	niebieski	blue	hit	n/a
185.1344	n/a	RESPONSE	n/a	n/a	n/a	n/a	n/a	n/a	n/a	blue
185.1575	1.0167	ITI	n/a	n/a	n/a	n/a	n/a	n/a	n/a	n/a
186.1742	0.5166	FIXCROSS	n/a	n/a	n/a	n/a	n/a	n/a	n/a	n/a
186.6909	1.05	INK	62	Neutral	xxxxx	xxxxx	zielony	green	hit	n/a
187.7205	n/a	RESPONSE	n/a	n/a	n/a	n/a	n/a	n/a	n/a	green
187.7409	1.0167	ITI	n/a	n/a	n/a	n/a	n/a	n/a	n/a	n/a
188.7576	0.5167	FIXCROSS	n/a	n/a	n/a	n/a	n/a	n/a	n/a	n/a
189.2742	0.7333	INK	63	Neutral	xxxxxxx	xxxxxxx	czerwony	red	hit	n/a
189.987	n/a	RESPONSE	n/a	n/a	n/a	n/a	n/a	n/a	n/a	red
190.0076	1.0167	ITI	n/a	n/a	n/a	n/a	n/a	n/a	n/a	n/a
191.0243	0.5166	FIXCROSS	n/a	n/a	n/a	n/a	n/a	n/a	n/a	n/a
191.5409	1.0334	INK	64	Neutral	xxxxxxx	xxxxxxx	niebieski	blue	hit	n/a
192.5411	n/a	RESPONSE	n/a	n/a	n/a	n/a	n/a	n/a	n/a	blue
192.5743	1.0167	ITI	n/a	n/a	n/a	n/a	n/a	n/a	n/a	n/a
193.591	0.5167	FIXCROSS	n/a	n/a	n/a	n/a	n/a	n/a	n/a	n/a
194.1076	1.4666	INK	65	Neutral	xxxxx	xxxxx	czerwony	red	hit	n/a
195.5421	n/a	RESPONSE	n/a	n/a	n/a	n/a	n/a	n/a	n/a	red
195.5743	1.0167	ITI	n/a	n/a	n/a	n/a	n/a	n/a	n/a	n/a
196.591	0.5166	FIXCROSS	n/a	n/a	n/a	n/a	n/a	n/a	n/a	n/a
197.1076	1.15	INK	66	Incongruent	czerwony	red	niebieski	blue	hit	n/a
198.2238	n/a	RESPONSE	n/a	n/a	n/a	n/a	n/a	n/a	n/a	blue
198.2577	1.0166	ITI	n/a	n/a	n/a	n/a	n/a	n/a	n/a	n/a
199.2743	0.5167	FIXCROSS	n/a	n/a	n/a	n/a	n/a	n/a	n/a	n/a
199.791	1.15	INK	67	Incongruent	zielony	green	niebieski	blue	hit	n/a
200.9215	n/a	RESPONSE	n/a	n/a	n/a	n/a	n/a	n/a	n/a	blue
200.941	1.0167	ITI	n/a	n/a	n/a	n/a	n/a	n/a	n/a	n/a
201.9577	0.5167	FIXCROSS	n/a	n/a	n/a	n/a	n/a	n/a	n/a	n/a
202.4744	1.2167	INK	68	Incongruent	czerwony	red	zielony	green	hit	n/a
203.6671	n/a	RESPONSE	n/a	n/a	n/a	n/a	n/a	n/a	n/a	green
203.691	1.0167	ITI	n/a	n/a	n/a	n/a	n/a	n/a	n/a	n/a
204.7077	0.5167	FIXCROSS	n/a	n/a	n/a	n/a	n/a	n/a	n/a	n/a
205.2244	0.8	INK	69	Neutral	xxxxxxx	xxxxxxx	czerwony	red	hit	n/a
205.9976	n/a	RESPONSE	n/a	n/a	n/a	n/a	n/a	n/a	n/a	red
206.0244	1.0167	ITI	n/a	n/a	n/a	n/a	n/a	n/a	n/a	n/a
207.0411	0.5167	FIXCROSS	n/a	n/a	n/a	n/a	n/a	n/a	n/a	n/a
207.5577	0.7166	INK	70	Incongruent	zielony	green	żółty	yellow	hit	n/a
208.2483	n/a	RESPONSE	n/a	n/a	n/a	n/a	n/a	n/a	n/a	yellow
208.2744	1.0167	ITI	n/a	n/a	n/a	n/a	n/a	n/a	n/a	n/a
209.291	0.5167	FIXCROSS	n/a	n/a	n/a	n/a	n/a	n/a	n/a	n/a
209.8077	0.85	INK	71	Incongruent	zielony	green	czerwony	red	hit	n/a
210.6268	n/a	RESPONSE	n/a	n/a	n/a	n/a	n/a	n/a	n/a	red
210.6577	1.0167	ITI	n/a	n/a	n/a	n/a	n/a	n/a	n/a	n/a
211.6744	0.5166	FIXCROSS	n/a	n/a	n/a	n/a	n/a	n/a	n/a	n/a
212.1911	0.6334	INK	72	Incongruent	czerwony	red	żółty	yellow	hit	n/a
212.7978	n/a	RESPONSE	n/a	n/a	n/a	n/a	n/a	n/a	n/a	yellow
212.8244	1.0833	ITI	n/a	n/a	n/a	n/a	n/a	n/a	n/a	n/a
238.4495	n/a	RESPONSE	n/a	n/a	n/a	n/a	n/a	n/a	n/a	n/a
238.508	1.0167	ITI	n/a	n/a	n/a	n/a	n/a	n/a	n/a	n/a
239.5247	0.5166	FIXCROSS	n/a	n/a	n/a	n/a	n/a	n/a	n/a	n/a
240.0413	0.9667	T_COLOR_NAME	1	Incongruent	czerwony	red	niebieski	blue	hit	n/a
240.9715	n/a	RESPONSE	n/a	n/a	n/a	n/a	n/a	n/a	n/a	red
241.008	0.5167	FEEDBACK	n/a	n/a	n/a	n/a	n/a	n/a	n/a	n/a
241.5247	1.0167	ITI	n/a	n/a	n/a	n/a	n/a	n/a	n/a	n/a
242.5414	0.5167	FIXCROSS	n/a	n/a	n/a	n/a	n/a	n/a	n/a	n/a
243.058	0.8	T_COLOR_NAME	2	Incongruent	zielony	green	niebieski	blue	hit	n/a
243.8288	n/a	RESPONSE	n/a	n/a	n/a	n/a	n/a	n/a	n/a	green
243.858	0.5167	FEEDBACK	n/a	n/a	n/a	n/a	n/a	n/a	n/a	n/a
244.3747	1.0166	ITI	n/a	n/a	n/a	n/a	n/a	n/a	n/a	n/a
245.3913	0.5167	FIXCROSS	n/a	n/a	n/a	n/a	n/a	n/a	n/a	n/a
245.908	0.7	T_COLOR_NAME	3	Neutral	czerwony	red	Neutral	Neutral	hit	n/a
246.5744	n/a	RESPONSE	n/a	n/a	n/a	n/a	n/a	n/a	n/a	red
246.6081	0.5166	FEEDBACK	n/a	n/a	n/a	n/a	n/a	n/a	n/a	n/a
247.1247	1.0167	ITI	n/a	n/a	n/a	n/a	n/a	n/a	n/a	n/a
248.1414	0.5167	FIXCROSS	n/a	n/a	n/a	n/a	n/a	n/a	n/a	n/a
248.6581	0.6333	T_COLOR_NAME	4	Neutral	niebieski	blue	Neutral	Neutral	hit	n/a
249.2561	n/a	RESPONSE	n/a	n/a	n/a	n/a	n/a	n/a	n/a	blue
249.2914	0.5166	FEEDBACK	n/a	n/a	n/a	n/a	n/a	n/a	n/a	n/a
249.808	1.0167	ITI	n/a	n/a	n/a	n/a	n/a	n/a	n/a	n/a
250.8248	0.5167	FIXCROSS	n/a	n/a	n/a	n/a	n/a	n/a	n/a	n/a
251.3414	0.65	T_COLOR_NAME	5	Incongruent	czerwony	red	zielony	green	hit	n/a
251.9698	n/a	RESPONSE	n/a	n/a	n/a	n/a	n/a	n/a	n/a	red
251.9914	0.5166	FEEDBACK	n/a	n/a	n/a	n/a	n/a	n/a	n/a	n/a
252.5081	1.0167	ITI	n/a	n/a	n/a	n/a	n/a	n/a	n/a	n/a
253.5248	0.5166	FIXCROSS	n/a	n/a	n/a	n/a	n/a	n/a	n/a	n/a
254.0414	1.1334	T_COLOR_NAME	6	Neutral	zielony	green	Neutral	Neutral	hit	n/a
255.1464	n/a	RESPONSE	n/a	n/a	n/a	n/a	n/a	n/a	n/a	green
255.1748	0.5167	FEEDBACK	n/a	n/a	n/a	n/a	n/a	n/a	n/a	n/a
255.6915	1.0167	ITI	n/a	n/a	n/a	n/a	n/a	n/a	n/a	n/a
256.7081	0.5167	FIXCROSS	n/a	n/a	n/a	n/a	n/a	n/a	n/a	n/a
257.2248	0.6667	T_COLOR_NAME	7	Neutral	żółty	yellow	Neutral	Neutral	hit	n/a
257.8601	n/a	RESPONSE	n/a	n/a	n/a	n/a	n/a	n/a	n/a	yellow
257.8915	0.5167	FEEDBACK	n/a	n/a	n/a	n/a	n/a	n/a	n/a	n/a
258.4081	1.0167	ITI	n/a	n/a	n/a	n/a	n/a	n/a	n/a	n/a
259.4248	0.5167	FIXCROSS	n/a	n/a	n/a	n/a	n/a	n/a	n/a	n/a
259.9415	1.05	T_COLOR_NAME	8	Neutral	niebieski	blue	Neutral	Neutral	hit	n/a
260.9569	n/a	RESPONSE	n/a	n/a	n/a	n/a	n/a	n/a	n/a	blue
260.9915	0.5167	FEEDBACK	n/a	n/a	n/a	n/a	n/a	n/a	n/a	n/a
261.5082	1.0167	ITI	n/a	n/a	n/a	n/a	n/a	n/a	n/a	n/a
262.5248	0.5166	FIXCROSS	n/a	n/a	n/a	n/a	n/a	n/a	n/a	n/a
263.0415	0.55	T_COLOR_NAME	9	Neutral	żółty	yellow	Neutral	Neutral	hit	n/a
263.5587	n/a	RESPONSE	n/a	n/a	n/a	n/a	n/a	n/a	n/a	yellow
263.5915	0.5167	FEEDBACK	n/a	n/a	n/a	n/a	n/a	n/a	n/a	n/a
264.1082	1.0167	ITI	n/a	n/a	n/a	n/a	n/a	n/a	n/a	n/a
265.1249	0.5167	FIXCROSS	n/a	n/a	n/a	n/a	n/a	n/a	n/a	n/a
265.6415	1.1	T_COLOR_NAME	10	Incongruent	czerwony	red	żółty	yellow	hit	n/a
266.7194	n/a	RESPONSE	n/a	n/a	n/a	n/a	n/a	n/a	n/a	red
266.7415	0.5167	FEEDBACK	n/a	n/a	n/a	n/a	n/a	n/a	n/a	n/a
267.2582	1.0166	ITI	n/a	n/a	n/a	n/a	n/a	n/a	n/a	n/a
268.2749	0.5167	FIXCROSS	n/a	n/a	n/a	n/a	n/a	n/a	n/a	n/a
268.7916	0.8833	T_COLOR_NAME	11	Incongruent	niebieski	blue	żółty	yellow	hit	n/a
269.6405	n/a	RESPONSE	n/a	n/a	n/a	n/a	n/a	n/a	n/a	blue
269.6749	0.5166	FEEDBACK	n/a	n/a	n/a	n/a	n/a	n/a	n/a	n/a
270.1915	1.0167	ITI	n/a	n/a	n/a	n/a	n/a	n/a	n/a	n/a
271.2083	0.5166	FIXCROSS	n/a	n/a	n/a	n/a	n/a	n/a	n/a	n/a
271.7249	0.7834	T_COLOR_NAME	12	Incongruent	niebieski	blue	czerwony	red	hit	n/a
272.4819	n/a	RESPONSE	n/a	n/a	n/a	n/a	n/a	n/a	n/a	blue
272.5083	0.5167	FEEDBACK	n/a	n/a	n/a	n/a	n/a	n/a	n/a	n/a
273.0249	1.0333	ITI	n/a	n/a	n/a	n/a	n/a	n/a	n/a	n/a
278.835	n/a	RESPONSE	n/a	n/a	n/a	n/a	n/a	n/a	n/a	n/a
278.8916	1.0167	ITI	n/a	n/a	n/a	n/a	n/a	n/a	n/a	n/a
279.9083	0.5166	FIXCROSS	n/a	n/a	n/a	n/a	n/a	n/a	n/a	n/a
280.425	1.0167	COLOR_NAME	1	Neutral	żółty	yellow	Neutral	Neutral	hit	n/a
281.421	n/a	RESPONSE	n/a	n/a	n/a	n/a	n/a	n/a	n/a	yellow
281.4417	1.0167	ITI	n/a	n/a	n/a	n/a	n/a	n/a	n/a	n/a
282.4583	0.5166	FIXCROSS	n/a	n/a	n/a	n/a	n/a	n/a	n/a	n/a
282.975	0.6	COLOR_NAME	2	Neutral	żółty	yellow	Neutral	Neutral	hit	n/a
283.544	n/a	RESPONSE	n/a	n/a	n/a	n/a	n/a	n/a	n/a	yellow
283.575	1.0167	ITI	n/a	n/a	n/a	n/a	n/a	n/a	n/a	n/a
284.5917	0.5167	FIXCROSS	n/a	n/a	n/a	n/a	n/a	n/a	n/a	n/a
285.1084	0.75	COLOR_NAME	3	Neutral	niebieski	blue	Neutral	Neutral	hit	n/a
285.8267	n/a	RESPONSE	n/a	n/a	n/a	n/a	n/a	n/a	n/a	blue
285.8584	1.0167	ITI	n/a	n/a	n/a	n/a	n/a	n/a	n/a	n/a
286.8751	0.5166	FIXCROSS	n/a	n/a	n/a	n/a	n/a	n/a	n/a	n/a
287.3917	0.9833	COLOR_NAME	4	Neutral	zielony	green	Neutral	Neutral	hit	n/a
288.3488	n/a	RESPONSE	n/a	n/a	n/a	n/a	n/a	n/a	n/a	green
288.375	1.0167	ITI	n/a	n/a	n/a	n/a	n/a	n/a	n/a	n/a
289.3917	0.5167	FIXCROSS	n/a	n/a	n/a	n/a	n/a	n/a	n/a	n/a
289.9084	0.7167	COLOR_NAME	5	Incongruent	niebieski	blue	żółty	yellow	hit	n/a
290.5995	n/a	RESPONSE	n/a	n/a	n/a	n/a	n/a	n/a	n/a	blue
290.6251	1.0167	ITI	n/a	n/a	n/a	n/a	n/a	n/a	n/a	n/a
291.6418	0.5167	FIXCROSS	n/a	n/a	n/a	n/a	n/a	n/a	n/a	n/a
292.1584	0.9	COLOR_NAME	6	Neutral	zielony	green	Neutral	Neutral	hit	n/a
293.0259	n/a	RESPONSE	n/a	n/a	n/a	n/a	n/a	n/a	n/a	green
293.0584	1.0166	ITI	n/a	n/a	n/a	n/a	n/a	n/a	n/a	n/a
294.0751	0.5167	FIXCROSS	n/a	n/a	n/a	n/a	n/a	n/a	n/a	n/a
294.5918	0.4667	COLOR_NAME	7	Neutral	zielony	green	Neutral	Neutral	hit	n/a
295.0371	n/a	RESPONSE	n/a	n/a	n/a	n/a	n/a	n/a	n/a	green
295.0585	1.0167	ITI	n/a	n/a	n/a	n/a	n/a	n/a	n/a	n/a
296.0751	0.5166	FIXCROSS	n/a	n/a	n/a	n/a	n/a	n/a	n/a	n/a
296.5918	0.7167	COLOR_NAME	8	Incongruent	żółty	yellow	zielony	green	hit	n/a
297.2878	n/a	RESPONSE	n/a	n/a	n/a	n/a	n/a	n/a	n/a	yellow
297.3085	1.0167	ITI	n/a	n/a	n/a	n/a	n/a	n/a	n/a	n/a
298.3251	0.5167	FIXCROSS	n/a	n/a	n/a	n/a	n/a	n/a	n/a	n/a
298.8418	0.6333	COLOR_NAME	9	Neutral	czerwony	red	Neutral	Neutral	hit	n/a
299.4428	n/a	RESPONSE	n/a	n/a	n/a	n/a	n/a	n/a	n/a	red
299.4752	1.0166	ITI	n/a	n/a	n/a	n/a	n/a	n/a	n/a	n/a
300.4918	0.5167	FIXCROSS	n/a	n/a	n/a	n/a	n/a	n/a	n/a	n/a
301.0085	0.8334	COLOR_NAME	10	Neutral	niebieski	blue	Neutral	Neutral	hit	n/a
301.8212	n/a	RESPONSE	n/a	n/a	n/a	n/a	n/a	n/a	n/a	blue
301.8418	1.0167	ITI	n/a	n/a	n/a	n/a	n/a	n/a	n/a	n/a
302.8585	0.5166	FIXCROSS	n/a	n/a	n/a	n/a	n/a	n/a	n/a	n/a
303.3752	0.8834	COLOR_NAME	11	Incongruent	zielony	green	żółty	yellow	hit	n/a
304.2316	n/a	RESPONSE	n/a	n/a	n/a	n/a	n/a	n/a	n/a	green
304.2585	1.0167	ITI	n/a	n/a	n/a	n/a	n/a	n/a	n/a	n/a
305.2752	0.5167	FIXCROSS	n/a	n/a	n/a	n/a	n/a	n/a	n/a	n/a
305.7919	0.9333	COLOR_NAME	12	Incongruent	niebieski	blue	zielony	green	hit	n/a
306.706	n/a	RESPONSE	n/a	n/a	n/a	n/a	n/a	n/a	n/a	blue
306.7252	1.0167	ITI	n/a	n/a	n/a	n/a	n/a	n/a	n/a	n/a
307.7419	0.5167	FIXCROSS	n/a	n/a	n/a	n/a	n/a	n/a	n/a	n/a
308.2586	1.2333	COLOR_NAME	13	Neutral	zielony	green	Neutral	Neutral	hit	n/a
309.4674	n/a	RESPONSE	n/a	n/a	n/a	n/a	n/a	n/a	n/a	green
309.4919	1.0167	ITI	n/a	n/a	n/a	n/a	n/a	n/a	n/a	n/a
310.5086	0.5167	FIXCROSS	n/a	n/a	n/a	n/a	n/a	n/a	n/a	n/a
311.0253	0.5833	COLOR_NAME	14	Neutral	czerwony	red	Neutral	Neutral	hit	n/a
311.5745	n/a	RESPONSE	n/a	n/a	n/a	n/a	n/a	n/a	n/a	red
311.6086	1.0166	ITI	n/a	n/a	n/a	n/a	n/a	n/a	n/a	n/a
312.6252	0.5167	FIXCROSS	n/a	n/a	n/a	n/a	n/a	n/a	n/a	n/a
313.1419	1.1333	COLOR_NAME	15	Incongruent	zielony	green	żółty	yellow	hit	n/a
314.2403	n/a	RESPONSE	n/a	n/a	n/a	n/a	n/a	n/a	n/a	green
314.2753	1.0167	ITI	n/a	n/a	n/a	n/a	n/a	n/a	n/a	n/a
315.292	0.5167	FIXCROSS	n/a	n/a	n/a	n/a	n/a	n/a	n/a	n/a
315.8086	1.7334	COLOR_NAME	16	Incongruent	niebieski	blue	żółty	yellow	hit	n/a
317.5126	n/a	RESPONSE	n/a	n/a	n/a	n/a	n/a	n/a	n/a	blue
317.542	1.0167	ITI	n/a	n/a	n/a	n/a	n/a	n/a	n/a	n/a
318.5586	0.5167	FIXCROSS	n/a	n/a	n/a	n/a	n/a	n/a	n/a	n/a
319.0753	0.8333	COLOR_NAME	17	Incongruent	czerwony	red	niebieski	blue	hit	n/a
319.8751	n/a	RESPONSE	n/a	n/a	n/a	n/a	n/a	n/a	n/a	red
319.9086	1.0167	ITI	n/a	n/a	n/a	n/a	n/a	n/a	n/a	n/a
320.9253	0.5166	FIXCROSS	n/a	n/a	n/a	n/a	n/a	n/a	n/a	n/a
321.442	0.6334	COLOR_NAME	18	Neutral	żółty	yellow	Neutral	Neutral	hit	n/a
322.046	n/a	RESPONSE	n/a	n/a	n/a	n/a	n/a	n/a	n/a	yellow
322.0753	1.0167	ITI	n/a	n/a	n/a	n/a	n/a	n/a	n/a	n/a
323.092	0.5167	FIXCROSS	n/a	n/a	n/a	n/a	n/a	n/a	n/a	n/a
323.6087	1.05	COLOR_NAME	19	Incongruent	czerwony	red	żółty	yellow	hit	n/a
324.632	n/a	RESPONSE	n/a	n/a	n/a	n/a	n/a	n/a	n/a	red
324.6587	1.0167	ITI	n/a	n/a	n/a	n/a	n/a	n/a	n/a	n/a
325.6754	0.5167	FIXCROSS	n/a	n/a	n/a	n/a	n/a	n/a	n/a	n/a
326.192	0.8333	COLOR_NAME	20	Incongruent	niebieski	blue	żółty	yellow	hit	n/a
326.9945	n/a	RESPONSE	n/a	n/a	n/a	n/a	n/a	n/a	n/a	blue
327.0253	1.0167	ITI	n/a	n/a	n/a	n/a	n/a	n/a	n/a	n/a
328.0421	0.5167	FIXCROSS	n/a	n/a	n/a	n/a	n/a	n/a	n/a	n/a
328.5587	1.2667	COLOR_NAME	21	Neutral	zielony	green	Neutral	Neutral	hit	n/a
329.8038	n/a	RESPONSE	n/a	n/a	n/a	n/a	n/a	n/a	n/a	green
329.8254	1.0167	ITI	n/a	n/a	n/a	n/a	n/a	n/a	n/a	n/a
330.8421	0.5166	FIXCROSS	n/a	n/a	n/a	n/a	n/a	n/a	n/a	n/a
331.3587	0.6334	COLOR_NAME	22	Incongruent	czerwony	red	zielony	green	hit	n/a
331.9748	n/a	RESPONSE	n/a	n/a	n/a	n/a	n/a	n/a	n/a	red
331.9921	1.0167	ITI	n/a	n/a	n/a	n/a	n/a	n/a	n/a	n/a
333.0088	0.5167	FIXCROSS	n/a	n/a	n/a	n/a	n/a	n/a	n/a	n/a
333.5254	0.45	COLOR_NAME	23	Neutral	niebieski	blue	Neutral	Neutral	hit	n/a
333.9542	n/a	RESPONSE	n/a	n/a	n/a	n/a	n/a	n/a	n/a	blue
333.9754	1.0167	ITI	n/a	n/a	n/a	n/a	n/a	n/a	n/a	n/a
334.9921	0.5166	FIXCROSS	n/a	n/a	n/a	n/a	n/a	n/a	n/a	n/a
335.5087	0.6833	COLOR_NAME	24	Neutral	czerwony	red	Neutral	Neutral	hit	n/a
336.173	n/a	RESPONSE	n/a	n/a	n/a	n/a	n/a	n/a	n/a	red
336.1921	1.0167	ITI	n/a	n/a	n/a	n/a	n/a	n/a	n/a	n/a
337.2088	0.5167	FIXCROSS	n/a	n/a	n/a	n/a	n/a	n/a	n/a	n/a
337.7255	0.8167	COLOR_NAME	25	Neutral	żółty	yellow	Neutral	Neutral	hit	n/a
338.5196	n/a	RESPONSE	n/a	n/a	n/a	n/a	n/a	n/a	n/a	yellow
338.5421	1.0167	ITI	n/a	n/a	n/a	n/a	n/a	n/a	n/a	n/a
339.5588	0.5167	FIXCROSS	n/a	n/a	n/a	n/a	n/a	n/a	n/a	n/a
340.0755	0.6166	COLOR_NAME	26	Neutral	żółty	yellow	Neutral	Neutral	hit	n/a
340.6746	n/a	RESPONSE	n/a	n/a	n/a	n/a	n/a	n/a	n/a	yellow
340.6921	1.0167	ITI	n/a	n/a	n/a	n/a	n/a	n/a	n/a	n/a
341.7088	0.5167	FIXCROSS	n/a	n/a	n/a	n/a	n/a	n/a	n/a	n/a
342.2255	0.4833	COLOR_NAME	27	Incongruent	czerwony	red	zielony	green	hit	n/a
342.6858	n/a	RESPONSE	n/a	n/a	n/a	n/a	n/a	n/a	n/a	red
342.7088	1.0167	ITI	n/a	n/a	n/a	n/a	n/a	n/a	n/a	n/a
343.7255	0.5166	FIXCROSS	n/a	n/a	n/a	n/a	n/a	n/a	n/a	n/a
344.2421	0.5833	COLOR_NAME	28	Incongruent	czerwony	red	niebieski	blue	hit	n/a
344.7929	n/a	RESPONSE	n/a	n/a	n/a	n/a	n/a	n/a	n/a	red
344.8255	1.0167	ITI	n/a	n/a	n/a	n/a	n/a	n/a	n/a	n/a
345.8422	0.5167	FIXCROSS	n/a	n/a	n/a	n/a	n/a	n/a	n/a	n/a
346.3589	0.9	COLOR_NAME	29	Incongruent	żółty	yellow	czerwony	red	hit	n/a
347.2353	n/a	RESPONSE	n/a	n/a	n/a	n/a	n/a	n/a	n/a	yellow
347.2589	1.0167	ITI	n/a	n/a	n/a	n/a	n/a	n/a	n/a	n/a
348.2756	0.5166	FIXCROSS	n/a	n/a	n/a	n/a	n/a	n/a	n/a	n/a
348.7922	0.4834	COLOR_NAME	30	Incongruent	żółty	yellow	zielony	green	hit	n/a
349.2465	n/a	RESPONSE	n/a	n/a	n/a	n/a	n/a	n/a	n/a	yellow
349.2756	1.0167	ITI	n/a	n/a	n/a	n/a	n/a	n/a	n/a	n/a
350.2922	0.5166	FIXCROSS	n/a	n/a	n/a	n/a	n/a	n/a	n/a	n/a
350.8089	0.8333	COLOR_NAME	31	Neutral	niebieski	blue	Neutral	Neutral	hit	n/a
351.609	n/a	RESPONSE	n/a	n/a	n/a	n/a	n/a	n/a	n/a	blue
351.6422	1.0167	ITI	n/a	n/a	n/a	n/a	n/a	n/a	n/a	n/a
352.6589	0.5167	FIXCROSS	n/a	n/a	n/a	n/a	n/a	n/a	n/a	n/a
353.1756	0.75	COLOR_NAME	32	Incongruent	zielony	green	czerwony	red	incorrect	n/a
353.9075	n/a	RESPONSE	n/a	n/a	n/a	n/a	n/a	n/a	n/a	red
353.9256	1.0166	ITI	n/a	n/a	n/a	n/a	n/a	n/a	n/a	n/a
354.9422	0.5167	FIXCROSS	n/a	n/a	n/a	n/a	n/a	n/a	n/a	n/a
355.4589	2.45	COLOR_NAME	33	Incongruent	niebieski	blue	zielony	green	hit	n/a
357.8824	n/a	RESPONSE	n/a	n/a	n/a	n/a	n/a	n/a	n/a	blue
357.909	1.0167	ITI	n/a	n/a	n/a	n/a	n/a	n/a	n/a	n/a
358.9256	0.5167	FIXCROSS	n/a	n/a	n/a	n/a	n/a	n/a	n/a	n/a
359.4423	0.65	COLOR_NAME	34	Incongruent	żółty	yellow	czerwony	red	hit	n/a
360.0692	n/a	RESPONSE	n/a	n/a	n/a	n/a	n/a	n/a	n/a	yellow
360.0923	1.0167	ITI	n/a	n/a	n/a	n/a	n/a	n/a	n/a	n/a
361.109	0.5167	FIXCROSS	n/a	n/a	n/a	n/a	n/a	n/a	n/a	n/a
361.6257	0.5167	COLOR_NAME	35	Incongruent	żółty	yellow	zielony	green	hit	n/a
362.1125	n/a	RESPONSE	n/a	n/a	n/a	n/a	n/a	n/a	n/a	yellow
362.1423	1.0167	ITI	n/a	n/a	n/a	n/a	n/a	n/a	n/a	n/a
363.159	0.5167	FIXCROSS	n/a	n/a	n/a	n/a	n/a	n/a	n/a	n/a
363.6757	1.6167	COLOR_NAME	36	Neutral	niebieski	blue	Neutral	Neutral	hit	n/a
365.273	n/a	RESPONSE	n/a	n/a	n/a	n/a	n/a	n/a	n/a	blue
365.2924	1.0167	ITI	n/a	n/a	n/a	n/a	n/a	n/a	n/a	n/a
366.309	0.5167	FIXCROSS	n/a	n/a	n/a	n/a	n/a	n/a	n/a	n/a
366.8257	0.65	COLOR_NAME	37	Incongruent	niebieski	blue	czerwony	red	hit	n/a
367.4439	n/a	RESPONSE	n/a	n/a	n/a	n/a	n/a	n/a	n/a	blue
367.4757	1.0167	ITI	n/a	n/a	n/a	n/a	n/a	n/a	n/a	n/a
368.4924	0.5166	FIXCROSS	n/a	n/a	n/a	n/a	n/a	n/a	n/a	n/a
369.009	0.6167	COLOR_NAME	38	Incongruent	czerwony	red	zielony	green	hit	n/a
369.5989	n/a	RESPONSE	n/a	n/a	n/a	n/a	n/a	n/a	n/a	red
369.6257	1.0167	ITI	n/a	n/a	n/a	n/a	n/a	n/a	n/a	n/a
370.6424	0.5167	FIXCROSS	n/a	n/a	n/a	n/a	n/a	n/a	n/a	n/a
371.1591	1.0333	COLOR_NAME	39	Incongruent	zielony	green	czerwony	red	hit	n/a
372.1688	n/a	RESPONSE	n/a	n/a	n/a	n/a	n/a	n/a	n/a	green
372.1924	1.0167	ITI	n/a	n/a	n/a	n/a	n/a	n/a	n/a	n/a
373.2091	0.5166	FIXCROSS	n/a	n/a	n/a	n/a	n/a	n/a	n/a	n/a
373.7257	0.7834	COLOR_NAME	40	Incongruent	zielony	green	żółty	yellow	hit	n/a
374.4834	n/a	RESPONSE	n/a	n/a	n/a	n/a	n/a	n/a	n/a	green
374.5091	1.0166	ITI	n/a	n/a	n/a	n/a	n/a	n/a	n/a	n/a
375.5257	0.5167	FIXCROSS	n/a	n/a	n/a	n/a	n/a	n/a	n/a	n/a
376.0424	0.6333	COLOR_NAME	41	Neutral	czerwony	red	Neutral	Neutral	hit	n/a
376.6544	n/a	RESPONSE	n/a	n/a	n/a	n/a	n/a	n/a	n/a	red
376.6758	1.0167	ITI	n/a	n/a	n/a	n/a	n/a	n/a	n/a	n/a
377.6925	0.5167	FIXCROSS	n/a	n/a	n/a	n/a	n/a	n/a	n/a	n/a
378.2091	0.4667	COLOR_NAME	42	Neutral	czerwony	red	Neutral	Neutral	hit	n/a
378.6496	n/a	RESPONSE	n/a	n/a	n/a	n/a	n/a	n/a	n/a	red
378.6758	1.0166	ITI	n/a	n/a	n/a	n/a	n/a	n/a	n/a	n/a
379.6925	0.5167	FIXCROSS	n/a	n/a	n/a	n/a	n/a	n/a	n/a	n/a
380.2092	0.4666	COLOR_NAME	43	Neutral	czerwony	red	Neutral	Neutral	hit	n/a
380.645	n/a	RESPONSE	n/a	n/a	n/a	n/a	n/a	n/a	n/a	red
380.6758	1.0167	ITI	n/a	n/a	n/a	n/a	n/a	n/a	n/a	n/a
381.6925	0.5167	FIXCROSS	n/a	n/a	n/a	n/a	n/a	n/a	n/a	n/a
382.2092	0.6833	COLOR_NAME	44	Neutral	niebieski	blue	Neutral	Neutral	hit	n/a
382.8638	n/a	RESPONSE	n/a	n/a	n/a	n/a	n/a	n/a	n/a	blue
382.8925	1.0167	ITI	n/a	n/a	n/a	n/a	n/a	n/a	n/a	n/a
383.9092	0.5167	FIXCROSS	n/a	n/a	n/a	n/a	n/a	n/a	n/a	n/a
384.4258	2.3667	COLOR_NAME	45	Incongruent	zielony	green	czerwony	red	hit	n/a
386.7587	n/a	RESPONSE	n/a	n/a	n/a	n/a	n/a	n/a	n/a	green
386.7925	1.0167	ITI	n/a	n/a	n/a	n/a	n/a	n/a	n/a	n/a
387.8092	0.5167	FIXCROSS	n/a	n/a	n/a	n/a	n/a	n/a	n/a	n/a
388.3259	0.5	COLOR_NAME	46	Neutral	zielony	green	Neutral	Neutral	hit	n/a
388.8019	n/a	RESPONSE	n/a	n/a	n/a	n/a	n/a	n/a	n/a	green
388.8259	1.0167	ITI	n/a	n/a	n/a	n/a	n/a	n/a	n/a	n/a
389.8425	0.5167	FIXCROSS	n/a	n/a	n/a	n/a	n/a	n/a	n/a	n/a
390.3592	0.7	COLOR_NAME	47	Neutral	niebieski	blue	Neutral	Neutral	hit	n/a
391.0366	n/a	RESPONSE	n/a	n/a	n/a	n/a	n/a	n/a	n/a	blue
391.0592	1.0167	ITI	n/a	n/a	n/a	n/a	n/a	n/a	n/a	n/a
392.0759	0.5167	FIXCROSS	n/a	n/a	n/a	n/a	n/a	n/a	n/a	n/a
392.5926	0.6833	COLOR_NAME	48	Neutral	żółty	yellow	Neutral	Neutral	hit	n/a
393.2555	n/a	RESPONSE	n/a	n/a	n/a	n/a	n/a	n/a	n/a	yellow
393.2759	1.0167	ITI	n/a	n/a	n/a	n/a	n/a	n/a	n/a	n/a
394.2926	0.5167	FIXCROSS	n/a	n/a	n/a	n/a	n/a	n/a	n/a	n/a
394.8093	0.6833	COLOR_NAME	49	Neutral	niebieski	blue	Neutral	Neutral	hit	n/a
395.4743	n/a	RESPONSE	n/a	n/a	n/a	n/a	n/a	n/a	n/a	blue
395.4926	1.0167	ITI	n/a	n/a	n/a	n/a	n/a	n/a	n/a	n/a
396.5093	0.5167	FIXCROSS	n/a	n/a	n/a	n/a	n/a	n/a	n/a	n/a
397.0259	0.7167	COLOR_NAME	50	Incongruent	czerwony	red	żółty	yellow	hit	n/a
397.7091	n/a	RESPONSE	n/a	n/a	n/a	n/a	n/a	n/a	n/a	red
397.7426	1.0167	ITI	n/a	n/a	n/a	n/a	n/a	n/a	n/a	n/a
398.7593	0.5167	FIXCROSS	n/a	n/a	n/a	n/a	n/a	n/a	n/a	n/a
399.276	1.3	COLOR_NAME	51	Neutral	zielony	green	Neutral	Neutral	hit	n/a
400.5504	n/a	RESPONSE	n/a	n/a	n/a	n/a	n/a	n/a	n/a	green
400.576	1.0167	ITI	n/a	n/a	n/a	n/a	n/a	n/a	n/a	n/a
401.5927	0.5166	FIXCROSS	n/a	n/a	n/a	n/a	n/a	n/a	n/a	n/a
402.1093	0.4667	COLOR_NAME	52	Incongruent	żółty	yellow	czerwony	red	hit	n/a
402.5459	n/a	RESPONSE	n/a	n/a	n/a	n/a	n/a	n/a	n/a	yellow
402.576	1.0104	ITI	n/a	n/a	n/a	n/a	n/a	n/a	n/a	n/a
403.5864	0.5229	FIXCROSS	n/a	n/a	n/a	n/a	n/a	n/a	n/a	n/a
404.1093	0.75	COLOR_NAME	53	Neutral	zielony	green	Neutral	Neutral	hit	n/a
404.8285	n/a	RESPONSE	n/a	n/a	n/a	n/a	n/a	n/a	n/a	green
404.8593	1.0167	ITI	n/a	n/a	n/a	n/a	n/a	n/a	n/a	n/a
405.876	0.5167	FIXCROSS	n/a	n/a	n/a	n/a	n/a	n/a	n/a	n/a
406.3927	0.9167	COLOR_NAME	54	Incongruent	zielony	green	niebieski	blue	hit	n/a
407.2867	n/a	RESPONSE	n/a	n/a	n/a	n/a	n/a	n/a	n/a	green
407.3094	1.0167	ITI	n/a	n/a	n/a	n/a	n/a	n/a	n/a	n/a
408.3261	0.5166	FIXCROSS	n/a	n/a	n/a	n/a	n/a	n/a	n/a	n/a
408.8427	0.9667	COLOR_NAME	55	Incongruent	niebieski	blue	czerwony	red	hit	n/a
409.7768	n/a	RESPONSE	n/a	n/a	n/a	n/a	n/a	n/a	n/a	blue
409.8094	1.0167	ITI	n/a	n/a	n/a	n/a	n/a	n/a	n/a	n/a
410.8261	0.5167	FIXCROSS	n/a	n/a	n/a	n/a	n/a	n/a	n/a	n/a
411.3427	0.45	COLOR_NAME	56	Incongruent	niebieski	blue	zielony	green	hit	n/a
411.7722	n/a	RESPONSE	n/a	n/a	n/a	n/a	n/a	n/a	n/a	blue
411.7927	1.0167	ITI	n/a	n/a	n/a	n/a	n/a	n/a	n/a	n/a
412.8094	0.5167	FIXCROSS	n/a	n/a	n/a	n/a	n/a	n/a	n/a	n/a
413.3261	1.3167	COLOR_NAME	57	Neutral	zielony	green	Neutral	Neutral	hit	n/a
414.6136	n/a	RESPONSE	n/a	n/a	n/a	n/a	n/a	n/a	n/a	green
414.6428	1.0167	ITI	n/a	n/a	n/a	n/a	n/a	n/a	n/a	n/a
415.6594	0.5166	FIXCROSS	n/a	n/a	n/a	n/a	n/a	n/a	n/a	n/a
416.1761	0.7167	COLOR_NAME	58	Incongruent	niebieski	blue	czerwony	red	hit	n/a
416.8644	n/a	RESPONSE	n/a	n/a	n/a	n/a	n/a	n/a	n/a	blue
416.8928	1.0167	ITI	n/a	n/a	n/a	n/a	n/a	n/a	n/a	n/a
417.9095	0.5167	FIXCROSS	n/a	n/a	n/a	n/a	n/a	n/a	n/a	n/a
418.4261	1.3167	COLOR_NAME	59	Neutral	żółty	yellow	Neutral	Neutral	hit	n/a
419.7217	n/a	RESPONSE	n/a	n/a	n/a	n/a	n/a	n/a	n/a	yellow
419.7428	1.0167	ITI	n/a	n/a	n/a	n/a	n/a	n/a	n/a	n/a
420.7595	0.5167	FIXCROSS	n/a	n/a	n/a	n/a	n/a	n/a	n/a	n/a
421.2761	0.6667	COLOR_NAME	60	Incongruent	czerwony	red	żółty	yellow	hit	n/a
421.9245	n/a	RESPONSE	n/a	n/a	n/a	n/a	n/a	n/a	n/a	red
421.9428	1.0166	ITI	n/a	n/a	n/a	n/a	n/a	n/a	n/a	n/a
422.9595	0.5167	FIXCROSS	n/a	n/a	n/a	n/a	n/a	n/a	n/a	n/a
423.4762	0.8833	COLOR_NAME	61	Neutral	żółty	yellow	Neutral	Neutral	hit	n/a
424.3349	n/a	RESPONSE	n/a	n/a	n/a	n/a	n/a	n/a	n/a	yellow
424.3595	1.0167	ITI	n/a	n/a	n/a	n/a	n/a	n/a	n/a	n/a
425.3762	0.5167	FIXCROSS	n/a	n/a	n/a	n/a	n/a	n/a	n/a	n/a
425.8929	1.2333	COLOR_NAME	62	Neutral	czerwony	red	Neutral	Neutral	hit	n/a
427.0964	n/a	RESPONSE	n/a	n/a	n/a	n/a	n/a	n/a	n/a	red
427.1262	1.0167	ITI	n/a	n/a	n/a	n/a	n/a	n/a	n/a	n/a
428.1429	0.5167	FIXCROSS	n/a	n/a	n/a	n/a	n/a	n/a	n/a	n/a
428.6595	1.1334	COLOR_NAME	63	Incongruent	żółty	yellow	niebieski	blue	hit	n/a
429.7622	n/a	RESPONSE	n/a	n/a	n/a	n/a	n/a	n/a	n/a	yellow
429.7929	1.0166	ITI	n/a	n/a	n/a	n/a	n/a	n/a	n/a	n/a
430.8095	0.5167	FIXCROSS	n/a	n/a	n/a	n/a	n/a	n/a	n/a	n/a
431.3262	0.45	COLOR_NAME	64	Incongruent	żółty	yellow	niebieski	blue	hit	n/a
431.7576	n/a	RESPONSE	n/a	n/a	n/a	n/a	n/a	n/a	n/a	yellow
431.7762	1.0167	ITI	n/a	n/a	n/a	n/a	n/a	n/a	n/a	n/a
432.7929	0.5167	FIXCROSS	n/a	n/a	n/a	n/a	n/a	n/a	n/a	n/a
433.3096	0.6	COLOR_NAME	65	Neutral	czerwony	red	Neutral	Neutral	hit	n/a
433.8805	n/a	RESPONSE	n/a	n/a	n/a	n/a	n/a	n/a	n/a	red
433.9096	1.0167	ITI	n/a	n/a	n/a	n/a	n/a	n/a	n/a	n/a
434.9263	0.5166	FIXCROSS	n/a	n/a	n/a	n/a	n/a	n/a	n/a	n/a
435.4429	0.7167	COLOR_NAME	66	Incongruent	czerwony	red	niebieski	blue	hit	n/a
436.1313	n/a	RESPONSE	n/a	n/a	n/a	n/a	n/a	n/a	n/a	red
436.1596	1.0167	ITI	n/a	n/a	n/a	n/a	n/a	n/a	n/a	n/a
437.1763	0.5167	FIXCROSS	n/a	n/a	n/a	n/a	n/a	n/a	n/a	n/a
437.6929	0.6333	COLOR_NAME	67	Neutral	niebieski	blue	Neutral	Neutral	hit	n/a
438.3023	n/a	RESPONSE	n/a	n/a	n/a	n/a	n/a	n/a	n/a	blue
438.3263	1.0167	ITI	n/a	n/a	n/a	n/a	n/a	n/a	n/a	n/a
439.343	0.5167	FIXCROSS	n/a	n/a	n/a	n/a	n/a	n/a	n/a	n/a
439.8596	1.2333	COLOR_NAME	68	Incongruent	zielony	green	niebieski	blue	hit	n/a
441.0637	n/a	RESPONSE	n/a	n/a	n/a	n/a	n/a	n/a	n/a	green
441.093	1.0167	ITI	n/a	n/a	n/a	n/a	n/a	n/a	n/a	n/a
442.1097	0.5167	FIXCROSS	n/a	n/a	n/a	n/a	n/a	n/a	n/a	n/a
442.6263	0.6666	COLOR_NAME	69	Neutral	żółty	yellow	Neutral	Neutral	hit	n/a
443.2667	n/a	RESPONSE	n/a	n/a	n/a	n/a	n/a	n/a	n/a	yellow
443.293	1.0167	ITI	n/a	n/a	n/a	n/a	n/a	n/a	n/a	n/a
444.3097	0.5167	FIXCROSS	n/a	n/a	n/a	n/a	n/a	n/a	n/a	n/a
444.8263	0.8833	COLOR_NAME	70	Neutral	czerwony	red	Neutral	Neutral	hit	n/a
445.677	n/a	RESPONSE	n/a	n/a	n/a	n/a	n/a	n/a	n/a	red
445.7097	1.0167	ITI	n/a	n/a	n/a	n/a	n/a	n/a	n/a	n/a
446.7264	0.5166	FIXCROSS	n/a	n/a	n/a	n/a	n/a	n/a	n/a	n/a
447.243	1.3167	COLOR_NAME	71	Incongruent	zielony	green	niebieski	blue	hit	n/a
448.5344	n/a	RESPONSE	n/a	n/a	n/a	n/a	n/a	n/a	n/a	green
448.5597	1.0166	ITI	n/a	n/a	n/a	n/a	n/a	n/a	n/a	n/a
449.5764	0.5167	FIXCROSS	n/a	n/a	n/a	n/a	n/a	n/a	n/a	n/a
450.093	0.85	COLOR_NAME	72	Incongruent	żółty	yellow	niebieski	blue	hit	n/a
450.9127	n/a	RESPONSE	n/a	n/a	n/a	n/a	n/a	n/a	n/a	yellow
450.9431	1.0333	ITI	n/a	n/a	n/a	n/a	n/a	n/a	n/a	n/a
455.2386	n/a	RESPONSE	n/a	n/a	n/a	n/a	n/a	n/a	n/a	n/a
