onset	duration	trial_type	trial_number	stroop_condition	stim_text(PL)	stim_text(eng)	stim_color(PL)	stim_color(eng)	response_type	response_color
0.0	n/a	RESPONSE	n/a	n/a	n/a	n/a	n/a	n/a	n/a	n/a
0.0692	1.0333	ITI	n/a	n/a	n/a	n/a	n/a	n/a	n/a	n/a
1.1026	0.5167	FIXCROSS	n/a	n/a	n/a	n/a	n/a	n/a	n/a	n/a
1.6193	1.0	T_INK	1	Neutral	xxxxx	xxxxx	czerwony	red	hit	n/a
2.59	n/a	RESPONSE	n/a	n/a	n/a	n/a	n/a	n/a	n/a	red
2.6193	0.5167	FEEDBACK	n/a	n/a	n/a	n/a	n/a	n/a	n/a	n/a
3.1359	1.0167	ITI	n/a	n/a	n/a	n/a	n/a	n/a	n/a	n/a
4.1526	0.5167	FIXCROSS	n/a	n/a	n/a	n/a	n/a	n/a	n/a	n/a
4.6693	0.6167	T_INK	2	Neutral	xxxxxxx	xxxxxxx	czerwony	red	hit	n/a
5.26	n/a	RESPONSE	n/a	n/a	n/a	n/a	n/a	n/a	n/a	red
5.2859	0.5167	FEEDBACK	n/a	n/a	n/a	n/a	n/a	n/a	n/a	n/a
5.8026	1.0167	ITI	n/a	n/a	n/a	n/a	n/a	n/a	n/a	n/a
6.8193	0.5167	FIXCROSS	n/a	n/a	n/a	n/a	n/a	n/a	n/a	n/a
7.336	0.8333	T_INK	3	Neutral	xxxxxxxx	xxxxxxxx	zielony	green	hit	n/a
8.1376	n/a	RESPONSE	n/a	n/a	n/a	n/a	n/a	n/a	n/a	green
8.1693	0.5167	FEEDBACK	n/a	n/a	n/a	n/a	n/a	n/a	n/a	n/a
8.686	1.0167	ITI	n/a	n/a	n/a	n/a	n/a	n/a	n/a	n/a
9.7027	0.5167	FIXCROSS	n/a	n/a	n/a	n/a	n/a	n/a	n/a	n/a
10.2193	0.5	T_INK	4	Neutral	xxxxx	xxxxx	zielony	green	hit	n/a
10.6956	n/a	RESPONSE	n/a	n/a	n/a	n/a	n/a	n/a	n/a	green
10.7194	0.5167	FEEDBACK	n/a	n/a	n/a	n/a	n/a	n/a	n/a	n/a
11.236	1.0167	ITI	n/a	n/a	n/a	n/a	n/a	n/a	n/a	n/a
12.2527	0.5167	FIXCROSS	n/a	n/a	n/a	n/a	n/a	n/a	n/a	n/a
12.7694	0.85	T_INK	5	Neutral	xxxxxxx	xxxxxxx	żółty	yellow	hit	n/a
13.5893	n/a	RESPONSE	n/a	n/a	n/a	n/a	n/a	n/a	n/a	yellow
13.6194	0.5167	FEEDBACK	n/a	n/a	n/a	n/a	n/a	n/a	n/a	n/a
14.1361	1.0167	ITI	n/a	n/a	n/a	n/a	n/a	n/a	n/a	n/a
15.1527	0.5167	FIXCROSS	n/a	n/a	n/a	n/a	n/a	n/a	n/a	n/a
15.6694	1.0333	T_INK	6	Incongruent	czerwony	red	żółty	yellow	hit	n/a
16.6749	n/a	RESPONSE	n/a	n/a	n/a	n/a	n/a	n/a	n/a	yellow
16.7028	0.5167	FEEDBACK	n/a	n/a	n/a	n/a	n/a	n/a	n/a	n/a
17.2194	1.0167	ITI	n/a	n/a	n/a	n/a	n/a	n/a	n/a	n/a
18.2361	0.5167	FIXCROSS	n/a	n/a	n/a	n/a	n/a	n/a	n/a	n/a
18.7528	0.5333	T_INK	7	Neutral	xxxxxxxxx	xxxxxxxxx	żółty	yellow	hit	n/a
19.2649	n/a	RESPONSE	n/a	n/a	n/a	n/a	n/a	n/a	n/a	yellow
19.2861	0.5167	FEEDBACK	n/a	n/a	n/a	n/a	n/a	n/a	n/a	n/a
19.8028	1.0167	ITI	n/a	n/a	n/a	n/a	n/a	n/a	n/a	n/a
20.8195	0.5167	FIXCROSS	n/a	n/a	n/a	n/a	n/a	n/a	n/a	n/a
21.3361	0.8167	T_INK	8	Incongruent	żółty	yellow	zielony	green	hit	n/a
22.1266	n/a	RESPONSE	n/a	n/a	n/a	n/a	n/a	n/a	n/a	green
22.1528	0.5167	FEEDBACK	n/a	n/a	n/a	n/a	n/a	n/a	n/a	n/a
22.6695	1.0167	ITI	n/a	n/a	n/a	n/a	n/a	n/a	n/a	n/a
23.6862	0.5167	FIXCROSS	n/a	n/a	n/a	n/a	n/a	n/a	n/a	n/a
24.2028	1.0	T_INK	9	Incongruent	żółty	yellow	niebieski	blue	hit	n/a
25.1802	n/a	RESPONSE	n/a	n/a	n/a	n/a	n/a	n/a	n/a	blue
25.2029	0.5167	FEEDBACK	n/a	n/a	n/a	n/a	n/a	n/a	n/a	n/a
25.7195	1.0167	ITI	n/a	n/a	n/a	n/a	n/a	n/a	n/a	n/a
26.7362	0.5167	FIXCROSS	n/a	n/a	n/a	n/a	n/a	n/a	n/a	n/a
27.2529	0.7167	T_INK	10	Neutral	xxxxx	xxxxx	niebieski	blue	hit	n/a
27.9461	n/a	RESPONSE	n/a	n/a	n/a	n/a	n/a	n/a	n/a	blue
27.9696	0.5167	FEEDBACK	n/a	n/a	n/a	n/a	n/a	n/a	n/a	n/a
28.4862	1.0167	ITI	n/a	n/a	n/a	n/a	n/a	n/a	n/a	n/a
29.5029	0.5167	FIXCROSS	n/a	n/a	n/a	n/a	n/a	n/a	n/a	n/a
30.0196	0.8667	T_INK	11	Incongruent	niebieski	blue	czerwony	red	hit	n/a
30.8559	n/a	RESPONSE	n/a	n/a	n/a	n/a	n/a	n/a	n/a	red
30.8863	0.5167	FEEDBACK	n/a	n/a	n/a	n/a	n/a	n/a	n/a	n/a
31.4029	1.0167	ITI	n/a	n/a	n/a	n/a	n/a	n/a	n/a	n/a
32.4196	0.5167	FIXCROSS	n/a	n/a	n/a	n/a	n/a	n/a	n/a	n/a
32.9363	0.6833	T_INK	12	Neutral	xxxxxxx	xxxxxxx	niebieski	blue	hit	n/a
33.5898	n/a	RESPONSE	n/a	n/a	n/a	n/a	n/a	n/a	n/a	blue
33.6196	0.5167	FEEDBACK	n/a	n/a	n/a	n/a	n/a	n/a	n/a	n/a
34.1363	1.0333	ITI	n/a	n/a	n/a	n/a	n/a	n/a	n/a	n/a
44.5412	n/a	RESPONSE	n/a	n/a	n/a	n/a	n/a	n/a	n/a	n/a
44.6031	1.0167	ITI	n/a	n/a	n/a	n/a	n/a	n/a	n/a	n/a
45.6198	0.5167	FIXCROSS	n/a	n/a	n/a	n/a	n/a	n/a	n/a	n/a
46.1364	0.7	INK	1	Neutral	xxxxxxxxx	xxxxxxxxx	czerwony	red	hit	n/a
46.8115	n/a	RESPONSE	n/a	n/a	n/a	n/a	n/a	n/a	n/a	red
46.8365	1.0167	ITI	n/a	n/a	n/a	n/a	n/a	n/a	n/a	n/a
47.8531	0.5167	FIXCROSS	n/a	n/a	n/a	n/a	n/a	n/a	n/a	n/a
48.3698	0.65	INK	2	Neutral	xxxxxxxxx	xxxxxxxxx	zielony	green	hit	n/a
49.0017	n/a	RESPONSE	n/a	n/a	n/a	n/a	n/a	n/a	n/a	green
49.0198	1.0167	ITI	n/a	n/a	n/a	n/a	n/a	n/a	n/a	n/a
50.0365	0.5167	FIXCROSS	n/a	n/a	n/a	n/a	n/a	n/a	n/a	n/a
50.5532	0.6833	INK	3	Incongruent	niebieski	blue	żółty	yellow	hit	n/a
51.208	n/a	RESPONSE	n/a	n/a	n/a	n/a	n/a	n/a	n/a	yellow
51.2365	1.0167	ITI	n/a	n/a	n/a	n/a	n/a	n/a	n/a	n/a
52.2532	0.5167	FIXCROSS	n/a	n/a	n/a	n/a	n/a	n/a	n/a	n/a
52.7699	0.7	INK	4	Incongruent	żółty	yellow	niebieski	blue	hit	n/a
53.4463	n/a	RESPONSE	n/a	n/a	n/a	n/a	n/a	n/a	n/a	blue
53.4699	1.0167	ITI	n/a	n/a	n/a	n/a	n/a	n/a	n/a	n/a
54.4866	0.5167	FIXCROSS	n/a	n/a	n/a	n/a	n/a	n/a	n/a	n/a
55.0032	0.6333	INK	5	Incongruent	żółty	yellow	niebieski	blue	hit	n/a
55.6045	n/a	RESPONSE	n/a	n/a	n/a	n/a	n/a	n/a	n/a	blue
55.6366	1.0167	ITI	n/a	n/a	n/a	n/a	n/a	n/a	n/a	n/a
56.6533	0.5167	FIXCROSS	n/a	n/a	n/a	n/a	n/a	n/a	n/a	n/a
57.1699	0.55	INK	6	Incongruent	niebieski	blue	zielony	green	hit	n/a
57.699	n/a	RESPONSE	n/a	n/a	n/a	n/a	n/a	n/a	n/a	green
57.7199	1.0167	ITI	n/a	n/a	n/a	n/a	n/a	n/a	n/a	n/a
58.7366	0.5167	FIXCROSS	n/a	n/a	n/a	n/a	n/a	n/a	n/a	n/a
59.2533	0.6	INK	7	Incongruent	niebieski	blue	zielony	green	hit	n/a
59.8252	n/a	RESPONSE	n/a	n/a	n/a	n/a	n/a	n/a	n/a	green
59.8533	1.0167	ITI	n/a	n/a	n/a	n/a	n/a	n/a	n/a	n/a
60.87	0.5167	FIXCROSS	n/a	n/a	n/a	n/a	n/a	n/a	n/a	n/a
61.3866	0.5667	INK	8	Incongruent	czerwony	red	zielony	green	hit	n/a
61.9356	n/a	RESPONSE	n/a	n/a	n/a	n/a	n/a	n/a	n/a	green
61.9533	1.0167	ITI	n/a	n/a	n/a	n/a	n/a	n/a	n/a	n/a
62.97	0.5167	FIXCROSS	n/a	n/a	n/a	n/a	n/a	n/a	n/a	n/a
63.4867	0.7	INK	9	Incongruent	żółty	yellow	czerwony	red	hit	n/a
64.1578	n/a	RESPONSE	n/a	n/a	n/a	n/a	n/a	n/a	n/a	red
64.1867	1.0167	ITI	n/a	n/a	n/a	n/a	n/a	n/a	n/a	n/a
65.2034	0.5167	FIXCROSS	n/a	n/a	n/a	n/a	n/a	n/a	n/a	n/a
65.72	0.55	INK	10	Neutral	xxxxx	xxxxx	czerwony	red	hit	n/a
66.2521	n/a	RESPONSE	n/a	n/a	n/a	n/a	n/a	n/a	n/a	red
66.27	1.0167	ITI	n/a	n/a	n/a	n/a	n/a	n/a	n/a	n/a
67.2867	0.5167	FIXCROSS	n/a	n/a	n/a	n/a	n/a	n/a	n/a	n/a
67.8034	0.4833	INK	11	Incongruent	niebieski	blue	czerwony	red	hit	n/a
68.2667	n/a	RESPONSE	n/a	n/a	n/a	n/a	n/a	n/a	n/a	red
68.2867	1.0167	ITI	n/a	n/a	n/a	n/a	n/a	n/a	n/a	n/a
69.3034	0.5167	FIXCROSS	n/a	n/a	n/a	n/a	n/a	n/a	n/a	n/a
69.8201	0.55	INK	12	Neutral	xxxxxxxx	xxxxxxxx	niebieski	blue	hit	n/a
70.345	n/a	RESPONSE	n/a	n/a	n/a	n/a	n/a	n/a	n/a	blue
70.3701	1.0167	ITI	n/a	n/a	n/a	n/a	n/a	n/a	n/a	n/a
71.3868	0.5167	FIXCROSS	n/a	n/a	n/a	n/a	n/a	n/a	n/a	n/a
71.9034	0.5833	INK	13	Neutral	xxxxx	xxxxx	czerwony	red	hit	n/a
72.4554	n/a	RESPONSE	n/a	n/a	n/a	n/a	n/a	n/a	n/a	red
72.4868	1.0167	ITI	n/a	n/a	n/a	n/a	n/a	n/a	n/a	n/a
73.5034	0.5167	FIXCROSS	n/a	n/a	n/a	n/a	n/a	n/a	n/a	n/a
74.0201	0.55	INK	14	Incongruent	niebieski	blue	żółty	yellow	hit	n/a
74.5498	n/a	RESPONSE	n/a	n/a	n/a	n/a	n/a	n/a	n/a	yellow
74.5701	1.0167	ITI	n/a	n/a	n/a	n/a	n/a	n/a	n/a	n/a
75.5868	0.5167	FIXCROSS	n/a	n/a	n/a	n/a	n/a	n/a	n/a	n/a
76.1035	0.5167	INK	15	Neutral	xxxxx	xxxxx	czerwony	red	hit	n/a
76.5961	n/a	RESPONSE	n/a	n/a	n/a	n/a	n/a	n/a	n/a	red
76.6201	1.0167	ITI	n/a	n/a	n/a	n/a	n/a	n/a	n/a	n/a
76.788	n/a	RESPONSE	n/a	n/a	n/a	n/a	n/a	n/a	n/a	red
77.6368	0.5167	FIXCROSS	n/a	n/a	n/a	n/a	n/a	n/a	n/a	n/a
78.1535	0.65	INK	16	Incongruent	żółty	yellow	niebieski	blue	hit	n/a
78.7705	n/a	RESPONSE	n/a	n/a	n/a	n/a	n/a	n/a	n/a	blue
78.8035	1.0167	ITI	n/a	n/a	n/a	n/a	n/a	n/a	n/a	n/a
79.8202	0.5167	FIXCROSS	n/a	n/a	n/a	n/a	n/a	n/a	n/a	n/a
80.3369	0.5	INK	17	Neutral	xxxxxxx	xxxxxxx	żółty	yellow	hit	n/a
80.8168	n/a	RESPONSE	n/a	n/a	n/a	n/a	n/a	n/a	n/a	yellow
80.8369	1.0167	ITI	n/a	n/a	n/a	n/a	n/a	n/a	n/a	n/a
81.8535	0.5167	FIXCROSS	n/a	n/a	n/a	n/a	n/a	n/a	n/a	n/a
82.3702	0.5167	INK	18	Neutral	xxxxx	xxxxx	zielony	green	hit	n/a
82.8632	n/a	RESPONSE	n/a	n/a	n/a	n/a	n/a	n/a	n/a	green
82.8869	1.0167	ITI	n/a	n/a	n/a	n/a	n/a	n/a	n/a	n/a
83.9036	0.5167	FIXCROSS	n/a	n/a	n/a	n/a	n/a	n/a	n/a	n/a
84.4202	0.5834	INK	19	Neutral	xxxxxxxx	xxxxxxxx	zielony	green	hit	n/a
84.9737	n/a	RESPONSE	n/a	n/a	n/a	n/a	n/a	n/a	n/a	green
85.0036	1.0167	ITI	n/a	n/a	n/a	n/a	n/a	n/a	n/a	n/a
86.0203	0.5167	FIXCROSS	n/a	n/a	n/a	n/a	n/a	n/a	n/a	n/a
86.5369	0.3667	INK	20	Incongruent	żółty	yellow	czerwony	red	hit	n/a
86.8761	n/a	RESPONSE	n/a	n/a	n/a	n/a	n/a	n/a	n/a	red
86.9036	1.0167	ITI	n/a	n/a	n/a	n/a	n/a	n/a	n/a	n/a
87.9203	0.5167	FIXCROSS	n/a	n/a	n/a	n/a	n/a	n/a	n/a	n/a
88.437	0.5	INK	21	Incongruent	czerwony	red	żółty	yellow	hit	n/a
88.9066	n/a	RESPONSE	n/a	n/a	n/a	n/a	n/a	n/a	n/a	yellow
88.937	1.0167	ITI	n/a	n/a	n/a	n/a	n/a	n/a	n/a	n/a
89.9536	0.5167	FIXCROSS	n/a	n/a	n/a	n/a	n/a	n/a	n/a	n/a
90.4703	0.5	INK	22	Incongruent	zielony	green	niebieski	blue	hit	n/a
90.937	n/a	RESPONSE	n/a	n/a	n/a	n/a	n/a	n/a	n/a	blue
90.9703	1.0167	ITI	n/a	n/a	n/a	n/a	n/a	n/a	n/a	n/a
91.987	0.5167	FIXCROSS	n/a	n/a	n/a	n/a	n/a	n/a	n/a	n/a
92.5037	1.25	INK	23	Incongruent	zielony	green	czerwony	red	hit	n/a
93.7347	n/a	RESPONSE	n/a	n/a	n/a	n/a	n/a	n/a	n/a	red
93.7537	1.0167	ITI	n/a	n/a	n/a	n/a	n/a	n/a	n/a	n/a
94.7704	0.5167	FIXCROSS	n/a	n/a	n/a	n/a	n/a	n/a	n/a	n/a
95.287	0.7833	INK	24	Neutral	xxxxxxxx	xxxxxxxx	niebieski	blue	hit	n/a
96.037	n/a	RESPONSE	n/a	n/a	n/a	n/a	n/a	n/a	n/a	blue
96.0704	1.0167	ITI	n/a	n/a	n/a	n/a	n/a	n/a	n/a	n/a
97.0871	0.5167	FIXCROSS	n/a	n/a	n/a	n/a	n/a	n/a	n/a	n/a
97.6037	0.8	INK	25	Incongruent	żółty	yellow	czerwony	red	hit	n/a
98.3711	n/a	RESPONSE	n/a	n/a	n/a	n/a	n/a	n/a	n/a	red
98.4038	1.0166	ITI	n/a	n/a	n/a	n/a	n/a	n/a	n/a	n/a
99.4204	0.5167	FIXCROSS	n/a	n/a	n/a	n/a	n/a	n/a	n/a	n/a
99.9371	0.5667	INK	26	Incongruent	czerwony	red	żółty	yellow	hit	n/a
100.4815	n/a	RESPONSE	n/a	n/a	n/a	n/a	n/a	n/a	n/a	yellow
100.5038	1.0167	ITI	n/a	n/a	n/a	n/a	n/a	n/a	n/a	n/a
101.5205	0.5167	FIXCROSS	n/a	n/a	n/a	n/a	n/a	n/a	n/a	n/a
102.0371	0.4	INK	27	Neutral	xxxxxxxx	xxxxxxxx	żółty	yellow	hit	n/a
102.4159	n/a	RESPONSE	n/a	n/a	n/a	n/a	n/a	n/a	n/a	yellow
102.4371	1.0167	ITI	n/a	n/a	n/a	n/a	n/a	n/a	n/a	n/a
103.4538	0.5167	FIXCROSS	n/a	n/a	n/a	n/a	n/a	n/a	n/a	n/a
103.9705	0.9	INK	28	Neutral	xxxxxxxx	xxxxxxxx	zielony	green	hit	n/a
104.846	n/a	RESPONSE	n/a	n/a	n/a	n/a	n/a	n/a	n/a	green
104.8705	1.0167	ITI	n/a	n/a	n/a	n/a	n/a	n/a	n/a	n/a
105.8872	0.5167	FIXCROSS	n/a	n/a	n/a	n/a	n/a	n/a	n/a	n/a
106.4038	0.55	INK	29	Incongruent	zielony	green	czerwony	red	hit	n/a
106.9245	n/a	RESPONSE	n/a	n/a	n/a	n/a	n/a	n/a	n/a	red
106.9538	1.0167	ITI	n/a	n/a	n/a	n/a	n/a	n/a	n/a	n/a
107.9705	0.5167	FIXCROSS	n/a	n/a	n/a	n/a	n/a	n/a	n/a	n/a
108.4872	0.4667	INK	30	Incongruent	niebieski	blue	czerwony	red	hit	n/a
108.9229	n/a	RESPONSE	n/a	n/a	n/a	n/a	n/a	n/a	n/a	red
108.9539	1.0167	ITI	n/a	n/a	n/a	n/a	n/a	n/a	n/a	n/a
109.9706	0.5167	FIXCROSS	n/a	n/a	n/a	n/a	n/a	n/a	n/a	n/a
110.4872	0.4167	INK	31	Neutral	xxxxx	xxxxx	niebieski	blue	incorrect	n/a
110.8733	n/a	RESPONSE	n/a	n/a	n/a	n/a	n/a	n/a	n/a	yellow
110.9039	1.0167	ITI	n/a	n/a	n/a	n/a	n/a	n/a	n/a	n/a
111.9206	0.5167	FIXCROSS	n/a	n/a	n/a	n/a	n/a	n/a	n/a	n/a
112.4372	0.8333	INK	32	Incongruent	żółty	yellow	zielony	green	hit	n/a
113.2395	n/a	RESPONSE	n/a	n/a	n/a	n/a	n/a	n/a	n/a	green
113.2706	1.0167	ITI	n/a	n/a	n/a	n/a	n/a	n/a	n/a	n/a
114.2873	0.5167	FIXCROSS	n/a	n/a	n/a	n/a	n/a	n/a	n/a	n/a
114.8039	0.7833	INK	33	Incongruent	zielony	green	niebieski	blue	hit	n/a
115.5577	n/a	RESPONSE	n/a	n/a	n/a	n/a	n/a	n/a	n/a	blue
115.5873	1.0167	ITI	n/a	n/a	n/a	n/a	n/a	n/a	n/a	n/a
116.604	0.5167	FIXCROSS	n/a	n/a	n/a	n/a	n/a	n/a	n/a	n/a
117.1206	0.5	INK	34	Neutral	xxxxxxx	xxxxxxx	żółty	yellow	hit	n/a
117.5881	n/a	RESPONSE	n/a	n/a	n/a	n/a	n/a	n/a	n/a	yellow
117.6206	1.0167	ITI	n/a	n/a	n/a	n/a	n/a	n/a	n/a	n/a
118.6373	0.5167	FIXCROSS	n/a	n/a	n/a	n/a	n/a	n/a	n/a	n/a
119.154	0.6333	INK	35	Neutral	xxxxxxxx	xxxxxxxx	zielony	green	hit	n/a
119.7624	n/a	RESPONSE	n/a	n/a	n/a	n/a	n/a	n/a	n/a	green
119.7873	1.0167	ITI	n/a	n/a	n/a	n/a	n/a	n/a	n/a	n/a
120.804	0.5167	FIXCROSS	n/a	n/a	n/a	n/a	n/a	n/a	n/a	n/a
121.3207	0.6167	INK	36	Neutral	xxxxx	xxxxx	zielony	green	incorrect	n/a
121.9047	n/a	RESPONSE	n/a	n/a	n/a	n/a	n/a	n/a	n/a	blue
121.9374	1.0167	ITI	n/a	n/a	n/a	n/a	n/a	n/a	n/a	n/a
122.954	0.5167	FIXCROSS	n/a	n/a	n/a	n/a	n/a	n/a	n/a	n/a
123.4707	0.6	INK	37	Incongruent	zielony	green	czerwony	red	hit	n/a
124.0469	n/a	RESPONSE	n/a	n/a	n/a	n/a	n/a	n/a	n/a	red
124.0707	1.0167	ITI	n/a	n/a	n/a	n/a	n/a	n/a	n/a	n/a
125.0874	0.5167	FIXCROSS	n/a	n/a	n/a	n/a	n/a	n/a	n/a	n/a
125.6041	0.55	INK	38	Incongruent	niebieski	blue	żółty	yellow	hit	n/a
126.1254	n/a	RESPONSE	n/a	n/a	n/a	n/a	n/a	n/a	n/a	yellow
126.1541	1.0167	ITI	n/a	n/a	n/a	n/a	n/a	n/a	n/a	n/a
127.1708	0.5167	FIXCROSS	n/a	n/a	n/a	n/a	n/a	n/a	n/a	n/a
127.6874	0.5834	INK	39	Neutral	xxxxxxxxx	xxxxxxxxx	zielony	green	hit	n/a
128.2516	n/a	RESPONSE	n/a	n/a	n/a	n/a	n/a	n/a	n/a	green
128.2708	1.0167	ITI	n/a	n/a	n/a	n/a	n/a	n/a	n/a	n/a
129.2874	0.5167	FIXCROSS	n/a	n/a	n/a	n/a	n/a	n/a	n/a	n/a
129.8041	0.6667	INK	40	Neutral	xxxxxxx	xxxxxxx	niebieski	blue	hit	n/a
130.442	n/a	RESPONSE	n/a	n/a	n/a	n/a	n/a	n/a	n/a	blue
130.4708	1.0167	ITI	n/a	n/a	n/a	n/a	n/a	n/a	n/a	n/a
131.4875	0.5167	FIXCROSS	n/a	n/a	n/a	n/a	n/a	n/a	n/a	n/a
132.0042	0.4667	INK	41	Incongruent	czerwony	red	niebieski	blue	hit	n/a
132.4403	n/a	RESPONSE	n/a	n/a	n/a	n/a	n/a	n/a	n/a	blue
132.4708	1.0167	ITI	n/a	n/a	n/a	n/a	n/a	n/a	n/a	n/a
133.4875	0.5167	FIXCROSS	n/a	n/a	n/a	n/a	n/a	n/a	n/a	n/a
134.0042	0.4333	INK	42	Neutral	xxxxxxx	xxxxxxx	niebieski	blue	hit	n/a
134.4068	n/a	RESPONSE	n/a	n/a	n/a	n/a	n/a	n/a	n/a	blue
134.4375	1.0167	ITI	n/a	n/a	n/a	n/a	n/a	n/a	n/a	n/a
135.4542	0.5167	FIXCROSS	n/a	n/a	n/a	n/a	n/a	n/a	n/a	n/a
135.9709	0.5667	INK	43	Incongruent	czerwony	red	niebieski	blue	hit	n/a
136.517	n/a	RESPONSE	n/a	n/a	n/a	n/a	n/a	n/a	n/a	blue
136.5375	1.0167	ITI	n/a	n/a	n/a	n/a	n/a	n/a	n/a	n/a
137.5542	0.5167	FIXCROSS	n/a	n/a	n/a	n/a	n/a	n/a	n/a	n/a
138.0709	0.4667	INK	44	Neutral	xxxxxxxxx	xxxxxxxxx	żółty	yellow	hit	n/a
138.5155	n/a	RESPONSE	n/a	n/a	n/a	n/a	n/a	n/a	n/a	yellow
138.5376	1.0167	ITI	n/a	n/a	n/a	n/a	n/a	n/a	n/a	n/a
139.5542	0.5167	FIXCROSS	n/a	n/a	n/a	n/a	n/a	n/a	n/a	n/a
140.0709	0.6167	INK	45	Neutral	xxxxxxx	xxxxxxx	czerwony	red	hit	n/a
140.6578	n/a	RESPONSE	n/a	n/a	n/a	n/a	n/a	n/a	n/a	red
140.6876	1.0167	ITI	n/a	n/a	n/a	n/a	n/a	n/a	n/a	n/a
141.7043	0.5167	FIXCROSS	n/a	n/a	n/a	n/a	n/a	n/a	n/a	n/a
142.2209	0.5667	INK	46	Incongruent	niebieski	blue	czerwony	red	hit	n/a
142.7683	n/a	RESPONSE	n/a	n/a	n/a	n/a	n/a	n/a	n/a	red
142.7876	1.0167	ITI	n/a	n/a	n/a	n/a	n/a	n/a	n/a	n/a
143.8043	0.5167	FIXCROSS	n/a	n/a	n/a	n/a	n/a	n/a	n/a	n/a
144.321	0.6167	INK	47	Neutral	xxxxx	xxxxx	zielony	green	hit	n/a
144.9105	n/a	RESPONSE	n/a	n/a	n/a	n/a	n/a	n/a	n/a	green
144.9376	1.0167	ITI	n/a	n/a	n/a	n/a	n/a	n/a	n/a	n/a
145.9543	0.5167	FIXCROSS	n/a	n/a	n/a	n/a	n/a	n/a	n/a	n/a
146.471	0.5	INK	48	Neutral	xxxxxxxx	xxxxxxxx	żółty	yellow	hit	n/a
146.9409	n/a	RESPONSE	n/a	n/a	n/a	n/a	n/a	n/a	n/a	yellow
146.971	1.0167	ITI	n/a	n/a	n/a	n/a	n/a	n/a	n/a	n/a
147.9877	0.5167	FIXCROSS	n/a	n/a	n/a	n/a	n/a	n/a	n/a	n/a
148.5043	0.5667	INK	49	Incongruent	zielony	green	żółty	yellow	hit	n/a
149.0512	n/a	RESPONSE	n/a	n/a	n/a	n/a	n/a	n/a	n/a	yellow
149.071	1.0167	ITI	n/a	n/a	n/a	n/a	n/a	n/a	n/a	n/a
150.0877	0.5167	FIXCROSS	n/a	n/a	n/a	n/a	n/a	n/a	n/a	n/a
150.6044	0.6	INK	50	Neutral	xxxxx	xxxxx	niebieski	blue	hit	n/a
151.1776	n/a	RESPONSE	n/a	n/a	n/a	n/a	n/a	n/a	n/a	blue
151.2044	1.0167	ITI	n/a	n/a	n/a	n/a	n/a	n/a	n/a	n/a
152.2211	0.5167	FIXCROSS	n/a	n/a	n/a	n/a	n/a	n/a	n/a	n/a
152.7377	0.5833	INK	51	Neutral	xxxxxxxxx	xxxxxxxxx	zielony	green	hit	n/a
153.2879	n/a	RESPONSE	n/a	n/a	n/a	n/a	n/a	n/a	n/a	green
153.3211	1.0167	ITI	n/a	n/a	n/a	n/a	n/a	n/a	n/a	n/a
154.3377	0.5167	FIXCROSS	n/a	n/a	n/a	n/a	n/a	n/a	n/a	n/a
154.8544	0.6167	INK	52	Neutral	xxxxxxxxx	xxxxxxxxx	żółty	yellow	hit	n/a
155.4462	n/a	RESPONSE	n/a	n/a	n/a	n/a	n/a	n/a	n/a	yellow
155.4711	1.0167	ITI	n/a	n/a	n/a	n/a	n/a	n/a	n/a	n/a
156.4878	0.5167	FIXCROSS	n/a	n/a	n/a	n/a	n/a	n/a	n/a	n/a
157.0044	0.55	INK	53	Neutral	xxxxxxx	xxxxxxx	niebieski	blue	hit	n/a
157.5246	n/a	RESPONSE	n/a	n/a	n/a	n/a	n/a	n/a	n/a	blue
157.5544	1.0167	ITI	n/a	n/a	n/a	n/a	n/a	n/a	n/a	n/a
158.5711	0.5167	FIXCROSS	n/a	n/a	n/a	n/a	n/a	n/a	n/a	n/a
159.0878	0.5667	INK	54	Neutral	xxxxxxxx	xxxxxxxx	niebieski	blue	hit	n/a
159.635	n/a	RESPONSE	n/a	n/a	n/a	n/a	n/a	n/a	n/a	blue
159.6545	1.0167	ITI	n/a	n/a	n/a	n/a	n/a	n/a	n/a	n/a
160.6712	0.5167	FIXCROSS	n/a	n/a	n/a	n/a	n/a	n/a	n/a	n/a
161.1878	0.5667	INK	55	Neutral	xxxxxxx	xxxxxxx	żółty	yellow	hit	n/a
161.7294	n/a	RESPONSE	n/a	n/a	n/a	n/a	n/a	n/a	n/a	yellow
161.7545	1.0167	ITI	n/a	n/a	n/a	n/a	n/a	n/a	n/a	n/a
162.7712	0.5167	FIXCROSS	n/a	n/a	n/a	n/a	n/a	n/a	n/a	n/a
163.2879	0.5667	INK	56	Incongruent	zielony	green	żółty	yellow	hit	n/a
163.8237	n/a	RESPONSE	n/a	n/a	n/a	n/a	n/a	n/a	n/a	yellow
163.8545	1.0167	ITI	n/a	n/a	n/a	n/a	n/a	n/a	n/a	n/a
164.8712	0.5167	FIXCROSS	n/a	n/a	n/a	n/a	n/a	n/a	n/a	n/a
165.3879	0.4	INK	57	Neutral	xxxxxxxxx	xxxxxxxxx	czerwony	red	hit	n/a
165.7582	n/a	RESPONSE	n/a	n/a	n/a	n/a	n/a	n/a	n/a	red
165.7879	1.0167	ITI	n/a	n/a	n/a	n/a	n/a	n/a	n/a	n/a
166.8046	0.5167	FIXCROSS	n/a	n/a	n/a	n/a	n/a	n/a	n/a	n/a
167.3212	0.45	INK	58	Neutral	xxxxxxx	xxxxxxx	czerwony	red	hit	n/a
167.7406	n/a	RESPONSE	n/a	n/a	n/a	n/a	n/a	n/a	n/a	red
167.7712	1.0167	ITI	n/a	n/a	n/a	n/a	n/a	n/a	n/a	n/a
168.7879	0.5167	FIXCROSS	n/a	n/a	n/a	n/a	n/a	n/a	n/a	n/a
169.3046	0.5667	INK	59	Neutral	xxxxx	xxxxx	niebieski	blue	hit	n/a
169.851	n/a	RESPONSE	n/a	n/a	n/a	n/a	n/a	n/a	n/a	blue
169.8713	1.0167	ITI	n/a	n/a	n/a	n/a	n/a	n/a	n/a	n/a
170.8879	0.5167	FIXCROSS	n/a	n/a	n/a	n/a	n/a	n/a	n/a	n/a
171.4046	0.3667	INK	60	Incongruent	żółty	yellow	zielony	green	hit	n/a
171.7375	n/a	RESPONSE	n/a	n/a	n/a	n/a	n/a	n/a	n/a	green
171.7713	1.0167	ITI	n/a	n/a	n/a	n/a	n/a	n/a	n/a	n/a
172.788	0.5167	FIXCROSS	n/a	n/a	n/a	n/a	n/a	n/a	n/a	n/a
173.3046	0.5	INK	61	Incongruent	czerwony	red	żółty	yellow	hit	n/a
173.7839	n/a	RESPONSE	n/a	n/a	n/a	n/a	n/a	n/a	n/a	yellow
173.8046	1.0167	ITI	n/a	n/a	n/a	n/a	n/a	n/a	n/a	n/a
174.8213	0.5167	FIXCROSS	n/a	n/a	n/a	n/a	n/a	n/a	n/a	n/a
175.338	0.6167	INK	62	Incongruent	zielony	green	niebieski	blue	hit	n/a
175.9261	n/a	RESPONSE	n/a	n/a	n/a	n/a	n/a	n/a	n/a	blue
175.9547	1.0167	ITI	n/a	n/a	n/a	n/a	n/a	n/a	n/a	n/a
176.9714	0.5167	FIXCROSS	n/a	n/a	n/a	n/a	n/a	n/a	n/a	n/a
177.488	0.6833	INK	63	Incongruent	niebieski	blue	zielony	green	hit	n/a
178.1485	n/a	RESPONSE	n/a	n/a	n/a	n/a	n/a	n/a	n/a	green
178.1714	1.0167	ITI	n/a	n/a	n/a	n/a	n/a	n/a	n/a	n/a
179.188	0.5167	FIXCROSS	n/a	n/a	n/a	n/a	n/a	n/a	n/a	n/a
179.7047	0.7833	INK	64	Incongruent	czerwony	red	zielony	green	hit	n/a
180.4666	n/a	RESPONSE	n/a	n/a	n/a	n/a	n/a	n/a	n/a	green
180.4881	1.0167	ITI	n/a	n/a	n/a	n/a	n/a	n/a	n/a	n/a
181.5047	0.5167	FIXCROSS	n/a	n/a	n/a	n/a	n/a	n/a	n/a	n/a
182.0214	0.7167	INK	65	Neutral	xxxxxxx	xxxxxxx	czerwony	red	hit	n/a
182.7208	n/a	RESPONSE	n/a	n/a	n/a	n/a	n/a	n/a	n/a	red
182.7381	1.0167	ITI	n/a	n/a	n/a	n/a	n/a	n/a	n/a	n/a
183.7548	0.5167	FIXCROSS	n/a	n/a	n/a	n/a	n/a	n/a	n/a	n/a
184.2714	0.4167	INK	66	Neutral	xxxxxxxxx	xxxxxxxxx	żółty	yellow	hit	n/a
184.6553	n/a	RESPONSE	n/a	n/a	n/a	n/a	n/a	n/a	n/a	yellow
184.6881	1.0167	ITI	n/a	n/a	n/a	n/a	n/a	n/a	n/a	n/a
185.7048	0.5167	FIXCROSS	n/a	n/a	n/a	n/a	n/a	n/a	n/a	n/a
186.2215	0.5667	INK	67	Neutral	xxxxxxxxx	xxxxxxxxx	czerwony	red	hit	n/a
186.7657	n/a	RESPONSE	n/a	n/a	n/a	n/a	n/a	n/a	n/a	red
186.7881	1.0167	ITI	n/a	n/a	n/a	n/a	n/a	n/a	n/a	n/a
187.8048	0.5167	FIXCROSS	n/a	n/a	n/a	n/a	n/a	n/a	n/a	n/a
188.3215	0.9167	INK	68	Incongruent	czerwony	red	niebieski	blue	hit	n/a
189.2117	n/a	RESPONSE	n/a	n/a	n/a	n/a	n/a	n/a	n/a	blue
189.2382	1.0167	ITI	n/a	n/a	n/a	n/a	n/a	n/a	n/a	n/a
190.2548	0.5167	FIXCROSS	n/a	n/a	n/a	n/a	n/a	n/a	n/a	n/a
190.7715	0.3667	INK	69	Incongruent	żółty	yellow	zielony	green	hit	n/a
191.1141	n/a	RESPONSE	n/a	n/a	n/a	n/a	n/a	n/a	n/a	green
191.1382	1.0167	ITI	n/a	n/a	n/a	n/a	n/a	n/a	n/a	n/a
192.1549	0.5167	FIXCROSS	n/a	n/a	n/a	n/a	n/a	n/a	n/a	n/a
192.6715	0.3667	INK	70	Neutral	xxxxxxxx	xxxxxxxx	żółty	yellow	hit	n/a
193.0168	n/a	RESPONSE	n/a	n/a	n/a	n/a	n/a	n/a	n/a	yellow
193.0382	1.0167	ITI	n/a	n/a	n/a	n/a	n/a	n/a	n/a	n/a
194.0549	0.5167	FIXCROSS	n/a	n/a	n/a	n/a	n/a	n/a	n/a	n/a
194.5716	0.6667	INK	71	Incongruent	zielony	green	żółty	yellow	hit	n/a
195.207	n/a	RESPONSE	n/a	n/a	n/a	n/a	n/a	n/a	n/a	yellow
195.2382	1.0167	ITI	n/a	n/a	n/a	n/a	n/a	n/a	n/a	n/a
196.2549	0.5167	FIXCROSS	n/a	n/a	n/a	n/a	n/a	n/a	n/a	n/a
196.7716	0.55	INK	72	Incongruent	czerwony	red	zielony	green	incorrect	n/a
197.3014	n/a	RESPONSE	n/a	n/a	n/a	n/a	n/a	n/a	n/a	red
197.3216	1.0833	ITI	n/a	n/a	n/a	n/a	n/a	n/a	n/a	n/a
211.2904	n/a	RESPONSE	n/a	n/a	n/a	n/a	n/a	n/a	n/a	n/a
211.3551	1.0167	ITI	n/a	n/a	n/a	n/a	n/a	n/a	n/a	n/a
212.3718	0.5167	FIXCROSS	n/a	n/a	n/a	n/a	n/a	n/a	n/a	n/a
212.8884	1.1	T_COLOR_NAME	1	Neutral	zielony	green	Neutral	Neutral	hit	n/a
213.9602	n/a	RESPONSE	n/a	n/a	n/a	n/a	n/a	n/a	n/a	green
213.9885	0.5167	FEEDBACK	n/a	n/a	n/a	n/a	n/a	n/a	n/a	n/a
214.5051	1.0167	ITI	n/a	n/a	n/a	n/a	n/a	n/a	n/a	n/a
215.5218	0.5166	FIXCROSS	n/a	n/a	n/a	n/a	n/a	n/a	n/a	n/a
216.0385	1.1834	T_COLOR_NAME	2	Incongruent	czerwony	red	żółty	yellow	hit	n/a
217.1897	n/a	RESPONSE	n/a	n/a	n/a	n/a	n/a	n/a	n/a	red
217.2218	0.5167	FEEDBACK	n/a	n/a	n/a	n/a	n/a	n/a	n/a	n/a
217.7385	1.0167	ITI	n/a	n/a	n/a	n/a	n/a	n/a	n/a	n/a
218.7552	0.5167	FIXCROSS	n/a	n/a	n/a	n/a	n/a	n/a	n/a	n/a
219.2718	0.6833	T_COLOR_NAME	3	Neutral	niebieski	blue	Neutral	Neutral	hit	n/a
219.9236	n/a	RESPONSE	n/a	n/a	n/a	n/a	n/a	n/a	n/a	blue
219.9552	0.5167	FEEDBACK	n/a	n/a	n/a	n/a	n/a	n/a	n/a	n/a
220.4719	1.0167	ITI	n/a	n/a	n/a	n/a	n/a	n/a	n/a	n/a
221.4885	0.5167	FIXCROSS	n/a	n/a	n/a	n/a	n/a	n/a	n/a	n/a
222.0052	0.8334	T_COLOR_NAME	4	Neutral	żółty	yellow	Neutral	Neutral	hit	n/a
222.8013	n/a	RESPONSE	n/a	n/a	n/a	n/a	n/a	n/a	n/a	yellow
222.8386	0.5167	FEEDBACK	n/a	n/a	n/a	n/a	n/a	n/a	n/a	n/a
223.3552	1.0167	ITI	n/a	n/a	n/a	n/a	n/a	n/a	n/a	n/a
224.3719	0.5167	FIXCROSS	n/a	n/a	n/a	n/a	n/a	n/a	n/a	n/a
224.8886	0.5333	T_COLOR_NAME	5	Neutral	żółty	yellow	Neutral	Neutral	hit	n/a
225.3913	n/a	RESPONSE	n/a	n/a	n/a	n/a	n/a	n/a	n/a	yellow
225.4219	0.5167	FEEDBACK	n/a	n/a	n/a	n/a	n/a	n/a	n/a	n/a
225.9386	1.0167	ITI	n/a	n/a	n/a	n/a	n/a	n/a	n/a	n/a
226.9553	0.5167	FIXCROSS	n/a	n/a	n/a	n/a	n/a	n/a	n/a	n/a
227.4719	0.6667	T_COLOR_NAME	6	Neutral	zielony	green	Neutral	Neutral	hit	n/a
228.1091	n/a	RESPONSE	n/a	n/a	n/a	n/a	n/a	n/a	n/a	green
228.1386	0.5167	FEEDBACK	n/a	n/a	n/a	n/a	n/a	n/a	n/a	n/a
228.6553	1.0167	ITI	n/a	n/a	n/a	n/a	n/a	n/a	n/a	n/a
229.672	0.5167	FIXCROSS	n/a	n/a	n/a	n/a	n/a	n/a	n/a	n/a
230.1887	0.75	T_COLOR_NAME	7	Incongruent	żółty	yellow	niebieski	blue	hit	n/a
230.9068	n/a	RESPONSE	n/a	n/a	n/a	n/a	n/a	n/a	n/a	yellow
230.9387	0.5167	FEEDBACK	n/a	n/a	n/a	n/a	n/a	n/a	n/a	n/a
231.4553	1.0167	ITI	n/a	n/a	n/a	n/a	n/a	n/a	n/a	n/a
232.472	0.5167	FIXCROSS	n/a	n/a	n/a	n/a	n/a	n/a	n/a	n/a
232.9887	0.8	T_COLOR_NAME	8	Neutral	czerwony	red	Neutral	Neutral	hit	n/a
233.7686	n/a	RESPONSE	n/a	n/a	n/a	n/a	n/a	n/a	n/a	red
233.7887	0.5167	FEEDBACK	n/a	n/a	n/a	n/a	n/a	n/a	n/a	n/a
234.3054	1.0167	ITI	n/a	n/a	n/a	n/a	n/a	n/a	n/a	n/a
235.322	0.5167	FIXCROSS	n/a	n/a	n/a	n/a	n/a	n/a	n/a	n/a
235.8387	0.9834	T_COLOR_NAME	9	Incongruent	niebieski	blue	czerwony	red	incorrect	n/a
236.7903	n/a	RESPONSE	n/a	n/a	n/a	n/a	n/a	n/a	n/a	red
236.8221	0.5167	FEEDBACK	n/a	n/a	n/a	n/a	n/a	n/a	n/a	n/a
237.3387	1.0167	ITI	n/a	n/a	n/a	n/a	n/a	n/a	n/a	n/a
238.3554	0.5167	FIXCROSS	n/a	n/a	n/a	n/a	n/a	n/a	n/a	n/a
238.8721	1.0	T_COLOR_NAME	10	Neutral	żółty	yellow	Neutral	Neutral	hit	n/a
239.8439	n/a	RESPONSE	n/a	n/a	n/a	n/a	n/a	n/a	n/a	yellow
239.8721	0.5167	FEEDBACK	n/a	n/a	n/a	n/a	n/a	n/a	n/a	n/a
240.3888	1.0167	ITI	n/a	n/a	n/a	n/a	n/a	n/a	n/a	n/a
241.4054	0.5167	FIXCROSS	n/a	n/a	n/a	n/a	n/a	n/a	n/a	n/a
241.9221	0.7834	T_COLOR_NAME	11	Neutral	zielony	green	Neutral	Neutral	hit	n/a
242.6736	n/a	RESPONSE	n/a	n/a	n/a	n/a	n/a	n/a	n/a	green
242.7055	0.5167	FEEDBACK	n/a	n/a	n/a	n/a	n/a	n/a	n/a	n/a
243.2221	1.0167	ITI	n/a	n/a	n/a	n/a	n/a	n/a	n/a	n/a
244.2388	0.5167	FIXCROSS	n/a	n/a	n/a	n/a	n/a	n/a	n/a	n/a
244.7555	1.0167	T_COLOR_NAME	12	Incongruent	żółty	yellow	zielony	green	hit	n/a
245.7431	n/a	RESPONSE	n/a	n/a	n/a	n/a	n/a	n/a	n/a	yellow
245.7722	0.5167	FEEDBACK	n/a	n/a	n/a	n/a	n/a	n/a	n/a	n/a
246.2888	1.0334	ITI	n/a	n/a	n/a	n/a	n/a	n/a	n/a	n/a
249.0526	n/a	RESPONSE	n/a	n/a	n/a	n/a	n/a	n/a	n/a	n/a
249.1055	1.0167	ITI	n/a	n/a	n/a	n/a	n/a	n/a	n/a	n/a
250.1222	0.5167	FIXCROSS	n/a	n/a	n/a	n/a	n/a	n/a	n/a	n/a
250.6389	0.9833	COLOR_NAME	1	Incongruent	czerwony	red	niebieski	blue	hit	n/a
251.5946	n/a	RESPONSE	n/a	n/a	n/a	n/a	n/a	n/a	n/a	red
251.6222	1.0167	ITI	n/a	n/a	n/a	n/a	n/a	n/a	n/a	n/a
252.6389	0.5167	FIXCROSS	n/a	n/a	n/a	n/a	n/a	n/a	n/a	n/a
253.1556	0.5	COLOR_NAME	2	Neutral	czerwony	red	Neutral	Neutral	hit	n/a
253.6249	n/a	RESPONSE	n/a	n/a	n/a	n/a	n/a	n/a	n/a	red
253.6556	1.0167	ITI	n/a	n/a	n/a	n/a	n/a	n/a	n/a	n/a
254.6723	0.5167	FIXCROSS	n/a	n/a	n/a	n/a	n/a	n/a	n/a	n/a
255.1889	0.4833	COLOR_NAME	3	Neutral	żółty	yellow	Neutral	Neutral	hit	n/a
255.6394	n/a	RESPONSE	n/a	n/a	n/a	n/a	n/a	n/a	n/a	yellow
255.6723	1.0167	ITI	n/a	n/a	n/a	n/a	n/a	n/a	n/a	n/a
256.6889	0.5167	FIXCROSS	n/a	n/a	n/a	n/a	n/a	n/a	n/a	n/a
257.2056	0.5167	COLOR_NAME	4	Incongruent	żółty	yellow	zielony	green	hit	n/a
257.7018	n/a	RESPONSE	n/a	n/a	n/a	n/a	n/a	n/a	n/a	yellow
257.7223	1.0167	ITI	n/a	n/a	n/a	n/a	n/a	n/a	n/a	n/a
258.739	0.5167	FIXCROSS	n/a	n/a	n/a	n/a	n/a	n/a	n/a	n/a
259.2556	0.4833	COLOR_NAME	5	Neutral	żółty	yellow	Neutral	Neutral	hit	n/a
259.7163	n/a	RESPONSE	n/a	n/a	n/a	n/a	n/a	n/a	n/a	yellow
259.739	1.0167	ITI	n/a	n/a	n/a	n/a	n/a	n/a	n/a	n/a
260.7557	0.5167	FIXCROSS	n/a	n/a	n/a	n/a	n/a	n/a	n/a	n/a
261.2723	1.05	COLOR_NAME	6	Neutral	zielony	green	Neutral	Neutral	hit	n/a
262.2903	n/a	RESPONSE	n/a	n/a	n/a	n/a	n/a	n/a	n/a	green
262.3224	1.0167	ITI	n/a	n/a	n/a	n/a	n/a	n/a	n/a	n/a
263.339	0.5167	FIXCROSS	n/a	n/a	n/a	n/a	n/a	n/a	n/a	n/a
263.8557	0.85	COLOR_NAME	7	Neutral	niebieski	blue	Neutral	Neutral	hit	n/a
264.6884	n/a	RESPONSE	n/a	n/a	n/a	n/a	n/a	n/a	n/a	blue
264.7057	1.0167	ITI	n/a	n/a	n/a	n/a	n/a	n/a	n/a	n/a
265.7224	0.5167	FIXCROSS	n/a	n/a	n/a	n/a	n/a	n/a	n/a	n/a
266.2391	0.75	COLOR_NAME	8	Neutral	żółty	yellow	Neutral	Neutral	hit	n/a
266.9586	n/a	RESPONSE	n/a	n/a	n/a	n/a	n/a	n/a	n/a	yellow
266.9891	1.0167	ITI	n/a	n/a	n/a	n/a	n/a	n/a	n/a	n/a
268.0058	0.5167	FIXCROSS	n/a	n/a	n/a	n/a	n/a	n/a	n/a	n/a
268.5224	0.6167	COLOR_NAME	9	Incongruent	żółty	yellow	czerwony	red	hit	n/a
269.117	n/a	RESPONSE	n/a	n/a	n/a	n/a	n/a	n/a	n/a	yellow
269.1391	1.0167	ITI	n/a	n/a	n/a	n/a	n/a	n/a	n/a	n/a
270.1558	0.5167	FIXCROSS	n/a	n/a	n/a	n/a	n/a	n/a	n/a	n/a
270.6725	0.4833	COLOR_NAME	10	Incongruent	żółty	yellow	czerwony	red	hit	n/a
271.1313	n/a	RESPONSE	n/a	n/a	n/a	n/a	n/a	n/a	n/a	yellow
271.1558	1.0167	ITI	n/a	n/a	n/a	n/a	n/a	n/a	n/a	n/a
272.1725	0.5167	FIXCROSS	n/a	n/a	n/a	n/a	n/a	n/a	n/a	n/a
272.6891	0.6333	COLOR_NAME	11	Incongruent	czerwony	red	żółty	yellow	hit	n/a
273.2897	n/a	RESPONSE	n/a	n/a	n/a	n/a	n/a	n/a	n/a	red
273.3225	1.0167	ITI	n/a	n/a	n/a	n/a	n/a	n/a	n/a	n/a
274.3392	0.5167	FIXCROSS	n/a	n/a	n/a	n/a	n/a	n/a	n/a	n/a
274.8558	0.8	COLOR_NAME	12	Incongruent	zielony	green	żółty	yellow	hit	n/a
275.6238	n/a	RESPONSE	n/a	n/a	n/a	n/a	n/a	n/a	n/a	green
275.6559	1.0167	ITI	n/a	n/a	n/a	n/a	n/a	n/a	n/a	n/a
276.6725	0.5167	FIXCROSS	n/a	n/a	n/a	n/a	n/a	n/a	n/a	n/a
277.1892	0.6833	COLOR_NAME	13	Incongruent	czerwony	red	zielony	green	hit	n/a
277.846	n/a	RESPONSE	n/a	n/a	n/a	n/a	n/a	n/a	n/a	red
277.8725	1.0167	ITI	n/a	n/a	n/a	n/a	n/a	n/a	n/a	n/a
278.8892	0.5167	FIXCROSS	n/a	n/a	n/a	n/a	n/a	n/a	n/a	n/a
279.4059	1.0334	COLOR_NAME	14	Incongruent	zielony	green	żółty	yellow	hit	n/a
280.404	n/a	RESPONSE	n/a	n/a	n/a	n/a	n/a	n/a	n/a	green
280.4392	1.0167	ITI	n/a	n/a	n/a	n/a	n/a	n/a	n/a	n/a
281.4559	0.5167	FIXCROSS	n/a	n/a	n/a	n/a	n/a	n/a	n/a	n/a
281.9726	0.7667	COLOR_NAME	15	Incongruent	niebieski	blue	czerwony	red	hit	n/a
282.7062	n/a	RESPONSE	n/a	n/a	n/a	n/a	n/a	n/a	n/a	blue
282.7393	1.0167	ITI	n/a	n/a	n/a	n/a	n/a	n/a	n/a	n/a
283.7559	0.5167	FIXCROSS	n/a	n/a	n/a	n/a	n/a	n/a	n/a	n/a
284.2726	0.1333	COLOR_NAME	16	Incongruent	zielony	green	niebieski	blue	incorrect	n/a
284.3848	n/a	RESPONSE	n/a	n/a	n/a	n/a	n/a	n/a	n/a	red
284.4059	1.0167	ITI	n/a	n/a	n/a	n/a	n/a	n/a	n/a	n/a
285.4226	0.5167	FIXCROSS	n/a	n/a	n/a	n/a	n/a	n/a	n/a	n/a
285.9393	0.9667	COLOR_NAME	17	Neutral	niebieski	blue	Neutral	Neutral	hit	n/a
286.8789	n/a	RESPONSE	n/a	n/a	n/a	n/a	n/a	n/a	n/a	blue
286.906	1.0167	ITI	n/a	n/a	n/a	n/a	n/a	n/a	n/a	n/a
287.9227	0.5167	FIXCROSS	n/a	n/a	n/a	n/a	n/a	n/a	n/a	n/a
288.4393	0.7	COLOR_NAME	18	Incongruent	żółty	yellow	niebieski	blue	hit	n/a
289.1172	n/a	RESPONSE	n/a	n/a	n/a	n/a	n/a	n/a	n/a	yellow
289.1393	1.0167	ITI	n/a	n/a	n/a	n/a	n/a	n/a	n/a	n/a
290.156	0.5167	FIXCROSS	n/a	n/a	n/a	n/a	n/a	n/a	n/a	n/a
290.6727	0.4333	COLOR_NAME	19	Neutral	żółty	yellow	Neutral	Neutral	hit	n/a
291.0837	n/a	RESPONSE	n/a	n/a	n/a	n/a	n/a	n/a	n/a	yellow
291.106	1.0167	ITI	n/a	n/a	n/a	n/a	n/a	n/a	n/a	n/a
292.1227	0.5167	FIXCROSS	n/a	n/a	n/a	n/a	n/a	n/a	n/a	n/a
292.6394	0.9333	COLOR_NAME	20	Neutral	zielony	green	Neutral	Neutral	hit	n/a
293.5456	n/a	RESPONSE	n/a	n/a	n/a	n/a	n/a	n/a	n/a	green
293.5727	1.0167	ITI	n/a	n/a	n/a	n/a	n/a	n/a	n/a	n/a
294.5894	0.5167	FIXCROSS	n/a	n/a	n/a	n/a	n/a	n/a	n/a	n/a
295.1061	0.7167	COLOR_NAME	21	Incongruent	zielony	green	żółty	yellow	hit	n/a
295.7999	n/a	RESPONSE	n/a	n/a	n/a	n/a	n/a	n/a	n/a	green
295.8228	1.0167	ITI	n/a	n/a	n/a	n/a	n/a	n/a	n/a	n/a
296.8394	0.5167	FIXCROSS	n/a	n/a	n/a	n/a	n/a	n/a	n/a	n/a
297.3561	0.6667	COLOR_NAME	22	Incongruent	niebieski	blue	żółty	yellow	hit	n/a
297.9901	n/a	RESPONSE	n/a	n/a	n/a	n/a	n/a	n/a	n/a	blue
298.0228	1.0167	ITI	n/a	n/a	n/a	n/a	n/a	n/a	n/a	n/a
299.0395	0.5167	FIXCROSS	n/a	n/a	n/a	n/a	n/a	n/a	n/a	n/a
299.5561	0.65	COLOR_NAME	23	Neutral	zielony	green	Neutral	Neutral	hit	n/a
300.1805	n/a	RESPONSE	n/a	n/a	n/a	n/a	n/a	n/a	n/a	green
300.2061	1.0167	ITI	n/a	n/a	n/a	n/a	n/a	n/a	n/a	n/a
301.2228	0.5167	FIXCROSS	n/a	n/a	n/a	n/a	n/a	n/a	n/a	n/a
301.7395	0.6333	COLOR_NAME	24	Incongruent	niebieski	blue	czerwony	red	hit	n/a
302.3547	n/a	RESPONSE	n/a	n/a	n/a	n/a	n/a	n/a	n/a	blue
302.3728	1.0167	ITI	n/a	n/a	n/a	n/a	n/a	n/a	n/a	n/a
303.3895	0.5167	FIXCROSS	n/a	n/a	n/a	n/a	n/a	n/a	n/a	n/a
303.9062	0.4833	COLOR_NAME	25	Neutral	zielony	green	Neutral	Neutral	hit	n/a
304.3692	n/a	RESPONSE	n/a	n/a	n/a	n/a	n/a	n/a	n/a	green
304.3895	1.0167	ITI	n/a	n/a	n/a	n/a	n/a	n/a	n/a	n/a
305.4062	0.5167	FIXCROSS	n/a	n/a	n/a	n/a	n/a	n/a	n/a	n/a
305.9229	0.6	COLOR_NAME	26	Neutral	czerwony	red	Neutral	Neutral	hit	n/a
306.4956	n/a	RESPONSE	n/a	n/a	n/a	n/a	n/a	n/a	n/a	red
306.5229	1.0167	ITI	n/a	n/a	n/a	n/a	n/a	n/a	n/a	n/a
307.5395	0.5167	FIXCROSS	n/a	n/a	n/a	n/a	n/a	n/a	n/a	n/a
308.0562	0.6333	COLOR_NAME	27	Incongruent	niebieski	blue	zielony	green	hit	n/a
308.6698	n/a	RESPONSE	n/a	n/a	n/a	n/a	n/a	n/a	n/a	blue
308.6896	1.0167	ITI	n/a	n/a	n/a	n/a	n/a	n/a	n/a	n/a
309.7062	0.5167	FIXCROSS	n/a	n/a	n/a	n/a	n/a	n/a	n/a	n/a
310.2229	0.7167	COLOR_NAME	28	Neutral	czerwony	red	Neutral	Neutral	hit	n/a
310.9081	n/a	RESPONSE	n/a	n/a	n/a	n/a	n/a	n/a	n/a	red
310.9396	1.0167	ITI	n/a	n/a	n/a	n/a	n/a	n/a	n/a	n/a
311.9563	0.5167	FIXCROSS	n/a	n/a	n/a	n/a	n/a	n/a	n/a	n/a
312.4729	0.6667	COLOR_NAME	29	Neutral	zielony	green	Neutral	Neutral	hit	n/a
313.1144	n/a	RESPONSE	n/a	n/a	n/a	n/a	n/a	n/a	n/a	green
313.1396	1.0167	ITI	n/a	n/a	n/a	n/a	n/a	n/a	n/a	n/a
314.1563	0.5167	FIXCROSS	n/a	n/a	n/a	n/a	n/a	n/a	n/a	n/a
314.673	0.7	COLOR_NAME	30	Incongruent	czerwony	red	zielony	green	hit	n/a
315.3526	n/a	RESPONSE	n/a	n/a	n/a	n/a	n/a	n/a	n/a	red
315.373	1.0167	ITI	n/a	n/a	n/a	n/a	n/a	n/a	n/a	n/a
316.3896	0.5167	FIXCROSS	n/a	n/a	n/a	n/a	n/a	n/a	n/a	n/a
316.9063	0.6	COLOR_NAME	31	Neutral	czerwony	red	Neutral	Neutral	hit	n/a
317.4789	n/a	RESPONSE	n/a	n/a	n/a	n/a	n/a	n/a	n/a	red
317.5063	1.0167	ITI	n/a	n/a	n/a	n/a	n/a	n/a	n/a	n/a
318.523	0.5167	FIXCROSS	n/a	n/a	n/a	n/a	n/a	n/a	n/a	n/a
319.0397	0.5833	COLOR_NAME	32	Neutral	żółty	yellow	Neutral	Neutral	hit	n/a
319.6053	n/a	RESPONSE	n/a	n/a	n/a	n/a	n/a	n/a	n/a	yellow
319.623	1.0167	ITI	n/a	n/a	n/a	n/a	n/a	n/a	n/a	n/a
320.6397	0.5167	FIXCROSS	n/a	n/a	n/a	n/a	n/a	n/a	n/a	n/a
321.1564	0.6667	COLOR_NAME	33	Neutral	niebieski	blue	Neutral	Neutral	hit	n/a
321.7956	n/a	RESPONSE	n/a	n/a	n/a	n/a	n/a	n/a	n/a	blue
321.8231	1.0167	ITI	n/a	n/a	n/a	n/a	n/a	n/a	n/a	n/a
322.8397	0.5167	FIXCROSS	n/a	n/a	n/a	n/a	n/a	n/a	n/a	n/a
323.3564	0.5833	COLOR_NAME	34	Incongruent	niebieski	blue	zielony	green	hit	n/a
323.9059	n/a	RESPONSE	n/a	n/a	n/a	n/a	n/a	n/a	n/a	blue
323.9397	1.0167	ITI	n/a	n/a	n/a	n/a	n/a	n/a	n/a	n/a
324.9564	0.5167	FIXCROSS	n/a	n/a	n/a	n/a	n/a	n/a	n/a	n/a
325.4731	0.4167	COLOR_NAME	35	Incongruent	niebieski	blue	żółty	yellow	hit	n/a
325.8724	n/a	RESPONSE	n/a	n/a	n/a	n/a	n/a	n/a	n/a	blue
325.8898	1.0167	ITI	n/a	n/a	n/a	n/a	n/a	n/a	n/a	n/a
326.9064	0.5167	FIXCROSS	n/a	n/a	n/a	n/a	n/a	n/a	n/a	n/a
327.4231	0.5167	COLOR_NAME	36	Neutral	niebieski	blue	Neutral	Neutral	hit	n/a
327.9189	n/a	RESPONSE	n/a	n/a	n/a	n/a	n/a	n/a	n/a	blue
327.9398	1.0167	ITI	n/a	n/a	n/a	n/a	n/a	n/a	n/a	n/a
328.9565	0.5167	FIXCROSS	n/a	n/a	n/a	n/a	n/a	n/a	n/a	n/a
329.4731	0.7167	COLOR_NAME	37	Neutral	zielony	green	Neutral	Neutral	incorrect	n/a
330.1571	n/a	RESPONSE	n/a	n/a	n/a	n/a	n/a	n/a	n/a	red
330.1898	1.0167	ITI	n/a	n/a	n/a	n/a	n/a	n/a	n/a	n/a
331.2065	0.5167	FIXCROSS	n/a	n/a	n/a	n/a	n/a	n/a	n/a	n/a
331.7232	0.6333	COLOR_NAME	38	Neutral	żółty	yellow	Neutral	Neutral	hit	n/a
332.3314	n/a	RESPONSE	n/a	n/a	n/a	n/a	n/a	n/a	n/a	yellow
332.3565	1.0167	ITI	n/a	n/a	n/a	n/a	n/a	n/a	n/a	n/a
333.3732	0.5167	FIXCROSS	n/a	n/a	n/a	n/a	n/a	n/a	n/a	n/a
333.8899	0.9	COLOR_NAME	39	Incongruent	zielony	green	niebieski	blue	hit	n/a
334.7615	n/a	RESPONSE	n/a	n/a	n/a	n/a	n/a	n/a	n/a	green
334.7899	1.0167	ITI	n/a	n/a	n/a	n/a	n/a	n/a	n/a	n/a
335.8065	0.5167	FIXCROSS	n/a	n/a	n/a	n/a	n/a	n/a	n/a	n/a
336.3232	0.75	COLOR_NAME	40	Neutral	czerwony	red	Neutral	Neutral	hit	n/a
337.0477	n/a	RESPONSE	n/a	n/a	n/a	n/a	n/a	n/a	n/a	red
337.0732	1.0167	ITI	n/a	n/a	n/a	n/a	n/a	n/a	n/a	n/a
338.0899	0.5167	FIXCROSS	n/a	n/a	n/a	n/a	n/a	n/a	n/a	n/a
338.6066	0.6167	COLOR_NAME	41	Incongruent	niebieski	blue	zielony	green	hit	n/a
339.206	n/a	RESPONSE	n/a	n/a	n/a	n/a	n/a	n/a	n/a	blue
339.2233	1.0167	ITI	n/a	n/a	n/a	n/a	n/a	n/a	n/a	n/a
340.2399	0.5167	FIXCROSS	n/a	n/a	n/a	n/a	n/a	n/a	n/a	n/a
340.7566	0.5667	COLOR_NAME	42	Neutral	czerwony	red	Neutral	Neutral	hit	n/a
341.3004	n/a	RESPONSE	n/a	n/a	n/a	n/a	n/a	n/a	n/a	red
341.3233	1.0167	ITI	n/a	n/a	n/a	n/a	n/a	n/a	n/a	n/a
342.3399	0.5167	FIXCROSS	n/a	n/a	n/a	n/a	n/a	n/a	n/a	n/a
342.8566	0.9167	COLOR_NAME	43	Incongruent	niebieski	blue	czerwony	red	hit	n/a
343.7464	n/a	RESPONSE	n/a	n/a	n/a	n/a	n/a	n/a	n/a	blue
343.7733	1.0167	ITI	n/a	n/a	n/a	n/a	n/a	n/a	n/a	n/a
344.79	0.5167	FIXCROSS	n/a	n/a	n/a	n/a	n/a	n/a	n/a	n/a
345.3067	0.75	COLOR_NAME	44	Incongruent	czerwony	red	żółty	yellow	hit	n/a
346.0328	n/a	RESPONSE	n/a	n/a	n/a	n/a	n/a	n/a	n/a	red
346.0567	1.0167	ITI	n/a	n/a	n/a	n/a	n/a	n/a	n/a	n/a
347.0733	0.5167	FIXCROSS	n/a	n/a	n/a	n/a	n/a	n/a	n/a	n/a
347.59	0.6667	COLOR_NAME	45	Incongruent	zielony	green	niebieski	blue	hit	n/a
348.223	n/a	RESPONSE	n/a	n/a	n/a	n/a	n/a	n/a	n/a	green
348.2567	1.0167	ITI	n/a	n/a	n/a	n/a	n/a	n/a	n/a	n/a
349.2734	0.5167	FIXCROSS	n/a	n/a	n/a	n/a	n/a	n/a	n/a	n/a
349.79	0.75	COLOR_NAME	46	Incongruent	żółty	yellow	czerwony	red	hit	n/a
350.5092	n/a	RESPONSE	n/a	n/a	n/a	n/a	n/a	n/a	n/a	yellow
350.5401	1.0167	ITI	n/a	n/a	n/a	n/a	n/a	n/a	n/a	n/a
351.5567	0.5167	FIXCROSS	n/a	n/a	n/a	n/a	n/a	n/a	n/a	n/a
352.0734	0.6667	COLOR_NAME	47	Incongruent	czerwony	red	niebieski	blue	hit	n/a
352.7155	n/a	RESPONSE	n/a	n/a	n/a	n/a	n/a	n/a	n/a	red
352.7401	1.0167	ITI	n/a	n/a	n/a	n/a	n/a	n/a	n/a	n/a
353.7568	0.5167	FIXCROSS	n/a	n/a	n/a	n/a	n/a	n/a	n/a	n/a
354.2734	0.9167	COLOR_NAME	48	Neutral	niebieski	blue	Neutral	Neutral	hit	n/a
355.1616	n/a	RESPONSE	n/a	n/a	n/a	n/a	n/a	n/a	n/a	blue
355.1901	1.0167	ITI	n/a	n/a	n/a	n/a	n/a	n/a	n/a	n/a
356.2068	0.5167	FIXCROSS	n/a	n/a	n/a	n/a	n/a	n/a	n/a	n/a
356.7235	0.65	COLOR_NAME	49	Incongruent	czerwony	red	zielony	green	hit	n/a
357.3518	n/a	RESPONSE	n/a	n/a	n/a	n/a	n/a	n/a	n/a	red
357.3735	1.0167	ITI	n/a	n/a	n/a	n/a	n/a	n/a	n/a	n/a
358.3901	0.5167	FIXCROSS	n/a	n/a	n/a	n/a	n/a	n/a	n/a	n/a
358.9068	1.0333	COLOR_NAME	50	Incongruent	zielony	green	czerwony	red	hit	n/a
359.9098	n/a	RESPONSE	n/a	n/a	n/a	n/a	n/a	n/a	n/a	green
359.9402	1.0167	ITI	n/a	n/a	n/a	n/a	n/a	n/a	n/a	n/a
360.9568	0.5167	FIXCROSS	n/a	n/a	n/a	n/a	n/a	n/a	n/a	n/a
361.4735	0.5833	COLOR_NAME	51	Incongruent	czerwony	red	żółty	yellow	hit	n/a
362.0361	n/a	RESPONSE	n/a	n/a	n/a	n/a	n/a	n/a	n/a	red
362.0568	1.0167	ITI	n/a	n/a	n/a	n/a	n/a	n/a	n/a	n/a
363.0735	0.5167	FIXCROSS	n/a	n/a	n/a	n/a	n/a	n/a	n/a	n/a
363.5902	0.6333	COLOR_NAME	52	Neutral	czerwony	red	Neutral	Neutral	hit	n/a
364.1945	n/a	RESPONSE	n/a	n/a	n/a	n/a	n/a	n/a	n/a	red
364.2236	1.0167	ITI	n/a	n/a	n/a	n/a	n/a	n/a	n/a	n/a
365.2402	0.5167	FIXCROSS	n/a	n/a	n/a	n/a	n/a	n/a	n/a	n/a
365.7569	0.5333	COLOR_NAME	53	Neutral	żółty	yellow	Neutral	Neutral	hit	n/a
366.2729	n/a	RESPONSE	n/a	n/a	n/a	n/a	n/a	n/a	n/a	yellow
366.2902	1.0167	ITI	n/a	n/a	n/a	n/a	n/a	n/a	n/a	n/a
367.3069	0.5167	FIXCROSS	n/a	n/a	n/a	n/a	n/a	n/a	n/a	n/a
367.8236	0.55	COLOR_NAME	54	Neutral	czerwony	red	Neutral	Neutral	hit	n/a
368.3512	n/a	RESPONSE	n/a	n/a	n/a	n/a	n/a	n/a	n/a	red
368.3736	1.0167	ITI	n/a	n/a	n/a	n/a	n/a	n/a	n/a	n/a
369.3903	0.5167	FIXCROSS	n/a	n/a	n/a	n/a	n/a	n/a	n/a	n/a
369.9069	0.6667	COLOR_NAME	55	Neutral	niebieski	blue	Neutral	Neutral	hit	n/a
370.5416	n/a	RESPONSE	n/a	n/a	n/a	n/a	n/a	n/a	n/a	blue
370.5736	1.0167	ITI	n/a	n/a	n/a	n/a	n/a	n/a	n/a	n/a
371.5903	0.5167	FIXCROSS	n/a	n/a	n/a	n/a	n/a	n/a	n/a	n/a
372.107	0.7167	COLOR_NAME	56	Neutral	żółty	yellow	Neutral	Neutral	hit	n/a
372.7957	n/a	RESPONSE	n/a	n/a	n/a	n/a	n/a	n/a	n/a	yellow
372.8236	1.0167	ITI	n/a	n/a	n/a	n/a	n/a	n/a	n/a	n/a
373.8403	0.5167	FIXCROSS	n/a	n/a	n/a	n/a	n/a	n/a	n/a	n/a
374.357	0.95	COLOR_NAME	57	Neutral	niebieski	blue	Neutral	Neutral	hit	n/a
375.2738	n/a	RESPONSE	n/a	n/a	n/a	n/a	n/a	n/a	n/a	blue
375.307	1.0167	ITI	n/a	n/a	n/a	n/a	n/a	n/a	n/a	n/a
376.3237	0.5167	FIXCROSS	n/a	n/a	n/a	n/a	n/a	n/a	n/a	n/a
376.8404	0.7667	COLOR_NAME	58	Neutral	zielony	green	Neutral	Neutral	hit	n/a
377.576	n/a	RESPONSE	n/a	n/a	n/a	n/a	n/a	n/a	n/a	green
377.607	1.0167	ITI	n/a	n/a	n/a	n/a	n/a	n/a	n/a	n/a
378.6237	0.5167	FIXCROSS	n/a	n/a	n/a	n/a	n/a	n/a	n/a	n/a
379.1404	1.5667	COLOR_NAME	59	Incongruent	niebieski	blue	żółty	yellow	hit	n/a
380.6776	n/a	RESPONSE	n/a	n/a	n/a	n/a	n/a	n/a	n/a	blue
380.7071	1.0167	ITI	n/a	n/a	n/a	n/a	n/a	n/a	n/a	n/a
381.7237	0.5167	FIXCROSS	n/a	n/a	n/a	n/a	n/a	n/a	n/a	n/a
382.2404	0.6667	COLOR_NAME	60	Neutral	żółty	yellow	Neutral	Neutral	hit	n/a
382.8839	n/a	RESPONSE	n/a	n/a	n/a	n/a	n/a	n/a	n/a	yellow
382.9071	1.0167	ITI	n/a	n/a	n/a	n/a	n/a	n/a	n/a	n/a
383.9238	0.5167	FIXCROSS	n/a	n/a	n/a	n/a	n/a	n/a	n/a	n/a
384.4404	0.6167	COLOR_NAME	61	Neutral	czerwony	red	Neutral	Neutral	hit	n/a
385.0262	n/a	RESPONSE	n/a	n/a	n/a	n/a	n/a	n/a	n/a	red
385.0571	1.0167	ITI	n/a	n/a	n/a	n/a	n/a	n/a	n/a	n/a
386.0738	0.5167	FIXCROSS	n/a	n/a	n/a	n/a	n/a	n/a	n/a	n/a
386.5905	0.6	COLOR_NAME	62	Incongruent	czerwony	red	niebieski	blue	hit	n/a
387.1686	n/a	RESPONSE	n/a	n/a	n/a	n/a	n/a	n/a	n/a	red
387.1905	1.0167	ITI	n/a	n/a	n/a	n/a	n/a	n/a	n/a	n/a
388.2071	0.5167	FIXCROSS	n/a	n/a	n/a	n/a	n/a	n/a	n/a	n/a
388.7238	0.5	COLOR_NAME	63	Incongruent	żółty	yellow	zielony	green	hit	n/a
389.199	n/a	RESPONSE	n/a	n/a	n/a	n/a	n/a	n/a	n/a	yellow
389.2238	1.0167	ITI	n/a	n/a	n/a	n/a	n/a	n/a	n/a	n/a
390.2405	0.5167	FIXCROSS	n/a	n/a	n/a	n/a	n/a	n/a	n/a	n/a
390.7572	0.7667	COLOR_NAME	64	Neutral	zielony	green	Neutral	Neutral	hit	n/a
391.5012	n/a	RESPONSE	n/a	n/a	n/a	n/a	n/a	n/a	n/a	green
391.5239	1.0167	ITI	n/a	n/a	n/a	n/a	n/a	n/a	n/a	n/a
392.5405	0.5167	FIXCROSS	n/a	n/a	n/a	n/a	n/a	n/a	n/a	n/a
393.0572	0.6	COLOR_NAME	65	Incongruent	żółty	yellow	niebieski	blue	hit	n/a
393.6276	n/a	RESPONSE	n/a	n/a	n/a	n/a	n/a	n/a	n/a	yellow
393.6572	1.0167	ITI	n/a	n/a	n/a	n/a	n/a	n/a	n/a	n/a
394.6739	0.5167	FIXCROSS	n/a	n/a	n/a	n/a	n/a	n/a	n/a	n/a
395.1906	0.6667	COLOR_NAME	66	Incongruent	żółty	yellow	niebieski	blue	hit	n/a
395.8338	n/a	RESPONSE	n/a	n/a	n/a	n/a	n/a	n/a	n/a	yellow
395.8572	1.0167	ITI	n/a	n/a	n/a	n/a	n/a	n/a	n/a	n/a
396.8739	0.5167	FIXCROSS	n/a	n/a	n/a	n/a	n/a	n/a	n/a	n/a
397.3906	0.7	COLOR_NAME	67	Neutral	niebieski	blue	Neutral	Neutral	hit	n/a
398.072	n/a	RESPONSE	n/a	n/a	n/a	n/a	n/a	n/a	n/a	blue
398.0906	1.0167	ITI	n/a	n/a	n/a	n/a	n/a	n/a	n/a	n/a
399.1073	0.5167	FIXCROSS	n/a	n/a	n/a	n/a	n/a	n/a	n/a	n/a
399.624	0.7	COLOR_NAME	68	Incongruent	zielony	green	czerwony	red	hit	n/a
400.2944	n/a	RESPONSE	n/a	n/a	n/a	n/a	n/a	n/a	n/a	green
400.324	1.0167	ITI	n/a	n/a	n/a	n/a	n/a	n/a	n/a	n/a
401.3406	0.5167	FIXCROSS	n/a	n/a	n/a	n/a	n/a	n/a	n/a	n/a
401.8573	0.85	COLOR_NAME	69	Neutral	zielony	green	Neutral	Neutral	hit	n/a
402.6765	n/a	RESPONSE	n/a	n/a	n/a	n/a	n/a	n/a	n/a	green
402.7073	1.0167	ITI	n/a	n/a	n/a	n/a	n/a	n/a	n/a	n/a
403.724	0.5167	FIXCROSS	n/a	n/a	n/a	n/a	n/a	n/a	n/a	n/a
404.2407	0.5833	COLOR_NAME	70	Incongruent	żółty	yellow	zielony	green	hit	n/a
404.8027	n/a	RESPONSE	n/a	n/a	n/a	n/a	n/a	n/a	n/a	yellow
404.824	1.0167	ITI	n/a	n/a	n/a	n/a	n/a	n/a	n/a	n/a
405.8407	0.5167	FIXCROSS	n/a	n/a	n/a	n/a	n/a	n/a	n/a	n/a
406.3574	0.7333	COLOR_NAME	71	Incongruent	zielony	green	czerwony	red	hit	n/a
407.0729	n/a	RESPONSE	n/a	n/a	n/a	n/a	n/a	n/a	n/a	green
407.0907	1.0167	ITI	n/a	n/a	n/a	n/a	n/a	n/a	n/a	n/a
408.1074	0.5167	FIXCROSS	n/a	n/a	n/a	n/a	n/a	n/a	n/a	n/a
408.6241	0.7667	COLOR_NAME	72	Neutral	niebieski	blue	Neutral	Neutral	hit	n/a
409.3592	n/a	RESPONSE	n/a	n/a	n/a	n/a	n/a	n/a	n/a	blue
409.3907	1.0334	ITI	n/a	n/a	n/a	n/a	n/a	n/a	n/a	n/a
413.228	n/a	RESPONSE	n/a	n/a	n/a	n/a	n/a	n/a	n/a	n/a
