onset	duration	trial_type	n_back_condition	trial_number	stimulus	response_type
0.0	n/a	RESPONSE	n/a	n/a	n/a	n/a
0.0198	1.0	ISI	n/a	n/a	n/a	n/a
1.0198	0.5	DISTRACTOR	1	1	E	Correct Rejection
1.5198	1.0	ISI	n/a	n/a	n/a	n/a
2.5198	0.5	DISTRACTOR	1	2	F	Correct Rejection
3.0198	1.0	ISI	n/a	n/a	n/a	n/a
4.0198	0.5	DISTRACTOR	1	3	I	Correct Rejection
4.5198	1.0	ISI	n/a	n/a	n/a	n/a
5.5198	0.5	DISTRACTOR	1	4	D	Correct Rejection
6.0198	1.0	ISI	n/a	n/a	n/a	n/a
7.0198	0.5	DISTRACTOR	1	5	G	Correct Rejection
7.5199	1.0	ISI	n/a	n/a	n/a	n/a
8.5199	0.5	TARGET	1	6	G	Hit
8.9049	n/a	RESPONSE	n/a	n/a	n/a	n/a
9.0199	1.0	ISI	n/a	n/a	n/a	n/a
10.0199	0.5	DISTRACTOR	1	7	J	Correct Rejection
10.5199	1.0	ISI	n/a	n/a	n/a	n/a
11.5199	0.5	DISTRACTOR	1	8	F	Correct Rejection
12.0199	1.0	ISI	n/a	n/a	n/a	n/a
13.0199	0.5	TARGET	1	9	F	Hit
13.5199	1.0	ISI	n/a	n/a	n/a	n/a
13.6212	n/a	RESPONSE	n/a	n/a	n/a	n/a
14.5199	0.5	TARGET	1	10	F	Hit
15.0199	1.0	ISI	n/a	n/a	n/a	n/a
15.0281	n/a	RESPONSE	n/a	n/a	n/a	n/a
16.02	0.5	DISTRACTOR	1	11	E	Correct Rejection
16.52	1.0	ISI	n/a	n/a	n/a	n/a
17.52	0.5	DISTRACTOR	1	12	I	Correct Rejection
18.02	1.0	ISI	n/a	n/a	n/a	n/a
19.02	0.5	DISTRACTOR	1	13	E	Correct Rejection
19.52	1.0	ISI	n/a	n/a	n/a	n/a
20.52	0.5	DISTRACTOR	1	14	H	Correct Rejection
21.02	1.0	ISI	n/a	n/a	n/a	n/a
22.02	0.5	DISTRACTOR	1	15	I	Correct Rejection
22.52	1.0	ISI	n/a	n/a	n/a	n/a
23.52	0.5	DISTRACTOR	1	16	G	Correct Rejection
24.0201	1.0	ISI	n/a	n/a	n/a	n/a
25.0201	0.5	DISTRACTOR	1	17	B	Correct Rejection
25.5201	1.0	ISI	n/a	n/a	n/a	n/a
26.5201	0.5	TARGET	1	18	B	Hit
27.0201	1.0	ISI	n/a	n/a	n/a	n/a
27.2427	n/a	RESPONSE	n/a	n/a	n/a	n/a
28.0201	0.5	TARGET	1	19	B	Hit
28.4736	n/a	RESPONSE	n/a	n/a	n/a	n/a
28.5201	1.0	ISI	n/a	n/a	n/a	n/a
29.5201	0.5	TARGET	1	20	B	Hit
29.9285	n/a	RESPONSE	n/a	n/a	n/a	n/a
30.0201	1.0167	ISI	n/a	n/a	n/a	n/a
31.0368	0.5167	DISTRACTOR	1	21	G	Correct Rejection
31.5535	1.0167	ISI	n/a	n/a	n/a	n/a
32.5702	0.5167	TARGET	1	22	G	Hit
33.0868	1.0167	ISI	n/a	n/a	n/a	n/a
33.126	n/a	RESPONSE	n/a	n/a	n/a	n/a
34.1035	0.5167	DISTRACTOR	1	23	I	Correct Rejection
34.6202	1.0167	ISI	n/a	n/a	n/a	n/a
35.6369	0.5167	DISTRACTOR	1	24	J	Correct Rejection
36.1535	1.0167	ISI	n/a	n/a	n/a	n/a
37.1702	0.5167	DISTRACTOR	1	25	C	Correct Rejection
37.6869	1.0167	ISI	n/a	n/a	n/a	n/a
38.7036	0.5167	DISTRACTOR	1	26	E	Correct Rejection
39.2202	1.0167	ISI	n/a	n/a	n/a	n/a
40.2369	0.5167	DISTRACTOR	1	27	D	Correct Rejection
40.7536	1.0167	ISI	n/a	n/a	n/a	n/a
41.7703	0.5167	DISTRACTOR	1	28	C	Correct Rejection
42.2869	1.0167	ISI	n/a	n/a	n/a	n/a
43.3036	0.5167	DISTRACTOR	1	29	E	Correct Rejection
43.8203	1.0167	ISI	n/a	n/a	n/a	n/a
44.837	0.5167	DISTRACTOR	1	30	F	Correct Rejection
45.3536	1.0167	ISI	n/a	n/a	n/a	n/a
46.3703	0.5167	DISTRACTOR	1	31	A	Correct Rejection
46.887	1.0167	ISI	n/a	n/a	n/a	n/a
47.9037	0.5167	DISTRACTOR	1	32	J	Correct Rejection
48.4204	1.0167	ISI	n/a	n/a	n/a	n/a
49.437	0.5167	DISTRACTOR	1	33	D	Correct Rejection
49.9537	1.0167	ISI	n/a	n/a	n/a	n/a
50.9704	0.5167	TARGET	1	34	D	Hit
51.4871	1.0167	ISI	n/a	n/a	n/a	n/a
51.6075	n/a	RESPONSE	n/a	n/a	n/a	n/a
52.5037	0.5167	DISTRACTOR	1	35	H	Correct Rejection
53.0204	1.0167	ISI	n/a	n/a	n/a	n/a
54.0371	0.5167	DISTRACTOR	1	36	G	Correct Rejection
54.5538	1.0167	ISI	n/a	n/a	n/a	n/a
55.5704	0.5167	DISTRACTOR	1	37	I	Correct Rejection
56.0871	1.0167	ISI	n/a	n/a	n/a	n/a
57.1038	0.5167	DISTRACTOR	1	38	J	Correct Rejection
57.6205	1.0167	ISI	n/a	n/a	n/a	n/a
58.6371	0.5167	DISTRACTOR	1	39	E	Correct Rejection
59.1538	1.0167	ISI	n/a	n/a	n/a	n/a
60.1705	0.5167	DISTRACTOR	1	40	F	Correct Rejection
60.6872	1.0167	ISI	n/a	n/a	n/a	n/a
61.7038	0.5167	DISTRACTOR	1	41	J	Correct Rejection
62.2205	1.0167	ISI	n/a	n/a	n/a	n/a
63.2372	0.5167	DISTRACTOR	1	42	F	Correct Rejection
63.7539	1.0167	ISI	n/a	n/a	n/a	n/a
64.7705	0.5167	TARGET	1	43	F	Hit
65.2872	1.0167	ISI	n/a	n/a	n/a	n/a
65.2926	n/a	RESPONSE	n/a	n/a	n/a	n/a
66.3039	0.5167	DISTRACTOR	1	44	I	Correct Rejection
66.8206	1.0167	ISI	n/a	n/a	n/a	n/a
67.8373	0.5167	DISTRACTOR	1	45	F	Correct Rejection
68.3539	1.0167	ISI	n/a	n/a	n/a	n/a
69.3706	0.5167	TARGET	1	46	F	Hit
69.8873	1.0167	ISI	n/a	n/a	n/a	n/a
70.025	n/a	RESPONSE	n/a	n/a	n/a	n/a
70.904	0.5167	DISTRACTOR	1	47	I	Correct Rejection
71.4206	1.0167	ISI	n/a	n/a	n/a	n/a
72.4373	0.5167	DISTRACTOR	1	48	G	Correct Rejection
72.954	1.0167	ISI	n/a	n/a	n/a	n/a
73.9707	0.5167	DISTRACTOR	1	49	D	Correct Rejection
74.4873	1.0167	ISI	n/a	n/a	n/a	n/a
75.504	0.5167	DISTRACTOR	1	50	I	Correct Rejection
76.0207	1.1	ISI	n/a	n/a	n/a	n/a
92.6632	n/a	RESPONSE	n/a	n/a	n/a	n/a
92.7209	1.0167	ISI	n/a	n/a	n/a	n/a
93.7376	0.5167	DISTRACTOR	2	1	G	Correct Rejection
94.2542	1.0167	ISI	n/a	n/a	n/a	n/a
95.2709	0.5167	DISTRACTOR	2	2	I	Correct Rejection
95.7876	1.0167	ISI	n/a	n/a	n/a	n/a
96.8043	0.5167	DISTRACTOR	2	3	D	Correct Rejection
97.3209	1.0167	ISI	n/a	n/a	n/a	n/a
98.3376	0.5167	DISTRACTOR	2	4	F	Correct Rejection
98.8543	1.0167	ISI	n/a	n/a	n/a	n/a
99.871	0.5167	TARGET	2	5	D	Hit
100.3876	1.0167	ISI	n/a	n/a	n/a	n/a
100.465	n/a	RESPONSE	n/a	n/a	n/a	n/a
101.4043	0.5167	DISTRACTOR	2	6	G	Correct Rejection
101.921	1.0167	ISI	n/a	n/a	n/a	n/a
102.9377	0.5167	TARGET	2	7	D	Miss
103.4544	1.0167	ISI	n/a	n/a	n/a	n/a
104.471	0.5167	DISTRACTOR	2	8	E	Correct Rejection
104.9877	1.0167	ISI	n/a	n/a	n/a	n/a
106.0044	0.5167	DISTRACTOR	2	9	E	Correct Rejection
106.5211	1.0167	ISI	n/a	n/a	n/a	n/a
107.5377	0.5167	DISTRACTOR	2	10	B	Correct Rejection
108.0544	1.0167	ISI	n/a	n/a	n/a	n/a
109.0711	0.5167	TARGET	2	11	E	Hit
109.4819	n/a	RESPONSE	n/a	n/a	n/a	n/a
109.5878	1.0167	ISI	n/a	n/a	n/a	n/a
110.6044	0.5167	DISTRACTOR	2	12	I	Correct Rejection
111.1211	1.0167	ISI	n/a	n/a	n/a	n/a
112.1378	0.5167	DISTRACTOR	2	13	C	Correct Rejection
112.6545	1.0167	ISI	n/a	n/a	n/a	n/a
113.6711	0.5167	TARGET	2	14	I	Hit
114.0223	n/a	RESPONSE	n/a	n/a	n/a	n/a
114.1878	1.0167	ISI	n/a	n/a	n/a	n/a
115.2045	0.5167	DISTRACTOR	2	15	D	Correct Rejection
115.7212	1.0167	ISI	n/a	n/a	n/a	n/a
116.7378	0.5167	TARGET	2	16	I	Miss
117.2545	1.0167	ISI	n/a	n/a	n/a	n/a
118.2712	0.5167	DISTRACTOR	2	17	G	Correct Rejection
118.7879	1.0167	ISI	n/a	n/a	n/a	n/a
119.8045	0.5167	DISTRACTOR	2	18	A	Correct Rejection
120.3212	1.0167	ISI	n/a	n/a	n/a	n/a
121.3379	0.5167	DISTRACTOR	2	19	J	Correct Rejection
121.8546	1.0167	ISI	n/a	n/a	n/a	n/a
122.8712	0.5167	TARGET	2	20	A	Hit
123.3879	1.0167	ISI	n/a	n/a	n/a	n/a
123.4869	n/a	RESPONSE	n/a	n/a	n/a	n/a
124.4046	0.5167	DISTRACTOR	2	21	D	Correct Rejection
124.9213	1.0167	ISI	n/a	n/a	n/a	n/a
125.938	0.5167	DISTRACTOR	2	22	H	Correct Rejection
126.4546	1.0167	ISI	n/a	n/a	n/a	n/a
127.4713	0.5167	TARGET	2	23	D	Hit
127.988	1.0167	ISI	n/a	n/a	n/a	n/a
128.1073	n/a	RESPONSE	n/a	n/a	n/a	n/a
129.0047	0.5167	DISTRACTOR	2	24	F	Correct Rejection
129.5213	1.0167	ISI	n/a	n/a	n/a	n/a
130.538	0.5167	DISTRACTOR	2	25	C	Correct Rejection
131.0547	1.0167	ISI	n/a	n/a	n/a	n/a
132.0714	0.5167	DISTRACTOR	2	26	C	Correct Rejection
132.588	1.0167	ISI	n/a	n/a	n/a	n/a
133.6047	0.5167	DISTRACTOR	2	27	G	Correct Rejection
134.1214	1.0167	ISI	n/a	n/a	n/a	n/a
135.1381	0.5167	DISTRACTOR	2	28	D	Correct Rejection
135.6547	1.0167	ISI	n/a	n/a	n/a	n/a
136.6714	0.5167	TARGET	2	29	G	Hit
137.1881	1.0167	ISI	n/a	n/a	n/a	n/a
137.3321	n/a	RESPONSE	n/a	n/a	n/a	n/a
138.2048	0.5167	DISTRACTOR	2	30	C	False Alarm
138.7214	1.0167	ISI	n/a	n/a	n/a	n/a
138.9628	n/a	RESPONSE	n/a	n/a	n/a	n/a
139.7381	0.5167	DISTRACTOR	2	31	D	Correct Rejection
140.2548	1.0167	ISI	n/a	n/a	n/a	n/a
141.2715	0.5167	TARGET	2	32	C	Miss
141.7881	1.0167	ISI	n/a	n/a	n/a	n/a
142.8048	0.5167	DISTRACTOR	2	33	G	Correct Rejection
143.3215	1.0167	ISI	n/a	n/a	n/a	n/a
144.3382	0.5167	TARGET	2	34	C	Hit
144.8549	1.0167	ISI	n/a	n/a	n/a	n/a
145.5176	n/a	RESPONSE	n/a	n/a	n/a	n/a
145.8715	0.5167	DISTRACTOR	2	35	F	Correct Rejection
146.3882	1.0167	ISI	n/a	n/a	n/a	n/a
147.4049	0.5166	DISTRACTOR	2	36	B	Correct Rejection
147.9215	1.0167	ISI	n/a	n/a	n/a	n/a
148.9382	0.5167	DISTRACTOR	2	37	J	Correct Rejection
149.4549	1.0167	ISI	n/a	n/a	n/a	n/a
150.4716	0.5167	DISTRACTOR	2	38	E	Correct Rejection
150.9883	1.0167	ISI	n/a	n/a	n/a	n/a
152.0049	0.5167	DISTRACTOR	2	39	B	Correct Rejection
152.5216	1.0167	ISI	n/a	n/a	n/a	n/a
153.5383	0.5167	DISTRACTOR	2	40	H	Correct Rejection
154.055	1.0167	ISI	n/a	n/a	n/a	n/a
155.0716	0.5167	DISTRACTOR	2	41	I	Correct Rejection
155.5883	1.0167	ISI	n/a	n/a	n/a	n/a
156.605	0.5167	DISTRACTOR	2	42	B	False Alarm
157.0606	n/a	RESPONSE	n/a	n/a	n/a	n/a
157.1217	1.0167	ISI	n/a	n/a	n/a	n/a
158.1383	0.5167	DISTRACTOR	2	43	F	False Alarm
158.655	1.0167	ISI	n/a	n/a	n/a	n/a
158.8192	n/a	RESPONSE	n/a	n/a	n/a	n/a
159.6717	0.5167	DISTRACTOR	2	44	D	Correct Rejection
160.1884	1.0167	ISI	n/a	n/a	n/a	n/a
161.205	0.5167	DISTRACTOR	2	45	G	Correct Rejection
161.7217	1.0167	ISI	n/a	n/a	n/a	n/a
162.7384	0.5167	DISTRACTOR	2	46	I	Correct Rejection
163.2551	1.0167	ISI	n/a	n/a	n/a	n/a
164.2717	0.5167	DISTRACTOR	2	47	H	Correct Rejection
164.7884	1.0167	ISI	n/a	n/a	n/a	n/a
165.8051	0.5167	DISTRACTOR	2	48	G	Correct Rejection
166.3218	1.0167	ISI	n/a	n/a	n/a	n/a
167.3384	0.5167	DISTRACTOR	2	49	D	Correct Rejection
167.8551	1.0167	ISI	n/a	n/a	n/a	n/a
168.8718	0.5167	DISTRACTOR	2	50	I	Correct Rejection
169.3885	1.1	ISI	n/a	n/a	n/a	n/a
187.6445	n/a	RESPONSE	n/a	n/a	n/a	n/a
187.7054	1.0167	ISI	n/a	n/a	n/a	n/a
188.722	0.5167	DISTRACTOR	3	1	C	Correct Rejection
189.2387	1.0167	ISI	n/a	n/a	n/a	n/a
190.2554	0.5167	DISTRACTOR	3	2	C	Correct Rejection
190.7721	1.0167	ISI	n/a	n/a	n/a	n/a
191.7887	0.5167	DISTRACTOR	3	3	G	Correct Rejection
192.3054	1.0167	ISI	n/a	n/a	n/a	n/a
193.3221	0.5167	DISTRACTOR	3	4	I	Correct Rejection
193.8388	1.0167	ISI	n/a	n/a	n/a	n/a
194.8554	0.5167	TARGET	3	5	C	Hit
195.2064	n/a	RESPONSE	n/a	n/a	n/a	n/a
195.3721	1.0167	ISI	n/a	n/a	n/a	n/a
196.3888	0.5167	DISTRACTOR	3	6	D	Correct Rejection
196.9055	1.0167	ISI	n/a	n/a	n/a	n/a
197.9222	0.5167	DISTRACTOR	3	7	G	False Alarm
198.3719	n/a	RESPONSE	n/a	n/a	n/a	n/a
198.4388	1.0167	ISI	n/a	n/a	n/a	n/a
199.4555	0.5167	DISTRACTOR	3	8	I	False Alarm
199.9722	1.0167	ISI	n/a	n/a	n/a	n/a
200.0666	n/a	RESPONSE	n/a	n/a	n/a	n/a
200.9888	0.5167	TARGET	3	9	D	Hit
201.5055	1.0167	ISI	n/a	n/a	n/a	n/a
201.6494	n/a	RESPONSE	n/a	n/a	n/a	n/a
202.5222	0.5167	DISTRACTOR	3	10	A	Correct Rejection
203.0389	1.0167	ISI	n/a	n/a	n/a	n/a
204.0556	0.5167	DISTRACTOR	3	11	G	Correct Rejection
204.5722	1.0167	ISI	n/a	n/a	n/a	n/a
205.5889	0.5167	DISTRACTOR	3	12	C	Correct Rejection
206.1056	1.0167	ISI	n/a	n/a	n/a	n/a
207.1222	0.5167	DISTRACTOR	3	13	F	Correct Rejection
207.6389	1.0167	ISI	n/a	n/a	n/a	n/a
208.6556	0.5167	DISTRACTOR	3	14	E	Correct Rejection
209.1723	1.0167	ISI	n/a	n/a	n/a	n/a
210.189	0.5167	DISTRACTOR	3	15	H	Correct Rejection
210.7056	1.0167	ISI	n/a	n/a	n/a	n/a
211.7223	0.5167	DISTRACTOR	3	16	D	Correct Rejection
212.239	1.0167	ISI	n/a	n/a	n/a	n/a
213.2557	0.5167	DISTRACTOR	3	17	I	False Alarm
213.7723	1.0167	ISI	n/a	n/a	n/a	n/a
213.8158	n/a	RESPONSE	n/a	n/a	n/a	n/a
214.789	0.5167	TARGET	3	18	H	Hit
215.3057	1.0167	ISI	n/a	n/a	n/a	n/a
215.3505	n/a	RESPONSE	n/a	n/a	n/a	n/a
216.3224	0.5167	DISTRACTOR	3	19	H	False Alarm
216.839	1.0167	ISI	n/a	n/a	n/a	n/a
217.4929	n/a	RESPONSE	n/a	n/a	n/a	n/a
217.8557	0.5167	DISTRACTOR	3	20	C	Correct Rejection
218.3724	1.0167	ISI	n/a	n/a	n/a	n/a
219.3891	0.5167	TARGET	3	21	H	Miss
219.9057	1.0167	ISI	n/a	n/a	n/a	n/a
220.9224	0.5167	TARGET	3	22	H	Miss
221.4391	1.0167	ISI	n/a	n/a	n/a	n/a
222.4558	0.5167	DISTRACTOR	3	23	D	Correct Rejection
222.9724	1.0167	ISI	n/a	n/a	n/a	n/a
223.9891	0.5167	DISTRACTOR	3	24	D	False Alarm
224.5058	1.0167	ISI	n/a	n/a	n/a	n/a
224.5433	n/a	RESPONSE	n/a	n/a	n/a	n/a
225.5225	0.5167	TARGET	3	25	H	Hit
226.0391	1.0167	ISI	n/a	n/a	n/a	n/a
226.2539	n/a	RESPONSE	n/a	n/a	n/a	n/a
227.0558	0.5167	DISTRACTOR	3	26	F	Correct Rejection
227.5725	1.0167	ISI	n/a	n/a	n/a	n/a
228.5892	0.5167	DISTRACTOR	3	27	C	Correct Rejection
229.1058	1.0167	ISI	n/a	n/a	n/a	n/a
230.1225	0.5167	DISTRACTOR	3	28	G	Correct Rejection
230.6392	1.0167	ISI	n/a	n/a	n/a	n/a
231.6559	0.5167	DISTRACTOR	3	29	H	Correct Rejection
232.1725	1.0167	ISI	n/a	n/a	n/a	n/a
233.1892	0.5167	DISTRACTOR	3	30	G	Correct Rejection
233.7059	1.0167	ISI	n/a	n/a	n/a	n/a
234.7226	0.5167	TARGET	3	31	G	Hit
235.2229	n/a	RESPONSE	n/a	n/a	n/a	n/a
235.2393	1.0167	ISI	n/a	n/a	n/a	n/a
236.2559	0.5167	DISTRACTOR	3	32	J	Correct Rejection
236.7726	1.0167	ISI	n/a	n/a	n/a	n/a
237.7893	0.5167	DISTRACTOR	3	33	J	Correct Rejection
238.306	1.0167	ISI	n/a	n/a	n/a	n/a
239.3226	0.5167	DISTRACTOR	3	34	I	Correct Rejection
239.8393	1.0167	ISI	n/a	n/a	n/a	n/a
240.856	0.5167	DISTRACTOR	3	35	H	Correct Rejection
241.3727	1.0167	ISI	n/a	n/a	n/a	n/a
242.3893	0.5167	DISTRACTOR	3	36	C	Correct Rejection
242.906	1.0167	ISI	n/a	n/a	n/a	n/a
243.9227	0.5167	DISTRACTOR	3	37	B	Correct Rejection
244.4394	1.0167	ISI	n/a	n/a	n/a	n/a
245.456	0.5167	TARGET	3	38	H	Miss
245.9727	1.0167	ISI	n/a	n/a	n/a	n/a
246.9894	0.5167	DISTRACTOR	3	39	D	Correct Rejection
247.5061	1.0167	ISI	n/a	n/a	n/a	n/a
248.5228	0.5167	DISTRACTOR	3	40	D	Correct Rejection
249.0394	1.0167	ISI	n/a	n/a	n/a	n/a
250.0561	0.5167	TARGET	3	41	H	Hit
250.5728	1.0167	ISI	n/a	n/a	n/a	n/a
250.6666	n/a	RESPONSE	n/a	n/a	n/a	n/a
251.5895	0.5167	DISTRACTOR	3	42	I	Correct Rejection
252.1061	1.0167	ISI	n/a	n/a	n/a	n/a
253.1228	0.5167	DISTRACTOR	3	43	C	False Alarm
253.6395	1.0167	ISI	n/a	n/a	n/a	n/a
253.8162	n/a	RESPONSE	n/a	n/a	n/a	n/a
254.6561	0.5167	DISTRACTOR	3	44	B	False Alarm
255.1728	1.0167	ISI	n/a	n/a	n/a	n/a
255.351	n/a	RESPONSE	n/a	n/a	n/a	n/a
256.1895	0.5167	DISTRACTOR	3	45	H	Correct Rejection
256.7062	1.0167	ISI	n/a	n/a	n/a	n/a
257.7229	0.5167	DISTRACTOR	3	46	G	Correct Rejection
258.2395	1.0167	ISI	n/a	n/a	n/a	n/a
259.2562	0.5167	DISTRACTOR	3	47	F	Correct Rejection
259.7729	1.0167	ISI	n/a	n/a	n/a	n/a
260.7896	0.5167	TARGET	3	48	H	Miss
261.3062	1.0167	ISI	n/a	n/a	n/a	n/a
262.3229	0.5167	DISTRACTOR	3	49	B	Correct Rejection
262.8396	1.0167	ISI	n/a	n/a	n/a	n/a
263.8563	0.5167	DISTRACTOR	3	50	C	Correct Rejection
264.3729	1.0333	ISI	n/a	n/a	n/a	n/a
268.8762	n/a	RESPONSE	n/a	n/a	n/a	n/a
