onset	duration	trial_type	trial_number	stroop_condition	stim_text(PL)	stim_text(eng)	stim_color(PL)	stim_color(eng)	response_type	response_color
0.0	n/a	RESPONSE	n/a	n/a	n/a	n/a	n/a	n/a	n/a	n/a
0.0538	1.0167	ITI	n/a	n/a	n/a	n/a	n/a	n/a	n/a	n/a
1.0705	0.5167	FIXCROSS	n/a	n/a	n/a	n/a	n/a	n/a	n/a	n/a
1.5872	0.9333	T_INK	1	Neutral	xxxxxxxx	xxxxxxxx	żółty	yellow	hit	n/a
2.4954	n/a	RESPONSE	n/a	n/a	n/a	n/a	n/a	n/a	n/a	yellow
2.5205	0.5167	FEEDBACK	n/a	n/a	n/a	n/a	n/a	n/a	n/a	n/a
3.0372	1.0167	ITI	n/a	n/a	n/a	n/a	n/a	n/a	n/a	n/a
4.0539	0.5167	FIXCROSS	n/a	n/a	n/a	n/a	n/a	n/a	n/a	n/a
4.5705	0.7333	T_INK	2	Incongruent	niebieski	blue	czerwony	red	hit	n/a
5.2787	n/a	RESPONSE	n/a	n/a	n/a	n/a	n/a	n/a	n/a	red
5.3039	0.5167	FEEDBACK	n/a	n/a	n/a	n/a	n/a	n/a	n/a	n/a
5.8206	1.0167	ITI	n/a	n/a	n/a	n/a	n/a	n/a	n/a	n/a
6.8372	0.5167	FIXCROSS	n/a	n/a	n/a	n/a	n/a	n/a	n/a	n/a
7.3539	0.8333	T_INK	3	Neutral	xxxxx	xxxxx	niebieski	blue	hit	n/a
8.1581	n/a	RESPONSE	n/a	n/a	n/a	n/a	n/a	n/a	n/a	blue
8.1873	0.5167	FEEDBACK	n/a	n/a	n/a	n/a	n/a	n/a	n/a	n/a
8.7039	1.0167	ITI	n/a	n/a	n/a	n/a	n/a	n/a	n/a	n/a
9.7206	0.5167	FIXCROSS	n/a	n/a	n/a	n/a	n/a	n/a	n/a	n/a
10.2373	0.9333	T_INK	4	Neutral	xxxxx	xxxxx	zielony	green	hit	n/a
11.1493	n/a	RESPONSE	n/a	n/a	n/a	n/a	n/a	n/a	n/a	green
11.1706	0.5167	FEEDBACK	n/a	n/a	n/a	n/a	n/a	n/a	n/a	n/a
11.6873	1.0167	ITI	n/a	n/a	n/a	n/a	n/a	n/a	n/a	n/a
12.704	0.5167	FIXCROSS	n/a	n/a	n/a	n/a	n/a	n/a	n/a	n/a
13.2206	0.5667	T_INK	5	Neutral	xxxxx	xxxxx	czerwony	red	hit	n/a
13.7567	n/a	RESPONSE	n/a	n/a	n/a	n/a	n/a	n/a	n/a	red
13.7873	0.5167	FEEDBACK	n/a	n/a	n/a	n/a	n/a	n/a	n/a	n/a
14.304	1.0167	ITI	n/a	n/a	n/a	n/a	n/a	n/a	n/a	n/a
15.3207	0.5167	FIXCROSS	n/a	n/a	n/a	n/a	n/a	n/a	n/a	n/a
15.8373	0.7167	T_INK	6	Incongruent	zielony	green	żółty	yellow	hit	n/a
16.524	n/a	RESPONSE	n/a	n/a	n/a	n/a	n/a	n/a	n/a	yellow
16.554	0.5167	FEEDBACK	n/a	n/a	n/a	n/a	n/a	n/a	n/a	n/a
17.0707	1.0167	ITI	n/a	n/a	n/a	n/a	n/a	n/a	n/a	n/a
18.0874	0.5167	FIXCROSS	n/a	n/a	n/a	n/a	n/a	n/a	n/a	n/a
18.604	0.8667	T_INK	7	Neutral	xxxxxxxxx	xxxxxxxxx	zielony	green	hit	n/a
19.4353	n/a	RESPONSE	n/a	n/a	n/a	n/a	n/a	n/a	n/a	green
19.4707	0.5167	FEEDBACK	n/a	n/a	n/a	n/a	n/a	n/a	n/a	n/a
19.9874	1.0167	ITI	n/a	n/a	n/a	n/a	n/a	n/a	n/a	n/a
21.0041	0.5167	FIXCROSS	n/a	n/a	n/a	n/a	n/a	n/a	n/a	n/a
21.5208	1.1333	T_INK	8	Incongruent	zielony	green	niebieski	blue	hit	n/a
22.6345	n/a	RESPONSE	n/a	n/a	n/a	n/a	n/a	n/a	n/a	blue
22.6541	0.5167	FEEDBACK	n/a	n/a	n/a	n/a	n/a	n/a	n/a	n/a
23.1708	1.0167	ITI	n/a	n/a	n/a	n/a	n/a	n/a	n/a	n/a
24.1875	0.5167	FIXCROSS	n/a	n/a	n/a	n/a	n/a	n/a	n/a	n/a
24.7041	0.4833	T_INK	9	Neutral	xxxxxxxx	xxxxxxxx	niebieski	blue	hit	n/a
25.1619	n/a	RESPONSE	n/a	n/a	n/a	n/a	n/a	n/a	n/a	blue
25.1875	0.5167	FEEDBACK	n/a	n/a	n/a	n/a	n/a	n/a	n/a	n/a
25.7041	1.0167	ITI	n/a	n/a	n/a	n/a	n/a	n/a	n/a	n/a
26.7208	0.5167	FIXCROSS	n/a	n/a	n/a	n/a	n/a	n/a	n/a	n/a
27.2375	0.7833	T_INK	10	Incongruent	żółty	yellow	czerwony	red	hit	n/a
27.9933	n/a	RESPONSE	n/a	n/a	n/a	n/a	n/a	n/a	n/a	red
28.0208	0.5167	FEEDBACK	n/a	n/a	n/a	n/a	n/a	n/a	n/a	n/a
28.5375	1.0167	ITI	n/a	n/a	n/a	n/a	n/a	n/a	n/a	n/a
29.5542	0.5167	FIXCROSS	n/a	n/a	n/a	n/a	n/a	n/a	n/a	n/a
30.0709	0.5167	T_INK	11	Incongruent	niebieski	blue	zielony	green	hit	n/a
30.5686	n/a	RESPONSE	n/a	n/a	n/a	n/a	n/a	n/a	n/a	green
30.5875	0.5167	FEEDBACK	n/a	n/a	n/a	n/a	n/a	n/a	n/a	n/a
31.1042	1.0167	ITI	n/a	n/a	n/a	n/a	n/a	n/a	n/a	n/a
32.1209	0.5167	FIXCROSS	n/a	n/a	n/a	n/a	n/a	n/a	n/a	n/a
32.6375	0.85	T_INK	12	Neutral	xxxxxxx	xxxxxxx	żółty	yellow	hit	n/a
33.4639	n/a	RESPONSE	n/a	n/a	n/a	n/a	n/a	n/a	n/a	yellow
33.4876	0.5167	FEEDBACK	n/a	n/a	n/a	n/a	n/a	n/a	n/a	n/a
34.0042	1.0333	ITI	n/a	n/a	n/a	n/a	n/a	n/a	n/a	n/a
55.0107	n/a	RESPONSE	n/a	n/a	n/a	n/a	n/a	n/a	n/a	n/a
55.0711	1.0167	ITI	n/a	n/a	n/a	n/a	n/a	n/a	n/a	n/a
56.0878	0.5167	FIXCROSS	n/a	n/a	n/a	n/a	n/a	n/a	n/a	n/a
56.6045	1.0167	INK	1	Neutral	xxxxxxxx	xxxxxxxx	żółty	yellow	hit	n/a
57.6021	n/a	RESPONSE	n/a	n/a	n/a	n/a	n/a	n/a	n/a	yellow
57.6212	1.0167	ITI	n/a	n/a	n/a	n/a	n/a	n/a	n/a	n/a
58.6379	0.5167	FIXCROSS	n/a	n/a	n/a	n/a	n/a	n/a	n/a	n/a
59.1545	0.7333	INK	2	Incongruent	żółty	yellow	czerwony	red	hit	n/a
59.8575	n/a	RESPONSE	n/a	n/a	n/a	n/a	n/a	n/a	n/a	red
59.8879	1.0167	ITI	n/a	n/a	n/a	n/a	n/a	n/a	n/a	n/a
60.9045	0.5167	FIXCROSS	n/a	n/a	n/a	n/a	n/a	n/a	n/a	n/a
61.4212	0.7167	INK	3	Incongruent	czerwony	red	zielony	green	hit	n/a
62.113	n/a	RESPONSE	n/a	n/a	n/a	n/a	n/a	n/a	n/a	green
62.1379	1.0167	ITI	n/a	n/a	n/a	n/a	n/a	n/a	n/a	n/a
63.1546	0.5167	FIXCROSS	n/a	n/a	n/a	n/a	n/a	n/a	n/a	n/a
63.6712	0.7	INK	4	Neutral	xxxxxxxx	xxxxxxxx	żółty	yellow	hit	n/a
64.3364	n/a	RESPONSE	n/a	n/a	n/a	n/a	n/a	n/a	n/a	yellow
64.3713	1.0167	ITI	n/a	n/a	n/a	n/a	n/a	n/a	n/a	n/a
65.3879	0.5167	FIXCROSS	n/a	n/a	n/a	n/a	n/a	n/a	n/a	n/a
65.9046	0.7667	INK	5	Incongruent	zielony	green	czerwony	red	hit	n/a
66.6399	n/a	RESPONSE	n/a	n/a	n/a	n/a	n/a	n/a	n/a	red
66.6713	1.0167	ITI	n/a	n/a	n/a	n/a	n/a	n/a	n/a	n/a
67.688	0.5167	FIXCROSS	n/a	n/a	n/a	n/a	n/a	n/a	n/a	n/a
68.2046	0.7	INK	6	Neutral	xxxxx	xxxxx	zielony	green	hit	n/a
68.8793	n/a	RESPONSE	n/a	n/a	n/a	n/a	n/a	n/a	n/a	green
68.9046	1.0167	ITI	n/a	n/a	n/a	n/a	n/a	n/a	n/a	n/a
69.9213	0.5167	FIXCROSS	n/a	n/a	n/a	n/a	n/a	n/a	n/a	n/a
70.438	0.55	INK	7	Neutral	xxxxxxxxx	xxxxxxxxx	czerwony	red	hit	n/a
70.9588	n/a	RESPONSE	n/a	n/a	n/a	n/a	n/a	n/a	n/a	red
70.988	1.0167	ITI	n/a	n/a	n/a	n/a	n/a	n/a	n/a	n/a
72.0047	0.5167	FIXCROSS	n/a	n/a	n/a	n/a	n/a	n/a	n/a	n/a
72.5214	0.45	INK	8	Neutral	xxxxxxx	xxxxxxx	żółty	yellow	hit	n/a
72.9423	n/a	RESPONSE	n/a	n/a	n/a	n/a	n/a	n/a	n/a	yellow
72.9714	1.0167	ITI	n/a	n/a	n/a	n/a	n/a	n/a	n/a	n/a
73.988	0.5167	FIXCROSS	n/a	n/a	n/a	n/a	n/a	n/a	n/a	n/a
74.5047	0.5333	INK	9	Neutral	xxxxx	xxxxx	czerwony	red	hit	n/a
75.0059	n/a	RESPONSE	n/a	n/a	n/a	n/a	n/a	n/a	n/a	red
75.038	1.0167	ITI	n/a	n/a	n/a	n/a	n/a	n/a	n/a	n/a
76.0547	0.5167	FIXCROSS	n/a	n/a	n/a	n/a	n/a	n/a	n/a	n/a
76.5714	0.4834	INK	10	Neutral	xxxxx	xxxxx	czerwony	red	hit	n/a
77.0374	n/a	RESPONSE	n/a	n/a	n/a	n/a	n/a	n/a	n/a	red
77.0547	1.0167	ITI	n/a	n/a	n/a	n/a	n/a	n/a	n/a	n/a
78.0714	0.5167	FIXCROSS	n/a	n/a	n/a	n/a	n/a	n/a	n/a	n/a
78.5881	0.5667	INK	11	Neutral	xxxxxxxxx	xxxxxxxxx	zielony	green	hit	n/a
79.1328	n/a	RESPONSE	n/a	n/a	n/a	n/a	n/a	n/a	n/a	green
79.1548	1.0167	ITI	n/a	n/a	n/a	n/a	n/a	n/a	n/a	n/a
80.1714	0.5167	FIXCROSS	n/a	n/a	n/a	n/a	n/a	n/a	n/a	n/a
80.6881	0.6833	INK	12	Neutral	xxxxxxxx	xxxxxxxx	niebieski	blue	hit	n/a
81.3403	n/a	RESPONSE	n/a	n/a	n/a	n/a	n/a	n/a	n/a	blue
81.3715	1.0167	ITI	n/a	n/a	n/a	n/a	n/a	n/a	n/a	n/a
82.3881	0.5167	FIXCROSS	n/a	n/a	n/a	n/a	n/a	n/a	n/a	n/a
82.9048	1.15	INK	13	Incongruent	zielony	green	żółty	yellow	hit	n/a
84.0277	n/a	RESPONSE	n/a	n/a	n/a	n/a	n/a	n/a	n/a	yellow
84.0548	1.0167	ITI	n/a	n/a	n/a	n/a	n/a	n/a	n/a	n/a
85.0715	0.5167	FIXCROSS	n/a	n/a	n/a	n/a	n/a	n/a	n/a	n/a
85.5882	0.5167	INK	14	Neutral	xxxxxxxx	xxxxxxxx	zielony	green	hit	n/a
86.0752	n/a	RESPONSE	n/a	n/a	n/a	n/a	n/a	n/a	n/a	green
86.1048	1.0167	ITI	n/a	n/a	n/a	n/a	n/a	n/a	n/a	n/a
87.1215	0.5167	FIXCROSS	n/a	n/a	n/a	n/a	n/a	n/a	n/a	n/a
87.6382	0.8333	INK	15	Incongruent	niebieski	blue	zielony	green	hit	n/a
88.4426	n/a	RESPONSE	n/a	n/a	n/a	n/a	n/a	n/a	n/a	green
88.4715	1.0167	ITI	n/a	n/a	n/a	n/a	n/a	n/a	n/a	n/a
89.4882	0.5167	FIXCROSS	n/a	n/a	n/a	n/a	n/a	n/a	n/a	n/a
90.0049	0.8167	INK	16	Incongruent	zielony	green	niebieski	blue	hit	n/a
90.7941	n/a	RESPONSE	n/a	n/a	n/a	n/a	n/a	n/a	n/a	blue
90.8216	1.0167	ITI	n/a	n/a	n/a	n/a	n/a	n/a	n/a	n/a
91.8382	0.5167	FIXCROSS	n/a	n/a	n/a	n/a	n/a	n/a	n/a	n/a
92.3549	0.8333	INK	17	Neutral	xxxxxxxxx	xxxxxxxxx	zielony	green	hit	n/a
93.1615	n/a	RESPONSE	n/a	n/a	n/a	n/a	n/a	n/a	n/a	green
93.1883	1.0167	ITI	n/a	n/a	n/a	n/a	n/a	n/a	n/a	n/a
94.2049	0.5167	FIXCROSS	n/a	n/a	n/a	n/a	n/a	n/a	n/a	n/a
94.7216	0.6667	INK	18	Incongruent	żółty	yellow	niebieski	blue	hit	n/a
95.3689	n/a	RESPONSE	n/a	n/a	n/a	n/a	n/a	n/a	n/a	blue
95.3883	1.0167	ITI	n/a	n/a	n/a	n/a	n/a	n/a	n/a	n/a
96.405	0.5167	FIXCROSS	n/a	n/a	n/a	n/a	n/a	n/a	n/a	n/a
96.9216	0.8667	INK	19	Incongruent	niebieski	blue	zielony	green	hit	n/a
97.7524	n/a	RESPONSE	n/a	n/a	n/a	n/a	n/a	n/a	n/a	green
97.7883	1.0167	ITI	n/a	n/a	n/a	n/a	n/a	n/a	n/a	n/a
98.805	0.5167	FIXCROSS	n/a	n/a	n/a	n/a	n/a	n/a	n/a	n/a
99.3217	0.6	INK	20	Incongruent	niebieski	blue	czerwony	red	hit	n/a
99.8958	n/a	RESPONSE	n/a	n/a	n/a	n/a	n/a	n/a	n/a	red
99.9217	1.0167	ITI	n/a	n/a	n/a	n/a	n/a	n/a	n/a	n/a
100.9384	0.5167	FIXCROSS	n/a	n/a	n/a	n/a	n/a	n/a	n/a	n/a
101.455	0.5667	INK	21	Neutral	xxxxxxxxx	xxxxxxxxx	czerwony	red	hit	n/a
101.9914	n/a	RESPONSE	n/a	n/a	n/a	n/a	n/a	n/a	n/a	red
102.0217	1.0167	ITI	n/a	n/a	n/a	n/a	n/a	n/a	n/a	n/a
103.0384	0.5167	FIXCROSS	n/a	n/a	n/a	n/a	n/a	n/a	n/a	n/a
103.5551	0.5833	INK	22	Neutral	xxxxx	xxxxx	czerwony	red	hit	n/a
104.1188	n/a	RESPONSE	n/a	n/a	n/a	n/a	n/a	n/a	n/a	red
104.1384	1.0167	ITI	n/a	n/a	n/a	n/a	n/a	n/a	n/a	n/a
105.1551	0.5167	FIXCROSS	n/a	n/a	n/a	n/a	n/a	n/a	n/a	n/a
105.6717	0.7	INK	23	Incongruent	żółty	yellow	niebieski	blue	hit	n/a
106.3423	n/a	RESPONSE	n/a	n/a	n/a	n/a	n/a	n/a	n/a	blue
106.3718	1.0167	ITI	n/a	n/a	n/a	n/a	n/a	n/a	n/a	n/a
107.3884	0.5167	FIXCROSS	n/a	n/a	n/a	n/a	n/a	n/a	n/a	n/a
107.9051	0.65	INK	24	Incongruent	żółty	yellow	zielony	green	hit	n/a
108.5338	n/a	RESPONSE	n/a	n/a	n/a	n/a	n/a	n/a	n/a	green
108.5551	1.0167	ITI	n/a	n/a	n/a	n/a	n/a	n/a	n/a	n/a
109.5718	0.5167	FIXCROSS	n/a	n/a	n/a	n/a	n/a	n/a	n/a	n/a
110.0885	0.7833	INK	25	Neutral	xxxxxxxx	xxxxxxxx	zielony	green	hit	n/a
110.8532	n/a	RESPONSE	n/a	n/a	n/a	n/a	n/a	n/a	n/a	green
110.8718	1.0167	ITI	n/a	n/a	n/a	n/a	n/a	n/a	n/a	n/a
111.8885	0.5167	FIXCROSS	n/a	n/a	n/a	n/a	n/a	n/a	n/a	n/a
112.4052	0.7167	INK	26	Neutral	xxxxxxxxx	xxxxxxxxx	żółty	yellow	hit	n/a
113.0927	n/a	RESPONSE	n/a	n/a	n/a	n/a	n/a	n/a	n/a	yellow
113.1218	1.0167	ITI	n/a	n/a	n/a	n/a	n/a	n/a	n/a	n/a
114.1385	0.5167	FIXCROSS	n/a	n/a	n/a	n/a	n/a	n/a	n/a	n/a
114.6552	0.6	INK	27	Incongruent	żółty	yellow	niebieski	blue	hit	n/a
115.2361	n/a	RESPONSE	n/a	n/a	n/a	n/a	n/a	n/a	n/a	blue
115.2552	1.0167	ITI	n/a	n/a	n/a	n/a	n/a	n/a	n/a	n/a
116.2719	0.5167	FIXCROSS	n/a	n/a	n/a	n/a	n/a	n/a	n/a	n/a
116.7885	0.7167	INK	28	Neutral	xxxxxxxxx	xxxxxxxxx	zielony	green	hit	n/a
117.4756	n/a	RESPONSE	n/a	n/a	n/a	n/a	n/a	n/a	n/a	green
117.5052	1.0167	ITI	n/a	n/a	n/a	n/a	n/a	n/a	n/a	n/a
118.5219	0.5167	FIXCROSS	n/a	n/a	n/a	n/a	n/a	n/a	n/a	n/a
119.0386	0.5833	INK	29	Incongruent	niebieski	blue	czerwony	red	hit	n/a
119.6031	n/a	RESPONSE	n/a	n/a	n/a	n/a	n/a	n/a	n/a	red
119.6219	1.0167	ITI	n/a	n/a	n/a	n/a	n/a	n/a	n/a	n/a
120.6386	0.5167	FIXCROSS	n/a	n/a	n/a	n/a	n/a	n/a	n/a	n/a
121.1553	0.8834	INK	30	Incongruent	niebieski	blue	żółty	yellow	hit	n/a
122.0185	n/a	RESPONSE	n/a	n/a	n/a	n/a	n/a	n/a	n/a	yellow
122.0386	1.0167	ITI	n/a	n/a	n/a	n/a	n/a	n/a	n/a	n/a
123.0553	0.5167	FIXCROSS	n/a	n/a	n/a	n/a	n/a	n/a	n/a	n/a
123.572	0.4833	INK	31	Neutral	xxxxxxxxx	xxxxxxxxx	czerwony	red	hit	n/a
124.034	n/a	RESPONSE	n/a	n/a	n/a	n/a	n/a	n/a	n/a	red
124.0553	1.0167	ITI	n/a	n/a	n/a	n/a	n/a	n/a	n/a	n/a
125.072	0.5166	FIXCROSS	n/a	n/a	n/a	n/a	n/a	n/a	n/a	n/a
125.5886	0.6501	INK	32	Incongruent	zielony	green	niebieski	blue	hit	n/a
126.2095	n/a	RESPONSE	n/a	n/a	n/a	n/a	n/a	n/a	n/a	blue
126.2386	1.0167	ITI	n/a	n/a	n/a	n/a	n/a	n/a	n/a	n/a
127.2553	0.5167	FIXCROSS	n/a	n/a	n/a	n/a	n/a	n/a	n/a	n/a
127.772	0.8167	INK	33	Neutral	xxxxxxx	xxxxxxx	żółty	yellow	hit	n/a
128.5609	n/a	RESPONSE	n/a	n/a	n/a	n/a	n/a	n/a	n/a	yellow
128.5887	1.0167	ITI	n/a	n/a	n/a	n/a	n/a	n/a	n/a	n/a
129.6054	0.5167	FIXCROSS	n/a	n/a	n/a	n/a	n/a	n/a	n/a	n/a
130.122	0.6333	INK	34	Neutral	xxxxxxx	xxxxxxx	niebieski	blue	hit	n/a
130.7364	n/a	RESPONSE	n/a	n/a	n/a	n/a	n/a	n/a	n/a	blue
130.7554	1.0167	ITI	n/a	n/a	n/a	n/a	n/a	n/a	n/a	n/a
131.7721	0.5167	FIXCROSS	n/a	n/a	n/a	n/a	n/a	n/a	n/a	n/a
132.2887	0.6	INK	35	Incongruent	czerwony	red	zielony	green	hit	n/a
132.8639	n/a	RESPONSE	n/a	n/a	n/a	n/a	n/a	n/a	n/a	green
132.8887	1.0167	ITI	n/a	n/a	n/a	n/a	n/a	n/a	n/a	n/a
133.9054	0.5167	FIXCROSS	n/a	n/a	n/a	n/a	n/a	n/a	n/a	n/a
134.4221	0.5667	INK	36	Incongruent	zielony	green	czerwony	red	hit	n/a
134.9594	n/a	RESPONSE	n/a	n/a	n/a	n/a	n/a	n/a	n/a	red
134.9888	1.0167	ITI	n/a	n/a	n/a	n/a	n/a	n/a	n/a	n/a
136.0054	0.5167	FIXCROSS	n/a	n/a	n/a	n/a	n/a	n/a	n/a	n/a
136.5221	0.6	INK	37	Incongruent	czerwony	red	zielony	green	hit	n/a
137.1029	n/a	RESPONSE	n/a	n/a	n/a	n/a	n/a	n/a	n/a	green
137.1221	1.0167	ITI	n/a	n/a	n/a	n/a	n/a	n/a	n/a	n/a
138.1388	0.5167	FIXCROSS	n/a	n/a	n/a	n/a	n/a	n/a	n/a	n/a
138.6555	0.5667	INK	38	Incongruent	żółty	yellow	czerwony	red	hit	n/a
139.1984	n/a	RESPONSE	n/a	n/a	n/a	n/a	n/a	n/a	n/a	red
139.2221	1.0166	ITI	n/a	n/a	n/a	n/a	n/a	n/a	n/a	n/a
140.2387	0.5167	FIXCROSS	n/a	n/a	n/a	n/a	n/a	n/a	n/a	n/a
140.7555	0.8834	INK	39	Incongruent	niebieski	blue	zielony	green	hit	n/a
141.6138	n/a	RESPONSE	n/a	n/a	n/a	n/a	n/a	n/a	n/a	green
141.6388	1.0167	ITI	n/a	n/a	n/a	n/a	n/a	n/a	n/a	n/a
142.6555	0.5167	FIXCROSS	n/a	n/a	n/a	n/a	n/a	n/a	n/a	n/a
143.1722	0.6667	INK	40	Neutral	xxxxxxxxx	xxxxxxxxx	żółty	yellow	hit	n/a
143.8052	n/a	RESPONSE	n/a	n/a	n/a	n/a	n/a	n/a	n/a	yellow
143.8389	1.0167	ITI	n/a	n/a	n/a	n/a	n/a	n/a	n/a	n/a
144.8555	0.5167	FIXCROSS	n/a	n/a	n/a	n/a	n/a	n/a	n/a	n/a
145.3722	0.65	INK	41	Incongruent	żółty	yellow	czerwony	red	hit	n/a
145.9967	n/a	RESPONSE	n/a	n/a	n/a	n/a	n/a	n/a	n/a	red
146.0222	1.0167	ITI	n/a	n/a	n/a	n/a	n/a	n/a	n/a	n/a
147.0389	0.5167	FIXCROSS	n/a	n/a	n/a	n/a	n/a	n/a	n/a	n/a
147.5556	0.8833	INK	42	Incongruent	niebieski	blue	żółty	yellow	hit	n/a
148.4121	n/a	RESPONSE	n/a	n/a	n/a	n/a	n/a	n/a	n/a	yellow
148.4389	1.0167	ITI	n/a	n/a	n/a	n/a	n/a	n/a	n/a	n/a
149.4556	0.5167	FIXCROSS	n/a	n/a	n/a	n/a	n/a	n/a	n/a	n/a
149.9723	0.7	INK	43	Incongruent	niebieski	blue	czerwony	red	hit	n/a
150.6516	n/a	RESPONSE	n/a	n/a	n/a	n/a	n/a	n/a	n/a	red
150.6723	1.0167	ITI	n/a	n/a	n/a	n/a	n/a	n/a	n/a	n/a
151.6889	0.5167	FIXCROSS	n/a	n/a	n/a	n/a	n/a	n/a	n/a	n/a
152.2056	0.6167	INK	44	Incongruent	zielony	green	żółty	yellow	hit	n/a
152.7951	n/a	RESPONSE	n/a	n/a	n/a	n/a	n/a	n/a	n/a	yellow
152.8223	1.0167	ITI	n/a	n/a	n/a	n/a	n/a	n/a	n/a	n/a
153.839	0.5167	FIXCROSS	n/a	n/a	n/a	n/a	n/a	n/a	n/a	n/a
154.3556	0.6167	INK	45	Neutral	xxxxx	xxxxx	niebieski	blue	hit	n/a
154.9385	n/a	RESPONSE	n/a	n/a	n/a	n/a	n/a	n/a	n/a	blue
154.9723	1.0167	ITI	n/a	n/a	n/a	n/a	n/a	n/a	n/a	n/a
155.989	0.5167	FIXCROSS	n/a	n/a	n/a	n/a	n/a	n/a	n/a	n/a
156.5057	0.5333	INK	46	Neutral	xxxxxxx	xxxxxxx	czerwony	red	hit	n/a
157.018	n/a	RESPONSE	n/a	n/a	n/a	n/a	n/a	n/a	n/a	red
157.039	1.0167	ITI	n/a	n/a	n/a	n/a	n/a	n/a	n/a	n/a
158.0557	0.5167	FIXCROSS	n/a	n/a	n/a	n/a	n/a	n/a	n/a	n/a
158.5724	0.7167	INK	47	Neutral	xxxxx	xxxxx	niebieski	blue	hit	n/a
159.2575	n/a	RESPONSE	n/a	n/a	n/a	n/a	n/a	n/a	n/a	blue
159.289	1.0167	ITI	n/a	n/a	n/a	n/a	n/a	n/a	n/a	n/a
160.3057	0.5167	FIXCROSS	n/a	n/a	n/a	n/a	n/a	n/a	n/a	n/a
160.8224	0.6833	INK	48	Neutral	xxxxx	xxxxx	zielony	green	hit	n/a
161.481	n/a	RESPONSE	n/a	n/a	n/a	n/a	n/a	n/a	n/a	green
161.5057	1.0167	ITI	n/a	n/a	n/a	n/a	n/a	n/a	n/a	n/a
162.5224	0.5167	FIXCROSS	n/a	n/a	n/a	n/a	n/a	n/a	n/a	n/a
163.0391	0.8833	INK	49	Incongruent	czerwony	red	niebieski	blue	hit	n/a
163.8964	n/a	RESPONSE	n/a	n/a	n/a	n/a	n/a	n/a	n/a	blue
163.9224	1.0167	ITI	n/a	n/a	n/a	n/a	n/a	n/a	n/a	n/a
164.9391	0.5167	FIXCROSS	n/a	n/a	n/a	n/a	n/a	n/a	n/a	n/a
165.4558	0.5	INK	50	Incongruent	zielony	green	niebieski	blue	hit	n/a
165.9279	n/a	RESPONSE	n/a	n/a	n/a	n/a	n/a	n/a	n/a	blue
165.9558	1.0167	ITI	n/a	n/a	n/a	n/a	n/a	n/a	n/a	n/a
166.9725	0.5167	FIXCROSS	n/a	n/a	n/a	n/a	n/a	n/a	n/a	n/a
167.4891	0.6667	INK	51	Incongruent	czerwony	red	żółty	yellow	hit	n/a
168.1353	n/a	RESPONSE	n/a	n/a	n/a	n/a	n/a	n/a	n/a	yellow
168.1558	1.0167	ITI	n/a	n/a	n/a	n/a	n/a	n/a	n/a	n/a
169.1725	0.5167	FIXCROSS	n/a	n/a	n/a	n/a	n/a	n/a	n/a	n/a
169.6892	0.6	INK	52	Neutral	xxxxxxxx	xxxxxxxx	zielony	green	hit	n/a
170.2628	n/a	RESPONSE	n/a	n/a	n/a	n/a	n/a	n/a	n/a	green
170.2892	1.0167	ITI	n/a	n/a	n/a	n/a	n/a	n/a	n/a	n/a
171.3059	0.5167	FIXCROSS	n/a	n/a	n/a	n/a	n/a	n/a	n/a	n/a
171.8225	0.55	INK	53	Neutral	xxxxxxx	xxxxxxx	czerwony	red	hit	n/a
172.3423	n/a	RESPONSE	n/a	n/a	n/a	n/a	n/a	n/a	n/a	red
172.3725	1.0167	ITI	n/a	n/a	n/a	n/a	n/a	n/a	n/a	n/a
173.3892	0.5167	FIXCROSS	n/a	n/a	n/a	n/a	n/a	n/a	n/a	n/a
173.9059	0.8333	INK	54	Incongruent	zielony	green	żółty	yellow	hit	n/a
174.7097	n/a	RESPONSE	n/a	n/a	n/a	n/a	n/a	n/a	n/a	yellow
174.7392	1.0167	ITI	n/a	n/a	n/a	n/a	n/a	n/a	n/a	n/a
175.7559	0.5167	FIXCROSS	n/a	n/a	n/a	n/a	n/a	n/a	n/a	n/a
176.2726	0.7833	INK	55	Neutral	xxxxxxxx	xxxxxxxx	niebieski	blue	hit	n/a
177.0293	n/a	RESPONSE	n/a	n/a	n/a	n/a	n/a	n/a	n/a	blue
177.0559	1.0167	ITI	n/a	n/a	n/a	n/a	n/a	n/a	n/a	n/a
178.0726	0.5167	FIXCROSS	n/a	n/a	n/a	n/a	n/a	n/a	n/a	n/a
178.5893	0.45	INK	56	Neutral	xxxxxxxx	xxxxxxxx	niebieski	blue	hit	n/a
179.0127	n/a	RESPONSE	n/a	n/a	n/a	n/a	n/a	n/a	n/a	blue
179.0393	1.0167	ITI	n/a	n/a	n/a	n/a	n/a	n/a	n/a	n/a
180.0559	0.5167	FIXCROSS	n/a	n/a	n/a	n/a	n/a	n/a	n/a	n/a
180.5726	0.8	INK	57	Incongruent	żółty	yellow	zielony	green	hit	n/a
181.3481	n/a	RESPONSE	n/a	n/a	n/a	n/a	n/a	n/a	n/a	green
181.3726	1.0167	ITI	n/a	n/a	n/a	n/a	n/a	n/a	n/a	n/a
182.3893	0.5167	FIXCROSS	n/a	n/a	n/a	n/a	n/a	n/a	n/a	n/a
182.906	0.7	INK	58	Incongruent	zielony	green	czerwony	red	hit	n/a
183.5876	n/a	RESPONSE	n/a	n/a	n/a	n/a	n/a	n/a	n/a	red
183.606	1.0167	ITI	n/a	n/a	n/a	n/a	n/a	n/a	n/a	n/a
184.6227	0.5167	FIXCROSS	n/a	n/a	n/a	n/a	n/a	n/a	n/a	n/a
185.1393	0.8833	INK	59	Incongruent	czerwony	red	żółty	yellow	hit	n/a
186.003	n/a	RESPONSE	n/a	n/a	n/a	n/a	n/a	n/a	n/a	yellow
186.0227	1.0167	ITI	n/a	n/a	n/a	n/a	n/a	n/a	n/a	n/a
187.0394	0.5167	FIXCROSS	n/a	n/a	n/a	n/a	n/a	n/a	n/a	n/a
187.556	0.5333	INK	60	Incongruent	czerwony	red	niebieski	blue	hit	n/a
188.0665	n/a	RESPONSE	n/a	n/a	n/a	n/a	n/a	n/a	n/a	blue
188.0894	1.0167	ITI	n/a	n/a	n/a	n/a	n/a	n/a	n/a	n/a
189.1061	0.5167	FIXCROSS	n/a	n/a	n/a	n/a	n/a	n/a	n/a	n/a
189.6227	0.6	INK	61	Incongruent	żółty	yellow	zielony	green	hit	n/a
190.194	n/a	RESPONSE	n/a	n/a	n/a	n/a	n/a	n/a	n/a	green
190.2227	1.0167	ITI	n/a	n/a	n/a	n/a	n/a	n/a	n/a	n/a
191.2394	0.5167	FIXCROSS	n/a	n/a	n/a	n/a	n/a	n/a	n/a	n/a
191.7561	0.6667	INK	62	Neutral	xxxxxxx	xxxxxxx	niebieski	blue	hit	n/a
192.3828	n/a	RESPONSE	n/a	n/a	n/a	n/a	n/a	n/a	n/a	blue
192.4228	1.0167	ITI	n/a	n/a	n/a	n/a	n/a	n/a	n/a	n/a
193.4394	0.5167	FIXCROSS	n/a	n/a	n/a	n/a	n/a	n/a	n/a	n/a
193.9561	0.4333	INK	63	Neutral	xxxxxxx	xxxxxxx	niebieski	blue	hit	n/a
194.369	n/a	RESPONSE	n/a	n/a	n/a	n/a	n/a	n/a	n/a	blue
194.3895	1.0167	ITI	n/a	n/a	n/a	n/a	n/a	n/a	n/a	n/a
195.4061	0.5167	FIXCROSS	n/a	n/a	n/a	n/a	n/a	n/a	n/a	n/a
195.9228	0.5833	INK	64	Incongruent	czerwony	red	niebieski	blue	hit	n/a
196.4804	n/a	RESPONSE	n/a	n/a	n/a	n/a	n/a	n/a	n/a	blue
196.5061	1.0167	ITI	n/a	n/a	n/a	n/a	n/a	n/a	n/a	n/a
197.5228	0.5167	FIXCROSS	n/a	n/a	n/a	n/a	n/a	n/a	n/a	n/a
198.0395	0.5667	INK	65	Neutral	xxxxxxxx	xxxxxxxx	żółty	yellow	hit	n/a
198.576	n/a	RESPONSE	n/a	n/a	n/a	n/a	n/a	n/a	n/a	yellow
198.6062	1.0167	ITI	n/a	n/a	n/a	n/a	n/a	n/a	n/a	n/a
199.6228	0.5167	FIXCROSS	n/a	n/a	n/a	n/a	n/a	n/a	n/a	n/a
200.1395	0.5	INK	66	Incongruent	niebieski	blue	żółty	yellow	hit	n/a
200.6075	n/a	RESPONSE	n/a	n/a	n/a	n/a	n/a	n/a	n/a	yellow
200.6395	1.0167	ITI	n/a	n/a	n/a	n/a	n/a	n/a	n/a	n/a
201.6562	0.5167	FIXCROSS	n/a	n/a	n/a	n/a	n/a	n/a	n/a	n/a
202.1729	0.4667	INK	67	Neutral	xxxxxxxxx	xxxxxxxxx	żółty	yellow	hit	n/a
202.6071	n/a	RESPONSE	n/a	n/a	n/a	n/a	n/a	n/a	n/a	yellow
202.6395	1.0167	ITI	n/a	n/a	n/a	n/a	n/a	n/a	n/a	n/a
203.6562	0.5167	FIXCROSS	n/a	n/a	n/a	n/a	n/a	n/a	n/a	n/a
204.1729	0.6	INK	68	Neutral	xxxxxxx	xxxxxxx	żółty	yellow	hit	n/a
204.7505	n/a	RESPONSE	n/a	n/a	n/a	n/a	n/a	n/a	n/a	yellow
204.7729	1.0167	ITI	n/a	n/a	n/a	n/a	n/a	n/a	n/a	n/a
205.7896	0.5167	FIXCROSS	n/a	n/a	n/a	n/a	n/a	n/a	n/a	n/a
206.3063	0.9167	INK	69	Neutral	xxxxx	xxxxx	zielony	green	hit	n/a
207.1979	n/a	RESPONSE	n/a	n/a	n/a	n/a	n/a	n/a	n/a	green
207.2229	1.0167	ITI	n/a	n/a	n/a	n/a	n/a	n/a	n/a	n/a
208.2396	0.5167	FIXCROSS	n/a	n/a	n/a	n/a	n/a	n/a	n/a	n/a
208.7563	0.6167	INK	70	Neutral	xxxxx	xxxxx	niebieski	blue	hit	n/a
209.3414	n/a	RESPONSE	n/a	n/a	n/a	n/a	n/a	n/a	n/a	blue
209.373	1.0167	ITI	n/a	n/a	n/a	n/a	n/a	n/a	n/a	n/a
210.3896	0.5167	FIXCROSS	n/a	n/a	n/a	n/a	n/a	n/a	n/a	n/a
210.9063	0.8333	INK	71	Neutral	xxxxxxx	xxxxxxx	czerwony	red	hit	n/a
211.7088	n/a	RESPONSE	n/a	n/a	n/a	n/a	n/a	n/a	n/a	red
211.7397	1.0167	ITI	n/a	n/a	n/a	n/a	n/a	n/a	n/a	n/a
212.7563	0.5167	FIXCROSS	n/a	n/a	n/a	n/a	n/a	n/a	n/a	n/a
213.273	0.8167	INK	72	Incongruent	czerwony	red	żółty	yellow	hit	n/a
214.0602	n/a	RESPONSE	n/a	n/a	n/a	n/a	n/a	n/a	n/a	yellow
214.0897	1.0833	ITI	n/a	n/a	n/a	n/a	n/a	n/a	n/a	n/a
230.0563	n/a	RESPONSE	n/a	n/a	n/a	n/a	n/a	n/a	n/a	n/a
230.1232	1.0167	ITI	n/a	n/a	n/a	n/a	n/a	n/a	n/a	n/a
231.1399	0.5167	FIXCROSS	n/a	n/a	n/a	n/a	n/a	n/a	n/a	n/a
231.6566	0.6833	T_COLOR_NAME	1	Neutral	żółty	yellow	Neutral	Neutral	hit	n/a
232.3118	n/a	RESPONSE	n/a	n/a	n/a	n/a	n/a	n/a	n/a	yellow
232.3399	0.5167	FEEDBACK	n/a	n/a	n/a	n/a	n/a	n/a	n/a	n/a
232.8566	1.0167	ITI	n/a	n/a	n/a	n/a	n/a	n/a	n/a	n/a
233.8732	0.5167	FIXCROSS	n/a	n/a	n/a	n/a	n/a	n/a	n/a	n/a
234.3899	0.6667	T_COLOR_NAME	2	Neutral	czerwony	red	Neutral	Neutral	hit	n/a
235.0311	n/a	RESPONSE	n/a	n/a	n/a	n/a	n/a	n/a	n/a	red
235.0566	0.5167	FEEDBACK	n/a	n/a	n/a	n/a	n/a	n/a	n/a	n/a
235.5733	1.0167	ITI	n/a	n/a	n/a	n/a	n/a	n/a	n/a	n/a
236.5899	0.5167	FIXCROSS	n/a	n/a	n/a	n/a	n/a	n/a	n/a	n/a
237.1066	0.9	T_COLOR_NAME	3	Neutral	niebieski	blue	Neutral	Neutral	hit	n/a
237.9744	n/a	RESPONSE	n/a	n/a	n/a	n/a	n/a	n/a	n/a	blue
238.0066	0.5167	FEEDBACK	n/a	n/a	n/a	n/a	n/a	n/a	n/a	n/a
238.5233	1.0167	ITI	n/a	n/a	n/a	n/a	n/a	n/a	n/a	n/a
239.54	0.5167	FIXCROSS	n/a	n/a	n/a	n/a	n/a	n/a	n/a	n/a
240.0567	1.2	T_COLOR_NAME	4	Incongruent	żółty	yellow	czerwony	red	hit	n/a
241.2217	n/a	RESPONSE	n/a	n/a	n/a	n/a	n/a	n/a	n/a	yellow
241.2567	0.5167	FEEDBACK	n/a	n/a	n/a	n/a	n/a	n/a	n/a	n/a
241.7733	1.0167	ITI	n/a	n/a	n/a	n/a	n/a	n/a	n/a	n/a
242.79	0.5167	FIXCROSS	n/a	n/a	n/a	n/a	n/a	n/a	n/a	n/a
243.3067	0.95	T_COLOR_NAME	5	Neutral	zielony	green	Neutral	Neutral	hit	n/a
244.2289	n/a	RESPONSE	n/a	n/a	n/a	n/a	n/a	n/a	n/a	green
244.2567	0.5167	FEEDBACK	n/a	n/a	n/a	n/a	n/a	n/a	n/a	n/a
244.7734	1.0167	ITI	n/a	n/a	n/a	n/a	n/a	n/a	n/a	n/a
245.7901	0.5167	FIXCROSS	n/a	n/a	n/a	n/a	n/a	n/a	n/a	n/a
246.3067	1.05	T_COLOR_NAME	6	Incongruent	zielony	green	niebieski	blue	hit	n/a
247.3322	n/a	RESPONSE	n/a	n/a	n/a	n/a	n/a	n/a	n/a	green
247.3567	0.5167	FEEDBACK	n/a	n/a	n/a	n/a	n/a	n/a	n/a	n/a
247.8734	1.0167	ITI	n/a	n/a	n/a	n/a	n/a	n/a	n/a	n/a
248.8901	0.5167	FIXCROSS	n/a	n/a	n/a	n/a	n/a	n/a	n/a	n/a
249.4068	0.6667	T_COLOR_NAME	7	Neutral	żółty	yellow	Neutral	Neutral	hit	n/a
250.0515	n/a	RESPONSE	n/a	n/a	n/a	n/a	n/a	n/a	n/a	yellow
250.0734	0.5167	FEEDBACK	n/a	n/a	n/a	n/a	n/a	n/a	n/a	n/a
250.5901	1.0167	ITI	n/a	n/a	n/a	n/a	n/a	n/a	n/a	n/a
251.6068	0.5167	FIXCROSS	n/a	n/a	n/a	n/a	n/a	n/a	n/a	n/a
252.1235	0.9833	T_COLOR_NAME	8	Incongruent	niebieski	blue	zielony	green	hit	n/a
253.0748	n/a	RESPONSE	n/a	n/a	n/a	n/a	n/a	n/a	n/a	blue
253.1068	0.5167	FEEDBACK	n/a	n/a	n/a	n/a	n/a	n/a	n/a	n/a
253.6235	1.0167	ITI	n/a	n/a	n/a	n/a	n/a	n/a	n/a	n/a
254.6402	0.5167	FIXCROSS	n/a	n/a	n/a	n/a	n/a	n/a	n/a	n/a
255.1568	1.1667	T_COLOR_NAME	9	Incongruent	zielony	green	żółty	yellow	hit	n/a
256.29	n/a	RESPONSE	n/a	n/a	n/a	n/a	n/a	n/a	n/a	green
256.3235	0.5167	FEEDBACK	n/a	n/a	n/a	n/a	n/a	n/a	n/a	n/a
256.8402	1.0167	ITI	n/a	n/a	n/a	n/a	n/a	n/a	n/a	n/a
257.8569	0.5167	FIXCROSS	n/a	n/a	n/a	n/a	n/a	n/a	n/a	n/a
258.3735	0.9167	T_COLOR_NAME	10	Incongruent	niebieski	blue	czerwony	red	hit	n/a
259.2653	n/a	RESPONSE	n/a	n/a	n/a	n/a	n/a	n/a	n/a	blue
259.2902	0.5167	FEEDBACK	n/a	n/a	n/a	n/a	n/a	n/a	n/a	n/a
259.8069	1.0167	ITI	n/a	n/a	n/a	n/a	n/a	n/a	n/a	n/a
260.8236	0.5167	FIXCROSS	n/a	n/a	n/a	n/a	n/a	n/a	n/a	n/a
261.3402	0.7667	T_COLOR_NAME	11	Neutral	czerwony	red	Neutral	Neutral	hit	n/a
262.0806	n/a	RESPONSE	n/a	n/a	n/a	n/a	n/a	n/a	n/a	red
262.1069	0.5167	FEEDBACK	n/a	n/a	n/a	n/a	n/a	n/a	n/a	n/a
262.6236	1.0167	ITI	n/a	n/a	n/a	n/a	n/a	n/a	n/a	n/a
263.6403	0.5167	FIXCROSS	n/a	n/a	n/a	n/a	n/a	n/a	n/a	n/a
264.1569	0.85	T_COLOR_NAME	12	Neutral	żółty	yellow	Neutral	Neutral	hit	n/a
264.9759	n/a	RESPONSE	n/a	n/a	n/a	n/a	n/a	n/a	n/a	yellow
265.0069	0.5167	FEEDBACK	n/a	n/a	n/a	n/a	n/a	n/a	n/a	n/a
265.5236	1.0333	ITI	n/a	n/a	n/a	n/a	n/a	n/a	n/a	n/a
276.0132	n/a	RESPONSE	n/a	n/a	n/a	n/a	n/a	n/a	n/a	n/a
276.0737	1.0167	ITI	n/a	n/a	n/a	n/a	n/a	n/a	n/a	n/a
277.0904	0.5167	FIXCROSS	n/a	n/a	n/a	n/a	n/a	n/a	n/a	n/a
277.6071	0.7833	COLOR_NAME	1	Neutral	czerwony	red	Neutral	Neutral	hit	n/a
278.3647	n/a	RESPONSE	n/a	n/a	n/a	n/a	n/a	n/a	n/a	red
278.3904	1.0167	ITI	n/a	n/a	n/a	n/a	n/a	n/a	n/a	n/a
279.4071	0.5167	FIXCROSS	n/a	n/a	n/a	n/a	n/a	n/a	n/a	n/a
279.9238	0.7833	COLOR_NAME	2	Neutral	zielony	green	Neutral	Neutral	hit	n/a
280.6841	n/a	RESPONSE	n/a	n/a	n/a	n/a	n/a	n/a	n/a	green
280.7071	1.0167	ITI	n/a	n/a	n/a	n/a	n/a	n/a	n/a	n/a
281.7238	0.5167	FIXCROSS	n/a	n/a	n/a	n/a	n/a	n/a	n/a	n/a
282.2405	0.7833	COLOR_NAME	3	Neutral	niebieski	blue	Neutral	Neutral	hit	n/a
283.0035	n/a	RESPONSE	n/a	n/a	n/a	n/a	n/a	n/a	n/a	blue
283.0238	1.0167	ITI	n/a	n/a	n/a	n/a	n/a	n/a	n/a	n/a
284.0405	0.5167	FIXCROSS	n/a	n/a	n/a	n/a	n/a	n/a	n/a	n/a
284.5572	0.7833	COLOR_NAME	4	Incongruent	niebieski	blue	zielony	green	hit	n/a
285.307	n/a	RESPONSE	n/a	n/a	n/a	n/a	n/a	n/a	n/a	blue
285.3405	1.0167	ITI	n/a	n/a	n/a	n/a	n/a	n/a	n/a	n/a
286.3572	0.5167	FIXCROSS	n/a	n/a	n/a	n/a	n/a	n/a	n/a	n/a
286.8739	0.7667	COLOR_NAME	5	Neutral	zielony	green	Neutral	Neutral	hit	n/a
287.6104	n/a	RESPONSE	n/a	n/a	n/a	n/a	n/a	n/a	n/a	green
287.6405	1.0167	ITI	n/a	n/a	n/a	n/a	n/a	n/a	n/a	n/a
288.6572	0.5167	FIXCROSS	n/a	n/a	n/a	n/a	n/a	n/a	n/a	n/a
289.1739	0.7	COLOR_NAME	6	Incongruent	czerwony	red	żółty	yellow	hit	n/a
289.8499	n/a	RESPONSE	n/a	n/a	n/a	n/a	n/a	n/a	n/a	red
289.8739	1.0167	ITI	n/a	n/a	n/a	n/a	n/a	n/a	n/a	n/a
290.8906	0.5167	FIXCROSS	n/a	n/a	n/a	n/a	n/a	n/a	n/a	n/a
291.4073	0.65	COLOR_NAME	7	Incongruent	czerwony	red	żółty	yellow	hit	n/a
292.0254	n/a	RESPONSE	n/a	n/a	n/a	n/a	n/a	n/a	n/a	red
292.0573	1.0167	ITI	n/a	n/a	n/a	n/a	n/a	n/a	n/a	n/a
293.0739	0.5167	FIXCROSS	n/a	n/a	n/a	n/a	n/a	n/a	n/a	n/a
293.5906	0.55	COLOR_NAME	8	Incongruent	czerwony	red	niebieski	blue	hit	n/a
294.1208	n/a	RESPONSE	n/a	n/a	n/a	n/a	n/a	n/a	n/a	red
294.1406	1.0167	ITI	n/a	n/a	n/a	n/a	n/a	n/a	n/a	n/a
295.1573	0.5167	FIXCROSS	n/a	n/a	n/a	n/a	n/a	n/a	n/a	n/a
295.674	0.4999	COLOR_NAME	9	Neutral	czerwony	red	Neutral	Neutral	hit	n/a
296.1524	n/a	RESPONSE	n/a	n/a	n/a	n/a	n/a	n/a	n/a	red
296.1739	1.0168	ITI	n/a	n/a	n/a	n/a	n/a	n/a	n/a	n/a
297.1906	0.5167	FIXCROSS	n/a	n/a	n/a	n/a	n/a	n/a	n/a	n/a
297.7073	0.7667	COLOR_NAME	10	Neutral	zielony	green	Neutral	Neutral	hit	n/a
298.4558	n/a	RESPONSE	n/a	n/a	n/a	n/a	n/a	n/a	n/a	green
298.474	1.0167	ITI	n/a	n/a	n/a	n/a	n/a	n/a	n/a	n/a
299.4907	0.5167	FIXCROSS	n/a	n/a	n/a	n/a	n/a	n/a	n/a	n/a
300.0073	0.8	COLOR_NAME	11	Incongruent	czerwony	red	żółty	yellow	hit	n/a
300.7753	n/a	RESPONSE	n/a	n/a	n/a	n/a	n/a	n/a	n/a	red
300.8074	1.0167	ITI	n/a	n/a	n/a	n/a	n/a	n/a	n/a	n/a
301.824	0.5167	FIXCROSS	n/a	n/a	n/a	n/a	n/a	n/a	n/a	n/a
302.3407	0.6667	COLOR_NAME	12	Neutral	żółty	yellow	Neutral	Neutral	hit	n/a
302.9827	n/a	RESPONSE	n/a	n/a	n/a	n/a	n/a	n/a	n/a	yellow
303.0074	1.0167	ITI	n/a	n/a	n/a	n/a	n/a	n/a	n/a	n/a
304.0241	0.5167	FIXCROSS	n/a	n/a	n/a	n/a	n/a	n/a	n/a	n/a
304.5407	0.6833	COLOR_NAME	13	Neutral	niebieski	blue	Neutral	Neutral	hit	n/a
305.2062	n/a	RESPONSE	n/a	n/a	n/a	n/a	n/a	n/a	n/a	blue
305.2241	1.0167	ITI	n/a	n/a	n/a	n/a	n/a	n/a	n/a	n/a
306.2408	0.5167	FIXCROSS	n/a	n/a	n/a	n/a	n/a	n/a	n/a	n/a
306.7574	0.6	COLOR_NAME	14	Neutral	czerwony	red	Neutral	Neutral	hit	n/a
307.3336	n/a	RESPONSE	n/a	n/a	n/a	n/a	n/a	n/a	n/a	red
307.3574	1.0167	ITI	n/a	n/a	n/a	n/a	n/a	n/a	n/a	n/a
308.3741	0.5167	FIXCROSS	n/a	n/a	n/a	n/a	n/a	n/a	n/a	n/a
308.8908	0.6833	COLOR_NAME	15	Incongruent	czerwony	red	niebieski	blue	hit	n/a
309.5411	n/a	RESPONSE	n/a	n/a	n/a	n/a	n/a	n/a	n/a	red
309.5741	1.0167	ITI	n/a	n/a	n/a	n/a	n/a	n/a	n/a	n/a
310.5908	0.5167	FIXCROSS	n/a	n/a	n/a	n/a	n/a	n/a	n/a	n/a
311.1075	0.7834	COLOR_NAME	16	Neutral	zielony	green	Neutral	Neutral	hit	n/a
311.8605	n/a	RESPONSE	n/a	n/a	n/a	n/a	n/a	n/a	n/a	green
311.8908	1.0167	ITI	n/a	n/a	n/a	n/a	n/a	n/a	n/a	n/a
312.9075	0.5167	FIXCROSS	n/a	n/a	n/a	n/a	n/a	n/a	n/a	n/a
313.4242	0.85	COLOR_NAME	17	Neutral	niebieski	blue	Neutral	Neutral	hit	n/a
314.244	n/a	RESPONSE	n/a	n/a	n/a	n/a	n/a	n/a	n/a	blue
314.2742	1.0167	ITI	n/a	n/a	n/a	n/a	n/a	n/a	n/a	n/a
315.2909	0.5167	FIXCROSS	n/a	n/a	n/a	n/a	n/a	n/a	n/a	n/a
315.8075	0.5667	COLOR_NAME	18	Incongruent	niebieski	blue	zielony	green	hit	n/a
316.3555	n/a	RESPONSE	n/a	n/a	n/a	n/a	n/a	n/a	n/a	blue
316.3742	1.0167	ITI	n/a	n/a	n/a	n/a	n/a	n/a	n/a	n/a
317.3909	0.5167	FIXCROSS	n/a	n/a	n/a	n/a	n/a	n/a	n/a	n/a
317.9076	0.5	COLOR_NAME	19	Incongruent	niebieski	blue	żółty	yellow	hit	n/a
318.387	n/a	RESPONSE	n/a	n/a	n/a	n/a	n/a	n/a	n/a	blue
318.4076	1.0167	ITI	n/a	n/a	n/a	n/a	n/a	n/a	n/a	n/a
319.4242	0.5167	FIXCROSS	n/a	n/a	n/a	n/a	n/a	n/a	n/a	n/a
319.9409	0.7167	COLOR_NAME	20	Incongruent	żółty	yellow	zielony	green	hit	n/a
320.6264	n/a	RESPONSE	n/a	n/a	n/a	n/a	n/a	n/a	n/a	yellow
320.6576	1.0167	ITI	n/a	n/a	n/a	n/a	n/a	n/a	n/a	n/a
321.6743	0.5167	FIXCROSS	n/a	n/a	n/a	n/a	n/a	n/a	n/a	n/a
322.1909	0.85	COLOR_NAME	21	Neutral	niebieski	blue	Neutral	Neutral	hit	n/a
323.0099	n/a	RESPONSE	n/a	n/a	n/a	n/a	n/a	n/a	n/a	blue
323.0409	1.0167	ITI	n/a	n/a	n/a	n/a	n/a	n/a	n/a	n/a
324.0576	0.5167	FIXCROSS	n/a	n/a	n/a	n/a	n/a	n/a	n/a	n/a
324.5743	0.6667	COLOR_NAME	22	Incongruent	niebieski	blue	żółty	yellow	hit	n/a
325.2173	n/a	RESPONSE	n/a	n/a	n/a	n/a	n/a	n/a	n/a	blue
325.241	1.0167	ITI	n/a	n/a	n/a	n/a	n/a	n/a	n/a	n/a
326.2576	0.5167	FIXCROSS	n/a	n/a	n/a	n/a	n/a	n/a	n/a	n/a
326.7743	0.6667	COLOR_NAME	23	Neutral	żółty	yellow	Neutral	Neutral	hit	n/a
327.4088	n/a	RESPONSE	n/a	n/a	n/a	n/a	n/a	n/a	n/a	yellow
327.441	1.0167	ITI	n/a	n/a	n/a	n/a	n/a	n/a	n/a	n/a
328.4577	0.5167	FIXCROSS	n/a	n/a	n/a	n/a	n/a	n/a	n/a	n/a
328.9743	0.8667	COLOR_NAME	24	Incongruent	czerwony	red	zielony	green	hit	n/a
329.8082	n/a	RESPONSE	n/a	n/a	n/a	n/a	n/a	n/a	n/a	red
329.841	1.0167	ITI	n/a	n/a	n/a	n/a	n/a	n/a	n/a	n/a
330.8577	0.5167	FIXCROSS	n/a	n/a	n/a	n/a	n/a	n/a	n/a	n/a
331.3744	0.7667	COLOR_NAME	25	Incongruent	zielony	green	żółty	yellow	hit	n/a
332.1116	n/a	RESPONSE	n/a	n/a	n/a	n/a	n/a	n/a	n/a	green
332.141	1.0167	ITI	n/a	n/a	n/a	n/a	n/a	n/a	n/a	n/a
333.1577	0.5167	FIXCROSS	n/a	n/a	n/a	n/a	n/a	n/a	n/a	n/a
333.6744	0.7833	COLOR_NAME	26	Neutral	żółty	yellow	Neutral	Neutral	hit	n/a
334.4311	n/a	RESPONSE	n/a	n/a	n/a	n/a	n/a	n/a	n/a	yellow
334.4577	1.0167	ITI	n/a	n/a	n/a	n/a	n/a	n/a	n/a	n/a
335.4744	0.5167	FIXCROSS	n/a	n/a	n/a	n/a	n/a	n/a	n/a	n/a
335.9911	0.6167	COLOR_NAME	27	Neutral	czerwony	red	Neutral	Neutral	hit	n/a
336.5746	n/a	RESPONSE	n/a	n/a	n/a	n/a	n/a	n/a	n/a	red
336.6078	1.0167	ITI	n/a	n/a	n/a	n/a	n/a	n/a	n/a	n/a
337.6244	0.5167	FIXCROSS	n/a	n/a	n/a	n/a	n/a	n/a	n/a	n/a
338.1411	0.6167	COLOR_NAME	28	Incongruent	niebieski	blue	żółty	yellow	hit	n/a
338.7341	n/a	RESPONSE	n/a	n/a	n/a	n/a	n/a	n/a	n/a	blue
338.7578	1.0167	ITI	n/a	n/a	n/a	n/a	n/a	n/a	n/a	n/a
339.7745	0.5167	FIXCROSS	n/a	n/a	n/a	n/a	n/a	n/a	n/a	n/a
340.2911	0.5833	COLOR_NAME	29	Neutral	żółty	yellow	Neutral	Neutral	hit	n/a
340.8456	n/a	RESPONSE	n/a	n/a	n/a	n/a	n/a	n/a	n/a	yellow
340.8745	1.0167	ITI	n/a	n/a	n/a	n/a	n/a	n/a	n/a	n/a
341.8912	0.5167	FIXCROSS	n/a	n/a	n/a	n/a	n/a	n/a	n/a	n/a
342.4078	0.6833	COLOR_NAME	30	Incongruent	czerwony	red	zielony	green	hit	n/a
343.069	n/a	RESPONSE	n/a	n/a	n/a	n/a	n/a	n/a	n/a	red
343.0912	1.0167	ITI	n/a	n/a	n/a	n/a	n/a	n/a	n/a	n/a
344.1079	0.5167	FIXCROSS	n/a	n/a	n/a	n/a	n/a	n/a	n/a	n/a
344.6245	1.0667	COLOR_NAME	31	Incongruent	zielony	green	niebieski	blue	hit	n/a
345.6604	n/a	RESPONSE	n/a	n/a	n/a	n/a	n/a	n/a	n/a	green
345.6912	1.0167	ITI	n/a	n/a	n/a	n/a	n/a	n/a	n/a	n/a
346.7079	0.5167	FIXCROSS	n/a	n/a	n/a	n/a	n/a	n/a	n/a	n/a
347.2246	0.8333	COLOR_NAME	32	Incongruent	czerwony	red	niebieski	blue	hit	n/a
348.0278	n/a	RESPONSE	n/a	n/a	n/a	n/a	n/a	n/a	n/a	red
348.0579	1.0167	ITI	n/a	n/a	n/a	n/a	n/a	n/a	n/a	n/a
349.0746	0.5167	FIXCROSS	n/a	n/a	n/a	n/a	n/a	n/a	n/a	n/a
349.5912	0.6833	COLOR_NAME	33	Neutral	niebieski	blue	Neutral	Neutral	hit	n/a
350.2513	n/a	RESPONSE	n/a	n/a	n/a	n/a	n/a	n/a	n/a	blue
350.2746	1.0167	ITI	n/a	n/a	n/a	n/a	n/a	n/a	n/a	n/a
351.2913	0.5167	FIXCROSS	n/a	n/a	n/a	n/a	n/a	n/a	n/a	n/a
351.8079	0.7334	COLOR_NAME	34	Incongruent	żółty	yellow	niebieski	blue	hit	n/a
352.5227	n/a	RESPONSE	n/a	n/a	n/a	n/a	n/a	n/a	n/a	yellow
352.5413	1.0167	ITI	n/a	n/a	n/a	n/a	n/a	n/a	n/a	n/a
353.558	0.5167	FIXCROSS	n/a	n/a	n/a	n/a	n/a	n/a	n/a	n/a
354.0746	0.65	COLOR_NAME	35	Neutral	czerwony	red	Neutral	Neutral	hit	n/a
354.6982	n/a	RESPONSE	n/a	n/a	n/a	n/a	n/a	n/a	n/a	red
354.7246	1.0167	ITI	n/a	n/a	n/a	n/a	n/a	n/a	n/a	n/a
355.7413	0.5167	FIXCROSS	n/a	n/a	n/a	n/a	n/a	n/a	n/a	n/a
356.258	0.6333	COLOR_NAME	36	Neutral	czerwony	red	Neutral	Neutral	hit	n/a
356.8577	n/a	RESPONSE	n/a	n/a	n/a	n/a	n/a	n/a	n/a	red
356.8913	1.0167	ITI	n/a	n/a	n/a	n/a	n/a	n/a	n/a	n/a
357.908	0.5167	FIXCROSS	n/a	n/a	n/a	n/a	n/a	n/a	n/a	n/a
358.4247	0.5833	COLOR_NAME	37	Neutral	czerwony	red	Neutral	Neutral	hit	n/a
358.9852	n/a	RESPONSE	n/a	n/a	n/a	n/a	n/a	n/a	n/a	red
359.008	1.0167	ITI	n/a	n/a	n/a	n/a	n/a	n/a	n/a	n/a
360.0247	0.5167	FIXCROSS	n/a	n/a	n/a	n/a	n/a	n/a	n/a	n/a
360.5414	0.7333	COLOR_NAME	38	Incongruent	zielony	green	niebieski	blue	hit	n/a
361.2566	n/a	RESPONSE	n/a	n/a	n/a	n/a	n/a	n/a	n/a	green
361.2747	1.0167	ITI	n/a	n/a	n/a	n/a	n/a	n/a	n/a	n/a
362.2914	0.5167	FIXCROSS	n/a	n/a	n/a	n/a	n/a	n/a	n/a	n/a
362.8081	0.9167	COLOR_NAME	39	Incongruent	niebieski	blue	czerwony	red	hit	n/a
363.704	n/a	RESPONSE	n/a	n/a	n/a	n/a	n/a	n/a	n/a	blue
363.7247	1.0167	ITI	n/a	n/a	n/a	n/a	n/a	n/a	n/a	n/a
364.7414	0.5167	FIXCROSS	n/a	n/a	n/a	n/a	n/a	n/a	n/a	n/a
365.2581	0.7333	COLOR_NAME	40	Neutral	zielony	green	Neutral	Neutral	hit	n/a
365.9595	n/a	RESPONSE	n/a	n/a	n/a	n/a	n/a	n/a	n/a	green
365.9914	1.0167	ITI	n/a	n/a	n/a	n/a	n/a	n/a	n/a	n/a
367.0081	0.5167	FIXCROSS	n/a	n/a	n/a	n/a	n/a	n/a	n/a	n/a
367.5248	0.5167	COLOR_NAME	41	Neutral	zielony	green	Neutral	Neutral	hit	n/a
368.007	n/a	RESPONSE	n/a	n/a	n/a	n/a	n/a	n/a	n/a	green
368.0415	1.0167	ITI	n/a	n/a	n/a	n/a	n/a	n/a	n/a	n/a
369.0581	0.5167	FIXCROSS	n/a	n/a	n/a	n/a	n/a	n/a	n/a	n/a
369.5748	0.7667	COLOR_NAME	42	Incongruent	żółty	yellow	zielony	green	hit	n/a
370.3104	n/a	RESPONSE	n/a	n/a	n/a	n/a	n/a	n/a	n/a	yellow
370.3415	1.0167	ITI	n/a	n/a	n/a	n/a	n/a	n/a	n/a	n/a
371.3582	0.5167	FIXCROSS	n/a	n/a	n/a	n/a	n/a	n/a	n/a	n/a
371.8748	0.7667	COLOR_NAME	43	Incongruent	zielony	green	żółty	yellow	hit	n/a
372.6139	n/a	RESPONSE	n/a	n/a	n/a	n/a	n/a	n/a	n/a	green
372.6415	1.0167	ITI	n/a	n/a	n/a	n/a	n/a	n/a	n/a	n/a
373.6582	0.5167	FIXCROSS	n/a	n/a	n/a	n/a	n/a	n/a	n/a	n/a
374.1749	0.8333	COLOR_NAME	44	Incongruent	żółty	yellow	zielony	green	hit	n/a
374.9813	n/a	RESPONSE	n/a	n/a	n/a	n/a	n/a	n/a	n/a	yellow
375.0082	1.0167	ITI	n/a	n/a	n/a	n/a	n/a	n/a	n/a	n/a
376.0249	0.5167	FIXCROSS	n/a	n/a	n/a	n/a	n/a	n/a	n/a	n/a
376.5416	0.8	COLOR_NAME	45	Incongruent	żółty	yellow	czerwony	red	hit	n/a
377.3167	n/a	RESPONSE	n/a	n/a	n/a	n/a	n/a	n/a	n/a	yellow
377.3416	1.0167	ITI	n/a	n/a	n/a	n/a	n/a	n/a	n/a	n/a
378.3582	0.5167	FIXCROSS	n/a	n/a	n/a	n/a	n/a	n/a	n/a	n/a
378.8749	0.5	COLOR_NAME	46	Neutral	żółty	yellow	Neutral	Neutral	hit	n/a
379.3482	n/a	RESPONSE	n/a	n/a	n/a	n/a	n/a	n/a	n/a	yellow
379.3749	1.0167	ITI	n/a	n/a	n/a	n/a	n/a	n/a	n/a	n/a
380.3916	0.5167	FIXCROSS	n/a	n/a	n/a	n/a	n/a	n/a	n/a	n/a
380.9083	0.5	COLOR_NAME	47	Neutral	żółty	yellow	Neutral	Neutral	hit	n/a
381.3798	n/a	RESPONSE	n/a	n/a	n/a	n/a	n/a	n/a	n/a	yellow
381.4083	1.0167	ITI	n/a	n/a	n/a	n/a	n/a	n/a	n/a	n/a
382.425	0.5167	FIXCROSS	n/a	n/a	n/a	n/a	n/a	n/a	n/a	n/a
382.9416	0.8167	COLOR_NAME	48	Incongruent	zielony	green	czerwony	red	hit	n/a
383.7312	n/a	RESPONSE	n/a	n/a	n/a	n/a	n/a	n/a	n/a	green
383.7583	1.0167	ITI	n/a	n/a	n/a	n/a	n/a	n/a	n/a	n/a
384.775	0.5167	FIXCROSS	n/a	n/a	n/a	n/a	n/a	n/a	n/a	n/a
385.2917	0.55	COLOR_NAME	49	Neutral	czerwony	red	Neutral	Neutral	hit	n/a
385.8107	n/a	RESPONSE	n/a	n/a	n/a	n/a	n/a	n/a	n/a	red
385.8417	1.0167	ITI	n/a	n/a	n/a	n/a	n/a	n/a	n/a	n/a
386.8583	0.5167	FIXCROSS	n/a	n/a	n/a	n/a	n/a	n/a	n/a	n/a
387.375	0.8	COLOR_NAME	50	Incongruent	żółty	yellow	czerwony	red	hit	n/a
388.1461	n/a	RESPONSE	n/a	n/a	n/a	n/a	n/a	n/a	n/a	yellow
388.175	1.0167	ITI	n/a	n/a	n/a	n/a	n/a	n/a	n/a	n/a
389.1917	0.5167	FIXCROSS	n/a	n/a	n/a	n/a	n/a	n/a	n/a	n/a
389.7084	0.8333	COLOR_NAME	51	Neutral	niebieski	blue	Neutral	Neutral	hit	n/a
390.5135	n/a	RESPONSE	n/a	n/a	n/a	n/a	n/a	n/a	n/a	blue
390.5417	1.0167	ITI	n/a	n/a	n/a	n/a	n/a	n/a	n/a	n/a
391.5584	0.5167	FIXCROSS	n/a	n/a	n/a	n/a	n/a	n/a	n/a	n/a
392.0751	0.7167	COLOR_NAME	52	Neutral	zielony	green	Neutral	Neutral	hit	n/a
392.769	n/a	RESPONSE	n/a	n/a	n/a	n/a	n/a	n/a	n/a	green
392.7917	1.0167	ITI	n/a	n/a	n/a	n/a	n/a	n/a	n/a	n/a
393.8084	0.5167	FIXCROSS	n/a	n/a	n/a	n/a	n/a	n/a	n/a	n/a
394.3251	0.65	COLOR_NAME	53	Neutral	czerwony	red	Neutral	Neutral	hit	n/a
394.9445	n/a	RESPONSE	n/a	n/a	n/a	n/a	n/a	n/a	n/a	red
394.9751	1.0167	ITI	n/a	n/a	n/a	n/a	n/a	n/a	n/a	n/a
395.9918	0.5167	FIXCROSS	n/a	n/a	n/a	n/a	n/a	n/a	n/a	n/a
396.5085	0.9167	COLOR_NAME	54	Incongruent	niebieski	blue	zielony	green	hit	n/a
397.3918	n/a	RESPONSE	n/a	n/a	n/a	n/a	n/a	n/a	n/a	blue
397.4251	1.0167	ITI	n/a	n/a	n/a	n/a	n/a	n/a	n/a	n/a
398.4418	0.5167	FIXCROSS	n/a	n/a	n/a	n/a	n/a	n/a	n/a	n/a
398.9585	0.8333	COLOR_NAME	55	Incongruent	zielony	green	żółty	yellow	hit	n/a
399.7593	n/a	RESPONSE	n/a	n/a	n/a	n/a	n/a	n/a	n/a	green
399.7918	1.0167	ITI	n/a	n/a	n/a	n/a	n/a	n/a	n/a	n/a
400.8085	0.5167	FIXCROSS	n/a	n/a	n/a	n/a	n/a	n/a	n/a	n/a
401.3252	0.5667	COLOR_NAME	56	Neutral	zielony	green	Neutral	Neutral	hit	n/a
401.8708	n/a	RESPONSE	n/a	n/a	n/a	n/a	n/a	n/a	n/a	green
401.8919	1.0167	ITI	n/a	n/a	n/a	n/a	n/a	n/a	n/a	n/a
402.9085	0.5167	FIXCROSS	n/a	n/a	n/a	n/a	n/a	n/a	n/a	n/a
403.4252	0.9334	COLOR_NAME	57	Incongruent	niebieski	blue	czerwony	red	hit	n/a
404.3342	n/a	RESPONSE	n/a	n/a	n/a	n/a	n/a	n/a	n/a	blue
404.3586	1.0167	ITI	n/a	n/a	n/a	n/a	n/a	n/a	n/a	n/a
405.3752	0.5167	FIXCROSS	n/a	n/a	n/a	n/a	n/a	n/a	n/a	n/a
405.8919	0.9333	COLOR_NAME	58	Incongruent	zielony	green	czerwony	red	hit	n/a
406.7976	n/a	RESPONSE	n/a	n/a	n/a	n/a	n/a	n/a	n/a	green
406.8252	1.0167	ITI	n/a	n/a	n/a	n/a	n/a	n/a	n/a	n/a
407.8419	0.5167	FIXCROSS	n/a	n/a	n/a	n/a	n/a	n/a	n/a	n/a
408.3586	0.8667	COLOR_NAME	59	Neutral	niebieski	blue	Neutral	Neutral	hit	n/a
409.197	n/a	RESPONSE	n/a	n/a	n/a	n/a	n/a	n/a	n/a	blue
409.2253	1.0167	ITI	n/a	n/a	n/a	n/a	n/a	n/a	n/a	n/a
410.2419	0.5167	FIXCROSS	n/a	n/a	n/a	n/a	n/a	n/a	n/a	n/a
410.7586	0.9667	COLOR_NAME	60	Neutral	zielony	green	Neutral	Neutral	hit	n/a
411.6924	n/a	RESPONSE	n/a	n/a	n/a	n/a	n/a	n/a	n/a	green
411.7253	1.0167	ITI	n/a	n/a	n/a	n/a	n/a	n/a	n/a	n/a
412.742	0.5167	FIXCROSS	n/a	n/a	n/a	n/a	n/a	n/a	n/a	n/a
413.2586	0.8667	COLOR_NAME	61	Incongruent	czerwony	red	zielony	green	hit	n/a
414.0918	n/a	RESPONSE	n/a	n/a	n/a	n/a	n/a	n/a	n/a	red
414.1253	1.0167	ITI	n/a	n/a	n/a	n/a	n/a	n/a	n/a	n/a
415.142	0.5167	FIXCROSS	n/a	n/a	n/a	n/a	n/a	n/a	n/a	n/a
415.6587	0.6667	COLOR_NAME	62	Incongruent	żółty	yellow	niebieski	blue	hit	n/a
416.2993	n/a	RESPONSE	n/a	n/a	n/a	n/a	n/a	n/a	n/a	yellow
416.3253	1.0167	ITI	n/a	n/a	n/a	n/a	n/a	n/a	n/a	n/a
417.342	0.5167	FIXCROSS	n/a	n/a	n/a	n/a	n/a	n/a	n/a	n/a
417.8587	0.6667	COLOR_NAME	63	Neutral	żółty	yellow	Neutral	Neutral	hit	n/a
418.5068	n/a	RESPONSE	n/a	n/a	n/a	n/a	n/a	n/a	n/a	yellow
418.5254	1.0167	ITI	n/a	n/a	n/a	n/a	n/a	n/a	n/a	n/a
419.5421	0.5167	FIXCROSS	n/a	n/a	n/a	n/a	n/a	n/a	n/a	n/a
420.0587	0.5167	COLOR_NAME	64	Neutral	żółty	yellow	Neutral	Neutral	hit	n/a
420.5543	n/a	RESPONSE	n/a	n/a	n/a	n/a	n/a	n/a	n/a	yellow
420.5754	1.0167	ITI	n/a	n/a	n/a	n/a	n/a	n/a	n/a	n/a
421.5921	0.5167	FIXCROSS	n/a	n/a	n/a	n/a	n/a	n/a	n/a	n/a
422.1088	0.8833	COLOR_NAME	65	Incongruent	zielony	green	niebieski	blue	hit	n/a
422.9697	n/a	RESPONSE	n/a	n/a	n/a	n/a	n/a	n/a	n/a	green
422.9921	1.0167	ITI	n/a	n/a	n/a	n/a	n/a	n/a	n/a	n/a
424.0088	0.5167	FIXCROSS	n/a	n/a	n/a	n/a	n/a	n/a	n/a	n/a
424.5255	0.6833	COLOR_NAME	66	Neutral	żółty	yellow	Neutral	Neutral	hit	n/a
425.1771	n/a	RESPONSE	n/a	n/a	n/a	n/a	n/a	n/a	n/a	yellow
425.2088	1.0167	ITI	n/a	n/a	n/a	n/a	n/a	n/a	n/a	n/a
426.2255	0.5167	FIXCROSS	n/a	n/a	n/a	n/a	n/a	n/a	n/a	n/a
426.7421	0.6334	COLOR_NAME	67	Neutral	niebieski	blue	Neutral	Neutral	hit	n/a
427.3526	n/a	RESPONSE	n/a	n/a	n/a	n/a	n/a	n/a	n/a	blue
427.3755	1.0167	ITI	n/a	n/a	n/a	n/a	n/a	n/a	n/a	n/a
428.3922	0.5167	FIXCROSS	n/a	n/a	n/a	n/a	n/a	n/a	n/a	n/a
428.9088	0.7167	COLOR_NAME	68	Incongruent	żółty	yellow	niebieski	blue	hit	n/a
429.6081	n/a	RESPONSE	n/a	n/a	n/a	n/a	n/a	n/a	n/a	yellow
429.6255	1.0167	ITI	n/a	n/a	n/a	n/a	n/a	n/a	n/a	n/a
430.6422	0.5167	FIXCROSS	n/a	n/a	n/a	n/a	n/a	n/a	n/a	n/a
431.1589	0.6833	COLOR_NAME	69	Incongruent	żółty	yellow	czerwony	red	hit	n/a
431.8155	n/a	RESPONSE	n/a	n/a	n/a	n/a	n/a	n/a	n/a	yellow
431.8422	1.0167	ITI	n/a	n/a	n/a	n/a	n/a	n/a	n/a	n/a
432.8589	0.5167	FIXCROSS	n/a	n/a	n/a	n/a	n/a	n/a	n/a	n/a
433.3755	0.5833	COLOR_NAME	70	Neutral	niebieski	blue	Neutral	Neutral	hit	n/a
433.927	n/a	RESPONSE	n/a	n/a	n/a	n/a	n/a	n/a	n/a	blue
433.9589	1.0167	ITI	n/a	n/a	n/a	n/a	n/a	n/a	n/a	n/a
434.9756	0.5167	FIXCROSS	n/a	n/a	n/a	n/a	n/a	n/a	n/a	n/a
435.4922	0.7	COLOR_NAME	71	Incongruent	niebieski	blue	czerwony	red	hit	n/a
436.1665	n/a	RESPONSE	n/a	n/a	n/a	n/a	n/a	n/a	n/a	blue
436.1922	1.0167	ITI	n/a	n/a	n/a	n/a	n/a	n/a	n/a	n/a
437.2089	0.5167	FIXCROSS	n/a	n/a	n/a	n/a	n/a	n/a	n/a	n/a
437.7256	0.85	COLOR_NAME	72	Incongruent	zielony	green	czerwony	red	hit	n/a
438.5499	n/a	RESPONSE	n/a	n/a	n/a	n/a	n/a	n/a	n/a	green
438.5756	1.0333	ITI	n/a	n/a	n/a	n/a	n/a	n/a	n/a	n/a
441.3173	n/a	RESPONSE	n/a	n/a	n/a	n/a	n/a	n/a	n/a	n/a
