onset	duration	trial_type	trial_number	stroop_condition	stim_text(PL)	stim_text(eng)	stim_color(PL)	stim_color(eng)	response_type	response_color
0.0	n/a	RESPONSE	n/a	n/a	n/a	n/a	n/a	n/a	n/a	n/a
0.0581	1.0333	ITI	n/a	n/a	n/a	n/a	n/a	n/a	n/a	n/a
1.0915	0.5167	FIXCROSS	n/a	n/a	n/a	n/a	n/a	n/a	n/a	n/a
1.6081	1.1667	T_INK	1	Neutral	xxxxx	xxxxx	czerwony	red	hit	n/a
2.7514	n/a	RESPONSE	n/a	n/a	n/a	n/a	n/a	n/a	n/a	red
2.7748	0.5167	FEEDBACK	n/a	n/a	n/a	n/a	n/a	n/a	n/a	n/a
3.2915	1.0167	ITI	n/a	n/a	n/a	n/a	n/a	n/a	n/a	n/a
4.3082	0.5167	FIXCROSS	n/a	n/a	n/a	n/a	n/a	n/a	n/a	n/a
4.8248	0.85	T_INK	2	Neutral	xxxxxxxxx	xxxxxxxxx	żółty	yellow	hit	n/a
5.6468	n/a	RESPONSE	n/a	n/a	n/a	n/a	n/a	n/a	n/a	yellow
5.6748	0.5167	FEEDBACK	n/a	n/a	n/a	n/a	n/a	n/a	n/a	n/a
6.1915	1.0167	ITI	n/a	n/a	n/a	n/a	n/a	n/a	n/a	n/a
7.2082	0.5167	FIXCROSS	n/a	n/a	n/a	n/a	n/a	n/a	n/a	n/a
7.7248	1.0833	T_INK	3	Neutral	xxxxx	xxxxx	niebieski	blue	hit	n/a
8.7822	n/a	RESPONSE	n/a	n/a	n/a	n/a	n/a	n/a	n/a	blue
8.8082	0.5167	FEEDBACK	n/a	n/a	n/a	n/a	n/a	n/a	n/a	n/a
9.3249	1.0167	ITI	n/a	n/a	n/a	n/a	n/a	n/a	n/a	n/a
10.3415	0.5167	FIXCROSS	n/a	n/a	n/a	n/a	n/a	n/a	n/a	n/a
10.8582	0.8833	T_INK	4	Neutral	xxxxxxxxx	xxxxxxxxx	zielony	green	hit	n/a
11.7096	n/a	RESPONSE	n/a	n/a	n/a	n/a	n/a	n/a	n/a	green
11.7415	0.5167	FEEDBACK	n/a	n/a	n/a	n/a	n/a	n/a	n/a	n/a
12.2582	1.0167	ITI	n/a	n/a	n/a	n/a	n/a	n/a	n/a	n/a
13.2749	0.5167	FIXCROSS	n/a	n/a	n/a	n/a	n/a	n/a	n/a	n/a
13.7916	0.8167	T_INK	5	Neutral	xxxxxxxxx	xxxxxxxxx	czerwony	red	hit	n/a
14.589	n/a	RESPONSE	n/a	n/a	n/a	n/a	n/a	n/a	n/a	red
14.6082	0.5167	FEEDBACK	n/a	n/a	n/a	n/a	n/a	n/a	n/a	n/a
15.1249	1.0167	ITI	n/a	n/a	n/a	n/a	n/a	n/a	n/a	n/a
16.1416	0.5167	FIXCROSS	n/a	n/a	n/a	n/a	n/a	n/a	n/a	n/a
16.6582	0.7833	T_INK	6	Neutral	xxxxxxxx	xxxxxxxx	niebieski	blue	hit	n/a
17.4204	n/a	RESPONSE	n/a	n/a	n/a	n/a	n/a	n/a	n/a	blue
17.4416	0.5167	FEEDBACK	n/a	n/a	n/a	n/a	n/a	n/a	n/a	n/a
17.9582	1.0167	ITI	n/a	n/a	n/a	n/a	n/a	n/a	n/a	n/a
18.9749	0.5167	FIXCROSS	n/a	n/a	n/a	n/a	n/a	n/a	n/a	n/a
19.4916	1.5833	T_INK	7	Incongruent	czerwony	red	zielony	green	hit	n/a
21.0516	n/a	RESPONSE	n/a	n/a	n/a	n/a	n/a	n/a	n/a	green
21.0749	0.5167	FEEDBACK	n/a	n/a	n/a	n/a	n/a	n/a	n/a	n/a
21.5916	1.0167	ITI	n/a	n/a	n/a	n/a	n/a	n/a	n/a	n/a
22.6083	0.5167	FIXCROSS	n/a	n/a	n/a	n/a	n/a	n/a	n/a	n/a
23.1249	0.8	T_INK	8	Neutral	xxxxxxx	xxxxxxx	czerwony	red	hit	n/a
23.899	n/a	RESPONSE	n/a	n/a	n/a	n/a	n/a	n/a	n/a	red
23.925	0.5167	FEEDBACK	n/a	n/a	n/a	n/a	n/a	n/a	n/a	n/a
24.4416	1.0167	ITI	n/a	n/a	n/a	n/a	n/a	n/a	n/a	n/a
25.4583	0.5167	FIXCROSS	n/a	n/a	n/a	n/a	n/a	n/a	n/a	n/a
25.975	1.0	T_INK	9	Incongruent	zielony	green	czerwony	red	hit	n/a
26.9544	n/a	RESPONSE	n/a	n/a	n/a	n/a	n/a	n/a	n/a	red
26.975	0.5167	FEEDBACK	n/a	n/a	n/a	n/a	n/a	n/a	n/a	n/a
27.4916	1.0167	ITI	n/a	n/a	n/a	n/a	n/a	n/a	n/a	n/a
28.5083	0.5167	FIXCROSS	n/a	n/a	n/a	n/a	n/a	n/a	n/a	n/a
29.025	0.95	T_INK	10	Incongruent	niebieski	blue	zielony	green	hit	n/a
29.9458	n/a	RESPONSE	n/a	n/a	n/a	n/a	n/a	n/a	n/a	green
29.975	0.5167	FEEDBACK	n/a	n/a	n/a	n/a	n/a	n/a	n/a	n/a
30.4917	1.0167	ITI	n/a	n/a	n/a	n/a	n/a	n/a	n/a	n/a
31.5083	0.5167	FIXCROSS	n/a	n/a	n/a	n/a	n/a	n/a	n/a	n/a
32.025	0.8333	T_INK	11	Incongruent	niebieski	blue	żółty	yellow	hit	n/a
32.8251	n/a	RESPONSE	n/a	n/a	n/a	n/a	n/a	n/a	n/a	yellow
32.8584	0.5167	FEEDBACK	n/a	n/a	n/a	n/a	n/a	n/a	n/a	n/a
33.375	1.0167	ITI	n/a	n/a	n/a	n/a	n/a	n/a	n/a	n/a
34.3917	0.5167	FIXCROSS	n/a	n/a	n/a	n/a	n/a	n/a	n/a	n/a
34.9084	1.0	T_INK	12	Incongruent	niebieski	blue	czerwony	red	hit	n/a
35.8805	n/a	RESPONSE	n/a	n/a	n/a	n/a	n/a	n/a	n/a	red
35.9084	0.5167	FEEDBACK	n/a	n/a	n/a	n/a	n/a	n/a	n/a	n/a
36.425	1.0333	ITI	n/a	n/a	n/a	n/a	n/a	n/a	n/a	n/a
39.0318	n/a	RESPONSE	n/a	n/a	n/a	n/a	n/a	n/a	n/a	n/a
39.0917	1.0167	ITI	n/a	n/a	n/a	n/a	n/a	n/a	n/a	n/a
40.1084	0.5167	FIXCROSS	n/a	n/a	n/a	n/a	n/a	n/a	n/a	n/a
40.6251	0.9833	INK	1	Incongruent	zielony	green	niebieski	blue	hit	n/a
41.5753	n/a	RESPONSE	n/a	n/a	n/a	n/a	n/a	n/a	n/a	blue
41.6084	1.0167	ITI	n/a	n/a	n/a	n/a	n/a	n/a	n/a	n/a
42.6251	0.5167	FIXCROSS	n/a	n/a	n/a	n/a	n/a	n/a	n/a	n/a
43.1418	0.7667	INK	2	Incongruent	czerwony	red	niebieski	blue	hit	n/a
43.8788	n/a	RESPONSE	n/a	n/a	n/a	n/a	n/a	n/a	n/a	blue
43.9084	1.0167	ITI	n/a	n/a	n/a	n/a	n/a	n/a	n/a	n/a
44.9251	0.5167	FIXCROSS	n/a	n/a	n/a	n/a	n/a	n/a	n/a	n/a
45.4418	0.9	INK	3	Neutral	xxxxxxxx	xxxxxxxx	żółty	yellow	hit	n/a
46.3103	n/a	RESPONSE	n/a	n/a	n/a	n/a	n/a	n/a	n/a	yellow
46.3418	1.0167	ITI	n/a	n/a	n/a	n/a	n/a	n/a	n/a	n/a
47.3584	0.5167	FIXCROSS	n/a	n/a	n/a	n/a	n/a	n/a	n/a	n/a
47.8751	0.8167	INK	4	Incongruent	czerwony	red	żółty	yellow	hit	n/a
48.6618	n/a	RESPONSE	n/a	n/a	n/a	n/a	n/a	n/a	n/a	yellow
48.6918	1.0167	ITI	n/a	n/a	n/a	n/a	n/a	n/a	n/a	n/a
49.7085	0.5167	FIXCROSS	n/a	n/a	n/a	n/a	n/a	n/a	n/a	n/a
50.2251	0.4667	INK	5	Neutral	xxxxxxx	xxxxxxx	żółty	yellow	hit	n/a
50.6614	n/a	RESPONSE	n/a	n/a	n/a	n/a	n/a	n/a	n/a	yellow
50.6918	1.0167	ITI	n/a	n/a	n/a	n/a	n/a	n/a	n/a	n/a
50.9013	n/a	RESPONSE	n/a	n/a	n/a	n/a	n/a	n/a	n/a	yellow
51.7085	0.5167	FIXCROSS	n/a	n/a	n/a	n/a	n/a	n/a	n/a	n/a
52.2252	0.9833	INK	6	Incongruent	niebieski	blue	zielony	green	hit	n/a
53.1888	n/a	RESPONSE	n/a	n/a	n/a	n/a	n/a	n/a	n/a	green
53.2085	1.0167	ITI	n/a	n/a	n/a	n/a	n/a	n/a	n/a	n/a
54.2252	0.5167	FIXCROSS	n/a	n/a	n/a	n/a	n/a	n/a	n/a	n/a
54.7418	0.9333	INK	7	Neutral	xxxxxxxxx	xxxxxxxxx	czerwony	red	hit	n/a
55.6523	n/a	RESPONSE	n/a	n/a	n/a	n/a	n/a	n/a	n/a	red
55.6752	1.0167	ITI	n/a	n/a	n/a	n/a	n/a	n/a	n/a	n/a
56.6918	0.5167	FIXCROSS	n/a	n/a	n/a	n/a	n/a	n/a	n/a	n/a
57.2085	1.05	INK	8	Incongruent	żółty	yellow	niebieski	blue	hit	n/a
58.2278	n/a	RESPONSE	n/a	n/a	n/a	n/a	n/a	n/a	n/a	blue
58.2585	1.0167	ITI	n/a	n/a	n/a	n/a	n/a	n/a	n/a	n/a
59.2752	0.5167	FIXCROSS	n/a	n/a	n/a	n/a	n/a	n/a	n/a	n/a
59.7919	1.3333	INK	9	Incongruent	zielony	green	żółty	yellow	hit	n/a
61.1072	n/a	RESPONSE	n/a	n/a	n/a	n/a	n/a	n/a	n/a	yellow
61.1252	1.0167	ITI	n/a	n/a	n/a	n/a	n/a	n/a	n/a	n/a
62.1419	0.5167	FIXCROSS	n/a	n/a	n/a	n/a	n/a	n/a	n/a	n/a
62.6586	1.1667	INK	10	Incongruent	żółty	yellow	zielony	green	hit	n/a
63.7946	n/a	RESPONSE	n/a	n/a	n/a	n/a	n/a	n/a	n/a	green
63.8252	1.0167	ITI	n/a	n/a	n/a	n/a	n/a	n/a	n/a	n/a
64.8419	0.5167	FIXCROSS	n/a	n/a	n/a	n/a	n/a	n/a	n/a	n/a
65.3586	0.7833	INK	11	Neutral	xxxxxxxx	xxxxxxxx	żółty	yellow	hit	n/a
66.1141	n/a	RESPONSE	n/a	n/a	n/a	n/a	n/a	n/a	n/a	yellow
66.1419	1.0167	ITI	n/a	n/a	n/a	n/a	n/a	n/a	n/a	n/a
67.1586	0.5167	FIXCROSS	n/a	n/a	n/a	n/a	n/a	n/a	n/a	n/a
67.6753	1.0333	INK	12	Neutral	xxxxx	xxxxx	zielony	green	hit	n/a
68.6896	n/a	RESPONSE	n/a	n/a	n/a	n/a	n/a	n/a	n/a	green
68.7086	1.0167	ITI	n/a	n/a	n/a	n/a	n/a	n/a	n/a	n/a
69.7253	0.5167	FIXCROSS	n/a	n/a	n/a	n/a	n/a	n/a	n/a	n/a
70.2419	0.75	INK	13	Incongruent	zielony	green	czerwony	red	hit	n/a
70.9611	n/a	RESPONSE	n/a	n/a	n/a	n/a	n/a	n/a	n/a	red
70.9919	1.0167	ITI	n/a	n/a	n/a	n/a	n/a	n/a	n/a	n/a
72.0086	0.5167	FIXCROSS	n/a	n/a	n/a	n/a	n/a	n/a	n/a	n/a
72.5253	1.1	INK	14	Incongruent	czerwony	red	zielony	green	hit	n/a
73.6006	n/a	RESPONSE	n/a	n/a	n/a	n/a	n/a	n/a	n/a	green
73.6253	1.0167	ITI	n/a	n/a	n/a	n/a	n/a	n/a	n/a	n/a
74.642	0.5167	FIXCROSS	n/a	n/a	n/a	n/a	n/a	n/a	n/a	n/a
75.1586	0.7833	INK	15	Neutral	xxxxxxxxx	xxxxxxxxx	żółty	yellow	hit	n/a
75.9201	n/a	RESPONSE	n/a	n/a	n/a	n/a	n/a	n/a	n/a	yellow
75.942	1.0167	ITI	n/a	n/a	n/a	n/a	n/a	n/a	n/a	n/a
76.9587	0.5167	FIXCROSS	n/a	n/a	n/a	n/a	n/a	n/a	n/a	n/a
77.4753	1.1	INK	16	Neutral	xxxxxxx	xxxxxxx	czerwony	red	hit	n/a
78.5435	n/a	RESPONSE	n/a	n/a	n/a	n/a	n/a	n/a	n/a	red
78.5753	1.0167	ITI	n/a	n/a	n/a	n/a	n/a	n/a	n/a	n/a
79.592	0.5167	FIXCROSS	n/a	n/a	n/a	n/a	n/a	n/a	n/a	n/a
80.1087	0.5833	INK	17	Neutral	xxxxxxxxx	xxxxxxxxx	czerwony	red	hit	n/a
80.6711	n/a	RESPONSE	n/a	n/a	n/a	n/a	n/a	n/a	n/a	red
80.692	1.0167	ITI	n/a	n/a	n/a	n/a	n/a	n/a	n/a	n/a
81.7087	0.5167	FIXCROSS	n/a	n/a	n/a	n/a	n/a	n/a	n/a	n/a
82.2254	0.7333	INK	18	Incongruent	żółty	yellow	czerwony	red	hit	n/a
82.9266	n/a	RESPONSE	n/a	n/a	n/a	n/a	n/a	n/a	n/a	red
82.9587	1.0167	ITI	n/a	n/a	n/a	n/a	n/a	n/a	n/a	n/a
83.9754	0.5167	FIXCROSS	n/a	n/a	n/a	n/a	n/a	n/a	n/a	n/a
84.492	0.5	INK	19	Neutral	xxxxxxx	xxxxxxx	czerwony	red	hit	n/a
84.9582	n/a	RESPONSE	n/a	n/a	n/a	n/a	n/a	n/a	n/a	red
84.992	1.0167	ITI	n/a	n/a	n/a	n/a	n/a	n/a	n/a	n/a
86.0087	0.5167	FIXCROSS	n/a	n/a	n/a	n/a	n/a	n/a	n/a	n/a
86.5254	0.9	INK	20	Incongruent	zielony	green	niebieski	blue	hit	n/a
87.4056	n/a	RESPONSE	n/a	n/a	n/a	n/a	n/a	n/a	n/a	blue
87.4254	1.0167	ITI	n/a	n/a	n/a	n/a	n/a	n/a	n/a	n/a
88.4421	0.5167	FIXCROSS	n/a	n/a	n/a	n/a	n/a	n/a	n/a	n/a
88.9587	0.9667	INK	21	Incongruent	czerwony	red	zielony	green	hit	n/a
89.9012	n/a	RESPONSE	n/a	n/a	n/a	n/a	n/a	n/a	n/a	green
89.9254	1.0167	ITI	n/a	n/a	n/a	n/a	n/a	n/a	n/a	n/a
90.9421	0.5167	FIXCROSS	n/a	n/a	n/a	n/a	n/a	n/a	n/a	n/a
91.4588	0.85	INK	22	Incongruent	zielony	green	żółty	yellow	hit	n/a
92.2846	n/a	RESPONSE	n/a	n/a	n/a	n/a	n/a	n/a	n/a	yellow
92.3088	1.0167	ITI	n/a	n/a	n/a	n/a	n/a	n/a	n/a	n/a
93.3254	0.5167	FIXCROSS	n/a	n/a	n/a	n/a	n/a	n/a	n/a	n/a
93.8421	0.9	INK	23	Neutral	xxxxx	xxxxx	zielony	green	hit	n/a
94.7161	n/a	RESPONSE	n/a	n/a	n/a	n/a	n/a	n/a	n/a	green
94.7421	1.0167	ITI	n/a	n/a	n/a	n/a	n/a	n/a	n/a	n/a
95.7588	0.5167	FIXCROSS	n/a	n/a	n/a	n/a	n/a	n/a	n/a	n/a
96.2755	0.85	INK	24	Incongruent	niebieski	blue	żółty	yellow	hit	n/a
97.0996	n/a	RESPONSE	n/a	n/a	n/a	n/a	n/a	n/a	n/a	yellow
97.1255	1.0167	ITI	n/a	n/a	n/a	n/a	n/a	n/a	n/a	n/a
98.1421	0.5167	FIXCROSS	n/a	n/a	n/a	n/a	n/a	n/a	n/a	n/a
98.6588	0.9667	INK	25	Incongruent	zielony	green	czerwony	red	hit	n/a
99.5951	n/a	RESPONSE	n/a	n/a	n/a	n/a	n/a	n/a	n/a	red
99.6255	1.0167	ITI	n/a	n/a	n/a	n/a	n/a	n/a	n/a	n/a
100.6421	0.5167	FIXCROSS	n/a	n/a	n/a	n/a	n/a	n/a	n/a	n/a
101.1588	0.55	INK	26	Neutral	xxxxxxxxx	xxxxxxxxx	czerwony	red	hit	n/a
101.6906	n/a	RESPONSE	n/a	n/a	n/a	n/a	n/a	n/a	n/a	red
101.7088	1.0167	ITI	n/a	n/a	n/a	n/a	n/a	n/a	n/a	n/a
102.7255	0.5167	FIXCROSS	n/a	n/a	n/a	n/a	n/a	n/a	n/a	n/a
103.2422	1.1167	INK	27	Incongruent	niebieski	blue	żółty	yellow	hit	n/a
104.3301	n/a	RESPONSE	n/a	n/a	n/a	n/a	n/a	n/a	n/a	yellow
104.3588	1.0167	ITI	n/a	n/a	n/a	n/a	n/a	n/a	n/a	n/a
105.3755	0.5167	FIXCROSS	n/a	n/a	n/a	n/a	n/a	n/a	n/a	n/a
105.8922	0.95	INK	28	Incongruent	niebieski	blue	zielony	green	hit	n/a
106.8096	n/a	RESPONSE	n/a	n/a	n/a	n/a	n/a	n/a	n/a	green
106.8422	1.0167	ITI	n/a	n/a	n/a	n/a	n/a	n/a	n/a	n/a
107.8589	0.5167	FIXCROSS	n/a	n/a	n/a	n/a	n/a	n/a	n/a	n/a
108.3755	0.95	INK	29	Incongruent	zielony	green	czerwony	red	hit	n/a
109.305	n/a	RESPONSE	n/a	n/a	n/a	n/a	n/a	n/a	n/a	red
109.3256	1.0167	ITI	n/a	n/a	n/a	n/a	n/a	n/a	n/a	n/a
110.3422	0.5167	FIXCROSS	n/a	n/a	n/a	n/a	n/a	n/a	n/a	n/a
110.8589	0.6333	INK	30	Incongruent	niebieski	blue	czerwony	red	hit	n/a
111.4646	n/a	RESPONSE	n/a	n/a	n/a	n/a	n/a	n/a	n/a	red
111.4922	1.0167	ITI	n/a	n/a	n/a	n/a	n/a	n/a	n/a	n/a
112.5089	0.5167	FIXCROSS	n/a	n/a	n/a	n/a	n/a	n/a	n/a	n/a
113.0256	0.9333	INK	31	Neutral	xxxxx	xxxxx	zielony	green	hit	n/a
113.9281	n/a	RESPONSE	n/a	n/a	n/a	n/a	n/a	n/a	n/a	green
113.9589	1.0167	ITI	n/a	n/a	n/a	n/a	n/a	n/a	n/a	n/a
114.9756	0.5167	FIXCROSS	n/a	n/a	n/a	n/a	n/a	n/a	n/a	n/a
115.4922	0.7167	INK	32	Incongruent	żółty	yellow	zielony	green	hit	n/a
116.1836	n/a	RESPONSE	n/a	n/a	n/a	n/a	n/a	n/a	n/a	green
116.2089	1.0167	ITI	n/a	n/a	n/a	n/a	n/a	n/a	n/a	n/a
117.2256	0.5167	FIXCROSS	n/a	n/a	n/a	n/a	n/a	n/a	n/a	n/a
117.7423	0.85	INK	33	Incongruent	niebieski	blue	czerwony	red	hit	n/a
118.5671	n/a	RESPONSE	n/a	n/a	n/a	n/a	n/a	n/a	n/a	red
118.5923	1.0167	ITI	n/a	n/a	n/a	n/a	n/a	n/a	n/a	n/a
119.609	0.5167	FIXCROSS	n/a	n/a	n/a	n/a	n/a	n/a	n/a	n/a
120.1256	0.8167	INK	34	Incongruent	zielony	green	żółty	yellow	hit	n/a
120.9186	n/a	RESPONSE	n/a	n/a	n/a	n/a	n/a	n/a	n/a	yellow
120.9423	1.0167	ITI	n/a	n/a	n/a	n/a	n/a	n/a	n/a	n/a
121.959	0.5167	FIXCROSS	n/a	n/a	n/a	n/a	n/a	n/a	n/a	n/a
122.4756	0.5167	INK	35	Incongruent	niebieski	blue	żółty	yellow	hit	n/a
122.9662	n/a	RESPONSE	n/a	n/a	n/a	n/a	n/a	n/a	n/a	yellow
122.9923	1.0167	ITI	n/a	n/a	n/a	n/a	n/a	n/a	n/a	n/a
124.009	0.5167	FIXCROSS	n/a	n/a	n/a	n/a	n/a	n/a	n/a	n/a
124.5256	0.8667	INK	36	Neutral	xxxxxxxxx	xxxxxxxxx	zielony	green	hit	n/a
125.3656	n/a	RESPONSE	n/a	n/a	n/a	n/a	n/a	n/a	n/a	green
125.3923	1.0167	ITI	n/a	n/a	n/a	n/a	n/a	n/a	n/a	n/a
126.409	0.5167	FIXCROSS	n/a	n/a	n/a	n/a	n/a	n/a	n/a	n/a
126.9257	0.75	INK	37	Neutral	xxxxxxxx	xxxxxxxx	zielony	green	hit	n/a
127.6532	n/a	RESPONSE	n/a	n/a	n/a	n/a	n/a	n/a	n/a	green
127.6757	1.0167	ITI	n/a	n/a	n/a	n/a	n/a	n/a	n/a	n/a
128.6923	0.5167	FIXCROSS	n/a	n/a	n/a	n/a	n/a	n/a	n/a	n/a
129.209	0.4167	INK	38	Neutral	xxxxxxxx	xxxxxxxx	zielony	green	hit	n/a
129.6048	n/a	RESPONSE	n/a	n/a	n/a	n/a	n/a	n/a	n/a	green
129.6257	1.0167	ITI	n/a	n/a	n/a	n/a	n/a	n/a	n/a	n/a
130.6423	0.5167	FIXCROSS	n/a	n/a	n/a	n/a	n/a	n/a	n/a	n/a
131.159	1.2167	INK	39	Neutral	xxxxxxx	xxxxxxx	niebieski	blue	hit	n/a
132.3562	n/a	RESPONSE	n/a	n/a	n/a	n/a	n/a	n/a	n/a	blue
132.3757	1.0167	ITI	n/a	n/a	n/a	n/a	n/a	n/a	n/a	n/a
133.3924	0.5167	FIXCROSS	n/a	n/a	n/a	n/a	n/a	n/a	n/a	n/a
133.909	1.2167	INK	40	Incongruent	żółty	yellow	czerwony	red	hit	n/a
135.1076	n/a	RESPONSE	n/a	n/a	n/a	n/a	n/a	n/a	n/a	red
135.1257	1.0167	ITI	n/a	n/a	n/a	n/a	n/a	n/a	n/a	n/a
136.1424	0.5167	FIXCROSS	n/a	n/a	n/a	n/a	n/a	n/a	n/a	n/a
136.6591	0.9	INK	41	Incongruent	czerwony	red	niebieski	blue	hit	n/a
137.5391	n/a	RESPONSE	n/a	n/a	n/a	n/a	n/a	n/a	n/a	blue
137.5591	1.0167	ITI	n/a	n/a	n/a	n/a	n/a	n/a	n/a	n/a
138.5757	0.5167	FIXCROSS	n/a	n/a	n/a	n/a	n/a	n/a	n/a	n/a
139.0924	0.7167	INK	42	Neutral	xxxxx	xxxxx	czerwony	red	hit	n/a
139.7786	n/a	RESPONSE	n/a	n/a	n/a	n/a	n/a	n/a	n/a	red
139.8091	1.0167	ITI	n/a	n/a	n/a	n/a	n/a	n/a	n/a	n/a
140.8258	0.5167	FIXCROSS	n/a	n/a	n/a	n/a	n/a	n/a	n/a	n/a
141.3424	0.9667	INK	43	Incongruent	zielony	green	niebieski	blue	hit	n/a
142.2901	n/a	RESPONSE	n/a	n/a	n/a	n/a	n/a	n/a	n/a	blue
142.3091	1.0167	ITI	n/a	n/a	n/a	n/a	n/a	n/a	n/a	n/a
143.3258	0.5167	FIXCROSS	n/a	n/a	n/a	n/a	n/a	n/a	n/a	n/a
143.8424	0.9667	INK	44	Neutral	xxxxxxxxx	xxxxxxxxx	zielony	green	hit	n/a
144.7856	n/a	RESPONSE	n/a	n/a	n/a	n/a	n/a	n/a	n/a	green
144.8091	1.0167	ITI	n/a	n/a	n/a	n/a	n/a	n/a	n/a	n/a
145.8258	0.5167	FIXCROSS	n/a	n/a	n/a	n/a	n/a	n/a	n/a	n/a
146.3425	0.85	INK	45	Neutral	xxxxx	xxxxx	niebieski	blue	hit	n/a
147.1691	n/a	RESPONSE	n/a	n/a	n/a	n/a	n/a	n/a	n/a	blue
147.1925	1.0167	ITI	n/a	n/a	n/a	n/a	n/a	n/a	n/a	n/a
148.2091	0.5167	FIXCROSS	n/a	n/a	n/a	n/a	n/a	n/a	n/a	n/a
148.7258	0.95	INK	46	Incongruent	żółty	yellow	czerwony	red	hit	n/a
149.6485	n/a	RESPONSE	n/a	n/a	n/a	n/a	n/a	n/a	n/a	red
149.6758	1.0167	ITI	n/a	n/a	n/a	n/a	n/a	n/a	n/a	n/a
150.6925	0.5167	FIXCROSS	n/a	n/a	n/a	n/a	n/a	n/a	n/a	n/a
151.2092	0.9833	INK	47	Neutral	xxxxxxxx	xxxxxxxx	niebieski	blue	hit	n/a
152.16	n/a	RESPONSE	n/a	n/a	n/a	n/a	n/a	n/a	n/a	blue
152.1925	1.0167	ITI	n/a	n/a	n/a	n/a	n/a	n/a	n/a	n/a
153.2092	0.5167	FIXCROSS	n/a	n/a	n/a	n/a	n/a	n/a	n/a	n/a
153.7258	0.75	INK	48	Neutral	xxxxxxx	xxxxxxx	żółty	yellow	hit	n/a
154.4475	n/a	RESPONSE	n/a	n/a	n/a	n/a	n/a	n/a	n/a	yellow
154.4759	1.0167	ITI	n/a	n/a	n/a	n/a	n/a	n/a	n/a	n/a
155.4925	0.5167	FIXCROSS	n/a	n/a	n/a	n/a	n/a	n/a	n/a	n/a
156.0092	0.4667	INK	49	Neutral	xxxxxxxx	xxxxxxxx	żółty	yellow	hit	n/a
156.4471	n/a	RESPONSE	n/a	n/a	n/a	n/a	n/a	n/a	n/a	yellow
156.4759	1.0167	ITI	n/a	n/a	n/a	n/a	n/a	n/a	n/a	n/a
157.4925	0.5167	FIXCROSS	n/a	n/a	n/a	n/a	n/a	n/a	n/a	n/a
158.0092	0.8167	INK	50	Neutral	xxxxxxx	xxxxxxx	niebieski	blue	hit	n/a
158.7986	n/a	RESPONSE	n/a	n/a	n/a	n/a	n/a	n/a	n/a	blue
158.8259	1.0167	ITI	n/a	n/a	n/a	n/a	n/a	n/a	n/a	n/a
159.8425	0.5167	FIXCROSS	n/a	n/a	n/a	n/a	n/a	n/a	n/a	n/a
160.3592	0.7833	INK	51	Neutral	xxxxx	xxxxx	czerwony	red	hit	n/a
161.1181	n/a	RESPONSE	n/a	n/a	n/a	n/a	n/a	n/a	n/a	red
161.1426	1.0167	ITI	n/a	n/a	n/a	n/a	n/a	n/a	n/a	n/a
162.1592	0.5167	FIXCROSS	n/a	n/a	n/a	n/a	n/a	n/a	n/a	n/a
162.6759	1.0167	INK	52	Neutral	xxxxx	xxxxx	niebieski	blue	hit	n/a
163.6616	n/a	RESPONSE	n/a	n/a	n/a	n/a	n/a	n/a	n/a	blue
163.6926	1.0167	ITI	n/a	n/a	n/a	n/a	n/a	n/a	n/a	n/a
164.7092	0.5167	FIXCROSS	n/a	n/a	n/a	n/a	n/a	n/a	n/a	n/a
165.2259	0.8658	INK	53	Incongruent	czerwony	red	żółty	yellow	hit	n/a
166.0611	n/a	RESPONSE	n/a	n/a	n/a	n/a	n/a	n/a	n/a	yellow
166.0917	1.0176	ITI	n/a	n/a	n/a	n/a	n/a	n/a	n/a	n/a
167.1093	0.5167	FIXCROSS	n/a	n/a	n/a	n/a	n/a	n/a	n/a	n/a
167.6259	0.85	INK	54	Incongruent	żółty	yellow	niebieski	blue	hit	n/a
168.4446	n/a	RESPONSE	n/a	n/a	n/a	n/a	n/a	n/a	n/a	blue
168.4759	1.0167	ITI	n/a	n/a	n/a	n/a	n/a	n/a	n/a	n/a
169.4926	0.5167	FIXCROSS	n/a	n/a	n/a	n/a	n/a	n/a	n/a	n/a
170.0093	0.9833	INK	55	Neutral	xxxxxxxxx	xxxxxxxxx	zielony	green	hit	n/a
170.972	n/a	RESPONSE	n/a	n/a	n/a	n/a	n/a	n/a	n/a	green
170.9926	1.0167	ITI	n/a	n/a	n/a	n/a	n/a	n/a	n/a	n/a
172.0093	0.5167	FIXCROSS	n/a	n/a	n/a	n/a	n/a	n/a	n/a	n/a
172.526	0.8833	INK	56	Neutral	xxxxxxx	xxxxxxx	niebieski	blue	hit	n/a
173.3875	n/a	RESPONSE	n/a	n/a	n/a	n/a	n/a	n/a	n/a	blue
173.4093	1.0167	ITI	n/a	n/a	n/a	n/a	n/a	n/a	n/a	n/a
174.426	0.5167	FIXCROSS	n/a	n/a	n/a	n/a	n/a	n/a	n/a	n/a
174.9426	0.9167	INK	57	Neutral	xxxxxxxxx	xxxxxxxxx	żółty	yellow	hit	n/a
175.835	n/a	RESPONSE	n/a	n/a	n/a	n/a	n/a	n/a	n/a	yellow
175.8593	1.0167	ITI	n/a	n/a	n/a	n/a	n/a	n/a	n/a	n/a
176.876	0.5167	FIXCROSS	n/a	n/a	n/a	n/a	n/a	n/a	n/a	n/a
177.3927	0.6	INK	58	Neutral	xxxxxxx	xxxxxxx	żółty	yellow	hit	n/a
177.9626	n/a	RESPONSE	n/a	n/a	n/a	n/a	n/a	n/a	n/a	yellow
177.9927	1.0167	ITI	n/a	n/a	n/a	n/a	n/a	n/a	n/a	n/a
179.0093	0.5167	FIXCROSS	n/a	n/a	n/a	n/a	n/a	n/a	n/a	n/a
179.526	0.9	INK	59	Neutral	xxxxxxx	xxxxxxx	czerwony	red	hit	n/a
180.3941	n/a	RESPONSE	n/a	n/a	n/a	n/a	n/a	n/a	n/a	red
180.426	1.0167	ITI	n/a	n/a	n/a	n/a	n/a	n/a	n/a	n/a
181.4427	0.5167	FIXCROSS	n/a	n/a	n/a	n/a	n/a	n/a	n/a	n/a
181.9594	0.7167	INK	60	Neutral	xxxxxxxxx	xxxxxxxxx	żółty	yellow	hit	n/a
182.6496	n/a	RESPONSE	n/a	n/a	n/a	n/a	n/a	n/a	n/a	yellow
182.676	1.0167	ITI	n/a	n/a	n/a	n/a	n/a	n/a	n/a	n/a
183.6927	0.5167	FIXCROSS	n/a	n/a	n/a	n/a	n/a	n/a	n/a	n/a
184.2094	1.0333	INK	61	Neutral	xxxxxxxx	xxxxxxxx	zielony	green	hit	n/a
185.2091	n/a	RESPONSE	n/a	n/a	n/a	n/a	n/a	n/a	n/a	green
185.2427	1.0167	ITI	n/a	n/a	n/a	n/a	n/a	n/a	n/a	n/a
186.2594	0.5167	FIXCROSS	n/a	n/a	n/a	n/a	n/a	n/a	n/a	n/a
186.7761	0.95	INK	62	Incongruent	niebieski	blue	czerwony	red	hit	n/a
187.7045	n/a	RESPONSE	n/a	n/a	n/a	n/a	n/a	n/a	n/a	red
187.7261	1.0167	ITI	n/a	n/a	n/a	n/a	n/a	n/a	n/a	n/a
188.7428	0.5167	FIXCROSS	n/a	n/a	n/a	n/a	n/a	n/a	n/a	n/a
189.2594	0.8667	INK	63	Neutral	xxxxxxxx	xxxxxxxx	niebieski	blue	hit	n/a
190.104	n/a	RESPONSE	n/a	n/a	n/a	n/a	n/a	n/a	n/a	blue
190.1261	1.0167	ITI	n/a	n/a	n/a	n/a	n/a	n/a	n/a	n/a
191.1428	0.5167	FIXCROSS	n/a	n/a	n/a	n/a	n/a	n/a	n/a	n/a
191.6594	0.65	INK	64	Neutral	xxxxx	xxxxx	niebieski	blue	hit	n/a
192.2796	n/a	RESPONSE	n/a	n/a	n/a	n/a	n/a	n/a	n/a	blue
192.3094	1.0167	ITI	n/a	n/a	n/a	n/a	n/a	n/a	n/a	n/a
193.3261	0.5167	FIXCROSS	n/a	n/a	n/a	n/a	n/a	n/a	n/a	n/a
193.8428	0.4333	INK	65	Neutral	xxxxxxxx	xxxxxxxx	niebieski	blue	hit	n/a
194.2471	n/a	RESPONSE	n/a	n/a	n/a	n/a	n/a	n/a	n/a	blue
194.2761	1.0167	ITI	n/a	n/a	n/a	n/a	n/a	n/a	n/a	n/a
195.2928	0.5167	FIXCROSS	n/a	n/a	n/a	n/a	n/a	n/a	n/a	n/a
195.8095	0.95	INK	66	Incongruent	żółty	yellow	zielony	green	hit	n/a
196.7266	n/a	RESPONSE	n/a	n/a	n/a	n/a	n/a	n/a	n/a	green
196.7595	1.0167	ITI	n/a	n/a	n/a	n/a	n/a	n/a	n/a	n/a
197.7761	0.5167	FIXCROSS	n/a	n/a	n/a	n/a	n/a	n/a	n/a	n/a
198.2928	0.7833	INK	67	Neutral	xxxxx	xxxxx	czerwony	red	hit	n/a
199.0461	n/a	RESPONSE	n/a	n/a	n/a	n/a	n/a	n/a	n/a	red
199.0762	1.0167	ITI	n/a	n/a	n/a	n/a	n/a	n/a	n/a	n/a
200.0928	0.5167	FIXCROSS	n/a	n/a	n/a	n/a	n/a	n/a	n/a	n/a
200.6095	0.8833	INK	68	Incongruent	niebieski	blue	zielony	green	hit	n/a
201.4616	n/a	RESPONSE	n/a	n/a	n/a	n/a	n/a	n/a	n/a	green
201.4928	1.0167	ITI	n/a	n/a	n/a	n/a	n/a	n/a	n/a	n/a
202.5095	0.5167	FIXCROSS	n/a	n/a	n/a	n/a	n/a	n/a	n/a	n/a
203.0262	1.0667	INK	69	Incongruent	czerwony	red	niebieski	blue	hit	n/a
204.0691	n/a	RESPONSE	n/a	n/a	n/a	n/a	n/a	n/a	n/a	blue
204.0928	1.0167	ITI	n/a	n/a	n/a	n/a	n/a	n/a	n/a	n/a
205.1095	0.5167	FIXCROSS	n/a	n/a	n/a	n/a	n/a	n/a	n/a	n/a
205.6262	1.0667	INK	70	Incongruent	czerwony	red	zielony	green	hit	n/a
206.6605	n/a	RESPONSE	n/a	n/a	n/a	n/a	n/a	n/a	n/a	green
206.6929	1.0167	ITI	n/a	n/a	n/a	n/a	n/a	n/a	n/a	n/a
207.7095	0.5167	FIXCROSS	n/a	n/a	n/a	n/a	n/a	n/a	n/a	n/a
208.2262	0.9333	INK	71	Incongruent	żółty	yellow	niebieski	blue	hit	n/a
209.14	n/a	RESPONSE	n/a	n/a	n/a	n/a	n/a	n/a	n/a	blue
209.1596	1.0167	ITI	n/a	n/a	n/a	n/a	n/a	n/a	n/a	n/a
210.1762	0.5167	FIXCROSS	n/a	n/a	n/a	n/a	n/a	n/a	n/a	n/a
210.6929	0.75	INK	72	Incongruent	czerwony	red	żółty	yellow	hit	n/a
211.4115	n/a	RESPONSE	n/a	n/a	n/a	n/a	n/a	n/a	n/a	yellow
211.4429	1.0833	ITI	n/a	n/a	n/a	n/a	n/a	n/a	n/a	n/a
222.4332	n/a	RESPONSE	n/a	n/a	n/a	n/a	n/a	n/a	n/a	n/a
222.493	1.0167	ITI	n/a	n/a	n/a	n/a	n/a	n/a	n/a	n/a
223.5096	0.5167	FIXCROSS	n/a	n/a	n/a	n/a	n/a	n/a	n/a	n/a
224.0263	1.65	T_COLOR_NAME	1	Incongruent	niebieski	blue	zielony	green	hit	n/a
225.6485	n/a	RESPONSE	n/a	n/a	n/a	n/a	n/a	n/a	n/a	blue
225.6763	0.5167	FEEDBACK	n/a	n/a	n/a	n/a	n/a	n/a	n/a	n/a
226.193	1.0167	ITI	n/a	n/a	n/a	n/a	n/a	n/a	n/a	n/a
227.2097	0.5167	FIXCROSS	n/a	n/a	n/a	n/a	n/a	n/a	n/a	n/a
227.7263	0.75	T_COLOR_NAME	2	Neutral	niebieski	blue	Neutral	Neutral	hit	n/a
228.4479	n/a	RESPONSE	n/a	n/a	n/a	n/a	n/a	n/a	n/a	blue
228.4763	0.5167	FEEDBACK	n/a	n/a	n/a	n/a	n/a	n/a	n/a	n/a
228.993	1.0167	ITI	n/a	n/a	n/a	n/a	n/a	n/a	n/a	n/a
230.0097	0.5167	FIXCROSS	n/a	n/a	n/a	n/a	n/a	n/a	n/a	n/a
230.5264	0.6167	T_COLOR_NAME	3	Incongruent	niebieski	blue	czerwony	red	hit	n/a
231.1194	n/a	RESPONSE	n/a	n/a	n/a	n/a	n/a	n/a	n/a	blue
231.143	0.5167	FEEDBACK	n/a	n/a	n/a	n/a	n/a	n/a	n/a	n/a
231.6597	1.0167	ITI	n/a	n/a	n/a	n/a	n/a	n/a	n/a	n/a
232.6764	0.5167	FIXCROSS	n/a	n/a	n/a	n/a	n/a	n/a	n/a	n/a
233.193	1.3667	T_COLOR_NAME	4	Neutral	czerwony	red	Neutral	Neutral	hit	n/a
234.5267	n/a	RESPONSE	n/a	n/a	n/a	n/a	n/a	n/a	n/a	red
234.5597	0.5167	FEEDBACK	n/a	n/a	n/a	n/a	n/a	n/a	n/a	n/a
235.0764	1.0167	ITI	n/a	n/a	n/a	n/a	n/a	n/a	n/a	n/a
236.0931	0.5167	FIXCROSS	n/a	n/a	n/a	n/a	n/a	n/a	n/a	n/a
236.6097	1.1333	T_COLOR_NAME	5	Neutral	żółty	yellow	Neutral	Neutral	hit	n/a
237.71	n/a	RESPONSE	n/a	n/a	n/a	n/a	n/a	n/a	n/a	yellow
237.7431	0.5167	FEEDBACK	n/a	n/a	n/a	n/a	n/a	n/a	n/a	n/a
238.2598	1.0167	ITI	n/a	n/a	n/a	n/a	n/a	n/a	n/a	n/a
239.2764	0.5167	FIXCROSS	n/a	n/a	n/a	n/a	n/a	n/a	n/a	n/a
239.7931	1.2833	T_COLOR_NAME	6	Incongruent	czerwony	red	zielony	green	hit	n/a
241.0533	n/a	RESPONSE	n/a	n/a	n/a	n/a	n/a	n/a	n/a	red
241.0764	0.5167	FEEDBACK	n/a	n/a	n/a	n/a	n/a	n/a	n/a	n/a
241.5931	1.0167	ITI	n/a	n/a	n/a	n/a	n/a	n/a	n/a	n/a
242.6098	0.5167	FIXCROSS	n/a	n/a	n/a	n/a	n/a	n/a	n/a	n/a
243.1265	1.0333	T_COLOR_NAME	7	Neutral	zielony	green	Neutral	Neutral	hit	n/a
244.1247	n/a	RESPONSE	n/a	n/a	n/a	n/a	n/a	n/a	n/a	green
244.1598	0.5167	FEEDBACK	n/a	n/a	n/a	n/a	n/a	n/a	n/a	n/a
244.6765	1.0167	ITI	n/a	n/a	n/a	n/a	n/a	n/a	n/a	n/a
245.6931	0.5167	FIXCROSS	n/a	n/a	n/a	n/a	n/a	n/a	n/a	n/a
246.2098	0.8167	T_COLOR_NAME	8	Neutral	żółty	yellow	Neutral	Neutral	hit	n/a
247.004	n/a	RESPONSE	n/a	n/a	n/a	n/a	n/a	n/a	n/a	yellow
247.0265	0.5167	FEEDBACK	n/a	n/a	n/a	n/a	n/a	n/a	n/a	n/a
247.5432	1.0167	ITI	n/a	n/a	n/a	n/a	n/a	n/a	n/a	n/a
248.5598	0.5167	FIXCROSS	n/a	n/a	n/a	n/a	n/a	n/a	n/a	n/a
249.0765	1.15	T_COLOR_NAME	9	Neutral	niebieski	blue	Neutral	Neutral	hit	n/a
250.2034	n/a	RESPONSE	n/a	n/a	n/a	n/a	n/a	n/a	n/a	blue
250.2265	0.5167	FEEDBACK	n/a	n/a	n/a	n/a	n/a	n/a	n/a	n/a
250.7432	1.0167	ITI	n/a	n/a	n/a	n/a	n/a	n/a	n/a	n/a
251.7598	0.5167	FIXCROSS	n/a	n/a	n/a	n/a	n/a	n/a	n/a	n/a
252.2765	0.9833	T_COLOR_NAME	10	Incongruent	niebieski	blue	żółty	yellow	hit	n/a
253.2267	n/a	RESPONSE	n/a	n/a	n/a	n/a	n/a	n/a	n/a	blue
253.2598	0.5167	FEEDBACK	n/a	n/a	n/a	n/a	n/a	n/a	n/a	n/a
253.7765	1.0167	ITI	n/a	n/a	n/a	n/a	n/a	n/a	n/a	n/a
254.7932	0.5167	FIXCROSS	n/a	n/a	n/a	n/a	n/a	n/a	n/a	n/a
255.3099	1.5833	T_COLOR_NAME	11	Incongruent	zielony	green	czerwony	red	hit	n/a
256.8739	n/a	RESPONSE	n/a	n/a	n/a	n/a	n/a	n/a	n/a	green
256.8932	0.5167	FEEDBACK	n/a	n/a	n/a	n/a	n/a	n/a	n/a	n/a
257.4099	1.0167	ITI	n/a	n/a	n/a	n/a	n/a	n/a	n/a	n/a
258.4265	0.5167	FIXCROSS	n/a	n/a	n/a	n/a	n/a	n/a	n/a	n/a
258.9432	0.9167	T_COLOR_NAME	12	Neutral	niebieski	blue	Neutral	Neutral	hit	n/a
259.8333	n/a	RESPONSE	n/a	n/a	n/a	n/a	n/a	n/a	n/a	blue
259.8599	0.5167	FEEDBACK	n/a	n/a	n/a	n/a	n/a	n/a	n/a	n/a
260.3766	1.0333	ITI	n/a	n/a	n/a	n/a	n/a	n/a	n/a	n/a
264.4723	n/a	RESPONSE	n/a	n/a	n/a	n/a	n/a	n/a	n/a	n/a
264.5266	1.0167	ITI	n/a	n/a	n/a	n/a	n/a	n/a	n/a	n/a
265.5433	0.5167	FIXCROSS	n/a	n/a	n/a	n/a	n/a	n/a	n/a	n/a
266.0599	0.9	COLOR_NAME	1	Neutral	żółty	yellow	Neutral	Neutral	hit	n/a
266.9358	n/a	RESPONSE	n/a	n/a	n/a	n/a	n/a	n/a	n/a	yellow
266.9599	1.0167	ITI	n/a	n/a	n/a	n/a	n/a	n/a	n/a	n/a
267.9766	0.5167	FIXCROSS	n/a	n/a	n/a	n/a	n/a	n/a	n/a	n/a
268.4933	1.0833	COLOR_NAME	2	Incongruent	czerwony	red	zielony	green	hit	n/a
269.5593	n/a	RESPONSE	n/a	n/a	n/a	n/a	n/a	n/a	n/a	red
269.5766	1.0167	ITI	n/a	n/a	n/a	n/a	n/a	n/a	n/a	n/a
270.5933	0.5167	FIXCROSS	n/a	n/a	n/a	n/a	n/a	n/a	n/a	n/a
271.11	0.55	COLOR_NAME	3	Neutral	czerwony	red	Neutral	Neutral	hit	n/a
271.6389	n/a	RESPONSE	n/a	n/a	n/a	n/a	n/a	n/a	n/a	red
271.66	1.0167	ITI	n/a	n/a	n/a	n/a	n/a	n/a	n/a	n/a
272.6767	0.5167	FIXCROSS	n/a	n/a	n/a	n/a	n/a	n/a	n/a	n/a
273.1933	0.75	COLOR_NAME	4	Incongruent	czerwony	red	żółty	yellow	hit	n/a
273.9104	n/a	RESPONSE	n/a	n/a	n/a	n/a	n/a	n/a	n/a	red
273.9433	1.0167	ITI	n/a	n/a	n/a	n/a	n/a	n/a	n/a	n/a
274.96	0.5167	FIXCROSS	n/a	n/a	n/a	n/a	n/a	n/a	n/a	n/a
275.4767	0.9333	COLOR_NAME	5	Neutral	zielony	green	Neutral	Neutral	hit	n/a
276.3898	n/a	RESPONSE	n/a	n/a	n/a	n/a	n/a	n/a	n/a	green
276.41	1.0167	ITI	n/a	n/a	n/a	n/a	n/a	n/a	n/a	n/a
277.4267	0.5167	FIXCROSS	n/a	n/a	n/a	n/a	n/a	n/a	n/a	n/a
277.9433	0.7833	COLOR_NAME	6	Incongruent	czerwony	red	żółty	yellow	hit	n/a
278.7094	n/a	RESPONSE	n/a	n/a	n/a	n/a	n/a	n/a	n/a	red
278.7267	1.0167	ITI	n/a	n/a	n/a	n/a	n/a	n/a	n/a	n/a
279.7434	0.5167	FIXCROSS	n/a	n/a	n/a	n/a	n/a	n/a	n/a	n/a
280.26	0.7	COLOR_NAME	7	Neutral	czerwony	red	Neutral	Neutral	hit	n/a
280.9329	n/a	RESPONSE	n/a	n/a	n/a	n/a	n/a	n/a	n/a	red
280.96	1.0167	ITI	n/a	n/a	n/a	n/a	n/a	n/a	n/a	n/a
281.9767	0.5167	FIXCROSS	n/a	n/a	n/a	n/a	n/a	n/a	n/a	n/a
282.4934	1.0167	COLOR_NAME	8	Incongruent	niebieski	blue	zielony	green	hit	n/a
283.4764	n/a	RESPONSE	n/a	n/a	n/a	n/a	n/a	n/a	n/a	blue
283.5101	1.0167	ITI	n/a	n/a	n/a	n/a	n/a	n/a	n/a	n/a
284.5267	0.5167	FIXCROSS	n/a	n/a	n/a	n/a	n/a	n/a	n/a	n/a
285.0434	0.95	COLOR_NAME	9	Neutral	czerwony	red	Neutral	Neutral	hit	n/a
285.9718	n/a	RESPONSE	n/a	n/a	n/a	n/a	n/a	n/a	n/a	red
285.9934	1.0167	ITI	n/a	n/a	n/a	n/a	n/a	n/a	n/a	n/a
287.0101	0.5167	FIXCROSS	n/a	n/a	n/a	n/a	n/a	n/a	n/a	n/a
287.5267	0.8	COLOR_NAME	10	Incongruent	żółty	yellow	czerwony	red	hit	n/a
288.3073	n/a	RESPONSE	n/a	n/a	n/a	n/a	n/a	n/a	n/a	yellow
288.3268	1.0167	ITI	n/a	n/a	n/a	n/a	n/a	n/a	n/a	n/a
289.3434	0.5167	FIXCROSS	n/a	n/a	n/a	n/a	n/a	n/a	n/a	n/a
289.8601	0.6167	COLOR_NAME	11	Neutral	żółty	yellow	Neutral	Neutral	hit	n/a
290.4508	n/a	RESPONSE	n/a	n/a	n/a	n/a	n/a	n/a	n/a	yellow
290.4768	1.0167	ITI	n/a	n/a	n/a	n/a	n/a	n/a	n/a	n/a
291.4934	0.5167	FIXCROSS	n/a	n/a	n/a	n/a	n/a	n/a	n/a	n/a
292.0101	0.7333	COLOR_NAME	12	Neutral	czerwony	red	Neutral	Neutral	hit	n/a
292.7224	n/a	RESPONSE	n/a	n/a	n/a	n/a	n/a	n/a	n/a	red
292.7434	1.0167	ITI	n/a	n/a	n/a	n/a	n/a	n/a	n/a	n/a
293.7601	0.5167	FIXCROSS	n/a	n/a	n/a	n/a	n/a	n/a	n/a	n/a
294.2768	0.7167	COLOR_NAME	13	Incongruent	czerwony	red	niebieski	blue	hit	n/a
294.9619	n/a	RESPONSE	n/a	n/a	n/a	n/a	n/a	n/a	n/a	red
294.9935	1.0167	ITI	n/a	n/a	n/a	n/a	n/a	n/a	n/a	n/a
296.0101	0.5167	FIXCROSS	n/a	n/a	n/a	n/a	n/a	n/a	n/a	n/a
296.5268	0.8667	COLOR_NAME	14	Neutral	żółty	yellow	Neutral	Neutral	hit	n/a
297.3614	n/a	RESPONSE	n/a	n/a	n/a	n/a	n/a	n/a	n/a	yellow
297.3935	1.0167	ITI	n/a	n/a	n/a	n/a	n/a	n/a	n/a	n/a
298.4102	0.5167	FIXCROSS	n/a	n/a	n/a	n/a	n/a	n/a	n/a	n/a
298.9268	0.9667	COLOR_NAME	15	Incongruent	zielony	green	niebieski	blue	hit	n/a
299.8729	n/a	RESPONSE	n/a	n/a	n/a	n/a	n/a	n/a	n/a	green
299.8935	1.0167	ITI	n/a	n/a	n/a	n/a	n/a	n/a	n/a	n/a
300.9102	0.5167	FIXCROSS	n/a	n/a	n/a	n/a	n/a	n/a	n/a	n/a
301.4269	0.8167	COLOR_NAME	16	Incongruent	żółty	yellow	niebieski	blue	hit	n/a
302.2244	n/a	RESPONSE	n/a	n/a	n/a	n/a	n/a	n/a	n/a	yellow
302.2435	1.0167	ITI	n/a	n/a	n/a	n/a	n/a	n/a	n/a	n/a
303.2602	0.5167	FIXCROSS	n/a	n/a	n/a	n/a	n/a	n/a	n/a	n/a
303.7769	1.1167	COLOR_NAME	17	Incongruent	zielony	green	żółty	yellow	hit	n/a
304.8638	n/a	RESPONSE	n/a	n/a	n/a	n/a	n/a	n/a	n/a	green
304.8935	1.0167	ITI	n/a	n/a	n/a	n/a	n/a	n/a	n/a	n/a
305.9102	0.5167	FIXCROSS	n/a	n/a	n/a	n/a	n/a	n/a	n/a	n/a
306.4269	0.8	COLOR_NAME	18	Incongruent	żółty	yellow	zielony	green	hit	n/a
307.1994	n/a	RESPONSE	n/a	n/a	n/a	n/a	n/a	n/a	n/a	yellow
307.2269	1.0167	ITI	n/a	n/a	n/a	n/a	n/a	n/a	n/a	n/a
308.2436	0.5167	FIXCROSS	n/a	n/a	n/a	n/a	n/a	n/a	n/a	n/a
308.7602	0.9	COLOR_NAME	19	Incongruent	niebieski	blue	żółty	yellow	hit	n/a
309.6308	n/a	RESPONSE	n/a	n/a	n/a	n/a	n/a	n/a	n/a	blue
309.6602	1.0167	ITI	n/a	n/a	n/a	n/a	n/a	n/a	n/a	n/a
310.6769	0.5167	FIXCROSS	n/a	n/a	n/a	n/a	n/a	n/a	n/a	n/a
311.1936	0.9833	COLOR_NAME	20	Incongruent	niebieski	blue	czerwony	red	hit	n/a
312.1583	n/a	RESPONSE	n/a	n/a	n/a	n/a	n/a	n/a	n/a	blue
312.1769	1.0167	ITI	n/a	n/a	n/a	n/a	n/a	n/a	n/a	n/a
313.1936	0.5167	FIXCROSS	n/a	n/a	n/a	n/a	n/a	n/a	n/a	n/a
313.7103	0.8833	COLOR_NAME	21	Incongruent	czerwony	red	zielony	green	hit	n/a
314.5738	n/a	RESPONSE	n/a	n/a	n/a	n/a	n/a	n/a	n/a	red
314.5936	1.0167	ITI	n/a	n/a	n/a	n/a	n/a	n/a	n/a	n/a
315.6103	0.5167	FIXCROSS	n/a	n/a	n/a	n/a	n/a	n/a	n/a	n/a
316.1269	0.7667	COLOR_NAME	22	Neutral	niebieski	blue	Neutral	Neutral	hit	n/a
316.8613	n/a	RESPONSE	n/a	n/a	n/a	n/a	n/a	n/a	n/a	blue
316.8936	1.0167	ITI	n/a	n/a	n/a	n/a	n/a	n/a	n/a	n/a
317.9103	0.5167	FIXCROSS	n/a	n/a	n/a	n/a	n/a	n/a	n/a	n/a
318.427	0.5667	COLOR_NAME	23	Incongruent	niebieski	blue	czerwony	red	hit	n/a
318.9729	n/a	RESPONSE	n/a	n/a	n/a	n/a	n/a	n/a	n/a	blue
318.9936	1.0167	ITI	n/a	n/a	n/a	n/a	n/a	n/a	n/a	n/a
320.0103	0.5167	FIXCROSS	n/a	n/a	n/a	n/a	n/a	n/a	n/a	n/a
320.527	0.6833	COLOR_NAME	24	Incongruent	żółty	yellow	czerwony	red	hit	n/a
321.1804	n/a	RESPONSE	n/a	n/a	n/a	n/a	n/a	n/a	n/a	yellow
321.2103	1.0167	ITI	n/a	n/a	n/a	n/a	n/a	n/a	n/a	n/a
322.227	0.5167	FIXCROSS	n/a	n/a	n/a	n/a	n/a	n/a	n/a	n/a
322.7437	0.5167	COLOR_NAME	25	Neutral	żółty	yellow	Neutral	Neutral	hit	n/a
323.228	n/a	RESPONSE	n/a	n/a	n/a	n/a	n/a	n/a	n/a	yellow
323.2603	1.0167	ITI	n/a	n/a	n/a	n/a	n/a	n/a	n/a	n/a
324.277	0.5167	FIXCROSS	n/a	n/a	n/a	n/a	n/a	n/a	n/a	n/a
324.7937	0.4333	COLOR_NAME	26	Neutral	żółty	yellow	Neutral	Neutral	hit	n/a
325.1956	n/a	RESPONSE	n/a	n/a	n/a	n/a	n/a	n/a	n/a	yellow
325.227	1.0167	ITI	n/a	n/a	n/a	n/a	n/a	n/a	n/a	n/a
326.2437	0.5167	FIXCROSS	n/a	n/a	n/a	n/a	n/a	n/a	n/a	n/a
326.7604	1.0667	COLOR_NAME	27	Incongruent	zielony	green	żółty	yellow	hit	n/a
327.803	n/a	RESPONSE	n/a	n/a	n/a	n/a	n/a	n/a	n/a	green
327.827	1.0167	ITI	n/a	n/a	n/a	n/a	n/a	n/a	n/a	n/a
328.8437	0.5167	FIXCROSS	n/a	n/a	n/a	n/a	n/a	n/a	n/a	n/a
329.3604	0.7833	COLOR_NAME	28	Incongruent	żółty	yellow	niebieski	blue	hit	n/a
330.1225	n/a	RESPONSE	n/a	n/a	n/a	n/a	n/a	n/a	n/a	yellow
330.1437	1.0167	ITI	n/a	n/a	n/a	n/a	n/a	n/a	n/a	n/a
331.1604	0.5167	FIXCROSS	n/a	n/a	n/a	n/a	n/a	n/a	n/a	n/a
331.677	0.9833	COLOR_NAME	29	Incongruent	niebieski	blue	zielony	green	hit	n/a
332.634	n/a	RESPONSE	n/a	n/a	n/a	n/a	n/a	n/a	n/a	blue
332.6604	1.0167	ITI	n/a	n/a	n/a	n/a	n/a	n/a	n/a	n/a
333.6771	0.5167	FIXCROSS	n/a	n/a	n/a	n/a	n/a	n/a	n/a	n/a
334.1937	0.9333	COLOR_NAME	30	Incongruent	zielony	green	czerwony	red	hit	n/a
335.0974	n/a	RESPONSE	n/a	n/a	n/a	n/a	n/a	n/a	n/a	green
335.1271	1.0167	ITI	n/a	n/a	n/a	n/a	n/a	n/a	n/a	n/a
336.1437	0.5167	FIXCROSS	n/a	n/a	n/a	n/a	n/a	n/a	n/a	n/a
336.6604	0.8667	COLOR_NAME	31	Incongruent	żółty	yellow	niebieski	blue	hit	n/a
337.497	n/a	RESPONSE	n/a	n/a	n/a	n/a	n/a	n/a	n/a	yellow
337.5271	1.0167	ITI	n/a	n/a	n/a	n/a	n/a	n/a	n/a	n/a
338.5438	0.5167	FIXCROSS	n/a	n/a	n/a	n/a	n/a	n/a	n/a	n/a
339.0604	1.1	COLOR_NAME	32	Neutral	zielony	green	Neutral	Neutral	hit	n/a
340.1364	n/a	RESPONSE	n/a	n/a	n/a	n/a	n/a	n/a	n/a	green
340.1604	1.0167	ITI	n/a	n/a	n/a	n/a	n/a	n/a	n/a	n/a
341.1771	0.5167	FIXCROSS	n/a	n/a	n/a	n/a	n/a	n/a	n/a	n/a
341.6938	0.6167	COLOR_NAME	33	Neutral	zielony	green	Neutral	Neutral	hit	n/a
342.2801	n/a	RESPONSE	n/a	n/a	n/a	n/a	n/a	n/a	n/a	green
342.3105	1.0167	ITI	n/a	n/a	n/a	n/a	n/a	n/a	n/a	n/a
343.3271	0.5167	FIXCROSS	n/a	n/a	n/a	n/a	n/a	n/a	n/a	n/a
343.8438	0.9834	COLOR_NAME	34	Neutral	czerwony	red	Neutral	Neutral	hit	n/a
344.8075	n/a	RESPONSE	n/a	n/a	n/a	n/a	n/a	n/a	n/a	red
344.8271	1.0167	ITI	n/a	n/a	n/a	n/a	n/a	n/a	n/a	n/a
345.8438	0.5167	FIXCROSS	n/a	n/a	n/a	n/a	n/a	n/a	n/a	n/a
346.3605	0.8833	COLOR_NAME	35	Neutral	zielony	green	Neutral	Neutral	hit	n/a
347.223	n/a	RESPONSE	n/a	n/a	n/a	n/a	n/a	n/a	n/a	green
347.2438	1.0167	ITI	n/a	n/a	n/a	n/a	n/a	n/a	n/a	n/a
348.2605	0.5167	FIXCROSS	n/a	n/a	n/a	n/a	n/a	n/a	n/a	n/a
348.7772	0.7667	COLOR_NAME	36	Incongruent	żółty	yellow	czerwony	red	hit	n/a
349.5104	n/a	RESPONSE	n/a	n/a	n/a	n/a	n/a	n/a	n/a	yellow
349.5438	1.0167	ITI	n/a	n/a	n/a	n/a	n/a	n/a	n/a	n/a
350.5605	0.5167	FIXCROSS	n/a	n/a	n/a	n/a	n/a	n/a	n/a	n/a
351.0772	0.9333	COLOR_NAME	37	Neutral	zielony	green	Neutral	Neutral	hit	n/a
351.9899	n/a	RESPONSE	n/a	n/a	n/a	n/a	n/a	n/a	n/a	green
352.0105	1.0167	ITI	n/a	n/a	n/a	n/a	n/a	n/a	n/a	n/a
353.0272	0.5167	FIXCROSS	n/a	n/a	n/a	n/a	n/a	n/a	n/a	n/a
353.5439	0.85	COLOR_NAME	38	Incongruent	czerwony	red	niebieski	blue	hit	n/a
354.3734	n/a	RESPONSE	n/a	n/a	n/a	n/a	n/a	n/a	n/a	red
354.3939	1.0167	ITI	n/a	n/a	n/a	n/a	n/a	n/a	n/a	n/a
355.4105	0.5167	FIXCROSS	n/a	n/a	n/a	n/a	n/a	n/a	n/a	n/a
355.9272	0.9833	COLOR_NAME	39	Neutral	niebieski	blue	Neutral	Neutral	hit	n/a
356.8849	n/a	RESPONSE	n/a	n/a	n/a	n/a	n/a	n/a	n/a	blue
356.9105	1.0167	ITI	n/a	n/a	n/a	n/a	n/a	n/a	n/a	n/a
357.9272	0.5167	FIXCROSS	n/a	n/a	n/a	n/a	n/a	n/a	n/a	n/a
358.4439	0.8667	COLOR_NAME	40	Incongruent	czerwony	red	niebieski	blue	hit	n/a
359.2844	n/a	RESPONSE	n/a	n/a	n/a	n/a	n/a	n/a	n/a	red
359.3106	1.0167	ITI	n/a	n/a	n/a	n/a	n/a	n/a	n/a	n/a
360.3272	0.5167	FIXCROSS	n/a	n/a	n/a	n/a	n/a	n/a	n/a	n/a
360.8439	0.6999	COLOR_NAME	41	Neutral	żółty	yellow	Neutral	Neutral	hit	n/a
361.5239	n/a	RESPONSE	n/a	n/a	n/a	n/a	n/a	n/a	n/a	yellow
361.5439	1.0167	ITI	n/a	n/a	n/a	n/a	n/a	n/a	n/a	n/a
362.5606	0.5167	FIXCROSS	n/a	n/a	n/a	n/a	n/a	n/a	n/a	n/a
363.0773	0.8833	COLOR_NAME	42	Neutral	niebieski	blue	Neutral	Neutral	hit	n/a
363.9394	n/a	RESPONSE	n/a	n/a	n/a	n/a	n/a	n/a	n/a	blue
363.9606	1.0167	ITI	n/a	n/a	n/a	n/a	n/a	n/a	n/a	n/a
364.9773	0.5167	FIXCROSS	n/a	n/a	n/a	n/a	n/a	n/a	n/a	n/a
365.4939	0.8	COLOR_NAME	43	Neutral	czerwony	red	Neutral	Neutral	hit	n/a
366.2589	n/a	RESPONSE	n/a	n/a	n/a	n/a	n/a	n/a	n/a	red
366.294	1.0167	ITI	n/a	n/a	n/a	n/a	n/a	n/a	n/a	n/a
367.3106	0.5167	FIXCROSS	n/a	n/a	n/a	n/a	n/a	n/a	n/a	n/a
367.8273	0.8833	COLOR_NAME	44	Incongruent	zielony	green	żółty	yellow	hit	n/a
368.6904	n/a	RESPONSE	n/a	n/a	n/a	n/a	n/a	n/a	n/a	green
368.7106	1.0167	ITI	n/a	n/a	n/a	n/a	n/a	n/a	n/a	n/a
369.7273	0.5167	FIXCROSS	n/a	n/a	n/a	n/a	n/a	n/a	n/a	n/a
370.244	0.8167	COLOR_NAME	45	Incongruent	niebieski	blue	zielony	green	hit	n/a
371.0419	n/a	RESPONSE	n/a	n/a	n/a	n/a	n/a	n/a	n/a	blue
371.0606	1.0167	ITI	n/a	n/a	n/a	n/a	n/a	n/a	n/a	n/a
372.0773	0.5167	FIXCROSS	n/a	n/a	n/a	n/a	n/a	n/a	n/a	n/a
372.594	0.5167	COLOR_NAME	46	Neutral	niebieski	blue	Neutral	Neutral	hit	n/a
373.0895	n/a	RESPONSE	n/a	n/a	n/a	n/a	n/a	n/a	n/a	blue
373.1107	1.0167	ITI	n/a	n/a	n/a	n/a	n/a	n/a	n/a	n/a
374.1273	0.5167	FIXCROSS	n/a	n/a	n/a	n/a	n/a	n/a	n/a	n/a
374.644	0.75	COLOR_NAME	47	Neutral	zielony	green	Neutral	Neutral	hit	n/a
375.361	n/a	RESPONSE	n/a	n/a	n/a	n/a	n/a	n/a	n/a	green
375.394	1.0167	ITI	n/a	n/a	n/a	n/a	n/a	n/a	n/a	n/a
376.4107	0.5167	FIXCROSS	n/a	n/a	n/a	n/a	n/a	n/a	n/a	n/a
376.9273	0.7667	COLOR_NAME	48	Neutral	niebieski	blue	Neutral	Neutral	hit	n/a
377.6645	n/a	RESPONSE	n/a	n/a	n/a	n/a	n/a	n/a	n/a	blue
377.694	1.0167	ITI	n/a	n/a	n/a	n/a	n/a	n/a	n/a	n/a
378.7107	0.5167	FIXCROSS	n/a	n/a	n/a	n/a	n/a	n/a	n/a	n/a
379.2274	0.6833	COLOR_NAME	49	Incongruent	niebieski	blue	żółty	yellow	hit	n/a
379.888	n/a	RESPONSE	n/a	n/a	n/a	n/a	n/a	n/a	n/a	blue
379.9107	1.0167	ITI	n/a	n/a	n/a	n/a	n/a	n/a	n/a	n/a
380.9274	0.5167	FIXCROSS	n/a	n/a	n/a	n/a	n/a	n/a	n/a	n/a
381.444	0.65	COLOR_NAME	50	Incongruent	żółty	yellow	zielony	green	hit	n/a
382.0636	n/a	RESPONSE	n/a	n/a	n/a	n/a	n/a	n/a	n/a	yellow
382.0941	1.0167	ITI	n/a	n/a	n/a	n/a	n/a	n/a	n/a	n/a
383.1107	0.5167	FIXCROSS	n/a	n/a	n/a	n/a	n/a	n/a	n/a	n/a
383.6274	0.75	COLOR_NAME	51	Neutral	zielony	green	Neutral	Neutral	hit	n/a
384.3511	n/a	RESPONSE	n/a	n/a	n/a	n/a	n/a	n/a	n/a	green
384.3774	1.0167	ITI	n/a	n/a	n/a	n/a	n/a	n/a	n/a	n/a
385.3941	0.5167	FIXCROSS	n/a	n/a	n/a	n/a	n/a	n/a	n/a	n/a
385.9107	0.65	COLOR_NAME	52	Neutral	żółty	yellow	Neutral	Neutral	hit	n/a
386.5426	n/a	RESPONSE	n/a	n/a	n/a	n/a	n/a	n/a	n/a	yellow
386.5607	1.0167	ITI	n/a	n/a	n/a	n/a	n/a	n/a	n/a	n/a
387.5774	0.5167	FIXCROSS	n/a	n/a	n/a	n/a	n/a	n/a	n/a	n/a
388.0941	0.7167	COLOR_NAME	53	Incongruent	czerwony	red	żółty	yellow	hit	n/a
388.7821	n/a	RESPONSE	n/a	n/a	n/a	n/a	n/a	n/a	n/a	red
388.8108	1.0167	ITI	n/a	n/a	n/a	n/a	n/a	n/a	n/a	n/a
389.8274	0.5167	FIXCROSS	n/a	n/a	n/a	n/a	n/a	n/a	n/a	n/a
390.3441	0.6667	COLOR_NAME	54	Incongruent	żółty	yellow	zielony	green	hit	n/a
390.9897	n/a	RESPONSE	n/a	n/a	n/a	n/a	n/a	n/a	n/a	yellow
391.0108	1.0167	ITI	n/a	n/a	n/a	n/a	n/a	n/a	n/a	n/a
392.0274	0.5167	FIXCROSS	n/a	n/a	n/a	n/a	n/a	n/a	n/a	n/a
392.5441	0.8333	COLOR_NAME	55	Incongruent	zielony	green	niebieski	blue	hit	n/a
393.3572	n/a	RESPONSE	n/a	n/a	n/a	n/a	n/a	n/a	n/a	green
393.3775	1.0167	ITI	n/a	n/a	n/a	n/a	n/a	n/a	n/a	n/a
394.3941	0.5167	FIXCROSS	n/a	n/a	n/a	n/a	n/a	n/a	n/a	n/a
394.9108	0.75	COLOR_NAME	56	Neutral	niebieski	blue	Neutral	Neutral	hit	n/a
395.6287	n/a	RESPONSE	n/a	n/a	n/a	n/a	n/a	n/a	n/a	blue
395.6608	1.0167	ITI	n/a	n/a	n/a	n/a	n/a	n/a	n/a	n/a
396.6775	0.5167	FIXCROSS	n/a	n/a	n/a	n/a	n/a	n/a	n/a	n/a
397.1942	0.6667	COLOR_NAME	57	Neutral	czerwony	red	Neutral	Neutral	hit	n/a
397.8362	n/a	RESPONSE	n/a	n/a	n/a	n/a	n/a	n/a	n/a	red
397.8608	1.0167	ITI	n/a	n/a	n/a	n/a	n/a	n/a	n/a	n/a
398.8775	0.5167	FIXCROSS	n/a	n/a	n/a	n/a	n/a	n/a	n/a	n/a
399.3942	0.7833	COLOR_NAME	58	Incongruent	zielony	green	czerwony	red	hit	n/a
400.1558	n/a	RESPONSE	n/a	n/a	n/a	n/a	n/a	n/a	n/a	green
400.1775	1.0167	ITI	n/a	n/a	n/a	n/a	n/a	n/a	n/a	n/a
401.1942	0.5167	FIXCROSS	n/a	n/a	n/a	n/a	n/a	n/a	n/a	n/a
401.7109	0.8167	COLOR_NAME	59	Neutral	niebieski	blue	Neutral	Neutral	hit	n/a
402.5073	n/a	RESPONSE	n/a	n/a	n/a	n/a	n/a	n/a	n/a	blue
402.5275	1.0167	ITI	n/a	n/a	n/a	n/a	n/a	n/a	n/a	n/a
403.5442	0.5167	FIXCROSS	n/a	n/a	n/a	n/a	n/a	n/a	n/a	n/a
404.0609	0.8333	COLOR_NAME	60	Incongruent	niebieski	blue	czerwony	red	hit	n/a
404.8748	n/a	RESPONSE	n/a	n/a	n/a	n/a	n/a	n/a	n/a	blue
404.8942	1.0167	ITI	n/a	n/a	n/a	n/a	n/a	n/a	n/a	n/a
405.9109	0.5166	FIXCROSS	n/a	n/a	n/a	n/a	n/a	n/a	n/a	n/a
406.4275	0.7001	COLOR_NAME	61	Neutral	niebieski	blue	Neutral	Neutral	hit	n/a
407.0983	n/a	RESPONSE	n/a	n/a	n/a	n/a	n/a	n/a	n/a	blue
407.1276	1.0167	ITI	n/a	n/a	n/a	n/a	n/a	n/a	n/a	n/a
408.1442	0.5167	FIXCROSS	n/a	n/a	n/a	n/a	n/a	n/a	n/a	n/a
408.6609	0.6667	COLOR_NAME	62	Neutral	czerwony	red	Neutral	Neutral	hit	n/a
409.3058	n/a	RESPONSE	n/a	n/a	n/a	n/a	n/a	n/a	n/a	red
409.3276	1.0167	ITI	n/a	n/a	n/a	n/a	n/a	n/a	n/a	n/a
410.3442	0.5167	FIXCROSS	n/a	n/a	n/a	n/a	n/a	n/a	n/a	n/a
410.8609	0.45	COLOR_NAME	63	Neutral	czerwony	red	Neutral	Neutral	hit	n/a
411.2894	n/a	RESPONSE	n/a	n/a	n/a	n/a	n/a	n/a	n/a	red
411.3109	1.0167	ITI	n/a	n/a	n/a	n/a	n/a	n/a	n/a	n/a
412.3276	0.5167	FIXCROSS	n/a	n/a	n/a	n/a	n/a	n/a	n/a	n/a
412.8443	0.75	COLOR_NAME	64	Incongruent	zielony	green	czerwony	red	hit	n/a
413.5769	n/a	RESPONSE	n/a	n/a	n/a	n/a	n/a	n/a	n/a	green
413.5943	1.0167	ITI	n/a	n/a	n/a	n/a	n/a	n/a	n/a	n/a
414.6109	0.5167	FIXCROSS	n/a	n/a	n/a	n/a	n/a	n/a	n/a	n/a
415.1276	0.6833	COLOR_NAME	65	Neutral	żółty	yellow	Neutral	Neutral	hit	n/a
415.7845	n/a	RESPONSE	n/a	n/a	n/a	n/a	n/a	n/a	n/a	yellow
415.8109	1.0167	ITI	n/a	n/a	n/a	n/a	n/a	n/a	n/a	n/a
416.8276	0.5167	FIXCROSS	n/a	n/a	n/a	n/a	n/a	n/a	n/a	n/a
417.3443	0.8667	COLOR_NAME	66	Incongruent	niebieski	blue	żółty	yellow	hit	n/a
418.184	n/a	RESPONSE	n/a	n/a	n/a	n/a	n/a	n/a	n/a	blue
418.211	1.0167	ITI	n/a	n/a	n/a	n/a	n/a	n/a	n/a	n/a
419.2276	0.5167	FIXCROSS	n/a	n/a	n/a	n/a	n/a	n/a	n/a	n/a
419.7443	1.0167	COLOR_NAME	67	Incongruent	zielony	green	niebieski	blue	hit	n/a
420.7274	n/a	RESPONSE	n/a	n/a	n/a	n/a	n/a	n/a	n/a	green
420.761	1.0167	ITI	n/a	n/a	n/a	n/a	n/a	n/a	n/a	n/a
421.7776	0.5167	FIXCROSS	n/a	n/a	n/a	n/a	n/a	n/a	n/a	n/a
422.2943	0.85	COLOR_NAME	68	Neutral	zielony	green	Neutral	Neutral	hit	n/a
423.1269	n/a	RESPONSE	n/a	n/a	n/a	n/a	n/a	n/a	n/a	green
423.1443	1.0167	ITI	n/a	n/a	n/a	n/a	n/a	n/a	n/a	n/a
424.161	0.5167	FIXCROSS	n/a	n/a	n/a	n/a	n/a	n/a	n/a	n/a
424.6777	0.9	COLOR_NAME	69	Neutral	niebieski	blue	Neutral	Neutral	hit	n/a
425.5424	n/a	RESPONSE	n/a	n/a	n/a	n/a	n/a	n/a	n/a	blue
425.5777	1.0167	ITI	n/a	n/a	n/a	n/a	n/a	n/a	n/a	n/a
426.5944	0.5167	FIXCROSS	n/a	n/a	n/a	n/a	n/a	n/a	n/a	n/a
427.111	0.6667	COLOR_NAME	70	Neutral	żółty	yellow	Neutral	Neutral	hit	n/a
427.75	n/a	RESPONSE	n/a	n/a	n/a	n/a	n/a	n/a	n/a	yellow
427.7777	1.0167	ITI	n/a	n/a	n/a	n/a	n/a	n/a	n/a	n/a
428.7944	0.5167	FIXCROSS	n/a	n/a	n/a	n/a	n/a	n/a	n/a	n/a
429.311	1.1167	COLOR_NAME	71	Incongruent	czerwony	red	zielony	green	incorrect	n/a
430.4054	n/a	RESPONSE	n/a	n/a	n/a	n/a	n/a	n/a	n/a	green
430.4277	1.0167	ITI	n/a	n/a	n/a	n/a	n/a	n/a	n/a	n/a
431.4444	0.5167	FIXCROSS	n/a	n/a	n/a	n/a	n/a	n/a	n/a	n/a
431.9611	0.8167	COLOR_NAME	72	Neutral	zielony	green	Neutral	Neutral	hit	n/a
432.7569	n/a	RESPONSE	n/a	n/a	n/a	n/a	n/a	n/a	n/a	green
432.7777	1.0333	ITI	n/a	n/a	n/a	n/a	n/a	n/a	n/a	n/a
436.2122	n/a	RESPONSE	n/a	n/a	n/a	n/a	n/a	n/a	n/a	n/a
