onset	duration	trial_type	trial_number	stroop_condition	stim_text(PL)	stim_text(eng)	stim_color(PL)	stim_color(eng)	response_type	response_color
0.0	n/a	RESPONSE	n/a	n/a	n/a	n/a	n/a	n/a	n/a	n/a
0.0343	1.0166	ITI	n/a	n/a	n/a	n/a	n/a	n/a	n/a	n/a
1.0509	0.5	FIXCROSS	n/a	n/a	n/a	n/a	n/a	n/a	n/a	n/a
1.5509	1.6333	T_INK	1	Neutral	xxxxxxxx	xxxxxxxx	niebieski	blue	hit	n/a
3.1658	n/a	RESPONSE	n/a	n/a	n/a	n/a	n/a	n/a	n/a	blue
3.1842	0.5	FEEDBACK	n/a	n/a	n/a	n/a	n/a	n/a	n/a	n/a
3.6842	1.0	ITI	n/a	n/a	n/a	n/a	n/a	n/a	n/a	n/a
4.6842	0.5	FIXCROSS	n/a	n/a	n/a	n/a	n/a	n/a	n/a	n/a
5.1842	1.2833	T_INK	2	Incongruent	niebieski	blue	zielony	green	hit	n/a
6.4595	n/a	RESPONSE	n/a	n/a	n/a	n/a	n/a	n/a	n/a	green
6.4675	0.5	FEEDBACK	n/a	n/a	n/a	n/a	n/a	n/a	n/a	n/a
6.9675	1.0	ITI	n/a	n/a	n/a	n/a	n/a	n/a	n/a	n/a
7.9675	0.5	FIXCROSS	n/a	n/a	n/a	n/a	n/a	n/a	n/a	n/a
8.4675	0.6167	T_INK	3	Neutral	xxxxxxxxx	xxxxxxxxx	żółty	yellow	hit	n/a
9.0658	n/a	RESPONSE	n/a	n/a	n/a	n/a	n/a	n/a	n/a	yellow
9.0841	0.5	FEEDBACK	n/a	n/a	n/a	n/a	n/a	n/a	n/a	n/a
9.5841	1.0166	ITI	n/a	n/a	n/a	n/a	n/a	n/a	n/a	n/a
10.6007	0.5	FIXCROSS	n/a	n/a	n/a	n/a	n/a	n/a	n/a	n/a
11.1007	0.6167	T_INK	4	Incongruent	żółty	yellow	czerwony	red	hit	n/a
11.704	n/a	RESPONSE	n/a	n/a	n/a	n/a	n/a	n/a	n/a	red
11.7174	0.5	FEEDBACK	n/a	n/a	n/a	n/a	n/a	n/a	n/a	n/a
12.2174	1.0	ITI	n/a	n/a	n/a	n/a	n/a	n/a	n/a	n/a
13.2174	0.5	FIXCROSS	n/a	n/a	n/a	n/a	n/a	n/a	n/a	n/a
13.7174	0.7333	T_INK	5	Incongruent	czerwony	red	żółty	yellow	hit	n/a
14.4381	n/a	RESPONSE	n/a	n/a	n/a	n/a	n/a	n/a	n/a	yellow
14.4507	0.5	FEEDBACK	n/a	n/a	n/a	n/a	n/a	n/a	n/a	n/a
14.9507	1.0	ITI	n/a	n/a	n/a	n/a	n/a	n/a	n/a	n/a
15.9507	0.5	FIXCROSS	n/a	n/a	n/a	n/a	n/a	n/a	n/a	n/a
16.4507	0.7833	T_INK	6	Neutral	xxxxxxx	xxxxxxx	niebieski	blue	hit	n/a
17.2202	n/a	RESPONSE	n/a	n/a	n/a	n/a	n/a	n/a	n/a	blue
17.234	0.5	FEEDBACK	n/a	n/a	n/a	n/a	n/a	n/a	n/a	n/a
17.734	1.0	ITI	n/a	n/a	n/a	n/a	n/a	n/a	n/a	n/a
18.7339	0.5	FIXCROSS	n/a	n/a	n/a	n/a	n/a	n/a	n/a	n/a
19.2339	0.7833	T_INK	7	Incongruent	żółty	yellow	niebieski	blue	hit	n/a
20.0024	n/a	RESPONSE	n/a	n/a	n/a	n/a	n/a	n/a	n/a	blue
20.0173	0.5	FEEDBACK	n/a	n/a	n/a	n/a	n/a	n/a	n/a	n/a
20.5172	1.0	ITI	n/a	n/a	n/a	n/a	n/a	n/a	n/a	n/a
21.5172	0.5	FIXCROSS	n/a	n/a	n/a	n/a	n/a	n/a	n/a	n/a
22.0172	0.7166	T_INK	8	Neutral	xxxxxxxxx	xxxxxxxxx	czerwony	red	hit	n/a
22.7206	n/a	RESPONSE	n/a	n/a	n/a	n/a	n/a	n/a	n/a	red
22.7339	0.5	FEEDBACK	n/a	n/a	n/a	n/a	n/a	n/a	n/a	n/a
23.2339	1.0	ITI	n/a	n/a	n/a	n/a	n/a	n/a	n/a	n/a
24.2338	0.5	FIXCROSS	n/a	n/a	n/a	n/a	n/a	n/a	n/a	n/a
24.7338	0.8166	T_INK	9	Incongruent	niebieski	blue	czerwony	red	hit	n/a
25.5347	n/a	RESPONSE	n/a	n/a	n/a	n/a	n/a	n/a	n/a	red
25.5504	0.5	FEEDBACK	n/a	n/a	n/a	n/a	n/a	n/a	n/a	n/a
26.0505	1.0	ITI	n/a	n/a	n/a	n/a	n/a	n/a	n/a	n/a
27.0505	0.5	FIXCROSS	n/a	n/a	n/a	n/a	n/a	n/a	n/a	n/a
27.5505	0.85	T_INK	10	Neutral	xxxxx	xxxxx	niebieski	blue	hit	n/a
28.3806	n/a	RESPONSE	n/a	n/a	n/a	n/a	n/a	n/a	n/a	blue
28.4004	0.5	FEEDBACK	n/a	n/a	n/a	n/a	n/a	n/a	n/a	n/a
28.9004	1.0	ITI	n/a	n/a	n/a	n/a	n/a	n/a	n/a	n/a
29.9004	0.5	FIXCROSS	n/a	n/a	n/a	n/a	n/a	n/a	n/a	n/a
30.4004	0.85	T_INK	11	Neutral	xxxxxxxxx	xxxxxxxxx	zielony	green	hit	n/a
31.2428	n/a	RESPONSE	n/a	n/a	n/a	n/a	n/a	n/a	n/a	green
31.2504	0.5	FEEDBACK	n/a	n/a	n/a	n/a	n/a	n/a	n/a	n/a
31.7504	1.0	ITI	n/a	n/a	n/a	n/a	n/a	n/a	n/a	n/a
32.7503	0.5	FIXCROSS	n/a	n/a	n/a	n/a	n/a	n/a	n/a	n/a
33.2503	1.0	T_INK	12	Incongruent	zielony	green	niebieski	blue	hit	n/a
34.2326	n/a	RESPONSE	n/a	n/a	n/a	n/a	n/a	n/a	n/a	blue
34.2503	0.5	FEEDBACK	n/a	n/a	n/a	n/a	n/a	n/a	n/a	n/a
34.7503	1.0	ITI	n/a	n/a	n/a	n/a	n/a	n/a	n/a	n/a
39.7169	n/a	RESPONSE	n/a	n/a	n/a	n/a	n/a	n/a	n/a	n/a
39.7502	0.998	ITI	n/a	n/a	n/a	n/a	n/a	n/a	n/a	n/a
40.7482	0.502	FIXCROSS	n/a	n/a	n/a	n/a	n/a	n/a	n/a	n/a
41.2502	0.95	INK	1	Incongruent	niebieski	blue	zielony	green	hit	n/a
42.1953	n/a	RESPONSE	n/a	n/a	n/a	n/a	n/a	n/a	n/a	green
42.2002	1.0	ITI	n/a	n/a	n/a	n/a	n/a	n/a	n/a	n/a
43.2002	0.5	FIXCROSS	n/a	n/a	n/a	n/a	n/a	n/a	n/a	n/a
43.7001	0.6667	INK	2	Neutral	xxxxxxxxx	xxxxxxxxx	zielony	green	hit	n/a
44.3538	n/a	RESPONSE	n/a	n/a	n/a	n/a	n/a	n/a	n/a	green
44.3668	1.0	ITI	n/a	n/a	n/a	n/a	n/a	n/a	n/a	n/a
45.3668	0.5	FIXCROSS	n/a	n/a	n/a	n/a	n/a	n/a	n/a	n/a
45.8668	0.8	INK	3	Neutral	xxxxxxx	xxxxxxx	żółty	yellow	hit	n/a
46.6563	n/a	RESPONSE	n/a	n/a	n/a	n/a	n/a	n/a	n/a	yellow
46.6668	1.0	ITI	n/a	n/a	n/a	n/a	n/a	n/a	n/a	n/a
47.6667	0.5	FIXCROSS	n/a	n/a	n/a	n/a	n/a	n/a	n/a	n/a
48.1667	0.6833	INK	4	Neutral	xxxxxxx	xxxxxxx	czerwony	red	hit	n/a
48.8468	n/a	RESPONSE	n/a	n/a	n/a	n/a	n/a	n/a	n/a	red
48.85	1.0	ITI	n/a	n/a	n/a	n/a	n/a	n/a	n/a	n/a
49.85	0.5	FIXCROSS	n/a	n/a	n/a	n/a	n/a	n/a	n/a	n/a
50.35	0.6833	INK	5	Incongruent	zielony	green	niebieski	blue	hit	n/a
51.0213	n/a	RESPONSE	n/a	n/a	n/a	n/a	n/a	n/a	n/a	blue
51.0333	1.0	ITI	n/a	n/a	n/a	n/a	n/a	n/a	n/a	n/a
52.0333	0.5	FIXCROSS	n/a	n/a	n/a	n/a	n/a	n/a	n/a	n/a
52.5333	0.75	INK	6	Neutral	xxxxxxxx	xxxxxxxx	niebieski	blue	hit	n/a
53.2757	n/a	RESPONSE	n/a	n/a	n/a	n/a	n/a	n/a	n/a	blue
53.2833	1.0	ITI	n/a	n/a	n/a	n/a	n/a	n/a	n/a	n/a
54.2833	0.5	FIXCROSS	n/a	n/a	n/a	n/a	n/a	n/a	n/a	n/a
54.7833	0.65	INK	7	Neutral	xxxxxxxx	xxxxxxxx	niebieski	blue	hit	n/a
55.4182	n/a	RESPONSE	n/a	n/a	n/a	n/a	n/a	n/a	n/a	blue
55.4333	1.0	ITI	n/a	n/a	n/a	n/a	n/a	n/a	n/a	n/a
56.4332	0.5	FIXCROSS	n/a	n/a	n/a	n/a	n/a	n/a	n/a	n/a
56.9332	0.7	INK	8	Incongruent	zielony	green	żółty	yellow	hit	n/a
57.6247	n/a	RESPONSE	n/a	n/a	n/a	n/a	n/a	n/a	n/a	yellow
57.6332	1.0	ITI	n/a	n/a	n/a	n/a	n/a	n/a	n/a	n/a
58.6332	0.5	FIXCROSS	n/a	n/a	n/a	n/a	n/a	n/a	n/a	n/a
59.1332	0.6	INK	9	Neutral	xxxxx	xxxxx	niebieski	blue	hit	n/a
59.7193	n/a	RESPONSE	n/a	n/a	n/a	n/a	n/a	n/a	n/a	blue
59.7332	1.0	ITI	n/a	n/a	n/a	n/a	n/a	n/a	n/a	n/a
60.7332	0.5	FIXCROSS	n/a	n/a	n/a	n/a	n/a	n/a	n/a	n/a
61.2332	0.4	INK	10	Neutral	xxxxxxxx	xxxxxxxx	żółty	yellow	hit	n/a
61.6221	n/a	RESPONSE	n/a	n/a	n/a	n/a	n/a	n/a	n/a	yellow
61.6331	1.0	ITI	n/a	n/a	n/a	n/a	n/a	n/a	n/a	n/a
62.6331	0.5	FIXCROSS	n/a	n/a	n/a	n/a	n/a	n/a	n/a	n/a
63.1331	0.6833	INK	11	Incongruent	żółty	yellow	czerwony	red	hit	n/a
63.8125	n/a	RESPONSE	n/a	n/a	n/a	n/a	n/a	n/a	n/a	red
63.8164	1.0	ITI	n/a	n/a	n/a	n/a	n/a	n/a	n/a	n/a
64.8164	0.5	FIXCROSS	n/a	n/a	n/a	n/a	n/a	n/a	n/a	n/a
65.3164	0.4167	INK	12	Neutral	xxxxxxxxx	xxxxxxxxx	zielony	green	hit	n/a
65.7152	n/a	RESPONSE	n/a	n/a	n/a	n/a	n/a	n/a	n/a	green
65.7331	1.0	ITI	n/a	n/a	n/a	n/a	n/a	n/a	n/a	n/a
66.7331	0.5	FIXCROSS	n/a	n/a	n/a	n/a	n/a	n/a	n/a	n/a
67.233	0.9	INK	13	Incongruent	żółty	yellow	czerwony	red	hit	n/a
68.1137	n/a	RESPONSE	n/a	n/a	n/a	n/a	n/a	n/a	n/a	red
68.133	1.0	ITI	n/a	n/a	n/a	n/a	n/a	n/a	n/a	n/a
69.133	0.5	FIXCROSS	n/a	n/a	n/a	n/a	n/a	n/a	n/a	n/a
69.633	0.7333	INK	14	Neutral	xxxxx	xxxxx	niebieski	blue	hit	n/a
70.3519	n/a	RESPONSE	n/a	n/a	n/a	n/a	n/a	n/a	n/a	blue
70.3663	1.0	ITI	n/a	n/a	n/a	n/a	n/a	n/a	n/a	n/a
71.3663	0.5	FIXCROSS	n/a	n/a	n/a	n/a	n/a	n/a	n/a	n/a
71.8663	0.5833	INK	15	Incongruent	żółty	yellow	niebieski	blue	hit	n/a
72.4302	n/a	RESPONSE	n/a	n/a	n/a	n/a	n/a	n/a	n/a	blue
72.4496	1.0	ITI	n/a	n/a	n/a	n/a	n/a	n/a	n/a	n/a
73.4496	0.5	FIXCROSS	n/a	n/a	n/a	n/a	n/a	n/a	n/a	n/a
73.9496	0.45	INK	16	Incongruent	zielony	green	niebieski	blue	hit	n/a
74.381	n/a	RESPONSE	n/a	n/a	n/a	n/a	n/a	n/a	n/a	blue
74.3996	1.0	ITI	n/a	n/a	n/a	n/a	n/a	n/a	n/a	n/a
75.3996	0.5	FIXCROSS	n/a	n/a	n/a	n/a	n/a	n/a	n/a	n/a
75.8996	0.5166	INK	17	Incongruent	niebieski	blue	czerwony	red	hit	n/a
76.4116	n/a	RESPONSE	n/a	n/a	n/a	n/a	n/a	n/a	n/a	red
76.4162	1.0	ITI	n/a	n/a	n/a	n/a	n/a	n/a	n/a	n/a
77.4162	0.5	FIXCROSS	n/a	n/a	n/a	n/a	n/a	n/a	n/a	n/a
77.9162	0.8167	INK	18	Neutral	xxxxxxxxx	xxxxxxxxx	zielony	green	hit	n/a
78.7141	n/a	RESPONSE	n/a	n/a	n/a	n/a	n/a	n/a	n/a	green
78.7328	1.0	ITI	n/a	n/a	n/a	n/a	n/a	n/a	n/a	n/a
79.7328	0.4999	FIXCROSS	n/a	n/a	n/a	n/a	n/a	n/a	n/a	n/a
80.2327	0.7001	INK	19	Incongruent	zielony	green	czerwony	red	hit	n/a
80.9204	n/a	RESPONSE	n/a	n/a	n/a	n/a	n/a	n/a	n/a	red
80.9328	1.0	ITI	n/a	n/a	n/a	n/a	n/a	n/a	n/a	n/a
81.9328	0.5	FIXCROSS	n/a	n/a	n/a	n/a	n/a	n/a	n/a	n/a
82.4328	0.6	INK	20	Neutral	xxxxx	xxxxx	czerwony	red	hit	n/a
83.015	n/a	RESPONSE	n/a	n/a	n/a	n/a	n/a	n/a	n/a	red
83.0327	1.0	ITI	n/a	n/a	n/a	n/a	n/a	n/a	n/a	n/a
84.0327	0.5	FIXCROSS	n/a	n/a	n/a	n/a	n/a	n/a	n/a	n/a
84.5327	0.55	INK	21	Incongruent	zielony	green	żółty	yellow	hit	n/a
85.0777	n/a	RESPONSE	n/a	n/a	n/a	n/a	n/a	n/a	n/a	yellow
85.0827	1.0	ITI	n/a	n/a	n/a	n/a	n/a	n/a	n/a	n/a
86.0827	0.5	FIXCROSS	n/a	n/a	n/a	n/a	n/a	n/a	n/a	n/a
86.5827	0.45	INK	22	Neutral	xxxxxxxxx	xxxxxxxxx	żółty	yellow	hit	n/a
87.0283	n/a	RESPONSE	n/a	n/a	n/a	n/a	n/a	n/a	n/a	yellow
87.0327	1.0	ITI	n/a	n/a	n/a	n/a	n/a	n/a	n/a	n/a
88.0327	0.5	FIXCROSS	n/a	n/a	n/a	n/a	n/a	n/a	n/a	n/a
88.5327	0.4666	INK	23	Incongruent	zielony	green	żółty	yellow	hit	n/a
88.995	n/a	RESPONSE	n/a	n/a	n/a	n/a	n/a	n/a	n/a	yellow
88.9993	1.0	ITI	n/a	n/a	n/a	n/a	n/a	n/a	n/a	n/a
89.9993	0.5	FIXCROSS	n/a	n/a	n/a	n/a	n/a	n/a	n/a	n/a
90.4993	0.7167	INK	24	Incongruent	zielony	green	niebieski	blue	hit	n/a
91.2014	n/a	RESPONSE	n/a	n/a	n/a	n/a	n/a	n/a	n/a	blue
91.2159	1.0	ITI	n/a	n/a	n/a	n/a	n/a	n/a	n/a	n/a
92.2159	0.5	FIXCROSS	n/a	n/a	n/a	n/a	n/a	n/a	n/a	n/a
92.7159	0.5167	INK	25	Neutral	xxxxx	xxxxx	niebieski	blue	hit	n/a
93.2161	n/a	RESPONSE	n/a	n/a	n/a	n/a	n/a	n/a	n/a	blue
93.2326	1.0	ITI	n/a	n/a	n/a	n/a	n/a	n/a	n/a	n/a
94.2325	0.5	FIXCROSS	n/a	n/a	n/a	n/a	n/a	n/a	n/a	n/a
94.7325	1.1	INK	26	Neutral	xxxxxxxxx	xxxxxxxxx	żółty	yellow	hit	n/a
95.8223	n/a	RESPONSE	n/a	n/a	n/a	n/a	n/a	n/a	n/a	yellow
95.8325	1.0	ITI	n/a	n/a	n/a	n/a	n/a	n/a	n/a	n/a
96.8325	0.5	FIXCROSS	n/a	n/a	n/a	n/a	n/a	n/a	n/a	n/a
97.3325	0.4667	INK	27	Incongruent	niebieski	blue	żółty	yellow	hit	n/a
97.7889	n/a	RESPONSE	n/a	n/a	n/a	n/a	n/a	n/a	n/a	yellow
97.7991	1.0	ITI	n/a	n/a	n/a	n/a	n/a	n/a	n/a	n/a
98.7991	0.5	FIXCROSS	n/a	n/a	n/a	n/a	n/a	n/a	n/a	n/a
99.2991	0.7167	INK	28	Incongruent	czerwony	red	zielony	green	hit	n/a
100.0114	n/a	RESPONSE	n/a	n/a	n/a	n/a	n/a	n/a	n/a	green
100.0158	1.0	ITI	n/a	n/a	n/a	n/a	n/a	n/a	n/a	n/a
101.0157	0.5	FIXCROSS	n/a	n/a	n/a	n/a	n/a	n/a	n/a	n/a
101.5157	0.75	INK	29	Neutral	xxxxxxx	xxxxxxx	żółty	yellow	hit	n/a
102.2499	n/a	RESPONSE	n/a	n/a	n/a	n/a	n/a	n/a	n/a	yellow
102.2657	1.0	ITI	n/a	n/a	n/a	n/a	n/a	n/a	n/a	n/a
103.2657	0.5	FIXCROSS	n/a	n/a	n/a	n/a	n/a	n/a	n/a	n/a
103.7657	0.4667	INK	30	Incongruent	niebieski	blue	żółty	yellow	hit	n/a
104.2165	n/a	RESPONSE	n/a	n/a	n/a	n/a	n/a	n/a	n/a	yellow
104.2324	1.0	ITI	n/a	n/a	n/a	n/a	n/a	n/a	n/a	n/a
105.2323	0.5	FIXCROSS	n/a	n/a	n/a	n/a	n/a	n/a	n/a	n/a
105.7323	0.7	INK	31	Neutral	xxxxxxxx	xxxxxxxx	zielony	green	hit	n/a
106.423	n/a	RESPONSE	n/a	n/a	n/a	n/a	n/a	n/a	n/a	green
106.4323	1.0	ITI	n/a	n/a	n/a	n/a	n/a	n/a	n/a	n/a
107.4323	0.5	FIXCROSS	n/a	n/a	n/a	n/a	n/a	n/a	n/a	n/a
107.9323	0.6667	INK	32	Incongruent	czerwony	red	żółty	yellow	hit	n/a
108.5815	n/a	RESPONSE	n/a	n/a	n/a	n/a	n/a	n/a	n/a	yellow
108.5989	1.0	ITI	n/a	n/a	n/a	n/a	n/a	n/a	n/a	n/a
109.5989	0.5	FIXCROSS	n/a	n/a	n/a	n/a	n/a	n/a	n/a	n/a
110.0989	0.6333	INK	33	Incongruent	żółty	yellow	czerwony	red	hit	n/a
110.7241	n/a	RESPONSE	n/a	n/a	n/a	n/a	n/a	n/a	n/a	red
110.7322	1.0	ITI	n/a	n/a	n/a	n/a	n/a	n/a	n/a	n/a
111.7322	0.5	FIXCROSS	n/a	n/a	n/a	n/a	n/a	n/a	n/a	n/a
112.2322	0.45	INK	34	Incongruent	zielony	green	czerwony	red	hit	n/a
112.6749	n/a	RESPONSE	n/a	n/a	n/a	n/a	n/a	n/a	n/a	red
112.6822	1.0	ITI	n/a	n/a	n/a	n/a	n/a	n/a	n/a	n/a
113.6822	0.5	FIXCROSS	n/a	n/a	n/a	n/a	n/a	n/a	n/a	n/a
114.1822	0.65	INK	35	Incongruent	czerwony	red	niebieski	blue	hit	n/a
114.8172	n/a	RESPONSE	n/a	n/a	n/a	n/a	n/a	n/a	n/a	blue
114.8322	1.0	ITI	n/a	n/a	n/a	n/a	n/a	n/a	n/a	n/a
115.8321	0.5	FIXCROSS	n/a	n/a	n/a	n/a	n/a	n/a	n/a	n/a
116.3321	0.6167	INK	36	Neutral	xxxxxxxx	xxxxxxxx	żółty	yellow	hit	n/a
116.9438	n/a	RESPONSE	n/a	n/a	n/a	n/a	n/a	n/a	n/a	yellow
116.9488	1.0	ITI	n/a	n/a	n/a	n/a	n/a	n/a	n/a	n/a
117.9488	0.5	FIXCROSS	n/a	n/a	n/a	n/a	n/a	n/a	n/a	n/a
118.4488	0.4333	INK	37	Incongruent	niebieski	blue	żółty	yellow	hit	n/a
118.8784	n/a	RESPONSE	n/a	n/a	n/a	n/a	n/a	n/a	n/a	yellow
118.8821	1.0	ITI	n/a	n/a	n/a	n/a	n/a	n/a	n/a	n/a
119.8821	0.5	FIXCROSS	n/a	n/a	n/a	n/a	n/a	n/a	n/a	n/a
120.3821	0.6667	INK	38	Neutral	xxxxx	xxxxx	zielony	green	hit	n/a
121.0371	n/a	RESPONSE	n/a	n/a	n/a	n/a	n/a	n/a	n/a	green
121.0487	1.0	ITI	n/a	n/a	n/a	n/a	n/a	n/a	n/a	n/a
122.0487	0.5	FIXCROSS	n/a	n/a	n/a	n/a	n/a	n/a	n/a	n/a
122.5487	0.6167	INK	39	Incongruent	żółty	yellow	niebieski	blue	hit	n/a
123.1476	n/a	RESPONSE	n/a	n/a	n/a	n/a	n/a	n/a	n/a	blue
123.1653	1.0	ITI	n/a	n/a	n/a	n/a	n/a	n/a	n/a	n/a
124.1653	0.5	FIXCROSS	n/a	n/a	n/a	n/a	n/a	n/a	n/a	n/a
124.6653	0.6	INK	40	Neutral	xxxxxxxx	xxxxxxxx	zielony	green	hit	n/a
125.2581	n/a	RESPONSE	n/a	n/a	n/a	n/a	n/a	n/a	n/a	green
125.2653	1.0	ITI	n/a	n/a	n/a	n/a	n/a	n/a	n/a	n/a
126.2653	0.5	FIXCROSS	n/a	n/a	n/a	n/a	n/a	n/a	n/a	n/a
126.7653	0.5667	INK	41	Neutral	xxxxxxx	xxxxxxx	niebieski	blue	hit	n/a
127.3208	n/a	RESPONSE	n/a	n/a	n/a	n/a	n/a	n/a	n/a	blue
127.3319	1.0	ITI	n/a	n/a	n/a	n/a	n/a	n/a	n/a	n/a
128.3319	0.5	FIXCROSS	n/a	n/a	n/a	n/a	n/a	n/a	n/a	n/a
128.8319	0.55	INK	42	Neutral	xxxxx	xxxxx	czerwony	red	hit	n/a
129.3674	n/a	RESPONSE	n/a	n/a	n/a	n/a	n/a	n/a	n/a	red
129.3819	1.0	ITI	n/a	n/a	n/a	n/a	n/a	n/a	n/a	n/a
130.3819	0.5	FIXCROSS	n/a	n/a	n/a	n/a	n/a	n/a	n/a	n/a
130.8819	0.3167	INK	43	Neutral	xxxxxxxxx	xxxxxxxxx	żółty	yellow	hit	n/a
131.1901	n/a	RESPONSE	n/a	n/a	n/a	n/a	n/a	n/a	n/a	yellow
131.1985	1.0	ITI	n/a	n/a	n/a	n/a	n/a	n/a	n/a	n/a
132.1985	0.5	FIXCROSS	n/a	n/a	n/a	n/a	n/a	n/a	n/a	n/a
132.6985	0.6	INK	44	Neutral	xxxxxxx	xxxxxxx	żółty	yellow	hit	n/a
133.2847	n/a	RESPONSE	n/a	n/a	n/a	n/a	n/a	n/a	n/a	yellow
133.2985	1.0	ITI	n/a	n/a	n/a	n/a	n/a	n/a	n/a	n/a
134.2985	0.5	FIXCROSS	n/a	n/a	n/a	n/a	n/a	n/a	n/a	n/a
134.7985	0.7167	INK	45	Incongruent	żółty	yellow	zielony	green	hit	n/a
135.5072	n/a	RESPONSE	n/a	n/a	n/a	n/a	n/a	n/a	n/a	green
135.5151	1.0	ITI	n/a	n/a	n/a	n/a	n/a	n/a	n/a	n/a
136.5151	0.5	FIXCROSS	n/a	n/a	n/a	n/a	n/a	n/a	n/a	n/a
137.0151	0.6	INK	46	Neutral	xxxxxxxx	xxxxxxxx	niebieski	blue	hit	n/a
137.6018	n/a	RESPONSE	n/a	n/a	n/a	n/a	n/a	n/a	n/a	blue
137.6151	1.0	ITI	n/a	n/a	n/a	n/a	n/a	n/a	n/a	n/a
138.6151	0.5	FIXCROSS	n/a	n/a	n/a	n/a	n/a	n/a	n/a	n/a
139.115	0.6167	INK	47	Incongruent	czerwony	red	żółty	yellow	hit	n/a
139.7123	n/a	RESPONSE	n/a	n/a	n/a	n/a	n/a	n/a	n/a	yellow
139.7317	1.0	ITI	n/a	n/a	n/a	n/a	n/a	n/a	n/a	n/a
140.7317	0.5	FIXCROSS	n/a	n/a	n/a	n/a	n/a	n/a	n/a	n/a
141.2317	0.8666	INK	48	Incongruent	żółty	yellow	niebieski	blue	hit	n/a
142.0788	n/a	RESPONSE	n/a	n/a	n/a	n/a	n/a	n/a	n/a	blue
142.0983	1.0	ITI	n/a	n/a	n/a	n/a	n/a	n/a	n/a	n/a
143.0983	0.5	FIXCROSS	n/a	n/a	n/a	n/a	n/a	n/a	n/a	n/a
143.5983	0.85	INK	49	Neutral	xxxxx	xxxxx	zielony	green	hit	n/a
144.4291	n/a	RESPONSE	n/a	n/a	n/a	n/a	n/a	n/a	n/a	green
144.4483	1.0	ITI	n/a	n/a	n/a	n/a	n/a	n/a	n/a	n/a
145.4483	0.5	FIXCROSS	n/a	n/a	n/a	n/a	n/a	n/a	n/a	n/a
145.9482	0.6	INK	50	Neutral	xxxxxxx	xxxxxxx	czerwony	red	hit	n/a
146.5398	n/a	RESPONSE	n/a	n/a	n/a	n/a	n/a	n/a	n/a	red
146.5482	1.0	ITI	n/a	n/a	n/a	n/a	n/a	n/a	n/a	n/a
147.5482	0.5	FIXCROSS	n/a	n/a	n/a	n/a	n/a	n/a	n/a	n/a
148.0482	0.7666	INK	51	Neutral	xxxxxxx	xxxxxxx	niebieski	blue	hit	n/a
148.8102	n/a	RESPONSE	n/a	n/a	n/a	n/a	n/a	n/a	n/a	blue
148.8149	1.0	ITI	n/a	n/a	n/a	n/a	n/a	n/a	n/a	n/a
149.8148	0.5	FIXCROSS	n/a	n/a	n/a	n/a	n/a	n/a	n/a	n/a
150.3148	0.4833	INK	52	Incongruent	czerwony	red	żółty	yellow	hit	n/a
150.7928	n/a	RESPONSE	n/a	n/a	n/a	n/a	n/a	n/a	n/a	yellow
150.7982	1.0	ITI	n/a	n/a	n/a	n/a	n/a	n/a	n/a	n/a
151.7981	0.5	FIXCROSS	n/a	n/a	n/a	n/a	n/a	n/a	n/a	n/a
152.2981	0.5333	INK	53	Incongruent	czerwony	red	niebieski	blue	hit	n/a
152.8236	n/a	RESPONSE	n/a	n/a	n/a	n/a	n/a	n/a	n/a	blue
152.8315	1.0	ITI	n/a	n/a	n/a	n/a	n/a	n/a	n/a	n/a
153.8314	0.5	FIXCROSS	n/a	n/a	n/a	n/a	n/a	n/a	n/a	n/a
154.3314	0.6833	INK	54	Incongruent	niebieski	blue	czerwony	red	hit	n/a
154.998	n/a	RESPONSE	n/a	n/a	n/a	n/a	n/a	n/a	n/a	red
155.014	n/a	RESPONSE	n/a	n/a	n/a	n/a	n/a	n/a	n/a	n/a
155.0147	1.0	ITI	n/a	n/a	n/a	n/a	n/a	n/a	n/a	n/a
156.0147	0.5	FIXCROSS	n/a	n/a	n/a	n/a	n/a	n/a	n/a	n/a
156.5147	0.7167	INK	55	Neutral	xxxxx	xxxxx	zielony	green	hit	n/a
157.2206	n/a	RESPONSE	n/a	n/a	n/a	n/a	n/a	n/a	n/a	green
157.2314	1.0	ITI	n/a	n/a	n/a	n/a	n/a	n/a	n/a	n/a
158.2314	0.5	FIXCROSS	n/a	n/a	n/a	n/a	n/a	n/a	n/a	n/a
158.7313	0.8667	INK	56	Incongruent	niebieski	blue	czerwony	red	hit	n/a
159.5869	n/a	RESPONSE	n/a	n/a	n/a	n/a	n/a	n/a	n/a	red
159.598	1.0	ITI	n/a	n/a	n/a	n/a	n/a	n/a	n/a	n/a
160.598	0.5	FIXCROSS	n/a	n/a	n/a	n/a	n/a	n/a	n/a	n/a
161.098	0.4833	INK	57	Neutral	xxxxxxxxx	xxxxxxxxx	czerwony	red	hit	n/a
161.5695	n/a	RESPONSE	n/a	n/a	n/a	n/a	n/a	n/a	n/a	red
161.5813	1.0	ITI	n/a	n/a	n/a	n/a	n/a	n/a	n/a	n/a
162.5813	0.5	FIXCROSS	n/a	n/a	n/a	n/a	n/a	n/a	n/a	n/a
163.0813	0.6333	INK	58	Incongruent	żółty	yellow	zielony	green	hit	n/a
163.6962	n/a	RESPONSE	n/a	n/a	n/a	n/a	n/a	n/a	n/a	green
163.7146	1.0	ITI	n/a	n/a	n/a	n/a	n/a	n/a	n/a	n/a
164.7146	0.5	FIXCROSS	n/a	n/a	n/a	n/a	n/a	n/a	n/a	n/a
165.2146	0.4333	INK	59	Incongruent	czerwony	red	zielony	green	hit	n/a
165.6308	n/a	RESPONSE	n/a	n/a	n/a	n/a	n/a	n/a	n/a	green
165.6479	1.0	ITI	n/a	n/a	n/a	n/a	n/a	n/a	n/a	n/a
166.6479	0.5	FIXCROSS	n/a	n/a	n/a	n/a	n/a	n/a	n/a	n/a
167.1479	0.3333	INK	60	Incongruent	czerwony	red	zielony	green	hit	n/a
167.4695	n/a	RESPONSE	n/a	n/a	n/a	n/a	n/a	n/a	n/a	green
167.4812	1.0	ITI	n/a	n/a	n/a	n/a	n/a	n/a	n/a	n/a
168.4812	0.5	FIXCROSS	n/a	n/a	n/a	n/a	n/a	n/a	n/a	n/a
168.9812	0.7167	INK	61	Neutral	xxxxxxxxx	xxxxxxxxx	czerwony	red	incorrect	n/a
169.692	n/a	RESPONSE	n/a	n/a	n/a	n/a	n/a	n/a	n/a	yellow
169.6978	1.0	ITI	n/a	n/a	n/a	n/a	n/a	n/a	n/a	n/a
170.6978	0.5	FIXCROSS	n/a	n/a	n/a	n/a	n/a	n/a	n/a	n/a
171.1978	0.7833	INK	62	Neutral	xxxxxxx	xxxxxxx	niebieski	blue	hit	n/a
171.9625	n/a	RESPONSE	n/a	n/a	n/a	n/a	n/a	n/a	n/a	blue
171.9811	1.0	ITI	n/a	n/a	n/a	n/a	n/a	n/a	n/a	n/a
172.9811	0.5	FIXCROSS	n/a	n/a	n/a	n/a	n/a	n/a	n/a	n/a
173.4811	0.7666	INK	63	Neutral	xxxxxxxx	xxxxxxxx	zielony	green	hit	n/a
174.233	n/a	RESPONSE	n/a	n/a	n/a	n/a	n/a	n/a	n/a	green
174.2477	1.0	ITI	n/a	n/a	n/a	n/a	n/a	n/a	n/a	n/a
175.2477	0.4981	FIXCROSS	n/a	n/a	n/a	n/a	n/a	n/a	n/a	n/a
175.7458	0.6019	INK	64	Neutral	xxxxxxxxx	xxxxxxxxx	czerwony	red	hit	n/a
176.3434	n/a	RESPONSE	n/a	n/a	n/a	n/a	n/a	n/a	n/a	red
176.3477	1.0	ITI	n/a	n/a	n/a	n/a	n/a	n/a	n/a	n/a
177.3477	0.5	FIXCROSS	n/a	n/a	n/a	n/a	n/a	n/a	n/a	n/a
177.8477	0.5833	INK	65	Incongruent	niebieski	blue	zielony	green	hit	n/a
178.4221	n/a	RESPONSE	n/a	n/a	n/a	n/a	n/a	n/a	n/a	green
178.431	1.0	ITI	n/a	n/a	n/a	n/a	n/a	n/a	n/a	n/a
179.431	0.5	FIXCROSS	n/a	n/a	n/a	n/a	n/a	n/a	n/a	n/a
179.931	0.6	INK	66	Neutral	xxxxx	xxxxx	czerwony	red	hit	n/a
180.5167	n/a	RESPONSE	n/a	n/a	n/a	n/a	n/a	n/a	n/a	red
180.5309	1.0	ITI	n/a	n/a	n/a	n/a	n/a	n/a	n/a	n/a
181.5309	0.5	FIXCROSS	n/a	n/a	n/a	n/a	n/a	n/a	n/a	n/a
182.0309	0.5	INK	67	Incongruent	żółty	yellow	zielony	green	hit	n/a
182.5153	n/a	RESPONSE	n/a	n/a	n/a	n/a	n/a	n/a	n/a	green
182.5309	1.0	ITI	n/a	n/a	n/a	n/a	n/a	n/a	n/a	n/a
183.5309	0.5	FIXCROSS	n/a	n/a	n/a	n/a	n/a	n/a	n/a	n/a
184.0309	0.6333	INK	68	Incongruent	niebieski	blue	zielony	green	hit	n/a
184.6578	n/a	RESPONSE	n/a	n/a	n/a	n/a	n/a	n/a	n/a	green
184.6642	1.0	ITI	n/a	n/a	n/a	n/a	n/a	n/a	n/a	n/a
185.6642	0.5	FIXCROSS	n/a	n/a	n/a	n/a	n/a	n/a	n/a	n/a
186.1642	0.6333	INK	69	Neutral	xxxxxxx	xxxxxxx	czerwony	red	hit	n/a
186.7844	n/a	RESPONSE	n/a	n/a	n/a	n/a	n/a	n/a	n/a	red
186.7975	1.0	ITI	n/a	n/a	n/a	n/a	n/a	n/a	n/a	n/a
187.7975	0.5	FIXCROSS	n/a	n/a	n/a	n/a	n/a	n/a	n/a	n/a
188.2975	0.6333	INK	70	Neutral	xxxxxxxx	xxxxxxxx	żółty	yellow	hit	n/a
188.9269	n/a	RESPONSE	n/a	n/a	n/a	n/a	n/a	n/a	n/a	yellow
188.9308	1.0	ITI	n/a	n/a	n/a	n/a	n/a	n/a	n/a	n/a
189.9308	0.5	FIXCROSS	n/a	n/a	n/a	n/a	n/a	n/a	n/a	n/a
190.4308	0.55	INK	71	Incongruent	zielony	green	czerwony	red	hit	n/a
190.9734	n/a	RESPONSE	n/a	n/a	n/a	n/a	n/a	n/a	n/a	red
190.9807	1.0	ITI	n/a	n/a	n/a	n/a	n/a	n/a	n/a	n/a
191.9807	0.5	FIXCROSS	n/a	n/a	n/a	n/a	n/a	n/a	n/a	n/a
192.4807	0.65	INK	72	Incongruent	czerwony	red	niebieski	blue	hit	n/a
193.1161	n/a	RESPONSE	n/a	n/a	n/a	n/a	n/a	n/a	n/a	blue
193.1307	1.0333	ITI	n/a	n/a	n/a	n/a	n/a	n/a	n/a	n/a
211.1955	n/a	RESPONSE	n/a	n/a	n/a	n/a	n/a	n/a	n/a	n/a
211.2304	1.0	ITI	n/a	n/a	n/a	n/a	n/a	n/a	n/a	n/a
212.2304	0.5	FIXCROSS	n/a	n/a	n/a	n/a	n/a	n/a	n/a	n/a
212.7304	1.1333	T_COLOR_NAME	1	Incongruent	zielony	green	niebieski	blue	hit	n/a
213.849	n/a	RESPONSE	n/a	n/a	n/a	n/a	n/a	n/a	n/a	green
213.8636	0.5	FEEDBACK	n/a	n/a	n/a	n/a	n/a	n/a	n/a	n/a
214.3636	1.0	ITI	n/a	n/a	n/a	n/a	n/a	n/a	n/a	n/a
215.3636	0.5	FIXCROSS	n/a	n/a	n/a	n/a	n/a	n/a	n/a	n/a
215.8636	0.7167	T_COLOR_NAME	2	Neutral	czerwony	red	Neutral	Neutral	hit	n/a
216.5665	n/a	RESPONSE	n/a	n/a	n/a	n/a	n/a	n/a	n/a	red
216.5803	0.5	FEEDBACK	n/a	n/a	n/a	n/a	n/a	n/a	n/a	n/a
217.0803	1.0	ITI	n/a	n/a	n/a	n/a	n/a	n/a	n/a	n/a
218.0802	0.5	FIXCROSS	n/a	n/a	n/a	n/a	n/a	n/a	n/a	n/a
218.5802	0.7667	T_COLOR_NAME	3	Neutral	zielony	green	Neutral	Neutral	hit	n/a
219.3314	n/a	RESPONSE	n/a	n/a	n/a	n/a	n/a	n/a	n/a	green
219.3469	0.5	FEEDBACK	n/a	n/a	n/a	n/a	n/a	n/a	n/a	n/a
219.8469	1.0	ITI	n/a	n/a	n/a	n/a	n/a	n/a	n/a	n/a
220.8469	0.5	FIXCROSS	n/a	n/a	n/a	n/a	n/a	n/a	n/a	n/a
221.3468	0.8833	T_COLOR_NAME	4	Neutral	niebieski	blue	Neutral	Neutral	hit	n/a
222.2247	n/a	RESPONSE	n/a	n/a	n/a	n/a	n/a	n/a	n/a	blue
222.2301	0.5	FEEDBACK	n/a	n/a	n/a	n/a	n/a	n/a	n/a	n/a
222.7301	1.0	ITI	n/a	n/a	n/a	n/a	n/a	n/a	n/a	n/a
223.7301	0.5	FIXCROSS	n/a	n/a	n/a	n/a	n/a	n/a	n/a	n/a
224.2301	0.8667	T_COLOR_NAME	5	Incongruent	żółty	yellow	czerwony	red	hit	n/a
225.0855	n/a	RESPONSE	n/a	n/a	n/a	n/a	n/a	n/a	n/a	yellow
225.0968	0.5	FEEDBACK	n/a	n/a	n/a	n/a	n/a	n/a	n/a	n/a
225.5968	1.0	ITI	n/a	n/a	n/a	n/a	n/a	n/a	n/a	n/a
226.5968	0.5	FIXCROSS	n/a	n/a	n/a	n/a	n/a	n/a	n/a	n/a
227.0967	0.9333	T_COLOR_NAME	6	Neutral	niebieski	blue	Neutral	Neutral	hit	n/a
228.0106	n/a	RESPONSE	n/a	n/a	n/a	n/a	n/a	n/a	n/a	blue
228.0301	0.5	FEEDBACK	n/a	n/a	n/a	n/a	n/a	n/a	n/a	n/a
228.53	1.0	ITI	n/a	n/a	n/a	n/a	n/a	n/a	n/a	n/a
229.53	0.5	FIXCROSS	n/a	n/a	n/a	n/a	n/a	n/a	n/a	n/a
230.03	0.6333	T_COLOR_NAME	7	Neutral	żółty	yellow	Neutral	Neutral	hit	n/a
230.6478	n/a	RESPONSE	n/a	n/a	n/a	n/a	n/a	n/a	n/a	yellow
230.6633	0.5	FEEDBACK	n/a	n/a	n/a	n/a	n/a	n/a	n/a	n/a
231.1633	1.0	ITI	n/a	n/a	n/a	n/a	n/a	n/a	n/a	n/a
232.1633	0.5	FIXCROSS	n/a	n/a	n/a	n/a	n/a	n/a	n/a	n/a
232.6633	0.9333	T_COLOR_NAME	8	Incongruent	niebieski	blue	czerwony	red	hit	n/a
233.589	n/a	RESPONSE	n/a	n/a	n/a	n/a	n/a	n/a	n/a	blue
233.5966	0.5	FEEDBACK	n/a	n/a	n/a	n/a	n/a	n/a	n/a	n/a
234.0966	1.0	ITI	n/a	n/a	n/a	n/a	n/a	n/a	n/a	n/a
235.0966	0.5	FIXCROSS	n/a	n/a	n/a	n/a	n/a	n/a	n/a	n/a
235.5966	0.5667	T_COLOR_NAME	9	Incongruent	niebieski	blue	zielony	green	hit	n/a
236.1469	n/a	RESPONSE	n/a	n/a	n/a	n/a	n/a	n/a	n/a	blue
236.1632	0.5	FEEDBACK	n/a	n/a	n/a	n/a	n/a	n/a	n/a	n/a
236.6632	1.0	ITI	n/a	n/a	n/a	n/a	n/a	n/a	n/a	n/a
237.6632	0.5	FIXCROSS	n/a	n/a	n/a	n/a	n/a	n/a	n/a	n/a
238.1632	0.3833	T_COLOR_NAME	10	Neutral	niebieski	blue	Neutral	Neutral	hit	n/a
238.5287	n/a	RESPONSE	n/a	n/a	n/a	n/a	n/a	n/a	n/a	blue
238.5465	0.5	FEEDBACK	n/a	n/a	n/a	n/a	n/a	n/a	n/a	n/a
239.0465	1.0	ITI	n/a	n/a	n/a	n/a	n/a	n/a	n/a	n/a
240.0465	0.5	FIXCROSS	n/a	n/a	n/a	n/a	n/a	n/a	n/a	n/a
240.5465	0.7667	T_COLOR_NAME	11	Incongruent	czerwony	red	żółty	yellow	hit	n/a
241.294	n/a	RESPONSE	n/a	n/a	n/a	n/a	n/a	n/a	n/a	red
241.3131	0.5	FEEDBACK	n/a	n/a	n/a	n/a	n/a	n/a	n/a	n/a
241.8131	1.0	ITI	n/a	n/a	n/a	n/a	n/a	n/a	n/a	n/a
242.8131	0.5	FIXCROSS	n/a	n/a	n/a	n/a	n/a	n/a	n/a	n/a
243.3131	1.0333	T_COLOR_NAME	12	Incongruent	żółty	yellow	niebieski	blue	hit	n/a
244.3312	n/a	RESPONSE	n/a	n/a	n/a	n/a	n/a	n/a	n/a	yellow
244.3464	0.5	FEEDBACK	n/a	n/a	n/a	n/a	n/a	n/a	n/a	n/a
244.8464	1.0	ITI	n/a	n/a	n/a	n/a	n/a	n/a	n/a	n/a
247.5282	n/a	RESPONSE	n/a	n/a	n/a	n/a	n/a	n/a	n/a	n/a
247.563	1.0	ITI	n/a	n/a	n/a	n/a	n/a	n/a	n/a	n/a
248.563	0.5	FIXCROSS	n/a	n/a	n/a	n/a	n/a	n/a	n/a	n/a
249.063	0.7833	COLOR_NAME	1	Neutral	żółty	yellow	Neutral	Neutral	hit	n/a
249.8299	n/a	RESPONSE	n/a	n/a	n/a	n/a	n/a	n/a	n/a	yellow
249.8463	1.0	ITI	n/a	n/a	n/a	n/a	n/a	n/a	n/a	n/a
250.8463	0.5	FIXCROSS	n/a	n/a	n/a	n/a	n/a	n/a	n/a	n/a
251.3463	0.7166	COLOR_NAME	2	Neutral	czerwony	red	Neutral	Neutral	hit	n/a
252.0516	n/a	RESPONSE	n/a	n/a	n/a	n/a	n/a	n/a	n/a	red
252.0629	1.0	ITI	n/a	n/a	n/a	n/a	n/a	n/a	n/a	n/a
253.0629	0.5	FIXCROSS	n/a	n/a	n/a	n/a	n/a	n/a	n/a	n/a
253.5629	0.7	COLOR_NAME	3	Incongruent	żółty	yellow	zielony	green	hit	n/a
254.258	n/a	RESPONSE	n/a	n/a	n/a	n/a	n/a	n/a	n/a	yellow
254.2629	1.0	ITI	n/a	n/a	n/a	n/a	n/a	n/a	n/a	n/a
255.2629	0.5	FIXCROSS	n/a	n/a	n/a	n/a	n/a	n/a	n/a	n/a
255.7629	0.7833	COLOR_NAME	4	Incongruent	czerwony	red	żółty	yellow	hit	n/a
256.5284	n/a	RESPONSE	n/a	n/a	n/a	n/a	n/a	n/a	n/a	red
256.5462	1.0	ITI	n/a	n/a	n/a	n/a	n/a	n/a	n/a	n/a
257.5462	0.5	FIXCROSS	n/a	n/a	n/a	n/a	n/a	n/a	n/a	n/a
258.0462	0.85	COLOR_NAME	5	Neutral	niebieski	blue	Neutral	Neutral	hit	n/a
258.8785	n/a	RESPONSE	n/a	n/a	n/a	n/a	n/a	n/a	n/a	blue
258.8962	1.0	ITI	n/a	n/a	n/a	n/a	n/a	n/a	n/a	n/a
259.8961	0.5	FIXCROSS	n/a	n/a	n/a	n/a	n/a	n/a	n/a	n/a
260.3961	0.6833	COLOR_NAME	6	Neutral	niebieski	blue	Neutral	Neutral	hit	n/a
261.0689	n/a	RESPONSE	n/a	n/a	n/a	n/a	n/a	n/a	n/a	blue
261.0794	1.0	ITI	n/a	n/a	n/a	n/a	n/a	n/a	n/a	n/a
262.0794	0.5	FIXCROSS	n/a	n/a	n/a	n/a	n/a	n/a	n/a	n/a
262.5794	1.8166	COLOR_NAME	7	Incongruent	zielony	green	czerwony	red	hit	n/a
264.3783	n/a	RESPONSE	n/a	n/a	n/a	n/a	n/a	n/a	n/a	green
264.3961	1.0	ITI	n/a	n/a	n/a	n/a	n/a	n/a	n/a	n/a
265.396	0.5	FIXCROSS	n/a	n/a	n/a	n/a	n/a	n/a	n/a	n/a
265.896	1.05	COLOR_NAME	8	Neutral	niebieski	blue	Neutral	Neutral	hit	n/a
266.9363	n/a	RESPONSE	n/a	n/a	n/a	n/a	n/a	n/a	n/a	blue
266.946	1.0	ITI	n/a	n/a	n/a	n/a	n/a	n/a	n/a	n/a
267.946	0.5	FIXCROSS	n/a	n/a	n/a	n/a	n/a	n/a	n/a	n/a
268.446	0.8667	COLOR_NAME	9	Incongruent	niebieski	blue	zielony	green	hit	n/a
269.3025	n/a	RESPONSE	n/a	n/a	n/a	n/a	n/a	n/a	n/a	blue
269.3126	1.0	ITI	n/a	n/a	n/a	n/a	n/a	n/a	n/a	n/a
270.3126	0.5	FIXCROSS	n/a	n/a	n/a	n/a	n/a	n/a	n/a	n/a
270.8126	0.8166	COLOR_NAME	10	Incongruent	zielony	green	czerwony	red	hit	n/a
271.6208	n/a	RESPONSE	n/a	n/a	n/a	n/a	n/a	n/a	n/a	green
271.6293	1.0	ITI	n/a	n/a	n/a	n/a	n/a	n/a	n/a	n/a
272.6292	0.5	FIXCROSS	n/a	n/a	n/a	n/a	n/a	n/a	n/a	n/a
273.1292	0.6667	COLOR_NAME	11	Neutral	czerwony	red	Neutral	Neutral	hit	n/a
273.7791	n/a	RESPONSE	n/a	n/a	n/a	n/a	n/a	n/a	n/a	red
273.7959	1.0	ITI	n/a	n/a	n/a	n/a	n/a	n/a	n/a	n/a
274.7959	0.5	FIXCROSS	n/a	n/a	n/a	n/a	n/a	n/a	n/a	n/a
275.2959	0.65	COLOR_NAME	12	Incongruent	niebieski	blue	żółty	yellow	hit	n/a
275.9375	n/a	RESPONSE	n/a	n/a	n/a	n/a	n/a	n/a	n/a	blue
275.9458	1.0	ITI	n/a	n/a	n/a	n/a	n/a	n/a	n/a	n/a
276.9458	0.5	FIXCROSS	n/a	n/a	n/a	n/a	n/a	n/a	n/a	n/a
277.4458	0.6499	COLOR_NAME	13	Neutral	niebieski	blue	Neutral	Neutral	hit	n/a
278.0799	n/a	RESPONSE	n/a	n/a	n/a	n/a	n/a	n/a	n/a	blue
278.0958	1.0	ITI	n/a	n/a	n/a	n/a	n/a	n/a	n/a	n/a
279.0958	0.5	FIXCROSS	n/a	n/a	n/a	n/a	n/a	n/a	n/a	n/a
279.5958	0.5666	COLOR_NAME	14	Neutral	żółty	yellow	Neutral	Neutral	hit	n/a
280.1583	n/a	RESPONSE	n/a	n/a	n/a	n/a	n/a	n/a	n/a	yellow
280.1624	1.0	ITI	n/a	n/a	n/a	n/a	n/a	n/a	n/a	n/a
281.1624	0.5	FIXCROSS	n/a	n/a	n/a	n/a	n/a	n/a	n/a	n/a
281.6624	0.75	COLOR_NAME	15	Neutral	czerwony	red	Neutral	Neutral	hit	n/a
282.3967	n/a	RESPONSE	n/a	n/a	n/a	n/a	n/a	n/a	n/a	red
282.4124	1.0	ITI	n/a	n/a	n/a	n/a	n/a	n/a	n/a	n/a
283.4124	0.5	FIXCROSS	n/a	n/a	n/a	n/a	n/a	n/a	n/a	n/a
283.9124	0.65	COLOR_NAME	16	Incongruent	czerwony	red	żółty	yellow	hit	n/a
284.5551	n/a	RESPONSE	n/a	n/a	n/a	n/a	n/a	n/a	n/a	red
284.5624	1.0	ITI	n/a	n/a	n/a	n/a	n/a	n/a	n/a	n/a
285.5623	0.5	FIXCROSS	n/a	n/a	n/a	n/a	n/a	n/a	n/a	n/a
286.0623	0.7666	COLOR_NAME	17	Incongruent	zielony	green	żółty	yellow	hit	n/a
286.8096	n/a	RESPONSE	n/a	n/a	n/a	n/a	n/a	n/a	n/a	green
286.829	1.0	ITI	n/a	n/a	n/a	n/a	n/a	n/a	n/a	n/a
287.829	0.5	FIXCROSS	n/a	n/a	n/a	n/a	n/a	n/a	n/a	n/a
288.3289	0.7667	COLOR_NAME	18	Incongruent	czerwony	red	zielony	green	hit	n/a
289.0798	n/a	RESPONSE	n/a	n/a	n/a	n/a	n/a	n/a	n/a	red
289.0956	1.0	ITI	n/a	n/a	n/a	n/a	n/a	n/a	n/a	n/a
290.0956	0.5	FIXCROSS	n/a	n/a	n/a	n/a	n/a	n/a	n/a	n/a
290.5956	0.6167	COLOR_NAME	19	Neutral	żółty	yellow	Neutral	Neutral	hit	n/a
291.2063	n/a	RESPONSE	n/a	n/a	n/a	n/a	n/a	n/a	n/a	yellow
291.2122	1.0	ITI	n/a	n/a	n/a	n/a	n/a	n/a	n/a	n/a
292.2122	0.5	FIXCROSS	n/a	n/a	n/a	n/a	n/a	n/a	n/a	n/a
292.7122	0.9	COLOR_NAME	20	Neutral	zielony	green	Neutral	Neutral	hit	n/a
293.6047	n/a	RESPONSE	n/a	n/a	n/a	n/a	n/a	n/a	n/a	green
293.6122	1.0	ITI	n/a	n/a	n/a	n/a	n/a	n/a	n/a	n/a
294.6122	0.5	FIXCROSS	n/a	n/a	n/a	n/a	n/a	n/a	n/a	n/a
295.1122	0.7833	COLOR_NAME	21	Incongruent	żółty	yellow	czerwony	red	hit	n/a
295.891	n/a	RESPONSE	n/a	n/a	n/a	n/a	n/a	n/a	n/a	yellow
295.8955	1.0	ITI	n/a	n/a	n/a	n/a	n/a	n/a	n/a	n/a
296.8955	0.5	FIXCROSS	n/a	n/a	n/a	n/a	n/a	n/a	n/a	n/a
297.3954	0.8333	COLOR_NAME	22	Neutral	zielony	green	Neutral	Neutral	hit	n/a
298.2094	n/a	RESPONSE	n/a	n/a	n/a	n/a	n/a	n/a	n/a	green
298.2288	1.0	ITI	n/a	n/a	n/a	n/a	n/a	n/a	n/a	n/a
299.2288	0.5	FIXCROSS	n/a	n/a	n/a	n/a	n/a	n/a	n/a	n/a
299.7287	0.3833	COLOR_NAME	23	Incongruent	żółty	yellow	niebieski	blue	hit	n/a
300.096	n/a	RESPONSE	n/a	n/a	n/a	n/a	n/a	n/a	n/a	yellow
300.1121	1.0	ITI	n/a	n/a	n/a	n/a	n/a	n/a	n/a	n/a
301.112	0.5	FIXCROSS	n/a	n/a	n/a	n/a	n/a	n/a	n/a	n/a
301.612	0.45	COLOR_NAME	24	Neutral	zielony	green	Neutral	Neutral	hit	n/a
302.0466	n/a	RESPONSE	n/a	n/a	n/a	n/a	n/a	n/a	n/a	green
302.062	1.0	ITI	n/a	n/a	n/a	n/a	n/a	n/a	n/a	n/a
303.062	0.5	FIXCROSS	n/a	n/a	n/a	n/a	n/a	n/a	n/a	n/a
303.562	0.6167	COLOR_NAME	25	Neutral	zielony	green	Neutral	Neutral	hit	n/a
304.1731	n/a	RESPONSE	n/a	n/a	n/a	n/a	n/a	n/a	n/a	green
304.1787	1.0	ITI	n/a	n/a	n/a	n/a	n/a	n/a	n/a	n/a
305.1786	0.5	FIXCROSS	n/a	n/a	n/a	n/a	n/a	n/a	n/a	n/a
305.6786	0.9833	COLOR_NAME	26	Incongruent	niebieski	blue	zielony	green	hit	n/a
306.6513	n/a	RESPONSE	n/a	n/a	n/a	n/a	n/a	n/a	n/a	blue
306.6619	1.0	ITI	n/a	n/a	n/a	n/a	n/a	n/a	n/a	n/a
307.6619	0.5	FIXCROSS	n/a	n/a	n/a	n/a	n/a	n/a	n/a	n/a
308.1619	0.85	COLOR_NAME	27	Neutral	zielony	green	Neutral	Neutral	hit	n/a
309.0017	n/a	RESPONSE	n/a	n/a	n/a	n/a	n/a	n/a	n/a	green
309.0119	1.0	ITI	n/a	n/a	n/a	n/a	n/a	n/a	n/a	n/a
310.0119	0.5	FIXCROSS	n/a	n/a	n/a	n/a	n/a	n/a	n/a	n/a
310.5119	0.6167	COLOR_NAME	28	Incongruent	czerwony	red	żółty	yellow	hit	n/a
311.1122	n/a	RESPONSE	n/a	n/a	n/a	n/a	n/a	n/a	n/a	red
311.1285	1.0	ITI	n/a	n/a	n/a	n/a	n/a	n/a	n/a	n/a
312.1285	0.5	FIXCROSS	n/a	n/a	n/a	n/a	n/a	n/a	n/a	n/a
312.6285	0.8	COLOR_NAME	29	Neutral	żółty	yellow	Neutral	Neutral	hit	n/a
313.4144	n/a	RESPONSE	n/a	n/a	n/a	n/a	n/a	n/a	n/a	yellow
313.4285	1.0	ITI	n/a	n/a	n/a	n/a	n/a	n/a	n/a	n/a
314.4285	0.5	FIXCROSS	n/a	n/a	n/a	n/a	n/a	n/a	n/a	n/a
314.9285	0.65	COLOR_NAME	30	Neutral	czerwony	red	Neutral	Neutral	hit	n/a
315.5727	n/a	RESPONSE	n/a	n/a	n/a	n/a	n/a	n/a	n/a	red
315.5785	1.0	ITI	n/a	n/a	n/a	n/a	n/a	n/a	n/a	n/a
316.5784	0.5	FIXCROSS	n/a	n/a	n/a	n/a	n/a	n/a	n/a	n/a
317.0784	0.6	COLOR_NAME	31	Incongruent	zielony	green	niebieski	blue	hit	n/a
317.6672	n/a	RESPONSE	n/a	n/a	n/a	n/a	n/a	n/a	n/a	green
317.6784	1.0	ITI	n/a	n/a	n/a	n/a	n/a	n/a	n/a	n/a
318.6784	0.5	FIXCROSS	n/a	n/a	n/a	n/a	n/a	n/a	n/a	n/a
319.1784	0.6667	COLOR_NAME	32	Neutral	czerwony	red	Neutral	Neutral	hit	n/a
319.8414	n/a	RESPONSE	n/a	n/a	n/a	n/a	n/a	n/a	n/a	red
319.845	1.0	ITI	n/a	n/a	n/a	n/a	n/a	n/a	n/a	n/a
320.845	0.5	FIXCROSS	n/a	n/a	n/a	n/a	n/a	n/a	n/a	n/a
321.345	0.6166	COLOR_NAME	33	Neutral	czerwony	red	Neutral	Neutral	hit	n/a
321.9517	n/a	RESPONSE	n/a	n/a	n/a	n/a	n/a	n/a	n/a	red
321.9617	1.0	ITI	n/a	n/a	n/a	n/a	n/a	n/a	n/a	n/a
322.9617	0.5	FIXCROSS	n/a	n/a	n/a	n/a	n/a	n/a	n/a	n/a
323.4616	0.6666	COLOR_NAME	34	Incongruent	niebieski	blue	żółty	yellow	hit	n/a
324.11	n/a	RESPONSE	n/a	n/a	n/a	n/a	n/a	n/a	n/a	blue
324.1283	1.0	ITI	n/a	n/a	n/a	n/a	n/a	n/a	n/a	n/a
325.1283	0.5	FIXCROSS	n/a	n/a	n/a	n/a	n/a	n/a	n/a	n/a
325.6283	0.8333	COLOR_NAME	35	Incongruent	zielony	green	żółty	yellow	hit	n/a
326.4442	n/a	RESPONSE	n/a	n/a	n/a	n/a	n/a	n/a	n/a	green
326.4616	1.0	ITI	n/a	n/a	n/a	n/a	n/a	n/a	n/a	n/a
327.4616	0.5	FIXCROSS	n/a	n/a	n/a	n/a	n/a	n/a	n/a	n/a
327.9616	0.8	COLOR_NAME	36	Incongruent	niebieski	blue	czerwony	red	hit	n/a
328.7463	n/a	RESPONSE	n/a	n/a	n/a	n/a	n/a	n/a	n/a	blue
328.7615	1.0	ITI	n/a	n/a	n/a	n/a	n/a	n/a	n/a	n/a
329.7615	0.5	FIXCROSS	n/a	n/a	n/a	n/a	n/a	n/a	n/a	n/a
330.2615	0.6667	COLOR_NAME	37	Incongruent	niebieski	blue	czerwony	red	hit	n/a
330.9205	n/a	RESPONSE	n/a	n/a	n/a	n/a	n/a	n/a	n/a	blue
330.9282	1.0	ITI	n/a	n/a	n/a	n/a	n/a	n/a	n/a	n/a
331.9281	0.5	FIXCROSS	n/a	n/a	n/a	n/a	n/a	n/a	n/a	n/a
332.4281	0.5833	COLOR_NAME	38	Incongruent	niebieski	blue	żółty	yellow	hit	n/a
332.9989	n/a	RESPONSE	n/a	n/a	n/a	n/a	n/a	n/a	n/a	blue
333.0115	1.0	ITI	n/a	n/a	n/a	n/a	n/a	n/a	n/a	n/a
334.0114	0.5	FIXCROSS	n/a	n/a	n/a	n/a	n/a	n/a	n/a	n/a
334.5114	0.85	COLOR_NAME	39	Neutral	czerwony	red	Neutral	Neutral	hit	n/a
335.3491	n/a	RESPONSE	n/a	n/a	n/a	n/a	n/a	n/a	n/a	red
335.3614	1.0	ITI	n/a	n/a	n/a	n/a	n/a	n/a	n/a	n/a
336.3614	0.5	FIXCROSS	n/a	n/a	n/a	n/a	n/a	n/a	n/a	n/a
336.8614	0.65	COLOR_NAME	40	Incongruent	żółty	yellow	zielony	green	hit	n/a
337.5074	n/a	RESPONSE	n/a	n/a	n/a	n/a	n/a	n/a	n/a	yellow
337.5114	1.0	ITI	n/a	n/a	n/a	n/a	n/a	n/a	n/a	n/a
338.5114	0.5	FIXCROSS	n/a	n/a	n/a	n/a	n/a	n/a	n/a	n/a
339.0113	0.6167	COLOR_NAME	41	Incongruent	czerwony	red	niebieski	blue	hit	n/a
339.6176	n/a	RESPONSE	n/a	n/a	n/a	n/a	n/a	n/a	n/a	red
339.628	1.0	ITI	n/a	n/a	n/a	n/a	n/a	n/a	n/a	n/a
340.628	0.5	FIXCROSS	n/a	n/a	n/a	n/a	n/a	n/a	n/a	n/a
341.128	0.65	COLOR_NAME	42	Neutral	zielony	green	Neutral	Neutral	hit	n/a
341.7601	n/a	RESPONSE	n/a	n/a	n/a	n/a	n/a	n/a	n/a	green
341.778	1.0	ITI	n/a	n/a	n/a	n/a	n/a	n/a	n/a	n/a
342.7779	0.5	FIXCROSS	n/a	n/a	n/a	n/a	n/a	n/a	n/a	n/a
343.2779	0.6	COLOR_NAME	43	Incongruent	czerwony	red	niebieski	blue	hit	n/a
343.8703	n/a	RESPONSE	n/a	n/a	n/a	n/a	n/a	n/a	n/a	red
343.8779	1.0	ITI	n/a	n/a	n/a	n/a	n/a	n/a	n/a	n/a
344.8779	0.5	FIXCROSS	n/a	n/a	n/a	n/a	n/a	n/a	n/a	n/a
345.3779	0.7333	COLOR_NAME	44	Incongruent	zielony	green	niebieski	blue	hit	n/a
346.0926	n/a	RESPONSE	n/a	n/a	n/a	n/a	n/a	n/a	n/a	green
346.1112	1.0	ITI	n/a	n/a	n/a	n/a	n/a	n/a	n/a	n/a
347.1112	0.5	FIXCROSS	n/a	n/a	n/a	n/a	n/a	n/a	n/a	n/a
347.6112	0.8167	COLOR_NAME	45	Incongruent	niebieski	blue	czerwony	red	hit	n/a
348.4107	n/a	RESPONSE	n/a	n/a	n/a	n/a	n/a	n/a	n/a	blue
348.4278	1.0	ITI	n/a	n/a	n/a	n/a	n/a	n/a	n/a	n/a
349.4278	0.5	FIXCROSS	n/a	n/a	n/a	n/a	n/a	n/a	n/a	n/a
349.9278	0.6167	COLOR_NAME	46	Incongruent	żółty	yellow	niebieski	blue	hit	n/a
350.5369	n/a	RESPONSE	n/a	n/a	n/a	n/a	n/a	n/a	n/a	yellow
350.5445	1.0	ITI	n/a	n/a	n/a	n/a	n/a	n/a	n/a	n/a
351.5445	0.5	FIXCROSS	n/a	n/a	n/a	n/a	n/a	n/a	n/a	n/a
352.0444	0.5333	COLOR_NAME	47	Neutral	żółty	yellow	Neutral	Neutral	hit	n/a
352.5673	n/a	RESPONSE	n/a	n/a	n/a	n/a	n/a	n/a	n/a	yellow
352.5778	1.0	ITI	n/a	n/a	n/a	n/a	n/a	n/a	n/a	n/a
353.5778	0.5	FIXCROSS	n/a	n/a	n/a	n/a	n/a	n/a	n/a	n/a
354.0777	0.75	COLOR_NAME	48	Incongruent	zielony	green	czerwony	red	hit	n/a
354.8214	n/a	RESPONSE	n/a	n/a	n/a	n/a	n/a	n/a	n/a	green
354.8277	1.0	ITI	n/a	n/a	n/a	n/a	n/a	n/a	n/a	n/a
355.8277	0.5	FIXCROSS	n/a	n/a	n/a	n/a	n/a	n/a	n/a	n/a
356.3277	0.6999	COLOR_NAME	49	Neutral	niebieski	blue	Neutral	Neutral	hit	n/a
357.0118	n/a	RESPONSE	n/a	n/a	n/a	n/a	n/a	n/a	n/a	blue
357.0276	1.0	ITI	n/a	n/a	n/a	n/a	n/a	n/a	n/a	n/a
358.0277	0.5	FIXCROSS	n/a	n/a	n/a	n/a	n/a	n/a	n/a	n/a
358.5277	0.5833	COLOR_NAME	50	Incongruent	żółty	yellow	niebieski	blue	hit	n/a
359.1061	n/a	RESPONSE	n/a	n/a	n/a	n/a	n/a	n/a	n/a	yellow
359.111	1.0	ITI	n/a	n/a	n/a	n/a	n/a	n/a	n/a	n/a
360.111	0.5	FIXCROSS	n/a	n/a	n/a	n/a	n/a	n/a	n/a	n/a
360.611	0.6	COLOR_NAME	51	Neutral	żółty	yellow	Neutral	Neutral	hit	n/a
361.2003	n/a	RESPONSE	n/a	n/a	n/a	n/a	n/a	n/a	n/a	yellow
361.2109	1.0	ITI	n/a	n/a	n/a	n/a	n/a	n/a	n/a	n/a
362.2109	0.5	FIXCROSS	n/a	n/a	n/a	n/a	n/a	n/a	n/a	n/a
362.7109	0.7	COLOR_NAME	52	Incongruent	żółty	yellow	zielony	green	hit	n/a
363.4067	n/a	RESPONSE	n/a	n/a	n/a	n/a	n/a	n/a	n/a	yellow
363.4109	1.0	ITI	n/a	n/a	n/a	n/a	n/a	n/a	n/a	n/a
364.4109	0.5	FIXCROSS	n/a	n/a	n/a	n/a	n/a	n/a	n/a	n/a
364.9109	0.7167	COLOR_NAME	53	Incongruent	zielony	green	niebieski	blue	hit	n/a
365.6129	n/a	RESPONSE	n/a	n/a	n/a	n/a	n/a	n/a	n/a	green
365.6275	1.0	ITI	n/a	n/a	n/a	n/a	n/a	n/a	n/a	n/a
366.6275	0.5	FIXCROSS	n/a	n/a	n/a	n/a	n/a	n/a	n/a	n/a
367.1275	0.7666	COLOR_NAME	54	Neutral	zielony	green	Neutral	Neutral	hit	n/a
367.8832	n/a	RESPONSE	n/a	n/a	n/a	n/a	n/a	n/a	n/a	green
367.8941	1.0	ITI	n/a	n/a	n/a	n/a	n/a	n/a	n/a	n/a
368.8941	0.4999	FIXCROSS	n/a	n/a	n/a	n/a	n/a	n/a	n/a	n/a
369.3941	0.4834	COLOR_NAME	55	Neutral	zielony	green	Neutral	Neutral	hit	n/a
369.8656	n/a	RESPONSE	n/a	n/a	n/a	n/a	n/a	n/a	n/a	green
369.8774	1.0	ITI	n/a	n/a	n/a	n/a	n/a	n/a	n/a	n/a
370.8774	0.5	FIXCROSS	n/a	n/a	n/a	n/a	n/a	n/a	n/a	n/a
371.3774	0.5	COLOR_NAME	56	Neutral	żółty	yellow	Neutral	Neutral	hit	n/a
371.8642	n/a	RESPONSE	n/a	n/a	n/a	n/a	n/a	n/a	n/a	yellow
371.8774	1.0	ITI	n/a	n/a	n/a	n/a	n/a	n/a	n/a	n/a
372.8774	0.5	FIXCROSS	n/a	n/a	n/a	n/a	n/a	n/a	n/a	n/a
373.3774	0.4833	COLOR_NAME	57	Neutral	zielony	green	Neutral	Neutral	hit	n/a
373.8468	n/a	RESPONSE	n/a	n/a	n/a	n/a	n/a	n/a	n/a	green
373.8607	1.0	ITI	n/a	n/a	n/a	n/a	n/a	n/a	n/a	n/a
374.8607	0.5	FIXCROSS	n/a	n/a	n/a	n/a	n/a	n/a	n/a	n/a
375.3607	0.7	COLOR_NAME	58	Neutral	niebieski	blue	Neutral	Neutral	hit	n/a
376.0532	n/a	RESPONSE	n/a	n/a	n/a	n/a	n/a	n/a	n/a	blue
376.0607	1.0	ITI	n/a	n/a	n/a	n/a	n/a	n/a	n/a	n/a
377.0607	0.5	FIXCROSS	n/a	n/a	n/a	n/a	n/a	n/a	n/a	n/a
377.5606	0.6	COLOR_NAME	59	Neutral	niebieski	blue	Neutral	Neutral	hit	n/a
378.1479	n/a	RESPONSE	n/a	n/a	n/a	n/a	n/a	n/a	n/a	blue
378.1606	1.0	ITI	n/a	n/a	n/a	n/a	n/a	n/a	n/a	n/a
379.1606	0.5	FIXCROSS	n/a	n/a	n/a	n/a	n/a	n/a	n/a	n/a
379.6606	0.5167	COLOR_NAME	60	Neutral	czerwony	red	Neutral	Neutral	hit	n/a
380.1625	n/a	RESPONSE	n/a	n/a	n/a	n/a	n/a	n/a	n/a	red
380.1773	1.0	ITI	n/a	n/a	n/a	n/a	n/a	n/a	n/a	n/a
381.1772	0.5	FIXCROSS	n/a	n/a	n/a	n/a	n/a	n/a	n/a	n/a
381.6772	0.4833	COLOR_NAME	61	Neutral	niebieski	blue	Neutral	Neutral	hit	n/a
382.1451	n/a	RESPONSE	n/a	n/a	n/a	n/a	n/a	n/a	n/a	blue
382.1606	1.0	ITI	n/a	n/a	n/a	n/a	n/a	n/a	n/a	n/a
383.1605	0.5	FIXCROSS	n/a	n/a	n/a	n/a	n/a	n/a	n/a	n/a
383.6605	0.9167	COLOR_NAME	62	Incongruent	żółty	yellow	czerwony	red	hit	n/a
384.5595	n/a	RESPONSE	n/a	n/a	n/a	n/a	n/a	n/a	n/a	yellow
384.5772	1.0	ITI	n/a	n/a	n/a	n/a	n/a	n/a	n/a	n/a
385.5772	0.5	FIXCROSS	n/a	n/a	n/a	n/a	n/a	n/a	n/a	n/a
386.0772	0.6667	COLOR_NAME	63	Incongruent	niebieski	blue	zielony	green	hit	n/a
386.7341	n/a	RESPONSE	n/a	n/a	n/a	n/a	n/a	n/a	n/a	blue
386.7438	1.0	ITI	n/a	n/a	n/a	n/a	n/a	n/a	n/a	n/a
387.7438	0.5	FIXCROSS	n/a	n/a	n/a	n/a	n/a	n/a	n/a	n/a
388.2438	0.95	COLOR_NAME	64	Incongruent	zielony	green	żółty	yellow	hit	n/a
389.1803	n/a	RESPONSE	n/a	n/a	n/a	n/a	n/a	n/a	n/a	green
389.1938	1.0	ITI	n/a	n/a	n/a	n/a	n/a	n/a	n/a	n/a
390.1937	0.5	FIXCROSS	n/a	n/a	n/a	n/a	n/a	n/a	n/a	n/a
390.6937	0.8333	COLOR_NAME	65	Incongruent	czerwony	red	zielony	green	hit	n/a
391.5147	n/a	RESPONSE	n/a	n/a	n/a	n/a	n/a	n/a	n/a	red
391.527	1.0	ITI	n/a	n/a	n/a	n/a	n/a	n/a	n/a	n/a
392.527	0.5	FIXCROSS	n/a	n/a	n/a	n/a	n/a	n/a	n/a	n/a
393.027	0.6333	COLOR_NAME	66	Neutral	niebieski	blue	Neutral	Neutral	hit	n/a
393.6573	n/a	RESPONSE	n/a	n/a	n/a	n/a	n/a	n/a	n/a	blue
393.6603	1.0	ITI	n/a	n/a	n/a	n/a	n/a	n/a	n/a	n/a
394.6603	0.5	FIXCROSS	n/a	n/a	n/a	n/a	n/a	n/a	n/a	n/a
395.1603	0.6667	COLOR_NAME	67	Incongruent	czerwony	red	niebieski	blue	hit	n/a
395.8156	n/a	RESPONSE	n/a	n/a	n/a	n/a	n/a	n/a	n/a	red
395.827	1.0	ITI	n/a	n/a	n/a	n/a	n/a	n/a	n/a	n/a
396.827	0.5	FIXCROSS	n/a	n/a	n/a	n/a	n/a	n/a	n/a	n/a
397.3269	0.6666	COLOR_NAME	68	Neutral	żółty	yellow	Neutral	Neutral	hit	n/a
397.9903	n/a	RESPONSE	n/a	n/a	n/a	n/a	n/a	n/a	n/a	yellow
397.9936	1.0	ITI	n/a	n/a	n/a	n/a	n/a	n/a	n/a	n/a
398.9936	0.5	FIXCROSS	n/a	n/a	n/a	n/a	n/a	n/a	n/a	n/a
399.4936	0.6	COLOR_NAME	69	Incongruent	żółty	yellow	czerwony	red	hit	n/a
400.0847	n/a	RESPONSE	n/a	n/a	n/a	n/a	n/a	n/a	n/a	yellow
400.0936	1.0	ITI	n/a	n/a	n/a	n/a	n/a	n/a	n/a	n/a
401.0935	0.5	FIXCROSS	n/a	n/a	n/a	n/a	n/a	n/a	n/a	n/a
401.5935	0.8333	COLOR_NAME	70	Incongruent	czerwony	red	zielony	green	hit	n/a
402.4192	n/a	RESPONSE	n/a	n/a	n/a	n/a	n/a	n/a	n/a	red
402.4269	1.0	ITI	n/a	n/a	n/a	n/a	n/a	n/a	n/a	n/a
403.4268	0.5	FIXCROSS	n/a	n/a	n/a	n/a	n/a	n/a	n/a	n/a
403.9268	0.75	COLOR_NAME	71	Neutral	żółty	yellow	Neutral	Neutral	hit	n/a
404.6736	n/a	RESPONSE	n/a	n/a	n/a	n/a	n/a	n/a	n/a	yellow
404.6768	1.0	ITI	n/a	n/a	n/a	n/a	n/a	n/a	n/a	n/a
405.6768	0.5	FIXCROSS	n/a	n/a	n/a	n/a	n/a	n/a	n/a	n/a
406.1768	0.4667	COLOR_NAME	72	Neutral	czerwony	red	Neutral	Neutral	hit	n/a
406.6243	n/a	RESPONSE	n/a	n/a	n/a	n/a	n/a	n/a	n/a	red
406.6434	1.0167	ITI	n/a	n/a	n/a	n/a	n/a	n/a	n/a	n/a
410.2538	n/a	RESPONSE	n/a	n/a	n/a	n/a	n/a	n/a	n/a	n/a
