onset	duration	trial_type	trial_number	stroop_condition	stim_text(PL)	stim_text(eng)	stim_color(PL)	stim_color(eng)	response_type	response_color
0.0	n/a	RESPONSE	n/a	n/a	n/a	n/a	n/a	n/a	n/a	n/a
0.0635	1.0333	ITI	n/a	n/a	n/a	n/a	n/a	n/a	n/a	n/a
1.0969	0.5167	FIXCROSS	n/a	n/a	n/a	n/a	n/a	n/a	n/a	n/a
1.6135	1.1	T_INK	1	Incongruent	żółty	yellow	zielony	green	hit	n/a
2.6845	n/a	RESPONSE	n/a	n/a	n/a	n/a	n/a	n/a	n/a	green
2.7136	0.5167	FEEDBACK	n/a	n/a	n/a	n/a	n/a	n/a	n/a	n/a
3.2302	1.0167	ITI	n/a	n/a	n/a	n/a	n/a	n/a	n/a	n/a
4.2469	0.5167	FIXCROSS	n/a	n/a	n/a	n/a	n/a	n/a	n/a	n/a
4.7636	0.8167	T_INK	2	Neutral	xxxxx	xxxxx	niebieski	blue	hit	n/a
5.5447	n/a	RESPONSE	n/a	n/a	n/a	n/a	n/a	n/a	n/a	blue
5.5802	0.5167	FEEDBACK	n/a	n/a	n/a	n/a	n/a	n/a	n/a	n/a
6.0969	1.0167	ITI	n/a	n/a	n/a	n/a	n/a	n/a	n/a	n/a
7.1136	0.5167	FIXCROSS	n/a	n/a	n/a	n/a	n/a	n/a	n/a	n/a
7.6302	0.6833	T_INK	3	Incongruent	czerwony	red	zielony	green	hit	n/a
8.2771	n/a	RESPONSE	n/a	n/a	n/a	n/a	n/a	n/a	n/a	green
8.3136	0.5167	FEEDBACK	n/a	n/a	n/a	n/a	n/a	n/a	n/a	n/a
8.8303	1.0167	ITI	n/a	n/a	n/a	n/a	n/a	n/a	n/a	n/a
9.8469	0.5167	FIXCROSS	n/a	n/a	n/a	n/a	n/a	n/a	n/a	n/a
10.3636	0.7	T_INK	4	Incongruent	żółty	yellow	niebieski	blue	hit	n/a
11.0414	n/a	RESPONSE	n/a	n/a	n/a	n/a	n/a	n/a	n/a	blue
11.0636	0.5167	FEEDBACK	n/a	n/a	n/a	n/a	n/a	n/a	n/a	n/a
11.5803	1.0167	ITI	n/a	n/a	n/a	n/a	n/a	n/a	n/a	n/a
12.597	0.5167	FIXCROSS	n/a	n/a	n/a	n/a	n/a	n/a	n/a	n/a
13.1136	0.6333	T_INK	5	Incongruent	zielony	green	niebieski	blue	hit	n/a
13.7257	n/a	RESPONSE	n/a	n/a	n/a	n/a	n/a	n/a	n/a	blue
13.747	0.5167	FEEDBACK	n/a	n/a	n/a	n/a	n/a	n/a	n/a	n/a
14.2636	1.0167	ITI	n/a	n/a	n/a	n/a	n/a	n/a	n/a	n/a
15.2803	0.5167	FIXCROSS	n/a	n/a	n/a	n/a	n/a	n/a	n/a	n/a
15.797	0.9607	T_INK	6	Incongruent	niebieski	blue	zielony	green	hit	n/a
16.7298	n/a	RESPONSE	n/a	n/a	n/a	n/a	n/a	n/a	n/a	green
16.7577	0.5227	FEEDBACK	n/a	n/a	n/a	n/a	n/a	n/a	n/a	n/a
17.2803	1.0167	ITI	n/a	n/a	n/a	n/a	n/a	n/a	n/a	n/a
18.297	0.5167	FIXCROSS	n/a	n/a	n/a	n/a	n/a	n/a	n/a	n/a
18.8137	0.6833	T_INK	7	Incongruent	czerwony	red	żółty	yellow	hit	n/a
19.4622	n/a	RESPONSE	n/a	n/a	n/a	n/a	n/a	n/a	n/a	yellow
19.497	0.5167	FEEDBACK	n/a	n/a	n/a	n/a	n/a	n/a	n/a	n/a
20.0137	1.0167	ITI	n/a	n/a	n/a	n/a	n/a	n/a	n/a	n/a
21.0304	0.5167	FIXCROSS	n/a	n/a	n/a	n/a	n/a	n/a	n/a	n/a
21.547	0.55	T_INK	8	Neutral	xxxxx	xxxxx	czerwony	red	hit	n/a
22.0667	n/a	RESPONSE	n/a	n/a	n/a	n/a	n/a	n/a	n/a	red
22.097	0.5167	FEEDBACK	n/a	n/a	n/a	n/a	n/a	n/a	n/a	n/a
22.6137	1.0167	ITI	n/a	n/a	n/a	n/a	n/a	n/a	n/a	n/a
23.6304	0.5167	FIXCROSS	n/a	n/a	n/a	n/a	n/a	n/a	n/a	n/a
24.147	0.7334	T_INK	9	Neutral	xxxxxxx	xxxxxxx	żółty	yellow	hit	n/a
24.847	n/a	RESPONSE	n/a	n/a	n/a	n/a	n/a	n/a	n/a	yellow
24.8804	0.5167	FEEDBACK	n/a	n/a	n/a	n/a	n/a	n/a	n/a	n/a
25.3971	1.0167	ITI	n/a	n/a	n/a	n/a	n/a	n/a	n/a	n/a
26.4137	0.5167	FIXCROSS	n/a	n/a	n/a	n/a	n/a	n/a	n/a	n/a
26.9304	0.4667	T_INK	10	Neutral	xxxxxxxx	xxxxxxxx	zielony	green	hit	n/a
27.3716	n/a	RESPONSE	n/a	n/a	n/a	n/a	n/a	n/a	n/a	green
27.3971	0.5167	FEEDBACK	n/a	n/a	n/a	n/a	n/a	n/a	n/a	n/a
27.9138	1.0167	ITI	n/a	n/a	n/a	n/a	n/a	n/a	n/a	n/a
28.9304	0.5167	FIXCROSS	n/a	n/a	n/a	n/a	n/a	n/a	n/a	n/a
29.4471	0.85	T_INK	11	Neutral	xxxxxxxxx	xxxxxxxxx	żółty	yellow	hit	n/a
30.2637	n/a	RESPONSE	n/a	n/a	n/a	n/a	n/a	n/a	n/a	yellow
30.2971	0.5167	FEEDBACK	n/a	n/a	n/a	n/a	n/a	n/a	n/a	n/a
30.8138	1.0167	ITI	n/a	n/a	n/a	n/a	n/a	n/a	n/a	n/a
31.8304	0.5167	FIXCROSS	n/a	n/a	n/a	n/a	n/a	n/a	n/a	n/a
32.3471	0.65	T_INK	12	Incongruent	zielony	green	żółty	yellow	hit	n/a
32.9642	n/a	RESPONSE	n/a	n/a	n/a	n/a	n/a	n/a	n/a	yellow
32.9971	0.5167	FEEDBACK	n/a	n/a	n/a	n/a	n/a	n/a	n/a	n/a
33.5138	1.0333	ITI	n/a	n/a	n/a	n/a	n/a	n/a	n/a	n/a
37.3423	n/a	RESPONSE	n/a	n/a	n/a	n/a	n/a	n/a	n/a	n/a
37.3972	1.0167	ITI	n/a	n/a	n/a	n/a	n/a	n/a	n/a	n/a
38.4138	0.5167	FIXCROSS	n/a	n/a	n/a	n/a	n/a	n/a	n/a	n/a
38.9305	0.8833	INK	1	Neutral	xxxxxxx	xxxxxxx	niebieski	blue	hit	n/a
39.787	n/a	RESPONSE	n/a	n/a	n/a	n/a	n/a	n/a	n/a	blue
39.8138	1.0167	ITI	n/a	n/a	n/a	n/a	n/a	n/a	n/a	n/a
40.8305	0.5167	FIXCROSS	n/a	n/a	n/a	n/a	n/a	n/a	n/a	n/a
41.3472	0.6167	INK	2	Incongruent	żółty	yellow	czerwony	red	hit	n/a
41.9442	n/a	RESPONSE	n/a	n/a	n/a	n/a	n/a	n/a	n/a	red
41.9639	1.0167	ITI	n/a	n/a	n/a	n/a	n/a	n/a	n/a	n/a
42.9805	0.5167	FIXCROSS	n/a	n/a	n/a	n/a	n/a	n/a	n/a	n/a
43.4972	0.5833	INK	3	Incongruent	żółty	yellow	zielony	green	hit	n/a
44.0534	n/a	RESPONSE	n/a	n/a	n/a	n/a	n/a	n/a	n/a	green
44.0805	1.0167	ITI	n/a	n/a	n/a	n/a	n/a	n/a	n/a	n/a
45.0972	0.5167	FIXCROSS	n/a	n/a	n/a	n/a	n/a	n/a	n/a	n/a
45.6139	0.55	INK	4	Neutral	xxxxxxxxx	xxxxxxxxx	żółty	yellow	hit	n/a
46.1306	n/a	RESPONSE	n/a	n/a	n/a	n/a	n/a	n/a	n/a	yellow
46.1639	1.0167	ITI	n/a	n/a	n/a	n/a	n/a	n/a	n/a	n/a
47.1806	0.5167	FIXCROSS	n/a	n/a	n/a	n/a	n/a	n/a	n/a	n/a
47.6972	0.5833	INK	5	Incongruent	czerwony	red	żółty	yellow	hit	n/a
48.2557	n/a	RESPONSE	n/a	n/a	n/a	n/a	n/a	n/a	n/a	yellow
48.2806	1.0167	ITI	n/a	n/a	n/a	n/a	n/a	n/a	n/a	n/a
49.2973	0.5167	FIXCROSS	n/a	n/a	n/a	n/a	n/a	n/a	n/a	n/a
49.8139	0.6	INK	6	Neutral	xxxxxxx	xxxxxxx	czerwony	red	hit	n/a
50.3809	n/a	RESPONSE	n/a	n/a	n/a	n/a	n/a	n/a	n/a	red
50.4139	1.0167	ITI	n/a	n/a	n/a	n/a	n/a	n/a	n/a	n/a
51.4306	0.5167	FIXCROSS	n/a	n/a	n/a	n/a	n/a	n/a	n/a	n/a
51.9473	0.7167	INK	7	Neutral	xxxxxxxxx	xxxxxxxxx	żółty	yellow	hit	n/a
52.6339	n/a	RESPONSE	n/a	n/a	n/a	n/a	n/a	n/a	n/a	yellow
52.6639	1.0167	ITI	n/a	n/a	n/a	n/a	n/a	n/a	n/a	n/a
53.6806	0.5167	FIXCROSS	n/a	n/a	n/a	n/a	n/a	n/a	n/a	n/a
54.1973	0.5333	INK	8	Incongruent	czerwony	red	żółty	yellow	hit	n/a
54.7111	n/a	RESPONSE	n/a	n/a	n/a	n/a	n/a	n/a	n/a	yellow
54.7306	1.0167	ITI	n/a	n/a	n/a	n/a	n/a	n/a	n/a	n/a
55.7473	0.5167	FIXCROSS	n/a	n/a	n/a	n/a	n/a	n/a	n/a	n/a
56.264	0.6667	INK	9	Incongruent	niebieski	blue	zielony	green	hit	n/a
56.9002	n/a	RESPONSE	n/a	n/a	n/a	n/a	n/a	n/a	n/a	green
56.9306	1.0167	ITI	n/a	n/a	n/a	n/a	n/a	n/a	n/a	n/a
57.9473	0.5167	FIXCROSS	n/a	n/a	n/a	n/a	n/a	n/a	n/a	n/a
58.464	0.6	INK	10	Incongruent	zielony	green	czerwony	red	hit	n/a
59.0413	n/a	RESPONSE	n/a	n/a	n/a	n/a	n/a	n/a	n/a	red
59.064	1.0167	ITI	n/a	n/a	n/a	n/a	n/a	n/a	n/a	n/a
60.0807	0.5167	FIXCROSS	n/a	n/a	n/a	n/a	n/a	n/a	n/a	n/a
60.5973	0.6333	INK	11	Incongruent	niebieski	blue	zielony	green	hit	n/a
61.1984	n/a	RESPONSE	n/a	n/a	n/a	n/a	n/a	n/a	n/a	green
61.2307	1.0167	ITI	n/a	n/a	n/a	n/a	n/a	n/a	n/a	n/a
62.2473	0.5167	FIXCROSS	n/a	n/a	n/a	n/a	n/a	n/a	n/a	n/a
62.764	0.5333	INK	12	Neutral	xxxxxxx	xxxxxxx	żółty	yellow	hit	n/a
63.2758	n/a	RESPONSE	n/a	n/a	n/a	n/a	n/a	n/a	n/a	yellow
63.2973	1.0167	ITI	n/a	n/a	n/a	n/a	n/a	n/a	n/a	n/a
64.314	0.5167	FIXCROSS	n/a	n/a	n/a	n/a	n/a	n/a	n/a	n/a
64.8307	0.6833	INK	13	Incongruent	czerwony	red	zielony	green	hit	n/a
65.4808	n/a	RESPONSE	n/a	n/a	n/a	n/a	n/a	n/a	n/a	green
65.514	1.0167	ITI	n/a	n/a	n/a	n/a	n/a	n/a	n/a	n/a
66.5307	0.5167	FIXCROSS	n/a	n/a	n/a	n/a	n/a	n/a	n/a	n/a
67.0474	0.4834	INK	14	Neutral	xxxxxxx	xxxxxxx	żółty	yellow	hit	n/a
67.5101	n/a	RESPONSE	n/a	n/a	n/a	n/a	n/a	n/a	n/a	yellow
67.5307	1.0167	ITI	n/a	n/a	n/a	n/a	n/a	n/a	n/a	n/a
68.5474	0.5167	FIXCROSS	n/a	n/a	n/a	n/a	n/a	n/a	n/a	n/a
69.0641	0.7333	INK	15	Neutral	xxxxxxxx	xxxxxxxx	zielony	green	hit	n/a
69.7791	n/a	RESPONSE	n/a	n/a	n/a	n/a	n/a	n/a	n/a	green
69.7974	1.0167	ITI	n/a	n/a	n/a	n/a	n/a	n/a	n/a	n/a
70.8141	0.5167	FIXCROSS	n/a	n/a	n/a	n/a	n/a	n/a	n/a	n/a
71.3307	0.5833	INK	16	Neutral	xxxxx	xxxxx	niebieski	blue	hit	n/a
71.8883	n/a	RESPONSE	n/a	n/a	n/a	n/a	n/a	n/a	n/a	blue
71.9141	1.0167	ITI	n/a	n/a	n/a	n/a	n/a	n/a	n/a	n/a
72.9308	0.5167	FIXCROSS	n/a	n/a	n/a	n/a	n/a	n/a	n/a	n/a
73.4474	0.6333	INK	17	Incongruent	niebieski	blue	czerwony	red	hit	n/a
74.0614	n/a	RESPONSE	n/a	n/a	n/a	n/a	n/a	n/a	n/a	red
74.0808	1.0167	ITI	n/a	n/a	n/a	n/a	n/a	n/a	n/a	n/a
75.0974	0.5167	FIXCROSS	n/a	n/a	n/a	n/a	n/a	n/a	n/a	n/a
75.6141	0.4167	INK	18	Incongruent	niebieski	blue	żółty	yellow	hit	n/a
76.0109	n/a	RESPONSE	n/a	n/a	n/a	n/a	n/a	n/a	n/a	yellow
76.0308	1.0167	ITI	n/a	n/a	n/a	n/a	n/a	n/a	n/a	n/a
77.0475	0.5167	FIXCROSS	n/a	n/a	n/a	n/a	n/a	n/a	n/a	n/a
77.5641	0.5667	INK	19	Incongruent	zielony	green	żółty	yellow	hit	n/a
78.104	n/a	RESPONSE	n/a	n/a	n/a	n/a	n/a	n/a	n/a	yellow
78.1308	1.0167	ITI	n/a	n/a	n/a	n/a	n/a	n/a	n/a	n/a
79.1475	0.5167	FIXCROSS	n/a	n/a	n/a	n/a	n/a	n/a	n/a	n/a
79.6641	0.5167	INK	20	Neutral	xxxxxxxxx	xxxxxxxxx	zielony	green	hit	n/a
80.1493	n/a	RESPONSE	n/a	n/a	n/a	n/a	n/a	n/a	n/a	green
80.1808	1.0167	ITI	n/a	n/a	n/a	n/a	n/a	n/a	n/a	n/a
81.1975	0.5167	FIXCROSS	n/a	n/a	n/a	n/a	n/a	n/a	n/a	n/a
81.7142	0.6	INK	21	Incongruent	niebieski	blue	czerwony	red	hit	n/a
82.2904	n/a	RESPONSE	n/a	n/a	n/a	n/a	n/a	n/a	n/a	red
82.3142	1.0167	ITI	n/a	n/a	n/a	n/a	n/a	n/a	n/a	n/a
83.3308	0.5167	FIXCROSS	n/a	n/a	n/a	n/a	n/a	n/a	n/a	n/a
83.8475	0.45	INK	22	Neutral	xxxxxxxx	xxxxxxxx	żółty	yellow	hit	n/a
84.2718	n/a	RESPONSE	n/a	n/a	n/a	n/a	n/a	n/a	n/a	yellow
84.2975	1.0167	ITI	n/a	n/a	n/a	n/a	n/a	n/a	n/a	n/a
85.3142	0.5167	FIXCROSS	n/a	n/a	n/a	n/a	n/a	n/a	n/a	n/a
85.8309	0.5667	INK	23	Neutral	xxxxxxx	xxxxxxx	żółty	yellow	hit	n/a
86.365	n/a	RESPONSE	n/a	n/a	n/a	n/a	n/a	n/a	n/a	yellow
86.3975	1.0167	ITI	n/a	n/a	n/a	n/a	n/a	n/a	n/a	n/a
87.4142	0.5167	FIXCROSS	n/a	n/a	n/a	n/a	n/a	n/a	n/a	n/a
87.9309	0.6833	INK	24	Incongruent	niebieski	blue	zielony	green	hit	n/a
88.586	n/a	RESPONSE	n/a	n/a	n/a	n/a	n/a	n/a	n/a	green
88.6142	1.0167	ITI	n/a	n/a	n/a	n/a	n/a	n/a	n/a	n/a
89.6309	0.5167	FIXCROSS	n/a	n/a	n/a	n/a	n/a	n/a	n/a	n/a
90.1476	0.4167	INK	25	Neutral	xxxxx	xxxxx	czerwony	red	hit	n/a
90.5355	n/a	RESPONSE	n/a	n/a	n/a	n/a	n/a	n/a	n/a	red
90.5642	1.0167	ITI	n/a	n/a	n/a	n/a	n/a	n/a	n/a	n/a
91.5809	0.5167	FIXCROSS	n/a	n/a	n/a	n/a	n/a	n/a	n/a	n/a
92.0976	0.85	INK	26	Neutral	xxxxxxx	xxxxxxx	czerwony	red	hit	n/a
92.9163	n/a	RESPONSE	n/a	n/a	n/a	n/a	n/a	n/a	n/a	red
92.9476	1.0167	ITI	n/a	n/a	n/a	n/a	n/a	n/a	n/a	n/a
93.9642	0.5167	FIXCROSS	n/a	n/a	n/a	n/a	n/a	n/a	n/a	n/a
94.4809	0.4667	INK	27	Incongruent	niebieski	blue	żółty	yellow	hit	n/a
94.9297	n/a	RESPONSE	n/a	n/a	n/a	n/a	n/a	n/a	n/a	yellow
94.9476	1.0167	ITI	n/a	n/a	n/a	n/a	n/a	n/a	n/a	n/a
95.9643	0.5167	FIXCROSS	n/a	n/a	n/a	n/a	n/a	n/a	n/a	n/a
96.4809	0.55	INK	28	Neutral	xxxxxxx	xxxxxxx	niebieski	blue	hit	n/a
97.0069	n/a	RESPONSE	n/a	n/a	n/a	n/a	n/a	n/a	n/a	blue
97.0309	1.0167	ITI	n/a	n/a	n/a	n/a	n/a	n/a	n/a	n/a
98.0476	0.5167	FIXCROSS	n/a	n/a	n/a	n/a	n/a	n/a	n/a	n/a
98.5643	0.5167	INK	29	Incongruent	żółty	yellow	zielony	green	hit	n/a
99.0522	n/a	RESPONSE	n/a	n/a	n/a	n/a	n/a	n/a	n/a	green
99.081	1.0167	ITI	n/a	n/a	n/a	n/a	n/a	n/a	n/a	n/a
100.0976	0.5167	FIXCROSS	n/a	n/a	n/a	n/a	n/a	n/a	n/a	n/a
100.6143	0.3833	INK	30	Incongruent	żółty	yellow	czerwony	red	hit	n/a
100.9696	n/a	RESPONSE	n/a	n/a	n/a	n/a	n/a	n/a	n/a	red
100.9976	1.0167	ITI	n/a	n/a	n/a	n/a	n/a	n/a	n/a	n/a
102.0143	0.5167	FIXCROSS	n/a	n/a	n/a	n/a	n/a	n/a	n/a	n/a
102.531	0.5667	INK	31	Neutral	xxxxxxxxx	xxxxxxxxx	zielony	green	hit	n/a
103.0788	n/a	RESPONSE	n/a	n/a	n/a	n/a	n/a	n/a	n/a	green
103.0977	1.0167	ITI	n/a	n/a	n/a	n/a	n/a	n/a	n/a	n/a
104.1143	0.5167	FIXCROSS	n/a	n/a	n/a	n/a	n/a	n/a	n/a	n/a
104.631	0.4833	INK	32	Neutral	xxxxxxxxx	xxxxxxxxx	czerwony	red	hit	n/a
105.0922	n/a	RESPONSE	n/a	n/a	n/a	n/a	n/a	n/a	n/a	red
105.1143	1.0167	ITI	n/a	n/a	n/a	n/a	n/a	n/a	n/a	n/a
106.131	0.5167	FIXCROSS	n/a	n/a	n/a	n/a	n/a	n/a	n/a	n/a
106.6477	0.45	INK	33	Neutral	xxxxxxxx	xxxxxxxx	zielony	green	hit	n/a
107.0735	n/a	RESPONSE	n/a	n/a	n/a	n/a	n/a	n/a	n/a	green
107.0977	1.0167	ITI	n/a	n/a	n/a	n/a	n/a	n/a	n/a	n/a
108.1144	0.5167	FIXCROSS	n/a	n/a	n/a	n/a	n/a	n/a	n/a	n/a
108.631	0.4167	INK	34	Incongruent	czerwony	red	żółty	yellow	hit	n/a
109.0229	n/a	RESPONSE	n/a	n/a	n/a	n/a	n/a	n/a	n/a	yellow
109.0477	1.0167	ITI	n/a	n/a	n/a	n/a	n/a	n/a	n/a	n/a
110.0644	0.5167	FIXCROSS	n/a	n/a	n/a	n/a	n/a	n/a	n/a	n/a
110.5811	0.4667	INK	35	Incongruent	żółty	yellow	czerwony	red	hit	n/a
111.0202	n/a	RESPONSE	n/a	n/a	n/a	n/a	n/a	n/a	n/a	red
111.0477	1.0167	ITI	n/a	n/a	n/a	n/a	n/a	n/a	n/a	n/a
112.0644	0.5167	FIXCROSS	n/a	n/a	n/a	n/a	n/a	n/a	n/a	n/a
112.5811	0.6667	INK	36	Incongruent	czerwony	red	niebieski	blue	hit	n/a
113.2253	n/a	RESPONSE	n/a	n/a	n/a	n/a	n/a	n/a	n/a	blue
113.2477	1.0167	ITI	n/a	n/a	n/a	n/a	n/a	n/a	n/a	n/a
114.2644	0.5167	FIXCROSS	n/a	n/a	n/a	n/a	n/a	n/a	n/a	n/a
114.7811	0.4667	INK	37	Neutral	xxxxxxx	xxxxxxx	niebieski	blue	hit	n/a
115.2226	n/a	RESPONSE	n/a	n/a	n/a	n/a	n/a	n/a	n/a	blue
115.2477	1.0167	ITI	n/a	n/a	n/a	n/a	n/a	n/a	n/a	n/a
116.2644	0.5167	FIXCROSS	n/a	n/a	n/a	n/a	n/a	n/a	n/a	n/a
116.7811	0.6	INK	38	Neutral	xxxxxxxx	xxxxxxxx	zielony	green	hit	n/a
117.3478	n/a	RESPONSE	n/a	n/a	n/a	n/a	n/a	n/a	n/a	green
117.3811	1.0167	ITI	n/a	n/a	n/a	n/a	n/a	n/a	n/a	n/a
118.3978	0.5167	FIXCROSS	n/a	n/a	n/a	n/a	n/a	n/a	n/a	n/a
118.9144	0.6667	INK	39	Incongruent	czerwony	red	niebieski	blue	hit	n/a
119.5529	n/a	RESPONSE	n/a	n/a	n/a	n/a	n/a	n/a	n/a	blue
119.5811	1.0167	ITI	n/a	n/a	n/a	n/a	n/a	n/a	n/a	n/a
120.5978	0.5167	FIXCROSS	n/a	n/a	n/a	n/a	n/a	n/a	n/a	n/a
121.1145	0.4833	INK	40	Neutral	xxxxxxxx	xxxxxxxx	żółty	yellow	hit	n/a
121.5662	n/a	RESPONSE	n/a	n/a	n/a	n/a	n/a	n/a	n/a	yellow
121.5978	1.0167	ITI	n/a	n/a	n/a	n/a	n/a	n/a	n/a	n/a
122.6145	0.5167	FIXCROSS	n/a	n/a	n/a	n/a	n/a	n/a	n/a	n/a
123.1311	0.7	INK	41	Incongruent	zielony	green	żółty	yellow	hit	n/a
123.8033	n/a	RESPONSE	n/a	n/a	n/a	n/a	n/a	n/a	n/a	yellow
123.8312	1.0167	ITI	n/a	n/a	n/a	n/a	n/a	n/a	n/a	n/a
124.8478	0.5167	FIXCROSS	n/a	n/a	n/a	n/a	n/a	n/a	n/a	n/a
125.3645	0.7167	INK	42	Neutral	xxxxxxxx	xxxxxxxx	niebieski	blue	hit	n/a
126.0563	n/a	RESPONSE	n/a	n/a	n/a	n/a	n/a	n/a	n/a	blue
126.0812	1.0167	ITI	n/a	n/a	n/a	n/a	n/a	n/a	n/a	n/a
127.0978	0.5167	FIXCROSS	n/a	n/a	n/a	n/a	n/a	n/a	n/a	n/a
127.6145	0.5	INK	43	Neutral	xxxxxxxx	xxxxxxxx	niebieski	blue	hit	n/a
128.0855	n/a	RESPONSE	n/a	n/a	n/a	n/a	n/a	n/a	n/a	blue
128.1145	1.0167	ITI	n/a	n/a	n/a	n/a	n/a	n/a	n/a	n/a
129.1312	0.5167	FIXCROSS	n/a	n/a	n/a	n/a	n/a	n/a	n/a	n/a
129.6479	0.55	INK	44	Incongruent	czerwony	red	zielony	green	hit	n/a
130.1787	n/a	RESPONSE	n/a	n/a	n/a	n/a	n/a	n/a	n/a	green
130.1979	1.0167	ITI	n/a	n/a	n/a	n/a	n/a	n/a	n/a	n/a
131.2145	0.5167	FIXCROSS	n/a	n/a	n/a	n/a	n/a	n/a	n/a	n/a
131.7312	0.45	INK	45	Incongruent	zielony	green	żółty	yellow	hit	n/a
132.1601	n/a	RESPONSE	n/a	n/a	n/a	n/a	n/a	n/a	n/a	yellow
132.1812	1.0167	ITI	n/a	n/a	n/a	n/a	n/a	n/a	n/a	n/a
133.1979	0.5167	FIXCROSS	n/a	n/a	n/a	n/a	n/a	n/a	n/a	n/a
133.7145	0.6	INK	46	Neutral	xxxxx	xxxxx	czerwony	red	hit	n/a
134.2853	n/a	RESPONSE	n/a	n/a	n/a	n/a	n/a	n/a	n/a	red
134.3145	1.0167	ITI	n/a	n/a	n/a	n/a	n/a	n/a	n/a	n/a
135.3312	0.5167	FIXCROSS	n/a	n/a	n/a	n/a	n/a	n/a	n/a	n/a
135.8479	0.5667	INK	47	Incongruent	czerwony	red	zielony	green	hit	n/a
136.3944	n/a	RESPONSE	n/a	n/a	n/a	n/a	n/a	n/a	n/a	green
136.4146	1.0167	ITI	n/a	n/a	n/a	n/a	n/a	n/a	n/a	n/a
137.4312	0.5167	FIXCROSS	n/a	n/a	n/a	n/a	n/a	n/a	n/a	n/a
137.9479	0.65	INK	48	Neutral	xxxxx	xxxxx	niebieski	blue	hit	n/a
138.5675	n/a	RESPONSE	n/a	n/a	n/a	n/a	n/a	n/a	n/a	blue
138.5979	1.0167	ITI	n/a	n/a	n/a	n/a	n/a	n/a	n/a	n/a
139.6146	0.5167	FIXCROSS	n/a	n/a	n/a	n/a	n/a	n/a	n/a	n/a
140.1313	0.5167	INK	49	Neutral	xxxxxxx	xxxxxxx	czerwony	red	hit	n/a
140.6289	n/a	RESPONSE	n/a	n/a	n/a	n/a	n/a	n/a	n/a	red
140.6479	1.0167	ITI	n/a	n/a	n/a	n/a	n/a	n/a	n/a	n/a
141.6646	0.5167	FIXCROSS	n/a	n/a	n/a	n/a	n/a	n/a	n/a	n/a
142.1813	0.4	INK	50	Incongruent	żółty	yellow	niebieski	blue	hit	n/a
142.5622	n/a	RESPONSE	n/a	n/a	n/a	n/a	n/a	n/a	n/a	blue
142.5813	1.0166	ITI	n/a	n/a	n/a	n/a	n/a	n/a	n/a	n/a
143.5979	0.5167	FIXCROSS	n/a	n/a	n/a	n/a	n/a	n/a	n/a	n/a
144.1146	0.5167	INK	51	Incongruent	żółty	yellow	niebieski	blue	hit	n/a
144.6076	n/a	RESPONSE	n/a	n/a	n/a	n/a	n/a	n/a	n/a	blue
144.6313	1.0167	ITI	n/a	n/a	n/a	n/a	n/a	n/a	n/a	n/a
145.648	0.5167	FIXCROSS	n/a	n/a	n/a	n/a	n/a	n/a	n/a	n/a
146.1646	0.3833	INK	52	Incongruent	zielony	green	niebieski	blue	hit	n/a
146.525	n/a	RESPONSE	n/a	n/a	n/a	n/a	n/a	n/a	n/a	blue
146.548	1.0167	ITI	n/a	n/a	n/a	n/a	n/a	n/a	n/a	n/a
147.5646	0.5167	FIXCROSS	n/a	n/a	n/a	n/a	n/a	n/a	n/a	n/a
148.0813	0.4167	INK	53	Incongruent	zielony	green	czerwony	red	hit	n/a
148.4744	n/a	RESPONSE	n/a	n/a	n/a	n/a	n/a	n/a	n/a	red
148.498	1.0167	ITI	n/a	n/a	n/a	n/a	n/a	n/a	n/a	n/a
149.5147	0.5167	FIXCROSS	n/a	n/a	n/a	n/a	n/a	n/a	n/a	n/a
150.0313	0.7	INK	54	Incongruent	czerwony	red	niebieski	blue	incorrect	n/a
150.7114	n/a	RESPONSE	n/a	n/a	n/a	n/a	n/a	n/a	n/a	green
150.7313	1.0167	ITI	n/a	n/a	n/a	n/a	n/a	n/a	n/a	n/a
151.748	0.5167	FIXCROSS	n/a	n/a	n/a	n/a	n/a	n/a	n/a	n/a
152.2647	0.6667	INK	55	Neutral	xxxxx	xxxxx	zielony	green	hit	n/a
152.9005	n/a	RESPONSE	n/a	n/a	n/a	n/a	n/a	n/a	n/a	green
152.9314	1.0167	ITI	n/a	n/a	n/a	n/a	n/a	n/a	n/a	n/a
153.948	0.5167	FIXCROSS	n/a	n/a	n/a	n/a	n/a	n/a	n/a	n/a
154.4647	0.5	INK	56	Incongruent	żółty	yellow	zielony	green	hit	n/a
154.9457	n/a	RESPONSE	n/a	n/a	n/a	n/a	n/a	n/a	n/a	green
154.9647	1.0167	ITI	n/a	n/a	n/a	n/a	n/a	n/a	n/a	n/a
155.9814	0.5167	FIXCROSS	n/a	n/a	n/a	n/a	n/a	n/a	n/a	n/a
156.4981	0.6333	INK	57	Incongruent	zielony	green	niebieski	blue	hit	n/a
157.1029	n/a	RESPONSE	n/a	n/a	n/a	n/a	n/a	n/a	n/a	blue
157.1314	1.0167	ITI	n/a	n/a	n/a	n/a	n/a	n/a	n/a	n/a
158.1481	0.5167	FIXCROSS	n/a	n/a	n/a	n/a	n/a	n/a	n/a	n/a
158.6647	0.4333	INK	58	Neutral	xxxxxxxx	xxxxxxxx	niebieski	blue	hit	n/a
159.0683	n/a	RESPONSE	n/a	n/a	n/a	n/a	n/a	n/a	n/a	blue
159.0981	1.0167	ITI	n/a	n/a	n/a	n/a	n/a	n/a	n/a	n/a
160.1147	0.5167	FIXCROSS	n/a	n/a	n/a	n/a	n/a	n/a	n/a	n/a
160.6314	0.4833	INK	59	Incongruent	zielony	green	niebieski	blue	hit	n/a
161.0816	n/a	RESPONSE	n/a	n/a	n/a	n/a	n/a	n/a	n/a	blue
161.1148	1.0167	ITI	n/a	n/a	n/a	n/a	n/a	n/a	n/a	n/a
162.1314	0.5167	FIXCROSS	n/a	n/a	n/a	n/a	n/a	n/a	n/a	n/a
162.6481	0.4333	INK	60	Neutral	xxxxxxxxx	xxxxxxxxx	czerwony	red	hit	n/a
163.063	n/a	RESPONSE	n/a	n/a	n/a	n/a	n/a	n/a	n/a	red
163.0814	1.0167	ITI	n/a	n/a	n/a	n/a	n/a	n/a	n/a	n/a
164.0981	0.5167	FIXCROSS	n/a	n/a	n/a	n/a	n/a	n/a	n/a	n/a
164.6148	0.4333	INK	61	Neutral	xxxxx	xxxxx	niebieski	blue	hit	n/a
165.0283	n/a	RESPONSE	n/a	n/a	n/a	n/a	n/a	n/a	n/a	blue
165.0481	1.0167	ITI	n/a	n/a	n/a	n/a	n/a	n/a	n/a	n/a
166.0648	0.5167	FIXCROSS	n/a	n/a	n/a	n/a	n/a	n/a	n/a	n/a
166.5815	0.65	INK	62	Neutral	xxxxxxxxx	xxxxxxxxx	czerwony	red	hit	n/a
167.2014	n/a	RESPONSE	n/a	n/a	n/a	n/a	n/a	n/a	n/a	red
167.2315	1.0167	ITI	n/a	n/a	n/a	n/a	n/a	n/a	n/a	n/a
168.2481	0.5167	FIXCROSS	n/a	n/a	n/a	n/a	n/a	n/a	n/a	n/a
168.7648	0.3833	INK	63	Incongruent	żółty	yellow	niebieski	blue	hit	n/a
169.1189	n/a	RESPONSE	n/a	n/a	n/a	n/a	n/a	n/a	n/a	blue
169.1482	1.0167	ITI	n/a	n/a	n/a	n/a	n/a	n/a	n/a	n/a
170.1648	0.5167	FIXCROSS	n/a	n/a	n/a	n/a	n/a	n/a	n/a	n/a
170.6815	0.6	INK	64	Neutral	xxxxx	xxxxx	zielony	green	hit	n/a
171.26	n/a	RESPONSE	n/a	n/a	n/a	n/a	n/a	n/a	n/a	green
171.2815	1.0167	ITI	n/a	n/a	n/a	n/a	n/a	n/a	n/a	n/a
172.2982	0.5167	FIXCROSS	n/a	n/a	n/a	n/a	n/a	n/a	n/a	n/a
172.8148	0.6833	INK	65	Incongruent	zielony	green	czerwony	red	hit	n/a
173.4651	n/a	RESPONSE	n/a	n/a	n/a	n/a	n/a	n/a	n/a	red
173.4982	1.0167	ITI	n/a	n/a	n/a	n/a	n/a	n/a	n/a	n/a
174.5149	0.5167	FIXCROSS	n/a	n/a	n/a	n/a	n/a	n/a	n/a	n/a
175.0315	0.6167	INK	66	Incongruent	niebieski	blue	czerwony	red	hit	n/a
175.6222	n/a	RESPONSE	n/a	n/a	n/a	n/a	n/a	n/a	n/a	red
175.6482	1.0167	ITI	n/a	n/a	n/a	n/a	n/a	n/a	n/a	n/a
176.6649	0.5167	FIXCROSS	n/a	n/a	n/a	n/a	n/a	n/a	n/a	n/a
177.1815	0.6333	INK	67	Neutral	xxxxxxxxx	xxxxxxxxx	zielony	green	hit	n/a
177.7953	n/a	RESPONSE	n/a	n/a	n/a	n/a	n/a	n/a	n/a	green
177.8149	1.0167	ITI	n/a	n/a	n/a	n/a	n/a	n/a	n/a	n/a
178.8315	0.5167	FIXCROSS	n/a	n/a	n/a	n/a	n/a	n/a	n/a	n/a
179.3482	0.8	INK	68	Neutral	xxxxx	xxxxx	zielony	green	hit	n/a
180.1281	n/a	RESPONSE	n/a	n/a	n/a	n/a	n/a	n/a	n/a	green
180.1482	1.0167	ITI	n/a	n/a	n/a	n/a	n/a	n/a	n/a	n/a
181.1649	0.5167	FIXCROSS	n/a	n/a	n/a	n/a	n/a	n/a	n/a	n/a
181.6816	0.6	INK	69	Neutral	xxxxxxxx	xxxxxxxx	żółty	yellow	hit	n/a
182.2534	n/a	RESPONSE	n/a	n/a	n/a	n/a	n/a	n/a	n/a	yellow
182.2816	1.0167	ITI	n/a	n/a	n/a	n/a	n/a	n/a	n/a	n/a
183.2982	0.5167	FIXCROSS	n/a	n/a	n/a	n/a	n/a	n/a	n/a	n/a
183.8149	0.45	INK	70	Neutral	xxxxxxxxx	xxxxxxxxx	żółty	yellow	hit	n/a
184.2347	n/a	RESPONSE	n/a	n/a	n/a	n/a	n/a	n/a	n/a	yellow
184.2649	1.0167	ITI	n/a	n/a	n/a	n/a	n/a	n/a	n/a	n/a
185.2816	0.5167	FIXCROSS	n/a	n/a	n/a	n/a	n/a	n/a	n/a	n/a
185.7983	0.5	INK	71	Neutral	xxxxx	xxxxx	czerwony	red	hit	n/a
186.2799	n/a	RESPONSE	n/a	n/a	n/a	n/a	n/a	n/a	n/a	red
186.2983	1.0167	ITI	n/a	n/a	n/a	n/a	n/a	n/a	n/a	n/a
187.3149	0.5167	FIXCROSS	n/a	n/a	n/a	n/a	n/a	n/a	n/a	n/a
187.8316	0.4167	INK	72	Incongruent	niebieski	blue	żółty	yellow	hit	n/a
188.2294	n/a	RESPONSE	n/a	n/a	n/a	n/a	n/a	n/a	n/a	yellow
188.2483	1.0834	ITI	n/a	n/a	n/a	n/a	n/a	n/a	n/a	n/a
202.1309	n/a	RESPONSE	n/a	n/a	n/a	n/a	n/a	n/a	n/a	n/a
202.1984	1.0167	ITI	n/a	n/a	n/a	n/a	n/a	n/a	n/a	n/a
203.2151	0.5167	FIXCROSS	n/a	n/a	n/a	n/a	n/a	n/a	n/a	n/a
203.7317	0.9167	T_COLOR_NAME	1	Incongruent	niebieski	blue	zielony	green	hit	n/a
204.6236	n/a	RESPONSE	n/a	n/a	n/a	n/a	n/a	n/a	n/a	blue
204.6484	0.5167	FEEDBACK	n/a	n/a	n/a	n/a	n/a	n/a	n/a	n/a
205.1651	1.0167	ITI	n/a	n/a	n/a	n/a	n/a	n/a	n/a	n/a
206.1818	0.5167	FIXCROSS	n/a	n/a	n/a	n/a	n/a	n/a	n/a	n/a
206.6984	0.6333	T_COLOR_NAME	2	Neutral	zielony	green	Neutral	Neutral	hit	n/a
207.3081	n/a	RESPONSE	n/a	n/a	n/a	n/a	n/a	n/a	n/a	green
207.3318	0.5167	FEEDBACK	n/a	n/a	n/a	n/a	n/a	n/a	n/a	n/a
207.8484	1.0167	ITI	n/a	n/a	n/a	n/a	n/a	n/a	n/a	n/a
208.8651	0.5167	FIXCROSS	n/a	n/a	n/a	n/a	n/a	n/a	n/a	n/a
209.3818	0.5	T_COLOR_NAME	3	Incongruent	czerwony	red	żółty	yellow	hit	n/a
209.8487	n/a	RESPONSE	n/a	n/a	n/a	n/a	n/a	n/a	n/a	red
209.8818	0.5167	FEEDBACK	n/a	n/a	n/a	n/a	n/a	n/a	n/a	n/a
210.3984	1.0167	ITI	n/a	n/a	n/a	n/a	n/a	n/a	n/a	n/a
211.4151	0.5167	FIXCROSS	n/a	n/a	n/a	n/a	n/a	n/a	n/a	n/a
211.9318	0.4333	T_COLOR_NAME	4	Neutral	żółty	yellow	Neutral	Neutral	hit	n/a
212.3414	n/a	RESPONSE	n/a	n/a	n/a	n/a	n/a	n/a	n/a	yellow
212.3651	0.5167	FEEDBACK	n/a	n/a	n/a	n/a	n/a	n/a	n/a	n/a
212.8818	1.0167	ITI	n/a	n/a	n/a	n/a	n/a	n/a	n/a	n/a
213.8985	0.5167	FIXCROSS	n/a	n/a	n/a	n/a	n/a	n/a	n/a	n/a
214.4151	0.9167	T_COLOR_NAME	5	Incongruent	czerwony	red	zielony	green	incorrect	n/a
215.2975	n/a	RESPONSE	n/a	n/a	n/a	n/a	n/a	n/a	n/a	green
215.3318	0.5167	FEEDBACK	n/a	n/a	n/a	n/a	n/a	n/a	n/a	n/a
215.8485	1.0167	ITI	n/a	n/a	n/a	n/a	n/a	n/a	n/a	n/a
216.8652	0.5167	FIXCROSS	n/a	n/a	n/a	n/a	n/a	n/a	n/a	n/a
217.3818	0.8167	T_COLOR_NAME	6	Neutral	żółty	yellow	Neutral	Neutral	hit	n/a
218.1736	n/a	RESPONSE	n/a	n/a	n/a	n/a	n/a	n/a	n/a	yellow
218.1985	0.5167	FEEDBACK	n/a	n/a	n/a	n/a	n/a	n/a	n/a	n/a
218.7152	1.0167	ITI	n/a	n/a	n/a	n/a	n/a	n/a	n/a	n/a
219.7318	0.5167	FIXCROSS	n/a	n/a	n/a	n/a	n/a	n/a	n/a	n/a
220.2485	1.4667	T_COLOR_NAME	7	Incongruent	zielony	green	niebieski	blue	hit	n/a
221.6891	n/a	RESPONSE	n/a	n/a	n/a	n/a	n/a	n/a	n/a	green
221.7152	0.5167	FEEDBACK	n/a	n/a	n/a	n/a	n/a	n/a	n/a	n/a
222.2319	1.0167	ITI	n/a	n/a	n/a	n/a	n/a	n/a	n/a	n/a
223.2485	0.5167	FIXCROSS	n/a	n/a	n/a	n/a	n/a	n/a	n/a	n/a
223.7652	0.8167	T_COLOR_NAME	8	Incongruent	żółty	yellow	zielony	green	hit	n/a
224.5492	n/a	RESPONSE	n/a	n/a	n/a	n/a	n/a	n/a	n/a	yellow
224.5819	0.5167	FEEDBACK	n/a	n/a	n/a	n/a	n/a	n/a	n/a	n/a
225.0986	1.0167	ITI	n/a	n/a	n/a	n/a	n/a	n/a	n/a	n/a
226.1152	0.5167	FIXCROSS	n/a	n/a	n/a	n/a	n/a	n/a	n/a	n/a
226.6319	0.7167	T_COLOR_NAME	9	Incongruent	żółty	yellow	niebieski	blue	hit	n/a
227.3296	n/a	RESPONSE	n/a	n/a	n/a	n/a	n/a	n/a	n/a	yellow
227.3486	0.5167	FEEDBACK	n/a	n/a	n/a	n/a	n/a	n/a	n/a	n/a
227.8652	1.0167	ITI	n/a	n/a	n/a	n/a	n/a	n/a	n/a	n/a
228.8819	0.5167	FIXCROSS	n/a	n/a	n/a	n/a	n/a	n/a	n/a	n/a
229.3986	0.7333	T_COLOR_NAME	10	Incongruent	zielony	green	żółty	yellow	hit	n/a
230.11	n/a	RESPONSE	n/a	n/a	n/a	n/a	n/a	n/a	n/a	green
230.1319	0.5167	FEEDBACK	n/a	n/a	n/a	n/a	n/a	n/a	n/a	n/a
230.6486	1.0167	ITI	n/a	n/a	n/a	n/a	n/a	n/a	n/a	n/a
231.6653	0.5167	FIXCROSS	n/a	n/a	n/a	n/a	n/a	n/a	n/a	n/a
232.1819	0.6833	T_COLOR_NAME	11	Neutral	niebieski	blue	Neutral	Neutral	hit	n/a
232.8424	n/a	RESPONSE	n/a	n/a	n/a	n/a	n/a	n/a	n/a	blue
232.8653	0.5167	FEEDBACK	n/a	n/a	n/a	n/a	n/a	n/a	n/a	n/a
233.382	1.0167	ITI	n/a	n/a	n/a	n/a	n/a	n/a	n/a	n/a
234.3986	0.5167	FIXCROSS	n/a	n/a	n/a	n/a	n/a	n/a	n/a	n/a
234.9153	0.5667	T_COLOR_NAME	12	Neutral	czerwony	red	Neutral	Neutral	hit	n/a
235.447	n/a	RESPONSE	n/a	n/a	n/a	n/a	n/a	n/a	n/a	red
235.482	0.5167	FEEDBACK	n/a	n/a	n/a	n/a	n/a	n/a	n/a	n/a
235.9986	1.0333	ITI	n/a	n/a	n/a	n/a	n/a	n/a	n/a	n/a
241.0235	n/a	RESPONSE	n/a	n/a	n/a	n/a	n/a	n/a	n/a	n/a
241.082	1.0167	ITI	n/a	n/a	n/a	n/a	n/a	n/a	n/a	n/a
242.0987	0.5167	FIXCROSS	n/a	n/a	n/a	n/a	n/a	n/a	n/a	n/a
242.6154	0.7833	COLOR_NAME	1	Neutral	zielony	green	Neutral	Neutral	hit	n/a
243.3725	n/a	RESPONSE	n/a	n/a	n/a	n/a	n/a	n/a	n/a	green
243.3987	1.0167	ITI	n/a	n/a	n/a	n/a	n/a	n/a	n/a	n/a
244.4154	0.5167	FIXCROSS	n/a	n/a	n/a	n/a	n/a	n/a	n/a	n/a
244.932	0.4333	COLOR_NAME	2	Neutral	zielony	green	Neutral	Neutral	hit	n/a
245.3379	n/a	RESPONSE	n/a	n/a	n/a	n/a	n/a	n/a	n/a	green
245.3654	1.0167	ITI	n/a	n/a	n/a	n/a	n/a	n/a	n/a	n/a
246.3821	0.5167	FIXCROSS	n/a	n/a	n/a	n/a	n/a	n/a	n/a	n/a
246.8987	0.5667	COLOR_NAME	3	Neutral	niebieski	blue	Neutral	Neutral	hit	n/a
247.4471	n/a	RESPONSE	n/a	n/a	n/a	n/a	n/a	n/a	n/a	blue
247.4654	1.0167	ITI	n/a	n/a	n/a	n/a	n/a	n/a	n/a	n/a
248.4821	0.5167	FIXCROSS	n/a	n/a	n/a	n/a	n/a	n/a	n/a	n/a
248.9987	0.5333	COLOR_NAME	4	Incongruent	żółty	yellow	zielony	green	hit	n/a
249.5083	n/a	RESPONSE	n/a	n/a	n/a	n/a	n/a	n/a	n/a	yellow
249.5321	1.0167	ITI	n/a	n/a	n/a	n/a	n/a	n/a	n/a	n/a
250.5487	0.5167	FIXCROSS	n/a	n/a	n/a	n/a	n/a	n/a	n/a	n/a
251.0654	0.6667	COLOR_NAME	5	Neutral	niebieski	blue	Neutral	Neutral	hit	n/a
251.7134	n/a	RESPONSE	n/a	n/a	n/a	n/a	n/a	n/a	n/a	blue
251.7321	1.0167	ITI	n/a	n/a	n/a	n/a	n/a	n/a	n/a	n/a
252.7488	0.5167	FIXCROSS	n/a	n/a	n/a	n/a	n/a	n/a	n/a	n/a
253.2654	0.7	COLOR_NAME	6	Neutral	żółty	yellow	Neutral	Neutral	hit	n/a
253.9345	n/a	RESPONSE	n/a	n/a	n/a	n/a	n/a	n/a	n/a	yellow
253.9654	1.0167	ITI	n/a	n/a	n/a	n/a	n/a	n/a	n/a	n/a
254.9821	0.5167	FIXCROSS	n/a	n/a	n/a	n/a	n/a	n/a	n/a	n/a
255.4988	0.7	COLOR_NAME	7	Neutral	niebieski	blue	Neutral	Neutral	hit	n/a
256.1716	n/a	RESPONSE	n/a	n/a	n/a	n/a	n/a	n/a	n/a	blue
256.1988	1.0167	ITI	n/a	n/a	n/a	n/a	n/a	n/a	n/a	n/a
257.2155	0.5167	FIXCROSS	n/a	n/a	n/a	n/a	n/a	n/a	n/a	n/a
257.7321	0.7333	COLOR_NAME	8	Incongruent	zielony	green	żółty	yellow	hit	n/a
258.4407	n/a	RESPONSE	n/a	n/a	n/a	n/a	n/a	n/a	n/a	green
258.4655	1.0167	ITI	n/a	n/a	n/a	n/a	n/a	n/a	n/a	n/a
259.4821	0.5167	FIXCROSS	n/a	n/a	n/a	n/a	n/a	n/a	n/a	n/a
259.9988	0.4167	COLOR_NAME	9	Neutral	czerwony	red	Neutral	Neutral	hit	n/a
260.3901	n/a	RESPONSE	n/a	n/a	n/a	n/a	n/a	n/a	n/a	red
260.4155	1.0167	ITI	n/a	n/a	n/a	n/a	n/a	n/a	n/a	n/a
261.4322	0.5167	FIXCROSS	n/a	n/a	n/a	n/a	n/a	n/a	n/a	n/a
261.9488	0.6167	COLOR_NAME	10	Incongruent	czerwony	red	żółty	yellow	hit	n/a
262.5472	n/a	RESPONSE	n/a	n/a	n/a	n/a	n/a	n/a	n/a	red
262.5655	1.0167	ITI	n/a	n/a	n/a	n/a	n/a	n/a	n/a	n/a
263.5822	0.5167	FIXCROSS	n/a	n/a	n/a	n/a	n/a	n/a	n/a	n/a
264.0988	0.65	COLOR_NAME	11	Neutral	zielony	green	Neutral	Neutral	hit	n/a
264.7203	n/a	RESPONSE	n/a	n/a	n/a	n/a	n/a	n/a	n/a	green
264.7488	1.0167	ITI	n/a	n/a	n/a	n/a	n/a	n/a	n/a	n/a
265.7655	0.5167	FIXCROSS	n/a	n/a	n/a	n/a	n/a	n/a	n/a	n/a
266.2822	0.7333	COLOR_NAME	12	Incongruent	zielony	green	czerwony	red	hit	n/a
266.9893	n/a	RESPONSE	n/a	n/a	n/a	n/a	n/a	n/a	n/a	green
267.0155	1.0167	ITI	n/a	n/a	n/a	n/a	n/a	n/a	n/a	n/a
268.0322	0.5167	FIXCROSS	n/a	n/a	n/a	n/a	n/a	n/a	n/a	n/a
268.5489	0.7167	COLOR_NAME	13	Neutral	niebieski	blue	Neutral	Neutral	hit	n/a
269.2423	n/a	RESPONSE	n/a	n/a	n/a	n/a	n/a	n/a	n/a	blue
269.2655	1.0167	ITI	n/a	n/a	n/a	n/a	n/a	n/a	n/a	n/a
270.2822	0.5167	FIXCROSS	n/a	n/a	n/a	n/a	n/a	n/a	n/a	n/a
270.7989	0.5333	COLOR_NAME	14	Incongruent	żółty	yellow	czerwony	red	hit	n/a
271.3037	n/a	RESPONSE	n/a	n/a	n/a	n/a	n/a	n/a	n/a	yellow
271.3322	1.0167	ITI	n/a	n/a	n/a	n/a	n/a	n/a	n/a	n/a
272.3489	0.5167	FIXCROSS	n/a	n/a	n/a	n/a	n/a	n/a	n/a	n/a
272.8656	0.5167	COLOR_NAME	15	Incongruent	niebieski	blue	zielony	green	hit	n/a
273.3649	n/a	RESPONSE	n/a	n/a	n/a	n/a	n/a	n/a	n/a	blue
273.3822	1.0167	ITI	n/a	n/a	n/a	n/a	n/a	n/a	n/a	n/a
274.3989	0.5167	FIXCROSS	n/a	n/a	n/a	n/a	n/a	n/a	n/a	n/a
274.9156	0.6333	COLOR_NAME	16	Incongruent	czerwony	red	żółty	yellow	hit	n/a
275.5221	n/a	RESPONSE	n/a	n/a	n/a	n/a	n/a	n/a	n/a	red
275.5489	1.0167	ITI	n/a	n/a	n/a	n/a	n/a	n/a	n/a	n/a
276.5656	0.5167	FIXCROSS	n/a	n/a	n/a	n/a	n/a	n/a	n/a	n/a
277.0823	0.75	COLOR_NAME	17	Incongruent	zielony	green	żółty	yellow	hit	n/a
277.8071	n/a	RESPONSE	n/a	n/a	n/a	n/a	n/a	n/a	n/a	green
277.8323	1.0167	ITI	n/a	n/a	n/a	n/a	n/a	n/a	n/a	n/a
278.8489	0.5167	FIXCROSS	n/a	n/a	n/a	n/a	n/a	n/a	n/a	n/a
279.3656	0.6667	COLOR_NAME	18	Neutral	niebieski	blue	Neutral	Neutral	hit	n/a
280.0122	n/a	RESPONSE	n/a	n/a	n/a	n/a	n/a	n/a	n/a	blue
280.0323	1.0167	ITI	n/a	n/a	n/a	n/a	n/a	n/a	n/a	n/a
281.049	0.5167	FIXCROSS	n/a	n/a	n/a	n/a	n/a	n/a	n/a	n/a
281.5656	0.6167	COLOR_NAME	19	Neutral	zielony	green	Neutral	Neutral	hit	n/a
282.1534	n/a	RESPONSE	n/a	n/a	n/a	n/a	n/a	n/a	n/a	green
282.1823	1.0167	ITI	n/a	n/a	n/a	n/a	n/a	n/a	n/a	n/a
283.199	0.5167	FIXCROSS	n/a	n/a	n/a	n/a	n/a	n/a	n/a	n/a
283.7157	0.65	COLOR_NAME	20	Incongruent	czerwony	red	niebieski	blue	hit	n/a
284.3425	n/a	RESPONSE	n/a	n/a	n/a	n/a	n/a	n/a	n/a	red
284.3657	1.0167	ITI	n/a	n/a	n/a	n/a	n/a	n/a	n/a	n/a
285.3823	0.5167	FIXCROSS	n/a	n/a	n/a	n/a	n/a	n/a	n/a	n/a
285.899	0.65	COLOR_NAME	21	Neutral	zielony	green	Neutral	Neutral	hit	n/a
286.5156	n/a	RESPONSE	n/a	n/a	n/a	n/a	n/a	n/a	n/a	green
286.549	1.0167	ITI	n/a	n/a	n/a	n/a	n/a	n/a	n/a	n/a
287.5657	0.5167	FIXCROSS	n/a	n/a	n/a	n/a	n/a	n/a	n/a	n/a
288.0824	0.5333	COLOR_NAME	22	Neutral	czerwony	red	Neutral	Neutral	hit	n/a
288.593	n/a	RESPONSE	n/a	n/a	n/a	n/a	n/a	n/a	n/a	red
288.6157	1.0167	ITI	n/a	n/a	n/a	n/a	n/a	n/a	n/a	n/a
289.6324	0.5167	FIXCROSS	n/a	n/a	n/a	n/a	n/a	n/a	n/a	n/a
290.149	0.6333	COLOR_NAME	23	Incongruent	czerwony	red	zielony	green	hit	n/a
290.7501	n/a	RESPONSE	n/a	n/a	n/a	n/a	n/a	n/a	n/a	red
290.7824	1.0167	ITI	n/a	n/a	n/a	n/a	n/a	n/a	n/a	n/a
291.799	0.5167	FIXCROSS	n/a	n/a	n/a	n/a	n/a	n/a	n/a	n/a
292.3157	0.6167	COLOR_NAME	24	Neutral	niebieski	blue	Neutral	Neutral	hit	n/a
292.9073	n/a	RESPONSE	n/a	n/a	n/a	n/a	n/a	n/a	n/a	blue
292.9324	1.0167	ITI	n/a	n/a	n/a	n/a	n/a	n/a	n/a	n/a
293.9491	0.5167	FIXCROSS	n/a	n/a	n/a	n/a	n/a	n/a	n/a	n/a
294.4657	0.9167	COLOR_NAME	25	Incongruent	niebieski	blue	żółty	yellow	hit	n/a
295.352	n/a	RESPONSE	n/a	n/a	n/a	n/a	n/a	n/a	n/a	blue
295.3824	1.0167	ITI	n/a	n/a	n/a	n/a	n/a	n/a	n/a	n/a
296.3991	0.5167	FIXCROSS	n/a	n/a	n/a	n/a	n/a	n/a	n/a	n/a
296.9158	1.0	COLOR_NAME	26	Neutral	żółty	yellow	Neutral	Neutral	hit	n/a
297.8927	n/a	RESPONSE	n/a	n/a	n/a	n/a	n/a	n/a	n/a	yellow
297.9157	1.0167	ITI	n/a	n/a	n/a	n/a	n/a	n/a	n/a	n/a
298.9324	0.5167	FIXCROSS	n/a	n/a	n/a	n/a	n/a	n/a	n/a	n/a
299.4491	0.6667	COLOR_NAME	27	Incongruent	zielony	green	żółty	yellow	hit	n/a
300.0978	n/a	RESPONSE	n/a	n/a	n/a	n/a	n/a	n/a	n/a	green
300.1158	1.0166	ITI	n/a	n/a	n/a	n/a	n/a	n/a	n/a	n/a
301.1324	0.5167	FIXCROSS	n/a	n/a	n/a	n/a	n/a	n/a	n/a	n/a
301.6491	0.6	COLOR_NAME	28	Incongruent	zielony	green	niebieski	blue	hit	n/a
302.223	n/a	RESPONSE	n/a	n/a	n/a	n/a	n/a	n/a	n/a	green
302.2491	1.0167	ITI	n/a	n/a	n/a	n/a	n/a	n/a	n/a	n/a
303.2658	0.5167	FIXCROSS	n/a	n/a	n/a	n/a	n/a	n/a	n/a	n/a
303.7825	0.6667	COLOR_NAME	29	Neutral	żółty	yellow	Neutral	Neutral	hit	n/a
304.4281	n/a	RESPONSE	n/a	n/a	n/a	n/a	n/a	n/a	n/a	yellow
304.4491	1.0167	ITI	n/a	n/a	n/a	n/a	n/a	n/a	n/a	n/a
305.4658	0.5167	FIXCROSS	n/a	n/a	n/a	n/a	n/a	n/a	n/a	n/a
305.9825	0.4833	COLOR_NAME	30	Incongruent	niebieski	blue	czerwony	red	hit	n/a
306.4415	n/a	RESPONSE	n/a	n/a	n/a	n/a	n/a	n/a	n/a	blue
306.4658	1.0167	ITI	n/a	n/a	n/a	n/a	n/a	n/a	n/a	n/a
307.4825	0.5167	FIXCROSS	n/a	n/a	n/a	n/a	n/a	n/a	n/a	n/a
307.9992	0.6	COLOR_NAME	31	Neutral	żółty	yellow	Neutral	Neutral	hit	n/a
308.5667	n/a	RESPONSE	n/a	n/a	n/a	n/a	n/a	n/a	n/a	yellow
308.5992	1.0167	ITI	n/a	n/a	n/a	n/a	n/a	n/a	n/a	n/a
309.6158	0.5167	FIXCROSS	n/a	n/a	n/a	n/a	n/a	n/a	n/a	n/a
310.1325	0.5833	COLOR_NAME	32	Incongruent	czerwony	red	zielony	green	hit	n/a
310.692	n/a	RESPONSE	n/a	n/a	n/a	n/a	n/a	n/a	n/a	red
310.7158	1.0167	ITI	n/a	n/a	n/a	n/a	n/a	n/a	n/a	n/a
311.7325	0.5167	FIXCROSS	n/a	n/a	n/a	n/a	n/a	n/a	n/a	n/a
312.2492	0.7	COLOR_NAME	33	Incongruent	niebieski	blue	czerwony	red	hit	n/a
312.9289	n/a	RESPONSE	n/a	n/a	n/a	n/a	n/a	n/a	n/a	blue
312.9492	1.0167	ITI	n/a	n/a	n/a	n/a	n/a	n/a	n/a	n/a
313.9659	0.5167	FIXCROSS	n/a	n/a	n/a	n/a	n/a	n/a	n/a	n/a
314.4825	0.4833	COLOR_NAME	34	Incongruent	żółty	yellow	zielony	green	hit	n/a
314.9423	n/a	RESPONSE	n/a	n/a	n/a	n/a	n/a	n/a	n/a	yellow
314.9659	1.0167	ITI	n/a	n/a	n/a	n/a	n/a	n/a	n/a	n/a
315.9825	0.5167	FIXCROSS	n/a	n/a	n/a	n/a	n/a	n/a	n/a	n/a
316.4992	0.65	COLOR_NAME	35	Incongruent	czerwony	red	zielony	green	hit	n/a
317.1314	n/a	RESPONSE	n/a	n/a	n/a	n/a	n/a	n/a	n/a	red
317.1492	1.0167	ITI	n/a	n/a	n/a	n/a	n/a	n/a	n/a	n/a
318.1659	0.5167	FIXCROSS	n/a	n/a	n/a	n/a	n/a	n/a	n/a	n/a
318.6826	0.5333	COLOR_NAME	36	Neutral	żółty	yellow	Neutral	Neutral	hit	n/a
319.1927	n/a	RESPONSE	n/a	n/a	n/a	n/a	n/a	n/a	n/a	yellow
319.2159	1.0167	ITI	n/a	n/a	n/a	n/a	n/a	n/a	n/a	n/a
320.2326	0.5167	FIXCROSS	n/a	n/a	n/a	n/a	n/a	n/a	n/a	n/a
320.7493	0.5667	COLOR_NAME	37	Neutral	czerwony	red	Neutral	Neutral	hit	n/a
321.2859	n/a	RESPONSE	n/a	n/a	n/a	n/a	n/a	n/a	n/a	red
321.3159	1.0167	ITI	n/a	n/a	n/a	n/a	n/a	n/a	n/a	n/a
322.3326	0.5167	FIXCROSS	n/a	n/a	n/a	n/a	n/a	n/a	n/a	n/a
322.8493	0.5	COLOR_NAME	38	Neutral	czerwony	red	Neutral	Neutral	hit	n/a
323.3311	n/a	RESPONSE	n/a	n/a	n/a	n/a	n/a	n/a	n/a	red
323.3493	1.0167	ITI	n/a	n/a	n/a	n/a	n/a	n/a	n/a	n/a
324.3659	0.5167	FIXCROSS	n/a	n/a	n/a	n/a	n/a	n/a	n/a	n/a
324.8826	0.5167	COLOR_NAME	39	Neutral	zielony	green	Neutral	Neutral	hit	n/a
325.3765	n/a	RESPONSE	n/a	n/a	n/a	n/a	n/a	n/a	n/a	green
325.3993	1.0167	ITI	n/a	n/a	n/a	n/a	n/a	n/a	n/a	n/a
326.416	0.5167	FIXCROSS	n/a	n/a	n/a	n/a	n/a	n/a	n/a	n/a
326.9326	0.4667	COLOR_NAME	40	Neutral	zielony	green	Neutral	Neutral	hit	n/a
327.3739	n/a	RESPONSE	n/a	n/a	n/a	n/a	n/a	n/a	n/a	green
327.3993	1.0167	ITI	n/a	n/a	n/a	n/a	n/a	n/a	n/a	n/a
328.416	0.5167	FIXCROSS	n/a	n/a	n/a	n/a	n/a	n/a	n/a	n/a
328.9326	0.5333	COLOR_NAME	41	Incongruent	żółty	yellow	niebieski	blue	hit	n/a
329.4351	n/a	RESPONSE	n/a	n/a	n/a	n/a	n/a	n/a	n/a	yellow
329.466	1.0167	ITI	n/a	n/a	n/a	n/a	n/a	n/a	n/a	n/a
330.4826	0.5167	FIXCROSS	n/a	n/a	n/a	n/a	n/a	n/a	n/a	n/a
330.9993	0.65	COLOR_NAME	42	Incongruent	zielony	green	niebieski	blue	incorrect	n/a
331.6242	n/a	RESPONSE	n/a	n/a	n/a	n/a	n/a	n/a	n/a	red
331.6493	1.0167	ITI	n/a	n/a	n/a	n/a	n/a	n/a	n/a	n/a
332.666	0.5167	FIXCROSS	n/a	n/a	n/a	n/a	n/a	n/a	n/a	n/a
333.1827	0.6333	COLOR_NAME	43	Incongruent	zielony	green	czerwony	red	hit	n/a
333.7974	n/a	RESPONSE	n/a	n/a	n/a	n/a	n/a	n/a	n/a	green
333.816	1.0167	ITI	n/a	n/a	n/a	n/a	n/a	n/a	n/a	n/a
334.8327	0.5167	FIXCROSS	n/a	n/a	n/a	n/a	n/a	n/a	n/a	n/a
335.3494	0.5	COLOR_NAME	44	Neutral	czerwony	red	Neutral	Neutral	hit	n/a
335.8268	n/a	RESPONSE	n/a	n/a	n/a	n/a	n/a	n/a	n/a	red
335.8494	1.0167	ITI	n/a	n/a	n/a	n/a	n/a	n/a	n/a	n/a
336.866	0.5167	FIXCROSS	n/a	n/a	n/a	n/a	n/a	n/a	n/a	n/a
337.3827	0.6167	COLOR_NAME	45	Incongruent	żółty	yellow	niebieski	blue	hit	n/a
337.9679	n/a	RESPONSE	n/a	n/a	n/a	n/a	n/a	n/a	n/a	yellow
337.9994	1.0167	ITI	n/a	n/a	n/a	n/a	n/a	n/a	n/a	n/a
339.016	0.5167	FIXCROSS	n/a	n/a	n/a	n/a	n/a	n/a	n/a	n/a
339.5327	0.5333	COLOR_NAME	46	Neutral	żółty	yellow	Neutral	Neutral	hit	n/a
340.0451	n/a	RESPONSE	n/a	n/a	n/a	n/a	n/a	n/a	n/a	yellow
340.0661	1.0167	ITI	n/a	n/a	n/a	n/a	n/a	n/a	n/a	n/a
341.0827	0.5167	FIXCROSS	n/a	n/a	n/a	n/a	n/a	n/a	n/a	n/a
341.5994	0.6667	COLOR_NAME	47	Incongruent	żółty	yellow	niebieski	blue	hit	n/a
342.2342	n/a	RESPONSE	n/a	n/a	n/a	n/a	n/a	n/a	n/a	yellow
342.2661	1.0167	ITI	n/a	n/a	n/a	n/a	n/a	n/a	n/a	n/a
343.2827	0.5167	FIXCROSS	n/a	n/a	n/a	n/a	n/a	n/a	n/a	n/a
343.7994	0.55	COLOR_NAME	48	Neutral	czerwony	red	Neutral	Neutral	hit	n/a
344.3274	n/a	RESPONSE	n/a	n/a	n/a	n/a	n/a	n/a	n/a	red
344.3494	1.0167	ITI	n/a	n/a	n/a	n/a	n/a	n/a	n/a	n/a
345.3661	0.5167	FIXCROSS	n/a	n/a	n/a	n/a	n/a	n/a	n/a	n/a
345.8828	0.4833	COLOR_NAME	49	Neutral	czerwony	red	Neutral	Neutral	hit	n/a
346.3408	n/a	RESPONSE	n/a	n/a	n/a	n/a	n/a	n/a	n/a	red
346.3661	1.0167	ITI	n/a	n/a	n/a	n/a	n/a	n/a	n/a	n/a
347.3828	0.5167	FIXCROSS	n/a	n/a	n/a	n/a	n/a	n/a	n/a	n/a
347.8994	0.8167	COLOR_NAME	50	Incongruent	niebieski	blue	zielony	green	incorrect	n/a
348.6896	n/a	RESPONSE	n/a	n/a	n/a	n/a	n/a	n/a	n/a	green
348.7161	1.0167	ITI	n/a	n/a	n/a	n/a	n/a	n/a	n/a	n/a
349.7328	0.5167	FIXCROSS	n/a	n/a	n/a	n/a	n/a	n/a	n/a	n/a
350.2495	0.75	COLOR_NAME	51	Incongruent	zielony	green	niebieski	blue	hit	n/a
350.9746	n/a	RESPONSE	n/a	n/a	n/a	n/a	n/a	n/a	n/a	green
350.9995	1.0167	ITI	n/a	n/a	n/a	n/a	n/a	n/a	n/a	n/a
352.0161	0.5167	FIXCROSS	n/a	n/a	n/a	n/a	n/a	n/a	n/a	n/a
352.5328	0.6833	COLOR_NAME	52	Neutral	niebieski	blue	Neutral	Neutral	hit	n/a
353.1957	n/a	RESPONSE	n/a	n/a	n/a	n/a	n/a	n/a	n/a	blue
353.2162	1.0167	ITI	n/a	n/a	n/a	n/a	n/a	n/a	n/a	n/a
354.2328	0.5167	FIXCROSS	n/a	n/a	n/a	n/a	n/a	n/a	n/a	n/a
354.7495	0.6167	COLOR_NAME	53	Neutral	zielony	green	Neutral	Neutral	hit	n/a
355.3368	n/a	RESPONSE	n/a	n/a	n/a	n/a	n/a	n/a	n/a	green
355.3662	1.0167	ITI	n/a	n/a	n/a	n/a	n/a	n/a	n/a	n/a
356.3828	0.5167	FIXCROSS	n/a	n/a	n/a	n/a	n/a	n/a	n/a	n/a
356.8995	0.6667	COLOR_NAME	54	Incongruent	zielony	green	czerwony	red	hit	n/a
357.5419	n/a	RESPONSE	n/a	n/a	n/a	n/a	n/a	n/a	n/a	green
357.5662	1.0167	ITI	n/a	n/a	n/a	n/a	n/a	n/a	n/a	n/a
358.5829	0.5167	FIXCROSS	n/a	n/a	n/a	n/a	n/a	n/a	n/a	n/a
359.0995	0.6333	COLOR_NAME	55	Incongruent	żółty	yellow	zielony	green	hit	n/a
359.715	n/a	RESPONSE	n/a	n/a	n/a	n/a	n/a	n/a	n/a	yellow
359.7329	1.0167	ITI	n/a	n/a	n/a	n/a	n/a	n/a	n/a	n/a
360.7495	0.5167	FIXCROSS	n/a	n/a	n/a	n/a	n/a	n/a	n/a	n/a
361.2662	0.75	COLOR_NAME	56	Incongruent	niebieski	blue	żółty	yellow	hit	n/a
361.984	n/a	RESPONSE	n/a	n/a	n/a	n/a	n/a	n/a	n/a	blue
362.0162	1.0167	ITI	n/a	n/a	n/a	n/a	n/a	n/a	n/a	n/a
363.0329	0.5167	FIXCROSS	n/a	n/a	n/a	n/a	n/a	n/a	n/a	n/a
363.5496	0.6	COLOR_NAME	57	Incongruent	żółty	yellow	czerwony	red	hit	n/a
364.1252	n/a	RESPONSE	n/a	n/a	n/a	n/a	n/a	n/a	n/a	yellow
364.1496	1.0167	ITI	n/a	n/a	n/a	n/a	n/a	n/a	n/a	n/a
365.1662	0.5167	FIXCROSS	n/a	n/a	n/a	n/a	n/a	n/a	n/a	n/a
365.6829	0.5833	COLOR_NAME	58	Incongruent	czerwony	red	żółty	yellow	hit	n/a
366.2344	n/a	RESPONSE	n/a	n/a	n/a	n/a	n/a	n/a	n/a	red
366.2662	1.0167	ITI	n/a	n/a	n/a	n/a	n/a	n/a	n/a	n/a
367.2829	0.5167	FIXCROSS	n/a	n/a	n/a	n/a	n/a	n/a	n/a	n/a
367.7996	0.6167	COLOR_NAME	59	Neutral	niebieski	blue	Neutral	Neutral	hit	n/a
368.3915	n/a	RESPONSE	n/a	n/a	n/a	n/a	n/a	n/a	n/a	blue
368.4163	1.0167	ITI	n/a	n/a	n/a	n/a	n/a	n/a	n/a	n/a
369.4329	0.5167	FIXCROSS	n/a	n/a	n/a	n/a	n/a	n/a	n/a	n/a
369.9496	0.6333	COLOR_NAME	60	Incongruent	żółty	yellow	czerwony	red	hit	n/a
370.5646	n/a	RESPONSE	n/a	n/a	n/a	n/a	n/a	n/a	n/a	yellow
370.5829	1.0167	ITI	n/a	n/a	n/a	n/a	n/a	n/a	n/a	n/a
371.5996	0.5167	FIXCROSS	n/a	n/a	n/a	n/a	n/a	n/a	n/a	n/a
372.1163	0.6667	COLOR_NAME	61	Neutral	czerwony	red	Neutral	Neutral	hit	n/a
372.7537	n/a	RESPONSE	n/a	n/a	n/a	n/a	n/a	n/a	n/a	red
372.7829	1.0167	ITI	n/a	n/a	n/a	n/a	n/a	n/a	n/a	n/a
373.7996	0.5167	FIXCROSS	n/a	n/a	n/a	n/a	n/a	n/a	n/a	n/a
374.3163	0.5833	COLOR_NAME	62	Neutral	żółty	yellow	Neutral	Neutral	hit	n/a
374.8788	n/a	RESPONSE	n/a	n/a	n/a	n/a	n/a	n/a	n/a	yellow
374.8996	1.0167	ITI	n/a	n/a	n/a	n/a	n/a	n/a	n/a	n/a
375.9163	0.5167	FIXCROSS	n/a	n/a	n/a	n/a	n/a	n/a	n/a	n/a
376.433	0.65	COLOR_NAME	63	Neutral	zielony	green	Neutral	Neutral	hit	n/a
377.0519	n/a	RESPONSE	n/a	n/a	n/a	n/a	n/a	n/a	n/a	green
377.083	1.0167	ITI	n/a	n/a	n/a	n/a	n/a	n/a	n/a	n/a
378.0997	0.5167	FIXCROSS	n/a	n/a	n/a	n/a	n/a	n/a	n/a	n/a
378.6163	0.7667	COLOR_NAME	64	Incongruent	czerwony	red	niebieski	blue	hit	n/a
379.3529	n/a	RESPONSE	n/a	n/a	n/a	n/a	n/a	n/a	n/a	red
379.383	1.0167	ITI	n/a	n/a	n/a	n/a	n/a	n/a	n/a	n/a
380.3997	0.5167	FIXCROSS	n/a	n/a	n/a	n/a	n/a	n/a	n/a	n/a
380.9163	0.75	COLOR_NAME	65	Neutral	niebieski	blue	Neutral	Neutral	hit	n/a
381.6379	n/a	RESPONSE	n/a	n/a	n/a	n/a	n/a	n/a	n/a	blue
381.6663	1.0167	ITI	n/a	n/a	n/a	n/a	n/a	n/a	n/a	n/a
382.683	0.5167	FIXCROSS	n/a	n/a	n/a	n/a	n/a	n/a	n/a	n/a
383.1997	0.7167	COLOR_NAME	66	Incongruent	niebieski	blue	czerwony	red	hit	n/a
383.8908	n/a	RESPONSE	n/a	n/a	n/a	n/a	n/a	n/a	n/a	blue
383.9164	1.0167	ITI	n/a	n/a	n/a	n/a	n/a	n/a	n/a	n/a
384.933	0.5167	FIXCROSS	n/a	n/a	n/a	n/a	n/a	n/a	n/a	n/a
385.4497	0.5667	COLOR_NAME	67	Neutral	czerwony	red	Neutral	Neutral	hit	n/a
385.984	n/a	RESPONSE	n/a	n/a	n/a	n/a	n/a	n/a	n/a	red
386.0164	1.0167	ITI	n/a	n/a	n/a	n/a	n/a	n/a	n/a	n/a
387.0331	0.5167	FIXCROSS	n/a	n/a	n/a	n/a	n/a	n/a	n/a	n/a
387.5497	0.5	COLOR_NAME	68	Neutral	żółty	yellow	Neutral	Neutral	hit	n/a
388.0293	n/a	RESPONSE	n/a	n/a	n/a	n/a	n/a	n/a	n/a	yellow
388.0497	1.0167	ITI	n/a	n/a	n/a	n/a	n/a	n/a	n/a	n/a
389.0664	0.5167	FIXCROSS	n/a	n/a	n/a	n/a	n/a	n/a	n/a	n/a
389.5831	0.6833	COLOR_NAME	69	Incongruent	niebieski	blue	zielony	green	hit	n/a
390.2344	n/a	RESPONSE	n/a	n/a	n/a	n/a	n/a	n/a	n/a	blue
390.2664	1.0167	ITI	n/a	n/a	n/a	n/a	n/a	n/a	n/a	n/a
391.2831	0.5167	FIXCROSS	n/a	n/a	n/a	n/a	n/a	n/a	n/a	n/a
391.7997	0.5833	COLOR_NAME	70	Incongruent	niebieski	blue	żółty	yellow	hit	n/a
392.3596	n/a	RESPONSE	n/a	n/a	n/a	n/a	n/a	n/a	n/a	blue
392.3831	1.0167	ITI	n/a	n/a	n/a	n/a	n/a	n/a	n/a	n/a
393.3998	0.5167	FIXCROSS	n/a	n/a	n/a	n/a	n/a	n/a	n/a	n/a
393.9164	0.85	COLOR_NAME	71	Incongruent	czerwony	red	niebieski	blue	hit	n/a
394.7405	n/a	RESPONSE	n/a	n/a	n/a	n/a	n/a	n/a	n/a	red
394.7664	1.0167	ITI	n/a	n/a	n/a	n/a	n/a	n/a	n/a	n/a
395.7831	0.5167	FIXCROSS	n/a	n/a	n/a	n/a	n/a	n/a	n/a	n/a
396.2998	0.55	COLOR_NAME	72	Neutral	żółty	yellow	Neutral	Neutral	hit	n/a
396.8177	n/a	RESPONSE	n/a	n/a	n/a	n/a	n/a	n/a	n/a	yellow
396.8498	1.0333	ITI	n/a	n/a	n/a	n/a	n/a	n/a	n/a	n/a
400.0773	n/a	RESPONSE	n/a	n/a	n/a	n/a	n/a	n/a	n/a	n/a
