onset	duration	trial_type	trial_number	stroop_condition	stim_text(PL)	stim_text(eng)	stim_color(PL)	stim_color(eng)	response_type	response_color
0.0	n/a	RESPONSE	n/a	n/a	n/a	n/a	n/a	n/a	n/a	n/a
0.0265	1.0167	ITI	n/a	n/a	n/a	n/a	n/a	n/a	n/a	n/a
1.0432	0.5	FIXCROSS	n/a	n/a	n/a	n/a	n/a	n/a	n/a	n/a
1.5432	1.6	T_INK	1	Incongruent	niebieski	blue	żółty	yellow	incorrect	n/a
3.1352	n/a	RESPONSE	n/a	n/a	n/a	n/a	n/a	n/a	n/a	blue
3.1432	0.5	FEEDBACK	n/a	n/a	n/a	n/a	n/a	n/a	n/a	n/a
3.6432	1.0	ITI	n/a	n/a	n/a	n/a	n/a	n/a	n/a	n/a
4.6432	0.5	FIXCROSS	n/a	n/a	n/a	n/a	n/a	n/a	n/a	n/a
5.1432	1.3	T_INK	2	Incongruent	niebieski	blue	czerwony	red	hit	n/a
6.4304	n/a	RESPONSE	n/a	n/a	n/a	n/a	n/a	n/a	n/a	red
6.4432	0.5	FEEDBACK	n/a	n/a	n/a	n/a	n/a	n/a	n/a	n/a
6.9433	1.0	ITI	n/a	n/a	n/a	n/a	n/a	n/a	n/a	n/a
7.9433	0.5	FIXCROSS	n/a	n/a	n/a	n/a	n/a	n/a	n/a	n/a
8.4433	0.95	T_INK	3	Neutral	xxxxx	xxxxx	zielony	green	hit	n/a
9.3737	n/a	RESPONSE	n/a	n/a	n/a	n/a	n/a	n/a	n/a	green
9.3933	0.5	FEEDBACK	n/a	n/a	n/a	n/a	n/a	n/a	n/a	n/a
9.8933	1.0	ITI	n/a	n/a	n/a	n/a	n/a	n/a	n/a	n/a
10.8933	0.5	FIXCROSS	n/a	n/a	n/a	n/a	n/a	n/a	n/a	n/a
11.3933	1.9	T_INK	4	Incongruent	zielony	green	żółty	yellow	hit	n/a
13.2767	n/a	RESPONSE	n/a	n/a	n/a	n/a	n/a	n/a	n/a	yellow
13.2933	0.5	FEEDBACK	n/a	n/a	n/a	n/a	n/a	n/a	n/a	n/a
13.7933	1.0	ITI	n/a	n/a	n/a	n/a	n/a	n/a	n/a	n/a
14.7933	0.5	FIXCROSS	n/a	n/a	n/a	n/a	n/a	n/a	n/a	n/a
15.2933	0.9167	T_INK	5	Neutral	xxxxxxxx	xxxxxxxx	żółty	yellow	hit	n/a
16.204	n/a	RESPONSE	n/a	n/a	n/a	n/a	n/a	n/a	n/a	yellow
16.21	0.5	FEEDBACK	n/a	n/a	n/a	n/a	n/a	n/a	n/a	n/a
16.71	1.0	ITI	n/a	n/a	n/a	n/a	n/a	n/a	n/a	n/a
17.71	0.5	FIXCROSS	n/a	n/a	n/a	n/a	n/a	n/a	n/a	n/a
18.21	0.8	T_INK	6	Neutral	xxxxxxxx	xxxxxxxx	zielony	green	hit	n/a
19.0033	n/a	RESPONSE	n/a	n/a	n/a	n/a	n/a	n/a	n/a	green
19.01	0.5	FEEDBACK	n/a	n/a	n/a	n/a	n/a	n/a	n/a	n/a
19.51	1.0	ITI	n/a	n/a	n/a	n/a	n/a	n/a	n/a	n/a
20.51	0.5	FIXCROSS	n/a	n/a	n/a	n/a	n/a	n/a	n/a	n/a
21.01	0.8167	T_INK	7	Neutral	xxxxxxx	xxxxxxx	niebieski	blue	hit	n/a
21.8186	n/a	RESPONSE	n/a	n/a	n/a	n/a	n/a	n/a	n/a	blue
21.8267	0.5	FEEDBACK	n/a	n/a	n/a	n/a	n/a	n/a	n/a	n/a
22.3267	1.0	ITI	n/a	n/a	n/a	n/a	n/a	n/a	n/a	n/a
23.3267	0.5	FIXCROSS	n/a	n/a	n/a	n/a	n/a	n/a	n/a	n/a
23.8267	1.6333	T_INK	8	Incongruent	żółty	yellow	zielony	green	hit	n/a
25.4497	n/a	RESPONSE	n/a	n/a	n/a	n/a	n/a	n/a	n/a	green
25.4601	0.5	FEEDBACK	n/a	n/a	n/a	n/a	n/a	n/a	n/a	n/a
25.9601	1.0	ITI	n/a	n/a	n/a	n/a	n/a	n/a	n/a	n/a
26.9601	0.5	FIXCROSS	n/a	n/a	n/a	n/a	n/a	n/a	n/a	n/a
27.4601	1.7834	T_INK	9	Incongruent	zielony	green	niebieski	blue	hit	n/a
29.2248	n/a	RESPONSE	n/a	n/a	n/a	n/a	n/a	n/a	n/a	blue
29.2434	0.5	FEEDBACK	n/a	n/a	n/a	n/a	n/a	n/a	n/a	n/a
29.7435	1.0	ITI	n/a	n/a	n/a	n/a	n/a	n/a	n/a	n/a
30.7435	0.5	FIXCROSS	n/a	n/a	n/a	n/a	n/a	n/a	n/a	n/a
31.2435	0.85	T_INK	10	Neutral	xxxxx	xxxxx	czerwony	red	hit	n/a
32.0721	n/a	RESPONSE	n/a	n/a	n/a	n/a	n/a	n/a	n/a	red
32.0935	0.4999	FEEDBACK	n/a	n/a	n/a	n/a	n/a	n/a	n/a	n/a
32.5934	1.0001	ITI	n/a	n/a	n/a	n/a	n/a	n/a	n/a	n/a
33.5935	0.5	FIXCROSS	n/a	n/a	n/a	n/a	n/a	n/a	n/a	n/a
34.0935	0.8	T_INK	11	Neutral	xxxxx	xxxxx	niebieski	blue	hit	n/a
34.8714	n/a	RESPONSE	n/a	n/a	n/a	n/a	n/a	n/a	n/a	blue
34.8935	0.5167	FEEDBACK	n/a	n/a	n/a	n/a	n/a	n/a	n/a	n/a
35.4102	1.0167	ITI	n/a	n/a	n/a	n/a	n/a	n/a	n/a	n/a
36.4269	0.5167	FIXCROSS	n/a	n/a	n/a	n/a	n/a	n/a	n/a	n/a
36.9435	1.3833	T_INK	12	Incongruent	czerwony	red	żółty	yellow	hit	n/a
38.3105	n/a	RESPONSE	n/a	n/a	n/a	n/a	n/a	n/a	n/a	yellow
38.3269	0.5	FEEDBACK	n/a	n/a	n/a	n/a	n/a	n/a	n/a	n/a
38.8269	1.0	ITI	n/a	n/a	n/a	n/a	n/a	n/a	n/a	n/a
47.0444	n/a	RESPONSE	n/a	n/a	n/a	n/a	n/a	n/a	n/a	n/a
47.1103	1.0167	ITI	n/a	n/a	n/a	n/a	n/a	n/a	n/a	n/a
48.1269	0.5167	FIXCROSS	n/a	n/a	n/a	n/a	n/a	n/a	n/a	n/a
48.6436	1.6667	INK	1	Incongruent	zielony	green	czerwony	red	hit	n/a
50.2916	n/a	RESPONSE	n/a	n/a	n/a	n/a	n/a	n/a	n/a	red
50.3103	1.0167	ITI	n/a	n/a	n/a	n/a	n/a	n/a	n/a	n/a
51.327	0.5167	FIXCROSS	n/a	n/a	n/a	n/a	n/a	n/a	n/a	n/a
51.8437	1.9667	INK	2	Incongruent	żółty	yellow	czerwony	red	hit	n/a
53.7787	n/a	RESPONSE	n/a	n/a	n/a	n/a	n/a	n/a	n/a	red
53.8103	1.0167	ITI	n/a	n/a	n/a	n/a	n/a	n/a	n/a	n/a
54.827	0.5167	FIXCROSS	n/a	n/a	n/a	n/a	n/a	n/a	n/a	n/a
55.3437	1.3333	INK	3	Incongruent	żółty	yellow	niebieski	blue	hit	n/a
56.658	n/a	RESPONSE	n/a	n/a	n/a	n/a	n/a	n/a	n/a	blue
56.677	1.0167	ITI	n/a	n/a	n/a	n/a	n/a	n/a	n/a	n/a
57.6937	0.5167	FIXCROSS	n/a	n/a	n/a	n/a	n/a	n/a	n/a	n/a
58.2104	0.8167	INK	4	Neutral	xxxxxxxx	xxxxxxxx	zielony	green	hit	n/a
58.9934	n/a	RESPONSE	n/a	n/a	n/a	n/a	n/a	n/a	n/a	green
59.027	1.0167	ITI	n/a	n/a	n/a	n/a	n/a	n/a	n/a	n/a
60.0437	0.5167	FIXCROSS	n/a	n/a	n/a	n/a	n/a	n/a	n/a	n/a
60.5604	0.85	INK	5	Neutral	xxxxxxxxx	xxxxxxxxx	czerwony	red	hit	n/a
61.3768	n/a	RESPONSE	n/a	n/a	n/a	n/a	n/a	n/a	n/a	red
61.4104	1.0167	ITI	n/a	n/a	n/a	n/a	n/a	n/a	n/a	n/a
62.4271	0.5167	FIXCROSS	n/a	n/a	n/a	n/a	n/a	n/a	n/a	n/a
62.9438	1.1167	INK	6	Incongruent	zielony	green	czerwony	red	hit	n/a
64.0322	n/a	RESPONSE	n/a	n/a	n/a	n/a	n/a	n/a	n/a	red
64.0604	1.0167	ITI	n/a	n/a	n/a	n/a	n/a	n/a	n/a	n/a
65.0771	0.5167	FIXCROSS	n/a	n/a	n/a	n/a	n/a	n/a	n/a	n/a
65.5938	1.25	INK	7	Incongruent	niebieski	blue	czerwony	red	hit	n/a
66.8155	n/a	RESPONSE	n/a	n/a	n/a	n/a	n/a	n/a	n/a	red
66.8438	1.0167	ITI	n/a	n/a	n/a	n/a	n/a	n/a	n/a	n/a
67.8605	0.5167	FIXCROSS	n/a	n/a	n/a	n/a	n/a	n/a	n/a	n/a
68.3771	1.4334	INK	8	Incongruent	żółty	yellow	zielony	green	hit	n/a
69.7907	n/a	RESPONSE	n/a	n/a	n/a	n/a	n/a	n/a	n/a	green
69.8105	1.0167	ITI	n/a	n/a	n/a	n/a	n/a	n/a	n/a	n/a
70.8272	0.5167	FIXCROSS	n/a	n/a	n/a	n/a	n/a	n/a	n/a	n/a
71.3438	1.1833	INK	9	Incongruent	niebieski	blue	zielony	green	hit	n/a
72.4941	n/a	RESPONSE	n/a	n/a	n/a	n/a	n/a	n/a	n/a	green
72.5272	1.0167	ITI	n/a	n/a	n/a	n/a	n/a	n/a	n/a	n/a
73.5438	0.5167	FIXCROSS	n/a	n/a	n/a	n/a	n/a	n/a	n/a	n/a
74.0605	1.1	INK	10	Incongruent	niebieski	blue	żółty	yellow	hit	n/a
75.1335	n/a	RESPONSE	n/a	n/a	n/a	n/a	n/a	n/a	n/a	yellow
75.1605	1.0167	ITI	n/a	n/a	n/a	n/a	n/a	n/a	n/a	n/a
76.1772	0.5167	FIXCROSS	n/a	n/a	n/a	n/a	n/a	n/a	n/a	n/a
76.6939	1.0	INK	11	Neutral	xxxxxxx	xxxxxxx	niebieski	blue	hit	n/a
77.6609	n/a	RESPONSE	n/a	n/a	n/a	n/a	n/a	n/a	n/a	blue
77.6939	1.0167	ITI	n/a	n/a	n/a	n/a	n/a	n/a	n/a	n/a
78.7106	0.5167	FIXCROSS	n/a	n/a	n/a	n/a	n/a	n/a	n/a	n/a
79.2272	0.6833	INK	12	Neutral	xxxxx	xxxxx	niebieski	blue	hit	n/a
79.8843	n/a	RESPONSE	n/a	n/a	n/a	n/a	n/a	n/a	n/a	blue
79.9106	1.0167	ITI	n/a	n/a	n/a	n/a	n/a	n/a	n/a	n/a
80.9272	0.5167	FIXCROSS	n/a	n/a	n/a	n/a	n/a	n/a	n/a	n/a
81.4439	0.65	INK	13	Neutral	xxxxxxx	xxxxxxx	niebieski	blue	hit	n/a
82.0758	n/a	RESPONSE	n/a	n/a	n/a	n/a	n/a	n/a	n/a	blue
82.0939	1.0167	ITI	n/a	n/a	n/a	n/a	n/a	n/a	n/a	n/a
83.1106	0.5167	FIXCROSS	n/a	n/a	n/a	n/a	n/a	n/a	n/a	n/a
83.6273	1.0167	INK	14	Incongruent	żółty	yellow	niebieski	blue	hit	n/a
84.6191	n/a	RESPONSE	n/a	n/a	n/a	n/a	n/a	n/a	n/a	blue
84.6439	1.0167	ITI	n/a	n/a	n/a	n/a	n/a	n/a	n/a	n/a
85.6606	0.5167	FIXCROSS	n/a	n/a	n/a	n/a	n/a	n/a	n/a	n/a
86.1773	1.0	INK	15	Neutral	xxxxx	xxxxx	czerwony	red	hit	n/a
87.1465	n/a	RESPONSE	n/a	n/a	n/a	n/a	n/a	n/a	n/a	red
87.1773	1.0167	ITI	n/a	n/a	n/a	n/a	n/a	n/a	n/a	n/a
88.194	0.5167	FIXCROSS	n/a	n/a	n/a	n/a	n/a	n/a	n/a	n/a
88.7106	1.3334	INK	16	Incongruent	żółty	yellow	niebieski	blue	hit	n/a
90.0098	n/a	RESPONSE	n/a	n/a	n/a	n/a	n/a	n/a	n/a	blue
90.044	1.0167	ITI	n/a	n/a	n/a	n/a	n/a	n/a	n/a	n/a
91.0607	0.5167	FIXCROSS	n/a	n/a	n/a	n/a	n/a	n/a	n/a	n/a
91.5773	0.6	INK	17	Neutral	xxxxxxxx	xxxxxxxx	niebieski	blue	hit	n/a
92.1533	n/a	RESPONSE	n/a	n/a	n/a	n/a	n/a	n/a	n/a	blue
92.1773	1.0167	ITI	n/a	n/a	n/a	n/a	n/a	n/a	n/a	n/a
93.194	0.5167	FIXCROSS	n/a	n/a	n/a	n/a	n/a	n/a	n/a	n/a
93.7107	1.3667	INK	18	Incongruent	niebieski	blue	żółty	yellow	hit	n/a
95.0486	n/a	RESPONSE	n/a	n/a	n/a	n/a	n/a	n/a	n/a	yellow
95.0774	1.0167	ITI	n/a	n/a	n/a	n/a	n/a	n/a	n/a	n/a
96.094	0.5167	FIXCROSS	n/a	n/a	n/a	n/a	n/a	n/a	n/a	n/a
96.6107	1.15	INK	19	Incongruent	czerwony	red	niebieski	blue	hit	n/a
97.7359	n/a	RESPONSE	n/a	n/a	n/a	n/a	n/a	n/a	n/a	blue
97.7607	1.0167	ITI	n/a	n/a	n/a	n/a	n/a	n/a	n/a	n/a
98.7774	0.5167	FIXCROSS	n/a	n/a	n/a	n/a	n/a	n/a	n/a	n/a
99.2941	1.0333	INK	20	Incongruent	zielony	green	żółty	yellow	hit	n/a
100.2952	n/a	RESPONSE	n/a	n/a	n/a	n/a	n/a	n/a	n/a	yellow
100.3274	1.0167	ITI	n/a	n/a	n/a	n/a	n/a	n/a	n/a	n/a
101.3441	0.5167	FIXCROSS	n/a	n/a	n/a	n/a	n/a	n/a	n/a	n/a
101.8608	1.1	INK	21	Incongruent	niebieski	blue	zielony	green	hit	n/a
102.9346	n/a	RESPONSE	n/a	n/a	n/a	n/a	n/a	n/a	n/a	green
102.9608	1.0167	ITI	n/a	n/a	n/a	n/a	n/a	n/a	n/a	n/a
103.9775	0.5167	FIXCROSS	n/a	n/a	n/a	n/a	n/a	n/a	n/a	n/a
104.4941	0.75	INK	22	Neutral	xxxxx	xxxxx	czerwony	red	hit	n/a
105.2221	n/a	RESPONSE	n/a	n/a	n/a	n/a	n/a	n/a	n/a	red
105.2441	1.0167	ITI	n/a	n/a	n/a	n/a	n/a	n/a	n/a	n/a
106.2608	0.5167	FIXCROSS	n/a	n/a	n/a	n/a	n/a	n/a	n/a	n/a
106.7775	0.5667	INK	23	Incongruent	niebieski	blue	czerwony	red	hit	n/a
107.3175	n/a	RESPONSE	n/a	n/a	n/a	n/a	n/a	n/a	n/a	red
107.3441	1.0167	ITI	n/a	n/a	n/a	n/a	n/a	n/a	n/a	n/a
108.3608	0.5167	FIXCROSS	n/a	n/a	n/a	n/a	n/a	n/a	n/a	n/a
108.8775	0.8833	INK	24	Neutral	xxxxxxx	xxxxxxx	żółty	yellow	hit	n/a
109.7329	n/a	RESPONSE	n/a	n/a	n/a	n/a	n/a	n/a	n/a	yellow
109.7608	1.0167	ITI	n/a	n/a	n/a	n/a	n/a	n/a	n/a	n/a
110.7775	0.5167	FIXCROSS	n/a	n/a	n/a	n/a	n/a	n/a	n/a	n/a
111.2942	0.6667	INK	25	Neutral	xxxxx	xxxxx	zielony	green	hit	n/a
111.9404	n/a	RESPONSE	n/a	n/a	n/a	n/a	n/a	n/a	n/a	green
111.9609	1.0167	ITI	n/a	n/a	n/a	n/a	n/a	n/a	n/a	n/a
112.9775	0.5167	FIXCROSS	n/a	n/a	n/a	n/a	n/a	n/a	n/a	n/a
113.4942	0.6667	INK	26	Neutral	xxxxxxxxx	xxxxxxxxx	żółty	yellow	hit	n/a
114.1319	n/a	RESPONSE	n/a	n/a	n/a	n/a	n/a	n/a	n/a	yellow
114.1609	1.0167	ITI	n/a	n/a	n/a	n/a	n/a	n/a	n/a	n/a
115.1775	0.5167	FIXCROSS	n/a	n/a	n/a	n/a	n/a	n/a	n/a	n/a
115.6942	0.8167	INK	27	Incongruent	niebieski	blue	żółty	yellow	hit	n/a
116.4832	n/a	RESPONSE	n/a	n/a	n/a	n/a	n/a	n/a	n/a	yellow
116.5109	1.0167	ITI	n/a	n/a	n/a	n/a	n/a	n/a	n/a	n/a
117.5276	0.5167	FIXCROSS	n/a	n/a	n/a	n/a	n/a	n/a	n/a	n/a
118.0442	0.5334	INK	28	Neutral	xxxxx	xxxxx	niebieski	blue	hit	n/a
118.5467	n/a	RESPONSE	n/a	n/a	n/a	n/a	n/a	n/a	n/a	blue
118.5776	1.0167	ITI	n/a	n/a	n/a	n/a	n/a	n/a	n/a	n/a
119.5942	0.5167	FIXCROSS	n/a	n/a	n/a	n/a	n/a	n/a	n/a	n/a
120.1109	0.5167	INK	29	Neutral	xxxxx	xxxxx	czerwony	red	hit	n/a
120.5942	n/a	RESPONSE	n/a	n/a	n/a	n/a	n/a	n/a	n/a	red
120.6276	1.0167	ITI	n/a	n/a	n/a	n/a	n/a	n/a	n/a	n/a
121.6443	0.5167	FIXCROSS	n/a	n/a	n/a	n/a	n/a	n/a	n/a	n/a
122.1609	0.5833	INK	30	Neutral	xxxxxxxx	xxxxxxxx	żółty	yellow	hit	n/a
122.7217	n/a	RESPONSE	n/a	n/a	n/a	n/a	n/a	n/a	n/a	yellow
122.7443	1.0167	ITI	n/a	n/a	n/a	n/a	n/a	n/a	n/a	n/a
123.7609	0.5167	FIXCROSS	n/a	n/a	n/a	n/a	n/a	n/a	n/a	n/a
124.2776	1.25	INK	31	Neutral	xxxxxxxx	xxxxxxxx	niebieski	blue	hit	n/a
125.505	n/a	RESPONSE	n/a	n/a	n/a	n/a	n/a	n/a	n/a	blue
125.5276	1.0167	ITI	n/a	n/a	n/a	n/a	n/a	n/a	n/a	n/a
126.5443	0.5167	FIXCROSS	n/a	n/a	n/a	n/a	n/a	n/a	n/a	n/a
127.061	0.6333	INK	32	Neutral	xxxxxxxxx	xxxxxxxxx	czerwony	red	hit	n/a
127.6645	n/a	RESPONSE	n/a	n/a	n/a	n/a	n/a	n/a	n/a	red
127.6943	1.0167	ITI	n/a	n/a	n/a	n/a	n/a	n/a	n/a	n/a
128.711	0.5167	FIXCROSS	n/a	n/a	n/a	n/a	n/a	n/a	n/a	n/a
129.2277	1.0167	INK	33	Neutral	xxxxx	xxxxx	zielony	green	hit	n/a
130.2239	n/a	RESPONSE	n/a	n/a	n/a	n/a	n/a	n/a	n/a	green
130.2443	1.0167	ITI	n/a	n/a	n/a	n/a	n/a	n/a	n/a	n/a
131.261	0.5167	FIXCROSS	n/a	n/a	n/a	n/a	n/a	n/a	n/a	n/a
131.7777	0.5833	INK	34	Neutral	xxxxxxx	xxxxxxx	czerwony	red	hit	n/a
132.3353	n/a	RESPONSE	n/a	n/a	n/a	n/a	n/a	n/a	n/a	red
132.361	1.0167	ITI	n/a	n/a	n/a	n/a	n/a	n/a	n/a	n/a
133.3777	0.5167	FIXCROSS	n/a	n/a	n/a	n/a	n/a	n/a	n/a	n/a
133.8944	1.1333	INK	35	Incongruent	niebieski	blue	zielony	green	hit	n/a
135.0067	n/a	RESPONSE	n/a	n/a	n/a	n/a	n/a	n/a	n/a	green
135.0277	1.0167	ITI	n/a	n/a	n/a	n/a	n/a	n/a	n/a	n/a
136.0444	0.5167	FIXCROSS	n/a	n/a	n/a	n/a	n/a	n/a	n/a	n/a
136.5611	0.7167	INK	36	Neutral	xxxxxxx	xxxxxxx	żółty	yellow	hit	n/a
137.2461	n/a	RESPONSE	n/a	n/a	n/a	n/a	n/a	n/a	n/a	yellow
137.2777	1.0167	ITI	n/a	n/a	n/a	n/a	n/a	n/a	n/a	n/a
138.2944	0.5167	FIXCROSS	n/a	n/a	n/a	n/a	n/a	n/a	n/a	n/a
138.8111	0.8667	INK	37	Neutral	xxxxxxxxx	xxxxxxxxx	zielony	green	hit	n/a
139.6456	n/a	RESPONSE	n/a	n/a	n/a	n/a	n/a	n/a	n/a	green
139.6778	1.0167	ITI	n/a	n/a	n/a	n/a	n/a	n/a	n/a	n/a
140.6944	0.5167	FIXCROSS	n/a	n/a	n/a	n/a	n/a	n/a	n/a	n/a
141.2111	0.7334	INK	38	Incongruent	zielony	green	czerwony	red	hit	n/a
141.917	n/a	RESPONSE	n/a	n/a	n/a	n/a	n/a	n/a	n/a	red
141.9444	1.0167	ITI	n/a	n/a	n/a	n/a	n/a	n/a	n/a	n/a
142.9611	0.5167	FIXCROSS	n/a	n/a	n/a	n/a	n/a	n/a	n/a	n/a
143.4778	1.05	INK	39	Incongruent	zielony	green	niebieski	blue	hit	n/a
144.5084	n/a	RESPONSE	n/a	n/a	n/a	n/a	n/a	n/a	n/a	blue
144.5278	1.0167	ITI	n/a	n/a	n/a	n/a	n/a	n/a	n/a	n/a
145.5445	0.5167	FIXCROSS	n/a	n/a	n/a	n/a	n/a	n/a	n/a	n/a
146.0611	1.4167	INK	40	Incongruent	żółty	yellow	czerwony	red	hit	n/a
147.4516	n/a	RESPONSE	n/a	n/a	n/a	n/a	n/a	n/a	n/a	red
147.4778	1.0167	ITI	n/a	n/a	n/a	n/a	n/a	n/a	n/a	n/a
148.4945	0.5167	FIXCROSS	n/a	n/a	n/a	n/a	n/a	n/a	n/a	n/a
149.0112	0.7667	INK	41	Neutral	xxxxxxx	xxxxxxx	niebieski	blue	hit	n/a
149.7551	n/a	RESPONSE	n/a	n/a	n/a	n/a	n/a	n/a	n/a	blue
149.7778	1.0167	ITI	n/a	n/a	n/a	n/a	n/a	n/a	n/a	n/a
150.7945	0.5167	FIXCROSS	n/a	n/a	n/a	n/a	n/a	n/a	n/a	n/a
151.3112	1.0333	INK	42	Incongruent	czerwony	red	zielony	green	hit	n/a
152.3144	n/a	RESPONSE	n/a	n/a	n/a	n/a	n/a	n/a	n/a	green
152.3445	1.0167	ITI	n/a	n/a	n/a	n/a	n/a	n/a	n/a	n/a
153.3612	0.5167	FIXCROSS	n/a	n/a	n/a	n/a	n/a	n/a	n/a	n/a
153.8779	0.5667	INK	43	Neutral	xxxxxxxx	xxxxxxxx	zielony	green	hit	n/a
154.4259	n/a	RESPONSE	n/a	n/a	n/a	n/a	n/a	n/a	n/a	green
154.4445	1.0167	ITI	n/a	n/a	n/a	n/a	n/a	n/a	n/a	n/a
155.4612	0.5167	FIXCROSS	n/a	n/a	n/a	n/a	n/a	n/a	n/a	n/a
155.9779	0.8	INK	44	Neutral	xxxxxxx	xxxxxxx	czerwony	red	hit	n/a
156.7453	n/a	RESPONSE	n/a	n/a	n/a	n/a	n/a	n/a	n/a	red
156.7779	1.0167	ITI	n/a	n/a	n/a	n/a	n/a	n/a	n/a	n/a
157.7946	0.5167	FIXCROSS	n/a	n/a	n/a	n/a	n/a	n/a	n/a	n/a
158.3112	1.0333	INK	45	Incongruent	zielony	green	niebieski	blue	hit	n/a
159.3207	n/a	RESPONSE	n/a	n/a	n/a	n/a	n/a	n/a	n/a	blue
159.3446	1.0167	ITI	n/a	n/a	n/a	n/a	n/a	n/a	n/a	n/a
160.3613	0.5167	FIXCROSS	n/a	n/a	n/a	n/a	n/a	n/a	n/a	n/a
160.8779	1.2167	INK	46	Incongruent	niebieski	blue	czerwony	red	hit	n/a
162.0668	n/a	RESPONSE	n/a	n/a	n/a	n/a	n/a	n/a	n/a	red
162.0946	1.0167	ITI	n/a	n/a	n/a	n/a	n/a	n/a	n/a	n/a
163.1113	0.5167	FIXCROSS	n/a	n/a	n/a	n/a	n/a	n/a	n/a	n/a
163.628	0.5333	INK	47	Incongruent	żółty	yellow	czerwony	red	hit	n/a
164.1355	n/a	RESPONSE	n/a	n/a	n/a	n/a	n/a	n/a	n/a	red
164.1613	1.0167	ITI	n/a	n/a	n/a	n/a	n/a	n/a	n/a	n/a
165.178	0.5167	FIXCROSS	n/a	n/a	n/a	n/a	n/a	n/a	n/a	n/a
165.6946	0.8667	INK	48	Incongruent	czerwony	red	żółty	yellow	hit	n/a
166.5349	n/a	RESPONSE	n/a	n/a	n/a	n/a	n/a	n/a	n/a	yellow
166.5613	1.0167	ITI	n/a	n/a	n/a	n/a	n/a	n/a	n/a	n/a
167.578	0.5167	FIXCROSS	n/a	n/a	n/a	n/a	n/a	n/a	n/a	n/a
168.0947	1.2	INK	49	Incongruent	czerwony	red	zielony	green	hit	n/a
169.2703	n/a	RESPONSE	n/a	n/a	n/a	n/a	n/a	n/a	n/a	green
169.2947	1.0167	ITI	n/a	n/a	n/a	n/a	n/a	n/a	n/a	n/a
170.3113	0.5167	FIXCROSS	n/a	n/a	n/a	n/a	n/a	n/a	n/a	n/a
170.828	0.9667	INK	50	Incongruent	żółty	yellow	zielony	green	hit	n/a
171.7656	n/a	RESPONSE	n/a	n/a	n/a	n/a	n/a	n/a	n/a	green
171.7947	1.0167	ITI	n/a	n/a	n/a	n/a	n/a	n/a	n/a	n/a
172.8114	0.5167	FIXCROSS	n/a	n/a	n/a	n/a	n/a	n/a	n/a	n/a
173.328	0.95	INK	51	Neutral	xxxxxxxx	xxxxxxxx	żółty	yellow	hit	n/a
174.245	n/a	RESPONSE	n/a	n/a	n/a	n/a	n/a	n/a	n/a	yellow
174.2781	1.0167	ITI	n/a	n/a	n/a	n/a	n/a	n/a	n/a	n/a
175.2947	0.5167	FIXCROSS	n/a	n/a	n/a	n/a	n/a	n/a	n/a	n/a
175.8114	0.5833	INK	52	Neutral	xxxxxxx	xxxxxxx	żółty	yellow	hit	n/a
176.3725	n/a	RESPONSE	n/a	n/a	n/a	n/a	n/a	n/a	n/a	yellow
176.3947	1.0167	ITI	n/a	n/a	n/a	n/a	n/a	n/a	n/a	n/a
177.4114	0.5167	FIXCROSS	n/a	n/a	n/a	n/a	n/a	n/a	n/a	n/a
177.9281	0.85	INK	53	Incongruent	zielony	green	żółty	yellow	hit	n/a
178.7559	n/a	RESPONSE	n/a	n/a	n/a	n/a	n/a	n/a	n/a	yellow
178.7781	1.0167	ITI	n/a	n/a	n/a	n/a	n/a	n/a	n/a	n/a
179.7948	0.5167	FIXCROSS	n/a	n/a	n/a	n/a	n/a	n/a	n/a	n/a
180.3114	0.5167	INK	54	Incongruent	czerwony	red	żółty	yellow	hit	n/a
180.8034	n/a	RESPONSE	n/a	n/a	n/a	n/a	n/a	n/a	n/a	yellow
180.8281	1.0167	ITI	n/a	n/a	n/a	n/a	n/a	n/a	n/a	n/a
181.8448	0.5167	FIXCROSS	n/a	n/a	n/a	n/a	n/a	n/a	n/a	n/a
182.3615	0.6167	INK	55	Neutral	xxxxxxxxx	xxxxxxxxx	czerwony	red	hit	n/a
182.9469	n/a	RESPONSE	n/a	n/a	n/a	n/a	n/a	n/a	n/a	red
182.9781	1.0167	ITI	n/a	n/a	n/a	n/a	n/a	n/a	n/a	n/a
183.9948	0.5167	FIXCROSS	n/a	n/a	n/a	n/a	n/a	n/a	n/a	n/a
184.5115	1.2333	INK	56	Incongruent	czerwony	red	zielony	green	hit	n/a
185.7142	n/a	RESPONSE	n/a	n/a	n/a	n/a	n/a	n/a	n/a	green
185.7448	1.0167	ITI	n/a	n/a	n/a	n/a	n/a	n/a	n/a	n/a
186.7615	0.5167	FIXCROSS	n/a	n/a	n/a	n/a	n/a	n/a	n/a	n/a
187.2782	1.1333	INK	57	Incongruent	czerwony	red	żółty	yellow	hit	n/a
188.3856	n/a	RESPONSE	n/a	n/a	n/a	n/a	n/a	n/a	n/a	yellow
188.4115	1.0167	ITI	n/a	n/a	n/a	n/a	n/a	n/a	n/a	n/a
189.4282	0.5167	FIXCROSS	n/a	n/a	n/a	n/a	n/a	n/a	n/a	n/a
189.9448	0.6833	INK	58	Neutral	xxxxxxxx	xxxxxxxx	niebieski	blue	hit	n/a
190.609	n/a	RESPONSE	n/a	n/a	n/a	n/a	n/a	n/a	n/a	blue
190.6282	1.0167	ITI	n/a	n/a	n/a	n/a	n/a	n/a	n/a	n/a
191.6449	0.5167	FIXCROSS	n/a	n/a	n/a	n/a	n/a	n/a	n/a	n/a
192.1615	1.0	INK	59	Neutral	xxxxxxxxx	xxxxxxxxx	zielony	green	hit	n/a
193.1364	n/a	RESPONSE	n/a	n/a	n/a	n/a	n/a	n/a	n/a	green
193.1615	1.0167	ITI	n/a	n/a	n/a	n/a	n/a	n/a	n/a	n/a
194.1782	0.5167	FIXCROSS	n/a	n/a	n/a	n/a	n/a	n/a	n/a	n/a
194.6949	0.6667	INK	60	Neutral	xxxxxxxxx	xxxxxxxxx	żółty	yellow	hit	n/a
195.3278	n/a	RESPONSE	n/a	n/a	n/a	n/a	n/a	n/a	n/a	yellow
195.3616	1.0167	ITI	n/a	n/a	n/a	n/a	n/a	n/a	n/a	n/a
196.3782	0.5167	FIXCROSS	n/a	n/a	n/a	n/a	n/a	n/a	n/a	n/a
196.8949	0.7167	INK	61	Neutral	xxxxxxxx	xxxxxxxx	zielony	green	hit	n/a
197.5833	n/a	RESPONSE	n/a	n/a	n/a	n/a	n/a	n/a	n/a	green
197.6116	1.0167	ITI	n/a	n/a	n/a	n/a	n/a	n/a	n/a	n/a
198.6283	0.5167	FIXCROSS	n/a	n/a	n/a	n/a	n/a	n/a	n/a	n/a
199.1449	0.95	INK	62	Incongruent	zielony	green	żółty	yellow	hit	n/a
200.0627	n/a	RESPONSE	n/a	n/a	n/a	n/a	n/a	n/a	n/a	yellow
200.0949	1.0167	ITI	n/a	n/a	n/a	n/a	n/a	n/a	n/a	n/a
201.1116	0.5167	FIXCROSS	n/a	n/a	n/a	n/a	n/a	n/a	n/a	n/a
201.6283	1.05	INK	63	Incongruent	czerwony	red	niebieski	blue	hit	n/a
202.654	n/a	RESPONSE	n/a	n/a	n/a	n/a	n/a	n/a	n/a	blue
202.6783	1.0167	ITI	n/a	n/a	n/a	n/a	n/a	n/a	n/a	n/a
203.695	0.5167	FIXCROSS	n/a	n/a	n/a	n/a	n/a	n/a	n/a	n/a
204.2116	1.3667	INK	64	Neutral	xxxxxxx	xxxxxxx	czerwony	red	hit	n/a
205.5493	n/a	RESPONSE	n/a	n/a	n/a	n/a	n/a	n/a	n/a	red
205.5783	1.0167	ITI	n/a	n/a	n/a	n/a	n/a	n/a	n/a	n/a
206.595	0.5167	FIXCROSS	n/a	n/a	n/a	n/a	n/a	n/a	n/a	n/a
207.1117	1.0333	INK	65	Incongruent	czerwony	red	niebieski	blue	hit	n/a
208.1247	n/a	RESPONSE	n/a	n/a	n/a	n/a	n/a	n/a	n/a	blue
208.145	1.0167	ITI	n/a	n/a	n/a	n/a	n/a	n/a	n/a	n/a
209.1617	0.5167	FIXCROSS	n/a	n/a	n/a	n/a	n/a	n/a	n/a	n/a
209.6783	0.85	INK	66	Neutral	xxxxxxxxx	xxxxxxxxx	zielony	green	hit	n/a
210.5081	n/a	RESPONSE	n/a	n/a	n/a	n/a	n/a	n/a	n/a	green
210.5284	1.0167	ITI	n/a	n/a	n/a	n/a	n/a	n/a	n/a	n/a
211.545	0.5167	FIXCROSS	n/a	n/a	n/a	n/a	n/a	n/a	n/a	n/a
212.0617	0.7667	INK	67	Incongruent	zielony	green	niebieski	blue	hit	n/a
212.7955	n/a	RESPONSE	n/a	n/a	n/a	n/a	n/a	n/a	n/a	blue
212.8284	1.0167	ITI	n/a	n/a	n/a	n/a	n/a	n/a	n/a	n/a
213.845	0.5167	FIXCROSS	n/a	n/a	n/a	n/a	n/a	n/a	n/a	n/a
214.3617	0.6333	INK	68	Neutral	xxxxxxxxx	xxxxxxxxx	żółty	yellow	hit	n/a
214.971	n/a	RESPONSE	n/a	n/a	n/a	n/a	n/a	n/a	n/a	yellow
214.9951	1.0167	ITI	n/a	n/a	n/a	n/a	n/a	n/a	n/a	n/a
216.0117	0.5167	FIXCROSS	n/a	n/a	n/a	n/a	n/a	n/a	n/a	n/a
216.5284	0.65	INK	69	Neutral	xxxxx	xxxxx	niebieski	blue	hit	n/a
217.1464	n/a	RESPONSE	n/a	n/a	n/a	n/a	n/a	n/a	n/a	blue
217.1784	1.0167	ITI	n/a	n/a	n/a	n/a	n/a	n/a	n/a	n/a
218.1951	0.5167	FIXCROSS	n/a	n/a	n/a	n/a	n/a	n/a	n/a	n/a
218.7118	0.7667	INK	70	Neutral	xxxxx	xxxxx	zielony	green	hit	n/a
219.4499	n/a	RESPONSE	n/a	n/a	n/a	n/a	n/a	n/a	n/a	green
219.4784	1.0167	ITI	n/a	n/a	n/a	n/a	n/a	n/a	n/a	n/a
220.4951	0.5167	FIXCROSS	n/a	n/a	n/a	n/a	n/a	n/a	n/a	n/a
221.0118	1.0	INK	71	Incongruent	żółty	yellow	zielony	green	hit	n/a
221.9933	n/a	RESPONSE	n/a	n/a	n/a	n/a	n/a	n/a	n/a	green
222.0118	1.0167	ITI	n/a	n/a	n/a	n/a	n/a	n/a	n/a	n/a
223.0285	0.5167	FIXCROSS	n/a	n/a	n/a	n/a	n/a	n/a	n/a	n/a
223.5451	0.7333	INK	72	Neutral	xxxxxxxx	xxxxxxxx	żółty	yellow	hit	n/a
224.2487	n/a	RESPONSE	n/a	n/a	n/a	n/a	n/a	n/a	n/a	yellow
224.2785	1.0833	ITI	n/a	n/a	n/a	n/a	n/a	n/a	n/a	n/a
255.2811	n/a	RESPONSE	n/a	n/a	n/a	n/a	n/a	n/a	n/a	n/a
255.3454	1.0167	ITI	n/a	n/a	n/a	n/a	n/a	n/a	n/a	n/a
256.3621	0.5167	FIXCROSS	n/a	n/a	n/a	n/a	n/a	n/a	n/a	n/a
256.8787	2.2167	T_COLOR_NAME	1	Incongruent	zielony	green	żółty	yellow	hit	n/a
259.0561	n/a	RESPONSE	n/a	n/a	n/a	n/a	n/a	n/a	n/a	green
259.0954	0.5167	FEEDBACK	n/a	n/a	n/a	n/a	n/a	n/a	n/a	n/a
259.6121	1.0167	ITI	n/a	n/a	n/a	n/a	n/a	n/a	n/a	n/a
260.6288	0.5167	FIXCROSS	n/a	n/a	n/a	n/a	n/a	n/a	n/a	n/a
261.1454	2.2334	T_COLOR_NAME	2	Neutral	zielony	green	Neutral	Neutral	hit	n/a
263.3431	n/a	RESPONSE	n/a	n/a	n/a	n/a	n/a	n/a	n/a	green
263.3788	0.5167	FEEDBACK	n/a	n/a	n/a	n/a	n/a	n/a	n/a	n/a
263.8955	1.0167	ITI	n/a	n/a	n/a	n/a	n/a	n/a	n/a	n/a
264.9121	0.5167	FIXCROSS	n/a	n/a	n/a	n/a	n/a	n/a	n/a	n/a
265.4288	0.8333	T_COLOR_NAME	3	Incongruent	czerwony	red	żółty	yellow	hit	n/a
266.2384	n/a	RESPONSE	n/a	n/a	n/a	n/a	n/a	n/a	n/a	red
266.2621	0.5167	FEEDBACK	n/a	n/a	n/a	n/a	n/a	n/a	n/a	n/a
266.7788	1.0167	ITI	n/a	n/a	n/a	n/a	n/a	n/a	n/a	n/a
267.7955	0.5167	FIXCROSS	n/a	n/a	n/a	n/a	n/a	n/a	n/a	n/a
268.3122	1.1	T_COLOR_NAME	4	Neutral	czerwony	red	Neutral	Neutral	hit	n/a
269.3896	n/a	RESPONSE	n/a	n/a	n/a	n/a	n/a	n/a	n/a	red
269.4122	0.5167	FEEDBACK	n/a	n/a	n/a	n/a	n/a	n/a	n/a	n/a
269.9288	1.0167	ITI	n/a	n/a	n/a	n/a	n/a	n/a	n/a	n/a
270.9455	0.5167	FIXCROSS	n/a	n/a	n/a	n/a	n/a	n/a	n/a	n/a
271.4622	1.3667	T_COLOR_NAME	5	Incongruent	żółty	yellow	zielony	green	hit	n/a
272.7968	n/a	RESPONSE	n/a	n/a	n/a	n/a	n/a	n/a	n/a	yellow
272.8289	0.5167	FEEDBACK	n/a	n/a	n/a	n/a	n/a	n/a	n/a	n/a
273.3455	1.0167	ITI	n/a	n/a	n/a	n/a	n/a	n/a	n/a	n/a
274.3622	0.5167	FIXCROSS	n/a	n/a	n/a	n/a	n/a	n/a	n/a	n/a
274.8789	0.75	T_COLOR_NAME	6	Incongruent	niebieski	blue	żółty	yellow	hit	n/a
275.596	n/a	RESPONSE	n/a	n/a	n/a	n/a	n/a	n/a	n/a	blue
275.6289	0.5167	FEEDBACK	n/a	n/a	n/a	n/a	n/a	n/a	n/a	n/a
276.1456	1.0167	ITI	n/a	n/a	n/a	n/a	n/a	n/a	n/a	n/a
277.1622	0.5167	FIXCROSS	n/a	n/a	n/a	n/a	n/a	n/a	n/a	n/a
277.6789	1.0	T_COLOR_NAME	7	Incongruent	niebieski	blue	czerwony	red	hit	n/a
278.6513	n/a	RESPONSE	n/a	n/a	n/a	n/a	n/a	n/a	n/a	blue
278.6789	0.5167	FEEDBACK	n/a	n/a	n/a	n/a	n/a	n/a	n/a	n/a
279.1956	1.0167	ITI	n/a	n/a	n/a	n/a	n/a	n/a	n/a	n/a
280.2123	0.5167	FIXCROSS	n/a	n/a	n/a	n/a	n/a	n/a	n/a	n/a
280.7289	0.8833	T_COLOR_NAME	8	Neutral	żółty	yellow	Neutral	Neutral	hit	n/a
281.5785	n/a	RESPONSE	n/a	n/a	n/a	n/a	n/a	n/a	n/a	yellow
281.6123	0.5167	FEEDBACK	n/a	n/a	n/a	n/a	n/a	n/a	n/a	n/a
282.1289	1.0167	ITI	n/a	n/a	n/a	n/a	n/a	n/a	n/a	n/a
283.1456	0.5167	FIXCROSS	n/a	n/a	n/a	n/a	n/a	n/a	n/a	n/a
283.6623	1.0833	T_COLOR_NAME	9	Incongruent	zielony	green	niebieski	blue	hit	n/a
284.7138	n/a	RESPONSE	n/a	n/a	n/a	n/a	n/a	n/a	n/a	green
284.7456	0.5167	FEEDBACK	n/a	n/a	n/a	n/a	n/a	n/a	n/a	n/a
285.2623	1.0167	ITI	n/a	n/a	n/a	n/a	n/a	n/a	n/a	n/a
286.279	0.5167	FIXCROSS	n/a	n/a	n/a	n/a	n/a	n/a	n/a	n/a
286.7957	0.7667	T_COLOR_NAME	10	Neutral	czerwony	red	Neutral	Neutral	hit	n/a
287.5291	n/a	RESPONSE	n/a	n/a	n/a	n/a	n/a	n/a	n/a	red
287.5623	0.5167	FEEDBACK	n/a	n/a	n/a	n/a	n/a	n/a	n/a	n/a
288.079	1.0167	ITI	n/a	n/a	n/a	n/a	n/a	n/a	n/a	n/a
289.0957	0.5167	FIXCROSS	n/a	n/a	n/a	n/a	n/a	n/a	n/a	n/a
289.6123	0.8167	T_COLOR_NAME	11	Neutral	żółty	yellow	Neutral	Neutral	hit	n/a
290.4084	n/a	RESPONSE	n/a	n/a	n/a	n/a	n/a	n/a	n/a	yellow
290.429	0.5167	FEEDBACK	n/a	n/a	n/a	n/a	n/a	n/a	n/a	n/a
290.9457	1.0166	ITI	n/a	n/a	n/a	n/a	n/a	n/a	n/a	n/a
291.9623	0.5167	FIXCROSS	n/a	n/a	n/a	n/a	n/a	n/a	n/a	n/a
292.479	0.7833	T_COLOR_NAME	12	Neutral	żółty	yellow	Neutral	Neutral	hit	n/a
293.2397	n/a	RESPONSE	n/a	n/a	n/a	n/a	n/a	n/a	n/a	yellow
293.2624	0.5167	FEEDBACK	n/a	n/a	n/a	n/a	n/a	n/a	n/a	n/a
293.779	1.0333	ITI	n/a	n/a	n/a	n/a	n/a	n/a	n/a	n/a
296.5029	n/a	RESPONSE	n/a	n/a	n/a	n/a	n/a	n/a	n/a	n/a
296.5624	1.0167	ITI	n/a	n/a	n/a	n/a	n/a	n/a	n/a	n/a
297.5791	0.5333	FIXCROSS	n/a	n/a	n/a	n/a	n/a	n/a	n/a	n/a
298.1124	2.1667	COLOR_NAME	1	Incongruent	zielony	green	niebieski	blue	hit	n/a
300.246	n/a	RESPONSE	n/a	n/a	n/a	n/a	n/a	n/a	n/a	green
300.2791	1.0167	ITI	n/a	n/a	n/a	n/a	n/a	n/a	n/a	n/a
301.2958	0.5167	FIXCROSS	n/a	n/a	n/a	n/a	n/a	n/a	n/a	n/a
301.8124	0.8333	COLOR_NAME	2	Neutral	czerwony	red	Neutral	Neutral	hit	n/a
302.6134	n/a	RESPONSE	n/a	n/a	n/a	n/a	n/a	n/a	n/a	red
302.6458	1.0167	ITI	n/a	n/a	n/a	n/a	n/a	n/a	n/a	n/a
303.6625	0.5167	FIXCROSS	n/a	n/a	n/a	n/a	n/a	n/a	n/a	n/a
304.1791	0.8833	COLOR_NAME	3	Neutral	żółty	yellow	Neutral	Neutral	hit	n/a
305.0448	n/a	RESPONSE	n/a	n/a	n/a	n/a	n/a	n/a	n/a	yellow
305.0625	1.0167	ITI	n/a	n/a	n/a	n/a	n/a	n/a	n/a	n/a
306.0791	0.5167	FIXCROSS	n/a	n/a	n/a	n/a	n/a	n/a	n/a	n/a
306.5958	2.0333	COLOR_NAME	4	Incongruent	żółty	yellow	zielony	green	hit	n/a
308.5959	n/a	RESPONSE	n/a	n/a	n/a	n/a	n/a	n/a	n/a	yellow
308.6292	1.0167	ITI	n/a	n/a	n/a	n/a	n/a	n/a	n/a	n/a
309.6458	0.5167	FIXCROSS	n/a	n/a	n/a	n/a	n/a	n/a	n/a	n/a
310.1625	0.8	COLOR_NAME	5	Neutral	czerwony	red	Neutral	Neutral	hit	n/a
310.9313	n/a	RESPONSE	n/a	n/a	n/a	n/a	n/a	n/a	n/a	red
310.9625	1.0167	ITI	n/a	n/a	n/a	n/a	n/a	n/a	n/a	n/a
311.9792	0.5167	FIXCROSS	n/a	n/a	n/a	n/a	n/a	n/a	n/a	n/a
312.4959	0.7333	COLOR_NAME	6	Neutral	żółty	yellow	Neutral	Neutral	hit	n/a
313.2028	n/a	RESPONSE	n/a	n/a	n/a	n/a	n/a	n/a	n/a	yellow
313.2292	1.0167	ITI	n/a	n/a	n/a	n/a	n/a	n/a	n/a	n/a
314.2459	0.5167	FIXCROSS	n/a	n/a	n/a	n/a	n/a	n/a	n/a	n/a
314.7625	1.0833	COLOR_NAME	7	Incongruent	zielony	green	żółty	yellow	hit	n/a
315.8261	n/a	RESPONSE	n/a	n/a	n/a	n/a	n/a	n/a	n/a	green
315.8459	1.0167	ITI	n/a	n/a	n/a	n/a	n/a	n/a	n/a	n/a
316.8626	0.5167	FIXCROSS	n/a	n/a	n/a	n/a	n/a	n/a	n/a	n/a
317.3792	0.7833	COLOR_NAME	8	Neutral	niebieski	blue	Neutral	Neutral	hit	n/a
318.1295	n/a	RESPONSE	n/a	n/a	n/a	n/a	n/a	n/a	n/a	blue
318.1626	1.0167	ITI	n/a	n/a	n/a	n/a	n/a	n/a	n/a	n/a
319.1792	0.5167	FIXCROSS	n/a	n/a	n/a	n/a	n/a	n/a	n/a	n/a
319.6959	0.8	COLOR_NAME	9	Incongruent	czerwony	red	żółty	yellow	hit	n/a
320.465	n/a	RESPONSE	n/a	n/a	n/a	n/a	n/a	n/a	n/a	red
320.4959	1.0167	ITI	n/a	n/a	n/a	n/a	n/a	n/a	n/a	n/a
321.5126	0.5167	FIXCROSS	n/a	n/a	n/a	n/a	n/a	n/a	n/a	n/a
322.0293	1.0833	COLOR_NAME	10	Incongruent	żółty	yellow	niebieski	blue	hit	n/a
323.0884	n/a	RESPONSE	n/a	n/a	n/a	n/a	n/a	n/a	n/a	yellow
323.1126	1.0167	ITI	n/a	n/a	n/a	n/a	n/a	n/a	n/a	n/a
324.1293	0.5167	FIXCROSS	n/a	n/a	n/a	n/a	n/a	n/a	n/a	n/a
324.646	0.8833	COLOR_NAME	11	Incongruent	niebieski	blue	żółty	yellow	hit	n/a
325.5037	n/a	RESPONSE	n/a	n/a	n/a	n/a	n/a	n/a	n/a	blue
325.5293	1.0167	ITI	n/a	n/a	n/a	n/a	n/a	n/a	n/a	n/a
326.546	0.5167	FIXCROSS	n/a	n/a	n/a	n/a	n/a	n/a	n/a	n/a
327.0626	0.9667	COLOR_NAME	12	Incongruent	niebieski	blue	zielony	green	hit	n/a
327.9991	n/a	RESPONSE	n/a	n/a	n/a	n/a	n/a	n/a	n/a	blue
328.0293	1.0167	ITI	n/a	n/a	n/a	n/a	n/a	n/a	n/a	n/a
329.046	0.5167	FIXCROSS	n/a	n/a	n/a	n/a	n/a	n/a	n/a	n/a
329.5627	0.9667	COLOR_NAME	13	Neutral	zielony	green	Neutral	Neutral	hit	n/a
330.5105	n/a	RESPONSE	n/a	n/a	n/a	n/a	n/a	n/a	n/a	green
330.5293	1.0167	ITI	n/a	n/a	n/a	n/a	n/a	n/a	n/a	n/a
331.546	0.5167	FIXCROSS	n/a	n/a	n/a	n/a	n/a	n/a	n/a	n/a
332.0627	0.7833	COLOR_NAME	14	Neutral	żółty	yellow	Neutral	Neutral	hit	n/a
332.8139	n/a	RESPONSE	n/a	n/a	n/a	n/a	n/a	n/a	n/a	yellow
332.846	1.0167	ITI	n/a	n/a	n/a	n/a	n/a	n/a	n/a	n/a
333.8627	0.5167	FIXCROSS	n/a	n/a	n/a	n/a	n/a	n/a	n/a	n/a
334.3794	0.75	COLOR_NAME	15	Incongruent	niebieski	blue	żółty	yellow	hit	n/a
335.1013	n/a	RESPONSE	n/a	n/a	n/a	n/a	n/a	n/a	n/a	blue
335.1294	1.0167	ITI	n/a	n/a	n/a	n/a	n/a	n/a	n/a	n/a
336.1461	0.5167	FIXCROSS	n/a	n/a	n/a	n/a	n/a	n/a	n/a	n/a
336.6627	0.9833	COLOR_NAME	16	Neutral	zielony	green	Neutral	Neutral	hit	n/a
337.6128	n/a	RESPONSE	n/a	n/a	n/a	n/a	n/a	n/a	n/a	green
337.6461	1.0167	ITI	n/a	n/a	n/a	n/a	n/a	n/a	n/a	n/a
338.6627	0.5167	FIXCROSS	n/a	n/a	n/a	n/a	n/a	n/a	n/a	n/a
339.1794	0.9833	COLOR_NAME	17	Incongruent	zielony	green	czerwony	red	hit	n/a
340.1402	n/a	RESPONSE	n/a	n/a	n/a	n/a	n/a	n/a	n/a	green
340.1628	1.0167	ITI	n/a	n/a	n/a	n/a	n/a	n/a	n/a	n/a
341.1794	0.5167	FIXCROSS	n/a	n/a	n/a	n/a	n/a	n/a	n/a	n/a
341.6961	0.7167	COLOR_NAME	18	Neutral	zielony	green	Neutral	Neutral	hit	n/a
342.3796	n/a	RESPONSE	n/a	n/a	n/a	n/a	n/a	n/a	n/a	green
342.4128	1.0167	ITI	n/a	n/a	n/a	n/a	n/a	n/a	n/a	n/a
343.4294	0.5167	FIXCROSS	n/a	n/a	n/a	n/a	n/a	n/a	n/a	n/a
343.9461	0.85	COLOR_NAME	19	Neutral	niebieski	blue	Neutral	Neutral	hit	n/a
344.763	n/a	RESPONSE	n/a	n/a	n/a	n/a	n/a	n/a	n/a	blue
344.7961	1.0167	ITI	n/a	n/a	n/a	n/a	n/a	n/a	n/a	n/a
345.8128	0.5167	FIXCROSS	n/a	n/a	n/a	n/a	n/a	n/a	n/a	n/a
346.3295	1.3167	COLOR_NAME	20	Neutral	zielony	green	Neutral	Neutral	hit	n/a
347.6263	n/a	RESPONSE	n/a	n/a	n/a	n/a	n/a	n/a	n/a	green
347.6461	1.0167	ITI	n/a	n/a	n/a	n/a	n/a	n/a	n/a	n/a
348.6628	0.5167	FIXCROSS	n/a	n/a	n/a	n/a	n/a	n/a	n/a	n/a
349.1795	0.7333	COLOR_NAME	21	Neutral	żółty	yellow	Neutral	Neutral	hit	n/a
349.8817	n/a	RESPONSE	n/a	n/a	n/a	n/a	n/a	n/a	n/a	yellow
349.9128	1.0167	ITI	n/a	n/a	n/a	n/a	n/a	n/a	n/a	n/a
350.9295	0.5167	FIXCROSS	n/a	n/a	n/a	n/a	n/a	n/a	n/a	n/a
351.4462	0.7333	COLOR_NAME	22	Incongruent	żółty	yellow	niebieski	blue	hit	n/a
352.1532	n/a	RESPONSE	n/a	n/a	n/a	n/a	n/a	n/a	n/a	yellow
352.1795	1.0167	ITI	n/a	n/a	n/a	n/a	n/a	n/a	n/a	n/a
353.1962	0.5167	FIXCROSS	n/a	n/a	n/a	n/a	n/a	n/a	n/a	n/a
353.7129	0.8667	COLOR_NAME	23	Incongruent	niebieski	blue	żółty	yellow	hit	n/a
354.5526	n/a	RESPONSE	n/a	n/a	n/a	n/a	n/a	n/a	n/a	blue
354.5795	1.0167	ITI	n/a	n/a	n/a	n/a	n/a	n/a	n/a	n/a
355.5962	0.5167	FIXCROSS	n/a	n/a	n/a	n/a	n/a	n/a	n/a	n/a
356.1129	0.7333	COLOR_NAME	24	Incongruent	niebieski	blue	zielony	green	hit	n/a
356.824	n/a	RESPONSE	n/a	n/a	n/a	n/a	n/a	n/a	n/a	blue
356.8462	1.0167	ITI	n/a	n/a	n/a	n/a	n/a	n/a	n/a	n/a
357.8629	0.5167	FIXCROSS	n/a	n/a	n/a	n/a	n/a	n/a	n/a	n/a
358.3796	0.8167	COLOR_NAME	25	Incongruent	czerwony	red	niebieski	blue	hit	n/a
359.1754	n/a	RESPONSE	n/a	n/a	n/a	n/a	n/a	n/a	n/a	red
359.1962	1.0167	ITI	n/a	n/a	n/a	n/a	n/a	n/a	n/a	n/a
360.2129	0.5167	FIXCROSS	n/a	n/a	n/a	n/a	n/a	n/a	n/a	n/a
360.7296	0.8167	COLOR_NAME	26	Neutral	zielony	green	Neutral	Neutral	hit	n/a
361.5268	n/a	RESPONSE	n/a	n/a	n/a	n/a	n/a	n/a	n/a	green
361.5463	1.0167	ITI	n/a	n/a	n/a	n/a	n/a	n/a	n/a	n/a
362.5629	0.5167	FIXCROSS	n/a	n/a	n/a	n/a	n/a	n/a	n/a	n/a
363.0796	0.7333	COLOR_NAME	27	Neutral	niebieski	blue	Neutral	Neutral	hit	n/a
363.7823	n/a	RESPONSE	n/a	n/a	n/a	n/a	n/a	n/a	n/a	blue
363.8129	1.0167	ITI	n/a	n/a	n/a	n/a	n/a	n/a	n/a	n/a
364.8296	0.5167	FIXCROSS	n/a	n/a	n/a	n/a	n/a	n/a	n/a	n/a
365.3463	0.8333	COLOR_NAME	28	Incongruent	czerwony	red	niebieski	blue	hit	n/a
366.1497	n/a	RESPONSE	n/a	n/a	n/a	n/a	n/a	n/a	n/a	red
366.1796	1.0167	ITI	n/a	n/a	n/a	n/a	n/a	n/a	n/a	n/a
367.1963	0.5167	FIXCROSS	n/a	n/a	n/a	n/a	n/a	n/a	n/a	n/a
367.713	0.7667	COLOR_NAME	29	Incongruent	czerwony	red	żółty	yellow	hit	n/a
368.4532	n/a	RESPONSE	n/a	n/a	n/a	n/a	n/a	n/a	n/a	red
368.4797	1.0167	ITI	n/a	n/a	n/a	n/a	n/a	n/a	n/a	n/a
369.4963	0.5167	FIXCROSS	n/a	n/a	n/a	n/a	n/a	n/a	n/a	n/a
370.013	0.75	COLOR_NAME	30	Incongruent	żółty	yellow	niebieski	blue	hit	n/a
370.7406	n/a	RESPONSE	n/a	n/a	n/a	n/a	n/a	n/a	n/a	yellow
370.763	1.0167	ITI	n/a	n/a	n/a	n/a	n/a	n/a	n/a	n/a
371.7797	0.5167	FIXCROSS	n/a	n/a	n/a	n/a	n/a	n/a	n/a	n/a
372.2963	0.7167	COLOR_NAME	31	Neutral	zielony	green	Neutral	Neutral	hit	n/a
372.98	n/a	RESPONSE	n/a	n/a	n/a	n/a	n/a	n/a	n/a	green
373.013	1.0167	ITI	n/a	n/a	n/a	n/a	n/a	n/a	n/a	n/a
374.0297	0.5167	FIXCROSS	n/a	n/a	n/a	n/a	n/a	n/a	n/a	n/a
374.5464	0.7	COLOR_NAME	32	Incongruent	żółty	yellow	czerwony	red	hit	n/a
375.2194	n/a	RESPONSE	n/a	n/a	n/a	n/a	n/a	n/a	n/a	yellow
375.2464	1.0167	ITI	n/a	n/a	n/a	n/a	n/a	n/a	n/a	n/a
376.263	0.5167	FIXCROSS	n/a	n/a	n/a	n/a	n/a	n/a	n/a	n/a
376.7797	0.8	COLOR_NAME	33	Neutral	czerwony	red	Neutral	Neutral	hit	n/a
377.5549	n/a	RESPONSE	n/a	n/a	n/a	n/a	n/a	n/a	n/a	red
377.5797	1.0167	ITI	n/a	n/a	n/a	n/a	n/a	n/a	n/a	n/a
378.5964	0.5167	FIXCROSS	n/a	n/a	n/a	n/a	n/a	n/a	n/a	n/a
379.1131	0.5833	COLOR_NAME	34	Neutral	czerwony	red	Neutral	Neutral	hit	n/a
379.6664	n/a	RESPONSE	n/a	n/a	n/a	n/a	n/a	n/a	n/a	red
379.6964	1.0167	ITI	n/a	n/a	n/a	n/a	n/a	n/a	n/a	n/a
380.7131	0.5167	FIXCROSS	n/a	n/a	n/a	n/a	n/a	n/a	n/a	n/a
381.2298	0.8	COLOR_NAME	35	Incongruent	zielony	green	niebieski	blue	hit	n/a
382.0018	n/a	RESPONSE	n/a	n/a	n/a	n/a	n/a	n/a	n/a	green
382.0298	1.0167	ITI	n/a	n/a	n/a	n/a	n/a	n/a	n/a	n/a
383.0464	0.5167	FIXCROSS	n/a	n/a	n/a	n/a	n/a	n/a	n/a	n/a
383.5631	0.7167	COLOR_NAME	36	Neutral	czerwony	red	Neutral	Neutral	hit	n/a
384.2573	n/a	RESPONSE	n/a	n/a	n/a	n/a	n/a	n/a	n/a	red
384.2798	1.0167	ITI	n/a	n/a	n/a	n/a	n/a	n/a	n/a	n/a
385.2965	0.5167	FIXCROSS	n/a	n/a	n/a	n/a	n/a	n/a	n/a	n/a
385.8131	0.9	COLOR_NAME	37	Incongruent	zielony	green	niebieski	blue	hit	n/a
386.6887	n/a	RESPONSE	n/a	n/a	n/a	n/a	n/a	n/a	n/a	green
386.7131	1.0167	ITI	n/a	n/a	n/a	n/a	n/a	n/a	n/a	n/a
387.7298	0.5167	FIXCROSS	n/a	n/a	n/a	n/a	n/a	n/a	n/a	n/a
388.2465	1.05	COLOR_NAME	38	Neutral	czerwony	red	Neutral	Neutral	hit	n/a
389.264	n/a	RESPONSE	n/a	n/a	n/a	n/a	n/a	n/a	n/a	red
389.2965	1.0167	ITI	n/a	n/a	n/a	n/a	n/a	n/a	n/a	n/a
390.3132	0.5167	FIXCROSS	n/a	n/a	n/a	n/a	n/a	n/a	n/a	n/a
390.8298	0.7167	COLOR_NAME	39	Incongruent	żółty	yellow	czerwony	red	hit	n/a
391.5195	n/a	RESPONSE	n/a	n/a	n/a	n/a	n/a	n/a	n/a	yellow
391.5465	1.0167	ITI	n/a	n/a	n/a	n/a	n/a	n/a	n/a	n/a
392.5632	0.5167	FIXCROSS	n/a	n/a	n/a	n/a	n/a	n/a	n/a	n/a
393.0799	1.1333	COLOR_NAME	40	Incongruent	czerwony	red	zielony	green	hit	n/a
394.1908	n/a	RESPONSE	n/a	n/a	n/a	n/a	n/a	n/a	n/a	red
394.2131	1.0167	ITI	n/a	n/a	n/a	n/a	n/a	n/a	n/a	n/a
395.2299	0.5167	FIXCROSS	n/a	n/a	n/a	n/a	n/a	n/a	n/a	n/a
395.7465	0.7333	COLOR_NAME	41	Neutral	niebieski	blue	Neutral	Neutral	hit	n/a
396.4462	n/a	RESPONSE	n/a	n/a	n/a	n/a	n/a	n/a	n/a	blue
396.4799	1.0167	ITI	n/a	n/a	n/a	n/a	n/a	n/a	n/a	n/a
397.4966	0.5167	FIXCROSS	n/a	n/a	n/a	n/a	n/a	n/a	n/a	n/a
398.0132	0.7667	COLOR_NAME	42	Incongruent	zielony	green	czerwony	red	hit	n/a
398.7497	n/a	RESPONSE	n/a	n/a	n/a	n/a	n/a	n/a	n/a	green
398.7799	1.0167	ITI	n/a	n/a	n/a	n/a	n/a	n/a	n/a	n/a
399.7966	0.5167	FIXCROSS	n/a	n/a	n/a	n/a	n/a	n/a	n/a	n/a
400.3132	0.6167	COLOR_NAME	43	Neutral	zielony	green	Neutral	Neutral	hit	n/a
400.9092	n/a	RESPONSE	n/a	n/a	n/a	n/a	n/a	n/a	n/a	green
400.9299	1.0167	ITI	n/a	n/a	n/a	n/a	n/a	n/a	n/a	n/a
401.9466	0.5167	FIXCROSS	n/a	n/a	n/a	n/a	n/a	n/a	n/a	n/a
402.4633	0.7167	COLOR_NAME	44	Incongruent	żółty	yellow	czerwony	red	hit	n/a
403.1486	n/a	RESPONSE	n/a	n/a	n/a	n/a	n/a	n/a	n/a	yellow
403.1799	1.0167	ITI	n/a	n/a	n/a	n/a	n/a	n/a	n/a	n/a
404.1966	0.5167	FIXCROSS	n/a	n/a	n/a	n/a	n/a	n/a	n/a	n/a
404.7133	0.6667	COLOR_NAME	45	Neutral	niebieski	blue	Neutral	Neutral	hit	n/a
405.3561	n/a	RESPONSE	n/a	n/a	n/a	n/a	n/a	n/a	n/a	blue
405.38	1.0167	ITI	n/a	n/a	n/a	n/a	n/a	n/a	n/a	n/a
406.3966	0.5167	FIXCROSS	n/a	n/a	n/a	n/a	n/a	n/a	n/a	n/a
406.9133	0.65	COLOR_NAME	46	Incongruent	czerwony	red	zielony	green	hit	n/a
407.5315	n/a	RESPONSE	n/a	n/a	n/a	n/a	n/a	n/a	n/a	red
407.5633	1.0167	ITI	n/a	n/a	n/a	n/a	n/a	n/a	n/a	n/a
408.58	0.5167	FIXCROSS	n/a	n/a	n/a	n/a	n/a	n/a	n/a	n/a
409.0966	0.8	COLOR_NAME	47	Neutral	niebieski	blue	Neutral	Neutral	hit	n/a
409.8669	n/a	RESPONSE	n/a	n/a	n/a	n/a	n/a	n/a	n/a	blue
409.8966	1.0167	ITI	n/a	n/a	n/a	n/a	n/a	n/a	n/a	n/a
410.9133	0.5167	FIXCROSS	n/a	n/a	n/a	n/a	n/a	n/a	n/a	n/a
411.43	0.7667	COLOR_NAME	48	Neutral	czerwony	red	Neutral	Neutral	hit	n/a
412.1704	n/a	RESPONSE	n/a	n/a	n/a	n/a	n/a	n/a	n/a	red
412.1967	1.0167	ITI	n/a	n/a	n/a	n/a	n/a	n/a	n/a	n/a
413.2133	0.5167	FIXCROSS	n/a	n/a	n/a	n/a	n/a	n/a	n/a	n/a
413.73	0.7167	COLOR_NAME	49	Incongruent	zielony	green	żółty	yellow	hit	n/a
414.4258	n/a	RESPONSE	n/a	n/a	n/a	n/a	n/a	n/a	n/a	green
414.4467	1.0167	ITI	n/a	n/a	n/a	n/a	n/a	n/a	n/a	n/a
415.4634	0.5167	FIXCROSS	n/a	n/a	n/a	n/a	n/a	n/a	n/a	n/a
415.98	0.6333	COLOR_NAME	50	Incongruent	żółty	yellow	zielony	green	hit	n/a
416.5853	n/a	RESPONSE	n/a	n/a	n/a	n/a	n/a	n/a	n/a	yellow
416.6134	1.0167	ITI	n/a	n/a	n/a	n/a	n/a	n/a	n/a	n/a
417.6301	0.5167	FIXCROSS	n/a	n/a	n/a	n/a	n/a	n/a	n/a	n/a
418.1467	0.9167	COLOR_NAME	51	Neutral	zielony	green	Neutral	Neutral	hit	n/a
419.0327	n/a	RESPONSE	n/a	n/a	n/a	n/a	n/a	n/a	n/a	green
419.0634	1.0167	ITI	n/a	n/a	n/a	n/a	n/a	n/a	n/a	n/a
420.0801	0.5167	FIXCROSS	n/a	n/a	n/a	n/a	n/a	n/a	n/a	n/a
420.5967	0.5667	COLOR_NAME	52	Neutral	żółty	yellow	Neutral	Neutral	hit	n/a
421.1441	n/a	RESPONSE	n/a	n/a	n/a	n/a	n/a	n/a	n/a	yellow
421.1634	1.0167	ITI	n/a	n/a	n/a	n/a	n/a	n/a	n/a	n/a
422.1801	0.5167	FIXCROSS	n/a	n/a	n/a	n/a	n/a	n/a	n/a	n/a
422.6968	0.95	COLOR_NAME	53	Incongruent	zielony	green	żółty	yellow	hit	n/a
423.6235	n/a	RESPONSE	n/a	n/a	n/a	n/a	n/a	n/a	n/a	green
423.6468	1.0167	ITI	n/a	n/a	n/a	n/a	n/a	n/a	n/a	n/a
424.6634	0.5167	FIXCROSS	n/a	n/a	n/a	n/a	n/a	n/a	n/a	n/a
425.1801	0.6667	COLOR_NAME	54	Neutral	niebieski	blue	Neutral	Neutral	hit	n/a
425.815	n/a	RESPONSE	n/a	n/a	n/a	n/a	n/a	n/a	n/a	blue
425.8468	1.0167	ITI	n/a	n/a	n/a	n/a	n/a	n/a	n/a	n/a
426.8635	0.5167	FIXCROSS	n/a	n/a	n/a	n/a	n/a	n/a	n/a	n/a
427.3801	1.6167	COLOR_NAME	55	Neutral	żółty	yellow	Neutral	Neutral	hit	n/a
428.9662	n/a	RESPONSE	n/a	n/a	n/a	n/a	n/a	n/a	n/a	yellow
428.9968	1.0167	ITI	n/a	n/a	n/a	n/a	n/a	n/a	n/a	n/a
430.0135	0.5167	FIXCROSS	n/a	n/a	n/a	n/a	n/a	n/a	n/a	n/a
430.5302	0.6	COLOR_NAME	56	Neutral	żółty	yellow	Neutral	Neutral	hit	n/a
431.1097	n/a	RESPONSE	n/a	n/a	n/a	n/a	n/a	n/a	n/a	yellow
431.1302	1.0167	ITI	n/a	n/a	n/a	n/a	n/a	n/a	n/a	n/a
432.1468	0.5167	FIXCROSS	n/a	n/a	n/a	n/a	n/a	n/a	n/a	n/a
432.6635	0.8333	COLOR_NAME	57	Incongruent	niebieski	blue	czerwony	red	hit	n/a
433.4771	n/a	RESPONSE	n/a	n/a	n/a	n/a	n/a	n/a	n/a	blue
433.4968	1.0167	ITI	n/a	n/a	n/a	n/a	n/a	n/a	n/a	n/a
434.5135	0.5167	FIXCROSS	n/a	n/a	n/a	n/a	n/a	n/a	n/a	n/a
435.0302	0.7833	COLOR_NAME	58	Neutral	czerwony	red	Neutral	Neutral	hit	n/a
435.7806	n/a	RESPONSE	n/a	n/a	n/a	n/a	n/a	n/a	n/a	red
435.8135	1.0167	ITI	n/a	n/a	n/a	n/a	n/a	n/a	n/a	n/a
436.8302	0.5167	FIXCROSS	n/a	n/a	n/a	n/a	n/a	n/a	n/a	n/a
437.3469	1.3333	COLOR_NAME	59	Incongruent	zielony	green	czerwony	red	hit	n/a
438.6598	n/a	RESPONSE	n/a	n/a	n/a	n/a	n/a	n/a	n/a	green
438.6802	1.0167	ITI	n/a	n/a	n/a	n/a	n/a	n/a	n/a	n/a
439.6969	0.5167	FIXCROSS	n/a	n/a	n/a	n/a	n/a	n/a	n/a	n/a
440.2136	0.7167	COLOR_NAME	60	Neutral	niebieski	blue	Neutral	Neutral	hit	n/a
440.8993	n/a	RESPONSE	n/a	n/a	n/a	n/a	n/a	n/a	n/a	blue
440.9302	1.0167	ITI	n/a	n/a	n/a	n/a	n/a	n/a	n/a	n/a
441.9469	0.5167	FIXCROSS	n/a	n/a	n/a	n/a	n/a	n/a	n/a	n/a
442.4636	0.75	COLOR_NAME	61	Incongruent	czerwony	red	niebieski	blue	hit	n/a
443.1867	n/a	RESPONSE	n/a	n/a	n/a	n/a	n/a	n/a	n/a	red
443.2136	1.0167	ITI	n/a	n/a	n/a	n/a	n/a	n/a	n/a	n/a
444.2303	0.5166	FIXCROSS	n/a	n/a	n/a	n/a	n/a	n/a	n/a	n/a
444.7469	0.7834	COLOR_NAME	62	Incongruent	niebieski	blue	zielony	green	hit	n/a
445.5061	n/a	RESPONSE	n/a	n/a	n/a	n/a	n/a	n/a	n/a	blue
445.5303	1.0167	ITI	n/a	n/a	n/a	n/a	n/a	n/a	n/a	n/a
446.547	0.5167	FIXCROSS	n/a	n/a	n/a	n/a	n/a	n/a	n/a	n/a
447.0636	0.7167	COLOR_NAME	63	Neutral	czerwony	red	Neutral	Neutral	hit	n/a
447.7616	n/a	RESPONSE	n/a	n/a	n/a	n/a	n/a	n/a	n/a	red
447.7803	1.0167	ITI	n/a	n/a	n/a	n/a	n/a	n/a	n/a	n/a
448.797	0.5167	FIXCROSS	n/a	n/a	n/a	n/a	n/a	n/a	n/a	n/a
449.3136	1.2167	COLOR_NAME	64	Neutral	żółty	yellow	Neutral	Neutral	hit	n/a
450.5129	n/a	RESPONSE	n/a	n/a	n/a	n/a	n/a	n/a	n/a	yellow
450.5303	1.0167	ITI	n/a	n/a	n/a	n/a	n/a	n/a	n/a	n/a
451.547	0.5167	FIXCROSS	n/a	n/a	n/a	n/a	n/a	n/a	n/a	n/a
452.0637	0.65	COLOR_NAME	65	Incongruent	czerwony	red	zielony	green	hit	n/a
452.6884	n/a	RESPONSE	n/a	n/a	n/a	n/a	n/a	n/a	n/a	red
452.7137	1.0167	ITI	n/a	n/a	n/a	n/a	n/a	n/a	n/a	n/a
453.7303	0.5167	FIXCROSS	n/a	n/a	n/a	n/a	n/a	n/a	n/a	n/a
454.247	0.7167	COLOR_NAME	66	Incongruent	żółty	yellow	zielony	green	hit	n/a
454.9438	n/a	RESPONSE	n/a	n/a	n/a	n/a	n/a	n/a	n/a	yellow
454.9637	1.0167	ITI	n/a	n/a	n/a	n/a	n/a	n/a	n/a	n/a
455.9804	0.5167	FIXCROSS	n/a	n/a	n/a	n/a	n/a	n/a	n/a	n/a
456.497	0.5833	COLOR_NAME	67	Incongruent	niebieski	blue	czerwony	red	hit	n/a
457.0553	n/a	RESPONSE	n/a	n/a	n/a	n/a	n/a	n/a	n/a	blue
457.0804	1.0167	ITI	n/a	n/a	n/a	n/a	n/a	n/a	n/a	n/a
458.097	0.5167	FIXCROSS	n/a	n/a	n/a	n/a	n/a	n/a	n/a	n/a
458.6137	0.65	COLOR_NAME	68	Neutral	niebieski	blue	Neutral	Neutral	hit	n/a
459.2308	n/a	RESPONSE	n/a	n/a	n/a	n/a	n/a	n/a	n/a	blue
459.2637	1.0167	ITI	n/a	n/a	n/a	n/a	n/a	n/a	n/a	n/a
460.2804	0.5167	FIXCROSS	n/a	n/a	n/a	n/a	n/a	n/a	n/a	n/a
460.7971	0.7167	COLOR_NAME	69	Neutral	żółty	yellow	Neutral	Neutral	hit	n/a
461.4862	n/a	RESPONSE	n/a	n/a	n/a	n/a	n/a	n/a	n/a	yellow
461.5137	1.0167	ITI	n/a	n/a	n/a	n/a	n/a	n/a	n/a	n/a
462.5304	0.5167	FIXCROSS	n/a	n/a	n/a	n/a	n/a	n/a	n/a	n/a
463.0471	0.6667	COLOR_NAME	70	Incongruent	niebieski	blue	czerwony	red	hit	n/a
463.6937	n/a	RESPONSE	n/a	n/a	n/a	n/a	n/a	n/a	n/a	blue
463.7137	1.0167	ITI	n/a	n/a	n/a	n/a	n/a	n/a	n/a	n/a
464.7304	0.5167	FIXCROSS	n/a	n/a	n/a	n/a	n/a	n/a	n/a	n/a
465.2471	0.7167	COLOR_NAME	71	Incongruent	czerwony	red	żółty	yellow	hit	n/a
465.9331	n/a	RESPONSE	n/a	n/a	n/a	n/a	n/a	n/a	n/a	red
465.9638	1.0167	ITI	n/a	n/a	n/a	n/a	n/a	n/a	n/a	n/a
466.9805	0.5167	FIXCROSS	n/a	n/a	n/a	n/a	n/a	n/a	n/a	n/a
467.4971	0.95	COLOR_NAME	72	Neutral	zielony	green	Neutral	Neutral	hit	n/a
468.4285	n/a	RESPONSE	n/a	n/a	n/a	n/a	n/a	n/a	n/a	green
468.4471	1.0333	ITI	n/a	n/a	n/a	n/a	n/a	n/a	n/a	n/a
476.4105	n/a	RESPONSE	n/a	n/a	n/a	n/a	n/a	n/a	n/a	n/a
