onset	duration	trial_type	trial_number	stroop_condition	stim_text(PL)	stim_text(eng)	stim_color(PL)	stim_color(eng)	response_type	response_color
0.0	n/a	RESPONSE	n/a	n/a	n/a	n/a	n/a	n/a	n/a	n/a
0.0579	1.0333	ITI	n/a	n/a	n/a	n/a	n/a	n/a	n/a	n/a
1.0912	0.5167	FIXCROSS	n/a	n/a	n/a	n/a	n/a	n/a	n/a	n/a
1.6079	0.95	T_INK	1	Neutral	xxxxxxx	xxxxxxx	czerwony	red	hit	n/a
2.5245	n/a	RESPONSE	n/a	n/a	n/a	n/a	n/a	n/a	n/a	red
2.5579	0.5167	FEEDBACK	n/a	n/a	n/a	n/a	n/a	n/a	n/a	n/a
3.0746	1.0167	ITI	n/a	n/a	n/a	n/a	n/a	n/a	n/a	n/a
4.0913	0.5167	FIXCROSS	n/a	n/a	n/a	n/a	n/a	n/a	n/a	n/a
4.6079	0.9167	T_INK	2	Incongruent	żółty	yellow	zielony	green	incorrect	n/a
5.4967	n/a	RESPONSE	n/a	n/a	n/a	n/a	n/a	n/a	n/a	yellow
5.5246	0.5167	FEEDBACK	n/a	n/a	n/a	n/a	n/a	n/a	n/a	n/a
6.0413	1.0167	ITI	n/a	n/a	n/a	n/a	n/a	n/a	n/a	n/a
7.058	0.5167	FIXCROSS	n/a	n/a	n/a	n/a	n/a	n/a	n/a	n/a
7.5746	1.7333	T_INK	3	Incongruent	czerwony	red	niebieski	blue	hit	n/a
9.2836	n/a	RESPONSE	n/a	n/a	n/a	n/a	n/a	n/a	n/a	blue
9.308	0.5167	FEEDBACK	n/a	n/a	n/a	n/a	n/a	n/a	n/a	n/a
9.8247	1.0167	ITI	n/a	n/a	n/a	n/a	n/a	n/a	n/a	n/a
10.8413	0.5167	FIXCROSS	n/a	n/a	n/a	n/a	n/a	n/a	n/a	n/a
11.358	1.15	T_INK	4	Incongruent	żółty	yellow	niebieski	blue	hit	n/a
12.4793	n/a	RESPONSE	n/a	n/a	n/a	n/a	n/a	n/a	n/a	blue
12.508	0.5167	FEEDBACK	n/a	n/a	n/a	n/a	n/a	n/a	n/a	n/a
13.0247	1.0167	ITI	n/a	n/a	n/a	n/a	n/a	n/a	n/a	n/a
14.0413	0.5167	FIXCROSS	n/a	n/a	n/a	n/a	n/a	n/a	n/a	n/a
14.558	1.1167	T_INK	5	Neutral	xxxxx	xxxxx	zielony	green	hit	n/a
15.6431	n/a	RESPONSE	n/a	n/a	n/a	n/a	n/a	n/a	n/a	green
15.6747	0.5167	FEEDBACK	n/a	n/a	n/a	n/a	n/a	n/a	n/a	n/a
16.1914	1.0167	ITI	n/a	n/a	n/a	n/a	n/a	n/a	n/a	n/a
17.208	0.5167	FIXCROSS	n/a	n/a	n/a	n/a	n/a	n/a	n/a	n/a
17.7247	0.8167	T_INK	6	Neutral	xxxxxxx	xxxxxxx	żółty	yellow	hit	n/a
18.5033	n/a	RESPONSE	n/a	n/a	n/a	n/a	n/a	n/a	n/a	yellow
18.5414	0.5167	FEEDBACK	n/a	n/a	n/a	n/a	n/a	n/a	n/a	n/a
19.0581	1.0167	ITI	n/a	n/a	n/a	n/a	n/a	n/a	n/a	n/a
20.0747	0.5167	FIXCROSS	n/a	n/a	n/a	n/a	n/a	n/a	n/a	n/a
20.5914	1.2167	T_INK	7	Incongruent	żółty	yellow	czerwony	red	hit	n/a
21.7788	n/a	RESPONSE	n/a	n/a	n/a	n/a	n/a	n/a	n/a	red
21.8081	0.5167	FEEDBACK	n/a	n/a	n/a	n/a	n/a	n/a	n/a	n/a
22.3247	1.0167	ITI	n/a	n/a	n/a	n/a	n/a	n/a	n/a	n/a
23.3414	0.5167	FIXCROSS	n/a	n/a	n/a	n/a	n/a	n/a	n/a	n/a
23.8581	0.7271	T_INK	8	Neutral	xxxxxxxxx	xxxxxxxxx	czerwony	red	hit	n/a
24.5591	n/a	RESPONSE	n/a	n/a	n/a	n/a	n/a	n/a	n/a	red
24.5852	0.5229	FEEDBACK	n/a	n/a	n/a	n/a	n/a	n/a	n/a	n/a
25.1081	1.0167	ITI	n/a	n/a	n/a	n/a	n/a	n/a	n/a	n/a
26.1248	0.5167	FIXCROSS	n/a	n/a	n/a	n/a	n/a	n/a	n/a	n/a
26.6415	0.85	T_INK	9	Incongruent	czerwony	red	zielony	green	hit	n/a
27.4672	n/a	RESPONSE	n/a	n/a	n/a	n/a	n/a	n/a	n/a	green
27.4915	0.5167	FEEDBACK	n/a	n/a	n/a	n/a	n/a	n/a	n/a	n/a
28.0081	1.0167	ITI	n/a	n/a	n/a	n/a	n/a	n/a	n/a	n/a
29.0248	0.5167	FIXCROSS	n/a	n/a	n/a	n/a	n/a	n/a	n/a	n/a
29.5415	0.6	T_INK	10	Incongruent	niebieski	blue	czerwony	red	hit	n/a
30.1197	n/a	RESPONSE	n/a	n/a	n/a	n/a	n/a	n/a	n/a	red
30.1415	0.5167	FEEDBACK	n/a	n/a	n/a	n/a	n/a	n/a	n/a	n/a
30.6581	1.0167	ITI	n/a	n/a	n/a	n/a	n/a	n/a	n/a	n/a
31.6748	0.5167	FIXCROSS	n/a	n/a	n/a	n/a	n/a	n/a	n/a	n/a
32.1915	0.5833	T_INK	11	Incongruent	zielony	green	niebieski	blue	hit	n/a
32.7562	n/a	RESPONSE	n/a	n/a	n/a	n/a	n/a	n/a	n/a	blue
32.7748	0.5167	FEEDBACK	n/a	n/a	n/a	n/a	n/a	n/a	n/a	n/a
33.2915	1.0167	ITI	n/a	n/a	n/a	n/a	n/a	n/a	n/a	n/a
34.3082	0.5167	FIXCROSS	n/a	n/a	n/a	n/a	n/a	n/a	n/a	n/a
34.8248	0.8999	T_INK	12	Neutral	xxxxxxxxx	xxxxxxxxx	zielony	green	hit	n/a
35.6963	n/a	RESPONSE	n/a	n/a	n/a	n/a	n/a	n/a	n/a	green
35.7248	0.5168	FEEDBACK	n/a	n/a	n/a	n/a	n/a	n/a	n/a	n/a
36.2415	1.0333	ITI	n/a	n/a	n/a	n/a	n/a	n/a	n/a	n/a
40.442	n/a	RESPONSE	n/a	n/a	n/a	n/a	n/a	n/a	n/a	n/a
40.5082	1.0167	ITI	n/a	n/a	n/a	n/a	n/a	n/a	n/a	n/a
41.5249	0.5167	FIXCROSS	n/a	n/a	n/a	n/a	n/a	n/a	n/a	n/a
42.0416	1.05	INK	1	Incongruent	niebieski	blue	czerwony	red	hit	n/a
43.0626	n/a	RESPONSE	n/a	n/a	n/a	n/a	n/a	n/a	n/a	red
43.0916	1.0167	ITI	n/a	n/a	n/a	n/a	n/a	n/a	n/a	n/a
44.1083	0.5167	FIXCROSS	n/a	n/a	n/a	n/a	n/a	n/a	n/a	n/a
44.6249	0.8333	INK	2	Incongruent	żółty	yellow	niebieski	blue	hit	n/a
45.4274	n/a	RESPONSE	n/a	n/a	n/a	n/a	n/a	n/a	n/a	blue
45.4583	1.0167	ITI	n/a	n/a	n/a	n/a	n/a	n/a	n/a	n/a
46.4749	0.5167	FIXCROSS	n/a	n/a	n/a	n/a	n/a	n/a	n/a	n/a
46.9916	0.5833	INK	3	Neutral	xxxxx	xxxxx	zielony	green	hit	n/a
47.5525	n/a	RESPONSE	n/a	n/a	n/a	n/a	n/a	n/a	n/a	green
47.5749	1.0167	ITI	n/a	n/a	n/a	n/a	n/a	n/a	n/a	n/a
48.5916	0.5167	FIXCROSS	n/a	n/a	n/a	n/a	n/a	n/a	n/a	n/a
49.1083	0.5667	INK	4	Incongruent	niebieski	blue	zielony	green	hit	n/a
49.6457	n/a	RESPONSE	n/a	n/a	n/a	n/a	n/a	n/a	n/a	green
49.675	1.0167	ITI	n/a	n/a	n/a	n/a	n/a	n/a	n/a	n/a
50.6916	0.5167	FIXCROSS	n/a	n/a	n/a	n/a	n/a	n/a	n/a	n/a
51.2083	0.85	INK	5	Neutral	xxxxxxxx	xxxxxxxx	zielony	green	hit	n/a
52.0266	n/a	RESPONSE	n/a	n/a	n/a	n/a	n/a	n/a	n/a	green
52.0583	1.0167	ITI	n/a	n/a	n/a	n/a	n/a	n/a	n/a	n/a
53.075	0.5167	FIXCROSS	n/a	n/a	n/a	n/a	n/a	n/a	n/a	n/a
53.5917	0.6167	INK	6	Neutral	xxxxxxxx	xxxxxxxx	zielony	green	hit	n/a
54.1837	n/a	RESPONSE	n/a	n/a	n/a	n/a	n/a	n/a	n/a	green
54.2083	1.0167	ITI	n/a	n/a	n/a	n/a	n/a	n/a	n/a	n/a
55.225	0.5167	FIXCROSS	n/a	n/a	n/a	n/a	n/a	n/a	n/a	n/a
55.7417	0.6333	INK	7	Neutral	xxxxx	xxxxx	czerwony	red	hit	n/a
56.3568	n/a	RESPONSE	n/a	n/a	n/a	n/a	n/a	n/a	n/a	red
56.375	1.0167	ITI	n/a	n/a	n/a	n/a	n/a	n/a	n/a	n/a
57.3917	0.5167	FIXCROSS	n/a	n/a	n/a	n/a	n/a	n/a	n/a	n/a
57.9084	0.7667	INK	8	Neutral	xxxxxxxx	xxxxxxxx	żółty	yellow	hit	n/a
58.6418	n/a	RESPONSE	n/a	n/a	n/a	n/a	n/a	n/a	n/a	yellow
58.675	1.0167	ITI	n/a	n/a	n/a	n/a	n/a	n/a	n/a	n/a
59.6917	0.5167	FIXCROSS	n/a	n/a	n/a	n/a	n/a	n/a	n/a	n/a
60.2084	1.0167	INK	9	Neutral	xxxxxxx	xxxxxxx	czerwony	red	hit	n/a
61.1983	n/a	RESPONSE	n/a	n/a	n/a	n/a	n/a	n/a	n/a	red
61.225	1.0167	ITI	n/a	n/a	n/a	n/a	n/a	n/a	n/a	n/a
62.2417	0.5167	FIXCROSS	n/a	n/a	n/a	n/a	n/a	n/a	n/a	n/a
62.7584	0.9167	INK	10	Incongruent	czerwony	red	żółty	yellow	hit	n/a
63.6431	n/a	RESPONSE	n/a	n/a	n/a	n/a	n/a	n/a	n/a	yellow
63.6751	1.0167	ITI	n/a	n/a	n/a	n/a	n/a	n/a	n/a	n/a
64.6917	0.5167	FIXCROSS	n/a	n/a	n/a	n/a	n/a	n/a	n/a	n/a
65.2084	0.7833	INK	11	Incongruent	czerwony	red	niebieski	blue	hit	n/a
65.9599	n/a	RESPONSE	n/a	n/a	n/a	n/a	n/a	n/a	n/a	blue
65.9917	1.0167	ITI	n/a	n/a	n/a	n/a	n/a	n/a	n/a	n/a
67.0084	0.5167	FIXCROSS	n/a	n/a	n/a	n/a	n/a	n/a	n/a	n/a
67.5251	0.6833	INK	12	Incongruent	żółty	yellow	czerwony	red	hit	n/a
68.181	n/a	RESPONSE	n/a	n/a	n/a	n/a	n/a	n/a	n/a	red
68.2084	1.0167	ITI	n/a	n/a	n/a	n/a	n/a	n/a	n/a	n/a
69.2251	0.5167	FIXCROSS	n/a	n/a	n/a	n/a	n/a	n/a	n/a	n/a
69.7418	0.95	INK	13	Incongruent	niebieski	blue	zielony	green	hit	n/a
70.6736	n/a	RESPONSE	n/a	n/a	n/a	n/a	n/a	n/a	n/a	green
70.6918	1.0167	ITI	n/a	n/a	n/a	n/a	n/a	n/a	n/a	n/a
71.7085	0.5167	FIXCROSS	n/a	n/a	n/a	n/a	n/a	n/a	n/a	n/a
72.2251	1.0	INK	14	Incongruent	czerwony	red	niebieski	blue	hit	n/a
73.1984	n/a	RESPONSE	n/a	n/a	n/a	n/a	n/a	n/a	n/a	blue
73.2251	1.0167	ITI	n/a	n/a	n/a	n/a	n/a	n/a	n/a	n/a
74.2418	0.5167	FIXCROSS	n/a	n/a	n/a	n/a	n/a	n/a	n/a	n/a
74.7585	0.8833	INK	15	Incongruent	czerwony	red	zielony	green	hit	n/a
75.6111	n/a	RESPONSE	n/a	n/a	n/a	n/a	n/a	n/a	n/a	green
75.6418	1.0167	ITI	n/a	n/a	n/a	n/a	n/a	n/a	n/a	n/a
76.6585	0.5167	FIXCROSS	n/a	n/a	n/a	n/a	n/a	n/a	n/a	n/a
77.1752	0.8167	INK	16	Neutral	xxxxxxx	xxxxxxx	niebieski	blue	incorrect	n/a
77.96	n/a	RESPONSE	n/a	n/a	n/a	n/a	n/a	n/a	n/a	red
77.9918	1.0167	ITI	n/a	n/a	n/a	n/a	n/a	n/a	n/a	n/a
79.0085	0.5167	FIXCROSS	n/a	n/a	n/a	n/a	n/a	n/a	n/a	n/a
79.5252	0.7833	INK	17	Neutral	xxxxxxxxx	xxxxxxxxx	czerwony	red	hit	n/a
80.2769	n/a	RESPONSE	n/a	n/a	n/a	n/a	n/a	n/a	n/a	red
80.3085	1.0167	ITI	n/a	n/a	n/a	n/a	n/a	n/a	n/a	n/a
81.3252	0.5167	FIXCROSS	n/a	n/a	n/a	n/a	n/a	n/a	n/a	n/a
81.8419	1.0	INK	18	Incongruent	czerwony	red	niebieski	blue	hit	n/a
82.8175	n/a	RESPONSE	n/a	n/a	n/a	n/a	n/a	n/a	n/a	blue
82.8419	1.0167	ITI	n/a	n/a	n/a	n/a	n/a	n/a	n/a	n/a
83.8585	0.5167	FIXCROSS	n/a	n/a	n/a	n/a	n/a	n/a	n/a	n/a
84.3752	0.7667	INK	19	Incongruent	żółty	yellow	czerwony	red	hit	n/a
85.1185	n/a	RESPONSE	n/a	n/a	n/a	n/a	n/a	n/a	n/a	red
85.1419	1.0167	ITI	n/a	n/a	n/a	n/a	n/a	n/a	n/a	n/a
86.1586	0.5167	FIXCROSS	n/a	n/a	n/a	n/a	n/a	n/a	n/a	n/a
86.6752	1.25	INK	20	Incongruent	zielony	green	czerwony	red	hit	n/a
87.8987	n/a	RESPONSE	n/a	n/a	n/a	n/a	n/a	n/a	n/a	red
87.9252	1.0167	ITI	n/a	n/a	n/a	n/a	n/a	n/a	n/a	n/a
88.9419	0.5167	FIXCROSS	n/a	n/a	n/a	n/a	n/a	n/a	n/a	n/a
89.4586	0.9333	INK	21	Neutral	xxxxxxx	xxxxxxx	żółty	yellow	hit	n/a
90.3594	n/a	RESPONSE	n/a	n/a	n/a	n/a	n/a	n/a	n/a	yellow
90.3919	1.0167	ITI	n/a	n/a	n/a	n/a	n/a	n/a	n/a	n/a
91.4086	0.5167	FIXCROSS	n/a	n/a	n/a	n/a	n/a	n/a	n/a	n/a
91.9253	0.8833	INK	22	Neutral	xxxxxxx	xxxxxxx	niebieski	blue	hit	n/a
92.7882	n/a	RESPONSE	n/a	n/a	n/a	n/a	n/a	n/a	n/a	blue
92.8086	1.0167	ITI	n/a	n/a	n/a	n/a	n/a	n/a	n/a	n/a
93.8253	0.5167	FIXCROSS	n/a	n/a	n/a	n/a	n/a	n/a	n/a	n/a
94.342	1.05	INK	23	Incongruent	czerwony	red	zielony	green	hit	n/a
95.3608	n/a	RESPONSE	n/a	n/a	n/a	n/a	n/a	n/a	n/a	green
95.392	1.0167	ITI	n/a	n/a	n/a	n/a	n/a	n/a	n/a	n/a
96.4086	0.5167	FIXCROSS	n/a	n/a	n/a	n/a	n/a	n/a	n/a	n/a
96.9253	0.75	INK	24	Incongruent	czerwony	red	żółty	yellow	hit	n/a
97.6458	n/a	RESPONSE	n/a	n/a	n/a	n/a	n/a	n/a	n/a	yellow
97.6753	1.0167	ITI	n/a	n/a	n/a	n/a	n/a	n/a	n/a	n/a
98.692	0.5167	FIXCROSS	n/a	n/a	n/a	n/a	n/a	n/a	n/a	n/a
99.2087	1.3167	INK	25	Incongruent	niebieski	blue	żółty	yellow	hit	n/a
100.5059	n/a	RESPONSE	n/a	n/a	n/a	n/a	n/a	n/a	n/a	yellow
100.5253	1.0167	ITI	n/a	n/a	n/a	n/a	n/a	n/a	n/a	n/a
101.542	0.5167	FIXCROSS	n/a	n/a	n/a	n/a	n/a	n/a	n/a	n/a
102.0587	1.0	INK	26	Incongruent	zielony	green	niebieski	blue	hit	n/a
103.0305	n/a	RESPONSE	n/a	n/a	n/a	n/a	n/a	n/a	n/a	blue
103.0587	1.0167	ITI	n/a	n/a	n/a	n/a	n/a	n/a	n/a	n/a
104.0754	0.5105	FIXCROSS	n/a	n/a	n/a	n/a	n/a	n/a	n/a	n/a
104.5858	0.7395	INK	27	Neutral	xxxxxxxx	xxxxxxxx	niebieski	blue	hit	n/a
105.2995	n/a	RESPONSE	n/a	n/a	n/a	n/a	n/a	n/a	n/a	blue
105.3254	1.0167	ITI	n/a	n/a	n/a	n/a	n/a	n/a	n/a	n/a
106.342	0.5167	FIXCROSS	n/a	n/a	n/a	n/a	n/a	n/a	n/a	n/a
106.8587	1.0833	INK	28	Neutral	xxxxxxxx	xxxxxxxx	zielony	green	hit	n/a
107.92	n/a	RESPONSE	n/a	n/a	n/a	n/a	n/a	n/a	n/a	green
107.9421	1.0167	ITI	n/a	n/a	n/a	n/a	n/a	n/a	n/a	n/a
108.9587	0.5167	FIXCROSS	n/a	n/a	n/a	n/a	n/a	n/a	n/a	n/a
109.4754	0.9	INK	29	Neutral	xxxxxxxxx	xxxxxxxxx	żółty	yellow	hit	n/a
110.3488	n/a	RESPONSE	n/a	n/a	n/a	n/a	n/a	n/a	n/a	yellow
110.3754	1.0167	ITI	n/a	n/a	n/a	n/a	n/a	n/a	n/a	n/a
111.3921	0.5167	FIXCROSS	n/a	n/a	n/a	n/a	n/a	n/a	n/a	n/a
111.9088	0.8	INK	30	Neutral	xxxxxxxxx	xxxxxxxxx	żółty	yellow	hit	n/a
112.6816	n/a	RESPONSE	n/a	n/a	n/a	n/a	n/a	n/a	n/a	yellow
112.7088	1.0167	ITI	n/a	n/a	n/a	n/a	n/a	n/a	n/a	n/a
113.7254	0.5167	FIXCROSS	n/a	n/a	n/a	n/a	n/a	n/a	n/a	n/a
114.2421	0.95	INK	31	Incongruent	zielony	green	żółty	yellow	hit	n/a
115.1743	n/a	RESPONSE	n/a	n/a	n/a	n/a	n/a	n/a	n/a	yellow
115.1921	1.0167	ITI	n/a	n/a	n/a	n/a	n/a	n/a	n/a	n/a
116.2088	0.5167	FIXCROSS	n/a	n/a	n/a	n/a	n/a	n/a	n/a	n/a
116.7255	0.9167	INK	32	Neutral	xxxxxxxxx	xxxxxxxxx	czerwony	red	hit	n/a
117.6191	n/a	RESPONSE	n/a	n/a	n/a	n/a	n/a	n/a	n/a	red
117.6421	1.0167	ITI	n/a	n/a	n/a	n/a	n/a	n/a	n/a	n/a
118.6588	0.5167	FIXCROSS	n/a	n/a	n/a	n/a	n/a	n/a	n/a	n/a
119.1755	1.8167	INK	33	Neutral	xxxxx	xxxxx	niebieski	blue	hit	n/a
120.9747	n/a	RESPONSE	n/a	n/a	n/a	n/a	n/a	n/a	n/a	blue
120.9922	1.0167	ITI	n/a	n/a	n/a	n/a	n/a	n/a	n/a	n/a
122.0088	0.5167	FIXCROSS	n/a	n/a	n/a	n/a	n/a	n/a	n/a	n/a
122.5255	0.7	INK	34	Incongruent	żółty	yellow	niebieski	blue	hit	n/a
123.1956	n/a	RESPONSE	n/a	n/a	n/a	n/a	n/a	n/a	n/a	blue
123.2255	1.0167	ITI	n/a	n/a	n/a	n/a	n/a	n/a	n/a	n/a
124.2422	0.5167	FIXCROSS	n/a	n/a	n/a	n/a	n/a	n/a	n/a	n/a
124.7589	0.8833	INK	35	Neutral	xxxxxxxxx	xxxxxxxxx	zielony	green	hit	n/a
125.6085	n/a	RESPONSE	n/a	n/a	n/a	n/a	n/a	n/a	n/a	green
125.6422	1.0167	ITI	n/a	n/a	n/a	n/a	n/a	n/a	n/a	n/a
126.6589	0.5167	FIXCROSS	n/a	n/a	n/a	n/a	n/a	n/a	n/a	n/a
127.1755	1.0833	INK	36	Incongruent	żółty	yellow	zielony	green	hit	n/a
128.2289	n/a	RESPONSE	n/a	n/a	n/a	n/a	n/a	n/a	n/a	green
128.2589	1.0167	ITI	n/a	n/a	n/a	n/a	n/a	n/a	n/a	n/a
129.2755	0.5167	FIXCROSS	n/a	n/a	n/a	n/a	n/a	n/a	n/a	n/a
129.7922	0.85	INK	37	Incongruent	niebieski	blue	żółty	yellow	hit	n/a
130.6098	n/a	RESPONSE	n/a	n/a	n/a	n/a	n/a	n/a	n/a	yellow
130.6422	1.0167	ITI	n/a	n/a	n/a	n/a	n/a	n/a	n/a	n/a
131.6589	0.5167	FIXCROSS	n/a	n/a	n/a	n/a	n/a	n/a	n/a	n/a
132.1756	0.4833	INK	38	Incongruent	czerwony	red	żółty	yellow	hit	n/a
132.6391	n/a	RESPONSE	n/a	n/a	n/a	n/a	n/a	n/a	n/a	yellow
132.6589	1.0167	ITI	n/a	n/a	n/a	n/a	n/a	n/a	n/a	n/a
133.6756	0.5167	FIXCROSS	n/a	n/a	n/a	n/a	n/a	n/a	n/a	n/a
134.1923	0.6667	INK	39	Neutral	xxxxx	xxxxx	czerwony	red	hit	n/a
134.8282	n/a	RESPONSE	n/a	n/a	n/a	n/a	n/a	n/a	n/a	red
134.8589	1.0167	ITI	n/a	n/a	n/a	n/a	n/a	n/a	n/a	n/a
135.8756	0.5167	FIXCROSS	n/a	n/a	n/a	n/a	n/a	n/a	n/a	n/a
136.3923	0.6167	INK	40	Neutral	xxxxxxx	xxxxxxx	czerwony	red	hit	n/a
136.9853	n/a	RESPONSE	n/a	n/a	n/a	n/a	n/a	n/a	n/a	red
137.0089	1.0167	ITI	n/a	n/a	n/a	n/a	n/a	n/a	n/a	n/a
138.0256	0.5167	FIXCROSS	n/a	n/a	n/a	n/a	n/a	n/a	n/a	n/a
138.5423	0.6667	INK	41	Incongruent	niebieski	blue	czerwony	red	hit	n/a
139.1904	n/a	RESPONSE	n/a	n/a	n/a	n/a	n/a	n/a	n/a	red
139.209	1.0167	ITI	n/a	n/a	n/a	n/a	n/a	n/a	n/a	n/a
140.2256	0.5167	FIXCROSS	n/a	n/a	n/a	n/a	n/a	n/a	n/a	n/a
140.7423	0.8167	INK	42	Incongruent	żółty	yellow	zielony	green	hit	n/a
141.5393	n/a	RESPONSE	n/a	n/a	n/a	n/a	n/a	n/a	n/a	green
141.559	1.0167	ITI	n/a	n/a	n/a	n/a	n/a	n/a	n/a	n/a
142.5757	0.5167	FIXCROSS	n/a	n/a	n/a	n/a	n/a	n/a	n/a	n/a
143.0923	0.6833	INK	43	Neutral	xxxxxxx	xxxxxxx	żółty	yellow	hit	n/a
143.7444	n/a	RESPONSE	n/a	n/a	n/a	n/a	n/a	n/a	n/a	yellow
143.7757	1.0167	ITI	n/a	n/a	n/a	n/a	n/a	n/a	n/a	n/a
144.7923	0.5167	FIXCROSS	n/a	n/a	n/a	n/a	n/a	n/a	n/a	n/a
145.309	0.8833	INK	44	Incongruent	zielony	green	czerwony	red	hit	n/a
146.1732	n/a	RESPONSE	n/a	n/a	n/a	n/a	n/a	n/a	n/a	red
146.1923	1.0167	ITI	n/a	n/a	n/a	n/a	n/a	n/a	n/a	n/a
147.209	0.5167	FIXCROSS	n/a	n/a	n/a	n/a	n/a	n/a	n/a	n/a
147.7257	0.85	INK	45	Neutral	xxxxxxxx	xxxxxxxx	żółty	yellow	hit	n/a
148.554	n/a	RESPONSE	n/a	n/a	n/a	n/a	n/a	n/a	n/a	yellow
148.5757	1.0167	ITI	n/a	n/a	n/a	n/a	n/a	n/a	n/a	n/a
149.5924	0.5167	FIXCROSS	n/a	n/a	n/a	n/a	n/a	n/a	n/a	n/a
150.109	0.9167	INK	46	Neutral	xxxxxxxxx	xxxxxxxxx	zielony	green	hit	n/a
150.9988	n/a	RESPONSE	n/a	n/a	n/a	n/a	n/a	n/a	n/a	green
151.0257	1.0167	ITI	n/a	n/a	n/a	n/a	n/a	n/a	n/a	n/a
152.0424	0.5167	FIXCROSS	n/a	n/a	n/a	n/a	n/a	n/a	n/a	n/a
152.5591	0.7833	INK	47	Incongruent	zielony	green	żółty	yellow	hit	n/a
153.3156	n/a	RESPONSE	n/a	n/a	n/a	n/a	n/a	n/a	n/a	yellow
153.3424	1.0167	ITI	n/a	n/a	n/a	n/a	n/a	n/a	n/a	n/a
154.3591	0.5167	FIXCROSS	n/a	n/a	n/a	n/a	n/a	n/a	n/a	n/a
154.8757	0.5333	INK	48	Neutral	xxxxxxxxx	xxxxxxxxx	żółty	yellow	hit	n/a
155.3769	n/a	RESPONSE	n/a	n/a	n/a	n/a	n/a	n/a	n/a	yellow
155.4091	1.0167	ITI	n/a	n/a	n/a	n/a	n/a	n/a	n/a	n/a
156.4257	0.5167	FIXCROSS	n/a	n/a	n/a	n/a	n/a	n/a	n/a	n/a
156.9424	0.7833	INK	49	Neutral	xxxxxxx	xxxxxxx	czerwony	red	hit	n/a
157.6938	n/a	RESPONSE	n/a	n/a	n/a	n/a	n/a	n/a	n/a	red
157.7258	1.0167	ITI	n/a	n/a	n/a	n/a	n/a	n/a	n/a	n/a
158.7424	0.5167	FIXCROSS	n/a	n/a	n/a	n/a	n/a	n/a	n/a	n/a
159.2591	1.6833	INK	50	Neutral	xxxxxxx	xxxxxxx	niebieski	blue	hit	n/a
160.9215	n/a	RESPONSE	n/a	n/a	n/a	n/a	n/a	n/a	n/a	blue
160.9424	1.0167	ITI	n/a	n/a	n/a	n/a	n/a	n/a	n/a	n/a
161.9591	0.5167	FIXCROSS	n/a	n/a	n/a	n/a	n/a	n/a	n/a	n/a
162.4758	0.6	INK	51	Incongruent	zielony	green	żółty	yellow	hit	n/a
163.0468	n/a	RESPONSE	n/a	n/a	n/a	n/a	n/a	n/a	n/a	yellow
163.0758	1.0167	ITI	n/a	n/a	n/a	n/a	n/a	n/a	n/a	n/a
164.0925	0.5167	FIXCROSS	n/a	n/a	n/a	n/a	n/a	n/a	n/a	n/a
164.6091	1.0333	INK	52	Incongruent	niebieski	blue	zielony	green	hit	n/a
165.6194	n/a	RESPONSE	n/a	n/a	n/a	n/a	n/a	n/a	n/a	green
165.6425	1.0167	ITI	n/a	n/a	n/a	n/a	n/a	n/a	n/a	n/a
166.6592	0.5167	FIXCROSS	n/a	n/a	n/a	n/a	n/a	n/a	n/a	n/a
167.1758	0.7333	INK	53	Incongruent	niebieski	blue	czerwony	red	hit	n/a
167.8884	n/a	RESPONSE	n/a	n/a	n/a	n/a	n/a	n/a	n/a	red
167.9092	1.0167	ITI	n/a	n/a	n/a	n/a	n/a	n/a	n/a	n/a
168.9258	0.5167	FIXCROSS	n/a	n/a	n/a	n/a	n/a	n/a	n/a	n/a
169.4425	1.0333	INK	54	Incongruent	żółty	yellow	zielony	green	hit	n/a
170.4449	n/a	RESPONSE	n/a	n/a	n/a	n/a	n/a	n/a	n/a	green
170.4758	1.0167	ITI	n/a	n/a	n/a	n/a	n/a	n/a	n/a	n/a
171.4925	0.5167	FIXCROSS	n/a	n/a	n/a	n/a	n/a	n/a	n/a	n/a
172.0092	0.6167	INK	55	Neutral	xxxxxxxxx	xxxxxxxxx	czerwony	red	hit	n/a
172.602	n/a	RESPONSE	n/a	n/a	n/a	n/a	n/a	n/a	n/a	red
172.6259	1.0167	ITI	n/a	n/a	n/a	n/a	n/a	n/a	n/a	n/a
173.6425	0.5167	FIXCROSS	n/a	n/a	n/a	n/a	n/a	n/a	n/a	n/a
174.1592	1.1	INK	56	Neutral	xxxxxxxxx	xxxxxxxxx	zielony	green	hit	n/a
175.2385	n/a	RESPONSE	n/a	n/a	n/a	n/a	n/a	n/a	n/a	green
175.2592	1.0167	ITI	n/a	n/a	n/a	n/a	n/a	n/a	n/a	n/a
176.2759	0.5167	FIXCROSS	n/a	n/a	n/a	n/a	n/a	n/a	n/a	n/a
176.7926	0.7167	INK	57	Neutral	xxxxxxx	xxxxxxx	żółty	yellow	hit	n/a
177.4755	n/a	RESPONSE	n/a	n/a	n/a	n/a	n/a	n/a	n/a	yellow
177.5092	1.0167	ITI	n/a	n/a	n/a	n/a	n/a	n/a	n/a	n/a
178.5259	0.5167	FIXCROSS	n/a	n/a	n/a	n/a	n/a	n/a	n/a	n/a
179.0426	0.9833	INK	58	Neutral	xxxxx	xxxxx	niebieski	blue	hit	n/a
180.0002	n/a	RESPONSE	n/a	n/a	n/a	n/a	n/a	n/a	n/a	blue
180.0259	1.0167	ITI	n/a	n/a	n/a	n/a	n/a	n/a	n/a	n/a
181.0426	0.5167	FIXCROSS	n/a	n/a	n/a	n/a	n/a	n/a	n/a	n/a
181.5593	0.7	INK	59	Neutral	xxxxx	xxxxx	zielony	green	hit	n/a
182.2372	n/a	RESPONSE	n/a	n/a	n/a	n/a	n/a	n/a	n/a	green
182.2593	1.0167	ITI	n/a	n/a	n/a	n/a	n/a	n/a	n/a	n/a
183.2759	0.5167	FIXCROSS	n/a	n/a	n/a	n/a	n/a	n/a	n/a	n/a
183.7926	0.6833	INK	60	Neutral	xxxxxxxx	xxxxxxxx	niebieski	blue	hit	n/a
184.4583	n/a	RESPONSE	n/a	n/a	n/a	n/a	n/a	n/a	n/a	blue
184.4759	1.0167	ITI	n/a	n/a	n/a	n/a	n/a	n/a	n/a	n/a
185.4926	0.5167	FIXCROSS	n/a	n/a	n/a	n/a	n/a	n/a	n/a	n/a
186.0093	0.7	INK	61	Neutral	xxxxxxxx	xxxxxxxx	żółty	yellow	hit	n/a
186.6794	n/a	RESPONSE	n/a	n/a	n/a	n/a	n/a	n/a	n/a	yellow
186.7093	1.0167	ITI	n/a	n/a	n/a	n/a	n/a	n/a	n/a	n/a
187.726	0.5167	FIXCROSS	n/a	n/a	n/a	n/a	n/a	n/a	n/a	n/a
188.2426	0.95	INK	62	Incongruent	niebieski	blue	żółty	yellow	hit	n/a
189.172	n/a	RESPONSE	n/a	n/a	n/a	n/a	n/a	n/a	n/a	yellow
189.1926	1.0167	ITI	n/a	n/a	n/a	n/a	n/a	n/a	n/a	n/a
190.2093	0.5167	FIXCROSS	n/a	n/a	n/a	n/a	n/a	n/a	n/a	n/a
190.726	0.7833	INK	63	Incongruent	zielony	green	niebieski	blue	hit	n/a
191.4889	n/a	RESPONSE	n/a	n/a	n/a	n/a	n/a	n/a	n/a	blue
191.5093	1.0167	ITI	n/a	n/a	n/a	n/a	n/a	n/a	n/a	n/a
192.526	0.5167	FIXCROSS	n/a	n/a	n/a	n/a	n/a	n/a	n/a	n/a
193.0427	0.7167	INK	64	Incongruent	żółty	yellow	niebieski	blue	hit	n/a
193.7259	n/a	RESPONSE	n/a	n/a	n/a	n/a	n/a	n/a	n/a	blue
193.7593	1.0167	ITI	n/a	n/a	n/a	n/a	n/a	n/a	n/a	n/a
194.776	0.5167	FIXCROSS	n/a	n/a	n/a	n/a	n/a	n/a	n/a	n/a
195.2927	0.8	INK	65	Neutral	xxxxxxxx	xxxxxxxx	niebieski	blue	hit	n/a
196.0747	n/a	RESPONSE	n/a	n/a	n/a	n/a	n/a	n/a	n/a	blue
196.0927	1.0167	ITI	n/a	n/a	n/a	n/a	n/a	n/a	n/a	n/a
197.1094	0.5167	FIXCROSS	n/a	n/a	n/a	n/a	n/a	n/a	n/a	n/a
197.626	0.6	INK	66	Neutral	xxxxx	xxxxx	czerwony	red	hit	n/a
198.2	n/a	RESPONSE	n/a	n/a	n/a	n/a	n/a	n/a	n/a	red
198.226	1.0167	ITI	n/a	n/a	n/a	n/a	n/a	n/a	n/a	n/a
199.2427	0.5167	FIXCROSS	n/a	n/a	n/a	n/a	n/a	n/a	n/a	n/a
199.7594	0.6333	INK	67	Incongruent	żółty	yellow	czerwony	red	hit	n/a
200.373	n/a	RESPONSE	n/a	n/a	n/a	n/a	n/a	n/a	n/a	red
200.3927	1.0167	ITI	n/a	n/a	n/a	n/a	n/a	n/a	n/a	n/a
201.4094	0.5167	FIXCROSS	n/a	n/a	n/a	n/a	n/a	n/a	n/a	n/a
201.9261	0.5333	INK	68	Incongruent	zielony	green	niebieski	blue	hit	n/a
202.4344	n/a	RESPONSE	n/a	n/a	n/a	n/a	n/a	n/a	n/a	blue
202.4594	1.0167	ITI	n/a	n/a	n/a	n/a	n/a	n/a	n/a	n/a
203.4761	0.5167	FIXCROSS	n/a	n/a	n/a	n/a	n/a	n/a	n/a	n/a
203.9928	0.6333	INK	69	Neutral	xxxxx	xxxxx	zielony	green	hit	n/a
204.6075	n/a	RESPONSE	n/a	n/a	n/a	n/a	n/a	n/a	n/a	green
204.6261	1.0167	ITI	n/a	n/a	n/a	n/a	n/a	n/a	n/a	n/a
205.6428	0.5167	FIXCROSS	n/a	n/a	n/a	n/a	n/a	n/a	n/a	n/a
206.1594	0.6833	INK	70	Incongruent	zielony	green	czerwony	red	hit	n/a
206.8126	n/a	RESPONSE	n/a	n/a	n/a	n/a	n/a	n/a	n/a	red
206.8428	1.0167	ITI	n/a	n/a	n/a	n/a	n/a	n/a	n/a	n/a
207.8595	0.5167	FIXCROSS	n/a	n/a	n/a	n/a	n/a	n/a	n/a	n/a
208.3761	0.8	INK	71	Neutral	xxxxx	xxxxx	niebieski	blue	hit	n/a
209.1455	n/a	RESPONSE	n/a	n/a	n/a	n/a	n/a	n/a	n/a	blue
209.1761	1.0167	ITI	n/a	n/a	n/a	n/a	n/a	n/a	n/a	n/a
210.1928	0.5167	FIXCROSS	n/a	n/a	n/a	n/a	n/a	n/a	n/a	n/a
210.7095	0.6667	INK	72	Incongruent	czerwony	red	zielony	green	hit	n/a
211.3506	n/a	RESPONSE	n/a	n/a	n/a	n/a	n/a	n/a	n/a	green
211.3761	1.0833	ITI	n/a	n/a	n/a	n/a	n/a	n/a	n/a	n/a
220.3307	n/a	RESPONSE	n/a	n/a	n/a	n/a	n/a	n/a	n/a	n/a
220.3929	1.0167	ITI	n/a	n/a	n/a	n/a	n/a	n/a	n/a	n/a
221.4095	0.5167	FIXCROSS	n/a	n/a	n/a	n/a	n/a	n/a	n/a	n/a
221.9262	0.9167	T_COLOR_NAME	1	Incongruent	niebieski	blue	czerwony	red	hit	n/a
222.8073	n/a	RESPONSE	n/a	n/a	n/a	n/a	n/a	n/a	n/a	blue
222.8429	0.5167	FEEDBACK	n/a	n/a	n/a	n/a	n/a	n/a	n/a	n/a
223.3596	1.0167	ITI	n/a	n/a	n/a	n/a	n/a	n/a	n/a	n/a
224.3762	0.5167	FIXCROSS	n/a	n/a	n/a	n/a	n/a	n/a	n/a	n/a
224.8929	0.6833	T_COLOR_NAME	2	Incongruent	żółty	yellow	czerwony	red	hit	n/a
225.5398	n/a	RESPONSE	n/a	n/a	n/a	n/a	n/a	n/a	n/a	yellow
225.5762	0.5167	FEEDBACK	n/a	n/a	n/a	n/a	n/a	n/a	n/a	n/a
226.0929	1.0167	ITI	n/a	n/a	n/a	n/a	n/a	n/a	n/a	n/a
227.1096	0.5167	FIXCROSS	n/a	n/a	n/a	n/a	n/a	n/a	n/a	n/a
227.6262	1.4167	T_COLOR_NAME	3	Neutral	niebieski	blue	Neutral	Neutral	hit	n/a
229.0072	n/a	RESPONSE	n/a	n/a	n/a	n/a	n/a	n/a	n/a	blue
229.0429	0.5167	FEEDBACK	n/a	n/a	n/a	n/a	n/a	n/a	n/a	n/a
229.5596	1.0167	ITI	n/a	n/a	n/a	n/a	n/a	n/a	n/a	n/a
230.5763	0.5167	FIXCROSS	n/a	n/a	n/a	n/a	n/a	n/a	n/a	n/a
231.0929	1.1167	T_COLOR_NAME	4	Neutral	zielony	green	Neutral	Neutral	hit	n/a
232.187	n/a	RESPONSE	n/a	n/a	n/a	n/a	n/a	n/a	n/a	green
232.2096	0.5167	FEEDBACK	n/a	n/a	n/a	n/a	n/a	n/a	n/a	n/a
232.7263	1.0167	ITI	n/a	n/a	n/a	n/a	n/a	n/a	n/a	n/a
233.743	0.5167	FIXCROSS	n/a	n/a	n/a	n/a	n/a	n/a	n/a	n/a
234.2596	1.45	T_COLOR_NAME	5	Incongruent	czerwony	red	zielony	green	hit	n/a
235.6863	n/a	RESPONSE	n/a	n/a	n/a	n/a	n/a	n/a	n/a	red
235.7096	0.5167	FEEDBACK	n/a	n/a	n/a	n/a	n/a	n/a	n/a	n/a
236.2263	1.0167	ITI	n/a	n/a	n/a	n/a	n/a	n/a	n/a	n/a
237.243	0.5167	FIXCROSS	n/a	n/a	n/a	n/a	n/a	n/a	n/a	n/a
237.7597	0.65	T_COLOR_NAME	6	Neutral	zielony	green	Neutral	Neutral	incorrect	n/a
238.3868	n/a	RESPONSE	n/a	n/a	n/a	n/a	n/a	n/a	n/a	yellow
238.4097	0.5167	FEEDBACK	n/a	n/a	n/a	n/a	n/a	n/a	n/a	n/a
238.9263	1.0167	ITI	n/a	n/a	n/a	n/a	n/a	n/a	n/a	n/a
239.943	0.5167	FIXCROSS	n/a	n/a	n/a	n/a	n/a	n/a	n/a	n/a
240.4597	1.7334	T_COLOR_NAME	7	Incongruent	zielony	green	niebieski	blue	hit	n/a
242.1737	n/a	RESPONSE	n/a	n/a	n/a	n/a	n/a	n/a	n/a	green
242.193	0.5167	FEEDBACK	n/a	n/a	n/a	n/a	n/a	n/a	n/a	n/a
242.7097	1.0167	ITI	n/a	n/a	n/a	n/a	n/a	n/a	n/a	n/a
243.7264	0.5167	FIXCROSS	n/a	n/a	n/a	n/a	n/a	n/a	n/a	n/a
244.243	1.5167	T_COLOR_NAME	8	Incongruent	czerwony	red	niebieski	blue	hit	n/a
245.737	n/a	RESPONSE	n/a	n/a	n/a	n/a	n/a	n/a	n/a	red
245.7597	0.5167	FEEDBACK	n/a	n/a	n/a	n/a	n/a	n/a	n/a	n/a
246.2764	1.0167	ITI	n/a	n/a	n/a	n/a	n/a	n/a	n/a	n/a
247.2931	0.5167	FIXCROSS	n/a	n/a	n/a	n/a	n/a	n/a	n/a	n/a
247.8097	1.1	T_COLOR_NAME	9	Incongruent	żółty	yellow	zielony	green	hit	n/a
248.8848	n/a	RESPONSE	n/a	n/a	n/a	n/a	n/a	n/a	n/a	yellow
248.9097	0.5167	FEEDBACK	n/a	n/a	n/a	n/a	n/a	n/a	n/a	n/a
249.4264	1.0167	ITI	n/a	n/a	n/a	n/a	n/a	n/a	n/a	n/a
250.4431	0.5167	FIXCROSS	n/a	n/a	n/a	n/a	n/a	n/a	n/a	n/a
250.9597	0.7	T_COLOR_NAME	10	Incongruent	żółty	yellow	niebieski	blue	hit	n/a
251.6331	n/a	RESPONSE	n/a	n/a	n/a	n/a	n/a	n/a	n/a	yellow
251.6598	0.5167	FEEDBACK	n/a	n/a	n/a	n/a	n/a	n/a	n/a	n/a
252.1764	1.0167	ITI	n/a	n/a	n/a	n/a	n/a	n/a	n/a	n/a
253.1931	0.5167	FIXCROSS	n/a	n/a	n/a	n/a	n/a	n/a	n/a	n/a
253.7098	0.75	T_COLOR_NAME	11	Neutral	niebieski	blue	Neutral	Neutral	hit	n/a
254.4294	n/a	RESPONSE	n/a	n/a	n/a	n/a	n/a	n/a	n/a	blue
254.4598	0.5167	FEEDBACK	n/a	n/a	n/a	n/a	n/a	n/a	n/a	n/a
254.9764	1.0167	ITI	n/a	n/a	n/a	n/a	n/a	n/a	n/a	n/a
255.9931	0.5167	FIXCROSS	n/a	n/a	n/a	n/a	n/a	n/a	n/a	n/a
256.5098	0.6833	T_COLOR_NAME	12	Neutral	żółty	yellow	Neutral	Neutral	hit	n/a
257.1619	n/a	RESPONSE	n/a	n/a	n/a	n/a	n/a	n/a	n/a	yellow
257.1931	0.5167	FEEDBACK	n/a	n/a	n/a	n/a	n/a	n/a	n/a	n/a
257.7098	1.0333	ITI	n/a	n/a	n/a	n/a	n/a	n/a	n/a	n/a
260.805	n/a	RESPONSE	n/a	n/a	n/a	n/a	n/a	n/a	n/a	n/a
260.8598	1.0167	ITI	n/a	n/a	n/a	n/a	n/a	n/a	n/a	n/a
261.8765	0.5167	FIXCROSS	n/a	n/a	n/a	n/a	n/a	n/a	n/a	n/a
262.3932	1.15	COLOR_NAME	1	Neutral	niebieski	blue	Neutral	Neutral	hit	n/a
263.5213	n/a	RESPONSE	n/a	n/a	n/a	n/a	n/a	n/a	n/a	blue
263.5432	1.0167	ITI	n/a	n/a	n/a	n/a	n/a	n/a	n/a	n/a
264.5598	0.5167	FIXCROSS	n/a	n/a	n/a	n/a	n/a	n/a	n/a	n/a
265.0765	0.8	COLOR_NAME	2	Incongruent	czerwony	red	żółty	yellow	hit	n/a
265.8543	n/a	RESPONSE	n/a	n/a	n/a	n/a	n/a	n/a	n/a	red
265.8765	1.0167	ITI	n/a	n/a	n/a	n/a	n/a	n/a	n/a	n/a
266.8932	0.5167	FIXCROSS	n/a	n/a	n/a	n/a	n/a	n/a	n/a	n/a
267.4099	0.95	COLOR_NAME	3	Incongruent	żółty	yellow	czerwony	red	hit	n/a
268.331	n/a	RESPONSE	n/a	n/a	n/a	n/a	n/a	n/a	n/a	yellow
268.3599	1.0167	ITI	n/a	n/a	n/a	n/a	n/a	n/a	n/a	n/a
269.3765	0.5167	FIXCROSS	n/a	n/a	n/a	n/a	n/a	n/a	n/a	n/a
269.8932	0.5333	COLOR_NAME	4	Neutral	żółty	yellow	Neutral	Neutral	hit	n/a
270.4083	n/a	RESPONSE	n/a	n/a	n/a	n/a	n/a	n/a	n/a	yellow
270.4266	1.0167	ITI	n/a	n/a	n/a	n/a	n/a	n/a	n/a	n/a
271.4432	0.5167	FIXCROSS	n/a	n/a	n/a	n/a	n/a	n/a	n/a	n/a
271.9599	1.9667	COLOR_NAME	5	Incongruent	niebieski	blue	zielony	green	hit	n/a
273.9077	n/a	RESPONSE	n/a	n/a	n/a	n/a	n/a	n/a	n/a	blue
273.9266	1.0167	ITI	n/a	n/a	n/a	n/a	n/a	n/a	n/a	n/a
274.9433	0.5167	FIXCROSS	n/a	n/a	n/a	n/a	n/a	n/a	n/a	n/a
275.4599	1.1667	COLOR_NAME	6	Incongruent	czerwony	red	zielony	green	hit	n/a
276.6081	n/a	RESPONSE	n/a	n/a	n/a	n/a	n/a	n/a	n/a	red
276.6266	1.0167	ITI	n/a	n/a	n/a	n/a	n/a	n/a	n/a	n/a
277.6433	0.5167	FIXCROSS	n/a	n/a	n/a	n/a	n/a	n/a	n/a	n/a
278.1599	0.5667	COLOR_NAME	7	Neutral	czerwony	red	Neutral	Neutral	hit	n/a
278.7013	n/a	RESPONSE	n/a	n/a	n/a	n/a	n/a	n/a	n/a	red
278.7266	1.0167	ITI	n/a	n/a	n/a	n/a	n/a	n/a	n/a	n/a
279.7433	0.5167	FIXCROSS	n/a	n/a	n/a	n/a	n/a	n/a	n/a	n/a
280.26	1.1167	COLOR_NAME	8	Neutral	zielony	green	Neutral	Neutral	hit	n/a
281.3537	n/a	RESPONSE	n/a	n/a	n/a	n/a	n/a	n/a	n/a	green
281.3766	1.0167	ITI	n/a	n/a	n/a	n/a	n/a	n/a	n/a	n/a
282.3933	0.5167	FIXCROSS	n/a	n/a	n/a	n/a	n/a	n/a	n/a	n/a
282.91	1.0833	COLOR_NAME	9	Incongruent	niebieski	blue	żółty	yellow	hit	n/a
283.9743	n/a	RESPONSE	n/a	n/a	n/a	n/a	n/a	n/a	n/a	blue
283.9933	1.0167	ITI	n/a	n/a	n/a	n/a	n/a	n/a	n/a	n/a
285.01	0.5167	FIXCROSS	n/a	n/a	n/a	n/a	n/a	n/a	n/a	n/a
285.5267	0.6333	COLOR_NAME	10	Neutral	czerwony	red	Neutral	Neutral	hit	n/a
286.1316	n/a	RESPONSE	n/a	n/a	n/a	n/a	n/a	n/a	n/a	red
286.16	1.0167	ITI	n/a	n/a	n/a	n/a	n/a	n/a	n/a	n/a
287.1767	0.5167	FIXCROSS	n/a	n/a	n/a	n/a	n/a	n/a	n/a	n/a
287.6933	0.9667	COLOR_NAME	11	Incongruent	niebieski	blue	czerwony	red	hit	n/a
288.6242	n/a	RESPONSE	n/a	n/a	n/a	n/a	n/a	n/a	n/a	blue
288.66	1.0167	ITI	n/a	n/a	n/a	n/a	n/a	n/a	n/a	n/a
289.6767	0.5167	FIXCROSS	n/a	n/a	n/a	n/a	n/a	n/a	n/a	n/a
290.1934	0.55	COLOR_NAME	12	Incongruent	zielony	green	niebieski	blue	hit	n/a
290.7174	n/a	RESPONSE	n/a	n/a	n/a	n/a	n/a	n/a	n/a	green
290.7434	1.0167	ITI	n/a	n/a	n/a	n/a	n/a	n/a	n/a	n/a
291.76	0.5167	FIXCROSS	n/a	n/a	n/a	n/a	n/a	n/a	n/a	n/a
292.2767	0.5833	COLOR_NAME	13	Incongruent	żółty	yellow	zielony	green	hit	n/a
292.8426	n/a	RESPONSE	n/a	n/a	n/a	n/a	n/a	n/a	n/a	yellow
292.86	1.0167	ITI	n/a	n/a	n/a	n/a	n/a	n/a	n/a	n/a
293.8767	0.5167	FIXCROSS	n/a	n/a	n/a	n/a	n/a	n/a	n/a	n/a
294.3934	0.7667	COLOR_NAME	14	Incongruent	zielony	green	niebieski	blue	hit	n/a
295.1276	n/a	RESPONSE	n/a	n/a	n/a	n/a	n/a	n/a	n/a	green
295.1601	1.0167	ITI	n/a	n/a	n/a	n/a	n/a	n/a	n/a	n/a
296.1767	0.5167	FIXCROSS	n/a	n/a	n/a	n/a	n/a	n/a	n/a	n/a
296.6934	0.9167	COLOR_NAME	15	Neutral	zielony	green	Neutral	Neutral	hit	n/a
297.5883	n/a	RESPONSE	n/a	n/a	n/a	n/a	n/a	n/a	n/a	green
297.6101	1.0167	ITI	n/a	n/a	n/a	n/a	n/a	n/a	n/a	n/a
298.6268	0.5167	FIXCROSS	n/a	n/a	n/a	n/a	n/a	n/a	n/a	n/a
299.1434	0.6667	COLOR_NAME	16	Incongruent	żółty	yellow	niebieski	blue	hit	n/a
299.7774	n/a	RESPONSE	n/a	n/a	n/a	n/a	n/a	n/a	n/a	yellow
299.8101	1.0167	ITI	n/a	n/a	n/a	n/a	n/a	n/a	n/a	n/a
300.8268	0.5167	FIXCROSS	n/a	n/a	n/a	n/a	n/a	n/a	n/a	n/a
301.3434	0.7667	COLOR_NAME	17	Neutral	czerwony	red	Neutral	Neutral	hit	n/a
302.0784	n/a	RESPONSE	n/a	n/a	n/a	n/a	n/a	n/a	n/a	red
302.1101	1.0167	ITI	n/a	n/a	n/a	n/a	n/a	n/a	n/a	n/a
303.1268	0.5167	FIXCROSS	n/a	n/a	n/a	n/a	n/a	n/a	n/a	n/a
303.6435	0.8667	COLOR_NAME	18	Incongruent	zielony	green	niebieski	blue	hit	n/a
304.4912	n/a	RESPONSE	n/a	n/a	n/a	n/a	n/a	n/a	n/a	green
304.5101	1.0167	ITI	n/a	n/a	n/a	n/a	n/a	n/a	n/a	n/a
305.5268	0.5167	FIXCROSS	n/a	n/a	n/a	n/a	n/a	n/a	n/a	n/a
306.0435	0.9333	COLOR_NAME	19	Incongruent	czerwony	red	niebieski	blue	hit	n/a
306.9519	n/a	RESPONSE	n/a	n/a	n/a	n/a	n/a	n/a	n/a	red
306.9768	1.0167	ITI	n/a	n/a	n/a	n/a	n/a	n/a	n/a	n/a
307.9935	0.5167	FIXCROSS	n/a	n/a	n/a	n/a	n/a	n/a	n/a	n/a
308.5102	1.0667	COLOR_NAME	20	Incongruent	niebieski	blue	zielony	green	hit	n/a
309.5565	n/a	RESPONSE	n/a	n/a	n/a	n/a	n/a	n/a	n/a	blue
309.5768	1.0167	ITI	n/a	n/a	n/a	n/a	n/a	n/a	n/a	n/a
310.5935	0.5167	FIXCROSS	n/a	n/a	n/a	n/a	n/a	n/a	n/a	n/a
311.1102	0.8	COLOR_NAME	21	Neutral	czerwony	red	Neutral	Neutral	hit	n/a
311.8893	n/a	RESPONSE	n/a	n/a	n/a	n/a	n/a	n/a	n/a	red
311.9102	1.0167	ITI	n/a	n/a	n/a	n/a	n/a	n/a	n/a	n/a
312.9269	0.5167	FIXCROSS	n/a	n/a	n/a	n/a	n/a	n/a	n/a	n/a
313.4435	0.7333	COLOR_NAME	22	Neutral	żółty	yellow	Neutral	Neutral	hit	n/a
314.1424	n/a	RESPONSE	n/a	n/a	n/a	n/a	n/a	n/a	n/a	yellow
314.1769	1.0167	ITI	n/a	n/a	n/a	n/a	n/a	n/a	n/a	n/a
315.1935	0.5167	FIXCROSS	n/a	n/a	n/a	n/a	n/a	n/a	n/a	n/a
315.7102	0.75	COLOR_NAME	23	Neutral	żółty	yellow	Neutral	Neutral	hit	n/a
316.4273	n/a	RESPONSE	n/a	n/a	n/a	n/a	n/a	n/a	n/a	yellow
316.4602	1.0167	ITI	n/a	n/a	n/a	n/a	n/a	n/a	n/a	n/a
317.4769	0.5167	FIXCROSS	n/a	n/a	n/a	n/a	n/a	n/a	n/a	n/a
317.9936	0.9833	COLOR_NAME	24	Neutral	zielony	green	Neutral	Neutral	hit	n/a
318.952	n/a	RESPONSE	n/a	n/a	n/a	n/a	n/a	n/a	n/a	green
318.9769	1.0167	ITI	n/a	n/a	n/a	n/a	n/a	n/a	n/a	n/a
319.9936	0.5167	FIXCROSS	n/a	n/a	n/a	n/a	n/a	n/a	n/a	n/a
320.5102	0.6667	COLOR_NAME	25	Incongruent	niebieski	blue	żółty	yellow	incorrect	n/a
321.1571	n/a	RESPONSE	n/a	n/a	n/a	n/a	n/a	n/a	n/a	red
321.1769	1.0167	ITI	n/a	n/a	n/a	n/a	n/a	n/a	n/a	n/a
322.1936	0.5167	FIXCROSS	n/a	n/a	n/a	n/a	n/a	n/a	n/a	n/a
322.7103	0.8667	COLOR_NAME	26	Incongruent	czerwony	red	żółty	yellow	hit	n/a
323.5539	n/a	RESPONSE	n/a	n/a	n/a	n/a	n/a	n/a	n/a	red
323.5769	1.0167	ITI	n/a	n/a	n/a	n/a	n/a	n/a	n/a	n/a
324.5936	0.5167	FIXCROSS	n/a	n/a	n/a	n/a	n/a	n/a	n/a	n/a
325.1103	0.8167	COLOR_NAME	27	Incongruent	zielony	green	czerwony	red	hit	n/a
325.9028	n/a	RESPONSE	n/a	n/a	n/a	n/a	n/a	n/a	n/a	green
325.927	1.0167	ITI	n/a	n/a	n/a	n/a	n/a	n/a	n/a	n/a
326.9436	0.5167	FIXCROSS	n/a	n/a	n/a	n/a	n/a	n/a	n/a	n/a
327.4603	0.6833	COLOR_NAME	28	Neutral	zielony	green	Neutral	Neutral	hit	n/a
328.1239	n/a	RESPONSE	n/a	n/a	n/a	n/a	n/a	n/a	n/a	green
328.1436	1.0167	ITI	n/a	n/a	n/a	n/a	n/a	n/a	n/a	n/a
329.1603	0.5167	FIXCROSS	n/a	n/a	n/a	n/a	n/a	n/a	n/a	n/a
329.677	0.6333	COLOR_NAME	29	Incongruent	czerwony	red	żółty	yellow	hit	n/a
330.281	n/a	RESPONSE	n/a	n/a	n/a	n/a	n/a	n/a	n/a	red
330.3103	1.0167	ITI	n/a	n/a	n/a	n/a	n/a	n/a	n/a	n/a
331.327	0.5167	FIXCROSS	n/a	n/a	n/a	n/a	n/a	n/a	n/a	n/a
331.8437	0.9333	COLOR_NAME	30	Incongruent	zielony	green	czerwony	red	hit	n/a
332.7578	n/a	RESPONSE	n/a	n/a	n/a	n/a	n/a	n/a	n/a	green
332.777	1.0167	ITI	n/a	n/a	n/a	n/a	n/a	n/a	n/a	n/a
333.7937	0.5167	FIXCROSS	n/a	n/a	n/a	n/a	n/a	n/a	n/a	n/a
334.3103	0.75	COLOR_NAME	31	Incongruent	żółty	yellow	niebieski	blue	hit	n/a
335.0268	n/a	RESPONSE	n/a	n/a	n/a	n/a	n/a	n/a	n/a	yellow
335.0603	1.0167	ITI	n/a	n/a	n/a	n/a	n/a	n/a	n/a	n/a
336.077	0.5167	FIXCROSS	n/a	n/a	n/a	n/a	n/a	n/a	n/a	n/a
336.5937	0.6	COLOR_NAME	32	Incongruent	żółty	yellow	czerwony	red	hit	n/a
337.168	n/a	RESPONSE	n/a	n/a	n/a	n/a	n/a	n/a	n/a	yellow
337.1937	1.0167	ITI	n/a	n/a	n/a	n/a	n/a	n/a	n/a	n/a
338.2104	0.5167	FIXCROSS	n/a	n/a	n/a	n/a	n/a	n/a	n/a	n/a
338.727	0.5333	COLOR_NAME	33	Incongruent	żółty	yellow	zielony	green	hit	n/a
339.2291	n/a	RESPONSE	n/a	n/a	n/a	n/a	n/a	n/a	n/a	yellow
339.2604	1.0167	ITI	n/a	n/a	n/a	n/a	n/a	n/a	n/a	n/a
340.277	0.5167	FIXCROSS	n/a	n/a	n/a	n/a	n/a	n/a	n/a	n/a
340.7937	1.0333	COLOR_NAME	34	Incongruent	zielony	green	czerwony	red	hit	n/a
341.8019	n/a	RESPONSE	n/a	n/a	n/a	n/a	n/a	n/a	n/a	green
341.8271	1.0167	ITI	n/a	n/a	n/a	n/a	n/a	n/a	n/a	n/a
342.8437	0.5167	FIXCROSS	n/a	n/a	n/a	n/a	n/a	n/a	n/a	n/a
343.3604	0.85	COLOR_NAME	35	Incongruent	żółty	yellow	zielony	green	hit	n/a
344.1826	n/a	RESPONSE	n/a	n/a	n/a	n/a	n/a	n/a	n/a	yellow
344.2104	1.0167	ITI	n/a	n/a	n/a	n/a	n/a	n/a	n/a	n/a
345.2271	0.5167	FIXCROSS	n/a	n/a	n/a	n/a	n/a	n/a	n/a	n/a
345.7437	0.5833	COLOR_NAME	36	Neutral	żółty	yellow	Neutral	Neutral	hit	n/a
346.3078	n/a	RESPONSE	n/a	n/a	n/a	n/a	n/a	n/a	n/a	yellow
346.3271	1.0167	ITI	n/a	n/a	n/a	n/a	n/a	n/a	n/a	n/a
347.3438	0.5167	FIXCROSS	n/a	n/a	n/a	n/a	n/a	n/a	n/a	n/a
347.8604	0.9167	COLOR_NAME	37	Neutral	zielony	green	Neutral	Neutral	hit	n/a
348.7527	n/a	RESPONSE	n/a	n/a	n/a	n/a	n/a	n/a	n/a	green
348.7771	1.0167	ITI	n/a	n/a	n/a	n/a	n/a	n/a	n/a	n/a
349.7938	0.5167	FIXCROSS	n/a	n/a	n/a	n/a	n/a	n/a	n/a	n/a
350.3104	0.8667	COLOR_NAME	38	Neutral	zielony	green	Neutral	Neutral	hit	n/a
351.1495	n/a	RESPONSE	n/a	n/a	n/a	n/a	n/a	n/a	n/a	green
351.1771	1.0167	ITI	n/a	n/a	n/a	n/a	n/a	n/a	n/a	n/a
352.1938	0.5167	FIXCROSS	n/a	n/a	n/a	n/a	n/a	n/a	n/a	n/a
352.7105	0.5	COLOR_NAME	39	Neutral	zielony	green	Neutral	Neutral	hit	n/a
353.1787	n/a	RESPONSE	n/a	n/a	n/a	n/a	n/a	n/a	n/a	green
353.2105	1.0167	ITI	n/a	n/a	n/a	n/a	n/a	n/a	n/a	n/a
354.2271	0.5167	FIXCROSS	n/a	n/a	n/a	n/a	n/a	n/a	n/a	n/a
354.7438	0.8333	COLOR_NAME	40	Neutral	niebieski	blue	Neutral	Neutral	hit	n/a
355.5437	n/a	RESPONSE	n/a	n/a	n/a	n/a	n/a	n/a	n/a	blue
355.5772	1.0167	ITI	n/a	n/a	n/a	n/a	n/a	n/a	n/a	n/a
356.5938	0.5167	FIXCROSS	n/a	n/a	n/a	n/a	n/a	n/a	n/a	n/a
357.1105	1.75	COLOR_NAME	41	Neutral	żółty	yellow	Neutral	Neutral	hit	n/a
358.8354	n/a	RESPONSE	n/a	n/a	n/a	n/a	n/a	n/a	n/a	yellow
358.8605	1.0167	ITI	n/a	n/a	n/a	n/a	n/a	n/a	n/a	n/a
359.8772	0.5167	FIXCROSS	n/a	n/a	n/a	n/a	n/a	n/a	n/a	n/a
360.3938	0.8	COLOR_NAME	42	Neutral	czerwony	red	Neutral	Neutral	hit	n/a
361.1683	n/a	RESPONSE	n/a	n/a	n/a	n/a	n/a	n/a	n/a	red
361.1939	1.0167	ITI	n/a	n/a	n/a	n/a	n/a	n/a	n/a	n/a
362.2105	0.5167	FIXCROSS	n/a	n/a	n/a	n/a	n/a	n/a	n/a	n/a
362.7272	1.3833	COLOR_NAME	43	Incongruent	zielony	green	żółty	yellow	hit	n/a
364.0765	n/a	RESPONSE	n/a	n/a	n/a	n/a	n/a	n/a	n/a	green
364.1105	1.0167	ITI	n/a	n/a	n/a	n/a	n/a	n/a	n/a	n/a
365.1272	0.5167	FIXCROSS	n/a	n/a	n/a	n/a	n/a	n/a	n/a	n/a
365.6439	1.7667	COLOR_NAME	44	Incongruent	żółty	yellow	czerwony	red	hit	n/a
367.3841	n/a	RESPONSE	n/a	n/a	n/a	n/a	n/a	n/a	n/a	yellow
367.4106	1.0167	ITI	n/a	n/a	n/a	n/a	n/a	n/a	n/a	n/a
368.4272	0.5167	FIXCROSS	n/a	n/a	n/a	n/a	n/a	n/a	n/a	n/a
368.9439	0.95	COLOR_NAME	45	Incongruent	zielony	green	żółty	yellow	hit	n/a
369.8608	n/a	RESPONSE	n/a	n/a	n/a	n/a	n/a	n/a	n/a	green
369.8939	1.0167	ITI	n/a	n/a	n/a	n/a	n/a	n/a	n/a	n/a
370.9106	0.5167	FIXCROSS	n/a	n/a	n/a	n/a	n/a	n/a	n/a	n/a
371.4273	0.7667	COLOR_NAME	46	Incongruent	niebieski	blue	czerwony	red	hit	n/a
372.1618	n/a	RESPONSE	n/a	n/a	n/a	n/a	n/a	n/a	n/a	blue
372.1939	1.0167	ITI	n/a	n/a	n/a	n/a	n/a	n/a	n/a	n/a
373.2106	0.5167	FIXCROSS	n/a	n/a	n/a	n/a	n/a	n/a	n/a	n/a
373.7273	1.3167	COLOR_NAME	47	Neutral	żółty	yellow	Neutral	Neutral	hit	n/a
375.022	n/a	RESPONSE	n/a	n/a	n/a	n/a	n/a	n/a	n/a	yellow
375.0439	1.0167	ITI	n/a	n/a	n/a	n/a	n/a	n/a	n/a	n/a
376.0606	0.5167	FIXCROSS	n/a	n/a	n/a	n/a	n/a	n/a	n/a	n/a
376.5773	0.6333	COLOR_NAME	48	Neutral	czerwony	red	Neutral	Neutral	hit	n/a
377.1791	n/a	RESPONSE	n/a	n/a	n/a	n/a	n/a	n/a	n/a	red
377.2106	1.0167	ITI	n/a	n/a	n/a	n/a	n/a	n/a	n/a	n/a
378.2273	0.5167	FIXCROSS	n/a	n/a	n/a	n/a	n/a	n/a	n/a	n/a
378.744	1.2667	COLOR_NAME	49	Incongruent	zielony	green	żółty	yellow	hit	n/a
379.9914	n/a	RESPONSE	n/a	n/a	n/a	n/a	n/a	n/a	n/a	green
380.0106	1.0167	ITI	n/a	n/a	n/a	n/a	n/a	n/a	n/a	n/a
381.0273	0.5167	FIXCROSS	n/a	n/a	n/a	n/a	n/a	n/a	n/a	n/a
381.544	0.7167	COLOR_NAME	50	Neutral	zielony	green	Neutral	Neutral	hit	n/a
382.2284	n/a	RESPONSE	n/a	n/a	n/a	n/a	n/a	n/a	n/a	green
382.2607	1.0167	ITI	n/a	n/a	n/a	n/a	n/a	n/a	n/a	n/a
383.2773	0.5167	FIXCROSS	n/a	n/a	n/a	n/a	n/a	n/a	n/a	n/a
383.794	0.7167	COLOR_NAME	51	Neutral	czerwony	red	Neutral	Neutral	hit	n/a
384.4815	n/a	RESPONSE	n/a	n/a	n/a	n/a	n/a	n/a	n/a	red
384.5107	1.0167	ITI	n/a	n/a	n/a	n/a	n/a	n/a	n/a	n/a
385.5274	0.5167	FIXCROSS	n/a	n/a	n/a	n/a	n/a	n/a	n/a	n/a
386.044	0.9167	COLOR_NAME	52	Neutral	żółty	yellow	Neutral	Neutral	hit	n/a
386.9422	n/a	RESPONSE	n/a	n/a	n/a	n/a	n/a	n/a	n/a	yellow
386.9607	1.0167	ITI	n/a	n/a	n/a	n/a	n/a	n/a	n/a	n/a
387.9774	0.5167	FIXCROSS	n/a	n/a	n/a	n/a	n/a	n/a	n/a	n/a
388.494	0.6333	COLOR_NAME	53	Incongruent	żółty	yellow	niebieski	blue	hit	n/a
389.0993	n/a	RESPONSE	n/a	n/a	n/a	n/a	n/a	n/a	n/a	yellow
389.1274	1.0167	ITI	n/a	n/a	n/a	n/a	n/a	n/a	n/a	n/a
390.1441	0.5167	FIXCROSS	n/a	n/a	n/a	n/a	n/a	n/a	n/a	n/a
390.6607	0.8	COLOR_NAME	54	Neutral	niebieski	blue	Neutral	Neutral	hit	n/a
391.4323	n/a	RESPONSE	n/a	n/a	n/a	n/a	n/a	n/a	n/a	blue
391.4607	1.0167	ITI	n/a	n/a	n/a	n/a	n/a	n/a	n/a	n/a
392.4774	0.5167	FIXCROSS	n/a	n/a	n/a	n/a	n/a	n/a	n/a	n/a
392.9941	0.7333	COLOR_NAME	55	Incongruent	niebieski	blue	czerwony	red	hit	n/a
393.7013	n/a	RESPONSE	n/a	n/a	n/a	n/a	n/a	n/a	n/a	blue
393.7274	1.0167	ITI	n/a	n/a	n/a	n/a	n/a	n/a	n/a	n/a
394.7441	0.5167	FIXCROSS	n/a	n/a	n/a	n/a	n/a	n/a	n/a	n/a
395.2608	0.7667	COLOR_NAME	56	Incongruent	czerwony	red	zielony	green	hit	n/a
396.0022	n/a	RESPONSE	n/a	n/a	n/a	n/a	n/a	n/a	n/a	red
396.0274	1.0167	ITI	n/a	n/a	n/a	n/a	n/a	n/a	n/a	n/a
397.0441	0.5167	FIXCROSS	n/a	n/a	n/a	n/a	n/a	n/a	n/a	n/a
397.5608	0.6	COLOR_NAME	57	Neutral	niebieski	blue	Neutral	Neutral	hit	n/a
398.1273	n/a	RESPONSE	n/a	n/a	n/a	n/a	n/a	n/a	n/a	blue
398.1608	1.0167	ITI	n/a	n/a	n/a	n/a	n/a	n/a	n/a	n/a
399.1774	0.5167	FIXCROSS	n/a	n/a	n/a	n/a	n/a	n/a	n/a	n/a
399.6941	0.6333	COLOR_NAME	58	Incongruent	czerwony	red	niebieski	blue	hit	n/a
400.3006	n/a	RESPONSE	n/a	n/a	n/a	n/a	n/a	n/a	n/a	red
400.3275	1.0167	ITI	n/a	n/a	n/a	n/a	n/a	n/a	n/a	n/a
401.3441	0.5167	FIXCROSS	n/a	n/a	n/a	n/a	n/a	n/a	n/a	n/a
401.8608	0.65	COLOR_NAME	59	Neutral	żółty	yellow	Neutral	Neutral	hit	n/a
402.4896	n/a	RESPONSE	n/a	n/a	n/a	n/a	n/a	n/a	n/a	yellow
402.5108	1.0167	ITI	n/a	n/a	n/a	n/a	n/a	n/a	n/a	n/a
403.5275	0.5167	FIXCROSS	n/a	n/a	n/a	n/a	n/a	n/a	n/a	n/a
404.0442	0.6167	COLOR_NAME	60	Neutral	niebieski	blue	Neutral	Neutral	hit	n/a
404.6308	n/a	RESPONSE	n/a	n/a	n/a	n/a	n/a	n/a	n/a	blue
404.6608	1.0167	ITI	n/a	n/a	n/a	n/a	n/a	n/a	n/a	n/a
405.6775	0.5167	FIXCROSS	n/a	n/a	n/a	n/a	n/a	n/a	n/a	n/a
406.1942	0.8333	COLOR_NAME	61	Incongruent	czerwony	red	zielony	green	hit	n/a
406.9956	n/a	RESPONSE	n/a	n/a	n/a	n/a	n/a	n/a	n/a	red
407.0275	1.0167	ITI	n/a	n/a	n/a	n/a	n/a	n/a	n/a	n/a
408.0442	0.5167	FIXCROSS	n/a	n/a	n/a	n/a	n/a	n/a	n/a	n/a
408.5608	0.65	COLOR_NAME	62	Neutral	żółty	yellow	Neutral	Neutral	hit	n/a
409.1847	n/a	RESPONSE	n/a	n/a	n/a	n/a	n/a	n/a	n/a	yellow
409.2109	1.0167	ITI	n/a	n/a	n/a	n/a	n/a	n/a	n/a	n/a
410.2275	0.5167	FIXCROSS	n/a	n/a	n/a	n/a	n/a	n/a	n/a	n/a
410.7442	0.8833	COLOR_NAME	63	Neutral	niebieski	blue	Neutral	Neutral	hit	n/a
411.5976	n/a	RESPONSE	n/a	n/a	n/a	n/a	n/a	n/a	n/a	blue
411.6275	1.0167	ITI	n/a	n/a	n/a	n/a	n/a	n/a	n/a	n/a
412.6442	0.5167	FIXCROSS	n/a	n/a	n/a	n/a	n/a	n/a	n/a	n/a
413.1609	0.5333	COLOR_NAME	64	Neutral	czerwony	red	Neutral	Neutral	hit	n/a
413.6747	n/a	RESPONSE	n/a	n/a	n/a	n/a	n/a	n/a	n/a	red
413.6942	1.0167	ITI	n/a	n/a	n/a	n/a	n/a	n/a	n/a	n/a
414.7109	0.5167	FIXCROSS	n/a	n/a	n/a	n/a	n/a	n/a	n/a	n/a
415.2276	0.7667	COLOR_NAME	65	Neutral	niebieski	blue	Neutral	Neutral	hit	n/a
415.9758	n/a	RESPONSE	n/a	n/a	n/a	n/a	n/a	n/a	n/a	blue
415.9942	1.0167	ITI	n/a	n/a	n/a	n/a	n/a	n/a	n/a	n/a
417.0109	0.5167	FIXCROSS	n/a	n/a	n/a	n/a	n/a	n/a	n/a	n/a
417.5276	0.7667	COLOR_NAME	66	Neutral	czerwony	red	Neutral	Neutral	hit	n/a
418.2606	n/a	RESPONSE	n/a	n/a	n/a	n/a	n/a	n/a	n/a	red
418.2943	1.0167	ITI	n/a	n/a	n/a	n/a	n/a	n/a	n/a	n/a
419.3109	0.5167	FIXCROSS	n/a	n/a	n/a	n/a	n/a	n/a	n/a	n/a
419.8276	0.9333	COLOR_NAME	67	Neutral	niebieski	blue	Neutral	Neutral	hit	n/a
420.7373	n/a	RESPONSE	n/a	n/a	n/a	n/a	n/a	n/a	n/a	blue
420.7609	1.0167	ITI	n/a	n/a	n/a	n/a	n/a	n/a	n/a	n/a
421.7776	0.5167	FIXCROSS	n/a	n/a	n/a	n/a	n/a	n/a	n/a	n/a
422.2943	0.6	COLOR_NAME	68	Incongruent	czerwony	red	niebieski	blue	incorrect	n/a
422.8624	n/a	RESPONSE	n/a	n/a	n/a	n/a	n/a	n/a	n/a	blue
422.8943	1.0167	ITI	n/a	n/a	n/a	n/a	n/a	n/a	n/a	n/a
423.911	0.5167	FIXCROSS	n/a	n/a	n/a	n/a	n/a	n/a	n/a	n/a
424.4276	1.95	COLOR_NAME	69	Neutral	niebieski	blue	Neutral	Neutral	hit	n/a
426.3459	n/a	RESPONSE	n/a	n/a	n/a	n/a	n/a	n/a	n/a	blue
426.3776	1.0167	ITI	n/a	n/a	n/a	n/a	n/a	n/a	n/a	n/a
427.3943	0.5167	FIXCROSS	n/a	n/a	n/a	n/a	n/a	n/a	n/a	n/a
427.911	0.75	COLOR_NAME	70	Incongruent	niebieski	blue	zielony	green	hit	n/a
428.6307	n/a	RESPONSE	n/a	n/a	n/a	n/a	n/a	n/a	n/a	blue
428.661	1.0167	ITI	n/a	n/a	n/a	n/a	n/a	n/a	n/a	n/a
429.6777	0.5167	FIXCROSS	n/a	n/a	n/a	n/a	n/a	n/a	n/a	n/a
430.1943	0.85	COLOR_NAME	71	Neutral	zielony	green	Neutral	Neutral	hit	n/a
431.0116	n/a	RESPONSE	n/a	n/a	n/a	n/a	n/a	n/a	n/a	green
431.0443	1.0167	ITI	n/a	n/a	n/a	n/a	n/a	n/a	n/a	n/a
432.061	0.5167	FIXCROSS	n/a	n/a	n/a	n/a	n/a	n/a	n/a	n/a
432.5777	0.8333	COLOR_NAME	72	Incongruent	niebieski	blue	żółty	yellow	hit	n/a
433.3923	n/a	RESPONSE	n/a	n/a	n/a	n/a	n/a	n/a	n/a	blue
433.411	1.0333	ITI	n/a	n/a	n/a	n/a	n/a	n/a	n/a	n/a
437.0674	n/a	RESPONSE	n/a	n/a	n/a	n/a	n/a	n/a	n/a	n/a
