onset	duration	trial_type	melody_number	melody_part	key	sound	action
0.0	14.08	CUE_START	n/a	n/a	n/a	n/a	n/a
14.081	7.759	FIXCROSS	n/a	n/a	n/a	n/a	n/a
21.84	6.324	CUE_LISTEN	M1	1	n/a	n/a	n/a
28.164	7.758	FIXCROSS	n/a	n/a	n/a	n/a	n/a
35.922	6.317	CUE_PLAYBACK_RIGHT_HAND	M1	1	n/a	n/a	n/a
36.577	n/a	RESPONSE	M1	1	12	C4	press
37.025	n/a	RESPONSE	M1	1	14	D4	press
37.227	n/a	RESPONSE	M1	1	12	C4	release
37.49	n/a	RESPONSE	M1	1	16	E4	press
37.609	n/a	RESPONSE	M1	1	14	D4	release
37.99	n/a	RESPONSE	M1	1	12	C4	press
38.112	n/a	RESPONSE	M1	1	16	E4	release
38.373	n/a	RESPONSE	M1	1	12	C4	release
38.544	n/a	RESPONSE	M1	1	12	C4	press
39.025	n/a	RESPONSE	M1	1	14	D4	press
39.178	n/a	RESPONSE	M1	1	12	C4	release
39.48	n/a	RESPONSE	M1	1	16	E4	press
39.584	n/a	RESPONSE	M1	1	14	D4	release
39.975	n/a	RESPONSE	M1	1	12	C4	press
40.143	n/a	RESPONSE	M1	1	16	E4	release
40.542	n/a	RESPONSE	M1	1	12	C4	release
40.779	n/a	RESPONSE	M1	1	16	E4	press
41.202	n/a	RESPONSE	M1	1	17	F4	press
41.28	n/a	RESPONSE	M1	1	16	E4	release
41.642	n/a	RESPONSE	M1	1	19	G4	press
41.682	n/a	RESPONSE	M1	1	17	F4	release
42.239	7.758	FIXCROSS	n/a	n/a	n/a	n/a	n/a
42.527	n/a	RESPONSE	M1	1	16	E4	press
42.547	n/a	RESPONSE	M1	1	19	G4	release
42.945	n/a	RESPONSE	M1	1	17	F4	press
43.017	n/a	RESPONSE	M1	1	16	E4	release
43.38	n/a	RESPONSE	M1	1	19	G4	press
43.42	n/a	RESPONSE	M1	1	17	F4	release
44.054	n/a	RESPONSE	M1	1	19	G4	release
49.997	6.317	CUE_LISTEN	        M1	2	n/a	n/a	n/a
56.314	7.758	FIXCROSS	n/a	n/a	n/a	n/a	n/a
64.072	6.325	CUE_PLAYBACK_RIGHT_HAND	        M1	2	n/a	n/a	n/a
64.618	n/a	RESPONSE	        M1	2	19	G4	press
64.898	n/a	RESPONSE	        M1	2	21	A4	press
64.999	n/a	RESPONSE	        M1	2	19	G4	release
65.19	n/a	RESPONSE	        M1	2	19	G4	press
65.292	n/a	RESPONSE	        M1	2	21	A4	release
65.493	n/a	RESPONSE	        M1	2	17	F4	press
65.674	n/a	RESPONSE	        M1	2	19	G4	release
65.785	n/a	RESPONSE	        M1	2	16	E4	press
65.867	n/a	RESPONSE	        M1	2	17	F4	release
66.329	n/a	RESPONSE	        M1	2	12	C4	press
66.409	n/a	RESPONSE	        M1	2	16	E4	release
66.67	n/a	RESPONSE	        M1	2	12	C4	release
66.892	n/a	RESPONSE	        M1	2	19	G4	press
67.183	n/a	RESPONSE	        M1	2	21	A4	press
67.264	n/a	RESPONSE	        M1	2	19	G4	release
67.485	n/a	RESPONSE	        M1	2	19	G4	press
67.587	n/a	RESPONSE	        M1	2	21	A4	release
67.758	n/a	RESPONSE	        M1	2	17	F4	press
68.039	n/a	RESPONSE	        M1	2	16	E4	press
68.08	n/a	RESPONSE	        M1	2	17	F4	release
68.592	n/a	RESPONSE	        M1	2	12	C4	press
68.664	n/a	RESPONSE	        M1	2	19	G4	release
68.694	n/a	RESPONSE	        M1	2	16	E4	release
69.085	n/a	RESPONSE	        M1	2	12	C4	release
69.564	n/a	RESPONSE	        M1	2	12	C4	press
70.158	n/a	RESPONSE	        M1	2	07	G3	press
70.18	n/a	RESPONSE	        M1	2	12	C4	release
70.397	7.758	FIXCROSS	n/a	n/a	n/a	n/a	n/a
70.58	n/a	RESPONSE	        M1	2	07	G3	release
70.785	n/a	RESPONSE	        M1	2	12	C4	press
70.914	n/a	RESPONSE	        M1	2	12	C4	release
70.973	n/a	RESPONSE	        M1	2	12	C4	press
71.46	n/a	RESPONSE	        M1	2	12	C4	release
71.464	n/a	RESPONSE	        M1	2	07	G3	press
71.925	n/a	RESPONSE	        M1	2	12	C4	press
71.978	n/a	RESPONSE	        M1	2	07	G3	release
72.554	n/a	RESPONSE	        M1	2	12	C4	release
72.838	n/a	RESPONSE	        M1	2	12	C4	press
73.339	n/a	RESPONSE	        M1	2	07	G3	press
73.42	n/a	RESPONSE	        M1	2	12	C4	release
73.92	n/a	RESPONSE	        M1	2	07	G3	release
74.002	n/a	RESPONSE	        M1	2	12	C4	press
74.963	n/a	RESPONSE	        M1	2	12	C4	release
78.156	6.317	CUE_LISTEN	        M7	1	n/a	n/a	n/a
84.472	7.758	FIXCROSS	n/a	n/a	n/a	n/a	n/a
87.302	n/a	RESPONSE	        M7	1	04	E3	press
87.635	n/a	RESPONSE	        M7	1	05	F3	press
88.065	n/a	RESPONSE	        M7	1	04	E3	release
88.097	n/a	RESPONSE	        M7	1	05	F3	release
92.231	6.325	CUE_PLAYBACK_BOTH_HANDS	        M7	1	n/a	n/a	n/a
93.012	n/a	RESPONSE	        M7	1	21	A4	press
93.014	n/a	RESPONSE	        M7	1	05	F3	press
93.434	n/a	RESPONSE	        M7	1	21	A4	release
93.465	n/a	RESPONSE	        M7	1	09	A3	press
93.487	n/a	RESPONSE	        M7	1	21	A4	press
93.849	n/a	RESPONSE	        M7	1	21	A4	release
93.859	n/a	RESPONSE	        M7	1	05	F3	release
93.93	n/a	RESPONSE	        M7	1	04	E3	press
93.942	n/a	RESPONSE	        M7	1	21	A4	press
93.983	n/a	RESPONSE	        M7	1	09	A3	release
94.404	n/a	RESPONSE	        M7	1	09	A3	press
94.705	n/a	RESPONSE	        M7	1	21	A4	release
94.737	n/a	RESPONSE	        M7	1	04	E3	release
94.828	n/a	RESPONSE	        M7	1	02	D3	press
94.83	n/a	RESPONSE	        M7	1	21	A4	press
94.88	n/a	RESPONSE	        M7	1	09	A3	release
95.253	n/a	RESPONSE	        M7	1	09	A3	press
95.263	n/a	RESPONSE	        M7	1	21	A4	release
95.294	n/a	RESPONSE	        M7	1	21	A4	press
95.545	n/a	RESPONSE	        M7	1	02	D3	release
95.627	n/a	RESPONSE	        M7	1	21	A4	release
95.678	n/a	RESPONSE	        M7	1	00	C3	press
95.699	n/a	RESPONSE	        M7	1	21	A4	press
95.73	n/a	RESPONSE	        M7	1	09	A3	release
96.114	n/a	RESPONSE	        M7	1	09	A3	press
96.263	n/a	RESPONSE	        M7	1	00	C3	release
96.474	n/a	RESPONSE	        M7	1	21	A4	release
96.547	n/a	RESPONSE	        M7	1	05	F3	press
96.557	n/a	RESPONSE	        M7	1	21	A4	press
96.599	n/a	RESPONSE	        M7	1	09	A3	release
96.99	n/a	RESPONSE	        M7	1	24	C5	press
97.0	n/a	RESPONSE	        M7	1	09	A3	press
97.124	n/a	RESPONSE	        M7	1	05	F3	release
97.483	n/a	RESPONSE	        M7	1	04	E3	press
97.494	n/a	RESPONSE	        M7	1	17	F4	press
97.555	n/a	RESPONSE	        M7	1	09	A3	release
97.558	n/a	RESPONSE	        M7	1	21	A4	release
97.67	n/a	RESPONSE	        M7	1	24	C5	release
97.909	n/a	RESPONSE	        M7	1	19	G4	press
97.92	n/a	RESPONSE	        M7	1	09	A3	press
97.992	n/a	RESPONSE	        M7	1	04	E3	release
98.025	n/a	RESPONSE	        M7	1	17	F4	release
98.354	n/a	RESPONSE	        M7	1	21	A4	press
98.365	n/a	RESPONSE	        M7	1	02	D3	press
98.427	n/a	RESPONSE	        M7	1	19	G4	release
98.429	n/a	RESPONSE	        M7	1	09	A3	release
98.556	7.758	FIXCROSS	n/a	n/a	n/a	n/a	n/a
98.789	n/a	RESPONSE	        M7	1	09	A3	press
98.95	n/a	RESPONSE	        M7	1	02	D3	release
99.212	n/a	RESPONSE	        M7	1	00	C3	press
99.263	n/a	RESPONSE	        M7	1	09	A3	release
99.655	n/a	RESPONSE	        M7	1	09	A3	press
99.805	n/a	RESPONSE	        M7	1	00	C3	release
100.455	n/a	RESPONSE	        M7	1	09	A3	release
105.973	n/a	RESPONSE	        M7	1	21	A4	release
106.314	6.317	CUE_LISTEN	        M7	2	n/a	n/a	n/a
112.631	7.758	FIXCROSS	n/a	n/a	n/a	n/a	n/a
120.389	6.317	CUE_PLAYBACK_BOTH_HANDS	        M7	2	n/a	n/a	n/a
120.99	n/a	RESPONSE	        M7	2	10	A#3	press
121.007	n/a	RESPONSE	        M7	2	22	A#4	press
121.455	n/a	RESPONSE	        M7	2	04	E3	press
121.537	n/a	RESPONSE	        M7	2	10	A#3	release
121.92	n/a	RESPONSE	        M7	2	22	A#4	release
122.185	n/a	RESPONSE	        M7	2	04	E3	release
122.475	n/a	RESPONSE	        M7	2	07	G3	press
122.48	n/a	RESPONSE	        M7	2	22	A#4	press
122.839	n/a	RESPONSE	        M7	2	22	A#4	release
122.934	n/a	RESPONSE	        M7	2	22	A#4	press
122.955	n/a	RESPONSE	        M7	2	10	A#3	press
123.257	n/a	RESPONSE	        M7	2	07	G3	release
123.259	n/a	RESPONSE	        M7	2	22	A#4	release
123.312	n/a	RESPONSE	        M7	2	10	A#3	release
123.36	n/a	RESPONSE	        M7	2	04	E3	press
123.374	n/a	RESPONSE	        M7	2	22	A#4	press
123.733	n/a	RESPONSE	        M7	2	22	A#4	release
123.814	n/a	RESPONSE	        M7	2	22	A#4	press
123.825	n/a	RESPONSE	        M7	2	10	A#3	press
123.917	n/a	RESPONSE	        M7	2	04	E3	release
124.098	n/a	RESPONSE	        M7	2	22	A#4	release
124.199	n/a	RESPONSE	        M7	2	10	A#3	release
124.24	n/a	RESPONSE	        M7	2	22	A#4	press
124.252	n/a	RESPONSE	        M7	2	05	F3	press
124.713	n/a	RESPONSE	        M7	2	09	A3	press
124.715	n/a	RESPONSE	        M7	2	21	A4	press
124.808	n/a	RESPONSE	        M7	2	05	F3	release
124.817	n/a	RESPONSE	        M7	2	22	A#4	release
125.108	n/a	RESPONSE	        M7	2	21	A4	release
125.152	n/a	RESPONSE	        M7	2	00	C3	press
125.18	n/a	RESPONSE	        M7	2	21	A4	press
125.222	n/a	RESPONSE	        M7	2	09	A3	release
125.533	n/a	RESPONSE	        M7	2	21	A4	release
125.614	n/a	RESPONSE	        M7	2	09	A3	press
125.617	n/a	RESPONSE	        M7	2	21	A4	press
125.657	n/a	RESPONSE	        M7	2	00	C3	release
125.998	n/a	RESPONSE	        M7	2	00	C3	press
126.019	n/a	RESPONSE	        M7	2	24	C5	press
126.03	n/a	RESPONSE	        M7	2	09	A3	release
126.043	n/a	RESPONSE	        M7	2	21	A4	release
126.353	n/a	RESPONSE	        M7	2	24	C5	release
126.464	n/a	RESPONSE	        M7	2	07	G3	press
126.467	n/a	RESPONSE	        M7	2	24	C5	press
126.558	n/a	RESPONSE	        M7	2	00	C3	release
126.706	7.758	FIXCROSS	n/a	n/a	n/a	n/a	n/a
126.92	n/a	RESPONSE	        M7	2	04	E3	press
126.929	n/a	RESPONSE	        M7	2	22	A#4	press
126.952	n/a	RESPONSE	        M7	2	07	G3	release
126.982	n/a	RESPONSE	        M7	2	24	C5	release
127.363	n/a	RESPONSE	        M7	2	19	G4	press
127.365	n/a	RESPONSE	        M7	2	07	G3	press
127.435	n/a	RESPONSE	        M7	2	04	E3	release
127.438	n/a	RESPONSE	        M7	2	22	A#4	release
127.788	n/a	RESPONSE	        M7	2	05	F3	press
127.79	n/a	RESPONSE	        M7	2	17	F4	press
127.81	n/a	RESPONSE	        M7	2	07	G3	release
127.862	n/a	RESPONSE	        M7	2	19	G4	release
128.503	n/a	RESPONSE	        M7	2	05	F3	release
128.544	n/a	RESPONSE	        M7	2	17	F4	release
134.464	6.325	CUE_LISTEN	        M5	1	n/a	n/a	n/a
138.452	n/a	RESPONSE	        M5	1	07	G3	press
140.789	7.758	FIXCROSS	n/a	n/a	n/a	n/a	n/a
141.229	n/a	RESPONSE	        M5	1	07	G3	release
148.548	6.317	CUE_PLAYBACK_BOTH_HANDS	        M5	1	n/a	n/a	n/a
149.123	n/a	RESPONSE	        M5	1	19	G4	press
149.143	n/a	RESPONSE	        M5	1	07	G3	press
149.145	n/a	RESPONSE	        M5	1	00	C3	press
149.148	n/a	RESPONSE	        M5	1	04	E3	press
149.772	n/a	RESPONSE	        M5	1	16	E4	press
149.869	n/a	RESPONSE	        M5	1	19	G4	release
150.244	n/a	RESPONSE	        M5	1	16	E4	release
150.379	n/a	RESPONSE	        M5	1	16	E4	press
150.594	n/a	RESPONSE	        M5	1	00	C3	release
150.677	n/a	RESPONSE	        M5	1	04	E3	release
150.697	n/a	RESPONSE	        M5	1	16	E4	release
150.923	n/a	RESPONSE	        M5	1	02	D3	press
150.929	n/a	RESPONSE	        M5	1	05	F3	press
150.932	n/a	RESPONSE	        M5	1	17	F4	press
151.557	n/a	RESPONSE	        M5	1	14	D4	press
151.649	n/a	RESPONSE	        M5	1	17	F4	release
152.004	n/a	RESPONSE	        M5	1	14	D4	release
152.16	n/a	RESPONSE	        M5	1	14	D4	press
152.387	n/a	RESPONSE	        M5	1	02	D3	release
152.48	n/a	RESPONSE	        M5	1	07	G3	release
152.483	n/a	RESPONSE	        M5	1	05	F3	release
152.564	n/a	RESPONSE	        M5	1	14	D4	release
152.77	n/a	RESPONSE	        M5	1	07	G3	press
152.773	n/a	RESPONSE	        M5	1	04	E3	press
152.775	n/a	RESPONSE	        M5	1	12	C4	press
152.785	n/a	RESPONSE	        M5	1	00	C3	press
153.089	n/a	RESPONSE	        M5	1	16	E4	press
153.21	n/a	RESPONSE	        M5	1	12	C4	release
153.372	n/a	RESPONSE	        M5	1	19	G4	press
153.463	n/a	RESPONSE	        M5	1	16	E4	release
154.234	n/a	RESPONSE	        M5	1	19	G4	release
154.265	n/a	RESPONSE	        M5	1	04	E3	release
154.269	n/a	RESPONSE	        M5	1	00	C3	release
154.498	n/a	RESPONSE	        M5	1	07	G3	release
154.864	7.758	FIXCROSS	n/a	n/a	n/a	n/a	n/a
162.623	6.317	CUE_LISTEN	        M5	2	n/a	n/a	n/a
168.939	7.758	FIXCROSS	n/a	n/a	n/a	n/a	n/a
176.698	6.325	CUE_PLAYBACK_BOTH_HANDS	        M5	2	n/a	n/a	n/a
177.377	n/a	RESPONSE	        M5	2	19	G4	press
177.385	n/a	RESPONSE	        M5	2	07	G3	press
177.389	n/a	RESPONSE	        M5	2	04	E3	press
177.398	n/a	RESPONSE	        M5	2	00	C3	press
177.969	n/a	RESPONSE	        M5	2	16	E4	press
178.013	n/a	RESPONSE	        M5	2	19	G4	release
178.342	n/a	RESPONSE	        M5	2	16	E4	release
178.493	n/a	RESPONSE	        M5	2	16	E4	press
178.664	n/a	RESPONSE	        M5	2	00	C3	release
178.785	n/a	RESPONSE	        M5	2	16	E4	release
178.788	n/a	RESPONSE	        M5	2	04	E3	release
178.898	n/a	RESPONSE	        M5	2	07	G3	release
179.029	n/a	RESPONSE	        M5	2	07	G3	press
179.032	n/a	RESPONSE	        M5	2	02	D3	press
179.034	n/a	RESPONSE	        M5	2	05	F3	press
179.043	n/a	RESPONSE	        M5	2	17	F4	press
179.615	n/a	RESPONSE	        M5	2	14	D4	press
179.707	n/a	RESPONSE	        M5	2	17	F4	release
180.02	n/a	RESPONSE	        M5	2	14	D4	release
180.154	n/a	RESPONSE	        M5	2	14	D4	press
180.389	n/a	RESPONSE	        M5	2	02	D3	release
180.408	n/a	RESPONSE	        M5	2	05	F3	release
180.449	n/a	RESPONSE	        M5	2	07	G3	release
180.507	n/a	RESPONSE	        M5	2	14	D4	release
180.679	n/a	RESPONSE	        M5	2	07	G3	press
180.683	n/a	RESPONSE	        M5	2	04	E3	press
180.693	n/a	RESPONSE	        M5	2	00	C3	press
180.695	n/a	RESPONSE	        M5	2	12	C4	press
181.028	n/a	RESPONSE	        M5	2	16	E4	press
181.113	n/a	RESPONSE	        M5	2	12	C4	release
181.314	n/a	RESPONSE	        M5	2	12	C4	press
181.382	n/a	RESPONSE	        M5	2	16	E4	release
182.192	n/a	RESPONSE	        M5	2	12	C4	release
182.21	n/a	RESPONSE	        M5	2	00	C3	release
182.235	n/a	RESPONSE	        M5	2	04	E3	release
182.297	n/a	RESPONSE	        M5	2	07	G3	release
183.023	7.758	FIXCROSS	n/a	n/a	n/a	n/a	n/a
190.781	6.317	CUE_LISTEN	        M3	1	n/a	n/a	n/a
197.098	7.758	FIXCROSS	n/a	n/a	n/a	n/a	n/a
204.856	6.317	CUE_PLAYBACK_RIGHT_HAND	        M3	1	n/a	n/a	n/a
205.356	n/a	RESPONSE	        M3	1	22	A#4	press
205.819	n/a	RESPONSE	        M3	1	22	A#4	release
205.99	n/a	RESPONSE	        M3	1	22	A#4	press
206.6	n/a	RESPONSE	        M3	1	21	A4	press
206.712	n/a	RESPONSE	        M3	1	22	A#4	release
207.203	n/a	RESPONSE	        M3	1	19	G4	press
207.314	n/a	RESPONSE	        M3	1	21	A4	release
207.805	n/a	RESPONSE	        M3	1	21	A4	press
207.879	n/a	RESPONSE	        M3	1	19	G4	release
208.508	n/a	RESPONSE	        M3	1	16	E4	press
208.729	n/a	RESPONSE	        M3	1	21	A4	release
209.033	n/a	RESPONSE	        M3	1	16	E4	release
209.182	n/a	RESPONSE	        M3	1	14	D4	press
210.039	n/a	RESPONSE	        M3	1	14	D4	release
210.315	n/a	RESPONSE	        M3	1	14	D4	press
211.05	n/a	RESPONSE	        M3	1	14	D4	release
211.154	n/a	RESPONSE	        M3	1	19	G4	press
211.173	7.758	FIXCROSS	n/a	n/a	n/a	n/a	n/a
211.999	n/a	RESPONSE	        M3	1	07	G3	press
212.063	n/a	RESPONSE	        M3	1	19	G4	release
212.387	n/a	RESPONSE	        M3	1	09	A3	press
212.55	n/a	RESPONSE	        M3	1	07	G3	release
212.749	n/a	RESPONSE	        M3	1	10	A#3	press
212.782	n/a	RESPONSE	        M3	1	09	A3	release
213.088	n/a	RESPONSE	        M3	1	12	C4	press
213.158	n/a	RESPONSE	        M3	1	10	A#3	release
213.489	n/a	RESPONSE	        M3	1	14	D4	press
213.553	n/a	RESPONSE	        M3	1	12	C4	release
214.852	n/a	RESPONSE	        M3	1	14	D4	release
218.931	6.325	CUE_LISTEN	        M3	2	n/a	n/a	n/a
225.256	7.758	FIXCROSS	n/a	n/a	n/a	n/a	n/a
233.014	6.317	CUE_PLAYBACK_RIGHT_HAND	        M3	2	n/a	n/a	n/a
233.569	n/a	RESPONSE	        M3	2	15	D#4	press
234.26	n/a	RESPONSE	        M3	2	17	F4	press
234.312	n/a	RESPONSE	        M3	2	15	D#4	release
234.683	n/a	RESPONSE	        M3	2	15	D#4	press
234.814	n/a	RESPONSE	        M3	2	17	F4	release
235.055	n/a	RESPONSE	        M3	2	14	D4	press
235.209	n/a	RESPONSE	        M3	2	15	D#4	release
235.428	n/a	RESPONSE	        M3	2	12	C4	press
235.529	n/a	RESPONSE	        M3	2	14	D4	release
235.84	n/a	RESPONSE	        M3	2	14	D4	press
235.902	n/a	RESPONSE	        M3	2	12	C4	release
236.525	n/a	RESPONSE	        M3	2	15	D#4	press
236.584	n/a	RESPONSE	        M3	2	14	D4	release
236.905	n/a	RESPONSE	        M3	2	14	D4	press
237.056	n/a	RESPONSE	        M3	2	15	D#4	release
237.299	n/a	RESPONSE	        M3	2	12	C4	press
237.359	n/a	RESPONSE	        M3	2	14	D4	release
237.9	n/a	RESPONSE	        M3	2	10	A#3	press
237.992	n/a	RESPONSE	        M3	2	12	C4	release
238.333	n/a	RESPONSE	        M3	2	12	C4	press
238.364	n/a	RESPONSE	        M3	2	10	A#3	release
239.331	7.758	FIXCROSS	n/a	n/a	n/a	n/a	n/a
239.472	n/a	RESPONSE	        M3	2	14	D4	press
239.512	n/a	RESPONSE	        M3	2	12	C4	release
239.952	n/a	RESPONSE	        M3	2	14	D4	release
247.09	6.317	CUE_LISTEN	        M6	1	n/a	n/a	n/a
253.406	7.758	FIXCROSS	n/a	n/a	n/a	n/a	n/a
261.164	6.325	CUE_PLAYBACK_RIGHT_HAND	        M6	1	n/a	n/a	n/a
261.985	n/a	RESPONSE	        M6	1	12	C4	press
262.54	n/a	RESPONSE	        M6	1	17	F4	press
262.644	n/a	RESPONSE	        M6	1	12	C4	release
263.045	n/a	RESPONSE	        M6	1	21	A4	press
263.125	n/a	RESPONSE	        M6	1	17	F4	release
263.556	n/a	RESPONSE	        M6	1	19	G4	press
263.659	n/a	RESPONSE	        M6	1	21	A4	release
263.999	n/a	RESPONSE	        M6	1	17	F4	press
264.172	n/a	RESPONSE	        M6	1	19	G4	release
264.473	n/a	RESPONSE	        M6	1	16	E4	press
264.584	n/a	RESPONSE	        M6	1	17	F4	release
264.914	n/a	RESPONSE	        M6	1	17	F4	press
265.045	n/a	RESPONSE	        M6	1	16	E4	release
265.587	n/a	RESPONSE	        M6	1	17	F4	release
265.829	n/a	RESPONSE	        M6	1	12	C4	press
266.299	n/a	RESPONSE	        M6	1	17	F4	press
266.38	n/a	RESPONSE	        M6	1	12	C4	release
266.742	n/a	RESPONSE	        M6	1	21	A4	press
266.794	n/a	RESPONSE	        M6	1	17	F4	release
267.224	n/a	RESPONSE	        M6	1	19	G4	press
267.306	n/a	RESPONSE	        M6	1	21	A4	release
267.489	7.759	FIXCROSS	n/a	n/a	n/a	n/a	n/a
267.707	n/a	RESPONSE	        M6	1	17	F4	press
267.878	n/a	RESPONSE	        M6	1	19	G4	release
268.15	n/a	RESPONSE	        M6	1	16	E4	press
268.25	n/a	RESPONSE	        M6	1	17	F4	release
268.642	n/a	RESPONSE	        M6	1	17	F4	press
268.723	n/a	RESPONSE	        M6	1	16	E4	release
269.409	n/a	RESPONSE	        M6	1	17	F4	release
275.248	6.317	CUE_LISTEN	        M6	2	n/a	n/a	n/a
281.564	7.758	FIXCROSS	n/a	n/a	n/a	n/a	n/a
289.323	6.317	CUE_PLAYBACK_RIGHT_HAND	        M6	2	n/a	n/a	n/a
290.124	n/a	RESPONSE	        M6	2	12	C4	press
290.664	n/a	RESPONSE	        M6	2	16	E4	press
290.884	n/a	RESPONSE	        M6	2	12	C4	release
291.199	n/a	RESPONSE	        M6	2	19	G4	press
291.304	n/a	RESPONSE	        M6	2	16	E4	release
291.754	n/a	RESPONSE	        M6	2	23	B4	press
291.816	n/a	RESPONSE	        M6	2	19	G4	release
292.653	n/a	RESPONSE	        M6	2	20	G#4	press
292.916	n/a	RESPONSE	        M6	2	23	B4	release
293.21	n/a	RESPONSE	        M6	2	19	G4	press
293.283	n/a	RESPONSE	        M6	2	20	G#4	release
293.693	n/a	RESPONSE	        M6	2	17	F4	press
293.764	n/a	RESPONSE	        M6	2	19	G4	release
294.618	n/a	RESPONSE	        M6	2	17	F4	release
294.636	n/a	RESPONSE	        M6	2	12	C4	press
295.148	n/a	RESPONSE	        M6	2	17	F4	press
295.209	n/a	RESPONSE	        M6	2	12	C4	release
295.64	7.758	FIXCROSS	n/a	n/a	n/a	n/a	n/a
295.72	n/a	RESPONSE	        M6	2	17	F4	release
296.154	n/a	RESPONSE	        M6	2	12	C4	press
297.013	n/a	RESPONSE	        M6	2	16	E4	press
297.126	n/a	RESPONSE	        M6	2	12	C4	release
297.525	n/a	RESPONSE	        M6	2	19	G4	press
297.606	n/a	RESPONSE	        M6	2	16	E4	release
298.048	n/a	RESPONSE	        M6	2	22	A#4	press
298.089	n/a	RESPONSE	        M6	2	19	G4	release
298.522	n/a	RESPONSE	        M6	2	21	A4	press
298.622	n/a	RESPONSE	        M6	2	22	A#4	release
299.003	n/a	RESPONSE	        M6	2	19	G4	press
299.464	n/a	RESPONSE	        M6	2	17	F4	press
299.518	n/a	RESPONSE	        M6	2	21	A4	release
299.603	n/a	RESPONSE	        M6	2	19	G4	release
300.332	n/a	RESPONSE	        M6	2	17	F4	release
303.398	6.325	CUE_LISTEN	        M2	1	n/a	n/a	n/a
309.723	7.758	FIXCROSS	n/a	n/a	n/a	n/a	n/a
317.481	6.317	CUE_PLAYBACK_BOTH_HANDS	        M2	1	n/a	n/a	n/a
318.074	n/a	RESPONSE	        M2	1	12	C4	press
318.076	n/a	RESPONSE	        M2	1	05	F3	press
318.079	n/a	RESPONSE	        M2	1	09	A3	press
318.578	n/a	RESPONSE	        M2	1	17	F4	press
319.139	n/a	RESPONSE	        M2	1	09	A3	release
319.17	n/a	RESPONSE	        M2	1	17	F4	release
319.309	n/a	RESPONSE	        M2	1	05	F3	release
319.353	n/a	RESPONSE	        M2	1	12	C4	release
321.134	n/a	RESPONSE	        M2	1	12	C4	press
321.139	n/a	RESPONSE	        M2	1	05	F3	press
321.148	n/a	RESPONSE	        M2	1	09	A3	press
321.635	n/a	RESPONSE	        M2	1	16	E4	press
322.124	n/a	RESPONSE	        M2	1	16	E4	release
322.13	n/a	RESPONSE	        M2	1	09	A3	release
322.149	n/a	RESPONSE	        M2	1	12	C4	release
322.159	n/a	RESPONSE	        M2	1	05	F3	release
323.234	n/a	RESPONSE	        M2	1	12	C4	press
323.255	n/a	RESPONSE	        M2	1	09	A3	press
323.285	n/a	RESPONSE	        M2	1	05	F3	press
323.798	7.758	FIXCROSS	n/a	n/a	n/a	n/a	n/a
323.829	n/a	RESPONSE	        M2	1	19	G4	press
324.508	n/a	RESPONSE	        M2	1	19	G4	release
324.619	n/a	RESPONSE	        M2	1	09	A3	release
324.683	n/a	RESPONSE	        M2	1	05	F3	release
324.724	n/a	RESPONSE	        M2	1	12	C4	release
331.556	6.325	CUE_LISTEN	        M2	2	n/a	n/a	n/a
337.881	7.758	FIXCROSS	n/a	n/a	n/a	n/a	n/a
345.64	6.317	CUE_PLAYBACK_BOTH_HANDS	        M2	2	n/a	n/a	n/a
349.119	n/a	RESPONSE	        M2	2	07	G3	press
349.122	n/a	RESPONSE	        M2	2	00	C3	press
349.124	n/a	RESPONSE	        M2	2	12	C4	press
349.502	n/a	RESPONSE	        M2	2	14	D4	press
349.584	n/a	RESPONSE	        M2	2	12	C4	release
349.648	n/a	RESPONSE	        M2	2	00	C3	release
349.67	n/a	RESPONSE	        M2	2	07	G3	release
349.868	n/a	RESPONSE	        M2	2	16	E4	press
349.915	n/a	RESPONSE	        M2	2	00	C3	press
349.918	n/a	RESPONSE	        M2	2	07	G3	press
349.95	n/a	RESPONSE	        M2	2	14	D4	release
350.278	n/a	RESPONSE	        M2	2	14	D4	press
350.356	n/a	RESPONSE	        M2	2	16	E4	release
350.364	n/a	RESPONSE	        M2	2	00	C3	release
350.382	n/a	RESPONSE	        M2	2	07	G3	release
350.63	n/a	RESPONSE	        M2	2	16	E4	press
350.636	n/a	RESPONSE	        M2	2	00	C3	press
350.639	n/a	RESPONSE	        M2	2	07	G3	press
350.69	n/a	RESPONSE	        M2	2	14	D4	release
350.984	n/a	RESPONSE	        M2	2	17	F4	press
351.074	n/a	RESPONSE	        M2	2	16	E4	release
351.092	n/a	RESPONSE	        M2	2	00	C3	release
351.109	n/a	RESPONSE	        M2	2	07	G3	release
351.322	n/a	RESPONSE	        M2	2	19	G4	press
351.349	n/a	RESPONSE	        M2	2	00	C3	press
351.353	n/a	RESPONSE	        M2	2	07	G3	press
351.388	n/a	RESPONSE	        M2	2	17	F4	release
351.808	n/a	RESPONSE	        M2	2	19	G4	release
351.816	n/a	RESPONSE	        M2	2	00	C3	release
351.838	n/a	RESPONSE	        M2	2	07	G3	release
351.956	7.758	FIXCROSS	n/a	n/a	n/a	n/a	n/a
351.999	n/a	RESPONSE	        M2	2	07	G3	press
352.004	n/a	RESPONSE	        M2	2	00	C3	press
352.006	n/a	RESPONSE	        M2	2	16	E4	press
352.358	n/a	RESPONSE	        M2	2	19	G4	press
352.463	n/a	RESPONSE	        M2	2	16	E4	release
352.475	n/a	RESPONSE	        M2	2	00	C3	release
352.506	n/a	RESPONSE	        M2	2	07	G3	release
352.592	n/a	RESPONSE	        M2	2	19	G4	release
352.689	n/a	RESPONSE	        M2	2	00	C3	press
352.691	n/a	RESPONSE	        M2	2	07	G3	press
352.708	n/a	RESPONSE	        M2	2	19	G4	press
353.048	n/a	RESPONSE	        M2	2	17	F4	press
353.129	n/a	RESPONSE	        M2	2	19	G4	release
353.16	n/a	RESPONSE	        M2	2	00	C3	release
353.182	n/a	RESPONSE	        M2	2	07	G3	release
353.403	n/a	RESPONSE	        M2	2	00	C3	press
353.405	n/a	RESPONSE	        M2	2	07	G3	press
353.408	n/a	RESPONSE	        M2	2	16	E4	press
353.466	n/a	RESPONSE	        M2	2	17	F4	release
353.748	n/a	RESPONSE	        M2	2	14	D4	press
353.849	n/a	RESPONSE	        M2	2	00	C3	release
353.852	n/a	RESPONSE	        M2	2	16	E4	release
353.863	n/a	RESPONSE	        M2	2	07	G3	release
354.093	n/a	RESPONSE	        M2	2	07	G3	press
354.095	n/a	RESPONSE	        M2	2	12	C4	press
354.098	n/a	RESPONSE	        M2	2	00	C3	press
354.176	n/a	RESPONSE	        M2	2	14	D4	release
354.619	n/a	RESPONSE	        M2	2	00	C3	release
354.749	n/a	RESPONSE	        M2	2	12	C4	release
354.77	n/a	RESPONSE	        M2	2	07	G3	release
359.715	6.317	CUE_LISTEN	        M8	1	n/a	n/a	n/a
366.031	7.758	FIXCROSS	n/a	n/a	n/a	n/a	n/a
373.79	6.325	CUE_PLAYBACK_BOTH_HANDS	        M8	1	n/a	n/a	n/a
374.302	n/a	RESPONSE	        M8	1	16	E4	press
374.613	n/a	RESPONSE	        M8	1	19	G4	press
374.914	n/a	RESPONSE	        M8	1	23	B4	press
374.985	n/a	RESPONSE	        M8	1	16	E4	release
375.296	n/a	RESPONSE	        M8	1	23	B4	release
375.299	n/a	RESPONSE	        M8	1	19	G4	release
375.459	n/a	RESPONSE	        M8	1	23	B4	press
376.02	n/a	RESPONSE	        M8	1	09	A3	press
376.033	n/a	RESPONSE	        M8	1	18	F#4	press
376.093	n/a	RESPONSE	        M8	1	23	B4	release
376.344	n/a	RESPONSE	        M8	1	12	C4	press
376.625	n/a	RESPONSE	        M8	1	21	A4	press
376.639	n/a	RESPONSE	        M8	1	16	E4	press
376.668	n/a	RESPONSE	        M8	1	18	F#4	release
376.719	n/a	RESPONSE	        M8	1	12	C4	release
377.12	n/a	RESPONSE	        M8	1	16	E4	release
377.222	n/a	RESPONSE	        M8	1	16	E4	press
377.753	n/a	RESPONSE	        M8	1	23	B4	press
377.764	n/a	RESPONSE	        M8	1	15	D#4	press
377.775	n/a	RESPONSE	        M8	1	09	A3	release
377.818	n/a	RESPONSE	        M8	1	21	A4	release
377.848	n/a	RESPONSE	        M8	1	16	E4	release
378.339	n/a	RESPONSE	        M8	1	11	B3	press
378.431	n/a	RESPONSE	        M8	1	15	D#4	release
378.662	n/a	RESPONSE	        M8	1	21	A4	press
378.793	n/a	RESPONSE	        M8	1	23	B4	release
378.944	n/a	RESPONSE	        M8	1	19	G4	press
379.215	n/a	RESPONSE	        M8	1	18	F#4	press
379.276	n/a	RESPONSE	        M8	1	21	A4	release
379.459	n/a	RESPONSE	        M8	1	19	G4	release
379.496	n/a	RESPONSE	        M8	1	16	E4	press
379.524	n/a	RESPONSE	        M8	1	18	F#4	release
379.774	n/a	RESPONSE	        M8	1	12	C4	press
379.81	n/a	RESPONSE	        M8	1	11	B3	release
380.064	n/a	RESPONSE	        M8	1	23	B4	press
380.068	n/a	RESPONSE	        M8	1	11	B3	press
380.104	n/a	RESPONSE	        M8	1	16	E4	release
380.115	7.758	FIXCROSS	n/a	n/a	n/a	n/a	n/a
380.126	n/a	RESPONSE	        M8	1	12	C4	release
380.508	n/a	RESPONSE	        M8	1	11	B3	release
380.668	n/a	RESPONSE	        M8	1	11	B3	press
381.555	n/a	RESPONSE	        M8	1	11	B3	release
381.8	n/a	RESPONSE	        M8	1	23	B4	release
387.873	6.317	CUE_LISTEN	        M8	2	n/a	n/a	n/a
394.19	7.758	FIXCROSS	n/a	n/a	n/a	n/a	n/a
401.948	6.317	CUE_PLAYBACK_BOTH_HANDS	        M8	2	n/a	n/a	n/a
402.463	n/a	RESPONSE	        M8	2	16	E4	press
402.773	n/a	RESPONSE	        M8	2	19	G4	press
402.878	n/a	RESPONSE	        M8	2	16	E4	release
403.063	n/a	RESPONSE	        M8	2	23	B4	press
403.334	n/a	RESPONSE	        M8	2	19	G4	release
403.435	n/a	RESPONSE	        M8	2	23	B4	release
403.636	n/a	RESPONSE	        M8	2	23	B4	press
404.188	n/a	RESPONSE	        M8	2	09	A3	press
404.219	n/a	RESPONSE	        M8	2	18	F#4	press
404.29	n/a	RESPONSE	        M8	2	23	B4	release
404.491	n/a	RESPONSE	        M8	2	12	C4	press
404.793	n/a	RESPONSE	        M8	2	21	A4	press
404.804	n/a	RESPONSE	        M8	2	16	E4	press
404.845	n/a	RESPONSE	        M8	2	18	F#4	release
404.878	n/a	RESPONSE	        M8	2	12	C4	release
405.319	n/a	RESPONSE	        M8	2	16	E4	release
405.411	n/a	RESPONSE	        M8	2	16	E4	press
405.42	n/a	RESPONSE	        M8	2	09	A3	release
405.964	n/a	RESPONSE	        M8	2	15	D#4	press
405.973	n/a	RESPONSE	        M8	2	23	B4	press
406.044	n/a	RESPONSE	        M8	2	21	A4	release
406.075	n/a	RESPONSE	        M8	2	16	E4	release
406.509	n/a	RESPONSE	        M8	2	11	B3	press
406.598	n/a	RESPONSE	        M8	2	15	D#4	release
406.829	n/a	RESPONSE	        M8	2	21	A4	press
406.98	n/a	RESPONSE	        M8	2	23	B4	release
407.101	n/a	RESPONSE	        M8	2	19	G4	press
407.363	n/a	RESPONSE	        M8	2	21	A4	release
407.375	n/a	RESPONSE	        M8	2	18	F#4	press
407.455	n/a	RESPONSE	        M8	2	19	G4	release
407.626	n/a	RESPONSE	        M8	2	19	G4	press
407.688	n/a	RESPONSE	        M8	2	18	F#4	release
407.909	n/a	RESPONSE	        M8	2	12	C4	press
407.963	n/a	RESPONSE	        M8	2	11	B3	release
408.265	7.758	FIXCROSS	n/a	n/a	n/a	n/a	n/a
408.281	n/a	RESPONSE	        M8	2	16	E4	press
408.293	n/a	RESPONSE	        M8	2	11	B3	press
408.364	n/a	RESPONSE	        M8	2	19	G4	release
408.538	n/a	RESPONSE	        M8	2	12	C4	release
408.916	n/a	RESPONSE	        M8	2	07	G3	press
408.919	n/a	RESPONSE	        M8	2	09	A3	press
409.019	n/a	RESPONSE	        M8	2	11	B3	release
409.08	n/a	RESPONSE	        M8	2	07	G3	release
409.718	n/a	RESPONSE	        M8	2	04	E3	press
409.899	n/a	RESPONSE	        M8	2	09	A3	release
410.198	n/a	RESPONSE	        M8	2	04	E3	release
410.4	n/a	RESPONSE	        M8	2	12	C4	press
411.898	n/a	RESPONSE	        M8	2	11	B3	press
412.524	n/a	RESPONSE	        M8	2	07	G3	press
412.661	n/a	RESPONSE	        M8	2	11	B3	release
413.114	n/a	RESPONSE	        M8	2	04	E3	press
413.126	n/a	RESPONSE	        M8	2	12	C4	release
413.196	n/a	RESPONSE	        M8	2	07	G3	release
413.818	n/a	RESPONSE	        M8	2	16	E4	release
413.939	n/a	RESPONSE	        M8	2	04	E3	release
416.023	6.325	CUE_LISTEN	        M4	1	n/a	n/a	n/a
419.753	n/a	RESPONSE	        M4	1	24	C5	press
420.702	n/a	RESPONSE	        M4	1	24	C5	release
422.348	7.758	FIXCROSS	n/a	n/a	n/a	n/a	n/a
425.579	n/a	RESPONSE	        M4	1	16	E4	press
426.362	n/a	RESPONSE	        M4	1	16	E4	release
430.106	6.317	CUE_PLAYBACK_RIGHT_HAND	        M4	1	n/a	n/a	n/a
430.64	n/a	RESPONSE	        M4	1	16	E4	press
430.924	n/a	RESPONSE	        M4	1	15	D#4	press
431.023	n/a	RESPONSE	        M4	1	16	E4	release
431.209	n/a	RESPONSE	        M4	1	16	E4	press
431.278	n/a	RESPONSE	        M4	1	15	D#4	release
431.753	n/a	RESPONSE	        M4	1	21	A4	press
431.79	n/a	RESPONSE	        M4	1	16	E4	release
432.023	n/a	RESPONSE	        M4	1	23	B4	press
432.104	n/a	RESPONSE	        M4	1	21	A4	release
432.298	n/a	RESPONSE	        M4	1	21	A4	press
432.375	n/a	RESPONSE	        M4	1	23	B4	release
433.479	n/a	RESPONSE	        M4	1	21	A4	release
433.95	n/a	RESPONSE	        M4	1	15	D#4	press
434.211	n/a	RESPONSE	        M4	1	14	D4	press
434.323	n/a	RESPONSE	        M4	1	15	D#4	release
434.524	n/a	RESPONSE	        M4	1	15	D#4	press
434.595	n/a	RESPONSE	        M4	1	14	D4	release
435.118	n/a	RESPONSE	        M4	1	16	E4	press
435.188	n/a	RESPONSE	        M4	1	15	D#4	release
435.361	n/a	RESPONSE	        M4	1	17	F4	press
435.46	n/a	RESPONSE	        M4	1	16	E4	release
435.661	n/a	RESPONSE	        M4	1	16	E4	press
435.743	n/a	RESPONSE	        M4	1	17	F4	release
436.423	7.759	FIXCROSS	n/a	n/a	n/a	n/a	n/a
436.654	n/a	RESPONSE	        M4	1	16	E4	release
439.471	n/a	RESPONSE	        M4	1	16	E4	press
441.638	n/a	RESPONSE	        M4	1	16	E4	release
444.182	6.317	CUE_LISTEN	        M4	2	n/a	n/a	n/a
450.498	7.758	FIXCROSS	n/a	n/a	n/a	n/a	n/a
458.257	6.325	CUE_PLAYBACK_RIGHT_HAND	        M4	2	n/a	n/a	n/a
458.756	n/a	RESPONSE	        M4	2	23	B4	press
459.713	n/a	RESPONSE	        M4	2	19	G4	press
459.77	n/a	RESPONSE	        M4	2	23	B4	release
461.138	n/a	RESPONSE	        M4	2	23	B4	press
461.2	n/a	RESPONSE	        M4	2	19	G4	release
462.224	n/a	RESPONSE	        M4	2	19	G4	press
462.306	n/a	RESPONSE	        M4	2	23	B4	release
464.38	n/a	RESPONSE	        M4	2	23	B4	press
464.431	n/a	RESPONSE	        M4	2	19	G4	release
464.582	7.758	FIXCROSS	n/a	n/a	n/a	n/a	n/a
465.803	n/a	RESPONSE	        M4	2	18	F#4	press
465.904	n/a	RESPONSE	        M4	2	23	B4	release
466.958	n/a	RESPONSE	        M4	2	18	F#4	release
472.34	6.317	CUE_LISTEN	        M3	1	n/a	n/a	n/a
476.095	n/a	RESPONSE	        M3	1	07	G3	press
476.336	n/a	RESPONSE	        M3	1	07	G3	release
478.657	7.758	FIXCROSS	n/a	n/a	n/a	n/a	n/a
486.415	6.317	CUE_PLAYBACK_RIGHT_HAND	        M3	1	n/a	n/a	n/a
487.008	n/a	RESPONSE	        M3	1	19	G4	press
487.64	n/a	RESPONSE	        M3	1	16	E4	press
487.72	n/a	RESPONSE	        M3	1	19	G4	release
488.201	n/a	RESPONSE	        M3	1	16	E4	release
488.294	n/a	RESPONSE	        M3	1	16	E4	press
488.924	n/a	RESPONSE	        M3	1	17	F4	press
488.975	n/a	RESPONSE	        M3	1	16	E4	release
489.55	n/a	RESPONSE	        M3	1	14	D4	press
489.638	n/a	RESPONSE	        M3	1	17	F4	release
490.095	n/a	RESPONSE	        M3	1	14	D4	release
490.193	n/a	RESPONSE	        M3	1	14	D4	press
490.898	n/a	RESPONSE	        M3	1	12	C4	press
490.985	n/a	RESPONSE	        M3	1	14	D4	release
491.23	n/a	RESPONSE	        M3	1	16	E4	press
491.538	n/a	RESPONSE	        M3	1	19	G4	press
491.595	n/a	RESPONSE	        M3	1	12	C4	release
491.699	n/a	RESPONSE	        M3	1	16	E4	release
492.506	n/a	RESPONSE	        M3	1	19	G4	release
492.732	7.758	FIXCROSS	n/a	n/a	n/a	n/a	n/a
500.49	6.325	CUE_LISTEN	        M3	2	n/a	n/a	n/a
506.815	7.758	FIXCROSS	n/a	n/a	n/a	n/a	n/a
514.573	6.317	CUE_PLAYBACK_RIGHT_HAND	        M3	2	n/a	n/a	n/a
515.07	n/a	RESPONSE	        M3	2	19	G4	press
515.583	n/a	RESPONSE	        M3	2	16	E4	press
515.643	n/a	RESPONSE	        M3	2	19	G4	release
516.044	n/a	RESPONSE	        M3	2	16	E4	release
516.195	n/a	RESPONSE	        M3	2	16	E4	press
516.736	n/a	RESPONSE	        M3	2	17	F4	press
516.778	n/a	RESPONSE	        M3	2	16	E4	release
517.291	n/a	RESPONSE	        M3	2	14	D4	press
517.39	n/a	RESPONSE	        M3	2	17	F4	release
517.803	n/a	RESPONSE	        M3	2	14	D4	release
517.883	n/a	RESPONSE	        M3	2	14	D4	press
518.464	n/a	RESPONSE	        M3	2	12	C4	press
518.516	n/a	RESPONSE	        M3	2	14	D4	release
518.766	n/a	RESPONSE	        M3	2	16	E4	press
518.848	n/a	RESPONSE	        M3	2	12	C4	release
519.069	n/a	RESPONSE	        M3	2	12	C4	press
519.09	n/a	RESPONSE	        M3	2	16	E4	release
519.879	n/a	RESPONSE	        M3	2	12	C4	release
520.89	7.758	FIXCROSS	n/a	n/a	n/a	n/a	n/a
528.648	6.325	CUE_LISTEN	        M5	1	n/a	n/a	n/a
534.973	7.758	FIXCROSS	n/a	n/a	n/a	n/a	n/a
542.732	6.317	CUE_PLAYBACK_BOTH_HANDS	        M5	1	n/a	n/a	n/a
543.713	n/a	RESPONSE	        M5	1	07	G3	press
543.715	n/a	RESPONSE	        M5	1	22	A#4	press
544.368	n/a	RESPONSE	        M5	1	21	A4	press
544.496	n/a	RESPONSE	        M5	1	22	A#4	release
545.0	n/a	RESPONSE	        M5	1	19	G4	press
545.099	n/a	RESPONSE	        M5	1	21	A4	release
545.59	n/a	RESPONSE	        M5	1	05	F3	press
545.593	n/a	RESPONSE	        M5	1	21	A4	press
545.643	n/a	RESPONSE	        M5	1	19	G4	release
545.645	n/a	RESPONSE	        M5	1	07	G3	release
546.288	n/a	RESPONSE	        M5	1	14	D4	press
546.386	n/a	RESPONSE	        M5	1	21	A4	release
546.808	n/a	RESPONSE	        M5	1	14	D4	release
546.941	n/a	RESPONSE	        M5	1	14	D4	press
547.54	n/a	RESPONSE	        M5	1	03	D#3	press
547.553	n/a	RESPONSE	        M5	1	19	G4	press
547.583	n/a	RESPONSE	        M5	1	05	F3	release
547.605	n/a	RESPONSE	        M5	1	14	D4	release
548.375	n/a	RESPONSE	        M5	1	07	G3	press
548.486	n/a	RESPONSE	        M5	1	19	G4	release
548.778	n/a	RESPONSE	        M5	1	09	A3	press
549.048	7.758	FIXCROSS	n/a	n/a	n/a	n/a	n/a
549.179	n/a	RESPONSE	        M5	1	10	A#3	press
549.2	n/a	RESPONSE	        M5	1	07	G3	release
549.241	n/a	RESPONSE	        M5	1	09	A3	release
549.485	n/a	RESPONSE	        M5	1	12	C4	press
549.58	n/a	RESPONSE	        M5	1	10	A#3	release
549.918	n/a	RESPONSE	        M5	1	02	D3	press
550.138	n/a	RESPONSE	        M5	1	03	D#3	release
550.981	n/a	RESPONSE	        M5	1	12	C4	release
553.296	n/a	RESPONSE	        M5	1	12	C4	press
553.368	n/a	RESPONSE	        M5	1	02	D3	release
554.659	n/a	RESPONSE	        M5	1	12	C4	release
556.807	6.317	CUE_LISTEN	        M5	2	n/a	n/a	n/a
563.123	7.758	FIXCROSS	n/a	n/a	n/a	n/a	n/a
570.882	6.325	CUE_PLAYBACK_BOTH_HANDS	        M5	2	n/a	n/a	n/a
571.459	n/a	RESPONSE	        M5	2	07	G3	press
571.469	n/a	RESPONSE	        M5	2	13	C#4	press
571.475	n/a	RESPONSE	        M5	2	10	A#3	press
572.161	n/a	RESPONSE	        M5	2	16	E4	press
572.225	n/a	RESPONSE	        M5	2	13	C#4	release
572.508	n/a	RESPONSE	        M5	2	13	C#4	press
572.603	n/a	RESPONSE	        M5	2	16	E4	release
572.75	n/a	RESPONSE	        M5	2	07	G3	release
572.76	n/a	RESPONSE	        M5	2	10	A#3	release
572.959	n/a	RESPONSE	        M5	2	13	C#4	release
575.25	n/a	RESPONSE	        M5	2	07	G3	press
575.253	n/a	RESPONSE	        M5	2	13	C#4	press
575.273	n/a	RESPONSE	        M5	2	10	A#3	press
575.844	n/a	RESPONSE	        M5	2	16	E4	press
575.938	n/a	RESPONSE	        M5	2	13	C#4	release
576.176	n/a	RESPONSE	        M5	2	13	C#4	press
576.278	n/a	RESPONSE	        M5	2	16	E4	release
576.809	n/a	RESPONSE	        M5	2	12	C4	press
576.823	n/a	RESPONSE	        M5	2	09	A3	press
576.904	n/a	RESPONSE	        M5	2	10	A#3	release
576.923	n/a	RESPONSE	        M5	2	07	G3	release
576.934	n/a	RESPONSE	        M5	2	13	C#4	release
577.135	n/a	RESPONSE	        M5	2	11	B3	press
577.207	7.758	FIXCROSS	n/a	n/a	n/a	n/a	n/a
577.226	n/a	RESPONSE	        M5	2	12	C4	release
577.508	n/a	RESPONSE	        M5	2	09	A3	release
577.599	n/a	RESPONSE	        M5	2	11	B3	release
580.213	n/a	RESPONSE	        M5	2	06	F#3	press
580.244	n/a	RESPONSE	        M5	2	13	C#4	press
580.29	n/a	RESPONSE	        M5	2	10	A#3	press
580.46	n/a	RESPONSE	        M5	2	10	A#3	release
580.474	n/a	RESPONSE	        M5	2	06	F#3	release
580.601	n/a	RESPONSE	        M5	2	13	C#4	release
581.273	n/a	RESPONSE	        M5	2	05	F3	press
581.32	n/a	RESPONSE	        M5	2	13	C#4	press
581.881	n/a	RESPONSE	        M5	2	16	E4	press
581.938	n/a	RESPONSE	        M5	2	13	C#4	release
582.205	n/a	RESPONSE	        M5	2	13	C#4	press
582.286	n/a	RESPONSE	        M5	2	16	E4	release
582.608	n/a	RESPONSE	        M5	2	05	F3	release
582.66	n/a	RESPONSE	        M5	2	13	C#4	release
584.965	6.317	CUE_LISTEN	        M1	1	n/a	n/a	n/a
591.282	7.758	FIXCROSS	n/a	n/a	n/a	n/a	n/a
599.04	6.317	CUE_PLAYBACK_RIGHT_HAND	        M1	1	n/a	n/a	n/a
599.635	n/a	RESPONSE	        M1	1	21	A4	press
599.919	n/a	RESPONSE	        M1	1	21	A4	release
599.99	n/a	RESPONSE	        M1	1	21	A4	press
600.238	n/a	RESPONSE	        M1	1	21	A4	release
600.349	n/a	RESPONSE	        M1	1	21	A4	press
600.933	n/a	RESPONSE	        M1	1	21	A4	release
601.05	n/a	RESPONSE	        M1	1	21	A4	press
601.343	n/a	RESPONSE	        M1	1	21	A4	release
601.426	n/a	RESPONSE	        M1	1	21	A4	press
601.653	n/a	RESPONSE	        M1	1	21	A4	release
601.753	n/a	RESPONSE	        M1	1	21	A4	press
602.314	n/a	RESPONSE	        M1	1	21	A4	release
602.474	n/a	RESPONSE	        M1	1	21	A4	press
602.883	n/a	RESPONSE	        M1	1	24	C5	press
602.983	n/a	RESPONSE	        M1	1	21	A4	release
603.284	n/a	RESPONSE	        M1	1	17	F4	press
603.425	n/a	RESPONSE	        M1	1	24	C5	release
603.679	n/a	RESPONSE	        M1	1	19	G4	press
603.858	n/a	RESPONSE	        M1	1	17	F4	release
604.069	n/a	RESPONSE	        M1	1	21	A4	press
604.13	n/a	RESPONSE	        M1	1	19	G4	release
604.854	n/a	RESPONSE	        M1	1	21	A4	release
605.357	7.758	FIXCROSS	n/a	n/a	n/a	n/a	n/a
613.115	6.333	CUE_LISTEN	        M1	2	n/a	n/a	n/a
619.449	7.758	FIXCROSS	n/a	n/a	n/a	n/a	n/a
627.207	6.308	CUE_PLAYBACK_RIGHT_HAND	        M1	2	n/a	n/a	n/a
627.856	n/a	RESPONSE	        M1	2	20	G#4	press
628.188	n/a	RESPONSE	        M1	2	20	G#4	release
628.789	n/a	RESPONSE	        M1	2	20	G#4	press
628.971	n/a	RESPONSE	        M1	2	20	G#4	release
629.606	n/a	RESPONSE	        M1	2	22	A#4	press
629.898	n/a	RESPONSE	        M1	2	22	A#4	release
629.97	n/a	RESPONSE	        M1	2	22	A#4	press
630.193	n/a	RESPONSE	        M1	2	22	A#4	release
630.355	n/a	RESPONSE	        M1	2	22	A#4	press
630.544	n/a	RESPONSE	        M1	2	22	A#4	release
630.702	n/a	RESPONSE	        M1	2	22	A#4	press
630.926	n/a	RESPONSE	        M1	2	22	A#4	release
631.074	n/a	RESPONSE	        M1	2	22	A#4	press
631.335	n/a	RESPONSE	        M1	2	22	A#4	release
631.478	n/a	RESPONSE	        M1	2	21	A4	press
631.703	n/a	RESPONSE	        M1	2	21	A4	release
631.839	n/a	RESPONSE	        M1	2	21	A4	press
632.055	n/a	RESPONSE	        M1	2	21	A4	release
632.193	n/a	RESPONSE	        M1	2	21	A4	press
632.413	n/a	RESPONSE	        M1	2	21	A4	release
632.936	n/a	RESPONSE	        M1	2	24	C5	press
633.25	n/a	RESPONSE	        M1	2	24	C5	release
633.329	n/a	RESPONSE	        M1	2	24	C5	press
633.515	7.758	FIXCROSS	n/a	n/a	n/a	n/a	n/a
633.76	n/a	RESPONSE	        M1	2	22	A#4	press
633.791	n/a	RESPONSE	        M1	2	24	C5	release
634.244	n/a	RESPONSE	        M1	2	21	A4	press
634.334	n/a	RESPONSE	        M1	2	22	A#4	release
634.785	n/a	RESPONSE	        M1	2	21	A4	release
634.966	n/a	RESPONSE	        M1	2	19	G4	press
635.378	n/a	RESPONSE	        M1	2	17	F4	press
635.479	n/a	RESPONSE	        M1	2	19	G4	release
636.13	n/a	RESPONSE	        M1	2	17	F4	release
641.274	6.317	CUE_LISTEN	        M7	1	n/a	n/a	n/a
647.59	7.758	FIXCROSS	n/a	n/a	n/a	n/a	n/a
655.349	6.325	CUE_PLAYBACK_BOTH_HANDS	        M7	1	n/a	n/a	n/a
655.99	n/a	RESPONSE	        M7	1	00	C3	press
656.001	n/a	RESPONSE	        M7	1	12	C4	press
656.472	n/a	RESPONSE	        M7	1	14	D4	press
656.484	n/a	RESPONSE	        M7	1	07	G3	press
656.595	n/a	RESPONSE	        M7	1	00	C3	release
656.936	n/a	RESPONSE	        M7	1	12	C4	release
656.978	n/a	RESPONSE	        M7	1	16	E4	press
656.989	n/a	RESPONSE	        M7	1	04	E3	press
657.04	n/a	RESPONSE	        M7	1	14	D4	release
657.054	n/a	RESPONSE	        M7	1	07	G3	release
657.472	n/a	RESPONSE	        M7	1	07	G3	press
657.475	n/a	RESPONSE	        M7	1	12	C4	press
657.555	n/a	RESPONSE	        M7	1	16	E4	release
657.616	n/a	RESPONSE	        M7	1	04	E3	release
657.808	n/a	RESPONSE	        M7	1	12	C4	release
657.85	n/a	RESPONSE	        M7	1	07	G3	release
657.97	n/a	RESPONSE	        M7	1	00	C3	press
657.991	n/a	RESPONSE	        M7	1	12	C4	press
658.474	n/a	RESPONSE	        M7	1	07	G3	press
658.484	n/a	RESPONSE	        M7	1	14	D4	press
658.525	n/a	RESPONSE	        M7	1	00	C3	release
658.569	n/a	RESPONSE	        M7	1	12	C4	release
658.908	n/a	RESPONSE	        M7	1	16	E4	press
658.929	n/a	RESPONSE	        M7	1	04	E3	press
658.97	n/a	RESPONSE	        M7	1	14	D4	release
658.981	n/a	RESPONSE	        M7	1	07	G3	release
659.411	n/a	RESPONSE	        M7	1	07	G3	press
659.421	n/a	RESPONSE	        M7	1	12	C4	press
659.469	n/a	RESPONSE	        M7	1	04	E3	release
659.485	n/a	RESPONSE	        M7	1	16	E4	release
660.02	n/a	RESPONSE	        M7	1	07	G3	release
660.122	n/a	RESPONSE	        M7	1	12	C4	release
661.674	7.758	FIXCROSS	n/a	n/a	n/a	n/a	n/a
669.432	6.317	CUE_LISTEN	        M7	2	n/a	n/a	n/a
675.749	7.758	FIXCROSS	n/a	n/a	n/a	n/a	n/a
675.85	n/a	RESPONSE	        M7	2	14	D4	press
676.271	n/a	RESPONSE	        M7	2	14	D4	release
683.507	6.317	CUE_PLAYBACK_BOTH_HANDS	        M7	2	n/a	n/a	n/a
684.132	n/a	RESPONSE	        M7	2	00	C3	press
684.144	n/a	RESPONSE	        M7	2	19	G4	press
684.405	n/a	RESPONSE	        M7	2	21	A4	press
684.476	n/a	RESPONSE	        M7	2	19	G4	release
684.698	n/a	RESPONSE	        M7	2	19	G4	press
684.701	n/a	RESPONSE	        M7	2	07	G3	press
684.8	n/a	RESPONSE	        M7	2	21	A4	release
684.821	n/a	RESPONSE	        M7	2	00	C3	release
684.942	n/a	RESPONSE	        M7	2	17	F4	press
685.084	n/a	RESPONSE	        M7	2	19	G4	release
685.216	n/a	RESPONSE	        M7	2	04	E3	press
685.219	n/a	RESPONSE	        M7	2	17	F4	release
685.229	n/a	RESPONSE	        M7	2	16	E4	press
685.261	n/a	RESPONSE	        M7	2	07	G3	release
685.72	n/a	RESPONSE	        M7	2	07	G3	press
685.722	n/a	RESPONSE	        M7	2	12	C4	press
685.832	n/a	RESPONSE	        M7	2	04	E3	release
685.864	n/a	RESPONSE	        M7	2	16	E4	release
686.006	n/a	RESPONSE	        M7	2	12	C4	release
686.066	n/a	RESPONSE	        M7	2	07	G3	release
686.198	n/a	RESPONSE	        M7	2	00	C3	press
686.209	n/a	RESPONSE	        M7	2	19	G4	press
686.44	n/a	RESPONSE	        M7	2	21	A4	press
686.511	n/a	RESPONSE	        M7	2	19	G4	release
686.712	n/a	RESPONSE	        M7	2	19	G4	press
686.726	n/a	RESPONSE	        M7	2	07	G3	press
686.785	n/a	RESPONSE	        M7	2	21	A4	release
686.816	n/a	RESPONSE	        M7	2	00	C3	release
686.948	n/a	RESPONSE	        M7	2	17	F4	press
687.209	n/a	RESPONSE	        M7	2	04	E3	press
687.211	n/a	RESPONSE	        M7	2	19	G4	release
687.214	n/a	RESPONSE	        M7	2	17	F4	release
687.222	n/a	RESPONSE	        M7	2	16	E4	press
687.244	n/a	RESPONSE	        M7	2	07	G3	release
687.696	n/a	RESPONSE	        M7	2	07	G3	press
687.706	n/a	RESPONSE	        M7	2	12	C4	press
687.748	n/a	RESPONSE	        M7	2	04	E3	release
687.759	n/a	RESPONSE	        M7	2	16	E4	release
688.03	n/a	RESPONSE	        M7	2	12	C4	release
688.141	n/a	RESPONSE	        M7	2	07	G3	release
688.174	n/a	RESPONSE	        M7	2	00	C3	press
688.204	n/a	RESPONSE	        M7	2	12	C4	press
688.688	n/a	RESPONSE	        M7	2	07	G3	press
688.766	n/a	RESPONSE	        M7	2	00	C3	release
688.778	n/a	RESPONSE	        M7	2	12	C4	release
689.149	n/a	RESPONSE	        M7	2	00	C3	press
689.16	n/a	RESPONSE	        M7	2	12	C4	press
689.201	n/a	RESPONSE	        M7	2	07	G3	release
689.761	n/a	RESPONSE	        M7	2	00	C3	release
689.796	n/a	RESPONSE	        M7	2	12	C4	release
689.824	7.758	FIXCROSS	n/a	n/a	n/a	n/a	n/a
690.089	n/a	RESPONSE	        M7	2	00	C3	press
690.099	n/a	RESPONSE	        M7	2	12	C4	press
690.568	n/a	RESPONSE	        M7	2	07	G3	press
690.614	n/a	RESPONSE	        M7	2	00	C3	release
690.624	n/a	RESPONSE	        M7	2	12	C4	release
691.086	n/a	RESPONSE	        M7	2	00	C3	press
691.11	n/a	RESPONSE	        M7	2	12	C4	press
691.141	n/a	RESPONSE	        M7	2	07	G3	release
691.821	n/a	RESPONSE	        M7	2	00	C3	release
691.85	n/a	RESPONSE	        M7	2	12	C4	release
697.582	6.325	CUE_LISTEN	        M4	1	n/a	n/a	n/a
703.907	7.758	FIXCROSS	n/a	n/a	n/a	n/a	n/a
711.666	6.317	CUE_PLAYBACK_BOTH_HANDS	        M4	1	n/a	n/a	n/a
712.076	n/a	RESPONSE	        M4	1	04	E3	press
712.101	n/a	RESPONSE	        M4	1	14	D4	press
712.719	n/a	RESPONSE	        M4	1	11	B3	press
712.731	n/a	RESPONSE	        M4	1	19	G4	press
712.829	n/a	RESPONSE	        M4	1	04	E3	release
712.896	n/a	RESPONSE	        M4	1	14	D4	release
713.025	n/a	RESPONSE	        M4	1	18	F#4	press
713.106	n/a	RESPONSE	        M4	1	19	G4	release
713.381	n/a	RESPONSE	        M4	1	19	G4	press
713.41	n/a	RESPONSE	        M4	1	14	D4	press
713.412	n/a	RESPONSE	        M4	1	18	F#4	release
713.415	n/a	RESPONSE	        M4	1	07	G3	press
713.556	n/a	RESPONSE	        M4	1	11	B3	release
714.435	n/a	RESPONSE	        M4	1	23	B4	press
714.468	n/a	RESPONSE	        M4	1	11	B3	press
714.508	n/a	RESPONSE	        M4	1	19	G4	release
714.549	n/a	RESPONSE	        M4	1	07	G3	release
714.821	n/a	RESPONSE	        M4	1	23	B4	release
714.881	n/a	RESPONSE	        M4	1	24	C5	press
715.385	n/a	RESPONSE	        M4	1	23	B4	press
715.414	n/a	RESPONSE	        M4	1	11	B3	release
715.416	n/a	RESPONSE	        M4	1	04	E3	press
715.419	n/a	RESPONSE	        M4	1	02	D3	press
715.468	n/a	RESPONSE	        M4	1	24	C5	release
716.131	n/a	RESPONSE	        M4	1	09	A3	press
716.15	n/a	RESPONSE	        M4	1	04	E3	release
716.181	n/a	RESPONSE	        M4	1	02	D3	release
716.762	n/a	RESPONSE	        M4	1	05	F3	press
716.866	n/a	RESPONSE	        M4	1	09	A3	release
717.285	n/a	RESPONSE	        M4	1	05	F3	release
717.288	n/a	RESPONSE	        M4	1	23	B4	release
717.438	n/a	RESPONSE	        M4	1	14	D4	release
717.919	n/a	RESPONSE	        M4	1	02	D3	press
717.93	n/a	RESPONSE	        M4	1	14	D4	press
717.982	7.758	FIXCROSS	n/a	n/a	n/a	n/a	n/a
719.252	n/a	RESPONSE	        M4	1	19	G4	press
719.262	n/a	RESPONSE	        M4	1	09	A3	press
719.346	n/a	RESPONSE	        M4	1	02	D3	release
719.458	n/a	RESPONSE	        M4	1	14	D4	release
719.546	n/a	RESPONSE	        M4	1	18	F#4	press
719.612	n/a	RESPONSE	        M4	1	19	G4	release
719.824	n/a	RESPONSE	        M4	1	14	D4	press
719.829	n/a	RESPONSE	        M4	1	05	F3	press
719.831	n/a	RESPONSE	        M4	1	19	G4	press
719.848	n/a	RESPONSE	        M4	1	18	F#4	release
719.912	n/a	RESPONSE	        M4	1	09	A3	release
720.372	n/a	RESPONSE	        M4	1	09	A3	press
720.418	n/a	RESPONSE	        M4	1	23	B4	press
720.47	n/a	RESPONSE	        M4	1	05	F3	release
720.502	n/a	RESPONSE	        M4	1	19	G4	release
720.546	n/a	RESPONSE	        M4	1	14	D4	release
720.656	n/a	RESPONSE	        M4	1	24	C5	press
720.734	n/a	RESPONSE	        M4	1	23	B4	release
720.916	n/a	RESPONSE	        M4	1	23	B4	press
720.92	n/a	RESPONSE	        M4	1	02	D3	press
720.922	n/a	RESPONSE	        M4	1	14	D4	press
720.945	n/a	RESPONSE	        M4	1	24	C5	release
720.964	n/a	RESPONSE	        M4	1	09	A3	release
721.47	n/a	RESPONSE	        M4	1	09	A3	press
721.55	n/a	RESPONSE	        M4	1	02	D3	release
721.65	n/a	RESPONSE	        M4	1	14	D4	release
722.015	n/a	RESPONSE	        M4	1	14	D4	press
722.019	n/a	RESPONSE	        M4	1	05	F3	press
722.115	n/a	RESPONSE	        M4	1	09	A3	release
722.631	n/a	RESPONSE	        M4	1	09	A3	press
722.839	n/a	RESPONSE	        M4	1	05	F3	release
722.959	n/a	RESPONSE	        M4	1	14	D4	release
723.671	n/a	RESPONSE	        M4	1	23	B4	release
724.811	n/a	RESPONSE	        M4	1	09	A3	release
725.74	6.317	CUE_LISTEN	        M4	2	n/a	n/a	n/a
732.057	7.758	FIXCROSS	n/a	n/a	n/a	n/a	n/a
739.816	6.325	CUE_PLAYBACK_BOTH_HANDS	        M4	2	n/a	n/a	n/a
743.01	n/a	RESPONSE	        M4	2	12	C4	press
743.012	n/a	RESPONSE	        M4	2	02	D3	press
743.015	n/a	RESPONSE	        M4	2	20	G#4	press
743.345	n/a	RESPONSE	        M4	2	02	D3	release
743.365	n/a	RESPONSE	        M4	2	20	G#4	release
743.386	n/a	RESPONSE	        M4	2	12	C4	release
743.89	n/a	RESPONSE	        M4	2	20	G#4	press
743.901	n/a	RESPONSE	        M4	2	02	D3	press
743.92	n/a	RESPONSE	        M4	2	14	D4	press
744.371	n/a	RESPONSE	        M4	2	17	F4	press
744.442	n/a	RESPONSE	        M4	2	09	A3	press
744.445	n/a	RESPONSE	        M4	2	07	G3	press
744.485	n/a	RESPONSE	        M4	2	20	G#4	release
744.566	n/a	RESPONSE	        M4	2	02	D3	release
744.578	n/a	RESPONSE	        M4	2	07	G3	release
744.609	n/a	RESPONSE	        M4	2	14	D4	release
744.762	n/a	RESPONSE	        M4	2	20	G#4	press
744.861	n/a	RESPONSE	        M4	2	17	F4	release
745.072	n/a	RESPONSE	        M4	2	09	A3	release
745.126	n/a	RESPONSE	        M4	2	20	G#4	release
745.945	n/a	RESPONSE	        M4	2	02	D3	press
745.966	n/a	RESPONSE	        M4	2	14	D4	press
745.969	n/a	RESPONSE	        M4	2	20	G#4	press
746.14	7.758	FIXCROSS	n/a	n/a	n/a	n/a	n/a
746.419	n/a	RESPONSE	        M4	2	17	F4	press
746.46	n/a	RESPONSE	        M4	2	09	A3	press
746.491	n/a	RESPONSE	        M4	2	20	G#4	release
746.562	n/a	RESPONSE	        M4	2	02	D3	release
746.605	n/a	RESPONSE	        M4	2	14	D4	release
746.775	n/a	RESPONSE	        M4	2	17	F4	release
747.136	n/a	RESPONSE	        M4	2	09	A3	release
753.899	6.317	CUE_LISTEN	        M2	1	n/a	n/a	n/a
760.216	7.758	FIXCROSS	n/a	n/a	n/a	n/a	n/a
767.974	6.325	CUE_PLAYBACK_RIGHT_HAND	        M2	1	n/a	n/a	n/a
768.466	n/a	RESPONSE	        M2	1	24	C5	press
768.878	n/a	RESPONSE	        M2	1	19	G4	press
768.969	n/a	RESPONSE	        M2	1	24	C5	release
769.16	n/a	RESPONSE	        M2	1	19	G4	release
769.316	n/a	RESPONSE	        M2	1	19	G4	press
769.725	n/a	RESPONSE	        M2	1	17	F4	press
769.822	n/a	RESPONSE	        M2	1	19	G4	release
770.149	n/a	RESPONSE	        M2	1	16	E4	press
770.241	n/a	RESPONSE	        M2	1	17	F4	release
770.549	n/a	RESPONSE	        M2	1	17	F4	press
770.61	n/a	RESPONSE	        M2	1	16	E4	release
770.909	n/a	RESPONSE	        M2	1	19	G4	press
770.955	n/a	RESPONSE	        M2	1	17	F4	release
771.631	n/a	RESPONSE	        M2	1	19	G4	release
771.651	n/a	RESPONSE	        M2	1	24	C5	press
772.05	n/a	RESPONSE	        M2	1	19	G4	press
772.114	n/a	RESPONSE	        M2	1	24	C5	release
772.299	n/a	RESPONSE	        M2	1	19	G4	release
772.464	n/a	RESPONSE	        M2	1	19	G4	press
772.875	n/a	RESPONSE	        M2	1	17	F4	press
772.954	n/a	RESPONSE	        M2	1	19	G4	release
773.305	n/a	RESPONSE	        M2	1	16	E4	press
773.356	n/a	RESPONSE	        M2	1	17	F4	release
773.698	n/a	RESPONSE	        M2	1	14	D4	press
773.789	n/a	RESPONSE	        M2	1	16	E4	release
774.13	n/a	RESPONSE	        M2	1	12	C4	press
774.241	n/a	RESPONSE	        M2	1	14	D4	release
774.299	7.758	FIXCROSS	n/a	n/a	n/a	n/a	n/a
774.852	n/a	RESPONSE	        M2	1	12	C4	release
782.057	6.317	CUE_LISTEN	        M2	2	n/a	n/a	n/a
788.374	7.758	FIXCROSS	n/a	n/a	n/a	n/a	n/a
796.132	6.317	CUE_PLAYBACK_RIGHT_HAND	        M2	2	n/a	n/a	n/a
796.631	n/a	RESPONSE	        M2	2	12	C4	press
797.012	n/a	RESPONSE	        M2	2	14	D4	press
797.232	n/a	RESPONSE	        M2	2	12	C4	release
797.414	n/a	RESPONSE	        M2	2	16	E4	press
797.495	n/a	RESPONSE	        M2	2	14	D4	release
797.789	n/a	RESPONSE	        M2	2	14	D4	press
797.877	n/a	RESPONSE	        M2	2	16	E4	release
798.189	n/a	RESPONSE	        M2	2	16	E4	press
798.25	n/a	RESPONSE	        M2	2	14	D4	release
798.571	n/a	RESPONSE	        M2	2	17	F4	press
798.642	n/a	RESPONSE	        M2	2	16	E4	release
798.904	n/a	RESPONSE	        M2	2	19	G4	press
798.978	n/a	RESPONSE	        M2	2	17	F4	release
799.646	n/a	RESPONSE	        M2	2	16	E4	press
799.672	n/a	RESPONSE	        M2	2	19	G4	release
800.024	n/a	RESPONSE	        M2	2	19	G4	press
800.091	n/a	RESPONSE	        M2	2	16	E4	release
800.285	n/a	RESPONSE	        M2	2	19	G4	release
800.396	n/a	RESPONSE	        M2	2	19	G4	press
800.759	n/a	RESPONSE	        M2	2	17	F4	press
800.835	n/a	RESPONSE	        M2	2	19	G4	release
801.166	n/a	RESPONSE	        M2	2	16	E4	press
801.235	n/a	RESPONSE	        M2	2	17	F4	release
801.531	n/a	RESPONSE	        M2	2	14	D4	press
801.606	n/a	RESPONSE	        M2	2	16	E4	release
801.887	n/a	RESPONSE	        M2	2	12	C4	press
801.946	n/a	RESPONSE	        M2	2	14	D4	release
802.449	7.758	FIXCROSS	n/a	n/a	n/a	n/a	n/a
802.666	n/a	RESPONSE	        M2	2	12	C4	release
810.207	6.325	CUE_LISTEN	        M8	1	n/a	n/a	n/a
816.532	7.758	FIXCROSS	n/a	n/a	n/a	n/a	n/a
824.291	6.317	CUE_PLAYBACK_RIGHT_HAND	        M8	1	n/a	n/a	n/a
824.885	n/a	RESPONSE	        M8	1	16	E4	press
825.224	n/a	RESPONSE	        M8	1	19	G4	press
825.385	n/a	RESPONSE	        M8	1	16	E4	release
825.526	n/a	RESPONSE	        M8	1	23	B4	press
825.697	n/a	RESPONSE	        M8	1	19	G4	release
825.919	n/a	RESPONSE	        M8	1	23	B4	release
826.07	n/a	RESPONSE	        M8	1	23	B4	press
826.631	n/a	RESPONSE	        M8	1	18	F#4	press
826.682	n/a	RESPONSE	        M8	1	23	B4	release
827.104	n/a	RESPONSE	        M8	1	21	A4	press
827.165	n/a	RESPONSE	        M8	1	18	F#4	release
828.176	n/a	RESPONSE	        M8	1	23	B4	press
828.247	n/a	RESPONSE	        M8	1	21	A4	release
828.909	n/a	RESPONSE	        M8	1	21	A4	press
829.08	n/a	RESPONSE	        M8	1	23	B4	release
829.251	n/a	RESPONSE	        M8	1	19	G4	press
829.575	n/a	RESPONSE	        M8	1	18	F#4	press
829.649	n/a	RESPONSE	        M8	1	21	A4	release
829.739	n/a	RESPONSE	        M8	1	19	G4	release
829.916	n/a	RESPONSE	        M8	1	16	E4	press
829.962	n/a	RESPONSE	        M8	1	18	F#4	release
830.49	n/a	RESPONSE	        M8	1	23	B4	press
830.601	n/a	RESPONSE	        M8	1	16	E4	release
830.607	7.759	FIXCROSS	n/a	n/a	n/a	n/a	n/a
831.57	n/a	RESPONSE	        M8	1	23	B4	release
838.366	6.317	CUE_LISTEN	        M8	2	n/a	n/a	n/a
844.682	7.758	FIXCROSS	n/a	n/a	n/a	n/a	n/a
852.441	6.325	CUE_PLAYBACK_RIGHT_HAND	        M8	2	n/a	n/a	n/a
852.995	n/a	RESPONSE	        M8	2	16	E4	press
853.329	n/a	RESPONSE	        M8	2	19	G4	press
853.43	n/a	RESPONSE	        M8	2	16	E4	release
853.649	n/a	RESPONSE	        M8	2	23	B4	press
853.74	n/a	RESPONSE	        M8	2	19	G4	release
854.141	n/a	RESPONSE	        M8	2	23	B4	release
854.272	n/a	RESPONSE	        M8	2	23	B4	press
854.876	n/a	RESPONSE	        M8	2	18	F#4	press
854.935	n/a	RESPONSE	        M8	2	23	B4	release
855.469	n/a	RESPONSE	        M8	2	21	A4	press
855.537	n/a	RESPONSE	        M8	2	18	F#4	release
856.539	n/a	RESPONSE	        M8	2	23	B4	press
856.601	n/a	RESPONSE	        M8	2	21	A4	release
857.354	n/a	RESPONSE	        M8	2	21	A4	press
857.484	n/a	RESPONSE	        M8	2	23	B4	release
857.694	n/a	RESPONSE	        M8	2	19	G4	press
857.827	n/a	RESPONSE	        M8	2	21	A4	release
858.036	n/a	RESPONSE	        M8	2	18	F#4	press
858.11	n/a	RESPONSE	        M8	2	19	G4	release
858.359	n/a	RESPONSE	        M8	2	19	G4	press
858.422	n/a	RESPONSE	        M8	2	18	F#4	release
858.766	7.758	FIXCROSS	n/a	n/a	n/a	n/a	n/a
858.941	n/a	RESPONSE	        M8	2	16	E4	press
859.002	n/a	RESPONSE	        M8	2	19	G4	release
859.956	n/a	RESPONSE	        M8	2	16	E4	release
866.524	6.317	CUE_LISTEN	        M6	1	n/a	n/a	n/a
872.841	7.758	FIXCROSS	n/a	n/a	n/a	n/a	n/a
880.599	6.317	CUE_PLAYBACK_BOTH_HANDS	        M6	1	n/a	n/a	n/a
881.18	n/a	RESPONSE	        M6	1	05	F3	press
881.182	n/a	RESPONSE	        M6	1	12	C4	press
881.186	n/a	RESPONSE	        M6	1	09	A3	press
881.712	n/a	RESPONSE	        M6	1	17	F4	press
882.151	n/a	RESPONSE	        M6	1	21	A4	press
882.189	n/a	RESPONSE	        M6	1	17	F4	release
882.64	n/a	RESPONSE	        M6	1	19	G4	press
882.742	n/a	RESPONSE	        M6	1	21	A4	release
883.101	n/a	RESPONSE	        M6	1	17	F4	press
883.205	n/a	RESPONSE	        M6	1	19	G4	release
883.544	n/a	RESPONSE	        M6	1	16	E4	press
883.615	n/a	RESPONSE	        M6	1	17	F4	release
883.936	n/a	RESPONSE	        M6	1	17	F4	press
883.999	n/a	RESPONSE	        M6	1	16	E4	release
884.579	n/a	RESPONSE	        M6	1	17	F4	release
884.59	n/a	RESPONSE	        M6	1	09	A3	release
884.601	n/a	RESPONSE	        M6	1	05	F3	release
884.652	n/a	RESPONSE	        M6	1	12	C4	release
884.876	n/a	RESPONSE	        M6	1	12	C4	press
884.885	n/a	RESPONSE	        M6	1	05	F3	press
884.887	n/a	RESPONSE	        M6	1	09	A3	press
885.327	n/a	RESPONSE	        M6	1	17	F4	press
885.759	n/a	RESPONSE	        M6	1	21	A4	press
885.82	n/a	RESPONSE	        M6	1	17	F4	release
886.222	n/a	RESPONSE	        M6	1	19	G4	press
886.342	n/a	RESPONSE	        M6	1	21	A4	release
886.664	n/a	RESPONSE	        M6	1	17	F4	press
886.916	7.758	FIXCROSS	n/a	n/a	n/a	n/a	n/a
887.065	n/a	RESPONSE	        M6	1	16	E4	press
887.116	n/a	RESPONSE	        M6	1	17	F4	release
887.13	n/a	RESPONSE	        M6	1	19	G4	release
887.489	n/a	RESPONSE	        M6	1	17	F4	press
887.57	n/a	RESPONSE	        M6	1	16	E4	release
888.534	n/a	RESPONSE	        M6	1	17	F4	release
888.552	n/a	RESPONSE	        M6	1	05	F3	release
888.584	n/a	RESPONSE	        M6	1	09	A3	release
891.852	n/a	RESPONSE	        M6	1	12	C4	release
894.674	6.325	CUE_LISTEN	        M6	2	n/a	n/a	n/a
900.999	7.758	FIXCROSS	n/a	n/a	n/a	n/a	n/a
908.758	194.824	CUE_PLAYBACK_BOTH_HANDS	        M6	2	n/a	n/a	n/a
909.61	n/a	RESPONSE	        M6	2	12	C4	press
909.612	n/a	RESPONSE	        M6	2	09	A3	press
909.619	n/a	RESPONSE	        M6	2	05	F3	press
910.067	n/a	RESPONSE	        M6	2	17	F4	press
910.697	n/a	RESPONSE	        M6	2	21	A4	press
910.85	n/a	RESPONSE	        M6	2	17	F4	release
911.169	n/a	RESPONSE	        M6	2	24	C5	press
911.252	n/a	RESPONSE	        M6	2	21	A4	release
911.4	n/a	RESPONSE	        M6	2	05	F3	release
911.459	n/a	RESPONSE	        M6	2	09	A3	release
911.871	n/a	RESPONSE	        M6	2	04	E3	press
911.901	n/a	RESPONSE	        M6	2	22	A#4	press
911.905	n/a	RESPONSE	        M6	2	09	A3	press
911.989	n/a	RESPONSE	        M6	2	24	C5	release
912.501	n/a	RESPONSE	        M6	2	21	A4	press
912.636	n/a	RESPONSE	        M6	2	22	A#4	release
912.972	n/a	RESPONSE	        M6	2	19	G4	press
913.144	n/a	RESPONSE	        M6	2	21	A4	release
913.25	n/a	FIXCROSS	n/a	n/a	n/a	n/a	n/a
913.625	n/a	RESPONSE	        M6	2	04	E3	release
913.696	n/a	RESPONSE	        M6	2	09	A3	release
913.737	n/a	RESPONSE	        M6	2	19	G4	release
914.08	n/a	RESPONSE	        M6	2	05	F3	press
914.082	n/a	RESPONSE	        M6	2	09	A3	press
914.611	n/a	RESPONSE	        M6	2	16	E4	press
915.112	n/a	RESPONSE	        M6	2	19	G4	press
915.184	n/a	RESPONSE	        M6	2	16	E4	release
915.765	n/a	RESPONSE	        M6	2	22	A#4	press
915.836	n/a	RESPONSE	        M6	2	19	G4	release
916.138	n/a	RESPONSE	        M6	2	09	A3	release
916.159	n/a	RESPONSE	        M6	2	05	F3	release
919.144	n/a	RESPONSE	        M6	2	21	A4	press
919.152	n/a	RESPONSE	        M6	2	09	A3	press
919.155	n/a	RESPONSE	        M6	2	05	F3	press
919.217	n/a	RESPONSE	        M6	2	22	A#4	release
919.642	n/a	RESPONSE	        M6	2	19	G4	press
919.769	n/a	RESPONSE	        M6	2	21	A4	release
920.095	n/a	RESPONSE	        M6	2	17	F4	press
920.24	n/a	RESPONSE	        M6	2	19	G4	release
921.2	n/a	RESPONSE	        M6	2	17	F4	release
921.214	n/a	RESPONSE	        M6	2	09	A3	release
921.261	n/a	RESPONSE	        M6	2	05	F3	release
921.364	n/a	RESPONSE	        M6	2	12	C4	release
