onset	duration	trial_type	n_back_condition	trial_number	stimulus	response_type
0.0	n/a	RESPONSE	n/a	n/a	n/a	n/a
0.06	1.0167	ISI	n/a	n/a	n/a	n/a
1.0766	0.5167	DISTRACTOR	1	1	F	Correct Rejection
1.5933	1.0167	ISI	n/a	n/a	n/a	n/a
2.61	0.5167	DISTRACTOR	1	2	I	Correct Rejection
3.1266	1.0167	ISI	n/a	n/a	n/a	n/a
4.1433	0.5167	TARGET	1	3	I	Hit
4.618	n/a	RESPONSE	n/a	n/a	n/a	n/a
4.66	1.0167	ISI	n/a	n/a	n/a	n/a
5.6767	0.5167	DISTRACTOR	1	4	F	Correct Rejection
6.1933	1.0167	ISI	n/a	n/a	n/a	n/a
7.21	0.5167	DISTRACTOR	1	5	C	Correct Rejection
7.7267	1.0167	ISI	n/a	n/a	n/a	n/a
8.7434	0.5167	DISTRACTOR	1	6	F	Correct Rejection
9.26	1.0167	ISI	n/a	n/a	n/a	n/a
10.2767	0.5167	DISTRACTOR	1	7	G	Correct Rejection
10.7934	1.0167	ISI	n/a	n/a	n/a	n/a
11.81	0.5167	DISTRACTOR	1	8	B	Correct Rejection
12.3267	1.0167	ISI	n/a	n/a	n/a	n/a
13.3434	0.5167	DISTRACTOR	1	9	C	Correct Rejection
13.8601	1.0167	ISI	n/a	n/a	n/a	n/a
14.8767	0.5167	TARGET	1	10	C	Hit
15.26	n/a	RESPONSE	n/a	n/a	n/a	n/a
15.3934	1.0167	ISI	n/a	n/a	n/a	n/a
16.4101	0.5167	DISTRACTOR	1	11	A	Correct Rejection
16.9268	1.0167	ISI	n/a	n/a	n/a	n/a
17.9434	0.5167	DISTRACTOR	1	12	I	Correct Rejection
18.4601	1.0167	ISI	n/a	n/a	n/a	n/a
19.4768	0.5167	TARGET	1	13	I	Hit
19.9418	n/a	RESPONSE	n/a	n/a	n/a	n/a
19.9935	1.0167	ISI	n/a	n/a	n/a	n/a
21.0101	0.5167	TARGET	1	14	I	Hit
21.4918	n/a	RESPONSE	n/a	n/a	n/a	n/a
21.5268	1.0167	ISI	n/a	n/a	n/a	n/a
22.5435	0.5167	DISTRACTOR	1	15	B	Correct Rejection
23.0601	1.0167	ISI	n/a	n/a	n/a	n/a
24.0768	0.5167	DISTRACTOR	1	16	C	Correct Rejection
24.5935	1.0167	ISI	n/a	n/a	n/a	n/a
25.6102	0.5167	DISTRACTOR	1	17	I	Correct Rejection
26.1268	1.0167	ISI	n/a	n/a	n/a	n/a
27.1435	0.5167	TARGET	1	18	I	Hit
27.4839	n/a	RESPONSE	n/a	n/a	n/a	n/a
27.6602	1.0167	ISI	n/a	n/a	n/a	n/a
28.6769	0.5167	DISTRACTOR	1	19	J	Correct Rejection
29.1935	1.0167	ISI	n/a	n/a	n/a	n/a
30.2102	0.5167	DISTRACTOR	1	20	D	Correct Rejection
30.7269	1.0167	ISI	n/a	n/a	n/a	n/a
31.7435	0.5167	DISTRACTOR	1	21	B	Correct Rejection
32.2602	1.0167	ISI	n/a	n/a	n/a	n/a
33.2769	0.5167	TARGET	1	22	B	Hit
33.5719	n/a	RESPONSE	n/a	n/a	n/a	n/a
33.7935	1.0167	ISI	n/a	n/a	n/a	n/a
34.8102	0.5167	TARGET	1	23	B	Hit
35.3269	1.0167	ISI	n/a	n/a	n/a	n/a
35.3296	n/a	RESPONSE	n/a	n/a	n/a	n/a
36.3436	0.5167	DISTRACTOR	1	24	J	Correct Rejection
36.8602	1.0167	ISI	n/a	n/a	n/a	n/a
37.8769	0.5167	DISTRACTOR	1	25	H	Correct Rejection
38.3936	1.0167	ISI	n/a	n/a	n/a	n/a
39.4103	0.5167	DISTRACTOR	1	26	C	Correct Rejection
39.9269	1.0167	ISI	n/a	n/a	n/a	n/a
40.9436	0.5167	DISTRACTOR	1	27	B	Correct Rejection
41.4603	1.0167	ISI	n/a	n/a	n/a	n/a
42.477	0.5167	DISTRACTOR	1	28	G	Correct Rejection
42.9936	1.0167	ISI	n/a	n/a	n/a	n/a
44.0103	0.5167	DISTRACTOR	1	29	B	Correct Rejection
44.527	1.0167	ISI	n/a	n/a	n/a	n/a
45.5437	0.5167	DISTRACTOR	1	30	H	Correct Rejection
46.0603	1.0167	ISI	n/a	n/a	n/a	n/a
47.077	0.5167	DISTRACTOR	1	31	C	Correct Rejection
47.5937	1.0167	ISI	n/a	n/a	n/a	n/a
48.6103	0.5167	DISTRACTOR	1	32	F	Correct Rejection
49.127	1.0167	ISI	n/a	n/a	n/a	n/a
50.1437	0.5167	TARGET	1	33	F	Hit
50.6215	n/a	RESPONSE	n/a	n/a	n/a	n/a
50.6604	1.0167	ISI	n/a	n/a	n/a	n/a
51.677	0.5167	DISTRACTOR	1	34	D	Correct Rejection
52.1937	1.0167	ISI	n/a	n/a	n/a	n/a
53.2104	0.5167	DISTRACTOR	1	35	I	Correct Rejection
53.727	1.0167	ISI	n/a	n/a	n/a	n/a
54.7437	0.5167	DISTRACTOR	1	36	H	Correct Rejection
55.2604	1.0167	ISI	n/a	n/a	n/a	n/a
56.2771	0.5167	DISTRACTOR	1	37	J	Correct Rejection
56.7937	1.0167	ISI	n/a	n/a	n/a	n/a
57.8104	0.5167	DISTRACTOR	1	38	B	Correct Rejection
58.3271	1.0167	ISI	n/a	n/a	n/a	n/a
59.3438	0.5167	TARGET	1	39	B	Hit
59.7135	n/a	RESPONSE	n/a	n/a	n/a	n/a
59.8604	1.0167	ISI	n/a	n/a	n/a	n/a
60.8771	0.5167	DISTRACTOR	1	40	I	Correct Rejection
61.3938	1.0167	ISI	n/a	n/a	n/a	n/a
62.4104	0.5167	DISTRACTOR	1	41	J	Correct Rejection
62.9271	1.0167	ISI	n/a	n/a	n/a	n/a
63.9438	0.5167	DISTRACTOR	1	42	A	Correct Rejection
64.4605	1.0167	ISI	n/a	n/a	n/a	n/a
65.4771	0.5167	DISTRACTOR	1	43	F	Correct Rejection
65.9938	1.0167	ISI	n/a	n/a	n/a	n/a
67.0105	0.5167	TARGET	1	44	F	Hit
67.4953	n/a	RESPONSE	n/a	n/a	n/a	n/a
67.5272	1.0167	ISI	n/a	n/a	n/a	n/a
68.5438	0.5167	DISTRACTOR	1	45	J	Correct Rejection
69.0605	1.0167	ISI	n/a	n/a	n/a	n/a
70.0772	0.5167	DISTRACTOR	1	46	C	Correct Rejection
70.5938	1.0167	ISI	n/a	n/a	n/a	n/a
71.6105	0.5167	DISTRACTOR	1	47	I	Correct Rejection
72.1272	1.0167	ISI	n/a	n/a	n/a	n/a
73.1439	0.5167	DISTRACTOR	1	48	F	Correct Rejection
73.6605	1.0167	ISI	n/a	n/a	n/a	n/a
74.6772	0.5167	DISTRACTOR	1	49	B	Correct Rejection
75.1939	1.0167	ISI	n/a	n/a	n/a	n/a
76.2105	0.5167	DISTRACTOR	1	50	G	Correct Rejection
76.7272	1.1167	ISI	n/a	n/a	n/a	n/a
86.159	n/a	RESPONSE	n/a	n/a	n/a	n/a
86.2273	1.0167	ISI	n/a	n/a	n/a	n/a
87.244	0.5167	DISTRACTOR	2	1	B	Correct Rejection
87.7606	1.0167	ISI	n/a	n/a	n/a	n/a
88.7773	0.5167	DISTRACTOR	2	2	I	Correct Rejection
89.294	1.0167	ISI	n/a	n/a	n/a	n/a
90.3107	0.5167	DISTRACTOR	2	3	F	Correct Rejection
90.8273	1.0167	ISI	n/a	n/a	n/a	n/a
91.844	0.5167	DISTRACTOR	2	4	E	Correct Rejection
92.3607	1.0167	ISI	n/a	n/a	n/a	n/a
93.3773	0.5167	DISTRACTOR	2	5	H	Correct Rejection
93.894	1.0167	ISI	n/a	n/a	n/a	n/a
94.9107	0.5167	DISTRACTOR	2	6	H	Correct Rejection
95.4274	1.0167	ISI	n/a	n/a	n/a	n/a
96.444	0.5167	DISTRACTOR	2	7	G	Correct Rejection
96.9607	1.0167	ISI	n/a	n/a	n/a	n/a
97.9774	0.5167	TARGET	2	8	H	Hit
98.4941	1.0167	ISI	n/a	n/a	n/a	n/a
98.5267	n/a	RESPONSE	n/a	n/a	n/a	n/a
99.5107	0.5167	DISTRACTOR	2	9	D	Correct Rejection
100.0274	1.0167	ISI	n/a	n/a	n/a	n/a
101.0441	0.5167	TARGET	2	10	H	Hit
101.5607	1.0167	ISI	n/a	n/a	n/a	n/a
101.6267	n/a	RESPONSE	n/a	n/a	n/a	n/a
102.5774	0.5167	DISTRACTOR	2	11	B	Correct Rejection
103.0941	1.0167	ISI	n/a	n/a	n/a	n/a
104.1108	0.5167	TARGET	2	12	H	Hit
104.5828	n/a	RESPONSE	n/a	n/a	n/a	n/a
104.6274	1.0167	ISI	n/a	n/a	n/a	n/a
105.6441	0.5167	DISTRACTOR	2	13	E	Correct Rejection
106.1608	1.0167	ISI	n/a	n/a	n/a	n/a
107.1775	0.5167	DISTRACTOR	2	14	F	Correct Rejection
107.6941	1.0167	ISI	n/a	n/a	n/a	n/a
108.7108	0.5167	DISTRACTOR	2	15	H	Correct Rejection
109.2275	1.0167	ISI	n/a	n/a	n/a	n/a
110.2441	0.5167	DISTRACTOR	2	16	A	Correct Rejection
110.7608	1.0167	ISI	n/a	n/a	n/a	n/a
111.7775	0.5167	DISTRACTOR	2	17	A	Correct Rejection
112.2942	1.0167	ISI	n/a	n/a	n/a	n/a
113.3108	0.5167	DISTRACTOR	2	18	E	Correct Rejection
113.8275	1.0167	ISI	n/a	n/a	n/a	n/a
114.8442	0.5167	DISTRACTOR	2	19	E	False Alarm
115.3608	1.0167	ISI	n/a	n/a	n/a	n/a
115.6402	n/a	RESPONSE	n/a	n/a	n/a	n/a
116.3775	0.5167	DISTRACTOR	2	20	A	Correct Rejection
116.8942	1.0167	ISI	n/a	n/a	n/a	n/a
117.9109	0.5167	TARGET	2	21	E	Hit
118.4275	1.0167	ISI	n/a	n/a	n/a	n/a
118.8041	n/a	RESPONSE	n/a	n/a	n/a	n/a
119.4442	0.5167	DISTRACTOR	2	22	C	Correct Rejection
119.9609	1.0167	ISI	n/a	n/a	n/a	n/a
120.9776	0.5167	DISTRACTOR	2	23	C	Correct Rejection
121.4942	1.0167	ISI	n/a	n/a	n/a	n/a
122.5109	0.5167	DISTRACTOR	2	24	E	Correct Rejection
123.0276	1.0167	ISI	n/a	n/a	n/a	n/a
124.0442	0.5167	TARGET	2	25	C	Hit
124.3808	n/a	RESPONSE	n/a	n/a	n/a	n/a
124.5609	1.0167	ISI	n/a	n/a	n/a	n/a
125.5776	0.5167	TARGET	2	26	E	Hit
126.0943	1.0167	ISI	n/a	n/a	n/a	n/a
126.1704	n/a	RESPONSE	n/a	n/a	n/a	n/a
127.1109	0.5167	DISTRACTOR	2	27	A	Correct Rejection
127.6276	1.0167	ISI	n/a	n/a	n/a	n/a
128.6443	0.5167	DISTRACTOR	2	28	F	Correct Rejection
129.1609	1.0167	ISI	n/a	n/a	n/a	n/a
130.1776	0.5167	DISTRACTOR	2	29	G	Correct Rejection
130.6943	1.0167	ISI	n/a	n/a	n/a	n/a
131.711	0.5167	DISTRACTOR	2	30	D	Correct Rejection
132.2276	1.0167	ISI	n/a	n/a	n/a	n/a
133.2443	0.5167	DISTRACTOR	2	31	J	Correct Rejection
133.761	1.0167	ISI	n/a	n/a	n/a	n/a
134.7777	0.5167	DISTRACTOR	2	32	J	Correct Rejection
135.2943	1.0167	ISI	n/a	n/a	n/a	n/a
136.311	0.5167	DISTRACTOR	2	33	F	Correct Rejection
136.8277	1.0167	ISI	n/a	n/a	n/a	n/a
137.8443	0.5167	DISTRACTOR	2	34	C	Correct Rejection
138.361	1.0167	ISI	n/a	n/a	n/a	n/a
139.3777	0.5167	DISTRACTOR	2	35	D	Correct Rejection
139.8944	1.0167	ISI	n/a	n/a	n/a	n/a
140.911	0.5167	DISTRACTOR	2	36	E	Correct Rejection
141.4277	1.0167	ISI	n/a	n/a	n/a	n/a
142.4444	0.5167	DISTRACTOR	2	37	H	Correct Rejection
142.961	1.0167	ISI	n/a	n/a	n/a	n/a
143.9777	0.5167	DISTRACTOR	2	38	F	Correct Rejection
144.4944	1.0167	ISI	n/a	n/a	n/a	n/a
145.5111	0.5167	DISTRACTOR	2	39	D	False Alarm
146.0277	1.0167	ISI	n/a	n/a	n/a	n/a
146.0483	n/a	RESPONSE	n/a	n/a	n/a	n/a
147.0444	0.5167	TARGET	2	40	F	Hit
147.5611	1.0167	ISI	n/a	n/a	n/a	n/a
147.8539	n/a	RESPONSE	n/a	n/a	n/a	n/a
148.5778	0.5167	DISTRACTOR	2	41	F	False Alarm
149.0944	1.0167	ISI	n/a	n/a	n/a	n/a
149.2761	n/a	RESPONSE	n/a	n/a	n/a	n/a
150.1111	0.5167	DISTRACTOR	2	42	B	Correct Rejection
150.6278	1.0167	ISI	n/a	n/a	n/a	n/a
151.6445	0.5167	DISTRACTOR	2	43	G	Correct Rejection
152.1611	1.0167	ISI	n/a	n/a	n/a	n/a
153.1778	0.5167	DISTRACTOR	2	44	G	Correct Rejection
153.6945	1.0167	ISI	n/a	n/a	n/a	n/a
154.7111	0.5167	TARGET	2	45	G	Hit
155.0605	n/a	RESPONSE	n/a	n/a	n/a	n/a
155.2278	1.0167	ISI	n/a	n/a	n/a	n/a
156.2445	0.5167	TARGET	2	46	G	Hit
156.6584	n/a	RESPONSE	n/a	n/a	n/a	n/a
156.7612	1.0167	ISI	n/a	n/a	n/a	n/a
157.7778	0.5167	DISTRACTOR	2	47	I	Correct Rejection
158.2945	1.0167	ISI	n/a	n/a	n/a	n/a
159.3112	0.5167	DISTRACTOR	2	48	B	Correct Rejection
159.8278	1.0167	ISI	n/a	n/a	n/a	n/a
160.8445	0.5167	TARGET	2	49	I	Hit
161.1805	n/a	RESPONSE	n/a	n/a	n/a	n/a
161.3612	1.0167	ISI	n/a	n/a	n/a	n/a
162.3779	0.5167	DISTRACTOR	2	50	G	Correct Rejection
162.8945	1.0833	ISI	n/a	n/a	n/a	n/a
178.9649	n/a	RESPONSE	n/a	n/a	n/a	n/a
179.028	1.0167	ISI	n/a	n/a	n/a	n/a
180.0447	0.5167	DISTRACTOR	3	1	E	Correct Rejection
180.5613	1.0167	ISI	n/a	n/a	n/a	n/a
181.578	0.5167	DISTRACTOR	3	2	E	Correct Rejection
182.0947	1.0167	ISI	n/a	n/a	n/a	n/a
183.1113	0.5167	DISTRACTOR	3	3	C	Correct Rejection
183.628	1.0167	ISI	n/a	n/a	n/a	n/a
184.6447	0.5167	TARGET	3	4	E	Hit
184.9889	n/a	RESPONSE	n/a	n/a	n/a	n/a
185.1614	1.0167	ISI	n/a	n/a	n/a	n/a
186.178	0.5167	DISTRACTOR	3	5	H	Correct Rejection
186.6947	1.0167	ISI	n/a	n/a	n/a	n/a
187.7114	0.5167	DISTRACTOR	3	6	D	Correct Rejection
188.2281	1.0167	ISI	n/a	n/a	n/a	n/a
189.2447	0.5167	DISTRACTOR	3	7	F	Correct Rejection
189.7614	1.0167	ISI	n/a	n/a	n/a	n/a
190.7781	0.5167	DISTRACTOR	3	8	B	Correct Rejection
191.2947	1.0167	ISI	n/a	n/a	n/a	n/a
192.3114	0.5167	TARGET	3	9	D	Miss
192.8281	1.0167	ISI	n/a	n/a	n/a	n/a
193.8448	0.5167	DISTRACTOR	3	10	B	Correct Rejection
194.3614	1.0167	ISI	n/a	n/a	n/a	n/a
195.3781	0.5167	DISTRACTOR	3	11	G	False Alarm
195.8948	1.0167	ISI	n/a	n/a	n/a	n/a
195.9983	n/a	RESPONSE	n/a	n/a	n/a	n/a
196.9115	0.5167	DISTRACTOR	3	12	H	False Alarm
197.4281	1.0167	ISI	n/a	n/a	n/a	n/a
197.4843	n/a	RESPONSE	n/a	n/a	n/a	n/a
198.4448	0.5167	DISTRACTOR	3	13	D	Correct Rejection
198.9615	1.0167	ISI	n/a	n/a	n/a	n/a
199.9781	0.5167	DISTRACTOR	3	14	I	Correct Rejection
200.4948	1.0167	ISI	n/a	n/a	n/a	n/a
201.5115	0.5167	DISTRACTOR	3	15	F	Correct Rejection
202.0282	1.0167	ISI	n/a	n/a	n/a	n/a
203.0448	0.5167	DISTRACTOR	3	16	F	False Alarm
203.5615	1.0167	ISI	n/a	n/a	n/a	n/a
203.6042	n/a	RESPONSE	n/a	n/a	n/a	n/a
204.5782	0.5167	DISTRACTOR	3	17	A	Correct Rejection
205.0948	1.0167	ISI	n/a	n/a	n/a	n/a
206.1115	0.5167	DISTRACTOR	3	18	G	Correct Rejection
206.6282	1.0167	ISI	n/a	n/a	n/a	n/a
207.6449	0.5167	DISTRACTOR	3	19	G	Correct Rejection
208.1615	1.0167	ISI	n/a	n/a	n/a	n/a
209.1782	0.5167	TARGET	3	20	A	Hit
209.6949	1.0167	ISI	n/a	n/a	n/a	n/a
209.756	n/a	RESPONSE	n/a	n/a	n/a	n/a
210.7116	0.5167	DISTRACTOR	3	21	D	Correct Rejection
211.2282	1.0167	ISI	n/a	n/a	n/a	n/a
212.2449	0.5167	DISTRACTOR	3	22	B	Correct Rejection
212.7616	1.0167	ISI	n/a	n/a	n/a	n/a
213.7782	0.5167	TARGET	3	23	A	Miss
214.2949	1.0167	ISI	n/a	n/a	n/a	n/a
215.3116	0.5167	TARGET	3	24	D	Hit
215.6202	n/a	RESPONSE	n/a	n/a	n/a	n/a
215.8283	1.0167	ISI	n/a	n/a	n/a	n/a
216.8449	0.5167	DISTRACTOR	3	25	D	Correct Rejection
217.3616	1.0167	ISI	n/a	n/a	n/a	n/a
218.3783	0.5167	TARGET	3	26	A	Hit
218.8949	1.0167	ISI	n/a	n/a	n/a	n/a
218.9119	n/a	RESPONSE	n/a	n/a	n/a	n/a
219.9116	0.5167	DISTRACTOR	3	27	C	Correct Rejection
220.4283	1.0167	ISI	n/a	n/a	n/a	n/a
221.445	0.5167	DISTRACTOR	3	28	J	Correct Rejection
221.9616	1.0167	ISI	n/a	n/a	n/a	n/a
222.9783	0.5167	TARGET	3	29	A	Miss
223.495	1.0167	ISI	n/a	n/a	n/a	n/a
224.5116	0.5167	DISTRACTOR	3	30	A	Correct Rejection
225.0283	1.0167	ISI	n/a	n/a	n/a	n/a
226.045	0.5167	DISTRACTOR	3	31	G	Correct Rejection
226.5617	1.0167	ISI	n/a	n/a	n/a	n/a
227.5783	0.5167	DISTRACTOR	3	32	D	Correct Rejection
228.095	1.0167	ISI	n/a	n/a	n/a	n/a
229.1117	0.5167	DISTRACTOR	3	33	G	Correct Rejection
229.6284	1.0167	ISI	n/a	n/a	n/a	n/a
230.645	0.5167	DISTRACTOR	3	34	I	Correct Rejection
231.1617	1.0167	ISI	n/a	n/a	n/a	n/a
232.1784	0.5167	DISTRACTOR	3	35	A	False Alarm
232.5897	n/a	RESPONSE	n/a	n/a	n/a	n/a
232.695	1.0167	ISI	n/a	n/a	n/a	n/a
233.7117	0.5167	DISTRACTOR	3	36	H	Correct Rejection
234.2284	1.0167	ISI	n/a	n/a	n/a	n/a
235.2451	0.5167	DISTRACTOR	3	37	J	Correct Rejection
235.7617	1.0167	ISI	n/a	n/a	n/a	n/a
236.7784	0.5167	TARGET	3	38	A	Hit
237.1277	n/a	RESPONSE	n/a	n/a	n/a	n/a
237.2951	1.0167	ISI	n/a	n/a	n/a	n/a
238.3118	0.5167	DISTRACTOR	3	39	G	Correct Rejection
238.8284	1.0167	ISI	n/a	n/a	n/a	n/a
239.8451	0.5167	TARGET	3	40	J	Hit
240.3394	n/a	RESPONSE	n/a	n/a	n/a	n/a
240.3618	1.0167	ISI	n/a	n/a	n/a	n/a
241.3784	0.5167	DISTRACTOR	3	41	H	Correct Rejection
241.8951	1.0167	ISI	n/a	n/a	n/a	n/a
242.9118	0.5167	TARGET	3	42	G	Miss
243.4285	1.0167	ISI	n/a	n/a	n/a	n/a
244.4451	0.5167	DISTRACTOR	3	43	A	Correct Rejection
244.9618	1.0167	ISI	n/a	n/a	n/a	n/a
245.9785	0.5167	DISTRACTOR	3	44	I	Correct Rejection
246.4951	1.0167	ISI	n/a	n/a	n/a	n/a
247.5118	0.5167	DISTRACTOR	3	45	J	Correct Rejection
248.0285	1.0167	ISI	n/a	n/a	n/a	n/a
249.0452	0.5167	DISTRACTOR	3	46	I	Correct Rejection
249.5618	1.0167	ISI	n/a	n/a	n/a	n/a
250.5785	0.5167	DISTRACTOR	3	47	A	False Alarm
251.0613	n/a	RESPONSE	n/a	n/a	n/a	n/a
251.0952	1.0167	ISI	n/a	n/a	n/a	n/a
252.1119	0.5167	DISTRACTOR	3	48	C	Correct Rejection
252.6285	1.0167	ISI	n/a	n/a	n/a	n/a
253.6452	0.5167	DISTRACTOR	3	49	H	Correct Rejection
254.1619	1.0167	ISI	n/a	n/a	n/a	n/a
255.1785	0.5167	DISTRACTOR	3	50	J	Correct Rejection
255.6952	1.0333	ISI	n/a	n/a	n/a	n/a
258.779	n/a	RESPONSE	n/a	n/a	n/a	n/a
