onset	duration	condition	trial_type	braille_stimulus	response_val	response_type
2.018	2.008	6_DOT_DETECTION	CUE	n/a	n/a	n/a
7.018	1.008	6_DOT_DETECTION	FIXCROSS	n/a	n/a	n/a
8.034	5.009	6_DOT_DETECTION	NO_6-DOT	SES-TP-1_TASK-LDTTACTBRA_WORD-KŁMLK	n/a	n/a
11.936	n/a	6_DOT_DETECTION	RESPONSE	n/a	NO	CORRECT_REJECTION
15.068	1.008	6_DOT_DETECTION	FIXCROSS	n/a	n/a	n/a
16.085	5.008	6_DOT_DETECTION	NO_6-DOT	SES-TP-1_TASK-LDTTACTBRA_WORD-PŁKL	n/a	n/a
19.56	n/a	6_DOT_DETECTION	RESPONSE	n/a	NO	CORRECT_REJECTION
23.118	1.008	6_DOT_DETECTION	FIXCROSS	n/a	n/a	n/a
24.135	5.008	6_DOT_DETECTION	6-DOT	SES-TP-1_TASK-LDTTACTBRA_WORD-#M#ŁS	n/a	n/a
27.28	n/a	6_DOT_DETECTION	RESPONSE	n/a	YES	HIT
31.168	1.008	6_DOT_DETECTION	FIXCROSS	n/a	n/a	n/a
32.185	5.008	6_DOT_DETECTION	6-DOT	SES-TP-1_TASK-LDTTACTBRA_WORD-KB##	n/a	n/a
35.216	n/a	6_DOT_DETECTION	RESPONSE	n/a	YES	HIT
39.218	1.008	6_DOT_DETECTION	FIXCROSS	n/a	n/a	n/a
40.235	5.008	6_DOT_DETECTION	NO_6-DOT	SES-TP-1_TASK-LDTTACTBRA_WORD-TKLKŁ	n/a	n/a
43.32	n/a	6_DOT_DETECTION	RESPONSE	n/a	NO	CORRECT_REJECTION
49.277	2.008	LEXICAL_DECISION	CUE	n/a	n/a	n/a
54.277	1.008	LEXICAL_DECISION	FIXCROSS	n/a	n/a	n/a
55.293	5.008	LEXICAL_DECISION	PSEUDOWORD	SES-TP-1_TASK-LDTTACTBRA_WORD-SEMA	n/a	n/a
58.896	n/a	LEXICAL_DECISION	RESPONSE	n/a	NO	CORRECT_REJECTION
62.327	1.008	LEXICAL_DECISION	FIXCROSS	n/a	n/a	n/a
63.343	5.008	LEXICAL_DECISION	WORD	SES-TP-1_TASK-LDTTACTBRA_WORD-TYPU	n/a	n/a
66.976	n/a	LEXICAL_DECISION	RESPONSE	n/a	YES	HIT
70.377	1.008	LEXICAL_DECISION	FIXCROSS	n/a	n/a	n/a
71.393	5.008	LEXICAL_DECISION	WORD	SES-TP-1_TASK-LDTTACTBRA_WORD-STEK	n/a	n/a
75.32	n/a	LEXICAL_DECISION	RESPONSE	n/a	NO	MISS
78.427	1.008	LEXICAL_DECISION	FIXCROSS	n/a	n/a	n/a
79.444	5.008	LEXICAL_DECISION	PSEUDOWORD	SES-TP-1_TASK-LDTTACTBRA_WORD-LIŁCU	n/a	n/a
82.376	n/a	LEXICAL_DECISION	RESPONSE	n/a	NO	CORRECT_REJECTION
86.477	1.008	LEXICAL_DECISION	FIXCROSS	n/a	n/a	n/a
87.494	5.008	LEXICAL_DECISION	WORD	SES-TP-1_TASK-LDTTACTBRA_WORD-TOPI	n/a	n/a
90.64	n/a	LEXICAL_DECISION	RESPONSE	n/a	NO	MISS
96.035	2.008	6_DOT_DETECTION	CUE	n/a	n/a	n/a
100.535	1.008	6_DOT_DETECTION	FIXCROSS	n/a	n/a	n/a
101.551	5.009	6_DOT_DETECTION	6-DOT	SES-TP-1_TASK-LDTTACTBRA_WORD-DK##L	n/a	n/a
104.976	n/a	6_DOT_DETECTION	RESPONSE	n/a	YES	HIT
108.585	1.008	6_DOT_DETECTION	FIXCROSS	n/a	n/a	n/a
109.602	5.008	6_DOT_DETECTION	NO_6-DOT	SES-TP-1_TASK-LDTTACTBRA_WORD-KDTLŁ	n/a	n/a
112.536	n/a	6_DOT_DETECTION	RESPONSE	n/a	NO	CORRECT_REJECTION
116.635	1.008	6_DOT_DETECTION	FIXCROSS	n/a	n/a	n/a
117.652	5.008	6_DOT_DETECTION	6-DOT	SES-TP-1_TASK-LDTTACTBRA_WORD-P#T#	n/a	n/a
121.256	n/a	6_DOT_DETECTION	RESPONSE	n/a	YES	HIT
124.685	1.008	6_DOT_DETECTION	FIXCROSS	n/a	n/a	n/a
125.702	5.008	6_DOT_DETECTION	NO_6-DOT	SES-TP-1_TASK-LDTTACTBRA_WORD-SSŁKM	n/a	n/a
128.592	n/a	6_DOT_DETECTION	RESPONSE	n/a	NO	CORRECT_REJECTION
132.735	1.008	6_DOT_DETECTION	FIXCROSS	n/a	n/a	n/a
133.752	5.008	6_DOT_DETECTION	NO_6-DOT	SES-TP-1_TASK-LDTTACTBRA_WORD-DDŁ	n/a	n/a
136.376	n/a	6_DOT_DETECTION	RESPONSE	n/a	NO	CORRECT_REJECTION
141.794	2.008	LEXICAL_DECISION	CUE	n/a	n/a	n/a
146.794	1.008	LEXICAL_DECISION	FIXCROSS	n/a	n/a	n/a
147.81	5.008	LEXICAL_DECISION	PSEUDOWORD	SES-TP-1_TASK-LDTTACTBRA_WORD-BYLU	n/a	n/a
151.176	n/a	LEXICAL_DECISION	RESPONSE	n/a	NO	CORRECT_REJECTION
154.844	1.008	LEXICAL_DECISION	FIXCROSS	n/a	n/a	n/a
155.86	5.008	LEXICAL_DECISION	PSEUDOWORD	SES-TP-1_TASK-LDTTACTBRA_WORD-OKCY	n/a	n/a
158.592	n/a	LEXICAL_DECISION	RESPONSE	n/a	YES	FALSE_ALARM
162.894	1.008	LEXICAL_DECISION	FIXCROSS	n/a	n/a	n/a
163.91	5.008	LEXICAL_DECISION	PSEUDOWORD	SES-TP-1_TASK-LDTTACTBRA_WORD-DOAST	n/a	n/a
166.536	n/a	LEXICAL_DECISION	RESPONSE	n/a	YES	FALSE_ALARM
170.944	1.008	LEXICAL_DECISION	FIXCROSS	n/a	n/a	n/a
171.96	5.008	LEXICAL_DECISION	WORD	SES-TP-1_TASK-LDTTACTBRA_WORD-SMOK	n/a	n/a
174.552	n/a	LEXICAL_DECISION	RESPONSE	n/a	YES	HIT
178.994	1.008	LEXICAL_DECISION	FIXCROSS	n/a	n/a	n/a
180.01	5.008	LEXICAL_DECISION	WORD	SES-TP-1_TASK-LDTTACTBRA_WORD-AKT	n/a	n/a
182.216	n/a	LEXICAL_DECISION	RESPONSE	n/a	NO	MISS
188.552	2.008	6_DOT_DETECTION	CUE	n/a	n/a	n/a
194.052	1.008	6_DOT_DETECTION	FIXCROSS	n/a	n/a	n/a
195.069	5.008	6_DOT_DETECTION	6-DOT	SES-TP-1_TASK-LDTTACTBRA_WORD-SŁ#M#	n/a	n/a
199.016	n/a	6_DOT_DETECTION	RESPONSE	n/a	YES	HIT
202.102	1.008	6_DOT_DETECTION	FIXCROSS	n/a	n/a	n/a
203.119	5.008	6_DOT_DETECTION	NO_6-DOT	SES-TP-1_TASK-LDTTACTBRA_WORD-KCTD	n/a	n/a
205.976	n/a	6_DOT_DETECTION	RESPONSE	n/a	NO	CORRECT_REJECTION
210.152	1.008	6_DOT_DETECTION	FIXCROSS	n/a	n/a	n/a
211.169	5.008	6_DOT_DETECTION	6-DOT	SES-TP-1_TASK-LDTTACTBRA_WORD-#KT#	n/a	n/a
214.112	n/a	6_DOT_DETECTION	RESPONSE	n/a	YES	HIT
218.202	1.009	6_DOT_DETECTION	FIXCROSS	n/a	n/a	n/a
219.219	5.008	6_DOT_DETECTION	6-DOT	SES-TP-1_TASK-LDTTACTBRA_WORD-P##Ł	n/a	n/a
222.112	n/a	6_DOT_DETECTION	RESPONSE	n/a	YES	HIT
226.252	1.008	6_DOT_DETECTION	FIXCROSS	n/a	n/a	n/a
227.269	5.008	6_DOT_DETECTION	NO_6-DOT	SES-TP-1_TASK-LDTTACTBRA_WORD-ŁMT	n/a	n/a
229.312	n/a	6_DOT_DETECTION	RESPONSE	n/a	NO	CORRECT_REJECTION
235.811	2.008	LEXICAL_DECISION	CUE	n/a	n/a	n/a
242.311	1.008	LEXICAL_DECISION	FIXCROSS	n/a	n/a	n/a
243.327	5.008	LEXICAL_DECISION	WORD	SES-TP-1_TASK-LDTTACTBRA_WORD-DOKI	n/a	n/a
247.392	n/a	LEXICAL_DECISION	RESPONSE	n/a	NO	MISS
250.361	1.008	LEXICAL_DECISION	FIXCROSS	n/a	n/a	n/a
251.378	5.008	LEXICAL_DECISION	PSEUDOWORD	SES-TP-1_TASK-LDTTACTBRA_WORD-DASY	n/a	n/a
253.816	n/a	LEXICAL_DECISION	RESPONSE	n/a	YES	FALSE_ALARM
258.411	1.008	LEXICAL_DECISION	FIXCROSS	n/a	n/a	n/a
259.428	5.008	LEXICAL_DECISION	WORD	SES-TP-1_TASK-LDTTACTBRA_WORD-ŁAPY	n/a	n/a
262.272	n/a	LEXICAL_DECISION	RESPONSE	n/a	YES	HIT
266.461	1.008	LEXICAL_DECISION	FIXCROSS	n/a	n/a	n/a
267.478	5.008	LEXICAL_DECISION	WORD	SES-TP-1_TASK-LDTTACTBRA_WORD-UMYSŁ	n/a	n/a
270.952	n/a	LEXICAL_DECISION	RESPONSE	n/a	NO	MISS
274.511	1.008	LEXICAL_DECISION	FIXCROSS	n/a	n/a	n/a
275.528	5.008	LEXICAL_DECISION	WORD	SES-TP-1_TASK-LDTTACTBRA_WORD-ILOMA	n/a	n/a
278.896	n/a	LEXICAL_DECISION	RESPONSE	n/a	NO	MISS
284.569	2.008	6_DOT_DETECTION	CUE	n/a	n/a	n/a
290.569	1.008	6_DOT_DETECTION	FIXCROSS	n/a	n/a	n/a
291.586	5.008	6_DOT_DETECTION	NO_6-DOT	SES-TP-1_TASK-LDTTACTBRA_WORD-TKM	n/a	n/a
294.312	n/a	6_DOT_DETECTION	RESPONSE	n/a	NO	CORRECT_REJECTION
298.619	1.008	6_DOT_DETECTION	FIXCROSS	n/a	n/a	n/a
299.636	5.008	6_DOT_DETECTION	NO_6-DOT	SES-TP-1_TASK-LDTTACTBRA_WORD-BKPM	n/a	n/a
302.992	n/a	6_DOT_DETECTION	RESPONSE	n/a	NO	CORRECT_REJECTION
306.669	1.008	6_DOT_DETECTION	FIXCROSS	n/a	n/a	n/a
307.686	5.008	6_DOT_DETECTION	NO_6-DOT	SES-TP-1_TASK-LDTTACTBRA_WORD-STMKŁ	n/a	n/a
310.856	n/a	6_DOT_DETECTION	RESPONSE	n/a	NO	CORRECT_REJECTION
314.719	1.008	6_DOT_DETECTION	FIXCROSS	n/a	n/a	n/a
315.736	5.008	6_DOT_DETECTION	6-DOT	SES-TP-1_TASK-LDTTACTBRA_WORD-##CL	n/a	n/a
318.912	n/a	6_DOT_DETECTION	RESPONSE	n/a	YES	HIT
322.769	1.008	6_DOT_DETECTION	FIXCROSS	n/a	n/a	n/a
323.786	5.008	6_DOT_DETECTION	NO_6-DOT	SES-TP-1_TASK-LDTTACTBRA_WORD-LTLKŁ	n/a	n/a
326.736	n/a	6_DOT_DETECTION	RESPONSE	n/a	NO	CORRECT_REJECTION
332.828	2.008	LEXICAL_DECISION	CUE	n/a	n/a	n/a
338.828	1.008	LEXICAL_DECISION	FIXCROSS	n/a	n/a	n/a
339.844	5.008	LEXICAL_DECISION	PSEUDOWORD	SES-TP-1_TASK-LDTTACTBRA_WORD-PŁAKI	n/a	n/a
343.912	n/a	LEXICAL_DECISION	RESPONSE	n/a	YES	FALSE_ALARM
346.878	1.008	LEXICAL_DECISION	FIXCROSS	n/a	n/a	n/a
347.894	5.008	LEXICAL_DECISION	WORD	SES-TP-1_TASK-LDTTACTBRA_WORD-KOT	n/a	n/a
350.432	n/a	LEXICAL_DECISION	RESPONSE	n/a	NO	MISS
354.928	1.008	LEXICAL_DECISION	FIXCROSS	n/a	n/a	n/a
355.944	5.008	LEXICAL_DECISION	PSEUDOWORD	SES-TP-1_TASK-LDTTACTBRA_WORD-CULE 	n/a	n/a
362.978	1.008	LEXICAL_DECISION	FIXCROSS	n/a	n/a	n/a
363.995	5.008	LEXICAL_DECISION	WORD	SES-TP-1_TASK-LDTTACTBRA_WORD-PASMO	n/a	n/a
366.512	n/a	LEXICAL_DECISION	RESPONSE	n/a	NO	MISS
371.028	1.008	LEXICAL_DECISION	FIXCROSS	n/a	n/a	n/a
372.045	5.008	LEXICAL_DECISION	WORD	SES-TP-1_TASK-LDTTACTBRA_WORD-METCE	n/a	n/a
374.632	n/a	LEXICAL_DECISION	RESPONSE	n/a	NO	MISS
380.586	2.008	6_DOT_DETECTION	CUE	n/a	n/a	n/a
386.086	1.008	6_DOT_DETECTION	FIXCROSS	n/a	n/a	n/a
387.103	5.008	6_DOT_DETECTION	6-DOT	SES-TP-1_TASK-LDTTACTBRA_WORD-L#B#	n/a	n/a
390.152	n/a	6_DOT_DETECTION	RESPONSE	n/a	YES	HIT
394.136	1.008	6_DOT_DETECTION	FIXCROSS	n/a	n/a	n/a
395.153	5.008	6_DOT_DETECTION	6-DOT	SES-TP-1_TASK-LDTTACTBRA_WORD-#KŁ#	n/a	n/a
398.112	n/a	6_DOT_DETECTION	RESPONSE	n/a	YES	HIT
402.186	1.008	6_DOT_DETECTION	FIXCROSS	n/a	n/a	n/a
403.203	5.008	6_DOT_DETECTION	NO_6-DOT	SES-TP-1_TASK-LDTTACTBRA_WORD-KCK	n/a	n/a
405.712	n/a	6_DOT_DETECTION	RESPONSE	n/a	NO	CORRECT_REJECTION
410.236	1.008	6_DOT_DETECTION	FIXCROSS	n/a	n/a	n/a
411.253	5.008	6_DOT_DETECTION	6-DOT	SES-TP-1_TASK-LDTTACTBRA_WORD-LT##	n/a	n/a
413.793	n/a	6_DOT_DETECTION	RESPONSE	n/a	YES	HIT
418.286	1.008	6_DOT_DETECTION	FIXCROSS	n/a	n/a	n/a
419.303	5.008	6_DOT_DETECTION	NO_6-DOT	SES-TP-1_TASK-LDTTACTBRA_WORD-DDTLK	n/a	n/a
422.497	n/a	6_DOT_DETECTION	RESPONSE	n/a	NO	CORRECT_REJECTION
427.845	2.008	LEXICAL_DECISION	CUE	n/a	n/a	n/a
433.345	1.008	LEXICAL_DECISION	FIXCROSS	n/a	n/a	n/a
434.362	5.008	LEXICAL_DECISION	WORD	SES-TP-1_TASK-LDTTACTBRA_WORD-STOLE	n/a	n/a
437.216	n/a	LEXICAL_DECISION	RESPONSE	n/a	NO	MISS
441.395	1.008	LEXICAL_DECISION	FIXCROSS	n/a	n/a	n/a
442.412	5.008	LEXICAL_DECISION	WORD	SES-TP-1_TASK-LDTTACTBRA_WORD-BOBAS	n/a	n/a
445.793	n/a	LEXICAL_DECISION	RESPONSE	n/a	NO	MISS
449.445	1.008	LEXICAL_DECISION	FIXCROSS	n/a	n/a	n/a
450.462	5.008	LEXICAL_DECISION	PSEUDOWORD	SES-TP-1_TASK-LDTTACTBRA_WORD-DASIE	n/a	n/a
452.993	n/a	LEXICAL_DECISION	RESPONSE	n/a	YES	FALSE_ALARM
457.494	1.009	LEXICAL_DECISION	FIXCROSS	n/a	n/a	n/a
458.512	5.008	LEXICAL_DECISION	PSEUDOWORD	SES-TP-1_TASK-LDTTACTBRA_WORD-LEDI	n/a	n/a
462.817	n/a	LEXICAL_DECISION	RESPONSE	n/a	NO	CORRECT_REJECTION
465.545	1.008	LEXICAL_DECISION	FIXCROSS	n/a	n/a	n/a
466.562	5.008	LEXICAL_DECISION	PSEUDOWORD	SES-TP-1_TASK-LDTTACTBRA_WORD-BILOT	n/a	n/a
469.657	n/a	LEXICAL_DECISION	RESPONSE	n/a	NO	CORRECT_REJECTION
474.603	2.008	6_DOT_DETECTION	CUE	n/a	n/a	n/a
481.603	1.008	6_DOT_DETECTION	FIXCROSS	n/a	n/a	n/a
482.62	5.008	6_DOT_DETECTION	NO_6-DOT	SES-TP-1_TASK-LDTTACTBRA_WORD-DLBL	n/a	n/a
485.457	n/a	6_DOT_DETECTION	RESPONSE	n/a	NO	CORRECT_REJECTION
489.653	1.009	6_DOT_DETECTION	FIXCROSS	n/a	n/a	n/a
490.67	5.008	6_DOT_DETECTION	6-DOT	SES-TP-1_TASK-LDTTACTBRA_WORD-#K#	n/a	n/a
493.177	n/a	6_DOT_DETECTION	RESPONSE	n/a	YES	HIT
497.703	1.008	6_DOT_DETECTION	FIXCROSS	n/a	n/a	n/a
498.72	5.008	6_DOT_DETECTION	6-DOT	SES-TP-1_TASK-LDTTACTBRA_WORD-K#CL#	n/a	n/a
501.953	n/a	6_DOT_DETECTION	RESPONSE	n/a	YES	HIT
505.753	1.008	6_DOT_DETECTION	FIXCROSS	n/a	n/a	n/a
506.77	5.008	6_DOT_DETECTION	6-DOT	SES-TP-1_TASK-LDTTACTBRA_WORD-K#L#	n/a	n/a
509.233	n/a	6_DOT_DETECTION	RESPONSE	n/a	YES	HIT
513.804	1.008	6_DOT_DETECTION	FIXCROSS	n/a	n/a	n/a
514.82	5.008	6_DOT_DETECTION	6-DOT	SES-TP-1_TASK-LDTTACTBRA_WORD-Ł##	n/a	n/a
519.073	n/a	6_DOT_DETECTION	RESPONSE	n/a	YES	HIT
522.862	2.008	LEXICAL_DECISION	CUE	n/a	n/a	n/a
527.862	1.008	LEXICAL_DECISION	FIXCROSS	n/a	n/a	n/a
528.878	5.008	LEXICAL_DECISION	PSEUDOWORD	SES-TP-1_TASK-LDTTACTBRA_WORD-SYM	n/a	n/a
530.737	n/a	LEXICAL_DECISION	RESPONSE	n/a	NO	CORRECT_REJECTION
535.912	1.008	LEXICAL_DECISION	FIXCROSS	n/a	n/a	n/a
536.928	5.008	LEXICAL_DECISION	WORD	SES-TP-1_TASK-LDTTACTBRA_WORD-PTAK	n/a	n/a
539.473	n/a	LEXICAL_DECISION	RESPONSE	n/a	NO	MISS
543.962	1.008	LEXICAL_DECISION	FIXCROSS	n/a	n/a	n/a
544.979	5.008	LEXICAL_DECISION	PSEUDOWORD	SES-TP-1_TASK-LDTTACTBRA_WORD-PKAŁ	n/a	n/a
548.153	n/a	LEXICAL_DECISION	RESPONSE	n/a	NO	CORRECT_REJECTION
552.012	1.008	LEXICAL_DECISION	FIXCROSS	n/a	n/a	n/a
553.029	5.008	LEXICAL_DECISION	WORD	SES-TP-1_TASK-LDTTACTBRA_WORD-BOSKI	n/a	n/a
555.897	n/a	LEXICAL_DECISION	RESPONSE	n/a	YES	HIT
560.061	1.009	LEXICAL_DECISION	FIXCROSS	n/a	n/a	n/a
561.079	5.008	LEXICAL_DECISION	WORD	SES-TP-1_TASK-LDTTACTBRA_WORD-POD	n/a	n/a
563.097	n/a	LEXICAL_DECISION	RESPONSE	n/a	NO	MISS
569.62	2.008	6_DOT_DETECTION	CUE	n/a	n/a	n/a
574.12	1.008	6_DOT_DETECTION	FIXCROSS	n/a	n/a	n/a
575.137	5.008	6_DOT_DETECTION	NO_6-DOT	SES-TP-1_TASK-LDTTACTBRA_WORD-PMDŁ	n/a	n/a
577.673	n/a	6_DOT_DETECTION	RESPONSE	n/a	NO	CORRECT_REJECTION
582.17	1.008	6_DOT_DETECTION	FIXCROSS	n/a	n/a	n/a
583.187	5.008	6_DOT_DETECTION	NO_6-DOT	SES-TP-1_TASK-LDTTACTBRA_WORD-BŁSL	n/a	n/a
585.817	n/a	6_DOT_DETECTION	RESPONSE	n/a	NO	CORRECT_REJECTION
590.22	1.009	6_DOT_DETECTION	FIXCROSS	n/a	n/a	n/a
591.237	5.008	6_DOT_DETECTION	6-DOT	SES-TP-1_TASK-LDTTACTBRA_WORD-SM#K#	n/a	n/a
594.777	n/a	6_DOT_DETECTION	RESPONSE	n/a	YES	HIT
598.27	1.008	6_DOT_DETECTION	FIXCROSS	n/a	n/a	n/a
599.287	5.008	6_DOT_DETECTION	NO_6-DOT	SES-TP-1_TASK-LDTTACTBRA_WORD-MLMK	n/a	n/a
601.937	n/a	6_DOT_DETECTION	RESPONSE	n/a	NO	CORRECT_REJECTION
606.32	1.008	6_DOT_DETECTION	FIXCROSS	n/a	n/a	n/a
607.337	5.008	6_DOT_DETECTION	6-DOT	SES-TP-1_TASK-LDTTACTBRA_WORD-#K#	n/a	n/a
610.057	n/a	6_DOT_DETECTION	RESPONSE	n/a	YES	HIT
615.879	2.008	LEXICAL_DECISION	CUE	n/a	n/a	n/a
622.379	1.008	LEXICAL_DECISION	FIXCROSS	n/a	n/a	n/a
623.396	5.008	LEXICAL_DECISION	PSEUDOWORD	SES-TP-1_TASK-LDTTACTBRA_WORD-PUTY	n/a	n/a
626.713	n/a	LEXICAL_DECISION	RESPONSE	n/a	YES	FALSE_ALARM
630.429	1.008	LEXICAL_DECISION	FIXCROSS	n/a	n/a	n/a
631.446	5.008	LEXICAL_DECISION	PSEUDOWORD	SES-TP-1_TASK-LDTTACTBRA_WORD-OTAL	n/a	n/a
633.913	n/a	LEXICAL_DECISION	RESPONSE	n/a	NO	CORRECT_REJECTION
638.479	1.008	LEXICAL_DECISION	FIXCROSS	n/a	n/a	n/a
639.496	5.008	LEXICAL_DECISION	PSEUDOWORD	SES-TP-1_TASK-LDTTACTBRA_WORD-MITKI	n/a	n/a
642.577	n/a	LEXICAL_DECISION	RESPONSE	n/a	YES	FALSE_ALARM
646.529	1.008	LEXICAL_DECISION	FIXCROSS	n/a	n/a	n/a
647.546	5.008	LEXICAL_DECISION	PSEUDOWORD	SES-TP-1_TASK-LDTTACTBRA_WORD-KLICE	n/a	n/a
650.833	n/a	LEXICAL_DECISION	RESPONSE	n/a	NO	CORRECT_REJECTION
654.579	1.008	LEXICAL_DECISION	FIXCROSS	n/a	n/a	n/a
655.596	5.008	LEXICAL_DECISION	PSEUDOWORD	SES-TP-1_TASK-LDTTACTBRA_WORD-SMO	n/a	n/a
658.433	n/a	LEXICAL_DECISION	RESPONSE	n/a	NO	CORRECT_REJECTION
663.637	2.008	6_DOT_DETECTION	CUE	n/a	n/a	n/a
668.637	1.008	6_DOT_DETECTION	FIXCROSS	n/a	n/a	n/a
669.654	5.008	6_DOT_DETECTION	6-DOT	SES-TP-1_TASK-LDTTACTBRA_WORD-##LŁ	n/a	n/a
672.513	n/a	6_DOT_DETECTION	RESPONSE	n/a	YES	HIT
676.687	1.009	6_DOT_DETECTION	FIXCROSS	n/a	n/a	n/a
677.704	5.008	6_DOT_DETECTION	6-DOT	SES-TP-1_TASK-LDTTACTBRA_WORD-LM#M#	n/a	n/a
680.369	n/a	6_DOT_DETECTION	RESPONSE	n/a	YES	HIT
684.737	1.008	6_DOT_DETECTION	FIXCROSS	n/a	n/a	n/a
685.754	5.008	6_DOT_DETECTION	6-DOT	SES-TP-1_TASK-LDTTACTBRA_WORD-M##	n/a	n/a
688.193	n/a	6_DOT_DETECTION	RESPONSE	n/a	YES	HIT
692.788	1.008	6_DOT_DETECTION	FIXCROSS	n/a	n/a	n/a
693.804	5.008	6_DOT_DETECTION	NO_6-DOT	SES-TP-1_TASK-LDTTACTBRA_WORD-DKŁKŁ	n/a	n/a
695.913	n/a	6_DOT_DETECTION	RESPONSE	n/a	NO	CORRECT_REJECTION
700.838	1.008	6_DOT_DETECTION	FIXCROSS	n/a	n/a	n/a
701.854	5.008	6_DOT_DETECTION	NO_6-DOT	SES-TP-1_TASK-LDTTACTBRA_WORD-PKTL	n/a	n/a
705.033	n/a	6_DOT_DETECTION	RESPONSE	n/a	NO	CORRECT_REJECTION
710.396	2.008	LEXICAL_DECISION	CUE	n/a	n/a	n/a
715.896	1.008	LEXICAL_DECISION	FIXCROSS	n/a	n/a	n/a
716.913	5.008	LEXICAL_DECISION	WORD	SES-TP-1_TASK-LDTTACTBRA_WORD-TUPAŁ	n/a	n/a
721.049	n/a	LEXICAL_DECISION	RESPONSE	n/a	NO	MISS
723.946	1.008	LEXICAL_DECISION	FIXCROSS	n/a	n/a	n/a
724.963	5.008	LEXICAL_DECISION	WORD	SES-TP-1_TASK-LDTTACTBRA_WORD-DYSK	n/a	n/a
728.409	n/a	LEXICAL_DECISION	RESPONSE	n/a	YES	HIT
731.996	1.008	LEXICAL_DECISION	FIXCROSS	n/a	n/a	n/a
733.013	5.008	LEXICAL_DECISION	WORD	SES-TP-1_TASK-LDTTACTBRA_WORD-TYM	n/a	n/a
737.049	n/a	LEXICAL_DECISION	RESPONSE	n/a	YES	HIT
740.046	1.009	LEXICAL_DECISION	FIXCROSS	n/a	n/a	n/a
741.063	5.008	LEXICAL_DECISION	PSEUDOWORD	SES-TP-1_TASK-LDTTACTBRA_WORD-KPU	n/a	n/a
743.729	n/a	LEXICAL_DECISION	RESPONSE	n/a	NO	CORRECT_REJECTION
748.096	1.008	LEXICAL_DECISION	FIXCROSS	n/a	n/a	n/a
749.113	5.008	LEXICAL_DECISION	PSEUDOWORD	SES-TP-1_TASK-LDTTACTBRA_WORD-CYLI	n/a	n/a
752.169	n/a	LEXICAL_DECISION	RESPONSE	n/a	YES	FALSE_ALARM
