onset	duration	condition	trial_type	braille_stimulus	response_val	response_type
2.018	2.008	6_DOT_DETECTION	CUE	n/a	n/a	n/a
7.018	1.008	6_DOT_DETECTION	FIXCROSS	n/a	n/a	n/a
8.034	5.008	6_DOT_DETECTION	NO_6-DOT	KŁMLK	n/a	n/a
10.76	n/a	6_DOT_DETECTION	RESPONSE	n/a	NO	CORRECT_REJECTION
15.068	1.008	6_DOT_DETECTION	FIXCROSS	n/a	n/a	n/a
16.085	5.008	6_DOT_DETECTION	NO_6-DOT	PŁKL	n/a	n/a
19.0	n/a	6_DOT_DETECTION	RESPONSE	n/a	NO	CORRECT_REJECTION
23.117	1.009	6_DOT_DETECTION	FIXCROSS	n/a	n/a	n/a
24.135	5.008	6_DOT_DETECTION	6-DOT	#M#ŁS	n/a	n/a
27.2	n/a	6_DOT_DETECTION	RESPONSE	n/a	YES	HIT
31.168	1.008	6_DOT_DETECTION	FIXCROSS	n/a	n/a	n/a
32.185	5.008	6_DOT_DETECTION	6-DOT	KB##	n/a	n/a
34.816	n/a	6_DOT_DETECTION	RESPONSE	n/a	YES	HIT
39.218	1.008	6_DOT_DETECTION	FIXCROSS	n/a	n/a	n/a
40.235	5.008	6_DOT_DETECTION	NO_6-DOT	TKLKŁ	n/a	n/a
43.296	n/a	6_DOT_DETECTION	RESPONSE	n/a	NO	CORRECT_REJECTION
49.276	2.008	LEXICAL_DECISION	CUE	n/a	n/a	n/a
54.276	1.008	LEXICAL_DECISION	FIXCROSS	n/a	n/a	n/a
55.293	5.008	LEXICAL_DECISION	PSEUDOWORD	SEMA	n/a	n/a
60.136	n/a	LEXICAL_DECISION	RESPONSE	n/a	NO	CORRECT_REJECTION
62.326	1.008	LEXICAL_DECISION	FIXCROSS	n/a	n/a	n/a
63.343	5.008	LEXICAL_DECISION	WORD	TYPU	n/a	n/a
69.712	n/a	LEXICAL_DECISION	RESPONSE	n/a	NO	MISS
70.376	1.008	LEXICAL_DECISION	FIXCROSS	n/a	n/a	n/a
71.393	5.009	LEXICAL_DECISION	WORD	STEK	n/a	n/a
77.472	n/a	LEXICAL_DECISION	RESPONSE	n/a	NO	MISS
78.426	1.008	LEXICAL_DECISION	FIXCROSS	n/a	n/a	n/a
79.443	5.008	LEXICAL_DECISION	PSEUDOWORD	LIŁCU	n/a	n/a
85.192	n/a	LEXICAL_DECISION	RESPONSE	n/a	NO	CORRECT_REJECTION
86.476	1.009	LEXICAL_DECISION	FIXCROSS	n/a	n/a	n/a
87.493	5.008	LEXICAL_DECISION	WORD	TOPI	n/a	n/a
93.952	n/a	LEXICAL_DECISION	RESPONSE	n/a	YES	HIT
96.035	2.008	6_DOT_DETECTION	CUE	n/a	n/a	n/a
100.535	1.008	6_DOT_DETECTION	FIXCROSS	n/a	n/a	n/a
101.552	5.008	6_DOT_DETECTION	6-DOT	DK##L	n/a	n/a
104.312	n/a	6_DOT_DETECTION	RESPONSE	n/a	YES	HIT
108.585	1.008	6_DOT_DETECTION	FIXCROSS	n/a	n/a	n/a
109.602	5.008	6_DOT_DETECTION	NO_6-DOT	KDTLŁ	n/a	n/a
113.616	n/a	6_DOT_DETECTION	RESPONSE	n/a	YES	FALSE_ALARM
116.635	1.008	6_DOT_DETECTION	FIXCROSS	n/a	n/a	n/a
117.652	5.008	6_DOT_DETECTION	6-DOT	P#T#	n/a	n/a
120.472	n/a	6_DOT_DETECTION	RESPONSE	n/a	YES	HIT
124.685	1.008	6_DOT_DETECTION	FIXCROSS	n/a	n/a	n/a
125.702	5.008	6_DOT_DETECTION	NO_6-DOT	SSŁKM	n/a	n/a
129.216	n/a	6_DOT_DETECTION	RESPONSE	n/a	NO	CORRECT_REJECTION
132.735	1.008	6_DOT_DETECTION	FIXCROSS	n/a	n/a	n/a
133.752	5.008	6_DOT_DETECTION	NO_6-DOT	DDŁ	n/a	n/a
135.856	n/a	6_DOT_DETECTION	RESPONSE	n/a	NO	CORRECT_REJECTION
141.793	2.008	LEXICAL_DECISION	CUE	n/a	n/a	n/a
146.794	1.008	LEXICAL_DECISION	FIXCROSS	n/a	n/a	n/a
147.81	5.008	LEXICAL_DECISION	PSEUDOWORD	BYLU	n/a	n/a
153.616	n/a	LEXICAL_DECISION	RESPONSE	n/a	NO	CORRECT_REJECTION
154.844	1.008	LEXICAL_DECISION	FIXCROSS	n/a	n/a	n/a
155.86	5.008	LEXICAL_DECISION	PSEUDOWORD	OKCY	n/a	n/a
161.032	n/a	LEXICAL_DECISION	RESPONSE	n/a	NO	CORRECT_REJECTION
162.894	1.008	LEXICAL_DECISION	FIXCROSS	n/a	n/a	n/a
163.91	5.008	LEXICAL_DECISION	PSEUDOWORD	DOAST	n/a	n/a
170.416	n/a	LEXICAL_DECISION	RESPONSE	n/a	NO	CORRECT_REJECTION
170.944	1.008	LEXICAL_DECISION	FIXCROSS	n/a	n/a	n/a
171.96	5.008	LEXICAL_DECISION	WORD	SMOK	n/a	n/a
176.136	n/a	LEXICAL_DECISION	RESPONSE	n/a	YES	HIT
178.994	1.008	LEXICAL_DECISION	FIXCROSS	n/a	n/a	n/a
180.01	5.008	LEXICAL_DECISION	WORD	AKT	n/a	n/a
184.552	n/a	LEXICAL_DECISION	RESPONSE	n/a	YES	HIT
188.552	2.008	6_DOT_DETECTION	CUE	n/a	n/a	n/a
194.052	1.008	6_DOT_DETECTION	FIXCROSS	n/a	n/a	n/a
195.069	5.008	6_DOT_DETECTION	6-DOT	SŁ#M#	n/a	n/a
200.272	n/a	6_DOT_DETECTION	RESPONSE	n/a	YES	HIT
202.102	1.008	6_DOT_DETECTION	FIXCROSS	n/a	n/a	n/a
203.119	5.008	6_DOT_DETECTION	NO_6-DOT	KCTD	n/a	n/a
207.032	n/a	6_DOT_DETECTION	RESPONSE	n/a	NO	CORRECT_REJECTION
210.152	1.008	6_DOT_DETECTION	FIXCROSS	n/a	n/a	n/a
211.169	5.008	6_DOT_DETECTION	6-DOT	#KT#	n/a	n/a
214.232	n/a	6_DOT_DETECTION	RESPONSE	n/a	YES	HIT
218.202	1.008	6_DOT_DETECTION	FIXCROSS	n/a	n/a	n/a
219.219	5.008	6_DOT_DETECTION	6-DOT	P##Ł	n/a	n/a
221.776	n/a	6_DOT_DETECTION	RESPONSE	n/a	YES	HIT
226.252	1.008	6_DOT_DETECTION	FIXCROSS	n/a	n/a	n/a
227.269	5.008	6_DOT_DETECTION	NO_6-DOT	ŁMT	n/a	n/a
230.312	n/a	6_DOT_DETECTION	RESPONSE	n/a	NO	CORRECT_REJECTION
235.81	2.008	LEXICAL_DECISION	CUE	n/a	n/a	n/a
242.31	1.008	LEXICAL_DECISION	FIXCROSS	n/a	n/a	n/a
243.327	5.008	LEXICAL_DECISION	WORD	DOKI	n/a	n/a
249.736	n/a	LEXICAL_DECISION	RESPONSE	n/a	NO	MISS
250.36	1.008	LEXICAL_DECISION	FIXCROSS	n/a	n/a	n/a
251.377	5.008	LEXICAL_DECISION	PSEUDOWORD	DASY	n/a	n/a
257.256	n/a	LEXICAL_DECISION	RESPONSE	n/a	NO	CORRECT_REJECTION
258.41	1.008	LEXICAL_DECISION	FIXCROSS	n/a	n/a	n/a
259.427	5.008	LEXICAL_DECISION	WORD	ŁAPY	n/a	n/a
263.832	n/a	LEXICAL_DECISION	RESPONSE	n/a	YES	HIT
266.461	1.008	LEXICAL_DECISION	FIXCROSS	n/a	n/a	n/a
267.477	5.008	LEXICAL_DECISION	WORD	UMYSŁ	n/a	n/a
273.416	n/a	LEXICAL_DECISION	RESPONSE	n/a	YES	HIT
274.511	1.008	LEXICAL_DECISION	FIXCROSS	n/a	n/a	n/a
275.527	5.008	LEXICAL_DECISION	WORD	ILOMA	n/a	n/a
280.752	n/a	LEXICAL_DECISION	RESPONSE	n/a	YES	HIT
284.569	2.008	6_DOT_DETECTION	CUE	n/a	n/a	n/a
290.569	1.008	6_DOT_DETECTION	FIXCROSS	n/a	n/a	n/a
291.586	5.008	6_DOT_DETECTION	NO_6-DOT	TKM	n/a	n/a
295.256	n/a	6_DOT_DETECTION	RESPONSE	n/a	NO	CORRECT_REJECTION
298.619	1.008	6_DOT_DETECTION	FIXCROSS	n/a	n/a	n/a
299.636	5.008	6_DOT_DETECTION	NO_6-DOT	BKPM	n/a	n/a
303.192	n/a	6_DOT_DETECTION	RESPONSE	n/a	NO	CORRECT_REJECTION
306.669	1.008	6_DOT_DETECTION	FIXCROSS	n/a	n/a	n/a
307.686	5.008	6_DOT_DETECTION	NO_6-DOT	STMKŁ	n/a	n/a
313.296	n/a	6_DOT_DETECTION	RESPONSE	n/a	NO	CORRECT_REJECTION
314.719	1.008	6_DOT_DETECTION	FIXCROSS	n/a	n/a	n/a
315.736	5.008	6_DOT_DETECTION	6-DOT	##CL	n/a	n/a
318.232	n/a	6_DOT_DETECTION	RESPONSE	n/a	YES	HIT
322.769	1.008	6_DOT_DETECTION	FIXCROSS	n/a	n/a	n/a
323.786	5.008	6_DOT_DETECTION	NO_6-DOT	LTLKŁ	n/a	n/a
328.473	n/a	6_DOT_DETECTION	RESPONSE	n/a	NO	CORRECT_REJECTION
332.828	2.008	LEXICAL_DECISION	CUE	n/a	n/a	n/a
338.828	1.008	LEXICAL_DECISION	FIXCROSS	n/a	n/a	n/a
339.844	5.008	LEXICAL_DECISION	PSEUDOWORD	PŁAKI	n/a	n/a
345.673	n/a	LEXICAL_DECISION	RESPONSE	n/a	NO	CORRECT_REJECTION
346.878	1.008	LEXICAL_DECISION	FIXCROSS	n/a	n/a	n/a
347.894	5.008	LEXICAL_DECISION	WORD	KOT	n/a	n/a
352.353	n/a	LEXICAL_DECISION	RESPONSE	n/a	YES	HIT
354.928	1.008	LEXICAL_DECISION	FIXCROSS	n/a	n/a	n/a
355.944	5.008	LEXICAL_DECISION	PSEUDOWORD	CULE 	n/a	n/a
362.978	1.008	LEXICAL_DECISION	FIXCROSS	n/a	n/a	n/a
363.994	5.008	LEXICAL_DECISION	WORD	PASMO	n/a	n/a
369.353	n/a	LEXICAL_DECISION	RESPONSE	n/a	YES	HIT
371.028	1.008	LEXICAL_DECISION	FIXCROSS	n/a	n/a	n/a
372.044	5.008	LEXICAL_DECISION	WORD	METCE	n/a	n/a
378.393	n/a	LEXICAL_DECISION	RESPONSE	n/a	NO	MISS
380.586	2.008	6_DOT_DETECTION	CUE	n/a	n/a	n/a
386.086	1.008	6_DOT_DETECTION	FIXCROSS	n/a	n/a	n/a
387.102	5.009	6_DOT_DETECTION	6-DOT	L#B#	n/a	n/a
390.257	n/a	6_DOT_DETECTION	RESPONSE	n/a	YES	HIT
394.136	1.008	6_DOT_DETECTION	FIXCROSS	n/a	n/a	n/a
395.153	5.008	6_DOT_DETECTION	6-DOT	#KŁ#	n/a	n/a
397.897	n/a	6_DOT_DETECTION	RESPONSE	n/a	YES	HIT
402.186	1.009	6_DOT_DETECTION	FIXCROSS	n/a	n/a	n/a
403.203	5.008	6_DOT_DETECTION	NO_6-DOT	KCK	n/a	n/a
406.073	n/a	6_DOT_DETECTION	RESPONSE	n/a	NO	CORRECT_REJECTION
410.236	1.008	6_DOT_DETECTION	FIXCROSS	n/a	n/a	n/a
411.253	5.008	6_DOT_DETECTION	6-DOT	LT##	n/a	n/a
413.857	n/a	6_DOT_DETECTION	RESPONSE	n/a	YES	HIT
418.286	1.008	6_DOT_DETECTION	FIXCROSS	n/a	n/a	n/a
419.303	5.008	6_DOT_DETECTION	NO_6-DOT	DDTLK	n/a	n/a
422.753	n/a	6_DOT_DETECTION	RESPONSE	n/a	NO	CORRECT_REJECTION
427.845	2.008	LEXICAL_DECISION	CUE	n/a	n/a	n/a
433.345	1.008	LEXICAL_DECISION	FIXCROSS	n/a	n/a	n/a
434.361	5.008	LEXICAL_DECISION	WORD	STOLE	n/a	n/a
441.057	n/a	LEXICAL_DECISION	RESPONSE	n/a	NO	MISS
441.394	1.009	LEXICAL_DECISION	FIXCROSS	n/a	n/a	n/a
442.411	5.008	LEXICAL_DECISION	WORD	BOBAS	n/a	n/a
446.377	n/a	LEXICAL_DECISION	RESPONSE	n/a	YES	HIT
449.445	1.008	LEXICAL_DECISION	FIXCROSS	n/a	n/a	n/a
450.461	5.008	LEXICAL_DECISION	PSEUDOWORD	DASIE	n/a	n/a
455.737	n/a	LEXICAL_DECISION	RESPONSE	n/a	NO	CORRECT_REJECTION
457.494	1.009	LEXICAL_DECISION	FIXCROSS	n/a	n/a	n/a
458.511	5.008	LEXICAL_DECISION	PSEUDOWORD	LEDI	n/a	n/a
463.417	n/a	LEXICAL_DECISION	RESPONSE	n/a	NO	CORRECT_REJECTION
465.545	1.008	LEXICAL_DECISION	FIXCROSS	n/a	n/a	n/a
466.561	5.008	LEXICAL_DECISION	PSEUDOWORD	BILOT	n/a	n/a
471.617	n/a	LEXICAL_DECISION	RESPONSE	n/a	NO	CORRECT_REJECTION
474.603	2.008	6_DOT_DETECTION	CUE	n/a	n/a	n/a
481.603	1.008	6_DOT_DETECTION	FIXCROSS	n/a	n/a	n/a
482.619	5.009	6_DOT_DETECTION	NO_6-DOT	DLBL	n/a	n/a
485.257	n/a	6_DOT_DETECTION	RESPONSE	n/a	NO	CORRECT_REJECTION
489.653	1.009	6_DOT_DETECTION	FIXCROSS	n/a	n/a	n/a
490.67	5.008	6_DOT_DETECTION	6-DOT	#K#	n/a	n/a
493.537	n/a	6_DOT_DETECTION	RESPONSE	n/a	YES	HIT
497.703	1.008	6_DOT_DETECTION	FIXCROSS	n/a	n/a	n/a
498.72	5.008	6_DOT_DETECTION	6-DOT	K#CL#	n/a	n/a
501.777	n/a	6_DOT_DETECTION	RESPONSE	n/a	YES	HIT
505.753	1.008	6_DOT_DETECTION	FIXCROSS	n/a	n/a	n/a
506.77	5.008	6_DOT_DETECTION	6-DOT	K#L#	n/a	n/a
509.297	n/a	6_DOT_DETECTION	RESPONSE	n/a	YES	HIT
513.803	1.008	6_DOT_DETECTION	FIXCROSS	n/a	n/a	n/a
514.82	5.008	6_DOT_DETECTION	6-DOT	Ł##	n/a	n/a
517.513	n/a	6_DOT_DETECTION	RESPONSE	n/a	YES	HIT
522.862	2.008	LEXICAL_DECISION	CUE	n/a	n/a	n/a
527.862	1.008	LEXICAL_DECISION	FIXCROSS	n/a	n/a	n/a
528.878	5.008	LEXICAL_DECISION	PSEUDOWORD	SYM	n/a	n/a
533.393	n/a	LEXICAL_DECISION	RESPONSE	n/a	NO	CORRECT_REJECTION
535.911	1.009	LEXICAL_DECISION	FIXCROSS	n/a	n/a	n/a
536.928	5.008	LEXICAL_DECISION	WORD	PTAK	n/a	n/a
541.593	n/a	LEXICAL_DECISION	RESPONSE	n/a	YES	HIT
543.962	1.008	LEXICAL_DECISION	FIXCROSS	n/a	n/a	n/a
544.978	5.008	LEXICAL_DECISION	PSEUDOWORD	PKAŁ	n/a	n/a
550.177	n/a	LEXICAL_DECISION	RESPONSE	n/a	NO	CORRECT_REJECTION
552.011	1.009	LEXICAL_DECISION	FIXCROSS	n/a	n/a	n/a
553.028	5.008	LEXICAL_DECISION	WORD	BOSKI	n/a	n/a
558.057	n/a	LEXICAL_DECISION	RESPONSE	n/a	YES	HIT
560.062	1.008	LEXICAL_DECISION	FIXCROSS	n/a	n/a	n/a
561.078	5.008	LEXICAL_DECISION	WORD	POD	n/a	n/a
565.297	n/a	LEXICAL_DECISION	RESPONSE	n/a	YES	HIT
569.62	2.008	6_DOT_DETECTION	CUE	n/a	n/a	n/a
574.12	1.008	6_DOT_DETECTION	FIXCROSS	n/a	n/a	n/a
575.136	5.009	6_DOT_DETECTION	NO_6-DOT	PMDŁ	n/a	n/a
578.177	n/a	6_DOT_DETECTION	RESPONSE	n/a	NO	CORRECT_REJECTION
582.17	1.008	6_DOT_DETECTION	FIXCROSS	n/a	n/a	n/a
583.187	5.008	6_DOT_DETECTION	NO_6-DOT	BŁSL	n/a	n/a
586.193	n/a	6_DOT_DETECTION	RESPONSE	n/a	NO	CORRECT_REJECTION
590.22	1.009	6_DOT_DETECTION	FIXCROSS	n/a	n/a	n/a
591.237	5.008	6_DOT_DETECTION	6-DOT	SM#K#	n/a	n/a
595.153	n/a	6_DOT_DETECTION	RESPONSE	n/a	YES	HIT
598.27	1.008	6_DOT_DETECTION	FIXCROSS	n/a	n/a	n/a
599.287	5.008	6_DOT_DETECTION	NO_6-DOT	MLMK	n/a	n/a
601.793	n/a	6_DOT_DETECTION	RESPONSE	n/a	NO	CORRECT_REJECTION
606.32	1.009	6_DOT_DETECTION	FIXCROSS	n/a	n/a	n/a
607.337	5.008	6_DOT_DETECTION	6-DOT	#K#	n/a	n/a
609.913	n/a	6_DOT_DETECTION	RESPONSE	n/a	YES	HIT
615.879	2.008	LEXICAL_DECISION	CUE	n/a	n/a	n/a
622.379	1.008	LEXICAL_DECISION	FIXCROSS	n/a	n/a	n/a
623.395	5.008	LEXICAL_DECISION	PSEUDOWORD	PUTY	n/a	n/a
629.073	n/a	LEXICAL_DECISION	RESPONSE	n/a	NO	CORRECT_REJECTION
629.793	n/a	LEXICAL_DECISION	RESPONSE	n/a	YES	FALSE_ALARM
630.429	1.008	LEXICAL_DECISION	FIXCROSS	n/a	n/a	n/a
631.445	5.008	LEXICAL_DECISION	PSEUDOWORD	OTAL	n/a	n/a
637.489	n/a	LEXICAL_DECISION	RESPONSE	n/a	NO	CORRECT_REJECTION
637.809	n/a	LEXICAL_DECISION	RESPONSE	n/a	NO	CORRECT_REJECTION
638.479	1.008	LEXICAL_DECISION	FIXCROSS	n/a	n/a	n/a
639.495	5.008	LEXICAL_DECISION	PSEUDOWORD	MITKI	n/a	n/a
645.273	n/a	LEXICAL_DECISION	RESPONSE	n/a	NO	CORRECT_REJECTION
646.528	1.009	LEXICAL_DECISION	FIXCROSS	n/a	n/a	n/a
647.546	5.008	LEXICAL_DECISION	PSEUDOWORD	KLICE	n/a	n/a
652.633	n/a	LEXICAL_DECISION	RESPONSE	n/a	NO	CORRECT_REJECTION
654.579	1.008	LEXICAL_DECISION	FIXCROSS	n/a	n/a	n/a
655.596	5.008	LEXICAL_DECISION	PSEUDOWORD	SMO	n/a	n/a
661.649	n/a	LEXICAL_DECISION	RESPONSE	n/a	NO	CORRECT_REJECTION
663.637	2.008	6_DOT_DETECTION	CUE	n/a	n/a	n/a
668.637	1.008	6_DOT_DETECTION	FIXCROSS	n/a	n/a	n/a
669.654	5.008	6_DOT_DETECTION	6-DOT	##LŁ	n/a	n/a
672.033	n/a	6_DOT_DETECTION	RESPONSE	n/a	YES	HIT
676.687	1.008	6_DOT_DETECTION	FIXCROSS	n/a	n/a	n/a
677.704	5.008	6_DOT_DETECTION	6-DOT	LM#M#	n/a	n/a
681.673	n/a	6_DOT_DETECTION	RESPONSE	n/a	YES	HIT
684.737	1.008	6_DOT_DETECTION	FIXCROSS	n/a	n/a	n/a
685.754	5.008	6_DOT_DETECTION	6-DOT	M##	n/a	n/a
688.033	n/a	6_DOT_DETECTION	RESPONSE	n/a	YES	HIT
692.787	1.008	6_DOT_DETECTION	FIXCROSS	n/a	n/a	n/a
693.804	5.008	6_DOT_DETECTION	NO_6-DOT	DKŁKŁ	n/a	n/a
696.889	n/a	6_DOT_DETECTION	RESPONSE	n/a	NO	CORRECT_REJECTION
700.837	1.008	6_DOT_DETECTION	FIXCROSS	n/a	n/a	n/a
701.854	5.008	6_DOT_DETECTION	NO_6-DOT	PKTL	n/a	n/a
705.513	n/a	6_DOT_DETECTION	RESPONSE	n/a	NO	CORRECT_REJECTION
710.396	2.008	LEXICAL_DECISION	CUE	n/a	n/a	n/a
715.896	1.008	LEXICAL_DECISION	FIXCROSS	n/a	n/a	n/a
716.912	5.009	LEXICAL_DECISION	WORD	TUPAŁ	n/a	n/a
723.489	n/a	LEXICAL_DECISION	RESPONSE	n/a	NO	MISS
723.945	1.009	LEXICAL_DECISION	FIXCROSS	n/a	n/a	n/a
724.962	5.008	LEXICAL_DECISION	WORD	DYSK	n/a	n/a
731.089	n/a	LEXICAL_DECISION	RESPONSE	n/a	NO	MISS
731.995	1.009	LEXICAL_DECISION	FIXCROSS	n/a	n/a	n/a
733.021	5.008	LEXICAL_DECISION	WORD	TYM	n/a	n/a
739.009	n/a	LEXICAL_DECISION	RESPONSE	n/a	NO	MISS
740.054	1.009	LEXICAL_DECISION	FIXCROSS	n/a	n/a	n/a
740.369	n/a	LEXICAL_DECISION	RESPONSE	n/a	YES	HIT
741.071	5.008	LEXICAL_DECISION	PSEUDOWORD	KPU	n/a	n/a
745.529	n/a	LEXICAL_DECISION	RESPONSE	n/a	NO	CORRECT_REJECTION
748.104	1.008	LEXICAL_DECISION	FIXCROSS	n/a	n/a	n/a
749.121	5.008	LEXICAL_DECISION	PSEUDOWORD	CYLI	n/a	n/a
754.649	n/a	LEXICAL_DECISION	RESPONSE	n/a	NO	CORRECT_REJECTION
