onset	duration	trial_type	trial_number	stroop_condition	stim_text(PL)	stim_text(eng)	stim_color(PL)	stim_color(eng)	response_type	response_color
0.0	n/a	RESPONSE	n/a	n/a	n/a	n/a	n/a	n/a	n/a	n/a
0.067	1.0333	ITI	n/a	n/a	n/a	n/a	n/a	n/a	n/a	n/a
1.1003	0.5167	FIXCROSS	n/a	n/a	n/a	n/a	n/a	n/a	n/a	n/a
1.617	1.7	T_INK	1	Neutral	xxxxxxxx	xxxxxxxx	zielony	green	hit	n/a
3.2917	n/a	RESPONSE	n/a	n/a	n/a	n/a	n/a	n/a	n/a	green
3.317	0.5167	FEEDBACK	n/a	n/a	n/a	n/a	n/a	n/a	n/a	n/a
3.8337	1.0167	ITI	n/a	n/a	n/a	n/a	n/a	n/a	n/a	n/a
4.8504	0.5167	FIXCROSS	n/a	n/a	n/a	n/a	n/a	n/a	n/a	n/a
5.367	1.1333	T_INK	2	Incongruent	żółty	yellow	czerwony	red	hit	n/a
6.4714	n/a	RESPONSE	n/a	n/a	n/a	n/a	n/a	n/a	n/a	red
6.5004	0.5167	FEEDBACK	n/a	n/a	n/a	n/a	n/a	n/a	n/a	n/a
7.017	1.0167	ITI	n/a	n/a	n/a	n/a	n/a	n/a	n/a	n/a
8.0337	0.5167	FIXCROSS	n/a	n/a	n/a	n/a	n/a	n/a	n/a	n/a
8.5504	0.7167	T_INK	3	Neutral	xxxxxxxx	xxxxxxxx	niebieski	blue	hit	n/a
9.2358	n/a	RESPONSE	n/a	n/a	n/a	n/a	n/a	n/a	n/a	blue
9.2671	0.5167	FEEDBACK	n/a	n/a	n/a	n/a	n/a	n/a	n/a	n/a
9.7837	1.0167	ITI	n/a	n/a	n/a	n/a	n/a	n/a	n/a	n/a
10.8004	0.5167	FIXCROSS	n/a	n/a	n/a	n/a	n/a	n/a	n/a	n/a
11.3171	0.6	T_INK	4	Neutral	xxxxxxxxx	xxxxxxxxx	żółty	yellow	hit	n/a
11.8882	n/a	RESPONSE	n/a	n/a	n/a	n/a	n/a	n/a	n/a	yellow
11.9171	0.5167	FEEDBACK	n/a	n/a	n/a	n/a	n/a	n/a	n/a	n/a
12.4337	1.0167	ITI	n/a	n/a	n/a	n/a	n/a	n/a	n/a	n/a
13.4504	0.5167	FIXCROSS	n/a	n/a	n/a	n/a	n/a	n/a	n/a	n/a
13.9671	1.0833	T_INK	5	Incongruent	zielony	green	żółty	yellow	hit	n/a
15.0199	n/a	RESPONSE	n/a	n/a	n/a	n/a	n/a	n/a	n/a	yellow
15.0504	0.5167	FEEDBACK	n/a	n/a	n/a	n/a	n/a	n/a	n/a	n/a
15.5671	1.0167	ITI	n/a	n/a	n/a	n/a	n/a	n/a	n/a	n/a
16.5838	0.5167	FIXCROSS	n/a	n/a	n/a	n/a	n/a	n/a	n/a	n/a
17.1004	0.7167	T_INK	6	Neutral	xxxxxxx	xxxxxxx	żółty	yellow	hit	n/a
17.7843	n/a	RESPONSE	n/a	n/a	n/a	n/a	n/a	n/a	n/a	yellow
17.8171	0.5167	FEEDBACK	n/a	n/a	n/a	n/a	n/a	n/a	n/a	n/a
18.3338	1.0167	ITI	n/a	n/a	n/a	n/a	n/a	n/a	n/a	n/a
19.3505	0.5167	FIXCROSS	n/a	n/a	n/a	n/a	n/a	n/a	n/a	n/a
19.8671	0.8667	T_INK	7	Neutral	xxxxx	xxxxx	czerwony	red	hit	n/a
20.7085	n/a	RESPONSE	n/a	n/a	n/a	n/a	n/a	n/a	n/a	red
20.7338	0.5167	FEEDBACK	n/a	n/a	n/a	n/a	n/a	n/a	n/a	n/a
21.2505	1.0167	ITI	n/a	n/a	n/a	n/a	n/a	n/a	n/a	n/a
22.2672	0.5167	FIXCROSS	n/a	n/a	n/a	n/a	n/a	n/a	n/a	n/a
22.7838	0.6	T_INK	8	Neutral	xxxxxxx	xxxxxxx	czerwony	red	hit	n/a
23.361	n/a	RESPONSE	n/a	n/a	n/a	n/a	n/a	n/a	n/a	red
23.3838	0.5167	FEEDBACK	n/a	n/a	n/a	n/a	n/a	n/a	n/a	n/a
23.9005	1.0167	ITI	n/a	n/a	n/a	n/a	n/a	n/a	n/a	n/a
24.9172	0.5167	FIXCROSS	n/a	n/a	n/a	n/a	n/a	n/a	n/a	n/a
25.4338	0.85	T_INK	9	Incongruent	żółty	yellow	zielony	green	hit	n/a
26.253	n/a	RESPONSE	n/a	n/a	n/a	n/a	n/a	n/a	n/a	green
26.2839	0.5167	FEEDBACK	n/a	n/a	n/a	n/a	n/a	n/a	n/a	n/a
26.8005	1.0167	ITI	n/a	n/a	n/a	n/a	n/a	n/a	n/a	n/a
27.8172	0.5167	FIXCROSS	n/a	n/a	n/a	n/a	n/a	n/a	n/a	n/a
28.3339	0.75	T_INK	10	Incongruent	czerwony	red	żółty	yellow	hit	n/a
29.0494	n/a	RESPONSE	n/a	n/a	n/a	n/a	n/a	n/a	n/a	yellow
29.0839	0.5167	FEEDBACK	n/a	n/a	n/a	n/a	n/a	n/a	n/a	n/a
29.6005	1.0167	ITI	n/a	n/a	n/a	n/a	n/a	n/a	n/a	n/a
30.6172	0.5167	FIXCROSS	n/a	n/a	n/a	n/a	n/a	n/a	n/a	n/a
31.1339	0.6667	T_INK	11	Neutral	xxxxxxxx	xxxxxxxx	żółty	yellow	hit	n/a
31.7657	n/a	RESPONSE	n/a	n/a	n/a	n/a	n/a	n/a	n/a	yellow
31.8006	0.5167	FEEDBACK	n/a	n/a	n/a	n/a	n/a	n/a	n/a	n/a
32.3172	1.0167	ITI	n/a	n/a	n/a	n/a	n/a	n/a	n/a	n/a
33.3339	0.5167	FIXCROSS	n/a	n/a	n/a	n/a	n/a	n/a	n/a	n/a
33.8506	0.85	T_INK	12	Neutral	xxxxx	xxxxx	niebieski	blue	hit	n/a
34.6738	n/a	RESPONSE	n/a	n/a	n/a	n/a	n/a	n/a	n/a	blue
34.7006	0.5167	FEEDBACK	n/a	n/a	n/a	n/a	n/a	n/a	n/a	n/a
35.2172	1.0333	ITI	n/a	n/a	n/a	n/a	n/a	n/a	n/a	n/a
42.6632	n/a	RESPONSE	n/a	n/a	n/a	n/a	n/a	n/a	n/a	n/a
42.7173	1.0167	ITI	n/a	n/a	n/a	n/a	n/a	n/a	n/a	n/a
43.734	0.5167	FIXCROSS	n/a	n/a	n/a	n/a	n/a	n/a	n/a	n/a
44.2506	0.8833	INK	1	Neutral	xxxxxxxxx	xxxxxxxxx	czerwony	red	hit	n/a
45.108	n/a	RESPONSE	n/a	n/a	n/a	n/a	n/a	n/a	n/a	red
45.134	1.0167	ITI	n/a	n/a	n/a	n/a	n/a	n/a	n/a	n/a
46.1507	0.5167	FIXCROSS	n/a	n/a	n/a	n/a	n/a	n/a	n/a	n/a
46.6673	0.7	INK	2	Incongruent	czerwony	red	żółty	yellow	hit	n/a
47.3449	n/a	RESPONSE	n/a	n/a	n/a	n/a	n/a	n/a	n/a	yellow
47.3673	1.0167	ITI	n/a	n/a	n/a	n/a	n/a	n/a	n/a	n/a
48.384	0.5167	FIXCROSS	n/a	n/a	n/a	n/a	n/a	n/a	n/a	n/a
48.9007	0.7667	INK	3	Neutral	xxxxxxxxx	xxxxxxxxx	zielony	green	hit	n/a
49.6459	n/a	RESPONSE	n/a	n/a	n/a	n/a	n/a	n/a	n/a	green
49.6673	1.0167	ITI	n/a	n/a	n/a	n/a	n/a	n/a	n/a	n/a
50.684	0.5167	FIXCROSS	n/a	n/a	n/a	n/a	n/a	n/a	n/a	n/a
51.2007	0.6833	INK	4	Neutral	xxxxxxxx	xxxxxxxx	żółty	yellow	hit	n/a
51.851	n/a	RESPONSE	n/a	n/a	n/a	n/a	n/a	n/a	n/a	yellow
51.884	1.0167	ITI	n/a	n/a	n/a	n/a	n/a	n/a	n/a	n/a
52.9007	0.5167	FIXCROSS	n/a	n/a	n/a	n/a	n/a	n/a	n/a	n/a
53.4174	0.75	INK	5	Incongruent	czerwony	red	zielony	green	hit	n/a
54.136	n/a	RESPONSE	n/a	n/a	n/a	n/a	n/a	n/a	n/a	green
54.1674	1.0167	ITI	n/a	n/a	n/a	n/a	n/a	n/a	n/a	n/a
55.1841	0.5167	FIXCROSS	n/a	n/a	n/a	n/a	n/a	n/a	n/a	n/a
55.7007	0.8167	INK	6	Neutral	xxxxxxxx	xxxxxxxx	niebieski	blue	hit	n/a
56.4848	n/a	RESPONSE	n/a	n/a	n/a	n/a	n/a	n/a	n/a	blue
56.5174	1.0167	ITI	n/a	n/a	n/a	n/a	n/a	n/a	n/a	n/a
57.5341	0.5167	FIXCROSS	n/a	n/a	n/a	n/a	n/a	n/a	n/a	n/a
58.0507	0.6	INK	7	Neutral	xxxxxxx	xxxxxxx	niebieski	blue	hit	n/a
58.626	n/a	RESPONSE	n/a	n/a	n/a	n/a	n/a	n/a	n/a	blue
58.6507	1.0167	ITI	n/a	n/a	n/a	n/a	n/a	n/a	n/a	n/a
59.6674	0.5167	FIXCROSS	n/a	n/a	n/a	n/a	n/a	n/a	n/a	n/a
60.1841	0.6167	INK	8	Neutral	xxxxx	xxxxx	niebieski	blue	hit	n/a
60.7671	n/a	RESPONSE	n/a	n/a	n/a	n/a	n/a	n/a	n/a	blue
60.8008	1.0167	ITI	n/a	n/a	n/a	n/a	n/a	n/a	n/a	n/a
61.8174	0.5167	FIXCROSS	n/a	n/a	n/a	n/a	n/a	n/a	n/a	n/a
62.3341	0.7667	INK	9	Neutral	xxxxxxx	xxxxxxx	czerwony	red	hit	n/a
63.0681	n/a	RESPONSE	n/a	n/a	n/a	n/a	n/a	n/a	n/a	red
63.1008	1.0167	ITI	n/a	n/a	n/a	n/a	n/a	n/a	n/a	n/a
64.1174	0.5167	FIXCROSS	n/a	n/a	n/a	n/a	n/a	n/a	n/a	n/a
64.6341	0.6167	INK	10	Incongruent	żółty	yellow	czerwony	red	hit	n/a
65.2252	n/a	RESPONSE	n/a	n/a	n/a	n/a	n/a	n/a	n/a	red
65.2508	1.0167	ITI	n/a	n/a	n/a	n/a	n/a	n/a	n/a	n/a
66.2675	0.5167	FIXCROSS	n/a	n/a	n/a	n/a	n/a	n/a	n/a	n/a
66.7841	0.6	INK	11	Neutral	xxxxxxxx	xxxxxxxx	żółty	yellow	hit	n/a
67.3663	n/a	RESPONSE	n/a	n/a	n/a	n/a	n/a	n/a	n/a	yellow
67.3841	1.0167	ITI	n/a	n/a	n/a	n/a	n/a	n/a	n/a	n/a
68.4008	0.5167	FIXCROSS	n/a	n/a	n/a	n/a	n/a	n/a	n/a	n/a
68.9175	0.7167	INK	12	Neutral	xxxxx	xxxxx	niebieski	blue	hit	n/a
69.6034	n/a	RESPONSE	n/a	n/a	n/a	n/a	n/a	n/a	n/a	blue
69.6342	1.0167	ITI	n/a	n/a	n/a	n/a	n/a	n/a	n/a	n/a
70.6508	0.5167	FIXCROSS	n/a	n/a	n/a	n/a	n/a	n/a	n/a	n/a
71.1675	0.9	INK	13	Neutral	xxxxx	xxxxx	czerwony	red	hit	n/a
72.0481	n/a	RESPONSE	n/a	n/a	n/a	n/a	n/a	n/a	n/a	red
72.0675	1.0167	ITI	n/a	n/a	n/a	n/a	n/a	n/a	n/a	n/a
73.0842	0.5167	FIXCROSS	n/a	n/a	n/a	n/a	n/a	n/a	n/a	n/a
73.6008	0.6833	INK	14	Incongruent	niebieski	blue	zielony	green	hit	n/a
74.2532	n/a	RESPONSE	n/a	n/a	n/a	n/a	n/a	n/a	n/a	green
74.2842	1.0167	ITI	n/a	n/a	n/a	n/a	n/a	n/a	n/a	n/a
75.3009	0.5167	FIXCROSS	n/a	n/a	n/a	n/a	n/a	n/a	n/a	n/a
75.8175	0.65	INK	15	Incongruent	zielony	green	żółty	yellow	hit	n/a
76.4423	n/a	RESPONSE	n/a	n/a	n/a	n/a	n/a	n/a	n/a	yellow
76.4675	1.0167	ITI	n/a	n/a	n/a	n/a	n/a	n/a	n/a	n/a
77.4842	0.5167	FIXCROSS	n/a	n/a	n/a	n/a	n/a	n/a	n/a	n/a
78.0009	0.6332	INK	16	Neutral	xxxxxxx	xxxxxxx	niebieski	blue	hit	n/a
78.5994	n/a	RESPONSE	n/a	n/a	n/a	n/a	n/a	n/a	n/a	blue
78.6341	1.0168	ITI	n/a	n/a	n/a	n/a	n/a	n/a	n/a	n/a
79.6509	0.5167	FIXCROSS	n/a	n/a	n/a	n/a	n/a	n/a	n/a	n/a
80.1676	0.6333	INK	17	Incongruent	niebieski	blue	żółty	yellow	hit	n/a
80.7725	n/a	RESPONSE	n/a	n/a	n/a	n/a	n/a	n/a	n/a	yellow
80.8009	1.0167	ITI	n/a	n/a	n/a	n/a	n/a	n/a	n/a	n/a
81.8176	0.5167	FIXCROSS	n/a	n/a	n/a	n/a	n/a	n/a	n/a	n/a
82.3342	0.55	INK	18	Neutral	xxxxxxxxx	xxxxxxxxx	żółty	yellow	hit	n/a
82.8657	n/a	RESPONSE	n/a	n/a	n/a	n/a	n/a	n/a	n/a	yellow
82.8842	1.0167	ITI	n/a	n/a	n/a	n/a	n/a	n/a	n/a	n/a
83.9009	0.5167	FIXCROSS	n/a	n/a	n/a	n/a	n/a	n/a	n/a	n/a
84.4176	0.6833	INK	19	Neutral	xxxxxxxxx	xxxxxxxxx	czerwony	red	hit	n/a
85.0708	n/a	RESPONSE	n/a	n/a	n/a	n/a	n/a	n/a	n/a	red
85.1009	1.0167	ITI	n/a	n/a	n/a	n/a	n/a	n/a	n/a	n/a
86.1176	0.5167	FIXCROSS	n/a	n/a	n/a	n/a	n/a	n/a	n/a	n/a
86.6343	0.55	INK	20	Incongruent	czerwony	red	żółty	yellow	hit	n/a
87.1641	n/a	RESPONSE	n/a	n/a	n/a	n/a	n/a	n/a	n/a	yellow
87.1843	1.0167	ITI	n/a	n/a	n/a	n/a	n/a	n/a	n/a	n/a
88.2009	0.5167	FIXCROSS	n/a	n/a	n/a	n/a	n/a	n/a	n/a	n/a
88.7176	0.6167	INK	21	Neutral	xxxxx	xxxxx	zielony	green	hit	n/a
89.3053	n/a	RESPONSE	n/a	n/a	n/a	n/a	n/a	n/a	n/a	green
89.3343	1.0167	ITI	n/a	n/a	n/a	n/a	n/a	n/a	n/a	n/a
90.351	0.5167	FIXCROSS	n/a	n/a	n/a	n/a	n/a	n/a	n/a	n/a
90.8676	0.5833	INK	22	Neutral	xxxxxxxx	xxxxxxxx	niebieski	blue	hit	n/a
91.4304	n/a	RESPONSE	n/a	n/a	n/a	n/a	n/a	n/a	n/a	blue
91.451	1.0167	ITI	n/a	n/a	n/a	n/a	n/a	n/a	n/a	n/a
92.4676	0.5167	FIXCROSS	n/a	n/a	n/a	n/a	n/a	n/a	n/a	n/a
92.9843	1.0	INK	23	Incongruent	żółty	yellow	zielony	green	hit	n/a
93.9551	n/a	RESPONSE	n/a	n/a	n/a	n/a	n/a	n/a	n/a	green
93.9843	1.0167	ITI	n/a	n/a	n/a	n/a	n/a	n/a	n/a	n/a
95.001	0.5167	FIXCROSS	n/a	n/a	n/a	n/a	n/a	n/a	n/a	n/a
95.5177	0.75	INK	24	Incongruent	zielony	green	czerwony	red	hit	n/a
96.2401	n/a	RESPONSE	n/a	n/a	n/a	n/a	n/a	n/a	n/a	red
96.2677	1.0167	ITI	n/a	n/a	n/a	n/a	n/a	n/a	n/a	n/a
97.2844	0.5167	FIXCROSS	n/a	n/a	n/a	n/a	n/a	n/a	n/a	n/a
97.801	0.8	INK	25	Incongruent	niebieski	blue	zielony	green	hit	n/a
98.5729	n/a	RESPONSE	n/a	n/a	n/a	n/a	n/a	n/a	n/a	green
98.601	1.0167	ITI	n/a	n/a	n/a	n/a	n/a	n/a	n/a	n/a
99.6177	0.5167	FIXCROSS	n/a	n/a	n/a	n/a	n/a	n/a	n/a	n/a
100.1344	0.5833	INK	26	Incongruent	zielony	green	niebieski	blue	hit	n/a
100.6982	n/a	RESPONSE	n/a	n/a	n/a	n/a	n/a	n/a	n/a	blue
100.7177	1.0167	ITI	n/a	n/a	n/a	n/a	n/a	n/a	n/a	n/a
101.7344	0.5167	FIXCROSS	n/a	n/a	n/a	n/a	n/a	n/a	n/a	n/a
102.2511	0.6333	INK	27	Incongruent	żółty	yellow	zielony	green	hit	n/a
102.8553	n/a	RESPONSE	n/a	n/a	n/a	n/a	n/a	n/a	n/a	green
102.8844	1.0167	ITI	n/a	n/a	n/a	n/a	n/a	n/a	n/a	n/a
103.9011	0.5167	FIXCROSS	n/a	n/a	n/a	n/a	n/a	n/a	n/a	n/a
104.4177	0.5333	INK	28	Neutral	xxxxxxx	xxxxxxx	żółty	yellow	hit	n/a
104.9325	n/a	RESPONSE	n/a	n/a	n/a	n/a	n/a	n/a	n/a	yellow
104.9511	1.0167	ITI	n/a	n/a	n/a	n/a	n/a	n/a	n/a	n/a
105.9677	0.5167	FIXCROSS	n/a	n/a	n/a	n/a	n/a	n/a	n/a	n/a
106.4844	0.6	INK	29	Neutral	xxxxxxxxx	xxxxxxxxx	żółty	yellow	hit	n/a
107.0576	n/a	RESPONSE	n/a	n/a	n/a	n/a	n/a	n/a	n/a	yellow
107.0844	1.0167	ITI	n/a	n/a	n/a	n/a	n/a	n/a	n/a	n/a
108.1011	0.5167	FIXCROSS	n/a	n/a	n/a	n/a	n/a	n/a	n/a	n/a
108.6178	0.6833	INK	30	Incongruent	zielony	green	czerwony	red	hit	n/a
109.2787	n/a	RESPONSE	n/a	n/a	n/a	n/a	n/a	n/a	n/a	red
109.3011	1.0167	ITI	n/a	n/a	n/a	n/a	n/a	n/a	n/a	n/a
110.3178	0.5167	FIXCROSS	n/a	n/a	n/a	n/a	n/a	n/a	n/a	n/a
110.8344	0.6833	INK	31	Neutral	xxxxxxxxx	xxxxxxxxx	czerwony	red	hit	n/a
111.4997	n/a	RESPONSE	n/a	n/a	n/a	n/a	n/a	n/a	n/a	red
111.5178	1.0167	ITI	n/a	n/a	n/a	n/a	n/a	n/a	n/a	n/a
112.5345	0.5167	FIXCROSS	n/a	n/a	n/a	n/a	n/a	n/a	n/a	n/a
113.0511	0.9333	INK	32	Incongruent	czerwony	red	zielony	green	hit	n/a
113.9605	n/a	RESPONSE	n/a	n/a	n/a	n/a	n/a	n/a	n/a	green
113.9845	1.0167	ITI	n/a	n/a	n/a	n/a	n/a	n/a	n/a	n/a
115.0011	0.5167	FIXCROSS	n/a	n/a	n/a	n/a	n/a	n/a	n/a	n/a
115.5178	0.5	INK	33	Incongruent	żółty	yellow	zielony	green	hit	n/a
115.9897	n/a	RESPONSE	n/a	n/a	n/a	n/a	n/a	n/a	n/a	green
116.0178	1.0167	ITI	n/a	n/a	n/a	n/a	n/a	n/a	n/a	n/a
117.0345	0.5167	FIXCROSS	n/a	n/a	n/a	n/a	n/a	n/a	n/a	n/a
117.5512	0.5833	INK	34	Incongruent	czerwony	red	niebieski	blue	hit	n/a
118.1149	n/a	RESPONSE	n/a	n/a	n/a	n/a	n/a	n/a	n/a	blue
118.1345	1.0167	ITI	n/a	n/a	n/a	n/a	n/a	n/a	n/a	n/a
119.1512	0.5167	FIXCROSS	n/a	n/a	n/a	n/a	n/a	n/a	n/a	n/a
119.6678	0.7833	INK	35	Neutral	xxxxxxxx	xxxxxxxx	zielony	green	hit	n/a
120.4319	n/a	RESPONSE	n/a	n/a	n/a	n/a	n/a	n/a	n/a	green
120.4512	1.0167	ITI	n/a	n/a	n/a	n/a	n/a	n/a	n/a	n/a
121.4678	0.5167	FIXCROSS	n/a	n/a	n/a	n/a	n/a	n/a	n/a	n/a
121.9845	0.5833	INK	36	Neutral	xxxxx	xxxxx	czerwony	red	hit	n/a
122.5411	n/a	RESPONSE	n/a	n/a	n/a	n/a	n/a	n/a	n/a	red
122.5679	1.0167	ITI	n/a	n/a	n/a	n/a	n/a	n/a	n/a	n/a
123.5845	0.5167	FIXCROSS	n/a	n/a	n/a	n/a	n/a	n/a	n/a	n/a
124.1012	0.5167	INK	37	Incongruent	zielony	green	żółty	yellow	hit	n/a
124.5864	n/a	RESPONSE	n/a	n/a	n/a	n/a	n/a	n/a	n/a	yellow
124.6179	1.0167	ITI	n/a	n/a	n/a	n/a	n/a	n/a	n/a	n/a
125.6345	0.5167	FIXCROSS	n/a	n/a	n/a	n/a	n/a	n/a	n/a	n/a
126.1512	0.55	INK	38	Neutral	xxxxxxxxx	xxxxxxxxx	żółty	yellow	hit	n/a
126.6796	n/a	RESPONSE	n/a	n/a	n/a	n/a	n/a	n/a	n/a	yellow
126.7012	1.0167	ITI	n/a	n/a	n/a	n/a	n/a	n/a	n/a	n/a
127.7179	0.5167	FIXCROSS	n/a	n/a	n/a	n/a	n/a	n/a	n/a	n/a
128.2346	0.9333	INK	39	Neutral	xxxxxxx	xxxxxxx	czerwony	red	hit	n/a
129.1403	n/a	RESPONSE	n/a	n/a	n/a	n/a	n/a	n/a	n/a	red
129.1679	1.0167	ITI	n/a	n/a	n/a	n/a	n/a	n/a	n/a	n/a
130.1846	0.5167	FIXCROSS	n/a	n/a	n/a	n/a	n/a	n/a	n/a	n/a
130.7013	0.65	INK	40	Incongruent	żółty	yellow	niebieski	blue	hit	n/a
131.3294	n/a	RESPONSE	n/a	n/a	n/a	n/a	n/a	n/a	n/a	blue
131.3513	1.0167	ITI	n/a	n/a	n/a	n/a	n/a	n/a	n/a	n/a
132.3679	0.5167	FIXCROSS	n/a	n/a	n/a	n/a	n/a	n/a	n/a	n/a
132.8846	0.6333	INK	41	Incongruent	czerwony	red	zielony	green	hit	n/a
133.4866	n/a	RESPONSE	n/a	n/a	n/a	n/a	n/a	n/a	n/a	green
133.5179	1.0167	ITI	n/a	n/a	n/a	n/a	n/a	n/a	n/a	n/a
134.5346	0.5167	FIXCROSS	n/a	n/a	n/a	n/a	n/a	n/a	n/a	n/a
135.0513	0.7667	INK	42	Neutral	xxxxx	xxxxx	zielony	green	hit	n/a
135.7874	n/a	RESPONSE	n/a	n/a	n/a	n/a	n/a	n/a	n/a	green
135.818	1.0167	ITI	n/a	n/a	n/a	n/a	n/a	n/a	n/a	n/a
136.8346	0.5167	FIXCROSS	n/a	n/a	n/a	n/a	n/a	n/a	n/a	n/a
137.3513	0.8	INK	43	Incongruent	niebieski	blue	czerwony	red	hit	n/a
138.1204	n/a	RESPONSE	n/a	n/a	n/a	n/a	n/a	n/a	n/a	red
138.1513	1.0167	ITI	n/a	n/a	n/a	n/a	n/a	n/a	n/a	n/a
139.168	0.5167	FIXCROSS	n/a	n/a	n/a	n/a	n/a	n/a	n/a	n/a
139.6846	0.7	INK	44	Neutral	xxxxx	xxxxx	zielony	green	hit	n/a
140.3574	n/a	RESPONSE	n/a	n/a	n/a	n/a	n/a	n/a	n/a	green
140.3847	1.0167	ITI	n/a	n/a	n/a	n/a	n/a	n/a	n/a	n/a
141.4013	0.5167	FIXCROSS	n/a	n/a	n/a	n/a	n/a	n/a	n/a	n/a
141.918	0.6667	INK	45	Incongruent	czerwony	red	niebieski	blue	hit	n/a
142.5625	n/a	RESPONSE	n/a	n/a	n/a	n/a	n/a	n/a	n/a	blue
142.5847	1.0167	ITI	n/a	n/a	n/a	n/a	n/a	n/a	n/a	n/a
143.6013	0.5167	FIXCROSS	n/a	n/a	n/a	n/a	n/a	n/a	n/a	n/a
144.118	0.65	INK	46	Incongruent	żółty	yellow	czerwony	red	hit	n/a
144.7357	n/a	RESPONSE	n/a	n/a	n/a	n/a	n/a	n/a	n/a	red
144.768	1.0167	ITI	n/a	n/a	n/a	n/a	n/a	n/a	n/a	n/a
145.7847	0.5167	FIXCROSS	n/a	n/a	n/a	n/a	n/a	n/a	n/a	n/a
146.3014	0.5667	INK	47	Neutral	xxxxxxx	xxxxxxx	żółty	yellow	hit	n/a
146.8449	n/a	RESPONSE	n/a	n/a	n/a	n/a	n/a	n/a	n/a	yellow
146.868	1.0167	ITI	n/a	n/a	n/a	n/a	n/a	n/a	n/a	n/a
147.8847	0.5167	FIXCROSS	n/a	n/a	n/a	n/a	n/a	n/a	n/a	n/a
148.4014	0.7	INK	48	Neutral	xxxxxxxx	xxxxxxxx	zielony	green	hit	n/a
149.0818	n/a	RESPONSE	n/a	n/a	n/a	n/a	n/a	n/a	n/a	green
149.1014	1.0167	ITI	n/a	n/a	n/a	n/a	n/a	n/a	n/a	n/a
150.1181	0.5167	FIXCROSS	n/a	n/a	n/a	n/a	n/a	n/a	n/a	n/a
150.6347	0.6333	INK	49	Incongruent	zielony	green	niebieski	blue	hit	n/a
151.239	n/a	RESPONSE	n/a	n/a	n/a	n/a	n/a	n/a	n/a	blue
151.2681	1.0167	ITI	n/a	n/a	n/a	n/a	n/a	n/a	n/a	n/a
152.2847	0.5167	FIXCROSS	n/a	n/a	n/a	n/a	n/a	n/a	n/a	n/a
152.8014	0.5833	INK	50	Neutral	xxxxxxxxx	xxxxxxxxx	zielony	green	hit	n/a
153.3642	n/a	RESPONSE	n/a	n/a	n/a	n/a	n/a	n/a	n/a	green
153.3847	1.0167	ITI	n/a	n/a	n/a	n/a	n/a	n/a	n/a	n/a
154.4014	0.5167	FIXCROSS	n/a	n/a	n/a	n/a	n/a	n/a	n/a	n/a
154.9181	0.7333	INK	51	Incongruent	żółty	yellow	niebieski	blue	hit	n/a
155.6333	n/a	RESPONSE	n/a	n/a	n/a	n/a	n/a	n/a	n/a	blue
155.6514	1.0167	ITI	n/a	n/a	n/a	n/a	n/a	n/a	n/a	n/a
156.6681	0.5167	FIXCROSS	n/a	n/a	n/a	n/a	n/a	n/a	n/a	n/a
157.1848	0.6333	INK	52	Incongruent	czerwony	red	niebieski	blue	hit	n/a
157.7903	n/a	RESPONSE	n/a	n/a	n/a	n/a	n/a	n/a	n/a	blue
157.8181	1.0167	ITI	n/a	n/a	n/a	n/a	n/a	n/a	n/a	n/a
158.8348	0.5167	FIXCROSS	n/a	n/a	n/a	n/a	n/a	n/a	n/a	n/a
159.3514	0.4833	INK	53	Neutral	xxxxx	xxxxx	niebieski	blue	hit	n/a
159.8037	n/a	RESPONSE	n/a	n/a	n/a	n/a	n/a	n/a	n/a	blue
159.8348	1.0167	ITI	n/a	n/a	n/a	n/a	n/a	n/a	n/a	n/a
160.8515	0.5167	FIXCROSS	n/a	n/a	n/a	n/a	n/a	n/a	n/a	n/a
161.3681	0.6833	INK	54	Incongruent	niebieski	blue	żółty	yellow	hit	n/a
162.0247	n/a	RESPONSE	n/a	n/a	n/a	n/a	n/a	n/a	n/a	yellow
162.0515	1.0167	ITI	n/a	n/a	n/a	n/a	n/a	n/a	n/a	n/a
163.0681	0.5167	FIXCROSS	n/a	n/a	n/a	n/a	n/a	n/a	n/a	n/a
163.5848	0.8	INK	55	Incongruent	zielony	green	niebieski	blue	hit	n/a
164.3577	n/a	RESPONSE	n/a	n/a	n/a	n/a	n/a	n/a	n/a	blue
164.3848	1.0167	ITI	n/a	n/a	n/a	n/a	n/a	n/a	n/a	n/a
165.4015	0.5167	FIXCROSS	n/a	n/a	n/a	n/a	n/a	n/a	n/a	n/a
165.9182	0.4166	INK	56	Incongruent	żółty	yellow	czerwony	red	hit	n/a
166.307	n/a	RESPONSE	n/a	n/a	n/a	n/a	n/a	n/a	n/a	red
166.3348	1.0167	ITI	n/a	n/a	n/a	n/a	n/a	n/a	n/a	n/a
167.3515	0.5167	FIXCROSS	n/a	n/a	n/a	n/a	n/a	n/a	n/a	n/a
167.8682	0.85	INK	57	Neutral	xxxxxxx	xxxxxxx	żółty	yellow	hit	n/a
168.6878	n/a	RESPONSE	n/a	n/a	n/a	n/a	n/a	n/a	n/a	yellow
168.7182	1.0167	ITI	n/a	n/a	n/a	n/a	n/a	n/a	n/a	n/a
169.7349	0.5167	FIXCROSS	n/a	n/a	n/a	n/a	n/a	n/a	n/a	n/a
170.2515	0.6	INK	58	Neutral	xxxxxxx	xxxxxxx	niebieski	blue	hit	n/a
170.8291	n/a	RESPONSE	n/a	n/a	n/a	n/a	n/a	n/a	n/a	blue
170.8515	1.0167	ITI	n/a	n/a	n/a	n/a	n/a	n/a	n/a	n/a
171.8682	0.5167	FIXCROSS	n/a	n/a	n/a	n/a	n/a	n/a	n/a	n/a
172.3849	0.5667	INK	59	Neutral	xxxxxxxx	xxxxxxxx	żółty	yellow	hit	n/a
172.9223	n/a	RESPONSE	n/a	n/a	n/a	n/a	n/a	n/a	n/a	yellow
172.9515	1.0167	ITI	n/a	n/a	n/a	n/a	n/a	n/a	n/a	n/a
173.9682	0.5167	FIXCROSS	n/a	n/a	n/a	n/a	n/a	n/a	n/a	n/a
174.4849	0.7333	INK	60	Incongruent	czerwony	red	żółty	yellow	hit	n/a
175.1913	n/a	RESPONSE	n/a	n/a	n/a	n/a	n/a	n/a	n/a	yellow
175.2182	1.0167	ITI	n/a	n/a	n/a	n/a	n/a	n/a	n/a	n/a
176.2349	0.5167	FIXCROSS	n/a	n/a	n/a	n/a	n/a	n/a	n/a	n/a
176.7516	0.55	INK	61	Incongruent	zielony	green	żółty	yellow	hit	n/a
177.2685	n/a	RESPONSE	n/a	n/a	n/a	n/a	n/a	n/a	n/a	yellow
177.3016	1.0167	ITI	n/a	n/a	n/a	n/a	n/a	n/a	n/a	n/a
178.3182	0.5167	FIXCROSS	n/a	n/a	n/a	n/a	n/a	n/a	n/a	n/a
178.8349	0.5	INK	62	Neutral	xxxxxxxx	xxxxxxxx	niebieski	blue	hit	n/a
179.3137	n/a	RESPONSE	n/a	n/a	n/a	n/a	n/a	n/a	n/a	blue
179.3349	1.0167	ITI	n/a	n/a	n/a	n/a	n/a	n/a	n/a	n/a
180.3516	0.5167	FIXCROSS	n/a	n/a	n/a	n/a	n/a	n/a	n/a	n/a
180.8683	0.6333	INK	63	Neutral	xxxxxxxxx	xxxxxxxxx	zielony	green	hit	n/a
181.4709	n/a	RESPONSE	n/a	n/a	n/a	n/a	n/a	n/a	n/a	green
181.5016	1.0167	ITI	n/a	n/a	n/a	n/a	n/a	n/a	n/a	n/a
182.5183	0.5167	FIXCROSS	n/a	n/a	n/a	n/a	n/a	n/a	n/a	n/a
183.0349	0.6167	INK	64	Incongruent	niebieski	blue	żółty	yellow	hit	n/a
183.628	n/a	RESPONSE	n/a	n/a	n/a	n/a	n/a	n/a	n/a	yellow
183.6516	1.0167	ITI	n/a	n/a	n/a	n/a	n/a	n/a	n/a	n/a
184.6683	0.5167	FIXCROSS	n/a	n/a	n/a	n/a	n/a	n/a	n/a	n/a
185.185	0.6667	INK	65	Neutral	xxxxxxx	xxxxxxx	czerwony	red	hit	n/a
185.8171	n/a	RESPONSE	n/a	n/a	n/a	n/a	n/a	n/a	n/a	red
185.8516	1.0167	ITI	n/a	n/a	n/a	n/a	n/a	n/a	n/a	n/a
186.8683	0.5167	FIXCROSS	n/a	n/a	n/a	n/a	n/a	n/a	n/a	n/a
187.385	0.8	INK	66	Neutral	xxxxxxxx	xxxxxxxx	zielony	green	hit	n/a
188.166	n/a	RESPONSE	n/a	n/a	n/a	n/a	n/a	n/a	n/a	green
188.185	1.0167	ITI	n/a	n/a	n/a	n/a	n/a	n/a	n/a	n/a
189.2017	0.5167	FIXCROSS	n/a	n/a	n/a	n/a	n/a	n/a	n/a	n/a
189.7183	0.7167	INK	67	Incongruent	żółty	yellow	niebieski	blue	hit	n/a
190.4031	n/a	RESPONSE	n/a	n/a	n/a	n/a	n/a	n/a	n/a	blue
190.435	1.0167	ITI	n/a	n/a	n/a	n/a	n/a	n/a	n/a	n/a
191.4517	0.5167	FIXCROSS	n/a	n/a	n/a	n/a	n/a	n/a	n/a	n/a
191.9683	0.5833	INK	68	Incongruent	zielony	green	czerwony	red	hit	n/a
192.5282	n/a	RESPONSE	n/a	n/a	n/a	n/a	n/a	n/a	n/a	red
192.5517	1.0167	ITI	n/a	n/a	n/a	n/a	n/a	n/a	n/a	n/a
193.5684	0.5167	FIXCROSS	n/a	n/a	n/a	n/a	n/a	n/a	n/a	n/a
194.085	0.5167	INK	69	Neutral	xxxxx	xxxxx	czerwony	red	hit	n/a
194.5735	n/a	RESPONSE	n/a	n/a	n/a	n/a	n/a	n/a	n/a	red
194.6017	1.0167	ITI	n/a	n/a	n/a	n/a	n/a	n/a	n/a	n/a
195.6184	0.5167	FIXCROSS	n/a	n/a	n/a	n/a	n/a	n/a	n/a	n/a
196.135	0.75	INK	70	Incongruent	niebieski	blue	zielony	green	hit	n/a
196.8585	n/a	RESPONSE	n/a	n/a	n/a	n/a	n/a	n/a	n/a	green
196.885	1.0167	ITI	n/a	n/a	n/a	n/a	n/a	n/a	n/a	n/a
197.9017	0.5167	FIXCROSS	n/a	n/a	n/a	n/a	n/a	n/a	n/a	n/a
198.4184	0.9	INK	71	Incongruent	niebieski	blue	czerwony	red	hit	n/a
199.2872	n/a	RESPONSE	n/a	n/a	n/a	n/a	n/a	n/a	n/a	red
199.3184	1.0167	ITI	n/a	n/a	n/a	n/a	n/a	n/a	n/a	n/a
200.3351	0.5167	FIXCROSS	n/a	n/a	n/a	n/a	n/a	n/a	n/a	n/a
200.8517	0.4667	INK	72	Incongruent	niebieski	blue	czerwony	red	hit	n/a
201.3006	n/a	RESPONSE	n/a	n/a	n/a	n/a	n/a	n/a	n/a	red
201.3184	1.0833	ITI	n/a	n/a	n/a	n/a	n/a	n/a	n/a	n/a
215.2022	n/a	RESPONSE	n/a	n/a	n/a	n/a	n/a	n/a	n/a	n/a
215.2685	1.0167	ITI	n/a	n/a	n/a	n/a	n/a	n/a	n/a	n/a
216.2852	0.5167	FIXCROSS	n/a	n/a	n/a	n/a	n/a	n/a	n/a	n/a
216.8019	1.1	T_COLOR_NAME	1	Neutral	żółty	yellow	Neutral	Neutral	hit	n/a
217.8708	n/a	RESPONSE	n/a	n/a	n/a	n/a	n/a	n/a	n/a	yellow
217.9019	0.5167	FEEDBACK	n/a	n/a	n/a	n/a	n/a	n/a	n/a	n/a
218.4185	1.0167	ITI	n/a	n/a	n/a	n/a	n/a	n/a	n/a	n/a
219.4352	0.5167	FIXCROSS	n/a	n/a	n/a	n/a	n/a	n/a	n/a	n/a
219.9519	0.7833	T_COLOR_NAME	2	Neutral	czerwony	red	Neutral	Neutral	hit	n/a
220.6988	n/a	RESPONSE	n/a	n/a	n/a	n/a	n/a	n/a	n/a	red
220.7352	0.5167	FEEDBACK	n/a	n/a	n/a	n/a	n/a	n/a	n/a	n/a
221.2519	1.0167	ITI	n/a	n/a	n/a	n/a	n/a	n/a	n/a	n/a
222.2686	0.5167	FIXCROSS	n/a	n/a	n/a	n/a	n/a	n/a	n/a	n/a
222.7852	0.85	T_COLOR_NAME	3	Neutral	czerwony	red	Neutral	Neutral	hit	n/a
223.607	n/a	RESPONSE	n/a	n/a	n/a	n/a	n/a	n/a	n/a	red
223.6352	0.5167	FEEDBACK	n/a	n/a	n/a	n/a	n/a	n/a	n/a	n/a
224.1519	1.0167	ITI	n/a	n/a	n/a	n/a	n/a	n/a	n/a	n/a
225.1686	0.5167	FIXCROSS	n/a	n/a	n/a	n/a	n/a	n/a	n/a	n/a
225.6852	0.5833	T_COLOR_NAME	4	Neutral	zielony	green	Neutral	Neutral	hit	n/a
226.2437	n/a	RESPONSE	n/a	n/a	n/a	n/a	n/a	n/a	n/a	green
226.2686	0.5167	FEEDBACK	n/a	n/a	n/a	n/a	n/a	n/a	n/a	n/a
226.7853	1.0167	ITI	n/a	n/a	n/a	n/a	n/a	n/a	n/a	n/a
227.8019	0.5167	FIXCROSS	n/a	n/a	n/a	n/a	n/a	n/a	n/a	n/a
228.3186	1.3167	T_COLOR_NAME	5	Incongruent	zielony	green	żółty	yellow	hit	n/a
229.5991	n/a	RESPONSE	n/a	n/a	n/a	n/a	n/a	n/a	n/a	green
229.6353	0.5167	FEEDBACK	n/a	n/a	n/a	n/a	n/a	n/a	n/a	n/a
230.1519	1.0167	ITI	n/a	n/a	n/a	n/a	n/a	n/a	n/a	n/a
231.1686	0.5167	FIXCROSS	n/a	n/a	n/a	n/a	n/a	n/a	n/a	n/a
231.6853	0.7333	T_COLOR_NAME	6	Neutral	żółty	yellow	Neutral	Neutral	hit	n/a
232.3955	n/a	RESPONSE	n/a	n/a	n/a	n/a	n/a	n/a	n/a	yellow
232.4186	0.5167	FEEDBACK	n/a	n/a	n/a	n/a	n/a	n/a	n/a	n/a
232.9353	1.0167	ITI	n/a	n/a	n/a	n/a	n/a	n/a	n/a	n/a
233.952	0.5167	FIXCROSS	n/a	n/a	n/a	n/a	n/a	n/a	n/a	n/a
234.4686	0.9167	T_COLOR_NAME	7	Incongruent	czerwony	red	żółty	yellow	hit	n/a
235.3516	n/a	RESPONSE	n/a	n/a	n/a	n/a	n/a	n/a	n/a	red
235.3853	0.5167	FEEDBACK	n/a	n/a	n/a	n/a	n/a	n/a	n/a	n/a
235.902	1.0167	ITI	n/a	n/a	n/a	n/a	n/a	n/a	n/a	n/a
236.9187	0.5167	FIXCROSS	n/a	n/a	n/a	n/a	n/a	n/a	n/a	n/a
237.4353	0.7833	T_COLOR_NAME	8	Neutral	niebieski	blue	Neutral	Neutral	hit	n/a
238.1958	n/a	RESPONSE	n/a	n/a	n/a	n/a	n/a	n/a	n/a	blue
238.2187	0.5167	FEEDBACK	n/a	n/a	n/a	n/a	n/a	n/a	n/a	n/a
238.7353	1.0167	ITI	n/a	n/a	n/a	n/a	n/a	n/a	n/a	n/a
239.752	0.5167	FIXCROSS	n/a	n/a	n/a	n/a	n/a	n/a	n/a	n/a
240.2687	1.25	T_COLOR_NAME	9	Incongruent	żółty	yellow	czerwony	red	hit	n/a
241.4875	n/a	RESPONSE	n/a	n/a	n/a	n/a	n/a	n/a	n/a	yellow
241.5187	0.5167	FEEDBACK	n/a	n/a	n/a	n/a	n/a	n/a	n/a	n/a
242.0354	1.0167	ITI	n/a	n/a	n/a	n/a	n/a	n/a	n/a	n/a
243.052	0.5167	FIXCROSS	n/a	n/a	n/a	n/a	n/a	n/a	n/a	n/a
243.5687	1.1833	T_COLOR_NAME	10	Neutral	czerwony	red	Neutral	Neutral	hit	n/a
244.7311	n/a	RESPONSE	n/a	n/a	n/a	n/a	n/a	n/a	n/a	red
244.752	0.5167	FEEDBACK	n/a	n/a	n/a	n/a	n/a	n/a	n/a	n/a
245.2687	1.0167	ITI	n/a	n/a	n/a	n/a	n/a	n/a	n/a	n/a
246.2854	0.5167	FIXCROSS	n/a	n/a	n/a	n/a	n/a	n/a	n/a	n/a
246.8021	1.0167	T_COLOR_NAME	11	Neutral	zielony	green	Neutral	Neutral	hit	n/a
247.799	n/a	RESPONSE	n/a	n/a	n/a	n/a	n/a	n/a	n/a	green
247.8187	0.5167	FEEDBACK	n/a	n/a	n/a	n/a	n/a	n/a	n/a	n/a
248.3354	1.0167	ITI	n/a	n/a	n/a	n/a	n/a	n/a	n/a	n/a
249.3521	0.5167	FIXCROSS	n/a	n/a	n/a	n/a	n/a	n/a	n/a	n/a
249.8687	1.0334	T_COLOR_NAME	12	Incongruent	żółty	yellow	zielony	green	hit	n/a
250.867	n/a	RESPONSE	n/a	n/a	n/a	n/a	n/a	n/a	n/a	yellow
250.9021	0.5167	FEEDBACK	n/a	n/a	n/a	n/a	n/a	n/a	n/a	n/a
251.4188	1.0333	ITI	n/a	n/a	n/a	n/a	n/a	n/a	n/a	n/a
254.3983	n/a	RESPONSE	n/a	n/a	n/a	n/a	n/a	n/a	n/a	n/a
254.4521	1.0167	ITI	n/a	n/a	n/a	n/a	n/a	n/a	n/a	n/a
255.4688	0.5167	FIXCROSS	n/a	n/a	n/a	n/a	n/a	n/a	n/a	n/a
255.9855	0.9667	COLOR_NAME	1	Neutral	niebieski	blue	Neutral	Neutral	hit	n/a
256.9229	n/a	RESPONSE	n/a	n/a	n/a	n/a	n/a	n/a	n/a	blue
256.9521	1.0167	ITI	n/a	n/a	n/a	n/a	n/a	n/a	n/a	n/a
257.9688	0.5167	FIXCROSS	n/a	n/a	n/a	n/a	n/a	n/a	n/a	n/a
258.4855	1.1667	COLOR_NAME	2	Incongruent	zielony	green	niebieski	blue	hit	n/a
259.6234	n/a	RESPONSE	n/a	n/a	n/a	n/a	n/a	n/a	n/a	green
259.6522	1.0167	ITI	n/a	n/a	n/a	n/a	n/a	n/a	n/a	n/a
260.6688	0.5167	FIXCROSS	n/a	n/a	n/a	n/a	n/a	n/a	n/a	n/a
261.1855	0.95	COLOR_NAME	3	Incongruent	niebieski	blue	zielony	green	hit	n/a
262.1161	n/a	RESPONSE	n/a	n/a	n/a	n/a	n/a	n/a	n/a	blue
262.1355	1.0167	ITI	n/a	n/a	n/a	n/a	n/a	n/a	n/a	n/a
263.1522	0.5167	FIXCROSS	n/a	n/a	n/a	n/a	n/a	n/a	n/a	n/a
263.6688	1.1	COLOR_NAME	4	Incongruent	żółty	yellow	czerwony	red	hit	n/a
264.7366	n/a	RESPONSE	n/a	n/a	n/a	n/a	n/a	n/a	n/a	yellow
264.7688	1.0167	ITI	n/a	n/a	n/a	n/a	n/a	n/a	n/a	n/a
265.7855	0.5167	FIXCROSS	n/a	n/a	n/a	n/a	n/a	n/a	n/a	n/a
266.3022	0.7667	COLOR_NAME	5	Neutral	czerwony	red	Neutral	Neutral	hit	n/a
267.0376	n/a	RESPONSE	n/a	n/a	n/a	n/a	n/a	n/a	n/a	red
267.0689	1.0167	ITI	n/a	n/a	n/a	n/a	n/a	n/a	n/a	n/a
268.0855	0.5167	FIXCROSS	n/a	n/a	n/a	n/a	n/a	n/a	n/a	n/a
268.6022	0.75	COLOR_NAME	6	Neutral	żółty	yellow	Neutral	Neutral	hit	n/a
269.3225	n/a	RESPONSE	n/a	n/a	n/a	n/a	n/a	n/a	n/a	yellow
269.3522	1.0167	ITI	n/a	n/a	n/a	n/a	n/a	n/a	n/a	n/a
270.3689	0.5167	FIXCROSS	n/a	n/a	n/a	n/a	n/a	n/a	n/a	n/a
270.8856	0.95	COLOR_NAME	7	Incongruent	czerwony	red	zielony	green	hit	n/a
271.8152	n/a	RESPONSE	n/a	n/a	n/a	n/a	n/a	n/a	n/a	red
271.8356	1.0167	ITI	n/a	n/a	n/a	n/a	n/a	n/a	n/a	n/a
272.8522	0.5167	FIXCROSS	n/a	n/a	n/a	n/a	n/a	n/a	n/a	n/a
273.3689	0.6333	COLOR_NAME	8	Neutral	czerwony	red	Neutral	Neutral	hit	n/a
273.9723	n/a	RESPONSE	n/a	n/a	n/a	n/a	n/a	n/a	n/a	red
274.0023	1.0167	ITI	n/a	n/a	n/a	n/a	n/a	n/a	n/a	n/a
275.0189	0.5167	FIXCROSS	n/a	n/a	n/a	n/a	n/a	n/a	n/a	n/a
275.5356	0.7667	COLOR_NAME	9	Neutral	niebieski	blue	Neutral	Neutral	hit	n/a
276.2733	n/a	RESPONSE	n/a	n/a	n/a	n/a	n/a	n/a	n/a	blue
276.3023	1.0167	ITI	n/a	n/a	n/a	n/a	n/a	n/a	n/a	n/a
277.3189	0.5167	FIXCROSS	n/a	n/a	n/a	n/a	n/a	n/a	n/a	n/a
277.8356	0.9333	COLOR_NAME	10	Incongruent	niebieski	blue	czerwony	red	hit	n/a
278.75	n/a	RESPONSE	n/a	n/a	n/a	n/a	n/a	n/a	n/a	blue
278.7689	1.0167	ITI	n/a	n/a	n/a	n/a	n/a	n/a	n/a	n/a
279.7856	0.5167	FIXCROSS	n/a	n/a	n/a	n/a	n/a	n/a	n/a	n/a
280.3023	0.7667	COLOR_NAME	11	Incongruent	żółty	yellow	niebieski	blue	hit	n/a
281.051	n/a	RESPONSE	n/a	n/a	n/a	n/a	n/a	n/a	n/a	yellow
281.069	1.0167	ITI	n/a	n/a	n/a	n/a	n/a	n/a	n/a	n/a
282.0856	0.5167	FIXCROSS	n/a	n/a	n/a	n/a	n/a	n/a	n/a	n/a
282.6023	0.75	COLOR_NAME	12	Incongruent	żółty	yellow	zielony	green	hit	n/a
283.32	n/a	RESPONSE	n/a	n/a	n/a	n/a	n/a	n/a	n/a	yellow
283.3523	1.0167	ITI	n/a	n/a	n/a	n/a	n/a	n/a	n/a	n/a
284.369	0.5167	FIXCROSS	n/a	n/a	n/a	n/a	n/a	n/a	n/a	n/a
284.8857	0.8	COLOR_NAME	13	Neutral	czerwony	red	Neutral	Neutral	hit	n/a
285.653	n/a	RESPONSE	n/a	n/a	n/a	n/a	n/a	n/a	n/a	red
285.6857	1.0167	ITI	n/a	n/a	n/a	n/a	n/a	n/a	n/a	n/a
286.7023	0.5167	FIXCROSS	n/a	n/a	n/a	n/a	n/a	n/a	n/a	n/a
287.219	1.0833	COLOR_NAME	14	Incongruent	żółty	yellow	zielony	green	hit	n/a
288.2734	n/a	RESPONSE	n/a	n/a	n/a	n/a	n/a	n/a	n/a	yellow
288.3023	1.0167	ITI	n/a	n/a	n/a	n/a	n/a	n/a	n/a	n/a
289.319	0.5167	FIXCROSS	n/a	n/a	n/a	n/a	n/a	n/a	n/a	n/a
289.8357	0.8833	COLOR_NAME	15	Incongruent	czerwony	red	zielony	green	hit	n/a
290.6863	n/a	RESPONSE	n/a	n/a	n/a	n/a	n/a	n/a	n/a	red
290.719	1.0167	ITI	n/a	n/a	n/a	n/a	n/a	n/a	n/a	n/a
291.7357	0.5167	FIXCROSS	n/a	n/a	n/a	n/a	n/a	n/a	n/a	n/a
292.2524	0.9667	COLOR_NAME	16	Incongruent	zielony	green	czerwony	red	hit	n/a
293.195	n/a	RESPONSE	n/a	n/a	n/a	n/a	n/a	n/a	n/a	green
293.219	1.0167	ITI	n/a	n/a	n/a	n/a	n/a	n/a	n/a	n/a
294.2357	0.5167	FIXCROSS	n/a	n/a	n/a	n/a	n/a	n/a	n/a	n/a
294.7524	1.0167	COLOR_NAME	17	Incongruent	zielony	green	niebieski	blue	hit	n/a
295.7516	n/a	RESPONSE	n/a	n/a	n/a	n/a	n/a	n/a	n/a	green
295.7691	1.0167	ITI	n/a	n/a	n/a	n/a	n/a	n/a	n/a	n/a
296.7857	0.5167	FIXCROSS	n/a	n/a	n/a	n/a	n/a	n/a	n/a	n/a
297.3024	0.9	COLOR_NAME	18	Incongruent	niebieski	blue	czerwony	red	hit	n/a
298.1803	n/a	RESPONSE	n/a	n/a	n/a	n/a	n/a	n/a	n/a	blue
298.2024	1.0167	ITI	n/a	n/a	n/a	n/a	n/a	n/a	n/a	n/a
299.2191	0.5167	FIXCROSS	n/a	n/a	n/a	n/a	n/a	n/a	n/a	n/a
299.7358	1.1	COLOR_NAME	19	Incongruent	zielony	green	czerwony	red	hit	n/a
300.8169	n/a	RESPONSE	n/a	n/a	n/a	n/a	n/a	n/a	n/a	green
300.8358	1.0167	ITI	n/a	n/a	n/a	n/a	n/a	n/a	n/a	n/a
301.8524	0.5167	FIXCROSS	n/a	n/a	n/a	n/a	n/a	n/a	n/a	n/a
302.3691	1.0333	COLOR_NAME	20	Incongruent	niebieski	blue	żółty	yellow	hit	n/a
303.3735	n/a	RESPONSE	n/a	n/a	n/a	n/a	n/a	n/a	n/a	blue
303.4024	1.0167	ITI	n/a	n/a	n/a	n/a	n/a	n/a	n/a	n/a
304.4191	0.5167	FIXCROSS	n/a	n/a	n/a	n/a	n/a	n/a	n/a	n/a
304.9358	0.7333	COLOR_NAME	21	Incongruent	czerwony	red	żółty	yellow	hit	n/a
305.6425	n/a	RESPONSE	n/a	n/a	n/a	n/a	n/a	n/a	n/a	red
305.6691	1.0167	ITI	n/a	n/a	n/a	n/a	n/a	n/a	n/a	n/a
306.6858	0.5167	FIXCROSS	n/a	n/a	n/a	n/a	n/a	n/a	n/a	n/a
307.2025	0.5667	COLOR_NAME	22	Neutral	czerwony	red	Neutral	Neutral	hit	n/a
307.7358	n/a	RESPONSE	n/a	n/a	n/a	n/a	n/a	n/a	n/a	red
307.7691	1.0167	ITI	n/a	n/a	n/a	n/a	n/a	n/a	n/a	n/a
308.7858	0.5167	FIXCROSS	n/a	n/a	n/a	n/a	n/a	n/a	n/a	n/a
309.3025	0.9667	COLOR_NAME	23	Incongruent	żółty	yellow	zielony	green	hit	n/a
310.2444	n/a	RESPONSE	n/a	n/a	n/a	n/a	n/a	n/a	n/a	yellow
310.2692	1.0167	ITI	n/a	n/a	n/a	n/a	n/a	n/a	n/a	n/a
311.2858	0.5167	FIXCROSS	n/a	n/a	n/a	n/a	n/a	n/a	n/a	n/a
311.8025	0.6333	COLOR_NAME	24	Incongruent	niebieski	blue	zielony	green	hit	n/a
312.4176	n/a	RESPONSE	n/a	n/a	n/a	n/a	n/a	n/a	n/a	blue
312.4358	1.0167	ITI	n/a	n/a	n/a	n/a	n/a	n/a	n/a	n/a
313.4525	0.5167	FIXCROSS	n/a	n/a	n/a	n/a	n/a	n/a	n/a	n/a
313.9692	0.6667	COLOR_NAME	25	Incongruent	zielony	green	niebieski	blue	hit	n/a
314.6068	n/a	RESPONSE	n/a	n/a	n/a	n/a	n/a	n/a	n/a	green
314.6359	1.0167	ITI	n/a	n/a	n/a	n/a	n/a	n/a	n/a	n/a
315.6525	0.5167	FIXCROSS	n/a	n/a	n/a	n/a	n/a	n/a	n/a	n/a
316.1692	0.6667	COLOR_NAME	26	Neutral	żółty	yellow	Neutral	Neutral	hit	n/a
316.8117	n/a	RESPONSE	n/a	n/a	n/a	n/a	n/a	n/a	n/a	yellow
316.8359	1.0167	ITI	n/a	n/a	n/a	n/a	n/a	n/a	n/a	n/a
317.8525	0.5167	FIXCROSS	n/a	n/a	n/a	n/a	n/a	n/a	n/a	n/a
318.3692	0.55	COLOR_NAME	27	Neutral	żółty	yellow	Neutral	Neutral	hit	n/a
318.8891	n/a	RESPONSE	n/a	n/a	n/a	n/a	n/a	n/a	n/a	yellow
318.9192	1.0167	ITI	n/a	n/a	n/a	n/a	n/a	n/a	n/a	n/a
319.9359	0.5167	FIXCROSS	n/a	n/a	n/a	n/a	n/a	n/a	n/a	n/a
320.4526	0.65	COLOR_NAME	28	Incongruent	żółty	yellow	niebieski	blue	hit	n/a
321.0782	n/a	RESPONSE	n/a	n/a	n/a	n/a	n/a	n/a	n/a	yellow
321.1026	1.0167	ITI	n/a	n/a	n/a	n/a	n/a	n/a	n/a	n/a
322.1192	0.5167	FIXCROSS	n/a	n/a	n/a	n/a	n/a	n/a	n/a	n/a
322.6359	0.65	COLOR_NAME	29	Neutral	niebieski	blue	Neutral	Neutral	hit	n/a
323.2512	n/a	RESPONSE	n/a	n/a	n/a	n/a	n/a	n/a	n/a	blue
323.2859	1.0167	ITI	n/a	n/a	n/a	n/a	n/a	n/a	n/a	n/a
324.3026	0.5167	FIXCROSS	n/a	n/a	n/a	n/a	n/a	n/a	n/a	n/a
324.8193	0.6833	COLOR_NAME	30	Neutral	zielony	green	Neutral	Neutral	hit	n/a
325.4722	n/a	RESPONSE	n/a	n/a	n/a	n/a	n/a	n/a	n/a	green
325.5026	1.0167	ITI	n/a	n/a	n/a	n/a	n/a	n/a	n/a	n/a
326.5193	0.5167	FIXCROSS	n/a	n/a	n/a	n/a	n/a	n/a	n/a	n/a
327.036	0.7	COLOR_NAME	31	Neutral	zielony	green	Neutral	Neutral	hit	n/a
327.7093	n/a	RESPONSE	n/a	n/a	n/a	n/a	n/a	n/a	n/a	green
327.7359	1.0167	ITI	n/a	n/a	n/a	n/a	n/a	n/a	n/a	n/a
328.7526	0.5167	FIXCROSS	n/a	n/a	n/a	n/a	n/a	n/a	n/a	n/a
329.2693	0.5833	COLOR_NAME	32	Neutral	czerwony	red	Neutral	Neutral	hit	n/a
329.8345	n/a	RESPONSE	n/a	n/a	n/a	n/a	n/a	n/a	n/a	red
329.8526	1.0167	ITI	n/a	n/a	n/a	n/a	n/a	n/a	n/a	n/a
330.8693	0.5167	FIXCROSS	n/a	n/a	n/a	n/a	n/a	n/a	n/a	n/a
331.386	0.6667	COLOR_NAME	33	Neutral	żółty	yellow	Neutral	Neutral	hit	n/a
332.0237	n/a	RESPONSE	n/a	n/a	n/a	n/a	n/a	n/a	n/a	yellow
332.0527	1.0167	ITI	n/a	n/a	n/a	n/a	n/a	n/a	n/a	n/a
333.0693	0.5167	FIXCROSS	n/a	n/a	n/a	n/a	n/a	n/a	n/a	n/a
333.586	0.7167	COLOR_NAME	34	Incongruent	żółty	yellow	niebieski	blue	hit	n/a
334.2766	n/a	RESPONSE	n/a	n/a	n/a	n/a	n/a	n/a	n/a	yellow
334.3027	1.0166	ITI	n/a	n/a	n/a	n/a	n/a	n/a	n/a	n/a
335.3192	0.5168	FIXCROSS	n/a	n/a	n/a	n/a	n/a	n/a	n/a	n/a
335.836	0.5833	COLOR_NAME	35	Neutral	czerwony	red	Neutral	Neutral	hit	n/a
336.4018	n/a	RESPONSE	n/a	n/a	n/a	n/a	n/a	n/a	n/a	red
336.4193	1.0167	ITI	n/a	n/a	n/a	n/a	n/a	n/a	n/a	n/a
337.436	0.5167	FIXCROSS	n/a	n/a	n/a	n/a	n/a	n/a	n/a	n/a
337.9527	0.6667	COLOR_NAME	36	Neutral	zielony	green	Neutral	Neutral	hit	n/a
338.5909	n/a	RESPONSE	n/a	n/a	n/a	n/a	n/a	n/a	n/a	green
338.6194	1.0167	ITI	n/a	n/a	n/a	n/a	n/a	n/a	n/a	n/a
339.636	0.5167	FIXCROSS	n/a	n/a	n/a	n/a	n/a	n/a	n/a	n/a
340.1527	0.7833	COLOR_NAME	37	Neutral	zielony	green	Neutral	Neutral	hit	n/a
340.9079	n/a	RESPONSE	n/a	n/a	n/a	n/a	n/a	n/a	n/a	green
340.936	1.0167	ITI	n/a	n/a	n/a	n/a	n/a	n/a	n/a	n/a
341.9527	0.5167	FIXCROSS	n/a	n/a	n/a	n/a	n/a	n/a	n/a	n/a
342.4694	0.7333	COLOR_NAME	38	Incongruent	czerwony	red	żółty	yellow	hit	n/a
343.1769	n/a	RESPONSE	n/a	n/a	n/a	n/a	n/a	n/a	n/a	red
343.2027	1.0167	ITI	n/a	n/a	n/a	n/a	n/a	n/a	n/a	n/a
344.2194	0.5167	FIXCROSS	n/a	n/a	n/a	n/a	n/a	n/a	n/a	n/a
344.7361	0.95	COLOR_NAME	39	Neutral	żółty	yellow	Neutral	Neutral	hit	n/a
345.6536	n/a	RESPONSE	n/a	n/a	n/a	n/a	n/a	n/a	n/a	yellow
345.6861	1.0167	ITI	n/a	n/a	n/a	n/a	n/a	n/a	n/a	n/a
346.7027	0.5167	FIXCROSS	n/a	n/a	n/a	n/a	n/a	n/a	n/a	n/a
347.2194	0.75	COLOR_NAME	40	Incongruent	niebieski	blue	czerwony	red	hit	n/a
347.9386	n/a	RESPONSE	n/a	n/a	n/a	n/a	n/a	n/a	n/a	blue
347.9694	1.0167	ITI	n/a	n/a	n/a	n/a	n/a	n/a	n/a	n/a
348.9861	0.5167	FIXCROSS	n/a	n/a	n/a	n/a	n/a	n/a	n/a	n/a
349.5028	0.75	COLOR_NAME	41	Neutral	zielony	green	Neutral	Neutral	hit	n/a
350.2235	n/a	RESPONSE	n/a	n/a	n/a	n/a	n/a	n/a	n/a	green
350.2528	1.0167	ITI	n/a	n/a	n/a	n/a	n/a	n/a	n/a	n/a
351.2694	0.5167	FIXCROSS	n/a	n/a	n/a	n/a	n/a	n/a	n/a	n/a
351.7861	0.9	COLOR_NAME	42	Incongruent	zielony	green	czerwony	red	hit	n/a
352.6523	n/a	RESPONSE	n/a	n/a	n/a	n/a	n/a	n/a	n/a	green
352.6861	1.0167	ITI	n/a	n/a	n/a	n/a	n/a	n/a	n/a	n/a
353.7028	0.5167	FIXCROSS	n/a	n/a	n/a	n/a	n/a	n/a	n/a	n/a
354.2195	0.5833	COLOR_NAME	43	Neutral	czerwony	red	Neutral	Neutral	hit	n/a
354.7775	n/a	RESPONSE	n/a	n/a	n/a	n/a	n/a	n/a	n/a	red
354.8028	1.0167	ITI	n/a	n/a	n/a	n/a	n/a	n/a	n/a	n/a
355.8195	0.5167	FIXCROSS	n/a	n/a	n/a	n/a	n/a	n/a	n/a	n/a
356.3361	0.6	COLOR_NAME	44	Neutral	czerwony	red	Neutral	Neutral	hit	n/a
356.9187	n/a	RESPONSE	n/a	n/a	n/a	n/a	n/a	n/a	n/a	red
356.9362	1.0167	ITI	n/a	n/a	n/a	n/a	n/a	n/a	n/a	n/a
357.9528	0.5167	FIXCROSS	n/a	n/a	n/a	n/a	n/a	n/a	n/a	n/a
358.4695	0.7667	COLOR_NAME	45	Neutral	niebieski	blue	Neutral	Neutral	hit	n/a
359.2037	n/a	RESPONSE	n/a	n/a	n/a	n/a	n/a	n/a	n/a	blue
359.2362	1.0167	ITI	n/a	n/a	n/a	n/a	n/a	n/a	n/a	n/a
360.2528	0.5167	FIXCROSS	n/a	n/a	n/a	n/a	n/a	n/a	n/a	n/a
360.7695	0.9334	COLOR_NAME	46	Incongruent	zielony	green	żółty	yellow	hit	n/a
361.6804	n/a	RESPONSE	n/a	n/a	n/a	n/a	n/a	n/a	n/a	green
361.7029	1.0167	ITI	n/a	n/a	n/a	n/a	n/a	n/a	n/a	n/a
362.7195	0.5167	FIXCROSS	n/a	n/a	n/a	n/a	n/a	n/a	n/a	n/a
363.2362	0.6	COLOR_NAME	47	Neutral	zielony	green	Neutral	Neutral	hit	n/a
363.8056	n/a	RESPONSE	n/a	n/a	n/a	n/a	n/a	n/a	n/a	green
363.8362	1.0167	ITI	n/a	n/a	n/a	n/a	n/a	n/a	n/a	n/a
364.8529	0.5167	FIXCROSS	n/a	n/a	n/a	n/a	n/a	n/a	n/a	n/a
365.3695	0.7	COLOR_NAME	48	Neutral	żółty	yellow	Neutral	Neutral	hit	n/a
366.0426	n/a	RESPONSE	n/a	n/a	n/a	n/a	n/a	n/a	n/a	yellow
366.0695	1.0167	ITI	n/a	n/a	n/a	n/a	n/a	n/a	n/a	n/a
367.0862	0.5167	FIXCROSS	n/a	n/a	n/a	n/a	n/a	n/a	n/a	n/a
367.6029	0.8167	COLOR_NAME	49	Incongruent	czerwony	red	niebieski	blue	hit	n/a
368.3916	n/a	RESPONSE	n/a	n/a	n/a	n/a	n/a	n/a	n/a	red
368.4196	1.0167	ITI	n/a	n/a	n/a	n/a	n/a	n/a	n/a	n/a
369.4362	0.5167	FIXCROSS	n/a	n/a	n/a	n/a	n/a	n/a	n/a	n/a
369.9529	0.7167	COLOR_NAME	50	Neutral	niebieski	blue	Neutral	Neutral	hit	n/a
370.6446	n/a	RESPONSE	n/a	n/a	n/a	n/a	n/a	n/a	n/a	blue
370.6696	1.0167	ITI	n/a	n/a	n/a	n/a	n/a	n/a	n/a	n/a
371.6863	0.5167	FIXCROSS	n/a	n/a	n/a	n/a	n/a	n/a	n/a	n/a
372.2029	1.0667	COLOR_NAME	51	Incongruent	niebieski	blue	żółty	yellow	hit	n/a
373.2492	n/a	RESPONSE	n/a	n/a	n/a	n/a	n/a	n/a	n/a	blue
373.2696	1.0167	ITI	n/a	n/a	n/a	n/a	n/a	n/a	n/a	n/a
374.2863	0.5167	FIXCROSS	n/a	n/a	n/a	n/a	n/a	n/a	n/a	n/a
374.8029	1.3167	COLOR_NAME	52	Neutral	zielony	green	Neutral	Neutral	hit	n/a
376.0934	n/a	RESPONSE	n/a	n/a	n/a	n/a	n/a	n/a	n/a	green
376.1196	1.0167	ITI	n/a	n/a	n/a	n/a	n/a	n/a	n/a	n/a
377.1363	0.5167	FIXCROSS	n/a	n/a	n/a	n/a	n/a	n/a	n/a	n/a
377.653	0.7667	COLOR_NAME	53	Neutral	zielony	green	Neutral	Neutral	hit	n/a
378.3943	n/a	RESPONSE	n/a	n/a	n/a	n/a	n/a	n/a	n/a	green
378.4196	1.0167	ITI	n/a	n/a	n/a	n/a	n/a	n/a	n/a	n/a
379.4363	0.5167	FIXCROSS	n/a	n/a	n/a	n/a	n/a	n/a	n/a	n/a
379.953	0.7667	COLOR_NAME	54	Neutral	żółty	yellow	Neutral	Neutral	hit	n/a
380.6953	n/a	RESPONSE	n/a	n/a	n/a	n/a	n/a	n/a	n/a	yellow
380.7196	1.0167	ITI	n/a	n/a	n/a	n/a	n/a	n/a	n/a	n/a
381.7363	0.5167	FIXCROSS	n/a	n/a	n/a	n/a	n/a	n/a	n/a	n/a
382.253	0.7667	COLOR_NAME	55	Incongruent	czerwony	red	niebieski	blue	hit	n/a
382.9963	n/a	RESPONSE	n/a	n/a	n/a	n/a	n/a	n/a	n/a	red
383.0197	1.0167	ITI	n/a	n/a	n/a	n/a	n/a	n/a	n/a	n/a
384.0363	0.5167	FIXCROSS	n/a	n/a	n/a	n/a	n/a	n/a	n/a	n/a
384.553	1.1	COLOR_NAME	56	Incongruent	żółty	yellow	czerwony	red	hit	n/a
385.6329	n/a	RESPONSE	n/a	n/a	n/a	n/a	n/a	n/a	n/a	yellow
385.653	1.0167	ITI	n/a	n/a	n/a	n/a	n/a	n/a	n/a	n/a
386.6697	0.5167	FIXCROSS	n/a	n/a	n/a	n/a	n/a	n/a	n/a	n/a
387.1864	0.5833	COLOR_NAME	57	Neutral	zielony	green	Neutral	Neutral	hit	n/a
387.7421	n/a	RESPONSE	n/a	n/a	n/a	n/a	n/a	n/a	n/a	green
387.7697	1.0167	ITI	n/a	n/a	n/a	n/a	n/a	n/a	n/a	n/a
388.7864	0.5167	FIXCROSS	n/a	n/a	n/a	n/a	n/a	n/a	n/a	n/a
389.303	0.65	COLOR_NAME	58	Incongruent	zielony	green	żółty	yellow	hit	n/a
389.9312	n/a	RESPONSE	n/a	n/a	n/a	n/a	n/a	n/a	n/a	green
389.953	1.0167	ITI	n/a	n/a	n/a	n/a	n/a	n/a	n/a	n/a
390.9697	0.5167	FIXCROSS	n/a	n/a	n/a	n/a	n/a	n/a	n/a	n/a
391.4864	0.6833	COLOR_NAME	59	Incongruent	niebieski	blue	zielony	green	hit	n/a
392.1523	n/a	RESPONSE	n/a	n/a	n/a	n/a	n/a	n/a	n/a	blue
392.1697	1.0167	ITI	n/a	n/a	n/a	n/a	n/a	n/a	n/a	n/a
393.1864	0.5167	FIXCROSS	n/a	n/a	n/a	n/a	n/a	n/a	n/a	n/a
393.7031	0.65	COLOR_NAME	60	Neutral	czerwony	red	Neutral	Neutral	hit	n/a
394.3254	n/a	RESPONSE	n/a	n/a	n/a	n/a	n/a	n/a	n/a	red
394.3531	1.0167	ITI	n/a	n/a	n/a	n/a	n/a	n/a	n/a	n/a
395.3698	0.5167	FIXCROSS	n/a	n/a	n/a	n/a	n/a	n/a	n/a	n/a
395.8864	0.6333	COLOR_NAME	61	Neutral	żółty	yellow	Neutral	Neutral	hit	n/a
396.4986	n/a	RESPONSE	n/a	n/a	n/a	n/a	n/a	n/a	n/a	yellow
396.5198	1.0167	ITI	n/a	n/a	n/a	n/a	n/a	n/a	n/a	n/a
397.5364	0.5167	FIXCROSS	n/a	n/a	n/a	n/a	n/a	n/a	n/a	n/a
398.0531	0.6667	COLOR_NAME	62	Incongruent	niebieski	blue	żółty	yellow	hit	n/a
398.6876	n/a	RESPONSE	n/a	n/a	n/a	n/a	n/a	n/a	n/a	blue
398.7198	1.0167	ITI	n/a	n/a	n/a	n/a	n/a	n/a	n/a	n/a
399.7364	0.5167	FIXCROSS	n/a	n/a	n/a	n/a	n/a	n/a	n/a	n/a
400.2531	0.7	COLOR_NAME	63	Neutral	żółty	yellow	Neutral	Neutral	hit	n/a
400.9247	n/a	RESPONSE	n/a	n/a	n/a	n/a	n/a	n/a	n/a	yellow
400.9531	1.0166	ITI	n/a	n/a	n/a	n/a	n/a	n/a	n/a	n/a
401.9698	0.5167	FIXCROSS	n/a	n/a	n/a	n/a	n/a	n/a	n/a	n/a
402.4865	0.4333	COLOR_NAME	64	Incongruent	czerwony	red	żółty	yellow	hit	n/a
402.8901	n/a	RESPONSE	n/a	n/a	n/a	n/a	n/a	n/a	n/a	red
402.9198	1.0167	ITI	n/a	n/a	n/a	n/a	n/a	n/a	n/a	n/a
403.9365	0.5167	FIXCROSS	n/a	n/a	n/a	n/a	n/a	n/a	n/a	n/a
404.4531	0.8833	COLOR_NAME	65	Incongruent	czerwony	red	niebieski	blue	hit	n/a
405.3029	n/a	RESPONSE	n/a	n/a	n/a	n/a	n/a	n/a	n/a	red
405.3365	1.0167	ITI	n/a	n/a	n/a	n/a	n/a	n/a	n/a	n/a
406.3532	0.5167	FIXCROSS	n/a	n/a	n/a	n/a	n/a	n/a	n/a	n/a
406.8698	0.6833	COLOR_NAME	66	Neutral	niebieski	blue	Neutral	Neutral	hit	n/a
407.524	n/a	RESPONSE	n/a	n/a	n/a	n/a	n/a	n/a	n/a	blue
407.5532	1.0167	ITI	n/a	n/a	n/a	n/a	n/a	n/a	n/a	n/a
408.5698	0.5167	FIXCROSS	n/a	n/a	n/a	n/a	n/a	n/a	n/a	n/a
409.0865	0.6	COLOR_NAME	67	Neutral	niebieski	blue	Neutral	Neutral	hit	n/a
409.6651	n/a	RESPONSE	n/a	n/a	n/a	n/a	n/a	n/a	n/a	blue
409.6865	1.0167	ITI	n/a	n/a	n/a	n/a	n/a	n/a	n/a	n/a
410.7032	0.5167	FIXCROSS	n/a	n/a	n/a	n/a	n/a	n/a	n/a	n/a
411.2199	1.5	COLOR_NAME	68	Incongruent	żółty	yellow	czerwony	red	hit	n/a
412.7012	n/a	RESPONSE	n/a	n/a	n/a	n/a	n/a	n/a	n/a	yellow
412.7199	1.0167	ITI	n/a	n/a	n/a	n/a	n/a	n/a	n/a	n/a
413.7365	0.5167	FIXCROSS	n/a	n/a	n/a	n/a	n/a	n/a	n/a	n/a
414.2532	0.7667	COLOR_NAME	69	Incongruent	czerwony	red	zielony	green	hit	n/a
414.9861	n/a	RESPONSE	n/a	n/a	n/a	n/a	n/a	n/a	n/a	red
415.0199	1.0167	ITI	n/a	n/a	n/a	n/a	n/a	n/a	n/a	n/a
416.0366	0.5167	FIXCROSS	n/a	n/a	n/a	n/a	n/a	n/a	n/a	n/a
416.5532	0.7833	COLOR_NAME	70	Incongruent	zielony	green	żółty	yellow	hit	n/a
417.303	n/a	RESPONSE	n/a	n/a	n/a	n/a	n/a	n/a	n/a	green
417.3366	1.0167	ITI	n/a	n/a	n/a	n/a	n/a	n/a	n/a	n/a
418.3532	0.5167	FIXCROSS	n/a	n/a	n/a	n/a	n/a	n/a	n/a	n/a
418.8699	0.7167	COLOR_NAME	71	Neutral	niebieski	blue	Neutral	Neutral	hit	n/a
419.5561	n/a	RESPONSE	n/a	n/a	n/a	n/a	n/a	n/a	n/a	blue
419.5866	1.0167	ITI	n/a	n/a	n/a	n/a	n/a	n/a	n/a	n/a
420.6033	0.5167	FIXCROSS	n/a	n/a	n/a	n/a	n/a	n/a	n/a	n/a
421.1199	0.55	COLOR_NAME	72	Neutral	niebieski	blue	Neutral	Neutral	hit	n/a
421.6493	n/a	RESPONSE	n/a	n/a	n/a	n/a	n/a	n/a	n/a	blue
421.6699	1.0333	ITI	n/a	n/a	n/a	n/a	n/a	n/a	n/a	n/a
425.8517	n/a	RESPONSE	n/a	n/a	n/a	n/a	n/a	n/a	n/a	n/a
