onset	duration	trial_type	trial_number	stroop_condition	stim_text(PL)	stim_text(eng)	stim_color(PL)	stim_color(eng)	response_type	response_color
0.0	n/a	RESPONSE	n/a	n/a	n/a	n/a	n/a	n/a	n/a	yellow
0.0001	n/a	RESPONSE	n/a	n/a	n/a	n/a	n/a	n/a	n/a	red
0.0001	n/a	RESPONSE	n/a	n/a	n/a	n/a	n/a	n/a	n/a	red
0.0001	n/a	RESPONSE	n/a	n/a	n/a	n/a	n/a	n/a	n/a	yellow
0.0001	n/a	RESPONSE	n/a	n/a	n/a	n/a	n/a	n/a	n/a	red
46.6921	n/a	RESPONSE	n/a	n/a	n/a	n/a	n/a	n/a	n/a	n/a
46.75	1.0333	ITI	n/a	n/a	n/a	n/a	n/a	n/a	n/a	n/a
47.7834	0.5167	FIXCROSS	n/a	n/a	n/a	n/a	n/a	n/a	n/a	n/a
48.3	2.1834	T_INK	1	Incongruent	czerwony	red	żółty	yellow	hit	n/a
50.4472	n/a	RESPONSE	n/a	n/a	n/a	n/a	n/a	n/a	n/a	yellow
50.4834	0.5167	FEEDBACK	n/a	n/a	n/a	n/a	n/a	n/a	n/a	n/a
51.0001	1.0167	ITI	n/a	n/a	n/a	n/a	n/a	n/a	n/a	n/a
52.0167	0.5167	FIXCROSS	n/a	n/a	n/a	n/a	n/a	n/a	n/a	n/a
52.5334	0.8667	T_INK	2	Neutral	xxxxx	xxxxx	czerwony	red	hit	n/a
53.3713	n/a	RESPONSE	n/a	n/a	n/a	n/a	n/a	n/a	n/a	red
53.4001	0.5167	FEEDBACK	n/a	n/a	n/a	n/a	n/a	n/a	n/a	n/a
53.9168	1.0167	ITI	n/a	n/a	n/a	n/a	n/a	n/a	n/a	n/a
54.9334	0.5167	FIXCROSS	n/a	n/a	n/a	n/a	n/a	n/a	n/a	n/a
55.4501	0.45	T_INK	3	Neutral	xxxxxxx	xxxxxxx	niebieski	blue	hit	n/a
55.8799	n/a	RESPONSE	n/a	n/a	n/a	n/a	n/a	n/a	n/a	blue
55.9001	0.5167	FEEDBACK	n/a	n/a	n/a	n/a	n/a	n/a	n/a	n/a
56.4168	1.0167	ITI	n/a	n/a	n/a	n/a	n/a	n/a	n/a	n/a
57.4334	0.5167	FIXCROSS	n/a	n/a	n/a	n/a	n/a	n/a	n/a	n/a
57.9501	0.4333	T_INK	4	Neutral	xxxxxxxxx	xxxxxxxxx	zielony	green	hit	n/a
58.3566	n/a	RESPONSE	n/a	n/a	n/a	n/a	n/a	n/a	n/a	green
58.3835	0.5167	FEEDBACK	n/a	n/a	n/a	n/a	n/a	n/a	n/a	n/a
58.9001	1.0167	ITI	n/a	n/a	n/a	n/a	n/a	n/a	n/a	n/a
59.9168	0.5167	FIXCROSS	n/a	n/a	n/a	n/a	n/a	n/a	n/a	n/a
60.4335	0.7333	T_INK	5	Incongruent	zielony	green	czerwony	red	incorrect	n/a
61.1369	n/a	RESPONSE	n/a	n/a	n/a	n/a	n/a	n/a	n/a	blue
61.1668	0.5167	FEEDBACK	n/a	n/a	n/a	n/a	n/a	n/a	n/a	n/a
61.6835	1.0167	ITI	n/a	n/a	n/a	n/a	n/a	n/a	n/a	n/a
62.7002	0.5167	FIXCROSS	n/a	n/a	n/a	n/a	n/a	n/a	n/a	n/a
63.2168	0.9167	T_INK	6	Incongruent	niebieski	blue	żółty	yellow	hit	n/a
64.109	n/a	RESPONSE	n/a	n/a	n/a	n/a	n/a	n/a	n/a	yellow
64.1335	0.5167	FEEDBACK	n/a	n/a	n/a	n/a	n/a	n/a	n/a	n/a
64.6502	1.0167	ITI	n/a	n/a	n/a	n/a	n/a	n/a	n/a	n/a
65.6669	0.5167	FIXCROSS	n/a	n/a	n/a	n/a	n/a	n/a	n/a	n/a
66.1835	0.7	T_INK	7	Neutral	xxxxxxxx	xxxxxxxx	zielony	green	hit	n/a
66.8574	n/a	RESPONSE	n/a	n/a	n/a	n/a	n/a	n/a	n/a	green
66.8835	0.5167	FEEDBACK	n/a	n/a	n/a	n/a	n/a	n/a	n/a	n/a
67.4002	1.0167	ITI	n/a	n/a	n/a	n/a	n/a	n/a	n/a	n/a
68.4169	0.5167	FIXCROSS	n/a	n/a	n/a	n/a	n/a	n/a	n/a	n/a
68.9335	0.6333	T_INK	8	Neutral	xxxxx	xxxxx	zielony	green	hit	n/a
69.5417	n/a	RESPONSE	n/a	n/a	n/a	n/a	n/a	n/a	n/a	green
69.5669	0.5167	FEEDBACK	n/a	n/a	n/a	n/a	n/a	n/a	n/a	n/a
70.0835	1.0167	ITI	n/a	n/a	n/a	n/a	n/a	n/a	n/a	n/a
71.1002	0.5167	FIXCROSS	n/a	n/a	n/a	n/a	n/a	n/a	n/a	n/a
71.6169	0.7	T_INK	9	Incongruent	zielony	green	żółty	yellow	hit	n/a
72.2901	n/a	RESPONSE	n/a	n/a	n/a	n/a	n/a	n/a	n/a	yellow
72.3169	0.5167	FEEDBACK	n/a	n/a	n/a	n/a	n/a	n/a	n/a	n/a
72.8336	1.0167	ITI	n/a	n/a	n/a	n/a	n/a	n/a	n/a	n/a
73.8502	0.5167	FIXCROSS	n/a	n/a	n/a	n/a	n/a	n/a	n/a	n/a
74.3669	0.5833	T_INK	10	Incongruent	czerwony	red	niebieski	blue	hit	n/a
74.9266	n/a	RESPONSE	n/a	n/a	n/a	n/a	n/a	n/a	n/a	blue
74.9502	0.5167	FEEDBACK	n/a	n/a	n/a	n/a	n/a	n/a	n/a	n/a
75.4669	1.0167	ITI	n/a	n/a	n/a	n/a	n/a	n/a	n/a	n/a
76.4836	0.5167	FIXCROSS	n/a	n/a	n/a	n/a	n/a	n/a	n/a	n/a
77.0003	0.65	T_INK	11	Neutral	xxxxxxx	xxxxxxx	żółty	yellow	hit	n/a
77.627	n/a	RESPONSE	n/a	n/a	n/a	n/a	n/a	n/a	n/a	yellow
77.6503	0.5167	FEEDBACK	n/a	n/a	n/a	n/a	n/a	n/a	n/a	n/a
78.1669	1.0167	ITI	n/a	n/a	n/a	n/a	n/a	n/a	n/a	n/a
79.1836	0.5167	FIXCROSS	n/a	n/a	n/a	n/a	n/a	n/a	n/a	n/a
79.7003	0.6167	T_INK	12	Incongruent	niebieski	blue	zielony	green	hit	n/a
80.2955	n/a	RESPONSE	n/a	n/a	n/a	n/a	n/a	n/a	n/a	green
80.317	0.5167	FEEDBACK	n/a	n/a	n/a	n/a	n/a	n/a	n/a	n/a
80.8336	1.0333	ITI	n/a	n/a	n/a	n/a	n/a	n/a	n/a	n/a
97.5685	n/a	RESPONSE	n/a	n/a	n/a	n/a	n/a	n/a	n/a	n/a
97.6338	1.0167	ITI	n/a	n/a	n/a	n/a	n/a	n/a	n/a	n/a
98.6504	0.5167	FIXCROSS	n/a	n/a	n/a	n/a	n/a	n/a	n/a	n/a
99.1671	0.4333	INK	1	Neutral	xxxxxxxxx	xxxxxxxxx	żółty	yellow	hit	n/a
99.5818	n/a	RESPONSE	n/a	n/a	n/a	n/a	n/a	n/a	n/a	yellow
99.6004	1.0167	ITI	n/a	n/a	n/a	n/a	n/a	n/a	n/a	n/a
100.6171	0.5167	FIXCROSS	n/a	n/a	n/a	n/a	n/a	n/a	n/a	n/a
101.1338	0.4667	INK	2	Incongruent	żółty	yellow	niebieski	blue	hit	n/a
101.5792	n/a	RESPONSE	n/a	n/a	n/a	n/a	n/a	n/a	n/a	blue
101.6004	1.0167	ITI	n/a	n/a	n/a	n/a	n/a	n/a	n/a	n/a
102.6171	0.5167	FIXCROSS	n/a	n/a	n/a	n/a	n/a	n/a	n/a	n/a
103.1338	0.5833	INK	3	Incongruent	czerwony	red	żółty	yellow	hit	n/a
103.6883	n/a	RESPONSE	n/a	n/a	n/a	n/a	n/a	n/a	n/a	yellow
103.7171	1.0167	ITI	n/a	n/a	n/a	n/a	n/a	n/a	n/a	n/a
104.7338	0.5167	FIXCROSS	n/a	n/a	n/a	n/a	n/a	n/a	n/a	n/a
105.2505	0.4	INK	4	Incongruent	zielony	green	żółty	yellow	hit	n/a
105.6218	n/a	RESPONSE	n/a	n/a	n/a	n/a	n/a	n/a	n/a	yellow
105.6505	1.0167	ITI	n/a	n/a	n/a	n/a	n/a	n/a	n/a	n/a
106.6671	0.5167	FIXCROSS	n/a	n/a	n/a	n/a	n/a	n/a	n/a	n/a
107.1838	0.4167	INK	5	Neutral	xxxxx	xxxxx	czerwony	red	hit	n/a
107.5713	n/a	RESPONSE	n/a	n/a	n/a	n/a	n/a	n/a	n/a	red
107.6005	1.0167	ITI	n/a	n/a	n/a	n/a	n/a	n/a	n/a	n/a
108.6172	0.5167	FIXCROSS	n/a	n/a	n/a	n/a	n/a	n/a	n/a	n/a
109.1338	0.7167	INK	6	Incongruent	zielony	green	czerwony	red	hit	n/a
109.8242	n/a	RESPONSE	n/a	n/a	n/a	n/a	n/a	n/a	n/a	red
109.8505	1.0167	ITI	n/a	n/a	n/a	n/a	n/a	n/a	n/a	n/a
110.8672	0.5167	FIXCROSS	n/a	n/a	n/a	n/a	n/a	n/a	n/a	n/a
111.3839	0.5333	INK	7	Neutral	xxxxx	xxxxx	niebieski	blue	hit	n/a
111.8855	n/a	RESPONSE	n/a	n/a	n/a	n/a	n/a	n/a	n/a	blue
111.9172	1.0167	ITI	n/a	n/a	n/a	n/a	n/a	n/a	n/a	n/a
112.9339	0.5167	FIXCROSS	n/a	n/a	n/a	n/a	n/a	n/a	n/a	n/a
113.4505	0.3667	INK	8	Incongruent	niebieski	blue	żółty	yellow	hit	n/a
113.7869	n/a	RESPONSE	n/a	n/a	n/a	n/a	n/a	n/a	n/a	yellow
113.8172	1.0167	ITI	n/a	n/a	n/a	n/a	n/a	n/a	n/a	n/a
114.8339	0.5167	FIXCROSS	n/a	n/a	n/a	n/a	n/a	n/a	n/a	n/a
115.3506	0.4667	INK	9	Incongruent	czerwony	red	niebieski	blue	hit	n/a
115.7842	n/a	RESPONSE	n/a	n/a	n/a	n/a	n/a	n/a	n/a	blue
115.8172	1.0167	ITI	n/a	n/a	n/a	n/a	n/a	n/a	n/a	n/a
116.8339	0.5167	FIXCROSS	n/a	n/a	n/a	n/a	n/a	n/a	n/a	n/a
117.3506	0.35	INK	10	Neutral	xxxxx	xxxxx	zielony	green	hit	n/a
117.6698	n/a	RESPONSE	n/a	n/a	n/a	n/a	n/a	n/a	n/a	green
117.7006	1.0167	ITI	n/a	n/a	n/a	n/a	n/a	n/a	n/a	n/a
118.7172	0.5167	FIXCROSS	n/a	n/a	n/a	n/a	n/a	n/a	n/a	n/a
119.2339	0.5	INK	11	Neutral	xxxxxxxx	xxxxxxxx	żółty	yellow	hit	n/a
119.7151	n/a	RESPONSE	n/a	n/a	n/a	n/a	n/a	n/a	n/a	yellow
119.7339	1.0167	ITI	n/a	n/a	n/a	n/a	n/a	n/a	n/a	n/a
120.7506	0.5167	FIXCROSS	n/a	n/a	n/a	n/a	n/a	n/a	n/a	n/a
121.2673	0.6333	INK	12	Neutral	xxxxx	xxxxx	czerwony	red	hit	n/a
121.8722	n/a	RESPONSE	n/a	n/a	n/a	n/a	n/a	n/a	n/a	red
121.9006	1.0167	ITI	n/a	n/a	n/a	n/a	n/a	n/a	n/a	n/a
122.9173	0.5167	FIXCROSS	n/a	n/a	n/a	n/a	n/a	n/a	n/a	n/a
123.4339	0.4833	INK	13	Neutral	xxxxxxxxx	xxxxxxxxx	czerwony	red	hit	n/a
123.8856	n/a	RESPONSE	n/a	n/a	n/a	n/a	n/a	n/a	n/a	red
123.9173	1.0167	ITI	n/a	n/a	n/a	n/a	n/a	n/a	n/a	n/a
124.934	0.5167	FIXCROSS	n/a	n/a	n/a	n/a	n/a	n/a	n/a	n/a
125.4506	0.4667	INK	14	Incongruent	czerwony	red	niebieski	blue	hit	n/a
125.8989	n/a	RESPONSE	n/a	n/a	n/a	n/a	n/a	n/a	n/a	blue
125.9173	1.0167	ITI	n/a	n/a	n/a	n/a	n/a	n/a	n/a	n/a
126.934	0.5167	FIXCROSS	n/a	n/a	n/a	n/a	n/a	n/a	n/a	n/a
127.4506	0.8667	INK	15	Incongruent	czerwony	red	zielony	green	hit	n/a
128.2958	n/a	RESPONSE	n/a	n/a	n/a	n/a	n/a	n/a	n/a	green
128.3173	1.0167	ITI	n/a	n/a	n/a	n/a	n/a	n/a	n/a	n/a
129.334	0.5167	FIXCROSS	n/a	n/a	n/a	n/a	n/a	n/a	n/a	n/a
129.8507	0.5	INK	16	Neutral	xxxxxxxxx	xxxxxxxxx	żółty	yellow	hit	n/a
130.325	n/a	RESPONSE	n/a	n/a	n/a	n/a	n/a	n/a	n/a	yellow
130.3507	1.0167	ITI	n/a	n/a	n/a	n/a	n/a	n/a	n/a	n/a
131.3673	0.5167	FIXCROSS	n/a	n/a	n/a	n/a	n/a	n/a	n/a	n/a
131.884	0.5	INK	17	Neutral	xxxxxxx	xxxxxxx	niebieski	blue	hit	n/a
132.3543	n/a	RESPONSE	n/a	n/a	n/a	n/a	n/a	n/a	n/a	blue
132.384	1.0167	ITI	n/a	n/a	n/a	n/a	n/a	n/a	n/a	n/a
133.4007	0.5167	FIXCROSS	n/a	n/a	n/a	n/a	n/a	n/a	n/a	n/a
133.9174	0.4167	INK	18	Neutral	xxxxxxx	xxxxxxx	żółty	yellow	hit	n/a
134.3037	n/a	RESPONSE	n/a	n/a	n/a	n/a	n/a	n/a	n/a	yellow
134.334	1.0167	ITI	n/a	n/a	n/a	n/a	n/a	n/a	n/a	n/a
135.3507	0.5167	FIXCROSS	n/a	n/a	n/a	n/a	n/a	n/a	n/a	n/a
135.8674	0.4167	INK	19	Neutral	xxxxxxxxx	xxxxxxxxx	zielony	green	hit	n/a
136.2531	n/a	RESPONSE	n/a	n/a	n/a	n/a	n/a	n/a	n/a	green
136.284	1.0167	ITI	n/a	n/a	n/a	n/a	n/a	n/a	n/a	n/a
137.3007	0.5167	FIXCROSS	n/a	n/a	n/a	n/a	n/a	n/a	n/a	n/a
137.8174	0.4667	INK	20	Incongruent	niebieski	blue	czerwony	red	hit	n/a
138.2665	n/a	RESPONSE	n/a	n/a	n/a	n/a	n/a	n/a	n/a	red
138.2841	1.0167	ITI	n/a	n/a	n/a	n/a	n/a	n/a	n/a	n/a
139.3007	0.5167	FIXCROSS	n/a	n/a	n/a	n/a	n/a	n/a	n/a	n/a
139.8174	0.5	INK	21	Neutral	xxxxx	xxxxx	zielony	green	hit	n/a
140.2959	n/a	RESPONSE	n/a	n/a	n/a	n/a	n/a	n/a	n/a	green
140.3174	1.0167	ITI	n/a	n/a	n/a	n/a	n/a	n/a	n/a	n/a
141.3341	0.5167	FIXCROSS	n/a	n/a	n/a	n/a	n/a	n/a	n/a	n/a
141.8507	0.75	INK	22	Neutral	xxxxxxx	xxxxxxx	czerwony	red	hit	n/a
142.5808	n/a	RESPONSE	n/a	n/a	n/a	n/a	n/a	n/a	n/a	red
142.6007	1.0167	ITI	n/a	n/a	n/a	n/a	n/a	n/a	n/a	n/a
143.6174	0.5167	FIXCROSS	n/a	n/a	n/a	n/a	n/a	n/a	n/a	n/a
144.1341	0.35	INK	23	Neutral	xxxxxxx	xxxxxxx	niebieski	blue	hit	n/a
144.4663	n/a	RESPONSE	n/a	n/a	n/a	n/a	n/a	n/a	n/a	blue
144.4841	1.0167	ITI	n/a	n/a	n/a	n/a	n/a	n/a	n/a	n/a
145.5008	0.5167	FIXCROSS	n/a	n/a	n/a	n/a	n/a	n/a	n/a	n/a
146.0174	0.4833	INK	24	Incongruent	żółty	yellow	zielony	green	incorrect	n/a
146.4795	n/a	RESPONSE	n/a	n/a	n/a	n/a	n/a	n/a	n/a	yellow
146.5008	1.0167	ITI	n/a	n/a	n/a	n/a	n/a	n/a	n/a	n/a
147.5175	0.5167	FIXCROSS	n/a	n/a	n/a	n/a	n/a	n/a	n/a	n/a
148.0341	0.7667	INK	25	Incongruent	niebieski	blue	czerwony	red	hit	n/a
148.7805	n/a	RESPONSE	n/a	n/a	n/a	n/a	n/a	n/a	n/a	red
148.8008	1.0167	ITI	n/a	n/a	n/a	n/a	n/a	n/a	n/a	n/a
149.8175	0.5167	FIXCROSS	n/a	n/a	n/a	n/a	n/a	n/a	n/a	n/a
150.3341	0.4333	INK	26	Neutral	xxxxxxxxx	xxxxxxxxx	zielony	green	hit	n/a
150.7459	n/a	RESPONSE	n/a	n/a	n/a	n/a	n/a	n/a	n/a	green
150.7675	1.0167	ITI	n/a	n/a	n/a	n/a	n/a	n/a	n/a	n/a
151.7842	0.5167	FIXCROSS	n/a	n/a	n/a	n/a	n/a	n/a	n/a	n/a
152.3008	0.5833	INK	27	Incongruent	zielony	green	żółty	yellow	hit	n/a
152.8551	n/a	RESPONSE	n/a	n/a	n/a	n/a	n/a	n/a	n/a	yellow
152.8842	1.0167	ITI	n/a	n/a	n/a	n/a	n/a	n/a	n/a	n/a
153.9008	0.5167	FIXCROSS	n/a	n/a	n/a	n/a	n/a	n/a	n/a	n/a
154.4175	0.6667	INK	28	Neutral	xxxxxxxxx	xxxxxxxxx	czerwony	red	hit	n/a
155.0602	n/a	RESPONSE	n/a	n/a	n/a	n/a	n/a	n/a	n/a	red
155.0842	1.0167	ITI	n/a	n/a	n/a	n/a	n/a	n/a	n/a	n/a
156.1008	0.5167	FIXCROSS	n/a	n/a	n/a	n/a	n/a	n/a	n/a	n/a
156.6175	0.5167	INK	29	Incongruent	czerwony	red	zielony	green	hit	n/a
157.1055	n/a	RESPONSE	n/a	n/a	n/a	n/a	n/a	n/a	n/a	green
157.1342	1.0167	ITI	n/a	n/a	n/a	n/a	n/a	n/a	n/a	n/a
158.1509	0.5167	FIXCROSS	n/a	n/a	n/a	n/a	n/a	n/a	n/a	n/a
158.6675	0.5667	INK	30	Neutral	xxxxx	xxxxx	zielony	green	hit	n/a
159.2146	n/a	RESPONSE	n/a	n/a	n/a	n/a	n/a	n/a	n/a	green
159.2342	1.0167	ITI	n/a	n/a	n/a	n/a	n/a	n/a	n/a	n/a
160.2509	0.5167	FIXCROSS	n/a	n/a	n/a	n/a	n/a	n/a	n/a	n/a
160.7675	0.6833	INK	31	Incongruent	zielony	green	niebieski	blue	incorrect	n/a
161.4197	n/a	RESPONSE	n/a	n/a	n/a	n/a	n/a	n/a	n/a	red
161.4509	1.0167	ITI	n/a	n/a	n/a	n/a	n/a	n/a	n/a	n/a
162.4676	0.5167	FIXCROSS	n/a	n/a	n/a	n/a	n/a	n/a	n/a	n/a
162.9842	0.6167	INK	32	Neutral	xxxxxxx	xxxxxxx	czerwony	red	hit	n/a
163.5768	n/a	RESPONSE	n/a	n/a	n/a	n/a	n/a	n/a	n/a	red
163.6009	1.0167	ITI	n/a	n/a	n/a	n/a	n/a	n/a	n/a	n/a
164.6176	0.5167	FIXCROSS	n/a	n/a	n/a	n/a	n/a	n/a	n/a	n/a
165.1343	0.4167	INK	33	Incongruent	żółty	yellow	niebieski	blue	hit	n/a
165.5263	n/a	RESPONSE	n/a	n/a	n/a	n/a	n/a	n/a	n/a	blue
165.5509	1.0167	ITI	n/a	n/a	n/a	n/a	n/a	n/a	n/a	n/a
166.5676	0.5167	FIXCROSS	n/a	n/a	n/a	n/a	n/a	n/a	n/a	n/a
167.0843	0.7333	INK	34	Neutral	xxxxxxxx	xxxxxxxx	zielony	green	hit	n/a
167.7952	n/a	RESPONSE	n/a	n/a	n/a	n/a	n/a	n/a	n/a	green
167.8176	1.0167	ITI	n/a	n/a	n/a	n/a	n/a	n/a	n/a	n/a
168.8343	0.5167	FIXCROSS	n/a	n/a	n/a	n/a	n/a	n/a	n/a	n/a
169.3509	0.6333	INK	35	Incongruent	zielony	green	czerwony	red	hit	n/a
169.9525	n/a	RESPONSE	n/a	n/a	n/a	n/a	n/a	n/a	n/a	red
169.9843	1.0167	ITI	n/a	n/a	n/a	n/a	n/a	n/a	n/a	n/a
171.001	0.5167	FIXCROSS	n/a	n/a	n/a	n/a	n/a	n/a	n/a	n/a
171.5176	0.4667	INK	36	Incongruent	zielony	green	niebieski	blue	hit	n/a
171.9657	n/a	RESPONSE	n/a	n/a	n/a	n/a	n/a	n/a	n/a	blue
171.9843	1.0167	ITI	n/a	n/a	n/a	n/a	n/a	n/a	n/a	n/a
173.001	0.5167	FIXCROSS	n/a	n/a	n/a	n/a	n/a	n/a	n/a	n/a
173.5176	0.6	INK	37	Incongruent	zielony	green	czerwony	red	hit	n/a
174.0909	n/a	RESPONSE	n/a	n/a	n/a	n/a	n/a	n/a	n/a	red
174.1176	1.0167	ITI	n/a	n/a	n/a	n/a	n/a	n/a	n/a	n/a
175.1343	0.5167	FIXCROSS	n/a	n/a	n/a	n/a	n/a	n/a	n/a	n/a
175.651	0.55	INK	38	Incongruent	żółty	yellow	zielony	green	hit	n/a
176.1682	n/a	RESPONSE	n/a	n/a	n/a	n/a	n/a	n/a	n/a	green
176.201	1.0167	ITI	n/a	n/a	n/a	n/a	n/a	n/a	n/a	n/a
177.2177	0.5167	FIXCROSS	n/a	n/a	n/a	n/a	n/a	n/a	n/a	n/a
177.7343	0.7167	INK	39	Incongruent	żółty	yellow	czerwony	red	hit	n/a
178.4212	n/a	RESPONSE	n/a	n/a	n/a	n/a	n/a	n/a	n/a	red
178.451	1.0167	ITI	n/a	n/a	n/a	n/a	n/a	n/a	n/a	n/a
179.4677	0.5167	FIXCROSS	n/a	n/a	n/a	n/a	n/a	n/a	n/a	n/a
179.9843	0.5333	INK	40	Neutral	xxxxxxxx	xxxxxxxx	niebieski	blue	hit	n/a
180.4985	n/a	RESPONSE	n/a	n/a	n/a	n/a	n/a	n/a	n/a	blue
180.5177	1.0167	ITI	n/a	n/a	n/a	n/a	n/a	n/a	n/a	n/a
181.5344	0.5167	FIXCROSS	n/a	n/a	n/a	n/a	n/a	n/a	n/a	n/a
182.051	0.6667	INK	41	Neutral	xxxxxxxxx	xxxxxxxxx	czerwony	red	hit	n/a
182.6876	n/a	RESPONSE	n/a	n/a	n/a	n/a	n/a	n/a	n/a	red
182.7177	1.0167	ITI	n/a	n/a	n/a	n/a	n/a	n/a	n/a	n/a
183.7344	0.5167	FIXCROSS	n/a	n/a	n/a	n/a	n/a	n/a	n/a	n/a
184.251	0.5	INK	42	Incongruent	niebieski	blue	żółty	yellow	hit	n/a
184.7328	n/a	RESPONSE	n/a	n/a	n/a	n/a	n/a	n/a	n/a	yellow
184.7511	1.0167	ITI	n/a	n/a	n/a	n/a	n/a	n/a	n/a	n/a
185.7677	0.5167	FIXCROSS	n/a	n/a	n/a	n/a	n/a	n/a	n/a	n/a
186.2844	0.5167	INK	43	Incongruent	czerwony	red	żółty	yellow	hit	n/a
186.7781	n/a	RESPONSE	n/a	n/a	n/a	n/a	n/a	n/a	n/a	yellow
186.8011	1.0167	ITI	n/a	n/a	n/a	n/a	n/a	n/a	n/a	n/a
187.8177	0.5167	FIXCROSS	n/a	n/a	n/a	n/a	n/a	n/a	n/a	n/a
188.3344	0.6333	INK	44	Neutral	xxxxx	xxxxx	niebieski	blue	hit	n/a
188.9353	n/a	RESPONSE	n/a	n/a	n/a	n/a	n/a	n/a	n/a	blue
188.9677	1.0167	ITI	n/a	n/a	n/a	n/a	n/a	n/a	n/a	n/a
189.9844	0.5167	FIXCROSS	n/a	n/a	n/a	n/a	n/a	n/a	n/a	n/a
190.5011	0.5	INK	45	Incongruent	niebieski	blue	zielony	green	hit	n/a
190.9806	n/a	RESPONSE	n/a	n/a	n/a	n/a	n/a	n/a	n/a	green
191.0011	1.0167	ITI	n/a	n/a	n/a	n/a	n/a	n/a	n/a	n/a
192.0178	0.5167	FIXCROSS	n/a	n/a	n/a	n/a	n/a	n/a	n/a	n/a
192.5344	0.4667	INK	46	Incongruent	czerwony	red	żółty	yellow	hit	n/a
192.978	n/a	RESPONSE	n/a	n/a	n/a	n/a	n/a	n/a	n/a	yellow
193.0011	1.0167	ITI	n/a	n/a	n/a	n/a	n/a	n/a	n/a	n/a
194.0178	0.5167	FIXCROSS	n/a	n/a	n/a	n/a	n/a	n/a	n/a	n/a
194.5345	0.8167	INK	47	Incongruent	niebieski	blue	zielony	green	hit	n/a
195.3268	n/a	RESPONSE	n/a	n/a	n/a	n/a	n/a	n/a	n/a	green
195.3511	1.0167	ITI	n/a	n/a	n/a	n/a	n/a	n/a	n/a	n/a
196.3678	0.5167	FIXCROSS	n/a	n/a	n/a	n/a	n/a	n/a	n/a	n/a
196.8845	0.5667	INK	48	Neutral	xxxxxxxxx	xxxxxxxxx	zielony	green	incorrect	n/a
197.4202	n/a	RESPONSE	n/a	n/a	n/a	n/a	n/a	n/a	n/a	yellow
197.4511	1.0167	ITI	n/a	n/a	n/a	n/a	n/a	n/a	n/a	n/a
198.4678	0.5167	FIXCROSS	n/a	n/a	n/a	n/a	n/a	n/a	n/a	n/a
198.9845	0.6667	INK	49	Neutral	xxxxxxx	xxxxxxx	żółty	yellow	hit	n/a
199.6252	n/a	RESPONSE	n/a	n/a	n/a	n/a	n/a	n/a	n/a	yellow
199.6512	1.0167	ITI	n/a	n/a	n/a	n/a	n/a	n/a	n/a	n/a
200.6678	0.5167	FIXCROSS	n/a	n/a	n/a	n/a	n/a	n/a	n/a	n/a
201.1845	0.4333	INK	50	Neutral	xxxxxxxx	xxxxxxxx	zielony	green	hit	n/a
201.5905	n/a	RESPONSE	n/a	n/a	n/a	n/a	n/a	n/a	n/a	green
201.6178	1.0167	ITI	n/a	n/a	n/a	n/a	n/a	n/a	n/a	n/a
202.6345	0.5167	FIXCROSS	n/a	n/a	n/a	n/a	n/a	n/a	n/a	n/a
203.1512	0.5667	INK	51	Neutral	xxxxxxxx	xxxxxxxx	żółty	yellow	hit	n/a
203.6997	n/a	RESPONSE	n/a	n/a	n/a	n/a	n/a	n/a	n/a	yellow
203.7179	1.0167	ITI	n/a	n/a	n/a	n/a	n/a	n/a	n/a	n/a
204.7345	0.5167	FIXCROSS	n/a	n/a	n/a	n/a	n/a	n/a	n/a	n/a
205.2512	0.7	INK	52	Incongruent	żółty	yellow	niebieski	blue	hit	n/a
205.9208	n/a	RESPONSE	n/a	n/a	n/a	n/a	n/a	n/a	n/a	blue
205.9512	1.0167	ITI	n/a	n/a	n/a	n/a	n/a	n/a	n/a	n/a
206.9679	0.5167	FIXCROSS	n/a	n/a	n/a	n/a	n/a	n/a	n/a	n/a
207.4846	0.6	INK	53	Neutral	xxxxx	xxxxx	niebieski	blue	hit	n/a
208.0619	n/a	RESPONSE	n/a	n/a	n/a	n/a	n/a	n/a	n/a	blue
208.0846	1.0167	ITI	n/a	n/a	n/a	n/a	n/a	n/a	n/a	n/a
209.1012	0.5167	FIXCROSS	n/a	n/a	n/a	n/a	n/a	n/a	n/a	n/a
209.6179	0.65	INK	54	Neutral	xxxxxxx	xxxxxxx	żółty	yellow	hit	n/a
210.235	n/a	RESPONSE	n/a	n/a	n/a	n/a	n/a	n/a	n/a	yellow
210.2679	1.0167	ITI	n/a	n/a	n/a	n/a	n/a	n/a	n/a	n/a
211.2846	0.5167	FIXCROSS	n/a	n/a	n/a	n/a	n/a	n/a	n/a	n/a
211.8013	0.5	INK	55	Neutral	xxxxx	xxxxx	czerwony	red	hit	n/a
212.2804	n/a	RESPONSE	n/a	n/a	n/a	n/a	n/a	n/a	n/a	red
212.3013	1.0167	ITI	n/a	n/a	n/a	n/a	n/a	n/a	n/a	n/a
213.3179	0.5167	FIXCROSS	n/a	n/a	n/a	n/a	n/a	n/a	n/a	n/a
213.8346	0.6333	INK	56	Neutral	xxxxxxx	xxxxxxx	czerwony	red	hit	n/a
214.4376	n/a	RESPONSE	n/a	n/a	n/a	n/a	n/a	n/a	n/a	red
214.4679	1.0167	ITI	n/a	n/a	n/a	n/a	n/a	n/a	n/a	n/a
215.4846	0.5167	FIXCROSS	n/a	n/a	n/a	n/a	n/a	n/a	n/a	n/a
216.0013	0.5333	INK	57	Incongruent	zielony	green	żółty	yellow	hit	n/a
216.5148	n/a	RESPONSE	n/a	n/a	n/a	n/a	n/a	n/a	n/a	yellow
216.5346	1.0167	ITI	n/a	n/a	n/a	n/a	n/a	n/a	n/a	n/a
217.5513	0.5167	FIXCROSS	n/a	n/a	n/a	n/a	n/a	n/a	n/a	n/a
218.068	0.7333	INK	58	Incongruent	żółty	yellow	czerwony	red	hit	n/a
218.7838	n/a	RESPONSE	n/a	n/a	n/a	n/a	n/a	n/a	n/a	red
218.8013	1.0167	ITI	n/a	n/a	n/a	n/a	n/a	n/a	n/a	n/a
219.818	0.5167	FIXCROSS	n/a	n/a	n/a	n/a	n/a	n/a	n/a	n/a
220.3346	0.6833	INK	59	Incongruent	czerwony	red	zielony	green	hit	n/a
220.9889	n/a	RESPONSE	n/a	n/a	n/a	n/a	n/a	n/a	n/a	green
221.018	1.0167	ITI	n/a	n/a	n/a	n/a	n/a	n/a	n/a	n/a
222.0347	0.5167	FIXCROSS	n/a	n/a	n/a	n/a	n/a	n/a	n/a	n/a
222.5513	0.5167	INK	60	Incongruent	żółty	yellow	zielony	green	incorrect	n/a
223.0501	n/a	RESPONSE	n/a	n/a	n/a	n/a	n/a	n/a	n/a	yellow
223.068	1.0167	ITI	n/a	n/a	n/a	n/a	n/a	n/a	n/a	n/a
224.0847	0.5167	FIXCROSS	n/a	n/a	n/a	n/a	n/a	n/a	n/a	n/a
224.6013	0.9167	INK	61	Neutral	xxxxxxxx	xxxxxxxx	niebieski	blue	hit	n/a
225.495	n/a	RESPONSE	n/a	n/a	n/a	n/a	n/a	n/a	n/a	blue
225.518	1.0167	ITI	n/a	n/a	n/a	n/a	n/a	n/a	n/a	n/a
226.5347	0.5167	FIXCROSS	n/a	n/a	n/a	n/a	n/a	n/a	n/a	n/a
227.0514	0.65	INK	62	Neutral	xxxxxxxx	xxxxxxxx	niebieski	blue	hit	n/a
227.6681	n/a	RESPONSE	n/a	n/a	n/a	n/a	n/a	n/a	n/a	blue
227.7014	1.0167	ITI	n/a	n/a	n/a	n/a	n/a	n/a	n/a	n/a
228.718	0.5167	FIXCROSS	n/a	n/a	n/a	n/a	n/a	n/a	n/a	n/a
229.2347	0.7	INK	63	Neutral	xxxxxxxx	xxxxxxxx	zielony	green	hit	n/a
229.9052	n/a	RESPONSE	n/a	n/a	n/a	n/a	n/a	n/a	n/a	green
229.9347	1.0167	ITI	n/a	n/a	n/a	n/a	n/a	n/a	n/a	n/a
230.9514	0.5167	FIXCROSS	n/a	n/a	n/a	n/a	n/a	n/a	n/a	n/a
231.4681	0.9167	INK	64	Incongruent	niebieski	blue	zielony	green	hit	n/a
232.3659	n/a	RESPONSE	n/a	n/a	n/a	n/a	n/a	n/a	n/a	green
232.3847	1.0167	ITI	n/a	n/a	n/a	n/a	n/a	n/a	n/a	n/a
233.4014	0.5167	FIXCROSS	n/a	n/a	n/a	n/a	n/a	n/a	n/a	n/a
233.9181	0.7167	INK	65	Incongruent	niebieski	blue	czerwony	red	hit	n/a
234.6029	n/a	RESPONSE	n/a	n/a	n/a	n/a	n/a	n/a	n/a	red
234.6347	1.0167	ITI	n/a	n/a	n/a	n/a	n/a	n/a	n/a	n/a
235.6514	0.5167	FIXCROSS	n/a	n/a	n/a	n/a	n/a	n/a	n/a	n/a
236.1681	0.5667	INK	66	Incongruent	czerwony	red	niebieski	blue	hit	n/a
236.712	n/a	RESPONSE	n/a	n/a	n/a	n/a	n/a	n/a	n/a	blue
236.7348	1.0167	ITI	n/a	n/a	n/a	n/a	n/a	n/a	n/a	n/a
237.7514	0.5167	FIXCROSS	n/a	n/a	n/a	n/a	n/a	n/a	n/a	n/a
238.2681	0.7167	INK	67	Incongruent	żółty	yellow	czerwony	red	hit	n/a
238.9652	n/a	RESPONSE	n/a	n/a	n/a	n/a	n/a	n/a	n/a	red
238.9848	1.0167	ITI	n/a	n/a	n/a	n/a	n/a	n/a	n/a	n/a
240.0014	0.5167	FIXCROSS	n/a	n/a	n/a	n/a	n/a	n/a	n/a	n/a
240.5181	0.65	INK	68	Neutral	xxxxxxxxx	xxxxxxxxx	żółty	yellow	hit	n/a
241.1383	n/a	RESPONSE	n/a	n/a	n/a	n/a	n/a	n/a	n/a	yellow
241.1681	1.0167	ITI	n/a	n/a	n/a	n/a	n/a	n/a	n/a	n/a
242.1848	0.5167	FIXCROSS	n/a	n/a	n/a	n/a	n/a	n/a	n/a	n/a
242.7015	0.5	INK	69	Neutral	xxxxxxxx	xxxxxxxx	żółty	yellow	hit	n/a
243.1676	n/a	RESPONSE	n/a	n/a	n/a	n/a	n/a	n/a	n/a	yellow
243.2015	1.0167	ITI	n/a	n/a	n/a	n/a	n/a	n/a	n/a	n/a
244.2181	0.5167	FIXCROSS	n/a	n/a	n/a	n/a	n/a	n/a	n/a	n/a
244.7348	0.6333	INK	70	Incongruent	niebieski	blue	żółty	yellow	hit	n/a
245.3408	n/a	RESPONSE	n/a	n/a	n/a	n/a	n/a	n/a	n/a	yellow
245.3682	1.0167	ITI	n/a	n/a	n/a	n/a	n/a	n/a	n/a	n/a
246.3848	0.5167	FIXCROSS	n/a	n/a	n/a	n/a	n/a	n/a	n/a	n/a
246.9015	0.6167	INK	71	Neutral	xxxxxxx	xxxxxxx	niebieski	blue	hit	n/a
247.4978	n/a	RESPONSE	n/a	n/a	n/a	n/a	n/a	n/a	n/a	blue
247.5182	1.0167	ITI	n/a	n/a	n/a	n/a	n/a	n/a	n/a	n/a
248.5349	0.5167	FIXCROSS	n/a	n/a	n/a	n/a	n/a	n/a	n/a	n/a
249.0515	0.6833	INK	72	Incongruent	zielony	green	niebieski	blue	hit	n/a
249.7029	n/a	RESPONSE	n/a	n/a	n/a	n/a	n/a	n/a	n/a	blue
249.7349	1.0833	ITI	n/a	n/a	n/a	n/a	n/a	n/a	n/a	n/a
268.7498	n/a	RESPONSE	n/a	n/a	n/a	n/a	n/a	n/a	n/a	n/a
268.8183	1.0167	ITI	n/a	n/a	n/a	n/a	n/a	n/a	n/a	n/a
269.835	0.5167	FIXCROSS	n/a	n/a	n/a	n/a	n/a	n/a	n/a	n/a
270.3517	1.1	T_COLOR_NAME	1	Incongruent	czerwony	red	niebieski	blue	hit	n/a
271.4183	n/a	RESPONSE	n/a	n/a	n/a	n/a	n/a	n/a	n/a	red
271.4517	0.5167	FEEDBACK	n/a	n/a	n/a	n/a	n/a	n/a	n/a	n/a
271.9684	1.0167	ITI	n/a	n/a	n/a	n/a	n/a	n/a	n/a	n/a
272.985	0.5167	FIXCROSS	n/a	n/a	n/a	n/a	n/a	n/a	n/a	n/a
273.5017	0.6167	T_COLOR_NAME	2	Incongruent	czerwony	red	żółty	yellow	hit	n/a
274.0868	n/a	RESPONSE	n/a	n/a	n/a	n/a	n/a	n/a	n/a	red
274.1184	0.5167	FEEDBACK	n/a	n/a	n/a	n/a	n/a	n/a	n/a	n/a
274.635	1.0167	ITI	n/a	n/a	n/a	n/a	n/a	n/a	n/a	n/a
275.6517	0.5167	FIXCROSS	n/a	n/a	n/a	n/a	n/a	n/a	n/a	n/a
276.1684	0.6833	T_COLOR_NAME	3	Incongruent	zielony	green	żółty	yellow	hit	n/a
276.8192	n/a	RESPONSE	n/a	n/a	n/a	n/a	n/a	n/a	n/a	green
276.8517	0.5167	FEEDBACK	n/a	n/a	n/a	n/a	n/a	n/a	n/a	n/a
277.3684	1.0167	ITI	n/a	n/a	n/a	n/a	n/a	n/a	n/a	n/a
278.3851	0.5167	FIXCROSS	n/a	n/a	n/a	n/a	n/a	n/a	n/a	n/a
278.9017	0.6667	T_COLOR_NAME	4	Neutral	zielony	green	Neutral	Neutral	hit	n/a
279.5356	n/a	RESPONSE	n/a	n/a	n/a	n/a	n/a	n/a	n/a	green
279.5684	0.5167	FEEDBACK	n/a	n/a	n/a	n/a	n/a	n/a	n/a	n/a
280.0851	1.0167	ITI	n/a	n/a	n/a	n/a	n/a	n/a	n/a	n/a
281.1017	0.5167	FIXCROSS	n/a	n/a	n/a	n/a	n/a	n/a	n/a	n/a
281.6184	0.85	T_COLOR_NAME	5	Neutral	niebieski	blue	Neutral	Neutral	hit	n/a
282.4437	n/a	RESPONSE	n/a	n/a	n/a	n/a	n/a	n/a	n/a	blue
282.4684	0.5167	FEEDBACK	n/a	n/a	n/a	n/a	n/a	n/a	n/a	n/a
282.9851	1.0167	ITI	n/a	n/a	n/a	n/a	n/a	n/a	n/a	n/a
284.0018	0.5167	FIXCROSS	n/a	n/a	n/a	n/a	n/a	n/a	n/a	n/a
284.5184	0.7333	T_COLOR_NAME	6	Neutral	żółty	yellow	Neutral	Neutral	hit	n/a
285.2241	n/a	RESPONSE	n/a	n/a	n/a	n/a	n/a	n/a	n/a	yellow
285.2518	0.5167	FEEDBACK	n/a	n/a	n/a	n/a	n/a	n/a	n/a	n/a
285.7684	1.0167	ITI	n/a	n/a	n/a	n/a	n/a	n/a	n/a	n/a
286.7851	0.5167	FIXCROSS	n/a	n/a	n/a	n/a	n/a	n/a	n/a	n/a
287.3018	0.8667	T_COLOR_NAME	7	Incongruent	niebieski	blue	żółty	yellow	hit	n/a
288.1481	n/a	RESPONSE	n/a	n/a	n/a	n/a	n/a	n/a	n/a	blue
288.1685	0.5167	FEEDBACK	n/a	n/a	n/a	n/a	n/a	n/a	n/a	n/a
288.6851	1.0167	ITI	n/a	n/a	n/a	n/a	n/a	n/a	n/a	n/a
289.7018	0.5167	FIXCROSS	n/a	n/a	n/a	n/a	n/a	n/a	n/a	n/a
290.2185	0.6167	T_COLOR_NAME	8	Neutral	żółty	yellow	Neutral	Neutral	hit	n/a
290.8166	n/a	RESPONSE	n/a	n/a	n/a	n/a	n/a	n/a	n/a	yellow
290.8351	0.5167	FEEDBACK	n/a	n/a	n/a	n/a	n/a	n/a	n/a	n/a
291.3518	1.0167	ITI	n/a	n/a	n/a	n/a	n/a	n/a	n/a	n/a
292.3685	0.5167	FIXCROSS	n/a	n/a	n/a	n/a	n/a	n/a	n/a	n/a
292.8852	0.55	T_COLOR_NAME	9	Incongruent	zielony	green	czerwony	red	incorrect	n/a
293.4052	n/a	RESPONSE	n/a	n/a	n/a	n/a	n/a	n/a	n/a	red
293.4352	0.5167	FEEDBACK	n/a	n/a	n/a	n/a	n/a	n/a	n/a	n/a
293.9518	1.0167	ITI	n/a	n/a	n/a	n/a	n/a	n/a	n/a	n/a
294.9685	0.5167	FIXCROSS	n/a	n/a	n/a	n/a	n/a	n/a	n/a	n/a
295.4852	0.6833	T_COLOR_NAME	10	Neutral	czerwony	red	Neutral	Neutral	hit	n/a
296.1376	n/a	RESPONSE	n/a	n/a	n/a	n/a	n/a	n/a	n/a	red
296.1685	0.5167	FEEDBACK	n/a	n/a	n/a	n/a	n/a	n/a	n/a	n/a
296.6852	1.0167	ITI	n/a	n/a	n/a	n/a	n/a	n/a	n/a	n/a
297.7019	0.5167	FIXCROSS	n/a	n/a	n/a	n/a	n/a	n/a	n/a	n/a
298.2185	0.5667	T_COLOR_NAME	11	Neutral	zielony	green	Neutral	Neutral	incorrect	n/a
298.7581	n/a	RESPONSE	n/a	n/a	n/a	n/a	n/a	n/a	n/a	yellow
298.7852	0.5167	FEEDBACK	n/a	n/a	n/a	n/a	n/a	n/a	n/a	n/a
299.3019	1.0167	ITI	n/a	n/a	n/a	n/a	n/a	n/a	n/a	n/a
300.3186	0.5167	FIXCROSS	n/a	n/a	n/a	n/a	n/a	n/a	n/a	n/a
300.8352	0.8833	T_COLOR_NAME	12	Incongruent	niebieski	blue	zielony	green	hit	n/a
301.6823	n/a	RESPONSE	n/a	n/a	n/a	n/a	n/a	n/a	n/a	blue
301.7186	0.5167	FEEDBACK	n/a	n/a	n/a	n/a	n/a	n/a	n/a	n/a
302.2352	1.0333	ITI	n/a	n/a	n/a	n/a	n/a	n/a	n/a	n/a
304.6224	n/a	RESPONSE	n/a	n/a	n/a	n/a	n/a	n/a	n/a	n/a
304.6852	1.0167	ITI	n/a	n/a	n/a	n/a	n/a	n/a	n/a	n/a
305.7019	0.5167	FIXCROSS	n/a	n/a	n/a	n/a	n/a	n/a	n/a	n/a
306.2186	0.9	COLOR_NAME	1	Neutral	zielony	green	Neutral	Neutral	hit	n/a
307.0991	n/a	RESPONSE	n/a	n/a	n/a	n/a	n/a	n/a	n/a	green
307.1186	1.0167	ITI	n/a	n/a	n/a	n/a	n/a	n/a	n/a	n/a
308.1353	0.5167	FIXCROSS	n/a	n/a	n/a	n/a	n/a	n/a	n/a	n/a
308.6519	0.7833	COLOR_NAME	2	Incongruent	żółty	yellow	zielony	green	hit	n/a
309.4161	n/a	RESPONSE	n/a	n/a	n/a	n/a	n/a	n/a	n/a	yellow
309.4353	1.0167	ITI	n/a	n/a	n/a	n/a	n/a	n/a	n/a	n/a
310.4519	0.5167	FIXCROSS	n/a	n/a	n/a	n/a	n/a	n/a	n/a	n/a
310.9686	0.6667	COLOR_NAME	3	Neutral	czerwony	red	Neutral	Neutral	hit	n/a
311.6052	n/a	RESPONSE	n/a	n/a	n/a	n/a	n/a	n/a	n/a	red
311.6353	1.0167	ITI	n/a	n/a	n/a	n/a	n/a	n/a	n/a	n/a
312.652	0.5167	FIXCROSS	n/a	n/a	n/a	n/a	n/a	n/a	n/a	n/a
313.1686	0.7833	COLOR_NAME	4	Incongruent	czerwony	red	zielony	green	hit	n/a
313.9222	n/a	RESPONSE	n/a	n/a	n/a	n/a	n/a	n/a	n/a	red
313.952	1.0167	ITI	n/a	n/a	n/a	n/a	n/a	n/a	n/a	n/a
314.9686	0.5167	FIXCROSS	n/a	n/a	n/a	n/a	n/a	n/a	n/a	n/a
315.4853	0.5167	COLOR_NAME	5	Incongruent	żółty	yellow	czerwony	red	hit	n/a
315.9834	n/a	RESPONSE	n/a	n/a	n/a	n/a	n/a	n/a	n/a	yellow
316.002	1.0167	ITI	n/a	n/a	n/a	n/a	n/a	n/a	n/a	n/a
317.0187	0.5167	FIXCROSS	n/a	n/a	n/a	n/a	n/a	n/a	n/a	n/a
317.5353	0.65	COLOR_NAME	6	Incongruent	czerwony	red	niebieski	blue	hit	n/a
318.1565	n/a	RESPONSE	n/a	n/a	n/a	n/a	n/a	n/a	n/a	red
318.1853	1.0167	ITI	n/a	n/a	n/a	n/a	n/a	n/a	n/a	n/a
319.202	0.5167	FIXCROSS	n/a	n/a	n/a	n/a	n/a	n/a	n/a	n/a
319.7187	0.6667	COLOR_NAME	7	Neutral	niebieski	blue	Neutral	Neutral	incorrect	n/a
320.3616	n/a	RESPONSE	n/a	n/a	n/a	n/a	n/a	n/a	n/a	red
320.3854	1.0167	ITI	n/a	n/a	n/a	n/a	n/a	n/a	n/a	n/a
321.402	0.5167	FIXCROSS	n/a	n/a	n/a	n/a	n/a	n/a	n/a	n/a
321.9187	0.6667	COLOR_NAME	8	Neutral	czerwony	red	Neutral	Neutral	hit	n/a
322.5667	n/a	RESPONSE	n/a	n/a	n/a	n/a	n/a	n/a	n/a	red
322.5854	1.0167	ITI	n/a	n/a	n/a	n/a	n/a	n/a	n/a	n/a
323.602	0.5167	FIXCROSS	n/a	n/a	n/a	n/a	n/a	n/a	n/a	n/a
324.1187	0.8	COLOR_NAME	9	Incongruent	zielony	green	niebieski	blue	hit	n/a
324.8997	n/a	RESPONSE	n/a	n/a	n/a	n/a	n/a	n/a	n/a	green
324.9187	1.0167	ITI	n/a	n/a	n/a	n/a	n/a	n/a	n/a	n/a
325.9354	0.5167	FIXCROSS	n/a	n/a	n/a	n/a	n/a	n/a	n/a	n/a
326.4521	0.7333	COLOR_NAME	10	Incongruent	zielony	green	niebieski	blue	hit	n/a
327.1526	n/a	RESPONSE	n/a	n/a	n/a	n/a	n/a	n/a	n/a	green
327.1854	1.0167	ITI	n/a	n/a	n/a	n/a	n/a	n/a	n/a	n/a
328.2021	0.5167	FIXCROSS	n/a	n/a	n/a	n/a	n/a	n/a	n/a	n/a
328.7187	0.6667	COLOR_NAME	11	Neutral	niebieski	blue	Neutral	Neutral	hit	n/a
329.3576	n/a	RESPONSE	n/a	n/a	n/a	n/a	n/a	n/a	n/a	blue
329.3854	1.0167	ITI	n/a	n/a	n/a	n/a	n/a	n/a	n/a	n/a
330.4021	0.5167	FIXCROSS	n/a	n/a	n/a	n/a	n/a	n/a	n/a	n/a
330.9188	0.8667	COLOR_NAME	12	Incongruent	zielony	green	żółty	yellow	hit	n/a
331.7546	n/a	RESPONSE	n/a	n/a	n/a	n/a	n/a	n/a	n/a	green
331.7854	1.0167	ITI	n/a	n/a	n/a	n/a	n/a	n/a	n/a	n/a
332.8021	0.5167	FIXCROSS	n/a	n/a	n/a	n/a	n/a	n/a	n/a	n/a
333.3188	0.75	COLOR_NAME	13	Incongruent	niebieski	blue	czerwony	red	hit	n/a
334.0396	n/a	RESPONSE	n/a	n/a	n/a	n/a	n/a	n/a	n/a	blue
334.0688	1.0167	ITI	n/a	n/a	n/a	n/a	n/a	n/a	n/a	n/a
335.0855	0.5167	FIXCROSS	n/a	n/a	n/a	n/a	n/a	n/a	n/a	n/a
335.6021	0.5833	COLOR_NAME	14	Incongruent	żółty	yellow	niebieski	blue	hit	n/a
336.1646	n/a	RESPONSE	n/a	n/a	n/a	n/a	n/a	n/a	n/a	yellow
336.1855	1.0167	ITI	n/a	n/a	n/a	n/a	n/a	n/a	n/a	n/a
337.2021	0.5167	FIXCROSS	n/a	n/a	n/a	n/a	n/a	n/a	n/a	n/a
337.7188	0.6167	COLOR_NAME	15	Incongruent	czerwony	red	zielony	green	hit	n/a
338.3057	n/a	RESPONSE	n/a	n/a	n/a	n/a	n/a	n/a	n/a	red
338.3355	1.0167	ITI	n/a	n/a	n/a	n/a	n/a	n/a	n/a	n/a
339.3522	0.5167	FIXCROSS	n/a	n/a	n/a	n/a	n/a	n/a	n/a	n/a
339.8688	0.6	COLOR_NAME	16	Incongruent	zielony	green	niebieski	blue	hit	n/a
340.4469	n/a	RESPONSE	n/a	n/a	n/a	n/a	n/a	n/a	n/a	green
340.4688	1.0167	ITI	n/a	n/a	n/a	n/a	n/a	n/a	n/a	n/a
341.4855	0.5167	FIXCROSS	n/a	n/a	n/a	n/a	n/a	n/a	n/a	n/a
342.0022	0.6833	COLOR_NAME	17	Neutral	niebieski	blue	Neutral	Neutral	hit	n/a
342.6521	n/a	RESPONSE	n/a	n/a	n/a	n/a	n/a	n/a	n/a	blue
342.6855	1.0167	ITI	n/a	n/a	n/a	n/a	n/a	n/a	n/a	n/a
343.7022	0.5167	FIXCROSS	n/a	n/a	n/a	n/a	n/a	n/a	n/a	n/a
344.2189	0.6667	COLOR_NAME	18	Neutral	zielony	green	Neutral	Neutral	hit	n/a
344.8572	n/a	RESPONSE	n/a	n/a	n/a	n/a	n/a	n/a	n/a	green
344.8855	1.0167	ITI	n/a	n/a	n/a	n/a	n/a	n/a	n/a	n/a
345.9022	0.5167	FIXCROSS	n/a	n/a	n/a	n/a	n/a	n/a	n/a	n/a
346.4189	0.5833	COLOR_NAME	19	Incongruent	niebieski	blue	czerwony	red	hit	n/a
346.9824	n/a	RESPONSE	n/a	n/a	n/a	n/a	n/a	n/a	n/a	blue
347.0022	1.0167	ITI	n/a	n/a	n/a	n/a	n/a	n/a	n/a	n/a
348.0189	0.5167	FIXCROSS	n/a	n/a	n/a	n/a	n/a	n/a	n/a	n/a
348.5356	0.6333	COLOR_NAME	20	Neutral	czerwony	red	Neutral	Neutral	hit	n/a
349.1395	n/a	RESPONSE	n/a	n/a	n/a	n/a	n/a	n/a	n/a	red
349.1689	1.0167	ITI	n/a	n/a	n/a	n/a	n/a	n/a	n/a	n/a
350.1856	0.5167	FIXCROSS	n/a	n/a	n/a	n/a	n/a	n/a	n/a	n/a
350.7022	0.7	COLOR_NAME	21	Incongruent	niebieski	blue	zielony	green	hit	n/a
351.3766	n/a	RESPONSE	n/a	n/a	n/a	n/a	n/a	n/a	n/a	blue
351.4022	1.0167	ITI	n/a	n/a	n/a	n/a	n/a	n/a	n/a	n/a
352.4189	0.5167	FIXCROSS	n/a	n/a	n/a	n/a	n/a	n/a	n/a	n/a
352.9356	0.7333	COLOR_NAME	22	Neutral	zielony	green	Neutral	Neutral	hit	n/a
353.6456	n/a	RESPONSE	n/a	n/a	n/a	n/a	n/a	n/a	n/a	green
353.6689	1.0167	ITI	n/a	n/a	n/a	n/a	n/a	n/a	n/a	n/a
354.6856	0.5167	FIXCROSS	n/a	n/a	n/a	n/a	n/a	n/a	n/a	n/a
355.2023	0.65	COLOR_NAME	23	Neutral	żółty	yellow	Neutral	Neutral	hit	n/a
355.8347	n/a	RESPONSE	n/a	n/a	n/a	n/a	n/a	n/a	n/a	yellow
355.8523	1.0167	ITI	n/a	n/a	n/a	n/a	n/a	n/a	n/a	n/a
356.8689	0.5167	FIXCROSS	n/a	n/a	n/a	n/a	n/a	n/a	n/a	n/a
357.3856	0.9667	COLOR_NAME	24	Incongruent	zielony	green	żółty	yellow	hit	n/a
358.3274	n/a	RESPONSE	n/a	n/a	n/a	n/a	n/a	n/a	n/a	green
358.3523	1.0167	ITI	n/a	n/a	n/a	n/a	n/a	n/a	n/a	n/a
359.369	0.5167	FIXCROSS	n/a	n/a	n/a	n/a	n/a	n/a	n/a	n/a
359.8856	0.5167	COLOR_NAME	25	Incongruent	niebieski	blue	żółty	yellow	hit	n/a
360.3727	n/a	RESPONSE	n/a	n/a	n/a	n/a	n/a	n/a	n/a	blue
360.4023	1.0167	ITI	n/a	n/a	n/a	n/a	n/a	n/a	n/a	n/a
361.419	0.5167	FIXCROSS	n/a	n/a	n/a	n/a	n/a	n/a	n/a	n/a
361.9357	0.5833	COLOR_NAME	26	Incongruent	czerwony	red	żółty	yellow	hit	n/a
362.4978	n/a	RESPONSE	n/a	n/a	n/a	n/a	n/a	n/a	n/a	red
362.519	1.0167	ITI	n/a	n/a	n/a	n/a	n/a	n/a	n/a	n/a
363.5357	0.5167	FIXCROSS	n/a	n/a	n/a	n/a	n/a	n/a	n/a	n/a
364.0523	0.7	COLOR_NAME	27	Incongruent	niebieski	blue	zielony	green	incorrect	n/a
364.7189	n/a	RESPONSE	n/a	n/a	n/a	n/a	n/a	n/a	n/a	green
364.7523	1.0167	ITI	n/a	n/a	n/a	n/a	n/a	n/a	n/a	n/a
365.769	0.5167	FIXCROSS	n/a	n/a	n/a	n/a	n/a	n/a	n/a	n/a
366.2857	0.7333	COLOR_NAME	28	Neutral	czerwony	red	Neutral	Neutral	hit	n/a
366.9879	n/a	RESPONSE	n/a	n/a	n/a	n/a	n/a	n/a	n/a	red
367.019	1.0167	ITI	n/a	n/a	n/a	n/a	n/a	n/a	n/a	n/a
368.0357	0.5167	FIXCROSS	n/a	n/a	n/a	n/a	n/a	n/a	n/a	n/a
368.5524	0.6	COLOR_NAME	29	Incongruent	czerwony	red	niebieski	blue	hit	n/a
369.1291	n/a	RESPONSE	n/a	n/a	n/a	n/a	n/a	n/a	n/a	red
369.1524	1.0167	ITI	n/a	n/a	n/a	n/a	n/a	n/a	n/a	n/a
370.169	0.5167	FIXCROSS	n/a	n/a	n/a	n/a	n/a	n/a	n/a	n/a
370.6857	0.7667	COLOR_NAME	30	Neutral	zielony	green	Neutral	Neutral	hit	n/a
371.4301	n/a	RESPONSE	n/a	n/a	n/a	n/a	n/a	n/a	n/a	green
371.4524	1.0167	ITI	n/a	n/a	n/a	n/a	n/a	n/a	n/a	n/a
372.4691	0.5167	FIXCROSS	n/a	n/a	n/a	n/a	n/a	n/a	n/a	n/a
372.9857	0.4667	COLOR_NAME	31	Incongruent	żółty	yellow	niebieski	blue	hit	n/a
373.4275	n/a	RESPONSE	n/a	n/a	n/a	n/a	n/a	n/a	n/a	yellow
373.4524	1.0167	ITI	n/a	n/a	n/a	n/a	n/a	n/a	n/a	n/a
374.4691	0.5167	FIXCROSS	n/a	n/a	n/a	n/a	n/a	n/a	n/a	n/a
374.9857	0.5167	COLOR_NAME	32	Neutral	niebieski	blue	Neutral	Neutral	incorrect	n/a
375.4727	n/a	RESPONSE	n/a	n/a	n/a	n/a	n/a	n/a	n/a	red
375.5024	1.0167	ITI	n/a	n/a	n/a	n/a	n/a	n/a	n/a	n/a
376.5191	0.5166	FIXCROSS	n/a	n/a	n/a	n/a	n/a	n/a	n/a	n/a
377.0357	0.65	COLOR_NAME	33	Neutral	żółty	yellow	Neutral	Neutral	hit	n/a
377.6618	n/a	RESPONSE	n/a	n/a	n/a	n/a	n/a	n/a	n/a	yellow
377.6858	1.0167	ITI	n/a	n/a	n/a	n/a	n/a	n/a	n/a	n/a
378.7024	0.5167	FIXCROSS	n/a	n/a	n/a	n/a	n/a	n/a	n/a	n/a
379.2191	0.6667	COLOR_NAME	34	Neutral	niebieski	blue	Neutral	Neutral	hit	n/a
379.867	n/a	RESPONSE	n/a	n/a	n/a	n/a	n/a	n/a	n/a	blue
379.8858	1.0167	ITI	n/a	n/a	n/a	n/a	n/a	n/a	n/a	n/a
380.9024	0.5167	FIXCROSS	n/a	n/a	n/a	n/a	n/a	n/a	n/a	n/a
381.4191	0.6667	COLOR_NAME	35	Neutral	niebieski	blue	Neutral	Neutral	hit	n/a
382.056	n/a	RESPONSE	n/a	n/a	n/a	n/a	n/a	n/a	n/a	blue
382.0858	1.0167	ITI	n/a	n/a	n/a	n/a	n/a	n/a	n/a	n/a
383.1025	0.5167	FIXCROSS	n/a	n/a	n/a	n/a	n/a	n/a	n/a	n/a
383.6191	0.75	COLOR_NAME	36	Neutral	zielony	green	Neutral	Neutral	hit	n/a
384.3409	n/a	RESPONSE	n/a	n/a	n/a	n/a	n/a	n/a	n/a	green
384.3691	1.0167	ITI	n/a	n/a	n/a	n/a	n/a	n/a	n/a	n/a
385.3858	0.5167	FIXCROSS	n/a	n/a	n/a	n/a	n/a	n/a	n/a	n/a
385.9025	0.8667	COLOR_NAME	37	Incongruent	niebieski	blue	czerwony	red	hit	n/a
386.7379	n/a	RESPONSE	n/a	n/a	n/a	n/a	n/a	n/a	n/a	blue
386.7692	1.0167	ITI	n/a	n/a	n/a	n/a	n/a	n/a	n/a	n/a
387.7858	0.5167	FIXCROSS	n/a	n/a	n/a	n/a	n/a	n/a	n/a	n/a
388.3025	0.7	COLOR_NAME	38	Neutral	żółty	yellow	Neutral	Neutral	hit	n/a
388.9749	n/a	RESPONSE	n/a	n/a	n/a	n/a	n/a	n/a	n/a	yellow
389.0025	1.0167	ITI	n/a	n/a	n/a	n/a	n/a	n/a	n/a	n/a
390.0192	0.5167	FIXCROSS	n/a	n/a	n/a	n/a	n/a	n/a	n/a	n/a
390.5358	0.65	COLOR_NAME	39	Incongruent	żółty	yellow	czerwony	red	hit	n/a
391.164	n/a	RESPONSE	n/a	n/a	n/a	n/a	n/a	n/a	n/a	yellow
391.1858	1.0167	ITI	n/a	n/a	n/a	n/a	n/a	n/a	n/a	n/a
392.2025	0.5167	FIXCROSS	n/a	n/a	n/a	n/a	n/a	n/a	n/a	n/a
392.7192	0.6333	COLOR_NAME	40	Incongruent	czerwony	red	zielony	green	hit	n/a
393.3212	n/a	RESPONSE	n/a	n/a	n/a	n/a	n/a	n/a	n/a	red
393.3525	1.0167	ITI	n/a	n/a	n/a	n/a	n/a	n/a	n/a	n/a
394.3692	0.5167	FIXCROSS	n/a	n/a	n/a	n/a	n/a	n/a	n/a	n/a
394.8859	0.6833	COLOR_NAME	41	Neutral	zielony	green	Neutral	Neutral	hit	n/a
395.5423	n/a	RESPONSE	n/a	n/a	n/a	n/a	n/a	n/a	n/a	green
395.5692	1.0167	ITI	n/a	n/a	n/a	n/a	n/a	n/a	n/a	n/a
396.5859	0.5167	FIXCROSS	n/a	n/a	n/a	n/a	n/a	n/a	n/a	n/a
397.1026	0.65	COLOR_NAME	42	Incongruent	żółty	yellow	niebieski	blue	hit	n/a
397.7314	n/a	RESPONSE	n/a	n/a	n/a	n/a	n/a	n/a	n/a	yellow
397.7526	1.0167	ITI	n/a	n/a	n/a	n/a	n/a	n/a	n/a	n/a
398.7692	0.5167	FIXCROSS	n/a	n/a	n/a	n/a	n/a	n/a	n/a	n/a
399.2859	0.5333	COLOR_NAME	43	Neutral	żółty	yellow	Neutral	Neutral	hit	n/a
399.7928	n/a	RESPONSE	n/a	n/a	n/a	n/a	n/a	n/a	n/a	yellow
399.8192	1.0167	ITI	n/a	n/a	n/a	n/a	n/a	n/a	n/a	n/a
400.8359	0.5167	FIXCROSS	n/a	n/a	n/a	n/a	n/a	n/a	n/a	n/a
401.3526	0.5333	COLOR_NAME	44	Incongruent	żółty	yellow	zielony	green	hit	n/a
401.854	n/a	RESPONSE	n/a	n/a	n/a	n/a	n/a	n/a	n/a	yellow
401.8859	1.0167	ITI	n/a	n/a	n/a	n/a	n/a	n/a	n/a	n/a
402.9026	0.5167	FIXCROSS	n/a	n/a	n/a	n/a	n/a	n/a	n/a	n/a
403.4193	0.6167	COLOR_NAME	45	Incongruent	niebieski	blue	żółty	yellow	hit	n/a
404.0111	n/a	RESPONSE	n/a	n/a	n/a	n/a	n/a	n/a	n/a	blue
404.0359	1.0167	ITI	n/a	n/a	n/a	n/a	n/a	n/a	n/a	n/a
405.0526	0.5167	FIXCROSS	n/a	n/a	n/a	n/a	n/a	n/a	n/a	n/a
405.5693	0.6667	COLOR_NAME	46	Incongruent	zielony	green	czerwony	red	hit	n/a
406.2162	n/a	RESPONSE	n/a	n/a	n/a	n/a	n/a	n/a	n/a	green
406.236	1.0167	ITI	n/a	n/a	n/a	n/a	n/a	n/a	n/a	n/a
407.2526	0.5167	FIXCROSS	n/a	n/a	n/a	n/a	n/a	n/a	n/a	n/a
407.7693	0.65	COLOR_NAME	47	Neutral	niebieski	blue	Neutral	Neutral	hit	n/a
408.3894	n/a	RESPONSE	n/a	n/a	n/a	n/a	n/a	n/a	n/a	blue
408.4193	1.0167	ITI	n/a	n/a	n/a	n/a	n/a	n/a	n/a	n/a
409.436	0.5167	FIXCROSS	n/a	n/a	n/a	n/a	n/a	n/a	n/a	n/a
409.9526	0.6167	COLOR_NAME	48	Incongruent	niebieski	blue	żółty	yellow	hit	n/a
410.5465	n/a	RESPONSE	n/a	n/a	n/a	n/a	n/a	n/a	n/a	blue
410.5693	1.0167	ITI	n/a	n/a	n/a	n/a	n/a	n/a	n/a	n/a
411.586	0.5167	FIXCROSS	n/a	n/a	n/a	n/a	n/a	n/a	n/a	n/a
412.1027	0.6333	COLOR_NAME	49	Neutral	żółty	yellow	Neutral	Neutral	hit	n/a
412.7037	n/a	RESPONSE	n/a	n/a	n/a	n/a	n/a	n/a	n/a	yellow
412.736	1.0167	ITI	n/a	n/a	n/a	n/a	n/a	n/a	n/a	n/a
413.7527	0.5167	FIXCROSS	n/a	n/a	n/a	n/a	n/a	n/a	n/a	n/a
414.2694	0.5667	COLOR_NAME	50	Incongruent	żółty	yellow	czerwony	red	hit	n/a
414.813	n/a	RESPONSE	n/a	n/a	n/a	n/a	n/a	n/a	n/a	yellow
414.836	1.0167	ITI	n/a	n/a	n/a	n/a	n/a	n/a	n/a	n/a
415.8527	0.5167	FIXCROSS	n/a	n/a	n/a	n/a	n/a	n/a	n/a	n/a
416.3694	0.6667	COLOR_NAME	51	Incongruent	czerwony	red	niebieski	blue	hit	n/a
417.0181	n/a	RESPONSE	n/a	n/a	n/a	n/a	n/a	n/a	n/a	red
417.036	1.0167	ITI	n/a	n/a	n/a	n/a	n/a	n/a	n/a	n/a
418.0527	0.5167	FIXCROSS	n/a	n/a	n/a	n/a	n/a	n/a	n/a	n/a
418.5694	0.65	COLOR_NAME	52	Neutral	żółty	yellow	Neutral	Neutral	hit	n/a
419.1911	n/a	RESPONSE	n/a	n/a	n/a	n/a	n/a	n/a	n/a	yellow
419.2194	1.0167	ITI	n/a	n/a	n/a	n/a	n/a	n/a	n/a	n/a
420.2361	0.5167	FIXCROSS	n/a	n/a	n/a	n/a	n/a	n/a	n/a	n/a
420.7527	0.6667	COLOR_NAME	53	Incongruent	zielony	green	czerwony	red	hit	n/a
421.3963	n/a	RESPONSE	n/a	n/a	n/a	n/a	n/a	n/a	n/a	green
421.4194	1.0167	ITI	n/a	n/a	n/a	n/a	n/a	n/a	n/a	n/a
422.4361	0.5167	FIXCROSS	n/a	n/a	n/a	n/a	n/a	n/a	n/a	n/a
422.9527	0.6333	COLOR_NAME	54	Incongruent	niebieski	blue	zielony	green	hit	n/a
423.5535	n/a	RESPONSE	n/a	n/a	n/a	n/a	n/a	n/a	n/a	blue
423.5861	1.0167	ITI	n/a	n/a	n/a	n/a	n/a	n/a	n/a	n/a
424.6027	0.5167	FIXCROSS	n/a	n/a	n/a	n/a	n/a	n/a	n/a	n/a
425.1194	0.8	COLOR_NAME	55	Incongruent	zielony	green	czerwony	red	hit	n/a
425.9022	n/a	RESPONSE	n/a	n/a	n/a	n/a	n/a	n/a	n/a	green
425.9194	1.0167	ITI	n/a	n/a	n/a	n/a	n/a	n/a	n/a	n/a
426.9361	0.5167	FIXCROSS	n/a	n/a	n/a	n/a	n/a	n/a	n/a	n/a
427.4528	0.7	COLOR_NAME	56	Incongruent	czerwony	red	żółty	yellow	hit	n/a
428.1234	n/a	RESPONSE	n/a	n/a	n/a	n/a	n/a	n/a	n/a	red
428.1528	1.0167	ITI	n/a	n/a	n/a	n/a	n/a	n/a	n/a	n/a
429.1694	0.5167	FIXCROSS	n/a	n/a	n/a	n/a	n/a	n/a	n/a	n/a
429.6861	0.75	COLOR_NAME	57	Neutral	czerwony	red	Neutral	Neutral	hit	n/a
430.4084	n/a	RESPONSE	n/a	n/a	n/a	n/a	n/a	n/a	n/a	red
430.4361	1.0167	ITI	n/a	n/a	n/a	n/a	n/a	n/a	n/a	n/a
431.4528	0.5167	FIXCROSS	n/a	n/a	n/a	n/a	n/a	n/a	n/a	n/a
431.9695	0.5333	COLOR_NAME	58	Neutral	czerwony	red	Neutral	Neutral	hit	n/a
432.4856	n/a	RESPONSE	n/a	n/a	n/a	n/a	n/a	n/a	n/a	red
432.5028	1.0167	ITI	n/a	n/a	n/a	n/a	n/a	n/a	n/a	n/a
433.5195	0.5167	FIXCROSS	n/a	n/a	n/a	n/a	n/a	n/a	n/a	n/a
434.0362	0.6167	COLOR_NAME	59	Neutral	zielony	green	Neutral	Neutral	hit	n/a
434.6267	n/a	RESPONSE	n/a	n/a	n/a	n/a	n/a	n/a	n/a	green
434.6528	1.0167	ITI	n/a	n/a	n/a	n/a	n/a	n/a	n/a	n/a
435.6695	0.5167	FIXCROSS	n/a	n/a	n/a	n/a	n/a	n/a	n/a	n/a
436.1862	0.4	COLOR_NAME	60	Neutral	żółty	yellow	Neutral	Neutral	hit	n/a
436.5602	n/a	RESPONSE	n/a	n/a	n/a	n/a	n/a	n/a	n/a	yellow
436.5862	1.0167	ITI	n/a	n/a	n/a	n/a	n/a	n/a	n/a	n/a
437.6028	0.5167	FIXCROSS	n/a	n/a	n/a	n/a	n/a	n/a	n/a	n/a
438.1195	0.75	COLOR_NAME	61	Incongruent	zielony	green	żółty	yellow	hit	n/a
438.8453	n/a	RESPONSE	n/a	n/a	n/a	n/a	n/a	n/a	n/a	green
438.8695	1.0167	ITI	n/a	n/a	n/a	n/a	n/a	n/a	n/a	n/a
439.8862	0.5167	FIXCROSS	n/a	n/a	n/a	n/a	n/a	n/a	n/a	n/a
440.4029	0.65	COLOR_NAME	62	Neutral	żółty	yellow	Neutral	Neutral	hit	n/a
441.0343	n/a	RESPONSE	n/a	n/a	n/a	n/a	n/a	n/a	n/a	yellow
441.0529	1.0167	ITI	n/a	n/a	n/a	n/a	n/a	n/a	n/a	n/a
442.0695	0.5167	FIXCROSS	n/a	n/a	n/a	n/a	n/a	n/a	n/a	n/a
442.5862	0.8333	COLOR_NAME	63	Neutral	czerwony	red	Neutral	Neutral	hit	n/a
443.3993	n/a	RESPONSE	n/a	n/a	n/a	n/a	n/a	n/a	n/a	red
443.4195	1.0167	ITI	n/a	n/a	n/a	n/a	n/a	n/a	n/a	n/a
444.4362	0.5167	FIXCROSS	n/a	n/a	n/a	n/a	n/a	n/a	n/a	n/a
444.9529	0.7333	COLOR_NAME	64	Incongruent	czerwony	red	żółty	yellow	hit	n/a
445.6682	n/a	RESPONSE	n/a	n/a	n/a	n/a	n/a	n/a	n/a	red
445.6862	1.0167	ITI	n/a	n/a	n/a	n/a	n/a	n/a	n/a	n/a
446.7029	0.5167	FIXCROSS	n/a	n/a	n/a	n/a	n/a	n/a	n/a	n/a
447.2196	0.65	COLOR_NAME	65	Neutral	żółty	yellow	Neutral	Neutral	hit	n/a
447.8413	n/a	RESPONSE	n/a	n/a	n/a	n/a	n/a	n/a	n/a	yellow
447.8696	1.0167	ITI	n/a	n/a	n/a	n/a	n/a	n/a	n/a	n/a
448.8863	0.5167	FIXCROSS	n/a	n/a	n/a	n/a	n/a	n/a	n/a	n/a
449.4029	0.65	COLOR_NAME	66	Neutral	niebieski	blue	Neutral	Neutral	incorrect	n/a
450.0304	n/a	RESPONSE	n/a	n/a	n/a	n/a	n/a	n/a	n/a	red
450.0529	1.0167	ITI	n/a	n/a	n/a	n/a	n/a	n/a	n/a	n/a
451.0696	0.5167	FIXCROSS	n/a	n/a	n/a	n/a	n/a	n/a	n/a	n/a
451.5863	0.5833	COLOR_NAME	67	Neutral	zielony	green	Neutral	Neutral	hit	n/a
452.1396	n/a	RESPONSE	n/a	n/a	n/a	n/a	n/a	n/a	n/a	green
452.1696	1.0167	ITI	n/a	n/a	n/a	n/a	n/a	n/a	n/a	n/a
453.1863	0.5167	FIXCROSS	n/a	n/a	n/a	n/a	n/a	n/a	n/a	n/a
453.703	0.6	COLOR_NAME	68	Neutral	czerwony	red	Neutral	Neutral	hit	n/a
454.2807	n/a	RESPONSE	n/a	n/a	n/a	n/a	n/a	n/a	n/a	red
454.3029	1.0167	ITI	n/a	n/a	n/a	n/a	n/a	n/a	n/a	n/a
455.3196	0.5167	FIXCROSS	n/a	n/a	n/a	n/a	n/a	n/a	n/a	n/a
455.8363	0.65	COLOR_NAME	69	Incongruent	żółty	yellow	zielony	green	hit	n/a
456.4539	n/a	RESPONSE	n/a	n/a	n/a	n/a	n/a	n/a	n/a	yellow
456.4863	1.0167	ITI	n/a	n/a	n/a	n/a	n/a	n/a	n/a	n/a
457.503	0.5167	FIXCROSS	n/a	n/a	n/a	n/a	n/a	n/a	n/a	n/a
458.0196	0.75	COLOR_NAME	70	Neutral	zielony	green	Neutral	Neutral	hit	n/a
458.739	n/a	RESPONSE	n/a	n/a	n/a	n/a	n/a	n/a	n/a	green
458.7696	1.0167	ITI	n/a	n/a	n/a	n/a	n/a	n/a	n/a	n/a
459.7863	0.5167	FIXCROSS	n/a	n/a	n/a	n/a	n/a	n/a	n/a	n/a
460.303	0.5167	COLOR_NAME	71	Neutral	czerwony	red	Neutral	Neutral	hit	n/a
460.8002	n/a	RESPONSE	n/a	n/a	n/a	n/a	n/a	n/a	n/a	red
460.8197	1.0167	ITI	n/a	n/a	n/a	n/a	n/a	n/a	n/a	n/a
461.8363	0.5167	FIXCROSS	n/a	n/a	n/a	n/a	n/a	n/a	n/a	n/a
462.353	0.4667	COLOR_NAME	72	Neutral	niebieski	blue	Neutral	Neutral	hit	n/a
462.7975	n/a	RESPONSE	n/a	n/a	n/a	n/a	n/a	n/a	n/a	blue
462.8197	1.0333	ITI	n/a	n/a	n/a	n/a	n/a	n/a	n/a	n/a
465.482	n/a	RESPONSE	n/a	n/a	n/a	n/a	n/a	n/a	n/a	n/a
