onset	duration	trial_type	trial_number	stroop_condition	stim_text(PL)	stim_text(eng)	stim_color(PL)	stim_color(eng)	response_type	response_color
0.0	n/a	RESPONSE	n/a	n/a	n/a	n/a	n/a	n/a	n/a	n/a
0.0608	1.0333	ITI	n/a	n/a	n/a	n/a	n/a	n/a	n/a	n/a
1.0942	0.5167	FIXCROSS	n/a	n/a	n/a	n/a	n/a	n/a	n/a	n/a
1.6108	0.5333	T_INK	1	Neutral	xxxxxxxxx	xxxxxxxxx	czerwony	red	hit	n/a
2.1103	n/a	RESPONSE	n/a	n/a	n/a	n/a	n/a	n/a	n/a	red
2.1442	0.5167	FEEDBACK	n/a	n/a	n/a	n/a	n/a	n/a	n/a	n/a
2.6608	1.0167	ITI	n/a	n/a	n/a	n/a	n/a	n/a	n/a	n/a
3.6775	0.5167	FIXCROSS	n/a	n/a	n/a	n/a	n/a	n/a	n/a	n/a
4.1942	0.7167	T_INK	2	Neutral	xxxxxxx	xxxxxxx	niebieski	blue	hit	n/a
4.8757	n/a	RESPONSE	n/a	n/a	n/a	n/a	n/a	n/a	n/a	blue
4.9109	0.5167	FEEDBACK	n/a	n/a	n/a	n/a	n/a	n/a	n/a	n/a
5.4275	1.0167	ITI	n/a	n/a	n/a	n/a	n/a	n/a	n/a	n/a
6.4442	0.5167	FIXCROSS	n/a	n/a	n/a	n/a	n/a	n/a	n/a	n/a
6.9609	1.5834	T_INK	3	Incongruent	zielony	green	żółty	yellow	incorrect	n/a
8.5204	n/a	RESPONSE	n/a	n/a	n/a	n/a	n/a	n/a	n/a	green
8.5442	0.5167	FEEDBACK	n/a	n/a	n/a	n/a	n/a	n/a	n/a	n/a
8.7922	n/a	RESPONSE	n/a	n/a	n/a	n/a	n/a	n/a	n/a	yellow
9.0609	1.0167	ITI	n/a	n/a	n/a	n/a	n/a	n/a	n/a	n/a
10.0776	0.5167	FIXCROSS	n/a	n/a	n/a	n/a	n/a	n/a	n/a	n/a
10.5942	0.7167	T_INK	4	Neutral	xxxxxxxxx	xxxxxxxxx	zielony	green	hit	n/a
11.2859	n/a	RESPONSE	n/a	n/a	n/a	n/a	n/a	n/a	n/a	green
11.3109	0.5167	FEEDBACK	n/a	n/a	n/a	n/a	n/a	n/a	n/a	n/a
11.8276	1.0167	ITI	n/a	n/a	n/a	n/a	n/a	n/a	n/a	n/a
12.8443	0.5166	FIXCROSS	n/a	n/a	n/a	n/a	n/a	n/a	n/a	n/a
13.3609	1.5667	T_INK	5	Incongruent	czerwony	red	zielony	green	hit	n/a
14.8987	n/a	RESPONSE	n/a	n/a	n/a	n/a	n/a	n/a	n/a	green
14.9276	0.5167	FEEDBACK	n/a	n/a	n/a	n/a	n/a	n/a	n/a	n/a
15.4443	1.0167	ITI	n/a	n/a	n/a	n/a	n/a	n/a	n/a	n/a
16.4609	0.5167	FIXCROSS	n/a	n/a	n/a	n/a	n/a	n/a	n/a	n/a
16.9776	0.9333	T_INK	6	Incongruent	zielony	green	niebieski	blue	hit	n/a
17.8881	n/a	RESPONSE	n/a	n/a	n/a	n/a	n/a	n/a	n/a	blue
17.911	0.5167	FEEDBACK	n/a	n/a	n/a	n/a	n/a	n/a	n/a	n/a
18.4276	1.0167	ITI	n/a	n/a	n/a	n/a	n/a	n/a	n/a	n/a
19.4443	0.5167	FIXCROSS	n/a	n/a	n/a	n/a	n/a	n/a	n/a	n/a
19.961	0.5833	T_INK	7	Neutral	xxxxx	xxxxx	zielony	green	hit	n/a
20.5097	n/a	RESPONSE	n/a	n/a	n/a	n/a	n/a	n/a	n/a	green
20.5443	0.5167	FEEDBACK	n/a	n/a	n/a	n/a	n/a	n/a	n/a	n/a
21.061	1.0167	ITI	n/a	n/a	n/a	n/a	n/a	n/a	n/a	n/a
22.0777	0.5167	FIXCROSS	n/a	n/a	n/a	n/a	n/a	n/a	n/a	n/a
22.5943	0.9667	T_INK	8	Neutral	xxxxx	xxxxx	czerwony	red	hit	n/a
23.531	n/a	RESPONSE	n/a	n/a	n/a	n/a	n/a	n/a	n/a	red
23.561	0.5167	FEEDBACK	n/a	n/a	n/a	n/a	n/a	n/a	n/a	n/a
24.0777	1.0167	ITI	n/a	n/a	n/a	n/a	n/a	n/a	n/a	n/a
25.0944	0.5167	FIXCROSS	n/a	n/a	n/a	n/a	n/a	n/a	n/a	n/a
25.611	0.75	T_INK	9	Neutral	xxxxxxx	xxxxxxx	czerwony	red	hit	n/a
26.3285	n/a	RESPONSE	n/a	n/a	n/a	n/a	n/a	n/a	n/a	red
26.361	0.5167	FEEDBACK	n/a	n/a	n/a	n/a	n/a	n/a	n/a	n/a
26.8777	1.0167	ITI	n/a	n/a	n/a	n/a	n/a	n/a	n/a	n/a
27.8944	0.5167	FIXCROSS	n/a	n/a	n/a	n/a	n/a	n/a	n/a	n/a
28.411	0.8167	T_INK	10	Incongruent	niebieski	blue	czerwony	red	hit	n/a
29.206	n/a	RESPONSE	n/a	n/a	n/a	n/a	n/a	n/a	n/a	red
29.2277	0.5167	FEEDBACK	n/a	n/a	n/a	n/a	n/a	n/a	n/a	n/a
29.7444	1.0167	ITI	n/a	n/a	n/a	n/a	n/a	n/a	n/a	n/a
30.7611	0.5167	FIXCROSS	n/a	n/a	n/a	n/a	n/a	n/a	n/a	n/a
31.2777	0.8167	T_INK	11	Incongruent	niebieski	blue	żółty	yellow	hit	n/a
32.0674	n/a	RESPONSE	n/a	n/a	n/a	n/a	n/a	n/a	n/a	yellow
32.0944	0.5167	FEEDBACK	n/a	n/a	n/a	n/a	n/a	n/a	n/a	n/a
32.6111	1.0167	ITI	n/a	n/a	n/a	n/a	n/a	n/a	n/a	n/a
33.6278	0.5167	FIXCROSS	n/a	n/a	n/a	n/a	n/a	n/a	n/a	n/a
34.1444	0.5333	T_INK	12	Incongruent	żółty	yellow	niebieski	blue	hit	n/a
34.6571	n/a	RESPONSE	n/a	n/a	n/a	n/a	n/a	n/a	n/a	blue
34.6778	0.5167	FEEDBACK	n/a	n/a	n/a	n/a	n/a	n/a	n/a	n/a
35.1944	1.0333	ITI	n/a	n/a	n/a	n/a	n/a	n/a	n/a	n/a
75.2615	n/a	RESPONSE	n/a	n/a	n/a	n/a	n/a	n/a	n/a	n/a
75.3281	1.0167	ITI	n/a	n/a	n/a	n/a	n/a	n/a	n/a	n/a
76.3447	0.5167	FIXCROSS	n/a	n/a	n/a	n/a	n/a	n/a	n/a	n/a
76.8614	0.5833	INK	1	Neutral	xxxxxxxxx	xxxxxxxxx	zielony	green	hit	n/a
77.4195	n/a	RESPONSE	n/a	n/a	n/a	n/a	n/a	n/a	n/a	green
77.4448	1.0166	ITI	n/a	n/a	n/a	n/a	n/a	n/a	n/a	n/a
78.4614	0.5167	FIXCROSS	n/a	n/a	n/a	n/a	n/a	n/a	n/a	n/a
78.9781	0.5333	INK	2	Neutral	xxxxxxxxx	xxxxxxxxx	czerwony	red	hit	n/a
79.4817	n/a	RESPONSE	n/a	n/a	n/a	n/a	n/a	n/a	n/a	red
79.5114	1.0167	ITI	n/a	n/a	n/a	n/a	n/a	n/a	n/a	n/a
80.5281	0.5167	FIXCROSS	n/a	n/a	n/a	n/a	n/a	n/a	n/a	n/a
81.0448	0.5167	INK	3	Neutral	xxxxxxxx	xxxxxxxx	żółty	yellow	hit	n/a
81.5439	n/a	RESPONSE	n/a	n/a	n/a	n/a	n/a	n/a	n/a	yellow
81.5615	1.0167	ITI	n/a	n/a	n/a	n/a	n/a	n/a	n/a	n/a
82.5781	0.5167	FIXCROSS	n/a	n/a	n/a	n/a	n/a	n/a	n/a	n/a
83.0948	0.6167	INK	4	Incongruent	czerwony	red	niebieski	blue	hit	n/a
83.6861	n/a	RESPONSE	n/a	n/a	n/a	n/a	n/a	n/a	n/a	blue
83.7115	1.0167	ITI	n/a	n/a	n/a	n/a	n/a	n/a	n/a	n/a
84.7282	0.5167	FIXCROSS	n/a	n/a	n/a	n/a	n/a	n/a	n/a	n/a
85.2448	0.5167	INK	5	Incongruent	czerwony	red	zielony	green	hit	n/a
85.7323	n/a	RESPONSE	n/a	n/a	n/a	n/a	n/a	n/a	n/a	green
85.7615	1.0167	ITI	n/a	n/a	n/a	n/a	n/a	n/a	n/a	n/a
86.7782	0.5167	FIXCROSS	n/a	n/a	n/a	n/a	n/a	n/a	n/a	n/a
87.2948	0.8167	INK	6	Incongruent	niebieski	blue	czerwony	red	incorrect	n/a
88.0822	n/a	RESPONSE	n/a	n/a	n/a	n/a	n/a	n/a	n/a	blue
88.1115	1.0167	ITI	n/a	n/a	n/a	n/a	n/a	n/a	n/a	n/a
89.1282	0.5167	FIXCROSS	n/a	n/a	n/a	n/a	n/a	n/a	n/a	n/a
89.6449	0.65	INK	7	Neutral	xxxxx	xxxxx	niebieski	blue	hit	n/a
90.2723	n/a	RESPONSE	n/a	n/a	n/a	n/a	n/a	n/a	n/a	blue
90.2949	1.0167	ITI	n/a	n/a	n/a	n/a	n/a	n/a	n/a	n/a
91.3115	0.5167	FIXCROSS	n/a	n/a	n/a	n/a	n/a	n/a	n/a	n/a
91.8282	0.8167	INK	8	Incongruent	zielony	green	niebieski	blue	hit	n/a
92.6223	n/a	RESPONSE	n/a	n/a	n/a	n/a	n/a	n/a	n/a	blue
92.6449	1.0167	ITI	n/a	n/a	n/a	n/a	n/a	n/a	n/a	n/a
93.6616	0.5167	FIXCROSS	n/a	n/a	n/a	n/a	n/a	n/a	n/a	n/a
94.1782	0.55	INK	9	Incongruent	żółty	yellow	niebieski	blue	hit	n/a
94.7005	n/a	RESPONSE	n/a	n/a	n/a	n/a	n/a	n/a	n/a	blue
94.7282	1.0167	ITI	n/a	n/a	n/a	n/a	n/a	n/a	n/a	n/a
95.7449	0.5167	FIXCROSS	n/a	n/a	n/a	n/a	n/a	n/a	n/a	n/a
96.2616	0.7833	INK	10	Neutral	xxxxxxxxx	xxxxxxxxx	żółty	yellow	hit	n/a
97.0185	n/a	RESPONSE	n/a	n/a	n/a	n/a	n/a	n/a	n/a	yellow
97.0449	1.0167	ITI	n/a	n/a	n/a	n/a	n/a	n/a	n/a	n/a
98.0616	0.5167	FIXCROSS	n/a	n/a	n/a	n/a	n/a	n/a	n/a	n/a
98.5783	0.4333	INK	11	Neutral	xxxxxxxxx	xxxxxxxxx	żółty	yellow	hit	n/a
98.9847	n/a	RESPONSE	n/a	n/a	n/a	n/a	n/a	n/a	n/a	yellow
99.0116	1.0167	ITI	n/a	n/a	n/a	n/a	n/a	n/a	n/a	n/a
100.0283	0.5167	FIXCROSS	n/a	n/a	n/a	n/a	n/a	n/a	n/a	n/a
100.5449	0.5667	INK	12	Incongruent	żółty	yellow	zielony	green	hit	n/a
101.0788	n/a	RESPONSE	n/a	n/a	n/a	n/a	n/a	n/a	n/a	green
101.1116	1.0167	ITI	n/a	n/a	n/a	n/a	n/a	n/a	n/a	n/a
102.1283	0.5167	FIXCROSS	n/a	n/a	n/a	n/a	n/a	n/a	n/a	n/a
102.645	0.4333	INK	13	Incongruent	czerwony	red	zielony	green	hit	n/a
103.0452	n/a	RESPONSE	n/a	n/a	n/a	n/a	n/a	n/a	n/a	green
103.0783	1.0167	ITI	n/a	n/a	n/a	n/a	n/a	n/a	n/a	n/a
104.095	0.5167	FIXCROSS	n/a	n/a	n/a	n/a	n/a	n/a	n/a	n/a
104.6116	0.4	INK	14	Incongruent	niebieski	blue	czerwony	red	hit	n/a
104.9796	n/a	RESPONSE	n/a	n/a	n/a	n/a	n/a	n/a	n/a	red
105.0116	1.0167	ITI	n/a	n/a	n/a	n/a	n/a	n/a	n/a	n/a
106.0283	0.5167	FIXCROSS	n/a	n/a	n/a	n/a	n/a	n/a	n/a	n/a
106.545	0.45	INK	15	Neutral	xxxxxxxxx	xxxxxxxxx	czerwony	red	hit	n/a
106.9777	n/a	RESPONSE	n/a	n/a	n/a	n/a	n/a	n/a	n/a	red
106.995	1.0167	ITI	n/a	n/a	n/a	n/a	n/a	n/a	n/a	n/a
108.0117	0.5167	FIXCROSS	n/a	n/a	n/a	n/a	n/a	n/a	n/a	n/a
108.5283	0.5333	INK	16	Incongruent	zielony	green	niebieski	blue	hit	n/a
109.04	n/a	RESPONSE	n/a	n/a	n/a	n/a	n/a	n/a	n/a	blue
109.0617	1.0167	ITI	n/a	n/a	n/a	n/a	n/a	n/a	n/a	n/a
110.0783	0.5167	FIXCROSS	n/a	n/a	n/a	n/a	n/a	n/a	n/a	n/a
110.595	0.6333	INK	17	Incongruent	niebieski	blue	zielony	green	hit	n/a
111.1982	n/a	RESPONSE	n/a	n/a	n/a	n/a	n/a	n/a	n/a	green
111.2284	1.0167	ITI	n/a	n/a	n/a	n/a	n/a	n/a	n/a	n/a
112.245	0.5167	FIXCROSS	n/a	n/a	n/a	n/a	n/a	n/a	n/a	n/a
112.7617	0.8	INK	18	Incongruent	żółty	yellow	niebieski	blue	hit	n/a
113.5322	n/a	RESPONSE	n/a	n/a	n/a	n/a	n/a	n/a	n/a	blue
113.5617	1.0167	ITI	n/a	n/a	n/a	n/a	n/a	n/a	n/a	n/a
114.5784	0.5167	FIXCROSS	n/a	n/a	n/a	n/a	n/a	n/a	n/a	n/a
115.0951	0.4333	INK	19	Neutral	xxxxx	xxxxx	niebieski	blue	hit	n/a
115.4985	n/a	RESPONSE	n/a	n/a	n/a	n/a	n/a	n/a	n/a	blue
115.5284	1.0167	ITI	n/a	n/a	n/a	n/a	n/a	n/a	n/a	n/a
116.5451	0.5167	FIXCROSS	n/a	n/a	n/a	n/a	n/a	n/a	n/a	n/a
117.0617	0.7667	INK	20	Neutral	xxxxxxxxx	xxxxxxxxx	żółty	yellow	hit	n/a
117.8005	n/a	RESPONSE	n/a	n/a	n/a	n/a	n/a	n/a	n/a	yellow
117.8284	1.0167	ITI	n/a	n/a	n/a	n/a	n/a	n/a	n/a	n/a
118.8451	0.5167	FIXCROSS	n/a	n/a	n/a	n/a	n/a	n/a	n/a	n/a
119.3618	0.6833	INK	21	Neutral	xxxxxxxx	xxxxxxxx	zielony	green	hit	n/a
120.0226	n/a	RESPONSE	n/a	n/a	n/a	n/a	n/a	n/a	n/a	green
120.0451	1.0167	ITI	n/a	n/a	n/a	n/a	n/a	n/a	n/a	n/a
121.0618	0.5167	FIXCROSS	n/a	n/a	n/a	n/a	n/a	n/a	n/a	n/a
121.5784	0.6	INK	22	Neutral	xxxxxxxx	xxxxxxxx	niebieski	blue	hit	n/a
122.1488	n/a	RESPONSE	n/a	n/a	n/a	n/a	n/a	n/a	n/a	blue
122.1784	1.0167	ITI	n/a	n/a	n/a	n/a	n/a	n/a	n/a	n/a
123.1951	0.5167	FIXCROSS	n/a	n/a	n/a	n/a	n/a	n/a	n/a	n/a
123.7118	0.6833	INK	23	Neutral	xxxxxxxx	xxxxxxxx	zielony	green	hit	n/a
124.3709	n/a	RESPONSE	n/a	n/a	n/a	n/a	n/a	n/a	n/a	green
124.3951	1.0167	ITI	n/a	n/a	n/a	n/a	n/a	n/a	n/a	n/a
125.4118	0.5167	FIXCROSS	n/a	n/a	n/a	n/a	n/a	n/a	n/a	n/a
125.9285	0.4	INK	24	Neutral	xxxxx	xxxxx	zielony	green	hit	n/a
126.3055	n/a	RESPONSE	n/a	n/a	n/a	n/a	n/a	n/a	n/a	green
126.3285	1.0167	ITI	n/a	n/a	n/a	n/a	n/a	n/a	n/a	n/a
127.3452	0.5167	FIXCROSS	n/a	n/a	n/a	n/a	n/a	n/a	n/a	n/a
127.8618	0.4167	INK	25	Neutral	xxxxxxx	xxxxxxx	czerwony	red	hit	n/a
128.2561	n/a	RESPONSE	n/a	n/a	n/a	n/a	n/a	n/a	n/a	red
128.2785	1.0167	ITI	n/a	n/a	n/a	n/a	n/a	n/a	n/a	n/a
129.2952	0.5167	FIXCROSS	n/a	n/a	n/a	n/a	n/a	n/a	n/a	n/a
129.8118	0.4333	INK	26	Neutral	xxxxxxx	xxxxxxx	czerwony	red	hit	n/a
130.2227	n/a	RESPONSE	n/a	n/a	n/a	n/a	n/a	n/a	n/a	red
130.2452	1.0167	ITI	n/a	n/a	n/a	n/a	n/a	n/a	n/a	n/a
131.2618	0.5167	FIXCROSS	n/a	n/a	n/a	n/a	n/a	n/a	n/a	n/a
131.7785	0.5167	INK	27	Incongruent	żółty	yellow	czerwony	red	hit	n/a
132.2695	n/a	RESPONSE	n/a	n/a	n/a	n/a	n/a	n/a	n/a	red
132.2952	1.0167	ITI	n/a	n/a	n/a	n/a	n/a	n/a	n/a	n/a
133.3119	0.5167	FIXCROSS	n/a	n/a	n/a	n/a	n/a	n/a	n/a	n/a
133.8285	0.6167	INK	28	Neutral	xxxxxxx	xxxxxxx	niebieski	blue	hit	n/a
134.4279	n/a	RESPONSE	n/a	n/a	n/a	n/a	n/a	n/a	n/a	blue
134.4452	1.0167	ITI	n/a	n/a	n/a	n/a	n/a	n/a	n/a	n/a
135.4619	0.5167	FIXCROSS	n/a	n/a	n/a	n/a	n/a	n/a	n/a	n/a
135.9785	0.4667	INK	29	Neutral	xxxxxxx	xxxxxxx	żółty	yellow	hit	n/a
136.4267	n/a	RESPONSE	n/a	n/a	n/a	n/a	n/a	n/a	n/a	yellow
136.4452	1.0167	ITI	n/a	n/a	n/a	n/a	n/a	n/a	n/a	n/a
137.4619	0.5167	FIXCROSS	n/a	n/a	n/a	n/a	n/a	n/a	n/a	n/a
137.9786	0.6667	INK	30	Incongruent	czerwony	red	niebieski	blue	hit	n/a
138.6173	n/a	RESPONSE	n/a	n/a	n/a	n/a	n/a	n/a	n/a	blue
138.6452	1.0167	ITI	n/a	n/a	n/a	n/a	n/a	n/a	n/a	n/a
139.6619	0.5167	FIXCROSS	n/a	n/a	n/a	n/a	n/a	n/a	n/a	n/a
140.1786	0.3833	INK	31	Neutral	xxxxxxx	xxxxxxx	niebieski	blue	hit	n/a
140.536	n/a	RESPONSE	n/a	n/a	n/a	n/a	n/a	n/a	n/a	blue
140.5619	1.0167	ITI	n/a	n/a	n/a	n/a	n/a	n/a	n/a	n/a
141.5786	0.5167	FIXCROSS	n/a	n/a	n/a	n/a	n/a	n/a	n/a	n/a
142.0953	0.4	INK	32	Neutral	xxxxxxxx	xxxxxxxx	niebieski	blue	hit	n/a
142.4706	n/a	RESPONSE	n/a	n/a	n/a	n/a	n/a	n/a	n/a	blue
142.4953	1.0167	ITI	n/a	n/a	n/a	n/a	n/a	n/a	n/a	n/a
143.5119	0.5167	FIXCROSS	n/a	n/a	n/a	n/a	n/a	n/a	n/a	n/a
144.0286	0.5167	INK	33	Incongruent	zielony	green	czerwony	red	hit	n/a
144.5169	n/a	RESPONSE	n/a	n/a	n/a	n/a	n/a	n/a	n/a	red
144.5453	1.0167	ITI	n/a	n/a	n/a	n/a	n/a	n/a	n/a	n/a
145.562	0.5167	FIXCROSS	n/a	n/a	n/a	n/a	n/a	n/a	n/a	n/a
146.0786	0.5333	INK	34	Incongruent	niebieski	blue	zielony	green	hit	n/a
146.5793	n/a	RESPONSE	n/a	n/a	n/a	n/a	n/a	n/a	n/a	green
146.612	1.0167	ITI	n/a	n/a	n/a	n/a	n/a	n/a	n/a	n/a
147.6286	0.5167	FIXCROSS	n/a	n/a	n/a	n/a	n/a	n/a	n/a	n/a
148.1453	0.4667	INK	35	Neutral	xxxxxxxx	xxxxxxxx	niebieski	blue	hit	n/a
148.5937	n/a	RESPONSE	n/a	n/a	n/a	n/a	n/a	n/a	n/a	blue
148.612	1.0167	ITI	n/a	n/a	n/a	n/a	n/a	n/a	n/a	n/a
149.6287	0.5167	FIXCROSS	n/a	n/a	n/a	n/a	n/a	n/a	n/a	n/a
150.1453	0.6	INK	36	Incongruent	niebieski	blue	żółty	yellow	hit	n/a
150.7199	n/a	RESPONSE	n/a	n/a	n/a	n/a	n/a	n/a	n/a	yellow
150.7453	1.0167	ITI	n/a	n/a	n/a	n/a	n/a	n/a	n/a	n/a
151.762	0.5167	FIXCROSS	n/a	n/a	n/a	n/a	n/a	n/a	n/a	n/a
152.2787	0.4833	INK	37	Neutral	xxxxx	xxxxx	zielony	green	hit	n/a
152.7342	n/a	RESPONSE	n/a	n/a	n/a	n/a	n/a	n/a	n/a	green
152.762	1.0167	ITI	n/a	n/a	n/a	n/a	n/a	n/a	n/a	n/a
153.7787	0.5167	FIXCROSS	n/a	n/a	n/a	n/a	n/a	n/a	n/a	n/a
154.2954	0.4333	INK	38	Incongruent	żółty	yellow	zielony	green	hit	n/a
154.7006	n/a	RESPONSE	n/a	n/a	n/a	n/a	n/a	n/a	n/a	green
154.7287	1.0167	ITI	n/a	n/a	n/a	n/a	n/a	n/a	n/a	n/a
155.7454	0.5167	FIXCROSS	n/a	n/a	n/a	n/a	n/a	n/a	n/a	n/a
156.262	0.5	INK	39	Incongruent	żółty	yellow	czerwony	red	hit	n/a
156.7309	n/a	RESPONSE	n/a	n/a	n/a	n/a	n/a	n/a	n/a	red
156.762	1.0167	ITI	n/a	n/a	n/a	n/a	n/a	n/a	n/a	n/a
157.7787	0.5167	FIXCROSS	n/a	n/a	n/a	n/a	n/a	n/a	n/a	n/a
158.2954	0.85	INK	40	Incongruent	zielony	green	czerwony	red	hit	n/a
159.113	n/a	RESPONSE	n/a	n/a	n/a	n/a	n/a	n/a	n/a	red
159.1454	1.0167	ITI	n/a	n/a	n/a	n/a	n/a	n/a	n/a	n/a
160.1621	0.5167	FIXCROSS	n/a	n/a	n/a	n/a	n/a	n/a	n/a	n/a
160.6787	0.5	INK	41	Incongruent	zielony	green	niebieski	blue	hit	n/a
161.1594	n/a	RESPONSE	n/a	n/a	n/a	n/a	n/a	n/a	n/a	blue
161.1787	1.0167	ITI	n/a	n/a	n/a	n/a	n/a	n/a	n/a	n/a
162.1954	0.5167	FIXCROSS	n/a	n/a	n/a	n/a	n/a	n/a	n/a	n/a
162.7121	0.4333	INK	42	Incongruent	niebieski	blue	żółty	yellow	hit	n/a
163.1257	n/a	RESPONSE	n/a	n/a	n/a	n/a	n/a	n/a	n/a	yellow
163.1454	1.0167	ITI	n/a	n/a	n/a	n/a	n/a	n/a	n/a	n/a
164.1621	0.5167	FIXCROSS	n/a	n/a	n/a	n/a	n/a	n/a	n/a	n/a
164.6788	0.9167	INK	43	Neutral	xxxxxxx	xxxxxxx	czerwony	red	hit	n/a
165.5717	n/a	RESPONSE	n/a	n/a	n/a	n/a	n/a	n/a	n/a	red
165.5954	1.0167	ITI	n/a	n/a	n/a	n/a	n/a	n/a	n/a	n/a
166.6121	0.5167	FIXCROSS	n/a	n/a	n/a	n/a	n/a	n/a	n/a	n/a
167.1288	0.9667	INK	44	Incongruent	niebieski	blue	żółty	yellow	hit	n/a
168.0657	n/a	RESPONSE	n/a	n/a	n/a	n/a	n/a	n/a	n/a	yellow
168.0955	1.0167	ITI	n/a	n/a	n/a	n/a	n/a	n/a	n/a	n/a
169.1121	0.5167	FIXCROSS	n/a	n/a	n/a	n/a	n/a	n/a	n/a	n/a
169.6288	0.7667	INK	45	Incongruent	żółty	yellow	zielony	green	hit	n/a
170.3679	n/a	RESPONSE	n/a	n/a	n/a	n/a	n/a	n/a	n/a	green
170.3955	1.0167	ITI	n/a	n/a	n/a	n/a	n/a	n/a	n/a	n/a
171.4121	0.5167	FIXCROSS	n/a	n/a	n/a	n/a	n/a	n/a	n/a	n/a
171.9288	0.5833	INK	46	Incongruent	niebieski	blue	czerwony	red	hit	n/a
172.4941	n/a	RESPONSE	n/a	n/a	n/a	n/a	n/a	n/a	n/a	red
172.5122	1.0167	ITI	n/a	n/a	n/a	n/a	n/a	n/a	n/a	n/a
173.5288	0.5167	FIXCROSS	n/a	n/a	n/a	n/a	n/a	n/a	n/a	n/a
174.0455	0.8667	INK	47	Incongruent	zielony	green	żółty	yellow	hit	n/a
174.8922	n/a	RESPONSE	n/a	n/a	n/a	n/a	n/a	n/a	n/a	yellow
174.9122	1.0167	ITI	n/a	n/a	n/a	n/a	n/a	n/a	n/a	n/a
175.9288	0.5167	FIXCROSS	n/a	n/a	n/a	n/a	n/a	n/a	n/a	n/a
176.4455	0.65	INK	48	Neutral	xxxxx	xxxxx	czerwony	red	hit	n/a
177.0663	n/a	RESPONSE	n/a	n/a	n/a	n/a	n/a	n/a	n/a	red
177.0955	1.0167	ITI	n/a	n/a	n/a	n/a	n/a	n/a	n/a	n/a
178.1122	0.5167	FIXCROSS	n/a	n/a	n/a	n/a	n/a	n/a	n/a	n/a
178.6289	0.6	INK	49	Neutral	xxxxxxxx	xxxxxxxx	zielony	green	hit	n/a
179.2085	n/a	RESPONSE	n/a	n/a	n/a	n/a	n/a	n/a	n/a	green
179.2289	1.0167	ITI	n/a	n/a	n/a	n/a	n/a	n/a	n/a	n/a
180.2455	0.5167	FIXCROSS	n/a	n/a	n/a	n/a	n/a	n/a	n/a	n/a
180.7622	0.7667	INK	50	Incongruent	zielony	green	żółty	yellow	hit	n/a
181.5106	n/a	RESPONSE	n/a	n/a	n/a	n/a	n/a	n/a	n/a	yellow
181.5289	1.0167	ITI	n/a	n/a	n/a	n/a	n/a	n/a	n/a	n/a
182.5456	0.5167	FIXCROSS	n/a	n/a	n/a	n/a	n/a	n/a	n/a	n/a
183.0622	0.8333	INK	51	Neutral	xxxxxxxxx	xxxxxxxxx	zielony	green	hit	n/a
183.8767	n/a	RESPONSE	n/a	n/a	n/a	n/a	n/a	n/a	n/a	green
183.8956	1.0167	ITI	n/a	n/a	n/a	n/a	n/a	n/a	n/a	n/a
184.9122	0.5167	FIXCROSS	n/a	n/a	n/a	n/a	n/a	n/a	n/a	n/a
185.4289	0.6667	INK	52	Incongruent	żółty	yellow	czerwony	red	incorrect	n/a
186.0668	n/a	RESPONSE	n/a	n/a	n/a	n/a	n/a	n/a	n/a	blue
186.0956	1.0167	ITI	n/a	n/a	n/a	n/a	n/a	n/a	n/a	n/a
187.1123	0.5167	FIXCROSS	n/a	n/a	n/a	n/a	n/a	n/a	n/a	n/a
187.6289	0.7167	INK	53	Incongruent	czerwony	red	żółty	yellow	hit	n/a
188.3209	n/a	RESPONSE	n/a	n/a	n/a	n/a	n/a	n/a	n/a	yellow
188.3456	1.0167	ITI	n/a	n/a	n/a	n/a	n/a	n/a	n/a	n/a
189.3623	0.5167	FIXCROSS	n/a	n/a	n/a	n/a	n/a	n/a	n/a	n/a
189.879	0.5833	INK	54	Incongruent	czerwony	red	żółty	yellow	hit	n/a
190.4312	n/a	RESPONSE	n/a	n/a	n/a	n/a	n/a	n/a	n/a	yellow
190.4623	1.0167	ITI	n/a	n/a	n/a	n/a	n/a	n/a	n/a	n/a
191.479	0.5167	FIXCROSS	n/a	n/a	n/a	n/a	n/a	n/a	n/a	n/a
191.9956	0.6167	INK	55	Neutral	xxxxx	xxxxx	zielony	green	hit	n/a
192.5893	n/a	RESPONSE	n/a	n/a	n/a	n/a	n/a	n/a	n/a	green
192.6123	1.0167	ITI	n/a	n/a	n/a	n/a	n/a	n/a	n/a	n/a
193.629	0.5167	FIXCROSS	n/a	n/a	n/a	n/a	n/a	n/a	n/a	n/a
194.1456	0.6333	INK	56	Incongruent	czerwony	red	żółty	yellow	hit	n/a
194.7475	n/a	RESPONSE	n/a	n/a	n/a	n/a	n/a	n/a	n/a	yellow
194.779	1.0167	ITI	n/a	n/a	n/a	n/a	n/a	n/a	n/a	n/a
195.7957	0.5167	FIXCROSS	n/a	n/a	n/a	n/a	n/a	n/a	n/a	n/a
196.3123	0.45	INK	57	Neutral	xxxxxxxxx	xxxxxxxxx	czerwony	red	hit	n/a
196.73	n/a	RESPONSE	n/a	n/a	n/a	n/a	n/a	n/a	n/a	red
196.7623	1.0167	ITI	n/a	n/a	n/a	n/a	n/a	n/a	n/a	n/a
197.779	0.5167	FIXCROSS	n/a	n/a	n/a	n/a	n/a	n/a	n/a	n/a
198.2957	0.45	INK	58	Incongruent	czerwony	red	niebieski	blue	hit	n/a
198.7281	n/a	RESPONSE	n/a	n/a	n/a	n/a	n/a	n/a	n/a	blue
198.7457	1.0167	ITI	n/a	n/a	n/a	n/a	n/a	n/a	n/a	n/a
199.7624	0.5167	FIXCROSS	n/a	n/a	n/a	n/a	n/a	n/a	n/a	n/a
200.279	1.3833	INK	59	Incongruent	zielony	green	czerwony	red	hit	n/a
201.6379	n/a	RESPONSE	n/a	n/a	n/a	n/a	n/a	n/a	n/a	red
201.6624	1.0167	ITI	n/a	n/a	n/a	n/a	n/a	n/a	n/a	n/a
202.6791	0.5167	FIXCROSS	n/a	n/a	n/a	n/a	n/a	n/a	n/a	n/a
203.1957	0.6333	INK	60	Neutral	xxxxxxxx	xxxxxxxx	żółty	yellow	hit	n/a
203.7961	n/a	RESPONSE	n/a	n/a	n/a	n/a	n/a	n/a	n/a	yellow
203.8291	1.0167	ITI	n/a	n/a	n/a	n/a	n/a	n/a	n/a	n/a
204.8457	0.5167	FIXCROSS	n/a	n/a	n/a	n/a	n/a	n/a	n/a	n/a
205.3624	0.65	INK	61	Neutral	xxxxx	xxxxx	niebieski	blue	hit	n/a
205.9863	n/a	RESPONSE	n/a	n/a	n/a	n/a	n/a	n/a	n/a	blue
206.0124	1.0167	ITI	n/a	n/a	n/a	n/a	n/a	n/a	n/a	n/a
207.0291	0.5167	FIXCROSS	n/a	n/a	n/a	n/a	n/a	n/a	n/a	n/a
207.5457	0.6667	INK	62	Incongruent	żółty	yellow	niebieski	blue	hit	n/a
208.1926	n/a	RESPONSE	n/a	n/a	n/a	n/a	n/a	n/a	n/a	blue
208.2124	1.0167	ITI	n/a	n/a	n/a	n/a	n/a	n/a	n/a	n/a
209.2291	0.5167	FIXCROSS	n/a	n/a	n/a	n/a	n/a	n/a	n/a	n/a
209.7458	0.5667	INK	63	Neutral	xxxxxxx	xxxxxxx	niebieski	blue	hit	n/a
210.2868	n/a	RESPONSE	n/a	n/a	n/a	n/a	n/a	n/a	n/a	blue
210.3124	1.0167	ITI	n/a	n/a	n/a	n/a	n/a	n/a	n/a	n/a
211.3291	0.5167	FIXCROSS	n/a	n/a	n/a	n/a	n/a	n/a	n/a	n/a
211.8458	1.2333	INK	64	Incongruent	zielony	green	żółty	yellow	hit	n/a
213.053	n/a	RESPONSE	n/a	n/a	n/a	n/a	n/a	n/a	n/a	yellow
213.0791	1.0167	ITI	n/a	n/a	n/a	n/a	n/a	n/a	n/a	n/a
214.0958	0.5167	FIXCROSS	n/a	n/a	n/a	n/a	n/a	n/a	n/a	n/a
214.6125	0.4667	INK	65	Neutral	xxxxxxxx	xxxxxxxx	żółty	yellow	hit	n/a
215.0518	n/a	RESPONSE	n/a	n/a	n/a	n/a	n/a	n/a	n/a	yellow
215.0791	1.0167	ITI	n/a	n/a	n/a	n/a	n/a	n/a	n/a	n/a
216.0958	0.5167	FIXCROSS	n/a	n/a	n/a	n/a	n/a	n/a	n/a	n/a
216.6125	0.4167	INK	66	Neutral	xxxxx	xxxxx	czerwony	red	hit	n/a
217.0027	n/a	RESPONSE	n/a	n/a	n/a	n/a	n/a	n/a	n/a	red
217.0292	1.0167	ITI	n/a	n/a	n/a	n/a	n/a	n/a	n/a	n/a
218.0458	0.5167	FIXCROSS	n/a	n/a	n/a	n/a	n/a	n/a	n/a	n/a
218.5625	0.3667	INK	67	Neutral	xxxxx	xxxxx	czerwony	red	hit	n/a
218.9055	n/a	RESPONSE	n/a	n/a	n/a	n/a	n/a	n/a	n/a	red
218.9292	1.0167	ITI	n/a	n/a	n/a	n/a	n/a	n/a	n/a	n/a
219.9458	0.5167	FIXCROSS	n/a	n/a	n/a	n/a	n/a	n/a	n/a	n/a
220.4625	0.8	INK	68	Neutral	xxxxxxxxx	xxxxxxxxx	zielony	green	hit	n/a
221.2401	n/a	RESPONSE	n/a	n/a	n/a	n/a	n/a	n/a	n/a	green
221.2625	1.0167	ITI	n/a	n/a	n/a	n/a	n/a	n/a	n/a	n/a
222.2792	0.5167	FIXCROSS	n/a	n/a	n/a	n/a	n/a	n/a	n/a	n/a
222.7959	0.45	INK	69	Incongruent	niebieski	blue	zielony	green	hit	n/a
223.223	n/a	RESPONSE	n/a	n/a	n/a	n/a	n/a	n/a	n/a	green
223.2459	1.0167	ITI	n/a	n/a	n/a	n/a	n/a	n/a	n/a	n/a
224.2626	0.5167	FIXCROSS	n/a	n/a	n/a	n/a	n/a	n/a	n/a	n/a
224.7792	0.5667	INK	70	Incongruent	czerwony	red	zielony	green	hit	n/a
225.3177	n/a	RESPONSE	n/a	n/a	n/a	n/a	n/a	n/a	n/a	green
225.3459	1.0167	ITI	n/a	n/a	n/a	n/a	n/a	n/a	n/a	n/a
226.3626	0.5167	FIXCROSS	n/a	n/a	n/a	n/a	n/a	n/a	n/a	n/a
226.8792	0.5333	INK	71	Neutral	xxxxxxx	xxxxxxx	żółty	yellow	hit	n/a
227.3802	n/a	RESPONSE	n/a	n/a	n/a	n/a	n/a	n/a	n/a	yellow
227.4126	1.0167	ITI	n/a	n/a	n/a	n/a	n/a	n/a	n/a	n/a
228.4292	0.5167	FIXCROSS	n/a	n/a	n/a	n/a	n/a	n/a	n/a	n/a
228.9459	0.4333	INK	72	Neutral	xxxxxxx	xxxxxxx	żółty	yellow	hit	n/a
229.3467	n/a	RESPONSE	n/a	n/a	n/a	n/a	n/a	n/a	n/a	yellow
229.3792	1.0833	ITI	n/a	n/a	n/a	n/a	n/a	n/a	n/a	n/a
250.4863	n/a	RESPONSE	n/a	n/a	n/a	n/a	n/a	n/a	n/a	n/a
250.5461	1.0167	ITI	n/a	n/a	n/a	n/a	n/a	n/a	n/a	n/a
251.5628	0.5167	FIXCROSS	n/a	n/a	n/a	n/a	n/a	n/a	n/a	n/a
252.0794	1.1667	T_COLOR_NAME	1	Incongruent	zielony	green	żółty	yellow	hit	n/a
253.2207	n/a	RESPONSE	n/a	n/a	n/a	n/a	n/a	n/a	n/a	green
253.2461	0.5167	FEEDBACK	n/a	n/a	n/a	n/a	n/a	n/a	n/a	n/a
253.7628	1.0167	ITI	n/a	n/a	n/a	n/a	n/a	n/a	n/a	n/a
254.7794	0.5167	FIXCROSS	n/a	n/a	n/a	n/a	n/a	n/a	n/a	n/a
255.2961	1.2	T_COLOR_NAME	2	Neutral	zielony	green	Neutral	Neutral	hit	n/a
256.4669	n/a	RESPONSE	n/a	n/a	n/a	n/a	n/a	n/a	n/a	green
256.4961	0.5167	FEEDBACK	n/a	n/a	n/a	n/a	n/a	n/a	n/a	n/a
257.0128	1.0167	ITI	n/a	n/a	n/a	n/a	n/a	n/a	n/a	n/a
258.0295	0.5167	FIXCROSS	n/a	n/a	n/a	n/a	n/a	n/a	n/a	n/a
258.5461	0.9	T_COLOR_NAME	3	Neutral	żółty	yellow	Neutral	Neutral	hit	n/a
259.4252	n/a	RESPONSE	n/a	n/a	n/a	n/a	n/a	n/a	n/a	yellow
259.4461	0.5167	FEEDBACK	n/a	n/a	n/a	n/a	n/a	n/a	n/a	n/a
259.9628	1.0167	ITI	n/a	n/a	n/a	n/a	n/a	n/a	n/a	n/a
260.9795	0.5167	FIXCROSS	n/a	n/a	n/a	n/a	n/a	n/a	n/a	n/a
261.4962	0.7667	T_COLOR_NAME	4	Incongruent	czerwony	red	zielony	green	hit	n/a
262.2395	n/a	RESPONSE	n/a	n/a	n/a	n/a	n/a	n/a	n/a	red
262.2628	0.5167	FEEDBACK	n/a	n/a	n/a	n/a	n/a	n/a	n/a	n/a
262.7795	1.0167	ITI	n/a	n/a	n/a	n/a	n/a	n/a	n/a	n/a
263.7962	0.5167	FIXCROSS	n/a	n/a	n/a	n/a	n/a	n/a	n/a	n/a
264.3128	0.8333	T_COLOR_NAME	5	Neutral	zielony	green	Neutral	Neutral	hit	n/a
265.118	n/a	RESPONSE	n/a	n/a	n/a	n/a	n/a	n/a	n/a	green
265.1462	0.5167	FEEDBACK	n/a	n/a	n/a	n/a	n/a	n/a	n/a	n/a
265.6629	1.0167	ITI	n/a	n/a	n/a	n/a	n/a	n/a	n/a	n/a
266.6795	0.5167	FIXCROSS	n/a	n/a	n/a	n/a	n/a	n/a	n/a	n/a
267.1962	0.6334	T_COLOR_NAME	6	Neutral	niebieski	blue	Neutral	Neutral	hit	n/a
267.8044	n/a	RESPONSE	n/a	n/a	n/a	n/a	n/a	n/a	n/a	blue
267.8295	0.5167	FEEDBACK	n/a	n/a	n/a	n/a	n/a	n/a	n/a	n/a
268.3462	1.0167	ITI	n/a	n/a	n/a	n/a	n/a	n/a	n/a	n/a
269.3629	0.5167	FIXCROSS	n/a	n/a	n/a	n/a	n/a	n/a	n/a	n/a
269.8796	0.6167	T_COLOR_NAME	7	Incongruent	niebieski	blue	czerwony	red	hit	n/a
270.4746	n/a	RESPONSE	n/a	n/a	n/a	n/a	n/a	n/a	n/a	blue
270.4962	0.5167	FEEDBACK	n/a	n/a	n/a	n/a	n/a	n/a	n/a	n/a
271.0129	1.0167	ITI	n/a	n/a	n/a	n/a	n/a	n/a	n/a	n/a
272.0296	0.5167	FIXCROSS	n/a	n/a	n/a	n/a	n/a	n/a	n/a	n/a
272.5462	1.0667	T_COLOR_NAME	8	Incongruent	zielony	green	niebieski	blue	hit	n/a
273.5923	n/a	RESPONSE	n/a	n/a	n/a	n/a	n/a	n/a	n/a	green
273.6129	0.5167	FEEDBACK	n/a	n/a	n/a	n/a	n/a	n/a	n/a	n/a
274.1296	1.0167	ITI	n/a	n/a	n/a	n/a	n/a	n/a	n/a	n/a
275.1463	0.5167	FIXCROSS	n/a	n/a	n/a	n/a	n/a	n/a	n/a	n/a
275.6629	0.6167	T_COLOR_NAME	9	Neutral	niebieski	blue	Neutral	Neutral	hit	n/a
276.2464	n/a	RESPONSE	n/a	n/a	n/a	n/a	n/a	n/a	n/a	blue
276.2796	0.5167	FEEDBACK	n/a	n/a	n/a	n/a	n/a	n/a	n/a	n/a
276.7963	1.0167	ITI	n/a	n/a	n/a	n/a	n/a	n/a	n/a	n/a
277.8129	0.5167	FIXCROSS	n/a	n/a	n/a	n/a	n/a	n/a	n/a	n/a
278.3296	0.6333	T_COLOR_NAME	10	Incongruent	żółty	yellow	niebieski	blue	hit	n/a
278.9323	n/a	RESPONSE	n/a	n/a	n/a	n/a	n/a	n/a	n/a	yellow
278.963	0.5167	FEEDBACK	n/a	n/a	n/a	n/a	n/a	n/a	n/a	n/a
279.4796	1.0167	ITI	n/a	n/a	n/a	n/a	n/a	n/a	n/a	n/a
280.4963	0.5167	FIXCROSS	n/a	n/a	n/a	n/a	n/a	n/a	n/a	n/a
281.013	0.55	T_COLOR_NAME	11	Neutral	żółty	yellow	Neutral	Neutral	hit	n/a
281.5383	n/a	RESPONSE	n/a	n/a	n/a	n/a	n/a	n/a	n/a	yellow
281.563	0.5167	FEEDBACK	n/a	n/a	n/a	n/a	n/a	n/a	n/a	n/a
282.0796	1.0167	ITI	n/a	n/a	n/a	n/a	n/a	n/a	n/a	n/a
283.0963	0.5167	FIXCROSS	n/a	n/a	n/a	n/a	n/a	n/a	n/a	n/a
283.613	0.6667	T_COLOR_NAME	12	Incongruent	niebieski	blue	żółty	yellow	hit	n/a
284.2563	n/a	RESPONSE	n/a	n/a	n/a	n/a	n/a	n/a	n/a	blue
284.2797	0.5167	FEEDBACK	n/a	n/a	n/a	n/a	n/a	n/a	n/a	n/a
284.7963	1.0333	ITI	n/a	n/a	n/a	n/a	n/a	n/a	n/a	n/a
291.2912	n/a	RESPONSE	n/a	n/a	n/a	n/a	n/a	n/a	n/a	n/a
291.3464	1.0167	ITI	n/a	n/a	n/a	n/a	n/a	n/a	n/a	n/a
292.3631	0.5167	FIXCROSS	n/a	n/a	n/a	n/a	n/a	n/a	n/a	n/a
292.8797	0.9833	COLOR_NAME	1	Neutral	czerwony	red	Neutral	Neutral	incorrect	n/a
293.8332	n/a	RESPONSE	n/a	n/a	n/a	n/a	n/a	n/a	n/a	green
293.8631	1.0167	ITI	n/a	n/a	n/a	n/a	n/a	n/a	n/a	n/a
294.8797	0.5167	FIXCROSS	n/a	n/a	n/a	n/a	n/a	n/a	n/a	n/a
295.3964	0.7	COLOR_NAME	2	Neutral	żółty	yellow	Neutral	Neutral	hit	n/a
296.0715	n/a	RESPONSE	n/a	n/a	n/a	n/a	n/a	n/a	n/a	yellow
296.0964	1.0167	ITI	n/a	n/a	n/a	n/a	n/a	n/a	n/a	n/a
297.1131	0.5167	FIXCROSS	n/a	n/a	n/a	n/a	n/a	n/a	n/a	n/a
297.6298	0.9833	COLOR_NAME	3	Incongruent	żółty	yellow	czerwony	red	hit	n/a
298.5816	n/a	RESPONSE	n/a	n/a	n/a	n/a	n/a	n/a	n/a	yellow
298.6131	1.0167	ITI	n/a	n/a	n/a	n/a	n/a	n/a	n/a	n/a
299.6298	0.5167	FIXCROSS	n/a	n/a	n/a	n/a	n/a	n/a	n/a	n/a
300.1464	0.4333	COLOR_NAME	4	Incongruent	niebieski	blue	czerwony	red	hit	n/a
300.5481	n/a	RESPONSE	n/a	n/a	n/a	n/a	n/a	n/a	n/a	blue
300.5798	1.0167	ITI	n/a	n/a	n/a	n/a	n/a	n/a	n/a	n/a
301.5965	0.5167	FIXCROSS	n/a	n/a	n/a	n/a	n/a	n/a	n/a	n/a
302.1131	0.45	COLOR_NAME	5	Neutral	czerwony	red	Neutral	Neutral	hit	n/a
302.5305	n/a	RESPONSE	n/a	n/a	n/a	n/a	n/a	n/a	n/a	red
302.5631	1.0167	ITI	n/a	n/a	n/a	n/a	n/a	n/a	n/a	n/a
303.5798	0.5167	FIXCROSS	n/a	n/a	n/a	n/a	n/a	n/a	n/a	n/a
304.0965	0.6667	COLOR_NAME	6	Neutral	niebieski	blue	Neutral	Neutral	hit	n/a
304.7368	n/a	RESPONSE	n/a	n/a	n/a	n/a	n/a	n/a	n/a	blue
304.7631	1.0167	ITI	n/a	n/a	n/a	n/a	n/a	n/a	n/a	n/a
305.7798	0.5167	FIXCROSS	n/a	n/a	n/a	n/a	n/a	n/a	n/a	n/a
306.2965	0.7333	COLOR_NAME	7	Incongruent	czerwony	red	niebieski	blue	hit	n/a
307.007	n/a	RESPONSE	n/a	n/a	n/a	n/a	n/a	n/a	n/a	red
307.0298	1.0167	ITI	n/a	n/a	n/a	n/a	n/a	n/a	n/a	n/a
308.0465	0.5167	FIXCROSS	n/a	n/a	n/a	n/a	n/a	n/a	n/a	n/a
308.5632	0.4667	COLOR_NAME	8	Neutral	czerwony	red	Neutral	Neutral	hit	n/a
309.0054	n/a	RESPONSE	n/a	n/a	n/a	n/a	n/a	n/a	n/a	red
309.0298	1.0167	ITI	n/a	n/a	n/a	n/a	n/a	n/a	n/a	n/a
310.0465	0.5167	FIXCROSS	n/a	n/a	n/a	n/a	n/a	n/a	n/a	n/a
310.5632	0.4833	COLOR_NAME	9	Incongruent	niebieski	blue	żółty	yellow	hit	n/a
311.0198	n/a	RESPONSE	n/a	n/a	n/a	n/a	n/a	n/a	n/a	blue
311.0465	1.0167	ITI	n/a	n/a	n/a	n/a	n/a	n/a	n/a	n/a
312.0632	0.5167	FIXCROSS	n/a	n/a	n/a	n/a	n/a	n/a	n/a	n/a
312.5799	0.5833	COLOR_NAME	10	Incongruent	zielony	green	czerwony	red	hit	n/a
313.1301	n/a	RESPONSE	n/a	n/a	n/a	n/a	n/a	n/a	n/a	green
313.1632	1.0167	ITI	n/a	n/a	n/a	n/a	n/a	n/a	n/a	n/a
314.1799	0.5167	FIXCROSS	n/a	n/a	n/a	n/a	n/a	n/a	n/a	n/a
314.6965	0.7167	COLOR_NAME	11	Neutral	żółty	yellow	Neutral	Neutral	hit	n/a
315.3842	n/a	RESPONSE	n/a	n/a	n/a	n/a	n/a	n/a	n/a	yellow
315.4132	1.0167	ITI	n/a	n/a	n/a	n/a	n/a	n/a	n/a	n/a
316.4299	0.5167	FIXCROSS	n/a	n/a	n/a	n/a	n/a	n/a	n/a	n/a
316.9466	0.7167	COLOR_NAME	12	Incongruent	czerwony	red	żółty	yellow	hit	n/a
317.6385	n/a	RESPONSE	n/a	n/a	n/a	n/a	n/a	n/a	n/a	red
317.6632	1.0167	ITI	n/a	n/a	n/a	n/a	n/a	n/a	n/a	n/a
318.6799	0.5167	FIXCROSS	n/a	n/a	n/a	n/a	n/a	n/a	n/a	n/a
319.1966	1.0833	COLOR_NAME	13	Neutral	żółty	yellow	Neutral	Neutral	hit	n/a
320.2605	n/a	RESPONSE	n/a	n/a	n/a	n/a	n/a	n/a	n/a	yellow
320.2799	1.0167	ITI	n/a	n/a	n/a	n/a	n/a	n/a	n/a	n/a
321.2966	0.5167	FIXCROSS	n/a	n/a	n/a	n/a	n/a	n/a	n/a	n/a
321.8133	0.6167	COLOR_NAME	14	Neutral	czerwony	red	Neutral	Neutral	hit	n/a
322.4027	n/a	RESPONSE	n/a	n/a	n/a	n/a	n/a	n/a	n/a	red
322.4299	1.0167	ITI	n/a	n/a	n/a	n/a	n/a	n/a	n/a	n/a
323.4466	0.5167	FIXCROSS	n/a	n/a	n/a	n/a	n/a	n/a	n/a	n/a
323.9633	0.4667	COLOR_NAME	15	Incongruent	czerwony	red	zielony	green	hit	n/a
324.4013	n/a	RESPONSE	n/a	n/a	n/a	n/a	n/a	n/a	n/a	red
324.43	1.0167	ITI	n/a	n/a	n/a	n/a	n/a	n/a	n/a	n/a
325.4466	0.5167	FIXCROSS	n/a	n/a	n/a	n/a	n/a	n/a	n/a	n/a
325.9633	1.2667	COLOR_NAME	16	Neutral	zielony	green	Neutral	Neutral	hit	n/a
327.199	n/a	RESPONSE	n/a	n/a	n/a	n/a	n/a	n/a	n/a	green
327.23	1.0104	ITI	n/a	n/a	n/a	n/a	n/a	n/a	n/a	n/a
328.2404	0.5229	FIXCROSS	n/a	n/a	n/a	n/a	n/a	n/a	n/a	n/a
328.7633	0.7333	COLOR_NAME	17	Neutral	żółty	yellow	Neutral	Neutral	hit	n/a
329.4694	n/a	RESPONSE	n/a	n/a	n/a	n/a	n/a	n/a	n/a	yellow
329.4967	1.0167	ITI	n/a	n/a	n/a	n/a	n/a	n/a	n/a	n/a
330.5133	0.5167	FIXCROSS	n/a	n/a	n/a	n/a	n/a	n/a	n/a	n/a
331.03	0.5	COLOR_NAME	18	Incongruent	czerwony	red	zielony	green	hit	n/a
331.4997	n/a	RESPONSE	n/a	n/a	n/a	n/a	n/a	n/a	n/a	red
331.53	1.0167	ITI	n/a	n/a	n/a	n/a	n/a	n/a	n/a	n/a
332.5467	0.5167	FIXCROSS	n/a	n/a	n/a	n/a	n/a	n/a	n/a	n/a
333.0633	0.95	COLOR_NAME	19	Neutral	zielony	green	Neutral	Neutral	hit	n/a
333.9938	n/a	RESPONSE	n/a	n/a	n/a	n/a	n/a	n/a	n/a	green
334.0134	1.0167	ITI	n/a	n/a	n/a	n/a	n/a	n/a	n/a	n/a
335.03	0.5167	FIXCROSS	n/a	n/a	n/a	n/a	n/a	n/a	n/a	n/a
335.5467	0.75	COLOR_NAME	20	Incongruent	zielony	green	niebieski	blue	hit	n/a
336.264	n/a	RESPONSE	n/a	n/a	n/a	n/a	n/a	n/a	n/a	green
336.2967	1.0167	ITI	n/a	n/a	n/a	n/a	n/a	n/a	n/a	n/a
337.3134	0.5167	FIXCROSS	n/a	n/a	n/a	n/a	n/a	n/a	n/a	n/a
337.8301	0.3333	COLOR_NAME	21	Neutral	niebieski	blue	Neutral	Neutral	hit	n/a
338.1345	n/a	RESPONSE	n/a	n/a	n/a	n/a	n/a	n/a	n/a	blue
338.1634	1.0167	ITI	n/a	n/a	n/a	n/a	n/a	n/a	n/a	n/a
339.1801	0.5167	FIXCROSS	n/a	n/a	n/a	n/a	n/a	n/a	n/a	n/a
339.6967	0.4167	COLOR_NAME	22	Incongruent	niebieski	blue	czerwony	red	hit	n/a
340.085	n/a	RESPONSE	n/a	n/a	n/a	n/a	n/a	n/a	n/a	blue
340.1134	1.0167	ITI	n/a	n/a	n/a	n/a	n/a	n/a	n/a	n/a
341.1301	0.5167	FIXCROSS	n/a	n/a	n/a	n/a	n/a	n/a	n/a	n/a
341.6468	0.5167	COLOR_NAME	23	Neutral	żółty	yellow	Neutral	Neutral	hit	n/a
342.1313	n/a	RESPONSE	n/a	n/a	n/a	n/a	n/a	n/a	n/a	yellow
342.1634	1.0167	ITI	n/a	n/a	n/a	n/a	n/a	n/a	n/a	n/a
343.1801	0.5167	FIXCROSS	n/a	n/a	n/a	n/a	n/a	n/a	n/a	n/a
343.6968	0.3167	COLOR_NAME	24	Neutral	żółty	yellow	Neutral	Neutral	hit	n/a
343.9858	n/a	RESPONSE	n/a	n/a	n/a	n/a	n/a	n/a	n/a	yellow
344.0134	1.0167	ITI	n/a	n/a	n/a	n/a	n/a	n/a	n/a	n/a
345.0301	0.5167	FIXCROSS	n/a	n/a	n/a	n/a	n/a	n/a	n/a	n/a
345.5468	0.65	COLOR_NAME	25	Incongruent	zielony	green	czerwony	red	hit	n/a
346.1762	n/a	RESPONSE	n/a	n/a	n/a	n/a	n/a	n/a	n/a	green
346.1968	1.0167	ITI	n/a	n/a	n/a	n/a	n/a	n/a	n/a	n/a
347.2135	0.5167	FIXCROSS	n/a	n/a	n/a	n/a	n/a	n/a	n/a	n/a
347.7301	0.5667	COLOR_NAME	26	Neutral	niebieski	blue	Neutral	Neutral	hit	n/a
348.2705	n/a	RESPONSE	n/a	n/a	n/a	n/a	n/a	n/a	n/a	blue
348.2968	1.0167	ITI	n/a	n/a	n/a	n/a	n/a	n/a	n/a	n/a
349.3135	0.5167	FIXCROSS	n/a	n/a	n/a	n/a	n/a	n/a	n/a	n/a
349.8301	0.5333	COLOR_NAME	27	Incongruent	żółty	yellow	zielony	green	hit	n/a
350.3329	n/a	RESPONSE	n/a	n/a	n/a	n/a	n/a	n/a	n/a	yellow
350.3635	1.0167	ITI	n/a	n/a	n/a	n/a	n/a	n/a	n/a	n/a
351.3802	0.5167	FIXCROSS	n/a	n/a	n/a	n/a	n/a	n/a	n/a	n/a
351.8968	0.4667	COLOR_NAME	28	Neutral	czerwony	red	Neutral	Neutral	incorrect	n/a
352.3313	n/a	RESPONSE	n/a	n/a	n/a	n/a	n/a	n/a	n/a	green
352.3635	1.0167	ITI	n/a	n/a	n/a	n/a	n/a	n/a	n/a	n/a
353.3802	0.5167	FIXCROSS	n/a	n/a	n/a	n/a	n/a	n/a	n/a	n/a
353.8968	0.6333	COLOR_NAME	29	Neutral	niebieski	blue	Neutral	Neutral	hit	n/a
354.5056	n/a	RESPONSE	n/a	n/a	n/a	n/a	n/a	n/a	n/a	blue
354.5302	1.0167	ITI	n/a	n/a	n/a	n/a	n/a	n/a	n/a	n/a
355.5469	0.5167	FIXCROSS	n/a	n/a	n/a	n/a	n/a	n/a	n/a	n/a
356.0635	0.65	COLOR_NAME	30	Incongruent	żółty	yellow	niebieski	blue	hit	n/a
356.68	n/a	RESPONSE	n/a	n/a	n/a	n/a	n/a	n/a	n/a	yellow
356.7135	1.0167	ITI	n/a	n/a	n/a	n/a	n/a	n/a	n/a	n/a
357.7302	0.5167	FIXCROSS	n/a	n/a	n/a	n/a	n/a	n/a	n/a	n/a
358.2469	0.4667	COLOR_NAME	31	Incongruent	czerwony	red	niebieski	blue	hit	n/a
358.6784	n/a	RESPONSE	n/a	n/a	n/a	n/a	n/a	n/a	n/a	red
358.7135	1.0167	ITI	n/a	n/a	n/a	n/a	n/a	n/a	n/a	n/a
359.7302	0.5167	FIXCROSS	n/a	n/a	n/a	n/a	n/a	n/a	n/a	n/a
360.2469	0.4333	COLOR_NAME	32	Neutral	zielony	green	Neutral	Neutral	hit	n/a
360.661	n/a	RESPONSE	n/a	n/a	n/a	n/a	n/a	n/a	n/a	green
360.6802	1.0167	ITI	n/a	n/a	n/a	n/a	n/a	n/a	n/a	n/a
361.6969	0.5167	FIXCROSS	n/a	n/a	n/a	n/a	n/a	n/a	n/a	n/a
362.2136	0.6333	COLOR_NAME	33	Incongruent	żółty	yellow	niebieski	blue	hit	n/a
362.8192	n/a	RESPONSE	n/a	n/a	n/a	n/a	n/a	n/a	n/a	yellow
362.8469	1.0167	ITI	n/a	n/a	n/a	n/a	n/a	n/a	n/a	n/a
363.8636	0.5167	FIXCROSS	n/a	n/a	n/a	n/a	n/a	n/a	n/a	n/a
364.3802	0.4333	COLOR_NAME	34	Incongruent	żółty	yellow	niebieski	blue	hit	n/a
364.7857	n/a	RESPONSE	n/a	n/a	n/a	n/a	n/a	n/a	n/a	yellow
364.8136	1.0167	ITI	n/a	n/a	n/a	n/a	n/a	n/a	n/a	n/a
365.8303	0.5167	FIXCROSS	n/a	n/a	n/a	n/a	n/a	n/a	n/a	n/a
366.3469	0.5833	COLOR_NAME	35	Incongruent	zielony	green	czerwony	red	incorrect	n/a
366.9122	n/a	RESPONSE	n/a	n/a	n/a	n/a	n/a	n/a	n/a	red
366.9303	1.0167	ITI	n/a	n/a	n/a	n/a	n/a	n/a	n/a	n/a
367.9469	0.5167	FIXCROSS	n/a	n/a	n/a	n/a	n/a	n/a	n/a	n/a
368.4636	1.3167	COLOR_NAME	36	Incongruent	niebieski	blue	zielony	green	hit	n/a
369.7581	n/a	RESPONSE	n/a	n/a	n/a	n/a	n/a	n/a	n/a	blue
369.7803	1.0167	ITI	n/a	n/a	n/a	n/a	n/a	n/a	n/a	n/a
370.797	0.5167	FIXCROSS	n/a	n/a	n/a	n/a	n/a	n/a	n/a	n/a
371.3136	1.2833	COLOR_NAME	37	Neutral	zielony	green	Neutral	Neutral	hit	n/a
372.572	n/a	RESPONSE	n/a	n/a	n/a	n/a	n/a	n/a	n/a	green
372.597	1.0167	ITI	n/a	n/a	n/a	n/a	n/a	n/a	n/a	n/a
373.6137	0.5167	FIXCROSS	n/a	n/a	n/a	n/a	n/a	n/a	n/a	n/a
374.1303	0.5667	COLOR_NAME	38	Incongruent	czerwony	red	zielony	green	hit	n/a
374.6665	n/a	RESPONSE	n/a	n/a	n/a	n/a	n/a	n/a	n/a	red
374.697	1.0167	ITI	n/a	n/a	n/a	n/a	n/a	n/a	n/a	n/a
375.7137	0.5167	FIXCROSS	n/a	n/a	n/a	n/a	n/a	n/a	n/a	n/a
376.2303	0.4667	COLOR_NAME	39	Neutral	zielony	green	Neutral	Neutral	hit	n/a
376.6649	n/a	RESPONSE	n/a	n/a	n/a	n/a	n/a	n/a	n/a	green
376.697	1.0167	ITI	n/a	n/a	n/a	n/a	n/a	n/a	n/a	n/a
377.7137	0.5167	FIXCROSS	n/a	n/a	n/a	n/a	n/a	n/a	n/a	n/a
378.2303	0.5833	COLOR_NAME	40	Neutral	niebieski	blue	Neutral	Neutral	hit	n/a
378.7913	n/a	RESPONSE	n/a	n/a	n/a	n/a	n/a	n/a	n/a	blue
378.8137	1.0167	ITI	n/a	n/a	n/a	n/a	n/a	n/a	n/a	n/a
379.8304	0.5167	FIXCROSS	n/a	n/a	n/a	n/a	n/a	n/a	n/a	n/a
380.347	0.4667	COLOR_NAME	41	Incongruent	niebieski	blue	żółty	yellow	hit	n/a
380.7898	n/a	RESPONSE	n/a	n/a	n/a	n/a	n/a	n/a	n/a	blue
380.8137	1.0167	ITI	n/a	n/a	n/a	n/a	n/a	n/a	n/a	n/a
381.8304	0.5167	FIXCROSS	n/a	n/a	n/a	n/a	n/a	n/a	n/a	n/a
382.347	0.6	COLOR_NAME	42	Neutral	zielony	green	Neutral	Neutral	hit	n/a
382.9161	n/a	RESPONSE	n/a	n/a	n/a	n/a	n/a	n/a	n/a	green
382.947	1.0167	ITI	n/a	n/a	n/a	n/a	n/a	n/a	n/a	n/a
383.9637	0.5167	FIXCROSS	n/a	n/a	n/a	n/a	n/a	n/a	n/a	n/a
384.4804	0.5	COLOR_NAME	43	Neutral	czerwony	red	Neutral	Neutral	hit	n/a
384.9466	n/a	RESPONSE	n/a	n/a	n/a	n/a	n/a	n/a	n/a	red
384.9804	1.0167	ITI	n/a	n/a	n/a	n/a	n/a	n/a	n/a	n/a
385.9971	0.5167	FIXCROSS	n/a	n/a	n/a	n/a	n/a	n/a	n/a	n/a
386.5137	0.5	COLOR_NAME	44	Neutral	niebieski	blue	Neutral	Neutral	hit	n/a
386.9931	n/a	RESPONSE	n/a	n/a	n/a	n/a	n/a	n/a	n/a	blue
387.0137	1.0167	ITI	n/a	n/a	n/a	n/a	n/a	n/a	n/a	n/a
388.0304	0.5167	FIXCROSS	n/a	n/a	n/a	n/a	n/a	n/a	n/a	n/a
388.5471	0.6833	COLOR_NAME	45	Incongruent	zielony	green	żółty	yellow	hit	n/a
389.1994	n/a	RESPONSE	n/a	n/a	n/a	n/a	n/a	n/a	n/a	green
389.2304	1.0167	ITI	n/a	n/a	n/a	n/a	n/a	n/a	n/a	n/a
390.2471	0.5167	FIXCROSS	n/a	n/a	n/a	n/a	n/a	n/a	n/a	n/a
390.7638	0.5167	COLOR_NAME	46	Incongruent	niebieski	blue	zielony	green	hit	n/a
391.2619	n/a	RESPONSE	n/a	n/a	n/a	n/a	n/a	n/a	n/a	blue
391.2805	1.0167	ITI	n/a	n/a	n/a	n/a	n/a	n/a	n/a	n/a
392.2971	0.5167	FIXCROSS	n/a	n/a	n/a	n/a	n/a	n/a	n/a	n/a
392.8138	0.4	COLOR_NAME	47	Incongruent	czerwony	red	żółty	yellow	hit	n/a
393.1805	n/a	RESPONSE	n/a	n/a	n/a	n/a	n/a	n/a	n/a	red
393.2138	1.0167	ITI	n/a	n/a	n/a	n/a	n/a	n/a	n/a	n/a
394.2305	0.5167	FIXCROSS	n/a	n/a	n/a	n/a	n/a	n/a	n/a	n/a
394.7471	0.7167	COLOR_NAME	48	Neutral	zielony	green	Neutral	Neutral	hit	n/a
395.4348	n/a	RESPONSE	n/a	n/a	n/a	n/a	n/a	n/a	n/a	green
395.4638	1.0167	ITI	n/a	n/a	n/a	n/a	n/a	n/a	n/a	n/a
396.4805	0.5167	FIXCROSS	n/a	n/a	n/a	n/a	n/a	n/a	n/a	n/a
396.9972	0.5667	COLOR_NAME	49	Neutral	zielony	green	Neutral	Neutral	hit	n/a
397.5453	n/a	RESPONSE	n/a	n/a	n/a	n/a	n/a	n/a	n/a	green
397.5638	1.0167	ITI	n/a	n/a	n/a	n/a	n/a	n/a	n/a	n/a
398.5805	0.5167	FIXCROSS	n/a	n/a	n/a	n/a	n/a	n/a	n/a	n/a
399.0972	0.6167	COLOR_NAME	50	Incongruent	żółty	yellow	zielony	green	hit	n/a
399.6877	n/a	RESPONSE	n/a	n/a	n/a	n/a	n/a	n/a	n/a	yellow
399.7138	1.0167	ITI	n/a	n/a	n/a	n/a	n/a	n/a	n/a	n/a
400.7305	0.5167	FIXCROSS	n/a	n/a	n/a	n/a	n/a	n/a	n/a	n/a
401.2472	0.5667	COLOR_NAME	51	Neutral	czerwony	red	Neutral	Neutral	incorrect	n/a
401.7821	n/a	RESPONSE	n/a	n/a	n/a	n/a	n/a	n/a	n/a	green
401.8139	1.0167	ITI	n/a	n/a	n/a	n/a	n/a	n/a	n/a	n/a
402.8305	0.5167	FIXCROSS	n/a	n/a	n/a	n/a	n/a	n/a	n/a	n/a
403.3472	0.6167	COLOR_NAME	52	Incongruent	niebieski	blue	zielony	green	hit	n/a
403.9405	n/a	RESPONSE	n/a	n/a	n/a	n/a	n/a	n/a	n/a	blue
403.9639	1.0167	ITI	n/a	n/a	n/a	n/a	n/a	n/a	n/a	n/a
404.1642	n/a	RESPONSE	n/a	n/a	n/a	n/a	n/a	n/a	n/a	blue
404.9805	0.5167	FIXCROSS	n/a	n/a	n/a	n/a	n/a	n/a	n/a	n/a
405.4972	1.2	COLOR_NAME	53	Incongruent	zielony	green	niebieski	blue	hit	n/a
406.6744	n/a	RESPONSE	n/a	n/a	n/a	n/a	n/a	n/a	n/a	green
406.6972	1.0167	ITI	n/a	n/a	n/a	n/a	n/a	n/a	n/a	n/a
407.7139	0.5167	FIXCROSS	n/a	n/a	n/a	n/a	n/a	n/a	n/a	n/a
408.2306	0.9167	COLOR_NAME	54	Incongruent	niebieski	blue	czerwony	red	hit	n/a
409.1205	n/a	RESPONSE	n/a	n/a	n/a	n/a	n/a	n/a	n/a	blue
409.1472	1.0167	ITI	n/a	n/a	n/a	n/a	n/a	n/a	n/a	n/a
410.1639	0.5167	FIXCROSS	n/a	n/a	n/a	n/a	n/a	n/a	n/a	n/a
410.6806	0.6167	COLOR_NAME	55	Incongruent	żółty	yellow	czerwony	red	hit	n/a
411.2789	n/a	RESPONSE	n/a	n/a	n/a	n/a	n/a	n/a	n/a	yellow
411.2973	1.0167	ITI	n/a	n/a	n/a	n/a	n/a	n/a	n/a	n/a
412.3139	0.5167	FIXCROSS	n/a	n/a	n/a	n/a	n/a	n/a	n/a	n/a
412.8306	0.4833	COLOR_NAME	56	Incongruent	żółty	yellow	zielony	green	hit	n/a
413.2934	n/a	RESPONSE	n/a	n/a	n/a	n/a	n/a	n/a	n/a	yellow
413.3139	1.0167	ITI	n/a	n/a	n/a	n/a	n/a	n/a	n/a	n/a
414.3306	0.5167	FIXCROSS	n/a	n/a	n/a	n/a	n/a	n/a	n/a	n/a
414.8473	0.9	COLOR_NAME	57	Incongruent	niebieski	blue	żółty	yellow	hit	n/a
415.7235	n/a	RESPONSE	n/a	n/a	n/a	n/a	n/a	n/a	n/a	blue
415.7473	1.0166	ITI	n/a	n/a	n/a	n/a	n/a	n/a	n/a	n/a
416.7639	0.5167	FIXCROSS	n/a	n/a	n/a	n/a	n/a	n/a	n/a	n/a
417.2806	0.8333	COLOR_NAME	58	Neutral	żółty	yellow	Neutral	Neutral	hit	n/a
418.0898	n/a	RESPONSE	n/a	n/a	n/a	n/a	n/a	n/a	n/a	yellow
418.114	1.0167	ITI	n/a	n/a	n/a	n/a	n/a	n/a	n/a	n/a
419.1307	0.5167	FIXCROSS	n/a	n/a	n/a	n/a	n/a	n/a	n/a	n/a
419.6473	0.8333	COLOR_NAME	59	Neutral	niebieski	blue	Neutral	Neutral	hit	n/a
420.456	n/a	RESPONSE	n/a	n/a	n/a	n/a	n/a	n/a	n/a	blue
420.4807	1.0167	ITI	n/a	n/a	n/a	n/a	n/a	n/a	n/a	n/a
421.4973	0.5167	FIXCROSS	n/a	n/a	n/a	n/a	n/a	n/a	n/a	n/a
422.014	0.4167	COLOR_NAME	60	Incongruent	żółty	yellow	czerwony	red	hit	n/a
422.4065	n/a	RESPONSE	n/a	n/a	n/a	n/a	n/a	n/a	n/a	yellow
422.4307	1.0167	ITI	n/a	n/a	n/a	n/a	n/a	n/a	n/a	n/a
423.4473	0.5167	FIXCROSS	n/a	n/a	n/a	n/a	n/a	n/a	n/a	n/a
423.964	0.5833	COLOR_NAME	61	Neutral	żółty	yellow	Neutral	Neutral	hit	n/a
424.517	n/a	RESPONSE	n/a	n/a	n/a	n/a	n/a	n/a	n/a	yellow
424.5474	1.0167	ITI	n/a	n/a	n/a	n/a	n/a	n/a	n/a	n/a
425.564	0.5167	FIXCROSS	n/a	n/a	n/a	n/a	n/a	n/a	n/a	n/a
426.0807	0.45	COLOR_NAME	62	Neutral	niebieski	blue	Neutral	Neutral	hit	n/a
426.4995	n/a	RESPONSE	n/a	n/a	n/a	n/a	n/a	n/a	n/a	blue
426.5307	1.0167	ITI	n/a	n/a	n/a	n/a	n/a	n/a	n/a	n/a
427.5474	0.5167	FIXCROSS	n/a	n/a	n/a	n/a	n/a	n/a	n/a	n/a
428.064	0.3833	COLOR_NAME	63	Incongruent	czerwony	red	niebieski	blue	hit	n/a
428.4179	n/a	RESPONSE	n/a	n/a	n/a	n/a	n/a	n/a	n/a	red
428.4474	1.0167	ITI	n/a	n/a	n/a	n/a	n/a	n/a	n/a	n/a
429.4641	0.5167	FIXCROSS	n/a	n/a	n/a	n/a	n/a	n/a	n/a	n/a
429.9807	0.6	COLOR_NAME	64	Neutral	żółty	yellow	Neutral	Neutral	hit	n/a
430.5603	n/a	RESPONSE	n/a	n/a	n/a	n/a	n/a	n/a	n/a	yellow
430.5807	1.0167	ITI	n/a	n/a	n/a	n/a	n/a	n/a	n/a	n/a
431.5974	0.5167	FIXCROSS	n/a	n/a	n/a	n/a	n/a	n/a	n/a	n/a
432.1141	0.4333	COLOR_NAME	65	Incongruent	czerwony	red	żółty	yellow	hit	n/a
432.5268	n/a	RESPONSE	n/a	n/a	n/a	n/a	n/a	n/a	n/a	red
432.5474	1.0167	ITI	n/a	n/a	n/a	n/a	n/a	n/a	n/a	n/a
433.5641	0.5167	FIXCROSS	n/a	n/a	n/a	n/a	n/a	n/a	n/a	n/a
434.0808	0.3833	COLOR_NAME	66	Neutral	czerwony	red	Neutral	Neutral	hit	n/a
434.4452	n/a	RESPONSE	n/a	n/a	n/a	n/a	n/a	n/a	n/a	red
434.4641	1.0167	ITI	n/a	n/a	n/a	n/a	n/a	n/a	n/a	n/a
435.4808	0.5167	FIXCROSS	n/a	n/a	n/a	n/a	n/a	n/a	n/a	n/a
435.9975	0.4833	COLOR_NAME	67	Neutral	czerwony	red	Neutral	Neutral	hit	n/a
436.4596	n/a	RESPONSE	n/a	n/a	n/a	n/a	n/a	n/a	n/a	red
436.4808	1.0167	ITI	n/a	n/a	n/a	n/a	n/a	n/a	n/a	n/a
437.4975	0.5167	FIXCROSS	n/a	n/a	n/a	n/a	n/a	n/a	n/a	n/a
438.0141	0.7833	COLOR_NAME	68	Incongruent	zielony	green	żółty	yellow	hit	n/a
438.7778	n/a	RESPONSE	n/a	n/a	n/a	n/a	n/a	n/a	n/a	green
438.7975	1.0167	ITI	n/a	n/a	n/a	n/a	n/a	n/a	n/a	n/a
439.8141	0.5167	FIXCROSS	n/a	n/a	n/a	n/a	n/a	n/a	n/a	n/a
440.3308	0.3667	COLOR_NAME	69	Neutral	niebieski	blue	Neutral	Neutral	hit	n/a
440.6803	n/a	RESPONSE	n/a	n/a	n/a	n/a	n/a	n/a	n/a	blue
440.6975	1.0167	ITI	n/a	n/a	n/a	n/a	n/a	n/a	n/a	n/a
441.7141	0.5167	FIXCROSS	n/a	n/a	n/a	n/a	n/a	n/a	n/a	n/a
442.2308	0.6167	COLOR_NAME	70	Incongruent	zielony	green	żółty	yellow	hit	n/a
442.8226	n/a	RESPONSE	n/a	n/a	n/a	n/a	n/a	n/a	n/a	green
442.8475	1.0167	ITI	n/a	n/a	n/a	n/a	n/a	n/a	n/a	n/a
443.8642	0.5167	FIXCROSS	n/a	n/a	n/a	n/a	n/a	n/a	n/a	n/a
444.3808	0.5333	COLOR_NAME	71	Incongruent	zielony	green	niebieski	blue	hit	n/a
444.885	n/a	RESPONSE	n/a	n/a	n/a	n/a	n/a	n/a	n/a	green
444.9142	1.0167	ITI	n/a	n/a	n/a	n/a	n/a	n/a	n/a	n/a
445.9308	0.5167	FIXCROSS	n/a	n/a	n/a	n/a	n/a	n/a	n/a	n/a
446.4475	0.4	COLOR_NAME	72	Neutral	zielony	green	Neutral	Neutral	hit	n/a
446.8195	n/a	RESPONSE	n/a	n/a	n/a	n/a	n/a	n/a	n/a	green
446.8475	1.0333	ITI	n/a	n/a	n/a	n/a	n/a	n/a	n/a	n/a
451.9675	n/a	RESPONSE	n/a	n/a	n/a	n/a	n/a	n/a	n/a	n/a
