onset	duration	trial_type	trial_number	stroop_condition	stim_text(PL)	stim_text(eng)	stim_color(PL)	stim_color(eng)	response_type	response_color
0.0	n/a	RESPONSE	n/a	n/a	n/a	n/a	n/a	n/a	n/a	n/a
0.0625	1.0333	ITI	n/a	n/a	n/a	n/a	n/a	n/a	n/a	n/a
1.0958	0.5167	FIXCROSS	n/a	n/a	n/a	n/a	n/a	n/a	n/a	n/a
1.6125	1.15	T_INK	1	Incongruent	czerwony	red	żółty	yellow	hit	n/a
2.7354	n/a	RESPONSE	n/a	n/a	n/a	n/a	n/a	n/a	n/a	yellow
2.7625	0.5167	FEEDBACK	n/a	n/a	n/a	n/a	n/a	n/a	n/a	n/a
3.2792	1.0167	ITI	n/a	n/a	n/a	n/a	n/a	n/a	n/a	n/a
4.2958	0.5167	FIXCROSS	n/a	n/a	n/a	n/a	n/a	n/a	n/a	n/a
4.8125	0.65	T_INK	2	Neutral	xxxxxxxxx	xxxxxxxxx	żółty	yellow	hit	n/a
5.4227	n/a	RESPONSE	n/a	n/a	n/a	n/a	n/a	n/a	n/a	yellow
5.4625	0.5166	FEEDBACK	n/a	n/a	n/a	n/a	n/a	n/a	n/a	n/a
5.9791	1.0168	ITI	n/a	n/a	n/a	n/a	n/a	n/a	n/a	n/a
6.9959	0.5167	FIXCROSS	n/a	n/a	n/a	n/a	n/a	n/a	n/a	n/a
7.5126	0.6	T_INK	3	Incongruent	niebieski	blue	żółty	yellow	hit	n/a
8.0781	n/a	RESPONSE	n/a	n/a	n/a	n/a	n/a	n/a	n/a	yellow
8.1126	0.5167	FEEDBACK	n/a	n/a	n/a	n/a	n/a	n/a	n/a	n/a
8.6292	1.0167	ITI	n/a	n/a	n/a	n/a	n/a	n/a	n/a	n/a
9.6459	0.5167	FIXCROSS	n/a	n/a	n/a	n/a	n/a	n/a	n/a	n/a
10.1626	0.9833	T_INK	4	Neutral	xxxxxxx	xxxxxxx	niebieski	blue	hit	n/a
11.1174	n/a	RESPONSE	n/a	n/a	n/a	n/a	n/a	n/a	n/a	blue
11.1459	0.5167	FEEDBACK	n/a	n/a	n/a	n/a	n/a	n/a	n/a	n/a
11.6626	1.0167	ITI	n/a	n/a	n/a	n/a	n/a	n/a	n/a	n/a
12.6793	0.5167	FIXCROSS	n/a	n/a	n/a	n/a	n/a	n/a	n/a	n/a
13.196	0.5667	T_INK	5	Neutral	xxxxxxxx	xxxxxxxx	żółty	yellow	hit	n/a
13.7408	n/a	RESPONSE	n/a	n/a	n/a	n/a	n/a	n/a	n/a	yellow
13.7626	0.5167	FEEDBACK	n/a	n/a	n/a	n/a	n/a	n/a	n/a	n/a
14.2793	1.0167	ITI	n/a	n/a	n/a	n/a	n/a	n/a	n/a	n/a
15.296	0.5167	FIXCROSS	n/a	n/a	n/a	n/a	n/a	n/a	n/a	n/a
15.8127	0.8833	T_INK	6	Neutral	xxxxxxxx	xxxxxxxx	zielony	green	hit	n/a
16.6681	n/a	RESPONSE	n/a	n/a	n/a	n/a	n/a	n/a	n/a	green
16.696	0.5167	FEEDBACK	n/a	n/a	n/a	n/a	n/a	n/a	n/a	n/a
17.2127	1.0167	ITI	n/a	n/a	n/a	n/a	n/a	n/a	n/a	n/a
18.2294	0.5167	FIXCROSS	n/a	n/a	n/a	n/a	n/a	n/a	n/a	n/a
18.746	1.0667	T_INK	7	Incongruent	niebieski	blue	zielony	green	hit	n/a
19.7874	n/a	RESPONSE	n/a	n/a	n/a	n/a	n/a	n/a	n/a	green
19.8127	0.5167	FEEDBACK	n/a	n/a	n/a	n/a	n/a	n/a	n/a	n/a
20.3294	1.0167	ITI	n/a	n/a	n/a	n/a	n/a	n/a	n/a	n/a
21.3461	0.5167	FIXCROSS	n/a	n/a	n/a	n/a	n/a	n/a	n/a	n/a
21.8627	0.9833	T_INK	8	Neutral	xxxxx	xxxxx	niebieski	blue	hit	n/a
22.8107	n/a	RESPONSE	n/a	n/a	n/a	n/a	n/a	n/a	n/a	blue
22.8461	0.5167	FEEDBACK	n/a	n/a	n/a	n/a	n/a	n/a	n/a	n/a
23.3628	1.0167	ITI	n/a	n/a	n/a	n/a	n/a	n/a	n/a	n/a
24.3794	0.5167	FIXCROSS	n/a	n/a	n/a	n/a	n/a	n/a	n/a	n/a
24.8961	0.95	T_INK	9	Incongruent	żółty	yellow	niebieski	blue	hit	n/a
25.818	n/a	RESPONSE	n/a	n/a	n/a	n/a	n/a	n/a	n/a	blue
25.8461	0.5167	FEEDBACK	n/a	n/a	n/a	n/a	n/a	n/a	n/a	n/a
26.3628	1.0167	ITI	n/a	n/a	n/a	n/a	n/a	n/a	n/a	n/a
27.3795	0.5167	FIXCROSS	n/a	n/a	n/a	n/a	n/a	n/a	n/a	n/a
27.8962	0.6	T_INK	10	Neutral	xxxxx	xxxxx	czerwony	red	hit	n/a
28.4734	n/a	RESPONSE	n/a	n/a	n/a	n/a	n/a	n/a	n/a	red
28.4962	0.5167	FEEDBACK	n/a	n/a	n/a	n/a	n/a	n/a	n/a	n/a
29.0128	1.0167	ITI	n/a	n/a	n/a	n/a	n/a	n/a	n/a	n/a
30.0295	0.5167	FIXCROSS	n/a	n/a	n/a	n/a	n/a	n/a	n/a	n/a
30.5462	0.7	T_INK	11	Incongruent	żółty	yellow	zielony	green	hit	n/a
31.2248	n/a	RESPONSE	n/a	n/a	n/a	n/a	n/a	n/a	n/a	green
31.2462	0.5167	FEEDBACK	n/a	n/a	n/a	n/a	n/a	n/a	n/a	n/a
31.7629	1.0167	ITI	n/a	n/a	n/a	n/a	n/a	n/a	n/a	n/a
32.7796	0.5167	FIXCROSS	n/a	n/a	n/a	n/a	n/a	n/a	n/a	n/a
33.2962	1.0667	T_INK	12	Neutral	xxxxxxx	xxxxxxx	czerwony	red	hit	n/a
34.3281	n/a	RESPONSE	n/a	n/a	n/a	n/a	n/a	n/a	n/a	red
34.3629	0.5167	FEEDBACK	n/a	n/a	n/a	n/a	n/a	n/a	n/a	n/a
34.8796	1.0333	ITI	n/a	n/a	n/a	n/a	n/a	n/a	n/a	n/a
51.0442	n/a	RESPONSE	n/a	n/a	n/a	n/a	n/a	n/a	n/a	n/a
51.1131	1.0167	ITI	n/a	n/a	n/a	n/a	n/a	n/a	n/a	n/a
52.1298	0.5167	FIXCROSS	n/a	n/a	n/a	n/a	n/a	n/a	n/a	n/a
52.6465	1.0333	INK	1	Neutral	xxxxxxx	xxxxxxx	niebieski	blue	hit	n/a
53.6516	n/a	RESPONSE	n/a	n/a	n/a	n/a	n/a	n/a	n/a	blue
53.6798	1.0167	ITI	n/a	n/a	n/a	n/a	n/a	n/a	n/a	n/a
54.6965	0.5167	FIXCROSS	n/a	n/a	n/a	n/a	n/a	n/a	n/a	n/a
55.2132	0.8833	INK	2	Neutral	xxxxxxx	xxxxxxx	czerwony	red	hit	n/a
56.067	n/a	RESPONSE	n/a	n/a	n/a	n/a	n/a	n/a	n/a	red
56.0965	1.0167	ITI	n/a	n/a	n/a	n/a	n/a	n/a	n/a	n/a
57.1132	0.5167	FIXCROSS	n/a	n/a	n/a	n/a	n/a	n/a	n/a	n/a
57.6299	0.6667	INK	3	Incongruent	niebieski	blue	czerwony	red	hit	n/a
58.2745	n/a	RESPONSE	n/a	n/a	n/a	n/a	n/a	n/a	n/a	red
58.2966	1.0167	ITI	n/a	n/a	n/a	n/a	n/a	n/a	n/a	n/a
59.3132	0.5167	FIXCROSS	n/a	n/a	n/a	n/a	n/a	n/a	n/a	n/a
59.8299	0.7667	INK	4	Incongruent	zielony	green	żółty	yellow	incorrect	n/a
60.578	n/a	RESPONSE	n/a	n/a	n/a	n/a	n/a	n/a	n/a	green
60.5966	1.0167	ITI	n/a	n/a	n/a	n/a	n/a	n/a	n/a	n/a
61.6133	0.5167	FIXCROSS	n/a	n/a	n/a	n/a	n/a	n/a	n/a	n/a
62.13	1.1667	INK	5	Neutral	xxxxx	xxxxx	czerwony	red	hit	n/a
63.2654	n/a	RESPONSE	n/a	n/a	n/a	n/a	n/a	n/a	n/a	red
63.2966	1.0167	ITI	n/a	n/a	n/a	n/a	n/a	n/a	n/a	n/a
64.3133	0.5167	FIXCROSS	n/a	n/a	n/a	n/a	n/a	n/a	n/a	n/a
64.83	0.6333	INK	6	Neutral	xxxxxxx	xxxxxxx	żółty	yellow	incorrect	n/a
65.4409	n/a	RESPONSE	n/a	n/a	n/a	n/a	n/a	n/a	n/a	green
65.4633	1.0167	ITI	n/a	n/a	n/a	n/a	n/a	n/a	n/a	n/a
66.48	0.5167	FIXCROSS	n/a	n/a	n/a	n/a	n/a	n/a	n/a	n/a
66.9967	0.6	INK	7	Neutral	xxxxxxxxx	xxxxxxxxx	żółty	yellow	hit	n/a
67.5684	n/a	RESPONSE	n/a	n/a	n/a	n/a	n/a	n/a	n/a	yellow
67.5967	1.0166	ITI	n/a	n/a	n/a	n/a	n/a	n/a	n/a	n/a
68.6133	0.5167	FIXCROSS	n/a	n/a	n/a	n/a	n/a	n/a	n/a	n/a
69.13	0.8333	INK	8	Incongruent	czerwony	red	zielony	green	hit	n/a
69.9358	n/a	RESPONSE	n/a	n/a	n/a	n/a	n/a	n/a	n/a	green
69.9634	1.0167	ITI	n/a	n/a	n/a	n/a	n/a	n/a	n/a	n/a
70.9801	0.5167	FIXCROSS	n/a	n/a	n/a	n/a	n/a	n/a	n/a	n/a
71.4967	0.7833	INK	9	Incongruent	czerwony	red	żółty	yellow	hit	n/a
72.2553	n/a	RESPONSE	n/a	n/a	n/a	n/a	n/a	n/a	n/a	yellow
72.2801	1.0167	ITI	n/a	n/a	n/a	n/a	n/a	n/a	n/a	n/a
73.2968	0.5167	FIXCROSS	n/a	n/a	n/a	n/a	n/a	n/a	n/a	n/a
73.8134	0.5333	INK	10	Incongruent	zielony	green	czerwony	red	hit	n/a
74.3188	n/a	RESPONSE	n/a	n/a	n/a	n/a	n/a	n/a	n/a	red
74.3468	1.0167	ITI	n/a	n/a	n/a	n/a	n/a	n/a	n/a	n/a
75.3635	0.5167	FIXCROSS	n/a	n/a	n/a	n/a	n/a	n/a	n/a	n/a
75.8801	1.0167	INK	11	Neutral	xxxxxxxxx	xxxxxxxxx	zielony	green	hit	n/a
76.8622	n/a	RESPONSE	n/a	n/a	n/a	n/a	n/a	n/a	n/a	green
76.8968	1.0167	ITI	n/a	n/a	n/a	n/a	n/a	n/a	n/a	n/a
77.9135	0.5167	FIXCROSS	n/a	n/a	n/a	n/a	n/a	n/a	n/a	n/a
78.4302	0.5833	INK	12	Neutral	xxxxxxxxx	xxxxxxxxx	czerwony	red	hit	n/a
78.9897	n/a	RESPONSE	n/a	n/a	n/a	n/a	n/a	n/a	n/a	red
79.0135	1.0167	ITI	n/a	n/a	n/a	n/a	n/a	n/a	n/a	n/a
80.0302	0.5167	FIXCROSS	n/a	n/a	n/a	n/a	n/a	n/a	n/a	n/a
80.5469	0.4667	INK	13	Neutral	xxxxxxxxx	xxxxxxxxx	czerwony	red	hit	n/a
80.9893	n/a	RESPONSE	n/a	n/a	n/a	n/a	n/a	n/a	n/a	red
81.0135	1.0167	ITI	n/a	n/a	n/a	n/a	n/a	n/a	n/a	n/a
82.0302	0.5167	FIXCROSS	n/a	n/a	n/a	n/a	n/a	n/a	n/a	n/a
82.5469	0.65	INK	14	Neutral	xxxxxxxxx	xxxxxxxxx	zielony	green	hit	n/a
83.1647	n/a	RESPONSE	n/a	n/a	n/a	n/a	n/a	n/a	n/a	green
83.1969	1.0167	ITI	n/a	n/a	n/a	n/a	n/a	n/a	n/a	n/a
84.2136	0.5167	FIXCROSS	n/a	n/a	n/a	n/a	n/a	n/a	n/a	n/a
84.7302	0.6	INK	15	Neutral	xxxxxxxxx	xxxxxxxxx	czerwony	red	hit	n/a
85.3083	n/a	RESPONSE	n/a	n/a	n/a	n/a	n/a	n/a	n/a	red
85.3303	1.0167	ITI	n/a	n/a	n/a	n/a	n/a	n/a	n/a	n/a
86.3469	0.5167	FIXCROSS	n/a	n/a	n/a	n/a	n/a	n/a	n/a	n/a
86.8636	0.85	INK	16	Neutral	xxxxxxx	xxxxxxx	niebieski	blue	hit	n/a
87.6917	n/a	RESPONSE	n/a	n/a	n/a	n/a	n/a	n/a	n/a	blue
87.7136	1.0167	ITI	n/a	n/a	n/a	n/a	n/a	n/a	n/a	n/a
88.7303	0.5167	FIXCROSS	n/a	n/a	n/a	n/a	n/a	n/a	n/a	n/a
89.247	0.75	INK	17	Incongruent	zielony	green	niebieski	blue	hit	n/a
89.9792	n/a	RESPONSE	n/a	n/a	n/a	n/a	n/a	n/a	n/a	blue
89.997	1.0167	ITI	n/a	n/a	n/a	n/a	n/a	n/a	n/a	n/a
91.0137	0.5167	FIXCROSS	n/a	n/a	n/a	n/a	n/a	n/a	n/a	n/a
91.5303	0.45	INK	18	Neutral	xxxxx	xxxxx	niebieski	blue	hit	n/a
91.9627	n/a	RESPONSE	n/a	n/a	n/a	n/a	n/a	n/a	n/a	blue
91.9803	1.0167	ITI	n/a	n/a	n/a	n/a	n/a	n/a	n/a	n/a
92.997	0.5167	FIXCROSS	n/a	n/a	n/a	n/a	n/a	n/a	n/a	n/a
93.5137	0.4833	INK	19	Incongruent	czerwony	red	niebieski	blue	hit	n/a
93.9783	n/a	RESPONSE	n/a	n/a	n/a	n/a	n/a	n/a	n/a	blue
93.997	1.0167	ITI	n/a	n/a	n/a	n/a	n/a	n/a	n/a	n/a
95.0137	0.5167	FIXCROSS	n/a	n/a	n/a	n/a	n/a	n/a	n/a	n/a
95.5304	0.45	INK	20	Incongruent	czerwony	red	niebieski	blue	hit	n/a
95.9618	n/a	RESPONSE	n/a	n/a	n/a	n/a	n/a	n/a	n/a	blue
95.9804	1.0167	ITI	n/a	n/a	n/a	n/a	n/a	n/a	n/a	n/a
96.9971	0.5167	FIXCROSS	n/a	n/a	n/a	n/a	n/a	n/a	n/a	n/a
97.5138	0.85	INK	21	Neutral	xxxxxxxx	xxxxxxxx	żółty	yellow	hit	n/a
98.3452	n/a	RESPONSE	n/a	n/a	n/a	n/a	n/a	n/a	n/a	yellow
98.3638	1.0167	ITI	n/a	n/a	n/a	n/a	n/a	n/a	n/a	n/a
99.3805	0.5167	FIXCROSS	n/a	n/a	n/a	n/a	n/a	n/a	n/a	n/a
99.8971	0.5167	INK	22	Neutral	xxxxxxxx	xxxxxxxx	zielony	green	hit	n/a
100.3928	n/a	RESPONSE	n/a	n/a	n/a	n/a	n/a	n/a	n/a	green
100.4138	1.0167	ITI	n/a	n/a	n/a	n/a	n/a	n/a	n/a	n/a
101.4305	0.5167	FIXCROSS	n/a	n/a	n/a	n/a	n/a	n/a	n/a	n/a
101.9471	0.7833	INK	23	Neutral	xxxxx	xxxxx	czerwony	red	hit	n/a
102.7122	n/a	RESPONSE	n/a	n/a	n/a	n/a	n/a	n/a	n/a	red
102.7305	1.0167	ITI	n/a	n/a	n/a	n/a	n/a	n/a	n/a	n/a
103.7472	0.5167	FIXCROSS	n/a	n/a	n/a	n/a	n/a	n/a	n/a	n/a
104.2639	0.55	INK	24	Neutral	xxxxx	xxxxx	niebieski	blue	hit	n/a
104.7918	n/a	RESPONSE	n/a	n/a	n/a	n/a	n/a	n/a	n/a	blue
104.8139	1.0167	ITI	n/a	n/a	n/a	n/a	n/a	n/a	n/a	n/a
105.8305	0.5167	FIXCROSS	n/a	n/a	n/a	n/a	n/a	n/a	n/a	n/a
106.3472	0.7333	INK	25	Incongruent	żółty	yellow	zielony	green	hit	n/a
107.0632	n/a	RESPONSE	n/a	n/a	n/a	n/a	n/a	n/a	n/a	green
107.0806	1.0167	ITI	n/a	n/a	n/a	n/a	n/a	n/a	n/a	n/a
108.0972	0.5167	FIXCROSS	n/a	n/a	n/a	n/a	n/a	n/a	n/a	n/a
108.6139	0.7167	INK	26	Incongruent	żółty	yellow	czerwony	red	hit	n/a
109.3027	n/a	RESPONSE	n/a	n/a	n/a	n/a	n/a	n/a	n/a	red
109.3306	1.0167	ITI	n/a	n/a	n/a	n/a	n/a	n/a	n/a	n/a
110.3473	0.5167	FIXCROSS	n/a	n/a	n/a	n/a	n/a	n/a	n/a	n/a
110.8639	0.7333	INK	27	Neutral	xxxxx	xxxxx	zielony	green	hit	n/a
111.5742	n/a	RESPONSE	n/a	n/a	n/a	n/a	n/a	n/a	n/a	green
111.5973	1.0167	ITI	n/a	n/a	n/a	n/a	n/a	n/a	n/a	n/a
112.614	0.5167	FIXCROSS	n/a	n/a	n/a	n/a	n/a	n/a	n/a	n/a
113.1306	0.5833	INK	28	Neutral	xxxxx	xxxxx	zielony	green	hit	n/a
113.6857	n/a	RESPONSE	n/a	n/a	n/a	n/a	n/a	n/a	n/a	green
113.714	1.0167	ITI	n/a	n/a	n/a	n/a	n/a	n/a	n/a	n/a
114.7307	0.5167	FIXCROSS	n/a	n/a	n/a	n/a	n/a	n/a	n/a	n/a
115.2473	0.5834	INK	29	Neutral	xxxxxxxx	xxxxxxxx	żółty	yellow	hit	n/a
115.8132	n/a	RESPONSE	n/a	n/a	n/a	n/a	n/a	n/a	n/a	yellow
115.8307	1.0167	ITI	n/a	n/a	n/a	n/a	n/a	n/a	n/a	n/a
116.8474	0.5167	FIXCROSS	n/a	n/a	n/a	n/a	n/a	n/a	n/a	n/a
117.364	0.7333	INK	30	Incongruent	czerwony	red	zielony	green	hit	n/a
118.0687	n/a	RESPONSE	n/a	n/a	n/a	n/a	n/a	n/a	n/a	green
118.0974	1.0167	ITI	n/a	n/a	n/a	n/a	n/a	n/a	n/a	n/a
119.114	0.5167	FIXCROSS	n/a	n/a	n/a	n/a	n/a	n/a	n/a	n/a
119.6307	0.6833	INK	31	Incongruent	zielony	green	czerwony	red	hit	n/a
120.2922	n/a	RESPONSE	n/a	n/a	n/a	n/a	n/a	n/a	n/a	red
120.3141	1.0167	ITI	n/a	n/a	n/a	n/a	n/a	n/a	n/a	n/a
121.3308	0.5167	FIXCROSS	n/a	n/a	n/a	n/a	n/a	n/a	n/a	n/a
121.8474	0.5	INK	32	Incongruent	żółty	yellow	niebieski	blue	hit	n/a
122.3238	n/a	RESPONSE	n/a	n/a	n/a	n/a	n/a	n/a	n/a	blue
122.3474	1.0167	ITI	n/a	n/a	n/a	n/a	n/a	n/a	n/a	n/a
123.3641	0.5167	FIXCROSS	n/a	n/a	n/a	n/a	n/a	n/a	n/a	n/a
123.8808	0.6833	INK	33	Incongruent	zielony	green	niebieski	blue	hit	n/a
124.5312	n/a	RESPONSE	n/a	n/a	n/a	n/a	n/a	n/a	n/a	blue
124.5641	1.0167	ITI	n/a	n/a	n/a	n/a	n/a	n/a	n/a	n/a
125.5808	0.5167	FIXCROSS	n/a	n/a	n/a	n/a	n/a	n/a	n/a	n/a
126.0975	0.65	INK	34	Incongruent	niebieski	blue	żółty	yellow	hit	n/a
126.7227	n/a	RESPONSE	n/a	n/a	n/a	n/a	n/a	n/a	n/a	yellow
126.7475	1.0167	ITI	n/a	n/a	n/a	n/a	n/a	n/a	n/a	n/a
127.7642	0.5167	FIXCROSS	n/a	n/a	n/a	n/a	n/a	n/a	n/a	n/a
128.2808	0.5167	INK	35	Neutral	xxxxx	xxxxx	zielony	green	hit	n/a
128.7702	n/a	RESPONSE	n/a	n/a	n/a	n/a	n/a	n/a	n/a	green
128.7975	1.0167	ITI	n/a	n/a	n/a	n/a	n/a	n/a	n/a	n/a
129.8142	0.5167	FIXCROSS	n/a	n/a	n/a	n/a	n/a	n/a	n/a	n/a
130.3309	0.6	INK	36	Neutral	xxxxxxxx	xxxxxxxx	zielony	green	hit	n/a
130.8977	n/a	RESPONSE	n/a	n/a	n/a	n/a	n/a	n/a	n/a	green
130.9309	1.0167	ITI	n/a	n/a	n/a	n/a	n/a	n/a	n/a	n/a
131.9476	0.5167	FIXCROSS	n/a	n/a	n/a	n/a	n/a	n/a	n/a	n/a
132.4642	0.7667	INK	37	Incongruent	żółty	yellow	niebieski	blue	hit	n/a
133.2012	n/a	RESPONSE	n/a	n/a	n/a	n/a	n/a	n/a	n/a	blue
133.2309	1.0167	ITI	n/a	n/a	n/a	n/a	n/a	n/a	n/a	n/a
134.2476	0.5167	FIXCROSS	n/a	n/a	n/a	n/a	n/a	n/a	n/a	n/a
134.7643	0.9167	INK	38	Incongruent	niebieski	blue	żółty	yellow	hit	n/a
135.6487	n/a	RESPONSE	n/a	n/a	n/a	n/a	n/a	n/a	n/a	yellow
135.6809	1.0167	ITI	n/a	n/a	n/a	n/a	n/a	n/a	n/a	n/a
136.6976	0.5167	FIXCROSS	n/a	n/a	n/a	n/a	n/a	n/a	n/a	n/a
137.2143	0.5833	INK	39	Incongruent	żółty	yellow	niebieski	blue	hit	n/a
137.7762	n/a	RESPONSE	n/a	n/a	n/a	n/a	n/a	n/a	n/a	blue
137.7976	1.0167	ITI	n/a	n/a	n/a	n/a	n/a	n/a	n/a	n/a
138.8143	0.5167	FIXCROSS	n/a	n/a	n/a	n/a	n/a	n/a	n/a	n/a
139.331	0.7167	INK	40	Neutral	xxxxxxx	xxxxxxx	żółty	yellow	hit	n/a
140.0156	n/a	RESPONSE	n/a	n/a	n/a	n/a	n/a	n/a	n/a	yellow
140.0477	1.0167	ITI	n/a	n/a	n/a	n/a	n/a	n/a	n/a	n/a
141.0643	0.5167	FIXCROSS	n/a	n/a	n/a	n/a	n/a	n/a	n/a	n/a
141.581	0.6833	INK	41	Neutral	xxxxx	xxxxx	niebieski	blue	hit	n/a
142.2391	n/a	RESPONSE	n/a	n/a	n/a	n/a	n/a	n/a	n/a	blue
142.2644	1.0167	ITI	n/a	n/a	n/a	n/a	n/a	n/a	n/a	n/a
143.281	0.5167	FIXCROSS	n/a	n/a	n/a	n/a	n/a	n/a	n/a	n/a
143.7977	0.7167	INK	42	Incongruent	żółty	yellow	czerwony	red	hit	n/a
144.4946	n/a	RESPONSE	n/a	n/a	n/a	n/a	n/a	n/a	n/a	red
144.5144	1.0167	ITI	n/a	n/a	n/a	n/a	n/a	n/a	n/a	n/a
145.5311	0.5167	FIXCROSS	n/a	n/a	n/a	n/a	n/a	n/a	n/a	n/a
146.0477	0.7833	INK	43	Neutral	xxxxxxx	xxxxxxx	niebieski	blue	hit	n/a
146.7981	n/a	RESPONSE	n/a	n/a	n/a	n/a	n/a	n/a	n/a	blue
146.8311	1.0167	ITI	n/a	n/a	n/a	n/a	n/a	n/a	n/a	n/a
147.8478	0.5167	FIXCROSS	n/a	n/a	n/a	n/a	n/a	n/a	n/a	n/a
148.3644	0.4333	INK	44	Incongruent	zielony	green	niebieski	blue	hit	n/a
148.7656	n/a	RESPONSE	n/a	n/a	n/a	n/a	n/a	n/a	n/a	blue
148.7978	1.0167	ITI	n/a	n/a	n/a	n/a	n/a	n/a	n/a	n/a
149.8145	0.5167	FIXCROSS	n/a	n/a	n/a	n/a	n/a	n/a	n/a	n/a
150.3311	0.4	INK	45	Neutral	xxxxxxxx	xxxxxxxx	niebieski	blue	hit	n/a
150.7012	n/a	RESPONSE	n/a	n/a	n/a	n/a	n/a	n/a	n/a	blue
150.7311	1.0167	ITI	n/a	n/a	n/a	n/a	n/a	n/a	n/a	n/a
151.7478	0.5167	FIXCROSS	n/a	n/a	n/a	n/a	n/a	n/a	n/a	n/a
152.2645	0.7333	INK	46	Incongruent	czerwony	red	żółty	yellow	hit	n/a
152.9726	n/a	RESPONSE	n/a	n/a	n/a	n/a	n/a	n/a	n/a	yellow
152.9978	1.0167	ITI	n/a	n/a	n/a	n/a	n/a	n/a	n/a	n/a
154.0145	0.5167	FIXCROSS	n/a	n/a	n/a	n/a	n/a	n/a	n/a	n/a
154.5312	0.4667	INK	47	Neutral	xxxxxxx	xxxxxxx	żółty	yellow	hit	n/a
154.9722	n/a	RESPONSE	n/a	n/a	n/a	n/a	n/a	n/a	n/a	yellow
154.9979	1.0167	ITI	n/a	n/a	n/a	n/a	n/a	n/a	n/a	n/a
156.0145	0.5167	FIXCROSS	n/a	n/a	n/a	n/a	n/a	n/a	n/a	n/a
156.5312	0.65	INK	48	Neutral	xxxxxxx	xxxxxxx	czerwony	red	hit	n/a
157.1477	n/a	RESPONSE	n/a	n/a	n/a	n/a	n/a	n/a	n/a	red
157.1812	1.0167	ITI	n/a	n/a	n/a	n/a	n/a	n/a	n/a	n/a
158.1979	0.5167	FIXCROSS	n/a	n/a	n/a	n/a	n/a	n/a	n/a	n/a
158.7146	0.8167	INK	49	Incongruent	niebieski	blue	żółty	yellow	hit	n/a
159.4991	n/a	RESPONSE	n/a	n/a	n/a	n/a	n/a	n/a	n/a	yellow
159.5313	1.0167	ITI	n/a	n/a	n/a	n/a	n/a	n/a	n/a	n/a
160.5479	0.5167	FIXCROSS	n/a	n/a	n/a	n/a	n/a	n/a	n/a	n/a
161.0646	0.4167	INK	50	Neutral	xxxxxxxx	xxxxxxxx	żółty	yellow	hit	n/a
161.4507	n/a	RESPONSE	n/a	n/a	n/a	n/a	n/a	n/a	n/a	yellow
161.4813	1.0167	ITI	n/a	n/a	n/a	n/a	n/a	n/a	n/a	n/a
162.498	0.5167	FIXCROSS	n/a	n/a	n/a	n/a	n/a	n/a	n/a	n/a
163.0146	0.4833	INK	51	Neutral	xxxxx	xxxxx	czerwony	red	hit	n/a
163.4662	n/a	RESPONSE	n/a	n/a	n/a	n/a	n/a	n/a	n/a	red
163.498	1.0167	ITI	n/a	n/a	n/a	n/a	n/a	n/a	n/a	n/a
164.5147	0.5167	FIXCROSS	n/a	n/a	n/a	n/a	n/a	n/a	n/a	n/a
165.0313	0.5	INK	52	Incongruent	zielony	green	żółty	yellow	hit	n/a
165.5138	n/a	RESPONSE	n/a	n/a	n/a	n/a	n/a	n/a	n/a	yellow
165.5313	1.0167	ITI	n/a	n/a	n/a	n/a	n/a	n/a	n/a	n/a
166.548	0.5167	FIXCROSS	n/a	n/a	n/a	n/a	n/a	n/a	n/a	n/a
167.0647	0.9333	INK	53	Incongruent	niebieski	blue	czerwony	red	hit	n/a
167.9772	n/a	RESPONSE	n/a	n/a	n/a	n/a	n/a	n/a	n/a	red
167.998	1.0167	ITI	n/a	n/a	n/a	n/a	n/a	n/a	n/a	n/a
169.0147	0.5167	FIXCROSS	n/a	n/a	n/a	n/a	n/a	n/a	n/a	n/a
169.5314	0.7167	INK	54	Incongruent	zielony	green	żółty	yellow	incorrect	n/a
170.2166	n/a	RESPONSE	n/a	n/a	n/a	n/a	n/a	n/a	n/a	green
170.2481	1.0167	ITI	n/a	n/a	n/a	n/a	n/a	n/a	n/a	n/a
171.2647	0.5167	FIXCROSS	n/a	n/a	n/a	n/a	n/a	n/a	n/a	n/a
171.7814	0.7167	INK	55	Incongruent	żółty	yellow	zielony	green	incorrect	n/a
172.4721	n/a	RESPONSE	n/a	n/a	n/a	n/a	n/a	n/a	n/a	yellow
172.4981	1.0167	ITI	n/a	n/a	n/a	n/a	n/a	n/a	n/a	n/a
173.5148	0.5167	FIXCROSS	n/a	n/a	n/a	n/a	n/a	n/a	n/a	n/a
174.0315	1.05	INK	56	Neutral	xxxxxxxxx	xxxxxxxxx	żółty	yellow	hit	n/a
175.0635	n/a	RESPONSE	n/a	n/a	n/a	n/a	n/a	n/a	n/a	yellow
175.0815	1.0167	ITI	n/a	n/a	n/a	n/a	n/a	n/a	n/a	n/a
176.0981	0.5167	FIXCROSS	n/a	n/a	n/a	n/a	n/a	n/a	n/a	n/a
176.6148	0.8333	INK	57	Incongruent	żółty	yellow	zielony	green	hit	n/a
177.431	n/a	RESPONSE	n/a	n/a	n/a	n/a	n/a	n/a	n/a	green
177.4482	1.0167	ITI	n/a	n/a	n/a	n/a	n/a	n/a	n/a	n/a
178.4648	0.5167	FIXCROSS	n/a	n/a	n/a	n/a	n/a	n/a	n/a	n/a
178.9815	1.0333	INK	58	Incongruent	czerwony	red	żółty	yellow	incorrect	n/a
179.9904	n/a	RESPONSE	n/a	n/a	n/a	n/a	n/a	n/a	n/a	red
180.0149	1.0167	ITI	n/a	n/a	n/a	n/a	n/a	n/a	n/a	n/a
181.0315	0.5167	FIXCROSS	n/a	n/a	n/a	n/a	n/a	n/a	n/a	n/a
181.5482	0.95	INK	59	Incongruent	niebieski	blue	zielony	green	hit	n/a
182.471	n/a	RESPONSE	n/a	n/a	n/a	n/a	n/a	n/a	n/a	green
182.4982	1.0167	ITI	n/a	n/a	n/a	n/a	n/a	n/a	n/a	n/a
183.5149	0.5167	FIXCROSS	n/a	n/a	n/a	n/a	n/a	n/a	n/a	n/a
184.0316	0.8	INK	60	Incongruent	zielony	green	czerwony	red	hit	n/a
184.8052	n/a	RESPONSE	n/a	n/a	n/a	n/a	n/a	n/a	n/a	red
184.8316	1.0167	ITI	n/a	n/a	n/a	n/a	n/a	n/a	n/a	n/a
185.8483	0.5167	FIXCROSS	n/a	n/a	n/a	n/a	n/a	n/a	n/a	n/a
186.3649	0.8	INK	61	Neutral	xxxxxxxx	xxxxxxxx	niebieski	blue	hit	n/a
187.1407	n/a	RESPONSE	n/a	n/a	n/a	n/a	n/a	n/a	n/a	blue
187.165	1.0167	ITI	n/a	n/a	n/a	n/a	n/a	n/a	n/a	n/a
188.1816	0.5167	FIXCROSS	n/a	n/a	n/a	n/a	n/a	n/a	n/a	n/a
188.6983	0.6167	INK	62	Neutral	xxxxxxxx	xxxxxxxx	niebieski	blue	hit	n/a
189.2842	n/a	RESPONSE	n/a	n/a	n/a	n/a	n/a	n/a	n/a	blue
189.315	1.0167	ITI	n/a	n/a	n/a	n/a	n/a	n/a	n/a	n/a
190.3317	0.5167	FIXCROSS	n/a	n/a	n/a	n/a	n/a	n/a	n/a	n/a
190.8483	0.8167	INK	63	Neutral	xxxxxxxxx	xxxxxxxxx	żółty	yellow	hit	n/a
191.6357	n/a	RESPONSE	n/a	n/a	n/a	n/a	n/a	n/a	n/a	yellow
191.665	1.0167	ITI	n/a	n/a	n/a	n/a	n/a	n/a	n/a	n/a
192.6817	0.5167	FIXCROSS	n/a	n/a	n/a	n/a	n/a	n/a	n/a	n/a
193.1984	0.95	INK	64	Incongruent	niebieski	blue	zielony	green	hit	n/a
194.1311	n/a	RESPONSE	n/a	n/a	n/a	n/a	n/a	n/a	n/a	green
194.1484	1.0167	ITI	n/a	n/a	n/a	n/a	n/a	n/a	n/a	n/a
195.1651	0.5167	FIXCROSS	n/a	n/a	n/a	n/a	n/a	n/a	n/a	n/a
195.6817	0.7	INK	65	Neutral	xxxxxxxxx	xxxxxxxxx	zielony	green	incorrect	n/a
196.3546	n/a	RESPONSE	n/a	n/a	n/a	n/a	n/a	n/a	n/a	yellow
196.3818	1.0167	ITI	n/a	n/a	n/a	n/a	n/a	n/a	n/a	n/a
197.3984	0.5167	FIXCROSS	n/a	n/a	n/a	n/a	n/a	n/a	n/a	n/a
197.9151	0.65	INK	66	Neutral	xxxxxxx	xxxxxxx	czerwony	red	hit	n/a
198.5461	n/a	RESPONSE	n/a	n/a	n/a	n/a	n/a	n/a	n/a	red
198.5651	1.0167	ITI	n/a	n/a	n/a	n/a	n/a	n/a	n/a	n/a
199.5818	0.5167	FIXCROSS	n/a	n/a	n/a	n/a	n/a	n/a	n/a	n/a
200.0985	0.8167	INK	67	Incongruent	czerwony	red	niebieski	blue	hit	n/a
200.8975	n/a	RESPONSE	n/a	n/a	n/a	n/a	n/a	n/a	n/a	blue
200.9151	1.0167	ITI	n/a	n/a	n/a	n/a	n/a	n/a	n/a	n/a
201.9318	0.5167	FIXCROSS	n/a	n/a	n/a	n/a	n/a	n/a	n/a	n/a
202.4485	0.7334	INK	68	Incongruent	niebieski	blue	czerwony	red	hit	n/a
203.153	n/a	RESPONSE	n/a	n/a	n/a	n/a	n/a	n/a	n/a	red
203.1818	1.0167	ITI	n/a	n/a	n/a	n/a	n/a	n/a	n/a	n/a
204.1985	0.5167	FIXCROSS	n/a	n/a	n/a	n/a	n/a	n/a	n/a	n/a
204.7152	0.8	INK	69	Incongruent	niebieski	blue	zielony	green	hit	n/a
205.4885	n/a	RESPONSE	n/a	n/a	n/a	n/a	n/a	n/a	n/a	green
205.5152	1.0167	ITI	n/a	n/a	n/a	n/a	n/a	n/a	n/a	n/a
206.5319	0.5167	FIXCROSS	n/a	n/a	n/a	n/a	n/a	n/a	n/a	n/a
207.0486	0.7833	INK	70	Incongruent	żółty	yellow	czerwony	red	hit	n/a
207.808	n/a	RESPONSE	n/a	n/a	n/a	n/a	n/a	n/a	n/a	red
207.8319	1.0167	ITI	n/a	n/a	n/a	n/a	n/a	n/a	n/a	n/a
208.8486	0.5167	FIXCROSS	n/a	n/a	n/a	n/a	n/a	n/a	n/a	n/a
209.3653	0.8167	INK	71	Incongruent	czerwony	red	zielony	green	hit	n/a
210.1594	n/a	RESPONSE	n/a	n/a	n/a	n/a	n/a	n/a	n/a	green
210.1819	1.0167	ITI	n/a	n/a	n/a	n/a	n/a	n/a	n/a	n/a
211.1986	0.5167	FIXCROSS	n/a	n/a	n/a	n/a	n/a	n/a	n/a	n/a
211.7153	0.7333	INK	72	Neutral	xxxxxxxx	xxxxxxxx	zielony	green	hit	n/a
212.4309	n/a	RESPONSE	n/a	n/a	n/a	n/a	n/a	n/a	n/a	green
212.4486	1.0834	ITI	n/a	n/a	n/a	n/a	n/a	n/a	n/a	n/a
242.248	n/a	RESPONSE	n/a	n/a	n/a	n/a	n/a	n/a	n/a	n/a
242.3157	1.0167	ITI	n/a	n/a	n/a	n/a	n/a	n/a	n/a	n/a
243.3324	0.5167	FIXCROSS	n/a	n/a	n/a	n/a	n/a	n/a	n/a	n/a
243.8491	0.7	T_COLOR_NAME	1	Neutral	czerwony	red	Neutral	Neutral	hit	n/a
244.5195	n/a	RESPONSE	n/a	n/a	n/a	n/a	n/a	n/a	n/a	red
244.5491	0.5167	FEEDBACK	n/a	n/a	n/a	n/a	n/a	n/a	n/a	n/a
245.0657	1.0167	ITI	n/a	n/a	n/a	n/a	n/a	n/a	n/a	n/a
246.0824	0.5167	FIXCROSS	n/a	n/a	n/a	n/a	n/a	n/a	n/a	n/a
246.5991	1.5167	T_COLOR_NAME	2	Incongruent	niebieski	blue	zielony	green	hit	n/a
248.0866	n/a	RESPONSE	n/a	n/a	n/a	n/a	n/a	n/a	n/a	blue
248.1158	0.5167	FEEDBACK	n/a	n/a	n/a	n/a	n/a	n/a	n/a	n/a
248.6324	1.0167	ITI	n/a	n/a	n/a	n/a	n/a	n/a	n/a	n/a
249.6491	0.5167	FIXCROSS	n/a	n/a	n/a	n/a	n/a	n/a	n/a	n/a
250.1658	0.8167	T_COLOR_NAME	3	Neutral	żółty	yellow	Neutral	Neutral	hit	n/a
250.95	n/a	RESPONSE	n/a	n/a	n/a	n/a	n/a	n/a	n/a	yellow
250.9825	0.5167	FEEDBACK	n/a	n/a	n/a	n/a	n/a	n/a	n/a	n/a
251.4992	1.0167	ITI	n/a	n/a	n/a	n/a	n/a	n/a	n/a	n/a
252.5158	0.5167	FIXCROSS	n/a	n/a	n/a	n/a	n/a	n/a	n/a	n/a
253.0325	0.75	T_COLOR_NAME	4	Neutral	niebieski	blue	Neutral	Neutral	hit	n/a
253.7493	n/a	RESPONSE	n/a	n/a	n/a	n/a	n/a	n/a	n/a	blue
253.7825	0.5167	FEEDBACK	n/a	n/a	n/a	n/a	n/a	n/a	n/a	n/a
254.2992	1.0167	ITI	n/a	n/a	n/a	n/a	n/a	n/a	n/a	n/a
255.3159	0.5167	FIXCROSS	n/a	n/a	n/a	n/a	n/a	n/a	n/a	n/a
255.8325	0.7167	T_COLOR_NAME	5	Neutral	żółty	yellow	Neutral	Neutral	hit	n/a
256.5167	n/a	RESPONSE	n/a	n/a	n/a	n/a	n/a	n/a	n/a	yellow
256.5492	0.5167	FEEDBACK	n/a	n/a	n/a	n/a	n/a	n/a	n/a	n/a
257.0659	1.0167	ITI	n/a	n/a	n/a	n/a	n/a	n/a	n/a	n/a
258.0826	0.5167	FIXCROSS	n/a	n/a	n/a	n/a	n/a	n/a	n/a	n/a
258.5993	0.8167	T_COLOR_NAME	6	Incongruent	czerwony	red	żółty	yellow	hit	n/a
259.396	n/a	RESPONSE	n/a	n/a	n/a	n/a	n/a	n/a	n/a	red
259.4159	0.5167	FEEDBACK	n/a	n/a	n/a	n/a	n/a	n/a	n/a	n/a
259.9326	1.0167	ITI	n/a	n/a	n/a	n/a	n/a	n/a	n/a	n/a
260.9493	0.5167	FIXCROSS	n/a	n/a	n/a	n/a	n/a	n/a	n/a	n/a
261.466	0.95	T_COLOR_NAME	7	Neutral	zielony	green	Neutral	Neutral	hit	n/a
262.3873	n/a	RESPONSE	n/a	n/a	n/a	n/a	n/a	n/a	n/a	green
262.416	0.5167	FEEDBACK	n/a	n/a	n/a	n/a	n/a	n/a	n/a	n/a
262.9326	1.0167	ITI	n/a	n/a	n/a	n/a	n/a	n/a	n/a	n/a
263.9493	0.5167	FIXCROSS	n/a	n/a	n/a	n/a	n/a	n/a	n/a	n/a
264.466	0.9667	T_COLOR_NAME	8	Incongruent	żółty	yellow	niebieski	blue	hit	n/a
265.4106	n/a	RESPONSE	n/a	n/a	n/a	n/a	n/a	n/a	n/a	yellow
265.4327	0.5167	FEEDBACK	n/a	n/a	n/a	n/a	n/a	n/a	n/a	n/a
265.9494	1.0167	ITI	n/a	n/a	n/a	n/a	n/a	n/a	n/a	n/a
266.966	0.5167	FIXCROSS	n/a	n/a	n/a	n/a	n/a	n/a	n/a	n/a
267.4827	0.9333	T_COLOR_NAME	9	Neutral	zielony	green	Neutral	Neutral	hit	n/a
268.3859	n/a	RESPONSE	n/a	n/a	n/a	n/a	n/a	n/a	n/a	green
268.416	0.5167	FEEDBACK	n/a	n/a	n/a	n/a	n/a	n/a	n/a	n/a
268.9327	1.0167	ITI	n/a	n/a	n/a	n/a	n/a	n/a	n/a	n/a
269.9494	0.5167	FIXCROSS	n/a	n/a	n/a	n/a	n/a	n/a	n/a	n/a
270.4661	0.7333	T_COLOR_NAME	10	Neutral	czerwony	red	Neutral	Neutral	hit	n/a
271.1693	n/a	RESPONSE	n/a	n/a	n/a	n/a	n/a	n/a	n/a	red
271.1994	0.5167	FEEDBACK	n/a	n/a	n/a	n/a	n/a	n/a	n/a	n/a
271.7161	1.0167	ITI	n/a	n/a	n/a	n/a	n/a	n/a	n/a	n/a
272.7328	0.5167	FIXCROSS	n/a	n/a	n/a	n/a	n/a	n/a	n/a	n/a
273.2494	0.7834	T_COLOR_NAME	11	Incongruent	niebieski	blue	żółty	yellow	hit	n/a
274.0007	n/a	RESPONSE	n/a	n/a	n/a	n/a	n/a	n/a	n/a	blue
274.0328	0.5167	FEEDBACK	n/a	n/a	n/a	n/a	n/a	n/a	n/a	n/a
274.5495	1.0167	ITI	n/a	n/a	n/a	n/a	n/a	n/a	n/a	n/a
275.5662	0.5167	FIXCROSS	n/a	n/a	n/a	n/a	n/a	n/a	n/a	n/a
276.0828	0.7	T_COLOR_NAME	12	Incongruent	żółty	yellow	zielony	green	hit	n/a
276.752	n/a	RESPONSE	n/a	n/a	n/a	n/a	n/a	n/a	n/a	yellow
276.7828	0.5167	FEEDBACK	n/a	n/a	n/a	n/a	n/a	n/a	n/a	n/a
277.2995	1.0333	ITI	n/a	n/a	n/a	n/a	n/a	n/a	n/a	n/a
285.1021	n/a	RESPONSE	n/a	n/a	n/a	n/a	n/a	n/a	n/a	n/a
285.1663	1.0167	ITI	n/a	n/a	n/a	n/a	n/a	n/a	n/a	n/a
286.183	0.5167	FIXCROSS	n/a	n/a	n/a	n/a	n/a	n/a	n/a	n/a
286.6996	0.6333	COLOR_NAME	1	Neutral	żółty	yellow	Neutral	Neutral	hit	n/a
287.3096	n/a	RESPONSE	n/a	n/a	n/a	n/a	n/a	n/a	n/a	yellow
287.333	1.0167	ITI	n/a	n/a	n/a	n/a	n/a	n/a	n/a	n/a
288.3497	0.5167	FIXCROSS	n/a	n/a	n/a	n/a	n/a	n/a	n/a	n/a
288.8663	0.9	COLOR_NAME	2	Neutral	czerwony	red	Neutral	Neutral	hit	n/a
289.741	n/a	RESPONSE	n/a	n/a	n/a	n/a	n/a	n/a	n/a	red
289.7663	1.0167	ITI	n/a	n/a	n/a	n/a	n/a	n/a	n/a	n/a
290.783	0.5167	FIXCROSS	n/a	n/a	n/a	n/a	n/a	n/a	n/a	n/a
291.2997	1.05	COLOR_NAME	3	Incongruent	zielony	green	żółty	yellow	hit	n/a
292.3164	n/a	RESPONSE	n/a	n/a	n/a	n/a	n/a	n/a	n/a	green
292.3497	1.0167	ITI	n/a	n/a	n/a	n/a	n/a	n/a	n/a	n/a
293.3664	0.5167	FIXCROSS	n/a	n/a	n/a	n/a	n/a	n/a	n/a	n/a
293.8831	0.7667	COLOR_NAME	4	Neutral	niebieski	blue	Neutral	Neutral	hit	n/a
294.6199	n/a	RESPONSE	n/a	n/a	n/a	n/a	n/a	n/a	n/a	blue
294.6497	1.0167	ITI	n/a	n/a	n/a	n/a	n/a	n/a	n/a	n/a
295.6664	0.5167	FIXCROSS	n/a	n/a	n/a	n/a	n/a	n/a	n/a	n/a
296.1831	0.75	COLOR_NAME	5	Neutral	niebieski	blue	Neutral	Neutral	hit	n/a
296.9074	n/a	RESPONSE	n/a	n/a	n/a	n/a	n/a	n/a	n/a	blue
296.9331	1.0167	ITI	n/a	n/a	n/a	n/a	n/a	n/a	n/a	n/a
297.9498	0.5104	FIXCROSS	n/a	n/a	n/a	n/a	n/a	n/a	n/a	n/a
298.4602	0.6229	COLOR_NAME	6	Neutral	żółty	yellow	Neutral	Neutral	hit	n/a
299.0509	n/a	RESPONSE	n/a	n/a	n/a	n/a	n/a	n/a	n/a	yellow
299.0831	1.0167	ITI	n/a	n/a	n/a	n/a	n/a	n/a	n/a	n/a
300.0998	0.5167	FIXCROSS	n/a	n/a	n/a	n/a	n/a	n/a	n/a	n/a
300.6165	0.6	COLOR_NAME	7	Incongruent	czerwony	red	niebieski	blue	hit	n/a
301.1944	n/a	RESPONSE	n/a	n/a	n/a	n/a	n/a	n/a	n/a	red
301.2165	1.0167	ITI	n/a	n/a	n/a	n/a	n/a	n/a	n/a	n/a
302.2332	0.5167	FIXCROSS	n/a	n/a	n/a	n/a	n/a	n/a	n/a	n/a
302.7498	0.65	COLOR_NAME	8	Neutral	niebieski	blue	Neutral	Neutral	hit	n/a
303.3698	n/a	RESPONSE	n/a	n/a	n/a	n/a	n/a	n/a	n/a	blue
303.3999	1.0167	ITI	n/a	n/a	n/a	n/a	n/a	n/a	n/a	n/a
304.4165	0.5167	FIXCROSS	n/a	n/a	n/a	n/a	n/a	n/a	n/a	n/a
304.9332	0.5833	COLOR_NAME	9	Incongruent	czerwony	red	niebieski	blue	hit	n/a
305.4974	n/a	RESPONSE	n/a	n/a	n/a	n/a	n/a	n/a	n/a	red
305.5165	1.0167	ITI	n/a	n/a	n/a	n/a	n/a	n/a	n/a	n/a
306.5332	0.5167	FIXCROSS	n/a	n/a	n/a	n/a	n/a	n/a	n/a	n/a
307.0499	0.7333	COLOR_NAME	10	Incongruent	zielony	green	niebieski	blue	hit	n/a
307.7528	n/a	RESPONSE	n/a	n/a	n/a	n/a	n/a	n/a	n/a	green
307.7832	1.0167	ITI	n/a	n/a	n/a	n/a	n/a	n/a	n/a	n/a
308.7999	0.5167	FIXCROSS	n/a	n/a	n/a	n/a	n/a	n/a	n/a	n/a
309.3166	0.5667	COLOR_NAME	11	Neutral	czerwony	red	Neutral	Neutral	hit	n/a
309.8644	n/a	RESPONSE	n/a	n/a	n/a	n/a	n/a	n/a	n/a	red
309.8833	1.0167	ITI	n/a	n/a	n/a	n/a	n/a	n/a	n/a	n/a
310.8999	0.5167	FIXCROSS	n/a	n/a	n/a	n/a	n/a	n/a	n/a	n/a
311.4166	0.6333	COLOR_NAME	12	Incongruent	żółty	yellow	niebieski	blue	hit	n/a
312.0238	n/a	RESPONSE	n/a	n/a	n/a	n/a	n/a	n/a	n/a	yellow
312.05	1.0167	ITI	n/a	n/a	n/a	n/a	n/a	n/a	n/a	n/a
313.0666	0.5167	FIXCROSS	n/a	n/a	n/a	n/a	n/a	n/a	n/a	n/a
313.5833	0.6667	COLOR_NAME	13	Neutral	niebieski	blue	Neutral	Neutral	hit	n/a
314.2314	n/a	RESPONSE	n/a	n/a	n/a	n/a	n/a	n/a	n/a	blue
314.25	1.0167	ITI	n/a	n/a	n/a	n/a	n/a	n/a	n/a	n/a
315.2667	0.5167	FIXCROSS	n/a	n/a	n/a	n/a	n/a	n/a	n/a	n/a
315.7833	0.65	COLOR_NAME	14	Incongruent	żółty	yellow	zielony	green	incorrect	n/a
316.4068	n/a	RESPONSE	n/a	n/a	n/a	n/a	n/a	n/a	n/a	green
316.4334	1.0167	ITI	n/a	n/a	n/a	n/a	n/a	n/a	n/a	n/a
317.45	0.5167	FIXCROSS	n/a	n/a	n/a	n/a	n/a	n/a	n/a	n/a
317.9667	0.75	COLOR_NAME	15	Incongruent	czerwony	red	niebieski	blue	hit	n/a
318.6943	n/a	RESPONSE	n/a	n/a	n/a	n/a	n/a	n/a	n/a	red
318.7167	1.0167	ITI	n/a	n/a	n/a	n/a	n/a	n/a	n/a	n/a
319.7334	0.5167	FIXCROSS	n/a	n/a	n/a	n/a	n/a	n/a	n/a	n/a
320.2501	0.8333	COLOR_NAME	16	Neutral	zielony	green	Neutral	Neutral	hit	n/a
321.0618	n/a	RESPONSE	n/a	n/a	n/a	n/a	n/a	n/a	n/a	green
321.0834	1.0167	ITI	n/a	n/a	n/a	n/a	n/a	n/a	n/a	n/a
322.1001	0.5167	FIXCROSS	n/a	n/a	n/a	n/a	n/a	n/a	n/a	n/a
322.6168	0.9667	COLOR_NAME	17	Incongruent	zielony	green	czerwony	red	hit	n/a
323.5572	n/a	RESPONSE	n/a	n/a	n/a	n/a	n/a	n/a	n/a	green
323.5835	1.0167	ITI	n/a	n/a	n/a	n/a	n/a	n/a	n/a	n/a
324.6001	0.5167	FIXCROSS	n/a	n/a	n/a	n/a	n/a	n/a	n/a	n/a
325.1168	0.7333	COLOR_NAME	18	Neutral	niebieski	blue	Neutral	Neutral	hit	n/a
325.8287	n/a	RESPONSE	n/a	n/a	n/a	n/a	n/a	n/a	n/a	blue
325.8501	1.0167	ITI	n/a	n/a	n/a	n/a	n/a	n/a	n/a	n/a
326.8668	0.5167	FIXCROSS	n/a	n/a	n/a	n/a	n/a	n/a	n/a	n/a
327.3835	0.6167	COLOR_NAME	19	Neutral	czerwony	red	Neutral	Neutral	hit	n/a
327.9722	n/a	RESPONSE	n/a	n/a	n/a	n/a	n/a	n/a	n/a	red
328.0002	1.0167	ITI	n/a	n/a	n/a	n/a	n/a	n/a	n/a	n/a
329.0169	0.5167	FIXCROSS	n/a	n/a	n/a	n/a	n/a	n/a	n/a	n/a
329.5335	0.6167	COLOR_NAME	20	Neutral	żółty	yellow	Neutral	Neutral	hit	n/a
330.1317	n/a	RESPONSE	n/a	n/a	n/a	n/a	n/a	n/a	n/a	yellow
330.1502	1.0167	ITI	n/a	n/a	n/a	n/a	n/a	n/a	n/a	n/a
331.1669	0.5167	FIXCROSS	n/a	n/a	n/a	n/a	n/a	n/a	n/a	n/a
331.6836	0.6833	COLOR_NAME	21	Incongruent	zielony	green	żółty	yellow	hit	n/a
332.3392	n/a	RESPONSE	n/a	n/a	n/a	n/a	n/a	n/a	n/a	green
332.3669	1.0167	ITI	n/a	n/a	n/a	n/a	n/a	n/a	n/a	n/a
333.3836	0.5167	FIXCROSS	n/a	n/a	n/a	n/a	n/a	n/a	n/a	n/a
333.9003	0.8334	COLOR_NAME	22	Incongruent	żółty	yellow	czerwony	red	hit	n/a
334.7066	n/a	RESPONSE	n/a	n/a	n/a	n/a	n/a	n/a	n/a	yellow
334.7336	1.0167	ITI	n/a	n/a	n/a	n/a	n/a	n/a	n/a	n/a
335.7503	0.5167	FIXCROSS	n/a	n/a	n/a	n/a	n/a	n/a	n/a	n/a
336.267	0.6333	COLOR_NAME	23	Neutral	niebieski	blue	Neutral	Neutral	hit	n/a
336.8821	n/a	RESPONSE	n/a	n/a	n/a	n/a	n/a	n/a	n/a	blue
336.9003	1.0167	ITI	n/a	n/a	n/a	n/a	n/a	n/a	n/a	n/a
337.917	0.5167	FIXCROSS	n/a	n/a	n/a	n/a	n/a	n/a	n/a	n/a
338.4337	0.7667	COLOR_NAME	24	Neutral	zielony	green	Neutral	Neutral	hit	n/a
339.1696	n/a	RESPONSE	n/a	n/a	n/a	n/a	n/a	n/a	n/a	green
339.2003	1.0167	ITI	n/a	n/a	n/a	n/a	n/a	n/a	n/a	n/a
340.217	0.5167	FIXCROSS	n/a	n/a	n/a	n/a	n/a	n/a	n/a	n/a
340.7337	0.8833	COLOR_NAME	25	Incongruent	niebieski	blue	zielony	green	hit	n/a
341.585	n/a	RESPONSE	n/a	n/a	n/a	n/a	n/a	n/a	n/a	blue
341.617	1.0167	ITI	n/a	n/a	n/a	n/a	n/a	n/a	n/a	n/a
342.6337	0.5167	FIXCROSS	n/a	n/a	n/a	n/a	n/a	n/a	n/a	n/a
343.1504	0.65	COLOR_NAME	26	Incongruent	zielony	green	niebieski	blue	hit	n/a
343.7765	n/a	RESPONSE	n/a	n/a	n/a	n/a	n/a	n/a	n/a	green
343.8004	1.0167	ITI	n/a	n/a	n/a	n/a	n/a	n/a	n/a	n/a
344.8171	0.5167	FIXCROSS	n/a	n/a	n/a	n/a	n/a	n/a	n/a	n/a
345.3337	0.5167	COLOR_NAME	27	Incongruent	niebieski	blue	żółty	yellow	hit	n/a
345.8241	n/a	RESPONSE	n/a	n/a	n/a	n/a	n/a	n/a	n/a	blue
345.8504	1.0167	ITI	n/a	n/a	n/a	n/a	n/a	n/a	n/a	n/a
346.8671	0.5167	FIXCROSS	n/a	n/a	n/a	n/a	n/a	n/a	n/a	n/a
347.3838	0.6333	COLOR_NAME	28	Incongruent	zielony	green	żółty	yellow	hit	n/a
347.9995	n/a	RESPONSE	n/a	n/a	n/a	n/a	n/a	n/a	n/a	green
348.0171	1.0167	ITI	n/a	n/a	n/a	n/a	n/a	n/a	n/a	n/a
349.0338	0.5167	FIXCROSS	n/a	n/a	n/a	n/a	n/a	n/a	n/a	n/a
349.5505	0.9	COLOR_NAME	29	Neutral	zielony	green	Neutral	Neutral	hit	n/a
350.431	n/a	RESPONSE	n/a	n/a	n/a	n/a	n/a	n/a	n/a	green
350.4505	1.0167	ITI	n/a	n/a	n/a	n/a	n/a	n/a	n/a	n/a
351.4672	0.5167	FIXCROSS	n/a	n/a	n/a	n/a	n/a	n/a	n/a	n/a
351.9838	0.65	COLOR_NAME	30	Neutral	czerwony	red	Neutral	Neutral	hit	n/a
352.6064	n/a	RESPONSE	n/a	n/a	n/a	n/a	n/a	n/a	n/a	red
352.6338	1.0167	ITI	n/a	n/a	n/a	n/a	n/a	n/a	n/a	n/a
353.6505	0.5167	FIXCROSS	n/a	n/a	n/a	n/a	n/a	n/a	n/a	n/a
354.1672	0.6333	COLOR_NAME	31	Incongruent	żółty	yellow	czerwony	red	hit	n/a
354.782	n/a	RESPONSE	n/a	n/a	n/a	n/a	n/a	n/a	n/a	yellow
354.8005	1.0167	ITI	n/a	n/a	n/a	n/a	n/a	n/a	n/a	n/a
355.8172	0.5167	FIXCROSS	n/a	n/a	n/a	n/a	n/a	n/a	n/a	n/a
356.3339	0.5333	COLOR_NAME	32	Neutral	zielony	green	Neutral	Neutral	hit	n/a
356.8455	n/a	RESPONSE	n/a	n/a	n/a	n/a	n/a	n/a	n/a	green
356.8672	1.0167	ITI	n/a	n/a	n/a	n/a	n/a	n/a	n/a	n/a
357.8839	0.5167	FIXCROSS	n/a	n/a	n/a	n/a	n/a	n/a	n/a	n/a
358.4006	0.45	COLOR_NAME	33	Neutral	żółty	yellow	Neutral	Neutral	hit	n/a
358.829	n/a	RESPONSE	n/a	n/a	n/a	n/a	n/a	n/a	n/a	yellow
358.8506	1.0167	ITI	n/a	n/a	n/a	n/a	n/a	n/a	n/a	n/a
359.8673	0.5167	FIXCROSS	n/a	n/a	n/a	n/a	n/a	n/a	n/a	n/a
360.3839	0.5333	COLOR_NAME	34	Incongruent	niebieski	blue	zielony	green	hit	n/a
360.8926	n/a	RESPONSE	n/a	n/a	n/a	n/a	n/a	n/a	n/a	blue
360.9173	1.0167	ITI	n/a	n/a	n/a	n/a	n/a	n/a	n/a	n/a
361.934	0.5167	FIXCROSS	n/a	n/a	n/a	n/a	n/a	n/a	n/a	n/a
362.4506	0.5167	COLOR_NAME	35	Neutral	czerwony	red	Neutral	Neutral	hit	n/a
362.9401	n/a	RESPONSE	n/a	n/a	n/a	n/a	n/a	n/a	n/a	red
362.9673	1.0167	ITI	n/a	n/a	n/a	n/a	n/a	n/a	n/a	n/a
363.984	0.5167	FIXCROSS	n/a	n/a	n/a	n/a	n/a	n/a	n/a	n/a
364.5007	0.7	COLOR_NAME	36	Incongruent	niebieski	blue	czerwony	red	hit	n/a
365.1796	n/a	RESPONSE	n/a	n/a	n/a	n/a	n/a	n/a	n/a	blue
365.2007	1.0167	ITI	n/a	n/a	n/a	n/a	n/a	n/a	n/a	n/a
366.2174	0.5167	FIXCROSS	n/a	n/a	n/a	n/a	n/a	n/a	n/a	n/a
366.734	0.6667	COLOR_NAME	37	Neutral	żółty	yellow	Neutral	Neutral	incorrect	n/a
367.3711	n/a	RESPONSE	n/a	n/a	n/a	n/a	n/a	n/a	n/a	green
367.4007	1.0167	ITI	n/a	n/a	n/a	n/a	n/a	n/a	n/a	n/a
368.4174	0.5167	FIXCROSS	n/a	n/a	n/a	n/a	n/a	n/a	n/a	n/a
368.9341	0.55	COLOR_NAME	38	Neutral	zielony	green	Neutral	Neutral	hit	n/a
369.4506	n/a	RESPONSE	n/a	n/a	n/a	n/a	n/a	n/a	n/a	green
369.4841	1.0167	ITI	n/a	n/a	n/a	n/a	n/a	n/a	n/a	n/a
370.5007	0.5167	FIXCROSS	n/a	n/a	n/a	n/a	n/a	n/a	n/a	n/a
371.0174	0.7667	COLOR_NAME	39	Incongruent	niebieski	blue	czerwony	red	hit	n/a
371.754	n/a	RESPONSE	n/a	n/a	n/a	n/a	n/a	n/a	n/a	blue
371.7841	1.0167	ITI	n/a	n/a	n/a	n/a	n/a	n/a	n/a	n/a
372.8008	0.5167	FIXCROSS	n/a	n/a	n/a	n/a	n/a	n/a	n/a	n/a
373.3174	0.5167	COLOR_NAME	40	Incongruent	niebieski	blue	żółty	yellow	hit	n/a
373.8016	n/a	RESPONSE	n/a	n/a	n/a	n/a	n/a	n/a	n/a	blue
373.8341	1.0167	ITI	n/a	n/a	n/a	n/a	n/a	n/a	n/a	n/a
374.8508	0.5167	FIXCROSS	n/a	n/a	n/a	n/a	n/a	n/a	n/a	n/a
375.3675	0.5833	COLOR_NAME	41	Neutral	czerwony	red	Neutral	Neutral	hit	n/a
375.9291	n/a	RESPONSE	n/a	n/a	n/a	n/a	n/a	n/a	n/a	red
375.9508	1.0167	ITI	n/a	n/a	n/a	n/a	n/a	n/a	n/a	n/a
376.9675	0.5167	FIXCROSS	n/a	n/a	n/a	n/a	n/a	n/a	n/a	n/a
377.4842	0.9334	COLOR_NAME	42	Neutral	zielony	green	Neutral	Neutral	hit	n/a
378.3925	n/a	RESPONSE	n/a	n/a	n/a	n/a	n/a	n/a	n/a	green
378.4175	1.0167	ITI	n/a	n/a	n/a	n/a	n/a	n/a	n/a	n/a
379.4342	0.5167	FIXCROSS	n/a	n/a	n/a	n/a	n/a	n/a	n/a	n/a
379.9509	0.5833	COLOR_NAME	43	Incongruent	zielony	green	czerwony	red	hit	n/a
380.504	n/a	RESPONSE	n/a	n/a	n/a	n/a	n/a	n/a	n/a	green
380.5342	1.0167	ITI	n/a	n/a	n/a	n/a	n/a	n/a	n/a	n/a
381.5509	0.5167	FIXCROSS	n/a	n/a	n/a	n/a	n/a	n/a	n/a	n/a
382.0676	0.5	COLOR_NAME	44	Neutral	zielony	green	Neutral	Neutral	hit	n/a
382.5356	n/a	RESPONSE	n/a	n/a	n/a	n/a	n/a	n/a	n/a	green
382.5676	1.0167	ITI	n/a	n/a	n/a	n/a	n/a	n/a	n/a	n/a
383.5843	0.5167	FIXCROSS	n/a	n/a	n/a	n/a	n/a	n/a	n/a	n/a
384.1009	0.75	COLOR_NAME	45	Incongruent	niebieski	blue	zielony	green	hit	n/a
384.823	n/a	RESPONSE	n/a	n/a	n/a	n/a	n/a	n/a	n/a	blue
384.8509	1.0167	ITI	n/a	n/a	n/a	n/a	n/a	n/a	n/a	n/a
385.8676	0.5167	FIXCROSS	n/a	n/a	n/a	n/a	n/a	n/a	n/a	n/a
386.3843	0.5667	COLOR_NAME	46	Neutral	niebieski	blue	Neutral	Neutral	hit	n/a
386.9185	n/a	RESPONSE	n/a	n/a	n/a	n/a	n/a	n/a	n/a	blue
386.951	1.0167	ITI	n/a	n/a	n/a	n/a	n/a	n/a	n/a	n/a
387.9676	0.5167	FIXCROSS	n/a	n/a	n/a	n/a	n/a	n/a	n/a	n/a
388.4843	0.8833	COLOR_NAME	47	Incongruent	żółty	yellow	niebieski	blue	hit	n/a
389.35	n/a	RESPONSE	n/a	n/a	n/a	n/a	n/a	n/a	n/a	yellow
389.3677	1.0167	ITI	n/a	n/a	n/a	n/a	n/a	n/a	n/a	n/a
390.3843	0.5167	FIXCROSS	n/a	n/a	n/a	n/a	n/a	n/a	n/a	n/a
390.901	0.7333	COLOR_NAME	48	Incongruent	czerwony	red	żółty	yellow	hit	n/a
391.6055	n/a	RESPONSE	n/a	n/a	n/a	n/a	n/a	n/a	n/a	red
391.6344	1.0167	ITI	n/a	n/a	n/a	n/a	n/a	n/a	n/a	n/a
392.651	0.5167	FIXCROSS	n/a	n/a	n/a	n/a	n/a	n/a	n/a	n/a
393.1677	0.8667	COLOR_NAME	49	Neutral	żółty	yellow	Neutral	Neutral	hit	n/a
394.0049	n/a	RESPONSE	n/a	n/a	n/a	n/a	n/a	n/a	n/a	yellow
394.0344	1.0167	ITI	n/a	n/a	n/a	n/a	n/a	n/a	n/a	n/a
395.0511	0.5167	FIXCROSS	n/a	n/a	n/a	n/a	n/a	n/a	n/a	n/a
395.5677	0.55	COLOR_NAME	50	Neutral	niebieski	blue	Neutral	Neutral	hit	n/a
396.0844	n/a	RESPONSE	n/a	n/a	n/a	n/a	n/a	n/a	n/a	blue
396.1177	1.0167	ITI	n/a	n/a	n/a	n/a	n/a	n/a	n/a	n/a
397.1344	0.5167	FIXCROSS	n/a	n/a	n/a	n/a	n/a	n/a	n/a	n/a
397.6511	0.75	COLOR_NAME	51	Neutral	żółty	yellow	Neutral	Neutral	hit	n/a
398.3719	n/a	RESPONSE	n/a	n/a	n/a	n/a	n/a	n/a	n/a	yellow
398.4011	1.0167	ITI	n/a	n/a	n/a	n/a	n/a	n/a	n/a	n/a
399.4178	0.5167	FIXCROSS	n/a	n/a	n/a	n/a	n/a	n/a	n/a	n/a
399.9345	0.8167	COLOR_NAME	52	Neutral	czerwony	red	Neutral	Neutral	hit	n/a
400.7233	n/a	RESPONSE	n/a	n/a	n/a	n/a	n/a	n/a	n/a	red
400.7512	1.0167	ITI	n/a	n/a	n/a	n/a	n/a	n/a	n/a	n/a
401.7678	0.5167	FIXCROSS	n/a	n/a	n/a	n/a	n/a	n/a	n/a	n/a
402.2845	0.6667	COLOR_NAME	53	Neutral	żółty	yellow	Neutral	Neutral	hit	n/a
402.9309	n/a	RESPONSE	n/a	n/a	n/a	n/a	n/a	n/a	n/a	yellow
402.9512	1.0167	ITI	n/a	n/a	n/a	n/a	n/a	n/a	n/a	n/a
403.9679	0.5167	FIXCROSS	n/a	n/a	n/a	n/a	n/a	n/a	n/a	n/a
404.4845	0.5667	COLOR_NAME	54	Neutral	żółty	yellow	Neutral	Neutral	hit	n/a
405.0264	n/a	RESPONSE	n/a	n/a	n/a	n/a	n/a	n/a	n/a	yellow
405.0512	1.0167	ITI	n/a	n/a	n/a	n/a	n/a	n/a	n/a	n/a
406.0679	0.5167	FIXCROSS	n/a	n/a	n/a	n/a	n/a	n/a	n/a	n/a
406.5846	0.6667	COLOR_NAME	55	Incongruent	zielony	green	czerwony	red	hit	n/a
407.2179	n/a	RESPONSE	n/a	n/a	n/a	n/a	n/a	n/a	n/a	green
407.2512	1.0167	ITI	n/a	n/a	n/a	n/a	n/a	n/a	n/a	n/a
408.2679	0.5167	FIXCROSS	n/a	n/a	n/a	n/a	n/a	n/a	n/a	n/a
408.7846	0.85	COLOR_NAME	56	Incongruent	czerwony	red	zielony	green	hit	n/a
409.6013	n/a	RESPONSE	n/a	n/a	n/a	n/a	n/a	n/a	n/a	red
409.6346	1.0167	ITI	n/a	n/a	n/a	n/a	n/a	n/a	n/a	n/a
410.6513	0.5167	FIXCROSS	n/a	n/a	n/a	n/a	n/a	n/a	n/a	n/a
411.1679	0.5833	COLOR_NAME	57	Neutral	zielony	green	Neutral	Neutral	hit	n/a
411.7288	n/a	RESPONSE	n/a	n/a	n/a	n/a	n/a	n/a	n/a	green
411.7513	1.0167	ITI	n/a	n/a	n/a	n/a	n/a	n/a	n/a	n/a
412.768	0.5167	FIXCROSS	n/a	n/a	n/a	n/a	n/a	n/a	n/a	n/a
413.2847	0.6333	COLOR_NAME	58	Neutral	czerwony	red	Neutral	Neutral	hit	n/a
413.8883	n/a	RESPONSE	n/a	n/a	n/a	n/a	n/a	n/a	n/a	red
413.918	1.0167	ITI	n/a	n/a	n/a	n/a	n/a	n/a	n/a	n/a
414.9347	0.5167	FIXCROSS	n/a	n/a	n/a	n/a	n/a	n/a	n/a	n/a
415.4513	0.55	COLOR_NAME	59	Neutral	niebieski	blue	Neutral	Neutral	hit	n/a
415.9838	n/a	RESPONSE	n/a	n/a	n/a	n/a	n/a	n/a	n/a	blue
416.0013	1.0167	ITI	n/a	n/a	n/a	n/a	n/a	n/a	n/a	n/a
417.018	0.5167	FIXCROSS	n/a	n/a	n/a	n/a	n/a	n/a	n/a	n/a
417.5347	0.8	COLOR_NAME	60	Neutral	zielony	green	Neutral	Neutral	hit	n/a
418.3033	n/a	RESPONSE	n/a	n/a	n/a	n/a	n/a	n/a	n/a	green
418.3347	1.0167	ITI	n/a	n/a	n/a	n/a	n/a	n/a	n/a	n/a
419.3514	0.5167	FIXCROSS	n/a	n/a	n/a	n/a	n/a	n/a	n/a	n/a
419.8681	0.5833	COLOR_NAME	61	Incongruent	czerwony	red	zielony	green	hit	n/a
420.4308	n/a	RESPONSE	n/a	n/a	n/a	n/a	n/a	n/a	n/a	red
420.4514	1.0167	ITI	n/a	n/a	n/a	n/a	n/a	n/a	n/a	n/a
421.4681	0.5167	FIXCROSS	n/a	n/a	n/a	n/a	n/a	n/a	n/a	n/a
421.9848	0.6333	COLOR_NAME	62	Incongruent	czerwony	red	zielony	green	hit	n/a
422.5903	n/a	RESPONSE	n/a	n/a	n/a	n/a	n/a	n/a	n/a	red
422.6181	1.0167	ITI	n/a	n/a	n/a	n/a	n/a	n/a	n/a	n/a
423.6348	0.5167	FIXCROSS	n/a	n/a	n/a	n/a	n/a	n/a	n/a	n/a
424.1515	0.7333	COLOR_NAME	63	Incongruent	żółty	yellow	zielony	green	hit	n/a
424.8618	n/a	RESPONSE	n/a	n/a	n/a	n/a	n/a	n/a	n/a	yellow
424.8848	1.0167	ITI	n/a	n/a	n/a	n/a	n/a	n/a	n/a	n/a
425.9015	0.5167	FIXCROSS	n/a	n/a	n/a	n/a	n/a	n/a	n/a	n/a
426.4182	0.6667	COLOR_NAME	64	Incongruent	niebieski	blue	żółty	yellow	hit	n/a
427.0533	n/a	RESPONSE	n/a	n/a	n/a	n/a	n/a	n/a	n/a	blue
427.0848	1.0167	ITI	n/a	n/a	n/a	n/a	n/a	n/a	n/a	n/a
428.1015	0.5167	FIXCROSS	n/a	n/a	n/a	n/a	n/a	n/a	n/a	n/a
428.6182	0.7833	COLOR_NAME	65	Incongruent	żółty	yellow	zielony	green	hit	n/a
429.3727	n/a	RESPONSE	n/a	n/a	n/a	n/a	n/a	n/a	n/a	yellow
429.4015	1.0167	ITI	n/a	n/a	n/a	n/a	n/a	n/a	n/a	n/a
430.4182	0.5167	FIXCROSS	n/a	n/a	n/a	n/a	n/a	n/a	n/a	n/a
430.9349	1.0	COLOR_NAME	66	Neutral	czerwony	red	Neutral	Neutral	hit	n/a
431.9161	n/a	RESPONSE	n/a	n/a	n/a	n/a	n/a	n/a	n/a	red
431.9349	1.0167	ITI	n/a	n/a	n/a	n/a	n/a	n/a	n/a	n/a
432.9516	0.5167	FIXCROSS	n/a	n/a	n/a	n/a	n/a	n/a	n/a	n/a
433.4683	0.7	COLOR_NAME	67	Incongruent	czerwony	red	żółty	yellow	hit	n/a
434.1396	n/a	RESPONSE	n/a	n/a	n/a	n/a	n/a	n/a	n/a	red
434.1683	1.0167	ITI	n/a	n/a	n/a	n/a	n/a	n/a	n/a	n/a
435.1849	0.5167	FIXCROSS	n/a	n/a	n/a	n/a	n/a	n/a	n/a	n/a
435.7016	0.5	COLOR_NAME	68	Incongruent	czerwony	red	żółty	yellow	hit	n/a
436.1712	n/a	RESPONSE	n/a	n/a	n/a	n/a	n/a	n/a	n/a	red
436.2016	1.0167	ITI	n/a	n/a	n/a	n/a	n/a	n/a	n/a	n/a
437.2183	0.5167	FIXCROSS	n/a	n/a	n/a	n/a	n/a	n/a	n/a	n/a
437.735	0.7167	COLOR_NAME	69	Incongruent	zielony	green	niebieski	blue	hit	n/a
438.4267	n/a	RESPONSE	n/a	n/a	n/a	n/a	n/a	n/a	n/a	green
438.4516	1.0167	ITI	n/a	n/a	n/a	n/a	n/a	n/a	n/a	n/a
439.4683	0.5167	FIXCROSS	n/a	n/a	n/a	n/a	n/a	n/a	n/a	n/a
439.985	0.6167	COLOR_NAME	70	Incongruent	żółty	yellow	niebieski	blue	hit	n/a
440.5701	n/a	RESPONSE	n/a	n/a	n/a	n/a	n/a	n/a	n/a	yellow
440.6017	1.0167	ITI	n/a	n/a	n/a	n/a	n/a	n/a	n/a	n/a
441.6184	0.5167	FIXCROSS	n/a	n/a	n/a	n/a	n/a	n/a	n/a	n/a
442.135	0.8833	COLOR_NAME	71	Incongruent	żółty	yellow	czerwony	red	hit	n/a
442.9856	n/a	RESPONSE	n/a	n/a	n/a	n/a	n/a	n/a	n/a	yellow
443.0184	1.0167	ITI	n/a	n/a	n/a	n/a	n/a	n/a	n/a	n/a
444.0351	0.5167	FIXCROSS	n/a	n/a	n/a	n/a	n/a	n/a	n/a	n/a
444.5517	0.8167	COLOR_NAME	72	Incongruent	niebieski	blue	czerwony	red	hit	n/a
445.337	n/a	RESPONSE	n/a	n/a	n/a	n/a	n/a	n/a	n/a	blue
445.3684	1.0333	ITI	n/a	n/a	n/a	n/a	n/a	n/a	n/a	n/a
450.8717	n/a	RESPONSE	n/a	n/a	n/a	n/a	n/a	n/a	n/a	n/a
