onset	duration	trial_type	trial_number	stroop_condition	stim_text(PL)	stim_text(eng)	stim_color(PL)	stim_color(eng)	response_type	response_color
0.0	n/a	RESPONSE	n/a	n/a	n/a	n/a	n/a	n/a	n/a	n/a
0.07	1.0333	ITI	n/a	n/a	n/a	n/a	n/a	n/a	n/a	n/a
1.1033	0.5167	FIXCROSS	n/a	n/a	n/a	n/a	n/a	n/a	n/a	n/a
1.62	1.15	T_INK	1	Neutral	xxxxxxxxx	xxxxxxxxx	czerwony	red	hit	n/a
2.7457	n/a	RESPONSE	n/a	n/a	n/a	n/a	n/a	n/a	n/a	red
2.77	0.5166	FEEDBACK	n/a	n/a	n/a	n/a	n/a	n/a	n/a	n/a
3.2866	1.0167	ITI	n/a	n/a	n/a	n/a	n/a	n/a	n/a	n/a
4.3033	0.5167	FIXCROSS	n/a	n/a	n/a	n/a	n/a	n/a	n/a	n/a
4.82	1.2834	T_INK	2	Incongruent	niebieski	blue	zielony	green	hit	n/a
6.0662	n/a	RESPONSE	n/a	n/a	n/a	n/a	n/a	n/a	n/a	green
6.1033	0.5166	FEEDBACK	n/a	n/a	n/a	n/a	n/a	n/a	n/a	n/a
6.62	1.0167	ITI	n/a	n/a	n/a	n/a	n/a	n/a	n/a	n/a
7.6367	0.5167	FIXCROSS	n/a	n/a	n/a	n/a	n/a	n/a	n/a	n/a
8.1534	0.9833	T_INK	3	Incongruent	czerwony	red	niebieski	blue	hit	n/a
9.1154	n/a	RESPONSE	n/a	n/a	n/a	n/a	n/a	n/a	n/a	blue
9.1367	0.5167	FEEDBACK	n/a	n/a	n/a	n/a	n/a	n/a	n/a	n/a
9.6534	1.0167	ITI	n/a	n/a	n/a	n/a	n/a	n/a	n/a	n/a
10.67	0.5167	FIXCROSS	n/a	n/a	n/a	n/a	n/a	n/a	n/a	n/a
11.1867	1.0667	T_INK	4	Incongruent	czerwony	red	zielony	green	hit	n/a
12.2282	n/a	RESPONSE	n/a	n/a	n/a	n/a	n/a	n/a	n/a	green
12.2534	0.5166	FEEDBACK	n/a	n/a	n/a	n/a	n/a	n/a	n/a	n/a
12.77	1.0167	ITI	n/a	n/a	n/a	n/a	n/a	n/a	n/a	n/a
13.7867	0.5166	FIXCROSS	n/a	n/a	n/a	n/a	n/a	n/a	n/a	n/a
14.3034	0.8333	T_INK	5	Neutral	xxxxxxxx	xxxxxxxx	żółty	yellow	hit	n/a
15.1178	n/a	RESPONSE	n/a	n/a	n/a	n/a	n/a	n/a	n/a	yellow
15.1367	0.5167	FEEDBACK	n/a	n/a	n/a	n/a	n/a	n/a	n/a	n/a
15.6534	1.0166	ITI	n/a	n/a	n/a	n/a	n/a	n/a	n/a	n/a
16.67	0.5167	FIXCROSS	n/a	n/a	n/a	n/a	n/a	n/a	n/a	n/a
17.1867	0.7666	T_INK	6	Neutral	xxxxx	xxxxx	czerwony	red	hit	n/a
17.9274	n/a	RESPONSE	n/a	n/a	n/a	n/a	n/a	n/a	n/a	red
17.9534	0.5167	FEEDBACK	n/a	n/a	n/a	n/a	n/a	n/a	n/a	n/a
18.4701	1.0167	ITI	n/a	n/a	n/a	n/a	n/a	n/a	n/a	n/a
19.4867	0.5167	FIXCROSS	n/a	n/a	n/a	n/a	n/a	n/a	n/a	n/a
20.0034	0.8333	T_INK	7	Neutral	xxxxx	xxxxx	zielony	green	hit	n/a
20.8169	n/a	RESPONSE	n/a	n/a	n/a	n/a	n/a	n/a	n/a	green
20.8368	0.5167	FEEDBACK	n/a	n/a	n/a	n/a	n/a	n/a	n/a	n/a
21.3534	1.0166	ITI	n/a	n/a	n/a	n/a	n/a	n/a	n/a	n/a
22.3701	0.5167	FIXCROSS	n/a	n/a	n/a	n/a	n/a	n/a	n/a	n/a
22.8868	0.6667	T_INK	8	Neutral	xxxxxxxxx	xxxxxxxxx	zielony	green	hit	n/a
23.5307	n/a	RESPONSE	n/a	n/a	n/a	n/a	n/a	n/a	n/a	green
23.5535	0.5166	FEEDBACK	n/a	n/a	n/a	n/a	n/a	n/a	n/a	n/a
24.0701	1.0334	ITI	n/a	n/a	n/a	n/a	n/a	n/a	n/a	n/a
25.1035	0.5166	FIXCROSS	n/a	n/a	n/a	n/a	n/a	n/a	n/a	n/a
25.6201	1.3167	T_INK	9	Incongruent	żółty	yellow	czerwony	red	hit	n/a
26.915	n/a	RESPONSE	n/a	n/a	n/a	n/a	n/a	n/a	n/a	red
26.9368	0.5167	FEEDBACK	n/a	n/a	n/a	n/a	n/a	n/a	n/a	n/a
27.4535	1.0167	ITI	n/a	n/a	n/a	n/a	n/a	n/a	n/a	n/a
28.4702	0.5167	FIXCROSS	n/a	n/a	n/a	n/a	n/a	n/a	n/a	n/a
28.9868	0.8333	T_INK	10	Incongruent	zielony	green	czerwony	red	hit	n/a
29.7887	n/a	RESPONSE	n/a	n/a	n/a	n/a	n/a	n/a	n/a	red
29.8202	0.5167	FEEDBACK	n/a	n/a	n/a	n/a	n/a	n/a	n/a	n/a
30.3368	1.0167	ITI	n/a	n/a	n/a	n/a	n/a	n/a	n/a	n/a
31.3535	0.5166	FIXCROSS	n/a	n/a	n/a	n/a	n/a	n/a	n/a	n/a
31.8702	0.7834	T_INK	11	Neutral	xxxxxxx	xxxxxxx	czerwony	red	hit	n/a
32.6302	n/a	RESPONSE	n/a	n/a	n/a	n/a	n/a	n/a	n/a	red
32.6535	0.5167	FEEDBACK	n/a	n/a	n/a	n/a	n/a	n/a	n/a	n/a
33.1702	1.0166	ITI	n/a	n/a	n/a	n/a	n/a	n/a	n/a	n/a
34.1868	0.5167	FIXCROSS	n/a	n/a	n/a	n/a	n/a	n/a	n/a	n/a
34.7035	1.0167	T_INK	12	Incongruent	żółty	yellow	zielony	green	hit	n/a
35.6952	n/a	RESPONSE	n/a	n/a	n/a	n/a	n/a	n/a	n/a	green
35.7202	0.5167	FEEDBACK	n/a	n/a	n/a	n/a	n/a	n/a	n/a	n/a
36.2369	1.0333	ITI	n/a	n/a	n/a	n/a	n/a	n/a	n/a	n/a
39.8618	n/a	RESPONSE	n/a	n/a	n/a	n/a	n/a	n/a	n/a	n/a
39.9202	1.0166	ITI	n/a	n/a	n/a	n/a	n/a	n/a	n/a	n/a
40.9369	0.5167	FIXCROSS	n/a	n/a	n/a	n/a	n/a	n/a	n/a	n/a
41.4536	1.05	INK	1	Incongruent	zielony	green	żółty	yellow	hit	n/a
42.4799	n/a	RESPONSE	n/a	n/a	n/a	n/a	n/a	n/a	n/a	yellow
42.5036	1.0166	ITI	n/a	n/a	n/a	n/a	n/a	n/a	n/a	n/a
43.5202	0.5167	FIXCROSS	n/a	n/a	n/a	n/a	n/a	n/a	n/a	n/a
44.0369	0.7667	INK	2	Neutral	xxxxx	xxxxx	zielony	green	hit	n/a
44.7786	n/a	RESPONSE	n/a	n/a	n/a	n/a	n/a	n/a	n/a	green
44.8036	1.0166	ITI	n/a	n/a	n/a	n/a	n/a	n/a	n/a	n/a
45.8203	0.5167	FIXCROSS	n/a	n/a	n/a	n/a	n/a	n/a	n/a	n/a
46.337	0.5833	INK	3	Neutral	xxxxxxxxx	xxxxxxxxx	czerwony	red	hit	n/a
46.9018	n/a	RESPONSE	n/a	n/a	n/a	n/a	n/a	n/a	n/a	red
46.9203	1.0166	ITI	n/a	n/a	n/a	n/a	n/a	n/a	n/a	n/a
47.9369	0.5167	FIXCROSS	n/a	n/a	n/a	n/a	n/a	n/a	n/a	n/a
48.4536	0.7166	INK	4	Incongruent	żółty	yellow	zielony	green	hit	n/a
49.1369	n/a	RESPONSE	n/a	n/a	n/a	n/a	n/a	n/a	n/a	green
49.1703	1.0167	ITI	n/a	n/a	n/a	n/a	n/a	n/a	n/a	n/a
50.187	0.5167	FIXCROSS	n/a	n/a	n/a	n/a	n/a	n/a	n/a	n/a
50.7037	0.9166	INK	5	Incongruent	czerwony	red	żółty	yellow	hit	n/a
51.5951	n/a	RESPONSE	n/a	n/a	n/a	n/a	n/a	n/a	n/a	yellow
51.6203	1.0167	ITI	n/a	n/a	n/a	n/a	n/a	n/a	n/a	n/a
52.637	0.5167	FIXCROSS	n/a	n/a	n/a	n/a	n/a	n/a	n/a	n/a
53.1537	0.75	INK	6	Incongruent	zielony	green	czerwony	red	hit	n/a
53.878	n/a	RESPONSE	n/a	n/a	n/a	n/a	n/a	n/a	n/a	red
53.9036	1.0167	ITI	n/a	n/a	n/a	n/a	n/a	n/a	n/a	n/a
54.9204	0.5167	FIXCROSS	n/a	n/a	n/a	n/a	n/a	n/a	n/a	n/a
55.437	0.95	INK	7	Incongruent	niebieski	blue	zielony	green	hit	n/a
56.3684	n/a	RESPONSE	n/a	n/a	n/a	n/a	n/a	n/a	n/a	green
56.387	1.0167	ITI	n/a	n/a	n/a	n/a	n/a	n/a	n/a	n/a
57.4037	0.5167	FIXCROSS	n/a	n/a	n/a	n/a	n/a	n/a	n/a	n/a
57.9204	1.0	INK	8	Incongruent	czerwony	red	niebieski	blue	hit	n/a
58.8906	n/a	RESPONSE	n/a	n/a	n/a	n/a	n/a	n/a	n/a	blue
58.9204	1.0167	ITI	n/a	n/a	n/a	n/a	n/a	n/a	n/a	n/a
59.937	0.5166	FIXCROSS	n/a	n/a	n/a	n/a	n/a	n/a	n/a	n/a
60.4537	0.85	INK	9	Incongruent	zielony	green	niebieski	blue	hit	n/a
61.2693	n/a	RESPONSE	n/a	n/a	n/a	n/a	n/a	n/a	n/a	blue
61.3037	1.0167	ITI	n/a	n/a	n/a	n/a	n/a	n/a	n/a	n/a
62.3204	0.5167	FIXCROSS	n/a	n/a	n/a	n/a	n/a	n/a	n/a	n/a
62.8371	0.8	INK	10	Incongruent	czerwony	red	niebieski	blue	hit	n/a
63.6159	n/a	RESPONSE	n/a	n/a	n/a	n/a	n/a	n/a	n/a	blue
63.6371	1.0167	ITI	n/a	n/a	n/a	n/a	n/a	n/a	n/a	n/a
64.6537	0.5166	FIXCROSS	n/a	n/a	n/a	n/a	n/a	n/a	n/a	n/a
65.1704	0.6667	INK	11	Incongruent	niebieski	blue	czerwony	red	hit	n/a
65.8189	n/a	RESPONSE	n/a	n/a	n/a	n/a	n/a	n/a	n/a	red
65.8371	1.0167	ITI	n/a	n/a	n/a	n/a	n/a	n/a	n/a	n/a
66.8537	0.5167	FIXCROSS	n/a	n/a	n/a	n/a	n/a	n/a	n/a	n/a
67.3704	0.7333	INK	12	Neutral	xxxxxxx	xxxxxxx	żółty	yellow	hit	n/a
68.0698	n/a	RESPONSE	n/a	n/a	n/a	n/a	n/a	n/a	n/a	yellow
68.1038	1.0166	ITI	n/a	n/a	n/a	n/a	n/a	n/a	n/a	n/a
69.1204	0.5167	FIXCROSS	n/a	n/a	n/a	n/a	n/a	n/a	n/a	n/a
69.6371	0.7833	INK	13	Neutral	xxxxxxxxx	xxxxxxxxx	czerwony	red	hit	n/a
70.4006	n/a	RESPONSE	n/a	n/a	n/a	n/a	n/a	n/a	n/a	red
70.4205	1.0167	ITI	n/a	n/a	n/a	n/a	n/a	n/a	n/a	n/a
71.4371	0.5167	FIXCROSS	n/a	n/a	n/a	n/a	n/a	n/a	n/a	n/a
71.9538	0.7	INK	14	Neutral	xxxxxxx	xxxxxxx	żółty	yellow	hit	n/a
72.6356	n/a	RESPONSE	n/a	n/a	n/a	n/a	n/a	n/a	n/a	yellow
72.6538	1.0167	ITI	n/a	n/a	n/a	n/a	n/a	n/a	n/a	n/a
73.6705	0.5167	FIXCROSS	n/a	n/a	n/a	n/a	n/a	n/a	n/a	n/a
74.1872	0.5833	INK	15	Neutral	xxxxxxxxx	xxxxxxxxx	zielony	green	hit	n/a
74.7428	n/a	RESPONSE	n/a	n/a	n/a	n/a	n/a	n/a	n/a	green
74.7705	1.0167	ITI	n/a	n/a	n/a	n/a	n/a	n/a	n/a	n/a
75.7872	0.5167	FIXCROSS	n/a	n/a	n/a	n/a	n/a	n/a	n/a	n/a
76.3038	0.5166	INK	16	Incongruent	zielony	green	czerwony	red	hit	n/a
76.8021	n/a	RESPONSE	n/a	n/a	n/a	n/a	n/a	n/a	n/a	red
76.8205	1.0167	ITI	n/a	n/a	n/a	n/a	n/a	n/a	n/a	n/a
77.8372	0.5166	FIXCROSS	n/a	n/a	n/a	n/a	n/a	n/a	n/a	n/a
78.3538	0.9834	INK	17	Incongruent	niebieski	blue	zielony	green	hit	n/a
79.3084	n/a	RESPONSE	n/a	n/a	n/a	n/a	n/a	n/a	n/a	green
79.3372	1.0167	ITI	n/a	n/a	n/a	n/a	n/a	n/a	n/a	n/a
80.3539	0.5167	FIXCROSS	n/a	n/a	n/a	n/a	n/a	n/a	n/a	n/a
80.8705	0.7333	INK	18	Neutral	xxxxxxxx	xxxxxxxx	niebieski	blue	hit	n/a
81.5753	n/a	RESPONSE	n/a	n/a	n/a	n/a	n/a	n/a	n/a	blue
81.6039	1.0166	ITI	n/a	n/a	n/a	n/a	n/a	n/a	n/a	n/a
82.6205	0.5167	FIXCROSS	n/a	n/a	n/a	n/a	n/a	n/a	n/a	n/a
83.1372	0.6	INK	19	Neutral	xxxxx	xxxxx	czerwony	red	hit	n/a
83.7145	n/a	RESPONSE	n/a	n/a	n/a	n/a	n/a	n/a	n/a	red
83.7372	1.0167	ITI	n/a	n/a	n/a	n/a	n/a	n/a	n/a	n/a
84.7539	0.5167	FIXCROSS	n/a	n/a	n/a	n/a	n/a	n/a	n/a	n/a
85.2706	0.7667	INK	20	Neutral	xxxxx	xxxxx	czerwony	red	hit	n/a
86.0133	n/a	RESPONSE	n/a	n/a	n/a	n/a	n/a	n/a	n/a	red
86.0372	1.0167	ITI	n/a	n/a	n/a	n/a	n/a	n/a	n/a	n/a
87.0539	0.5167	FIXCROSS	n/a	n/a	n/a	n/a	n/a	n/a	n/a	n/a
87.5706	0.75	INK	21	Neutral	xxxxxxxxx	xxxxxxxxx	żółty	yellow	hit	n/a
88.2961	n/a	RESPONSE	n/a	n/a	n/a	n/a	n/a	n/a	n/a	yellow
88.3206	1.0167	ITI	n/a	n/a	n/a	n/a	n/a	n/a	n/a	n/a
89.3373	0.5167	FIXCROSS	n/a	n/a	n/a	n/a	n/a	n/a	n/a	n/a
89.8539	0.6666	INK	22	Incongruent	czerwony	red	żółty	yellow	hit	n/a
90.4991	n/a	RESPONSE	n/a	n/a	n/a	n/a	n/a	n/a	n/a	yellow
90.5206	1.0167	ITI	n/a	n/a	n/a	n/a	n/a	n/a	n/a	n/a
91.5373	0.5167	FIXCROSS	n/a	n/a	n/a	n/a	n/a	n/a	n/a	n/a
92.054	0.6667	INK	23	Neutral	xxxxxxxx	xxxxxxxx	zielony	green	hit	n/a
92.7022	n/a	RESPONSE	n/a	n/a	n/a	n/a	n/a	n/a	n/a	green
92.7206	1.0167	ITI	n/a	n/a	n/a	n/a	n/a	n/a	n/a	n/a
93.7373	0.5167	FIXCROSS	n/a	n/a	n/a	n/a	n/a	n/a	n/a	n/a
94.254	0.75	INK	24	Neutral	xxxxxxxxx	xxxxxxxxx	żółty	yellow	hit	n/a
94.985	n/a	RESPONSE	n/a	n/a	n/a	n/a	n/a	n/a	n/a	yellow
95.004	1.0166	ITI	n/a	n/a	n/a	n/a	n/a	n/a	n/a	n/a
96.0206	0.5167	FIXCROSS	n/a	n/a	n/a	n/a	n/a	n/a	n/a	n/a
96.5373	0.5667	INK	25	Neutral	xxxxxxxx	xxxxxxxx	żółty	yellow	hit	n/a
97.0762	n/a	RESPONSE	n/a	n/a	n/a	n/a	n/a	n/a	n/a	yellow
97.104	1.0166	ITI	n/a	n/a	n/a	n/a	n/a	n/a	n/a	n/a
98.1206	0.5167	FIXCROSS	n/a	n/a	n/a	n/a	n/a	n/a	n/a	n/a
98.6373	0.7	INK	26	Incongruent	żółty	yellow	zielony	green	hit	n/a
99.3111	n/a	RESPONSE	n/a	n/a	n/a	n/a	n/a	n/a	n/a	green
99.3373	1.0167	ITI	n/a	n/a	n/a	n/a	n/a	n/a	n/a	n/a
100.354	0.5166	FIXCROSS	n/a	n/a	n/a	n/a	n/a	n/a	n/a	n/a
100.8706	0.55	INK	27	Neutral	xxxxx	xxxxx	zielony	green	hit	n/a
101.4025	n/a	RESPONSE	n/a	n/a	n/a	n/a	n/a	n/a	n/a	green
101.4207	1.0167	ITI	n/a	n/a	n/a	n/a	n/a	n/a	n/a	n/a
102.4374	0.5166	FIXCROSS	n/a	n/a	n/a	n/a	n/a	n/a	n/a	n/a
102.954	0.75	INK	28	Incongruent	zielony	green	żółty	yellow	hit	n/a
103.6853	n/a	RESPONSE	n/a	n/a	n/a	n/a	n/a	n/a	n/a	yellow
103.704	1.0167	ITI	n/a	n/a	n/a	n/a	n/a	n/a	n/a	n/a
104.7207	0.5166	FIXCROSS	n/a	n/a	n/a	n/a	n/a	n/a	n/a	n/a
105.2373	0.7667	INK	29	Neutral	xxxxxxx	xxxxxxx	niebieski	blue	hit	n/a
105.984	n/a	RESPONSE	n/a	n/a	n/a	n/a	n/a	n/a	n/a	blue
106.004	1.0167	ITI	n/a	n/a	n/a	n/a	n/a	n/a	n/a	n/a
107.0207	0.5167	FIXCROSS	n/a	n/a	n/a	n/a	n/a	n/a	n/a	n/a
107.5374	0.6167	INK	30	Neutral	xxxxxxx	xxxxxxx	żółty	yellow	hit	n/a
108.1232	n/a	RESPONSE	n/a	n/a	n/a	n/a	n/a	n/a	n/a	yellow
108.1541	1.0167	ITI	n/a	n/a	n/a	n/a	n/a	n/a	n/a	n/a
109.1707	0.5167	FIXCROSS	n/a	n/a	n/a	n/a	n/a	n/a	n/a	n/a
109.6874	0.6167	INK	31	Incongruent	zielony	green	czerwony	red	hit	n/a
110.2783	n/a	RESPONSE	n/a	n/a	n/a	n/a	n/a	n/a	n/a	red
110.3041	1.0167	ITI	n/a	n/a	n/a	n/a	n/a	n/a	n/a	n/a
111.3207	0.5166	FIXCROSS	n/a	n/a	n/a	n/a	n/a	n/a	n/a	n/a
111.8374	0.85	INK	32	Neutral	xxxxxxxxx	xxxxxxxxx	zielony	green	hit	n/a
112.6569	n/a	RESPONSE	n/a	n/a	n/a	n/a	n/a	n/a	n/a	green
112.6874	1.0167	ITI	n/a	n/a	n/a	n/a	n/a	n/a	n/a	n/a
113.7041	0.5167	FIXCROSS	n/a	n/a	n/a	n/a	n/a	n/a	n/a	n/a
114.2208	0.7333	INK	33	Incongruent	niebieski	blue	żółty	yellow	hit	n/a
114.9239	n/a	RESPONSE	n/a	n/a	n/a	n/a	n/a	n/a	n/a	yellow
114.9541	1.0167	ITI	n/a	n/a	n/a	n/a	n/a	n/a	n/a	n/a
115.9708	0.5167	FIXCROSS	n/a	n/a	n/a	n/a	n/a	n/a	n/a	n/a
116.4875	0.7833	INK	34	Incongruent	niebieski	blue	zielony	green	hit	n/a
117.2386	n/a	RESPONSE	n/a	n/a	n/a	n/a	n/a	n/a	n/a	green
117.2708	1.0166	ITI	n/a	n/a	n/a	n/a	n/a	n/a	n/a	n/a
118.2874	0.5167	FIXCROSS	n/a	n/a	n/a	n/a	n/a	n/a	n/a	n/a
118.8041	0.7167	INK	35	Incongruent	niebieski	blue	czerwony	red	hit	n/a
119.4896	n/a	RESPONSE	n/a	n/a	n/a	n/a	n/a	n/a	n/a	red
119.5208	1.0167	ITI	n/a	n/a	n/a	n/a	n/a	n/a	n/a	n/a
120.5375	0.5167	FIXCROSS	n/a	n/a	n/a	n/a	n/a	n/a	n/a	n/a
121.0542	0.6167	INK	36	Neutral	xxxxxxx	xxxxxxx	czerwony	red	hit	n/a
121.6446	n/a	RESPONSE	n/a	n/a	n/a	n/a	n/a	n/a	n/a	red
121.6708	1.0167	ITI	n/a	n/a	n/a	n/a	n/a	n/a	n/a	n/a
122.6875	0.5166	FIXCROSS	n/a	n/a	n/a	n/a	n/a	n/a	n/a	n/a
123.2041	0.7167	INK	37	Incongruent	czerwony	red	zielony	green	hit	n/a
123.8955	n/a	RESPONSE	n/a	n/a	n/a	n/a	n/a	n/a	n/a	green
123.9208	1.0167	ITI	n/a	n/a	n/a	n/a	n/a	n/a	n/a	n/a
124.9375	0.5167	FIXCROSS	n/a	n/a	n/a	n/a	n/a	n/a	n/a	n/a
125.4542	0.8833	INK	38	Incongruent	zielony	green	niebieski	blue	hit	n/a
126.306	n/a	RESPONSE	n/a	n/a	n/a	n/a	n/a	n/a	n/a	blue
126.3375	1.0167	ITI	n/a	n/a	n/a	n/a	n/a	n/a	n/a	n/a
127.3542	0.5167	FIXCROSS	n/a	n/a	n/a	n/a	n/a	n/a	n/a	n/a
127.8709	0.6	INK	39	Neutral	xxxxx	xxxxx	niebieski	blue	hit	n/a
128.4453	n/a	RESPONSE	n/a	n/a	n/a	n/a	n/a	n/a	n/a	blue
128.4709	1.0167	ITI	n/a	n/a	n/a	n/a	n/a	n/a	n/a	n/a
129.4876	0.5167	FIXCROSS	n/a	n/a	n/a	n/a	n/a	n/a	n/a	n/a
130.0042	0.6833	INK	40	Incongruent	żółty	yellow	czerwony	red	hit	n/a
130.6642	n/a	RESPONSE	n/a	n/a	n/a	n/a	n/a	n/a	n/a	red
130.6876	1.0167	ITI	n/a	n/a	n/a	n/a	n/a	n/a	n/a	n/a
131.7042	0.5167	FIXCROSS	n/a	n/a	n/a	n/a	n/a	n/a	n/a	n/a
132.2209	0.8	INK	41	Neutral	xxxxxxx	xxxxxxx	niebieski	blue	hit	n/a
132.9949	n/a	RESPONSE	n/a	n/a	n/a	n/a	n/a	n/a	n/a	blue
133.0209	1.0167	ITI	n/a	n/a	n/a	n/a	n/a	n/a	n/a	n/a
134.0376	0.5167	FIXCROSS	n/a	n/a	n/a	n/a	n/a	n/a	n/a	n/a
134.5543	0.7	INK	42	Neutral	xxxxxxxx	xxxxxxxx	żółty	yellow	hit	n/a
135.2299	n/a	RESPONSE	n/a	n/a	n/a	n/a	n/a	n/a	n/a	yellow
135.2543	1.0166	ITI	n/a	n/a	n/a	n/a	n/a	n/a	n/a	n/a
136.2709	0.5167	FIXCROSS	n/a	n/a	n/a	n/a	n/a	n/a	n/a	n/a
136.7876	0.5833	INK	43	Neutral	xxxxxxxxx	xxxxxxxxx	czerwony	red	hit	n/a
137.3532	n/a	RESPONSE	n/a	n/a	n/a	n/a	n/a	n/a	n/a	red
137.3709	1.0167	ITI	n/a	n/a	n/a	n/a	n/a	n/a	n/a	n/a
138.3876	0.5167	FIXCROSS	n/a	n/a	n/a	n/a	n/a	n/a	n/a	n/a
138.9043	0.6167	INK	44	Incongruent	niebieski	blue	czerwony	red	hit	n/a
139.4924	n/a	RESPONSE	n/a	n/a	n/a	n/a	n/a	n/a	n/a	red
139.521	1.0167	ITI	n/a	n/a	n/a	n/a	n/a	n/a	n/a	n/a
140.5376	0.5167	FIXCROSS	n/a	n/a	n/a	n/a	n/a	n/a	n/a	n/a
141.0543	0.8667	INK	45	Neutral	xxxxx	xxxxx	zielony	green	hit	n/a
141.9028	n/a	RESPONSE	n/a	n/a	n/a	n/a	n/a	n/a	n/a	green
141.921	1.0167	ITI	n/a	n/a	n/a	n/a	n/a	n/a	n/a	n/a
142.9376	0.5167	FIXCROSS	n/a	n/a	n/a	n/a	n/a	n/a	n/a	n/a
143.4543	0.55	INK	46	Neutral	xxxxx	xxxxx	niebieski	blue	hit	n/a
143.9782	n/a	RESPONSE	n/a	n/a	n/a	n/a	n/a	n/a	n/a	blue
144.0043	1.0167	ITI	n/a	n/a	n/a	n/a	n/a	n/a	n/a	n/a
145.021	0.5167	FIXCROSS	n/a	n/a	n/a	n/a	n/a	n/a	n/a	n/a
145.5377	0.7167	INK	47	Neutral	xxxxxxxxx	xxxxxxxxx	zielony	green	hit	n/a
146.229	n/a	RESPONSE	n/a	n/a	n/a	n/a	n/a	n/a	n/a	green
146.2543	1.0167	ITI	n/a	n/a	n/a	n/a	n/a	n/a	n/a	n/a
147.271	0.5167	FIXCROSS	n/a	n/a	n/a	n/a	n/a	n/a	n/a	n/a
147.7877	0.8667	INK	48	Incongruent	czerwony	red	niebieski	blue	hit	n/a
148.6236	n/a	RESPONSE	n/a	n/a	n/a	n/a	n/a	n/a	n/a	blue
148.6544	1.0167	ITI	n/a	n/a	n/a	n/a	n/a	n/a	n/a	n/a
149.671	0.5167	FIXCROSS	n/a	n/a	n/a	n/a	n/a	n/a	n/a	n/a
150.1877	0.6833	INK	49	Incongruent	żółty	yellow	zielony	green	hit	n/a
150.8426	n/a	RESPONSE	n/a	n/a	n/a	n/a	n/a	n/a	n/a	green
150.871	1.0167	ITI	n/a	n/a	n/a	n/a	n/a	n/a	n/a	n/a
151.8877	0.5166	FIXCROSS	n/a	n/a	n/a	n/a	n/a	n/a	n/a	n/a
152.4043	0.7834	INK	50	Incongruent	niebieski	blue	żółty	yellow	hit	n/a
153.1573	n/a	RESPONSE	n/a	n/a	n/a	n/a	n/a	n/a	n/a	yellow
153.1877	1.0167	ITI	n/a	n/a	n/a	n/a	n/a	n/a	n/a	n/a
154.2044	0.5167	FIXCROSS	n/a	n/a	n/a	n/a	n/a	n/a	n/a	n/a
154.7211	0.7	INK	51	Incongruent	czerwony	red	zielony	green	hit	n/a
155.3923	n/a	RESPONSE	n/a	n/a	n/a	n/a	n/a	n/a	n/a	green
155.4211	1.0166	ITI	n/a	n/a	n/a	n/a	n/a	n/a	n/a	n/a
156.4377	0.5167	FIXCROSS	n/a	n/a	n/a	n/a	n/a	n/a	n/a	n/a
156.9544	0.6834	INK	52	Neutral	xxxxxxx	xxxxxxx	niebieski	blue	hit	n/a
157.6113	n/a	RESPONSE	n/a	n/a	n/a	n/a	n/a	n/a	n/a	blue
157.6377	1.0167	ITI	n/a	n/a	n/a	n/a	n/a	n/a	n/a	n/a
158.6544	0.5167	FIXCROSS	n/a	n/a	n/a	n/a	n/a	n/a	n/a	n/a
159.1711	0.8167	INK	53	Incongruent	żółty	yellow	czerwony	red	hit	n/a
159.9579	n/a	RESPONSE	n/a	n/a	n/a	n/a	n/a	n/a	n/a	red
159.9878	1.0167	ITI	n/a	n/a	n/a	n/a	n/a	n/a	n/a	n/a
161.0044	0.5167	FIXCROSS	n/a	n/a	n/a	n/a	n/a	n/a	n/a	n/a
161.5211	0.5667	INK	54	Neutral	xxxxx	xxxxx	czerwony	red	hit	n/a
162.0651	n/a	RESPONSE	n/a	n/a	n/a	n/a	n/a	n/a	n/a	red
162.0878	1.0167	ITI	n/a	n/a	n/a	n/a	n/a	n/a	n/a	n/a
163.1045	0.5167	FIXCROSS	n/a	n/a	n/a	n/a	n/a	n/a	n/a	n/a
163.6211	0.6833	INK	55	Neutral	xxxxxxxx	xxxxxxxx	żółty	yellow	hit	n/a
164.2841	n/a	RESPONSE	n/a	n/a	n/a	n/a	n/a	n/a	n/a	yellow
164.3045	1.0167	ITI	n/a	n/a	n/a	n/a	n/a	n/a	n/a	n/a
165.3211	0.5167	FIXCROSS	n/a	n/a	n/a	n/a	n/a	n/a	n/a	n/a
165.8378	0.6833	INK	56	Neutral	xxxxxxxx	xxxxxxxx	niebieski	blue	hit	n/a
166.503	n/a	RESPONSE	n/a	n/a	n/a	n/a	n/a	n/a	n/a	blue
166.5211	1.0167	ITI	n/a	n/a	n/a	n/a	n/a	n/a	n/a	n/a
167.5378	0.5166	FIXCROSS	n/a	n/a	n/a	n/a	n/a	n/a	n/a	n/a
168.0545	0.7167	INK	57	Neutral	xxxxxxxxx	xxxxxxxxx	żółty	yellow	hit	n/a
168.738	n/a	RESPONSE	n/a	n/a	n/a	n/a	n/a	n/a	n/a	yellow
168.7712	1.0167	ITI	n/a	n/a	n/a	n/a	n/a	n/a	n/a	n/a
169.7878	0.5167	FIXCROSS	n/a	n/a	n/a	n/a	n/a	n/a	n/a	n/a
170.3045	0.65	INK	58	Incongruent	czerwony	red	zielony	green	hit	n/a
170.9251	n/a	RESPONSE	n/a	n/a	n/a	n/a	n/a	n/a	n/a	green
170.9545	1.0167	ITI	n/a	n/a	n/a	n/a	n/a	n/a	n/a	n/a
171.9712	0.5167	FIXCROSS	n/a	n/a	n/a	n/a	n/a	n/a	n/a	n/a
172.4879	0.6833	INK	59	Neutral	xxxxxxx	xxxxxxx	czerwony	red	hit	n/a
173.1441	n/a	RESPONSE	n/a	n/a	n/a	n/a	n/a	n/a	n/a	red
173.1712	1.0167	ITI	n/a	n/a	n/a	n/a	n/a	n/a	n/a	n/a
174.1879	0.5167	FIXCROSS	n/a	n/a	n/a	n/a	n/a	n/a	n/a	n/a
174.7045	0.8167	INK	60	Incongruent	żółty	yellow	niebieski	blue	hit	n/a
175.4907	n/a	RESPONSE	n/a	n/a	n/a	n/a	n/a	n/a	n/a	blue
175.5212	1.0167	ITI	n/a	n/a	n/a	n/a	n/a	n/a	n/a	n/a
176.5379	0.5166	FIXCROSS	n/a	n/a	n/a	n/a	n/a	n/a	n/a	n/a
177.0545	0.6667	INK	61	Incongruent	żółty	yellow	niebieski	blue	hit	n/a
177.6938	n/a	RESPONSE	n/a	n/a	n/a	n/a	n/a	n/a	n/a	blue
177.7212	1.0167	ITI	n/a	n/a	n/a	n/a	n/a	n/a	n/a	n/a
178.7379	0.5166	FIXCROSS	n/a	n/a	n/a	n/a	n/a	n/a	n/a	n/a
179.2545	0.6	INK	62	Neutral	xxxxxxxx	xxxxxxxx	zielony	green	hit	n/a
179.8329	n/a	RESPONSE	n/a	n/a	n/a	n/a	n/a	n/a	n/a	green
179.8545	1.0167	ITI	n/a	n/a	n/a	n/a	n/a	n/a	n/a	n/a
180.8712	0.5166	FIXCROSS	n/a	n/a	n/a	n/a	n/a	n/a	n/a	n/a
181.3879	0.6667	INK	63	Incongruent	zielony	green	żółty	yellow	hit	n/a
182.02	n/a	RESPONSE	n/a	n/a	n/a	n/a	n/a	n/a	n/a	yellow
182.0546	1.0167	ITI	n/a	n/a	n/a	n/a	n/a	n/a	n/a	n/a
183.0713	0.5167	FIXCROSS	n/a	n/a	n/a	n/a	n/a	n/a	n/a	n/a
183.5879	0.7167	INK	64	Neutral	xxxxxxx	xxxxxxx	czerwony	red	hit	n/a
184.2708	n/a	RESPONSE	n/a	n/a	n/a	n/a	n/a	n/a	n/a	red
184.3046	1.0167	ITI	n/a	n/a	n/a	n/a	n/a	n/a	n/a	n/a
185.3213	0.5167	FIXCROSS	n/a	n/a	n/a	n/a	n/a	n/a	n/a	n/a
185.838	0.7833	INK	65	Incongruent	niebieski	blue	żółty	yellow	hit	n/a
186.6015	n/a	RESPONSE	n/a	n/a	n/a	n/a	n/a	n/a	n/a	yellow
186.6213	1.0167	ITI	n/a	n/a	n/a	n/a	n/a	n/a	n/a	n/a
187.638	0.5167	FIXCROSS	n/a	n/a	n/a	n/a	n/a	n/a	n/a	n/a
188.1546	0.6833	INK	66	Incongruent	czerwony	red	żółty	yellow	hit	n/a
188.8046	n/a	RESPONSE	n/a	n/a	n/a	n/a	n/a	n/a	n/a	yellow
188.838	1.0167	ITI	n/a	n/a	n/a	n/a	n/a	n/a	n/a	n/a
189.8546	0.5167	FIXCROSS	n/a	n/a	n/a	n/a	n/a	n/a	n/a	n/a
190.3713	0.75	INK	67	Neutral	xxxxxxxx	xxxxxxxx	niebieski	blue	hit	n/a
191.0874	n/a	RESPONSE	n/a	n/a	n/a	n/a	n/a	n/a	n/a	blue
191.1213	1.0167	ITI	n/a	n/a	n/a	n/a	n/a	n/a	n/a	n/a
192.138	0.5167	FIXCROSS	n/a	n/a	n/a	n/a	n/a	n/a	n/a	n/a
192.6547	0.75	INK	68	Neutral	xxxxxxxx	xxxxxxxx	zielony	green	hit	n/a
193.3862	n/a	RESPONSE	n/a	n/a	n/a	n/a	n/a	n/a	n/a	green
193.4047	1.0166	ITI	n/a	n/a	n/a	n/a	n/a	n/a	n/a	n/a
194.4213	0.5167	FIXCROSS	n/a	n/a	n/a	n/a	n/a	n/a	n/a	n/a
194.938	0.7833	INK	69	Incongruent	zielony	green	niebieski	blue	hit	n/a
195.685	n/a	RESPONSE	n/a	n/a	n/a	n/a	n/a	n/a	n/a	blue
195.7213	1.0167	ITI	n/a	n/a	n/a	n/a	n/a	n/a	n/a	n/a
196.738	0.5166	FIXCROSS	n/a	n/a	n/a	n/a	n/a	n/a	n/a	n/a
197.2547	0.7	INK	70	Incongruent	żółty	yellow	czerwony	red	hit	n/a
197.9359	n/a	RESPONSE	n/a	n/a	n/a	n/a	n/a	n/a	n/a	red
197.9547	1.0167	ITI	n/a	n/a	n/a	n/a	n/a	n/a	n/a	n/a
198.9714	0.5166	FIXCROSS	n/a	n/a	n/a	n/a	n/a	n/a	n/a	n/a
199.488	0.6667	INK	71	Neutral	xxxxx	xxxxx	niebieski	blue	hit	n/a
200.123	n/a	RESPONSE	n/a	n/a	n/a	n/a	n/a	n/a	n/a	blue
200.1547	1.0167	ITI	n/a	n/a	n/a	n/a	n/a	n/a	n/a	n/a
201.1714	0.5166	FIXCROSS	n/a	n/a	n/a	n/a	n/a	n/a	n/a	n/a
201.688	0.5667	INK	72	Incongruent	żółty	yellow	niebieski	blue	hit	n/a
202.2301	n/a	RESPONSE	n/a	n/a	n/a	n/a	n/a	n/a	n/a	blue
202.2547	1.0833	ITI	n/a	n/a	n/a	n/a	n/a	n/a	n/a	n/a
216.5816	n/a	RESPONSE	n/a	n/a	n/a	n/a	n/a	n/a	n/a	n/a
216.6382	1.0167	ITI	n/a	n/a	n/a	n/a	n/a	n/a	n/a	n/a
217.6548	0.5167	FIXCROSS	n/a	n/a	n/a	n/a	n/a	n/a	n/a	n/a
218.1715	1.45	T_COLOR_NAME	1	Neutral	niebieski	blue	Neutral	Neutral	hit	n/a
219.5988	n/a	RESPONSE	n/a	n/a	n/a	n/a	n/a	n/a	n/a	blue
219.6215	0.5167	FEEDBACK	n/a	n/a	n/a	n/a	n/a	n/a	n/a	n/a
220.1382	1.0167	ITI	n/a	n/a	n/a	n/a	n/a	n/a	n/a	n/a
221.1549	0.5166	FIXCROSS	n/a	n/a	n/a	n/a	n/a	n/a	n/a	n/a
221.6715	0.8334	T_COLOR_NAME	2	Neutral	żółty	yellow	Neutral	Neutral	hit	n/a
222.4724	n/a	RESPONSE	n/a	n/a	n/a	n/a	n/a	n/a	n/a	yellow
222.5049	0.5167	FEEDBACK	n/a	n/a	n/a	n/a	n/a	n/a	n/a	n/a
223.0215	1.0167	ITI	n/a	n/a	n/a	n/a	n/a	n/a	n/a	n/a
224.0382	0.5167	FIXCROSS	n/a	n/a	n/a	n/a	n/a	n/a	n/a	n/a
224.5549	0.75	T_COLOR_NAME	3	Neutral	żółty	yellow	Neutral	Neutral	hit	n/a
225.282	n/a	RESPONSE	n/a	n/a	n/a	n/a	n/a	n/a	n/a	yellow
225.3049	0.5167	FEEDBACK	n/a	n/a	n/a	n/a	n/a	n/a	n/a	n/a
225.8216	1.0167	ITI	n/a	n/a	n/a	n/a	n/a	n/a	n/a	n/a
226.8382	0.5167	FIXCROSS	n/a	n/a	n/a	n/a	n/a	n/a	n/a	n/a
227.3549	1.5	T_COLOR_NAME	4	Incongruent	czerwony	red	niebieski	blue	hit	n/a
228.8259	n/a	RESPONSE	n/a	n/a	n/a	n/a	n/a	n/a	n/a	red
228.8549	0.5166	FEEDBACK	n/a	n/a	n/a	n/a	n/a	n/a	n/a	n/a
229.3716	1.0167	ITI	n/a	n/a	n/a	n/a	n/a	n/a	n/a	n/a
230.3882	0.5167	FIXCROSS	n/a	n/a	n/a	n/a	n/a	n/a	n/a	n/a
230.9049	0.9667	T_COLOR_NAME	5	Incongruent	żółty	yellow	zielony	green	hit	n/a
231.8432	n/a	RESPONSE	n/a	n/a	n/a	n/a	n/a	n/a	n/a	yellow
231.8716	0.5166	FEEDBACK	n/a	n/a	n/a	n/a	n/a	n/a	n/a	n/a
232.3883	1.0167	ITI	n/a	n/a	n/a	n/a	n/a	n/a	n/a	n/a
233.405	0.5167	FIXCROSS	n/a	n/a	n/a	n/a	n/a	n/a	n/a	n/a
233.9216	1.2667	T_COLOR_NAME	6	Neutral	zielony	green	Neutral	Neutral	hit	n/a
235.1636	n/a	RESPONSE	n/a	n/a	n/a	n/a	n/a	n/a	n/a	green
235.1883	0.5166	FEEDBACK	n/a	n/a	n/a	n/a	n/a	n/a	n/a	n/a
235.7049	1.0167	ITI	n/a	n/a	n/a	n/a	n/a	n/a	n/a	n/a
236.7216	0.5167	FIXCROSS	n/a	n/a	n/a	n/a	n/a	n/a	n/a	n/a
237.2383	1.4	T_COLOR_NAME	7	Incongruent	żółty	yellow	czerwony	red	hit	n/a
238.6118	n/a	RESPONSE	n/a	n/a	n/a	n/a	n/a	n/a	n/a	yellow
238.6383	0.5167	FEEDBACK	n/a	n/a	n/a	n/a	n/a	n/a	n/a	n/a
239.155	1.0167	ITI	n/a	n/a	n/a	n/a	n/a	n/a	n/a	n/a
240.1717	0.5166	FIXCROSS	n/a	n/a	n/a	n/a	n/a	n/a	n/a	n/a
240.6883	0.8	T_COLOR_NAME	8	Incongruent	czerwony	red	zielony	green	hit	n/a
241.4534	n/a	RESPONSE	n/a	n/a	n/a	n/a	n/a	n/a	n/a	red
241.4883	0.5166	FEEDBACK	n/a	n/a	n/a	n/a	n/a	n/a	n/a	n/a
242.005	1.0167	ITI	n/a	n/a	n/a	n/a	n/a	n/a	n/a	n/a
243.0217	0.5166	FIXCROSS	n/a	n/a	n/a	n/a	n/a	n/a	n/a	n/a
243.5383	0.7834	T_COLOR_NAME	9	Neutral	czerwony	red	Neutral	Neutral	hit	n/a
244.295	n/a	RESPONSE	n/a	n/a	n/a	n/a	n/a	n/a	n/a	red
244.3217	0.5167	FEEDBACK	n/a	n/a	n/a	n/a	n/a	n/a	n/a	n/a
244.8384	1.0167	ITI	n/a	n/a	n/a	n/a	n/a	n/a	n/a	n/a
245.855	0.5167	FIXCROSS	n/a	n/a	n/a	n/a	n/a	n/a	n/a	n/a
246.3717	0.95	T_COLOR_NAME	10	Neutral	niebieski	blue	Neutral	Neutral	hit	n/a
247.2961	n/a	RESPONSE	n/a	n/a	n/a	n/a	n/a	n/a	n/a	blue
247.3217	0.5167	FEEDBACK	n/a	n/a	n/a	n/a	n/a	n/a	n/a	n/a
247.8384	1.0167	ITI	n/a	n/a	n/a	n/a	n/a	n/a	n/a	n/a
248.8551	0.5167	FIXCROSS	n/a	n/a	n/a	n/a	n/a	n/a	n/a	n/a
249.3717	0.8167	T_COLOR_NAME	11	Incongruent	zielony	green	czerwony	red	hit	n/a
250.1536	n/a	RESPONSE	n/a	n/a	n/a	n/a	n/a	n/a	n/a	green
250.1884	0.5167	FEEDBACK	n/a	n/a	n/a	n/a	n/a	n/a	n/a	n/a
250.7051	1.0167	ITI	n/a	n/a	n/a	n/a	n/a	n/a	n/a	n/a
251.7218	0.5167	FIXCROSS	n/a	n/a	n/a	n/a	n/a	n/a	n/a	n/a
252.2384	1.2667	T_COLOR_NAME	12	Incongruent	niebieski	blue	zielony	green	hit	n/a
253.4741	n/a	RESPONSE	n/a	n/a	n/a	n/a	n/a	n/a	n/a	blue
253.5051	0.5167	FEEDBACK	n/a	n/a	n/a	n/a	n/a	n/a	n/a	n/a
254.0218	1.0333	ITI	n/a	n/a	n/a	n/a	n/a	n/a	n/a	n/a
259.6681	n/a	RESPONSE	n/a	n/a	n/a	n/a	n/a	n/a	n/a	n/a
259.7218	1.0167	ITI	n/a	n/a	n/a	n/a	n/a	n/a	n/a	n/a
260.7385	0.5167	FIXCROSS	n/a	n/a	n/a	n/a	n/a	n/a	n/a	n/a
261.2552	1.35	COLOR_NAME	1	Incongruent	czerwony	red	żółty	yellow	hit	n/a
262.5736	n/a	RESPONSE	n/a	n/a	n/a	n/a	n/a	n/a	n/a	red
262.6052	1.0167	ITI	n/a	n/a	n/a	n/a	n/a	n/a	n/a	n/a
263.6218	0.5167	FIXCROSS	n/a	n/a	n/a	n/a	n/a	n/a	n/a	n/a
264.1385	0.85	COLOR_NAME	2	Neutral	żółty	yellow	Neutral	Neutral	hit	n/a
264.9682	n/a	RESPONSE	n/a	n/a	n/a	n/a	n/a	n/a	n/a	yellow
264.9885	1.0166	ITI	n/a	n/a	n/a	n/a	n/a	n/a	n/a	n/a
266.0051	0.5167	FIXCROSS	n/a	n/a	n/a	n/a	n/a	n/a	n/a	n/a
266.5219	0.7333	COLOR_NAME	3	Neutral	zielony	green	Neutral	Neutral	hit	n/a
267.2351	n/a	RESPONSE	n/a	n/a	n/a	n/a	n/a	n/a	n/a	green
267.2552	1.0166	ITI	n/a	n/a	n/a	n/a	n/a	n/a	n/a	n/a
268.2718	0.5167	FIXCROSS	n/a	n/a	n/a	n/a	n/a	n/a	n/a	n/a
268.7885	0.7833	COLOR_NAME	4	Neutral	żółty	yellow	Neutral	Neutral	hit	n/a
269.5498	n/a	RESPONSE	n/a	n/a	n/a	n/a	n/a	n/a	n/a	yellow
269.5718	1.0167	ITI	n/a	n/a	n/a	n/a	n/a	n/a	n/a	n/a
270.5885	0.5167	FIXCROSS	n/a	n/a	n/a	n/a	n/a	n/a	n/a	n/a
271.1052	0.7667	COLOR_NAME	5	Incongruent	czerwony	red	niebieski	blue	hit	n/a
271.8487	n/a	RESPONSE	n/a	n/a	n/a	n/a	n/a	n/a	n/a	red
271.8719	1.0167	ITI	n/a	n/a	n/a	n/a	n/a	n/a	n/a	n/a
272.8886	0.5166	FIXCROSS	n/a	n/a	n/a	n/a	n/a	n/a	n/a	n/a
273.4052	0.85	COLOR_NAME	6	Neutral	niebieski	blue	Neutral	Neutral	hit	n/a
274.2272	n/a	RESPONSE	n/a	n/a	n/a	n/a	n/a	n/a	n/a	blue
274.2552	1.0167	ITI	n/a	n/a	n/a	n/a	n/a	n/a	n/a	n/a
275.2719	0.5167	FIXCROSS	n/a	n/a	n/a	n/a	n/a	n/a	n/a	n/a
275.7886	0.8667	COLOR_NAME	7	Incongruent	zielony	green	niebieski	blue	hit	n/a
276.6218	n/a	RESPONSE	n/a	n/a	n/a	n/a	n/a	n/a	n/a	green
276.6553	1.0166	ITI	n/a	n/a	n/a	n/a	n/a	n/a	n/a	n/a
277.6719	0.5167	FIXCROSS	n/a	n/a	n/a	n/a	n/a	n/a	n/a	n/a
278.1886	0.75	COLOR_NAME	8	Incongruent	żółty	yellow	niebieski	blue	hit	n/a
278.9047	n/a	RESPONSE	n/a	n/a	n/a	n/a	n/a	n/a	n/a	yellow
278.9386	1.0167	ITI	n/a	n/a	n/a	n/a	n/a	n/a	n/a	n/a
279.9553	0.5166	FIXCROSS	n/a	n/a	n/a	n/a	n/a	n/a	n/a	n/a
280.4719	0.6167	COLOR_NAME	9	Neutral	czerwony	red	Neutral	Neutral	hit	n/a
281.0598	n/a	RESPONSE	n/a	n/a	n/a	n/a	n/a	n/a	n/a	red
281.0886	1.0167	ITI	n/a	n/a	n/a	n/a	n/a	n/a	n/a	n/a
282.1053	0.5167	FIXCROSS	n/a	n/a	n/a	n/a	n/a	n/a	n/a	n/a
282.622	0.7	COLOR_NAME	10	Incongruent	czerwony	red	niebieski	blue	hit	n/a
283.2948	n/a	RESPONSE	n/a	n/a	n/a	n/a	n/a	n/a	n/a	red
283.3219	1.0167	ITI	n/a	n/a	n/a	n/a	n/a	n/a	n/a	n/a
284.3386	0.5166	FIXCROSS	n/a	n/a	n/a	n/a	n/a	n/a	n/a	n/a
284.8553	0.6834	COLOR_NAME	11	Incongruent	czerwony	red	niebieski	blue	hit	n/a
285.5137	n/a	RESPONSE	n/a	n/a	n/a	n/a	n/a	n/a	n/a	red
285.5387	1.0166	ITI	n/a	n/a	n/a	n/a	n/a	n/a	n/a	n/a
286.5553	0.5167	FIXCROSS	n/a	n/a	n/a	n/a	n/a	n/a	n/a	n/a
287.072	0.5833	COLOR_NAME	12	Neutral	czerwony	red	Neutral	Neutral	hit	n/a
287.6369	n/a	RESPONSE	n/a	n/a	n/a	n/a	n/a	n/a	n/a	red
287.6553	1.0167	ITI	n/a	n/a	n/a	n/a	n/a	n/a	n/a	n/a
288.672	0.5167	FIXCROSS	n/a	n/a	n/a	n/a	n/a	n/a	n/a	n/a
289.1887	0.55	COLOR_NAME	13	Neutral	czerwony	red	Neutral	Neutral	hit	n/a
289.7123	n/a	RESPONSE	n/a	n/a	n/a	n/a	n/a	n/a	n/a	red
289.7387	1.0167	ITI	n/a	n/a	n/a	n/a	n/a	n/a	n/a	n/a
290.7554	0.5167	FIXCROSS	n/a	n/a	n/a	n/a	n/a	n/a	n/a	n/a
291.272	0.8833	COLOR_NAME	14	Incongruent	zielony	green	niebieski	blue	hit	n/a
292.1228	n/a	RESPONSE	n/a	n/a	n/a	n/a	n/a	n/a	n/a	green
292.1554	1.0167	ITI	n/a	n/a	n/a	n/a	n/a	n/a	n/a	n/a
293.172	0.5167	FIXCROSS	n/a	n/a	n/a	n/a	n/a	n/a	n/a	n/a
293.6887	0.7666	COLOR_NAME	15	Incongruent	żółty	yellow	zielony	green	hit	n/a
294.4377	n/a	RESPONSE	n/a	n/a	n/a	n/a	n/a	n/a	n/a	yellow
294.4554	1.0167	ITI	n/a	n/a	n/a	n/a	n/a	n/a	n/a	n/a
295.4721	0.5167	FIXCROSS	n/a	n/a	n/a	n/a	n/a	n/a	n/a	n/a
295.9887	0.7833	COLOR_NAME	16	Incongruent	niebieski	blue	zielony	green	hit	n/a
296.7524	n/a	RESPONSE	n/a	n/a	n/a	n/a	n/a	n/a	n/a	blue
296.7721	1.0166	ITI	n/a	n/a	n/a	n/a	n/a	n/a	n/a	n/a
297.7887	0.5167	FIXCROSS	n/a	n/a	n/a	n/a	n/a	n/a	n/a	n/a
298.3054	1.05	COLOR_NAME	17	Incongruent	zielony	green	żółty	yellow	hit	n/a
299.3226	n/a	RESPONSE	n/a	n/a	n/a	n/a	n/a	n/a	n/a	green
299.3554	1.0167	ITI	n/a	n/a	n/a	n/a	n/a	n/a	n/a	n/a
300.3721	0.5167	FIXCROSS	n/a	n/a	n/a	n/a	n/a	n/a	n/a	n/a
300.8888	0.8166	COLOR_NAME	18	Incongruent	niebieski	blue	żółty	yellow	hit	n/a
301.6852	n/a	RESPONSE	n/a	n/a	n/a	n/a	n/a	n/a	n/a	blue
301.7054	1.0167	ITI	n/a	n/a	n/a	n/a	n/a	n/a	n/a	n/a
302.7221	0.5167	FIXCROSS	n/a	n/a	n/a	n/a	n/a	n/a	n/a	n/a
303.2388	0.8333	COLOR_NAME	19	Neutral	żółty	yellow	Neutral	Neutral	hit	n/a
304.0477	n/a	RESPONSE	n/a	n/a	n/a	n/a	n/a	n/a	n/a	yellow
304.0721	1.0167	ITI	n/a	n/a	n/a	n/a	n/a	n/a	n/a	n/a
305.0888	0.5167	FIXCROSS	n/a	n/a	n/a	n/a	n/a	n/a	n/a	n/a
305.6055	0.75	COLOR_NAME	20	Neutral	niebieski	blue	Neutral	Neutral	hit	n/a
306.3306	n/a	RESPONSE	n/a	n/a	n/a	n/a	n/a	n/a	n/a	blue
306.3555	1.0167	ITI	n/a	n/a	n/a	n/a	n/a	n/a	n/a	n/a
307.3722	0.5167	FIXCROSS	n/a	n/a	n/a	n/a	n/a	n/a	n/a	n/a
307.8888	0.9833	COLOR_NAME	21	Incongruent	czerwony	red	zielony	green	hit	n/a
308.853	n/a	RESPONSE	n/a	n/a	n/a	n/a	n/a	n/a	n/a	red
308.8722	1.0167	ITI	n/a	n/a	n/a	n/a	n/a	n/a	n/a	n/a
309.8888	0.5167	FIXCROSS	n/a	n/a	n/a	n/a	n/a	n/a	n/a	n/a
310.4055	0.8	COLOR_NAME	22	Neutral	żółty	yellow	Neutral	Neutral	hit	n/a
311.1837	n/a	RESPONSE	n/a	n/a	n/a	n/a	n/a	n/a	n/a	yellow
311.2055	1.0166	ITI	n/a	n/a	n/a	n/a	n/a	n/a	n/a	n/a
312.2222	0.5167	FIXCROSS	n/a	n/a	n/a	n/a	n/a	n/a	n/a	n/a
312.7388	0.8167	COLOR_NAME	23	Incongruent	żółty	yellow	niebieski	blue	hit	n/a
313.5303	n/a	RESPONSE	n/a	n/a	n/a	n/a	n/a	n/a	n/a	yellow
313.5555	1.0167	ITI	n/a	n/a	n/a	n/a	n/a	n/a	n/a	n/a
314.5722	0.5167	FIXCROSS	n/a	n/a	n/a	n/a	n/a	n/a	n/a	n/a
315.0889	0.6833	COLOR_NAME	24	Incongruent	czerwony	red	zielony	green	hit	n/a
315.7492	n/a	RESPONSE	n/a	n/a	n/a	n/a	n/a	n/a	n/a	red
315.7722	1.0167	ITI	n/a	n/a	n/a	n/a	n/a	n/a	n/a	n/a
316.7889	0.5167	FIXCROSS	n/a	n/a	n/a	n/a	n/a	n/a	n/a	n/a
317.3056	0.7333	COLOR_NAME	25	Neutral	żółty	yellow	Neutral	Neutral	hit	n/a
318.0162	n/a	RESPONSE	n/a	n/a	n/a	n/a	n/a	n/a	n/a	yellow
318.0389	1.0167	ITI	n/a	n/a	n/a	n/a	n/a	n/a	n/a	n/a
319.0556	0.5167	FIXCROSS	n/a	n/a	n/a	n/a	n/a	n/a	n/a	n/a
319.5722	0.7	COLOR_NAME	26	Incongruent	żółty	yellow	zielony	green	hit	n/a
320.2512	n/a	RESPONSE	n/a	n/a	n/a	n/a	n/a	n/a	n/a	yellow
320.2722	1.0167	ITI	n/a	n/a	n/a	n/a	n/a	n/a	n/a	n/a
321.2889	0.5167	FIXCROSS	n/a	n/a	n/a	n/a	n/a	n/a	n/a	n/a
321.8056	0.8	COLOR_NAME	27	Neutral	niebieski	blue	Neutral	Neutral	hit	n/a
322.5819	n/a	RESPONSE	n/a	n/a	n/a	n/a	n/a	n/a	n/a	blue
322.6056	1.0166	ITI	n/a	n/a	n/a	n/a	n/a	n/a	n/a	n/a
323.6222	0.5167	FIXCROSS	n/a	n/a	n/a	n/a	n/a	n/a	n/a	n/a
324.1389	0.7333	COLOR_NAME	28	Incongruent	czerwony	red	zielony	green	hit	n/a
324.8488	n/a	RESPONSE	n/a	n/a	n/a	n/a	n/a	n/a	n/a	red
324.8722	1.0167	ITI	n/a	n/a	n/a	n/a	n/a	n/a	n/a	n/a
325.8889	0.5166	FIXCROSS	n/a	n/a	n/a	n/a	n/a	n/a	n/a	n/a
326.4056	1.0	COLOR_NAME	29	Incongruent	zielony	green	czerwony	red	hit	n/a
327.3871	n/a	RESPONSE	n/a	n/a	n/a	n/a	n/a	n/a	n/a	green
327.4056	1.0167	ITI	n/a	n/a	n/a	n/a	n/a	n/a	n/a	n/a
328.4223	0.5167	FIXCROSS	n/a	n/a	n/a	n/a	n/a	n/a	n/a	n/a
328.939	0.9333	COLOR_NAME	30	Incongruent	niebieski	blue	czerwony	red	hit	n/a
329.8454	n/a	RESPONSE	n/a	n/a	n/a	n/a	n/a	n/a	n/a	blue
329.8723	1.0167	ITI	n/a	n/a	n/a	n/a	n/a	n/a	n/a	n/a
330.889	0.5167	FIXCROSS	n/a	n/a	n/a	n/a	n/a	n/a	n/a	n/a
331.4056	0.8667	COLOR_NAME	31	Incongruent	zielony	green	niebieski	blue	hit	n/a
332.2401	n/a	RESPONSE	n/a	n/a	n/a	n/a	n/a	n/a	n/a	green
332.2723	1.0166	ITI	n/a	n/a	n/a	n/a	n/a	n/a	n/a	n/a
333.289	0.5167	FIXCROSS	n/a	n/a	n/a	n/a	n/a	n/a	n/a	n/a
333.8057	0.8667	COLOR_NAME	32	Neutral	niebieski	blue	Neutral	Neutral	hit	n/a
334.6506	n/a	RESPONSE	n/a	n/a	n/a	n/a	n/a	n/a	n/a	blue
334.6723	1.0167	ITI	n/a	n/a	n/a	n/a	n/a	n/a	n/a	n/a
335.689	0.5167	FIXCROSS	n/a	n/a	n/a	n/a	n/a	n/a	n/a	n/a
336.2057	0.9167	COLOR_NAME	33	Incongruent	niebieski	blue	żółty	yellow	hit	n/a
337.0931	n/a	RESPONSE	n/a	n/a	n/a	n/a	n/a	n/a	n/a	blue
337.1223	1.0167	ITI	n/a	n/a	n/a	n/a	n/a	n/a	n/a	n/a
338.139	0.5166	FIXCROSS	n/a	n/a	n/a	n/a	n/a	n/a	n/a	n/a
338.6557	0.85	COLOR_NAME	34	Incongruent	zielony	green	czerwony	red	hit	n/a
339.4877	n/a	RESPONSE	n/a	n/a	n/a	n/a	n/a	n/a	n/a	green
339.5057	1.0167	ITI	n/a	n/a	n/a	n/a	n/a	n/a	n/a	n/a
340.5224	0.5166	FIXCROSS	n/a	n/a	n/a	n/a	n/a	n/a	n/a	n/a
341.039	0.6667	COLOR_NAME	35	Neutral	zielony	green	Neutral	Neutral	hit	n/a
341.6748	n/a	RESPONSE	n/a	n/a	n/a	n/a	n/a	n/a	n/a	green
341.7057	1.0167	ITI	n/a	n/a	n/a	n/a	n/a	n/a	n/a	n/a
342.7224	0.5167	FIXCROSS	n/a	n/a	n/a	n/a	n/a	n/a	n/a	n/a
343.2391	0.8	COLOR_NAME	36	Incongruent	żółty	yellow	czerwony	red	hit	n/a
344.0055	n/a	RESPONSE	n/a	n/a	n/a	n/a	n/a	n/a	n/a	yellow
344.0391	1.0167	ITI	n/a	n/a	n/a	n/a	n/a	n/a	n/a	n/a
345.0558	0.5166	FIXCROSS	n/a	n/a	n/a	n/a	n/a	n/a	n/a	n/a
345.5724	0.7834	COLOR_NAME	37	Incongruent	niebieski	blue	zielony	green	hit	n/a
346.3363	n/a	RESPONSE	n/a	n/a	n/a	n/a	n/a	n/a	n/a	blue
346.3558	1.0166	ITI	n/a	n/a	n/a	n/a	n/a	n/a	n/a	n/a
347.3724	0.5167	FIXCROSS	n/a	n/a	n/a	n/a	n/a	n/a	n/a	n/a
347.8891	0.8333	COLOR_NAME	38	Neutral	zielony	green	Neutral	Neutral	hit	n/a
348.699	n/a	RESPONSE	n/a	n/a	n/a	n/a	n/a	n/a	n/a	green
348.7224	1.0167	ITI	n/a	n/a	n/a	n/a	n/a	n/a	n/a	n/a
349.7391	0.5167	FIXCROSS	n/a	n/a	n/a	n/a	n/a	n/a	n/a	n/a
350.2558	0.6666	COLOR_NAME	39	Neutral	zielony	green	Neutral	Neutral	hit	n/a
350.9019	n/a	RESPONSE	n/a	n/a	n/a	n/a	n/a	n/a	n/a	green
350.9224	1.0167	ITI	n/a	n/a	n/a	n/a	n/a	n/a	n/a	n/a
351.9391	0.5167	FIXCROSS	n/a	n/a	n/a	n/a	n/a	n/a	n/a	n/a
352.4558	0.6333	COLOR_NAME	40	Incongruent	zielony	green	żółty	yellow	hit	n/a
353.0572	n/a	RESPONSE	n/a	n/a	n/a	n/a	n/a	n/a	n/a	green
353.0891	1.0167	ITI	n/a	n/a	n/a	n/a	n/a	n/a	n/a	n/a
354.1058	0.5166	FIXCROSS	n/a	n/a	n/a	n/a	n/a	n/a	n/a	n/a
354.6224	0.65	COLOR_NAME	41	Incongruent	czerwony	red	żółty	yellow	hit	n/a
355.2443	n/a	RESPONSE	n/a	n/a	n/a	n/a	n/a	n/a	n/a	red
355.2725	1.0167	ITI	n/a	n/a	n/a	n/a	n/a	n/a	n/a	n/a
356.2892	0.5167	FIXCROSS	n/a	n/a	n/a	n/a	n/a	n/a	n/a	n/a
356.8058	0.6333	COLOR_NAME	42	Neutral	zielony	green	Neutral	Neutral	hit	n/a
357.4154	n/a	RESPONSE	n/a	n/a	n/a	n/a	n/a	n/a	n/a	green
357.4392	1.0166	ITI	n/a	n/a	n/a	n/a	n/a	n/a	n/a	n/a
358.4558	0.5167	FIXCROSS	n/a	n/a	n/a	n/a	n/a	n/a	n/a	n/a
358.9725	0.8833	COLOR_NAME	43	Neutral	czerwony	red	Neutral	Neutral	hit	n/a
359.8259	n/a	RESPONSE	n/a	n/a	n/a	n/a	n/a	n/a	n/a	red
359.8559	1.0166	ITI	n/a	n/a	n/a	n/a	n/a	n/a	n/a	n/a
360.8725	0.5167	FIXCROSS	n/a	n/a	n/a	n/a	n/a	n/a	n/a	n/a
361.3892	0.75	COLOR_NAME	44	Neutral	niebieski	blue	Neutral	Neutral	hit	n/a
362.1087	n/a	RESPONSE	n/a	n/a	n/a	n/a	n/a	n/a	n/a	blue
362.1392	1.0167	ITI	n/a	n/a	n/a	n/a	n/a	n/a	n/a	n/a
363.1559	0.5167	FIXCROSS	n/a	n/a	n/a	n/a	n/a	n/a	n/a	n/a
363.6725	0.7833	COLOR_NAME	45	Incongruent	niebieski	blue	żółty	yellow	hit	n/a
364.4236	n/a	RESPONSE	n/a	n/a	n/a	n/a	n/a	n/a	n/a	blue
364.4559	1.0167	ITI	n/a	n/a	n/a	n/a	n/a	n/a	n/a	n/a
365.4726	0.5166	FIXCROSS	n/a	n/a	n/a	n/a	n/a	n/a	n/a	n/a
365.9892	0.6334	COLOR_NAME	46	Neutral	czerwony	red	Neutral	Neutral	hit	n/a
366.5947	n/a	RESPONSE	n/a	n/a	n/a	n/a	n/a	n/a	n/a	red
366.6226	1.0166	ITI	n/a	n/a	n/a	n/a	n/a	n/a	n/a	n/a
367.6392	0.5167	FIXCROSS	n/a	n/a	n/a	n/a	n/a	n/a	n/a	n/a
368.1559	0.75	COLOR_NAME	47	Incongruent	żółty	yellow	zielony	green	hit	n/a
368.8775	n/a	RESPONSE	n/a	n/a	n/a	n/a	n/a	n/a	n/a	yellow
368.9059	1.0167	ITI	n/a	n/a	n/a	n/a	n/a	n/a	n/a	n/a
369.9226	0.5167	FIXCROSS	n/a	n/a	n/a	n/a	n/a	n/a	n/a	n/a
370.4393	0.7833	COLOR_NAME	48	Neutral	czerwony	red	Neutral	Neutral	hit	n/a
371.1922	n/a	RESPONSE	n/a	n/a	n/a	n/a	n/a	n/a	n/a	red
371.2226	1.0167	ITI	n/a	n/a	n/a	n/a	n/a	n/a	n/a	n/a
372.2393	0.5167	FIXCROSS	n/a	n/a	n/a	n/a	n/a	n/a	n/a	n/a
372.7559	0.9333	COLOR_NAME	49	Incongruent	żółty	yellow	czerwony	red	incorrect	n/a
373.6667	n/a	RESPONSE	n/a	n/a	n/a	n/a	n/a	n/a	n/a	red
373.6893	1.0167	ITI	n/a	n/a	n/a	n/a	n/a	n/a	n/a	n/a
374.706	0.5166	FIXCROSS	n/a	n/a	n/a	n/a	n/a	n/a	n/a	n/a
375.2226	1.15	COLOR_NAME	50	Incongruent	niebieski	blue	zielony	green	hit	n/a
376.3485	n/a	RESPONSE	n/a	n/a	n/a	n/a	n/a	n/a	n/a	blue
376.3726	1.0167	ITI	n/a	n/a	n/a	n/a	n/a	n/a	n/a	n/a
377.3893	0.5167	FIXCROSS	n/a	n/a	n/a	n/a	n/a	n/a	n/a	n/a
377.906	0.9333	COLOR_NAME	51	Incongruent	żółty	yellow	niebieski	blue	hit	n/a
378.807	n/a	RESPONSE	n/a	n/a	n/a	n/a	n/a	n/a	n/a	yellow
378.8393	1.0166	ITI	n/a	n/a	n/a	n/a	n/a	n/a	n/a	n/a
379.856	0.5167	FIXCROSS	n/a	n/a	n/a	n/a	n/a	n/a	n/a	n/a
380.3727	0.7167	COLOR_NAME	52	Incongruent	zielony	green	żółty	yellow	hit	n/a
381.0578	n/a	RESPONSE	n/a	n/a	n/a	n/a	n/a	n/a	n/a	green
381.0893	1.0166	ITI	n/a	n/a	n/a	n/a	n/a	n/a	n/a	n/a
382.106	0.5167	FIXCROSS	n/a	n/a	n/a	n/a	n/a	n/a	n/a	n/a
382.6227	0.7667	COLOR_NAME	53	Neutral	niebieski	blue	Neutral	Neutral	hit	n/a
383.3567	n/a	RESPONSE	n/a	n/a	n/a	n/a	n/a	n/a	n/a	blue
383.3893	1.0167	ITI	n/a	n/a	n/a	n/a	n/a	n/a	n/a	n/a
384.406	0.5166	FIXCROSS	n/a	n/a	n/a	n/a	n/a	n/a	n/a	n/a
384.9227	0.8	COLOR_NAME	54	Neutral	zielony	green	Neutral	Neutral	hit	n/a
385.7034	n/a	RESPONSE	n/a	n/a	n/a	n/a	n/a	n/a	n/a	green
385.7227	1.0167	ITI	n/a	n/a	n/a	n/a	n/a	n/a	n/a	n/a
386.7394	0.5167	FIXCROSS	n/a	n/a	n/a	n/a	n/a	n/a	n/a	n/a
387.256	0.7667	COLOR_NAME	55	Neutral	niebieski	blue	Neutral	Neutral	hit	n/a
388.0021	n/a	RESPONSE	n/a	n/a	n/a	n/a	n/a	n/a	n/a	blue
388.0227	1.0167	ITI	n/a	n/a	n/a	n/a	n/a	n/a	n/a	n/a
389.0394	0.5167	FIXCROSS	n/a	n/a	n/a	n/a	n/a	n/a	n/a	n/a
389.5561	0.6333	COLOR_NAME	56	Neutral	czerwony	red	Neutral	Neutral	hit	n/a
390.1574	n/a	RESPONSE	n/a	n/a	n/a	n/a	n/a	n/a	n/a	red
390.1894	1.0167	ITI	n/a	n/a	n/a	n/a	n/a	n/a	n/a	n/a
391.2061	0.5166	FIXCROSS	n/a	n/a	n/a	n/a	n/a	n/a	n/a	n/a
391.7227	0.65	COLOR_NAME	57	Neutral	żółty	yellow	Neutral	Neutral	hit	n/a
392.3444	n/a	RESPONSE	n/a	n/a	n/a	n/a	n/a	n/a	n/a	yellow
392.3727	1.0167	ITI	n/a	n/a	n/a	n/a	n/a	n/a	n/a	n/a
393.3894	0.5166	FIXCROSS	n/a	n/a	n/a	n/a	n/a	n/a	n/a	n/a
393.9061	0.8	COLOR_NAME	58	Neutral	żółty	yellow	Neutral	Neutral	hit	n/a
394.6751	n/a	RESPONSE	n/a	n/a	n/a	n/a	n/a	n/a	n/a	yellow
394.7061	1.0167	ITI	n/a	n/a	n/a	n/a	n/a	n/a	n/a	n/a
395.7228	0.5167	FIXCROSS	n/a	n/a	n/a	n/a	n/a	n/a	n/a	n/a
396.2394	0.7333	COLOR_NAME	59	Neutral	zielony	green	Neutral	Neutral	hit	n/a
396.942	n/a	RESPONSE	n/a	n/a	n/a	n/a	n/a	n/a	n/a	green
396.9728	1.0166	ITI	n/a	n/a	n/a	n/a	n/a	n/a	n/a	n/a
397.9894	0.5167	FIXCROSS	n/a	n/a	n/a	n/a	n/a	n/a	n/a	n/a
398.5061	0.7833	COLOR_NAME	60	Neutral	niebieski	blue	Neutral	Neutral	hit	n/a
399.2568	n/a	RESPONSE	n/a	n/a	n/a	n/a	n/a	n/a	n/a	blue
399.2895	1.0167	ITI	n/a	n/a	n/a	n/a	n/a	n/a	n/a	n/a
400.3061	0.5167	FIXCROSS	n/a	n/a	n/a	n/a	n/a	n/a	n/a	n/a
400.8228	0.8	COLOR_NAME	61	Neutral	żółty	yellow	Neutral	Neutral	hit	n/a
401.6035	n/a	RESPONSE	n/a	n/a	n/a	n/a	n/a	n/a	n/a	yellow
401.6228	1.0167	ITI	n/a	n/a	n/a	n/a	n/a	n/a	n/a	n/a
402.6395	0.5167	FIXCROSS	n/a	n/a	n/a	n/a	n/a	n/a	n/a	n/a
403.1562	0.5666	COLOR_NAME	62	Neutral	czerwony	red	Neutral	Neutral	hit	n/a
403.6947	n/a	RESPONSE	n/a	n/a	n/a	n/a	n/a	n/a	n/a	red
403.7228	1.0167	ITI	n/a	n/a	n/a	n/a	n/a	n/a	n/a	n/a
404.7395	0.5167	FIXCROSS	n/a	n/a	n/a	n/a	n/a	n/a	n/a	n/a
405.2562	0.75	COLOR_NAME	63	Neutral	niebieski	blue	Neutral	Neutral	hit	n/a
405.9776	n/a	RESPONSE	n/a	n/a	n/a	n/a	n/a	n/a	n/a	blue
406.0062	1.0167	ITI	n/a	n/a	n/a	n/a	n/a	n/a	n/a	n/a
407.0229	0.5167	FIXCROSS	n/a	n/a	n/a	n/a	n/a	n/a	n/a	n/a
407.5395	0.9	COLOR_NAME	64	Incongruent	żółty	yellow	czerwony	red	hit	n/a
408.4202	n/a	RESPONSE	n/a	n/a	n/a	n/a	n/a	n/a	n/a	yellow
408.4395	1.0166	ITI	n/a	n/a	n/a	n/a	n/a	n/a	n/a	n/a
409.4562	0.5167	FIXCROSS	n/a	n/a	n/a	n/a	n/a	n/a	n/a	n/a
409.9729	0.7167	COLOR_NAME	65	Neutral	żółty	yellow	Neutral	Neutral	hit	n/a
410.671	n/a	RESPONSE	n/a	n/a	n/a	n/a	n/a	n/a	n/a	yellow
410.6895	1.0167	ITI	n/a	n/a	n/a	n/a	n/a	n/a	n/a	n/a
411.7062	0.5167	FIXCROSS	n/a	n/a	n/a	n/a	n/a	n/a	n/a	n/a
412.2229	0.85	COLOR_NAME	66	Incongruent	niebieski	blue	czerwony	red	hit	n/a
413.0496	n/a	RESPONSE	n/a	n/a	n/a	n/a	n/a	n/a	n/a	blue
413.0729	1.0167	ITI	n/a	n/a	n/a	n/a	n/a	n/a	n/a	n/a
414.0896	0.5167	FIXCROSS	n/a	n/a	n/a	n/a	n/a	n/a	n/a	n/a
414.6062	0.7	COLOR_NAME	67	Incongruent	niebieski	blue	czerwony	red	hit	n/a
415.2846	n/a	RESPONSE	n/a	n/a	n/a	n/a	n/a	n/a	n/a	blue
415.3063	1.0167	ITI	n/a	n/a	n/a	n/a	n/a	n/a	n/a	n/a
416.3229	0.5167	FIXCROSS	n/a	n/a	n/a	n/a	n/a	n/a	n/a	n/a
416.8396	0.65	COLOR_NAME	68	Neutral	czerwony	red	Neutral	Neutral	hit	n/a
417.4715	n/a	RESPONSE	n/a	n/a	n/a	n/a	n/a	n/a	n/a	red
417.4896	1.0167	ITI	n/a	n/a	n/a	n/a	n/a	n/a	n/a	n/a
418.5062	0.5167	FIXCROSS	n/a	n/a	n/a	n/a	n/a	n/a	n/a	n/a
419.0229	0.75	COLOR_NAME	69	Neutral	zielony	green	Neutral	Neutral	hit	n/a
419.7545	n/a	RESPONSE	n/a	n/a	n/a	n/a	n/a	n/a	n/a	green
419.7729	1.0167	ITI	n/a	n/a	n/a	n/a	n/a	n/a	n/a	n/a
420.7896	0.5166	FIXCROSS	n/a	n/a	n/a	n/a	n/a	n/a	n/a	n/a
421.3063	0.65	COLOR_NAME	70	Neutral	zielony	green	Neutral	Neutral	hit	n/a
421.9256	n/a	RESPONSE	n/a	n/a	n/a	n/a	n/a	n/a	n/a	green
421.9563	1.0167	ITI	n/a	n/a	n/a	n/a	n/a	n/a	n/a	n/a
422.973	0.5167	FIXCROSS	n/a	n/a	n/a	n/a	n/a	n/a	n/a	n/a
423.4896	1.0167	COLOR_NAME	71	Incongruent	czerwony	red	żółty	yellow	hit	n/a
424.4799	n/a	RESPONSE	n/a	n/a	n/a	n/a	n/a	n/a	n/a	red
424.5063	1.0166	ITI	n/a	n/a	n/a	n/a	n/a	n/a	n/a	n/a
425.523	0.5167	FIXCROSS	n/a	n/a	n/a	n/a	n/a	n/a	n/a	n/a
426.0397	0.7333	COLOR_NAME	72	Incongruent	zielony	green	czerwony	red	hit	n/a
426.7467	n/a	RESPONSE	n/a	n/a	n/a	n/a	n/a	n/a	n/a	green
426.773	1.0333	ITI	n/a	n/a	n/a	n/a	n/a	n/a	n/a	n/a
430.1789	n/a	RESPONSE	n/a	n/a	n/a	n/a	n/a	n/a	n/a	n/a
