onset	duration	trial_type	n_back_condition	trial_number	stimulus	response_type
0.0	n/a	RESPONSE	n/a	n/a	n/a	n/a
0.0238	1.0167	ISI	n/a	n/a	n/a	n/a
1.0405	0.5167	DISTRACTOR	1	1	J	Correct Rejection
1.5572	1.0167	ISI	n/a	n/a	n/a	n/a
2.5738	0.5167	DISTRACTOR	1	2	B	Correct Rejection
3.0905	1.0167	ISI	n/a	n/a	n/a	n/a
4.1072	0.5167	DISTRACTOR	1	3	A	Correct Rejection
4.6239	1.0166	ISI	n/a	n/a	n/a	n/a
5.6405	0.5167	DISTRACTOR	1	4	E	Correct Rejection
6.1572	1.0167	ISI	n/a	n/a	n/a	n/a
7.1739	0.5167	TARGET	1	5	E	Hit
7.5349	n/a	RESPONSE	n/a	n/a	n/a	n/a
7.6906	1.0167	ISI	n/a	n/a	n/a	n/a
8.7072	0.5167	DISTRACTOR	1	6	H	Correct Rejection
9.2239	1.0167	ISI	n/a	n/a	n/a	n/a
10.2406	0.5167	DISTRACTOR	1	7	A	Correct Rejection
10.7573	1.0167	ISI	n/a	n/a	n/a	n/a
11.7739	0.5167	TARGET	1	8	A	Hit
12.1805	n/a	RESPONSE	n/a	n/a	n/a	n/a
12.2906	1.0167	ISI	n/a	n/a	n/a	n/a
13.3073	0.5166	DISTRACTOR	1	9	J	Correct Rejection
13.8239	1.0167	ISI	n/a	n/a	n/a	n/a
14.8406	0.5167	DISTRACTOR	1	10	D	Correct Rejection
15.3573	1.0167	ISI	n/a	n/a	n/a	n/a
16.374	0.5167	DISTRACTOR	1	11	J	Correct Rejection
16.8906	1.0167	ISI	n/a	n/a	n/a	n/a
17.9073	0.5167	DISTRACTOR	1	12	G	Correct Rejection
18.424	1.0167	ISI	n/a	n/a	n/a	n/a
19.4407	0.5166	DISTRACTOR	1	13	I	Correct Rejection
19.9573	1.0167	ISI	n/a	n/a	n/a	n/a
20.974	0.5167	DISTRACTOR	1	14	E	Correct Rejection
21.4907	1.0167	ISI	n/a	n/a	n/a	n/a
22.5073	0.5166	DISTRACTOR	1	15	A	Correct Rejection
23.024	1.0167	ISI	n/a	n/a	n/a	n/a
24.0407	0.5167	DISTRACTOR	1	16	G	Correct Rejection
24.5574	1.0167	ISI	n/a	n/a	n/a	n/a
25.574	0.5166	DISTRACTOR	1	17	F	Correct Rejection
26.0907	1.0167	ISI	n/a	n/a	n/a	n/a
27.1073	0.5167	DISTRACTOR	1	18	H	Correct Rejection
27.6241	1.0166	ISI	n/a	n/a	n/a	n/a
28.6407	0.5167	DISTRACTOR	1	19	A	Correct Rejection
29.1574	1.0167	ISI	n/a	n/a	n/a	n/a
30.1741	0.5166	DISTRACTOR	1	20	E	Correct Rejection
30.6907	1.0167	ISI	n/a	n/a	n/a	n/a
31.7074	0.5167	DISTRACTOR	1	21	J	Correct Rejection
32.2241	1.0167	ISI	n/a	n/a	n/a	n/a
33.2408	0.5167	DISTRACTOR	1	22	F	Correct Rejection
33.7574	1.0167	ISI	n/a	n/a	n/a	n/a
34.7741	0.5167	TARGET	1	23	F	Hit
35.1685	n/a	RESPONSE	n/a	n/a	n/a	n/a
35.2908	1.0167	ISI	n/a	n/a	n/a	n/a
36.3075	0.5166	TARGET	1	24	F	Hit
36.8241	1.0167	ISI	n/a	n/a	n/a	n/a
37.3077	n/a	RESPONSE	n/a	n/a	n/a	n/a
37.8408	0.5166	DISTRACTOR	1	25	C	Correct Rejection
38.3574	1.0167	ISI	n/a	n/a	n/a	n/a
39.3741	0.5166	DISTRACTOR	1	26	F	Correct Rejection
39.8908	1.0167	ISI	n/a	n/a	n/a	n/a
40.9075	0.5167	DISTRACTOR	1	27	B	Correct Rejection
41.4242	1.0167	ISI	n/a	n/a	n/a	n/a
42.4408	0.5167	DISTRACTOR	1	28	A	Correct Rejection
42.9575	1.0167	ISI	n/a	n/a	n/a	n/a
43.9742	0.5166	DISTRACTOR	1	29	I	Correct Rejection
44.4908	1.0167	ISI	n/a	n/a	n/a	n/a
45.5075	0.5167	DISTRACTOR	1	30	H	Correct Rejection
46.0242	1.0167	ISI	n/a	n/a	n/a	n/a
47.0409	0.5167	TARGET	1	31	H	Hit
47.5575	1.0167	ISI	n/a	n/a	n/a	n/a
47.5725	n/a	RESPONSE	n/a	n/a	n/a	n/a
48.5742	0.5166	DISTRACTOR	1	32	G	Correct Rejection
49.0909	1.0167	ISI	n/a	n/a	n/a	n/a
50.1076	0.5167	TARGET	1	33	G	Hit
50.4619	n/a	RESPONSE	n/a	n/a	n/a	n/a
50.6242	1.0166	ISI	n/a	n/a	n/a	n/a
51.6408	0.5167	DISTRACTOR	1	34	B	Correct Rejection
52.1576	1.0166	ISI	n/a	n/a	n/a	n/a
53.1742	0.5167	DISTRACTOR	1	35	G	Correct Rejection
53.6909	1.0167	ISI	n/a	n/a	n/a	n/a
54.7076	0.5166	TARGET	1	36	G	Hit
55.0596	n/a	RESPONSE	n/a	n/a	n/a	n/a
55.2242	1.0167	ISI	n/a	n/a	n/a	n/a
56.2409	0.5167	DISTRACTOR	1	37	F	Correct Rejection
56.7576	1.0166	ISI	n/a	n/a	n/a	n/a
57.7742	0.5167	DISTRACTOR	1	38	J	Correct Rejection
58.2909	1.0167	ISI	n/a	n/a	n/a	n/a
59.3076	0.5166	DISTRACTOR	1	39	D	Correct Rejection
59.8243	1.0167	ISI	n/a	n/a	n/a	n/a
60.841	0.5166	DISTRACTOR	1	40	G	Correct Rejection
61.3576	1.0167	ISI	n/a	n/a	n/a	n/a
62.3743	0.5167	DISTRACTOR	1	41	B	Correct Rejection
62.891	1.0167	ISI	n/a	n/a	n/a	n/a
63.9077	0.5167	TARGET	1	42	B	Hit
64.4243	1.0167	ISI	n/a	n/a	n/a	n/a
64.4782	n/a	RESPONSE	n/a	n/a	n/a	n/a
65.441	0.5166	DISTRACTOR	1	43	A	Correct Rejection
65.9576	1.0167	ISI	n/a	n/a	n/a	n/a
66.9743	0.5167	DISTRACTOR	1	44	B	Correct Rejection
67.491	1.0166	ISI	n/a	n/a	n/a	n/a
68.5077	0.5167	DISTRACTOR	1	45	F	Correct Rejection
69.0244	1.0167	ISI	n/a	n/a	n/a	n/a
70.041	0.5167	TARGET	1	46	F	Hit
70.4168	n/a	RESPONSE	n/a	n/a	n/a	n/a
70.5577	1.0167	ISI	n/a	n/a	n/a	n/a
71.5744	0.5167	DISTRACTOR	1	47	A	Correct Rejection
72.0911	1.0167	ISI	n/a	n/a	n/a	n/a
73.1077	0.5167	DISTRACTOR	1	48	I	Correct Rejection
73.6244	1.0167	ISI	n/a	n/a	n/a	n/a
74.6411	0.5167	TARGET	1	49	I	Hit
74.9667	n/a	RESPONSE	n/a	n/a	n/a	n/a
75.1577	1.0167	ISI	n/a	n/a	n/a	n/a
76.1744	0.5167	DISTRACTOR	1	50	D	Correct Rejection
76.6911	1.1327	ISI	n/a	n/a	n/a	n/a
88.488	n/a	RESPONSE	n/a	n/a	n/a	n/a
88.5412	1.0167	ISI	n/a	n/a	n/a	n/a
89.5579	0.5167	DISTRACTOR	2	1	J	Correct Rejection
90.0745	1.0167	ISI	n/a	n/a	n/a	n/a
91.0912	0.5167	DISTRACTOR	2	2	I	Correct Rejection
91.6079	1.0167	ISI	n/a	n/a	n/a	n/a
92.6245	0.5166	DISTRACTOR	2	3	I	Correct Rejection
93.1412	1.0167	ISI	n/a	n/a	n/a	n/a
94.1579	0.5167	DISTRACTOR	2	4	H	Correct Rejection
94.6746	1.0167	ISI	n/a	n/a	n/a	n/a
95.6912	0.5167	DISTRACTOR	2	5	H	Correct Rejection
96.2079	1.0167	ISI	n/a	n/a	n/a	n/a
97.2246	0.5166	DISTRACTOR	2	6	F	Correct Rejection
97.7412	1.0167	ISI	n/a	n/a	n/a	n/a
98.7579	0.5167	DISTRACTOR	2	7	D	Correct Rejection
99.2746	1.0167	ISI	n/a	n/a	n/a	n/a
100.2913	0.5167	TARGET	2	8	F	Miss
100.8079	1.0167	ISI	n/a	n/a	n/a	n/a
101.8246	0.5167	DISTRACTOR	2	9	B	Correct Rejection
102.3413	1.0167	ISI	n/a	n/a	n/a	n/a
103.358	0.5166	DISTRACTOR	2	10	I	Correct Rejection
103.8746	1.0167	ISI	n/a	n/a	n/a	n/a
104.8913	0.5167	DISTRACTOR	2	11	A	Correct Rejection
105.408	1.0166	ISI	n/a	n/a	n/a	n/a
106.4246	0.5167	DISTRACTOR	2	12	E	Correct Rejection
106.9413	1.0167	ISI	n/a	n/a	n/a	n/a
107.958	0.5167	TARGET	2	13	A	Hit
108.4747	1.0166	ISI	n/a	n/a	n/a	n/a
108.7462	n/a	RESPONSE	n/a	n/a	n/a	n/a
109.4913	0.5167	TARGET	2	14	E	Miss
110.008	1.0167	ISI	n/a	n/a	n/a	n/a
111.0247	0.5166	DISTRACTOR	2	15	E	Correct Rejection
111.5413	1.0167	ISI	n/a	n/a	n/a	n/a
112.558	0.5167	DISTRACTOR	2	16	I	Correct Rejection
113.0747	1.0167	ISI	n/a	n/a	n/a	n/a
114.0914	0.5166	DISTRACTOR	2	17	J	Correct Rejection
114.608	1.0167	ISI	n/a	n/a	n/a	n/a
115.6247	0.5167	TARGET	2	18	I	Hit
115.9938	n/a	RESPONSE	n/a	n/a	n/a	n/a
116.1414	1.0166	ISI	n/a	n/a	n/a	n/a
117.158	0.5167	DISTRACTOR	2	19	D	Correct Rejection
117.6747	1.0167	ISI	n/a	n/a	n/a	n/a
118.6914	0.5166	DISTRACTOR	2	20	A	Correct Rejection
119.208	1.0167	ISI	n/a	n/a	n/a	n/a
120.2247	0.5167	TARGET	2	21	D	Hit
120.5755	n/a	RESPONSE	n/a	n/a	n/a	n/a
120.7414	1.0167	ISI	n/a	n/a	n/a	n/a
121.7581	0.5167	DISTRACTOR	2	22	G	Correct Rejection
122.2748	1.0166	ISI	n/a	n/a	n/a	n/a
123.2914	0.5167	DISTRACTOR	2	23	F	Correct Rejection
123.8081	1.0167	ISI	n/a	n/a	n/a	n/a
124.8248	0.5167	TARGET	2	24	G	Hit
125.2689	n/a	RESPONSE	n/a	n/a	n/a	n/a
125.3415	1.0167	ISI	n/a	n/a	n/a	n/a
126.3581	0.5166	DISTRACTOR	2	25	E	Correct Rejection
126.8748	1.0167	ISI	n/a	n/a	n/a	n/a
127.8915	0.5167	TARGET	2	26	G	Hit
128.4082	1.0167	ISI	n/a	n/a	n/a	n/a
128.6212	n/a	RESPONSE	n/a	n/a	n/a	n/a
129.4248	0.5166	DISTRACTOR	2	27	C	Correct Rejection
129.9414	1.0167	ISI	n/a	n/a	n/a	n/a
130.9582	0.5167	DISTRACTOR	2	28	A	Correct Rejection
131.4748	1.0167	ISI	n/a	n/a	n/a	n/a
132.4915	0.5167	TARGET	2	29	C	Hit
132.7719	n/a	RESPONSE	n/a	n/a	n/a	n/a
133.0082	1.0167	ISI	n/a	n/a	n/a	n/a
134.0249	0.5166	DISTRACTOR	2	30	E	Correct Rejection
134.5415	1.0167	ISI	n/a	n/a	n/a	n/a
135.5582	0.5166	DISTRACTOR	2	31	I	Correct Rejection
136.0748	1.0167	ISI	n/a	n/a	n/a	n/a
137.0915	0.5167	DISTRACTOR	2	32	F	Correct Rejection
137.6082	1.0167	ISI	n/a	n/a	n/a	n/a
138.6249	0.5166	DISTRACTOR	2	33	D	Correct Rejection
139.1415	1.0167	ISI	n/a	n/a	n/a	n/a
140.1582	0.5167	TARGET	2	34	F	Hit
140.6749	1.0167	ISI	n/a	n/a	n/a	n/a
140.7378	n/a	RESPONSE	n/a	n/a	n/a	n/a
141.6916	0.5167	DISTRACTOR	2	35	H	Correct Rejection
142.2082	1.0167	ISI	n/a	n/a	n/a	n/a
143.2249	0.5166	DISTRACTOR	2	36	H	Correct Rejection
143.7416	1.0167	ISI	n/a	n/a	n/a	n/a
144.7583	0.5166	DISTRACTOR	2	37	G	Correct Rejection
145.2749	1.0167	ISI	n/a	n/a	n/a	n/a
146.2916	0.5167	DISTRACTOR	2	38	G	Correct Rejection
146.8083	1.0166	ISI	n/a	n/a	n/a	n/a
147.8249	0.5167	DISTRACTOR	2	39	F	Correct Rejection
148.3416	1.0167	ISI	n/a	n/a	n/a	n/a
149.3583	0.5167	DISTRACTOR	2	40	I	Correct Rejection
149.875	1.0167	ISI	n/a	n/a	n/a	n/a
150.8916	0.5167	DISTRACTOR	2	41	B	Correct Rejection
151.4083	1.0167	ISI	n/a	n/a	n/a	n/a
152.425	0.5167	DISTRACTOR	2	42	G	Correct Rejection
152.9417	1.0166	ISI	n/a	n/a	n/a	n/a
153.9583	0.5167	DISTRACTOR	2	43	D	Correct Rejection
154.475	1.0167	ISI	n/a	n/a	n/a	n/a
155.4917	0.5166	DISTRACTOR	2	44	F	Correct Rejection
156.0083	1.0167	ISI	n/a	n/a	n/a	n/a
157.025	0.5167	DISTRACTOR	2	45	B	Correct Rejection
157.5417	1.0167	ISI	n/a	n/a	n/a	n/a
158.5584	0.5167	DISTRACTOR	2	46	J	Correct Rejection
159.075	1.0167	ISI	n/a	n/a	n/a	n/a
160.0917	0.5166	DISTRACTOR	2	47	J	Correct Rejection
160.6083	1.0167	ISI	n/a	n/a	n/a	n/a
161.6251	0.5166	DISTRACTOR	2	48	E	Correct Rejection
162.1417	1.0167	ISI	n/a	n/a	n/a	n/a
163.1584	0.5167	DISTRACTOR	2	49	E	Correct Rejection
163.6751	1.0166	ISI	n/a	n/a	n/a	n/a
164.6917	0.5167	TARGET	2	50	E	Hit
165.0669	n/a	RESPONSE	n/a	n/a	n/a	n/a
165.2084	1.1	ISI	n/a	n/a	n/a	n/a
184.4631	n/a	RESPONSE	n/a	n/a	n/a	n/a
184.5252	1.0167	ISI	n/a	n/a	n/a	n/a
185.5419	0.5166	DISTRACTOR	3	1	G	Correct Rejection
186.0585	1.0167	ISI	n/a	n/a	n/a	n/a
187.0752	0.5167	DISTRACTOR	3	2	A	Correct Rejection
187.5919	1.0167	ISI	n/a	n/a	n/a	n/a
188.6086	0.5166	DISTRACTOR	3	3	H	Correct Rejection
189.1252	1.0167	ISI	n/a	n/a	n/a	n/a
190.1419	0.5167	DISTRACTOR	3	4	C	Correct Rejection
190.6586	1.0166	ISI	n/a	n/a	n/a	n/a
191.6753	0.5167	DISTRACTOR	3	5	D	Correct Rejection
192.1919	1.0166	ISI	n/a	n/a	n/a	n/a
193.2086	0.5167	DISTRACTOR	3	6	D	Correct Rejection
193.7253	1.0167	ISI	n/a	n/a	n/a	n/a
194.7419	0.5167	DISTRACTOR	3	7	B	Correct Rejection
195.2586	1.0167	ISI	n/a	n/a	n/a	n/a
196.2753	0.5167	DISTRACTOR	3	8	J	Correct Rejection
196.792	1.0167	ISI	n/a	n/a	n/a	n/a
197.8087	0.5167	DISTRACTOR	3	9	H	Correct Rejection
198.3253	1.0167	ISI	n/a	n/a	n/a	n/a
199.342	0.5167	DISTRACTOR	3	10	A	Correct Rejection
199.8587	1.0167	ISI	n/a	n/a	n/a	n/a
200.8753	0.5167	DISTRACTOR	3	11	F	Correct Rejection
201.392	1.0167	ISI	n/a	n/a	n/a	n/a
202.4087	0.5167	DISTRACTOR	3	12	A	Correct Rejection
202.9254	1.0167	ISI	n/a	n/a	n/a	n/a
203.942	0.5166	DISTRACTOR	3	13	I	Correct Rejection
204.4587	1.0167	ISI	n/a	n/a	n/a	n/a
205.4754	0.5167	DISTRACTOR	3	14	C	Correct Rejection
205.9921	1.0167	ISI	n/a	n/a	n/a	n/a
207.0087	0.5167	TARGET	3	15	A	Miss
207.5254	1.0167	ISI	n/a	n/a	n/a	n/a
208.5421	0.5166	DISTRACTOR	3	16	A	Correct Rejection
209.0587	1.0167	ISI	n/a	n/a	n/a	n/a
210.0754	0.5167	DISTRACTOR	3	17	J	Correct Rejection
210.5921	1.0167	ISI	n/a	n/a	n/a	n/a
211.6088	0.5166	DISTRACTOR	3	18	G	Correct Rejection
212.1254	1.0167	ISI	n/a	n/a	n/a	n/a
213.1421	0.5167	DISTRACTOR	3	19	E	Correct Rejection
213.6588	1.0167	ISI	n/a	n/a	n/a	n/a
214.6755	0.5167	DISTRACTOR	3	20	B	Correct Rejection
215.1921	1.0167	ISI	n/a	n/a	n/a	n/a
216.2088	0.5167	TARGET	3	21	G	Hit
216.4867	n/a	RESPONSE	n/a	n/a	n/a	n/a
216.7255	1.0167	ISI	n/a	n/a	n/a	n/a
217.7421	0.5167	DISTRACTOR	3	22	C	Correct Rejection
218.2588	1.0167	ISI	n/a	n/a	n/a	n/a
219.2755	0.5166	DISTRACTOR	3	23	D	Correct Rejection
219.7921	1.0167	ISI	n/a	n/a	n/a	n/a
220.8088	0.5167	DISTRACTOR	3	24	C	Correct Rejection
221.3255	1.0167	ISI	n/a	n/a	n/a	n/a
222.3422	0.5167	DISTRACTOR	3	25	I	Correct Rejection
222.8588	1.0167	ISI	n/a	n/a	n/a	n/a
223.8755	0.5167	DISTRACTOR	3	26	B	Correct Rejection
224.3922	1.0167	ISI	n/a	n/a	n/a	n/a
225.4089	0.5166	TARGET	3	27	C	Miss
225.9255	1.0167	ISI	n/a	n/a	n/a	n/a
226.9422	0.5167	DISTRACTOR	3	28	F	Correct Rejection
227.4589	1.0167	ISI	n/a	n/a	n/a	n/a
228.4755	0.5166	TARGET	3	29	B	Miss
228.9922	1.0167	ISI	n/a	n/a	n/a	n/a
230.0089	0.5167	DISTRACTOR	3	30	J	Correct Rejection
230.5256	1.0167	ISI	n/a	n/a	n/a	n/a
231.5422	0.5167	DISTRACTOR	3	31	I	Correct Rejection
232.0589	1.0167	ISI	n/a	n/a	n/a	n/a
233.0756	0.5167	TARGET	3	32	B	Miss
233.5922	1.0166	ISI	n/a	n/a	n/a	n/a
234.6089	0.5167	DISTRACTOR	3	33	C	Correct Rejection
235.1256	1.0167	ISI	n/a	n/a	n/a	n/a
236.1423	0.5167	TARGET	3	34	I	Hit
236.4255	n/a	RESPONSE	n/a	n/a	n/a	n/a
236.6589	1.0166	ISI	n/a	n/a	n/a	n/a
237.6756	0.5167	DISTRACTOR	3	35	J	Correct Rejection
238.1923	1.0166	ISI	n/a	n/a	n/a	n/a
239.2089	0.5167	DISTRACTOR	3	36	A	Correct Rejection
239.7256	1.0167	ISI	n/a	n/a	n/a	n/a
240.7423	0.5167	TARGET	3	37	I	Hit
241.103	n/a	RESPONSE	n/a	n/a	n/a	n/a
241.259	1.0167	ISI	n/a	n/a	n/a	n/a
242.2757	0.5167	DISTRACTOR	3	38	E	Correct Rejection
242.7923	1.0167	ISI	n/a	n/a	n/a	n/a
243.809	0.5167	DISTRACTOR	3	39	G	Correct Rejection
244.3257	1.0167	ISI	n/a	n/a	n/a	n/a
245.3423	0.5167	TARGET	3	40	I	Miss
245.859	1.0167	ISI	n/a	n/a	n/a	n/a
246.8757	0.5167	DISTRACTOR	3	41	D	Correct Rejection
247.3924	1.0167	ISI	n/a	n/a	n/a	n/a
248.409	0.5167	TARGET	3	42	G	Miss
248.9257	1.0167	ISI	n/a	n/a	n/a	n/a
249.9424	0.5167	DISTRACTOR	3	43	A	Correct Rejection
250.459	1.0167	ISI	n/a	n/a	n/a	n/a
251.4757	0.5167	DISTRACTOR	3	44	A	Correct Rejection
251.9924	1.0166	ISI	n/a	n/a	n/a	n/a
253.009	0.5167	DISTRACTOR	3	45	E	Correct Rejection
253.5257	1.0167	ISI	n/a	n/a	n/a	n/a
254.5424	0.5167	DISTRACTOR	3	46	F	Correct Rejection
255.0591	1.0167	ISI	n/a	n/a	n/a	n/a
256.0757	0.5167	DISTRACTOR	3	47	I	Correct Rejection
256.5924	1.0167	ISI	n/a	n/a	n/a	n/a
257.6091	0.5167	DISTRACTOR	3	48	A	Correct Rejection
258.1258	1.0166	ISI	n/a	n/a	n/a	n/a
259.1424	0.5167	DISTRACTOR	3	49	B	Correct Rejection
259.6591	1.0167	ISI	n/a	n/a	n/a	n/a
260.6758	0.5166	TARGET	3	50	I	Miss
261.1924	1.0334	ISI	n/a	n/a	n/a	n/a
263.8995	n/a	RESPONSE	n/a	n/a	n/a	n/a
