onset	duration	trial_type	melody_number	melody_part	key	sound	action
0.0	14.083	CUE_START	n/a	n/a	n/a	n/a	n/a
14.084	7.76	FIXCROSS	n/a	n/a	n/a	n/a	n/a
21.843	6.324	CUE_LISTEN	M1	1	n/a	n/a	n/a
28.167	7.758	FIXCROSS	n/a	n/a	n/a	n/a	n/a
35.925	6.317	CUE_PLAYBACK_RIGHT_HAND	M1	1	n/a	n/a	n/a
37.3	n/a	RESPONSE	M1	1	19	G4	press
37.842	n/a	RESPONSE	M1	1	16	E4	press
37.883	n/a	RESPONSE	M1	1	19	G4	release
38.114	n/a	RESPONSE	M1	1	16	E4	release
38.275	n/a	RESPONSE	M1	1	16	E4	press
38.768	n/a	RESPONSE	M1	1	17	F4	press
38.838	n/a	RESPONSE	M1	1	16	E4	release
39.279	n/a	RESPONSE	M1	1	14	D4	press
39.322	n/a	RESPONSE	M1	1	17	F4	release
39.567	n/a	RESPONSE	M1	1	14	D4	release
39.707	n/a	RESPONSE	M1	1	14	D4	press
40.203	n/a	RESPONSE	M1	1	12	C4	press
40.303	n/a	RESPONSE	M1	1	14	D4	release
40.463	n/a	RESPONSE	M1	1	16	E4	press
40.552	n/a	RESPONSE	M1	1	12	C4	release
40.789	n/a	RESPONSE	M1	1	19	G4	press
40.944	n/a	RESPONSE	M1	1	16	E4	release
41.64	n/a	RESPONSE	M1	1	19	G4	release
42.242	7.758	FIXCROSS	n/a	n/a	n/a	n/a	n/a
50.0	6.325	CUE_LISTEN	        M1	2	n/a	n/a	n/a
56.325	7.758	FIXCROSS	n/a	n/a	n/a	n/a	n/a
64.084	6.308	CUE_PLAYBACK_RIGHT_HAND	        M1	2	n/a	n/a	n/a
64.785	n/a	RESPONSE	        M1	2	19	G4	press
65.276	n/a	RESPONSE	        M1	2	16	E4	press
65.339	n/a	RESPONSE	        M1	2	19	G4	release
65.669	n/a	RESPONSE	        M1	2	16	E4	release
65.77	n/a	RESPONSE	        M1	2	16	E4	press
66.513	n/a	RESPONSE	        M1	2	16	E4	release
66.774	n/a	RESPONSE	        M1	2	17	F4	press
67.285	n/a	RESPONSE	        M1	2	17	F4	release
67.288	n/a	RESPONSE	        M1	2	14	D4	press
67.638	n/a	RESPONSE	        M1	2	14	D4	release
67.759	n/a	RESPONSE	        M1	2	14	D4	press
68.3	n/a	RESPONSE	        M1	2	14	D4	release
68.352	n/a	RESPONSE	        M1	2	12	C4	press
68.574	n/a	RESPONSE	        M1	2	16	E4	press
68.684	n/a	RESPONSE	        M1	2	12	C4	release
68.887	n/a	RESPONSE	        M1	2	12	C4	press
69.017	n/a	RESPONSE	        M1	2	16	E4	release
69.752	n/a	RESPONSE	        M1	2	12	C4	release
70.392	7.758	FIXCROSS	n/a	n/a	n/a	n/a	n/a
78.15	6.325	CUE_LISTEN	        M7	1	n/a	n/a	n/a
84.475	7.758	FIXCROSS	n/a	n/a	n/a	n/a	n/a
92.234	6.317	CUE_PLAYBACK_BOTH_HANDS	        M7	1	n/a	n/a	n/a
93.656	n/a	RESPONSE	        M7	1	07	G3	press
93.668	n/a	RESPONSE	        M7	1	22	A#4	press
94.329	n/a	RESPONSE	        M7	1	21	A4	press
94.42	n/a	RESPONSE	        M7	1	22	A#4	release
94.942	n/a	RESPONSE	        M7	1	19	G4	press
95.043	n/a	RESPONSE	        M7	1	21	A4	release
95.546	n/a	RESPONSE	        M7	1	05	F3	press
95.558	n/a	RESPONSE	        M7	1	21	A4	press
95.616	n/a	RESPONSE	        M7	1	19	G4	release
95.678	n/a	RESPONSE	        M7	1	07	G3	release
96.3	n/a	RESPONSE	        M7	1	14	D4	press
96.363	n/a	RESPONSE	        M7	1	21	A4	release
96.833	n/a	RESPONSE	        M7	1	14	D4	release
96.944	n/a	RESPONSE	        M7	1	14	D4	press
97.575	n/a	RESPONSE	        M7	1	19	G4	press
97.606	n/a	RESPONSE	        M7	1	03	D#3	press
97.678	n/a	RESPONSE	        M7	1	14	D4	release
97.68	n/a	RESPONSE	        M7	1	05	F3	release
98.55	7.767	FIXCROSS	n/a	n/a	n/a	n/a	n/a
98.922	n/a	RESPONSE	        M7	1	07	G3	press
98.952	n/a	RESPONSE	        M7	1	09	A3	press
98.954	n/a	RESPONSE	        M7	1	19	G4	release
99.189	n/a	RESPONSE	        M7	1	09	A3	release
99.454	n/a	RESPONSE	        M7	1	09	A3	press
99.61	n/a	RESPONSE	        M7	1	09	A3	release
99.683	n/a	RESPONSE	        M7	1	07	G3	release
99.876	n/a	RESPONSE	        M7	1	09	A3	press
100.338	n/a	RESPONSE	        M7	1	11	B3	press
100.44	n/a	RESPONSE	        M7	1	09	A3	release
100.78	n/a	RESPONSE	        M7	1	11	B3	release
100.874	n/a	RESPONSE	        M7	1	03	D#3	release
101.046	n/a	RESPONSE	        M7	1	07	G3	press
101.363	n/a	RESPONSE	        M7	1	09	A3	press
101.549	n/a	RESPONSE	        M7	1	07	G3	release
101.684	n/a	RESPONSE	        M7	1	10	A#3	press
101.713	n/a	RESPONSE	        M7	1	09	A3	release
102.142	n/a	RESPONSE	        M7	1	12	C4	press
102.189	n/a	RESPONSE	        M7	1	10	A#3	release
102.897	n/a	RESPONSE	        M7	1	12	C4	release
102.988	n/a	RESPONSE	        M7	1	12	C4	press
102.99	n/a	RESPONSE	        M7	1	02	D3	press
103.64	n/a	RESPONSE	        M7	1	12	C4	release
104.292	n/a	RESPONSE	        M7	1	14	D4	press
105.384	n/a	RESPONSE	        M7	1	14	D4	release
105.424	n/a	RESPONSE	        M7	1	02	D3	release
106.317	6.317	CUE_LISTEN	        M7	2	n/a	n/a	n/a
112.634	7.758	FIXCROSS	n/a	n/a	n/a	n/a	n/a
120.392	6.317	CUE_PLAYBACK_BOTH_HANDS	        M7	2	n/a	n/a	n/a
121.104	n/a	RESPONSE	        M7	2	10	A#3	press
121.108	n/a	RESPONSE	        M7	2	07	G3	press
121.112	n/a	RESPONSE	        M7	2	15	D#4	press
121.749	n/a	RESPONSE	        M7	2	17	F4	press
121.823	n/a	RESPONSE	        M7	2	15	D#4	release
122.144	n/a	RESPONSE	        M7	2	15	D#4	press
122.216	n/a	RESPONSE	        M7	2	17	F4	release
122.526	n/a	RESPONSE	        M7	2	14	D4	press
122.529	n/a	RESPONSE	        M7	2	09	A3	press
122.566	n/a	RESPONSE	        M7	2	07	G3	release
122.627	n/a	RESPONSE	        M7	2	10	A#3	release
122.649	n/a	RESPONSE	        M7	2	15	D#4	release
122.89	n/a	RESPONSE	        M7	2	12	C4	press
122.983	n/a	RESPONSE	        M7	2	14	D4	release
123.272	n/a	RESPONSE	        M7	2	14	D4	press
123.293	n/a	RESPONSE	        M7	2	10	A#3	press
123.354	n/a	RESPONSE	        M7	2	12	C4	release
123.358	n/a	RESPONSE	        M7	2	09	A3	release
123.966	n/a	RESPONSE	        M7	2	15	D#4	press
124.018	n/a	RESPONSE	        M7	2	14	D4	release
124.399	n/a	RESPONSE	        M7	2	14	D4	press
124.492	n/a	RESPONSE	        M7	2	15	D#4	release
124.762	n/a	RESPONSE	        M7	2	07	G3	press
124.783	n/a	RESPONSE	        M7	2	12	C4	press
124.824	n/a	RESPONSE	        M7	2	10	A#3	release
124.865	n/a	RESPONSE	        M7	2	14	D4	release
125.227	n/a	RESPONSE	        M7	2	10	A#3	press
125.448	n/a	RESPONSE	        M7	2	12	C4	release
125.559	n/a	RESPONSE	        M7	2	09	A3	press
125.59	n/a	RESPONSE	        M7	2	12	C4	press
125.672	n/a	RESPONSE	        M7	2	07	G3	release
125.753	n/a	RESPONSE	        M7	2	10	A#3	release
126.286	n/a	RESPONSE	        M7	2	14	D4	press
126.368	n/a	RESPONSE	        M7	2	12	C4	release
126.668	n/a	RESPONSE	        M7	2	12	C4	press
126.709	7.758	FIXCROSS	n/a	n/a	n/a	n/a	n/a
126.722	n/a	RESPONSE	        M7	2	14	D4	release
128.77	n/a	RESPONSE	        M7	2	10	A#3	press
128.821	n/a	RESPONSE	        M7	2	12	C4	release
129.254	n/a	RESPONSE	        M7	2	12	C4	press
129.297	n/a	RESPONSE	        M7	2	10	A#3	release
129.758	n/a	RESPONSE	        M7	2	04	E3	press
129.913	n/a	RESPONSE	        M7	2	12	C4	release
130.559	n/a	RESPONSE	        M7	2	09	A3	release
130.601	n/a	RESPONSE	        M7	2	04	E3	release
131.229	n/a	RESPONSE	        M7	2	02	D3	press
131.232	n/a	RESPONSE	        M7	2	09	A3	press
131.553	n/a	RESPONSE	        M7	2	02	D3	release
131.875	n/a	RESPONSE	        M7	2	09	A3	release
134.467	6.317	CUE_LISTEN	        M5	1	n/a	n/a	n/a
140.784	7.758	FIXCROSS	n/a	n/a	n/a	n/a	n/a
148.542	6.325	CUE_PLAYBACK_RIGHT_HAND	        M5	1	n/a	n/a	n/a
149.178	n/a	RESPONSE	        M5	1	21	A4	press
149.409	n/a	RESPONSE	        M5	1	21	A4	release
149.529	n/a	RESPONSE	        M5	1	21	A4	press
149.724	n/a	RESPONSE	        M5	1	21	A4	release
149.854	n/a	RESPONSE	        M5	1	21	A4	press
150.34	n/a	RESPONSE	        M5	1	21	A4	release
150.496	n/a	RESPONSE	        M5	1	21	A4	press
150.709	n/a	RESPONSE	        M5	1	21	A4	release
150.812	n/a	RESPONSE	        M5	1	21	A4	press
150.998	n/a	RESPONSE	        M5	1	21	A4	release
151.109	n/a	RESPONSE	        M5	1	21	A4	press
151.579	n/a	RESPONSE	        M5	1	21	A4	release
151.695	n/a	RESPONSE	        M5	1	21	A4	press
152.074	n/a	RESPONSE	        M5	1	24	C5	press
152.145	n/a	RESPONSE	        M5	1	21	A4	release
152.594	n/a	RESPONSE	        M5	1	17	F4	press
152.966	n/a	RESPONSE	        M5	1	19	G4	press
153.048	n/a	RESPONSE	        M5	1	17	F4	release
153.149	n/a	RESPONSE	        M5	1	24	C5	release
153.312	n/a	RESPONSE	        M5	1	21	A4	press
153.392	n/a	RESPONSE	        M5	1	19	G4	release
154.303	n/a	RESPONSE	        M5	1	21	A4	release
154.867	7.758	FIXCROSS	n/a	n/a	n/a	n/a	n/a
162.626	6.317	CUE_LISTEN	        M5	2	n/a	n/a	n/a
168.942	7.758	FIXCROSS	n/a	n/a	n/a	n/a	n/a
176.701	6.317	CUE_PLAYBACK_RIGHT_HAND	        M5	2	n/a	n/a	n/a
177.414	n/a	RESPONSE	        M5	2	22	A#4	press
177.715	n/a	RESPONSE	        M5	2	22	A#4	release
177.786	n/a	RESPONSE	        M5	2	22	A#4	press
178.069	n/a	RESPONSE	        M5	2	22	A#4	release
178.179	n/a	RESPONSE	        M5	2	22	A#4	press
178.443	n/a	RESPONSE	        M5	2	22	A#4	release
178.542	n/a	RESPONSE	        M5	2	22	A#4	press
178.763	n/a	RESPONSE	        M5	2	22	A#4	release
178.894	n/a	RESPONSE	        M5	2	22	A#4	press
179.319	n/a	RESPONSE	        M5	2	21	A4	press
179.462	n/a	RESPONSE	        M5	2	22	A#4	release
179.599	n/a	RESPONSE	        M5	2	21	A4	release
179.719	n/a	RESPONSE	        M5	2	21	A4	press
179.966	n/a	RESPONSE	        M5	2	21	A4	release
180.113	n/a	RESPONSE	        M5	2	21	A4	press
180.993	n/a	RESPONSE	        M5	2	21	A4	release
181.116	n/a	RESPONSE	        M5	2	24	C5	press
181.695	n/a	RESPONSE	        M5	2	24	C5	release
181.803	n/a	RESPONSE	        M5	2	24	C5	press
182.082	n/a	RESPONSE	        M5	2	24	C5	release
182.255	n/a	RESPONSE	        M5	2	22	A#4	press
182.779	n/a	RESPONSE	        M5	2	19	G4	press
182.81	n/a	RESPONSE	        M5	2	22	A#4	release
183.017	7.758	FIXCROSS	n/a	n/a	n/a	n/a	n/a
183.252	n/a	RESPONSE	        M5	2	17	F4	press
183.313	n/a	RESPONSE	        M5	2	19	G4	release
184.254	n/a	RESPONSE	        M5	2	17	F4	release
190.776	6.325	CUE_LISTEN	        M3	1	n/a	n/a	n/a
197.101	7.758	FIXCROSS	n/a	n/a	n/a	n/a	n/a
204.859	6.317	CUE_PLAYBACK_BOTH_HANDS	        M3	1	n/a	n/a	n/a
205.525	n/a	RESPONSE	        M3	1	00	C3	press
205.544	n/a	RESPONSE	        M3	1	12	C4	press
205.926	n/a	RESPONSE	        M3	1	07	G3	press
205.948	n/a	RESPONSE	        M3	1	14	D4	press
206.029	n/a	RESPONSE	        M3	1	00	C3	release
206.1	n/a	RESPONSE	        M3	1	12	C4	release
206.352	n/a	RESPONSE	        M3	1	04	E3	press
206.354	n/a	RESPONSE	        M3	1	16	E4	press
206.474	n/a	RESPONSE	        M3	1	14	D4	release
206.515	n/a	RESPONSE	        M3	1	07	G3	release
206.736	n/a	RESPONSE	        M3	1	12	C4	press
206.739	n/a	RESPONSE	        M3	1	07	G3	press
206.829	n/a	RESPONSE	        M3	1	04	E3	release
206.852	n/a	RESPONSE	        M3	1	16	E4	release
207.012	n/a	RESPONSE	        M3	1	12	C4	release
207.124	n/a	RESPONSE	        M3	1	00	C3	press
207.134	n/a	RESPONSE	        M3	1	12	C4	press
207.278	n/a	RESPONSE	        M3	1	07	G3	release
207.516	n/a	RESPONSE	        M3	1	07	G3	press
207.539	n/a	RESPONSE	        M3	1	14	D4	press
207.599	n/a	RESPONSE	        M3	1	00	C3	release
207.67	n/a	RESPONSE	        M3	1	12	C4	release
207.872	n/a	RESPONSE	        M3	1	16	E4	press
207.883	n/a	RESPONSE	        M3	1	04	E3	press
207.984	n/a	RESPONSE	        M3	1	14	D4	release
208.036	n/a	RESPONSE	        M3	1	07	G3	release
208.249	n/a	RESPONSE	        M3	1	12	C4	press
208.258	n/a	RESPONSE	        M3	1	07	G3	press
208.32	n/a	RESPONSE	        M3	1	04	E3	release
208.332	n/a	RESPONSE	        M3	1	16	E4	release
208.603	n/a	RESPONSE	        M3	1	00	C3	press
208.605	n/a	RESPONSE	        M3	1	16	E4	press
208.688	n/a	RESPONSE	        M3	1	12	C4	release
208.768	n/a	RESPONSE	        M3	1	07	G3	release
208.998	n/a	RESPONSE	        M3	1	07	G3	press
209.0	n/a	RESPONSE	        M3	1	17	F4	press
209.06	n/a	RESPONSE	        M3	1	00	C3	release
209.092	n/a	RESPONSE	        M3	1	16	E4	release
209.355	n/a	RESPONSE	        M3	1	04	E3	press
209.382	n/a	RESPONSE	        M3	1	19	G4	press
209.484	n/a	RESPONSE	        M3	1	17	F4	release
209.502	n/a	RESPONSE	        M3	1	07	G3	release
209.74	n/a	RESPONSE	        M3	1	07	G3	press
209.814	n/a	RESPONSE	        M3	1	04	E3	release
209.889	n/a	RESPONSE	        M3	1	19	G4	release
210.108	n/a	RESPONSE	        M3	1	00	C3	press
210.129	n/a	RESPONSE	        M3	1	16	E4	press
210.235	n/a	RESPONSE	        M3	1	07	G3	release
210.465	n/a	RESPONSE	        M3	1	07	G3	press
210.494	n/a	RESPONSE	        M3	1	17	F4	press
210.518	n/a	RESPONSE	        M3	1	00	C3	release
210.53	n/a	RESPONSE	        M3	1	16	E4	release
210.829	n/a	RESPONSE	        M3	1	04	E3	press
210.84	n/a	RESPONSE	        M3	1	19	G4	press
210.916	n/a	RESPONSE	        M3	1	17	F4	release
210.934	n/a	RESPONSE	        M3	1	07	G3	release
211.176	7.758	FIXCROSS	n/a	n/a	n/a	n/a	n/a
211.199	n/a	RESPONSE	        M3	1	07	G3	press
211.272	n/a	RESPONSE	        M3	1	04	E3	release
211.743	n/a	RESPONSE	        M3	1	19	G4	release
211.933	n/a	RESPONSE	        M3	1	07	G3	release
218.934	6.317	CUE_LISTEN	        M3	2	n/a	n/a	n/a
225.251	7.758	FIXCROSS	n/a	n/a	n/a	n/a	n/a
233.009	6.325	CUE_PLAYBACK_BOTH_HANDS	        M3	2	n/a	n/a	n/a
234.105	n/a	RESPONSE	        M3	2	00	C3	press
234.126	n/a	RESPONSE	        M3	2	19	G4	press
234.398	n/a	RESPONSE	        M3	2	21	A4	press
234.439	n/a	RESPONSE	        M3	2	19	G4	release
234.61	n/a	RESPONSE	        M3	2	19	G4	press
234.622	n/a	RESPONSE	        M3	2	07	G3	press
234.703	n/a	RESPONSE	        M3	2	21	A4	release
234.744	n/a	RESPONSE	        M3	2	00	C3	release
234.875	n/a	RESPONSE	        M3	2	17	F4	press
235.036	n/a	RESPONSE	        M3	2	19	G4	release
235.068	n/a	RESPONSE	        M3	2	04	E3	press
235.099	n/a	RESPONSE	        M3	2	16	E4	press
235.2	n/a	RESPONSE	        M3	2	17	F4	release
235.233	n/a	RESPONSE	        M3	2	07	G3	release
235.553	n/a	RESPONSE	        M3	2	12	C4	press
235.555	n/a	RESPONSE	        M3	2	07	G3	press
235.665	n/a	RESPONSE	        M3	2	04	E3	release
235.826	n/a	RESPONSE	        M3	2	16	E4	release
235.962	n/a	RESPONSE	        M3	2	19	G4	press
235.97	n/a	RESPONSE	        M3	2	00	C3	press
236.012	n/a	RESPONSE	        M3	2	12	C4	release
236.065	n/a	RESPONSE	        M3	2	07	G3	release
236.214	n/a	RESPONSE	        M3	2	21	A4	press
236.258	n/a	RESPONSE	        M3	2	19	G4	release
236.386	n/a	RESPONSE	        M3	2	19	G4	press
236.428	n/a	RESPONSE	        M3	2	07	G3	press
236.449	n/a	RESPONSE	        M3	2	21	A4	release
236.483	n/a	RESPONSE	        M3	2	00	C3	release
236.622	n/a	RESPONSE	        M3	2	17	F4	press
236.793	n/a	RESPONSE	        M3	2	04	E3	press
236.806	n/a	RESPONSE	        M3	2	16	E4	press
236.815	n/a	RESPONSE	        M3	2	19	G4	release
236.918	n/a	RESPONSE	        M3	2	17	F4	release
236.979	n/a	RESPONSE	        M3	2	07	G3	release
237.269	n/a	RESPONSE	        M3	2	07	G3	press
237.283	n/a	RESPONSE	        M3	2	12	C4	press
237.373	n/a	RESPONSE	        M3	2	04	E3	release
237.423	n/a	RESPONSE	        M3	2	16	E4	release
237.644	n/a	RESPONSE	        M3	2	12	C4	release
237.698	n/a	RESPONSE	        M3	2	00	C3	press
237.716	n/a	RESPONSE	        M3	2	12	C4	press
237.798	n/a	RESPONSE	        M3	2	07	G3	release
238.102	n/a	RESPONSE	        M3	2	07	G3	press
238.18	n/a	RESPONSE	        M3	2	00	C3	release
238.282	n/a	RESPONSE	        M3	2	12	C4	release
238.483	n/a	RESPONSE	        M3	2	00	C3	press
238.485	n/a	RESPONSE	        M3	2	12	C4	press
238.605	n/a	RESPONSE	        M3	2	07	G3	release
239.079	n/a	RESPONSE	        M3	2	12	C4	release
239.108	n/a	RESPONSE	        M3	2	00	C3	release
239.236	n/a	RESPONSE	        M3	2	12	C4	press
239.239	n/a	RESPONSE	        M3	2	00	C3	press
239.334	7.758	FIXCROSS	n/a	n/a	n/a	n/a	n/a
239.613	n/a	RESPONSE	        M3	2	07	G3	press
239.693	n/a	RESPONSE	        M3	2	12	C4	release
239.698	n/a	RESPONSE	        M3	2	00	C3	release
239.955	n/a	RESPONSE	        M3	2	00	C3	press
239.969	n/a	RESPONSE	        M3	2	12	C4	press
240.108	n/a	RESPONSE	        M3	2	07	G3	release
240.646	n/a	RESPONSE	        M3	2	00	C3	release
240.699	n/a	RESPONSE	        M3	2	12	C4	release
247.092	6.317	CUE_LISTEN	        M6	1	n/a	n/a	n/a
253.409	7.758	FIXCROSS	n/a	n/a	n/a	n/a	n/a
261.167	6.317	CUE_PLAYBACK_BOTH_HANDS	        M6	1	n/a	n/a	n/a
262.134	n/a	RESPONSE	        M6	1	04	E3	press
262.148	n/a	RESPONSE	        M6	1	16	E4	press
262.24	n/a	RESPONSE	        M6	1	14	D4	press
262.819	n/a	RESPONSE	        M6	1	19	G4	press
262.86	n/a	RESPONSE	        M6	1	14	D4	release
262.881	n/a	RESPONSE	        M6	1	11	B3	press
262.923	n/a	RESPONSE	        M6	1	16	E4	release
263.015	n/a	RESPONSE	        M6	1	18	F#4	press
263.115	n/a	RESPONSE	        M6	1	19	G4	release
263.256	n/a	RESPONSE	        M6	1	04	E3	release
263.268	n/a	RESPONSE	        M6	1	19	G4	press
263.329	n/a	RESPONSE	        M6	1	18	F#4	release
263.393	n/a	RESPONSE	        M6	1	14	D4	press
263.401	n/a	RESPONSE	        M6	1	07	G3	press
263.404	n/a	RESPONSE	        M6	1	16	E4	press
263.534	n/a	RESPONSE	        M6	1	11	B3	release
264.068	n/a	RESPONSE	        M6	1	16	E4	release
264.076	n/a	RESPONSE	        M6	1	14	D4	release
264.079	n/a	RESPONSE	        M6	1	07	G3	release
264.17	n/a	RESPONSE	        M6	1	19	G4	release
264.29	n/a	RESPONSE	        M6	1	24	C5	press
264.601	n/a	RESPONSE	        M6	1	24	C5	release
265.513	n/a	RESPONSE	        M6	1	19	G4	press
265.814	n/a	RESPONSE	        M6	1	18	F#4	press
266.036	n/a	RESPONSE	        M6	1	18	F#4	release
266.708	n/a	RESPONSE	        M6	1	23	B4	press
266.779	n/a	RESPONSE	        M6	1	19	G4	release
266.94	n/a	RESPONSE	        M6	1	24	C5	press
267.031	n/a	RESPONSE	        M6	1	23	B4	release
267.173	n/a	RESPONSE	        M6	1	23	B4	press
267.334	n/a	RESPONSE	        M6	1	24	C5	release
267.484	7.758	FIXCROSS	n/a	n/a	n/a	n/a	n/a
267.495	n/a	RESPONSE	        M6	1	23	B4	release
267.938	n/a	RESPONSE	        M6	1	04	E3	press
268.318	n/a	RESPONSE	        M6	1	16	E4	press
269.146	n/a	RESPONSE	        M6	1	11	B3	press
269.175	n/a	RESPONSE	        M6	1	18	F#4	press
269.346	n/a	RESPONSE	        M6	1	04	E3	release
269.541	n/a	RESPONSE	        M6	1	18	F#4	release
269.748	n/a	RESPONSE	        M6	1	16	E4	release
269.76	n/a	RESPONSE	        M6	1	11	B3	release
270.006	n/a	RESPONSE	        M6	1	04	E3	press
270.036	n/a	RESPONSE	        M6	1	16	E4	press
270.454	n/a	RESPONSE	        M6	1	11	B3	press
270.479	n/a	RESPONSE	        M6	1	18	F#4	press
270.601	n/a	RESPONSE	        M6	1	04	E3	release
270.736	n/a	RESPONSE	        M6	1	18	F#4	release
270.836	n/a	RESPONSE	        M6	1	11	B3	release
271.238	n/a	RESPONSE	        M6	1	04	E3	press
272.056	n/a	RESPONSE	        M6	1	16	E4	release
272.149	n/a	RESPONSE	        M6	1	04	E3	release
275.242	6.325	CUE_LISTEN	        M6	2	n/a	n/a	n/a
281.567	7.758	FIXCROSS	n/a	n/a	n/a	n/a	n/a
289.326	6.317	CUE_PLAYBACK_BOTH_HANDS	        M6	2	n/a	n/a	n/a
290.345	n/a	RESPONSE	        M6	2	02	D3	press
290.355	n/a	RESPONSE	        M6	2	23	B4	press
290.404	n/a	RESPONSE	        M6	2	14	D4	press
291.471	n/a	RESPONSE	        M6	2	11	B3	press
291.668	n/a	RESPONSE	        M6	2	14	D4	release
291.701	n/a	RESPONSE	        M6	2	02	D3	release
293.724	n/a	RESPONSE	        M6	2	18	F#4	press
293.738	n/a	RESPONSE	        M6	2	08	G#3	press
293.746	n/a	RESPONSE	        M6	2	14	D4	press
293.75	n/a	RESPONSE	        M6	2	23	B4	release
293.83	n/a	RESPONSE	        M6	2	11	B3	release
294.23	n/a	RESPONSE	        M6	2	11	B3	press
294.252	n/a	RESPONSE	        M6	2	14	D4	release
294.274	n/a	RESPONSE	        M6	2	08	G#3	release
294.694	n/a	RESPONSE	        M6	2	14	D4	press
294.696	n/a	RESPONSE	        M6	2	11	B3	release
294.818	n/a	RESPONSE	        M6	2	04	E3	press
294.96	n/a	RESPONSE	        M6	2	02	D3	press
295.069	n/a	RESPONSE	        M6	2	04	E3	release
295.391	n/a	RESPONSE	        M6	2	02	D3	release
295.511	n/a	RESPONSE	        M6	2	11	B3	press
295.642	7.758	FIXCROSS	n/a	n/a	n/a	n/a	n/a
295.663	n/a	RESPONSE	        M6	2	14	D4	release
296.015	n/a	RESPONSE	        M6	2	11	B3	release
296.066	n/a	RESPONSE	        M6	2	18	F#4	release
303.401	6.317	CUE_LISTEN	        M2	1	n/a	n/a	n/a
309.718	7.758	FIXCROSS	n/a	n/a	n/a	n/a	n/a
312.868	n/a	RESPONSE	        M2	1	24	C5	press
313.128	n/a	RESPONSE	        M2	1	24	C5	release
317.476	6.325	CUE_PLAYBACK_RIGHT_HAND	        M2	1	n/a	n/a	n/a
318.143	n/a	RESPONSE	        M2	1	24	C5	press
318.564	n/a	RESPONSE	        M2	1	19	G4	press
318.626	n/a	RESPONSE	        M2	1	24	C5	release
318.786	n/a	RESPONSE	        M2	1	19	G4	release
318.918	n/a	RESPONSE	        M2	1	19	G4	press
319.304	n/a	RESPONSE	        M2	1	17	F4	press
319.39	n/a	RESPONSE	        M2	1	19	G4	release
319.709	n/a	RESPONSE	        M2	1	16	E4	press
319.808	n/a	RESPONSE	        M2	1	17	F4	release
320.016	n/a	RESPONSE	        M2	1	17	F4	press
320.103	n/a	RESPONSE	        M2	1	16	E4	release
320.34	n/a	RESPONSE	        M2	1	19	G4	press
320.44	n/a	RESPONSE	        M2	1	17	F4	release
320.915	n/a	RESPONSE	        M2	1	19	G4	release
321.069	n/a	RESPONSE	        M2	1	24	C5	press
321.425	n/a	RESPONSE	        M2	1	19	G4	press
321.476	n/a	RESPONSE	        M2	1	24	C5	release
321.656	n/a	RESPONSE	        M2	1	19	G4	release
321.753	n/a	RESPONSE	        M2	1	19	G4	press
322.106	n/a	RESPONSE	        M2	1	17	F4	press
322.166	n/a	RESPONSE	        M2	1	19	G4	release
322.448	n/a	RESPONSE	        M2	1	16	E4	press
322.503	n/a	RESPONSE	        M2	1	17	F4	release
322.788	n/a	RESPONSE	        M2	1	14	D4	press
322.941	n/a	RESPONSE	        M2	1	16	E4	release
323.341	n/a	RESPONSE	        M2	1	12	C4	press
323.471	n/a	RESPONSE	        M2	1	14	D4	release
323.801	7.758	FIXCROSS	n/a	n/a	n/a	n/a	n/a
324.153	n/a	RESPONSE	        M2	1	12	C4	release
331.559	6.317	CUE_LISTEN	        M2	2	n/a	n/a	n/a
337.876	7.758	FIXCROSS	n/a	n/a	n/a	n/a	n/a
345.634	6.325	CUE_PLAYBACK_RIGHT_HAND	        M2	2	n/a	n/a	n/a
346.446	n/a	RESPONSE	        M2	2	12	C4	press
346.828	n/a	RESPONSE	        M2	2	14	D4	press
346.919	n/a	RESPONSE	        M2	2	12	C4	release
347.21	n/a	RESPONSE	        M2	2	16	E4	press
347.291	n/a	RESPONSE	        M2	2	14	D4	release
347.603	n/a	RESPONSE	        M2	2	14	D4	press
347.674	n/a	RESPONSE	        M2	2	16	E4	release
347.995	n/a	RESPONSE	        M2	2	16	E4	press
348.116	n/a	RESPONSE	        M2	2	14	D4	release
348.418	n/a	RESPONSE	        M2	2	17	F4	press
348.791	n/a	RESPONSE	        M2	2	19	G4	press
348.82	n/a	RESPONSE	        M2	2	16	E4	release
348.871	n/a	RESPONSE	        M2	2	17	F4	release
349.484	n/a	RESPONSE	        M2	2	19	G4	release
349.588	n/a	RESPONSE	        M2	2	16	E4	press
349.978	n/a	RESPONSE	        M2	2	19	G4	press
350.099	n/a	RESPONSE	        M2	2	16	E4	release
350.251	n/a	RESPONSE	        M2	2	19	G4	release
350.361	n/a	RESPONSE	        M2	2	19	G4	press
350.73	n/a	RESPONSE	        M2	2	17	F4	press
350.814	n/a	RESPONSE	        M2	2	19	G4	release
351.123	n/a	RESPONSE	        M2	2	16	E4	press
351.175	n/a	RESPONSE	        M2	2	17	F4	release
351.531	n/a	RESPONSE	        M2	2	14	D4	press
351.6	n/a	RESPONSE	        M2	2	16	E4	release
351.909	n/a	RESPONSE	        M2	2	12	C4	press
351.959	7.758	FIXCROSS	n/a	n/a	n/a	n/a	n/a
352.005	n/a	RESPONSE	        M2	2	14	D4	release
352.934	n/a	RESPONSE	        M2	2	12	C4	release
359.718	6.317	CUE_LISTEN	        M8	1	n/a	n/a	n/a
366.034	7.758	FIXCROSS	n/a	n/a	n/a	n/a	n/a
373.793	6.317	CUE_PLAYBACK_RIGHT_HAND	        M8	1	n/a	n/a	n/a
374.618	n/a	RESPONSE	        M8	1	16	E4	press
374.909	n/a	RESPONSE	        M8	1	19	G4	press
375.02	n/a	RESPONSE	        M8	1	16	E4	release
375.231	n/a	RESPONSE	        M8	1	23	B4	press
375.363	n/a	RESPONSE	        M8	1	19	G4	release
375.624	n/a	RESPONSE	        M8	1	23	B4	release
375.725	n/a	RESPONSE	        M8	1	23	B4	press
376.218	n/a	RESPONSE	        M8	1	18	F#4	press
376.23	n/a	RESPONSE	        M8	1	23	B4	release
376.69	n/a	RESPONSE	        M8	1	21	A4	press
376.933	n/a	RESPONSE	        M8	1	18	F#4	release
377.584	n/a	RESPONSE	        M8	1	21	A4	release
378.125	n/a	RESPONSE	        M8	1	21	A4	press
378.478	n/a	RESPONSE	        M8	1	19	G4	press
378.54	n/a	RESPONSE	        M8	1	23	B4	release
378.689	n/a	RESPONSE	        M8	1	21	A4	release
378.77	n/a	RESPONSE	        M8	1	18	F#4	press
378.833	n/a	RESPONSE	        M8	1	19	G4	release
379.073	n/a	RESPONSE	        M8	1	16	E4	press
379.185	n/a	RESPONSE	        M8	1	18	F#4	release
379.59	n/a	RESPONSE	        M8	1	23	B4	press
379.693	n/a	RESPONSE	        M8	1	16	E4	release
380.109	7.758	FIXCROSS	n/a	n/a	n/a	n/a	n/a
381.036	n/a	RESPONSE	        M8	1	23	B4	release
387.868	6.325	CUE_LISTEN	        M8	2	n/a	n/a	n/a
394.193	7.758	FIXCROSS	n/a	n/a	n/a	n/a	n/a
401.951	6.317	CUE_PLAYBACK_RIGHT_HAND	        M8	2	n/a	n/a	n/a
402.341	n/a	RESPONSE	        M8	2	16	E4	press
402.608	n/a	RESPONSE	        M8	2	19	G4	press
402.706	n/a	RESPONSE	        M8	2	16	E4	release
402.931	n/a	RESPONSE	        M8	2	23	B4	press
403.011	n/a	RESPONSE	        M8	2	19	G4	release
403.283	n/a	RESPONSE	        M8	2	23	B4	release
403.413	n/a	RESPONSE	        M8	2	23	B4	press
403.924	n/a	RESPONSE	        M8	2	18	F#4	press
403.926	n/a	RESPONSE	        M8	2	23	B4	release
404.429	n/a	RESPONSE	        M8	2	21	A4	press
404.508	n/a	RESPONSE	        M8	2	18	F#4	release
405.229	n/a	RESPONSE	        M8	2	23	B4	press
405.271	n/a	RESPONSE	        M8	2	21	A4	release
405.803	n/a	RESPONSE	        M8	2	21	A4	press
406.094	n/a	RESPONSE	        M8	2	19	G4	press
406.185	n/a	RESPONSE	        M8	2	23	B4	release
406.216	n/a	RESPONSE	        M8	2	21	A4	release
406.378	n/a	RESPONSE	        M8	2	18	F#4	press
406.449	n/a	RESPONSE	        M8	2	19	G4	release
406.63	n/a	RESPONSE	        M8	2	19	G4	press
406.721	n/a	RESPONSE	        M8	2	18	F#4	release
407.304	n/a	RESPONSE	        M8	2	16	E4	press
407.394	n/a	RESPONSE	        M8	2	19	G4	release
408.268	7.758	FIXCROSS	n/a	n/a	n/a	n/a	n/a
408.498	n/a	RESPONSE	        M8	2	16	E4	release
416.026	6.317	CUE_LISTEN	        M4	1	n/a	n/a	n/a
422.343	7.758	FIXCROSS	n/a	n/a	n/a	n/a	n/a
430.101	6.325	CUE_PLAYBACK_BOTH_HANDS	        M4	1	n/a	n/a	n/a
430.798	n/a	RESPONSE	        M4	1	07	G3	press
430.804	n/a	RESPONSE	        M4	1	12	C4	press
430.854	n/a	RESPONSE	        M4	1	11	B3	press
431.271	n/a	RESPONSE	        M4	1	07	G3	release
431.316	n/a	RESPONSE	        M4	1	11	B3	release
431.48	n/a	RESPONSE	        M4	1	12	C4	release
432.023	n/a	RESPONSE	        M4	1	05	F3	press
432.026	n/a	RESPONSE	        M4	1	12	C4	press
432.099	n/a	RESPONSE	        M4	1	11	B3	press
432.42	n/a	RESPONSE	        M4	1	17	F4	press
432.823	n/a	RESPONSE	        M4	1	21	A4	press
432.964	n/a	RESPONSE	        M4	1	17	F4	release
432.995	n/a	RESPONSE	        M4	1	11	B3	release
433.119	n/a	RESPONSE	        M4	1	12	C4	release
433.158	n/a	RESPONSE	        M4	1	19	G4	press
433.319	n/a	RESPONSE	        M4	1	21	A4	release
433.54	n/a	RESPONSE	        M4	1	17	F4	press
433.581	n/a	RESPONSE	        M4	1	19	G4	release
433.933	n/a	RESPONSE	        M4	1	16	E4	press
434.004	n/a	RESPONSE	        M4	1	17	F4	release
434.028	n/a	RESPONSE	        M4	1	05	F3	release
434.276	n/a	RESPONSE	        M4	1	17	F4	press
434.448	n/a	RESPONSE	        M4	1	16	E4	release
434.659	n/a	RESPONSE	        M4	1	17	F4	release
436.426	7.758	FIXCROSS	n/a	n/a	n/a	n/a	n/a
436.634	n/a	RESPONSE	        M4	1	05	F3	press
436.643	n/a	RESPONSE	        M4	1	12	C4	press
436.678	n/a	RESPONSE	        M4	1	11	B3	press
436.936	n/a	RESPONSE	        M4	1	17	F4	press
437.298	n/a	RESPONSE	        M4	1	21	A4	press
437.359	n/a	RESPONSE	        M4	1	17	F4	release
437.62	n/a	RESPONSE	        M4	1	19	G4	press
437.804	n/a	RESPONSE	        M4	1	21	A4	release
437.993	n/a	RESPONSE	        M4	1	17	F4	press
438.045	n/a	RESPONSE	        M4	1	19	G4	release
438.365	n/a	RESPONSE	        M4	1	16	E4	press
438.456	n/a	RESPONSE	        M4	1	17	F4	release
438.718	n/a	RESPONSE	        M4	1	17	F4	press
438.839	n/a	RESPONSE	        M4	1	16	E4	release
439.1	n/a	RESPONSE	        M4	1	12	C4	release
439.102	n/a	RESPONSE	        M4	1	17	F4	release
439.154	n/a	RESPONSE	        M4	1	05	F3	release
439.156	n/a	RESPONSE	        M4	1	11	B3	release
444.184	6.317	CUE_LISTEN	        M4	2	n/a	n/a	n/a
450.501	7.758	FIXCROSS	n/a	n/a	n/a	n/a	n/a
458.26	6.317	CUE_PLAYBACK_BOTH_HANDS	        M4	2	n/a	n/a	n/a
459.364	n/a	RESPONSE	        M4	2	12	C4	press
459.386	n/a	RESPONSE	        M4	2	07	G3	press
459.406	n/a	RESPONSE	        M4	2	11	B3	press
460.066	n/a	RESPONSE	        M4	2	17	F4	press
460.542	n/a	RESPONSE	        M4	2	19	G4	press
460.632	n/a	RESPONSE	        M4	2	17	F4	release
460.878	n/a	RESPONSE	        M4	2	07	G3	release
460.922	n/a	RESPONSE	        M4	2	11	B3	release
460.946	n/a	RESPONSE	        M4	2	12	C4	release
461.016	n/a	RESPONSE	        M4	2	19	G4	release
461.341	n/a	RESPONSE	        M4	2	07	G3	press
461.345	n/a	RESPONSE	        M4	2	12	C4	press
461.801	n/a	RESPONSE	        M4	2	12	C4	release
461.92	n/a	RESPONSE	        M4	2	07	G3	release
463.168	n/a	RESPONSE	        M4	2	17	F4	press
463.761	n/a	RESPONSE	        M4	2	21	A4	press
463.9	n/a	RESPONSE	        M4	2	17	F4	release
464.361	n/a	RESPONSE	        M4	2	23	B4	press
464.413	n/a	RESPONSE	        M4	2	21	A4	release
464.576	7.758	FIXCROSS	n/a	n/a	n/a	n/a	n/a
464.754	n/a	RESPONSE	        M4	2	23	B4	release
465.828	n/a	RESPONSE	        M4	2	22	A#4	press
466.168	n/a	RESPONSE	        M4	2	22	A#4	release
466.309	n/a	RESPONSE	        M4	2	21	A4	press
466.68	n/a	RESPONSE	        M4	2	19	G4	press
466.751	n/a	RESPONSE	        M4	2	21	A4	release
467.063	n/a	RESPONSE	        M4	2	19	G4	release
468.814	n/a	RESPONSE	        M4	2	05	F3	press
468.825	n/a	RESPONSE	        M4	2	12	C4	press
470.598	n/a	RESPONSE	        M4	2	16	E4	press
471.034	n/a	RESPONSE	        M4	2	12	C4	release
471.279	n/a	RESPONSE	        M4	2	19	G4	press
471.434	n/a	RESPONSE	        M4	2	16	E4	release
471.875	n/a	RESPONSE	        M4	2	20	G#4	press
472.019	n/a	RESPONSE	        M4	2	19	G4	release
472.161	n/a	RESPONSE	        M4	2	05	F3	release
472.274	n/a	RESPONSE	        M4	2	20	G#4	release
472.335	6.325	CUE_LISTEN	        M3	1	n/a	n/a	n/a
478.66	7.759	FIXCROSS	n/a	n/a	n/a	n/a	n/a
486.418	6.317	CUE_PLAYBACK_RIGHT_HAND	        M3	1	n/a	n/a	n/a
487.406	n/a	RESPONSE	        M3	1	12	C4	press
487.76	n/a	RESPONSE	        M3	1	14	D4	press
487.859	n/a	RESPONSE	        M3	1	12	C4	release
488.15	n/a	RESPONSE	        M3	1	16	E4	press
488.281	n/a	RESPONSE	        M3	1	14	D4	release
488.572	n/a	RESPONSE	        M3	1	12	C4	press
488.694	n/a	RESPONSE	        M3	1	16	E4	release
488.845	n/a	RESPONSE	        M3	1	12	C4	release
488.996	n/a	RESPONSE	        M3	1	12	C4	press
489.339	n/a	RESPONSE	        M3	1	14	D4	press
489.492	n/a	RESPONSE	        M3	1	12	C4	release
489.734	n/a	RESPONSE	        M3	1	16	E4	press
489.929	n/a	RESPONSE	        M3	1	14	D4	release
490.142	n/a	RESPONSE	        M3	1	12	C4	press
490.238	n/a	RESPONSE	        M3	1	16	E4	release
490.525	n/a	RESPONSE	        M3	1	16	E4	press
490.582	n/a	RESPONSE	        M3	1	12	C4	release
490.885	n/a	RESPONSE	        M3	1	17	F4	press
490.982	n/a	RESPONSE	        M3	1	16	E4	release
491.278	n/a	RESPONSE	        M3	1	19	G4	press
491.376	n/a	RESPONSE	        M3	1	17	F4	release
491.984	n/a	RESPONSE	        M3	1	16	E4	press
491.989	n/a	RESPONSE	        M3	1	19	G4	release
492.339	n/a	RESPONSE	        M3	1	17	F4	press
492.421	n/a	RESPONSE	        M3	1	16	E4	release
492.71	n/a	RESPONSE	        M3	1	19	G4	press
492.735	7.758	FIXCROSS	n/a	n/a	n/a	n/a	n/a
492.891	n/a	RESPONSE	        M3	1	17	F4	release
494.012	n/a	RESPONSE	        M3	1	19	G4	release
500.493	6.317	CUE_LISTEN	        M3	2	n/a	n/a	n/a
506.81	7.758	FIXCROSS	n/a	n/a	n/a	n/a	n/a
514.568	6.325	CUE_PLAYBACK_RIGHT_HAND	        M3	2	n/a	n/a	n/a
515.345	n/a	RESPONSE	        M3	2	19	G4	press
515.606	n/a	RESPONSE	        M3	2	21	A4	press
515.64	n/a	RESPONSE	        M3	2	19	G4	release
515.809	n/a	RESPONSE	        M3	2	19	G4	press
515.941	n/a	RESPONSE	        M3	2	21	A4	release
516.054	n/a	RESPONSE	        M3	2	17	F4	press
516.114	n/a	RESPONSE	        M3	2	19	G4	release
516.285	n/a	RESPONSE	        M3	2	16	E4	press
516.386	n/a	RESPONSE	        M3	2	17	F4	release
516.818	n/a	RESPONSE	        M3	2	12	C4	press
517.089	n/a	RESPONSE	        M3	2	16	E4	release
517.21	n/a	RESPONSE	        M3	2	19	G4	press
517.251	n/a	RESPONSE	        M3	2	12	C4	release
517.504	n/a	RESPONSE	        M3	2	21	A4	press
517.544	n/a	RESPONSE	        M3	2	19	G4	release
517.685	n/a	RESPONSE	        M3	2	19	G4	press
517.829	n/a	RESPONSE	        M3	2	21	A4	release
517.928	n/a	RESPONSE	        M3	2	17	F4	press
518.031	n/a	RESPONSE	        M3	2	19	G4	release
518.143	n/a	RESPONSE	        M3	2	16	E4	press
518.211	n/a	RESPONSE	        M3	2	17	F4	release
518.624	n/a	RESPONSE	        M3	2	12	C4	press
518.976	n/a	RESPONSE	        M3	2	12	C4	release
518.985	n/a	RESPONSE	        M3	2	16	E4	release
519.116	n/a	RESPONSE	        M3	2	12	C4	press
519.624	n/a	RESPONSE	        M3	2	12	C4	release
520.475	n/a	RESPONSE	        M3	2	07	G3	press
520.893	7.758	FIXCROSS	n/a	n/a	n/a	n/a	n/a
520.916	n/a	RESPONSE	        M3	2	12	C4	press
521.016	n/a	RESPONSE	        M3	2	07	G3	release
521.406	n/a	RESPONSE	        M3	2	12	C4	release
521.615	n/a	RESPONSE	        M3	2	12	C4	press
522.039	n/a	RESPONSE	        M3	2	07	G3	press
522.144	n/a	RESPONSE	        M3	2	12	C4	release
522.516	n/a	RESPONSE	        M3	2	12	C4	press
522.572	n/a	RESPONSE	        M3	2	07	G3	release
523.126	n/a	RESPONSE	        M3	2	12	C4	release
528.651	6.317	CUE_LISTEN	        M5	1	n/a	n/a	n/a
534.968	7.758	FIXCROSS	n/a	n/a	n/a	n/a	n/a
542.726	6.317	CUE_PLAYBACK_BOTH_HANDS	        M5	1	n/a	n/a	n/a
543.979	n/a	RESPONSE	        M5	1	21	A4	press
543.981	n/a	RESPONSE	        M5	1	05	F3	press
544.25	n/a	RESPONSE	        M5	1	21	A4	release
544.321	n/a	RESPONSE	        M5	1	09	A3	press
544.334	n/a	RESPONSE	        M5	1	21	A4	press
544.476	n/a	RESPONSE	        M5	1	05	F3	release
544.548	n/a	RESPONSE	        M5	1	21	A4	release
544.666	n/a	RESPONSE	        M5	1	04	E3	press
544.678	n/a	RESPONSE	        M5	1	21	A4	press
544.809	n/a	RESPONSE	        M5	1	09	A3	release
545.03	n/a	RESPONSE	        M5	1	09	A3	press
545.114	n/a	RESPONSE	        M5	1	21	A4	release
545.162	n/a	RESPONSE	        M5	1	04	E3	release
545.366	n/a	RESPONSE	        M5	1	02	D3	press
545.375	n/a	RESPONSE	        M5	1	21	A4	press
545.489	n/a	RESPONSE	        M5	1	09	A3	release
545.609	n/a	RESPONSE	        M5	1	21	A4	release
545.711	n/a	RESPONSE	        M5	1	09	A3	press
545.72	n/a	RESPONSE	        M5	1	21	A4	press
545.812	n/a	RESPONSE	        M5	1	02	D3	release
545.924	n/a	RESPONSE	        M5	1	21	A4	release
546.048	n/a	RESPONSE	        M5	1	00	C3	press
546.066	n/a	RESPONSE	        M5	1	21	A4	press
546.148	n/a	RESPONSE	        M5	1	09	A3	release
546.359	n/a	RESPONSE	        M5	1	09	A3	press
546.44	n/a	RESPONSE	        M5	1	00	C3	release
546.491	n/a	RESPONSE	        M5	1	21	A4	release
546.742	n/a	RESPONSE	        M5	1	21	A4	press
546.745	n/a	RESPONSE	        M5	1	05	F3	press
546.886	n/a	RESPONSE	        M5	1	09	A3	release
547.076	n/a	RESPONSE	        M5	1	24	C5	press
547.109	n/a	RESPONSE	        M5	1	09	A3	press
547.149	n/a	RESPONSE	        M5	1	21	A4	release
547.21	n/a	RESPONSE	        M5	1	05	F3	release
547.471	n/a	RESPONSE	        M5	1	17	F4	press
547.512	n/a	RESPONSE	        M5	1	04	E3	press
547.544	n/a	RESPONSE	        M5	1	02	D3	press
547.695	n/a	RESPONSE	        M5	1	02	D3	release
547.826	n/a	RESPONSE	        M5	1	04	E3	release
547.858	n/a	RESPONSE	        M5	1	09	A3	release
547.899	n/a	RESPONSE	        M5	1	17	F4	release
548.36	n/a	RESPONSE	        M5	1	24	C5	release
549.043	7.758	FIXCROSS	n/a	n/a	n/a	n/a	n/a
549.051	n/a	RESPONSE	        M5	1	21	A4	press
549.062	n/a	RESPONSE	        M5	1	05	F3	press
549.36	n/a	RESPONSE	        M5	1	09	A3	press
549.391	n/a	RESPONSE	        M5	1	24	C5	press
549.442	n/a	RESPONSE	        M5	1	05	F3	release
549.462	n/a	RESPONSE	        M5	1	21	A4	release
549.731	n/a	RESPONSE	        M5	1	17	F4	press
549.734	n/a	RESPONSE	        M5	1	04	E3	press
549.896	n/a	RESPONSE	        M5	1	09	A3	release
550.026	n/a	RESPONSE	        M5	1	19	G4	press
550.052	n/a	RESPONSE	        M5	1	09	A3	press
550.108	n/a	RESPONSE	        M5	1	17	F4	release
550.122	n/a	RESPONSE	        M5	1	24	C5	release
550.208	n/a	RESPONSE	        M5	1	04	E3	release
550.328	n/a	RESPONSE	        M5	1	21	A4	press
550.351	n/a	RESPONSE	        M5	1	02	D3	press
550.41	n/a	RESPONSE	        M5	1	19	G4	release
550.462	n/a	RESPONSE	        M5	1	09	A3	release
550.651	n/a	RESPONSE	        M5	1	09	A3	press
550.72	n/a	RESPONSE	        M5	1	02	D3	release
550.982	n/a	RESPONSE	        M5	1	00	C3	press
551.04	n/a	RESPONSE	        M5	1	21	A4	release
551.062	n/a	RESPONSE	        M5	1	09	A3	release
551.302	n/a	RESPONSE	        M5	1	09	A3	press
551.396	n/a	RESPONSE	        M5	1	00	C3	release
551.919	n/a	RESPONSE	        M5	1	09	A3	release
556.801	6.325	CUE_LISTEN	        M5	2	n/a	n/a	n/a
563.126	7.758	FIXCROSS	n/a	n/a	n/a	n/a	n/a
570.885	6.317	CUE_PLAYBACK_BOTH_HANDS	        M5	2	n/a	n/a	n/a
571.649	n/a	RESPONSE	        M5	2	22	A#4	press
571.66	n/a	RESPONSE	        M5	2	07	G3	press
572.128	n/a	RESPONSE	        M5	2	10	A#3	press
572.269	n/a	RESPONSE	        M5	2	07	G3	release
572.395	n/a	RESPONSE	        M5	2	22	A#4	release
572.505	n/a	RESPONSE	        M5	2	22	A#4	press
572.531	n/a	RESPONSE	        M5	2	04	E3	press
572.664	n/a	RESPONSE	        M5	2	10	A#3	release
572.912	n/a	RESPONSE	        M5	2	10	A#3	press
572.994	n/a	RESPONSE	        M5	2	04	E3	release
573.315	n/a	RESPONSE	        M5	2	05	F3	press
573.326	n/a	RESPONSE	        M5	2	21	A4	press
573.338	n/a	RESPONSE	        M5	2	10	A#3	release
573.37	n/a	RESPONSE	        M5	2	22	A#4	release
573.981	n/a	RESPONSE	        M5	2	05	F3	release
573.984	n/a	RESPONSE	        M5	2	21	A4	release
574.262	n/a	RESPONSE	        M5	2	07	G3	press
574.265	n/a	RESPONSE	        M5	2	22	A#4	press
574.625	n/a	RESPONSE	        M5	2	10	A#3	press
574.766	n/a	RESPONSE	        M5	2	07	G3	release
574.858	n/a	RESPONSE	        M5	2	22	A#4	release
574.949	n/a	RESPONSE	        M5	2	22	A#4	press
574.951	n/a	RESPONSE	        M5	2	04	E3	press
575.054	n/a	RESPONSE	        M5	2	10	A#3	release
575.182	n/a	RESPONSE	        M5	2	22	A#4	release
575.254	n/a	RESPONSE	        M5	2	22	A#4	press
575.265	n/a	RESPONSE	        M5	2	10	A#3	press
575.346	n/a	RESPONSE	        M5	2	04	E3	release
575.458	n/a	RESPONSE	        M5	2	22	A#4	release
575.561	n/a	RESPONSE	        M5	2	22	A#4	press
575.6	n/a	RESPONSE	        M5	2	05	F3	press
575.642	n/a	RESPONSE	        M5	2	10	A#3	release
575.964	n/a	RESPONSE	        M5	2	21	A4	press
576.005	n/a	RESPONSE	        M5	2	22	A#4	release
576.476	n/a	RESPONSE	        M5	2	05	F3	release
576.479	n/a	RESPONSE	        M5	2	21	A4	release
577.201	7.758	FIXCROSS	n/a	n/a	n/a	n/a	n/a
578.349	n/a	RESPONSE	        M5	2	22	A#4	press
578.371	n/a	RESPONSE	        M5	2	07	G3	press
578.721	n/a	RESPONSE	        M5	2	10	A#3	press
578.796	n/a	RESPONSE	        M5	2	07	G3	release
578.985	n/a	RESPONSE	        M5	2	22	A#4	release
579.056	n/a	RESPONSE	        M5	2	22	A#4	press
579.077	n/a	RESPONSE	        M5	2	04	E3	press
579.138	n/a	RESPONSE	        M5	2	10	A#3	release
579.308	n/a	RESPONSE	        M5	2	22	A#4	release
579.378	n/a	RESPONSE	        M5	2	22	A#4	press
579.381	n/a	RESPONSE	        M5	2	10	A#3	press
579.409	n/a	RESPONSE	        M5	2	04	E3	release
579.726	n/a	RESPONSE	        M5	2	05	F3	press
579.732	n/a	RESPONSE	        M5	2	10	A#3	release
580.229	n/a	RESPONSE	        M5	2	05	F3	release
580.411	n/a	RESPONSE	        M5	2	07	G3	press
580.996	n/a	RESPONSE	        M5	2	07	G3	release
581.526	n/a	RESPONSE	        M5	2	22	A#4	release
583.215	n/a	RESPONSE	        M5	2	24	C5	press
583.426	n/a	RESPONSE	        M5	2	24	C5	release
584.098	n/a	RESPONSE	        M5	2	24	C5	press
584.319	n/a	RESPONSE	        M5	2	24	C5	release
584.37	n/a	RESPONSE	        M5	2	24	C5	press
584.641	n/a	RESPONSE	        M5	2	24	C5	release
584.702	n/a	RESPONSE	        M5	2	22	A#4	press
584.96	6.325	CUE_LISTEN	        M1	1	n/a	n/a	n/a
585.156	n/a	RESPONSE	        M1	1	22	A#4	release
585.665	n/a	RESPONSE	        M1	1	17	F4	press
585.898	n/a	RESPONSE	        M1	1	17	F4	release
591.285	7.758	FIXCROSS	n/a	n/a	n/a	n/a	n/a
599.043	6.325	CUE_PLAYBACK_BOTH_HANDS	        M1	1	n/a	n/a	n/a
600.654	n/a	RESPONSE	        M1	1	07	G3	press
600.671	n/a	RESPONSE	        M1	1	00	C3	press
600.689	n/a	RESPONSE	        M1	1	12	C4	press
600.701	n/a	RESPONSE	        M1	1	11	B3	press
600.742	n/a	RESPONSE	        M1	1	04	E3	press
600.752	n/a	RESPONSE	        M1	1	11	B3	release
601.116	n/a	RESPONSE	        M1	1	12	C4	release
601.288	n/a	RESPONSE	        M1	1	07	G3	release
601.425	n/a	RESPONSE	        M1	1	04	E3	release
601.489	n/a	RESPONSE	        M1	1	07	G3	press
601.494	n/a	RESPONSE	        M1	1	17	F4	press
601.502	n/a	RESPONSE	        M1	1	04	E3	press
601.924	n/a	RESPONSE	        M1	1	14	D4	press
601.961	n/a	RESPONSE	        M1	1	17	F4	release
602.166	n/a	RESPONSE	        M1	1	14	D4	release
602.734	n/a	RESPONSE	        M1	1	04	E3	release
603.596	n/a	RESPONSE	        M1	1	19	G4	press
603.839	n/a	RESPONSE	        M1	1	00	C3	release
603.899	n/a	RESPONSE	        M1	1	19	G4	release
603.99	n/a	RESPONSE	        M1	1	07	G3	release
604.071	n/a	RESPONSE	        M1	1	19	G4	press
604.074	n/a	RESPONSE	        M1	1	07	G3	press
604.084	n/a	RESPONSE	        M1	1	00	C3	press
604.125	n/a	RESPONSE	        M1	1	04	E3	press
604.416	n/a	RESPONSE	        M1	1	19	G4	release
604.508	n/a	RESPONSE	        M1	1	16	E4	press
604.679	n/a	RESPONSE	        M1	1	16	E4	release
604.83	n/a	RESPONSE	        M1	1	16	E4	press
604.971	n/a	RESPONSE	        M1	1	04	E3	release
604.982	n/a	RESPONSE	        M1	1	00	C3	release
605.034	n/a	RESPONSE	        M1	1	16	E4	release
605.168	n/a	RESPONSE	        M1	1	02	D3	press
605.178	n/a	RESPONSE	        M1	1	17	F4	press
605.189	n/a	RESPONSE	        M1	1	05	F3	press
605.368	7.758	FIXCROSS	n/a	n/a	n/a	n/a	n/a
605.53	n/a	RESPONSE	        M1	1	17	F4	release
605.574	n/a	RESPONSE	        M1	1	14	D4	press
605.772	n/a	RESPONSE	        M1	1	14	D4	release
605.915	n/a	RESPONSE	        M1	1	14	D4	press
606.159	n/a	RESPONSE	        M1	1	02	D3	release
606.198	n/a	RESPONSE	        M1	1	05	F3	release
606.249	n/a	RESPONSE	        M1	1	14	D4	release
606.43	n/a	RESPONSE	        M1	1	00	C3	press
606.444	n/a	RESPONSE	        M1	1	12	C4	press
606.462	n/a	RESPONSE	        M1	1	04	E3	press
606.676	n/a	RESPONSE	        M1	1	16	E4	press
606.726	n/a	RESPONSE	        M1	1	12	C4	release
606.946	n/a	RESPONSE	        M1	1	19	G4	press
607.03	n/a	RESPONSE	        M1	1	16	E4	release
607.72	n/a	RESPONSE	        M1	1	04	E3	release
607.772	n/a	RESPONSE	        M1	1	19	G4	release
607.821	n/a	RESPONSE	        M1	1	07	G3	release
608.892	n/a	RESPONSE	        M1	1	00	C3	release
613.126	6.308	CUE_LISTEN	        M1	2	n/a	n/a	n/a
619.435	7.759	FIXCROSS	n/a	n/a	n/a	n/a	n/a
627.193	6.325	CUE_PLAYBACK_BOTH_HANDS	        M1	2	n/a	n/a	n/a
628.664	n/a	RESPONSE	        M1	2	19	G4	press
628.666	n/a	RESPONSE	        M1	2	07	G3	press
628.686	n/a	RESPONSE	        M1	2	00	C3	press
628.707	n/a	RESPONSE	        M1	2	04	E3	press
629.172	n/a	RESPONSE	        M1	2	16	E4	press
629.18	n/a	RESPONSE	        M1	2	19	G4	release
629.415	n/a	RESPONSE	        M1	2	16	E4	release
629.648	n/a	RESPONSE	        M1	2	16	E4	press
629.766	n/a	RESPONSE	        M1	2	00	C3	release
629.956	n/a	RESPONSE	        M1	2	04	E3	release
629.959	n/a	RESPONSE	        M1	2	16	E4	release
630.055	n/a	RESPONSE	        M1	2	02	D3	press
630.067	n/a	RESPONSE	        M1	2	05	F3	press
630.07	n/a	RESPONSE	        M1	2	17	F4	press
630.549	n/a	RESPONSE	        M1	2	14	D4	press
630.574	n/a	RESPONSE	        M1	2	17	F4	release
630.794	n/a	RESPONSE	        M1	2	14	D4	release
630.996	n/a	RESPONSE	        M1	2	14	D4	press
631.274	n/a	RESPONSE	        M1	2	02	D3	release
631.328	n/a	RESPONSE	        M1	2	05	F3	release
631.334	n/a	RESPONSE	        M1	2	14	D4	release
631.445	n/a	RESPONSE	        M1	2	07	G3	release
631.692	n/a	RESPONSE	        M1	2	12	C4	press
631.695	n/a	RESPONSE	        M1	2	07	G3	press
631.699	n/a	RESPONSE	        M1	2	04	E3	press
631.715	n/a	RESPONSE	        M1	2	00	C3	press
631.98	n/a	RESPONSE	        M1	2	16	E4	press
632.049	n/a	RESPONSE	        M1	2	12	C4	release
632.292	n/a	RESPONSE	        M1	2	12	C4	press
632.42	n/a	RESPONSE	        M1	2	16	E4	release
633.22	n/a	RESPONSE	        M1	2	12	C4	release
633.261	n/a	RESPONSE	        M1	2	00	C3	release
633.342	n/a	RESPONSE	        M1	2	07	G3	release
633.445	n/a	RESPONSE	        M1	2	04	E3	release
633.518	7.758	FIXCROSS	n/a	n/a	n/a	n/a	n/a
641.277	6.317	CUE_LISTEN	        M7	1	n/a	n/a	n/a
647.593	7.758	FIXCROSS	n/a	n/a	n/a	n/a	n/a
655.352	6.317	CUE_PLAYBACK_RIGHT_HAND	        M7	1	n/a	n/a	n/a
655.905	n/a	RESPONSE	        M7	1	22	A#4	press
656.546	n/a	RESPONSE	        M7	1	21	A4	press
657.157	n/a	RESPONSE	        M7	1	19	G4	press
657.209	n/a	RESPONSE	        M7	1	22	A#4	release
657.28	n/a	RESPONSE	        M7	1	21	A4	release
657.811	n/a	RESPONSE	        M7	1	21	A4	press
657.902	n/a	RESPONSE	        M7	1	19	G4	release
658.714	n/a	RESPONSE	        M7	1	21	A4	release
659.007	n/a	RESPONSE	        M7	1	16	E4	press
659.401	n/a	RESPONSE	        M7	1	16	E4	release
659.536	n/a	RESPONSE	        M7	1	14	D4	press
660.036	n/a	RESPONSE	        M7	1	14	D4	release
660.129	n/a	RESPONSE	        M7	1	14	D4	press
660.829	n/a	RESPONSE	        M7	1	19	G4	press
660.9	n/a	RESPONSE	        M7	1	14	D4	release
661.668	7.758	FIXCROSS	n/a	n/a	n/a	n/a	n/a
662.114	n/a	RESPONSE	        M7	1	19	G4	release
662.529	n/a	RESPONSE	        M7	1	07	G3	press
662.924	n/a	RESPONSE	        M7	1	09	A3	press
663.065	n/a	RESPONSE	        M7	1	07	G3	release
663.319	n/a	RESPONSE	        M7	1	10	A#3	press
663.349	n/a	RESPONSE	        M7	1	09	A3	release
664.039	n/a	RESPONSE	        M7	1	12	C4	press
664.09	n/a	RESPONSE	        M7	1	10	A#3	release
664.752	n/a	RESPONSE	        M7	1	12	C4	release
664.824	n/a	RESPONSE	        M7	1	14	D4	press
665.875	n/a	RESPONSE	        M7	1	14	D4	release
669.427	6.325	CUE_LISTEN	        M7	2	n/a	n/a	n/a
675.752	7.758	FIXCROSS	n/a	n/a	n/a	n/a	n/a
683.51	6.317	CUE_PLAYBACK_RIGHT_HAND	        M7	2	n/a	n/a	n/a
684.11	n/a	RESPONSE	        M7	2	15	D#4	press
685.029	n/a	RESPONSE	        M7	2	17	F4	press
685.14	n/a	RESPONSE	        M7	2	15	D#4	release
685.401	n/a	RESPONSE	        M7	2	15	D#4	press
685.472	n/a	RESPONSE	        M7	2	17	F4	release
685.824	n/a	RESPONSE	        M7	2	14	D4	press
685.956	n/a	RESPONSE	        M7	2	15	D#4	release
686.217	n/a	RESPONSE	        M7	2	12	C4	press
686.289	n/a	RESPONSE	        M7	2	14	D4	release
686.6	n/a	RESPONSE	        M7	2	14	D4	press
686.651	n/a	RESPONSE	        M7	2	12	C4	release
687.312	n/a	RESPONSE	        M7	2	15	D#4	press
687.355	n/a	RESPONSE	        M7	2	14	D4	release
687.906	n/a	RESPONSE	        M7	2	14	D4	press
688.039	n/a	RESPONSE	        M7	2	15	D#4	release
688.417	n/a	RESPONSE	        M7	2	12	C4	press
688.451	n/a	RESPONSE	        M7	2	14	D4	release
688.91	n/a	RESPONSE	        M7	2	10	A#3	press
689.061	n/a	RESPONSE	        M7	2	12	C4	release
689.346	n/a	RESPONSE	        M7	2	12	C4	press
689.436	n/a	RESPONSE	        M7	2	10	A#3	release
689.827	7.758	FIXCROSS	n/a	n/a	n/a	n/a	n/a
690.002	n/a	RESPONSE	        M7	2	14	D4	press
690.115	n/a	RESPONSE	        M7	2	12	C4	release
690.475	n/a	RESPONSE	        M7	2	12	C4	press
690.532	n/a	RESPONSE	        M7	2	14	D4	release
691.039	n/a	RESPONSE	        M7	2	10	A#3	press
691.121	n/a	RESPONSE	        M7	2	12	C4	release
691.421	n/a	RESPONSE	        M7	2	12	C4	press
691.507	n/a	RESPONSE	        M7	2	10	A#3	release
692.081	n/a	RESPONSE	        M7	2	09	A3	press
692.12	n/a	RESPONSE	        M7	2	12	C4	release
693.431	n/a	RESPONSE	        M7	2	09	A3	release
697.585	6.317	CUE_LISTEN	        M4	1	n/a	n/a	n/a
703.902	7.758	FIXCROSS	n/a	n/a	n/a	n/a	n/a
711.66	6.325	CUE_PLAYBACK_RIGHT_HAND	        M4	1	n/a	n/a	n/a
712.172	n/a	RESPONSE	        M4	1	12	C4	press
712.584	n/a	RESPONSE	        M4	1	16	E4	press
712.694	n/a	RESPONSE	        M4	1	12	C4	release
713.02	n/a	RESPONSE	        M4	1	16	E4	release
713.704	n/a	RESPONSE	        M4	1	12	C4	press
714.652	n/a	RESPONSE	        M4	1	17	F4	press
714.714	n/a	RESPONSE	        M4	1	12	C4	release
715.055	n/a	RESPONSE	        M4	1	21	A4	press
715.256	n/a	RESPONSE	        M4	1	17	F4	release
715.407	n/a	RESPONSE	        M4	1	19	G4	press
715.749	n/a	RESPONSE	        M4	1	17	F4	press
715.77	n/a	RESPONSE	        M4	1	21	A4	release
715.821	n/a	RESPONSE	        M4	1	19	G4	release
716.094	n/a	RESPONSE	        M4	1	16	E4	press
716.206	n/a	RESPONSE	        M4	1	17	F4	release
716.367	n/a	RESPONSE	        M4	1	17	F4	press
716.617	n/a	RESPONSE	        M4	1	16	E4	release
717.239	n/a	RESPONSE	        M4	1	17	F4	release
717.33	n/a	RESPONSE	        M4	1	12	C4	press
717.644	n/a	RESPONSE	        M4	1	17	F4	press
717.862	n/a	RESPONSE	        M4	1	12	C4	release
717.954	n/a	RESPONSE	        M4	1	21	A4	press
717.985	7.759	FIXCROSS	n/a	n/a	n/a	n/a	n/a
718.075	n/a	RESPONSE	        M4	1	17	F4	release
718.276	n/a	RESPONSE	        M4	1	19	G4	press
718.647	n/a	RESPONSE	        M4	1	17	F4	press
718.689	n/a	RESPONSE	        M4	1	21	A4	release
718.8	n/a	RESPONSE	        M4	1	19	G4	release
718.991	n/a	RESPONSE	        M4	1	16	E4	press
719.122	n/a	RESPONSE	        M4	1	17	F4	release
719.36	n/a	RESPONSE	        M4	1	17	F4	press
719.494	n/a	RESPONSE	        M4	1	16	E4	release
720.281	n/a	RESPONSE	        M4	1	17	F4	release
725.744	6.317	CUE_LISTEN	        M4	2	n/a	n/a	n/a
732.06	7.758	FIXCROSS	n/a	n/a	n/a	n/a	n/a
739.818	6.317	CUE_PLAYBACK_RIGHT_HAND	        M4	2	n/a	n/a	n/a
740.26	n/a	RESPONSE	        M4	2	12	C4	press
740.786	n/a	RESPONSE	        M4	2	17	F4	press
740.9	n/a	RESPONSE	        M4	2	12	C4	release
741.351	n/a	RESPONSE	        M4	2	21	A4	press
741.445	n/a	RESPONSE	        M4	2	17	F4	release
743.156	n/a	RESPONSE	        M4	2	24	C5	press
743.207	n/a	RESPONSE	        M4	2	21	A4	release
743.669	n/a	RESPONSE	        M4	2	22	A#4	press
743.72	n/a	RESPONSE	        M4	2	24	C5	release
744.081	n/a	RESPONSE	        M4	2	21	A4	press
744.214	n/a	RESPONSE	        M4	2	22	A#4	release
744.524	n/a	RESPONSE	        M4	2	19	G4	press
744.707	n/a	RESPONSE	        M4	2	21	A4	release
745.137	n/a	RESPONSE	        M4	2	19	G4	release
746.135	7.758	FIXCROSS	n/a	n/a	n/a	n/a	n/a
746.629	n/a	RESPONSE	        M4	2	12	C4	press
747.102	n/a	RESPONSE	        M4	2	16	E4	press
747.184	n/a	RESPONSE	        M4	2	12	C4	release
747.602	n/a	RESPONSE	        M4	2	19	G4	press
747.674	n/a	RESPONSE	        M4	2	16	E4	release
748.395	n/a	RESPONSE	        M4	2	22	A#4	press
748.546	n/a	RESPONSE	        M4	2	19	G4	release
748.907	n/a	RESPONSE	        M4	2	21	A4	press
749.04	n/a	RESPONSE	        M4	2	22	A#4	release
749.345	n/a	RESPONSE	        M4	2	19	G4	press
749.499	n/a	RESPONSE	        M4	2	21	A4	release
749.8	n/a	RESPONSE	        M4	2	17	F4	press
749.97	n/a	RESPONSE	        M4	2	19	G4	release
750.665	n/a	RESPONSE	        M4	2	17	F4	release
753.894	6.325	CUE_LISTEN	        M2	1	n/a	n/a	n/a
759.595	n/a	RESPONSE	        M2	1	07	G3	press
760.218	7.758	FIXCROSS	n/a	n/a	n/a	n/a	n/a
760.94	n/a	RESPONSE	        M2	1	07	G3	release
767.977	6.317	CUE_PLAYBACK_BOTH_HANDS	        M2	1	n/a	n/a	n/a
768.934	n/a	RESPONSE	        M2	1	00	C3	press
768.936	n/a	RESPONSE	        M2	1	24	C5	press
768.947	n/a	RESPONSE	        M2	1	07	G3	press
769.885	n/a	RESPONSE	        M2	1	24	C5	release
769.955	n/a	RESPONSE	        M2	1	24	C5	press
770.416	n/a	RESPONSE	        M2	1	19	G4	press
770.555	n/a	RESPONSE	        M2	1	24	C5	release
770.664	n/a	RESPONSE	        M2	1	19	G4	release
770.77	n/a	RESPONSE	        M2	1	19	G4	press
771.125	n/a	RESPONSE	        M2	1	17	F4	press
771.209	n/a	RESPONSE	        M2	1	19	G4	release
771.454	n/a	RESPONSE	        M2	1	00	C3	release
771.529	n/a	RESPONSE	        M2	1	16	E4	press
771.569	n/a	RESPONSE	        M2	1	00	C3	press
771.597	n/a	RESPONSE	        M2	1	17	F4	release
771.886	n/a	RESPONSE	        M2	1	17	F4	press
771.975	n/a	RESPONSE	        M2	1	16	E4	release
772.135	n/a	RESPONSE	        M2	1	00	C3	release
772.189	n/a	RESPONSE	        M2	1	07	G3	release
772.23	n/a	RESPONSE	        M2	1	19	G4	press
772.254	n/a	RESPONSE	        M2	1	00	C3	press
772.256	n/a	RESPONSE	        M2	1	07	G3	press
772.304	n/a	RESPONSE	        M2	1	17	F4	release
772.84	n/a	RESPONSE	        M2	1	19	G4	release
772.842	n/a	RESPONSE	        M2	1	00	C3	release
772.941	n/a	RESPONSE	        M2	1	24	C5	press
772.952	n/a	RESPONSE	        M2	1	00	C3	press
773.305	n/a	RESPONSE	        M2	1	19	G4	press
773.375	n/a	RESPONSE	        M2	1	24	C5	release
773.559	n/a	RESPONSE	        M2	1	19	G4	release
773.587	n/a	RESPONSE	        M2	1	07	G3	release
773.609	n/a	RESPONSE	        M2	1	00	C3	release
773.71	n/a	RESPONSE	        M2	1	19	G4	press
773.721	n/a	RESPONSE	        M2	1	07	G3	press
773.724	n/a	RESPONSE	        M2	1	00	C3	press
774.074	n/a	RESPONSE	        M2	1	17	F4	press
774.175	n/a	RESPONSE	        M2	1	19	G4	release
774.294	7.767	FIXCROSS	n/a	n/a	n/a	n/a	n/a
774.376	n/a	RESPONSE	        M2	1	07	G3	release
774.407	n/a	RESPONSE	        M2	1	00	C3	release
774.469	n/a	RESPONSE	        M2	1	16	E4	press
774.49	n/a	RESPONSE	        M2	1	00	C3	press
774.492	n/a	RESPONSE	        M2	1	07	G3	press
774.534	n/a	RESPONSE	        M2	1	17	F4	release
774.894	n/a	RESPONSE	        M2	1	14	D4	press
775.055	n/a	RESPONSE	        M2	1	16	E4	release
775.176	n/a	RESPONSE	        M2	1	00	C3	release
775.28	n/a	RESPONSE	        M2	1	07	G3	release
775.349	n/a	RESPONSE	        M2	1	07	G3	press
775.351	n/a	RESPONSE	        M2	1	00	C3	press
775.354	n/a	RESPONSE	        M2	1	12	C4	press
775.472	n/a	RESPONSE	        M2	1	14	D4	release
776.337	n/a	RESPONSE	        M2	1	00	C3	release
776.379	n/a	RESPONSE	        M2	1	12	C4	release
776.41	n/a	RESPONSE	        M2	1	07	G3	release
782.06	6.317	CUE_LISTEN	        M2	2	n/a	n/a	n/a
788.377	7.758	FIXCROSS	n/a	n/a	n/a	n/a	n/a
796.135	6.317	CUE_PLAYBACK_BOTH_HANDS	        M2	2	n/a	n/a	n/a
797.486	n/a	RESPONSE	        M2	2	00	C3	press
797.509	n/a	RESPONSE	        M2	2	12	C4	press
797.941	n/a	RESPONSE	        M2	2	12	C4	release
797.97	n/a	RESPONSE	        M2	2	00	C3	release
798.171	n/a	RESPONSE	        M2	2	00	C3	press
798.174	n/a	RESPONSE	        M2	2	07	G3	press
798.184	n/a	RESPONSE	        M2	2	12	C4	press
798.555	n/a	RESPONSE	        M2	2	14	D4	press
798.599	n/a	RESPONSE	        M2	2	12	C4	release
798.757	n/a	RESPONSE	        M2	2	00	C3	release
798.829	n/a	RESPONSE	        M2	2	07	G3	release
798.85	n/a	RESPONSE	        M2	2	14	D4	release
798.901	n/a	RESPONSE	        M2	2	16	E4	press
798.904	n/a	RESPONSE	        M2	2	00	C3	press
798.906	n/a	RESPONSE	        M2	2	07	G3	press
799.245	n/a	RESPONSE	        M2	2	14	D4	press
799.336	n/a	RESPONSE	        M2	2	16	E4	release
799.404	n/a	RESPONSE	        M2	2	00	C3	release
799.476	n/a	RESPONSE	        M2	2	07	G3	release
799.571	n/a	RESPONSE	        M2	2	14	D4	release
799.586	n/a	RESPONSE	        M2	2	07	G3	press
799.596	n/a	RESPONSE	        M2	2	00	C3	press
799.607	n/a	RESPONSE	        M2	2	16	E4	press
799.97	n/a	RESPONSE	        M2	2	17	F4	press
800.074	n/a	RESPONSE	        M2	2	16	E4	release
800.152	n/a	RESPONSE	        M2	2	07	G3	release
800.155	n/a	RESPONSE	        M2	2	00	C3	release
800.279	n/a	RESPONSE	        M2	2	19	G4	press
800.286	n/a	RESPONSE	        M2	2	07	G3	press
800.289	n/a	RESPONSE	        M2	2	00	C3	press
800.357	n/a	RESPONSE	        M2	2	17	F4	release
800.75	n/a	RESPONSE	        M2	2	00	C3	release
800.8	n/a	RESPONSE	        M2	2	19	G4	release
800.835	n/a	RESPONSE	        M2	2	07	G3	release
800.95	n/a	RESPONSE	        M2	2	00	C3	press
800.952	n/a	RESPONSE	        M2	2	07	G3	press
800.967	n/a	RESPONSE	        M2	2	16	E4	press
801.3	n/a	RESPONSE	        M2	2	19	G4	press
801.395	n/a	RESPONSE	        M2	2	16	E4	release
801.414	n/a	RESPONSE	        M2	2	00	C3	release
801.434	n/a	RESPONSE	        M2	2	07	G3	release
801.514	n/a	RESPONSE	        M2	2	19	G4	release
801.597	n/a	RESPONSE	        M2	2	00	C3	press
801.605	n/a	RESPONSE	        M2	2	07	G3	press
801.615	n/a	RESPONSE	        M2	2	19	G4	press
802.009	n/a	RESPONSE	        M2	2	17	F4	press
802.154	n/a	RESPONSE	        M2	2	19	G4	release
802.215	n/a	RESPONSE	        M2	2	00	C3	release
802.227	n/a	RESPONSE	        M2	2	07	G3	release
802.282	n/a	RESPONSE	        M2	2	17	F4	release
802.322	n/a	RESPONSE	        M2	2	16	E4	press
802.346	n/a	RESPONSE	        M2	2	00	C3	press
802.354	n/a	RESPONSE	        M2	2	07	G3	press
802.452	7.758	FIXCROSS	n/a	n/a	n/a	n/a	n/a
802.7	n/a	RESPONSE	        M2	2	14	D4	press
802.774	n/a	RESPONSE	        M2	2	16	E4	release
802.995	n/a	RESPONSE	        M2	2	07	G3	release
802.997	n/a	RESPONSE	        M2	2	00	C3	release
803.107	n/a	RESPONSE	        M2	2	12	C4	press
803.11	n/a	RESPONSE	        M2	2	07	G3	press
803.112	n/a	RESPONSE	        M2	2	00	C3	press
803.181	n/a	RESPONSE	        M2	2	14	D4	release
804.022	n/a	RESPONSE	        M2	2	00	C3	release
804.025	n/a	RESPONSE	        M2	2	12	C4	release
804.046	n/a	RESPONSE	        M2	2	07	G3	release
810.21	6.317	CUE_LISTEN	        M8	1	n/a	n/a	n/a
816.527	7.758	FIXCROSS	n/a	n/a	n/a	n/a	n/a
824.285	6.325	CUE_PLAYBACK_BOTH_HANDS	        M8	1	n/a	n/a	n/a
824.859	n/a	RESPONSE	        M8	1	16	E4	press
825.112	n/a	RESPONSE	        M8	1	19	G4	press
825.212	n/a	RESPONSE	        M8	1	16	E4	release
825.415	n/a	RESPONSE	        M8	1	23	B4	press
825.524	n/a	RESPONSE	        M8	1	19	G4	release
825.835	n/a	RESPONSE	        M8	1	23	B4	release
825.917	n/a	RESPONSE	        M8	1	23	B4	press
826.35	n/a	RESPONSE	        M8	1	23	B4	release
826.4	n/a	RESPONSE	        M8	1	11	B3	press
826.402	n/a	RESPONSE	        M8	1	18	F#4	press
826.762	n/a	RESPONSE	        M8	1	14	D4	press
826.894	n/a	RESPONSE	        M8	1	11	B3	release
827.145	n/a	RESPONSE	        M8	1	21	A4	press
827.166	n/a	RESPONSE	        M8	1	16	E4	press
827.187	n/a	RESPONSE	        M8	1	18	F#4	release
827.241	n/a	RESPONSE	        M8	1	14	D4	release
827.55	n/a	RESPONSE	        M8	1	16	E4	release
827.681	n/a	RESPONSE	        M8	1	16	E4	press
828.282	n/a	RESPONSE	        M8	1	16	E4	release
828.304	n/a	RESPONSE	        M8	1	21	A4	release
829.505	n/a	RESPONSE	        M8	1	23	B4	press
829.516	n/a	RESPONSE	        M8	1	15	D#4	press
830.201	n/a	RESPONSE	        M8	1	12	C4	press
830.249	n/a	RESPONSE	        M8	1	15	D#4	release
830.431	n/a	RESPONSE	        M8	1	21	A4	press
830.61	7.767	FIXCROSS	n/a	n/a	n/a	n/a	n/a
830.7	n/a	RESPONSE	        M8	1	19	G4	press
830.769	n/a	RESPONSE	        M8	1	23	B4	release
830.914	n/a	RESPONSE	        M8	1	21	A4	release
831.041	n/a	RESPONSE	        M8	1	18	F#4	press
831.086	n/a	RESPONSE	        M8	1	19	G4	release
832.009	n/a	RESPONSE	        M8	1	16	E4	press
832.176	n/a	RESPONSE	        M8	1	18	F#4	release
833.04	n/a	RESPONSE	        M8	1	14	D4	press
833.06	n/a	RESPONSE	        M8	1	19	G4	press
833.062	n/a	RESPONSE	        M8	1	12	C4	release
833.172	n/a	RESPONSE	        M8	1	16	E4	release
833.435	n/a	RESPONSE	        M8	1	12	C4	press
833.467	n/a	RESPONSE	        M8	1	23	B4	press
833.486	n/a	RESPONSE	        M8	1	19	G4	release
833.497	n/a	RESPONSE	        M8	1	14	D4	release
833.699	n/a	RESPONSE	        M8	1	12	C4	release
833.89	n/a	RESPONSE	        M8	1	23	B4	release
834.041	n/a	RESPONSE	        M8	1	12	C4	press
834.402	n/a	RESPONSE	        M8	1	12	C4	release
838.377	6.308	CUE_LISTEN	        M8	2	n/a	n/a	n/a
844.685	7.759	FIXCROSS	n/a	n/a	n/a	n/a	n/a
852.444	6.317	CUE_PLAYBACK_BOTH_HANDS	        M8	2	n/a	n/a	n/a
852.855	n/a	RESPONSE	        M8	2	16	E4	press
853.105	n/a	RESPONSE	        M8	2	19	G4	press
853.335	n/a	RESPONSE	        M8	2	16	E4	release
853.386	n/a	RESPONSE	        M8	2	23	B4	press
853.58	n/a	RESPONSE	        M8	2	19	G4	release
853.778	n/a	RESPONSE	        M8	2	23	B4	release
853.87	n/a	RESPONSE	        M8	2	23	B4	press
854.231	n/a	RESPONSE	        M8	2	23	B4	release
854.365	n/a	RESPONSE	        M8	2	11	B3	press
854.374	n/a	RESPONSE	        M8	2	18	F#4	press
854.756	n/a	RESPONSE	        M8	2	14	D4	press
854.876	n/a	RESPONSE	        M8	2	11	B3	release
855.077	n/a	RESPONSE	        M8	2	23	B4	press
855.118	n/a	RESPONSE	        M8	2	18	F#4	release
855.13	n/a	RESPONSE	        M8	2	16	E4	press
855.174	n/a	RESPONSE	        M8	2	14	D4	release
855.474	n/a	RESPONSE	        M8	2	23	B4	release
855.496	n/a	RESPONSE	        M8	2	16	E4	release
855.545	n/a	RESPONSE	        M8	2	21	A4	press
855.616	n/a	RESPONSE	        M8	2	16	E4	press
856.01	n/a	RESPONSE	        M8	2	16	E4	release
857.02	n/a	RESPONSE	        M8	2	21	A4	release
857.902	n/a	RESPONSE	        M8	2	23	B4	press
857.932	n/a	RESPONSE	        M8	2	15	D#4	press
858.544	n/a	RESPONSE	        M8	2	12	C4	press
858.577	n/a	RESPONSE	        M8	2	15	D#4	release
858.76	7.758	FIXCROSS	n/a	n/a	n/a	n/a	n/a
858.789	n/a	RESPONSE	        M8	2	21	A4	press
859.057	n/a	RESPONSE	        M8	2	19	G4	press
859.13	n/a	RESPONSE	        M8	2	23	B4	release
859.206	n/a	RESPONSE	        M8	2	21	A4	release
859.322	n/a	RESPONSE	        M8	2	18	F#4	press
859.374	n/a	RESPONSE	        M8	2	19	G4	release
859.454	n/a	RESPONSE	        M8	2	12	C4	release
859.824	n/a	RESPONSE	        M8	2	19	G4	press
859.899	n/a	RESPONSE	        M8	2	18	F#4	release
861.265	n/a	RESPONSE	        M8	2	12	C4	press
862.247	n/a	RESPONSE	        M8	2	12	C4	release
862.517	n/a	RESPONSE	        M8	2	11	B3	press
863.352	n/a	RESPONSE	        M8	2	11	B3	release
864.344	n/a	RESPONSE	        M8	2	19	G4	release
866.519	6.325	CUE_LISTEN	        M6	1	n/a	n/a	n/a
872.844	7.758	FIXCROSS	n/a	n/a	n/a	n/a	n/a
880.602	6.317	CUE_PLAYBACK_RIGHT_HAND	        M6	1	n/a	n/a	n/a
881.14	n/a	RESPONSE	        M6	1	19	G4	press
881.387	n/a	RESPONSE	        M6	1	18	F#4	press
881.492	n/a	RESPONSE	        M6	1	19	G4	release
881.641	n/a	RESPONSE	        M6	1	19	G4	press
881.685	n/a	RESPONSE	        M6	1	18	F#4	release
882.268	n/a	RESPONSE	        M6	1	23	B4	press
882.405	n/a	RESPONSE	        M6	1	19	G4	release
882.508	n/a	RESPONSE	        M6	1	24	C5	press
882.647	n/a	RESPONSE	        M6	1	23	B4	release
882.795	n/a	RESPONSE	        M6	1	23	B4	press
882.976	n/a	RESPONSE	        M6	1	24	C5	release
883.557	n/a	RESPONSE	        M6	1	23	B4	release
884.5	n/a	RESPONSE	        M6	1	18	F#4	press
884.721	n/a	RESPONSE	        M6	1	16	E4	press
884.821	n/a	RESPONSE	        M6	1	18	F#4	release
884.972	n/a	RESPONSE	        M6	1	18	F#4	press
885.044	n/a	RESPONSE	        M6	1	16	E4	release
885.535	n/a	RESPONSE	        M6	1	19	G4	press
885.647	n/a	RESPONSE	        M6	1	18	F#4	release
885.837	n/a	RESPONSE	        M6	1	21	A4	press
885.98	n/a	RESPONSE	        M6	1	19	G4	release
886.101	n/a	RESPONSE	        M6	1	19	G4	press
886.175	n/a	RESPONSE	        M6	1	21	A4	release
886.919	7.758	FIXCROSS	n/a	n/a	n/a	n/a	n/a
887.014	n/a	RESPONSE	        M6	1	19	G4	release
894.677	6.317	CUE_LISTEN	        M6	2	n/a	n/a	n/a
900.994	7.758	FIXCROSS	n/a	n/a	n/a	n/a	n/a
908.752	183.582	CUE_PLAYBACK_RIGHT_HAND	        M6	2	n/a	n/a	n/a
909.297	n/a	RESPONSE	        M6	2	23	B4	press
910.474	n/a	RESPONSE	        M6	2	18	F#4	press
910.582	n/a	RESPONSE	        M6	2	23	B4	release
911.806	n/a	RESPONSE	        M6	2	23	B4	press
911.897	n/a	RESPONSE	        M6	2	18	F#4	release
912.778	n/a	RESPONSE	        M6	2	21	A4	press
912.83	n/a	RESPONSE	        M6	2	23	B4	release
913.252	n/a	FIXCROSS	n/a	n/a	n/a	n/a	n/a
914.321	n/a	RESPONSE	        M6	2	21	A4	release
