onset	duration	trial_type	trial_number	stroop_condition	stim_text(PL)	stim_text(eng)	stim_color(PL)	stim_color(eng)	response_type	response_color
0.0	n/a	RESPONSE	n/a	n/a	n/a	n/a	n/a	n/a	n/a	n/a
0.0574	1.0333	ITI	n/a	n/a	n/a	n/a	n/a	n/a	n/a	n/a
1.0907	0.5167	FIXCROSS	n/a	n/a	n/a	n/a	n/a	n/a	n/a	n/a
1.6074	1.0333	T_INK	1	Neutral	xxxxxxxxx	xxxxxxxxx	zielony	green	hit	n/a
2.6074	n/a	RESPONSE	n/a	n/a	n/a	n/a	n/a	n/a	n/a	green
2.6407	0.5167	FEEDBACK	n/a	n/a	n/a	n/a	n/a	n/a	n/a	n/a
3.1574	1.0167	ITI	n/a	n/a	n/a	n/a	n/a	n/a	n/a	n/a
4.1741	0.5167	FIXCROSS	n/a	n/a	n/a	n/a	n/a	n/a	n/a	n/a
4.6907	0.75	T_INK	2	Neutral	xxxxx	xxxxx	niebieski	blue	hit	n/a
5.4068	n/a	RESPONSE	n/a	n/a	n/a	n/a	n/a	n/a	n/a	blue
5.4407	0.5167	FEEDBACK	n/a	n/a	n/a	n/a	n/a	n/a	n/a	n/a
5.9574	1.0167	ITI	n/a	n/a	n/a	n/a	n/a	n/a	n/a	n/a
6.9741	0.5167	FIXCROSS	n/a	n/a	n/a	n/a	n/a	n/a	n/a	n/a
7.4908	0.8833	T_INK	3	Incongruent	czerwony	red	zielony	green	hit	n/a
8.3502	n/a	RESPONSE	n/a	n/a	n/a	n/a	n/a	n/a	n/a	green
8.3741	0.5167	FEEDBACK	n/a	n/a	n/a	n/a	n/a	n/a	n/a	n/a
8.8908	1.0167	ITI	n/a	n/a	n/a	n/a	n/a	n/a	n/a	n/a
9.9074	0.5167	FIXCROSS	n/a	n/a	n/a	n/a	n/a	n/a	n/a	n/a
10.4241	0.7334	T_INK	4	Incongruent	zielony	green	żółty	yellow	hit	n/a
11.1336	n/a	RESPONSE	n/a	n/a	n/a	n/a	n/a	n/a	n/a	yellow
11.1575	0.5167	FEEDBACK	n/a	n/a	n/a	n/a	n/a	n/a	n/a	n/a
11.6741	1.0167	ITI	n/a	n/a	n/a	n/a	n/a	n/a	n/a	n/a
12.6908	0.5167	FIXCROSS	n/a	n/a	n/a	n/a	n/a	n/a	n/a	n/a
13.2075	0.6333	T_INK	5	Incongruent	niebieski	blue	czerwony	red	hit	n/a
13.8211	n/a	RESPONSE	n/a	n/a	n/a	n/a	n/a	n/a	n/a	red
13.8408	0.5167	FEEDBACK	n/a	n/a	n/a	n/a	n/a	n/a	n/a	n/a
14.3575	1.0167	ITI	n/a	n/a	n/a	n/a	n/a	n/a	n/a	n/a
15.3741	0.5167	FIXCROSS	n/a	n/a	n/a	n/a	n/a	n/a	n/a	n/a
15.8908	0.7333	T_INK	6	Incongruent	czerwony	red	żółty	yellow	hit	n/a
16.6045	n/a	RESPONSE	n/a	n/a	n/a	n/a	n/a	n/a	n/a	yellow
16.6241	0.5167	FEEDBACK	n/a	n/a	n/a	n/a	n/a	n/a	n/a	n/a
17.1408	1.0167	ITI	n/a	n/a	n/a	n/a	n/a	n/a	n/a	n/a
18.1575	0.5167	FIXCROSS	n/a	n/a	n/a	n/a	n/a	n/a	n/a	n/a
18.6742	1.5167	T_INK	7	Incongruent	zielony	green	niebieski	blue	hit	n/a
20.1557	n/a	RESPONSE	n/a	n/a	n/a	n/a	n/a	n/a	n/a	blue
20.1909	0.5167	FEEDBACK	n/a	n/a	n/a	n/a	n/a	n/a	n/a	n/a
20.7075	1.0167	ITI	n/a	n/a	n/a	n/a	n/a	n/a	n/a	n/a
21.7242	0.5167	FIXCROSS	n/a	n/a	n/a	n/a	n/a	n/a	n/a	n/a
22.2409	0.85	T_INK	8	Neutral	xxxxx	xxxxx	czerwony	red	hit	n/a
23.0671	n/a	RESPONSE	n/a	n/a	n/a	n/a	n/a	n/a	n/a	red
23.0909	0.5167	FEEDBACK	n/a	n/a	n/a	n/a	n/a	n/a	n/a	n/a
23.6075	1.0167	ITI	n/a	n/a	n/a	n/a	n/a	n/a	n/a	n/a
24.6242	0.5167	FIXCROSS	n/a	n/a	n/a	n/a	n/a	n/a	n/a	n/a
25.1409	1.0	T_INK	9	Neutral	xxxxxxx	xxxxxxx	niebieski	blue	hit	n/a
26.1064	n/a	RESPONSE	n/a	n/a	n/a	n/a	n/a	n/a	n/a	blue
26.1409	0.5167	FEEDBACK	n/a	n/a	n/a	n/a	n/a	n/a	n/a	n/a
26.6576	1.0167	ITI	n/a	n/a	n/a	n/a	n/a	n/a	n/a	n/a
27.6742	0.5167	FIXCROSS	n/a	n/a	n/a	n/a	n/a	n/a	n/a	n/a
28.1909	0.7333	T_INK	10	Incongruent	czerwony	red	niebieski	blue	hit	n/a
28.8899	n/a	RESPONSE	n/a	n/a	n/a	n/a	n/a	n/a	n/a	blue
28.9242	0.5167	FEEDBACK	n/a	n/a	n/a	n/a	n/a	n/a	n/a	n/a
29.4409	1.0167	ITI	n/a	n/a	n/a	n/a	n/a	n/a	n/a	n/a
30.4576	0.5167	FIXCROSS	n/a	n/a	n/a	n/a	n/a	n/a	n/a	n/a
30.9743	0.6333	T_INK	11	Neutral	xxxxxxxx	xxxxxxxx	żółty	yellow	hit	n/a
31.5773	n/a	RESPONSE	n/a	n/a	n/a	n/a	n/a	n/a	n/a	yellow
31.6076	0.5167	FEEDBACK	n/a	n/a	n/a	n/a	n/a	n/a	n/a	n/a
32.1243	1.0167	ITI	n/a	n/a	n/a	n/a	n/a	n/a	n/a	n/a
33.1409	0.5167	FIXCROSS	n/a	n/a	n/a	n/a	n/a	n/a	n/a	n/a
33.6576	0.85	T_INK	12	Neutral	xxxxxxxx	xxxxxxxx	zielony	green	hit	n/a
34.4727	n/a	RESPONSE	n/a	n/a	n/a	n/a	n/a	n/a	n/a	green
34.5076	0.5167	FEEDBACK	n/a	n/a	n/a	n/a	n/a	n/a	n/a	n/a
35.0243	1.0333	ITI	n/a	n/a	n/a	n/a	n/a	n/a	n/a	n/a
52.149	n/a	RESPONSE	n/a	n/a	n/a	n/a	n/a	n/a	n/a	n/a
52.2077	1.0167	ITI	n/a	n/a	n/a	n/a	n/a	n/a	n/a	n/a
53.2244	0.5167	FIXCROSS	n/a	n/a	n/a	n/a	n/a	n/a	n/a	n/a
53.7411	0.9	INK	1	Incongruent	czerwony	red	niebieski	blue	hit	n/a
54.6125	n/a	RESPONSE	n/a	n/a	n/a	n/a	n/a	n/a	n/a	blue
54.6411	1.0167	ITI	n/a	n/a	n/a	n/a	n/a	n/a	n/a	n/a
55.6578	0.5167	FIXCROSS	n/a	n/a	n/a	n/a	n/a	n/a	n/a	n/a
56.1744	0.4667	INK	2	Incongruent	czerwony	red	niebieski	blue	hit	n/a
56.6121	n/a	RESPONSE	n/a	n/a	n/a	n/a	n/a	n/a	n/a	blue
56.6411	1.0167	ITI	n/a	n/a	n/a	n/a	n/a	n/a	n/a	n/a
57.6578	0.5167	FIXCROSS	n/a	n/a	n/a	n/a	n/a	n/a	n/a	n/a
58.1744	0.5167	INK	3	Neutral	xxxxxxxx	xxxxxxxx	żółty	yellow	hit	n/a
58.6596	n/a	RESPONSE	n/a	n/a	n/a	n/a	n/a	n/a	n/a	yellow
58.6911	1.0167	ITI	n/a	n/a	n/a	n/a	n/a	n/a	n/a	n/a
59.7078	0.5167	FIXCROSS	n/a	n/a	n/a	n/a	n/a	n/a	n/a	n/a
60.2245	0.6167	INK	4	Neutral	xxxxxxxx	xxxxxxxx	zielony	green	hit	n/a
60.8192	n/a	RESPONSE	n/a	n/a	n/a	n/a	n/a	n/a	n/a	green
60.8411	1.0167	ITI	n/a	n/a	n/a	n/a	n/a	n/a	n/a	n/a
61.8578	0.5167	FIXCROSS	n/a	n/a	n/a	n/a	n/a	n/a	n/a	n/a
62.3745	0.6333	INK	5	Incongruent	zielony	green	niebieski	blue	hit	n/a
62.9787	n/a	RESPONSE	n/a	n/a	n/a	n/a	n/a	n/a	n/a	blue
63.0078	1.0167	ITI	n/a	n/a	n/a	n/a	n/a	n/a	n/a	n/a
64.0245	0.5167	FIXCROSS	n/a	n/a	n/a	n/a	n/a	n/a	n/a	n/a
64.5412	0.6333	INK	6	Incongruent	niebieski	blue	zielony	green	hit	n/a
65.1543	n/a	RESPONSE	n/a	n/a	n/a	n/a	n/a	n/a	n/a	green
65.1745	1.0167	ITI	n/a	n/a	n/a	n/a	n/a	n/a	n/a	n/a
66.1912	0.5167	FIXCROSS	n/a	n/a	n/a	n/a	n/a	n/a	n/a	n/a
66.7078	0.5333	INK	7	Neutral	xxxxxxxxx	xxxxxxxxx	zielony	green	hit	n/a
67.2178	n/a	RESPONSE	n/a	n/a	n/a	n/a	n/a	n/a	n/a	green
67.2412	1.0167	ITI	n/a	n/a	n/a	n/a	n/a	n/a	n/a	n/a
68.2578	0.5167	FIXCROSS	n/a	n/a	n/a	n/a	n/a	n/a	n/a	n/a
68.7745	0.4333	INK	8	Incongruent	czerwony	red	zielony	green	hit	n/a
69.1854	n/a	RESPONSE	n/a	n/a	n/a	n/a	n/a	n/a	n/a	green
69.2079	1.0167	ITI	n/a	n/a	n/a	n/a	n/a	n/a	n/a	n/a
70.2245	0.5167	FIXCROSS	n/a	n/a	n/a	n/a	n/a	n/a	n/a	n/a
70.7412	0.4167	INK	9	Incongruent	niebieski	blue	zielony	green	hit	n/a
71.137	n/a	RESPONSE	n/a	n/a	n/a	n/a	n/a	n/a	n/a	green
71.1579	1.0167	ITI	n/a	n/a	n/a	n/a	n/a	n/a	n/a	n/a
72.1745	0.5167	FIXCROSS	n/a	n/a	n/a	n/a	n/a	n/a	n/a	n/a
72.6912	0.6333	INK	10	Incongruent	czerwony	red	żółty	yellow	hit	n/a
73.2965	n/a	RESPONSE	n/a	n/a	n/a	n/a	n/a	n/a	n/a	yellow
73.3246	1.0167	ITI	n/a	n/a	n/a	n/a	n/a	n/a	n/a	n/a
74.3412	0.5167	FIXCROSS	n/a	n/a	n/a	n/a	n/a	n/a	n/a	n/a
74.8579	0.45	INK	11	Neutral	xxxxxxxx	xxxxxxxx	żółty	yellow	hit	n/a
75.2802	n/a	RESPONSE	n/a	n/a	n/a	n/a	n/a	n/a	n/a	yellow
75.3079	1.0167	ITI	n/a	n/a	n/a	n/a	n/a	n/a	n/a	n/a
76.3246	0.5167	FIXCROSS	n/a	n/a	n/a	n/a	n/a	n/a	n/a	n/a
76.8412	0.6167	INK	12	Incongruent	czerwony	red	niebieski	blue	hit	n/a
77.4397	n/a	RESPONSE	n/a	n/a	n/a	n/a	n/a	n/a	n/a	blue
77.4579	1.0167	ITI	n/a	n/a	n/a	n/a	n/a	n/a	n/a	n/a
78.4746	0.5167	FIXCROSS	n/a	n/a	n/a	n/a	n/a	n/a	n/a	n/a
78.9913	0.5333	INK	13	Incongruent	czerwony	red	zielony	green	hit	n/a
79.5032	n/a	RESPONSE	n/a	n/a	n/a	n/a	n/a	n/a	n/a	green
79.5246	1.0167	ITI	n/a	n/a	n/a	n/a	n/a	n/a	n/a	n/a
80.5413	0.5167	FIXCROSS	n/a	n/a	n/a	n/a	n/a	n/a	n/a	n/a
81.0579	0.65	INK	14	Neutral	xxxxx	xxxxx	zielony	green	hit	n/a
81.6788	n/a	RESPONSE	n/a	n/a	n/a	n/a	n/a	n/a	n/a	green
81.7079	1.0167	ITI	n/a	n/a	n/a	n/a	n/a	n/a	n/a	n/a
82.7246	0.5167	FIXCROSS	n/a	n/a	n/a	n/a	n/a	n/a	n/a	n/a
83.2413	0.5667	INK	15	Incongruent	niebieski	blue	żółty	yellow	hit	n/a
83.7744	n/a	RESPONSE	n/a	n/a	n/a	n/a	n/a	n/a	n/a	yellow
83.808	1.0167	ITI	n/a	n/a	n/a	n/a	n/a	n/a	n/a	n/a
84.8246	0.5167	FIXCROSS	n/a	n/a	n/a	n/a	n/a	n/a	n/a	n/a
85.3413	0.65	INK	16	Incongruent	zielony	green	żółty	yellow	hit	n/a
85.9659	n/a	RESPONSE	n/a	n/a	n/a	n/a	n/a	n/a	n/a	yellow
85.9913	1.0167	ITI	n/a	n/a	n/a	n/a	n/a	n/a	n/a	n/a
87.008	0.5167	FIXCROSS	n/a	n/a	n/a	n/a	n/a	n/a	n/a	n/a
87.5247	0.4833	INK	17	Neutral	xxxxxxxx	xxxxxxxx	zielony	green	hit	n/a
87.9815	n/a	RESPONSE	n/a	n/a	n/a	n/a	n/a	n/a	n/a	green
88.008	1.0167	ITI	n/a	n/a	n/a	n/a	n/a	n/a	n/a	n/a
89.0247	0.5167	FIXCROSS	n/a	n/a	n/a	n/a	n/a	n/a	n/a	n/a
89.5413	0.5667	INK	18	Neutral	xxxxxxx	xxxxxxx	niebieski	blue	hit	n/a
90.077	n/a	RESPONSE	n/a	n/a	n/a	n/a	n/a	n/a	n/a	blue
90.108	1.0167	ITI	n/a	n/a	n/a	n/a	n/a	n/a	n/a	n/a
91.1247	0.5167	FIXCROSS	n/a	n/a	n/a	n/a	n/a	n/a	n/a	n/a
91.6413	0.7167	INK	19	Neutral	xxxxxxxxx	xxxxxxxxx	żółty	yellow	hit	n/a
92.3325	n/a	RESPONSE	n/a	n/a	n/a	n/a	n/a	n/a	n/a	yellow
92.358	1.0167	ITI	n/a	n/a	n/a	n/a	n/a	n/a	n/a	n/a
93.3747	0.5167	FIXCROSS	n/a	n/a	n/a	n/a	n/a	n/a	n/a	n/a
93.8914	0.6667	INK	20	Incongruent	żółty	yellow	niebieski	blue	hit	n/a
94.5401	n/a	RESPONSE	n/a	n/a	n/a	n/a	n/a	n/a	n/a	blue
94.558	1.0167	ITI	n/a	n/a	n/a	n/a	n/a	n/a	n/a	n/a
95.5747	0.5167	FIXCROSS	n/a	n/a	n/a	n/a	n/a	n/a	n/a	n/a
96.0914	0.5833	INK	21	Incongruent	niebieski	blue	zielony	green	hit	n/a
96.6516	n/a	RESPONSE	n/a	n/a	n/a	n/a	n/a	n/a	n/a	green
96.6747	1.0167	ITI	n/a	n/a	n/a	n/a	n/a	n/a	n/a	n/a
97.6914	0.5167	FIXCROSS	n/a	n/a	n/a	n/a	n/a	n/a	n/a	n/a
98.2081	0.7	INK	22	Neutral	xxxxx	xxxxx	czerwony	red	hit	n/a
98.8752	n/a	RESPONSE	n/a	n/a	n/a	n/a	n/a	n/a	n/a	red
98.9081	1.0167	ITI	n/a	n/a	n/a	n/a	n/a	n/a	n/a	n/a
99.9247	0.5167	FIXCROSS	n/a	n/a	n/a	n/a	n/a	n/a	n/a	n/a
100.4414	0.5833	INK	23	Neutral	xxxxxxx	xxxxxxx	żółty	yellow	hit	n/a
101.0027	n/a	RESPONSE	n/a	n/a	n/a	n/a	n/a	n/a	n/a	yellow
101.0248	1.0167	ITI	n/a	n/a	n/a	n/a	n/a	n/a	n/a	n/a
102.0414	0.5167	FIXCROSS	n/a	n/a	n/a	n/a	n/a	n/a	n/a	n/a
102.5581	0.6	INK	24	Neutral	xxxxxxxx	xxxxxxxx	zielony	green	hit	n/a
103.1303	n/a	RESPONSE	n/a	n/a	n/a	n/a	n/a	n/a	n/a	green
103.1581	1.0167	ITI	n/a	n/a	n/a	n/a	n/a	n/a	n/a	n/a
104.1748	0.5167	FIXCROSS	n/a	n/a	n/a	n/a	n/a	n/a	n/a	n/a
104.6914	1.2667	INK	25	Incongruent	zielony	green	czerwony	red	hit	n/a
105.9297	n/a	RESPONSE	n/a	n/a	n/a	n/a	n/a	n/a	n/a	red
105.9581	1.0167	ITI	n/a	n/a	n/a	n/a	n/a	n/a	n/a	n/a
106.9748	0.5167	FIXCROSS	n/a	n/a	n/a	n/a	n/a	n/a	n/a	n/a
107.4915	0.8167	INK	26	Incongruent	żółty	yellow	zielony	green	hit	n/a
108.2812	n/a	RESPONSE	n/a	n/a	n/a	n/a	n/a	n/a	n/a	green
108.3081	1.0167	ITI	n/a	n/a	n/a	n/a	n/a	n/a	n/a	n/a
109.3248	0.5167	FIXCROSS	n/a	n/a	n/a	n/a	n/a	n/a	n/a	n/a
109.8415	0.6333	INK	27	Neutral	xxxxxxx	xxxxxxx	niebieski	blue	hit	n/a
110.4568	n/a	RESPONSE	n/a	n/a	n/a	n/a	n/a	n/a	n/a	blue
110.4748	1.0167	ITI	n/a	n/a	n/a	n/a	n/a	n/a	n/a	n/a
111.4915	0.5167	FIXCROSS	n/a	n/a	n/a	n/a	n/a	n/a	n/a	n/a
112.0082	0.65	INK	28	Neutral	xxxxxxxxx	xxxxxxxxx	żółty	yellow	hit	n/a
112.6323	n/a	RESPONSE	n/a	n/a	n/a	n/a	n/a	n/a	n/a	yellow
112.6582	1.0167	ITI	n/a	n/a	n/a	n/a	n/a	n/a	n/a	n/a
113.6748	0.5167	FIXCROSS	n/a	n/a	n/a	n/a	n/a	n/a	n/a	n/a
114.1915	0.6333	INK	29	Neutral	xxxxx	xxxxx	zielony	green	hit	n/a
114.7918	n/a	RESPONSE	n/a	n/a	n/a	n/a	n/a	n/a	n/a	green
114.8248	1.0167	ITI	n/a	n/a	n/a	n/a	n/a	n/a	n/a	n/a
115.8415	0.5167	FIXCROSS	n/a	n/a	n/a	n/a	n/a	n/a	n/a	n/a
116.3582	0.7333	INK	30	Incongruent	czerwony	red	żółty	yellow	hit	n/a
117.0633	n/a	RESPONSE	n/a	n/a	n/a	n/a	n/a	n/a	n/a	yellow
117.0915	1.0167	ITI	n/a	n/a	n/a	n/a	n/a	n/a	n/a	n/a
118.1082	0.5167	FIXCROSS	n/a	n/a	n/a	n/a	n/a	n/a	n/a	n/a
118.6249	1.1167	INK	31	Incongruent	żółty	yellow	niebieski	blue	hit	n/a
119.7187	n/a	RESPONSE	n/a	n/a	n/a	n/a	n/a	n/a	n/a	blue
119.7415	1.0167	ITI	n/a	n/a	n/a	n/a	n/a	n/a	n/a	n/a
120.7582	0.5166	FIXCROSS	n/a	n/a	n/a	n/a	n/a	n/a	n/a	n/a
121.2748	0.7667	INK	32	Neutral	xxxxxxxxx	xxxxxxxxx	czerwony	red	hit	n/a
122.0223	n/a	RESPONSE	n/a	n/a	n/a	n/a	n/a	n/a	n/a	red
122.0416	1.0167	ITI	n/a	n/a	n/a	n/a	n/a	n/a	n/a	n/a
123.0582	0.5167	FIXCROSS	n/a	n/a	n/a	n/a	n/a	n/a	n/a	n/a
123.5749	0.7833	INK	33	Incongruent	niebieski	blue	żółty	yellow	hit	n/a
124.3258	n/a	RESPONSE	n/a	n/a	n/a	n/a	n/a	n/a	n/a	yellow
124.3582	1.0167	ITI	n/a	n/a	n/a	n/a	n/a	n/a	n/a	n/a
125.3749	0.5167	FIXCROSS	n/a	n/a	n/a	n/a	n/a	n/a	n/a	n/a
125.8916	0.8	INK	34	Incongruent	zielony	green	czerwony	red	hit	n/a
126.6613	n/a	RESPONSE	n/a	n/a	n/a	n/a	n/a	n/a	n/a	red
126.6916	1.0167	ITI	n/a	n/a	n/a	n/a	n/a	n/a	n/a	n/a
127.7083	0.5167	FIXCROSS	n/a	n/a	n/a	n/a	n/a	n/a	n/a	n/a
128.2249	0.9833	INK	35	Incongruent	zielony	green	niebieski	blue	hit	n/a
129.1888	n/a	RESPONSE	n/a	n/a	n/a	n/a	n/a	n/a	n/a	blue
129.2083	1.0167	ITI	n/a	n/a	n/a	n/a	n/a	n/a	n/a	n/a
130.225	0.5167	FIXCROSS	n/a	n/a	n/a	n/a	n/a	n/a	n/a	n/a
130.7416	0.75	INK	36	Neutral	xxxxxxxxx	xxxxxxxxx	zielony	green	hit	n/a
131.4603	n/a	RESPONSE	n/a	n/a	n/a	n/a	n/a	n/a	n/a	green
131.4916	1.0167	ITI	n/a	n/a	n/a	n/a	n/a	n/a	n/a	n/a
132.5083	0.5167	FIXCROSS	n/a	n/a	n/a	n/a	n/a	n/a	n/a	n/a
133.025	0.7	INK	37	Incongruent	niebieski	blue	czerwony	red	hit	n/a
133.6998	n/a	RESPONSE	n/a	n/a	n/a	n/a	n/a	n/a	n/a	red
133.725	1.0167	ITI	n/a	n/a	n/a	n/a	n/a	n/a	n/a	n/a
134.7417	0.5167	FIXCROSS	n/a	n/a	n/a	n/a	n/a	n/a	n/a	n/a
135.2583	0.4667	INK	38	Incongruent	żółty	yellow	czerwony	red	hit	n/a
135.6994	n/a	RESPONSE	n/a	n/a	n/a	n/a	n/a	n/a	n/a	red
135.725	1.0167	ITI	n/a	n/a	n/a	n/a	n/a	n/a	n/a	n/a
136.7417	0.5167	FIXCROSS	n/a	n/a	n/a	n/a	n/a	n/a	n/a	n/a
137.2583	0.6	INK	39	Incongruent	czerwony	red	żółty	yellow	hit	n/a
137.8269	n/a	RESPONSE	n/a	n/a	n/a	n/a	n/a	n/a	n/a	yellow
137.8583	1.0167	ITI	n/a	n/a	n/a	n/a	n/a	n/a	n/a	n/a
138.875	0.5167	FIXCROSS	n/a	n/a	n/a	n/a	n/a	n/a	n/a	n/a
139.3917	0.4333	INK	40	Neutral	xxxxxxxx	xxxxxxxx	żółty	yellow	hit	n/a
139.7945	n/a	RESPONSE	n/a	n/a	n/a	n/a	n/a	n/a	n/a	yellow
139.825	1.0167	ITI	n/a	n/a	n/a	n/a	n/a	n/a	n/a	n/a
140.8417	0.5167	FIXCROSS	n/a	n/a	n/a	n/a	n/a	n/a	n/a	n/a
141.3584	0.5	INK	41	Incongruent	niebieski	blue	czerwony	red	hit	n/a
141.8261	n/a	RESPONSE	n/a	n/a	n/a	n/a	n/a	n/a	n/a	red
141.8584	1.0167	ITI	n/a	n/a	n/a	n/a	n/a	n/a	n/a	n/a
142.875	0.5167	FIXCROSS	n/a	n/a	n/a	n/a	n/a	n/a	n/a	n/a
143.3917	0.7	INK	42	Neutral	xxxxx	xxxxx	niebieski	blue	hit	n/a
144.0656	n/a	RESPONSE	n/a	n/a	n/a	n/a	n/a	n/a	n/a	blue
144.0917	1.0167	ITI	n/a	n/a	n/a	n/a	n/a	n/a	n/a	n/a
145.1084	0.5167	FIXCROSS	n/a	n/a	n/a	n/a	n/a	n/a	n/a	n/a
145.6251	0.55	INK	43	Neutral	xxxxxxx	xxxxxxx	czerwony	red	hit	n/a
146.1452	n/a	RESPONSE	n/a	n/a	n/a	n/a	n/a	n/a	n/a	red
146.1751	1.0167	ITI	n/a	n/a	n/a	n/a	n/a	n/a	n/a	n/a
147.1917	0.5167	FIXCROSS	n/a	n/a	n/a	n/a	n/a	n/a	n/a	n/a
147.7084	0.6167	INK	44	Incongruent	zielony	green	żółty	yellow	hit	n/a
148.3047	n/a	RESPONSE	n/a	n/a	n/a	n/a	n/a	n/a	n/a	yellow
148.3251	1.0167	ITI	n/a	n/a	n/a	n/a	n/a	n/a	n/a	n/a
149.3418	0.5167	FIXCROSS	n/a	n/a	n/a	n/a	n/a	n/a	n/a	n/a
149.8584	0.55	INK	45	Neutral	xxxxx	xxxxx	czerwony	red	hit	n/a
150.3843	n/a	RESPONSE	n/a	n/a	n/a	n/a	n/a	n/a	n/a	red
150.4084	1.0167	ITI	n/a	n/a	n/a	n/a	n/a	n/a	n/a	n/a
151.4251	0.5167	FIXCROSS	n/a	n/a	n/a	n/a	n/a	n/a	n/a	n/a
151.9418	0.7	INK	46	Neutral	xxxxxxxxx	xxxxxxxxx	zielony	green	hit	n/a
152.6238	n/a	RESPONSE	n/a	n/a	n/a	n/a	n/a	n/a	n/a	green
152.6418	1.0167	ITI	n/a	n/a	n/a	n/a	n/a	n/a	n/a	n/a
153.6585	0.5167	FIXCROSS	n/a	n/a	n/a	n/a	n/a	n/a	n/a	n/a
154.1751	0.5667	INK	47	Neutral	xxxxx	xxxxx	czerwony	red	hit	n/a
154.7194	n/a	RESPONSE	n/a	n/a	n/a	n/a	n/a	n/a	n/a	red
154.7418	1.0167	ITI	n/a	n/a	n/a	n/a	n/a	n/a	n/a	n/a
155.7585	0.5167	FIXCROSS	n/a	n/a	n/a	n/a	n/a	n/a	n/a	n/a
156.2751	0.55	INK	48	Neutral	xxxxxxxxx	xxxxxxxxx	żółty	yellow	hit	n/a
156.799	n/a	RESPONSE	n/a	n/a	n/a	n/a	n/a	n/a	n/a	yellow
156.8251	1.0167	ITI	n/a	n/a	n/a	n/a	n/a	n/a	n/a	n/a
157.8418	0.5167	FIXCROSS	n/a	n/a	n/a	n/a	n/a	n/a	n/a	n/a
158.3585	0.75	INK	49	Incongruent	czerwony	red	zielony	green	hit	n/a
159.0865	n/a	RESPONSE	n/a	n/a	n/a	n/a	n/a	n/a	n/a	green
159.1085	1.0167	ITI	n/a	n/a	n/a	n/a	n/a	n/a	n/a	n/a
160.1252	0.5167	FIXCROSS	n/a	n/a	n/a	n/a	n/a	n/a	n/a	n/a
160.6418	0.6167	INK	50	Incongruent	zielony	green	czerwony	red	hit	n/a
161.23	n/a	RESPONSE	n/a	n/a	n/a	n/a	n/a	n/a	n/a	red
161.2585	1.0167	ITI	n/a	n/a	n/a	n/a	n/a	n/a	n/a	n/a
162.2752	0.5167	FIXCROSS	n/a	n/a	n/a	n/a	n/a	n/a	n/a	n/a
162.7918	0.6167	INK	51	Incongruent	żółty	yellow	zielony	green	hit	n/a
163.3896	n/a	RESPONSE	n/a	n/a	n/a	n/a	n/a	n/a	n/a	green
163.4085	1.0167	ITI	n/a	n/a	n/a	n/a	n/a	n/a	n/a	n/a
163.6775	n/a	RESPONSE	n/a	n/a	n/a	n/a	n/a	n/a	n/a	green
164.4252	0.5167	FIXCROSS	n/a	n/a	n/a	n/a	n/a	n/a	n/a	n/a
164.9419	0.6167	INK	52	Neutral	xxxxx	xxxxx	niebieski	blue	hit	n/a
165.5331	n/a	RESPONSE	n/a	n/a	n/a	n/a	n/a	n/a	n/a	blue
165.5585	1.0167	ITI	n/a	n/a	n/a	n/a	n/a	n/a	n/a	n/a
166.5752	0.5167	FIXCROSS	n/a	n/a	n/a	n/a	n/a	n/a	n/a	n/a
167.0919	0.6167	INK	53	Neutral	xxxxxxxxx	xxxxxxxxx	czerwony	red	hit	n/a
167.6766	n/a	RESPONSE	n/a	n/a	n/a	n/a	n/a	n/a	n/a	red
167.7085	1.0167	ITI	n/a	n/a	n/a	n/a	n/a	n/a	n/a	n/a
168.7252	0.5167	FIXCROSS	n/a	n/a	n/a	n/a	n/a	n/a	n/a	n/a
169.2419	0.7667	INK	54	Incongruent	żółty	yellow	zielony	green	hit	n/a
169.9802	n/a	RESPONSE	n/a	n/a	n/a	n/a	n/a	n/a	n/a	green
170.0086	1.0167	ITI	n/a	n/a	n/a	n/a	n/a	n/a	n/a	n/a
171.0252	0.5167	FIXCROSS	n/a	n/a	n/a	n/a	n/a	n/a	n/a	n/a
171.5419	0.75	INK	55	Neutral	xxxxxxxx	xxxxxxxx	niebieski	blue	hit	n/a
172.2677	n/a	RESPONSE	n/a	n/a	n/a	n/a	n/a	n/a	n/a	blue
172.2919	1.0167	ITI	n/a	n/a	n/a	n/a	n/a	n/a	n/a	n/a
173.3086	0.5167	FIXCROSS	n/a	n/a	n/a	n/a	n/a	n/a	n/a	n/a
173.8253	0.5667	INK	56	Neutral	xxxxxxx	xxxxxxx	czerwony	red	hit	n/a
174.3633	n/a	RESPONSE	n/a	n/a	n/a	n/a	n/a	n/a	n/a	red
174.3919	1.0167	ITI	n/a	n/a	n/a	n/a	n/a	n/a	n/a	n/a
175.4086	0.5167	FIXCROSS	n/a	n/a	n/a	n/a	n/a	n/a	n/a	n/a
175.9253	0.5667	INK	57	Incongruent	zielony	green	żółty	yellow	hit	n/a
176.4588	n/a	RESPONSE	n/a	n/a	n/a	n/a	n/a	n/a	n/a	yellow
176.4919	1.0167	ITI	n/a	n/a	n/a	n/a	n/a	n/a	n/a	n/a
177.5086	0.5167	FIXCROSS	n/a	n/a	n/a	n/a	n/a	n/a	n/a	n/a
178.0253	0.4833	INK	58	Neutral	xxxxxxx	xxxxxxx	żółty	yellow	hit	n/a
178.4904	n/a	RESPONSE	n/a	n/a	n/a	n/a	n/a	n/a	n/a	yellow
178.5086	1.0167	ITI	n/a	n/a	n/a	n/a	n/a	n/a	n/a	n/a
179.5253	0.5167	FIXCROSS	n/a	n/a	n/a	n/a	n/a	n/a	n/a	n/a
180.042	0.5333	INK	59	Neutral	xxxxx	xxxxx	zielony	green	hit	n/a
180.554	n/a	RESPONSE	n/a	n/a	n/a	n/a	n/a	n/a	n/a	green
180.5753	1.0167	ITI	n/a	n/a	n/a	n/a	n/a	n/a	n/a	n/a
181.592	0.5167	FIXCROSS	n/a	n/a	n/a	n/a	n/a	n/a	n/a	n/a
182.1086	0.4667	INK	60	Incongruent	niebieski	blue	żółty	yellow	hit	n/a
182.5535	n/a	RESPONSE	n/a	n/a	n/a	n/a	n/a	n/a	n/a	yellow
182.5753	1.0167	ITI	n/a	n/a	n/a	n/a	n/a	n/a	n/a	n/a
183.592	0.5167	FIXCROSS	n/a	n/a	n/a	n/a	n/a	n/a	n/a	n/a
184.1087	1.1	INK	61	Neutral	xxxxxxxx	xxxxxxxx	niebieski	blue	hit	n/a
185.177	n/a	RESPONSE	n/a	n/a	n/a	n/a	n/a	n/a	n/a	blue
185.2087	1.0167	ITI	n/a	n/a	n/a	n/a	n/a	n/a	n/a	n/a
186.2253	0.5167	FIXCROSS	n/a	n/a	n/a	n/a	n/a	n/a	n/a	n/a
186.742	0.6167	INK	62	Incongruent	niebieski	blue	czerwony	red	hit	n/a
187.3365	n/a	RESPONSE	n/a	n/a	n/a	n/a	n/a	n/a	n/a	red
187.3587	1.0167	ITI	n/a	n/a	n/a	n/a	n/a	n/a	n/a	n/a
188.3754	0.5167	FIXCROSS	n/a	n/a	n/a	n/a	n/a	n/a	n/a	n/a
188.892	0.6	INK	63	Incongruent	zielony	green	niebieski	blue	hit	n/a
189.4641	n/a	RESPONSE	n/a	n/a	n/a	n/a	n/a	n/a	n/a	blue
189.492	1.0166	ITI	n/a	n/a	n/a	n/a	n/a	n/a	n/a	n/a
190.5087	0.5167	FIXCROSS	n/a	n/a	n/a	n/a	n/a	n/a	n/a	n/a
191.0254	0.55	INK	64	Neutral	xxxxxxxxx	xxxxxxxxx	czerwony	red	hit	n/a
191.5437	n/a	RESPONSE	n/a	n/a	n/a	n/a	n/a	n/a	n/a	red
191.5754	1.0167	ITI	n/a	n/a	n/a	n/a	n/a	n/a	n/a	n/a
192.5921	0.5167	FIXCROSS	n/a	n/a	n/a	n/a	n/a	n/a	n/a	n/a
193.1087	0.55	INK	65	Incongruent	żółty	yellow	czerwony	red	hit	n/a
193.6392	n/a	RESPONSE	n/a	n/a	n/a	n/a	n/a	n/a	n/a	red
193.6587	1.0167	ITI	n/a	n/a	n/a	n/a	n/a	n/a	n/a	n/a
194.6754	0.5167	FIXCROSS	n/a	n/a	n/a	n/a	n/a	n/a	n/a	n/a
195.1921	0.7333	INK	66	Incongruent	żółty	yellow	niebieski	blue	hit	n/a
195.8947	n/a	RESPONSE	n/a	n/a	n/a	n/a	n/a	n/a	n/a	blue
195.9254	1.0167	ITI	n/a	n/a	n/a	n/a	n/a	n/a	n/a	n/a
196.9421	0.5167	FIXCROSS	n/a	n/a	n/a	n/a	n/a	n/a	n/a	n/a
197.4588	0.6	INK	67	Neutral	xxxxxxx	xxxxxxx	czerwony	red	hit	n/a
198.0383	n/a	RESPONSE	n/a	n/a	n/a	n/a	n/a	n/a	n/a	red
198.0588	1.0167	ITI	n/a	n/a	n/a	n/a	n/a	n/a	n/a	n/a
199.0754	0.5167	FIXCROSS	n/a	n/a	n/a	n/a	n/a	n/a	n/a	n/a
199.5921	0.55	INK	68	Neutral	xxxxxxx	xxxxxxx	żółty	yellow	hit	n/a
200.1178	n/a	RESPONSE	n/a	n/a	n/a	n/a	n/a	n/a	n/a	yellow
200.1421	1.0167	ITI	n/a	n/a	n/a	n/a	n/a	n/a	n/a	n/a
201.1588	0.5167	FIXCROSS	n/a	n/a	n/a	n/a	n/a	n/a	n/a	n/a
201.6755	0.6	INK	69	Incongruent	żółty	yellow	czerwony	red	hit	n/a
202.2454	n/a	RESPONSE	n/a	n/a	n/a	n/a	n/a	n/a	n/a	red
202.2755	1.0167	ITI	n/a	n/a	n/a	n/a	n/a	n/a	n/a	n/a
203.2921	0.5167	FIXCROSS	n/a	n/a	n/a	n/a	n/a	n/a	n/a	n/a
203.8088	0.6333	INK	70	Neutral	xxxxxxxx	xxxxxxxx	niebieski	blue	hit	n/a
204.4209	n/a	RESPONSE	n/a	n/a	n/a	n/a	n/a	n/a	n/a	blue
204.4421	1.0167	ITI	n/a	n/a	n/a	n/a	n/a	n/a	n/a	n/a
205.4588	0.5167	FIXCROSS	n/a	n/a	n/a	n/a	n/a	n/a	n/a	n/a
205.9755	0.6	INK	71	Neutral	xxxxx	xxxxx	niebieski	blue	hit	n/a
206.5485	n/a	RESPONSE	n/a	n/a	n/a	n/a	n/a	n/a	n/a	blue
206.5755	1.0167	ITI	n/a	n/a	n/a	n/a	n/a	n/a	n/a	n/a
207.5922	0.5167	FIXCROSS	n/a	n/a	n/a	n/a	n/a	n/a	n/a	n/a
208.1088	0.4333	INK	72	Neutral	xxxxxxx	xxxxxxx	niebieski	blue	hit	n/a
208.5161	n/a	RESPONSE	n/a	n/a	n/a	n/a	n/a	n/a	n/a	blue
208.5422	1.0833	ITI	n/a	n/a	n/a	n/a	n/a	n/a	n/a	n/a
222.993	n/a	RESPONSE	n/a	n/a	n/a	n/a	n/a	n/a	n/a	n/a
223.0589	1.0167	ITI	n/a	n/a	n/a	n/a	n/a	n/a	n/a	n/a
224.0756	0.5167	FIXCROSS	n/a	n/a	n/a	n/a	n/a	n/a	n/a	n/a
224.5923	0.85	T_COLOR_NAME	1	Incongruent	zielony	green	żółty	yellow	hit	n/a
225.4085	n/a	RESPONSE	n/a	n/a	n/a	n/a	n/a	n/a	n/a	green
225.4423	0.5167	FEEDBACK	n/a	n/a	n/a	n/a	n/a	n/a	n/a	n/a
225.959	1.0167	ITI	n/a	n/a	n/a	n/a	n/a	n/a	n/a	n/a
226.9756	0.5167	FIXCROSS	n/a	n/a	n/a	n/a	n/a	n/a	n/a	n/a
227.4923	1.0334	T_COLOR_NAME	2	Neutral	zielony	green	Neutral	Neutral	hit	n/a
228.4959	n/a	RESPONSE	n/a	n/a	n/a	n/a	n/a	n/a	n/a	green
228.5256	0.5167	FEEDBACK	n/a	n/a	n/a	n/a	n/a	n/a	n/a	n/a
229.0423	1.0167	ITI	n/a	n/a	n/a	n/a	n/a	n/a	n/a	n/a
230.059	0.5167	FIXCROSS	n/a	n/a	n/a	n/a	n/a	n/a	n/a	n/a
230.5757	0.7	T_COLOR_NAME	3	Incongruent	czerwony	red	zielony	green	hit	n/a
231.2473	n/a	RESPONSE	n/a	n/a	n/a	n/a	n/a	n/a	n/a	red
231.2757	0.5167	FEEDBACK	n/a	n/a	n/a	n/a	n/a	n/a	n/a	n/a
231.7923	1.0167	ITI	n/a	n/a	n/a	n/a	n/a	n/a	n/a	n/a
232.809	0.5167	FIXCROSS	n/a	n/a	n/a	n/a	n/a	n/a	n/a	n/a
233.3257	0.8833	T_COLOR_NAME	4	Neutral	żółty	yellow	Neutral	Neutral	hit	n/a
234.1747	n/a	RESPONSE	n/a	n/a	n/a	n/a	n/a	n/a	n/a	yellow
234.209	0.5167	FEEDBACK	n/a	n/a	n/a	n/a	n/a	n/a	n/a	n/a
234.7257	1.0167	ITI	n/a	n/a	n/a	n/a	n/a	n/a	n/a	n/a
235.7424	0.5167	FIXCROSS	n/a	n/a	n/a	n/a	n/a	n/a	n/a	n/a
236.259	0.75	T_COLOR_NAME	5	Neutral	niebieski	blue	Neutral	Neutral	hit	n/a
236.9741	n/a	RESPONSE	n/a	n/a	n/a	n/a	n/a	n/a	n/a	blue
237.009	0.5167	FEEDBACK	n/a	n/a	n/a	n/a	n/a	n/a	n/a	n/a
237.5257	1.0167	ITI	n/a	n/a	n/a	n/a	n/a	n/a	n/a	n/a
238.5424	0.5167	FIXCROSS	n/a	n/a	n/a	n/a	n/a	n/a	n/a	n/a
239.0591	1.0	T_COLOR_NAME	6	Incongruent	czerwony	red	żółty	yellow	hit	n/a
240.0295	n/a	RESPONSE	n/a	n/a	n/a	n/a	n/a	n/a	n/a	red
240.0591	0.5167	FEEDBACK	n/a	n/a	n/a	n/a	n/a	n/a	n/a	n/a
240.5757	1.0167	ITI	n/a	n/a	n/a	n/a	n/a	n/a	n/a	n/a
241.5924	0.5167	FIXCROSS	n/a	n/a	n/a	n/a	n/a	n/a	n/a	n/a
242.1091	1.6667	T_COLOR_NAME	7	Incongruent	niebieski	blue	czerwony	red	hit	n/a
243.7567	n/a	RESPONSE	n/a	n/a	n/a	n/a	n/a	n/a	n/a	blue
243.7757	0.5167	FEEDBACK	n/a	n/a	n/a	n/a	n/a	n/a	n/a	n/a
244.2924	1.0167	ITI	n/a	n/a	n/a	n/a	n/a	n/a	n/a	n/a
245.3091	0.5167	FIXCROSS	n/a	n/a	n/a	n/a	n/a	n/a	n/a	n/a
245.8258	0.8167	T_COLOR_NAME	8	Neutral	czerwony	red	Neutral	Neutral	hit	n/a
246.6201	n/a	RESPONSE	n/a	n/a	n/a	n/a	n/a	n/a	n/a	red
246.6424	0.5167	FEEDBACK	n/a	n/a	n/a	n/a	n/a	n/a	n/a	n/a
247.1591	1.0167	ITI	n/a	n/a	n/a	n/a	n/a	n/a	n/a	n/a
248.1758	0.5167	FIXCROSS	n/a	n/a	n/a	n/a	n/a	n/a	n/a	n/a
248.6924	0.7833	T_COLOR_NAME	9	Neutral	czerwony	red	Neutral	Neutral	hit	n/a
249.4515	n/a	RESPONSE	n/a	n/a	n/a	n/a	n/a	n/a	n/a	red
249.4758	0.5167	FEEDBACK	n/a	n/a	n/a	n/a	n/a	n/a	n/a	n/a
249.9925	1.0167	ITI	n/a	n/a	n/a	n/a	n/a	n/a	n/a	n/a
251.0091	0.5167	FIXCROSS	n/a	n/a	n/a	n/a	n/a	n/a	n/a	n/a
251.5258	1.4	T_COLOR_NAME	10	Incongruent	zielony	green	niebieski	blue	hit	n/a
252.8908	n/a	RESPONSE	n/a	n/a	n/a	n/a	n/a	n/a	n/a	green
252.9258	0.5167	FEEDBACK	n/a	n/a	n/a	n/a	n/a	n/a	n/a	n/a
253.4425	1.0167	ITI	n/a	n/a	n/a	n/a	n/a	n/a	n/a	n/a
254.4592	0.5167	FIXCROSS	n/a	n/a	n/a	n/a	n/a	n/a	n/a	n/a
254.9758	0.8167	T_COLOR_NAME	11	Neutral	żółty	yellow	Neutral	Neutral	hit	n/a
255.7702	n/a	RESPONSE	n/a	n/a	n/a	n/a	n/a	n/a	n/a	yellow
255.7925	0.5167	FEEDBACK	n/a	n/a	n/a	n/a	n/a	n/a	n/a	n/a
256.3092	1.0167	ITI	n/a	n/a	n/a	n/a	n/a	n/a	n/a	n/a
257.3258	0.5167	FIXCROSS	n/a	n/a	n/a	n/a	n/a	n/a	n/a	n/a
257.8425	0.75	T_COLOR_NAME	12	Incongruent	czerwony	red	niebieski	blue	hit	n/a
258.5696	n/a	RESPONSE	n/a	n/a	n/a	n/a	n/a	n/a	n/a	red
258.5925	0.5167	FEEDBACK	n/a	n/a	n/a	n/a	n/a	n/a	n/a	n/a
259.1092	1.0333	ITI	n/a	n/a	n/a	n/a	n/a	n/a	n/a	n/a
261.4809	n/a	RESPONSE	n/a	n/a	n/a	n/a	n/a	n/a	n/a	n/a
261.5425	1.0167	ITI	n/a	n/a	n/a	n/a	n/a	n/a	n/a	n/a
262.5592	0.5167	FIXCROSS	n/a	n/a	n/a	n/a	n/a	n/a	n/a	n/a
263.0759	0.9333	COLOR_NAME	1	Neutral	zielony	green	Neutral	Neutral	hit	n/a
263.9764	n/a	RESPONSE	n/a	n/a	n/a	n/a	n/a	n/a	n/a	green
264.0092	1.0167	ITI	n/a	n/a	n/a	n/a	n/a	n/a	n/a	n/a
265.0259	0.5167	FIXCROSS	n/a	n/a	n/a	n/a	n/a	n/a	n/a	n/a
265.5426	0.65	COLOR_NAME	2	Neutral	czerwony	red	Neutral	Neutral	hit	n/a
266.168	n/a	RESPONSE	n/a	n/a	n/a	n/a	n/a	n/a	n/a	red
266.1926	1.0167	ITI	n/a	n/a	n/a	n/a	n/a	n/a	n/a	n/a
267.2092	0.5167	FIXCROSS	n/a	n/a	n/a	n/a	n/a	n/a	n/a	n/a
267.7259	0.95	COLOR_NAME	3	Incongruent	zielony	green	żółty	yellow	hit	n/a
268.6474	n/a	RESPONSE	n/a	n/a	n/a	n/a	n/a	n/a	n/a	green
268.6759	1.0167	ITI	n/a	n/a	n/a	n/a	n/a	n/a	n/a	n/a
269.6926	0.5167	FIXCROSS	n/a	n/a	n/a	n/a	n/a	n/a	n/a	n/a
270.2093	0.6667	COLOR_NAME	4	Neutral	żółty	yellow	Neutral	Neutral	hit	n/a
270.855	n/a	RESPONSE	n/a	n/a	n/a	n/a	n/a	n/a	n/a	yellow
270.8759	1.0167	ITI	n/a	n/a	n/a	n/a	n/a	n/a	n/a	n/a
271.8926	0.5167	FIXCROSS	n/a	n/a	n/a	n/a	n/a	n/a	n/a	n/a
272.4093	0.8833	COLOR_NAME	5	Incongruent	niebieski	blue	zielony	green	hit	n/a
273.2705	n/a	RESPONSE	n/a	n/a	n/a	n/a	n/a	n/a	n/a	blue
273.2926	1.0167	ITI	n/a	n/a	n/a	n/a	n/a	n/a	n/a	n/a
274.3093	0.5167	FIXCROSS	n/a	n/a	n/a	n/a	n/a	n/a	n/a	n/a
274.826	0.65	COLOR_NAME	6	Incongruent	czerwony	red	zielony	green	hit	n/a
275.446	n/a	RESPONSE	n/a	n/a	n/a	n/a	n/a	n/a	n/a	red
275.476	1.0167	ITI	n/a	n/a	n/a	n/a	n/a	n/a	n/a	n/a
276.4926	0.5167	FIXCROSS	n/a	n/a	n/a	n/a	n/a	n/a	n/a	n/a
277.0093	0.6	COLOR_NAME	7	Neutral	żółty	yellow	Neutral	Neutral	hit	n/a
277.5896	n/a	RESPONSE	n/a	n/a	n/a	n/a	n/a	n/a	n/a	yellow
277.6093	1.0167	ITI	n/a	n/a	n/a	n/a	n/a	n/a	n/a	n/a
278.626	0.5167	FIXCROSS	n/a	n/a	n/a	n/a	n/a	n/a	n/a	n/a
279.1427	0.8	COLOR_NAME	8	Neutral	zielony	green	Neutral	Neutral	hit	n/a
279.9091	n/a	RESPONSE	n/a	n/a	n/a	n/a	n/a	n/a	n/a	green
279.9427	1.0167	ITI	n/a	n/a	n/a	n/a	n/a	n/a	n/a	n/a
280.9593	0.5167	FIXCROSS	n/a	n/a	n/a	n/a	n/a	n/a	n/a	n/a
281.476	1.15	COLOR_NAME	9	Incongruent	niebieski	blue	zielony	green	hit	n/a
282.5965	n/a	RESPONSE	n/a	n/a	n/a	n/a	n/a	n/a	n/a	blue
282.626	1.0167	ITI	n/a	n/a	n/a	n/a	n/a	n/a	n/a	n/a
283.6427	0.5167	FIXCROSS	n/a	n/a	n/a	n/a	n/a	n/a	n/a	n/a
284.1594	0.5833	COLOR_NAME	10	Incongruent	żółty	yellow	niebieski	blue	hit	n/a
284.7241	n/a	RESPONSE	n/a	n/a	n/a	n/a	n/a	n/a	n/a	yellow
284.7427	1.0167	ITI	n/a	n/a	n/a	n/a	n/a	n/a	n/a	n/a
285.7594	0.5167	FIXCROSS	n/a	n/a	n/a	n/a	n/a	n/a	n/a	n/a
286.276	0.9333	COLOR_NAME	11	Incongruent	czerwony	red	niebieski	blue	hit	n/a
287.1876	n/a	RESPONSE	n/a	n/a	n/a	n/a	n/a	n/a	n/a	red
287.2094	1.0167	ITI	n/a	n/a	n/a	n/a	n/a	n/a	n/a	n/a
288.2261	0.5167	FIXCROSS	n/a	n/a	n/a	n/a	n/a	n/a	n/a	n/a
288.7427	0.5667	COLOR_NAME	12	Neutral	czerwony	red	Neutral	Neutral	hit	n/a
289.2831	n/a	RESPONSE	n/a	n/a	n/a	n/a	n/a	n/a	n/a	red
289.3094	1.0167	ITI	n/a	n/a	n/a	n/a	n/a	n/a	n/a	n/a
290.3261	0.5167	FIXCROSS	n/a	n/a	n/a	n/a	n/a	n/a	n/a	n/a
290.8427	0.7833	COLOR_NAME	13	Incongruent	niebieski	blue	żółty	yellow	hit	n/a
291.6026	n/a	RESPONSE	n/a	n/a	n/a	n/a	n/a	n/a	n/a	blue
291.6261	1.0167	ITI	n/a	n/a	n/a	n/a	n/a	n/a	n/a	n/a
292.6428	0.5167	FIXCROSS	n/a	n/a	n/a	n/a	n/a	n/a	n/a	n/a
293.1594	0.7	COLOR_NAME	14	Incongruent	czerwony	red	żółty	yellow	hit	n/a
293.8261	n/a	RESPONSE	n/a	n/a	n/a	n/a	n/a	n/a	n/a	red
293.8594	1.0167	ITI	n/a	n/a	n/a	n/a	n/a	n/a	n/a	n/a
294.8761	0.5167	FIXCROSS	n/a	n/a	n/a	n/a	n/a	n/a	n/a	n/a
295.3928	0.6667	COLOR_NAME	15	Incongruent	czerwony	red	żółty	yellow	hit	n/a
296.0337	n/a	RESPONSE	n/a	n/a	n/a	n/a	n/a	n/a	n/a	red
296.0594	1.0167	ITI	n/a	n/a	n/a	n/a	n/a	n/a	n/a	n/a
297.0761	0.5167	FIXCROSS	n/a	n/a	n/a	n/a	n/a	n/a	n/a	n/a
297.5928	0.5833	COLOR_NAME	16	Neutral	czerwony	red	Neutral	Neutral	hit	n/a
298.1452	n/a	RESPONSE	n/a	n/a	n/a	n/a	n/a	n/a	n/a	red
298.1761	1.0167	ITI	n/a	n/a	n/a	n/a	n/a	n/a	n/a	n/a
299.1928	0.5167	FIXCROSS	n/a	n/a	n/a	n/a	n/a	n/a	n/a	n/a
299.7095	0.5333	COLOR_NAME	17	Incongruent	czerwony	red	zielony	green	hit	n/a
300.2248	n/a	RESPONSE	n/a	n/a	n/a	n/a	n/a	n/a	n/a	red
300.2428	1.0167	ITI	n/a	n/a	n/a	n/a	n/a	n/a	n/a	n/a
301.2595	0.5167	FIXCROSS	n/a	n/a	n/a	n/a	n/a	n/a	n/a	n/a
301.7762	0.85	COLOR_NAME	18	Neutral	niebieski	blue	Neutral	Neutral	hit	n/a
302.5923	n/a	RESPONSE	n/a	n/a	n/a	n/a	n/a	n/a	n/a	blue
302.6262	1.0167	ITI	n/a	n/a	n/a	n/a	n/a	n/a	n/a	n/a
303.6428	0.5167	FIXCROSS	n/a	n/a	n/a	n/a	n/a	n/a	n/a	n/a
304.1595	0.65	COLOR_NAME	19	Neutral	niebieski	blue	Neutral	Neutral	hit	n/a
304.7838	n/a	RESPONSE	n/a	n/a	n/a	n/a	n/a	n/a	n/a	blue
304.8095	1.0167	ITI	n/a	n/a	n/a	n/a	n/a	n/a	n/a	n/a
305.8262	0.5167	FIXCROSS	n/a	n/a	n/a	n/a	n/a	n/a	n/a	n/a
306.3428	0.65	COLOR_NAME	20	Incongruent	niebieski	blue	żółty	yellow	hit	n/a
306.9754	n/a	RESPONSE	n/a	n/a	n/a	n/a	n/a	n/a	n/a	blue
306.9929	1.0167	ITI	n/a	n/a	n/a	n/a	n/a	n/a	n/a	n/a
308.0095	0.5167	FIXCROSS	n/a	n/a	n/a	n/a	n/a	n/a	n/a	n/a
308.5262	0.9	COLOR_NAME	21	Neutral	zielony	green	Neutral	Neutral	hit	n/a
309.4069	n/a	RESPONSE	n/a	n/a	n/a	n/a	n/a	n/a	n/a	green
309.4262	1.0167	ITI	n/a	n/a	n/a	n/a	n/a	n/a	n/a	n/a
310.4429	0.5167	FIXCROSS	n/a	n/a	n/a	n/a	n/a	n/a	n/a	n/a
310.9596	0.7	COLOR_NAME	22	Neutral	żółty	yellow	Neutral	Neutral	hit	n/a
311.6304	n/a	RESPONSE	n/a	n/a	n/a	n/a	n/a	n/a	n/a	yellow
311.6596	1.0167	ITI	n/a	n/a	n/a	n/a	n/a	n/a	n/a	n/a
312.6762	0.5167	FIXCROSS	n/a	n/a	n/a	n/a	n/a	n/a	n/a	n/a
313.1929	0.6667	COLOR_NAME	23	Neutral	zielony	green	Neutral	Neutral	hit	n/a
313.8379	n/a	RESPONSE	n/a	n/a	n/a	n/a	n/a	n/a	n/a	green
313.8596	1.0167	ITI	n/a	n/a	n/a	n/a	n/a	n/a	n/a	n/a
314.8762	0.5167	FIXCROSS	n/a	n/a	n/a	n/a	n/a	n/a	n/a	n/a
315.3929	0.5667	COLOR_NAME	24	Neutral	zielony	green	Neutral	Neutral	hit	n/a
315.9335	n/a	RESPONSE	n/a	n/a	n/a	n/a	n/a	n/a	n/a	green
315.9596	1.0167	ITI	n/a	n/a	n/a	n/a	n/a	n/a	n/a	n/a
316.9763	0.5167	FIXCROSS	n/a	n/a	n/a	n/a	n/a	n/a	n/a	n/a
317.4929	0.5333	COLOR_NAME	25	Incongruent	żółty	yellow	zielony	green	hit	n/a
317.9971	n/a	RESPONSE	n/a	n/a	n/a	n/a	n/a	n/a	n/a	yellow
318.0263	1.0167	ITI	n/a	n/a	n/a	n/a	n/a	n/a	n/a	n/a
319.0429	0.5167	FIXCROSS	n/a	n/a	n/a	n/a	n/a	n/a	n/a	n/a
319.5596	0.8	COLOR_NAME	26	Incongruent	czerwony	red	niebieski	blue	hit	n/a
320.3326	n/a	RESPONSE	n/a	n/a	n/a	n/a	n/a	n/a	n/a	red
320.3596	1.0167	ITI	n/a	n/a	n/a	n/a	n/a	n/a	n/a	n/a
321.3763	0.5167	FIXCROSS	n/a	n/a	n/a	n/a	n/a	n/a	n/a	n/a
321.893	0.8333	COLOR_NAME	27	Incongruent	zielony	green	niebieski	blue	hit	n/a
322.7001	n/a	RESPONSE	n/a	n/a	n/a	n/a	n/a	n/a	n/a	green
322.7263	1.0167	ITI	n/a	n/a	n/a	n/a	n/a	n/a	n/a	n/a
323.743	0.5167	FIXCROSS	n/a	n/a	n/a	n/a	n/a	n/a	n/a	n/a
324.2596	0.7833	COLOR_NAME	28	Neutral	żółty	yellow	Neutral	Neutral	hit	n/a
325.0195	n/a	RESPONSE	n/a	n/a	n/a	n/a	n/a	n/a	n/a	yellow
325.043	1.0167	ITI	n/a	n/a	n/a	n/a	n/a	n/a	n/a	n/a
326.0597	0.5167	FIXCROSS	n/a	n/a	n/a	n/a	n/a	n/a	n/a	n/a
326.5763	0.7	COLOR_NAME	29	Incongruent	żółty	yellow	zielony	green	hit	n/a
327.2431	n/a	RESPONSE	n/a	n/a	n/a	n/a	n/a	n/a	n/a	yellow
327.2763	1.0167	ITI	n/a	n/a	n/a	n/a	n/a	n/a	n/a	n/a
328.293	0.5167	FIXCROSS	n/a	n/a	n/a	n/a	n/a	n/a	n/a	n/a
328.8097	0.8833	COLOR_NAME	30	Neutral	niebieski	blue	Neutral	Neutral	hit	n/a
329.6746	n/a	RESPONSE	n/a	n/a	n/a	n/a	n/a	n/a	n/a	blue
329.693	1.0167	ITI	n/a	n/a	n/a	n/a	n/a	n/a	n/a	n/a
330.7097	0.5167	FIXCROSS	n/a	n/a	n/a	n/a	n/a	n/a	n/a	n/a
331.2264	0.8667	COLOR_NAME	31	Incongruent	zielony	green	żółty	yellow	hit	n/a
332.0741	n/a	RESPONSE	n/a	n/a	n/a	n/a	n/a	n/a	n/a	green
332.093	1.0167	ITI	n/a	n/a	n/a	n/a	n/a	n/a	n/a	n/a
333.1097	0.5167	FIXCROSS	n/a	n/a	n/a	n/a	n/a	n/a	n/a	n/a
333.6264	0.7	COLOR_NAME	32	Incongruent	żółty	yellow	czerwony	red	hit	n/a
334.2977	n/a	RESPONSE	n/a	n/a	n/a	n/a	n/a	n/a	n/a	yellow
334.3264	1.0167	ITI	n/a	n/a	n/a	n/a	n/a	n/a	n/a	n/a
335.343	0.5167	FIXCROSS	n/a	n/a	n/a	n/a	n/a	n/a	n/a	n/a
335.8597	0.9667	COLOR_NAME	33	Incongruent	niebieski	blue	żółty	yellow	hit	n/a
336.7931	n/a	RESPONSE	n/a	n/a	n/a	n/a	n/a	n/a	n/a	blue
336.8264	1.0167	ITI	n/a	n/a	n/a	n/a	n/a	n/a	n/a	n/a
337.8431	0.5167	FIXCROSS	n/a	n/a	n/a	n/a	n/a	n/a	n/a	n/a
338.3597	1.15	COLOR_NAME	34	Incongruent	niebieski	blue	czerwony	red	hit	n/a
339.4805	n/a	RESPONSE	n/a	n/a	n/a	n/a	n/a	n/a	n/a	blue
339.5097	1.0167	ITI	n/a	n/a	n/a	n/a	n/a	n/a	n/a	n/a
340.5264	0.5167	FIXCROSS	n/a	n/a	n/a	n/a	n/a	n/a	n/a	n/a
341.0431	0.6833	COLOR_NAME	35	Incongruent	zielony	green	niebieski	blue	hit	n/a
341.7041	n/a	RESPONSE	n/a	n/a	n/a	n/a	n/a	n/a	n/a	green
341.7264	1.0167	ITI	n/a	n/a	n/a	n/a	n/a	n/a	n/a	n/a
342.7431	0.5167	FIXCROSS	n/a	n/a	n/a	n/a	n/a	n/a	n/a	n/a
343.2598	0.6333	COLOR_NAME	36	Incongruent	czerwony	red	żółty	yellow	hit	n/a
343.8636	n/a	RESPONSE	n/a	n/a	n/a	n/a	n/a	n/a	n/a	red
343.8931	1.0167	ITI	n/a	n/a	n/a	n/a	n/a	n/a	n/a	n/a
344.9098	0.5167	FIXCROSS	n/a	n/a	n/a	n/a	n/a	n/a	n/a	n/a
345.4265	0.6833	COLOR_NAME	37	Neutral	zielony	green	Neutral	Neutral	hit	n/a
346.0872	n/a	RESPONSE	n/a	n/a	n/a	n/a	n/a	n/a	n/a	green
346.1098	1.0167	ITI	n/a	n/a	n/a	n/a	n/a	n/a	n/a	n/a
347.1265	0.5167	FIXCROSS	n/a	n/a	n/a	n/a	n/a	n/a	n/a	n/a
347.6431	0.6	COLOR_NAME	38	Neutral	czerwony	red	Neutral	Neutral	hit	n/a
348.2147	n/a	RESPONSE	n/a	n/a	n/a	n/a	n/a	n/a	n/a	red
348.2431	1.0167	ITI	n/a	n/a	n/a	n/a	n/a	n/a	n/a	n/a
349.2598	0.5167	FIXCROSS	n/a	n/a	n/a	n/a	n/a	n/a	n/a	n/a
349.7765	0.6333	COLOR_NAME	39	Neutral	zielony	green	Neutral	Neutral	hit	n/a
350.3902	n/a	RESPONSE	n/a	n/a	n/a	n/a	n/a	n/a	n/a	green
350.4098	1.0167	ITI	n/a	n/a	n/a	n/a	n/a	n/a	n/a	n/a
351.4265	0.5167	FIXCROSS	n/a	n/a	n/a	n/a	n/a	n/a	n/a	n/a
351.9432	0.6833	COLOR_NAME	40	Neutral	niebieski	blue	Neutral	Neutral	hit	n/a
352.5978	n/a	RESPONSE	n/a	n/a	n/a	n/a	n/a	n/a	n/a	blue
352.6265	1.0167	ITI	n/a	n/a	n/a	n/a	n/a	n/a	n/a	n/a
353.6432	0.5167	FIXCROSS	n/a	n/a	n/a	n/a	n/a	n/a	n/a	n/a
354.1598	0.5833	COLOR_NAME	41	Incongruent	czerwony	red	niebieski	blue	hit	n/a
354.7253	n/a	RESPONSE	n/a	n/a	n/a	n/a	n/a	n/a	n/a	red
354.7432	1.0167	ITI	n/a	n/a	n/a	n/a	n/a	n/a	n/a	n/a
355.7599	0.5167	FIXCROSS	n/a	n/a	n/a	n/a	n/a	n/a	n/a	n/a
356.2765	0.6	COLOR_NAME	42	Neutral	czerwony	red	Neutral	Neutral	hit	n/a
356.8529	n/a	RESPONSE	n/a	n/a	n/a	n/a	n/a	n/a	n/a	red
356.8765	1.0167	ITI	n/a	n/a	n/a	n/a	n/a	n/a	n/a	n/a
357.8932	0.5167	FIXCROSS	n/a	n/a	n/a	n/a	n/a	n/a	n/a	n/a
358.4099	0.8333	COLOR_NAME	43	Incongruent	niebieski	blue	czerwony	red	hit	n/a
359.2204	n/a	RESPONSE	n/a	n/a	n/a	n/a	n/a	n/a	n/a	blue
359.2432	1.0167	ITI	n/a	n/a	n/a	n/a	n/a	n/a	n/a	n/a
360.2599	0.5167	FIXCROSS	n/a	n/a	n/a	n/a	n/a	n/a	n/a	n/a
360.7766	0.5833	COLOR_NAME	44	Neutral	zielony	green	Neutral	Neutral	hit	n/a
361.332	n/a	RESPONSE	n/a	n/a	n/a	n/a	n/a	n/a	n/a	green
361.3599	1.0167	ITI	n/a	n/a	n/a	n/a	n/a	n/a	n/a	n/a
362.3766	0.5167	FIXCROSS	n/a	n/a	n/a	n/a	n/a	n/a	n/a	n/a
362.8932	0.8667	COLOR_NAME	45	Incongruent	zielony	green	czerwony	red	hit	n/a
363.7314	n/a	RESPONSE	n/a	n/a	n/a	n/a	n/a	n/a	n/a	green
363.7599	1.0167	ITI	n/a	n/a	n/a	n/a	n/a	n/a	n/a	n/a
364.7766	0.5167	FIXCROSS	n/a	n/a	n/a	n/a	n/a	n/a	n/a	n/a
365.2933	0.5833	COLOR_NAME	46	Neutral	żółty	yellow	Neutral	Neutral	hit	n/a
365.843	n/a	RESPONSE	n/a	n/a	n/a	n/a	n/a	n/a	n/a	yellow
365.8766	1.0167	ITI	n/a	n/a	n/a	n/a	n/a	n/a	n/a	n/a
366.8933	0.5167	FIXCROSS	n/a	n/a	n/a	n/a	n/a	n/a	n/a	n/a
367.4099	0.5833	COLOR_NAME	47	Incongruent	żółty	yellow	niebieski	blue	hit	n/a
367.9706	n/a	RESPONSE	n/a	n/a	n/a	n/a	n/a	n/a	n/a	yellow
367.9933	1.0167	ITI	n/a	n/a	n/a	n/a	n/a	n/a	n/a	n/a
369.0099	0.5167	FIXCROSS	n/a	n/a	n/a	n/a	n/a	n/a	n/a	n/a
369.5266	0.8167	COLOR_NAME	48	Incongruent	zielony	green	żółty	yellow	hit	n/a
370.3221	n/a	RESPONSE	n/a	n/a	n/a	n/a	n/a	n/a	n/a	green
370.3433	1.0167	ITI	n/a	n/a	n/a	n/a	n/a	n/a	n/a	n/a
371.36	0.5167	FIXCROSS	n/a	n/a	n/a	n/a	n/a	n/a	n/a	n/a
371.8766	0.5833	COLOR_NAME	49	Neutral	czerwony	red	Neutral	Neutral	hit	n/a
372.4336	n/a	RESPONSE	n/a	n/a	n/a	n/a	n/a	n/a	n/a	red
372.46	1.0167	ITI	n/a	n/a	n/a	n/a	n/a	n/a	n/a	n/a
373.4766	0.5167	FIXCROSS	n/a	n/a	n/a	n/a	n/a	n/a	n/a	n/a
373.9933	0.6167	COLOR_NAME	50	Incongruent	żółty	yellow	zielony	green	hit	n/a
374.5772	n/a	RESPONSE	n/a	n/a	n/a	n/a	n/a	n/a	n/a	yellow
374.61	1.0167	ITI	n/a	n/a	n/a	n/a	n/a	n/a	n/a	n/a
375.6267	0.5167	FIXCROSS	n/a	n/a	n/a	n/a	n/a	n/a	n/a	n/a
376.1433	0.7833	COLOR_NAME	51	Neutral	niebieski	blue	Neutral	Neutral	hit	n/a
376.8967	n/a	RESPONSE	n/a	n/a	n/a	n/a	n/a	n/a	n/a	blue
376.9267	1.0167	ITI	n/a	n/a	n/a	n/a	n/a	n/a	n/a	n/a
377.9433	0.5167	FIXCROSS	n/a	n/a	n/a	n/a	n/a	n/a	n/a	n/a
378.46	0.6167	COLOR_NAME	52	Neutral	żółty	yellow	Neutral	Neutral	hit	n/a
379.0562	n/a	RESPONSE	n/a	n/a	n/a	n/a	n/a	n/a	n/a	yellow
379.0767	1.0167	ITI	n/a	n/a	n/a	n/a	n/a	n/a	n/a	n/a
380.0934	0.5167	FIXCROSS	n/a	n/a	n/a	n/a	n/a	n/a	n/a	n/a
380.61	0.5833	COLOR_NAME	53	Neutral	czerwony	red	Neutral	Neutral	hit	n/a
381.1678	n/a	RESPONSE	n/a	n/a	n/a	n/a	n/a	n/a	n/a	red
381.1934	1.0167	ITI	n/a	n/a	n/a	n/a	n/a	n/a	n/a	n/a
382.21	0.5167	FIXCROSS	n/a	n/a	n/a	n/a	n/a	n/a	n/a	n/a
382.7267	0.95	COLOR_NAME	54	Neutral	niebieski	blue	Neutral	Neutral	hit	n/a
383.6472	n/a	RESPONSE	n/a	n/a	n/a	n/a	n/a	n/a	n/a	blue
383.6767	1.0167	ITI	n/a	n/a	n/a	n/a	n/a	n/a	n/a	n/a
384.6934	0.5167	FIXCROSS	n/a	n/a	n/a	n/a	n/a	n/a	n/a	n/a
385.2101	1.7167	COLOR_NAME	55	Incongruent	zielony	green	czerwony	red	hit	n/a
386.8945	n/a	RESPONSE	n/a	n/a	n/a	n/a	n/a	n/a	n/a	green
386.9267	1.0167	ITI	n/a	n/a	n/a	n/a	n/a	n/a	n/a	n/a
387.9434	0.5167	FIXCROSS	n/a	n/a	n/a	n/a	n/a	n/a	n/a	n/a
388.4601	0.6167	COLOR_NAME	56	Neutral	zielony	green	Neutral	Neutral	hit	n/a
389.0541	n/a	RESPONSE	n/a	n/a	n/a	n/a	n/a	n/a	n/a	green
389.0768	1.0167	ITI	n/a	n/a	n/a	n/a	n/a	n/a	n/a	n/a
390.0934	0.5167	FIXCROSS	n/a	n/a	n/a	n/a	n/a	n/a	n/a	n/a
390.6101	0.5833	COLOR_NAME	57	Neutral	żółty	yellow	Neutral	Neutral	hit	n/a
391.1656	n/a	RESPONSE	n/a	n/a	n/a	n/a	n/a	n/a	n/a	yellow
391.1934	1.0167	ITI	n/a	n/a	n/a	n/a	n/a	n/a	n/a	n/a
392.2101	0.5167	FIXCROSS	n/a	n/a	n/a	n/a	n/a	n/a	n/a	n/a
392.7268	0.8167	COLOR_NAME	58	Neutral	niebieski	blue	Neutral	Neutral	hit	n/a
393.5172	n/a	RESPONSE	n/a	n/a	n/a	n/a	n/a	n/a	n/a	blue
393.5435	1.0167	ITI	n/a	n/a	n/a	n/a	n/a	n/a	n/a	n/a
394.5601	0.5167	FIXCROSS	n/a	n/a	n/a	n/a	n/a	n/a	n/a	n/a
395.0768	0.5833	COLOR_NAME	59	Neutral	żółty	yellow	Neutral	Neutral	hit	n/a
395.6287	n/a	RESPONSE	n/a	n/a	n/a	n/a	n/a	n/a	n/a	yellow
395.6601	1.0167	ITI	n/a	n/a	n/a	n/a	n/a	n/a	n/a	n/a
396.6768	0.5167	FIXCROSS	n/a	n/a	n/a	n/a	n/a	n/a	n/a	n/a
397.1935	1.0333	COLOR_NAME	60	Incongruent	zielony	green	czerwony	red	hit	n/a
398.2042	n/a	RESPONSE	n/a	n/a	n/a	n/a	n/a	n/a	n/a	green
398.2268	1.0167	ITI	n/a	n/a	n/a	n/a	n/a	n/a	n/a	n/a
399.2435	0.5167	FIXCROSS	n/a	n/a	n/a	n/a	n/a	n/a	n/a	n/a
399.7602	0.7333	COLOR_NAME	61	Incongruent	żółty	yellow	niebieski	blue	hit	n/a
400.4597	n/a	RESPONSE	n/a	n/a	n/a	n/a	n/a	n/a	n/a	yellow
400.4935	1.0167	ITI	n/a	n/a	n/a	n/a	n/a	n/a	n/a	n/a
401.5102	0.5167	FIXCROSS	n/a	n/a	n/a	n/a	n/a	n/a	n/a	n/a
402.0268	0.6167	COLOR_NAME	62	Incongruent	żółty	yellow	czerwony	red	hit	n/a
402.6193	n/a	RESPONSE	n/a	n/a	n/a	n/a	n/a	n/a	n/a	yellow
402.6435	1.0167	ITI	n/a	n/a	n/a	n/a	n/a	n/a	n/a	n/a
403.6602	0.5167	FIXCROSS	n/a	n/a	n/a	n/a	n/a	n/a	n/a	n/a
404.1769	0.65	COLOR_NAME	63	Neutral	czerwony	red	Neutral	Neutral	hit	n/a
404.7948	n/a	RESPONSE	n/a	n/a	n/a	n/a	n/a	n/a	n/a	red
404.8269	1.0167	ITI	n/a	n/a	n/a	n/a	n/a	n/a	n/a	n/a
405.8435	0.5167	FIXCROSS	n/a	n/a	n/a	n/a	n/a	n/a	n/a	n/a
406.3602	0.7	COLOR_NAME	64	Neutral	niebieski	blue	Neutral	Neutral	hit	n/a
407.0343	n/a	RESPONSE	n/a	n/a	n/a	n/a	n/a	n/a	n/a	blue
407.0602	1.0167	ITI	n/a	n/a	n/a	n/a	n/a	n/a	n/a	n/a
408.0769	0.5167	FIXCROSS	n/a	n/a	n/a	n/a	n/a	n/a	n/a	n/a
408.5935	0.75	COLOR_NAME	65	Incongruent	niebieski	blue	czerwony	red	hit	n/a
409.3219	n/a	RESPONSE	n/a	n/a	n/a	n/a	n/a	n/a	n/a	blue
409.3436	1.0167	ITI	n/a	n/a	n/a	n/a	n/a	n/a	n/a	n/a
410.3602	0.5167	FIXCROSS	n/a	n/a	n/a	n/a	n/a	n/a	n/a	n/a
410.8769	0.6667	COLOR_NAME	66	Incongruent	czerwony	red	zielony	green	hit	n/a
411.5134	n/a	RESPONSE	n/a	n/a	n/a	n/a	n/a	n/a	n/a	red
411.5436	1.0167	ITI	n/a	n/a	n/a	n/a	n/a	n/a	n/a	n/a
412.5602	0.5167	FIXCROSS	n/a	n/a	n/a	n/a	n/a	n/a	n/a	n/a
413.0769	0.8	COLOR_NAME	67	Incongruent	zielony	green	niebieski	blue	hit	n/a
413.8489	n/a	RESPONSE	n/a	n/a	n/a	n/a	n/a	n/a	n/a	green
413.8769	1.0167	ITI	n/a	n/a	n/a	n/a	n/a	n/a	n/a	n/a
414.8936	0.5167	FIXCROSS	n/a	n/a	n/a	n/a	n/a	n/a	n/a	n/a
415.4103	0.75	COLOR_NAME	68	Neutral	żółty	yellow	Neutral	Neutral	hit	n/a
416.1364	n/a	RESPONSE	n/a	n/a	n/a	n/a	n/a	n/a	n/a	yellow
416.1603	1.0167	ITI	n/a	n/a	n/a	n/a	n/a	n/a	n/a	n/a
417.1769	0.5167	FIXCROSS	n/a	n/a	n/a	n/a	n/a	n/a	n/a	n/a
417.6936	0.8667	COLOR_NAME	69	Incongruent	niebieski	blue	zielony	green	hit	n/a
418.5359	n/a	RESPONSE	n/a	n/a	n/a	n/a	n/a	n/a	n/a	blue
418.5603	1.0167	ITI	n/a	n/a	n/a	n/a	n/a	n/a	n/a	n/a
419.577	0.5167	FIXCROSS	n/a	n/a	n/a	n/a	n/a	n/a	n/a	n/a
420.0936	1.2334	COLOR_NAME	70	Incongruent	żółty	yellow	czerwony	red	hit	n/a
421.3033	n/a	RESPONSE	n/a	n/a	n/a	n/a	n/a	n/a	n/a	yellow
421.327	1.0167	ITI	n/a	n/a	n/a	n/a	n/a	n/a	n/a	n/a
422.3436	0.5167	FIXCROSS	n/a	n/a	n/a	n/a	n/a	n/a	n/a	n/a
422.8603	0.6667	COLOR_NAME	71	Neutral	czerwony	red	Neutral	Neutral	hit	n/a
423.4949	n/a	RESPONSE	n/a	n/a	n/a	n/a	n/a	n/a	n/a	red
423.527	1.0167	ITI	n/a	n/a	n/a	n/a	n/a	n/a	n/a	n/a
424.5437	0.5167	FIXCROSS	n/a	n/a	n/a	n/a	n/a	n/a	n/a	n/a
425.0603	0.8667	COLOR_NAME	72	Neutral	niebieski	blue	Neutral	Neutral	hit	n/a
425.8944	n/a	RESPONSE	n/a	n/a	n/a	n/a	n/a	n/a	n/a	blue
425.927	1.0333	ITI	n/a	n/a	n/a	n/a	n/a	n/a	n/a	n/a
429.8775	n/a	RESPONSE	n/a	n/a	n/a	n/a	n/a	n/a	n/a	n/a
