onset	duration	condition	trial_type	braille_stimulus	response_val	response_type
2.017	2.008	LEXICAL_DECISION	CUE	n/a	n/a	n/a
7.017	1.008	LEXICAL_DECISION	FIXCROSS	n/a	n/a	n/a
8.033	5.008	LEXICAL_DECISION	PSEUDOWORD	LOKYD	n/a	n/a
14.6	n/a	LEXICAL_DECISION	RESPONSE	n/a	NO	CORRECT_REJECTION
15.067	1.008	LEXICAL_DECISION	FIXCROSS	n/a	n/a	n/a
16.083	5.008	LEXICAL_DECISION	PSEUDOWORD	SAKMY	n/a	n/a
22.52	n/a	LEXICAL_DECISION	RESPONSE	n/a	NO	CORRECT_REJECTION
23.117	1.008	LEXICAL_DECISION	FIXCROSS	n/a	n/a	n/a
24.134	5.008	LEXICAL_DECISION	WORD	KASA	n/a	n/a
28.36	n/a	LEXICAL_DECISION	RESPONSE	n/a	YES	HIT
31.167	1.008	LEXICAL_DECISION	FIXCROSS	n/a	n/a	n/a
32.184	5.008	LEXICAL_DECISION	WORD	KŁA	n/a	n/a
37.84	n/a	LEXICAL_DECISION	RESPONSE	n/a	NO	MISS
39.217	1.008	LEXICAL_DECISION	FIXCROSS	n/a	n/a	n/a
40.233	5.009	LEXICAL_DECISION	WORD	KOMU	n/a	n/a
46.6	n/a	LEXICAL_DECISION	RESPONSE	n/a	NO	MISS
49.275	2.008	6_DOT_DETECTION	CUE	n/a	n/a	n/a
54.275	1.008	6_DOT_DETECTION	FIXCROSS	n/a	n/a	n/a
55.292	5.008	6_DOT_DETECTION	NO_6-DOT	DMSTY	n/a	n/a
61.344	n/a	6_DOT_DETECTION	RESPONSE	n/a	YES	FALSE_ALARM
62.325	1.008	6_DOT_DETECTION	FIXCROSS	n/a	n/a	n/a
63.342	5.008	6_DOT_DETECTION	NO_6-DOT	TMIA	n/a	n/a
66.824	n/a	6_DOT_DETECTION	RESPONSE	n/a	NO	CORRECT_REJECTION
70.375	1.008	6_DOT_DETECTION	FIXCROSS	n/a	n/a	n/a
71.392	5.008	6_DOT_DETECTION	6-DOT	##Ł	n/a	n/a
74.144	n/a	6_DOT_DETECTION	RESPONSE	n/a	YES	HIT
78.425	1.008	6_DOT_DETECTION	FIXCROSS	n/a	n/a	n/a
79.442	5.008	6_DOT_DETECTION	6-DOT	#U#	n/a	n/a
81.84	n/a	6_DOT_DETECTION	RESPONSE	n/a	YES	HIT
86.475	1.008	6_DOT_DETECTION	FIXCROSS	n/a	n/a	n/a
87.492	5.008	6_DOT_DETECTION	6-DOT	A#L#O	n/a	n/a
91.08	n/a	6_DOT_DETECTION	RESPONSE	n/a	YES	HIT
95.534	2.008	LEXICAL_DECISION	CUE	n/a	n/a	n/a
100.534	1.008	LEXICAL_DECISION	FIXCROSS	n/a	n/a	n/a
101.55	5.008	LEXICAL_DECISION	PSEUDOWORD	IKOB	n/a	n/a
107.2	n/a	LEXICAL_DECISION	RESPONSE	n/a	NO	CORRECT_REJECTION
108.584	1.008	LEXICAL_DECISION	FIXCROSS	n/a	n/a	n/a
109.6	5.008	LEXICAL_DECISION	WORD	LISA	n/a	n/a
114.68	n/a	LEXICAL_DECISION	RESPONSE	n/a	NO	MISS
116.634	1.008	LEXICAL_DECISION	FIXCROSS	n/a	n/a	n/a
117.65	5.008	LEXICAL_DECISION	PSEUDOWORD	COPIB	n/a	n/a
124.144	n/a	LEXICAL_DECISION	RESPONSE	n/a	NO	CORRECT_REJECTION
124.684	1.008	LEXICAL_DECISION	FIXCROSS	n/a	n/a	n/a
125.7	5.008	LEXICAL_DECISION	PSEUDOWORD	ŁODYT	n/a	n/a
132.734	1.008	LEXICAL_DECISION	FIXCROSS	n/a	n/a	n/a
132.744	n/a	LEXICAL_DECISION	RESPONSE	n/a	YES	FALSE_ALARM
133.75	5.008	LEXICAL_DECISION	PSEUDOWORD	AŁAB	n/a	n/a
139.84	n/a	LEXICAL_DECISION	RESPONSE	n/a	NO	CORRECT_REJECTION
142.292	2.008	6_DOT_DETECTION	CUE	n/a	n/a	n/a
146.792	1.008	6_DOT_DETECTION	FIXCROSS	n/a	n/a	n/a
147.809	5.008	6_DOT_DETECTION	NO_6-DOT	TDK	n/a	n/a
150.68	n/a	6_DOT_DETECTION	RESPONSE	n/a	NO	CORRECT_REJECTION
154.842	1.008	6_DOT_DETECTION	FIXCROSS	n/a	n/a	n/a
155.859	5.008	6_DOT_DETECTION	6-DOT	Y##	n/a	n/a
158.88	n/a	6_DOT_DETECTION	RESPONSE	n/a	YES	HIT
162.892	1.008	6_DOT_DETECTION	FIXCROSS	n/a	n/a	n/a
163.909	5.008	6_DOT_DETECTION	NO_6-DOT	LKBŁE	n/a	n/a
167.424	n/a	6_DOT_DETECTION	RESPONSE	n/a	NO	CORRECT_REJECTION
170.942	1.008	6_DOT_DETECTION	FIXCROSS	n/a	n/a	n/a
171.959	5.008	6_DOT_DETECTION	NO_6-DOT	KMUPT	n/a	n/a
175.8	n/a	6_DOT_DETECTION	RESPONSE	n/a	NO	CORRECT_REJECTION
178.992	1.008	6_DOT_DETECTION	FIXCROSS	n/a	n/a	n/a
180.009	5.008	6_DOT_DETECTION	NO_6-DOT	YCOBK	n/a	n/a
184.184	n/a	6_DOT_DETECTION	RESPONSE	n/a	NO	CORRECT_REJECTION
188.551	2.008	LEXICAL_DECISION	CUE	n/a	n/a	n/a
195.051	1.008	LEXICAL_DECISION	FIXCROSS	n/a	n/a	n/a
196.067	5.008	LEXICAL_DECISION	WORD	SKALA	n/a	n/a
202.72	n/a	LEXICAL_DECISION	RESPONSE	n/a	NO	MISS
203.101	1.008	LEXICAL_DECISION	FIXCROSS	n/a	n/a	n/a
204.117	5.008	LEXICAL_DECISION	WORD	OKUPU	n/a	n/a
210.6	n/a	LEXICAL_DECISION	RESPONSE	n/a	NO	MISS
211.151	1.008	LEXICAL_DECISION	FIXCROSS	n/a	n/a	n/a
212.167	5.008	LEXICAL_DECISION	WORD	PAL	n/a	n/a
215.424	n/a	LEXICAL_DECISION	RESPONSE	n/a	YES	HIT
219.201	1.008	LEXICAL_DECISION	FIXCROSS	n/a	n/a	n/a
220.217	5.008	LEXICAL_DECISION	PSEUDOWORD	BOKY	n/a	n/a
226.08	n/a	LEXICAL_DECISION	RESPONSE	n/a	NO	CORRECT_REJECTION
227.251	1.008	LEXICAL_DECISION	FIXCROSS	n/a	n/a	n/a
228.267	5.008	LEXICAL_DECISION	PSEUDOWORD	KOLP	n/a	n/a
233.6	n/a	LEXICAL_DECISION	RESPONSE	n/a	NO	CORRECT_REJECTION
236.809	2.008	6_DOT_DETECTION	CUE	n/a	n/a	n/a
242.309	1.008	6_DOT_DETECTION	FIXCROSS	n/a	n/a	n/a
243.326	5.008	6_DOT_DETECTION	6-DOT	OK#P#	n/a	n/a
246.736	n/a	6_DOT_DETECTION	RESPONSE	n/a	YES	HIT
250.359	1.008	6_DOT_DETECTION	FIXCROSS	n/a	n/a	n/a
251.376	5.008	6_DOT_DETECTION	6-DOT	AT#O#	n/a	n/a
254.576	n/a	6_DOT_DETECTION	RESPONSE	n/a	YES	HIT
258.409	1.008	6_DOT_DETECTION	FIXCROSS	n/a	n/a	n/a
259.426	5.008	6_DOT_DETECTION	6-DOT	##KI	n/a	n/a
262.736	n/a	6_DOT_DETECTION	RESPONSE	n/a	YES	HIT
266.459	1.008	6_DOT_DETECTION	FIXCROSS	n/a	n/a	n/a
267.476	5.008	6_DOT_DETECTION	NO_6-DOT	ŁMS	n/a	n/a
270.08	n/a	6_DOT_DETECTION	RESPONSE	n/a	NO	CORRECT_REJECTION
274.509	1.008	6_DOT_DETECTION	FIXCROSS	n/a	n/a	n/a
275.526	5.008	6_DOT_DETECTION	NO_6-DOT	UTSD	n/a	n/a
278.4	n/a	6_DOT_DETECTION	RESPONSE	n/a	NO	CORRECT_REJECTION
284.568	2.008	LEXICAL_DECISION	CUE	n/a	n/a	n/a
290.568	1.008	LEXICAL_DECISION	FIXCROSS	n/a	n/a	n/a
291.584	5.008	LEXICAL_DECISION	WORD	DOMEM	n/a	n/a
297.56	n/a	LEXICAL_DECISION	RESPONSE	n/a	YES	HIT
298.618	1.008	LEXICAL_DECISION	FIXCROSS	n/a	n/a	n/a
299.634	5.008	LEXICAL_DECISION	WORD	TATO	n/a	n/a
305.8	n/a	LEXICAL_DECISION	RESPONSE	n/a	NO	MISS
306.668	1.008	LEXICAL_DECISION	FIXCROSS	n/a	n/a	n/a
307.684	5.008	LEXICAL_DECISION	WORD	DAŁA	n/a	n/a
312.04	n/a	LEXICAL_DECISION	RESPONSE	n/a	YES	HIT
314.718	1.008	LEXICAL_DECISION	FIXCROSS	n/a	n/a	n/a
315.734	5.008	LEXICAL_DECISION	PSEUDOWORD	DEPAT	n/a	n/a
321.896	n/a	LEXICAL_DECISION	RESPONSE	n/a	NO	CORRECT_REJECTION
322.768	1.008	LEXICAL_DECISION	FIXCROSS	n/a	n/a	n/a
323.784	5.008	LEXICAL_DECISION	PSEUDOWORD	LUDA	n/a	n/a
328.776	n/a	LEXICAL_DECISION	RESPONSE	n/a	NO	CORRECT_REJECTION
332.826	2.008	6_DOT_DETECTION	CUE	n/a	n/a	n/a
338.826	1.008	6_DOT_DETECTION	FIXCROSS	n/a	n/a	n/a
339.843	5.008	6_DOT_DETECTION	6-DOT	Ł##Ł	n/a	n/a
343.32	n/a	6_DOT_DETECTION	RESPONSE	n/a	YES	HIT
346.876	1.008	6_DOT_DETECTION	FIXCROSS	n/a	n/a	n/a
347.893	5.008	6_DOT_DETECTION	6-DOT	TA##	n/a	n/a
351.256	n/a	6_DOT_DETECTION	RESPONSE	n/a	YES	HIT
354.926	1.008	6_DOT_DETECTION	FIXCROSS	n/a	n/a	n/a
355.943	5.008	6_DOT_DETECTION	6-DOT	DBO##	n/a	n/a
359.976	n/a	6_DOT_DETECTION	RESPONSE	n/a	YES	HIT
362.976	1.008	6_DOT_DETECTION	FIXCROSS	n/a	n/a	n/a
363.993	5.008	6_DOT_DETECTION	NO_6-DOT	EBPT	n/a	n/a
366.96	n/a	6_DOT_DETECTION	RESPONSE	n/a	NO	CORRECT_REJECTION
371.026	1.008	6_DOT_DETECTION	FIXCROSS	n/a	n/a	n/a
372.043	5.008	6_DOT_DETECTION	NO_6-DOT	SMAO	n/a	n/a
375.04	n/a	6_DOT_DETECTION	RESPONSE	n/a	NO	CORRECT_REJECTION
380.584	2.008	LEXICAL_DECISION	CUE	n/a	n/a	n/a
386.084	1.008	LEXICAL_DECISION	FIXCROSS	n/a	n/a	n/a
387.101	5.008	LEXICAL_DECISION	PSEUDOWORD	SAK	n/a	n/a
392.0	n/a	LEXICAL_DECISION	RESPONSE	n/a	NO	CORRECT_REJECTION
394.135	1.008	LEXICAL_DECISION	FIXCROSS	n/a	n/a	n/a
395.151	5.008	LEXICAL_DECISION	WORD	LECI	n/a	n/a
401.04	n/a	LEXICAL_DECISION	RESPONSE	n/a	NO	MISS
402.185	1.008	LEXICAL_DECISION	FIXCROSS	n/a	n/a	n/a
403.201	5.008	LEXICAL_DECISION	WORD	ALBUM	n/a	n/a
408.4	n/a	LEXICAL_DECISION	RESPONSE	n/a	YES	HIT
410.235	1.008	LEXICAL_DECISION	FIXCROSS	n/a	n/a	n/a
411.251	5.008	LEXICAL_DECISION	PSEUDOWORD	LISO	n/a	n/a
417.32	n/a	LEXICAL_DECISION	RESPONSE	n/a	NO	CORRECT_REJECTION
418.285	1.008	LEXICAL_DECISION	FIXCROSS	n/a	n/a	n/a
419.301	5.008	LEXICAL_DECISION	WORD	KAPIE	n/a	n/a
424.096	n/a	LEXICAL_DECISION	RESPONSE	n/a	YES	HIT
427.843	2.008	6_DOT_DETECTION	CUE	n/a	n/a	n/a
433.343	1.008	6_DOT_DETECTION	FIXCROSS	n/a	n/a	n/a
434.36	5.008	6_DOT_DETECTION	NO_6-DOT	OBL	n/a	n/a
437.016	n/a	6_DOT_DETECTION	RESPONSE	n/a	NO	CORRECT_REJECTION
441.393	1.008	6_DOT_DETECTION	FIXCROSS	n/a	n/a	n/a
442.41	5.008	6_DOT_DETECTION	6-DOT	I#O#	n/a	n/a
445.896	n/a	6_DOT_DETECTION	RESPONSE	n/a	YES	HIT
449.443	1.008	6_DOT_DETECTION	FIXCROSS	n/a	n/a	n/a
450.46	5.008	6_DOT_DETECTION	6-DOT	#BL#	n/a	n/a
453.176	n/a	6_DOT_DETECTION	RESPONSE	n/a	YES	HIT
457.493	1.008	6_DOT_DETECTION	FIXCROSS	n/a	n/a	n/a
458.51	5.008	6_DOT_DETECTION	NO_6-DOT	EPSTB	n/a	n/a
461.72	n/a	6_DOT_DETECTION	RESPONSE	n/a	NO	CORRECT_REJECTION
465.543	1.008	6_DOT_DETECTION	FIXCROSS	n/a	n/a	n/a
466.56	5.008	6_DOT_DETECTION	6-DOT	D##YU	n/a	n/a
469.36	n/a	6_DOT_DETECTION	RESPONSE	n/a	YES	HIT
474.602	2.008	LEXICAL_DECISION	CUE	n/a	n/a	n/a
479.602	1.008	LEXICAL_DECISION	FIXCROSS	n/a	n/a	n/a
480.618	5.008	LEXICAL_DECISION	PSEUDOWORD	CAD	n/a	n/a
487.176	n/a	LEXICAL_DECISION	RESPONSE	n/a	NO	CORRECT_REJECTION
487.652	1.008	LEXICAL_DECISION	FIXCROSS	n/a	n/a	n/a
488.668	5.008	LEXICAL_DECISION	PSEUDOWORD	MAB	n/a	n/a
493.0	n/a	LEXICAL_DECISION	RESPONSE	n/a	NO	CORRECT_REJECTION
495.702	1.008	LEXICAL_DECISION	FIXCROSS	n/a	n/a	n/a
496.718	5.008	LEXICAL_DECISION	WORD	PIES	n/a	n/a
501.96	n/a	LEXICAL_DECISION	RESPONSE	n/a	YES	HIT
503.752	1.008	LEXICAL_DECISION	FIXCROSS	n/a	n/a	n/a
504.768	5.008	LEXICAL_DECISION	WORD	LIC	n/a	n/a
508.816	n/a	LEXICAL_DECISION	RESPONSE	n/a	YES	HIT
511.802	1.008	LEXICAL_DECISION	FIXCROSS	n/a	n/a	n/a
512.818	5.008	LEXICAL_DECISION	PSEUDOWORD	LAKMA	n/a	n/a
518.456	n/a	LEXICAL_DECISION	RESPONSE	n/a	NO	CORRECT_REJECTION
520.86	2.008	6_DOT_DETECTION	CUE	n/a	n/a	n/a
527.86	1.008	6_DOT_DETECTION	FIXCROSS	n/a	n/a	n/a
528.877	5.008	6_DOT_DETECTION	NO_6-DOT	KDM	n/a	n/a
531.136	n/a	6_DOT_DETECTION	RESPONSE	n/a	NO	CORRECT_REJECTION
535.91	1.008	6_DOT_DETECTION	FIXCROSS	n/a	n/a	n/a
536.927	5.008	6_DOT_DETECTION	NO_6-DOT	ALCB	n/a	n/a
539.76	n/a	6_DOT_DETECTION	RESPONSE	n/a	NO	CORRECT_REJECTION
543.96	1.008	6_DOT_DETECTION	FIXCROSS	n/a	n/a	n/a
544.977	5.008	6_DOT_DETECTION	6-DOT	##IB	n/a	n/a
547.936	n/a	6_DOT_DETECTION	RESPONSE	n/a	YES	HIT
552.01	1.008	6_DOT_DETECTION	FIXCROSS	n/a	n/a	n/a
553.027	5.008	6_DOT_DETECTION	6-DOT	##D	n/a	n/a
555.896	n/a	6_DOT_DETECTION	RESPONSE	n/a	YES	HIT
560.06	1.008	6_DOT_DETECTION	FIXCROSS	n/a	n/a	n/a
561.077	5.008	6_DOT_DETECTION	NO_6-DOT	KMLD	n/a	n/a
563.96	n/a	6_DOT_DETECTION	RESPONSE	n/a	NO	CORRECT_REJECTION
569.618	2.008	LEXICAL_DECISION	CUE	n/a	n/a	n/a
576.118	1.008	LEXICAL_DECISION	FIXCROSS	n/a	n/a	n/a
577.135	5.008	LEXICAL_DECISION	WORD	DAŁO	n/a	n/a
582.616	n/a	LEXICAL_DECISION	RESPONSE	n/a	YES	HIT
584.168	1.008	LEXICAL_DECISION	FIXCROSS	n/a	n/a	n/a
585.185	5.008	LEXICAL_DECISION	PSEUDOWORD	BAPA	n/a	n/a
590.92	n/a	LEXICAL_DECISION	RESPONSE	n/a	NO	CORRECT_REJECTION
592.218	1.008	LEXICAL_DECISION	FIXCROSS	n/a	n/a	n/a
593.235	5.008	LEXICAL_DECISION	PSEUDOWORD	BOC	n/a	n/a
597.6	n/a	LEXICAL_DECISION	RESPONSE	n/a	NO	CORRECT_REJECTION
600.268	1.008	LEXICAL_DECISION	FIXCROSS	n/a	n/a	n/a
601.285	5.008	LEXICAL_DECISION	WORD	PUK	n/a	n/a
607.096	n/a	LEXICAL_DECISION	RESPONSE	n/a	YES	HIT
608.318	1.008	LEXICAL_DECISION	FIXCROSS	n/a	n/a	n/a
609.335	5.008	LEXICAL_DECISION	WORD	MEBLE	n/a	n/a
615.52	n/a	LEXICAL_DECISION	RESPONSE	n/a	NO	MISS
617.877	2.008	6_DOT_DETECTION	CUE	n/a	n/a	n/a
622.377	1.008	6_DOT_DETECTION	FIXCROSS	n/a	n/a	n/a
623.394	5.008	6_DOT_DETECTION	6-DOT	U#A#	n/a	n/a
626.376	n/a	6_DOT_DETECTION	RESPONSE	n/a	YES	HIT
630.427	1.008	6_DOT_DETECTION	FIXCROSS	n/a	n/a	n/a
631.444	5.008	6_DOT_DETECTION	NO_6-DOT	KDCMB	n/a	n/a
634.72	n/a	6_DOT_DETECTION	RESPONSE	n/a	NO	CORRECT_REJECTION
638.477	1.008	6_DOT_DETECTION	FIXCROSS	n/a	n/a	n/a
639.494	5.008	6_DOT_DETECTION	NO_6-DOT	LSTA	n/a	n/a
642.4	n/a	6_DOT_DETECTION	RESPONSE	n/a	NO	CORRECT_REJECTION
646.527	1.008	6_DOT_DETECTION	FIXCROSS	n/a	n/a	n/a
647.544	5.008	6_DOT_DETECTION	6-DOT	D#T#	n/a	n/a
650.12	n/a	6_DOT_DETECTION	RESPONSE	n/a	YES	HIT
654.577	1.008	6_DOT_DETECTION	FIXCROSS	n/a	n/a	n/a
655.594	5.008	6_DOT_DETECTION	6-DOT	ST##	n/a	n/a
658.48	n/a	6_DOT_DETECTION	RESPONSE	n/a	YES	HIT
664.135	2.008	LEXICAL_DECISION	CUE	n/a	n/a	n/a
669.635	1.008	LEXICAL_DECISION	FIXCROSS	n/a	n/a	n/a
670.652	5.008	LEXICAL_DECISION	PSEUDOWORD	DIKO	n/a	n/a
676.76	n/a	LEXICAL_DECISION	RESPONSE	n/a	NO	CORRECT_REJECTION
677.685	1.008	LEXICAL_DECISION	FIXCROSS	n/a	n/a	n/a
678.702	5.008	LEXICAL_DECISION	WORD	OBIE	n/a	n/a
683.56	n/a	LEXICAL_DECISION	RESPONSE	n/a	YES	HIT
685.735	1.008	LEXICAL_DECISION	FIXCROSS	n/a	n/a	n/a
686.752	5.008	LEXICAL_DECISION	PSEUDOWORD	PODO	n/a	n/a
692.28	n/a	LEXICAL_DECISION	RESPONSE	n/a	NO	CORRECT_REJECTION
693.785	1.008	LEXICAL_DECISION	FIXCROSS	n/a	n/a	n/a
694.802	5.008	LEXICAL_DECISION	PSEUDOWORD	BODAT	n/a	n/a
700.936	n/a	LEXICAL_DECISION	RESPONSE	n/a	NO	CORRECT_REJECTION
701.836	1.008	LEXICAL_DECISION	FIXCROSS	n/a	n/a	n/a
702.852	5.008	LEXICAL_DECISION	WORD	KILKU	n/a	n/a
708.8	n/a	LEXICAL_DECISION	RESPONSE	n/a	NO	MISS
710.894	2.008	6_DOT_DETECTION	CUE	n/a	n/a	n/a
715.894	1.008	6_DOT_DETECTION	FIXCROSS	n/a	n/a	n/a
716.91	5.008	6_DOT_DETECTION	NO_6-DOT	BKPO	n/a	n/a
720.28	n/a	6_DOT_DETECTION	RESPONSE	n/a	NO	CORRECT_REJECTION
723.944	1.008	6_DOT_DETECTION	FIXCROSS	n/a	n/a	n/a
724.96	5.008	6_DOT_DETECTION	6-DOT	#KM#P	n/a	n/a
729.576	n/a	6_DOT_DETECTION	RESPONSE	n/a	YES	HIT
731.994	1.008	6_DOT_DETECTION	FIXCROSS	n/a	n/a	n/a
733.01	5.008	6_DOT_DETECTION	NO_6-DOT	LMYKT	n/a	n/a
737.44	n/a	6_DOT_DETECTION	RESPONSE	n/a	NO	CORRECT_REJECTION
740.044	1.008	6_DOT_DETECTION	FIXCROSS	n/a	n/a	n/a
741.061	5.008	6_DOT_DETECTION	NO_6-DOT	CDSYŁ	n/a	n/a
744.96	n/a	6_DOT_DETECTION	RESPONSE	n/a	NO	CORRECT_REJECTION
748.094	1.008	6_DOT_DETECTION	FIXCROSS	n/a	n/a	n/a
749.111	5.008	6_DOT_DETECTION	6-DOT	#IC#	n/a	n/a
751.736	n/a	6_DOT_DETECTION	RESPONSE	n/a	YES	HIT
