onset	duration	trial_type	melody_number	melody_part	key	sound	action
0.0	14.086	CUE_START	n/a	n/a	n/a	n/a	n/a
14.086	7.76	FIXCROSS	n/a	n/a	n/a	n/a	n/a
21.846	6.324	CUE_LISTEN	M1	1	n/a	n/a	n/a
28.169	7.758	FIXCROSS	n/a	n/a	n/a	n/a	n/a
35.928	6.317	CUE_PLAYBACK_RIGHT_HAND	M1	1	n/a	n/a	n/a
36.293	n/a	RESPONSE	M1	1	19	G4	press
36.683	n/a	RESPONSE	M1	1	19	G4	release
36.795	n/a	RESPONSE	M1	1	16	E4	press
37.145	n/a	RESPONSE	M1	1	16	E4	release
37.266	n/a	RESPONSE	M1	1	16	E4	press
37.579	n/a	RESPONSE	M1	1	16	E4	release
37.705	n/a	RESPONSE	M1	1	17	F4	press
38.08	n/a	RESPONSE	M1	1	17	F4	release
38.189	n/a	RESPONSE	M1	1	14	D4	press
38.519	n/a	RESPONSE	M1	1	14	D4	release
38.646	n/a	RESPONSE	M1	1	14	D4	press
38.931	n/a	RESPONSE	M1	1	14	D4	release
39.054	n/a	RESPONSE	M1	1	12	C4	press
39.314	n/a	RESPONSE	M1	1	16	E4	press
39.419	n/a	RESPONSE	M1	1	12	C4	release
39.583	n/a	RESPONSE	M1	1	19	G4	press
39.616	n/a	RESPONSE	M1	1	16	E4	release
40.463	n/a	RESPONSE	M1	1	19	G4	release
42.244	7.758	FIXCROSS	n/a	n/a	n/a	n/a	n/a
50.003	6.317	CUE_LISTEN	M1	2	n/a	n/a	n/a
56.319	7.758	FIXCROSS	n/a	n/a	n/a	n/a	n/a
64.078	6.317	CUE_PLAYBACK_RIGHT_HAND	M1	2	n/a	n/a	n/a
64.464	n/a	RESPONSE	M1	2	19	G4	press
64.855	n/a	RESPONSE	M1	2	19	G4	release
64.916	n/a	RESPONSE	M1	2	16	E4	press
65.258	n/a	RESPONSE	M1	2	16	E4	release
65.399	n/a	RESPONSE	M1	2	16	E4	press
65.701	n/a	RESPONSE	M1	2	16	E4	release
65.791	n/a	RESPONSE	M1	2	17	F4	press
66.073	n/a	RESPONSE	M1	2	17	F4	release
66.254	n/a	RESPONSE	M1	2	14	D4	press
66.575	n/a	RESPONSE	M1	2	14	D4	release
66.686	n/a	RESPONSE	M1	2	14	D4	press
66.959	n/a	RESPONSE	M1	2	14	D4	release
67.109	n/a	RESPONSE	M1	2	12	C4	press
67.28	n/a	RESPONSE	M1	2	16	E4	press
67.361	n/a	RESPONSE	M1	2	12	C4	release
67.539	n/a	RESPONSE	M1	2	12	C4	press
67.569	n/a	RESPONSE	M1	2	16	E4	release
68.794	n/a	RESPONSE	M1	2	12	C4	release
70.394	7.758	FIXCROSS	n/a	n/a	n/a	n/a	n/a
78.153	6.325	CUE_LISTEN	M2	1	n/a	n/a	n/a
84.478	7.758	FIXCROSS	n/a	n/a	n/a	n/a	n/a
92.236	6.317	CUE_PLAYBACK_BOTH_HANDS	M2	1	n/a	n/a	n/a
92.739	n/a	RESPONSE	M2	1	24	C5	press
92.779	n/a	RESPONSE	M2	1	00	C3	press
92.79	n/a	RESPONSE	M2	1	07	G3	press
93.264	n/a	RESPONSE	M2	1	19	G4	press
93.273	n/a	RESPONSE	M2	1	24	C5	release
93.485	n/a	RESPONSE	M2	1	00	C3	release
93.516	n/a	RESPONSE	M2	1	19	G4	release
93.549	n/a	RESPONSE	M2	1	07	G3	release
93.749	n/a	RESPONSE	M2	1	19	G4	press
93.751	n/a	RESPONSE	M2	1	07	G3	press
93.761	n/a	RESPONSE	M2	1	00	C3	press
94.154	n/a	RESPONSE	M2	1	17	F4	press
94.164	n/a	RESPONSE	M2	1	19	G4	release
94.376	n/a	RESPONSE	M2	1	17	F4	release
94.416	n/a	RESPONSE	M2	1	00	C3	release
94.468	n/a	RESPONSE	M2	1	07	G3	release
94.589	n/a	RESPONSE	M2	1	16	E4	press
94.62	n/a	RESPONSE	M2	1	07	G3	press
94.631	n/a	RESPONSE	M2	1	00	C3	press
95.043	n/a	RESPONSE	M2	1	17	F4	press
95.144	n/a	RESPONSE	M2	1	16	E4	release
95.318	n/a	RESPONSE	M2	1	17	F4	release
95.366	n/a	RESPONSE	M2	1	00	C3	release
95.369	n/a	RESPONSE	M2	1	07	G3	release
95.489	n/a	RESPONSE	M2	1	19	G4	press
95.503	n/a	RESPONSE	M2	1	07	G3	press
95.511	n/a	RESPONSE	M2	1	00	C3	press
96.614	n/a	RESPONSE	M2	1	19	G4	release
96.774	n/a	RESPONSE	M2	1	00	C3	release
97.443	n/a	RESPONSE	M2	1	24	C5	press
97.504	n/a	RESPONSE	M2	1	00	C3	press
97.87	n/a	RESPONSE	M2	1	24	C5	release
97.995	n/a	RESPONSE	M2	1	00	C3	release
98.063	n/a	RESPONSE	M2	1	07	G3	release
98.553	7.758	FIXCROSS	n/a	n/a	n/a	n/a	n/a
106.311	6.317	CUE_LISTEN	M2	2	n/a	n/a	n/a
112.628	7.758	FIXCROSS	n/a	n/a	n/a	n/a	n/a
120.386	6.325	CUE_PLAYBACK_BOTH_HANDS	M2	2	n/a	n/a	n/a
120.763	n/a	RESPONSE	M2	2	24	C5	press
120.78	n/a	RESPONSE	M2	2	07	G3	press
120.793	n/a	RESPONSE	M2	2	00	C3	press
121.26	n/a	RESPONSE	M2	2	21	A4	press
121.304	n/a	RESPONSE	M2	2	24	C5	release
121.313	n/a	RESPONSE	M2	2	19	G4	press
121.464	n/a	RESPONSE	M2	2	19	G4	release
121.558	n/a	RESPONSE	M2	2	21	A4	release
121.566	n/a	RESPONSE	M2	2	00	C3	release
121.63	n/a	RESPONSE	M2	2	07	G3	release
121.979	n/a	RESPONSE	M2	2	24	C5	press
121.993	n/a	RESPONSE	M2	2	07	G3	press
122.001	n/a	RESPONSE	M2	2	00	C3	press
122.473	n/a	RESPONSE	M2	2	21	A4	press
122.664	n/a	RESPONSE	M2	2	24	C5	release
122.825	n/a	RESPONSE	M2	2	21	A4	release
122.856	n/a	RESPONSE	M2	2	07	G3	release
122.859	n/a	RESPONSE	M2	2	00	C3	release
123.0	n/a	RESPONSE	M2	2	21	A4	press
123.01	n/a	RESPONSE	M2	2	00	C3	press
123.013	n/a	RESPONSE	M2	2	07	G3	press
123.374	n/a	RESPONSE	M2	2	21	A4	release
123.894	n/a	RESPONSE	M2	2	24	C5	press
124.275	n/a	RESPONSE	M2	2	24	C5	release
124.336	n/a	RESPONSE	M2	2	00	C3	release
124.37	n/a	RESPONSE	M2	2	24	C5	press
124.399	n/a	RESPONSE	M2	2	00	C3	press
124.723	n/a	RESPONSE	M2	2	24	C5	release
124.851	n/a	RESPONSE	M2	2	19	G4	press
125.113	n/a	RESPONSE	M2	2	19	G4	release
125.194	n/a	RESPONSE	M2	2	00	C3	release
125.306	n/a	RESPONSE	M2	2	19	G4	press
125.326	n/a	RESPONSE	M2	2	00	C3	press
125.738	n/a	RESPONSE	M2	2	17	F4	press
125.789	n/a	RESPONSE	M2	2	19	G4	release
125.99	n/a	RESPONSE	M2	2	17	F4	release
126.001	n/a	RESPONSE	M2	2	07	G3	release
126.013	n/a	RESPONSE	M2	2	00	C3	release
126.174	n/a	RESPONSE	M2	2	16	E4	press
126.176	n/a	RESPONSE	M2	2	07	G3	press
126.196	n/a	RESPONSE	M2	2	00	C3	press
126.568	n/a	RESPONSE	M2	2	14	D4	press
126.659	n/a	RESPONSE	M2	2	16	E4	release
126.711	7.758	FIXCROSS	n/a	n/a	n/a	n/a	n/a
126.85	n/a	RESPONSE	M2	2	07	G3	release
126.861	n/a	RESPONSE	M2	2	00	C3	release
126.873	n/a	RESPONSE	M2	2	14	D4	release
127.054	n/a	RESPONSE	M2	2	12	C4	press
127.078	n/a	RESPONSE	M2	2	07	G3	press
127.08	n/a	RESPONSE	M2	2	00	C3	press
127.991	n/a	RESPONSE	M2	2	12	C4	release
128.093	n/a	RESPONSE	M2	2	07	G3	release
128.305	n/a	RESPONSE	M2	2	00	C3	release
134.47	6.317	CUE_LISTEN	M2	1	n/a	n/a	n/a
140.786	7.758	FIXCROSS	n/a	n/a	n/a	n/a	n/a
148.545	6.317	CUE_PLAYBACK_BOTH_HANDS	M2	1	n/a	n/a	n/a
149.014	n/a	RESPONSE	M2	1	07	G3	press
149.018	n/a	RESPONSE	M2	1	12	C4	press
149.02	n/a	RESPONSE	M2	1	00	C3	press
149.473	n/a	RESPONSE	M2	1	14	D4	press
149.544	n/a	RESPONSE	M2	1	12	C4	release
149.704	n/a	RESPONSE	M2	1	14	D4	release
149.756	n/a	RESPONSE	M2	1	00	C3	release
149.914	n/a	RESPONSE	M2	1	16	E4	press
149.924	n/a	RESPONSE	M2	1	00	C3	press
150.374	n/a	RESPONSE	M2	1	14	D4	press
150.38	n/a	RESPONSE	M2	1	16	E4	release
150.56	n/a	RESPONSE	M2	1	14	D4	release
150.599	n/a	RESPONSE	M2	1	00	C3	release
150.648	n/a	RESPONSE	M2	1	07	G3	release
150.803	n/a	RESPONSE	M2	1	16	E4	press
150.81	n/a	RESPONSE	M2	1	07	G3	press
150.819	n/a	RESPONSE	M2	1	00	C3	press
151.245	n/a	RESPONSE	M2	1	17	F4	press
151.326	n/a	RESPONSE	M2	1	16	E4	release
151.499	n/a	RESPONSE	M2	1	17	F4	release
151.54	n/a	RESPONSE	M2	1	07	G3	release
151.58	n/a	RESPONSE	M2	1	00	C3	release
151.673	n/a	RESPONSE	M2	1	19	G4	press
151.703	n/a	RESPONSE	M2	1	00	C3	press
151.705	n/a	RESPONSE	M2	1	07	G3	press
152.545	n/a	RESPONSE	M2	1	19	G4	release
152.726	n/a	RESPONSE	M2	1	00	C3	release
152.928	n/a	RESPONSE	M2	1	07	G3	release
154.861	7.758	FIXCROSS	n/a	n/a	n/a	n/a	n/a
162.62	6.325	CUE_LISTEN	M2	2	n/a	n/a	n/a
168.945	7.758	FIXCROSS	n/a	n/a	n/a	n/a	n/a
176.703	6.317	CUE_PLAYBACK_BOTH_HANDS	M2	2	n/a	n/a	n/a
177.11	n/a	RESPONSE	M2	2	00	C3	press
177.113	n/a	RESPONSE	M2	2	16	E4	press
177.115	n/a	RESPONSE	M2	2	07	G3	press
177.515	n/a	RESPONSE	M2	2	19	G4	press
177.616	n/a	RESPONSE	M2	2	16	E4	release
177.833	n/a	RESPONSE	M2	2	07	G3	release
177.835	n/a	RESPONSE	M2	2	00	C3	release
177.848	n/a	RESPONSE	M2	2	19	G4	release
177.968	n/a	RESPONSE	M2	2	19	G4	press
177.986	n/a	RESPONSE	M2	2	00	C3	press
177.996	n/a	RESPONSE	M2	2	07	G3	press
178.375	n/a	RESPONSE	M2	2	17	F4	press
178.481	n/a	RESPONSE	M2	2	19	G4	release
178.633	n/a	RESPONSE	M2	2	17	F4	release
178.696	n/a	RESPONSE	M2	2	00	C3	release
178.758	n/a	RESPONSE	M2	2	07	G3	release
178.819	n/a	RESPONSE	M2	2	16	E4	press
178.841	n/a	RESPONSE	M2	2	00	C3	press
178.85	n/a	RESPONSE	M2	2	07	G3	press
179.23	n/a	RESPONSE	M2	2	14	D4	press
179.354	n/a	RESPONSE	M2	2	16	E4	release
179.503	n/a	RESPONSE	M2	2	14	D4	release
179.505	n/a	RESPONSE	M2	2	00	C3	release
179.574	n/a	RESPONSE	M2	2	07	G3	release
179.636	n/a	RESPONSE	M2	2	12	C4	press
179.675	n/a	RESPONSE	M2	2	07	G3	press
179.689	n/a	RESPONSE	M2	2	00	C3	press
180.884	n/a	RESPONSE	M2	2	12	C4	release
180.948	n/a	RESPONSE	M2	2	07	G3	release
181.429	n/a	RESPONSE	M2	2	00	C3	release
183.02	7.758	FIXCROSS	n/a	n/a	n/a	n/a	n/a
190.778	6.317	CUE_LISTEN	M1	1	n/a	n/a	n/a
197.095	7.758	FIXCROSS	n/a	n/a	n/a	n/a	n/a
204.853	6.325	CUE_PLAYBACK_RIGHT_HAND	M1	1	n/a	n/a	n/a
205.384	n/a	RESPONSE	M1	1	19	G4	press
205.755	n/a	RESPONSE	M1	1	19	G4	release
205.859	n/a	RESPONSE	M1	1	16	E4	press
206.168	n/a	RESPONSE	M1	1	16	E4	release
206.329	n/a	RESPONSE	M1	1	16	E4	press
206.61	n/a	RESPONSE	M1	1	16	E4	release
206.741	n/a	RESPONSE	M1	1	17	F4	press
207.023	n/a	RESPONSE	M1	1	17	F4	release
207.185	n/a	RESPONSE	M1	1	14	D4	press
207.444	n/a	RESPONSE	M1	1	14	D4	release
207.61	n/a	RESPONSE	M1	1	14	D4	press
207.89	n/a	RESPONSE	M1	1	14	D4	release
208.039	n/a	RESPONSE	M1	1	12	C4	press
208.289	n/a	RESPONSE	M1	1	16	E4	press
208.409	n/a	RESPONSE	M1	1	12	C4	release
208.558	n/a	RESPONSE	M1	1	19	G4	press
208.604	n/a	RESPONSE	M1	1	16	E4	release
209.355	n/a	RESPONSE	M1	1	19	G4	release
211.178	7.758	FIXCROSS	n/a	n/a	n/a	n/a	n/a
218.936	6.317	CUE_LISTEN	M1	2	n/a	n/a	n/a
225.253	7.758	FIXCROSS	n/a	n/a	n/a	n/a	n/a
233.012	6.317	CUE_PLAYBACK_RIGHT_HAND	M1	2	n/a	n/a	n/a
233.436	n/a	RESPONSE	M1	2	19	G4	press
233.778	n/a	RESPONSE	M1	2	19	G4	release
233.859	n/a	RESPONSE	M1	2	16	E4	press
234.171	n/a	RESPONSE	M1	2	16	E4	release
234.311	n/a	RESPONSE	M1	2	16	E4	press
234.593	n/a	RESPONSE	M1	2	16	E4	release
234.724	n/a	RESPONSE	M1	2	17	F4	press
234.985	n/a	RESPONSE	M1	2	17	F4	release
235.196	n/a	RESPONSE	M1	2	14	D4	press
235.549	n/a	RESPONSE	M1	2	14	D4	release
235.62	n/a	RESPONSE	M1	2	14	D4	press
235.9	n/a	RESPONSE	M1	2	14	D4	release
236.041	n/a	RESPONSE	M1	2	12	C4	press
236.213	n/a	RESPONSE	M1	2	16	E4	press
236.294	n/a	RESPONSE	M1	2	12	C4	release
236.445	n/a	RESPONSE	M1	2	12	C4	press
236.479	n/a	RESPONSE	M1	2	16	E4	release
237.606	n/a	RESPONSE	M1	2	12	C4	release
239.328	7.758	FIXCROSS	n/a	n/a	n/a	n/a	n/a
247.086	6.325	CUE_LISTEN	M3	1	n/a	n/a	n/a
253.412	7.758	FIXCROSS	n/a	n/a	n/a	n/a	n/a
261.17	6.317	CUE_PLAYBACK_RIGHT_HAND	M3	1	n/a	n/a	n/a
261.67	n/a	RESPONSE	M3	1	12	C4	press
262.181	n/a	RESPONSE	M3	1	12	C4	release
262.184	n/a	RESPONSE	M3	1	14	D4	press
262.626	n/a	RESPONSE	M3	1	16	E4	press
262.725	n/a	RESPONSE	M3	1	14	D4	release
263.116	n/a	RESPONSE	M3	1	16	E4	release
263.119	n/a	RESPONSE	M3	1	12	C4	press
263.399	n/a	RESPONSE	M3	1	12	C4	release
263.61	n/a	RESPONSE	M3	1	12	C4	press
264.121	n/a	RESPONSE	M3	1	14	D4	press
264.203	n/a	RESPONSE	M3	1	12	C4	release
264.564	n/a	RESPONSE	M3	1	16	E4	press
264.566	n/a	RESPONSE	M3	1	14	D4	release
265.029	n/a	RESPONSE	M3	1	16	E4	release
265.038	n/a	RESPONSE	M3	1	12	C4	press
265.57	n/a	RESPONSE	M3	1	12	C4	release
267.486	7.758	FIXCROSS	n/a	n/a	n/a	n/a	n/a
275.245	6.325	CUE_LISTEN	M3	2	n/a	n/a	n/a
281.57	7.758	FIXCROSS	n/a	n/a	n/a	n/a	n/a
289.328	6.317	CUE_PLAYBACK_RIGHT_HAND	M3	2	n/a	n/a	n/a
289.708	n/a	RESPONSE	M3	2	16	E4	press
290.113	n/a	RESPONSE	M3	2	16	E4	release
290.171	n/a	RESPONSE	M3	2	17	F4	press
290.553	n/a	RESPONSE	M3	2	17	F4	release
290.659	n/a	RESPONSE	M3	2	19	G4	press
291.275	n/a	RESPONSE	M3	2	19	G4	release
291.546	n/a	RESPONSE	M3	2	16	E4	press
291.948	n/a	RESPONSE	M3	2	16	E4	release
292.019	n/a	RESPONSE	M3	2	17	F4	press
292.41	n/a	RESPONSE	M3	2	17	F4	release
292.451	n/a	RESPONSE	M3	2	19	G4	press
293.253	n/a	RESPONSE	M3	2	19	G4	release
295.645	7.758	FIXCROSS	n/a	n/a	n/a	n/a	n/a
303.403	6.317	CUE_LISTEN	M3	1	n/a	n/a	n/a
309.72	7.758	FIXCROSS	n/a	n/a	n/a	n/a	n/a
317.478	6.325	CUE_PLAYBACK_RIGHT_HAND	M3	1	n/a	n/a	n/a
317.808	n/a	RESPONSE	M3	1	19	G4	press
318.115	n/a	RESPONSE	M3	1	21	A4	press
318.263	n/a	RESPONSE	M3	1	19	G4	release
318.408	n/a	RESPONSE	M3	1	19	G4	press
318.448	n/a	RESPONSE	M3	1	21	A4	release
318.659	n/a	RESPONSE	M3	1	17	F4	press
318.763	n/a	RESPONSE	M3	1	19	G4	release
318.938	n/a	RESPONSE	M3	1	16	E4	press
319.011	n/a	RESPONSE	M3	1	17	F4	release
319.285	n/a	RESPONSE	M3	1	16	E4	release
319.423	n/a	RESPONSE	M3	1	12	C4	press
319.761	n/a	RESPONSE	M3	1	12	C4	release
319.869	n/a	RESPONSE	M3	1	19	G4	press
320.088	n/a	RESPONSE	M3	1	21	A4	press
320.123	n/a	RESPONSE	M3	1	19	G4	release
320.3	n/a	RESPONSE	M3	1	19	G4	press
320.531	n/a	RESPONSE	M3	1	17	F4	press
320.558	n/a	RESPONSE	M3	1	21	A4	release
320.6	n/a	RESPONSE	M3	1	19	G4	release
320.754	n/a	RESPONSE	M3	1	16	E4	press
320.849	n/a	RESPONSE	M3	1	17	F4	release
321.09	n/a	RESPONSE	M3	1	16	E4	release
321.16	n/a	RESPONSE	M3	1	12	C4	press
321.671	n/a	RESPONSE	M3	1	12	C4	release
323.803	7.759	FIXCROSS	n/a	n/a	n/a	n/a	n/a
331.562	6.317	CUE_LISTEN	M3	2	n/a	n/a	n/a
337.878	7.758	FIXCROSS	n/a	n/a	n/a	n/a	n/a
345.637	6.317	CUE_PLAYBACK_RIGHT_HAND	M3	2	n/a	n/a	n/a
346.055	n/a	RESPONSE	M3	2	12	C4	press
346.305	n/a	RESPONSE	M3	2	12	C4	release
346.639	n/a	RESPONSE	M3	2	09	A3	press
346.658	n/a	RESPONSE	M3	2	07	G3	press
346.959	n/a	RESPONSE	M3	2	09	A3	release
347.06	n/a	RESPONSE	M3	2	07	G3	release
347.795	n/a	RESPONSE	M3	2	14	D4	press
348.098	n/a	RESPONSE	M3	2	14	D4	release
348.754	n/a	RESPONSE	M3	2	12	C4	press
349.078	n/a	RESPONSE	M3	2	12	C4	release
349.231	n/a	RESPONSE	M3	2	07	G3	press
349.543	n/a	RESPONSE	M3	2	07	G3	release
349.643	n/a	RESPONSE	M3	2	12	C4	press
350.323	n/a	RESPONSE	M3	2	12	C4	release
350.525	n/a	RESPONSE	M3	2	12	C4	press
350.971	n/a	RESPONSE	M3	2	07	G3	press
351.003	n/a	RESPONSE	M3	2	12	C4	release
351.323	n/a	RESPONSE	M3	2	07	G3	release
351.381	n/a	RESPONSE	M3	2	12	C4	press
351.953	7.758	FIXCROSS	n/a	n/a	n/a	n/a	n/a
352.003	n/a	RESPONSE	M3	2	12	C4	release
359.712	6.325	CUE_LISTEN	M1	1	n/a	n/a	n/a
366.037	7.759	FIXCROSS	n/a	n/a	n/a	n/a	n/a
373.795	6.317	CUE_PLAYBACK_BOTH_HANDS	M1	1	n/a	n/a	n/a
374.186	n/a	RESPONSE	M1	1	19	G4	press
374.218	n/a	RESPONSE	M1	1	04	E3	press
374.229	n/a	RESPONSE	M1	1	07	G3	press
374.231	n/a	RESPONSE	M1	1	00	C3	press
374.671	n/a	RESPONSE	M1	1	19	G4	release
374.695	n/a	RESPONSE	M1	1	16	E4	press
374.974	n/a	RESPONSE	M1	1	04	E3	release
375.015	n/a	RESPONSE	M1	1	16	E4	release
375.086	n/a	RESPONSE	M1	1	07	G3	release
375.098	n/a	RESPONSE	M1	1	00	C3	release
375.219	n/a	RESPONSE	M1	1	16	E4	press
375.583	n/a	RESPONSE	M1	1	16	E4	release
375.853	n/a	RESPONSE	M1	1	17	F4	press
376.003	n/a	RESPONSE	M1	1	17	F4	release
376.256	n/a	RESPONSE	M1	1	02	D3	press
376.265	n/a	RESPONSE	M1	1	05	F3	press
376.268	n/a	RESPONSE	M1	1	17	F4	press
376.33	n/a	RESPONSE	M1	1	07	G3	press
376.759	n/a	RESPONSE	M1	1	17	F4	release
376.81	n/a	RESPONSE	M1	1	14	D4	press
376.864	n/a	RESPONSE	M1	1	07	G3	release
376.923	n/a	RESPONSE	M1	1	05	F3	release
377.084	n/a	RESPONSE	M1	1	02	D3	release
377.108	n/a	RESPONSE	M1	1	14	D4	release
377.319	n/a	RESPONSE	M1	1	14	D4	press
377.606	n/a	RESPONSE	M1	1	14	D4	release
377.793	n/a	RESPONSE	M1	1	07	G3	press
377.824	n/a	RESPONSE	M1	1	04	E3	press
377.826	n/a	RESPONSE	M1	1	12	C4	press
377.844	n/a	RESPONSE	M1	1	00	C3	press
378.098	n/a	RESPONSE	M1	1	16	E4	press
378.103	n/a	RESPONSE	M1	1	02	D3	press
378.201	n/a	RESPONSE	M1	1	12	C4	release
378.31	n/a	RESPONSE	M1	1	00	C3	release
378.335	n/a	RESPONSE	M1	1	16	E4	release
378.366	n/a	RESPONSE	M1	1	12	C4	press
378.401	n/a	RESPONSE	M1	1	02	D3	release
378.634	n/a	RESPONSE	M1	1	04	E3	release
378.714	n/a	RESPONSE	M1	1	12	C4	release
378.728	n/a	RESPONSE	M1	1	07	G3	release
379.821	n/a	RESPONSE	M1	1	19	G4	press
379.845	n/a	RESPONSE	M1	1	07	G3	press
379.86	n/a	RESPONSE	M1	1	02	D3	press
379.868	n/a	RESPONSE	M1	1	04	E3	press
380.112	7.758	FIXCROSS	n/a	n/a	n/a	n/a	n/a
380.22	n/a	RESPONSE	M1	1	19	G4	release
380.394	n/a	RESPONSE	M1	1	02	D3	release
380.51	n/a	RESPONSE	M1	1	07	G3	release
380.513	n/a	RESPONSE	M1	1	04	E3	release
387.87	6.317	CUE_LISTEN	M1	2	n/a	n/a	n/a
394.187	7.767	FIXCROSS	n/a	n/a	n/a	n/a	n/a
401.954	6.317	CUE_PLAYBACK_BOTH_HANDS	M1	2	n/a	n/a	n/a
402.299	n/a	RESPONSE	M1	2	19	G4	press
402.31	n/a	RESPONSE	M1	2	07	G3	press
402.324	n/a	RESPONSE	M1	2	04	E3	press
402.333	n/a	RESPONSE	M1	2	00	C3	press
402.705	n/a	RESPONSE	M1	2	19	G4	release
402.736	n/a	RESPONSE	M1	2	16	E4	press
403.026	n/a	RESPONSE	M1	2	16	E4	release
403.228	n/a	RESPONSE	M1	2	16	E4	press
403.49	n/a	RESPONSE	M1	2	16	E4	release
403.521	n/a	RESPONSE	M1	2	00	C3	release
403.524	n/a	RESPONSE	M1	2	04	E3	release
403.613	n/a	RESPONSE	M1	2	07	G3	release
403.675	n/a	RESPONSE	M1	2	17	F4	press
403.678	n/a	RESPONSE	M1	2	02	D3	press
403.698	n/a	RESPONSE	M1	2	05	F3	press
403.7	n/a	RESPONSE	M1	2	07	G3	press
404.019	n/a	RESPONSE	M1	2	17	F4	release
404.153	n/a	RESPONSE	M1	2	14	D4	press
404.431	n/a	RESPONSE	M1	2	14	D4	release
404.613	n/a	RESPONSE	M1	2	14	D4	press
404.844	n/a	RESPONSE	M1	2	05	F3	release
404.855	n/a	RESPONSE	M1	2	14	D4	release
404.906	n/a	RESPONSE	M1	2	07	G3	release
404.928	n/a	RESPONSE	M1	2	02	D3	release
405.049	n/a	RESPONSE	M1	2	07	G3	press
405.051	n/a	RESPONSE	M1	2	04	E3	press
405.071	n/a	RESPONSE	M1	2	00	C3	press
405.103	n/a	RESPONSE	M1	2	12	C4	press
405.324	n/a	RESPONSE	M1	2	16	E4	press
405.386	n/a	RESPONSE	M1	2	12	C4	release
405.576	n/a	RESPONSE	M1	2	16	E4	release
405.579	n/a	RESPONSE	M1	2	12	C4	press
406.639	n/a	RESPONSE	M1	2	12	C4	release
406.76	n/a	RESPONSE	M1	2	04	E3	release
406.913	n/a	RESPONSE	M1	2	00	C3	release
406.933	n/a	RESPONSE	M1	2	07	G3	release
408.27	7.758	FIXCROSS	n/a	n/a	n/a	n/a	n/a
416.029	6.317	CUE_LISTEN	M2	1	n/a	n/a	n/a
422.345	7.758	FIXCROSS	n/a	n/a	n/a	n/a	n/a
430.104	6.317	CUE_PLAYBACK_RIGHT_HAND	M2	1	n/a	n/a	n/a
430.511	n/a	RESPONSE	M2	1	24	C5	press
431.071	n/a	RESPONSE	M2	1	24	C5	release
431.215	n/a	RESPONSE	M2	1	21	A4	press
431.614	n/a	RESPONSE	M2	1	21	A4	release
432.535	n/a	RESPONSE	M2	1	24	C5	press
432.946	n/a	RESPONSE	M2	1	21	A4	press
433.018	n/a	RESPONSE	M2	1	24	C5	release
433.221	n/a	RESPONSE	M2	1	21	A4	release
433.44	n/a	RESPONSE	M2	1	21	A4	press
433.833	n/a	RESPONSE	M2	1	19	G4	press
433.915	n/a	RESPONSE	M2	1	21	A4	release
434.095	n/a	RESPONSE	M2	1	19	G4	release
434.215	n/a	RESPONSE	M2	1	16	E4	press
434.606	n/a	RESPONSE	M2	1	19	G4	press
434.609	n/a	RESPONSE	M2	1	16	E4	release
434.871	n/a	RESPONSE	M2	1	19	G4	release
435.753	n/a	RESPONSE	M2	1	14	D4	press
435.781	n/a	RESPONSE	M2	1	16	E4	press
435.995	n/a	RESPONSE	M2	1	16	E4	release
436.42	7.758	FIXCROSS	n/a	n/a	n/a	n/a	n/a
436.486	n/a	RESPONSE	M2	1	14	D4	release
436.545	n/a	RESPONSE	M2	1	17	F4	press
436.548	n/a	RESPONSE	M2	1	16	E4	press
436.668	n/a	RESPONSE	M2	1	16	E4	release
436.709	n/a	RESPONSE	M2	1	17	F4	release
444.179	6.325	CUE_LISTEN	M2	2	n/a	n/a	n/a
450.504	7.758	FIXCROSS	n/a	n/a	n/a	n/a	n/a
458.262	6.317	CUE_PLAYBACK_RIGHT_HAND	M2	2	n/a	n/a	n/a
458.56	n/a	RESPONSE	M2	2	24	C5	press
458.956	n/a	RESPONSE	M2	2	21	A4	press
459.181	n/a	RESPONSE	M2	2	24	C5	release
459.278	n/a	RESPONSE	M2	2	21	A4	release
459.418	n/a	RESPONSE	M2	2	21	A4	press
459.836	n/a	RESPONSE	M2	2	19	G4	press
459.915	n/a	RESPONSE	M2	2	21	A4	release
460.099	n/a	RESPONSE	M2	2	19	G4	release
460.266	n/a	RESPONSE	M2	2	17	F4	press
460.798	n/a	RESPONSE	M2	2	16	E4	press
460.984	n/a	RESPONSE	M2	2	17	F4	release
461.248	n/a	RESPONSE	M2	2	16	E4	release
461.339	n/a	RESPONSE	M2	2	14	D4	press
462.363	n/a	RESPONSE	M2	2	14	D4	release
464.579	7.759	FIXCROSS	n/a	n/a	n/a	n/a	n/a
472.337	6.325	CUE_LISTEN	M2	1	n/a	n/a	n/a
478.662	7.758	FIXCROSS	n/a	n/a	n/a	n/a	n/a
486.42	6.317	CUE_PLAYBACK_RIGHT_HAND	M2	1	n/a	n/a	n/a
486.793	n/a	RESPONSE	M2	1	12	C4	press
487.244	n/a	RESPONSE	M2	1	14	D4	press
487.306	n/a	RESPONSE	M2	1	12	C4	release
487.613	n/a	RESPONSE	M2	1	16	E4	press
487.626	n/a	RESPONSE	M2	1	14	D4	release
488.031	n/a	RESPONSE	M2	1	14	D4	press
488.048	n/a	RESPONSE	M2	1	16	E4	release
488.393	n/a	RESPONSE	M2	1	16	E4	press
488.445	n/a	RESPONSE	M2	1	14	D4	release
488.771	n/a	RESPONSE	M2	1	17	F4	press
488.854	n/a	RESPONSE	M2	1	16	E4	release
489.136	n/a	RESPONSE	M2	1	19	G4	press
489.234	n/a	RESPONSE	M2	1	17	F4	release
490.148	n/a	RESPONSE	M2	1	19	G4	release
492.737	7.758	FIXCROSS	n/a	n/a	n/a	n/a	n/a
500.495	6.317	CUE_LISTEN	M2	2	n/a	n/a	n/a
506.812	7.758	FIXCROSS	n/a	n/a	n/a	n/a	n/a
514.571	6.325	CUE_PLAYBACK_RIGHT_HAND	M2	2	n/a	n/a	n/a
514.919	n/a	RESPONSE	M2	2	16	E4	press
515.358	n/a	RESPONSE	M2	2	16	E4	release
515.389	n/a	RESPONSE	M2	2	19	G4	press
515.713	n/a	RESPONSE	M2	2	19	G4	release
515.831	n/a	RESPONSE	M2	2	19	G4	press
516.193	n/a	RESPONSE	M2	2	19	G4	release
516.254	n/a	RESPONSE	M2	2	17	F4	press
516.565	n/a	RESPONSE	M2	2	17	F4	release
516.666	n/a	RESPONSE	M2	2	16	E4	press
517.048	n/a	RESPONSE	M2	2	14	D4	press
517.079	n/a	RESPONSE	M2	2	16	E4	release
517.37	n/a	RESPONSE	M2	2	14	D4	release
517.451	n/a	RESPONSE	M2	2	11	B3	press
517.47	n/a	RESPONSE	M2	2	12	C4	press
517.693	n/a	RESPONSE	M2	2	11	B3	release
518.059	n/a	RESPONSE	M2	2	12	C4	release
518.19	n/a	RESPONSE	M2	2	12	C4	press
518.674	n/a	RESPONSE	M2	2	12	C4	release
520.895	7.759	FIXCROSS	n/a	n/a	n/a	n/a	n/a
528.654	6.317	CUE_LISTEN	M3	1	n/a	n/a	n/a
534.97	7.758	FIXCROSS	n/a	n/a	n/a	n/a	n/a
542.729	6.317	CUE_PLAYBACK_BOTH_HANDS	M3	1	n/a	n/a	n/a
543.099	n/a	RESPONSE	M3	1	00	C3	press
543.103	n/a	RESPONSE	M3	1	12	C4	press
543.611	n/a	RESPONSE	M3	1	07	G3	press
543.615	n/a	RESPONSE	M3	1	14	D4	press
543.634	n/a	RESPONSE	M3	1	12	C4	release
543.805	n/a	RESPONSE	M3	1	00	C3	release
544.056	n/a	RESPONSE	M3	1	16	E4	press
544.078	n/a	RESPONSE	M3	1	04	E3	press
544.099	n/a	RESPONSE	M3	1	14	D4	release
544.11	n/a	RESPONSE	M3	1	07	G3	release
544.531	n/a	RESPONSE	M3	1	07	G3	press
544.534	n/a	RESPONSE	M3	1	12	C4	press
544.584	n/a	RESPONSE	M3	1	16	E4	release
544.695	n/a	RESPONSE	M3	1	04	E3	release
544.856	n/a	RESPONSE	M3	1	12	C4	release
544.898	n/a	RESPONSE	M3	1	07	G3	release
544.981	n/a	RESPONSE	M3	1	00	C3	press
544.99	n/a	RESPONSE	M3	1	12	C4	press
545.441	n/a	RESPONSE	M3	1	14	D4	press
545.444	n/a	RESPONSE	M3	1	07	G3	press
545.486	n/a	RESPONSE	M3	1	12	C4	release
545.875	n/a	RESPONSE	M3	1	16	E4	press
545.878	n/a	RESPONSE	M3	1	04	E3	press
545.948	n/a	RESPONSE	M3	1	14	D4	release
545.95	n/a	RESPONSE	M3	1	07	G3	release
546.071	n/a	RESPONSE	M3	1	00	C3	release
546.303	n/a	RESPONSE	M3	1	07	G3	press
546.323	n/a	RESPONSE	M3	1	12	C4	press
546.375	n/a	RESPONSE	M3	1	16	E4	release
546.385	n/a	RESPONSE	M3	1	04	E3	release
547.076	n/a	RESPONSE	M3	1	07	G3	release
547.139	n/a	RESPONSE	M3	1	12	C4	release
549.046	7.758	FIXCROSS	n/a	n/a	n/a	n/a	n/a
556.804	6.325	CUE_LISTEN	M3	2	n/a	n/a	n/a
563.129	7.759	FIXCROSS	n/a	n/a	n/a	n/a	n/a
570.887	6.317	CUE_PLAYBACK_BOTH_HANDS	M3	2	n/a	n/a	n/a
571.213	n/a	RESPONSE	M3	2	16	E4	press
571.215	n/a	RESPONSE	M3	2	00	C3	press
571.636	n/a	RESPONSE	M3	2	16	E4	release
571.668	n/a	RESPONSE	M3	2	17	F4	press
571.67	n/a	RESPONSE	M3	2	07	G3	press
571.91	n/a	RESPONSE	M3	2	00	C3	release
572.081	n/a	RESPONSE	M3	2	19	G4	press
572.084	n/a	RESPONSE	M3	2	17	F4	release
572.134	n/a	RESPONSE	M3	2	04	E3	press
572.165	n/a	RESPONSE	M3	2	07	G3	release
572.546	n/a	RESPONSE	M3	2	07	G3	press
572.668	n/a	RESPONSE	M3	2	04	E3	release
572.769	n/a	RESPONSE	M3	2	19	G4	release
572.841	n/a	RESPONSE	M3	2	07	G3	release
572.924	n/a	RESPONSE	M3	2	16	E4	press
572.963	n/a	RESPONSE	M3	2	00	C3	press
573.374	n/a	RESPONSE	M3	2	17	F4	press
573.395	n/a	RESPONSE	M3	2	07	G3	press
573.456	n/a	RESPONSE	M3	2	16	E4	release
573.818	n/a	RESPONSE	M3	2	19	G4	press
573.82	n/a	RESPONSE	M3	2	04	E3	press
573.85	n/a	RESPONSE	M3	2	07	G3	release
573.891	n/a	RESPONSE	M3	2	17	F4	release
574.213	n/a	RESPONSE	M3	2	07	G3	press
574.254	n/a	RESPONSE	M3	2	04	E3	release
574.275	n/a	RESPONSE	M3	2	00	C3	release
574.466	n/a	RESPONSE	M3	2	19	G4	release
574.528	n/a	RESPONSE	M3	2	07	G3	release
577.204	7.758	FIXCROSS	n/a	n/a	n/a	n/a	n/a
584.962	6.317	CUE_LISTEN	M3	1	n/a	n/a	n/a
591.279	7.758	FIXCROSS	n/a	n/a	n/a	n/a	n/a
599.037	6.325	CUE_PLAYBACK_BOTH_HANDS	M3	1	n/a	n/a	n/a
599.391	n/a	RESPONSE	M3	1	00	C3	press
599.405	n/a	RESPONSE	M3	1	19	G4	press
599.679	n/a	RESPONSE	M3	1	21	A4	press
599.719	n/a	RESPONSE	M3	1	19	G4	release
599.909	n/a	RESPONSE	M3	1	07	G3	press
599.946	n/a	RESPONSE	M3	1	19	G4	press
600.036	n/a	RESPONSE	M3	1	21	A4	release
600.181	n/a	RESPONSE	M3	1	17	F4	press
600.19	n/a	RESPONSE	M3	1	00	C3	release
600.251	n/a	RESPONSE	M3	1	19	G4	release
600.341	n/a	RESPONSE	M3	1	07	G3	release
600.348	n/a	RESPONSE	M3	1	04	E3	press
600.464	n/a	RESPONSE	M3	1	16	E4	press
600.6	n/a	RESPONSE	M3	1	17	F4	release
600.87	n/a	RESPONSE	M3	1	12	C4	press
600.873	n/a	RESPONSE	M3	1	07	G3	press
600.875	n/a	RESPONSE	M3	1	04	E3	release
600.88	n/a	RESPONSE	M3	1	16	E4	release
601.325	n/a	RESPONSE	M3	1	12	C4	release
601.346	n/a	RESPONSE	M3	1	07	G3	release
601.349	n/a	RESPONSE	M3	1	19	G4	press
601.359	n/a	RESPONSE	M3	1	00	C3	press
601.59	n/a	RESPONSE	M3	1	21	A4	press
601.641	n/a	RESPONSE	M3	1	19	G4	release
601.754	n/a	RESPONSE	M3	1	07	G3	press
601.844	n/a	RESPONSE	M3	1	19	G4	press
602.035	n/a	RESPONSE	M3	1	17	F4	press
602.196	n/a	RESPONSE	M3	1	19	G4	release
602.229	n/a	RESPONSE	M3	1	04	E3	press
602.259	n/a	RESPONSE	M3	1	16	E4	press
602.28	n/a	RESPONSE	M3	1	21	A4	release
602.284	n/a	RESPONSE	M3	1	07	G3	release
602.403	n/a	RESPONSE	M3	1	17	F4	release
602.665	n/a	RESPONSE	M3	1	12	C4	press
602.675	n/a	RESPONSE	M3	1	07	G3	press
602.696	n/a	RESPONSE	M3	1	16	E4	release
602.718	n/a	RESPONSE	M3	1	04	E3	release
602.779	n/a	RESPONSE	M3	1	00	C3	release
603.401	n/a	RESPONSE	M3	1	12	C4	release
603.411	n/a	RESPONSE	M3	1	07	G3	release
605.362	7.758	FIXCROSS	n/a	n/a	n/a	n/a	n/a
613.121	6.317	CUE_LISTEN	M3	2	n/a	n/a	n/a
619.437	7.758	FIXCROSS	n/a	n/a	n/a	n/a	n/a
627.196	6.317	CUE_PLAYBACK_BOTH_HANDS	M3	2	n/a	n/a	n/a
627.584	n/a	RESPONSE	M3	2	00	C3	press
627.586	n/a	RESPONSE	M3	2	12	C4	press
628.039	n/a	RESPONSE	M3	2	07	G3	press
628.049	n/a	RESPONSE	M3	2	12	C4	release
628.16	n/a	RESPONSE	M3	2	00	C3	release
628.374	n/a	RESPONSE	M3	2	07	G3	release
628.471	n/a	RESPONSE	M3	2	12	C4	press
628.476	n/a	RESPONSE	M3	2	00	C3	press
629.195	n/a	RESPONSE	M3	2	12	C4	release
629.219	n/a	RESPONSE	M3	2	00	C3	release
629.466	n/a	RESPONSE	M3	2	12	C4	press
629.473	n/a	RESPONSE	M3	2	00	C3	press
629.885	n/a	RESPONSE	M3	2	12	C4	release
629.91	n/a	RESPONSE	M3	2	07	G3	press
630.161	n/a	RESPONSE	M3	2	00	C3	release
630.176	n/a	RESPONSE	M3	2	07	G3	release
630.313	n/a	RESPONSE	M3	2	12	C4	press
630.323	n/a	RESPONSE	M3	2	00	C3	press
631.199	n/a	RESPONSE	M3	2	12	C4	release
631.27	n/a	RESPONSE	M3	2	00	C3	release
633.512	7.758	FIXCROSS	n/a	n/a	n/a	n/a	n/a
641.271	6.325	CUE_LISTEN	M1	1	n/a	n/a	n/a
647.596	7.758	FIXCROSS	n/a	n/a	n/a	n/a	n/a
655.354	6.317	CUE_PLAYBACK_BOTH_HANDS	M1	1	n/a	n/a	n/a
655.716	n/a	RESPONSE	M1	1	19	G4	press
655.719	n/a	RESPONSE	M1	1	00	C3	press
655.721	n/a	RESPONSE	M1	1	07	G3	press
655.74	n/a	RESPONSE	M1	1	04	E3	press
656.211	n/a	RESPONSE	M1	1	16	E4	press
656.233	n/a	RESPONSE	M1	1	19	G4	release
656.536	n/a	RESPONSE	M1	1	04	E3	release
656.545	n/a	RESPONSE	M1	1	16	E4	release
656.588	n/a	RESPONSE	M1	1	00	C3	release
656.59	n/a	RESPONSE	M1	1	07	G3	release
656.71	n/a	RESPONSE	M1	1	16	E4	press
657.03	n/a	RESPONSE	M1	1	16	E4	release
657.151	n/a	RESPONSE	M1	1	17	F4	press
657.154	n/a	RESPONSE	M1	1	07	G3	press
657.156	n/a	RESPONSE	M1	1	04	E3	press
657.245	n/a	RESPONSE	M1	1	02	D3	press
657.685	n/a	RESPONSE	M1	1	04	E3	release
657.711	n/a	RESPONSE	M1	1	14	D4	press
657.75	n/a	RESPONSE	M1	1	02	D3	release
657.784	n/a	RESPONSE	M1	1	17	F4	release
657.844	n/a	RESPONSE	M1	1	07	G3	release
658.041	n/a	RESPONSE	M1	1	14	D4	release
658.206	n/a	RESPONSE	M1	1	14	D4	press
658.456	n/a	RESPONSE	M1	1	14	D4	release
658.616	n/a	RESPONSE	M1	1	07	G3	press
658.631	n/a	RESPONSE	M1	1	00	C3	press
658.639	n/a	RESPONSE	M1	1	12	C4	press
658.641	n/a	RESPONSE	M1	1	02	D3	press
658.928	n/a	RESPONSE	M1	1	16	E4	press
658.969	n/a	RESPONSE	M1	1	12	C4	release
659.175	n/a	RESPONSE	M1	1	19	G4	press
659.22	n/a	RESPONSE	M1	1	16	E4	release
659.701	n/a	RESPONSE	M1	1	07	G3	release
659.72	n/a	RESPONSE	M1	1	02	D3	release
659.856	n/a	RESPONSE	M1	1	19	G4	release
659.956	n/a	RESPONSE	M1	1	00	C3	release
661.671	7.758	FIXCROSS	n/a	n/a	n/a	n/a	n/a
669.429	6.317	CUE_LISTEN	M1	2	n/a	n/a	n/a
675.746	7.758	FIXCROSS	n/a	n/a	n/a	n/a	n/a
683.504	6.325	CUE_PLAYBACK_BOTH_HANDS	M1	2	n/a	n/a	n/a
683.999	n/a	RESPONSE	M1	2	04	E3	press
684.013	n/a	RESPONSE	M1	2	07	G3	press
684.021	n/a	RESPONSE	M1	2	16	E4	press
684.033	n/a	RESPONSE	M1	2	19	G4	press
684.384	n/a	RESPONSE	M1	2	19	G4	release
684.465	n/a	RESPONSE	M1	2	16	E4	release
684.658	n/a	RESPONSE	M1	2	04	E3	release
684.728	n/a	RESPONSE	M1	2	19	G4	press
684.759	n/a	RESPONSE	M1	2	04	E3	press
684.78	n/a	RESPONSE	M1	2	00	C3	press
685.181	n/a	RESPONSE	M1	2	19	G4	release
685.203	n/a	RESPONSE	M1	2	16	E4	press
685.414	n/a	RESPONSE	M1	2	07	G3	release
685.455	n/a	RESPONSE	M1	2	16	E4	release
685.466	n/a	RESPONSE	M1	2	04	E3	release
685.518	n/a	RESPONSE	M1	2	00	C3	release
685.611	n/a	RESPONSE	M1	2	16	E4	press
685.84	n/a	RESPONSE	M1	2	16	E4	release
686.031	n/a	RESPONSE	M1	2	17	F4	press
686.034	n/a	RESPONSE	M1	2	02	D3	press
686.054	n/a	RESPONSE	M1	2	05	F3	press
686.078	n/a	RESPONSE	M1	2	07	G3	press
686.406	n/a	RESPONSE	M1	2	17	F4	release
686.459	n/a	RESPONSE	M1	2	07	G3	release
686.469	n/a	RESPONSE	M1	2	14	D4	press
686.711	n/a	RESPONSE	M1	2	14	D4	release
686.881	n/a	RESPONSE	M1	2	14	D4	press
686.992	n/a	RESPONSE	M1	2	05	F3	release
687.015	n/a	RESPONSE	M1	2	02	D3	release
687.095	n/a	RESPONSE	M1	2	14	D4	release
687.276	n/a	RESPONSE	M1	2	00	C3	press
687.279	n/a	RESPONSE	M1	2	07	G3	press
687.281	n/a	RESPONSE	M1	2	04	E3	press
687.31	n/a	RESPONSE	M1	2	12	C4	press
687.49	n/a	RESPONSE	M1	2	16	E4	press
687.576	n/a	RESPONSE	M1	2	12	C4	release
687.734	n/a	RESPONSE	M1	2	12	C4	press
687.774	n/a	RESPONSE	M1	2	16	E4	release
688.868	n/a	RESPONSE	M1	2	12	C4	release
688.873	n/a	RESPONSE	M1	2	04	E3	release
689.069	n/a	RESPONSE	M1	2	07	G3	release
689.075	n/a	RESPONSE	M1	2	00	C3	release
689.829	7.758	FIXCROSS	n/a	n/a	n/a	n/a	n/a
697.588	6.325	CUE_LISTEN	M2	1	n/a	n/a	n/a
703.912	7.758	FIXCROSS	n/a	n/a	n/a	n/a	n/a
711.671	6.308	CUE_PLAYBACK_BOTH_HANDS	M2	1	n/a	n/a	n/a
712.033	n/a	RESPONSE	M2	1	24	C5	press
712.044	n/a	RESPONSE	M2	1	00	C3	press
712.048	n/a	RESPONSE	M2	1	07	G3	press
712.496	n/a	RESPONSE	M2	1	21	A4	press
712.59	n/a	RESPONSE	M2	1	24	C5	release
712.799	n/a	RESPONSE	M2	1	21	A4	release
712.86	n/a	RESPONSE	M2	1	00	C3	release
712.891	n/a	RESPONSE	M2	1	07	G3	release
712.953	n/a	RESPONSE	M2	1	21	A4	press
712.984	n/a	RESPONSE	M2	1	00	C3	press
712.986	n/a	RESPONSE	M2	1	07	G3	press
713.246	n/a	RESPONSE	M2	1	21	A4	release
713.368	n/a	RESPONSE	M2	1	19	G4	press
713.681	n/a	RESPONSE	M2	1	19	G4	release
713.73	n/a	RESPONSE	M2	1	07	G3	release
713.741	n/a	RESPONSE	M2	1	00	C3	release
714.503	n/a	RESPONSE	M2	1	00	C3	press
714.505	n/a	RESPONSE	M2	1	19	G4	press
714.515	n/a	RESPONSE	M2	1	07	G3	press
714.856	n/a	RESPONSE	M2	1	17	F4	press
714.918	n/a	RESPONSE	M2	1	19	G4	release
715.18	n/a	RESPONSE	M2	1	17	F4	release
715.211	n/a	RESPONSE	M2	1	00	C3	release
715.251	n/a	RESPONSE	M2	1	16	E4	press
715.272	n/a	RESPONSE	M2	1	07	G3	release
715.536	n/a	RESPONSE	M2	1	16	E4	release
716.055	n/a	RESPONSE	M2	1	14	D4	press
716.099	n/a	RESPONSE	M2	1	07	G3	press
716.128	n/a	RESPONSE	M2	1	00	C3	press
716.449	n/a	RESPONSE	M2	1	17	F4	press
716.53	n/a	RESPONSE	M2	1	14	D4	release
716.784	n/a	RESPONSE	M2	1	19	G4	press
716.793	n/a	RESPONSE	M2	1	17	F4	release
716.856	n/a	RESPONSE	M2	1	07	G3	release
717.54	n/a	RESPONSE	M2	1	19	G4	release
717.934	n/a	RESPONSE	M2	1	00	C3	release
717.979	7.758	FIXCROSS	n/a	n/a	n/a	n/a	n/a
725.738	6.325	CUE_LISTEN	M2	2	n/a	n/a	n/a
732.062	7.759	FIXCROSS	n/a	n/a	n/a	n/a	n/a
739.821	6.325	CUE_PLAYBACK_BOTH_HANDS	M2	2	n/a	n/a	n/a
740.189	n/a	RESPONSE	M2	2	21	A4	press
740.235	n/a	RESPONSE	M2	2	04	E3	press
740.239	n/a	RESPONSE	M2	2	07	G3	press
740.248	n/a	RESPONSE	M2	2	00	C3	press
740.674	n/a	RESPONSE	M2	2	17	F4	press
740.775	n/a	RESPONSE	M2	2	21	A4	release
741.021	n/a	RESPONSE	M2	2	17	F4	release
741.035	n/a	RESPONSE	M2	2	00	C3	release
741.05	n/a	RESPONSE	M2	2	07	G3	release
741.079	n/a	RESPONSE	M2	2	04	E3	release
741.173	n/a	RESPONSE	M2	2	17	F4	press
741.193	n/a	RESPONSE	M2	2	04	E3	press
741.195	n/a	RESPONSE	M2	2	07	G3	press
741.214	n/a	RESPONSE	M2	2	00	C3	press
741.576	n/a	RESPONSE	M2	2	16	E4	press
741.656	n/a	RESPONSE	M2	2	17	F4	release
741.82	n/a	RESPONSE	M2	2	16	E4	release
741.849	n/a	RESPONSE	M2	2	04	E3	release
741.9	n/a	RESPONSE	M2	2	00	C3	release
741.911	n/a	RESPONSE	M2	2	07	G3	release
742.013	n/a	RESPONSE	M2	2	14	D4	press
742.044	n/a	RESPONSE	M2	2	07	G3	press
742.095	n/a	RESPONSE	M2	2	00	C3	press
742.246	n/a	RESPONSE	M2	2	04	E3	press
742.409	n/a	RESPONSE	M2	2	04	E3	release
742.499	n/a	RESPONSE	M2	2	12	C4	press
742.641	n/a	RESPONSE	M2	2	14	D4	release
742.664	n/a	RESPONSE	M2	2	00	C3	release
742.763	n/a	RESPONSE	M2	2	07	G3	release
742.785	n/a	RESPONSE	M2	2	12	C4	release
743.015	n/a	RESPONSE	M2	2	11	B3	press
743.026	n/a	RESPONSE	M2	2	07	G3	press
743.04	n/a	RESPONSE	M2	2	00	C3	press
743.059	n/a	RESPONSE	M2	2	04	E3	press
743.71	n/a	RESPONSE	M2	2	04	E3	release
743.791	n/a	RESPONSE	M2	2	11	B3	release
743.863	n/a	RESPONSE	M2	2	07	G3	release
744.034	n/a	RESPONSE	M2	2	00	C3	release
746.146	7.758	FIXCROSS	n/a	n/a	n/a	n/a	n/a
753.904	6.317	CUE_LISTEN	M2	1	n/a	n/a	n/a
760.221	7.758	FIXCROSS	n/a	n/a	n/a	n/a	n/a
767.979	6.317	CUE_PLAYBACK_BOTH_HANDS	M2	1	n/a	n/a	n/a
768.373	n/a	RESPONSE	M2	1	00	C3	press
768.379	n/a	RESPONSE	M2	1	07	G3	press
768.381	n/a	RESPONSE	M2	1	12	C4	press
768.805	n/a	RESPONSE	M2	1	14	D4	press
768.851	n/a	RESPONSE	M2	1	12	C4	release
769.064	n/a	RESPONSE	M2	1	14	D4	release
769.112	n/a	RESPONSE	M2	1	00	C3	release
769.156	n/a	RESPONSE	M2	1	07	G3	release
769.231	n/a	RESPONSE	M2	1	16	E4	press
769.235	n/a	RESPONSE	M2	1	00	C3	press
769.248	n/a	RESPONSE	M2	1	07	G3	press
769.653	n/a	RESPONSE	M2	1	16	E4	release
769.656	n/a	RESPONSE	M2	1	14	D4	press
769.875	n/a	RESPONSE	M2	1	14	D4	release
769.886	n/a	RESPONSE	M2	1	00	C3	release
769.999	n/a	RESPONSE	M2	1	07	G3	release
770.063	n/a	RESPONSE	M2	1	00	C3	press
770.07	n/a	RESPONSE	M2	1	16	E4	press
770.076	n/a	RESPONSE	M2	1	07	G3	press
770.47	n/a	RESPONSE	M2	1	17	F4	press
770.531	n/a	RESPONSE	M2	1	16	E4	release
770.721	n/a	RESPONSE	M2	1	07	G3	release
770.741	n/a	RESPONSE	M2	1	17	F4	release
770.823	n/a	RESPONSE	M2	1	00	C3	release
770.87	n/a	RESPONSE	M2	1	19	G4	press
770.88	n/a	RESPONSE	M2	1	00	C3	press
770.909	n/a	RESPONSE	M2	1	07	G3	press
771.581	n/a	RESPONSE	M2	1	19	G4	release
771.834	n/a	RESPONSE	M2	1	00	C3	release
771.953	n/a	RESPONSE	M2	1	07	G3	release
774.296	7.758	FIXCROSS	n/a	n/a	n/a	n/a	n/a
782.054	6.317	CUE_LISTEN	M2	2	n/a	n/a	n/a
782.393	n/a	RESPONSE	M2	2	00	C3	press
782.395	n/a	RESPONSE	M2	2	07	G3	press
782.434	n/a	RESPONSE	M2	2	16	E4	press
782.705	n/a	RESPONSE	M2	2	16	E4	release
782.836	n/a	RESPONSE	M2	2	00	C3	release
782.84	n/a	RESPONSE	M2	2	07	G3	release
788.371	7.758	FIXCROSS	n/a	n/a	n/a	n/a	n/a
796.129	6.325	CUE_PLAYBACK_BOTH_HANDS	M2	2	n/a	n/a	n/a
796.596	n/a	RESPONSE	M2	2	07	G3	press
796.608	n/a	RESPONSE	M2	2	00	C3	press
796.61	n/a	RESPONSE	M2	2	04	E3	press
796.63	n/a	RESPONSE	M2	2	16	E4	press
797.061	n/a	RESPONSE	M2	2	19	G4	press
797.112	n/a	RESPONSE	M2	2	16	E4	release
797.205	n/a	RESPONSE	M2	2	00	C3	release
797.235	n/a	RESPONSE	M2	2	04	E3	release
797.306	n/a	RESPONSE	M2	2	07	G3	release
797.358	n/a	RESPONSE	M2	2	19	G4	release
797.571	n/a	RESPONSE	M2	2	19	G4	press
797.586	n/a	RESPONSE	M2	2	00	C3	press
797.591	n/a	RESPONSE	M2	2	04	E3	press
797.599	n/a	RESPONSE	M2	2	07	G3	press
797.739	n/a	RESPONSE	M2	2	16	E4	press
797.948	n/a	RESPONSE	M2	2	19	G4	release
798.119	n/a	RESPONSE	M2	2	16	E4	release
798.183	n/a	RESPONSE	M2	2	07	G3	release
798.188	n/a	RESPONSE	M2	2	04	E3	release
798.271	n/a	RESPONSE	M2	2	00	C3	release
798.753	n/a	RESPONSE	M2	2	16	E4	press
798.755	n/a	RESPONSE	M2	2	04	E3	press
798.758	n/a	RESPONSE	M2	2	07	G3	press
798.773	n/a	RESPONSE	M2	2	00	C3	press
799.186	n/a	RESPONSE	M2	2	19	G4	press
799.225	n/a	RESPONSE	M2	2	16	E4	release
799.228	n/a	RESPONSE	M2	2	04	E3	release
799.392	n/a	RESPONSE	M2	2	07	G3	release
799.471	n/a	RESPONSE	M2	2	19	G4	release
799.474	n/a	RESPONSE	M2	2	00	C3	release
799.658	n/a	RESPONSE	M2	2	00	C3	press
799.668	n/a	RESPONSE	M2	2	19	G4	press
799.67	n/a	RESPONSE	M2	2	07	G3	press
800.095	n/a	RESPONSE	M2	2	17	F4	press
800.201	n/a	RESPONSE	M2	2	19	G4	release
800.386	n/a	RESPONSE	M2	2	17	F4	release
800.413	n/a	RESPONSE	M2	2	07	G3	release
800.435	n/a	RESPONSE	M2	2	00	C3	release
800.596	n/a	RESPONSE	M2	2	16	E4	press
800.618	n/a	RESPONSE	M2	2	04	E3	press
800.944	n/a	RESPONSE	M2	2	14	D4	press
801.103	n/a	RESPONSE	M2	2	16	E4	release
801.164	n/a	RESPONSE	M2	2	04	E3	release
801.285	n/a	RESPONSE	M2	2	14	D4	release
801.376	n/a	RESPONSE	M2	2	12	C4	press
801.399	n/a	RESPONSE	M2	2	07	G3	press
801.409	n/a	RESPONSE	M2	2	00	C3	press
802.33	n/a	RESPONSE	M2	2	12	C4	release
802.434	n/a	RESPONSE	M2	2	00	C3	release
802.443	n/a	RESPONSE	M2	2	07	G3	release
802.454	7.758	FIXCROSS	n/a	n/a	n/a	n/a	n/a
810.213	6.317	CUE_LISTEN	M3	1	n/a	n/a	n/a
816.529	7.758	FIXCROSS	n/a	n/a	n/a	n/a	n/a
824.288	6.317	CUE_PLAYBACK_RIGHT_HAND	M3	1	n/a	n/a	n/a
824.9	n/a	RESPONSE	M3	1	12	C4	press
825.36	n/a	RESPONSE	M3	1	14	D4	press
825.501	n/a	RESPONSE	M3	1	12	C4	release
825.763	n/a	RESPONSE	M3	1	16	E4	press
825.784	n/a	RESPONSE	M3	1	14	D4	release
826.145	n/a	RESPONSE	M3	1	16	E4	release
826.206	n/a	RESPONSE	M3	1	12	C4	press
826.528	n/a	RESPONSE	M3	1	12	C4	release
826.639	n/a	RESPONSE	M3	1	12	C4	press
827.07	n/a	RESPONSE	M3	1	14	D4	press
827.121	n/a	RESPONSE	M3	1	12	C4	release
827.403	n/a	RESPONSE	M3	1	16	E4	press
827.466	n/a	RESPONSE	M3	1	14	D4	release
827.809	n/a	RESPONSE	M3	1	12	C4	press
827.859	n/a	RESPONSE	M3	1	16	E4	release
828.251	n/a	RESPONSE	M3	1	12	C4	release
830.604	7.767	FIXCROSS	n/a	n/a	n/a	n/a	n/a
838.371	6.317	CUE_LISTEN	M3	2	n/a	n/a	n/a
844.688	7.758	FIXCROSS	n/a	n/a	n/a	n/a	n/a
852.446	6.317	CUE_PLAYBACK_RIGHT_HAND	M3	2	n/a	n/a	n/a
852.811	n/a	RESPONSE	M3	2	16	E4	press
853.243	n/a	RESPONSE	M3	2	17	F4	press
853.254	n/a	RESPONSE	M3	2	16	E4	release
853.605	n/a	RESPONSE	M3	2	17	F4	release
853.638	n/a	RESPONSE	M3	2	19	G4	press
854.28	n/a	RESPONSE	M3	2	19	G4	release
854.409	n/a	RESPONSE	M3	2	16	E4	press
854.78	n/a	RESPONSE	M3	2	17	F4	press
854.801	n/a	RESPONSE	M3	2	16	E4	release
855.145	n/a	RESPONSE	M3	2	19	G4	press
855.244	n/a	RESPONSE	M3	2	17	F4	release
855.905	n/a	RESPONSE	M3	2	19	G4	release
858.763	7.758	FIXCROSS	n/a	n/a	n/a	n/a	n/a
866.521	6.317	CUE_LISTEN	M3	1	n/a	n/a	n/a
872.838	7.759	FIXCROSS	n/a	n/a	n/a	n/a	n/a
880.596	6.325	CUE_PLAYBACK_RIGHT_HAND	M3	1	n/a	n/a	n/a
880.925	n/a	RESPONSE	M3	1	19	G4	press
881.185	n/a	RESPONSE	M3	1	21	A4	press
881.258	n/a	RESPONSE	M3	1	19	G4	release
881.418	n/a	RESPONSE	M3	1	19	G4	press
881.599	n/a	RESPONSE	M3	1	21	A4	release
881.64	n/a	RESPONSE	M3	1	17	F4	press
881.762	n/a	RESPONSE	M3	1	19	G4	release
881.913	n/a	RESPONSE	M3	1	16	E4	press
882.034	n/a	RESPONSE	M3	1	17	F4	release
882.275	n/a	RESPONSE	M3	1	16	E4	release
882.356	n/a	RESPONSE	M3	1	12	C4	press
882.72	n/a	RESPONSE	M3	1	12	C4	release
882.829	n/a	RESPONSE	M3	1	19	G4	press
883.15	n/a	RESPONSE	M3	1	19	G4	release
883.262	n/a	RESPONSE	M3	1	19	G4	press
883.563	n/a	RESPONSE	M3	1	21	A4	press
883.675	n/a	RESPONSE	M3	1	19	G4	release
883.795	n/a	RESPONSE	M3	1	19	G4	press
884.009	n/a	RESPONSE	M3	1	17	F4	press
884.17	n/a	RESPONSE	M3	1	19	G4	release
884.229	n/a	RESPONSE	M3	1	21	A4	release
884.27	n/a	RESPONSE	M3	1	16	E4	press
884.421	n/a	RESPONSE	M3	1	17	F4	release
884.683	n/a	RESPONSE	M3	1	12	C4	press
884.694	n/a	RESPONSE	M3	1	16	E4	release
885.405	n/a	RESPONSE	M3	1	12	C4	release
886.921	7.758	FIXCROSS	n/a	n/a	n/a	n/a	n/a
894.68	6.317	CUE_LISTEN	M3	2	n/a	n/a	n/a
900.996	7.758	FIXCROSS	n/a	n/a	n/a	n/a	n/a
908.755	79.1	CUE_PLAYBACK_RIGHT_HAND	M3	2	n/a	n/a	n/a
909.106	n/a	RESPONSE	M3	2	12	C4	press
909.468	n/a	RESPONSE	M3	2	12	C4	release
909.546	n/a	RESPONSE	M3	2	07	G3	press
909.57	n/a	RESPONSE	M3	2	12	C4	press
909.973	n/a	RESPONSE	M3	2	12	C4	release
910.024	n/a	RESPONSE	M3	2	07	G3	release
910.214	n/a	RESPONSE	M3	2	07	G3	press
910.216	n/a	RESPONSE	M3	2	12	C4	press
910.62	n/a	RESPONSE	M3	2	12	C4	release
910.73	n/a	RESPONSE	M3	2	12	C4	press
911.003	n/a	RESPONSE	M3	2	07	G3	release
911.008	n/a	RESPONSE	M3	2	12	C4	release
911.29	n/a	RESPONSE	M3	2	12	C4	press
911.301	n/a	RESPONSE	M3	2	07	G3	press
911.831	n/a	RESPONSE	M3	2	12	C4	release
912.242	n/a	RESPONSE	M3	2	07	G3	release
912.414	n/a	RESPONSE	M3	2	12	C4	press
913.085	n/a	RESPONSE	M3	2	12	C4	release
913.246	n/a	FIXCROSS	n/a	n/a	n/a	n/a	n/a
913.356	n/a	RESPONSE	M3	2	07	G3	press
913.359	n/a	RESPONSE	M3	2	12	C4	press
913.751	n/a	RESPONSE	M3	2	12	C4	release
913.861	n/a	RESPONSE	M3	2	12	C4	press
914.001	n/a	RESPONSE	M3	2	07	G3	release
914.213	n/a	RESPONSE	M3	2	12	C4	release
914.354	n/a	RESPONSE	M3	2	07	G3	press
914.858	n/a	RESPONSE	M3	2	07	G3	release
