onset	duration	trial_type	trial_number	stroop_condition	stim_text(PL)	stim_text(eng)	stim_color(PL)	stim_color(eng)	response_type	response_color
0.0	n/a	RESPONSE	n/a	n/a	n/a	n/a	n/a	n/a	n/a	n/a
0.0217	1.0167	ITI	n/a	n/a	n/a	n/a	n/a	n/a	n/a	n/a
1.0383	0.5	FIXCROSS	n/a	n/a	n/a	n/a	n/a	n/a	n/a	n/a
1.5383	2.0666	T_INK	1	Neutral	xxxxxxxxx	xxxxxxxxx	żółty	yellow	hit	n/a
3.5976	n/a	RESPONSE	n/a	n/a	n/a	n/a	n/a	n/a	n/a	yellow
3.6049	0.5	FEEDBACK	n/a	n/a	n/a	n/a	n/a	n/a	n/a	n/a
4.1049	1.0	ITI	n/a	n/a	n/a	n/a	n/a	n/a	n/a	n/a
5.1049	0.5	FIXCROSS	n/a	n/a	n/a	n/a	n/a	n/a	n/a	n/a
5.6049	0.9333	T_INK	2	Neutral	xxxxxxxx	xxxxxxxx	zielony	green	hit	n/a
6.5236	n/a	RESPONSE	n/a	n/a	n/a	n/a	n/a	n/a	n/a	green
6.5382	0.5	FEEDBACK	n/a	n/a	n/a	n/a	n/a	n/a	n/a	n/a
7.0382	1.0167	ITI	n/a	n/a	n/a	n/a	n/a	n/a	n/a	n/a
8.0549	0.5	FIXCROSS	n/a	n/a	n/a	n/a	n/a	n/a	n/a	n/a
8.5549	1.15	T_INK	3	Incongruent	żółty	yellow	zielony	green	hit	n/a
9.6894	n/a	RESPONSE	n/a	n/a	n/a	n/a	n/a	n/a	n/a	green
9.7048	0.5	FEEDBACK	n/a	n/a	n/a	n/a	n/a	n/a	n/a	n/a
10.2048	1.0	ITI	n/a	n/a	n/a	n/a	n/a	n/a	n/a	n/a
11.2048	0.5	FIXCROSS	n/a	n/a	n/a	n/a	n/a	n/a	n/a	n/a
11.7048	1.0	T_INK	4	Incongruent	zielony	green	niebieski	blue	hit	n/a
12.6954	n/a	RESPONSE	n/a	n/a	n/a	n/a	n/a	n/a	n/a	blue
12.7048	0.5	FEEDBACK	n/a	n/a	n/a	n/a	n/a	n/a	n/a	n/a
13.2048	1.0	ITI	n/a	n/a	n/a	n/a	n/a	n/a	n/a	n/a
14.2047	0.5	FIXCROSS	n/a	n/a	n/a	n/a	n/a	n/a	n/a	n/a
14.7048	0.6333	T_INK	5	Neutral	xxxxxxxx	xxxxxxxx	żółty	yellow	hit	n/a
15.3175	n/a	RESPONSE	n/a	n/a	n/a	n/a	n/a	n/a	n/a	yellow
15.3381	0.5	FEEDBACK	n/a	n/a	n/a	n/a	n/a	n/a	n/a	n/a
15.8381	1.0	ITI	n/a	n/a	n/a	n/a	n/a	n/a	n/a	n/a
16.838	0.5	FIXCROSS	n/a	n/a	n/a	n/a	n/a	n/a	n/a	n/a
17.338	0.6833	T_INK	6	Neutral	xxxxxxxxx	xxxxxxxxx	zielony	green	hit	n/a
18.0037	n/a	RESPONSE	n/a	n/a	n/a	n/a	n/a	n/a	n/a	green
18.0214	0.5	FEEDBACK	n/a	n/a	n/a	n/a	n/a	n/a	n/a	n/a
18.5214	1.0	ITI	n/a	n/a	n/a	n/a	n/a	n/a	n/a	n/a
19.5213	0.5	FIXCROSS	n/a	n/a	n/a	n/a	n/a	n/a	n/a	n/a
20.0213	0.8333	T_INK	7	Incongruent	czerwony	red	żółty	yellow	hit	n/a
20.8498	n/a	RESPONSE	n/a	n/a	n/a	n/a	n/a	n/a	n/a	yellow
20.8546	0.5	FEEDBACK	n/a	n/a	n/a	n/a	n/a	n/a	n/a	n/a
21.3546	1.0	ITI	n/a	n/a	n/a	n/a	n/a	n/a	n/a	n/a
22.3546	0.5	FIXCROSS	n/a	n/a	n/a	n/a	n/a	n/a	n/a	n/a
22.8546	0.6167	T_INK	8	Incongruent	niebieski	blue	zielony	green	hit	n/a
23.4561	n/a	RESPONSE	n/a	n/a	n/a	n/a	n/a	n/a	n/a	green
23.4713	0.5	FEEDBACK	n/a	n/a	n/a	n/a	n/a	n/a	n/a	n/a
23.9713	1.0	ITI	n/a	n/a	n/a	n/a	n/a	n/a	n/a	n/a
24.9712	0.5	FIXCROSS	n/a	n/a	n/a	n/a	n/a	n/a	n/a	n/a
25.4712	0.6167	T_INK	9	Neutral	xxxxxxx	xxxxxxx	żółty	yellow	hit	n/a
26.0783	n/a	RESPONSE	n/a	n/a	n/a	n/a	n/a	n/a	n/a	yellow
26.0879	0.5	FEEDBACK	n/a	n/a	n/a	n/a	n/a	n/a	n/a	n/a
26.5879	1.0	ITI	n/a	n/a	n/a	n/a	n/a	n/a	n/a	n/a
27.5878	0.5	FIXCROSS	n/a	n/a	n/a	n/a	n/a	n/a	n/a	n/a
28.0878	0.5333	T_INK	10	Neutral	xxxxx	xxxxx	zielony	green	hit	n/a
28.6045	n/a	RESPONSE	n/a	n/a	n/a	n/a	n/a	n/a	n/a	green
28.6212	0.5	FEEDBACK	n/a	n/a	n/a	n/a	n/a	n/a	n/a	n/a
29.1212	1.0	ITI	n/a	n/a	n/a	n/a	n/a	n/a	n/a	n/a
30.1211	0.5	FIXCROSS	n/a	n/a	n/a	n/a	n/a	n/a	n/a	n/a
30.6211	0.5333	T_INK	11	Incongruent	zielony	green	czerwony	red	hit	n/a
31.1469	n/a	RESPONSE	n/a	n/a	n/a	n/a	n/a	n/a	n/a	red
31.1545	0.5	FEEDBACK	n/a	n/a	n/a	n/a	n/a	n/a	n/a	n/a
31.6544	1.0	ITI	n/a	n/a	n/a	n/a	n/a	n/a	n/a	n/a
32.6544	0.5	FIXCROSS	n/a	n/a	n/a	n/a	n/a	n/a	n/a	n/a
33.1544	0.75	T_INK	12	Incongruent	zielony	green	żółty	yellow	hit	n/a
33.897	n/a	RESPONSE	n/a	n/a	n/a	n/a	n/a	n/a	n/a	yellow
33.9044	0.5	FEEDBACK	n/a	n/a	n/a	n/a	n/a	n/a	n/a	n/a
34.4044	1.0	ITI	n/a	n/a	n/a	n/a	n/a	n/a	n/a	n/a
37.8144	n/a	RESPONSE	n/a	n/a	n/a	n/a	n/a	n/a	n/a	n/a
37.8377	1.0	ITI	n/a	n/a	n/a	n/a	n/a	n/a	n/a	n/a
38.8376	0.5	FIXCROSS	n/a	n/a	n/a	n/a	n/a	n/a	n/a	n/a
39.3377	1.0666	INK	1	Neutral	xxxxx	xxxxx	zielony	green	hit	n/a
40.3886	n/a	RESPONSE	n/a	n/a	n/a	n/a	n/a	n/a	n/a	green
40.4043	1.0	ITI	n/a	n/a	n/a	n/a	n/a	n/a	n/a	n/a
41.4043	0.5	FIXCROSS	n/a	n/a	n/a	n/a	n/a	n/a	n/a	n/a
41.9043	0.6167	INK	2	Neutral	xxxxxxx	xxxxxxx	żółty	yellow	hit	n/a
42.5152	n/a	RESPONSE	n/a	n/a	n/a	n/a	n/a	n/a	n/a	yellow
42.5209	1.0	ITI	n/a	n/a	n/a	n/a	n/a	n/a	n/a	n/a
43.5209	0.5	FIXCROSS	n/a	n/a	n/a	n/a	n/a	n/a	n/a	n/a
44.0209	0.9833	INK	3	Incongruent	żółty	yellow	niebieski	blue	hit	n/a
44.9934	n/a	RESPONSE	n/a	n/a	n/a	n/a	n/a	n/a	n/a	blue
45.0042	1.0	ITI	n/a	n/a	n/a	n/a	n/a	n/a	n/a	n/a
46.0042	0.5	FIXCROSS	n/a	n/a	n/a	n/a	n/a	n/a	n/a	n/a
46.5042	0.6167	INK	4	Incongruent	żółty	yellow	niebieski	blue	hit	n/a
47.1041	n/a	RESPONSE	n/a	n/a	n/a	n/a	n/a	n/a	n/a	blue
47.1208	1.0	ITI	n/a	n/a	n/a	n/a	n/a	n/a	n/a	n/a
48.1208	0.5	FIXCROSS	n/a	n/a	n/a	n/a	n/a	n/a	n/a	n/a
48.6208	0.6167	INK	5	Neutral	xxxxxxxxx	xxxxxxxxx	żółty	yellow	hit	n/a
49.2305	n/a	RESPONSE	n/a	n/a	n/a	n/a	n/a	n/a	n/a	yellow
49.2375	1.0	ITI	n/a	n/a	n/a	n/a	n/a	n/a	n/a	n/a
50.2374	0.5	FIXCROSS	n/a	n/a	n/a	n/a	n/a	n/a	n/a	n/a
50.7374	0.45	INK	6	Neutral	xxxxx	xxxxx	czerwony	red	hit	n/a
51.1813	n/a	RESPONSE	n/a	n/a	n/a	n/a	n/a	n/a	n/a	red
51.1874	1.0	ITI	n/a	n/a	n/a	n/a	n/a	n/a	n/a	n/a
52.1874	0.5	FIXCROSS	n/a	n/a	n/a	n/a	n/a	n/a	n/a	n/a
52.6874	0.6	INK	7	Incongruent	niebieski	blue	żółty	yellow	hit	n/a
53.2759	n/a	RESPONSE	n/a	n/a	n/a	n/a	n/a	n/a	n/a	yellow
53.2874	1.0	ITI	n/a	n/a	n/a	n/a	n/a	n/a	n/a	n/a
54.2874	0.5	FIXCROSS	n/a	n/a	n/a	n/a	n/a	n/a	n/a	n/a
54.7874	0.5667	INK	8	Incongruent	zielony	green	czerwony	red	hit	n/a
55.3384	n/a	RESPONSE	n/a	n/a	n/a	n/a	n/a	n/a	n/a	red
55.354	1.0	ITI	n/a	n/a	n/a	n/a	n/a	n/a	n/a	n/a
56.354	0.5	FIXCROSS	n/a	n/a	n/a	n/a	n/a	n/a	n/a	n/a
56.854	0.7333	INK	9	Incongruent	niebieski	blue	czerwony	red	hit	n/a
57.5769	n/a	RESPONSE	n/a	n/a	n/a	n/a	n/a	n/a	n/a	red
57.5873	1.0	ITI	n/a	n/a	n/a	n/a	n/a	n/a	n/a	n/a
58.5873	0.5	FIXCROSS	n/a	n/a	n/a	n/a	n/a	n/a	n/a	n/a
59.0873	0.5833	INK	10	Neutral	xxxxxxxxx	xxxxxxxxx	czerwony	red	hit	n/a
59.6555	n/a	RESPONSE	n/a	n/a	n/a	n/a	n/a	n/a	n/a	red
59.6706	1.0	ITI	n/a	n/a	n/a	n/a	n/a	n/a	n/a	n/a
60.6706	0.5	FIXCROSS	n/a	n/a	n/a	n/a	n/a	n/a	n/a	n/a
61.1706	0.5666	INK	11	Incongruent	żółty	yellow	czerwony	red	hit	n/a
61.7341	n/a	RESPONSE	n/a	n/a	n/a	n/a	n/a	n/a	n/a	red
61.7372	1.0	ITI	n/a	n/a	n/a	n/a	n/a	n/a	n/a	n/a
62.7372	0.5	FIXCROSS	n/a	n/a	n/a	n/a	n/a	n/a	n/a	n/a
63.2372	0.95	INK	12	Incongruent	niebieski	blue	zielony	green	hit	n/a
64.1805	n/a	RESPONSE	n/a	n/a	n/a	n/a	n/a	n/a	n/a	green
64.1872	1.0	ITI	n/a	n/a	n/a	n/a	n/a	n/a	n/a	n/a
65.1872	0.5	FIXCROSS	n/a	n/a	n/a	n/a	n/a	n/a	n/a	n/a
65.6872	0.6833	INK	13	Neutral	xxxxx	xxxxx	czerwony	red	hit	n/a
66.355	n/a	RESPONSE	n/a	n/a	n/a	n/a	n/a	n/a	n/a	red
66.3705	1.0	ITI	n/a	n/a	n/a	n/a	n/a	n/a	n/a	n/a
67.3705	0.5	FIXCROSS	n/a	n/a	n/a	n/a	n/a	n/a	n/a	n/a
67.8705	1.0333	INK	14	Incongruent	czerwony	red	zielony	green	hit	n/a
68.8972	n/a	RESPONSE	n/a	n/a	n/a	n/a	n/a	n/a	n/a	green
68.9038	1.0	ITI	n/a	n/a	n/a	n/a	n/a	n/a	n/a	n/a
69.9038	0.5	FIXCROSS	n/a	n/a	n/a	n/a	n/a	n/a	n/a	n/a
70.4037	0.5667	INK	15	Incongruent	zielony	green	żółty	yellow	hit	n/a
70.9598	n/a	RESPONSE	n/a	n/a	n/a	n/a	n/a	n/a	n/a	yellow
70.9704	1.0	ITI	n/a	n/a	n/a	n/a	n/a	n/a	n/a	n/a
71.9704	0.5	FIXCROSS	n/a	n/a	n/a	n/a	n/a	n/a	n/a	n/a
72.4704	0.6833	INK	16	Incongruent	niebieski	blue	żółty	yellow	hit	n/a
73.1503	n/a	RESPONSE	n/a	n/a	n/a	n/a	n/a	n/a	n/a	yellow
73.1537	1.0	ITI	n/a	n/a	n/a	n/a	n/a	n/a	n/a	n/a
74.1537	0.5	FIXCROSS	n/a	n/a	n/a	n/a	n/a	n/a	n/a	n/a
74.6537	0.5	INK	17	Incongruent	niebieski	blue	żółty	yellow	hit	n/a
75.1489	n/a	RESPONSE	n/a	n/a	n/a	n/a	n/a	n/a	n/a	yellow
75.1537	1.0	ITI	n/a	n/a	n/a	n/a	n/a	n/a	n/a	n/a
76.1536	0.5	FIXCROSS	n/a	n/a	n/a	n/a	n/a	n/a	n/a	n/a
76.6536	0.4833	INK	18	Neutral	xxxxx	xxxxx	zielony	green	hit	n/a
77.1316	n/a	RESPONSE	n/a	n/a	n/a	n/a	n/a	n/a	n/a	green
77.137	1.0	ITI	n/a	n/a	n/a	n/a	n/a	n/a	n/a	n/a
78.1369	0.5	FIXCROSS	n/a	n/a	n/a	n/a	n/a	n/a	n/a	n/a
78.6369	0.6333	INK	19	Neutral	xxxxxxxx	xxxxxxxx	zielony	green	hit	n/a
79.2581	n/a	RESPONSE	n/a	n/a	n/a	n/a	n/a	n/a	n/a	green
79.2703	1.0	ITI	n/a	n/a	n/a	n/a	n/a	n/a	n/a	n/a
80.2702	0.5	FIXCROSS	n/a	n/a	n/a	n/a	n/a	n/a	n/a	n/a
80.7702	0.6833	INK	20	Incongruent	zielony	green	niebieski	blue	hit	n/a
81.4486	n/a	RESPONSE	n/a	n/a	n/a	n/a	n/a	n/a	n/a	blue
81.4535	1.0	ITI	n/a	n/a	n/a	n/a	n/a	n/a	n/a	n/a
82.4535	0.5	FIXCROSS	n/a	n/a	n/a	n/a	n/a	n/a	n/a	n/a
82.9535	0.4667	INK	21	Neutral	xxxxx	xxxxx	niebieski	blue	hit	n/a
83.4153	n/a	RESPONSE	n/a	n/a	n/a	n/a	n/a	n/a	n/a	blue
83.4202	1.0	ITI	n/a	n/a	n/a	n/a	n/a	n/a	n/a	n/a
84.4202	0.5	FIXCROSS	n/a	n/a	n/a	n/a	n/a	n/a	n/a	n/a
84.9202	0.45	INK	22	Incongruent	żółty	yellow	niebieski	blue	hit	n/a
85.366	n/a	RESPONSE	n/a	n/a	n/a	n/a	n/a	n/a	n/a	blue
85.3701	1.0	ITI	n/a	n/a	n/a	n/a	n/a	n/a	n/a	n/a
86.3701	0.5	FIXCROSS	n/a	n/a	n/a	n/a	n/a	n/a	n/a	n/a
86.8701	0.6333	INK	23	Neutral	xxxxxxxxx	xxxxxxxxx	zielony	green	hit	n/a
87.4926	n/a	RESPONSE	n/a	n/a	n/a	n/a	n/a	n/a	n/a	green
87.5034	1.0	ITI	n/a	n/a	n/a	n/a	n/a	n/a	n/a	n/a
88.5034	0.5	FIXCROSS	n/a	n/a	n/a	n/a	n/a	n/a	n/a	n/a
89.0034	0.7167	INK	24	Incongruent	czerwony	red	zielony	green	hit	n/a
89.7151	n/a	RESPONSE	n/a	n/a	n/a	n/a	n/a	n/a	n/a	green
89.7201	1.0	ITI	n/a	n/a	n/a	n/a	n/a	n/a	n/a	n/a
90.72	0.5	FIXCROSS	n/a	n/a	n/a	n/a	n/a	n/a	n/a	n/a
91.22	0.55	INK	25	Incongruent	żółty	yellow	zielony	green	hit	n/a
91.7617	n/a	RESPONSE	n/a	n/a	n/a	n/a	n/a	n/a	n/a	green
91.77	1.0	ITI	n/a	n/a	n/a	n/a	n/a	n/a	n/a	n/a
92.77	0.5	FIXCROSS	n/a	n/a	n/a	n/a	n/a	n/a	n/a	n/a
93.27	0.4833	INK	26	Incongruent	niebieski	blue	zielony	green	hit	n/a
93.7444	n/a	RESPONSE	n/a	n/a	n/a	n/a	n/a	n/a	n/a	green
93.7533	1.0	ITI	n/a	n/a	n/a	n/a	n/a	n/a	n/a	n/a
94.7533	0.5	FIXCROSS	n/a	n/a	n/a	n/a	n/a	n/a	n/a	n/a
95.2533	0.7167	INK	27	Incongruent	żółty	yellow	czerwony	red	hit	n/a
95.9509	n/a	RESPONSE	n/a	n/a	n/a	n/a	n/a	n/a	n/a	red
95.9699	1.0	ITI	n/a	n/a	n/a	n/a	n/a	n/a	n/a	n/a
96.9699	0.5	FIXCROSS	n/a	n/a	n/a	n/a	n/a	n/a	n/a	n/a
97.4699	0.45	INK	28	Neutral	xxxxx	xxxxx	zielony	green	hit	n/a
97.9015	n/a	RESPONSE	n/a	n/a	n/a	n/a	n/a	n/a	n/a	green
97.9199	1.0	ITI	n/a	n/a	n/a	n/a	n/a	n/a	n/a	n/a
98.9199	0.5	FIXCROSS	n/a	n/a	n/a	n/a	n/a	n/a	n/a	n/a
99.4199	0.65	INK	29	Neutral	xxxxxxxx	xxxxxxxx	niebieski	blue	hit	n/a
100.06	n/a	RESPONSE	n/a	n/a	n/a	n/a	n/a	n/a	n/a	blue
100.0699	1.0	ITI	n/a	n/a	n/a	n/a	n/a	n/a	n/a	n/a
101.0699	0.5	FIXCROSS	n/a	n/a	n/a	n/a	n/a	n/a	n/a	n/a
101.5698	0.5167	INK	30	Incongruent	zielony	green	niebieski	blue	hit	n/a
102.0746	n/a	RESPONSE	n/a	n/a	n/a	n/a	n/a	n/a	n/a	blue
102.0865	1.0	ITI	n/a	n/a	n/a	n/a	n/a	n/a	n/a	n/a
103.0865	0.5	FIXCROSS	n/a	n/a	n/a	n/a	n/a	n/a	n/a	n/a
103.5865	0.4167	INK	31	Neutral	xxxxxxx	xxxxxxx	niebieski	blue	hit	n/a
103.9933	n/a	RESPONSE	n/a	n/a	n/a	n/a	n/a	n/a	n/a	blue
104.0031	1.0	ITI	n/a	n/a	n/a	n/a	n/a	n/a	n/a	n/a
105.0031	0.5	FIXCROSS	n/a	n/a	n/a	n/a	n/a	n/a	n/a	n/a
105.5031	0.6	INK	32	Neutral	xxxxxxxx	xxxxxxxx	żółty	yellow	hit	n/a
106.0878	n/a	RESPONSE	n/a	n/a	n/a	n/a	n/a	n/a	n/a	yellow
106.1031	1.0	ITI	n/a	n/a	n/a	n/a	n/a	n/a	n/a	n/a
107.1031	0.5	FIXCROSS	n/a	n/a	n/a	n/a	n/a	n/a	n/a	n/a
107.6031	0.5	INK	33	Neutral	xxxxxxxxx	xxxxxxxxx	zielony	green	hit	n/a
108.0866	n/a	RESPONSE	n/a	n/a	n/a	n/a	n/a	n/a	n/a	green
108.1031	1.0	ITI	n/a	n/a	n/a	n/a	n/a	n/a	n/a	n/a
109.1031	0.5	FIXCROSS	n/a	n/a	n/a	n/a	n/a	n/a	n/a	n/a
109.603	0.5833	INK	34	Neutral	xxxxx	xxxxx	niebieski	blue	hit	n/a
110.181	n/a	RESPONSE	n/a	n/a	n/a	n/a	n/a	n/a	n/a	blue
110.1864	1.0	ITI	n/a	n/a	n/a	n/a	n/a	n/a	n/a	n/a
111.1863	0.5	FIXCROSS	n/a	n/a	n/a	n/a	n/a	n/a	n/a	n/a
111.6863	0.45	INK	35	Neutral	xxxxxxxx	xxxxxxxx	zielony	green	hit	n/a
112.1318	n/a	RESPONSE	n/a	n/a	n/a	n/a	n/a	n/a	n/a	green
112.1363	1.0	ITI	n/a	n/a	n/a	n/a	n/a	n/a	n/a	n/a
113.1363	0.5	FIXCROSS	n/a	n/a	n/a	n/a	n/a	n/a	n/a	n/a
113.6363	0.45	INK	36	Neutral	xxxxxxx	xxxxxxx	czerwony	red	hit	n/a
114.0825	n/a	RESPONSE	n/a	n/a	n/a	n/a	n/a	n/a	n/a	red
114.0863	1.0	ITI	n/a	n/a	n/a	n/a	n/a	n/a	n/a	n/a
115.0863	0.5	FIXCROSS	n/a	n/a	n/a	n/a	n/a	n/a	n/a	n/a
115.5863	0.5167	INK	37	Neutral	xxxxxxxxx	xxxxxxxxx	czerwony	red	hit	n/a
116.0971	n/a	RESPONSE	n/a	n/a	n/a	n/a	n/a	n/a	n/a	red
116.1029	1.0	ITI	n/a	n/a	n/a	n/a	n/a	n/a	n/a	n/a
117.1029	0.5	FIXCROSS	n/a	n/a	n/a	n/a	n/a	n/a	n/a	n/a
117.6029	0.4167	INK	38	Incongruent	zielony	green	czerwony	red	hit	n/a
118.0158	n/a	RESPONSE	n/a	n/a	n/a	n/a	n/a	n/a	n/a	red
118.0196	1.0	ITI	n/a	n/a	n/a	n/a	n/a	n/a	n/a	n/a
119.0195	0.5	FIXCROSS	n/a	n/a	n/a	n/a	n/a	n/a	n/a	n/a
119.5195	0.6	INK	39	Neutral	xxxxxxxxx	xxxxxxxxx	żółty	yellow	hit	n/a
120.1104	n/a	RESPONSE	n/a	n/a	n/a	n/a	n/a	n/a	n/a	yellow
120.1195	1.0	ITI	n/a	n/a	n/a	n/a	n/a	n/a	n/a	n/a
121.1195	0.5	FIXCROSS	n/a	n/a	n/a	n/a	n/a	n/a	n/a	n/a
121.6195	0.5333	INK	40	Neutral	xxxxxxxx	xxxxxxxx	żółty	yellow	hit	n/a
122.141	n/a	RESPONSE	n/a	n/a	n/a	n/a	n/a	n/a	n/a	yellow
122.1528	1.0	ITI	n/a	n/a	n/a	n/a	n/a	n/a	n/a	n/a
123.1528	0.5	FIXCROSS	n/a	n/a	n/a	n/a	n/a	n/a	n/a	n/a
123.6528	0.65	INK	41	Incongruent	czerwony	red	zielony	green	hit	n/a
124.2995	n/a	RESPONSE	n/a	n/a	n/a	n/a	n/a	n/a	n/a	green
124.3028	1.0	ITI	n/a	n/a	n/a	n/a	n/a	n/a	n/a	n/a
125.3028	0.5	FIXCROSS	n/a	n/a	n/a	n/a	n/a	n/a	n/a	n/a
125.8027	0.4667	INK	42	Neutral	xxxxxxxx	xxxxxxxx	zielony	green	hit	n/a
126.2662	n/a	RESPONSE	n/a	n/a	n/a	n/a	n/a	n/a	n/a	green
126.2694	1.0	ITI	n/a	n/a	n/a	n/a	n/a	n/a	n/a	n/a
127.2694	0.5	FIXCROSS	n/a	n/a	n/a	n/a	n/a	n/a	n/a	n/a
127.7694	0.4833	INK	43	Neutral	xxxxxxxxx	xxxxxxxxx	żółty	yellow	hit	n/a
128.2488	n/a	RESPONSE	n/a	n/a	n/a	n/a	n/a	n/a	n/a	yellow
128.2527	1.0	ITI	n/a	n/a	n/a	n/a	n/a	n/a	n/a	n/a
129.2527	0.5	FIXCROSS	n/a	n/a	n/a	n/a	n/a	n/a	n/a	n/a
129.7527	0.4167	INK	44	Incongruent	żółty	yellow	zielony	green	hit	n/a
130.1516	n/a	RESPONSE	n/a	n/a	n/a	n/a	n/a	n/a	n/a	green
130.1693	1.0	ITI	n/a	n/a	n/a	n/a	n/a	n/a	n/a	n/a
131.1693	0.5	FIXCROSS	n/a	n/a	n/a	n/a	n/a	n/a	n/a	n/a
131.6693	0.7833	INK	45	Neutral	xxxxxxx	xxxxxxx	niebieski	blue	hit	n/a
132.438	n/a	RESPONSE	n/a	n/a	n/a	n/a	n/a	n/a	n/a	blue
132.4526	1.0	ITI	n/a	n/a	n/a	n/a	n/a	n/a	n/a	n/a
133.4526	0.5	FIXCROSS	n/a	n/a	n/a	n/a	n/a	n/a	n/a	n/a
133.9526	0.5667	INK	46	Incongruent	czerwony	red	niebieski	blue	hit	n/a
134.5005	n/a	RESPONSE	n/a	n/a	n/a	n/a	n/a	n/a	n/a	blue
134.5193	1.0	ITI	n/a	n/a	n/a	n/a	n/a	n/a	n/a	n/a
135.5192	0.5	FIXCROSS	n/a	n/a	n/a	n/a	n/a	n/a	n/a	n/a
136.0192	0.5	INK	47	Neutral	xxxxx	xxxxx	czerwony	red	hit	n/a
136.5151	n/a	RESPONSE	n/a	n/a	n/a	n/a	n/a	n/a	n/a	red
136.5192	1.0	ITI	n/a	n/a	n/a	n/a	n/a	n/a	n/a	n/a
137.5192	0.5	FIXCROSS	n/a	n/a	n/a	n/a	n/a	n/a	n/a	n/a
138.0192	0.6667	INK	48	Neutral	xxxxxxx	xxxxxxx	niebieski	blue	hit	n/a
138.6736	n/a	RESPONSE	n/a	n/a	n/a	n/a	n/a	n/a	n/a	blue
138.6858	1.0	ITI	n/a	n/a	n/a	n/a	n/a	n/a	n/a	n/a
139.6858	0.5	FIXCROSS	n/a	n/a	n/a	n/a	n/a	n/a	n/a	n/a
140.1858	0.5	INK	49	Incongruent	niebieski	blue	zielony	green	hit	n/a
140.6724	n/a	RESPONSE	n/a	n/a	n/a	n/a	n/a	n/a	n/a	green
140.6858	1.0	ITI	n/a	n/a	n/a	n/a	n/a	n/a	n/a	n/a
141.6858	0.5	FIXCROSS	n/a	n/a	n/a	n/a	n/a	n/a	n/a	n/a
142.1858	0.4333	INK	50	Incongruent	zielony	green	czerwony	red	hit	n/a
142.607	n/a	RESPONSE	n/a	n/a	n/a	n/a	n/a	n/a	n/a	red
142.6191	1.0	ITI	n/a	n/a	n/a	n/a	n/a	n/a	n/a	n/a
143.6191	0.5	FIXCROSS	n/a	n/a	n/a	n/a	n/a	n/a	n/a	n/a
144.1191	0.4833	INK	51	Incongruent	żółty	yellow	czerwony	red	hit	n/a
144.5897	n/a	RESPONSE	n/a	n/a	n/a	n/a	n/a	n/a	n/a	red
144.6024	1.0	ITI	n/a	n/a	n/a	n/a	n/a	n/a	n/a	n/a
144.8615	n/a	RESPONSE	n/a	n/a	n/a	n/a	n/a	n/a	n/a	green
145.6024	0.5	FIXCROSS	n/a	n/a	n/a	n/a	n/a	n/a	n/a	n/a
146.1024	0.5833	INK	52	Neutral	xxxxxxxx	xxxxxxxx	niebieski	blue	hit	n/a
146.6682	n/a	RESPONSE	n/a	n/a	n/a	n/a	n/a	n/a	n/a	blue
146.6857	1.0	ITI	n/a	n/a	n/a	n/a	n/a	n/a	n/a	n/a
147.6857	0.5	FIXCROSS	n/a	n/a	n/a	n/a	n/a	n/a	n/a	n/a
148.1857	0.5833	INK	53	Neutral	xxxxxxxx	xxxxxxxx	niebieski	blue	hit	n/a
148.7628	n/a	RESPONSE	n/a	n/a	n/a	n/a	n/a	n/a	n/a	blue
148.769	1.0	ITI	n/a	n/a	n/a	n/a	n/a	n/a	n/a	n/a
149.769	0.5	FIXCROSS	n/a	n/a	n/a	n/a	n/a	n/a	n/a	n/a
150.269	0.6167	INK	54	Neutral	xxxxxxxx	xxxxxxxx	żółty	yellow	hit	n/a
150.8733	n/a	RESPONSE	n/a	n/a	n/a	n/a	n/a	n/a	n/a	yellow
150.8856	1.0	ITI	n/a	n/a	n/a	n/a	n/a	n/a	n/a	n/a
151.8856	0.5	FIXCROSS	n/a	n/a	n/a	n/a	n/a	n/a	n/a	n/a
152.3856	0.6333	INK	55	Incongruent	czerwony	red	niebieski	blue	hit	n/a
152.9999	n/a	RESPONSE	n/a	n/a	n/a	n/a	n/a	n/a	n/a	blue
153.0189	1.0	ITI	n/a	n/a	n/a	n/a	n/a	n/a	n/a	n/a
154.0189	0.5	FIXCROSS	n/a	n/a	n/a	n/a	n/a	n/a	n/a	n/a
154.5189	0.4667	INK	56	Incongruent	niebieski	blue	czerwony	red	hit	n/a
154.9665	n/a	RESPONSE	n/a	n/a	n/a	n/a	n/a	n/a	n/a	red
154.9856	1.0	ITI	n/a	n/a	n/a	n/a	n/a	n/a	n/a	n/a
155.9855	0.5	FIXCROSS	n/a	n/a	n/a	n/a	n/a	n/a	n/a	n/a
156.4855	0.5167	INK	57	Incongruent	zielony	green	niebieski	blue	hit	n/a
156.9971	n/a	RESPONSE	n/a	n/a	n/a	n/a	n/a	n/a	n/a	blue
157.0022	1.0	ITI	n/a	n/a	n/a	n/a	n/a	n/a	n/a	n/a
158.0022	0.5	FIXCROSS	n/a	n/a	n/a	n/a	n/a	n/a	n/a	n/a
158.5022	0.6833	INK	58	Incongruent	zielony	green	żółty	yellow	hit	n/a
159.1718	n/a	RESPONSE	n/a	n/a	n/a	n/a	n/a	n/a	n/a	yellow
159.1855	1.0	ITI	n/a	n/a	n/a	n/a	n/a	n/a	n/a	n/a
160.1855	0.5	FIXCROSS	n/a	n/a	n/a	n/a	n/a	n/a	n/a	n/a
160.6854	0.6167	INK	59	Neutral	xxxxx	xxxxx	niebieski	blue	hit	n/a
161.2982	n/a	RESPONSE	n/a	n/a	n/a	n/a	n/a	n/a	n/a	blue
161.3021	1.0	ITI	n/a	n/a	n/a	n/a	n/a	n/a	n/a	n/a
162.3021	0.5	FIXCROSS	n/a	n/a	n/a	n/a	n/a	n/a	n/a	n/a
162.8021	0.4333	INK	60	Neutral	xxxxxxxxx	xxxxxxxxx	czerwony	red	hit	n/a
163.2171	n/a	RESPONSE	n/a	n/a	n/a	n/a	n/a	n/a	n/a	red
163.2354	1.0	ITI	n/a	n/a	n/a	n/a	n/a	n/a	n/a	n/a
164.2354	0.5	FIXCROSS	n/a	n/a	n/a	n/a	n/a	n/a	n/a	n/a
164.7354	0.6333	INK	61	Incongruent	czerwony	red	żółty	yellow	hit	n/a
165.3596	n/a	RESPONSE	n/a	n/a	n/a	n/a	n/a	n/a	n/a	yellow
165.3687	1.0	ITI	n/a	n/a	n/a	n/a	n/a	n/a	n/a	n/a
166.3687	0.5	FIXCROSS	n/a	n/a	n/a	n/a	n/a	n/a	n/a	n/a
166.8687	0.7833	INK	62	Incongruent	niebieski	blue	czerwony	red	hit	n/a
167.6461	n/a	RESPONSE	n/a	n/a	n/a	n/a	n/a	n/a	n/a	red
167.652	1.0	ITI	n/a	n/a	n/a	n/a	n/a	n/a	n/a	n/a
168.652	0.5	FIXCROSS	n/a	n/a	n/a	n/a	n/a	n/a	n/a	n/a
169.152	0.7333	INK	63	Neutral	xxxxxxx	xxxxxxx	czerwony	red	hit	n/a
169.8686	n/a	RESPONSE	n/a	n/a	n/a	n/a	n/a	n/a	n/a	red
169.8853	1.0	ITI	n/a	n/a	n/a	n/a	n/a	n/a	n/a	n/a
170.8853	0.5	FIXCROSS	n/a	n/a	n/a	n/a	n/a	n/a	n/a	n/a
171.3853	0.4667	INK	64	Neutral	xxxxxxx	xxxxxxx	czerwony	red	hit	n/a
171.8352	n/a	RESPONSE	n/a	n/a	n/a	n/a	n/a	n/a	n/a	red
171.8519	1.0	ITI	n/a	n/a	n/a	n/a	n/a	n/a	n/a	n/a
172.8519	0.5	FIXCROSS	n/a	n/a	n/a	n/a	n/a	n/a	n/a	n/a
173.3519	0.7	INK	65	Incongruent	żółty	yellow	zielony	green	hit	n/a
174.0416	n/a	RESPONSE	n/a	n/a	n/a	n/a	n/a	n/a	n/a	green
174.0519	1.0	ITI	n/a	n/a	n/a	n/a	n/a	n/a	n/a	n/a
175.0519	0.5	FIXCROSS	n/a	n/a	n/a	n/a	n/a	n/a	n/a	n/a
175.5518	0.6167	INK	66	Neutral	xxxxxxx	xxxxxxx	żółty	yellow	hit	n/a
176.1523	n/a	RESPONSE	n/a	n/a	n/a	n/a	n/a	n/a	n/a	yellow
176.1685	1.0	ITI	n/a	n/a	n/a	n/a	n/a	n/a	n/a	n/a
177.1685	0.5	FIXCROSS	n/a	n/a	n/a	n/a	n/a	n/a	n/a	n/a
177.6685	0.7	INK	67	Incongruent	czerwony	red	żółty	yellow	hit	n/a
178.3587	n/a	RESPONSE	n/a	n/a	n/a	n/a	n/a	n/a	n/a	yellow
178.3685	1.0	ITI	n/a	n/a	n/a	n/a	n/a	n/a	n/a	n/a
179.3684	0.5	FIXCROSS	n/a	n/a	n/a	n/a	n/a	n/a	n/a	n/a
179.8684	0.5833	INK	68	Neutral	xxxxxxx	xxxxxxx	żółty	yellow	hit	n/a
180.4374	n/a	RESPONSE	n/a	n/a	n/a	n/a	n/a	n/a	n/a	yellow
180.4518	1.0	ITI	n/a	n/a	n/a	n/a	n/a	n/a	n/a	n/a
181.4517	0.5	FIXCROSS	n/a	n/a	n/a	n/a	n/a	n/a	n/a	n/a
181.9517	0.5667	INK	69	Neutral	xxxxxxxxx	xxxxxxxxx	zielony	green	hit	n/a
182.4998	n/a	RESPONSE	n/a	n/a	n/a	n/a	n/a	n/a	n/a	green
182.5184	1.0	ITI	n/a	n/a	n/a	n/a	n/a	n/a	n/a	n/a
183.5184	0.5	FIXCROSS	n/a	n/a	n/a	n/a	n/a	n/a	n/a	n/a
184.0184	0.6333	INK	70	Incongruent	czerwony	red	żółty	yellow	hit	n/a
184.6424	n/a	RESPONSE	n/a	n/a	n/a	n/a	n/a	n/a	n/a	yellow
184.6517	1.0	ITI	n/a	n/a	n/a	n/a	n/a	n/a	n/a	n/a
184.7224	n/a	RESPONSE	n/a	n/a	n/a	n/a	n/a	n/a	n/a	green
185.6517	0.5	FIXCROSS	n/a	n/a	n/a	n/a	n/a	n/a	n/a	n/a
186.1517	1.0833	INK	71	Incongruent	czerwony	red	niebieski	blue	incorrect	n/a
187.2166	n/a	RESPONSE	n/a	n/a	n/a	n/a	n/a	n/a	n/a	green
187.2326	n/a	RESPONSE	n/a	n/a	n/a	n/a	n/a	n/a	n/a	blue
187.235	1.0	ITI	n/a	n/a	n/a	n/a	n/a	n/a	n/a	n/a
188.2349	0.5	FIXCROSS	n/a	n/a	n/a	n/a	n/a	n/a	n/a	n/a
188.7349	0.95	INK	72	Incongruent	zielony	green	żółty	yellow	hit	n/a
189.6789	n/a	RESPONSE	n/a	n/a	n/a	n/a	n/a	n/a	n/a	yellow
189.6849	1.0333	ITI	n/a	n/a	n/a	n/a	n/a	n/a	n/a	n/a
214.9417	n/a	RESPONSE	n/a	n/a	n/a	n/a	n/a	n/a	n/a	n/a
214.9678	1.0	ITI	n/a	n/a	n/a	n/a	n/a	n/a	n/a	n/a
215.9678	0.5	FIXCROSS	n/a	n/a	n/a	n/a	n/a	n/a	n/a	n/a
216.4678	1.45	T_COLOR_NAME	1	Neutral	zielony	green	Neutral	Neutral	hit	n/a
217.8996	n/a	RESPONSE	n/a	n/a	n/a	n/a	n/a	n/a	n/a	green
217.9177	0.5	FEEDBACK	n/a	n/a	n/a	n/a	n/a	n/a	n/a	n/a
218.4177	1.0	ITI	n/a	n/a	n/a	n/a	n/a	n/a	n/a	n/a
219.4177	0.5	FIXCROSS	n/a	n/a	n/a	n/a	n/a	n/a	n/a	n/a
219.9177	1.55	T_COLOR_NAME	2	Incongruent	zielony	green	czerwony	red	hit	n/a
221.4492	n/a	RESPONSE	n/a	n/a	n/a	n/a	n/a	n/a	n/a	green
221.4677	0.5	FEEDBACK	n/a	n/a	n/a	n/a	n/a	n/a	n/a	n/a
221.9677	1.0	ITI	n/a	n/a	n/a	n/a	n/a	n/a	n/a	n/a
222.9677	0.5	FIXCROSS	n/a	n/a	n/a	n/a	n/a	n/a	n/a	n/a
223.4676	1.1667	T_COLOR_NAME	3	Incongruent	żółty	yellow	zielony	green	hit	n/a
224.6151	n/a	RESPONSE	n/a	n/a	n/a	n/a	n/a	n/a	n/a	yellow
224.6343	0.5	FEEDBACK	n/a	n/a	n/a	n/a	n/a	n/a	n/a	n/a
225.1343	1.0	ITI	n/a	n/a	n/a	n/a	n/a	n/a	n/a	n/a
226.1343	0.5	FIXCROSS	n/a	n/a	n/a	n/a	n/a	n/a	n/a	n/a
226.6343	1.3333	T_COLOR_NAME	4	Incongruent	zielony	green	żółty	yellow	hit	n/a
227.9568	n/a	RESPONSE	n/a	n/a	n/a	n/a	n/a	n/a	n/a	green
227.9676	0.5	FEEDBACK	n/a	n/a	n/a	n/a	n/a	n/a	n/a	n/a
228.4676	1.0	ITI	n/a	n/a	n/a	n/a	n/a	n/a	n/a	n/a
229.4675	0.5	FIXCROSS	n/a	n/a	n/a	n/a	n/a	n/a	n/a	n/a
229.9675	0.9833	T_COLOR_NAME	5	Incongruent	niebieski	blue	zielony	green	hit	n/a
230.9308	n/a	RESPONSE	n/a	n/a	n/a	n/a	n/a	n/a	n/a	blue
230.9508	0.5	FEEDBACK	n/a	n/a	n/a	n/a	n/a	n/a	n/a	n/a
231.4508	1.0	ITI	n/a	n/a	n/a	n/a	n/a	n/a	n/a	n/a
232.4508	0.5	FIXCROSS	n/a	n/a	n/a	n/a	n/a	n/a	n/a	n/a
232.9508	1.0333	T_COLOR_NAME	6	Neutral	niebieski	blue	Neutral	Neutral	hit	n/a
233.9688	n/a	RESPONSE	n/a	n/a	n/a	n/a	n/a	n/a	n/a	blue
233.9841	0.5	FEEDBACK	n/a	n/a	n/a	n/a	n/a	n/a	n/a	n/a
234.4841	1.0	ITI	n/a	n/a	n/a	n/a	n/a	n/a	n/a	n/a
235.4841	0.5	FIXCROSS	n/a	n/a	n/a	n/a	n/a	n/a	n/a	n/a
235.9841	0.9166	T_COLOR_NAME	7	Neutral	czerwony	red	Neutral	Neutral	hit	n/a
236.8948	n/a	RESPONSE	n/a	n/a	n/a	n/a	n/a	n/a	n/a	red
236.9007	0.5	FEEDBACK	n/a	n/a	n/a	n/a	n/a	n/a	n/a	n/a
237.4007	1.0	ITI	n/a	n/a	n/a	n/a	n/a	n/a	n/a	n/a
238.4007	0.5	FIXCROSS	n/a	n/a	n/a	n/a	n/a	n/a	n/a	n/a
238.9007	0.9166	T_COLOR_NAME	8	Neutral	żółty	yellow	Neutral	Neutral	hit	n/a
239.8049	n/a	RESPONSE	n/a	n/a	n/a	n/a	n/a	n/a	n/a	yellow
239.8174	0.5	FEEDBACK	n/a	n/a	n/a	n/a	n/a	n/a	n/a	n/a
240.3173	1.0	ITI	n/a	n/a	n/a	n/a	n/a	n/a	n/a	n/a
241.3173	0.5	FIXCROSS	n/a	n/a	n/a	n/a	n/a	n/a	n/a	n/a
241.8173	1.2	T_COLOR_NAME	9	Incongruent	czerwony	red	żółty	yellow	hit	n/a
243.0026	n/a	RESPONSE	n/a	n/a	n/a	n/a	n/a	n/a	n/a	red
243.0173	0.5	FEEDBACK	n/a	n/a	n/a	n/a	n/a	n/a	n/a	n/a
243.5173	1.0	ITI	n/a	n/a	n/a	n/a	n/a	n/a	n/a	n/a
244.5173	0.5	FIXCROSS	n/a	n/a	n/a	n/a	n/a	n/a	n/a	n/a
245.0173	1.6833	T_COLOR_NAME	10	Incongruent	zielony	green	niebieski	blue	hit	n/a
246.696	n/a	RESPONSE	n/a	n/a	n/a	n/a	n/a	n/a	n/a	green
246.7005	0.5	FEEDBACK	n/a	n/a	n/a	n/a	n/a	n/a	n/a	n/a
247.2006	1.0	ITI	n/a	n/a	n/a	n/a	n/a	n/a	n/a	n/a
248.2005	0.5	FIXCROSS	n/a	n/a	n/a	n/a	n/a	n/a	n/a	n/a
248.7005	1.5	T_COLOR_NAME	11	Neutral	niebieski	blue	Neutral	Neutral	hit	n/a
250.1814	n/a	RESPONSE	n/a	n/a	n/a	n/a	n/a	n/a	n/a	blue
250.2005	0.5	FEEDBACK	n/a	n/a	n/a	n/a	n/a	n/a	n/a	n/a
250.7005	1.0	ITI	n/a	n/a	n/a	n/a	n/a	n/a	n/a	n/a
251.7005	0.5	FIXCROSS	n/a	n/a	n/a	n/a	n/a	n/a	n/a	n/a
252.2005	1.0833	T_COLOR_NAME	12	Neutral	czerwony	red	Neutral	Neutral	hit	n/a
253.2673	n/a	RESPONSE	n/a	n/a	n/a	n/a	n/a	n/a	n/a	red
253.2838	0.5	FEEDBACK	n/a	n/a	n/a	n/a	n/a	n/a	n/a	n/a
253.7838	1.0	ITI	n/a	n/a	n/a	n/a	n/a	n/a	n/a	n/a
256.1454	n/a	RESPONSE	n/a	n/a	n/a	n/a	n/a	n/a	n/a	n/a
256.1671	1.0	ITI	n/a	n/a	n/a	n/a	n/a	n/a	n/a	n/a
257.167	0.5	FIXCROSS	n/a	n/a	n/a	n/a	n/a	n/a	n/a	n/a
257.667	1.75	COLOR_NAME	1	Incongruent	zielony	green	żółty	yellow	hit	n/a
259.4073	n/a	RESPONSE	n/a	n/a	n/a	n/a	n/a	n/a	n/a	green
259.417	1.0	ITI	n/a	n/a	n/a	n/a	n/a	n/a	n/a	n/a
260.417	0.5	FIXCROSS	n/a	n/a	n/a	n/a	n/a	n/a	n/a	n/a
260.917	1.1	COLOR_NAME	2	Neutral	czerwony	red	Neutral	Neutral	hit	n/a
261.9975	n/a	RESPONSE	n/a	n/a	n/a	n/a	n/a	n/a	n/a	red
262.0169	1.0	ITI	n/a	n/a	n/a	n/a	n/a	n/a	n/a	n/a
263.0169	0.5	FIXCROSS	n/a	n/a	n/a	n/a	n/a	n/a	n/a	n/a
263.5169	0.8167	COLOR_NAME	3	Neutral	czerwony	red	Neutral	Neutral	hit	n/a
264.3159	n/a	RESPONSE	n/a	n/a	n/a	n/a	n/a	n/a	n/a	red
264.3336	1.0	ITI	n/a	n/a	n/a	n/a	n/a	n/a	n/a	n/a
265.3335	0.5	FIXCROSS	n/a	n/a	n/a	n/a	n/a	n/a	n/a	n/a
265.8335	1.2	COLOR_NAME	4	Incongruent	czerwony	red	niebieski	blue	hit	n/a
267.0181	n/a	RESPONSE	n/a	n/a	n/a	n/a	n/a	n/a	n/a	red
267.0335	1.0	ITI	n/a	n/a	n/a	n/a	n/a	n/a	n/a	n/a
268.0335	0.5	FIXCROSS	n/a	n/a	n/a	n/a	n/a	n/a	n/a	n/a
268.5335	0.8833	COLOR_NAME	5	Neutral	żółty	yellow	Neutral	Neutral	hit	n/a
269.4005	n/a	RESPONSE	n/a	n/a	n/a	n/a	n/a	n/a	n/a	yellow
269.4168	1.0	ITI	n/a	n/a	n/a	n/a	n/a	n/a	n/a	n/a
270.4168	0.5	FIXCROSS	n/a	n/a	n/a	n/a	n/a	n/a	n/a	n/a
270.9168	0.6333	COLOR_NAME	6	Neutral	czerwony	red	Neutral	Neutral	hit	n/a
271.5431	n/a	RESPONSE	n/a	n/a	n/a	n/a	n/a	n/a	n/a	red
271.5501	1.0	ITI	n/a	n/a	n/a	n/a	n/a	n/a	n/a	n/a
272.5501	0.5	FIXCROSS	n/a	n/a	n/a	n/a	n/a	n/a	n/a	n/a
273.0501	0.55	COLOR_NAME	7	Neutral	czerwony	red	Neutral	Neutral	hit	n/a
273.5897	n/a	RESPONSE	n/a	n/a	n/a	n/a	n/a	n/a	n/a	red
273.6001	1.0	ITI	n/a	n/a	n/a	n/a	n/a	n/a	n/a	n/a
274.6001	0.5	FIXCROSS	n/a	n/a	n/a	n/a	n/a	n/a	n/a	n/a
275.1001	0.7333	COLOR_NAME	8	Incongruent	żółty	yellow	zielony	green	hit	n/a
275.8282	n/a	RESPONSE	n/a	n/a	n/a	n/a	n/a	n/a	n/a	yellow
275.8334	1.0	ITI	n/a	n/a	n/a	n/a	n/a	n/a	n/a	n/a
276.8334	0.5	FIXCROSS	n/a	n/a	n/a	n/a	n/a	n/a	n/a	n/a
277.3333	0.6167	COLOR_NAME	9	Incongruent	żółty	yellow	czerwony	red	hit	n/a
277.9387	n/a	RESPONSE	n/a	n/a	n/a	n/a	n/a	n/a	n/a	yellow
277.95	1.0	ITI	n/a	n/a	n/a	n/a	n/a	n/a	n/a	n/a
278.95	0.5	FIXCROSS	n/a	n/a	n/a	n/a	n/a	n/a	n/a	n/a
279.45	0.6167	COLOR_NAME	10	Neutral	żółty	yellow	Neutral	Neutral	hit	n/a
280.0493	n/a	RESPONSE	n/a	n/a	n/a	n/a	n/a	n/a	n/a	yellow
280.0666	1.0	ITI	n/a	n/a	n/a	n/a	n/a	n/a	n/a	n/a
281.0666	0.5	FIXCROSS	n/a	n/a	n/a	n/a	n/a	n/a	n/a	n/a
281.5666	1.0833	COLOR_NAME	11	Neutral	niebieski	blue	Neutral	Neutral	hit	n/a
282.6395	n/a	RESPONSE	n/a	n/a	n/a	n/a	n/a	n/a	n/a	blue
282.6499	1.0	ITI	n/a	n/a	n/a	n/a	n/a	n/a	n/a	n/a
283.6499	0.5	FIXCROSS	n/a	n/a	n/a	n/a	n/a	n/a	n/a	n/a
284.1499	0.6667	COLOR_NAME	12	Incongruent	niebieski	blue	żółty	yellow	hit	n/a
284.798	n/a	RESPONSE	n/a	n/a	n/a	n/a	n/a	n/a	n/a	blue
284.8165	1.0	ITI	n/a	n/a	n/a	n/a	n/a	n/a	n/a	n/a
285.8165	0.5	FIXCROSS	n/a	n/a	n/a	n/a	n/a	n/a	n/a	n/a
286.3165	0.9333	COLOR_NAME	13	Incongruent	żółty	yellow	niebieski	blue	hit	n/a
287.2443	n/a	RESPONSE	n/a	n/a	n/a	n/a	n/a	n/a	n/a	yellow
287.2498	1.0	ITI	n/a	n/a	n/a	n/a	n/a	n/a	n/a	n/a
288.2498	0.5	FIXCROSS	n/a	n/a	n/a	n/a	n/a	n/a	n/a	n/a
288.7498	0.8833	COLOR_NAME	14	Neutral	zielony	green	Neutral	Neutral	hit	n/a
289.6267	n/a	RESPONSE	n/a	n/a	n/a	n/a	n/a	n/a	n/a	green
289.6331	1.0	ITI	n/a	n/a	n/a	n/a	n/a	n/a	n/a	n/a
290.6331	0.5	FIXCROSS	n/a	n/a	n/a	n/a	n/a	n/a	n/a	n/a
291.1331	0.7333	COLOR_NAME	15	Incongruent	zielony	green	niebieski	blue	hit	n/a
291.8493	n/a	RESPONSE	n/a	n/a	n/a	n/a	n/a	n/a	n/a	green
291.8664	1.0	ITI	n/a	n/a	n/a	n/a	n/a	n/a	n/a	n/a
292.8664	0.5	FIXCROSS	n/a	n/a	n/a	n/a	n/a	n/a	n/a	n/a
293.3664	0.8167	COLOR_NAME	16	Incongruent	żółty	yellow	niebieski	blue	hit	n/a
294.1677	n/a	RESPONSE	n/a	n/a	n/a	n/a	n/a	n/a	n/a	yellow
294.183	1.0	ITI	n/a	n/a	n/a	n/a	n/a	n/a	n/a	n/a
295.183	0.5	FIXCROSS	n/a	n/a	n/a	n/a	n/a	n/a	n/a	n/a
295.683	0.8	COLOR_NAME	17	Incongruent	niebieski	blue	żółty	yellow	hit	n/a
296.47	n/a	RESPONSE	n/a	n/a	n/a	n/a	n/a	n/a	n/a	blue
296.483	1.0	ITI	n/a	n/a	n/a	n/a	n/a	n/a	n/a	n/a
297.483	0.5	FIXCROSS	n/a	n/a	n/a	n/a	n/a	n/a	n/a	n/a
297.983	0.5833	COLOR_NAME	18	Neutral	niebieski	blue	Neutral	Neutral	hit	n/a
298.5487	n/a	RESPONSE	n/a	n/a	n/a	n/a	n/a	n/a	n/a	blue
298.5663	1.0	ITI	n/a	n/a	n/a	n/a	n/a	n/a	n/a	n/a
299.5663	0.5	FIXCROSS	n/a	n/a	n/a	n/a	n/a	n/a	n/a	n/a
300.0663	0.7833	COLOR_NAME	19	Neutral	czerwony	red	Neutral	Neutral	hit	n/a
300.8351	n/a	RESPONSE	n/a	n/a	n/a	n/a	n/a	n/a	n/a	red
300.8496	1.0	ITI	n/a	n/a	n/a	n/a	n/a	n/a	n/a	n/a
301.8496	0.5	FIXCROSS	n/a	n/a	n/a	n/a	n/a	n/a	n/a	n/a
302.3496	0.4833	COLOR_NAME	20	Neutral	czerwony	red	Neutral	Neutral	hit	n/a
302.8178	n/a	RESPONSE	n/a	n/a	n/a	n/a	n/a	n/a	n/a	red
302.8329	1.0	ITI	n/a	n/a	n/a	n/a	n/a	n/a	n/a	n/a
303.8329	0.5	FIXCROSS	n/a	n/a	n/a	n/a	n/a	n/a	n/a	n/a
304.3329	0.7833	COLOR_NAME	21	Neutral	zielony	green	Neutral	Neutral	hit	n/a
305.1042	n/a	RESPONSE	n/a	n/a	n/a	n/a	n/a	n/a	n/a	green
305.1162	1.0	ITI	n/a	n/a	n/a	n/a	n/a	n/a	n/a	n/a
306.1162	0.5	FIXCROSS	n/a	n/a	n/a	n/a	n/a	n/a	n/a	n/a
306.6161	0.7	COLOR_NAME	22	Neutral	czerwony	red	Neutral	Neutral	hit	n/a
307.3107	n/a	RESPONSE	n/a	n/a	n/a	n/a	n/a	n/a	n/a	red
307.3161	1.0	ITI	n/a	n/a	n/a	n/a	n/a	n/a	n/a	n/a
308.3161	0.5	FIXCROSS	n/a	n/a	n/a	n/a	n/a	n/a	n/a	n/a
308.8161	1.4833	COLOR_NAME	23	Incongruent	czerwony	red	niebieski	blue	hit	n/a
310.2847	n/a	RESPONSE	n/a	n/a	n/a	n/a	n/a	n/a	n/a	red
310.2994	1.0	ITI	n/a	n/a	n/a	n/a	n/a	n/a	n/a	n/a
311.2994	0.5	FIXCROSS	n/a	n/a	n/a	n/a	n/a	n/a	n/a	n/a
311.7994	0.9	COLOR_NAME	24	Neutral	zielony	green	Neutral	Neutral	hit	n/a
312.6831	n/a	RESPONSE	n/a	n/a	n/a	n/a	n/a	n/a	n/a	green
312.6994	1.0	ITI	n/a	n/a	n/a	n/a	n/a	n/a	n/a	n/a
313.6994	0.5	FIXCROSS	n/a	n/a	n/a	n/a	n/a	n/a	n/a	n/a
314.1994	0.7166	COLOR_NAME	25	Neutral	żółty	yellow	Neutral	Neutral	hit	n/a
314.9056	n/a	RESPONSE	n/a	n/a	n/a	n/a	n/a	n/a	n/a	yellow
314.916	1.0	ITI	n/a	n/a	n/a	n/a	n/a	n/a	n/a	n/a
315.916	0.5	FIXCROSS	n/a	n/a	n/a	n/a	n/a	n/a	n/a	n/a
316.416	0.85	COLOR_NAME	26	Incongruent	czerwony	red	żółty	yellow	hit	n/a
317.2559	n/a	RESPONSE	n/a	n/a	n/a	n/a	n/a	n/a	n/a	red
317.266	1.0	ITI	n/a	n/a	n/a	n/a	n/a	n/a	n/a	n/a
318.2659	0.5	FIXCROSS	n/a	n/a	n/a	n/a	n/a	n/a	n/a	n/a
318.7659	0.9666	COLOR_NAME	27	Incongruent	zielony	green	czerwony	red	hit	n/a
319.7183	n/a	RESPONSE	n/a	n/a	n/a	n/a	n/a	n/a	n/a	green
319.7326	1.0	ITI	n/a	n/a	n/a	n/a	n/a	n/a	n/a	n/a
320.7326	0.5	FIXCROSS	n/a	n/a	n/a	n/a	n/a	n/a	n/a	n/a
321.2325	0.7333	COLOR_NAME	28	Incongruent	czerwony	red	niebieski	blue	hit	n/a
321.9568	n/a	RESPONSE	n/a	n/a	n/a	n/a	n/a	n/a	n/a	red
321.9659	1.0	ITI	n/a	n/a	n/a	n/a	n/a	n/a	n/a	n/a
322.9659	0.5	FIXCROSS	n/a	n/a	n/a	n/a	n/a	n/a	n/a	n/a
323.4658	0.85	COLOR_NAME	29	Neutral	zielony	green	Neutral	Neutral	hit	n/a
324.3071	n/a	RESPONSE	n/a	n/a	n/a	n/a	n/a	n/a	n/a	green
324.3158	1.0	ITI	n/a	n/a	n/a	n/a	n/a	n/a	n/a	n/a
325.3158	0.5	FIXCROSS	n/a	n/a	n/a	n/a	n/a	n/a	n/a	n/a
325.8158	0.7667	COLOR_NAME	30	Incongruent	czerwony	red	zielony	green	hit	n/a
326.5776	n/a	RESPONSE	n/a	n/a	n/a	n/a	n/a	n/a	n/a	red
326.5825	1.0	ITI	n/a	n/a	n/a	n/a	n/a	n/a	n/a	n/a
327.5824	0.5	FIXCROSS	n/a	n/a	n/a	n/a	n/a	n/a	n/a	n/a
328.0824	0.75	COLOR_NAME	31	Incongruent	żółty	yellow	zielony	green	hit	n/a
328.8161	n/a	RESPONSE	n/a	n/a	n/a	n/a	n/a	n/a	n/a	yellow
328.8324	1.0	ITI	n/a	n/a	n/a	n/a	n/a	n/a	n/a	n/a
329.8324	0.5	FIXCROSS	n/a	n/a	n/a	n/a	n/a	n/a	n/a	n/a
330.3324	0.5333	COLOR_NAME	32	Neutral	niebieski	blue	Neutral	Neutral	hit	n/a
330.8627	n/a	RESPONSE	n/a	n/a	n/a	n/a	n/a	n/a	n/a	blue
330.8657	1.0	ITI	n/a	n/a	n/a	n/a	n/a	n/a	n/a	n/a
331.8657	0.5	FIXCROSS	n/a	n/a	n/a	n/a	n/a	n/a	n/a	n/a
332.3657	0.8	COLOR_NAME	33	Incongruent	żółty	yellow	czerwony	red	hit	n/a
333.1492	n/a	RESPONSE	n/a	n/a	n/a	n/a	n/a	n/a	n/a	yellow
333.1657	1.0	ITI	n/a	n/a	n/a	n/a	n/a	n/a	n/a	n/a
334.1656	0.5	FIXCROSS	n/a	n/a	n/a	n/a	n/a	n/a	n/a	n/a
334.6656	0.7166	COLOR_NAME	34	Neutral	zielony	green	Neutral	Neutral	hit	n/a
335.3717	n/a	RESPONSE	n/a	n/a	n/a	n/a	n/a	n/a	n/a	green
335.3823	1.0	ITI	n/a	n/a	n/a	n/a	n/a	n/a	n/a	n/a
336.3823	0.5	FIXCROSS	n/a	n/a	n/a	n/a	n/a	n/a	n/a	n/a
336.8823	0.6667	COLOR_NAME	35	Incongruent	zielony	green	żółty	yellow	hit	n/a
337.5301	n/a	RESPONSE	n/a	n/a	n/a	n/a	n/a	n/a	n/a	green
337.5489	1.0	ITI	n/a	n/a	n/a	n/a	n/a	n/a	n/a	n/a
338.5489	0.5	FIXCROSS	n/a	n/a	n/a	n/a	n/a	n/a	n/a	n/a
339.0489	0.5833	COLOR_NAME	36	Incongruent	zielony	green	żółty	yellow	hit	n/a
339.6248	n/a	RESPONSE	n/a	n/a	n/a	n/a	n/a	n/a	n/a	green
339.6322	1.0	ITI	n/a	n/a	n/a	n/a	n/a	n/a	n/a	n/a
340.6322	0.5	FIXCROSS	n/a	n/a	n/a	n/a	n/a	n/a	n/a	n/a
341.1322	0.75	COLOR_NAME	37	Incongruent	zielony	green	niebieski	blue	hit	n/a
341.8793	n/a	RESPONSE	n/a	n/a	n/a	n/a	n/a	n/a	n/a	green
341.8822	1.0	ITI	n/a	n/a	n/a	n/a	n/a	n/a	n/a	n/a
342.8822	0.5	FIXCROSS	n/a	n/a	n/a	n/a	n/a	n/a	n/a	n/a
343.3821	0.7167	COLOR_NAME	38	Neutral	czerwony	red	Neutral	Neutral	hit	n/a
344.0858	n/a	RESPONSE	n/a	n/a	n/a	n/a	n/a	n/a	n/a	red
344.0988	1.0	ITI	n/a	n/a	n/a	n/a	n/a	n/a	n/a	n/a
345.0988	0.5	FIXCROSS	n/a	n/a	n/a	n/a	n/a	n/a	n/a	n/a
345.5988	0.9666	COLOR_NAME	39	Neutral	zielony	green	Neutral	Neutral	hit	n/a
346.5481	n/a	RESPONSE	n/a	n/a	n/a	n/a	n/a	n/a	n/a	green
346.5654	1.0	ITI	n/a	n/a	n/a	n/a	n/a	n/a	n/a	n/a
347.5654	0.5	FIXCROSS	n/a	n/a	n/a	n/a	n/a	n/a	n/a	n/a
348.0654	0.9	COLOR_NAME	40	Incongruent	niebieski	blue	czerwony	red	hit	n/a
348.9625	n/a	RESPONSE	n/a	n/a	n/a	n/a	n/a	n/a	n/a	blue
348.9654	1.0	ITI	n/a	n/a	n/a	n/a	n/a	n/a	n/a	n/a
349.9654	0.5	FIXCROSS	n/a	n/a	n/a	n/a	n/a	n/a	n/a	n/a
350.4654	0.8333	COLOR_NAME	41	Neutral	czerwony	red	Neutral	Neutral	hit	n/a
351.281	n/a	RESPONSE	n/a	n/a	n/a	n/a	n/a	n/a	n/a	red
351.2987	1.0	ITI	n/a	n/a	n/a	n/a	n/a	n/a	n/a	n/a
352.2987	0.5	FIXCROSS	n/a	n/a	n/a	n/a	n/a	n/a	n/a	n/a
352.7986	1.0333	COLOR_NAME	42	Incongruent	niebieski	blue	zielony	green	hit	n/a
353.8232	n/a	RESPONSE	n/a	n/a	n/a	n/a	n/a	n/a	n/a	blue
353.832	1.0	ITI	n/a	n/a	n/a	n/a	n/a	n/a	n/a	n/a
354.832	0.5	FIXCROSS	n/a	n/a	n/a	n/a	n/a	n/a	n/a	n/a
355.3319	0.7167	COLOR_NAME	43	Incongruent	niebieski	blue	zielony	green	hit	n/a
356.0457	n/a	RESPONSE	n/a	n/a	n/a	n/a	n/a	n/a	n/a	blue
356.0486	1.0	ITI	n/a	n/a	n/a	n/a	n/a	n/a	n/a	n/a
357.0486	0.5	FIXCROSS	n/a	n/a	n/a	n/a	n/a	n/a	n/a	n/a
357.5486	0.8833	COLOR_NAME	44	Incongruent	czerwony	red	żółty	yellow	hit	n/a
358.428	n/a	RESPONSE	n/a	n/a	n/a	n/a	n/a	n/a	n/a	red
358.4319	1.0	ITI	n/a	n/a	n/a	n/a	n/a	n/a	n/a	n/a
359.4319	0.5	FIXCROSS	n/a	n/a	n/a	n/a	n/a	n/a	n/a	n/a
359.9319	0.7167	COLOR_NAME	45	Neutral	niebieski	blue	Neutral	Neutral	hit	n/a
360.6344	n/a	RESPONSE	n/a	n/a	n/a	n/a	n/a	n/a	n/a	blue
360.6485	1.0	ITI	n/a	n/a	n/a	n/a	n/a	n/a	n/a	n/a
361.6485	0.5	FIXCROSS	n/a	n/a	n/a	n/a	n/a	n/a	n/a	n/a
362.1485	0.7833	COLOR_NAME	46	Incongruent	żółty	yellow	zielony	green	hit	n/a
362.921	n/a	RESPONSE	n/a	n/a	n/a	n/a	n/a	n/a	n/a	yellow
362.9318	1.0	ITI	n/a	n/a	n/a	n/a	n/a	n/a	n/a	n/a
363.9318	0.5	FIXCROSS	n/a	n/a	n/a	n/a	n/a	n/a	n/a	n/a
364.4318	0.7333	COLOR_NAME	47	Incongruent	niebieski	blue	żółty	yellow	hit	n/a
365.1595	n/a	RESPONSE	n/a	n/a	n/a	n/a	n/a	n/a	n/a	blue
365.1651	1.0	ITI	n/a	n/a	n/a	n/a	n/a	n/a	n/a	n/a
366.1651	0.5	FIXCROSS	n/a	n/a	n/a	n/a	n/a	n/a	n/a	n/a
366.6651	0.8	COLOR_NAME	48	Neutral	żółty	yellow	Neutral	Neutral	hit	n/a
367.446	n/a	RESPONSE	n/a	n/a	n/a	n/a	n/a	n/a	n/a	yellow
367.465	1.0	ITI	n/a	n/a	n/a	n/a	n/a	n/a	n/a	n/a
368.465	0.5	FIXCROSS	n/a	n/a	n/a	n/a	n/a	n/a	n/a	n/a
368.965	0.7833	COLOR_NAME	49	Incongruent	żółty	yellow	niebieski	blue	hit	n/a
369.7323	n/a	RESPONSE	n/a	n/a	n/a	n/a	n/a	n/a	n/a	yellow
369.7483	1.0	ITI	n/a	n/a	n/a	n/a	n/a	n/a	n/a	n/a
370.7483	0.5	FIXCROSS	n/a	n/a	n/a	n/a	n/a	n/a	n/a	n/a
371.2483	0.8667	COLOR_NAME	50	Incongruent	zielony	green	czerwony	red	hit	n/a
372.0988	n/a	RESPONSE	n/a	n/a	n/a	n/a	n/a	n/a	n/a	green
372.115	1.0	ITI	n/a	n/a	n/a	n/a	n/a	n/a	n/a	n/a
373.1149	0.5	FIXCROSS	n/a	n/a	n/a	n/a	n/a	n/a	n/a	n/a
373.6149	0.8833	COLOR_NAME	51	Incongruent	niebieski	blue	czerwony	red	hit	n/a
374.4812	n/a	RESPONSE	n/a	n/a	n/a	n/a	n/a	n/a	n/a	blue
374.4983	1.0	ITI	n/a	n/a	n/a	n/a	n/a	n/a	n/a	n/a
375.4982	0.5	FIXCROSS	n/a	n/a	n/a	n/a	n/a	n/a	n/a	n/a
375.9982	0.7	COLOR_NAME	52	Neutral	żółty	yellow	Neutral	Neutral	hit	n/a
376.6877	n/a	RESPONSE	n/a	n/a	n/a	n/a	n/a	n/a	n/a	yellow
376.6982	1.0	ITI	n/a	n/a	n/a	n/a	n/a	n/a	n/a	n/a
377.6982	0.5	FIXCROSS	n/a	n/a	n/a	n/a	n/a	n/a	n/a	n/a
378.1982	0.7833	COLOR_NAME	53	Neutral	zielony	green	Neutral	Neutral	hit	n/a
378.9742	n/a	RESPONSE	n/a	n/a	n/a	n/a	n/a	n/a	n/a	green
378.9815	1.0	ITI	n/a	n/a	n/a	n/a	n/a	n/a	n/a	n/a
379.9815	0.5	FIXCROSS	n/a	n/a	n/a	n/a	n/a	n/a	n/a	n/a
380.4815	0.6167	COLOR_NAME	54	Neutral	niebieski	blue	Neutral	Neutral	hit	n/a
381.0848	n/a	RESPONSE	n/a	n/a	n/a	n/a	n/a	n/a	n/a	blue
381.0981	1.0	ITI	n/a	n/a	n/a	n/a	n/a	n/a	n/a	n/a
382.0981	0.5	FIXCROSS	n/a	n/a	n/a	n/a	n/a	n/a	n/a	n/a
382.5981	0.8333	COLOR_NAME	55	Incongruent	czerwony	red	żółty	yellow	hit	n/a
383.4191	n/a	RESPONSE	n/a	n/a	n/a	n/a	n/a	n/a	n/a	red
383.4314	1.0	ITI	n/a	n/a	n/a	n/a	n/a	n/a	n/a	n/a
384.4314	0.5	FIXCROSS	n/a	n/a	n/a	n/a	n/a	n/a	n/a	n/a
384.9314	1.2	COLOR_NAME	56	Incongruent	niebieski	blue	czerwony	red	hit	n/a
386.1212	n/a	RESPONSE	n/a	n/a	n/a	n/a	n/a	n/a	n/a	blue
386.1314	1.0	ITI	n/a	n/a	n/a	n/a	n/a	n/a	n/a	n/a
387.1314	0.5	FIXCROSS	n/a	n/a	n/a	n/a	n/a	n/a	n/a	n/a
387.6313	0.9	COLOR_NAME	57	Incongruent	zielony	green	czerwony	red	hit	n/a
388.5197	n/a	RESPONSE	n/a	n/a	n/a	n/a	n/a	n/a	n/a	green
388.5313	1.0	ITI	n/a	n/a	n/a	n/a	n/a	n/a	n/a	n/a
389.5313	0.5	FIXCROSS	n/a	n/a	n/a	n/a	n/a	n/a	n/a	n/a
390.0313	0.8333	COLOR_NAME	58	Neutral	niebieski	blue	Neutral	Neutral	hit	n/a
390.8541	n/a	RESPONSE	n/a	n/a	n/a	n/a	n/a	n/a	n/a	blue
390.8646	1.0	ITI	n/a	n/a	n/a	n/a	n/a	n/a	n/a	n/a
391.8646	0.5	FIXCROSS	n/a	n/a	n/a	n/a	n/a	n/a	n/a	n/a
392.3646	0.6	COLOR_NAME	59	Neutral	żółty	yellow	Neutral	Neutral	hit	n/a
392.9487	n/a	RESPONSE	n/a	n/a	n/a	n/a	n/a	n/a	n/a	yellow
392.9646	1.0	ITI	n/a	n/a	n/a	n/a	n/a	n/a	n/a	n/a
393.9646	0.5	FIXCROSS	n/a	n/a	n/a	n/a	n/a	n/a	n/a	n/a
394.4646	0.6667	COLOR_NAME	60	Neutral	żółty	yellow	Neutral	Neutral	hit	n/a
395.1232	n/a	RESPONSE	n/a	n/a	n/a	n/a	n/a	n/a	n/a	yellow
395.1312	1.0	ITI	n/a	n/a	n/a	n/a	n/a	n/a	n/a	n/a
396.1312	0.5	FIXCROSS	n/a	n/a	n/a	n/a	n/a	n/a	n/a	n/a
396.6312	0.8667	COLOR_NAME	61	Neutral	zielony	green	Neutral	Neutral	hit	n/a
397.4897	n/a	RESPONSE	n/a	n/a	n/a	n/a	n/a	n/a	n/a	green
397.4978	1.0	ITI	n/a	n/a	n/a	n/a	n/a	n/a	n/a	n/a
398.4978	0.5	FIXCROSS	n/a	n/a	n/a	n/a	n/a	n/a	n/a	n/a
398.9978	1.0166	COLOR_NAME	62	Incongruent	zielony	green	niebieski	blue	hit	n/a
399.9999	n/a	RESPONSE	n/a	n/a	n/a	n/a	n/a	n/a	n/a	green
400.0145	1.0	ITI	n/a	n/a	n/a	n/a	n/a	n/a	n/a	n/a
401.0144	0.5	FIXCROSS	n/a	n/a	n/a	n/a	n/a	n/a	n/a	n/a
401.5144	0.7167	COLOR_NAME	63	Neutral	zielony	green	Neutral	Neutral	hit	n/a
402.2224	n/a	RESPONSE	n/a	n/a	n/a	n/a	n/a	n/a	n/a	green
402.2311	1.0	ITI	n/a	n/a	n/a	n/a	n/a	n/a	n/a	n/a
403.2311	0.5	FIXCROSS	n/a	n/a	n/a	n/a	n/a	n/a	n/a	n/a
403.7311	0.8166	COLOR_NAME	64	Incongruent	czerwony	red	zielony	green	hit	n/a
404.5408	n/a	RESPONSE	n/a	n/a	n/a	n/a	n/a	n/a	n/a	red
404.5477	1.0	ITI	n/a	n/a	n/a	n/a	n/a	n/a	n/a	n/a
405.5477	0.5	FIXCROSS	n/a	n/a	n/a	n/a	n/a	n/a	n/a	n/a
406.0477	1.85	COLOR_NAME	65	Incongruent	niebieski	blue	zielony	green	hit	n/a
407.8826	n/a	RESPONSE	n/a	n/a	n/a	n/a	n/a	n/a	n/a	blue
407.8977	1.0	ITI	n/a	n/a	n/a	n/a	n/a	n/a	n/a	n/a
408.8976	0.5	FIXCROSS	n/a	n/a	n/a	n/a	n/a	n/a	n/a	n/a
409.3976	0.9	COLOR_NAME	66	Incongruent	czerwony	red	zielony	green	hit	n/a
410.2808	n/a	RESPONSE	n/a	n/a	n/a	n/a	n/a	n/a	n/a	red
410.2976	1.0	ITI	n/a	n/a	n/a	n/a	n/a	n/a	n/a	n/a
411.2976	0.5	FIXCROSS	n/a	n/a	n/a	n/a	n/a	n/a	n/a	n/a
411.7976	0.8167	COLOR_NAME	67	Neutral	żółty	yellow	Neutral	Neutral	hit	n/a
412.5993	n/a	RESPONSE	n/a	n/a	n/a	n/a	n/a	n/a	n/a	yellow
412.6142	1.0	ITI	n/a	n/a	n/a	n/a	n/a	n/a	n/a	n/a
413.6142	0.5	FIXCROSS	n/a	n/a	n/a	n/a	n/a	n/a	n/a	n/a
414.1142	0.6333	COLOR_NAME	68	Incongruent	żółty	yellow	czerwony	red	hit	n/a
414.7418	n/a	RESPONSE	n/a	n/a	n/a	n/a	n/a	n/a	n/a	yellow
414.7475	1.0	ITI	n/a	n/a	n/a	n/a	n/a	n/a	n/a	n/a
415.7475	0.5	FIXCROSS	n/a	n/a	n/a	n/a	n/a	n/a	n/a	n/a
416.2475	0.8	COLOR_NAME	69	Neutral	niebieski	blue	Neutral	Neutral	hit	n/a
417.0443	n/a	RESPONSE	n/a	n/a	n/a	n/a	n/a	n/a	n/a	blue
417.0475	1.0	ITI	n/a	n/a	n/a	n/a	n/a	n/a	n/a	n/a
418.0475	0.5	FIXCROSS	n/a	n/a	n/a	n/a	n/a	n/a	n/a	n/a
418.5475	0.6333	COLOR_NAME	70	Neutral	niebieski	blue	Neutral	Neutral	hit	n/a
419.1708	n/a	RESPONSE	n/a	n/a	n/a	n/a	n/a	n/a	n/a	blue
419.1808	1.0	ITI	n/a	n/a	n/a	n/a	n/a	n/a	n/a	n/a
420.1808	0.5	FIXCROSS	n/a	n/a	n/a	n/a	n/a	n/a	n/a	n/a
420.6808	0.6333	COLOR_NAME	71	Neutral	żółty	yellow	Neutral	Neutral	hit	n/a
421.2973	n/a	RESPONSE	n/a	n/a	n/a	n/a	n/a	n/a	n/a	yellow
421.3141	1.0	ITI	n/a	n/a	n/a	n/a	n/a	n/a	n/a	n/a
422.3141	0.5	FIXCROSS	n/a	n/a	n/a	n/a	n/a	n/a	n/a	n/a
422.814	0.6667	COLOR_NAME	72	Neutral	niebieski	blue	Neutral	Neutral	hit	n/a
423.4718	n/a	RESPONSE	n/a	n/a	n/a	n/a	n/a	n/a	n/a	blue
423.4807	1.0	ITI	n/a	n/a	n/a	n/a	n/a	n/a	n/a	n/a
427.2452	n/a	RESPONSE	n/a	n/a	n/a	n/a	n/a	n/a	n/a	n/a
