onset	duration	trial_type	trial_number	stroop_condition	stim_text(PL)	stim_text(eng)	stim_color(PL)	stim_color(eng)	response_type	response_color
0.0	n/a	RESPONSE	n/a	n/a	n/a	n/a	n/a	n/a	n/a	n/a
0.0542	1.0333	ITI	n/a	n/a	n/a	n/a	n/a	n/a	n/a	n/a
1.0876	0.5167	FIXCROSS	n/a	n/a	n/a	n/a	n/a	n/a	n/a	n/a
1.6042	1.45	T_INK	1	Incongruent	żółty	yellow	zielony	green	hit	n/a
3.0233	n/a	RESPONSE	n/a	n/a	n/a	n/a	n/a	n/a	n/a	green
3.0543	0.5167	FEEDBACK	n/a	n/a	n/a	n/a	n/a	n/a	n/a	n/a
3.5709	1.0167	ITI	n/a	n/a	n/a	n/a	n/a	n/a	n/a	n/a
4.5876	0.5167	FIXCROSS	n/a	n/a	n/a	n/a	n/a	n/a	n/a	n/a
5.1043	1.4334	T_INK	2	Incongruent	czerwony	red	niebieski	blue	hit	n/a
6.5105	n/a	RESPONSE	n/a	n/a	n/a	n/a	n/a	n/a	n/a	blue
6.5376	0.5167	FEEDBACK	n/a	n/a	n/a	n/a	n/a	n/a	n/a	n/a
7.0543	1.0167	ITI	n/a	n/a	n/a	n/a	n/a	n/a	n/a	n/a
8.071	0.5167	FIXCROSS	n/a	n/a	n/a	n/a	n/a	n/a	n/a	n/a
8.5877	1.5667	T_INK	3	Incongruent	niebieski	blue	zielony	green	hit	n/a
10.1256	n/a	RESPONSE	n/a	n/a	n/a	n/a	n/a	n/a	n/a	green
10.1543	0.5167	FEEDBACK	n/a	n/a	n/a	n/a	n/a	n/a	n/a	n/a
10.671	1.0167	ITI	n/a	n/a	n/a	n/a	n/a	n/a	n/a	n/a
11.6877	0.5167	FIXCROSS	n/a	n/a	n/a	n/a	n/a	n/a	n/a	n/a
12.2044	0.85	T_INK	4	Neutral	xxxxxxxx	xxxxxxxx	niebieski	blue	hit	n/a
13.0209	n/a	RESPONSE	n/a	n/a	n/a	n/a	n/a	n/a	n/a	blue
13.0544	0.5167	FEEDBACK	n/a	n/a	n/a	n/a	n/a	n/a	n/a	n/a
13.5711	1.0167	ITI	n/a	n/a	n/a	n/a	n/a	n/a	n/a	n/a
14.5877	0.5167	FIXCROSS	n/a	n/a	n/a	n/a	n/a	n/a	n/a	n/a
15.1044	0.6167	T_INK	5	Neutral	xxxxx	xxxxx	czerwony	red	hit	n/a
15.6923	n/a	RESPONSE	n/a	n/a	n/a	n/a	n/a	n/a	n/a	red
15.7211	0.5167	FEEDBACK	n/a	n/a	n/a	n/a	n/a	n/a	n/a	n/a
16.2377	1.0167	ITI	n/a	n/a	n/a	n/a	n/a	n/a	n/a	n/a
17.2544	0.5167	FIXCROSS	n/a	n/a	n/a	n/a	n/a	n/a	n/a	n/a
17.7711	1.3167	T_INK	6	Incongruent	niebieski	blue	żółty	yellow	hit	n/a
19.0674	n/a	RESPONSE	n/a	n/a	n/a	n/a	n/a	n/a	n/a	yellow
19.0878	0.5167	FEEDBACK	n/a	n/a	n/a	n/a	n/a	n/a	n/a	n/a
19.6045	1.0167	ITI	n/a	n/a	n/a	n/a	n/a	n/a	n/a	n/a
20.6211	0.5167	FIXCROSS	n/a	n/a	n/a	n/a	n/a	n/a	n/a	n/a
21.1378	0.9167	T_INK	7	Incongruent	zielony	green	niebieski	blue	hit	n/a
22.0267	n/a	RESPONSE	n/a	n/a	n/a	n/a	n/a	n/a	n/a	blue
22.0545	0.5167	FEEDBACK	n/a	n/a	n/a	n/a	n/a	n/a	n/a	n/a
22.5712	1.0167	ITI	n/a	n/a	n/a	n/a	n/a	n/a	n/a	n/a
23.5878	0.5167	FIXCROSS	n/a	n/a	n/a	n/a	n/a	n/a	n/a	n/a
24.1045	0.7333	T_INK	8	Incongruent	żółty	yellow	niebieski	blue	hit	n/a
24.81	n/a	RESPONSE	n/a	n/a	n/a	n/a	n/a	n/a	n/a	blue
24.8379	0.5167	FEEDBACK	n/a	n/a	n/a	n/a	n/a	n/a	n/a	n/a
25.3545	1.0167	ITI	n/a	n/a	n/a	n/a	n/a	n/a	n/a	n/a
26.3712	0.5167	FIXCROSS	n/a	n/a	n/a	n/a	n/a	n/a	n/a	n/a
26.8879	0.6667	T_INK	9	Neutral	xxxxxxx	xxxxxxx	niebieski	blue	hit	n/a
27.5294	n/a	RESPONSE	n/a	n/a	n/a	n/a	n/a	n/a	n/a	blue
27.5545	0.5167	FEEDBACK	n/a	n/a	n/a	n/a	n/a	n/a	n/a	n/a
28.0712	1.0167	ITI	n/a	n/a	n/a	n/a	n/a	n/a	n/a	n/a
29.0879	0.5167	FIXCROSS	n/a	n/a	n/a	n/a	n/a	n/a	n/a	n/a
29.6046	0.7333	T_INK	10	Neutral	xxxxxxx	xxxxxxx	czerwony	red	hit	n/a
30.3127	n/a	RESPONSE	n/a	n/a	n/a	n/a	n/a	n/a	n/a	red
30.3379	0.5167	FEEDBACK	n/a	n/a	n/a	n/a	n/a	n/a	n/a	n/a
30.8546	1.0167	ITI	n/a	n/a	n/a	n/a	n/a	n/a	n/a	n/a
31.8713	0.5167	FIXCROSS	n/a	n/a	n/a	n/a	n/a	n/a	n/a	n/a
32.3879	0.6333	T_INK	11	Neutral	xxxxx	xxxxx	zielony	green	hit	n/a
33.0001	n/a	RESPONSE	n/a	n/a	n/a	n/a	n/a	n/a	n/a	green
33.0213	0.5167	FEEDBACK	n/a	n/a	n/a	n/a	n/a	n/a	n/a	n/a
33.538	1.0167	ITI	n/a	n/a	n/a	n/a	n/a	n/a	n/a	n/a
34.5546	0.5167	FIXCROSS	n/a	n/a	n/a	n/a	n/a	n/a	n/a	n/a
35.0713	0.7333	T_INK	12	Incongruent	czerwony	red	żółty	yellow	hit	n/a
35.7834	n/a	RESPONSE	n/a	n/a	n/a	n/a	n/a	n/a	n/a	yellow
35.8047	0.5167	FEEDBACK	n/a	n/a	n/a	n/a	n/a	n/a	n/a	n/a
36.3213	1.0334	ITI	n/a	n/a	n/a	n/a	n/a	n/a	n/a	n/a
39.8624	n/a	RESPONSE	n/a	n/a	n/a	n/a	n/a	n/a	n/a	n/a
39.9214	1.0167	ITI	n/a	n/a	n/a	n/a	n/a	n/a	n/a	n/a
40.938	0.5167	FIXCROSS	n/a	n/a	n/a	n/a	n/a	n/a	n/a	n/a
41.4547	1.0833	INK	1	Incongruent	żółty	yellow	niebieski	blue	hit	n/a
42.5178	n/a	RESPONSE	n/a	n/a	n/a	n/a	n/a	n/a	n/a	blue
42.5381	1.0167	ITI	n/a	n/a	n/a	n/a	n/a	n/a	n/a	n/a
43.5547	0.5167	FIXCROSS	n/a	n/a	n/a	n/a	n/a	n/a	n/a	n/a
44.0714	0.7333	INK	2	Incongruent	żółty	yellow	czerwony	red	hit	n/a
44.7732	n/a	RESPONSE	n/a	n/a	n/a	n/a	n/a	n/a	n/a	red
44.8048	1.0167	ITI	n/a	n/a	n/a	n/a	n/a	n/a	n/a	n/a
45.8214	0.5167	FIXCROSS	n/a	n/a	n/a	n/a	n/a	n/a	n/a	n/a
46.3381	0.8333	INK	3	Neutral	xxxxx	xxxxx	niebieski	blue	hit	n/a
47.1406	n/a	RESPONSE	n/a	n/a	n/a	n/a	n/a	n/a	n/a	blue
47.1714	1.0167	ITI	n/a	n/a	n/a	n/a	n/a	n/a	n/a	n/a
48.1881	0.5167	FIXCROSS	n/a	n/a	n/a	n/a	n/a	n/a	n/a	n/a
48.7048	0.7333	INK	4	Incongruent	niebieski	blue	czerwony	red	hit	n/a
49.4121	n/a	RESPONSE	n/a	n/a	n/a	n/a	n/a	n/a	n/a	red
49.4381	1.0167	ITI	n/a	n/a	n/a	n/a	n/a	n/a	n/a	n/a
50.4548	0.5167	FIXCROSS	n/a	n/a	n/a	n/a	n/a	n/a	n/a	n/a
50.9715	0.75	INK	5	Neutral	xxxxxxxx	xxxxxxxx	zielony	green	hit	n/a
51.6995	n/a	RESPONSE	n/a	n/a	n/a	n/a	n/a	n/a	n/a	green
51.7215	1.0167	ITI	n/a	n/a	n/a	n/a	n/a	n/a	n/a	n/a
52.7382	0.5167	FIXCROSS	n/a	n/a	n/a	n/a	n/a	n/a	n/a	n/a
53.2549	0.6667	INK	6	Neutral	xxxxxxxxx	xxxxxxxxx	zielony	green	hit	n/a
53.891	n/a	RESPONSE	n/a	n/a	n/a	n/a	n/a	n/a	n/a	green
53.9215	1.0167	ITI	n/a	n/a	n/a	n/a	n/a	n/a	n/a	n/a
54.9382	0.5167	FIXCROSS	n/a	n/a	n/a	n/a	n/a	n/a	n/a	n/a
55.4549	0.8833	INK	7	Incongruent	zielony	green	czerwony	red	hit	n/a
56.3064	n/a	RESPONSE	n/a	n/a	n/a	n/a	n/a	n/a	n/a	red
56.3382	1.0167	ITI	n/a	n/a	n/a	n/a	n/a	n/a	n/a	n/a
57.3549	0.5167	FIXCROSS	n/a	n/a	n/a	n/a	n/a	n/a	n/a	n/a
57.8716	0.9167	INK	8	Incongruent	niebieski	blue	zielony	green	hit	n/a
58.7698	n/a	RESPONSE	n/a	n/a	n/a	n/a	n/a	n/a	n/a	green
58.7883	1.0167	ITI	n/a	n/a	n/a	n/a	n/a	n/a	n/a	n/a
59.8049	0.5167	FIXCROSS	n/a	n/a	n/a	n/a	n/a	n/a	n/a	n/a
60.3216	0.8833	INK	9	Incongruent	żółty	yellow	niebieski	blue	hit	n/a
61.1692	n/a	RESPONSE	n/a	n/a	n/a	n/a	n/a	n/a	n/a	blue
61.1692	n/a	RESPONSE	n/a	n/a	n/a	n/a	n/a	n/a	n/a	n/a
61.205	1.0167	ITI	n/a	n/a	n/a	n/a	n/a	n/a	n/a	n/a
62.2216	0.5167	FIXCROSS	n/a	n/a	n/a	n/a	n/a	n/a	n/a	n/a
62.7383	0.85	INK	10	Neutral	xxxxx	xxxxx	zielony	green	hit	n/a
63.5527	n/a	RESPONSE	n/a	n/a	n/a	n/a	n/a	n/a	n/a	green
63.5883	1.0167	ITI	n/a	n/a	n/a	n/a	n/a	n/a	n/a	n/a
64.605	0.5167	FIXCROSS	n/a	n/a	n/a	n/a	n/a	n/a	n/a	n/a
65.1217	0.7999	INK	11	Neutral	xxxxxxx	xxxxxxx	żółty	yellow	hit	n/a
65.9041	n/a	RESPONSE	n/a	n/a	n/a	n/a	n/a	n/a	n/a	yellow
65.9216	1.0168	ITI	n/a	n/a	n/a	n/a	n/a	n/a	n/a	n/a
66.9384	0.5167	FIXCROSS	n/a	n/a	n/a	n/a	n/a	n/a	n/a	n/a
67.455	0.6333	INK	12	Neutral	xxxxxxxxx	xxxxxxxxx	czerwony	red	hit	n/a
68.0636	n/a	RESPONSE	n/a	n/a	n/a	n/a	n/a	n/a	n/a	red
68.0884	1.0167	ITI	n/a	n/a	n/a	n/a	n/a	n/a	n/a	n/a
69.105	0.5167	FIXCROSS	n/a	n/a	n/a	n/a	n/a	n/a	n/a	n/a
69.6217	0.8167	INK	13	Incongruent	zielony	green	niebieski	blue	hit	n/a
70.415	n/a	RESPONSE	n/a	n/a	n/a	n/a	n/a	n/a	n/a	blue
70.4384	1.0167	ITI	n/a	n/a	n/a	n/a	n/a	n/a	n/a	n/a
71.4551	0.5167	FIXCROSS	n/a	n/a	n/a	n/a	n/a	n/a	n/a	n/a
71.9717	0.6333	INK	14	Incongruent	niebieski	blue	czerwony	red	hit	n/a
72.5745	n/a	RESPONSE	n/a	n/a	n/a	n/a	n/a	n/a	n/a	red
72.6051	1.0167	ITI	n/a	n/a	n/a	n/a	n/a	n/a	n/a	n/a
73.6218	0.5167	FIXCROSS	n/a	n/a	n/a	n/a	n/a	n/a	n/a	n/a
74.1384	0.65	INK	15	Neutral	xxxxxxx	xxxxxxx	czerwony	red	hit	n/a
74.766	n/a	RESPONSE	n/a	n/a	n/a	n/a	n/a	n/a	n/a	red
74.7884	1.0167	ITI	n/a	n/a	n/a	n/a	n/a	n/a	n/a	n/a
75.8051	0.5167	FIXCROSS	n/a	n/a	n/a	n/a	n/a	n/a	n/a	n/a
76.3218	0.5667	INK	16	Incongruent	niebieski	blue	czerwony	red	hit	n/a
76.8615	n/a	RESPONSE	n/a	n/a	n/a	n/a	n/a	n/a	n/a	red
76.8885	1.0167	ITI	n/a	n/a	n/a	n/a	n/a	n/a	n/a	n/a
77.9051	0.5167	FIXCROSS	n/a	n/a	n/a	n/a	n/a	n/a	n/a	n/a
78.4218	0.75	INK	17	Incongruent	czerwony	red	żółty	yellow	incorrect	n/a
79.1489	n/a	RESPONSE	n/a	n/a	n/a	n/a	n/a	n/a	n/a	blue
79.1718	1.0167	ITI	n/a	n/a	n/a	n/a	n/a	n/a	n/a	n/a
80.1885	0.5167	FIXCROSS	n/a	n/a	n/a	n/a	n/a	n/a	n/a	n/a
80.7052	1.95	INK	18	Incongruent	żółty	yellow	czerwony	red	hit	n/a
82.6201	n/a	RESPONSE	n/a	n/a	n/a	n/a	n/a	n/a	n/a	red
82.6552	1.0167	ITI	n/a	n/a	n/a	n/a	n/a	n/a	n/a	n/a
83.6719	0.5167	FIXCROSS	n/a	n/a	n/a	n/a	n/a	n/a	n/a	n/a
84.1885	0.8167	INK	19	Incongruent	czerwony	red	żółty	yellow	hit	n/a
84.9715	n/a	RESPONSE	n/a	n/a	n/a	n/a	n/a	n/a	n/a	yellow
85.0052	1.0167	ITI	n/a	n/a	n/a	n/a	n/a	n/a	n/a	n/a
86.0219	0.5167	FIXCROSS	n/a	n/a	n/a	n/a	n/a	n/a	n/a	n/a
86.5386	0.8333	INK	20	Incongruent	zielony	green	czerwony	red	hit	n/a
87.3389	n/a	RESPONSE	n/a	n/a	n/a	n/a	n/a	n/a	n/a	red
87.3719	1.0167	ITI	n/a	n/a	n/a	n/a	n/a	n/a	n/a	n/a
88.3886	0.5167	FIXCROSS	n/a	n/a	n/a	n/a	n/a	n/a	n/a	n/a
88.9053	0.95	INK	21	Incongruent	niebieski	blue	żółty	yellow	hit	n/a
89.8343	n/a	RESPONSE	n/a	n/a	n/a	n/a	n/a	n/a	n/a	yellow
89.8553	1.0167	ITI	n/a	n/a	n/a	n/a	n/a	n/a	n/a	n/a
90.872	0.5167	FIXCROSS	n/a	n/a	n/a	n/a	n/a	n/a	n/a	n/a
91.3886	0.8	INK	22	Incongruent	czerwony	red	żółty	yellow	hit	n/a
92.1697	n/a	RESPONSE	n/a	n/a	n/a	n/a	n/a	n/a	n/a	yellow
92.1886	1.0167	ITI	n/a	n/a	n/a	n/a	n/a	n/a	n/a	n/a
93.2053	0.5167	FIXCROSS	n/a	n/a	n/a	n/a	n/a	n/a	n/a	n/a
93.722	1.4167	INK	23	Incongruent	zielony	green	czerwony	red	hit	n/a
95.1131	n/a	RESPONSE	n/a	n/a	n/a	n/a	n/a	n/a	n/a	red
95.1387	1.0167	ITI	n/a	n/a	n/a	n/a	n/a	n/a	n/a	n/a
96.1554	0.5167	FIXCROSS	n/a	n/a	n/a	n/a	n/a	n/a	n/a	n/a
96.672	0.8667	INK	24	Incongruent	niebieski	blue	żółty	yellow	hit	n/a
97.5125	n/a	RESPONSE	n/a	n/a	n/a	n/a	n/a	n/a	n/a	yellow
97.5387	1.0167	ITI	n/a	n/a	n/a	n/a	n/a	n/a	n/a	n/a
98.5554	0.5167	FIXCROSS	n/a	n/a	n/a	n/a	n/a	n/a	n/a	n/a
99.0721	0.7833	INK	25	Neutral	xxxxx	xxxxx	czerwony	red	incorrect	n/a
99.8319	n/a	RESPONSE	n/a	n/a	n/a	n/a	n/a	n/a	n/a	blue
99.8554	1.0167	ITI	n/a	n/a	n/a	n/a	n/a	n/a	n/a	n/a
100.8721	0.5167	FIXCROSS	n/a	n/a	n/a	n/a	n/a	n/a	n/a	n/a
101.3888	1.1334	INK	26	Incongruent	czerwony	red	zielony	green	hit	n/a
102.5032	n/a	RESPONSE	n/a	n/a	n/a	n/a	n/a	n/a	n/a	green
102.5221	1.0167	ITI	n/a	n/a	n/a	n/a	n/a	n/a	n/a	n/a
103.5388	0.5167	FIXCROSS	n/a	n/a	n/a	n/a	n/a	n/a	n/a	n/a
104.0555	0.5833	INK	27	Neutral	xxxxxxxxx	xxxxxxxxx	czerwony	red	hit	n/a
104.6148	n/a	RESPONSE	n/a	n/a	n/a	n/a	n/a	n/a	n/a	red
104.6388	1.0167	ITI	n/a	n/a	n/a	n/a	n/a	n/a	n/a	n/a
105.6555	0.5167	FIXCROSS	n/a	n/a	n/a	n/a	n/a	n/a	n/a	n/a
106.1721	0.7667	INK	28	Neutral	xxxxx	xxxxx	czerwony	red	hit	n/a
106.9182	n/a	RESPONSE	n/a	n/a	n/a	n/a	n/a	n/a	n/a	red
106.9388	1.0167	ITI	n/a	n/a	n/a	n/a	n/a	n/a	n/a	n/a
107.9555	0.5167	FIXCROSS	n/a	n/a	n/a	n/a	n/a	n/a	n/a	n/a
108.4722	0.9167	INK	29	Neutral	xxxxxxx	xxxxxxx	żółty	yellow	hit	n/a
109.3656	n/a	RESPONSE	n/a	n/a	n/a	n/a	n/a	n/a	n/a	yellow
109.3888	1.0167	ITI	n/a	n/a	n/a	n/a	n/a	n/a	n/a	n/a
110.4055	0.5167	FIXCROSS	n/a	n/a	n/a	n/a	n/a	n/a	n/a	n/a
110.9222	1.0	INK	30	Incongruent	czerwony	red	niebieski	blue	hit	n/a
111.893	n/a	RESPONSE	n/a	n/a	n/a	n/a	n/a	n/a	n/a	blue
111.9222	1.0167	ITI	n/a	n/a	n/a	n/a	n/a	n/a	n/a	n/a
112.9389	0.5167	FIXCROSS	n/a	n/a	n/a	n/a	n/a	n/a	n/a	n/a
113.4556	0.7333	INK	31	Neutral	xxxxxxxx	xxxxxxxx	zielony	green	hit	n/a
114.1644	n/a	RESPONSE	n/a	n/a	n/a	n/a	n/a	n/a	n/a	green
114.1889	1.0167	ITI	n/a	n/a	n/a	n/a	n/a	n/a	n/a	n/a
115.2056	0.5167	FIXCROSS	n/a	n/a	n/a	n/a	n/a	n/a	n/a	n/a
115.7223	0.7833	INK	32	Neutral	xxxxxxxxx	xxxxxxxxx	żółty	yellow	hit	n/a
116.4839	n/a	RESPONSE	n/a	n/a	n/a	n/a	n/a	n/a	n/a	yellow
116.5056	1.0167	ITI	n/a	n/a	n/a	n/a	n/a	n/a	n/a	n/a
117.5223	0.5167	FIXCROSS	n/a	n/a	n/a	n/a	n/a	n/a	n/a	n/a
118.039	1.0667	INK	33	Neutral	xxxxxxx	xxxxxxx	niebieski	blue	hit	n/a
119.0753	n/a	RESPONSE	n/a	n/a	n/a	n/a	n/a	n/a	n/a	blue
119.1056	1.0167	ITI	n/a	n/a	n/a	n/a	n/a	n/a	n/a	n/a
120.1223	0.5167	FIXCROSS	n/a	n/a	n/a	n/a	n/a	n/a	n/a	n/a
120.639	0.5667	INK	34	Incongruent	zielony	green	niebieski	blue	hit	n/a
121.1867	n/a	RESPONSE	n/a	n/a	n/a	n/a	n/a	n/a	n/a	blue
121.2057	1.0167	ITI	n/a	n/a	n/a	n/a	n/a	n/a	n/a	n/a
122.2223	0.5167	FIXCROSS	n/a	n/a	n/a	n/a	n/a	n/a	n/a	n/a
122.739	1.0667	INK	35	Incongruent	żółty	yellow	zielony	green	hit	n/a
123.778	n/a	RESPONSE	n/a	n/a	n/a	n/a	n/a	n/a	n/a	green
123.8057	1.0167	ITI	n/a	n/a	n/a	n/a	n/a	n/a	n/a	n/a
124.8224	0.5167	FIXCROSS	n/a	n/a	n/a	n/a	n/a	n/a	n/a	n/a
125.339	0.7667	INK	36	Neutral	xxxxx	xxxxx	niebieski	blue	hit	n/a
126.0815	n/a	RESPONSE	n/a	n/a	n/a	n/a	n/a	n/a	n/a	blue
126.1057	1.0167	ITI	n/a	n/a	n/a	n/a	n/a	n/a	n/a	n/a
127.1224	0.5167	FIXCROSS	n/a	n/a	n/a	n/a	n/a	n/a	n/a	n/a
127.6391	0.7833	INK	37	Incongruent	czerwony	red	zielony	green	hit	n/a
128.401	n/a	RESPONSE	n/a	n/a	n/a	n/a	n/a	n/a	n/a	green
128.4224	1.0167	ITI	n/a	n/a	n/a	n/a	n/a	n/a	n/a	n/a
129.4391	0.5167	FIXCROSS	n/a	n/a	n/a	n/a	n/a	n/a	n/a	n/a
129.9558	0.5	INK	38	Neutral	xxxxx	xxxxx	zielony	green	hit	n/a
130.4325	n/a	RESPONSE	n/a	n/a	n/a	n/a	n/a	n/a	n/a	green
130.4558	1.0167	ITI	n/a	n/a	n/a	n/a	n/a	n/a	n/a	n/a
131.4724	0.5167	FIXCROSS	n/a	n/a	n/a	n/a	n/a	n/a	n/a	n/a
131.9891	0.5833	INK	39	Neutral	xxxxxxxx	xxxxxxxx	żółty	yellow	hit	n/a
132.544	n/a	RESPONSE	n/a	n/a	n/a	n/a	n/a	n/a	n/a	yellow
132.5725	1.0167	ITI	n/a	n/a	n/a	n/a	n/a	n/a	n/a	n/a
133.5891	0.5167	FIXCROSS	n/a	n/a	n/a	n/a	n/a	n/a	n/a	n/a
134.1058	0.6667	INK	40	Incongruent	żółty	yellow	zielony	green	hit	n/a
134.7515	n/a	RESPONSE	n/a	n/a	n/a	n/a	n/a	n/a	n/a	green
134.7725	1.0167	ITI	n/a	n/a	n/a	n/a	n/a	n/a	n/a	n/a
135.7892	0.5167	FIXCROSS	n/a	n/a	n/a	n/a	n/a	n/a	n/a	n/a
136.3058	0.8833	INK	41	Neutral	xxxxx	xxxxx	czerwony	red	hit	n/a
137.1669	n/a	RESPONSE	n/a	n/a	n/a	n/a	n/a	n/a	n/a	red
137.1892	1.0167	ITI	n/a	n/a	n/a	n/a	n/a	n/a	n/a	n/a
138.2058	0.5167	FIXCROSS	n/a	n/a	n/a	n/a	n/a	n/a	n/a	n/a
138.7225	0.7167	INK	42	Incongruent	żółty	yellow	zielony	green	hit	n/a
139.4063	n/a	RESPONSE	n/a	n/a	n/a	n/a	n/a	n/a	n/a	green
139.4392	1.0167	ITI	n/a	n/a	n/a	n/a	n/a	n/a	n/a	n/a
140.4559	0.5167	FIXCROSS	n/a	n/a	n/a	n/a	n/a	n/a	n/a	n/a
140.9725	0.65	INK	43	Neutral	xxxxxxxx	xxxxxxxx	żółty	yellow	hit	n/a
141.5978	n/a	RESPONSE	n/a	n/a	n/a	n/a	n/a	n/a	n/a	yellow
141.6226	1.0167	ITI	n/a	n/a	n/a	n/a	n/a	n/a	n/a	n/a
142.6392	0.5167	FIXCROSS	n/a	n/a	n/a	n/a	n/a	n/a	n/a	n/a
143.1559	0.6667	INK	44	Neutral	xxxxx	xxxxx	niebieski	blue	hit	n/a
143.7893	n/a	RESPONSE	n/a	n/a	n/a	n/a	n/a	n/a	n/a	blue
143.8226	1.0167	ITI	n/a	n/a	n/a	n/a	n/a	n/a	n/a	n/a
144.8393	0.5167	FIXCROSS	n/a	n/a	n/a	n/a	n/a	n/a	n/a	n/a
145.3559	0.65	INK	45	Neutral	xxxxxxxx	xxxxxxxx	niebieski	blue	hit	n/a
145.9807	n/a	RESPONSE	n/a	n/a	n/a	n/a	n/a	n/a	n/a	blue
146.0059	1.0167	ITI	n/a	n/a	n/a	n/a	n/a	n/a	n/a	n/a
147.0226	0.5167	FIXCROSS	n/a	n/a	n/a	n/a	n/a	n/a	n/a	n/a
147.5393	0.6333	INK	46	Neutral	xxxxxxxx	xxxxxxxx	żółty	yellow	hit	n/a
148.1402	n/a	RESPONSE	n/a	n/a	n/a	n/a	n/a	n/a	n/a	yellow
148.1726	1.0167	ITI	n/a	n/a	n/a	n/a	n/a	n/a	n/a	n/a
149.1893	0.5167	FIXCROSS	n/a	n/a	n/a	n/a	n/a	n/a	n/a	n/a
149.706	0.6333	INK	47	Incongruent	zielony	green	żółty	yellow	hit	n/a
150.3157	n/a	RESPONSE	n/a	n/a	n/a	n/a	n/a	n/a	n/a	yellow
150.3393	1.0167	ITI	n/a	n/a	n/a	n/a	n/a	n/a	n/a	n/a
151.356	0.5167	FIXCROSS	n/a	n/a	n/a	n/a	n/a	n/a	n/a	n/a
151.8727	0.6167	INK	48	Neutral	xxxxxxxx	xxxxxxxx	niebieski	blue	hit	n/a
152.4592	n/a	RESPONSE	n/a	n/a	n/a	n/a	n/a	n/a	n/a	blue
152.4893	1.0167	ITI	n/a	n/a	n/a	n/a	n/a	n/a	n/a	n/a
153.506	0.5167	FIXCROSS	n/a	n/a	n/a	n/a	n/a	n/a	n/a	n/a
154.0227	0.9833	INK	49	Incongruent	czerwony	red	zielony	green	hit	n/a
154.9866	n/a	RESPONSE	n/a	n/a	n/a	n/a	n/a	n/a	n/a	green
155.006	1.0167	ITI	n/a	n/a	n/a	n/a	n/a	n/a	n/a	n/a
156.0227	0.5167	FIXCROSS	n/a	n/a	n/a	n/a	n/a	n/a	n/a	n/a
156.5394	0.7	INK	50	Incongruent	czerwony	red	niebieski	blue	hit	n/a
157.21	n/a	RESPONSE	n/a	n/a	n/a	n/a	n/a	n/a	n/a	blue
157.2394	1.0167	ITI	n/a	n/a	n/a	n/a	n/a	n/a	n/a	n/a
158.2561	0.5167	FIXCROSS	n/a	n/a	n/a	n/a	n/a	n/a	n/a	n/a
158.7728	0.5	INK	51	Incongruent	żółty	yellow	czerwony	red	hit	n/a
159.2415	n/a	RESPONSE	n/a	n/a	n/a	n/a	n/a	n/a	n/a	red
159.2728	1.0167	ITI	n/a	n/a	n/a	n/a	n/a	n/a	n/a	n/a
160.2894	0.5167	FIXCROSS	n/a	n/a	n/a	n/a	n/a	n/a	n/a	n/a
160.8061	0.5	INK	52	Neutral	xxxxxxx	xxxxxxx	czerwony	red	hit	n/a
161.2731	n/a	RESPONSE	n/a	n/a	n/a	n/a	n/a	n/a	n/a	red
161.3061	1.0167	ITI	n/a	n/a	n/a	n/a	n/a	n/a	n/a	n/a
162.3228	0.5167	FIXCROSS	n/a	n/a	n/a	n/a	n/a	n/a	n/a	n/a
162.8395	0.7833	INK	53	Incongruent	niebieski	blue	żółty	yellow	hit	n/a
163.5925	n/a	RESPONSE	n/a	n/a	n/a	n/a	n/a	n/a	n/a	yellow
163.6228	1.0167	ITI	n/a	n/a	n/a	n/a	n/a	n/a	n/a	n/a
164.6395	0.5167	FIXCROSS	n/a	n/a	n/a	n/a	n/a	n/a	n/a	n/a
165.1562	0.5333	INK	54	Neutral	xxxxxxxxx	xxxxxxxxx	żółty	yellow	hit	n/a
165.656	n/a	RESPONSE	n/a	n/a	n/a	n/a	n/a	n/a	n/a	yellow
165.6895	1.0167	ITI	n/a	n/a	n/a	n/a	n/a	n/a	n/a	n/a
166.7062	0.5167	FIXCROSS	n/a	n/a	n/a	n/a	n/a	n/a	n/a	n/a
167.2229	0.6833	INK	55	Neutral	xxxxxxxxx	xxxxxxxxx	zielony	green	hit	n/a
167.8794	n/a	RESPONSE	n/a	n/a	n/a	n/a	n/a	n/a	n/a	green
167.9062	1.0167	ITI	n/a	n/a	n/a	n/a	n/a	n/a	n/a	n/a
168.9229	0.5167	FIXCROSS	n/a	n/a	n/a	n/a	n/a	n/a	n/a	n/a
169.4395	1.15	INK	56	Incongruent	niebieski	blue	zielony	green	hit	n/a
170.5668	n/a	RESPONSE	n/a	n/a	n/a	n/a	n/a	n/a	n/a	green
170.5896	1.0167	ITI	n/a	n/a	n/a	n/a	n/a	n/a	n/a	n/a
171.6062	0.5167	FIXCROSS	n/a	n/a	n/a	n/a	n/a	n/a	n/a	n/a
172.1229	0.7	INK	57	Neutral	xxxxxxxxx	xxxxxxxxx	żółty	yellow	hit	n/a
172.7903	n/a	RESPONSE	n/a	n/a	n/a	n/a	n/a	n/a	n/a	yellow
172.8229	1.0167	ITI	n/a	n/a	n/a	n/a	n/a	n/a	n/a	n/a
173.8396	0.5167	FIXCROSS	n/a	n/a	n/a	n/a	n/a	n/a	n/a	n/a
174.3563	0.5833	INK	58	Neutral	xxxxxxxx	xxxxxxxx	zielony	green	hit	n/a
174.9177	n/a	RESPONSE	n/a	n/a	n/a	n/a	n/a	n/a	n/a	green
174.9396	1.0167	ITI	n/a	n/a	n/a	n/a	n/a	n/a	n/a	n/a
175.9563	0.5167	FIXCROSS	n/a	n/a	n/a	n/a	n/a	n/a	n/a	n/a
176.473	0.5167	INK	59	Neutral	xxxxxxx	xxxxxxx	żółty	yellow	hit	n/a
176.9653	n/a	RESPONSE	n/a	n/a	n/a	n/a	n/a	n/a	n/a	yellow
176.9896	1.0167	ITI	n/a	n/a	n/a	n/a	n/a	n/a	n/a	n/a
178.0063	0.5167	FIXCROSS	n/a	n/a	n/a	n/a	n/a	n/a	n/a	n/a
178.523	0.5667	INK	60	Incongruent	niebieski	blue	zielony	green	hit	n/a
179.0607	n/a	RESPONSE	n/a	n/a	n/a	n/a	n/a	n/a	n/a	green
179.0896	1.0167	ITI	n/a	n/a	n/a	n/a	n/a	n/a	n/a	n/a
180.1063	0.5167	FIXCROSS	n/a	n/a	n/a	n/a	n/a	n/a	n/a	n/a
180.623	0.9167	INK	61	Incongruent	zielony	green	niebieski	blue	hit	n/a
181.5081	n/a	RESPONSE	n/a	n/a	n/a	n/a	n/a	n/a	n/a	blue
181.5397	1.0167	ITI	n/a	n/a	n/a	n/a	n/a	n/a	n/a	n/a
182.5564	0.5167	FIXCROSS	n/a	n/a	n/a	n/a	n/a	n/a	n/a	n/a
183.073	0.45	INK	62	Neutral	xxxxxxx	xxxxxxx	niebieski	blue	hit	n/a
183.4917	n/a	RESPONSE	n/a	n/a	n/a	n/a	n/a	n/a	n/a	blue
183.523	1.0167	ITI	n/a	n/a	n/a	n/a	n/a	n/a	n/a	n/a
184.5397	0.5167	FIXCROSS	n/a	n/a	n/a	n/a	n/a	n/a	n/a	n/a
185.0564	0.8333	INK	63	Incongruent	zielony	green	żółty	yellow	hit	n/a
185.8591	n/a	RESPONSE	n/a	n/a	n/a	n/a	n/a	n/a	n/a	yellow
185.8897	1.0167	ITI	n/a	n/a	n/a	n/a	n/a	n/a	n/a	n/a
186.9064	0.5167	FIXCROSS	n/a	n/a	n/a	n/a	n/a	n/a	n/a	n/a
187.4231	0.6167	INK	64	Neutral	xxxxxxxxx	xxxxxxxxx	zielony	green	hit	n/a
188.0186	n/a	RESPONSE	n/a	n/a	n/a	n/a	n/a	n/a	n/a	green
188.0398	1.0167	ITI	n/a	n/a	n/a	n/a	n/a	n/a	n/a	n/a
189.0564	0.5167	FIXCROSS	n/a	n/a	n/a	n/a	n/a	n/a	n/a	n/a
189.5731	0.4333	INK	65	Neutral	xxxxx	xxxxx	zielony	green	hit	n/a
189.9861	n/a	RESPONSE	n/a	n/a	n/a	n/a	n/a	n/a	n/a	green
190.0065	1.0167	ITI	n/a	n/a	n/a	n/a	n/a	n/a	n/a	n/a
191.0231	0.5167	FIXCROSS	n/a	n/a	n/a	n/a	n/a	n/a	n/a	n/a
191.5398	0.6333	INK	66	Neutral	xxxxxxx	xxxxxxx	niebieski	blue	hit	n/a
192.1456	n/a	RESPONSE	n/a	n/a	n/a	n/a	n/a	n/a	n/a	blue
192.1731	1.0167	ITI	n/a	n/a	n/a	n/a	n/a	n/a	n/a	n/a
193.1898	0.5167	FIXCROSS	n/a	n/a	n/a	n/a	n/a	n/a	n/a	n/a
193.7065	0.5667	INK	67	Incongruent	czerwony	red	niebieski	blue	hit	n/a
194.2411	n/a	RESPONSE	n/a	n/a	n/a	n/a	n/a	n/a	n/a	blue
194.2732	1.0167	ITI	n/a	n/a	n/a	n/a	n/a	n/a	n/a	n/a
195.2898	0.5167	FIXCROSS	n/a	n/a	n/a	n/a	n/a	n/a	n/a	n/a
195.8065	0.5333	INK	68	Incongruent	żółty	yellow	niebieski	blue	hit	n/a
196.3206	n/a	RESPONSE	n/a	n/a	n/a	n/a	n/a	n/a	n/a	blue
196.3399	1.0167	ITI	n/a	n/a	n/a	n/a	n/a	n/a	n/a	n/a
197.3565	0.5167	FIXCROSS	n/a	n/a	n/a	n/a	n/a	n/a	n/a	n/a
197.8732	1.05	INK	69	Incongruent	zielony	green	żółty	yellow	hit	n/a
198.896	n/a	RESPONSE	n/a	n/a	n/a	n/a	n/a	n/a	n/a	yellow
198.9232	1.0167	ITI	n/a	n/a	n/a	n/a	n/a	n/a	n/a	n/a
199.9399	0.5167	FIXCROSS	n/a	n/a	n/a	n/a	n/a	n/a	n/a	n/a
200.4566	0.7167	INK	70	Neutral	xxxxxxx	xxxxxxx	czerwony	red	hit	n/a
201.1514	n/a	RESPONSE	n/a	n/a	n/a	n/a	n/a	n/a	n/a	red
201.1732	1.0167	ITI	n/a	n/a	n/a	n/a	n/a	n/a	n/a	n/a
202.1899	0.5167	FIXCROSS	n/a	n/a	n/a	n/a	n/a	n/a	n/a	n/a
202.7066	0.5333	INK	71	Neutral	xxxxxxxxx	xxxxxxxxx	czerwony	red	hit	n/a
203.2149	n/a	RESPONSE	n/a	n/a	n/a	n/a	n/a	n/a	n/a	red
203.2399	1.0167	ITI	n/a	n/a	n/a	n/a	n/a	n/a	n/a	n/a
204.2566	0.5167	FIXCROSS	n/a	n/a	n/a	n/a	n/a	n/a	n/a	n/a
204.7733	0.5833	INK	72	Neutral	xxxxxxxx	xxxxxxxx	niebieski	blue	hit	n/a
205.3264	n/a	RESPONSE	n/a	n/a	n/a	n/a	n/a	n/a	n/a	blue
205.3566	1.0833	ITI	n/a	n/a	n/a	n/a	n/a	n/a	n/a	n/a
209.9653	n/a	RESPONSE	n/a	n/a	n/a	n/a	n/a	n/a	n/a	n/a
209.99	1.0	ITI	n/a	n/a	n/a	n/a	n/a	n/a	n/a	n/a
210.99	0.5	FIXCROSS	n/a	n/a	n/a	n/a	n/a	n/a	n/a	n/a
211.49	0.9	T_COLOR_NAME	1	Incongruent	niebieski	blue	zielony	green	hit	n/a
212.3647	n/a	RESPONSE	n/a	n/a	n/a	n/a	n/a	n/a	n/a	blue
212.39	0.5167	FEEDBACK	n/a	n/a	n/a	n/a	n/a	n/a	n/a	n/a
212.9067	1.0167	ITI	n/a	n/a	n/a	n/a	n/a	n/a	n/a	n/a
213.9234	0.5167	FIXCROSS	n/a	n/a	n/a	n/a	n/a	n/a	n/a	n/a
214.4401	0.8167	T_COLOR_NAME	2	Neutral	żółty	yellow	Neutral	Neutral	hit	n/a
215.228	n/a	RESPONSE	n/a	n/a	n/a	n/a	n/a	n/a	n/a	yellow
215.2567	0.5167	FEEDBACK	n/a	n/a	n/a	n/a	n/a	n/a	n/a	n/a
215.7734	1.0167	ITI	n/a	n/a	n/a	n/a	n/a	n/a	n/a	n/a
216.7901	0.5167	FIXCROSS	n/a	n/a	n/a	n/a	n/a	n/a	n/a	n/a
217.3068	0.8667	T_COLOR_NAME	3	Neutral	zielony	green	Neutral	Neutral	hit	n/a
218.1393	n/a	RESPONSE	n/a	n/a	n/a	n/a	n/a	n/a	n/a	green
218.1734	0.5167	FEEDBACK	n/a	n/a	n/a	n/a	n/a	n/a	n/a	n/a
218.6901	1.0167	ITI	n/a	n/a	n/a	n/a	n/a	n/a	n/a	n/a
219.7068	0.5167	FIXCROSS	n/a	n/a	n/a	n/a	n/a	n/a	n/a	n/a
220.2235	1.65	T_COLOR_NAME	4	Incongruent	zielony	green	niebieski	blue	hit	n/a
221.8504	n/a	RESPONSE	n/a	n/a	n/a	n/a	n/a	n/a	n/a	green
221.8735	0.5167	FEEDBACK	n/a	n/a	n/a	n/a	n/a	n/a	n/a	n/a
222.3902	1.0167	ITI	n/a	n/a	n/a	n/a	n/a	n/a	n/a	n/a
223.4068	0.5167	FIXCROSS	n/a	n/a	n/a	n/a	n/a	n/a	n/a	n/a
223.9235	0.9833	T_COLOR_NAME	5	Incongruent	czerwony	red	żółty	yellow	hit	n/a
224.8737	n/a	RESPONSE	n/a	n/a	n/a	n/a	n/a	n/a	n/a	red
224.9069	0.5167	FEEDBACK	n/a	n/a	n/a	n/a	n/a	n/a	n/a	n/a
225.4235	1.0167	ITI	n/a	n/a	n/a	n/a	n/a	n/a	n/a	n/a
226.4402	0.5167	FIXCROSS	n/a	n/a	n/a	n/a	n/a	n/a	n/a	n/a
226.9569	0.5167	T_COLOR_NAME	6	Incongruent	czerwony	red	niebieski	blue	hit	n/a
227.449	n/a	RESPONSE	n/a	n/a	n/a	n/a	n/a	n/a	n/a	red
227.4735	0.5167	FEEDBACK	n/a	n/a	n/a	n/a	n/a	n/a	n/a	n/a
227.9902	1.0167	ITI	n/a	n/a	n/a	n/a	n/a	n/a	n/a	n/a
229.0069	0.5167	FIXCROSS	n/a	n/a	n/a	n/a	n/a	n/a	n/a	n/a
229.5236	1.4167	T_COLOR_NAME	7	Neutral	zielony	green	Neutral	Neutral	hit	n/a
230.9202	n/a	RESPONSE	n/a	n/a	n/a	n/a	n/a	n/a	n/a	green
230.9403	0.5167	FEEDBACK	n/a	n/a	n/a	n/a	n/a	n/a	n/a	n/a
231.4569	1.0167	ITI	n/a	n/a	n/a	n/a	n/a	n/a	n/a	n/a
232.4736	0.5167	FIXCROSS	n/a	n/a	n/a	n/a	n/a	n/a	n/a	n/a
232.9903	0.85	T_COLOR_NAME	8	Incongruent	żółty	yellow	zielony	green	hit	n/a
233.8155	n/a	RESPONSE	n/a	n/a	n/a	n/a	n/a	n/a	n/a	yellow
233.8403	0.5167	FEEDBACK	n/a	n/a	n/a	n/a	n/a	n/a	n/a	n/a
234.357	1.0167	ITI	n/a	n/a	n/a	n/a	n/a	n/a	n/a	n/a
235.3736	0.5167	FIXCROSS	n/a	n/a	n/a	n/a	n/a	n/a	n/a	n/a
235.8903	0.7	T_COLOR_NAME	9	Neutral	czerwony	red	Neutral	Neutral	hit	n/a
236.5669	n/a	RESPONSE	n/a	n/a	n/a	n/a	n/a	n/a	n/a	red
236.5903	0.5167	FEEDBACK	n/a	n/a	n/a	n/a	n/a	n/a	n/a	n/a
237.107	1.0167	ITI	n/a	n/a	n/a	n/a	n/a	n/a	n/a	n/a
238.1236	0.5167	FIXCROSS	n/a	n/a	n/a	n/a	n/a	n/a	n/a	n/a
238.6403	0.6667	T_COLOR_NAME	10	Incongruent	niebieski	blue	żółty	yellow	hit	n/a
239.2862	n/a	RESPONSE	n/a	n/a	n/a	n/a	n/a	n/a	n/a	blue
239.307	0.5167	FEEDBACK	n/a	n/a	n/a	n/a	n/a	n/a	n/a	n/a
239.8237	1.0167	ITI	n/a	n/a	n/a	n/a	n/a	n/a	n/a	n/a
240.8404	0.5167	FIXCROSS	n/a	n/a	n/a	n/a	n/a	n/a	n/a	n/a
241.357	0.8333	T_COLOR_NAME	11	Neutral	żółty	yellow	Neutral	Neutral	hit	n/a
242.1655	n/a	RESPONSE	n/a	n/a	n/a	n/a	n/a	n/a	n/a	yellow
242.1904	0.5167	FEEDBACK	n/a	n/a	n/a	n/a	n/a	n/a	n/a	n/a
242.7071	1.0167	ITI	n/a	n/a	n/a	n/a	n/a	n/a	n/a	n/a
243.7237	0.5167	FIXCROSS	n/a	n/a	n/a	n/a	n/a	n/a	n/a	n/a
244.2404	0.7	T_COLOR_NAME	12	Incongruent	żółty	yellow	niebieski	blue	hit	n/a
244.9168	n/a	RESPONSE	n/a	n/a	n/a	n/a	n/a	n/a	n/a	yellow
244.9404	0.5167	FEEDBACK	n/a	n/a	n/a	n/a	n/a	n/a	n/a	n/a
245.4571	1.0333	ITI	n/a	n/a	n/a	n/a	n/a	n/a	n/a	n/a
247.1883	n/a	RESPONSE	n/a	n/a	n/a	n/a	n/a	n/a	n/a	n/a
247.2404	1.0167	ITI	n/a	n/a	n/a	n/a	n/a	n/a	n/a	n/a
248.2571	0.5167	FIXCROSS	n/a	n/a	n/a	n/a	n/a	n/a	n/a	n/a
248.7738	0.8333	COLOR_NAME	1	Neutral	żółty	yellow	Neutral	Neutral	hit	n/a
249.5877	n/a	RESPONSE	n/a	n/a	n/a	n/a	n/a	n/a	n/a	yellow
249.6071	1.0167	ITI	n/a	n/a	n/a	n/a	n/a	n/a	n/a	n/a
250.6238	0.5167	FIXCROSS	n/a	n/a	n/a	n/a	n/a	n/a	n/a	n/a
251.1405	0.9667	COLOR_NAME	2	Incongruent	zielony	green	niebieski	blue	hit	n/a
252.0831	n/a	RESPONSE	n/a	n/a	n/a	n/a	n/a	n/a	n/a	green
252.1072	1.0167	ITI	n/a	n/a	n/a	n/a	n/a	n/a	n/a	n/a
253.1238	0.5167	FIXCROSS	n/a	n/a	n/a	n/a	n/a	n/a	n/a	n/a
253.6405	0.6	COLOR_NAME	3	Neutral	zielony	green	Neutral	Neutral	hit	n/a
254.2106	n/a	RESPONSE	n/a	n/a	n/a	n/a	n/a	n/a	n/a	green
254.2405	1.0167	ITI	n/a	n/a	n/a	n/a	n/a	n/a	n/a	n/a
255.2572	0.5167	FIXCROSS	n/a	n/a	n/a	n/a	n/a	n/a	n/a	n/a
255.7739	0.6333	COLOR_NAME	4	Neutral	niebieski	blue	Neutral	Neutral	hit	n/a
256.386	n/a	RESPONSE	n/a	n/a	n/a	n/a	n/a	n/a	n/a	blue
256.4072	1.0167	ITI	n/a	n/a	n/a	n/a	n/a	n/a	n/a	n/a
257.4239	0.5167	FIXCROSS	n/a	n/a	n/a	n/a	n/a	n/a	n/a	n/a
257.9406	0.55	COLOR_NAME	5	Neutral	czerwony	red	Neutral	Neutral	hit	n/a
258.4655	n/a	RESPONSE	n/a	n/a	n/a	n/a	n/a	n/a	n/a	red
258.4906	1.0167	ITI	n/a	n/a	n/a	n/a	n/a	n/a	n/a	n/a
259.5072	0.5167	FIXCROSS	n/a	n/a	n/a	n/a	n/a	n/a	n/a	n/a
260.0239	0.95	COLOR_NAME	6	Incongruent	żółty	yellow	zielony	green	hit	n/a
260.9449	n/a	RESPONSE	n/a	n/a	n/a	n/a	n/a	n/a	n/a	yellow
260.9739	1.0167	ITI	n/a	n/a	n/a	n/a	n/a	n/a	n/a	n/a
261.9906	0.5167	FIXCROSS	n/a	n/a	n/a	n/a	n/a	n/a	n/a	n/a
262.5073	0.7833	COLOR_NAME	7	Neutral	czerwony	red	Neutral	Neutral	hit	n/a
263.2644	n/a	RESPONSE	n/a	n/a	n/a	n/a	n/a	n/a	n/a	red
263.2906	1.0167	ITI	n/a	n/a	n/a	n/a	n/a	n/a	n/a	n/a
264.3073	0.5167	FIXCROSS	n/a	n/a	n/a	n/a	n/a	n/a	n/a	n/a
264.824	0.75	COLOR_NAME	8	Incongruent	niebieski	blue	zielony	green	hit	n/a
265.5518	n/a	RESPONSE	n/a	n/a	n/a	n/a	n/a	n/a	n/a	blue
265.574	1.0166	ITI	n/a	n/a	n/a	n/a	n/a	n/a	n/a	n/a
266.5906	0.5167	FIXCROSS	n/a	n/a	n/a	n/a	n/a	n/a	n/a	n/a
267.1073	0.8	COLOR_NAME	9	Incongruent	żółty	yellow	niebieski	blue	hit	n/a
267.8872	n/a	RESPONSE	n/a	n/a	n/a	n/a	n/a	n/a	n/a	yellow
267.9073	1.0167	ITI	n/a	n/a	n/a	n/a	n/a	n/a	n/a	n/a
268.924	0.5167	FIXCROSS	n/a	n/a	n/a	n/a	n/a	n/a	n/a	n/a
269.4407	0.65	COLOR_NAME	10	Incongruent	niebieski	blue	zielony	green	hit	n/a
270.0628	n/a	RESPONSE	n/a	n/a	n/a	n/a	n/a	n/a	n/a	blue
270.0907	1.0167	ITI	n/a	n/a	n/a	n/a	n/a	n/a	n/a	n/a
271.1074	0.5167	FIXCROSS	n/a	n/a	n/a	n/a	n/a	n/a	n/a	n/a
271.624	0.7	COLOR_NAME	11	Neutral	żółty	yellow	Neutral	Neutral	hit	n/a
272.3022	n/a	RESPONSE	n/a	n/a	n/a	n/a	n/a	n/a	n/a	yellow
272.3241	1.0167	ITI	n/a	n/a	n/a	n/a	n/a	n/a	n/a	n/a
273.3407	0.5167	FIXCROSS	n/a	n/a	n/a	n/a	n/a	n/a	n/a	n/a
273.8574	0.6167	COLOR_NAME	12	Incongruent	żółty	yellow	niebieski	blue	hit	n/a
274.4457	n/a	RESPONSE	n/a	n/a	n/a	n/a	n/a	n/a	n/a	yellow
274.4741	1.0167	ITI	n/a	n/a	n/a	n/a	n/a	n/a	n/a	n/a
275.4908	0.5167	FIXCROSS	n/a	n/a	n/a	n/a	n/a	n/a	n/a	n/a
276.0074	0.6	COLOR_NAME	13	Neutral	żółty	yellow	Neutral	Neutral	hit	n/a
276.5892	n/a	RESPONSE	n/a	n/a	n/a	n/a	n/a	n/a	n/a	yellow
276.6074	1.0167	ITI	n/a	n/a	n/a	n/a	n/a	n/a	n/a	n/a
277.6241	0.5167	FIXCROSS	n/a	n/a	n/a	n/a	n/a	n/a	n/a	n/a
278.1408	0.7	COLOR_NAME	14	Neutral	żółty	yellow	Neutral	Neutral	hit	n/a
278.8126	n/a	RESPONSE	n/a	n/a	n/a	n/a	n/a	n/a	n/a	yellow
278.8408	1.0167	ITI	n/a	n/a	n/a	n/a	n/a	n/a	n/a	n/a
279.8575	0.5167	FIXCROSS	n/a	n/a	n/a	n/a	n/a	n/a	n/a	n/a
280.3741	0.95	COLOR_NAME	15	Incongruent	zielony	green	niebieski	blue	hit	n/a
281.2921	n/a	RESPONSE	n/a	n/a	n/a	n/a	n/a	n/a	n/a	green
281.3241	1.0167	ITI	n/a	n/a	n/a	n/a	n/a	n/a	n/a	n/a
282.3408	0.5167	FIXCROSS	n/a	n/a	n/a	n/a	n/a	n/a	n/a	n/a
282.8575	1.0667	COLOR_NAME	16	Incongruent	czerwony	red	zielony	green	hit	n/a
283.8994	n/a	RESPONSE	n/a	n/a	n/a	n/a	n/a	n/a	n/a	red
283.9242	1.0167	ITI	n/a	n/a	n/a	n/a	n/a	n/a	n/a	n/a
284.9409	0.5167	FIXCROSS	n/a	n/a	n/a	n/a	n/a	n/a	n/a	n/a
285.4575	0.8833	COLOR_NAME	17	Incongruent	zielony	green	żółty	yellow	hit	n/a
286.3148	n/a	RESPONSE	n/a	n/a	n/a	n/a	n/a	n/a	n/a	green
286.3409	1.0167	ITI	n/a	n/a	n/a	n/a	n/a	n/a	n/a	n/a
287.3576	0.5167	FIXCROSS	n/a	n/a	n/a	n/a	n/a	n/a	n/a	n/a
287.8742	0.9833	COLOR_NAME	18	Incongruent	żółty	yellow	czerwony	red	hit	n/a
288.8262	n/a	RESPONSE	n/a	n/a	n/a	n/a	n/a	n/a	n/a	yellow
288.8576	1.0167	ITI	n/a	n/a	n/a	n/a	n/a	n/a	n/a	n/a
289.8743	0.5167	FIXCROSS	n/a	n/a	n/a	n/a	n/a	n/a	n/a	n/a
290.3909	0.9834	COLOR_NAME	19	Incongruent	niebieski	blue	zielony	green	hit	n/a
291.3536	n/a	RESPONSE	n/a	n/a	n/a	n/a	n/a	n/a	n/a	blue
291.3743	1.0167	ITI	n/a	n/a	n/a	n/a	n/a	n/a	n/a	n/a
292.391	0.5167	FIXCROSS	n/a	n/a	n/a	n/a	n/a	n/a	n/a	n/a
292.9076	1.4	COLOR_NAME	20	Incongruent	czerwony	red	zielony	green	hit	n/a
294.2809	n/a	RESPONSE	n/a	n/a	n/a	n/a	n/a	n/a	n/a	red
294.3076	1.0167	ITI	n/a	n/a	n/a	n/a	n/a	n/a	n/a	n/a
295.3243	0.5167	FIXCROSS	n/a	n/a	n/a	n/a	n/a	n/a	n/a	n/a
295.841	1.4834	COLOR_NAME	21	Neutral	zielony	green	Neutral	Neutral	hit	n/a
297.3041	n/a	RESPONSE	n/a	n/a	n/a	n/a	n/a	n/a	n/a	green
297.3243	1.0167	ITI	n/a	n/a	n/a	n/a	n/a	n/a	n/a	n/a
298.341	0.5167	FIXCROSS	n/a	n/a	n/a	n/a	n/a	n/a	n/a	n/a
298.8577	1.15	COLOR_NAME	22	Incongruent	zielony	green	czerwony	red	hit	n/a
299.9755	n/a	RESPONSE	n/a	n/a	n/a	n/a	n/a	n/a	n/a	green
300.0077	1.0167	ITI	n/a	n/a	n/a	n/a	n/a	n/a	n/a	n/a
301.0244	0.5167	FIXCROSS	n/a	n/a	n/a	n/a	n/a	n/a	n/a	n/a
301.5411	0.5167	COLOR_NAME	23	Neutral	zielony	green	Neutral	Neutral	hit	n/a
302.039	n/a	RESPONSE	n/a	n/a	n/a	n/a	n/a	n/a	n/a	green
302.0577	1.0167	ITI	n/a	n/a	n/a	n/a	n/a	n/a	n/a	n/a
303.0744	0.5167	FIXCROSS	n/a	n/a	n/a	n/a	n/a	n/a	n/a	n/a
303.5911	0.75	COLOR_NAME	24	Incongruent	czerwony	red	żółty	yellow	hit	n/a
304.3104	n/a	RESPONSE	n/a	n/a	n/a	n/a	n/a	n/a	n/a	red
304.3411	1.0167	ITI	n/a	n/a	n/a	n/a	n/a	n/a	n/a	n/a
305.3578	0.5167	FIXCROSS	n/a	n/a	n/a	n/a	n/a	n/a	n/a	n/a
305.8744	0.7667	COLOR_NAME	25	Neutral	żółty	yellow	Neutral	Neutral	hit	n/a
306.6139	n/a	RESPONSE	n/a	n/a	n/a	n/a	n/a	n/a	n/a	yellow
306.6411	1.0167	ITI	n/a	n/a	n/a	n/a	n/a	n/a	n/a	n/a
307.6578	0.5167	FIXCROSS	n/a	n/a	n/a	n/a	n/a	n/a	n/a	n/a
308.1745	0.6	COLOR_NAME	26	Incongruent	żółty	yellow	zielony	green	hit	n/a
308.7414	n/a	RESPONSE	n/a	n/a	n/a	n/a	n/a	n/a	n/a	yellow
308.7745	1.0167	ITI	n/a	n/a	n/a	n/a	n/a	n/a	n/a	n/a
309.7912	0.5167	FIXCROSS	n/a	n/a	n/a	n/a	n/a	n/a	n/a	n/a
310.3078	0.9167	COLOR_NAME	27	Incongruent	niebieski	blue	czerwony	red	hit	n/a
311.2048	n/a	RESPONSE	n/a	n/a	n/a	n/a	n/a	n/a	n/a	blue
311.2245	1.0167	ITI	n/a	n/a	n/a	n/a	n/a	n/a	n/a	n/a
312.2412	0.5167	FIXCROSS	n/a	n/a	n/a	n/a	n/a	n/a	n/a	n/a
312.7579	0.55	COLOR_NAME	28	Neutral	niebieski	blue	Neutral	Neutral	hit	n/a
313.2843	n/a	RESPONSE	n/a	n/a	n/a	n/a	n/a	n/a	n/a	blue
313.3079	1.0167	ITI	n/a	n/a	n/a	n/a	n/a	n/a	n/a	n/a
314.3245	0.5167	FIXCROSS	n/a	n/a	n/a	n/a	n/a	n/a	n/a	n/a
314.8412	0.6333	COLOR_NAME	29	Neutral	czerwony	red	Neutral	Neutral	hit	n/a
315.4438	n/a	RESPONSE	n/a	n/a	n/a	n/a	n/a	n/a	n/a	red
315.4745	1.0167	ITI	n/a	n/a	n/a	n/a	n/a	n/a	n/a	n/a
316.4912	0.5167	FIXCROSS	n/a	n/a	n/a	n/a	n/a	n/a	n/a	n/a
317.0079	0.45	COLOR_NAME	30	Neutral	czerwony	red	Neutral	Neutral	hit	n/a
317.4273	n/a	RESPONSE	n/a	n/a	n/a	n/a	n/a	n/a	n/a	red
317.4579	1.0167	ITI	n/a	n/a	n/a	n/a	n/a	n/a	n/a	n/a
318.4746	0.5167	FIXCROSS	n/a	n/a	n/a	n/a	n/a	n/a	n/a	n/a
318.9913	0.9667	COLOR_NAME	31	Neutral	żółty	yellow	Neutral	Neutral	hit	n/a
319.9387	n/a	RESPONSE	n/a	n/a	n/a	n/a	n/a	n/a	n/a	yellow
319.9579	1.0167	ITI	n/a	n/a	n/a	n/a	n/a	n/a	n/a	n/a
320.9746	0.5167	FIXCROSS	n/a	n/a	n/a	n/a	n/a	n/a	n/a	n/a
321.4913	0.6833	COLOR_NAME	32	Incongruent	żółty	yellow	zielony	green	hit	n/a
322.1461	n/a	RESPONSE	n/a	n/a	n/a	n/a	n/a	n/a	n/a	yellow
322.1746	1.0167	ITI	n/a	n/a	n/a	n/a	n/a	n/a	n/a	n/a
323.1913	0.5167	FIXCROSS	n/a	n/a	n/a	n/a	n/a	n/a	n/a	n/a
323.708	0.75	COLOR_NAME	33	Neutral	niebieski	blue	Neutral	Neutral	hit	n/a
324.4336	n/a	RESPONSE	n/a	n/a	n/a	n/a	n/a	n/a	n/a	blue
324.458	1.0166	ITI	n/a	n/a	n/a	n/a	n/a	n/a	n/a	n/a
325.4746	0.5167	FIXCROSS	n/a	n/a	n/a	n/a	n/a	n/a	n/a	n/a
325.9913	0.6833	COLOR_NAME	34	Incongruent	żółty	yellow	czerwony	red	hit	n/a
326.657	n/a	RESPONSE	n/a	n/a	n/a	n/a	n/a	n/a	n/a	yellow
326.6747	1.0167	ITI	n/a	n/a	n/a	n/a	n/a	n/a	n/a	n/a
327.6914	0.5167	FIXCROSS	n/a	n/a	n/a	n/a	n/a	n/a	n/a	n/a
328.208	0.8	COLOR_NAME	35	Neutral	zielony	green	Neutral	Neutral	hit	n/a
328.9765	n/a	RESPONSE	n/a	n/a	n/a	n/a	n/a	n/a	n/a	green
329.008	1.0167	ITI	n/a	n/a	n/a	n/a	n/a	n/a	n/a	n/a
330.0247	0.5167	FIXCROSS	n/a	n/a	n/a	n/a	n/a	n/a	n/a	n/a
330.5414	0.55	COLOR_NAME	36	Incongruent	zielony	green	żółty	yellow	hit	n/a
331.0719	n/a	RESPONSE	n/a	n/a	n/a	n/a	n/a	n/a	n/a	green
331.0914	1.0167	ITI	n/a	n/a	n/a	n/a	n/a	n/a	n/a	n/a
332.1081	0.5167	FIXCROSS	n/a	n/a	n/a	n/a	n/a	n/a	n/a	n/a
332.6247	0.7167	COLOR_NAME	37	Neutral	niebieski	blue	Neutral	Neutral	hit	n/a
333.3114	n/a	RESPONSE	n/a	n/a	n/a	n/a	n/a	n/a	n/a	blue
333.3414	1.0167	ITI	n/a	n/a	n/a	n/a	n/a	n/a	n/a	n/a
334.3581	0.5167	FIXCROSS	n/a	n/a	n/a	n/a	n/a	n/a	n/a	n/a
334.8748	0.5333	COLOR_NAME	38	Neutral	niebieski	blue	Neutral	Neutral	hit	n/a
335.3749	n/a	RESPONSE	n/a	n/a	n/a	n/a	n/a	n/a	n/a	blue
335.4081	1.0167	ITI	n/a	n/a	n/a	n/a	n/a	n/a	n/a	n/a
336.4248	0.5167	FIXCROSS	n/a	n/a	n/a	n/a	n/a	n/a	n/a	n/a
336.9415	0.75	COLOR_NAME	39	Incongruent	zielony	green	żółty	yellow	hit	n/a
337.6624	n/a	RESPONSE	n/a	n/a	n/a	n/a	n/a	n/a	n/a	green
337.6915	1.0167	ITI	n/a	n/a	n/a	n/a	n/a	n/a	n/a	n/a
338.7081	0.5167	FIXCROSS	n/a	n/a	n/a	n/a	n/a	n/a	n/a	n/a
339.2248	1.0667	COLOR_NAME	40	Incongruent	czerwony	red	zielony	green	hit	n/a
340.2697	n/a	RESPONSE	n/a	n/a	n/a	n/a	n/a	n/a	n/a	red
340.2915	1.0167	ITI	n/a	n/a	n/a	n/a	n/a	n/a	n/a	n/a
341.3082	0.5167	FIXCROSS	n/a	n/a	n/a	n/a	n/a	n/a	n/a	n/a
341.8248	1.2833	COLOR_NAME	41	Incongruent	niebieski	blue	czerwony	red	hit	n/a
343.0851	n/a	RESPONSE	n/a	n/a	n/a	n/a	n/a	n/a	n/a	blue
343.1082	1.0167	ITI	n/a	n/a	n/a	n/a	n/a	n/a	n/a	n/a
344.1249	0.5167	FIXCROSS	n/a	n/a	n/a	n/a	n/a	n/a	n/a	n/a
344.6416	0.8167	COLOR_NAME	42	Incongruent	czerwony	red	niebieski	blue	hit	n/a
345.4365	n/a	RESPONSE	n/a	n/a	n/a	n/a	n/a	n/a	n/a	red
345.4582	1.0167	ITI	n/a	n/a	n/a	n/a	n/a	n/a	n/a	n/a
346.4749	0.5167	FIXCROSS	n/a	n/a	n/a	n/a	n/a	n/a	n/a	n/a
346.9916	0.75	COLOR_NAME	43	Neutral	niebieski	blue	Neutral	Neutral	hit	n/a
347.7079	n/a	RESPONSE	n/a	n/a	n/a	n/a	n/a	n/a	n/a	blue
347.7416	1.0167	ITI	n/a	n/a	n/a	n/a	n/a	n/a	n/a	n/a
348.7583	0.5167	FIXCROSS	n/a	n/a	n/a	n/a	n/a	n/a	n/a	n/a
349.2749	0.7667	COLOR_NAME	44	Incongruent	czerwony	red	żółty	yellow	hit	n/a
350.0114	n/a	RESPONSE	n/a	n/a	n/a	n/a	n/a	n/a	n/a	red
350.0416	1.0167	ITI	n/a	n/a	n/a	n/a	n/a	n/a	n/a	n/a
351.0583	0.5167	FIXCROSS	n/a	n/a	n/a	n/a	n/a	n/a	n/a	n/a
351.575	1.2667	COLOR_NAME	45	Neutral	zielony	green	Neutral	Neutral	hit	n/a
352.8107	n/a	RESPONSE	n/a	n/a	n/a	n/a	n/a	n/a	n/a	green
352.8416	1.0167	ITI	n/a	n/a	n/a	n/a	n/a	n/a	n/a	n/a
353.8583	0.5167	FIXCROSS	n/a	n/a	n/a	n/a	n/a	n/a	n/a	n/a
354.375	0.7667	COLOR_NAME	46	Incongruent	czerwony	red	żółty	yellow	hit	n/a
355.1142	n/a	RESPONSE	n/a	n/a	n/a	n/a	n/a	n/a	n/a	red
355.1417	1.0167	ITI	n/a	n/a	n/a	n/a	n/a	n/a	n/a	n/a
356.1584	0.5167	FIXCROSS	n/a	n/a	n/a	n/a	n/a	n/a	n/a	n/a
356.675	1.2334	COLOR_NAME	47	Neutral	zielony	green	Neutral	Neutral	hit	n/a
357.8815	n/a	RESPONSE	n/a	n/a	n/a	n/a	n/a	n/a	n/a	green
357.9084	1.0167	ITI	n/a	n/a	n/a	n/a	n/a	n/a	n/a	n/a
358.925	0.5167	FIXCROSS	n/a	n/a	n/a	n/a	n/a	n/a	n/a	n/a
359.4417	0.85	COLOR_NAME	48	Neutral	niebieski	blue	Neutral	Neutral	hit	n/a
360.2649	n/a	RESPONSE	n/a	n/a	n/a	n/a	n/a	n/a	n/a	blue
360.2917	1.0167	ITI	n/a	n/a	n/a	n/a	n/a	n/a	n/a	n/a
361.3084	0.5167	FIXCROSS	n/a	n/a	n/a	n/a	n/a	n/a	n/a	n/a
361.8251	0.8	COLOR_NAME	49	Neutral	zielony	green	Neutral	Neutral	hit	n/a
362.6004	n/a	RESPONSE	n/a	n/a	n/a	n/a	n/a	n/a	n/a	green
362.6251	1.0167	ITI	n/a	n/a	n/a	n/a	n/a	n/a	n/a	n/a
363.6418	0.5167	FIXCROSS	n/a	n/a	n/a	n/a	n/a	n/a	n/a	n/a
364.1584	0.9167	COLOR_NAME	50	Incongruent	czerwony	red	niebieski	blue	hit	n/a
365.0477	n/a	RESPONSE	n/a	n/a	n/a	n/a	n/a	n/a	n/a	red
365.0751	1.0167	ITI	n/a	n/a	n/a	n/a	n/a	n/a	n/a	n/a
366.0918	0.5167	FIXCROSS	n/a	n/a	n/a	n/a	n/a	n/a	n/a	n/a
366.6085	0.8	COLOR_NAME	51	Incongruent	zielony	green	czerwony	red	hit	n/a
367.3832	n/a	RESPONSE	n/a	n/a	n/a	n/a	n/a	n/a	n/a	green
367.4085	1.0167	ITI	n/a	n/a	n/a	n/a	n/a	n/a	n/a	n/a
368.4252	0.5167	FIXCROSS	n/a	n/a	n/a	n/a	n/a	n/a	n/a	n/a
368.9418	0.6667	COLOR_NAME	52	Neutral	zielony	green	Neutral	Neutral	hit	n/a
369.5907	n/a	RESPONSE	n/a	n/a	n/a	n/a	n/a	n/a	n/a	green
369.6085	1.0167	ITI	n/a	n/a	n/a	n/a	n/a	n/a	n/a	n/a
370.6252	0.5167	FIXCROSS	n/a	n/a	n/a	n/a	n/a	n/a	n/a	n/a
371.1418	1.0667	COLOR_NAME	53	Neutral	czerwony	red	Neutral	Neutral	hit	n/a
372.182	n/a	RESPONSE	n/a	n/a	n/a	n/a	n/a	n/a	n/a	red
372.2085	1.0167	ITI	n/a	n/a	n/a	n/a	n/a	n/a	n/a	n/a
373.2252	0.5167	FIXCROSS	n/a	n/a	n/a	n/a	n/a	n/a	n/a	n/a
373.7419	0.75	COLOR_NAME	54	Incongruent	zielony	green	czerwony	red	hit	n/a
374.4695	n/a	RESPONSE	n/a	n/a	n/a	n/a	n/a	n/a	n/a	green
374.4919	1.0167	ITI	n/a	n/a	n/a	n/a	n/a	n/a	n/a	n/a
375.5086	0.5167	FIXCROSS	n/a	n/a	n/a	n/a	n/a	n/a	n/a	n/a
376.0252	0.7833	COLOR_NAME	55	Incongruent	niebieski	blue	żółty	yellow	hit	n/a
376.7889	n/a	RESPONSE	n/a	n/a	n/a	n/a	n/a	n/a	n/a	blue
376.8086	1.0167	ITI	n/a	n/a	n/a	n/a	n/a	n/a	n/a	n/a
377.8253	0.5167	FIXCROSS	n/a	n/a	n/a	n/a	n/a	n/a	n/a	n/a
378.3419	0.5	COLOR_NAME	56	Neutral	niebieski	blue	Neutral	Neutral	hit	n/a
378.8204	n/a	RESPONSE	n/a	n/a	n/a	n/a	n/a	n/a	n/a	blue
378.8419	1.0167	ITI	n/a	n/a	n/a	n/a	n/a	n/a	n/a	n/a
379.8586	0.5167	FIXCROSS	n/a	n/a	n/a	n/a	n/a	n/a	n/a	n/a
380.3753	0.4167	COLOR_NAME	57	Incongruent	niebieski	blue	żółty	yellow	hit	n/a
380.772	n/a	RESPONSE	n/a	n/a	n/a	n/a	n/a	n/a	n/a	blue
380.792	1.0167	ITI	n/a	n/a	n/a	n/a	n/a	n/a	n/a	n/a
381.8086	0.5167	FIXCROSS	n/a	n/a	n/a	n/a	n/a	n/a	n/a	n/a
382.3253	0.6833	COLOR_NAME	58	Neutral	czerwony	red	Neutral	Neutral	hit	n/a
382.9794	n/a	RESPONSE	n/a	n/a	n/a	n/a	n/a	n/a	n/a	red
383.0087	1.0167	ITI	n/a	n/a	n/a	n/a	n/a	n/a	n/a	n/a
384.0253	0.5167	FIXCROSS	n/a	n/a	n/a	n/a	n/a	n/a	n/a	n/a
384.542	0.85	COLOR_NAME	59	Incongruent	niebieski	blue	czerwony	red	hit	n/a
385.3628	n/a	RESPONSE	n/a	n/a	n/a	n/a	n/a	n/a	n/a	blue
385.392	1.0167	ITI	n/a	n/a	n/a	n/a	n/a	n/a	n/a	n/a
386.4087	0.5167	FIXCROSS	n/a	n/a	n/a	n/a	n/a	n/a	n/a	n/a
386.9254	0.8	COLOR_NAME	60	Incongruent	żółty	yellow	niebieski	blue	hit	n/a
387.6983	n/a	RESPONSE	n/a	n/a	n/a	n/a	n/a	n/a	n/a	yellow
387.7254	1.0167	ITI	n/a	n/a	n/a	n/a	n/a	n/a	n/a	n/a
388.7421	0.5167	FIXCROSS	n/a	n/a	n/a	n/a	n/a	n/a	n/a	n/a
389.2587	0.95	COLOR_NAME	61	Neutral	czerwony	red	Neutral	Neutral	hit	n/a
390.1777	n/a	RESPONSE	n/a	n/a	n/a	n/a	n/a	n/a	n/a	red
390.2087	1.0167	ITI	n/a	n/a	n/a	n/a	n/a	n/a	n/a	n/a
391.2254	0.5167	FIXCROSS	n/a	n/a	n/a	n/a	n/a	n/a	n/a	n/a
391.7421	0.7333	COLOR_NAME	62	Incongruent	żółty	yellow	czerwony	red	hit	n/a
392.4491	n/a	RESPONSE	n/a	n/a	n/a	n/a	n/a	n/a	n/a	yellow
392.4754	1.0167	ITI	n/a	n/a	n/a	n/a	n/a	n/a	n/a	n/a
393.4921	0.5167	FIXCROSS	n/a	n/a	n/a	n/a	n/a	n/a	n/a	n/a
394.0088	1.45	COLOR_NAME	63	Incongruent	czerwony	red	niebieski	blue	hit	n/a
395.4404	n/a	RESPONSE	n/a	n/a	n/a	n/a	n/a	n/a	n/a	red
395.4588	1.0167	ITI	n/a	n/a	n/a	n/a	n/a	n/a	n/a	n/a
396.4755	0.5167	FIXCROSS	n/a	n/a	n/a	n/a	n/a	n/a	n/a	n/a
396.9921	0.9667	COLOR_NAME	64	Incongruent	zielony	green	niebieski	blue	hit	n/a
397.9358	n/a	RESPONSE	n/a	n/a	n/a	n/a	n/a	n/a	n/a	green
397.9588	1.0167	ITI	n/a	n/a	n/a	n/a	n/a	n/a	n/a	n/a
398.9755	0.5167	FIXCROSS	n/a	n/a	n/a	n/a	n/a	n/a	n/a	n/a
399.4922	0.7667	COLOR_NAME	65	Neutral	żółty	yellow	Neutral	Neutral	hit	n/a
400.2393	n/a	RESPONSE	n/a	n/a	n/a	n/a	n/a	n/a	n/a	yellow
400.2588	1.0167	ITI	n/a	n/a	n/a	n/a	n/a	n/a	n/a	n/a
401.2755	0.5167	FIXCROSS	n/a	n/a	n/a	n/a	n/a	n/a	n/a	n/a
401.7922	0.5167	COLOR_NAME	66	Neutral	żółty	yellow	Neutral	Neutral	hit	n/a
402.2868	n/a	RESPONSE	n/a	n/a	n/a	n/a	n/a	n/a	n/a	yellow
402.3089	1.0167	ITI	n/a	n/a	n/a	n/a	n/a	n/a	n/a	n/a
403.3255	0.5167	FIXCROSS	n/a	n/a	n/a	n/a	n/a	n/a	n/a	n/a
403.8422	0.7667	COLOR_NAME	67	Incongruent	niebieski	blue	żółty	yellow	hit	n/a
404.5902	n/a	RESPONSE	n/a	n/a	n/a	n/a	n/a	n/a	n/a	blue
404.6089	1.0167	ITI	n/a	n/a	n/a	n/a	n/a	n/a	n/a	n/a
405.6256	0.5167	FIXCROSS	n/a	n/a	n/a	n/a	n/a	n/a	n/a	n/a
406.1422	0.5333	COLOR_NAME	68	Neutral	niebieski	blue	Neutral	Neutral	hit	n/a
406.6537	n/a	RESPONSE	n/a	n/a	n/a	n/a	n/a	n/a	n/a	blue
406.6756	1.0167	ITI	n/a	n/a	n/a	n/a	n/a	n/a	n/a	n/a
407.6923	0.5167	FIXCROSS	n/a	n/a	n/a	n/a	n/a	n/a	n/a	n/a
408.2089	0.65	COLOR_NAME	69	Neutral	czerwony	red	Neutral	Neutral	hit	n/a
408.8291	n/a	RESPONSE	n/a	n/a	n/a	n/a	n/a	n/a	n/a	red
408.859	1.0167	ITI	n/a	n/a	n/a	n/a	n/a	n/a	n/a	n/a
409.8756	0.5167	FIXCROSS	n/a	n/a	n/a	n/a	n/a	n/a	n/a	n/a
410.3923	0.8333	COLOR_NAME	70	Neutral	zielony	green	Neutral	Neutral	hit	n/a
411.1966	n/a	RESPONSE	n/a	n/a	n/a	n/a	n/a	n/a	n/a	green
411.2256	1.0167	ITI	n/a	n/a	n/a	n/a	n/a	n/a	n/a	n/a
412.2423	0.5167	FIXCROSS	n/a	n/a	n/a	n/a	n/a	n/a	n/a	n/a
412.759	0.5667	COLOR_NAME	71	Neutral	czerwony	red	Neutral	Neutral	incorrect	n/a
413.2921	n/a	RESPONSE	n/a	n/a	n/a	n/a	n/a	n/a	n/a	green
413.3257	1.0167	ITI	n/a	n/a	n/a	n/a	n/a	n/a	n/a	n/a
414.3423	0.5167	FIXCROSS	n/a	n/a	n/a	n/a	n/a	n/a	n/a	n/a
414.859	0.8	COLOR_NAME	72	Neutral	żółty	yellow	Neutral	Neutral	hit	n/a
415.6275	n/a	RESPONSE	n/a	n/a	n/a	n/a	n/a	n/a	n/a	yellow
415.659	1.0334	ITI	n/a	n/a	n/a	n/a	n/a	n/a	n/a	n/a
418.4108	n/a	RESPONSE	n/a	n/a	n/a	n/a	n/a	n/a	n/a	n/a
