onset	duration	trial_type	trial_number	stroop_condition	stim_text(PL)	stim_text(eng)	stim_color(PL)	stim_color(eng)	response_type	response_color
0.0	n/a	RESPONSE	n/a	n/a	n/a	n/a	n/a	n/a	n/a	n/a
0.0326	1.0167	ITI	n/a	n/a	n/a	n/a	n/a	n/a	n/a	n/a
1.0493	0.5	FIXCROSS	n/a	n/a	n/a	n/a	n/a	n/a	n/a	n/a
1.5493	1.2667	T_INK	1	Neutral	xxxxxxx	xxxxxxx	żółty	yellow	hit	n/a
2.7993	n/a	RESPONSE	n/a	n/a	n/a	n/a	n/a	n/a	n/a	yellow
2.816	0.5	FEEDBACK	n/a	n/a	n/a	n/a	n/a	n/a	n/a	n/a
3.316	1.0	ITI	n/a	n/a	n/a	n/a	n/a	n/a	n/a	n/a
4.316	0.5	FIXCROSS	n/a	n/a	n/a	n/a	n/a	n/a	n/a	n/a
4.816	0.8167	T_INK	2	Neutral	xxxxxxx	xxxxxxx	niebieski	blue	hit	n/a
5.6146	n/a	RESPONSE	n/a	n/a	n/a	n/a	n/a	n/a	n/a	blue
5.6327	0.5	FEEDBACK	n/a	n/a	n/a	n/a	n/a	n/a	n/a	n/a
6.1327	1.0	ITI	n/a	n/a	n/a	n/a	n/a	n/a	n/a	n/a
7.1327	0.5	FIXCROSS	n/a	n/a	n/a	n/a	n/a	n/a	n/a	n/a
7.6327	0.6	T_INK	3	Neutral	xxxxx	xxxxx	czerwony	red	hit	n/a
8.222	n/a	RESPONSE	n/a	n/a	n/a	n/a	n/a	n/a	n/a	red
8.2327	0.5	FEEDBACK	n/a	n/a	n/a	n/a	n/a	n/a	n/a	n/a
8.7327	1.0	ITI	n/a	n/a	n/a	n/a	n/a	n/a	n/a	n/a
9.7327	0.5	FIXCROSS	n/a	n/a	n/a	n/a	n/a	n/a	n/a	n/a
10.2327	0.7833	T_INK	4	Incongruent	niebieski	blue	żółty	yellow	hit	n/a
11.0053	n/a	RESPONSE	n/a	n/a	n/a	n/a	n/a	n/a	n/a	yellow
11.016	0.5	FEEDBACK	n/a	n/a	n/a	n/a	n/a	n/a	n/a	n/a
11.516	1.0167	ITI	n/a	n/a	n/a	n/a	n/a	n/a	n/a	n/a
12.5327	0.5	FIXCROSS	n/a	n/a	n/a	n/a	n/a	n/a	n/a	n/a
13.0327	0.8167	T_INK	5	Incongruent	czerwony	red	niebieski	blue	hit	n/a
13.8366	n/a	RESPONSE	n/a	n/a	n/a	n/a	n/a	n/a	n/a	blue
13.8494	0.5	FEEDBACK	n/a	n/a	n/a	n/a	n/a	n/a	n/a	n/a
14.3494	1.0	ITI	n/a	n/a	n/a	n/a	n/a	n/a	n/a	n/a
15.3494	0.5	FIXCROSS	n/a	n/a	n/a	n/a	n/a	n/a	n/a	n/a
15.8494	0.65	T_INK	6	Neutral	xxxxxxxxx	xxxxxxxxx	czerwony	red	hit	n/a
16.492	n/a	RESPONSE	n/a	n/a	n/a	n/a	n/a	n/a	n/a	red
16.4994	0.5	FEEDBACK	n/a	n/a	n/a	n/a	n/a	n/a	n/a	n/a
16.9994	1.0	ITI	n/a	n/a	n/a	n/a	n/a	n/a	n/a	n/a
17.9994	0.5	FIXCROSS	n/a	n/a	n/a	n/a	n/a	n/a	n/a	n/a
18.4994	0.5	T_INK	7	Neutral	xxxxxxxx	xxxxxxxx	zielony	green	hit	n/a
18.9714	n/a	RESPONSE	n/a	n/a	n/a	n/a	n/a	n/a	n/a	green
18.9994	0.5167	FEEDBACK	n/a	n/a	n/a	n/a	n/a	n/a	n/a	n/a
19.5161	1.0167	ITI	n/a	n/a	n/a	n/a	n/a	n/a	n/a	n/a
20.5327	0.5167	FIXCROSS	n/a	n/a	n/a	n/a	n/a	n/a	n/a	n/a
21.0494	0.65	T_INK	8	Incongruent	zielony	green	czerwony	red	hit	n/a
21.6747	n/a	RESPONSE	n/a	n/a	n/a	n/a	n/a	n/a	n/a	red
21.6994	0.5167	FEEDBACK	n/a	n/a	n/a	n/a	n/a	n/a	n/a	n/a
22.2161	1.0167	ITI	n/a	n/a	n/a	n/a	n/a	n/a	n/a	n/a
23.2328	0.5167	FIXCROSS	n/a	n/a	n/a	n/a	n/a	n/a	n/a	n/a
23.7494	0.65	T_INK	9	Neutral	xxxxx	xxxxx	zielony	green	hit	n/a
24.3781	n/a	RESPONSE	n/a	n/a	n/a	n/a	n/a	n/a	n/a	green
24.3994	0.5167	FEEDBACK	n/a	n/a	n/a	n/a	n/a	n/a	n/a	n/a
24.9161	1.0167	ITI	n/a	n/a	n/a	n/a	n/a	n/a	n/a	n/a
25.9328	0.5167	FIXCROSS	n/a	n/a	n/a	n/a	n/a	n/a	n/a	n/a
26.4494	0.75	T_INK	10	Neutral	xxxxx	xxxxx	niebieski	blue	hit	n/a
27.1774	n/a	RESPONSE	n/a	n/a	n/a	n/a	n/a	n/a	n/a	blue
27.1995	0.5167	FEEDBACK	n/a	n/a	n/a	n/a	n/a	n/a	n/a	n/a
27.7161	1.0167	ITI	n/a	n/a	n/a	n/a	n/a	n/a	n/a	n/a
28.7328	0.5167	FIXCROSS	n/a	n/a	n/a	n/a	n/a	n/a	n/a	n/a
29.2495	1.05	T_INK	11	Incongruent	czerwony	red	zielony	green	hit	n/a
30.2807	n/a	RESPONSE	n/a	n/a	n/a	n/a	n/a	n/a	n/a	green
30.2995	0.5167	FEEDBACK	n/a	n/a	n/a	n/a	n/a	n/a	n/a	n/a
30.8161	1.0167	ITI	n/a	n/a	n/a	n/a	n/a	n/a	n/a	n/a
31.8328	0.5167	FIXCROSS	n/a	n/a	n/a	n/a	n/a	n/a	n/a	n/a
32.3495	0.4833	T_INK	12	Neutral	xxxxxxx	xxxxxxx	czerwony	red	hit	n/a
32.8081	n/a	RESPONSE	n/a	n/a	n/a	n/a	n/a	n/a	n/a	red
32.8328	0.5167	FEEDBACK	n/a	n/a	n/a	n/a	n/a	n/a	n/a	n/a
33.3495	1.0333	ITI	n/a	n/a	n/a	n/a	n/a	n/a	n/a	n/a
36.7111	n/a	RESPONSE	n/a	n/a	n/a	n/a	n/a	n/a	n/a	n/a
36.7662	1.0167	ITI	n/a	n/a	n/a	n/a	n/a	n/a	n/a	n/a
37.7828	0.5167	FIXCROSS	n/a	n/a	n/a	n/a	n/a	n/a	n/a	n/a
38.2995	1.2	INK	1	Neutral	xxxxxxxx	xxxxxxxx	niebieski	blue	hit	n/a
39.4784	n/a	RESPONSE	n/a	n/a	n/a	n/a	n/a	n/a	n/a	blue
39.4995	1.0167	ITI	n/a	n/a	n/a	n/a	n/a	n/a	n/a	n/a
40.5162	0.5167	FIXCROSS	n/a	n/a	n/a	n/a	n/a	n/a	n/a	n/a
41.0329	0.65	INK	2	Neutral	xxxxxxx	xxxxxxx	niebieski	blue	hit	n/a
41.6539	n/a	RESPONSE	n/a	n/a	n/a	n/a	n/a	n/a	n/a	blue
41.6829	1.0167	ITI	n/a	n/a	n/a	n/a	n/a	n/a	n/a	n/a
42.6995	0.5167	FIXCROSS	n/a	n/a	n/a	n/a	n/a	n/a	n/a	n/a
43.2162	0.65	INK	3	Incongruent	niebieski	blue	żółty	yellow	hit	n/a
43.8454	n/a	RESPONSE	n/a	n/a	n/a	n/a	n/a	n/a	n/a	yellow
43.8662	1.0167	ITI	n/a	n/a	n/a	n/a	n/a	n/a	n/a	n/a
44.8829	0.5167	FIXCROSS	n/a	n/a	n/a	n/a	n/a	n/a	n/a	n/a
45.3995	0.5667	INK	4	Neutral	xxxxxxxx	xxxxxxxx	niebieski	blue	hit	n/a
45.9409	n/a	RESPONSE	n/a	n/a	n/a	n/a	n/a	n/a	n/a	blue
45.9662	1.0167	ITI	n/a	n/a	n/a	n/a	n/a	n/a	n/a	n/a
46.9829	0.5167	FIXCROSS	n/a	n/a	n/a	n/a	n/a	n/a	n/a	n/a
47.4996	0.4667	INK	5	Incongruent	zielony	green	niebieski	blue	hit	n/a
47.9404	n/a	RESPONSE	n/a	n/a	n/a	n/a	n/a	n/a	n/a	blue
47.9662	1.0333	ITI	n/a	n/a	n/a	n/a	n/a	n/a	n/a	n/a
48.9996	0.5167	FIXCROSS	n/a	n/a	n/a	n/a	n/a	n/a	n/a	n/a
49.5162	0.8167	INK	6	Incongruent	żółty	yellow	zielony	green	hit	n/a
50.3078	n/a	RESPONSE	n/a	n/a	n/a	n/a	n/a	n/a	n/a	green
50.3329	1.0167	ITI	n/a	n/a	n/a	n/a	n/a	n/a	n/a	n/a
51.3496	0.5167	FIXCROSS	n/a	n/a	n/a	n/a	n/a	n/a	n/a	n/a
51.8662	0.5667	INK	7	Neutral	xxxxxxxx	xxxxxxxx	żółty	yellow	hit	n/a
52.4033	n/a	RESPONSE	n/a	n/a	n/a	n/a	n/a	n/a	n/a	yellow
52.4329	1.0167	ITI	n/a	n/a	n/a	n/a	n/a	n/a	n/a	n/a
53.4496	0.5167	FIXCROSS	n/a	n/a	n/a	n/a	n/a	n/a	n/a	n/a
53.9663	0.5667	INK	8	Incongruent	czerwony	red	niebieski	blue	hit	n/a
54.5148	n/a	RESPONSE	n/a	n/a	n/a	n/a	n/a	n/a	n/a	blue
54.5329	1.0167	ITI	n/a	n/a	n/a	n/a	n/a	n/a	n/a	n/a
55.5496	0.5167	FIXCROSS	n/a	n/a	n/a	n/a	n/a	n/a	n/a	n/a
56.0663	0.6	INK	9	Incongruent	zielony	green	czerwony	red	hit	n/a
56.6423	n/a	RESPONSE	n/a	n/a	n/a	n/a	n/a	n/a	n/a	red
56.6663	1.0167	ITI	n/a	n/a	n/a	n/a	n/a	n/a	n/a	n/a
57.6829	0.5167	FIXCROSS	n/a	n/a	n/a	n/a	n/a	n/a	n/a	n/a
58.1996	0.8	INK	10	Incongruent	czerwony	red	zielony	green	hit	n/a
58.9778	n/a	RESPONSE	n/a	n/a	n/a	n/a	n/a	n/a	n/a	green
58.9996	1.0167	ITI	n/a	n/a	n/a	n/a	n/a	n/a	n/a	n/a
60.0163	0.5167	FIXCROSS	n/a	n/a	n/a	n/a	n/a	n/a	n/a	n/a
60.533	0.5833	INK	11	Incongruent	czerwony	red	zielony	green	hit	n/a
61.0892	n/a	RESPONSE	n/a	n/a	n/a	n/a	n/a	n/a	n/a	green
61.1163	1.0167	ITI	n/a	n/a	n/a	n/a	n/a	n/a	n/a	n/a
62.133	0.5167	FIXCROSS	n/a	n/a	n/a	n/a	n/a	n/a	n/a	n/a
62.6496	0.6333	INK	12	Neutral	xxxxxxxx	xxxxxxxx	żółty	yellow	hit	n/a
63.2647	n/a	RESPONSE	n/a	n/a	n/a	n/a	n/a	n/a	n/a	yellow
63.283	1.0167	ITI	n/a	n/a	n/a	n/a	n/a	n/a	n/a	n/a
64.2997	0.5167	FIXCROSS	n/a	n/a	n/a	n/a	n/a	n/a	n/a	n/a
64.8163	0.5	INK	13	Neutral	xxxxxxxx	xxxxxxxx	żółty	yellow	hit	n/a
65.2962	n/a	RESPONSE	n/a	n/a	n/a	n/a	n/a	n/a	n/a	yellow
65.3163	1.0167	ITI	n/a	n/a	n/a	n/a	n/a	n/a	n/a	n/a
66.333	0.5167	FIXCROSS	n/a	n/a	n/a	n/a	n/a	n/a	n/a	n/a
66.8497	0.4333	INK	14	Incongruent	zielony	green	żółty	yellow	hit	n/a
67.2638	n/a	RESPONSE	n/a	n/a	n/a	n/a	n/a	n/a	n/a	yellow
67.283	1.0167	ITI	n/a	n/a	n/a	n/a	n/a	n/a	n/a	n/a
68.2997	0.5167	FIXCROSS	n/a	n/a	n/a	n/a	n/a	n/a	n/a	n/a
68.8163	0.75	INK	15	Neutral	xxxxxxxxx	xxxxxxxxx	czerwony	red	hit	n/a
69.5352	n/a	RESPONSE	n/a	n/a	n/a	n/a	n/a	n/a	n/a	red
69.5664	1.0167	ITI	n/a	n/a	n/a	n/a	n/a	n/a	n/a	n/a
70.583	0.5167	FIXCROSS	n/a	n/a	n/a	n/a	n/a	n/a	n/a	n/a
71.0997	0.6167	INK	16	Incongruent	żółty	yellow	czerwony	red	hit	n/a
71.6947	n/a	RESPONSE	n/a	n/a	n/a	n/a	n/a	n/a	n/a	red
71.7164	1.0167	ITI	n/a	n/a	n/a	n/a	n/a	n/a	n/a	n/a
72.733	0.5167	FIXCROSS	n/a	n/a	n/a	n/a	n/a	n/a	n/a	n/a
73.2497	0.5667	INK	17	Neutral	xxxxxxxxx	xxxxxxxxx	żółty	yellow	hit	n/a
73.7902	n/a	RESPONSE	n/a	n/a	n/a	n/a	n/a	n/a	n/a	yellow
73.8164	1.0167	ITI	n/a	n/a	n/a	n/a	n/a	n/a	n/a	n/a
74.833	0.5167	FIXCROSS	n/a	n/a	n/a	n/a	n/a	n/a	n/a	n/a
75.3497	0.55	INK	18	Neutral	xxxxx	xxxxx	zielony	green	hit	n/a
75.8697	n/a	RESPONSE	n/a	n/a	n/a	n/a	n/a	n/a	n/a	green
75.8997	1.0167	ITI	n/a	n/a	n/a	n/a	n/a	n/a	n/a	n/a
76.9164	0.5167	FIXCROSS	n/a	n/a	n/a	n/a	n/a	n/a	n/a	n/a
77.4331	0.5167	INK	19	Neutral	xxxxxxxx	xxxxxxxx	zielony	green	hit	n/a
77.9172	n/a	RESPONSE	n/a	n/a	n/a	n/a	n/a	n/a	n/a	green
77.9497	1.0167	ITI	n/a	n/a	n/a	n/a	n/a	n/a	n/a	n/a
78.9664	0.5167	FIXCROSS	n/a	n/a	n/a	n/a	n/a	n/a	n/a	n/a
79.4831	1.0271	INK	20	Neutral	xxxxxxxxx	xxxxxxxxx	czerwony	red	hit	n/a
80.4926	n/a	RESPONSE	n/a	n/a	n/a	n/a	n/a	n/a	n/a	red
80.5101	1.0229	ITI	n/a	n/a	n/a	n/a	n/a	n/a	n/a	n/a
81.5331	0.5167	FIXCROSS	n/a	n/a	n/a	n/a	n/a	n/a	n/a	n/a
82.0498	0.8	INK	21	Neutral	xxxxxxxx	xxxxxxxx	zielony	green	hit	n/a
82.828	n/a	RESPONSE	n/a	n/a	n/a	n/a	n/a	n/a	n/a	green
82.8498	1.0167	ITI	n/a	n/a	n/a	n/a	n/a	n/a	n/a	n/a
83.8664	0.5167	FIXCROSS	n/a	n/a	n/a	n/a	n/a	n/a	n/a	n/a
84.3831	0.5667	INK	22	Neutral	xxxxxxx	xxxxxxx	czerwony	red	hit	n/a
84.9235	n/a	RESPONSE	n/a	n/a	n/a	n/a	n/a	n/a	n/a	red
84.9498	1.0167	ITI	n/a	n/a	n/a	n/a	n/a	n/a	n/a	n/a
85.9664	0.5167	FIXCROSS	n/a	n/a	n/a	n/a	n/a	n/a	n/a	n/a
86.4831	0.7333	INK	23	Incongruent	żółty	yellow	zielony	green	hit	n/a
87.1949	n/a	RESPONSE	n/a	n/a	n/a	n/a	n/a	n/a	n/a	green
87.2164	1.0167	ITI	n/a	n/a	n/a	n/a	n/a	n/a	n/a	n/a
88.2331	0.5167	FIXCROSS	n/a	n/a	n/a	n/a	n/a	n/a	n/a	n/a
88.7498	0.6167	INK	24	Neutral	xxxxx	xxxxx	czerwony	red	hit	n/a
89.3384	n/a	RESPONSE	n/a	n/a	n/a	n/a	n/a	n/a	n/a	red
89.3665	1.0167	ITI	n/a	n/a	n/a	n/a	n/a	n/a	n/a	n/a
90.3831	0.5167	FIXCROSS	n/a	n/a	n/a	n/a	n/a	n/a	n/a	n/a
90.8998	0.8667	INK	25	Incongruent	czerwony	red	zielony	green	hit	n/a
91.7379	n/a	RESPONSE	n/a	n/a	n/a	n/a	n/a	n/a	n/a	green
91.7665	1.0167	ITI	n/a	n/a	n/a	n/a	n/a	n/a	n/a	n/a
92.7831	0.5167	FIXCROSS	n/a	n/a	n/a	n/a	n/a	n/a	n/a	n/a
93.2998	0.4333	INK	26	Neutral	xxxxxxxxx	xxxxxxxxx	zielony	green	hit	n/a
93.7054	n/a	RESPONSE	n/a	n/a	n/a	n/a	n/a	n/a	n/a	green
93.7332	1.0167	ITI	n/a	n/a	n/a	n/a	n/a	n/a	n/a	n/a
94.7498	0.5167	FIXCROSS	n/a	n/a	n/a	n/a	n/a	n/a	n/a	n/a
95.2665	0.5833	INK	27	Neutral	xxxxxxx	xxxxxxx	żółty	yellow	hit	n/a
95.8169	n/a	RESPONSE	n/a	n/a	n/a	n/a	n/a	n/a	n/a	yellow
95.8498	1.0167	ITI	n/a	n/a	n/a	n/a	n/a	n/a	n/a	n/a
96.8665	0.5167	FIXCROSS	n/a	n/a	n/a	n/a	n/a	n/a	n/a	n/a
97.3832	0.6167	INK	28	Neutral	xxxxx	xxxxx	zielony	green	hit	n/a
97.9764	n/a	RESPONSE	n/a	n/a	n/a	n/a	n/a	n/a	n/a	green
97.9998	1.0167	ITI	n/a	n/a	n/a	n/a	n/a	n/a	n/a	n/a
99.0165	0.5167	FIXCROSS	n/a	n/a	n/a	n/a	n/a	n/a	n/a	n/a
99.5332	0.6167	INK	29	Incongruent	czerwony	red	żółty	yellow	hit	n/a
100.1198	n/a	RESPONSE	n/a	n/a	n/a	n/a	n/a	n/a	n/a	yellow
100.1499	1.0	ITI	n/a	n/a	n/a	n/a	n/a	n/a	n/a	n/a
101.1498	0.5	FIXCROSS	n/a	n/a	n/a	n/a	n/a	n/a	n/a	n/a
101.6499	0.3833	INK	30	Neutral	xxxxxxx	xxxxxxx	żółty	yellow	hit	n/a
102.0234	n/a	RESPONSE	n/a	n/a	n/a	n/a	n/a	n/a	n/a	yellow
102.0332	1.0	ITI	n/a	n/a	n/a	n/a	n/a	n/a	n/a	n/a
103.0332	0.5	FIXCROSS	n/a	n/a	n/a	n/a	n/a	n/a	n/a	n/a
103.5332	0.7167	INK	31	Incongruent	czerwony	red	niebieski	blue	hit	n/a
104.2308	n/a	RESPONSE	n/a	n/a	n/a	n/a	n/a	n/a	n/a	blue
104.2499	1.0	ITI	n/a	n/a	n/a	n/a	n/a	n/a	n/a	n/a
105.2499	0.5	FIXCROSS	n/a	n/a	n/a	n/a	n/a	n/a	n/a	n/a
105.7499	0.5167	INK	32	Incongruent	czerwony	red	żółty	yellow	hit	n/a
106.2463	n/a	RESPONSE	n/a	n/a	n/a	n/a	n/a	n/a	n/a	yellow
106.2665	1.0167	ITI	n/a	n/a	n/a	n/a	n/a	n/a	n/a	n/a
107.2832	0.5167	FIXCROSS	n/a	n/a	n/a	n/a	n/a	n/a	n/a	n/a
107.7999	0.6167	INK	33	Neutral	xxxxxxxx	xxxxxxxx	niebieski	blue	hit	n/a
108.3898	n/a	RESPONSE	n/a	n/a	n/a	n/a	n/a	n/a	n/a	blue
108.4166	1.0167	ITI	n/a	n/a	n/a	n/a	n/a	n/a	n/a	n/a
109.4332	0.5167	FIXCROSS	n/a	n/a	n/a	n/a	n/a	n/a	n/a	n/a
109.9499	0.5	INK	34	Neutral	xxxxx	xxxxx	niebieski	blue	hit	n/a
110.4213	n/a	RESPONSE	n/a	n/a	n/a	n/a	n/a	n/a	n/a	blue
110.4499	1.0167	ITI	n/a	n/a	n/a	n/a	n/a	n/a	n/a	n/a
111.4666	0.5167	FIXCROSS	n/a	n/a	n/a	n/a	n/a	n/a	n/a	n/a
111.9832	0.4833	INK	35	Incongruent	czerwony	red	niebieski	blue	hit	n/a
112.4368	n/a	RESPONSE	n/a	n/a	n/a	n/a	n/a	n/a	n/a	blue
112.4666	1.0167	ITI	n/a	n/a	n/a	n/a	n/a	n/a	n/a	n/a
113.4833	0.5167	FIXCROSS	n/a	n/a	n/a	n/a	n/a	n/a	n/a	n/a
113.9999	0.7833	INK	36	Neutral	xxxxx	xxxxx	zielony	green	hit	n/a
114.7563	n/a	RESPONSE	n/a	n/a	n/a	n/a	n/a	n/a	n/a	green
114.7833	1.0167	ITI	n/a	n/a	n/a	n/a	n/a	n/a	n/a	n/a
115.7999	0.5167	FIXCROSS	n/a	n/a	n/a	n/a	n/a	n/a	n/a	n/a
116.3166	0.6667	INK	37	Neutral	xxxxx	xxxxx	niebieski	blue	hit	n/a
116.9638	n/a	RESPONSE	n/a	n/a	n/a	n/a	n/a	n/a	n/a	blue
116.9833	1.0167	ITI	n/a	n/a	n/a	n/a	n/a	n/a	n/a	n/a
118.0	0.5167	FIXCROSS	n/a	n/a	n/a	n/a	n/a	n/a	n/a	n/a
118.5166	0.4833	INK	38	Incongruent	zielony	green	czerwony	red	hit	n/a
118.9793	n/a	RESPONSE	n/a	n/a	n/a	n/a	n/a	n/a	n/a	red
119.0	1.0167	ITI	n/a	n/a	n/a	n/a	n/a	n/a	n/a	n/a
120.0166	0.5167	FIXCROSS	n/a	n/a	n/a	n/a	n/a	n/a	n/a	n/a
120.5333	0.6167	INK	39	Incongruent	żółty	yellow	czerwony	red	hit	n/a
121.1228	n/a	RESPONSE	n/a	n/a	n/a	n/a	n/a	n/a	n/a	red
121.15	1.0167	ITI	n/a	n/a	n/a	n/a	n/a	n/a	n/a	n/a
122.1666	0.5167	FIXCROSS	n/a	n/a	n/a	n/a	n/a	n/a	n/a	n/a
122.6833	0.5167	INK	40	Neutral	xxxxxxx	xxxxxxx	czerwony	red	hit	n/a
123.1703	n/a	RESPONSE	n/a	n/a	n/a	n/a	n/a	n/a	n/a	red
123.2	1.0167	ITI	n/a	n/a	n/a	n/a	n/a	n/a	n/a	n/a
124.2166	0.5167	FIXCROSS	n/a	n/a	n/a	n/a	n/a	n/a	n/a	n/a
124.7333	0.5167	INK	41	Neutral	xxxxxxxxx	xxxxxxxxx	żółty	yellow	hit	n/a
125.2178	n/a	RESPONSE	n/a	n/a	n/a	n/a	n/a	n/a	n/a	yellow
125.25	1.0167	ITI	n/a	n/a	n/a	n/a	n/a	n/a	n/a	n/a
126.2667	0.5167	FIXCROSS	n/a	n/a	n/a	n/a	n/a	n/a	n/a	n/a
126.7833	0.6	INK	42	Incongruent	niebieski	blue	czerwony	red	hit	n/a
127.3613	n/a	RESPONSE	n/a	n/a	n/a	n/a	n/a	n/a	n/a	red
127.3833	1.0167	ITI	n/a	n/a	n/a	n/a	n/a	n/a	n/a	n/a
128.4	0.5167	FIXCROSS	n/a	n/a	n/a	n/a	n/a	n/a	n/a	n/a
128.9167	0.4333	INK	43	Neutral	xxxxx	xxxxx	czerwony	red	hit	n/a
129.3288	n/a	RESPONSE	n/a	n/a	n/a	n/a	n/a	n/a	n/a	red
129.35	1.0167	ITI	n/a	n/a	n/a	n/a	n/a	n/a	n/a	n/a
130.3667	0.5167	FIXCROSS	n/a	n/a	n/a	n/a	n/a	n/a	n/a	n/a
130.8834	0.3833	INK	44	Neutral	xxxxxxxxx	xxxxxxxxx	czerwony	red	hit	n/a
131.2483	n/a	RESPONSE	n/a	n/a	n/a	n/a	n/a	n/a	n/a	red
131.2667	1.0167	ITI	n/a	n/a	n/a	n/a	n/a	n/a	n/a	n/a
132.2834	0.5167	FIXCROSS	n/a	n/a	n/a	n/a	n/a	n/a	n/a	n/a
132.8	0.3833	INK	45	Incongruent	żółty	yellow	niebieski	blue	hit	n/a
133.1519	n/a	RESPONSE	n/a	n/a	n/a	n/a	n/a	n/a	n/a	blue
133.1834	1.0167	ITI	n/a	n/a	n/a	n/a	n/a	n/a	n/a	n/a
134.2	0.5167	FIXCROSS	n/a	n/a	n/a	n/a	n/a	n/a	n/a	n/a
134.7167	0.6	INK	46	Incongruent	zielony	green	żółty	yellow	hit	n/a
135.2953	n/a	RESPONSE	n/a	n/a	n/a	n/a	n/a	n/a	n/a	yellow
135.3167	1.0167	ITI	n/a	n/a	n/a	n/a	n/a	n/a	n/a	n/a
136.3334	0.5167	FIXCROSS	n/a	n/a	n/a	n/a	n/a	n/a	n/a	n/a
136.8501	0.5167	INK	47	Neutral	xxxxxxx	xxxxxxx	niebieski	blue	hit	n/a
137.3428	n/a	RESPONSE	n/a	n/a	n/a	n/a	n/a	n/a	n/a	blue
137.3667	1.0167	ITI	n/a	n/a	n/a	n/a	n/a	n/a	n/a	n/a
138.3834	0.5167	FIXCROSS	n/a	n/a	n/a	n/a	n/a	n/a	n/a	n/a
138.9001	0.5667	INK	48	Neutral	xxxxxxxxx	xxxxxxxxx	zielony	green	hit	n/a
139.4383	n/a	RESPONSE	n/a	n/a	n/a	n/a	n/a	n/a	n/a	green
139.4667	1.0167	ITI	n/a	n/a	n/a	n/a	n/a	n/a	n/a	n/a
140.4834	0.5167	FIXCROSS	n/a	n/a	n/a	n/a	n/a	n/a	n/a	n/a
141.0001	0.55	INK	49	Incongruent	niebieski	blue	żółty	yellow	hit	n/a
141.5178	n/a	RESPONSE	n/a	n/a	n/a	n/a	n/a	n/a	n/a	yellow
141.5501	1.0167	ITI	n/a	n/a	n/a	n/a	n/a	n/a	n/a	n/a
142.5668	0.5167	FIXCROSS	n/a	n/a	n/a	n/a	n/a	n/a	n/a	n/a
143.0834	0.4167	INK	50	Neutral	xxxxxxx	xxxxxxx	niebieski	blue	hit	n/a
143.4693	n/a	RESPONSE	n/a	n/a	n/a	n/a	n/a	n/a	n/a	blue
143.5001	1.0167	ITI	n/a	n/a	n/a	n/a	n/a	n/a	n/a	n/a
144.5168	0.5167	FIXCROSS	n/a	n/a	n/a	n/a	n/a	n/a	n/a	n/a
145.0334	0.45	INK	51	Incongruent	żółty	yellow	niebieski	blue	hit	n/a
145.4528	n/a	RESPONSE	n/a	n/a	n/a	n/a	n/a	n/a	n/a	blue
145.4834	1.0167	ITI	n/a	n/a	n/a	n/a	n/a	n/a	n/a	n/a
146.5001	0.5167	FIXCROSS	n/a	n/a	n/a	n/a	n/a	n/a	n/a	n/a
147.0168	0.35	INK	52	Incongruent	żółty	yellow	niebieski	blue	hit	n/a
147.3404	n/a	RESPONSE	n/a	n/a	n/a	n/a	n/a	n/a	n/a	blue
147.3668	1.0167	ITI	n/a	n/a	n/a	n/a	n/a	n/a	n/a	n/a
148.3835	0.5167	FIXCROSS	n/a	n/a	n/a	n/a	n/a	n/a	n/a	n/a
148.9001	0.35	INK	53	Incongruent	zielony	green	niebieski	blue	hit	n/a
149.2279	n/a	RESPONSE	n/a	n/a	n/a	n/a	n/a	n/a	n/a	blue
149.2501	1.0167	ITI	n/a	n/a	n/a	n/a	n/a	n/a	n/a	n/a
150.2668	0.5167	FIXCROSS	n/a	n/a	n/a	n/a	n/a	n/a	n/a	n/a
150.7835	0.5167	INK	54	Incongruent	niebieski	blue	czerwony	red	hit	n/a
151.2754	n/a	RESPONSE	n/a	n/a	n/a	n/a	n/a	n/a	n/a	red
151.3001	1.0167	ITI	n/a	n/a	n/a	n/a	n/a	n/a	n/a	n/a
152.3168	0.5167	FIXCROSS	n/a	n/a	n/a	n/a	n/a	n/a	n/a	n/a
152.8335	0.3667	INK	55	Incongruent	niebieski	blue	czerwony	red	hit	n/a
153.1789	n/a	RESPONSE	n/a	n/a	n/a	n/a	n/a	n/a	n/a	red
153.2001	1.0167	ITI	n/a	n/a	n/a	n/a	n/a	n/a	n/a	n/a
154.2168	0.5167	FIXCROSS	n/a	n/a	n/a	n/a	n/a	n/a	n/a	n/a
154.7335	0.5333	INK	56	Neutral	xxxxx	xxxxx	niebieski	blue	hit	n/a
155.2424	n/a	RESPONSE	n/a	n/a	n/a	n/a	n/a	n/a	n/a	blue
155.2668	1.0167	ITI	n/a	n/a	n/a	n/a	n/a	n/a	n/a	n/a
156.2835	0.5167	FIXCROSS	n/a	n/a	n/a	n/a	n/a	n/a	n/a	n/a
156.8002	0.3333	INK	57	Incongruent	niebieski	blue	zielony	green	hit	n/a
157.1139	n/a	RESPONSE	n/a	n/a	n/a	n/a	n/a	n/a	n/a	green
157.1335	1.0167	ITI	n/a	n/a	n/a	n/a	n/a	n/a	n/a	n/a
158.1502	0.5167	FIXCROSS	n/a	n/a	n/a	n/a	n/a	n/a	n/a	n/a
158.6668	0.45	INK	58	Neutral	xxxxxxx	xxxxxxx	czerwony	red	hit	n/a
159.0974	n/a	RESPONSE	n/a	n/a	n/a	n/a	n/a	n/a	n/a	red
159.1168	1.0167	ITI	n/a	n/a	n/a	n/a	n/a	n/a	n/a	n/a
160.1335	0.5167	FIXCROSS	n/a	n/a	n/a	n/a	n/a	n/a	n/a	n/a
160.6502	0.5333	INK	59	Incongruent	żółty	yellow	zielony	green	incorrect	n/a
161.1609	n/a	RESPONSE	n/a	n/a	n/a	n/a	n/a	n/a	n/a	blue
161.1835	1.0167	ITI	n/a	n/a	n/a	n/a	n/a	n/a	n/a	n/a
162.2002	0.5167	FIXCROSS	n/a	n/a	n/a	n/a	n/a	n/a	n/a	n/a
162.7169	0.7	INK	60	Incongruent	zielony	green	żółty	yellow	hit	n/a
163.3843	n/a	RESPONSE	n/a	n/a	n/a	n/a	n/a	n/a	n/a	yellow
163.4169	1.0167	ITI	n/a	n/a	n/a	n/a	n/a	n/a	n/a	n/a
164.4336	0.5167	FIXCROSS	n/a	n/a	n/a	n/a	n/a	n/a	n/a	n/a
164.9502	0.5833	INK	61	Incongruent	niebieski	blue	zielony	green	hit	n/a
165.5118	n/a	RESPONSE	n/a	n/a	n/a	n/a	n/a	n/a	n/a	green
165.5336	1.0167	ITI	n/a	n/a	n/a	n/a	n/a	n/a	n/a	n/a
166.5502	0.5167	FIXCROSS	n/a	n/a	n/a	n/a	n/a	n/a	n/a	n/a
167.0669	0.4833	INK	62	Incongruent	żółty	yellow	czerwony	red	hit	n/a
167.5273	n/a	RESPONSE	n/a	n/a	n/a	n/a	n/a	n/a	n/a	red
167.5502	1.0167	ITI	n/a	n/a	n/a	n/a	n/a	n/a	n/a	n/a
168.5669	0.5167	FIXCROSS	n/a	n/a	n/a	n/a	n/a	n/a	n/a	n/a
169.0836	0.4833	INK	63	Incongruent	zielony	green	niebieski	blue	hit	n/a
169.5428	n/a	RESPONSE	n/a	n/a	n/a	n/a	n/a	n/a	n/a	blue
169.5669	1.0167	ITI	n/a	n/a	n/a	n/a	n/a	n/a	n/a	n/a
170.5836	0.5167	FIXCROSS	n/a	n/a	n/a	n/a	n/a	n/a	n/a	n/a
171.1002	0.4167	INK	64	Neutral	xxxxxxxx	xxxxxxxx	zielony	green	hit	n/a
171.4943	n/a	RESPONSE	n/a	n/a	n/a	n/a	n/a	n/a	n/a	green
171.5169	1.0167	ITI	n/a	n/a	n/a	n/a	n/a	n/a	n/a	n/a
172.5336	0.5167	FIXCROSS	n/a	n/a	n/a	n/a	n/a	n/a	n/a	n/a
173.0503	0.45	INK	65	Incongruent	czerwony	red	żółty	yellow	hit	n/a
173.4778	n/a	RESPONSE	n/a	n/a	n/a	n/a	n/a	n/a	n/a	yellow
173.5003	1.0167	ITI	n/a	n/a	n/a	n/a	n/a	n/a	n/a	n/a
174.5169	0.5167	FIXCROSS	n/a	n/a	n/a	n/a	n/a	n/a	n/a	n/a
175.0336	0.4833	INK	66	Incongruent	niebieski	blue	żółty	yellow	hit	n/a
175.4934	n/a	RESPONSE	n/a	n/a	n/a	n/a	n/a	n/a	n/a	yellow
175.5169	1.0167	ITI	n/a	n/a	n/a	n/a	n/a	n/a	n/a	n/a
176.5336	0.5167	FIXCROSS	n/a	n/a	n/a	n/a	n/a	n/a	n/a	n/a
177.0503	1.1667	INK	67	Neutral	xxxxxxxxx	xxxxxxxxx	zielony	green	hit	n/a
178.1967	n/a	RESPONSE	n/a	n/a	n/a	n/a	n/a	n/a	n/a	green
178.217	1.0167	ITI	n/a	n/a	n/a	n/a	n/a	n/a	n/a	n/a
179.2336	0.5167	FIXCROSS	n/a	n/a	n/a	n/a	n/a	n/a	n/a	n/a
179.7503	0.6	INK	68	Incongruent	zielony	green	czerwony	red	hit	n/a
180.3242	n/a	RESPONSE	n/a	n/a	n/a	n/a	n/a	n/a	n/a	red
180.3503	1.0167	ITI	n/a	n/a	n/a	n/a	n/a	n/a	n/a	n/a
181.367	0.5167	FIXCROSS	n/a	n/a	n/a	n/a	n/a	n/a	n/a	n/a
181.8836	0.8667	INK	69	Neutral	xxxxxxx	xxxxxxx	żółty	yellow	hit	n/a
182.7236	n/a	RESPONSE	n/a	n/a	n/a	n/a	n/a	n/a	n/a	yellow
182.7503	1.0167	ITI	n/a	n/a	n/a	n/a	n/a	n/a	n/a	n/a
183.767	0.5167	FIXCROSS	n/a	n/a	n/a	n/a	n/a	n/a	n/a	n/a
184.2837	0.6667	INK	70	Neutral	xxxxx	xxxxx	czerwony	red	hit	n/a
184.9311	n/a	RESPONSE	n/a	n/a	n/a	n/a	n/a	n/a	n/a	red
184.9503	1.0167	ITI	n/a	n/a	n/a	n/a	n/a	n/a	n/a	n/a
185.967	0.5167	FIXCROSS	n/a	n/a	n/a	n/a	n/a	n/a	n/a	n/a
186.4837	0.6	INK	71	Neutral	xxxxxxxxx	xxxxxxxxx	żółty	yellow	hit	n/a
187.0586	n/a	RESPONSE	n/a	n/a	n/a	n/a	n/a	n/a	n/a	yellow
187.0837	1.0167	ITI	n/a	n/a	n/a	n/a	n/a	n/a	n/a	n/a
188.1003	0.5167	FIXCROSS	n/a	n/a	n/a	n/a	n/a	n/a	n/a	n/a
188.617	0.7167	INK	72	Incongruent	niebieski	blue	zielony	green	hit	n/a
189.314	n/a	RESPONSE	n/a	n/a	n/a	n/a	n/a	n/a	n/a	green
189.3337	1.0833	ITI	n/a	n/a	n/a	n/a	n/a	n/a	n/a	n/a
233.2714	n/a	RESPONSE	n/a	n/a	n/a	n/a	n/a	n/a	n/a	n/a
233.3339	1.0167	ITI	n/a	n/a	n/a	n/a	n/a	n/a	n/a	n/a
234.3506	0.5167	FIXCROSS	n/a	n/a	n/a	n/a	n/a	n/a	n/a	n/a
234.8673	0.9667	T_COLOR_NAME	1	Neutral	zielony	green	Neutral	Neutral	hit	n/a
235.7988	n/a	RESPONSE	n/a	n/a	n/a	n/a	n/a	n/a	n/a	green
235.8339	0.5167	FEEDBACK	n/a	n/a	n/a	n/a	n/a	n/a	n/a	n/a
236.3506	1.0167	ITI	n/a	n/a	n/a	n/a	n/a	n/a	n/a	n/a
237.3673	0.5167	FIXCROSS	n/a	n/a	n/a	n/a	n/a	n/a	n/a	n/a
237.884	0.7833	T_COLOR_NAME	2	Incongruent	czerwony	red	zielony	green	hit	n/a
238.6461	n/a	RESPONSE	n/a	n/a	n/a	n/a	n/a	n/a	n/a	red
238.6673	0.5167	FEEDBACK	n/a	n/a	n/a	n/a	n/a	n/a	n/a	n/a
239.184	1.0167	ITI	n/a	n/a	n/a	n/a	n/a	n/a	n/a	n/a
240.2006	0.5167	FIXCROSS	n/a	n/a	n/a	n/a	n/a	n/a	n/a	n/a
240.7173	1.0333	T_COLOR_NAME	3	Incongruent	czerwony	red	niebieski	blue	hit	n/a
241.7174	n/a	RESPONSE	n/a	n/a	n/a	n/a	n/a	n/a	n/a	red
241.7506	0.5167	FEEDBACK	n/a	n/a	n/a	n/a	n/a	n/a	n/a	n/a
242.2673	1.0	ITI	n/a	n/a	n/a	n/a	n/a	n/a	n/a	n/a
243.2673	0.5	FIXCROSS	n/a	n/a	n/a	n/a	n/a	n/a	n/a	n/a
243.7673	0.7167	T_COLOR_NAME	4	Neutral	zielony	green	Neutral	Neutral	hit	n/a
244.4687	n/a	RESPONSE	n/a	n/a	n/a	n/a	n/a	n/a	n/a	green
244.484	0.5	FEEDBACK	n/a	n/a	n/a	n/a	n/a	n/a	n/a	n/a
244.984	1.0	ITI	n/a	n/a	n/a	n/a	n/a	n/a	n/a	n/a
245.984	0.5	FIXCROSS	n/a	n/a	n/a	n/a	n/a	n/a	n/a	n/a
246.484	0.7833	T_COLOR_NAME	5	Neutral	żółty	yellow	Neutral	Neutral	hit	n/a
247.252	n/a	RESPONSE	n/a	n/a	n/a	n/a	n/a	n/a	n/a	yellow
247.2673	0.5	FEEDBACK	n/a	n/a	n/a	n/a	n/a	n/a	n/a	n/a
247.7673	1.0167	ITI	n/a	n/a	n/a	n/a	n/a	n/a	n/a	n/a
248.784	0.5167	FIXCROSS	n/a	n/a	n/a	n/a	n/a	n/a	n/a	n/a
249.3007	0.9834	T_COLOR_NAME	6	Incongruent	niebieski	blue	żółty	yellow	hit	n/a
250.2593	n/a	RESPONSE	n/a	n/a	n/a	n/a	n/a	n/a	n/a	blue
250.284	0.5167	FEEDBACK	n/a	n/a	n/a	n/a	n/a	n/a	n/a	n/a
250.8007	1.0167	ITI	n/a	n/a	n/a	n/a	n/a	n/a	n/a	n/a
251.8174	0.5167	FIXCROSS	n/a	n/a	n/a	n/a	n/a	n/a	n/a	n/a
252.3341	0.6	T_COLOR_NAME	7	Neutral	niebieski	blue	Neutral	Neutral	hit	n/a
252.9147	n/a	RESPONSE	n/a	n/a	n/a	n/a	n/a	n/a	n/a	blue
252.9341	0.5167	FEEDBACK	n/a	n/a	n/a	n/a	n/a	n/a	n/a	n/a
253.4507	1.0167	ITI	n/a	n/a	n/a	n/a	n/a	n/a	n/a	n/a
254.4674	0.5167	FIXCROSS	n/a	n/a	n/a	n/a	n/a	n/a	n/a	n/a
254.9841	0.8167	T_COLOR_NAME	8	Neutral	żółty	yellow	Neutral	Neutral	hit	n/a
255.778	n/a	RESPONSE	n/a	n/a	n/a	n/a	n/a	n/a	n/a	yellow
255.8007	0.5167	FEEDBACK	n/a	n/a	n/a	n/a	n/a	n/a	n/a	n/a
256.3174	1.0167	ITI	n/a	n/a	n/a	n/a	n/a	n/a	n/a	n/a
257.3341	0.5167	FIXCROSS	n/a	n/a	n/a	n/a	n/a	n/a	n/a	n/a
257.8507	0.7	T_COLOR_NAME	9	Neutral	czerwony	red	Neutral	Neutral	hit	n/a
258.5293	n/a	RESPONSE	n/a	n/a	n/a	n/a	n/a	n/a	n/a	red
258.5508	0.5167	FEEDBACK	n/a	n/a	n/a	n/a	n/a	n/a	n/a	n/a
259.0674	1.0167	ITI	n/a	n/a	n/a	n/a	n/a	n/a	n/a	n/a
260.0841	0.5167	FIXCROSS	n/a	n/a	n/a	n/a	n/a	n/a	n/a	n/a
260.6008	1.15	T_COLOR_NAME	10	Incongruent	zielony	green	czerwony	red	hit	n/a
261.7285	n/a	RESPONSE	n/a	n/a	n/a	n/a	n/a	n/a	n/a	green
261.7508	0.5167	FEEDBACK	n/a	n/a	n/a	n/a	n/a	n/a	n/a	n/a
262.2674	1.0167	ITI	n/a	n/a	n/a	n/a	n/a	n/a	n/a	n/a
263.2841	0.5167	FIXCROSS	n/a	n/a	n/a	n/a	n/a	n/a	n/a	n/a
263.8008	1.0333	T_COLOR_NAME	11	Neutral	żółty	yellow	Neutral	Neutral	hit	n/a
264.7998	n/a	RESPONSE	n/a	n/a	n/a	n/a	n/a	n/a	n/a	yellow
264.8341	0.5167	FEEDBACK	n/a	n/a	n/a	n/a	n/a	n/a	n/a	n/a
265.3508	1.0167	ITI	n/a	n/a	n/a	n/a	n/a	n/a	n/a	n/a
266.3675	0.5167	FIXCROSS	n/a	n/a	n/a	n/a	n/a	n/a	n/a	n/a
266.8841	0.8833	T_COLOR_NAME	12	Neutral	zielony	green	Neutral	Neutral	hit	n/a
267.743	n/a	RESPONSE	n/a	n/a	n/a	n/a	n/a	n/a	n/a	green
267.7675	0.5167	FEEDBACK	n/a	n/a	n/a	n/a	n/a	n/a	n/a	n/a
268.2841	1.0333	ITI	n/a	n/a	n/a	n/a	n/a	n/a	n/a	n/a
271.3102	n/a	RESPONSE	n/a	n/a	n/a	n/a	n/a	n/a	n/a	n/a
271.3675	1.0167	ITI	n/a	n/a	n/a	n/a	n/a	n/a	n/a	n/a
272.3842	0.5167	FIXCROSS	n/a	n/a	n/a	n/a	n/a	n/a	n/a	n/a
272.9008	1.1333	COLOR_NAME	1	Neutral	niebieski	blue	Neutral	Neutral	hit	n/a
274.0136	n/a	RESPONSE	n/a	n/a	n/a	n/a	n/a	n/a	n/a	blue
274.0342	1.0167	ITI	n/a	n/a	n/a	n/a	n/a	n/a	n/a	n/a
275.0508	0.5167	FIXCROSS	n/a	n/a	n/a	n/a	n/a	n/a	n/a	n/a
275.5675	0.7	COLOR_NAME	2	Incongruent	zielony	green	żółty	yellow	hit	n/a
276.237	n/a	RESPONSE	n/a	n/a	n/a	n/a	n/a	n/a	n/a	green
276.2675	1.0167	ITI	n/a	n/a	n/a	n/a	n/a	n/a	n/a	n/a
277.2842	0.5167	FIXCROSS	n/a	n/a	n/a	n/a	n/a	n/a	n/a	n/a
277.8009	0.7333	COLOR_NAME	3	Incongruent	żółty	yellow	niebieski	blue	hit	n/a
278.5085	n/a	RESPONSE	n/a	n/a	n/a	n/a	n/a	n/a	n/a	yellow
278.5342	1.0167	ITI	n/a	n/a	n/a	n/a	n/a	n/a	n/a	n/a
279.5509	0.5167	FIXCROSS	n/a	n/a	n/a	n/a	n/a	n/a	n/a	n/a
280.0675	0.7667	COLOR_NAME	4	Neutral	czerwony	red	Neutral	Neutral	hit	n/a
280.812	n/a	RESPONSE	n/a	n/a	n/a	n/a	n/a	n/a	n/a	red
280.8342	1.0167	ITI	n/a	n/a	n/a	n/a	n/a	n/a	n/a	n/a
281.8509	0.5167	FIXCROSS	n/a	n/a	n/a	n/a	n/a	n/a	n/a	n/a
282.3676	0.65	COLOR_NAME	5	Neutral	zielony	green	Neutral	Neutral	hit	n/a
282.9874	n/a	RESPONSE	n/a	n/a	n/a	n/a	n/a	n/a	n/a	green
283.0176	1.0167	ITI	n/a	n/a	n/a	n/a	n/a	n/a	n/a	n/a
284.0342	0.5167	FIXCROSS	n/a	n/a	n/a	n/a	n/a	n/a	n/a	n/a
284.5509	0.9333	COLOR_NAME	6	Neutral	niebieski	blue	Neutral	Neutral	hit	n/a
285.4668	n/a	RESPONSE	n/a	n/a	n/a	n/a	n/a	n/a	n/a	blue
285.4842	1.0167	ITI	n/a	n/a	n/a	n/a	n/a	n/a	n/a	n/a
286.5009	0.5167	FIXCROSS	n/a	n/a	n/a	n/a	n/a	n/a	n/a	n/a
287.0176	0.9167	COLOR_NAME	7	Neutral	żółty	yellow	Neutral	Neutral	hit	n/a
287.9142	n/a	RESPONSE	n/a	n/a	n/a	n/a	n/a	n/a	n/a	yellow
287.9343	1.0167	ITI	n/a	n/a	n/a	n/a	n/a	n/a	n/a	n/a
288.9509	0.5167	FIXCROSS	n/a	n/a	n/a	n/a	n/a	n/a	n/a	n/a
289.4676	0.85	COLOR_NAME	8	Neutral	niebieski	blue	Neutral	Neutral	hit	n/a
290.2976	n/a	RESPONSE	n/a	n/a	n/a	n/a	n/a	n/a	n/a	blue
290.3176	1.0167	ITI	n/a	n/a	n/a	n/a	n/a	n/a	n/a	n/a
291.3343	0.5167	FIXCROSS	n/a	n/a	n/a	n/a	n/a	n/a	n/a	n/a
291.8509	0.8167	COLOR_NAME	9	Incongruent	niebieski	blue	czerwony	red	hit	n/a
292.6491	n/a	RESPONSE	n/a	n/a	n/a	n/a	n/a	n/a	n/a	blue
292.6676	1.0167	ITI	n/a	n/a	n/a	n/a	n/a	n/a	n/a	n/a
293.6843	0.5167	FIXCROSS	n/a	n/a	n/a	n/a	n/a	n/a	n/a	n/a
294.201	0.7	COLOR_NAME	10	Neutral	niebieski	blue	Neutral	Neutral	hit	n/a
294.8725	n/a	RESPONSE	n/a	n/a	n/a	n/a	n/a	n/a	n/a	blue
294.901	1.0167	ITI	n/a	n/a	n/a	n/a	n/a	n/a	n/a	n/a
295.9176	0.5167	FIXCROSS	n/a	n/a	n/a	n/a	n/a	n/a	n/a	n/a
296.4343	0.6667	COLOR_NAME	11	Neutral	zielony	green	Neutral	Neutral	hit	n/a
297.08	n/a	RESPONSE	n/a	n/a	n/a	n/a	n/a	n/a	n/a	green
297.101	1.0167	ITI	n/a	n/a	n/a	n/a	n/a	n/a	n/a	n/a
298.1177	0.5167	FIXCROSS	n/a	n/a	n/a	n/a	n/a	n/a	n/a	n/a
298.6343	1.2167	COLOR_NAME	12	Incongruent	zielony	green	niebieski	blue	hit	n/a
299.8313	n/a	RESPONSE	n/a	n/a	n/a	n/a	n/a	n/a	n/a	green
299.851	1.0167	ITI	n/a	n/a	n/a	n/a	n/a	n/a	n/a	n/a
300.8677	0.5167	FIXCROSS	n/a	n/a	n/a	n/a	n/a	n/a	n/a	n/a
301.3843	0.8833	COLOR_NAME	13	Neutral	żółty	yellow	Neutral	Neutral	hit	n/a
302.2467	n/a	RESPONSE	n/a	n/a	n/a	n/a	n/a	n/a	n/a	yellow
302.2677	1.0167	ITI	n/a	n/a	n/a	n/a	n/a	n/a	n/a	n/a
303.2843	0.5167	FIXCROSS	n/a	n/a	n/a	n/a	n/a	n/a	n/a	n/a
303.801	0.6833	COLOR_NAME	14	Neutral	zielony	green	Neutral	Neutral	hit	n/a
304.4542	n/a	RESPONSE	n/a	n/a	n/a	n/a	n/a	n/a	n/a	green
304.4844	1.0167	ITI	n/a	n/a	n/a	n/a	n/a	n/a	n/a	n/a
305.501	0.5167	FIXCROSS	n/a	n/a	n/a	n/a	n/a	n/a	n/a	n/a
306.0177	0.8667	COLOR_NAME	15	Incongruent	niebieski	blue	żółty	yellow	hit	n/a
306.8536	n/a	RESPONSE	n/a	n/a	n/a	n/a	n/a	n/a	n/a	blue
306.8844	1.0167	ITI	n/a	n/a	n/a	n/a	n/a	n/a	n/a	n/a
307.901	0.5167	FIXCROSS	n/a	n/a	n/a	n/a	n/a	n/a	n/a	n/a
308.4177	0.8	COLOR_NAME	16	Neutral	żółty	yellow	Neutral	Neutral	hit	n/a
309.1891	n/a	RESPONSE	n/a	n/a	n/a	n/a	n/a	n/a	n/a	yellow
309.2177	1.0167	ITI	n/a	n/a	n/a	n/a	n/a	n/a	n/a	n/a
310.2344	0.5167	FIXCROSS	n/a	n/a	n/a	n/a	n/a	n/a	n/a	n/a
310.7511	0.8167	COLOR_NAME	17	Neutral	niebieski	blue	Neutral	Neutral	hit	n/a
311.5405	n/a	RESPONSE	n/a	n/a	n/a	n/a	n/a	n/a	n/a	blue
311.5677	1.0167	ITI	n/a	n/a	n/a	n/a	n/a	n/a	n/a	n/a
312.5844	0.5167	FIXCROSS	n/a	n/a	n/a	n/a	n/a	n/a	n/a	n/a
313.1011	0.6333	COLOR_NAME	18	Neutral	żółty	yellow	Neutral	Neutral	hit	n/a
313.716	n/a	RESPONSE	n/a	n/a	n/a	n/a	n/a	n/a	n/a	yellow
313.7344	1.0167	ITI	n/a	n/a	n/a	n/a	n/a	n/a	n/a	n/a
314.7511	0.5167	FIXCROSS	n/a	n/a	n/a	n/a	n/a	n/a	n/a	n/a
315.2678	0.6	COLOR_NAME	19	Neutral	żółty	yellow	Neutral	Neutral	hit	n/a
315.8434	n/a	RESPONSE	n/a	n/a	n/a	n/a	n/a	n/a	n/a	yellow
315.8678	1.0167	ITI	n/a	n/a	n/a	n/a	n/a	n/a	n/a	n/a
316.8844	0.5167	FIXCROSS	n/a	n/a	n/a	n/a	n/a	n/a	n/a	n/a
317.4011	0.7667	COLOR_NAME	20	Neutral	czerwony	red	Neutral	Neutral	hit	n/a
318.1469	n/a	RESPONSE	n/a	n/a	n/a	n/a	n/a	n/a	n/a	red
318.1678	1.0167	ITI	n/a	n/a	n/a	n/a	n/a	n/a	n/a	n/a
319.1844	0.5167	FIXCROSS	n/a	n/a	n/a	n/a	n/a	n/a	n/a	n/a
319.7011	0.8	COLOR_NAME	21	Neutral	zielony	green	Neutral	Neutral	hit	n/a
320.4823	n/a	RESPONSE	n/a	n/a	n/a	n/a	n/a	n/a	n/a	green
320.5011	1.0167	ITI	n/a	n/a	n/a	n/a	n/a	n/a	n/a	n/a
321.5178	0.5167	FIXCROSS	n/a	n/a	n/a	n/a	n/a	n/a	n/a	n/a
322.0345	0.7333	COLOR_NAME	22	Incongruent	zielony	green	niebieski	blue	hit	n/a
322.7378	n/a	RESPONSE	n/a	n/a	n/a	n/a	n/a	n/a	n/a	green
322.7678	1.0167	ITI	n/a	n/a	n/a	n/a	n/a	n/a	n/a	n/a
323.7845	0.5167	FIXCROSS	n/a	n/a	n/a	n/a	n/a	n/a	n/a	n/a
324.3012	0.7833	COLOR_NAME	23	Incongruent	zielony	green	żółty	yellow	hit	n/a
325.0572	n/a	RESPONSE	n/a	n/a	n/a	n/a	n/a	n/a	n/a	green
325.0845	1.0167	ITI	n/a	n/a	n/a	n/a	n/a	n/a	n/a	n/a
326.1012	0.5167	FIXCROSS	n/a	n/a	n/a	n/a	n/a	n/a	n/a	n/a
326.6178	0.6167	COLOR_NAME	24	Incongruent	zielony	green	żółty	yellow	hit	n/a
327.2167	n/a	RESPONSE	n/a	n/a	n/a	n/a	n/a	n/a	n/a	green
327.2345	1.0167	ITI	n/a	n/a	n/a	n/a	n/a	n/a	n/a	n/a
328.2512	0.5167	FIXCROSS	n/a	n/a	n/a	n/a	n/a	n/a	n/a	n/a
328.7678	0.8833	COLOR_NAME	25	Incongruent	niebieski	blue	czerwony	red	hit	n/a
329.6321	n/a	RESPONSE	n/a	n/a	n/a	n/a	n/a	n/a	n/a	blue
329.6512	1.0167	ITI	n/a	n/a	n/a	n/a	n/a	n/a	n/a	n/a
330.6678	0.5167	FIXCROSS	n/a	n/a	n/a	n/a	n/a	n/a	n/a	n/a
331.1845	0.8167	COLOR_NAME	26	Neutral	niebieski	blue	Neutral	Neutral	hit	n/a
331.9835	n/a	RESPONSE	n/a	n/a	n/a	n/a	n/a	n/a	n/a	blue
332.0012	1.0167	ITI	n/a	n/a	n/a	n/a	n/a	n/a	n/a	n/a
333.0179	0.5167	FIXCROSS	n/a	n/a	n/a	n/a	n/a	n/a	n/a	n/a
333.5345	0.6833	COLOR_NAME	27	Incongruent	czerwony	red	żółty	yellow	hit	n/a
334.191	n/a	RESPONSE	n/a	n/a	n/a	n/a	n/a	n/a	n/a	red
334.2179	1.0167	ITI	n/a	n/a	n/a	n/a	n/a	n/a	n/a	n/a
335.2345	0.5167	FIXCROSS	n/a	n/a	n/a	n/a	n/a	n/a	n/a	n/a
335.7512	0.8333	COLOR_NAME	28	Neutral	zielony	green	Neutral	Neutral	hit	n/a
336.5584	n/a	RESPONSE	n/a	n/a	n/a	n/a	n/a	n/a	n/a	green
336.5846	1.0167	ITI	n/a	n/a	n/a	n/a	n/a	n/a	n/a	n/a
337.6012	0.5167	FIXCROSS	n/a	n/a	n/a	n/a	n/a	n/a	n/a	n/a
338.1179	0.8333	COLOR_NAME	29	Neutral	niebieski	blue	Neutral	Neutral	hit	n/a
338.9259	n/a	RESPONSE	n/a	n/a	n/a	n/a	n/a	n/a	n/a	blue
338.9512	1.0167	ITI	n/a	n/a	n/a	n/a	n/a	n/a	n/a	n/a
339.9679	0.5167	FIXCROSS	n/a	n/a	n/a	n/a	n/a	n/a	n/a	n/a
340.4846	0.7833	COLOR_NAME	30	Neutral	żółty	yellow	Neutral	Neutral	hit	n/a
341.2453	n/a	RESPONSE	n/a	n/a	n/a	n/a	n/a	n/a	n/a	yellow
341.2679	1.0167	ITI	n/a	n/a	n/a	n/a	n/a	n/a	n/a	n/a
342.2846	0.5167	FIXCROSS	n/a	n/a	n/a	n/a	n/a	n/a	n/a	n/a
342.8013	0.7667	COLOR_NAME	31	Incongruent	czerwony	red	żółty	yellow	hit	n/a
343.5488	n/a	RESPONSE	n/a	n/a	n/a	n/a	n/a	n/a	n/a	red
343.5679	1.0167	ITI	n/a	n/a	n/a	n/a	n/a	n/a	n/a	n/a
344.5846	0.5167	FIXCROSS	n/a	n/a	n/a	n/a	n/a	n/a	n/a	n/a
345.1013	0.8167	COLOR_NAME	32	Neutral	zielony	green	Neutral	Neutral	hit	n/a
345.9002	n/a	RESPONSE	n/a	n/a	n/a	n/a	n/a	n/a	n/a	green
345.9179	1.0167	ITI	n/a	n/a	n/a	n/a	n/a	n/a	n/a	n/a
346.9346	0.5167	FIXCROSS	n/a	n/a	n/a	n/a	n/a	n/a	n/a	n/a
347.4513	0.5667	COLOR_NAME	33	Neutral	zielony	green	Neutral	Neutral	hit	n/a
347.9957	n/a	RESPONSE	n/a	n/a	n/a	n/a	n/a	n/a	n/a	green
348.0179	1.0167	ITI	n/a	n/a	n/a	n/a	n/a	n/a	n/a	n/a
349.0346	0.5167	FIXCROSS	n/a	n/a	n/a	n/a	n/a	n/a	n/a	n/a
349.5513	0.8	COLOR_NAME	34	Incongruent	żółty	yellow	zielony	green	hit	n/a
350.3311	n/a	RESPONSE	n/a	n/a	n/a	n/a	n/a	n/a	n/a	yellow
350.3513	1.0167	ITI	n/a	n/a	n/a	n/a	n/a	n/a	n/a	n/a
351.368	0.5167	FIXCROSS	n/a	n/a	n/a	n/a	n/a	n/a	n/a	n/a
351.8846	0.8333	COLOR_NAME	35	Incongruent	zielony	green	czerwony	red	hit	n/a
352.6986	n/a	RESPONSE	n/a	n/a	n/a	n/a	n/a	n/a	n/a	green
352.718	1.0167	ITI	n/a	n/a	n/a	n/a	n/a	n/a	n/a	n/a
353.7346	0.5167	FIXCROSS	n/a	n/a	n/a	n/a	n/a	n/a	n/a	n/a
354.2513	0.8	COLOR_NAME	36	Neutral	żółty	yellow	Neutral	Neutral	hit	n/a
355.034	n/a	RESPONSE	n/a	n/a	n/a	n/a	n/a	n/a	n/a	yellow
355.0513	1.0167	ITI	n/a	n/a	n/a	n/a	n/a	n/a	n/a	n/a
356.068	0.5167	FIXCROSS	n/a	n/a	n/a	n/a	n/a	n/a	n/a	n/a
356.5847	0.6833	COLOR_NAME	37	Incongruent	czerwony	red	niebieski	blue	hit	n/a
357.2415	n/a	RESPONSE	n/a	n/a	n/a	n/a	n/a	n/a	n/a	red
357.268	1.0167	ITI	n/a	n/a	n/a	n/a	n/a	n/a	n/a	n/a
358.2847	0.5167	FIXCROSS	n/a	n/a	n/a	n/a	n/a	n/a	n/a	n/a
358.8013	0.8833	COLOR_NAME	38	Incongruent	niebieski	blue	zielony	green	hit	n/a
359.6569	n/a	RESPONSE	n/a	n/a	n/a	n/a	n/a	n/a	n/a	blue
359.6847	1.0167	ITI	n/a	n/a	n/a	n/a	n/a	n/a	n/a	n/a
360.7014	0.5167	FIXCROSS	n/a	n/a	n/a	n/a	n/a	n/a	n/a	n/a
361.218	0.85	COLOR_NAME	39	Incongruent	żółty	yellow	zielony	green	hit	n/a
362.0403	n/a	RESPONSE	n/a	n/a	n/a	n/a	n/a	n/a	n/a	yellow
362.068	1.0167	ITI	n/a	n/a	n/a	n/a	n/a	n/a	n/a	n/a
363.0847	0.5167	FIXCROSS	n/a	n/a	n/a	n/a	n/a	n/a	n/a	n/a
363.6014	0.75	COLOR_NAME	40	Neutral	zielony	green	Neutral	Neutral	hit	n/a
364.3277	n/a	RESPONSE	n/a	n/a	n/a	n/a	n/a	n/a	n/a	green
364.3514	1.0167	ITI	n/a	n/a	n/a	n/a	n/a	n/a	n/a	n/a
365.3681	0.5167	FIXCROSS	n/a	n/a	n/a	n/a	n/a	n/a	n/a	n/a
365.8847	0.7	COLOR_NAME	41	Neutral	czerwony	red	Neutral	Neutral	hit	n/a
366.5672	n/a	RESPONSE	n/a	n/a	n/a	n/a	n/a	n/a	n/a	red
366.5847	1.0167	ITI	n/a	n/a	n/a	n/a	n/a	n/a	n/a	n/a
367.6014	0.5167	FIXCROSS	n/a	n/a	n/a	n/a	n/a	n/a	n/a	n/a
368.1181	0.7	COLOR_NAME	42	Incongruent	zielony	green	niebieski	blue	hit	n/a
368.7907	n/a	RESPONSE	n/a	n/a	n/a	n/a	n/a	n/a	n/a	green
368.8181	1.0167	ITI	n/a	n/a	n/a	n/a	n/a	n/a	n/a	n/a
369.8347	0.5167	FIXCROSS	n/a	n/a	n/a	n/a	n/a	n/a	n/a	n/a
370.3514	0.75	COLOR_NAME	43	Incongruent	żółty	yellow	zielony	green	hit	n/a
371.0781	n/a	RESPONSE	n/a	n/a	n/a	n/a	n/a	n/a	n/a	yellow
371.1014	1.0167	ITI	n/a	n/a	n/a	n/a	n/a	n/a	n/a	n/a
372.1181	0.5167	FIXCROSS	n/a	n/a	n/a	n/a	n/a	n/a	n/a	n/a
372.6348	0.6667	COLOR_NAME	44	Neutral	czerwony	red	Neutral	Neutral	hit	n/a
373.2696	n/a	RESPONSE	n/a	n/a	n/a	n/a	n/a	n/a	n/a	red
373.3014	1.0167	ITI	n/a	n/a	n/a	n/a	n/a	n/a	n/a	n/a
374.3181	0.5167	FIXCROSS	n/a	n/a	n/a	n/a	n/a	n/a	n/a	n/a
374.8348	1.0	COLOR_NAME	45	Incongruent	czerwony	red	żółty	yellow	hit	n/a
375.813	n/a	RESPONSE	n/a	n/a	n/a	n/a	n/a	n/a	n/a	red
375.8348	1.0167	ITI	n/a	n/a	n/a	n/a	n/a	n/a	n/a	n/a
376.8515	0.5167	FIXCROSS	n/a	n/a	n/a	n/a	n/a	n/a	n/a	n/a
377.3681	0.9	COLOR_NAME	46	Incongruent	żółty	yellow	niebieski	blue	hit	n/a
378.2444	n/a	RESPONSE	n/a	n/a	n/a	n/a	n/a	n/a	n/a	yellow
378.2681	1.0167	ITI	n/a	n/a	n/a	n/a	n/a	n/a	n/a	n/a
379.2848	0.5167	FIXCROSS	n/a	n/a	n/a	n/a	n/a	n/a	n/a	n/a
379.8015	0.9	COLOR_NAME	47	Incongruent	zielony	green	czerwony	red	hit	n/a
380.6758	n/a	RESPONSE	n/a	n/a	n/a	n/a	n/a	n/a	n/a	green
380.7015	1.0167	ITI	n/a	n/a	n/a	n/a	n/a	n/a	n/a	n/a
381.7181	0.5167	FIXCROSS	n/a	n/a	n/a	n/a	n/a	n/a	n/a	n/a
382.2348	0.7	COLOR_NAME	48	Neutral	niebieski	blue	Neutral	Neutral	hit	n/a
382.9152	n/a	RESPONSE	n/a	n/a	n/a	n/a	n/a	n/a	n/a	blue
382.9348	1.0167	ITI	n/a	n/a	n/a	n/a	n/a	n/a	n/a	n/a
383.9515	0.5167	FIXCROSS	n/a	n/a	n/a	n/a	n/a	n/a	n/a	n/a
384.4682	0.7167	COLOR_NAME	49	Incongruent	zielony	green	czerwony	red	hit	n/a
385.1547	n/a	RESPONSE	n/a	n/a	n/a	n/a	n/a	n/a	n/a	green
385.1848	1.0167	ITI	n/a	n/a	n/a	n/a	n/a	n/a	n/a	n/a
386.2015	0.5167	FIXCROSS	n/a	n/a	n/a	n/a	n/a	n/a	n/a	n/a
386.7182	0.85	COLOR_NAME	50	Incongruent	żółty	yellow	czerwony	red	hit	n/a
387.5381	n/a	RESPONSE	n/a	n/a	n/a	n/a	n/a	n/a	n/a	yellow
387.5682	1.0167	ITI	n/a	n/a	n/a	n/a	n/a	n/a	n/a	n/a
388.5849	0.5167	FIXCROSS	n/a	n/a	n/a	n/a	n/a	n/a	n/a	n/a
389.1015	0.6333	COLOR_NAME	51	Neutral	czerwony	red	Neutral	Neutral	hit	n/a
389.7136	n/a	RESPONSE	n/a	n/a	n/a	n/a	n/a	n/a	n/a	red
389.7349	1.0167	ITI	n/a	n/a	n/a	n/a	n/a	n/a	n/a	n/a
390.7515	0.5167	FIXCROSS	n/a	n/a	n/a	n/a	n/a	n/a	n/a	n/a
391.2682	0.7333	COLOR_NAME	52	Incongruent	niebieski	blue	żółty	yellow	hit	n/a
391.9691	n/a	RESPONSE	n/a	n/a	n/a	n/a	n/a	n/a	n/a	blue
392.0015	1.0167	ITI	n/a	n/a	n/a	n/a	n/a	n/a	n/a	n/a
393.0182	0.5167	FIXCROSS	n/a	n/a	n/a	n/a	n/a	n/a	n/a	n/a
393.5349	1.2	COLOR_NAME	53	Incongruent	czerwony	red	zielony	green	hit	n/a
394.7044	n/a	RESPONSE	n/a	n/a	n/a	n/a	n/a	n/a	n/a	red
394.7349	1.0167	ITI	n/a	n/a	n/a	n/a	n/a	n/a	n/a	n/a
395.7516	0.5167	FIXCROSS	n/a	n/a	n/a	n/a	n/a	n/a	n/a	n/a
396.2682	0.75	COLOR_NAME	54	Neutral	żółty	yellow	Neutral	Neutral	hit	n/a
396.9919	n/a	RESPONSE	n/a	n/a	n/a	n/a	n/a	n/a	n/a	yellow
397.0182	1.0167	ITI	n/a	n/a	n/a	n/a	n/a	n/a	n/a	n/a
398.0349	0.5167	FIXCROSS	n/a	n/a	n/a	n/a	n/a	n/a	n/a	n/a
398.5516	0.6833	COLOR_NAME	55	Incongruent	czerwony	red	zielony	green	hit	n/a
399.2153	n/a	RESPONSE	n/a	n/a	n/a	n/a	n/a	n/a	n/a	red
399.2349	1.0167	ITI	n/a	n/a	n/a	n/a	n/a	n/a	n/a	n/a
400.2516	0.5167	FIXCROSS	n/a	n/a	n/a	n/a	n/a	n/a	n/a	n/a
400.7683	0.75	COLOR_NAME	56	Neutral	niebieski	blue	Neutral	Neutral	hit	n/a
401.4868	n/a	RESPONSE	n/a	n/a	n/a	n/a	n/a	n/a	n/a	blue
401.5183	1.0167	ITI	n/a	n/a	n/a	n/a	n/a	n/a	n/a	n/a
402.5349	0.5167	FIXCROSS	n/a	n/a	n/a	n/a	n/a	n/a	n/a	n/a
403.0516	0.7833	COLOR_NAME	57	Incongruent	niebieski	blue	zielony	green	hit	n/a
403.8062	n/a	RESPONSE	n/a	n/a	n/a	n/a	n/a	n/a	n/a	blue
403.835	1.0167	ITI	n/a	n/a	n/a	n/a	n/a	n/a	n/a	n/a
404.8516	0.5167	FIXCROSS	n/a	n/a	n/a	n/a	n/a	n/a	n/a	n/a
405.3683	0.8167	COLOR_NAME	58	Incongruent	niebieski	blue	zielony	green	hit	n/a
406.1576	n/a	RESPONSE	n/a	n/a	n/a	n/a	n/a	n/a	n/a	blue
406.185	1.0167	ITI	n/a	n/a	n/a	n/a	n/a	n/a	n/a	n/a
407.2016	0.5167	FIXCROSS	n/a	n/a	n/a	n/a	n/a	n/a	n/a	n/a
407.7183	0.7	COLOR_NAME	59	Incongruent	czerwony	red	niebieski	blue	hit	n/a
408.3971	n/a	RESPONSE	n/a	n/a	n/a	n/a	n/a	n/a	n/a	red
408.4183	1.0167	ITI	n/a	n/a	n/a	n/a	n/a	n/a	n/a	n/a
409.435	0.5167	FIXCROSS	n/a	n/a	n/a	n/a	n/a	n/a	n/a	n/a
409.9517	0.55	COLOR_NAME	60	Neutral	czerwony	red	Neutral	Neutral	hit	n/a
410.4766	n/a	RESPONSE	n/a	n/a	n/a	n/a	n/a	n/a	n/a	red
410.5017	1.0167	ITI	n/a	n/a	n/a	n/a	n/a	n/a	n/a	n/a
411.5183	0.5167	FIXCROSS	n/a	n/a	n/a	n/a	n/a	n/a	n/a	n/a
412.035	0.8667	COLOR_NAME	61	Incongruent	niebieski	blue	żółty	yellow	hit	n/a
412.8759	n/a	RESPONSE	n/a	n/a	n/a	n/a	n/a	n/a	n/a	blue
412.9017	1.0167	ITI	n/a	n/a	n/a	n/a	n/a	n/a	n/a	n/a
413.9184	0.5167	FIXCROSS	n/a	n/a	n/a	n/a	n/a	n/a	n/a	n/a
414.435	0.6167	COLOR_NAME	62	Neutral	czerwony	red	Neutral	Neutral	hit	n/a
415.0195	n/a	RESPONSE	n/a	n/a	n/a	n/a	n/a	n/a	n/a	red
415.0517	1.0167	ITI	n/a	n/a	n/a	n/a	n/a	n/a	n/a	n/a
416.0684	0.5167	FIXCROSS	n/a	n/a	n/a	n/a	n/a	n/a	n/a	n/a
416.585	0.55	COLOR_NAME	63	Incongruent	czerwony	red	niebieski	blue	hit	n/a
417.115	n/a	RESPONSE	n/a	n/a	n/a	n/a	n/a	n/a	n/a	red
417.135	1.0167	ITI	n/a	n/a	n/a	n/a	n/a	n/a	n/a	n/a
418.1517	0.5167	FIXCROSS	n/a	n/a	n/a	n/a	n/a	n/a	n/a	n/a
418.6684	0.7333	COLOR_NAME	64	Incongruent	żółty	yellow	czerwony	red	hit	n/a
419.3704	n/a	RESPONSE	n/a	n/a	n/a	n/a	n/a	n/a	n/a	yellow
419.4017	1.0167	ITI	n/a	n/a	n/a	n/a	n/a	n/a	n/a	n/a
420.4184	0.5167	FIXCROSS	n/a	n/a	n/a	n/a	n/a	n/a	n/a	n/a
420.935	0.8834	COLOR_NAME	65	Neutral	zielony	green	Neutral	Neutral	hit	n/a
421.7859	n/a	RESPONSE	n/a	n/a	n/a	n/a	n/a	n/a	n/a	green
421.8184	1.0167	ITI	n/a	n/a	n/a	n/a	n/a	n/a	n/a	n/a
422.8351	0.5167	FIXCROSS	n/a	n/a	n/a	n/a	n/a	n/a	n/a	n/a
423.3517	0.7667	COLOR_NAME	66	Neutral	żółty	yellow	Neutral	Neutral	hit	n/a
424.0893	n/a	RESPONSE	n/a	n/a	n/a	n/a	n/a	n/a	n/a	yellow
424.1184	1.0167	ITI	n/a	n/a	n/a	n/a	n/a	n/a	n/a	n/a
425.1351	0.5167	FIXCROSS	n/a	n/a	n/a	n/a	n/a	n/a	n/a	n/a
425.6518	0.8333	COLOR_NAME	67	Incongruent	żółty	yellow	czerwony	red	hit	n/a
426.4567	n/a	RESPONSE	n/a	n/a	n/a	n/a	n/a	n/a	n/a	yellow
426.4851	1.0167	ITI	n/a	n/a	n/a	n/a	n/a	n/a	n/a	n/a
427.5018	0.5167	FIXCROSS	n/a	n/a	n/a	n/a	n/a	n/a	n/a	n/a
428.0184	0.8333	COLOR_NAME	68	Incongruent	żółty	yellow	niebieski	blue	hit	n/a
428.8242	n/a	RESPONSE	n/a	n/a	n/a	n/a	n/a	n/a	n/a	yellow
428.8518	1.0167	ITI	n/a	n/a	n/a	n/a	n/a	n/a	n/a	n/a
429.8684	0.5167	FIXCROSS	n/a	n/a	n/a	n/a	n/a	n/a	n/a	n/a
430.3851	0.6333	COLOR_NAME	69	Neutral	czerwony	red	Neutral	Neutral	hit	n/a
430.9997	n/a	RESPONSE	n/a	n/a	n/a	n/a	n/a	n/a	n/a	red
431.0184	1.0167	ITI	n/a	n/a	n/a	n/a	n/a	n/a	n/a	n/a
432.0351	0.5167	FIXCROSS	n/a	n/a	n/a	n/a	n/a	n/a	n/a	n/a
432.5518	0.7167	COLOR_NAME	70	Neutral	czerwony	red	Neutral	Neutral	hit	n/a
433.2391	n/a	RESPONSE	n/a	n/a	n/a	n/a	n/a	n/a	n/a	red
433.2685	1.0167	ITI	n/a	n/a	n/a	n/a	n/a	n/a	n/a	n/a
434.2851	0.5167	FIXCROSS	n/a	n/a	n/a	n/a	n/a	n/a	n/a	n/a
434.8018	0.6334	COLOR_NAME	71	Incongruent	czerwony	red	zielony	green	hit	n/a
435.4145	n/a	RESPONSE	n/a	n/a	n/a	n/a	n/a	n/a	n/a	red
435.4352	1.0167	ITI	n/a	n/a	n/a	n/a	n/a	n/a	n/a	n/a
436.4518	0.5167	FIXCROSS	n/a	n/a	n/a	n/a	n/a	n/a	n/a	n/a
436.9685	0.7833	COLOR_NAME	72	Incongruent	niebieski	blue	czerwony	red	hit	n/a
437.718	n/a	RESPONSE	n/a	n/a	n/a	n/a	n/a	n/a	n/a	blue
437.7518	1.0333	ITI	n/a	n/a	n/a	n/a	n/a	n/a	n/a	n/a
440.9652	n/a	RESPONSE	n/a	n/a	n/a	n/a	n/a	n/a	n/a	n/a
