onset	duration	trial_type	trial_number	stroop_condition	stim_text(PL)	stim_text(eng)	stim_color(PL)	stim_color(eng)	response_type	response_color
0.0	n/a	RESPONSE	n/a	n/a	n/a	n/a	n/a	n/a	n/a	n/a
0.0628	1.0334	ITI	n/a	n/a	n/a	n/a	n/a	n/a	n/a	n/a
1.0962	0.5167	FIXCROSS	n/a	n/a	n/a	n/a	n/a	n/a	n/a	n/a
1.6128	1.35	T_INK	1	Neutral	xxxxxxxxx	xxxxxxxxx	zielony	green	hit	n/a
2.9274	n/a	RESPONSE	n/a	n/a	n/a	n/a	n/a	n/a	n/a	green
2.9628	0.5167	FEEDBACK	n/a	n/a	n/a	n/a	n/a	n/a	n/a	n/a
3.4795	1.0167	ITI	n/a	n/a	n/a	n/a	n/a	n/a	n/a	n/a
4.4962	0.5167	FIXCROSS	n/a	n/a	n/a	n/a	n/a	n/a	n/a	n/a
5.0128	0.8833	T_INK	2	Neutral	xxxxxxxxx	xxxxxxxxx	żółty	yellow	hit	n/a
5.8708	n/a	RESPONSE	n/a	n/a	n/a	n/a	n/a	n/a	n/a	yellow
5.8962	0.5167	FEEDBACK	n/a	n/a	n/a	n/a	n/a	n/a	n/a	n/a
6.4128	1.0167	ITI	n/a	n/a	n/a	n/a	n/a	n/a	n/a	n/a
7.4295	0.5167	FIXCROSS	n/a	n/a	n/a	n/a	n/a	n/a	n/a	n/a
7.9462	0.5833	T_INK	3	Neutral	xxxxxxxxx	xxxxxxxxx	czerwony	red	hit	n/a
8.5102	n/a	RESPONSE	n/a	n/a	n/a	n/a	n/a	n/a	n/a	red
8.5295	0.5167	FEEDBACK	n/a	n/a	n/a	n/a	n/a	n/a	n/a	n/a
9.0462	1.0167	ITI	n/a	n/a	n/a	n/a	n/a	n/a	n/a	n/a
10.0629	0.5167	FIXCROSS	n/a	n/a	n/a	n/a	n/a	n/a	n/a	n/a
10.5795	0.65	T_INK	4	Neutral	xxxxxxx	xxxxxxx	żółty	yellow	hit	n/a
11.1977	n/a	RESPONSE	n/a	n/a	n/a	n/a	n/a	n/a	n/a	yellow
11.2295	0.5167	FEEDBACK	n/a	n/a	n/a	n/a	n/a	n/a	n/a	n/a
11.7462	1.0167	ITI	n/a	n/a	n/a	n/a	n/a	n/a	n/a	n/a
12.7629	0.5167	FIXCROSS	n/a	n/a	n/a	n/a	n/a	n/a	n/a	n/a
13.2796	0.8	T_INK	5	Neutral	xxxxx	xxxxx	zielony	green	hit	n/a
14.0451	n/a	RESPONSE	n/a	n/a	n/a	n/a	n/a	n/a	n/a	green
14.0796	0.5167	FEEDBACK	n/a	n/a	n/a	n/a	n/a	n/a	n/a	n/a
14.5962	1.0167	ITI	n/a	n/a	n/a	n/a	n/a	n/a	n/a	n/a
15.6129	0.5167	FIXCROSS	n/a	n/a	n/a	n/a	n/a	n/a	n/a	n/a
16.1296	1.3333	T_INK	6	Incongruent	niebieski	blue	zielony	green	hit	n/a
17.4363	n/a	RESPONSE	n/a	n/a	n/a	n/a	n/a	n/a	n/a	green
17.4629	0.5167	FEEDBACK	n/a	n/a	n/a	n/a	n/a	n/a	n/a	n/a
17.9796	1.0167	ITI	n/a	n/a	n/a	n/a	n/a	n/a	n/a	n/a
18.9963	0.5167	FIXCROSS	n/a	n/a	n/a	n/a	n/a	n/a	n/a	n/a
19.5129	0.85	T_INK	7	Incongruent	czerwony	red	żółty	yellow	hit	n/a
20.3317	n/a	RESPONSE	n/a	n/a	n/a	n/a	n/a	n/a	n/a	yellow
20.3629	0.5167	FEEDBACK	n/a	n/a	n/a	n/a	n/a	n/a	n/a	n/a
20.8796	1.0167	ITI	n/a	n/a	n/a	n/a	n/a	n/a	n/a	n/a
21.8963	0.5167	FIXCROSS	n/a	n/a	n/a	n/a	n/a	n/a	n/a	n/a
22.413	1.5167	T_INK	8	Incongruent	żółty	yellow	czerwony	red	hit	n/a
23.899	n/a	RESPONSE	n/a	n/a	n/a	n/a	n/a	n/a	n/a	red
23.9296	0.5167	FEEDBACK	n/a	n/a	n/a	n/a	n/a	n/a	n/a	n/a
24.4463	1.0167	ITI	n/a	n/a	n/a	n/a	n/a	n/a	n/a	n/a
25.463	0.5167	FIXCROSS	n/a	n/a	n/a	n/a	n/a	n/a	n/a	n/a
25.9797	0.8333	T_INK	9	Neutral	xxxxxxx	xxxxxxx	niebieski	blue	hit	n/a
26.7784	n/a	RESPONSE	n/a	n/a	n/a	n/a	n/a	n/a	n/a	blue
26.813	0.5167	FEEDBACK	n/a	n/a	n/a	n/a	n/a	n/a	n/a	n/a
27.3297	1.0167	ITI	n/a	n/a	n/a	n/a	n/a	n/a	n/a	n/a
28.3463	0.5167	FIXCROSS	n/a	n/a	n/a	n/a	n/a	n/a	n/a	n/a
28.863	1.1333	T_INK	10	Incongruent	czerwony	red	niebieski	blue	hit	n/a
29.9617	n/a	RESPONSE	n/a	n/a	n/a	n/a	n/a	n/a	n/a	blue
29.9963	0.5167	FEEDBACK	n/a	n/a	n/a	n/a	n/a	n/a	n/a	n/a
30.513	1.0167	ITI	n/a	n/a	n/a	n/a	n/a	n/a	n/a	n/a
31.5297	0.5167	FIXCROSS	n/a	n/a	n/a	n/a	n/a	n/a	n/a	n/a
32.0464	1.25	T_INK	11	Neutral	xxxxx	xxxxx	czerwony	red	hit	n/a
33.273	n/a	RESPONSE	n/a	n/a	n/a	n/a	n/a	n/a	n/a	red
33.2964	0.5167	FEEDBACK	n/a	n/a	n/a	n/a	n/a	n/a	n/a	n/a
33.813	1.0167	ITI	n/a	n/a	n/a	n/a	n/a	n/a	n/a	n/a
34.8297	0.5167	FIXCROSS	n/a	n/a	n/a	n/a	n/a	n/a	n/a	n/a
35.3464	1.5333	T_INK	12	Neutral	xxxxxxx	xxxxxxx	czerwony	red	hit	n/a
36.8563	n/a	RESPONSE	n/a	n/a	n/a	n/a	n/a	n/a	n/a	red
36.8797	0.5167	FEEDBACK	n/a	n/a	n/a	n/a	n/a	n/a	n/a	n/a
37.3964	1.0333	ITI	n/a	n/a	n/a	n/a	n/a	n/a	n/a	n/a
40.7754	n/a	RESPONSE	n/a	n/a	n/a	n/a	n/a	n/a	n/a	n/a
40.8298	1.0167	ITI	n/a	n/a	n/a	n/a	n/a	n/a	n/a	n/a
41.8464	0.5167	FIXCROSS	n/a	n/a	n/a	n/a	n/a	n/a	n/a	n/a
42.3631	0.75	INK	1	Neutral	xxxxxxxxx	xxxxxxxxx	czerwony	red	hit	n/a
43.0949	n/a	RESPONSE	n/a	n/a	n/a	n/a	n/a	n/a	n/a	red
43.1131	1.0167	ITI	n/a	n/a	n/a	n/a	n/a	n/a	n/a	n/a
44.1298	0.5167	FIXCROSS	n/a	n/a	n/a	n/a	n/a	n/a	n/a	n/a
44.6465	0.7	INK	2	Neutral	xxxxx	xxxxx	zielony	green	hit	n/a
45.3185	n/a	RESPONSE	n/a	n/a	n/a	n/a	n/a	n/a	n/a	green
45.3465	1.0167	ITI	n/a	n/a	n/a	n/a	n/a	n/a	n/a	n/a
46.3631	0.5167	FIXCROSS	n/a	n/a	n/a	n/a	n/a	n/a	n/a	n/a
46.8798	0.6167	INK	3	Neutral	xxxxxxxxx	xxxxxxxxx	czerwony	red	hit	n/a
47.478	n/a	RESPONSE	n/a	n/a	n/a	n/a	n/a	n/a	n/a	red
47.4965	1.0167	ITI	n/a	n/a	n/a	n/a	n/a	n/a	n/a	n/a
48.5131	0.5167	FIXCROSS	n/a	n/a	n/a	n/a	n/a	n/a	n/a	n/a
49.0298	0.7333	INK	4	Neutral	xxxxxxxx	xxxxxxxx	niebieski	blue	hit	n/a
49.7336	n/a	RESPONSE	n/a	n/a	n/a	n/a	n/a	n/a	n/a	blue
49.7632	1.0167	ITI	n/a	n/a	n/a	n/a	n/a	n/a	n/a	n/a
50.7798	0.5167	FIXCROSS	n/a	n/a	n/a	n/a	n/a	n/a	n/a	n/a
51.2965	0.3999	INK	5	Neutral	xxxxxxxx	xxxxxxxx	żółty	yellow	hit	n/a
51.6691	n/a	RESPONSE	n/a	n/a	n/a	n/a	n/a	n/a	n/a	yellow
51.6964	1.0167	ITI	n/a	n/a	n/a	n/a	n/a	n/a	n/a	n/a
52.7132	0.5167	FIXCROSS	n/a	n/a	n/a	n/a	n/a	n/a	n/a	n/a
53.2298	0.6667	INK	6	Neutral	xxxxxxx	xxxxxxx	czerwony	red	hit	n/a
53.8767	n/a	RESPONSE	n/a	n/a	n/a	n/a	n/a	n/a	n/a	red
53.8965	1.0167	ITI	n/a	n/a	n/a	n/a	n/a	n/a	n/a	n/a
54.9132	0.5167	FIXCROSS	n/a	n/a	n/a	n/a	n/a	n/a	n/a	n/a
55.4299	1.0333	INK	7	Incongruent	niebieski	blue	czerwony	red	hit	n/a
56.4361	n/a	RESPONSE	n/a	n/a	n/a	n/a	n/a	n/a	n/a	red
56.4632	1.0167	ITI	n/a	n/a	n/a	n/a	n/a	n/a	n/a	n/a
57.4799	0.5167	FIXCROSS	n/a	n/a	n/a	n/a	n/a	n/a	n/a	n/a
57.9965	0.9333	INK	8	Incongruent	żółty	yellow	zielony	green	hit	n/a
58.8996	n/a	RESPONSE	n/a	n/a	n/a	n/a	n/a	n/a	n/a	green
58.9299	1.0167	ITI	n/a	n/a	n/a	n/a	n/a	n/a	n/a	n/a
59.9466	0.5167	FIXCROSS	n/a	n/a	n/a	n/a	n/a	n/a	n/a	n/a
60.4632	0.75	INK	9	Neutral	xxxxxxx	xxxxxxx	czerwony	red	hit	n/a
61.1872	n/a	RESPONSE	n/a	n/a	n/a	n/a	n/a	n/a	n/a	red
61.2132	1.0167	ITI	n/a	n/a	n/a	n/a	n/a	n/a	n/a	n/a
62.2299	0.5167	FIXCROSS	n/a	n/a	n/a	n/a	n/a	n/a	n/a	n/a
62.7466	0.7	INK	10	Incongruent	zielony	green	żółty	yellow	hit	n/a
63.4267	n/a	RESPONSE	n/a	n/a	n/a	n/a	n/a	n/a	n/a	yellow
63.4466	1.0167	ITI	n/a	n/a	n/a	n/a	n/a	n/a	n/a	n/a
64.4632	0.5167	FIXCROSS	n/a	n/a	n/a	n/a	n/a	n/a	n/a	n/a
64.9799	0.5333	INK	11	Neutral	xxxxxxx	xxxxxxx	żółty	yellow	hit	n/a
65.4902	n/a	RESPONSE	n/a	n/a	n/a	n/a	n/a	n/a	n/a	yellow
65.5133	1.0167	ITI	n/a	n/a	n/a	n/a	n/a	n/a	n/a	n/a
66.5299	0.5167	FIXCROSS	n/a	n/a	n/a	n/a	n/a	n/a	n/a	n/a
67.0466	0.85	INK	12	Incongruent	czerwony	red	żółty	yellow	hit	n/a
67.8737	n/a	RESPONSE	n/a	n/a	n/a	n/a	n/a	n/a	n/a	yellow
67.8966	1.0167	ITI	n/a	n/a	n/a	n/a	n/a	n/a	n/a	n/a
68.9133	0.5167	FIXCROSS	n/a	n/a	n/a	n/a	n/a	n/a	n/a	n/a
69.43	0.65	INK	13	Incongruent	niebieski	blue	żółty	yellow	hit	n/a
70.0493	n/a	RESPONSE	n/a	n/a	n/a	n/a	n/a	n/a	n/a	yellow
70.08	1.0167	ITI	n/a	n/a	n/a	n/a	n/a	n/a	n/a	n/a
71.0966	0.5167	FIXCROSS	n/a	n/a	n/a	n/a	n/a	n/a	n/a	n/a
71.6133	0.5333	INK	14	Neutral	xxxxxxxxx	xxxxxxxxx	żółty	yellow	hit	n/a
72.1288	n/a	RESPONSE	n/a	n/a	n/a	n/a	n/a	n/a	n/a	yellow
72.1466	1.0167	ITI	n/a	n/a	n/a	n/a	n/a	n/a	n/a	n/a
73.1633	0.5167	FIXCROSS	n/a	n/a	n/a	n/a	n/a	n/a	n/a	n/a
73.68	0.7667	INK	15	Neutral	xxxxxxxxx	xxxxxxxxx	zielony	green	hit	n/a
74.4163	n/a	RESPONSE	n/a	n/a	n/a	n/a	n/a	n/a	n/a	green
74.4467	1.0167	ITI	n/a	n/a	n/a	n/a	n/a	n/a	n/a	n/a
75.4633	0.5167	FIXCROSS	n/a	n/a	n/a	n/a	n/a	n/a	n/a	n/a
75.98	0.4833	INK	16	Neutral	xxxxxxxxx	xxxxxxxxx	żółty	yellow	hit	n/a
76.4319	n/a	RESPONSE	n/a	n/a	n/a	n/a	n/a	n/a	n/a	yellow
76.4633	1.0167	ITI	n/a	n/a	n/a	n/a	n/a	n/a	n/a	n/a
77.48	0.5167	FIXCROSS	n/a	n/a	n/a	n/a	n/a	n/a	n/a	n/a
77.9967	0.7333	INK	17	Neutral	xxxxx	xxxxx	czerwony	red	hit	n/a
78.7035	n/a	RESPONSE	n/a	n/a	n/a	n/a	n/a	n/a	n/a	red
78.73	1.0167	ITI	n/a	n/a	n/a	n/a	n/a	n/a	n/a	n/a
79.7467	0.5167	FIXCROSS	n/a	n/a	n/a	n/a	n/a	n/a	n/a	n/a
80.2634	0.7833	INK	18	Incongruent	zielony	green	czerwony	red	hit	n/a
81.023	n/a	RESPONSE	n/a	n/a	n/a	n/a	n/a	n/a	n/a	red
81.0467	1.0167	ITI	n/a	n/a	n/a	n/a	n/a	n/a	n/a	n/a
82.0634	0.5167	FIXCROSS	n/a	n/a	n/a	n/a	n/a	n/a	n/a	n/a
82.58	0.85	INK	19	Incongruent	czerwony	red	zielony	green	hit	n/a
83.4065	n/a	RESPONSE	n/a	n/a	n/a	n/a	n/a	n/a	n/a	green
83.43	1.0167	ITI	n/a	n/a	n/a	n/a	n/a	n/a	n/a	n/a
84.4467	0.5167	FIXCROSS	n/a	n/a	n/a	n/a	n/a	n/a	n/a	n/a
84.9634	0.8833	INK	20	Neutral	xxxxxxxxx	xxxxxxxxx	czerwony	red	hit	n/a
85.822	n/a	RESPONSE	n/a	n/a	n/a	n/a	n/a	n/a	n/a	red
85.8467	1.0167	ITI	n/a	n/a	n/a	n/a	n/a	n/a	n/a	n/a
86.8634	0.5167	FIXCROSS	n/a	n/a	n/a	n/a	n/a	n/a	n/a	n/a
87.3801	0.65	INK	21	Incongruent	zielony	green	czerwony	red	hit	n/a
87.9975	n/a	RESPONSE	n/a	n/a	n/a	n/a	n/a	n/a	n/a	red
88.0301	1.0167	ITI	n/a	n/a	n/a	n/a	n/a	n/a	n/a	n/a
89.0468	0.5167	FIXCROSS	n/a	n/a	n/a	n/a	n/a	n/a	n/a	n/a
89.5634	0.6	INK	22	Neutral	xxxxx	xxxxx	czerwony	red	hit	n/a
90.141	n/a	RESPONSE	n/a	n/a	n/a	n/a	n/a	n/a	n/a	red
90.1634	1.0167	ITI	n/a	n/a	n/a	n/a	n/a	n/a	n/a	n/a
91.1801	0.5167	FIXCROSS	n/a	n/a	n/a	n/a	n/a	n/a	n/a	n/a
91.6968	1.0333	INK	23	Incongruent	zielony	green	niebieski	blue	hit	n/a
92.7005	n/a	RESPONSE	n/a	n/a	n/a	n/a	n/a	n/a	n/a	blue
92.7301	1.0167	ITI	n/a	n/a	n/a	n/a	n/a	n/a	n/a	n/a
93.7468	0.5167	FIXCROSS	n/a	n/a	n/a	n/a	n/a	n/a	n/a	n/a
94.2634	0.9167	INK	24	Incongruent	zielony	green	czerwony	red	hit	n/a
95.148	n/a	RESPONSE	n/a	n/a	n/a	n/a	n/a	n/a	n/a	red
95.1801	1.0167	ITI	n/a	n/a	n/a	n/a	n/a	n/a	n/a	n/a
96.1968	0.5167	FIXCROSS	n/a	n/a	n/a	n/a	n/a	n/a	n/a	n/a
96.7135	0.55	INK	25	Neutral	xxxxxxx	xxxxxxx	żółty	yellow	hit	n/a
97.2436	n/a	RESPONSE	n/a	n/a	n/a	n/a	n/a	n/a	n/a	yellow
97.2635	1.0167	ITI	n/a	n/a	n/a	n/a	n/a	n/a	n/a	n/a
98.2801	0.5167	FIXCROSS	n/a	n/a	n/a	n/a	n/a	n/a	n/a	n/a
98.7968	0.7	INK	26	Neutral	xxxxxxx	xxxxxxx	niebieski	blue	hit	n/a
99.4671	n/a	RESPONSE	n/a	n/a	n/a	n/a	n/a	n/a	n/a	blue
99.4968	1.0167	ITI	n/a	n/a	n/a	n/a	n/a	n/a	n/a	n/a
100.5135	0.5167	FIXCROSS	n/a	n/a	n/a	n/a	n/a	n/a	n/a	n/a
101.0302	0.4667	INK	27	Incongruent	zielony	green	żółty	yellow	hit	n/a
101.4667	n/a	RESPONSE	n/a	n/a	n/a	n/a	n/a	n/a	n/a	yellow
101.4968	1.0167	ITI	n/a	n/a	n/a	n/a	n/a	n/a	n/a	n/a
102.5135	0.5167	FIXCROSS	n/a	n/a	n/a	n/a	n/a	n/a	n/a	n/a
103.0302	0.75	INK	28	Neutral	xxxxxxx	xxxxxxx	niebieski	blue	hit	n/a
103.7541	n/a	RESPONSE	n/a	n/a	n/a	n/a	n/a	n/a	n/a	blue
103.7802	1.0167	ITI	n/a	n/a	n/a	n/a	n/a	n/a	n/a	n/a
104.7969	0.5167	FIXCROSS	n/a	n/a	n/a	n/a	n/a	n/a	n/a	n/a
105.3135	0.8167	INK	29	Incongruent	żółty	yellow	zielony	green	hit	n/a
106.1057	n/a	RESPONSE	n/a	n/a	n/a	n/a	n/a	n/a	n/a	green
106.1302	1.0167	ITI	n/a	n/a	n/a	n/a	n/a	n/a	n/a	n/a
107.1469	0.5167	FIXCROSS	n/a	n/a	n/a	n/a	n/a	n/a	n/a	n/a
107.6636	0.7	INK	30	Incongruent	zielony	green	niebieski	blue	hit	n/a
108.3452	n/a	RESPONSE	n/a	n/a	n/a	n/a	n/a	n/a	n/a	blue
108.3635	1.0167	ITI	n/a	n/a	n/a	n/a	n/a	n/a	n/a	n/a
109.3802	0.5167	FIXCROSS	n/a	n/a	n/a	n/a	n/a	n/a	n/a	n/a
109.8969	0.75	INK	31	Neutral	xxxxxxx	xxxxxxx	niebieski	blue	hit	n/a
110.6167	n/a	RESPONSE	n/a	n/a	n/a	n/a	n/a	n/a	n/a	blue
110.6469	1.0167	ITI	n/a	n/a	n/a	n/a	n/a	n/a	n/a	n/a
111.6636	0.5167	FIXCROSS	n/a	n/a	n/a	n/a	n/a	n/a	n/a	n/a
112.1802	0.8833	INK	32	Incongruent	czerwony	red	zielony	green	hit	n/a
113.0322	n/a	RESPONSE	n/a	n/a	n/a	n/a	n/a	n/a	n/a	green
113.0636	1.0167	ITI	n/a	n/a	n/a	n/a	n/a	n/a	n/a	n/a
114.0802	0.5167	FIXCROSS	n/a	n/a	n/a	n/a	n/a	n/a	n/a	n/a
114.5969	0.55	INK	33	Incongruent	zielony	green	żółty	yellow	hit	n/a
115.1278	n/a	RESPONSE	n/a	n/a	n/a	n/a	n/a	n/a	n/a	yellow
115.1469	1.0167	ITI	n/a	n/a	n/a	n/a	n/a	n/a	n/a	n/a
116.1636	0.5167	FIXCROSS	n/a	n/a	n/a	n/a	n/a	n/a	n/a	n/a
116.6803	0.7833	INK	34	Neutral	xxxxxxxxx	xxxxxxxxx	zielony	green	hit	n/a
117.4313	n/a	RESPONSE	n/a	n/a	n/a	n/a	n/a	n/a	n/a	green
117.4636	1.0167	ITI	n/a	n/a	n/a	n/a	n/a	n/a	n/a	n/a
118.4803	0.5167	FIXCROSS	n/a	n/a	n/a	n/a	n/a	n/a	n/a	n/a
118.997	0.85	INK	35	Incongruent	czerwony	red	zielony	green	hit	n/a
119.8148	n/a	RESPONSE	n/a	n/a	n/a	n/a	n/a	n/a	n/a	green
119.847	1.0167	ITI	n/a	n/a	n/a	n/a	n/a	n/a	n/a	n/a
120.8636	0.5167	FIXCROSS	n/a	n/a	n/a	n/a	n/a	n/a	n/a	n/a
121.3803	0.9333	INK	36	Incongruent	niebieski	blue	czerwony	red	hit	n/a
122.2943	n/a	RESPONSE	n/a	n/a	n/a	n/a	n/a	n/a	n/a	red
122.3136	1.0167	ITI	n/a	n/a	n/a	n/a	n/a	n/a	n/a	n/a
123.3303	0.5167	FIXCROSS	n/a	n/a	n/a	n/a	n/a	n/a	n/a	n/a
123.847	0.9	INK	37	Incongruent	czerwony	red	niebieski	blue	hit	n/a
124.7258	n/a	RESPONSE	n/a	n/a	n/a	n/a	n/a	n/a	n/a	blue
124.747	1.0167	ITI	n/a	n/a	n/a	n/a	n/a	n/a	n/a	n/a
125.7637	0.5167	FIXCROSS	n/a	n/a	n/a	n/a	n/a	n/a	n/a	n/a
126.2803	1.1833	INK	38	Incongruent	żółty	yellow	niebieski	blue	hit	n/a
127.4452	n/a	RESPONSE	n/a	n/a	n/a	n/a	n/a	n/a	n/a	blue
127.4637	1.0167	ITI	n/a	n/a	n/a	n/a	n/a	n/a	n/a	n/a
128.4803	0.5167	FIXCROSS	n/a	n/a	n/a	n/a	n/a	n/a	n/a	n/a
128.997	0.8167	INK	39	Neutral	xxxxx	xxxxx	zielony	green	hit	n/a
129.7807	n/a	RESPONSE	n/a	n/a	n/a	n/a	n/a	n/a	n/a	green
129.8137	1.0167	ITI	n/a	n/a	n/a	n/a	n/a	n/a	n/a	n/a
130.8304	0.5167	FIXCROSS	n/a	n/a	n/a	n/a	n/a	n/a	n/a	n/a
131.347	0.65	INK	40	Neutral	xxxxx	xxxxx	czerwony	red	hit	n/a
131.9723	n/a	RESPONSE	n/a	n/a	n/a	n/a	n/a	n/a	n/a	red
131.997	1.0167	ITI	n/a	n/a	n/a	n/a	n/a	n/a	n/a	n/a
133.0137	0.5167	FIXCROSS	n/a	n/a	n/a	n/a	n/a	n/a	n/a	n/a
133.5304	0.7667	INK	41	Neutral	xxxxx	xxxxx	zielony	green	hit	n/a
134.2758	n/a	RESPONSE	n/a	n/a	n/a	n/a	n/a	n/a	n/a	green
134.297	1.0167	ITI	n/a	n/a	n/a	n/a	n/a	n/a	n/a	n/a
135.3137	0.5167	FIXCROSS	n/a	n/a	n/a	n/a	n/a	n/a	n/a	n/a
135.8304	0.4	INK	42	Neutral	xxxxxxxx	xxxxxxxx	żółty	yellow	hit	n/a
136.2113	n/a	RESPONSE	n/a	n/a	n/a	n/a	n/a	n/a	n/a	yellow
136.2304	1.0167	ITI	n/a	n/a	n/a	n/a	n/a	n/a	n/a	n/a
137.2471	0.5167	FIXCROSS	n/a	n/a	n/a	n/a	n/a	n/a	n/a	n/a
137.7637	0.7167	INK	43	Neutral	xxxxxxx	xxxxxxx	czerwony	red	hit	n/a
138.4509	n/a	RESPONSE	n/a	n/a	n/a	n/a	n/a	n/a	n/a	red
138.4804	1.0167	ITI	n/a	n/a	n/a	n/a	n/a	n/a	n/a	n/a
139.4971	0.5167	FIXCROSS	n/a	n/a	n/a	n/a	n/a	n/a	n/a	n/a
140.0138	0.55	INK	44	Incongruent	czerwony	red	żółty	yellow	hit	n/a
140.5304	n/a	RESPONSE	n/a	n/a	n/a	n/a	n/a	n/a	n/a	yellow
140.5638	1.0167	ITI	n/a	n/a	n/a	n/a	n/a	n/a	n/a	n/a
141.5804	0.5167	FIXCROSS	n/a	n/a	n/a	n/a	n/a	n/a	n/a	n/a
142.0971	0.65	INK	45	Incongruent	niebieski	blue	czerwony	red	hit	n/a
142.722	n/a	RESPONSE	n/a	n/a	n/a	n/a	n/a	n/a	n/a	red
142.7471	1.0167	ITI	n/a	n/a	n/a	n/a	n/a	n/a	n/a	n/a
143.7638	0.5167	FIXCROSS	n/a	n/a	n/a	n/a	n/a	n/a	n/a	n/a
144.2805	0.7833	INK	46	Incongruent	żółty	yellow	zielony	green	hit	n/a
145.0415	n/a	RESPONSE	n/a	n/a	n/a	n/a	n/a	n/a	n/a	green
145.0638	1.0167	ITI	n/a	n/a	n/a	n/a	n/a	n/a	n/a	n/a
146.0805	0.5167	FIXCROSS	n/a	n/a	n/a	n/a	n/a	n/a	n/a	n/a
146.5971	0.5667	INK	47	Neutral	xxxxxxxxx	xxxxxxxxx	żółty	yellow	hit	n/a
147.1371	n/a	RESPONSE	n/a	n/a	n/a	n/a	n/a	n/a	n/a	yellow
147.1638	1.0167	ITI	n/a	n/a	n/a	n/a	n/a	n/a	n/a	n/a
148.1805	0.5167	FIXCROSS	n/a	n/a	n/a	n/a	n/a	n/a	n/a	n/a
148.6971	0.5667	INK	48	Incongruent	niebieski	blue	żółty	yellow	hit	n/a
149.2326	n/a	RESPONSE	n/a	n/a	n/a	n/a	n/a	n/a	n/a	yellow
149.2638	1.0167	ITI	n/a	n/a	n/a	n/a	n/a	n/a	n/a	n/a
150.2805	0.5167	FIXCROSS	n/a	n/a	n/a	n/a	n/a	n/a	n/a	n/a
150.7972	0.75	INK	49	Incongruent	niebieski	blue	zielony	green	hit	n/a
151.5201	n/a	RESPONSE	n/a	n/a	n/a	n/a	n/a	n/a	n/a	green
151.5472	1.0167	ITI	n/a	n/a	n/a	n/a	n/a	n/a	n/a	n/a
152.5638	0.5167	FIXCROSS	n/a	n/a	n/a	n/a	n/a	n/a	n/a	n/a
153.0805	0.75	INK	50	Incongruent	żółty	yellow	czerwony	red	hit	n/a
153.8077	n/a	RESPONSE	n/a	n/a	n/a	n/a	n/a	n/a	n/a	red
153.8305	1.0167	ITI	n/a	n/a	n/a	n/a	n/a	n/a	n/a	n/a
154.8472	0.5167	FIXCROSS	n/a	n/a	n/a	n/a	n/a	n/a	n/a	n/a
155.3639	0.7833	INK	51	Neutral	xxxxxxxx	xxxxxxxx	zielony	green	hit	n/a
156.1271	n/a	RESPONSE	n/a	n/a	n/a	n/a	n/a	n/a	n/a	green
156.1472	1.0167	ITI	n/a	n/a	n/a	n/a	n/a	n/a	n/a	n/a
157.1639	0.5167	FIXCROSS	n/a	n/a	n/a	n/a	n/a	n/a	n/a	n/a
157.6805	0.8	INK	52	Incongruent	żółty	yellow	niebieski	blue	hit	n/a
158.4627	n/a	RESPONSE	n/a	n/a	n/a	n/a	n/a	n/a	n/a	blue
158.4805	1.0167	ITI	n/a	n/a	n/a	n/a	n/a	n/a	n/a	n/a
159.4972	0.5167	FIXCROSS	n/a	n/a	n/a	n/a	n/a	n/a	n/a	n/a
160.0139	0.55	INK	53	Neutral	xxxxxxx	xxxxxxx	żółty	yellow	hit	n/a
160.5422	n/a	RESPONSE	n/a	n/a	n/a	n/a	n/a	n/a	n/a	yellow
160.5639	1.0167	ITI	n/a	n/a	n/a	n/a	n/a	n/a	n/a	n/a
161.5806	0.5167	FIXCROSS	n/a	n/a	n/a	n/a	n/a	n/a	n/a	n/a
162.0972	0.9333	INK	54	Incongruent	zielony	green	niebieski	blue	hit	n/a
163.0057	n/a	RESPONSE	n/a	n/a	n/a	n/a	n/a	n/a	n/a	blue
163.0306	1.0167	ITI	n/a	n/a	n/a	n/a	n/a	n/a	n/a	n/a
164.0472	0.5167	FIXCROSS	n/a	n/a	n/a	n/a	n/a	n/a	n/a	n/a
164.5639	0.6167	INK	55	Neutral	xxxxxxxx	xxxxxxxx	niebieski	blue	hit	n/a
165.1492	n/a	RESPONSE	n/a	n/a	n/a	n/a	n/a	n/a	n/a	blue
165.1806	1.0167	ITI	n/a	n/a	n/a	n/a	n/a	n/a	n/a	n/a
166.1973	0.5167	FIXCROSS	n/a	n/a	n/a	n/a	n/a	n/a	n/a	n/a
166.7139	0.6333	INK	56	Neutral	xxxxxxxx	xxxxxxxx	zielony	green	hit	n/a
167.3248	n/a	RESPONSE	n/a	n/a	n/a	n/a	n/a	n/a	n/a	green
167.3473	1.0167	ITI	n/a	n/a	n/a	n/a	n/a	n/a	n/a	n/a
168.364	0.5167	FIXCROSS	n/a	n/a	n/a	n/a	n/a	n/a	n/a	n/a
168.8806	0.6667	INK	57	Neutral	xxxxx	xxxxx	niebieski	blue	hit	n/a
169.5163	n/a	RESPONSE	n/a	n/a	n/a	n/a	n/a	n/a	n/a	blue
169.5473	1.0167	ITI	n/a	n/a	n/a	n/a	n/a	n/a	n/a	n/a
170.564	0.5167	FIXCROSS	n/a	n/a	n/a	n/a	n/a	n/a	n/a	n/a
171.0806	0.6833	INK	58	Neutral	xxxxxxxx	xxxxxxxx	niebieski	blue	hit	n/a
171.7399	n/a	RESPONSE	n/a	n/a	n/a	n/a	n/a	n/a	n/a	blue
171.764	1.0167	ITI	n/a	n/a	n/a	n/a	n/a	n/a	n/a	n/a
172.7806	0.5167	FIXCROSS	n/a	n/a	n/a	n/a	n/a	n/a	n/a	n/a
173.2973	1.5167	INK	59	Incongruent	czerwony	red	niebieski	blue	hit	n/a
174.7952	n/a	RESPONSE	n/a	n/a	n/a	n/a	n/a	n/a	n/a	blue
174.814	1.0167	ITI	n/a	n/a	n/a	n/a	n/a	n/a	n/a	n/a
175.8307	0.5167	FIXCROSS	n/a	n/a	n/a	n/a	n/a	n/a	n/a	n/a
176.3473	0.6167	INK	60	Incongruent	czerwony	red	żółty	yellow	hit	n/a
176.9388	n/a	RESPONSE	n/a	n/a	n/a	n/a	n/a	n/a	n/a	yellow
176.964	1.0167	ITI	n/a	n/a	n/a	n/a	n/a	n/a	n/a	n/a
177.9807	0.5167	FIXCROSS	n/a	n/a	n/a	n/a	n/a	n/a	n/a	n/a
178.4974	0.6167	INK	61	Neutral	xxxxxxxx	xxxxxxxx	zielony	green	hit	n/a
179.0823	n/a	RESPONSE	n/a	n/a	n/a	n/a	n/a	n/a	n/a	green
179.114	1.0167	ITI	n/a	n/a	n/a	n/a	n/a	n/a	n/a	n/a
180.1307	0.5167	FIXCROSS	n/a	n/a	n/a	n/a	n/a	n/a	n/a	n/a
180.6474	0.9333	INK	62	Incongruent	niebieski	blue	zielony	green	hit	n/a
181.5618	n/a	RESPONSE	n/a	n/a	n/a	n/a	n/a	n/a	n/a	green
181.5807	1.0167	ITI	n/a	n/a	n/a	n/a	n/a	n/a	n/a	n/a
182.5974	0.5167	FIXCROSS	n/a	n/a	n/a	n/a	n/a	n/a	n/a	n/a
183.114	0.6667	INK	63	Neutral	xxxxx	xxxxx	niebieski	blue	hit	n/a
183.7533	n/a	RESPONSE	n/a	n/a	n/a	n/a	n/a	n/a	n/a	blue
183.7807	1.0167	ITI	n/a	n/a	n/a	n/a	n/a	n/a	n/a	n/a
184.7974	0.5167	FIXCROSS	n/a	n/a	n/a	n/a	n/a	n/a	n/a	n/a
185.3141	0.85	INK	64	Incongruent	czerwony	red	niebieski	blue	hit	n/a
186.1369	n/a	RESPONSE	n/a	n/a	n/a	n/a	n/a	n/a	n/a	blue
186.1641	1.0167	ITI	n/a	n/a	n/a	n/a	n/a	n/a	n/a	n/a
187.1807	0.5167	FIXCROSS	n/a	n/a	n/a	n/a	n/a	n/a	n/a	n/a
187.6974	0.5667	INK	65	Incongruent	niebieski	blue	zielony	green	hit	n/a
188.2324	n/a	RESPONSE	n/a	n/a	n/a	n/a	n/a	n/a	n/a	green
188.2641	1.0167	ITI	n/a	n/a	n/a	n/a	n/a	n/a	n/a	n/a
189.2808	0.5167	FIXCROSS	n/a	n/a	n/a	n/a	n/a	n/a	n/a	n/a
189.7974	0.9	INK	66	Neutral	xxxxxxxxx	xxxxxxxxx	zielony	green	hit	n/a
190.6639	n/a	RESPONSE	n/a	n/a	n/a	n/a	n/a	n/a	n/a	green
190.6974	1.0167	ITI	n/a	n/a	n/a	n/a	n/a	n/a	n/a	n/a
191.7141	0.5167	FIXCROSS	n/a	n/a	n/a	n/a	n/a	n/a	n/a	n/a
192.2308	0.7667	INK	67	Incongruent	żółty	yellow	niebieski	blue	hit	n/a
192.9674	n/a	RESPONSE	n/a	n/a	n/a	n/a	n/a	n/a	n/a	blue
192.9974	1.0104	ITI	n/a	n/a	n/a	n/a	n/a	n/a	n/a	n/a
194.0079	0.5229	FIXCROSS	n/a	n/a	n/a	n/a	n/a	n/a	n/a	n/a
194.5308	0.5333	INK	68	Incongruent	niebieski	blue	żółty	yellow	hit	n/a
195.031	n/a	RESPONSE	n/a	n/a	n/a	n/a	n/a	n/a	n/a	yellow
195.0641	1.0167	ITI	n/a	n/a	n/a	n/a	n/a	n/a	n/a	n/a
196.0808	0.5167	FIXCROSS	n/a	n/a	n/a	n/a	n/a	n/a	n/a	n/a
196.5975	0.7833	INK	69	Neutral	xxxxx	xxxxx	niebieski	blue	hit	n/a
197.3505	n/a	RESPONSE	n/a	n/a	n/a	n/a	n/a	n/a	n/a	blue
197.3808	1.0167	ITI	n/a	n/a	n/a	n/a	n/a	n/a	n/a	n/a
198.3975	0.5167	FIXCROSS	n/a	n/a	n/a	n/a	n/a	n/a	n/a	n/a
198.9142	0.6667	INK	70	Incongruent	żółty	yellow	czerwony	red	hit	n/a
199.558	n/a	RESPONSE	n/a	n/a	n/a	n/a	n/a	n/a	n/a	red
199.5808	1.0167	ITI	n/a	n/a	n/a	n/a	n/a	n/a	n/a	n/a
200.5975	0.5167	FIXCROSS	n/a	n/a	n/a	n/a	n/a	n/a	n/a	n/a
201.1142	0.4833	INK	71	Neutral	xxxxxxxx	xxxxxxxx	żółty	yellow	hit	n/a
201.5736	n/a	RESPONSE	n/a	n/a	n/a	n/a	n/a	n/a	n/a	yellow
201.5975	1.0167	ITI	n/a	n/a	n/a	n/a	n/a	n/a	n/a	n/a
202.6142	0.5167	FIXCROSS	n/a	n/a	n/a	n/a	n/a	n/a	n/a	n/a
203.1308	0.4333	INK	72	Incongruent	żółty	yellow	czerwony	red	hit	n/a
203.5412	n/a	RESPONSE	n/a	n/a	n/a	n/a	n/a	n/a	n/a	red
203.5642	1.0833	ITI	n/a	n/a	n/a	n/a	n/a	n/a	n/a	n/a
215.6346	n/a	RESPONSE	n/a	n/a	n/a	n/a	n/a	n/a	n/a	n/a
215.6976	1.0167	ITI	n/a	n/a	n/a	n/a	n/a	n/a	n/a	n/a
216.7143	0.5167	FIXCROSS	n/a	n/a	n/a	n/a	n/a	n/a	n/a	n/a
217.2309	0.8333	T_COLOR_NAME	1	Neutral	zielony	green	Neutral	Neutral	hit	n/a
218.0341	n/a	RESPONSE	n/a	n/a	n/a	n/a	n/a	n/a	n/a	green
218.0643	0.5167	FEEDBACK	n/a	n/a	n/a	n/a	n/a	n/a	n/a	n/a
218.5809	1.0167	ITI	n/a	n/a	n/a	n/a	n/a	n/a	n/a	n/a
219.5976	0.5167	FIXCROSS	n/a	n/a	n/a	n/a	n/a	n/a	n/a	n/a
220.1143	0.75	T_COLOR_NAME	2	Neutral	zielony	green	Neutral	Neutral	hit	n/a
220.8335	n/a	RESPONSE	n/a	n/a	n/a	n/a	n/a	n/a	n/a	green
220.8643	0.5167	FEEDBACK	n/a	n/a	n/a	n/a	n/a	n/a	n/a	n/a
221.381	1.0167	ITI	n/a	n/a	n/a	n/a	n/a	n/a	n/a	n/a
222.3976	0.5167	FIXCROSS	n/a	n/a	n/a	n/a	n/a	n/a	n/a	n/a
222.9143	0.9167	T_COLOR_NAME	3	Neutral	żółty	yellow	Neutral	Neutral	hit	n/a
223.8089	n/a	RESPONSE	n/a	n/a	n/a	n/a	n/a	n/a	n/a	yellow
223.831	0.5167	FEEDBACK	n/a	n/a	n/a	n/a	n/a	n/a	n/a	n/a
224.3476	1.0167	ITI	n/a	n/a	n/a	n/a	n/a	n/a	n/a	n/a
225.3643	0.5167	FIXCROSS	n/a	n/a	n/a	n/a	n/a	n/a	n/a	n/a
225.881	0.8667	T_COLOR_NAME	4	Neutral	niebieski	blue	Neutral	Neutral	hit	n/a
226.7203	n/a	RESPONSE	n/a	n/a	n/a	n/a	n/a	n/a	n/a	blue
226.7477	0.5167	FEEDBACK	n/a	n/a	n/a	n/a	n/a	n/a	n/a	n/a
227.2643	1.0167	ITI	n/a	n/a	n/a	n/a	n/a	n/a	n/a	n/a
228.281	0.5167	FIXCROSS	n/a	n/a	n/a	n/a	n/a	n/a	n/a	n/a
228.7977	1.0	T_COLOR_NAME	5	Incongruent	niebieski	blue	zielony	green	hit	n/a
229.7757	n/a	RESPONSE	n/a	n/a	n/a	n/a	n/a	n/a	n/a	blue
229.7977	0.5167	FEEDBACK	n/a	n/a	n/a	n/a	n/a	n/a	n/a	n/a
230.3144	1.0167	ITI	n/a	n/a	n/a	n/a	n/a	n/a	n/a	n/a
231.331	0.5167	FIXCROSS	n/a	n/a	n/a	n/a	n/a	n/a	n/a	n/a
231.8477	1.0667	T_COLOR_NAME	6	Neutral	zielony	green	Neutral	Neutral	hit	n/a
232.895	n/a	RESPONSE	n/a	n/a	n/a	n/a	n/a	n/a	n/a	green
232.9144	0.5167	FEEDBACK	n/a	n/a	n/a	n/a	n/a	n/a	n/a	n/a
233.431	1.0167	ITI	n/a	n/a	n/a	n/a	n/a	n/a	n/a	n/a
234.4477	0.5167	FIXCROSS	n/a	n/a	n/a	n/a	n/a	n/a	n/a	n/a
234.9644	0.8333	T_COLOR_NAME	7	Neutral	niebieski	blue	Neutral	Neutral	hit	n/a
235.7744	n/a	RESPONSE	n/a	n/a	n/a	n/a	n/a	n/a	n/a	blue
235.7977	0.5167	FEEDBACK	n/a	n/a	n/a	n/a	n/a	n/a	n/a	n/a
236.3144	1.0167	ITI	n/a	n/a	n/a	n/a	n/a	n/a	n/a	n/a
237.3311	0.5167	FIXCROSS	n/a	n/a	n/a	n/a	n/a	n/a	n/a	n/a
237.8477	0.7167	T_COLOR_NAME	8	Neutral	żółty	yellow	Neutral	Neutral	hit	n/a
238.5418	n/a	RESPONSE	n/a	n/a	n/a	n/a	n/a	n/a	n/a	yellow
238.5644	0.5167	FEEDBACK	n/a	n/a	n/a	n/a	n/a	n/a	n/a	n/a
239.0811	1.0167	ITI	n/a	n/a	n/a	n/a	n/a	n/a	n/a	n/a
240.0978	0.5167	FIXCROSS	n/a	n/a	n/a	n/a	n/a	n/a	n/a	n/a
240.6144	0.85	T_COLOR_NAME	9	Neutral	niebieski	blue	Neutral	Neutral	hit	n/a
241.4372	n/a	RESPONSE	n/a	n/a	n/a	n/a	n/a	n/a	n/a	blue
241.4644	0.5167	FEEDBACK	n/a	n/a	n/a	n/a	n/a	n/a	n/a	n/a
241.9811	1.0167	ITI	n/a	n/a	n/a	n/a	n/a	n/a	n/a	n/a
242.9978	0.5167	FIXCROSS	n/a	n/a	n/a	n/a	n/a	n/a	n/a	n/a
243.5144	0.8833	T_COLOR_NAME	10	Incongruent	czerwony	red	niebieski	blue	hit	n/a
244.3646	n/a	RESPONSE	n/a	n/a	n/a	n/a	n/a	n/a	n/a	red
244.3978	0.5167	FEEDBACK	n/a	n/a	n/a	n/a	n/a	n/a	n/a	n/a
244.9144	1.0167	ITI	n/a	n/a	n/a	n/a	n/a	n/a	n/a	n/a
245.9311	0.5167	FIXCROSS	n/a	n/a	n/a	n/a	n/a	n/a	n/a	n/a
246.4478	0.8167	T_COLOR_NAME	11	Incongruent	czerwony	red	żółty	yellow	hit	n/a
247.244	n/a	RESPONSE	n/a	n/a	n/a	n/a	n/a	n/a	n/a	red
247.2645	0.5167	FEEDBACK	n/a	n/a	n/a	n/a	n/a	n/a	n/a	n/a
247.7811	1.0167	ITI	n/a	n/a	n/a	n/a	n/a	n/a	n/a	n/a
248.7978	0.5167	FIXCROSS	n/a	n/a	n/a	n/a	n/a	n/a	n/a	n/a
249.3145	0.8833	T_COLOR_NAME	12	Incongruent	żółty	yellow	czerwony	red	hit	n/a
250.1714	n/a	RESPONSE	n/a	n/a	n/a	n/a	n/a	n/a	n/a	yellow
250.1978	0.5167	FEEDBACK	n/a	n/a	n/a	n/a	n/a	n/a	n/a	n/a
250.7145	1.0334	ITI	n/a	n/a	n/a	n/a	n/a	n/a	n/a	n/a
252.9388	n/a	RESPONSE	n/a	n/a	n/a	n/a	n/a	n/a	n/a	n/a
252.9978	1.0167	ITI	n/a	n/a	n/a	n/a	n/a	n/a	n/a	n/a
254.0145	0.5167	FIXCROSS	n/a	n/a	n/a	n/a	n/a	n/a	n/a	n/a
254.5312	0.7	COLOR_NAME	1	Neutral	czerwony	red	Neutral	Neutral	hit	n/a
255.2103	n/a	RESPONSE	n/a	n/a	n/a	n/a	n/a	n/a	n/a	red
255.2312	1.0167	ITI	n/a	n/a	n/a	n/a	n/a	n/a	n/a	n/a
256.2479	0.5167	FIXCROSS	n/a	n/a	n/a	n/a	n/a	n/a	n/a	n/a
256.7645	0.8	COLOR_NAME	2	Neutral	zielony	green	Neutral	Neutral	hit	n/a
257.5458	n/a	RESPONSE	n/a	n/a	n/a	n/a	n/a	n/a	n/a	green
257.5645	1.0167	ITI	n/a	n/a	n/a	n/a	n/a	n/a	n/a	n/a
258.5812	0.5167	FIXCROSS	n/a	n/a	n/a	n/a	n/a	n/a	n/a	n/a
259.0979	0.8333	COLOR_NAME	3	Neutral	czerwony	red	Neutral	Neutral	hit	n/a
259.9133	n/a	RESPONSE	n/a	n/a	n/a	n/a	n/a	n/a	n/a	red
259.9312	1.0167	ITI	n/a	n/a	n/a	n/a	n/a	n/a	n/a	n/a
260.9479	0.5167	FIXCROSS	n/a	n/a	n/a	n/a	n/a	n/a	n/a	n/a
261.4646	0.6	COLOR_NAME	4	Neutral	żółty	yellow	Neutral	Neutral	hit	n/a
262.0409	n/a	RESPONSE	n/a	n/a	n/a	n/a	n/a	n/a	n/a	yellow
262.0646	1.0167	ITI	n/a	n/a	n/a	n/a	n/a	n/a	n/a	n/a
263.0812	0.5167	FIXCROSS	n/a	n/a	n/a	n/a	n/a	n/a	n/a	n/a
263.5979	0.7333	COLOR_NAME	5	Neutral	niebieski	blue	Neutral	Neutral	hit	n/a
264.3124	n/a	RESPONSE	n/a	n/a	n/a	n/a	n/a	n/a	n/a	blue
264.3313	1.0167	ITI	n/a	n/a	n/a	n/a	n/a	n/a	n/a	n/a
265.3479	0.5167	FIXCROSS	n/a	n/a	n/a	n/a	n/a	n/a	n/a	n/a
265.8646	0.8	COLOR_NAME	6	Incongruent	żółty	yellow	niebieski	blue	hit	n/a
266.6319	n/a	RESPONSE	n/a	n/a	n/a	n/a	n/a	n/a	n/a	yellow
266.6646	1.0167	ITI	n/a	n/a	n/a	n/a	n/a	n/a	n/a	n/a
267.6813	0.5167	FIXCROSS	n/a	n/a	n/a	n/a	n/a	n/a	n/a	n/a
268.1979	0.8833	COLOR_NAME	7	Incongruent	zielony	green	czerwony	red	hit	n/a
269.0474	n/a	RESPONSE	n/a	n/a	n/a	n/a	n/a	n/a	n/a	green
269.0813	1.0167	ITI	n/a	n/a	n/a	n/a	n/a	n/a	n/a	n/a
270.0979	0.5167	FIXCROSS	n/a	n/a	n/a	n/a	n/a	n/a	n/a	n/a
270.6146	0.8833	COLOR_NAME	8	Incongruent	czerwony	red	żółty	yellow	hit	n/a
271.4789	n/a	RESPONSE	n/a	n/a	n/a	n/a	n/a	n/a	n/a	red
271.498	1.0167	ITI	n/a	n/a	n/a	n/a	n/a	n/a	n/a	n/a
272.5146	0.5167	FIXCROSS	n/a	n/a	n/a	n/a	n/a	n/a	n/a	n/a
273.0313	0.7833	COLOR_NAME	9	Neutral	niebieski	blue	Neutral	Neutral	hit	n/a
273.7824	n/a	RESPONSE	n/a	n/a	n/a	n/a	n/a	n/a	n/a	blue
273.8146	1.0167	ITI	n/a	n/a	n/a	n/a	n/a	n/a	n/a	n/a
274.8313	0.5167	FIXCROSS	n/a	n/a	n/a	n/a	n/a	n/a	n/a	n/a
275.348	0.6	COLOR_NAME	10	Neutral	żółty	yellow	Neutral	Neutral	hit	n/a
275.9259	n/a	RESPONSE	n/a	n/a	n/a	n/a	n/a	n/a	n/a	yellow
275.948	1.0167	ITI	n/a	n/a	n/a	n/a	n/a	n/a	n/a	n/a
276.9647	0.5167	FIXCROSS	n/a	n/a	n/a	n/a	n/a	n/a	n/a	n/a
277.4813	0.65	COLOR_NAME	11	Incongruent	żółty	yellow	zielony	green	hit	n/a
278.1015	n/a	RESPONSE	n/a	n/a	n/a	n/a	n/a	n/a	n/a	yellow
278.1313	1.0167	ITI	n/a	n/a	n/a	n/a	n/a	n/a	n/a	n/a
279.148	0.5167	FIXCROSS	n/a	n/a	n/a	n/a	n/a	n/a	n/a	n/a
279.6647	0.6167	COLOR_NAME	12	Incongruent	żółty	yellow	niebieski	blue	hit	n/a
280.261	n/a	RESPONSE	n/a	n/a	n/a	n/a	n/a	n/a	n/a	yellow
280.2813	1.0167	ITI	n/a	n/a	n/a	n/a	n/a	n/a	n/a	n/a
281.298	0.5167	FIXCROSS	n/a	n/a	n/a	n/a	n/a	n/a	n/a	n/a
281.8147	0.6833	COLOR_NAME	13	Neutral	niebieski	blue	Neutral	Neutral	hit	n/a
282.4686	n/a	RESPONSE	n/a	n/a	n/a	n/a	n/a	n/a	n/a	blue
282.498	1.0167	ITI	n/a	n/a	n/a	n/a	n/a	n/a	n/a	n/a
283.5147	0.5167	FIXCROSS	n/a	n/a	n/a	n/a	n/a	n/a	n/a	n/a
284.0314	0.5667	COLOR_NAME	14	Neutral	żółty	yellow	Neutral	Neutral	hit	n/a
284.5801	n/a	RESPONSE	n/a	n/a	n/a	n/a	n/a	n/a	n/a	yellow
284.598	1.0167	ITI	n/a	n/a	n/a	n/a	n/a	n/a	n/a	n/a
285.6147	0.5166	FIXCROSS	n/a	n/a	n/a	n/a	n/a	n/a	n/a	n/a
286.1314	0.8	COLOR_NAME	15	Incongruent	zielony	green	żółty	yellow	hit	n/a
286.8996	n/a	RESPONSE	n/a	n/a	n/a	n/a	n/a	n/a	n/a	green
286.9314	1.0167	ITI	n/a	n/a	n/a	n/a	n/a	n/a	n/a	n/a
287.9481	0.5167	FIXCROSS	n/a	n/a	n/a	n/a	n/a	n/a	n/a	n/a
288.4647	0.8167	COLOR_NAME	16	Incongruent	niebieski	blue	zielony	green	hit	n/a
289.2511	n/a	RESPONSE	n/a	n/a	n/a	n/a	n/a	n/a	n/a	blue
289.2814	1.0167	ITI	n/a	n/a	n/a	n/a	n/a	n/a	n/a	n/a
290.2981	0.5167	FIXCROSS	n/a	n/a	n/a	n/a	n/a	n/a	n/a	n/a
290.8148	0.7	COLOR_NAME	17	Incongruent	żółty	yellow	zielony	green	hit	n/a
291.4907	n/a	RESPONSE	n/a	n/a	n/a	n/a	n/a	n/a	n/a	yellow
291.5148	1.0167	ITI	n/a	n/a	n/a	n/a	n/a	n/a	n/a	n/a
292.5314	0.5167	FIXCROSS	n/a	n/a	n/a	n/a	n/a	n/a	n/a	n/a
293.0481	0.8667	COLOR_NAME	18	Incongruent	zielony	green	czerwony	red	hit	n/a
293.8902	n/a	RESPONSE	n/a	n/a	n/a	n/a	n/a	n/a	n/a	green
293.9148	1.0167	ITI	n/a	n/a	n/a	n/a	n/a	n/a	n/a	n/a
294.9314	0.5167	FIXCROSS	n/a	n/a	n/a	n/a	n/a	n/a	n/a	n/a
295.4481	0.75	COLOR_NAME	19	Neutral	czerwony	red	Neutral	Neutral	hit	n/a
296.1777	n/a	RESPONSE	n/a	n/a	n/a	n/a	n/a	n/a	n/a	red
296.1981	1.0167	ITI	n/a	n/a	n/a	n/a	n/a	n/a	n/a	n/a
297.2148	0.5167	FIXCROSS	n/a	n/a	n/a	n/a	n/a	n/a	n/a	n/a
297.7315	0.5667	COLOR_NAME	20	Incongruent	żółty	yellow	niebieski	blue	hit	n/a
298.2732	n/a	RESPONSE	n/a	n/a	n/a	n/a	n/a	n/a	n/a	yellow
298.2981	1.0167	ITI	n/a	n/a	n/a	n/a	n/a	n/a	n/a	n/a
299.3148	0.5167	FIXCROSS	n/a	n/a	n/a	n/a	n/a	n/a	n/a	n/a
299.8315	0.9333	COLOR_NAME	21	Incongruent	zielony	green	żółty	yellow	hit	n/a
300.7367	n/a	RESPONSE	n/a	n/a	n/a	n/a	n/a	n/a	n/a	green
300.7648	1.0167	ITI	n/a	n/a	n/a	n/a	n/a	n/a	n/a	n/a
301.7815	0.5167	FIXCROSS	n/a	n/a	n/a	n/a	n/a	n/a	n/a	n/a
302.2982	0.8333	COLOR_NAME	22	Incongruent	czerwony	red	zielony	green	hit	n/a
303.1042	n/a	RESPONSE	n/a	n/a	n/a	n/a	n/a	n/a	n/a	red
303.1315	1.0167	ITI	n/a	n/a	n/a	n/a	n/a	n/a	n/a	n/a
304.1482	0.5167	FIXCROSS	n/a	n/a	n/a	n/a	n/a	n/a	n/a	n/a
304.6648	0.7833	COLOR_NAME	23	Incongruent	zielony	green	niebieski	blue	hit	n/a
305.4237	n/a	RESPONSE	n/a	n/a	n/a	n/a	n/a	n/a	n/a	green
305.4482	1.0167	ITI	n/a	n/a	n/a	n/a	n/a	n/a	n/a	n/a
306.4648	0.5167	FIXCROSS	n/a	n/a	n/a	n/a	n/a	n/a	n/a	n/a
306.9815	0.75	COLOR_NAME	24	Neutral	zielony	green	Neutral	Neutral	hit	n/a
307.7112	n/a	RESPONSE	n/a	n/a	n/a	n/a	n/a	n/a	n/a	green
307.7315	1.0167	ITI	n/a	n/a	n/a	n/a	n/a	n/a	n/a	n/a
308.7482	0.5167	FIXCROSS	n/a	n/a	n/a	n/a	n/a	n/a	n/a	n/a
309.2649	0.7167	COLOR_NAME	25	Incongruent	zielony	green	czerwony	red	hit	n/a
309.9507	n/a	RESPONSE	n/a	n/a	n/a	n/a	n/a	n/a	n/a	green
309.9815	1.0167	ITI	n/a	n/a	n/a	n/a	n/a	n/a	n/a	n/a
310.9982	0.5167	FIXCROSS	n/a	n/a	n/a	n/a	n/a	n/a	n/a	n/a
311.5149	0.7667	COLOR_NAME	26	Neutral	czerwony	red	Neutral	Neutral	hit	n/a
312.2543	n/a	RESPONSE	n/a	n/a	n/a	n/a	n/a	n/a	n/a	red
312.2816	1.0167	ITI	n/a	n/a	n/a	n/a	n/a	n/a	n/a	n/a
313.2982	0.5167	FIXCROSS	n/a	n/a	n/a	n/a	n/a	n/a	n/a	n/a
313.8149	0.75	COLOR_NAME	27	Neutral	czerwony	red	Neutral	Neutral	hit	n/a
314.5418	n/a	RESPONSE	n/a	n/a	n/a	n/a	n/a	n/a	n/a	red
314.5649	1.0167	ITI	n/a	n/a	n/a	n/a	n/a	n/a	n/a	n/a
315.5816	0.5167	FIXCROSS	n/a	n/a	n/a	n/a	n/a	n/a	n/a	n/a
316.0982	0.7	COLOR_NAME	28	Neutral	zielony	green	Neutral	Neutral	hit	n/a
316.7653	n/a	RESPONSE	n/a	n/a	n/a	n/a	n/a	n/a	n/a	green
316.7982	1.0167	ITI	n/a	n/a	n/a	n/a	n/a	n/a	n/a	n/a
317.8149	0.5167	FIXCROSS	n/a	n/a	n/a	n/a	n/a	n/a	n/a	n/a
318.3316	0.6833	COLOR_NAME	29	Neutral	zielony	green	Neutral	Neutral	hit	n/a
318.9889	n/a	RESPONSE	n/a	n/a	n/a	n/a	n/a	n/a	n/a	green
319.0149	1.0167	ITI	n/a	n/a	n/a	n/a	n/a	n/a	n/a	n/a
320.0316	0.5167	FIXCROSS	n/a	n/a	n/a	n/a	n/a	n/a	n/a	n/a
320.5483	0.5667	COLOR_NAME	30	Neutral	zielony	green	Neutral	Neutral	hit	n/a
321.0844	n/a	RESPONSE	n/a	n/a	n/a	n/a	n/a	n/a	n/a	green
321.115	1.0167	ITI	n/a	n/a	n/a	n/a	n/a	n/a	n/a	n/a
322.1316	0.5167	FIXCROSS	n/a	n/a	n/a	n/a	n/a	n/a	n/a	n/a
322.6483	0.6333	COLOR_NAME	31	Neutral	zielony	green	Neutral	Neutral	hit	n/a
323.2599	n/a	RESPONSE	n/a	n/a	n/a	n/a	n/a	n/a	n/a	green
323.2816	1.0167	ITI	n/a	n/a	n/a	n/a	n/a	n/a	n/a	n/a
324.2983	0.5167	FIXCROSS	n/a	n/a	n/a	n/a	n/a	n/a	n/a	n/a
324.815	0.9834	COLOR_NAME	32	Neutral	niebieski	blue	Neutral	Neutral	hit	n/a
325.7714	n/a	RESPONSE	n/a	n/a	n/a	n/a	n/a	n/a	n/a	blue
325.7983	1.0167	ITI	n/a	n/a	n/a	n/a	n/a	n/a	n/a	n/a
326.815	0.5167	FIXCROSS	n/a	n/a	n/a	n/a	n/a	n/a	n/a	n/a
327.3317	0.8	COLOR_NAME	33	Neutral	czerwony	red	Neutral	Neutral	hit	n/a
328.1069	n/a	RESPONSE	n/a	n/a	n/a	n/a	n/a	n/a	n/a	red
328.1317	1.0167	ITI	n/a	n/a	n/a	n/a	n/a	n/a	n/a	n/a
329.1483	0.5167	FIXCROSS	n/a	n/a	n/a	n/a	n/a	n/a	n/a	n/a
329.665	0.7	COLOR_NAME	34	Incongruent	żółty	yellow	czerwony	red	hit	n/a
330.3465	n/a	RESPONSE	n/a	n/a	n/a	n/a	n/a	n/a	n/a	yellow
330.365	1.0167	ITI	n/a	n/a	n/a	n/a	n/a	n/a	n/a	n/a
331.3817	0.5167	FIXCROSS	n/a	n/a	n/a	n/a	n/a	n/a	n/a	n/a
331.8983	0.95	COLOR_NAME	35	Neutral	czerwony	red	Neutral	Neutral	hit	n/a
332.826	n/a	RESPONSE	n/a	n/a	n/a	n/a	n/a	n/a	n/a	red
332.8484	1.0167	ITI	n/a	n/a	n/a	n/a	n/a	n/a	n/a	n/a
333.865	0.5167	FIXCROSS	n/a	n/a	n/a	n/a	n/a	n/a	n/a	n/a
334.3817	0.5667	COLOR_NAME	36	Neutral	żółty	yellow	Neutral	Neutral	hit	n/a
334.9215	n/a	RESPONSE	n/a	n/a	n/a	n/a	n/a	n/a	n/a	yellow
334.9484	1.0167	ITI	n/a	n/a	n/a	n/a	n/a	n/a	n/a	n/a
335.965	0.5167	FIXCROSS	n/a	n/a	n/a	n/a	n/a	n/a	n/a	n/a
336.4817	0.7333	COLOR_NAME	37	Incongruent	czerwony	red	zielony	green	hit	n/a
337.193	n/a	RESPONSE	n/a	n/a	n/a	n/a	n/a	n/a	n/a	red
337.2151	1.0167	ITI	n/a	n/a	n/a	n/a	n/a	n/a	n/a	n/a
338.2317	0.5167	FIXCROSS	n/a	n/a	n/a	n/a	n/a	n/a	n/a	n/a
338.7484	0.85	COLOR_NAME	38	Incongruent	zielony	green	niebieski	blue	hit	n/a
339.5765	n/a	RESPONSE	n/a	n/a	n/a	n/a	n/a	n/a	n/a	green
339.5984	1.0167	ITI	n/a	n/a	n/a	n/a	n/a	n/a	n/a	n/a
340.6151	0.5167	FIXCROSS	n/a	n/a	n/a	n/a	n/a	n/a	n/a	n/a
341.1317	0.8	COLOR_NAME	39	Incongruent	czerwony	red	niebieski	blue	hit	n/a
341.912	n/a	RESPONSE	n/a	n/a	n/a	n/a	n/a	n/a	n/a	red
341.9318	1.0167	ITI	n/a	n/a	n/a	n/a	n/a	n/a	n/a	n/a
342.9484	0.5167	FIXCROSS	n/a	n/a	n/a	n/a	n/a	n/a	n/a	n/a
343.4651	0.8167	COLOR_NAME	40	Neutral	niebieski	blue	Neutral	Neutral	hit	n/a
344.2635	n/a	RESPONSE	n/a	n/a	n/a	n/a	n/a	n/a	n/a	blue
344.2818	1.0167	ITI	n/a	n/a	n/a	n/a	n/a	n/a	n/a	n/a
345.2984	0.5167	FIXCROSS	n/a	n/a	n/a	n/a	n/a	n/a	n/a	n/a
345.8151	0.6667	COLOR_NAME	41	Neutral	niebieski	blue	Neutral	Neutral	hit	n/a
346.4551	n/a	RESPONSE	n/a	n/a	n/a	n/a	n/a	n/a	n/a	blue
346.4818	1.0167	ITI	n/a	n/a	n/a	n/a	n/a	n/a	n/a	n/a
347.4984	0.5167	FIXCROSS	n/a	n/a	n/a	n/a	n/a	n/a	n/a	n/a
348.0151	0.5833	COLOR_NAME	42	Neutral	żółty	yellow	Neutral	Neutral	hit	n/a
348.5666	n/a	RESPONSE	n/a	n/a	n/a	n/a	n/a	n/a	n/a	yellow
348.5985	1.0167	ITI	n/a	n/a	n/a	n/a	n/a	n/a	n/a	n/a
349.6151	0.5167	FIXCROSS	n/a	n/a	n/a	n/a	n/a	n/a	n/a	n/a
350.1318	1.2	COLOR_NAME	43	Incongruent	niebieski	blue	czerwony	red	hit	n/a
351.3021	n/a	RESPONSE	n/a	n/a	n/a	n/a	n/a	n/a	n/a	blue
351.3318	1.0167	ITI	n/a	n/a	n/a	n/a	n/a	n/a	n/a	n/a
352.3485	0.5167	FIXCROSS	n/a	n/a	n/a	n/a	n/a	n/a	n/a	n/a
352.8651	0.85	COLOR_NAME	44	Incongruent	czerwony	red	żółty	yellow	hit	n/a
353.6856	n/a	RESPONSE	n/a	n/a	n/a	n/a	n/a	n/a	n/a	red
353.7152	1.0167	ITI	n/a	n/a	n/a	n/a	n/a	n/a	n/a	n/a
354.7318	0.5167	FIXCROSS	n/a	n/a	n/a	n/a	n/a	n/a	n/a	n/a
355.2485	0.7833	COLOR_NAME	45	Incongruent	czerwony	red	żółty	yellow	hit	n/a
356.0051	n/a	RESPONSE	n/a	n/a	n/a	n/a	n/a	n/a	n/a	red
356.0318	1.0167	ITI	n/a	n/a	n/a	n/a	n/a	n/a	n/a	n/a
357.0485	0.5167	FIXCROSS	n/a	n/a	n/a	n/a	n/a	n/a	n/a	n/a
357.5652	0.7833	COLOR_NAME	46	Incongruent	zielony	green	niebieski	blue	hit	n/a
358.3246	n/a	RESPONSE	n/a	n/a	n/a	n/a	n/a	n/a	n/a	green
358.3485	1.0167	ITI	n/a	n/a	n/a	n/a	n/a	n/a	n/a	n/a
359.3652	0.5167	FIXCROSS	n/a	n/a	n/a	n/a	n/a	n/a	n/a	n/a
359.8819	1.0333	COLOR_NAME	47	Neutral	zielony	green	Neutral	Neutral	hit	n/a
360.884	n/a	RESPONSE	n/a	n/a	n/a	n/a	n/a	n/a	n/a	green
360.9152	1.0167	ITI	n/a	n/a	n/a	n/a	n/a	n/a	n/a	n/a
361.9319	0.5167	FIXCROSS	n/a	n/a	n/a	n/a	n/a	n/a	n/a	n/a
362.4485	0.6167	COLOR_NAME	48	Neutral	zielony	green	Neutral	Neutral	hit	n/a
363.0436	n/a	RESPONSE	n/a	n/a	n/a	n/a	n/a	n/a	n/a	green
363.0652	1.0167	ITI	n/a	n/a	n/a	n/a	n/a	n/a	n/a	n/a
364.0819	0.5167	FIXCROSS	n/a	n/a	n/a	n/a	n/a	n/a	n/a	n/a
364.5986	1.3167	COLOR_NAME	49	Neutral	niebieski	blue	Neutral	Neutral	hit	n/a
365.891	n/a	RESPONSE	n/a	n/a	n/a	n/a	n/a	n/a	n/a	blue
365.9152	1.0167	ITI	n/a	n/a	n/a	n/a	n/a	n/a	n/a	n/a
366.9319	0.5167	FIXCROSS	n/a	n/a	n/a	n/a	n/a	n/a	n/a	n/a
367.4486	0.55	COLOR_NAME	50	Neutral	żółty	yellow	Neutral	Neutral	hit	n/a
367.9705	n/a	RESPONSE	n/a	n/a	n/a	n/a	n/a	n/a	n/a	yellow
367.9986	1.0167	ITI	n/a	n/a	n/a	n/a	n/a	n/a	n/a	n/a
369.0153	0.5167	FIXCROSS	n/a	n/a	n/a	n/a	n/a	n/a	n/a	n/a
369.5319	1.0333	COLOR_NAME	51	Incongruent	czerwony	red	niebieski	blue	hit	n/a
370.546	n/a	RESPONSE	n/a	n/a	n/a	n/a	n/a	n/a	n/a	red
370.5653	1.0167	ITI	n/a	n/a	n/a	n/a	n/a	n/a	n/a	n/a
371.5819	0.5167	FIXCROSS	n/a	n/a	n/a	n/a	n/a	n/a	n/a	n/a
372.0986	1.05	COLOR_NAME	52	Incongruent	niebieski	blue	żółty	yellow	hit	n/a
373.1215	n/a	RESPONSE	n/a	n/a	n/a	n/a	n/a	n/a	n/a	blue
373.1486	1.0167	ITI	n/a	n/a	n/a	n/a	n/a	n/a	n/a	n/a
374.1653	0.5167	FIXCROSS	n/a	n/a	n/a	n/a	n/a	n/a	n/a	n/a
374.682	1.0834	COLOR_NAME	53	Incongruent	zielony	green	żółty	yellow	hit	n/a
375.7449	n/a	RESPONSE	n/a	n/a	n/a	n/a	n/a	n/a	n/a	green
375.7653	1.0167	ITI	n/a	n/a	n/a	n/a	n/a	n/a	n/a	n/a
376.782	0.5167	FIXCROSS	n/a	n/a	n/a	n/a	n/a	n/a	n/a	n/a
377.2986	0.7667	COLOR_NAME	54	Neutral	zielony	green	Neutral	Neutral	hit	n/a
378.0324	n/a	RESPONSE	n/a	n/a	n/a	n/a	n/a	n/a	n/a	green
378.0653	1.0167	ITI	n/a	n/a	n/a	n/a	n/a	n/a	n/a	n/a
379.082	0.5167	FIXCROSS	n/a	n/a	n/a	n/a	n/a	n/a	n/a	n/a
379.5987	0.7833	COLOR_NAME	55	Incongruent	niebieski	blue	zielony	green	incorrect	n/a
380.3519	n/a	RESPONSE	n/a	n/a	n/a	n/a	n/a	n/a	n/a	green
380.382	1.0167	ITI	n/a	n/a	n/a	n/a	n/a	n/a	n/a	n/a
381.3987	0.5167	FIXCROSS	n/a	n/a	n/a	n/a	n/a	n/a	n/a	n/a
381.9153	0.7333	COLOR_NAME	56	Neutral	żółty	yellow	Neutral	Neutral	hit	n/a
382.6235	n/a	RESPONSE	n/a	n/a	n/a	n/a	n/a	n/a	n/a	yellow
382.6487	1.0167	ITI	n/a	n/a	n/a	n/a	n/a	n/a	n/a	n/a
383.6654	0.5167	FIXCROSS	n/a	n/a	n/a	n/a	n/a	n/a	n/a	n/a
384.182	0.8167	COLOR_NAME	57	Neutral	żółty	yellow	Neutral	Neutral	hit	n/a
384.975	n/a	RESPONSE	n/a	n/a	n/a	n/a	n/a	n/a	n/a	yellow
384.9987	1.0104	ITI	n/a	n/a	n/a	n/a	n/a	n/a	n/a	n/a
386.0091	0.5229	FIXCROSS	n/a	n/a	n/a	n/a	n/a	n/a	n/a	n/a
386.532	0.7667	COLOR_NAME	58	Neutral	niebieski	blue	Neutral	Neutral	hit	n/a
387.2785	n/a	RESPONSE	n/a	n/a	n/a	n/a	n/a	n/a	n/a	blue
387.2987	1.0167	ITI	n/a	n/a	n/a	n/a	n/a	n/a	n/a	n/a
388.3154	0.5167	FIXCROSS	n/a	n/a	n/a	n/a	n/a	n/a	n/a	n/a
388.8321	0.8	COLOR_NAME	59	Incongruent	niebieski	blue	zielony	green	hit	n/a
389.614	n/a	RESPONSE	n/a	n/a	n/a	n/a	n/a	n/a	n/a	blue
389.6321	1.0167	ITI	n/a	n/a	n/a	n/a	n/a	n/a	n/a	n/a
390.6487	0.5167	FIXCROSS	n/a	n/a	n/a	n/a	n/a	n/a	n/a	n/a
391.1654	0.6333	COLOR_NAME	60	Neutral	niebieski	blue	Neutral	Neutral	hit	n/a
391.7735	n/a	RESPONSE	n/a	n/a	n/a	n/a	n/a	n/a	n/a	blue
391.7987	1.0167	ITI	n/a	n/a	n/a	n/a	n/a	n/a	n/a	n/a
392.8154	0.5167	FIXCROSS	n/a	n/a	n/a	n/a	n/a	n/a	n/a	n/a
393.3321	0.85	COLOR_NAME	61	Neutral	czerwony	red	Neutral	Neutral	hit	n/a
394.157	n/a	RESPONSE	n/a	n/a	n/a	n/a	n/a	n/a	n/a	red
394.1821	1.0167	ITI	n/a	n/a	n/a	n/a	n/a	n/a	n/a	n/a
395.1988	0.5167	FIXCROSS	n/a	n/a	n/a	n/a	n/a	n/a	n/a	n/a
395.7154	1.1	COLOR_NAME	62	Incongruent	niebieski	blue	żółty	yellow	hit	n/a
396.7965	n/a	RESPONSE	n/a	n/a	n/a	n/a	n/a	n/a	n/a	blue
396.8154	1.0167	ITI	n/a	n/a	n/a	n/a	n/a	n/a	n/a	n/a
397.8321	0.5167	FIXCROSS	n/a	n/a	n/a	n/a	n/a	n/a	n/a	n/a
398.3488	1.1167	COLOR_NAME	63	Incongruent	czerwony	red	zielony	green	hit	n/a
399.4359	n/a	RESPONSE	n/a	n/a	n/a	n/a	n/a	n/a	n/a	red
399.4655	1.0167	ITI	n/a	n/a	n/a	n/a	n/a	n/a	n/a	n/a
400.4821	0.5167	FIXCROSS	n/a	n/a	n/a	n/a	n/a	n/a	n/a	n/a
400.9988	0.65	COLOR_NAME	64	Incongruent	żółty	yellow	czerwony	red	hit	n/a
401.6275	n/a	RESPONSE	n/a	n/a	n/a	n/a	n/a	n/a	n/a	yellow
401.6488	1.0167	ITI	n/a	n/a	n/a	n/a	n/a	n/a	n/a	n/a
402.6655	0.5167	FIXCROSS	n/a	n/a	n/a	n/a	n/a	n/a	n/a	n/a
403.1821	0.7833	COLOR_NAME	65	Incongruent	niebieski	blue	czerwony	red	hit	n/a
403.947	n/a	RESPONSE	n/a	n/a	n/a	n/a	n/a	n/a	n/a	blue
403.9655	1.0167	ITI	n/a	n/a	n/a	n/a	n/a	n/a	n/a	n/a
404.9822	0.5167	FIXCROSS	n/a	n/a	n/a	n/a	n/a	n/a	n/a	n/a
405.4988	0.8333	COLOR_NAME	66	Neutral	czerwony	red	Neutral	Neutral	hit	n/a
406.3145	n/a	RESPONSE	n/a	n/a	n/a	n/a	n/a	n/a	n/a	red
406.3322	1.0167	ITI	n/a	n/a	n/a	n/a	n/a	n/a	n/a	n/a
407.3488	0.5167	FIXCROSS	n/a	n/a	n/a	n/a	n/a	n/a	n/a	n/a
407.8655	0.85	COLOR_NAME	67	Incongruent	żółty	yellow	zielony	green	hit	n/a
408.698	n/a	RESPONSE	n/a	n/a	n/a	n/a	n/a	n/a	n/a	yellow
408.7155	1.0167	ITI	n/a	n/a	n/a	n/a	n/a	n/a	n/a	n/a
409.7322	0.5167	FIXCROSS	n/a	n/a	n/a	n/a	n/a	n/a	n/a	n/a
410.2489	0.85	COLOR_NAME	68	Incongruent	niebieski	blue	czerwony	red	hit	n/a
411.0815	n/a	RESPONSE	n/a	n/a	n/a	n/a	n/a	n/a	n/a	blue
411.0989	1.0167	ITI	n/a	n/a	n/a	n/a	n/a	n/a	n/a	n/a
412.1155	0.5167	FIXCROSS	n/a	n/a	n/a	n/a	n/a	n/a	n/a	n/a
412.6322	0.9167	COLOR_NAME	69	Incongruent	niebieski	blue	żółty	yellow	hit	n/a
413.5289	n/a	RESPONSE	n/a	n/a	n/a	n/a	n/a	n/a	n/a	blue
413.5489	1.0167	ITI	n/a	n/a	n/a	n/a	n/a	n/a	n/a	n/a
414.5655	0.5167	FIXCROSS	n/a	n/a	n/a	n/a	n/a	n/a	n/a	n/a
415.0822	0.6667	COLOR_NAME	70	Neutral	żółty	yellow	Neutral	Neutral	hit	n/a
415.7205	n/a	RESPONSE	n/a	n/a	n/a	n/a	n/a	n/a	n/a	yellow
415.7489	1.0167	ITI	n/a	n/a	n/a	n/a	n/a	n/a	n/a	n/a
416.7656	0.5167	FIXCROSS	n/a	n/a	n/a	n/a	n/a	n/a	n/a	n/a
417.2822	0.8667	COLOR_NAME	71	Incongruent	czerwony	red	niebieski	blue	hit	n/a
418.12	n/a	RESPONSE	n/a	n/a	n/a	n/a	n/a	n/a	n/a	red
418.1489	1.0167	ITI	n/a	n/a	n/a	n/a	n/a	n/a	n/a	n/a
419.1656	0.5167	FIXCROSS	n/a	n/a	n/a	n/a	n/a	n/a	n/a	n/a
419.6823	1.0333	COLOR_NAME	72	Incongruent	żółty	yellow	czerwony	red	hit	n/a
420.6954	n/a	RESPONSE	n/a	n/a	n/a	n/a	n/a	n/a	n/a	yellow
420.7156	1.0333	ITI	n/a	n/a	n/a	n/a	n/a	n/a	n/a	n/a
423.8308	n/a	RESPONSE	n/a	n/a	n/a	n/a	n/a	n/a	n/a	n/a
