onset	duration	trial_type	trial_number	stroop_condition	stim_text(PL)	stim_text(eng)	stim_color(PL)	stim_color(eng)	response_type	response_color
0.0	n/a	RESPONSE	n/a	n/a	n/a	n/a	n/a	n/a	n/a	n/a
0.0585	1.0334	ITI	n/a	n/a	n/a	n/a	n/a	n/a	n/a	n/a
1.0919	0.5167	FIXCROSS	n/a	n/a	n/a	n/a	n/a	n/a	n/a	n/a
1.6085	5.0167	T_INK	1	Incongruent	czerwony	red	niebieski	blue	miss	n/a
6.6253	0.5167	FEEDBACK	n/a	n/a	n/a	n/a	n/a	n/a	n/a	n/a
7.142	1.0167	ITI	n/a	n/a	n/a	n/a	n/a	n/a	n/a	n/a
8.1586	0.5167	FIXCROSS	n/a	n/a	n/a	n/a	n/a	n/a	n/a	n/a
8.6753	1.5167	T_INK	2	Incongruent	żółty	yellow	zielony	green	hit	n/a
10.1576	n/a	RESPONSE	n/a	n/a	n/a	n/a	n/a	n/a	n/a	green
10.192	0.5167	FEEDBACK	n/a	n/a	n/a	n/a	n/a	n/a	n/a	n/a
10.7087	1.0167	ITI	n/a	n/a	n/a	n/a	n/a	n/a	n/a	n/a
11.7253	0.5167	FIXCROSS	n/a	n/a	n/a	n/a	n/a	n/a	n/a	n/a
12.242	1.0	T_INK	3	Neutral	xxxxx	xxxxx	niebieski	blue	hit	n/a
13.2128	n/a	RESPONSE	n/a	n/a	n/a	n/a	n/a	n/a	n/a	blue
13.242	0.5167	FEEDBACK	n/a	n/a	n/a	n/a	n/a	n/a	n/a	n/a
13.7587	1.0167	ITI	n/a	n/a	n/a	n/a	n/a	n/a	n/a	n/a
14.7754	0.5167	FIXCROSS	n/a	n/a	n/a	n/a	n/a	n/a	n/a	n/a
15.292	1.2	T_INK	4	Incongruent	niebieski	blue	zielony	green	hit	n/a
16.46	n/a	RESPONSE	n/a	n/a	n/a	n/a	n/a	n/a	n/a	green
16.4921	0.5167	FEEDBACK	n/a	n/a	n/a	n/a	n/a	n/a	n/a	n/a
17.0087	1.0167	ITI	n/a	n/a	n/a	n/a	n/a	n/a	n/a	n/a
18.0254	0.5167	FIXCROSS	n/a	n/a	n/a	n/a	n/a	n/a	n/a	n/a
18.5421	0.75	T_INK	5	Incongruent	zielony	green	niebieski	blue	hit	n/a
19.2594	n/a	RESPONSE	n/a	n/a	n/a	n/a	n/a	n/a	n/a	blue
19.2921	0.5167	FEEDBACK	n/a	n/a	n/a	n/a	n/a	n/a	n/a	n/a
19.8088	1.0167	ITI	n/a	n/a	n/a	n/a	n/a	n/a	n/a	n/a
20.8254	0.5167	FIXCROSS	n/a	n/a	n/a	n/a	n/a	n/a	n/a	n/a
21.3421	0.8	T_INK	6	Neutral	xxxxx	xxxxx	zielony	green	hit	n/a
22.1227	n/a	RESPONSE	n/a	n/a	n/a	n/a	n/a	n/a	n/a	green
22.1421	0.5167	FEEDBACK	n/a	n/a	n/a	n/a	n/a	n/a	n/a	n/a
22.6588	1.0167	ITI	n/a	n/a	n/a	n/a	n/a	n/a	n/a	n/a
23.6755	0.5167	FIXCROSS	n/a	n/a	n/a	n/a	n/a	n/a	n/a	n/a
24.1921	0.8333	T_INK	7	Incongruent	czerwony	red	zielony	green	hit	n/a
25.002	n/a	RESPONSE	n/a	n/a	n/a	n/a	n/a	n/a	n/a	green
25.0254	0.5167	FEEDBACK	n/a	n/a	n/a	n/a	n/a	n/a	n/a	n/a
25.5422	1.0167	ITI	n/a	n/a	n/a	n/a	n/a	n/a	n/a	n/a
26.5588	0.5167	FIXCROSS	n/a	n/a	n/a	n/a	n/a	n/a	n/a	n/a
27.0755	0.7167	T_INK	8	Incongruent	zielony	green	czerwony	red	hit	n/a
27.7693	n/a	RESPONSE	n/a	n/a	n/a	n/a	n/a	n/a	n/a	red
27.7922	0.5167	FEEDBACK	n/a	n/a	n/a	n/a	n/a	n/a	n/a	n/a
28.3089	1.0167	ITI	n/a	n/a	n/a	n/a	n/a	n/a	n/a	n/a
29.3255	0.5167	FIXCROSS	n/a	n/a	n/a	n/a	n/a	n/a	n/a	n/a
29.8422	0.5667	T_INK	9	Neutral	xxxxxxxxx	xxxxxxxxx	żółty	yellow	hit	n/a
30.3767	n/a	RESPONSE	n/a	n/a	n/a	n/a	n/a	n/a	n/a	yellow
30.4089	0.5167	FEEDBACK	n/a	n/a	n/a	n/a	n/a	n/a	n/a	n/a
30.9256	1.0167	ITI	n/a	n/a	n/a	n/a	n/a	n/a	n/a	n/a
31.9422	0.5167	FIXCROSS	n/a	n/a	n/a	n/a	n/a	n/a	n/a	n/a
32.4589	0.85	T_INK	10	Incongruent	niebieski	blue	żółty	yellow	hit	n/a
33.288	n/a	RESPONSE	n/a	n/a	n/a	n/a	n/a	n/a	n/a	yellow
33.3089	0.5167	FEEDBACK	n/a	n/a	n/a	n/a	n/a	n/a	n/a	n/a
33.8256	1.0167	ITI	n/a	n/a	n/a	n/a	n/a	n/a	n/a	n/a
34.8423	0.5167	FIXCROSS	n/a	n/a	n/a	n/a	n/a	n/a	n/a	n/a
35.359	0.7333	T_INK	11	Neutral	xxxxxxxxx	xxxxxxxxx	czerwony	red	hit	n/a
36.0713	n/a	RESPONSE	n/a	n/a	n/a	n/a	n/a	n/a	n/a	red
36.0923	0.5167	FEEDBACK	n/a	n/a	n/a	n/a	n/a	n/a	n/a	n/a
36.609	1.0167	ITI	n/a	n/a	n/a	n/a	n/a	n/a	n/a	n/a
37.6256	0.5167	FIXCROSS	n/a	n/a	n/a	n/a	n/a	n/a	n/a	n/a
38.1423	0.5667	T_INK	12	Neutral	xxxxxxx	xxxxxxx	żółty	yellow	hit	n/a
38.6787	n/a	RESPONSE	n/a	n/a	n/a	n/a	n/a	n/a	n/a	yellow
38.709	0.5167	FEEDBACK	n/a	n/a	n/a	n/a	n/a	n/a	n/a	n/a
39.2257	1.0333	ITI	n/a	n/a	n/a	n/a	n/a	n/a	n/a	n/a
44.3893	n/a	RESPONSE	n/a	n/a	n/a	n/a	n/a	n/a	n/a	n/a
44.4424	1.0167	ITI	n/a	n/a	n/a	n/a	n/a	n/a	n/a	n/a
45.4591	0.5167	FIXCROSS	n/a	n/a	n/a	n/a	n/a	n/a	n/a	n/a
45.9757	0.6833	INK	1	Neutral	xxxxxxxx	xxxxxxxx	niebieski	blue	hit	n/a
46.6288	n/a	RESPONSE	n/a	n/a	n/a	n/a	n/a	n/a	n/a	blue
46.6591	1.0167	ITI	n/a	n/a	n/a	n/a	n/a	n/a	n/a	n/a
47.6758	0.5167	FIXCROSS	n/a	n/a	n/a	n/a	n/a	n/a	n/a	n/a
48.1924	0.6167	INK	2	Incongruent	niebieski	blue	czerwony	red	hit	n/a
48.7882	n/a	RESPONSE	n/a	n/a	n/a	n/a	n/a	n/a	n/a	red
48.8091	1.0167	ITI	n/a	n/a	n/a	n/a	n/a	n/a	n/a	n/a
49.1242	n/a	RESPONSE	n/a	n/a	n/a	n/a	n/a	n/a	n/a	red
49.8258	0.5167	FIXCROSS	n/a	n/a	n/a	n/a	n/a	n/a	n/a	n/a
50.3425	0.6	INK	3	Incongruent	zielony	green	czerwony	red	hit	n/a
50.9157	n/a	RESPONSE	n/a	n/a	n/a	n/a	n/a	n/a	n/a	red
50.9425	1.0167	ITI	n/a	n/a	n/a	n/a	n/a	n/a	n/a	n/a
51.9591	0.5167	FIXCROSS	n/a	n/a	n/a	n/a	n/a	n/a	n/a	n/a
52.4758	0.55	INK	4	Incongruent	niebieski	blue	żółty	yellow	hit	n/a
52.9952	n/a	RESPONSE	n/a	n/a	n/a	n/a	n/a	n/a	n/a	yellow
53.0258	1.0167	ITI	n/a	n/a	n/a	n/a	n/a	n/a	n/a	n/a
54.0425	0.5167	FIXCROSS	n/a	n/a	n/a	n/a	n/a	n/a	n/a	n/a
54.5592	0.55	INK	5	Neutral	xxxxxxx	xxxxxxx	żółty	yellow	hit	n/a
55.0907	n/a	RESPONSE	n/a	n/a	n/a	n/a	n/a	n/a	n/a	yellow
55.1092	1.0167	ITI	n/a	n/a	n/a	n/a	n/a	n/a	n/a	n/a
56.1259	0.5167	FIXCROSS	n/a	n/a	n/a	n/a	n/a	n/a	n/a	n/a
56.6425	0.45	INK	6	Incongruent	czerwony	red	zielony	green	hit	n/a
57.0742	n/a	RESPONSE	n/a	n/a	n/a	n/a	n/a	n/a	n/a	green
57.0925	1.0167	ITI	n/a	n/a	n/a	n/a	n/a	n/a	n/a	n/a
58.1092	0.5167	FIXCROSS	n/a	n/a	n/a	n/a	n/a	n/a	n/a	n/a
58.6259	0.4667	INK	7	Neutral	xxxxx	xxxxx	czerwony	red	hit	n/a
59.0738	n/a	RESPONSE	n/a	n/a	n/a	n/a	n/a	n/a	n/a	red
59.0926	1.0167	ITI	n/a	n/a	n/a	n/a	n/a	n/a	n/a	n/a
60.1092	0.5167	FIXCROSS	n/a	n/a	n/a	n/a	n/a	n/a	n/a	n/a
60.6259	0.5833	INK	8	Incongruent	zielony	green	żółty	yellow	hit	n/a
61.1853	n/a	RESPONSE	n/a	n/a	n/a	n/a	n/a	n/a	n/a	yellow
61.2093	1.0167	ITI	n/a	n/a	n/a	n/a	n/a	n/a	n/a	n/a
62.2259	0.5167	FIXCROSS	n/a	n/a	n/a	n/a	n/a	n/a	n/a	n/a
62.7426	0.5	INK	9	Neutral	xxxxxxxx	xxxxxxxx	żółty	yellow	hit	n/a
63.2168	n/a	RESPONSE	n/a	n/a	n/a	n/a	n/a	n/a	n/a	yellow
63.2426	1.0167	ITI	n/a	n/a	n/a	n/a	n/a	n/a	n/a	n/a
64.2593	0.5167	FIXCROSS	n/a	n/a	n/a	n/a	n/a	n/a	n/a	n/a
64.776	0.4833	INK	10	Neutral	xxxxxxxxx	xxxxxxxxx	czerwony	red	incorrect	n/a
65.2322	n/a	RESPONSE	n/a	n/a	n/a	n/a	n/a	n/a	n/a	green
65.2593	1.0167	ITI	n/a	n/a	n/a	n/a	n/a	n/a	n/a	n/a
66.276	0.5167	FIXCROSS	n/a	n/a	n/a	n/a	n/a	n/a	n/a	n/a
66.7927	0.6167	INK	11	Incongruent	żółty	yellow	zielony	green	hit	n/a
67.3758	n/a	RESPONSE	n/a	n/a	n/a	n/a	n/a	n/a	n/a	green
67.4093	1.0167	ITI	n/a	n/a	n/a	n/a	n/a	n/a	n/a	n/a
68.426	0.5167	FIXCROSS	n/a	n/a	n/a	n/a	n/a	n/a	n/a	n/a
68.9427	0.5333	INK	12	Neutral	xxxxxxxxx	xxxxxxxxx	zielony	green	hit	n/a
69.4552	n/a	RESPONSE	n/a	n/a	n/a	n/a	n/a	n/a	n/a	green
69.476	1.0167	ITI	n/a	n/a	n/a	n/a	n/a	n/a	n/a	n/a
70.4927	0.5167	FIXCROSS	n/a	n/a	n/a	n/a	n/a	n/a	n/a	n/a
71.0094	0.6667	INK	13	Incongruent	zielony	green	żółty	yellow	hit	n/a
71.6467	n/a	RESPONSE	n/a	n/a	n/a	n/a	n/a	n/a	n/a	yellow
71.6761	1.0167	ITI	n/a	n/a	n/a	n/a	n/a	n/a	n/a	n/a
72.6927	0.5167	FIXCROSS	n/a	n/a	n/a	n/a	n/a	n/a	n/a	n/a
73.2094	0.75	INK	14	Incongruent	czerwony	red	żółty	yellow	hit	n/a
73.9342	n/a	RESPONSE	n/a	n/a	n/a	n/a	n/a	n/a	n/a	yellow
73.9594	1.0167	ITI	n/a	n/a	n/a	n/a	n/a	n/a	n/a	n/a
74.9761	0.5167	FIXCROSS	n/a	n/a	n/a	n/a	n/a	n/a	n/a	n/a
75.4928	0.5	INK	15	Neutral	xxxxxxx	xxxxxxx	żółty	yellow	hit	n/a
75.9656	n/a	RESPONSE	n/a	n/a	n/a	n/a	n/a	n/a	n/a	yellow
75.9928	1.0167	ITI	n/a	n/a	n/a	n/a	n/a	n/a	n/a	n/a
77.0094	0.5167	FIXCROSS	n/a	n/a	n/a	n/a	n/a	n/a	n/a	n/a
77.5261	0.6167	INK	16	Incongruent	zielony	green	niebieski	blue	hit	n/a
78.1251	n/a	RESPONSE	n/a	n/a	n/a	n/a	n/a	n/a	n/a	blue
78.1428	1.0167	ITI	n/a	n/a	n/a	n/a	n/a	n/a	n/a	n/a
79.1595	0.5167	FIXCROSS	n/a	n/a	n/a	n/a	n/a	n/a	n/a	n/a
79.6761	0.5833	INK	17	Neutral	xxxxxxx	xxxxxxx	żółty	yellow	hit	n/a
80.2366	n/a	RESPONSE	n/a	n/a	n/a	n/a	n/a	n/a	n/a	yellow
80.2595	1.0167	ITI	n/a	n/a	n/a	n/a	n/a	n/a	n/a	n/a
81.2762	0.5167	FIXCROSS	n/a	n/a	n/a	n/a	n/a	n/a	n/a	n/a
81.7928	0.4667	INK	18	Neutral	xxxxxxxxx	xxxxxxxxx	żółty	yellow	hit	n/a
82.2362	n/a	RESPONSE	n/a	n/a	n/a	n/a	n/a	n/a	n/a	yellow
82.2595	1.0167	ITI	n/a	n/a	n/a	n/a	n/a	n/a	n/a	n/a
83.2762	0.5167	FIXCROSS	n/a	n/a	n/a	n/a	n/a	n/a	n/a	n/a
83.7929	0.55	INK	19	Incongruent	zielony	green	niebieski	blue	incorrect	n/a
84.3157	n/a	RESPONSE	n/a	n/a	n/a	n/a	n/a	n/a	n/a	green
84.3429	1.0167	ITI	n/a	n/a	n/a	n/a	n/a	n/a	n/a	n/a
84.5395	n/a	RESPONSE	n/a	n/a	n/a	n/a	n/a	n/a	n/a	blue
85.3595	0.5167	FIXCROSS	n/a	n/a	n/a	n/a	n/a	n/a	n/a	n/a
85.8762	0.5667	INK	20	Neutral	xxxxxxx	xxxxxxx	niebieski	blue	hit	n/a
86.4112	n/a	RESPONSE	n/a	n/a	n/a	n/a	n/a	n/a	n/a	blue
86.4429	1.0167	ITI	n/a	n/a	n/a	n/a	n/a	n/a	n/a	n/a
87.4596	0.5167	FIXCROSS	n/a	n/a	n/a	n/a	n/a	n/a	n/a	n/a
87.9762	0.7667	INK	21	Neutral	xxxxxxxx	xxxxxxxx	zielony	green	hit	n/a
88.7146	n/a	RESPONSE	n/a	n/a	n/a	n/a	n/a	n/a	n/a	green
88.7429	1.0167	ITI	n/a	n/a	n/a	n/a	n/a	n/a	n/a	n/a
89.7596	0.5167	FIXCROSS	n/a	n/a	n/a	n/a	n/a	n/a	n/a	n/a
90.2763	0.5833	INK	22	Neutral	xxxxxxxx	xxxxxxxx	zielony	green	hit	n/a
90.8261	n/a	RESPONSE	n/a	n/a	n/a	n/a	n/a	n/a	n/a	green
90.8596	1.0164	ITI	n/a	n/a	n/a	n/a	n/a	n/a	n/a	n/a
91.876	0.5169	FIXCROSS	n/a	n/a	n/a	n/a	n/a	n/a	n/a	n/a
92.393	0.55	INK	23	Incongruent	żółty	yellow	zielony	green	hit	n/a
92.9216	n/a	RESPONSE	n/a	n/a	n/a	n/a	n/a	n/a	n/a	green
92.943	1.0167	ITI	n/a	n/a	n/a	n/a	n/a	n/a	n/a	n/a
93.9596	0.5167	FIXCROSS	n/a	n/a	n/a	n/a	n/a	n/a	n/a	n/a
94.4763	0.65	INK	24	Incongruent	czerwony	red	zielony	green	hit	n/a
95.0971	n/a	RESPONSE	n/a	n/a	n/a	n/a	n/a	n/a	n/a	green
95.1263	1.0167	ITI	n/a	n/a	n/a	n/a	n/a	n/a	n/a	n/a
96.143	0.5167	FIXCROSS	n/a	n/a	n/a	n/a	n/a	n/a	n/a	n/a
96.6597	0.7167	INK	25	Incongruent	żółty	yellow	niebieski	blue	hit	n/a
97.3525	n/a	RESPONSE	n/a	n/a	n/a	n/a	n/a	n/a	n/a	blue
97.3764	1.0167	ITI	n/a	n/a	n/a	n/a	n/a	n/a	n/a	n/a
98.393	0.5167	FIXCROSS	n/a	n/a	n/a	n/a	n/a	n/a	n/a	n/a
98.9097	0.5667	INK	26	Neutral	xxxxxxxx	xxxxxxxx	niebieski	blue	hit	n/a
99.448	n/a	RESPONSE	n/a	n/a	n/a	n/a	n/a	n/a	n/a	blue
99.4764	1.0167	ITI	n/a	n/a	n/a	n/a	n/a	n/a	n/a	n/a
100.4931	0.5167	FIXCROSS	n/a	n/a	n/a	n/a	n/a	n/a	n/a	n/a
101.0097	0.5167	INK	27	Neutral	xxxxxxx	xxxxxxx	czerwony	red	hit	n/a
101.4955	n/a	RESPONSE	n/a	n/a	n/a	n/a	n/a	n/a	n/a	red
101.5264	1.0167	ITI	n/a	n/a	n/a	n/a	n/a	n/a	n/a	n/a
102.5431	0.5167	FIXCROSS	n/a	n/a	n/a	n/a	n/a	n/a	n/a	n/a
103.0598	0.7167	INK	28	Incongruent	zielony	green	niebieski	blue	hit	n/a
103.7509	n/a	RESPONSE	n/a	n/a	n/a	n/a	n/a	n/a	n/a	blue
103.7764	1.0167	ITI	n/a	n/a	n/a	n/a	n/a	n/a	n/a	n/a
104.7931	0.5167	FIXCROSS	n/a	n/a	n/a	n/a	n/a	n/a	n/a	n/a
105.3098	0.4333	INK	29	Neutral	xxxxxxxxx	xxxxxxxxx	żółty	yellow	hit	n/a
105.7185	n/a	RESPONSE	n/a	n/a	n/a	n/a	n/a	n/a	n/a	yellow
105.7431	1.0167	ITI	n/a	n/a	n/a	n/a	n/a	n/a	n/a	n/a
106.7598	0.5167	FIXCROSS	n/a	n/a	n/a	n/a	n/a	n/a	n/a	n/a
107.2765	0.6833	INK	30	Incongruent	niebieski	blue	zielony	green	hit	n/a
107.926	n/a	RESPONSE	n/a	n/a	n/a	n/a	n/a	n/a	n/a	green
107.9598	1.0167	ITI	n/a	n/a	n/a	n/a	n/a	n/a	n/a	n/a
108.9765	0.5167	FIXCROSS	n/a	n/a	n/a	n/a	n/a	n/a	n/a	n/a
109.4932	0.4833	INK	31	Incongruent	niebieski	blue	czerwony	red	hit	n/a
109.9574	n/a	RESPONSE	n/a	n/a	n/a	n/a	n/a	n/a	n/a	red
109.9765	1.0167	ITI	n/a	n/a	n/a	n/a	n/a	n/a	n/a	n/a
110.9932	0.5167	FIXCROSS	n/a	n/a	n/a	n/a	n/a	n/a	n/a	n/a
111.5099	0.4	INK	32	Neutral	xxxxx	xxxxx	niebieski	blue	hit	n/a
111.877	n/a	RESPONSE	n/a	n/a	n/a	n/a	n/a	n/a	n/a	blue
111.9099	1.0167	ITI	n/a	n/a	n/a	n/a	n/a	n/a	n/a	n/a
112.9265	0.5167	FIXCROSS	n/a	n/a	n/a	n/a	n/a	n/a	n/a	n/a
113.4432	0.8833	INK	33	Incongruent	niebieski	blue	czerwony	red	hit	n/a
114.3084	n/a	RESPONSE	n/a	n/a	n/a	n/a	n/a	n/a	n/a	red
114.3266	1.0167	ITI	n/a	n/a	n/a	n/a	n/a	n/a	n/a	n/a
115.3432	0.5167	FIXCROSS	n/a	n/a	n/a	n/a	n/a	n/a	n/a	n/a
115.8599	0.6833	INK	34	Incongruent	zielony	green	żółty	yellow	hit	n/a
116.5159	n/a	RESPONSE	n/a	n/a	n/a	n/a	n/a	n/a	n/a	yellow
116.5432	1.0167	ITI	n/a	n/a	n/a	n/a	n/a	n/a	n/a	n/a
117.5599	0.5167	FIXCROSS	n/a	n/a	n/a	n/a	n/a	n/a	n/a	n/a
118.0766	0.5833	INK	35	Neutral	xxxxx	xxxxx	niebieski	blue	hit	n/a
118.6274	n/a	RESPONSE	n/a	n/a	n/a	n/a	n/a	n/a	n/a	blue
118.6599	1.0167	ITI	n/a	n/a	n/a	n/a	n/a	n/a	n/a	n/a
119.6766	0.5167	FIXCROSS	n/a	n/a	n/a	n/a	n/a	n/a	n/a	n/a
120.1933	0.55	INK	36	Neutral	xxxxxxx	xxxxxxx	czerwony	red	hit	n/a
120.7228	n/a	RESPONSE	n/a	n/a	n/a	n/a	n/a	n/a	n/a	red
120.7433	1.0167	ITI	n/a	n/a	n/a	n/a	n/a	n/a	n/a	n/a
121.76	0.5167	FIXCROSS	n/a	n/a	n/a	n/a	n/a	n/a	n/a	n/a
122.2766	0.5	INK	37	Neutral	xxxxx	xxxxx	czerwony	red	hit	n/a
122.7544	n/a	RESPONSE	n/a	n/a	n/a	n/a	n/a	n/a	n/a	red
122.7767	1.0167	ITI	n/a	n/a	n/a	n/a	n/a	n/a	n/a	n/a
123.7933	0.5167	FIXCROSS	n/a	n/a	n/a	n/a	n/a	n/a	n/a	n/a
124.31	0.6333	INK	38	Neutral	xxxxx	xxxxx	zielony	green	hit	n/a
124.9138	n/a	RESPONSE	n/a	n/a	n/a	n/a	n/a	n/a	n/a	green
124.9433	1.0167	ITI	n/a	n/a	n/a	n/a	n/a	n/a	n/a	n/a
125.96	0.5167	FIXCROSS	n/a	n/a	n/a	n/a	n/a	n/a	n/a	n/a
126.4767	0.7	INK	39	Incongruent	niebieski	blue	zielony	green	hit	n/a
127.1533	n/a	RESPONSE	n/a	n/a	n/a	n/a	n/a	n/a	n/a	green
127.1767	1.0166	ITI	n/a	n/a	n/a	n/a	n/a	n/a	n/a	n/a
128.1933	0.5168	FIXCROSS	n/a	n/a	n/a	n/a	n/a	n/a	n/a	n/a
128.7101	0.5833	INK	40	Incongruent	żółty	yellow	niebieski	blue	hit	n/a
129.2648	n/a	RESPONSE	n/a	n/a	n/a	n/a	n/a	n/a	n/a	blue
129.2934	1.0167	ITI	n/a	n/a	n/a	n/a	n/a	n/a	n/a	n/a
130.3101	0.5167	FIXCROSS	n/a	n/a	n/a	n/a	n/a	n/a	n/a	n/a
130.8267	0.5833	INK	41	Incongruent	żółty	yellow	niebieski	blue	hit	n/a
131.3763	n/a	RESPONSE	n/a	n/a	n/a	n/a	n/a	n/a	n/a	blue
131.4101	1.0167	ITI	n/a	n/a	n/a	n/a	n/a	n/a	n/a	n/a
132.4268	0.5167	FIXCROSS	n/a	n/a	n/a	n/a	n/a	n/a	n/a	n/a
132.9434	0.45	INK	42	Neutral	xxxxx	xxxxx	niebieski	blue	hit	n/a
133.3598	n/a	RESPONSE	n/a	n/a	n/a	n/a	n/a	n/a	n/a	blue
133.3934	1.0167	ITI	n/a	n/a	n/a	n/a	n/a	n/a	n/a	n/a
134.4101	0.5167	FIXCROSS	n/a	n/a	n/a	n/a	n/a	n/a	n/a	n/a
134.9268	0.5833	INK	43	Neutral	xxxxxxxx	xxxxxxxx	zielony	green	hit	n/a
135.4873	n/a	RESPONSE	n/a	n/a	n/a	n/a	n/a	n/a	n/a	green
135.5101	1.0167	ITI	n/a	n/a	n/a	n/a	n/a	n/a	n/a	n/a
136.5268	0.5167	FIXCROSS	n/a	n/a	n/a	n/a	n/a	n/a	n/a	n/a
137.0435	0.4667	INK	44	Neutral	xxxxx	xxxxx	zielony	green	hit	n/a
137.4868	n/a	RESPONSE	n/a	n/a	n/a	n/a	n/a	n/a	n/a	green
137.5102	1.0167	ITI	n/a	n/a	n/a	n/a	n/a	n/a	n/a	n/a
138.5268	0.5167	FIXCROSS	n/a	n/a	n/a	n/a	n/a	n/a	n/a	n/a
139.0435	0.5	INK	45	Incongruent	zielony	green	czerwony	red	hit	n/a
139.5183	n/a	RESPONSE	n/a	n/a	n/a	n/a	n/a	n/a	n/a	red
139.5435	1.0167	ITI	n/a	n/a	n/a	n/a	n/a	n/a	n/a	n/a
140.5602	0.5167	FIXCROSS	n/a	n/a	n/a	n/a	n/a	n/a	n/a	n/a
141.0769	0.5667	INK	46	Neutral	xxxxxxx	xxxxxxx	czerwony	red	hit	n/a
141.6138	n/a	RESPONSE	n/a	n/a	n/a	n/a	n/a	n/a	n/a	red
141.6435	1.0167	ITI	n/a	n/a	n/a	n/a	n/a	n/a	n/a	n/a
142.6602	0.5167	FIXCROSS	n/a	n/a	n/a	n/a	n/a	n/a	n/a	n/a
143.1769	0.4333	INK	47	Neutral	xxxxxxx	xxxxxxx	niebieski	blue	hit	n/a
143.5813	n/a	RESPONSE	n/a	n/a	n/a	n/a	n/a	n/a	n/a	blue
143.6102	1.0167	ITI	n/a	n/a	n/a	n/a	n/a	n/a	n/a	n/a
144.6269	0.5167	FIXCROSS	n/a	n/a	n/a	n/a	n/a	n/a	n/a	n/a
145.1436	0.4	INK	48	Neutral	xxxxxxxxx	xxxxxxxxx	czerwony	red	hit	n/a
145.5169	n/a	RESPONSE	n/a	n/a	n/a	n/a	n/a	n/a	n/a	red
145.5436	1.0167	ITI	n/a	n/a	n/a	n/a	n/a	n/a	n/a	n/a
146.5603	0.5167	FIXCROSS	n/a	n/a	n/a	n/a	n/a	n/a	n/a	n/a
147.0769	0.65	INK	49	Incongruent	czerwony	red	żółty	yellow	hit	n/a
147.7083	n/a	RESPONSE	n/a	n/a	n/a	n/a	n/a	n/a	n/a	yellow
147.7269	1.0167	ITI	n/a	n/a	n/a	n/a	n/a	n/a	n/a	n/a
148.7436	0.5167	FIXCROSS	n/a	n/a	n/a	n/a	n/a	n/a	n/a	n/a
149.2603	0.4667	INK	50	Incongruent	żółty	yellow	czerwony	red	hit	n/a
149.7079	n/a	RESPONSE	n/a	n/a	n/a	n/a	n/a	n/a	n/a	red
149.727	1.0167	ITI	n/a	n/a	n/a	n/a	n/a	n/a	n/a	n/a
150.7437	0.5167	FIXCROSS	n/a	n/a	n/a	n/a	n/a	n/a	n/a	n/a
151.2603	0.3333	INK	51	Neutral	xxxxxxxx	xxxxxxxx	niebieski	blue	hit	n/a
151.5634	n/a	RESPONSE	n/a	n/a	n/a	n/a	n/a	n/a	n/a	blue
151.5937	1.0167	ITI	n/a	n/a	n/a	n/a	n/a	n/a	n/a	n/a
152.6103	0.5167	FIXCROSS	n/a	n/a	n/a	n/a	n/a	n/a	n/a	n/a
153.127	0.45	INK	52	Incongruent	żółty	yellow	czerwony	red	hit	n/a
153.5469	n/a	RESPONSE	n/a	n/a	n/a	n/a	n/a	n/a	n/a	red
153.577	1.0167	ITI	n/a	n/a	n/a	n/a	n/a	n/a	n/a	n/a
154.5937	0.5167	FIXCROSS	n/a	n/a	n/a	n/a	n/a	n/a	n/a	n/a
155.1104	0.5667	INK	53	Incongruent	czerwony	red	żółty	yellow	hit	n/a
155.6584	n/a	RESPONSE	n/a	n/a	n/a	n/a	n/a	n/a	n/a	yellow
155.677	1.0167	ITI	n/a	n/a	n/a	n/a	n/a	n/a	n/a	n/a
156.6937	0.5167	FIXCROSS	n/a	n/a	n/a	n/a	n/a	n/a	n/a	n/a
157.2104	0.7167	INK	54	Incongruent	czerwony	red	zielony	green	hit	n/a
157.8979	n/a	RESPONSE	n/a	n/a	n/a	n/a	n/a	n/a	n/a	green
157.9271	1.0167	ITI	n/a	n/a	n/a	n/a	n/a	n/a	n/a	n/a
158.9437	0.5167	FIXCROSS	n/a	n/a	n/a	n/a	n/a	n/a	n/a	n/a
159.4604	0.5833	INK	55	Incongruent	żółty	yellow	czerwony	red	hit	n/a
160.0253	n/a	RESPONSE	n/a	n/a	n/a	n/a	n/a	n/a	n/a	red
160.0438	1.0167	ITI	n/a	n/a	n/a	n/a	n/a	n/a	n/a	n/a
161.0604	0.5167	FIXCROSS	n/a	n/a	n/a	n/a	n/a	n/a	n/a	n/a
161.5771	0.55	INK	56	Incongruent	czerwony	red	niebieski	blue	hit	n/a
162.1048	n/a	RESPONSE	n/a	n/a	n/a	n/a	n/a	n/a	n/a	blue
162.1271	1.0167	ITI	n/a	n/a	n/a	n/a	n/a	n/a	n/a	n/a
163.1438	0.5167	FIXCROSS	n/a	n/a	n/a	n/a	n/a	n/a	n/a	n/a
163.6605	0.6167	INK	57	Incongruent	żółty	yellow	zielony	green	hit	n/a
164.2483	n/a	RESPONSE	n/a	n/a	n/a	n/a	n/a	n/a	n/a	green
164.2771	1.0167	ITI	n/a	n/a	n/a	n/a	n/a	n/a	n/a	n/a
165.2938	0.5167	FIXCROSS	n/a	n/a	n/a	n/a	n/a	n/a	n/a	n/a
165.8105	0.5667	INK	58	Incongruent	niebieski	blue	żółty	yellow	hit	n/a
166.3438	n/a	RESPONSE	n/a	n/a	n/a	n/a	n/a	n/a	n/a	yellow
166.3772	1.0167	ITI	n/a	n/a	n/a	n/a	n/a	n/a	n/a	n/a
167.3938	0.5167	FIXCROSS	n/a	n/a	n/a	n/a	n/a	n/a	n/a	n/a
167.9105	0.4833	INK	59	Neutral	xxxxxxx	xxxxxxx	niebieski	blue	hit	n/a
168.3753	n/a	RESPONSE	n/a	n/a	n/a	n/a	n/a	n/a	n/a	blue
168.3939	1.0167	ITI	n/a	n/a	n/a	n/a	n/a	n/a	n/a	n/a
169.4105	0.5167	FIXCROSS	n/a	n/a	n/a	n/a	n/a	n/a	n/a	n/a
169.9272	0.4333	INK	60	Incongruent	czerwony	red	niebieski	blue	hit	n/a
170.3428	n/a	RESPONSE	n/a	n/a	n/a	n/a	n/a	n/a	n/a	blue
170.3605	1.0167	ITI	n/a	n/a	n/a	n/a	n/a	n/a	n/a	n/a
171.3772	0.5167	FIXCROSS	n/a	n/a	n/a	n/a	n/a	n/a	n/a	n/a
171.8939	0.6834	INK	61	Incongruent	zielony	green	czerwony	red	hit	n/a
172.5503	n/a	RESPONSE	n/a	n/a	n/a	n/a	n/a	n/a	n/a	red
172.5772	1.0167	ITI	n/a	n/a	n/a	n/a	n/a	n/a	n/a	n/a
173.5939	0.5167	FIXCROSS	n/a	n/a	n/a	n/a	n/a	n/a	n/a	n/a
174.1106	0.6333	INK	62	Neutral	xxxxxxxxx	xxxxxxxxx	zielony	green	hit	n/a
174.7258	n/a	RESPONSE	n/a	n/a	n/a	n/a	n/a	n/a	n/a	green
174.7439	1.0167	ITI	n/a	n/a	n/a	n/a	n/a	n/a	n/a	n/a
175.7606	0.5167	FIXCROSS	n/a	n/a	n/a	n/a	n/a	n/a	n/a	n/a
176.2773	0.45	INK	63	Incongruent	niebieski	blue	zielony	green	hit	n/a
176.7093	n/a	RESPONSE	n/a	n/a	n/a	n/a	n/a	n/a	n/a	green
176.7273	1.0167	ITI	n/a	n/a	n/a	n/a	n/a	n/a	n/a	n/a
177.744	0.5167	FIXCROSS	n/a	n/a	n/a	n/a	n/a	n/a	n/a	n/a
178.2606	0.6	INK	64	Incongruent	niebieski	blue	żółty	yellow	hit	n/a
178.8368	n/a	RESPONSE	n/a	n/a	n/a	n/a	n/a	n/a	n/a	yellow
178.8606	1.0167	ITI	n/a	n/a	n/a	n/a	n/a	n/a	n/a	n/a
179.8773	0.5167	FIXCROSS	n/a	n/a	n/a	n/a	n/a	n/a	n/a	n/a
180.394	0.5834	INK	65	Neutral	xxxxx	xxxxx	czerwony	red	hit	n/a
180.9482	n/a	RESPONSE	n/a	n/a	n/a	n/a	n/a	n/a	n/a	red
180.9773	1.0167	ITI	n/a	n/a	n/a	n/a	n/a	n/a	n/a	n/a
181.994	0.5167	FIXCROSS	n/a	n/a	n/a	n/a	n/a	n/a	n/a	n/a
182.5107	0.5833	INK	66	Incongruent	czerwony	red	niebieski	blue	hit	n/a
183.0758	n/a	RESPONSE	n/a	n/a	n/a	n/a	n/a	n/a	n/a	blue
183.094	1.0167	ITI	n/a	n/a	n/a	n/a	n/a	n/a	n/a	n/a
184.1107	0.5167	FIXCROSS	n/a	n/a	n/a	n/a	n/a	n/a	n/a	n/a
184.6274	0.5334	INK	67	Neutral	xxxxxxxx	xxxxxxxx	żółty	yellow	hit	n/a
185.1393	n/a	RESPONSE	n/a	n/a	n/a	n/a	n/a	n/a	n/a	yellow
185.1607	1.0167	ITI	n/a	n/a	n/a	n/a	n/a	n/a	n/a	n/a
186.1774	0.5167	FIXCROSS	n/a	n/a	n/a	n/a	n/a	n/a	n/a	n/a
186.6941	0.4667	INK	68	Neutral	xxxxxxxxx	xxxxxxxxx	żółty	yellow	hit	n/a
187.1388	n/a	RESPONSE	n/a	n/a	n/a	n/a	n/a	n/a	n/a	yellow
187.1607	1.0167	ITI	n/a	n/a	n/a	n/a	n/a	n/a	n/a	n/a
188.1774	0.5167	FIXCROSS	n/a	n/a	n/a	n/a	n/a	n/a	n/a	n/a
188.6941	0.7167	INK	69	Neutral	xxxxx	xxxxx	zielony	green	hit	n/a
189.3782	n/a	RESPONSE	n/a	n/a	n/a	n/a	n/a	n/a	n/a	green
189.4108	1.0167	ITI	n/a	n/a	n/a	n/a	n/a	n/a	n/a	n/a
190.4274	0.5167	FIXCROSS	n/a	n/a	n/a	n/a	n/a	n/a	n/a	n/a
190.9441	0.5333	INK	70	Neutral	xxxxxxxx	xxxxxxxx	żółty	yellow	hit	n/a
191.4577	n/a	RESPONSE	n/a	n/a	n/a	n/a	n/a	n/a	n/a	yellow
191.4775	1.0167	ITI	n/a	n/a	n/a	n/a	n/a	n/a	n/a	n/a
192.4941	0.5167	FIXCROSS	n/a	n/a	n/a	n/a	n/a	n/a	n/a	n/a
193.0108	0.4833	INK	71	Neutral	xxxxxxxxx	xxxxxxxxx	czerwony	red	hit	n/a
193.4732	n/a	RESPONSE	n/a	n/a	n/a	n/a	n/a	n/a	n/a	red
193.4942	1.0167	ITI	n/a	n/a	n/a	n/a	n/a	n/a	n/a	n/a
194.5108	0.5167	FIXCROSS	n/a	n/a	n/a	n/a	n/a	n/a	n/a	n/a
195.0275	0.5	INK	72	Neutral	xxxxxxxxx	xxxxxxxxx	zielony	green	hit	n/a
195.5048	n/a	RESPONSE	n/a	n/a	n/a	n/a	n/a	n/a	n/a	green
195.5275	1.0833	ITI	n/a	n/a	n/a	n/a	n/a	n/a	n/a	n/a
199.6638	n/a	RESPONSE	n/a	n/a	n/a	n/a	n/a	n/a	n/a	n/a
199.7276	1.0167	ITI	n/a	n/a	n/a	n/a	n/a	n/a	n/a	n/a
200.7442	0.5167	FIXCROSS	n/a	n/a	n/a	n/a	n/a	n/a	n/a	n/a
201.2609	1.3	T_COLOR_NAME	1	Incongruent	niebieski	blue	zielony	green	hit	n/a
202.5271	n/a	RESPONSE	n/a	n/a	n/a	n/a	n/a	n/a	n/a	blue
202.5609	0.5167	FEEDBACK	n/a	n/a	n/a	n/a	n/a	n/a	n/a	n/a
203.0776	1.0167	ITI	n/a	n/a	n/a	n/a	n/a	n/a	n/a	n/a
204.0943	0.5167	FIXCROSS	n/a	n/a	n/a	n/a	n/a	n/a	n/a	n/a
204.611	0.9167	T_COLOR_NAME	2	Neutral	zielony	green	Neutral	Neutral	hit	n/a
205.5024	n/a	RESPONSE	n/a	n/a	n/a	n/a	n/a	n/a	n/a	green
205.5276	0.5167	FEEDBACK	n/a	n/a	n/a	n/a	n/a	n/a	n/a	n/a
206.0443	1.0167	ITI	n/a	n/a	n/a	n/a	n/a	n/a	n/a	n/a
207.061	0.5167	FIXCROSS	n/a	n/a	n/a	n/a	n/a	n/a	n/a	n/a
207.5776	0.6167	T_COLOR_NAME	3	Neutral	niebieski	blue	Neutral	Neutral	hit	n/a
208.1737	n/a	RESPONSE	n/a	n/a	n/a	n/a	n/a	n/a	n/a	blue
208.1943	0.5167	FEEDBACK	n/a	n/a	n/a	n/a	n/a	n/a	n/a	n/a
208.711	1.0167	ITI	n/a	n/a	n/a	n/a	n/a	n/a	n/a	n/a
209.7277	0.5167	FIXCROSS	n/a	n/a	n/a	n/a	n/a	n/a	n/a	n/a
210.2443	0.7167	T_COLOR_NAME	4	Incongruent	niebieski	blue	żółty	yellow	hit	n/a
210.941	n/a	RESPONSE	n/a	n/a	n/a	n/a	n/a	n/a	n/a	blue
210.961	0.5167	FEEDBACK	n/a	n/a	n/a	n/a	n/a	n/a	n/a	n/a
211.4777	1.0167	ITI	n/a	n/a	n/a	n/a	n/a	n/a	n/a	n/a
212.4944	0.5167	FIXCROSS	n/a	n/a	n/a	n/a	n/a	n/a	n/a	n/a
213.011	0.7167	T_COLOR_NAME	5	Incongruent	zielony	green	czerwony	red	hit	n/a
213.7084	n/a	RESPONSE	n/a	n/a	n/a	n/a	n/a	n/a	n/a	green
213.7277	0.5167	FEEDBACK	n/a	n/a	n/a	n/a	n/a	n/a	n/a	n/a
214.2444	1.0167	ITI	n/a	n/a	n/a	n/a	n/a	n/a	n/a	n/a
215.2611	0.5167	FIXCROSS	n/a	n/a	n/a	n/a	n/a	n/a	n/a	n/a
215.7777	0.9667	T_COLOR_NAME	6	Incongruent	żółty	yellow	zielony	green	hit	n/a
216.7156	n/a	RESPONSE	n/a	n/a	n/a	n/a	n/a	n/a	n/a	yellow
216.7444	0.5167	FEEDBACK	n/a	n/a	n/a	n/a	n/a	n/a	n/a	n/a
217.2611	1.0167	ITI	n/a	n/a	n/a	n/a	n/a	n/a	n/a	n/a
218.2778	0.5167	FIXCROSS	n/a	n/a	n/a	n/a	n/a	n/a	n/a	n/a
218.7945	0.6833	T_COLOR_NAME	7	Neutral	żółty	yellow	Neutral	Neutral	hit	n/a
219.451	n/a	RESPONSE	n/a	n/a	n/a	n/a	n/a	n/a	n/a	yellow
219.4778	0.5167	FEEDBACK	n/a	n/a	n/a	n/a	n/a	n/a	n/a	n/a
219.9945	1.0167	ITI	n/a	n/a	n/a	n/a	n/a	n/a	n/a	n/a
221.0111	0.5167	FIXCROSS	n/a	n/a	n/a	n/a	n/a	n/a	n/a	n/a
221.5278	0.8167	T_COLOR_NAME	8	Incongruent	zielony	green	niebieski	blue	hit	n/a
222.3143	n/a	RESPONSE	n/a	n/a	n/a	n/a	n/a	n/a	n/a	green
222.3445	0.5167	FEEDBACK	n/a	n/a	n/a	n/a	n/a	n/a	n/a	n/a
222.8612	1.0167	ITI	n/a	n/a	n/a	n/a	n/a	n/a	n/a	n/a
223.8778	0.5167	FIXCROSS	n/a	n/a	n/a	n/a	n/a	n/a	n/a	n/a
224.3945	0.8	T_COLOR_NAME	9	Neutral	niebieski	blue	Neutral	Neutral	hit	n/a
225.1616	n/a	RESPONSE	n/a	n/a	n/a	n/a	n/a	n/a	n/a	blue
225.1945	0.5167	FEEDBACK	n/a	n/a	n/a	n/a	n/a	n/a	n/a	n/a
225.7112	1.0167	ITI	n/a	n/a	n/a	n/a	n/a	n/a	n/a	n/a
226.7279	0.5167	FIXCROSS	n/a	n/a	n/a	n/a	n/a	n/a	n/a	n/a
227.2445	0.7834	T_COLOR_NAME	10	Incongruent	czerwony	red	zielony	green	hit	n/a
227.9929	n/a	RESPONSE	n/a	n/a	n/a	n/a	n/a	n/a	n/a	red
228.0279	0.5167	FEEDBACK	n/a	n/a	n/a	n/a	n/a	n/a	n/a	n/a
228.5446	1.0167	ITI	n/a	n/a	n/a	n/a	n/a	n/a	n/a	n/a
229.5612	0.5167	FIXCROSS	n/a	n/a	n/a	n/a	n/a	n/a	n/a	n/a
230.0779	0.5833	T_COLOR_NAME	11	Neutral	żółty	yellow	Neutral	Neutral	hit	n/a
230.6323	n/a	RESPONSE	n/a	n/a	n/a	n/a	n/a	n/a	n/a	yellow
230.6612	0.5167	FEEDBACK	n/a	n/a	n/a	n/a	n/a	n/a	n/a	n/a
231.1779	1.0167	ITI	n/a	n/a	n/a	n/a	n/a	n/a	n/a	n/a
232.1946	0.5167	FIXCROSS	n/a	n/a	n/a	n/a	n/a	n/a	n/a	n/a
232.7113	0.6167	T_COLOR_NAME	12	Incongruent	czerwony	red	niebieski	blue	hit	n/a
233.3036	n/a	RESPONSE	n/a	n/a	n/a	n/a	n/a	n/a	n/a	red
233.3279	0.5167	FEEDBACK	n/a	n/a	n/a	n/a	n/a	n/a	n/a	n/a
233.8446	1.0333	ITI	n/a	n/a	n/a	n/a	n/a	n/a	n/a	n/a
237.1427	n/a	RESPONSE	n/a	n/a	n/a	n/a	n/a	n/a	n/a	n/a
237.1947	1.0167	ITI	n/a	n/a	n/a	n/a	n/a	n/a	n/a	n/a
238.2113	0.5167	FIXCROSS	n/a	n/a	n/a	n/a	n/a	n/a	n/a	n/a
238.728	0.8667	COLOR_NAME	1	Incongruent	zielony	green	czerwony	red	hit	n/a
239.5741	n/a	RESPONSE	n/a	n/a	n/a	n/a	n/a	n/a	n/a	green
239.5947	1.0167	ITI	n/a	n/a	n/a	n/a	n/a	n/a	n/a	n/a
240.6114	0.5167	FIXCROSS	n/a	n/a	n/a	n/a	n/a	n/a	n/a	n/a
241.128	0.55	COLOR_NAME	2	Incongruent	zielony	green	żółty	yellow	hit	n/a
241.6536	n/a	RESPONSE	n/a	n/a	n/a	n/a	n/a	n/a	n/a	green
241.6781	1.0167	ITI	n/a	n/a	n/a	n/a	n/a	n/a	n/a	n/a
242.6947	0.5167	FIXCROSS	n/a	n/a	n/a	n/a	n/a	n/a	n/a	n/a
243.2114	0.6	COLOR_NAME	3	Incongruent	żółty	yellow	zielony	green	hit	n/a
243.7811	n/a	RESPONSE	n/a	n/a	n/a	n/a	n/a	n/a	n/a	yellow
243.8114	1.0167	ITI	n/a	n/a	n/a	n/a	n/a	n/a	n/a	n/a
244.8281	0.5167	FIXCROSS	n/a	n/a	n/a	n/a	n/a	n/a	n/a	n/a
245.3448	0.5333	COLOR_NAME	4	Incongruent	żółty	yellow	niebieski	blue	hit	n/a
245.8446	n/a	RESPONSE	n/a	n/a	n/a	n/a	n/a	n/a	n/a	yellow
245.8781	1.0167	ITI	n/a	n/a	n/a	n/a	n/a	n/a	n/a	n/a
246.8948	0.5167	FIXCROSS	n/a	n/a	n/a	n/a	n/a	n/a	n/a	n/a
247.4114	0.4833	COLOR_NAME	5	Neutral	żółty	yellow	Neutral	Neutral	hit	n/a
247.8761	n/a	RESPONSE	n/a	n/a	n/a	n/a	n/a	n/a	n/a	yellow
247.8948	1.0167	ITI	n/a	n/a	n/a	n/a	n/a	n/a	n/a	n/a
248.9115	0.5167	FIXCROSS	n/a	n/a	n/a	n/a	n/a	n/a	n/a	n/a
249.4281	0.5667	COLOR_NAME	6	Incongruent	niebieski	blue	czerwony	red	hit	n/a
249.9716	n/a	RESPONSE	n/a	n/a	n/a	n/a	n/a	n/a	n/a	blue
249.9948	1.0167	ITI	n/a	n/a	n/a	n/a	n/a	n/a	n/a	n/a
251.0115	0.5167	FIXCROSS	n/a	n/a	n/a	n/a	n/a	n/a	n/a	n/a
251.5282	0.5333	COLOR_NAME	7	Incongruent	czerwony	red	żółty	yellow	hit	n/a
252.0351	n/a	RESPONSE	n/a	n/a	n/a	n/a	n/a	n/a	n/a	red
252.0615	1.0167	ITI	n/a	n/a	n/a	n/a	n/a	n/a	n/a	n/a
253.0782	0.5167	FIXCROSS	n/a	n/a	n/a	n/a	n/a	n/a	n/a	n/a
253.5948	0.6667	COLOR_NAME	8	Incongruent	zielony	green	niebieski	blue	hit	n/a
254.2426	n/a	RESPONSE	n/a	n/a	n/a	n/a	n/a	n/a	n/a	green
254.2615	1.0167	ITI	n/a	n/a	n/a	n/a	n/a	n/a	n/a	n/a
255.2782	0.5167	FIXCROSS	n/a	n/a	n/a	n/a	n/a	n/a	n/a	n/a
255.7949	0.7167	COLOR_NAME	9	Incongruent	czerwony	red	żółty	yellow	hit	n/a
256.482	n/a	RESPONSE	n/a	n/a	n/a	n/a	n/a	n/a	n/a	red
256.5115	1.0167	ITI	n/a	n/a	n/a	n/a	n/a	n/a	n/a	n/a
257.5282	0.5167	FIXCROSS	n/a	n/a	n/a	n/a	n/a	n/a	n/a	n/a
258.0449	0.5333	COLOR_NAME	10	Incongruent	żółty	yellow	zielony	green	hit	n/a
258.5455	n/a	RESPONSE	n/a	n/a	n/a	n/a	n/a	n/a	n/a	yellow
258.5782	1.0167	ITI	n/a	n/a	n/a	n/a	n/a	n/a	n/a	n/a
259.5949	0.5167	FIXCROSS	n/a	n/a	n/a	n/a	n/a	n/a	n/a	n/a
260.1116	0.6	COLOR_NAME	11	Incongruent	żółty	yellow	czerwony	red	hit	n/a
260.689	n/a	RESPONSE	n/a	n/a	n/a	n/a	n/a	n/a	n/a	yellow
260.7116	1.0167	ITI	n/a	n/a	n/a	n/a	n/a	n/a	n/a	n/a
261.7283	0.5167	FIXCROSS	n/a	n/a	n/a	n/a	n/a	n/a	n/a	n/a
262.245	0.6333	COLOR_NAME	12	Neutral	niebieski	blue	Neutral	Neutral	hit	n/a
262.8485	n/a	RESPONSE	n/a	n/a	n/a	n/a	n/a	n/a	n/a	blue
262.8783	1.0167	ITI	n/a	n/a	n/a	n/a	n/a	n/a	n/a	n/a
263.895	0.5167	FIXCROSS	n/a	n/a	n/a	n/a	n/a	n/a	n/a	n/a
264.4116	0.5667	COLOR_NAME	13	Incongruent	zielony	green	czerwony	red	incorrect	n/a
264.96	n/a	RESPONSE	n/a	n/a	n/a	n/a	n/a	n/a	n/a	red
264.9783	1.0167	ITI	n/a	n/a	n/a	n/a	n/a	n/a	n/a	n/a
265.995	0.5167	FIXCROSS	n/a	n/a	n/a	n/a	n/a	n/a	n/a	n/a
266.5117	0.6667	COLOR_NAME	14	Neutral	niebieski	blue	Neutral	Neutral	hit	n/a
267.1514	n/a	RESPONSE	n/a	n/a	n/a	n/a	n/a	n/a	n/a	blue
267.1783	1.0167	ITI	n/a	n/a	n/a	n/a	n/a	n/a	n/a	n/a
268.195	0.5167	FIXCROSS	n/a	n/a	n/a	n/a	n/a	n/a	n/a	n/a
268.7117	0.75	COLOR_NAME	15	Incongruent	żółty	yellow	czerwony	red	hit	n/a
269.4389	n/a	RESPONSE	n/a	n/a	n/a	n/a	n/a	n/a	n/a	yellow
269.4617	1.0167	ITI	n/a	n/a	n/a	n/a	n/a	n/a	n/a	n/a
270.4784	0.5167	FIXCROSS	n/a	n/a	n/a	n/a	n/a	n/a	n/a	n/a
270.9951	0.6167	COLOR_NAME	16	Neutral	zielony	green	Neutral	Neutral	hit	n/a
271.5824	n/a	RESPONSE	n/a	n/a	n/a	n/a	n/a	n/a	n/a	green
271.6117	1.0167	ITI	n/a	n/a	n/a	n/a	n/a	n/a	n/a	n/a
272.6284	0.5167	FIXCROSS	n/a	n/a	n/a	n/a	n/a	n/a	n/a	n/a
273.1451	0.5667	COLOR_NAME	17	Incongruent	żółty	yellow	niebieski	blue	incorrect	n/a
273.6939	n/a	RESPONSE	n/a	n/a	n/a	n/a	n/a	n/a	n/a	green
273.7118	1.0167	ITI	n/a	n/a	n/a	n/a	n/a	n/a	n/a	n/a
274.7284	0.5167	FIXCROSS	n/a	n/a	n/a	n/a	n/a	n/a	n/a	n/a
275.2451	0.7	COLOR_NAME	18	Neutral	czerwony	red	Neutral	Neutral	hit	n/a
275.9173	n/a	RESPONSE	n/a	n/a	n/a	n/a	n/a	n/a	n/a	red
275.9451	1.0167	ITI	n/a	n/a	n/a	n/a	n/a	n/a	n/a	n/a
276.9618	0.5167	FIXCROSS	n/a	n/a	n/a	n/a	n/a	n/a	n/a	n/a
277.4785	0.65	COLOR_NAME	19	Neutral	żółty	yellow	Neutral	Neutral	hit	n/a
278.1088	n/a	RESPONSE	n/a	n/a	n/a	n/a	n/a	n/a	n/a	yellow
278.1285	1.0167	ITI	n/a	n/a	n/a	n/a	n/a	n/a	n/a	n/a
279.1451	0.5167	FIXCROSS	n/a	n/a	n/a	n/a	n/a	n/a	n/a	n/a
279.6618	0.8	COLOR_NAME	20	Incongruent	czerwony	red	zielony	green	hit	n/a
280.4282	n/a	RESPONSE	n/a	n/a	n/a	n/a	n/a	n/a	n/a	red
280.4618	1.0167	ITI	n/a	n/a	n/a	n/a	n/a	n/a	n/a	n/a
281.4785	0.5167	FIXCROSS	n/a	n/a	n/a	n/a	n/a	n/a	n/a	n/a
281.9952	0.8	COLOR_NAME	21	Neutral	zielony	green	Neutral	Neutral	hit	n/a
282.7637	n/a	RESPONSE	n/a	n/a	n/a	n/a	n/a	n/a	n/a	green
282.7952	1.0167	ITI	n/a	n/a	n/a	n/a	n/a	n/a	n/a	n/a
283.8119	0.5167	FIXCROSS	n/a	n/a	n/a	n/a	n/a	n/a	n/a	n/a
284.3285	0.6834	COLOR_NAME	22	Incongruent	czerwony	red	niebieski	blue	hit	n/a
284.9871	n/a	RESPONSE	n/a	n/a	n/a	n/a	n/a	n/a	n/a	red
285.0119	1.0167	ITI	n/a	n/a	n/a	n/a	n/a	n/a	n/a	n/a
286.0286	0.5167	FIXCROSS	n/a	n/a	n/a	n/a	n/a	n/a	n/a	n/a
286.5452	1.0667	COLOR_NAME	23	Neutral	niebieski	blue	Neutral	Neutral	hit	n/a
287.5945	n/a	RESPONSE	n/a	n/a	n/a	n/a	n/a	n/a	n/a	blue
287.6119	1.0167	ITI	n/a	n/a	n/a	n/a	n/a	n/a	n/a	n/a
288.6286	0.5167	FIXCROSS	n/a	n/a	n/a	n/a	n/a	n/a	n/a	n/a
289.1453	0.8167	COLOR_NAME	24	Incongruent	zielony	green	żółty	yellow	hit	n/a
289.9299	n/a	RESPONSE	n/a	n/a	n/a	n/a	n/a	n/a	n/a	green
289.9619	1.0167	ITI	n/a	n/a	n/a	n/a	n/a	n/a	n/a	n/a
290.9786	0.5167	FIXCROSS	n/a	n/a	n/a	n/a	n/a	n/a	n/a	n/a
291.4953	0.65	COLOR_NAME	25	Incongruent	niebieski	blue	żółty	yellow	hit	n/a
292.1214	n/a	RESPONSE	n/a	n/a	n/a	n/a	n/a	n/a	n/a	blue
292.1453	1.0167	ITI	n/a	n/a	n/a	n/a	n/a	n/a	n/a	n/a
293.162	0.5167	FIXCROSS	n/a	n/a	n/a	n/a	n/a	n/a	n/a	n/a
293.6786	0.7	COLOR_NAME	26	Incongruent	czerwony	red	zielony	green	hit	n/a
294.3608	n/a	RESPONSE	n/a	n/a	n/a	n/a	n/a	n/a	n/a	red
294.3787	1.0167	ITI	n/a	n/a	n/a	n/a	n/a	n/a	n/a	n/a
295.3953	0.5167	FIXCROSS	n/a	n/a	n/a	n/a	n/a	n/a	n/a	n/a
295.912	0.5833	COLOR_NAME	27	Incongruent	czerwony	red	żółty	yellow	hit	n/a
296.4724	n/a	RESPONSE	n/a	n/a	n/a	n/a	n/a	n/a	n/a	red
296.4953	1.0167	ITI	n/a	n/a	n/a	n/a	n/a	n/a	n/a	n/a
297.512	0.5167	FIXCROSS	n/a	n/a	n/a	n/a	n/a	n/a	n/a	n/a
298.0287	0.65	COLOR_NAME	28	Incongruent	czerwony	red	zielony	green	hit	n/a
298.6478	n/a	RESPONSE	n/a	n/a	n/a	n/a	n/a	n/a	n/a	red
298.6787	1.0167	ITI	n/a	n/a	n/a	n/a	n/a	n/a	n/a	n/a
299.6954	0.5167	FIXCROSS	n/a	n/a	n/a	n/a	n/a	n/a	n/a	n/a
300.2121	0.95	COLOR_NAME	29	Incongruent	zielony	green	niebieski	blue	hit	n/a
301.1432	n/a	RESPONSE	n/a	n/a	n/a	n/a	n/a	n/a	n/a	green
301.1621	1.0167	ITI	n/a	n/a	n/a	n/a	n/a	n/a	n/a	n/a
302.1787	0.5167	FIXCROSS	n/a	n/a	n/a	n/a	n/a	n/a	n/a	n/a
302.6954	0.65	COLOR_NAME	30	Neutral	żółty	yellow	Neutral	Neutral	hit	n/a
303.3187	n/a	RESPONSE	n/a	n/a	n/a	n/a	n/a	n/a	n/a	yellow
303.3454	1.0167	ITI	n/a	n/a	n/a	n/a	n/a	n/a	n/a	n/a
304.3621	0.5167	FIXCROSS	n/a	n/a	n/a	n/a	n/a	n/a	n/a	n/a
304.8788	0.6333	COLOR_NAME	31	Neutral	zielony	green	Neutral	Neutral	hit	n/a
305.4942	n/a	RESPONSE	n/a	n/a	n/a	n/a	n/a	n/a	n/a	green
305.5121	1.0167	ITI	n/a	n/a	n/a	n/a	n/a	n/a	n/a	n/a
306.5288	0.5167	FIXCROSS	n/a	n/a	n/a	n/a	n/a	n/a	n/a	n/a
307.0455	0.6333	COLOR_NAME	32	Neutral	żółty	yellow	Neutral	Neutral	hit	n/a
307.6536	n/a	RESPONSE	n/a	n/a	n/a	n/a	n/a	n/a	n/a	yellow
307.6788	1.0167	ITI	n/a	n/a	n/a	n/a	n/a	n/a	n/a	n/a
308.6955	0.5167	FIXCROSS	n/a	n/a	n/a	n/a	n/a	n/a	n/a	n/a
309.2122	0.6833	COLOR_NAME	33	Neutral	niebieski	blue	Neutral	Neutral	hit	n/a
309.8771	n/a	RESPONSE	n/a	n/a	n/a	n/a	n/a	n/a	n/a	blue
309.8955	1.0167	ITI	n/a	n/a	n/a	n/a	n/a	n/a	n/a	n/a
310.9122	0.5167	FIXCROSS	n/a	n/a	n/a	n/a	n/a	n/a	n/a	n/a
311.4289	0.65	COLOR_NAME	34	Incongruent	czerwony	red	niebieski	blue	hit	n/a
312.0526	n/a	RESPONSE	n/a	n/a	n/a	n/a	n/a	n/a	n/a	red
312.0789	1.0167	ITI	n/a	n/a	n/a	n/a	n/a	n/a	n/a	n/a
313.0955	0.5167	FIXCROSS	n/a	n/a	n/a	n/a	n/a	n/a	n/a	n/a
313.6122	0.6333	COLOR_NAME	35	Incongruent	niebieski	blue	czerwony	red	hit	n/a
314.228	n/a	RESPONSE	n/a	n/a	n/a	n/a	n/a	n/a	n/a	blue
314.2455	1.0167	ITI	n/a	n/a	n/a	n/a	n/a	n/a	n/a	n/a
315.2622	0.5167	FIXCROSS	n/a	n/a	n/a	n/a	n/a	n/a	n/a	n/a
315.7789	0.6667	COLOR_NAME	36	Incongruent	niebieski	blue	zielony	green	hit	n/a
316.4196	n/a	RESPONSE	n/a	n/a	n/a	n/a	n/a	n/a	n/a	blue
316.4456	1.0167	ITI	n/a	n/a	n/a	n/a	n/a	n/a	n/a	n/a
317.4623	0.5167	FIXCROSS	n/a	n/a	n/a	n/a	n/a	n/a	n/a	n/a
317.9789	0.5667	COLOR_NAME	37	Incongruent	niebieski	blue	żółty	yellow	hit	n/a
318.515	n/a	RESPONSE	n/a	n/a	n/a	n/a	n/a	n/a	n/a	blue
318.5456	1.0167	ITI	n/a	n/a	n/a	n/a	n/a	n/a	n/a	n/a
319.5623	0.5167	FIXCROSS	n/a	n/a	n/a	n/a	n/a	n/a	n/a	n/a
320.079	0.6333	COLOR_NAME	38	Incongruent	żółty	yellow	zielony	green	hit	n/a
320.6905	n/a	RESPONSE	n/a	n/a	n/a	n/a	n/a	n/a	n/a	yellow
320.7123	1.0167	ITI	n/a	n/a	n/a	n/a	n/a	n/a	n/a	n/a
321.729	0.5167	FIXCROSS	n/a	n/a	n/a	n/a	n/a	n/a	n/a	n/a
322.2456	0.6	COLOR_NAME	39	Neutral	czerwony	red	Neutral	Neutral	hit	n/a
322.818	n/a	RESPONSE	n/a	n/a	n/a	n/a	n/a	n/a	n/a	red
322.8456	1.0167	ITI	n/a	n/a	n/a	n/a	n/a	n/a	n/a	n/a
323.8623	0.5167	FIXCROSS	n/a	n/a	n/a	n/a	n/a	n/a	n/a	n/a
324.379	0.6	COLOR_NAME	40	Incongruent	niebieski	blue	czerwony	red	hit	n/a
324.9455	n/a	RESPONSE	n/a	n/a	n/a	n/a	n/a	n/a	n/a	blue
324.979	1.0167	ITI	n/a	n/a	n/a	n/a	n/a	n/a	n/a	n/a
325.9957	0.5167	FIXCROSS	n/a	n/a	n/a	n/a	n/a	n/a	n/a	n/a
326.5124	0.85	COLOR_NAME	41	Incongruent	zielony	green	żółty	yellow	hit	n/a
327.3289	n/a	RESPONSE	n/a	n/a	n/a	n/a	n/a	n/a	n/a	green
327.3624	1.0167	ITI	n/a	n/a	n/a	n/a	n/a	n/a	n/a	n/a
328.3791	0.5167	FIXCROSS	n/a	n/a	n/a	n/a	n/a	n/a	n/a	n/a
328.8957	0.65	COLOR_NAME	42	Incongruent	żółty	yellow	czerwony	red	hit	n/a
329.5204	n/a	RESPONSE	n/a	n/a	n/a	n/a	n/a	n/a	n/a	yellow
329.5457	1.0167	ITI	n/a	n/a	n/a	n/a	n/a	n/a	n/a	n/a
330.5624	0.5167	FIXCROSS	n/a	n/a	n/a	n/a	n/a	n/a	n/a	n/a
331.0791	0.6167	COLOR_NAME	43	Neutral	żółty	yellow	Neutral	Neutral	hit	n/a
331.6638	n/a	RESPONSE	n/a	n/a	n/a	n/a	n/a	n/a	n/a	yellow
331.6957	1.0167	ITI	n/a	n/a	n/a	n/a	n/a	n/a	n/a	n/a
332.7124	0.5167	FIXCROSS	n/a	n/a	n/a	n/a	n/a	n/a	n/a	n/a
333.2291	0.6333	COLOR_NAME	44	Neutral	zielony	green	Neutral	Neutral	incorrect	n/a
333.8393	n/a	RESPONSE	n/a	n/a	n/a	n/a	n/a	n/a	n/a	red
333.8624	1.0167	ITI	n/a	n/a	n/a	n/a	n/a	n/a	n/a	n/a
334.8791	0.5167	FIXCROSS	n/a	n/a	n/a	n/a	n/a	n/a	n/a	n/a
335.3958	0.6167	COLOR_NAME	45	Neutral	czerwony	red	Neutral	Neutral	hit	n/a
335.9828	n/a	RESPONSE	n/a	n/a	n/a	n/a	n/a	n/a	n/a	red
336.0125	1.0167	ITI	n/a	n/a	n/a	n/a	n/a	n/a	n/a	n/a
337.0291	0.5167	FIXCROSS	n/a	n/a	n/a	n/a	n/a	n/a	n/a	n/a
337.5458	0.5333	COLOR_NAME	46	Neutral	czerwony	red	Neutral	Neutral	hit	n/a
338.0463	n/a	RESPONSE	n/a	n/a	n/a	n/a	n/a	n/a	n/a	red
338.0792	1.0167	ITI	n/a	n/a	n/a	n/a	n/a	n/a	n/a	n/a
339.0958	0.5167	FIXCROSS	n/a	n/a	n/a	n/a	n/a	n/a	n/a	n/a
339.6125	0.6333	COLOR_NAME	47	Incongruent	niebieski	blue	zielony	green	hit	n/a
340.2218	n/a	RESPONSE	n/a	n/a	n/a	n/a	n/a	n/a	n/a	blue
340.2458	1.0167	ITI	n/a	n/a	n/a	n/a	n/a	n/a	n/a	n/a
341.2625	0.5167	FIXCROSS	n/a	n/a	n/a	n/a	n/a	n/a	n/a	n/a
341.7792	0.5833	COLOR_NAME	48	Neutral	żółty	yellow	Neutral	Neutral	hit	n/a
342.3333	n/a	RESPONSE	n/a	n/a	n/a	n/a	n/a	n/a	n/a	yellow
342.3625	1.0167	ITI	n/a	n/a	n/a	n/a	n/a	n/a	n/a	n/a
343.3792	0.5167	FIXCROSS	n/a	n/a	n/a	n/a	n/a	n/a	n/a	n/a
343.8959	0.7167	COLOR_NAME	49	Neutral	zielony	green	Neutral	Neutral	hit	n/a
344.5887	n/a	RESPONSE	n/a	n/a	n/a	n/a	n/a	n/a	n/a	green
344.6126	1.0167	ITI	n/a	n/a	n/a	n/a	n/a	n/a	n/a	n/a
345.6292	0.5167	FIXCROSS	n/a	n/a	n/a	n/a	n/a	n/a	n/a	n/a
346.1459	0.55	COLOR_NAME	50	Neutral	żółty	yellow	Neutral	Neutral	hit	n/a
346.6682	n/a	RESPONSE	n/a	n/a	n/a	n/a	n/a	n/a	n/a	yellow
346.6959	1.0167	ITI	n/a	n/a	n/a	n/a	n/a	n/a	n/a	n/a
347.7126	0.5167	FIXCROSS	n/a	n/a	n/a	n/a	n/a	n/a	n/a	n/a
348.2293	0.6333	COLOR_NAME	51	Neutral	niebieski	blue	Neutral	Neutral	hit	n/a
348.8437	n/a	RESPONSE	n/a	n/a	n/a	n/a	n/a	n/a	n/a	blue
348.8626	1.0167	ITI	n/a	n/a	n/a	n/a	n/a	n/a	n/a	n/a
349.8793	0.5167	FIXCROSS	n/a	n/a	n/a	n/a	n/a	n/a	n/a	n/a
350.396	0.5667	COLOR_NAME	52	Incongruent	niebieski	blue	zielony	green	hit	n/a
350.9392	n/a	RESPONSE	n/a	n/a	n/a	n/a	n/a	n/a	n/a	blue
350.9626	1.0167	ITI	n/a	n/a	n/a	n/a	n/a	n/a	n/a	n/a
351.9793	0.5167	FIXCROSS	n/a	n/a	n/a	n/a	n/a	n/a	n/a	n/a
352.496	0.6	COLOR_NAME	53	Neutral	niebieski	blue	Neutral	Neutral	hit	n/a
353.0667	n/a	RESPONSE	n/a	n/a	n/a	n/a	n/a	n/a	n/a	blue
353.096	1.0167	ITI	n/a	n/a	n/a	n/a	n/a	n/a	n/a	n/a
354.1127	0.5167	FIXCROSS	n/a	n/a	n/a	n/a	n/a	n/a	n/a	n/a
354.6293	0.4167	COLOR_NAME	54	Neutral	niebieski	blue	Neutral	Neutral	hit	n/a
355.0182	n/a	RESPONSE	n/a	n/a	n/a	n/a	n/a	n/a	n/a	blue
355.046	1.0167	ITI	n/a	n/a	n/a	n/a	n/a	n/a	n/a	n/a
356.0627	0.5167	FIXCROSS	n/a	n/a	n/a	n/a	n/a	n/a	n/a	n/a
356.5794	0.8334	COLOR_NAME	55	Neutral	zielony	green	Neutral	Neutral	hit	n/a
357.3856	n/a	RESPONSE	n/a	n/a	n/a	n/a	n/a	n/a	n/a	green
357.4127	1.0167	ITI	n/a	n/a	n/a	n/a	n/a	n/a	n/a	n/a
358.4294	0.5167	FIXCROSS	n/a	n/a	n/a	n/a	n/a	n/a	n/a	n/a
358.9461	0.6333	COLOR_NAME	56	Neutral	czerwony	red	Neutral	Neutral	hit	n/a
359.5611	n/a	RESPONSE	n/a	n/a	n/a	n/a	n/a	n/a	n/a	red
359.5794	1.0167	ITI	n/a	n/a	n/a	n/a	n/a	n/a	n/a	n/a
360.5961	0.5167	FIXCROSS	n/a	n/a	n/a	n/a	n/a	n/a	n/a	n/a
361.1128	1.05	COLOR_NAME	57	Incongruent	zielony	green	niebieski	blue	hit	n/a
362.1365	n/a	RESPONSE	n/a	n/a	n/a	n/a	n/a	n/a	n/a	green
362.1628	1.0167	ITI	n/a	n/a	n/a	n/a	n/a	n/a	n/a	n/a
363.1794	0.5167	FIXCROSS	n/a	n/a	n/a	n/a	n/a	n/a	n/a	n/a
363.6961	0.6333	COLOR_NAME	58	Incongruent	niebieski	blue	żółty	yellow	hit	n/a
364.2959	n/a	RESPONSE	n/a	n/a	n/a	n/a	n/a	n/a	n/a	blue
364.3295	1.0167	ITI	n/a	n/a	n/a	n/a	n/a	n/a	n/a	n/a
365.3461	0.5167	FIXCROSS	n/a	n/a	n/a	n/a	n/a	n/a	n/a	n/a
365.8628	0.5833	COLOR_NAME	59	Neutral	zielony	green	Neutral	Neutral	hit	n/a
366.4234	n/a	RESPONSE	n/a	n/a	n/a	n/a	n/a	n/a	n/a	green
366.4461	1.0167	ITI	n/a	n/a	n/a	n/a	n/a	n/a	n/a	n/a
367.4628	0.5167	FIXCROSS	n/a	n/a	n/a	n/a	n/a	n/a	n/a	n/a
367.9795	0.7167	COLOR_NAME	60	Neutral	niebieski	blue	Neutral	Neutral	hit	n/a
368.6629	n/a	RESPONSE	n/a	n/a	n/a	n/a	n/a	n/a	n/a	blue
368.6962	1.0167	ITI	n/a	n/a	n/a	n/a	n/a	n/a	n/a	n/a
369.7129	0.5167	FIXCROSS	n/a	n/a	n/a	n/a	n/a	n/a	n/a	n/a
370.2295	0.7333	COLOR_NAME	61	Neutral	czerwony	red	Neutral	Neutral	hit	n/a
370.9344	n/a	RESPONSE	n/a	n/a	n/a	n/a	n/a	n/a	n/a	red
370.9629	1.0167	ITI	n/a	n/a	n/a	n/a	n/a	n/a	n/a	n/a
371.9795	0.5167	FIXCROSS	n/a	n/a	n/a	n/a	n/a	n/a	n/a	n/a
372.4962	0.7167	COLOR_NAME	62	Neutral	czerwony	red	Neutral	Neutral	hit	n/a
373.1898	n/a	RESPONSE	n/a	n/a	n/a	n/a	n/a	n/a	n/a	red
373.2129	1.0167	ITI	n/a	n/a	n/a	n/a	n/a	n/a	n/a	n/a
374.2296	0.5167	FIXCROSS	n/a	n/a	n/a	n/a	n/a	n/a	n/a	n/a
374.7462	0.6833	COLOR_NAME	63	Neutral	niebieski	blue	Neutral	Neutral	hit	n/a
375.3973	n/a	RESPONSE	n/a	n/a	n/a	n/a	n/a	n/a	n/a	blue
375.4296	1.0167	ITI	n/a	n/a	n/a	n/a	n/a	n/a	n/a	n/a
376.4463	0.5167	FIXCROSS	n/a	n/a	n/a	n/a	n/a	n/a	n/a	n/a
376.9629	0.5333	COLOR_NAME	64	Neutral	żółty	yellow	Neutral	Neutral	hit	n/a
377.4768	n/a	RESPONSE	n/a	n/a	n/a	n/a	n/a	n/a	n/a	yellow
377.4963	1.0167	ITI	n/a	n/a	n/a	n/a	n/a	n/a	n/a	n/a
378.5129	0.5167	FIXCROSS	n/a	n/a	n/a	n/a	n/a	n/a	n/a	n/a
379.0296	0.7	COLOR_NAME	65	Incongruent	żółty	yellow	niebieski	blue	hit	n/a
379.7002	n/a	RESPONSE	n/a	n/a	n/a	n/a	n/a	n/a	n/a	yellow
379.7296	1.0167	ITI	n/a	n/a	n/a	n/a	n/a	n/a	n/a	n/a
380.7463	0.5167	FIXCROSS	n/a	n/a	n/a	n/a	n/a	n/a	n/a	n/a
381.263	0.6167	COLOR_NAME	66	Neutral	zielony	green	Neutral	Neutral	hit	n/a
381.8597	n/a	RESPONSE	n/a	n/a	n/a	n/a	n/a	n/a	n/a	green
381.8797	1.0167	ITI	n/a	n/a	n/a	n/a	n/a	n/a	n/a	n/a
382.8963	0.5167	FIXCROSS	n/a	n/a	n/a	n/a	n/a	n/a	n/a	n/a
383.413	0.7333	COLOR_NAME	67	Incongruent	zielony	green	czerwony	red	hit	n/a
384.1152	n/a	RESPONSE	n/a	n/a	n/a	n/a	n/a	n/a	n/a	green
384.1463	1.0167	ITI	n/a	n/a	n/a	n/a	n/a	n/a	n/a	n/a
385.163	0.5167	FIXCROSS	n/a	n/a	n/a	n/a	n/a	n/a	n/a	n/a
385.6797	0.6167	COLOR_NAME	68	Neutral	żółty	yellow	Neutral	Neutral	hit	n/a
386.2746	n/a	RESPONSE	n/a	n/a	n/a	n/a	n/a	n/a	n/a	yellow
386.2964	1.0167	ITI	n/a	n/a	n/a	n/a	n/a	n/a	n/a	n/a
387.3131	0.5167	FIXCROSS	n/a	n/a	n/a	n/a	n/a	n/a	n/a	n/a
387.8297	0.75	COLOR_NAME	69	Neutral	czerwony	red	Neutral	Neutral	hit	n/a
388.5621	n/a	RESPONSE	n/a	n/a	n/a	n/a	n/a	n/a	n/a	red
388.5797	1.0167	ITI	n/a	n/a	n/a	n/a	n/a	n/a	n/a	n/a
389.5964	0.5167	FIXCROSS	n/a	n/a	n/a	n/a	n/a	n/a	n/a	n/a
390.1131	0.4833	COLOR_NAME	70	Neutral	czerwony	red	Neutral	Neutral	hit	n/a
390.5776	n/a	RESPONSE	n/a	n/a	n/a	n/a	n/a	n/a	n/a	red
390.5964	1.0167	ITI	n/a	n/a	n/a	n/a	n/a	n/a	n/a	n/a
391.6131	0.5167	FIXCROSS	n/a	n/a	n/a	n/a	n/a	n/a	n/a	n/a
392.1298	0.65	COLOR_NAME	71	Neutral	zielony	green	Neutral	Neutral	hit	n/a
392.753	n/a	RESPONSE	n/a	n/a	n/a	n/a	n/a	n/a	n/a	green
392.7798	1.0167	ITI	n/a	n/a	n/a	n/a	n/a	n/a	n/a	n/a
393.7965	0.5167	FIXCROSS	n/a	n/a	n/a	n/a	n/a	n/a	n/a	n/a
394.3131	0.7	COLOR_NAME	72	Incongruent	czerwony	red	niebieski	blue	hit	n/a
394.9926	n/a	RESPONSE	n/a	n/a	n/a	n/a	n/a	n/a	n/a	red
395.0131	1.0333	ITI	n/a	n/a	n/a	n/a	n/a	n/a	n/a	n/a
397.5359	n/a	RESPONSE	n/a	n/a	n/a	n/a	n/a	n/a	n/a	n/a
