onset	duration	condition	trial_type	braille_stimulus	response_val	response_type
2.018	2.008	6_DOT_DETECTION	CUE	n/a	n/a	n/a
7.018	1.008	6_DOT_DETECTION	FIXCROSS	n/a	n/a	n/a
8.034	5.008	6_DOT_DETECTION	NO_6-DOT	KŁMLK	n/a	n/a
11.424	n/a	6_DOT_DETECTION	RESPONSE	n/a	NO	CORRECT_REJECTION
15.068	1.008	6_DOT_DETECTION	FIXCROSS	n/a	n/a	n/a
16.085	5.008	6_DOT_DETECTION	NO_6-DOT	PŁKL	n/a	n/a
18.864	n/a	6_DOT_DETECTION	RESPONSE	n/a	NO	CORRECT_REJECTION
23.118	1.008	6_DOT_DETECTION	FIXCROSS	n/a	n/a	n/a
24.135	5.008	6_DOT_DETECTION	6-DOT	#M#ŁS	n/a	n/a
27.08	n/a	6_DOT_DETECTION	RESPONSE	n/a	YES	HIT
31.168	1.008	6_DOT_DETECTION	FIXCROSS	n/a	n/a	n/a
32.185	5.008	6_DOT_DETECTION	6-DOT	KB##	n/a	n/a
35.32	n/a	6_DOT_DETECTION	RESPONSE	n/a	YES	HIT
39.226	1.008	6_DOT_DETECTION	FIXCROSS	n/a	n/a	n/a
40.243	5.008	6_DOT_DETECTION	NO_6-DOT	TKLKŁ	n/a	n/a
43.584	n/a	6_DOT_DETECTION	RESPONSE	n/a	NO	CORRECT_REJECTION
49.285	2.008	LEXICAL_DECISION	CUE	n/a	n/a	n/a
54.285	1.008	LEXICAL_DECISION	FIXCROSS	n/a	n/a	n/a
55.301	5.008	LEXICAL_DECISION	PSEUDOWORD	SEMA	n/a	n/a
60.36	n/a	LEXICAL_DECISION	RESPONSE	n/a	YES	FALSE_ALARM
62.335	1.008	LEXICAL_DECISION	FIXCROSS	n/a	n/a	n/a
63.351	5.009	LEXICAL_DECISION	WORD	TYPU	n/a	n/a
68.92	n/a	LEXICAL_DECISION	RESPONSE	n/a	YES	HIT
70.384	1.009	LEXICAL_DECISION	FIXCROSS	n/a	n/a	n/a
71.402	5.008	LEXICAL_DECISION	WORD	STEK	n/a	n/a
76.8	n/a	LEXICAL_DECISION	RESPONSE	n/a	YES	HIT
78.435	1.008	LEXICAL_DECISION	FIXCROSS	n/a	n/a	n/a
79.452	5.008	LEXICAL_DECISION	PSEUDOWORD	LIŁCU	n/a	n/a
85.28	n/a	LEXICAL_DECISION	RESPONSE	n/a	NO	CORRECT_REJECTION
86.485	1.008	LEXICAL_DECISION	FIXCROSS	n/a	n/a	n/a
87.502	5.008	LEXICAL_DECISION	WORD	TOPI	n/a	n/a
94.224	n/a	LEXICAL_DECISION	RESPONSE	n/a	YES	HIT
96.043	2.008	6_DOT_DETECTION	CUE	n/a	n/a	n/a
100.543	1.008	6_DOT_DETECTION	FIXCROSS	n/a	n/a	n/a
101.56	5.008	6_DOT_DETECTION	6-DOT	DK##L	n/a	n/a
104.704	n/a	6_DOT_DETECTION	RESPONSE	n/a	YES	HIT
108.593	1.008	6_DOT_DETECTION	FIXCROSS	n/a	n/a	n/a
109.61	5.008	6_DOT_DETECTION	NO_6-DOT	KDTLŁ	n/a	n/a
113.984	n/a	6_DOT_DETECTION	RESPONSE	n/a	NO	CORRECT_REJECTION
116.643	1.008	6_DOT_DETECTION	FIXCROSS	n/a	n/a	n/a
117.66	5.008	6_DOT_DETECTION	6-DOT	P#T#	n/a	n/a
120.704	n/a	6_DOT_DETECTION	RESPONSE	n/a	YES	HIT
124.693	1.008	6_DOT_DETECTION	FIXCROSS	n/a	n/a	n/a
125.71	5.008	6_DOT_DETECTION	NO_6-DOT	SSŁKM	n/a	n/a
130.04	n/a	6_DOT_DETECTION	RESPONSE	n/a	NO	CORRECT_REJECTION
132.743	1.008	6_DOT_DETECTION	FIXCROSS	n/a	n/a	n/a
133.76	5.008	6_DOT_DETECTION	NO_6-DOT	DDŁ	n/a	n/a
136.824	n/a	6_DOT_DETECTION	RESPONSE	n/a	NO	CORRECT_REJECTION
141.802	2.008	LEXICAL_DECISION	CUE	n/a	n/a	n/a
146.802	1.008	LEXICAL_DECISION	FIXCROSS	n/a	n/a	n/a
147.818	5.008	LEXICAL_DECISION	PSEUDOWORD	BYLU	n/a	n/a
153.664	n/a	LEXICAL_DECISION	RESPONSE	n/a	YES	FALSE_ALARM
154.852	1.008	LEXICAL_DECISION	FIXCROSS	n/a	n/a	n/a
155.868	5.008	LEXICAL_DECISION	PSEUDOWORD	OKCY	n/a	n/a
161.88	n/a	LEXICAL_DECISION	RESPONSE	n/a	YES	FALSE_ALARM
162.902	1.008	LEXICAL_DECISION	FIXCROSS	n/a	n/a	n/a
163.918	5.008	LEXICAL_DECISION	PSEUDOWORD	DOAST	n/a	n/a
170.064	n/a	LEXICAL_DECISION	RESPONSE	n/a	YES	FALSE_ALARM
170.951	1.009	LEXICAL_DECISION	FIXCROSS	n/a	n/a	n/a
171.968	5.008	LEXICAL_DECISION	WORD	SMOK	n/a	n/a
177.16	n/a	LEXICAL_DECISION	RESPONSE	n/a	NO	MISS
179.001	1.009	LEXICAL_DECISION	FIXCROSS	n/a	n/a	n/a
180.019	5.008	LEXICAL_DECISION	WORD	AKT	n/a	n/a
184.84	n/a	LEXICAL_DECISION	RESPONSE	n/a	YES	HIT
188.56	2.008	6_DOT_DETECTION	CUE	n/a	n/a	n/a
194.06	1.008	6_DOT_DETECTION	FIXCROSS	n/a	n/a	n/a
195.076	5.008	6_DOT_DETECTION	6-DOT	SŁ#M#	n/a	n/a
199.28	n/a	6_DOT_DETECTION	RESPONSE	n/a	YES	HIT
202.11	1.008	6_DOT_DETECTION	FIXCROSS	n/a	n/a	n/a
203.127	5.008	6_DOT_DETECTION	NO_6-DOT	KCTD	n/a	n/a
207.304	n/a	6_DOT_DETECTION	RESPONSE	n/a	NO	CORRECT_REJECTION
210.16	1.008	6_DOT_DETECTION	FIXCROSS	n/a	n/a	n/a
211.177	5.008	6_DOT_DETECTION	6-DOT	#KT#	n/a	n/a
216.64	n/a	6_DOT_DETECTION	RESPONSE	n/a	YES	HIT
218.21	1.008	6_DOT_DETECTION	FIXCROSS	n/a	n/a	n/a
219.227	5.008	6_DOT_DETECTION	6-DOT	P##Ł	n/a	n/a
222.064	n/a	6_DOT_DETECTION	RESPONSE	n/a	YES	HIT
226.26	1.008	6_DOT_DETECTION	FIXCROSS	n/a	n/a	n/a
227.277	5.008	6_DOT_DETECTION	NO_6-DOT	ŁMT	n/a	n/a
230.544	n/a	6_DOT_DETECTION	RESPONSE	n/a	NO	CORRECT_REJECTION
235.819	2.008	LEXICAL_DECISION	CUE	n/a	n/a	n/a
242.319	1.008	LEXICAL_DECISION	FIXCROSS	n/a	n/a	n/a
243.336	5.008	LEXICAL_DECISION	WORD	DOKI	n/a	n/a
247.8	n/a	LEXICAL_DECISION	RESPONSE	n/a	YES	HIT
250.368	1.01	LEXICAL_DECISION	FIXCROSS	n/a	n/a	n/a
251.386	5.008	LEXICAL_DECISION	PSEUDOWORD	DASY	n/a	n/a
256.625	n/a	LEXICAL_DECISION	RESPONSE	n/a	YES	FALSE_ALARM
258.419	1.008	LEXICAL_DECISION	FIXCROSS	n/a	n/a	n/a
259.436	5.008	LEXICAL_DECISION	WORD	ŁAPY	n/a	n/a
264.984	n/a	LEXICAL_DECISION	RESPONSE	n/a	NO	MISS
266.469	1.008	LEXICAL_DECISION	FIXCROSS	n/a	n/a	n/a
267.486	5.008	LEXICAL_DECISION	WORD	UMYSŁ	n/a	n/a
273.344	n/a	LEXICAL_DECISION	RESPONSE	n/a	YES	HIT
274.519	1.008	LEXICAL_DECISION	FIXCROSS	n/a	n/a	n/a
275.536	5.008	LEXICAL_DECISION	WORD	ILOMA	n/a	n/a
281.04	n/a	LEXICAL_DECISION	RESPONSE	n/a	YES	HIT
284.577	2.008	6_DOT_DETECTION	CUE	n/a	n/a	n/a
290.577	1.008	6_DOT_DETECTION	FIXCROSS	n/a	n/a	n/a
291.594	5.008	6_DOT_DETECTION	NO_6-DOT	TKM	n/a	n/a
294.744	n/a	6_DOT_DETECTION	RESPONSE	n/a	NO	CORRECT_REJECTION
298.627	1.008	6_DOT_DETECTION	FIXCROSS	n/a	n/a	n/a
299.644	5.008	6_DOT_DETECTION	NO_6-DOT	BKPM	n/a	n/a
302.52	n/a	6_DOT_DETECTION	RESPONSE	n/a	NO	CORRECT_REJECTION
306.677	1.008	6_DOT_DETECTION	FIXCROSS	n/a	n/a	n/a
307.694	5.008	6_DOT_DETECTION	NO_6-DOT	STMKŁ	n/a	n/a
311.345	n/a	6_DOT_DETECTION	RESPONSE	n/a	NO	CORRECT_REJECTION
314.727	1.008	6_DOT_DETECTION	FIXCROSS	n/a	n/a	n/a
315.744	5.008	6_DOT_DETECTION	6-DOT	##CL	n/a	n/a
317.785	n/a	6_DOT_DETECTION	RESPONSE	n/a	YES	HIT
322.777	1.008	6_DOT_DETECTION	FIXCROSS	n/a	n/a	n/a
323.794	5.008	6_DOT_DETECTION	NO_6-DOT	LTLKŁ	n/a	n/a
327.185	n/a	6_DOT_DETECTION	RESPONSE	n/a	NO	CORRECT_REJECTION
332.836	2.008	LEXICAL_DECISION	CUE	n/a	n/a	n/a
338.836	1.008	LEXICAL_DECISION	FIXCROSS	n/a	n/a	n/a
339.852	5.008	LEXICAL_DECISION	PSEUDOWORD	PŁAKI	n/a	n/a
346.081	n/a	LEXICAL_DECISION	RESPONSE	n/a	NO	CORRECT_REJECTION
346.886	1.008	LEXICAL_DECISION	FIXCROSS	n/a	n/a	n/a
347.903	5.008	LEXICAL_DECISION	WORD	KOT	n/a	n/a
352.641	n/a	LEXICAL_DECISION	RESPONSE	n/a	YES	HIT
354.936	1.008	LEXICAL_DECISION	FIXCROSS	n/a	n/a	n/a
355.953	5.008	LEXICAL_DECISION	PSEUDOWORD	CULE 	n/a	n/a
362.986	1.008	LEXICAL_DECISION	FIXCROSS	n/a	n/a	n/a
364.003	5.008	LEXICAL_DECISION	WORD	PASMO	n/a	n/a
369.337	n/a	LEXICAL_DECISION	RESPONSE	n/a	NO	MISS
371.036	1.008	LEXICAL_DECISION	FIXCROSS	n/a	n/a	n/a
372.053	5.008	LEXICAL_DECISION	WORD	METCE	n/a	n/a
378.057	n/a	LEXICAL_DECISION	RESPONSE	n/a	NO	MISS
380.594	2.008	6_DOT_DETECTION	CUE	n/a	n/a	n/a
386.094	1.008	6_DOT_DETECTION	FIXCROSS	n/a	n/a	n/a
387.111	5.008	6_DOT_DETECTION	6-DOT	L#B#	n/a	n/a
390.977	n/a	6_DOT_DETECTION	RESPONSE	n/a	YES	HIT
394.144	1.008	6_DOT_DETECTION	FIXCROSS	n/a	n/a	n/a
395.161	5.008	6_DOT_DETECTION	6-DOT	#KŁ#	n/a	n/a
398.401	n/a	6_DOT_DETECTION	RESPONSE	n/a	YES	HIT
402.194	1.008	6_DOT_DETECTION	FIXCROSS	n/a	n/a	n/a
403.211	5.008	6_DOT_DETECTION	NO_6-DOT	KCK	n/a	n/a
407.457	n/a	6_DOT_DETECTION	RESPONSE	n/a	NO	CORRECT_REJECTION
410.244	1.008	6_DOT_DETECTION	FIXCROSS	n/a	n/a	n/a
411.261	5.008	6_DOT_DETECTION	6-DOT	LT##	n/a	n/a
415.041	n/a	6_DOT_DETECTION	RESPONSE	n/a	YES	HIT
418.294	1.008	6_DOT_DETECTION	FIXCROSS	n/a	n/a	n/a
419.311	5.008	6_DOT_DETECTION	NO_6-DOT	DDTLK	n/a	n/a
422.961	n/a	6_DOT_DETECTION	RESPONSE	n/a	NO	CORRECT_REJECTION
427.853	2.008	LEXICAL_DECISION	CUE	n/a	n/a	n/a
433.353	1.008	LEXICAL_DECISION	FIXCROSS	n/a	n/a	n/a
434.37	5.008	LEXICAL_DECISION	WORD	STOLE	n/a	n/a
440.681	n/a	LEXICAL_DECISION	RESPONSE	n/a	NO	MISS
441.403	1.008	LEXICAL_DECISION	FIXCROSS	n/a	n/a	n/a
442.42	5.008	LEXICAL_DECISION	WORD	BOBAS	n/a	n/a
448.641	n/a	LEXICAL_DECISION	RESPONSE	n/a	YES	HIT
449.452	1.009	LEXICAL_DECISION	FIXCROSS	n/a	n/a	n/a
450.47	5.008	LEXICAL_DECISION	PSEUDOWORD	DASIE	n/a	n/a
456.577	n/a	LEXICAL_DECISION	RESPONSE	n/a	NO	CORRECT_REJECTION
457.503	1.008	LEXICAL_DECISION	FIXCROSS	n/a	n/a	n/a
458.52	5.008	LEXICAL_DECISION	PSEUDOWORD	LEDI	n/a	n/a
463.537	n/a	LEXICAL_DECISION	RESPONSE	n/a	YES	FALSE_ALARM
465.553	1.008	LEXICAL_DECISION	FIXCROSS	n/a	n/a	n/a
466.57	5.008	LEXICAL_DECISION	PSEUDOWORD	BILOT	n/a	n/a
472.777	n/a	LEXICAL_DECISION	RESPONSE	n/a	YES	FALSE_ALARM
474.611	2.008	6_DOT_DETECTION	CUE	n/a	n/a	n/a
481.611	1.008	6_DOT_DETECTION	FIXCROSS	n/a	n/a	n/a
482.628	5.008	6_DOT_DETECTION	NO_6-DOT	DLBL	n/a	n/a
486.377	n/a	6_DOT_DETECTION	RESPONSE	n/a	NO	CORRECT_REJECTION
489.661	1.008	6_DOT_DETECTION	FIXCROSS	n/a	n/a	n/a
490.678	5.008	6_DOT_DETECTION	6-DOT	#K#	n/a	n/a
493.497	n/a	6_DOT_DETECTION	RESPONSE	n/a	YES	HIT
497.712	1.008	6_DOT_DETECTION	FIXCROSS	n/a	n/a	n/a
498.728	5.008	6_DOT_DETECTION	6-DOT	K#CL#	n/a	n/a
502.281	n/a	6_DOT_DETECTION	RESPONSE	n/a	YES	HIT
505.762	1.008	6_DOT_DETECTION	FIXCROSS	n/a	n/a	n/a
506.778	5.008	6_DOT_DETECTION	6-DOT	K#L#	n/a	n/a
510.521	n/a	6_DOT_DETECTION	RESPONSE	n/a	YES	HIT
513.811	1.009	6_DOT_DETECTION	FIXCROSS	n/a	n/a	n/a
514.828	5.008	6_DOT_DETECTION	6-DOT	Ł##	n/a	n/a
517.697	n/a	6_DOT_DETECTION	RESPONSE	n/a	YES	HIT
522.878	2.008	LEXICAL_DECISION	CUE	n/a	n/a	n/a
527.878	1.008	LEXICAL_DECISION	FIXCROSS	n/a	n/a	n/a
528.894	5.009	LEXICAL_DECISION	PSEUDOWORD	SYM	n/a	n/a
534.321	n/a	LEXICAL_DECISION	RESPONSE	n/a	NO	CORRECT_REJECTION
535.928	1.009	LEXICAL_DECISION	FIXCROSS	n/a	n/a	n/a
536.945	5.008	LEXICAL_DECISION	WORD	PTAK	n/a	n/a
543.457	n/a	LEXICAL_DECISION	RESPONSE	n/a	YES	HIT
543.978	1.008	LEXICAL_DECISION	FIXCROSS	n/a	n/a	n/a
544.995	5.008	LEXICAL_DECISION	PSEUDOWORD	PKAŁ	n/a	n/a
551.297	n/a	LEXICAL_DECISION	RESPONSE	n/a	YES	FALSE_ALARM
552.028	1.008	LEXICAL_DECISION	FIXCROSS	n/a	n/a	n/a
553.045	5.008	LEXICAL_DECISION	WORD	BOSKI	n/a	n/a
558.937	n/a	LEXICAL_DECISION	RESPONSE	n/a	YES	HIT
560.078	1.008	LEXICAL_DECISION	FIXCROSS	n/a	n/a	n/a
561.095	5.008	LEXICAL_DECISION	WORD	POD	n/a	n/a
567.201	n/a	LEXICAL_DECISION	RESPONSE	n/a	NO	MISS
569.637	2.008	6_DOT_DETECTION	CUE	n/a	n/a	n/a
574.137	1.008	6_DOT_DETECTION	FIXCROSS	n/a	n/a	n/a
575.154	5.008	6_DOT_DETECTION	NO_6-DOT	PMDŁ	n/a	n/a
578.321	n/a	6_DOT_DETECTION	RESPONSE	n/a	NO	CORRECT_REJECTION
582.187	1.008	6_DOT_DETECTION	FIXCROSS	n/a	n/a	n/a
583.204	5.008	6_DOT_DETECTION	NO_6-DOT	BŁSL	n/a	n/a
586.321	n/a	6_DOT_DETECTION	RESPONSE	n/a	NO	CORRECT_REJECTION
590.237	1.008	6_DOT_DETECTION	FIXCROSS	n/a	n/a	n/a
591.254	5.008	6_DOT_DETECTION	6-DOT	SM#K#	n/a	n/a
595.417	n/a	6_DOT_DETECTION	RESPONSE	n/a	YES	HIT
598.287	1.008	6_DOT_DETECTION	FIXCROSS	n/a	n/a	n/a
599.304	5.008	6_DOT_DETECTION	NO_6-DOT	MLMK	n/a	n/a
603.017	n/a	6_DOT_DETECTION	RESPONSE	n/a	NO	CORRECT_REJECTION
606.337	1.008	6_DOT_DETECTION	FIXCROSS	n/a	n/a	n/a
607.354	5.008	6_DOT_DETECTION	6-DOT	#K#	n/a	n/a
610.281	n/a	6_DOT_DETECTION	RESPONSE	n/a	YES	HIT
615.895	2.008	LEXICAL_DECISION	CUE	n/a	n/a	n/a
622.395	1.008	LEXICAL_DECISION	FIXCROSS	n/a	n/a	n/a
623.412	5.008	LEXICAL_DECISION	PSEUDOWORD	PUTY	n/a	n/a
629.297	n/a	LEXICAL_DECISION	RESPONSE	n/a	YES	FALSE_ALARM
630.445	1.008	LEXICAL_DECISION	FIXCROSS	n/a	n/a	n/a
631.462	5.008	LEXICAL_DECISION	PSEUDOWORD	OTAL	n/a	n/a
637.641	n/a	LEXICAL_DECISION	RESPONSE	n/a	YES	FALSE_ALARM
638.495	1.008	LEXICAL_DECISION	FIXCROSS	n/a	n/a	n/a
639.512	5.008	LEXICAL_DECISION	PSEUDOWORD	MITKI	n/a	n/a
646.041	n/a	LEXICAL_DECISION	RESPONSE	n/a	NO	CORRECT_REJECTION
646.545	1.008	LEXICAL_DECISION	FIXCROSS	n/a	n/a	n/a
647.562	5.008	LEXICAL_DECISION	PSEUDOWORD	KLICE	n/a	n/a
654.457	n/a	LEXICAL_DECISION	RESPONSE	n/a	NO	CORRECT_REJECTION
654.596	1.008	LEXICAL_DECISION	FIXCROSS	n/a	n/a	n/a
655.612	5.008	LEXICAL_DECISION	PSEUDOWORD	SMO	n/a	n/a
662.001	n/a	LEXICAL_DECISION	RESPONSE	n/a	YES	FALSE_ALARM
663.654	2.008	6_DOT_DETECTION	CUE	n/a	n/a	n/a
668.654	1.008	6_DOT_DETECTION	FIXCROSS	n/a	n/a	n/a
669.67	5.008	6_DOT_DETECTION	6-DOT	##LŁ	n/a	n/a
672.841	n/a	6_DOT_DETECTION	RESPONSE	n/a	YES	HIT
676.703	1.009	6_DOT_DETECTION	FIXCROSS	n/a	n/a	n/a
677.72	5.008	6_DOT_DETECTION	6-DOT	LM#M#	n/a	n/a
681.577	n/a	6_DOT_DETECTION	RESPONSE	n/a	YES	HIT
684.754	1.008	6_DOT_DETECTION	FIXCROSS	n/a	n/a	n/a
685.771	5.008	6_DOT_DETECTION	6-DOT	M##	n/a	n/a
688.377	n/a	6_DOT_DETECTION	RESPONSE	n/a	YES	HIT
692.804	1.008	6_DOT_DETECTION	FIXCROSS	n/a	n/a	n/a
693.821	5.008	6_DOT_DETECTION	NO_6-DOT	DKŁKŁ	n/a	n/a
696.881	n/a	6_DOT_DETECTION	RESPONSE	n/a	NO	CORRECT_REJECTION
700.854	1.008	6_DOT_DETECTION	FIXCROSS	n/a	n/a	n/a
701.871	5.008	6_DOT_DETECTION	NO_6-DOT	PKTL	n/a	n/a
704.321	n/a	6_DOT_DETECTION	RESPONSE	n/a	NO	CORRECT_REJECTION
710.412	2.008	LEXICAL_DECISION	CUE	n/a	n/a	n/a
715.912	1.008	LEXICAL_DECISION	FIXCROSS	n/a	n/a	n/a
716.929	5.008	LEXICAL_DECISION	WORD	TUPAŁ	n/a	n/a
723.017	n/a	LEXICAL_DECISION	RESPONSE	n/a	YES	HIT
723.962	1.008	LEXICAL_DECISION	FIXCROSS	n/a	n/a	n/a
724.979	5.008	LEXICAL_DECISION	WORD	DYSK	n/a	n/a
731.361	n/a	LEXICAL_DECISION	RESPONSE	n/a	YES	HIT
732.012	1.008	LEXICAL_DECISION	FIXCROSS	n/a	n/a	n/a
733.029	5.008	LEXICAL_DECISION	WORD	TYM	n/a	n/a
738.921	n/a	LEXICAL_DECISION	RESPONSE	n/a	YES	HIT
740.062	1.008	LEXICAL_DECISION	FIXCROSS	n/a	n/a	n/a
741.079	5.008	LEXICAL_DECISION	PSEUDOWORD	KPU	n/a	n/a
747.121	n/a	LEXICAL_DECISION	RESPONSE	n/a	NO	CORRECT_REJECTION
748.112	1.008	LEXICAL_DECISION	FIXCROSS	n/a	n/a	n/a
749.129	5.008	LEXICAL_DECISION	PSEUDOWORD	CYLI	n/a	n/a
755.081	n/a	LEXICAL_DECISION	RESPONSE	n/a	YES	FALSE_ALARM
