onset	duration	trial_type	trial_number	stroop_condition	stim_text(PL)	stim_text(eng)	stim_color(PL)	stim_color(eng)	response_type	response_color
0.0	n/a	RESPONSE	n/a	n/a	n/a	n/a	n/a	n/a	n/a	n/a
0.0299	1.0167	ITI	n/a	n/a	n/a	n/a	n/a	n/a	n/a	n/a
1.0465	0.5	FIXCROSS	n/a	n/a	n/a	n/a	n/a	n/a	n/a	n/a
1.5465	4.9999	T_INK	1	Neutral	xxxxxxxx	xxxxxxxx	żółty	yellow	miss	n/a
6.5464	0.5	FEEDBACK	n/a	n/a	n/a	n/a	n/a	n/a	n/a	n/a
6.6676	n/a	RESPONSE	n/a	n/a	n/a	n/a	n/a	n/a	n/a	yellow
7.0464	1.0167	ITI	n/a	n/a	n/a	n/a	n/a	n/a	n/a	n/a
8.0631	0.5	FIXCROSS	n/a	n/a	n/a	n/a	n/a	n/a	n/a	n/a
8.5631	1.2166	T_INK	2	Incongruent	żółty	yellow	niebieski	blue	hit	n/a
9.7696	n/a	RESPONSE	n/a	n/a	n/a	n/a	n/a	n/a	n/a	blue
9.7797	0.5	FEEDBACK	n/a	n/a	n/a	n/a	n/a	n/a	n/a	n/a
10.2797	1.0	ITI	n/a	n/a	n/a	n/a	n/a	n/a	n/a	n/a
11.2797	0.5	FIXCROSS	n/a	n/a	n/a	n/a	n/a	n/a	n/a	n/a
11.7797	1.2833	T_INK	3	Incongruent	czerwony	red	żółty	yellow	incorrect	n/a
13.0475	n/a	RESPONSE	n/a	n/a	n/a	n/a	n/a	n/a	n/a	green
13.063	0.5	FEEDBACK	n/a	n/a	n/a	n/a	n/a	n/a	n/a	n/a
13.563	1.0	ITI	n/a	n/a	n/a	n/a	n/a	n/a	n/a	n/a
14.563	0.5	FIXCROSS	n/a	n/a	n/a	n/a	n/a	n/a	n/a	n/a
15.063	0.95	T_INK	4	Neutral	xxxxxxx	xxxxxxx	żółty	yellow	hit	n/a
16.0055	n/a	RESPONSE	n/a	n/a	n/a	n/a	n/a	n/a	n/a	yellow
16.0129	0.5	FEEDBACK	n/a	n/a	n/a	n/a	n/a	n/a	n/a	n/a
16.5129	1.0	ITI	n/a	n/a	n/a	n/a	n/a	n/a	n/a	n/a
17.5129	0.5	FIXCROSS	n/a	n/a	n/a	n/a	n/a	n/a	n/a	n/a
18.0129	0.5166	T_INK	5	Neutral	xxxxx	xxxxx	czerwony	red	hit	n/a
18.516	n/a	RESPONSE	n/a	n/a	n/a	n/a	n/a	n/a	n/a	red
18.5296	0.5	FEEDBACK	n/a	n/a	n/a	n/a	n/a	n/a	n/a	n/a
19.0296	1.0	ITI	n/a	n/a	n/a	n/a	n/a	n/a	n/a	n/a
20.0295	0.5	FIXCROSS	n/a	n/a	n/a	n/a	n/a	n/a	n/a	n/a
20.5295	0.9667	T_INK	6	Neutral	xxxxxxx	xxxxxxx	niebieski	blue	hit	n/a
21.49	n/a	RESPONSE	n/a	n/a	n/a	n/a	n/a	n/a	n/a	blue
21.4962	0.5	FEEDBACK	n/a	n/a	n/a	n/a	n/a	n/a	n/a	n/a
21.9962	1.0	ITI	n/a	n/a	n/a	n/a	n/a	n/a	n/a	n/a
22.9962	0.5	FIXCROSS	n/a	n/a	n/a	n/a	n/a	n/a	n/a	n/a
23.4961	0.5	T_INK	7	Neutral	xxxxxxxxx	xxxxxxxxx	zielony	green	hit	n/a
23.9845	n/a	RESPONSE	n/a	n/a	n/a	n/a	n/a	n/a	n/a	green
23.9961	0.5	FEEDBACK	n/a	n/a	n/a	n/a	n/a	n/a	n/a	n/a
24.4961	1.0	ITI	n/a	n/a	n/a	n/a	n/a	n/a	n/a	n/a
25.4961	0.5	FIXCROSS	n/a	n/a	n/a	n/a	n/a	n/a	n/a	n/a
25.9961	0.6	T_INK	8	Incongruent	zielony	green	czerwony	red	hit	n/a
26.5907	n/a	RESPONSE	n/a	n/a	n/a	n/a	n/a	n/a	n/a	red
26.5961	0.5	FEEDBACK	n/a	n/a	n/a	n/a	n/a	n/a	n/a	n/a
27.0961	1.0	ITI	n/a	n/a	n/a	n/a	n/a	n/a	n/a	n/a
28.0961	0.5	FIXCROSS	n/a	n/a	n/a	n/a	n/a	n/a	n/a	n/a
28.5961	0.3667	T_INK	9	Neutral	xxxxxxx	xxxxxxx	czerwony	red	hit	n/a
28.9572	n/a	RESPONSE	n/a	n/a	n/a	n/a	n/a	n/a	n/a	red
28.9627	0.5	FEEDBACK	n/a	n/a	n/a	n/a	n/a	n/a	n/a	n/a
29.4627	1.0	ITI	n/a	n/a	n/a	n/a	n/a	n/a	n/a	n/a
30.4627	0.5	FIXCROSS	n/a	n/a	n/a	n/a	n/a	n/a	n/a	n/a
30.9627	0.3667	T_INK	10	Neutral	xxxxxxxx	xxxxxxxx	niebieski	blue	incorrect	n/a
31.3237	n/a	RESPONSE	n/a	n/a	n/a	n/a	n/a	n/a	n/a	yellow
31.3293	0.5	FEEDBACK	n/a	n/a	n/a	n/a	n/a	n/a	n/a	n/a
31.3717	n/a	RESPONSE	n/a	n/a	n/a	n/a	n/a	n/a	n/a	blue
31.8293	1.0	ITI	n/a	n/a	n/a	n/a	n/a	n/a	n/a	n/a
32.8293	0.5	FIXCROSS	n/a	n/a	n/a	n/a	n/a	n/a	n/a	n/a
33.3293	0.75	T_INK	11	Neutral	xxxxxxxxx	xxxxxxxxx	czerwony	red	hit	n/a
34.0739	n/a	RESPONSE	n/a	n/a	n/a	n/a	n/a	n/a	n/a	red
34.0793	0.5	FEEDBACK	n/a	n/a	n/a	n/a	n/a	n/a	n/a	n/a
34.5793	1.0	ITI	n/a	n/a	n/a	n/a	n/a	n/a	n/a	n/a
35.5793	0.5	FIXCROSS	n/a	n/a	n/a	n/a	n/a	n/a	n/a	n/a
36.0793	0.6333	T_INK	12	Incongruent	zielony	green	niebieski	blue	hit	n/a
36.6961	n/a	RESPONSE	n/a	n/a	n/a	n/a	n/a	n/a	n/a	blue
36.7126	0.5	FEEDBACK	n/a	n/a	n/a	n/a	n/a	n/a	n/a	n/a
37.2126	1.0	ITI	n/a	n/a	n/a	n/a	n/a	n/a	n/a	n/a
65.0617	n/a	RESPONSE	n/a	n/a	n/a	n/a	n/a	n/a	n/a	n/a
65.0954	1.0	ITI	n/a	n/a	n/a	n/a	n/a	n/a	n/a	n/a
66.0954	0.5	FIXCROSS	n/a	n/a	n/a	n/a	n/a	n/a	n/a	n/a
66.5954	1.6166	INK	1	Neutral	xxxxxxx	xxxxxxx	niebieski	blue	hit	n/a
68.1957	n/a	RESPONSE	n/a	n/a	n/a	n/a	n/a	n/a	n/a	blue
68.212	1.0	ITI	n/a	n/a	n/a	n/a	n/a	n/a	n/a	n/a
69.212	0.5	FIXCROSS	n/a	n/a	n/a	n/a	n/a	n/a	n/a	n/a
69.712	0.8667	INK	2	Incongruent	czerwony	red	żółty	yellow	hit	n/a
70.5622	n/a	RESPONSE	n/a	n/a	n/a	n/a	n/a	n/a	n/a	yellow
70.5787	1.0	ITI	n/a	n/a	n/a	n/a	n/a	n/a	n/a	n/a
71.5786	0.5	FIXCROSS	n/a	n/a	n/a	n/a	n/a	n/a	n/a	n/a
72.0786	0.5333	INK	3	Neutral	xxxxx	xxxxx	zielony	green	hit	n/a
72.6089	n/a	RESPONSE	n/a	n/a	n/a	n/a	n/a	n/a	n/a	green
72.6119	1.0	ITI	n/a	n/a	n/a	n/a	n/a	n/a	n/a	n/a
72.7528	n/a	RESPONSE	n/a	n/a	n/a	n/a	n/a	n/a	n/a	green
73.6119	0.5	FIXCROSS	n/a	n/a	n/a	n/a	n/a	n/a	n/a	n/a
74.1119	0.3667	INK	4	Incongruent	czerwony	red	zielony	green	hit	n/a
74.4637	n/a	RESPONSE	n/a	n/a	n/a	n/a	n/a	n/a	n/a	green
74.4786	1.0	ITI	n/a	n/a	n/a	n/a	n/a	n/a	n/a	n/a
75.4786	0.5	FIXCROSS	n/a	n/a	n/a	n/a	n/a	n/a	n/a	n/a
75.9786	0.4333	INK	5	Neutral	xxxxxxx	xxxxxxx	czerwony	red	hit	n/a
76.3984	n/a	RESPONSE	n/a	n/a	n/a	n/a	n/a	n/a	n/a	red
76.4119	1.0	ITI	n/a	n/a	n/a	n/a	n/a	n/a	n/a	n/a
77.4119	0.5	FIXCROSS	n/a	n/a	n/a	n/a	n/a	n/a	n/a	n/a
77.9119	0.5	INK	6	Incongruent	niebieski	blue	czerwony	red	hit	n/a
78.3972	n/a	RESPONSE	n/a	n/a	n/a	n/a	n/a	n/a	n/a	red
78.4118	1.0	ITI	n/a	n/a	n/a	n/a	n/a	n/a	n/a	n/a
79.4118	0.5	FIXCROSS	n/a	n/a	n/a	n/a	n/a	n/a	n/a	n/a
79.9118	0.35	INK	7	Neutral	xxxxx	xxxxx	niebieski	blue	hit	n/a
80.2519	n/a	RESPONSE	n/a	n/a	n/a	n/a	n/a	n/a	n/a	blue
80.2618	1.0	ITI	n/a	n/a	n/a	n/a	n/a	n/a	n/a	n/a
81.2618	0.5	FIXCROSS	n/a	n/a	n/a	n/a	n/a	n/a	n/a	n/a
81.7618	0.55	INK	8	Incongruent	żółty	yellow	czerwony	red	hit	n/a
82.2986	n/a	RESPONSE	n/a	n/a	n/a	n/a	n/a	n/a	n/a	red
82.3118	1.0	ITI	n/a	n/a	n/a	n/a	n/a	n/a	n/a	n/a
83.3118	0.5	FIXCROSS	n/a	n/a	n/a	n/a	n/a	n/a	n/a	n/a
83.8118	0.3167	INK	9	Incongruent	żółty	yellow	czerwony	red	incorrect	n/a
84.1215	n/a	RESPONSE	n/a	n/a	n/a	n/a	n/a	n/a	n/a	blue
84.1284	1.0	ITI	n/a	n/a	n/a	n/a	n/a	n/a	n/a	n/a
85.1284	0.5	FIXCROSS	n/a	n/a	n/a	n/a	n/a	n/a	n/a	n/a
85.6284	0.3833	INK	10	Neutral	xxxxxxxxx	xxxxxxxxx	czerwony	red	hit	n/a
86.0082	n/a	RESPONSE	n/a	n/a	n/a	n/a	n/a	n/a	n/a	red
86.0117	1.0	ITI	n/a	n/a	n/a	n/a	n/a	n/a	n/a	n/a
87.0117	0.5	FIXCROSS	n/a	n/a	n/a	n/a	n/a	n/a	n/a	n/a
87.5117	0.3167	INK	11	Incongruent	niebieski	blue	czerwony	red	hit	n/a
87.8151	n/a	RESPONSE	n/a	n/a	n/a	n/a	n/a	n/a	n/a	red
87.8284	1.0	ITI	n/a	n/a	n/a	n/a	n/a	n/a	n/a	n/a
88.8283	0.5	FIXCROSS	n/a	n/a	n/a	n/a	n/a	n/a	n/a	n/a
89.3283	0.5333	INK	12	Neutral	xxxxx	xxxxx	zielony	green	hit	n/a
89.8459	n/a	RESPONSE	n/a	n/a	n/a	n/a	n/a	n/a	n/a	green
89.8616	1.0	ITI	n/a	n/a	n/a	n/a	n/a	n/a	n/a	n/a
90.8616	0.5001	FIXCROSS	n/a	n/a	n/a	n/a	n/a	n/a	n/a	n/a
91.3616	0.45	INK	13	Neutral	xxxxx	xxxxx	niebieski	blue	hit	n/a
91.7966	n/a	RESPONSE	n/a	n/a	n/a	n/a	n/a	n/a	n/a	blue
91.8116	1.0	ITI	n/a	n/a	n/a	n/a	n/a	n/a	n/a	n/a
92.8116	0.5	FIXCROSS	n/a	n/a	n/a	n/a	n/a	n/a	n/a	n/a
93.3116	0.4833	INK	14	Incongruent	czerwony	red	zielony	green	hit	n/a
93.7792	n/a	RESPONSE	n/a	n/a	n/a	n/a	n/a	n/a	n/a	green
93.7949	1.0	ITI	n/a	n/a	n/a	n/a	n/a	n/a	n/a	n/a
94.7949	0.5	FIXCROSS	n/a	n/a	n/a	n/a	n/a	n/a	n/a	n/a
95.2949	0.4167	INK	15	Neutral	xxxxxxxxx	xxxxxxxxx	czerwony	red	hit	n/a
95.6981	n/a	RESPONSE	n/a	n/a	n/a	n/a	n/a	n/a	n/a	red
95.7115	1.0	ITI	n/a	n/a	n/a	n/a	n/a	n/a	n/a	n/a
96.7115	0.5	FIXCROSS	n/a	n/a	n/a	n/a	n/a	n/a	n/a	n/a
97.2115	0.5833	INK	16	Incongruent	zielony	green	czerwony	red	hit	n/a
97.7766	n/a	RESPONSE	n/a	n/a	n/a	n/a	n/a	n/a	n/a	red
97.7948	1.0	ITI	n/a	n/a	n/a	n/a	n/a	n/a	n/a	n/a
98.7948	0.5	FIXCROSS	n/a	n/a	n/a	n/a	n/a	n/a	n/a	n/a
99.2948	0.6167	INK	17	Incongruent	żółty	yellow	zielony	green	hit	n/a
99.9033	n/a	RESPONSE	n/a	n/a	n/a	n/a	n/a	n/a	n/a	green
99.9115	1.0	ITI	n/a	n/a	n/a	n/a	n/a	n/a	n/a	n/a
100.9115	0.5	FIXCROSS	n/a	n/a	n/a	n/a	n/a	n/a	n/a	n/a
101.4114	0.4833	INK	18	Neutral	xxxxxxxx	xxxxxxxx	żółty	yellow	incorrect	n/a
101.886	n/a	RESPONSE	n/a	n/a	n/a	n/a	n/a	n/a	n/a	green
101.8948	1.0	ITI	n/a	n/a	n/a	n/a	n/a	n/a	n/a	n/a
102.8948	0.5	FIXCROSS	n/a	n/a	n/a	n/a	n/a	n/a	n/a	n/a
103.3947	0.5333	INK	19	Incongruent	żółty	yellow	niebieski	blue	hit	n/a
103.9166	n/a	RESPONSE	n/a	n/a	n/a	n/a	n/a	n/a	n/a	blue
103.9281	1.0	ITI	n/a	n/a	n/a	n/a	n/a	n/a	n/a	n/a
104.928	0.5	FIXCROSS	n/a	n/a	n/a	n/a	n/a	n/a	n/a	n/a
105.428	0.3333	INK	20	Incongruent	żółty	yellow	czerwony	red	hit	n/a
105.7555	n/a	RESPONSE	n/a	n/a	n/a	n/a	n/a	n/a	n/a	red
105.7614	1.0	ITI	n/a	n/a	n/a	n/a	n/a	n/a	n/a	n/a
106.7613	0.5	FIXCROSS	n/a	n/a	n/a	n/a	n/a	n/a	n/a	n/a
107.2613	0.4667	INK	21	Incongruent	niebieski	blue	zielony	green	hit	n/a
107.7222	n/a	RESPONSE	n/a	n/a	n/a	n/a	n/a	n/a	n/a	green
107.728	1.0	ITI	n/a	n/a	n/a	n/a	n/a	n/a	n/a	n/a
108.728	0.5	FIXCROSS	n/a	n/a	n/a	n/a	n/a	n/a	n/a	n/a
109.228	0.4	INK	22	Neutral	xxxxxxxxx	xxxxxxxxx	żółty	yellow	incorrect	n/a
109.6249	n/a	RESPONSE	n/a	n/a	n/a	n/a	n/a	n/a	n/a	green
109.6279	1.0	ITI	n/a	n/a	n/a	n/a	n/a	n/a	n/a	n/a
109.6569	n/a	RESPONSE	n/a	n/a	n/a	n/a	n/a	n/a	n/a	yellow
110.628	0.5	FIXCROSS	n/a	n/a	n/a	n/a	n/a	n/a	n/a	n/a
111.1279	0.4167	INK	23	Neutral	xxxxxxx	xxxxxxx	żółty	yellow	hit	n/a
111.5277	n/a	RESPONSE	n/a	n/a	n/a	n/a	n/a	n/a	n/a	yellow
111.5446	1.0	ITI	n/a	n/a	n/a	n/a	n/a	n/a	n/a	n/a
112.5446	0.5	FIXCROSS	n/a	n/a	n/a	n/a	n/a	n/a	n/a	n/a
113.0446	0.3167	INK	24	Neutral	xxxxx	xxxxx	zielony	green	incorrect	n/a
113.3504	n/a	RESPONSE	n/a	n/a	n/a	n/a	n/a	n/a	n/a	yellow
113.3612	1.0	ITI	n/a	n/a	n/a	n/a	n/a	n/a	n/a	n/a
114.3612	0.5	FIXCROSS	n/a	n/a	n/a	n/a	n/a	n/a	n/a	n/a
114.8612	0.4833	INK	25	Neutral	xxxxxxx	xxxxxxx	czerwony	red	hit	n/a
115.3332	n/a	RESPONSE	n/a	n/a	n/a	n/a	n/a	n/a	n/a	red
115.3445	1.0	ITI	n/a	n/a	n/a	n/a	n/a	n/a	n/a	n/a
116.3445	0.5	FIXCROSS	n/a	n/a	n/a	n/a	n/a	n/a	n/a	n/a
116.8445	0.4167	INK	26	Neutral	xxxxxxxxx	xxxxxxxxx	żółty	yellow	incorrect	n/a
117.252	n/a	RESPONSE	n/a	n/a	n/a	n/a	n/a	n/a	n/a	green
117.2612	1.0	ITI	n/a	n/a	n/a	n/a	n/a	n/a	n/a	n/a
118.2612	0.5	FIXCROSS	n/a	n/a	n/a	n/a	n/a	n/a	n/a	n/a
118.7611	0.5333	INK	27	Incongruent	zielony	green	czerwony	red	hit	n/a
119.2828	n/a	RESPONSE	n/a	n/a	n/a	n/a	n/a	n/a	n/a	red
119.2945	1.0	ITI	n/a	n/a	n/a	n/a	n/a	n/a	n/a	n/a
120.2944	0.5	FIXCROSS	n/a	n/a	n/a	n/a	n/a	n/a	n/a	n/a
120.7944	0.35	INK	28	Incongruent	zielony	green	czerwony	red	hit	n/a
121.1375	n/a	RESPONSE	n/a	n/a	n/a	n/a	n/a	n/a	n/a	red
121.1444	1.0	ITI	n/a	n/a	n/a	n/a	n/a	n/a	n/a	n/a
122.1444	0.5	FIXCROSS	n/a	n/a	n/a	n/a	n/a	n/a	n/a	n/a
122.6444	1.9333	INK	29	Incongruent	niebieski	blue	żółty	yellow	hit	n/a
124.5594	n/a	RESPONSE	n/a	n/a	n/a	n/a	n/a	n/a	n/a	yellow
124.5777	1.0	ITI	n/a	n/a	n/a	n/a	n/a	n/a	n/a	n/a
125.5777	0.5	FIXCROSS	n/a	n/a	n/a	n/a	n/a	n/a	n/a	n/a
126.0777	0.35	INK	30	Neutral	xxxxxxxx	xxxxxxxx	niebieski	blue	hit	n/a
126.4141	n/a	RESPONSE	n/a	n/a	n/a	n/a	n/a	n/a	n/a	blue
126.4277	1.0	ITI	n/a	n/a	n/a	n/a	n/a	n/a	n/a	n/a
127.4277	0.5	FIXCROSS	n/a	n/a	n/a	n/a	n/a	n/a	n/a	n/a
127.9276	0.6333	INK	31	Incongruent	czerwony	red	żółty	yellow	hit	n/a
128.5567	n/a	RESPONSE	n/a	n/a	n/a	n/a	n/a	n/a	n/a	yellow
128.561	1.0	ITI	n/a	n/a	n/a	n/a	n/a	n/a	n/a	n/a
129.561	0.5	FIXCROSS	n/a	n/a	n/a	n/a	n/a	n/a	n/a	n/a
130.0609	0.45	INK	32	Incongruent	niebieski	blue	czerwony	red	incorrect	n/a
130.4914	n/a	RESPONSE	n/a	n/a	n/a	n/a	n/a	n/a	n/a	blue
130.5109	1.0	ITI	n/a	n/a	n/a	n/a	n/a	n/a	n/a	n/a
131.5109	0.5	FIXCROSS	n/a	n/a	n/a	n/a	n/a	n/a	n/a	n/a
132.0109	1.2833	INK	33	Incongruent	zielony	green	żółty	yellow	hit	n/a
133.2895	n/a	RESPONSE	n/a	n/a	n/a	n/a	n/a	n/a	n/a	yellow
133.2942	1.0	ITI	n/a	n/a	n/a	n/a	n/a	n/a	n/a	n/a
134.2942	0.5	FIXCROSS	n/a	n/a	n/a	n/a	n/a	n/a	n/a	n/a
134.7942	0.5167	INK	34	Neutral	xxxxxxx	xxxxxxx	żółty	yellow	hit	n/a
135.3043	n/a	RESPONSE	n/a	n/a	n/a	n/a	n/a	n/a	n/a	yellow
135.3108	1.0	ITI	n/a	n/a	n/a	n/a	n/a	n/a	n/a	n/a
136.3108	0.5	FIXCROSS	n/a	n/a	n/a	n/a	n/a	n/a	n/a	n/a
136.8108	0.7833	INK	35	Incongruent	żółty	yellow	niebieski	blue	hit	n/a
137.5748	n/a	RESPONSE	n/a	n/a	n/a	n/a	n/a	n/a	n/a	blue
137.5941	1.0	ITI	n/a	n/a	n/a	n/a	n/a	n/a	n/a	n/a
138.5941	0.5	FIXCROSS	n/a	n/a	n/a	n/a	n/a	n/a	n/a	n/a
139.0941	0.45	INK	36	Neutral	xxxxx	xxxxx	niebieski	blue	hit	n/a
139.5255	n/a	RESPONSE	n/a	n/a	n/a	n/a	n/a	n/a	n/a	blue
139.5441	1.0	ITI	n/a	n/a	n/a	n/a	n/a	n/a	n/a	n/a
140.5441	0.5	FIXCROSS	n/a	n/a	n/a	n/a	n/a	n/a	n/a	n/a
141.0441	0.6167	INK	37	Neutral	xxxxxxxx	xxxxxxxx	żółty	yellow	incorrect	n/a
141.6523	n/a	RESPONSE	n/a	n/a	n/a	n/a	n/a	n/a	n/a	blue
141.6607	1.0	ITI	n/a	n/a	n/a	n/a	n/a	n/a	n/a	n/a
141.7161	n/a	RESPONSE	n/a	n/a	n/a	n/a	n/a	n/a	n/a	yellow
142.6607	0.5	FIXCROSS	n/a	n/a	n/a	n/a	n/a	n/a	n/a	n/a
143.1607	0.6	INK	38	Incongruent	zielony	green	niebieski	blue	hit	n/a
143.7467	n/a	RESPONSE	n/a	n/a	n/a	n/a	n/a	n/a	n/a	blue
143.7607	1.0	ITI	n/a	n/a	n/a	n/a	n/a	n/a	n/a	n/a
144.7607	0.5	FIXCROSS	n/a	n/a	n/a	n/a	n/a	n/a	n/a	n/a
145.2607	0.6333	INK	39	Neutral	xxxxxxx	xxxxxxx	żółty	yellow	hit	n/a
145.8893	n/a	RESPONSE	n/a	n/a	n/a	n/a	n/a	n/a	n/a	yellow
145.894	1.0	ITI	n/a	n/a	n/a	n/a	n/a	n/a	n/a	n/a
146.894	0.5	FIXCROSS	n/a	n/a	n/a	n/a	n/a	n/a	n/a	n/a
147.394	0.6833	INK	40	Incongruent	czerwony	red	zielony	green	hit	n/a
148.064	n/a	RESPONSE	n/a	n/a	n/a	n/a	n/a	n/a	n/a	green
148.0773	1.0	ITI	n/a	n/a	n/a	n/a	n/a	n/a	n/a	n/a
149.0773	0.5	FIXCROSS	n/a	n/a	n/a	n/a	n/a	n/a	n/a	n/a
149.5773	0.8333	INK	41	Neutral	xxxxxxx	xxxxxxx	niebieski	blue	hit	n/a
150.3984	n/a	RESPONSE	n/a	n/a	n/a	n/a	n/a	n/a	n/a	blue
150.4106	1.0	ITI	n/a	n/a	n/a	n/a	n/a	n/a	n/a	n/a
151.4106	0.5	FIXCROSS	n/a	n/a	n/a	n/a	n/a	n/a	n/a	n/a
151.9106	0.4	INK	42	Incongruent	zielony	green	niebieski	blue	hit	n/a
152.3012	n/a	RESPONSE	n/a	n/a	n/a	n/a	n/a	n/a	n/a	blue
152.3105	1.0	ITI	n/a	n/a	n/a	n/a	n/a	n/a	n/a	n/a
153.3105	0.5	FIXCROSS	n/a	n/a	n/a	n/a	n/a	n/a	n/a	n/a
153.8105	0.4333	INK	43	Neutral	xxxxxxx	xxxxxxx	czerwony	red	hit	n/a
154.236	n/a	RESPONSE	n/a	n/a	n/a	n/a	n/a	n/a	n/a	red
154.2438	1.0	ITI	n/a	n/a	n/a	n/a	n/a	n/a	n/a	n/a
155.2438	0.5	FIXCROSS	n/a	n/a	n/a	n/a	n/a	n/a	n/a	n/a
155.7438	0.4333	INK	44	Incongruent	niebieski	blue	żółty	yellow	hit	n/a
156.1708	n/a	RESPONSE	n/a	n/a	n/a	n/a	n/a	n/a	n/a	yellow
156.1771	1.0	ITI	n/a	n/a	n/a	n/a	n/a	n/a	n/a	n/a
157.1771	0.5	FIXCROSS	n/a	n/a	n/a	n/a	n/a	n/a	n/a	n/a
157.6771	0.4833	INK	45	Incongruent	niebieski	blue	zielony	green	hit	n/a
158.1535	n/a	RESPONSE	n/a	n/a	n/a	n/a	n/a	n/a	n/a	green
158.1604	1.0	ITI	n/a	n/a	n/a	n/a	n/a	n/a	n/a	n/a
159.1604	0.5	FIXCROSS	n/a	n/a	n/a	n/a	n/a	n/a	n/a	n/a
159.6604	0.5333	INK	46	Neutral	xxxxxxxx	xxxxxxxx	zielony	green	incorrect	n/a
160.1841	n/a	RESPONSE	n/a	n/a	n/a	n/a	n/a	n/a	n/a	yellow
160.1937	1.0	ITI	n/a	n/a	n/a	n/a	n/a	n/a	n/a	n/a
161.1937	0.5	FIXCROSS	n/a	n/a	n/a	n/a	n/a	n/a	n/a	n/a
161.6937	0.8667	INK	47	Neutral	xxxxxxxxx	xxxxxxxxx	czerwony	red	hit	n/a
162.5506	n/a	RESPONSE	n/a	n/a	n/a	n/a	n/a	n/a	n/a	red
162.5604	1.0	ITI	n/a	n/a	n/a	n/a	n/a	n/a	n/a	n/a
163.5603	0.5	FIXCROSS	n/a	n/a	n/a	n/a	n/a	n/a	n/a	n/a
164.0603	0.6833	INK	48	Neutral	xxxxxxxxx	xxxxxxxxx	zielony	green	hit	n/a
164.7252	n/a	RESPONSE	n/a	n/a	n/a	n/a	n/a	n/a	n/a	green
164.7437	1.0	ITI	n/a	n/a	n/a	n/a	n/a	n/a	n/a	n/a
165.7436	0.5	FIXCROSS	n/a	n/a	n/a	n/a	n/a	n/a	n/a	n/a
166.2436	0.6167	INK	49	Incongruent	żółty	yellow	zielony	green	hit	n/a
166.8519	n/a	RESPONSE	n/a	n/a	n/a	n/a	n/a	n/a	n/a	green
166.8603	1.0	ITI	n/a	n/a	n/a	n/a	n/a	n/a	n/a	n/a
167.8603	0.5	FIXCROSS	n/a	n/a	n/a	n/a	n/a	n/a	n/a	n/a
168.3603	0.6833	INK	50	Neutral	xxxxx	xxxxx	czerwony	red	hit	n/a
169.0266	n/a	RESPONSE	n/a	n/a	n/a	n/a	n/a	n/a	n/a	red
169.0436	1.0	ITI	n/a	n/a	n/a	n/a	n/a	n/a	n/a	n/a
170.0436	0.5	FIXCROSS	n/a	n/a	n/a	n/a	n/a	n/a	n/a	n/a
170.5436	0.4666	INK	51	Incongruent	niebieski	blue	zielony	green	hit	n/a
170.9932	n/a	RESPONSE	n/a	n/a	n/a	n/a	n/a	n/a	n/a	green
171.0102	1.0	ITI	n/a	n/a	n/a	n/a	n/a	n/a	n/a	n/a
171.0252	n/a	RESPONSE	n/a	n/a	n/a	n/a	n/a	n/a	n/a	green
172.0102	0.5	FIXCROSS	n/a	n/a	n/a	n/a	n/a	n/a	n/a	n/a
172.5102	0.4166	INK	52	Neutral	xxxxxxxx	xxxxxxxx	niebieski	blue	hit	n/a
172.9121	n/a	RESPONSE	n/a	n/a	n/a	n/a	n/a	n/a	n/a	blue
172.9268	1.0	ITI	n/a	n/a	n/a	n/a	n/a	n/a	n/a	n/a
173.9268	0.5	FIXCROSS	n/a	n/a	n/a	n/a	n/a	n/a	n/a	n/a
174.4268	0.5833	INK	53	Neutral	xxxxxxxx	xxxxxxxx	zielony	green	hit	n/a
174.9907	n/a	RESPONSE	n/a	n/a	n/a	n/a	n/a	n/a	n/a	green
175.0101	1.0	ITI	n/a	n/a	n/a	n/a	n/a	n/a	n/a	n/a
176.0101	0.5	FIXCROSS	n/a	n/a	n/a	n/a	n/a	n/a	n/a	n/a
176.5101	0.5	INK	54	Incongruent	żółty	yellow	niebieski	blue	hit	n/a
177.0053	n/a	RESPONSE	n/a	n/a	n/a	n/a	n/a	n/a	n/a	blue
177.0101	1.0	ITI	n/a	n/a	n/a	n/a	n/a	n/a	n/a	n/a
178.0101	0.5	FIXCROSS	n/a	n/a	n/a	n/a	n/a	n/a	n/a	n/a
178.5101	0.4	INK	55	Neutral	xxxxx	xxxxx	czerwony	red	hit	n/a
178.8921	n/a	RESPONSE	n/a	n/a	n/a	n/a	n/a	n/a	n/a	red
178.9101	1.0	ITI	n/a	n/a	n/a	n/a	n/a	n/a	n/a	n/a
179.9101	0.5	FIXCROSS	n/a	n/a	n/a	n/a	n/a	n/a	n/a	n/a
180.41	0.5	INK	56	Incongruent	niebieski	blue	żółty	yellow	hit	n/a
180.8909	n/a	RESPONSE	n/a	n/a	n/a	n/a	n/a	n/a	n/a	yellow
180.91	1.0	ITI	n/a	n/a	n/a	n/a	n/a	n/a	n/a	n/a
181.91	0.5	FIXCROSS	n/a	n/a	n/a	n/a	n/a	n/a	n/a	n/a
182.41	0.4167	INK	57	Incongruent	zielony	green	niebieski	blue	hit	n/a
182.8096	n/a	RESPONSE	n/a	n/a	n/a	n/a	n/a	n/a	n/a	blue
182.8267	1.0	ITI	n/a	n/a	n/a	n/a	n/a	n/a	n/a	n/a
183.8266	0.5	FIXCROSS	n/a	n/a	n/a	n/a	n/a	n/a	n/a	n/a
184.3266	0.5	INK	58	Neutral	xxxxxxxxx	xxxxxxxxx	zielony	green	hit	n/a
184.8084	n/a	RESPONSE	n/a	n/a	n/a	n/a	n/a	n/a	n/a	green
184.8266	0.9982	ITI	n/a	n/a	n/a	n/a	n/a	n/a	n/a	n/a
185.8249	0.5018	FIXCROSS	n/a	n/a	n/a	n/a	n/a	n/a	n/a	n/a
186.3266	0.6166	INK	59	Neutral	xxxxxxxx	xxxxxxxx	żółty	yellow	hit	n/a
186.935	n/a	RESPONSE	n/a	n/a	n/a	n/a	n/a	n/a	n/a	yellow
186.9433	1.0	ITI	n/a	n/a	n/a	n/a	n/a	n/a	n/a	n/a
187.9433	0.5	FIXCROSS	n/a	n/a	n/a	n/a	n/a	n/a	n/a	n/a
188.4432	0.5166	INK	60	Incongruent	czerwony	red	żółty	yellow	hit	n/a
188.9496	n/a	RESPONSE	n/a	n/a	n/a	n/a	n/a	n/a	n/a	yellow
188.9599	1.0	ITI	n/a	n/a	n/a	n/a	n/a	n/a	n/a	n/a
189.9599	0.5	FIXCROSS	n/a	n/a	n/a	n/a	n/a	n/a	n/a	n/a
190.4599	0.4167	INK	61	Incongruent	czerwony	red	niebieski	blue	hit	n/a
190.8683	n/a	RESPONSE	n/a	n/a	n/a	n/a	n/a	n/a	n/a	blue
190.8765	1.0	ITI	n/a	n/a	n/a	n/a	n/a	n/a	n/a	n/a
191.8765	0.5	FIXCROSS	n/a	n/a	n/a	n/a	n/a	n/a	n/a	n/a
192.3765	0.65	INK	62	Neutral	xxxxxxxx	xxxxxxxx	zielony	green	hit	n/a
193.011	n/a	RESPONSE	n/a	n/a	n/a	n/a	n/a	n/a	n/a	green
193.0265	1.0	ITI	n/a	n/a	n/a	n/a	n/a	n/a	n/a	n/a
194.0265	0.5	FIXCROSS	n/a	n/a	n/a	n/a	n/a	n/a	n/a	n/a
194.5265	0.5333	INK	63	Neutral	xxxxxxxx	xxxxxxxx	niebieski	blue	hit	n/a
195.0417	n/a	RESPONSE	n/a	n/a	n/a	n/a	n/a	n/a	n/a	blue
195.0598	1.0	ITI	n/a	n/a	n/a	n/a	n/a	n/a	n/a	n/a
196.0598	0.5	FIXCROSS	n/a	n/a	n/a	n/a	n/a	n/a	n/a	n/a
196.5598	0.5833	INK	64	Incongruent	zielony	green	żółty	yellow	hit	n/a
197.1363	n/a	RESPONSE	n/a	n/a	n/a	n/a	n/a	n/a	n/a	yellow
197.1431	1.0	ITI	n/a	n/a	n/a	n/a	n/a	n/a	n/a	n/a
198.1431	0.5	FIXCROSS	n/a	n/a	n/a	n/a	n/a	n/a	n/a	n/a
198.6431	0.5	INK	65	Incongruent	czerwony	red	niebieski	blue	hit	n/a
199.1349	n/a	RESPONSE	n/a	n/a	n/a	n/a	n/a	n/a	n/a	blue
199.143	1.0	ITI	n/a	n/a	n/a	n/a	n/a	n/a	n/a	n/a
200.143	0.5	FIXCROSS	n/a	n/a	n/a	n/a	n/a	n/a	n/a	n/a
200.643	0.4167	INK	66	Neutral	xxxxxxx	xxxxxxx	niebieski	blue	hit	n/a
201.0536	n/a	RESPONSE	n/a	n/a	n/a	n/a	n/a	n/a	n/a	blue
201.0597	1.0	ITI	n/a	n/a	n/a	n/a	n/a	n/a	n/a	n/a
202.0597	0.5	FIXCROSS	n/a	n/a	n/a	n/a	n/a	n/a	n/a	n/a
202.5597	0.4667	INK	67	Incongruent	żółty	yellow	zielony	green	incorrect	n/a
203.0204	n/a	RESPONSE	n/a	n/a	n/a	n/a	n/a	n/a	n/a	yellow
203.0263	1.0	ITI	n/a	n/a	n/a	n/a	n/a	n/a	n/a	n/a
204.0263	0.5	FIXCROSS	n/a	n/a	n/a	n/a	n/a	n/a	n/a	n/a
204.5263	0.5166	INK	68	Neutral	xxxxx	xxxxx	czerwony	red	hit	n/a
205.0352	n/a	RESPONSE	n/a	n/a	n/a	n/a	n/a	n/a	n/a	red
205.0429	1.0	ITI	n/a	n/a	n/a	n/a	n/a	n/a	n/a	n/a
206.0429	0.5	FIXCROSS	n/a	n/a	n/a	n/a	n/a	n/a	n/a	n/a
206.5429	0.7167	INK	69	Incongruent	zielony	green	żółty	yellow	hit	n/a
207.2416	n/a	RESPONSE	n/a	n/a	n/a	n/a	n/a	n/a	n/a	yellow
207.2596	1.0	ITI	n/a	n/a	n/a	n/a	n/a	n/a	n/a	n/a
208.2596	0.5	FIXCROSS	n/a	n/a	n/a	n/a	n/a	n/a	n/a	n/a
208.7595	0.6	INK	70	Incongruent	czerwony	red	niebieski	blue	hit	n/a
209.3523	n/a	RESPONSE	n/a	n/a	n/a	n/a	n/a	n/a	n/a	blue
209.3595	1.0	ITI	n/a	n/a	n/a	n/a	n/a	n/a	n/a	n/a
210.3595	0.5	FIXCROSS	n/a	n/a	n/a	n/a	n/a	n/a	n/a	n/a
210.8595	0.45	INK	71	Neutral	xxxxxxxxx	xxxxxxxxx	zielony	green	hit	n/a
211.3031	n/a	RESPONSE	n/a	n/a	n/a	n/a	n/a	n/a	n/a	green
211.3095	1.0	ITI	n/a	n/a	n/a	n/a	n/a	n/a	n/a	n/a
212.3095	0.5	FIXCROSS	n/a	n/a	n/a	n/a	n/a	n/a	n/a	n/a
212.8095	0.5333	INK	72	Neutral	xxxxxxxxx	xxxxxxxxx	żółty	yellow	hit	n/a
213.3338	n/a	RESPONSE	n/a	n/a	n/a	n/a	n/a	n/a	n/a	yellow
213.3428	1.0333	ITI	n/a	n/a	n/a	n/a	n/a	n/a	n/a	n/a
248.9859	n/a	RESPONSE	n/a	n/a	n/a	n/a	n/a	n/a	n/a	n/a
249.0088	1.0	ITI	n/a	n/a	n/a	n/a	n/a	n/a	n/a	n/a
250.0088	0.5	FIXCROSS	n/a	n/a	n/a	n/a	n/a	n/a	n/a	n/a
250.5088	0.7	T_COLOR_NAME	1	Incongruent	zielony	green	czerwony	red	incorrect	n/a
251.1923	n/a	RESPONSE	n/a	n/a	n/a	n/a	n/a	n/a	n/a	red
251.2088	0.5	FEEDBACK	n/a	n/a	n/a	n/a	n/a	n/a	n/a	n/a
251.7088	1.0	ITI	n/a	n/a	n/a	n/a	n/a	n/a	n/a	n/a
252.7088	0.5	FIXCROSS	n/a	n/a	n/a	n/a	n/a	n/a	n/a	n/a
253.2088	0.85	T_COLOR_NAME	2	Neutral	zielony	green	Neutral	Neutral	hit	n/a
254.0546	n/a	RESPONSE	n/a	n/a	n/a	n/a	n/a	n/a	n/a	green
254.0587	0.5	FEEDBACK	n/a	n/a	n/a	n/a	n/a	n/a	n/a	n/a
254.5587	1.0	ITI	n/a	n/a	n/a	n/a	n/a	n/a	n/a	n/a
255.5587	0.5	FIXCROSS	n/a	n/a	n/a	n/a	n/a	n/a	n/a	n/a
256.0587	0.55	T_COLOR_NAME	3	Neutral	zielony	green	Neutral	Neutral	hit	n/a
256.5968	n/a	RESPONSE	n/a	n/a	n/a	n/a	n/a	n/a	n/a	green
256.6087	0.5	FEEDBACK	n/a	n/a	n/a	n/a	n/a	n/a	n/a	n/a
257.1087	1.0	ITI	n/a	n/a	n/a	n/a	n/a	n/a	n/a	n/a
258.1087	0.5	FIXCROSS	n/a	n/a	n/a	n/a	n/a	n/a	n/a	n/a
258.6086	1.0	T_COLOR_NAME	4	Incongruent	żółty	yellow	niebieski	blue	incorrect	n/a
259.6028	n/a	RESPONSE	n/a	n/a	n/a	n/a	n/a	n/a	n/a	blue
259.6086	0.5	FEEDBACK	n/a	n/a	n/a	n/a	n/a	n/a	n/a	n/a
260.1086	1.0	ITI	n/a	n/a	n/a	n/a	n/a	n/a	n/a	n/a
261.1086	0.5	FIXCROSS	n/a	n/a	n/a	n/a	n/a	n/a	n/a	n/a
261.6086	1.05	T_COLOR_NAME	5	Neutral	czerwony	red	Neutral	Neutral	hit	n/a
262.6408	n/a	RESPONSE	n/a	n/a	n/a	n/a	n/a	n/a	n/a	red
262.6586	0.5	FEEDBACK	n/a	n/a	n/a	n/a	n/a	n/a	n/a	n/a
263.1586	1.0	ITI	n/a	n/a	n/a	n/a	n/a	n/a	n/a	n/a
264.1586	0.5	FIXCROSS	n/a	n/a	n/a	n/a	n/a	n/a	n/a	n/a
264.6585	0.8	T_COLOR_NAME	6	Incongruent	czerwony	red	żółty	yellow	hit	n/a
265.4389	n/a	RESPONSE	n/a	n/a	n/a	n/a	n/a	n/a	n/a	red
265.4585	0.5	FEEDBACK	n/a	n/a	n/a	n/a	n/a	n/a	n/a	n/a
265.9585	1.0	ITI	n/a	n/a	n/a	n/a	n/a	n/a	n/a	n/a
266.9585	0.5	FIXCROSS	n/a	n/a	n/a	n/a	n/a	n/a	n/a	n/a
267.4585	0.9166	T_COLOR_NAME	7	Neutral	czerwony	red	Neutral	Neutral	hit	n/a
268.365	n/a	RESPONSE	n/a	n/a	n/a	n/a	n/a	n/a	n/a	red
268.3752	0.5	FEEDBACK	n/a	n/a	n/a	n/a	n/a	n/a	n/a	n/a
268.8751	1.0	ITI	n/a	n/a	n/a	n/a	n/a	n/a	n/a	n/a
269.8751	0.5	FIXCROSS	n/a	n/a	n/a	n/a	n/a	n/a	n/a	n/a
270.3751	0.8833	T_COLOR_NAME	8	Neutral	niebieski	blue	Neutral	Neutral	hit	n/a
271.2431	n/a	RESPONSE	n/a	n/a	n/a	n/a	n/a	n/a	n/a	blue
271.2584	0.5	FEEDBACK	n/a	n/a	n/a	n/a	n/a	n/a	n/a	n/a
271.7584	1.0	ITI	n/a	n/a	n/a	n/a	n/a	n/a	n/a	n/a
272.7584	0.5	FIXCROSS	n/a	n/a	n/a	n/a	n/a	n/a	n/a	n/a
273.2584	1.3	T_COLOR_NAME	9	Incongruent	zielony	green	niebieski	blue	hit	n/a
274.5529	n/a	RESPONSE	n/a	n/a	n/a	n/a	n/a	n/a	n/a	green
274.5584	0.5	FEEDBACK	n/a	n/a	n/a	n/a	n/a	n/a	n/a	n/a
275.0584	1.0	ITI	n/a	n/a	n/a	n/a	n/a	n/a	n/a	n/a
276.0584	0.5	FIXCROSS	n/a	n/a	n/a	n/a	n/a	n/a	n/a	n/a
276.5584	0.6	T_COLOR_NAME	10	Neutral	niebieski	blue	Neutral	Neutral	hit	n/a
277.1432	n/a	RESPONSE	n/a	n/a	n/a	n/a	n/a	n/a	n/a	blue
277.1583	0.5	FEEDBACK	n/a	n/a	n/a	n/a	n/a	n/a	n/a	n/a
277.6583	1.0	ITI	n/a	n/a	n/a	n/a	n/a	n/a	n/a	n/a
278.6583	0.5	FIXCROSS	n/a	n/a	n/a	n/a	n/a	n/a	n/a	n/a
279.1583	0.5666	T_COLOR_NAME	11	Neutral	żółty	yellow	Neutral	Neutral	incorrect	n/a
279.7175	n/a	RESPONSE	n/a	n/a	n/a	n/a	n/a	n/a	n/a	green
279.7249	0.5	FEEDBACK	n/a	n/a	n/a	n/a	n/a	n/a	n/a	n/a
280.2249	1.0	ITI	n/a	n/a	n/a	n/a	n/a	n/a	n/a	n/a
281.2249	0.5	FIXCROSS	n/a	n/a	n/a	n/a	n/a	n/a	n/a	n/a
281.7249	0.6833	T_COLOR_NAME	12	Neutral	zielony	green	Neutral	Neutral	hit	n/a
282.3878	n/a	RESPONSE	n/a	n/a	n/a	n/a	n/a	n/a	n/a	green
282.4082	0.5	FEEDBACK	n/a	n/a	n/a	n/a	n/a	n/a	n/a	n/a
282.9082	1.0	ITI	n/a	n/a	n/a	n/a	n/a	n/a	n/a	n/a
296.2187	n/a	RESPONSE	n/a	n/a	n/a	n/a	n/a	n/a	n/a	n/a
296.2413	1.0	ITI	n/a	n/a	n/a	n/a	n/a	n/a	n/a	n/a
297.2413	0.5	FIXCROSS	n/a	n/a	n/a	n/a	n/a	n/a	n/a	n/a
297.7413	0.6333	COLOR_NAME	1	Neutral	żółty	yellow	Neutral	Neutral	incorrect	n/a
298.3613	n/a	RESPONSE	n/a	n/a	n/a	n/a	n/a	n/a	n/a	green
298.3746	1.0	ITI	n/a	n/a	n/a	n/a	n/a	n/a	n/a	n/a
299.3746	0.5	FIXCROSS	n/a	n/a	n/a	n/a	n/a	n/a	n/a	n/a
299.8746	0.6	COLOR_NAME	2	Neutral	żółty	yellow	Neutral	Neutral	hit	n/a
300.4559	n/a	RESPONSE	n/a	n/a	n/a	n/a	n/a	n/a	n/a	yellow
300.4746	1.0	ITI	n/a	n/a	n/a	n/a	n/a	n/a	n/a	n/a
301.4746	0.5	FIXCROSS	n/a	n/a	n/a	n/a	n/a	n/a	n/a	n/a
301.9746	1.25	COLOR_NAME	3	Incongruent	czerwony	red	niebieski	blue	incorrect	n/a
303.2063	n/a	RESPONSE	n/a	n/a	n/a	n/a	n/a	n/a	n/a	blue
303.2245	1.0	ITI	n/a	n/a	n/a	n/a	n/a	n/a	n/a	n/a
304.2245	0.4998	FIXCROSS	n/a	n/a	n/a	n/a	n/a	n/a	n/a	n/a
304.7243	0.8502	COLOR_NAME	4	Neutral	zielony	green	Neutral	Neutral	hit	n/a
305.5567	n/a	RESPONSE	n/a	n/a	n/a	n/a	n/a	n/a	n/a	green
305.5745	1.0	ITI	n/a	n/a	n/a	n/a	n/a	n/a	n/a	n/a
306.5745	0.5	FIXCROSS	n/a	n/a	n/a	n/a	n/a	n/a	n/a	n/a
307.0745	0.8167	COLOR_NAME	5	Neutral	żółty	yellow	Neutral	Neutral	hit	n/a
307.8751	n/a	RESPONSE	n/a	n/a	n/a	n/a	n/a	n/a	n/a	yellow
307.8911	1.0	ITI	n/a	n/a	n/a	n/a	n/a	n/a	n/a	n/a
308.8911	0.5	FIXCROSS	n/a	n/a	n/a	n/a	n/a	n/a	n/a	n/a
309.3911	0.6833	COLOR_NAME	6	Incongruent	niebieski	blue	żółty	yellow	hit	n/a
310.0655	n/a	RESPONSE	n/a	n/a	n/a	n/a	n/a	n/a	n/a	blue
310.0744	1.0	ITI	n/a	n/a	n/a	n/a	n/a	n/a	n/a	n/a
311.0744	0.5	FIXCROSS	n/a	n/a	n/a	n/a	n/a	n/a	n/a	n/a
311.5744	0.6333	COLOR_NAME	7	Incongruent	żółty	yellow	niebieski	blue	hit	n/a
312.192	n/a	RESPONSE	n/a	n/a	n/a	n/a	n/a	n/a	n/a	yellow
312.2077	1.0	ITI	n/a	n/a	n/a	n/a	n/a	n/a	n/a	n/a
313.2077	0.5	FIXCROSS	n/a	n/a	n/a	n/a	n/a	n/a	n/a	n/a
313.7077	0.7166	COLOR_NAME	8	Neutral	zielony	green	Neutral	Neutral	hit	n/a
314.4145	n/a	RESPONSE	n/a	n/a	n/a	n/a	n/a	n/a	n/a	green
314.4243	1.0	ITI	n/a	n/a	n/a	n/a	n/a	n/a	n/a	n/a
315.4243	0.5	FIXCROSS	n/a	n/a	n/a	n/a	n/a	n/a	n/a	n/a
315.9243	0.7	COLOR_NAME	9	Incongruent	żółty	yellow	czerwony	red	hit	n/a
316.6051	n/a	RESPONSE	n/a	n/a	n/a	n/a	n/a	n/a	n/a	yellow
316.6243	1.0	ITI	n/a	n/a	n/a	n/a	n/a	n/a	n/a	n/a
317.6243	0.5	FIXCROSS	n/a	n/a	n/a	n/a	n/a	n/a	n/a	n/a
318.1243	0.7833	COLOR_NAME	10	Neutral	czerwony	red	Neutral	Neutral	hit	n/a
318.8915	n/a	RESPONSE	n/a	n/a	n/a	n/a	n/a	n/a	n/a	red
318.9076	1.0	ITI	n/a	n/a	n/a	n/a	n/a	n/a	n/a	n/a
319.9076	0.5	FIXCROSS	n/a	n/a	n/a	n/a	n/a	n/a	n/a	n/a
320.4076	0.55	COLOR_NAME	11	Incongruent	czerwony	red	żółty	yellow	hit	n/a
320.9382	n/a	RESPONSE	n/a	n/a	n/a	n/a	n/a	n/a	n/a	red
320.9576	1.0	ITI	n/a	n/a	n/a	n/a	n/a	n/a	n/a	n/a
321.9575	0.5	FIXCROSS	n/a	n/a	n/a	n/a	n/a	n/a	n/a	n/a
322.4575	0.7166	COLOR_NAME	12	Incongruent	zielony	green	niebieski	blue	hit	n/a
323.1608	n/a	RESPONSE	n/a	n/a	n/a	n/a	n/a	n/a	n/a	green
323.1742	1.0	ITI	n/a	n/a	n/a	n/a	n/a	n/a	n/a	n/a
324.1742	0.5	FIXCROSS	n/a	n/a	n/a	n/a	n/a	n/a	n/a	n/a
324.6742	0.55	COLOR_NAME	13	Neutral	niebieski	blue	Neutral	Neutral	hit	n/a
325.2074	n/a	RESPONSE	n/a	n/a	n/a	n/a	n/a	n/a	n/a	blue
325.2242	1.0	ITI	n/a	n/a	n/a	n/a	n/a	n/a	n/a	n/a
326.2241	0.5	FIXCROSS	n/a	n/a	n/a	n/a	n/a	n/a	n/a	n/a
326.7241	0.5333	COLOR_NAME	14	Incongruent	niebieski	blue	czerwony	red	hit	n/a
327.2381	n/a	RESPONSE	n/a	n/a	n/a	n/a	n/a	n/a	n/a	blue
327.2574	1.0	ITI	n/a	n/a	n/a	n/a	n/a	n/a	n/a	n/a
328.2574	0.5	FIXCROSS	n/a	n/a	n/a	n/a	n/a	n/a	n/a	n/a
328.7574	1.0666	COLOR_NAME	15	Incongruent	czerwony	red	zielony	green	hit	n/a
329.8125	n/a	RESPONSE	n/a	n/a	n/a	n/a	n/a	n/a	n/a	red
329.8241	1.0	ITI	n/a	n/a	n/a	n/a	n/a	n/a	n/a	n/a
330.824	0.5	FIXCROSS	n/a	n/a	n/a	n/a	n/a	n/a	n/a	n/a
331.324	0.8	COLOR_NAME	16	Neutral	zielony	green	Neutral	Neutral	hit	n/a
332.115	n/a	RESPONSE	n/a	n/a	n/a	n/a	n/a	n/a	n/a	green
332.124	1.0	ITI	n/a	n/a	n/a	n/a	n/a	n/a	n/a	n/a
333.124	0.5	FIXCROSS	n/a	n/a	n/a	n/a	n/a	n/a	n/a	n/a
333.624	0.7	COLOR_NAME	17	Incongruent	niebieski	blue	zielony	green	hit	n/a
334.3055	n/a	RESPONSE	n/a	n/a	n/a	n/a	n/a	n/a	n/a	blue
334.324	1.0	ITI	n/a	n/a	n/a	n/a	n/a	n/a	n/a	n/a
335.324	0.5	FIXCROSS	n/a	n/a	n/a	n/a	n/a	n/a	n/a	n/a
335.824	0.4833	COLOR_NAME	18	Neutral	niebieski	blue	Neutral	Neutral	hit	n/a
336.3042	n/a	RESPONSE	n/a	n/a	n/a	n/a	n/a	n/a	n/a	blue
336.3073	1.0	ITI	n/a	n/a	n/a	n/a	n/a	n/a	n/a	n/a
337.3073	0.5	FIXCROSS	n/a	n/a	n/a	n/a	n/a	n/a	n/a	n/a
337.8073	1.1166	COLOR_NAME	19	Incongruent	żółty	yellow	czerwony	red	hit	n/a
338.9104	n/a	RESPONSE	n/a	n/a	n/a	n/a	n/a	n/a	n/a	yellow
338.9239	1.0	ITI	n/a	n/a	n/a	n/a	n/a	n/a	n/a	n/a
339.9239	0.5	FIXCROSS	n/a	n/a	n/a	n/a	n/a	n/a	n/a	n/a
340.4239	0.5333	COLOR_NAME	20	Incongruent	żółty	yellow	czerwony	red	hit	n/a
340.9412	n/a	RESPONSE	n/a	n/a	n/a	n/a	n/a	n/a	n/a	yellow
340.9572	1.0	ITI	n/a	n/a	n/a	n/a	n/a	n/a	n/a	n/a
341.9572	0.5	FIXCROSS	n/a	n/a	n/a	n/a	n/a	n/a	n/a	n/a
342.4572	0.4167	COLOR_NAME	21	Neutral	żółty	yellow	Neutral	Neutral	hit	n/a
342.8599	n/a	RESPONSE	n/a	n/a	n/a	n/a	n/a	n/a	n/a	yellow
342.8738	1.0	ITI	n/a	n/a	n/a	n/a	n/a	n/a	n/a	n/a
343.8738	0.5	FIXCROSS	n/a	n/a	n/a	n/a	n/a	n/a	n/a	n/a
344.3738	0.55	COLOR_NAME	22	Incongruent	zielony	green	żółty	yellow	incorrect	n/a
344.9065	n/a	RESPONSE	n/a	n/a	n/a	n/a	n/a	n/a	n/a	red
344.9238	1.0	ITI	n/a	n/a	n/a	n/a	n/a	n/a	n/a	n/a
345.9238	0.5	FIXCROSS	n/a	n/a	n/a	n/a	n/a	n/a	n/a	n/a
346.4238	0.55	COLOR_NAME	23	Neutral	niebieski	blue	Neutral	Neutral	hit	n/a
346.9692	n/a	RESPONSE	n/a	n/a	n/a	n/a	n/a	n/a	n/a	blue
346.9738	1.0	ITI	n/a	n/a	n/a	n/a	n/a	n/a	n/a	n/a
347.9737	0.5	FIXCROSS	n/a	n/a	n/a	n/a	n/a	n/a	n/a	n/a
348.4737	0.85	COLOR_NAME	24	Neutral	czerwony	red	Neutral	Neutral	hit	n/a
349.3196	n/a	RESPONSE	n/a	n/a	n/a	n/a	n/a	n/a	n/a	red
349.3237	1.0	ITI	n/a	n/a	n/a	n/a	n/a	n/a	n/a	n/a
350.3237	0.5	FIXCROSS	n/a	n/a	n/a	n/a	n/a	n/a	n/a	n/a
350.8237	0.7833	COLOR_NAME	25	Neutral	niebieski	blue	Neutral	Neutral	hit	n/a
351.5903	n/a	RESPONSE	n/a	n/a	n/a	n/a	n/a	n/a	n/a	blue
351.607	1.0	ITI	n/a	n/a	n/a	n/a	n/a	n/a	n/a	n/a
352.607	0.4999	FIXCROSS	n/a	n/a	n/a	n/a	n/a	n/a	n/a	n/a
353.1069	0.6501	COLOR_NAME	26	Incongruent	zielony	green	czerwony	red	hit	n/a
353.7488	n/a	RESPONSE	n/a	n/a	n/a	n/a	n/a	n/a	n/a	green
353.757	1.0	ITI	n/a	n/a	n/a	n/a	n/a	n/a	n/a	n/a
354.757	0.5	FIXCROSS	n/a	n/a	n/a	n/a	n/a	n/a	n/a	n/a
355.257	0.65	COLOR_NAME	27	Incongruent	zielony	green	żółty	yellow	hit	n/a
355.8913	n/a	RESPONSE	n/a	n/a	n/a	n/a	n/a	n/a	n/a	green
355.9069	1.0	ITI	n/a	n/a	n/a	n/a	n/a	n/a	n/a	n/a
356.9069	0.5	FIXCROSS	n/a	n/a	n/a	n/a	n/a	n/a	n/a	n/a
357.4069	0.5667	COLOR_NAME	28	Neutral	niebieski	blue	Neutral	Neutral	hit	n/a
357.97	n/a	RESPONSE	n/a	n/a	n/a	n/a	n/a	n/a	n/a	blue
357.9736	1.0	ITI	n/a	n/a	n/a	n/a	n/a	n/a	n/a	n/a
358.9735	0.5	FIXCROSS	n/a	n/a	n/a	n/a	n/a	n/a	n/a	n/a
359.4736	0.6	COLOR_NAME	29	Incongruent	czerwony	red	żółty	yellow	hit	n/a
360.0647	n/a	RESPONSE	n/a	n/a	n/a	n/a	n/a	n/a	n/a	red
360.0735	1.0	ITI	n/a	n/a	n/a	n/a	n/a	n/a	n/a	n/a
361.0735	0.5	FIXCROSS	n/a	n/a	n/a	n/a	n/a	n/a	n/a	n/a
361.5735	0.7166	COLOR_NAME	30	Incongruent	zielony	green	niebieski	blue	hit	n/a
362.2872	n/a	RESPONSE	n/a	n/a	n/a	n/a	n/a	n/a	n/a	green
362.2902	1.0	ITI	n/a	n/a	n/a	n/a	n/a	n/a	n/a	n/a
363.2901	0.5	FIXCROSS	n/a	n/a	n/a	n/a	n/a	n/a	n/a	n/a
363.7901	0.55	COLOR_NAME	31	Neutral	niebieski	blue	Neutral	Neutral	hit	n/a
364.3339	n/a	RESPONSE	n/a	n/a	n/a	n/a	n/a	n/a	n/a	blue
364.3401	1.0	ITI	n/a	n/a	n/a	n/a	n/a	n/a	n/a	n/a
365.3401	0.5	FIXCROSS	n/a	n/a	n/a	n/a	n/a	n/a	n/a	n/a
365.8401	0.7	COLOR_NAME	32	Incongruent	zielony	green	czerwony	red	hit	n/a
366.5244	n/a	RESPONSE	n/a	n/a	n/a	n/a	n/a	n/a	n/a	green
366.5401	1.0	ITI	n/a	n/a	n/a	n/a	n/a	n/a	n/a	n/a
367.5401	0.5	FIXCROSS	n/a	n/a	n/a	n/a	n/a	n/a	n/a	n/a
368.0401	0.4333	COLOR_NAME	33	Neutral	zielony	green	Neutral	Neutral	hit	n/a
368.4591	n/a	RESPONSE	n/a	n/a	n/a	n/a	n/a	n/a	n/a	green
368.4734	1.0	ITI	n/a	n/a	n/a	n/a	n/a	n/a	n/a	n/a
369.4734	0.5	FIXCROSS	n/a	n/a	n/a	n/a	n/a	n/a	n/a	n/a
369.9734	0.5167	COLOR_NAME	34	Incongruent	czerwony	red	niebieski	blue	hit	n/a
370.4739	n/a	RESPONSE	n/a	n/a	n/a	n/a	n/a	n/a	n/a	red
370.49	1.0	ITI	n/a	n/a	n/a	n/a	n/a	n/a	n/a	n/a
371.49	0.5	FIXCROSS	n/a	n/a	n/a	n/a	n/a	n/a	n/a	n/a
371.99	0.4	COLOR_NAME	35	Incongruent	zielony	green	żółty	yellow	hit	n/a
372.3766	n/a	RESPONSE	n/a	n/a	n/a	n/a	n/a	n/a	n/a	green
372.39	1.0	ITI	n/a	n/a	n/a	n/a	n/a	n/a	n/a	n/a
373.39	0.5	FIXCROSS	n/a	n/a	n/a	n/a	n/a	n/a	n/a	n/a
373.89	0.5333	COLOR_NAME	36	Incongruent	niebieski	blue	czerwony	red	hit	n/a
374.4073	n/a	RESPONSE	n/a	n/a	n/a	n/a	n/a	n/a	n/a	blue
374.4233	1.0	ITI	n/a	n/a	n/a	n/a	n/a	n/a	n/a	n/a
375.4233	0.5	FIXCROSS	n/a	n/a	n/a	n/a	n/a	n/a	n/a	n/a
375.9233	0.55	COLOR_NAME	37	Neutral	czerwony	red	Neutral	Neutral	hit	n/a
376.454	n/a	RESPONSE	n/a	n/a	n/a	n/a	n/a	n/a	n/a	red
376.4732	1.0	ITI	n/a	n/a	n/a	n/a	n/a	n/a	n/a	n/a
377.4732	0.5	FIXCROSS	n/a	n/a	n/a	n/a	n/a	n/a	n/a	n/a
377.9732	0.4	COLOR_NAME	38	Neutral	niebieski	blue	Neutral	Neutral	incorrect	n/a
378.3567	n/a	RESPONSE	n/a	n/a	n/a	n/a	n/a	n/a	n/a	red
378.3732	1.0	ITI	n/a	n/a	n/a	n/a	n/a	n/a	n/a	n/a
379.3732	0.5	FIXCROSS	n/a	n/a	n/a	n/a	n/a	n/a	n/a	n/a
379.8732	0.6	COLOR_NAME	39	Incongruent	czerwony	red	niebieski	blue	hit	n/a
380.4673	n/a	RESPONSE	n/a	n/a	n/a	n/a	n/a	n/a	n/a	red
380.4732	1.0	ITI	n/a	n/a	n/a	n/a	n/a	n/a	n/a	n/a
381.4731	0.5	FIXCROSS	n/a	n/a	n/a	n/a	n/a	n/a	n/a	n/a
381.9732	0.4333	COLOR_NAME	40	Neutral	czerwony	red	Neutral	Neutral	hit	n/a
382.402	n/a	RESPONSE	n/a	n/a	n/a	n/a	n/a	n/a	n/a	red
382.4065	1.0	ITI	n/a	n/a	n/a	n/a	n/a	n/a	n/a	n/a
383.4065	0.5	FIXCROSS	n/a	n/a	n/a	n/a	n/a	n/a	n/a	n/a
383.9064	0.65	COLOR_NAME	41	Incongruent	czerwony	red	zielony	green	hit	n/a
384.5448	n/a	RESPONSE	n/a	n/a	n/a	n/a	n/a	n/a	n/a	red
384.5564	1.0	ITI	n/a	n/a	n/a	n/a	n/a	n/a	n/a	n/a
385.5564	0.5	FIXCROSS	n/a	n/a	n/a	n/a	n/a	n/a	n/a	n/a
386.0564	0.4667	COLOR_NAME	42	Incongruent	czerwony	red	zielony	green	hit	n/a
386.5114	n/a	RESPONSE	n/a	n/a	n/a	n/a	n/a	n/a	n/a	red
386.5231	1.0	ITI	n/a	n/a	n/a	n/a	n/a	n/a	n/a	n/a
387.5231	0.5	FIXCROSS	n/a	n/a	n/a	n/a	n/a	n/a	n/a	n/a
388.023	0.65	COLOR_NAME	43	Incongruent	niebieski	blue	żółty	yellow	hit	n/a
388.67	n/a	RESPONSE	n/a	n/a	n/a	n/a	n/a	n/a	n/a	blue
388.673	1.0	ITI	n/a	n/a	n/a	n/a	n/a	n/a	n/a	n/a
389.673	0.5	FIXCROSS	n/a	n/a	n/a	n/a	n/a	n/a	n/a	n/a
390.173	0.5333	COLOR_NAME	44	Neutral	żółty	yellow	Neutral	Neutral	hit	n/a
390.7007	n/a	RESPONSE	n/a	n/a	n/a	n/a	n/a	n/a	n/a	yellow
390.7063	1.0	ITI	n/a	n/a	n/a	n/a	n/a	n/a	n/a	n/a
391.7063	0.5	FIXCROSS	n/a	n/a	n/a	n/a	n/a	n/a	n/a	n/a
392.2063	0.5333	COLOR_NAME	45	Incongruent	niebieski	blue	żółty	yellow	incorrect	n/a
392.7314	n/a	RESPONSE	n/a	n/a	n/a	n/a	n/a	n/a	n/a	red
392.7314	n/a	RESPONSE	n/a	n/a	n/a	n/a	n/a	n/a	n/a	blue
392.7396	1.0	ITI	n/a	n/a	n/a	n/a	n/a	n/a	n/a	n/a
393.7396	0.5	FIXCROSS	n/a	n/a	n/a	n/a	n/a	n/a	n/a	n/a
394.2396	0.4833	COLOR_NAME	46	Incongruent	niebieski	blue	zielony	green	hit	n/a
394.714	n/a	RESPONSE	n/a	n/a	n/a	n/a	n/a	n/a	n/a	blue
394.7229	1.0	ITI	n/a	n/a	n/a	n/a	n/a	n/a	n/a	n/a
395.7229	0.5	FIXCROSS	n/a	n/a	n/a	n/a	n/a	n/a	n/a	n/a
396.2229	0.5333	COLOR_NAME	47	Incongruent	zielony	green	niebieski	blue	hit	n/a
396.7447	n/a	RESPONSE	n/a	n/a	n/a	n/a	n/a	n/a	n/a	green
396.7562	1.0	ITI	n/a	n/a	n/a	n/a	n/a	n/a	n/a	n/a
397.7562	0.5	FIXCROSS	n/a	n/a	n/a	n/a	n/a	n/a	n/a	n/a
398.2562	0.6333	COLOR_NAME	48	Incongruent	żółty	yellow	zielony	green	hit	n/a
398.8713	n/a	RESPONSE	n/a	n/a	n/a	n/a	n/a	n/a	n/a	yellow
398.8895	1.0	ITI	n/a	n/a	n/a	n/a	n/a	n/a	n/a	n/a
399.8895	0.5	FIXCROSS	n/a	n/a	n/a	n/a	n/a	n/a	n/a	n/a
400.3895	0.5833	COLOR_NAME	49	Neutral	żółty	yellow	Neutral	Neutral	hit	n/a
400.9659	n/a	RESPONSE	n/a	n/a	n/a	n/a	n/a	n/a	n/a	yellow
400.9728	1.0	ITI	n/a	n/a	n/a	n/a	n/a	n/a	n/a	n/a
401.9728	0.5	FIXCROSS	n/a	n/a	n/a	n/a	n/a	n/a	n/a	n/a
402.4728	0.5333	COLOR_NAME	50	Incongruent	żółty	yellow	niebieski	blue	hit	n/a
402.9967	n/a	RESPONSE	n/a	n/a	n/a	n/a	n/a	n/a	n/a	yellow
403.0061	1.0	ITI	n/a	n/a	n/a	n/a	n/a	n/a	n/a	n/a
404.0061	0.5	FIXCROSS	n/a	n/a	n/a	n/a	n/a	n/a	n/a	n/a
404.5061	1.2166	COLOR_NAME	51	Neutral	niebieski	blue	Neutral	Neutral	hit	n/a
405.7149	n/a	RESPONSE	n/a	n/a	n/a	n/a	n/a	n/a	n/a	blue
405.7227	1.0	ITI	n/a	n/a	n/a	n/a	n/a	n/a	n/a	n/a
406.7227	0.5	FIXCROSS	n/a	n/a	n/a	n/a	n/a	n/a	n/a	n/a
407.2227	0.6167	COLOR_NAME	52	Incongruent	niebieski	blue	zielony	green	hit	n/a
407.8256	n/a	RESPONSE	n/a	n/a	n/a	n/a	n/a	n/a	n/a	blue
407.8394	1.0	ITI	n/a	n/a	n/a	n/a	n/a	n/a	n/a	n/a
408.8393	0.5	FIXCROSS	n/a	n/a	n/a	n/a	n/a	n/a	n/a	n/a
409.3393	1.6	COLOR_NAME	53	Incongruent	żółty	yellow	niebieski	blue	hit	n/a
410.9276	n/a	RESPONSE	n/a	n/a	n/a	n/a	n/a	n/a	n/a	yellow
410.9393	1.0	ITI	n/a	n/a	n/a	n/a	n/a	n/a	n/a	n/a
411.9393	0.5	FIXCROSS	n/a	n/a	n/a	n/a	n/a	n/a	n/a	n/a
412.4393	0.4167	COLOR_NAME	54	Incongruent	żółty	yellow	zielony	green	hit	n/a
412.8464	n/a	RESPONSE	n/a	n/a	n/a	n/a	n/a	n/a	n/a	yellow
412.8559	1.0	ITI	n/a	n/a	n/a	n/a	n/a	n/a	n/a	n/a
413.8559	0.5	FIXCROSS	n/a	n/a	n/a	n/a	n/a	n/a	n/a	n/a
414.3559	0.4	COLOR_NAME	55	Neutral	żółty	yellow	Neutral	Neutral	hit	n/a
414.7491	n/a	RESPONSE	n/a	n/a	n/a	n/a	n/a	n/a	n/a	yellow
414.7559	1.0	ITI	n/a	n/a	n/a	n/a	n/a	n/a	n/a	n/a
415.7559	0.5	FIXCROSS	n/a	n/a	n/a	n/a	n/a	n/a	n/a	n/a
416.2559	0.4	COLOR_NAME	56	Neutral	niebieski	blue	Neutral	Neutral	hit	n/a
416.652	n/a	RESPONSE	n/a	n/a	n/a	n/a	n/a	n/a	n/a	blue
416.6559	1.0	ITI	n/a	n/a	n/a	n/a	n/a	n/a	n/a	n/a
417.6558	0.5	FIXCROSS	n/a	n/a	n/a	n/a	n/a	n/a	n/a	n/a
418.1558	0.4667	COLOR_NAME	57	Neutral	czerwony	red	Neutral	Neutral	hit	n/a
418.6186	n/a	RESPONSE	n/a	n/a	n/a	n/a	n/a	n/a	n/a	red
418.6225	1.0	ITI	n/a	n/a	n/a	n/a	n/a	n/a	n/a	n/a
419.6225	0.5	FIXCROSS	n/a	n/a	n/a	n/a	n/a	n/a	n/a	n/a
420.1225	0.45	COLOR_NAME	58	Neutral	zielony	green	Neutral	Neutral	hit	n/a
420.5533	n/a	RESPONSE	n/a	n/a	n/a	n/a	n/a	n/a	n/a	green
420.5725	1.0	ITI	n/a	n/a	n/a	n/a	n/a	n/a	n/a	n/a
421.5725	0.5	FIXCROSS	n/a	n/a	n/a	n/a	n/a	n/a	n/a	n/a
422.0724	0.4667	COLOR_NAME	59	Neutral	czerwony	red	Neutral	Neutral	incorrect	n/a
422.536	n/a	RESPONSE	n/a	n/a	n/a	n/a	n/a	n/a	n/a	blue
422.5391	1.0	ITI	n/a	n/a	n/a	n/a	n/a	n/a	n/a	n/a
423.5391	0.5	FIXCROSS	n/a	n/a	n/a	n/a	n/a	n/a	n/a	n/a
424.0391	0.6833	COLOR_NAME	60	Neutral	żółty	yellow	Neutral	Neutral	hit	n/a
424.7106	n/a	RESPONSE	n/a	n/a	n/a	n/a	n/a	n/a	n/a	yellow
424.7224	1.0	ITI	n/a	n/a	n/a	n/a	n/a	n/a	n/a	n/a
425.7224	0.5	FIXCROSS	n/a	n/a	n/a	n/a	n/a	n/a	n/a	n/a
426.2224	0.6833	COLOR_NAME	61	Incongruent	czerwony	red	żółty	yellow	hit	n/a
426.9013	n/a	RESPONSE	n/a	n/a	n/a	n/a	n/a	n/a	n/a	red
426.9057	1.0	ITI	n/a	n/a	n/a	n/a	n/a	n/a	n/a	n/a
427.9057	0.5	FIXCROSS	n/a	n/a	n/a	n/a	n/a	n/a	n/a	n/a
428.4057	0.65	COLOR_NAME	62	Neutral	zielony	green	Neutral	Neutral	hit	n/a
429.0439	n/a	RESPONSE	n/a	n/a	n/a	n/a	n/a	n/a	n/a	green
429.0556	1.0	ITI	n/a	n/a	n/a	n/a	n/a	n/a	n/a	n/a
430.0556	0.5	FIXCROSS	n/a	n/a	n/a	n/a	n/a	n/a	n/a	n/a
430.5556	0.5333	COLOR_NAME	63	Neutral	czerwony	red	Neutral	Neutral	hit	n/a
431.0746	n/a	RESPONSE	n/a	n/a	n/a	n/a	n/a	n/a	n/a	red
431.0889	1.0	ITI	n/a	n/a	n/a	n/a	n/a	n/a	n/a	n/a
432.0889	0.5	FIXCROSS	n/a	n/a	n/a	n/a	n/a	n/a	n/a	n/a
432.5889	0.55	COLOR_NAME	64	Neutral	żółty	yellow	Neutral	Neutral	hit	n/a
433.1212	n/a	RESPONSE	n/a	n/a	n/a	n/a	n/a	n/a	n/a	yellow
433.1389	1.0	ITI	n/a	n/a	n/a	n/a	n/a	n/a	n/a	n/a
434.1389	0.5	FIXCROSS	n/a	n/a	n/a	n/a	n/a	n/a	n/a	n/a
434.6389	0.8833	COLOR_NAME	65	Incongruent	niebieski	blue	czerwony	red	hit	n/a
435.5036	n/a	RESPONSE	n/a	n/a	n/a	n/a	n/a	n/a	n/a	blue
435.5222	1.0	ITI	n/a	n/a	n/a	n/a	n/a	n/a	n/a	n/a
436.5222	0.5	FIXCROSS	n/a	n/a	n/a	n/a	n/a	n/a	n/a	n/a
437.0222	0.5	COLOR_NAME	66	Neutral	czerwony	red	Neutral	Neutral	hit	n/a
437.5184	n/a	RESPONSE	n/a	n/a	n/a	n/a	n/a	n/a	n/a	red
437.5222	1.0	ITI	n/a	n/a	n/a	n/a	n/a	n/a	n/a	n/a
438.5221	0.5	FIXCROSS	n/a	n/a	n/a	n/a	n/a	n/a	n/a	n/a
439.0221	0.65	COLOR_NAME	67	Incongruent	żółty	yellow	zielony	green	hit	n/a
439.6609	n/a	RESPONSE	n/a	n/a	n/a	n/a	n/a	n/a	n/a	yellow
439.6721	1.0	ITI	n/a	n/a	n/a	n/a	n/a	n/a	n/a	n/a
440.6721	0.5	FIXCROSS	n/a	n/a	n/a	n/a	n/a	n/a	n/a	n/a
441.1721	0.9166	COLOR_NAME	68	Neutral	czerwony	red	Neutral	Neutral	hit	n/a
442.0754	n/a	RESPONSE	n/a	n/a	n/a	n/a	n/a	n/a	n/a	red
442.0887	1.0	ITI	n/a	n/a	n/a	n/a	n/a	n/a	n/a	n/a
443.0887	0.5	FIXCROSS	n/a	n/a	n/a	n/a	n/a	n/a	n/a	n/a
443.5887	0.5333	COLOR_NAME	69	Neutral	zielony	green	Neutral	Neutral	hit	n/a
444.106	n/a	RESPONSE	n/a	n/a	n/a	n/a	n/a	n/a	n/a	green
444.122	1.0	ITI	n/a	n/a	n/a	n/a	n/a	n/a	n/a	n/a
445.122	0.5	FIXCROSS	n/a	n/a	n/a	n/a	n/a	n/a	n/a	n/a
445.622	0.6	COLOR_NAME	70	Incongruent	zielony	green	czerwony	red	hit	n/a
446.2168	n/a	RESPONSE	n/a	n/a	n/a	n/a	n/a	n/a	n/a	green
446.222	1.0	ITI	n/a	n/a	n/a	n/a	n/a	n/a	n/a	n/a
447.222	0.5	FIXCROSS	n/a	n/a	n/a	n/a	n/a	n/a	n/a	n/a
447.722	0.3667	COLOR_NAME	71	Neutral	zielony	green	Neutral	Neutral	hit	n/a
448.0715	n/a	RESPONSE	n/a	n/a	n/a	n/a	n/a	n/a	n/a	green
448.0886	1.0	ITI	n/a	n/a	n/a	n/a	n/a	n/a	n/a	n/a
449.0886	0.5	FIXCROSS	n/a	n/a	n/a	n/a	n/a	n/a	n/a	n/a
449.5886	0.45	COLOR_NAME	72	Neutral	zielony	green	Neutral	Neutral	hit	n/a
450.0224	n/a	RESPONSE	n/a	n/a	n/a	n/a	n/a	n/a	n/a	green
450.0386	1.0167	ITI	n/a	n/a	n/a	n/a	n/a	n/a	n/a	n/a
454.4035	n/a	RESPONSE	n/a	n/a	n/a	n/a	n/a	n/a	n/a	n/a
