onset	duration	trial_type	melody_number	melody_part	key	sound	action
0.0	14.08	CUE_START	n/a	n/a	n/a	n/a	n/a
14.08	7.759	FIXCROSS	n/a	n/a	n/a	n/a	n/a
17.207	n/a	RESPONSE	        n/a	n/a	00	C3	press
17.218	n/a	RESPONSE	        n/a	n/a	07	G3	press
17.24	n/a	RESPONSE	        n/a	n/a	04	E3	press
17.771	n/a	RESPONSE	        n/a	n/a	00	C3	release
17.832	n/a	RESPONSE	        n/a	n/a	04	E3	release
21.84	6.324	CUE_LISTEN	M1	1	n/a	n/a	n/a
28.098	n/a	RESPONSE	M1	1	07	G3	release
28.164	7.758	FIXCROSS	n/a	n/a	n/a	n/a	n/a
29.46	n/a	RESPONSE	M1	1	17	F4	press
29.811	n/a	RESPONSE	M1	1	17	F4	release
35.922	6.317	CUE_PLAYBACK_RIGHT_HAND	M1	1	n/a	n/a	n/a
36.451	n/a	RESPONSE	M1	1	12	C4	press
36.812	n/a	RESPONSE	M1	1	14	D4	press
37.085	n/a	RESPONSE	M1	1	12	C4	release
37.215	n/a	RESPONSE	M1	1	14	D4	release
37.455	n/a	RESPONSE	M1	1	12	C4	press
37.716	n/a	RESPONSE	M1	1	12	C4	release
37.83	n/a	RESPONSE	M1	1	14	D4	press
38.163	n/a	RESPONSE	M1	1	14	D4	release
38.173	n/a	RESPONSE	M1	1	16	E4	press
38.575	n/a	RESPONSE	M1	1	12	C4	press
38.626	n/a	RESPONSE	M1	1	16	E4	release
38.838	n/a	RESPONSE	M1	1	12	C4	release
38.97	n/a	RESPONSE	M1	1	12	C4	press
39.35	n/a	RESPONSE	M1	1	14	D4	press
39.581	n/a	RESPONSE	M1	1	12	C4	release
39.702	n/a	RESPONSE	M1	1	14	D4	release
39.705	n/a	RESPONSE	M1	1	16	E4	press
40.107	n/a	RESPONSE	M1	1	12	C4	press
40.126	n/a	RESPONSE	M1	1	16	E4	release
40.42	n/a	RESPONSE	M1	1	12	C4	release
40.518	n/a	RESPONSE	M1	1	16	E4	press
40.971	n/a	RESPONSE	M1	1	17	F4	press
41.312	n/a	RESPONSE	M1	1	19	G4	press
41.487	n/a	RESPONSE	M1	1	16	E4	release
41.57	n/a	RESPONSE	M1	1	19	G4	release
41.65	n/a	RESPONSE	M1	1	17	F4	release
41.94	n/a	RESPONSE	M1	1	16	E4	press
42.239	7.758	FIXCROSS	n/a	n/a	n/a	n/a	n/a
42.301	n/a	RESPONSE	M1	1	17	F4	press
42.625	n/a	RESPONSE	M1	1	16	E4	release
42.653	n/a	RESPONSE	M1	1	17	F4	release
42.68	n/a	RESPONSE	M1	1	19	G4	press
42.707	n/a	RESPONSE	M1	1	21	A4	press
42.783	n/a	RESPONSE	M1	1	21	A4	release
43.292	n/a	RESPONSE	M1	1	19	G4	release
49.997	6.317	CUE_LISTEN	        M1	2	n/a	n/a	n/a
56.314	7.758	FIXCROSS	n/a	n/a	n/a	n/a	n/a
64.072	6.325	CUE_PLAYBACK_RIGHT_HAND	        M1	2	n/a	n/a	n/a
64.572	n/a	RESPONSE	        M1	2	19	G4	press
64.806	n/a	RESPONSE	        M1	2	21	A4	press
65.018	n/a	RESPONSE	        M1	2	21	A4	release
65.433	n/a	RESPONSE	        M1	2	19	G4	release
65.695	n/a	RESPONSE	        M1	2	19	G4	press
65.906	n/a	RESPONSE	        M1	2	21	A4	press
66.117	n/a	RESPONSE	        M1	2	21	A4	release
66.508	n/a	RESPONSE	        M1	2	19	G4	release
66.54	n/a	RESPONSE	        M1	2	17	F4	press
66.781	n/a	RESPONSE	        M1	2	16	E4	press
67.262	n/a	RESPONSE	        M1	2	16	E4	release
67.453	n/a	RESPONSE	        M1	2	12	C4	press
67.775	n/a	RESPONSE	        M1	2	12	C4	release
68.378	n/a	RESPONSE	        M1	2	17	F4	release
68.478	n/a	RESPONSE	        M1	2	19	G4	press
68.791	n/a	RESPONSE	        M1	2	23	B4	press
68.8	n/a	RESPONSE	        M1	2	21	A4	press
68.932	n/a	RESPONSE	        M1	2	23	B4	release
68.935	n/a	RESPONSE	        M1	2	21	A4	release
68.945	n/a	RESPONSE	        M1	2	19	G4	release
69.465	n/a	RESPONSE	        M1	2	19	G4	press
69.678	n/a	RESPONSE	        M1	2	21	A4	press
69.887	n/a	RESPONSE	        M1	2	21	A4	release
70.278	n/a	RESPONSE	        M1	2	17	F4	press
70.397	7.758	FIXCROSS	n/a	n/a	n/a	n/a	n/a
70.552	n/a	RESPONSE	        M1	2	16	E4	press
70.971	n/a	RESPONSE	        M1	2	16	E4	release
71.392	n/a	RESPONSE	        M1	2	12	C4	press
71.857	n/a	RESPONSE	        M1	2	12	C4	release
72.022	n/a	RESPONSE	        M1	2	00	C3	press
72.042	n/a	RESPONSE	        M1	2	12	C4	press
72.372	n/a	RESPONSE	        M1	2	12	C4	release
72.453	n/a	RESPONSE	        M1	2	07	G3	press
72.518	n/a	RESPONSE	        M1	2	12	C4	press
72.537	n/a	RESPONSE	        M1	2	00	C3	release
72.902	n/a	RESPONSE	        M1	2	12	C4	release
73.033	n/a	RESPONSE	        M1	2	00	C3	press
73.072	n/a	RESPONSE	        M1	2	12	C4	press
73.695	n/a	RESPONSE	        M1	2	00	C3	release
74.068	n/a	RESPONSE	        M1	2	19	G4	release
74.31	n/a	RESPONSE	        M1	2	17	F4	release
74.491	n/a	RESPONSE	        M1	2	12	C4	release
78.156	6.317	CUE_LISTEN	        M7	1	n/a	n/a	n/a
80.81	n/a	RESPONSE	        M7	1	07	G3	release
84.385	n/a	RESPONSE	        M7	1	05	F3	press
84.472	7.758	FIXCROSS	n/a	n/a	n/a	n/a	n/a
86.407	n/a	RESPONSE	        M7	1	05	F3	release
89.401	n/a	RESPONSE	        M7	1	05	F3	press
92.231	6.325	CUE_PLAYBACK_BOTH_HANDS	        M7	1	n/a	n/a	n/a
93.482	n/a	RESPONSE	        M7	1	17	F4	press
94.4	n/a	RESPONSE	        M7	1	17	F4	release
94.57	n/a	RESPONSE	        M7	1	05	F3	release
94.905	n/a	RESPONSE	        M7	1	05	F3	press
94.925	n/a	RESPONSE	        M7	1	17	F4	press
95.318	n/a	RESPONSE	        M7	1	17	F4	release
95.452	n/a	RESPONSE	        M7	1	05	F3	release
95.681	n/a	RESPONSE	        M7	1	17	F4	press
95.683	n/a	RESPONSE	        M7	1	05	F3	press
95.913	n/a	RESPONSE	        M7	1	17	F4	release
96.045	n/a	RESPONSE	        M7	1	17	F4	press
96.047	n/a	RESPONSE	        M7	1	09	A3	press
96.24	n/a	RESPONSE	        M7	1	17	F4	release
96.418	n/a	RESPONSE	        M7	1	17	F4	press
96.421	n/a	RESPONSE	        M7	1	04	E3	press
96.501	n/a	RESPONSE	        M7	1	09	A3	release
96.533	n/a	RESPONSE	        M7	1	05	F3	release
96.673	n/a	RESPONSE	        M7	1	09	A3	press
96.916	n/a	RESPONSE	        M7	1	17	F4	release
97.036	n/a	RESPONSE	        M7	1	04	E3	release
97.047	n/a	RESPONSE	        M7	1	02	D3	press
97.068	n/a	RESPONSE	        M7	1	17	F4	press
97.161	n/a	RESPONSE	        M7	1	09	A3	release
97.311	n/a	RESPONSE	        M7	1	17	F4	release
97.392	n/a	RESPONSE	        M7	1	02	D3	release
97.403	n/a	RESPONSE	        M7	1	09	A3	press
97.446	n/a	RESPONSE	        M7	1	17	F4	press
97.648	n/a	RESPONSE	        M7	1	17	F4	release
97.697	n/a	RESPONSE	        M7	1	00	C3	press
97.78	n/a	RESPONSE	        M7	1	02	D3	press
97.82	n/a	RESPONSE	        M7	1	04	E3	press
97.822	n/a	RESPONSE	        M7	1	17	F4	press
97.862	n/a	RESPONSE	        M7	1	09	A3	release
98.103	n/a	RESPONSE	        M7	1	02	D3	release
98.106	n/a	RESPONSE	        M7	1	04	E3	release
98.126	n/a	RESPONSE	        M7	1	00	C3	release
98.167	n/a	RESPONSE	        M7	1	17	F4	release
98.468	n/a	RESPONSE	        M7	1	05	F3	press
98.48	n/a	RESPONSE	        M7	1	17	F4	press
98.556	7.758	FIXCROSS	n/a	n/a	n/a	n/a	n/a
98.841	n/a	RESPONSE	        M7	1	21	A4	press
98.865	n/a	RESPONSE	        M7	1	09	A3	press
99.136	n/a	RESPONSE	        M7	1	17	F4	release
99.196	n/a	RESPONSE	        M7	1	14	D4	press
99.227	n/a	RESPONSE	        M7	1	04	E3	press
99.237	n/a	RESPONSE	        M7	1	16	E4	press
99.338	n/a	RESPONSE	        M7	1	05	F3	release
99.35	n/a	RESPONSE	        M7	1	16	E4	release
99.452	n/a	RESPONSE	        M7	1	09	A3	release
99.582	n/a	RESPONSE	        M7	1	09	A3	press
99.593	n/a	RESPONSE	        M7	1	16	E4	press
99.617	n/a	RESPONSE	        M7	1	21	A4	release
99.658	n/a	RESPONSE	        M7	1	04	E3	release
99.827	n/a	RESPONSE	        M7	1	14	D4	release
99.898	n/a	RESPONSE	        M7	1	02	D3	press
99.92	n/a	RESPONSE	        M7	1	17	F4	press
99.983	n/a	RESPONSE	        M7	1	16	E4	release
100.033	n/a	RESPONSE	        M7	1	09	A3	release
100.273	n/a	RESPONSE	        M7	1	09	A3	press
100.385	n/a	RESPONSE	        M7	1	02	D3	release
100.606	n/a	RESPONSE	        M7	1	00	C3	press
100.677	n/a	RESPONSE	        M7	1	09	A3	release
100.68	n/a	RESPONSE	        M7	1	02	D3	press
100.94	n/a	RESPONSE	        M7	1	09	A3	press
100.942	n/a	RESPONSE	        M7	1	02	D3	release
101.242	n/a	RESPONSE	        M7	1	00	C3	release
101.283	n/a	RESPONSE	        M7	1	17	F4	release
101.443	n/a	RESPONSE	        M7	1	09	A3	release
106.314	6.317	CUE_LISTEN	        M7	2	n/a	n/a	n/a
112.631	7.758	FIXCROSS	n/a	n/a	n/a	n/a	n/a
120.389	6.317	CUE_PLAYBACK_BOTH_HANDS	        M7	2	n/a	n/a	n/a
123.483	n/a	RESPONSE	        M7	2	10	A#3	press
123.497	n/a	RESPONSE	        M7	2	22	A#4	press
123.968	n/a	RESPONSE	        M7	2	22	A#4	release
123.996	n/a	RESPONSE	        M7	2	10	A#3	release
125.162	n/a	RESPONSE	        M7	2	07	G3	press
125.171	n/a	RESPONSE	        M7	2	22	A#4	press
125.495	n/a	RESPONSE	        M7	2	22	A#4	release
125.565	n/a	RESPONSE	        M7	2	10	A#3	press
125.586	n/a	RESPONSE	        M7	2	22	A#4	press
125.777	n/a	RESPONSE	        M7	2	22	A#4	release
125.911	n/a	RESPONSE	        M7	2	04	E3	press
125.942	n/a	RESPONSE	        M7	2	22	A#4	press
125.961	n/a	RESPONSE	        M7	2	10	A#3	release
126.182	n/a	RESPONSE	        M7	2	22	A#4	release
126.283	n/a	RESPONSE	        M7	2	10	A#3	press
126.315	n/a	RESPONSE	        M7	2	22	A#4	press
126.556	n/a	RESPONSE	        M7	2	22	A#4	release
126.657	n/a	RESPONSE	        M7	2	05	F3	press
126.67	n/a	RESPONSE	        M7	2	10	A#3	release
126.672	n/a	RESPONSE	        M7	2	22	A#4	press
126.706	7.758	FIXCROSS	n/a	n/a	n/a	n/a	n/a
126.815	n/a	RESPONSE	        M7	2	07	G3	release
126.873	n/a	RESPONSE	        M7	2	04	E3	release
127.107	n/a	RESPONSE	        M7	2	21	A4	press
127.136	n/a	RESPONSE	        M7	2	09	A3	press
127.227	n/a	RESPONSE	        M7	2	22	A#4	release
127.291	n/a	RESPONSE	        M7	2	05	F3	release
127.35	n/a	RESPONSE	        M7	2	21	A4	release
127.501	n/a	RESPONSE	        M7	2	00	C3	press
127.515	n/a	RESPONSE	        M7	2	02	D3	press
127.543	n/a	RESPONSE	        M7	2	21	A4	press
127.875	n/a	RESPONSE	        M7	2	21	A4	release
127.956	n/a	RESPONSE	        M7	2	00	C3	release
127.997	n/a	RESPONSE	        M7	2	02	D3	release
128.038	n/a	RESPONSE	        M7	2	21	A4	press
128.39	n/a	RESPONSE	        M7	2	21	A4	release
129.311	n/a	RESPONSE	        M7	2	09	A3	release
134.464	6.325	CUE_LISTEN	        M5	1	n/a	n/a	n/a
140.789	7.758	FIXCROSS	n/a	n/a	n/a	n/a	n/a
148.548	6.317	CUE_PLAYBACK_BOTH_HANDS	        M5	1	n/a	n/a	n/a
149.508	n/a	RESPONSE	        M5	1	17	F4	press
149.517	n/a	RESPONSE	        M5	1	07	G3	press
149.52	n/a	RESPONSE	        M5	1	04	E3	press
149.53	n/a	RESPONSE	        M5	1	00	C3	press
150.013	n/a	RESPONSE	        M5	1	16	E4	press
150.085	n/a	RESPONSE	        M5	1	17	F4	release
150.333	n/a	RESPONSE	        M5	1	16	E4	release
151.54	n/a	RESPONSE	        M5	1	04	E3	release
152.328	n/a	RESPONSE	        M5	1	07	G3	release
154.864	7.758	FIXCROSS	n/a	n/a	n/a	n/a	n/a
155.295	n/a	RESPONSE	        M5	1	00	C3	release
156.466	n/a	RESPONSE	        M5	1	04	E3	press
156.47	n/a	RESPONSE	        M5	1	17	F4	press
156.488	n/a	RESPONSE	        M5	1	07	G3	press
156.491	n/a	RESPONSE	        M5	1	00	C3	press
156.901	n/a	RESPONSE	        M5	1	14	D4	press
157.102	n/a	RESPONSE	        M5	1	17	F4	release
157.123	n/a	RESPONSE	        M5	1	14	D4	release
157.325	n/a	RESPONSE	        M5	1	14	D4	press
158.106	n/a	RESPONSE	        M5	1	14	D4	release
158.227	n/a	RESPONSE	        M5	1	00	C3	release
158.271	n/a	RESPONSE	        M5	1	04	E3	release
158.37	n/a	RESPONSE	        M5	1	05	F3	press
158.381	n/a	RESPONSE	        M5	1	16	E4	press
158.383	n/a	RESPONSE	        M5	1	02	D3	press
158.776	n/a	RESPONSE	        M5	1	16	E4	release
158.837	n/a	RESPONSE	        M5	1	12	C4	press
159.036	n/a	RESPONSE	        M5	1	12	C4	release
159.267	n/a	RESPONSE	        M5	1	12	C4	press
159.531	n/a	RESPONSE	        M5	1	12	C4	release
159.66	n/a	RESPONSE	        M5	1	02	D3	release
159.751	n/a	RESPONSE	        M5	1	05	F3	release
162.623	6.317	CUE_LISTEN	        M5	2	n/a	n/a	n/a
165.257	n/a	RESPONSE	        M5	2	07	G3	release
167.288	n/a	RESPONSE	        M5	2	00	C3	press
167.64	n/a	RESPONSE	        M5	2	02	D3	press
167.891	n/a	RESPONSE	        M5	2	04	E3	press
168.202	n/a	RESPONSE	        M5	2	05	F3	press
168.433	n/a	RESPONSE	        M5	2	00	C3	release
168.446	n/a	RESPONSE	        M5	2	04	E3	release
168.466	n/a	RESPONSE	        M5	2	02	D3	release
168.548	n/a	RESPONSE	        M5	2	07	G3	press
168.938	n/a	RESPONSE	        M5	2	05	F3	release
168.939	7.758	FIXCROSS	n/a	n/a	n/a	n/a	n/a
168.97	n/a	RESPONSE	        M5	2	07	G3	release
171.041	n/a	RESPONSE	        M5	2	17	F4	press
171.232	n/a	RESPONSE	        M5	2	17	F4	release
172.557	n/a	RESPONSE	        M5	2	12	C4	press
173.212	n/a	RESPONSE	        M5	2	12	C4	release
173.297	n/a	RESPONSE	        M5	2	12	C4	press
173.527	n/a	RESPONSE	        M5	2	14	D4	press
173.728	n/a	RESPONSE	        M5	2	12	C4	release
173.767	n/a	RESPONSE	        M5	2	16	E4	press
174.027	n/a	RESPONSE	        M5	2	17	F4	press
174.253	n/a	RESPONSE	        M5	2	19	G4	press
174.388	n/a	RESPONSE	        M5	2	14	D4	release
174.462	n/a	RESPONSE	        M5	2	16	E4	release
174.523	n/a	RESPONSE	        M5	2	17	F4	release
174.657	n/a	RESPONSE	        M5	2	19	G4	release
176.698	6.325	CUE_PLAYBACK_BOTH_HANDS	        M5	2	n/a	n/a	n/a
177.321	n/a	RESPONSE	        M5	2	04	E3	press
177.335	n/a	RESPONSE	        M5	2	19	G4	press
177.343	n/a	RESPONSE	        M5	2	07	G3	press
177.776	n/a	RESPONSE	        M5	2	16	E4	press
177.886	n/a	RESPONSE	        M5	2	19	G4	release
177.997	n/a	RESPONSE	        M5	2	16	E4	release
178.198	n/a	RESPONSE	        M5	2	16	E4	press
178.48	n/a	RESPONSE	        M5	2	16	E4	release
178.571	n/a	RESPONSE	        M5	2	04	E3	release
178.625	n/a	RESPONSE	        M5	2	05	F3	press
178.636	n/a	RESPONSE	        M5	2	17	F4	press
178.656	n/a	RESPONSE	        M5	2	02	D3	press
179.048	n/a	RESPONSE	        M5	2	14	D4	press
179.26	n/a	RESPONSE	        M5	2	14	D4	release
179.428	n/a	RESPONSE	        M5	2	14	D4	press
179.66	n/a	RESPONSE	        M5	2	02	D3	release
179.701	n/a	RESPONSE	        M5	2	14	D4	release
179.772	n/a	RESPONSE	        M5	2	05	F3	release
179.803	n/a	RESPONSE	        M5	2	04	E3	press
179.865	n/a	RESPONSE	        M5	2	12	C4	press
180.078	n/a	RESPONSE	        M5	2	16	E4	press
180.167	n/a	RESPONSE	        M5	2	12	C4	release
180.198	n/a	RESPONSE	        M5	2	17	F4	release
180.29	n/a	RESPONSE	        M5	2	12	C4	press
180.301	n/a	RESPONSE	        M5	2	16	E4	release
181.313	n/a	RESPONSE	        M5	2	04	E3	release
181.365	n/a	RESPONSE	        M5	2	12	C4	release
183.023	7.758	FIXCROSS	n/a	n/a	n/a	n/a	n/a
190.781	6.317	CUE_LISTEN	        M3	1	n/a	n/a	n/a
192.353	n/a	RESPONSE	        M3	1	07	G3	release
197.063	n/a	RESPONSE	        M3	1	20	G#4	press
197.098	7.758	FIXCROSS	n/a	n/a	n/a	n/a	n/a
197.515	n/a	RESPONSE	        M3	1	20	G#4	release
204.856	6.325	CUE_PLAYBACK_RIGHT_HAND	        M3	1	n/a	n/a	n/a
205.331	n/a	RESPONSE	        M3	1	20	G#4	press
205.962	n/a	RESPONSE	        M3	1	20	G#4	release
206.183	n/a	RESPONSE	        M3	1	20	G#4	press
206.716	n/a	RESPONSE	        M3	1	19	G4	press
206.888	n/a	RESPONSE	        M3	1	20	G#4	release
207.248	n/a	RESPONSE	        M3	1	17	F4	press
207.288	n/a	RESPONSE	        M3	1	19	G4	release
207.712	n/a	RESPONSE	        M3	1	19	G4	press
207.831	n/a	RESPONSE	        M3	1	17	F4	release
209.872	n/a	RESPONSE	        M3	1	12	C4	press
209.904	n/a	RESPONSE	        M3	1	19	G4	release
210.496	n/a	RESPONSE	        M3	1	12	C4	release
210.696	n/a	RESPONSE	        M3	1	12	C4	press
211.181	7.758	FIXCROSS	n/a	n/a	n/a	n/a	n/a
211.653	n/a	RESPONSE	        M3	1	17	F4	press
211.661	n/a	RESPONSE	        M3	1	12	C4	release
212.862	n/a	RESPONSE	        M3	1	17	F4	release
213.265	n/a	RESPONSE	        M3	1	07	G3	press
213.746	n/a	RESPONSE	        M3	1	09	A3	press
214.172	n/a	RESPONSE	        M3	1	09	A3	release
214.261	n/a	RESPONSE	        M3	1	07	G3	release
214.336	n/a	RESPONSE	        M3	1	07	G3	press
214.636	n/a	RESPONSE	        M3	1	09	A3	press
214.982	n/a	RESPONSE	        M3	1	10	A#3	press
215.114	n/a	RESPONSE	        M3	1	09	A3	release
215.357	n/a	RESPONSE	        M3	1	12	C4	press
215.488	n/a	RESPONSE	        M3	1	10	A#3	release
215.9	n/a	RESPONSE	        M3	1	14	D4	press
216.051	n/a	RESPONSE	        M3	1	12	C4	release
216.743	n/a	RESPONSE	        M3	1	07	G3	release
216.953	n/a	RESPONSE	        M3	1	14	D4	release
218.939	6.317	CUE_LISTEN	        M3	2	n/a	n/a	n/a
225.256	7.758	FIXCROSS	n/a	n/a	n/a	n/a	n/a
233.014	6.317	CUE_PLAYBACK_RIGHT_HAND	        M3	2	n/a	n/a	n/a
235.716	n/a	RESPONSE	        M3	2	10	A#3	press
236.297	n/a	RESPONSE	        M3	2	10	A#3	release
236.888	n/a	RESPONSE	        M3	2	10	A#3	press
237.48	n/a	RESPONSE	        M3	2	12	C4	press
237.671	n/a	RESPONSE	        M3	2	10	A#3	release
238.002	n/a	RESPONSE	        M3	2	12	C4	release
239.331	7.758	FIXCROSS	n/a	n/a	n/a	n/a	n/a
247.089	6.325	CUE_LISTEN	        M6	1	n/a	n/a	n/a
253.414	7.758	FIXCROSS	n/a	n/a	n/a	n/a	n/a
254.224	n/a	RESPONSE	        M6	1	11	B3	press
255.708	n/a	RESPONSE	        M6	1	11	B3	release
261.173	6.317	CUE_PLAYBACK_RIGHT_HAND	        M6	1	n/a	n/a	n/a
263.22	n/a	RESPONSE	        M6	1	11	B3	press
263.511	n/a	RESPONSE	        M6	1	11	B3	release
263.906	n/a	RESPONSE	        M6	1	11	B3	press
264.237	n/a	RESPONSE	        M6	1	11	B3	release
264.503	n/a	RESPONSE	        M6	1	11	B3	press
265.093	n/a	RESPONSE	        M6	1	16	E4	press
265.414	n/a	RESPONSE	        M6	1	11	B3	release
265.597	n/a	RESPONSE	        M6	1	16	E4	release
265.767	n/a	RESPONSE	        M6	1	11	B3	press
266.147	n/a	RESPONSE	        M6	1	16	E4	press
266.431	n/a	RESPONSE	        M6	1	19	G4	press
266.45	n/a	RESPONSE	        M6	1	11	B3	release
266.691	n/a	RESPONSE	        M6	1	16	E4	release
266.762	n/a	RESPONSE	        M6	1	19	G4	release
266.844	n/a	RESPONSE	        M6	1	17	F4	press
267.194	n/a	RESPONSE	        M6	1	17	F4	release
267.216	n/a	RESPONSE	        M6	1	16	E4	press
267.489	7.758	FIXCROSS	n/a	n/a	n/a	n/a	n/a
267.547	n/a	RESPONSE	        M6	1	14	D4	press
267.608	n/a	RESPONSE	        M6	1	16	E4	release
267.812	n/a	RESPONSE	        M6	1	16	E4	press
268.001	n/a	RESPONSE	        M6	1	14	D4	release
268.232	n/a	RESPONSE	        M6	1	16	E4	release
268.323	n/a	RESPONSE	        M6	1	11	B3	press
269.384	n/a	RESPONSE	        M6	1	16	E4	press
269.696	n/a	RESPONSE	        M6	1	11	B3	release
269.887	n/a	RESPONSE	        M6	1	19	G4	press
270.148	n/a	RESPONSE	        M6	1	19	G4	release
270.232	n/a	RESPONSE	        M6	1	16	E4	release
270.243	n/a	RESPONSE	        M6	1	17	F4	press
270.592	n/a	RESPONSE	        M6	1	17	F4	release
270.633	n/a	RESPONSE	        M6	1	16	E4	press
270.954	n/a	RESPONSE	        M6	1	14	D4	press
271.078	n/a	RESPONSE	        M6	1	16	E4	release
271.237	n/a	RESPONSE	        M6	1	14	D4	release
271.288	n/a	RESPONSE	        M6	1	16	E4	press
271.74	n/a	RESPONSE	        M6	1	16	E4	release
275.248	6.317	CUE_LISTEN	        M6	2	n/a	n/a	n/a
281.564	7.758	FIXCROSS	n/a	n/a	n/a	n/a	n/a
289.323	6.317	CUE_PLAYBACK_RIGHT_HAND	        M6	2	n/a	n/a	n/a
289.757	n/a	RESPONSE	        M6	2	11	B3	press
290.106	n/a	RESPONSE	        M6	2	16	E4	press
290.947	n/a	RESPONSE	        M6	2	11	B3	release
291.09	n/a	RESPONSE	        M6	2	21	A4	press
291.182	n/a	RESPONSE	        M6	2	16	E4	release
291.606	n/a	RESPONSE	        M6	2	18	F#4	press
291.924	n/a	RESPONSE	        M6	2	21	A4	release
291.958	n/a	RESPONSE	        M6	2	17	F4	press
291.998	n/a	RESPONSE	        M6	2	16	E4	press
292.133	n/a	RESPONSE	        M6	2	18	F#4	release
292.766	n/a	RESPONSE	        M6	2	16	E4	release
292.768	n/a	RESPONSE	        M6	2	17	F4	release
293.356	n/a	RESPONSE	        M6	2	11	B3	press
294.39	n/a	RESPONSE	        M6	2	11	B3	release
294.554	n/a	RESPONSE	        M6	2	11	B3	press
294.902	n/a	RESPONSE	        M6	2	16	E4	press
295.324	n/a	RESPONSE	        M6	2	16	E4	release
295.327	n/a	RESPONSE	        M6	2	11	B3	release
295.64	7.758	FIXCROSS	n/a	n/a	n/a	n/a	n/a
295.947	n/a	RESPONSE	        M6	2	11	B3	press
296.361	n/a	RESPONSE	        M6	2	11	B3	release
303.398	6.325	CUE_LISTEN	        M2	1	n/a	n/a	n/a
309.723	7.758	FIXCROSS	n/a	n/a	n/a	n/a	n/a
311.663	n/a	RESPONSE	        M2	1	07	G3	press
311.681	n/a	RESPONSE	        M2	1	00	C3	press
312.33	n/a	RESPONSE	        M2	1	00	C3	release
314.504	n/a	RESPONSE	        M2	1	24	C5	press
316.92	n/a	RESPONSE	        M2	1	24	C5	release
317.481	6.317	CUE_PLAYBACK_BOTH_HANDS	        M2	1	n/a	n/a	n/a
317.852	n/a	RESPONSE	        M2	1	00	C3	press
317.863	n/a	RESPONSE	        M2	1	24	C5	press
318.256	n/a	RESPONSE	        M2	1	19	G4	press
318.464	n/a	RESPONSE	        M2	1	24	C5	release
318.548	n/a	RESPONSE	        M2	1	00	C3	release
318.677	n/a	RESPONSE	        M2	1	00	C3	press
319.001	n/a	RESPONSE	        M2	1	17	F4	press
319.27	n/a	RESPONSE	        M2	1	00	C3	release
319.351	n/a	RESPONSE	        M2	1	17	F4	release
319.392	n/a	RESPONSE	        M2	1	16	E4	press
319.433	n/a	RESPONSE	        M2	1	00	C3	press
319.464	n/a	RESPONSE	        M2	1	19	G4	release
319.788	n/a	RESPONSE	        M2	1	17	F4	press
320.007	n/a	RESPONSE	        M2	1	16	E4	release
320.01	n/a	RESPONSE	        M2	1	00	C3	release
320.1	n/a	RESPONSE	        M2	1	17	F4	release
320.181	n/a	RESPONSE	        M2	1	19	G4	press
320.183	n/a	RESPONSE	        M2	1	00	C3	press
320.823	n/a	RESPONSE	        M2	1	19	G4	release
320.854	n/a	RESPONSE	        M2	1	00	C3	release
320.926	n/a	RESPONSE	        M2	1	24	C5	press
320.947	n/a	RESPONSE	        M2	1	00	C3	press
321.31	n/a	RESPONSE	        M2	1	19	G4	press
321.442	n/a	RESPONSE	        M2	1	24	C5	release
322.127	n/a	RESPONSE	        M2	1	19	G4	release
322.137	n/a	RESPONSE	        M2	1	00	C3	release
322.261	n/a	RESPONSE	        M2	1	00	C3	press
322.283	n/a	RESPONSE	        M2	1	19	G4	press
322.556	n/a	RESPONSE	        M2	1	17	F4	press
322.766	n/a	RESPONSE	        M2	1	19	G4	release
322.906	n/a	RESPONSE	        M2	1	16	E4	press
323.108	n/a	RESPONSE	        M2	1	17	F4	release
323.132	n/a	RESPONSE	        M2	1	00	C3	release
323.248	n/a	RESPONSE	        M2	1	16	E4	release
323.31	n/a	RESPONSE	        M2	1	00	C3	press
323.313	n/a	RESPONSE	        M2	1	14	D4	press
323.706	n/a	RESPONSE	        M2	1	12	C4	press
323.798	7.758	FIXCROSS	n/a	n/a	n/a	n/a	n/a
324.028	n/a	RESPONSE	        M2	1	14	D4	release
324.395	n/a	RESPONSE	        M2	1	12	C4	release
324.452	n/a	RESPONSE	        M2	1	00	C3	release
331.556	6.325	CUE_LISTEN	        M2	2	n/a	n/a	n/a
337.881	7.758	FIXCROSS	n/a	n/a	n/a	n/a	n/a
345.64	6.317	CUE_PLAYBACK_BOTH_HANDS	        M2	2	n/a	n/a	n/a
346.246	n/a	RESPONSE	        M2	2	07	G3	release
346.426	n/a	RESPONSE	        M2	2	07	G3	press
346.438	n/a	RESPONSE	        M2	2	00	C3	press
346.468	n/a	RESPONSE	        M2	2	12	C4	press
346.84	n/a	RESPONSE	        M2	2	14	D4	press
347.091	n/a	RESPONSE	        M2	2	12	C4	release
347.112	n/a	RESPONSE	        M2	2	00	C3	release
347.123	n/a	RESPONSE	        M2	2	14	D4	release
347.224	n/a	RESPONSE	        M2	2	00	C3	press
347.246	n/a	RESPONSE	        M2	2	16	E4	press
347.647	n/a	RESPONSE	        M2	2	14	D4	press
347.718	n/a	RESPONSE	        M2	2	16	E4	release
347.88	n/a	RESPONSE	        M2	2	00	C3	release
347.961	n/a	RESPONSE	        M2	2	14	D4	release
348.012	n/a	RESPONSE	        M2	2	00	C3	press
348.043	n/a	RESPONSE	        M2	2	16	E4	press
348.404	n/a	RESPONSE	        M2	2	17	F4	press
348.598	n/a	RESPONSE	        M2	2	16	E4	release
348.658	n/a	RESPONSE	        M2	2	00	C3	release
348.678	n/a	RESPONSE	        M2	2	17	F4	release
348.81	n/a	RESPONSE	        M2	2	00	C3	press
348.831	n/a	RESPONSE	        M2	2	19	G4	press
348.854	n/a	RESPONSE	        M2	2	21	A4	press
348.903	n/a	RESPONSE	        M2	2	21	A4	release
349.474	n/a	RESPONSE	        M2	2	00	C3	release
349.498	n/a	RESPONSE	        M2	2	19	G4	release
349.547	n/a	RESPONSE	        M2	2	16	E4	press
349.55	n/a	RESPONSE	        M2	2	00	C3	press
349.941	n/a	RESPONSE	        M2	2	19	G4	press
349.951	n/a	RESPONSE	        M2	2	16	E4	release
350.164	n/a	RESPONSE	        M2	2	00	C3	release
350.183	n/a	RESPONSE	        M2	2	19	G4	release
350.286	n/a	RESPONSE	        M2	2	00	C3	press
350.317	n/a	RESPONSE	        M2	2	19	G4	press
350.667	n/a	RESPONSE	        M2	2	17	F4	press
350.888	n/a	RESPONSE	        M2	2	19	G4	release
350.9	n/a	RESPONSE	        M2	2	00	C3	release
350.941	n/a	RESPONSE	        M2	2	17	F4	release
351.032	n/a	RESPONSE	        M2	2	00	C3	press
351.053	n/a	RESPONSE	        M2	2	16	E4	press
351.424	n/a	RESPONSE	        M2	2	14	D4	press
351.627	n/a	RESPONSE	        M2	2	16	E4	release
351.662	n/a	RESPONSE	        M2	2	14	D4	release
351.7	n/a	RESPONSE	        M2	2	00	C3	release
351.792	n/a	RESPONSE	        M2	2	00	C3	press
351.803	n/a	RESPONSE	        M2	2	12	C4	press
351.956	7.758	FIXCROSS	n/a	n/a	n/a	n/a	n/a
352.881	n/a	RESPONSE	        M2	2	12	C4	release
352.951	n/a	RESPONSE	        M2	2	00	C3	release
358.237	n/a	RESPONSE	        M2	2	07	G3	release
359.715	6.317	CUE_LISTEN	        M8	1	n/a	n/a	n/a
366.031	7.758	FIXCROSS	n/a	n/a	n/a	n/a	n/a
371.983	n/a	RESPONSE	        M8	1	24	C5	press
372.648	n/a	RESPONSE	        M8	1	17	F4	press
373.047	n/a	RESPONSE	        M8	1	24	C5	release
373.153	n/a	RESPONSE	        M8	1	17	F4	release
373.227	n/a	RESPONSE	        M8	1	17	F4	press
373.79	6.325	CUE_PLAYBACK_BOTH_HANDS	        M8	1	n/a	n/a	n/a
374.048	n/a	RESPONSE	        M8	1	17	F4	release
374.273	n/a	RESPONSE	        M8	1	16	E4	press
374.584	n/a	RESPONSE	        M8	1	17	F4	press
375.104	n/a	RESPONSE	        M8	1	17	F4	release
375.107	n/a	RESPONSE	        M8	1	16	E4	release
375.408	n/a	RESPONSE	        M8	1	24	C5	press
376.0	n/a	RESPONSE	        M8	1	21	A4	press
376.003	n/a	RESPONSE	        M8	1	23	B4	press
376.172	n/a	RESPONSE	        M8	1	23	B4	release
376.363	n/a	RESPONSE	        M8	1	21	A4	release
376.504	n/a	RESPONSE	        M8	1	21	A4	press
376.918	n/a	RESPONSE	        M8	1	21	A4	release
377.177	n/a	RESPONSE	        M8	1	21	A4	press
377.408	n/a	RESPONSE	        M8	1	19	G4	press
377.639	n/a	RESPONSE	        M8	1	17	F4	press
378.011	n/a	RESPONSE	        M8	1	16	E4	press
378.163	n/a	RESPONSE	        M8	1	17	F4	release
378.193	n/a	RESPONSE	        M8	1	19	G4	release
378.404	n/a	RESPONSE	        M8	1	24	C5	release
378.676	n/a	RESPONSE	        M8	1	21	A4	release
378.798	n/a	RESPONSE	        M8	1	16	E4	release
378.911	n/a	RESPONSE	        M8	1	16	E4	press
379.141	n/a	RESPONSE	        M8	1	19	G4	press
379.361	n/a	RESPONSE	        M8	1	24	C5	press
379.522	n/a	RESPONSE	        M8	1	19	G4	release
380.103	n/a	RESPONSE	        M8	1	24	C5	release
380.115	7.759	FIXCROSS	n/a	n/a	n/a	n/a	n/a
381.257	n/a	RESPONSE	        M8	1	16	E4	release
383.756	n/a	RESPONSE	        M8	1	16	E4	press
384.072	n/a	RESPONSE	        M8	1	14	D4	press
384.546	n/a	RESPONSE	        M8	1	12	C4	press
384.898	n/a	RESPONSE	        M8	1	11	B3	press
385.268	n/a	RESPONSE	        M8	1	09	A3	press
385.351	n/a	RESPONSE	        M8	1	12	C4	release
385.402	n/a	RESPONSE	        M8	1	14	D4	release
385.404	n/a	RESPONSE	        M8	1	11	B3	release
385.633	n/a	RESPONSE	        M8	1	09	A3	release
387.873	6.317	CUE_LISTEN	        M8	2	n/a	n/a	n/a
394.19	7.758	FIXCROSS	n/a	n/a	n/a	n/a	n/a
395.939	n/a	RESPONSE	        M8	2	16	E4	release
401.948	6.317	CUE_PLAYBACK_BOTH_HANDS	        M8	2	n/a	n/a	n/a
402.358	n/a	RESPONSE	        M8	2	16	E4	press
402.746	n/a	RESPONSE	        M8	2	16	E4	release
403.013	n/a	RESPONSE	        M8	2	16	E4	press
403.339	n/a	RESPONSE	        M8	2	19	G4	press
403.573	n/a	RESPONSE	        M8	2	24	C5	press
403.622	n/a	RESPONSE	        M8	2	23	B4	press
403.773	n/a	RESPONSE	        M8	2	23	B4	release
403.783	n/a	RESPONSE	        M8	2	16	E4	release
403.794	n/a	RESPONSE	        M8	2	19	G4	release
403.894	n/a	RESPONSE	        M8	2	24	C5	release
404.109	n/a	RESPONSE	        M8	2	24	C5	press
404.688	n/a	RESPONSE	        M8	2	18	F#4	press
404.692	n/a	RESPONSE	        M8	2	09	A3	press
404.808	n/a	RESPONSE	        M8	2	24	C5	release
405.211	n/a	RESPONSE	        M8	2	11	B3	press
405.712	n/a	RESPONSE	        M8	2	14	D4	press
405.996	n/a	RESPONSE	        M8	2	09	A3	release
406.256	n/a	RESPONSE	        M8	2	18	F#4	release
406.396	n/a	RESPONSE	        M8	2	14	D4	release
406.657	n/a	RESPONSE	        M8	2	21	A4	press
406.659	n/a	RESPONSE	        M8	2	13	C#4	press
406.792	n/a	RESPONSE	        M8	2	11	B3	release
407.351	n/a	RESPONSE	        M8	2	21	A4	release
407.392	n/a	RESPONSE	        M8	2	13	C#4	release
407.546	n/a	RESPONSE	        M8	2	14	D4	press
407.556	n/a	RESPONSE	        M8	2	21	A4	press
408.157	n/a	RESPONSE	        M8	2	21	A4	release
408.218	n/a	RESPONSE	        M8	2	14	D4	release
408.265	7.758	FIXCROSS	n/a	n/a	n/a	n/a	n/a
408.379	n/a	RESPONSE	        M8	2	24	C5	press
408.382	n/a	RESPONSE	        M8	2	23	B4	press
408.384	n/a	RESPONSE	        M8	2	11	B3	press
408.393	n/a	RESPONSE	        M8	2	09	A3	press
408.857	n/a	RESPONSE	        M8	2	23	B4	release
408.926	n/a	RESPONSE	        M8	2	09	A3	release
408.967	n/a	RESPONSE	        M8	2	24	C5	release
409.311	n/a	RESPONSE	        M8	2	11	B3	release
416.023	6.325	CUE_LISTEN	        M4	1	n/a	n/a	n/a
422.348	7.758	FIXCROSS	n/a	n/a	n/a	n/a	n/a
430.106	6.317	CUE_PLAYBACK_RIGHT_HAND	        M4	1	n/a	n/a	n/a
430.507	n/a	RESPONSE	        M4	1	19	G4	press
430.777	n/a	RESPONSE	        M4	1	18	F#4	press
430.779	n/a	RESPONSE	        M4	1	19	G4	release
431.021	n/a	RESPONSE	        M4	1	19	G4	press
431.271	n/a	RESPONSE	        M4	1	18	F#4	release
431.731	n/a	RESPONSE	        M4	1	23	B4	press
432.079	n/a	RESPONSE	        M4	1	23	B4	release
432.106	n/a	RESPONSE	        M4	1	24	C5	press
432.232	n/a	RESPONSE	        M4	1	24	C5	release
432.244	n/a	RESPONSE	        M4	1	19	G4	release
432.611	n/a	RESPONSE	        M4	1	23	B4	press
432.914	n/a	RESPONSE	        M4	1	23	B4	release
432.936	n/a	RESPONSE	        M4	1	24	C5	press
433.176	n/a	RESPONSE	        M4	1	24	C5	release
433.193	n/a	RESPONSE	        M4	1	23	B4	press
434.241	n/a	RESPONSE	        M4	1	18	F#4	press
434.336	n/a	RESPONSE	        M4	1	23	B4	release
434.501	n/a	RESPONSE	        M4	1	16	E4	press
434.528	n/a	RESPONSE	        M4	1	18	F#4	release
434.777	n/a	RESPONSE	        M4	1	18	F#4	press
434.998	n/a	RESPONSE	        M4	1	16	E4	release
435.257	n/a	RESPONSE	        M4	1	19	G4	press
435.427	n/a	RESPONSE	        M4	1	18	F#4	release
435.451	n/a	RESPONSE	        M4	1	21	A4	press
435.539	n/a	RESPONSE	        M4	1	19	G4	release
435.721	n/a	RESPONSE	        M4	1	19	G4	press
435.852	n/a	RESPONSE	        M4	1	21	A4	release
436.423	7.758	FIXCROSS	n/a	n/a	n/a	n/a	n/a
436.586	n/a	RESPONSE	        M4	1	19	G4	release
436.804	n/a	RESPONSE	        M4	1	18	F#4	press
437.026	n/a	RESPONSE	        M4	1	16	E4	press
437.108	n/a	RESPONSE	        M4	1	18	F#4	release
437.271	n/a	RESPONSE	        M4	1	18	F#4	press
437.349	n/a	RESPONSE	        M4	1	16	E4	release
437.821	n/a	RESPONSE	        M4	1	24	C5	press
437.903	n/a	RESPONSE	        M4	1	18	F#4	release
438.063	n/a	RESPONSE	        M4	1	24	C5	release
438.414	n/a	RESPONSE	        M4	1	21	A4	press
438.687	n/a	RESPONSE	        M4	1	24	C5	press
438.969	n/a	RESPONSE	        M4	1	21	A4	release
439.088	n/a	RESPONSE	        M4	1	24	C5	release
444.182	6.325	CUE_LISTEN	        M4	2	n/a	n/a	n/a
450.506	7.758	FIXCROSS	n/a	n/a	n/a	n/a	n/a
458.265	6.317	CUE_PLAYBACK_RIGHT_HAND	        M4	2	n/a	n/a	n/a
458.898	n/a	RESPONSE	        M4	2	24	C5	press
459.291	n/a	RESPONSE	        M4	2	24	C5	release
459.511	n/a	RESPONSE	        M4	2	24	C5	press
460.232	n/a	RESPONSE	        M4	2	24	C5	release
460.296	n/a	RESPONSE	        M4	2	21	A4	press
460.784	n/a	RESPONSE	        M4	2	21	A4	release
460.916	n/a	RESPONSE	        M4	2	21	A4	press
462.013	n/a	RESPONSE	        M4	2	21	A4	release
462.287	n/a	RESPONSE	        M4	2	24	C5	press
462.686	n/a	RESPONSE	        M4	2	24	C5	release
462.854	n/a	RESPONSE	        M4	2	24	C5	press
463.829	n/a	RESPONSE	        M4	2	18	F#4	press
463.863	n/a	RESPONSE	        M4	2	24	C5	release
464.582	7.758	FIXCROSS	n/a	n/a	n/a	n/a	n/a
465.076	n/a	RESPONSE	        M4	2	18	F#4	release
472.34	6.317	CUE_LISTEN	        M3	1	n/a	n/a	n/a
477.46	n/a	RESPONSE	        M3	1	12	C4	press
478.371	n/a	RESPONSE	        M3	1	12	C4	release
478.656	7.758	FIXCROSS	n/a	n/a	n/a	n/a	n/a
479.332	n/a	RESPONSE	        M3	1	12	C4	press
479.603	n/a	RESPONSE	        M3	1	14	D4	press
479.844	n/a	RESPONSE	        M3	1	16	E4	press
480.196	n/a	RESPONSE	        M3	1	17	F4	press
480.327	n/a	RESPONSE	        M3	1	12	C4	release
480.348	n/a	RESPONSE	        M3	1	17	F4	release
480.361	n/a	RESPONSE	        M3	1	16	E4	release
480.421	n/a	RESPONSE	        M3	1	14	D4	release
486.415	6.317	CUE_PLAYBACK_RIGHT_HAND	        M3	1	n/a	n/a	n/a
486.812	n/a	RESPONSE	        M3	1	19	G4	press
487.356	n/a	RESPONSE	        M3	1	16	E4	press
487.464	n/a	RESPONSE	        M3	1	19	G4	release
488.186	n/a	RESPONSE	        M3	1	16	E4	release
488.347	n/a	RESPONSE	        M3	1	16	E4	press
488.718	n/a	RESPONSE	        M3	1	16	E4	release
488.859	n/a	RESPONSE	        M3	1	17	F4	press
489.192	n/a	RESPONSE	        M3	1	17	F4	release
489.332	n/a	RESPONSE	        M3	1	14	D4	press
489.573	n/a	RESPONSE	        M3	1	14	D4	release
489.804	n/a	RESPONSE	        M3	1	14	D4	press
490.086	n/a	RESPONSE	        M3	1	14	D4	release
490.227	n/a	RESPONSE	        M3	1	12	C4	press
490.488	n/a	RESPONSE	        M3	1	16	E4	press
490.759	n/a	RESPONSE	        M3	1	19	G4	press
490.952	n/a	RESPONSE	        M3	1	16	E4	release
490.992	n/a	RESPONSE	        M3	1	12	C4	release
491.498	n/a	RESPONSE	        M3	1	19	G4	release
492.732	7.758	FIXCROSS	n/a	n/a	n/a	n/a	n/a
500.49	6.325	CUE_LISTEN	        M3	2	n/a	n/a	n/a
506.815	7.758	FIXCROSS	n/a	n/a	n/a	n/a	n/a
514.573	6.317	CUE_PLAYBACK_RIGHT_HAND	        M3	2	n/a	n/a	n/a
515.479	n/a	RESPONSE	        M3	2	19	G4	press
516.038	n/a	RESPONSE	        M3	2	16	E4	press
516.229	n/a	RESPONSE	        M3	2	19	G4	release
516.311	n/a	RESPONSE	        M3	2	16	E4	release
516.553	n/a	RESPONSE	        M3	2	16	E4	press
516.886	n/a	RESPONSE	        M3	2	16	E4	release
517.044	n/a	RESPONSE	        M3	2	17	F4	press
517.546	n/a	RESPONSE	        M3	2	14	D4	press
517.757	n/a	RESPONSE	        M3	2	14	D4	release
518.008	n/a	RESPONSE	        M3	2	14	D4	press
518.289	n/a	RESPONSE	        M3	2	14	D4	release
518.441	n/a	RESPONSE	        M3	2	12	C4	press
518.672	n/a	RESPONSE	        M3	2	16	E4	press
518.743	n/a	RESPONSE	        M3	2	12	C4	release
518.914	n/a	RESPONSE	        M3	2	12	C4	press
519.006	n/a	RESPONSE	        M3	2	16	E4	release
519.497	n/a	RESPONSE	        M3	2	17	F4	release
519.568	n/a	RESPONSE	        M3	2	12	C4	release
520.89	7.758	FIXCROSS	n/a	n/a	n/a	n/a	n/a
528.648	6.325	CUE_LISTEN	        M5	1	n/a	n/a	n/a
534.973	7.758	FIXCROSS	n/a	n/a	n/a	n/a	n/a
542.732	6.317	CUE_PLAYBACK_BOTH_HANDS	        M5	1	n/a	n/a	n/a
543.301	n/a	RESPONSE	        M5	1	22	A#4	press
543.634	n/a	RESPONSE	        M5	1	22	A#4	release
543.839	n/a	RESPONSE	        M5	1	07	G3	press
543.852	n/a	RESPONSE	        M5	1	22	A#4	press
544.413	n/a	RESPONSE	        M5	1	21	A4	press
544.597	n/a	RESPONSE	        M5	1	22	A#4	release
544.809	n/a	RESPONSE	        M5	1	21	A4	release
544.957	n/a	RESPONSE	        M5	1	19	G4	press
545.369	n/a	RESPONSE	        M5	1	19	G4	release
545.501	n/a	RESPONSE	        M5	1	05	F3	press
545.512	n/a	RESPONSE	        M5	1	21	A4	press
545.693	n/a	RESPONSE	        M5	1	07	G3	release
547.916	n/a	RESPONSE	        M5	1	14	D4	press
547.987	n/a	RESPONSE	        M5	1	21	A4	release
548.458	n/a	RESPONSE	        M5	1	14	D4	release
548.629	n/a	RESPONSE	        M5	1	14	D4	press
549.048	7.758	FIXCROSS	n/a	n/a	n/a	n/a	n/a
550.001	n/a	RESPONSE	        M5	1	14	D4	release
552.108	n/a	RESPONSE	        M5	1	05	F3	release
556.807	6.317	CUE_LISTEN	        M5	2	n/a	n/a	n/a
563.123	7.758	FIXCROSS	n/a	n/a	n/a	n/a	n/a
565.462	n/a	RESPONSE	        M5	2	12	C4	press
566.133	n/a	RESPONSE	        M5	2	12	C4	release
566.414	n/a	RESPONSE	        M5	2	12	C4	press
566.707	n/a	RESPONSE	        M5	2	11	B3	press
566.927	n/a	RESPONSE	        M5	2	12	C4	release
567.118	n/a	RESPONSE	        M5	2	09	A3	press
567.419	n/a	RESPONSE	        M5	2	07	G3	press
567.651	n/a	RESPONSE	        M5	2	11	B3	release
567.792	n/a	RESPONSE	        M5	2	09	A3	release
567.794	n/a	RESPONSE	        M5	2	07	G3	release
570.882	6.325	CUE_PLAYBACK_BOTH_HANDS	        M5	2	n/a	n/a	n/a
571.238	n/a	RESPONSE	        M5	2	12	C4	press
571.639	n/a	RESPONSE	        M5	2	11	B3	press
571.823	n/a	RESPONSE	        M5	2	12	C4	release
572.076	n/a	RESPONSE	        M5	2	09	A3	press
572.438	n/a	RESPONSE	        M5	2	07	G3	press
572.519	n/a	RESPONSE	        M5	2	05	F3	press
572.547	n/a	RESPONSE	        M5	2	11	B3	release
572.549	n/a	RESPONSE	        M5	2	09	A3	release
572.829	n/a	RESPONSE	        M5	2	05	F3	release
572.998	n/a	RESPONSE	        M5	2	07	G3	release
573.032	n/a	RESPONSE	        M5	2	09	A3	press
573.078	n/a	RESPONSE	        M5	2	12	C4	press
573.097	n/a	RESPONSE	        M5	2	16	E4	press
574.198	n/a	RESPONSE	        M5	2	15	D#4	press
574.246	n/a	RESPONSE	        M5	2	16	E4	release
574.652	n/a	RESPONSE	        M5	2	16	E4	press
574.793	n/a	RESPONSE	        M5	2	15	D#4	release
575.842	n/a	RESPONSE	        M5	2	12	C4	release
576.693	n/a	RESPONSE	        M5	2	16	E4	release
576.774	n/a	RESPONSE	        M5	2	09	A3	release
577.207	7.758	FIXCROSS	n/a	n/a	n/a	n/a	n/a
584.965	6.317	CUE_LISTEN	        M1	1	n/a	n/a	n/a
591.282	7.758	FIXCROSS	n/a	n/a	n/a	n/a	n/a
599.04	6.317	CUE_PLAYBACK_RIGHT_HAND	        M1	1	n/a	n/a	n/a
599.519	n/a	RESPONSE	        M1	1	21	A4	press
599.768	n/a	RESPONSE	        M1	1	21	A4	release
599.869	n/a	RESPONSE	        M1	1	21	A4	press
600.561	n/a	RESPONSE	        M1	1	21	A4	release
600.662	n/a	RESPONSE	        M1	1	21	A4	press
601.083	n/a	RESPONSE	        M1	1	21	A4	release
601.244	n/a	RESPONSE	        M1	1	21	A4	press
601.474	n/a	RESPONSE	        M1	1	21	A4	release
601.617	n/a	RESPONSE	        M1	1	21	A4	press
601.848	n/a	RESPONSE	        M1	1	21	A4	release
601.993	n/a	RESPONSE	        M1	1	21	A4	press
602.374	n/a	RESPONSE	        M1	1	21	A4	release
602.554	n/a	RESPONSE	        M1	1	21	A4	press
602.999	n/a	RESPONSE	        M1	1	24	C5	press
603.096	n/a	RESPONSE	        M1	1	21	A4	release
603.612	n/a	RESPONSE	        M1	1	17	F4	press
604.009	n/a	RESPONSE	        M1	1	19	G4	press
604.027	n/a	RESPONSE	        M1	1	24	C5	release
604.303	n/a	RESPONSE	        M1	1	17	F4	release
604.374	n/a	RESPONSE	        M1	1	21	A4	press
604.428	n/a	RESPONSE	        M1	1	19	G4	release
605.167	n/a	RESPONSE	        M1	1	21	A4	release
605.357	7.758	FIXCROSS	n/a	n/a	n/a	n/a	n/a
613.115	6.325	CUE_LISTEN	        M1	2	n/a	n/a	n/a
619.44	7.758	FIXCROSS	n/a	n/a	n/a	n/a	n/a
620.653	n/a	RESPONSE	        M1	2	17	F4	press
621.073	n/a	RESPONSE	        M1	2	17	F4	release
627.199	6.317	CUE_PLAYBACK_RIGHT_HAND	        M1	2	n/a	n/a	n/a
627.644	n/a	RESPONSE	        M1	2	22	A#4	press
627.836	n/a	RESPONSE	        M1	2	22	A#4	release
628.007	n/a	RESPONSE	        M1	2	22	A#4	press
628.218	n/a	RESPONSE	        M1	2	22	A#4	release
628.36	n/a	RESPONSE	        M1	2	22	A#4	press
628.562	n/a	RESPONSE	        M1	2	22	A#4	release
628.742	n/a	RESPONSE	        M1	2	22	A#4	press
628.944	n/a	RESPONSE	        M1	2	22	A#4	release
629.094	n/a	RESPONSE	        M1	2	22	A#4	press
629.356	n/a	RESPONSE	        M1	2	22	A#4	release
629.417	n/a	RESPONSE	        M1	2	21	A4	press
629.638	n/a	RESPONSE	        M1	2	21	A4	release
629.809	n/a	RESPONSE	        M1	2	21	A4	press
630.021	n/a	RESPONSE	        M1	2	21	A4	release
630.173	n/a	RESPONSE	        M1	2	21	A4	press
630.424	n/a	RESPONSE	        M1	2	21	A4	release
630.524	n/a	RESPONSE	        M1	2	19	G4	press
630.876	n/a	RESPONSE	        M1	2	19	G4	release
631.532	n/a	RESPONSE	        M1	2	24	C5	press
632.332	n/a	RESPONSE	        M1	2	24	C5	release
633.515	7.758	FIXCROSS	n/a	n/a	n/a	n/a	n/a
633.579	n/a	RESPONSE	        M1	2	21	A4	press
633.827	n/a	RESPONSE	        M1	2	21	A4	release
641.274	6.317	CUE_LISTEN	        M7	1	n/a	n/a	n/a
647.59	7.758	FIXCROSS	n/a	n/a	n/a	n/a	n/a
652.387	n/a	RESPONSE	        M7	1	17	F4	press
654.62	n/a	RESPONSE	        M7	1	17	F4	release
655.349	6.325	CUE_PLAYBACK_BOTH_HANDS	        M7	1	n/a	n/a	n/a
655.776	n/a	RESPONSE	        M7	1	00	C3	press
656.387	n/a	RESPONSE	        M7	1	02	D3	press
656.608	n/a	RESPONSE	        M7	1	04	E3	press
656.819	n/a	RESPONSE	        M7	1	05	F3	press
656.892	n/a	RESPONSE	        M7	1	04	E3	release
656.912	n/a	RESPONSE	        M7	1	00	C3	release
656.943	n/a	RESPONSE	        M7	1	02	D3	release
657.124	n/a	RESPONSE	        M7	1	05	F3	release
659.056	n/a	RESPONSE	        M7	1	00	C3	press
659.058	n/a	RESPONSE	        M7	1	12	C4	press
659.488	n/a	RESPONSE	        M7	1	07	G3	press
659.529	n/a	RESPONSE	        M7	1	14	D4	press
659.77	n/a	RESPONSE	        M7	1	12	C4	release
659.852	n/a	RESPONSE	        M7	1	14	D4	release
659.983	n/a	RESPONSE	        M7	1	07	G3	release
660.354	n/a	RESPONSE	        M7	1	00	C3	release
660.486	n/a	RESPONSE	        M7	1	12	C4	press
660.488	n/a	RESPONSE	        M7	1	00	C3	press
660.858	n/a	RESPONSE	        M7	1	07	G3	press
660.899	n/a	RESPONSE	        M7	1	14	D4	press
661.053	n/a	RESPONSE	        M7	1	12	C4	release
661.142	n/a	RESPONSE	        M7	1	00	C3	release
661.253	n/a	RESPONSE	        M7	1	04	E3	press
661.256	n/a	RESPONSE	        M7	1	14	D4	release
661.258	n/a	RESPONSE	        M7	1	16	E4	press
661.387	n/a	RESPONSE	        M7	1	07	G3	release
661.638	n/a	RESPONSE	        M7	1	16	E4	release
661.673	n/a	RESPONSE	        M7	1	12	C4	press
661.674	7.758	FIXCROSS	n/a	n/a	n/a	n/a	n/a
661.676	n/a	RESPONSE	        M7	1	07	G3	press
661.948	n/a	RESPONSE	        M7	1	12	C4	release
662.049	n/a	RESPONSE	        M7	1	00	C3	press
662.078	n/a	RESPONSE	        M7	1	12	C4	press
662.173	n/a	RESPONSE	        M7	1	07	G3	release
662.279	n/a	RESPONSE	        M7	1	04	E3	release
662.404	n/a	RESPONSE	        M7	1	07	G3	press
662.459	n/a	RESPONSE	        M7	1	14	D4	press
662.714	n/a	RESPONSE	        M7	1	12	C4	release
662.773	n/a	RESPONSE	        M7	1	14	D4	release
662.776	n/a	RESPONSE	        M7	1	04	E3	press
662.799	n/a	RESPONSE	        M7	1	16	E4	press
662.924	n/a	RESPONSE	        M7	1	07	G3	release
663.013	n/a	RESPONSE	        M7	1	00	C3	release
663.179	n/a	RESPONSE	        M7	1	07	G3	press
663.193	n/a	RESPONSE	        M7	1	12	C4	press
663.196	n/a	RESPONSE	        M7	1	16	E4	release
663.453	n/a	RESPONSE	        M7	1	12	C4	release
663.456	n/a	RESPONSE	        M7	1	04	E3	release
663.583	n/a	RESPONSE	        M7	1	00	C3	press
663.618	n/a	RESPONSE	        M7	1	16	E4	press
663.678	n/a	RESPONSE	        M7	1	07	G3	release
663.968	n/a	RESPONSE	        M7	1	07	G3	press
664.014	n/a	RESPONSE	        M7	1	17	F4	press
664.309	n/a	RESPONSE	        M7	1	16	E4	release
664.333	n/a	RESPONSE	        M7	1	19	G4	press
664.337	n/a	RESPONSE	        M7	1	17	F4	release
664.344	n/a	RESPONSE	        M7	1	04	E3	press
664.49	n/a	RESPONSE	        M7	1	07	G3	release
664.522	n/a	RESPONSE	        M7	1	00	C3	release
664.614	n/a	RESPONSE	        M7	1	19	G4	release
664.733	n/a	RESPONSE	        M7	1	07	G3	press
665.136	n/a	RESPONSE	        M7	1	00	C3	press
665.169	n/a	RESPONSE	        M7	1	17	F4	press
665.241	n/a	RESPONSE	        M7	1	07	G3	release
665.45	n/a	RESPONSE	        M7	1	07	G3	press
665.512	n/a	RESPONSE	        M7	1	04	E3	release
665.523	n/a	RESPONSE	        M7	1	19	G4	press
665.664	n/a	RESPONSE	        M7	1	00	C3	release
665.746	n/a	RESPONSE	        M7	1	19	G4	release
665.817	n/a	RESPONSE	        M7	1	04	E3	press
665.958	n/a	RESPONSE	        M7	1	07	G3	release
666.159	n/a	RESPONSE	        M7	1	17	F4	release
666.35	n/a	RESPONSE	        M7	1	04	E3	release
669.432	6.317	CUE_LISTEN	        M7	2	n/a	n/a	n/a
675.749	7.758	FIXCROSS	n/a	n/a	n/a	n/a	n/a
683.507	6.317	CUE_PLAYBACK_BOTH_HANDS	        M7	2	n/a	n/a	n/a
683.907	n/a	RESPONSE	        M7	2	00	C3	press
683.934	n/a	RESPONSE	        M7	2	19	G4	press
684.209	n/a	RESPONSE	        M7	2	21	A4	press
684.244	n/a	RESPONSE	        M7	2	07	G3	press
684.257	n/a	RESPONSE	        M7	2	19	G4	release
684.457	n/a	RESPONSE	        M7	2	21	A4	release
684.5	n/a	RESPONSE	        M7	2	19	G4	press
684.532	n/a	RESPONSE	        M7	2	04	E3	press
685.019	n/a	RESPONSE	        M7	2	04	E3	release
685.076	n/a	RESPONSE	        M7	2	19	G4	release
685.099	n/a	RESPONSE	        M7	2	00	C3	release
685.349	n/a	RESPONSE	        M7	2	00	C3	press
685.362	n/a	RESPONSE	        M7	2	19	G4	press
685.444	n/a	RESPONSE	        M7	2	07	G3	release
685.694	n/a	RESPONSE	        M7	2	19	G4	release
685.754	n/a	RESPONSE	        M7	2	21	A4	press
685.777	n/a	RESPONSE	        M7	2	07	G3	press
685.859	n/a	RESPONSE	        M7	2	19	G4	press
685.978	n/a	RESPONSE	        M7	2	21	A4	release
686.139	n/a	RESPONSE	        M7	2	04	E3	press
686.24	n/a	RESPONSE	        M7	2	00	C3	release
686.493	n/a	RESPONSE	        M7	2	17	F4	press
686.873	n/a	RESPONSE	        M7	2	16	E4	press
687.414	n/a	RESPONSE	        M7	2	16	E4	release
687.496	n/a	RESPONSE	        M7	2	00	C3	press
687.507	n/a	RESPONSE	        M7	2	14	D4	press
687.618	n/a	RESPONSE	        M7	2	07	G3	release
687.929	n/a	RESPONSE	        M7	2	04	E3	release
687.972	n/a	RESPONSE	        M7	2	17	F4	release
687.982	n/a	RESPONSE	        M7	2	14	D4	release
688.023	n/a	RESPONSE	        M7	2	00	C3	release
688.077	n/a	RESPONSE	        M7	2	19	G4	release
688.226	n/a	RESPONSE	        M7	2	00	C3	press
688.247	n/a	RESPONSE	        M7	2	19	G4	press
688.558	n/a	RESPONSE	        M7	2	19	G4	release
688.619	n/a	RESPONSE	        M7	2	21	A4	press
688.65	n/a	RESPONSE	        M7	2	07	G3	press
688.954	n/a	RESPONSE	        M7	2	21	A4	release
688.983	n/a	RESPONSE	        M7	2	19	G4	press
688.994	n/a	RESPONSE	        M7	2	04	E3	press
689.196	n/a	RESPONSE	        M7	2	07	G3	release
689.317	n/a	RESPONSE	        M7	2	17	F4	press
689.358	n/a	RESPONSE	        M7	2	07	G3	press
689.709	n/a	RESPONSE	        M7	2	16	E4	press
689.824	7.758	FIXCROSS	n/a	n/a	n/a	n/a	n/a
689.832	n/a	RESPONSE	        M7	2	07	G3	release
690.362	n/a	RESPONSE	        M7	2	16	E4	release
690.373	n/a	RESPONSE	        M7	2	04	E3	release
690.417	n/a	RESPONSE	        M7	2	07	G3	press
690.458	n/a	RESPONSE	        M7	2	12	C4	press
690.477	n/a	RESPONSE	        M7	2	00	C3	release
691.018	n/a	RESPONSE	        M7	2	12	C4	release
691.129	n/a	RESPONSE	        M7	2	00	C3	press
691.133	n/a	RESPONSE	        M7	2	07	G3	release
691.192	n/a	RESPONSE	        M7	2	12	C4	press
691.794	n/a	RESPONSE	        M7	2	07	G3	press
691.879	n/a	RESPONSE	        M7	2	12	C4	release
692.082	n/a	RESPONSE	        M7	2	00	C3	release
692.377	n/a	RESPONSE	        M7	2	00	C3	press
692.406	n/a	RESPONSE	        M7	2	07	G3	release
692.409	n/a	RESPONSE	        M7	2	12	C4	press
693.129	n/a	RESPONSE	        M7	2	19	G4	release
693.23	n/a	RESPONSE	        M7	2	00	C3	release
693.243	n/a	RESPONSE	        M7	2	12	C4	release
693.387	n/a	RESPONSE	        M7	2	00	C3	press
693.447	n/a	RESPONSE	        M7	2	12	C4	press
693.993	n/a	RESPONSE	        M7	2	07	G3	press
694.127	n/a	RESPONSE	        M7	2	12	C4	release
694.147	n/a	RESPONSE	        M7	2	00	C3	release
694.463	n/a	RESPONSE	        M7	2	00	C3	press
694.527	n/a	RESPONSE	        M7	2	12	C4	press
694.616	n/a	RESPONSE	        M7	2	07	G3	release
695.25	n/a	RESPONSE	        M7	2	00	C3	release
695.27	n/a	RESPONSE	        M7	2	17	F4	release
695.282	n/a	RESPONSE	        M7	2	12	C4	release
697.582	6.325	CUE_LISTEN	        M4	1	n/a	n/a	n/a
703.54	n/a	RESPONSE	        M4	1	16	E4	press
703.907	7.758	FIXCROSS	n/a	n/a	n/a	n/a	n/a
703.949	n/a	RESPONSE	        M4	1	16	E4	release
704.457	n/a	RESPONSE	        M4	1	16	E4	press
704.696	n/a	RESPONSE	        M4	1	04	E3	press
706.392	n/a	RESPONSE	        M4	1	16	E4	release
706.713	n/a	RESPONSE	        M4	1	04	E3	release
711.665	6.317	CUE_PLAYBACK_BOTH_HANDS	        M4	1	n/a	n/a	n/a
712.142	n/a	RESPONSE	        M4	1	04	E3	press
712.193	n/a	RESPONSE	        M4	1	16	E4	press
712.74	n/a	RESPONSE	        M4	1	11	B3	press
712.762	n/a	RESPONSE	        M4	1	19	G4	press
713.073	n/a	RESPONSE	        M4	1	18	F#4	press
713.153	n/a	RESPONSE	        M4	1	19	G4	release
713.203	n/a	RESPONSE	        M4	1	16	E4	release
713.383	n/a	RESPONSE	        M4	1	07	G3	press
713.386	n/a	RESPONSE	        M4	1	19	G4	press
713.512	n/a	RESPONSE	        M4	1	11	B3	release
713.538	n/a	RESPONSE	        M4	1	18	F#4	release
714.024	n/a	RESPONSE	        M4	1	23	B4	press
714.027	n/a	RESPONSE	        M4	1	11	B3	press
714.207	n/a	RESPONSE	        M4	1	04	E3	release
714.26	n/a	RESPONSE	        M4	1	24	C5	press
714.28	n/a	RESPONSE	        M4	1	07	G3	release
714.294	n/a	RESPONSE	        M4	1	23	B4	release
714.589	n/a	RESPONSE	        M4	1	23	B4	press
714.593	n/a	RESPONSE	        M4	1	07	G3	press
714.653	n/a	RESPONSE	        M4	1	24	C5	release
714.707	n/a	RESPONSE	        M4	1	19	G4	release
715.303	n/a	RESPONSE	        M4	1	07	G3	release
715.686	n/a	RESPONSE	        M4	1	23	B4	release
715.836	n/a	RESPONSE	        M4	1	04	E3	press
716.027	n/a	RESPONSE	        M4	1	11	B3	release
716.498	n/a	RESPONSE	        M4	1	07	G3	press
716.989	n/a	RESPONSE	        M4	1	07	G3	release
717.08	n/a	RESPONSE	        M4	1	04	E3	release
717.982	7.759	FIXCROSS	n/a	n/a	n/a	n/a	n/a
718.362	n/a	RESPONSE	        M4	1	12	C4	press
718.364	n/a	RESPONSE	        M4	1	11	B3	press
718.986	n/a	RESPONSE	        M4	1	11	B3	release
719.156	n/a	RESPONSE	        M4	1	12	C4	release
725.74	6.325	CUE_LISTEN	        M4	2	n/a	n/a	n/a
732.065	7.758	FIXCROSS	n/a	n/a	n/a	n/a	n/a
733.362	n/a	RESPONSE	        M4	2	16	E4	press
735.886	n/a	RESPONSE	        M4	2	04	E3	press
736.479	n/a	RESPONSE	        M4	2	04	E3	release
736.588	n/a	RESPONSE	        M4	2	16	E4	release
739.824	6.317	CUE_PLAYBACK_BOTH_HANDS	        M4	2	n/a	n/a	n/a
740.073	n/a	RESPONSE	        M4	2	24	C5	press
741.002	n/a	RESPONSE	        M4	2	24	C5	release
741.509	n/a	RESPONSE	        M4	2	04	E3	press
741.536	n/a	RESPONSE	        M4	2	24	C5	press
741.538	n/a	RESPONSE	        M4	2	16	E4	press
742.573	n/a	RESPONSE	        M4	2	16	E4	release
742.596	n/a	RESPONSE	        M4	2	24	C5	release
742.732	n/a	RESPONSE	        M4	2	16	E4	press
743.529	n/a	RESPONSE	        M4	2	16	E4	release
743.668	n/a	RESPONSE	        M4	2	16	E4	press
744.347	n/a	RESPONSE	        M4	2	24	C5	press
744.928	n/a	RESPONSE	        M4	2	11	B3	press
745.497	n/a	RESPONSE	        M4	2	07	G3	press
745.618	n/a	RESPONSE	        M4	2	11	B3	release
746.049	n/a	RESPONSE	        M4	2	11	B3	press
746.08	n/a	RESPONSE	        M4	2	21	A4	press
746.14	7.759	FIXCROSS	n/a	n/a	n/a	n/a	n/a
746.152	n/a	RESPONSE	        M4	2	04	E3	release
746.203	n/a	RESPONSE	        M4	2	07	G3	release
746.354	n/a	RESPONSE	        M4	2	24	C5	release
746.578	n/a	RESPONSE	        M4	2	04	E3	press
746.747	n/a	RESPONSE	        M4	2	11	B3	release
746.958	n/a	RESPONSE	        M4	2	21	A4	release
747.099	n/a	RESPONSE	        M4	2	11	B3	press
747.55	n/a	RESPONSE	        M4	2	07	G3	press
747.663	n/a	RESPONSE	        M4	2	11	B3	release
747.954	n/a	RESPONSE	        M4	2	11	B3	press
747.964	n/a	RESPONSE	        M4	2	04	E3	release
748.417	n/a	RESPONSE	        M4	2	07	G3	release
748.537	n/a	RESPONSE	        M4	2	11	B3	release
753.899	6.317	CUE_LISTEN	        M2	1	n/a	n/a	n/a
757.689	n/a	RESPONSE	        M2	1	16	E4	release
760.216	7.758	FIXCROSS	n/a	n/a	n/a	n/a	n/a
760.252	n/a	RESPONSE	        M2	1	24	C5	press
761.618	n/a	RESPONSE	        M2	1	24	C5	release
763.805	n/a	RESPONSE	        M2	1	24	C5	press
765.932	n/a	RESPONSE	        M2	1	24	C5	release
767.974	6.325	CUE_PLAYBACK_RIGHT_HAND	        M2	1	n/a	n/a	n/a
768.464	n/a	RESPONSE	        M2	1	24	C5	press
768.847	n/a	RESPONSE	        M2	1	24	C5	release
769.079	n/a	RESPONSE	        M2	1	24	C5	press
769.478	n/a	RESPONSE	        M2	1	19	G4	press
769.639	n/a	RESPONSE	        M2	1	24	C5	release
769.82	n/a	RESPONSE	        M2	1	19	G4	release
769.904	n/a	RESPONSE	        M2	1	19	G4	press
770.273	n/a	RESPONSE	        M2	1	17	F4	press
770.696	n/a	RESPONSE	        M2	1	16	E4	press
770.826	n/a	RESPONSE	        M2	1	19	G4	release
771.317	n/a	RESPONSE	        M2	1	16	E4	release
771.462	n/a	RESPONSE	        M2	1	19	G4	press
771.795	n/a	RESPONSE	        M2	1	17	F4	release
772.113	n/a	RESPONSE	        M2	1	19	G4	release
772.213	n/a	RESPONSE	        M2	1	24	C5	press
772.614	n/a	RESPONSE	        M2	1	19	G4	press
772.653	n/a	RESPONSE	        M2	1	24	C5	release
773.387	n/a	RESPONSE	        M2	1	17	F4	press
773.496	n/a	RESPONSE	        M2	1	19	G4	release
773.722	n/a	RESPONSE	        M2	1	16	E4	press
773.857	n/a	RESPONSE	        M2	1	17	F4	release
774.084	n/a	RESPONSE	        M2	1	17	F4	press
774.299	7.758	FIXCROSS	n/a	n/a	n/a	n/a	n/a
774.463	n/a	RESPONSE	        M2	1	16	E4	release
774.465	n/a	RESPONSE	        M2	1	19	G4	press
774.534	n/a	RESPONSE	        M2	1	17	F4	release
774.776	n/a	RESPONSE	        M2	1	19	G4	release
782.057	6.317	CUE_LISTEN	        M2	2	n/a	n/a	n/a
788.374	7.758	FIXCROSS	n/a	n/a	n/a	n/a	n/a
796.132	6.317	CUE_PLAYBACK_RIGHT_HAND	        M2	2	n/a	n/a	n/a
796.584	n/a	RESPONSE	        M2	2	12	C4	press
796.978	n/a	RESPONSE	        M2	2	14	D4	press
797.247	n/a	RESPONSE	        M2	2	12	C4	release
797.338	n/a	RESPONSE	        M2	2	14	D4	release
797.34	n/a	RESPONSE	        M2	2	16	E4	press
797.66	n/a	RESPONSE	        M2	2	16	E4	release
797.723	n/a	RESPONSE	        M2	2	14	D4	press
798.114	n/a	RESPONSE	        M2	2	16	E4	press
798.394	n/a	RESPONSE	        M2	2	14	D4	release
798.525	n/a	RESPONSE	        M2	2	17	F4	press
798.847	n/a	RESPONSE	        M2	2	19	G4	press
798.949	n/a	RESPONSE	        M2	2	16	E4	release
799.232	n/a	RESPONSE	        M2	2	17	F4	release
799.24	n/a	RESPONSE	        M2	2	19	G4	release
799.563	n/a	RESPONSE	        M2	2	16	E4	press
799.963	n/a	RESPONSE	        M2	2	19	G4	press
800.037	n/a	RESPONSE	        M2	2	16	E4	release
800.717	n/a	RESPONSE	        M2	2	17	F4	press
801.057	n/a	RESPONSE	        M2	2	16	E4	press
801.258	n/a	RESPONSE	        M2	2	19	G4	release
801.41	n/a	RESPONSE	        M2	2	14	D4	press
801.76	n/a	RESPONSE	        M2	2	12	C4	press
801.877	n/a	RESPONSE	        M2	2	16	E4	release
802.134	n/a	RESPONSE	        M2	2	14	D4	release
802.298	n/a	RESPONSE	        M2	2	17	F4	release
802.449	7.758	FIXCROSS	n/a	n/a	n/a	n/a	n/a
802.48	n/a	RESPONSE	        M2	2	12	C4	release
810.207	6.325	CUE_LISTEN	        M8	1	n/a	n/a	n/a
815.749	n/a	RESPONSE	        M8	1	17	F4	press
816.153	n/a	RESPONSE	        M8	1	21	A4	press
816.214	n/a	RESPONSE	        M8	1	17	F4	release
816.503	n/a	RESPONSE	        M8	1	24	C5	press
816.532	7.758	FIXCROSS	n/a	n/a	n/a	n/a	n/a
816.624	n/a	RESPONSE	        M8	1	21	A4	release
816.755	n/a	RESPONSE	        M8	1	24	C5	release
824.291	6.317	CUE_PLAYBACK_RIGHT_HAND	        M8	1	n/a	n/a	n/a
824.744	n/a	RESPONSE	        M8	1	17	F4	press
825.07	n/a	RESPONSE	        M8	1	21	A4	press
825.25	n/a	RESPONSE	        M8	1	17	F4	release
825.382	n/a	RESPONSE	        M8	1	21	A4	release
825.393	n/a	RESPONSE	        M8	1	24	C5	press
825.754	n/a	RESPONSE	        M8	1	24	C5	release
825.865	n/a	RESPONSE	        M8	1	24	C5	press
826.367	n/a	RESPONSE	        M8	1	18	F#4	press
826.488	n/a	RESPONSE	        M8	1	24	C5	release
826.879	n/a	RESPONSE	        M8	1	23	B4	press
827.043	n/a	RESPONSE	        M8	1	18	F#4	release
827.842	n/a	RESPONSE	        M8	1	23	B4	release
827.983	n/a	RESPONSE	        M8	1	24	C5	press
828.817	n/a	RESPONSE	        M8	1	23	B4	press
829.085	n/a	RESPONSE	        M8	1	21	A4	press
829.567	n/a	RESPONSE	        M8	1	20	G#4	press
829.748	n/a	RESPONSE	        M8	1	21	A4	release
829.909	n/a	RESPONSE	        M8	1	17	F4	press
830.022	n/a	RESPONSE	        M8	1	23	B4	release
830.042	n/a	RESPONSE	        M8	1	20	G#4	release
830.213	n/a	RESPONSE	        M8	1	24	C5	release
830.304	n/a	RESPONSE	        M8	1	21	A4	press
830.468	n/a	RESPONSE	        M8	1	17	F4	release
830.607	7.758	FIXCROSS	n/a	n/a	n/a	n/a	n/a
830.977	n/a	RESPONSE	        M8	1	21	A4	release
834.943	n/a	RESPONSE	        M8	1	16	E4	press
838.366	6.317	CUE_LISTEN	        M8	2	n/a	n/a	n/a
838.579	n/a	RESPONSE	        M8	2	16	E4	release
844.682	7.758	FIXCROSS	n/a	n/a	n/a	n/a	n/a
852.441	6.325	CUE_PLAYBACK_RIGHT_HAND	        M8	2	n/a	n/a	n/a
852.819	n/a	RESPONSE	        M8	2	16	E4	press
853.108	n/a	RESPONSE	        M8	2	19	G4	press
853.35	n/a	RESPONSE	        M8	2	16	E4	release
853.452	n/a	RESPONSE	        M8	2	23	B4	press
853.508	n/a	RESPONSE	        M8	2	19	G4	release
854.673	n/a	RESPONSE	        M8	2	18	F#4	press
854.902	n/a	RESPONSE	        M8	2	23	B4	release
855.189	n/a	RESPONSE	        M8	2	21	A4	press
855.354	n/a	RESPONSE	        M8	2	18	F#4	release
855.814	n/a	RESPONSE	        M8	2	21	A4	release
855.946	n/a	RESPONSE	        M8	2	21	A4	press
856.485	n/a	RESPONSE	        M8	2	21	A4	release
856.647	n/a	RESPONSE	        M8	2	23	B4	press
857.148	n/a	RESPONSE	        M8	2	23	B4	release
857.27	n/a	RESPONSE	        M8	2	23	B4	press
857.742	n/a	RESPONSE	        M8	2	21	A4	press
858.052	n/a	RESPONSE	        M8	2	23	B4	release
858.173	n/a	RESPONSE	        M8	2	21	A4	release
858.214	n/a	RESPONSE	        M8	2	19	G4	press
858.505	n/a	RESPONSE	        M8	2	18	F#4	press
858.677	n/a	RESPONSE	        M8	2	19	G4	release
858.766	7.758	FIXCROSS	n/a	n/a	n/a	n/a	n/a
858.948	n/a	RESPONSE	        M8	2	19	G4	press
859.229	n/a	RESPONSE	        M8	2	18	F#4	release
859.47	n/a	RESPONSE	        M8	2	16	E4	press
859.783	n/a	RESPONSE	        M8	2	19	G4	release
861.025	n/a	RESPONSE	        M8	2	16	E4	release
866.524	6.325	CUE_LISTEN	        M6	1	n/a	n/a	n/a
872.849	7.758	FIXCROSS	n/a	n/a	n/a	n/a	n/a
880.608	6.308	CUE_PLAYBACK_BOTH_HANDS	        M6	1	n/a	n/a	n/a
881.058	n/a	RESPONSE	        M6	1	09	A3	press
881.062	n/a	RESPONSE	        M6	1	11	B3	press
881.78	n/a	RESPONSE	        M6	1	09	A3	release
881.816	n/a	RESPONSE	        M6	1	11	B3	release
882.132	n/a	RESPONSE	        M6	1	05	F3	press
882.134	n/a	RESPONSE	        M6	1	09	A3	press
882.137	n/a	RESPONSE	        M6	1	11	B3	press
882.687	n/a	RESPONSE	        M6	1	16	E4	press
883.025	n/a	RESPONSE	        M6	1	16	E4	release
883.082	n/a	RESPONSE	        M6	1	19	G4	press
883.463	n/a	RESPONSE	        M6	1	17	F4	press
883.513	n/a	RESPONSE	        M6	1	16	E4	press
883.578	n/a	RESPONSE	        M6	1	16	E4	release
883.845	n/a	RESPONSE	        M6	1	16	E4	press
884.175	n/a	RESPONSE	        M6	1	17	F4	release
884.195	n/a	RESPONSE	        M6	1	16	E4	release
884.198	n/a	RESPONSE	        M6	1	14	D4	press
884.514	n/a	RESPONSE	        M6	1	16	E4	press
884.517	n/a	RESPONSE	        M6	1	19	G4	release
884.547	n/a	RESPONSE	        M6	1	14	D4	release
884.862	n/a	RESPONSE	        M6	1	16	E4	release
884.99	n/a	RESPONSE	        M6	1	05	F3	release
884.993	n/a	RESPONSE	        M6	1	09	A3	release
885.155	n/a	RESPONSE	        M6	1	09	A3	press
885.158	n/a	RESPONSE	        M6	1	05	F3	press
885.569	n/a	RESPONSE	        M6	1	16	E4	press
885.91	n/a	RESPONSE	        M6	1	19	G4	press
885.962	n/a	RESPONSE	        M6	1	16	E4	release
886.313	n/a	RESPONSE	        M6	1	16	E4	press
886.674	n/a	RESPONSE	        M6	1	14	D4	press
886.795	n/a	RESPONSE	        M6	1	16	E4	release
886.916	7.759	FIXCROSS	n/a	n/a	n/a	n/a	n/a
887.077	n/a	RESPONSE	        M6	1	12	C4	press
887.27	n/a	RESPONSE	        M6	1	14	D4	release
887.472	n/a	RESPONSE	        M6	1	12	C4	release
887.532	n/a	RESPONSE	        M6	1	19	G4	release
887.633	n/a	RESPONSE	        M6	1	09	A3	release
887.653	n/a	RESPONSE	        M6	1	05	F3	release
888.164	n/a	RESPONSE	        M6	1	11	B3	release
890.728	n/a	RESPONSE	        M6	1	04	E3	press
890.958	n/a	RESPONSE	        M6	1	04	E3	release
892.992	n/a	RESPONSE	        M6	1	05	F3	press
893.278	n/a	RESPONSE	        M6	1	07	G3	press
893.648	n/a	RESPONSE	        M6	1	09	A3	press
893.964	n/a	RESPONSE	        M6	1	11	B3	press
894.212	n/a	RESPONSE	        M6	1	05	F3	release
894.313	n/a	RESPONSE	        M6	1	07	G3	release
894.473	n/a	RESPONSE	        M6	1	11	B3	release
894.564	n/a	RESPONSE	        M6	1	09	A3	release
894.674	6.325	CUE_LISTEN	        M6	2	n/a	n/a	n/a
900.999	7.758	FIXCROSS	n/a	n/a	n/a	n/a	n/a
908.758	203.656	CUE_PLAYBACK_BOTH_HANDS	        M6	2	n/a	n/a	n/a
909.334	n/a	RESPONSE	        M6	2	05	F3	press
909.355	n/a	RESPONSE	        M6	2	11	B3	press
909.358	n/a	RESPONSE	        M6	2	09	A3	press
909.378	n/a	RESPONSE	        M6	2	04	E3	press
909.799	n/a	RESPONSE	        M6	2	14	D4	press
910.52	n/a	RESPONSE	        M6	2	09	A3	release
910.542	n/a	RESPONSE	        M6	2	14	D4	release
910.555	n/a	RESPONSE	        M6	2	04	E3	release
910.594	n/a	RESPONSE	        M6	2	11	B3	release
910.597	n/a	RESPONSE	        M6	2	05	F3	release
910.848	n/a	RESPONSE	        M6	2	05	F3	press
910.85	n/a	RESPONSE	        M6	2	09	A3	press
910.859	n/a	RESPONSE	        M6	2	11	B3	press
910.89	n/a	RESPONSE	        M6	2	04	E3	press
911.182	n/a	RESPONSE	        M6	2	14	D4	press
911.542	n/a	RESPONSE	        M6	2	17	F4	press
911.925	n/a	RESPONSE	        M6	2	18	F#4	press
912.028	n/a	RESPONSE	        M6	2	14	D4	release
912.095	n/a	RESPONSE	        M6	2	17	F4	release
912.143	n/a	RESPONSE	        M6	2	04	E3	release
912.164	n/a	RESPONSE	        M6	2	05	F3	release
912.424	n/a	RESPONSE	        M6	2	09	A3	release
912.948	n/a	RESPONSE	        M6	2	18	F#4	release
913.254	n/a	FIXCROSS	n/a	n/a	n/a	n/a	n/a
913.27	n/a	RESPONSE	        M6	2	11	B3	release
915.432	n/a	RESPONSE	        M6	2	05	F3	press
915.673	n/a	RESPONSE	        M6	2	05	F3	release
