onset	duration	trial_type	melody_number	melody_part	key	sound	action
0.0	14.088	CUE_START	n/a	n/a	n/a	n/a	n/a
14.088	7.759	FIXCROSS	n/a	n/a	n/a	n/a	n/a
21.848	6.316	CUE_LISTEN	M1	1	n/a	n/a	n/a
28.163	7.758	FIXCROSS	n/a	n/a	n/a	n/a	n/a
35.922	6.317	CUE_PLAYBACK_RIGHT_HAND	M1	1	n/a	n/a	n/a
37.019	n/a	RESPONSE	M1	1	19	G4	press
37.46	n/a	RESPONSE	M1	1	19	G4	release
37.544	n/a	RESPONSE	M1	1	16	E4	press
37.82	n/a	RESPONSE	M1	1	16	E4	release
38.165	n/a	RESPONSE	M1	1	14	D4	press
38.306	n/a	RESPONSE	M1	1	14	D4	release
39.615	n/a	RESPONSE	M1	1	16	E4	press
39.834	n/a	RESPONSE	M1	1	16	E4	release
40.181	n/a	RESPONSE	M1	1	17	F4	press
40.496	n/a	RESPONSE	M1	1	17	F4	release
40.656	n/a	RESPONSE	M1	1	14	D4	press
40.85	n/a	RESPONSE	M1	1	14	D4	release
41.104	n/a	RESPONSE	M1	1	14	D4	press
41.353	n/a	RESPONSE	M1	1	14	D4	release
41.474	n/a	RESPONSE	M1	1	12	C4	press
41.758	n/a	RESPONSE	M1	1	12	C4	release
41.809	n/a	RESPONSE	M1	1	16	E4	press
42.015	n/a	RESPONSE	M1	1	16	E4	release
42.126	n/a	RESPONSE	M1	1	19	G4	press
42.238	7.758	FIXCROSS	n/a	n/a	n/a	n/a	n/a
42.495	n/a	RESPONSE	M1	1	19	G4	release
49.997	6.325	CUE_LISTEN	M1	2	n/a	n/a	n/a
56.322	7.758	FIXCROSS	n/a	n/a	n/a	n/a	n/a
64.08	6.317	CUE_PLAYBACK_RIGHT_HAND	M1	2	n/a	n/a	n/a
65.191	n/a	RESPONSE	M1	2	19	G4	press
65.495	n/a	RESPONSE	M1	2	19	G4	release
65.675	n/a	RESPONSE	M1	2	16	E4	press
65.994	n/a	RESPONSE	M1	2	16	E4	release
66.159	n/a	RESPONSE	M1	2	16	E4	press
66.449	n/a	RESPONSE	M1	2	16	E4	release
66.646	n/a	RESPONSE	M1	2	17	F4	press
67.005	n/a	RESPONSE	M1	2	17	F4	release
67.158	n/a	RESPONSE	M1	2	14	D4	press
67.448	n/a	RESPONSE	M1	2	14	D4	release
67.588	n/a	RESPONSE	M1	2	14	D4	press
67.863	n/a	RESPONSE	M1	2	14	D4	release
68.003	n/a	RESPONSE	M1	2	12	C4	press
68.278	n/a	RESPONSE	M1	2	12	C4	release
68.306	n/a	RESPONSE	M1	2	16	E4	press
68.556	n/a	RESPONSE	M1	2	16	E4	release
68.559	n/a	RESPONSE	M1	2	12	C4	press
68.958	n/a	RESPONSE	M1	2	12	C4	release
70.397	7.758	FIXCROSS	n/a	n/a	n/a	n/a	n/a
78.155	6.317	CUE_LISTEN	M1	1	n/a	n/a	n/a
84.472	7.758	FIXCROSS	n/a	n/a	n/a	n/a	n/a
92.23	6.325	CUE_PLAYBACK_BOTH_HANDS	M1	1	n/a	n/a	n/a
93.039	n/a	RESPONSE	M1	1	00	C3	press
93.101	n/a	RESPONSE	M1	1	19	G4	press
93.455	n/a	RESPONSE	M1	1	19	G4	release
93.493	n/a	RESPONSE	M1	1	00	C3	release
93.689	n/a	RESPONSE	M1	1	04	E3	press
93.708	n/a	RESPONSE	M1	1	16	E4	press
94.482	n/a	RESPONSE	M1	1	04	E3	release
94.499	n/a	RESPONSE	M1	1	16	E4	release
94.609	n/a	RESPONSE	M1	1	04	E3	press
94.613	n/a	RESPONSE	M1	1	16	E4	press
94.859	n/a	RESPONSE	M1	1	16	E4	release
94.888	n/a	RESPONSE	M1	1	04	E3	release
95.11	n/a	RESPONSE	M1	1	17	F4	press
95.124	n/a	RESPONSE	M1	1	02	D3	press
95.455	n/a	RESPONSE	M1	1	17	F4	release
95.47	n/a	RESPONSE	M1	1	02	D3	release
95.678	n/a	RESPONSE	M1	1	05	F3	press
95.682	n/a	RESPONSE	M1	1	14	D4	press
95.942	n/a	RESPONSE	M1	1	14	D4	release
96.206	n/a	RESPONSE	M1	1	07	G3	press
96.246	n/a	RESPONSE	M1	1	14	D4	press
96.551	n/a	RESPONSE	M1	1	05	F3	release
96.583	n/a	RESPONSE	M1	1	14	D4	release
96.626	n/a	RESPONSE	M1	1	07	G3	release
96.863	n/a	RESPONSE	M1	1	07	G3	press
96.903	n/a	RESPONSE	M1	1	12	C4	press
97.206	n/a	RESPONSE	M1	1	12	C4	release
97.29	n/a	RESPONSE	M1	1	04	E3	press
97.319	n/a	RESPONSE	M1	1	16	E4	press
97.526	n/a	RESPONSE	M1	1	07	G3	release
97.556	n/a	RESPONSE	M1	1	16	E4	release
97.612	n/a	RESPONSE	M1	1	04	E3	release
97.681	n/a	RESPONSE	M1	1	00	C3	press
97.71	n/a	RESPONSE	M1	1	19	G4	press
98.125	n/a	RESPONSE	M1	1	19	G4	release
98.18	n/a	RESPONSE	M1	1	00	C3	release
98.555	7.758	FIXCROSS	n/a	n/a	n/a	n/a	n/a
106.314	6.317	CUE_LISTEN	M1	2	n/a	n/a	n/a
112.63	7.758	FIXCROSS	n/a	n/a	n/a	n/a	n/a
120.389	6.342	CUE_PLAYBACK_BOTH_HANDS	M1	2	n/a	n/a	n/a
121.238	n/a	RESPONSE	M1	2	00	C3	press
121.255	n/a	RESPONSE	M1	2	19	G4	press
121.632	n/a	RESPONSE	M1	2	19	G4	release
121.723	n/a	RESPONSE	M1	2	00	C3	release
121.792	n/a	RESPONSE	M1	2	04	E3	press
121.795	n/a	RESPONSE	M1	2	16	E4	press
122.056	n/a	RESPONSE	M1	2	16	E4	release
122.238	n/a	RESPONSE	M1	2	16	E4	press
122.524	n/a	RESPONSE	M1	2	16	E4	release
122.564	n/a	RESPONSE	M1	2	04	E3	release
122.858	n/a	RESPONSE	M1	2	02	D3	press
122.86	n/a	RESPONSE	M1	2	17	F4	press
123.236	n/a	RESPONSE	M1	2	17	F4	release
123.252	n/a	RESPONSE	M1	2	02	D3	release
123.398	n/a	RESPONSE	M1	2	05	F3	press
123.422	n/a	RESPONSE	M1	2	14	D4	press
123.708	n/a	RESPONSE	M1	2	14	D4	release
123.873	n/a	RESPONSE	M1	2	14	D4	press
124.166	n/a	RESPONSE	M1	2	14	D4	release
124.25	n/a	RESPONSE	M1	2	05	F3	release
124.378	n/a	RESPONSE	M1	2	07	G3	press
124.404	n/a	RESPONSE	M1	2	12	C4	press
124.668	n/a	RESPONSE	M1	2	12	C4	release
124.765	n/a	RESPONSE	M1	2	16	E4	press
124.768	n/a	RESPONSE	M1	2	04	E3	press
124.878	n/a	RESPONSE	M1	2	07	G3	release
125.044	n/a	RESPONSE	M1	2	16	E4	release
125.059	n/a	RESPONSE	M1	2	04	E3	release
125.074	n/a	RESPONSE	M1	2	12	C4	press
125.076	n/a	RESPONSE	M1	2	07	G3	press
125.462	n/a	RESPONSE	M1	2	12	C4	release
126.73	7.758	FIXCROSS	n/a	n/a	n/a	n/a	n/a
134.489	6.3	CUE_LISTEN	M1	1	n/a	n/a	n/a
139.1	n/a	RESPONSE	M1	1	07	G3	release
140.789	7.758	FIXCROSS	n/a	n/a	n/a	n/a	n/a
148.547	6.333	CUE_PLAYBACK_RIGHT_HAND	M1	1	n/a	n/a	n/a
149.129	n/a	RESPONSE	M1	1	19	G4	press
149.543	n/a	RESPONSE	M1	1	19	G4	release
149.654	n/a	RESPONSE	M1	1	16	E4	press
150.474	n/a	RESPONSE	M1	1	16	E4	release
150.582	n/a	RESPONSE	M1	1	16	E4	press
150.809	n/a	RESPONSE	M1	1	16	E4	release
151.082	n/a	RESPONSE	M1	1	17	F4	press
151.45	n/a	RESPONSE	M1	1	17	F4	release
151.679	n/a	RESPONSE	M1	1	14	D4	press
151.953	n/a	RESPONSE	M1	1	14	D4	release
152.199	n/a	RESPONSE	M1	1	14	D4	press
152.463	n/a	RESPONSE	M1	1	14	D4	release
152.608	n/a	RESPONSE	M1	1	12	C4	press
152.886	n/a	RESPONSE	M1	1	12	C4	release
152.955	n/a	RESPONSE	M1	1	16	E4	press
153.212	n/a	RESPONSE	M1	1	16	E4	release
153.325	n/a	RESPONSE	M1	1	19	G4	press
153.762	n/a	RESPONSE	M1	1	19	G4	release
154.88	7.758	FIXCROSS	n/a	n/a	n/a	n/a	n/a
162.639	6.3	CUE_LISTEN	M1	2	n/a	n/a	n/a
168.939	7.758	FIXCROSS	n/a	n/a	n/a	n/a	n/a
176.697	6.325	CUE_PLAYBACK_RIGHT_HAND	M1	2	n/a	n/a	n/a
177.458	n/a	RESPONSE	M1	2	19	G4	press
177.79	n/a	RESPONSE	M1	2	19	G4	release
177.927	n/a	RESPONSE	M1	2	16	E4	press
178.272	n/a	RESPONSE	M1	2	16	E4	release
178.465	n/a	RESPONSE	M1	2	16	E4	press
178.743	n/a	RESPONSE	M1	2	16	E4	release
178.992	n/a	RESPONSE	M1	2	17	F4	press
179.309	n/a	RESPONSE	M1	2	17	F4	release
179.475	n/a	RESPONSE	M1	2	14	D4	press
179.765	n/a	RESPONSE	M1	2	14	D4	release
179.973	n/a	RESPONSE	M1	2	14	D4	press
180.304	n/a	RESPONSE	M1	2	14	D4	release
180.388	n/a	RESPONSE	M1	2	12	C4	press
180.677	n/a	RESPONSE	M1	2	12	C4	release
180.747	n/a	RESPONSE	M1	2	16	E4	press
181.048	n/a	RESPONSE	M1	2	16	E4	release
181.079	n/a	RESPONSE	M1	2	12	C4	press
181.463	n/a	RESPONSE	M1	2	12	C4	release
183.022	7.758	FIXCROSS	n/a	n/a	n/a	n/a	n/a
190.78	6.317	CUE_LISTEN	M1	1	n/a	n/a	n/a
197.097	7.758	FIXCROSS	n/a	n/a	n/a	n/a	n/a
204.856	6.317	CUE_PLAYBACK_BOTH_HANDS	M1	1	n/a	n/a	n/a
205.357	n/a	RESPONSE	M1	1	00	C3	press
205.372	n/a	RESPONSE	M1	1	19	G4	press
205.744	n/a	RESPONSE	M1	1	19	G4	release
205.8	n/a	RESPONSE	M1	1	00	C3	release
205.857	n/a	RESPONSE	M1	1	04	E3	press
205.885	n/a	RESPONSE	M1	1	16	E4	press
206.12	n/a	RESPONSE	M1	1	16	E4	release
206.177	n/a	RESPONSE	M1	1	04	E3	release
206.398	n/a	RESPONSE	M1	1	04	E3	press
206.44	n/a	RESPONSE	M1	1	16	E4	press
206.693	n/a	RESPONSE	M1	1	16	E4	release
206.804	n/a	RESPONSE	M1	1	04	E3	release
206.958	n/a	RESPONSE	M1	1	02	D3	press
206.972	n/a	RESPONSE	M1	1	17	F4	press
207.289	n/a	RESPONSE	M1	1	17	F4	release
207.293	n/a	RESPONSE	M1	1	02	D3	release
207.484	n/a	RESPONSE	M1	1	05	F3	press
207.487	n/a	RESPONSE	M1	1	14	D4	press
207.789	n/a	RESPONSE	M1	1	14	D4	release
207.832	n/a	RESPONSE	M1	1	05	F3	release
208.0	n/a	RESPONSE	M1	1	05	F3	press
208.013	n/a	RESPONSE	M1	1	14	D4	press
208.275	n/a	RESPONSE	M1	1	14	D4	release
208.332	n/a	RESPONSE	M1	1	05	F3	release
208.415	n/a	RESPONSE	M1	1	07	G3	press
208.43	n/a	RESPONSE	M1	1	12	C4	press
208.708	n/a	RESPONSE	M1	1	12	C4	release
208.792	n/a	RESPONSE	M1	1	07	G3	release
208.82	n/a	RESPONSE	M1	1	16	E4	press
208.835	n/a	RESPONSE	M1	1	04	E3	press
209.098	n/a	RESPONSE	M1	1	16	E4	release
209.223	n/a	RESPONSE	M1	1	00	C3	press
209.238	n/a	RESPONSE	M1	1	04	E3	release
209.267	n/a	RESPONSE	M1	1	19	G4	press
209.68	n/a	RESPONSE	M1	1	19	G4	release
209.709	n/a	RESPONSE	M1	1	00	C3	release
211.172	7.758	FIXCROSS	n/a	n/a	n/a	n/a	n/a
218.931	6.325	CUE_LISTEN	M1	2	n/a	n/a	n/a
225.256	7.758	FIXCROSS	n/a	n/a	n/a	n/a	n/a
233.014	6.317	CUE_PLAYBACK_BOTH_HANDS	M1	2	n/a	n/a	n/a
233.703	n/a	RESPONSE	M1	2	00	C3	press
233.719	n/a	RESPONSE	M1	2	19	G4	press
234.095	n/a	RESPONSE	M1	2	19	G4	release
234.275	n/a	RESPONSE	M1	2	04	E3	press
234.304	n/a	RESPONSE	M1	2	16	E4	press
234.374	n/a	RESPONSE	M1	2	00	C3	release
234.555	n/a	RESPONSE	M1	2	16	E4	release
234.736	n/a	RESPONSE	M1	2	16	E4	press
234.984	n/a	RESPONSE	M1	2	16	E4	release
235.123	n/a	RESPONSE	M1	2	04	E3	release
235.207	n/a	RESPONSE	M1	2	02	D3	press
235.235	n/a	RESPONSE	M1	2	17	F4	press
235.567	n/a	RESPONSE	M1	2	02	D3	release
235.583	n/a	RESPONSE	M1	2	17	F4	release
235.775	n/a	RESPONSE	M1	2	14	D4	press
235.778	n/a	RESPONSE	M1	2	05	F3	press
236.039	n/a	RESPONSE	M1	2	14	D4	release
236.11	n/a	RESPONSE	M1	2	05	F3	release
236.179	n/a	RESPONSE	M1	2	14	D4	press
236.194	n/a	RESPONSE	M1	2	05	F3	press
236.457	n/a	RESPONSE	M1	2	14	D4	release
236.54	n/a	RESPONSE	M1	2	05	F3	release
236.642	n/a	RESPONSE	M1	2	07	G3	press
236.657	n/a	RESPONSE	M1	2	12	C4	press
236.974	n/a	RESPONSE	M1	2	12	C4	release
237.017	n/a	RESPONSE	M1	2	16	E4	press
237.045	n/a	RESPONSE	M1	2	04	E3	press
237.129	n/a	RESPONSE	M1	2	07	G3	release
237.295	n/a	RESPONSE	M1	2	16	E4	release
237.31	n/a	RESPONSE	M1	2	04	E3	release
237.38	n/a	RESPONSE	M1	2	07	G3	press
237.409	n/a	RESPONSE	M1	2	12	C4	press
237.809	n/a	RESPONSE	M1	2	12	C4	release
237.879	n/a	RESPONSE	M1	2	07	G3	release
239.331	7.758	FIXCROSS	n/a	n/a	n/a	n/a	n/a
247.089	6.325	CUE_LISTEN	M1	1	n/a	n/a	n/a
253.414	7.758	FIXCROSS	n/a	n/a	n/a	n/a	n/a
261.172	6.317	CUE_PLAYBACK_RIGHT_HAND	M1	1	n/a	n/a	n/a
261.828	n/a	RESPONSE	M1	1	19	G4	press
262.212	n/a	RESPONSE	M1	1	19	G4	release
262.357	n/a	RESPONSE	M1	1	16	E4	press
262.646	n/a	RESPONSE	M1	1	16	E4	release
262.818	n/a	RESPONSE	M1	1	16	E4	press
263.126	n/a	RESPONSE	M1	1	16	E4	release
263.302	n/a	RESPONSE	M1	1	17	F4	press
263.653	n/a	RESPONSE	M1	1	17	F4	release
263.797	n/a	RESPONSE	M1	1	14	D4	press
264.077	n/a	RESPONSE	M1	1	14	D4	release
264.27	n/a	RESPONSE	M1	1	14	D4	press
264.562	n/a	RESPONSE	M1	1	14	D4	release
264.673	n/a	RESPONSE	M1	1	12	C4	press
264.936	n/a	RESPONSE	M1	1	12	C4	release
265.006	n/a	RESPONSE	M1	1	16	E4	press
265.268	n/a	RESPONSE	M1	1	16	E4	release
265.297	n/a	RESPONSE	M1	1	12	C4	press
265.617	n/a	RESPONSE	M1	1	12	C4	release
267.489	7.758	FIXCROSS	n/a	n/a	n/a	n/a	n/a
275.248	6.317	CUE_LISTEN	M1	2	n/a	n/a	n/a
281.564	7.758	FIXCROSS	n/a	n/a	n/a	n/a	n/a
289.322	6.325	CUE_PLAYBACK_RIGHT_HAND	M1	2	n/a	n/a	n/a
290.038	n/a	RESPONSE	M1	2	19	G4	press
290.428	n/a	RESPONSE	M1	2	19	G4	release
290.529	n/a	RESPONSE	M1	2	16	E4	press
290.862	n/a	RESPONSE	M1	2	16	E4	release
291.028	n/a	RESPONSE	M1	2	16	E4	press
291.292	n/a	RESPONSE	M1	2	16	E4	release
291.497	n/a	RESPONSE	M1	2	17	F4	press
291.868	n/a	RESPONSE	M1	2	17	F4	release
291.996	n/a	RESPONSE	M1	2	14	D4	press
292.26	n/a	RESPONSE	M1	2	14	D4	release
292.448	n/a	RESPONSE	M1	2	14	D4	press
292.758	n/a	RESPONSE	M1	2	14	D4	release
292.837	n/a	RESPONSE	M1	2	12	C4	press
293.146	n/a	RESPONSE	M1	2	12	C4	release
293.182	n/a	RESPONSE	M1	2	16	E4	press
293.46	n/a	RESPONSE	M1	2	16	E4	release
293.463	n/a	RESPONSE	M1	2	12	C4	press
293.802	n/a	RESPONSE	M1	2	12	C4	release
295.648	7.758	FIXCROSS	n/a	n/a	n/a	n/a	n/a
303.406	6.317	CUE_LISTEN	M1	1	n/a	n/a	n/a
309.723	7.758	FIXCROSS	n/a	n/a	n/a	n/a	n/a
317.481	6.317	CUE_PLAYBACK_BOTH_HANDS	M1	1	n/a	n/a	n/a
317.994	n/a	RESPONSE	M1	1	00	C3	press
318.05	n/a	RESPONSE	M1	1	19	G4	press
318.437	n/a	RESPONSE	M1	1	19	G4	release
318.439	n/a	RESPONSE	M1	1	00	C3	release
318.592	n/a	RESPONSE	M1	1	04	E3	press
318.594	n/a	RESPONSE	M1	1	16	E4	press
318.828	n/a	RESPONSE	M1	1	16	E4	release
319.024	n/a	RESPONSE	M1	1	16	E4	press
319.298	n/a	RESPONSE	M1	1	16	E4	release
319.341	n/a	RESPONSE	M1	1	04	E3	release
319.576	n/a	RESPONSE	M1	1	02	D3	press
319.591	n/a	RESPONSE	M1	1	17	F4	press
319.952	n/a	RESPONSE	M1	1	17	F4	release
320.006	n/a	RESPONSE	M1	1	02	D3	release
320.159	n/a	RESPONSE	M1	1	14	D4	press
320.173	n/a	RESPONSE	M1	1	05	F3	press
320.437	n/a	RESPONSE	M1	1	14	D4	release
320.628	n/a	RESPONSE	M1	1	14	D4	press
320.916	n/a	RESPONSE	M1	1	14	D4	release
321.016	n/a	RESPONSE	M1	1	05	F3	release
321.076	n/a	RESPONSE	M1	1	07	G3	press
321.086	n/a	RESPONSE	M1	1	12	C4	press
321.348	n/a	RESPONSE	M1	1	12	C4	release
321.454	n/a	RESPONSE	M1	1	04	E3	press
321.457	n/a	RESPONSE	M1	1	16	E4	press
321.684	n/a	RESPONSE	M1	1	07	G3	release
321.718	n/a	RESPONSE	M1	1	16	E4	release
321.754	n/a	RESPONSE	M1	1	04	E3	release
321.853	n/a	RESPONSE	M1	1	00	C3	press
321.856	n/a	RESPONSE	M1	1	19	G4	press
322.291	n/a	RESPONSE	M1	1	19	G4	release
322.353	n/a	RESPONSE	M1	1	00	C3	release
323.798	7.758	FIXCROSS	n/a	n/a	n/a	n/a	n/a
331.556	6.325	CUE_LISTEN	M1	2	n/a	n/a	n/a
337.881	7.767	FIXCROSS	n/a	n/a	n/a	n/a	n/a
345.648	6.308	CUE_PLAYBACK_BOTH_HANDS	M1	2	n/a	n/a	n/a
346.141	n/a	RESPONSE	M1	2	00	C3	press
346.211	n/a	RESPONSE	M1	2	19	G4	press
346.601	n/a	RESPONSE	M1	2	19	G4	release
346.672	n/a	RESPONSE	M1	2	00	C3	release
347.139	n/a	RESPONSE	M1	2	04	E3	press
347.209	n/a	RESPONSE	M1	2	16	E4	press
347.458	n/a	RESPONSE	M1	2	16	E4	release
347.487	n/a	RESPONSE	M1	2	04	E3	release
347.612	n/a	RESPONSE	M1	2	16	E4	press
347.627	n/a	RESPONSE	M1	2	04	E3	press
347.862	n/a	RESPONSE	M1	2	16	E4	release
348.001	n/a	RESPONSE	M1	2	04	E3	release
348.098	n/a	RESPONSE	M1	2	17	F4	press
348.101	n/a	RESPONSE	M1	2	02	D3	press
348.444	n/a	RESPONSE	M1	2	02	D3	release
348.448	n/a	RESPONSE	M1	2	17	F4	release
348.627	n/a	RESPONSE	M1	2	05	F3	press
348.642	n/a	RESPONSE	M1	2	14	D4	press
348.904	n/a	RESPONSE	M1	2	14	D4	release
349.139	n/a	RESPONSE	M1	2	14	D4	press
349.404	n/a	RESPONSE	M1	2	14	D4	release
349.473	n/a	RESPONSE	M1	2	05	F3	release
349.612	n/a	RESPONSE	M1	2	07	G3	press
349.626	n/a	RESPONSE	M1	2	12	C4	press
349.902	n/a	RESPONSE	M1	2	12	C4	release
349.958	n/a	RESPONSE	M1	2	04	E3	press
349.961	n/a	RESPONSE	M1	2	16	E4	press
350.209	n/a	RESPONSE	M1	2	16	E4	release
350.321	n/a	RESPONSE	M1	2	04	E3	release
350.324	n/a	RESPONSE	M1	2	12	C4	press
350.772	n/a	RESPONSE	M1	2	12	C4	release
350.999	n/a	RESPONSE	M1	2	07	G3	release
351.956	7.758	FIXCROSS	n/a	n/a	n/a	n/a	n/a
359.714	6.317	CUE_LISTEN	M1	1	n/a	n/a	n/a
366.031	7.759	FIXCROSS	n/a	n/a	n/a	n/a	n/a
373.79	6.333	CUE_PLAYBACK_RIGHT_HAND	M1	1	n/a	n/a	n/a
374.434	n/a	RESPONSE	M1	1	19	G4	press
374.823	n/a	RESPONSE	M1	1	19	G4	release
374.961	n/a	RESPONSE	M1	1	16	E4	press
375.264	n/a	RESPONSE	M1	1	16	E4	release
375.444	n/a	RESPONSE	M1	1	16	E4	press
375.722	n/a	RESPONSE	M1	1	16	E4	release
375.914	n/a	RESPONSE	M1	1	17	F4	press
376.262	n/a	RESPONSE	M1	1	17	F4	release
376.427	n/a	RESPONSE	M1	1	14	D4	press
376.706	n/a	RESPONSE	M1	1	14	D4	release
376.886	n/a	RESPONSE	M1	1	14	D4	press
377.192	n/a	RESPONSE	M1	1	14	D4	release
377.273	n/a	RESPONSE	M1	1	12	C4	press
377.591	n/a	RESPONSE	M1	1	12	C4	release
377.606	n/a	RESPONSE	M1	1	16	E4	press
377.841	n/a	RESPONSE	M1	1	16	E4	release
377.924	n/a	RESPONSE	M1	1	19	G4	press
378.352	n/a	RESPONSE	M1	1	19	G4	release
380.122	7.759	FIXCROSS	n/a	n/a	n/a	n/a	n/a
387.881	6.308	CUE_LISTEN	M1	2	n/a	n/a	n/a
394.19	7.758	FIXCROSS	n/a	n/a	n/a	n/a	n/a
401.948	6.325	CUE_PLAYBACK_RIGHT_HAND	M1	2	n/a	n/a	n/a
402.621	n/a	RESPONSE	M1	2	19	G4	press
403.066	n/a	RESPONSE	M1	2	19	G4	release
403.141	n/a	RESPONSE	M1	2	16	E4	press
403.457	n/a	RESPONSE	M1	2	16	E4	release
403.594	n/a	RESPONSE	M1	2	16	E4	press
403.912	n/a	RESPONSE	M1	2	16	E4	release
404.098	n/a	RESPONSE	M1	2	17	F4	press
404.428	n/a	RESPONSE	M1	2	17	F4	release
404.584	n/a	RESPONSE	M1	2	14	D4	press
404.817	n/a	RESPONSE	M1	2	14	D4	release
405.024	n/a	RESPONSE	M1	2	14	D4	press
405.356	n/a	RESPONSE	M1	2	14	D4	release
405.426	n/a	RESPONSE	M1	2	12	C4	press
405.702	n/a	RESPONSE	M1	2	16	E4	press
405.717	n/a	RESPONSE	M1	2	12	C4	release
405.98	n/a	RESPONSE	M1	2	12	C4	press
405.994	n/a	RESPONSE	M1	2	16	E4	release
406.436	n/a	RESPONSE	M1	2	12	C4	release
408.273	7.759	FIXCROSS	n/a	n/a	n/a	n/a	n/a
416.031	6.317	CUE_LISTEN	M1	1	n/a	n/a	n/a
422.348	7.758	FIXCROSS	n/a	n/a	n/a	n/a	n/a
430.106	6.317	CUE_PLAYBACK_BOTH_HANDS	M1	1	n/a	n/a	n/a
430.773	n/a	RESPONSE	M1	1	00	C3	press
430.782	n/a	RESPONSE	M1	1	19	G4	press
431.14	n/a	RESPONSE	M1	1	19	G4	release
431.243	n/a	RESPONSE	M1	1	00	C3	release
431.33	n/a	RESPONSE	M1	1	04	E3	press
431.338	n/a	RESPONSE	M1	1	16	E4	press
431.684	n/a	RESPONSE	M1	1	16	E4	release
431.813	n/a	RESPONSE	M1	1	16	E4	press
432.13	n/a	RESPONSE	M1	1	16	E4	release
432.228	n/a	RESPONSE	M1	1	04	E3	release
432.357	n/a	RESPONSE	M1	1	17	F4	press
432.36	n/a	RESPONSE	M1	1	02	D3	press
432.7	n/a	RESPONSE	M1	1	17	F4	release
432.722	n/a	RESPONSE	M1	1	02	D3	release
432.926	n/a	RESPONSE	M1	1	05	F3	press
432.928	n/a	RESPONSE	M1	1	14	D4	press
433.183	n/a	RESPONSE	M1	1	14	D4	release
433.417	n/a	RESPONSE	M1	1	14	D4	press
433.703	n/a	RESPONSE	M1	1	14	D4	release
433.787	n/a	RESPONSE	M1	1	05	F3	release
433.866	n/a	RESPONSE	M1	1	07	G3	press
433.897	n/a	RESPONSE	M1	1	12	C4	press
434.176	n/a	RESPONSE	M1	1	12	C4	release
434.23	n/a	RESPONSE	M1	1	04	E3	press
434.244	n/a	RESPONSE	M1	1	16	E4	press
434.48	n/a	RESPONSE	M1	1	07	G3	release
434.536	n/a	RESPONSE	M1	1	16	E4	release
434.566	n/a	RESPONSE	M1	1	04	E3	release
434.622	n/a	RESPONSE	M1	1	00	C3	press
434.637	n/a	RESPONSE	M1	1	19	G4	press
435.161	n/a	RESPONSE	M1	1	19	G4	release
435.203	n/a	RESPONSE	M1	1	00	C3	release
436.423	7.759	FIXCROSS	n/a	n/a	n/a	n/a	n/a
444.182	6.325	CUE_LISTEN	M1	2	n/a	n/a	n/a
450.506	7.758	FIXCROSS	n/a	n/a	n/a	n/a	n/a
458.265	6.317	CUE_PLAYBACK_BOTH_HANDS	M1	2	n/a	n/a	n/a
459.008	n/a	RESPONSE	M1	2	00	C3	press
459.051	n/a	RESPONSE	M1	2	19	G4	press
459.423	n/a	RESPONSE	M1	2	19	G4	release
459.48	n/a	RESPONSE	M1	2	00	C3	release
459.55	n/a	RESPONSE	M1	2	04	E3	press
459.564	n/a	RESPONSE	M1	2	16	E4	press
459.8	n/a	RESPONSE	M1	2	16	E4	release
460.062	n/a	RESPONSE	M1	2	16	E4	press
460.297	n/a	RESPONSE	M1	2	16	E4	release
460.394	n/a	RESPONSE	M1	2	04	E3	release
460.512	n/a	RESPONSE	M1	2	02	D3	press
460.528	n/a	RESPONSE	M1	2	17	F4	press
460.836	n/a	RESPONSE	M1	2	17	F4	release
460.85	n/a	RESPONSE	M1	2	02	D3	release
461.076	n/a	RESPONSE	M1	2	14	D4	press
461.078	n/a	RESPONSE	M1	2	05	F3	press
461.358	n/a	RESPONSE	M1	2	14	D4	release
461.517	n/a	RESPONSE	M1	2	14	D4	press
461.766	n/a	RESPONSE	M1	2	14	D4	release
461.872	n/a	RESPONSE	M1	2	05	F3	release
462.031	n/a	RESPONSE	M1	2	07	G3	press
462.055	n/a	RESPONSE	M1	2	12	C4	press
462.35	n/a	RESPONSE	M1	2	12	C4	release
462.432	n/a	RESPONSE	M1	2	04	E3	press
462.435	n/a	RESPONSE	M1	2	16	E4	press
462.722	n/a	RESPONSE	M1	2	16	E4	release
462.73	n/a	RESPONSE	M1	2	04	E3	release
462.771	n/a	RESPONSE	M1	2	12	C4	press
463.145	n/a	RESPONSE	M1	2	12	C4	release
463.333	n/a	RESPONSE	M1	2	07	G3	release
464.582	7.758	FIXCROSS	n/a	n/a	n/a	n/a	n/a
472.34	6.317	CUE_LISTEN	M1	1	n/a	n/a	n/a
478.656	7.758	FIXCROSS	n/a	n/a	n/a	n/a	n/a
486.415	6.325	CUE_PLAYBACK_RIGHT_HAND	M1	1	n/a	n/a	n/a
487.173	n/a	RESPONSE	M1	1	19	G4	press
487.546	n/a	RESPONSE	M1	1	19	G4	release
487.685	n/a	RESPONSE	M1	1	16	E4	press
488.47	n/a	RESPONSE	M1	1	16	E4	release
488.623	n/a	RESPONSE	M1	1	16	E4	press
488.886	n/a	RESPONSE	M1	1	16	E4	release
489.066	n/a	RESPONSE	M1	1	17	F4	press
489.383	n/a	RESPONSE	M1	1	17	F4	release
489.577	n/a	RESPONSE	M1	1	14	D4	press
489.84	n/a	RESPONSE	M1	1	14	D4	release
490.13	n/a	RESPONSE	M1	1	14	D4	press
490.402	n/a	RESPONSE	M1	1	14	D4	release
490.54	n/a	RESPONSE	M1	1	12	C4	press
490.805	n/a	RESPONSE	M1	1	12	C4	release
490.821	n/a	RESPONSE	M1	1	16	E4	press
491.062	n/a	RESPONSE	M1	1	16	E4	release
491.147	n/a	RESPONSE	M1	1	19	G4	press
491.562	n/a	RESPONSE	M1	1	19	G4	release
492.74	7.758	FIXCROSS	n/a	n/a	n/a	n/a	n/a
500.498	6.317	CUE_LISTEN	M1	2	n/a	n/a	n/a
506.815	7.758	FIXCROSS	n/a	n/a	n/a	n/a	n/a
514.573	6.317	CUE_PLAYBACK_RIGHT_HAND	M1	2	n/a	n/a	n/a
515.295	n/a	RESPONSE	M1	2	19	G4	press
515.708	n/a	RESPONSE	M1	2	19	G4	release
515.82	n/a	RESPONSE	M1	2	16	E4	press
516.11	n/a	RESPONSE	M1	2	16	E4	release
516.333	n/a	RESPONSE	M1	2	16	E4	press
516.638	n/a	RESPONSE	M1	2	16	E4	release
516.818	n/a	RESPONSE	M1	2	17	F4	press
517.191	n/a	RESPONSE	M1	2	17	F4	release
517.343	n/a	RESPONSE	M1	2	14	D4	press
517.661	n/a	RESPONSE	M1	2	14	D4	release
517.827	n/a	RESPONSE	M1	2	14	D4	press
518.145	n/a	RESPONSE	M1	2	14	D4	release
518.215	n/a	RESPONSE	M1	2	12	C4	press
518.491	n/a	RESPONSE	M1	2	12	C4	release
518.576	n/a	RESPONSE	M1	2	16	E4	press
518.852	n/a	RESPONSE	M1	2	16	E4	release
518.881	n/a	RESPONSE	M1	2	12	C4	press
519.311	n/a	RESPONSE	M1	2	12	C4	release
520.89	7.758	FIXCROSS	n/a	n/a	n/a	n/a	n/a
528.648	6.325	CUE_LISTEN	M1	1	n/a	n/a	n/a
534.973	7.758	FIXCROSS	n/a	n/a	n/a	n/a	n/a
542.732	6.317	CUE_PLAYBACK_BOTH_HANDS	M1	1	n/a	n/a	n/a
543.395	n/a	RESPONSE	M1	1	00	C3	press
543.426	n/a	RESPONSE	M1	1	19	G4	press
543.84	n/a	RESPONSE	M1	1	19	G4	release
543.923	n/a	RESPONSE	M1	1	00	C3	release
544.002	n/a	RESPONSE	M1	1	04	E3	press
544.011	n/a	RESPONSE	M1	1	16	E4	press
544.306	n/a	RESPONSE	M1	1	16	E4	release
544.321	n/a	RESPONSE	M1	1	04	E3	release
544.487	n/a	RESPONSE	M1	1	04	E3	press
544.49	n/a	RESPONSE	M1	1	16	E4	press
544.752	n/a	RESPONSE	M1	1	16	E4	release
544.863	n/a	RESPONSE	M1	1	04	E3	release
544.988	n/a	RESPONSE	M1	1	17	F4	press
545.004	n/a	RESPONSE	M1	1	02	D3	press
545.348	n/a	RESPONSE	M1	1	17	F4	release
545.377	n/a	RESPONSE	M1	1	02	D3	release
545.543	n/a	RESPONSE	M1	1	14	D4	press
545.546	n/a	RESPONSE	M1	1	05	F3	press
545.835	n/a	RESPONSE	M1	1	14	D4	release
546.015	n/a	RESPONSE	M1	1	14	D4	press
546.305	n/a	RESPONSE	M1	1	14	D4	release
546.32	n/a	RESPONSE	M1	1	05	F3	release
546.432	n/a	RESPONSE	M1	1	12	C4	press
546.446	n/a	RESPONSE	M1	1	07	G3	press
546.698	n/a	RESPONSE	M1	1	12	C4	release
546.798	n/a	RESPONSE	M1	1	04	E3	press
546.825	n/a	RESPONSE	M1	1	16	E4	press
547.046	n/a	RESPONSE	M1	1	07	G3	release
547.075	n/a	RESPONSE	M1	1	16	E4	release
547.145	n/a	RESPONSE	M1	1	04	E3	release
547.203	n/a	RESPONSE	M1	1	00	C3	press
547.216	n/a	RESPONSE	M1	1	19	G4	press
547.685	n/a	RESPONSE	M1	1	19	G4	release
547.768	n/a	RESPONSE	M1	1	00	C3	release
549.048	7.758	FIXCROSS	n/a	n/a	n/a	n/a	n/a
556.807	6.325	CUE_LISTEN	M1	2	n/a	n/a	n/a
563.132	7.759	FIXCROSS	n/a	n/a	n/a	n/a	n/a
570.89	6.317	CUE_PLAYBACK_BOTH_HANDS	M1	2	n/a	n/a	n/a
571.416	n/a	RESPONSE	M1	2	00	C3	press
571.422	n/a	RESPONSE	M1	2	19	G4	press
571.831	n/a	RESPONSE	M1	2	00	C3	release
571.865	n/a	RESPONSE	M1	2	19	G4	release
572.134	n/a	RESPONSE	M1	2	04	E3	press
572.165	n/a	RESPONSE	M1	2	16	E4	press
572.451	n/a	RESPONSE	M1	2	16	E4	release
572.641	n/a	RESPONSE	M1	2	16	E4	press
572.89	n/a	RESPONSE	M1	2	16	E4	release
572.981	n/a	RESPONSE	M1	2	04	E3	release
573.117	n/a	RESPONSE	M1	2	02	D3	press
573.12	n/a	RESPONSE	M1	2	17	F4	press
573.45	n/a	RESPONSE	M1	2	17	F4	release
573.481	n/a	RESPONSE	M1	2	02	D3	release
573.626	n/a	RESPONSE	M1	2	05	F3	press
573.644	n/a	RESPONSE	M1	2	14	D4	press
573.897	n/a	RESPONSE	M1	2	14	D4	release
573.944	n/a	RESPONSE	M1	2	05	F3	release
574.101	n/a	RESPONSE	M1	2	14	D4	press
574.104	n/a	RESPONSE	M1	2	05	F3	press
574.351	n/a	RESPONSE	M1	2	14	D4	release
574.421	n/a	RESPONSE	M1	2	05	F3	release
574.491	n/a	RESPONSE	M1	2	07	G3	press
574.506	n/a	RESPONSE	M1	2	12	C4	press
574.77	n/a	RESPONSE	M1	2	12	C4	release
574.801	n/a	RESPONSE	M1	2	16	E4	press
574.828	n/a	RESPONSE	M1	2	04	E3	press
575.007	n/a	RESPONSE	M1	2	07	G3	release
575.05	n/a	RESPONSE	M1	2	16	E4	release
575.134	n/a	RESPONSE	M1	2	07	G3	press
575.136	n/a	RESPONSE	M1	2	12	C4	press
575.548	n/a	RESPONSE	M1	2	04	E3	release
575.591	n/a	RESPONSE	M1	2	12	C4	release
577.207	7.758	FIXCROSS	n/a	n/a	n/a	n/a	n/a
582.682	n/a	RESPONSE	M1	2	07	G3	release
584.965	6.317	CUE_LISTEN	M1	1	n/a	n/a	n/a
591.282	7.759	FIXCROSS	n/a	n/a	n/a	n/a	n/a
599.04	6.317	CUE_PLAYBACK_RIGHT_HAND	M1	1	n/a	n/a	n/a
599.796	n/a	RESPONSE	M1	1	19	G4	press
600.24	n/a	RESPONSE	M1	1	19	G4	release
600.422	n/a	RESPONSE	M1	1	16	E4	press
600.677	n/a	RESPONSE	M1	1	16	E4	release
600.936	n/a	RESPONSE	M1	1	16	E4	press
601.252	n/a	RESPONSE	M1	1	16	E4	release
601.406	n/a	RESPONSE	M1	1	17	F4	press
601.792	n/a	RESPONSE	M1	1	17	F4	release
601.926	n/a	RESPONSE	M1	1	14	D4	press
602.227	n/a	RESPONSE	M1	1	14	D4	release
602.431	n/a	RESPONSE	M1	1	14	D4	press
602.718	n/a	RESPONSE	M1	1	14	D4	release
602.767	n/a	RESPONSE	M1	1	12	C4	press
603.051	n/a	RESPONSE	M1	1	12	C4	release
603.114	n/a	RESPONSE	M1	1	16	E4	press
603.361	n/a	RESPONSE	M1	1	16	E4	release
603.417	n/a	RESPONSE	M1	1	19	G4	press
603.844	n/a	RESPONSE	M1	1	19	G4	release
605.357	7.758	FIXCROSS	n/a	n/a	n/a	n/a	n/a
613.115	6.325	CUE_LISTEN	M1	2	n/a	n/a	n/a
619.44	7.758	FIXCROSS	n/a	n/a	n/a	n/a	n/a
627.199	6.317	CUE_PLAYBACK_RIGHT_HAND	M1	2	n/a	n/a	n/a
627.842	n/a	RESPONSE	M1	2	19	G4	press
628.215	n/a	RESPONSE	M1	2	19	G4	release
628.367	n/a	RESPONSE	M1	2	16	E4	press
629.167	n/a	RESPONSE	M1	2	16	E4	release
629.402	n/a	RESPONSE	M1	2	16	E4	press
629.706	n/a	RESPONSE	M1	2	16	E4	release
629.872	n/a	RESPONSE	M1	2	17	F4	press
630.245	n/a	RESPONSE	M1	2	17	F4	release
630.419	n/a	RESPONSE	M1	2	14	D4	press
630.721	n/a	RESPONSE	M1	2	14	D4	release
630.935	n/a	RESPONSE	M1	2	14	D4	press
631.236	n/a	RESPONSE	M1	2	14	D4	release
631.36	n/a	RESPONSE	M1	2	12	C4	press
631.626	n/a	RESPONSE	M1	2	12	C4	release
631.685	n/a	RESPONSE	M1	2	16	E4	press
632.026	n/a	RESPONSE	M1	2	12	C4	press
632.049	n/a	RESPONSE	M1	2	16	E4	release
632.431	n/a	RESPONSE	M1	2	12	C4	release
633.515	7.767	FIXCROSS	n/a	n/a	n/a	n/a	n/a
641.282	6.317	CUE_LISTEN	M1	1	n/a	n/a	n/a
647.599	7.758	FIXCROSS	n/a	n/a	n/a	n/a	n/a
655.357	6.317	CUE_PLAYBACK_BOTH_HANDS	M1	1	n/a	n/a	n/a
656.201	n/a	RESPONSE	M1	1	00	C3	press
656.244	n/a	RESPONSE	M1	1	19	G4	press
656.619	n/a	RESPONSE	M1	1	19	G4	release
656.661	n/a	RESPONSE	M1	1	00	C3	release
656.772	n/a	RESPONSE	M1	1	04	E3	press
656.787	n/a	RESPONSE	M1	1	16	E4	press
657.022	n/a	RESPONSE	M1	1	16	E4	release
657.274	n/a	RESPONSE	M1	1	16	E4	press
657.535	n/a	RESPONSE	M1	1	16	E4	release
657.619	n/a	RESPONSE	M1	1	04	E3	release
657.84	n/a	RESPONSE	M1	1	17	F4	press
657.844	n/a	RESPONSE	M1	1	02	D3	press
658.172	n/a	RESPONSE	M1	1	17	F4	release
658.187	n/a	RESPONSE	M1	1	02	D3	release
658.34	n/a	RESPONSE	M1	1	05	F3	press
658.369	n/a	RESPONSE	M1	1	14	D4	press
658.632	n/a	RESPONSE	M1	1	14	D4	release
658.84	n/a	RESPONSE	M1	1	14	D4	press
659.144	n/a	RESPONSE	M1	1	14	D4	release
659.186	n/a	RESPONSE	M1	1	05	F3	release
659.339	n/a	RESPONSE	M1	1	12	C4	press
659.354	n/a	RESPONSE	M1	1	07	G3	press
659.602	n/a	RESPONSE	M1	1	12	C4	release
659.715	n/a	RESPONSE	M1	1	04	E3	press
659.742	n/a	RESPONSE	M1	1	16	E4	press
659.95	n/a	RESPONSE	M1	1	07	G3	release
659.994	n/a	RESPONSE	M1	1	16	E4	release
660.062	n/a	RESPONSE	M1	1	04	E3	release
660.119	n/a	RESPONSE	M1	1	00	C3	press
660.122	n/a	RESPONSE	M1	1	19	G4	press
660.541	n/a	RESPONSE	M1	1	19	G4	release
660.707	n/a	RESPONSE	M1	1	00	C3	release
661.674	7.758	FIXCROSS	n/a	n/a	n/a	n/a	n/a
669.432	6.317	CUE_LISTEN	M1	2	n/a	n/a	n/a
675.749	7.758	FIXCROSS	n/a	n/a	n/a	n/a	n/a
683.507	6.325	CUE_PLAYBACK_BOTH_HANDS	M1	2	n/a	n/a	n/a
684.245	n/a	RESPONSE	M1	2	00	C3	press
684.274	n/a	RESPONSE	M1	2	19	G4	press
684.675	n/a	RESPONSE	M1	2	00	C3	release
684.677	n/a	RESPONSE	M1	2	19	G4	release
684.83	n/a	RESPONSE	M1	2	04	E3	press
684.844	n/a	RESPONSE	M1	2	16	E4	press
685.106	n/a	RESPONSE	M1	2	16	E4	release
685.382	n/a	RESPONSE	M1	2	16	E4	press
685.659	n/a	RESPONSE	M1	2	16	E4	release
685.729	n/a	RESPONSE	M1	2	04	E3	release
685.909	n/a	RESPONSE	M1	2	02	D3	press
685.924	n/a	RESPONSE	M1	2	17	F4	press
686.255	n/a	RESPONSE	M1	2	17	F4	release
686.311	n/a	RESPONSE	M1	2	02	D3	release
686.464	n/a	RESPONSE	M1	2	05	F3	press
686.479	n/a	RESPONSE	M1	2	14	D4	press
686.731	n/a	RESPONSE	M1	2	14	D4	release
686.952	n/a	RESPONSE	M1	2	14	D4	press
687.204	n/a	RESPONSE	M1	2	14	D4	release
687.299	n/a	RESPONSE	M1	2	05	F3	release
687.397	n/a	RESPONSE	M1	2	07	G3	press
687.44	n/a	RESPONSE	M1	2	12	C4	press
687.729	n/a	RESPONSE	M1	2	12	C4	release
687.826	n/a	RESPONSE	M1	2	16	E4	press
687.829	n/a	RESPONSE	M1	2	04	E3	press
688.076	n/a	RESPONSE	M1	2	16	E4	release
688.132	n/a	RESPONSE	M1	2	12	C4	press
688.381	n/a	RESPONSE	M1	2	04	E3	release
688.48	n/a	RESPONSE	M1	2	12	C4	release
689.072	n/a	RESPONSE	M1	2	07	G3	release
689.832	7.759	FIXCROSS	n/a	n/a	n/a	n/a	n/a
697.591	6.317	CUE_LISTEN	M1	1	n/a	n/a	n/a
703.907	7.758	FIXCROSS	n/a	n/a	n/a	n/a	n/a
711.666	6.317	CUE_PLAYBACK_RIGHT_HAND	M1	1	n/a	n/a	n/a
712.279	n/a	RESPONSE	M1	1	19	G4	press
712.636	n/a	RESPONSE	M1	1	19	G4	release
712.785	n/a	RESPONSE	M1	1	16	E4	press
713.056	n/a	RESPONSE	M1	1	16	E4	release
713.267	n/a	RESPONSE	M1	1	16	E4	press
713.546	n/a	RESPONSE	M1	1	16	E4	release
713.735	n/a	RESPONSE	M1	1	17	F4	press
714.102	n/a	RESPONSE	M1	1	17	F4	release
714.214	n/a	RESPONSE	M1	1	14	D4	press
714.504	n/a	RESPONSE	M1	1	14	D4	release
714.726	n/a	RESPONSE	M1	1	14	D4	press
715.031	n/a	RESPONSE	M1	1	14	D4	release
715.141	n/a	RESPONSE	M1	1	12	C4	press
715.404	n/a	RESPONSE	M1	1	12	C4	release
715.46	n/a	RESPONSE	M1	1	16	E4	press
715.722	n/a	RESPONSE	M1	1	16	E4	release
715.792	n/a	RESPONSE	M1	1	19	G4	press
716.234	n/a	RESPONSE	M1	1	19	G4	release
717.982	7.759	FIXCROSS	n/a	n/a	n/a	n/a	n/a
725.741	6.325	CUE_LISTEN	M1	2	n/a	n/a	n/a
732.066	7.758	FIXCROSS	n/a	n/a	n/a	n/a	n/a
739.824	6.317	CUE_PLAYBACK_RIGHT_HAND	M1	2	n/a	n/a	n/a
740.625	n/a	RESPONSE	M1	2	19	G4	press
740.974	n/a	RESPONSE	M1	2	19	G4	release
741.112	n/a	RESPONSE	M1	2	16	E4	press
741.396	n/a	RESPONSE	M1	2	16	E4	release
741.574	n/a	RESPONSE	M1	2	16	E4	press
741.919	n/a	RESPONSE	M1	2	16	E4	release
742.1	n/a	RESPONSE	M1	2	17	F4	press
742.471	n/a	RESPONSE	M1	2	17	F4	release
742.584	n/a	RESPONSE	M1	2	14	D4	press
742.87	n/a	RESPONSE	M1	2	14	D4	release
743.059	n/a	RESPONSE	M1	2	14	D4	press
743.361	n/a	RESPONSE	M1	2	14	D4	release
743.526	n/a	RESPONSE	M1	2	12	C4	press
743.768	n/a	RESPONSE	M1	2	12	C4	release
743.83	n/a	RESPONSE	M1	2	16	E4	press
744.161	n/a	RESPONSE	M1	2	16	E4	release
744.191	n/a	RESPONSE	M1	2	12	C4	press
744.59	n/a	RESPONSE	M1	2	12	C4	release
746.141	7.758	FIXCROSS	n/a	n/a	n/a	n/a	n/a
753.899	6.317	CUE_LISTEN	M1	1	n/a	n/a	n/a
760.216	7.758	FIXCROSS	n/a	n/a	n/a	n/a	n/a
767.974	6.325	CUE_PLAYBACK_BOTH_HANDS	M1	1	n/a	n/a	n/a
768.416	n/a	RESPONSE	M1	1	00	C3	press
768.468	n/a	RESPONSE	M1	1	19	G4	press
768.849	n/a	RESPONSE	M1	1	00	C3	release
768.88	n/a	RESPONSE	M1	1	19	G4	release
768.971	n/a	RESPONSE	M1	1	04	E3	press
768.992	n/a	RESPONSE	M1	1	16	E4	press
769.304	n/a	RESPONSE	M1	1	16	E4	release
769.485	n/a	RESPONSE	M1	1	16	E4	press
769.776	n/a	RESPONSE	M1	1	16	E4	release
769.86	n/a	RESPONSE	M1	1	04	E3	release
770.021	n/a	RESPONSE	M1	1	17	F4	press
770.032	n/a	RESPONSE	M1	1	02	D3	press
770.371	n/a	RESPONSE	M1	1	17	F4	release
770.452	n/a	RESPONSE	M1	1	02	D3	release
770.576	n/a	RESPONSE	M1	1	14	D4	press
770.584	n/a	RESPONSE	M1	1	05	F3	press
770.884	n/a	RESPONSE	M1	1	14	D4	release
771.065	n/a	RESPONSE	M1	1	14	D4	press
771.334	n/a	RESPONSE	M1	1	14	D4	release
771.45	n/a	RESPONSE	M1	1	05	F3	release
771.625	n/a	RESPONSE	M1	1	07	G3	press
771.664	n/a	RESPONSE	M1	1	12	C4	press
771.931	n/a	RESPONSE	M1	1	12	C4	release
772.044	n/a	RESPONSE	M1	1	16	E4	press
772.093	n/a	RESPONSE	M1	1	04	E3	press
772.25	n/a	RESPONSE	M1	1	07	G3	release
772.27	n/a	RESPONSE	M1	1	16	E4	release
772.334	n/a	RESPONSE	M1	1	04	E3	release
772.388	n/a	RESPONSE	M1	1	00	C3	press
772.402	n/a	RESPONSE	M1	1	19	G4	press
772.818	n/a	RESPONSE	M1	1	19	G4	release
772.82	n/a	RESPONSE	M1	1	00	C3	release
774.299	7.758	FIXCROSS	n/a	n/a	n/a	n/a	n/a
782.058	6.317	CUE_LISTEN	M1	2	n/a	n/a	n/a
788.374	7.758	FIXCROSS	n/a	n/a	n/a	n/a	n/a
796.133	6.317	CUE_PLAYBACK_BOTH_HANDS	M1	2	n/a	n/a	n/a
796.785	n/a	RESPONSE	M1	2	00	C3	press
796.8	n/a	RESPONSE	M1	2	19	G4	press
797.215	n/a	RESPONSE	M1	2	00	C3	release
797.258	n/a	RESPONSE	M1	2	19	G4	release
797.341	n/a	RESPONSE	M1	2	04	E3	press
797.344	n/a	RESPONSE	M1	2	16	E4	press
797.646	n/a	RESPONSE	M1	2	16	E4	release
797.689	n/a	RESPONSE	M1	2	04	E3	release
797.816	n/a	RESPONSE	M1	2	04	E3	press
797.842	n/a	RESPONSE	M1	2	16	E4	press
798.105	n/a	RESPONSE	M1	2	16	E4	release
798.134	n/a	RESPONSE	M1	2	04	E3	release
798.328	n/a	RESPONSE	M1	2	02	D3	press
798.344	n/a	RESPONSE	M1	2	17	F4	press
798.633	n/a	RESPONSE	M1	2	17	F4	release
798.648	n/a	RESPONSE	M1	2	02	D3	release
798.828	n/a	RESPONSE	M1	2	05	F3	press
798.83	n/a	RESPONSE	M1	2	14	D4	press
799.108	n/a	RESPONSE	M1	2	14	D4	release
799.273	n/a	RESPONSE	M1	2	14	D4	press
799.549	n/a	RESPONSE	M1	2	14	D4	release
799.578	n/a	RESPONSE	M1	2	05	F3	release
799.813	n/a	RESPONSE	M1	2	07	G3	press
799.828	n/a	RESPONSE	M1	2	12	C4	press
800.063	n/a	RESPONSE	M1	2	12	C4	release
800.133	n/a	RESPONSE	M1	2	16	E4	press
800.135	n/a	RESPONSE	M1	2	04	E3	press
800.341	n/a	RESPONSE	M1	2	07	G3	release
800.384	n/a	RESPONSE	M1	2	16	E4	release
800.399	n/a	RESPONSE	M1	2	04	E3	release
800.414	n/a	RESPONSE	M1	2	07	G3	press
800.429	n/a	RESPONSE	M1	2	12	C4	press
800.763	n/a	RESPONSE	M1	2	12	C4	release
800.816	n/a	RESPONSE	M1	2	07	G3	release
802.449	7.758	FIXCROSS	n/a	n/a	n/a	n/a	n/a
810.208	6.325	CUE_LISTEN	M1	1	n/a	n/a	n/a
816.533	7.758	FIXCROSS	n/a	n/a	n/a	n/a	n/a
824.291	6.317	CUE_PLAYBACK_RIGHT_HAND	M1	1	n/a	n/a	n/a
825.106	n/a	RESPONSE	M1	1	19	G4	press
825.411	n/a	RESPONSE	M1	1	19	G4	release
825.591	n/a	RESPONSE	M1	1	16	E4	press
825.894	n/a	RESPONSE	M1	1	16	E4	release
826.076	n/a	RESPONSE	M1	1	16	E4	press
826.366	n/a	RESPONSE	M1	1	16	E4	release
826.574	n/a	RESPONSE	M1	1	17	F4	press
826.891	n/a	RESPONSE	M1	1	17	F4	release
827.045	n/a	RESPONSE	M1	1	14	D4	press
827.31	n/a	RESPONSE	M1	1	14	D4	release
827.529	n/a	RESPONSE	M1	1	14	D4	press
827.806	n/a	RESPONSE	M1	1	14	D4	release
827.875	n/a	RESPONSE	M1	1	12	C4	press
828.124	n/a	RESPONSE	M1	1	12	C4	release
828.18	n/a	RESPONSE	M1	1	16	E4	press
828.47	n/a	RESPONSE	M1	1	16	E4	release
828.485	n/a	RESPONSE	M1	1	19	G4	press
828.888	n/a	RESPONSE	M1	1	19	G4	release
830.608	7.759	FIXCROSS	n/a	n/a	n/a	n/a	n/a
838.366	6.325	CUE_LISTEN	M1	2	n/a	n/a	n/a
844.691	7.758	FIXCROSS	n/a	n/a	n/a	n/a	n/a
852.45	6.317	CUE_PLAYBACK_RIGHT_HAND	M1	2	n/a	n/a	n/a
853.179	n/a	RESPONSE	M1	2	19	G4	press
853.569	n/a	RESPONSE	M1	2	19	G4	release
853.675	n/a	RESPONSE	M1	2	16	E4	press
853.999	n/a	RESPONSE	M1	2	16	E4	release
854.175	n/a	RESPONSE	M1	2	16	E4	press
854.453	n/a	RESPONSE	M1	2	16	E4	release
854.66	n/a	RESPONSE	M1	2	17	F4	press
855.019	n/a	RESPONSE	M1	2	17	F4	release
855.145	n/a	RESPONSE	M1	2	14	D4	press
855.409	n/a	RESPONSE	M1	2	14	D4	release
855.629	n/a	RESPONSE	M1	2	14	D4	press
855.933	n/a	RESPONSE	M1	2	14	D4	release
856.048	n/a	RESPONSE	M1	2	12	C4	press
856.323	n/a	RESPONSE	M1	2	12	C4	release
856.325	n/a	RESPONSE	M1	2	16	E4	press
856.588	n/a	RESPONSE	M1	2	12	C4	press
856.643	n/a	RESPONSE	M1	2	16	E4	release
856.963	n/a	RESPONSE	M1	2	12	C4	release
858.766	7.758	FIXCROSS	n/a	n/a	n/a	n/a	n/a
866.525	6.317	CUE_LISTEN	M1	1	n/a	n/a	n/a
872.841	7.758	FIXCROSS	n/a	n/a	n/a	n/a	n/a
880.6	6.325	CUE_PLAYBACK_BOTH_HANDS	M1	1	n/a	n/a	n/a
881.114	n/a	RESPONSE	M1	1	00	C3	press
881.146	n/a	RESPONSE	M1	1	19	G4	press
881.566	n/a	RESPONSE	M1	1	19	G4	release
881.733	n/a	RESPONSE	M1	1	16	E4	press
881.735	n/a	RESPONSE	M1	1	04	E3	press
881.99	n/a	RESPONSE	M1	1	16	E4	release
882.044	n/a	RESPONSE	M1	1	00	C3	release
882.218	n/a	RESPONSE	M1	1	16	E4	press
882.506	n/a	RESPONSE	M1	1	16	E4	release
882.618	n/a	RESPONSE	M1	1	04	E3	release
882.666	n/a	RESPONSE	M1	1	02	D3	press
882.68	n/a	RESPONSE	M1	1	17	F4	press
883.02	n/a	RESPONSE	M1	1	17	F4	release
883.059	n/a	RESPONSE	M1	1	02	D3	release
883.18	n/a	RESPONSE	M1	1	05	F3	press
883.189	n/a	RESPONSE	M1	1	14	D4	press
883.455	n/a	RESPONSE	M1	1	14	D4	release
883.649	n/a	RESPONSE	M1	1	14	D4	press
883.892	n/a	RESPONSE	M1	1	14	D4	release
883.984	n/a	RESPONSE	M1	1	05	F3	release
884.08	n/a	RESPONSE	M1	1	07	G3	press
884.099	n/a	RESPONSE	M1	1	12	C4	press
884.403	n/a	RESPONSE	M1	1	12	C4	release
884.445	n/a	RESPONSE	M1	1	16	E4	press
884.448	n/a	RESPONSE	M1	1	04	E3	press
884.668	n/a	RESPONSE	M1	1	07	G3	release
884.71	n/a	RESPONSE	M1	1	16	E4	release
884.81	n/a	RESPONSE	M1	1	04	E3	release
884.823	n/a	RESPONSE	M1	1	00	C3	press
884.852	n/a	RESPONSE	M1	1	19	G4	press
885.253	n/a	RESPONSE	M1	1	19	G4	release
885.268	n/a	RESPONSE	M1	1	00	C3	release
886.925	7.758	FIXCROSS	n/a	n/a	n/a	n/a	n/a
894.683	6.317	CUE_LISTEN	M1	2	n/a	n/a	n/a
901.0	7.758	FIXCROSS	n/a	n/a	n/a	n/a	n/a
908.758	43.232	CUE_PLAYBACK_BOTH_HANDS	M1	2	n/a	n/a	n/a
909.28	n/a	RESPONSE	M1	2	00	C3	press
909.31	n/a	RESPONSE	M1	2	19	G4	press
909.764	n/a	RESPONSE	M1	2	19	G4	release
909.888	n/a	RESPONSE	M1	2	00	C3	release
909.93	n/a	RESPONSE	M1	2	04	E3	press
909.945	n/a	RESPONSE	M1	2	16	E4	press
910.208	n/a	RESPONSE	M1	2	16	E4	release
910.443	n/a	RESPONSE	M1	2	16	E4	press
910.738	n/a	RESPONSE	M1	2	16	E4	release
910.838	n/a	RESPONSE	M1	2	04	E3	release
910.922	n/a	RESPONSE	M1	2	02	D3	press
910.938	n/a	RESPONSE	M1	2	17	F4	press
911.273	n/a	RESPONSE	M1	2	17	F4	release
911.306	n/a	RESPONSE	M1	2	02	D3	release
911.458	n/a	RESPONSE	M1	2	05	F3	press
911.472	n/a	RESPONSE	M1	2	14	D4	press
911.75	n/a	RESPONSE	M1	2	14	D4	release
911.843	n/a	RESPONSE	M1	2	05	F3	release
911.948	n/a	RESPONSE	M1	2	14	D4	press
911.964	n/a	RESPONSE	M1	2	05	F3	press
912.258	n/a	RESPONSE	M1	2	14	D4	release
912.319	n/a	RESPONSE	M1	2	05	F3	release
912.418	n/a	RESPONSE	M1	2	12	C4	press
912.42	n/a	RESPONSE	M1	2	07	G3	press
912.706	n/a	RESPONSE	M1	2	04	E3	press
912.722	n/a	RESPONSE	M1	2	12	C4	release
912.738	n/a	RESPONSE	M1	2	16	E4	press
912.928	n/a	RESPONSE	M1	2	07	G3	release
913.003	n/a	RESPONSE	M1	2	16	E4	release
913.058	n/a	RESPONSE	M1	2	07	G3	press
913.06	n/a	RESPONSE	M1	2	12	C4	press
913.253	n/a	FIXCROSS	n/a	n/a	n/a	n/a	n/a
913.408	n/a	RESPONSE	M1	2	04	E3	release
913.492	n/a	RESPONSE	M1	2	12	C4	release
925.982	n/a	RESPONSE	M1	2	07	G3	release
