onset	duration	trial_type	trial_number	stroop_condition	stim_text(PL)	stim_text(eng)	stim_color(PL)	stim_color(eng)	response_type	response_color
0.0	n/a	RESPONSE	n/a	n/a	n/a	n/a	n/a	n/a	n/a	n/a
0.0694	1.0334	ITI	n/a	n/a	n/a	n/a	n/a	n/a	n/a	n/a
1.1027	0.5167	FIXCROSS	n/a	n/a	n/a	n/a	n/a	n/a	n/a	n/a
1.6194	2.4667	T_INK	1	Incongruent	czerwony	red	niebieski	blue	hit	n/a
4.063	n/a	RESPONSE	n/a	n/a	n/a	n/a	n/a	n/a	n/a	blue
4.0861	0.5167	FEEDBACK	n/a	n/a	n/a	n/a	n/a	n/a	n/a	n/a
4.6028	1.0167	ITI	n/a	n/a	n/a	n/a	n/a	n/a	n/a	n/a
5.6194	0.5167	FIXCROSS	n/a	n/a	n/a	n/a	n/a	n/a	n/a	n/a
6.1361	1.6834	T_INK	2	Neutral	xxxxxxxxx	xxxxxxxxx	czerwony	red	hit	n/a
7.7901	n/a	RESPONSE	n/a	n/a	n/a	n/a	n/a	n/a	n/a	red
7.8195	0.5167	FEEDBACK	n/a	n/a	n/a	n/a	n/a	n/a	n/a	n/a
8.3361	1.0167	ITI	n/a	n/a	n/a	n/a	n/a	n/a	n/a	n/a
9.3528	0.5167	FIXCROSS	n/a	n/a	n/a	n/a	n/a	n/a	n/a	n/a
9.8695	1.4334	T_INK	3	Incongruent	niebieski	blue	żółty	yellow	hit	n/a
11.2773	n/a	RESPONSE	n/a	n/a	n/a	n/a	n/a	n/a	n/a	yellow
11.3028	0.5167	FEEDBACK	n/a	n/a	n/a	n/a	n/a	n/a	n/a	n/a
11.8195	1.0167	ITI	n/a	n/a	n/a	n/a	n/a	n/a	n/a	n/a
12.8362	0.5167	FIXCROSS	n/a	n/a	n/a	n/a	n/a	n/a	n/a	n/a
13.3529	0.5834	T_INK	4	Neutral	xxxxxxxx	xxxxxxxx	zielony	green	hit	n/a
13.9006	n/a	RESPONSE	n/a	n/a	n/a	n/a	n/a	n/a	n/a	green
13.9362	0.5167	FEEDBACK	n/a	n/a	n/a	n/a	n/a	n/a	n/a	n/a
14.4529	1.0167	ITI	n/a	n/a	n/a	n/a	n/a	n/a	n/a	n/a
15.4696	0.5167	FIXCROSS	n/a	n/a	n/a	n/a	n/a	n/a	n/a	n/a
15.9862	0.8	T_INK	5	Neutral	xxxxx	xxxxx	zielony	green	hit	n/a
16.7639	n/a	RESPONSE	n/a	n/a	n/a	n/a	n/a	n/a	n/a	green
16.7863	0.5167	FEEDBACK	n/a	n/a	n/a	n/a	n/a	n/a	n/a	n/a
17.3029	1.0167	ITI	n/a	n/a	n/a	n/a	n/a	n/a	n/a	n/a
18.3196	0.5167	FIXCROSS	n/a	n/a	n/a	n/a	n/a	n/a	n/a	n/a
18.8363	0.65	T_INK	6	Incongruent	czerwony	red	żółty	yellow	hit	n/a
19.4513	n/a	RESPONSE	n/a	n/a	n/a	n/a	n/a	n/a	n/a	yellow
19.4863	0.5167	FEEDBACK	n/a	n/a	n/a	n/a	n/a	n/a	n/a	n/a
20.003	1.0167	ITI	n/a	n/a	n/a	n/a	n/a	n/a	n/a	n/a
21.0197	0.5167	FIXCROSS	n/a	n/a	n/a	n/a	n/a	n/a	n/a	n/a
21.5363	0.6833	T_INK	7	Incongruent	zielony	green	czerwony	red	hit	n/a
22.1866	n/a	RESPONSE	n/a	n/a	n/a	n/a	n/a	n/a	n/a	red
22.2197	0.5167	FEEDBACK	n/a	n/a	n/a	n/a	n/a	n/a	n/a	n/a
22.7364	1.0167	ITI	n/a	n/a	n/a	n/a	n/a	n/a	n/a	n/a
23.753	0.5167	FIXCROSS	n/a	n/a	n/a	n/a	n/a	n/a	n/a	n/a
24.2697	0.55	T_INK	8	Incongruent	niebieski	blue	czerwony	red	hit	n/a
24.794	n/a	RESPONSE	n/a	n/a	n/a	n/a	n/a	n/a	n/a	red
24.8197	0.5167	FEEDBACK	n/a	n/a	n/a	n/a	n/a	n/a	n/a	n/a
25.3364	1.0167	ITI	n/a	n/a	n/a	n/a	n/a	n/a	n/a	n/a
26.3531	0.5167	FIXCROSS	n/a	n/a	n/a	n/a	n/a	n/a	n/a	n/a
26.8697	0.55	T_INK	9	Neutral	xxxxxxx	xxxxxxx	czerwony	red	hit	n/a
27.3854	n/a	RESPONSE	n/a	n/a	n/a	n/a	n/a	n/a	n/a	red
27.4198	0.5166	FEEDBACK	n/a	n/a	n/a	n/a	n/a	n/a	n/a	n/a
27.9364	1.0167	ITI	n/a	n/a	n/a	n/a	n/a	n/a	n/a	n/a
28.9531	0.5167	FIXCROSS	n/a	n/a	n/a	n/a	n/a	n/a	n/a	n/a
29.4698	0.95	T_INK	10	Incongruent	żółty	yellow	zielony	green	hit	n/a
30.3926	n/a	RESPONSE	n/a	n/a	n/a	n/a	n/a	n/a	n/a	green
30.4198	0.5167	FEEDBACK	n/a	n/a	n/a	n/a	n/a	n/a	n/a	n/a
30.9365	1.0167	ITI	n/a	n/a	n/a	n/a	n/a	n/a	n/a	n/a
31.9531	0.5167	FIXCROSS	n/a	n/a	n/a	n/a	n/a	n/a	n/a	n/a
32.4698	1.1	T_INK	11	Neutral	xxxxxxxx	xxxxxxxx	niebieski	blue	hit	n/a
33.5438	n/a	RESPONSE	n/a	n/a	n/a	n/a	n/a	n/a	n/a	blue
33.5698	0.5167	FEEDBACK	n/a	n/a	n/a	n/a	n/a	n/a	n/a	n/a
34.0865	1.0167	ITI	n/a	n/a	n/a	n/a	n/a	n/a	n/a	n/a
35.1032	0.5167	FIXCROSS	n/a	n/a	n/a	n/a	n/a	n/a	n/a	n/a
35.6199	0.55	T_INK	12	Neutral	xxxxxxxx	xxxxxxxx	żółty	yellow	hit	n/a
36.1353	n/a	RESPONSE	n/a	n/a	n/a	n/a	n/a	n/a	n/a	yellow
36.1699	0.5167	FEEDBACK	n/a	n/a	n/a	n/a	n/a	n/a	n/a	n/a
36.6865	1.0333	ITI	n/a	n/a	n/a	n/a	n/a	n/a	n/a	n/a
53.699	n/a	RESPONSE	n/a	n/a	n/a	n/a	n/a	n/a	n/a	n/a
53.7534	1.0167	ITI	n/a	n/a	n/a	n/a	n/a	n/a	n/a	n/a
54.7701	0.5167	FIXCROSS	n/a	n/a	n/a	n/a	n/a	n/a	n/a	n/a
55.2868	0.9167	INK	1	Incongruent	niebieski	blue	zielony	green	hit	n/a
56.1784	n/a	RESPONSE	n/a	n/a	n/a	n/a	n/a	n/a	n/a	green
56.2035	1.0167	ITI	n/a	n/a	n/a	n/a	n/a	n/a	n/a	n/a
57.2202	0.5167	FIXCROSS	n/a	n/a	n/a	n/a	n/a	n/a	n/a	n/a
57.7368	0.7333	INK	2	Incongruent	żółty	yellow	zielony	green	hit	n/a
58.4499	n/a	RESPONSE	n/a	n/a	n/a	n/a	n/a	n/a	n/a	green
58.4702	1.0167	ITI	n/a	n/a	n/a	n/a	n/a	n/a	n/a	n/a
59.4869	0.5167	FIXCROSS	n/a	n/a	n/a	n/a	n/a	n/a	n/a	n/a
60.0035	0.7167	INK	3	Incongruent	zielony	green	czerwony	red	hit	n/a
60.6894	n/a	RESPONSE	n/a	n/a	n/a	n/a	n/a	n/a	n/a	red
60.7202	1.0167	ITI	n/a	n/a	n/a	n/a	n/a	n/a	n/a	n/a
61.7369	0.5167	FIXCROSS	n/a	n/a	n/a	n/a	n/a	n/a	n/a	n/a
62.2536	0.6	INK	4	Incongruent	niebieski	blue	czerwony	red	hit	n/a
62.8328	n/a	RESPONSE	n/a	n/a	n/a	n/a	n/a	n/a	n/a	red
62.8536	1.0167	ITI	n/a	n/a	n/a	n/a	n/a	n/a	n/a	n/a
63.8702	0.5167	FIXCROSS	n/a	n/a	n/a	n/a	n/a	n/a	n/a	n/a
64.3869	0.8334	INK	5	Neutral	xxxxxxx	xxxxxxx	niebieski	blue	hit	n/a
65.2003	n/a	RESPONSE	n/a	n/a	n/a	n/a	n/a	n/a	n/a	blue
65.2203	1.0167	ITI	n/a	n/a	n/a	n/a	n/a	n/a	n/a	n/a
66.2369	0.5167	FIXCROSS	n/a	n/a	n/a	n/a	n/a	n/a	n/a	n/a
66.7536	0.6333	INK	6	Incongruent	żółty	yellow	czerwony	red	hit	n/a
67.3597	n/a	RESPONSE	n/a	n/a	n/a	n/a	n/a	n/a	n/a	red
67.387	1.0167	ITI	n/a	n/a	n/a	n/a	n/a	n/a	n/a	n/a
68.4036	0.5167	FIXCROSS	n/a	n/a	n/a	n/a	n/a	n/a	n/a	n/a
68.9203	0.6	INK	7	Neutral	xxxxx	xxxxx	zielony	green	hit	n/a
69.4872	n/a	RESPONSE	n/a	n/a	n/a	n/a	n/a	n/a	n/a	green
69.5203	1.0167	ITI	n/a	n/a	n/a	n/a	n/a	n/a	n/a	n/a
70.537	0.5167	FIXCROSS	n/a	n/a	n/a	n/a	n/a	n/a	n/a	n/a
71.0537	0.55	INK	8	Incongruent	zielony	green	czerwony	red	hit	n/a
71.5827	n/a	RESPONSE	n/a	n/a	n/a	n/a	n/a	n/a	n/a	red
71.6037	1.0167	ITI	n/a	n/a	n/a	n/a	n/a	n/a	n/a	n/a
72.6204	0.5167	FIXCROSS	n/a	n/a	n/a	n/a	n/a	n/a	n/a	n/a
73.137	0.5667	INK	9	Neutral	xxxxxxx	xxxxxxx	żółty	yellow	hit	n/a
73.6782	n/a	RESPONSE	n/a	n/a	n/a	n/a	n/a	n/a	n/a	yellow
73.7037	1.0167	ITI	n/a	n/a	n/a	n/a	n/a	n/a	n/a	n/a
74.7204	0.5167	FIXCROSS	n/a	n/a	n/a	n/a	n/a	n/a	n/a	n/a
75.2371	0.55	INK	10	Incongruent	niebieski	blue	żółty	yellow	hit	n/a
75.7577	n/a	RESPONSE	n/a	n/a	n/a	n/a	n/a	n/a	n/a	yellow
75.7871	1.0167	ITI	n/a	n/a	n/a	n/a	n/a	n/a	n/a	n/a
76.8038	0.5167	FIXCROSS	n/a	n/a	n/a	n/a	n/a	n/a	n/a	n/a
77.3204	0.6333	INK	11	Incongruent	czerwony	red	zielony	green	hit	n/a
77.9332	n/a	RESPONSE	n/a	n/a	n/a	n/a	n/a	n/a	n/a	green
77.9538	1.0167	ITI	n/a	n/a	n/a	n/a	n/a	n/a	n/a	n/a
78.9705	0.5167	FIXCROSS	n/a	n/a	n/a	n/a	n/a	n/a	n/a	n/a
79.4871	0.55	INK	12	Neutral	xxxxxxxxx	xxxxxxxxx	żółty	yellow	hit	n/a
80.0127	n/a	RESPONSE	n/a	n/a	n/a	n/a	n/a	n/a	n/a	yellow
80.0371	1.0167	ITI	n/a	n/a	n/a	n/a	n/a	n/a	n/a	n/a
81.0538	0.5167	FIXCROSS	n/a	n/a	n/a	n/a	n/a	n/a	n/a	n/a
81.5705	0.55	INK	13	Neutral	xxxxxxx	xxxxxxx	żółty	yellow	hit	n/a
82.0922	n/a	RESPONSE	n/a	n/a	n/a	n/a	n/a	n/a	n/a	yellow
82.1205	1.0167	ITI	n/a	n/a	n/a	n/a	n/a	n/a	n/a	n/a
83.1372	0.5167	FIXCROSS	n/a	n/a	n/a	n/a	n/a	n/a	n/a	n/a
83.6539	0.8167	INK	14	Neutral	xxxxxxxxx	xxxxxxxxx	zielony	green	hit	n/a
84.4436	n/a	RESPONSE	n/a	n/a	n/a	n/a	n/a	n/a	n/a	green
84.4705	1.0167	ITI	n/a	n/a	n/a	n/a	n/a	n/a	n/a	n/a
85.4872	0.5167	FIXCROSS	n/a	n/a	n/a	n/a	n/a	n/a	n/a	n/a
86.0039	0.7667	INK	15	Incongruent	zielony	green	niebieski	blue	hit	n/a
86.7471	n/a	RESPONSE	n/a	n/a	n/a	n/a	n/a	n/a	n/a	blue
86.7706	1.0167	ITI	n/a	n/a	n/a	n/a	n/a	n/a	n/a	n/a
87.7872	0.5167	FIXCROSS	n/a	n/a	n/a	n/a	n/a	n/a	n/a	n/a
88.3039	0.5833	INK	16	Neutral	xxxxxxxx	xxxxxxxx	żółty	yellow	hit	n/a
88.8586	n/a	RESPONSE	n/a	n/a	n/a	n/a	n/a	n/a	n/a	yellow
88.8873	1.0167	ITI	n/a	n/a	n/a	n/a	n/a	n/a	n/a	n/a
89.9039	0.5167	FIXCROSS	n/a	n/a	n/a	n/a	n/a	n/a	n/a	n/a
90.4206	0.9	INK	17	Incongruent	zielony	green	niebieski	blue	hit	n/a
91.29	n/a	RESPONSE	n/a	n/a	n/a	n/a	n/a	n/a	n/a	blue
91.3206	1.0167	ITI	n/a	n/a	n/a	n/a	n/a	n/a	n/a	n/a
92.3373	0.5167	FIXCROSS	n/a	n/a	n/a	n/a	n/a	n/a	n/a	n/a
92.854	0.5667	INK	18	Incongruent	niebieski	blue	czerwony	red	hit	n/a
93.4015	n/a	RESPONSE	n/a	n/a	n/a	n/a	n/a	n/a	n/a	red
93.4207	1.0167	ITI	n/a	n/a	n/a	n/a	n/a	n/a	n/a	n/a
94.4373	0.5167	FIXCROSS	n/a	n/a	n/a	n/a	n/a	n/a	n/a	n/a
94.954	0.7667	INK	19	Incongruent	zielony	green	niebieski	blue	hit	n/a
95.6889	n/a	RESPONSE	n/a	n/a	n/a	n/a	n/a	n/a	n/a	blue
95.7207	1.0167	ITI	n/a	n/a	n/a	n/a	n/a	n/a	n/a	n/a
96.7374	0.5167	FIXCROSS	n/a	n/a	n/a	n/a	n/a	n/a	n/a	n/a
97.254	0.5833	INK	20	Neutral	xxxxxxxxx	xxxxxxxxx	czerwony	red	hit	n/a
97.8164	n/a	RESPONSE	n/a	n/a	n/a	n/a	n/a	n/a	n/a	red
97.8374	1.0167	ITI	n/a	n/a	n/a	n/a	n/a	n/a	n/a	n/a
98.8541	0.5167	FIXCROSS	n/a	n/a	n/a	n/a	n/a	n/a	n/a	n/a
99.3707	0.7333	INK	21	Incongruent	czerwony	red	niebieski	blue	hit	n/a
100.0718	n/a	RESPONSE	n/a	n/a	n/a	n/a	n/a	n/a	n/a	blue
100.1041	1.0167	ITI	n/a	n/a	n/a	n/a	n/a	n/a	n/a	n/a
101.1207	0.5167	FIXCROSS	n/a	n/a	n/a	n/a	n/a	n/a	n/a	n/a
101.6374	0.7834	INK	22	Neutral	xxxxxxxx	xxxxxxxx	niebieski	blue	hit	n/a
102.3913	n/a	RESPONSE	n/a	n/a	n/a	n/a	n/a	n/a	n/a	blue
102.4208	1.0167	ITI	n/a	n/a	n/a	n/a	n/a	n/a	n/a	n/a
103.4374	0.5167	FIXCROSS	n/a	n/a	n/a	n/a	n/a	n/a	n/a	n/a
103.9541	0.7	INK	23	Incongruent	żółty	yellow	zielony	green	hit	n/a
104.6307	n/a	RESPONSE	n/a	n/a	n/a	n/a	n/a	n/a	n/a	green
104.6541	1.0167	ITI	n/a	n/a	n/a	n/a	n/a	n/a	n/a	n/a
105.6708	0.5167	FIXCROSS	n/a	n/a	n/a	n/a	n/a	n/a	n/a	n/a
106.1875	0.55	INK	24	Incongruent	czerwony	red	zielony	green	hit	n/a
106.7103	n/a	RESPONSE	n/a	n/a	n/a	n/a	n/a	n/a	n/a	green
106.7375	1.0167	ITI	n/a	n/a	n/a	n/a	n/a	n/a	n/a	n/a
107.7542	0.5167	FIXCROSS	n/a	n/a	n/a	n/a	n/a	n/a	n/a	n/a
108.2709	0.5333	INK	25	Incongruent	niebieski	blue	żółty	yellow	hit	n/a
108.7738	n/a	RESPONSE	n/a	n/a	n/a	n/a	n/a	n/a	n/a	yellow
108.8042	1.0167	ITI	n/a	n/a	n/a	n/a	n/a	n/a	n/a	n/a
109.8209	0.5167	FIXCROSS	n/a	n/a	n/a	n/a	n/a	n/a	n/a	n/a
110.3375	0.6	INK	26	Neutral	xxxxx	xxxxx	czerwony	red	hit	n/a
110.9172	n/a	RESPONSE	n/a	n/a	n/a	n/a	n/a	n/a	n/a	red
110.9376	1.0167	ITI	n/a	n/a	n/a	n/a	n/a	n/a	n/a	n/a
111.9542	0.5167	FIXCROSS	n/a	n/a	n/a	n/a	n/a	n/a	n/a	n/a
112.4709	0.5833	INK	27	Neutral	xxxxxxxxx	xxxxxxxxx	żółty	yellow	hit	n/a
113.0287	n/a	RESPONSE	n/a	n/a	n/a	n/a	n/a	n/a	n/a	yellow
113.0542	1.0167	ITI	n/a	n/a	n/a	n/a	n/a	n/a	n/a	n/a
114.0709	0.5167	FIXCROSS	n/a	n/a	n/a	n/a	n/a	n/a	n/a	n/a
114.5876	0.7667	INK	28	Incongruent	czerwony	red	żółty	yellow	hit	n/a
115.3322	n/a	RESPONSE	n/a	n/a	n/a	n/a	n/a	n/a	n/a	yellow
115.3543	1.0167	ITI	n/a	n/a	n/a	n/a	n/a	n/a	n/a	n/a
116.371	0.5167	FIXCROSS	n/a	n/a	n/a	n/a	n/a	n/a	n/a	n/a
116.8876	0.5333	INK	29	Neutral	xxxxxxx	xxxxxxx	czerwony	red	hit	n/a
117.3957	n/a	RESPONSE	n/a	n/a	n/a	n/a	n/a	n/a	n/a	red
117.421	1.0167	ITI	n/a	n/a	n/a	n/a	n/a	n/a	n/a	n/a
118.4377	0.5167	FIXCROSS	n/a	n/a	n/a	n/a	n/a	n/a	n/a	n/a
118.9543	0.7333	INK	30	Neutral	xxxxxxxxx	xxxxxxxxx	zielony	green	hit	n/a
119.6671	n/a	RESPONSE	n/a	n/a	n/a	n/a	n/a	n/a	n/a	green
119.6877	1.0167	ITI	n/a	n/a	n/a	n/a	n/a	n/a	n/a	n/a
120.7043	0.5167	FIXCROSS	n/a	n/a	n/a	n/a	n/a	n/a	n/a	n/a
121.221	0.6167	INK	31	Incongruent	żółty	yellow	czerwony	red	hit	n/a
121.8106	n/a	RESPONSE	n/a	n/a	n/a	n/a	n/a	n/a	n/a	red
121.8377	1.0167	ITI	n/a	n/a	n/a	n/a	n/a	n/a	n/a	n/a
122.8544	0.5167	FIXCROSS	n/a	n/a	n/a	n/a	n/a	n/a	n/a	n/a
123.371	0.7334	INK	32	Incongruent	czerwony	red	niebieski	blue	hit	n/a
124.0821	n/a	RESPONSE	n/a	n/a	n/a	n/a	n/a	n/a	n/a	blue
124.1044	1.0167	ITI	n/a	n/a	n/a	n/a	n/a	n/a	n/a	n/a
125.1211	0.5167	FIXCROSS	n/a	n/a	n/a	n/a	n/a	n/a	n/a	n/a
125.6378	0.6833	INK	33	Neutral	xxxxxxxxx	xxxxxxxxx	czerwony	red	hit	n/a
126.2895	n/a	RESPONSE	n/a	n/a	n/a	n/a	n/a	n/a	n/a	red
126.3211	1.0167	ITI	n/a	n/a	n/a	n/a	n/a	n/a	n/a	n/a
127.3378	0.5167	FIXCROSS	n/a	n/a	n/a	n/a	n/a	n/a	n/a	n/a
127.8544	0.5	INK	34	Incongruent	niebieski	blue	żółty	yellow	hit	n/a
128.3371	n/a	RESPONSE	n/a	n/a	n/a	n/a	n/a	n/a	n/a	yellow
128.3545	1.0167	ITI	n/a	n/a	n/a	n/a	n/a	n/a	n/a	n/a
129.3711	0.5167	FIXCROSS	n/a	n/a	n/a	n/a	n/a	n/a	n/a	n/a
129.8878	0.7667	INK	35	Incongruent	żółty	yellow	niebieski	blue	hit	n/a
130.6245	n/a	RESPONSE	n/a	n/a	n/a	n/a	n/a	n/a	n/a	blue
130.6545	1.0167	ITI	n/a	n/a	n/a	n/a	n/a	n/a	n/a	n/a
131.6712	0.5167	FIXCROSS	n/a	n/a	n/a	n/a	n/a	n/a	n/a	n/a
132.1878	0.55	INK	36	Neutral	xxxxxxxx	xxxxxxxx	żółty	yellow	hit	n/a
132.704	n/a	RESPONSE	n/a	n/a	n/a	n/a	n/a	n/a	n/a	yellow
132.7378	1.0167	ITI	n/a	n/a	n/a	n/a	n/a	n/a	n/a	n/a
133.7545	0.5167	FIXCROSS	n/a	n/a	n/a	n/a	n/a	n/a	n/a	n/a
134.2712	0.6667	INK	37	Neutral	xxxxxxxx	xxxxxxxx	zielony	green	hit	n/a
134.9115	n/a	RESPONSE	n/a	n/a	n/a	n/a	n/a	n/a	n/a	green
134.9379	1.0167	ITI	n/a	n/a	n/a	n/a	n/a	n/a	n/a	n/a
135.9546	0.5167	FIXCROSS	n/a	n/a	n/a	n/a	n/a	n/a	n/a	n/a
136.4712	0.8333	INK	38	Neutral	xxxxxxxx	xxxxxxxx	niebieski	blue	hit	n/a
137.2789	n/a	RESPONSE	n/a	n/a	n/a	n/a	n/a	n/a	n/a	blue
137.3046	1.0167	ITI	n/a	n/a	n/a	n/a	n/a	n/a	n/a	n/a
138.3213	0.5167	FIXCROSS	n/a	n/a	n/a	n/a	n/a	n/a	n/a	n/a
138.8379	0.7333	INK	39	Neutral	xxxxx	xxxxx	zielony	green	hit	n/a
139.5503	n/a	RESPONSE	n/a	n/a	n/a	n/a	n/a	n/a	n/a	green
139.5713	1.0167	ITI	n/a	n/a	n/a	n/a	n/a	n/a	n/a	n/a
140.588	0.5167	FIXCROSS	n/a	n/a	n/a	n/a	n/a	n/a	n/a	n/a
141.1046	0.7834	INK	40	Neutral	xxxxx	xxxxx	niebieski	blue	hit	n/a
141.8698	n/a	RESPONSE	n/a	n/a	n/a	n/a	n/a	n/a	n/a	blue
141.888	1.0167	ITI	n/a	n/a	n/a	n/a	n/a	n/a	n/a	n/a
142.9046	0.5167	FIXCROSS	n/a	n/a	n/a	n/a	n/a	n/a	n/a	n/a
143.4213	0.5667	INK	41	Incongruent	niebieski	blue	czerwony	red	hit	n/a
143.9653	n/a	RESPONSE	n/a	n/a	n/a	n/a	n/a	n/a	n/a	red
143.988	1.0167	ITI	n/a	n/a	n/a	n/a	n/a	n/a	n/a	n/a
145.0047	0.5167	FIXCROSS	n/a	n/a	n/a	n/a	n/a	n/a	n/a	n/a
145.5213	0.7167	INK	42	Neutral	xxxxxxxxx	xxxxxxxxx	zielony	green	hit	n/a
146.2208	n/a	RESPONSE	n/a	n/a	n/a	n/a	n/a	n/a	n/a	green
146.238	1.0167	ITI	n/a	n/a	n/a	n/a	n/a	n/a	n/a	n/a
147.2547	0.5167	FIXCROSS	n/a	n/a	n/a	n/a	n/a	n/a	n/a	n/a
147.7714	0.7833	INK	43	Neutral	xxxxxxx	xxxxxxx	czerwony	red	hit	n/a
148.5242	n/a	RESPONSE	n/a	n/a	n/a	n/a	n/a	n/a	n/a	red
148.5547	1.0166	ITI	n/a	n/a	n/a	n/a	n/a	n/a	n/a	n/a
149.5713	0.5167	FIXCROSS	n/a	n/a	n/a	n/a	n/a	n/a	n/a	n/a
150.0881	0.5	INK	44	Neutral	xxxxxxx	xxxxxxx	czerwony	red	hit	n/a
150.5557	n/a	RESPONSE	n/a	n/a	n/a	n/a	n/a	n/a	n/a	red
150.5881	1.0167	ITI	n/a	n/a	n/a	n/a	n/a	n/a	n/a	n/a
151.6048	0.5167	FIXCROSS	n/a	n/a	n/a	n/a	n/a	n/a	n/a	n/a
152.1214	0.6833	INK	45	Incongruent	żółty	yellow	niebieski	blue	hit	n/a
152.7792	n/a	RESPONSE	n/a	n/a	n/a	n/a	n/a	n/a	n/a	blue
152.8048	1.0167	ITI	n/a	n/a	n/a	n/a	n/a	n/a	n/a	n/a
153.8215	0.5167	FIXCROSS	n/a	n/a	n/a	n/a	n/a	n/a	n/a	n/a
154.3381	0.5333	INK	46	Incongruent	zielony	green	żółty	yellow	hit	n/a
154.8427	n/a	RESPONSE	n/a	n/a	n/a	n/a	n/a	n/a	n/a	yellow
154.8715	1.0167	ITI	n/a	n/a	n/a	n/a	n/a	n/a	n/a	n/a
155.8882	0.5167	FIXCROSS	n/a	n/a	n/a	n/a	n/a	n/a	n/a	n/a
156.4048	0.6834	INK	47	Incongruent	żółty	yellow	zielony	green	hit	n/a
157.0661	n/a	RESPONSE	n/a	n/a	n/a	n/a	n/a	n/a	n/a	green
157.0882	1.0167	ITI	n/a	n/a	n/a	n/a	n/a	n/a	n/a	n/a
158.1049	0.5167	FIXCROSS	n/a	n/a	n/a	n/a	n/a	n/a	n/a	n/a
158.6215	0.6833	INK	48	Incongruent	czerwony	red	zielony	green	hit	n/a
159.2736	n/a	RESPONSE	n/a	n/a	n/a	n/a	n/a	n/a	n/a	green
159.3049	1.0167	ITI	n/a	n/a	n/a	n/a	n/a	n/a	n/a	n/a
160.3215	0.5167	FIXCROSS	n/a	n/a	n/a	n/a	n/a	n/a	n/a	n/a
160.8382	0.9667	INK	49	Incongruent	czerwony	red	niebieski	blue	hit	n/a
161.785	n/a	RESPONSE	n/a	n/a	n/a	n/a	n/a	n/a	n/a	blue
161.8049	1.0167	ITI	n/a	n/a	n/a	n/a	n/a	n/a	n/a	n/a
162.8216	0.5167	FIXCROSS	n/a	n/a	n/a	n/a	n/a	n/a	n/a	n/a
163.3383	0.8333	INK	50	Neutral	xxxxxxx	xxxxxxx	niebieski	blue	hit	n/a
164.1524	n/a	RESPONSE	n/a	n/a	n/a	n/a	n/a	n/a	n/a	blue
164.1716	1.0167	ITI	n/a	n/a	n/a	n/a	n/a	n/a	n/a	n/a
165.1883	0.5167	FIXCROSS	n/a	n/a	n/a	n/a	n/a	n/a	n/a	n/a
165.705	0.7667	INK	51	Neutral	xxxxx	xxxxx	zielony	green	hit	n/a
166.4399	n/a	RESPONSE	n/a	n/a	n/a	n/a	n/a	n/a	n/a	green
166.4716	1.0167	ITI	n/a	n/a	n/a	n/a	n/a	n/a	n/a	n/a
167.4883	0.5167	FIXCROSS	n/a	n/a	n/a	n/a	n/a	n/a	n/a	n/a
168.005	0.7833	INK	52	Neutral	xxxxxxx	xxxxxxx	niebieski	blue	hit	n/a
168.7593	n/a	RESPONSE	n/a	n/a	n/a	n/a	n/a	n/a	n/a	blue
168.7883	1.0167	ITI	n/a	n/a	n/a	n/a	n/a	n/a	n/a	n/a
169.805	0.5167	FIXCROSS	n/a	n/a	n/a	n/a	n/a	n/a	n/a	n/a
170.3217	0.4833	INK	53	Incongruent	zielony	green	czerwony	red	hit	n/a
170.7748	n/a	RESPONSE	n/a	n/a	n/a	n/a	n/a	n/a	n/a	red
170.805	1.0167	ITI	n/a	n/a	n/a	n/a	n/a	n/a	n/a	n/a
170.8708	n/a	RESPONSE	n/a	n/a	n/a	n/a	n/a	n/a	n/a	red
171.8217	0.5167	FIXCROSS	n/a	n/a	n/a	n/a	n/a	n/a	n/a	n/a
172.3384	0.6	INK	54	Incongruent	żółty	yellow	czerwony	red	hit	n/a
172.9183	n/a	RESPONSE	n/a	n/a	n/a	n/a	n/a	n/a	n/a	red
172.9384	1.0167	ITI	n/a	n/a	n/a	n/a	n/a	n/a	n/a	n/a
173.9551	0.5167	FIXCROSS	n/a	n/a	n/a	n/a	n/a	n/a	n/a	n/a
174.4717	0.6833	INK	55	Incongruent	żółty	yellow	niebieski	blue	hit	n/a
175.1258	n/a	RESPONSE	n/a	n/a	n/a	n/a	n/a	n/a	n/a	blue
175.1551	1.0167	ITI	n/a	n/a	n/a	n/a	n/a	n/a	n/a	n/a
176.1718	0.5167	FIXCROSS	n/a	n/a	n/a	n/a	n/a	n/a	n/a	n/a
176.6884	0.8667	INK	56	Incongruent	czerwony	red	żółty	yellow	hit	n/a
177.5252	n/a	RESPONSE	n/a	n/a	n/a	n/a	n/a	n/a	n/a	yellow
177.5551	1.0167	ITI	n/a	n/a	n/a	n/a	n/a	n/a	n/a	n/a
178.5718	0.5167	FIXCROSS	n/a	n/a	n/a	n/a	n/a	n/a	n/a	n/a
179.0885	0.5667	INK	57	Incongruent	zielony	green	żółty	yellow	hit	n/a
179.6367	n/a	RESPONSE	n/a	n/a	n/a	n/a	n/a	n/a	n/a	yellow
179.6551	1.0167	ITI	n/a	n/a	n/a	n/a	n/a	n/a	n/a	n/a
180.6718	0.5167	FIXCROSS	n/a	n/a	n/a	n/a	n/a	n/a	n/a	n/a
181.1885	0.5	INK	58	Neutral	xxxxxxx	xxxxxxx	żółty	yellow	hit	n/a
181.6682	n/a	RESPONSE	n/a	n/a	n/a	n/a	n/a	n/a	n/a	yellow
181.6885	1.0167	ITI	n/a	n/a	n/a	n/a	n/a	n/a	n/a	n/a
182.7052	0.5167	FIXCROSS	n/a	n/a	n/a	n/a	n/a	n/a	n/a	n/a
183.2219	0.6167	INK	59	Neutral	xxxxxxxxx	xxxxxxxxx	czerwony	red	hit	n/a
183.8117	n/a	RESPONSE	n/a	n/a	n/a	n/a	n/a	n/a	n/a	red
183.8385	1.0167	ITI	n/a	n/a	n/a	n/a	n/a	n/a	n/a	n/a
184.8552	0.5167	FIXCROSS	n/a	n/a	n/a	n/a	n/a	n/a	n/a	n/a
185.3719	0.6833	INK	60	Incongruent	zielony	green	żółty	yellow	hit	n/a
186.0351	n/a	RESPONSE	n/a	n/a	n/a	n/a	n/a	n/a	n/a	yellow
186.0552	1.0167	ITI	n/a	n/a	n/a	n/a	n/a	n/a	n/a	n/a
187.0719	0.5167	FIXCROSS	n/a	n/a	n/a	n/a	n/a	n/a	n/a	n/a
187.5886	0.7333	INK	61	Neutral	xxxxxxxx	xxxxxxxx	zielony	green	hit	n/a
188.2906	n/a	RESPONSE	n/a	n/a	n/a	n/a	n/a	n/a	n/a	green
188.3219	1.0167	ITI	n/a	n/a	n/a	n/a	n/a	n/a	n/a	n/a
189.3386	0.5167	FIXCROSS	n/a	n/a	n/a	n/a	n/a	n/a	n/a	n/a
189.8553	0.9	INK	62	Neutral	xxxxx	xxxxx	niebieski	blue	hit	n/a
190.722	n/a	RESPONSE	n/a	n/a	n/a	n/a	n/a	n/a	n/a	blue
190.7553	1.0167	ITI	n/a	n/a	n/a	n/a	n/a	n/a	n/a	n/a
191.772	0.5167	FIXCROSS	n/a	n/a	n/a	n/a	n/a	n/a	n/a	n/a
192.2886	0.7667	INK	63	Neutral	xxxxx	xxxxx	czerwony	red	hit	n/a
193.0255	n/a	RESPONSE	n/a	n/a	n/a	n/a	n/a	n/a	n/a	red
193.0553	1.0167	ITI	n/a	n/a	n/a	n/a	n/a	n/a	n/a	n/a
194.072	0.5167	FIXCROSS	n/a	n/a	n/a	n/a	n/a	n/a	n/a	n/a
194.5887	0.7833	INK	64	Neutral	xxxxxxxx	xxxxxxxx	niebieski	blue	hit	n/a
195.3449	n/a	RESPONSE	n/a	n/a	n/a	n/a	n/a	n/a	n/a	blue
195.372	1.0167	ITI	n/a	n/a	n/a	n/a	n/a	n/a	n/a	n/a
196.3887	0.5167	FIXCROSS	n/a	n/a	n/a	n/a	n/a	n/a	n/a	n/a
196.9054	0.75	INK	65	Incongruent	czerwony	red	żółty	yellow	hit	n/a
197.6324	n/a	RESPONSE	n/a	n/a	n/a	n/a	n/a	n/a	n/a	yellow
197.6554	1.0167	ITI	n/a	n/a	n/a	n/a	n/a	n/a	n/a	n/a
198.6721	0.5167	FIXCROSS	n/a	n/a	n/a	n/a	n/a	n/a	n/a	n/a
199.1887	0.5333	INK	66	Neutral	xxxxxxxx	xxxxxxxx	żółty	yellow	hit	n/a
199.6959	n/a	RESPONSE	n/a	n/a	n/a	n/a	n/a	n/a	n/a	yellow
199.7221	1.0167	ITI	n/a	n/a	n/a	n/a	n/a	n/a	n/a	n/a
200.7388	0.5167	FIXCROSS	n/a	n/a	n/a	n/a	n/a	n/a	n/a	n/a
201.2554	0.5	INK	67	Neutral	xxxxxxxxx	xxxxxxxxx	żółty	yellow	hit	n/a
201.7274	n/a	RESPONSE	n/a	n/a	n/a	n/a	n/a	n/a	n/a	yellow
201.7554	1.0167	ITI	n/a	n/a	n/a	n/a	n/a	n/a	n/a	n/a
202.7721	0.5167	FIXCROSS	n/a	n/a	n/a	n/a	n/a	n/a	n/a	n/a
203.2888	0.8667	INK	68	Neutral	xxxxxxxx	xxxxxxxx	zielony	green	hit	n/a
204.1268	n/a	RESPONSE	n/a	n/a	n/a	n/a	n/a	n/a	n/a	green
204.1555	1.0167	ITI	n/a	n/a	n/a	n/a	n/a	n/a	n/a	n/a
205.1722	0.5167	FIXCROSS	n/a	n/a	n/a	n/a	n/a	n/a	n/a	n/a
205.6888	1.35	INK	69	Neutral	xxxxx	xxxxx	niebieski	blue	hit	n/a
207.0061	n/a	RESPONSE	n/a	n/a	n/a	n/a	n/a	n/a	n/a	blue
207.0388	1.0167	ITI	n/a	n/a	n/a	n/a	n/a	n/a	n/a	n/a
208.0555	0.5167	FIXCROSS	n/a	n/a	n/a	n/a	n/a	n/a	n/a	n/a
208.5722	1.2167	INK	70	Incongruent	niebieski	blue	zielony	green	hit	n/a
209.7574	n/a	RESPONSE	n/a	n/a	n/a	n/a	n/a	n/a	n/a	green
209.7889	1.0167	ITI	n/a	n/a	n/a	n/a	n/a	n/a	n/a	n/a
210.8056	0.5167	FIXCROSS	n/a	n/a	n/a	n/a	n/a	n/a	n/a	n/a
211.3222	0.8	INK	71	Incongruent	niebieski	blue	zielony	green	hit	n/a
212.0929	n/a	RESPONSE	n/a	n/a	n/a	n/a	n/a	n/a	n/a	green
212.1222	1.0167	ITI	n/a	n/a	n/a	n/a	n/a	n/a	n/a	n/a
213.1389	0.5167	FIXCROSS	n/a	n/a	n/a	n/a	n/a	n/a	n/a	n/a
213.6556	0.6333	INK	72	Neutral	xxxxx	xxxxx	czerwony	red	hit	n/a
214.2684	n/a	RESPONSE	n/a	n/a	n/a	n/a	n/a	n/a	n/a	red
214.2889	1.0834	ITI	n/a	n/a	n/a	n/a	n/a	n/a	n/a	n/a
263.3285	n/a	RESPONSE	n/a	n/a	n/a	n/a	n/a	n/a	n/a	n/a
263.3896	1.0167	ITI	n/a	n/a	n/a	n/a	n/a	n/a	n/a	n/a
264.4063	0.5167	FIXCROSS	n/a	n/a	n/a	n/a	n/a	n/a	n/a	n/a
264.9229	1.45	T_COLOR_NAME	1	Neutral	zielony	green	Neutral	Neutral	hit	n/a
266.3358	n/a	RESPONSE	n/a	n/a	n/a	n/a	n/a	n/a	n/a	green
266.373	0.5167	FEEDBACK	n/a	n/a	n/a	n/a	n/a	n/a	n/a	n/a
266.8896	1.0167	ITI	n/a	n/a	n/a	n/a	n/a	n/a	n/a	n/a
267.9063	0.5167	FIXCROSS	n/a	n/a	n/a	n/a	n/a	n/a	n/a	n/a
268.423	1.1167	T_COLOR_NAME	2	Incongruent	niebieski	blue	żółty	yellow	hit	n/a
269.503	n/a	RESPONSE	n/a	n/a	n/a	n/a	n/a	n/a	n/a	blue
269.5397	0.5167	FEEDBACK	n/a	n/a	n/a	n/a	n/a	n/a	n/a	n/a
270.0563	1.0167	ITI	n/a	n/a	n/a	n/a	n/a	n/a	n/a	n/a
271.073	0.5167	FIXCROSS	n/a	n/a	n/a	n/a	n/a	n/a	n/a	n/a
271.5897	0.8167	T_COLOR_NAME	3	Neutral	czerwony	red	Neutral	Neutral	hit	n/a
272.3824	n/a	RESPONSE	n/a	n/a	n/a	n/a	n/a	n/a	n/a	red
272.4064	0.5167	FEEDBACK	n/a	n/a	n/a	n/a	n/a	n/a	n/a	n/a
272.9231	1.0167	ITI	n/a	n/a	n/a	n/a	n/a	n/a	n/a	n/a
273.9397	0.5167	FIXCROSS	n/a	n/a	n/a	n/a	n/a	n/a	n/a	n/a
274.4564	1.0667	T_COLOR_NAME	4	Incongruent	czerwony	red	niebieski	blue	hit	n/a
275.5015	n/a	RESPONSE	n/a	n/a	n/a	n/a	n/a	n/a	n/a	red
275.5231	0.5167	FEEDBACK	n/a	n/a	n/a	n/a	n/a	n/a	n/a	n/a
276.0398	1.0167	ITI	n/a	n/a	n/a	n/a	n/a	n/a	n/a	n/a
277.0564	0.5167	FIXCROSS	n/a	n/a	n/a	n/a	n/a	n/a	n/a	n/a
277.5731	0.85	T_COLOR_NAME	5	Incongruent	niebieski	blue	czerwony	red	hit	n/a
278.3969	n/a	RESPONSE	n/a	n/a	n/a	n/a	n/a	n/a	n/a	blue
278.4231	0.5167	FEEDBACK	n/a	n/a	n/a	n/a	n/a	n/a	n/a	n/a
278.9398	1.0167	ITI	n/a	n/a	n/a	n/a	n/a	n/a	n/a	n/a
279.9565	0.5167	FIXCROSS	n/a	n/a	n/a	n/a	n/a	n/a	n/a	n/a
280.4732	0.8167	T_COLOR_NAME	6	Neutral	niebieski	blue	Neutral	Neutral	hit	n/a
281.2602	n/a	RESPONSE	n/a	n/a	n/a	n/a	n/a	n/a	n/a	blue
281.2898	0.5167	FEEDBACK	n/a	n/a	n/a	n/a	n/a	n/a	n/a	n/a
281.8065	1.0167	ITI	n/a	n/a	n/a	n/a	n/a	n/a	n/a	n/a
282.8232	0.5167	FIXCROSS	n/a	n/a	n/a	n/a	n/a	n/a	n/a	n/a
283.3399	0.7333	T_COLOR_NAME	7	Neutral	czerwony	red	Neutral	Neutral	hit	n/a
284.0435	n/a	RESPONSE	n/a	n/a	n/a	n/a	n/a	n/a	n/a	red
284.0732	0.5167	FEEDBACK	n/a	n/a	n/a	n/a	n/a	n/a	n/a	n/a
284.5899	1.0167	ITI	n/a	n/a	n/a	n/a	n/a	n/a	n/a	n/a
285.6066	0.5167	FIXCROSS	n/a	n/a	n/a	n/a	n/a	n/a	n/a	n/a
286.1232	0.6333	T_COLOR_NAME	8	Neutral	czerwony	red	Neutral	Neutral	hit	n/a
286.7309	n/a	RESPONSE	n/a	n/a	n/a	n/a	n/a	n/a	n/a	red
286.7566	0.5167	FEEDBACK	n/a	n/a	n/a	n/a	n/a	n/a	n/a	n/a
287.2732	1.0167	ITI	n/a	n/a	n/a	n/a	n/a	n/a	n/a	n/a
288.2899	0.5167	FIXCROSS	n/a	n/a	n/a	n/a	n/a	n/a	n/a	n/a
288.8066	0.6333	T_COLOR_NAME	9	Incongruent	czerwony	red	żółty	yellow	hit	n/a
289.4182	n/a	RESPONSE	n/a	n/a	n/a	n/a	n/a	n/a	n/a	red
289.4399	0.5167	FEEDBACK	n/a	n/a	n/a	n/a	n/a	n/a	n/a	n/a
289.9566	1.0167	ITI	n/a	n/a	n/a	n/a	n/a	n/a	n/a	n/a
290.9733	0.5167	FIXCROSS	n/a	n/a	n/a	n/a	n/a	n/a	n/a	n/a
291.49	0.65	T_COLOR_NAME	10	Neutral	żółty	yellow	Neutral	Neutral	hit	n/a
292.1056	n/a	RESPONSE	n/a	n/a	n/a	n/a	n/a	n/a	n/a	yellow
292.14	0.5167	FEEDBACK	n/a	n/a	n/a	n/a	n/a	n/a	n/a	n/a
292.6566	1.0167	ITI	n/a	n/a	n/a	n/a	n/a	n/a	n/a	n/a
293.6733	0.5167	FIXCROSS	n/a	n/a	n/a	n/a	n/a	n/a	n/a	n/a
294.19	0.6333	T_COLOR_NAME	11	Incongruent	żółty	yellow	zielony	green	hit	n/a
294.7929	n/a	RESPONSE	n/a	n/a	n/a	n/a	n/a	n/a	n/a	yellow
294.8233	0.5167	FEEDBACK	n/a	n/a	n/a	n/a	n/a	n/a	n/a	n/a
295.34	1.0167	ITI	n/a	n/a	n/a	n/a	n/a	n/a	n/a	n/a
296.3567	0.5167	FIXCROSS	n/a	n/a	n/a	n/a	n/a	n/a	n/a	n/a
296.8734	0.9333	T_COLOR_NAME	12	Incongruent	zielony	green	czerwony	red	hit	n/a
297.7842	n/a	RESPONSE	n/a	n/a	n/a	n/a	n/a	n/a	n/a	green
297.8067	0.5167	FEEDBACK	n/a	n/a	n/a	n/a	n/a	n/a	n/a	n/a
298.3234	1.0333	ITI	n/a	n/a	n/a	n/a	n/a	n/a	n/a	n/a
301.1594	n/a	RESPONSE	n/a	n/a	n/a	n/a	n/a	n/a	n/a	n/a
301.2234	1.0167	ITI	n/a	n/a	n/a	n/a	n/a	n/a	n/a	n/a
302.2401	0.5167	FIXCROSS	n/a	n/a	n/a	n/a	n/a	n/a	n/a	n/a
302.7568	0.9834	COLOR_NAME	1	Neutral	zielony	green	Neutral	Neutral	hit	n/a
303.7188	n/a	RESPONSE	n/a	n/a	n/a	n/a	n/a	n/a	n/a	green
303.7401	1.0167	ITI	n/a	n/a	n/a	n/a	n/a	n/a	n/a	n/a
304.7568	0.5167	FIXCROSS	n/a	n/a	n/a	n/a	n/a	n/a	n/a	n/a
305.2735	0.6333	COLOR_NAME	2	Neutral	czerwony	red	Neutral	Neutral	hit	n/a
305.8783	n/a	RESPONSE	n/a	n/a	n/a	n/a	n/a	n/a	n/a	red
305.9068	1.0167	ITI	n/a	n/a	n/a	n/a	n/a	n/a	n/a	n/a
306.9235	0.5167	FIXCROSS	n/a	n/a	n/a	n/a	n/a	n/a	n/a	n/a
307.4402	0.9834	COLOR_NAME	3	Incongruent	zielony	green	niebieski	blue	hit	n/a
308.3897	n/a	RESPONSE	n/a	n/a	n/a	n/a	n/a	n/a	n/a	green
308.4235	1.0167	ITI	n/a	n/a	n/a	n/a	n/a	n/a	n/a	n/a
309.4402	0.5167	FIXCROSS	n/a	n/a	n/a	n/a	n/a	n/a	n/a	n/a
309.9569	0.9833	COLOR_NAME	4	Incongruent	niebieski	blue	czerwony	red	hit	n/a
310.9171	n/a	RESPONSE	n/a	n/a	n/a	n/a	n/a	n/a	n/a	blue
310.9402	1.0167	ITI	n/a	n/a	n/a	n/a	n/a	n/a	n/a	n/a
311.9569	0.5167	FIXCROSS	n/a	n/a	n/a	n/a	n/a	n/a	n/a	n/a
312.4736	1.0834	COLOR_NAME	5	Incongruent	zielony	green	żółty	yellow	hit	n/a
313.5244	n/a	RESPONSE	n/a	n/a	n/a	n/a	n/a	n/a	n/a	green
313.5569	1.0167	ITI	n/a	n/a	n/a	n/a	n/a	n/a	n/a	n/a
314.5736	0.5167	FIXCROSS	n/a	n/a	n/a	n/a	n/a	n/a	n/a	n/a
315.0903	0.8	COLOR_NAME	6	Neutral	niebieski	blue	Neutral	Neutral	hit	n/a
315.8599	n/a	RESPONSE	n/a	n/a	n/a	n/a	n/a	n/a	n/a	blue
315.8903	1.0167	ITI	n/a	n/a	n/a	n/a	n/a	n/a	n/a	n/a
316.907	0.5167	FIXCROSS	n/a	n/a	n/a	n/a	n/a	n/a	n/a	n/a
317.4236	0.6667	COLOR_NAME	7	Incongruent	żółty	yellow	niebieski	blue	hit	n/a
318.0673	n/a	RESPONSE	n/a	n/a	n/a	n/a	n/a	n/a	n/a	yellow
318.0903	1.0167	ITI	n/a	n/a	n/a	n/a	n/a	n/a	n/a	n/a
319.107	0.5167	FIXCROSS	n/a	n/a	n/a	n/a	n/a	n/a	n/a	n/a
319.6237	0.6833	COLOR_NAME	8	Neutral	niebieski	blue	Neutral	Neutral	hit	n/a
320.2748	n/a	RESPONSE	n/a	n/a	n/a	n/a	n/a	n/a	n/a	blue
320.307	1.0167	ITI	n/a	n/a	n/a	n/a	n/a	n/a	n/a	n/a
321.3237	0.5167	FIXCROSS	n/a	n/a	n/a	n/a	n/a	n/a	n/a	n/a
321.8404	0.8167	COLOR_NAME	9	Incongruent	zielony	green	czerwony	red	hit	n/a
322.6262	n/a	RESPONSE	n/a	n/a	n/a	n/a	n/a	n/a	n/a	green
322.657	1.0167	ITI	n/a	n/a	n/a	n/a	n/a	n/a	n/a	n/a
323.6737	0.5167	FIXCROSS	n/a	n/a	n/a	n/a	n/a	n/a	n/a	n/a
324.1904	0.6167	COLOR_NAME	10	Neutral	żółty	yellow	Neutral	Neutral	hit	n/a
324.7857	n/a	RESPONSE	n/a	n/a	n/a	n/a	n/a	n/a	n/a	yellow
324.8071	1.0167	ITI	n/a	n/a	n/a	n/a	n/a	n/a	n/a	n/a
325.8238	0.5167	FIXCROSS	n/a	n/a	n/a	n/a	n/a	n/a	n/a	n/a
326.3404	0.65	COLOR_NAME	11	Neutral	czerwony	red	Neutral	Neutral	hit	n/a
326.9612	n/a	RESPONSE	n/a	n/a	n/a	n/a	n/a	n/a	n/a	red
326.9904	1.0167	ITI	n/a	n/a	n/a	n/a	n/a	n/a	n/a	n/a
328.0071	0.5167	FIXCROSS	n/a	n/a	n/a	n/a	n/a	n/a	n/a	n/a
328.5238	0.6167	COLOR_NAME	12	Incongruent	czerwony	red	niebieski	blue	hit	n/a
329.1207	n/a	RESPONSE	n/a	n/a	n/a	n/a	n/a	n/a	n/a	red
329.1405	1.0167	ITI	n/a	n/a	n/a	n/a	n/a	n/a	n/a	n/a
330.1571	0.5167	FIXCROSS	n/a	n/a	n/a	n/a	n/a	n/a	n/a	n/a
330.6738	0.8167	COLOR_NAME	13	Incongruent	zielony	green	żółty	yellow	hit	n/a
331.4562	n/a	RESPONSE	n/a	n/a	n/a	n/a	n/a	n/a	n/a	green
331.4905	1.0167	ITI	n/a	n/a	n/a	n/a	n/a	n/a	n/a	n/a
332.5072	0.5167	FIXCROSS	n/a	n/a	n/a	n/a	n/a	n/a	n/a	n/a
333.0239	0.6333	COLOR_NAME	14	Neutral	czerwony	red	Neutral	Neutral	hit	n/a
333.6316	n/a	RESPONSE	n/a	n/a	n/a	n/a	n/a	n/a	n/a	red
333.6572	1.0167	ITI	n/a	n/a	n/a	n/a	n/a	n/a	n/a	n/a
334.6739	0.5167	FIXCROSS	n/a	n/a	n/a	n/a	n/a	n/a	n/a	n/a
335.1906	1.0333	COLOR_NAME	15	Incongruent	niebieski	blue	zielony	green	hit	n/a
336.191	n/a	RESPONSE	n/a	n/a	n/a	n/a	n/a	n/a	n/a	blue
336.2239	1.0167	ITI	n/a	n/a	n/a	n/a	n/a	n/a	n/a	n/a
337.2406	0.5167	FIXCROSS	n/a	n/a	n/a	n/a	n/a	n/a	n/a	n/a
337.7572	0.7	COLOR_NAME	16	Neutral	zielony	green	Neutral	Neutral	hit	n/a
338.4304	n/a	RESPONSE	n/a	n/a	n/a	n/a	n/a	n/a	n/a	green
338.4573	1.0167	ITI	n/a	n/a	n/a	n/a	n/a	n/a	n/a	n/a
339.4739	0.5167	FIXCROSS	n/a	n/a	n/a	n/a	n/a	n/a	n/a	n/a
339.9906	0.7833	COLOR_NAME	17	Incongruent	niebieski	blue	żółty	yellow	hit	n/a
340.7499	n/a	RESPONSE	n/a	n/a	n/a	n/a	n/a	n/a	n/a	blue
340.774	1.0167	ITI	n/a	n/a	n/a	n/a	n/a	n/a	n/a	n/a
341.7906	0.5167	FIXCROSS	n/a	n/a	n/a	n/a	n/a	n/a	n/a	n/a
342.3073	0.5667	COLOR_NAME	18	Incongruent	żółty	yellow	zielony	green	hit	n/a
342.851	n/a	RESPONSE	n/a	n/a	n/a	n/a	n/a	n/a	n/a	yellow
342.874	1.0167	ITI	n/a	n/a	n/a	n/a	n/a	n/a	n/a	n/a
343.8907	0.5167	FIXCROSS	n/a	n/a	n/a	n/a	n/a	n/a	n/a	n/a
344.4073	0.4833	COLOR_NAME	19	Neutral	żółty	yellow	Neutral	Neutral	hit	n/a
344.8609	n/a	RESPONSE	n/a	n/a	n/a	n/a	n/a	n/a	n/a	yellow
344.8907	1.0167	ITI	n/a	n/a	n/a	n/a	n/a	n/a	n/a	n/a
345.9074	0.5167	FIXCROSS	n/a	n/a	n/a	n/a	n/a	n/a	n/a	n/a
346.424	0.7167	COLOR_NAME	20	Neutral	zielony	green	Neutral	Neutral	hit	n/a
347.1163	n/a	RESPONSE	n/a	n/a	n/a	n/a	n/a	n/a	n/a	green
347.1407	1.0167	ITI	n/a	n/a	n/a	n/a	n/a	n/a	n/a	n/a
348.1574	0.5167	FIXCROSS	n/a	n/a	n/a	n/a	n/a	n/a	n/a	n/a
348.6741	0.9333	COLOR_NAME	21	Incongruent	niebieski	blue	żółty	yellow	hit	n/a
349.5797	n/a	RESPONSE	n/a	n/a	n/a	n/a	n/a	n/a	n/a	blue
349.6074	1.0167	ITI	n/a	n/a	n/a	n/a	n/a	n/a	n/a	n/a
350.6241	0.5167	FIXCROSS	n/a	n/a	n/a	n/a	n/a	n/a	n/a	n/a
351.1408	0.75	COLOR_NAME	22	Incongruent	żółty	yellow	niebieski	blue	hit	n/a
351.8672	n/a	RESPONSE	n/a	n/a	n/a	n/a	n/a	n/a	n/a	yellow
351.8908	1.0167	ITI	n/a	n/a	n/a	n/a	n/a	n/a	n/a	n/a
352.9074	0.5167	FIXCROSS	n/a	n/a	n/a	n/a	n/a	n/a	n/a	n/a
353.4241	0.7333	COLOR_NAME	23	Neutral	zielony	green	Neutral	Neutral	hit	n/a
354.1386	n/a	RESPONSE	n/a	n/a	n/a	n/a	n/a	n/a	n/a	green
354.1575	1.0167	ITI	n/a	n/a	n/a	n/a	n/a	n/a	n/a	n/a
355.1742	0.5167	FIXCROSS	n/a	n/a	n/a	n/a	n/a	n/a	n/a	n/a
355.6908	0.75	COLOR_NAME	24	Incongruent	czerwony	red	żółty	yellow	hit	n/a
356.4101	n/a	RESPONSE	n/a	n/a	n/a	n/a	n/a	n/a	n/a	red
356.4408	1.0167	ITI	n/a	n/a	n/a	n/a	n/a	n/a	n/a	n/a
357.4575	0.5167	FIXCROSS	n/a	n/a	n/a	n/a	n/a	n/a	n/a	n/a
357.9742	0.5167	COLOR_NAME	25	Incongruent	żółty	yellow	zielony	green	hit	n/a
358.4736	n/a	RESPONSE	n/a	n/a	n/a	n/a	n/a	n/a	n/a	yellow
358.4909	1.0166	ITI	n/a	n/a	n/a	n/a	n/a	n/a	n/a	n/a
359.5075	0.5167	FIXCROSS	n/a	n/a	n/a	n/a	n/a	n/a	n/a	n/a
360.0242	0.6667	COLOR_NAME	26	Neutral	zielony	green	Neutral	Neutral	hit	n/a
360.6651	n/a	RESPONSE	n/a	n/a	n/a	n/a	n/a	n/a	n/a	green
360.6909	1.0167	ITI	n/a	n/a	n/a	n/a	n/a	n/a	n/a	n/a
361.7076	0.5167	FIXCROSS	n/a	n/a	n/a	n/a	n/a	n/a	n/a	n/a
362.2242	0.95	COLOR_NAME	27	Incongruent	niebieski	blue	czerwony	red	hit	n/a
363.1445	n/a	RESPONSE	n/a	n/a	n/a	n/a	n/a	n/a	n/a	blue
363.1742	1.0167	ITI	n/a	n/a	n/a	n/a	n/a	n/a	n/a	n/a
364.1909	0.5167	FIXCROSS	n/a	n/a	n/a	n/a	n/a	n/a	n/a	n/a
364.7076	0.55	COLOR_NAME	28	Neutral	żółty	yellow	Neutral	Neutral	hit	n/a
365.224	n/a	RESPONSE	n/a	n/a	n/a	n/a	n/a	n/a	n/a	yellow
365.2576	1.0167	ITI	n/a	n/a	n/a	n/a	n/a	n/a	n/a	n/a
366.2743	0.5167	FIXCROSS	n/a	n/a	n/a	n/a	n/a	n/a	n/a	n/a
366.791	0.4667	COLOR_NAME	29	Incongruent	żółty	yellow	czerwony	red	hit	n/a
367.2395	n/a	RESPONSE	n/a	n/a	n/a	n/a	n/a	n/a	n/a	yellow
367.2576	1.0167	ITI	n/a	n/a	n/a	n/a	n/a	n/a	n/a	n/a
368.2743	0.5167	FIXCROSS	n/a	n/a	n/a	n/a	n/a	n/a	n/a	n/a
368.791	0.6167	COLOR_NAME	30	Neutral	zielony	green	Neutral	Neutral	hit	n/a
369.3829	n/a	RESPONSE	n/a	n/a	n/a	n/a	n/a	n/a	n/a	green
369.4077	1.0167	ITI	n/a	n/a	n/a	n/a	n/a	n/a	n/a	n/a
370.4243	0.5167	FIXCROSS	n/a	n/a	n/a	n/a	n/a	n/a	n/a	n/a
370.941	0.65	COLOR_NAME	31	Incongruent	zielony	green	niebieski	blue	hit	n/a
371.5584	n/a	RESPONSE	n/a	n/a	n/a	n/a	n/a	n/a	n/a	green
371.591	1.0167	ITI	n/a	n/a	n/a	n/a	n/a	n/a	n/a	n/a
372.6077	0.5167	FIXCROSS	n/a	n/a	n/a	n/a	n/a	n/a	n/a	n/a
373.1244	0.6833	COLOR_NAME	32	Incongruent	czerwony	red	zielony	green	hit	n/a
373.7819	n/a	RESPONSE	n/a	n/a	n/a	n/a	n/a	n/a	n/a	red
373.8077	1.0167	ITI	n/a	n/a	n/a	n/a	n/a	n/a	n/a	n/a
374.8244	0.5167	FIXCROSS	n/a	n/a	n/a	n/a	n/a	n/a	n/a	n/a
375.3411	0.65	COLOR_NAME	33	Neutral	czerwony	red	Neutral	Neutral	hit	n/a
375.9734	n/a	RESPONSE	n/a	n/a	n/a	n/a	n/a	n/a	n/a	red
375.9911	1.0167	ITI	n/a	n/a	n/a	n/a	n/a	n/a	n/a	n/a
377.0078	0.5167	FIXCROSS	n/a	n/a	n/a	n/a	n/a	n/a	n/a	n/a
377.5244	0.5333	COLOR_NAME	34	Neutral	niebieski	blue	Neutral	Neutral	hit	n/a
378.0369	n/a	RESPONSE	n/a	n/a	n/a	n/a	n/a	n/a	n/a	blue
378.0578	1.0167	ITI	n/a	n/a	n/a	n/a	n/a	n/a	n/a	n/a
379.0745	0.5167	FIXCROSS	n/a	n/a	n/a	n/a	n/a	n/a	n/a	n/a
379.5911	0.5167	COLOR_NAME	35	Neutral	żółty	yellow	Neutral	Neutral	hit	n/a
380.0844	n/a	RESPONSE	n/a	n/a	n/a	n/a	n/a	n/a	n/a	yellow
380.1078	1.0167	ITI	n/a	n/a	n/a	n/a	n/a	n/a	n/a	n/a
381.1245	0.5167	FIXCROSS	n/a	n/a	n/a	n/a	n/a	n/a	n/a	n/a
381.6412	0.65	COLOR_NAME	36	Neutral	niebieski	blue	Neutral	Neutral	hit	n/a
382.2599	n/a	RESPONSE	n/a	n/a	n/a	n/a	n/a	n/a	n/a	blue
382.2912	1.0167	ITI	n/a	n/a	n/a	n/a	n/a	n/a	n/a	n/a
383.3078	0.5167	FIXCROSS	n/a	n/a	n/a	n/a	n/a	n/a	n/a	n/a
383.8245	0.7333	COLOR_NAME	37	Incongruent	czerwony	red	zielony	green	hit	n/a
384.5313	n/a	RESPONSE	n/a	n/a	n/a	n/a	n/a	n/a	n/a	red
384.5579	1.0167	ITI	n/a	n/a	n/a	n/a	n/a	n/a	n/a	n/a
385.5745	0.5167	FIXCROSS	n/a	n/a	n/a	n/a	n/a	n/a	n/a	n/a
386.0912	0.55	COLOR_NAME	38	Neutral	żółty	yellow	Neutral	Neutral	hit	n/a
386.6109	n/a	RESPONSE	n/a	n/a	n/a	n/a	n/a	n/a	n/a	yellow
386.6412	1.0167	ITI	n/a	n/a	n/a	n/a	n/a	n/a	n/a	n/a
387.6579	0.5167	FIXCROSS	n/a	n/a	n/a	n/a	n/a	n/a	n/a	n/a
388.1746	0.7167	COLOR_NAME	39	Neutral	niebieski	blue	Neutral	Neutral	hit	n/a
388.8663	n/a	RESPONSE	n/a	n/a	n/a	n/a	n/a	n/a	n/a	blue
388.8913	1.0167	ITI	n/a	n/a	n/a	n/a	n/a	n/a	n/a	n/a
389.9079	0.5167	FIXCROSS	n/a	n/a	n/a	n/a	n/a	n/a	n/a	n/a
390.4246	0.65	COLOR_NAME	40	Neutral	żółty	yellow	Neutral	Neutral	hit	n/a
391.0417	n/a	RESPONSE	n/a	n/a	n/a	n/a	n/a	n/a	n/a	yellow
391.0746	1.0167	ITI	n/a	n/a	n/a	n/a	n/a	n/a	n/a	n/a
392.0913	0.5167	FIXCROSS	n/a	n/a	n/a	n/a	n/a	n/a	n/a	n/a
392.608	0.6667	COLOR_NAME	41	Incongruent	czerwony	red	żółty	yellow	hit	n/a
393.2492	n/a	RESPONSE	n/a	n/a	n/a	n/a	n/a	n/a	n/a	red
393.2746	1.0167	ITI	n/a	n/a	n/a	n/a	n/a	n/a	n/a	n/a
394.2913	0.5167	FIXCROSS	n/a	n/a	n/a	n/a	n/a	n/a	n/a	n/a
394.808	0.6167	COLOR_NAME	42	Neutral	zielony	green	Neutral	Neutral	hit	n/a
395.3927	n/a	RESPONSE	n/a	n/a	n/a	n/a	n/a	n/a	n/a	green
395.4247	1.0167	ITI	n/a	n/a	n/a	n/a	n/a	n/a	n/a	n/a
396.4414	0.5167	FIXCROSS	n/a	n/a	n/a	n/a	n/a	n/a	n/a	n/a
396.958	0.7334	COLOR_NAME	43	Incongruent	żółty	yellow	zielony	green	hit	n/a
397.6641	n/a	RESPONSE	n/a	n/a	n/a	n/a	n/a	n/a	n/a	yellow
397.6914	1.0167	ITI	n/a	n/a	n/a	n/a	n/a	n/a	n/a	n/a
398.7081	0.5167	FIXCROSS	n/a	n/a	n/a	n/a	n/a	n/a	n/a	n/a
399.2247	0.7667	COLOR_NAME	44	Incongruent	zielony	green	żółty	yellow	hit	n/a
399.9676	n/a	RESPONSE	n/a	n/a	n/a	n/a	n/a	n/a	n/a	green
399.9914	1.0167	ITI	n/a	n/a	n/a	n/a	n/a	n/a	n/a	n/a
401.0081	0.5167	FIXCROSS	n/a	n/a	n/a	n/a	n/a	n/a	n/a	n/a
401.5248	0.6167	COLOR_NAME	45	Neutral	zielony	green	Neutral	Neutral	hit	n/a
402.1111	n/a	RESPONSE	n/a	n/a	n/a	n/a	n/a	n/a	n/a	green
402.1414	1.0167	ITI	n/a	n/a	n/a	n/a	n/a	n/a	n/a	n/a
403.1581	0.5167	FIXCROSS	n/a	n/a	n/a	n/a	n/a	n/a	n/a	n/a
403.6748	0.6667	COLOR_NAME	46	Incongruent	czerwony	red	zielony	green	hit	n/a
404.3185	n/a	RESPONSE	n/a	n/a	n/a	n/a	n/a	n/a	n/a	red
404.3415	1.0167	ITI	n/a	n/a	n/a	n/a	n/a	n/a	n/a	n/a
405.3581	0.5167	FIXCROSS	n/a	n/a	n/a	n/a	n/a	n/a	n/a	n/a
405.8748	0.9833	COLOR_NAME	47	Incongruent	zielony	green	niebieski	blue	hit	n/a
406.8299	n/a	RESPONSE	n/a	n/a	n/a	n/a	n/a	n/a	n/a	green
406.8582	1.0167	ITI	n/a	n/a	n/a	n/a	n/a	n/a	n/a	n/a
407.8748	0.5167	FIXCROSS	n/a	n/a	n/a	n/a	n/a	n/a	n/a	n/a
408.3915	0.9833	COLOR_NAME	48	Incongruent	niebieski	blue	zielony	green	hit	n/a
409.3573	n/a	RESPONSE	n/a	n/a	n/a	n/a	n/a	n/a	n/a	blue
409.3749	1.0167	ITI	n/a	n/a	n/a	n/a	n/a	n/a	n/a	n/a
410.3915	0.5167	FIXCROSS	n/a	n/a	n/a	n/a	n/a	n/a	n/a	n/a
410.9082	0.7667	COLOR_NAME	49	Incongruent	niebieski	blue	zielony	green	hit	n/a
411.6448	n/a	RESPONSE	n/a	n/a	n/a	n/a	n/a	n/a	n/a	blue
411.6749	1.0167	ITI	n/a	n/a	n/a	n/a	n/a	n/a	n/a	n/a
412.6916	0.5167	FIXCROSS	n/a	n/a	n/a	n/a	n/a	n/a	n/a	n/a
413.2082	0.6833	COLOR_NAME	50	Neutral	niebieski	blue	Neutral	Neutral	hit	n/a
413.8682	n/a	RESPONSE	n/a	n/a	n/a	n/a	n/a	n/a	n/a	blue
413.8916	1.0167	ITI	n/a	n/a	n/a	n/a	n/a	n/a	n/a	n/a
414.9083	0.5167	FIXCROSS	n/a	n/a	n/a	n/a	n/a	n/a	n/a	n/a
415.4249	1.05	COLOR_NAME	51	Incongruent	zielony	green	czerwony	red	hit	n/a
416.4436	n/a	RESPONSE	n/a	n/a	n/a	n/a	n/a	n/a	n/a	green
416.475	1.0167	ITI	n/a	n/a	n/a	n/a	n/a	n/a	n/a	n/a
417.4916	0.5167	FIXCROSS	n/a	n/a	n/a	n/a	n/a	n/a	n/a	n/a
418.0083	0.6333	COLOR_NAME	52	Neutral	czerwony	red	Neutral	Neutral	hit	n/a
418.6191	n/a	RESPONSE	n/a	n/a	n/a	n/a	n/a	n/a	n/a	red
418.6416	1.0167	ITI	n/a	n/a	n/a	n/a	n/a	n/a	n/a	n/a
419.6583	0.5167	FIXCROSS	n/a	n/a	n/a	n/a	n/a	n/a	n/a	n/a
420.175	0.9334	COLOR_NAME	53	Neutral	zielony	green	Neutral	Neutral	hit	n/a
421.0825	n/a	RESPONSE	n/a	n/a	n/a	n/a	n/a	n/a	n/a	green
421.1084	1.0167	ITI	n/a	n/a	n/a	n/a	n/a	n/a	n/a	n/a
422.125	0.5167	FIXCROSS	n/a	n/a	n/a	n/a	n/a	n/a	n/a	n/a
422.6417	0.6833	COLOR_NAME	54	Incongruent	żółty	yellow	niebieski	blue	hit	n/a
423.3059	n/a	RESPONSE	n/a	n/a	n/a	n/a	n/a	n/a	n/a	yellow
423.325	1.0167	ITI	n/a	n/a	n/a	n/a	n/a	n/a	n/a	n/a
424.3417	0.5167	FIXCROSS	n/a	n/a	n/a	n/a	n/a	n/a	n/a	n/a
424.8584	0.7833	COLOR_NAME	55	Neutral	czerwony	red	Neutral	Neutral	hit	n/a
425.6094	n/a	RESPONSE	n/a	n/a	n/a	n/a	n/a	n/a	n/a	red
425.6417	1.0167	ITI	n/a	n/a	n/a	n/a	n/a	n/a	n/a	n/a
426.6584	0.5167	FIXCROSS	n/a	n/a	n/a	n/a	n/a	n/a	n/a	n/a
427.1751	0.6833	COLOR_NAME	56	Incongruent	czerwony	red	żółty	yellow	hit	n/a
427.8329	n/a	RESPONSE	n/a	n/a	n/a	n/a	n/a	n/a	n/a	red
427.8584	1.0167	ITI	n/a	n/a	n/a	n/a	n/a	n/a	n/a	n/a
428.8751	0.5167	FIXCROSS	n/a	n/a	n/a	n/a	n/a	n/a	n/a	n/a
429.3918	0.65	COLOR_NAME	57	Incongruent	niebieski	blue	czerwony	red	hit	n/a
430.0083	n/a	RESPONSE	n/a	n/a	n/a	n/a	n/a	n/a	n/a	blue
430.0418	1.0167	ITI	n/a	n/a	n/a	n/a	n/a	n/a	n/a	n/a
431.0585	0.5167	FIXCROSS	n/a	n/a	n/a	n/a	n/a	n/a	n/a	n/a
431.5751	0.6834	COLOR_NAME	58	Incongruent	czerwony	red	niebieski	blue	hit	n/a
432.2318	n/a	RESPONSE	n/a	n/a	n/a	n/a	n/a	n/a	n/a	red
432.2585	1.0167	ITI	n/a	n/a	n/a	n/a	n/a	n/a	n/a	n/a
433.2752	0.5167	FIXCROSS	n/a	n/a	n/a	n/a	n/a	n/a	n/a	n/a
433.7918	0.6667	COLOR_NAME	59	Incongruent	żółty	yellow	czerwony	red	hit	n/a
434.4393	n/a	RESPONSE	n/a	n/a	n/a	n/a	n/a	n/a	n/a	yellow
434.4585	1.0167	ITI	n/a	n/a	n/a	n/a	n/a	n/a	n/a	n/a
435.4752	0.5167	FIXCROSS	n/a	n/a	n/a	n/a	n/a	n/a	n/a	n/a
435.9919	0.5167	COLOR_NAME	60	Neutral	żółty	yellow	Neutral	Neutral	hit	n/a
436.4868	n/a	RESPONSE	n/a	n/a	n/a	n/a	n/a	n/a	n/a	yellow
436.5086	1.0167	ITI	n/a	n/a	n/a	n/a	n/a	n/a	n/a	n/a
437.5252	0.5167	FIXCROSS	n/a	n/a	n/a	n/a	n/a	n/a	n/a	n/a
438.0419	0.7	COLOR_NAME	61	Neutral	czerwony	red	Neutral	Neutral	hit	n/a
438.7102	n/a	RESPONSE	n/a	n/a	n/a	n/a	n/a	n/a	n/a	red
438.7419	1.0167	ITI	n/a	n/a	n/a	n/a	n/a	n/a	n/a	n/a
439.7586	0.5167	FIXCROSS	n/a	n/a	n/a	n/a	n/a	n/a	n/a	n/a
440.2753	0.5667	COLOR_NAME	62	Neutral	żółty	yellow	Neutral	Neutral	hit	n/a
440.8217	n/a	RESPONSE	n/a	n/a	n/a	n/a	n/a	n/a	n/a	yellow
440.8419	1.0167	ITI	n/a	n/a	n/a	n/a	n/a	n/a	n/a	n/a
441.8586	0.5167	FIXCROSS	n/a	n/a	n/a	n/a	n/a	n/a	n/a	n/a
442.3753	0.6667	COLOR_NAME	63	Incongruent	niebieski	blue	żółty	yellow	hit	n/a
443.0132	n/a	RESPONSE	n/a	n/a	n/a	n/a	n/a	n/a	n/a	blue
443.042	1.0167	ITI	n/a	n/a	n/a	n/a	n/a	n/a	n/a	n/a
444.0587	0.5167	FIXCROSS	n/a	n/a	n/a	n/a	n/a	n/a	n/a	n/a
444.5753	0.5667	COLOR_NAME	64	Incongruent	żółty	yellow	czerwony	red	hit	n/a
445.1247	n/a	RESPONSE	n/a	n/a	n/a	n/a	n/a	n/a	n/a	yellow
445.142	1.0167	ITI	n/a	n/a	n/a	n/a	n/a	n/a	n/a	n/a
446.1587	0.5167	FIXCROSS	n/a	n/a	n/a	n/a	n/a	n/a	n/a	n/a
446.6754	0.8333	COLOR_NAME	65	Incongruent	zielony	green	czerwony	red	hit	n/a
447.4761	n/a	RESPONSE	n/a	n/a	n/a	n/a	n/a	n/a	n/a	green
447.5087	1.0167	ITI	n/a	n/a	n/a	n/a	n/a	n/a	n/a	n/a
448.5254	0.5167	FIXCROSS	n/a	n/a	n/a	n/a	n/a	n/a	n/a	n/a
449.042	0.7	COLOR_NAME	66	Neutral	niebieski	blue	Neutral	Neutral	hit	n/a
449.7156	n/a	RESPONSE	n/a	n/a	n/a	n/a	n/a	n/a	n/a	blue
449.7421	1.0167	ITI	n/a	n/a	n/a	n/a	n/a	n/a	n/a	n/a
450.7587	0.5167	FIXCROSS	n/a	n/a	n/a	n/a	n/a	n/a	n/a	n/a
451.2754	0.65	COLOR_NAME	67	Neutral	czerwony	red	Neutral	Neutral	hit	n/a
451.891	n/a	RESPONSE	n/a	n/a	n/a	n/a	n/a	n/a	n/a	red
451.9254	1.0167	ITI	n/a	n/a	n/a	n/a	n/a	n/a	n/a	n/a
452.9421	0.5167	FIXCROSS	n/a	n/a	n/a	n/a	n/a	n/a	n/a	n/a
453.4588	0.7833	COLOR_NAME	68	Neutral	niebieski	blue	Neutral	Neutral	hit	n/a
454.2105	n/a	RESPONSE	n/a	n/a	n/a	n/a	n/a	n/a	n/a	blue
454.2421	1.0167	ITI	n/a	n/a	n/a	n/a	n/a	n/a	n/a	n/a
455.2588	0.5167	FIXCROSS	n/a	n/a	n/a	n/a	n/a	n/a	n/a	n/a
455.7755	0.7	COLOR_NAME	69	Neutral	żółty	yellow	Neutral	Neutral	hit	n/a
456.45	n/a	RESPONSE	n/a	n/a	n/a	n/a	n/a	n/a	n/a	yellow
456.4755	1.0167	ITI	n/a	n/a	n/a	n/a	n/a	n/a	n/a	n/a
457.4922	0.5167	FIXCROSS	n/a	n/a	n/a	n/a	n/a	n/a	n/a	n/a
458.0088	0.7167	COLOR_NAME	70	Neutral	czerwony	red	Neutral	Neutral	hit	n/a
458.7054	n/a	RESPONSE	n/a	n/a	n/a	n/a	n/a	n/a	n/a	red
458.7255	1.0167	ITI	n/a	n/a	n/a	n/a	n/a	n/a	n/a	n/a
459.7422	0.5167	FIXCROSS	n/a	n/a	n/a	n/a	n/a	n/a	n/a	n/a
460.2589	0.6833	COLOR_NAME	71	Neutral	niebieski	blue	Neutral	Neutral	hit	n/a
460.9129	n/a	RESPONSE	n/a	n/a	n/a	n/a	n/a	n/a	n/a	blue
460.9422	1.0167	ITI	n/a	n/a	n/a	n/a	n/a	n/a	n/a	n/a
461.9589	0.5167	FIXCROSS	n/a	n/a	n/a	n/a	n/a	n/a	n/a	n/a
462.4756	0.7333	COLOR_NAME	72	Incongruent	czerwony	red	niebieski	blue	hit	n/a
463.1843	n/a	RESPONSE	n/a	n/a	n/a	n/a	n/a	n/a	n/a	red
463.2089	1.0333	ITI	n/a	n/a	n/a	n/a	n/a	n/a	n/a	n/a
472.0782	n/a	RESPONSE	n/a	n/a	n/a	n/a	n/a	n/a	n/a	n/a
