onset	duration	trial_type	trial_number	stroop_condition	stim_text(PL)	stim_text(eng)	stim_color(PL)	stim_color(eng)	response_type	response_color
0.0	n/a	RESPONSE	n/a	n/a	n/a	n/a	n/a	n/a	n/a	n/a
0.0222	1.0166	ITI	n/a	n/a	n/a	n/a	n/a	n/a	n/a	n/a
1.0388	0.5	FIXCROSS	n/a	n/a	n/a	n/a	n/a	n/a	n/a	n/a
1.5388	1.4333	T_INK	1	Incongruent	zielony	green	żółty	yellow	incorrect	n/a
2.956	n/a	RESPONSE	n/a	n/a	n/a	n/a	n/a	n/a	n/a	green
2.9721	0.5	FEEDBACK	n/a	n/a	n/a	n/a	n/a	n/a	n/a	n/a
3.4721	1.0	ITI	n/a	n/a	n/a	n/a	n/a	n/a	n/a	n/a
4.4721	0.5	FIXCROSS	n/a	n/a	n/a	n/a	n/a	n/a	n/a	n/a
4.9721	1.4666	T_INK	2	Neutral	xxxxxxx	xxxxxxx	żółty	yellow	hit	n/a
6.4233	n/a	RESPONSE	n/a	n/a	n/a	n/a	n/a	n/a	n/a	yellow
6.4387	0.5	FEEDBACK	n/a	n/a	n/a	n/a	n/a	n/a	n/a	n/a
6.9387	1.0	ITI	n/a	n/a	n/a	n/a	n/a	n/a	n/a	n/a
7.9387	0.5	FIXCROSS	n/a	n/a	n/a	n/a	n/a	n/a	n/a	n/a
8.4387	1.2333	T_INK	3	Neutral	xxxxxxx	xxxxxxx	niebieski	blue	hit	n/a
9.6669	n/a	RESPONSE	n/a	n/a	n/a	n/a	n/a	n/a	n/a	blue
9.672	0.5	FEEDBACK	n/a	n/a	n/a	n/a	n/a	n/a	n/a	n/a
10.172	1.0	ITI	n/a	n/a	n/a	n/a	n/a	n/a	n/a	n/a
11.1719	0.5	FIXCROSS	n/a	n/a	n/a	n/a	n/a	n/a	n/a	n/a
11.6719	0.85	T_INK	4	Incongruent	czerwony	red	zielony	green	hit	n/a
12.5111	n/a	RESPONSE	n/a	n/a	n/a	n/a	n/a	n/a	n/a	green
12.5219	0.5	FEEDBACK	n/a	n/a	n/a	n/a	n/a	n/a	n/a	n/a
13.0219	1.0167	ITI	n/a	n/a	n/a	n/a	n/a	n/a	n/a	n/a
14.0386	0.5	FIXCROSS	n/a	n/a	n/a	n/a	n/a	n/a	n/a	n/a
14.5386	0.8	T_INK	5	Incongruent	żółty	yellow	czerwony	red	hit	n/a
15.3233	n/a	RESPONSE	n/a	n/a	n/a	n/a	n/a	n/a	n/a	red
15.3385	0.5	FEEDBACK	n/a	n/a	n/a	n/a	n/a	n/a	n/a	n/a
15.8385	1.0	ITI	n/a	n/a	n/a	n/a	n/a	n/a	n/a	n/a
16.8385	0.5	FIXCROSS	n/a	n/a	n/a	n/a	n/a	n/a	n/a	n/a
17.3385	0.8	T_INK	6	Neutral	xxxxxxxx	xxxxxxxx	zielony	green	hit	n/a
18.1195	n/a	RESPONSE	n/a	n/a	n/a	n/a	n/a	n/a	n/a	green
18.1385	0.5	FEEDBACK	n/a	n/a	n/a	n/a	n/a	n/a	n/a	n/a
18.6385	1.0	ITI	n/a	n/a	n/a	n/a	n/a	n/a	n/a	n/a
19.6385	0.4998	FIXCROSS	n/a	n/a	n/a	n/a	n/a	n/a	n/a	n/a
20.1382	0.8835	T_INK	7	Incongruent	zielony	green	niebieski	blue	hit	n/a
21.0114	n/a	RESPONSE	n/a	n/a	n/a	n/a	n/a	n/a	n/a	blue
21.0218	0.5	FEEDBACK	n/a	n/a	n/a	n/a	n/a	n/a	n/a	n/a
21.5217	1.0	ITI	n/a	n/a	n/a	n/a	n/a	n/a	n/a	n/a
22.5217	0.5	FIXCROSS	n/a	n/a	n/a	n/a	n/a	n/a	n/a	n/a
23.0217	0.6	T_INK	8	Incongruent	czerwony	red	niebieski	blue	hit	n/a
23.6159	n/a	RESPONSE	n/a	n/a	n/a	n/a	n/a	n/a	n/a	blue
23.6217	0.5	FEEDBACK	n/a	n/a	n/a	n/a	n/a	n/a	n/a	n/a
24.1217	1.0	ITI	n/a	n/a	n/a	n/a	n/a	n/a	n/a	n/a
25.1217	0.5	FIXCROSS	n/a	n/a	n/a	n/a	n/a	n/a	n/a	n/a
25.6217	0.7333	T_INK	9	Incongruent	zielony	green	czerwony	red	hit	n/a
26.3483	n/a	RESPONSE	n/a	n/a	n/a	n/a	n/a	n/a	n/a	red
26.355	0.5	FEEDBACK	n/a	n/a	n/a	n/a	n/a	n/a	n/a	n/a
26.855	1.0	ITI	n/a	n/a	n/a	n/a	n/a	n/a	n/a	n/a
27.855	0.5	FIXCROSS	n/a	n/a	n/a	n/a	n/a	n/a	n/a	n/a
28.355	0.8333	T_INK	10	Neutral	xxxxx	xxxxx	niebieski	blue	hit	n/a
29.1764	n/a	RESPONSE	n/a	n/a	n/a	n/a	n/a	n/a	n/a	blue
29.1883	0.5	FEEDBACK	n/a	n/a	n/a	n/a	n/a	n/a	n/a	n/a
29.6883	1.0	ITI	n/a	n/a	n/a	n/a	n/a	n/a	n/a	n/a
30.6882	0.5	FIXCROSS	n/a	n/a	n/a	n/a	n/a	n/a	n/a	n/a
31.1882	0.85	T_INK	11	Neutral	xxxxxxx	xxxxxxx	czerwony	red	hit	n/a
32.0205	n/a	RESPONSE	n/a	n/a	n/a	n/a	n/a	n/a	n/a	red
32.0382	0.5	FEEDBACK	n/a	n/a	n/a	n/a	n/a	n/a	n/a	n/a
32.5382	1.0	ITI	n/a	n/a	n/a	n/a	n/a	n/a	n/a	n/a
33.5382	0.5	FIXCROSS	n/a	n/a	n/a	n/a	n/a	n/a	n/a	n/a
34.0382	0.7333	T_INK	12	Incongruent	żółty	yellow	zielony	green	hit	n/a
34.7528	n/a	RESPONSE	n/a	n/a	n/a	n/a	n/a	n/a	n/a	green
34.7715	0.5	FEEDBACK	n/a	n/a	n/a	n/a	n/a	n/a	n/a	n/a
35.2715	1.0	ITI	n/a	n/a	n/a	n/a	n/a	n/a	n/a	n/a
38.8593	n/a	RESPONSE	n/a	n/a	n/a	n/a	n/a	n/a	n/a	n/a
38.8881	1.0	ITI	n/a	n/a	n/a	n/a	n/a	n/a	n/a	n/a
39.8881	0.5	FIXCROSS	n/a	n/a	n/a	n/a	n/a	n/a	n/a	n/a
40.388	1.05	INK	1	Incongruent	zielony	green	niebieski	blue	hit	n/a
41.4319	n/a	RESPONSE	n/a	n/a	n/a	n/a	n/a	n/a	n/a	blue
41.438	1.0	ITI	n/a	n/a	n/a	n/a	n/a	n/a	n/a	n/a
42.438	0.5	FIXCROSS	n/a	n/a	n/a	n/a	n/a	n/a	n/a	n/a
42.938	0.5333	INK	2	Neutral	xxxxx	xxxxx	czerwony	red	hit	n/a
43.4611	n/a	RESPONSE	n/a	n/a	n/a	n/a	n/a	n/a	n/a	red
43.4713	1.0	ITI	n/a	n/a	n/a	n/a	n/a	n/a	n/a	n/a
44.4713	0.5	FIXCROSS	n/a	n/a	n/a	n/a	n/a	n/a	n/a	n/a
44.9713	0.6166	INK	3	Neutral	xxxxx	xxxxx	niebieski	blue	hit	n/a
45.5702	n/a	RESPONSE	n/a	n/a	n/a	n/a	n/a	n/a	n/a	blue
45.5879	1.0	ITI	n/a	n/a	n/a	n/a	n/a	n/a	n/a	n/a
46.5879	0.5	FIXCROSS	n/a	n/a	n/a	n/a	n/a	n/a	n/a	n/a
47.0879	0.5333	INK	4	Incongruent	żółty	yellow	niebieski	blue	hit	n/a
47.6154	n/a	RESPONSE	n/a	n/a	n/a	n/a	n/a	n/a	n/a	blue
47.6212	1.0	ITI	n/a	n/a	n/a	n/a	n/a	n/a	n/a	n/a
48.6212	0.5	FIXCROSS	n/a	n/a	n/a	n/a	n/a	n/a	n/a	n/a
49.1212	0.7833	INK	5	Incongruent	żółty	yellow	zielony	green	hit	n/a
49.9002	n/a	RESPONSE	n/a	n/a	n/a	n/a	n/a	n/a	n/a	green
49.9045	1.0	ITI	n/a	n/a	n/a	n/a	n/a	n/a	n/a	n/a
50.9045	0.5	FIXCROSS	n/a	n/a	n/a	n/a	n/a	n/a	n/a	n/a
51.4045	0.7	INK	6	Neutral	xxxxxxxxx	xxxxxxxxx	żółty	yellow	hit	n/a
52.0892	n/a	RESPONSE	n/a	n/a	n/a	n/a	n/a	n/a	n/a	yellow
52.1045	1.0	ITI	n/a	n/a	n/a	n/a	n/a	n/a	n/a	n/a
53.1045	0.5	FIXCROSS	n/a	n/a	n/a	n/a	n/a	n/a	n/a	n/a
53.6044	1.3333	INK	7	Neutral	xxxxxxxx	xxxxxxxx	zielony	green	hit	n/a
54.9333	n/a	RESPONSE	n/a	n/a	n/a	n/a	n/a	n/a	n/a	green
54.9378	1.0	ITI	n/a	n/a	n/a	n/a	n/a	n/a	n/a	n/a
55.9377	0.5	FIXCROSS	n/a	n/a	n/a	n/a	n/a	n/a	n/a	n/a
56.4377	0.5833	INK	8	Neutral	xxxxxxxx	xxxxxxxx	niebieski	blue	hit	n/a
57.0105	n/a	RESPONSE	n/a	n/a	n/a	n/a	n/a	n/a	n/a	blue
57.0211	1.0	ITI	n/a	n/a	n/a	n/a	n/a	n/a	n/a	n/a
58.021	0.5	FIXCROSS	n/a	n/a	n/a	n/a	n/a	n/a	n/a	n/a
58.521	0.6833	INK	9	Incongruent	zielony	green	żółty	yellow	hit	n/a
59.1995	n/a	RESPONSE	n/a	n/a	n/a	n/a	n/a	n/a	n/a	yellow
59.2043	1.0	ITI	n/a	n/a	n/a	n/a	n/a	n/a	n/a	n/a
60.2043	0.5	FIXCROSS	n/a	n/a	n/a	n/a	n/a	n/a	n/a	n/a
60.7043	0.8666	INK	10	Incongruent	niebieski	blue	zielony	green	hit	n/a
61.5644	n/a	RESPONSE	n/a	n/a	n/a	n/a	n/a	n/a	n/a	green
61.571	1.0	ITI	n/a	n/a	n/a	n/a	n/a	n/a	n/a	n/a
62.571	0.5	FIXCROSS	n/a	n/a	n/a	n/a	n/a	n/a	n/a	n/a
63.0709	0.55	INK	11	Incongruent	zielony	green	czerwony	red	hit	n/a
63.6096	n/a	RESPONSE	n/a	n/a	n/a	n/a	n/a	n/a	n/a	red
63.6209	1.0	ITI	n/a	n/a	n/a	n/a	n/a	n/a	n/a	n/a
63.8332	n/a	RESPONSE	n/a	n/a	n/a	n/a	n/a	n/a	n/a	red
64.6209	0.5	FIXCROSS	n/a	n/a	n/a	n/a	n/a	n/a	n/a	n/a
65.1209	0.7833	INK	12	Incongruent	niebieski	blue	żółty	yellow	hit	n/a
65.8945	n/a	RESPONSE	n/a	n/a	n/a	n/a	n/a	n/a	n/a	yellow
65.9042	1.0	ITI	n/a	n/a	n/a	n/a	n/a	n/a	n/a	n/a
66.9042	0.5	FIXCROSS	n/a	n/a	n/a	n/a	n/a	n/a	n/a	n/a
67.4042	0.9	INK	13	Neutral	xxxxxxxxx	xxxxxxxxx	zielony	green	hit	n/a
68.2912	n/a	RESPONSE	n/a	n/a	n/a	n/a	n/a	n/a	n/a	green
68.3042	1.0	ITI	n/a	n/a	n/a	n/a	n/a	n/a	n/a	n/a
69.3041	0.5	FIXCROSS	n/a	n/a	n/a	n/a	n/a	n/a	n/a	n/a
69.8041	0.55	INK	14	Incongruent	zielony	green	niebieski	blue	hit	n/a
70.3364	n/a	RESPONSE	n/a	n/a	n/a	n/a	n/a	n/a	n/a	blue
70.3541	1.0	ITI	n/a	n/a	n/a	n/a	n/a	n/a	n/a	n/a
71.3541	0.5	FIXCROSS	n/a	n/a	n/a	n/a	n/a	n/a	n/a	n/a
71.8541	0.4333	INK	15	Incongruent	niebieski	blue	żółty	yellow	hit	n/a
72.2698	n/a	RESPONSE	n/a	n/a	n/a	n/a	n/a	n/a	n/a	yellow
72.2874	1.0	ITI	n/a	n/a	n/a	n/a	n/a	n/a	n/a	n/a
73.2874	0.5	FIXCROSS	n/a	n/a	n/a	n/a	n/a	n/a	n/a	n/a
73.7874	0.6	INK	16	Neutral	xxxxxxxxx	xxxxxxxxx	żółty	yellow	hit	n/a
74.3789	n/a	RESPONSE	n/a	n/a	n/a	n/a	n/a	n/a	n/a	yellow
74.3874	1.0	ITI	n/a	n/a	n/a	n/a	n/a	n/a	n/a	n/a
75.3874	0.5	FIXCROSS	n/a	n/a	n/a	n/a	n/a	n/a	n/a	n/a
75.8874	0.4167	INK	17	Neutral	xxxxxxxx	xxxxxxxx	żółty	yellow	hit	n/a
76.2964	n/a	RESPONSE	n/a	n/a	n/a	n/a	n/a	n/a	n/a	yellow
76.304	1.0	ITI	n/a	n/a	n/a	n/a	n/a	n/a	n/a	n/a
77.304	0.5	FIXCROSS	n/a	n/a	n/a	n/a	n/a	n/a	n/a	n/a
77.804	0.7	INK	18	Neutral	xxxxxxxx	xxxxxxxx	zielony	green	hit	n/a
78.4853	n/a	RESPONSE	n/a	n/a	n/a	n/a	n/a	n/a	n/a	green
78.504	1.0	ITI	n/a	n/a	n/a	n/a	n/a	n/a	n/a	n/a
79.504	0.5	FIXCROSS	n/a	n/a	n/a	n/a	n/a	n/a	n/a	n/a
80.0039	0.8667	INK	19	Incongruent	żółty	yellow	zielony	green	hit	n/a
80.8661	n/a	RESPONSE	n/a	n/a	n/a	n/a	n/a	n/a	n/a	green
80.8706	1.0	ITI	n/a	n/a	n/a	n/a	n/a	n/a	n/a	n/a
81.8706	0.5	FIXCROSS	n/a	n/a	n/a	n/a	n/a	n/a	n/a	n/a
82.3706	0.7833	INK	20	Incongruent	czerwony	red	żółty	yellow	hit	n/a
83.1509	n/a	RESPONSE	n/a	n/a	n/a	n/a	n/a	n/a	n/a	yellow
83.1539	1.0	ITI	n/a	n/a	n/a	n/a	n/a	n/a	n/a	n/a
84.1539	0.5	FIXCROSS	n/a	n/a	n/a	n/a	n/a	n/a	n/a	n/a
84.6539	0.7833	INK	21	Incongruent	czerwony	red	zielony	green	hit	n/a
85.4198	n/a	RESPONSE	n/a	n/a	n/a	n/a	n/a	n/a	n/a	green
85.4372	1.0	ITI	n/a	n/a	n/a	n/a	n/a	n/a	n/a	n/a
86.4371	0.5	FIXCROSS	n/a	n/a	n/a	n/a	n/a	n/a	n/a	n/a
86.9371	0.65	INK	22	Incongruent	zielony	green	czerwony	red	hit	n/a
87.5768	n/a	RESPONSE	n/a	n/a	n/a	n/a	n/a	n/a	n/a	red
87.5871	1.0	ITI	n/a	n/a	n/a	n/a	n/a	n/a	n/a	n/a
88.5871	0.5	FIXCROSS	n/a	n/a	n/a	n/a	n/a	n/a	n/a	n/a
89.0871	0.5833	INK	23	Incongruent	niebieski	blue	czerwony	red	hit	n/a
89.654	n/a	RESPONSE	n/a	n/a	n/a	n/a	n/a	n/a	n/a	red
89.6704	1.0	ITI	n/a	n/a	n/a	n/a	n/a	n/a	n/a	n/a
90.6704	0.5	FIXCROSS	n/a	n/a	n/a	n/a	n/a	n/a	n/a	n/a
91.1704	0.5	INK	24	Neutral	xxxxxxxxx	xxxxxxxxx	czerwony	red	hit	n/a
91.6512	n/a	RESPONSE	n/a	n/a	n/a	n/a	n/a	n/a	n/a	red
91.6704	1.0	ITI	n/a	n/a	n/a	n/a	n/a	n/a	n/a	n/a
92.6703	0.5	FIXCROSS	n/a	n/a	n/a	n/a	n/a	n/a	n/a	n/a
93.1703	0.8167	INK	25	Incongruent	niebieski	blue	zielony	green	hit	n/a
93.984	n/a	RESPONSE	n/a	n/a	n/a	n/a	n/a	n/a	n/a	green
93.987	1.0	ITI	n/a	n/a	n/a	n/a	n/a	n/a	n/a	n/a
94.987	0.5	FIXCROSS	n/a	n/a	n/a	n/a	n/a	n/a	n/a	n/a
95.487	0.7167	INK	26	Incongruent	niebieski	blue	zielony	green	hit	n/a
96.189	n/a	RESPONSE	n/a	n/a	n/a	n/a	n/a	n/a	n/a	green
96.2036	1.0	ITI	n/a	n/a	n/a	n/a	n/a	n/a	n/a	n/a
97.2036	0.5	FIXCROSS	n/a	n/a	n/a	n/a	n/a	n/a	n/a	n/a
97.7036	0.6	INK	27	Neutral	xxxxxxx	xxxxxxx	żółty	yellow	hit	n/a
98.2982	n/a	RESPONSE	n/a	n/a	n/a	n/a	n/a	n/a	n/a	yellow
98.3036	1.0	ITI	n/a	n/a	n/a	n/a	n/a	n/a	n/a	n/a
99.3036	0.5	FIXCROSS	n/a	n/a	n/a	n/a	n/a	n/a	n/a	n/a
99.8036	0.6666	INK	28	Neutral	xxxxxxxxx	xxxxxxxxx	czerwony	red	hit	n/a
100.4552	n/a	RESPONSE	n/a	n/a	n/a	n/a	n/a	n/a	n/a	red
100.4702	1.0	ITI	n/a	n/a	n/a	n/a	n/a	n/a	n/a	n/a
101.4702	0.5	FIXCROSS	n/a	n/a	n/a	n/a	n/a	n/a	n/a	n/a
101.9702	0.5333	INK	29	Neutral	xxxxx	xxxxx	czerwony	red	hit	n/a
102.4844	n/a	RESPONSE	n/a	n/a	n/a	n/a	n/a	n/a	n/a	red
102.5035	1.0	ITI	n/a	n/a	n/a	n/a	n/a	n/a	n/a	n/a
103.5035	0.5	FIXCROSS	n/a	n/a	n/a	n/a	n/a	n/a	n/a	n/a
104.0035	0.5167	INK	30	Neutral	xxxxxxx	xxxxxxx	czerwony	red	hit	n/a
104.5138	n/a	RESPONSE	n/a	n/a	n/a	n/a	n/a	n/a	n/a	red
104.5201	1.0	ITI	n/a	n/a	n/a	n/a	n/a	n/a	n/a	n/a
105.5201	0.5	FIXCROSS	n/a	n/a	n/a	n/a	n/a	n/a	n/a	n/a
106.0201	0.5333	INK	31	Incongruent	czerwony	red	niebieski	blue	hit	n/a
106.543	n/a	RESPONSE	n/a	n/a	n/a	n/a	n/a	n/a	n/a	blue
106.5534	1.0	ITI	n/a	n/a	n/a	n/a	n/a	n/a	n/a	n/a
107.5534	0.5	FIXCROSS	n/a	n/a	n/a	n/a	n/a	n/a	n/a	n/a
108.0534	0.3667	INK	32	Neutral	xxxxxxxx	xxxxxxxx	niebieski	blue	hit	n/a
108.4124	n/a	RESPONSE	n/a	n/a	n/a	n/a	n/a	n/a	n/a	blue
108.42	1.0	ITI	n/a	n/a	n/a	n/a	n/a	n/a	n/a	n/a
109.42	0.5	FIXCROSS	n/a	n/a	n/a	n/a	n/a	n/a	n/a	n/a
109.92	0.7166	INK	33	Incongruent	zielony	green	czerwony	red	hit	n/a
110.6334	n/a	RESPONSE	n/a	n/a	n/a	n/a	n/a	n/a	n/a	red
110.6367	1.0	ITI	n/a	n/a	n/a	n/a	n/a	n/a	n/a	n/a
111.6367	0.5	FIXCROSS	n/a	n/a	n/a	n/a	n/a	n/a	n/a	n/a
112.1366	0.5333	INK	34	Neutral	xxxxxxx	xxxxxxx	żółty	yellow	hit	n/a
112.6626	n/a	RESPONSE	n/a	n/a	n/a	n/a	n/a	n/a	n/a	yellow
112.67	1.0	ITI	n/a	n/a	n/a	n/a	n/a	n/a	n/a	n/a
113.6699	0.5	FIXCROSS	n/a	n/a	n/a	n/a	n/a	n/a	n/a	n/a
114.1699	0.6833	INK	35	Incongruent	żółty	yellow	czerwony	red	hit	n/a
114.8356	n/a	RESPONSE	n/a	n/a	n/a	n/a	n/a	n/a	n/a	red
114.8533	1.0	ITI	n/a	n/a	n/a	n/a	n/a	n/a	n/a	n/a
115.8532	0.5	FIXCROSS	n/a	n/a	n/a	n/a	n/a	n/a	n/a	n/a
116.3532	0.5833	INK	36	Neutral	xxxxxxxxx	xxxxxxxxx	czerwony	red	hit	n/a
116.9287	n/a	RESPONSE	n/a	n/a	n/a	n/a	n/a	n/a	n/a	red
116.9366	1.0	ITI	n/a	n/a	n/a	n/a	n/a	n/a	n/a	n/a
117.9365	0.5	FIXCROSS	n/a	n/a	n/a	n/a	n/a	n/a	n/a	n/a
118.4365	0.5667	INK	37	Neutral	xxxxxxx	xxxxxxx	niebieski	blue	hit	n/a
118.9899	n/a	RESPONSE	n/a	n/a	n/a	n/a	n/a	n/a	n/a	blue
119.0032	1.0	ITI	n/a	n/a	n/a	n/a	n/a	n/a	n/a	n/a
120.0032	0.5	FIXCROSS	n/a	n/a	n/a	n/a	n/a	n/a	n/a	n/a
120.5031	0.5667	INK	38	Incongruent	czerwony	red	niebieski	blue	hit	n/a
121.051	n/a	RESPONSE	n/a	n/a	n/a	n/a	n/a	n/a	n/a	blue
121.0698	1.0	ITI	n/a	n/a	n/a	n/a	n/a	n/a	n/a	n/a
122.0698	0.5	FIXCROSS	n/a	n/a	n/a	n/a	n/a	n/a	n/a	n/a
122.5698	0.8167	INK	39	Incongruent	czerwony	red	zielony	green	hit	n/a
123.368	n/a	RESPONSE	n/a	n/a	n/a	n/a	n/a	n/a	n/a	green
123.3864	1.0	ITI	n/a	n/a	n/a	n/a	n/a	n/a	n/a	n/a
124.3864	0.5	FIXCROSS	n/a	n/a	n/a	n/a	n/a	n/a	n/a	n/a
124.8864	0.7667	INK	40	Incongruent	zielony	green	żółty	yellow	hit	n/a
125.6368	n/a	RESPONSE	n/a	n/a	n/a	n/a	n/a	n/a	n/a	yellow
125.6531	1.0	ITI	n/a	n/a	n/a	n/a	n/a	n/a	n/a	n/a
126.653	0.5	FIXCROSS	n/a	n/a	n/a	n/a	n/a	n/a	n/a	n/a
127.153	0.6333	INK	41	Neutral	xxxxx	xxxxx	niebieski	blue	hit	n/a
127.7779	n/a	RESPONSE	n/a	n/a	n/a	n/a	n/a	n/a	n/a	blue
127.7863	1.0	ITI	n/a	n/a	n/a	n/a	n/a	n/a	n/a	n/a
128.7863	0.5	FIXCROSS	n/a	n/a	n/a	n/a	n/a	n/a	n/a	n/a
129.2863	0.55	INK	42	Neutral	xxxxxxx	xxxxxxx	niebieski	blue	hit	n/a
129.8232	n/a	RESPONSE	n/a	n/a	n/a	n/a	n/a	n/a	n/a	blue
129.8363	1.0	ITI	n/a	n/a	n/a	n/a	n/a	n/a	n/a	n/a
130.8363	0.5	FIXCROSS	n/a	n/a	n/a	n/a	n/a	n/a	n/a	n/a
131.3363	0.75	INK	43	Incongruent	niebieski	blue	czerwony	red	hit	n/a
132.076	n/a	RESPONSE	n/a	n/a	n/a	n/a	n/a	n/a	n/a	red
132.0863	1.0	ITI	n/a	n/a	n/a	n/a	n/a	n/a	n/a	n/a
133.0862	0.5	FIXCROSS	n/a	n/a	n/a	n/a	n/a	n/a	n/a	n/a
133.5862	0.8333	INK	44	Neutral	xxxxx	xxxxx	zielony	green	hit	n/a
134.409	n/a	RESPONSE	n/a	n/a	n/a	n/a	n/a	n/a	n/a	green
134.4195	1.0	ITI	n/a	n/a	n/a	n/a	n/a	n/a	n/a	n/a
135.4195	0.5	FIXCROSS	n/a	n/a	n/a	n/a	n/a	n/a	n/a	n/a
135.9195	0.8667	INK	45	Incongruent	zielony	green	żółty	yellow	hit	n/a
136.7739	n/a	RESPONSE	n/a	n/a	n/a	n/a	n/a	n/a	n/a	yellow
136.7862	1.0	ITI	n/a	n/a	n/a	n/a	n/a	n/a	n/a	n/a
137.7861	0.5	FIXCROSS	n/a	n/a	n/a	n/a	n/a	n/a	n/a	n/a
138.2861	0.5333	INK	46	Incongruent	zielony	green	niebieski	blue	hit	n/a
138.803	n/a	RESPONSE	n/a	n/a	n/a	n/a	n/a	n/a	n/a	blue
138.8194	1.0	ITI	n/a	n/a	n/a	n/a	n/a	n/a	n/a	n/a
139.8194	0.5	FIXCROSS	n/a	n/a	n/a	n/a	n/a	n/a	n/a	n/a
140.3194	1.3166	INK	47	Incongruent	żółty	yellow	czerwony	red	hit	n/a
141.6312	n/a	RESPONSE	n/a	n/a	n/a	n/a	n/a	n/a	n/a	red
141.6361	1.0	ITI	n/a	n/a	n/a	n/a	n/a	n/a	n/a	n/a
142.636	0.5	FIXCROSS	n/a	n/a	n/a	n/a	n/a	n/a	n/a	n/a
143.136	0.5667	INK	48	Neutral	xxxxxxx	xxxxxxx	niebieski	blue	hit	n/a
143.6924	n/a	RESPONSE	n/a	n/a	n/a	n/a	n/a	n/a	n/a	blue
143.7027	1.0	ITI	n/a	n/a	n/a	n/a	n/a	n/a	n/a	n/a
144.7027	0.5	FIXCROSS	n/a	n/a	n/a	n/a	n/a	n/a	n/a	n/a
145.2027	0.8666	INK	49	Neutral	xxxxx	xxxxx	zielony	green	hit	n/a
146.0572	n/a	RESPONSE	n/a	n/a	n/a	n/a	n/a	n/a	n/a	green
146.0693	1.0	ITI	n/a	n/a	n/a	n/a	n/a	n/a	n/a	n/a
147.0693	0.5	FIXCROSS	n/a	n/a	n/a	n/a	n/a	n/a	n/a	n/a
147.5693	1.3333	INK	50	Incongruent	żółty	yellow	niebieski	blue	hit	n/a
148.8854	n/a	RESPONSE	n/a	n/a	n/a	n/a	n/a	n/a	n/a	blue
148.9026	1.0	ITI	n/a	n/a	n/a	n/a	n/a	n/a	n/a	n/a
149.9026	0.5	FIXCROSS	n/a	n/a	n/a	n/a	n/a	n/a	n/a	n/a
150.4026	0.7167	INK	51	Neutral	xxxxx	xxxxx	zielony	green	hit	n/a
151.1064	n/a	RESPONSE	n/a	n/a	n/a	n/a	n/a	n/a	n/a	green
151.1192	1.0	ITI	n/a	n/a	n/a	n/a	n/a	n/a	n/a	n/a
152.1192	0.5	FIXCROSS	n/a	n/a	n/a	n/a	n/a	n/a	n/a	n/a
152.6192	0.6833	INK	52	Incongruent	czerwony	red	żółty	yellow	hit	n/a
153.2955	n/a	RESPONSE	n/a	n/a	n/a	n/a	n/a	n/a	n/a	yellow
153.3025	1.0	ITI	n/a	n/a	n/a	n/a	n/a	n/a	n/a	n/a
154.3025	0.5	FIXCROSS	n/a	n/a	n/a	n/a	n/a	n/a	n/a	n/a
154.8025	0.7166	INK	53	Neutral	xxxxxxxx	xxxxxxxx	niebieski	blue	hit	n/a
155.5005	n/a	RESPONSE	n/a	n/a	n/a	n/a	n/a	n/a	n/a	blue
155.5191	1.0	ITI	n/a	n/a	n/a	n/a	n/a	n/a	n/a	n/a
156.5191	0.5	FIXCROSS	n/a	n/a	n/a	n/a	n/a	n/a	n/a	n/a
157.0191	0.5	INK	54	Incongruent	żółty	yellow	niebieski	blue	hit	n/a
157.5137	n/a	RESPONSE	n/a	n/a	n/a	n/a	n/a	n/a	n/a	blue
157.5191	1.0	ITI	n/a	n/a	n/a	n/a	n/a	n/a	n/a	n/a
158.5191	0.5	FIXCROSS	n/a	n/a	n/a	n/a	n/a	n/a	n/a	n/a
159.0191	0.7667	INK	55	Incongruent	niebieski	blue	czerwony	red	hit	n/a
159.7667	n/a	RESPONSE	n/a	n/a	n/a	n/a	n/a	n/a	n/a	red
159.7857	1.0	ITI	n/a	n/a	n/a	n/a	n/a	n/a	n/a	n/a
160.7857	0.5	FIXCROSS	n/a	n/a	n/a	n/a	n/a	n/a	n/a	n/a
161.2857	0.75	INK	56	Neutral	xxxxxxxxx	xxxxxxxxx	zielony	green	hit	n/a
162.0197	n/a	RESPONSE	n/a	n/a	n/a	n/a	n/a	n/a	n/a	green
162.0357	1.0	ITI	n/a	n/a	n/a	n/a	n/a	n/a	n/a	n/a
163.0356	0.5	FIXCROSS	n/a	n/a	n/a	n/a	n/a	n/a	n/a	n/a
163.5356	0.65	INK	57	Neutral	xxxxxxxx	xxxxxxxx	żółty	yellow	hit	n/a
164.1768	n/a	RESPONSE	n/a	n/a	n/a	n/a	n/a	n/a	n/a	yellow
164.1856	1.0	ITI	n/a	n/a	n/a	n/a	n/a	n/a	n/a	n/a
165.1856	0.5	FIXCROSS	n/a	n/a	n/a	n/a	n/a	n/a	n/a	n/a
165.6856	1.0166	INK	58	Incongruent	żółty	yellow	czerwony	red	hit	n/a
166.6854	n/a	RESPONSE	n/a	n/a	n/a	n/a	n/a	n/a	n/a	red
166.7022	1.0	ITI	n/a	n/a	n/a	n/a	n/a	n/a	n/a	n/a
167.7022	0.5	FIXCROSS	n/a	n/a	n/a	n/a	n/a	n/a	n/a	n/a
168.2022	0.7	INK	59	Neutral	xxxxxxx	xxxxxxx	czerwony	red	hit	n/a
168.8905	n/a	RESPONSE	n/a	n/a	n/a	n/a	n/a	n/a	n/a	red
168.9022	1.0	ITI	n/a	n/a	n/a	n/a	n/a	n/a	n/a	n/a
169.9022	0.5	FIXCROSS	n/a	n/a	n/a	n/a	n/a	n/a	n/a	n/a
170.4022	0.8833	INK	60	Neutral	xxxxxxxx	xxxxxxxx	zielony	green	hit	n/a
171.2712	n/a	RESPONSE	n/a	n/a	n/a	n/a	n/a	n/a	n/a	green
171.2855	1.0	ITI	n/a	n/a	n/a	n/a	n/a	n/a	n/a	n/a
172.2855	0.5	FIXCROSS	n/a	n/a	n/a	n/a	n/a	n/a	n/a	n/a
172.7855	1.2333	INK	61	Incongruent	żółty	yellow	zielony	green	hit	n/a
174.0036	n/a	RESPONSE	n/a	n/a	n/a	n/a	n/a	n/a	n/a	green
174.0188	1.0	ITI	n/a	n/a	n/a	n/a	n/a	n/a	n/a	n/a
175.0187	0.5	FIXCROSS	n/a	n/a	n/a	n/a	n/a	n/a	n/a	n/a
175.5187	1.0666	INK	62	Neutral	xxxxx	xxxxx	niebieski	blue	hit	n/a
176.5762	n/a	RESPONSE	n/a	n/a	n/a	n/a	n/a	n/a	n/a	blue
176.5854	1.0	ITI	n/a	n/a	n/a	n/a	n/a	n/a	n/a	n/a
177.5854	0.5	FIXCROSS	n/a	n/a	n/a	n/a	n/a	n/a	n/a	n/a
178.0853	0.9333	INK	63	Neutral	xxxxxxxxx	xxxxxxxxx	zielony	green	hit	n/a
179.0049	n/a	RESPONSE	n/a	n/a	n/a	n/a	n/a	n/a	n/a	green
179.0187	1.0	ITI	n/a	n/a	n/a	n/a	n/a	n/a	n/a	n/a
180.0186	0.5	FIXCROSS	n/a	n/a	n/a	n/a	n/a	n/a	n/a	n/a
180.5186	0.8333	INK	64	Neutral	xxxxxxxxx	xxxxxxxxx	żółty	yellow	hit	n/a
181.3378	n/a	RESPONSE	n/a	n/a	n/a	n/a	n/a	n/a	n/a	yellow
181.3519	1.0	ITI	n/a	n/a	n/a	n/a	n/a	n/a	n/a	n/a
182.3519	0.5	FIXCROSS	n/a	n/a	n/a	n/a	n/a	n/a	n/a	n/a
182.8519	0.65	INK	65	Incongruent	niebieski	blue	żółty	yellow	hit	n/a
183.4949	n/a	RESPONSE	n/a	n/a	n/a	n/a	n/a	n/a	n/a	yellow
183.5019	1.0	ITI	n/a	n/a	n/a	n/a	n/a	n/a	n/a	n/a
184.5019	0.5	FIXCROSS	n/a	n/a	n/a	n/a	n/a	n/a	n/a	n/a
185.0019	0.7333	INK	66	Neutral	xxxxxxx	xxxxxxx	żółty	yellow	hit	n/a
185.7158	n/a	RESPONSE	n/a	n/a	n/a	n/a	n/a	n/a	n/a	yellow
185.7352	1.0	ITI	n/a	n/a	n/a	n/a	n/a	n/a	n/a	n/a
186.7352	0.5	FIXCROSS	n/a	n/a	n/a	n/a	n/a	n/a	n/a	n/a
187.2352	0.6833	INK	67	Incongruent	czerwony	red	niebieski	blue	hit	n/a
187.905	n/a	RESPONSE	n/a	n/a	n/a	n/a	n/a	n/a	n/a	blue
187.9185	1.0	ITI	n/a	n/a	n/a	n/a	n/a	n/a	n/a	n/a
188.9185	0.5	FIXCROSS	n/a	n/a	n/a	n/a	n/a	n/a	n/a	n/a
189.4185	0.9333	INK	68	Incongruent	czerwony	red	zielony	green	hit	n/a
190.3337	n/a	RESPONSE	n/a	n/a	n/a	n/a	n/a	n/a	n/a	green
190.3518	1.0	ITI	n/a	n/a	n/a	n/a	n/a	n/a	n/a	n/a
191.3517	0.5	FIXCROSS	n/a	n/a	n/a	n/a	n/a	n/a	n/a	n/a
191.8517	0.75	INK	69	Neutral	xxxxx	xxxxx	czerwony	red	hit	n/a
192.5867	n/a	RESPONSE	n/a	n/a	n/a	n/a	n/a	n/a	n/a	red
192.6017	1.0	ITI	n/a	n/a	n/a	n/a	n/a	n/a	n/a	n/a
193.6017	0.5	FIXCROSS	n/a	n/a	n/a	n/a	n/a	n/a	n/a	n/a
194.1017	0.7	INK	70	Neutral	xxxxxxxx	xxxxxxxx	żółty	yellow	hit	n/a
194.7917	n/a	RESPONSE	n/a	n/a	n/a	n/a	n/a	n/a	n/a	yellow
194.8017	1.0	ITI	n/a	n/a	n/a	n/a	n/a	n/a	n/a	n/a
195.8017	0.5	FIXCROSS	n/a	n/a	n/a	n/a	n/a	n/a	n/a	n/a
196.3017	0.6333	INK	71	Incongruent	czerwony	red	żółty	yellow	hit	n/a
196.9168	n/a	RESPONSE	n/a	n/a	n/a	n/a	n/a	n/a	n/a	yellow
196.935	1.0	ITI	n/a	n/a	n/a	n/a	n/a	n/a	n/a	n/a
197.935	0.5	FIXCROSS	n/a	n/a	n/a	n/a	n/a	n/a	n/a	n/a
198.4349	0.7167	INK	72	Neutral	xxxxxxx	xxxxxxx	czerwony	red	hit	n/a
199.1379	n/a	RESPONSE	n/a	n/a	n/a	n/a	n/a	n/a	n/a	red
199.1516	1.0333	ITI	n/a	n/a	n/a	n/a	n/a	n/a	n/a	n/a
203.3243	n/a	RESPONSE	n/a	n/a	n/a	n/a	n/a	n/a	n/a	n/a
203.3515	1.0	ITI	n/a	n/a	n/a	n/a	n/a	n/a	n/a	n/a
204.3515	0.5	FIXCROSS	n/a	n/a	n/a	n/a	n/a	n/a	n/a	n/a
204.8515	1.5166	T_COLOR_NAME	1	Incongruent	żółty	yellow	czerwony	red	hit	n/a
206.3601	n/a	RESPONSE	n/a	n/a	n/a	n/a	n/a	n/a	n/a	yellow
206.3681	0.5	FEEDBACK	n/a	n/a	n/a	n/a	n/a	n/a	n/a	n/a
206.8681	1.0	ITI	n/a	n/a	n/a	n/a	n/a	n/a	n/a	n/a
207.8681	0.5	FIXCROSS	n/a	n/a	n/a	n/a	n/a	n/a	n/a	n/a
208.3681	0.7	T_COLOR_NAME	2	Neutral	zielony	green	Neutral	Neutral	hit	n/a
209.0604	n/a	RESPONSE	n/a	n/a	n/a	n/a	n/a	n/a	n/a	green
209.0681	0.5	FEEDBACK	n/a	n/a	n/a	n/a	n/a	n/a	n/a	n/a
209.5681	1.0	ITI	n/a	n/a	n/a	n/a	n/a	n/a	n/a	n/a
210.568	0.5	FIXCROSS	n/a	n/a	n/a	n/a	n/a	n/a	n/a	n/a
211.068	0.7	T_COLOR_NAME	3	Neutral	żółty	yellow	Neutral	Neutral	hit	n/a
211.7608	n/a	RESPONSE	n/a	n/a	n/a	n/a	n/a	n/a	n/a	yellow
211.768	0.5	FEEDBACK	n/a	n/a	n/a	n/a	n/a	n/a	n/a	n/a
212.268	1.0	ITI	n/a	n/a	n/a	n/a	n/a	n/a	n/a	n/a
213.268	0.5	FIXCROSS	n/a	n/a	n/a	n/a	n/a	n/a	n/a	n/a
213.768	0.9333	T_COLOR_NAME	4	Neutral	zielony	green	Neutral	Neutral	hit	n/a
214.6849	n/a	RESPONSE	n/a	n/a	n/a	n/a	n/a	n/a	n/a	green
214.7013	0.5	FEEDBACK	n/a	n/a	n/a	n/a	n/a	n/a	n/a	n/a
215.2013	1.0	ITI	n/a	n/a	n/a	n/a	n/a	n/a	n/a	n/a
216.2013	0.5	FIXCROSS	n/a	n/a	n/a	n/a	n/a	n/a	n/a	n/a
216.7013	0.85	T_COLOR_NAME	5	Incongruent	zielony	green	czerwony	red	hit	n/a
217.545	n/a	RESPONSE	n/a	n/a	n/a	n/a	n/a	n/a	n/a	green
217.5512	0.5	FEEDBACK	n/a	n/a	n/a	n/a	n/a	n/a	n/a	n/a
218.0512	1.0	ITI	n/a	n/a	n/a	n/a	n/a	n/a	n/a	n/a
219.0512	0.5	FIXCROSS	n/a	n/a	n/a	n/a	n/a	n/a	n/a	n/a
219.5512	0.9833	T_COLOR_NAME	6	Incongruent	czerwony	red	zielony	green	hit	n/a
220.517	n/a	RESPONSE	n/a	n/a	n/a	n/a	n/a	n/a	n/a	red
220.5345	0.5	FEEDBACK	n/a	n/a	n/a	n/a	n/a	n/a	n/a	n/a
221.0345	1.0	ITI	n/a	n/a	n/a	n/a	n/a	n/a	n/a	n/a
222.0345	0.5	FIXCROSS	n/a	n/a	n/a	n/a	n/a	n/a	n/a	n/a
222.5345	0.85	T_COLOR_NAME	7	Incongruent	zielony	green	żółty	yellow	hit	n/a
223.3772	n/a	RESPONSE	n/a	n/a	n/a	n/a	n/a	n/a	n/a	green
223.3845	0.5	FEEDBACK	n/a	n/a	n/a	n/a	n/a	n/a	n/a	n/a
223.8845	1.0	ITI	n/a	n/a	n/a	n/a	n/a	n/a	n/a	n/a
224.8844	0.5	FIXCROSS	n/a	n/a	n/a	n/a	n/a	n/a	n/a	n/a
225.3844	0.8333	T_COLOR_NAME	8	Incongruent	czerwony	red	niebieski	blue	hit	n/a
226.2053	n/a	RESPONSE	n/a	n/a	n/a	n/a	n/a	n/a	n/a	red
226.2177	0.5	FEEDBACK	n/a	n/a	n/a	n/a	n/a	n/a	n/a	n/a
226.7177	1.0	ITI	n/a	n/a	n/a	n/a	n/a	n/a	n/a	n/a
227.7177	0.5	FIXCROSS	n/a	n/a	n/a	n/a	n/a	n/a	n/a	n/a
228.2177	0.6667	T_COLOR_NAME	9	Neutral	czerwony	red	Neutral	Neutral	hit	n/a
228.8737	n/a	RESPONSE	n/a	n/a	n/a	n/a	n/a	n/a	n/a	red
228.8844	0.5	FEEDBACK	n/a	n/a	n/a	n/a	n/a	n/a	n/a	n/a
229.3843	1.0	ITI	n/a	n/a	n/a	n/a	n/a	n/a	n/a	n/a
230.3843	0.5	FIXCROSS	n/a	n/a	n/a	n/a	n/a	n/a	n/a	n/a
230.8843	0.8	T_COLOR_NAME	10	Incongruent	żółty	yellow	zielony	green	hit	n/a
231.67	n/a	RESPONSE	n/a	n/a	n/a	n/a	n/a	n/a	n/a	yellow
231.6843	0.5	FEEDBACK	n/a	n/a	n/a	n/a	n/a	n/a	n/a	n/a
232.1843	1.0	ITI	n/a	n/a	n/a	n/a	n/a	n/a	n/a	n/a
233.1843	0.5	FIXCROSS	n/a	n/a	n/a	n/a	n/a	n/a	n/a	n/a
233.6843	0.8833	T_COLOR_NAME	11	Incongruent	zielony	green	niebieski	blue	hit	n/a
234.5617	n/a	RESPONSE	n/a	n/a	n/a	n/a	n/a	n/a	n/a	green
234.5676	0.5	FEEDBACK	n/a	n/a	n/a	n/a	n/a	n/a	n/a	n/a
235.0676	1.0	ITI	n/a	n/a	n/a	n/a	n/a	n/a	n/a	n/a
236.0675	0.5	FIXCROSS	n/a	n/a	n/a	n/a	n/a	n/a	n/a	n/a
236.5675	0.8167	T_COLOR_NAME	12	Neutral	zielony	green	Neutral	Neutral	hit	n/a
237.3739	n/a	RESPONSE	n/a	n/a	n/a	n/a	n/a	n/a	n/a	green
237.3842	0.5	FEEDBACK	n/a	n/a	n/a	n/a	n/a	n/a	n/a	n/a
237.8842	1.0	ITI	n/a	n/a	n/a	n/a	n/a	n/a	n/a	n/a
240.1382	n/a	RESPONSE	n/a	n/a	n/a	n/a	n/a	n/a	n/a	n/a
240.1675	1.0	ITI	n/a	n/a	n/a	n/a	n/a	n/a	n/a	n/a
241.1674	0.5	FIXCROSS	n/a	n/a	n/a	n/a	n/a	n/a	n/a	n/a
241.6674	0.7167	COLOR_NAME	1	Neutral	zielony	green	Neutral	Neutral	hit	n/a
242.3753	n/a	RESPONSE	n/a	n/a	n/a	n/a	n/a	n/a	n/a	green
242.3841	1.0	ITI	n/a	n/a	n/a	n/a	n/a	n/a	n/a	n/a
243.3841	0.5	FIXCROSS	n/a	n/a	n/a	n/a	n/a	n/a	n/a	n/a
243.8841	0.6833	COLOR_NAME	2	Neutral	żółty	yellow	Neutral	Neutral	hit	n/a
244.5482	n/a	RESPONSE	n/a	n/a	n/a	n/a	n/a	n/a	n/a	yellow
244.5674	1.0	ITI	n/a	n/a	n/a	n/a	n/a	n/a	n/a	n/a
245.5674	0.5	FIXCROSS	n/a	n/a	n/a	n/a	n/a	n/a	n/a	n/a
246.0673	1.0	COLOR_NAME	3	Incongruent	czerwony	red	zielony	green	hit	n/a
247.0568	n/a	RESPONSE	n/a	n/a	n/a	n/a	n/a	n/a	n/a	red
247.0673	1.0	ITI	n/a	n/a	n/a	n/a	n/a	n/a	n/a	n/a
248.0673	0.5	FIXCROSS	n/a	n/a	n/a	n/a	n/a	n/a	n/a	n/a
248.5673	0.9	COLOR_NAME	4	Neutral	niebieski	blue	Neutral	Neutral	hit	n/a
249.4537	n/a	RESPONSE	n/a	n/a	n/a	n/a	n/a	n/a	n/a	blue
249.4673	1.0	ITI	n/a	n/a	n/a	n/a	n/a	n/a	n/a	n/a
250.4672	0.5	FIXCROSS	n/a	n/a	n/a	n/a	n/a	n/a	n/a	n/a
250.9672	0.8333	COLOR_NAME	5	Incongruent	zielony	green	żółty	yellow	hit	n/a
251.7864	n/a	RESPONSE	n/a	n/a	n/a	n/a	n/a	n/a	n/a	green
251.8006	1.0	ITI	n/a	n/a	n/a	n/a	n/a	n/a	n/a	n/a
252.8006	0.5	FIXCROSS	n/a	n/a	n/a	n/a	n/a	n/a	n/a	n/a
253.3005	0.8833	COLOR_NAME	6	Incongruent	żółty	yellow	zielony	green	hit	n/a
254.1673	n/a	RESPONSE	n/a	n/a	n/a	n/a	n/a	n/a	n/a	yellow
254.1839	1.0	ITI	n/a	n/a	n/a	n/a	n/a	n/a	n/a	n/a
255.1838	0.5	FIXCROSS	n/a	n/a	n/a	n/a	n/a	n/a	n/a	n/a
255.6838	1.35	COLOR_NAME	7	Neutral	niebieski	blue	Neutral	Neutral	hit	n/a
257.0274	n/a	RESPONSE	n/a	n/a	n/a	n/a	n/a	n/a	n/a	blue
257.0338	1.0	ITI	n/a	n/a	n/a	n/a	n/a	n/a	n/a	n/a
258.0338	0.5	FIXCROSS	n/a	n/a	n/a	n/a	n/a	n/a	n/a	n/a
258.5338	0.6833	COLOR_NAME	8	Neutral	zielony	green	Neutral	Neutral	hit	n/a
259.2005	n/a	RESPONSE	n/a	n/a	n/a	n/a	n/a	n/a	n/a	green
259.2171	1.0	ITI	n/a	n/a	n/a	n/a	n/a	n/a	n/a	n/a
260.2171	0.5	FIXCROSS	n/a	n/a	n/a	n/a	n/a	n/a	n/a	n/a
260.7171	1.2666	COLOR_NAME	9	Incongruent	zielony	green	żółty	yellow	hit	n/a
261.9808	n/a	RESPONSE	n/a	n/a	n/a	n/a	n/a	n/a	n/a	green
261.9837	1.0	ITI	n/a	n/a	n/a	n/a	n/a	n/a	n/a	n/a
262.9837	0.5	FIXCROSS	n/a	n/a	n/a	n/a	n/a	n/a	n/a	n/a
263.4837	0.7666	COLOR_NAME	10	Incongruent	niebieski	blue	zielony	green	hit	n/a
264.2337	n/a	RESPONSE	n/a	n/a	n/a	n/a	n/a	n/a	n/a	blue
264.2503	1.0	ITI	n/a	n/a	n/a	n/a	n/a	n/a	n/a	n/a
265.2503	0.5	FIXCROSS	n/a	n/a	n/a	n/a	n/a	n/a	n/a	n/a
265.7503	0.6333	COLOR_NAME	11	Neutral	niebieski	blue	Neutral	Neutral	hit	n/a
266.3749	n/a	RESPONSE	n/a	n/a	n/a	n/a	n/a	n/a	n/a	blue
266.3836	1.0	ITI	n/a	n/a	n/a	n/a	n/a	n/a	n/a	n/a
267.3836	0.5	FIXCROSS	n/a	n/a	n/a	n/a	n/a	n/a	n/a	n/a
267.8836	1.1666	COLOR_NAME	12	Neutral	żółty	yellow	Neutral	Neutral	hit	n/a
269.0432	n/a	RESPONSE	n/a	n/a	n/a	n/a	n/a	n/a	n/a	yellow
269.0502	1.0	ITI	n/a	n/a	n/a	n/a	n/a	n/a	n/a	n/a
270.0502	0.5	FIXCROSS	n/a	n/a	n/a	n/a	n/a	n/a	n/a	n/a
270.5502	1.35	COLOR_NAME	13	Incongruent	zielony	green	czerwony	red	hit	n/a
271.8873	n/a	RESPONSE	n/a	n/a	n/a	n/a	n/a	n/a	n/a	green
271.9002	1.0	ITI	n/a	n/a	n/a	n/a	n/a	n/a	n/a	n/a
272.9002	0.5	FIXCROSS	n/a	n/a	n/a	n/a	n/a	n/a	n/a	n/a
273.4001	0.8	COLOR_NAME	14	Neutral	żółty	yellow	Neutral	Neutral	hit	n/a
274.1881	n/a	RESPONSE	n/a	n/a	n/a	n/a	n/a	n/a	n/a	yellow
274.2001	1.0	ITI	n/a	n/a	n/a	n/a	n/a	n/a	n/a	n/a
275.2001	0.5	FIXCROSS	n/a	n/a	n/a	n/a	n/a	n/a	n/a	n/a
275.7001	1.05	COLOR_NAME	15	Incongruent	zielony	green	czerwony	red	hit	n/a
276.7447	n/a	RESPONSE	n/a	n/a	n/a	n/a	n/a	n/a	n/a	green
276.7501	1.0	ITI	n/a	n/a	n/a	n/a	n/a	n/a	n/a	n/a
277.7501	0.5	FIXCROSS	n/a	n/a	n/a	n/a	n/a	n/a	n/a	n/a
278.2501	0.8333	COLOR_NAME	16	Incongruent	niebieski	blue	czerwony	red	hit	n/a
279.0775	n/a	RESPONSE	n/a	n/a	n/a	n/a	n/a	n/a	n/a	blue
279.0834	1.0	ITI	n/a	n/a	n/a	n/a	n/a	n/a	n/a	n/a
280.0833	0.5	FIXCROSS	n/a	n/a	n/a	n/a	n/a	n/a	n/a	n/a
280.5833	0.7667	COLOR_NAME	17	Incongruent	czerwony	red	żółty	yellow	hit	n/a
281.3465	n/a	RESPONSE	n/a	n/a	n/a	n/a	n/a	n/a	n/a	red
281.35	1.0	ITI	n/a	n/a	n/a	n/a	n/a	n/a	n/a	n/a
282.35	0.5	FIXCROSS	n/a	n/a	n/a	n/a	n/a	n/a	n/a	n/a
282.85	0.7333	COLOR_NAME	18	Incongruent	żółty	yellow	niebieski	blue	hit	n/a
283.5675	n/a	RESPONSE	n/a	n/a	n/a	n/a	n/a	n/a	n/a	yellow
283.5833	1.0	ITI	n/a	n/a	n/a	n/a	n/a	n/a	n/a	n/a
284.5833	0.5	FIXCROSS	n/a	n/a	n/a	n/a	n/a	n/a	n/a	n/a
285.0833	0.7333	COLOR_NAME	19	Neutral	zielony	green	Neutral	Neutral	hit	n/a
285.8044	n/a	RESPONSE	n/a	n/a	n/a	n/a	n/a	n/a	n/a	green
285.8166	1.0	ITI	n/a	n/a	n/a	n/a	n/a	n/a	n/a	n/a
286.8166	0.5	FIXCROSS	n/a	n/a	n/a	n/a	n/a	n/a	n/a	n/a
287.3165	0.7166	COLOR_NAME	20	Neutral	czerwony	red	Neutral	Neutral	hit	n/a
288.0254	n/a	RESPONSE	n/a	n/a	n/a	n/a	n/a	n/a	n/a	red
288.0332	1.0	ITI	n/a	n/a	n/a	n/a	n/a	n/a	n/a	n/a
289.0332	0.5	FIXCROSS	n/a	n/a	n/a	n/a	n/a	n/a	n/a	n/a
289.5332	1.3833	COLOR_NAME	21	Incongruent	zielony	green	żółty	yellow	hit	n/a
290.9011	n/a	RESPONSE	n/a	n/a	n/a	n/a	n/a	n/a	n/a	green
290.9165	1.0	ITI	n/a	n/a	n/a	n/a	n/a	n/a	n/a	n/a
291.9164	0.5	FIXCROSS	n/a	n/a	n/a	n/a	n/a	n/a	n/a	n/a
292.4164	0.7833	COLOR_NAME	22	Incongruent	czerwony	red	niebieski	blue	hit	n/a
293.1861	n/a	RESPONSE	n/a	n/a	n/a	n/a	n/a	n/a	n/a	red
293.1998	1.0	ITI	n/a	n/a	n/a	n/a	n/a	n/a	n/a	n/a
294.1997	0.5	FIXCROSS	n/a	n/a	n/a	n/a	n/a	n/a	n/a	n/a
294.6997	0.7833	COLOR_NAME	23	Incongruent	żółty	yellow	niebieski	blue	hit	n/a
295.471	n/a	RESPONSE	n/a	n/a	n/a	n/a	n/a	n/a	n/a	yellow
295.483	1.0	ITI	n/a	n/a	n/a	n/a	n/a	n/a	n/a	n/a
296.483	0.5	FIXCROSS	n/a	n/a	n/a	n/a	n/a	n/a	n/a	n/a
296.983	0.7831	COLOR_NAME	24	Neutral	żółty	yellow	Neutral	Neutral	hit	n/a
297.756	n/a	RESPONSE	n/a	n/a	n/a	n/a	n/a	n/a	n/a	yellow
297.7661	1.0002	ITI	n/a	n/a	n/a	n/a	n/a	n/a	n/a	n/a
298.7663	0.5	FIXCROSS	n/a	n/a	n/a	n/a	n/a	n/a	n/a	n/a
299.2663	0.9833	COLOR_NAME	25	Neutral	zielony	green	Neutral	Neutral	hit	n/a
300.2325	n/a	RESPONSE	n/a	n/a	n/a	n/a	n/a	n/a	n/a	green
300.2496	1.0	ITI	n/a	n/a	n/a	n/a	n/a	n/a	n/a	n/a
301.2496	0.5	FIXCROSS	n/a	n/a	n/a	n/a	n/a	n/a	n/a	n/a
301.7496	1.2333	COLOR_NAME	26	Neutral	czerwony	red	Neutral	Neutral	hit	n/a
302.9649	n/a	RESPONSE	n/a	n/a	n/a	n/a	n/a	n/a	n/a	red
302.9829	1.0	ITI	n/a	n/a	n/a	n/a	n/a	n/a	n/a	n/a
303.9829	0.5	FIXCROSS	n/a	n/a	n/a	n/a	n/a	n/a	n/a	n/a
304.4829	0.7667	COLOR_NAME	27	Neutral	czerwony	red	Neutral	Neutral	hit	n/a
305.2339	n/a	RESPONSE	n/a	n/a	n/a	n/a	n/a	n/a	n/a	red
305.2495	1.0	ITI	n/a	n/a	n/a	n/a	n/a	n/a	n/a	n/a
306.2495	0.5	FIXCROSS	n/a	n/a	n/a	n/a	n/a	n/a	n/a	n/a
306.7495	0.6833	COLOR_NAME	28	Incongruent	żółty	yellow	czerwony	red	hit	n/a
307.423	n/a	RESPONSE	n/a	n/a	n/a	n/a	n/a	n/a	n/a	yellow
307.4328	1.0	ITI	n/a	n/a	n/a	n/a	n/a	n/a	n/a	n/a
308.4328	0.5	FIXCROSS	n/a	n/a	n/a	n/a	n/a	n/a	n/a	n/a
308.9328	0.6167	COLOR_NAME	29	Incongruent	niebieski	blue	żółty	yellow	hit	n/a
309.5322	n/a	RESPONSE	n/a	n/a	n/a	n/a	n/a	n/a	n/a	blue
309.5494	1.0	ITI	n/a	n/a	n/a	n/a	n/a	n/a	n/a	n/a
310.5494	0.5	FIXCROSS	n/a	n/a	n/a	n/a	n/a	n/a	n/a	n/a
311.0494	0.8667	COLOR_NAME	30	Incongruent	żółty	yellow	niebieski	blue	hit	n/a
311.897	n/a	RESPONSE	n/a	n/a	n/a	n/a	n/a	n/a	n/a	yellow
311.9161	1.0	ITI	n/a	n/a	n/a	n/a	n/a	n/a	n/a	n/a
312.916	0.5	FIXCROSS	n/a	n/a	n/a	n/a	n/a	n/a	n/a	n/a
313.416	0.7	COLOR_NAME	31	Incongruent	żółty	yellow	czerwony	red	hit	n/a
314.1021	n/a	RESPONSE	n/a	n/a	n/a	n/a	n/a	n/a	n/a	yellow
314.116	1.0	ITI	n/a	n/a	n/a	n/a	n/a	n/a	n/a	n/a
315.116	0.5	FIXCROSS	n/a	n/a	n/a	n/a	n/a	n/a	n/a	n/a
315.616	0.6333	COLOR_NAME	32	Neutral	żółty	yellow	Neutral	Neutral	hit	n/a
316.2432	n/a	RESPONSE	n/a	n/a	n/a	n/a	n/a	n/a	n/a	yellow
316.2493	1.0	ITI	n/a	n/a	n/a	n/a	n/a	n/a	n/a	n/a
317.2493	0.5	FIXCROSS	n/a	n/a	n/a	n/a	n/a	n/a	n/a	n/a
317.7493	1.55	COLOR_NAME	33	Neutral	czerwony	red	Neutral	Neutral	hit	n/a
319.295	n/a	RESPONSE	n/a	n/a	n/a	n/a	n/a	n/a	n/a	red
319.2992	1.0	ITI	n/a	n/a	n/a	n/a	n/a	n/a	n/a	n/a
320.2992	0.5	FIXCROSS	n/a	n/a	n/a	n/a	n/a	n/a	n/a	n/a
320.7992	2.2333	COLOR_NAME	34	Neutral	niebieski	blue	Neutral	Neutral	hit	n/a
323.0178	n/a	RESPONSE	n/a	n/a	n/a	n/a	n/a	n/a	n/a	blue
323.0325	1.0	ITI	n/a	n/a	n/a	n/a	n/a	n/a	n/a	n/a
324.0325	0.5	FIXCROSS	n/a	n/a	n/a	n/a	n/a	n/a	n/a	n/a
324.5325	1.1166	COLOR_NAME	35	Incongruent	czerwony	red	zielony	green	hit	n/a
325.6384	n/a	RESPONSE	n/a	n/a	n/a	n/a	n/a	n/a	n/a	red
325.6491	1.0	ITI	n/a	n/a	n/a	n/a	n/a	n/a	n/a	n/a
326.6491	0.5	FIXCROSS	n/a	n/a	n/a	n/a	n/a	n/a	n/a	n/a
327.1491	0.8833	COLOR_NAME	36	Incongruent	niebieski	blue	czerwony	red	hit	n/a
328.0191	n/a	RESPONSE	n/a	n/a	n/a	n/a	n/a	n/a	n/a	blue
328.0324	1.0	ITI	n/a	n/a	n/a	n/a	n/a	n/a	n/a	n/a
329.0324	0.5	FIXCROSS	n/a	n/a	n/a	n/a	n/a	n/a	n/a	n/a
329.5324	0.5833	COLOR_NAME	37	Incongruent	niebieski	blue	żółty	yellow	hit	n/a
330.1123	n/a	RESPONSE	n/a	n/a	n/a	n/a	n/a	n/a	n/a	blue
330.1157	1.0	ITI	n/a	n/a	n/a	n/a	n/a	n/a	n/a	n/a
331.1157	0.5	FIXCROSS	n/a	n/a	n/a	n/a	n/a	n/a	n/a	n/a
331.6157	0.7333	COLOR_NAME	38	Neutral	czerwony	red	Neutral	Neutral	hit	n/a
332.3333	n/a	RESPONSE	n/a	n/a	n/a	n/a	n/a	n/a	n/a	red
332.349	1.0	ITI	n/a	n/a	n/a	n/a	n/a	n/a	n/a	n/a
333.349	0.5	FIXCROSS	n/a	n/a	n/a	n/a	n/a	n/a	n/a	n/a
333.849	0.8833	COLOR_NAME	39	Neutral	niebieski	blue	Neutral	Neutral	hit	n/a
334.714	n/a	RESPONSE	n/a	n/a	n/a	n/a	n/a	n/a	n/a	blue
334.7323	1.0	ITI	n/a	n/a	n/a	n/a	n/a	n/a	n/a	n/a
335.7323	0.5	FIXCROSS	n/a	n/a	n/a	n/a	n/a	n/a	n/a	n/a
336.2323	0.5333	COLOR_NAME	40	Incongruent	niebieski	blue	czerwony	red	hit	n/a
336.7593	n/a	RESPONSE	n/a	n/a	n/a	n/a	n/a	n/a	n/a	blue
336.7656	1.0	ITI	n/a	n/a	n/a	n/a	n/a	n/a	n/a	n/a
337.7656	0.5	FIXCROSS	n/a	n/a	n/a	n/a	n/a	n/a	n/a	n/a
338.2655	1.0666	COLOR_NAME	41	Incongruent	zielony	green	niebieski	blue	hit	n/a
339.3157	n/a	RESPONSE	n/a	n/a	n/a	n/a	n/a	n/a	n/a	green
339.3322	1.0	ITI	n/a	n/a	n/a	n/a	n/a	n/a	n/a	n/a
340.3322	0.5	FIXCROSS	n/a	n/a	n/a	n/a	n/a	n/a	n/a	n/a
340.8322	0.7	COLOR_NAME	42	Neutral	niebieski	blue	Neutral	Neutral	hit	n/a
341.5208	n/a	RESPONSE	n/a	n/a	n/a	n/a	n/a	n/a	n/a	blue
341.5321	1.0	ITI	n/a	n/a	n/a	n/a	n/a	n/a	n/a	n/a
342.5321	0.5	FIXCROSS	n/a	n/a	n/a	n/a	n/a	n/a	n/a	n/a
343.0321	0.85	COLOR_NAME	43	Neutral	zielony	green	Neutral	Neutral	hit	n/a
343.8696	n/a	RESPONSE	n/a	n/a	n/a	n/a	n/a	n/a	n/a	green
343.8821	1.0	ITI	n/a	n/a	n/a	n/a	n/a	n/a	n/a	n/a
344.8821	0.5	FIXCROSS	n/a	n/a	n/a	n/a	n/a	n/a	n/a	n/a
345.3821	0.7667	COLOR_NAME	44	Neutral	zielony	green	Neutral	Neutral	hit	n/a
346.1385	n/a	RESPONSE	n/a	n/a	n/a	n/a	n/a	n/a	n/a	green
346.1487	1.0	ITI	n/a	n/a	n/a	n/a	n/a	n/a	n/a	n/a
347.1487	0.5	FIXCROSS	n/a	n/a	n/a	n/a	n/a	n/a	n/a	n/a
347.6487	0.9	COLOR_NAME	45	Incongruent	czerwony	red	zielony	green	hit	n/a
348.5353	n/a	RESPONSE	n/a	n/a	n/a	n/a	n/a	n/a	n/a	red
348.5487	1.0	ITI	n/a	n/a	n/a	n/a	n/a	n/a	n/a	n/a
349.5487	0.5	FIXCROSS	n/a	n/a	n/a	n/a	n/a	n/a	n/a	n/a
350.0486	0.7167	COLOR_NAME	46	Neutral	zielony	green	Neutral	Neutral	hit	n/a
350.7563	n/a	RESPONSE	n/a	n/a	n/a	n/a	n/a	n/a	n/a	green
350.7653	1.0	ITI	n/a	n/a	n/a	n/a	n/a	n/a	n/a	n/a
351.7653	0.5	FIXCROSS	n/a	n/a	n/a	n/a	n/a	n/a	n/a	n/a
352.2653	1.2166	COLOR_NAME	47	Neutral	niebieski	blue	Neutral	Neutral	hit	n/a
353.4725	n/a	RESPONSE	n/a	n/a	n/a	n/a	n/a	n/a	n/a	blue
353.4819	1.0	ITI	n/a	n/a	n/a	n/a	n/a	n/a	n/a	n/a
354.4819	0.5	FIXCROSS	n/a	n/a	n/a	n/a	n/a	n/a	n/a	n/a
354.9819	0.6	COLOR_NAME	48	Incongruent	niebieski	blue	żółty	yellow	hit	n/a
355.5657	n/a	RESPONSE	n/a	n/a	n/a	n/a	n/a	n/a	n/a	blue
355.5819	1.0	ITI	n/a	n/a	n/a	n/a	n/a	n/a	n/a	n/a
356.5819	0.5	FIXCROSS	n/a	n/a	n/a	n/a	n/a	n/a	n/a	n/a
357.0818	0.6167	COLOR_NAME	49	Neutral	zielony	green	Neutral	Neutral	hit	n/a
357.6908	n/a	RESPONSE	n/a	n/a	n/a	n/a	n/a	n/a	n/a	green
357.6985	1.0	ITI	n/a	n/a	n/a	n/a	n/a	n/a	n/a	n/a
358.6985	0.5	FIXCROSS	n/a	n/a	n/a	n/a	n/a	n/a	n/a	n/a
359.1985	0.8	COLOR_NAME	50	Neutral	zielony	green	Neutral	Neutral	hit	n/a
359.9917	n/a	RESPONSE	n/a	n/a	n/a	n/a	n/a	n/a	n/a	green
359.9985	1.0	ITI	n/a	n/a	n/a	n/a	n/a	n/a	n/a	n/a
360.9984	0.5	FIXCROSS	n/a	n/a	n/a	n/a	n/a	n/a	n/a	n/a
361.4984	1.25	COLOR_NAME	51	Neutral	czerwony	red	Neutral	Neutral	hit	n/a
362.7399	n/a	RESPONSE	n/a	n/a	n/a	n/a	n/a	n/a	n/a	red
362.7484	1.0	ITI	n/a	n/a	n/a	n/a	n/a	n/a	n/a	n/a
363.7484	0.5	FIXCROSS	n/a	n/a	n/a	n/a	n/a	n/a	n/a	n/a
364.2484	0.8333	COLOR_NAME	52	Neutral	czerwony	red	Neutral	Neutral	hit	n/a
365.0728	n/a	RESPONSE	n/a	n/a	n/a	n/a	n/a	n/a	n/a	red
365.0817	1.0	ITI	n/a	n/a	n/a	n/a	n/a	n/a	n/a	n/a
366.0817	0.5	FIXCROSS	n/a	n/a	n/a	n/a	n/a	n/a	n/a	n/a
366.5817	0.7666	COLOR_NAME	53	Neutral	żółty	yellow	Neutral	Neutral	hit	n/a
367.3416	n/a	RESPONSE	n/a	n/a	n/a	n/a	n/a	n/a	n/a	yellow
367.3483	1.0	ITI	n/a	n/a	n/a	n/a	n/a	n/a	n/a	n/a
368.3483	0.5	FIXCROSS	n/a	n/a	n/a	n/a	n/a	n/a	n/a	n/a
368.8483	0.8667	COLOR_NAME	54	Neutral	czerwony	red	Neutral	Neutral	hit	n/a
369.7064	n/a	RESPONSE	n/a	n/a	n/a	n/a	n/a	n/a	n/a	red
369.7149	1.0	ITI	n/a	n/a	n/a	n/a	n/a	n/a	n/a	n/a
370.7149	0.5	FIXCROSS	n/a	n/a	n/a	n/a	n/a	n/a	n/a	n/a
371.2149	0.8833	COLOR_NAME	55	Incongruent	żółty	yellow	czerwony	red	hit	n/a
372.0871	n/a	RESPONSE	n/a	n/a	n/a	n/a	n/a	n/a	n/a	yellow
372.0982	1.0	ITI	n/a	n/a	n/a	n/a	n/a	n/a	n/a	n/a
373.0982	0.5	FIXCROSS	n/a	n/a	n/a	n/a	n/a	n/a	n/a	n/a
373.5982	0.8333	COLOR_NAME	56	Incongruent	czerwony	red	niebieski	blue	hit	n/a
374.4199	n/a	RESPONSE	n/a	n/a	n/a	n/a	n/a	n/a	n/a	red
374.4315	1.0	ITI	n/a	n/a	n/a	n/a	n/a	n/a	n/a	n/a
375.4315	0.5	FIXCROSS	n/a	n/a	n/a	n/a	n/a	n/a	n/a	n/a
375.9315	0.5167	COLOR_NAME	57	Neutral	żółty	yellow	Neutral	Neutral	hit	n/a
376.433	n/a	RESPONSE	n/a	n/a	n/a	n/a	n/a	n/a	n/a	yellow
376.4481	1.0	ITI	n/a	n/a	n/a	n/a	n/a	n/a	n/a	n/a
377.4481	0.5	FIXCROSS	n/a	n/a	n/a	n/a	n/a	n/a	n/a	n/a
377.9481	0.7833	COLOR_NAME	58	Incongruent	zielony	green	niebieski	blue	hit	n/a
378.7179	n/a	RESPONSE	n/a	n/a	n/a	n/a	n/a	n/a	n/a	green
378.7314	1.0	ITI	n/a	n/a	n/a	n/a	n/a	n/a	n/a	n/a
379.7314	0.5	FIXCROSS	n/a	n/a	n/a	n/a	n/a	n/a	n/a	n/a
380.2314	1.15	COLOR_NAME	59	Incongruent	żółty	yellow	zielony	green	hit	n/a
381.3704	n/a	RESPONSE	n/a	n/a	n/a	n/a	n/a	n/a	n/a	yellow
381.3814	1.0	ITI	n/a	n/a	n/a	n/a	n/a	n/a	n/a	n/a
382.3814	0.5	FIXCROSS	n/a	n/a	n/a	n/a	n/a	n/a	n/a	n/a
382.8813	0.9166	COLOR_NAME	60	Incongruent	niebieski	blue	zielony	green	hit	n/a
383.783	n/a	RESPONSE	n/a	n/a	n/a	n/a	n/a	n/a	n/a	blue
383.798	1.0	ITI	n/a	n/a	n/a	n/a	n/a	n/a	n/a	n/a
384.798	0.5	FIXCROSS	n/a	n/a	n/a	n/a	n/a	n/a	n/a	n/a
385.298	0.9333	COLOR_NAME	61	Incongruent	zielony	green	niebieski	blue	hit	n/a
386.2117	n/a	RESPONSE	n/a	n/a	n/a	n/a	n/a	n/a	n/a	green
386.2313	1.0	ITI	n/a	n/a	n/a	n/a	n/a	n/a	n/a	n/a
387.2313	0.5	FIXCROSS	n/a	n/a	n/a	n/a	n/a	n/a	n/a	n/a
387.7312	0.75	COLOR_NAME	62	Neutral	czerwony	red	Neutral	Neutral	hit	n/a
388.4647	n/a	RESPONSE	n/a	n/a	n/a	n/a	n/a	n/a	n/a	red
388.4812	1.0	ITI	n/a	n/a	n/a	n/a	n/a	n/a	n/a	n/a
389.4812	0.5	FIXCROSS	n/a	n/a	n/a	n/a	n/a	n/a	n/a	n/a
389.9812	0.6667	COLOR_NAME	63	Incongruent	czerwony	red	żółty	yellow	hit	n/a
390.6376	n/a	RESPONSE	n/a	n/a	n/a	n/a	n/a	n/a	n/a	red
390.6479	1.0	ITI	n/a	n/a	n/a	n/a	n/a	n/a	n/a	n/a
391.6478	0.5	FIXCROSS	n/a	n/a	n/a	n/a	n/a	n/a	n/a	n/a
392.1478	0.8	COLOR_NAME	64	Incongruent	zielony	green	czerwony	red	hit	n/a
392.9384	n/a	RESPONSE	n/a	n/a	n/a	n/a	n/a	n/a	n/a	green
392.9478	1.0	ITI	n/a	n/a	n/a	n/a	n/a	n/a	n/a	n/a
393.9478	0.5	FIXCROSS	n/a	n/a	n/a	n/a	n/a	n/a	n/a	n/a
394.4478	0.7333	COLOR_NAME	65	Incongruent	żółty	yellow	zielony	green	hit	n/a
395.1754	n/a	RESPONSE	n/a	n/a	n/a	n/a	n/a	n/a	n/a	yellow
395.1811	1.0	ITI	n/a	n/a	n/a	n/a	n/a	n/a	n/a	n/a
396.1811	0.5	FIXCROSS	n/a	n/a	n/a	n/a	n/a	n/a	n/a	n/a
396.6811	0.8333	COLOR_NAME	66	Incongruent	niebieski	blue	zielony	green	hit	n/a
397.5081	n/a	RESPONSE	n/a	n/a	n/a	n/a	n/a	n/a	n/a	blue
397.5144	1.0	ITI	n/a	n/a	n/a	n/a	n/a	n/a	n/a	n/a
398.5144	0.5	FIXCROSS	n/a	n/a	n/a	n/a	n/a	n/a	n/a	n/a
399.0144	0.8167	COLOR_NAME	67	Neutral	żółty	yellow	Neutral	Neutral	hit	n/a
399.825	n/a	RESPONSE	n/a	n/a	n/a	n/a	n/a	n/a	n/a	yellow
399.831	1.0	ITI	n/a	n/a	n/a	n/a	n/a	n/a	n/a	n/a
400.831	0.5	FIXCROSS	n/a	n/a	n/a	n/a	n/a	n/a	n/a	n/a
401.331	0.5	COLOR_NAME	68	Neutral	niebieski	blue	Neutral	Neutral	hit	n/a
401.8222	n/a	RESPONSE	n/a	n/a	n/a	n/a	n/a	n/a	n/a	blue
401.831	1.0	ITI	n/a	n/a	n/a	n/a	n/a	n/a	n/a	n/a
402.831	0.5	FIXCROSS	n/a	n/a	n/a	n/a	n/a	n/a	n/a	n/a
403.3309	0.3833	COLOR_NAME	69	Neutral	żółty	yellow	Neutral	Neutral	hit	n/a
403.7077	n/a	RESPONSE	n/a	n/a	n/a	n/a	n/a	n/a	n/a	yellow
403.7143	1.0	ITI	n/a	n/a	n/a	n/a	n/a	n/a	n/a	n/a
404.7142	0.5	FIXCROSS	n/a	n/a	n/a	n/a	n/a	n/a	n/a	n/a
405.2142	0.7832	COLOR_NAME	70	Incongruent	czerwony	red	niebieski	blue	hit	n/a
405.9926	n/a	RESPONSE	n/a	n/a	n/a	n/a	n/a	n/a	n/a	red
405.9975	1.0001	ITI	n/a	n/a	n/a	n/a	n/a	n/a	n/a	n/a
406.9975	0.5	FIXCROSS	n/a	n/a	n/a	n/a	n/a	n/a	n/a	n/a
407.4975	0.6	COLOR_NAME	71	Neutral	niebieski	blue	Neutral	Neutral	hit	n/a
408.0857	n/a	RESPONSE	n/a	n/a	n/a	n/a	n/a	n/a	n/a	blue
408.0975	1.0	ITI	n/a	n/a	n/a	n/a	n/a	n/a	n/a	n/a
409.0975	0.5	FIXCROSS	n/a	n/a	n/a	n/a	n/a	n/a	n/a	n/a
409.5975	0.8667	COLOR_NAME	72	Incongruent	czerwony	red	żółty	yellow	hit	n/a
410.4505	n/a	RESPONSE	n/a	n/a	n/a	n/a	n/a	n/a	n/a	red
410.4641	1.0166	ITI	n/a	n/a	n/a	n/a	n/a	n/a	n/a	n/a
412.8952	n/a	RESPONSE	n/a	n/a	n/a	n/a	n/a	n/a	n/a	n/a
