onset	duration	trial_type	melody_number	melody_part	key	sound	action
0.0	14.084	CUE_START	n/a	n/a	n/a	n/a	n/a
14.085	7.76	FIXCROSS	n/a	n/a	n/a	n/a	n/a
21.844	6.324	CUE_LISTEN	M1	1	n/a	n/a	n/a
28.168	7.758	FIXCROSS	n/a	n/a	n/a	n/a	n/a
35.926	6.317	CUE_PLAYBACK_RIGHT_HAND	M1	1	n/a	n/a	n/a
36.375	n/a	RESPONSE	M1	1	12	C4	press
36.774	n/a	RESPONSE	M1	1	14	D4	press
37.145	n/a	RESPONSE	M1	1	12	C4	release
37.156	n/a	RESPONSE	M1	1	16	E4	press
37.378	n/a	RESPONSE	M1	1	14	D4	release
37.585	n/a	RESPONSE	M1	1	12	C4	press
37.62	n/a	RESPONSE	M1	1	16	E4	release
37.854	n/a	RESPONSE	M1	1	12	C4	release
37.982	n/a	RESPONSE	M1	1	12	C4	press
38.43	n/a	RESPONSE	M1	1	14	D4	press
38.757	n/a	RESPONSE	M1	1	12	C4	release
38.763	n/a	RESPONSE	M1	1	16	E4	press
38.882	n/a	RESPONSE	M1	1	14	D4	release
39.148	n/a	RESPONSE	M1	1	12	C4	press
39.179	n/a	RESPONSE	M1	1	16	E4	release
39.423	n/a	RESPONSE	M1	1	12	C4	release
39.514	n/a	RESPONSE	M1	1	16	E4	press
39.879	n/a	RESPONSE	M1	1	17	F4	press
40.003	n/a	RESPONSE	M1	1	16	E4	release
40.182	n/a	RESPONSE	M1	1	19	G4	press
40.258	n/a	RESPONSE	M1	1	17	F4	release
40.725	n/a	RESPONSE	M1	1	19	G4	release
40.86	n/a	RESPONSE	M1	1	16	E4	press
41.224	n/a	RESPONSE	M1	1	17	F4	press
41.303	n/a	RESPONSE	M1	1	16	E4	release
41.557	n/a	RESPONSE	M1	1	19	G4	press
41.696	n/a	RESPONSE	M1	1	17	F4	release
42.216	n/a	RESPONSE	M1	1	19	G4	release
42.243	7.758	FIXCROSS	n/a	n/a	n/a	n/a	n/a
50.001	6.317	CUE_LISTEN	        M1	2	n/a	n/a	n/a
56.318	7.758	FIXCROSS	n/a	n/a	n/a	n/a	n/a
64.076	6.317	CUE_PLAYBACK_RIGHT_HAND	        M1	2	n/a	n/a	n/a
64.446	n/a	RESPONSE	        M1	2	19	G4	press
64.478	n/a	RESPONSE	        M1	2	17	F4	press
64.629	n/a	RESPONSE	        M1	2	17	F4	release
64.81	n/a	RESPONSE	        M1	2	19	G4	release
64.943	n/a	RESPONSE	        M1	2	19	G4	press
65.163	n/a	RESPONSE	        M1	2	21	A4	press
65.244	n/a	RESPONSE	        M1	2	19	G4	release
65.385	n/a	RESPONSE	        M1	2	19	G4	press
65.608	n/a	RESPONSE	        M1	2	17	F4	press
65.788	n/a	RESPONSE	        M1	2	19	G4	release
65.82	n/a	RESPONSE	        M1	2	16	E4	press
65.89	n/a	RESPONSE	        M1	2	21	A4	release
65.934	n/a	RESPONSE	        M1	2	17	F4	release
66.203	n/a	RESPONSE	        M1	2	16	E4	release
66.214	n/a	RESPONSE	        M1	2	12	C4	press
66.235	n/a	RESPONSE	        M1	2	14	D4	press
66.397	n/a	RESPONSE	        M1	2	14	D4	release
66.518	n/a	RESPONSE	        M1	2	12	C4	release
66.589	n/a	RESPONSE	        M1	2	19	G4	press
66.84	n/a	RESPONSE	        M1	2	21	A4	press
66.864	n/a	RESPONSE	        M1	2	19	G4	release
67.033	n/a	RESPONSE	        M1	2	19	G4	press
67.184	n/a	RESPONSE	        M1	2	17	F4	press
67.285	n/a	RESPONSE	        M1	2	19	G4	release
67.326	n/a	RESPONSE	        M1	2	21	A4	release
67.379	n/a	RESPONSE	        M1	2	16	E4	press
67.489	n/a	RESPONSE	        M1	2	17	F4	release
67.748	n/a	RESPONSE	        M1	2	12	C4	press
67.768	n/a	RESPONSE	        M1	2	16	E4	release
68.012	n/a	RESPONSE	        M1	2	12	C4	release
68.118	n/a	RESPONSE	        M1	2	12	C4	press
68.473	n/a	RESPONSE	        M1	2	12	C4	release
68.489	n/a	RESPONSE	        M1	2	07	G3	press
68.843	n/a	RESPONSE	        M1	2	12	C4	press
68.904	n/a	RESPONSE	        M1	2	07	G3	release
69.419	n/a	RESPONSE	        M1	2	12	C4	release
69.563	n/a	RESPONSE	        M1	2	12	C4	press
69.924	n/a	RESPONSE	        M1	2	07	G3	press
70.055	n/a	RESPONSE	        M1	2	12	C4	release
70.3	n/a	RESPONSE	        M1	2	12	C4	press
70.342	n/a	RESPONSE	        M1	2	07	G3	release
70.393	7.758	FIXCROSS	n/a	n/a	n/a	n/a	n/a
70.788	n/a	RESPONSE	        M1	2	12	C4	release
78.152	6.325	CUE_LISTEN	        M7	1	n/a	n/a	n/a
84.476	7.758	FIXCROSS	n/a	n/a	n/a	n/a	n/a
92.235	6.317	CUE_PLAYBACK_BOTH_HANDS	        M7	1	n/a	n/a	n/a
92.552	n/a	RESPONSE	        M7	1	05	F3	press
92.56	n/a	RESPONSE	        M7	1	21	A4	press
92.873	n/a	RESPONSE	        M7	1	21	A4	release
92.944	n/a	RESPONSE	        M7	1	09	A3	press
92.955	n/a	RESPONSE	        M7	1	21	A4	press
93.006	n/a	RESPONSE	        M7	1	05	F3	release
93.219	n/a	RESPONSE	        M7	1	21	A4	release
93.26	n/a	RESPONSE	        M7	1	09	A3	release
93.33	n/a	RESPONSE	        M7	1	04	E3	press
93.343	n/a	RESPONSE	        M7	1	21	A4	press
93.715	n/a	RESPONSE	        M7	1	09	A3	press
93.865	n/a	RESPONSE	        M7	1	04	E3	release
93.896	n/a	RESPONSE	        M7	1	21	A4	release
93.998	n/a	RESPONSE	        M7	1	09	A3	release
94.089	n/a	RESPONSE	        M7	1	02	D3	press
94.092	n/a	RESPONSE	        M7	1	21	A4	press
94.382	n/a	RESPONSE	        M7	1	21	A4	release
94.433	n/a	RESPONSE	        M7	1	02	D3	release
94.454	n/a	RESPONSE	        M7	1	09	A3	press
94.475	n/a	RESPONSE	        M7	1	21	A4	press
94.736	n/a	RESPONSE	        M7	1	21	A4	release
94.808	n/a	RESPONSE	        M7	1	09	A3	release
94.842	n/a	RESPONSE	        M7	1	00	C3	press
94.86	n/a	RESPONSE	        M7	1	21	A4	press
95.222	n/a	RESPONSE	        M7	1	09	A3	press
95.385	n/a	RESPONSE	        M7	1	21	A4	release
95.406	n/a	RESPONSE	        M7	1	00	C3	release
95.466	n/a	RESPONSE	        M7	1	09	A3	release
95.578	n/a	RESPONSE	        M7	1	05	F3	press
95.588	n/a	RESPONSE	        M7	1	21	A4	press
95.949	n/a	RESPONSE	        M7	1	24	C5	press
95.952	n/a	RESPONSE	        M7	1	09	A3	press
96.052	n/a	RESPONSE	        M7	1	21	A4	release
96.073	n/a	RESPONSE	        M7	1	05	F3	release
96.294	n/a	RESPONSE	        M7	1	17	F4	press
96.315	n/a	RESPONSE	        M7	1	02	D3	press
96.336	n/a	RESPONSE	        M7	1	09	A3	release
96.63	n/a	RESPONSE	        M7	1	24	C5	release
96.652	n/a	RESPONSE	        M7	1	09	A3	press
96.672	n/a	RESPONSE	        M7	1	19	G4	press
96.732	n/a	RESPONSE	        M7	1	02	D3	release
96.773	n/a	RESPONSE	        M7	1	17	F4	release
97.015	n/a	RESPONSE	        M7	1	21	A4	press
97.025	n/a	RESPONSE	        M7	1	00	C3	press
97.046	n/a	RESPONSE	        M7	1	09	A3	release
97.108	n/a	RESPONSE	        M7	1	19	G4	release
97.399	n/a	RESPONSE	        M7	1	09	A3	press
97.46	n/a	RESPONSE	        M7	1	00	C3	release
97.75	n/a	RESPONSE	        M7	1	00	C3	press
97.823	n/a	RESPONSE	        M7	1	09	A3	release
98.123	n/a	RESPONSE	        M7	1	09	A3	press
98.179	n/a	RESPONSE	        M7	1	00	C3	release
98.398	n/a	RESPONSE	        M7	1	09	A3	release
98.49	n/a	RESPONSE	        M7	1	21	A4	release
98.552	7.758	FIXCROSS	n/a	n/a	n/a	n/a	n/a
106.31	6.325	CUE_LISTEN	        M7	2	n/a	n/a	n/a
112.635	7.758	FIXCROSS	n/a	n/a	n/a	n/a	n/a
120.393	6.317	CUE_PLAYBACK_BOTH_HANDS	        M7	2	n/a	n/a	n/a
120.75	n/a	RESPONSE	        M7	2	22	A#4	press
120.759	n/a	RESPONSE	        M7	2	09	A3	press
121.043	n/a	RESPONSE	        M7	2	09	A3	release
121.084	n/a	RESPONSE	        M7	2	22	A#4	release
121.625	n/a	RESPONSE	        M7	2	09	A3	press
121.656	n/a	RESPONSE	        M7	2	22	A#4	press
121.938	n/a	RESPONSE	        M7	2	09	A3	release
122.47	n/a	RESPONSE	        M7	2	07	G3	press
122.87	n/a	RESPONSE	        M7	2	07	G3	release
123.062	n/a	RESPONSE	        M7	2	22	A#4	release
123.403	n/a	RESPONSE	        M7	2	09	A3	press
123.415	n/a	RESPONSE	        M7	2	22	A#4	press
123.719	n/a	RESPONSE	        M7	2	09	A3	release
124.658	n/a	RESPONSE	        M7	2	22	A#4	release
124.689	n/a	RESPONSE	        M7	2	09	A3	press
124.752	n/a	RESPONSE	        M7	2	22	A#4	press
125.034	n/a	RESPONSE	        M7	2	22	A#4	release
125.103	n/a	RESPONSE	        M7	2	22	A#4	press
125.124	n/a	RESPONSE	        M7	2	09	A3	release
125.235	n/a	RESPONSE	        M7	2	12	C4	press
125.386	n/a	RESPONSE	        M7	2	12	C4	release
125.389	n/a	RESPONSE	        M7	2	22	A#4	release
126.379	n/a	RESPONSE	        M7	2	02	D3	press
126.41	n/a	RESPONSE	        M7	2	22	A#4	press
126.682	n/a	RESPONSE	        M7	2	02	D3	release
126.703	n/a	RESPONSE	        M7	2	22	A#4	release
126.71	7.758	FIXCROSS	n/a	n/a	n/a	n/a	n/a
134.468	6.317	CUE_LISTEN	        M5	1	n/a	n/a	n/a
140.785	7.758	FIXCROSS	n/a	n/a	n/a	n/a	n/a
148.543	6.325	CUE_PLAYBACK_BOTH_HANDS	        M5	1	n/a	n/a	n/a
149.04	n/a	RESPONSE	        M5	1	17	F4	press
149.062	n/a	RESPONSE	        M5	1	00	C3	press
149.07	n/a	RESPONSE	        M5	1	07	G3	press
149.074	n/a	RESPONSE	        M5	1	19	G4	press
149.208	n/a	RESPONSE	        M5	1	19	G4	release
149.5	n/a	RESPONSE	        M5	1	17	F4	release
149.572	n/a	RESPONSE	        M5	1	07	G3	release
149.653	n/a	RESPONSE	        M5	1	00	C3	release
149.74	n/a	RESPONSE	        M5	1	19	G4	press
149.749	n/a	RESPONSE	        M5	1	00	C3	press
149.762	n/a	RESPONSE	        M5	1	07	G3	press
150.315	n/a	RESPONSE	        M5	1	16	E4	press
150.588	n/a	RESPONSE	        M5	1	16	E4	release
150.592	n/a	RESPONSE	        M5	1	19	G4	release
150.78	n/a	RESPONSE	        M5	1	16	E4	press
150.98	n/a	RESPONSE	        M5	1	07	G3	release
151.019	n/a	RESPONSE	        M5	1	00	C3	release
151.028	n/a	RESPONSE	        M5	1	16	E4	release
151.179	n/a	RESPONSE	        M5	1	17	F4	press
151.182	n/a	RESPONSE	        M5	1	02	D3	press
151.192	n/a	RESPONSE	        M5	1	05	F3	press
151.214	n/a	RESPONSE	        M5	1	07	G3	press
151.614	n/a	RESPONSE	        M5	1	17	F4	release
151.625	n/a	RESPONSE	        M5	1	14	D4	press
151.886	n/a	RESPONSE	        M5	1	14	D4	release
151.998	n/a	RESPONSE	        M5	1	14	D4	press
152.129	n/a	RESPONSE	        M5	1	02	D3	release
152.21	n/a	RESPONSE	        M5	1	05	F3	release
152.272	n/a	RESPONSE	        M5	1	14	D4	release
152.323	n/a	RESPONSE	        M5	1	12	C4	press
152.344	n/a	RESPONSE	        M5	1	00	C3	press
152.365	n/a	RESPONSE	        M5	1	04	E3	press
152.546	n/a	RESPONSE	        M5	1	16	E4	press
152.658	n/a	RESPONSE	        M5	1	12	C4	release
152.769	n/a	RESPONSE	        M5	1	19	G4	press
152.86	n/a	RESPONSE	        M5	1	16	E4	release
153.583	n/a	RESPONSE	        M5	1	04	E3	release
153.585	n/a	RESPONSE	        M5	1	00	C3	release
153.595	n/a	RESPONSE	        M5	1	19	G4	release
153.876	n/a	RESPONSE	        M5	1	07	G3	release
154.868	7.758	FIXCROSS	n/a	n/a	n/a	n/a	n/a
162.627	6.317	CUE_LISTEN	        M5	2	n/a	n/a	n/a
168.943	7.758	FIXCROSS	n/a	n/a	n/a	n/a	n/a
176.702	6.317	CUE_PLAYBACK_BOTH_HANDS	        M5	2	n/a	n/a	n/a
177.096	n/a	RESPONSE	        M5	2	19	G4	press
177.13	n/a	RESPONSE	        M5	2	07	G3	press
177.139	n/a	RESPONSE	        M5	2	04	E3	press
177.172	n/a	RESPONSE	        M5	2	00	C3	press
177.59	n/a	RESPONSE	        M5	2	16	E4	press
177.635	n/a	RESPONSE	        M5	2	19	G4	release
177.868	n/a	RESPONSE	        M5	2	16	E4	release
178.023	n/a	RESPONSE	        M5	2	16	E4	press
178.17	n/a	RESPONSE	        M5	2	00	C3	release
178.244	n/a	RESPONSE	        M5	2	04	E3	release
178.258	n/a	RESPONSE	        M5	2	16	E4	release
178.423	n/a	RESPONSE	        M5	2	02	D3	press
178.425	n/a	RESPONSE	        M5	2	05	F3	press
178.428	n/a	RESPONSE	        M5	2	17	F4	press
178.838	n/a	RESPONSE	        M5	2	17	F4	release
178.886	n/a	RESPONSE	        M5	2	14	D4	press
179.222	n/a	RESPONSE	        M5	2	14	D4	release
179.309	n/a	RESPONSE	        M5	2	14	D4	press
179.472	n/a	RESPONSE	        M5	2	05	F3	release
179.474	n/a	RESPONSE	        M5	2	02	D3	release
179.509	n/a	RESPONSE	        M5	2	07	G3	release
179.559	n/a	RESPONSE	        M5	2	14	D4	release
179.66	n/a	RESPONSE	        M5	2	04	E3	press
179.67	n/a	RESPONSE	        M5	2	07	G3	press
179.683	n/a	RESPONSE	        M5	2	00	C3	press
179.695	n/a	RESPONSE	        M5	2	12	C4	press
179.884	n/a	RESPONSE	        M5	2	16	E4	press
180.025	n/a	RESPONSE	        M5	2	12	C4	release
180.128	n/a	RESPONSE	        M5	2	12	C4	press
180.194	n/a	RESPONSE	        M5	2	16	E4	release
181.579	n/a	RESPONSE	        M5	2	00	C3	release
181.59	n/a	RESPONSE	        M5	2	04	E3	release
181.612	n/a	RESPONSE	        M5	2	12	C4	release
181.743	n/a	RESPONSE	        M5	2	07	G3	release
183.018	7.758	FIXCROSS	n/a	n/a	n/a	n/a	n/a
190.777	6.325	CUE_LISTEN	        M3	1	n/a	n/a	n/a
197.102	7.758	FIXCROSS	n/a	n/a	n/a	n/a	n/a
204.86	6.317	CUE_PLAYBACK_RIGHT_HAND	        M3	1	n/a	n/a	n/a
205.196	n/a	RESPONSE	        M3	1	07	G3	press
205.199	n/a	RESPONSE	        M3	1	22	A#4	press
205.949	n/a	RESPONSE	        M3	1	21	A4	press
206.03	n/a	RESPONSE	        M3	1	22	A#4	release
206.653	n/a	RESPONSE	        M3	1	19	G4	press
206.734	n/a	RESPONSE	        M3	1	21	A4	release
207.274	n/a	RESPONSE	        M3	1	21	A4	press
207.295	n/a	RESPONSE	        M3	1	05	F3	press
207.376	n/a	RESPONSE	        M3	1	19	G4	release
207.425	n/a	RESPONSE	        M3	1	07	G3	release
208.041	n/a	RESPONSE	        M3	1	14	D4	press
208.19	n/a	RESPONSE	        M3	1	21	A4	release
208.578	n/a	RESPONSE	        M3	1	14	D4	release
208.755	n/a	RESPONSE	        M3	1	14	D4	press
209.46	n/a	RESPONSE	        M3	1	03	D#3	press
209.478	n/a	RESPONSE	        M3	1	17	F4	press
209.481	n/a	RESPONSE	        M3	1	19	G4	press
209.601	n/a	RESPONSE	        M3	1	05	F3	release
209.818	n/a	RESPONSE	        M3	1	19	G4	release
209.82	n/a	RESPONSE	        M3	1	17	F4	release
210.013	n/a	RESPONSE	        M3	1	19	G4	press
210.038	n/a	RESPONSE	        M3	1	14	D4	release
210.739	n/a	RESPONSE	        M3	1	09	A3	press
211.054	n/a	RESPONSE	        M3	1	09	A3	release
211.177	7.758	FIXCROSS	n/a	n/a	n/a	n/a	n/a
211.226	n/a	RESPONSE	        M3	1	07	G3	press
211.398	n/a	RESPONSE	        M3	1	19	G4	release
211.659	n/a	RESPONSE	        M3	1	09	A3	press
211.819	n/a	RESPONSE	        M3	1	07	G3	release
212.05	n/a	RESPONSE	        M3	1	10	A#3	press
212.171	n/a	RESPONSE	        M3	1	09	A3	release
212.434	n/a	RESPONSE	        M3	1	11	B3	press
212.484	n/a	RESPONSE	        M3	1	12	C4	press
212.645	n/a	RESPONSE	        M3	1	10	A#3	release
212.736	n/a	RESPONSE	        M3	1	11	B3	release
212.819	n/a	RESPONSE	        M3	1	12	C4	release
212.879	n/a	RESPONSE	        M3	1	02	D3	press
212.89	n/a	RESPONSE	        M3	1	03	D#3	release
212.952	n/a	RESPONSE	        M3	1	12	C4	press
214.454	n/a	RESPONSE	        M3	1	12	C4	release
214.475	n/a	RESPONSE	        M3	1	02	D3	release
218.935	6.317	CUE_LISTEN	        M3	2	n/a	n/a	n/a
223.69	n/a	RESPONSE	        M3	2	12	C4	press
224.22	n/a	RESPONSE	        M3	2	11	B3	press
224.32	n/a	RESPONSE	        M3	2	12	C4	release
224.641	n/a	RESPONSE	        M3	2	11	B3	release
225.234	n/a	RESPONSE	        M3	2	12	C4	press
225.252	7.758	FIXCROSS	n/a	n/a	n/a	n/a	n/a
225.556	n/a	RESPONSE	        M3	2	11	B3	press
225.605	n/a	RESPONSE	        M3	2	12	C4	release
225.836	n/a	RESPONSE	        M3	2	11	B3	release
233.01	6.325	CUE_PLAYBACK_RIGHT_HAND	        M3	2	n/a	n/a	n/a
233.26	n/a	RESPONSE	        M3	2	05	F3	press
233.291	n/a	RESPONSE	        M3	2	10	A#3	press
233.295	n/a	RESPONSE	        M3	2	15	D#4	press
233.935	n/a	RESPONSE	        M3	2	17	F4	press
233.996	n/a	RESPONSE	        M3	2	15	D#4	release
234.278	n/a	RESPONSE	        M3	2	15	D#4	press
234.569	n/a	RESPONSE	        M3	2	14	D4	press
234.63	n/a	RESPONSE	        M3	2	07	G3	press
234.633	n/a	RESPONSE	        M3	2	09	A3	press
234.653	n/a	RESPONSE	        M3	2	10	A#3	release
234.696	n/a	RESPONSE	        M3	2	17	F4	release
234.955	n/a	RESPONSE	        M3	2	15	D#4	release
234.958	n/a	RESPONSE	        M3	2	12	C4	press
235.0	n/a	RESPONSE	        M3	2	14	D4	release
235.189	n/a	RESPONSE	        M3	2	09	A3	release
235.27	n/a	RESPONSE	        M3	2	10	A#3	press
235.283	n/a	RESPONSE	        M3	2	14	D4	press
235.314	n/a	RESPONSE	        M3	2	07	G3	release
235.324	n/a	RESPONSE	        M3	2	05	F3	release
235.365	n/a	RESPONSE	        M3	2	12	C4	release
236.066	n/a	RESPONSE	        M3	2	15	D#4	press
236.089	n/a	RESPONSE	        M3	2	05	F3	press
236.149	n/a	RESPONSE	        M3	2	14	D4	release
236.32	n/a	RESPONSE	        M3	2	10	A#3	release
236.441	n/a	RESPONSE	        M3	2	14	D4	press
236.615	n/a	RESPONSE	        M3	2	15	D#4	release
236.736	n/a	RESPONSE	        M3	2	12	C4	press
236.775	n/a	RESPONSE	        M3	2	14	D4	release
237.106	n/a	RESPONSE	        M3	2	10	A#3	press
237.279	n/a	RESPONSE	        M3	2	12	C4	release
237.329	n/a	RESPONSE	        M3	2	05	F3	release
237.458	n/a	RESPONSE	        M3	2	10	A#3	release
237.46	n/a	RESPONSE	        M3	2	09	A3	press
237.481	n/a	RESPONSE	        M3	2	12	C4	press
237.985	n/a	RESPONSE	        M3	2	12	C4	release
238.05	n/a	RESPONSE	        M3	2	09	A3	release
238.148	n/a	RESPONSE	        M3	2	12	C4	press
238.15	n/a	RESPONSE	        M3	2	06	F#3	press
238.443	n/a	RESPONSE	        M3	2	14	D4	press
238.513	n/a	RESPONSE	        M3	2	12	C4	release
238.748	n/a	RESPONSE	        M3	2	12	C4	press
238.863	n/a	RESPONSE	        M3	2	14	D4	release
238.97	n/a	RESPONSE	        M3	2	12	C4	release
238.998	n/a	RESPONSE	        M3	2	06	F#3	release
239.335	7.758	FIXCROSS	n/a	n/a	n/a	n/a	n/a
247.094	6.317	CUE_LISTEN	        M6	1	n/a	n/a	n/a
253.41	7.758	FIXCROSS	n/a	n/a	n/a	n/a	n/a
261.169	6.325	CUE_PLAYBACK_RIGHT_HAND	        M6	1	n/a	n/a	n/a
262.071	n/a	RESPONSE	        M6	1	19	G4	press
262.303	n/a	RESPONSE	        M6	1	19	G4	release
262.454	n/a	RESPONSE	        M6	1	12	C4	press
262.688	n/a	RESPONSE	        M6	1	12	C4	release
262.776	n/a	RESPONSE	        M6	1	16	E4	press
263.128	n/a	RESPONSE	        M6	1	19	G4	press
263.46	n/a	RESPONSE	        M6	1	21	A4	press
263.533	n/a	RESPONSE	        M6	1	19	G4	release
263.843	n/a	RESPONSE	        M6	1	19	G4	press
263.994	n/a	RESPONSE	        M6	1	21	A4	release
264.165	n/a	RESPONSE	        M6	1	17	F4	press
264.268	n/a	RESPONSE	        M6	1	19	G4	release
264.308	n/a	RESPONSE	        M6	1	16	E4	release
264.581	n/a	RESPONSE	        M6	1	16	E4	press
264.691	n/a	RESPONSE	        M6	1	17	F4	release
264.844	n/a	RESPONSE	        M6	1	16	E4	release
266.894	n/a	RESPONSE	        M6	1	19	G4	press
267.285	n/a	RESPONSE	        M6	1	19	G4	release
267.494	7.758	FIXCROSS	n/a	n/a	n/a	n/a	n/a
267.884	n/a	RESPONSE	        M6	1	16	E4	press
268.258	n/a	RESPONSE	        M6	1	19	G4	press
268.869	n/a	RESPONSE	        M6	1	19	G4	release
268.959	n/a	RESPONSE	        M6	1	16	E4	release
275.252	6.317	CUE_LISTEN	        M6	2	n/a	n/a	n/a
281.569	7.758	FIXCROSS	n/a	n/a	n/a	n/a	n/a
289.327	6.317	CUE_PLAYBACK_RIGHT_HAND	        M6	2	n/a	n/a	n/a
289.584	n/a	RESPONSE	        M6	2	16	E4	press
289.595	n/a	RESPONSE	        M6	2	07	G3	press
289.669	n/a	RESPONSE	        M6	2	11	B3	press
290.074	n/a	RESPONSE	        M6	2	17	F4	press
290.505	n/a	RESPONSE	        M6	2	19	G4	press
290.526	n/a	RESPONSE	        M6	2	21	A4	press
290.593	n/a	RESPONSE	        M6	2	17	F4	release
290.689	n/a	RESPONSE	        M6	2	21	A4	release
291.296	n/a	RESPONSE	        M6	2	21	A4	press
291.4	n/a	RESPONSE	        M6	2	19	G4	release
291.569	n/a	RESPONSE	        M6	2	21	A4	release
292.093	n/a	RESPONSE	        M6	2	11	B3	release
292.174	n/a	RESPONSE	        M6	2	16	E4	release
292.205	n/a	RESPONSE	        M6	2	22	A#4	press
292.224	n/a	RESPONSE	        M6	2	07	G3	release
292.708	n/a	RESPONSE	        M6	2	22	A#4	release
295.644	7.758	FIXCROSS	n/a	n/a	n/a	n/a	n/a
303.402	6.317	CUE_LISTEN	        M2	1	n/a	n/a	n/a
309.719	7.758	FIXCROSS	n/a	n/a	n/a	n/a	n/a
317.477	6.325	CUE_PLAYBACK_BOTH_HANDS	        M2	1	n/a	n/a	n/a
317.87	n/a	RESPONSE	        M2	1	07	G3	press
317.873	n/a	RESPONSE	        M2	1	00	C3	press
317.875	n/a	RESPONSE	        M2	1	24	C5	press
318.271	n/a	RESPONSE	        M2	1	19	G4	press
318.435	n/a	RESPONSE	        M2	1	24	C5	release
318.536	n/a	RESPONSE	        M2	1	19	G4	release
318.566	n/a	RESPONSE	        M2	1	07	G3	release
318.643	n/a	RESPONSE	        M2	1	07	G3	press
318.645	n/a	RESPONSE	        M2	1	19	G4	press
319.001	n/a	RESPONSE	        M2	1	17	F4	press
319.146	n/a	RESPONSE	        M2	1	19	G4	release
319.279	n/a	RESPONSE	        M2	1	00	C3	release
319.333	n/a	RESPONSE	        M2	1	17	F4	release
319.351	n/a	RESPONSE	        M2	1	16	E4	press
319.374	n/a	RESPONSE	        M2	1	00	C3	press
319.689	n/a	RESPONSE	        M2	1	17	F4	press
319.74	n/a	RESPONSE	        M2	1	16	E4	release
319.949	n/a	RESPONSE	        M2	1	07	G3	release
319.981	n/a	RESPONSE	        M2	1	17	F4	release
320.021	n/a	RESPONSE	        M2	1	19	G4	press
320.033	n/a	RESPONSE	        M2	1	07	G3	press
320.589	n/a	RESPONSE	        M2	1	19	G4	release
320.663	n/a	RESPONSE	        M2	1	00	C3	release
320.665	n/a	RESPONSE	        M2	1	07	G3	release
320.703	n/a	RESPONSE	        M2	1	24	C5	press
320.719	n/a	RESPONSE	        M2	1	00	C3	press
320.733	n/a	RESPONSE	        M2	1	07	G3	press
321.06	n/a	RESPONSE	        M2	1	24	C5	release
321.171	n/a	RESPONSE	        M2	1	07	G3	release
321.183	n/a	RESPONSE	        M2	1	00	C3	release
321.284	n/a	RESPONSE	        M2	1	19	G4	press
321.465	n/a	RESPONSE	        M2	1	00	C3	press
321.486	n/a	RESPONSE	        M2	1	07	G3	press
321.748	n/a	RESPONSE	        M2	1	19	G4	release
321.829	n/a	RESPONSE	        M2	1	00	C3	release
321.833	n/a	RESPONSE	        M2	1	07	G3	release
322.171	n/a	RESPONSE	        M2	1	00	C3	press
322.203	n/a	RESPONSE	        M2	1	07	G3	press
322.205	n/a	RESPONSE	        M2	1	24	C5	press
322.536	n/a	RESPONSE	        M2	1	19	G4	press
322.636	n/a	RESPONSE	        M2	1	24	C5	release
322.729	n/a	RESPONSE	        M2	1	00	C3	release
322.791	n/a	RESPONSE	        M2	1	19	G4	release
322.863	n/a	RESPONSE	        M2	1	00	C3	press
322.901	n/a	RESPONSE	        M2	1	19	G4	press
323.183	n/a	RESPONSE	        M2	1	17	F4	press
323.334	n/a	RESPONSE	        M2	1	19	G4	release
323.459	n/a	RESPONSE	        M2	1	16	E4	press
323.499	n/a	RESPONSE	        M2	1	17	F4	release
323.802	7.758	FIXCROSS	n/a	n/a	n/a	n/a	n/a
323.82	n/a	RESPONSE	        M2	1	14	D4	press
323.911	n/a	RESPONSE	        M2	1	16	E4	release
324.033	n/a	RESPONSE	        M2	1	00	C3	release
324.144	n/a	RESPONSE	        M2	1	14	D4	release
324.146	n/a	RESPONSE	        M2	1	12	C4	press
324.149	n/a	RESPONSE	        M2	1	00	C3	press
324.978	n/a	RESPONSE	        M2	1	12	C4	release
324.989	n/a	RESPONSE	        M2	1	00	C3	release
325.013	n/a	RESPONSE	        M2	1	07	G3	release
331.56	6.325	CUE_LISTEN	        M2	2	n/a	n/a	n/a
337.885	7.758	FIXCROSS	n/a	n/a	n/a	n/a	n/a
345.644	6.308	CUE_PLAYBACK_BOTH_HANDS	        M2	2	n/a	n/a	n/a
346.039	n/a	RESPONSE	        M2	2	07	G3	press
346.049	n/a	RESPONSE	        M2	2	00	C3	press
346.46	n/a	RESPONSE	        M2	2	00	C3	release
346.521	n/a	RESPONSE	        M2	2	07	G3	release
347.023	n/a	RESPONSE	        M2	2	07	G3	press
347.025	n/a	RESPONSE	        M2	2	00	C3	press
347.028	n/a	RESPONSE	        M2	2	12	C4	press
347.428	n/a	RESPONSE	        M2	2	14	D4	press
347.51	n/a	RESPONSE	        M2	2	12	C4	release
347.678	n/a	RESPONSE	        M2	2	00	C3	release
347.68	n/a	RESPONSE	        M2	2	14	D4	release
347.798	n/a	RESPONSE	        M2	2	16	E4	press
347.8	n/a	RESPONSE	        M2	2	00	C3	press
348.13	n/a	RESPONSE	        M2	2	14	D4	press
348.158	n/a	RESPONSE	        M2	2	16	E4	release
348.306	n/a	RESPONSE	        M2	2	00	C3	release
348.373	n/a	RESPONSE	        M2	2	14	D4	release
348.461	n/a	RESPONSE	        M2	2	16	E4	press
348.464	n/a	RESPONSE	        M2	2	00	C3	press
348.806	n/a	RESPONSE	        M2	2	17	F4	press
348.895	n/a	RESPONSE	        M2	2	16	E4	release
349.02	n/a	RESPONSE	        M2	2	00	C3	release
349.06	n/a	RESPONSE	        M2	2	07	G3	release
349.079	n/a	RESPONSE	        M2	2	17	F4	release
349.113	n/a	RESPONSE	        M2	2	19	G4	press
349.158	n/a	RESPONSE	        M2	2	00	C3	press
349.165	n/a	RESPONSE	        M2	2	07	G3	press
349.641	n/a	RESPONSE	        M2	2	19	G4	release
349.716	n/a	RESPONSE	        M2	2	00	C3	release
349.828	n/a	RESPONSE	        M2	2	16	E4	press
349.834	n/a	RESPONSE	        M2	2	00	C3	press
350.176	n/a	RESPONSE	        M2	2	19	G4	press
350.253	n/a	RESPONSE	        M2	2	16	E4	release
350.332	n/a	RESPONSE	        M2	2	07	G3	release
350.36	n/a	RESPONSE	        M2	2	00	C3	release
350.469	n/a	RESPONSE	        M2	2	19	G4	release
350.508	n/a	RESPONSE	        M2	2	00	C3	press
350.51	n/a	RESPONSE	        M2	2	07	G3	press
350.528	n/a	RESPONSE	        M2	2	19	G4	press
350.859	n/a	RESPONSE	        M2	2	17	F4	press
351.035	n/a	RESPONSE	        M2	2	19	G4	release
351.126	n/a	RESPONSE	        M2	2	17	F4	release
351.138	n/a	RESPONSE	        M2	2	00	C3	release
351.141	n/a	RESPONSE	        M2	2	07	G3	release
351.2	n/a	RESPONSE	        M2	2	16	E4	press
351.214	n/a	RESPONSE	        M2	2	00	C3	press
351.223	n/a	RESPONSE	        M2	2	07	G3	press
351.534	n/a	RESPONSE	        M2	2	14	D4	press
351.675	n/a	RESPONSE	        M2	2	16	E4	release
351.816	n/a	RESPONSE	        M2	2	00	C3	release
351.838	n/a	RESPONSE	        M2	2	12	C4	press
351.84	n/a	RESPONSE	        M2	2	14	D4	release
351.88	n/a	RESPONSE	        M2	2	00	C3	press
351.952	7.758	FIXCROSS	n/a	n/a	n/a	n/a	n/a
352.811	n/a	RESPONSE	        M2	2	00	C3	release
352.864	n/a	RESPONSE	        M2	2	12	C4	release
352.884	n/a	RESPONSE	        M2	2	07	G3	release
359.71	6.325	CUE_LISTEN	        M8	1	n/a	n/a	n/a
366.035	7.758	FIXCROSS	n/a	n/a	n/a	n/a	n/a
373.794	6.317	CUE_PLAYBACK_BOTH_HANDS	        M8	1	n/a	n/a	n/a
374.19	n/a	RESPONSE	        M8	1	16	E4	press
374.501	n/a	RESPONSE	        M8	1	17	F4	press
374.783	n/a	RESPONSE	        M8	1	16	E4	release
374.915	n/a	RESPONSE	        M8	1	17	F4	release
375.145	n/a	RESPONSE	        M8	1	16	E4	press
375.156	n/a	RESPONSE	        M8	1	14	D4	press
375.438	n/a	RESPONSE	        M8	1	14	D4	release
375.539	n/a	RESPONSE	        M8	1	16	E4	release
375.64	n/a	RESPONSE	        M8	1	16	E4	press
375.964	n/a	RESPONSE	        M8	1	19	G4	press
376.223	n/a	RESPONSE	        M8	1	16	E4	release
376.264	n/a	RESPONSE	        M8	1	23	B4	press
376.286	n/a	RESPONSE	        M8	1	21	A4	press
376.336	n/a	RESPONSE	        M8	1	19	G4	release
376.458	n/a	RESPONSE	        M8	1	21	A4	release
376.709	n/a	RESPONSE	        M8	1	23	B4	release
376.82	n/a	RESPONSE	        M8	1	23	B4	press
377.271	n/a	RESPONSE	        M8	1	07	G3	press
377.312	n/a	RESPONSE	        M8	1	18	F#4	press
377.434	n/a	RESPONSE	        M8	1	23	B4	release
377.616	n/a	RESPONSE	        M8	1	12	C4	press
377.682	n/a	RESPONSE	        M8	1	11	B3	press
377.834	n/a	RESPONSE	        M8	1	11	B3	release
377.89	n/a	RESPONSE	        M8	1	12	C4	release
378.119	n/a	RESPONSE	        M8	1	07	G3	release
378.17	n/a	RESPONSE	        M8	1	18	F#4	release
378.299	n/a	RESPONSE	        M8	1	18	F#4	press
378.311	n/a	RESPONSE	        M8	1	11	B3	press
378.325	n/a	RESPONSE	        M8	1	07	G3	press
378.903	n/a	RESPONSE	        M8	1	14	D4	press
379.188	n/a	RESPONSE	        M8	1	11	B3	release
379.221	n/a	RESPONSE	        M8	1	07	G3	release
379.319	n/a	RESPONSE	        M8	1	18	F#4	release
379.366	n/a	RESPONSE	        M8	1	21	A4	press
379.444	n/a	RESPONSE	        M8	1	14	D4	release
379.918	n/a	RESPONSE	        M8	1	21	A4	release
380.11	7.758	FIXCROSS	n/a	n/a	n/a	n/a	n/a
380.13	n/a	RESPONSE	        M8	1	23	B4	press
380.148	n/a	RESPONSE	        M8	1	15	D#4	press
380.708	n/a	RESPONSE	        M8	1	11	B3	press
380.734	n/a	RESPONSE	        M8	1	21	A4	press
380.786	n/a	RESPONSE	        M8	1	15	D#4	release
380.921	n/a	RESPONSE	        M8	1	23	B4	release
381.008	n/a	RESPONSE	        M8	1	19	G4	press
381.109	n/a	RESPONSE	        M8	1	21	A4	release
381.543	n/a	RESPONSE	        M8	1	18	F#4	press
381.651	n/a	RESPONSE	        M8	1	19	G4	release
382.273	n/a	RESPONSE	        M8	1	16	E4	press
382.294	n/a	RESPONSE	        M8	1	12	C4	press
382.305	n/a	RESPONSE	        M8	1	18	F#4	release
382.338	n/a	RESPONSE	        M8	1	11	B3	release
383.028	n/a	RESPONSE	        M8	1	12	C4	release
383.03	n/a	RESPONSE	        M8	1	07	G3	press
383.611	n/a	RESPONSE	        M8	1	16	E4	release
383.663	n/a	RESPONSE	        M8	1	07	G3	release
387.869	6.325	CUE_LISTEN	        M8	2	n/a	n/a	n/a
394.194	7.758	FIXCROSS	n/a	n/a	n/a	n/a	n/a
401.952	6.317	CUE_PLAYBACK_BOTH_HANDS	        M8	2	n/a	n/a	n/a
402.293	n/a	RESPONSE	        M8	2	16	E4	press
402.614	n/a	RESPONSE	        M8	2	17	F4	press
402.645	n/a	RESPONSE	        M8	2	19	G4	press
402.726	n/a	RESPONSE	        M8	2	19	G4	release
402.949	n/a	RESPONSE	        M8	2	16	E4	release
403.039	n/a	RESPONSE	        M8	2	17	F4	release
403.182	n/a	RESPONSE	        M8	2	16	E4	press
403.513	n/a	RESPONSE	        M8	2	19	G4	press
403.555	n/a	RESPONSE	        M8	2	17	F4	press
403.698	n/a	RESPONSE	        M8	2	17	F4	release
403.756	n/a	RESPONSE	        M8	2	19	G4	release
403.878	n/a	RESPONSE	        M8	2	16	E4	release
404.029	n/a	RESPONSE	        M8	2	16	E4	press
404.35	n/a	RESPONSE	        M8	2	19	G4	press
404.551	n/a	RESPONSE	        M8	2	16	E4	release
404.622	n/a	RESPONSE	        M8	2	23	B4	press
404.724	n/a	RESPONSE	        M8	2	19	G4	release
405.045	n/a	RESPONSE	        M8	2	23	B4	release
405.148	n/a	RESPONSE	        M8	2	23	B4	press
405.658	n/a	RESPONSE	        M8	2	09	A3	press
405.66	n/a	RESPONSE	        M8	2	18	F#4	press
405.75	n/a	RESPONSE	        M8	2	23	B4	release
405.971	n/a	RESPONSE	        M8	2	12	C4	press
406.293	n/a	RESPONSE	        M8	2	21	A4	press
406.314	n/a	RESPONSE	        M8	2	16	E4	press
406.355	n/a	RESPONSE	        M8	2	18	F#4	release
406.436	n/a	RESPONSE	        M8	2	09	A3	release
406.448	n/a	RESPONSE	        M8	2	12	C4	release
406.749	n/a	RESPONSE	        M8	2	16	E4	release
406.88	n/a	RESPONSE	        M8	2	16	E4	press
407.414	n/a	RESPONSE	        M8	2	23	B4	press
407.439	n/a	RESPONSE	        M8	2	15	D#4	press
407.476	n/a	RESPONSE	        M8	2	21	A4	release
407.551	n/a	RESPONSE	        M8	2	16	E4	release
407.929	n/a	RESPONSE	        M8	2	11	B3	press
408.088	n/a	RESPONSE	        M8	2	15	D#4	release
408.269	7.758	FIXCROSS	n/a	n/a	n/a	n/a	n/a
408.283	n/a	RESPONSE	        M8	2	21	A4	press
408.399	n/a	RESPONSE	        M8	2	23	B4	release
408.51	n/a	RESPONSE	        M8	2	19	G4	press
408.698	n/a	RESPONSE	        M8	2	21	A4	release
408.828	n/a	RESPONSE	        M8	2	18	F#4	press
408.939	n/a	RESPONSE	        M8	2	19	G4	release
409.114	n/a	RESPONSE	        M8	2	19	G4	press
409.236	n/a	RESPONSE	        M8	2	18	F#4	release
409.644	n/a	RESPONSE	        M8	2	12	C4	press
409.664	n/a	RESPONSE	        M8	2	16	E4	press
409.694	n/a	RESPONSE	        M8	2	11	B3	release
409.784	n/a	RESPONSE	        M8	2	19	G4	release
410.239	n/a	RESPONSE	        M8	2	09	A3	press
410.275	n/a	RESPONSE	        M8	2	11	B3	press
410.45	n/a	RESPONSE	        M8	2	11	B3	release
410.535	n/a	RESPONSE	        M8	2	12	C4	release
410.853	n/a	RESPONSE	        M8	2	04	E3	press
410.855	n/a	RESPONSE	        M8	2	05	F3	press
410.885	n/a	RESPONSE	        M8	2	09	A3	release
411.291	n/a	RESPONSE	        M8	2	05	F3	release
411.343	n/a	RESPONSE	        M8	2	04	E3	release
411.534	n/a	RESPONSE	        M8	2	16	E4	release
416.027	6.317	CUE_LISTEN	        M4	1	n/a	n/a	n/a
422.344	7.758	FIXCROSS	n/a	n/a	n/a	n/a	n/a
430.102	6.325	CUE_PLAYBACK_RIGHT_HAND	        M4	1	n/a	n/a	n/a
430.405	n/a	RESPONSE	        M4	1	09	A3	press
430.423	n/a	RESPONSE	        M4	1	19	G4	press
430.969	n/a	RESPONSE	        M4	1	09	A3	release
431.088	n/a	RESPONSE	        M4	1	19	G4	release
431.368	n/a	RESPONSE	        M4	1	09	A3	press
431.379	n/a	RESPONSE	        M4	1	19	G4	press
431.851	n/a	RESPONSE	        M4	1	09	A3	release
432.174	n/a	RESPONSE	        M4	1	09	A3	press
432.673	n/a	RESPONSE	        M4	1	19	G4	release
432.734	n/a	RESPONSE	        M4	1	09	A3	release
432.995	n/a	RESPONSE	        M4	1	09	A3	press
433.006	n/a	RESPONSE	        M4	1	19	G4	press
433.5	n/a	RESPONSE	        M4	1	14	D4	press
433.6	n/a	RESPONSE	        M4	1	16	E4	press
433.654	n/a	RESPONSE	        M4	1	21	A4	press
433.794	n/a	RESPONSE	        M4	1	16	E4	release
433.796	n/a	RESPONSE	        M4	1	19	G4	release
433.965	n/a	RESPONSE	        M4	1	14	D4	release
433.968	n/a	RESPONSE	        M4	1	21	A4	release
434.448	n/a	RESPONSE	        M4	1	09	A3	release
436.427	7.758	FIXCROSS	n/a	n/a	n/a	n/a	n/a
441.659	n/a	RESPONSE	        M4	1	16	E4	press
442.048	n/a	RESPONSE	        M4	1	16	E4	release
444.186	6.317	CUE_LISTEN	        M4	2	n/a	n/a	n/a
445.504	n/a	RESPONSE	        M4	2	16	E4	press
445.512	n/a	RESPONSE	        M4	2	04	E3	press
445.924	n/a	RESPONSE	        M4	2	04	E3	release
445.955	n/a	RESPONSE	        M4	2	16	E4	release
450.502	7.758	FIXCROSS	n/a	n/a	n/a	n/a	n/a
458.261	6.317	CUE_PLAYBACK_RIGHT_HAND	        M4	2	n/a	n/a	n/a
458.526	n/a	RESPONSE	        M4	2	16	E4	press
458.535	n/a	RESPONSE	        M4	2	04	E3	press
458.984	n/a	RESPONSE	        M4	2	11	B3	press
459.156	n/a	RESPONSE	        M4	2	16	E4	release
459.234	n/a	RESPONSE	        M4	2	11	B3	release
459.265	n/a	RESPONSE	        M4	2	04	E3	release
459.36	n/a	RESPONSE	        M4	2	04	E3	press
459.369	n/a	RESPONSE	        M4	2	16	E4	press
459.629	n/a	RESPONSE	        M4	2	11	B3	press
459.792	n/a	RESPONSE	        M4	2	19	G4	press
459.872	n/a	RESPONSE	        M4	2	18	F#4	press
459.915	n/a	RESPONSE	        M4	2	16	E4	release
460.141	n/a	RESPONSE	        M4	2	16	E4	press
460.156	n/a	RESPONSE	        M4	2	07	G3	press
460.208	n/a	RESPONSE	        M4	2	18	F#4	release
460.214	n/a	RESPONSE	        M4	2	19	G4	release
460.266	n/a	RESPONSE	        M4	2	11	B3	release
460.564	n/a	RESPONSE	        M4	2	16	E4	release
460.612	n/a	RESPONSE	        M4	2	07	G3	release
460.722	n/a	RESPONSE	        M4	2	16	E4	press
461.079	n/a	RESPONSE	        M4	2	11	B3	press
461.09	n/a	RESPONSE	        M4	2	19	G4	press
461.221	n/a	RESPONSE	        M4	2	18	F#4	press
461.335	n/a	RESPONSE	        M4	2	07	G3	press
461.344	n/a	RESPONSE	        M4	2	16	E4	release
461.506	n/a	RESPONSE	        M4	2	16	E4	press
461.586	n/a	RESPONSE	        M4	2	18	F#4	release
462.06	n/a	RESPONSE	        M4	2	07	G3	release
462.099	n/a	RESPONSE	        M4	2	11	B3	release
462.18	n/a	RESPONSE	        M4	2	19	G4	release
462.204	n/a	RESPONSE	        M4	2	16	E4	release
462.352	n/a	RESPONSE	        M4	2	16	E4	press
462.694	n/a	RESPONSE	        M4	2	11	B3	press
462.775	n/a	RESPONSE	        M4	2	19	G4	press
462.906	n/a	RESPONSE	        M4	2	18	F#4	press
462.918	n/a	RESPONSE	        M4	2	16	E4	release
463.099	n/a	RESPONSE	        M4	2	16	E4	press
463.15	n/a	RESPONSE	        M4	2	08	G#3	press
463.251	n/a	RESPONSE	        M4	2	11	B3	release
463.436	n/a	RESPONSE	        M4	2	18	F#4	release
463.585	n/a	RESPONSE	        M4	2	23	B4	press
463.686	n/a	RESPONSE	        M4	2	24	C5	press
463.718	n/a	RESPONSE	        M4	2	08	G#3	release
463.789	n/a	RESPONSE	        M4	2	23	B4	release
463.84	n/a	RESPONSE	        M4	2	19	G4	release
463.871	n/a	RESPONSE	        M4	2	16	E4	release
463.962	n/a	RESPONSE	        M4	2	19	G4	press
463.985	n/a	RESPONSE	        M4	2	16	E4	press
464.105	n/a	RESPONSE	        M4	2	24	C5	release
464.577	7.758	FIXCROSS	n/a	n/a	n/a	n/a	n/a
464.786	n/a	RESPONSE	        M4	2	19	G4	release
464.789	n/a	RESPONSE	        M4	2	16	E4	release
465.239	n/a	RESPONSE	        M4	2	04	E3	release
472.336	6.325	CUE_LISTEN	        M3	1	n/a	n/a	n/a
478.661	7.758	FIXCROSS	n/a	n/a	n/a	n/a	n/a
486.419	6.317	CUE_PLAYBACK_RIGHT_HAND	        M3	1	n/a	n/a	n/a
487.509	n/a	RESPONSE	        M3	1	19	G4	press
487.921	n/a	RESPONSE	        M3	1	16	E4	press
487.955	n/a	RESPONSE	        M3	1	19	G4	release
488.216	n/a	RESPONSE	        M3	1	16	E4	release
488.356	n/a	RESPONSE	        M3	1	16	E4	press
488.69	n/a	RESPONSE	        M3	1	17	F4	press
488.709	n/a	RESPONSE	        M3	1	16	E4	release
489.049	n/a	RESPONSE	        M3	1	17	F4	release
489.061	n/a	RESPONSE	        M3	1	14	D4	press
489.302	n/a	RESPONSE	        M3	1	14	D4	release
489.435	n/a	RESPONSE	        M3	1	14	D4	press
489.745	n/a	RESPONSE	        M3	1	14	D4	release
489.792	n/a	RESPONSE	        M3	1	12	C4	press
489.986	n/a	RESPONSE	        M3	1	16	E4	press
490.094	n/a	RESPONSE	        M3	1	12	C4	release
490.244	n/a	RESPONSE	        M3	1	19	G4	press
490.364	n/a	RESPONSE	        M3	1	16	E4	release
491.009	n/a	RESPONSE	        M3	1	19	G4	release
492.736	7.758	FIXCROSS	n/a	n/a	n/a	n/a	n/a
500.494	6.317	CUE_LISTEN	        M3	2	n/a	n/a	n/a
506.811	7.758	FIXCROSS	n/a	n/a	n/a	n/a	n/a
514.569	6.325	CUE_PLAYBACK_RIGHT_HAND	        M3	2	n/a	n/a	n/a
514.869	n/a	RESPONSE	        M3	2	19	G4	press
515.3	n/a	RESPONSE	        M3	2	16	E4	press
515.371	n/a	RESPONSE	        M3	2	19	G4	release
515.582	n/a	RESPONSE	        M3	2	16	E4	release
515.724	n/a	RESPONSE	        M3	2	16	E4	press
516.065	n/a	RESPONSE	        M3	2	17	F4	press
516.068	n/a	RESPONSE	        M3	2	16	E4	release
516.378	n/a	RESPONSE	        M3	2	17	F4	release
516.459	n/a	RESPONSE	        M3	2	14	D4	press
517.14	n/a	RESPONSE	        M3	2	14	D4	release
517.211	n/a	RESPONSE	        M3	2	14	D4	press
517.63	n/a	RESPONSE	        M3	2	14	D4	release
517.644	n/a	RESPONSE	        M3	2	12	C4	press
517.834	n/a	RESPONSE	        M3	2	16	E4	press
517.903	n/a	RESPONSE	        M3	2	12	C4	release
518.05	n/a	RESPONSE	        M3	2	12	C4	press
518.09	n/a	RESPONSE	        M3	2	16	E4	release
519.151	n/a	RESPONSE	        M3	2	12	C4	release
520.894	7.758	FIXCROSS	n/a	n/a	n/a	n/a	n/a
528.652	6.317	CUE_LISTEN	        M5	1	n/a	n/a	n/a
534.969	7.758	FIXCROSS	n/a	n/a	n/a	n/a	n/a
542.728	6.317	CUE_PLAYBACK_BOTH_HANDS	        M5	1	n/a	n/a	n/a
543.041	n/a	RESPONSE	        M5	1	07	G3	press
543.052	n/a	RESPONSE	        M5	1	22	A#4	press
543.845	n/a	RESPONSE	        M5	1	21	A4	press
543.946	n/a	RESPONSE	        M5	1	22	A#4	release
544.638	n/a	RESPONSE	        M5	1	19	G4	press
544.709	n/a	RESPONSE	        M5	1	21	A4	release
545.26	n/a	RESPONSE	        M5	1	05	F3	press
545.262	n/a	RESPONSE	        M5	1	21	A4	press
545.344	n/a	RESPONSE	        M5	1	19	G4	release
545.354	n/a	RESPONSE	        M5	1	07	G3	release
546.088	n/a	RESPONSE	        M5	1	14	D4	press
546.217	n/a	RESPONSE	        M5	1	21	A4	release
546.648	n/a	RESPONSE	        M5	1	14	D4	release
546.801	n/a	RESPONSE	        M5	1	14	D4	press
547.41	n/a	RESPONSE	        M5	1	19	G4	press
547.431	n/a	RESPONSE	        M5	1	03	D#3	press
547.501	n/a	RESPONSE	        M5	1	14	D4	release
547.535	n/a	RESPONSE	        M5	1	05	F3	release
548.242	n/a	RESPONSE	        M5	1	09	A3	press
548.482	n/a	RESPONSE	        M5	1	19	G4	release
548.706	n/a	RESPONSE	        M5	1	09	A3	release
548.901	n/a	RESPONSE	        M5	1	07	G3	press
549.044	7.758	FIXCROSS	n/a	n/a	n/a	n/a	n/a
549.316	n/a	RESPONSE	        M5	1	09	A3	press
549.496	n/a	RESPONSE	        M5	1	07	G3	release
549.69	n/a	RESPONSE	        M5	1	10	A#3	press
549.872	n/a	RESPONSE	        M5	1	10	A#3	release
549.998	n/a	RESPONSE	        M5	1	10	A#3	press
550.074	n/a	RESPONSE	        M5	1	09	A3	release
550.378	n/a	RESPONSE	        M5	1	11	B3	press
550.464	n/a	RESPONSE	        M5	1	10	A#3	release
551.13	n/a	RESPONSE	        M5	1	02	D3	press
551.132	n/a	RESPONSE	        M5	1	12	C4	press
551.152	n/a	RESPONSE	        M5	1	03	D#3	release
551.174	n/a	RESPONSE	        M5	1	11	B3	release
552.968	n/a	RESPONSE	        M5	1	12	C4	release
553.036	n/a	RESPONSE	        M5	1	02	D3	release
556.803	6.325	CUE_LISTEN	        M5	2	n/a	n/a	n/a
558.288	n/a	RESPONSE	        M5	2	12	C4	press
559.456	n/a	RESPONSE	        M5	2	12	C4	release
563.128	7.758	FIXCROSS	n/a	n/a	n/a	n/a	n/a
564.635	n/a	RESPONSE	        M5	2	12	C4	press
564.936	n/a	RESPONSE	        M5	2	11	B3	press
565.168	n/a	RESPONSE	        M5	2	12	C4	release
565.449	n/a	RESPONSE	        M5	2	11	B3	release
565.451	n/a	RESPONSE	        M5	2	08	G#3	press
565.734	n/a	RESPONSE	        M5	2	07	G3	press
565.772	n/a	RESPONSE	        M5	2	08	G#3	release
566.004	n/a	RESPONSE	        M5	2	07	G3	release
570.886	6.317	CUE_PLAYBACK_BOTH_HANDS	        M5	2	n/a	n/a	n/a
571.172	n/a	RESPONSE	        M5	2	05	F3	press
571.194	n/a	RESPONSE	        M5	2	13	C#4	press
571.245	n/a	RESPONSE	        M5	2	08	G#3	press
572.009	n/a	RESPONSE	        M5	2	08	G#3	release
572.087	n/a	RESPONSE	        M5	2	13	C#4	release
572.09	n/a	RESPONSE	        M5	2	05	F3	release
572.37	n/a	RESPONSE	        M5	2	05	F3	press
572.373	n/a	RESPONSE	        M5	2	08	G#3	press
572.395	n/a	RESPONSE	        M5	2	13	C#4	press
572.864	n/a	RESPONSE	        M5	2	16	E4	press
572.965	n/a	RESPONSE	        M5	2	13	C#4	release
573.156	n/a	RESPONSE	        M5	2	13	C#4	press
573.417	n/a	RESPONSE	        M5	2	07	G3	press
573.47	n/a	RESPONSE	        M5	2	08	G#3	release
573.481	n/a	RESPONSE	        M5	2	12	C4	press
573.512	n/a	RESPONSE	        M5	2	16	E4	release
573.604	n/a	RESPONSE	        M5	2	13	C#4	release
573.645	n/a	RESPONSE	        M5	2	05	F3	release
573.706	n/a	RESPONSE	        M5	2	12	C4	release
573.74	n/a	RESPONSE	        M5	2	07	G3	release
577.203	7.758	FIXCROSS	n/a	n/a	n/a	n/a	n/a
584.961	6.317	CUE_LISTEN	        M1	1	n/a	n/a	n/a
591.278	7.758	FIXCROSS	n/a	n/a	n/a	n/a	n/a
599.036	6.325	CUE_PLAYBACK_RIGHT_HAND	        M1	1	n/a	n/a	n/a
599.484	n/a	RESPONSE	        M1	1	05	F3	press
599.487	n/a	RESPONSE	        M1	1	21	A4	press
599.747	n/a	RESPONSE	        M1	1	21	A4	release
599.867	n/a	RESPONSE	        M1	1	05	F3	release
599.904	n/a	RESPONSE	        M1	1	21	A4	press
599.961	n/a	RESPONSE	        M1	1	09	A3	press
600.195	n/a	RESPONSE	        M1	1	21	A4	release
600.224	n/a	RESPONSE	        M1	1	09	A3	release
600.629	n/a	RESPONSE	        M1	1	21	A4	press
600.904	n/a	RESPONSE	        M1	1	21	A4	release
601.037	n/a	RESPONSE	        M1	1	21	A4	press
601.289	n/a	RESPONSE	        M1	1	21	A4	release
601.41	n/a	RESPONSE	        M1	1	21	A4	press
602.032	n/a	RESPONSE	        M1	1	21	A4	release
602.172	n/a	RESPONSE	        M1	1	21	A4	press
602.394	n/a	RESPONSE	        M1	1	21	A4	release
602.525	n/a	RESPONSE	        M1	1	21	A4	press
602.716	n/a	RESPONSE	        M1	1	21	A4	release
602.86	n/a	RESPONSE	        M1	1	21	A4	press
603.369	n/a	RESPONSE	        M1	1	21	A4	release
603.504	n/a	RESPONSE	        M1	1	21	A4	press
603.842	n/a	RESPONSE	        M1	1	24	C5	press
603.944	n/a	RESPONSE	        M1	1	21	A4	release
604.165	n/a	RESPONSE	        M1	1	17	F4	press
604.496	n/a	RESPONSE	        M1	1	19	G4	press
604.499	n/a	RESPONSE	        M1	1	24	C5	release
604.599	n/a	RESPONSE	        M1	1	17	F4	release
604.821	n/a	RESPONSE	        M1	1	21	A4	press
604.931	n/a	RESPONSE	        M1	1	19	G4	release
605.361	7.759	FIXCROSS	n/a	n/a	n/a	n/a	n/a
606.062	n/a	RESPONSE	        M1	1	21	A4	release
613.119	6.325	CUE_LISTEN	        M1	2	n/a	n/a	n/a
619.444	7.758	FIXCROSS	n/a	n/a	n/a	n/a	n/a
627.203	6.317	CUE_PLAYBACK_RIGHT_HAND	        M1	2	n/a	n/a	n/a
627.677	n/a	RESPONSE	        M1	2	21	A4	press
627.947	n/a	RESPONSE	        M1	2	21	A4	release
628.06	n/a	RESPONSE	        M1	2	21	A4	press
628.306	n/a	RESPONSE	        M1	2	21	A4	release
628.431	n/a	RESPONSE	        M1	2	21	A4	press
628.915	n/a	RESPONSE	        M1	2	21	A4	release
633.519	7.758	FIXCROSS	n/a	n/a	n/a	n/a	n/a
641.278	6.317	CUE_LISTEN	        M7	1	n/a	n/a	n/a
647.594	7.758	FIXCROSS	n/a	n/a	n/a	n/a	n/a
655.353	6.317	CUE_PLAYBACK_BOTH_HANDS	        M7	1	n/a	n/a	n/a
655.829	n/a	RESPONSE	        M7	1	02	D3	press
655.831	n/a	RESPONSE	        M7	1	12	C4	press
656.241	n/a	RESPONSE	        M7	1	14	D4	press
656.252	n/a	RESPONSE	        M7	1	07	G3	press
656.514	n/a	RESPONSE	        M7	1	14	D4	release
656.555	n/a	RESPONSE	        M7	1	12	C4	release
656.596	n/a	RESPONSE	        M7	1	02	D3	release
656.62	n/a	RESPONSE	        M7	1	07	G3	release
657.665	n/a	RESPONSE	        M7	1	12	C4	press
657.699	n/a	RESPONSE	        M7	1	02	D3	press
658.09	n/a	RESPONSE	        M7	1	12	C4	release
658.214	n/a	RESPONSE	        M7	1	02	D3	release
658.291	n/a	RESPONSE	        M7	1	02	D3	press
658.305	n/a	RESPONSE	        M7	1	12	C4	press
658.681	n/a	RESPONSE	        M7	1	14	D4	press
658.704	n/a	RESPONSE	        M7	1	07	G3	press
658.709	n/a	RESPONSE	        M7	1	09	A3	press
658.89	n/a	RESPONSE	        M7	1	09	A3	release
658.98	n/a	RESPONSE	        M7	1	12	C4	release
659.035	n/a	RESPONSE	        M7	1	16	E4	press
659.075	n/a	RESPONSE	        M7	1	05	F3	press
659.136	n/a	RESPONSE	        M7	1	07	G3	release
659.242	n/a	RESPONSE	        M7	1	14	D4	release
659.397	n/a	RESPONSE	        M7	1	07	G3	press
659.401	n/a	RESPONSE	        M7	1	12	C4	press
659.432	n/a	RESPONSE	        M7	1	05	F3	release
659.45	n/a	RESPONSE	        M7	1	16	E4	release
659.505	n/a	RESPONSE	        M7	1	02	D3	release
659.647	n/a	RESPONSE	        M7	1	12	C4	release
659.652	n/a	RESPONSE	        M7	1	07	G3	release
659.759	n/a	RESPONSE	        M7	1	02	D3	press
659.779	n/a	RESPONSE	        M7	1	12	C4	press
660.124	n/a	RESPONSE	        M7	1	07	G3	press
660.145	n/a	RESPONSE	        M7	1	14	D4	press
660.337	n/a	RESPONSE	        M7	1	12	C4	release
660.461	n/a	RESPONSE	        M7	1	16	E4	press
660.487	n/a	RESPONSE	        M7	1	05	F3	press
660.517	n/a	RESPONSE	        M7	1	07	G3	release
660.6	n/a	RESPONSE	        M7	1	14	D4	release
660.815	n/a	RESPONSE	        M7	1	07	G3	press
660.821	n/a	RESPONSE	        M7	1	12	C4	press
660.851	n/a	RESPONSE	        M7	1	05	F3	release
660.871	n/a	RESPONSE	        M7	1	16	E4	release
660.9	n/a	RESPONSE	        M7	1	02	D3	release
661.117	n/a	RESPONSE	        M7	1	07	G3	release
661.139	n/a	RESPONSE	        M7	1	12	C4	release
661.21	n/a	RESPONSE	        M7	1	16	E4	press
661.221	n/a	RESPONSE	        M7	1	02	D3	press
661.574	n/a	RESPONSE	        M7	1	17	F4	press
661.584	n/a	RESPONSE	        M7	1	09	A3	press
661.635	n/a	RESPONSE	        M7	1	07	G3	press
661.637	n/a	RESPONSE	        M7	1	16	E4	release
661.669	7.758	FIXCROSS	n/a	n/a	n/a	n/a	n/a
661.787	n/a	RESPONSE	        M7	1	07	G3	release
661.909	n/a	RESPONSE	        M7	1	19	G4	press
661.942	n/a	RESPONSE	        M7	1	05	F3	press
661.981	n/a	RESPONSE	        M7	1	09	A3	release
661.994	n/a	RESPONSE	        M7	1	17	F4	release
662.284	n/a	RESPONSE	        M7	1	09	A3	press
662.305	n/a	RESPONSE	        M7	1	05	F3	release
662.326	n/a	RESPONSE	        M7	1	02	D3	release
662.407	n/a	RESPONSE	        M7	1	19	G4	release
662.55	n/a	RESPONSE	        M7	1	09	A3	release
669.428	6.325	CUE_LISTEN	        M7	2	n/a	n/a	n/a
675.753	7.758	FIXCROSS	n/a	n/a	n/a	n/a	n/a
683.511	6.317	CUE_PLAYBACK_BOTH_HANDS	        M7	2	n/a	n/a	n/a
683.851	n/a	RESPONSE	        M7	2	00	C3	press
683.894	n/a	RESPONSE	        M7	2	19	G4	press
683.906	n/a	RESPONSE	        M7	2	17	F4	press
684.036	n/a	RESPONSE	        M7	2	17	F4	release
684.237	n/a	RESPONSE	        M7	2	19	G4	release
684.32	n/a	RESPONSE	        M7	2	00	C3	release
684.441	n/a	RESPONSE	        M7	2	19	G4	press
684.45	n/a	RESPONSE	        M7	2	00	C3	press
684.691	n/a	RESPONSE	        M7	2	21	A4	press
684.782	n/a	RESPONSE	        M7	2	19	G4	release
684.914	n/a	RESPONSE	        M7	2	07	G3	press
684.916	n/a	RESPONSE	        M7	2	19	G4	press
685.147	n/a	RESPONSE	        M7	2	17	F4	press
685.317	n/a	RESPONSE	        M7	2	04	E3	press
685.359	n/a	RESPONSE	        M7	2	07	G3	release
685.39	n/a	RESPONSE	        M7	2	16	E4	press
685.414	n/a	RESPONSE	        M7	2	19	G4	release
685.562	n/a	RESPONSE	        M7	2	17	F4	release
685.604	n/a	RESPONSE	        M7	2	21	A4	release
685.755	n/a	RESPONSE	        M7	2	07	G3	press
685.767	n/a	RESPONSE	        M7	2	12	C4	press
685.817	n/a	RESPONSE	        M7	2	04	E3	release
685.82	n/a	RESPONSE	        M7	2	00	C3	release
685.85	n/a	RESPONSE	        M7	2	16	E4	release
686.161	n/a	RESPONSE	        M7	2	00	C3	press
686.165	n/a	RESPONSE	        M7	2	19	G4	press
686.184	n/a	RESPONSE	        M7	2	07	G3	release
686.195	n/a	RESPONSE	        M7	2	12	C4	release
686.337	n/a	RESPONSE	        M7	2	21	A4	press
686.37	n/a	RESPONSE	        M7	2	19	G4	release
686.519	n/a	RESPONSE	        M7	2	19	G4	press
686.66	n/a	RESPONSE	        M7	2	07	G3	press
686.721	n/a	RESPONSE	        M7	2	17	F4	press
686.922	n/a	RESPONSE	        M7	2	16	E4	press
686.954	n/a	RESPONSE	        M7	2	21	A4	release
686.956	n/a	RESPONSE	        M7	2	04	E3	press
686.966	n/a	RESPONSE	        M7	2	19	G4	release
687.007	n/a	RESPONSE	        M7	2	07	G3	release
687.249	n/a	RESPONSE	        M7	2	17	F4	release
687.312	n/a	RESPONSE	        M7	2	07	G3	press
687.332	n/a	RESPONSE	        M7	2	12	C4	press
687.384	n/a	RESPONSE	        M7	2	04	E3	release
687.386	n/a	RESPONSE	        M7	2	16	E4	release
687.545	n/a	RESPONSE	        M7	2	00	C3	release
687.579	n/a	RESPONSE	        M7	2	07	G3	release
687.629	n/a	RESPONSE	        M7	2	12	C4	release
687.694	n/a	RESPONSE	        M7	2	00	C3	press
687.741	n/a	RESPONSE	        M7	2	12	C4	press
688.127	n/a	RESPONSE	        M7	2	12	C4	release
688.15	n/a	RESPONSE	        M7	2	00	C3	release
688.46	n/a	RESPONSE	        M7	2	12	C4	press
688.462	n/a	RESPONSE	        M7	2	00	C3	press
688.792	n/a	RESPONSE	        M7	2	07	G3	press
688.92	n/a	RESPONSE	        M7	2	12	C4	release
689.011	n/a	RESPONSE	        M7	2	00	C3	release
689.061	n/a	RESPONSE	        M7	2	07	G3	release
689.095	n/a	RESPONSE	        M7	2	00	C3	press
689.1	n/a	RESPONSE	        M7	2	12	C4	press
689.517	n/a	RESPONSE	        M7	2	00	C3	release
689.572	n/a	RESPONSE	        M7	2	12	C4	release
689.641	n/a	RESPONSE	        M7	2	00	C3	press
689.701	n/a	RESPONSE	        M7	2	12	C4	press
689.828	7.758	FIXCROSS	n/a	n/a	n/a	n/a	n/a
689.992	n/a	RESPONSE	        M7	2	07	G3	press
690.152	n/a	RESPONSE	        M7	2	12	C4	release
690.259	n/a	RESPONSE	        M7	2	07	G3	release
690.306	n/a	RESPONSE	        M7	2	12	C4	press
691.007	n/a	RESPONSE	        M7	2	12	C4	release
691.104	n/a	RESPONSE	        M7	2	00	C3	release
697.586	6.317	CUE_LISTEN	        M4	1	n/a	n/a	n/a
703.903	7.758	FIXCROSS	n/a	n/a	n/a	n/a	n/a
711.661	6.325	CUE_PLAYBACK_BOTH_HANDS	        M4	1	n/a	n/a	n/a
711.915	n/a	RESPONSE	        M4	1	04	E3	press
711.936	n/a	RESPONSE	        M4	1	16	E4	press
712.277	n/a	RESPONSE	        M4	1	19	G4	press
712.369	n/a	RESPONSE	        M4	1	11	B3	press
712.41	n/a	RESPONSE	        M4	1	18	F#4	press
712.531	n/a	RESPONSE	        M4	1	16	E4	release
712.544	n/a	RESPONSE	        M4	1	19	G4	release
712.634	n/a	RESPONSE	        M4	1	04	E3	release
712.677	n/a	RESPONSE	        M4	1	19	G4	press
712.716	n/a	RESPONSE	        M4	1	16	E4	press
712.747	n/a	RESPONSE	        M4	1	07	G3	press
712.799	n/a	RESPONSE	        M4	1	18	F#4	release
712.84	n/a	RESPONSE	        M4	1	11	B3	release
713.071	n/a	RESPONSE	        M4	1	11	B3	press
713.112	n/a	RESPONSE	        M4	1	23	B4	press
713.224	n/a	RESPONSE	        M4	1	19	G4	release
713.235	n/a	RESPONSE	        M4	1	16	E4	release
713.267	n/a	RESPONSE	        M4	1	24	C5	press
713.359	n/a	RESPONSE	        M4	1	07	G3	release
713.43	n/a	RESPONSE	        M4	1	23	B4	release
713.462	n/a	RESPONSE	        M4	1	23	B4	press
713.465	n/a	RESPONSE	        M4	1	16	E4	press
713.476	n/a	RESPONSE	        M4	1	04	E3	press
713.495	n/a	RESPONSE	        M4	1	11	B3	release
713.556	n/a	RESPONSE	        M4	1	24	C5	release
713.817	n/a	RESPONSE	        M4	1	11	B3	press
713.939	n/a	RESPONSE	        M4	1	04	E3	release
713.96	n/a	RESPONSE	        M4	1	16	E4	release
714.151	n/a	RESPONSE	        M4	1	16	E4	press
714.172	n/a	RESPONSE	        M4	1	07	G3	press
714.254	n/a	RESPONSE	        M4	1	11	B3	release
714.515	n/a	RESPONSE	        M4	1	11	B3	press
714.586	n/a	RESPONSE	        M4	1	07	G3	release
714.62	n/a	RESPONSE	        M4	1	16	E4	release
714.899	n/a	RESPONSE	        M4	1	23	B4	release
714.92	n/a	RESPONSE	        M4	1	14	D4	press
714.922	n/a	RESPONSE	        M4	1	11	B3	release
714.962	n/a	RESPONSE	        M4	1	02	D3	press
714.974	n/a	RESPONSE	        M4	1	04	E3	press
715.335	n/a	RESPONSE	        M4	1	18	F#4	press
715.356	n/a	RESPONSE	        M4	1	16	E4	press
715.437	n/a	RESPONSE	        M4	1	18	F#4	release
715.489	n/a	RESPONSE	        M4	1	04	E3	release
715.5	n/a	RESPONSE	        M4	1	11	B3	press
715.514	n/a	RESPONSE	        M4	1	02	D3	release
715.632	n/a	RESPONSE	        M4	1	18	F#4	press
715.644	n/a	RESPONSE	        M4	1	16	E4	release
715.905	n/a	RESPONSE	        M4	1	14	D4	release
716.057	n/a	RESPONSE	        M4	1	11	B3	release
716.077	n/a	RESPONSE	        M4	1	18	F#4	release
716.389	n/a	RESPONSE	        M4	1	02	D3	press
716.391	n/a	RESPONSE	        M4	1	14	D4	press
716.441	n/a	RESPONSE	        M4	1	04	E3	press
716.625	n/a	RESPONSE	        M4	1	04	E3	release
716.724	n/a	RESPONSE	        M4	1	11	B3	press
716.785	n/a	RESPONSE	        M4	1	18	F#4	press
716.826	n/a	RESPONSE	        M4	1	02	D3	release
716.897	n/a	RESPONSE	        M4	1	16	E4	press
716.97	n/a	RESPONSE	        M4	1	18	F#4	release
716.98	n/a	RESPONSE	        M4	1	14	D4	release
717.042	n/a	RESPONSE	        M4	1	07	G3	press
717.092	n/a	RESPONSE	        M4	1	14	D4	press
717.114	n/a	RESPONSE	        M4	1	18	F#4	press
717.165	n/a	RESPONSE	        M4	1	11	B3	release
717.206	n/a	RESPONSE	        M4	1	16	E4	release
717.397	n/a	RESPONSE	        M4	1	11	B3	press
717.419	n/a	RESPONSE	        M4	1	19	G4	press
717.456	n/a	RESPONSE	        M4	1	18	F#4	release
717.49	n/a	RESPONSE	        M4	1	07	G3	release
717.56	n/a	RESPONSE	        M4	1	14	D4	release
717.599	n/a	RESPONSE	        M4	1	21	A4	press
717.721	n/a	RESPONSE	        M4	1	02	D3	press
717.724	n/a	RESPONSE	        M4	1	19	G4	release
717.745	n/a	RESPONSE	        M4	1	14	D4	press
717.804	n/a	RESPONSE	        M4	1	11	B3	release
717.826	n/a	RESPONSE	        M4	1	19	G4	press
717.93	n/a	RESPONSE	        M4	1	21	A4	release
717.986	7.758	FIXCROSS	n/a	n/a	n/a	n/a	n/a
718.001	n/a	RESPONSE	        M4	1	11	B3	press
718.084	n/a	RESPONSE	        M4	1	02	D3	release
718.261	n/a	RESPONSE	        M4	1	14	D4	release
718.426	n/a	RESPONSE	        M4	1	07	G3	press
718.431	n/a	RESPONSE	        M4	1	14	D4	press
718.546	n/a	RESPONSE	        M4	1	11	B3	release
718.776	n/a	RESPONSE	        M4	1	11	B3	press
718.844	n/a	RESPONSE	        M4	1	07	G3	release
718.971	n/a	RESPONSE	        M4	1	14	D4	release
719.23	n/a	RESPONSE	        M4	1	19	G4	release
719.832	n/a	RESPONSE	        M4	1	11	B3	release
725.745	6.317	CUE_LISTEN	        M4	2	n/a	n/a	n/a
732.061	7.758	FIXCROSS	n/a	n/a	n/a	n/a	n/a
739.82	6.325	CUE_PLAYBACK_BOTH_HANDS	        M4	2	n/a	n/a	n/a
740.304	n/a	RESPONSE	        M4	2	14	D4	press
740.306	n/a	RESPONSE	        M4	2	02	D3	press
740.322	n/a	RESPONSE	        M4	2	23	B4	press
740.761	n/a	RESPONSE	        M4	2	11	B3	press
740.942	n/a	RESPONSE	        M4	2	02	D3	release
741.119	n/a	RESPONSE	        M4	2	07	G3	press
741.21	n/a	RESPONSE	        M4	2	11	B3	release
741.442	n/a	RESPONSE	        M4	2	11	B3	press
741.504	n/a	RESPONSE	        M4	2	19	G4	press
741.515	n/a	RESPONSE	        M4	2	17	F4	press
741.535	n/a	RESPONSE	        M4	2	07	G3	release
741.636	n/a	RESPONSE	        M4	2	14	D4	release
741.777	n/a	RESPONSE	        M4	2	17	F4	release
741.839	n/a	RESPONSE	        M4	2	02	D3	press
741.85	n/a	RESPONSE	        M4	2	14	D4	press
741.861	n/a	RESPONSE	        M4	2	23	B4	release
742.044	n/a	RESPONSE	        M4	2	11	B3	release
742.174	n/a	RESPONSE	        M4	2	02	D3	release
742.185	n/a	RESPONSE	        M4	2	11	B3	press
742.349	n/a	RESPONSE	        M4	2	14	D4	release
742.497	n/a	RESPONSE	        M4	2	07	G3	press
742.519	n/a	RESPONSE	        M4	2	14	D4	press
742.63	n/a	RESPONSE	        M4	2	11	B3	release
742.801	n/a	RESPONSE	        M4	2	11	B3	press
742.854	n/a	RESPONSE	        M4	2	07	G3	release
742.915	n/a	RESPONSE	        M4	2	14	D4	release
743.156	n/a	RESPONSE	        M4	2	23	B4	press
743.176	n/a	RESPONSE	        M4	2	11	B3	release
743.179	n/a	RESPONSE	        M4	2	12	C4	press
743.19	n/a	RESPONSE	        M4	2	00	C3	press
743.21	n/a	RESPONSE	        M4	2	02	D3	press
743.232	n/a	RESPONSE	        M4	2	19	G4	release
743.535	n/a	RESPONSE	        M4	2	02	D3	release
743.575	n/a	RESPONSE	        M4	2	00	C3	release
743.666	n/a	RESPONSE	        M4	2	11	B3	press
743.687	n/a	RESPONSE	        M4	2	09	A3	press
743.941	n/a	RESPONSE	        M4	2	09	A3	release
744.12	n/a	RESPONSE	        M4	2	07	G3	press
744.151	n/a	RESPONSE	        M4	2	09	A3	press
744.252	n/a	RESPONSE	        M4	2	11	B3	release
744.404	n/a	RESPONSE	        M4	2	09	A3	release
744.445	n/a	RESPONSE	        M4	2	07	G3	release
744.496	n/a	RESPONSE	        M4	2	23	B4	release
744.897	n/a	RESPONSE	        M4	2	02	D3	press
744.949	n/a	RESPONSE	        M4	2	19	G4	press
744.951	n/a	RESPONSE	        M4	2	17	F4	press
745.181	n/a	RESPONSE	        M4	2	17	F4	release
745.462	n/a	RESPONSE	        M4	2	11	B3	press
745.554	n/a	RESPONSE	        M4	2	02	D3	release
745.695	n/a	RESPONSE	        M4	2	12	C4	release
745.846	n/a	RESPONSE	        M4	2	07	G3	press
745.887	n/a	RESPONSE	        M4	2	12	C4	press
745.96	n/a	RESPONSE	        M4	2	11	B3	release
746.145	7.767	FIXCROSS	n/a	n/a	n/a	n/a	n/a
746.27	n/a	RESPONSE	        M4	2	11	B3	press
746.351	n/a	RESPONSE	        M4	2	07	G3	release
746.472	n/a	RESPONSE	        M4	2	12	C4	release
746.674	n/a	RESPONSE	        M4	2	19	G4	release
746.735	n/a	RESPONSE	        M4	2	11	B3	release
753.911	6.308	CUE_LISTEN	        M2	1	n/a	n/a	n/a
760.22	7.758	FIXCROSS	n/a	n/a	n/a	n/a	n/a
767.978	6.317	CUE_PLAYBACK_RIGHT_HAND	        M2	1	n/a	n/a	n/a
768.582	n/a	RESPONSE	        M2	1	24	C5	press
768.601	n/a	RESPONSE	        M2	1	07	G3	press
768.614	n/a	RESPONSE	        M2	1	00	C3	press
768.996	n/a	RESPONSE	        M2	1	07	G3	release
769.007	n/a	RESPONSE	        M2	1	21	A4	press
769.015	n/a	RESPONSE	        M2	1	00	C3	release
769.044	n/a	RESPONSE	        M2	1	19	G4	press
769.076	n/a	RESPONSE	        M2	1	24	C5	release
769.146	n/a	RESPONSE	        M2	1	19	G4	release
769.345	n/a	RESPONSE	        M2	1	21	A4	release
769.557	n/a	RESPONSE	        M2	1	24	C5	press
769.887	n/a	RESPONSE	        M2	1	21	A4	press
770.146	n/a	RESPONSE	        M2	1	21	A4	release
770.275	n/a	RESPONSE	        M2	1	24	C5	release
770.437	n/a	RESPONSE	        M2	1	24	C5	press
770.829	n/a	RESPONSE	        M2	1	19	G4	press
771.054	n/a	RESPONSE	        M2	1	24	C5	release
771.122	n/a	RESPONSE	        M2	1	19	G4	release
771.234	n/a	RESPONSE	        M2	1	19	G4	press
771.596	n/a	RESPONSE	        M2	1	17	F4	press
771.786	n/a	RESPONSE	        M2	1	19	G4	release
771.957	n/a	RESPONSE	        M2	1	16	E4	press
771.999	n/a	RESPONSE	        M2	1	17	F4	release
772.29	n/a	RESPONSE	        M2	1	17	F4	press
772.371	n/a	RESPONSE	        M2	1	16	E4	release
772.602	n/a	RESPONSE	        M2	1	19	G4	press
772.684	n/a	RESPONSE	        M2	1	17	F4	release
773.245	n/a	RESPONSE	        M2	1	24	C5	press
773.247	n/a	RESPONSE	        M2	1	19	G4	release
773.571	n/a	RESPONSE	        M2	1	19	G4	press
773.651	n/a	RESPONSE	        M2	1	24	C5	release
773.841	n/a	RESPONSE	        M2	1	19	G4	release
773.942	n/a	RESPONSE	        M2	1	19	G4	press
774.264	n/a	RESPONSE	        M2	1	17	F4	press
774.295	7.758	FIXCROSS	n/a	n/a	n/a	n/a	n/a
774.415	n/a	RESPONSE	        M2	1	19	G4	release
774.547	n/a	RESPONSE	        M2	1	16	E4	press
774.607	n/a	RESPONSE	        M2	1	17	F4	release
774.899	n/a	RESPONSE	        M2	1	14	D4	press
775.081	n/a	RESPONSE	        M2	1	16	E4	release
775.251	n/a	RESPONSE	        M2	1	12	C4	press
775.362	n/a	RESPONSE	        M2	1	14	D4	release
776.024	n/a	RESPONSE	        M2	1	12	C4	release
782.053	6.317	CUE_LISTEN	        M2	2	n/a	n/a	n/a
788.37	7.758	FIXCROSS	n/a	n/a	n/a	n/a	n/a
796.128	6.325	CUE_PLAYBACK_RIGHT_HAND	        M2	2	n/a	n/a	n/a
796.55	n/a	RESPONSE	        M2	2	12	C4	press
796.931	n/a	RESPONSE	        M2	2	14	D4	press
797.235	n/a	RESPONSE	        M2	2	12	C4	release
797.266	n/a	RESPONSE	        M2	2	16	E4	press
797.396	n/a	RESPONSE	        M2	2	14	D4	release
797.651	n/a	RESPONSE	        M2	2	14	D4	press
797.69	n/a	RESPONSE	        M2	2	16	E4	release
797.979	n/a	RESPONSE	        M2	2	16	E4	press
798.06	n/a	RESPONSE	        M2	2	14	D4	release
798.342	n/a	RESPONSE	        M2	2	17	F4	press
798.431	n/a	RESPONSE	        M2	2	16	E4	release
798.591	n/a	RESPONSE	        M2	2	21	A4	press
798.596	n/a	RESPONSE	        M2	2	19	G4	press
798.621	n/a	RESPONSE	        M2	2	17	F4	release
798.934	n/a	RESPONSE	        M2	2	21	A4	release
799.199	n/a	RESPONSE	        M2	2	19	G4	release
799.306	n/a	RESPONSE	        M2	2	16	E4	press
799.642	n/a	RESPONSE	        M2	2	16	E4	release
799.645	n/a	RESPONSE	        M2	2	19	G4	press
799.905	n/a	RESPONSE	        M2	2	19	G4	release
799.997	n/a	RESPONSE	        M2	2	19	G4	press
800.318	n/a	RESPONSE	        M2	2	17	F4	press
800.421	n/a	RESPONSE	        M2	2	19	G4	release
800.644	n/a	RESPONSE	        M2	2	16	E4	press
800.682	n/a	RESPONSE	        M2	2	17	F4	release
800.962	n/a	RESPONSE	        M2	2	14	D4	press
801.087	n/a	RESPONSE	        M2	2	16	E4	release
801.306	n/a	RESPONSE	        M2	2	12	C4	press
801.377	n/a	RESPONSE	        M2	2	14	D4	release
802.453	7.758	FIXCROSS	n/a	n/a	n/a	n/a	n/a
802.781	n/a	RESPONSE	        M2	2	12	C4	release
810.212	6.317	CUE_LISTEN	        M8	1	n/a	n/a	n/a
816.528	7.758	FIXCROSS	n/a	n/a	n/a	n/a	n/a
824.286	6.325	CUE_PLAYBACK_RIGHT_HAND	        M8	1	n/a	n/a	n/a
824.702	n/a	RESPONSE	        M8	1	16	E4	press
824.992	n/a	RESPONSE	        M8	1	17	F4	press
825.155	n/a	RESPONSE	        M8	1	16	E4	release
825.415	n/a	RESPONSE	        M8	1	17	F4	release
826.766	n/a	RESPONSE	        M8	1	17	F4	press
827.097	n/a	RESPONSE	        M8	1	17	F4	release
827.348	n/a	RESPONSE	        M8	1	16	E4	press
827.646	n/a	RESPONSE	        M8	1	19	G4	press
827.83	n/a	RESPONSE	        M8	1	16	E4	release
827.971	n/a	RESPONSE	        M8	1	23	B4	press
828.026	n/a	RESPONSE	        M8	1	19	G4	release
828.431	n/a	RESPONSE	        M8	1	23	B4	release
828.558	n/a	RESPONSE	        M8	1	23	B4	press
829.146	n/a	RESPONSE	        M8	1	18	F#4	press
829.215	n/a	RESPONSE	        M8	1	23	B4	release
829.696	n/a	RESPONSE	        M8	1	23	B4	press
829.784	n/a	RESPONSE	        M8	1	18	F#4	release
830.612	7.758	FIXCROSS	n/a	n/a	n/a	n/a	n/a
830.747	n/a	RESPONSE	        M8	1	21	A4	press
830.857	n/a	RESPONSE	        M8	1	23	B4	release
831.006	n/a	RESPONSE	        M8	1	19	G4	press
831.16	n/a	RESPONSE	        M8	1	21	A4	release
831.321	n/a	RESPONSE	        M8	1	18	F#4	press
831.402	n/a	RESPONSE	        M8	1	19	G4	release
831.564	n/a	RESPONSE	        M8	1	16	E4	press
831.675	n/a	RESPONSE	        M8	1	18	F#4	release
832.246	n/a	RESPONSE	        M8	1	23	B4	press
832.347	n/a	RESPONSE	        M8	1	16	E4	release
833.378	n/a	RESPONSE	        M8	1	23	B4	release
838.37	6.317	CUE_LISTEN	        M8	2	n/a	n/a	n/a
844.686	7.758	FIXCROSS	n/a	n/a	n/a	n/a	n/a
852.445	6.317	CUE_PLAYBACK_RIGHT_HAND	        M8	2	n/a	n/a	n/a
852.804	n/a	RESPONSE	        M8	2	16	E4	press
853.056	n/a	RESPONSE	        M8	2	19	G4	press
853.308	n/a	RESPONSE	        M8	2	16	E4	release
853.357	n/a	RESPONSE	        M8	2	23	B4	press
853.419	n/a	RESPONSE	        M8	2	19	G4	release
853.752	n/a	RESPONSE	        M8	2	23	B4	release
853.854	n/a	RESPONSE	        M8	2	23	B4	press
854.385	n/a	RESPONSE	        M8	2	18	F#4	press
854.466	n/a	RESPONSE	        M8	2	23	B4	release
854.858	n/a	RESPONSE	        M8	2	21	A4	press
854.968	n/a	RESPONSE	        M8	2	18	F#4	release
855.75	n/a	RESPONSE	        M8	2	23	B4	press
855.792	n/a	RESPONSE	        M8	2	21	A4	release
856.432	n/a	RESPONSE	        M8	2	21	A4	press
856.686	n/a	RESPONSE	        M8	2	19	G4	press
856.885	n/a	RESPONSE	        M8	2	21	A4	release
856.966	n/a	RESPONSE	        M8	2	18	F#4	press
857.007	n/a	RESPONSE	        M8	2	23	B4	release
857.018	n/a	RESPONSE	        M8	2	19	G4	release
857.242	n/a	RESPONSE	        M8	2	19	G4	press
857.351	n/a	RESPONSE	        M8	2	18	F#4	release
857.712	n/a	RESPONSE	        M8	2	16	E4	press
857.804	n/a	RESPONSE	        M8	2	19	G4	release
858.762	7.758	FIXCROSS	n/a	n/a	n/a	n/a	n/a
859.241	n/a	RESPONSE	        M8	2	16	E4	release
866.52	6.333	CUE_LISTEN	        M6	1	n/a	n/a	n/a
872.853	7.758	FIXCROSS	n/a	n/a	n/a	n/a	n/a
880.612	6.308	CUE_PLAYBACK_BOTH_HANDS	        M6	1	n/a	n/a	n/a
881.346	n/a	RESPONSE	        M6	1	07	G3	press
881.357	n/a	RESPONSE	        M6	1	11	B3	press
881.368	n/a	RESPONSE	        M6	1	14	D4	press
881.371	n/a	RESPONSE	        M6	1	04	E3	press
881.881	n/a	RESPONSE	        M6	1	14	D4	release
881.924	n/a	RESPONSE	        M6	1	07	G3	release
881.944	n/a	RESPONSE	        M6	1	11	B3	release
881.995	n/a	RESPONSE	        M6	1	04	E3	release
882.166	n/a	RESPONSE	        M6	1	07	G3	press
882.168	n/a	RESPONSE	        M6	1	04	E3	press
882.178	n/a	RESPONSE	        M6	1	11	B3	press
882.551	n/a	RESPONSE	        M6	1	14	D4	press
882.842	n/a	RESPONSE	        M6	1	17	F4	press
882.932	n/a	RESPONSE	        M6	1	14	D4	release
883.304	n/a	RESPONSE	        M6	1	16	E4	press
883.587	n/a	RESPONSE	        M6	1	17	F4	release
883.657	n/a	RESPONSE	        M6	1	16	E4	release
883.751	n/a	RESPONSE	        M6	1	11	B3	release
884.122	n/a	RESPONSE	        M6	1	07	G3	release
884.841	n/a	RESPONSE	        M6	1	12	C4	press
885.232	n/a	RESPONSE	        M6	1	12	C4	release
885.506	n/a	RESPONSE	        M6	1	07	G3	press
885.535	n/a	RESPONSE	        M6	1	11	B3	press
885.857	n/a	RESPONSE	        M6	1	12	C4	press
886.047	n/a	RESPONSE	        M6	1	16	E4	press
886.088	n/a	RESPONSE	        M6	1	12	C4	release
886.28	n/a	RESPONSE	        M6	1	11	B3	release
886.322	n/a	RESPONSE	        M6	1	07	G3	release
886.382	n/a	RESPONSE	        M6	1	16	E4	release
886.92	7.758	FIXCROSS	n/a	n/a	n/a	n/a	n/a
887.364	n/a	RESPONSE	        M6	1	04	E3	release
888.08	n/a	RESPONSE	        M6	1	09	A3	press
888.46	n/a	RESPONSE	        M6	1	11	B3	press
888.498	n/a	RESPONSE	        M6	1	09	A3	release
888.781	n/a	RESPONSE	        M6	1	11	B3	release
889.05	n/a	RESPONSE	        M6	1	09	A3	press
889.517	n/a	RESPONSE	        M6	1	09	A3	release
889.541	n/a	RESPONSE	        M6	1	12	C4	press
889.931	n/a	RESPONSE	        M6	1	12	C4	release
890.576	n/a	RESPONSE	        M6	1	07	G3	press
890.986	n/a	RESPONSE	        M6	1	07	G3	release
891.171	n/a	RESPONSE	        M6	1	07	G3	press
891.271	n/a	RESPONSE	        M6	1	09	A3	press
891.512	n/a	RESPONSE	        M6	1	09	A3	release
891.756	n/a	RESPONSE	        M6	1	07	G3	release
891.805	n/a	RESPONSE	        M6	1	11	B3	press
892.146	n/a	RESPONSE	        M6	1	11	B3	release
894.678	6.317	CUE_LISTEN	        M6	2	n/a	n/a	n/a
900.995	7.759	FIXCROSS	n/a	n/a	n/a	n/a	n/a
908.753	193.938	CUE_PLAYBACK_BOTH_HANDS	        M6	2	n/a	n/a	n/a
909.281	n/a	RESPONSE	        M6	2	16	E4	press
909.288	n/a	RESPONSE	        M6	2	12	C4	press
909.307	n/a	RESPONSE	        M6	2	09	A3	press
909.724	n/a	RESPONSE	        M6	2	17	F4	press
910.116	n/a	RESPONSE	        M6	2	19	G4	press
910.118	n/a	RESPONSE	        M6	2	21	A4	press
910.205	n/a	RESPONSE	        M6	2	17	F4	release
910.272	n/a	RESPONSE	        M6	2	17	F4	press
910.313	n/a	RESPONSE	        M6	2	19	G4	release
910.327	n/a	RESPONSE	        M6	2	21	A4	release
910.461	n/a	RESPONSE	        M6	2	17	F4	release
910.567	n/a	RESPONSE	        M6	2	16	E4	release
910.592	n/a	RESPONSE	        M6	2	12	C4	release
910.606	n/a	RESPONSE	        M6	2	09	A3	release
910.752	n/a	RESPONSE	        M6	2	16	E4	press
910.756	n/a	RESPONSE	        M6	2	12	C4	press
910.76	n/a	RESPONSE	        M6	2	09	A3	press
911.171	n/a	RESPONSE	        M6	2	19	G4	press
911.572	n/a	RESPONSE	        M6	2	21	A4	press
911.764	n/a	RESPONSE	        M6	2	19	G4	release
912.665	n/a	RESPONSE	        M6	2	22	A#4	press
912.858	n/a	RESPONSE	        M6	2	21	A4	release
913.253	n/a	FIXCROSS	n/a	n/a	n/a	n/a	n/a
913.568	n/a	RESPONSE	        M6	2	09	A3	release
913.571	n/a	RESPONSE	        M6	2	16	E4	release
913.661	n/a	RESPONSE	        M6	2	12	C4	release
913.782	n/a	RESPONSE	        M6	2	21	A4	press
913.785	n/a	RESPONSE	        M6	2	23	B4	press
913.795	n/a	RESPONSE	        M6	2	11	B3	press
913.816	n/a	RESPONSE	        M6	2	07	G3	press
913.897	n/a	RESPONSE	        M6	2	22	A#4	release
914.238	n/a	RESPONSE	        M6	2	21	A4	release
914.25	n/a	RESPONSE	        M6	2	23	B4	release
914.381	n/a	RESPONSE	        M6	2	11	B3	release
914.512	n/a	RESPONSE	        M6	2	07	G3	release
