onset	duration	trial_type	trial_number	stroop_condition	stim_text(PL)	stim_text(eng)	stim_color(PL)	stim_color(eng)	response_type	response_color
0.0	n/a	RESPONSE	n/a	n/a	n/a	n/a	n/a	n/a	n/a	n/a
0.0644	1.0333	ITI	n/a	n/a	n/a	n/a	n/a	n/a	n/a	n/a
1.0977	0.5167	FIXCROSS	n/a	n/a	n/a	n/a	n/a	n/a	n/a	n/a
1.6144	1.2833	T_INK	1	Incongruent	zielony	green	niebieski	blue	hit	n/a
2.8633	n/a	RESPONSE	n/a	n/a	n/a	n/a	n/a	n/a	n/a	blue
2.8978	0.5167	FEEDBACK	n/a	n/a	n/a	n/a	n/a	n/a	n/a	n/a
3.4144	1.0167	ITI	n/a	n/a	n/a	n/a	n/a	n/a	n/a	n/a
4.4311	0.5167	FIXCROSS	n/a	n/a	n/a	n/a	n/a	n/a	n/a	n/a
4.9478	1.5667	T_INK	2	Neutral	xxxxxxxxx	xxxxxxxxx	zielony	green	hit	n/a
6.4783	n/a	RESPONSE	n/a	n/a	n/a	n/a	n/a	n/a	n/a	green
6.5145	0.5	FEEDBACK	n/a	n/a	n/a	n/a	n/a	n/a	n/a	n/a
7.0145	1.0167	ITI	n/a	n/a	n/a	n/a	n/a	n/a	n/a	n/a
8.0311	0.5167	FIXCROSS	n/a	n/a	n/a	n/a	n/a	n/a	n/a	n/a
8.5478	0.9333	T_INK	3	Neutral	xxxxxxx	xxxxxxx	czerwony	red	hit	n/a
9.4536	n/a	RESPONSE	n/a	n/a	n/a	n/a	n/a	n/a	n/a	red
9.4811	0.5167	FEEDBACK	n/a	n/a	n/a	n/a	n/a	n/a	n/a	n/a
9.9978	1.0167	ITI	n/a	n/a	n/a	n/a	n/a	n/a	n/a	n/a
11.0145	0.5167	FIXCROSS	n/a	n/a	n/a	n/a	n/a	n/a	n/a	n/a
11.5312	1.1167	T_INK	4	Neutral	xxxxxxxx	xxxxxxxx	niebieski	blue	hit	n/a
12.6209	n/a	RESPONSE	n/a	n/a	n/a	n/a	n/a	n/a	n/a	blue
12.6478	0.5167	FEEDBACK	n/a	n/a	n/a	n/a	n/a	n/a	n/a	n/a
13.1645	1.0167	ITI	n/a	n/a	n/a	n/a	n/a	n/a	n/a	n/a
14.1812	0.5167	FIXCROSS	n/a	n/a	n/a	n/a	n/a	n/a	n/a	n/a
14.6979	0.9833	T_INK	5	Incongruent	żółty	yellow	czerwony	red	hit	n/a
15.6601	n/a	RESPONSE	n/a	n/a	n/a	n/a	n/a	n/a	n/a	red
15.6812	0.5167	FEEDBACK	n/a	n/a	n/a	n/a	n/a	n/a	n/a	n/a
16.1979	1.0167	ITI	n/a	n/a	n/a	n/a	n/a	n/a	n/a	n/a
17.2145	0.5167	FIXCROSS	n/a	n/a	n/a	n/a	n/a	n/a	n/a	n/a
17.7312	1.0	T_INK	6	Incongruent	czerwony	red	niebieski	blue	hit	n/a
18.6994	n/a	RESPONSE	n/a	n/a	n/a	n/a	n/a	n/a	n/a	blue
18.7312	0.5167	FEEDBACK	n/a	n/a	n/a	n/a	n/a	n/a	n/a	n/a
19.2479	1.0167	ITI	n/a	n/a	n/a	n/a	n/a	n/a	n/a	n/a
20.2646	0.5167	FIXCROSS	n/a	n/a	n/a	n/a	n/a	n/a	n/a	n/a
20.7812	1.1	T_INK	7	Incongruent	czerwony	red	zielony	green	hit	n/a
21.8506	n/a	RESPONSE	n/a	n/a	n/a	n/a	n/a	n/a	n/a	green
21.8812	0.5167	FEEDBACK	n/a	n/a	n/a	n/a	n/a	n/a	n/a	n/a
22.3979	1.0167	ITI	n/a	n/a	n/a	n/a	n/a	n/a	n/a	n/a
23.4146	0.5167	FIXCROSS	n/a	n/a	n/a	n/a	n/a	n/a	n/a	n/a
23.9313	0.7	T_INK	8	Neutral	xxxxxxxxx	xxxxxxxxx	czerwony	red	hit	n/a
24.6019	n/a	RESPONSE	n/a	n/a	n/a	n/a	n/a	n/a	n/a	red
24.6313	0.5167	FEEDBACK	n/a	n/a	n/a	n/a	n/a	n/a	n/a	n/a
25.1479	1.0167	ITI	n/a	n/a	n/a	n/a	n/a	n/a	n/a	n/a
26.1646	0.5167	FIXCROSS	n/a	n/a	n/a	n/a	n/a	n/a	n/a	n/a
26.6813	1.05	T_INK	9	Incongruent	niebieski	blue	czerwony	red	hit	n/a
27.7051	n/a	RESPONSE	n/a	n/a	n/a	n/a	n/a	n/a	n/a	red
27.7313	0.5167	FEEDBACK	n/a	n/a	n/a	n/a	n/a	n/a	n/a	n/a
28.248	1.0167	ITI	n/a	n/a	n/a	n/a	n/a	n/a	n/a	n/a
29.2647	0.5167	FIXCROSS	n/a	n/a	n/a	n/a	n/a	n/a	n/a	n/a
29.7813	0.9667	T_INK	10	Neutral	xxxxxxx	xxxxxxx	żółty	yellow	hit	n/a
30.7284	n/a	RESPONSE	n/a	n/a	n/a	n/a	n/a	n/a	n/a	yellow
30.748	0.5167	FEEDBACK	n/a	n/a	n/a	n/a	n/a	n/a	n/a	n/a
31.2647	1.0167	ITI	n/a	n/a	n/a	n/a	n/a	n/a	n/a	n/a
32.2813	0.5167	FIXCROSS	n/a	n/a	n/a	n/a	n/a	n/a	n/a	n/a
32.798	0.7667	T_INK	11	Incongruent	zielony	green	żółty	yellow	hit	n/a
33.5437	n/a	RESPONSE	n/a	n/a	n/a	n/a	n/a	n/a	n/a	yellow
33.5647	0.5167	FEEDBACK	n/a	n/a	n/a	n/a	n/a	n/a	n/a	n/a
34.0814	1.0167	ITI	n/a	n/a	n/a	n/a	n/a	n/a	n/a	n/a
35.098	0.5167	FIXCROSS	n/a	n/a	n/a	n/a	n/a	n/a	n/a	n/a
35.6147	0.75	T_INK	12	Neutral	xxxxx	xxxxx	czerwony	red	hit	n/a
36.343	n/a	RESPONSE	n/a	n/a	n/a	n/a	n/a	n/a	n/a	red
36.3647	0.5167	FEEDBACK	n/a	n/a	n/a	n/a	n/a	n/a	n/a	n/a
36.8814	1.0333	ITI	n/a	n/a	n/a	n/a	n/a	n/a	n/a	n/a
41.4137	n/a	RESPONSE	n/a	n/a	n/a	n/a	n/a	n/a	n/a	n/a
41.4814	1.0166	ITI	n/a	n/a	n/a	n/a	n/a	n/a	n/a	n/a
42.4981	0.5167	FIXCROSS	n/a	n/a	n/a	n/a	n/a	n/a	n/a	n/a
43.0148	0.8	INK	1	Neutral	xxxxx	xxxxx	niebieski	blue	hit	n/a
43.781	n/a	RESPONSE	n/a	n/a	n/a	n/a	n/a	n/a	n/a	blue
43.8148	1.0167	ITI	n/a	n/a	n/a	n/a	n/a	n/a	n/a	n/a
44.8314	0.5167	FIXCROSS	n/a	n/a	n/a	n/a	n/a	n/a	n/a	n/a
45.3481	0.6333	INK	2	Incongruent	czerwony	red	niebieski	blue	hit	n/a
45.9565	n/a	RESPONSE	n/a	n/a	n/a	n/a	n/a	n/a	n/a	blue
45.9814	1.0167	ITI	n/a	n/a	n/a	n/a	n/a	n/a	n/a	n/a
46.9981	0.5167	FIXCROSS	n/a	n/a	n/a	n/a	n/a	n/a	n/a	n/a
47.5148	0.8167	INK	3	Incongruent	zielony	green	żółty	yellow	hit	n/a
48.3079	n/a	RESPONSE	n/a	n/a	n/a	n/a	n/a	n/a	n/a	yellow
48.3315	1.0167	ITI	n/a	n/a	n/a	n/a	n/a	n/a	n/a	n/a
49.3481	0.5167	FIXCROSS	n/a	n/a	n/a	n/a	n/a	n/a	n/a	n/a
49.8648	0.75	INK	4	Neutral	xxxxx	xxxxx	zielony	green	hit	n/a
50.5953	n/a	RESPONSE	n/a	n/a	n/a	n/a	n/a	n/a	n/a	green
50.6148	1.0167	ITI	n/a	n/a	n/a	n/a	n/a	n/a	n/a	n/a
51.6315	0.5167	FIXCROSS	n/a	n/a	n/a	n/a	n/a	n/a	n/a	n/a
52.1482	0.8	INK	5	Incongruent	niebieski	blue	żółty	yellow	hit	n/a
52.9307	n/a	RESPONSE	n/a	n/a	n/a	n/a	n/a	n/a	n/a	yellow
52.9482	1.0167	ITI	n/a	n/a	n/a	n/a	n/a	n/a	n/a	n/a
53.9649	0.5167	FIXCROSS	n/a	n/a	n/a	n/a	n/a	n/a	n/a	n/a
54.4815	0.65	INK	6	Neutral	xxxxxxx	xxxxxxx	czerwony	red	hit	n/a
55.1061	n/a	RESPONSE	n/a	n/a	n/a	n/a	n/a	n/a	n/a	red
55.1315	1.0167	ITI	n/a	n/a	n/a	n/a	n/a	n/a	n/a	n/a
56.1482	0.5167	FIXCROSS	n/a	n/a	n/a	n/a	n/a	n/a	n/a	n/a
56.6649	0.8	INK	7	Incongruent	zielony	green	żółty	yellow	hit	n/a
57.4415	n/a	RESPONSE	n/a	n/a	n/a	n/a	n/a	n/a	n/a	yellow
57.4649	1.0167	ITI	n/a	n/a	n/a	n/a	n/a	n/a	n/a	n/a
58.4816	0.5167	FIXCROSS	n/a	n/a	n/a	n/a	n/a	n/a	n/a	n/a
58.9982	0.65	INK	8	Incongruent	zielony	green	żółty	yellow	hit	n/a
59.6169	n/a	RESPONSE	n/a	n/a	n/a	n/a	n/a	n/a	n/a	yellow
59.6482	1.0167	ITI	n/a	n/a	n/a	n/a	n/a	n/a	n/a	n/a
60.6649	0.5167	FIXCROSS	n/a	n/a	n/a	n/a	n/a	n/a	n/a	n/a
61.1816	0.8833	INK	9	Incongruent	żółty	yellow	niebieski	blue	hit	n/a
62.0323	n/a	RESPONSE	n/a	n/a	n/a	n/a	n/a	n/a	n/a	blue
62.0649	1.0167	ITI	n/a	n/a	n/a	n/a	n/a	n/a	n/a	n/a
63.0816	0.5167	FIXCROSS	n/a	n/a	n/a	n/a	n/a	n/a	n/a	n/a
63.5983	0.7667	INK	10	Neutral	xxxxx	xxxxx	czerwony	red	hit	n/a
64.3357	n/a	RESPONSE	n/a	n/a	n/a	n/a	n/a	n/a	n/a	red
64.3649	1.0167	ITI	n/a	n/a	n/a	n/a	n/a	n/a	n/a	n/a
65.3816	0.5167	FIXCROSS	n/a	n/a	n/a	n/a	n/a	n/a	n/a	n/a
65.8983	0.7333	INK	11	Neutral	xxxxx	xxxxx	niebieski	blue	hit	n/a
66.6071	n/a	RESPONSE	n/a	n/a	n/a	n/a	n/a	n/a	n/a	blue
66.6316	1.0167	ITI	n/a	n/a	n/a	n/a	n/a	n/a	n/a	n/a
67.6483	0.5167	FIXCROSS	n/a	n/a	n/a	n/a	n/a	n/a	n/a	n/a
68.165	0.7833	INK	12	Incongruent	zielony	green	niebieski	blue	hit	n/a
68.9265	n/a	RESPONSE	n/a	n/a	n/a	n/a	n/a	n/a	n/a	blue
68.9483	1.0167	ITI	n/a	n/a	n/a	n/a	n/a	n/a	n/a	n/a
69.965	0.5167	FIXCROSS	n/a	n/a	n/a	n/a	n/a	n/a	n/a	n/a
70.4817	0.7	INK	13	Incongruent	zielony	green	czerwony	red	hit	n/a
71.1499	n/a	RESPONSE	n/a	n/a	n/a	n/a	n/a	n/a	n/a	red
71.1817	1.0167	ITI	n/a	n/a	n/a	n/a	n/a	n/a	n/a	n/a
72.1983	0.5167	FIXCROSS	n/a	n/a	n/a	n/a	n/a	n/a	n/a	n/a
72.715	0.9667	INK	14	Incongruent	czerwony	red	zielony	green	hit	n/a
73.6613	n/a	RESPONSE	n/a	n/a	n/a	n/a	n/a	n/a	n/a	green
73.6817	1.0167	ITI	n/a	n/a	n/a	n/a	n/a	n/a	n/a	n/a
74.6984	0.5167	FIXCROSS	n/a	n/a	n/a	n/a	n/a	n/a	n/a	n/a
75.215	0.7167	INK	15	Neutral	xxxxxxx	xxxxxxx	czerwony	red	hit	n/a
75.9007	n/a	RESPONSE	n/a	n/a	n/a	n/a	n/a	n/a	n/a	red
75.9317	1.0167	ITI	n/a	n/a	n/a	n/a	n/a	n/a	n/a	n/a
76.9484	0.5167	FIXCROSS	n/a	n/a	n/a	n/a	n/a	n/a	n/a	n/a
77.465	0.9833	INK	16	Neutral	xxxxxxxx	xxxxxxxx	zielony	green	hit	n/a
78.428	n/a	RESPONSE	n/a	n/a	n/a	n/a	n/a	n/a	n/a	green
78.4484	1.0167	ITI	n/a	n/a	n/a	n/a	n/a	n/a	n/a	n/a
79.4651	0.5167	FIXCROSS	n/a	n/a	n/a	n/a	n/a	n/a	n/a	n/a
79.9817	0.7833	INK	17	Incongruent	niebieski	blue	czerwony	red	hit	n/a
80.7314	n/a	RESPONSE	n/a	n/a	n/a	n/a	n/a	n/a	n/a	red
80.7651	1.0167	ITI	n/a	n/a	n/a	n/a	n/a	n/a	n/a	n/a
81.7817	0.5167	FIXCROSS	n/a	n/a	n/a	n/a	n/a	n/a	n/a	n/a
82.2984	0.75	INK	18	Neutral	xxxxxxxxx	xxxxxxxxx	żółty	yellow	hit	n/a
83.0188	n/a	RESPONSE	n/a	n/a	n/a	n/a	n/a	n/a	n/a	yellow
83.0484	1.0167	ITI	n/a	n/a	n/a	n/a	n/a	n/a	n/a	n/a
84.0651	0.5167	FIXCROSS	n/a	n/a	n/a	n/a	n/a	n/a	n/a	n/a
84.5818	0.9667	INK	19	Incongruent	niebieski	blue	zielony	green	hit	n/a
85.5142	n/a	RESPONSE	n/a	n/a	n/a	n/a	n/a	n/a	n/a	green
85.5484	1.0167	ITI	n/a	n/a	n/a	n/a	n/a	n/a	n/a	n/a
86.5651	0.5167	FIXCROSS	n/a	n/a	n/a	n/a	n/a	n/a	n/a	n/a
87.0818	0.65	INK	20	Incongruent	zielony	green	czerwony	red	hit	n/a
87.7056	n/a	RESPONSE	n/a	n/a	n/a	n/a	n/a	n/a	n/a	red
87.7318	1.0167	ITI	n/a	n/a	n/a	n/a	n/a	n/a	n/a	n/a
88.7485	0.5167	FIXCROSS	n/a	n/a	n/a	n/a	n/a	n/a	n/a	n/a
89.2651	0.75	INK	21	Neutral	xxxxxxxx	xxxxxxxx	żółty	yellow	hit	n/a
89.993	n/a	RESPONSE	n/a	n/a	n/a	n/a	n/a	n/a	n/a	yellow
90.0151	1.0167	ITI	n/a	n/a	n/a	n/a	n/a	n/a	n/a	n/a
91.0318	0.5167	FIXCROSS	n/a	n/a	n/a	n/a	n/a	n/a	n/a	n/a
91.5485	0.6	INK	22	Neutral	xxxxxxxxx	xxxxxxxxx	czerwony	red	hit	n/a
92.1204	n/a	RESPONSE	n/a	n/a	n/a	n/a	n/a	n/a	n/a	red
92.1485	1.0167	ITI	n/a	n/a	n/a	n/a	n/a	n/a	n/a	n/a
93.1652	0.5167	FIXCROSS	n/a	n/a	n/a	n/a	n/a	n/a	n/a	n/a
93.6818	0.8	INK	23	Incongruent	niebieski	blue	zielony	green	hit	n/a
94.4558	n/a	RESPONSE	n/a	n/a	n/a	n/a	n/a	n/a	n/a	green
94.4819	1.0167	ITI	n/a	n/a	n/a	n/a	n/a	n/a	n/a	n/a
95.4985	0.5167	FIXCROSS	n/a	n/a	n/a	n/a	n/a	n/a	n/a	n/a
96.0152	0.75	INK	24	Neutral	xxxxxxxxx	xxxxxxxxx	żółty	yellow	hit	n/a
96.7432	n/a	RESPONSE	n/a	n/a	n/a	n/a	n/a	n/a	n/a	yellow
96.7652	1.0167	ITI	n/a	n/a	n/a	n/a	n/a	n/a	n/a	n/a
97.7819	0.5167	FIXCROSS	n/a	n/a	n/a	n/a	n/a	n/a	n/a	n/a
98.2985	0.6	INK	25	Neutral	xxxxxxxxx	xxxxxxxxx	czerwony	red	hit	n/a
98.8707	n/a	RESPONSE	n/a	n/a	n/a	n/a	n/a	n/a	n/a	red
98.8986	1.0167	ITI	n/a	n/a	n/a	n/a	n/a	n/a	n/a	n/a
99.9152	0.5167	FIXCROSS	n/a	n/a	n/a	n/a	n/a	n/a	n/a	n/a
100.4319	0.6833	INK	26	Neutral	xxxxxxxxx	xxxxxxxxx	czerwony	red	hit	n/a
101.0941	n/a	RESPONSE	n/a	n/a	n/a	n/a	n/a	n/a	n/a	red
101.1152	1.0167	ITI	n/a	n/a	n/a	n/a	n/a	n/a	n/a	n/a
102.1319	0.5167	FIXCROSS	n/a	n/a	n/a	n/a	n/a	n/a	n/a	n/a
102.6486	0.5667	INK	27	Neutral	xxxxx	xxxxx	czerwony	red	hit	n/a
103.1896	n/a	RESPONSE	n/a	n/a	n/a	n/a	n/a	n/a	n/a	red
103.2153	1.0167	ITI	n/a	n/a	n/a	n/a	n/a	n/a	n/a	n/a
104.2319	0.5167	FIXCROSS	n/a	n/a	n/a	n/a	n/a	n/a	n/a	n/a
104.7486	0.7833	INK	28	Neutral	xxxxxxxx	xxxxxxxx	żółty	yellow	hit	n/a
105.5089	n/a	RESPONSE	n/a	n/a	n/a	n/a	n/a	n/a	n/a	yellow
105.5319	1.0167	ITI	n/a	n/a	n/a	n/a	n/a	n/a	n/a	n/a
106.5486	0.5167	FIXCROSS	n/a	n/a	n/a	n/a	n/a	n/a	n/a	n/a
107.0653	0.65	INK	29	Neutral	xxxxxxx	xxxxxxx	żółty	yellow	hit	n/a
107.6843	n/a	RESPONSE	n/a	n/a	n/a	n/a	n/a	n/a	n/a	yellow
107.7153	1.0167	ITI	n/a	n/a	n/a	n/a	n/a	n/a	n/a	n/a
108.732	0.5167	FIXCROSS	n/a	n/a	n/a	n/a	n/a	n/a	n/a	n/a
109.2486	0.8	INK	30	Neutral	xxxxxxxx	xxxxxxxx	niebieski	blue	hit	n/a
110.0197	n/a	RESPONSE	n/a	n/a	n/a	n/a	n/a	n/a	n/a	blue
110.0487	1.0167	ITI	n/a	n/a	n/a	n/a	n/a	n/a	n/a	n/a
111.0653	0.5167	FIXCROSS	n/a	n/a	n/a	n/a	n/a	n/a	n/a	n/a
111.582	0.7167	INK	31	Neutral	xxxxxxxxx	xxxxxxxxx	zielony	green	hit	n/a
112.2752	n/a	RESPONSE	n/a	n/a	n/a	n/a	n/a	n/a	n/a	green
112.2987	1.0167	ITI	n/a	n/a	n/a	n/a	n/a	n/a	n/a	n/a
113.3153	0.5167	FIXCROSS	n/a	n/a	n/a	n/a	n/a	n/a	n/a	n/a
113.832	0.7667	INK	32	Neutral	xxxxx	xxxxx	czerwony	red	hit	n/a
114.5785	n/a	RESPONSE	n/a	n/a	n/a	n/a	n/a	n/a	n/a	red
114.5987	1.0167	ITI	n/a	n/a	n/a	n/a	n/a	n/a	n/a	n/a
115.6154	0.5167	FIXCROSS	n/a	n/a	n/a	n/a	n/a	n/a	n/a	n/a
116.132	0.7833	INK	33	Incongruent	czerwony	red	zielony	green	hit	n/a
116.898	n/a	RESPONSE	n/a	n/a	n/a	n/a	n/a	n/a	n/a	green
116.9154	1.0167	ITI	n/a	n/a	n/a	n/a	n/a	n/a	n/a	n/a
117.932	0.5167	FIXCROSS	n/a	n/a	n/a	n/a	n/a	n/a	n/a	n/a
118.4487	0.75	INK	34	Neutral	xxxxxxx	xxxxxxx	niebieski	blue	hit	n/a
119.1693	n/a	RESPONSE	n/a	n/a	n/a	n/a	n/a	n/a	n/a	blue
119.1987	1.0167	ITI	n/a	n/a	n/a	n/a	n/a	n/a	n/a	n/a
120.2154	0.5167	FIXCROSS	n/a	n/a	n/a	n/a	n/a	n/a	n/a	n/a
120.7321	0.7	INK	35	Neutral	xxxxx	xxxxx	niebieski	blue	hit	n/a
121.4087	n/a	RESPONSE	n/a	n/a	n/a	n/a	n/a	n/a	n/a	blue
121.4321	1.0167	ITI	n/a	n/a	n/a	n/a	n/a	n/a	n/a	n/a
122.4488	0.5167	FIXCROSS	n/a	n/a	n/a	n/a	n/a	n/a	n/a	n/a
122.9654	0.7667	INK	36	Incongruent	niebieski	blue	czerwony	red	hit	n/a
123.7121	n/a	RESPONSE	n/a	n/a	n/a	n/a	n/a	n/a	n/a	red
123.7321	1.0167	ITI	n/a	n/a	n/a	n/a	n/a	n/a	n/a	n/a
124.7488	0.5167	FIXCROSS	n/a	n/a	n/a	n/a	n/a	n/a	n/a	n/a
125.2654	0.8167	INK	37	Neutral	xxxxxxxx	xxxxxxxx	zielony	green	hit	n/a
126.0635	n/a	RESPONSE	n/a	n/a	n/a	n/a	n/a	n/a	n/a	green
126.0821	1.0167	ITI	n/a	n/a	n/a	n/a	n/a	n/a	n/a	n/a
127.0988	0.5167	FIXCROSS	n/a	n/a	n/a	n/a	n/a	n/a	n/a	n/a
127.6155	0.9833	INK	38	Incongruent	zielony	green	niebieski	blue	hit	n/a
128.5749	n/a	RESPONSE	n/a	n/a	n/a	n/a	n/a	n/a	n/a	blue
128.5988	1.0167	ITI	n/a	n/a	n/a	n/a	n/a	n/a	n/a	n/a
129.6155	0.5167	FIXCROSS	n/a	n/a	n/a	n/a	n/a	n/a	n/a	n/a
130.1322	0.85	INK	39	Incongruent	niebieski	blue	żółty	yellow	hit	n/a
130.9582	n/a	RESPONSE	n/a	n/a	n/a	n/a	n/a	n/a	n/a	yellow
130.9822	1.0167	ITI	n/a	n/a	n/a	n/a	n/a	n/a	n/a	n/a
131.9988	0.5167	FIXCROSS	n/a	n/a	n/a	n/a	n/a	n/a	n/a	n/a
132.5155	0.9334	INK	40	Incongruent	żółty	yellow	zielony	green	hit	n/a
133.4216	n/a	RESPONSE	n/a	n/a	n/a	n/a	n/a	n/a	n/a	green
133.4488	1.0167	ITI	n/a	n/a	n/a	n/a	n/a	n/a	n/a	n/a
134.4655	0.5167	FIXCROSS	n/a	n/a	n/a	n/a	n/a	n/a	n/a	n/a
134.9822	0.8167	INK	41	Incongruent	niebieski	blue	żółty	yellow	hit	n/a
135.773	n/a	RESPONSE	n/a	n/a	n/a	n/a	n/a	n/a	n/a	yellow
135.789	n/a	RESPONSE	n/a	n/a	n/a	n/a	n/a	n/a	n/a	green
135.7989	1.0167	ITI	n/a	n/a	n/a	n/a	n/a	n/a	n/a	n/a
136.8155	0.5167	FIXCROSS	n/a	n/a	n/a	n/a	n/a	n/a	n/a	n/a
137.3322	0.9	INK	42	Incongruent	czerwony	red	żółty	yellow	hit	n/a
138.2043	n/a	RESPONSE	n/a	n/a	n/a	n/a	n/a	n/a	n/a	yellow
138.2322	1.0167	ITI	n/a	n/a	n/a	n/a	n/a	n/a	n/a	n/a
139.2489	0.5167	FIXCROSS	n/a	n/a	n/a	n/a	n/a	n/a	n/a	n/a
139.7656	0.7834	INK	43	Incongruent	czerwony	red	żółty	yellow	hit	n/a
140.5237	n/a	RESPONSE	n/a	n/a	n/a	n/a	n/a	n/a	n/a	yellow
140.5489	1.0167	ITI	n/a	n/a	n/a	n/a	n/a	n/a	n/a	n/a
141.5656	0.5167	FIXCROSS	n/a	n/a	n/a	n/a	n/a	n/a	n/a	n/a
142.0822	0.75	INK	44	Incongruent	czerwony	red	niebieski	blue	hit	n/a
142.8111	n/a	RESPONSE	n/a	n/a	n/a	n/a	n/a	n/a	n/a	blue
142.8323	1.0167	ITI	n/a	n/a	n/a	n/a	n/a	n/a	n/a	n/a
143.8489	0.5167	FIXCROSS	n/a	n/a	n/a	n/a	n/a	n/a	n/a	n/a
144.3656	0.6166	INK	45	Incongruent	czerwony	red	zielony	green	hit	n/a
144.9546	n/a	RESPONSE	n/a	n/a	n/a	n/a	n/a	n/a	n/a	green
144.9822	1.0167	ITI	n/a	n/a	n/a	n/a	n/a	n/a	n/a	n/a
145.9989	0.5167	FIXCROSS	n/a	n/a	n/a	n/a	n/a	n/a	n/a	n/a
146.5156	0.7667	INK	46	Incongruent	czerwony	red	żółty	yellow	hit	n/a
147.258	n/a	RESPONSE	n/a	n/a	n/a	n/a	n/a	n/a	n/a	yellow
147.2823	1.0167	ITI	n/a	n/a	n/a	n/a	n/a	n/a	n/a	n/a
148.299	0.5167	FIXCROSS	n/a	n/a	n/a	n/a	n/a	n/a	n/a	n/a
148.8156	0.75	INK	47	Neutral	xxxxxxxx	xxxxxxxx	żółty	yellow	hit	n/a
149.5454	n/a	RESPONSE	n/a	n/a	n/a	n/a	n/a	n/a	n/a	yellow
149.5656	1.0167	ITI	n/a	n/a	n/a	n/a	n/a	n/a	n/a	n/a
150.5823	0.5167	FIXCROSS	n/a	n/a	n/a	n/a	n/a	n/a	n/a	n/a
151.099	0.6833	INK	48	Neutral	xxxxxxx	xxxxxxx	żółty	yellow	hit	n/a
151.7528	n/a	RESPONSE	n/a	n/a	n/a	n/a	n/a	n/a	n/a	yellow
151.7823	1.0167	ITI	n/a	n/a	n/a	n/a	n/a	n/a	n/a	n/a
152.799	0.5167	FIXCROSS	n/a	n/a	n/a	n/a	n/a	n/a	n/a	n/a
153.3157	1.0333	INK	49	Neutral	xxxxxxxxx	xxxxxxxxx	zielony	green	hit	n/a
154.3281	n/a	RESPONSE	n/a	n/a	n/a	n/a	n/a	n/a	n/a	green
154.349	1.0167	ITI	n/a	n/a	n/a	n/a	n/a	n/a	n/a	n/a
155.3657	0.5167	FIXCROSS	n/a	n/a	n/a	n/a	n/a	n/a	n/a	n/a
155.8824	0.7833	INK	50	Incongruent	żółty	yellow	czerwony	red	hit	n/a
156.6475	n/a	RESPONSE	n/a	n/a	n/a	n/a	n/a	n/a	n/a	red
156.6657	1.0167	ITI	n/a	n/a	n/a	n/a	n/a	n/a	n/a	n/a
157.6824	0.5167	FIXCROSS	n/a	n/a	n/a	n/a	n/a	n/a	n/a	n/a
158.199	0.5667	INK	51	Neutral	xxxxxxx	xxxxxxx	czerwony	red	hit	n/a
158.743	n/a	RESPONSE	n/a	n/a	n/a	n/a	n/a	n/a	n/a	red
158.7657	1.0167	ITI	n/a	n/a	n/a	n/a	n/a	n/a	n/a	n/a
159.7824	0.5167	FIXCROSS	n/a	n/a	n/a	n/a	n/a	n/a	n/a	n/a
160.2991	0.85	INK	52	Neutral	xxxxxxx	xxxxxxx	niebieski	blue	hit	n/a
161.1263	n/a	RESPONSE	n/a	n/a	n/a	n/a	n/a	n/a	n/a	blue
161.1491	1.0167	ITI	n/a	n/a	n/a	n/a	n/a	n/a	n/a	n/a
162.1657	0.5167	FIXCROSS	n/a	n/a	n/a	n/a	n/a	n/a	n/a	n/a
162.6824	0.6667	INK	53	Neutral	xxxxxxxx	xxxxxxxx	zielony	green	hit	n/a
163.3178	n/a	RESPONSE	n/a	n/a	n/a	n/a	n/a	n/a	n/a	green
163.3491	1.0167	ITI	n/a	n/a	n/a	n/a	n/a	n/a	n/a	n/a
164.3658	0.5167	FIXCROSS	n/a	n/a	n/a	n/a	n/a	n/a	n/a	n/a
164.8824	0.5167	INK	54	Neutral	xxxxx	xxxxx	zielony	green	hit	n/a
165.3812	n/a	RESPONSE	n/a	n/a	n/a	n/a	n/a	n/a	n/a	green
165.3991	1.0167	ITI	n/a	n/a	n/a	n/a	n/a	n/a	n/a	n/a
166.4158	0.5167	FIXCROSS	n/a	n/a	n/a	n/a	n/a	n/a	n/a	n/a
166.9324	0.6667	INK	55	Incongruent	żółty	yellow	czerwony	red	hit	n/a
167.5726	n/a	RESPONSE	n/a	n/a	n/a	n/a	n/a	n/a	n/a	red
167.5991	1.0167	ITI	n/a	n/a	n/a	n/a	n/a	n/a	n/a	n/a
168.6158	0.5167	FIXCROSS	n/a	n/a	n/a	n/a	n/a	n/a	n/a	n/a
169.1325	0.6833	INK	56	Neutral	xxxxxxxxx	xxxxxxxxx	żółty	yellow	hit	n/a
169.7961	n/a	RESPONSE	n/a	n/a	n/a	n/a	n/a	n/a	n/a	yellow
169.8158	1.0167	ITI	n/a	n/a	n/a	n/a	n/a	n/a	n/a	n/a
170.8325	0.5167	FIXCROSS	n/a	n/a	n/a	n/a	n/a	n/a	n/a	n/a
171.3491	0.9	INK	57	Incongruent	czerwony	red	niebieski	blue	hit	n/a
172.2274	n/a	RESPONSE	n/a	n/a	n/a	n/a	n/a	n/a	n/a	blue
172.2492	1.0167	ITI	n/a	n/a	n/a	n/a	n/a	n/a	n/a	n/a
173.2658	0.5167	FIXCROSS	n/a	n/a	n/a	n/a	n/a	n/a	n/a	n/a
173.7825	0.7667	INK	58	Neutral	xxxxxxxx	xxxxxxxx	niebieski	blue	hit	n/a
174.5308	n/a	RESPONSE	n/a	n/a	n/a	n/a	n/a	n/a	n/a	blue
174.5492	1.0167	ITI	n/a	n/a	n/a	n/a	n/a	n/a	n/a	n/a
175.5659	0.5167	FIXCROSS	n/a	n/a	n/a	n/a	n/a	n/a	n/a	n/a
176.0825	0.8	INK	59	Neutral	xxxxxxx	xxxxxxx	żółty	yellow	hit	n/a
176.8502	n/a	RESPONSE	n/a	n/a	n/a	n/a	n/a	n/a	n/a	yellow
176.8825	1.0167	ITI	n/a	n/a	n/a	n/a	n/a	n/a	n/a	n/a
177.8992	0.5167	FIXCROSS	n/a	n/a	n/a	n/a	n/a	n/a	n/a	n/a
178.4159	0.6333	INK	60	Incongruent	żółty	yellow	czerwony	red	hit	n/a
179.0222	n/a	RESPONSE	n/a	n/a	n/a	n/a	n/a	n/a	n/a	red
179.0492	1.0167	ITI	n/a	n/a	n/a	n/a	n/a	n/a	n/a	n/a
180.0659	0.5167	FIXCROSS	n/a	n/a	n/a	n/a	n/a	n/a	n/a	n/a
180.5826	0.8	INK	61	Incongruent	żółty	yellow	niebieski	blue	hit	n/a
181.361	n/a	RESPONSE	n/a	n/a	n/a	n/a	n/a	n/a	n/a	blue
181.3826	1.0167	ITI	n/a	n/a	n/a	n/a	n/a	n/a	n/a	n/a
182.3992	0.5167	FIXCROSS	n/a	n/a	n/a	n/a	n/a	n/a	n/a	n/a
182.9159	0.8834	INK	62	Incongruent	niebieski	blue	czerwony	red	hit	n/a
183.7764	n/a	RESPONSE	n/a	n/a	n/a	n/a	n/a	n/a	n/a	red
183.7993	1.0167	ITI	n/a	n/a	n/a	n/a	n/a	n/a	n/a	n/a
184.8159	0.5167	FIXCROSS	n/a	n/a	n/a	n/a	n/a	n/a	n/a	n/a
185.3326	0.7	INK	63	Incongruent	zielony	green	czerwony	red	hit	n/a
185.9998	n/a	RESPONSE	n/a	n/a	n/a	n/a	n/a	n/a	n/a	red
186.0326	1.0167	ITI	n/a	n/a	n/a	n/a	n/a	n/a	n/a	n/a
187.0493	0.5167	FIXCROSS	n/a	n/a	n/a	n/a	n/a	n/a	n/a	n/a
187.566	0.8	INK	64	Neutral	xxxxx	xxxxx	zielony	green	hit	n/a
188.3352	n/a	RESPONSE	n/a	n/a	n/a	n/a	n/a	n/a	n/a	green
188.366	1.0167	ITI	n/a	n/a	n/a	n/a	n/a	n/a	n/a	n/a
189.3826	0.5167	FIXCROSS	n/a	n/a	n/a	n/a	n/a	n/a	n/a	n/a
189.8993	0.5833	INK	65	Incongruent	żółty	yellow	zielony	green	hit	n/a
190.4627	n/a	RESPONSE	n/a	n/a	n/a	n/a	n/a	n/a	n/a	green
190.4826	1.0167	ITI	n/a	n/a	n/a	n/a	n/a	n/a	n/a	n/a
191.4993	0.5167	FIXCROSS	n/a	n/a	n/a	n/a	n/a	n/a	n/a	n/a
192.016	0.8333	INK	66	Incongruent	zielony	green	niebieski	blue	hit	n/a
192.83	n/a	RESPONSE	n/a	n/a	n/a	n/a	n/a	n/a	n/a	blue
192.8493	1.0167	ITI	n/a	n/a	n/a	n/a	n/a	n/a	n/a	n/a
193.866	0.5167	FIXCROSS	n/a	n/a	n/a	n/a	n/a	n/a	n/a	n/a
194.3827	0.7167	INK	67	Neutral	xxxxxxxxx	xxxxxxxxx	zielony	green	hit	n/a
195.0695	n/a	RESPONSE	n/a	n/a	n/a	n/a	n/a	n/a	n/a	green
195.0993	1.0167	ITI	n/a	n/a	n/a	n/a	n/a	n/a	n/a	n/a
196.116	0.5167	FIXCROSS	n/a	n/a	n/a	n/a	n/a	n/a	n/a	n/a
196.6327	0.9	INK	68	Neutral	xxxxxxx	xxxxxxx	niebieski	blue	hit	n/a
197.5008	n/a	RESPONSE	n/a	n/a	n/a	n/a	n/a	n/a	n/a	blue
197.5327	1.0167	ITI	n/a	n/a	n/a	n/a	n/a	n/a	n/a	n/a
198.5494	0.5167	FIXCROSS	n/a	n/a	n/a	n/a	n/a	n/a	n/a	n/a
199.066	0.8	INK	69	Incongruent	żółty	yellow	zielony	green	hit	n/a
199.8362	n/a	RESPONSE	n/a	n/a	n/a	n/a	n/a	n/a	n/a	green
199.8661	1.0167	ITI	n/a	n/a	n/a	n/a	n/a	n/a	n/a	n/a
200.8827	0.5167	FIXCROSS	n/a	n/a	n/a	n/a	n/a	n/a	n/a	n/a
201.3994	0.7167	INK	70	Incongruent	żółty	yellow	niebieski	blue	hit	n/a
202.0917	n/a	RESPONSE	n/a	n/a	n/a	n/a	n/a	n/a	n/a	blue
202.1161	1.0167	ITI	n/a	n/a	n/a	n/a	n/a	n/a	n/a	n/a
203.1327	0.5167	FIXCROSS	n/a	n/a	n/a	n/a	n/a	n/a	n/a	n/a
203.6494	0.8167	INK	71	Neutral	xxxxxxxx	xxxxxxxx	niebieski	blue	hit	n/a
204.4431	n/a	RESPONSE	n/a	n/a	n/a	n/a	n/a	n/a	n/a	blue
204.4661	1.0166	ITI	n/a	n/a	n/a	n/a	n/a	n/a	n/a	n/a
205.4827	0.5167	FIXCROSS	n/a	n/a	n/a	n/a	n/a	n/a	n/a	n/a
205.9994	0.85	INK	72	Incongruent	niebieski	blue	zielony	green	hit	n/a
206.8265	n/a	RESPONSE	n/a	n/a	n/a	n/a	n/a	n/a	n/a	green
206.8494	1.0833	ITI	n/a	n/a	n/a	n/a	n/a	n/a	n/a	n/a
260.5411	n/a	RESPONSE	n/a	n/a	n/a	n/a	n/a	n/a	n/a	n/a
260.5999	1.0167	ITI	n/a	n/a	n/a	n/a	n/a	n/a	n/a	n/a
261.6166	0.5167	FIXCROSS	n/a	n/a	n/a	n/a	n/a	n/a	n/a	n/a
262.1332	1.4	T_COLOR_NAME	1	Incongruent	niebieski	blue	czerwony	red	hit	n/a
263.5003	n/a	RESPONSE	n/a	n/a	n/a	n/a	n/a	n/a	n/a	blue
263.5332	0.5167	FEEDBACK	n/a	n/a	n/a	n/a	n/a	n/a	n/a	n/a
264.0499	1.0167	ITI	n/a	n/a	n/a	n/a	n/a	n/a	n/a	n/a
265.0666	0.5167	FIXCROSS	n/a	n/a	n/a	n/a	n/a	n/a	n/a	n/a
265.5833	2.2333	T_COLOR_NAME	2	Neutral	niebieski	blue	Neutral	Neutral	hit	n/a
267.7873	n/a	RESPONSE	n/a	n/a	n/a	n/a	n/a	n/a	n/a	blue
267.8166	0.5167	FEEDBACK	n/a	n/a	n/a	n/a	n/a	n/a	n/a	n/a
268.3333	1.0167	ITI	n/a	n/a	n/a	n/a	n/a	n/a	n/a	n/a
269.35	0.5167	FIXCROSS	n/a	n/a	n/a	n/a	n/a	n/a	n/a	n/a
269.8666	1.9833	T_COLOR_NAME	3	Incongruent	zielony	green	żółty	yellow	hit	n/a
271.8183	n/a	RESPONSE	n/a	n/a	n/a	n/a	n/a	n/a	n/a	green
271.85	0.5167	FEEDBACK	n/a	n/a	n/a	n/a	n/a	n/a	n/a	n/a
272.3667	1.0167	ITI	n/a	n/a	n/a	n/a	n/a	n/a	n/a	n/a
273.3833	0.5167	FIXCROSS	n/a	n/a	n/a	n/a	n/a	n/a	n/a	n/a
273.9	1.5667	T_COLOR_NAME	4	Neutral	zielony	green	Neutral	Neutral	hit	n/a
275.4334	n/a	RESPONSE	n/a	n/a	n/a	n/a	n/a	n/a	n/a	green
275.4667	0.5167	FEEDBACK	n/a	n/a	n/a	n/a	n/a	n/a	n/a	n/a
275.9834	1.0167	ITI	n/a	n/a	n/a	n/a	n/a	n/a	n/a	n/a
277.0	0.5167	FIXCROSS	n/a	n/a	n/a	n/a	n/a	n/a	n/a	n/a
277.5167	1.35	T_COLOR_NAME	5	Neutral	czerwony	red	Neutral	Neutral	hit	n/a
278.8406	n/a	RESPONSE	n/a	n/a	n/a	n/a	n/a	n/a	n/a	red
278.8667	0.5167	FEEDBACK	n/a	n/a	n/a	n/a	n/a	n/a	n/a	n/a
279.3834	1.0167	ITI	n/a	n/a	n/a	n/a	n/a	n/a	n/a	n/a
280.4	0.5167	FIXCROSS	n/a	n/a	n/a	n/a	n/a	n/a	n/a	n/a
280.9167	1.1333	T_COLOR_NAME	6	Neutral	zielony	green	Neutral	Neutral	hit	n/a
282.0238	n/a	RESPONSE	n/a	n/a	n/a	n/a	n/a	n/a	n/a	green
282.0501	0.5167	FEEDBACK	n/a	n/a	n/a	n/a	n/a	n/a	n/a	n/a
282.5667	1.0167	ITI	n/a	n/a	n/a	n/a	n/a	n/a	n/a	n/a
283.5834	0.5167	FIXCROSS	n/a	n/a	n/a	n/a	n/a	n/a	n/a	n/a
284.1001	1.1667	T_COLOR_NAME	7	Incongruent	żółty	yellow	czerwony	red	hit	n/a
285.239	n/a	RESPONSE	n/a	n/a	n/a	n/a	n/a	n/a	n/a	yellow
285.2668	0.5167	FEEDBACK	n/a	n/a	n/a	n/a	n/a	n/a	n/a	n/a
285.7834	1.0167	ITI	n/a	n/a	n/a	n/a	n/a	n/a	n/a	n/a
286.8001	0.5167	FIXCROSS	n/a	n/a	n/a	n/a	n/a	n/a	n/a	n/a
287.3168	1.1167	T_COLOR_NAME	8	Incongruent	czerwony	red	zielony	green	hit	n/a
288.4062	n/a	RESPONSE	n/a	n/a	n/a	n/a	n/a	n/a	n/a	red
288.4335	0.5167	FEEDBACK	n/a	n/a	n/a	n/a	n/a	n/a	n/a	n/a
288.9501	1.0167	ITI	n/a	n/a	n/a	n/a	n/a	n/a	n/a	n/a
289.9668	0.5167	FIXCROSS	n/a	n/a	n/a	n/a	n/a	n/a	n/a	n/a
290.4835	1.2667	T_COLOR_NAME	9	Incongruent	zielony	green	niebieski	blue	hit	n/a
291.7174	n/a	RESPONSE	n/a	n/a	n/a	n/a	n/a	n/a	n/a	green
291.7501	0.5167	FEEDBACK	n/a	n/a	n/a	n/a	n/a	n/a	n/a	n/a
292.2668	1.0167	ITI	n/a	n/a	n/a	n/a	n/a	n/a	n/a	n/a
293.2835	0.5167	FIXCROSS	n/a	n/a	n/a	n/a	n/a	n/a	n/a	n/a
293.8002	0.95	T_COLOR_NAME	10	Incongruent	czerwony	red	niebieski	blue	hit	n/a
294.7247	n/a	RESPONSE	n/a	n/a	n/a	n/a	n/a	n/a	n/a	red
294.7502	0.5167	FEEDBACK	n/a	n/a	n/a	n/a	n/a	n/a	n/a	n/a
295.2668	1.0167	ITI	n/a	n/a	n/a	n/a	n/a	n/a	n/a	n/a
296.2835	0.5167	FIXCROSS	n/a	n/a	n/a	n/a	n/a	n/a	n/a	n/a
296.8002	1.0667	T_COLOR_NAME	11	Neutral	niebieski	blue	Neutral	Neutral	hit	n/a
297.8439	n/a	RESPONSE	n/a	n/a	n/a	n/a	n/a	n/a	n/a	blue
297.8669	0.5167	FEEDBACK	n/a	n/a	n/a	n/a	n/a	n/a	n/a	n/a
298.3835	1.0167	ITI	n/a	n/a	n/a	n/a	n/a	n/a	n/a	n/a
299.4002	0.5167	FIXCROSS	n/a	n/a	n/a	n/a	n/a	n/a	n/a	n/a
299.9169	1.1167	T_COLOR_NAME	12	Neutral	żółty	yellow	Neutral	Neutral	hit	n/a
301.0111	n/a	RESPONSE	n/a	n/a	n/a	n/a	n/a	n/a	n/a	yellow
301.0336	0.5167	FEEDBACK	n/a	n/a	n/a	n/a	n/a	n/a	n/a	n/a
301.5502	1.0333	ITI	n/a	n/a	n/a	n/a	n/a	n/a	n/a	n/a
306.0339	n/a	RESPONSE	n/a	n/a	n/a	n/a	n/a	n/a	n/a	n/a
306.1003	1.0167	ITI	n/a	n/a	n/a	n/a	n/a	n/a	n/a	n/a
307.1169	0.5167	FIXCROSS	n/a	n/a	n/a	n/a	n/a	n/a	n/a	n/a
307.6336	1.0	COLOR_NAME	1	Incongruent	zielony	green	czerwony	red	hit	n/a
308.6092	n/a	RESPONSE	n/a	n/a	n/a	n/a	n/a	n/a	n/a	green
308.6336	1.0167	ITI	n/a	n/a	n/a	n/a	n/a	n/a	n/a	n/a
309.6503	0.5167	FIXCROSS	n/a	n/a	n/a	n/a	n/a	n/a	n/a	n/a
310.167	0.95	COLOR_NAME	2	Neutral	żółty	yellow	Neutral	Neutral	hit	n/a
311.0886	n/a	RESPONSE	n/a	n/a	n/a	n/a	n/a	n/a	n/a	yellow
311.117	1.0167	ITI	n/a	n/a	n/a	n/a	n/a	n/a	n/a	n/a
312.1336	0.5167	FIXCROSS	n/a	n/a	n/a	n/a	n/a	n/a	n/a	n/a
312.6503	0.95	COLOR_NAME	3	Neutral	zielony	green	Neutral	Neutral	hit	n/a
313.568	n/a	RESPONSE	n/a	n/a	n/a	n/a	n/a	n/a	n/a	green
313.6003	1.0167	ITI	n/a	n/a	n/a	n/a	n/a	n/a	n/a	n/a
314.617	0.5167	FIXCROSS	n/a	n/a	n/a	n/a	n/a	n/a	n/a	n/a
315.1337	1.0333	COLOR_NAME	4	Incongruent	niebieski	blue	zielony	green	hit	n/a
316.1433	n/a	RESPONSE	n/a	n/a	n/a	n/a	n/a	n/a	n/a	blue
316.167	1.0167	ITI	n/a	n/a	n/a	n/a	n/a	n/a	n/a	n/a
317.1837	0.5167	FIXCROSS	n/a	n/a	n/a	n/a	n/a	n/a	n/a	n/a
317.7004	0.9833	COLOR_NAME	5	Incongruent	żółty	yellow	czerwony	red	hit	n/a
318.6548	n/a	RESPONSE	n/a	n/a	n/a	n/a	n/a	n/a	n/a	yellow
318.6837	1.0167	ITI	n/a	n/a	n/a	n/a	n/a	n/a	n/a	n/a
319.7004	0.5167	FIXCROSS	n/a	n/a	n/a	n/a	n/a	n/a	n/a	n/a
320.217	0.9667	COLOR_NAME	6	Neutral	żółty	yellow	Neutral	Neutral	hit	n/a
321.1501	n/a	RESPONSE	n/a	n/a	n/a	n/a	n/a	n/a	n/a	yellow
321.1837	1.0167	ITI	n/a	n/a	n/a	n/a	n/a	n/a	n/a	n/a
322.2004	0.5167	FIXCROSS	n/a	n/a	n/a	n/a	n/a	n/a	n/a	n/a
322.7171	1.15	COLOR_NAME	7	Neutral	czerwony	red	Neutral	Neutral	hit	n/a
323.8374	n/a	RESPONSE	n/a	n/a	n/a	n/a	n/a	n/a	n/a	red
323.8671	1.0167	ITI	n/a	n/a	n/a	n/a	n/a	n/a	n/a	n/a
324.8838	0.5167	FIXCROSS	n/a	n/a	n/a	n/a	n/a	n/a	n/a	n/a
325.4004	0.8833	COLOR_NAME	8	Neutral	żółty	yellow	Neutral	Neutral	hit	n/a
326.2528	n/a	RESPONSE	n/a	n/a	n/a	n/a	n/a	n/a	n/a	yellow
326.2838	1.0167	ITI	n/a	n/a	n/a	n/a	n/a	n/a	n/a	n/a
327.3004	0.5167	FIXCROSS	n/a	n/a	n/a	n/a	n/a	n/a	n/a	n/a
327.8171	0.9	COLOR_NAME	9	Incongruent	żółty	yellow	czerwony	red	hit	n/a
328.6842	n/a	RESPONSE	n/a	n/a	n/a	n/a	n/a	n/a	n/a	yellow
328.7171	1.0167	ITI	n/a	n/a	n/a	n/a	n/a	n/a	n/a	n/a
329.7338	0.5167	FIXCROSS	n/a	n/a	n/a	n/a	n/a	n/a	n/a	n/a
330.2505	0.9667	COLOR_NAME	10	Neutral	zielony	green	Neutral	Neutral	hit	n/a
331.1956	n/a	RESPONSE	n/a	n/a	n/a	n/a	n/a	n/a	n/a	green
331.2171	1.0167	ITI	n/a	n/a	n/a	n/a	n/a	n/a	n/a	n/a
332.2338	0.5167	FIXCROSS	n/a	n/a	n/a	n/a	n/a	n/a	n/a	n/a
332.7505	0.95	COLOR_NAME	11	Incongruent	czerwony	red	żółty	yellow	hit	n/a
333.675	n/a	RESPONSE	n/a	n/a	n/a	n/a	n/a	n/a	n/a	red
333.7005	1.0167	ITI	n/a	n/a	n/a	n/a	n/a	n/a	n/a	n/a
334.7172	0.5167	FIXCROSS	n/a	n/a	n/a	n/a	n/a	n/a	n/a	n/a
335.2338	0.9	COLOR_NAME	12	Neutral	żółty	yellow	Neutral	Neutral	hit	n/a
336.1064	n/a	RESPONSE	n/a	n/a	n/a	n/a	n/a	n/a	n/a	yellow
336.1338	1.0167	ITI	n/a	n/a	n/a	n/a	n/a	n/a	n/a	n/a
337.1505	0.5167	FIXCROSS	n/a	n/a	n/a	n/a	n/a	n/a	n/a	n/a
337.6672	1.0	COLOR_NAME	13	Incongruent	zielony	green	niebieski	blue	hit	n/a
338.6498	n/a	RESPONSE	n/a	n/a	n/a	n/a	n/a	n/a	n/a	green
338.6672	1.0167	ITI	n/a	n/a	n/a	n/a	n/a	n/a	n/a	n/a
339.6839	0.5167	FIXCROSS	n/a	n/a	n/a	n/a	n/a	n/a	n/a	n/a
340.2005	0.75	COLOR_NAME	14	Incongruent	zielony	green	niebieski	blue	hit	n/a
340.9212	n/a	RESPONSE	n/a	n/a	n/a	n/a	n/a	n/a	n/a	green
340.9506	1.0167	ITI	n/a	n/a	n/a	n/a	n/a	n/a	n/a	n/a
341.9672	0.5167	FIXCROSS	n/a	n/a	n/a	n/a	n/a	n/a	n/a	n/a
342.4839	0.85	COLOR_NAME	15	Neutral	niebieski	blue	Neutral	Neutral	hit	n/a
343.3046	n/a	RESPONSE	n/a	n/a	n/a	n/a	n/a	n/a	n/a	blue
343.3339	1.0167	ITI	n/a	n/a	n/a	n/a	n/a	n/a	n/a	n/a
344.3506	0.5167	FIXCROSS	n/a	n/a	n/a	n/a	n/a	n/a	n/a	n/a
344.8672	0.9	COLOR_NAME	16	Neutral	niebieski	blue	Neutral	Neutral	hit	n/a
345.736	n/a	RESPONSE	n/a	n/a	n/a	n/a	n/a	n/a	n/a	blue
345.7673	1.0167	ITI	n/a	n/a	n/a	n/a	n/a	n/a	n/a	n/a
346.7839	0.5167	FIXCROSS	n/a	n/a	n/a	n/a	n/a	n/a	n/a	n/a
347.3006	1.1333	COLOR_NAME	17	Neutral	czerwony	red	Neutral	Neutral	hit	n/a
348.4073	n/a	RESPONSE	n/a	n/a	n/a	n/a	n/a	n/a	n/a	red
348.4339	1.0167	ITI	n/a	n/a	n/a	n/a	n/a	n/a	n/a	n/a
349.4506	0.5167	FIXCROSS	n/a	n/a	n/a	n/a	n/a	n/a	n/a	n/a
349.9673	1.25	COLOR_NAME	18	Incongruent	żółty	yellow	zielony	green	hit	n/a
351.1906	n/a	RESPONSE	n/a	n/a	n/a	n/a	n/a	n/a	n/a	yellow
351.2173	1.0167	ITI	n/a	n/a	n/a	n/a	n/a	n/a	n/a	n/a
352.234	0.5167	FIXCROSS	n/a	n/a	n/a	n/a	n/a	n/a	n/a	n/a
352.7506	1.0167	COLOR_NAME	19	Neutral	niebieski	blue	Neutral	Neutral	hit	n/a
353.75	n/a	RESPONSE	n/a	n/a	n/a	n/a	n/a	n/a	n/a	blue
353.7673	1.0167	ITI	n/a	n/a	n/a	n/a	n/a	n/a	n/a	n/a
354.784	0.5167	FIXCROSS	n/a	n/a	n/a	n/a	n/a	n/a	n/a	n/a
355.3007	0.8499	COLOR_NAME	20	Incongruent	niebieski	blue	żółty	yellow	hit	n/a
356.1175	n/a	RESPONSE	n/a	n/a	n/a	n/a	n/a	n/a	n/a	blue
356.1506	1.0167	ITI	n/a	n/a	n/a	n/a	n/a	n/a	n/a	n/a
357.1674	0.5167	FIXCROSS	n/a	n/a	n/a	n/a	n/a	n/a	n/a	n/a
357.684	0.9667	COLOR_NAME	21	Neutral	czerwony	red	Neutral	Neutral	hit	n/a
358.6288	n/a	RESPONSE	n/a	n/a	n/a	n/a	n/a	n/a	n/a	red
358.6507	1.0167	ITI	n/a	n/a	n/a	n/a	n/a	n/a	n/a	n/a
359.6674	0.5167	FIXCROSS	n/a	n/a	n/a	n/a	n/a	n/a	n/a	n/a
360.184	0.9334	COLOR_NAME	22	Neutral	żółty	yellow	Neutral	Neutral	hit	n/a
361.0922	n/a	RESPONSE	n/a	n/a	n/a	n/a	n/a	n/a	n/a	yellow
361.1174	1.0167	ITI	n/a	n/a	n/a	n/a	n/a	n/a	n/a	n/a
362.1341	0.5167	FIXCROSS	n/a	n/a	n/a	n/a	n/a	n/a	n/a	n/a
362.6507	0.8833	COLOR_NAME	23	Incongruent	żółty	yellow	niebieski	blue	hit	n/a
363.5076	n/a	RESPONSE	n/a	n/a	n/a	n/a	n/a	n/a	n/a	yellow
363.5341	1.0167	ITI	n/a	n/a	n/a	n/a	n/a	n/a	n/a	n/a
364.5507	0.5167	FIXCROSS	n/a	n/a	n/a	n/a	n/a	n/a	n/a	n/a
365.0674	1.0	COLOR_NAME	24	Incongruent	zielony	green	żółty	yellow	hit	n/a
366.035	n/a	RESPONSE	n/a	n/a	n/a	n/a	n/a	n/a	n/a	green
366.0674	1.0167	ITI	n/a	n/a	n/a	n/a	n/a	n/a	n/a	n/a
367.0841	0.5167	FIXCROSS	n/a	n/a	n/a	n/a	n/a	n/a	n/a	n/a
367.6008	0.95	COLOR_NAME	25	Incongruent	niebieski	blue	żółty	yellow	hit	n/a
368.5304	n/a	RESPONSE	n/a	n/a	n/a	n/a	n/a	n/a	n/a	blue
368.5508	1.0167	ITI	n/a	n/a	n/a	n/a	n/a	n/a	n/a	n/a
369.5675	0.5167	FIXCROSS	n/a	n/a	n/a	n/a	n/a	n/a	n/a	n/a
370.0841	0.9667	COLOR_NAME	26	Incongruent	czerwony	red	niebieski	blue	hit	n/a
371.0236	n/a	RESPONSE	n/a	n/a	n/a	n/a	n/a	n/a	n/a	red
371.0508	1.0167	ITI	n/a	n/a	n/a	n/a	n/a	n/a	n/a	n/a
372.0675	0.5167	FIXCROSS	n/a	n/a	n/a	n/a	n/a	n/a	n/a	n/a
372.5841	0.9	COLOR_NAME	27	Incongruent	zielony	green	niebieski	blue	hit	n/a
373.4572	n/a	RESPONSE	n/a	n/a	n/a	n/a	n/a	n/a	n/a	green
373.4842	1.0167	ITI	n/a	n/a	n/a	n/a	n/a	n/a	n/a	n/a
374.5008	0.5167	FIXCROSS	n/a	n/a	n/a	n/a	n/a	n/a	n/a	n/a
375.0175	1.0	COLOR_NAME	28	Incongruent	niebieski	blue	zielony	green	hit	n/a
375.9845	n/a	RESPONSE	n/a	n/a	n/a	n/a	n/a	n/a	n/a	blue
376.0175	1.0167	ITI	n/a	n/a	n/a	n/a	n/a	n/a	n/a	n/a
377.0342	0.5167	FIXCROSS	n/a	n/a	n/a	n/a	n/a	n/a	n/a	n/a
377.5509	1.0334	COLOR_NAME	29	Neutral	żółty	yellow	Neutral	Neutral	hit	n/a
378.5599	n/a	RESPONSE	n/a	n/a	n/a	n/a	n/a	n/a	n/a	yellow
378.5842	1.0167	ITI	n/a	n/a	n/a	n/a	n/a	n/a	n/a	n/a
379.6009	0.5167	FIXCROSS	n/a	n/a	n/a	n/a	n/a	n/a	n/a	n/a
380.1175	0.8667	COLOR_NAME	30	Incongruent	czerwony	red	niebieski	blue	hit	n/a
380.9593	n/a	RESPONSE	n/a	n/a	n/a	n/a	n/a	n/a	n/a	red
380.9842	1.0167	ITI	n/a	n/a	n/a	n/a	n/a	n/a	n/a	n/a
382.0009	0.5167	FIXCROSS	n/a	n/a	n/a	n/a	n/a	n/a	n/a	n/a
382.5176	1.0333	COLOR_NAME	31	Incongruent	czerwony	red	niebieski	blue	hit	n/a
383.5187	n/a	RESPONSE	n/a	n/a	n/a	n/a	n/a	n/a	n/a	red
383.5509	1.0167	ITI	n/a	n/a	n/a	n/a	n/a	n/a	n/a	n/a
384.5676	0.5167	FIXCROSS	n/a	n/a	n/a	n/a	n/a	n/a	n/a	n/a
385.0843	0.9167	COLOR_NAME	32	Neutral	niebieski	blue	Neutral	Neutral	hit	n/a
385.9821	n/a	RESPONSE	n/a	n/a	n/a	n/a	n/a	n/a	n/a	blue
386.0009	1.0167	ITI	n/a	n/a	n/a	n/a	n/a	n/a	n/a	n/a
387.0176	0.5167	FIXCROSS	n/a	n/a	n/a	n/a	n/a	n/a	n/a	n/a
387.5343	0.8833	COLOR_NAME	33	Neutral	żółty	yellow	Neutral	Neutral	hit	n/a
388.3974	n/a	RESPONSE	n/a	n/a	n/a	n/a	n/a	n/a	n/a	yellow
388.4176	1.0167	ITI	n/a	n/a	n/a	n/a	n/a	n/a	n/a	n/a
389.4343	0.5167	FIXCROSS	n/a	n/a	n/a	n/a	n/a	n/a	n/a	n/a
389.951	0.9	COLOR_NAME	34	Incongruent	czerwony	red	zielony	green	hit	n/a
390.8289	n/a	RESPONSE	n/a	n/a	n/a	n/a	n/a	n/a	n/a	red
390.851	1.0167	ITI	n/a	n/a	n/a	n/a	n/a	n/a	n/a	n/a
391.8676	0.5167	FIXCROSS	n/a	n/a	n/a	n/a	n/a	n/a	n/a	n/a
392.3843	1.1833	COLOR_NAME	35	Neutral	czerwony	red	Neutral	Neutral	hit	n/a
393.5482	n/a	RESPONSE	n/a	n/a	n/a	n/a	n/a	n/a	n/a	red
393.5677	1.0167	ITI	n/a	n/a	n/a	n/a	n/a	n/a	n/a	n/a
394.5843	0.5167	FIXCROSS	n/a	n/a	n/a	n/a	n/a	n/a	n/a	n/a
395.101	0.8834	COLOR_NAME	36	Neutral	niebieski	blue	Neutral	Neutral	hit	n/a
395.9636	n/a	RESPONSE	n/a	n/a	n/a	n/a	n/a	n/a	n/a	blue
395.9843	1.0167	ITI	n/a	n/a	n/a	n/a	n/a	n/a	n/a	n/a
397.001	0.5167	FIXCROSS	n/a	n/a	n/a	n/a	n/a	n/a	n/a	n/a
397.5177	0.85	COLOR_NAME	37	Incongruent	zielony	green	żółty	yellow	hit	n/a
398.3471	n/a	RESPONSE	n/a	n/a	n/a	n/a	n/a	n/a	n/a	green
398.3677	1.0167	ITI	n/a	n/a	n/a	n/a	n/a	n/a	n/a	n/a
399.3844	0.5167	FIXCROSS	n/a	n/a	n/a	n/a	n/a	n/a	n/a	n/a
399.901	0.85	COLOR_NAME	38	Neutral	zielony	green	Neutral	Neutral	hit	n/a
400.7304	n/a	RESPONSE	n/a	n/a	n/a	n/a	n/a	n/a	n/a	green
400.751	1.0167	ITI	n/a	n/a	n/a	n/a	n/a	n/a	n/a	n/a
401.7677	0.5167	FIXCROSS	n/a	n/a	n/a	n/a	n/a	n/a	n/a	n/a
402.2844	0.7167	COLOR_NAME	39	Neutral	zielony	green	Neutral	Neutral	hit	n/a
402.9699	n/a	RESPONSE	n/a	n/a	n/a	n/a	n/a	n/a	n/a	green
403.0011	1.0167	ITI	n/a	n/a	n/a	n/a	n/a	n/a	n/a	n/a
404.0177	0.5167	FIXCROSS	n/a	n/a	n/a	n/a	n/a	n/a	n/a	n/a
404.5344	0.5667	COLOR_NAME	40	Neutral	zielony	green	Neutral	Neutral	hit	n/a
405.0814	n/a	RESPONSE	n/a	n/a	n/a	n/a	n/a	n/a	n/a	green
405.1011	1.0167	ITI	n/a	n/a	n/a	n/a	n/a	n/a	n/a	n/a
406.1178	0.5167	FIXCROSS	n/a	n/a	n/a	n/a	n/a	n/a	n/a	n/a
406.6344	0.55	COLOR_NAME	41	Incongruent	zielony	green	żółty	yellow	hit	n/a
407.1609	n/a	RESPONSE	n/a	n/a	n/a	n/a	n/a	n/a	n/a	green
407.1844	1.0167	ITI	n/a	n/a	n/a	n/a	n/a	n/a	n/a	n/a
408.2011	0.5167	FIXCROSS	n/a	n/a	n/a	n/a	n/a	n/a	n/a	n/a
408.7178	0.9333	COLOR_NAME	42	Neutral	niebieski	blue	Neutral	Neutral	hit	n/a
409.6242	n/a	RESPONSE	n/a	n/a	n/a	n/a	n/a	n/a	n/a	blue
409.6511	1.0167	ITI	n/a	n/a	n/a	n/a	n/a	n/a	n/a	n/a
410.6678	0.5167	FIXCROSS	n/a	n/a	n/a	n/a	n/a	n/a	n/a	n/a
411.1845	0.9333	COLOR_NAME	43	Incongruent	żółty	yellow	czerwony	red	hit	n/a
412.0876	n/a	RESPONSE	n/a	n/a	n/a	n/a	n/a	n/a	n/a	yellow
412.1178	1.0167	ITI	n/a	n/a	n/a	n/a	n/a	n/a	n/a	n/a
413.1345	0.5167	FIXCROSS	n/a	n/a	n/a	n/a	n/a	n/a	n/a	n/a
413.6512	0.9333	COLOR_NAME	44	Incongruent	niebieski	blue	czerwony	red	hit	n/a
414.567	n/a	RESPONSE	n/a	n/a	n/a	n/a	n/a	n/a	n/a	blue
414.5845	1.0167	ITI	n/a	n/a	n/a	n/a	n/a	n/a	n/a	n/a
415.6012	0.5167	FIXCROSS	n/a	n/a	n/a	n/a	n/a	n/a	n/a	n/a
416.1178	1.0167	COLOR_NAME	45	Incongruent	zielony	green	czerwony	red	hit	n/a
417.1104	n/a	RESPONSE	n/a	n/a	n/a	n/a	n/a	n/a	n/a	green
417.1345	1.0167	ITI	n/a	n/a	n/a	n/a	n/a	n/a	n/a	n/a
418.1512	0.5167	FIXCROSS	n/a	n/a	n/a	n/a	n/a	n/a	n/a	n/a
418.6679	0.6833	COLOR_NAME	46	Incongruent	zielony	green	czerwony	red	hit	n/a
419.3339	n/a	RESPONSE	n/a	n/a	n/a	n/a	n/a	n/a	n/a	green
419.3512	1.0167	ITI	n/a	n/a	n/a	n/a	n/a	n/a	n/a	n/a
420.3679	0.5167	FIXCROSS	n/a	n/a	n/a	n/a	n/a	n/a	n/a	n/a
420.8845	0.85	COLOR_NAME	47	Incongruent	żółty	yellow	niebieski	blue	hit	n/a
421.7173	n/a	RESPONSE	n/a	n/a	n/a	n/a	n/a	n/a	n/a	yellow
421.7345	1.0167	ITI	n/a	n/a	n/a	n/a	n/a	n/a	n/a	n/a
422.7512	0.5167	FIXCROSS	n/a	n/a	n/a	n/a	n/a	n/a	n/a	n/a
423.2679	0.8667	COLOR_NAME	48	Incongruent	niebieski	blue	czerwony	red	hit	n/a
424.1007	n/a	RESPONSE	n/a	n/a	n/a	n/a	n/a	n/a	n/a	blue
424.1346	1.0167	ITI	n/a	n/a	n/a	n/a	n/a	n/a	n/a	n/a
425.1512	0.5167	FIXCROSS	n/a	n/a	n/a	n/a	n/a	n/a	n/a	n/a
425.6679	0.85	COLOR_NAME	49	Neutral	niebieski	blue	Neutral	Neutral	hit	n/a
426.4841	n/a	RESPONSE	n/a	n/a	n/a	n/a	n/a	n/a	n/a	blue
426.5179	1.0167	ITI	n/a	n/a	n/a	n/a	n/a	n/a	n/a	n/a
427.5346	0.5167	FIXCROSS	n/a	n/a	n/a	n/a	n/a	n/a	n/a	n/a
428.0513	0.7667	COLOR_NAME	50	Neutral	niebieski	blue	Neutral	Neutral	hit	n/a
428.7876	n/a	RESPONSE	n/a	n/a	n/a	n/a	n/a	n/a	n/a	blue
428.8179	1.0167	ITI	n/a	n/a	n/a	n/a	n/a	n/a	n/a	n/a
429.8346	0.5167	FIXCROSS	n/a	n/a	n/a	n/a	n/a	n/a	n/a	n/a
430.3513	1.0	COLOR_NAME	51	Neutral	czerwony	red	Neutral	Neutral	hit	n/a
431.3309	n/a	RESPONSE	n/a	n/a	n/a	n/a	n/a	n/a	n/a	red
431.3513	1.0167	ITI	n/a	n/a	n/a	n/a	n/a	n/a	n/a	n/a
432.368	0.5167	FIXCROSS	n/a	n/a	n/a	n/a	n/a	n/a	n/a	n/a
432.8846	0.7833	COLOR_NAME	52	Neutral	żółty	yellow	Neutral	Neutral	hit	n/a
433.6503	n/a	RESPONSE	n/a	n/a	n/a	n/a	n/a	n/a	n/a	yellow
433.668	1.0167	ITI	n/a	n/a	n/a	n/a	n/a	n/a	n/a	n/a
434.6847	0.5167	FIXCROSS	n/a	n/a	n/a	n/a	n/a	n/a	n/a	n/a
435.2013	0.95	COLOR_NAME	53	Neutral	czerwony	red	Neutral	Neutral	hit	n/a
436.1297	n/a	RESPONSE	n/a	n/a	n/a	n/a	n/a	n/a	n/a	red
436.1513	1.0167	ITI	n/a	n/a	n/a	n/a	n/a	n/a	n/a	n/a
437.168	0.5167	FIXCROSS	n/a	n/a	n/a	n/a	n/a	n/a	n/a	n/a
437.6847	0.85	COLOR_NAME	54	Neutral	niebieski	blue	Neutral	Neutral	hit	n/a
438.5131	n/a	RESPONSE	n/a	n/a	n/a	n/a	n/a	n/a	n/a	blue
438.5347	1.0167	ITI	n/a	n/a	n/a	n/a	n/a	n/a	n/a	n/a
439.5514	0.5167	FIXCROSS	n/a	n/a	n/a	n/a	n/a	n/a	n/a	n/a
440.068	0.8833	COLOR_NAME	55	Incongruent	czerwony	red	zielony	green	incorrect	n/a
440.9285	n/a	RESPONSE	n/a	n/a	n/a	n/a	n/a	n/a	n/a	green
440.9514	1.0167	ITI	n/a	n/a	n/a	n/a	n/a	n/a	n/a	n/a
441.9681	0.5167	FIXCROSS	n/a	n/a	n/a	n/a	n/a	n/a	n/a	n/a
442.4847	1.4333	COLOR_NAME	56	Incongruent	niebieski	blue	zielony	green	hit	n/a
443.8878	n/a	RESPONSE	n/a	n/a	n/a	n/a	n/a	n/a	n/a	blue
443.9181	1.0167	ITI	n/a	n/a	n/a	n/a	n/a	n/a	n/a	n/a
444.9347	0.5167	FIXCROSS	n/a	n/a	n/a	n/a	n/a	n/a	n/a	n/a
445.4514	1.2333	COLOR_NAME	57	Incongruent	niebieski	blue	czerwony	red	hit	n/a
446.6551	n/a	RESPONSE	n/a	n/a	n/a	n/a	n/a	n/a	n/a	blue
446.6848	1.0167	ITI	n/a	n/a	n/a	n/a	n/a	n/a	n/a	n/a
447.7014	0.5167	FIXCROSS	n/a	n/a	n/a	n/a	n/a	n/a	n/a	n/a
448.2181	1.2	COLOR_NAME	58	Neutral	zielony	green	Neutral	Neutral	hit	n/a
449.3905	n/a	RESPONSE	n/a	n/a	n/a	n/a	n/a	n/a	n/a	green
449.4181	1.0167	ITI	n/a	n/a	n/a	n/a	n/a	n/a	n/a	n/a
450.4348	0.5167	FIXCROSS	n/a	n/a	n/a	n/a	n/a	n/a	n/a	n/a
450.9515	0.9167	COLOR_NAME	59	Neutral	czerwony	red	Neutral	Neutral	hit	n/a
451.8378	n/a	RESPONSE	n/a	n/a	n/a	n/a	n/a	n/a	n/a	red
451.8681	1.0167	ITI	n/a	n/a	n/a	n/a	n/a	n/a	n/a	n/a
452.8848	0.5167	FIXCROSS	n/a	n/a	n/a	n/a	n/a	n/a	n/a	n/a
453.4015	0.85	COLOR_NAME	60	Incongruent	żółty	yellow	niebieski	blue	hit	n/a
454.2213	n/a	RESPONSE	n/a	n/a	n/a	n/a	n/a	n/a	n/a	yellow
454.2515	1.0167	ITI	n/a	n/a	n/a	n/a	n/a	n/a	n/a	n/a
455.2682	0.5167	FIXCROSS	n/a	n/a	n/a	n/a	n/a	n/a	n/a	n/a
455.7848	1.0333	COLOR_NAME	61	Neutral	zielony	green	Neutral	Neutral	hit	n/a
456.7967	n/a	RESPONSE	n/a	n/a	n/a	n/a	n/a	n/a	n/a	green
456.8182	1.0167	ITI	n/a	n/a	n/a	n/a	n/a	n/a	n/a	n/a
457.8348	0.5167	FIXCROSS	n/a	n/a	n/a	n/a	n/a	n/a	n/a	n/a
458.3515	0.8667	COLOR_NAME	62	Neutral	czerwony	red	Neutral	Neutral	hit	n/a
459.196	n/a	RESPONSE	n/a	n/a	n/a	n/a	n/a	n/a	n/a	red
459.2182	1.0167	ITI	n/a	n/a	n/a	n/a	n/a	n/a	n/a	n/a
460.2349	0.5167	FIXCROSS	n/a	n/a	n/a	n/a	n/a	n/a	n/a	n/a
460.7515	1.0167	COLOR_NAME	63	Neutral	zielony	green	Neutral	Neutral	hit	n/a
461.7394	n/a	RESPONSE	n/a	n/a	n/a	n/a	n/a	n/a	n/a	green
461.7682	1.0167	ITI	n/a	n/a	n/a	n/a	n/a	n/a	n/a	n/a
462.7849	0.5167	FIXCROSS	n/a	n/a	n/a	n/a	n/a	n/a	n/a	n/a
463.3016	1.2667	COLOR_NAME	64	Neutral	żółty	yellow	Neutral	Neutral	hit	n/a
464.5387	n/a	RESPONSE	n/a	n/a	n/a	n/a	n/a	n/a	n/a	yellow
464.5682	1.0167	ITI	n/a	n/a	n/a	n/a	n/a	n/a	n/a	n/a
465.5849	0.5167	FIXCROSS	n/a	n/a	n/a	n/a	n/a	n/a	n/a	n/a
466.1016	0.8167	COLOR_NAME	65	Incongruent	czerwony	red	żółty	yellow	hit	n/a
466.8901	n/a	RESPONSE	n/a	n/a	n/a	n/a	n/a	n/a	n/a	red
466.9183	1.0167	ITI	n/a	n/a	n/a	n/a	n/a	n/a	n/a	n/a
467.9349	0.5167	FIXCROSS	n/a	n/a	n/a	n/a	n/a	n/a	n/a	n/a
468.4516	1.2	COLOR_NAME	66	Incongruent	żółty	yellow	zielony	green	hit	n/a
469.6254	n/a	RESPONSE	n/a	n/a	n/a	n/a	n/a	n/a	n/a	yellow
469.6516	1.0167	ITI	n/a	n/a	n/a	n/a	n/a	n/a	n/a	n/a
470.6683	0.5167	FIXCROSS	n/a	n/a	n/a	n/a	n/a	n/a	n/a	n/a
471.185	0.8	COLOR_NAME	67	Incongruent	czerwony	red	żółty	yellow	hit	n/a
471.9609	n/a	RESPONSE	n/a	n/a	n/a	n/a	n/a	n/a	n/a	red
471.985	1.0167	ITI	n/a	n/a	n/a	n/a	n/a	n/a	n/a	n/a
473.0016	0.5167	FIXCROSS	n/a	n/a	n/a	n/a	n/a	n/a	n/a	n/a
473.5183	0.9167	COLOR_NAME	68	Incongruent	niebieski	blue	żółty	yellow	hit	n/a
474.4082	n/a	RESPONSE	n/a	n/a	n/a	n/a	n/a	n/a	n/a	blue
474.435	1.0167	ITI	n/a	n/a	n/a	n/a	n/a	n/a	n/a	n/a
475.4517	0.5167	FIXCROSS	n/a	n/a	n/a	n/a	n/a	n/a	n/a	n/a
475.9683	1.0167	COLOR_NAME	69	Neutral	zielony	green	Neutral	Neutral	hit	n/a
476.9676	n/a	RESPONSE	n/a	n/a	n/a	n/a	n/a	n/a	n/a	green
476.985	1.0167	ITI	n/a	n/a	n/a	n/a	n/a	n/a	n/a	n/a
478.0017	0.5167	FIXCROSS	n/a	n/a	n/a	n/a	n/a	n/a	n/a	n/a
478.5184	0.9333	COLOR_NAME	70	Incongruent	żółty	yellow	zielony	green	hit	n/a
479.431	n/a	RESPONSE	n/a	n/a	n/a	n/a	n/a	n/a	n/a	yellow
479.4517	1.0167	ITI	n/a	n/a	n/a	n/a	n/a	n/a	n/a	n/a
480.4684	0.5167	FIXCROSS	n/a	n/a	n/a	n/a	n/a	n/a	n/a	n/a
480.985	0.85	COLOR_NAME	71	Neutral	czerwony	red	Neutral	Neutral	hit	n/a
481.8145	n/a	RESPONSE	n/a	n/a	n/a	n/a	n/a	n/a	n/a	red
481.835	1.0167	ITI	n/a	n/a	n/a	n/a	n/a	n/a	n/a	n/a
482.8517	0.5167	FIXCROSS	n/a	n/a	n/a	n/a	n/a	n/a	n/a	n/a
483.3684	1.3	COLOR_NAME	72	Incongruent	czerwony	red	zielony	green	hit	n/a
484.6458	n/a	RESPONSE	n/a	n/a	n/a	n/a	n/a	n/a	n/a	red
484.6684	1.0333	ITI	n/a	n/a	n/a	n/a	n/a	n/a	n/a	n/a
489.4766	n/a	RESPONSE	n/a	n/a	n/a	n/a	n/a	n/a	n/a	n/a
