onset	duration	trial_type	melody_number	melody_part	key	sound	action
0.0	14.088	CUE_START	n/a	n/a	n/a	n/a	n/a
14.088	7.76	FIXCROSS	n/a	n/a	n/a	n/a	n/a
21.848	6.316	CUE_LISTEN	M4	1	n/a	n/a	n/a
28.164	7.758	FIXCROSS	n/a	n/a	n/a	n/a	n/a
35.922	6.317	CUE_PLAYBACK_RIGHT_HAND	M4	1	n/a	n/a	n/a
36.914	n/a	RESPONSE	M4	1	21	A4	press
37.107	n/a	RESPONSE	M4	1	21	A4	release
37.187	n/a	RESPONSE	M4	1	21	A4	press
37.358	n/a	RESPONSE	M4	1	21	A4	release
37.449	n/a	RESPONSE	M4	1	21	A4	press
38.211	n/a	RESPONSE	M4	1	21	A4	release
38.272	n/a	RESPONSE	M4	1	21	A4	press
38.473	n/a	RESPONSE	M4	1	21	A4	release
38.544	n/a	RESPONSE	M4	1	21	A4	press
38.716	n/a	RESPONSE	M4	1	21	A4	release
38.797	n/a	RESPONSE	M4	1	21	A4	press
39.199	n/a	RESPONSE	M4	1	21	A4	release
39.321	n/a	RESPONSE	M4	1	21	A4	press
39.639	n/a	RESPONSE	M4	1	24	C5	press
39.749	n/a	RESPONSE	M4	1	21	A4	release
39.928	n/a	RESPONSE	M4	1	17	F4	press
40.039	n/a	RESPONSE	M4	1	24	C5	release
40.217	n/a	RESPONSE	M4	1	19	G4	press
40.298	n/a	RESPONSE	M4	1	17	F4	release
40.504	n/a	RESPONSE	M4	1	19	G4	release
40.528	n/a	RESPONSE	M4	1	21	A4	press
41.174	n/a	RESPONSE	M4	1	21	A4	release
42.239	7.758	FIXCROSS	n/a	n/a	n/a	n/a	n/a
49.997	6.325	CUE_LISTEN	M4	2	n/a	n/a	n/a
56.322	7.758	FIXCROSS	n/a	n/a	n/a	n/a	n/a
64.08	6.317	CUE_PLAYBACK_RIGHT_HAND	M4	2	n/a	n/a	n/a
65.069	n/a	RESPONSE	M4	2	22	A#4	press
65.252	n/a	RESPONSE	M4	2	22	A#4	release
65.361	n/a	RESPONSE	M4	2	22	A#4	press
65.524	n/a	RESPONSE	M4	2	22	A#4	release
65.636	n/a	RESPONSE	M4	2	22	A#4	press
65.794	n/a	RESPONSE	M4	2	22	A#4	release
65.916	n/a	RESPONSE	M4	2	22	A#4	press
66.059	n/a	RESPONSE	M4	2	22	A#4	release
66.169	n/a	RESPONSE	M4	2	22	A#4	press
66.312	n/a	RESPONSE	M4	2	22	A#4	release
66.483	n/a	RESPONSE	M4	2	21	A4	press
66.676	n/a	RESPONSE	M4	2	21	A4	release
66.774	n/a	RESPONSE	M4	2	21	A4	press
66.936	n/a	RESPONSE	M4	2	21	A4	release
67.048	n/a	RESPONSE	M4	2	21	A4	press
67.268	n/a	RESPONSE	M4	2	21	A4	release
67.349	n/a	RESPONSE	M4	2	19	G4	press
67.541	n/a	RESPONSE	M4	2	19	G4	release
67.904	n/a	RESPONSE	M4	2	21	A4	press
68.204	n/a	RESPONSE	M4	2	19	G4	press
68.264	n/a	RESPONSE	M4	2	21	A4	release
68.396	n/a	RESPONSE	M4	2	19	G4	release
68.458	n/a	RESPONSE	M4	2	19	G4	press
68.679	n/a	RESPONSE	M4	2	19	G4	release
68.701	n/a	RESPONSE	M4	2	21	A4	press
68.979	n/a	RESPONSE	M4	2	19	G4	press
69.066	n/a	RESPONSE	M4	2	21	A4	release
69.484	n/a	RESPONSE	M4	2	24	C5	press
69.556	n/a	RESPONSE	M4	2	19	G4	release
70.151	n/a	RESPONSE	M4	2	24	C5	release
70.397	7.758	FIXCROSS	n/a	n/a	n/a	n/a	n/a
70.857	n/a	RESPONSE	M4	2	19	G4	press
71.162	n/a	RESPONSE	M4	2	19	G4	release
78.156	6.317	CUE_LISTEN	M1	1	n/a	n/a	n/a
84.472	7.758	FIXCROSS	n/a	n/a	n/a	n/a	n/a
92.23	6.325	CUE_PLAYBACK_RIGHT_HAND	M1	1	n/a	n/a	n/a
93.822	n/a	RESPONSE	M1	1	19	G4	press
93.833	n/a	RESPONSE	M1	1	21	A4	press
93.964	n/a	RESPONSE	M1	1	21	A4	release
94.016	n/a	RESPONSE	M1	1	19	G4	release
94.087	n/a	RESPONSE	M1	1	19	G4	press
94.278	n/a	RESPONSE	M1	1	19	G4	release
94.349	n/a	RESPONSE	M1	1	19	G4	press
94.601	n/a	RESPONSE	M1	1	19	G4	release
94.932	n/a	RESPONSE	M1	1	21	A4	press
95.066	n/a	RESPONSE	M1	1	21	A4	release
95.094	n/a	RESPONSE	M1	1	21	A4	press
95.238	n/a	RESPONSE	M1	1	21	A4	release
95.297	n/a	RESPONSE	M1	1	21	A4	press
95.768	n/a	RESPONSE	M1	1	21	A4	release
95.829	n/a	RESPONSE	M1	1	21	A4	press
96.001	n/a	RESPONSE	M1	1	21	A4	release
96.093	n/a	RESPONSE	M1	1	21	A4	press
96.266	n/a	RESPONSE	M1	1	21	A4	release
96.354	n/a	RESPONSE	M1	1	21	A4	press
96.766	n/a	RESPONSE	M1	1	21	A4	release
96.927	n/a	RESPONSE	M1	1	21	A4	press
96.939	n/a	RESPONSE	M1	1	22	A#4	press
97.029	n/a	RESPONSE	M1	1	22	A#4	release
97.581	n/a	RESPONSE	M1	1	21	A4	release
97.642	n/a	RESPONSE	M1	1	24	C5	press
98.014	n/a	RESPONSE	M1	1	17	F4	press
98.144	n/a	RESPONSE	M1	1	24	C5	release
98.346	n/a	RESPONSE	M1	1	19	G4	press
98.449	n/a	RESPONSE	M1	1	17	F4	release
98.555	7.758	FIXCROSS	n/a	n/a	n/a	n/a	n/a
98.688	n/a	RESPONSE	M1	1	21	A4	press
98.771	n/a	RESPONSE	M1	1	19	G4	release
99.449	n/a	RESPONSE	M1	1	21	A4	release
106.314	6.317	CUE_LISTEN	M1	2	n/a	n/a	n/a
112.63	7.758	FIXCROSS	n/a	n/a	n/a	n/a	n/a
120.389	6.317	CUE_PLAYBACK_RIGHT_HAND	M1	2	n/a	n/a	n/a
121.833	n/a	RESPONSE	M1	2	22	A#4	press
122.047	n/a	RESPONSE	M1	2	22	A#4	release
122.096	n/a	RESPONSE	M1	2	22	A#4	press
122.229	n/a	RESPONSE	M1	2	22	A#4	release
122.313	n/a	RESPONSE	M1	2	22	A#4	press
122.481	n/a	RESPONSE	M1	2	22	A#4	release
122.566	n/a	RESPONSE	M1	2	22	A#4	press
122.716	n/a	RESPONSE	M1	2	22	A#4	release
122.769	n/a	RESPONSE	M1	2	22	A#4	press
122.928	n/a	RESPONSE	M1	2	22	A#4	release
123.119	n/a	RESPONSE	M1	2	21	A4	press
123.312	n/a	RESPONSE	M1	2	21	A4	release
123.422	n/a	RESPONSE	M1	2	21	A4	press
123.613	n/a	RESPONSE	M1	2	21	A4	release
123.694	n/a	RESPONSE	M1	2	21	A4	press
124.106	n/a	RESPONSE	M1	2	21	A4	release
124.607	n/a	RESPONSE	M1	2	24	C5	press
124.661	n/a	RESPONSE	M1	2	22	A#4	press
124.729	n/a	RESPONSE	M1	2	22	A#4	release
126.241	n/a	RESPONSE	M1	2	24	C5	release
126.282	n/a	RESPONSE	M1	2	24	C5	press
126.706	7.758	FIXCROSS	n/a	n/a	n/a	n/a	n/a
127.014	n/a	RESPONSE	M1	2	24	C5	release
127.194	n/a	RESPONSE	M1	2	21	A4	press
127.506	n/a	RESPONSE	M1	2	21	A4	release
127.647	n/a	RESPONSE	M1	2	21	A4	press
127.891	n/a	RESPONSE	M1	2	21	A4	release
128.029	n/a	RESPONSE	M1	2	19	G4	press
128.441	n/a	RESPONSE	M1	2	19	G4	release
128.482	n/a	RESPONSE	M1	2	17	F4	press
128.963	n/a	RESPONSE	M1	2	17	F4	release
134.464	6.325	CUE_LISTEN	M5	1	n/a	n/a	n/a
140.057	n/a	RESPONSE	M5	1	07	G3	press
140.789	7.758	FIXCROSS	n/a	n/a	n/a	n/a	n/a
143.727	n/a	RESPONSE	M5	1	07	G3	release
148.547	6.317	CUE_PLAYBACK_BOTH_HANDS	M5	1	n/a	n/a	n/a
151.146	n/a	RESPONSE	M5	1	19	G4	press
151.151	n/a	RESPONSE	M5	1	07	G3	press
151.153	n/a	RESPONSE	M5	1	04	E3	press
151.168	n/a	RESPONSE	M5	1	00	C3	press
151.172	n/a	RESPONSE	M5	1	02	D3	press
151.621	n/a	RESPONSE	M5	1	02	D3	release
151.907	n/a	RESPONSE	M5	1	19	G4	release
151.947	n/a	RESPONSE	M5	1	19	G4	press
152.364	n/a	RESPONSE	M5	1	16	E4	press
152.448	n/a	RESPONSE	M5	1	19	G4	release
152.749	n/a	RESPONSE	M5	1	16	E4	release
152.842	n/a	RESPONSE	M5	1	16	E4	press
153.012	n/a	RESPONSE	M5	1	00	C3	release
153.143	n/a	RESPONSE	M5	1	16	E4	release
153.214	n/a	RESPONSE	M5	1	04	E3	release
153.408	n/a	RESPONSE	M5	1	17	F4	press
153.417	n/a	RESPONSE	M5	1	05	F3	press
153.419	n/a	RESPONSE	M5	1	02	D3	press
153.962	n/a	RESPONSE	M5	1	14	D4	press
154.013	n/a	RESPONSE	M5	1	17	F4	release
154.392	n/a	RESPONSE	M5	1	14	D4	release
154.493	n/a	RESPONSE	M5	1	14	D4	press
154.774	n/a	RESPONSE	M5	1	02	D3	release
154.816	n/a	RESPONSE	M5	1	05	F3	release
154.864	7.767	FIXCROSS	n/a	n/a	n/a	n/a	n/a
154.937	n/a	RESPONSE	M5	1	14	D4	release
154.951	n/a	RESPONSE	M5	1	07	G3	release
155.059	n/a	RESPONSE	M5	1	12	C4	press
155.063	n/a	RESPONSE	M5	1	04	E3	press
155.072	n/a	RESPONSE	M5	1	07	G3	press
155.076	n/a	RESPONSE	M5	1	00	C3	press
155.314	n/a	RESPONSE	M5	1	16	E4	press
155.456	n/a	RESPONSE	M5	1	12	C4	release
155.687	n/a	RESPONSE	M5	1	19	G4	press
155.689	n/a	RESPONSE	M5	1	17	F4	press
155.861	n/a	RESPONSE	M5	1	16	E4	release
156.021	n/a	RESPONSE	M5	1	17	F4	release
156.952	n/a	RESPONSE	M5	1	00	C3	release
157.006	n/a	RESPONSE	M5	1	19	G4	release
157.054	n/a	RESPONSE	M5	1	04	E3	release
157.666	n/a	RESPONSE	M5	1	07	G3	release
159.166	n/a	RESPONSE	M5	1	12	C4	press
159.796	n/a	RESPONSE	M5	1	12	C4	release
162.631	6.308	CUE_LISTEN	M5	2	n/a	n/a	n/a
168.939	7.758	FIXCROSS	n/a	n/a	n/a	n/a	n/a
176.697	6.325	CUE_PLAYBACK_BOTH_HANDS	M5	2	n/a	n/a	n/a
178.384	n/a	RESPONSE	M5	2	04	E3	press
178.636	n/a	RESPONSE	M5	2	04	E3	release
179.506	n/a	RESPONSE	M5	2	04	E3	press
179.509	n/a	RESPONSE	M5	2	19	G4	press
179.512	n/a	RESPONSE	M5	2	07	G3	press
179.518	n/a	RESPONSE	M5	2	00	C3	press
179.986	n/a	RESPONSE	M5	2	16	E4	press
180.073	n/a	RESPONSE	M5	2	19	G4	release
180.404	n/a	RESPONSE	M5	2	16	E4	release
180.484	n/a	RESPONSE	M5	2	16	E4	press
180.677	n/a	RESPONSE	M5	2	00	C3	release
180.763	n/a	RESPONSE	M5	2	04	E3	release
180.788	n/a	RESPONSE	M5	2	16	E4	release
180.953	n/a	RESPONSE	M5	2	07	G3	release
181.018	n/a	RESPONSE	M5	2	17	F4	press
181.023	n/a	RESPONSE	M5	2	02	D3	press
181.026	n/a	RESPONSE	M5	2	07	G3	press
181.028	n/a	RESPONSE	M5	2	05	F3	press
181.558	n/a	RESPONSE	M5	2	14	D4	press
181.598	n/a	RESPONSE	M5	2	17	F4	release
181.924	n/a	RESPONSE	M5	2	14	D4	release
182.034	n/a	RESPONSE	M5	2	14	D4	press
182.182	n/a	RESPONSE	M5	2	02	D3	release
182.247	n/a	RESPONSE	M5	2	05	F3	release
182.446	n/a	RESPONSE	M5	2	14	D4	release
182.583	n/a	RESPONSE	M5	2	04	E3	press
182.586	n/a	RESPONSE	M5	2	12	C4	press
182.588	n/a	RESPONSE	M5	2	00	C3	press
182.868	n/a	RESPONSE	M5	2	16	E4	press
182.969	n/a	RESPONSE	M5	2	12	C4	release
183.022	7.759	FIXCROSS	n/a	n/a	n/a	n/a	n/a
183.242	n/a	RESPONSE	M5	2	12	C4	press
183.244	n/a	RESPONSE	M5	2	11	B3	press
183.303	n/a	RESPONSE	M5	2	16	E4	release
183.454	n/a	RESPONSE	M5	2	11	B3	release
184.116	n/a	RESPONSE	M5	2	00	C3	release
184.207	n/a	RESPONSE	M5	2	12	C4	release
184.219	n/a	RESPONSE	M5	2	04	E3	release
188.051	n/a	RESPONSE	M5	2	07	G3	release
190.781	6.316	CUE_LISTEN	M5	1	n/a	n/a	n/a
197.097	7.758	FIXCROSS	n/a	n/a	n/a	n/a	n/a
204.856	6.325	CUE_PLAYBACK_RIGHT_HAND	M5	1	n/a	n/a	n/a
205.528	n/a	RESPONSE	M5	1	12	C4	press
205.879	n/a	RESPONSE	M5	1	17	F4	press
205.952	n/a	RESPONSE	M5	1	12	C4	release
206.253	n/a	RESPONSE	M5	1	21	A4	press
206.303	n/a	RESPONSE	M5	1	17	F4	release
206.544	n/a	RESPONSE	M5	1	19	G4	press
206.736	n/a	RESPONSE	M5	1	21	A4	release
206.857	n/a	RESPONSE	M5	1	17	F4	press
207.108	n/a	RESPONSE	M5	1	19	G4	release
207.219	n/a	RESPONSE	M5	1	16	E4	press
207.401	n/a	RESPONSE	M5	1	17	F4	release
207.562	n/a	RESPONSE	M5	1	17	F4	press
207.643	n/a	RESPONSE	M5	1	16	E4	release
208.497	n/a	RESPONSE	M5	1	12	C4	press
208.526	n/a	RESPONSE	M5	1	17	F4	release
208.818	n/a	RESPONSE	M5	1	12	C4	release
208.878	n/a	RESPONSE	M5	1	12	C4	press
209.326	n/a	RESPONSE	M5	1	17	F4	press
209.394	n/a	RESPONSE	M5	1	12	C4	release
209.741	n/a	RESPONSE	M5	1	21	A4	press
209.789	n/a	RESPONSE	M5	1	17	F4	release
210.048	n/a	RESPONSE	M5	1	19	G4	press
210.294	n/a	RESPONSE	M5	1	21	A4	release
210.363	n/a	RESPONSE	M5	1	17	F4	press
210.524	n/a	RESPONSE	M5	1	19	G4	release
210.654	n/a	RESPONSE	M5	1	16	E4	press
210.786	n/a	RESPONSE	M5	1	17	F4	release
210.939	n/a	RESPONSE	M5	1	17	F4	press
211.013	n/a	RESPONSE	M5	1	16	E4	release
211.181	7.758	FIXCROSS	n/a	n/a	n/a	n/a	n/a
211.524	n/a	RESPONSE	M5	1	17	F4	release
218.939	6.317	CUE_LISTEN	M5	2	n/a	n/a	n/a
225.256	7.758	FIXCROSS	n/a	n/a	n/a	n/a	n/a
233.014	6.317	CUE_PLAYBACK_RIGHT_HAND	M5	2	n/a	n/a	n/a
234.171	n/a	RESPONSE	M5	2	12	C4	press
234.522	n/a	RESPONSE	M5	2	17	F4	press
234.603	n/a	RESPONSE	M5	2	12	C4	release
234.784	n/a	RESPONSE	M5	2	17	F4	release
234.826	n/a	RESPONSE	M5	2	17	F4	press
235.457	n/a	RESPONSE	M5	2	17	F4	release
235.538	n/a	RESPONSE	M5	2	17	F4	press
235.541	n/a	RESPONSE	M5	2	19	G4	press
235.861	n/a	RESPONSE	M5	2	17	F4	release
236.042	n/a	RESPONSE	M5	2	19	G4	release
236.073	n/a	RESPONSE	M5	2	19	G4	press
236.206	n/a	RESPONSE	M5	2	19	G4	release
236.236	n/a	RESPONSE	M5	2	19	G4	press
236.537	n/a	RESPONSE	M5	2	24	C5	press
236.558	n/a	RESPONSE	M5	2	19	G4	release
236.699	n/a	RESPONSE	M5	2	24	C5	release
236.812	n/a	RESPONSE	M5	2	24	C5	press
237.423	n/a	RESPONSE	M5	2	22	A#4	press
237.493	n/a	RESPONSE	M5	2	24	C5	release
237.746	n/a	RESPONSE	M5	2	22	A#4	release
237.858	n/a	RESPONSE	M5	2	21	A4	press
238.239	n/a	RESPONSE	M5	2	19	G4	press
238.368	n/a	RESPONSE	M5	2	21	A4	release
239.163	n/a	RESPONSE	M5	2	19	G4	release
239.169	n/a	RESPONSE	M5	2	12	C4	press
239.24	n/a	RESPONSE	M5	2	14	D4	press
239.331	7.758	FIXCROSS	n/a	n/a	n/a	n/a	n/a
239.536	n/a	RESPONSE	M5	2	14	D4	release
239.711	n/a	RESPONSE	M5	2	16	E4	press
239.784	n/a	RESPONSE	M5	2	12	C4	release
240.363	n/a	RESPONSE	M5	2	19	G4	press
240.397	n/a	RESPONSE	M5	2	17	F4	press
240.481	n/a	RESPONSE	M5	2	16	E4	release
240.634	n/a	RESPONSE	M5	2	17	F4	release
240.818	n/a	RESPONSE	M5	2	22	A#4	press
240.901	n/a	RESPONSE	M5	2	22	A#4	release
240.947	n/a	RESPONSE	M5	2	19	G4	release
240.966	n/a	RESPONSE	M5	2	22	A#4	press
240.979	n/a	RESPONSE	M5	2	19	G4	press
241.057	n/a	RESPONSE	M5	2	19	G4	release
241.283	n/a	RESPONSE	M5	2	21	A4	press
241.326	n/a	RESPONSE	M5	2	22	A#4	release
241.566	n/a	RESPONSE	M5	2	19	G4	press
241.804	n/a	RESPONSE	M5	2	21	A4	release
242.241	n/a	RESPONSE	M5	2	19	G4	release
242.263	n/a	RESPONSE	M5	2	19	G4	press
242.488	n/a	RESPONSE	M5	2	19	G4	release
242.509	n/a	RESPONSE	M5	2	19	G4	press
242.513	n/a	RESPONSE	M5	2	17	F4	press
242.553	n/a	RESPONSE	M5	2	19	G4	release
242.693	n/a	RESPONSE	M5	2	17	F4	release
247.089	6.325	CUE_LISTEN	M2	1	n/a	n/a	n/a
249.923	n/a	RESPONSE	M2	1	07	G3	press
251.688	n/a	RESPONSE	M2	1	07	G3	release
253.414	7.758	FIXCROSS	n/a	n/a	n/a	n/a	n/a
255.063	n/a	RESPONSE	M2	1	12	C4	press
255.424	n/a	RESPONSE	M2	1	12	C4	release
259.763	n/a	RESPONSE	M2	1	04	E3	press
261.173	6.317	CUE_PLAYBACK_BOTH_HANDS	M2	1	n/a	n/a	n/a
261.766	n/a	RESPONSE	M2	1	24	C5	press
261.774	n/a	RESPONSE	M2	1	07	G3	press
261.806	n/a	RESPONSE	M2	1	00	C3	press
262.338	n/a	RESPONSE	M2	1	21	A4	press
262.574	n/a	RESPONSE	M2	1	24	C5	release
262.984	n/a	RESPONSE	M2	1	21	A4	release
263.186	n/a	RESPONSE	M2	1	00	C3	release
263.188	n/a	RESPONSE	M2	1	24	C5	press
263.228	n/a	RESPONSE	M2	1	00	C3	press
263.7	n/a	RESPONSE	M2	1	19	G4	press
263.831	n/a	RESPONSE	M2	1	24	C5	release
264.063	n/a	RESPONSE	M2	1	00	C3	release
264.086	n/a	RESPONSE	M2	1	04	E3	release
264.097	n/a	RESPONSE	M2	1	19	G4	release
264.186	n/a	RESPONSE	M2	1	19	G4	press
264.188	n/a	RESPONSE	M2	1	04	E3	press
264.208	n/a	RESPONSE	M2	1	00	C3	press
264.661	n/a	RESPONSE	M2	1	17	F4	press
264.821	n/a	RESPONSE	M2	1	19	G4	release
264.932	n/a	RESPONSE	M2	1	00	C3	release
265.003	n/a	RESPONSE	M2	1	04	E3	release
265.006	n/a	RESPONSE	M2	1	17	F4	release
265.136	n/a	RESPONSE	M2	1	04	E3	press
265.147	n/a	RESPONSE	M2	1	16	E4	press
265.151	n/a	RESPONSE	M2	1	00	C3	press
265.599	n/a	RESPONSE	M2	1	17	F4	press
265.671	n/a	RESPONSE	M2	1	16	E4	release
266.052	n/a	RESPONSE	M2	1	17	F4	release
266.063	n/a	RESPONSE	M2	1	04	E3	release
266.484	n/a	RESPONSE	M2	1	19	G4	press
267.368	n/a	RESPONSE	M2	1	19	G4	release
267.489	7.758	FIXCROSS	n/a	n/a	n/a	n/a	n/a
267.557	n/a	RESPONSE	M2	1	00	C3	release
267.789	n/a	RESPONSE	M2	1	00	C3	press
267.792	n/a	RESPONSE	M2	1	24	C5	press
267.931	n/a	RESPONSE	M2	1	24	C5	release
268.052	n/a	RESPONSE	M2	1	24	C5	press
268.763	n/a	RESPONSE	M2	1	19	G4	press
268.946	n/a	RESPONSE	M2	1	24	C5	release
269.181	n/a	RESPONSE	M2	1	00	C3	release
269.446	n/a	RESPONSE	M2	1	19	G4	release
269.508	n/a	RESPONSE	M2	1	19	G4	press
269.547	n/a	RESPONSE	M2	1	00	C3	press
269.856	n/a	RESPONSE	M2	1	00	C3	release
269.872	n/a	RESPONSE	M2	1	19	G4	release
269.97	n/a	RESPONSE	M2	1	07	G3	release
275.248	6.317	CUE_LISTEN	M2	2	n/a	n/a	n/a
281.564	7.759	FIXCROSS	n/a	n/a	n/a	n/a	n/a
289.323	6.325	CUE_PLAYBACK_BOTH_HANDS	M2	2	n/a	n/a	n/a
290.402	n/a	RESPONSE	M2	2	12	C4	press
290.786	n/a	RESPONSE	M2	2	12	C4	release
291.282	n/a	RESPONSE	M2	2	23	B4	press
292.223	n/a	RESPONSE	M2	2	07	G3	press
292.56	n/a	RESPONSE	M2	2	07	G3	release
292.64	n/a	RESPONSE	M2	2	23	B4	release
293.051	n/a	RESPONSE	M2	2	07	G3	press
293.053	n/a	RESPONSE	M2	2	00	C3	press
293.083	n/a	RESPONSE	M2	2	23	B4	press
293.674	n/a	RESPONSE	M2	2	23	B4	release
293.717	n/a	RESPONSE	M2	2	00	C3	release
293.757	n/a	RESPONSE	M2	2	23	B4	press
293.759	n/a	RESPONSE	M2	2	00	C3	press
294.94	n/a	RESPONSE	M2	2	23	B4	release
295.092	n/a	RESPONSE	M2	2	21	A4	press
295.192	n/a	RESPONSE	M2	2	21	A4	release
295.213	n/a	RESPONSE	M2	2	00	C3	release
295.244	n/a	RESPONSE	M2	2	21	A4	press
295.256	n/a	RESPONSE	M2	2	00	C3	press
295.258	n/a	RESPONSE	M2	2	19	G4	press
295.438	n/a	RESPONSE	M2	2	19	G4	release
295.638	n/a	RESPONSE	M2	2	21	A4	release
295.648	7.758	FIXCROSS	n/a	n/a	n/a	n/a	n/a
295.733	n/a	RESPONSE	M2	2	19	G4	press
295.862	n/a	RESPONSE	M2	2	00	C3	release
295.864	n/a	RESPONSE	M2	2	19	G4	release
296.134	n/a	RESPONSE	M2	2	00	C3	press
296.146	n/a	RESPONSE	M2	2	19	G4	press
296.587	n/a	RESPONSE	M2	2	19	G4	release
296.761	n/a	RESPONSE	M2	2	00	C3	release
303.406	6.317	CUE_LISTEN	M2	1	n/a	n/a	n/a
309.723	7.758	FIXCROSS	n/a	n/a	n/a	n/a	n/a
313.672	n/a	RESPONSE	M2	1	12	C4	press
317.481	6.317	CUE_PLAYBACK_BOTH_HANDS	M2	1	n/a	n/a	n/a
318.166	n/a	RESPONSE	M2	1	07	G3	release
318.177	n/a	RESPONSE	M2	1	12	C4	release
318.268	n/a	RESPONSE	M2	1	07	G3	press
318.271	n/a	RESPONSE	M2	1	12	C4	press
318.281	n/a	RESPONSE	M2	1	00	C3	press
318.822	n/a	RESPONSE	M2	1	16	E4	press
318.894	n/a	RESPONSE	M2	1	12	C4	release
319.204	n/a	RESPONSE	M2	1	16	E4	release
319.214	n/a	RESPONSE	M2	1	00	C3	release
319.308	n/a	RESPONSE	M2	1	16	E4	press
319.318	n/a	RESPONSE	M2	1	00	C3	press
319.331	n/a	RESPONSE	M2	1	02	D3	press
319.362	n/a	RESPONSE	M2	1	02	D3	release
320.243	n/a	RESPONSE	M2	1	00	C3	release
320.292	n/a	RESPONSE	M2	1	16	E4	release
320.881	n/a	RESPONSE	M2	1	16	E4	press
320.911	n/a	RESPONSE	M2	1	00	C3	press
321.581	n/a	RESPONSE	M2	1	16	E4	release
321.716	n/a	RESPONSE	M2	1	07	G3	release
321.757	n/a	RESPONSE	M2	1	00	C3	release
321.791	n/a	RESPONSE	M2	1	12	C4	press
321.843	n/a	RESPONSE	M2	1	00	C3	press
321.846	n/a	RESPONSE	M2	1	07	G3	press
322.262	n/a	RESPONSE	M2	1	14	D4	press
322.264	n/a	RESPONSE	M2	1	16	E4	press
322.326	n/a	RESPONSE	M2	1	12	C4	release
322.782	n/a	RESPONSE	M2	1	16	E4	release
323.253	n/a	RESPONSE	M2	1	07	G3	release
323.256	n/a	RESPONSE	M2	1	14	D4	release
323.307	n/a	RESPONSE	M2	1	14	D4	press
323.317	n/a	RESPONSE	M2	1	07	G3	press
323.798	7.767	FIXCROSS	n/a	n/a	n/a	n/a	n/a
323.838	n/a	RESPONSE	M2	1	14	D4	release
324.68	n/a	RESPONSE	M2	1	12	C4	press
324.971	n/a	RESPONSE	M2	1	14	D4	press
325.032	n/a	RESPONSE	M2	1	12	C4	release
325.163	n/a	RESPONSE	M2	1	16	E4	press
325.344	n/a	RESPONSE	M2	1	14	D4	release
325.426	n/a	RESPONSE	M2	1	14	D4	press
325.467	n/a	RESPONSE	M2	1	16	E4	release
325.638	n/a	RESPONSE	M2	1	16	E4	press
325.66	n/a	RESPONSE	M2	1	14	D4	release
325.893	n/a	RESPONSE	M2	1	17	F4	press
325.952	n/a	RESPONSE	M2	1	16	E4	release
325.993	n/a	RESPONSE	M2	1	19	G4	press
326.044	n/a	RESPONSE	M2	1	17	F4	release
326.968	n/a	RESPONSE	M2	1	19	G4	release
327.097	n/a	RESPONSE	M2	1	16	E4	press
327.388	n/a	RESPONSE	M2	1	19	G4	press
327.4	n/a	RESPONSE	M2	1	16	E4	release
327.551	n/a	RESPONSE	M2	1	19	G4	release
327.622	n/a	RESPONSE	M2	1	19	G4	press
327.864	n/a	RESPONSE	M2	1	17	F4	press
327.957	n/a	RESPONSE	M2	1	19	G4	release
328.086	n/a	RESPONSE	M2	1	17	F4	release
328.088	n/a	RESPONSE	M2	1	16	E4	press
328.278	n/a	RESPONSE	M2	1	14	D4	press
328.39	n/a	RESPONSE	M2	1	16	E4	release
328.441	n/a	RESPONSE	M2	1	14	D4	release
328.462	n/a	RESPONSE	M2	1	12	C4	press
328.553	n/a	RESPONSE	M2	1	12	C4	release
328.616	n/a	RESPONSE	M2	1	00	C3	release
331.565	6.316	CUE_LISTEN	M2	2	n/a	n/a	n/a
337.12	n/a	RESPONSE	M2	2	07	G3	release
337.881	7.758	FIXCROSS	n/a	n/a	n/a	n/a	n/a
338.648	n/a	RESPONSE	M2	2	16	E4	press
339.77	n/a	RESPONSE	M2	2	16	E4	release
340.52	n/a	RESPONSE	M2	2	19	G4	press
341.166	n/a	RESPONSE	M2	2	19	G4	release
345.639	6.317	CUE_PLAYBACK_BOTH_HANDS	M2	2	n/a	n/a	n/a
346.21	n/a	RESPONSE	M2	2	07	G3	press
346.363	n/a	RESPONSE	M2	2	00	C3	press
346.742	n/a	RESPONSE	M2	2	16	E4	press
347.203	n/a	RESPONSE	M2	2	19	G4	press
347.297	n/a	RESPONSE	M2	2	16	E4	release
347.526	n/a	RESPONSE	M2	2	00	C3	release
347.538	n/a	RESPONSE	M2	2	19	G4	release
347.65	n/a	RESPONSE	M2	2	00	C3	press
347.66	n/a	RESPONSE	M2	2	19	G4	press
348.091	n/a	RESPONSE	M2	2	17	F4	press
348.222	n/a	RESPONSE	M2	2	19	G4	release
348.386	n/a	RESPONSE	M2	2	17	F4	release
348.566	n/a	RESPONSE	M2	2	16	E4	press
349.04	n/a	RESPONSE	M2	2	14	D4	press
349.158	n/a	RESPONSE	M2	2	16	E4	release
349.254	n/a	RESPONSE	M2	2	00	C3	release
349.431	n/a	RESPONSE	M2	2	14	D4	release
349.44	n/a	RESPONSE	M2	2	07	G3	release
349.518	n/a	RESPONSE	M2	2	07	G3	press
349.523	n/a	RESPONSE	M2	2	00	C3	press
349.526	n/a	RESPONSE	M2	2	11	B3	press
349.528	n/a	RESPONSE	M2	2	12	C4	press
349.633	n/a	RESPONSE	M2	2	11	B3	release
350.338	n/a	RESPONSE	M2	2	12	C4	release
350.45	n/a	RESPONSE	M2	2	00	C3	release
351.956	7.758	FIXCROSS	n/a	n/a	n/a	n/a	n/a
357.67	n/a	RESPONSE	M2	2	07	G3	release
359.714	6.317	CUE_LISTEN	M3	1	n/a	n/a	n/a
366.031	7.758	FIXCROSS	n/a	n/a	n/a	n/a	n/a
367.283	n/a	RESPONSE	M3	1	07	G3	press
368.654	n/a	RESPONSE	M3	1	07	G3	release
373.79	6.325	CUE_PLAYBACK_RIGHT_HAND	M3	1	n/a	n/a	n/a
375.524	n/a	RESPONSE	M3	1	12	C4	press
376.893	n/a	RESPONSE	M3	1	14	D4	press
377.006	n/a	RESPONSE	M3	1	12	C4	release
377.288	n/a	RESPONSE	M3	1	16	E4	press
377.407	n/a	RESPONSE	M3	1	14	D4	release
377.748	n/a	RESPONSE	M3	1	11	B3	press
377.751	n/a	RESPONSE	M3	1	12	C4	press
377.811	n/a	RESPONSE	M3	1	16	E4	release
377.832	n/a	RESPONSE	M3	1	11	B3	release
378.123	n/a	RESPONSE	M3	1	12	C4	release
378.216	n/a	RESPONSE	M3	1	12	C4	press
378.706	n/a	RESPONSE	M3	1	14	D4	press
378.767	n/a	RESPONSE	M3	1	12	C4	release
379.127	n/a	RESPONSE	M3	1	16	E4	press
379.223	n/a	RESPONSE	M3	1	14	D4	release
379.566	n/a	RESPONSE	M3	1	12	C4	press
379.601	n/a	RESPONSE	M3	1	16	E4	release
380.104	n/a	RESPONSE	M3	1	12	C4	release
380.114	7.758	FIXCROSS	n/a	n/a	n/a	n/a	n/a
387.873	6.317	CUE_LISTEN	M3	2	n/a	n/a	n/a
394.19	7.758	FIXCROSS	n/a	n/a	n/a	n/a	n/a
401.948	6.317	CUE_PLAYBACK_RIGHT_HAND	M3	2	n/a	n/a	n/a
402.744	n/a	RESPONSE	M3	2	16	E4	press
403.228	n/a	RESPONSE	M3	2	17	F4	press
403.31	n/a	RESPONSE	M3	2	16	E4	release
403.748	n/a	RESPONSE	M3	2	19	G4	press
403.78	n/a	RESPONSE	M3	2	17	F4	release
404.441	n/a	RESPONSE	M3	2	19	G4	release
404.682	n/a	RESPONSE	M3	2	16	E4	press
405.193	n/a	RESPONSE	M3	2	17	F4	press
405.294	n/a	RESPONSE	M3	2	16	E4	release
405.716	n/a	RESPONSE	M3	2	19	G4	press
405.76	n/a	RESPONSE	M3	2	17	F4	release
406.691	n/a	RESPONSE	M3	2	19	G4	release
408.264	7.758	FIXCROSS	n/a	n/a	n/a	n/a	n/a
416.023	6.325	CUE_LISTEN	M3	1	n/a	n/a	n/a
420.716	n/a	RESPONSE	M3	1	19	G4	press
421.008	n/a	RESPONSE	M3	1	19	G4	release
422.348	7.758	FIXCROSS	n/a	n/a	n/a	n/a	n/a
422.628	n/a	RESPONSE	M3	1	19	G4	press
429.953	n/a	RESPONSE	M3	1	19	G4	release
430.106	6.317	CUE_PLAYBACK_RIGHT_HAND	M3	1	n/a	n/a	n/a
430.611	n/a	RESPONSE	M3	1	19	G4	press
430.897	n/a	RESPONSE	M3	1	21	A4	press
430.99	n/a	RESPONSE	M3	1	19	G4	release
431.142	n/a	RESPONSE	M3	1	21	A4	release
431.19	n/a	RESPONSE	M3	1	19	G4	press
431.206	n/a	RESPONSE	M3	1	21	A4	press
431.322	n/a	RESPONSE	M3	1	21	A4	release
431.523	n/a	RESPONSE	M3	1	19	G4	release
431.731	n/a	RESPONSE	M3	1	19	G4	press
432.026	n/a	RESPONSE	M3	1	21	A4	press
432.028	n/a	RESPONSE	M3	1	19	G4	release
432.252	n/a	RESPONSE	M3	1	21	A4	release
432.306	n/a	RESPONSE	M3	1	21	A4	press
432.658	n/a	RESPONSE	M3	1	21	A4	release
432.76	n/a	RESPONSE	M3	1	19	G4	press
433.031	n/a	RESPONSE	M3	1	21	A4	press
433.033	n/a	RESPONSE	M3	1	23	B4	press
433.166	n/a	RESPONSE	M3	1	23	B4	release
433.174	n/a	RESPONSE	M3	1	21	A4	release
433.597	n/a	RESPONSE	M3	1	17	F4	press
433.827	n/a	RESPONSE	M3	1	19	G4	release
433.888	n/a	RESPONSE	M3	1	16	E4	press
434.08	n/a	RESPONSE	M3	1	17	F4	release
434.503	n/a	RESPONSE	M3	1	12	C4	press
434.542	n/a	RESPONSE	M3	1	14	D4	press
434.643	n/a	RESPONSE	M3	1	16	E4	release
434.834	n/a	RESPONSE	M3	1	14	D4	release
434.846	n/a	RESPONSE	M3	1	16	E4	press
434.857	n/a	RESPONSE	M3	1	12	C4	release
434.988	n/a	RESPONSE	M3	1	16	E4	release
435.17	n/a	RESPONSE	M3	1	17	F4	press
435.522	n/a	RESPONSE	M3	1	19	G4	press
435.632	n/a	RESPONSE	M3	1	17	F4	release
436.113	n/a	RESPONSE	M3	1	19	G4	release
436.145	n/a	RESPONSE	M3	1	19	G4	press
436.423	7.758	FIXCROSS	n/a	n/a	n/a	n/a	n/a
436.447	n/a	RESPONSE	M3	1	21	A4	press
436.487	n/a	RESPONSE	M3	1	19	G4	release
436.68	n/a	RESPONSE	M3	1	19	G4	press
436.82	n/a	RESPONSE	M3	1	21	A4	release
436.981	n/a	RESPONSE	M3	1	17	F4	press
437.092	n/a	RESPONSE	M3	1	19	G4	release
437.286	n/a	RESPONSE	M3	1	16	E4	press
437.394	n/a	RESPONSE	M3	1	17	F4	release
437.916	n/a	RESPONSE	M3	1	12	C4	press
437.918	n/a	RESPONSE	M3	1	11	B3	press
437.978	n/a	RESPONSE	M3	1	16	E4	release
437.981	n/a	RESPONSE	M3	1	11	B3	release
438.981	n/a	RESPONSE	M3	1	12	C4	release
444.181	6.317	CUE_LISTEN	M3	2	n/a	n/a	n/a
450.498	7.758	FIXCROSS	n/a	n/a	n/a	n/a	n/a
458.256	6.325	CUE_PLAYBACK_RIGHT_HAND	M3	2	n/a	n/a	n/a
459.127	n/a	RESPONSE	M3	2	12	C4	press
459.475	n/a	RESPONSE	M3	2	12	C4	release
459.756	n/a	RESPONSE	M3	2	07	G3	press
460.07	n/a	RESPONSE	M3	2	07	G3	release
460.106	n/a	RESPONSE	M3	2	07	G3	press
460.395	n/a	RESPONSE	M3	2	07	G3	release
460.787	n/a	RESPONSE	M3	2	14	D4	press
461.432	n/a	RESPONSE	M3	2	14	D4	release
461.653	n/a	RESPONSE	M3	2	12	C4	press
462.117	n/a	RESPONSE	M3	2	12	C4	release
462.416	n/a	RESPONSE	M3	2	07	G3	press
462.766	n/a	RESPONSE	M3	2	07	G3	release
463.187	n/a	RESPONSE	M3	2	12	C4	press
464.027	n/a	RESPONSE	M3	2	12	C4	release
464.581	7.758	FIXCROSS	n/a	n/a	n/a	n/a	n/a
472.34	6.317	CUE_LISTEN	M5	1	n/a	n/a	n/a
478.656	7.758	FIXCROSS	n/a	n/a	n/a	n/a	n/a
483.006	n/a	RESPONSE	M5	1	07	G3	press
483.247	n/a	RESPONSE	M5	1	07	G3	release
484.708	n/a	RESPONSE	M5	1	05	F3	press
485.11	n/a	RESPONSE	M5	1	05	F3	release
486.415	6.325	CUE_PLAYBACK_BOTH_HANDS	M5	1	n/a	n/a	n/a
488.392	n/a	RESPONSE	M5	1	09	A3	press
488.395	n/a	RESPONSE	M5	1	12	C4	press
488.414	n/a	RESPONSE	M5	1	05	F3	press
488.747	n/a	RESPONSE	M5	1	16	E4	press
489.307	n/a	RESPONSE	M5	1	16	E4	release
489.317	n/a	RESPONSE	M5	1	09	A3	release
489.345	n/a	RESPONSE	M5	1	12	C4	release
489.52	n/a	RESPONSE	M5	1	09	A3	press
489.525	n/a	RESPONSE	M5	1	12	C4	press
489.933	n/a	RESPONSE	M5	1	17	F4	press
490.44	n/a	RESPONSE	M5	1	17	F4	release
490.53	n/a	RESPONSE	M5	1	17	F4	press
491.17	n/a	RESPONSE	M5	1	21	A4	press
491.178	n/a	RESPONSE	M5	1	17	F4	release
491.5	n/a	RESPONSE	M5	1	19	G4	press
491.662	n/a	RESPONSE	M5	1	21	A4	release
491.81	n/a	RESPONSE	M5	1	17	F4	press
492.062	n/a	RESPONSE	M5	1	19	G4	release
492.141	n/a	RESPONSE	M5	1	16	E4	press
492.367	n/a	RESPONSE	M5	1	17	F4	release
492.415	n/a	RESPONSE	M5	1	16	E4	release
492.47	n/a	RESPONSE	M5	1	17	F4	press
492.74	7.758	FIXCROSS	n/a	n/a	n/a	n/a	n/a
492.86	n/a	RESPONSE	M5	1	05	F3	release
492.93	n/a	RESPONSE	M5	1	17	F4	release
492.94	n/a	RESPONSE	M5	1	12	C4	release
493.161	n/a	RESPONSE	M5	1	12	C4	press
493.172	n/a	RESPONSE	M5	1	05	F3	press
493.453	n/a	RESPONSE	M5	1	17	F4	press
493.795	n/a	RESPONSE	M5	1	21	A4	press
493.836	n/a	RESPONSE	M5	1	17	F4	release
494.077	n/a	RESPONSE	M5	1	19	G4	press
494.218	n/a	RESPONSE	M5	1	21	A4	release
494.4	n/a	RESPONSE	M5	1	17	F4	press
494.553	n/a	RESPONSE	M5	1	19	G4	release
494.672	n/a	RESPONSE	M5	1	16	E4	press
494.765	n/a	RESPONSE	M5	1	17	F4	release
494.975	n/a	RESPONSE	M5	1	17	F4	press
495.056	n/a	RESPONSE	M5	1	16	E4	release
495.587	n/a	RESPONSE	M5	1	05	F3	release
495.608	n/a	RESPONSE	M5	1	12	C4	release
495.62	n/a	RESPONSE	M5	1	17	F4	release
499.527	n/a	RESPONSE	M5	1	09	A3	release
500.498	6.317	CUE_LISTEN	M5	2	n/a	n/a	n/a
506.815	7.758	FIXCROSS	n/a	n/a	n/a	n/a	n/a
509.822	n/a	RESPONSE	M5	2	16	E4	press
509.932	n/a	RESPONSE	M5	2	16	E4	release
513.061	n/a	RESPONSE	M5	2	17	F4	press
514.573	6.317	CUE_PLAYBACK_BOTH_HANDS	M5	2	n/a	n/a	n/a
515.012	n/a	RESPONSE	M5	2	17	F4	release
515.733	n/a	RESPONSE	M5	2	05	F3	press
515.736	n/a	RESPONSE	M5	2	09	A3	press
515.748	n/a	RESPONSE	M5	2	12	C4	press
516.077	n/a	RESPONSE	M5	2	17	F4	press
516.438	n/a	RESPONSE	M5	2	12	C4	release
516.441	n/a	RESPONSE	M5	2	05	F3	release
516.562	n/a	RESPONSE	M5	2	09	A3	release
516.592	n/a	RESPONSE	M5	2	17	F4	release
516.653	n/a	RESPONSE	M5	2	09	A3	press
516.665	n/a	RESPONSE	M5	2	12	C4	press
516.667	n/a	RESPONSE	M5	2	05	F3	press
517.007	n/a	RESPONSE	M5	2	17	F4	press
517.848	n/a	RESPONSE	M5	2	21	A4	press
517.88	n/a	RESPONSE	M5	2	19	G4	press
517.981	n/a	RESPONSE	M5	2	17	F4	release
518.052	n/a	RESPONSE	M5	2	19	G4	release
518.303	n/a	RESPONSE	M5	2	24	C5	press
518.315	n/a	RESPONSE	M5	2	23	B4	press
518.367	n/a	RESPONSE	M5	2	23	B4	release
518.377	n/a	RESPONSE	M5	2	24	C5	release
518.528	n/a	RESPONSE	M5	2	21	A4	release
519.225	n/a	RESPONSE	M5	2	22	A#4	press
520.121	n/a	RESPONSE	M5	2	22	A#4	release
520.457	n/a	RESPONSE	M5	2	20	G#4	press
520.787	n/a	RESPONSE	M5	2	20	G#4	release
520.89	7.758	FIXCROSS	n/a	n/a	n/a	n/a	n/a
520.916	n/a	RESPONSE	M5	2	22	A#4	press
521.203	n/a	RESPONSE	M5	2	21	A4	press
521.288	n/a	RESPONSE	M5	2	22	A#4	release
521.517	n/a	RESPONSE	M5	2	19	G4	press
521.672	n/a	RESPONSE	M5	2	21	A4	release
521.862	n/a	RESPONSE	M5	2	17	F4	press
521.946	n/a	RESPONSE	M5	2	19	G4	release
522.531	n/a	RESPONSE	M5	2	17	F4	release
522.556	n/a	RESPONSE	M5	2	12	C4	release
522.572	n/a	RESPONSE	M5	2	05	F3	release
528.648	6.325	CUE_LISTEN	M5	1	n/a	n/a	n/a
530.702	n/a	RESPONSE	M5	1	09	A3	release
534.973	7.758	FIXCROSS	n/a	n/a	n/a	n/a	n/a
542.163	n/a	RESPONSE	M5	1	04	E3	press
542.732	6.317	CUE_PLAYBACK_RIGHT_HAND	M5	1	n/a	n/a	n/a
543.947	n/a	RESPONSE	M5	1	19	G4	press
544.457	n/a	RESPONSE	M5	1	16	E4	press
544.537	n/a	RESPONSE	M5	1	19	G4	release
544.908	n/a	RESPONSE	M5	1	16	E4	release
544.972	n/a	RESPONSE	M5	1	16	E4	press
545.423	n/a	RESPONSE	M5	1	16	E4	release
545.495	n/a	RESPONSE	M5	1	17	F4	press
545.996	n/a	RESPONSE	M5	1	14	D4	press
546.095	n/a	RESPONSE	M5	1	17	F4	release
546.436	n/a	RESPONSE	M5	1	14	D4	release
546.498	n/a	RESPONSE	M5	1	14	D4	press
547.038	n/a	RESPONSE	M5	1	12	C4	press
547.07	n/a	RESPONSE	M5	1	14	D4	release
547.262	n/a	RESPONSE	M5	1	16	E4	press
547.362	n/a	RESPONSE	M5	1	12	C4	release
547.543	n/a	RESPONSE	M5	1	19	G4	press
547.605	n/a	RESPONSE	M5	1	16	E4	release
548.397	n/a	RESPONSE	M5	1	19	G4	release
549.048	7.758	FIXCROSS	n/a	n/a	n/a	n/a	n/a
549.743	n/a	RESPONSE	M5	1	04	E3	release
556.807	6.317	CUE_LISTEN	M5	2	n/a	n/a	n/a
563.123	7.759	FIXCROSS	n/a	n/a	n/a	n/a	n/a
570.882	6.325	CUE_PLAYBACK_RIGHT_HAND	M5	2	n/a	n/a	n/a
571.747	n/a	RESPONSE	M5	2	19	G4	press
572.262	n/a	RESPONSE	M5	2	19	G4	release
572.265	n/a	RESPONSE	M5	2	16	E4	press
572.767	n/a	RESPONSE	M5	2	16	E4	release
572.818	n/a	RESPONSE	M5	2	16	E4	press
573.27	n/a	RESPONSE	M5	2	16	E4	release
573.363	n/a	RESPONSE	M5	2	17	F4	press
573.902	n/a	RESPONSE	M5	2	14	D4	press
573.925	n/a	RESPONSE	M5	2	17	F4	release
574.385	n/a	RESPONSE	M5	2	14	D4	release
574.446	n/a	RESPONSE	M5	2	14	D4	press
574.997	n/a	RESPONSE	M5	2	14	D4	release
575.001	n/a	RESPONSE	M5	2	12	C4	press
575.25	n/a	RESPONSE	M5	2	16	E4	press
575.281	n/a	RESPONSE	M5	2	12	C4	release
575.532	n/a	RESPONSE	M5	2	11	B3	press
575.535	n/a	RESPONSE	M5	2	12	C4	press
575.565	n/a	RESPONSE	M5	2	04	E3	press
575.606	n/a	RESPONSE	M5	2	12	C4	release
575.667	n/a	RESPONSE	M5	2	11	B3	release
575.718	n/a	RESPONSE	M5	2	16	E4	release
575.92	n/a	RESPONSE	M5	2	12	C4	press
576.861	n/a	RESPONSE	M5	2	12	C4	release
577.207	7.758	FIXCROSS	n/a	n/a	n/a	n/a	n/a
584.965	6.317	CUE_LISTEN	M1	1	n/a	n/a	n/a
588.305	n/a	RESPONSE	M1	1	04	E3	release
590.04	n/a	RESPONSE	M1	1	04	E3	press
591.282	7.758	FIXCROSS	n/a	n/a	n/a	n/a	n/a
592.102	n/a	RESPONSE	M1	1	04	E3	release
596.081	n/a	RESPONSE	M1	1	05	F3	press
597.302	n/a	RESPONSE	M1	1	09	A3	press
597.316	n/a	RESPONSE	M1	1	07	G3	press
597.647	n/a	RESPONSE	M1	1	07	G3	release
597.666	n/a	RESPONSE	M1	1	09	A3	release
599.04	6.317	CUE_PLAYBACK_RIGHT_HAND	M1	1	n/a	n/a	n/a
602.285	n/a	RESPONSE	M1	1	21	A4	press
602.593	n/a	RESPONSE	M1	1	21	A4	release
602.685	n/a	RESPONSE	M1	1	05	F3	release
602.816	n/a	RESPONSE	M1	1	05	F3	press
602.837	n/a	RESPONSE	M1	1	21	A4	press
603.148	n/a	RESPONSE	M1	1	21	A4	release
603.24	n/a	RESPONSE	M1	1	09	A3	press
603.261	n/a	RESPONSE	M1	1	21	A4	press
603.473	n/a	RESPONSE	M1	1	05	F3	release
603.536	n/a	RESPONSE	M1	1	09	A3	release
603.547	n/a	RESPONSE	M1	1	21	A4	release
603.62	n/a	RESPONSE	M1	1	04	E3	press
603.648	n/a	RESPONSE	M1	1	21	A4	press
604.04	n/a	RESPONSE	M1	1	09	A3	press
604.251	n/a	RESPONSE	M1	1	04	E3	release
604.303	n/a	RESPONSE	M1	1	21	A4	release
604.323	n/a	RESPONSE	M1	1	09	A3	release
604.415	n/a	RESPONSE	M1	1	02	D3	press
604.426	n/a	RESPONSE	M1	1	21	A4	press
604.737	n/a	RESPONSE	M1	1	21	A4	release
604.781	n/a	RESPONSE	M1	1	02	D3	release
604.82	n/a	RESPONSE	M1	1	09	A3	press
604.851	n/a	RESPONSE	M1	1	21	A4	press
605.122	n/a	RESPONSE	M1	1	21	A4	release
605.153	n/a	RESPONSE	M1	1	09	A3	release
605.187	n/a	RESPONSE	M1	1	00	C3	press
605.226	n/a	RESPONSE	M1	1	21	A4	press
605.357	7.758	FIXCROSS	n/a	n/a	n/a	n/a	n/a
605.587	n/a	RESPONSE	M1	1	09	A3	press
605.738	n/a	RESPONSE	M1	1	00	C3	release
605.84	n/a	RESPONSE	M1	1	09	A3	release
605.942	n/a	RESPONSE	M1	1	21	A4	release
606.622	n/a	RESPONSE	M1	1	21	A4	press
606.633	n/a	RESPONSE	M1	1	05	F3	press
607.115	n/a	RESPONSE	M1	1	23	B4	press
607.126	n/a	RESPONSE	M1	1	09	A3	press
607.147	n/a	RESPONSE	M1	1	07	G3	press
607.15	n/a	RESPONSE	M1	1	21	A4	release
607.22	n/a	RESPONSE	M1	1	07	G3	release
607.421	n/a	RESPONSE	M1	1	17	F4	press
607.633	n/a	RESPONSE	M1	1	17	F4	release
607.723	n/a	RESPONSE	M1	1	23	B4	release
607.775	n/a	RESPONSE	M1	1	05	F3	release
608.086	n/a	RESPONSE	M1	1	09	A3	release
608.237	n/a	RESPONSE	M1	1	21	A4	press
608.24	n/a	RESPONSE	M1	1	05	F3	press
608.74	n/a	RESPONSE	M1	1	09	A3	press
608.742	n/a	RESPONSE	M1	1	23	B4	press
608.823	n/a	RESPONSE	M1	1	21	A4	release
608.99	n/a	RESPONSE	M1	1	24	C5	press
609.592	n/a	RESPONSE	M1	1	23	B4	release
609.597	n/a	RESPONSE	M1	1	05	F3	release
609.675	n/a	RESPONSE	M1	1	09	A3	release
609.757	n/a	RESPONSE	M1	1	17	F4	press
609.77	n/a	RESPONSE	M1	1	24	C5	release
609.788	n/a	RESPONSE	M1	1	04	E3	press
610.317	n/a	RESPONSE	M1	1	19	G4	press
610.416	n/a	RESPONSE	M1	1	17	F4	release
610.428	n/a	RESPONSE	M1	1	09	A3	press
610.932	n/a	RESPONSE	M1	1	04	E3	release
610.936	n/a	RESPONSE	M1	1	09	A3	release
610.967	n/a	RESPONSE	M1	1	19	G4	release
613.115	6.325	CUE_LISTEN	M1	2	n/a	n/a	n/a
619.44	7.758	FIXCROSS	n/a	n/a	n/a	n/a	n/a
627.198	6.317	CUE_PLAYBACK_RIGHT_HAND	M1	2	n/a	n/a	n/a
628.058	n/a	RESPONSE	M1	2	07	G3	press
628.08	n/a	RESPONSE	M1	2	22	A#4	press
628.341	n/a	RESPONSE	M1	2	22	A#4	release
628.372	n/a	RESPONSE	M1	2	07	G3	release
628.493	n/a	RESPONSE	M1	2	10	A#3	press
628.507	n/a	RESPONSE	M1	2	22	A#4	press
628.788	n/a	RESPONSE	M1	2	22	A#4	release
628.797	n/a	RESPONSE	M1	2	10	A#3	release
628.978	n/a	RESPONSE	M1	2	04	E3	press
628.993	n/a	RESPONSE	M1	2	22	A#4	press
629.0	n/a	RESPONSE	M1	2	03	D#3	press
629.073	n/a	RESPONSE	M1	2	03	D#3	release
629.34	n/a	RESPONSE	M1	2	22	A#4	release
629.396	n/a	RESPONSE	M1	2	04	E3	release
629.425	n/a	RESPONSE	M1	2	10	A#3	press
629.463	n/a	RESPONSE	M1	2	22	A#4	press
629.687	n/a	RESPONSE	M1	2	10	A#3	release
629.817	n/a	RESPONSE	M1	2	22	A#4	release
629.932	n/a	RESPONSE	M1	2	05	F3	press
629.937	n/a	RESPONSE	M1	2	22	A#4	press
629.956	n/a	RESPONSE	M1	2	04	E3	press
630.02	n/a	RESPONSE	M1	2	04	E3	release
630.277	n/a	RESPONSE	M1	2	22	A#4	release
630.402	n/a	RESPONSE	M1	2	05	F3	release
630.428	n/a	RESPONSE	M1	2	09	A3	press
630.455	n/a	RESPONSE	M1	2	21	A4	press
630.767	n/a	RESPONSE	M1	2	09	A3	release
630.825	n/a	RESPONSE	M1	2	21	A4	release
630.92	n/a	RESPONSE	M1	2	02	D3	press
630.93	n/a	RESPONSE	M1	2	00	C3	press
630.941	n/a	RESPONSE	M1	2	21	A4	press
631.02	n/a	RESPONSE	M1	2	00	C3	release
631.328	n/a	RESPONSE	M1	2	21	A4	release
631.467	n/a	RESPONSE	M1	2	09	A3	press
631.481	n/a	RESPONSE	M1	2	21	A4	press
631.487	n/a	RESPONSE	M1	2	02	D3	release
631.947	n/a	RESPONSE	M1	2	09	A3	release
632.06	n/a	RESPONSE	M1	2	07	G3	press
632.573	n/a	RESPONSE	M1	2	07	G3	release
632.616	n/a	RESPONSE	M1	2	21	A4	release
632.727	n/a	RESPONSE	M1	2	21	A4	press
632.738	n/a	RESPONSE	M1	2	07	G3	press
633.515	7.758	FIXCROSS	n/a	n/a	n/a	n/a	n/a
633.832	n/a	RESPONSE	M1	2	17	F4	press
633.851	n/a	RESPONSE	M1	2	11	B3	press
633.853	n/a	RESPONSE	M1	2	19	G4	press
633.856	n/a	RESPONSE	M1	2	09	A3	press
633.865	n/a	RESPONSE	M1	2	21	A4	release
634.107	n/a	RESPONSE	M1	2	09	A3	release
634.217	n/a	RESPONSE	M1	2	19	G4	release
634.318	n/a	RESPONSE	M1	2	07	G3	release
634.321	n/a	RESPONSE	M1	2	17	F4	release
634.351	n/a	RESPONSE	M1	2	11	B3	release
634.532	n/a	RESPONSE	M1	2	02	D3	press
634.553	n/a	RESPONSE	M1	2	17	F4	press
634.575	n/a	RESPONSE	M1	2	00	C3	press
634.707	n/a	RESPONSE	M1	2	00	C3	release
634.977	n/a	RESPONSE	M1	2	17	F4	release
635.298	n/a	RESPONSE	M1	2	02	D3	release
641.274	6.317	CUE_LISTEN	M4	1	n/a	n/a	n/a
647.59	7.758	FIXCROSS	n/a	n/a	n/a	n/a	n/a
653.611	n/a	RESPONSE	M4	1	21	A4	press
653.831	n/a	RESPONSE	M4	1	21	A4	release
655.348	6.325	CUE_PLAYBACK_BOTH_HANDS	M4	1	n/a	n/a	n/a
656.163	n/a	RESPONSE	M4	1	05	F3	press
656.185	n/a	RESPONSE	M4	1	21	A4	press
656.506	n/a	RESPONSE	M4	1	05	F3	release
656.547	n/a	RESPONSE	M4	1	21	A4	release
656.678	n/a	RESPONSE	M4	1	09	A3	press
656.69	n/a	RESPONSE	M4	1	21	A4	press
656.692	n/a	RESPONSE	M4	1	11	B3	press
656.763	n/a	RESPONSE	M4	1	11	B3	release
657.053	n/a	RESPONSE	M4	1	09	A3	release
657.085	n/a	RESPONSE	M4	1	21	A4	release
657.146	n/a	RESPONSE	M4	1	04	E3	press
657.177	n/a	RESPONSE	M4	1	21	A4	press
657.638	n/a	RESPONSE	M4	1	09	A3	press
657.961	n/a	RESPONSE	M4	1	04	E3	release
658.071	n/a	RESPONSE	M4	1	09	A3	release
658.142	n/a	RESPONSE	M4	1	02	D3	press
658.753	n/a	RESPONSE	M4	1	21	A4	release
658.877	n/a	RESPONSE	M4	1	21	A4	press
659.026	n/a	RESPONSE	M4	1	09	A3	press
659.305	n/a	RESPONSE	M4	1	02	D3	release
659.326	n/a	RESPONSE	M4	1	09	A3	release
659.715	n/a	RESPONSE	M4	1	21	A4	release
660.303	n/a	RESPONSE	M4	1	21	A4	press
660.762	n/a	RESPONSE	M4	1	21	A4	release
660.837	n/a	RESPONSE	M4	1	05	F3	press
660.846	n/a	RESPONSE	M4	1	21	A4	press
661.245	n/a	RESPONSE	M4	1	21	A4	release
661.273	n/a	RESPONSE	M4	1	05	F3	release
661.315	n/a	RESPONSE	M4	1	09	A3	press
661.34	n/a	RESPONSE	M4	1	21	A4	press
661.674	7.758	FIXCROSS	n/a	n/a	n/a	n/a	n/a
661.702	n/a	RESPONSE	M4	1	09	A3	release
661.715	n/a	RESPONSE	M4	1	21	A4	release
661.786	n/a	RESPONSE	M4	1	04	E3	press
661.808	n/a	RESPONSE	M4	1	21	A4	press
662.23	n/a	RESPONSE	M4	1	09	A3	press
662.492	n/a	RESPONSE	M4	1	04	E3	release
662.541	n/a	RESPONSE	M4	1	09	A3	release
662.543	n/a	RESPONSE	M4	1	21	A4	release
662.672	n/a	RESPONSE	M4	1	21	A4	press
662.675	n/a	RESPONSE	M4	1	02	D3	press
663.025	n/a	RESPONSE	M4	1	21	A4	release
663.135	n/a	RESPONSE	M4	1	02	D3	release
663.146	n/a	RESPONSE	M4	1	09	A3	press
663.157	n/a	RESPONSE	M4	1	21	A4	press
663.448	n/a	RESPONSE	M4	1	09	A3	release
663.5	n/a	RESPONSE	M4	1	21	A4	release
663.603	n/a	RESPONSE	M4	1	00	C3	press
663.632	n/a	RESPONSE	M4	1	21	A4	press
664.115	n/a	RESPONSE	M4	1	09	A3	press
664.365	n/a	RESPONSE	M4	1	00	C3	release
664.458	n/a	RESPONSE	M4	1	09	A3	release
664.467	n/a	RESPONSE	M4	1	21	A4	release
664.578	n/a	RESPONSE	M4	1	05	F3	press
664.61	n/a	RESPONSE	M4	1	21	A4	press
665.072	n/a	RESPONSE	M4	1	24	C5	press
665.082	n/a	RESPONSE	M4	1	09	A3	press
665.105	n/a	RESPONSE	M4	1	21	A4	release
665.186	n/a	RESPONSE	M4	1	05	F3	release
665.307	n/a	RESPONSE	M4	1	19	G4	press
665.507	n/a	RESPONSE	M4	1	17	F4	press
665.51	n/a	RESPONSE	M4	1	04	E3	press
665.52	n/a	RESPONSE	M4	1	02	D3	press
665.603	n/a	RESPONSE	M4	1	24	C5	release
665.652	n/a	RESPONSE	M4	1	09	A3	release
665.813	n/a	RESPONSE	M4	1	17	F4	release
665.945	n/a	RESPONSE	M4	1	04	E3	release
666.026	n/a	RESPONSE	M4	1	21	A4	press
666.127	n/a	RESPONSE	M4	1	19	G4	release
666.24	n/a	RESPONSE	M4	1	09	A3	press
666.36	n/a	RESPONSE	M4	1	02	D3	release
666.501	n/a	RESPONSE	M4	1	23	B4	press
666.503	n/a	RESPONSE	M4	1	00	C3	press
666.573	n/a	RESPONSE	M4	1	09	A3	release
666.605	n/a	RESPONSE	M4	1	21	A4	release
666.936	n/a	RESPONSE	M4	1	09	A3	press
667.047	n/a	RESPONSE	M4	1	00	C3	release
667.11	n/a	RESPONSE	M4	1	23	B4	release
667.161	n/a	RESPONSE	M4	1	09	A3	release
669.432	6.317	CUE_LISTEN	M4	2	n/a	n/a	n/a
675.748	14.083	FIXCROSS	n/a	n/a	n/a	n/a	n/a
683.507	n/a	CUE_PLAYBACK_BOTH_HANDS	M4	2	n/a	n/a	n/a
684.327	n/a	RESPONSE	M4	2	07	G3	press
684.336	n/a	RESPONSE	M4	2	22	A#4	press
684.617	n/a	RESPONSE	M4	2	22	A#4	release
684.72	n/a	RESPONSE	M4	2	07	G3	release
684.77	n/a	RESPONSE	M4	2	22	A#4	press
684.781	n/a	RESPONSE	M4	2	10	A#3	press
685.092	n/a	RESPONSE	M4	2	10	A#3	release
685.123	n/a	RESPONSE	M4	2	22	A#4	release
685.267	n/a	RESPONSE	M4	2	04	E3	press
685.277	n/a	RESPONSE	M4	2	22	A#4	press
685.65	n/a	RESPONSE	M4	2	22	A#4	release
685.71	n/a	RESPONSE	M4	2	04	E3	release
685.75	n/a	RESPONSE	M4	2	10	A#3	press
685.771	n/a	RESPONSE	M4	2	22	A#4	press
686.012	n/a	RESPONSE	M4	2	10	A#3	release
686.084	n/a	RESPONSE	M4	2	22	A#4	release
686.245	n/a	RESPONSE	M4	2	05	F3	press
686.276	n/a	RESPONSE	M4	2	22	A#4	press
686.497	n/a	RESPONSE	M4	2	22	A#4	release
686.698	n/a	RESPONSE	M4	2	05	F3	release
686.771	n/a	RESPONSE	M4	2	09	A3	press
686.791	n/a	RESPONSE	M4	2	21	A4	press
687.122	n/a	RESPONSE	M4	2	09	A3	release
687.263	n/a	RESPONSE	M4	2	21	A4	release
687.475	n/a	RESPONSE	M4	2	00	C3	press
687.477	n/a	RESPONSE	M4	2	02	D3	press
687.51	n/a	RESPONSE	M4	2	21	A4	press
687.618	n/a	RESPONSE	M4	2	21	A4	release
687.72	n/a	RESPONSE	M4	2	00	C3	release
688.051	n/a	RESPONSE	M4	2	21	A4	press
688.872	n/a	RESPONSE	M4	2	02	D3	release
688.893	n/a	RESPONSE	M4	2	09	A3	press
689.48	n/a	RESPONSE	M4	2	21	A4	release
689.832	7.758	FIXCROSS	n/a	n/a	n/a	n/a	n/a
689.94	n/a	RESPONSE	M4	2	09	A3	release
690.605	n/a	RESPONSE	M4	2	00	C3	press
690.607	n/a	RESPONSE	M4	2	24	C5	press
690.646	n/a	RESPONSE	M4	2	02	D3	press
690.957	n/a	RESPONSE	M4	2	02	D3	release
691.163	n/a	RESPONSE	M4	2	24	C5	release
691.288	n/a	RESPONSE	M4	2	07	G3	press
691.306	n/a	RESPONSE	M4	2	24	C5	press
691.36	n/a	RESPONSE	M4	2	00	C3	release
691.938	n/a	RESPONSE	M4	2	24	C5	release
692.266	n/a	RESPONSE	M4	2	07	G3	release
692.29	n/a	RESPONSE	M4	2	21	A4	press
692.297	n/a	RESPONSE	M4	2	04	E3	press
692.305	n/a	RESPONSE	M4	2	23	B4	press
692.337	n/a	RESPONSE	M4	2	05	F3	press
692.447	n/a	RESPONSE	M4	2	04	E3	release
692.836	n/a	RESPONSE	M4	2	23	B4	release
693.185	n/a	RESPONSE	M4	2	17	F4	press
693.206	n/a	RESPONSE	M4	2	04	E3	press
693.267	n/a	RESPONSE	M4	2	05	F3	release
693.301	n/a	RESPONSE	M4	2	21	A4	release
693.74	n/a	RESPONSE	M4	2	16	E4	press
693.931	n/a	RESPONSE	M4	2	04	E3	release
694.012	n/a	RESPONSE	M4	2	17	F4	release
694.033	n/a	RESPONSE	M4	2	02	D3	press
694.355	n/a	RESPONSE	M4	2	02	D3	release
694.456	n/a	RESPONSE	M4	2	16	E4	release
697.59	6.317	CUE_LISTEN	M2	1	n/a	n/a	n/a
703.907	7.758	FIXCROSS	n/a	n/a	n/a	n/a	n/a
711.665	6.317	CUE_PLAYBACK_RIGHT_HAND	M2	1	n/a	n/a	n/a
712.758	n/a	RESPONSE	M2	1	17	F4	press
713.41	n/a	RESPONSE	M2	1	17	F4	release
713.801	n/a	RESPONSE	M2	1	16	E4	press
714.132	n/a	RESPONSE	M2	1	16	E4	release
714.474	n/a	RESPONSE	M2	1	19	G4	press
715.175	n/a	RESPONSE	M2	1	19	G4	release
715.556	n/a	RESPONSE	M2	1	19	G4	press
715.627	n/a	RESPONSE	M2	1	19	G4	release
716.24	n/a	RESPONSE	M2	1	19	G4	press
716.52	n/a	RESPONSE	M2	1	19	G4	release
716.601	n/a	RESPONSE	M2	1	19	G4	press
716.625	n/a	RESPONSE	M2	1	18	F#4	press
716.683	n/a	RESPONSE	M2	1	18	F#4	release
716.867	n/a	RESPONSE	M2	1	19	G4	release
716.966	n/a	RESPONSE	M2	1	19	G4	press
717.417	n/a	RESPONSE	M2	1	19	G4	release
717.728	n/a	RESPONSE	M2	1	21	A4	press
717.83	n/a	RESPONSE	M2	1	21	A4	release
717.982	7.758	FIXCROSS	n/a	n/a	n/a	n/a	n/a
718.281	n/a	RESPONSE	M2	1	21	A4	press
718.632	n/a	RESPONSE	M2	1	21	A4	release
718.733	n/a	RESPONSE	M2	1	21	A4	press
719.156	n/a	RESPONSE	M2	1	21	A4	release
719.241	n/a	RESPONSE	M2	1	21	A4	press
719.421	n/a	RESPONSE	M2	1	21	A4	release
723.367	n/a	RESPONSE	M2	1	12	C4	press
724.318	n/a	RESPONSE	M2	1	12	C4	release
725.74	6.325	CUE_LISTEN	M2	2	n/a	n/a	n/a
727.731	n/a	RESPONSE	M2	2	19	G4	press
728.882	n/a	RESPONSE	M2	2	19	G4	release
732.065	7.758	FIXCROSS	n/a	n/a	n/a	n/a	n/a
734.91	n/a	RESPONSE	M2	2	24	C5	press
735.451	n/a	RESPONSE	M2	2	24	C5	release
735.525	n/a	RESPONSE	M2	2	24	C5	press
736.474	n/a	RESPONSE	M2	2	24	C5	release
738.686	n/a	RESPONSE	M2	2	24	C5	press
739.7	n/a	RESPONSE	M2	2	24	C5	release
739.824	6.317	CUE_PLAYBACK_RIGHT_HAND	M2	2	n/a	n/a	n/a
740.392	n/a	RESPONSE	M2	2	24	C5	press
740.8	n/a	RESPONSE	M2	2	24	C5	release
740.902	n/a	RESPONSE	M2	2	19	G4	press
740.91	n/a	RESPONSE	M2	2	21	A4	press
741.226	n/a	RESPONSE	M2	2	21	A4	release
741.284	n/a	RESPONSE	M2	2	19	G4	release
741.37	n/a	RESPONSE	M2	2	19	G4	press
741.375	n/a	RESPONSE	M2	2	21	A4	press
741.636	n/a	RESPONSE	M2	2	21	A4	release
742.104	n/a	RESPONSE	M2	2	17	F4	press
742.182	n/a	RESPONSE	M2	2	19	G4	release
742.578	n/a	RESPONSE	M2	2	16	E4	press
742.651	n/a	RESPONSE	M2	2	17	F4	release
743.162	n/a	RESPONSE	M2	2	16	E4	release
743.213	n/a	RESPONSE	M2	2	16	E4	press
743.725	n/a	RESPONSE	M2	2	14	D4	press
743.796	n/a	RESPONSE	M2	2	16	E4	release
744.278	n/a	RESPONSE	M2	2	12	C4	press
744.368	n/a	RESPONSE	M2	2	12	C4	release
744.691	n/a	RESPONSE	M2	2	12	C4	press
744.711	n/a	RESPONSE	M2	2	14	D4	release
745.342	n/a	RESPONSE	M2	2	12	C4	release
746.14	7.758	FIXCROSS	n/a	n/a	n/a	n/a	n/a
751.061	n/a	RESPONSE	M2	2	07	G3	press
751.277	n/a	RESPONSE	M2	2	07	G3	release
753.899	6.317	CUE_LISTEN	M2	1	n/a	n/a	n/a
760.215	7.758	FIXCROSS	n/a	n/a	n/a	n/a	n/a
767.974	6.325	CUE_PLAYBACK_RIGHT_HAND	M2	1	n/a	n/a	n/a
768.921	n/a	RESPONSE	M2	1	12	C4	press
769.412	n/a	RESPONSE	M2	1	14	D4	press
769.841	n/a	RESPONSE	M2	1	12	C4	release
769.844	n/a	RESPONSE	M2	1	16	E4	press
769.846	n/a	RESPONSE	M2	1	14	D4	release
770.281	n/a	RESPONSE	M2	1	14	D4	press
770.335	n/a	RESPONSE	M2	1	16	E4	release
770.685	n/a	RESPONSE	M2	1	16	E4	press
770.737	n/a	RESPONSE	M2	1	14	D4	release
771.095	n/a	RESPONSE	M2	1	17	F4	press
771.138	n/a	RESPONSE	M2	1	16	E4	release
771.52	n/a	RESPONSE	M2	1	19	G4	press
771.656	n/a	RESPONSE	M2	1	17	F4	release
772.171	n/a	RESPONSE	M2	1	19	G4	release
774.299	7.758	FIXCROSS	n/a	n/a	n/a	n/a	n/a
782.057	6.317	CUE_LISTEN	M2	2	n/a	n/a	n/a
788.374	7.758	FIXCROSS	n/a	n/a	n/a	n/a	n/a
796.132	6.317	CUE_PLAYBACK_RIGHT_HAND	M2	2	n/a	n/a	n/a
796.81	n/a	RESPONSE	M2	2	16	E4	press
797.294	n/a	RESPONSE	M2	2	19	G4	press
797.332	n/a	RESPONSE	M2	2	17	F4	press
797.364	n/a	RESPONSE	M2	2	16	E4	release
797.536	n/a	RESPONSE	M2	2	17	F4	release
797.746	n/a	RESPONSE	M2	2	19	G4	release
797.817	n/a	RESPONSE	M2	2	19	G4	press
798.268	n/a	RESPONSE	M2	2	19	G4	release
798.28	n/a	RESPONSE	M2	2	17	F4	press
798.801	n/a	RESPONSE	M2	2	14	D4	press
798.803	n/a	RESPONSE	M2	2	16	E4	press
798.876	n/a	RESPONSE	M2	2	17	F4	release
799.244	n/a	RESPONSE	M2	2	14	D4	release
799.451	n/a	RESPONSE	M2	2	14	D4	press
799.665	n/a	RESPONSE	M2	2	16	E4	release
800.18	n/a	RESPONSE	M2	2	12	C4	press
800.288	n/a	RESPONSE	M2	2	14	D4	release
801.078	n/a	RESPONSE	M2	2	12	C4	release
802.449	7.758	FIXCROSS	n/a	n/a	n/a	n/a	n/a
808.755	n/a	RESPONSE	M2	2	12	C4	press
808.816	n/a	RESPONSE	M2	2	12	C4	release
810.207	6.325	CUE_LISTEN	M3	1	n/a	n/a	n/a
816.532	7.758	FIXCROSS	n/a	n/a	n/a	n/a	n/a
824.291	6.317	CUE_PLAYBACK_BOTH_HANDS	M3	1	n/a	n/a	n/a
825.292	n/a	RESPONSE	M3	1	00	C3	press
825.304	n/a	RESPONSE	M3	1	12	C4	press
825.785	n/a	RESPONSE	M3	1	07	G3	press
825.796	n/a	RESPONSE	M3	1	14	D4	press
825.838	n/a	RESPONSE	M3	1	00	C3	release
825.848	n/a	RESPONSE	M3	1	12	C4	release
826.221	n/a	RESPONSE	M3	1	16	E4	press
826.224	n/a	RESPONSE	M3	1	04	E3	press
826.302	n/a	RESPONSE	M3	1	07	G3	release
826.316	n/a	RESPONSE	M3	1	14	D4	release
826.715	n/a	RESPONSE	M3	1	07	G3	press
826.717	n/a	RESPONSE	M3	1	12	C4	press
826.81	n/a	RESPONSE	M3	1	16	E4	release
826.928	n/a	RESPONSE	M3	1	04	E3	release
826.99	n/a	RESPONSE	M3	1	07	G3	release
827.031	n/a	RESPONSE	M3	1	12	C4	release
827.184	n/a	RESPONSE	M3	1	00	C3	press
827.215	n/a	RESPONSE	M3	1	12	C4	press
827.685	n/a	RESPONSE	M3	1	07	G3	press
827.696	n/a	RESPONSE	M3	1	14	D4	press
827.73	n/a	RESPONSE	M3	1	00	C3	release
827.748	n/a	RESPONSE	M3	1	12	C4	release
828.13	n/a	RESPONSE	M3	1	16	E4	press
828.132	n/a	RESPONSE	M3	1	04	E3	press
828.182	n/a	RESPONSE	M3	1	14	D4	release
828.224	n/a	RESPONSE	M3	1	07	G3	release
828.605	n/a	RESPONSE	M3	1	07	G3	press
828.628	n/a	RESPONSE	M3	1	12	C4	press
828.847	n/a	RESPONSE	M3	1	04	E3	release
828.878	n/a	RESPONSE	M3	1	16	E4	release
828.91	n/a	RESPONSE	M3	1	07	G3	release
828.921	n/a	RESPONSE	M3	1	12	C4	release
829.046	n/a	RESPONSE	M3	1	00	C3	press
829.06	n/a	RESPONSE	M3	1	16	E4	press
829.411	n/a	RESPONSE	M3	1	16	E4	release
829.434	n/a	RESPONSE	M3	1	00	C3	release
830.607	7.758	FIXCROSS	n/a	n/a	n/a	n/a	n/a
838.366	6.317	CUE_LISTEN	M3	2	n/a	n/a	n/a
844.682	7.758	FIXCROSS	n/a	n/a	n/a	n/a	n/a
847.22	n/a	RESPONSE	M3	2	19	G4	press
847.92	n/a	RESPONSE	M3	2	19	G4	release
852.441	6.325	CUE_PLAYBACK_BOTH_HANDS	M3	2	n/a	n/a	n/a
852.987	n/a	RESPONSE	M3	2	19	G4	press
853.278	n/a	RESPONSE	M3	2	21	A4	press
853.31	n/a	RESPONSE	M3	2	19	G4	release
853.541	n/a	RESPONSE	M3	2	19	G4	press
853.702	n/a	RESPONSE	M3	2	21	A4	release
853.874	n/a	RESPONSE	M3	2	17	F4	press
853.985	n/a	RESPONSE	M3	2	19	G4	release
854.206	n/a	RESPONSE	M3	2	16	E4	press
854.317	n/a	RESPONSE	M3	2	17	F4	release
854.868	n/a	RESPONSE	M3	2	12	C4	press
854.92	n/a	RESPONSE	M3	2	16	E4	release
855.344	n/a	RESPONSE	M3	2	12	C4	release
855.482	n/a	RESPONSE	M3	2	19	G4	press
855.786	n/a	RESPONSE	M3	2	21	A4	press
855.846	n/a	RESPONSE	M3	2	19	G4	release
856.066	n/a	RESPONSE	M3	2	19	G4	press
856.077	n/a	RESPONSE	M3	2	17	F4	press
856.128	n/a	RESPONSE	M3	2	21	A4	release
856.271	n/a	RESPONSE	M3	2	17	F4	release
856.451	n/a	RESPONSE	M3	2	18	F#4	press
856.542	n/a	RESPONSE	M3	2	17	F4	press
856.574	n/a	RESPONSE	M3	2	18	F#4	release
856.706	n/a	RESPONSE	M3	2	19	G4	release
856.936	n/a	RESPONSE	M3	2	16	E4	press
856.938	n/a	RESPONSE	M3	2	14	D4	press
857.081	n/a	RESPONSE	M3	2	17	F4	release
857.28	n/a	RESPONSE	M3	2	14	D4	release
857.791	n/a	RESPONSE	M3	2	12	C4	press
858.044	n/a	RESPONSE	M3	2	16	E4	release
858.394	n/a	RESPONSE	M3	2	12	C4	release
858.766	7.758	FIXCROSS	n/a	n/a	n/a	n/a	n/a
866.524	6.317	CUE_LISTEN	M3	1	n/a	n/a	n/a
872.841	7.758	FIXCROSS	n/a	n/a	n/a	n/a	n/a
880.599	6.325	CUE_PLAYBACK_BOTH_HANDS	M3	1	n/a	n/a	n/a
882.621	n/a	RESPONSE	M3	1	00	C3	press
882.632	n/a	RESPONSE	M3	1	21	A4	press
883.184	n/a	RESPONSE	M3	1	21	A4	release
883.405	n/a	RESPONSE	M3	1	00	C3	release
883.486	n/a	RESPONSE	M3	1	00	C3	press
883.497	n/a	RESPONSE	M3	1	19	G4	press
883.768	n/a	RESPONSE	M3	1	23	B4	press
883.771	n/a	RESPONSE	M3	1	21	A4	press
883.801	n/a	RESPONSE	M3	1	19	G4	release
884.122	n/a	RESPONSE	M3	1	23	B4	release
884.264	n/a	RESPONSE	M3	1	21	A4	release
884.456	n/a	RESPONSE	M3	1	00	C3	release
884.486	n/a	RESPONSE	M3	1	19	G4	press
884.497	n/a	RESPONSE	M3	1	00	C3	press
884.761	n/a	RESPONSE	M3	1	21	A4	press
884.821	n/a	RESPONSE	M3	1	19	G4	release
885.001	n/a	RESPONSE	M3	1	19	G4	press
885.004	n/a	RESPONSE	M3	1	07	G3	press
885.234	n/a	RESPONSE	M3	1	21	A4	release
885.257	n/a	RESPONSE	M3	1	00	C3	release
885.306	n/a	RESPONSE	M3	1	17	F4	press
885.427	n/a	RESPONSE	M3	1	04	E3	press
885.448	n/a	RESPONSE	M3	1	19	G4	release
885.551	n/a	RESPONSE	M3	1	16	E4	press
885.631	n/a	RESPONSE	M3	1	07	G3	release
885.902	n/a	RESPONSE	M3	1	17	F4	release
886.144	n/a	RESPONSE	M3	1	07	G3	press
886.146	n/a	RESPONSE	M3	1	12	C4	press
886.416	n/a	RESPONSE	M3	1	16	E4	release
886.447	n/a	RESPONSE	M3	1	12	C4	release
886.541	n/a	RESPONSE	M3	1	04	E3	release
886.6	n/a	RESPONSE	M3	1	07	G3	release
886.651	n/a	RESPONSE	M3	1	19	G4	press
886.662	n/a	RESPONSE	M3	1	00	C3	press
886.924	7.759	FIXCROSS	n/a	n/a	n/a	n/a	n/a
886.934	n/a	RESPONSE	M3	1	21	A4	press
887.287	n/a	RESPONSE	M3	1	07	G3	press
887.336	n/a	RESPONSE	M3	1	21	A4	release
887.547	n/a	RESPONSE	M3	1	17	F4	press
887.638	n/a	RESPONSE	M3	1	19	G4	release
887.691	n/a	RESPONSE	M3	1	00	C3	release
887.781	n/a	RESPONSE	M3	1	04	E3	press
887.842	n/a	RESPONSE	M3	1	16	E4	press
887.874	n/a	RESPONSE	M3	1	07	G3	release
887.935	n/a	RESPONSE	M3	1	17	F4	release
888.407	n/a	RESPONSE	M3	1	12	C4	press
888.447	n/a	RESPONSE	M3	1	07	G3	press
888.478	n/a	RESPONSE	M3	1	16	E4	release
888.65	n/a	RESPONSE	M3	1	07	G3	release
888.921	n/a	RESPONSE	M3	1	04	E3	release
889.004	n/a	RESPONSE	M3	1	12	C4	release
894.682	6.317	CUE_LISTEN	M3	2	n/a	n/a	n/a
900.999	7.758	FIXCROSS	n/a	n/a	n/a	n/a	n/a
904.144	n/a	RESPONSE	M3	2	12	C4	press
905.055	n/a	RESPONSE	M3	2	12	C4	release
908.037	n/a	RESPONSE	M3	2	12	C4	press
908.758	121.58	CUE_PLAYBACK_BOTH_HANDS	M3	2	n/a	n/a	n/a
909.016	n/a	RESPONSE	M3	2	12	C4	release
909.551	n/a	RESPONSE	M3	2	12	C4	press
909.971	n/a	RESPONSE	M3	2	12	C4	release
910.057	n/a	RESPONSE	M3	2	07	G3	press
910.418	n/a	RESPONSE	M3	2	07	G3	release
910.601	n/a	RESPONSE	M3	2	12	C4	press
911.366	n/a	RESPONSE	M3	2	12	C4	release
911.564	n/a	RESPONSE	M3	2	12	C4	press
911.985	n/a	RESPONSE	M3	2	12	C4	release
912.112	n/a	RESPONSE	M3	2	07	G3	press
912.166	n/a	RESPONSE	M3	2	09	A3	press
912.492	n/a	RESPONSE	M3	2	09	A3	release
912.5	n/a	RESPONSE	M3	2	12	C4	press
912.544	n/a	RESPONSE	M3	2	07	G3	release
912.615	n/a	RESPONSE	M3	2	12	C4	release
912.656	n/a	RESPONSE	M3	2	12	C4	press
913.254	n/a	FIXCROSS	n/a	n/a	n/a	n/a	n/a
913.437	n/a	RESPONSE	M3	2	12	C4	release
