onset	duration	trial_type	braille_stimulus	targets	response_count
2.01	2.008	CUE_6_DOT	n/a	n/a	n/a
7.01	1.008	FIXCROSS	n/a	n/a	n/a
8.027	5.008	6_DOT_DETECTION	ŁKTMO	0	n/a
13.06	1.008	FIXCROSS	n/a	n/a	n/a
14.077	5.008	6_DOT_DETECTION	CKBPD	0	n/a
19.11	1.008	FIXCROSS	n/a	n/a	n/a
20.127	5.008	6_DOT_DETECTION	#TAK#	2	n/a
21.6	n/a	RESPONSE	n/a	n/a	1/2
24.6	n/a	RESPONSE	n/a	n/a	2/2
25.16	1.008	FIXCROSS	n/a	n/a	n/a
26.177	5.008	6_DOT_DETECTION	DBA#Y	1	n/a
28.896	n/a	RESPONSE	n/a	n/a	1/1
31.21	1.008	FIXCROSS	n/a	n/a	n/a
32.227	5.008	6_DOT_DETECTION	LDEAC	0	n/a
37.26	1.008	FIXCROSS	n/a	n/a	n/a
38.277	5.008	6_DOT_DETECTION	ŁMLSI	0	n/a
43.311	1.008	FIXCROSS	n/a	n/a	n/a
44.327	5.008	6_DOT_DETECTION	ULI#Ł	1	n/a
46.976	n/a	RESPONSE	n/a	n/a	1/1
49.361	1.008	FIXCROSS	n/a	n/a	n/a
50.377	5.008	6_DOT_DETECTION	K#SET	1	n/a
52.12	n/a	RESPONSE	n/a	n/a	1/1
57.419	2.008	CUE_REST	n/a	n/a	n/a
62.419	1.008	FIXCROSS	n/a	n/a	n/a
68.469	1.008	FIXCROSS	n/a	n/a	n/a
75.527	2.008	CUE_6_DOT	n/a	n/a	n/a
80.527	1.008	FIXCROSS	n/a	n/a	n/a
81.544	5.008	6_DOT_DETECTION	DLPOO	0	n/a
86.577	1.008	FIXCROSS	n/a	n/a	n/a
87.594	5.008	6_DOT_DETECTION	LDABD	0	n/a
92.627	1.008	FIXCROSS	n/a	n/a	n/a
93.644	5.008	6_DOT_DETECTION	OSA#U	1	n/a
96.24	n/a	RESPONSE	n/a	n/a	1/1
98.678	1.008	FIXCROSS	n/a	n/a	n/a
99.694	5.008	6_DOT_DETECTION	LEK##	2	n/a
102.432	n/a	RESPONSE	n/a	n/a	1/2
103.256	n/a	RESPONSE	n/a	n/a	2/2
104.728	1.008	FIXCROSS	n/a	n/a	n/a
105.744	5.008	6_DOT_DETECTION	#TAM#	2	n/a
107.056	n/a	RESPONSE	n/a	n/a	1/2
109.176	n/a	RESPONSE	n/a	n/a	2/2
110.778	1.008	FIXCROSS	n/a	n/a	n/a
111.794	5.008	6_DOT_DETECTION	ISUEP	0	n/a
116.828	1.008	FIXCROSS	n/a	n/a	n/a
117.844	5.008	6_DOT_DETECTION	K#MYL	1	n/a
119.192	n/a	RESPONSE	n/a	n/a	1/1
120.896	n/a	RESPONSE	n/a	n/a	2/1
121.856	n/a	RESPONSE	n/a	n/a	3/1
122.878	1.008	FIXCROSS	n/a	n/a	n/a
123.894	5.008	6_DOT_DETECTION	ADA#K	1	n/a
126.536	n/a	RESPONSE	n/a	n/a	1/1
130.436	2.008	CUE_REST	n/a	n/a	n/a
136.936	1.008	FIXCROSS	n/a	n/a	n/a
142.986	1.008	FIXCROSS	n/a	n/a	n/a
150.544	2.008	CUE_6_DOT	n/a	n/a	n/a
157.044	1.008	FIXCROSS	n/a	n/a	n/a
158.061	5.008	6_DOT_DETECTION	##BIŁ	2	n/a
160.032	n/a	RESPONSE	n/a	n/a	1/2
160.752	n/a	RESPONSE	n/a	n/a	2/2
163.094	1.008	FIXCROSS	n/a	n/a	n/a
164.111	5.008	6_DOT_DETECTION	K#BUD	1	n/a
165.952	n/a	RESPONSE	n/a	n/a	1/1
169.144	1.008	FIXCROSS	n/a	n/a	n/a
170.161	5.008	6_DOT_DETECTION	SMPMY	0	n/a
175.194	1.008	FIXCROSS	n/a	n/a	n/a
176.211	5.008	6_DOT_DETECTION	#DOBK	1	n/a
178.072	n/a	RESPONSE	n/a	n/a	1/1
181.244	1.008	FIXCROSS	n/a	n/a	n/a
182.261	5.008	6_DOT_DETECTION	TUAIU	0	n/a
187.294	1.008	FIXCROSS	n/a	n/a	n/a
188.311	5.008	6_DOT_DETECTION	P#LOK	1	n/a
190.032	n/a	RESPONSE	n/a	n/a	1/1
193.344	1.008	FIXCROSS	n/a	n/a	n/a
194.361	5.008	6_DOT_DETECTION	#LAT#	2	n/a
195.496	n/a	RESPONSE	n/a	n/a	1/2
198.072	n/a	RESPONSE	n/a	n/a	2/2
199.394	1.008	FIXCROSS	n/a	n/a	n/a
200.411	5.008	6_DOT_DETECTION	IPUTI	0	n/a
206.953	2.008	CUE_REST	n/a	n/a	n/a
211.453	1.008	FIXCROSS	n/a	n/a	n/a
217.503	1.008	FIXCROSS	n/a	n/a	n/a
225.561	2.008	CUE_6_DOT	n/a	n/a	n/a
231.561	1.008	FIXCROSS	n/a	n/a	n/a
232.578	5.008	6_DOT_DETECTION	EBC##	2	n/a
236.232	n/a	RESPONSE	n/a	n/a	1/2
237.312	n/a	RESPONSE	n/a	n/a	2/2
237.611	1.008	FIXCROSS	n/a	n/a	n/a
238.628	5.008	6_DOT_DETECTION	KOYUA	0	n/a
243.661	1.008	FIXCROSS	n/a	n/a	n/a
244.678	5.008	6_DOT_DETECTION	C#PYK	1	n/a
246.336	n/a	RESPONSE	n/a	n/a	1/1
247.136	n/a	RESPONSE	n/a	n/a	2/1
248.592	n/a	RESPONSE	n/a	n/a	3/1
249.711	1.008	FIXCROSS	n/a	n/a	n/a
250.728	5.008	6_DOT_DETECTION	TUB##	2	n/a
253.752	n/a	RESPONSE	n/a	n/a	1/2
254.456	n/a	RESPONSE	n/a	n/a	2/2
255.761	1.008	FIXCROSS	n/a	n/a	n/a
256.778	5.008	6_DOT_DETECTION	TCBMA	0	n/a
261.812	1.008	FIXCROSS	n/a	n/a	n/a
262.828	5.008	6_DOT_DETECTION	#SŁEM	1	n/a
263.856	n/a	RESPONSE	n/a	n/a	1/1
267.862	1.008	FIXCROSS	n/a	n/a	n/a
268.878	5.008	6_DOT_DETECTION	##UBM	2	n/a
270.472	n/a	RESPONSE	n/a	n/a	1/2
271.056	n/a	RESPONSE	n/a	n/a	2/2
273.912	1.008	FIXCROSS	n/a	n/a	n/a
274.928	5.008	6_DOT_DETECTION	MYL#C	1	n/a
276.656	n/a	RESPONSE	n/a	n/a	1/1
278.296	n/a	RESPONSE	n/a	n/a	2/1
281.97	2.008	CUE_REST	n/a	n/a	n/a
285.97	1.008	FIXCROSS	n/a	n/a	n/a
292.02	1.008	FIXCROSS	n/a	n/a	n/a
299.578	2.008	CUE_6_DOT	n/a	n/a	n/a
305.078	1.008	FIXCROSS	n/a	n/a	n/a
306.095	5.008	6_DOT_DETECTION	DBPSO	0	n/a
311.128	1.008	FIXCROSS	n/a	n/a	n/a
312.145	5.008	6_DOT_DETECTION	SU#A#	2	n/a
314.592	n/a	RESPONSE	n/a	n/a	1/2
315.992	n/a	RESPONSE	n/a	n/a	2/2
317.178	1.008	FIXCROSS	n/a	n/a	n/a
318.195	5.008	6_DOT_DETECTION	#C#AB	2	n/a
319.456	n/a	RESPONSE	n/a	n/a	1/2
323.228	1.008	FIXCROSS	n/a	n/a	n/a
324.245	5.008	6_DOT_DETECTION	#TŁU#	2	n/a
325.136	n/a	RESPONSE	n/a	n/a	1/2
327.472	n/a	RESPONSE	n/a	n/a	2/2
329.278	1.008	FIXCROSS	n/a	n/a	n/a
330.295	5.008	6_DOT_DETECTION	#TYP#	2	n/a
331.176	n/a	RESPONSE	n/a	n/a	1/2
332.992	n/a	RESPONSE	n/a	n/a	2/2
334.272	n/a	RESPONSE	n/a	n/a	3/2
335.328	1.008	FIXCROSS	n/a	n/a	n/a
336.345	5.008	6_DOT_DETECTION	MYL#M	1	n/a
338.352	n/a	RESPONSE	n/a	n/a	1/1
339.992	n/a	RESPONSE	n/a	n/a	2/1
341.378	1.008	FIXCROSS	n/a	n/a	n/a
342.395	5.008	6_DOT_DETECTION	EE##I	2	n/a
344.512	n/a	RESPONSE	n/a	n/a	1/2
345.256	n/a	RESPONSE	n/a	n/a	2/2
347.428	1.008	FIXCROSS	n/a	n/a	n/a
348.445	5.008	6_DOT_DETECTION	##SET	2	n/a
349.432	n/a	RESPONSE	n/a	n/a	1/2
350.576	n/a	RESPONSE	n/a	n/a	2/2
354.487	2.008	CUE_REST	n/a	n/a	n/a
360.487	1.008	FIXCROSS	n/a	n/a	n/a
366.537	1.008	FIXCROSS	n/a	n/a	n/a
373.595	2.008	CUE_6_DOT	n/a	n/a	n/a
378.595	1.008	FIXCROSS	n/a	n/a	n/a
379.612	5.008	6_DOT_DETECTION	DOPPI	0	n/a
384.645	1.008	FIXCROSS	n/a	n/a	n/a
385.662	5.008	6_DOT_DETECTION	##BAK	2	n/a
387.272	n/a	RESPONSE	n/a	n/a	1/2
390.695	1.008	FIXCROSS	n/a	n/a	n/a
391.712	5.008	6_DOT_DETECTION	Y#ŁAM	1	n/a
393.376	n/a	RESPONSE	n/a	n/a	1/1
394.232	n/a	RESPONSE	n/a	n/a	2/1
396.745	1.008	FIXCROSS	n/a	n/a	n/a
397.762	5.008	6_DOT_DETECTION	I#LEP	1	n/a
399.336	n/a	RESPONSE	n/a	n/a	1/1
402.804	1.008	FIXCROSS	n/a	n/a	n/a
403.82	5.008	6_DOT_DETECTION	DLOPP	0	n/a
408.854	1.008	FIXCROSS	n/a	n/a	n/a
409.87	5.008	6_DOT_DETECTION	CEL#D	1	n/a
412.896	n/a	RESPONSE	n/a	n/a	1/1
414.904	1.008	FIXCROSS	n/a	n/a	n/a
415.92	5.008	6_DOT_DETECTION	IMKBP	0	n/a
420.954	1.008	FIXCROSS	n/a	n/a	n/a
421.97	5.008	6_DOT_DETECTION	KIT##	2	n/a
424.376	n/a	RESPONSE	n/a	n/a	1/2
425.456	n/a	RESPONSE	n/a	n/a	2/2
428.012	2.008	CUE_REST	n/a	n/a	n/a
435.012	1.008	FIXCROSS	n/a	n/a	n/a
441.062	1.008	FIXCROSS	n/a	n/a	n/a
