onset	duration	trial_type	melody_number	melody_part	key	sound	action
0.0	14.086	CUE_START	n/a	n/a	n/a	n/a	n/a
7.586	n/a	RESPONSE	M1	n/a	07	G3	press
8.33	n/a	RESPONSE	M1	n/a	07	G3	release
14.087	7.759	FIXCROSS	n/a	n/a	n/a	n/a	n/a
21.846	6.316	CUE_LISTEN	M1	1	n/a	n/a	n/a
28.162	7.758	FIXCROSS	n/a	n/a	n/a	n/a	n/a
35.92	6.317	CUE_PLAYBACK_RIGHT_HAND	M1	1	n/a	n/a	n/a
36.768	n/a	RESPONSE	M1	1	19	G4	press
37.201	n/a	RESPONSE	M1	1	19	G4	release
37.272	n/a	RESPONSE	M1	1	16	E4	press
37.524	n/a	RESPONSE	M1	1	16	E4	release
37.775	n/a	RESPONSE	M1	1	16	E4	press
38.058	n/a	RESPONSE	M1	1	16	E4	release
38.237	n/a	RESPONSE	M1	1	17	F4	press
38.522	n/a	RESPONSE	M1	1	17	F4	release
38.705	n/a	RESPONSE	M1	1	14	D4	press
38.941	n/a	RESPONSE	M1	1	14	D4	release
39.205	n/a	RESPONSE	M1	1	14	D4	press
39.46	n/a	RESPONSE	M1	1	14	D4	release
39.714	n/a	RESPONSE	M1	1	12	C4	press
39.921	n/a	RESPONSE	M1	1	16	E4	press
40.05	n/a	RESPONSE	M1	1	12	C4	release
40.31	n/a	RESPONSE	M1	1	19	G4	press
40.371	n/a	RESPONSE	M1	1	16	E4	release
40.93	n/a	RESPONSE	M1	1	19	G4	release
42.237	7.758	FIXCROSS	n/a	n/a	n/a	n/a	n/a
49.995	6.325	CUE_LISTEN	M1	2	n/a	n/a	n/a
56.32	7.758	FIXCROSS	n/a	n/a	n/a	n/a	n/a
64.079	6.317	CUE_PLAYBACK_RIGHT_HAND	M1	2	n/a	n/a	n/a
64.912	n/a	RESPONSE	M1	2	19	G4	press
65.304	n/a	RESPONSE	M1	2	19	G4	release
65.405	n/a	RESPONSE	M1	2	16	E4	press
65.597	n/a	RESPONSE	M1	2	16	E4	release
65.877	n/a	RESPONSE	M1	2	16	E4	press
66.129	n/a	RESPONSE	M1	2	16	E4	release
66.34	n/a	RESPONSE	M1	2	17	F4	press
66.624	n/a	RESPONSE	M1	2	17	F4	release
66.772	n/a	RESPONSE	M1	2	14	D4	press
66.975	n/a	RESPONSE	M1	2	14	D4	release
67.246	n/a	RESPONSE	M1	2	14	D4	press
67.458	n/a	RESPONSE	M1	2	14	D4	release
67.678	n/a	RESPONSE	M1	2	12	C4	press
67.95	n/a	RESPONSE	M1	2	16	E4	press
67.952	n/a	RESPONSE	M1	2	12	C4	release
68.172	n/a	RESPONSE	M1	2	12	C4	press
68.195	n/a	RESPONSE	M1	2	16	E4	release
68.442	n/a	RESPONSE	M1	2	12	C4	release
70.395	7.758	FIXCROSS	n/a	n/a	n/a	n/a	n/a
78.154	6.325	CUE_LISTEN	M1	1	n/a	n/a	n/a
84.479	7.758	FIXCROSS	n/a	n/a	n/a	n/a	n/a
92.237	6.317	CUE_PLAYBACK_BOTH_HANDS	M1	1	n/a	n/a	n/a
93.066	n/a	RESPONSE	M1	1	07	G3	press
93.076	n/a	RESPONSE	M1	1	19	G4	press
93.437	n/a	RESPONSE	M1	1	19	G4	release
93.458	n/a	RESPONSE	M1	1	07	G3	release
93.521	n/a	RESPONSE	M1	1	04	E3	press
93.551	n/a	RESPONSE	M1	1	16	E4	press
93.745	n/a	RESPONSE	M1	1	16	E4	release
94.005	n/a	RESPONSE	M1	1	16	E4	press
94.235	n/a	RESPONSE	M1	1	16	E4	release
94.316	n/a	RESPONSE	M1	1	04	E3	release
94.43	n/a	RESPONSE	M1	1	05	F3	press
94.438	n/a	RESPONSE	M1	1	17	F4	press
94.72	n/a	RESPONSE	M1	1	05	F3	release
94.741	n/a	RESPONSE	M1	1	17	F4	release
94.902	n/a	RESPONSE	M1	1	02	D3	press
94.905	n/a	RESPONSE	M1	1	14	D4	press
95.105	n/a	RESPONSE	M1	1	14	D4	release
95.116	n/a	RESPONSE	M1	1	02	D3	release
95.347	n/a	RESPONSE	M1	1	02	D3	press
95.368	n/a	RESPONSE	M1	1	14	D4	press
95.561	n/a	RESPONSE	M1	1	14	D4	release
95.571	n/a	RESPONSE	M1	1	02	D3	release
95.822	n/a	RESPONSE	M1	1	00	C3	press
95.844	n/a	RESPONSE	M1	1	12	C4	press
95.865	n/a	RESPONSE	M1	1	02	D3	press
96.056	n/a	RESPONSE	M1	1	02	D3	release
96.137	n/a	RESPONSE	M1	1	16	E4	press
96.148	n/a	RESPONSE	M1	1	04	E3	press
96.25	n/a	RESPONSE	M1	1	12	C4	release
96.352	n/a	RESPONSE	M1	1	00	C3	release
96.363	n/a	RESPONSE	M1	1	19	G4	press
96.423	n/a	RESPONSE	M1	1	16	E4	release
96.447	n/a	RESPONSE	M1	1	07	G3	press
96.516	n/a	RESPONSE	M1	1	04	E3	release
97.018	n/a	RESPONSE	M1	1	07	G3	release
97.042	n/a	RESPONSE	M1	1	19	G4	release
98.554	7.758	FIXCROSS	n/a	n/a	n/a	n/a	n/a
106.312	6.317	CUE_LISTEN	M1	2	n/a	n/a	n/a
112.629	7.758	FIXCROSS	n/a	n/a	n/a	n/a	n/a
120.387	6.325	CUE_PLAYBACK_BOTH_HANDS	M1	2	n/a	n/a	n/a
121.152	n/a	RESPONSE	M1	2	07	G3	press
121.156	n/a	RESPONSE	M1	2	19	G4	press
121.627	n/a	RESPONSE	M1	2	07	G3	release
121.63	n/a	RESPONSE	M1	2	19	G4	release
121.702	n/a	RESPONSE	M1	2	04	E3	press
121.723	n/a	RESPONSE	M1	2	16	E4	press
121.925	n/a	RESPONSE	M1	2	16	E4	release
122.237	n/a	RESPONSE	M1	2	16	E4	press
122.498	n/a	RESPONSE	M1	2	16	E4	release
122.551	n/a	RESPONSE	M1	2	04	E3	release
122.773	n/a	RESPONSE	M1	2	05	F3	press
122.782	n/a	RESPONSE	M1	2	17	F4	press
123.203	n/a	RESPONSE	M1	2	05	F3	release
123.215	n/a	RESPONSE	M1	2	17	F4	release
123.296	n/a	RESPONSE	M1	2	14	D4	press
123.298	n/a	RESPONSE	M1	2	02	D3	press
123.498	n/a	RESPONSE	M1	2	14	D4	release
123.55	n/a	RESPONSE	M1	2	02	D3	release
123.831	n/a	RESPONSE	M1	2	02	D3	press
123.862	n/a	RESPONSE	M1	2	14	D4	press
124.085	n/a	RESPONSE	M1	2	02	D3	release
124.115	n/a	RESPONSE	M1	2	14	D4	release
124.407	n/a	RESPONSE	M1	2	00	C3	press
124.427	n/a	RESPONSE	M1	2	12	C4	press
124.718	n/a	RESPONSE	M1	2	04	E3	press
124.721	n/a	RESPONSE	M1	2	16	E4	press
124.783	n/a	RESPONSE	M1	2	12	C4	release
124.792	n/a	RESPONSE	M1	2	00	C3	release
124.974	n/a	RESPONSE	M1	2	04	E3	release
124.976	n/a	RESPONSE	M1	2	00	C3	press
125.008	n/a	RESPONSE	M1	2	12	C4	press
125.028	n/a	RESPONSE	M1	2	16	E4	release
125.488	n/a	RESPONSE	M1	2	00	C3	release
125.522	n/a	RESPONSE	M1	2	12	C4	release
126.712	7.758	FIXCROSS	n/a	n/a	n/a	n/a	n/a
134.47	6.317	CUE_LISTEN	M1	1	n/a	n/a	n/a
140.787	7.758	FIXCROSS	n/a	n/a	n/a	n/a	n/a
148.546	6.317	CUE_PLAYBACK_RIGHT_HAND	M1	1	n/a	n/a	n/a
149.337	n/a	RESPONSE	M1	1	19	G4	press
149.748	n/a	RESPONSE	M1	1	19	G4	release
149.828	n/a	RESPONSE	M1	1	16	E4	press
150.028	n/a	RESPONSE	M1	1	16	E4	release
150.301	n/a	RESPONSE	M1	1	16	E4	press
150.655	n/a	RESPONSE	M1	1	16	E4	release
150.697	n/a	RESPONSE	M1	1	17	F4	press
151.155	n/a	RESPONSE	M1	1	14	D4	press
151.201	n/a	RESPONSE	M1	1	17	F4	release
151.332	n/a	RESPONSE	M1	1	14	D4	release
151.645	n/a	RESPONSE	M1	1	14	D4	press
152.115	n/a	RESPONSE	M1	1	12	C4	press
152.148	n/a	RESPONSE	M1	1	14	D4	release
152.327	n/a	RESPONSE	M1	1	16	E4	press
152.438	n/a	RESPONSE	M1	1	12	C4	release
152.58	n/a	RESPONSE	M1	1	19	G4	press
152.592	n/a	RESPONSE	M1	1	16	E4	release
153.053	n/a	RESPONSE	M1	1	19	G4	release
154.862	7.758	FIXCROSS	n/a	n/a	n/a	n/a	n/a
162.62	6.325	CUE_LISTEN	M1	2	n/a	n/a	n/a
168.946	7.758	FIXCROSS	n/a	n/a	n/a	n/a	n/a
176.704	6.317	CUE_PLAYBACK_RIGHT_HAND	M1	2	n/a	n/a	n/a
177.62	n/a	RESPONSE	M1	2	19	G4	press
178.101	n/a	RESPONSE	M1	2	19	G4	release
178.155	n/a	RESPONSE	M1	2	16	E4	press
178.48	n/a	RESPONSE	M1	2	16	E4	release
178.703	n/a	RESPONSE	M1	2	16	E4	press
179.011	n/a	RESPONSE	M1	2	16	E4	release
179.222	n/a	RESPONSE	M1	2	17	F4	press
179.633	n/a	RESPONSE	M1	2	17	F4	release
179.741	n/a	RESPONSE	M1	2	14	D4	press
179.975	n/a	RESPONSE	M1	2	14	D4	release
180.283	n/a	RESPONSE	M1	2	14	D4	press
180.557	n/a	RESPONSE	M1	2	14	D4	release
180.838	n/a	RESPONSE	M1	2	12	C4	press
181.09	n/a	RESPONSE	M1	2	16	E4	press
181.233	n/a	RESPONSE	M1	2	12	C4	release
181.375	n/a	RESPONSE	M1	2	12	C4	press
181.428	n/a	RESPONSE	M1	2	16	E4	release
181.988	n/a	RESPONSE	M1	2	12	C4	release
183.02	7.758	FIXCROSS	n/a	n/a	n/a	n/a	n/a
190.779	6.317	CUE_LISTEN	M1	1	n/a	n/a	n/a
197.096	7.758	FIXCROSS	n/a	n/a	n/a	n/a	n/a
204.854	6.325	CUE_PLAYBACK_BOTH_HANDS	M1	1	n/a	n/a	n/a
205.725	n/a	RESPONSE	M1	1	07	G3	press
205.756	n/a	RESPONSE	M1	1	19	G4	press
206.117	n/a	RESPONSE	M1	1	07	G3	release
206.131	n/a	RESPONSE	M1	1	19	G4	release
206.27	n/a	RESPONSE	M1	1	04	E3	press
206.283	n/a	RESPONSE	M1	1	16	E4	press
206.492	n/a	RESPONSE	M1	1	16	E4	release
206.593	n/a	RESPONSE	M1	1	04	E3	release
206.805	n/a	RESPONSE	M1	1	04	E3	press
206.836	n/a	RESPONSE	M1	1	16	E4	press
207.078	n/a	RESPONSE	M1	1	16	E4	release
207.18	n/a	RESPONSE	M1	1	04	E3	release
207.363	n/a	RESPONSE	M1	1	17	F4	press
207.372	n/a	RESPONSE	M1	1	05	F3	press
207.713	n/a	RESPONSE	M1	1	17	F4	release
207.726	n/a	RESPONSE	M1	1	05	F3	release
207.888	n/a	RESPONSE	M1	1	14	D4	press
207.918	n/a	RESPONSE	M1	1	02	D3	press
208.11	n/a	RESPONSE	M1	1	14	D4	release
208.151	n/a	RESPONSE	M1	1	02	D3	release
208.445	n/a	RESPONSE	M1	1	14	D4	press
208.447	n/a	RESPONSE	M1	1	02	D3	press
208.701	n/a	RESPONSE	M1	1	02	D3	release
208.758	n/a	RESPONSE	M1	1	14	D4	release
208.978	n/a	RESPONSE	M1	1	00	C3	press
208.981	n/a	RESPONSE	M1	1	12	C4	press
209.256	n/a	RESPONSE	M1	1	16	E4	press
209.276	n/a	RESPONSE	M1	1	04	E3	press
209.372	n/a	RESPONSE	M1	1	12	C4	release
209.426	n/a	RESPONSE	M1	1	00	C3	release
209.496	n/a	RESPONSE	M1	1	07	G3	press
209.543	n/a	RESPONSE	M1	1	19	G4	press
209.59	n/a	RESPONSE	M1	1	04	E3	release
209.605	n/a	RESPONSE	M1	1	16	E4	release
210.167	n/a	RESPONSE	M1	1	07	G3	release
210.177	n/a	RESPONSE	M1	1	19	G4	release
211.179	7.758	FIXCROSS	n/a	n/a	n/a	n/a	n/a
218.937	6.317	CUE_LISTEN	M1	2	n/a	n/a	n/a
225.254	7.758	FIXCROSS	n/a	n/a	n/a	n/a	n/a
233.012	6.317	CUE_PLAYBACK_BOTH_HANDS	M1	2	n/a	n/a	n/a
233.848	n/a	RESPONSE	M1	2	19	G4	press
233.868	n/a	RESPONSE	M1	2	07	G3	press
234.228	n/a	RESPONSE	M1	2	19	G4	release
234.231	n/a	RESPONSE	M1	2	07	G3	release
234.373	n/a	RESPONSE	M1	2	04	E3	press
234.392	n/a	RESPONSE	M1	2	16	E4	press
234.593	n/a	RESPONSE	M1	2	16	E4	release
234.675	n/a	RESPONSE	M1	2	04	E3	release
234.906	n/a	RESPONSE	M1	2	04	E3	press
234.908	n/a	RESPONSE	M1	2	16	E4	press
235.148	n/a	RESPONSE	M1	2	16	E4	release
235.16	n/a	RESPONSE	M1	2	04	E3	release
235.421	n/a	RESPONSE	M1	2	05	F3	press
235.442	n/a	RESPONSE	M1	2	17	F4	press
235.683	n/a	RESPONSE	M1	2	05	F3	release
235.707	n/a	RESPONSE	M1	2	17	F4	release
235.926	n/a	RESPONSE	M1	2	14	D4	press
235.93	n/a	RESPONSE	M1	2	02	D3	press
236.118	n/a	RESPONSE	M1	2	14	D4	release
236.151	n/a	RESPONSE	M1	2	02	D3	release
236.431	n/a	RESPONSE	M1	2	02	D3	press
236.452	n/a	RESPONSE	M1	2	14	D4	press
236.663	n/a	RESPONSE	M1	2	02	D3	release
236.675	n/a	RESPONSE	M1	2	14	D4	release
236.968	n/a	RESPONSE	M1	2	00	C3	press
236.988	n/a	RESPONSE	M1	2	12	C4	press
237.25	n/a	RESPONSE	M1	2	00	C3	release
237.252	n/a	RESPONSE	M1	2	04	E3	press
237.262	n/a	RESPONSE	M1	2	16	E4	press
237.283	n/a	RESPONSE	M1	2	12	C4	release
237.455	n/a	RESPONSE	M1	2	04	E3	release
237.506	n/a	RESPONSE	M1	2	16	E4	release
237.537	n/a	RESPONSE	M1	2	00	C3	press
237.551	n/a	RESPONSE	M1	2	12	C4	press
237.922	n/a	RESPONSE	M1	2	12	C4	release
237.931	n/a	RESPONSE	M1	2	00	C3	release
239.329	7.758	FIXCROSS	n/a	n/a	n/a	n/a	n/a
247.087	6.325	CUE_LISTEN	M1	1	n/a	n/a	n/a
253.412	7.758	FIXCROSS	n/a	n/a	n/a	n/a	n/a
261.171	6.317	CUE_PLAYBACK_RIGHT_HAND	M1	1	n/a	n/a	n/a
261.938	n/a	RESPONSE	M1	1	19	G4	press
262.321	n/a	RESPONSE	M1	1	19	G4	release
262.401	n/a	RESPONSE	M1	1	16	E4	press
262.582	n/a	RESPONSE	M1	1	16	E4	release
262.883	n/a	RESPONSE	M1	1	16	E4	press
263.077	n/a	RESPONSE	M1	1	16	E4	release
263.338	n/a	RESPONSE	M1	1	17	F4	press
263.607	n/a	RESPONSE	M1	1	17	F4	release
263.791	n/a	RESPONSE	M1	1	14	D4	press
263.97	n/a	RESPONSE	M1	1	14	D4	release
264.271	n/a	RESPONSE	M1	1	14	D4	press
264.532	n/a	RESPONSE	M1	1	14	D4	release
264.704	n/a	RESPONSE	M1	1	12	C4	press
265.005	n/a	RESPONSE	M1	1	16	E4	press
265.126	n/a	RESPONSE	M1	1	12	C4	release
265.278	n/a	RESPONSE	M1	1	19	G4	press
265.328	n/a	RESPONSE	M1	1	16	E4	release
265.91	n/a	RESPONSE	M1	1	19	G4	release
267.487	7.758	FIXCROSS	n/a	n/a	n/a	n/a	n/a
275.246	6.317	CUE_LISTEN	M1	2	n/a	n/a	n/a
281.562	7.758	FIXCROSS	n/a	n/a	n/a	n/a	n/a
289.321	6.325	CUE_PLAYBACK_RIGHT_HAND	M1	2	n/a	n/a	n/a
290.237	n/a	RESPONSE	M1	2	19	G4	press
290.746	n/a	RESPONSE	M1	2	16	E4	press
290.785	n/a	RESPONSE	M1	2	19	G4	release
291.051	n/a	RESPONSE	M1	2	16	E4	release
291.28	n/a	RESPONSE	M1	2	16	E4	press
291.801	n/a	RESPONSE	M1	2	17	F4	press
291.877	n/a	RESPONSE	M1	2	16	E4	release
292.293	n/a	RESPONSE	M1	2	14	D4	press
292.413	n/a	RESPONSE	M1	2	17	F4	release
292.504	n/a	RESPONSE	M1	2	14	D4	release
292.846	n/a	RESPONSE	M1	2	14	D4	press
293.34	n/a	RESPONSE	M1	2	12	C4	press
293.468	n/a	RESPONSE	M1	2	14	D4	release
293.64	n/a	RESPONSE	M1	2	16	E4	press
294.001	n/a	RESPONSE	M1	2	16	E4	release
294.573	n/a	RESPONSE	M1	2	12	C4	release
294.683	n/a	RESPONSE	M1	2	12	C4	press
295.164	n/a	RESPONSE	M1	2	12	C4	release
295.646	7.758	FIXCROSS	n/a	n/a	n/a	n/a	n/a
303.404	6.317	CUE_LISTEN	M1	1	n/a	n/a	n/a
309.721	7.758	FIXCROSS	n/a	n/a	n/a	n/a	n/a
317.479	6.317	CUE_PLAYBACK_BOTH_HANDS	M1	1	n/a	n/a	n/a
318.414	n/a	RESPONSE	M1	1	19	G4	press
318.423	n/a	RESPONSE	M1	1	07	G3	press
318.847	n/a	RESPONSE	M1	1	07	G3	release
318.86	n/a	RESPONSE	M1	1	19	G4	release
318.944	n/a	RESPONSE	M1	1	04	E3	press
318.951	n/a	RESPONSE	M1	1	16	E4	press
319.168	n/a	RESPONSE	M1	1	16	E4	release
319.261	n/a	RESPONSE	M1	1	04	E3	release
319.457	n/a	RESPONSE	M1	1	04	E3	press
319.474	n/a	RESPONSE	M1	1	16	E4	press
319.748	n/a	RESPONSE	M1	1	16	E4	release
319.796	n/a	RESPONSE	M1	1	04	E3	release
319.977	n/a	RESPONSE	M1	1	17	F4	press
320.004	n/a	RESPONSE	M1	1	05	F3	press
320.283	n/a	RESPONSE	M1	1	05	F3	release
320.34	n/a	RESPONSE	M1	1	17	F4	release
320.472	n/a	RESPONSE	M1	1	14	D4	press
320.474	n/a	RESPONSE	M1	1	02	D3	press
320.678	n/a	RESPONSE	M1	1	14	D4	release
320.706	n/a	RESPONSE	M1	1	02	D3	release
320.983	n/a	RESPONSE	M1	1	02	D3	press
320.991	n/a	RESPONSE	M1	1	14	D4	press
321.187	n/a	RESPONSE	M1	1	14	D4	release
321.211	n/a	RESPONSE	M1	1	02	D3	release
321.48	n/a	RESPONSE	M1	1	00	C3	press
321.52	n/a	RESPONSE	M1	1	12	C4	press
321.763	n/a	RESPONSE	M1	1	16	E4	press
321.766	n/a	RESPONSE	M1	1	04	E3	press
321.893	n/a	RESPONSE	M1	1	00	C3	release
321.896	n/a	RESPONSE	M1	1	12	C4	release
321.997	n/a	RESPONSE	M1	1	07	G3	press
322.008	n/a	RESPONSE	M1	1	19	G4	press
322.04	n/a	RESPONSE	M1	1	16	E4	release
322.081	n/a	RESPONSE	M1	1	04	E3	release
322.443	n/a	RESPONSE	M1	1	19	G4	release
322.563	n/a	RESPONSE	M1	1	07	G3	release
323.796	7.758	FIXCROSS	n/a	n/a	n/a	n/a	n/a
331.554	6.325	CUE_LISTEN	M1	2	n/a	n/a	n/a
337.879	7.758	FIXCROSS	n/a	n/a	n/a	n/a	n/a
345.638	6.317	CUE_PLAYBACK_BOTH_HANDS	M1	2	n/a	n/a	n/a
346.303	n/a	RESPONSE	M1	2	19	G4	press
346.314	n/a	RESPONSE	M1	2	07	G3	press
346.766	n/a	RESPONSE	M1	2	19	G4	release
346.779	n/a	RESPONSE	M1	2	04	E3	press
346.798	n/a	RESPONSE	M1	2	16	E4	press
347.022	n/a	RESPONSE	M1	2	07	G3	release
347.052	n/a	RESPONSE	M1	2	16	E4	release
347.113	n/a	RESPONSE	M1	2	04	E3	release
347.354	n/a	RESPONSE	M1	2	16	E4	press
347.357	n/a	RESPONSE	M1	2	04	E3	press
347.627	n/a	RESPONSE	M1	2	16	E4	release
347.668	n/a	RESPONSE	M1	2	04	E3	release
347.83	n/a	RESPONSE	M1	2	17	F4	press
347.851	n/a	RESPONSE	M1	2	05	F3	press
348.192	n/a	RESPONSE	M1	2	17	F4	release
348.203	n/a	RESPONSE	M1	2	05	F3	release
348.344	n/a	RESPONSE	M1	2	14	D4	press
348.374	n/a	RESPONSE	M1	2	02	D3	press
348.558	n/a	RESPONSE	M1	2	14	D4	release
348.578	n/a	RESPONSE	M1	2	02	D3	release
348.84	n/a	RESPONSE	M1	2	02	D3	press
348.868	n/a	RESPONSE	M1	2	14	D4	press
349.084	n/a	RESPONSE	M1	2	02	D3	release
349.127	n/a	RESPONSE	M1	2	14	D4	release
349.353	n/a	RESPONSE	M1	2	00	C3	press
349.364	n/a	RESPONSE	M1	2	12	C4	press
349.628	n/a	RESPONSE	M1	2	04	E3	press
349.636	n/a	RESPONSE	M1	2	16	E4	press
349.686	n/a	RESPONSE	M1	2	00	C3	release
349.71	n/a	RESPONSE	M1	2	12	C4	release
349.88	n/a	RESPONSE	M1	2	04	E3	release
349.891	n/a	RESPONSE	M1	2	16	E4	release
349.9	n/a	RESPONSE	M1	2	00	C3	press
349.907	n/a	RESPONSE	M1	2	12	C4	press
350.352	n/a	RESPONSE	M1	2	00	C3	release
350.361	n/a	RESPONSE	M1	2	12	C4	release
351.954	7.758	FIXCROSS	n/a	n/a	n/a	n/a	n/a
359.712	6.325	CUE_LISTEN	M1	1	n/a	n/a	n/a
366.037	7.758	FIXCROSS	n/a	n/a	n/a	n/a	n/a
373.796	6.317	CUE_PLAYBACK_RIGHT_HAND	M1	1	n/a	n/a	n/a
374.614	n/a	RESPONSE	M1	1	19	G4	press
374.956	n/a	RESPONSE	M1	1	19	G4	release
375.117	n/a	RESPONSE	M1	1	16	E4	press
375.358	n/a	RESPONSE	M1	1	16	E4	release
375.621	n/a	RESPONSE	M1	1	16	E4	press
376.152	n/a	RESPONSE	M1	1	17	F4	press
376.242	n/a	RESPONSE	M1	1	16	E4	release
376.673	n/a	RESPONSE	M1	1	14	D4	press
376.677	n/a	RESPONSE	M1	1	12	C4	press
376.716	n/a	RESPONSE	M1	1	17	F4	release
376.887	n/a	RESPONSE	M1	1	12	C4	release
377.139	n/a	RESPONSE	M1	1	14	D4	release
377.261	n/a	RESPONSE	M1	1	14	D4	press
377.762	n/a	RESPONSE	M1	1	12	C4	press
378.023	n/a	RESPONSE	M1	1	16	E4	press
378.034	n/a	RESPONSE	M1	1	14	D4	release
378.166	n/a	RESPONSE	M1	1	12	C4	release
378.317	n/a	RESPONSE	M1	1	19	G4	press
378.384	n/a	RESPONSE	M1	1	16	E4	release
378.894	n/a	RESPONSE	M1	1	19	G4	release
380.112	7.758	FIXCROSS	n/a	n/a	n/a	n/a	n/a
387.871	6.325	CUE_LISTEN	M1	2	n/a	n/a	n/a
394.196	7.758	FIXCROSS	n/a	n/a	n/a	n/a	n/a
401.954	6.317	CUE_PLAYBACK_RIGHT_HAND	M1	2	n/a	n/a	n/a
402.833	n/a	RESPONSE	M1	2	19	G4	press
403.223	n/a	RESPONSE	M1	2	19	G4	release
403.273	n/a	RESPONSE	M1	2	16	E4	press
403.514	n/a	RESPONSE	M1	2	16	E4	release
403.766	n/a	RESPONSE	M1	2	16	E4	press
404.239	n/a	RESPONSE	M1	2	17	F4	press
404.248	n/a	RESPONSE	M1	2	16	E4	release
404.689	n/a	RESPONSE	M1	2	14	D4	press
404.761	n/a	RESPONSE	M1	2	17	F4	release
404.882	n/a	RESPONSE	M1	2	14	D4	release
405.193	n/a	RESPONSE	M1	2	14	D4	press
405.676	n/a	RESPONSE	M1	2	12	C4	press
405.896	n/a	RESPONSE	M1	2	14	D4	release
405.927	n/a	RESPONSE	M1	2	16	E4	press
406.089	n/a	RESPONSE	M1	2	12	C4	release
406.209	n/a	RESPONSE	M1	2	12	C4	press
406.252	n/a	RESPONSE	M1	2	16	E4	release
406.742	n/a	RESPONSE	M1	2	12	C4	release
408.271	7.758	FIXCROSS	n/a	n/a	n/a	n/a	n/a
416.029	6.317	CUE_LISTEN	M1	1	n/a	n/a	n/a
422.346	7.758	FIXCROSS	n/a	n/a	n/a	n/a	n/a
430.104	6.317	CUE_PLAYBACK_BOTH_HANDS	M1	1	n/a	n/a	n/a
430.949	n/a	RESPONSE	M1	1	19	G4	press
430.976	n/a	RESPONSE	M1	1	07	G3	press
431.344	n/a	RESPONSE	M1	1	19	G4	release
431.356	n/a	RESPONSE	M1	1	07	G3	release
431.479	n/a	RESPONSE	M1	1	04	E3	press
431.503	n/a	RESPONSE	M1	1	16	E4	press
431.723	n/a	RESPONSE	M1	1	16	E4	release
431.799	n/a	RESPONSE	M1	1	04	E3	release
432.022	n/a	RESPONSE	M1	1	16	E4	press
432.033	n/a	RESPONSE	M1	1	04	E3	press
432.304	n/a	RESPONSE	M1	1	16	E4	release
432.358	n/a	RESPONSE	M1	1	04	E3	release
432.587	n/a	RESPONSE	M1	1	05	F3	press
432.598	n/a	RESPONSE	M1	1	17	F4	press
432.929	n/a	RESPONSE	M1	1	05	F3	release
432.941	n/a	RESPONSE	M1	1	17	F4	release
433.152	n/a	RESPONSE	M1	1	14	D4	press
433.154	n/a	RESPONSE	M1	1	02	D3	press
433.366	n/a	RESPONSE	M1	1	14	D4	release
433.386	n/a	RESPONSE	M1	1	02	D3	release
433.697	n/a	RESPONSE	M1	1	02	D3	press
433.699	n/a	RESPONSE	M1	1	14	D4	press
433.919	n/a	RESPONSE	M1	1	14	D4	release
433.923	n/a	RESPONSE	M1	1	02	D3	release
434.262	n/a	RESPONSE	M1	1	00	C3	press
434.273	n/a	RESPONSE	M1	1	12	C4	press
434.546	n/a	RESPONSE	M1	1	04	E3	press
434.556	n/a	RESPONSE	M1	1	16	E4	press
434.678	n/a	RESPONSE	M1	1	12	C4	release
434.681	n/a	RESPONSE	M1	1	00	C3	release
434.879	n/a	RESPONSE	M1	1	07	G3	press
434.891	n/a	RESPONSE	M1	1	19	G4	press
434.902	n/a	RESPONSE	M1	1	04	E3	release
434.914	n/a	RESPONSE	M1	1	16	E4	release
435.394	n/a	RESPONSE	M1	1	19	G4	release
435.556	n/a	RESPONSE	M1	1	07	G3	release
436.421	7.758	FIXCROSS	n/a	n/a	n/a	n/a	n/a
444.179	6.325	CUE_LISTEN	M1	2	n/a	n/a	n/a
450.504	7.758	FIXCROSS	n/a	n/a	n/a	n/a	n/a
458.263	6.317	CUE_PLAYBACK_BOTH_HANDS	M1	2	n/a	n/a	n/a
459.144	n/a	RESPONSE	M1	2	19	G4	press
459.188	n/a	RESPONSE	M1	2	07	G3	press
459.526	n/a	RESPONSE	M1	2	07	G3	release
459.561	n/a	RESPONSE	M1	2	19	G4	release
459.624	n/a	RESPONSE	M1	2	04	E3	press
459.637	n/a	RESPONSE	M1	2	16	E4	press
459.871	n/a	RESPONSE	M1	2	16	E4	release
459.994	n/a	RESPONSE	M1	2	04	E3	release
460.132	n/a	RESPONSE	M1	2	04	E3	press
460.137	n/a	RESPONSE	M1	2	16	E4	press
460.428	n/a	RESPONSE	M1	2	16	E4	release
460.492	n/a	RESPONSE	M1	2	04	E3	release
460.646	n/a	RESPONSE	M1	2	17	F4	press
460.654	n/a	RESPONSE	M1	2	05	F3	press
460.993	n/a	RESPONSE	M1	2	05	F3	release
461.072	n/a	RESPONSE	M1	2	17	F4	release
461.136	n/a	RESPONSE	M1	2	14	D4	press
461.157	n/a	RESPONSE	M1	2	02	D3	press
461.357	n/a	RESPONSE	M1	2	14	D4	release
461.374	n/a	RESPONSE	M1	2	02	D3	release
461.628	n/a	RESPONSE	M1	2	02	D3	press
461.631	n/a	RESPONSE	M1	2	14	D4	press
461.857	n/a	RESPONSE	M1	2	02	D3	release
461.921	n/a	RESPONSE	M1	2	14	D4	release
462.114	n/a	RESPONSE	M1	2	12	C4	press
462.126	n/a	RESPONSE	M1	2	00	C3	press
462.387	n/a	RESPONSE	M1	2	04	E3	press
462.431	n/a	RESPONSE	M1	2	16	E4	press
462.492	n/a	RESPONSE	M1	2	00	C3	release
462.551	n/a	RESPONSE	M1	2	12	C4	release
462.642	n/a	RESPONSE	M1	2	00	C3	press
462.653	n/a	RESPONSE	M1	2	04	E3	release
462.684	n/a	RESPONSE	M1	2	12	C4	press
462.696	n/a	RESPONSE	M1	2	16	E4	release
463.147	n/a	RESPONSE	M1	2	00	C3	release
463.188	n/a	RESPONSE	M1	2	12	C4	release
464.579	7.758	FIXCROSS	n/a	n/a	n/a	n/a	n/a
472.338	6.317	CUE_LISTEN	M1	1	n/a	n/a	n/a
478.654	7.758	FIXCROSS	n/a	n/a	n/a	n/a	n/a
486.413	6.325	CUE_PLAYBACK_RIGHT_HAND	M1	1	n/a	n/a	n/a
487.256	n/a	RESPONSE	M1	1	19	G4	press
487.667	n/a	RESPONSE	M1	1	19	G4	release
487.708	n/a	RESPONSE	M1	1	16	E4	press
487.939	n/a	RESPONSE	M1	1	16	E4	release
488.181	n/a	RESPONSE	M1	1	16	E4	press
488.622	n/a	RESPONSE	M1	1	17	F4	press
488.696	n/a	RESPONSE	M1	1	16	E4	release
489.064	n/a	RESPONSE	M1	1	14	D4	press
489.152	n/a	RESPONSE	M1	1	17	F4	release
489.254	n/a	RESPONSE	M1	1	14	D4	release
489.538	n/a	RESPONSE	M1	1	14	D4	press
490.003	n/a	RESPONSE	M1	1	12	C4	press
490.139	n/a	RESPONSE	M1	1	14	D4	release
490.219	n/a	RESPONSE	M1	1	16	E4	press
490.334	n/a	RESPONSE	M1	1	12	C4	release
490.462	n/a	RESPONSE	M1	1	19	G4	press
490.493	n/a	RESPONSE	M1	1	16	E4	release
490.951	n/a	RESPONSE	M1	1	19	G4	release
492.738	7.758	FIXCROSS	n/a	n/a	n/a	n/a	n/a
500.496	6.317	CUE_LISTEN	M1	2	n/a	n/a	n/a
506.813	7.758	FIXCROSS	n/a	n/a	n/a	n/a	n/a
514.571	6.317	CUE_PLAYBACK_RIGHT_HAND	M1	2	n/a	n/a	n/a
515.626	n/a	RESPONSE	M1	2	19	G4	press
515.997	n/a	RESPONSE	M1	2	19	G4	release
516.168	n/a	RESPONSE	M1	2	16	E4	press
516.392	n/a	RESPONSE	M1	2	16	E4	release
516.662	n/a	RESPONSE	M1	2	16	E4	press
517.046	n/a	RESPONSE	M1	2	16	E4	release
517.124	n/a	RESPONSE	M1	2	17	F4	press
517.556	n/a	RESPONSE	M1	2	14	D4	press
517.608	n/a	RESPONSE	M1	2	17	F4	release
517.748	n/a	RESPONSE	M1	2	14	D4	release
518.049	n/a	RESPONSE	M1	2	14	D4	press
518.301	n/a	RESPONSE	M1	2	14	D4	release
518.472	n/a	RESPONSE	M1	2	12	C4	press
518.648	n/a	RESPONSE	M1	2	16	E4	press
518.779	n/a	RESPONSE	M1	2	12	C4	release
518.903	n/a	RESPONSE	M1	2	12	C4	press
518.97	n/a	RESPONSE	M1	2	16	E4	release
519.318	n/a	RESPONSE	M1	2	12	C4	release
520.888	7.758	FIXCROSS	n/a	n/a	n/a	n/a	n/a
528.646	6.325	CUE_LISTEN	M1	1	n/a	n/a	n/a
534.971	7.758	FIXCROSS	n/a	n/a	n/a	n/a	n/a
542.729	6.317	CUE_PLAYBACK_BOTH_HANDS	M1	1	n/a	n/a	n/a
543.627	n/a	RESPONSE	M1	1	19	G4	press
543.671	n/a	RESPONSE	M1	1	07	G3	press
543.999	n/a	RESPONSE	M1	1	07	G3	release
544.05	n/a	RESPONSE	M1	1	19	G4	release
544.112	n/a	RESPONSE	M1	1	04	E3	press
544.153	n/a	RESPONSE	M1	1	16	E4	press
544.386	n/a	RESPONSE	M1	1	16	E4	release
544.416	n/a	RESPONSE	M1	1	04	E3	release
544.647	n/a	RESPONSE	M1	1	16	E4	press
544.658	n/a	RESPONSE	M1	1	04	E3	press
544.949	n/a	RESPONSE	M1	1	16	E4	release
544.952	n/a	RESPONSE	M1	1	04	E3	release
545.153	n/a	RESPONSE	M1	1	05	F3	press
545.163	n/a	RESPONSE	M1	1	17	F4	press
545.484	n/a	RESPONSE	M1	1	05	F3	release
545.518	n/a	RESPONSE	M1	1	17	F4	release
545.657	n/a	RESPONSE	M1	1	14	D4	press
545.668	n/a	RESPONSE	M1	1	02	D3	press
545.889	n/a	RESPONSE	M1	1	14	D4	release
545.91	n/a	RESPONSE	M1	1	02	D3	release
546.152	n/a	RESPONSE	M1	1	02	D3	press
546.173	n/a	RESPONSE	M1	1	14	D4	press
546.374	n/a	RESPONSE	M1	1	02	D3	release
546.396	n/a	RESPONSE	M1	1	14	D4	release
546.637	n/a	RESPONSE	M1	1	00	C3	press
546.688	n/a	RESPONSE	M1	1	12	C4	press
546.892	n/a	RESPONSE	M1	1	16	E4	press
546.92	n/a	RESPONSE	M1	1	04	E3	press
547.033	n/a	RESPONSE	M1	1	00	C3	release
547.036	n/a	RESPONSE	M1	1	12	C4	release
547.147	n/a	RESPONSE	M1	1	00	C3	press
547.167	n/a	RESPONSE	M1	1	12	C4	press
547.169	n/a	RESPONSE	M1	1	16	E4	release
547.449	n/a	RESPONSE	M1	1	04	E3	release
547.67	n/a	RESPONSE	M1	1	00	C3	release
547.763	n/a	RESPONSE	M1	1	12	C4	release
548.457	n/a	RESPONSE	M1	1	19	G4	press
548.468	n/a	RESPONSE	M1	1	07	G3	press
548.762	n/a	RESPONSE	M1	1	19	G4	release
548.821	n/a	RESPONSE	M1	1	07	G3	release
549.046	7.758	FIXCROSS	n/a	n/a	n/a	n/a	n/a
556.804	6.317	CUE_LISTEN	M1	2	n/a	n/a	n/a
563.121	7.758	FIXCROSS	n/a	n/a	n/a	n/a	n/a
570.879	6.325	CUE_PLAYBACK_BOTH_HANDS	M1	2	n/a	n/a	n/a
571.657	n/a	RESPONSE	M1	2	19	G4	press
571.674	n/a	RESPONSE	M1	2	07	G3	press
572.052	n/a	RESPONSE	M1	2	19	G4	release
572.066	n/a	RESPONSE	M1	2	07	G3	release
572.167	n/a	RESPONSE	M1	2	04	E3	press
572.186	n/a	RESPONSE	M1	2	16	E4	press
572.407	n/a	RESPONSE	M1	2	16	E4	release
572.468	n/a	RESPONSE	M1	2	04	E3	release
572.669	n/a	RESPONSE	M1	2	04	E3	press
572.71	n/a	RESPONSE	M1	2	16	E4	press
572.922	n/a	RESPONSE	M1	2	16	E4	release
573.013	n/a	RESPONSE	M1	2	04	E3	release
573.184	n/a	RESPONSE	M1	2	05	F3	press
573.218	n/a	RESPONSE	M1	2	17	F4	press
573.498	n/a	RESPONSE	M1	2	05	F3	release
573.538	n/a	RESPONSE	M1	2	17	F4	release
573.689	n/a	RESPONSE	M1	2	14	D4	press
573.7	n/a	RESPONSE	M1	2	02	D3	press
573.902	n/a	RESPONSE	M1	2	14	D4	release
573.933	n/a	RESPONSE	M1	2	02	D3	release
574.147	n/a	RESPONSE	M1	2	02	D3	press
574.176	n/a	RESPONSE	M1	2	14	D4	press
574.407	n/a	RESPONSE	M1	2	02	D3	release
574.41	n/a	RESPONSE	M1	2	14	D4	release
574.652	n/a	RESPONSE	M1	2	00	C3	press
574.71	n/a	RESPONSE	M1	2	12	C4	press
574.932	n/a	RESPONSE	M1	2	04	E3	press
574.943	n/a	RESPONSE	M1	2	16	E4	press
575.034	n/a	RESPONSE	M1	2	00	C3	release
575.046	n/a	RESPONSE	M1	2	12	C4	release
575.157	n/a	RESPONSE	M1	2	00	C3	press
575.19	n/a	RESPONSE	M1	2	04	E3	release
575.219	n/a	RESPONSE	M1	2	12	C4	press
575.23	n/a	RESPONSE	M1	2	16	E4	release
575.694	n/a	RESPONSE	M1	2	12	C4	release
575.743	n/a	RESPONSE	M1	2	00	C3	release
577.204	7.758	FIXCROSS	n/a	n/a	n/a	n/a	n/a
584.963	6.317	CUE_LISTEN	M1	1	n/a	n/a	n/a
591.279	7.758	FIXCROSS	n/a	n/a	n/a	n/a	n/a
599.038	6.325	CUE_PLAYBACK_RIGHT_HAND	M1	1	n/a	n/a	n/a
599.867	n/a	RESPONSE	M1	1	19	G4	press
600.268	n/a	RESPONSE	M1	1	19	G4	release
600.352	n/a	RESPONSE	M1	1	16	E4	press
600.583	n/a	RESPONSE	M1	1	16	E4	release
600.84	n/a	RESPONSE	M1	1	16	E4	press
601.149	n/a	RESPONSE	M1	1	16	E4	release
601.312	n/a	RESPONSE	M1	1	17	F4	press
601.654	n/a	RESPONSE	M1	1	17	F4	release
601.793	n/a	RESPONSE	M1	1	14	D4	press
602.007	n/a	RESPONSE	M1	1	14	D4	release
602.288	n/a	RESPONSE	M1	1	14	D4	press
602.522	n/a	RESPONSE	M1	1	14	D4	release
602.742	n/a	RESPONSE	M1	1	12	C4	press
602.992	n/a	RESPONSE	M1	1	16	E4	press
603.183	n/a	RESPONSE	M1	1	12	C4	release
603.244	n/a	RESPONSE	M1	1	19	G4	press
603.296	n/a	RESPONSE	M1	1	16	E4	release
603.527	n/a	RESPONSE	M1	1	19	G4	release
605.363	7.759	FIXCROSS	n/a	n/a	n/a	n/a	n/a
613.121	6.317	CUE_LISTEN	M1	2	n/a	n/a	n/a
619.438	7.758	FIXCROSS	n/a	n/a	n/a	n/a	n/a
627.196	6.317	CUE_PLAYBACK_RIGHT_HAND	M1	2	n/a	n/a	n/a
628.122	n/a	RESPONSE	M1	2	19	G4	press
628.528	n/a	RESPONSE	M1	2	19	G4	release
628.627	n/a	RESPONSE	M1	2	16	E4	press
628.902	n/a	RESPONSE	M1	2	16	E4	release
629.16	n/a	RESPONSE	M1	2	16	E4	press
629.479	n/a	RESPONSE	M1	2	16	E4	release
629.677	n/a	RESPONSE	M1	2	17	F4	press
630.064	n/a	RESPONSE	M1	2	17	F4	release
630.142	n/a	RESPONSE	M1	2	14	D4	press
630.349	n/a	RESPONSE	M1	2	14	D4	release
630.67	n/a	RESPONSE	M1	2	14	D4	press
630.968	n/a	RESPONSE	M1	2	14	D4	release
631.132	n/a	RESPONSE	M1	2	12	C4	press
631.38	n/a	RESPONSE	M1	2	16	E4	press
631.462	n/a	RESPONSE	M1	2	12	C4	release
631.683	n/a	RESPONSE	M1	2	12	C4	press
631.739	n/a	RESPONSE	M1	2	16	E4	release
632.208	n/a	RESPONSE	M1	2	12	C4	release
633.513	7.767	FIXCROSS	n/a	n/a	n/a	n/a	n/a
641.28	6.317	CUE_LISTEN	M1	1	n/a	n/a	n/a
647.596	7.758	FIXCROSS	n/a	n/a	n/a	n/a	n/a
648.766	n/a	RESPONSE	M1	1	19	G4	press
648.768	n/a	RESPONSE	M1	1	07	G3	press
649.149	n/a	RESPONSE	M1	1	07	G3	release
649.173	n/a	RESPONSE	M1	1	19	G4	release
649.277	n/a	RESPONSE	M1	1	04	E3	press
649.288	n/a	RESPONSE	M1	1	16	E4	press
649.545	n/a	RESPONSE	M1	1	16	E4	release
649.632	n/a	RESPONSE	M1	1	04	E3	release
655.354	6.317	CUE_PLAYBACK_BOTH_HANDS	M1	1	n/a	n/a	n/a
656.415	n/a	RESPONSE	M1	1	19	G4	press
656.418	n/a	RESPONSE	M1	1	07	G3	press
656.768	n/a	RESPONSE	M1	1	07	G3	release
656.822	n/a	RESPONSE	M1	1	19	G4	release
656.93	n/a	RESPONSE	M1	1	04	E3	press
656.942	n/a	RESPONSE	M1	1	16	E4	press
657.184	n/a	RESPONSE	M1	1	16	E4	release
657.205	n/a	RESPONSE	M1	1	04	E3	release
657.437	n/a	RESPONSE	M1	1	04	E3	press
657.459	n/a	RESPONSE	M1	1	16	E4	press
657.699	n/a	RESPONSE	M1	1	16	E4	release
657.75	n/a	RESPONSE	M1	1	04	E3	release
657.972	n/a	RESPONSE	M1	1	05	F3	press
657.993	n/a	RESPONSE	M1	1	17	F4	press
658.257	n/a	RESPONSE	M1	1	05	F3	release
658.298	n/a	RESPONSE	M1	1	17	F4	release
658.467	n/a	RESPONSE	M1	1	14	D4	press
658.469	n/a	RESPONSE	M1	1	02	D3	press
658.684	n/a	RESPONSE	M1	1	14	D4	release
658.703	n/a	RESPONSE	M1	1	02	D3	release
658.967	n/a	RESPONSE	M1	1	02	D3	press
658.989	n/a	RESPONSE	M1	1	14	D4	press
659.21	n/a	RESPONSE	M1	1	02	D3	release
659.224	n/a	RESPONSE	M1	1	14	D4	release
659.465	n/a	RESPONSE	M1	1	00	C3	press
659.487	n/a	RESPONSE	M1	1	12	C4	press
659.767	n/a	RESPONSE	M1	1	16	E4	press
659.77	n/a	RESPONSE	M1	1	04	E3	press
659.8	n/a	RESPONSE	M1	1	12	C4	release
659.875	n/a	RESPONSE	M1	1	00	C3	release
660.055	n/a	RESPONSE	M1	1	07	G3	press
660.07	n/a	RESPONSE	M1	1	19	G4	press
660.117	n/a	RESPONSE	M1	1	16	E4	release
660.123	n/a	RESPONSE	M1	1	04	E3	release
660.549	n/a	RESPONSE	M1	1	07	G3	release
660.612	n/a	RESPONSE	M1	1	19	G4	release
661.671	7.758	FIXCROSS	n/a	n/a	n/a	n/a	n/a
667.628	n/a	RESPONSE	M1	1	04	E3	press
668.802	n/a	RESPONSE	M1	1	04	E3	release
669.43	6.317	CUE_LISTEN	M1	2	n/a	n/a	n/a
675.746	7.758	FIXCROSS	n/a	n/a	n/a	n/a	n/a
683.505	6.325	CUE_PLAYBACK_BOTH_HANDS	M1	2	n/a	n/a	n/a
684.387	n/a	RESPONSE	M1	2	19	G4	press
684.408	n/a	RESPONSE	M1	2	07	G3	press
684.792	n/a	RESPONSE	M1	2	07	G3	release
684.8	n/a	RESPONSE	M1	2	19	G4	release
684.952	n/a	RESPONSE	M1	2	04	E3	press
684.954	n/a	RESPONSE	M1	2	16	E4	press
685.204	n/a	RESPONSE	M1	2	16	E4	release
685.255	n/a	RESPONSE	M1	2	04	E3	release
685.477	n/a	RESPONSE	M1	2	04	E3	press
685.498	n/a	RESPONSE	M1	2	16	E4	press
685.789	n/a	RESPONSE	M1	2	04	E3	release
685.8	n/a	RESPONSE	M1	2	16	E4	release
686.012	n/a	RESPONSE	M1	2	05	F3	press
686.014	n/a	RESPONSE	M1	2	17	F4	press
686.315	n/a	RESPONSE	M1	2	05	F3	release
686.395	n/a	RESPONSE	M1	2	17	F4	release
686.557	n/a	RESPONSE	M1	2	02	D3	press
686.578	n/a	RESPONSE	M1	2	14	D4	press
686.769	n/a	RESPONSE	M1	2	14	D4	release
686.79	n/a	RESPONSE	M1	2	02	D3	release
687.054	n/a	RESPONSE	M1	2	02	D3	press
687.084	n/a	RESPONSE	M1	2	14	D4	press
687.295	n/a	RESPONSE	M1	2	02	D3	release
687.327	n/a	RESPONSE	M1	2	14	D4	release
687.638	n/a	RESPONSE	M1	2	12	C4	press
687.64	n/a	RESPONSE	M1	2	00	C3	press
687.88	n/a	RESPONSE	M1	2	04	E3	press
687.902	n/a	RESPONSE	M1	2	16	E4	press
687.983	n/a	RESPONSE	M1	2	00	C3	release
688.004	n/a	RESPONSE	M1	2	12	C4	release
688.115	n/a	RESPONSE	M1	2	00	C3	press
688.127	n/a	RESPONSE	M1	2	04	E3	release
688.158	n/a	RESPONSE	M1	2	12	C4	press
688.179	n/a	RESPONSE	M1	2	16	E4	release
688.567	n/a	RESPONSE	M1	2	00	C3	release
688.594	n/a	RESPONSE	M1	2	12	C4	release
689.83	7.758	FIXCROSS	n/a	n/a	n/a	n/a	n/a
697.588	6.317	CUE_LISTEN	M1	1	n/a	n/a	n/a
703.904	7.759	FIXCROSS	n/a	n/a	n/a	n/a	n/a
711.663	6.317	CUE_PLAYBACK_RIGHT_HAND	M1	1	n/a	n/a	n/a
712.569	n/a	RESPONSE	M1	1	19	G4	press
713.05	n/a	RESPONSE	M1	1	16	E4	press
713.054	n/a	RESPONSE	M1	1	19	G4	release
713.273	n/a	RESPONSE	M1	1	16	E4	release
713.554	n/a	RESPONSE	M1	1	16	E4	press
713.885	n/a	RESPONSE	M1	1	16	E4	release
714.059	n/a	RESPONSE	M1	1	17	F4	press
714.438	n/a	RESPONSE	M1	1	14	D4	press
714.469	n/a	RESPONSE	M1	1	17	F4	release
714.64	n/a	RESPONSE	M1	1	14	D4	release
714.972	n/a	RESPONSE	M1	1	14	D4	press
715.333	n/a	RESPONSE	M1	1	14	D4	release
715.484	n/a	RESPONSE	M1	1	12	C4	press
715.725	n/a	RESPONSE	M1	1	16	E4	press
715.858	n/a	RESPONSE	M1	1	12	C4	release
715.998	n/a	RESPONSE	M1	1	19	G4	press
716.06	n/a	RESPONSE	M1	1	16	E4	release
716.443	n/a	RESPONSE	M1	1	19	G4	release
717.98	7.758	FIXCROSS	n/a	n/a	n/a	n/a	n/a
725.738	6.325	CUE_LISTEN	M1	2	n/a	n/a	n/a
732.063	7.758	FIXCROSS	n/a	n/a	n/a	n/a	n/a
739.821	6.317	CUE_PLAYBACK_RIGHT_HAND	M1	2	n/a	n/a	n/a
740.753	n/a	RESPONSE	M1	2	19	G4	press
741.18	n/a	RESPONSE	M1	2	19	G4	release
741.285	n/a	RESPONSE	M1	2	16	E4	press
741.518	n/a	RESPONSE	M1	2	16	E4	release
741.809	n/a	RESPONSE	M1	2	16	E4	press
742.055	n/a	RESPONSE	M1	2	16	E4	release
742.307	n/a	RESPONSE	M1	2	17	F4	press
742.598	n/a	RESPONSE	M1	2	17	F4	release
742.82	n/a	RESPONSE	M1	2	14	D4	press
743.02	n/a	RESPONSE	M1	2	14	D4	release
743.362	n/a	RESPONSE	M1	2	14	D4	press
743.653	n/a	RESPONSE	M1	2	14	D4	release
743.944	n/a	RESPONSE	M1	2	12	C4	press
744.225	n/a	RESPONSE	M1	2	16	E4	press
744.239	n/a	RESPONSE	M1	2	12	C4	release
744.5	n/a	RESPONSE	M1	2	16	E4	release
744.569	n/a	RESPONSE	M1	2	12	C4	press
745.31	n/a	RESPONSE	M1	2	12	C4	release
746.138	7.758	FIXCROSS	n/a	n/a	n/a	n/a	n/a
753.896	6.317	CUE_LISTEN	M1	1	n/a	n/a	n/a
760.213	7.758	FIXCROSS	n/a	n/a	n/a	n/a	n/a
767.971	6.325	CUE_PLAYBACK_BOTH_HANDS	M1	1	n/a	n/a	n/a
769.018	n/a	RESPONSE	M1	1	19	G4	press
769.042	n/a	RESPONSE	M1	1	07	G3	press
769.44	n/a	RESPONSE	M1	1	07	G3	release
769.474	n/a	RESPONSE	M1	1	19	G4	release
769.605	n/a	RESPONSE	M1	1	04	E3	press
769.61	n/a	RESPONSE	M1	1	16	E4	press
769.86	n/a	RESPONSE	M1	1	16	E4	release
769.927	n/a	RESPONSE	M1	1	04	E3	release
770.162	n/a	RESPONSE	M1	1	04	E3	press
770.179	n/a	RESPONSE	M1	1	16	E4	press
770.485	n/a	RESPONSE	M1	1	16	E4	release
770.51	n/a	RESPONSE	M1	1	04	E3	release
770.743	n/a	RESPONSE	M1	1	05	F3	press
770.747	n/a	RESPONSE	M1	1	17	F4	press
771.048	n/a	RESPONSE	M1	1	05	F3	release
771.114	n/a	RESPONSE	M1	1	17	F4	release
771.315	n/a	RESPONSE	M1	1	14	D4	press
771.324	n/a	RESPONSE	M1	1	02	D3	press
771.523	n/a	RESPONSE	M1	1	14	D4	release
771.558	n/a	RESPONSE	M1	1	02	D3	release
771.848	n/a	RESPONSE	M1	1	02	D3	press
771.889	n/a	RESPONSE	M1	1	14	D4	press
772.098	n/a	RESPONSE	M1	1	02	D3	release
772.149	n/a	RESPONSE	M1	1	14	D4	release
772.42	n/a	RESPONSE	M1	1	00	C3	press
772.443	n/a	RESPONSE	M1	1	12	C4	press
772.703	n/a	RESPONSE	M1	1	04	E3	press
772.714	n/a	RESPONSE	M1	1	16	E4	press
772.777	n/a	RESPONSE	M1	1	00	C3	release
772.827	n/a	RESPONSE	M1	1	12	C4	release
772.998	n/a	RESPONSE	M1	1	07	G3	press
773.0	n/a	RESPONSE	M1	1	19	G4	press
773.003	n/a	RESPONSE	M1	1	16	E4	release
773.042	n/a	RESPONSE	M1	1	04	E3	release
773.533	n/a	RESPONSE	M1	1	19	G4	release
773.537	n/a	RESPONSE	M1	1	07	G3	release
774.296	7.758	FIXCROSS	n/a	n/a	n/a	n/a	n/a
782.055	6.317	CUE_LISTEN	M1	2	n/a	n/a	n/a
788.371	7.758	FIXCROSS	n/a	n/a	n/a	n/a	n/a
796.13	6.325	CUE_PLAYBACK_BOTH_HANDS	M1	2	n/a	n/a	n/a
797.08	n/a	RESPONSE	M1	2	07	G3	press
797.089	n/a	RESPONSE	M1	2	19	G4	press
797.47	n/a	RESPONSE	M1	2	19	G4	release
797.492	n/a	RESPONSE	M1	2	07	G3	release
797.593	n/a	RESPONSE	M1	2	04	E3	press
797.596	n/a	RESPONSE	M1	2	16	E4	press
797.838	n/a	RESPONSE	M1	2	16	E4	release
797.877	n/a	RESPONSE	M1	2	04	E3	release
798.098	n/a	RESPONSE	M1	2	04	E3	press
798.119	n/a	RESPONSE	M1	2	16	E4	press
798.36	n/a	RESPONSE	M1	2	16	E4	release
798.407	n/a	RESPONSE	M1	2	04	E3	release
798.588	n/a	RESPONSE	M1	2	05	F3	press
798.599	n/a	RESPONSE	M1	2	17	F4	press
798.843	n/a	RESPONSE	M1	2	05	F3	release
798.895	n/a	RESPONSE	M1	2	17	F4	release
799.085	n/a	RESPONSE	M1	2	02	D3	press
799.099	n/a	RESPONSE	M1	2	14	D4	press
799.28	n/a	RESPONSE	M1	2	14	D4	release
799.302	n/a	RESPONSE	M1	2	02	D3	release
799.583	n/a	RESPONSE	M1	2	02	D3	press
799.609	n/a	RESPONSE	M1	2	14	D4	press
799.79	n/a	RESPONSE	M1	2	02	D3	release
799.819	n/a	RESPONSE	M1	2	14	D4	release
800.095	n/a	RESPONSE	M1	2	00	C3	press
800.139	n/a	RESPONSE	M1	2	12	C4	press
800.343	n/a	RESPONSE	M1	2	04	E3	press
800.365	n/a	RESPONSE	M1	2	16	E4	press
800.41	n/a	RESPONSE	M1	2	12	C4	release
800.413	n/a	RESPONSE	M1	2	00	C3	release
800.54	n/a	RESPONSE	M1	2	00	C3	press
800.557	n/a	RESPONSE	M1	2	04	E3	release
800.599	n/a	RESPONSE	M1	2	12	C4	press
800.616	n/a	RESPONSE	M1	2	16	E4	release
800.872	n/a	RESPONSE	M1	2	12	C4	release
800.91	n/a	RESPONSE	M1	2	00	C3	release
802.455	7.758	FIXCROSS	n/a	n/a	n/a	n/a	n/a
810.213	6.317	CUE_LISTEN	M1	1	n/a	n/a	n/a
816.53	7.758	FIXCROSS	n/a	n/a	n/a	n/a	n/a
824.288	6.317	CUE_PLAYBACK_RIGHT_HAND	M1	1	n/a	n/a	n/a
825.148	n/a	RESPONSE	M1	1	19	G4	press
825.548	n/a	RESPONSE	M1	1	19	G4	release
825.639	n/a	RESPONSE	M1	1	16	E4	press
825.91	n/a	RESPONSE	M1	1	16	E4	release
826.152	n/a	RESPONSE	M1	1	16	E4	press
826.413	n/a	RESPONSE	M1	1	16	E4	release
826.634	n/a	RESPONSE	M1	1	17	F4	press
826.957	n/a	RESPONSE	M1	1	17	F4	release
827.088	n/a	RESPONSE	M1	1	14	D4	press
827.299	n/a	RESPONSE	M1	1	14	D4	release
827.6	n/a	RESPONSE	M1	1	14	D4	press
827.792	n/a	RESPONSE	M1	1	14	D4	release
828.083	n/a	RESPONSE	M1	1	12	C4	press
828.324	n/a	RESPONSE	M1	1	16	E4	press
828.383	n/a	RESPONSE	M1	1	12	C4	release
828.555	n/a	RESPONSE	M1	1	19	G4	press
828.602	n/a	RESPONSE	M1	1	16	E4	release
828.87	n/a	RESPONSE	M1	1	19	G4	release
830.605	7.758	FIXCROSS	n/a	n/a	n/a	n/a	n/a
838.363	6.325	CUE_LISTEN	M1	2	n/a	n/a	n/a
844.688	7.758	FIXCROSS	n/a	n/a	n/a	n/a	n/a
852.446	6.317	CUE_PLAYBACK_RIGHT_HAND	M1	2	n/a	n/a	n/a
853.439	n/a	RESPONSE	M1	2	19	G4	press
853.85	n/a	RESPONSE	M1	2	19	G4	release
853.952	n/a	RESPONSE	M1	2	16	E4	press
854.223	n/a	RESPONSE	M1	2	16	E4	release
854.464	n/a	RESPONSE	M1	2	16	E4	press
854.775	n/a	RESPONSE	M1	2	16	E4	release
854.948	n/a	RESPONSE	M1	2	17	F4	press
855.328	n/a	RESPONSE	M1	2	17	F4	release
855.42	n/a	RESPONSE	M1	2	14	D4	press
855.65	n/a	RESPONSE	M1	2	14	D4	release
855.932	n/a	RESPONSE	M1	2	14	D4	press
856.183	n/a	RESPONSE	M1	2	14	D4	release
856.434	n/a	RESPONSE	M1	2	12	C4	press
856.655	n/a	RESPONSE	M1	2	16	E4	press
856.688	n/a	RESPONSE	M1	2	12	C4	release
856.91	n/a	RESPONSE	M1	2	12	C4	press
856.93	n/a	RESPONSE	M1	2	16	E4	release
857.253	n/a	RESPONSE	M1	2	12	C4	release
858.763	7.758	FIXCROSS	n/a	n/a	n/a	n/a	n/a
866.522	6.317	CUE_LISTEN	M1	1	n/a	n/a	n/a
872.838	7.758	FIXCROSS	n/a	n/a	n/a	n/a	n/a
880.596	6.325	CUE_PLAYBACK_BOTH_HANDS	M1	1	n/a	n/a	n/a
881.81	n/a	RESPONSE	M1	1	19	G4	press
881.813	n/a	RESPONSE	M1	1	07	G3	press
882.244	n/a	RESPONSE	M1	1	07	G3	release
882.305	n/a	RESPONSE	M1	1	19	G4	release
882.358	n/a	RESPONSE	M1	1	04	E3	press
882.378	n/a	RESPONSE	M1	1	16	E4	press
882.599	n/a	RESPONSE	M1	1	16	E4	release
882.651	n/a	RESPONSE	M1	1	04	E3	release
882.892	n/a	RESPONSE	M1	1	04	E3	press
882.894	n/a	RESPONSE	M1	1	16	E4	press
883.134	n/a	RESPONSE	M1	1	16	E4	release
883.186	n/a	RESPONSE	M1	1	04	E3	release
883.386	n/a	RESPONSE	M1	1	05	F3	press
883.389	n/a	RESPONSE	M1	1	17	F4	press
883.689	n/a	RESPONSE	M1	1	17	F4	release
883.7	n/a	RESPONSE	M1	1	05	F3	release
883.911	n/a	RESPONSE	M1	1	02	D3	press
883.943	n/a	RESPONSE	M1	1	14	D4	press
884.104	n/a	RESPONSE	M1	1	14	D4	release
884.138	n/a	RESPONSE	M1	1	02	D3	release
884.436	n/a	RESPONSE	M1	1	02	D3	press
884.44	n/a	RESPONSE	M1	1	14	D4	press
884.649	n/a	RESPONSE	M1	1	02	D3	release
884.67	n/a	RESPONSE	M1	1	14	D4	release
884.944	n/a	RESPONSE	M1	1	00	C3	press
884.973	n/a	RESPONSE	M1	1	12	C4	press
885.194	n/a	RESPONSE	M1	1	04	E3	press
885.225	n/a	RESPONSE	M1	1	16	E4	press
885.288	n/a	RESPONSE	M1	1	00	C3	release
885.298	n/a	RESPONSE	M1	1	12	C4	release
885.449	n/a	RESPONSE	M1	1	07	G3	press
885.452	n/a	RESPONSE	M1	1	19	G4	press
885.454	n/a	RESPONSE	M1	1	16	E4	release
885.493	n/a	RESPONSE	M1	1	04	E3	release
885.695	n/a	RESPONSE	M1	1	19	G4	release
885.758	n/a	RESPONSE	M1	1	07	G3	release
886.922	7.758	FIXCROSS	n/a	n/a	n/a	n/a	n/a
894.68	6.325	CUE_LISTEN	M1	2	n/a	n/a	n/a
901.005	7.758	FIXCROSS	n/a	n/a	n/a	n/a	n/a
908.763	44.822	CUE_PLAYBACK_BOTH_HANDS	M1	2	n/a	n/a	n/a
910.042	n/a	RESPONSE	M1	2	07	G3	press
910.06	n/a	RESPONSE	M1	2	19	G4	press
910.085	n/a	RESPONSE	M1	2	17	F4	press
910.336	n/a	RESPONSE	M1	2	17	F4	release
910.425	n/a	RESPONSE	M1	2	07	G3	release
910.428	n/a	RESPONSE	M1	2	19	G4	release
910.622	n/a	RESPONSE	M1	2	16	E4	press
910.624	n/a	RESPONSE	M1	2	04	E3	press
910.864	n/a	RESPONSE	M1	2	16	E4	release
911.154	n/a	RESPONSE	M1	2	16	E4	press
911.431	n/a	RESPONSE	M1	2	04	E3	release
911.445	n/a	RESPONSE	M1	2	16	E4	release
911.67	n/a	RESPONSE	M1	2	17	F4	press
911.673	n/a	RESPONSE	M1	2	05	F3	press
911.998	n/a	RESPONSE	M1	2	05	F3	release
912.019	n/a	RESPONSE	M1	2	17	F4	release
912.18	n/a	RESPONSE	M1	2	14	D4	press
912.183	n/a	RESPONSE	M1	2	02	D3	press
912.443	n/a	RESPONSE	M1	2	02	D3	release
912.454	n/a	RESPONSE	M1	2	14	D4	release
912.735	n/a	RESPONSE	M1	2	02	D3	press
912.746	n/a	RESPONSE	M1	2	14	D4	press
912.958	n/a	RESPONSE	M1	2	02	D3	release
913.03	n/a	RESPONSE	M1	2	14	D4	release
913.258	n/a	FIXCROSS	n/a	n/a	n/a	n/a	n/a
913.28	n/a	RESPONSE	M1	2	00	C3	press
913.294	n/a	RESPONSE	M1	2	12	C4	press
913.535	n/a	RESPONSE	M1	2	04	E3	press
913.546	n/a	RESPONSE	M1	2	16	E4	press
913.605	n/a	RESPONSE	M1	2	00	C3	release
913.608	n/a	RESPONSE	M1	2	12	C4	release
913.788	n/a	RESPONSE	M1	2	04	E3	release
913.819	n/a	RESPONSE	M1	2	00	C3	press
913.86	n/a	RESPONSE	M1	2	12	C4	press
913.863	n/a	RESPONSE	M1	2	16	E4	release
914.353	n/a	RESPONSE	M1	2	00	C3	release
914.426	n/a	RESPONSE	M1	2	12	C4	release
