onset	duration	condition	trial_type	braille_stimulus	response_val	response_type
2.017	2.008	LEXICAL_DECISION	CUE	n/a	n/a	n/a
7.017	1.008	LEXICAL_DECISION	FIXCROSS	n/a	n/a	n/a
8.033	5.008	LEXICAL_DECISION	PSEUDOWORD	TOSY	n/a	n/a
11.309	n/a	LEXICAL_DECISION	RESPONSE	n/a	YES	FALSE_ALARM
15.066	1.009	LEXICAL_DECISION	FIXCROSS	n/a	n/a	n/a
16.083	5.008	LEXICAL_DECISION	WORD	TYMI	n/a	n/a
18.949	n/a	LEXICAL_DECISION	RESPONSE	n/a	NO	MISS
23.117	1.008	LEXICAL_DECISION	FIXCROSS	n/a	n/a	n/a
24.133	5.008	LEXICAL_DECISION	WORD	SPIS	n/a	n/a
27.071	n/a	LEXICAL_DECISION	RESPONSE	n/a	NO	MISS
31.166	1.009	LEXICAL_DECISION	FIXCROSS	n/a	n/a	n/a
32.183	5.008	LEXICAL_DECISION	PSEUDOWORD	DAPIE	n/a	n/a
34.675	n/a	LEXICAL_DECISION	RESPONSE	n/a	YES	FALSE_ALARM
39.217	1.008	LEXICAL_DECISION	FIXCROSS	n/a	n/a	n/a
40.233	5.008	LEXICAL_DECISION	WORD	MIAŁ	n/a	n/a
42.841	n/a	LEXICAL_DECISION	RESPONSE	n/a	YES	HIT
49.275	2.008	6_DOT_DETECTION	CUE	n/a	n/a	n/a
54.275	1.008	6_DOT_DETECTION	FIXCROSS	n/a	n/a	n/a
55.292	5.008	6_DOT_DETECTION	NO_6-DOT	BDMTŁ	n/a	n/a
59.154	n/a	6_DOT_DETECTION	RESPONSE	n/a	NO	CORRECT_REJECTION
62.324	1.009	6_DOT_DETECTION	FIXCROSS	n/a	n/a	n/a
63.342	5.008	6_DOT_DETECTION	NO_6-DOT	BCŁI	n/a	n/a
66.184	n/a	6_DOT_DETECTION	RESPONSE	n/a	NO	CORRECT_REJECTION
70.375	1.008	6_DOT_DETECTION	FIXCROSS	n/a	n/a	n/a
71.392	5.008	6_DOT_DETECTION	6-DOT	#KCD#	n/a	n/a
74.161	n/a	6_DOT_DETECTION	RESPONSE	n/a	YES	HIT
78.425	1.008	6_DOT_DETECTION	FIXCROSS	n/a	n/a	n/a
79.442	5.008	6_DOT_DETECTION	6-DOT	D#E#L	n/a	n/a
82.596	n/a	6_DOT_DETECTION	RESPONSE	n/a	YES	HIT
86.475	1.008	6_DOT_DETECTION	FIXCROSS	n/a	n/a	n/a
87.492	5.008	6_DOT_DETECTION	NO_6-DOT	YMTKO	n/a	n/a
92.355	n/a	6_DOT_DETECTION	RESPONSE	n/a	YES	FALSE_ALARM
95.534	2.008	LEXICAL_DECISION	CUE	n/a	n/a	n/a
100.534	1.008	LEXICAL_DECISION	FIXCROSS	n/a	n/a	n/a
101.55	5.008	LEXICAL_DECISION	PSEUDOWORD	TYBE	n/a	n/a
105.077	n/a	LEXICAL_DECISION	RESPONSE	n/a	NO	CORRECT_REJECTION
108.584	1.008	LEXICAL_DECISION	FIXCROSS	n/a	n/a	n/a
109.6	5.008	LEXICAL_DECISION	PSEUDOWORD	LIET	n/a	n/a
113.686	n/a	LEXICAL_DECISION	RESPONSE	n/a	YES	FALSE_ALARM
116.634	1.008	LEXICAL_DECISION	FIXCROSS	n/a	n/a	n/a
117.65	5.008	LEXICAL_DECISION	PSEUDOWORD	ALTUM	n/a	n/a
121.341	n/a	LEXICAL_DECISION	RESPONSE	n/a	YES	FALSE_ALARM
124.683	1.008	LEXICAL_DECISION	FIXCROSS	n/a	n/a	n/a
125.7	5.008	LEXICAL_DECISION	WORD	SŁUP	n/a	n/a
129.512	n/a	LEXICAL_DECISION	RESPONSE	n/a	YES	HIT
132.734	1.008	LEXICAL_DECISION	FIXCROSS	n/a	n/a	n/a
133.75	5.008	LEXICAL_DECISION	WORD	KIT	n/a	n/a
136.231	n/a	LEXICAL_DECISION	RESPONSE	n/a	NO	MISS
142.292	2.008	6_DOT_DETECTION	CUE	n/a	n/a	n/a
146.792	1.008	6_DOT_DETECTION	FIXCROSS	n/a	n/a	n/a
147.809	5.008	6_DOT_DETECTION	6-DOT	#IML#	n/a	n/a
151.424	n/a	6_DOT_DETECTION	RESPONSE	n/a	YES	HIT
154.842	1.008	6_DOT_DETECTION	FIXCROSS	n/a	n/a	n/a
155.859	5.008	6_DOT_DETECTION	NO_6-DOT	BLPAK	n/a	n/a
159.287	n/a	6_DOT_DETECTION	RESPONSE	n/a	NO	CORRECT_REJECTION
162.891	1.009	6_DOT_DETECTION	FIXCROSS	n/a	n/a	n/a
163.909	5.008	6_DOT_DETECTION	6-DOT	LT##	n/a	n/a
166.691	n/a	6_DOT_DETECTION	RESPONSE	n/a	YES	HIT
170.942	1.008	6_DOT_DETECTION	FIXCROSS	n/a	n/a	n/a
171.959	5.008	6_DOT_DETECTION	NO_6-DOT	TCBYK	n/a	n/a
175.374	n/a	6_DOT_DETECTION	RESPONSE	n/a	NO	CORRECT_REJECTION
178.992	1.008	6_DOT_DETECTION	FIXCROSS	n/a	n/a	n/a
180.009	5.008	6_DOT_DETECTION	NO_6-DOT	KDB	n/a	n/a
182.717	n/a	6_DOT_DETECTION	RESPONSE	n/a	NO	CORRECT_REJECTION
188.55	2.008	LEXICAL_DECISION	CUE	n/a	n/a	n/a
195.05	1.008	LEXICAL_DECISION	FIXCROSS	n/a	n/a	n/a
196.067	5.009	LEXICAL_DECISION	WORD	TEMU	n/a	n/a
199.342	n/a	LEXICAL_DECISION	RESPONSE	n/a	YES	HIT
203.1	1.009	LEXICAL_DECISION	FIXCROSS	n/a	n/a	n/a
204.117	5.008	LEXICAL_DECISION	PSEUDOWORD	DET	n/a	n/a
206.887	n/a	LEXICAL_DECISION	RESPONSE	n/a	NO	CORRECT_REJECTION
211.15	1.008	LEXICAL_DECISION	FIXCROSS	n/a	n/a	n/a
212.167	5.008	LEXICAL_DECISION	WORD	SKOK	n/a	n/a
215.56	n/a	LEXICAL_DECISION	RESPONSE	n/a	YES	HIT
219.2	1.008	LEXICAL_DECISION	FIXCROSS	n/a	n/a	n/a
220.217	5.008	LEXICAL_DECISION	WORD	UKŁAD	n/a	n/a
223.699	n/a	LEXICAL_DECISION	RESPONSE	n/a	YES	HIT
227.25	1.008	LEXICAL_DECISION	FIXCROSS	n/a	n/a	n/a
228.267	5.008	LEXICAL_DECISION	WORD	METKA	n/a	n/a
231.641	n/a	LEXICAL_DECISION	RESPONSE	n/a	NO	MISS
236.809	2.008	6_DOT_DETECTION	CUE	n/a	n/a	n/a
242.309	1.008	6_DOT_DETECTION	FIXCROSS	n/a	n/a	n/a
243.326	5.008	6_DOT_DETECTION	6-DOT	#AL#K	n/a	n/a
246.961	n/a	6_DOT_DETECTION	RESPONSE	n/a	YES	HIT
250.359	1.008	6_DOT_DETECTION	FIXCROSS	n/a	n/a	n/a
251.376	5.008	6_DOT_DETECTION	NO_6-DOT	AYDL	n/a	n/a
255.085	n/a	6_DOT_DETECTION	RESPONSE	n/a	YES	FALSE_ALARM
258.409	1.008	6_DOT_DETECTION	FIXCROSS	n/a	n/a	n/a
259.426	5.008	6_DOT_DETECTION	6-DOT	##ŁK	n/a	n/a
262.424	n/a	6_DOT_DETECTION	RESPONSE	n/a	YES	HIT
266.459	1.008	6_DOT_DETECTION	FIXCROSS	n/a	n/a	n/a
267.476	5.008	6_DOT_DETECTION	6-DOT	E#T#	n/a	n/a
271.021	n/a	6_DOT_DETECTION	RESPONSE	n/a	YES	HIT
274.509	1.008	6_DOT_DETECTION	FIXCROSS	n/a	n/a	n/a
275.526	5.008	6_DOT_DETECTION	NO_6-DOT	CPK	n/a	n/a
278.425	n/a	6_DOT_DETECTION	RESPONSE	n/a	NO	CORRECT_REJECTION
284.567	2.008	LEXICAL_DECISION	CUE	n/a	n/a	n/a
290.567	1.008	LEXICAL_DECISION	FIXCROSS	n/a	n/a	n/a
291.584	5.008	LEXICAL_DECISION	PSEUDOWORD	MEKLE	n/a	n/a
295.525	n/a	LEXICAL_DECISION	RESPONSE	n/a	YES	FALSE_ALARM
298.617	1.009	LEXICAL_DECISION	FIXCROSS	n/a	n/a	n/a
299.634	5.008	LEXICAL_DECISION	WORD	MYK	n/a	n/a
302.246	n/a	LEXICAL_DECISION	RESPONSE	n/a	NO	MISS
306.667	1.008	LEXICAL_DECISION	FIXCROSS	n/a	n/a	n/a
307.684	5.008	LEXICAL_DECISION	PSEUDOWORD	SABI	n/a	n/a
310.248	n/a	LEXICAL_DECISION	RESPONSE	n/a	NO	CORRECT_REJECTION
314.717	1.009	LEXICAL_DECISION	FIXCROSS	n/a	n/a	n/a
315.734	5.008	LEXICAL_DECISION	WORD	BIAŁY	n/a	n/a
318.651	n/a	LEXICAL_DECISION	RESPONSE	n/a	YES	HIT
322.767	1.008	LEXICAL_DECISION	FIXCROSS	n/a	n/a	n/a
323.784	5.008	LEXICAL_DECISION	WORD	POBYT	n/a	n/a
328.121	n/a	LEXICAL_DECISION	RESPONSE	n/a	NO	MISS
332.826	2.008	6_DOT_DETECTION	CUE	n/a	n/a	n/a
338.826	1.008	6_DOT_DETECTION	FIXCROSS	n/a	n/a	n/a
339.842	5.008	6_DOT_DETECTION	NO_6-DOT	PŁS	n/a	n/a
343.319	n/a	6_DOT_DETECTION	RESPONSE	n/a	NO	CORRECT_REJECTION
346.876	1.008	6_DOT_DETECTION	FIXCROSS	n/a	n/a	n/a
347.892	5.008	6_DOT_DETECTION	NO_6-DOT	ETBY	n/a	n/a
351.613	n/a	6_DOT_DETECTION	RESPONSE	n/a	YES	FALSE_ALARM
354.926	1.008	6_DOT_DETECTION	FIXCROSS	n/a	n/a	n/a
355.942	5.008	6_DOT_DETECTION	NO_6-DOT	OKOŁI	n/a	n/a
359.556	n/a	6_DOT_DETECTION	RESPONSE	n/a	NO	CORRECT_REJECTION
362.976	1.008	6_DOT_DETECTION	FIXCROSS	n/a	n/a	n/a
363.992	5.008	6_DOT_DETECTION	6-DOT	I#T#	n/a	n/a
367.464	n/a	6_DOT_DETECTION	RESPONSE	n/a	YES	HIT
371.026	1.008	6_DOT_DETECTION	FIXCROSS	n/a	n/a	n/a
372.042	5.008	6_DOT_DETECTION	NO_6-DOT	OTŁP	n/a	n/a
375.468	n/a	6_DOT_DETECTION	RESPONSE	n/a	NO	CORRECT_REJECTION
380.584	2.008	LEXICAL_DECISION	CUE	n/a	n/a	n/a
386.084	1.008	LEXICAL_DECISION	FIXCROSS	n/a	n/a	n/a
387.101	5.008	LEXICAL_DECISION	WORD	SALTO	n/a	n/a
390.344	n/a	LEXICAL_DECISION	RESPONSE	n/a	YES	HIT
394.134	1.009	LEXICAL_DECISION	FIXCROSS	n/a	n/a	n/a
395.151	5.008	LEXICAL_DECISION	WORD	OCTEM	n/a	n/a
398.231	n/a	LEXICAL_DECISION	RESPONSE	n/a	YES	HIT
402.184	1.008	LEXICAL_DECISION	FIXCROSS	n/a	n/a	n/a
403.201	5.008	LEXICAL_DECISION	PSEUDOWORD	SKAPA	n/a	n/a
406.949	n/a	LEXICAL_DECISION	RESPONSE	n/a	NO	CORRECT_REJECTION
410.234	1.008	LEXICAL_DECISION	FIXCROSS	n/a	n/a	n/a
411.251	5.008	LEXICAL_DECISION	PSEUDOWORD	KUMI	n/a	n/a
415.028	n/a	LEXICAL_DECISION	RESPONSE	n/a	NO	CORRECT_REJECTION
418.284	1.008	LEXICAL_DECISION	FIXCROSS	n/a	n/a	n/a
419.301	5.008	LEXICAL_DECISION	PSEUDOWORD	KILDU	n/a	n/a
422.156	n/a	LEXICAL_DECISION	RESPONSE	n/a	YES	FALSE_ALARM
427.843	2.008	6_DOT_DETECTION	CUE	n/a	n/a	n/a
433.343	1.008	6_DOT_DETECTION	FIXCROSS	n/a	n/a	n/a
434.359	5.008	6_DOT_DETECTION	6-DOT	#AC#	n/a	n/a
437.738	n/a	6_DOT_DETECTION	RESPONSE	n/a	YES	HIT
441.393	1.008	6_DOT_DETECTION	FIXCROSS	n/a	n/a	n/a
442.409	5.008	6_DOT_DETECTION	6-DOT	O##P	n/a	n/a
445.863	n/a	6_DOT_DETECTION	RESPONSE	n/a	YES	HIT
449.443	1.008	6_DOT_DETECTION	FIXCROSS	n/a	n/a	n/a
450.459	5.008	6_DOT_DETECTION	NO_6-DOT	UDM	n/a	n/a
453.324	n/a	6_DOT_DETECTION	RESPONSE	n/a	NO	CORRECT_REJECTION
457.493	1.008	6_DOT_DETECTION	FIXCROSS	n/a	n/a	n/a
458.509	5.008	6_DOT_DETECTION	6-DOT	#S#U	n/a	n/a
461.443	n/a	6_DOT_DETECTION	RESPONSE	n/a	YES	HIT
465.543	1.008	6_DOT_DETECTION	FIXCROSS	n/a	n/a	n/a
466.559	5.008	6_DOT_DETECTION	NO_6-DOT	DMTP	n/a	n/a
469.83	n/a	6_DOT_DETECTION	RESPONSE	n/a	NO	CORRECT_REJECTION
474.601	2.008	LEXICAL_DECISION	CUE	n/a	n/a	n/a
479.601	1.008	LEXICAL_DECISION	FIXCROSS	n/a	n/a	n/a
480.618	5.008	LEXICAL_DECISION	PSEUDOWORD	KIS	n/a	n/a
483.503	n/a	LEXICAL_DECISION	RESPONSE	n/a	NO	CORRECT_REJECTION
487.65	1.009	LEXICAL_DECISION	FIXCROSS	n/a	n/a	n/a
488.668	5.008	LEXICAL_DECISION	WORD	CAŁY	n/a	n/a
491.481	n/a	LEXICAL_DECISION	RESPONSE	n/a	YES	HIT
495.701	1.008	LEXICAL_DECISION	FIXCROSS	n/a	n/a	n/a
496.718	5.008	LEXICAL_DECISION	PSEUDOWORD	ŁUCA	n/a	n/a
499.535	n/a	LEXICAL_DECISION	RESPONSE	n/a	NO	CORRECT_REJECTION
503.751	1.008	LEXICAL_DECISION	FIXCROSS	n/a	n/a	n/a
504.768	5.008	LEXICAL_DECISION	WORD	POMYL	n/a	n/a
508.616	n/a	LEXICAL_DECISION	RESPONSE	n/a	YES	HIT
511.801	1.008	LEXICAL_DECISION	FIXCROSS	n/a	n/a	n/a
512.818	5.008	LEXICAL_DECISION	WORD	TLI	n/a	n/a
515.16	n/a	LEXICAL_DECISION	RESPONSE	n/a	NO	MISS
520.86	2.008	6_DOT_DETECTION	CUE	n/a	n/a	n/a
527.86	1.008	6_DOT_DETECTION	FIXCROSS	n/a	n/a	n/a
528.876	5.008	6_DOT_DETECTION	NO_6-DOT	DLMT	n/a	n/a
533.525	n/a	6_DOT_DETECTION	RESPONSE	n/a	NO	CORRECT_REJECTION
535.91	1.008	6_DOT_DETECTION	FIXCROSS	n/a	n/a	n/a
536.926	5.008	6_DOT_DETECTION	6-DOT	##K	n/a	n/a
540.369	n/a	6_DOT_DETECTION	RESPONSE	n/a	YES	HIT
543.96	1.008	6_DOT_DETECTION	FIXCROSS	n/a	n/a	n/a
544.976	5.008	6_DOT_DETECTION	6-DOT	M##OE	n/a	n/a
549.151	n/a	6_DOT_DETECTION	RESPONSE	n/a	YES	HIT
552.01	1.008	6_DOT_DETECTION	FIXCROSS	n/a	n/a	n/a
553.026	5.008	6_DOT_DETECTION	6-DOT	U##K	n/a	n/a
556.841	n/a	6_DOT_DETECTION	RESPONSE	n/a	YES	HIT
560.06	1.008	6_DOT_DETECTION	FIXCROSS	n/a	n/a	n/a
561.076	5.008	6_DOT_DETECTION	6-DOT	#A#	n/a	n/a
566.326	n/a	6_DOT_DETECTION	RESPONSE	n/a	YES	HIT
569.618	2.008	LEXICAL_DECISION	CUE	n/a	n/a	n/a
576.118	1.008	LEXICAL_DECISION	FIXCROSS	n/a	n/a	n/a
577.134	5.008	LEXICAL_DECISION	PSEUDOWORD	PAKM	n/a	n/a
579.515	n/a	LEXICAL_DECISION	RESPONSE	n/a	YES	FALSE_ALARM
584.167	1.009	LEXICAL_DECISION	FIXCROSS	n/a	n/a	n/a
585.185	5.008	LEXICAL_DECISION	PSEUDOWORD	OTAB	n/a	n/a
588.333	n/a	LEXICAL_DECISION	RESPONSE	n/a	NO	CORRECT_REJECTION
592.218	1.008	LEXICAL_DECISION	FIXCROSS	n/a	n/a	n/a
593.235	5.008	LEXICAL_DECISION	PSEUDOWORD	OŁUBU	n/a	n/a
596.031	n/a	LEXICAL_DECISION	RESPONSE	n/a	YES	FALSE_ALARM
600.268	1.008	LEXICAL_DECISION	FIXCROSS	n/a	n/a	n/a
601.285	5.008	LEXICAL_DECISION	PSEUDOWORD	DOMET	n/a	n/a
604.358	n/a	LEXICAL_DECISION	RESPONSE	n/a	YES	FALSE_ALARM
608.318	1.008	LEXICAL_DECISION	FIXCROSS	n/a	n/a	n/a
609.335	5.008	LEXICAL_DECISION	PSEUDOWORD	DAS	n/a	n/a
611.669	n/a	LEXICAL_DECISION	RESPONSE	n/a	NO	CORRECT_REJECTION
617.876	2.008	6_DOT_DETECTION	CUE	n/a	n/a	n/a
622.376	1.008	6_DOT_DETECTION	FIXCROSS	n/a	n/a	n/a
623.393	5.008	6_DOT_DETECTION	NO_6-DOT	ŁOCU	n/a	n/a
626.856	n/a	6_DOT_DETECTION	RESPONSE	n/a	NO	CORRECT_REJECTION
630.426	1.008	6_DOT_DETECTION	FIXCROSS	n/a	n/a	n/a
631.443	5.008	6_DOT_DETECTION	NO_6-DOT	IMTK	n/a	n/a
635.058	n/a	6_DOT_DETECTION	RESPONSE	n/a	NO	CORRECT_REJECTION
638.476	1.008	6_DOT_DETECTION	FIXCROSS	n/a	n/a	n/a
639.493	5.008	6_DOT_DETECTION	6-DOT	TSP##	n/a	n/a
643.05	n/a	6_DOT_DETECTION	RESPONSE	n/a	YES	HIT
646.526	1.008	6_DOT_DETECTION	FIXCROSS	n/a	n/a	n/a
647.543	5.008	6_DOT_DETECTION	NO_6-DOT	STDL	n/a	n/a
650.654	n/a	6_DOT_DETECTION	RESPONSE	n/a	NO	CORRECT_REJECTION
654.576	1.008	6_DOT_DETECTION	FIXCROSS	n/a	n/a	n/a
655.593	5.008	6_DOT_DETECTION	6-DOT	Ł##	n/a	n/a
658.11	n/a	6_DOT_DETECTION	RESPONSE	n/a	YES	HIT
664.135	2.008	LEXICAL_DECISION	CUE	n/a	n/a	n/a
669.635	1.008	LEXICAL_DECISION	FIXCROSS	n/a	n/a	n/a
670.652	5.008	LEXICAL_DECISION	WORD	UCIEC	n/a	n/a
673.639	n/a	LEXICAL_DECISION	RESPONSE	n/a	YES	HIT
677.685	1.008	LEXICAL_DECISION	FIXCROSS	n/a	n/a	n/a
678.702	5.008	LEXICAL_DECISION	WORD	PALM	n/a	n/a
682.477	n/a	LEXICAL_DECISION	RESPONSE	n/a	NO	MISS
685.735	1.008	LEXICAL_DECISION	FIXCROSS	n/a	n/a	n/a
686.752	5.008	LEXICAL_DECISION	WORD	TŁO	n/a	n/a
689.2	n/a	LEXICAL_DECISION	RESPONSE	n/a	NO	MISS
693.785	1.008	LEXICAL_DECISION	FIXCROSS	n/a	n/a	n/a
694.802	5.008	LEXICAL_DECISION	PSEUDOWORD	ŁYB	n/a	n/a
697.164	n/a	LEXICAL_DECISION	RESPONSE	n/a	NO	CORRECT_REJECTION
701.835	1.008	LEXICAL_DECISION	FIXCROSS	n/a	n/a	n/a
702.852	5.008	LEXICAL_DECISION	PSEUDOWORD	BOŁY	n/a	n/a
705.617	n/a	LEXICAL_DECISION	RESPONSE	n/a	YES	FALSE_ALARM
710.893	2.008	6_DOT_DETECTION	CUE	n/a	n/a	n/a
715.893	1.008	6_DOT_DETECTION	FIXCROSS	n/a	n/a	n/a
716.91	5.008	6_DOT_DETECTION	6-DOT	D#BK#	n/a	n/a
721.083	n/a	6_DOT_DETECTION	RESPONSE	n/a	YES	HIT
723.943	1.008	6_DOT_DETECTION	FIXCROSS	n/a	n/a	n/a
724.96	5.008	6_DOT_DETECTION	6-DOT	TU#K#	n/a	n/a
728.637	n/a	6_DOT_DETECTION	RESPONSE	n/a	YES	HIT
731.993	1.008	6_DOT_DETECTION	FIXCROSS	n/a	n/a	n/a
733.01	5.008	6_DOT_DETECTION	6-DOT	#Y#	n/a	n/a
736.147	n/a	6_DOT_DETECTION	RESPONSE	n/a	YES	HIT
740.043	1.009	6_DOT_DETECTION	FIXCROSS	n/a	n/a	n/a
741.06	5.008	6_DOT_DETECTION	NO_6-DOT	LSŁIP	n/a	n/a
745.007	n/a	6_DOT_DETECTION	RESPONSE	n/a	NO	CORRECT_REJECTION
748.093	1.008	6_DOT_DETECTION	FIXCROSS	n/a	n/a	n/a
749.11	5.008	6_DOT_DETECTION	NO_6-DOT	UCMB	n/a	n/a
751.987	n/a	6_DOT_DETECTION	RESPONSE	n/a	NO	CORRECT_REJECTION
