onset	duration	trial_type	trial_number	stroop_condition	stim_text(PL)	stim_text(eng)	stim_color(PL)	stim_color(eng)	response_type	response_color
0.0	n/a	RESPONSE	n/a	n/a	n/a	n/a	n/a	n/a	n/a	n/a
0.0388	1.0166	ITI	n/a	n/a	n/a	n/a	n/a	n/a	n/a	n/a
1.0554	0.5	FIXCROSS	n/a	n/a	n/a	n/a	n/a	n/a	n/a	n/a
1.5554	1.0333	T_INK	1	Neutral	xxxxxxx	xxxxxxx	żółty	yellow	hit	n/a
2.574	n/a	RESPONSE	n/a	n/a	n/a	n/a	n/a	n/a	n/a	yellow
2.5887	0.5	FEEDBACK	n/a	n/a	n/a	n/a	n/a	n/a	n/a	n/a
3.0887	1.0	ITI	n/a	n/a	n/a	n/a	n/a	n/a	n/a	n/a
4.0887	0.5	FIXCROSS	n/a	n/a	n/a	n/a	n/a	n/a	n/a	n/a
4.5887	0.6667	T_INK	2	Incongruent	czerwony	red	żółty	yellow	incorrect	n/a
5.2441	n/a	RESPONSE	n/a	n/a	n/a	n/a	n/a	n/a	n/a	red
5.2554	0.5	FEEDBACK	n/a	n/a	n/a	n/a	n/a	n/a	n/a	n/a
5.7553	1.0	ITI	n/a	n/a	n/a	n/a	n/a	n/a	n/a	n/a
6.7553	0.5	FIXCROSS	n/a	n/a	n/a	n/a	n/a	n/a	n/a	n/a
7.2553	1.4667	T_INK	3	Incongruent	niebieski	blue	czerwony	red	hit	n/a
8.7136	n/a	RESPONSE	n/a	n/a	n/a	n/a	n/a	n/a	n/a	red
8.722	0.5	FEEDBACK	n/a	n/a	n/a	n/a	n/a	n/a	n/a	n/a
9.2219	1.0	ITI	n/a	n/a	n/a	n/a	n/a	n/a	n/a	n/a
10.2219	0.5	FIXCROSS	n/a	n/a	n/a	n/a	n/a	n/a	n/a	n/a
10.7219	1.0833	T_INK	4	Incongruent	niebieski	blue	zielony	green	hit	n/a
11.7995	n/a	RESPONSE	n/a	n/a	n/a	n/a	n/a	n/a	n/a	green
11.8052	0.5	FEEDBACK	n/a	n/a	n/a	n/a	n/a	n/a	n/a	n/a
12.3052	1.0	ITI	n/a	n/a	n/a	n/a	n/a	n/a	n/a	n/a
13.3052	0.5	FIXCROSS	n/a	n/a	n/a	n/a	n/a	n/a	n/a	n/a
13.8052	0.6333	T_INK	5	Neutral	xxxxxxxxx	xxxxxxxxx	żółty	yellow	hit	n/a
14.4216	n/a	RESPONSE	n/a	n/a	n/a	n/a	n/a	n/a	n/a	yellow
14.4385	0.5	FEEDBACK	n/a	n/a	n/a	n/a	n/a	n/a	n/a	n/a
14.9385	0.9982	ITI	n/a	n/a	n/a	n/a	n/a	n/a	n/a	n/a
15.9367	0.5017	FIXCROSS	n/a	n/a	n/a	n/a	n/a	n/a	n/a	n/a
16.4385	1.05	T_INK	6	Neutral	xxxxx	xxxxx	niebieski	blue	hit	n/a
17.4754	n/a	RESPONSE	n/a	n/a	n/a	n/a	n/a	n/a	n/a	blue
17.4884	0.5	FEEDBACK	n/a	n/a	n/a	n/a	n/a	n/a	n/a	n/a
17.9884	1.0166	ITI	n/a	n/a	n/a	n/a	n/a	n/a	n/a	n/a
19.0051	0.5	FIXCROSS	n/a	n/a	n/a	n/a	n/a	n/a	n/a	n/a
19.5051	1.3	T_INK	7	Incongruent	żółty	yellow	czerwony	red	hit	n/a
20.785	n/a	RESPONSE	n/a	n/a	n/a	n/a	n/a	n/a	n/a	red
20.805	0.5	FEEDBACK	n/a	n/a	n/a	n/a	n/a	n/a	n/a	n/a
21.305	1.0	ITI	n/a	n/a	n/a	n/a	n/a	n/a	n/a	n/a
22.305	0.5	FIXCROSS	n/a	n/a	n/a	n/a	n/a	n/a	n/a	n/a
22.805	0.6833	T_INK	8	Neutral	xxxxxxxxx	xxxxxxxxx	zielony	green	hit	n/a
23.4711	n/a	RESPONSE	n/a	n/a	n/a	n/a	n/a	n/a	n/a	green
23.4883	0.5	FEEDBACK	n/a	n/a	n/a	n/a	n/a	n/a	n/a	n/a
23.9883	1.0	ITI	n/a	n/a	n/a	n/a	n/a	n/a	n/a	n/a
24.9883	0.5	FIXCROSS	n/a	n/a	n/a	n/a	n/a	n/a	n/a	n/a
25.4883	0.55	T_INK	9	Incongruent	zielony	green	żółty	yellow	hit	n/a
26.0293	n/a	RESPONSE	n/a	n/a	n/a	n/a	n/a	n/a	n/a	yellow
26.0383	0.5	FEEDBACK	n/a	n/a	n/a	n/a	n/a	n/a	n/a	n/a
26.5383	1.0	ITI	n/a	n/a	n/a	n/a	n/a	n/a	n/a	n/a
27.5382	0.5	FIXCROSS	n/a	n/a	n/a	n/a	n/a	n/a	n/a	n/a
28.0382	0.4833	T_INK	10	Neutral	xxxxx	xxxxx	czerwony	red	hit	n/a
28.5075	n/a	RESPONSE	n/a	n/a	n/a	n/a	n/a	n/a	n/a	red
28.5216	0.5	FEEDBACK	n/a	n/a	n/a	n/a	n/a	n/a	n/a	n/a
29.0215	1.0	ITI	n/a	n/a	n/a	n/a	n/a	n/a	n/a	n/a
30.0215	0.5	FIXCROSS	n/a	n/a	n/a	n/a	n/a	n/a	n/a	n/a
30.5215	0.5667	T_INK	11	Incongruent	niebieski	blue	żółty	yellow	hit	n/a
31.0817	n/a	RESPONSE	n/a	n/a	n/a	n/a	n/a	n/a	n/a	yellow
31.0882	0.5	FEEDBACK	n/a	n/a	n/a	n/a	n/a	n/a	n/a	n/a
31.5882	1.0	ITI	n/a	n/a	n/a	n/a	n/a	n/a	n/a	n/a
32.5881	0.5	FIXCROSS	n/a	n/a	n/a	n/a	n/a	n/a	n/a	n/a
33.0881	0.65	T_INK	12	Incongruent	czerwony	red	zielony	green	hit	n/a
33.7198	n/a	RESPONSE	n/a	n/a	n/a	n/a	n/a	n/a	n/a	green
33.7381	0.5	FEEDBACK	n/a	n/a	n/a	n/a	n/a	n/a	n/a	n/a
34.2381	1.0	ITI	n/a	n/a	n/a	n/a	n/a	n/a	n/a	n/a
43.6487	n/a	RESPONSE	n/a	n/a	n/a	n/a	n/a	n/a	n/a	n/a
43.6713	1.0	ITI	n/a	n/a	n/a	n/a	n/a	n/a	n/a	n/a
44.6712	0.5	FIXCROSS	n/a	n/a	n/a	n/a	n/a	n/a	n/a	n/a
45.1712	0.45	INK	1	Neutral	xxxxxxxx	xxxxxxxx	żółty	yellow	hit	n/a
45.6151	n/a	RESPONSE	n/a	n/a	n/a	n/a	n/a	n/a	n/a	yellow
45.6212	1.0	ITI	n/a	n/a	n/a	n/a	n/a	n/a	n/a	n/a
46.6212	0.5	FIXCROSS	n/a	n/a	n/a	n/a	n/a	n/a	n/a	n/a
47.1212	4.9999	INK	2	Neutral	xxxxxxxx	xxxxxxxx	niebieski	blue	incorrect	n/a
47.7417	n/a	RESPONSE	n/a	n/a	n/a	n/a	n/a	n/a	n/a	n/a
48.2693	n/a	RESPONSE	n/a	n/a	n/a	n/a	n/a	n/a	n/a	blue
48.749	n/a	RESPONSE	n/a	n/a	n/a	n/a	n/a	n/a	n/a	blue
49.4365	n/a	RESPONSE	n/a	n/a	n/a	n/a	n/a	n/a	n/a	blue
49.9001	n/a	RESPONSE	n/a	n/a	n/a	n/a	n/a	n/a	n/a	blue
50.172	n/a	RESPONSE	n/a	n/a	n/a	n/a	n/a	n/a	n/a	blue
51.499	n/a	RESPONSE	n/a	n/a	n/a	n/a	n/a	n/a	n/a	blue
52.1211	1.0	ITI	n/a	n/a	n/a	n/a	n/a	n/a	n/a	n/a
53.1211	0.5	FIXCROSS	n/a	n/a	n/a	n/a	n/a	n/a	n/a	n/a
53.6211	0.6667	INK	3	Incongruent	żółty	yellow	zielony	green	hit	n/a
54.281	n/a	RESPONSE	n/a	n/a	n/a	n/a	n/a	n/a	n/a	green
54.2877	1.0	ITI	n/a	n/a	n/a	n/a	n/a	n/a	n/a	n/a
55.2877	0.5	FIXCROSS	n/a	n/a	n/a	n/a	n/a	n/a	n/a	n/a
55.7877	0.6833	INK	4	Incongruent	żółty	yellow	czerwony	red	hit	n/a
56.4554	n/a	RESPONSE	n/a	n/a	n/a	n/a	n/a	n/a	n/a	red
56.471	1.0	ITI	n/a	n/a	n/a	n/a	n/a	n/a	n/a	n/a
57.471	0.5	FIXCROSS	n/a	n/a	n/a	n/a	n/a	n/a	n/a	n/a
57.971	0.7667	INK	5	Incongruent	zielony	green	niebieski	blue	hit	n/a
58.7258	n/a	RESPONSE	n/a	n/a	n/a	n/a	n/a	n/a	n/a	blue
58.7376	1.0	ITI	n/a	n/a	n/a	n/a	n/a	n/a	n/a	n/a
59.7376	0.5	FIXCROSS	n/a	n/a	n/a	n/a	n/a	n/a	n/a	n/a
60.2376	0.6167	INK	6	Incongruent	zielony	green	czerwony	red	hit	n/a
60.8363	n/a	RESPONSE	n/a	n/a	n/a	n/a	n/a	n/a	n/a	red
60.8542	1.0	ITI	n/a	n/a	n/a	n/a	n/a	n/a	n/a	n/a
61.8542	0.5	FIXCROSS	n/a	n/a	n/a	n/a	n/a	n/a	n/a	n/a
62.3542	0.65	INK	7	Incongruent	niebieski	blue	zielony	green	hit	n/a
62.9947	n/a	RESPONSE	n/a	n/a	n/a	n/a	n/a	n/a	n/a	green
63.0042	1.0	ITI	n/a	n/a	n/a	n/a	n/a	n/a	n/a	n/a
64.0042	0.5	FIXCROSS	n/a	n/a	n/a	n/a	n/a	n/a	n/a	n/a
64.5042	0.4833	INK	8	Neutral	xxxxxxxxx	xxxxxxxxx	żółty	yellow	hit	n/a
64.9773	n/a	RESPONSE	n/a	n/a	n/a	n/a	n/a	n/a	n/a	yellow
64.9875	1.0	ITI	n/a	n/a	n/a	n/a	n/a	n/a	n/a	n/a
65.9875	0.5	FIXCROSS	n/a	n/a	n/a	n/a	n/a	n/a	n/a	n/a
66.4875	0.5666	INK	9	Neutral	xxxxx	xxxxx	zielony	green	hit	n/a
67.0398	n/a	RESPONSE	n/a	n/a	n/a	n/a	n/a	n/a	n/a	green
67.0541	1.0	ITI	n/a	n/a	n/a	n/a	n/a	n/a	n/a	n/a
68.0541	0.5	FIXCROSS	n/a	n/a	n/a	n/a	n/a	n/a	n/a	n/a
68.5541	0.7	INK	10	Neutral	xxxxx	xxxxx	czerwony	red	hit	n/a
69.2462	n/a	RESPONSE	n/a	n/a	n/a	n/a	n/a	n/a	n/a	red
69.2541	1.0	ITI	n/a	n/a	n/a	n/a	n/a	n/a	n/a	n/a
70.254	0.5	FIXCROSS	n/a	n/a	n/a	n/a	n/a	n/a	n/a	n/a
70.754	0.7333	INK	11	Neutral	xxxxxxxx	xxxxxxxx	zielony	green	hit	n/a
71.4687	n/a	RESPONSE	n/a	n/a	n/a	n/a	n/a	n/a	n/a	green
71.4874	1.0	ITI	n/a	n/a	n/a	n/a	n/a	n/a	n/a	n/a
72.4873	0.5	FIXCROSS	n/a	n/a	n/a	n/a	n/a	n/a	n/a	n/a
72.9873	0.7167	INK	12	Neutral	xxxxxxx	xxxxxxx	czerwony	red	hit	n/a
73.691	n/a	RESPONSE	n/a	n/a	n/a	n/a	n/a	n/a	n/a	red
73.704	1.0	ITI	n/a	n/a	n/a	n/a	n/a	n/a	n/a	n/a
74.704	0.5	FIXCROSS	n/a	n/a	n/a	n/a	n/a	n/a	n/a	n/a
75.2039	0.6167	INK	13	Neutral	xxxxx	xxxxx	zielony	green	hit	n/a
75.8175	n/a	RESPONSE	n/a	n/a	n/a	n/a	n/a	n/a	n/a	green
75.8206	1.0	ITI	n/a	n/a	n/a	n/a	n/a	n/a	n/a	n/a
76.8206	0.5	FIXCROSS	n/a	n/a	n/a	n/a	n/a	n/a	n/a	n/a
77.3206	0.4333	INK	14	Neutral	xxxxxxx	xxxxxxx	czerwony	red	hit	n/a
77.7362	n/a	RESPONSE	n/a	n/a	n/a	n/a	n/a	n/a	n/a	red
77.7539	1.0	ITI	n/a	n/a	n/a	n/a	n/a	n/a	n/a	n/a
78.7539	0.5	FIXCROSS	n/a	n/a	n/a	n/a	n/a	n/a	n/a	n/a
79.2539	0.4667	INK	15	Neutral	xxxxxxxxx	xxxxxxxxx	żółty	yellow	hit	n/a
79.7027	n/a	RESPONSE	n/a	n/a	n/a	n/a	n/a	n/a	n/a	yellow
79.7205	1.0	ITI	n/a	n/a	n/a	n/a	n/a	n/a	n/a	n/a
80.7205	0.5	FIXCROSS	n/a	n/a	n/a	n/a	n/a	n/a	n/a	n/a
81.2205	0.4833	INK	16	Neutral	xxxxxxxx	xxxxxxxx	żółty	yellow	hit	n/a
81.6852	n/a	RESPONSE	n/a	n/a	n/a	n/a	n/a	n/a	n/a	yellow
81.7038	1.0	ITI	n/a	n/a	n/a	n/a	n/a	n/a	n/a	n/a
82.7038	0.5	FIXCROSS	n/a	n/a	n/a	n/a	n/a	n/a	n/a	n/a
83.2038	0.45	INK	17	Neutral	xxxxx	xxxxx	czerwony	red	hit	n/a
83.6358	n/a	RESPONSE	n/a	n/a	n/a	n/a	n/a	n/a	n/a	red
83.6538	1.0	ITI	n/a	n/a	n/a	n/a	n/a	n/a	n/a	n/a
84.6538	0.5	FIXCROSS	n/a	n/a	n/a	n/a	n/a	n/a	n/a	n/a
85.1538	0.9167	INK	18	Incongruent	czerwony	red	niebieski	blue	hit	n/a
86.0661	n/a	RESPONSE	n/a	n/a	n/a	n/a	n/a	n/a	n/a	blue
86.0704	1.0	ITI	n/a	n/a	n/a	n/a	n/a	n/a	n/a	n/a
87.0704	0.5	FIXCROSS	n/a	n/a	n/a	n/a	n/a	n/a	n/a	n/a
87.5704	0.4167	INK	19	Incongruent	niebieski	blue	czerwony	red	hit	n/a
87.9687	n/a	RESPONSE	n/a	n/a	n/a	n/a	n/a	n/a	n/a	red
87.987	1.0	ITI	n/a	n/a	n/a	n/a	n/a	n/a	n/a	n/a
88.987	0.5	FIXCROSS	n/a	n/a	n/a	n/a	n/a	n/a	n/a	n/a
89.487	0.6	INK	20	Neutral	xxxxx	xxxxx	czerwony	red	hit	n/a
90.0793	n/a	RESPONSE	n/a	n/a	n/a	n/a	n/a	n/a	n/a	red
90.087	1.0	ITI	n/a	n/a	n/a	n/a	n/a	n/a	n/a	n/a
91.087	0.5	FIXCROSS	n/a	n/a	n/a	n/a	n/a	n/a	n/a	n/a
91.587	0.6333	INK	21	Incongruent	czerwony	red	zielony	green	hit	n/a
92.2057	n/a	RESPONSE	n/a	n/a	n/a	n/a	n/a	n/a	n/a	green
92.2203	1.0	ITI	n/a	n/a	n/a	n/a	n/a	n/a	n/a	n/a
93.2203	0.5	FIXCROSS	n/a	n/a	n/a	n/a	n/a	n/a	n/a	n/a
93.7202	0.5	INK	22	Incongruent	niebieski	blue	zielony	green	hit	n/a
94.2042	n/a	RESPONSE	n/a	n/a	n/a	n/a	n/a	n/a	n/a	green
94.2202	1.0	ITI	n/a	n/a	n/a	n/a	n/a	n/a	n/a	n/a
95.2202	0.5	FIXCROSS	n/a	n/a	n/a	n/a	n/a	n/a	n/a	n/a
95.7202	0.5166	INK	23	Incongruent	czerwony	red	niebieski	blue	hit	n/a
96.2189	n/a	RESPONSE	n/a	n/a	n/a	n/a	n/a	n/a	n/a	blue
96.2369	1.0	ITI	n/a	n/a	n/a	n/a	n/a	n/a	n/a	n/a
97.2368	0.5	FIXCROSS	n/a	n/a	n/a	n/a	n/a	n/a	n/a	n/a
97.7368	0.4167	INK	24	Neutral	xxxxx	xxxxx	niebieski	blue	hit	n/a
98.1374	n/a	RESPONSE	n/a	n/a	n/a	n/a	n/a	n/a	n/a	blue
98.1535	1.0	ITI	n/a	n/a	n/a	n/a	n/a	n/a	n/a	n/a
99.1535	0.5	FIXCROSS	n/a	n/a	n/a	n/a	n/a	n/a	n/a	n/a
99.6535	0.3833	INK	25	Neutral	xxxxxxxx	xxxxxxxx	niebieski	blue	hit	n/a
100.0241	n/a	RESPONSE	n/a	n/a	n/a	n/a	n/a	n/a	n/a	blue
100.0368	1.0	ITI	n/a	n/a	n/a	n/a	n/a	n/a	n/a	n/a
101.0368	0.5	FIXCROSS	n/a	n/a	n/a	n/a	n/a	n/a	n/a	n/a
101.5368	0.5333	INK	26	Neutral	xxxxxxxx	xxxxxxxx	zielony	green	incorrect	n/a
102.0547	n/a	RESPONSE	n/a	n/a	n/a	n/a	n/a	n/a	n/a	yellow
102.0701	1.0	ITI	n/a	n/a	n/a	n/a	n/a	n/a	n/a	n/a
103.0701	0.5	FIXCROSS	n/a	n/a	n/a	n/a	n/a	n/a	n/a	n/a
103.5701	0.4333	INK	27	Neutral	xxxxxxxxx	xxxxxxxxx	zielony	green	hit	n/a
103.9893	n/a	RESPONSE	n/a	n/a	n/a	n/a	n/a	n/a	n/a	green
104.0034	1.0	ITI	n/a	n/a	n/a	n/a	n/a	n/a	n/a	n/a
105.0033	0.5	FIXCROSS	n/a	n/a	n/a	n/a	n/a	n/a	n/a	n/a
105.5033	0.4666	INK	28	Neutral	xxxxxxxxx	xxxxxxxxx	czerwony	red	hit	n/a
105.9558	n/a	RESPONSE	n/a	n/a	n/a	n/a	n/a	n/a	n/a	red
105.97	1.0	ITI	n/a	n/a	n/a	n/a	n/a	n/a	n/a	n/a
106.97	0.5	FIXCROSS	n/a	n/a	n/a	n/a	n/a	n/a	n/a	n/a
107.47	0.55	INK	29	Incongruent	zielony	green	żółty	yellow	hit	n/a
108.0024	n/a	RESPONSE	n/a	n/a	n/a	n/a	n/a	n/a	n/a	yellow
108.02	1.0	ITI	n/a	n/a	n/a	n/a	n/a	n/a	n/a	n/a
109.0199	0.5	FIXCROSS	n/a	n/a	n/a	n/a	n/a	n/a	n/a	n/a
109.5199	0.65	INK	30	Incongruent	czerwony	red	żółty	yellow	hit	n/a
110.1608	n/a	RESPONSE	n/a	n/a	n/a	n/a	n/a	n/a	n/a	yellow
110.1699	1.0	ITI	n/a	n/a	n/a	n/a	n/a	n/a	n/a	n/a
111.1699	0.5	FIXCROSS	n/a	n/a	n/a	n/a	n/a	n/a	n/a	n/a
111.6699	0.5667	INK	31	Incongruent	niebieski	blue	żółty	yellow	hit	n/a
112.2234	n/a	RESPONSE	n/a	n/a	n/a	n/a	n/a	n/a	n/a	yellow
112.2365	1.0	ITI	n/a	n/a	n/a	n/a	n/a	n/a	n/a	n/a
113.2365	0.5	FIXCROSS	n/a	n/a	n/a	n/a	n/a	n/a	n/a	n/a
113.7365	0.6666	INK	32	Neutral	xxxxx	xxxxx	niebieski	blue	hit	n/a
114.3977	n/a	RESPONSE	n/a	n/a	n/a	n/a	n/a	n/a	n/a	blue
114.4032	1.0	ITI	n/a	n/a	n/a	n/a	n/a	n/a	n/a	n/a
115.4031	0.5	FIXCROSS	n/a	n/a	n/a	n/a	n/a	n/a	n/a	n/a
115.9031	0.4833	INK	33	Incongruent	niebieski	blue	żółty	yellow	hit	n/a
116.3803	n/a	RESPONSE	n/a	n/a	n/a	n/a	n/a	n/a	n/a	yellow
116.3865	1.0	ITI	n/a	n/a	n/a	n/a	n/a	n/a	n/a	n/a
117.3864	0.5	FIXCROSS	n/a	n/a	n/a	n/a	n/a	n/a	n/a	n/a
117.8864	0.6667	INK	34	Incongruent	czerwony	red	zielony	green	hit	n/a
118.5388	n/a	RESPONSE	n/a	n/a	n/a	n/a	n/a	n/a	n/a	green
118.5531	1.0	ITI	n/a	n/a	n/a	n/a	n/a	n/a	n/a	n/a
119.5531	0.5	FIXCROSS	n/a	n/a	n/a	n/a	n/a	n/a	n/a	n/a
120.0531	0.6333	INK	35	Incongruent	zielony	green	niebieski	blue	hit	n/a
120.6812	n/a	RESPONSE	n/a	n/a	n/a	n/a	n/a	n/a	n/a	blue
120.6864	1.0	ITI	n/a	n/a	n/a	n/a	n/a	n/a	n/a	n/a
121.6863	0.5	FIXCROSS	n/a	n/a	n/a	n/a	n/a	n/a	n/a	n/a
122.1863	0.6167	INK	36	Neutral	xxxxxxx	xxxxxxx	czerwony	red	hit	n/a
122.7918	n/a	RESPONSE	n/a	n/a	n/a	n/a	n/a	n/a	n/a	red
122.803	1.0	ITI	n/a	n/a	n/a	n/a	n/a	n/a	n/a	n/a
123.803	0.5	FIXCROSS	n/a	n/a	n/a	n/a	n/a	n/a	n/a	n/a
124.303	0.5667	INK	37	Neutral	xxxxxxx	xxxxxxx	żółty	yellow	hit	n/a
124.8543	n/a	RESPONSE	n/a	n/a	n/a	n/a	n/a	n/a	n/a	yellow
124.8696	1.0	ITI	n/a	n/a	n/a	n/a	n/a	n/a	n/a	n/a
125.8696	0.5	FIXCROSS	n/a	n/a	n/a	n/a	n/a	n/a	n/a	n/a
126.3696	0.7833	INK	38	Neutral	xxxxxxxxx	xxxxxxxxx	czerwony	red	hit	n/a
127.1406	n/a	RESPONSE	n/a	n/a	n/a	n/a	n/a	n/a	n/a	red
127.1529	1.0	ITI	n/a	n/a	n/a	n/a	n/a	n/a	n/a	n/a
128.1529	0.5	FIXCROSS	n/a	n/a	n/a	n/a	n/a	n/a	n/a	n/a
128.6529	0.4	INK	39	Neutral	xxxxx	xxxxx	niebieski	blue	hit	n/a
129.0432	n/a	RESPONSE	n/a	n/a	n/a	n/a	n/a	n/a	n/a	blue
129.0529	1.0	ITI	n/a	n/a	n/a	n/a	n/a	n/a	n/a	n/a
130.0529	0.5	FIXCROSS	n/a	n/a	n/a	n/a	n/a	n/a	n/a	n/a
130.5528	0.45	INK	40	Neutral	xxxxxxx	xxxxxxx	żółty	yellow	hit	n/a
130.9939	n/a	RESPONSE	n/a	n/a	n/a	n/a	n/a	n/a	n/a	yellow
131.0028	1.0	ITI	n/a	n/a	n/a	n/a	n/a	n/a	n/a	n/a
132.0028	0.5	FIXCROSS	n/a	n/a	n/a	n/a	n/a	n/a	n/a	n/a
132.5028	0.4333	INK	41	Neutral	xxxxxxx	xxxxxxx	niebieski	blue	incorrect	n/a
132.9284	n/a	RESPONSE	n/a	n/a	n/a	n/a	n/a	n/a	n/a	red
132.9361	1.0	ITI	n/a	n/a	n/a	n/a	n/a	n/a	n/a	n/a
133.9361	0.5	FIXCROSS	n/a	n/a	n/a	n/a	n/a	n/a	n/a	n/a
134.4361	0.5167	INK	42	Incongruent	żółty	yellow	czerwony	red	hit	n/a
134.943	n/a	RESPONSE	n/a	n/a	n/a	n/a	n/a	n/a	n/a	red
134.9527	1.0	ITI	n/a	n/a	n/a	n/a	n/a	n/a	n/a	n/a
135.9527	0.5	FIXCROSS	n/a	n/a	n/a	n/a	n/a	n/a	n/a	n/a
136.4527	0.6	INK	43	Incongruent	żółty	yellow	niebieski	blue	hit	n/a
137.0375	n/a	RESPONSE	n/a	n/a	n/a	n/a	n/a	n/a	n/a	blue
137.0527	1.0	ITI	n/a	n/a	n/a	n/a	n/a	n/a	n/a	n/a
138.0527	0.5	FIXCROSS	n/a	n/a	n/a	n/a	n/a	n/a	n/a	n/a
138.5527	0.5	INK	44	Neutral	xxxxxxxxx	xxxxxxxxx	zielony	green	hit	n/a
139.0361	n/a	RESPONSE	n/a	n/a	n/a	n/a	n/a	n/a	n/a	green
139.0527	1.0	ITI	n/a	n/a	n/a	n/a	n/a	n/a	n/a	n/a
140.0527	0.5	FIXCROSS	n/a	n/a	n/a	n/a	n/a	n/a	n/a	n/a
140.5526	0.5	INK	45	Incongruent	zielony	green	czerwony	red	hit	n/a
141.0346	n/a	RESPONSE	n/a	n/a	n/a	n/a	n/a	n/a	n/a	red
141.0526	1.0	ITI	n/a	n/a	n/a	n/a	n/a	n/a	n/a	n/a
142.0526	0.5	FIXCROSS	n/a	n/a	n/a	n/a	n/a	n/a	n/a	n/a
142.5526	0.65	INK	46	Neutral	xxxxx	xxxxx	zielony	green	hit	n/a
143.1931	n/a	RESPONSE	n/a	n/a	n/a	n/a	n/a	n/a	n/a	green
143.2026	1.0	ITI	n/a	n/a	n/a	n/a	n/a	n/a	n/a	n/a
144.2025	0.5	FIXCROSS	n/a	n/a	n/a	n/a	n/a	n/a	n/a	n/a
144.7026	0.5	INK	47	Neutral	xxxxxxxx	xxxxxxxx	żółty	yellow	hit	n/a
145.1917	n/a	RESPONSE	n/a	n/a	n/a	n/a	n/a	n/a	n/a	yellow
145.2025	1.0	ITI	n/a	n/a	n/a	n/a	n/a	n/a	n/a	n/a
146.2025	0.5	FIXCROSS	n/a	n/a	n/a	n/a	n/a	n/a	n/a	n/a
146.7025	0.6833	INK	48	Incongruent	żółty	yellow	zielony	green	hit	n/a
147.382	n/a	RESPONSE	n/a	n/a	n/a	n/a	n/a	n/a	n/a	green
147.3858	1.0	ITI	n/a	n/a	n/a	n/a	n/a	n/a	n/a	n/a
148.3858	0.5	FIXCROSS	n/a	n/a	n/a	n/a	n/a	n/a	n/a	n/a
148.8858	0.6	INK	49	Incongruent	żółty	yellow	niebieski	blue	hit	n/a
149.4765	n/a	RESPONSE	n/a	n/a	n/a	n/a	n/a	n/a	n/a	blue
149.4858	1.0	ITI	n/a	n/a	n/a	n/a	n/a	n/a	n/a	n/a
150.4858	0.5	FIXCROSS	n/a	n/a	n/a	n/a	n/a	n/a	n/a	n/a
150.9858	0.6167	INK	50	Incongruent	czerwony	red	żółty	yellow	hit	n/a
151.587	n/a	RESPONSE	n/a	n/a	n/a	n/a	n/a	n/a	n/a	yellow
151.6024	1.0	ITI	n/a	n/a	n/a	n/a	n/a	n/a	n/a	n/a
152.6024	0.5	FIXCROSS	n/a	n/a	n/a	n/a	n/a	n/a	n/a	n/a
153.1024	0.5833	INK	51	Incongruent	zielony	green	żółty	yellow	hit	n/a
153.6815	n/a	RESPONSE	n/a	n/a	n/a	n/a	n/a	n/a	n/a	yellow
153.6857	1.0	ITI	n/a	n/a	n/a	n/a	n/a	n/a	n/a	n/a
154.6857	0.5	FIXCROSS	n/a	n/a	n/a	n/a	n/a	n/a	n/a	n/a
155.1857	0.4833	INK	52	Incongruent	niebieski	blue	żółty	yellow	hit	n/a
155.6641	n/a	RESPONSE	n/a	n/a	n/a	n/a	n/a	n/a	n/a	yellow
155.669	1.0	ITI	n/a	n/a	n/a	n/a	n/a	n/a	n/a	n/a
156.669	0.5	FIXCROSS	n/a	n/a	n/a	n/a	n/a	n/a	n/a	n/a
157.169	0.5333	INK	53	Incongruent	żółty	yellow	czerwony	red	hit	n/a
157.6947	n/a	RESPONSE	n/a	n/a	n/a	n/a	n/a	n/a	n/a	red
157.7023	1.0	ITI	n/a	n/a	n/a	n/a	n/a	n/a	n/a	n/a
158.7023	0.5	FIXCROSS	n/a	n/a	n/a	n/a	n/a	n/a	n/a	n/a
159.2023	0.5833	INK	54	Incongruent	niebieski	blue	zielony	green	hit	n/a
159.7732	n/a	RESPONSE	n/a	n/a	n/a	n/a	n/a	n/a	n/a	green
159.7856	1.0	ITI	n/a	n/a	n/a	n/a	n/a	n/a	n/a	n/a
160.7856	0.5	FIXCROSS	n/a	n/a	n/a	n/a	n/a	n/a	n/a	n/a
161.2856	0.65	INK	55	Incongruent	żółty	yellow	zielony	green	hit	n/a
161.9316	n/a	RESPONSE	n/a	n/a	n/a	n/a	n/a	n/a	n/a	green
161.9355	1.0	ITI	n/a	n/a	n/a	n/a	n/a	n/a	n/a	n/a
162.9355	0.5	FIXCROSS	n/a	n/a	n/a	n/a	n/a	n/a	n/a	n/a
163.4355	0.6833	INK	56	Incongruent	niebieski	blue	czerwony	red	hit	n/a
164.106	n/a	RESPONSE	n/a	n/a	n/a	n/a	n/a	n/a	n/a	red
164.1188	1.0	ITI	n/a	n/a	n/a	n/a	n/a	n/a	n/a	n/a
165.1188	0.5	FIXCROSS	n/a	n/a	n/a	n/a	n/a	n/a	n/a	n/a
165.6188	0.65	INK	57	Neutral	xxxxxxxxx	xxxxxxxxx	zielony	green	hit	n/a
166.2645	n/a	RESPONSE	n/a	n/a	n/a	n/a	n/a	n/a	n/a	green
166.2688	1.0	ITI	n/a	n/a	n/a	n/a	n/a	n/a	n/a	n/a
167.2688	0.5	FIXCROSS	n/a	n/a	n/a	n/a	n/a	n/a	n/a	n/a
167.7688	0.6	INK	58	Neutral	xxxxxxxx	xxxxxxxx	niebieski	blue	hit	n/a
168.359	n/a	RESPONSE	n/a	n/a	n/a	n/a	n/a	n/a	n/a	blue
168.3687	1.0	ITI	n/a	n/a	n/a	n/a	n/a	n/a	n/a	n/a
169.3687	0.5	FIXCROSS	n/a	n/a	n/a	n/a	n/a	n/a	n/a	n/a
169.8687	0.5	INK	59	Incongruent	niebieski	blue	czerwony	red	hit	n/a
170.3576	n/a	RESPONSE	n/a	n/a	n/a	n/a	n/a	n/a	n/a	red
170.3687	1.0	ITI	n/a	n/a	n/a	n/a	n/a	n/a	n/a	n/a
171.3687	0.5	FIXCROSS	n/a	n/a	n/a	n/a	n/a	n/a	n/a	n/a
171.8687	0.4333	INK	60	Incongruent	zielony	green	niebieski	blue	hit	n/a
172.2922	n/a	RESPONSE	n/a	n/a	n/a	n/a	n/a	n/a	n/a	blue
172.302	1.0	ITI	n/a	n/a	n/a	n/a	n/a	n/a	n/a	n/a
173.302	0.5	FIXCROSS	n/a	n/a	n/a	n/a	n/a	n/a	n/a	n/a
173.802	0.7666	INK	61	Neutral	xxxxxxxxx	xxxxxxxxx	czerwony	red	hit	n/a
174.5625	n/a	RESPONSE	n/a	n/a	n/a	n/a	n/a	n/a	n/a	red
174.5686	1.0	ITI	n/a	n/a	n/a	n/a	n/a	n/a	n/a	n/a
175.5686	0.5	FIXCROSS	n/a	n/a	n/a	n/a	n/a	n/a	n/a	n/a
176.0686	0.6	INK	62	Incongruent	zielony	green	żółty	yellow	hit	n/a
176.657	n/a	RESPONSE	n/a	n/a	n/a	n/a	n/a	n/a	n/a	yellow
176.6686	1.0	ITI	n/a	n/a	n/a	n/a	n/a	n/a	n/a	n/a
177.6686	0.5	FIXCROSS	n/a	n/a	n/a	n/a	n/a	n/a	n/a	n/a
178.1685	0.5167	INK	63	Neutral	xxxxxxx	xxxxxxx	niebieski	blue	hit	n/a
178.6715	n/a	RESPONSE	n/a	n/a	n/a	n/a	n/a	n/a	n/a	blue
178.6852	1.0	ITI	n/a	n/a	n/a	n/a	n/a	n/a	n/a	n/a
179.6852	0.5	FIXCROSS	n/a	n/a	n/a	n/a	n/a	n/a	n/a	n/a
180.1852	0.6833	INK	64	Neutral	xxxxxxxx	xxxxxxxx	zielony	green	hit	n/a
180.862	n/a	RESPONSE	n/a	n/a	n/a	n/a	n/a	n/a	n/a	green
180.8685	1.0	ITI	n/a	n/a	n/a	n/a	n/a	n/a	n/a	n/a
181.8685	0.5	FIXCROSS	n/a	n/a	n/a	n/a	n/a	n/a	n/a	n/a
182.3685	0.5	INK	65	Neutral	xxxxxxx	xxxxxxx	niebieski	blue	hit	n/a
182.8606	n/a	RESPONSE	n/a	n/a	n/a	n/a	n/a	n/a	n/a	blue
182.8685	1.0	ITI	n/a	n/a	n/a	n/a	n/a	n/a	n/a	n/a
183.8684	0.5	FIXCROSS	n/a	n/a	n/a	n/a	n/a	n/a	n/a	n/a
184.3684	0.5667	INK	66	Incongruent	czerwony	red	zielony	green	hit	n/a
184.9231	n/a	RESPONSE	n/a	n/a	n/a	n/a	n/a	n/a	n/a	green
184.9351	1.0	ITI	n/a	n/a	n/a	n/a	n/a	n/a	n/a	n/a
185.9351	0.5	FIXCROSS	n/a	n/a	n/a	n/a	n/a	n/a	n/a	n/a
186.4351	0.4833	INK	67	Incongruent	czerwony	red	żółty	yellow	hit	n/a
186.9057	n/a	RESPONSE	n/a	n/a	n/a	n/a	n/a	n/a	n/a	yellow
186.9184	1.0	ITI	n/a	n/a	n/a	n/a	n/a	n/a	n/a	n/a
187.9184	0.5	FIXCROSS	n/a	n/a	n/a	n/a	n/a	n/a	n/a	n/a
188.4183	0.55	INK	68	Incongruent	żółty	yellow	niebieski	blue	incorrect	n/a
188.9522	n/a	RESPONSE	n/a	n/a	n/a	n/a	n/a	n/a	n/a	red
188.9683	1.0	ITI	n/a	n/a	n/a	n/a	n/a	n/a	n/a	n/a
189.2399	n/a	RESPONSE	n/a	n/a	n/a	n/a	n/a	n/a	n/a	blue
189.9683	0.5	FIXCROSS	n/a	n/a	n/a	n/a	n/a	n/a	n/a	n/a
190.4683	0.5833	INK	69	Neutral	xxxxxxxxx	xxxxxxxxx	żółty	yellow	hit	n/a
191.0466	n/a	RESPONSE	n/a	n/a	n/a	n/a	n/a	n/a	n/a	yellow
191.0516	1.0	ITI	n/a	n/a	n/a	n/a	n/a	n/a	n/a	n/a
192.0516	0.5	FIXCROSS	n/a	n/a	n/a	n/a	n/a	n/a	n/a	n/a
192.5516	0.5667	INK	70	Incongruent	zielony	green	czerwony	red	hit	n/a
193.1091	n/a	RESPONSE	n/a	n/a	n/a	n/a	n/a	n/a	n/a	red
193.1183	1.0	ITI	n/a	n/a	n/a	n/a	n/a	n/a	n/a	n/a
194.1182	0.5	FIXCROSS	n/a	n/a	n/a	n/a	n/a	n/a	n/a	n/a
194.6182	0.4	INK	71	Incongruent	czerwony	red	niebieski	blue	hit	n/a
195.0119	n/a	RESPONSE	n/a	n/a	n/a	n/a	n/a	n/a	n/a	blue
195.0182	1.0	ITI	n/a	n/a	n/a	n/a	n/a	n/a	n/a	n/a
196.0182	0.5	FIXCROSS	n/a	n/a	n/a	n/a	n/a	n/a	n/a	n/a
196.5182	0.6167	INK	72	Neutral	xxxxxxx	xxxxxxx	żółty	yellow	hit	n/a
197.1223	n/a	RESPONSE	n/a	n/a	n/a	n/a	n/a	n/a	n/a	yellow
197.1348	1.0333	ITI	n/a	n/a	n/a	n/a	n/a	n/a	n/a	n/a
202.5584	n/a	RESPONSE	n/a	n/a	n/a	n/a	n/a	n/a	n/a	n/a
202.5847	1.0	ITI	n/a	n/a	n/a	n/a	n/a	n/a	n/a	n/a
203.5847	0.5	FIXCROSS	n/a	n/a	n/a	n/a	n/a	n/a	n/a	n/a
204.0847	2.3	T_COLOR_NAME	1	Neutral	żółty	yellow	Neutral	Neutral	hit	n/a
206.3637	n/a	RESPONSE	n/a	n/a	n/a	n/a	n/a	n/a	n/a	yellow
206.3846	0.5	FEEDBACK	n/a	n/a	n/a	n/a	n/a	n/a	n/a	n/a
206.8846	1.0	ITI	n/a	n/a	n/a	n/a	n/a	n/a	n/a	n/a
207.8846	0.5	FIXCROSS	n/a	n/a	n/a	n/a	n/a	n/a	n/a	n/a
208.3846	0.95	T_COLOR_NAME	2	Neutral	niebieski	blue	Neutral	Neutral	hit	n/a
209.3216	n/a	RESPONSE	n/a	n/a	n/a	n/a	n/a	n/a	n/a	blue
209.3346	0.5	FEEDBACK	n/a	n/a	n/a	n/a	n/a	n/a	n/a	n/a
209.8346	1.0	ITI	n/a	n/a	n/a	n/a	n/a	n/a	n/a	n/a
210.8346	0.5	FIXCROSS	n/a	n/a	n/a	n/a	n/a	n/a	n/a	n/a
211.3345	0.9166	T_COLOR_NAME	3	Incongruent	niebieski	blue	zielony	green	hit	n/a
212.2315	n/a	RESPONSE	n/a	n/a	n/a	n/a	n/a	n/a	n/a	blue
212.2512	0.5	FEEDBACK	n/a	n/a	n/a	n/a	n/a	n/a	n/a	n/a
212.7512	1.0	ITI	n/a	n/a	n/a	n/a	n/a	n/a	n/a	n/a
213.7512	0.5	FIXCROSS	n/a	n/a	n/a	n/a	n/a	n/a	n/a	n/a
214.2512	0.9	T_COLOR_NAME	4	Neutral	zielony	green	Neutral	Neutral	hit	n/a
215.1415	n/a	RESPONSE	n/a	n/a	n/a	n/a	n/a	n/a	n/a	green
215.1511	0.5	FEEDBACK	n/a	n/a	n/a	n/a	n/a	n/a	n/a	n/a
215.6511	1.0	ITI	n/a	n/a	n/a	n/a	n/a	n/a	n/a	n/a
216.6511	0.5	FIXCROSS	n/a	n/a	n/a	n/a	n/a	n/a	n/a	n/a
217.1511	0.5833	T_COLOR_NAME	5	Incongruent	niebieski	blue	żółty	yellow	incorrect	n/a
217.7154	n/a	RESPONSE	n/a	n/a	n/a	n/a	n/a	n/a	n/a	yellow
217.7344	0.5	FEEDBACK	n/a	n/a	n/a	n/a	n/a	n/a	n/a	n/a
218.2344	1.0	ITI	n/a	n/a	n/a	n/a	n/a	n/a	n/a	n/a
219.2344	0.5	FIXCROSS	n/a	n/a	n/a	n/a	n/a	n/a	n/a	n/a
219.7344	1.1	T_COLOR_NAME	6	Incongruent	czerwony	red	zielony	green	hit	n/a
220.817	n/a	RESPONSE	n/a	n/a	n/a	n/a	n/a	n/a	n/a	red
220.8343	0.5	FEEDBACK	n/a	n/a	n/a	n/a	n/a	n/a	n/a	n/a
221.3343	1.0	ITI	n/a	n/a	n/a	n/a	n/a	n/a	n/a	n/a
222.3343	0.5	FIXCROSS	n/a	n/a	n/a	n/a	n/a	n/a	n/a	n/a
222.8343	0.7333	T_COLOR_NAME	7	Incongruent	czerwony	red	żółty	yellow	hit	n/a
223.3582	n/a	RESPONSE	n/a	n/a	n/a	n/a	n/a	n/a	n/a	red
223.5676	0.5	FEEDBACK	n/a	n/a	n/a	n/a	n/a	n/a	n/a	n/a
224.0676	1.0	ITI	n/a	n/a	n/a	n/a	n/a	n/a	n/a	n/a
225.0676	0.5	FIXCROSS	n/a	n/a	n/a	n/a	n/a	n/a	n/a	n/a
225.5676	0.65	T_COLOR_NAME	8	Neutral	żółty	yellow	Neutral	Neutral	hit	n/a
226.2038	n/a	RESPONSE	n/a	n/a	n/a	n/a	n/a	n/a	n/a	yellow
226.2176	0.5	FEEDBACK	n/a	n/a	n/a	n/a	n/a	n/a	n/a	n/a
226.7176	1.0	ITI	n/a	n/a	n/a	n/a	n/a	n/a	n/a	n/a
227.7175	0.5	FIXCROSS	n/a	n/a	n/a	n/a	n/a	n/a	n/a	n/a
228.2175	0.45	T_COLOR_NAME	9	Neutral	niebieski	blue	Neutral	Neutral	hit	n/a
228.6498	n/a	RESPONSE	n/a	n/a	n/a	n/a	n/a	n/a	n/a	blue
228.6675	0.5	FEEDBACK	n/a	n/a	n/a	n/a	n/a	n/a	n/a	n/a
229.1675	1.0	ITI	n/a	n/a	n/a	n/a	n/a	n/a	n/a	n/a
230.1675	0.5	FIXCROSS	n/a	n/a	n/a	n/a	n/a	n/a	n/a	n/a
230.6675	1.2	T_COLOR_NAME	10	Incongruent	zielony	green	żółty	yellow	hit	n/a
231.8627	n/a	RESPONSE	n/a	n/a	n/a	n/a	n/a	n/a	n/a	green
231.8675	0.5	FEEDBACK	n/a	n/a	n/a	n/a	n/a	n/a	n/a	n/a
232.3675	1.0	ITI	n/a	n/a	n/a	n/a	n/a	n/a	n/a	n/a
233.3674	0.5	FIXCROSS	n/a	n/a	n/a	n/a	n/a	n/a	n/a	n/a
233.8674	1.4333	T_COLOR_NAME	11	Incongruent	niebieski	blue	czerwony	red	hit	n/a
235.284	n/a	RESPONSE	n/a	n/a	n/a	n/a	n/a	n/a	n/a	blue
235.3007	0.5	FEEDBACK	n/a	n/a	n/a	n/a	n/a	n/a	n/a	n/a
235.8007	1.0	ITI	n/a	n/a	n/a	n/a	n/a	n/a	n/a	n/a
236.8007	0.5	FIXCROSS	n/a	n/a	n/a	n/a	n/a	n/a	n/a	n/a
237.3007	0.6333	T_COLOR_NAME	12	Incongruent	żółty	yellow	czerwony	red	hit	n/a
237.922	n/a	RESPONSE	n/a	n/a	n/a	n/a	n/a	n/a	n/a	yellow
237.934	0.5	FEEDBACK	n/a	n/a	n/a	n/a	n/a	n/a	n/a	n/a
238.434	1.0	ITI	n/a	n/a	n/a	n/a	n/a	n/a	n/a	n/a
243.4699	n/a	RESPONSE	n/a	n/a	n/a	n/a	n/a	n/a	n/a	n/a
243.5006	1.0	ITI	n/a	n/a	n/a	n/a	n/a	n/a	n/a	n/a
244.5005	0.5	FIXCROSS	n/a	n/a	n/a	n/a	n/a	n/a	n/a	n/a
245.0005	0.9	COLOR_NAME	1	Neutral	niebieski	blue	Neutral	Neutral	hit	n/a
245.8842	n/a	RESPONSE	n/a	n/a	n/a	n/a	n/a	n/a	n/a	blue
245.9005	1.0	ITI	n/a	n/a	n/a	n/a	n/a	n/a	n/a	n/a
246.9005	0.5	FIXCROSS	n/a	n/a	n/a	n/a	n/a	n/a	n/a	n/a
247.4005	1.1833	COLOR_NAME	2	Incongruent	zielony	green	niebieski	blue	hit	n/a
248.5701	n/a	RESPONSE	n/a	n/a	n/a	n/a	n/a	n/a	n/a	green
248.5838	1.0	ITI	n/a	n/a	n/a	n/a	n/a	n/a	n/a	n/a
249.5838	0.5	FIXCROSS	n/a	n/a	n/a	n/a	n/a	n/a	n/a	n/a
250.0838	0.6166	COLOR_NAME	3	Neutral	żółty	yellow	Neutral	Neutral	hit	n/a
250.6963	n/a	RESPONSE	n/a	n/a	n/a	n/a	n/a	n/a	n/a	yellow
250.7004	1.0	ITI	n/a	n/a	n/a	n/a	n/a	n/a	n/a	n/a
251.7004	0.5	FIXCROSS	n/a	n/a	n/a	n/a	n/a	n/a	n/a	n/a
252.2004	0.7833	COLOR_NAME	4	Incongruent	czerwony	red	żółty	yellow	hit	n/a
252.9666	n/a	RESPONSE	n/a	n/a	n/a	n/a	n/a	n/a	n/a	red
252.9837	1.0	ITI	n/a	n/a	n/a	n/a	n/a	n/a	n/a	n/a
253.9837	0.5	FIXCROSS	n/a	n/a	n/a	n/a	n/a	n/a	n/a	n/a
254.4837	0.6	COLOR_NAME	5	Neutral	niebieski	blue	Neutral	Neutral	hit	n/a
255.0771	n/a	RESPONSE	n/a	n/a	n/a	n/a	n/a	n/a	n/a	blue
255.0837	1.0	ITI	n/a	n/a	n/a	n/a	n/a	n/a	n/a	n/a
256.0837	0.5	FIXCROSS	n/a	n/a	n/a	n/a	n/a	n/a	n/a	n/a
256.5836	0.6333	COLOR_NAME	6	Neutral	czerwony	red	Neutral	Neutral	hit	n/a
257.2036	n/a	RESPONSE	n/a	n/a	n/a	n/a	n/a	n/a	n/a	red
257.217	1.0	ITI	n/a	n/a	n/a	n/a	n/a	n/a	n/a	n/a
258.2169	0.5	FIXCROSS	n/a	n/a	n/a	n/a	n/a	n/a	n/a	n/a
258.7169	0.7833	COLOR_NAME	7	Neutral	zielony	green	Neutral	Neutral	hit	n/a
259.4899	n/a	RESPONSE	n/a	n/a	n/a	n/a	n/a	n/a	n/a	green
259.5002	1.0	ITI	n/a	n/a	n/a	n/a	n/a	n/a	n/a	n/a
260.5002	0.5	FIXCROSS	n/a	n/a	n/a	n/a	n/a	n/a	n/a	n/a
261.0002	0.4333	COLOR_NAME	8	Neutral	zielony	green	Neutral	Neutral	hit	n/a
261.4245	n/a	RESPONSE	n/a	n/a	n/a	n/a	n/a	n/a	n/a	green
261.4335	1.0	ITI	n/a	n/a	n/a	n/a	n/a	n/a	n/a	n/a
262.4335	0.5	FIXCROSS	n/a	n/a	n/a	n/a	n/a	n/a	n/a	n/a
262.9335	0.9667	COLOR_NAME	9	Incongruent	zielony	green	czerwony	red	hit	n/a
263.8868	n/a	RESPONSE	n/a	n/a	n/a	n/a	n/a	n/a	n/a	green
263.9002	1.0	ITI	n/a	n/a	n/a	n/a	n/a	n/a	n/a	n/a
264.9001	0.5	FIXCROSS	n/a	n/a	n/a	n/a	n/a	n/a	n/a	n/a
265.4001	0.5667	COLOR_NAME	10	Neutral	czerwony	red	Neutral	Neutral	hit	n/a
265.9493	n/a	RESPONSE	n/a	n/a	n/a	n/a	n/a	n/a	n/a	red
265.9668	1.0	ITI	n/a	n/a	n/a	n/a	n/a	n/a	n/a	n/a
266.9668	0.5	FIXCROSS	n/a	n/a	n/a	n/a	n/a	n/a	n/a	n/a
267.4668	0.4833	COLOR_NAME	11	Neutral	żółty	yellow	Neutral	Neutral	hit	n/a
267.9319	n/a	RESPONSE	n/a	n/a	n/a	n/a	n/a	n/a	n/a	yellow
267.9501	0.9982	ITI	n/a	n/a	n/a	n/a	n/a	n/a	n/a	n/a
268.9483	0.5017	FIXCROSS	n/a	n/a	n/a	n/a	n/a	n/a	n/a	n/a
269.45	1.0666	COLOR_NAME	12	Incongruent	zielony	green	niebieski	blue	hit	n/a
270.506	n/a	RESPONSE	n/a	n/a	n/a	n/a	n/a	n/a	n/a	green
270.5167	1.0	ITI	n/a	n/a	n/a	n/a	n/a	n/a	n/a	n/a
271.5167	0.5	FIXCROSS	n/a	n/a	n/a	n/a	n/a	n/a	n/a	n/a
272.0167	0.6	COLOR_NAME	13	Incongruent	zielony	green	czerwony	red	hit	n/a
272.6005	n/a	RESPONSE	n/a	n/a	n/a	n/a	n/a	n/a	n/a	green
272.6166	1.0	ITI	n/a	n/a	n/a	n/a	n/a	n/a	n/a	n/a
273.6166	0.5	FIXCROSS	n/a	n/a	n/a	n/a	n/a	n/a	n/a	n/a
274.1166	0.6167	COLOR_NAME	14	Incongruent	czerwony	red	zielony	green	hit	n/a
274.7269	n/a	RESPONSE	n/a	n/a	n/a	n/a	n/a	n/a	n/a	red
274.7333	1.0	ITI	n/a	n/a	n/a	n/a	n/a	n/a	n/a	n/a
275.7333	0.5	FIXCROSS	n/a	n/a	n/a	n/a	n/a	n/a	n/a	n/a
276.2332	0.4	COLOR_NAME	15	Neutral	niebieski	blue	Neutral	Neutral	hit	n/a
276.6297	n/a	RESPONSE	n/a	n/a	n/a	n/a	n/a	n/a	n/a	blue
276.6332	1.0	ITI	n/a	n/a	n/a	n/a	n/a	n/a	n/a	n/a
277.6332	0.5	FIXCROSS	n/a	n/a	n/a	n/a	n/a	n/a	n/a	n/a
278.1332	0.5667	COLOR_NAME	16	Neutral	zielony	green	Neutral	Neutral	hit	n/a
278.6921	n/a	RESPONSE	n/a	n/a	n/a	n/a	n/a	n/a	n/a	green
278.6999	1.0	ITI	n/a	n/a	n/a	n/a	n/a	n/a	n/a	n/a
279.6998	0.5	FIXCROSS	n/a	n/a	n/a	n/a	n/a	n/a	n/a	n/a
280.1998	0.4333	COLOR_NAME	17	Neutral	zielony	green	Neutral	Neutral	hit	n/a
280.6268	n/a	RESPONSE	n/a	n/a	n/a	n/a	n/a	n/a	n/a	green
280.6332	1.0	ITI	n/a	n/a	n/a	n/a	n/a	n/a	n/a	n/a
281.6331	0.5	FIXCROSS	n/a	n/a	n/a	n/a	n/a	n/a	n/a	n/a
282.1331	0.4833	COLOR_NAME	18	Incongruent	zielony	green	żółty	yellow	hit	n/a
282.6094	n/a	RESPONSE	n/a	n/a	n/a	n/a	n/a	n/a	n/a	green
282.6165	1.0	ITI	n/a	n/a	n/a	n/a	n/a	n/a	n/a	n/a
283.6164	0.5	FIXCROSS	n/a	n/a	n/a	n/a	n/a	n/a	n/a	n/a
284.1164	0.5333	COLOR_NAME	19	Neutral	żółty	yellow	Neutral	Neutral	hit	n/a
284.6399	n/a	RESPONSE	n/a	n/a	n/a	n/a	n/a	n/a	n/a	yellow
284.6497	1.0	ITI	n/a	n/a	n/a	n/a	n/a	n/a	n/a	n/a
285.6497	0.5	FIXCROSS	n/a	n/a	n/a	n/a	n/a	n/a	n/a	n/a
286.1497	0.7666	COLOR_NAME	20	Incongruent	niebieski	blue	zielony	green	hit	n/a
286.9102	n/a	RESPONSE	n/a	n/a	n/a	n/a	n/a	n/a	n/a	blue
286.9164	1.0	ITI	n/a	n/a	n/a	n/a	n/a	n/a	n/a	n/a
287.9163	0.5	FIXCROSS	n/a	n/a	n/a	n/a	n/a	n/a	n/a	n/a
288.4163	0.5667	COLOR_NAME	21	Neutral	czerwony	red	Neutral	Neutral	hit	n/a
288.9727	n/a	RESPONSE	n/a	n/a	n/a	n/a	n/a	n/a	n/a	red
288.983	1.0	ITI	n/a	n/a	n/a	n/a	n/a	n/a	n/a	n/a
289.983	0.5	FIXCROSS	n/a	n/a	n/a	n/a	n/a	n/a	n/a	n/a
290.483	0.9167	COLOR_NAME	22	Incongruent	zielony	green	żółty	yellow	hit	n/a
291.3871	n/a	RESPONSE	n/a	n/a	n/a	n/a	n/a	n/a	n/a	green
291.3996	1.0	ITI	n/a	n/a	n/a	n/a	n/a	n/a	n/a	n/a
292.3996	0.5	FIXCROSS	n/a	n/a	n/a	n/a	n/a	n/a	n/a	n/a
292.8996	0.9833	COLOR_NAME	23	Incongruent	niebieski	blue	żółty	yellow	hit	n/a
293.8653	n/a	RESPONSE	n/a	n/a	n/a	n/a	n/a	n/a	n/a	blue
293.8829	1.0	ITI	n/a	n/a	n/a	n/a	n/a	n/a	n/a	n/a
294.8829	0.5	FIXCROSS	n/a	n/a	n/a	n/a	n/a	n/a	n/a	n/a
295.3829	0.95	COLOR_NAME	24	Incongruent	żółty	yellow	zielony	green	hit	n/a
296.3275	n/a	RESPONSE	n/a	n/a	n/a	n/a	n/a	n/a	n/a	yellow
296.3329	1.0	ITI	n/a	n/a	n/a	n/a	n/a	n/a	n/a	n/a
297.3328	0.5	FIXCROSS	n/a	n/a	n/a	n/a	n/a	n/a	n/a	n/a
297.8328	0.8667	COLOR_NAME	25	Neutral	zielony	green	Neutral	Neutral	hit	n/a
298.6938	n/a	RESPONSE	n/a	n/a	n/a	n/a	n/a	n/a	n/a	green
298.6995	1.0	ITI	n/a	n/a	n/a	n/a	n/a	n/a	n/a	n/a
299.6994	0.5	FIXCROSS	n/a	n/a	n/a	n/a	n/a	n/a	n/a	n/a
300.1994	0.8	COLOR_NAME	26	Neutral	żółty	yellow	Neutral	Neutral	hit	n/a
300.9802	n/a	RESPONSE	n/a	n/a	n/a	n/a	n/a	n/a	n/a	yellow
300.9994	1.0	ITI	n/a	n/a	n/a	n/a	n/a	n/a	n/a	n/a
301.9994	0.5	FIXCROSS	n/a	n/a	n/a	n/a	n/a	n/a	n/a	n/a
302.4994	0.8833	COLOR_NAME	27	Incongruent	czerwony	red	żółty	yellow	hit	n/a
303.3785	n/a	RESPONSE	n/a	n/a	n/a	n/a	n/a	n/a	n/a	red
303.3827	1.0	ITI	n/a	n/a	n/a	n/a	n/a	n/a	n/a	n/a
304.3827	0.5	FIXCROSS	n/a	n/a	n/a	n/a	n/a	n/a	n/a	n/a
304.8827	0.4667	COLOR_NAME	28	Neutral	czerwony	red	Neutral	Neutral	hit	n/a
305.3451	n/a	RESPONSE	n/a	n/a	n/a	n/a	n/a	n/a	n/a	red
305.3493	1.0	ITI	n/a	n/a	n/a	n/a	n/a	n/a	n/a	n/a
306.3493	0.5	FIXCROSS	n/a	n/a	n/a	n/a	n/a	n/a	n/a	n/a
306.8493	0.4666	COLOR_NAME	29	Incongruent	czerwony	red	zielony	green	hit	n/a
307.3115	n/a	RESPONSE	n/a	n/a	n/a	n/a	n/a	n/a	n/a	red
307.316	1.0	ITI	n/a	n/a	n/a	n/a	n/a	n/a	n/a	n/a
308.3159	0.5	FIXCROSS	n/a	n/a	n/a	n/a	n/a	n/a	n/a	n/a
308.8159	0.9	COLOR_NAME	30	Incongruent	niebieski	blue	żółty	yellow	hit	n/a
309.7099	n/a	RESPONSE	n/a	n/a	n/a	n/a	n/a	n/a	n/a	blue
309.7159	1.0	ITI	n/a	n/a	n/a	n/a	n/a	n/a	n/a	n/a
310.7159	0.5	FIXCROSS	n/a	n/a	n/a	n/a	n/a	n/a	n/a	n/a
311.2159	1.3666	COLOR_NAME	31	Incongruent	żółty	yellow	czerwony	red	hit	n/a
312.5719	n/a	RESPONSE	n/a	n/a	n/a	n/a	n/a	n/a	n/a	yellow
312.5825	1.0	ITI	n/a	n/a	n/a	n/a	n/a	n/a	n/a	n/a
313.5825	0.5	FIXCROSS	n/a	n/a	n/a	n/a	n/a	n/a	n/a	n/a
314.0825	0.6667	COLOR_NAME	32	Incongruent	żółty	yellow	niebieski	blue	hit	n/a
314.7304	n/a	RESPONSE	n/a	n/a	n/a	n/a	n/a	n/a	n/a	yellow
314.7491	1.0	ITI	n/a	n/a	n/a	n/a	n/a	n/a	n/a	n/a
315.7491	0.5	FIXCROSS	n/a	n/a	n/a	n/a	n/a	n/a	n/a	n/a
316.2491	0.7333	COLOR_NAME	33	Incongruent	niebieski	blue	czerwony	red	hit	n/a
316.9687	n/a	RESPONSE	n/a	n/a	n/a	n/a	n/a	n/a	n/a	blue
316.9824	1.0	ITI	n/a	n/a	n/a	n/a	n/a	n/a	n/a	n/a
317.9824	0.5	FIXCROSS	n/a	n/a	n/a	n/a	n/a	n/a	n/a	n/a
318.4824	0.6667	COLOR_NAME	34	Incongruent	zielony	green	niebieski	blue	hit	n/a
319.1431	n/a	RESPONSE	n/a	n/a	n/a	n/a	n/a	n/a	n/a	green
319.149	1.0	ITI	n/a	n/a	n/a	n/a	n/a	n/a	n/a	n/a
320.149	0.5	FIXCROSS	n/a	n/a	n/a	n/a	n/a	n/a	n/a	n/a
320.649	0.6	COLOR_NAME	35	Incongruent	żółty	yellow	zielony	green	hit	n/a
321.2375	n/a	RESPONSE	n/a	n/a	n/a	n/a	n/a	n/a	n/a	yellow
321.249	1.0	ITI	n/a	n/a	n/a	n/a	n/a	n/a	n/a	n/a
322.249	0.5	FIXCROSS	n/a	n/a	n/a	n/a	n/a	n/a	n/a	n/a
322.749	0.6667	COLOR_NAME	36	Incongruent	zielony	green	żółty	yellow	hit	n/a
323.412	n/a	RESPONSE	n/a	n/a	n/a	n/a	n/a	n/a	n/a	green
323.4156	1.0	ITI	n/a	n/a	n/a	n/a	n/a	n/a	n/a	n/a
324.4156	0.5	FIXCROSS	n/a	n/a	n/a	n/a	n/a	n/a	n/a	n/a
324.9156	0.5	COLOR_NAME	37	Neutral	żółty	yellow	Neutral	Neutral	hit	n/a
325.4106	n/a	RESPONSE	n/a	n/a	n/a	n/a	n/a	n/a	n/a	yellow
325.4156	1.0	ITI	n/a	n/a	n/a	n/a	n/a	n/a	n/a	n/a
326.4156	0.5	FIXCROSS	n/a	n/a	n/a	n/a	n/a	n/a	n/a	n/a
326.9156	0.85	COLOR_NAME	38	Incongruent	niebieski	blue	żółty	yellow	hit	n/a
327.761	n/a	RESPONSE	n/a	n/a	n/a	n/a	n/a	n/a	n/a	blue
327.7655	1.0	ITI	n/a	n/a	n/a	n/a	n/a	n/a	n/a	n/a
328.7655	0.5	FIXCROSS	n/a	n/a	n/a	n/a	n/a	n/a	n/a	n/a
329.2655	0.4667	COLOR_NAME	39	Incongruent	żółty	yellow	zielony	green	incorrect	n/a
329.7275	n/a	RESPONSE	n/a	n/a	n/a	n/a	n/a	n/a	n/a	green
329.7322	1.0	ITI	n/a	n/a	n/a	n/a	n/a	n/a	n/a	n/a
330.7322	0.5	FIXCROSS	n/a	n/a	n/a	n/a	n/a	n/a	n/a	n/a
331.2322	1.0166	COLOR_NAME	40	Incongruent	czerwony	red	niebieski	blue	incorrect	n/a
332.2377	n/a	RESPONSE	n/a	n/a	n/a	n/a	n/a	n/a	n/a	blue
332.2488	1.0	ITI	n/a	n/a	n/a	n/a	n/a	n/a	n/a	n/a
333.2488	0.5	FIXCROSS	n/a	n/a	n/a	n/a	n/a	n/a	n/a	n/a
333.7488	0.8666	COLOR_NAME	41	Neutral	czerwony	red	Neutral	Neutral	hit	n/a
334.6041	n/a	RESPONSE	n/a	n/a	n/a	n/a	n/a	n/a	n/a	red
334.6154	1.0	ITI	n/a	n/a	n/a	n/a	n/a	n/a	n/a	n/a
335.6154	0.5	FIXCROSS	n/a	n/a	n/a	n/a	n/a	n/a	n/a	n/a
336.1154	0.45	COLOR_NAME	42	Neutral	czerwony	red	Neutral	Neutral	hit	n/a
336.5547	n/a	RESPONSE	n/a	n/a	n/a	n/a	n/a	n/a	n/a	red
336.5654	1.0	ITI	n/a	n/a	n/a	n/a	n/a	n/a	n/a	n/a
337.5653	0.5	FIXCROSS	n/a	n/a	n/a	n/a	n/a	n/a	n/a	n/a
338.0653	1.1166	COLOR_NAME	43	Incongruent	żółty	yellow	niebieski	blue	hit	n/a
339.1767	n/a	RESPONSE	n/a	n/a	n/a	n/a	n/a	n/a	n/a	yellow
339.182	1.0	ITI	n/a	n/a	n/a	n/a	n/a	n/a	n/a	n/a
340.182	0.5	FIXCROSS	n/a	n/a	n/a	n/a	n/a	n/a	n/a	n/a
340.682	0.7166	COLOR_NAME	44	Incongruent	zielony	green	czerwony	red	hit	n/a
341.3832	n/a	RESPONSE	n/a	n/a	n/a	n/a	n/a	n/a	n/a	green
341.3986	1.0	ITI	n/a	n/a	n/a	n/a	n/a	n/a	n/a	n/a
342.3986	0.5	FIXCROSS	n/a	n/a	n/a	n/a	n/a	n/a	n/a	n/a
342.8986	1.0333	COLOR_NAME	45	Incongruent	czerwony	red	zielony	green	hit	n/a
343.9254	n/a	RESPONSE	n/a	n/a	n/a	n/a	n/a	n/a	n/a	red
343.9319	1.0	ITI	n/a	n/a	n/a	n/a	n/a	n/a	n/a	n/a
344.9319	0.5	FIXCROSS	n/a	n/a	n/a	n/a	n/a	n/a	n/a	n/a
345.4319	0.4333	COLOR_NAME	46	Neutral	czerwony	red	Neutral	Neutral	hit	n/a
345.86	n/a	RESPONSE	n/a	n/a	n/a	n/a	n/a	n/a	n/a	red
345.8652	1.0	ITI	n/a	n/a	n/a	n/a	n/a	n/a	n/a	n/a
346.8652	0.5	FIXCROSS	n/a	n/a	n/a	n/a	n/a	n/a	n/a	n/a
347.3652	0.5667	COLOR_NAME	47	Neutral	niebieski	blue	Neutral	Neutral	hit	n/a
347.9224	n/a	RESPONSE	n/a	n/a	n/a	n/a	n/a	n/a	n/a	blue
347.9318	1.0	ITI	n/a	n/a	n/a	n/a	n/a	n/a	n/a	n/a
348.9318	0.5	FIXCROSS	n/a	n/a	n/a	n/a	n/a	n/a	n/a	n/a
349.4318	0.5333	COLOR_NAME	48	Incongruent	czerwony	red	niebieski	blue	hit	n/a
349.953	n/a	RESPONSE	n/a	n/a	n/a	n/a	n/a	n/a	n/a	red
349.9651	1.0	ITI	n/a	n/a	n/a	n/a	n/a	n/a	n/a	n/a
350.9651	0.5	FIXCROSS	n/a	n/a	n/a	n/a	n/a	n/a	n/a	n/a
351.4651	0.3833	COLOR_NAME	49	Neutral	niebieski	blue	Neutral	Neutral	hit	n/a
351.8397	n/a	RESPONSE	n/a	n/a	n/a	n/a	n/a	n/a	n/a	blue
351.8484	1.0	ITI	n/a	n/a	n/a	n/a	n/a	n/a	n/a	n/a
352.8484	0.5	FIXCROSS	n/a	n/a	n/a	n/a	n/a	n/a	n/a	n/a
353.3484	0.3833	COLOR_NAME	50	Neutral	zielony	green	Neutral	Neutral	hit	n/a
353.7262	n/a	RESPONSE	n/a	n/a	n/a	n/a	n/a	n/a	n/a	green
353.7317	1.0	ITI	n/a	n/a	n/a	n/a	n/a	n/a	n/a	n/a
354.7317	0.5	FIXCROSS	n/a	n/a	n/a	n/a	n/a	n/a	n/a	n/a
355.2317	0.75	COLOR_NAME	51	Incongruent	żółty	yellow	czerwony	red	hit	n/a
355.9647	n/a	RESPONSE	n/a	n/a	n/a	n/a	n/a	n/a	n/a	yellow
355.9817	1.0	ITI	n/a	n/a	n/a	n/a	n/a	n/a	n/a	n/a
356.9816	0.5	FIXCROSS	n/a	n/a	n/a	n/a	n/a	n/a	n/a	n/a
357.4816	0.65	COLOR_NAME	52	Incongruent	niebieski	blue	zielony	green	incorrect	n/a
358.1231	n/a	RESPONSE	n/a	n/a	n/a	n/a	n/a	n/a	n/a	green
358.1316	1.0	ITI	n/a	n/a	n/a	n/a	n/a	n/a	n/a	n/a
359.1316	0.5	FIXCROSS	n/a	n/a	n/a	n/a	n/a	n/a	n/a	n/a
359.6316	1.3333	COLOR_NAME	53	Incongruent	niebieski	blue	czerwony	red	hit	n/a
360.9531	n/a	RESPONSE	n/a	n/a	n/a	n/a	n/a	n/a	n/a	blue
360.9649	1.0	ITI	n/a	n/a	n/a	n/a	n/a	n/a	n/a	n/a
361.9649	0.5	FIXCROSS	n/a	n/a	n/a	n/a	n/a	n/a	n/a	n/a
362.4649	0.5333	COLOR_NAME	54	Neutral	żółty	yellow	Neutral	Neutral	hit	n/a
362.9835	n/a	RESPONSE	n/a	n/a	n/a	n/a	n/a	n/a	n/a	yellow
362.9982	1.0	ITI	n/a	n/a	n/a	n/a	n/a	n/a	n/a	n/a
363.9982	0.5	FIXCROSS	n/a	n/a	n/a	n/a	n/a	n/a	n/a	n/a
364.4982	0.6833	COLOR_NAME	55	Neutral	żółty	yellow	Neutral	Neutral	hit	n/a
365.174	n/a	RESPONSE	n/a	n/a	n/a	n/a	n/a	n/a	n/a	yellow
365.1815	1.0	ITI	n/a	n/a	n/a	n/a	n/a	n/a	n/a	n/a
365.254	n/a	RESPONSE	n/a	n/a	n/a	n/a	n/a	n/a	n/a	yellow
366.1814	0.5	FIXCROSS	n/a	n/a	n/a	n/a	n/a	n/a	n/a	n/a
366.6814	0.4	COLOR_NAME	56	Neutral	niebieski	blue	Neutral	Neutral	hit	n/a
367.0767	n/a	RESPONSE	n/a	n/a	n/a	n/a	n/a	n/a	n/a	blue
367.0814	1.0	ITI	n/a	n/a	n/a	n/a	n/a	n/a	n/a	n/a
368.0814	0.5	FIXCROSS	n/a	n/a	n/a	n/a	n/a	n/a	n/a	n/a
368.5814	0.55	COLOR_NAME	57	Neutral	czerwony	red	Neutral	Neutral	hit	n/a
369.1231	n/a	RESPONSE	n/a	n/a	n/a	n/a	n/a	n/a	n/a	red
369.1314	1.0	ITI	n/a	n/a	n/a	n/a	n/a	n/a	n/a	n/a
370.1314	0.5	FIXCROSS	n/a	n/a	n/a	n/a	n/a	n/a	n/a	n/a
370.6314	0.4667	COLOR_NAME	58	Incongruent	niebieski	blue	zielony	green	hit	n/a
371.0898	n/a	RESPONSE	n/a	n/a	n/a	n/a	n/a	n/a	n/a	blue
371.098	1.0	ITI	n/a	n/a	n/a	n/a	n/a	n/a	n/a	n/a
372.098	0.5	FIXCROSS	n/a	n/a	n/a	n/a	n/a	n/a	n/a	n/a
372.598	0.4667	COLOR_NAME	59	Incongruent	niebieski	blue	czerwony	red	hit	n/a
373.0563	n/a	RESPONSE	n/a	n/a	n/a	n/a	n/a	n/a	n/a	blue
373.0646	1.0	ITI	n/a	n/a	n/a	n/a	n/a	n/a	n/a	n/a
374.0646	0.5	FIXCROSS	n/a	n/a	n/a	n/a	n/a	n/a	n/a	n/a
374.5646	0.55	COLOR_NAME	60	Neutral	niebieski	blue	Neutral	Neutral	hit	n/a
375.1028	n/a	RESPONSE	n/a	n/a	n/a	n/a	n/a	n/a	n/a	blue
375.1146	1.0	ITI	n/a	n/a	n/a	n/a	n/a	n/a	n/a	n/a
376.1146	0.5	FIXCROSS	n/a	n/a	n/a	n/a	n/a	n/a	n/a	n/a
376.6146	0.5333	COLOR_NAME	61	Incongruent	żółty	yellow	niebieski	blue	hit	n/a
377.1335	n/a	RESPONSE	n/a	n/a	n/a	n/a	n/a	n/a	n/a	yellow
377.1479	1.0	ITI	n/a	n/a	n/a	n/a	n/a	n/a	n/a	n/a
378.1479	0.5	FIXCROSS	n/a	n/a	n/a	n/a	n/a	n/a	n/a	n/a
378.6479	0.5667	COLOR_NAME	62	Neutral	czerwony	red	Neutral	Neutral	hit	n/a
379.196	n/a	RESPONSE	n/a	n/a	n/a	n/a	n/a	n/a	n/a	red
379.2145	1.0	ITI	n/a	n/a	n/a	n/a	n/a	n/a	n/a	n/a
380.2145	0.5	FIXCROSS	n/a	n/a	n/a	n/a	n/a	n/a	n/a	n/a
380.7145	0.4333	COLOR_NAME	63	Neutral	zielony	green	Neutral	Neutral	hit	n/a
381.1305	n/a	RESPONSE	n/a	n/a	n/a	n/a	n/a	n/a	n/a	green
381.1478	1.0	ITI	n/a	n/a	n/a	n/a	n/a	n/a	n/a	n/a
382.1478	0.5	FIXCROSS	n/a	n/a	n/a	n/a	n/a	n/a	n/a	n/a
382.6478	0.5	COLOR_NAME	64	Neutral	niebieski	blue	Neutral	Neutral	hit	n/a
383.1291	n/a	RESPONSE	n/a	n/a	n/a	n/a	n/a	n/a	n/a	blue
383.1478	1.0	ITI	n/a	n/a	n/a	n/a	n/a	n/a	n/a	n/a
384.1478	0.5	FIXCROSS	n/a	n/a	n/a	n/a	n/a	n/a	n/a	n/a
384.6477	0.4833	COLOR_NAME	65	Neutral	żółty	yellow	Neutral	Neutral	hit	n/a
385.1277	n/a	RESPONSE	n/a	n/a	n/a	n/a	n/a	n/a	n/a	yellow
385.1311	1.0	ITI	n/a	n/a	n/a	n/a	n/a	n/a	n/a	n/a
386.1311	0.5	FIXCROSS	n/a	n/a	n/a	n/a	n/a	n/a	n/a	n/a
386.631	0.6	COLOR_NAME	66	Neutral	niebieski	blue	Neutral	Neutral	hit	n/a
387.2222	n/a	RESPONSE	n/a	n/a	n/a	n/a	n/a	n/a	n/a	blue
387.231	1.0	ITI	n/a	n/a	n/a	n/a	n/a	n/a	n/a	n/a
388.231	0.5	FIXCROSS	n/a	n/a	n/a	n/a	n/a	n/a	n/a	n/a
388.731	1.05	COLOR_NAME	67	Neutral	zielony	green	Neutral	Neutral	incorrect	n/a
389.7644	n/a	RESPONSE	n/a	n/a	n/a	n/a	n/a	n/a	n/a	yellow
389.781	1.0	ITI	n/a	n/a	n/a	n/a	n/a	n/a	n/a	n/a
390.7809	0.5	FIXCROSS	n/a	n/a	n/a	n/a	n/a	n/a	n/a	n/a
391.2809	0.75	COLOR_NAME	68	Neutral	żółty	yellow	Neutral	Neutral	hit	n/a
392.0188	n/a	RESPONSE	n/a	n/a	n/a	n/a	n/a	n/a	n/a	yellow
392.0309	1.0	ITI	n/a	n/a	n/a	n/a	n/a	n/a	n/a	n/a
393.0309	0.5	FIXCROSS	n/a	n/a	n/a	n/a	n/a	n/a	n/a	n/a
393.5309	0.65	COLOR_NAME	69	Incongruent	czerwony	red	żółty	yellow	hit	n/a
394.1773	n/a	RESPONSE	n/a	n/a	n/a	n/a	n/a	n/a	n/a	red
394.1809	1.0	ITI	n/a	n/a	n/a	n/a	n/a	n/a	n/a	n/a
395.1809	0.5	FIXCROSS	n/a	n/a	n/a	n/a	n/a	n/a	n/a	n/a
395.6809	0.7	COLOR_NAME	70	Neutral	zielony	green	Neutral	Neutral	hit	n/a
396.3677	n/a	RESPONSE	n/a	n/a	n/a	n/a	n/a	n/a	n/a	green
396.3808	1.0	ITI	n/a	n/a	n/a	n/a	n/a	n/a	n/a	n/a
397.3808	0.5	FIXCROSS	n/a	n/a	n/a	n/a	n/a	n/a	n/a	n/a
397.8808	1.2833	COLOR_NAME	71	Incongruent	żółty	yellow	czerwony	red	hit	n/a
399.1497	n/a	RESPONSE	n/a	n/a	n/a	n/a	n/a	n/a	n/a	yellow
399.1641	1.0	ITI	n/a	n/a	n/a	n/a	n/a	n/a	n/a	n/a
400.1641	0.5	FIXCROSS	n/a	n/a	n/a	n/a	n/a	n/a	n/a	n/a
400.6641	0.9667	COLOR_NAME	72	Incongruent	czerwony	red	niebieski	blue	hit	n/a
401.612	n/a	RESPONSE	n/a	n/a	n/a	n/a	n/a	n/a	n/a	red
401.6307	1.0	ITI	n/a	n/a	n/a	n/a	n/a	n/a	n/a	n/a
405.8489	n/a	RESPONSE	n/a	n/a	n/a	n/a	n/a	n/a	n/a	n/a
