onset	duration	trial_type	n_back_condition	trial_number	stimulus	response_type
0.0	n/a	RESPONSE	n/a	n/a	n/a	n/a
0.0348	1.0	ISI	n/a	n/a	n/a	n/a
1.0347	0.5	DISTRACTOR	1	1	A	Correct Rejection
1.5347	1.0	ISI	n/a	n/a	n/a	n/a
2.5347	0.5	DISTRACTOR	1	2	G	Correct Rejection
3.0347	1.0	ISI	n/a	n/a	n/a	n/a
4.0347	0.5	DISTRACTOR	1	3	B	Correct Rejection
4.5347	1.0	ISI	n/a	n/a	n/a	n/a
5.5346	0.5	DISTRACTOR	1	4	H	Correct Rejection
6.0346	1.0	ISI	n/a	n/a	n/a	n/a
7.0346	0.5	DISTRACTOR	1	5	G	Correct Rejection
7.5346	1.0	ISI	n/a	n/a	n/a	n/a
8.5346	0.5	DISTRACTOR	1	6	D	Correct Rejection
9.0346	1.0	ISI	n/a	n/a	n/a	n/a
10.0346	0.5	DISTRACTOR	1	7	J	Correct Rejection
10.5345	1.0	ISI	n/a	n/a	n/a	n/a
11.5345	0.5	TARGET	1	8	J	Hit
11.9594	n/a	RESPONSE	n/a	n/a	n/a	n/a
12.0345	1.0	ISI	n/a	n/a	n/a	n/a
13.0345	0.5	DISTRACTOR	1	9	D	Correct Rejection
13.5345	1.0	ISI	n/a	n/a	n/a	n/a
14.5345	0.5	TARGET	1	10	D	Hit
15.0132	n/a	RESPONSE	n/a	n/a	n/a	n/a
15.0345	1.0	ISI	n/a	n/a	n/a	n/a
16.0344	0.5	DISTRACTOR	1	11	A	Correct Rejection
16.5344	1.0	ISI	n/a	n/a	n/a	n/a
17.5344	0.5	DISTRACTOR	1	12	H	Correct Rejection
18.0344	1.0	ISI	n/a	n/a	n/a	n/a
19.0344	0.5	DISTRACTOR	1	13	E	Correct Rejection
19.5344	1.0	ISI	n/a	n/a	n/a	n/a
20.5343	0.5	DISTRACTOR	1	14	J	Correct Rejection
21.0343	1.0	ISI	n/a	n/a	n/a	n/a
22.0343	0.5	DISTRACTOR	1	15	I	Correct Rejection
22.5343	1.0	ISI	n/a	n/a	n/a	n/a
23.5343	0.5	DISTRACTOR	1	16	A	Correct Rejection
24.0343	1.0	ISI	n/a	n/a	n/a	n/a
25.0343	0.5	DISTRACTOR	1	17	C	Correct Rejection
25.5342	1.0	ISI	n/a	n/a	n/a	n/a
26.5342	0.5	DISTRACTOR	1	18	J	Correct Rejection
27.0342	1.0	ISI	n/a	n/a	n/a	n/a
28.0342	0.5	TARGET	1	19	J	Hit
28.3476	n/a	RESPONSE	n/a	n/a	n/a	n/a
28.5342	1.0	ISI	n/a	n/a	n/a	n/a
29.5342	0.5	DISTRACTOR	1	20	G	Correct Rejection
30.0342	1.0	ISI	n/a	n/a	n/a	n/a
31.0341	0.5	DISTRACTOR	1	21	E	Correct Rejection
31.5341	1.0	ISI	n/a	n/a	n/a	n/a
32.5341	0.5	TARGET	1	22	E	Hit
32.9683	n/a	RESPONSE	n/a	n/a	n/a	n/a
33.0341	1.0	ISI	n/a	n/a	n/a	n/a
34.0341	0.5	DISTRACTOR	1	23	F	Correct Rejection
34.5341	1.0	ISI	n/a	n/a	n/a	n/a
35.534	0.5	DISTRACTOR	1	24	C	Correct Rejection
36.034	1.0	ISI	n/a	n/a	n/a	n/a
37.034	0.5	DISTRACTOR	1	25	E	Correct Rejection
37.534	1.0	ISI	n/a	n/a	n/a	n/a
38.534	0.5	DISTRACTOR	1	26	F	Correct Rejection
39.034	1.0	ISI	n/a	n/a	n/a	n/a
40.034	0.5	TARGET	1	27	F	Hit
40.534	1.0	ISI	n/a	n/a	n/a	n/a
40.5628	n/a	RESPONSE	n/a	n/a	n/a	n/a
41.5339	0.5	TARGET	1	28	F	Hit
42.0337	n/a	RESPONSE	n/a	n/a	n/a	n/a
42.0339	1.0	ISI	n/a	n/a	n/a	n/a
43.0339	0.5	DISTRACTOR	1	29	E	Correct Rejection
43.5339	1.0	ISI	n/a	n/a	n/a	n/a
44.5339	0.5	DISTRACTOR	1	30	D	Correct Rejection
45.0339	1.0	ISI	n/a	n/a	n/a	n/a
46.0338	0.5	DISTRACTOR	1	31	C	Correct Rejection
46.5338	1.0	ISI	n/a	n/a	n/a	n/a
47.5338	0.5	DISTRACTOR	1	32	A	Correct Rejection
48.0338	1.0	ISI	n/a	n/a	n/a	n/a
49.0338	0.5	DISTRACTOR	1	33	C	Correct Rejection
49.5338	1.0	ISI	n/a	n/a	n/a	n/a
50.5338	0.5	DISTRACTOR	1	34	A	Correct Rejection
51.0337	1.0	ISI	n/a	n/a	n/a	n/a
52.0337	0.5	DISTRACTOR	1	35	H	Correct Rejection
52.5337	1.0	ISI	n/a	n/a	n/a	n/a
53.5337	0.5	DISTRACTOR	1	36	G	Correct Rejection
54.0337	1.0	ISI	n/a	n/a	n/a	n/a
55.0337	0.5	DISTRACTOR	1	37	H	Correct Rejection
55.5337	1.0	ISI	n/a	n/a	n/a	n/a
56.5336	0.5	DISTRACTOR	1	38	I	Correct Rejection
57.0336	1.0	ISI	n/a	n/a	n/a	n/a
58.0336	0.5	TARGET	1	39	I	Hit
58.5336	1.0	ISI	n/a	n/a	n/a	n/a
58.5339	n/a	RESPONSE	n/a	n/a	n/a	n/a
59.5336	0.5	DISTRACTOR	1	40	B	Correct Rejection
60.0336	1.0	ISI	n/a	n/a	n/a	n/a
61.0335	0.5	DISTRACTOR	1	41	I	Correct Rejection
61.5335	1.0	ISI	n/a	n/a	n/a	n/a
62.5335	0.5	DISTRACTOR	1	42	A	Correct Rejection
63.0335	1.0	ISI	n/a	n/a	n/a	n/a
64.0335	0.5	DISTRACTOR	1	43	J	Correct Rejection
64.5335	1.0	ISI	n/a	n/a	n/a	n/a
65.5334	0.5	DISTRACTOR	1	44	I	Correct Rejection
66.0334	1.0	ISI	n/a	n/a	n/a	n/a
67.0334	0.5	DISTRACTOR	1	45	C	Correct Rejection
67.5334	1.0	ISI	n/a	n/a	n/a	n/a
68.5334	0.5	DISTRACTOR	1	46	D	Correct Rejection
69.0334	1.0	ISI	n/a	n/a	n/a	n/a
70.0334	0.5	TARGET	1	47	D	Hit
70.5333	1.0	ISI	n/a	n/a	n/a	n/a
70.5413	n/a	RESPONSE	n/a	n/a	n/a	n/a
71.5333	0.5	DISTRACTOR	1	48	C	Correct Rejection
72.0333	1.0	ISI	n/a	n/a	n/a	n/a
73.0333	0.5	TARGET	1	49	C	Hit
73.5333	1.0	ISI	n/a	n/a	n/a	n/a
73.6591	n/a	RESPONSE	n/a	n/a	n/a	n/a
74.5333	0.5	TARGET	1	50	C	Hit
75.0333	1.0333	ISI	n/a	n/a	n/a	n/a
75.178	n/a	RESPONSE	n/a	n/a	n/a	n/a
78.9513	n/a	RESPONSE	n/a	n/a	n/a	n/a
78.9832	1.0	ISI	n/a	n/a	n/a	n/a
79.9832	0.5	DISTRACTOR	2	1	H	Correct Rejection
80.4831	1.0	ISI	n/a	n/a	n/a	n/a
81.4831	0.5	DISTRACTOR	2	2	A	Correct Rejection
81.9831	1.0	ISI	n/a	n/a	n/a	n/a
82.9831	0.5	DISTRACTOR	2	3	G	Correct Rejection
83.4831	1.0	ISI	n/a	n/a	n/a	n/a
84.4831	0.5	DISTRACTOR	2	4	I	Correct Rejection
84.9831	1.0	ISI	n/a	n/a	n/a	n/a
85.983	0.5	TARGET	2	5	G	Hit
86.483	1.0	ISI	n/a	n/a	n/a	n/a
86.5299	n/a	RESPONSE	n/a	n/a	n/a	n/a
87.483	0.5	DISTRACTOR	2	6	A	Correct Rejection
87.983	1.0	ISI	n/a	n/a	n/a	n/a
88.983	0.5	DISTRACTOR	2	7	D	Correct Rejection
89.483	1.0	ISI	n/a	n/a	n/a	n/a
90.483	0.5	DISTRACTOR	2	8	G	Correct Rejection
90.9829	1.0	ISI	n/a	n/a	n/a	n/a
91.9829	0.5	TARGET	2	9	D	Hit
92.4829	1.0	ISI	n/a	n/a	n/a	n/a
92.6216	n/a	RESPONSE	n/a	n/a	n/a	n/a
93.4829	0.5	DISTRACTOR	2	10	F	Correct Rejection
93.9829	1.0	ISI	n/a	n/a	n/a	n/a
94.9829	0.5	DISTRACTOR	2	11	F	False Alarm
95.4828	1.0	ISI	n/a	n/a	n/a	n/a
95.6434	n/a	RESPONSE	n/a	n/a	n/a	n/a
96.4828	0.5	DISTRACTOR	2	12	H	Correct Rejection
96.9828	1.0	ISI	n/a	n/a	n/a	n/a
97.9828	0.5	TARGET	2	13	F	Hit
98.3934	n/a	RESPONSE	n/a	n/a	n/a	n/a
98.4828	1.0	ISI	n/a	n/a	n/a	n/a
99.4828	0.5	DISTRACTOR	2	14	F	Correct Rejection
99.9828	1.0	ISI	n/a	n/a	n/a	n/a
100.9827	0.5	DISTRACTOR	2	15	B	Correct Rejection
101.4827	1.0	ISI	n/a	n/a	n/a	n/a
102.4827	0.5	DISTRACTOR	2	16	I	Correct Rejection
102.9827	1.0	ISI	n/a	n/a	n/a	n/a
103.9827	0.5	DISTRACTOR	2	17	C	Correct Rejection
104.4827	1.0	ISI	n/a	n/a	n/a	n/a
105.4827	0.5	DISTRACTOR	2	18	H	Correct Rejection
105.9826	1.0	ISI	n/a	n/a	n/a	n/a
106.9826	0.5	TARGET	2	19	C	Hit
107.411	n/a	RESPONSE	n/a	n/a	n/a	n/a
107.4826	1.0	ISI	n/a	n/a	n/a	n/a
108.4826	0.5	DISTRACTOR	2	20	A	Correct Rejection
108.9826	1.0	ISI	n/a	n/a	n/a	n/a
109.9826	0.5	DISTRACTOR	2	21	J	Correct Rejection
110.4826	1.0	ISI	n/a	n/a	n/a	n/a
111.4825	0.5	DISTRACTOR	2	22	H	Correct Rejection
111.9825	1.0	ISI	n/a	n/a	n/a	n/a
112.9825	0.5	TARGET	2	23	J	Hit
113.4825	1.0	ISI	n/a	n/a	n/a	n/a
113.5985	n/a	RESPONSE	n/a	n/a	n/a	n/a
114.4825	0.5	TARGET	2	24	H	Hit
114.9825	1.0	ISI	n/a	n/a	n/a	n/a
115.9009	n/a	RESPONSE	n/a	n/a	n/a	n/a
115.9824	0.5	DISTRACTOR	2	25	E	Correct Rejection
116.4824	1.0	ISI	n/a	n/a	n/a	n/a
117.4824	0.5	DISTRACTOR	2	26	C	Correct Rejection
117.9824	1.0	ISI	n/a	n/a	n/a	n/a
118.9824	0.5	DISTRACTOR	2	27	F	Correct Rejection
119.4824	1.0	ISI	n/a	n/a	n/a	n/a
120.4823	0.5	DISTRACTOR	2	28	B	Correct Rejection
120.9823	1.0	ISI	n/a	n/a	n/a	n/a
121.9823	0.5	DISTRACTOR	2	29	C	False Alarm
122.4722	n/a	RESPONSE	n/a	n/a	n/a	n/a
122.4823	1.0	ISI	n/a	n/a	n/a	n/a
123.4823	0.5	DISTRACTOR	2	30	G	Correct Rejection
123.9823	1.0	ISI	n/a	n/a	n/a	n/a
124.9822	0.5	DISTRACTOR	2	31	B	Correct Rejection
125.4823	1.0	ISI	n/a	n/a	n/a	n/a
126.4822	0.5	DISTRACTOR	2	32	I	Correct Rejection
126.9822	1.0	ISI	n/a	n/a	n/a	n/a
127.9822	0.5	DISTRACTOR	2	33	E	Correct Rejection
128.4822	1.0	ISI	n/a	n/a	n/a	n/a
129.4822	0.5	DISTRACTOR	2	34	C	Correct Rejection
129.9822	1.0	ISI	n/a	n/a	n/a	n/a
130.9821	0.5	TARGET	2	35	E	Hit
131.4821	1.0	ISI	n/a	n/a	n/a	n/a
131.5216	n/a	RESPONSE	n/a	n/a	n/a	n/a
132.4821	0.5	DISTRACTOR	2	36	G	Correct Rejection
132.9821	1.0	ISI	n/a	n/a	n/a	n/a
133.9821	0.5	DISTRACTOR	2	37	H	Correct Rejection
134.4821	1.0	ISI	n/a	n/a	n/a	n/a
135.482	0.5	TARGET	2	38	G	Hit
135.9665	n/a	RESPONSE	n/a	n/a	n/a	n/a
135.982	1.0	ISI	n/a	n/a	n/a	n/a
136.982	0.5	DISTRACTOR	2	39	F	Correct Rejection
137.482	1.0	ISI	n/a	n/a	n/a	n/a
138.482	0.5	DISTRACTOR	2	40	D	Correct Rejection
138.982	1.0	ISI	n/a	n/a	n/a	n/a
139.982	0.5	DISTRACTOR	2	41	I	Correct Rejection
140.4819	1.0	ISI	n/a	n/a	n/a	n/a
141.4819	0.5	DISTRACTOR	2	42	A	Correct Rejection
141.9819	1.0	ISI	n/a	n/a	n/a	n/a
142.9819	0.5	DISTRACTOR	2	43	F	Correct Rejection
143.4819	1.0	ISI	n/a	n/a	n/a	n/a
144.4819	0.5	DISTRACTOR	2	44	E	Correct Rejection
144.9819	1.0	ISI	n/a	n/a	n/a	n/a
145.9818	0.5	TARGET	2	45	F	Hit
146.4818	1.0	ISI	n/a	n/a	n/a	n/a
146.487	n/a	RESPONSE	n/a	n/a	n/a	n/a
147.4818	0.5	DISTRACTOR	2	46	A	Correct Rejection
147.9818	1.0	ISI	n/a	n/a	n/a	n/a
148.9818	0.5	DISTRACTOR	2	47	G	Correct Rejection
149.4818	1.0	ISI	n/a	n/a	n/a	n/a
150.4818	0.5	DISTRACTOR	2	48	J	Correct Rejection
150.9817	1.0	ISI	n/a	n/a	n/a	n/a
151.9817	0.5	DISTRACTOR	2	49	F	Correct Rejection
152.4817	1.0	ISI	n/a	n/a	n/a	n/a
153.4817	0.5	TARGET	2	50	J	Hit
153.9817	1.0333	ISI	n/a	n/a	n/a	n/a
154.2094	n/a	RESPONSE	n/a	n/a	n/a	n/a
158.6063	n/a	RESPONSE	n/a	n/a	n/a	n/a
158.6316	1.0	ISI	n/a	n/a	n/a	n/a
159.6316	0.5	DISTRACTOR	3	1	H	Correct Rejection
160.1316	1.0	ISI	n/a	n/a	n/a	n/a
161.1315	0.5	DISTRACTOR	3	2	D	Correct Rejection
161.6315	1.0	ISI	n/a	n/a	n/a	n/a
162.6315	0.5	DISTRACTOR	3	3	F	Correct Rejection
163.1315	1.0	ISI	n/a	n/a	n/a	n/a
164.1315	0.5	DISTRACTOR	3	4	C	Correct Rejection
164.6315	1.0	ISI	n/a	n/a	n/a	n/a
165.6314	0.5	DISTRACTOR	3	5	J	Correct Rejection
166.1314	1.0	ISI	n/a	n/a	n/a	n/a
167.1314	0.5	DISTRACTOR	3	6	A	Correct Rejection
167.6314	1.0	ISI	n/a	n/a	n/a	n/a
168.6314	0.5	TARGET	3	7	C	Miss
169.1314	1.0	ISI	n/a	n/a	n/a	n/a
170.1314	0.5	TARGET	3	8	J	Miss
170.6314	1.0	ISI	n/a	n/a	n/a	n/a
171.6313	0.5	DISTRACTOR	3	9	I	Correct Rejection
172.1313	1.0	ISI	n/a	n/a	n/a	n/a
173.1313	0.5	DISTRACTOR	3	10	J	Correct Rejection
173.6313	1.0	ISI	n/a	n/a	n/a	n/a
174.6313	0.5	DISTRACTOR	3	11	C	Correct Rejection
175.1312	1.0	ISI	n/a	n/a	n/a	n/a
176.1312	0.5	DISTRACTOR	3	12	A	Correct Rejection
176.6312	1.0	ISI	n/a	n/a	n/a	n/a
177.6312	0.5	DISTRACTOR	3	13	E	Correct Rejection
178.1312	1.0	ISI	n/a	n/a	n/a	n/a
179.1312	0.5	DISTRACTOR	3	14	J	False Alarm
179.6312	1.0	ISI	n/a	n/a	n/a	n/a
179.951	n/a	RESPONSE	n/a	n/a	n/a	n/a
180.6311	0.5	DISTRACTOR	3	15	I	Correct Rejection
181.1311	1.0	ISI	n/a	n/a	n/a	n/a
182.1311	0.5	TARGET	3	16	E	Miss
182.6311	1.0	ISI	n/a	n/a	n/a	n/a
183.6311	0.5	DISTRACTOR	3	17	A	Correct Rejection
184.1311	1.0	ISI	n/a	n/a	n/a	n/a
185.1311	0.5	TARGET	3	18	I	Hit
185.631	1.0	ISI	n/a	n/a	n/a	n/a
185.8028	n/a	RESPONSE	n/a	n/a	n/a	n/a
186.631	0.5	TARGET	3	19	E	Miss
187.131	1.0	ISI	n/a	n/a	n/a	n/a
188.131	0.5	DISTRACTOR	3	20	G	Correct Rejection
188.631	1.0	ISI	n/a	n/a	n/a	n/a
189.631	0.5	TARGET	3	21	I	Miss
190.131	1.0	ISI	n/a	n/a	n/a	n/a
191.1309	0.5	DISTRACTOR	3	22	G	Correct Rejection
191.6309	1.0	ISI	n/a	n/a	n/a	n/a
192.6309	0.5	DISTRACTOR	3	23	F	Correct Rejection
193.1309	1.0	ISI	n/a	n/a	n/a	n/a
194.1309	0.5	DISTRACTOR	3	24	H	Correct Rejection
194.6309	1.0	ISI	n/a	n/a	n/a	n/a
195.6308	0.5	TARGET	3	25	G	Hit
196.1308	1.0	ISI	n/a	n/a	n/a	n/a
196.2913	n/a	RESPONSE	n/a	n/a	n/a	n/a
197.1308	0.5	DISTRACTOR	3	26	H	Correct Rejection
197.6308	1.0	ISI	n/a	n/a	n/a	n/a
198.6308	0.5	DISTRACTOR	3	27	C	Correct Rejection
199.1308	1.0	ISI	n/a	n/a	n/a	n/a
200.1308	0.5	DISTRACTOR	3	28	J	Correct Rejection
200.6307	1.0	ISI	n/a	n/a	n/a	n/a
201.6307	0.5	DISTRACTOR	3	29	C	False Alarm
202.1307	1.0	ISI	n/a	n/a	n/a	n/a
202.351	n/a	RESPONSE	n/a	n/a	n/a	n/a
203.1307	0.5	DISTRACTOR	3	30	G	Correct Rejection
203.6307	1.0	ISI	n/a	n/a	n/a	n/a
204.6307	0.5	DISTRACTOR	3	31	D	Correct Rejection
205.1307	1.0	ISI	n/a	n/a	n/a	n/a
206.1306	0.5	DISTRACTOR	3	32	J	Correct Rejection
206.6306	1.0	ISI	n/a	n/a	n/a	n/a
207.6306	0.5	DISTRACTOR	3	33	A	Correct Rejection
208.1306	1.0	ISI	n/a	n/a	n/a	n/a
209.1306	0.5	DISTRACTOR	3	34	C	False Alarm
209.6306	1.0	ISI	n/a	n/a	n/a	n/a
209.6418	n/a	RESPONSE	n/a	n/a	n/a	n/a
210.6305	0.5	DISTRACTOR	3	35	C	False Alarm
211.1305	1.0	ISI	n/a	n/a	n/a	n/a
211.1607	n/a	RESPONSE	n/a	n/a	n/a	n/a
212.1305	0.5	DISTRACTOR	3	36	E	Correct Rejection
212.6305	1.0	ISI	n/a	n/a	n/a	n/a
213.6305	0.5	DISTRACTOR	3	37	G	Correct Rejection
214.1305	1.0	ISI	n/a	n/a	n/a	n/a
215.1305	0.5	DISTRACTOR	3	38	B	Correct Rejection
215.6304	1.0	ISI	n/a	n/a	n/a	n/a
216.6304	0.5	DISTRACTOR	3	39	J	Correct Rejection
217.1304	1.0	ISI	n/a	n/a	n/a	n/a
218.1304	0.5	TARGET	3	40	G	Hit
218.6304	1.0	ISI	n/a	n/a	n/a	n/a
218.8672	n/a	RESPONSE	n/a	n/a	n/a	n/a
219.6304	0.5	DISTRACTOR	3	41	E	Correct Rejection
220.1304	1.0	ISI	n/a	n/a	n/a	n/a
221.1303	0.5	DISTRACTOR	3	42	H	Correct Rejection
221.6303	1.0	ISI	n/a	n/a	n/a	n/a
222.6303	0.5	DISTRACTOR	3	43	B	Correct Rejection
223.1303	1.0	ISI	n/a	n/a	n/a	n/a
224.1303	0.5	DISTRACTOR	3	44	C	Correct Rejection
224.6303	1.0	ISI	n/a	n/a	n/a	n/a
225.6303	0.5	TARGET	3	45	H	Hit
226.1302	1.0	ISI	n/a	n/a	n/a	n/a
226.3339	n/a	RESPONSE	n/a	n/a	n/a	n/a
227.1302	0.5	TARGET	3	46	B	Miss
227.6302	1.0	ISI	n/a	n/a	n/a	n/a
228.6302	0.5	DISTRACTOR	3	47	B	False Alarm
229.1302	1.0	ISI	n/a	n/a	n/a	n/a
230.0114	n/a	RESPONSE	n/a	n/a	n/a	n/a
230.1302	0.5	DISTRACTOR	3	48	D	Correct Rejection
230.6301	1.0	ISI	n/a	n/a	n/a	n/a
231.6301	0.5	DISTRACTOR	3	49	G	Correct Rejection
232.1301	1.0	ISI	n/a	n/a	n/a	n/a
233.1301	0.5	DISTRACTOR	3	50	G	False Alarm
233.6301	1.0	ISI	n/a	n/a	n/a	n/a
233.8325	n/a	RESPONSE	n/a	n/a	n/a	n/a
238.9329	n/a	RESPONSE	n/a	n/a	n/a	n/a
