onset	duration	condition	trial_type	braille_stimulus	response_val	response_type
2.018	2.008	6_DOT_DETECTION	CUE	n/a	n/a	n/a
7.018	1.008	6_DOT_DETECTION	FIXCROSS	n/a	n/a	n/a
8.035	5.008	6_DOT_DETECTION	NO_6-DOT	DMSTY	n/a	n/a
11.136	n/a	6_DOT_DETECTION	RESPONSE	n/a	NO	CORRECT_REJECTION
15.068	1.008	6_DOT_DETECTION	FIXCROSS	n/a	n/a	n/a
16.085	5.008	6_DOT_DETECTION	NO_6-DOT	TMIA	n/a	n/a
18.6	n/a	6_DOT_DETECTION	RESPONSE	n/a	NO	CORRECT_REJECTION
23.118	1.008	6_DOT_DETECTION	FIXCROSS	n/a	n/a	n/a
24.135	5.008	6_DOT_DETECTION	6-DOT	##Ł	n/a	n/a
26.0	n/a	6_DOT_DETECTION	RESPONSE	n/a	YES	HIT
31.168	1.008	6_DOT_DETECTION	FIXCROSS	n/a	n/a	n/a
32.185	5.008	6_DOT_DETECTION	6-DOT	#U#	n/a	n/a
34.52	n/a	6_DOT_DETECTION	RESPONSE	n/a	YES	HIT
39.218	1.008	6_DOT_DETECTION	FIXCROSS	n/a	n/a	n/a
40.235	5.008	6_DOT_DETECTION	6-DOT	A#L#O	n/a	n/a
43.176	n/a	6_DOT_DETECTION	RESPONSE	n/a	YES	HIT
49.277	2.008	LEXICAL_DECISION	CUE	n/a	n/a	n/a
54.277	1.008	LEXICAL_DECISION	FIXCROSS	n/a	n/a	n/a
55.293	5.008	LEXICAL_DECISION	PSEUDOWORD	LOKYD	n/a	n/a
60.936	n/a	LEXICAL_DECISION	RESPONSE	n/a	NO	CORRECT_REJECTION
62.327	1.008	LEXICAL_DECISION	FIXCROSS	n/a	n/a	n/a
63.343	5.008	LEXICAL_DECISION	PSEUDOWORD	SAKMY	n/a	n/a
68.816	n/a	LEXICAL_DECISION	RESPONSE	n/a	NO	CORRECT_REJECTION
70.377	1.008	LEXICAL_DECISION	FIXCROSS	n/a	n/a	n/a
71.393	5.008	LEXICAL_DECISION	WORD	KASA	n/a	n/a
74.416	n/a	LEXICAL_DECISION	RESPONSE	n/a	YES	HIT
78.427	1.008	LEXICAL_DECISION	FIXCROSS	n/a	n/a	n/a
79.443	5.008	LEXICAL_DECISION	WORD	KŁA	n/a	n/a
83.84	n/a	LEXICAL_DECISION	RESPONSE	n/a	NO	MISS
86.477	1.008	LEXICAL_DECISION	FIXCROSS	n/a	n/a	n/a
87.493	5.008	LEXICAL_DECISION	WORD	KOMU	n/a	n/a
92.64	n/a	LEXICAL_DECISION	RESPONSE	n/a	NO	MISS
96.035	2.008	6_DOT_DETECTION	CUE	n/a	n/a	n/a
100.535	1.008	6_DOT_DETECTION	FIXCROSS	n/a	n/a	n/a
101.552	5.008	6_DOT_DETECTION	NO_6-DOT	TDK	n/a	n/a
103.72	n/a	6_DOT_DETECTION	RESPONSE	n/a	NO	CORRECT_REJECTION
108.585	1.008	6_DOT_DETECTION	FIXCROSS	n/a	n/a	n/a
109.602	5.008	6_DOT_DETECTION	6-DOT	Y##	n/a	n/a
111.736	n/a	6_DOT_DETECTION	RESPONSE	n/a	YES	HIT
116.635	1.008	6_DOT_DETECTION	FIXCROSS	n/a	n/a	n/a
117.652	5.008	6_DOT_DETECTION	NO_6-DOT	LKBŁE	n/a	n/a
120.216	n/a	6_DOT_DETECTION	RESPONSE	n/a	NO	CORRECT_REJECTION
124.685	1.008	6_DOT_DETECTION	FIXCROSS	n/a	n/a	n/a
125.702	5.008	6_DOT_DETECTION	NO_6-DOT	KMUPT	n/a	n/a
128.56	n/a	6_DOT_DETECTION	RESPONSE	n/a	NO	CORRECT_REJECTION
132.735	1.008	6_DOT_DETECTION	FIXCROSS	n/a	n/a	n/a
133.752	5.008	6_DOT_DETECTION	NO_6-DOT	YCOBK	n/a	n/a
136.256	n/a	6_DOT_DETECTION	RESPONSE	n/a	NO	CORRECT_REJECTION
141.794	2.008	LEXICAL_DECISION	CUE	n/a	n/a	n/a
146.794	1.008	LEXICAL_DECISION	FIXCROSS	n/a	n/a	n/a
147.81	5.008	LEXICAL_DECISION	PSEUDOWORD	IKOB	n/a	n/a
152.8	n/a	LEXICAL_DECISION	RESPONSE	n/a	NO	CORRECT_REJECTION
154.844	1.008	LEXICAL_DECISION	FIXCROSS	n/a	n/a	n/a
155.86	5.008	LEXICAL_DECISION	WORD	LISA	n/a	n/a
159.816	n/a	LEXICAL_DECISION	RESPONSE	n/a	YES	HIT
162.894	1.008	LEXICAL_DECISION	FIXCROSS	n/a	n/a	n/a
163.91	5.008	LEXICAL_DECISION	PSEUDOWORD	COPIB	n/a	n/a
169.696	n/a	LEXICAL_DECISION	RESPONSE	n/a	NO	CORRECT_REJECTION
170.944	1.008	LEXICAL_DECISION	FIXCROSS	n/a	n/a	n/a
171.96	5.008	LEXICAL_DECISION	PSEUDOWORD	ŁODYT	n/a	n/a
177.856	n/a	LEXICAL_DECISION	RESPONSE	n/a	NO	CORRECT_REJECTION
178.993	1.009	LEXICAL_DECISION	FIXCROSS	n/a	n/a	n/a
180.01	5.008	LEXICAL_DECISION	PSEUDOWORD	AŁAB	n/a	n/a
186.136	n/a	LEXICAL_DECISION	RESPONSE	n/a	NO	CORRECT_REJECTION
188.552	2.008	6_DOT_DETECTION	CUE	n/a	n/a	n/a
194.052	1.008	6_DOT_DETECTION	FIXCROSS	n/a	n/a	n/a
195.069	5.008	6_DOT_DETECTION	6-DOT	OK#P#	n/a	n/a
197.736	n/a	6_DOT_DETECTION	RESPONSE	n/a	YES	HIT
202.102	1.008	6_DOT_DETECTION	FIXCROSS	n/a	n/a	n/a
203.119	5.008	6_DOT_DETECTION	6-DOT	AT#O#	n/a	n/a
206.12	n/a	6_DOT_DETECTION	RESPONSE	n/a	YES	HIT
210.152	1.008	6_DOT_DETECTION	FIXCROSS	n/a	n/a	n/a
211.169	5.008	6_DOT_DETECTION	6-DOT	##KI	n/a	n/a
213.416	n/a	6_DOT_DETECTION	RESPONSE	n/a	YES	HIT
218.202	1.008	6_DOT_DETECTION	FIXCROSS	n/a	n/a	n/a
219.219	5.008	6_DOT_DETECTION	NO_6-DOT	ŁMS	n/a	n/a
221.736	n/a	6_DOT_DETECTION	RESPONSE	n/a	NO	CORRECT_REJECTION
226.252	1.008	6_DOT_DETECTION	FIXCROSS	n/a	n/a	n/a
227.269	5.008	6_DOT_DETECTION	NO_6-DOT	UTSD	n/a	n/a
229.536	n/a	6_DOT_DETECTION	RESPONSE	n/a	NO	CORRECT_REJECTION
235.81	2.008	LEXICAL_DECISION	CUE	n/a	n/a	n/a
242.31	1.008	LEXICAL_DECISION	FIXCROSS	n/a	n/a	n/a
243.327	5.008	LEXICAL_DECISION	WORD	SKALA	n/a	n/a
248.88	n/a	LEXICAL_DECISION	RESPONSE	n/a	NO	MISS
250.36	1.008	LEXICAL_DECISION	FIXCROSS	n/a	n/a	n/a
251.377	5.008	LEXICAL_DECISION	WORD	OKUPU	n/a	n/a
256.816	n/a	LEXICAL_DECISION	RESPONSE	n/a	YES	HIT
258.41	1.008	LEXICAL_DECISION	FIXCROSS	n/a	n/a	n/a
259.427	5.008	LEXICAL_DECISION	WORD	PAL	n/a	n/a
262.736	n/a	LEXICAL_DECISION	RESPONSE	n/a	YES	HIT
266.46	1.008	LEXICAL_DECISION	FIXCROSS	n/a	n/a	n/a
267.477	5.008	LEXICAL_DECISION	PSEUDOWORD	BOKY	n/a	n/a
273.136	n/a	LEXICAL_DECISION	RESPONSE	n/a	NO	CORRECT_REJECTION
274.51	1.008	LEXICAL_DECISION	FIXCROSS	n/a	n/a	n/a
275.527	5.008	LEXICAL_DECISION	PSEUDOWORD	KOLP	n/a	n/a
280.776	n/a	LEXICAL_DECISION	RESPONSE	n/a	NO	CORRECT_REJECTION
284.569	2.008	6_DOT_DETECTION	CUE	n/a	n/a	n/a
290.569	1.008	6_DOT_DETECTION	FIXCROSS	n/a	n/a	n/a
291.586	5.008	6_DOT_DETECTION	6-DOT	Ł##Ł	n/a	n/a
294.08	n/a	6_DOT_DETECTION	RESPONSE	n/a	YES	HIT
298.619	1.008	6_DOT_DETECTION	FIXCROSS	n/a	n/a	n/a
299.636	5.008	6_DOT_DETECTION	6-DOT	TA##	n/a	n/a
301.88	n/a	6_DOT_DETECTION	RESPONSE	n/a	YES	HIT
306.669	1.008	6_DOT_DETECTION	FIXCROSS	n/a	n/a	n/a
307.686	5.008	6_DOT_DETECTION	6-DOT	DBO##	n/a	n/a
310.68	n/a	6_DOT_DETECTION	RESPONSE	n/a	YES	HIT
314.719	1.008	6_DOT_DETECTION	FIXCROSS	n/a	n/a	n/a
315.736	5.008	6_DOT_DETECTION	NO_6-DOT	EBPT	n/a	n/a
318.84	n/a	6_DOT_DETECTION	RESPONSE	n/a	NO	CORRECT_REJECTION
322.769	1.008	6_DOT_DETECTION	FIXCROSS	n/a	n/a	n/a
323.786	5.008	6_DOT_DETECTION	NO_6-DOT	SMAO	n/a	n/a
326.096	n/a	6_DOT_DETECTION	RESPONSE	n/a	NO	CORRECT_REJECTION
332.827	2.008	LEXICAL_DECISION	CUE	n/a	n/a	n/a
338.827	1.008	LEXICAL_DECISION	FIXCROSS	n/a	n/a	n/a
339.844	5.008	LEXICAL_DECISION	WORD	DOMEM	n/a	n/a
345.36	n/a	LEXICAL_DECISION	RESPONSE	n/a	NO	MISS
346.877	1.008	LEXICAL_DECISION	FIXCROSS	n/a	n/a	n/a
347.894	5.008	LEXICAL_DECISION	WORD	TATO	n/a	n/a
353.416	n/a	LEXICAL_DECISION	RESPONSE	n/a	NO	MISS
354.927	1.008	LEXICAL_DECISION	FIXCROSS	n/a	n/a	n/a
355.944	5.008	LEXICAL_DECISION	WORD	DAŁA	n/a	n/a
361.536	n/a	LEXICAL_DECISION	RESPONSE	n/a	YES	HIT
362.977	1.008	LEXICAL_DECISION	FIXCROSS	n/a	n/a	n/a
363.994	5.008	LEXICAL_DECISION	PSEUDOWORD	DEPAT	n/a	n/a
369.936	n/a	LEXICAL_DECISION	RESPONSE	n/a	NO	CORRECT_REJECTION
371.027	1.008	LEXICAL_DECISION	FIXCROSS	n/a	n/a	n/a
372.044	5.008	LEXICAL_DECISION	PSEUDOWORD	LUDA	n/a	n/a
377.256	n/a	LEXICAL_DECISION	RESPONSE	n/a	YES	FALSE_ALARM
380.586	2.008	6_DOT_DETECTION	CUE	n/a	n/a	n/a
386.086	1.008	6_DOT_DETECTION	FIXCROSS	n/a	n/a	n/a
387.102	5.008	6_DOT_DETECTION	NO_6-DOT	OBL	n/a	n/a
389.136	n/a	6_DOT_DETECTION	RESPONSE	n/a	NO	CORRECT_REJECTION
394.136	1.008	6_DOT_DETECTION	FIXCROSS	n/a	n/a	n/a
395.152	5.008	6_DOT_DETECTION	6-DOT	I#O#	n/a	n/a
397.44	n/a	6_DOT_DETECTION	RESPONSE	n/a	NO	MISS
402.186	1.008	6_DOT_DETECTION	FIXCROSS	n/a	n/a	n/a
403.202	5.008	6_DOT_DETECTION	6-DOT	#BL#	n/a	n/a
405.92	n/a	6_DOT_DETECTION	RESPONSE	n/a	YES	HIT
410.236	1.008	6_DOT_DETECTION	FIXCROSS	n/a	n/a	n/a
411.252	5.009	6_DOT_DETECTION	NO_6-DOT	EPSTB	n/a	n/a
414.08	n/a	6_DOT_DETECTION	RESPONSE	n/a	NO	CORRECT_REJECTION
418.286	1.008	6_DOT_DETECTION	FIXCROSS	n/a	n/a	n/a
419.302	5.008	6_DOT_DETECTION	6-DOT	D##YU	n/a	n/a
422.0	n/a	6_DOT_DETECTION	RESPONSE	n/a	YES	HIT
427.844	2.008	LEXICAL_DECISION	CUE	n/a	n/a	n/a
433.344	1.008	LEXICAL_DECISION	FIXCROSS	n/a	n/a	n/a
434.361	5.008	LEXICAL_DECISION	PSEUDOWORD	SAK	n/a	n/a
439.68	n/a	LEXICAL_DECISION	RESPONSE	n/a	NO	CORRECT_REJECTION
441.394	1.008	LEXICAL_DECISION	FIXCROSS	n/a	n/a	n/a
442.411	5.008	LEXICAL_DECISION	WORD	LECI	n/a	n/a
447.792	n/a	LEXICAL_DECISION	RESPONSE	n/a	YES	HIT
449.444	1.008	LEXICAL_DECISION	FIXCROSS	n/a	n/a	n/a
450.461	5.008	LEXICAL_DECISION	WORD	ALBUM	n/a	n/a
455.752	n/a	LEXICAL_DECISION	RESPONSE	n/a	YES	HIT
457.494	1.008	LEXICAL_DECISION	FIXCROSS	n/a	n/a	n/a
458.511	5.008	LEXICAL_DECISION	PSEUDOWORD	LISO	n/a	n/a
463.616	n/a	LEXICAL_DECISION	RESPONSE	n/a	YES	FALSE_ALARM
465.544	1.008	LEXICAL_DECISION	FIXCROSS	n/a	n/a	n/a
466.561	5.008	LEXICAL_DECISION	WORD	KAPIE	n/a	n/a
471.856	n/a	LEXICAL_DECISION	RESPONSE	n/a	YES	HIT
474.603	2.008	6_DOT_DETECTION	CUE	n/a	n/a	n/a
481.603	1.008	6_DOT_DETECTION	FIXCROSS	n/a	n/a	n/a
482.619	5.008	6_DOT_DETECTION	NO_6-DOT	KDM	n/a	n/a
484.976	n/a	6_DOT_DETECTION	RESPONSE	n/a	NO	CORRECT_REJECTION
489.653	1.008	6_DOT_DETECTION	FIXCROSS	n/a	n/a	n/a
490.669	5.008	6_DOT_DETECTION	NO_6-DOT	ALCB	n/a	n/a
493.472	n/a	6_DOT_DETECTION	RESPONSE	n/a	NO	CORRECT_REJECTION
497.703	1.008	6_DOT_DETECTION	FIXCROSS	n/a	n/a	n/a
498.719	5.008	6_DOT_DETECTION	6-DOT	##IB	n/a	n/a
500.432	n/a	6_DOT_DETECTION	RESPONSE	n/a	YES	HIT
505.753	1.008	6_DOT_DETECTION	FIXCROSS	n/a	n/a	n/a
506.769	5.008	6_DOT_DETECTION	6-DOT	##D	n/a	n/a
508.536	n/a	6_DOT_DETECTION	RESPONSE	n/a	YES	HIT
513.803	1.008	6_DOT_DETECTION	FIXCROSS	n/a	n/a	n/a
514.819	5.008	6_DOT_DETECTION	NO_6-DOT	KMLD	n/a	n/a
517.352	n/a	6_DOT_DETECTION	RESPONSE	n/a	NO	CORRECT_REJECTION
522.861	2.008	LEXICAL_DECISION	CUE	n/a	n/a	n/a
527.861	1.008	LEXICAL_DECISION	FIXCROSS	n/a	n/a	n/a
528.878	5.008	LEXICAL_DECISION	PSEUDOWORD	CAD	n/a	n/a
533.336	n/a	LEXICAL_DECISION	RESPONSE	n/a	NO	CORRECT_REJECTION
535.911	1.008	LEXICAL_DECISION	FIXCROSS	n/a	n/a	n/a
536.928	5.008	LEXICAL_DECISION	PSEUDOWORD	MAB	n/a	n/a
540.792	n/a	LEXICAL_DECISION	RESPONSE	n/a	NO	CORRECT_REJECTION
543.961	1.008	LEXICAL_DECISION	FIXCROSS	n/a	n/a	n/a
544.978	5.008	LEXICAL_DECISION	WORD	PIES	n/a	n/a
550.376	n/a	LEXICAL_DECISION	RESPONSE	n/a	YES	HIT
552.011	1.008	LEXICAL_DECISION	FIXCROSS	n/a	n/a	n/a
553.028	5.008	LEXICAL_DECISION	WORD	LIC	n/a	n/a
557.536	n/a	LEXICAL_DECISION	RESPONSE	n/a	YES	HIT
560.061	1.008	LEXICAL_DECISION	FIXCROSS	n/a	n/a	n/a
561.078	5.008	LEXICAL_DECISION	PSEUDOWORD	LAKMA	n/a	n/a
566.472	n/a	LEXICAL_DECISION	RESPONSE	n/a	NO	CORRECT_REJECTION
569.62	2.008	6_DOT_DETECTION	CUE	n/a	n/a	n/a
574.12	1.008	6_DOT_DETECTION	FIXCROSS	n/a	n/a	n/a
575.136	5.008	6_DOT_DETECTION	6-DOT	U#A#	n/a	n/a
578.912	n/a	6_DOT_DETECTION	RESPONSE	n/a	YES	HIT
582.17	1.008	6_DOT_DETECTION	FIXCROSS	n/a	n/a	n/a
583.186	5.008	6_DOT_DETECTION	NO_6-DOT	KDCMB	n/a	n/a
585.632	n/a	6_DOT_DETECTION	RESPONSE	n/a	NO	CORRECT_REJECTION
590.22	1.008	6_DOT_DETECTION	FIXCROSS	n/a	n/a	n/a
591.236	5.008	6_DOT_DETECTION	NO_6-DOT	LSTA	n/a	n/a
594.112	n/a	6_DOT_DETECTION	RESPONSE	n/a	NO	CORRECT_REJECTION
598.27	1.008	6_DOT_DETECTION	FIXCROSS	n/a	n/a	n/a
599.286	5.008	6_DOT_DETECTION	6-DOT	D#T#	n/a	n/a
601.976	n/a	6_DOT_DETECTION	RESPONSE	n/a	YES	HIT
606.32	1.008	6_DOT_DETECTION	FIXCROSS	n/a	n/a	n/a
607.336	5.008	6_DOT_DETECTION	6-DOT	ST##	n/a	n/a
609.656	n/a	6_DOT_DETECTION	RESPONSE	n/a	YES	HIT
615.878	2.008	LEXICAL_DECISION	CUE	n/a	n/a	n/a
622.378	1.008	LEXICAL_DECISION	FIXCROSS	n/a	n/a	n/a
623.395	5.008	LEXICAL_DECISION	WORD	DAŁO	n/a	n/a
629.336	n/a	LEXICAL_DECISION	RESPONSE	n/a	NO	MISS
630.428	1.008	LEXICAL_DECISION	FIXCROSS	n/a	n/a	n/a
631.445	5.008	LEXICAL_DECISION	PSEUDOWORD	BAPA	n/a	n/a
637.056	n/a	LEXICAL_DECISION	RESPONSE	n/a	NO	CORRECT_REJECTION
638.478	1.008	LEXICAL_DECISION	FIXCROSS	n/a	n/a	n/a
639.495	5.008	LEXICAL_DECISION	PSEUDOWORD	BOC	n/a	n/a
643.512	n/a	LEXICAL_DECISION	RESPONSE	n/a	YES	FALSE_ALARM
646.528	1.008	LEXICAL_DECISION	FIXCROSS	n/a	n/a	n/a
647.545	5.008	LEXICAL_DECISION	WORD	PUK	n/a	n/a
651.776	n/a	LEXICAL_DECISION	RESPONSE	n/a	NO	MISS
654.578	1.008	LEXICAL_DECISION	FIXCROSS	n/a	n/a	n/a
655.595	5.008	LEXICAL_DECISION	WORD	MEBLE	n/a	n/a
661.216	n/a	LEXICAL_DECISION	RESPONSE	n/a	NO	MISS
663.636	2.008	6_DOT_DETECTION	CUE	n/a	n/a	n/a
668.636	1.008	6_DOT_DETECTION	FIXCROSS	n/a	n/a	n/a
669.653	5.008	6_DOT_DETECTION	NO_6-DOT	BKPO	n/a	n/a
672.272	n/a	6_DOT_DETECTION	RESPONSE	n/a	NO	CORRECT_REJECTION
676.686	1.008	6_DOT_DETECTION	FIXCROSS	n/a	n/a	n/a
677.703	5.008	6_DOT_DETECTION	6-DOT	#KM#P	n/a	n/a
680.856	n/a	6_DOT_DETECTION	RESPONSE	n/a	YES	HIT
684.736	1.008	6_DOT_DETECTION	FIXCROSS	n/a	n/a	n/a
685.753	5.008	6_DOT_DETECTION	NO_6-DOT	LMYKT	n/a	n/a
688.952	n/a	6_DOT_DETECTION	RESPONSE	n/a	NO	CORRECT_REJECTION
692.786	1.008	6_DOT_DETECTION	FIXCROSS	n/a	n/a	n/a
693.803	5.008	6_DOT_DETECTION	NO_6-DOT	CDSYŁ	n/a	n/a
696.392	n/a	6_DOT_DETECTION	RESPONSE	n/a	NO	CORRECT_REJECTION
700.837	1.008	6_DOT_DETECTION	FIXCROSS	n/a	n/a	n/a
701.853	5.008	6_DOT_DETECTION	6-DOT	#IC#	n/a	n/a
704.232	n/a	6_DOT_DETECTION	RESPONSE	n/a	YES	HIT
710.395	2.008	LEXICAL_DECISION	CUE	n/a	n/a	n/a
715.895	1.008	LEXICAL_DECISION	FIXCROSS	n/a	n/a	n/a
716.912	5.008	LEXICAL_DECISION	PSEUDOWORD	DIKO	n/a	n/a
723.192	n/a	LEXICAL_DECISION	RESPONSE	n/a	YES	FALSE_ALARM
723.945	1.008	LEXICAL_DECISION	FIXCROSS	n/a	n/a	n/a
724.962	5.008	LEXICAL_DECISION	WORD	OBIE	n/a	n/a
729.576	n/a	LEXICAL_DECISION	RESPONSE	n/a	NO	MISS
731.995	1.008	LEXICAL_DECISION	FIXCROSS	n/a	n/a	n/a
733.012	5.008	LEXICAL_DECISION	PSEUDOWORD	PODO	n/a	n/a
737.792	n/a	LEXICAL_DECISION	RESPONSE	n/a	NO	CORRECT_REJECTION
740.045	1.008	LEXICAL_DECISION	FIXCROSS	n/a	n/a	n/a
741.062	5.008	LEXICAL_DECISION	PSEUDOWORD	BODAT	n/a	n/a
746.576	n/a	LEXICAL_DECISION	RESPONSE	n/a	YES	FALSE_ALARM
748.095	1.008	LEXICAL_DECISION	FIXCROSS	n/a	n/a	n/a
749.112	5.008	LEXICAL_DECISION	WORD	KILKU	n/a	n/a
755.336	n/a	LEXICAL_DECISION	RESPONSE	n/a	NO	MISS
