onset	duration	trial_type	trial_number	stroop_condition	stim_text(PL)	stim_text(eng)	stim_color(PL)	stim_color(eng)	response_type	response_color
0.0	n/a	RESPONSE	n/a	n/a	n/a	n/a	n/a	n/a	n/a	red
6.0626	n/a	RESPONSE	n/a	n/a	n/a	n/a	n/a	n/a	n/a	n/a
6.1281	1.0333	ITI	n/a	n/a	n/a	n/a	n/a	n/a	n/a	n/a
7.1614	0.5167	FIXCROSS	n/a	n/a	n/a	n/a	n/a	n/a	n/a	n/a
7.6781	1.75	T_INK	1	Neutral	xxxxxxx	xxxxxxx	żółty	yellow	hit	n/a
9.3899	n/a	RESPONSE	n/a	n/a	n/a	n/a	n/a	n/a	n/a	yellow
9.4281	0.5167	FEEDBACK	n/a	n/a	n/a	n/a	n/a	n/a	n/a	n/a
9.9448	1.0167	ITI	n/a	n/a	n/a	n/a	n/a	n/a	n/a	n/a
10.9615	0.5167	FIXCROSS	n/a	n/a	n/a	n/a	n/a	n/a	n/a	n/a
11.4781	1.2333	T_INK	2	Incongruent	żółty	yellow	niebieski	blue	hit	n/a
12.6851	n/a	RESPONSE	n/a	n/a	n/a	n/a	n/a	n/a	n/a	blue
12.7115	0.5167	FEEDBACK	n/a	n/a	n/a	n/a	n/a	n/a	n/a	n/a
13.2281	1.0167	ITI	n/a	n/a	n/a	n/a	n/a	n/a	n/a	n/a
14.2448	0.5167	FIXCROSS	n/a	n/a	n/a	n/a	n/a	n/a	n/a	n/a
14.7615	1.0	T_INK	3	Neutral	xxxxxxx	xxxxxxx	niebieski	blue	hit	n/a
15.7245	n/a	RESPONSE	n/a	n/a	n/a	n/a	n/a	n/a	n/a	blue
15.7615	0.5167	FEEDBACK	n/a	n/a	n/a	n/a	n/a	n/a	n/a	n/a
16.2782	1.0167	ITI	n/a	n/a	n/a	n/a	n/a	n/a	n/a	n/a
17.2948	0.5167	FIXCROSS	n/a	n/a	n/a	n/a	n/a	n/a	n/a	n/a
17.8115	0.9	T_INK	4	Incongruent	niebieski	blue	czerwony	red	hit	n/a
18.6839	n/a	RESPONSE	n/a	n/a	n/a	n/a	n/a	n/a	n/a	red
18.7115	0.5167	FEEDBACK	n/a	n/a	n/a	n/a	n/a	n/a	n/a	n/a
19.2282	1.0167	ITI	n/a	n/a	n/a	n/a	n/a	n/a	n/a	n/a
20.2449	0.5167	FIXCROSS	n/a	n/a	n/a	n/a	n/a	n/a	n/a	n/a
20.7615	0.9167	T_INK	5	Incongruent	niebieski	blue	zielony	green	hit	n/a
21.6432	n/a	RESPONSE	n/a	n/a	n/a	n/a	n/a	n/a	n/a	green
21.6782	0.5167	FEEDBACK	n/a	n/a	n/a	n/a	n/a	n/a	n/a	n/a
22.1949	1.0167	ITI	n/a	n/a	n/a	n/a	n/a	n/a	n/a	n/a
23.2115	0.5167	FIXCROSS	n/a	n/a	n/a	n/a	n/a	n/a	n/a	n/a
23.7282	0.8667	T_INK	6	Incongruent	żółty	yellow	czerwony	red	hit	n/a
24.5706	n/a	RESPONSE	n/a	n/a	n/a	n/a	n/a	n/a	n/a	red
24.5949	0.5167	FEEDBACK	n/a	n/a	n/a	n/a	n/a	n/a	n/a	n/a
25.1116	1.0167	ITI	n/a	n/a	n/a	n/a	n/a	n/a	n/a	n/a
26.1282	0.5167	FIXCROSS	n/a	n/a	n/a	n/a	n/a	n/a	n/a	n/a
26.6449	0.75	T_INK	7	Neutral	xxxxx	xxxxx	czerwony	red	hit	n/a
27.37	n/a	RESPONSE	n/a	n/a	n/a	n/a	n/a	n/a	n/a	red
27.3949	0.5167	FEEDBACK	n/a	n/a	n/a	n/a	n/a	n/a	n/a	n/a
27.9116	1.0167	ITI	n/a	n/a	n/a	n/a	n/a	n/a	n/a	n/a
28.9283	0.5167	FIXCROSS	n/a	n/a	n/a	n/a	n/a	n/a	n/a	n/a
29.4449	0.8667	T_INK	8	Incongruent	czerwony	red	niebieski	blue	hit	n/a
30.2814	n/a	RESPONSE	n/a	n/a	n/a	n/a	n/a	n/a	n/a	blue
30.3116	0.5167	FEEDBACK	n/a	n/a	n/a	n/a	n/a	n/a	n/a	n/a
30.8283	1.0167	ITI	n/a	n/a	n/a	n/a	n/a	n/a	n/a	n/a
31.8449	0.5167	FIXCROSS	n/a	n/a	n/a	n/a	n/a	n/a	n/a	n/a
32.3616	0.75	T_INK	9	Neutral	xxxxxxx	xxxxxxx	czerwony	red	hit	n/a
33.0808	n/a	RESPONSE	n/a	n/a	n/a	n/a	n/a	n/a	n/a	red
33.1116	0.5167	FEEDBACK	n/a	n/a	n/a	n/a	n/a	n/a	n/a	n/a
33.6283	1.0167	ITI	n/a	n/a	n/a	n/a	n/a	n/a	n/a	n/a
34.645	0.5167	FIXCROSS	n/a	n/a	n/a	n/a	n/a	n/a	n/a	n/a
35.1616	1.0833	T_INK	10	Incongruent	czerwony	red	żółty	yellow	hit	n/a
36.2162	n/a	RESPONSE	n/a	n/a	n/a	n/a	n/a	n/a	n/a	yellow
36.245	0.5167	FEEDBACK	n/a	n/a	n/a	n/a	n/a	n/a	n/a	n/a
36.7616	1.0167	ITI	n/a	n/a	n/a	n/a	n/a	n/a	n/a	n/a
37.7783	0.5167	FIXCROSS	n/a	n/a	n/a	n/a	n/a	n/a	n/a	n/a
38.295	1.1333	T_INK	11	Neutral	xxxxxxxx	xxxxxxxx	zielony	green	hit	n/a
39.3995	n/a	RESPONSE	n/a	n/a	n/a	n/a	n/a	n/a	n/a	green
39.4283	0.5167	FEEDBACK	n/a	n/a	n/a	n/a	n/a	n/a	n/a	n/a
39.945	1.0167	ITI	n/a	n/a	n/a	n/a	n/a	n/a	n/a	n/a
40.9617	0.5167	FIXCROSS	n/a	n/a	n/a	n/a	n/a	n/a	n/a	n/a
41.4783	0.8167	T_INK	12	Neutral	xxxxxxxxx	xxxxxxxxx	czerwony	red	hit	n/a
42.2629	n/a	RESPONSE	n/a	n/a	n/a	n/a	n/a	n/a	n/a	red
42.295	0.5167	FEEDBACK	n/a	n/a	n/a	n/a	n/a	n/a	n/a	n/a
42.8117	1.0333	ITI	n/a	n/a	n/a	n/a	n/a	n/a	n/a	n/a
51.7969	n/a	RESPONSE	n/a	n/a	n/a	n/a	n/a	n/a	n/a	n/a
51.8618	1.0167	ITI	n/a	n/a	n/a	n/a	n/a	n/a	n/a	n/a
52.8784	0.5167	FIXCROSS	n/a	n/a	n/a	n/a	n/a	n/a	n/a	n/a
53.3951	0.85	INK	1	Incongruent	zielony	green	czerwony	red	hit	n/a
54.2124	n/a	RESPONSE	n/a	n/a	n/a	n/a	n/a	n/a	n/a	red
54.2451	1.0167	ITI	n/a	n/a	n/a	n/a	n/a	n/a	n/a	n/a
55.2618	0.5167	FIXCROSS	n/a	n/a	n/a	n/a	n/a	n/a	n/a	n/a
55.7784	0.8167	INK	2	Incongruent	czerwony	red	niebieski	blue	hit	n/a
56.5639	n/a	RESPONSE	n/a	n/a	n/a	n/a	n/a	n/a	n/a	blue
56.5951	1.0167	ITI	n/a	n/a	n/a	n/a	n/a	n/a	n/a	n/a
57.6118	0.5167	FIXCROSS	n/a	n/a	n/a	n/a	n/a	n/a	n/a	n/a
58.1285	0.9167	INK	3	Neutral	xxxxxxxx	xxxxxxxx	zielony	green	hit	n/a
59.0113	n/a	RESPONSE	n/a	n/a	n/a	n/a	n/a	n/a	n/a	green
59.0451	1.0167	ITI	n/a	n/a	n/a	n/a	n/a	n/a	n/a	n/a
60.0618	0.5167	FIXCROSS	n/a	n/a	n/a	n/a	n/a	n/a	n/a	n/a
60.5785	0.7333	INK	4	Neutral	xxxxxxxxx	xxxxxxxxx	zielony	green	hit	n/a
61.2829	n/a	RESPONSE	n/a	n/a	n/a	n/a	n/a	n/a	n/a	green
61.3118	1.0167	ITI	n/a	n/a	n/a	n/a	n/a	n/a	n/a	n/a
62.3285	0.5167	FIXCROSS	n/a	n/a	n/a	n/a	n/a	n/a	n/a	n/a
62.8452	0.5667	INK	5	Neutral	xxxxxxxxx	xxxxxxxxx	zielony	green	hit	n/a
63.3784	n/a	RESPONSE	n/a	n/a	n/a	n/a	n/a	n/a	n/a	green
63.4118	1.0167	ITI	n/a	n/a	n/a	n/a	n/a	n/a	n/a	n/a
64.4285	0.5167	FIXCROSS	n/a	n/a	n/a	n/a	n/a	n/a	n/a	n/a
64.9452	0.6167	INK	6	Neutral	xxxxxxx	xxxxxxx	żółty	yellow	hit	n/a
65.538	n/a	RESPONSE	n/a	n/a	n/a	n/a	n/a	n/a	n/a	yellow
65.5619	1.0167	ITI	n/a	n/a	n/a	n/a	n/a	n/a	n/a	n/a
66.5785	0.5167	FIXCROSS	n/a	n/a	n/a	n/a	n/a	n/a	n/a	n/a
67.0952	0.6	INK	7	Incongruent	zielony	green	niebieski	blue	hit	n/a
67.6655	n/a	RESPONSE	n/a	n/a	n/a	n/a	n/a	n/a	n/a	blue
67.6952	1.0167	ITI	n/a	n/a	n/a	n/a	n/a	n/a	n/a	n/a
68.7119	0.5167	FIXCROSS	n/a	n/a	n/a	n/a	n/a	n/a	n/a	n/a
69.2285	0.8834	INK	8	Incongruent	żółty	yellow	czerwony	red	hit	n/a
70.081	n/a	RESPONSE	n/a	n/a	n/a	n/a	n/a	n/a	n/a	red
70.1119	1.0167	ITI	n/a	n/a	n/a	n/a	n/a	n/a	n/a	n/a
71.1286	0.5167	FIXCROSS	n/a	n/a	n/a	n/a	n/a	n/a	n/a	n/a
71.6452	0.6167	INK	9	Neutral	xxxxxxxxx	xxxxxxxxx	żółty	yellow	hit	n/a
72.2406	n/a	RESPONSE	n/a	n/a	n/a	n/a	n/a	n/a	n/a	yellow
72.2619	1.0167	ITI	n/a	n/a	n/a	n/a	n/a	n/a	n/a	n/a
73.2786	0.5167	FIXCROSS	n/a	n/a	n/a	n/a	n/a	n/a	n/a	n/a
73.7952	0.5	INK	10	Neutral	xxxxxxx	xxxxxxx	żółty	yellow	hit	n/a
74.2721	n/a	RESPONSE	n/a	n/a	n/a	n/a	n/a	n/a	n/a	yellow
74.2952	1.0167	ITI	n/a	n/a	n/a	n/a	n/a	n/a	n/a	n/a
75.3119	0.5167	FIXCROSS	n/a	n/a	n/a	n/a	n/a	n/a	n/a	n/a
75.8286	0.5167	INK	11	Neutral	xxxxxxxx	xxxxxxxx	żółty	yellow	hit	n/a
76.3197	n/a	RESPONSE	n/a	n/a	n/a	n/a	n/a	n/a	n/a	yellow
76.3453	1.0167	ITI	n/a	n/a	n/a	n/a	n/a	n/a	n/a	n/a
77.3619	0.5167	FIXCROSS	n/a	n/a	n/a	n/a	n/a	n/a	n/a	n/a
77.8786	0.7333	INK	12	Neutral	xxxxx	xxxxx	zielony	green	hit	n/a
78.5912	n/a	RESPONSE	n/a	n/a	n/a	n/a	n/a	n/a	n/a	green
78.6119	1.0167	ITI	n/a	n/a	n/a	n/a	n/a	n/a	n/a	n/a
79.6286	0.5167	FIXCROSS	n/a	n/a	n/a	n/a	n/a	n/a	n/a	n/a
80.1453	0.8167	INK	13	Incongruent	żółty	yellow	zielony	green	hit	n/a
80.9427	n/a	RESPONSE	n/a	n/a	n/a	n/a	n/a	n/a	n/a	green
80.962	1.0167	ITI	n/a	n/a	n/a	n/a	n/a	n/a	n/a	n/a
81.9786	0.5167	FIXCROSS	n/a	n/a	n/a	n/a	n/a	n/a	n/a	n/a
82.4953	0.7	INK	14	Neutral	xxxxx	xxxxx	czerwony	red	hit	n/a
83.1663	n/a	RESPONSE	n/a	n/a	n/a	n/a	n/a	n/a	n/a	red
83.1953	1.0167	ITI	n/a	n/a	n/a	n/a	n/a	n/a	n/a	n/a
84.212	0.5167	FIXCROSS	n/a	n/a	n/a	n/a	n/a	n/a	n/a	n/a
84.7287	1.7333	INK	15	Incongruent	żółty	yellow	niebieski	blue	hit	n/a
86.4295	n/a	RESPONSE	n/a	n/a	n/a	n/a	n/a	n/a	n/a	blue
86.462	1.0167	ITI	n/a	n/a	n/a	n/a	n/a	n/a	n/a	n/a
87.4787	0.5167	FIXCROSS	n/a	n/a	n/a	n/a	n/a	n/a	n/a	n/a
87.9953	0.8	INK	16	Neutral	xxxxxxxxx	xxxxxxxxx	czerwony	red	hit	n/a
88.7651	n/a	RESPONSE	n/a	n/a	n/a	n/a	n/a	n/a	n/a	red
88.7953	1.0167	ITI	n/a	n/a	n/a	n/a	n/a	n/a	n/a	n/a
89.812	0.5167	FIXCROSS	n/a	n/a	n/a	n/a	n/a	n/a	n/a	n/a
90.3287	0.6833	INK	17	Incongruent	czerwony	red	zielony	green	hit	n/a
90.9886	n/a	RESPONSE	n/a	n/a	n/a	n/a	n/a	n/a	n/a	green
91.012	1.0167	ITI	n/a	n/a	n/a	n/a	n/a	n/a	n/a	n/a
92.0287	0.5167	FIXCROSS	n/a	n/a	n/a	n/a	n/a	n/a	n/a	n/a
92.5454	0.7833	INK	18	Incongruent	żółty	yellow	czerwony	red	hit	n/a
93.3081	n/a	RESPONSE	n/a	n/a	n/a	n/a	n/a	n/a	n/a	red
93.3287	1.0167	ITI	n/a	n/a	n/a	n/a	n/a	n/a	n/a	n/a
94.3454	0.5167	FIXCROSS	n/a	n/a	n/a	n/a	n/a	n/a	n/a	n/a
94.8621	0.6833	INK	19	Neutral	xxxxxxxx	xxxxxxxx	żółty	yellow	hit	n/a
95.5157	n/a	RESPONSE	n/a	n/a	n/a	n/a	n/a	n/a	n/a	yellow
95.5454	1.0167	ITI	n/a	n/a	n/a	n/a	n/a	n/a	n/a	n/a
96.5621	0.5167	FIXCROSS	n/a	n/a	n/a	n/a	n/a	n/a	n/a	n/a
97.0787	0.8167	INK	20	Neutral	xxxxxxxxx	xxxxxxxxx	zielony	green	hit	n/a
97.8671	n/a	RESPONSE	n/a	n/a	n/a	n/a	n/a	n/a	n/a	green
97.8954	1.0167	ITI	n/a	n/a	n/a	n/a	n/a	n/a	n/a	n/a
98.9121	0.5167	FIXCROSS	n/a	n/a	n/a	n/a	n/a	n/a	n/a	n/a
99.4288	0.7333	INK	21	Neutral	xxxxxxxx	xxxxxxxx	niebieski	blue	hit	n/a
100.1387	n/a	RESPONSE	n/a	n/a	n/a	n/a	n/a	n/a	n/a	blue
100.1621	1.0167	ITI	n/a	n/a	n/a	n/a	n/a	n/a	n/a	n/a
101.1788	0.5167	FIXCROSS	n/a	n/a	n/a	n/a	n/a	n/a	n/a	n/a
101.6954	0.9667	INK	22	Incongruent	czerwony	red	zielony	green	hit	n/a
102.6342	n/a	RESPONSE	n/a	n/a	n/a	n/a	n/a	n/a	n/a	green
102.6621	1.0167	ITI	n/a	n/a	n/a	n/a	n/a	n/a	n/a	n/a
103.6788	0.5167	FIXCROSS	n/a	n/a	n/a	n/a	n/a	n/a	n/a	n/a
104.1955	0.75	INK	23	Incongruent	żółty	yellow	czerwony	red	hit	n/a
104.9217	n/a	RESPONSE	n/a	n/a	n/a	n/a	n/a	n/a	n/a	red
104.9455	1.0167	ITI	n/a	n/a	n/a	n/a	n/a	n/a	n/a	n/a
105.9621	0.5167	FIXCROSS	n/a	n/a	n/a	n/a	n/a	n/a	n/a	n/a
106.4788	0.8	INK	24	Incongruent	żółty	yellow	niebieski	blue	hit	n/a
107.2572	n/a	RESPONSE	n/a	n/a	n/a	n/a	n/a	n/a	n/a	blue
107.2788	1.0167	ITI	n/a	n/a	n/a	n/a	n/a	n/a	n/a	n/a
108.2955	0.5167	FIXCROSS	n/a	n/a	n/a	n/a	n/a	n/a	n/a	n/a
108.8122	0.6333	INK	25	Incongruent	czerwony	red	żółty	yellow	hit	n/a
109.4167	n/a	RESPONSE	n/a	n/a	n/a	n/a	n/a	n/a	n/a	yellow
109.4455	1.0167	ITI	n/a	n/a	n/a	n/a	n/a	n/a	n/a	n/a
110.4622	0.5167	FIXCROSS	n/a	n/a	n/a	n/a	n/a	n/a	n/a	n/a
110.9788	0.7167	INK	26	Neutral	xxxxx	xxxxx	czerwony	red	hit	n/a
111.6722	n/a	RESPONSE	n/a	n/a	n/a	n/a	n/a	n/a	n/a	red
111.6955	1.0167	ITI	n/a	n/a	n/a	n/a	n/a	n/a	n/a	n/a
112.7122	0.5166	FIXCROSS	n/a	n/a	n/a	n/a	n/a	n/a	n/a	n/a
113.2288	0.7	INK	27	Incongruent	czerwony	red	żółty	yellow	hit	n/a
113.8958	n/a	RESPONSE	n/a	n/a	n/a	n/a	n/a	n/a	n/a	yellow
113.9289	1.0167	ITI	n/a	n/a	n/a	n/a	n/a	n/a	n/a	n/a
114.9455	0.5167	FIXCROSS	n/a	n/a	n/a	n/a	n/a	n/a	n/a	n/a
115.4622	0.8	INK	28	Incongruent	żółty	yellow	zielony	green	hit	n/a
116.2313	n/a	RESPONSE	n/a	n/a	n/a	n/a	n/a	n/a	n/a	green
116.2622	1.0167	ITI	n/a	n/a	n/a	n/a	n/a	n/a	n/a	n/a
117.2789	0.5167	FIXCROSS	n/a	n/a	n/a	n/a	n/a	n/a	n/a	n/a
117.7956	1.0	INK	29	Neutral	xxxxxxxxx	xxxxxxxxx	czerwony	red	hit	n/a
118.7748	n/a	RESPONSE	n/a	n/a	n/a	n/a	n/a	n/a	n/a	red
118.7956	1.0167	ITI	n/a	n/a	n/a	n/a	n/a	n/a	n/a	n/a
119.8122	0.5167	FIXCROSS	n/a	n/a	n/a	n/a	n/a	n/a	n/a	n/a
120.3289	1.1333	INK	30	Incongruent	zielony	green	żółty	yellow	hit	n/a
121.4302	n/a	RESPONSE	n/a	n/a	n/a	n/a	n/a	n/a	n/a	yellow
121.4622	1.0167	ITI	n/a	n/a	n/a	n/a	n/a	n/a	n/a	n/a
122.4789	0.5167	FIXCROSS	n/a	n/a	n/a	n/a	n/a	n/a	n/a	n/a
122.9956	1.1333	INK	31	Neutral	xxxxxxxx	xxxxxxxx	niebieski	blue	hit	n/a
124.1016	n/a	RESPONSE	n/a	n/a	n/a	n/a	n/a	n/a	n/a	blue
124.1289	1.0167	ITI	n/a	n/a	n/a	n/a	n/a	n/a	n/a	n/a
125.1456	0.5167	FIXCROSS	n/a	n/a	n/a	n/a	n/a	n/a	n/a	n/a
125.6623	0.8	INK	32	Incongruent	niebieski	blue	zielony	green	hit	n/a
126.4371	n/a	RESPONSE	n/a	n/a	n/a	n/a	n/a	n/a	n/a	green
126.4623	1.0167	ITI	n/a	n/a	n/a	n/a	n/a	n/a	n/a	n/a
127.479	0.5167	FIXCROSS	n/a	n/a	n/a	n/a	n/a	n/a	n/a	n/a
127.9956	0.8167	INK	33	Incongruent	niebieski	blue	czerwony	red	hit	n/a
128.7886	n/a	RESPONSE	n/a	n/a	n/a	n/a	n/a	n/a	n/a	red
128.8123	1.0167	ITI	n/a	n/a	n/a	n/a	n/a	n/a	n/a	n/a
129.829	0.5166	FIXCROSS	n/a	n/a	n/a	n/a	n/a	n/a	n/a	n/a
130.3455	0.8501	INK	34	Neutral	xxxxxxx	xxxxxxx	niebieski	blue	hit	n/a
131.1721	n/a	RESPONSE	n/a	n/a	n/a	n/a	n/a	n/a	n/a	blue
131.1957	1.0167	ITI	n/a	n/a	n/a	n/a	n/a	n/a	n/a	n/a
132.2123	0.5167	FIXCROSS	n/a	n/a	n/a	n/a	n/a	n/a	n/a	n/a
132.729	0.7	INK	35	Neutral	xxxxx	xxxxx	zielony	green	hit	n/a
133.4117	n/a	RESPONSE	n/a	n/a	n/a	n/a	n/a	n/a	n/a	green
133.429	1.0167	ITI	n/a	n/a	n/a	n/a	n/a	n/a	n/a	n/a
134.4457	0.5167	FIXCROSS	n/a	n/a	n/a	n/a	n/a	n/a	n/a	n/a
134.9623	0.6	INK	36	Neutral	xxxxxxx	xxxxxxx	żółty	yellow	hit	n/a
135.5392	n/a	RESPONSE	n/a	n/a	n/a	n/a	n/a	n/a	n/a	yellow
135.5624	1.0167	ITI	n/a	n/a	n/a	n/a	n/a	n/a	n/a	n/a
136.579	0.5167	FIXCROSS	n/a	n/a	n/a	n/a	n/a	n/a	n/a	n/a
137.0957	0.65	INK	37	Neutral	xxxxx	xxxxx	czerwony	red	hit	n/a
137.7148	n/a	RESPONSE	n/a	n/a	n/a	n/a	n/a	n/a	n/a	red
137.7457	1.0167	ITI	n/a	n/a	n/a	n/a	n/a	n/a	n/a	n/a
138.7624	0.5167	FIXCROSS	n/a	n/a	n/a	n/a	n/a	n/a	n/a	n/a
139.279	0.6167	INK	38	Incongruent	zielony	green	żółty	yellow	hit	n/a
139.8743	n/a	RESPONSE	n/a	n/a	n/a	n/a	n/a	n/a	n/a	yellow
139.8957	1.0167	ITI	n/a	n/a	n/a	n/a	n/a	n/a	n/a	n/a
140.9124	0.5167	FIXCROSS	n/a	n/a	n/a	n/a	n/a	n/a	n/a	n/a
141.4291	0.7333	INK	39	Neutral	xxxxxxx	xxxxxxx	czerwony	red	hit	n/a
142.1298	n/a	RESPONSE	n/a	n/a	n/a	n/a	n/a	n/a	n/a	red
142.1624	1.0167	ITI	n/a	n/a	n/a	n/a	n/a	n/a	n/a	n/a
143.1791	0.5167	FIXCROSS	n/a	n/a	n/a	n/a	n/a	n/a	n/a	n/a
143.6957	0.8667	INK	40	Neutral	xxxxx	xxxxx	zielony	green	hit	n/a
144.5293	n/a	RESPONSE	n/a	n/a	n/a	n/a	n/a	n/a	n/a	green
144.5624	1.0167	ITI	n/a	n/a	n/a	n/a	n/a	n/a	n/a	n/a
145.5791	0.5167	FIXCROSS	n/a	n/a	n/a	n/a	n/a	n/a	n/a	n/a
146.0958	0.6667	INK	41	Neutral	xxxxxxxx	xxxxxxxx	zielony	green	hit	n/a
146.7369	n/a	RESPONSE	n/a	n/a	n/a	n/a	n/a	n/a	n/a	green
146.7624	1.0167	ITI	n/a	n/a	n/a	n/a	n/a	n/a	n/a	n/a
147.7791	0.5167	FIXCROSS	n/a	n/a	n/a	n/a	n/a	n/a	n/a	n/a
148.2958	1.0167	INK	42	Incongruent	zielony	green	niebieski	blue	hit	n/a
149.2803	n/a	RESPONSE	n/a	n/a	n/a	n/a	n/a	n/a	n/a	blue
149.3124	1.0167	ITI	n/a	n/a	n/a	n/a	n/a	n/a	n/a	n/a
150.3291	0.5167	FIXCROSS	n/a	n/a	n/a	n/a	n/a	n/a	n/a	n/a
150.8458	0.6333	INK	43	Incongruent	czerwony	red	żółty	yellow	hit	n/a
151.4559	n/a	RESPONSE	n/a	n/a	n/a	n/a	n/a	n/a	n/a	yellow
151.4791	1.0167	ITI	n/a	n/a	n/a	n/a	n/a	n/a	n/a	n/a
152.4958	0.5167	FIXCROSS	n/a	n/a	n/a	n/a	n/a	n/a	n/a	n/a
153.0125	0.75	INK	44	Neutral	xxxxxxx	xxxxxxx	niebieski	blue	hit	n/a
153.7274	n/a	RESPONSE	n/a	n/a	n/a	n/a	n/a	n/a	n/a	blue
153.7625	1.0167	ITI	n/a	n/a	n/a	n/a	n/a	n/a	n/a	n/a
154.7791	0.5167	FIXCROSS	n/a	n/a	n/a	n/a	n/a	n/a	n/a	n/a
155.2958	0.65	INK	45	Incongruent	żółty	yellow	zielony	green	hit	n/a
155.9189	n/a	RESPONSE	n/a	n/a	n/a	n/a	n/a	n/a	n/a	green
155.9458	1.0167	ITI	n/a	n/a	n/a	n/a	n/a	n/a	n/a	n/a
156.9625	0.5167	FIXCROSS	n/a	n/a	n/a	n/a	n/a	n/a	n/a	n/a
157.4792	0.55	INK	46	Incongruent	czerwony	red	zielony	green	hit	n/a
157.9985	n/a	RESPONSE	n/a	n/a	n/a	n/a	n/a	n/a	n/a	green
158.0292	1.0167	ITI	n/a	n/a	n/a	n/a	n/a	n/a	n/a	n/a
159.0459	0.5167	FIXCROSS	n/a	n/a	n/a	n/a	n/a	n/a	n/a	n/a
159.5625	0.6167	INK	47	Neutral	xxxxxxxxx	xxxxxxxxx	czerwony	red	hit	n/a
160.158	n/a	RESPONSE	n/a	n/a	n/a	n/a	n/a	n/a	n/a	red
160.1792	1.0167	ITI	n/a	n/a	n/a	n/a	n/a	n/a	n/a	n/a
161.1959	0.5167	FIXCROSS	n/a	n/a	n/a	n/a	n/a	n/a	n/a	n/a
161.7125	0.6	INK	48	Neutral	xxxxxxxxx	xxxxxxxxx	żółty	yellow	hit	n/a
162.2856	n/a	RESPONSE	n/a	n/a	n/a	n/a	n/a	n/a	n/a	yellow
162.3125	1.0167	ITI	n/a	n/a	n/a	n/a	n/a	n/a	n/a	n/a
163.3292	0.5167	FIXCROSS	n/a	n/a	n/a	n/a	n/a	n/a	n/a	n/a
163.8459	0.7167	INK	49	Neutral	xxxxxxx	xxxxxxx	czerwony	red	hit	n/a
164.5411	n/a	RESPONSE	n/a	n/a	n/a	n/a	n/a	n/a	n/a	red
164.5626	1.0167	ITI	n/a	n/a	n/a	n/a	n/a	n/a	n/a	n/a
165.5792	0.5167	FIXCROSS	n/a	n/a	n/a	n/a	n/a	n/a	n/a	n/a
166.0959	0.7167	INK	50	Neutral	xxxxxxx	xxxxxxx	niebieski	blue	hit	n/a
166.7807	n/a	RESPONSE	n/a	n/a	n/a	n/a	n/a	n/a	n/a	blue
166.8126	1.0167	ITI	n/a	n/a	n/a	n/a	n/a	n/a	n/a	n/a
167.8293	0.5167	FIXCROSS	n/a	n/a	n/a	n/a	n/a	n/a	n/a	n/a
168.3459	0.6667	INK	51	Incongruent	zielony	green	czerwony	red	hit	n/a
168.9882	n/a	RESPONSE	n/a	n/a	n/a	n/a	n/a	n/a	n/a	red
169.0126	1.0167	ITI	n/a	n/a	n/a	n/a	n/a	n/a	n/a	n/a
170.0293	0.5167	FIXCROSS	n/a	n/a	n/a	n/a	n/a	n/a	n/a	n/a
170.5459	0.6667	INK	52	Incongruent	zielony	green	żółty	yellow	hit	n/a
171.1797	n/a	RESPONSE	n/a	n/a	n/a	n/a	n/a	n/a	n/a	yellow
171.2126	1.0167	ITI	n/a	n/a	n/a	n/a	n/a	n/a	n/a	n/a
172.2293	0.5167	FIXCROSS	n/a	n/a	n/a	n/a	n/a	n/a	n/a	n/a
172.7459	0.7	INK	53	Incongruent	czerwony	red	niebieski	blue	hit	n/a
173.4193	n/a	RESPONSE	n/a	n/a	n/a	n/a	n/a	n/a	n/a	blue
173.4459	1.0167	ITI	n/a	n/a	n/a	n/a	n/a	n/a	n/a	n/a
174.4626	0.5167	FIXCROSS	n/a	n/a	n/a	n/a	n/a	n/a	n/a	n/a
174.9793	0.65	INK	54	Neutral	xxxxx	xxxxx	niebieski	blue	hit	n/a
175.6108	n/a	RESPONSE	n/a	n/a	n/a	n/a	n/a	n/a	n/a	blue
175.6293	1.0167	ITI	n/a	n/a	n/a	n/a	n/a	n/a	n/a	n/a
176.646	0.5167	FIXCROSS	n/a	n/a	n/a	n/a	n/a	n/a	n/a	n/a
177.1626	0.5833	INK	55	Neutral	xxxxxxxx	xxxxxxxx	żółty	yellow	hit	n/a
177.7223	n/a	RESPONSE	n/a	n/a	n/a	n/a	n/a	n/a	n/a	yellow
177.746	1.0167	ITI	n/a	n/a	n/a	n/a	n/a	n/a	n/a	n/a
178.7627	0.5167	FIXCROSS	n/a	n/a	n/a	n/a	n/a	n/a	n/a	n/a
179.2793	1.05	INK	56	Incongruent	czerwony	red	niebieski	blue	hit	n/a
180.2978	n/a	RESPONSE	n/a	n/a	n/a	n/a	n/a	n/a	n/a	blue
180.3293	1.0167	ITI	n/a	n/a	n/a	n/a	n/a	n/a	n/a	n/a
181.346	0.5167	FIXCROSS	n/a	n/a	n/a	n/a	n/a	n/a	n/a	n/a
181.8627	0.7	INK	57	Incongruent	zielony	green	niebieski	blue	hit	n/a
182.5373	n/a	RESPONSE	n/a	n/a	n/a	n/a	n/a	n/a	n/a	blue
182.5627	1.0167	ITI	n/a	n/a	n/a	n/a	n/a	n/a	n/a	n/a
183.5794	0.5167	FIXCROSS	n/a	n/a	n/a	n/a	n/a	n/a	n/a	n/a
184.096	0.85	INK	58	Incongruent	niebieski	blue	czerwony	red	hit	n/a
184.9208	n/a	RESPONSE	n/a	n/a	n/a	n/a	n/a	n/a	n/a	red
184.946	1.0167	ITI	n/a	n/a	n/a	n/a	n/a	n/a	n/a	n/a
185.9627	0.5167	FIXCROSS	n/a	n/a	n/a	n/a	n/a	n/a	n/a	n/a
186.4794	0.8	INK	59	Incongruent	żółty	yellow	niebieski	blue	hit	n/a
187.2563	n/a	RESPONSE	n/a	n/a	n/a	n/a	n/a	n/a	n/a	blue
187.2794	1.0167	ITI	n/a	n/a	n/a	n/a	n/a	n/a	n/a	n/a
188.2961	0.5167	FIXCROSS	n/a	n/a	n/a	n/a	n/a	n/a	n/a	n/a
188.8127	0.6	INK	60	Incongruent	niebieski	blue	żółty	yellow	hit	n/a
189.3839	n/a	RESPONSE	n/a	n/a	n/a	n/a	n/a	n/a	n/a	yellow
189.4127	1.0167	ITI	n/a	n/a	n/a	n/a	n/a	n/a	n/a	n/a
190.4294	0.5167	FIXCROSS	n/a	n/a	n/a	n/a	n/a	n/a	n/a	n/a
190.9461	0.5	INK	61	Incongruent	niebieski	blue	żółty	yellow	hit	n/a
191.4155	n/a	RESPONSE	n/a	n/a	n/a	n/a	n/a	n/a	n/a	yellow
191.4461	1.0167	ITI	n/a	n/a	n/a	n/a	n/a	n/a	n/a	n/a
192.4627	0.5167	FIXCROSS	n/a	n/a	n/a	n/a	n/a	n/a	n/a	n/a
192.9794	1.0	INK	62	Neutral	xxxxx	xxxxx	niebieski	blue	hit	n/a
193.9589	n/a	RESPONSE	n/a	n/a	n/a	n/a	n/a	n/a	n/a	blue
193.9794	1.0167	ITI	n/a	n/a	n/a	n/a	n/a	n/a	n/a	n/a
194.9961	0.5167	FIXCROSS	n/a	n/a	n/a	n/a	n/a	n/a	n/a	n/a
195.5128	0.7667	INK	63	Incongruent	niebieski	blue	zielony	green	hit	n/a
196.2465	n/a	RESPONSE	n/a	n/a	n/a	n/a	n/a	n/a	n/a	green
196.2794	1.0167	ITI	n/a	n/a	n/a	n/a	n/a	n/a	n/a	n/a
197.2961	0.5167	FIXCROSS	n/a	n/a	n/a	n/a	n/a	n/a	n/a	n/a
197.8128	1.0	INK	64	Neutral	xxxxxxxx	xxxxxxxx	niebieski	blue	hit	n/a
198.7899	n/a	RESPONSE	n/a	n/a	n/a	n/a	n/a	n/a	n/a	blue
198.8128	1.0167	ITI	n/a	n/a	n/a	n/a	n/a	n/a	n/a	n/a
199.8295	0.5167	FIXCROSS	n/a	n/a	n/a	n/a	n/a	n/a	n/a	n/a
200.3461	0.75	INK	65	Neutral	xxxxx	xxxxx	niebieski	blue	hit	n/a
201.0774	n/a	RESPONSE	n/a	n/a	n/a	n/a	n/a	n/a	n/a	blue
201.0961	1.0167	ITI	n/a	n/a	n/a	n/a	n/a	n/a	n/a	n/a
202.1128	0.5167	FIXCROSS	n/a	n/a	n/a	n/a	n/a	n/a	n/a	n/a
202.6295	0.8333	INK	66	Incongruent	niebieski	blue	zielony	green	hit	n/a
203.4449	n/a	RESPONSE	n/a	n/a	n/a	n/a	n/a	n/a	n/a	green
203.4628	1.0167	ITI	n/a	n/a	n/a	n/a	n/a	n/a	n/a	n/a
204.4795	0.5167	FIXCROSS	n/a	n/a	n/a	n/a	n/a	n/a	n/a	n/a
204.9962	0.8	INK	67	Incongruent	niebieski	blue	żółty	yellow	hit	n/a
205.7644	n/a	RESPONSE	n/a	n/a	n/a	n/a	n/a	n/a	n/a	yellow
205.7962	1.0167	ITI	n/a	n/a	n/a	n/a	n/a	n/a	n/a	n/a
206.8128	0.5167	FIXCROSS	n/a	n/a	n/a	n/a	n/a	n/a	n/a	n/a
207.3295	0.7667	INK	68	Neutral	xxxxxxxx	xxxxxxxx	zielony	green	hit	n/a
208.068	n/a	RESPONSE	n/a	n/a	n/a	n/a	n/a	n/a	n/a	green
208.0962	1.0167	ITI	n/a	n/a	n/a	n/a	n/a	n/a	n/a	n/a
209.1129	0.5167	FIXCROSS	n/a	n/a	n/a	n/a	n/a	n/a	n/a	n/a
209.6295	0.7	INK	69	Incongruent	zielony	green	czerwony	red	hit	n/a
210.3075	n/a	RESPONSE	n/a	n/a	n/a	n/a	n/a	n/a	n/a	red
210.3295	1.0167	ITI	n/a	n/a	n/a	n/a	n/a	n/a	n/a	n/a
211.3462	0.5167	FIXCROSS	n/a	n/a	n/a	n/a	n/a	n/a	n/a	n/a
211.8629	0.5667	INK	70	Neutral	xxxxxxxxx	xxxxxxxxx	żółty	yellow	hit	n/a
212.4031	n/a	RESPONSE	n/a	n/a	n/a	n/a	n/a	n/a	n/a	yellow
212.4296	1.0167	ITI	n/a	n/a	n/a	n/a	n/a	n/a	n/a	n/a
213.4462	0.5167	FIXCROSS	n/a	n/a	n/a	n/a	n/a	n/a	n/a	n/a
213.9629	0.8333	INK	71	Incongruent	niebieski	blue	czerwony	red	hit	n/a
214.7706	n/a	RESPONSE	n/a	n/a	n/a	n/a	n/a	n/a	n/a	red
214.7962	1.0167	ITI	n/a	n/a	n/a	n/a	n/a	n/a	n/a	n/a
215.8129	0.5167	FIXCROSS	n/a	n/a	n/a	n/a	n/a	n/a	n/a	n/a
216.3296	0.7667	INK	72	Neutral	xxxxxxx	xxxxxxx	czerwony	red	hit	n/a
217.0741	n/a	RESPONSE	n/a	n/a	n/a	n/a	n/a	n/a	n/a	red
217.0962	1.0833	ITI	n/a	n/a	n/a	n/a	n/a	n/a	n/a	n/a
235.7422	n/a	RESPONSE	n/a	n/a	n/a	n/a	n/a	n/a	n/a	n/a
235.8131	1.0167	ITI	n/a	n/a	n/a	n/a	n/a	n/a	n/a	n/a
236.8297	0.5167	FIXCROSS	n/a	n/a	n/a	n/a	n/a	n/a	n/a	n/a
237.3464	1.5667	T_COLOR_NAME	1	Neutral	zielony	green	Neutral	Neutral	hit	n/a
238.8775	n/a	RESPONSE	n/a	n/a	n/a	n/a	n/a	n/a	n/a	green
238.9131	0.5167	FEEDBACK	n/a	n/a	n/a	n/a	n/a	n/a	n/a	n/a
239.4297	1.0167	ITI	n/a	n/a	n/a	n/a	n/a	n/a	n/a	n/a
240.4464	0.5167	FIXCROSS	n/a	n/a	n/a	n/a	n/a	n/a	n/a	n/a
240.9631	1.05	T_COLOR_NAME	2	Incongruent	niebieski	blue	czerwony	red	hit	n/a
241.9809	n/a	RESPONSE	n/a	n/a	n/a	n/a	n/a	n/a	n/a	blue
242.0131	0.5167	FEEDBACK	n/a	n/a	n/a	n/a	n/a	n/a	n/a	n/a
242.5298	1.0167	ITI	n/a	n/a	n/a	n/a	n/a	n/a	n/a	n/a
243.5464	0.5167	FIXCROSS	n/a	n/a	n/a	n/a	n/a	n/a	n/a	n/a
244.0631	0.9333	T_COLOR_NAME	3	Incongruent	czerwony	red	żółty	yellow	hit	n/a
244.9722	n/a	RESPONSE	n/a	n/a	n/a	n/a	n/a	n/a	n/a	red
244.9964	0.5167	FEEDBACK	n/a	n/a	n/a	n/a	n/a	n/a	n/a	n/a
245.5131	1.0167	ITI	n/a	n/a	n/a	n/a	n/a	n/a	n/a	n/a
246.5298	0.5167	FIXCROSS	n/a	n/a	n/a	n/a	n/a	n/a	n/a	n/a
247.0465	0.7167	T_COLOR_NAME	4	Incongruent	żółty	yellow	czerwony	red	hit	n/a
247.7396	n/a	RESPONSE	n/a	n/a	n/a	n/a	n/a	n/a	n/a	yellow
247.7631	0.5167	FEEDBACK	n/a	n/a	n/a	n/a	n/a	n/a	n/a	n/a
248.2798	1.0167	ITI	n/a	n/a	n/a	n/a	n/a	n/a	n/a	n/a
249.2965	0.5167	FIXCROSS	n/a	n/a	n/a	n/a	n/a	n/a	n/a	n/a
249.8131	1.0167	T_COLOR_NAME	5	Incongruent	niebieski	blue	zielony	green	hit	n/a
250.795	n/a	RESPONSE	n/a	n/a	n/a	n/a	n/a	n/a	n/a	blue
250.8298	0.5167	FEEDBACK	n/a	n/a	n/a	n/a	n/a	n/a	n/a	n/a
251.3465	1.0167	ITI	n/a	n/a	n/a	n/a	n/a	n/a	n/a	n/a
252.3632	0.5167	FIXCROSS	n/a	n/a	n/a	n/a	n/a	n/a	n/a	n/a
252.8798	0.7667	T_COLOR_NAME	6	Neutral	żółty	yellow	Neutral	Neutral	hit	n/a
253.6264	n/a	RESPONSE	n/a	n/a	n/a	n/a	n/a	n/a	n/a	yellow
253.6465	0.5167	FEEDBACK	n/a	n/a	n/a	n/a	n/a	n/a	n/a	n/a
254.1632	1.0167	ITI	n/a	n/a	n/a	n/a	n/a	n/a	n/a	n/a
255.1798	0.5167	FIXCROSS	n/a	n/a	n/a	n/a	n/a	n/a	n/a	n/a
255.6965	0.6833	T_COLOR_NAME	7	Neutral	czerwony	red	Neutral	Neutral	hit	n/a
256.3458	n/a	RESPONSE	n/a	n/a	n/a	n/a	n/a	n/a	n/a	red
256.3799	0.5167	FEEDBACK	n/a	n/a	n/a	n/a	n/a	n/a	n/a	n/a
256.8965	1.0167	ITI	n/a	n/a	n/a	n/a	n/a	n/a	n/a	n/a
257.9132	0.5167	FIXCROSS	n/a	n/a	n/a	n/a	n/a	n/a	n/a	n/a
258.4299	0.6833	T_COLOR_NAME	8	Incongruent	żółty	yellow	niebieski	blue	hit	n/a
259.0812	n/a	RESPONSE	n/a	n/a	n/a	n/a	n/a	n/a	n/a	yellow
259.1132	0.5167	FEEDBACK	n/a	n/a	n/a	n/a	n/a	n/a	n/a	n/a
259.6299	1.0167	ITI	n/a	n/a	n/a	n/a	n/a	n/a	n/a	n/a
260.6466	0.5167	FIXCROSS	n/a	n/a	n/a	n/a	n/a	n/a	n/a	n/a
261.1632	0.7167	T_COLOR_NAME	9	Neutral	zielony	green	Neutral	Neutral	hit	n/a
261.8487	n/a	RESPONSE	n/a	n/a	n/a	n/a	n/a	n/a	n/a	green
261.8799	0.5167	FEEDBACK	n/a	n/a	n/a	n/a	n/a	n/a	n/a	n/a
262.3966	1.0167	ITI	n/a	n/a	n/a	n/a	n/a	n/a	n/a	n/a
263.4132	0.5167	FIXCROSS	n/a	n/a	n/a	n/a	n/a	n/a	n/a	n/a
263.9299	0.7	T_COLOR_NAME	10	Incongruent	czerwony	red	niebieski	blue	hit	n/a
264.6001	n/a	RESPONSE	n/a	n/a	n/a	n/a	n/a	n/a	n/a	red
264.6299	0.5167	FEEDBACK	n/a	n/a	n/a	n/a	n/a	n/a	n/a	n/a
265.1466	1.0167	ITI	n/a	n/a	n/a	n/a	n/a	n/a	n/a	n/a
266.1633	0.5167	FIXCROSS	n/a	n/a	n/a	n/a	n/a	n/a	n/a	n/a
266.6799	0.8667	T_COLOR_NAME	11	Neutral	niebieski	blue	Neutral	Neutral	hit	n/a
267.5275	n/a	RESPONSE	n/a	n/a	n/a	n/a	n/a	n/a	n/a	blue
267.5466	0.5167	FEEDBACK	n/a	n/a	n/a	n/a	n/a	n/a	n/a	n/a
268.0633	1.0167	ITI	n/a	n/a	n/a	n/a	n/a	n/a	n/a	n/a
269.0799	0.5167	FIXCROSS	n/a	n/a	n/a	n/a	n/a	n/a	n/a	n/a
269.5966	0.7667	T_COLOR_NAME	12	Neutral	zielony	green	Neutral	Neutral	hit	n/a
270.3428	n/a	RESPONSE	n/a	n/a	n/a	n/a	n/a	n/a	n/a	green
270.3633	0.5167	FEEDBACK	n/a	n/a	n/a	n/a	n/a	n/a	n/a	n/a
270.88	1.0333	ITI	n/a	n/a	n/a	n/a	n/a	n/a	n/a	n/a
274.0381	n/a	RESPONSE	n/a	n/a	n/a	n/a	n/a	n/a	n/a	n/a
274.0966	1.0167	ITI	n/a	n/a	n/a	n/a	n/a	n/a	n/a	n/a
275.1133	0.5167	FIXCROSS	n/a	n/a	n/a	n/a	n/a	n/a	n/a	n/a
275.63	1.1167	COLOR_NAME	1	Incongruent	zielony	green	żółty	yellow	hit	n/a
276.7255	n/a	RESPONSE	n/a	n/a	n/a	n/a	n/a	n/a	n/a	green
276.7467	1.0167	ITI	n/a	n/a	n/a	n/a	n/a	n/a	n/a	n/a
277.7633	0.5167	FIXCROSS	n/a	n/a	n/a	n/a	n/a	n/a	n/a	n/a
278.28	0.6333	COLOR_NAME	2	Neutral	zielony	green	Neutral	Neutral	hit	n/a
278.885	n/a	RESPONSE	n/a	n/a	n/a	n/a	n/a	n/a	n/a	green
278.9133	1.0167	ITI	n/a	n/a	n/a	n/a	n/a	n/a	n/a	n/a
279.93	0.5167	FIXCROSS	n/a	n/a	n/a	n/a	n/a	n/a	n/a	n/a
280.4467	0.5833	COLOR_NAME	3	Neutral	żółty	yellow	Neutral	Neutral	hit	n/a
280.9966	n/a	RESPONSE	n/a	n/a	n/a	n/a	n/a	n/a	n/a	yellow
281.03	1.0167	ITI	n/a	n/a	n/a	n/a	n/a	n/a	n/a	n/a
282.0467	0.5167	FIXCROSS	n/a	n/a	n/a	n/a	n/a	n/a	n/a	n/a
282.5634	0.6667	COLOR_NAME	4	Incongruent	niebieski	blue	zielony	green	hit	n/a
283.2042	n/a	RESPONSE	n/a	n/a	n/a	n/a	n/a	n/a	n/a	blue
283.23	1.0167	ITI	n/a	n/a	n/a	n/a	n/a	n/a	n/a	n/a
284.2467	0.5167	FIXCROSS	n/a	n/a	n/a	n/a	n/a	n/a	n/a	n/a
284.7634	1.6	COLOR_NAME	5	Incongruent	zielony	green	czerwony	red	hit	n/a
286.3395	n/a	RESPONSE	n/a	n/a	n/a	n/a	n/a	n/a	n/a	green
286.3634	1.0167	ITI	n/a	n/a	n/a	n/a	n/a	n/a	n/a	n/a
287.3801	0.5167	FIXCROSS	n/a	n/a	n/a	n/a	n/a	n/a	n/a	n/a
287.8967	0.6667	COLOR_NAME	6	Incongruent	zielony	green	żółty	yellow	hit	n/a
288.531	n/a	RESPONSE	n/a	n/a	n/a	n/a	n/a	n/a	n/a	green
288.5634	1.0167	ITI	n/a	n/a	n/a	n/a	n/a	n/a	n/a	n/a
289.5801	0.5167	FIXCROSS	n/a	n/a	n/a	n/a	n/a	n/a	n/a	n/a
290.0968	0.6167	COLOR_NAME	7	Neutral	zielony	green	Neutral	Neutral	hit	n/a
290.6906	n/a	RESPONSE	n/a	n/a	n/a	n/a	n/a	n/a	n/a	green
290.7134	1.0167	ITI	n/a	n/a	n/a	n/a	n/a	n/a	n/a	n/a
291.7301	0.5167	FIXCROSS	n/a	n/a	n/a	n/a	n/a	n/a	n/a	n/a
292.2468	0.7	COLOR_NAME	8	Neutral	czerwony	red	Neutral	Neutral	hit	n/a
292.9141	n/a	RESPONSE	n/a	n/a	n/a	n/a	n/a	n/a	n/a	red
292.9468	1.0167	ITI	n/a	n/a	n/a	n/a	n/a	n/a	n/a	n/a
293.9635	0.5167	FIXCROSS	n/a	n/a	n/a	n/a	n/a	n/a	n/a	n/a
294.4801	0.6333	COLOR_NAME	9	Neutral	czerwony	red	Neutral	Neutral	hit	n/a
295.0896	n/a	RESPONSE	n/a	n/a	n/a	n/a	n/a	n/a	n/a	red
295.1135	1.0167	ITI	n/a	n/a	n/a	n/a	n/a	n/a	n/a	n/a
296.1301	0.5167	FIXCROSS	n/a	n/a	n/a	n/a	n/a	n/a	n/a	n/a
296.6468	0.7333	COLOR_NAME	10	Neutral	zielony	green	Neutral	Neutral	hit	n/a
297.3612	n/a	RESPONSE	n/a	n/a	n/a	n/a	n/a	n/a	n/a	green
297.3801	1.0167	ITI	n/a	n/a	n/a	n/a	n/a	n/a	n/a	n/a
298.3968	0.5167	FIXCROSS	n/a	n/a	n/a	n/a	n/a	n/a	n/a	n/a
298.9135	0.6333	COLOR_NAME	11	Incongruent	żółty	yellow	niebieski	blue	hit	n/a
299.5207	n/a	RESPONSE	n/a	n/a	n/a	n/a	n/a	n/a	n/a	yellow
299.5468	1.0167	ITI	n/a	n/a	n/a	n/a	n/a	n/a	n/a	n/a
300.5635	0.5167	FIXCROSS	n/a	n/a	n/a	n/a	n/a	n/a	n/a	n/a
301.0802	0.7	COLOR_NAME	12	Neutral	czerwony	red	Neutral	Neutral	hit	n/a
301.7603	n/a	RESPONSE	n/a	n/a	n/a	n/a	n/a	n/a	n/a	red
301.7802	1.0167	ITI	n/a	n/a	n/a	n/a	n/a	n/a	n/a	n/a
302.7968	0.5167	FIXCROSS	n/a	n/a	n/a	n/a	n/a	n/a	n/a	n/a
303.3135	0.7333	COLOR_NAME	13	Incongruent	żółty	yellow	czerwony	red	hit	n/a
304.0158	n/a	RESPONSE	n/a	n/a	n/a	n/a	n/a	n/a	n/a	yellow
304.0468	1.0167	ITI	n/a	n/a	n/a	n/a	n/a	n/a	n/a	n/a
305.0635	0.5167	FIXCROSS	n/a	n/a	n/a	n/a	n/a	n/a	n/a	n/a
305.5802	0.85	COLOR_NAME	14	Neutral	zielony	green	Neutral	Neutral	hit	n/a
306.3993	n/a	RESPONSE	n/a	n/a	n/a	n/a	n/a	n/a	n/a	green
306.4302	1.0167	ITI	n/a	n/a	n/a	n/a	n/a	n/a	n/a	n/a
307.4469	0.5167	FIXCROSS	n/a	n/a	n/a	n/a	n/a	n/a	n/a	n/a
307.9635	0.7333	COLOR_NAME	15	Neutral	niebieski	blue	Neutral	Neutral	hit	n/a
308.6708	n/a	RESPONSE	n/a	n/a	n/a	n/a	n/a	n/a	n/a	blue
308.6969	1.0167	ITI	n/a	n/a	n/a	n/a	n/a	n/a	n/a	n/a
309.7136	0.5167	FIXCROSS	n/a	n/a	n/a	n/a	n/a	n/a	n/a	n/a
310.2302	1.0333	COLOR_NAME	16	Incongruent	niebieski	blue	żółty	yellow	hit	n/a
311.2302	n/a	RESPONSE	n/a	n/a	n/a	n/a	n/a	n/a	n/a	blue
311.2636	1.0167	ITI	n/a	n/a	n/a	n/a	n/a	n/a	n/a	n/a
312.2802	0.5167	FIXCROSS	n/a	n/a	n/a	n/a	n/a	n/a	n/a	n/a
312.7969	0.65	COLOR_NAME	17	Incongruent	czerwony	red	niebieski	blue	hit	n/a
313.4218	n/a	RESPONSE	n/a	n/a	n/a	n/a	n/a	n/a	n/a	red
313.4469	1.0167	ITI	n/a	n/a	n/a	n/a	n/a	n/a	n/a	n/a
314.4636	0.5167	FIXCROSS	n/a	n/a	n/a	n/a	n/a	n/a	n/a	n/a
314.9803	0.6667	COLOR_NAME	18	Neutral	zielony	green	Neutral	Neutral	hit	n/a
315.6293	n/a	RESPONSE	n/a	n/a	n/a	n/a	n/a	n/a	n/a	green
315.6469	1.0167	ITI	n/a	n/a	n/a	n/a	n/a	n/a	n/a	n/a
316.6636	0.5167	FIXCROSS	n/a	n/a	n/a	n/a	n/a	n/a	n/a	n/a
317.1803	0.7	COLOR_NAME	19	Incongruent	czerwony	red	zielony	green	hit	n/a
317.8529	n/a	RESPONSE	n/a	n/a	n/a	n/a	n/a	n/a	n/a	red
317.8803	1.0167	ITI	n/a	n/a	n/a	n/a	n/a	n/a	n/a	n/a
318.897	0.5167	FIXCROSS	n/a	n/a	n/a	n/a	n/a	n/a	n/a	n/a
319.4136	0.95	COLOR_NAME	20	Neutral	niebieski	blue	Neutral	Neutral	hit	n/a
320.3324	n/a	RESPONSE	n/a	n/a	n/a	n/a	n/a	n/a	n/a	blue
320.3636	1.0167	ITI	n/a	n/a	n/a	n/a	n/a	n/a	n/a	n/a
321.3803	0.5167	FIXCROSS	n/a	n/a	n/a	n/a	n/a	n/a	n/a	n/a
321.897	0.8833	COLOR_NAME	21	Neutral	czerwony	red	Neutral	Neutral	hit	n/a
322.7479	n/a	RESPONSE	n/a	n/a	n/a	n/a	n/a	n/a	n/a	red
322.7803	1.0167	ITI	n/a	n/a	n/a	n/a	n/a	n/a	n/a	n/a
323.797	0.5167	FIXCROSS	n/a	n/a	n/a	n/a	n/a	n/a	n/a	n/a
324.3137	0.9333	COLOR_NAME	22	Incongruent	czerwony	red	żółty	yellow	hit	n/a
325.2273	n/a	RESPONSE	n/a	n/a	n/a	n/a	n/a	n/a	n/a	red
325.247	1.0167	ITI	n/a	n/a	n/a	n/a	n/a	n/a	n/a	n/a
326.2637	0.5167	FIXCROSS	n/a	n/a	n/a	n/a	n/a	n/a	n/a	n/a
326.7803	1.65	COLOR_NAME	23	Neutral	żółty	yellow	Neutral	Neutral	hit	n/a
328.4106	n/a	RESPONSE	n/a	n/a	n/a	n/a	n/a	n/a	n/a	yellow
328.4304	1.0167	ITI	n/a	n/a	n/a	n/a	n/a	n/a	n/a	n/a
329.447	0.5167	FIXCROSS	n/a	n/a	n/a	n/a	n/a	n/a	n/a	n/a
329.9637	0.65	COLOR_NAME	24	Neutral	żółty	yellow	Neutral	Neutral	hit	n/a
330.5862	n/a	RESPONSE	n/a	n/a	n/a	n/a	n/a	n/a	n/a	yellow
330.6137	1.0167	ITI	n/a	n/a	n/a	n/a	n/a	n/a	n/a	n/a
331.6304	0.5167	FIXCROSS	n/a	n/a	n/a	n/a	n/a	n/a	n/a	n/a
332.147	0.7833	COLOR_NAME	25	Incongruent	czerwony	red	żółty	yellow	hit	n/a
332.9058	n/a	RESPONSE	n/a	n/a	n/a	n/a	n/a	n/a	n/a	red
332.9304	1.0167	ITI	n/a	n/a	n/a	n/a	n/a	n/a	n/a	n/a
333.9471	0.5167	FIXCROSS	n/a	n/a	n/a	n/a	n/a	n/a	n/a	n/a
334.4637	1.0667	COLOR_NAME	26	Neutral	niebieski	blue	Neutral	Neutral	hit	n/a
335.4971	n/a	RESPONSE	n/a	n/a	n/a	n/a	n/a	n/a	n/a	blue
335.5304	1.0167	ITI	n/a	n/a	n/a	n/a	n/a	n/a	n/a	n/a
336.5471	0.5167	FIXCROSS	n/a	n/a	n/a	n/a	n/a	n/a	n/a	n/a
337.0637	0.7167	COLOR_NAME	27	Neutral	czerwony	red	Neutral	Neutral	hit	n/a
337.7527	n/a	RESPONSE	n/a	n/a	n/a	n/a	n/a	n/a	n/a	red
337.7804	1.0167	ITI	n/a	n/a	n/a	n/a	n/a	n/a	n/a	n/a
338.7971	0.5167	FIXCROSS	n/a	n/a	n/a	n/a	n/a	n/a	n/a	n/a
339.3138	0.5667	COLOR_NAME	28	Neutral	żółty	yellow	Neutral	Neutral	hit	n/a
339.8482	n/a	RESPONSE	n/a	n/a	n/a	n/a	n/a	n/a	n/a	yellow
339.8804	1.0167	ITI	n/a	n/a	n/a	n/a	n/a	n/a	n/a	n/a
340.8971	0.5167	FIXCROSS	n/a	n/a	n/a	n/a	n/a	n/a	n/a	n/a
341.4138	0.6167	COLOR_NAME	29	Incongruent	czerwony	red	niebieski	blue	hit	n/a
342.0078	n/a	RESPONSE	n/a	n/a	n/a	n/a	n/a	n/a	n/a	red
342.0304	1.0167	ITI	n/a	n/a	n/a	n/a	n/a	n/a	n/a	n/a
343.0471	0.5167	FIXCROSS	n/a	n/a	n/a	n/a	n/a	n/a	n/a	n/a
343.5638	0.5667	COLOR_NAME	30	Neutral	zielony	green	Neutral	Neutral	incorrect	n/a
344.1033	n/a	RESPONSE	n/a	n/a	n/a	n/a	n/a	n/a	n/a	yellow
344.1305	1.0167	ITI	n/a	n/a	n/a	n/a	n/a	n/a	n/a	n/a
345.1471	0.5167	FIXCROSS	n/a	n/a	n/a	n/a	n/a	n/a	n/a	n/a
345.6638	1.0167	COLOR_NAME	31	Incongruent	zielony	green	niebieski	blue	hit	n/a
346.6628	n/a	RESPONSE	n/a	n/a	n/a	n/a	n/a	n/a	n/a	green
346.6805	1.0167	ITI	n/a	n/a	n/a	n/a	n/a	n/a	n/a	n/a
347.6972	0.5167	FIXCROSS	n/a	n/a	n/a	n/a	n/a	n/a	n/a	n/a
348.2138	0.7667	COLOR_NAME	32	Incongruent	czerwony	red	zielony	green	hit	n/a
348.9503	n/a	RESPONSE	n/a	n/a	n/a	n/a	n/a	n/a	n/a	red
348.9805	1.0167	ITI	n/a	n/a	n/a	n/a	n/a	n/a	n/a	n/a
349.9972	0.5167	FIXCROSS	n/a	n/a	n/a	n/a	n/a	n/a	n/a	n/a
350.5138	1.0167	COLOR_NAME	33	Neutral	zielony	green	Neutral	Neutral	hit	n/a
351.5098	n/a	RESPONSE	n/a	n/a	n/a	n/a	n/a	n/a	n/a	green
351.5305	1.0167	ITI	n/a	n/a	n/a	n/a	n/a	n/a	n/a	n/a
352.5472	0.5167	FIXCROSS	n/a	n/a	n/a	n/a	n/a	n/a	n/a	n/a
353.0639	0.7833	COLOR_NAME	34	Neutral	żółty	yellow	Neutral	Neutral	hit	n/a
353.8293	n/a	RESPONSE	n/a	n/a	n/a	n/a	n/a	n/a	n/a	yellow
353.8472	1.0167	ITI	n/a	n/a	n/a	n/a	n/a	n/a	n/a	n/a
354.8639	0.5167	FIXCROSS	n/a	n/a	n/a	n/a	n/a	n/a	n/a	n/a
355.3805	0.7833	COLOR_NAME	35	Incongruent	żółty	yellow	czerwony	red	hit	n/a
356.1328	n/a	RESPONSE	n/a	n/a	n/a	n/a	n/a	n/a	n/a	yellow
356.1639	1.0167	ITI	n/a	n/a	n/a	n/a	n/a	n/a	n/a	n/a
357.1805	0.5167	FIXCROSS	n/a	n/a	n/a	n/a	n/a	n/a	n/a	n/a
357.6972	0.5833	COLOR_NAME	36	Incongruent	czerwony	red	żółty	yellow	hit	n/a
358.2604	n/a	RESPONSE	n/a	n/a	n/a	n/a	n/a	n/a	n/a	red
358.2806	1.0167	ITI	n/a	n/a	n/a	n/a	n/a	n/a	n/a	n/a
359.2972	0.5167	FIXCROSS	n/a	n/a	n/a	n/a	n/a	n/a	n/a	n/a
359.8139	0.9167	COLOR_NAME	37	Neutral	niebieski	blue	Neutral	Neutral	hit	n/a
360.7078	n/a	RESPONSE	n/a	n/a	n/a	n/a	n/a	n/a	n/a	blue
360.7306	1.0167	ITI	n/a	n/a	n/a	n/a	n/a	n/a	n/a	n/a
361.7472	0.5167	FIXCROSS	n/a	n/a	n/a	n/a	n/a	n/a	n/a	n/a
362.2639	0.75	COLOR_NAME	38	Neutral	niebieski	blue	Neutral	Neutral	hit	n/a
362.9954	n/a	RESPONSE	n/a	n/a	n/a	n/a	n/a	n/a	n/a	blue
363.0139	1.0167	ITI	n/a	n/a	n/a	n/a	n/a	n/a	n/a	n/a
364.0306	0.5167	FIXCROSS	n/a	n/a	n/a	n/a	n/a	n/a	n/a	n/a
364.5473	0.6333	COLOR_NAME	39	Neutral	niebieski	blue	Neutral	Neutral	hit	n/a
365.1549	n/a	RESPONSE	n/a	n/a	n/a	n/a	n/a	n/a	n/a	blue
365.1806	1.0167	ITI	n/a	n/a	n/a	n/a	n/a	n/a	n/a	n/a
366.1973	0.5167	FIXCROSS	n/a	n/a	n/a	n/a	n/a	n/a	n/a	n/a
366.714	0.7667	COLOR_NAME	40	Incongruent	niebieski	blue	czerwony	red	hit	n/a
367.4584	n/a	RESPONSE	n/a	n/a	n/a	n/a	n/a	n/a	n/a	blue
367.4806	1.0167	ITI	n/a	n/a	n/a	n/a	n/a	n/a	n/a	n/a
368.4973	0.5167	FIXCROSS	n/a	n/a	n/a	n/a	n/a	n/a	n/a	n/a
369.014	0.7167	COLOR_NAME	41	Neutral	żółty	yellow	Neutral	Neutral	hit	n/a
369.6979	n/a	RESPONSE	n/a	n/a	n/a	n/a	n/a	n/a	n/a	yellow
369.7306	1.0167	ITI	n/a	n/a	n/a	n/a	n/a	n/a	n/a	n/a
370.7473	0.5167	FIXCROSS	n/a	n/a	n/a	n/a	n/a	n/a	n/a	n/a
371.264	0.6167	COLOR_NAME	42	Neutral	czerwony	red	Neutral	Neutral	hit	n/a
371.8575	n/a	RESPONSE	n/a	n/a	n/a	n/a	n/a	n/a	n/a	red
371.8807	1.0167	ITI	n/a	n/a	n/a	n/a	n/a	n/a	n/a	n/a
372.8973	0.5167	FIXCROSS	n/a	n/a	n/a	n/a	n/a	n/a	n/a	n/a
373.414	0.6667	COLOR_NAME	43	Neutral	czerwony	red	Neutral	Neutral	hit	n/a
374.049	n/a	RESPONSE	n/a	n/a	n/a	n/a	n/a	n/a	n/a	red
374.0807	1.0167	ITI	n/a	n/a	n/a	n/a	n/a	n/a	n/a	n/a
375.0973	0.5167	FIXCROSS	n/a	n/a	n/a	n/a	n/a	n/a	n/a	n/a
375.614	0.7667	COLOR_NAME	44	Incongruent	niebieski	blue	zielony	green	hit	n/a
376.3525	n/a	RESPONSE	n/a	n/a	n/a	n/a	n/a	n/a	n/a	blue
376.3807	1.0167	ITI	n/a	n/a	n/a	n/a	n/a	n/a	n/a	n/a
377.3974	0.5167	FIXCROSS	n/a	n/a	n/a	n/a	n/a	n/a	n/a	n/a
377.914	0.6	COLOR_NAME	45	Incongruent	niebieski	blue	czerwony	red	hit	n/a
378.4961	n/a	RESPONSE	n/a	n/a	n/a	n/a	n/a	n/a	n/a	blue
378.514	1.0167	ITI	n/a	n/a	n/a	n/a	n/a	n/a	n/a	n/a
379.5307	0.5167	FIXCROSS	n/a	n/a	n/a	n/a	n/a	n/a	n/a	n/a
380.0474	0.6667	COLOR_NAME	46	Incongruent	niebieski	blue	żółty	yellow	hit	n/a
380.6876	n/a	RESPONSE	n/a	n/a	n/a	n/a	n/a	n/a	n/a	blue
380.714	1.0167	ITI	n/a	n/a	n/a	n/a	n/a	n/a	n/a	n/a
381.7307	0.5167	FIXCROSS	n/a	n/a	n/a	n/a	n/a	n/a	n/a	n/a
382.2474	0.6667	COLOR_NAME	47	Incongruent	niebieski	blue	czerwony	red	hit	n/a
382.8952	n/a	RESPONSE	n/a	n/a	n/a	n/a	n/a	n/a	n/a	blue
382.9141	1.0167	ITI	n/a	n/a	n/a	n/a	n/a	n/a	n/a	n/a
383.9307	0.5167	FIXCROSS	n/a	n/a	n/a	n/a	n/a	n/a	n/a	n/a
384.4474	1.15	COLOR_NAME	48	Incongruent	zielony	green	czerwony	red	hit	n/a
385.5666	n/a	RESPONSE	n/a	n/a	n/a	n/a	n/a	n/a	n/a	green
385.5974	1.0167	ITI	n/a	n/a	n/a	n/a	n/a	n/a	n/a	n/a
386.6141	0.5167	FIXCROSS	n/a	n/a	n/a	n/a	n/a	n/a	n/a	n/a
387.1307	1.0667	COLOR_NAME	49	Incongruent	zielony	green	niebieski	blue	hit	n/a
388.1741	n/a	RESPONSE	n/a	n/a	n/a	n/a	n/a	n/a	n/a	green
388.1974	1.0167	ITI	n/a	n/a	n/a	n/a	n/a	n/a	n/a	n/a
389.2141	0.5167	FIXCROSS	n/a	n/a	n/a	n/a	n/a	n/a	n/a	n/a
389.7308	0.75	COLOR_NAME	50	Neutral	żółty	yellow	Neutral	Neutral	hit	n/a
390.4616	n/a	RESPONSE	n/a	n/a	n/a	n/a	n/a	n/a	n/a	yellow
390.4808	1.0167	ITI	n/a	n/a	n/a	n/a	n/a	n/a	n/a	n/a
391.4974	0.5167	FIXCROSS	n/a	n/a	n/a	n/a	n/a	n/a	n/a	n/a
392.0141	0.6	COLOR_NAME	51	Incongruent	żółty	yellow	zielony	green	hit	n/a
392.5891	n/a	RESPONSE	n/a	n/a	n/a	n/a	n/a	n/a	n/a	yellow
392.6141	1.0167	ITI	n/a	n/a	n/a	n/a	n/a	n/a	n/a	n/a
393.6308	0.5167	FIXCROSS	n/a	n/a	n/a	n/a	n/a	n/a	n/a	n/a
394.1475	0.8167	COLOR_NAME	52	Neutral	zielony	green	Neutral	Neutral	hit	n/a
394.9406	n/a	RESPONSE	n/a	n/a	n/a	n/a	n/a	n/a	n/a	green
394.9641	1.0167	ITI	n/a	n/a	n/a	n/a	n/a	n/a	n/a	n/a
395.9808	0.5167	FIXCROSS	n/a	n/a	n/a	n/a	n/a	n/a	n/a	n/a
396.4975	0.6833	COLOR_NAME	53	Incongruent	zielony	green	niebieski	blue	hit	n/a
397.1481	n/a	RESPONSE	n/a	n/a	n/a	n/a	n/a	n/a	n/a	green
397.1808	1.0167	ITI	n/a	n/a	n/a	n/a	n/a	n/a	n/a	n/a
398.1975	0.5167	FIXCROSS	n/a	n/a	n/a	n/a	n/a	n/a	n/a	n/a
398.7142	0.55	COLOR_NAME	54	Incongruent	zielony	green	czerwony	red	hit	n/a
399.2437	n/a	RESPONSE	n/a	n/a	n/a	n/a	n/a	n/a	n/a	green
399.2642	1.0167	ITI	n/a	n/a	n/a	n/a	n/a	n/a	n/a	n/a
400.2808	0.5167	FIXCROSS	n/a	n/a	n/a	n/a	n/a	n/a	n/a	n/a
400.7975	0.7167	COLOR_NAME	55	Neutral	niebieski	blue	Neutral	Neutral	hit	n/a
401.4833	n/a	RESPONSE	n/a	n/a	n/a	n/a	n/a	n/a	n/a	blue
401.5142	1.0167	ITI	n/a	n/a	n/a	n/a	n/a	n/a	n/a	n/a
402.5309	0.5167	FIXCROSS	n/a	n/a	n/a	n/a	n/a	n/a	n/a	n/a
403.0475	0.6333	COLOR_NAME	56	Neutral	niebieski	blue	Neutral	Neutral	hit	n/a
403.6589	n/a	RESPONSE	n/a	n/a	n/a	n/a	n/a	n/a	n/a	blue
403.6809	1.0167	ITI	n/a	n/a	n/a	n/a	n/a	n/a	n/a	n/a
404.6975	0.5167	FIXCROSS	n/a	n/a	n/a	n/a	n/a	n/a	n/a	n/a
405.2142	0.5667	COLOR_NAME	57	Incongruent	czerwony	red	zielony	green	hit	n/a
405.7544	n/a	RESPONSE	n/a	n/a	n/a	n/a	n/a	n/a	n/a	red
405.7809	1.0167	ITI	n/a	n/a	n/a	n/a	n/a	n/a	n/a	n/a
406.7976	0.5167	FIXCROSS	n/a	n/a	n/a	n/a	n/a	n/a	n/a	n/a
407.3142	0.5667	COLOR_NAME	58	Incongruent	żółty	yellow	zielony	green	hit	n/a
407.8499	n/a	RESPONSE	n/a	n/a	n/a	n/a	n/a	n/a	n/a	yellow
407.8809	1.0167	ITI	n/a	n/a	n/a	n/a	n/a	n/a	n/a	n/a
408.8976	0.5167	FIXCROSS	n/a	n/a	n/a	n/a	n/a	n/a	n/a	n/a
409.4142	0.5833	COLOR_NAME	59	Incongruent	żółty	yellow	niebieski	blue	hit	n/a
409.9775	n/a	RESPONSE	n/a	n/a	n/a	n/a	n/a	n/a	n/a	yellow
409.9976	1.0167	ITI	n/a	n/a	n/a	n/a	n/a	n/a	n/a	n/a
411.0142	0.5167	FIXCROSS	n/a	n/a	n/a	n/a	n/a	n/a	n/a	n/a
411.5309	0.9167	COLOR_NAME	60	Neutral	zielony	green	Neutral	Neutral	hit	n/a
412.425	n/a	RESPONSE	n/a	n/a	n/a	n/a	n/a	n/a	n/a	green
412.4476	1.0167	ITI	n/a	n/a	n/a	n/a	n/a	n/a	n/a	n/a
413.4643	0.5167	FIXCROSS	n/a	n/a	n/a	n/a	n/a	n/a	n/a	n/a
413.9809	0.65	COLOR_NAME	61	Incongruent	żółty	yellow	niebieski	blue	hit	n/a
414.6005	n/a	RESPONSE	n/a	n/a	n/a	n/a	n/a	n/a	n/a	yellow
414.6309	1.0167	ITI	n/a	n/a	n/a	n/a	n/a	n/a	n/a	n/a
415.6476	0.5167	FIXCROSS	n/a	n/a	n/a	n/a	n/a	n/a	n/a	n/a
416.1643	0.9333	COLOR_NAME	62	Incongruent	niebieski	blue	zielony	green	hit	n/a
417.08	n/a	RESPONSE	n/a	n/a	n/a	n/a	n/a	n/a	n/a	blue
417.0976	1.0167	ITI	n/a	n/a	n/a	n/a	n/a	n/a	n/a	n/a
418.1143	0.5167	FIXCROSS	n/a	n/a	n/a	n/a	n/a	n/a	n/a	n/a
418.631	0.7833	COLOR_NAME	63	Incongruent	zielony	green	żółty	yellow	hit	n/a
419.3835	n/a	RESPONSE	n/a	n/a	n/a	n/a	n/a	n/a	n/a	green
419.4143	1.0167	ITI	n/a	n/a	n/a	n/a	n/a	n/a	n/a	n/a
420.431	0.5167	FIXCROSS	n/a	n/a	n/a	n/a	n/a	n/a	n/a	n/a
420.9476	0.9667	COLOR_NAME	64	Neutral	czerwony	red	Neutral	Neutral	hit	n/a
421.895	n/a	RESPONSE	n/a	n/a	n/a	n/a	n/a	n/a	n/a	red
421.9143	1.0167	ITI	n/a	n/a	n/a	n/a	n/a	n/a	n/a	n/a
422.931	0.5167	FIXCROSS	n/a	n/a	n/a	n/a	n/a	n/a	n/a	n/a
423.4477	0.6	COLOR_NAME	65	Neutral	żółty	yellow	Neutral	Neutral	hit	n/a
424.0225	n/a	RESPONSE	n/a	n/a	n/a	n/a	n/a	n/a	n/a	yellow
424.0477	1.0167	ITI	n/a	n/a	n/a	n/a	n/a	n/a	n/a	n/a
425.0643	0.5167	FIXCROSS	n/a	n/a	n/a	n/a	n/a	n/a	n/a	n/a
425.581	0.65	COLOR_NAME	66	Neutral	czerwony	red	Neutral	Neutral	hit	n/a
426.1981	n/a	RESPONSE	n/a	n/a	n/a	n/a	n/a	n/a	n/a	red
426.231	1.0167	ITI	n/a	n/a	n/a	n/a	n/a	n/a	n/a	n/a
427.2477	0.5167	FIXCROSS	n/a	n/a	n/a	n/a	n/a	n/a	n/a	n/a
427.7644	0.8	COLOR_NAME	67	Incongruent	żółty	yellow	czerwony	red	hit	n/a
428.5336	n/a	RESPONSE	n/a	n/a	n/a	n/a	n/a	n/a	n/a	yellow
428.5644	1.0167	ITI	n/a	n/a	n/a	n/a	n/a	n/a	n/a	n/a
429.581	0.5167	FIXCROSS	n/a	n/a	n/a	n/a	n/a	n/a	n/a	n/a
430.0977	0.6167	COLOR_NAME	68	Incongruent	żółty	yellow	zielony	green	hit	n/a
430.6931	n/a	RESPONSE	n/a	n/a	n/a	n/a	n/a	n/a	n/a	yellow
430.7144	1.0167	ITI	n/a	n/a	n/a	n/a	n/a	n/a	n/a	n/a
431.7311	0.5167	FIXCROSS	n/a	n/a	n/a	n/a	n/a	n/a	n/a	n/a
432.2477	0.7667	COLOR_NAME	69	Incongruent	czerwony	red	niebieski	blue	hit	n/a
432.9806	n/a	RESPONSE	n/a	n/a	n/a	n/a	n/a	n/a	n/a	red
433.0144	1.0167	ITI	n/a	n/a	n/a	n/a	n/a	n/a	n/a	n/a
434.0311	0.5167	FIXCROSS	n/a	n/a	n/a	n/a	n/a	n/a	n/a	n/a
434.5477	0.55	COLOR_NAME	70	Neutral	żółty	yellow	Neutral	Neutral	hit	n/a
435.0762	n/a	RESPONSE	n/a	n/a	n/a	n/a	n/a	n/a	n/a	yellow
435.0977	1.0167	ITI	n/a	n/a	n/a	n/a	n/a	n/a	n/a	n/a
436.1144	0.5167	FIXCROSS	n/a	n/a	n/a	n/a	n/a	n/a	n/a	n/a
436.6311	0.6833	COLOR_NAME	71	Incongruent	niebieski	blue	żółty	yellow	hit	n/a
437.2837	n/a	RESPONSE	n/a	n/a	n/a	n/a	n/a	n/a	n/a	blue
437.3144	1.0167	ITI	n/a	n/a	n/a	n/a	n/a	n/a	n/a	n/a
438.3311	0.5167	FIXCROSS	n/a	n/a	n/a	n/a	n/a	n/a	n/a	n/a
438.8478	0.8	COLOR_NAME	72	Neutral	niebieski	blue	Neutral	Neutral	hit	n/a
439.6192	n/a	RESPONSE	n/a	n/a	n/a	n/a	n/a	n/a	n/a	blue
439.6478	1.0333	ITI	n/a	n/a	n/a	n/a	n/a	n/a	n/a	n/a
444.3222	n/a	RESPONSE	n/a	n/a	n/a	n/a	n/a	n/a	n/a	n/a
