onset	duration	trial_type	trial_number	stroop_condition	stim_text(PL)	stim_text(eng)	stim_color(PL)	stim_color(eng)	response_type	response_color
0.0	n/a	RESPONSE	n/a	n/a	n/a	n/a	n/a	n/a	n/a	n/a
0.0348	1.0167	ITI	n/a	n/a	n/a	n/a	n/a	n/a	n/a	n/a
1.0515	0.5	FIXCROSS	n/a	n/a	n/a	n/a	n/a	n/a	n/a	n/a
1.5515	1.1167	T_INK	1	Neutral	xxxxxxxxx	xxxxxxxxx	czerwony	red	hit	n/a
2.651	n/a	RESPONSE	n/a	n/a	n/a	n/a	n/a	n/a	n/a	red
2.6682	0.5	FEEDBACK	n/a	n/a	n/a	n/a	n/a	n/a	n/a	n/a
3.1682	1.0	ITI	n/a	n/a	n/a	n/a	n/a	n/a	n/a	n/a
4.1682	0.5	FIXCROSS	n/a	n/a	n/a	n/a	n/a	n/a	n/a	n/a
4.6682	0.9333	T_INK	2	Neutral	xxxxxxxx	xxxxxxxx	niebieski	blue	hit	n/a
5.5895	n/a	RESPONSE	n/a	n/a	n/a	n/a	n/a	n/a	n/a	blue
5.6016	0.5	FEEDBACK	n/a	n/a	n/a	n/a	n/a	n/a	n/a	n/a
6.1016	1.0	ITI	n/a	n/a	n/a	n/a	n/a	n/a	n/a	n/a
7.1016	0.5	FIXCROSS	n/a	n/a	n/a	n/a	n/a	n/a	n/a	n/a
7.6016	0.8667	T_INK	3	Neutral	xxxxx	xxxxx	zielony	green	hit	n/a
8.4481	n/a	RESPONSE	n/a	n/a	n/a	n/a	n/a	n/a	n/a	green
8.4683	0.5	FEEDBACK	n/a	n/a	n/a	n/a	n/a	n/a	n/a	n/a
8.9683	1.0	ITI	n/a	n/a	n/a	n/a	n/a	n/a	n/a	n/a
9.9683	0.5	FIXCROSS	n/a	n/a	n/a	n/a	n/a	n/a	n/a	n/a
10.4683	0.85	T_INK	4	Neutral	xxxxxxxxx	xxxxxxxxx	zielony	green	hit	n/a
11.3067	n/a	RESPONSE	n/a	n/a	n/a	n/a	n/a	n/a	n/a	green
11.3183	0.5	FEEDBACK	n/a	n/a	n/a	n/a	n/a	n/a	n/a	n/a
11.8183	1.0	ITI	n/a	n/a	n/a	n/a	n/a	n/a	n/a	n/a
12.8183	0.5	FIXCROSS	n/a	n/a	n/a	n/a	n/a	n/a	n/a	n/a
13.3184	1.2667	T_INK	5	Incongruent	niebieski	blue	czerwony	red	hit	n/a
14.5804	n/a	RESPONSE	n/a	n/a	n/a	n/a	n/a	n/a	n/a	red
14.585	0.5	FEEDBACK	n/a	n/a	n/a	n/a	n/a	n/a	n/a	n/a
15.085	1.0	ITI	n/a	n/a	n/a	n/a	n/a	n/a	n/a	n/a
16.0851	0.5	FIXCROSS	n/a	n/a	n/a	n/a	n/a	n/a	n/a	n/a
16.5851	0.8833	T_INK	6	Neutral	xxxxxxx	xxxxxxx	żółty	yellow	hit	n/a
17.455	n/a	RESPONSE	n/a	n/a	n/a	n/a	n/a	n/a	n/a	yellow
17.4684	0.5	FEEDBACK	n/a	n/a	n/a	n/a	n/a	n/a	n/a	n/a
17.9684	1.0	ITI	n/a	n/a	n/a	n/a	n/a	n/a	n/a	n/a
18.9684	0.5	FIXCROSS	n/a	n/a	n/a	n/a	n/a	n/a	n/a	n/a
19.4684	0.7833	T_INK	7	Neutral	xxxxxxx	xxxxxxx	czerwony	red	hit	n/a
20.2338	n/a	RESPONSE	n/a	n/a	n/a	n/a	n/a	n/a	n/a	red
20.2518	0.5	FEEDBACK	n/a	n/a	n/a	n/a	n/a	n/a	n/a	n/a
20.7518	1.0	ITI	n/a	n/a	n/a	n/a	n/a	n/a	n/a	n/a
21.7518	0.5	FIXCROSS	n/a	n/a	n/a	n/a	n/a	n/a	n/a	n/a
22.2518	0.9	T_INK	8	Neutral	xxxxxxxx	xxxxxxxx	zielony	green	hit	n/a
23.1402	n/a	RESPONSE	n/a	n/a	n/a	n/a	n/a	n/a	n/a	green
23.1518	0.5	FEEDBACK	n/a	n/a	n/a	n/a	n/a	n/a	n/a	n/a
23.6518	1.0	ITI	n/a	n/a	n/a	n/a	n/a	n/a	n/a	n/a
24.6518	0.5	FIXCROSS	n/a	n/a	n/a	n/a	n/a	n/a	n/a	n/a
25.1518	1.0667	T_INK	9	Incongruent	czerwony	red	niebieski	blue	hit	n/a
26.2063	n/a	RESPONSE	n/a	n/a	n/a	n/a	n/a	n/a	n/a	blue
26.2185	0.5	FEEDBACK	n/a	n/a	n/a	n/a	n/a	n/a	n/a	n/a
26.7185	1.0	ITI	n/a	n/a	n/a	n/a	n/a	n/a	n/a	n/a
27.7185	0.5	FIXCROSS	n/a	n/a	n/a	n/a	n/a	n/a	n/a	n/a
28.2185	0.8333	T_INK	10	Neutral	xxxxxxxx	xxxxxxxx	żółty	yellow	hit	n/a
29.0331	n/a	RESPONSE	n/a	n/a	n/a	n/a	n/a	n/a	n/a	yellow
29.0519	0.5	FEEDBACK	n/a	n/a	n/a	n/a	n/a	n/a	n/a	n/a
29.5519	1.0	ITI	n/a	n/a	n/a	n/a	n/a	n/a	n/a	n/a
30.5519	0.5	FIXCROSS	n/a	n/a	n/a	n/a	n/a	n/a	n/a	n/a
31.0519	0.8667	T_INK	11	Incongruent	czerwony	red	zielony	green	hit	n/a
31.9077	n/a	RESPONSE	n/a	n/a	n/a	n/a	n/a	n/a	n/a	green
31.9186	0.5333	FEEDBACK	n/a	n/a	n/a	n/a	n/a	n/a	n/a	n/a
32.4519	1.0333	ITI	n/a	n/a	n/a	n/a	n/a	n/a	n/a	n/a
33.4853	0.5333	FIXCROSS	n/a	n/a	n/a	n/a	n/a	n/a	n/a	n/a
34.0186	0.75	T_INK	12	Incongruent	żółty	yellow	czerwony	red	hit	n/a
34.7341	n/a	RESPONSE	n/a	n/a	n/a	n/a	n/a	n/a	n/a	red
34.7686	0.5334	FEEDBACK	n/a	n/a	n/a	n/a	n/a	n/a	n/a	n/a
35.302	1.05	ITI	n/a	n/a	n/a	n/a	n/a	n/a	n/a	n/a
43.166	n/a	RESPONSE	n/a	n/a	n/a	n/a	n/a	n/a	n/a	n/a
43.2354	1.0	ITI	n/a	n/a	n/a	n/a	n/a	n/a	n/a	n/a
44.2354	0.5	FIXCROSS	n/a	n/a	n/a	n/a	n/a	n/a	n/a	n/a
44.7354	0.9333	INK	1	Neutral	xxxxxxxx	xxxxxxxx	zielony	green	hit	n/a
45.6574	n/a	RESPONSE	n/a	n/a	n/a	n/a	n/a	n/a	n/a	green
45.6688	1.0	ITI	n/a	n/a	n/a	n/a	n/a	n/a	n/a	n/a
46.6688	0.5	FIXCROSS	n/a	n/a	n/a	n/a	n/a	n/a	n/a	n/a
47.1688	0.9667	INK	2	Neutral	xxxxx	xxxxx	niebieski	blue	hit	n/a
48.1167	n/a	RESPONSE	n/a	n/a	n/a	n/a	n/a	n/a	n/a	blue
48.1355	1.0	ITI	n/a	n/a	n/a	n/a	n/a	n/a	n/a	n/a
49.1355	0.5	FIXCROSS	n/a	n/a	n/a	n/a	n/a	n/a	n/a	n/a
49.6355	0.8167	INK	3	Neutral	xxxxxxxx	xxxxxxxx	niebieski	blue	hit	n/a
50.4323	n/a	RESPONSE	n/a	n/a	n/a	n/a	n/a	n/a	n/a	blue
50.4522	1.0	ITI	n/a	n/a	n/a	n/a	n/a	n/a	n/a	n/a
51.4522	0.5	FIXCROSS	n/a	n/a	n/a	n/a	n/a	n/a	n/a	n/a
51.9522	0.8333	INK	4	Incongruent	żółty	yellow	niebieski	blue	hit	n/a
52.7799	n/a	RESPONSE	n/a	n/a	n/a	n/a	n/a	n/a	n/a	blue
52.7855	1.0	ITI	n/a	n/a	n/a	n/a	n/a	n/a	n/a	n/a
53.7855	0.5	FIXCROSS	n/a	n/a	n/a	n/a	n/a	n/a	n/a	n/a
54.2855	0.7	INK	5	Incongruent	czerwony	red	niebieski	blue	hit	n/a
54.9677	n/a	RESPONSE	n/a	n/a	n/a	n/a	n/a	n/a	n/a	blue
54.9855	1.0	ITI	n/a	n/a	n/a	n/a	n/a	n/a	n/a	n/a
55.9856	0.5	FIXCROSS	n/a	n/a	n/a	n/a	n/a	n/a	n/a	n/a
56.4856	0.7833	INK	6	Neutral	xxxxxxx	xxxxxxx	żółty	yellow	hit	n/a
57.2515	n/a	RESPONSE	n/a	n/a	n/a	n/a	n/a	n/a	n/a	yellow
57.2689	1.0	ITI	n/a	n/a	n/a	n/a	n/a	n/a	n/a	n/a
58.2689	0.5	FIXCROSS	n/a	n/a	n/a	n/a	n/a	n/a	n/a	n/a
58.7689	0.9	INK	7	Incongruent	niebieski	blue	żółty	yellow	hit	n/a
59.6628	n/a	RESPONSE	n/a	n/a	n/a	n/a	n/a	n/a	n/a	yellow
59.6689	1.0	ITI	n/a	n/a	n/a	n/a	n/a	n/a	n/a	n/a
60.6689	0.5	FIXCROSS	n/a	n/a	n/a	n/a	n/a	n/a	n/a	n/a
61.169	0.7	INK	8	Neutral	xxxxx	xxxxx	niebieski	blue	hit	n/a
61.8507	n/a	RESPONSE	n/a	n/a	n/a	n/a	n/a	n/a	n/a	blue
61.869	1.0	ITI	n/a	n/a	n/a	n/a	n/a	n/a	n/a	n/a
62.869	0.5	FIXCROSS	n/a	n/a	n/a	n/a	n/a	n/a	n/a	n/a
63.369	0.85	INK	9	Neutral	xxxxxxx	xxxxxxx	czerwony	red	hit	n/a
64.2142	n/a	RESPONSE	n/a	n/a	n/a	n/a	n/a	n/a	n/a	red
64.219	1.0	ITI	n/a	n/a	n/a	n/a	n/a	n/a	n/a	n/a
65.219	0.5	FIXCROSS	n/a	n/a	n/a	n/a	n/a	n/a	n/a	n/a
65.719	0.7	INK	10	Incongruent	niebieski	blue	czerwony	red	hit	n/a
66.4019	n/a	RESPONSE	n/a	n/a	n/a	n/a	n/a	n/a	n/a	red
66.419	1.0	ITI	n/a	n/a	n/a	n/a	n/a	n/a	n/a	n/a
67.419	0.5	FIXCROSS	n/a	n/a	n/a	n/a	n/a	n/a	n/a	n/a
67.919	0.7	INK	11	Incongruent	żółty	yellow	czerwony	red	hit	n/a
68.6058	n/a	RESPONSE	n/a	n/a	n/a	n/a	n/a	n/a	n/a	red
68.6191	1.0	ITI	n/a	n/a	n/a	n/a	n/a	n/a	n/a	n/a
69.6191	0.5	FIXCROSS	n/a	n/a	n/a	n/a	n/a	n/a	n/a	n/a
70.1191	0.8	INK	12	Incongruent	czerwony	red	żółty	yellow	hit	n/a
70.9054	n/a	RESPONSE	n/a	n/a	n/a	n/a	n/a	n/a	n/a	yellow
70.9191	1.0	ITI	n/a	n/a	n/a	n/a	n/a	n/a	n/a	n/a
71.9191	0.5	FIXCROSS	n/a	n/a	n/a	n/a	n/a	n/a	n/a	n/a
72.4191	0.75	INK	13	Incongruent	niebieski	blue	żółty	yellow	hit	n/a
73.1571	n/a	RESPONSE	n/a	n/a	n/a	n/a	n/a	n/a	n/a	yellow
73.1691	1.0	ITI	n/a	n/a	n/a	n/a	n/a	n/a	n/a	n/a
74.1691	0.5	FIXCROSS	n/a	n/a	n/a	n/a	n/a	n/a	n/a	n/a
74.6691	0.9333	INK	14	Incongruent	zielony	green	czerwony	red	hit	n/a
75.5846	n/a	RESPONSE	n/a	n/a	n/a	n/a	n/a	n/a	n/a	red
75.6025	1.0	ITI	n/a	n/a	n/a	n/a	n/a	n/a	n/a	n/a
76.6025	0.5	FIXCROSS	n/a	n/a	n/a	n/a	n/a	n/a	n/a	n/a
77.1025	0.6667	INK	15	Neutral	xxxxx	xxxxx	czerwony	red	hit	n/a
77.7565	n/a	RESPONSE	n/a	n/a	n/a	n/a	n/a	n/a	n/a	red
77.7692	1.0	ITI	n/a	n/a	n/a	n/a	n/a	n/a	n/a	n/a
78.7692	0.5	FIXCROSS	n/a	n/a	n/a	n/a	n/a	n/a	n/a	n/a
79.2692	0.7333	INK	16	Neutral	xxxxxxxx	xxxxxxxx	niebieski	blue	hit	n/a
79.9921	n/a	RESPONSE	n/a	n/a	n/a	n/a	n/a	n/a	n/a	blue
80.0025	1.0333	ITI	n/a	n/a	n/a	n/a	n/a	n/a	n/a	n/a
81.0359	0.5333	FIXCROSS	n/a	n/a	n/a	n/a	n/a	n/a	n/a	n/a
81.5692	0.9333	INK	17	Incongruent	czerwony	red	niebieski	blue	hit	n/a
82.4675	n/a	RESPONSE	n/a	n/a	n/a	n/a	n/a	n/a	n/a	blue
82.5026	1.0333	ITI	n/a	n/a	n/a	n/a	n/a	n/a	n/a	n/a
83.5359	0.5333	FIXCROSS	n/a	n/a	n/a	n/a	n/a	n/a	n/a	n/a
84.0692	0.6333	INK	18	Neutral	xxxxxxx	xxxxxxx	niebieski	blue	hit	n/a
84.6712	n/a	RESPONSE	n/a	n/a	n/a	n/a	n/a	n/a	n/a	blue
84.7026	1.0334	ITI	n/a	n/a	n/a	n/a	n/a	n/a	n/a	n/a
85.7359	0.5333	FIXCROSS	n/a	n/a	n/a	n/a	n/a	n/a	n/a	n/a
86.2693	0.8334	INK	19	Neutral	xxxxx	xxxxx	zielony	green	hit	n/a
87.0668	n/a	RESPONSE	n/a	n/a	n/a	n/a	n/a	n/a	n/a	green
87.1026	1.0333	ITI	n/a	n/a	n/a	n/a	n/a	n/a	n/a	n/a
88.136	0.5333	FIXCROSS	n/a	n/a	n/a	n/a	n/a	n/a	n/a	n/a
88.6693	0.8834	INK	20	Incongruent	zielony	green	niebieski	blue	hit	n/a
89.5101	n/a	RESPONSE	n/a	n/a	n/a	n/a	n/a	n/a	n/a	blue
89.5527	1.0333	ITI	n/a	n/a	n/a	n/a	n/a	n/a	n/a	n/a
90.586	0.5333	FIXCROSS	n/a	n/a	n/a	n/a	n/a	n/a	n/a	n/a
91.1193	0.9167	INK	21	Neutral	xxxxx	xxxxx	czerwony	red	hit	n/a
92.0013	n/a	RESPONSE	n/a	n/a	n/a	n/a	n/a	n/a	n/a	red
92.036	1.0333	ITI	n/a	n/a	n/a	n/a	n/a	n/a	n/a	n/a
93.0694	0.5333	FIXCROSS	n/a	n/a	n/a	n/a	n/a	n/a	n/a	n/a
93.6027	0.6667	INK	22	Neutral	xxxxxxx	xxxxxxx	czerwony	red	hit	n/a
94.2372	n/a	RESPONSE	n/a	n/a	n/a	n/a	n/a	n/a	n/a	red
94.2694	1.0333	ITI	n/a	n/a	n/a	n/a	n/a	n/a	n/a	n/a
95.3027	0.5333	FIXCROSS	n/a	n/a	n/a	n/a	n/a	n/a	n/a	n/a
95.8361	0.9	INK	23	Incongruent	czerwony	red	zielony	green	hit	n/a
96.6964	n/a	RESPONSE	n/a	n/a	n/a	n/a	n/a	n/a	n/a	green
96.7361	1.0334	ITI	n/a	n/a	n/a	n/a	n/a	n/a	n/a	n/a
97.7694	0.5333	FIXCROSS	n/a	n/a	n/a	n/a	n/a	n/a	n/a	n/a
98.3028	0.5834	INK	24	Incongruent	żółty	yellow	zielony	green	hit	n/a
98.8523	n/a	RESPONSE	n/a	n/a	n/a	n/a	n/a	n/a	n/a	green
98.8861	1.0333	ITI	n/a	n/a	n/a	n/a	n/a	n/a	n/a	n/a
99.9195	0.5333	FIXCROSS	n/a	n/a	n/a	n/a	n/a	n/a	n/a	n/a
100.4528	0.8167	INK	25	Neutral	xxxxxxx	xxxxxxx	żółty	yellow	hit	n/a
101.2319	n/a	RESPONSE	n/a	n/a	n/a	n/a	n/a	n/a	n/a	yellow
101.2695	1.0333	ITI	n/a	n/a	n/a	n/a	n/a	n/a	n/a	n/a
102.3028	0.5333	FIXCROSS	n/a	n/a	n/a	n/a	n/a	n/a	n/a	n/a
102.8362	0.7167	INK	26	Incongruent	żółty	yellow	zielony	green	hit	n/a
103.5155	n/a	RESPONSE	n/a	n/a	n/a	n/a	n/a	n/a	n/a	green
103.5528	1.0334	ITI	n/a	n/a	n/a	n/a	n/a	n/a	n/a	n/a
104.5862	0.5333	FIXCROSS	n/a	n/a	n/a	n/a	n/a	n/a	n/a	n/a
105.1195	0.8333	INK	27	Neutral	xxxxxxxx	xxxxxxxx	żółty	yellow	hit	n/a
105.9109	n/a	RESPONSE	n/a	n/a	n/a	n/a	n/a	n/a	n/a	yellow
105.9529	1.0333	ITI	n/a	n/a	n/a	n/a	n/a	n/a	n/a	n/a
106.9862	0.5334	FIXCROSS	n/a	n/a	n/a	n/a	n/a	n/a	n/a	n/a
107.5196	0.75	INK	28	Incongruent	czerwony	red	zielony	green	hit	n/a
108.2265	n/a	RESPONSE	n/a	n/a	n/a	n/a	n/a	n/a	n/a	green
108.2696	1.0333	ITI	n/a	n/a	n/a	n/a	n/a	n/a	n/a	n/a
109.3029	0.5333	FIXCROSS	n/a	n/a	n/a	n/a	n/a	n/a	n/a	n/a
109.8362	0.7667	INK	29	Neutral	xxxxxxxxx	xxxxxxxxx	żółty	yellow	hit	n/a
110.5581	n/a	RESPONSE	n/a	n/a	n/a	n/a	n/a	n/a	n/a	yellow
110.6029	1.0333	ITI	n/a	n/a	n/a	n/a	n/a	n/a	n/a	n/a
111.6363	0.5333	FIXCROSS	n/a	n/a	n/a	n/a	n/a	n/a	n/a	n/a
112.1696	0.7167	INK	30	Neutral	xxxxxxxx	xxxxxxxx	niebieski	blue	hit	n/a
112.8577	n/a	RESPONSE	n/a	n/a	n/a	n/a	n/a	n/a	n/a	blue
112.8863	1.0333	ITI	n/a	n/a	n/a	n/a	n/a	n/a	n/a	n/a
113.9196	0.5333	FIXCROSS	n/a	n/a	n/a	n/a	n/a	n/a	n/a	n/a
114.453	0.8167	INK	31	Neutral	xxxxxxx	xxxxxxx	niebieski	blue	hit	n/a
115.2372	n/a	RESPONSE	n/a	n/a	n/a	n/a	n/a	n/a	n/a	blue
115.2696	1.0334	ITI	n/a	n/a	n/a	n/a	n/a	n/a	n/a	n/a
116.303	0.5333	FIXCROSS	n/a	n/a	n/a	n/a	n/a	n/a	n/a	n/a
116.8363	0.7333	INK	32	Neutral	xxxxxxxxx	xxxxxxxxx	zielony	green	hit	n/a
117.5369	n/a	RESPONSE	n/a	n/a	n/a	n/a	n/a	n/a	n/a	green
117.5697	1.0333	ITI	n/a	n/a	n/a	n/a	n/a	n/a	n/a	n/a
118.603	0.5333	FIXCROSS	n/a	n/a	n/a	n/a	n/a	n/a	n/a	n/a
119.1364	0.8167	INK	33	Neutral	xxxxxxxxx	xxxxxxxxx	zielony	green	hit	n/a
119.9162	n/a	RESPONSE	n/a	n/a	n/a	n/a	n/a	n/a	n/a	green
119.953	1.0334	ITI	n/a	n/a	n/a	n/a	n/a	n/a	n/a	n/a
120.9864	0.5333	FIXCROSS	n/a	n/a	n/a	n/a	n/a	n/a	n/a	n/a
121.5197	1.05	INK	34	Neutral	xxxxxxx	xxxxxxx	czerwony	red	hit	n/a
122.5353	n/a	RESPONSE	n/a	n/a	n/a	n/a	n/a	n/a	n/a	red
122.5697	1.0334	ITI	n/a	n/a	n/a	n/a	n/a	n/a	n/a	n/a
123.6031	0.5333	FIXCROSS	n/a	n/a	n/a	n/a	n/a	n/a	n/a	n/a
124.1364	0.8167	INK	35	Incongruent	niebieski	blue	czerwony	red	hit	n/a
124.9149	n/a	RESPONSE	n/a	n/a	n/a	n/a	n/a	n/a	n/a	red
124.9531	1.0333	ITI	n/a	n/a	n/a	n/a	n/a	n/a	n/a	n/a
125.9864	0.5333	FIXCROSS	n/a	n/a	n/a	n/a	n/a	n/a	n/a	n/a
126.5198	0.6833	INK	36	Incongruent	niebieski	blue	zielony	green	hit	n/a
127.1665	n/a	RESPONSE	n/a	n/a	n/a	n/a	n/a	n/a	n/a	green
127.2031	1.0333	ITI	n/a	n/a	n/a	n/a	n/a	n/a	n/a	n/a
128.2365	0.5333	FIXCROSS	n/a	n/a	n/a	n/a	n/a	n/a	n/a	n/a
128.7698	0.8	INK	37	Incongruent	zielony	green	żółty	yellow	hit	n/a
129.5301	n/a	RESPONSE	n/a	n/a	n/a	n/a	n/a	n/a	n/a	yellow
129.5698	1.0334	ITI	n/a	n/a	n/a	n/a	n/a	n/a	n/a	n/a
130.6032	0.5333	FIXCROSS	n/a	n/a	n/a	n/a	n/a	n/a	n/a	n/a
131.1365	0.8	INK	38	Neutral	xxxxxxxxx	xxxxxxxxx	żółty	yellow	hit	n/a
131.8936	n/a	RESPONSE	n/a	n/a	n/a	n/a	n/a	n/a	n/a	yellow
131.9365	1.0333	ITI	n/a	n/a	n/a	n/a	n/a	n/a	n/a	n/a
132.9699	0.5333	FIXCROSS	n/a	n/a	n/a	n/a	n/a	n/a	n/a	n/a
133.5032	0.8167	INK	39	Incongruent	zielony	green	niebieski	blue	hit	n/a
134.289	n/a	RESPONSE	n/a	n/a	n/a	n/a	n/a	n/a	n/a	blue
134.3199	1.0334	ITI	n/a	n/a	n/a	n/a	n/a	n/a	n/a	n/a
135.3532	0.5333	FIXCROSS	n/a	n/a	n/a	n/a	n/a	n/a	n/a	n/a
135.8866	1.0333	INK	40	Incongruent	żółty	yellow	czerwony	red	hit	n/a
136.892	n/a	RESPONSE	n/a	n/a	n/a	n/a	n/a	n/a	n/a	red
136.9199	1.0333	ITI	n/a	n/a	n/a	n/a	n/a	n/a	n/a	n/a
137.9533	0.5333	FIXCROSS	n/a	n/a	n/a	n/a	n/a	n/a	n/a	n/a
138.4866	0.8167	INK	41	Incongruent	żółty	yellow	niebieski	blue	hit	n/a
139.2716	n/a	RESPONSE	n/a	n/a	n/a	n/a	n/a	n/a	n/a	blue
139.3033	1.0333	ITI	n/a	n/a	n/a	n/a	n/a	n/a	n/a	n/a
140.3366	0.5333	FIXCROSS	n/a	n/a	n/a	n/a	n/a	n/a	n/a	n/a
140.87	0.8167	INK	42	Incongruent	żółty	yellow	czerwony	red	hit	n/a
141.6511	n/a	RESPONSE	n/a	n/a	n/a	n/a	n/a	n/a	n/a	red
141.6866	1.0334	ITI	n/a	n/a	n/a	n/a	n/a	n/a	n/a	n/a
142.72	0.5333	FIXCROSS	n/a	n/a	n/a	n/a	n/a	n/a	n/a	n/a
143.2533	0.7333	INK	43	Incongruent	niebieski	blue	zielony	green	hit	n/a
143.9507	n/a	RESPONSE	n/a	n/a	n/a	n/a	n/a	n/a	n/a	green
143.9867	1.0333	ITI	n/a	n/a	n/a	n/a	n/a	n/a	n/a	n/a
145.02	0.5333	FIXCROSS	n/a	n/a	n/a	n/a	n/a	n/a	n/a	n/a
145.5534	0.7	INK	44	Incongruent	niebieski	blue	zielony	green	hit	n/a
146.2183	n/a	RESPONSE	n/a	n/a	n/a	n/a	n/a	n/a	n/a	green
146.2534	1.0333	ITI	n/a	n/a	n/a	n/a	n/a	n/a	n/a	n/a
147.2867	0.5333	FIXCROSS	n/a	n/a	n/a	n/a	n/a	n/a	n/a	n/a
147.8201	0.7833	INK	45	Neutral	xxxxxxxx	xxxxxxxx	żółty	yellow	hit	n/a
148.5659	n/a	RESPONSE	n/a	n/a	n/a	n/a	n/a	n/a	n/a	yellow
148.6034	1.0333	ITI	n/a	n/a	n/a	n/a	n/a	n/a	n/a	n/a
149.6367	0.5333	FIXCROSS	n/a	n/a	n/a	n/a	n/a	n/a	n/a	n/a
150.1701	0.75	INK	46	Incongruent	zielony	green	żółty	yellow	hit	n/a
150.8815	n/a	RESPONSE	n/a	n/a	n/a	n/a	n/a	n/a	n/a	yellow
150.9201	1.0333	ITI	n/a	n/a	n/a	n/a	n/a	n/a	n/a	n/a
151.9534	0.5333	FIXCROSS	n/a	n/a	n/a	n/a	n/a	n/a	n/a	n/a
152.4868	0.7667	INK	47	Neutral	xxxxxxxx	xxxxxxxx	żółty	yellow	hit	n/a
153.213	n/a	RESPONSE	n/a	n/a	n/a	n/a	n/a	n/a	n/a	yellow
153.2535	1.0333	ITI	n/a	n/a	n/a	n/a	n/a	n/a	n/a	n/a
154.2868	0.5333	FIXCROSS	n/a	n/a	n/a	n/a	n/a	n/a	n/a	n/a
154.8201	0.75	INK	48	Incongruent	zielony	green	żółty	yellow	hit	n/a
155.5288	n/a	RESPONSE	n/a	n/a	n/a	n/a	n/a	n/a	n/a	yellow
155.5702	1.0334	ITI	n/a	n/a	n/a	n/a	n/a	n/a	n/a	n/a
156.6035	0.5333	FIXCROSS	n/a	n/a	n/a	n/a	n/a	n/a	n/a	n/a
157.1368	0.8834	INK	49	Incongruent	czerwony	red	zielony	green	hit	n/a
157.988	n/a	RESPONSE	n/a	n/a	n/a	n/a	n/a	n/a	n/a	green
158.0202	1.0333	ITI	n/a	n/a	n/a	n/a	n/a	n/a	n/a	n/a
159.0535	0.5333	FIXCROSS	n/a	n/a	n/a	n/a	n/a	n/a	n/a	n/a
159.5869	0.6667	INK	50	Neutral	xxxxxxxx	xxxxxxxx	zielony	green	hit	n/a
160.2237	n/a	RESPONSE	n/a	n/a	n/a	n/a	n/a	n/a	n/a	green
160.2535	1.0333	ITI	n/a	n/a	n/a	n/a	n/a	n/a	n/a	n/a
161.2869	0.5333	FIXCROSS	n/a	n/a	n/a	n/a	n/a	n/a	n/a	n/a
161.8202	0.5833	INK	51	Neutral	xxxxxxxxx	xxxxxxxxx	zielony	green	hit	n/a
162.3637	n/a	RESPONSE	n/a	n/a	n/a	n/a	n/a	n/a	n/a	green
162.4036	1.0333	ITI	n/a	n/a	n/a	n/a	n/a	n/a	n/a	n/a
163.4369	0.5333	FIXCROSS	n/a	n/a	n/a	n/a	n/a	n/a	n/a	n/a
163.9703	0.55	INK	52	Neutral	xxxxx	xxxxx	zielony	green	hit	n/a
164.4877	n/a	RESPONSE	n/a	n/a	n/a	n/a	n/a	n/a	n/a	green
164.5203	1.0333	ITI	n/a	n/a	n/a	n/a	n/a	n/a	n/a	n/a
165.5536	0.5333	FIXCROSS	n/a	n/a	n/a	n/a	n/a	n/a	n/a	n/a
166.0869	0.75	INK	53	Incongruent	zielony	green	czerwony	red	hit	n/a
166.8033	n/a	RESPONSE	n/a	n/a	n/a	n/a	n/a	n/a	n/a	red
166.837	1.0333	ITI	n/a	n/a	n/a	n/a	n/a	n/a	n/a	n/a
167.8703	0.5333	FIXCROSS	n/a	n/a	n/a	n/a	n/a	n/a	n/a	n/a
168.4036	0.8	INK	54	Incongruent	żółty	yellow	niebieski	blue	hit	n/a
169.1668	n/a	RESPONSE	n/a	n/a	n/a	n/a	n/a	n/a	n/a	blue
169.2037	1.0333	ITI	n/a	n/a	n/a	n/a	n/a	n/a	n/a	n/a
170.237	0.5333	FIXCROSS	n/a	n/a	n/a	n/a	n/a	n/a	n/a	n/a
170.7703	0.7	INK	55	Incongruent	czerwony	red	niebieski	blue	hit	n/a
171.4345	n/a	RESPONSE	n/a	n/a	n/a	n/a	n/a	n/a	n/a	blue
171.4704	1.0333	ITI	n/a	n/a	n/a	n/a	n/a	n/a	n/a	n/a
172.5037	0.5333	FIXCROSS	n/a	n/a	n/a	n/a	n/a	n/a	n/a	n/a
173.037	0.9667	INK	56	Incongruent	niebieski	blue	czerwony	red	hit	n/a
173.9736	n/a	RESPONSE	n/a	n/a	n/a	n/a	n/a	n/a	n/a	red
174.0037	1.0333	ITI	n/a	n/a	n/a	n/a	n/a	n/a	n/a	n/a
175.0371	0.5333	FIXCROSS	n/a	n/a	n/a	n/a	n/a	n/a	n/a	n/a
175.5704	1.3333	INK	57	Incongruent	żółty	yellow	zielony	green	hit	n/a
176.8641	n/a	RESPONSE	n/a	n/a	n/a	n/a	n/a	n/a	n/a	green
176.9037	1.0334	ITI	n/a	n/a	n/a	n/a	n/a	n/a	n/a	n/a
177.9371	0.5333	FIXCROSS	n/a	n/a	n/a	n/a	n/a	n/a	n/a	n/a
178.4704	1.5	INK	58	Incongruent	czerwony	red	żółty	yellow	hit	n/a
179.9303	n/a	RESPONSE	n/a	n/a	n/a	n/a	n/a	n/a	n/a	yellow
179.9705	1.0333	ITI	n/a	n/a	n/a	n/a	n/a	n/a	n/a	n/a
181.0038	0.5333	FIXCROSS	n/a	n/a	n/a	n/a	n/a	n/a	n/a	n/a
181.5371	0.9667	INK	59	Incongruent	czerwony	red	żółty	yellow	hit	n/a
182.4696	n/a	RESPONSE	n/a	n/a	n/a	n/a	n/a	n/a	n/a	yellow
182.5038	1.0333	ITI	n/a	n/a	n/a	n/a	n/a	n/a	n/a	n/a
183.5372	0.5333	FIXCROSS	n/a	n/a	n/a	n/a	n/a	n/a	n/a	n/a
184.0705	2.8834	INK	60	Incongruent	zielony	green	czerwony	red	hit	n/a
186.925	n/a	RESPONSE	n/a	n/a	n/a	n/a	n/a	n/a	n/a	red
186.9539	1.0333	ITI	n/a	n/a	n/a	n/a	n/a	n/a	n/a	n/a
187.9872	0.5333	FIXCROSS	n/a	n/a	n/a	n/a	n/a	n/a	n/a	n/a
188.5206	0.85	INK	61	Neutral	xxxxxxxxx	xxxxxxxxx	czerwony	red	hit	n/a
189.3365	n/a	RESPONSE	n/a	n/a	n/a	n/a	n/a	n/a	n/a	red
189.3706	1.0334	ITI	n/a	n/a	n/a	n/a	n/a	n/a	n/a	n/a
190.4039	0.5333	FIXCROSS	n/a	n/a	n/a	n/a	n/a	n/a	n/a	n/a
190.9373	1.4167	INK	62	Neutral	xxxxx	xxxxx	niebieski	blue	hit	n/a
192.3227	n/a	RESPONSE	n/a	n/a	n/a	n/a	n/a	n/a	n/a	blue
192.3539	1.0334	ITI	n/a	n/a	n/a	n/a	n/a	n/a	n/a	n/a
193.3873	0.5333	FIXCROSS	n/a	n/a	n/a	n/a	n/a	n/a	n/a	n/a
193.9206	0.9834	INK	63	Neutral	xxxxxxxxx	xxxxxxxxx	żółty	yellow	hit	n/a
194.8619	n/a	RESPONSE	n/a	n/a	n/a	n/a	n/a	n/a	n/a	yellow
194.904	1.0333	ITI	n/a	n/a	n/a	n/a	n/a	n/a	n/a	n/a
195.9373	0.5334	FIXCROSS	n/a	n/a	n/a	n/a	n/a	n/a	n/a	n/a
196.4707	1.25	INK	64	Incongruent	zielony	green	niebieski	blue	hit	n/a
197.6886	n/a	RESPONSE	n/a	n/a	n/a	n/a	n/a	n/a	n/a	blue
197.7207	1.0333	ITI	n/a	n/a	n/a	n/a	n/a	n/a	n/a	n/a
198.754	0.5333	FIXCROSS	n/a	n/a	n/a	n/a	n/a	n/a	n/a	n/a
199.2874	2.0	INK	65	Neutral	xxxxx	xxxxx	czerwony	red	hit	n/a
201.2498	n/a	RESPONSE	n/a	n/a	n/a	n/a	n/a	n/a	n/a	red
201.2874	1.0333	ITI	n/a	n/a	n/a	n/a	n/a	n/a	n/a	n/a
202.3207	0.5334	FIXCROSS	n/a	n/a	n/a	n/a	n/a	n/a	n/a	n/a
202.8541	0.9	INK	66	Incongruent	niebieski	blue	żółty	yellow	hit	n/a
203.7252	n/a	RESPONSE	n/a	n/a	n/a	n/a	n/a	n/a	n/a	yellow
203.7541	1.0333	ITI	n/a	n/a	n/a	n/a	n/a	n/a	n/a	n/a
204.7874	0.5333	FIXCROSS	n/a	n/a	n/a	n/a	n/a	n/a	n/a	n/a
205.3208	1.3667	INK	67	Neutral	xxxxxxx	xxxxxxx	niebieski	blue	hit	n/a
206.6475	n/a	RESPONSE	n/a	n/a	n/a	n/a	n/a	n/a	n/a	blue
206.6874	1.0334	ITI	n/a	n/a	n/a	n/a	n/a	n/a	n/a	n/a
207.7208	0.5333	FIXCROSS	n/a	n/a	n/a	n/a	n/a	n/a	n/a	n/a
208.2541	0.7	INK	68	Neutral	xxxxxxxxx	xxxxxxxxx	czerwony	red	hit	n/a
208.9154	n/a	RESPONSE	n/a	n/a	n/a	n/a	n/a	n/a	n/a	red
208.9541	1.0334	ITI	n/a	n/a	n/a	n/a	n/a	n/a	n/a	n/a
209.9875	0.5333	FIXCROSS	n/a	n/a	n/a	n/a	n/a	n/a	n/a	n/a
210.5208	0.8	INK	69	Neutral	xxxxx	xxxxx	zielony	green	hit	n/a
211.2787	n/a	RESPONSE	n/a	n/a	n/a	n/a	n/a	n/a	n/a	green
211.3208	1.0333	ITI	n/a	n/a	n/a	n/a	n/a	n/a	n/a	n/a
212.3542	0.5333	FIXCROSS	n/a	n/a	n/a	n/a	n/a	n/a	n/a	n/a
212.8875	1.0667	INK	70	Neutral	xxxxxxxx	xxxxxxxx	zielony	green	hit	n/a
213.9137	n/a	RESPONSE	n/a	n/a	n/a	n/a	n/a	n/a	n/a	green
213.9542	1.0333	ITI	n/a	n/a	n/a	n/a	n/a	n/a	n/a	n/a
214.9875	0.5333	FIXCROSS	n/a	n/a	n/a	n/a	n/a	n/a	n/a	n/a
215.5209	0.9	INK	71	Neutral	xxxxxxx	xxxxxxx	żółty	yellow	hit	n/a
216.3891	n/a	RESPONSE	n/a	n/a	n/a	n/a	n/a	n/a	n/a	yellow
216.4209	1.0333	ITI	n/a	n/a	n/a	n/a	n/a	n/a	n/a	n/a
217.4543	0.5333	FIXCROSS	n/a	n/a	n/a	n/a	n/a	n/a	n/a	n/a
217.9876	0.7333	INK	72	Neutral	xxxxxxxxx	xxxxxxxxx	czerwony	red	hit	n/a
218.6887	n/a	RESPONSE	n/a	n/a	n/a	n/a	n/a	n/a	n/a	red
218.7209	1.1	ITI	n/a	n/a	n/a	n/a	n/a	n/a	n/a	n/a
232.9496	n/a	RESPONSE	n/a	n/a	n/a	n/a	n/a	n/a	n/a	n/a
233.0211	1.0	ITI	n/a	n/a	n/a	n/a	n/a	n/a	n/a	n/a
234.0211	0.5	FIXCROSS	n/a	n/a	n/a	n/a	n/a	n/a	n/a	n/a
234.5211	1.6333	T_COLOR_NAME	1	Incongruent	czerwony	red	zielony	green	hit	n/a
236.1434	n/a	RESPONSE	n/a	n/a	n/a	n/a	n/a	n/a	n/a	red
236.1545	0.5	FEEDBACK	n/a	n/a	n/a	n/a	n/a	n/a	n/a	n/a
236.6545	1.0	ITI	n/a	n/a	n/a	n/a	n/a	n/a	n/a	n/a
237.6545	0.5	FIXCROSS	n/a	n/a	n/a	n/a	n/a	n/a	n/a	n/a
238.1545	0.8667	T_COLOR_NAME	2	Neutral	niebieski	blue	Neutral	Neutral	hit	n/a
239.002	n/a	RESPONSE	n/a	n/a	n/a	n/a	n/a	n/a	n/a	blue
239.0212	0.5	FEEDBACK	n/a	n/a	n/a	n/a	n/a	n/a	n/a	n/a
239.5212	1.0	ITI	n/a	n/a	n/a	n/a	n/a	n/a	n/a	n/a
240.5212	0.5	FIXCROSS	n/a	n/a	n/a	n/a	n/a	n/a	n/a	n/a
241.0212	0.8833	T_COLOR_NAME	3	Neutral	czerwony	red	Neutral	Neutral	hit	n/a
241.8925	n/a	RESPONSE	n/a	n/a	n/a	n/a	n/a	n/a	n/a	red
241.9045	0.5	FEEDBACK	n/a	n/a	n/a	n/a	n/a	n/a	n/a	n/a
242.4046	1.0	ITI	n/a	n/a	n/a	n/a	n/a	n/a	n/a	n/a
243.4046	0.5	FIXCROSS	n/a	n/a	n/a	n/a	n/a	n/a	n/a	n/a
243.9046	0.7167	T_COLOR_NAME	4	Neutral	czerwony	red	Neutral	Neutral	hit	n/a
244.6074	n/a	RESPONSE	n/a	n/a	n/a	n/a	n/a	n/a	n/a	red
244.6213	0.5	FEEDBACK	n/a	n/a	n/a	n/a	n/a	n/a	n/a	n/a
245.1213	1.0	ITI	n/a	n/a	n/a	n/a	n/a	n/a	n/a	n/a
246.1213	0.5	FIXCROSS	n/a	n/a	n/a	n/a	n/a	n/a	n/a	n/a
246.6213	0.9167	T_COLOR_NAME	5	Incongruent	żółty	yellow	czerwony	red	hit	n/a
247.5297	n/a	RESPONSE	n/a	n/a	n/a	n/a	n/a	n/a	n/a	yellow
247.5379	0.5	FEEDBACK	n/a	n/a	n/a	n/a	n/a	n/a	n/a	n/a
248.038	1.0	ITI	n/a	n/a	n/a	n/a	n/a	n/a	n/a	n/a
249.038	0.5	FIXCROSS	n/a	n/a	n/a	n/a	n/a	n/a	n/a	n/a
249.538	0.6834	T_COLOR_NAME	6	Neutral	zielony	green	Neutral	Neutral	hit	n/a
250.2127	n/a	RESPONSE	n/a	n/a	n/a	n/a	n/a	n/a	n/a	green
250.2213	0.5	FEEDBACK	n/a	n/a	n/a	n/a	n/a	n/a	n/a	n/a
250.7213	1.0	ITI	n/a	n/a	n/a	n/a	n/a	n/a	n/a	n/a
251.7213	0.5	FIXCROSS	n/a	n/a	n/a	n/a	n/a	n/a	n/a	n/a
252.2213	0.6833	T_COLOR_NAME	7	Neutral	czerwony	red	Neutral	Neutral	hit	n/a
252.8956	n/a	RESPONSE	n/a	n/a	n/a	n/a	n/a	n/a	n/a	red
252.9047	0.5	FEEDBACK	n/a	n/a	n/a	n/a	n/a	n/a	n/a	n/a
253.4047	1.0	ITI	n/a	n/a	n/a	n/a	n/a	n/a	n/a	n/a
254.4047	0.5	FIXCROSS	n/a	n/a	n/a	n/a	n/a	n/a	n/a	n/a
254.9047	0.85	T_COLOR_NAME	8	Incongruent	czerwony	red	niebieski	blue	hit	n/a
255.7382	n/a	RESPONSE	n/a	n/a	n/a	n/a	n/a	n/a	n/a	red
255.7547	0.5	FEEDBACK	n/a	n/a	n/a	n/a	n/a	n/a	n/a	n/a
256.2547	1.0	ITI	n/a	n/a	n/a	n/a	n/a	n/a	n/a	n/a
257.2547	0.5	FIXCROSS	n/a	n/a	n/a	n/a	n/a	n/a	n/a	n/a
257.7547	0.8333	T_COLOR_NAME	9	Neutral	zielony	green	Neutral	Neutral	hit	n/a
258.5808	n/a	RESPONSE	n/a	n/a	n/a	n/a	n/a	n/a	n/a	green
258.5881	0.5	FEEDBACK	n/a	n/a	n/a	n/a	n/a	n/a	n/a	n/a
259.0881	1.0	ITI	n/a	n/a	n/a	n/a	n/a	n/a	n/a	n/a
260.0881	0.5	FIXCROSS	n/a	n/a	n/a	n/a	n/a	n/a	n/a	n/a
260.5881	0.7334	T_COLOR_NAME	10	Neutral	niebieski	blue	Neutral	Neutral	hit	n/a
261.3116	n/a	RESPONSE	n/a	n/a	n/a	n/a	n/a	n/a	n/a	blue
261.3215	0.5	FEEDBACK	n/a	n/a	n/a	n/a	n/a	n/a	n/a	n/a
261.8215	1.0	ITI	n/a	n/a	n/a	n/a	n/a	n/a	n/a	n/a
262.8215	0.5	FIXCROSS	n/a	n/a	n/a	n/a	n/a	n/a	n/a	n/a
263.3215	0.85	T_COLOR_NAME	11	Neutral	żółty	yellow	Neutral	Neutral	hit	n/a
264.1542	n/a	RESPONSE	n/a	n/a	n/a	n/a	n/a	n/a	n/a	yellow
264.1715	0.5	FEEDBACK	n/a	n/a	n/a	n/a	n/a	n/a	n/a	n/a
264.6715	1.0	ITI	n/a	n/a	n/a	n/a	n/a	n/a	n/a	n/a
265.6715	0.5	FIXCROSS	n/a	n/a	n/a	n/a	n/a	n/a	n/a	n/a
266.1715	1.3833	T_COLOR_NAME	12	Incongruent	niebieski	blue	czerwony	red	hit	n/a
267.5397	n/a	RESPONSE	n/a	n/a	n/a	n/a	n/a	n/a	n/a	blue
267.5549	0.5	FEEDBACK	n/a	n/a	n/a	n/a	n/a	n/a	n/a	n/a
268.0549	1.0	ITI	n/a	n/a	n/a	n/a	n/a	n/a	n/a	n/a
272.0272	n/a	RESPONSE	n/a	n/a	n/a	n/a	n/a	n/a	n/a	n/a
272.0549	1.0167	ITI	n/a	n/a	n/a	n/a	n/a	n/a	n/a	n/a
273.0716	0.5	FIXCROSS	n/a	n/a	n/a	n/a	n/a	n/a	n/a	n/a
273.5716	0.9	COLOR_NAME	1	Neutral	niebieski	blue	Neutral	Neutral	hit	n/a
274.4545	n/a	RESPONSE	n/a	n/a	n/a	n/a	n/a	n/a	n/a	blue
274.4716	1.0333	ITI	n/a	n/a	n/a	n/a	n/a	n/a	n/a	n/a
275.505	0.5333	FIXCROSS	n/a	n/a	n/a	n/a	n/a	n/a	n/a	n/a
276.0383	1.0167	COLOR_NAME	2	Incongruent	zielony	green	niebieski	blue	hit	n/a
277.0257	n/a	RESPONSE	n/a	n/a	n/a	n/a	n/a	n/a	n/a	green
277.055	1.0333	ITI	n/a	n/a	n/a	n/a	n/a	n/a	n/a	n/a
278.0883	0.5333	FIXCROSS	n/a	n/a	n/a	n/a	n/a	n/a	n/a	n/a
278.6217	0.85	COLOR_NAME	3	Incongruent	żółty	yellow	czerwony	red	hit	n/a
279.4371	n/a	RESPONSE	n/a	n/a	n/a	n/a	n/a	n/a	n/a	yellow
279.4717	1.0333	ITI	n/a	n/a	n/a	n/a	n/a	n/a	n/a	n/a
280.505	0.5333	FIXCROSS	n/a	n/a	n/a	n/a	n/a	n/a	n/a	n/a
281.0384	0.8	COLOR_NAME	4	Neutral	niebieski	blue	Neutral	Neutral	hit	n/a
281.8005	n/a	RESPONSE	n/a	n/a	n/a	n/a	n/a	n/a	n/a	blue
281.8384	1.0333	ITI	n/a	n/a	n/a	n/a	n/a	n/a	n/a	n/a
282.8717	0.5333	FIXCROSS	n/a	n/a	n/a	n/a	n/a	n/a	n/a	n/a
283.4051	0.9333	COLOR_NAME	5	Incongruent	czerwony	red	żółty	yellow	hit	n/a
284.3078	n/a	RESPONSE	n/a	n/a	n/a	n/a	n/a	n/a	n/a	red
284.3384	1.0334	ITI	n/a	n/a	n/a	n/a	n/a	n/a	n/a	n/a
285.3718	0.5333	FIXCROSS	n/a	n/a	n/a	n/a	n/a	n/a	n/a	n/a
285.9051	0.6667	COLOR_NAME	6	Neutral	czerwony	red	Neutral	Neutral	hit	n/a
286.5437	n/a	RESPONSE	n/a	n/a	n/a	n/a	n/a	n/a	n/a	red
286.5718	1.0333	ITI	n/a	n/a	n/a	n/a	n/a	n/a	n/a	n/a
287.6051	0.5333	FIXCROSS	n/a	n/a	n/a	n/a	n/a	n/a	n/a	n/a
288.1384	0.6667	COLOR_NAME	7	Incongruent	czerwony	red	żółty	yellow	hit	n/a
288.7634	n/a	RESPONSE	n/a	n/a	n/a	n/a	n/a	n/a	n/a	red
288.8051	1.0334	ITI	n/a	n/a	n/a	n/a	n/a	n/a	n/a	n/a
289.8385	0.5333	FIXCROSS	n/a	n/a	n/a	n/a	n/a	n/a	n/a	n/a
290.3718	0.6333	COLOR_NAME	8	Neutral	czerwony	red	Neutral	Neutral	hit	n/a
290.9672	n/a	RESPONSE	n/a	n/a	n/a	n/a	n/a	n/a	n/a	red
291.0052	1.0333	ITI	n/a	n/a	n/a	n/a	n/a	n/a	n/a	n/a
292.0385	0.5333	FIXCROSS	n/a	n/a	n/a	n/a	n/a	n/a	n/a	n/a
292.5718	0.8833	COLOR_NAME	9	Neutral	zielony	green	Neutral	Neutral	hit	n/a
293.4106	n/a	RESPONSE	n/a	n/a	n/a	n/a	n/a	n/a	n/a	green
293.4552	1.0334	ITI	n/a	n/a	n/a	n/a	n/a	n/a	n/a	n/a
294.4885	0.5333	FIXCROSS	n/a	n/a	n/a	n/a	n/a	n/a	n/a	n/a
295.0219	1.0167	COLOR_NAME	10	Incongruent	zielony	green	czerwony	red	hit	n/a
295.9977	n/a	RESPONSE	n/a	n/a	n/a	n/a	n/a	n/a	n/a	green
296.0385	1.0333	ITI	n/a	n/a	n/a	n/a	n/a	n/a	n/a	n/a
297.0719	0.5334	FIXCROSS	n/a	n/a	n/a	n/a	n/a	n/a	n/a	n/a
297.6052	0.4833	COLOR_NAME	11	Neutral	zielony	green	Neutral	Neutral	hit	n/a
298.0577	n/a	RESPONSE	n/a	n/a	n/a	n/a	n/a	n/a	n/a	green
298.0886	1.0333	ITI	n/a	n/a	n/a	n/a	n/a	n/a	n/a	n/a
299.1219	0.5333	FIXCROSS	n/a	n/a	n/a	n/a	n/a	n/a	n/a	n/a
299.6553	0.7333	COLOR_NAME	12	Incongruent	niebieski	blue	żółty	yellow	hit	n/a
300.3573	n/a	RESPONSE	n/a	n/a	n/a	n/a	n/a	n/a	n/a	blue
300.3886	1.0333	ITI	n/a	n/a	n/a	n/a	n/a	n/a	n/a	n/a
301.4219	0.5333	FIXCROSS	n/a	n/a	n/a	n/a	n/a	n/a	n/a	n/a
301.9553	0.8	COLOR_NAME	13	Neutral	czerwony	red	Neutral	Neutral	hit	n/a
302.7209	n/a	RESPONSE	n/a	n/a	n/a	n/a	n/a	n/a	n/a	red
302.7553	1.0333	ITI	n/a	n/a	n/a	n/a	n/a	n/a	n/a	n/a
303.7886	0.5333	FIXCROSS	n/a	n/a	n/a	n/a	n/a	n/a	n/a	n/a
304.322	0.75	COLOR_NAME	14	Neutral	zielony	green	Neutral	Neutral	hit	n/a
305.0365	n/a	RESPONSE	n/a	n/a	n/a	n/a	n/a	n/a	n/a	green
305.072	1.0333	ITI	n/a	n/a	n/a	n/a	n/a	n/a	n/a	n/a
306.1053	0.5333	FIXCROSS	n/a	n/a	n/a	n/a	n/a	n/a	n/a	n/a
306.6387	1.0334	COLOR_NAME	15	Incongruent	żółty	yellow	zielony	green	hit	n/a
307.6396	n/a	RESPONSE	n/a	n/a	n/a	n/a	n/a	n/a	n/a	yellow
307.672	1.0333	ITI	n/a	n/a	n/a	n/a	n/a	n/a	n/a	n/a
308.7054	0.5333	FIXCROSS	n/a	n/a	n/a	n/a	n/a	n/a	n/a	n/a
309.2387	1.0	COLOR_NAME	16	Incongruent	zielony	green	czerwony	red	hit	n/a
310.1947	n/a	RESPONSE	n/a	n/a	n/a	n/a	n/a	n/a	n/a	green
310.2387	1.0333	ITI	n/a	n/a	n/a	n/a	n/a	n/a	n/a	n/a
311.2721	0.5333	FIXCROSS	n/a	n/a	n/a	n/a	n/a	n/a	n/a	n/a
311.8054	0.7167	COLOR_NAME	17	Neutral	zielony	green	Neutral	Neutral	hit	n/a
312.4784	n/a	RESPONSE	n/a	n/a	n/a	n/a	n/a	n/a	n/a	green
312.5221	1.0334	ITI	n/a	n/a	n/a	n/a	n/a	n/a	n/a	n/a
313.5554	0.5333	FIXCROSS	n/a	n/a	n/a	n/a	n/a	n/a	n/a	n/a
314.0888	0.8	COLOR_NAME	18	Incongruent	niebieski	blue	żółty	yellow	hit	n/a
314.8579	n/a	RESPONSE	n/a	n/a	n/a	n/a	n/a	n/a	n/a	blue
314.8888	1.0333	ITI	n/a	n/a	n/a	n/a	n/a	n/a	n/a	n/a
315.9221	0.5333	FIXCROSS	n/a	n/a	n/a	n/a	n/a	n/a	n/a	n/a
316.4555	0.8167	COLOR_NAME	19	Incongruent	zielony	green	żółty	yellow	hit	n/a
317.2373	n/a	RESPONSE	n/a	n/a	n/a	n/a	n/a	n/a	n/a	green
317.2721	1.0333	ITI	n/a	n/a	n/a	n/a	n/a	n/a	n/a	n/a
318.3055	0.5333	FIXCROSS	n/a	n/a	n/a	n/a	n/a	n/a	n/a	n/a
318.8388	0.8	COLOR_NAME	20	Incongruent	zielony	green	czerwony	red	hit	n/a
319.6008	n/a	RESPONSE	n/a	n/a	n/a	n/a	n/a	n/a	n/a	green
319.6388	1.0334	ITI	n/a	n/a	n/a	n/a	n/a	n/a	n/a	n/a
320.6722	0.5333	FIXCROSS	n/a	n/a	n/a	n/a	n/a	n/a	n/a	n/a
321.2055	0.7167	COLOR_NAME	21	Incongruent	zielony	green	żółty	yellow	hit	n/a
321.8846	n/a	RESPONSE	n/a	n/a	n/a	n/a	n/a	n/a	n/a	green
321.9222	1.0333	ITI	n/a	n/a	n/a	n/a	n/a	n/a	n/a	n/a
322.9555	0.5333	FIXCROSS	n/a	n/a	n/a	n/a	n/a	n/a	n/a	n/a
323.4889	0.8667	COLOR_NAME	22	Incongruent	żółty	yellow	niebieski	blue	hit	n/a
324.3119	n/a	RESPONSE	n/a	n/a	n/a	n/a	n/a	n/a	n/a	yellow
324.3556	1.0333	ITI	n/a	n/a	n/a	n/a	n/a	n/a	n/a	n/a
325.3889	0.5333	FIXCROSS	n/a	n/a	n/a	n/a	n/a	n/a	n/a	n/a
325.9222	0.85	COLOR_NAME	23	Neutral	czerwony	red	Neutral	Neutral	hit	n/a
326.7393	n/a	RESPONSE	n/a	n/a	n/a	n/a	n/a	n/a	n/a	red
326.7723	1.0333	ITI	n/a	n/a	n/a	n/a	n/a	n/a	n/a	n/a
327.8056	0.5333	FIXCROSS	n/a	n/a	n/a	n/a	n/a	n/a	n/a	n/a
328.339	0.8	COLOR_NAME	24	Incongruent	zielony	green	niebieski	blue	hit	n/a
329.1029	n/a	RESPONSE	n/a	n/a	n/a	n/a	n/a	n/a	n/a	green
329.139	1.0333	ITI	n/a	n/a	n/a	n/a	n/a	n/a	n/a	n/a
330.1723	0.5333	FIXCROSS	n/a	n/a	n/a	n/a	n/a	n/a	n/a	n/a
330.7056	0.8167	COLOR_NAME	25	Neutral	żółty	yellow	Neutral	Neutral	hit	n/a
331.4824	n/a	RESPONSE	n/a	n/a	n/a	n/a	n/a	n/a	n/a	yellow
331.5223	1.0334	ITI	n/a	n/a	n/a	n/a	n/a	n/a	n/a	n/a
332.5557	0.5333	FIXCROSS	n/a	n/a	n/a	n/a	n/a	n/a	n/a	n/a
333.089	0.7333	COLOR_NAME	26	Neutral	żółty	yellow	Neutral	Neutral	hit	n/a
333.782	n/a	RESPONSE	n/a	n/a	n/a	n/a	n/a	n/a	n/a	yellow
333.8223	1.0333	ITI	n/a	n/a	n/a	n/a	n/a	n/a	n/a	n/a
334.8557	0.5333	FIXCROSS	n/a	n/a	n/a	n/a	n/a	n/a	n/a	n/a
335.389	1.1	COLOR_NAME	27	Incongruent	niebieski	blue	żółty	yellow	hit	n/a
336.4489	n/a	RESPONSE	n/a	n/a	n/a	n/a	n/a	n/a	n/a	blue
336.489	1.0333	ITI	n/a	n/a	n/a	n/a	n/a	n/a	n/a	n/a
337.5224	0.5333	FIXCROSS	n/a	n/a	n/a	n/a	n/a	n/a	n/a	n/a
338.0557	0.8334	COLOR_NAME	28	Neutral	zielony	green	Neutral	Neutral	hit	n/a
338.8602	n/a	RESPONSE	n/a	n/a	n/a	n/a	n/a	n/a	n/a	green
338.8891	1.0333	ITI	n/a	n/a	n/a	n/a	n/a	n/a	n/a	n/a
339.9224	0.5333	FIXCROSS	n/a	n/a	n/a	n/a	n/a	n/a	n/a	n/a
340.4558	0.8333	COLOR_NAME	29	Neutral	niebieski	blue	Neutral	Neutral	hit	n/a
341.2558	n/a	RESPONSE	n/a	n/a	n/a	n/a	n/a	n/a	n/a	blue
341.2891	1.0333	ITI	n/a	n/a	n/a	n/a	n/a	n/a	n/a	n/a
342.3224	0.5333	FIXCROSS	n/a	n/a	n/a	n/a	n/a	n/a	n/a	n/a
342.8558	0.75	COLOR_NAME	30	Neutral	niebieski	blue	Neutral	Neutral	hit	n/a
343.5714	n/a	RESPONSE	n/a	n/a	n/a	n/a	n/a	n/a	n/a	blue
343.6058	1.0333	ITI	n/a	n/a	n/a	n/a	n/a	n/a	n/a	n/a
344.6391	0.5333	FIXCROSS	n/a	n/a	n/a	n/a	n/a	n/a	n/a	n/a
345.1725	0.85	COLOR_NAME	31	Incongruent	żółty	yellow	czerwony	red	hit	n/a
345.9827	n/a	RESPONSE	n/a	n/a	n/a	n/a	n/a	n/a	n/a	yellow
346.0225	1.0333	ITI	n/a	n/a	n/a	n/a	n/a	n/a	n/a	n/a
347.0558	0.5333	FIXCROSS	n/a	n/a	n/a	n/a	n/a	n/a	n/a	n/a
347.5892	0.8667	COLOR_NAME	32	Incongruent	niebieski	blue	zielony	green	hit	n/a
348.4261	n/a	RESPONSE	n/a	n/a	n/a	n/a	n/a	n/a	n/a	blue
348.4559	1.0333	ITI	n/a	n/a	n/a	n/a	n/a	n/a	n/a	n/a
349.4892	0.5333	FIXCROSS	n/a	n/a	n/a	n/a	n/a	n/a	n/a	n/a
350.0225	1.0	COLOR_NAME	33	Incongruent	czerwony	red	zielony	green	hit	n/a
350.9813	n/a	RESPONSE	n/a	n/a	n/a	n/a	n/a	n/a	n/a	red
351.0226	1.0333	ITI	n/a	n/a	n/a	n/a	n/a	n/a	n/a	n/a
352.0559	0.5333	FIXCROSS	n/a	n/a	n/a	n/a	n/a	n/a	n/a	n/a
352.5892	0.9	COLOR_NAME	34	Neutral	niebieski	blue	Neutral	Neutral	hit	n/a
353.4566	n/a	RESPONSE	n/a	n/a	n/a	n/a	n/a	n/a	n/a	blue
353.4892	1.0333	ITI	n/a	n/a	n/a	n/a	n/a	n/a	n/a	n/a
354.5226	0.5333	FIXCROSS	n/a	n/a	n/a	n/a	n/a	n/a	n/a	n/a
355.0559	0.8167	COLOR_NAME	35	Neutral	żółty	yellow	Neutral	Neutral	hit	n/a
355.836	n/a	RESPONSE	n/a	n/a	n/a	n/a	n/a	n/a	n/a	yellow
355.8726	1.0334	ITI	n/a	n/a	n/a	n/a	n/a	n/a	n/a	n/a
356.906	0.5333	FIXCROSS	n/a	n/a	n/a	n/a	n/a	n/a	n/a	n/a
357.4393	0.9167	COLOR_NAME	36	Incongruent	niebieski	blue	czerwony	red	hit	n/a
358.3273	n/a	RESPONSE	n/a	n/a	n/a	n/a	n/a	n/a	n/a	blue
358.356	1.0334	ITI	n/a	n/a	n/a	n/a	n/a	n/a	n/a	n/a
359.3893	0.5333	FIXCROSS	n/a	n/a	n/a	n/a	n/a	n/a	n/a	n/a
359.9227	0.8167	COLOR_NAME	37	Neutral	niebieski	blue	Neutral	Neutral	hit	n/a
360.7068	n/a	RESPONSE	n/a	n/a	n/a	n/a	n/a	n/a	n/a	blue
360.7393	1.0333	ITI	n/a	n/a	n/a	n/a	n/a	n/a	n/a	n/a
361.7727	0.5333	FIXCROSS	n/a	n/a	n/a	n/a	n/a	n/a	n/a	n/a
362.306	0.7167	COLOR_NAME	38	Neutral	niebieski	blue	Neutral	Neutral	hit	n/a
362.9904	n/a	RESPONSE	n/a	n/a	n/a	n/a	n/a	n/a	n/a	blue
363.0227	1.0333	ITI	n/a	n/a	n/a	n/a	n/a	n/a	n/a	n/a
364.056	0.5333	FIXCROSS	n/a	n/a	n/a	n/a	n/a	n/a	n/a	n/a
364.5894	0.8833	COLOR_NAME	39	Incongruent	czerwony	red	niebieski	blue	hit	n/a
365.4337	n/a	RESPONSE	n/a	n/a	n/a	n/a	n/a	n/a	n/a	red
365.4727	1.0334	ITI	n/a	n/a	n/a	n/a	n/a	n/a	n/a	n/a
366.5061	0.5333	FIXCROSS	n/a	n/a	n/a	n/a	n/a	n/a	n/a	n/a
367.0394	0.95	COLOR_NAME	40	Neutral	żółty	yellow	Neutral	Neutral	hit	n/a
367.957	n/a	RESPONSE	n/a	n/a	n/a	n/a	n/a	n/a	n/a	yellow
367.9894	1.0333	ITI	n/a	n/a	n/a	n/a	n/a	n/a	n/a	n/a
369.0228	0.5333	FIXCROSS	n/a	n/a	n/a	n/a	n/a	n/a	n/a	n/a
369.5561	0.9833	COLOR_NAME	41	Neutral	czerwony	red	Neutral	Neutral	hit	n/a
370.4962	n/a	RESPONSE	n/a	n/a	n/a	n/a	n/a	n/a	n/a	red
370.5395	1.0333	ITI	n/a	n/a	n/a	n/a	n/a	n/a	n/a	n/a
371.5728	0.5333	FIXCROSS	n/a	n/a	n/a	n/a	n/a	n/a	n/a	n/a
372.1061	0.7667	COLOR_NAME	42	Neutral	niebieski	blue	Neutral	Neutral	hit	n/a
372.8436	n/a	RESPONSE	n/a	n/a	n/a	n/a	n/a	n/a	n/a	blue
372.8728	1.0333	ITI	n/a	n/a	n/a	n/a	n/a	n/a	n/a	n/a
373.9062	0.5333	FIXCROSS	n/a	n/a	n/a	n/a	n/a	n/a	n/a	n/a
374.4395	0.8834	COLOR_NAME	43	Incongruent	żółty	yellow	niebieski	blue	hit	n/a
375.287	n/a	RESPONSE	n/a	n/a	n/a	n/a	n/a	n/a	n/a	yellow
375.3229	1.0333	ITI	n/a	n/a	n/a	n/a	n/a	n/a	n/a	n/a
376.3562	0.5333	FIXCROSS	n/a	n/a	n/a	n/a	n/a	n/a	n/a	n/a
376.8895	0.7667	COLOR_NAME	44	Neutral	żółty	yellow	Neutral	Neutral	hit	n/a
377.6185	n/a	RESPONSE	n/a	n/a	n/a	n/a	n/a	n/a	n/a	yellow
377.6562	1.0333	ITI	n/a	n/a	n/a	n/a	n/a	n/a	n/a	n/a
378.6896	0.5334	FIXCROSS	n/a	n/a	n/a	n/a	n/a	n/a	n/a	n/a
379.2229	1.1333	COLOR_NAME	45	Neutral	zielony	green	Neutral	Neutral	hit	n/a
380.3175	n/a	RESPONSE	n/a	n/a	n/a	n/a	n/a	n/a	n/a	green
380.3563	1.0333	ITI	n/a	n/a	n/a	n/a	n/a	n/a	n/a	n/a
381.3896	0.5334	FIXCROSS	n/a	n/a	n/a	n/a	n/a	n/a	n/a	n/a
381.9229	1.0167	COLOR_NAME	46	Incongruent	niebieski	blue	czerwony	red	hit	n/a
382.9045	n/a	RESPONSE	n/a	n/a	n/a	n/a	n/a	n/a	n/a	blue
382.9396	1.0333	ITI	n/a	n/a	n/a	n/a	n/a	n/a	n/a	n/a
383.973	0.5333	FIXCROSS	n/a	n/a	n/a	n/a	n/a	n/a	n/a	n/a
384.5063	0.8833	COLOR_NAME	47	Incongruent	żółty	yellow	niebieski	blue	hit	n/a
385.3478	n/a	RESPONSE	n/a	n/a	n/a	n/a	n/a	n/a	n/a	yellow
385.3896	1.0333	ITI	n/a	n/a	n/a	n/a	n/a	n/a	n/a	n/a
386.423	0.5333	FIXCROSS	n/a	n/a	n/a	n/a	n/a	n/a	n/a	n/a
386.9563	0.7667	COLOR_NAME	48	Neutral	żółty	yellow	Neutral	Neutral	hit	n/a
387.6794	n/a	RESPONSE	n/a	n/a	n/a	n/a	n/a	n/a	n/a	yellow
387.723	1.0333	ITI	n/a	n/a	n/a	n/a	n/a	n/a	n/a	n/a
388.7563	0.5333	FIXCROSS	n/a	n/a	n/a	n/a	n/a	n/a	n/a	n/a
389.2897	0.9667	COLOR_NAME	49	Incongruent	czerwony	red	zielony	green	hit	n/a
390.2186	n/a	RESPONSE	n/a	n/a	n/a	n/a	n/a	n/a	n/a	red
390.2564	1.0333	ITI	n/a	n/a	n/a	n/a	n/a	n/a	n/a	n/a
391.2897	0.5333	FIXCROSS	n/a	n/a	n/a	n/a	n/a	n/a	n/a	n/a
391.8231	1.25	COLOR_NAME	50	Neutral	zielony	green	Neutral	Neutral	hit	n/a
393.0293	n/a	RESPONSE	n/a	n/a	n/a	n/a	n/a	n/a	n/a	green
393.0731	1.0334	ITI	n/a	n/a	n/a	n/a	n/a	n/a	n/a	n/a
394.1064	0.5333	FIXCROSS	n/a	n/a	n/a	n/a	n/a	n/a	n/a	n/a
394.6398	0.8333	COLOR_NAME	51	Neutral	żółty	yellow	Neutral	Neutral	hit	n/a
395.4408	n/a	RESPONSE	n/a	n/a	n/a	n/a	n/a	n/a	n/a	yellow
395.4731	1.0333	ITI	n/a	n/a	n/a	n/a	n/a	n/a	n/a	n/a
396.5064	0.5333	FIXCROSS	n/a	n/a	n/a	n/a	n/a	n/a	n/a	n/a
397.0398	0.9	COLOR_NAME	52	Neutral	zielony	green	Neutral	Neutral	hit	n/a
397.9	n/a	RESPONSE	n/a	n/a	n/a	n/a	n/a	n/a	n/a	green
397.9398	1.0333	ITI	n/a	n/a	n/a	n/a	n/a	n/a	n/a	n/a
398.9731	0.5333	FIXCROSS	n/a	n/a	n/a	n/a	n/a	n/a	n/a	n/a
399.5065	0.8833	COLOR_NAME	53	Incongruent	niebieski	blue	zielony	green	hit	n/a
400.3594	n/a	RESPONSE	n/a	n/a	n/a	n/a	n/a	n/a	n/a	blue
400.3898	1.0333	ITI	n/a	n/a	n/a	n/a	n/a	n/a	n/a	n/a
401.4232	0.5333	FIXCROSS	n/a	n/a	n/a	n/a	n/a	n/a	n/a	n/a
401.9565	0.8833	COLOR_NAME	54	Neutral	czerwony	red	Neutral	Neutral	hit	n/a
402.8027	n/a	RESPONSE	n/a	n/a	n/a	n/a	n/a	n/a	n/a	red
402.8398	1.0333	ITI	n/a	n/a	n/a	n/a	n/a	n/a	n/a	n/a
403.8732	0.5333	FIXCROSS	n/a	n/a	n/a	n/a	n/a	n/a	n/a	n/a
404.4065	1.0667	COLOR_NAME	55	Incongruent	niebieski	blue	czerwony	red	hit	n/a
405.4377	n/a	RESPONSE	n/a	n/a	n/a	n/a	n/a	n/a	n/a	blue
405.4732	1.0333	ITI	n/a	n/a	n/a	n/a	n/a	n/a	n/a	n/a
406.5066	0.5333	FIXCROSS	n/a	n/a	n/a	n/a	n/a	n/a	n/a	n/a
407.0399	0.7833	COLOR_NAME	56	Incongruent	żółty	yellow	zielony	green	hit	n/a
407.7853	n/a	RESPONSE	n/a	n/a	n/a	n/a	n/a	n/a	n/a	yellow
407.8233	1.0333	ITI	n/a	n/a	n/a	n/a	n/a	n/a	n/a	n/a
408.8566	0.5333	FIXCROSS	n/a	n/a	n/a	n/a	n/a	n/a	n/a	n/a
409.3899	0.7333	COLOR_NAME	57	Neutral	żółty	yellow	Neutral	Neutral	hit	n/a
410.0849	n/a	RESPONSE	n/a	n/a	n/a	n/a	n/a	n/a	n/a	yellow
410.1233	1.0333	ITI	n/a	n/a	n/a	n/a	n/a	n/a	n/a	n/a
411.1566	0.5334	FIXCROSS	n/a	n/a	n/a	n/a	n/a	n/a	n/a	n/a
411.69	0.8	COLOR_NAME	58	Incongruent	żółty	yellow	czerwony	red	hit	n/a
412.4483	n/a	RESPONSE	n/a	n/a	n/a	n/a	n/a	n/a	n/a	yellow
412.49	1.0333	ITI	n/a	n/a	n/a	n/a	n/a	n/a	n/a	n/a
413.5233	0.5333	FIXCROSS	n/a	n/a	n/a	n/a	n/a	n/a	n/a	n/a
414.0567	0.7833	COLOR_NAME	59	Neutral	zielony	green	Neutral	Neutral	hit	n/a
414.796	n/a	RESPONSE	n/a	n/a	n/a	n/a	n/a	n/a	n/a	green
414.84	1.0334	ITI	n/a	n/a	n/a	n/a	n/a	n/a	n/a	n/a
415.8733	0.5333	FIXCROSS	n/a	n/a	n/a	n/a	n/a	n/a	n/a	n/a
416.4067	0.8	COLOR_NAME	60	Incongruent	czerwony	red	zielony	green	hit	n/a
417.1754	n/a	RESPONSE	n/a	n/a	n/a	n/a	n/a	n/a	n/a	red
417.2067	1.0333	ITI	n/a	n/a	n/a	n/a	n/a	n/a	n/a	n/a
418.24	0.5333	FIXCROSS	n/a	n/a	n/a	n/a	n/a	n/a	n/a	n/a
418.7734	0.7833	COLOR_NAME	61	Neutral	niebieski	blue	Neutral	Neutral	hit	n/a
419.523	n/a	RESPONSE	n/a	n/a	n/a	n/a	n/a	n/a	n/a	blue
419.5567	1.0333	ITI	n/a	n/a	n/a	n/a	n/a	n/a	n/a	n/a
420.5901	0.5333	FIXCROSS	n/a	n/a	n/a	n/a	n/a	n/a	n/a	n/a
421.1234	0.7667	COLOR_NAME	62	Neutral	żółty	yellow	Neutral	Neutral	hit	n/a
421.8546	n/a	RESPONSE	n/a	n/a	n/a	n/a	n/a	n/a	n/a	yellow
421.8901	1.0333	ITI	n/a	n/a	n/a	n/a	n/a	n/a	n/a	n/a
422.9234	0.5333	FIXCROSS	n/a	n/a	n/a	n/a	n/a	n/a	n/a	n/a
423.4568	1.05	COLOR_NAME	63	Incongruent	niebieski	blue	zielony	green	hit	n/a
424.4736	n/a	RESPONSE	n/a	n/a	n/a	n/a	n/a	n/a	n/a	blue
424.5068	1.0333	ITI	n/a	n/a	n/a	n/a	n/a	n/a	n/a	n/a
425.5401	0.5334	FIXCROSS	n/a	n/a	n/a	n/a	n/a	n/a	n/a	n/a
426.0735	1.2167	COLOR_NAME	64	Neutral	czerwony	red	Neutral	Neutral	hit	n/a
427.2523	n/a	RESPONSE	n/a	n/a	n/a	n/a	n/a	n/a	n/a	red
427.2901	1.0333	ITI	n/a	n/a	n/a	n/a	n/a	n/a	n/a	n/a
428.3235	0.5333	FIXCROSS	n/a	n/a	n/a	n/a	n/a	n/a	n/a	n/a
428.8568	0.8667	COLOR_NAME	65	Incongruent	żółty	yellow	zielony	green	hit	n/a
429.6798	n/a	RESPONSE	n/a	n/a	n/a	n/a	n/a	n/a	n/a	yellow
429.7235	1.0333	ITI	n/a	n/a	n/a	n/a	n/a	n/a	n/a	n/a
430.7569	0.5333	FIXCROSS	n/a	n/a	n/a	n/a	n/a	n/a	n/a	n/a
431.2902	0.9	COLOR_NAME	66	Incongruent	czerwony	red	żółty	yellow	hit	n/a
432.155	n/a	RESPONSE	n/a	n/a	n/a	n/a	n/a	n/a	n/a	red
432.1902	1.0333	ITI	n/a	n/a	n/a	n/a	n/a	n/a	n/a	n/a
433.2236	0.5333	FIXCROSS	n/a	n/a	n/a	n/a	n/a	n/a	n/a	n/a
433.7569	0.7333	COLOR_NAME	67	Neutral	czerwony	red	Neutral	Neutral	hit	n/a
434.4546	n/a	RESPONSE	n/a	n/a	n/a	n/a	n/a	n/a	n/a	red
434.4902	1.0334	ITI	n/a	n/a	n/a	n/a	n/a	n/a	n/a	n/a
435.5236	0.5333	FIXCROSS	n/a	n/a	n/a	n/a	n/a	n/a	n/a	n/a
436.0569	0.7833	COLOR_NAME	68	Incongruent	czerwony	red	niebieski	blue	hit	n/a
436.8021	n/a	RESPONSE	n/a	n/a	n/a	n/a	n/a	n/a	n/a	red
436.8403	1.0333	ITI	n/a	n/a	n/a	n/a	n/a	n/a	n/a	n/a
437.8736	0.5333	FIXCROSS	n/a	n/a	n/a	n/a	n/a	n/a	n/a	n/a
438.4069	0.6667	COLOR_NAME	69	Neutral	czerwony	red	Neutral	Neutral	hit	n/a
439.0378	n/a	RESPONSE	n/a	n/a	n/a	n/a	n/a	n/a	n/a	red
439.0736	1.0333	ITI	n/a	n/a	n/a	n/a	n/a	n/a	n/a	n/a
440.107	0.5333	FIXCROSS	n/a	n/a	n/a	n/a	n/a	n/a	n/a	n/a
440.6403	1.1334	COLOR_NAME	70	Incongruent	czerwony	red	niebieski	blue	hit	n/a
441.7367	n/a	RESPONSE	n/a	n/a	n/a	n/a	n/a	n/a	n/a	red
441.7737	1.0334	ITI	n/a	n/a	n/a	n/a	n/a	n/a	n/a	n/a
442.807	0.5333	FIXCROSS	n/a	n/a	n/a	n/a	n/a	n/a	n/a	n/a
443.3403	0.9667	COLOR_NAME	71	Incongruent	zielony	green	niebieski	blue	hit	n/a
444.2759	n/a	RESPONSE	n/a	n/a	n/a	n/a	n/a	n/a	n/a	green
444.307	1.0333	ITI	n/a	n/a	n/a	n/a	n/a	n/a	n/a	n/a
445.3404	0.5333	FIXCROSS	n/a	n/a	n/a	n/a	n/a	n/a	n/a	n/a
445.8737	0.8	COLOR_NAME	72	Incongruent	zielony	green	żółty	yellow	hit	n/a
446.6394	n/a	RESPONSE	n/a	n/a	n/a	n/a	n/a	n/a	n/a	green
446.6737	1.05	ITI	n/a	n/a	n/a	n/a	n/a	n/a	n/a	n/a
457.5946	n/a	RESPONSE	n/a	n/a	n/a	n/a	n/a	n/a	n/a	n/a
