onset	duration	trial_type	braille_stimulus	targets	response_count
2.014	2.008	CUE_REST	n/a	n/a	n/a
7.014	1.008	FIXCROSS	n/a	n/a	n/a
13.064	1.008	FIXCROSS	n/a	n/a	n/a
21.122	2.008	CUE_6_DOT	n/a	n/a	n/a
26.122	1.008	FIXCROSS	n/a	n/a	n/a
27.138	5.008	6_DOT_DETECTION	ALCSD	0	n/a
32.172	1.008	FIXCROSS	n/a	n/a	n/a
33.188	5.008	6_DOT_DETECTION	TBLTL	0	n/a
38.222	1.008	FIXCROSS	n/a	n/a	n/a
39.238	5.009	6_DOT_DETECTION	Ł#AUT	1	n/a
41.336	n/a	RESPONSE	n/a	n/a	1/1
44.272	1.008	FIXCROSS	n/a	n/a	n/a
45.288	5.009	6_DOT_DETECTION	T#BYŁ	1	n/a
47.08	n/a	RESPONSE	n/a	n/a	1/1
50.322	1.008	FIXCROSS	n/a	n/a	n/a
51.338	5.008	6_DOT_DETECTION	YUUIC	0	n/a
56.372	1.008	FIXCROSS	n/a	n/a	n/a
57.388	5.008	6_DOT_DETECTION	OLPDT	0	n/a
62.422	1.008	FIXCROSS	n/a	n/a	n/a
63.438	5.008	6_DOT_DETECTION	LUB#L	1	n/a
66.296	n/a	RESPONSE	n/a	n/a	1/1
68.472	1.008	FIXCROSS	n/a	n/a	n/a
69.488	5.008	6_DOT_DETECTION	##BUS	2	n/a
70.616	n/a	RESPONSE	n/a	n/a	1/2
76.03	2.008	CUE_REST	n/a	n/a	n/a
82.53	1.008	FIXCROSS	n/a	n/a	n/a
88.58	1.008	FIXCROSS	n/a	n/a	n/a
95.638	2.008	CUE_6_DOT	n/a	n/a	n/a
100.638	1.008	FIXCROSS	n/a	n/a	n/a
101.654	5.009	6_DOT_DETECTION	PLDYŁ	0	n/a
103.96	n/a	RESPONSE	n/a	n/a	1/0
106.688	1.008	FIXCROSS	n/a	n/a	n/a
107.705	5.008	6_DOT_DETECTION	EKDDK	0	n/a
112.738	1.008	FIXCROSS	n/a	n/a	n/a
113.755	5.009	6_DOT_DETECTION	BEL#A	1	n/a
116.76	n/a	RESPONSE	n/a	n/a	1/1
118.788	1.008	FIXCROSS	n/a	n/a	n/a
119.805	5.008	6_DOT_DETECTION	MYŁ##	2	n/a
122.776	n/a	RESPONSE	n/a	n/a	1/2
123.576	n/a	RESPONSE	n/a	n/a	2/2
124.838	1.008	FIXCROSS	n/a	n/a	n/a
125.855	5.009	6_DOT_DETECTION	#PSA#	2	n/a
127.12	n/a	RESPONSE	n/a	n/a	1/2
129.456	n/a	RESPONSE	n/a	n/a	2/2
130.888	1.008	FIXCROSS	n/a	n/a	n/a
131.905	5.008	6_DOT_DETECTION	LKCKY	0	n/a
135.576	n/a	RESPONSE	n/a	n/a	1/0
136.938	1.008	FIXCROSS	n/a	n/a	n/a
137.955	5.009	6_DOT_DETECTION	##TYK	2	n/a
139.296	n/a	RESPONSE	n/a	n/a	1/2
140.096	n/a	RESPONSE	n/a	n/a	2/2
142.988	1.008	FIXCROSS	n/a	n/a	n/a
144.005	5.008	6_DOT_DETECTION	L#MSY	1	n/a
145.496	n/a	RESPONSE	n/a	n/a	1/1
147.6	n/a	RESPONSE	n/a	n/a	2/1
150.547	2.008	CUE_REST	n/a	n/a	n/a
155.047	1.008	FIXCROSS	n/a	n/a	n/a
161.097	1.008	FIXCROSS	n/a	n/a	n/a
168.655	2.008	CUE_6_DOT	n/a	n/a	n/a
175.155	1.008	FIXCROSS	n/a	n/a	n/a
176.172	5.008	6_DOT_DETECTION	MEM##	2	n/a
179.336	n/a	RESPONSE	n/a	n/a	1/2
180.32	n/a	RESPONSE	n/a	n/a	2/2
181.205	1.008	FIXCROSS	n/a	n/a	n/a
182.222	5.008	6_DOT_DETECTION	##MAP	2	n/a
183.52	n/a	RESPONSE	n/a	n/a	1/2
184.256	n/a	RESPONSE	n/a	n/a	2/2
187.255	1.008	FIXCROSS	n/a	n/a	n/a
188.272	5.008	6_DOT_DETECTION	ETITU	0	n/a
193.305	1.008	FIXCROSS	n/a	n/a	n/a
194.321	5.009	6_DOT_DETECTION	BB#EU	1	n/a
197.136	n/a	RESPONSE	n/a	n/a	1/1
199.355	1.008	FIXCROSS	n/a	n/a	n/a
200.372	5.008	6_DOT_DETECTION	EASLS	0	n/a
205.405	1.008	FIXCROSS	n/a	n/a	n/a
206.422	5.008	6_DOT_DETECTION	#OKA#	2	n/a
207.8	n/a	RESPONSE	n/a	n/a	1/2
210.136	n/a	RESPONSE	n/a	n/a	2/2
211.455	1.008	FIXCROSS	n/a	n/a	n/a
212.472	5.008	6_DOT_DETECTION	##UDA	2	n/a
213.696	n/a	RESPONSE	n/a	n/a	1/2
214.96	n/a	RESPONSE	n/a	n/a	2/2
217.505	1.008	FIXCROSS	n/a	n/a	n/a
218.522	5.008	6_DOT_DETECTION	PTEIŁ	0	n/a
225.564	2.008	CUE_REST	n/a	n/a	n/a
229.564	1.008	FIXCROSS	n/a	n/a	n/a
235.614	1.008	FIXCROSS	n/a	n/a	n/a
243.672	2.008	CUE_6_DOT	n/a	n/a	n/a
249.672	1.008	FIXCROSS	n/a	n/a	n/a
250.688	5.009	6_DOT_DETECTION	UPU#I	1	n/a
253.536	n/a	RESPONSE	n/a	n/a	1/1
255.722	1.008	FIXCROSS	n/a	n/a	n/a
256.738	5.008	6_DOT_DETECTION	PIUCD	0	n/a
261.772	1.008	FIXCROSS	n/a	n/a	n/a
262.788	5.009	6_DOT_DETECTION	DIP##	2	n/a
265.616	n/a	RESPONSE	n/a	n/a	1/2
267.822	1.008	FIXCROSS	n/a	n/a	n/a
268.838	5.008	6_DOT_DETECTION	#EKS#	2	n/a
269.999	n/a	RESPONSE	n/a	n/a	1/2
272.199	n/a	RESPONSE	n/a	n/a	2/2
273.872	1.008	FIXCROSS	n/a	n/a	n/a
274.888	5.008	6_DOT_DETECTION	AOKEB	0	n/a
279.922	1.008	FIXCROSS	n/a	n/a	n/a
280.938	5.009	6_DOT_DETECTION	KC#UT	1	n/a
283.039	n/a	RESPONSE	n/a	n/a	1/1
285.972	1.008	FIXCROSS	n/a	n/a	n/a
286.988	5.008	6_DOT_DETECTION	#BCCL	1	n/a
288.135	n/a	RESPONSE	n/a	n/a	1/1
292.022	1.008	FIXCROSS	n/a	n/a	n/a
293.038	5.008	6_DOT_DETECTION	#LIS#	2	n/a
294.215	n/a	RESPONSE	n/a	n/a	1/2
296.535	n/a	RESPONSE	n/a	n/a	2/2
299.08	2.008	CUE_REST	n/a	n/a	n/a
305.08	1.008	FIXCROSS	n/a	n/a	n/a
311.13	1.008	FIXCROSS	n/a	n/a	n/a
318.688	2.008	CUE_6_DOT	n/a	n/a	n/a
324.188	1.008	FIXCROSS	n/a	n/a	n/a
325.205	5.008	6_DOT_DETECTION	UTIŁT	0	n/a
330.238	1.008	FIXCROSS	n/a	n/a	n/a
331.255	5.008	6_DOT_DETECTION	YBP#L	1	n/a
333.119	n/a	RESPONSE	n/a	n/a	1/1
335.479	n/a	RESPONSE	n/a	n/a	2/1
336.288	1.008	FIXCROSS	n/a	n/a	n/a
337.305	5.008	6_DOT_DETECTION	I#AE#	2	n/a
339.655	n/a	RESPONSE	n/a	n/a	1/2
342.279	n/a	RESPONSE	n/a	n/a	2/2
342.338	1.008	FIXCROSS	n/a	n/a	n/a
343.355	5.008	6_DOT_DETECTION	U#UDO	1	n/a
348.388	1.008	FIXCROSS	n/a	n/a	n/a
349.405	5.008	6_DOT_DETECTION	L#LAŁ	1	n/a
351.575	n/a	RESPONSE	n/a	n/a	1/1
354.438	1.008	FIXCROSS	n/a	n/a	n/a
355.455	5.008	6_DOT_DETECTION	SPA##	2	n/a
358.935	n/a	RESPONSE	n/a	n/a	1/2
360.488	1.008	FIXCROSS	n/a	n/a	n/a
361.505	5.008	6_DOT_DETECTION	#YUPA	1	n/a
363.079	n/a	RESPONSE	n/a	n/a	1/1
366.538	1.008	FIXCROSS	n/a	n/a	n/a
367.555	5.008	6_DOT_DETECTION	Y#ŁYK	1	n/a
368.871	n/a	RESPONSE	n/a	n/a	1/1
369.855	n/a	RESPONSE	n/a	n/a	2/1
373.597	2.008	CUE_REST	n/a	n/a	n/a
380.597	1.008	FIXCROSS	n/a	n/a	n/a
386.647	1.008	FIXCROSS	n/a	n/a	n/a
393.705	2.008	CUE_6_DOT	n/a	n/a	n/a
398.705	1.008	FIXCROSS	n/a	n/a	n/a
399.722	5.008	6_DOT_DETECTION	DKALL	0	n/a
404.755	1.008	FIXCROSS	n/a	n/a	n/a
405.772	5.008	6_DOT_DETECTION	#KAS#	2	n/a
406.911	n/a	RESPONSE	n/a	n/a	1/2
409.415	n/a	RESPONSE	n/a	n/a	2/2
410.805	1.008	FIXCROSS	n/a	n/a	n/a
411.822	5.008	6_DOT_DETECTION	KTO#D	1	n/a
414.471	n/a	RESPONSE	n/a	n/a	1/1
416.855	1.008	FIXCROSS	n/a	n/a	n/a
417.872	5.008	6_DOT_DETECTION	##DAM	2	n/a
418.775	n/a	RESPONSE	n/a	n/a	1/2
419.751	n/a	RESPONSE	n/a	n/a	2/2
422.905	1.008	FIXCROSS	n/a	n/a	n/a
423.921	5.009	6_DOT_DETECTION	SYMTI	0	n/a
428.955	1.008	FIXCROSS	n/a	n/a	n/a
429.972	5.008	6_DOT_DETECTION	MUŁ##	2	n/a
433.231	n/a	RESPONSE	n/a	n/a	1/2
435.005	1.008	FIXCROSS	n/a	n/a	n/a
436.022	5.008	6_DOT_DETECTION	KSSŁK	0	n/a
441.055	1.008	FIXCROSS	n/a	n/a	n/a
442.072	5.008	6_DOT_DETECTION	BUŁ#I	1	n/a
444.471	n/a	RESPONSE	n/a	n/a	1/1
