onset	duration	trial_type	melody_number	melody_part	key	sound	action
0.0	14.086	CUE_START	n/a	n/a	n/a	n/a	n/a
14.087	7.759	FIXCROSS	n/a	n/a	n/a	n/a	n/a
21.846	6.316	CUE_LISTEN	M3	1	n/a	n/a	n/a
28.162	7.758	FIXCROSS	n/a	n/a	n/a	n/a	n/a
35.92	6.325	CUE_PLAYBACK_BOTH_HANDS	M3	1	n/a	n/a	n/a
37.494	n/a	RESPONSE	M3	1	00	C3	press
37.529	n/a	RESPONSE	M3	1	12	C4	press
38.026	n/a	RESPONSE	M3	1	07	G3	press
38.073	n/a	RESPONSE	M3	1	14	D4	press
38.22	n/a	RESPONSE	M3	1	00	C3	release
38.266	n/a	RESPONSE	M3	1	12	C4	release
38.632	n/a	RESPONSE	M3	1	04	E3	press
38.634	n/a	RESPONSE	M3	1	16	E4	press
38.758	n/a	RESPONSE	M3	1	14	D4	release
38.77	n/a	RESPONSE	M3	1	07	G3	release
39.188	n/a	RESPONSE	M3	1	07	G3	press
39.213	n/a	RESPONSE	M3	1	12	C4	press
39.405	n/a	RESPONSE	M3	1	16	E4	release
39.495	n/a	RESPONSE	M3	1	04	E3	release
39.586	n/a	RESPONSE	M3	1	12	C4	release
39.693	n/a	RESPONSE	M3	1	07	G3	release
39.818	n/a	RESPONSE	M3	1	00	C3	press
39.892	n/a	RESPONSE	M3	1	12	C4	press
40.456	n/a	RESPONSE	M3	1	07	G3	press
40.493	n/a	RESPONSE	M3	1	14	D4	press
40.583	n/a	RESPONSE	M3	1	00	C3	release
40.636	n/a	RESPONSE	M3	1	12	C4	release
41.023	n/a	RESPONSE	M3	1	04	E3	press
41.059	n/a	RESPONSE	M3	1	16	E4	press
41.15	n/a	RESPONSE	M3	1	07	G3	release
41.168	n/a	RESPONSE	M3	1	14	D4	release
41.675	n/a	RESPONSE	M3	1	07	G3	press
41.694	n/a	RESPONSE	M3	1	12	C4	press
41.889	n/a	RESPONSE	M3	1	16	E4	release
41.995	n/a	RESPONSE	M3	1	04	E3	release
42.245	7.758	FIXCROSS	n/a	n/a	n/a	n/a	n/a
42.364	n/a	RESPONSE	M3	1	07	G3	release
42.418	n/a	RESPONSE	M3	1	12	C4	release
50.004	6.317	CUE_LISTEN	M3	2	n/a	n/a	n/a
56.32	7.758	FIXCROSS	n/a	n/a	n/a	n/a	n/a
64.079	6.317	CUE_PLAYBACK_BOTH_HANDS	M3	2	n/a	n/a	n/a
64.915	n/a	RESPONSE	M3	2	00	C3	press
64.934	n/a	RESPONSE	M3	2	16	E4	press
65.443	n/a	RESPONSE	M3	2	17	F4	press
65.445	n/a	RESPONSE	M3	2	07	G3	press
65.55	n/a	RESPONSE	M3	2	00	C3	release
65.569	n/a	RESPONSE	M3	2	16	E4	release
65.986	n/a	RESPONSE	M3	2	19	G4	press
65.989	n/a	RESPONSE	M3	2	04	E3	press
66.102	n/a	RESPONSE	M3	2	17	F4	release
66.104	n/a	RESPONSE	M3	2	07	G3	release
66.512	n/a	RESPONSE	M3	2	07	G3	press
66.638	n/a	RESPONSE	M3	2	04	E3	release
67.098	n/a	RESPONSE	M3	2	00	C3	press
67.11	n/a	RESPONSE	M3	2	16	E4	press
67.145	n/a	RESPONSE	M3	2	19	G4	release
67.225	n/a	RESPONSE	M3	2	07	G3	release
67.654	n/a	RESPONSE	M3	2	17	F4	press
67.666	n/a	RESPONSE	M3	2	07	G3	press
67.746	n/a	RESPONSE	M3	2	16	E4	release
67.749	n/a	RESPONSE	M3	2	00	C3	release
68.223	n/a	RESPONSE	M3	2	04	E3	press
68.235	n/a	RESPONSE	M3	2	19	G4	press
68.326	n/a	RESPONSE	M3	2	07	G3	release
68.362	n/a	RESPONSE	M3	2	17	F4	release
68.906	n/a	RESPONSE	M3	2	07	G3	press
69.099	n/a	RESPONSE	M3	2	04	E3	release
69.336	n/a	RESPONSE	M3	2	19	G4	release
69.785	n/a	RESPONSE	M3	2	07	G3	release
70.395	7.758	FIXCROSS	n/a	n/a	n/a	n/a	n/a
78.154	6.317	CUE_LISTEN	M3	1	n/a	n/a	n/a
84.47	7.758	FIXCROSS	n/a	n/a	n/a	n/a	n/a
92.229	6.325	CUE_PLAYBACK_BOTH_HANDS	M3	1	n/a	n/a	n/a
93.939	n/a	RESPONSE	M3	1	00	C3	press
93.943	n/a	RESPONSE	M3	1	19	G4	press
94.239	n/a	RESPONSE	M3	1	21	A4	press
94.38	n/a	RESPONSE	M3	1	19	G4	release
95.033	n/a	RESPONSE	M3	1	19	G4	press
95.052	n/a	RESPONSE	M3	1	07	G3	press
95.088	n/a	RESPONSE	M3	1	21	A4	release
95.352	n/a	RESPONSE	M3	1	00	C3	release
95.354	n/a	RESPONSE	M3	1	17	F4	press
95.512	n/a	RESPONSE	M3	1	19	G4	release
95.97	n/a	RESPONSE	M3	1	04	E3	press
96.175	n/a	RESPONSE	M3	1	16	E4	press
96.265	n/a	RESPONSE	M3	1	17	F4	release
96.334	n/a	RESPONSE	M3	1	07	G3	release
97.27	n/a	RESPONSE	M3	1	07	G3	press
97.273	n/a	RESPONSE	M3	1	12	C4	press
97.329	n/a	RESPONSE	M3	1	04	E3	release
97.342	n/a	RESPONSE	M3	1	16	E4	release
98.12	n/a	RESPONSE	M3	1	12	C4	release
98.554	7.758	FIXCROSS	n/a	n/a	n/a	n/a	n/a
98.879	n/a	RESPONSE	M3	1	00	C3	press
98.925	n/a	RESPONSE	M3	1	19	G4	press
98.96	n/a	RESPONSE	M3	1	07	G3	release
99.119	n/a	RESPONSE	M3	1	19	G4	release
99.988	n/a	RESPONSE	M3	1	00	C3	release
106.312	6.325	CUE_LISTEN	M3	2	n/a	n/a	n/a
112.637	7.758	FIXCROSS	n/a	n/a	n/a	n/a	n/a
120.395	6.308	CUE_PLAYBACK_BOTH_HANDS	M3	2	n/a	n/a	n/a
121.212	n/a	RESPONSE	M3	2	00	C3	press
121.229	n/a	RESPONSE	M3	2	12	C4	press
121.736	n/a	RESPONSE	M3	2	07	G3	press
121.932	n/a	RESPONSE	M3	2	12	C4	release
122.458	n/a	RESPONSE	M3	2	00	C3	release
122.462	n/a	RESPONSE	M3	2	07	G3	release
122.534	n/a	RESPONSE	M3	2	00	C3	press
122.568	n/a	RESPONSE	M3	2	12	C4	press
123.199	n/a	RESPONSE	M3	2	12	C4	release
123.288	n/a	RESPONSE	M3	2	00	C3	release
123.59	n/a	RESPONSE	M3	2	00	C3	press
123.625	n/a	RESPONSE	M3	2	12	C4	press
124.205	n/a	RESPONSE	M3	2	07	G3	press
124.364	n/a	RESPONSE	M3	2	12	C4	release
124.716	n/a	RESPONSE	M3	2	07	G3	release
124.77	n/a	RESPONSE	M3	2	00	C3	release
124.896	n/a	RESPONSE	M3	2	00	C3	press
124.899	n/a	RESPONSE	M3	2	12	C4	press
125.652	n/a	RESPONSE	M3	2	12	C4	release
125.74	n/a	RESPONSE	M3	2	00	C3	release
126.704	7.758	FIXCROSS	n/a	n/a	n/a	n/a	n/a
134.462	6.325	CUE_LISTEN	M1	1	n/a	n/a	n/a
140.787	7.758	FIXCROSS	n/a	n/a	n/a	n/a	n/a
148.545	6.317	CUE_PLAYBACK_BOTH_HANDS	M1	1	n/a	n/a	n/a
150.398	n/a	RESPONSE	M1	1	19	G4	press
150.4	n/a	RESPONSE	M1	1	00	C3	press
150.418	n/a	RESPONSE	M1	1	07	G3	press
150.42	n/a	RESPONSE	M1	1	04	E3	press
150.946	n/a	RESPONSE	M1	1	16	E4	press
150.983	n/a	RESPONSE	M1	1	14	D4	press
150.985	n/a	RESPONSE	M1	1	19	G4	release
151.108	n/a	RESPONSE	M1	1	14	D4	release
151.214	n/a	RESPONSE	M1	1	16	E4	release
151.46	n/a	RESPONSE	M1	1	16	E4	press
151.794	n/a	RESPONSE	M1	1	16	E4	release
151.902	n/a	RESPONSE	M1	1	04	E3	release
151.92	n/a	RESPONSE	M1	1	00	C3	release
152.097	n/a	RESPONSE	M1	1	17	F4	press
152.115	n/a	RESPONSE	M1	1	05	F3	press
152.152	n/a	RESPONSE	M1	1	02	D3	press
152.626	n/a	RESPONSE	M1	1	14	D4	press
152.733	n/a	RESPONSE	M1	1	17	F4	release
152.892	n/a	RESPONSE	M1	1	14	D4	release
153.208	n/a	RESPONSE	M1	1	14	D4	press
153.419	n/a	RESPONSE	M1	1	02	D3	release
153.422	n/a	RESPONSE	M1	1	05	F3	release
153.545	n/a	RESPONSE	M1	1	07	G3	release
153.952	n/a	RESPONSE	M1	1	07	G3	press
153.954	n/a	RESPONSE	M1	1	00	C3	press
153.956	n/a	RESPONSE	M1	1	12	C4	press
153.973	n/a	RESPONSE	M1	1	02	D3	press
154.096	n/a	RESPONSE	M1	1	14	D4	release
154.29	n/a	RESPONSE	M1	1	16	E4	press
154.538	n/a	RESPONSE	M1	1	12	C4	release
154.612	n/a	RESPONSE	M1	1	19	G4	press
154.803	n/a	RESPONSE	M1	1	16	E4	release
154.862	7.758	FIXCROSS	n/a	n/a	n/a	n/a	n/a
155.594	n/a	RESPONSE	M1	1	02	D3	release
155.613	n/a	RESPONSE	M1	1	19	G4	release
155.684	n/a	RESPONSE	M1	1	00	C3	release
155.686	n/a	RESPONSE	M1	1	07	G3	release
162.62	6.325	CUE_LISTEN	M1	2	n/a	n/a	n/a
167.054	n/a	RESPONSE	M1	2	04	E3	press
168.945	7.758	FIXCROSS	n/a	n/a	n/a	n/a	n/a
173.112	n/a	RESPONSE	M1	2	04	E3	release
176.704	6.317	CUE_PLAYBACK_BOTH_HANDS	M1	2	n/a	n/a	n/a
177.486	n/a	RESPONSE	M1	2	04	E3	press
177.533	n/a	RESPONSE	M1	2	19	G4	press
177.545	n/a	RESPONSE	M1	2	07	G3	press
177.558	n/a	RESPONSE	M1	2	00	C3	press
178.114	n/a	RESPONSE	M1	2	16	E4	press
178.203	n/a	RESPONSE	M1	2	19	G4	release
178.364	n/a	RESPONSE	M1	2	16	E4	release
178.648	n/a	RESPONSE	M1	2	16	E4	press
178.808	n/a	RESPONSE	M1	2	00	C3	release
178.934	n/a	RESPONSE	M1	2	04	E3	release
179.172	n/a	RESPONSE	M1	2	17	F4	press
179.182	n/a	RESPONSE	M1	2	02	D3	press
179.184	n/a	RESPONSE	M1	2	05	F3	press
179.263	n/a	RESPONSE	M1	2	16	E4	release
179.685	n/a	RESPONSE	M1	2	14	D4	press
179.755	n/a	RESPONSE	M1	2	17	F4	release
179.953	n/a	RESPONSE	M1	2	14	D4	release
180.238	n/a	RESPONSE	M1	2	14	D4	press
180.432	n/a	RESPONSE	M1	2	05	F3	release
180.505	n/a	RESPONSE	M1	2	07	G3	release
180.54	n/a	RESPONSE	M1	2	02	D3	release
180.769	n/a	RESPONSE	M1	2	04	E3	press
180.805	n/a	RESPONSE	M1	2	07	G3	press
180.824	n/a	RESPONSE	M1	2	00	C3	press
180.895	n/a	RESPONSE	M1	2	12	C4	press
181.264	n/a	RESPONSE	M1	2	16	E4	press
181.318	n/a	RESPONSE	M1	2	14	D4	release
181.372	n/a	RESPONSE	M1	2	12	C4	release
181.67	n/a	RESPONSE	M1	2	12	C4	press
181.776	n/a	RESPONSE	M1	2	16	E4	release
182.638	n/a	RESPONSE	M1	2	12	C4	release
182.64	n/a	RESPONSE	M1	2	00	C3	release
182.798	n/a	RESPONSE	M1	2	04	E3	release
182.834	n/a	RESPONSE	M1	2	07	G3	release
183.02	7.758	FIXCROSS	n/a	n/a	n/a	n/a	n/a
190.779	6.317	CUE_LISTEN	M2	1	n/a	n/a	n/a
197.096	7.758	FIXCROSS	n/a	n/a	n/a	n/a	n/a
204.854	6.325	CUE_PLAYBACK_BOTH_HANDS	M2	1	n/a	n/a	n/a
205.669	n/a	RESPONSE	M2	1	00	C3	press
205.672	n/a	RESPONSE	M2	1	24	C5	press
205.689	n/a	RESPONSE	M2	1	07	G3	press
206.099	n/a	RESPONSE	M2	1	19	G4	press
206.3	n/a	RESPONSE	M2	1	24	C5	release
206.38	n/a	RESPONSE	M2	1	19	G4	release
206.383	n/a	RESPONSE	M2	1	00	C3	release
206.575	n/a	RESPONSE	M2	1	00	C3	press
206.588	n/a	RESPONSE	M2	1	19	G4	press
206.973	n/a	RESPONSE	M2	1	17	F4	press
207.088	n/a	RESPONSE	M2	1	00	C3	release
207.1	n/a	RESPONSE	M2	1	19	G4	release
207.392	n/a	RESPONSE	M2	1	16	E4	press
207.394	n/a	RESPONSE	M2	1	00	C3	press
207.563	n/a	RESPONSE	M2	1	17	F4	release
207.766	n/a	RESPONSE	M2	1	17	F4	press
207.872	n/a	RESPONSE	M2	1	16	E4	release
207.928	n/a	RESPONSE	M2	1	00	C3	release
207.996	n/a	RESPONSE	M2	1	07	G3	release
208.166	n/a	RESPONSE	M2	1	00	C3	press
208.169	n/a	RESPONSE	M2	1	19	G4	press
208.172	n/a	RESPONSE	M2	1	07	G3	press
208.329	n/a	RESPONSE	M2	1	17	F4	release
208.839	n/a	RESPONSE	M2	1	19	G4	release
209.705	n/a	RESPONSE	M2	1	00	C3	release
209.812	n/a	RESPONSE	M2	1	07	G3	release
211.179	7.758	FIXCROSS	n/a	n/a	n/a	n/a	n/a
218.937	6.317	CUE_LISTEN	M2	2	n/a	n/a	n/a
225.254	7.758	FIXCROSS	n/a	n/a	n/a	n/a	n/a
233.012	6.317	CUE_PLAYBACK_BOTH_HANDS	M2	2	n/a	n/a	n/a
233.728	n/a	RESPONSE	M2	2	00	C3	press
233.73	n/a	RESPONSE	M2	2	07	G3	press
233.746	n/a	RESPONSE	M2	2	24	C5	press
234.204	n/a	RESPONSE	M2	2	19	G4	press
234.398	n/a	RESPONSE	M2	2	00	C3	release
234.434	n/a	RESPONSE	M2	2	24	C5	release
234.47	n/a	RESPONSE	M2	2	19	G4	release
234.524	n/a	RESPONSE	M2	2	07	G3	release
234.65	n/a	RESPONSE	M2	2	07	G3	press
234.668	n/a	RESPONSE	M2	2	00	C3	press
234.686	n/a	RESPONSE	M2	2	19	G4	press
235.11	n/a	RESPONSE	M2	2	17	F4	press
235.113	n/a	RESPONSE	M2	2	00	C3	release
235.202	n/a	RESPONSE	M2	2	07	G3	release
235.219	n/a	RESPONSE	M2	2	19	G4	release
235.588	n/a	RESPONSE	M2	2	00	C3	press
235.59	n/a	RESPONSE	M2	2	07	G3	press
235.608	n/a	RESPONSE	M2	2	16	E4	press
235.626	n/a	RESPONSE	M2	2	14	D4	press
235.823	n/a	RESPONSE	M2	2	17	F4	release
235.875	n/a	RESPONSE	M2	2	14	D4	release
236.136	n/a	RESPONSE	M2	2	14	D4	press
236.295	n/a	RESPONSE	M2	2	16	E4	release
236.386	n/a	RESPONSE	M2	2	00	C3	release
236.592	n/a	RESPONSE	M2	2	00	C3	press
236.64	n/a	RESPONSE	M2	2	12	C4	press
237.112	n/a	RESPONSE	M2	2	14	D4	release
237.194	n/a	RESPONSE	M2	2	00	C3	release
237.283	n/a	RESPONSE	M2	2	12	C4	release
237.532	n/a	RESPONSE	M2	2	07	G3	release
239.329	7.758	FIXCROSS	n/a	n/a	n/a	n/a	n/a
247.087	6.325	CUE_LISTEN	M2	1	n/a	n/a	n/a
253.412	7.758	FIXCROSS	n/a	n/a	n/a	n/a	n/a
261.171	6.317	CUE_PLAYBACK_BOTH_HANDS	M2	1	n/a	n/a	n/a
261.759	n/a	RESPONSE	M2	1	07	G3	press
261.762	n/a	RESPONSE	M2	1	00	C3	press
261.796	n/a	RESPONSE	M2	1	14	D4	press
262.219	n/a	RESPONSE	M2	1	16	E4	press
262.413	n/a	RESPONSE	M2	1	14	D4	release
262.449	n/a	RESPONSE	M2	1	00	C3	release
262.679	n/a	RESPONSE	M2	1	00	C3	press
262.698	n/a	RESPONSE	M2	1	17	F4	press
262.823	n/a	RESPONSE	M2	1	16	E4	release
263.138	n/a	RESPONSE	M2	1	16	E4	press
263.209	n/a	RESPONSE	M2	1	17	F4	release
263.228	n/a	RESPONSE	M2	1	00	C3	release
263.548	n/a	RESPONSE	M2	1	00	C3	press
263.55	n/a	RESPONSE	M2	1	17	F4	press
263.672	n/a	RESPONSE	M2	1	16	E4	release
263.972	n/a	RESPONSE	M2	1	19	G4	press
264.095	n/a	RESPONSE	M2	1	17	F4	release
264.114	n/a	RESPONSE	M2	1	00	C3	release
264.395	n/a	RESPONSE	M2	1	00	C3	press
264.398	n/a	RESPONSE	M2	1	21	A4	press
264.542	n/a	RESPONSE	M2	1	19	G4	release
265.085	n/a	RESPONSE	M2	1	21	A4	release
265.419	n/a	RESPONSE	M2	1	00	C3	release
267.487	7.758	FIXCROSS	n/a	n/a	n/a	n/a	n/a
275.246	6.317	CUE_LISTEN	M2	2	n/a	n/a	n/a
281.562	7.758	FIXCROSS	n/a	n/a	n/a	n/a	n/a
284.774	n/a	RESPONSE	M2	2	07	G3	release
289.321	6.325	CUE_PLAYBACK_BOTH_HANDS	M2	2	n/a	n/a	n/a
290.059	n/a	RESPONSE	M2	2	07	G3	press
290.078	n/a	RESPONSE	M2	2	16	E4	press
290.08	n/a	RESPONSE	M2	2	00	C3	press
290.522	n/a	RESPONSE	M2	2	19	G4	press
290.699	n/a	RESPONSE	M2	2	16	E4	release
290.805	n/a	RESPONSE	M2	2	00	C3	release
290.824	n/a	RESPONSE	M2	2	19	G4	release
290.895	n/a	RESPONSE	M2	2	07	G3	release
291.036	n/a	RESPONSE	M2	2	19	G4	press
291.039	n/a	RESPONSE	M2	2	07	G3	press
291.042	n/a	RESPONSE	M2	2	00	C3	press
291.46	n/a	RESPONSE	M2	2	17	F4	press
291.566	n/a	RESPONSE	M2	2	19	G4	release
291.585	n/a	RESPONSE	M2	2	00	C3	release
291.622	n/a	RESPONSE	M2	2	07	G3	release
291.904	n/a	RESPONSE	M2	2	07	G3	press
291.906	n/a	RESPONSE	M2	2	00	C3	press
291.909	n/a	RESPONSE	M2	2	16	E4	press
291.995	n/a	RESPONSE	M2	2	17	F4	release
292.346	n/a	RESPONSE	M2	2	00	C3	release
292.383	n/a	RESPONSE	M2	2	14	D4	press
292.436	n/a	RESPONSE	M2	2	07	G3	release
292.473	n/a	RESPONSE	M2	2	16	E4	release
292.983	n/a	RESPONSE	M2	2	07	G3	press
292.985	n/a	RESPONSE	M2	2	12	C4	press
293.003	n/a	RESPONSE	M2	2	00	C3	press
293.529	n/a	RESPONSE	M2	2	14	D4	release
294.006	n/a	RESPONSE	M2	2	12	C4	release
294.148	n/a	RESPONSE	M2	2	00	C3	release
294.815	n/a	RESPONSE	M2	2	07	G3	release
295.646	7.758	FIXCROSS	n/a	n/a	n/a	n/a	n/a
303.404	6.317	CUE_LISTEN	M3	1	n/a	n/a	n/a
309.721	7.758	FIXCROSS	n/a	n/a	n/a	n/a	n/a
317.479	6.317	CUE_PLAYBACK_RIGHT_HAND	M3	1	n/a	n/a	n/a
318.312	n/a	RESPONSE	M3	1	12	C4	press
318.859	n/a	RESPONSE	M3	1	14	D4	press
318.97	n/a	RESPONSE	M3	1	12	C4	release
319.422	n/a	RESPONSE	M3	1	16	E4	press
319.546	n/a	RESPONSE	M3	1	14	D4	release
320.005	n/a	RESPONSE	M3	1	12	C4	press
320.185	n/a	RESPONSE	M3	1	16	E4	release
320.312	n/a	RESPONSE	M3	1	12	C4	release
320.574	n/a	RESPONSE	M3	1	12	C4	press
321.153	n/a	RESPONSE	M3	1	14	D4	press
321.276	n/a	RESPONSE	M3	1	12	C4	release
321.68	n/a	RESPONSE	M3	1	16	E4	press
321.84	n/a	RESPONSE	M3	1	14	D4	release
322.262	n/a	RESPONSE	M3	1	12	C4	press
322.403	n/a	RESPONSE	M3	1	16	E4	release
322.878	n/a	RESPONSE	M3	1	12	C4	release
323.796	7.758	FIXCROSS	n/a	n/a	n/a	n/a	n/a
331.554	6.325	CUE_LISTEN	M3	2	n/a	n/a	n/a
337.879	7.758	FIXCROSS	n/a	n/a	n/a	n/a	n/a
345.638	6.317	CUE_PLAYBACK_RIGHT_HAND	M3	2	n/a	n/a	n/a
346.373	n/a	RESPONSE	M3	2	16	E4	press
346.86	n/a	RESPONSE	M3	2	17	F4	press
346.973	n/a	RESPONSE	M3	2	16	E4	release
347.413	n/a	RESPONSE	M3	2	19	G4	press
347.538	n/a	RESPONSE	M3	2	17	F4	release
348.083	n/a	RESPONSE	M3	2	19	G4	release
348.375	n/a	RESPONSE	M3	2	16	E4	press
348.843	n/a	RESPONSE	M3	2	17	F4	press
348.922	n/a	RESPONSE	M3	2	16	E4	release
349.35	n/a	RESPONSE	M3	2	19	G4	press
349.454	n/a	RESPONSE	M3	2	17	F4	release
350.083	n/a	RESPONSE	M3	2	19	G4	release
351.954	7.758	FIXCROSS	n/a	n/a	n/a	n/a	n/a
359.712	6.325	CUE_LISTEN	M3	1	n/a	n/a	n/a
366.037	7.759	FIXCROSS	n/a	n/a	n/a	n/a	n/a
373.796	6.317	CUE_PLAYBACK_RIGHT_HAND	M3	1	n/a	n/a	n/a
374.432	n/a	RESPONSE	M3	1	19	G4	press
374.714	n/a	RESPONSE	M3	1	21	A4	press
374.769	n/a	RESPONSE	M3	1	19	G4	release
375.018	n/a	RESPONSE	M3	1	19	G4	press
375.123	n/a	RESPONSE	M3	1	21	A4	release
375.352	n/a	RESPONSE	M3	1	17	F4	press
375.545	n/a	RESPONSE	M3	1	19	G4	release
375.704	n/a	RESPONSE	M3	1	16	E4	press
375.864	n/a	RESPONSE	M3	1	17	F4	release
376.344	n/a	RESPONSE	M3	1	12	C4	press
376.513	n/a	RESPONSE	M3	1	16	E4	release
376.809	n/a	RESPONSE	M3	1	12	C4	release
376.955	n/a	RESPONSE	M3	1	19	G4	press
377.238	n/a	RESPONSE	M3	1	21	A4	press
377.306	n/a	RESPONSE	M3	1	19	G4	release
377.544	n/a	RESPONSE	M3	1	19	G4	press
377.669	n/a	RESPONSE	M3	1	21	A4	release
377.852	n/a	RESPONSE	M3	1	17	F4	press
378.145	n/a	RESPONSE	M3	1	19	G4	release
378.158	n/a	RESPONSE	M3	1	16	E4	press
378.406	n/a	RESPONSE	M3	1	17	F4	release
378.76	n/a	RESPONSE	M3	1	12	C4	press
378.93	n/a	RESPONSE	M3	1	16	E4	release
379.724	n/a	RESPONSE	M3	1	12	C4	release
380.112	7.758	FIXCROSS	n/a	n/a	n/a	n/a	n/a
387.871	6.317	CUE_LISTEN	M3	2	n/a	n/a	n/a
394.188	7.758	FIXCROSS	n/a	n/a	n/a	n/a	n/a
401.946	6.325	CUE_PLAYBACK_RIGHT_HAND	M3	2	n/a	n/a	n/a
402.594	n/a	RESPONSE	M3	2	12	C4	press
403.085	n/a	RESPONSE	M3	2	07	G3	press
403.228	n/a	RESPONSE	M3	2	12	C4	release
403.582	n/a	RESPONSE	M3	2	12	C4	press
403.739	n/a	RESPONSE	M3	2	07	G3	release
404.459	n/a	RESPONSE	M3	2	12	C4	release
404.776	n/a	RESPONSE	M3	2	12	C4	press
405.323	n/a	RESPONSE	M3	2	07	G3	press
405.465	n/a	RESPONSE	M3	2	12	C4	release
405.816	n/a	RESPONSE	M3	2	12	C4	press
405.905	n/a	RESPONSE	M3	2	07	G3	release
406.665	n/a	RESPONSE	M3	2	12	C4	release
408.271	7.758	FIXCROSS	n/a	n/a	n/a	n/a	n/a
416.029	6.317	CUE_LISTEN	M1	1	n/a	n/a	n/a
422.346	7.758	FIXCROSS	n/a	n/a	n/a	n/a	n/a
430.104	6.317	CUE_PLAYBACK_RIGHT_HAND	M1	1	n/a	n/a	n/a
430.933	n/a	RESPONSE	M1	1	19	G4	press
431.549	n/a	RESPONSE	M1	1	16	E4	press
431.723	n/a	RESPONSE	M1	1	19	G4	release
431.83	n/a	RESPONSE	M1	1	16	E4	release
432.112	n/a	RESPONSE	M1	1	16	E4	press
432.656	n/a	RESPONSE	M1	1	17	F4	press
432.728	n/a	RESPONSE	M1	1	16	E4	release
433.236	n/a	RESPONSE	M1	1	14	D4	press
433.343	n/a	RESPONSE	M1	1	17	F4	release
433.538	n/a	RESPONSE	M1	1	14	D4	release
433.823	n/a	RESPONSE	M1	1	14	D4	press
434.418	n/a	RESPONSE	M1	1	12	C4	press
434.524	n/a	RESPONSE	M1	1	14	D4	release
434.755	n/a	RESPONSE	M1	1	16	E4	press
434.863	n/a	RESPONSE	M1	1	12	C4	release
435.126	n/a	RESPONSE	M1	1	19	G4	press
435.373	n/a	RESPONSE	M1	1	16	E4	release
436.213	n/a	RESPONSE	M1	1	19	G4	release
436.421	7.758	FIXCROSS	n/a	n/a	n/a	n/a	n/a
444.179	6.325	CUE_LISTEN	M1	2	n/a	n/a	n/a
450.504	7.758	FIXCROSS	n/a	n/a	n/a	n/a	n/a
458.263	6.317	CUE_PLAYBACK_RIGHT_HAND	M1	2	n/a	n/a	n/a
458.968	n/a	RESPONSE	M1	2	19	G4	press
459.453	n/a	RESPONSE	M1	2	16	E4	press
459.499	n/a	RESPONSE	M1	2	19	G4	release
459.772	n/a	RESPONSE	M1	2	16	E4	release
460.004	n/a	RESPONSE	M1	2	16	E4	press
460.482	n/a	RESPONSE	M1	2	17	F4	press
460.589	n/a	RESPONSE	M1	2	16	E4	release
461.01	n/a	RESPONSE	M1	2	14	D4	press
461.116	n/a	RESPONSE	M1	2	17	F4	release
461.31	n/a	RESPONSE	M1	2	14	D4	release
461.556	n/a	RESPONSE	M1	2	14	D4	press
462.278	n/a	RESPONSE	M1	2	14	D4	release
462.63	n/a	RESPONSE	M1	2	16	E4	press
462.719	n/a	RESPONSE	M1	2	12	C4	release
463.053	n/a	RESPONSE	M1	2	12	C4	press
463.194	n/a	RESPONSE	M1	2	16	E4	release
464.042	n/a	RESPONSE	M1	2	12	C4	release
464.579	7.758	FIXCROSS	n/a	n/a	n/a	n/a	n/a
472.338	6.317	CUE_LISTEN	M2	1	n/a	n/a	n/a
478.654	7.758	FIXCROSS	n/a	n/a	n/a	n/a	n/a
486.413	6.325	CUE_PLAYBACK_BOTH_HANDS	M2	1	n/a	n/a	n/a
487.028	n/a	RESPONSE	M2	1	24	C5	press
487.738	n/a	RESPONSE	M2	1	24	C5	release
488.565	n/a	RESPONSE	M2	1	24	C5	press
488.929	n/a	RESPONSE	M2	1	19	G4	press
489.119	n/a	RESPONSE	M2	1	24	C5	release
489.2	n/a	RESPONSE	M2	1	19	G4	release
489.404	n/a	RESPONSE	M2	1	19	G4	press
489.812	n/a	RESPONSE	M2	1	17	F4	press
489.886	n/a	RESPONSE	M2	1	19	G4	release
490.278	n/a	RESPONSE	M2	1	16	E4	press
490.418	n/a	RESPONSE	M2	1	17	F4	release
490.735	n/a	RESPONSE	M2	1	17	F4	press
490.842	n/a	RESPONSE	M2	1	16	E4	release
491.28	n/a	RESPONSE	M2	1	19	G4	press
491.684	n/a	RESPONSE	M2	1	17	F4	release
491.808	n/a	RESPONSE	M2	1	19	G4	release
492.738	7.758	FIXCROSS	n/a	n/a	n/a	n/a	n/a
500.496	6.317	CUE_LISTEN	M2	2	n/a	n/a	n/a
506.813	7.758	FIXCROSS	n/a	n/a	n/a	n/a	n/a
514.571	6.317	CUE_PLAYBACK_BOTH_HANDS	M2	2	n/a	n/a	n/a
515.098	n/a	RESPONSE	M2	2	24	C5	press
515.131	n/a	RESPONSE	M2	2	00	C3	press
515.134	n/a	RESPONSE	M2	2	07	G3	press
515.572	n/a	RESPONSE	M2	2	19	G4	press
515.625	n/a	RESPONSE	M2	2	24	C5	release
515.784	n/a	RESPONSE	M2	2	00	C3	release
515.82	n/a	RESPONSE	M2	2	19	G4	release
515.983	n/a	RESPONSE	M2	2	00	C3	press
516.008	n/a	RESPONSE	M2	2	19	G4	press
516.423	n/a	RESPONSE	M2	2	17	F4	press
516.503	n/a	RESPONSE	M2	2	00	C3	release
516.515	n/a	RESPONSE	M2	2	19	G4	release
516.866	n/a	RESPONSE	M2	2	16	E4	press
516.89	n/a	RESPONSE	M2	2	00	C3	press
517.027	n/a	RESPONSE	M2	2	17	F4	release
517.298	n/a	RESPONSE	M2	2	14	D4	press
517.366	n/a	RESPONSE	M2	2	00	C3	release
517.424	n/a	RESPONSE	M2	2	16	E4	release
517.448	n/a	RESPONSE	M2	2	07	G3	release
517.742	n/a	RESPONSE	M2	2	07	G3	press
517.745	n/a	RESPONSE	M2	2	00	C3	press
517.766	n/a	RESPONSE	M2	2	12	C4	press
518.131	n/a	RESPONSE	M2	2	14	D4	release
518.584	n/a	RESPONSE	M2	2	12	C4	release
519.509	n/a	RESPONSE	M2	2	00	C3	release
520.653	n/a	RESPONSE	M2	2	07	G3	release
520.888	7.758	FIXCROSS	n/a	n/a	n/a	n/a	n/a
528.646	6.325	CUE_LISTEN	M2	1	n/a	n/a	n/a
534.971	7.758	FIXCROSS	n/a	n/a	n/a	n/a	n/a
542.73	6.317	CUE_PLAYBACK_BOTH_HANDS	M2	1	n/a	n/a	n/a
543.465	n/a	RESPONSE	M2	1	07	G3	press
543.484	n/a	RESPONSE	M2	1	12	C4	press
543.486	n/a	RESPONSE	M2	1	00	C3	press
543.963	n/a	RESPONSE	M2	1	14	D4	press
544.069	n/a	RESPONSE	M2	1	12	C4	release
544.123	n/a	RESPONSE	M2	1	00	C3	release
544.264	n/a	RESPONSE	M2	1	07	G3	release
544.475	n/a	RESPONSE	M2	1	00	C3	press
544.478	n/a	RESPONSE	M2	1	07	G3	press
544.495	n/a	RESPONSE	M2	1	16	E4	press
544.62	n/a	RESPONSE	M2	1	14	D4	release
544.956	n/a	RESPONSE	M2	1	14	D4	press
545.012	n/a	RESPONSE	M2	1	16	E4	release
545.049	n/a	RESPONSE	M2	1	00	C3	release
545.17	n/a	RESPONSE	M2	1	07	G3	release
545.434	n/a	RESPONSE	M2	1	07	G3	press
545.436	n/a	RESPONSE	M2	1	00	C3	press
545.439	n/a	RESPONSE	M2	1	16	E4	press
545.56	n/a	RESPONSE	M2	1	14	D4	release
545.895	n/a	RESPONSE	M2	1	17	F4	press
546.015	n/a	RESPONSE	M2	1	16	E4	release
546.018	n/a	RESPONSE	M2	1	00	C3	release
546.076	n/a	RESPONSE	M2	1	07	G3	release
546.336	n/a	RESPONSE	M2	1	00	C3	press
546.348	n/a	RESPONSE	M2	1	19	G4	press
546.35	n/a	RESPONSE	M2	1	07	G3	press
546.633	n/a	RESPONSE	M2	1	17	F4	release
547.232	n/a	RESPONSE	M2	1	00	C3	release
547.255	n/a	RESPONSE	M2	1	19	G4	release
548.28	n/a	RESPONSE	M2	1	07	G3	release
549.046	7.758	FIXCROSS	n/a	n/a	n/a	n/a	n/a
556.804	6.325	CUE_LISTEN	M2	2	n/a	n/a	n/a
563.13	7.758	FIXCROSS	n/a	n/a	n/a	n/a	n/a
570.888	6.317	CUE_PLAYBACK_BOTH_HANDS	M2	2	n/a	n/a	n/a
572.382	n/a	RESPONSE	M2	2	00	C3	press
572.384	n/a	RESPONSE	M2	2	07	G3	press
572.401	n/a	RESPONSE	M2	2	16	E4	press
572.843	n/a	RESPONSE	M2	2	19	G4	press
573.018	n/a	RESPONSE	M2	2	16	E4	release
573.106	n/a	RESPONSE	M2	2	00	C3	release
573.178	n/a	RESPONSE	M2	2	07	G3	release
573.18	n/a	RESPONSE	M2	2	19	G4	release
573.34	n/a	RESPONSE	M2	2	19	G4	press
573.356	n/a	RESPONSE	M2	2	07	G3	press
573.359	n/a	RESPONSE	M2	2	00	C3	press
573.835	n/a	RESPONSE	M2	2	17	F4	press
573.943	n/a	RESPONSE	M2	2	19	G4	release
574.013	n/a	RESPONSE	M2	2	00	C3	release
574.032	n/a	RESPONSE	M2	2	07	G3	release
574.313	n/a	RESPONSE	M2	2	00	C3	press
574.315	n/a	RESPONSE	M2	2	16	E4	press
574.318	n/a	RESPONSE	M2	2	07	G3	press
574.492	n/a	RESPONSE	M2	2	17	F4	release
574.775	n/a	RESPONSE	M2	2	14	D4	press
574.829	n/a	RESPONSE	M2	2	00	C3	release
574.902	n/a	RESPONSE	M2	2	16	E4	release
574.92	n/a	RESPONSE	M2	2	07	G3	release
575.292	n/a	RESPONSE	M2	2	00	C3	press
575.308	n/a	RESPONSE	M2	2	07	G3	press
575.31	n/a	RESPONSE	M2	2	12	C4	press
576.239	n/a	RESPONSE	M2	2	14	D4	release
576.5	n/a	RESPONSE	M2	2	12	C4	release
576.545	n/a	RESPONSE	M2	2	00	C3	release
576.673	n/a	RESPONSE	M2	2	07	G3	release
577.204	7.758	FIXCROSS	n/a	n/a	n/a	n/a	n/a
584.963	6.317	CUE_LISTEN	M1	1	n/a	n/a	n/a
591.28	7.758	FIXCROSS	n/a	n/a	n/a	n/a	n/a
599.038	6.325	CUE_PLAYBACK_RIGHT_HAND	M1	1	n/a	n/a	n/a
599.992	n/a	RESPONSE	M1	1	19	G4	press
600.504	n/a	RESPONSE	M1	1	16	E4	press
600.576	n/a	RESPONSE	M1	1	19	G4	release
600.805	n/a	RESPONSE	M1	1	16	E4	release
600.999	n/a	RESPONSE	M1	1	16	E4	press
601.455	n/a	RESPONSE	M1	1	17	F4	press
601.561	n/a	RESPONSE	M1	1	16	E4	release
601.984	n/a	RESPONSE	M1	1	14	D4	press
602.178	n/a	RESPONSE	M1	1	17	F4	release
602.249	n/a	RESPONSE	M1	1	14	D4	release
602.513	n/a	RESPONSE	M1	1	14	D4	press
603.023	n/a	RESPONSE	M1	1	12	C4	press
603.182	n/a	RESPONSE	M1	1	14	D4	release
603.34	n/a	RESPONSE	M1	1	16	E4	press
603.482	n/a	RESPONSE	M1	1	12	C4	release
603.713	n/a	RESPONSE	M1	1	19	G4	press
603.908	n/a	RESPONSE	M1	1	16	E4	release
604.504	n/a	RESPONSE	M1	1	19	G4	release
605.363	7.758	FIXCROSS	n/a	n/a	n/a	n/a	n/a
613.121	6.317	CUE_LISTEN	M1	2	n/a	n/a	n/a
619.438	7.758	FIXCROSS	n/a	n/a	n/a	n/a	n/a
627.196	6.325	CUE_PLAYBACK_RIGHT_HAND	M1	2	n/a	n/a	n/a
627.854	n/a	RESPONSE	M1	2	19	G4	press
628.353	n/a	RESPONSE	M1	2	16	E4	press
628.603	n/a	RESPONSE	M1	2	19	G4	release
628.683	n/a	RESPONSE	M1	2	16	E4	release
628.864	n/a	RESPONSE	M1	2	16	E4	press
629.328	n/a	RESPONSE	M1	2	17	F4	press
629.429	n/a	RESPONSE	M1	2	16	E4	release
629.834	n/a	RESPONSE	M1	2	14	D4	press
629.963	n/a	RESPONSE	M1	2	17	F4	release
630.123	n/a	RESPONSE	M1	2	14	D4	release
630.369	n/a	RESPONSE	M1	2	14	D4	press
630.914	n/a	RESPONSE	M1	2	12	C4	press
631.056	n/a	RESPONSE	M1	2	14	D4	release
631.302	n/a	RESPONSE	M1	2	16	E4	press
631.425	n/a	RESPONSE	M1	2	12	C4	release
631.706	n/a	RESPONSE	M1	2	12	C4	press
631.831	n/a	RESPONSE	M1	2	16	E4	release
632.498	n/a	RESPONSE	M1	2	12	C4	release
633.521	7.758	FIXCROSS	n/a	n/a	n/a	n/a	n/a
641.28	6.317	CUE_LISTEN	M3	1	n/a	n/a	n/a
647.596	7.758	FIXCROSS	n/a	n/a	n/a	n/a	n/a
655.355	6.317	CUE_PLAYBACK_RIGHT_HAND	M3	1	n/a	n/a	n/a
656.074	n/a	RESPONSE	M3	1	12	C4	press
656.594	n/a	RESPONSE	M3	1	14	D4	press
656.732	n/a	RESPONSE	M3	1	12	C4	release
657.136	n/a	RESPONSE	M3	1	16	E4	press
657.25	n/a	RESPONSE	M3	1	14	D4	release
657.645	n/a	RESPONSE	M3	1	12	C4	press
657.782	n/a	RESPONSE	M3	1	16	E4	release
657.975	n/a	RESPONSE	M3	1	12	C4	release
658.213	n/a	RESPONSE	M3	1	12	C4	press
658.725	n/a	RESPONSE	M3	1	14	D4	press
658.894	n/a	RESPONSE	M3	1	12	C4	release
659.289	n/a	RESPONSE	M3	1	16	E4	press
659.436	n/a	RESPONSE	M3	1	14	D4	release
659.812	n/a	RESPONSE	M3	1	12	C4	press
659.956	n/a	RESPONSE	M3	1	16	E4	release
660.329	n/a	RESPONSE	M3	1	12	C4	release
661.671	7.758	FIXCROSS	n/a	n/a	n/a	n/a	n/a
669.43	6.317	CUE_LISTEN	M3	2	n/a	n/a	n/a
675.746	7.758	FIXCROSS	n/a	n/a	n/a	n/a	n/a
683.505	6.325	CUE_PLAYBACK_RIGHT_HAND	M3	2	n/a	n/a	n/a
684.169	n/a	RESPONSE	M3	2	16	E4	press
684.679	n/a	RESPONSE	M3	2	17	F4	press
684.768	n/a	RESPONSE	M3	2	16	E4	release
685.192	n/a	RESPONSE	M3	2	19	G4	press
685.298	n/a	RESPONSE	M3	2	17	F4	release
685.948	n/a	RESPONSE	M3	2	19	G4	release
686.16	n/a	RESPONSE	M3	2	16	E4	press
686.659	n/a	RESPONSE	M3	2	17	F4	press
686.76	n/a	RESPONSE	M3	2	16	E4	release
687.234	n/a	RESPONSE	M3	2	19	G4	press
687.359	n/a	RESPONSE	M3	2	17	F4	release
688.194	n/a	RESPONSE	M3	2	19	G4	release
689.83	7.758	FIXCROSS	n/a	n/a	n/a	n/a	n/a
697.588	6.317	CUE_LISTEN	M3	1	n/a	n/a	n/a
703.905	7.758	FIXCROSS	n/a	n/a	n/a	n/a	n/a
711.663	6.317	CUE_PLAYBACK_RIGHT_HAND	M3	1	n/a	n/a	n/a
712.579	n/a	RESPONSE	M3	1	19	G4	press
712.895	n/a	RESPONSE	M3	1	21	A4	press
712.932	n/a	RESPONSE	M3	1	19	G4	release
713.213	n/a	RESPONSE	M3	1	19	G4	press
713.476	n/a	RESPONSE	M3	1	21	A4	release
713.532	n/a	RESPONSE	M3	1	17	F4	press
713.744	n/a	RESPONSE	M3	1	19	G4	release
713.904	n/a	RESPONSE	M3	1	16	E4	press
714.065	n/a	RESPONSE	M3	1	17	F4	release
714.61	n/a	RESPONSE	M3	1	12	C4	press
714.766	n/a	RESPONSE	M3	1	16	E4	release
715.12	n/a	RESPONSE	M3	1	12	C4	release
715.298	n/a	RESPONSE	M3	1	19	G4	press
715.578	n/a	RESPONSE	M3	1	21	A4	press
715.652	n/a	RESPONSE	M3	1	19	G4	release
715.879	n/a	RESPONSE	M3	1	19	G4	press
715.995	n/a	RESPONSE	M3	1	21	A4	release
716.21	n/a	RESPONSE	M3	1	17	F4	press
716.515	n/a	RESPONSE	M3	1	19	G4	release
716.518	n/a	RESPONSE	M3	1	16	E4	press
716.654	n/a	RESPONSE	M3	1	17	F4	release
717.206	n/a	RESPONSE	M3	1	12	C4	press
717.388	n/a	RESPONSE	M3	1	16	E4	release
717.896	n/a	RESPONSE	M3	1	12	C4	release
717.98	7.758	FIXCROSS	n/a	n/a	n/a	n/a	n/a
725.738	6.325	CUE_LISTEN	M3	2	n/a	n/a	n/a
732.063	7.758	FIXCROSS	n/a	n/a	n/a	n/a	n/a
739.822	6.325	CUE_PLAYBACK_RIGHT_HAND	M3	2	n/a	n/a	n/a
740.468	n/a	RESPONSE	M3	2	12	C4	press
740.943	n/a	RESPONSE	M3	2	07	G3	press
741.084	n/a	RESPONSE	M3	2	12	C4	release
741.402	n/a	RESPONSE	M3	2	12	C4	press
741.542	n/a	RESPONSE	M3	2	07	G3	release
742.139	n/a	RESPONSE	M3	2	12	C4	release
742.438	n/a	RESPONSE	M3	2	12	C4	press
742.913	n/a	RESPONSE	M3	2	07	G3	press
743.036	n/a	RESPONSE	M3	2	12	C4	release
743.353	n/a	RESPONSE	M3	2	12	C4	press
743.459	n/a	RESPONSE	M3	2	07	G3	release
743.972	n/a	RESPONSE	M3	2	12	C4	release
746.146	7.758	FIXCROSS	n/a	n/a	n/a	n/a	n/a
753.905	6.317	CUE_LISTEN	M1	1	n/a	n/a	n/a
760.222	7.758	FIXCROSS	n/a	n/a	n/a	n/a	n/a
767.98	6.317	CUE_PLAYBACK_BOTH_HANDS	M1	1	n/a	n/a	n/a
768.76	n/a	RESPONSE	M1	1	19	G4	press
768.773	n/a	RESPONSE	M1	1	07	G3	press
768.776	n/a	RESPONSE	M1	1	04	E3	press
768.798	n/a	RESPONSE	M1	1	00	C3	press
769.249	n/a	RESPONSE	M1	1	16	E4	press
769.284	n/a	RESPONSE	M1	1	19	G4	release
769.534	n/a	RESPONSE	M1	1	16	E4	release
769.765	n/a	RESPONSE	M1	1	16	E4	press
769.893	n/a	RESPONSE	M1	1	00	C3	release
769.912	n/a	RESPONSE	M1	1	04	E3	release
770.018	n/a	RESPONSE	M1	1	07	G3	release
770.253	n/a	RESPONSE	M1	1	02	D3	press
770.27	n/a	RESPONSE	M1	1	17	F4	press
770.292	n/a	RESPONSE	M1	1	05	F3	press
770.378	n/a	RESPONSE	M1	1	16	E4	release
770.38	n/a	RESPONSE	M1	1	07	G3	press
770.784	n/a	RESPONSE	M1	1	14	D4	press
770.873	n/a	RESPONSE	M1	1	17	F4	release
771.031	n/a	RESPONSE	M1	1	14	D4	release
771.295	n/a	RESPONSE	M1	1	14	D4	press
771.419	n/a	RESPONSE	M1	1	05	F3	release
771.455	n/a	RESPONSE	M1	1	02	D3	release
771.458	n/a	RESPONSE	M1	1	07	G3	release
771.773	n/a	RESPONSE	M1	1	07	G3	press
771.776	n/a	RESPONSE	M1	1	04	E3	press
771.793	n/a	RESPONSE	M1	1	00	C3	press
771.795	n/a	RESPONSE	M1	1	12	C4	press
771.954	n/a	RESPONSE	M1	1	14	D4	release
772.113	n/a	RESPONSE	M1	1	16	E4	press
772.324	n/a	RESPONSE	M1	1	12	C4	release
772.448	n/a	RESPONSE	M1	1	19	G4	press
772.678	n/a	RESPONSE	M1	1	16	E4	release
773.292	n/a	RESPONSE	M1	1	04	E3	release
773.31	n/a	RESPONSE	M1	1	19	G4	release
773.382	n/a	RESPONSE	M1	1	07	G3	release
773.824	n/a	RESPONSE	M1	1	00	C3	release
774.296	7.758	FIXCROSS	n/a	n/a	n/a	n/a	n/a
782.055	6.317	CUE_LISTEN	M1	2	n/a	n/a	n/a
788.372	7.758	FIXCROSS	n/a	n/a	n/a	n/a	n/a
796.13	6.325	CUE_PLAYBACK_BOTH_HANDS	M1	2	n/a	n/a	n/a
796.796	n/a	RESPONSE	M1	2	04	E3	press
796.799	n/a	RESPONSE	M1	2	19	G4	press
796.822	n/a	RESPONSE	M1	2	07	G3	press
796.824	n/a	RESPONSE	M1	2	00	C3	press
797.263	n/a	RESPONSE	M1	2	16	E4	press
797.332	n/a	RESPONSE	M1	2	19	G4	release
797.524	n/a	RESPONSE	M1	2	16	E4	release
797.762	n/a	RESPONSE	M1	2	16	E4	press
797.922	n/a	RESPONSE	M1	2	00	C3	release
797.968	n/a	RESPONSE	M1	2	04	E3	release
797.992	n/a	RESPONSE	M1	2	07	G3	release
798.263	n/a	RESPONSE	M1	2	02	D3	press
798.275	n/a	RESPONSE	M1	2	07	G3	press
798.279	n/a	RESPONSE	M1	2	05	F3	press
798.3	n/a	RESPONSE	M1	2	17	F4	press
798.472	n/a	RESPONSE	M1	2	16	E4	release
798.79	n/a	RESPONSE	M1	2	14	D4	press
798.87	n/a	RESPONSE	M1	2	17	F4	release
799.074	n/a	RESPONSE	M1	2	14	D4	release
799.334	n/a	RESPONSE	M1	2	14	D4	press
799.515	n/a	RESPONSE	M1	2	05	F3	release
799.528	n/a	RESPONSE	M1	2	07	G3	release
799.563	n/a	RESPONSE	M1	2	02	D3	release
799.853	n/a	RESPONSE	M1	2	04	E3	press
799.855	n/a	RESPONSE	M1	2	07	G3	press
799.858	n/a	RESPONSE	M1	2	00	C3	press
799.909	n/a	RESPONSE	M1	2	12	C4	press
800.246	n/a	RESPONSE	M1	2	16	E4	press
800.3	n/a	RESPONSE	M1	2	14	D4	release
800.39	n/a	RESPONSE	M1	2	12	C4	release
800.636	n/a	RESPONSE	M1	2	12	C4	press
800.813	n/a	RESPONSE	M1	2	16	E4	release
801.549	n/a	RESPONSE	M1	2	12	C4	release
801.569	n/a	RESPONSE	M1	2	00	C3	release
801.639	n/a	RESPONSE	M1	2	07	G3	release
801.658	n/a	RESPONSE	M1	2	04	E3	release
802.455	7.758	FIXCROSS	n/a	n/a	n/a	n/a	n/a
810.213	6.317	CUE_LISTEN	M2	1	n/a	n/a	n/a
816.53	7.758	FIXCROSS	n/a	n/a	n/a	n/a	n/a
824.288	6.317	CUE_PLAYBACK_RIGHT_HAND	M2	1	n/a	n/a	n/a
824.828	n/a	RESPONSE	M2	1	24	C5	press
825.286	n/a	RESPONSE	M2	1	19	G4	press
825.412	n/a	RESPONSE	M2	1	24	C5	release
825.552	n/a	RESPONSE	M2	1	19	G4	release
825.762	n/a	RESPONSE	M2	1	19	G4	press
826.182	n/a	RESPONSE	M2	1	17	F4	press
826.295	n/a	RESPONSE	M2	1	19	G4	release
826.646	n/a	RESPONSE	M2	1	16	E4	press
826.783	n/a	RESPONSE	M2	1	17	F4	release
827.088	n/a	RESPONSE	M2	1	17	F4	press
827.202	n/a	RESPONSE	M2	1	16	E4	release
827.506	n/a	RESPONSE	M2	1	19	G4	press
827.688	n/a	RESPONSE	M2	1	17	F4	release
828.118	n/a	RESPONSE	M2	1	19	G4	release
830.605	7.758	FIXCROSS	n/a	n/a	n/a	n/a	n/a
834.928	n/a	RESPONSE	M2	1	24	C5	press
835.489	n/a	RESPONSE	M2	1	24	C5	release
838.363	6.325	CUE_LISTEN	M2	2	n/a	n/a	n/a
844.688	7.758	FIXCROSS	n/a	n/a	n/a	n/a	n/a
848.452	n/a	RESPONSE	M2	2	24	C5	press
849.652	n/a	RESPONSE	M2	2	24	C5	release
852.447	6.317	CUE_PLAYBACK_RIGHT_HAND	M2	2	n/a	n/a	n/a
853.078	n/a	RESPONSE	M2	2	24	C5	press
853.554	n/a	RESPONSE	M2	2	17	F4	press
853.713	n/a	RESPONSE	M2	2	24	C5	release
853.838	n/a	RESPONSE	M2	2	17	F4	release
854.049	n/a	RESPONSE	M2	2	17	F4	press
854.472	n/a	RESPONSE	M2	2	16	E4	press
854.544	n/a	RESPONSE	M2	2	17	F4	release
854.986	n/a	RESPONSE	M2	2	14	D4	press
855.143	n/a	RESPONSE	M2	2	16	E4	release
855.459	n/a	RESPONSE	M2	2	12	C4	press
855.548	n/a	RESPONSE	M2	2	14	D4	release
855.984	n/a	RESPONSE	M2	2	11	B3	press
856.143	n/a	RESPONSE	M2	2	12	C4	release
856.326	n/a	RESPONSE	M2	2	11	B3	release
858.763	7.758	FIXCROSS	n/a	n/a	n/a	n/a	n/a
866.522	6.317	CUE_LISTEN	M2	1	n/a	n/a	n/a
872.838	7.758	FIXCROSS	n/a	n/a	n/a	n/a	n/a
880.597	6.325	CUE_PLAYBACK_RIGHT_HAND	M2	1	n/a	n/a	n/a
881.473	n/a	RESPONSE	M2	1	12	C4	press
882.0	n/a	RESPONSE	M2	1	14	D4	press
882.106	n/a	RESPONSE	M2	1	12	C4	release
882.51	n/a	RESPONSE	M2	1	16	E4	press
882.635	n/a	RESPONSE	M2	1	14	D4	release
883.059	n/a	RESPONSE	M2	1	14	D4	press
883.163	n/a	RESPONSE	M2	1	16	E4	release
883.572	n/a	RESPONSE	M2	1	16	E4	press
883.64	n/a	RESPONSE	M2	1	14	D4	release
884.115	n/a	RESPONSE	M2	1	17	F4	press
884.239	n/a	RESPONSE	M2	1	16	E4	release
884.679	n/a	RESPONSE	M2	1	19	G4	press
884.785	n/a	RESPONSE	M2	1	17	F4	release
885.506	n/a	RESPONSE	M2	1	19	G4	release
886.922	7.758	FIXCROSS	n/a	n/a	n/a	n/a	n/a
894.68	6.317	CUE_LISTEN	M2	2	n/a	n/a	n/a
900.997	7.758	FIXCROSS	n/a	n/a	n/a	n/a	n/a
908.755	48.415	CUE_PLAYBACK_RIGHT_HAND	M2	2	n/a	n/a	n/a
909.52	n/a	RESPONSE	M2	2	16	E4	press
910.05	n/a	RESPONSE	M2	2	19	G4	press
910.21	n/a	RESPONSE	M2	2	16	E4	release
910.422	n/a	RESPONSE	M2	2	19	G4	release
910.582	n/a	RESPONSE	M2	2	19	G4	press
911.073	n/a	RESPONSE	M2	2	17	F4	press
911.144	n/a	RESPONSE	M2	2	19	G4	release
911.6	n/a	RESPONSE	M2	2	16	E4	press
911.724	n/a	RESPONSE	M2	2	17	F4	release
912.094	n/a	RESPONSE	M2	2	14	D4	press
912.183	n/a	RESPONSE	M2	2	16	E4	release
912.694	n/a	RESPONSE	M2	2	12	C4	press
913.221	n/a	RESPONSE	M2	2	14	D4	release
913.252	n/a	FIXCROSS	n/a	n/a	n/a	n/a	n/a
913.483	n/a	RESPONSE	M2	2	12	C4	release
