onset	duration	trial_type	trial_number	stroop_condition	stim_text(PL)	stim_text(eng)	stim_color(PL)	stim_color(eng)	response_type	response_color
0.0	n/a	RESPONSE	n/a	n/a	n/a	n/a	n/a	n/a	n/a	red
0.8468	n/a	RESPONSE	n/a	n/a	n/a	n/a	n/a	n/a	n/a	yellow
42.855	n/a	RESPONSE	n/a	n/a	n/a	n/a	n/a	n/a	n/a	n/a
42.9159	1.0333	ITI	n/a	n/a	n/a	n/a	n/a	n/a	n/a	n/a
43.9493	0.5167	FIXCROSS	n/a	n/a	n/a	n/a	n/a	n/a	n/a	n/a
44.466	2.7	T_INK	1	Incongruent	żółty	yellow	czerwony	red	hit	n/a
47.1373	n/a	RESPONSE	n/a	n/a	n/a	n/a	n/a	n/a	n/a	red
47.166	0.5167	FEEDBACK	n/a	n/a	n/a	n/a	n/a	n/a	n/a	n/a
47.6826	1.0167	ITI	n/a	n/a	n/a	n/a	n/a	n/a	n/a	n/a
48.6993	0.5167	FIXCROSS	n/a	n/a	n/a	n/a	n/a	n/a	n/a	n/a
49.216	1.5667	T_INK	2	Incongruent	zielony	green	czerwony	red	hit	n/a
50.7484	n/a	RESPONSE	n/a	n/a	n/a	n/a	n/a	n/a	n/a	red
50.7827	0.5167	FEEDBACK	n/a	n/a	n/a	n/a	n/a	n/a	n/a	n/a
51.2993	1.0167	ITI	n/a	n/a	n/a	n/a	n/a	n/a	n/a	n/a
52.316	0.5167	FIXCROSS	n/a	n/a	n/a	n/a	n/a	n/a	n/a	n/a
52.8327	0.8833	T_INK	3	Incongruent	czerwony	red	zielony	green	hit	n/a
53.6885	n/a	RESPONSE	n/a	n/a	n/a	n/a	n/a	n/a	n/a	green
53.716	0.5167	FEEDBACK	n/a	n/a	n/a	n/a	n/a	n/a	n/a	n/a
54.2327	1.0167	ITI	n/a	n/a	n/a	n/a	n/a	n/a	n/a	n/a
55.2494	0.5167	FIXCROSS	n/a	n/a	n/a	n/a	n/a	n/a	n/a	n/a
55.766	0.65	T_INK	4	Neutral	xxxxxxxxx	xxxxxxxxx	czerwony	red	hit	n/a
56.389	n/a	RESPONSE	n/a	n/a	n/a	n/a	n/a	n/a	n/a	red
56.416	0.5167	FEEDBACK	n/a	n/a	n/a	n/a	n/a	n/a	n/a	n/a
56.9327	1.0167	ITI	n/a	n/a	n/a	n/a	n/a	n/a	n/a	n/a
57.9494	0.5167	FIXCROSS	n/a	n/a	n/a	n/a	n/a	n/a	n/a	n/a
58.4661	0.6333	T_INK	5	Incongruent	żółty	yellow	zielony	green	incorrect	n/a
59.0733	n/a	RESPONSE	n/a	n/a	n/a	n/a	n/a	n/a	n/a	blue
59.0994	0.5167	FEEDBACK	n/a	n/a	n/a	n/a	n/a	n/a	n/a	n/a
59.6161	1.0167	ITI	n/a	n/a	n/a	n/a	n/a	n/a	n/a	n/a
60.6327	0.5167	FIXCROSS	n/a	n/a	n/a	n/a	n/a	n/a	n/a	n/a
61.1494	1.4833	T_INK	6	Neutral	xxxxxxxx	xxxxxxxx	niebieski	blue	hit	n/a
62.6047	n/a	RESPONSE	n/a	n/a	n/a	n/a	n/a	n/a	n/a	blue
62.6328	0.5167	FEEDBACK	n/a	n/a	n/a	n/a	n/a	n/a	n/a	n/a
63.1494	1.0167	ITI	n/a	n/a	n/a	n/a	n/a	n/a	n/a	n/a
64.1661	0.5167	FIXCROSS	n/a	n/a	n/a	n/a	n/a	n/a	n/a	n/a
64.6828	0.9333	T_INK	7	Neutral	xxxxxxx	xxxxxxx	niebieski	blue	hit	n/a
65.5926	n/a	RESPONSE	n/a	n/a	n/a	n/a	n/a	n/a	n/a	blue
65.6161	0.5167	FEEDBACK	n/a	n/a	n/a	n/a	n/a	n/a	n/a	n/a
66.1328	1.0167	ITI	n/a	n/a	n/a	n/a	n/a	n/a	n/a	n/a
67.1495	0.5167	FIXCROSS	n/a	n/a	n/a	n/a	n/a	n/a	n/a	n/a
67.6661	0.65	T_INK	8	Neutral	xxxxxxx	xxxxxxx	czerwony	red	hit	n/a
68.293	n/a	RESPONSE	n/a	n/a	n/a	n/a	n/a	n/a	n/a	red
68.3161	0.5167	FEEDBACK	n/a	n/a	n/a	n/a	n/a	n/a	n/a	n/a
68.8328	1.0167	ITI	n/a	n/a	n/a	n/a	n/a	n/a	n/a	n/a
69.8495	0.5167	FIXCROSS	n/a	n/a	n/a	n/a	n/a	n/a	n/a	n/a
70.3661	0.6667	T_INK	9	Incongruent	zielony	green	żółty	yellow	hit	n/a
71.0094	n/a	RESPONSE	n/a	n/a	n/a	n/a	n/a	n/a	n/a	yellow
71.0328	0.5167	FEEDBACK	n/a	n/a	n/a	n/a	n/a	n/a	n/a	n/a
71.5495	1.0167	ITI	n/a	n/a	n/a	n/a	n/a	n/a	n/a	n/a
72.5662	0.5167	FIXCROSS	n/a	n/a	n/a	n/a	n/a	n/a	n/a	n/a
73.0828	1.0333	T_INK	10	Neutral	xxxxxxxxx	xxxxxxxxx	zielony	green	hit	n/a
74.0933	n/a	RESPONSE	n/a	n/a	n/a	n/a	n/a	n/a	n/a	green
74.1162	0.5167	FEEDBACK	n/a	n/a	n/a	n/a	n/a	n/a	n/a	n/a
74.6328	1.0167	ITI	n/a	n/a	n/a	n/a	n/a	n/a	n/a	n/a
75.6495	0.5167	FIXCROSS	n/a	n/a	n/a	n/a	n/a	n/a	n/a	n/a
76.1662	0.75	T_INK	11	Neutral	xxxxx	xxxxx	zielony	green	hit	n/a
76.8896	n/a	RESPONSE	n/a	n/a	n/a	n/a	n/a	n/a	n/a	green
76.9162	0.5167	FEEDBACK	n/a	n/a	n/a	n/a	n/a	n/a	n/a	n/a
77.4329	1.0167	ITI	n/a	n/a	n/a	n/a	n/a	n/a	n/a	n/a
78.4495	0.5167	FIXCROSS	n/a	n/a	n/a	n/a	n/a	n/a	n/a	n/a
78.9662	0.7	T_INK	12	Incongruent	czerwony	red	żółty	yellow	hit	n/a
79.638	n/a	RESPONSE	n/a	n/a	n/a	n/a	n/a	n/a	n/a	yellow
79.6662	0.5167	FEEDBACK	n/a	n/a	n/a	n/a	n/a	n/a	n/a	n/a
80.1829	1.0333	ITI	n/a	n/a	n/a	n/a	n/a	n/a	n/a	n/a
93.8749	n/a	RESPONSE	n/a	n/a	n/a	n/a	n/a	n/a	n/a	n/a
93.933	1.0167	ITI	n/a	n/a	n/a	n/a	n/a	n/a	n/a	n/a
94.9497	0.5167	FIXCROSS	n/a	n/a	n/a	n/a	n/a	n/a	n/a	n/a
95.4663	0.8333	INK	1	Incongruent	żółty	yellow	zielony	green	hit	n/a
96.2718	n/a	RESPONSE	n/a	n/a	n/a	n/a	n/a	n/a	n/a	green
96.2997	1.0167	ITI	n/a	n/a	n/a	n/a	n/a	n/a	n/a	n/a
97.3163	0.5167	FIXCROSS	n/a	n/a	n/a	n/a	n/a	n/a	n/a	n/a
97.833	0.4667	INK	2	Neutral	xxxxx	xxxxx	czerwony	red	hit	n/a
98.269	n/a	RESPONSE	n/a	n/a	n/a	n/a	n/a	n/a	n/a	red
98.2997	1.0167	ITI	n/a	n/a	n/a	n/a	n/a	n/a	n/a	n/a
99.3164	0.5167	FIXCROSS	n/a	n/a	n/a	n/a	n/a	n/a	n/a	n/a
99.833	0.8167	INK	3	Neutral	xxxxx	xxxxx	zielony	green	hit	n/a
100.618	n/a	RESPONSE	n/a	n/a	n/a	n/a	n/a	n/a	n/a	green
100.6497	1.0167	ITI	n/a	n/a	n/a	n/a	n/a	n/a	n/a	n/a
101.6664	0.5167	FIXCROSS	n/a	n/a	n/a	n/a	n/a	n/a	n/a	n/a
102.183	0.7167	INK	4	Incongruent	czerwony	red	żółty	yellow	hit	n/a
102.8709	n/a	RESPONSE	n/a	n/a	n/a	n/a	n/a	n/a	n/a	yellow
102.8997	1.0167	ITI	n/a	n/a	n/a	n/a	n/a	n/a	n/a	n/a
103.9164	0.5167	FIXCROSS	n/a	n/a	n/a	n/a	n/a	n/a	n/a	n/a
104.4331	0.7	INK	5	Incongruent	żółty	yellow	niebieski	blue	hit	n/a
105.1079	n/a	RESPONSE	n/a	n/a	n/a	n/a	n/a	n/a	n/a	blue
105.1331	1.0167	ITI	n/a	n/a	n/a	n/a	n/a	n/a	n/a	n/a
106.1497	0.5167	FIXCROSS	n/a	n/a	n/a	n/a	n/a	n/a	n/a	n/a
106.6664	0.4833	INK	6	Neutral	xxxxxxxx	xxxxxxxx	zielony	green	hit	n/a
107.1213	n/a	RESPONSE	n/a	n/a	n/a	n/a	n/a	n/a	n/a	green
107.1497	1.0167	ITI	n/a	n/a	n/a	n/a	n/a	n/a	n/a	n/a
108.1664	0.5167	FIXCROSS	n/a	n/a	n/a	n/a	n/a	n/a	n/a	n/a
108.6831	0.6333	INK	7	Incongruent	czerwony	red	niebieski	blue	hit	n/a
109.2944	n/a	RESPONSE	n/a	n/a	n/a	n/a	n/a	n/a	n/a	blue
109.3164	1.0167	ITI	n/a	n/a	n/a	n/a	n/a	n/a	n/a	n/a
110.3331	0.5167	FIXCROSS	n/a	n/a	n/a	n/a	n/a	n/a	n/a	n/a
110.8498	0.4833	INK	8	Neutral	xxxxxxxxx	xxxxxxxxx	czerwony	red	hit	n/a
111.3077	n/a	RESPONSE	n/a	n/a	n/a	n/a	n/a	n/a	n/a	red
111.3331	1.0167	ITI	n/a	n/a	n/a	n/a	n/a	n/a	n/a	n/a
112.3498	0.5167	FIXCROSS	n/a	n/a	n/a	n/a	n/a	n/a	n/a	n/a
112.8665	0.45	INK	9	Neutral	xxxxx	xxxxx	zielony	green	hit	n/a
113.2891	n/a	RESPONSE	n/a	n/a	n/a	n/a	n/a	n/a	n/a	green
113.3165	1.0167	ITI	n/a	n/a	n/a	n/a	n/a	n/a	n/a	n/a
114.3331	0.5167	FIXCROSS	n/a	n/a	n/a	n/a	n/a	n/a	n/a	n/a
114.8498	0.65	INK	10	Incongruent	niebieski	blue	żółty	yellow	hit	n/a
115.478	n/a	RESPONSE	n/a	n/a	n/a	n/a	n/a	n/a	n/a	yellow
115.4998	1.0167	ITI	n/a	n/a	n/a	n/a	n/a	n/a	n/a	n/a
116.5165	0.5167	FIXCROSS	n/a	n/a	n/a	n/a	n/a	n/a	n/a	n/a
117.0331	0.55	INK	11	Neutral	xxxxxxx	xxxxxxx	czerwony	red	hit	n/a
117.5553	n/a	RESPONSE	n/a	n/a	n/a	n/a	n/a	n/a	n/a	red
117.5832	1.0167	ITI	n/a	n/a	n/a	n/a	n/a	n/a	n/a	n/a
118.5998	0.5167	FIXCROSS	n/a	n/a	n/a	n/a	n/a	n/a	n/a	n/a
119.1165	0.9	INK	12	Incongruent	niebieski	blue	czerwony	red	incorrect	n/a
119.9841	n/a	RESPONSE	n/a	n/a	n/a	n/a	n/a	n/a	n/a	blue
120.0165	1.0167	ITI	n/a	n/a	n/a	n/a	n/a	n/a	n/a	n/a
121.0332	0.5167	FIXCROSS	n/a	n/a	n/a	n/a	n/a	n/a	n/a	n/a
121.5499	0.7667	INK	13	Neutral	xxxxxxxx	xxxxxxxx	niebieski	blue	hit	n/a
122.2849	n/a	RESPONSE	n/a	n/a	n/a	n/a	n/a	n/a	n/a	blue
122.3165	1.0167	ITI	n/a	n/a	n/a	n/a	n/a	n/a	n/a	n/a
123.3332	0.5167	FIXCROSS	n/a	n/a	n/a	n/a	n/a	n/a	n/a	n/a
123.8499	1.0833	INK	14	Incongruent	czerwony	red	żółty	yellow	hit	n/a
124.9055	n/a	RESPONSE	n/a	n/a	n/a	n/a	n/a	n/a	n/a	yellow
124.9332	1.0167	ITI	n/a	n/a	n/a	n/a	n/a	n/a	n/a	n/a
125.9499	0.5167	FIXCROSS	n/a	n/a	n/a	n/a	n/a	n/a	n/a	n/a
126.4666	0.7167	INK	15	Neutral	xxxxx	xxxxx	niebieski	blue	hit	n/a
127.1585	n/a	RESPONSE	n/a	n/a	n/a	n/a	n/a	n/a	n/a	blue
127.1832	1.0167	ITI	n/a	n/a	n/a	n/a	n/a	n/a	n/a	n/a
128.1999	0.5167	FIXCROSS	n/a	n/a	n/a	n/a	n/a	n/a	n/a	n/a
128.7166	0.5	INK	16	Neutral	xxxxxxxxx	xxxxxxxxx	czerwony	red	hit	n/a
129.1877	n/a	RESPONSE	n/a	n/a	n/a	n/a	n/a	n/a	n/a	red
129.2166	1.0167	ITI	n/a	n/a	n/a	n/a	n/a	n/a	n/a	n/a
130.2332	0.5167	FIXCROSS	n/a	n/a	n/a	n/a	n/a	n/a	n/a	n/a
130.7499	0.7833	INK	17	Incongruent	niebieski	blue	czerwony	red	hit	n/a
131.5047	n/a	RESPONSE	n/a	n/a	n/a	n/a	n/a	n/a	n/a	red
131.5333	1.0167	ITI	n/a	n/a	n/a	n/a	n/a	n/a	n/a	n/a
132.5499	0.5167	FIXCROSS	n/a	n/a	n/a	n/a	n/a	n/a	n/a	n/a
133.0666	0.7333	INK	18	Neutral	xxxxxxxx	xxxxxxxx	zielony	green	hit	n/a
133.7736	n/a	RESPONSE	n/a	n/a	n/a	n/a	n/a	n/a	n/a	green
133.7999	1.0167	ITI	n/a	n/a	n/a	n/a	n/a	n/a	n/a	n/a
134.8166	0.5167	FIXCROSS	n/a	n/a	n/a	n/a	n/a	n/a	n/a	n/a
135.3333	0.55	INK	19	Neutral	xxxxxxxxx	xxxxxxxxx	żółty	yellow	hit	n/a
135.8509	n/a	RESPONSE	n/a	n/a	n/a	n/a	n/a	n/a	n/a	yellow
135.8833	1.0167	ITI	n/a	n/a	n/a	n/a	n/a	n/a	n/a	n/a
136.9	0.5167	FIXCROSS	n/a	n/a	n/a	n/a	n/a	n/a	n/a	n/a
137.4166	0.5167	INK	20	Neutral	xxxxxxxxx	xxxxxxxxx	czerwony	red	hit	n/a
137.9121	n/a	RESPONSE	n/a	n/a	n/a	n/a	n/a	n/a	n/a	red
137.9333	1.0167	ITI	n/a	n/a	n/a	n/a	n/a	n/a	n/a	n/a
138.95	0.5167	FIXCROSS	n/a	n/a	n/a	n/a	n/a	n/a	n/a	n/a
139.4667	0.4833	INK	21	Incongruent	zielony	green	niebieski	blue	hit	n/a
139.9255	n/a	RESPONSE	n/a	n/a	n/a	n/a	n/a	n/a	n/a	blue
139.95	1.0167	ITI	n/a	n/a	n/a	n/a	n/a	n/a	n/a	n/a
140.9667	0.5167	FIXCROSS	n/a	n/a	n/a	n/a	n/a	n/a	n/a	n/a
141.4833	0.4833	INK	22	Neutral	xxxxx	xxxxx	czerwony	red	hit	n/a
141.9388	n/a	RESPONSE	n/a	n/a	n/a	n/a	n/a	n/a	n/a	red
141.9667	1.0167	ITI	n/a	n/a	n/a	n/a	n/a	n/a	n/a	n/a
142.9833	0.5167	FIXCROSS	n/a	n/a	n/a	n/a	n/a	n/a	n/a	n/a
143.5	0.6	INK	23	Incongruent	czerwony	red	niebieski	blue	hit	n/a
144.0799	n/a	RESPONSE	n/a	n/a	n/a	n/a	n/a	n/a	n/a	blue
144.1	1.0167	ITI	n/a	n/a	n/a	n/a	n/a	n/a	n/a	n/a
145.1167	0.5167	FIXCROSS	n/a	n/a	n/a	n/a	n/a	n/a	n/a	n/a
145.6334	0.5667	INK	24	Incongruent	czerwony	red	zielony	green	hit	n/a
146.1732	n/a	RESPONSE	n/a	n/a	n/a	n/a	n/a	n/a	n/a	green
146.2	1.0167	ITI	n/a	n/a	n/a	n/a	n/a	n/a	n/a	n/a
147.2167	0.5167	FIXCROSS	n/a	n/a	n/a	n/a	n/a	n/a	n/a	n/a
147.7334	0.7667	INK	25	Neutral	xxxxxxxx	xxxxxxxx	zielony	green	incorrect	n/a
148.474	n/a	RESPONSE	n/a	n/a	n/a	n/a	n/a	n/a	n/a	blue
148.5	1.0167	ITI	n/a	n/a	n/a	n/a	n/a	n/a	n/a	n/a
149.5167	0.5167	FIXCROSS	n/a	n/a	n/a	n/a	n/a	n/a	n/a	n/a
150.0334	1.25	INK	26	Incongruent	żółty	yellow	niebieski	blue	hit	n/a
151.2544	n/a	RESPONSE	n/a	n/a	n/a	n/a	n/a	n/a	n/a	blue
151.2834	1.0167	ITI	n/a	n/a	n/a	n/a	n/a	n/a	n/a	n/a
152.3001	0.5167	FIXCROSS	n/a	n/a	n/a	n/a	n/a	n/a	n/a	n/a
152.8167	0.5167	INK	27	Incongruent	zielony	green	niebieski	blue	hit	n/a
153.3156	n/a	RESPONSE	n/a	n/a	n/a	n/a	n/a	n/a	n/a	blue
153.3334	1.0167	ITI	n/a	n/a	n/a	n/a	n/a	n/a	n/a	n/a
154.3501	0.5167	FIXCROSS	n/a	n/a	n/a	n/a	n/a	n/a	n/a	n/a
154.8668	0.5167	INK	28	Neutral	xxxxxxx	xxxxxxx	czerwony	red	hit	n/a
155.3609	n/a	RESPONSE	n/a	n/a	n/a	n/a	n/a	n/a	n/a	red
155.3834	1.0167	ITI	n/a	n/a	n/a	n/a	n/a	n/a	n/a	n/a
156.4001	0.5167	FIXCROSS	n/a	n/a	n/a	n/a	n/a	n/a	n/a	n/a
156.9168	1.0167	INK	29	Incongruent	zielony	green	czerwony	red	hit	n/a
157.9015	n/a	RESPONSE	n/a	n/a	n/a	n/a	n/a	n/a	n/a	red
157.9335	1.0167	ITI	n/a	n/a	n/a	n/a	n/a	n/a	n/a	n/a
158.9501	0.5167	FIXCROSS	n/a	n/a	n/a	n/a	n/a	n/a	n/a	n/a
159.4668	0.6333	INK	30	Incongruent	niebieski	blue	żółty	yellow	hit	n/a
160.0746	n/a	RESPONSE	n/a	n/a	n/a	n/a	n/a	n/a	n/a	yellow
160.1001	1.0167	ITI	n/a	n/a	n/a	n/a	n/a	n/a	n/a	n/a
161.1168	0.5167	FIXCROSS	n/a	n/a	n/a	n/a	n/a	n/a	n/a	n/a
161.6335	0.5833	INK	31	Neutral	xxxxxxxxx	xxxxxxxxx	zielony	green	hit	n/a
162.1838	n/a	RESPONSE	n/a	n/a	n/a	n/a	n/a	n/a	n/a	green
162.2168	1.0167	ITI	n/a	n/a	n/a	n/a	n/a	n/a	n/a	n/a
163.2335	0.5167	FIXCROSS	n/a	n/a	n/a	n/a	n/a	n/a	n/a	n/a
163.7502	0.6833	INK	32	Neutral	xxxxx	xxxxx	niebieski	blue	hit	n/a
164.4048	n/a	RESPONSE	n/a	n/a	n/a	n/a	n/a	n/a	n/a	blue
164.4335	1.0167	ITI	n/a	n/a	n/a	n/a	n/a	n/a	n/a	n/a
165.4502	0.5167	FIXCROSS	n/a	n/a	n/a	n/a	n/a	n/a	n/a	n/a
165.9668	0.5333	INK	33	Incongruent	zielony	green	czerwony	red	hit	n/a
166.482	n/a	RESPONSE	n/a	n/a	n/a	n/a	n/a	n/a	n/a	red
166.5002	1.0167	ITI	n/a	n/a	n/a	n/a	n/a	n/a	n/a	n/a
167.5168	0.5167	FIXCROSS	n/a	n/a	n/a	n/a	n/a	n/a	n/a	n/a
168.0335	0.6333	INK	34	Incongruent	żółty	yellow	czerwony	red	hit	n/a
168.6391	n/a	RESPONSE	n/a	n/a	n/a	n/a	n/a	n/a	n/a	red
168.6669	1.0167	ITI	n/a	n/a	n/a	n/a	n/a	n/a	n/a	n/a
169.6835	0.5167	FIXCROSS	n/a	n/a	n/a	n/a	n/a	n/a	n/a	n/a
170.2002	0.5333	INK	35	Neutral	xxxxxxxx	xxxxxxxx	niebieski	blue	hit	n/a
170.7005	n/a	RESPONSE	n/a	n/a	n/a	n/a	n/a	n/a	n/a	blue
170.7335	1.0167	ITI	n/a	n/a	n/a	n/a	n/a	n/a	n/a	n/a
171.7502	0.5167	FIXCROSS	n/a	n/a	n/a	n/a	n/a	n/a	n/a	n/a
172.2669	0.8833	INK	36	Incongruent	żółty	yellow	niebieski	blue	hit	n/a
173.1292	n/a	RESPONSE	n/a	n/a	n/a	n/a	n/a	n/a	n/a	blue
173.1502	1.0167	ITI	n/a	n/a	n/a	n/a	n/a	n/a	n/a	n/a
174.1669	0.5167	FIXCROSS	n/a	n/a	n/a	n/a	n/a	n/a	n/a	n/a
174.6836	0.6667	INK	37	Incongruent	żółty	yellow	czerwony	red	hit	n/a
175.3183	n/a	RESPONSE	n/a	n/a	n/a	n/a	n/a	n/a	n/a	red
175.3502	1.0167	ITI	n/a	n/a	n/a	n/a	n/a	n/a	n/a	n/a
176.3669	0.5167	FIXCROSS	n/a	n/a	n/a	n/a	n/a	n/a	n/a	n/a
176.8836	0.4333	INK	38	Incongruent	żółty	yellow	zielony	green	hit	n/a
177.2997	n/a	RESPONSE	n/a	n/a	n/a	n/a	n/a	n/a	n/a	green
177.3169	1.0167	ITI	n/a	n/a	n/a	n/a	n/a	n/a	n/a	n/a
178.3336	0.5167	FIXCROSS	n/a	n/a	n/a	n/a	n/a	n/a	n/a	n/a
178.8503	0.4667	INK	39	Incongruent	zielony	green	żółty	yellow	hit	n/a
179.297	n/a	RESPONSE	n/a	n/a	n/a	n/a	n/a	n/a	n/a	yellow
179.3169	1.0166	ITI	n/a	n/a	n/a	n/a	n/a	n/a	n/a	n/a
180.3335	0.5168	FIXCROSS	n/a	n/a	n/a	n/a	n/a	n/a	n/a	n/a
180.8503	0.7	INK	40	Neutral	xxxxxxxx	xxxxxxxx	niebieski	blue	hit	n/a
181.518	n/a	RESPONSE	n/a	n/a	n/a	n/a	n/a	n/a	n/a	blue
181.5503	1.0167	ITI	n/a	n/a	n/a	n/a	n/a	n/a	n/a	n/a
182.567	0.5167	FIXCROSS	n/a	n/a	n/a	n/a	n/a	n/a	n/a	n/a
183.0836	0.6167	INK	41	Neutral	xxxxx	xxxxx	zielony	green	incorrect	n/a
183.6751	n/a	RESPONSE	n/a	n/a	n/a	n/a	n/a	n/a	n/a	red
183.7003	1.0167	ITI	n/a	n/a	n/a	n/a	n/a	n/a	n/a	n/a
184.717	0.5167	FIXCROSS	n/a	n/a	n/a	n/a	n/a	n/a	n/a	n/a
185.2336	0.55	INK	42	Neutral	xxxxxxx	xxxxxxx	czerwony	red	hit	n/a
185.7523	n/a	RESPONSE	n/a	n/a	n/a	n/a	n/a	n/a	n/a	red
185.7837	1.0167	ITI	n/a	n/a	n/a	n/a	n/a	n/a	n/a	n/a
186.8003	0.5167	FIXCROSS	n/a	n/a	n/a	n/a	n/a	n/a	n/a	n/a
187.317	0.6333	INK	43	Neutral	xxxxxxxxx	xxxxxxxxx	żółty	yellow	hit	n/a
187.9254	n/a	RESPONSE	n/a	n/a	n/a	n/a	n/a	n/a	n/a	yellow
187.9503	1.0167	ITI	n/a	n/a	n/a	n/a	n/a	n/a	n/a	n/a
188.967	0.5167	FIXCROSS	n/a	n/a	n/a	n/a	n/a	n/a	n/a	n/a
189.4837	0.4667	INK	44	Incongruent	niebieski	blue	zielony	green	hit	n/a
189.9227	n/a	RESPONSE	n/a	n/a	n/a	n/a	n/a	n/a	n/a	green
189.9503	1.0167	ITI	n/a	n/a	n/a	n/a	n/a	n/a	n/a	n/a
190.967	0.5167	FIXCROSS	n/a	n/a	n/a	n/a	n/a	n/a	n/a	n/a
191.4837	0.5167	INK	45	Neutral	xxxxxxx	xxxxxxx	niebieski	blue	incorrect	n/a
191.9681	n/a	RESPONSE	n/a	n/a	n/a	n/a	n/a	n/a	n/a	red
192.0004	1.0167	ITI	n/a	n/a	n/a	n/a	n/a	n/a	n/a	n/a
193.017	0.5167	FIXCROSS	n/a	n/a	n/a	n/a	n/a	n/a	n/a	n/a
193.5337	0.5167	INK	46	Incongruent	niebieski	blue	czerwony	red	hit	n/a
194.0293	n/a	RESPONSE	n/a	n/a	n/a	n/a	n/a	n/a	n/a	red
194.0504	1.0167	ITI	n/a	n/a	n/a	n/a	n/a	n/a	n/a	n/a
195.067	0.5167	FIXCROSS	n/a	n/a	n/a	n/a	n/a	n/a	n/a	n/a
195.5837	0.5667	INK	47	Neutral	xxxxxxxx	xxxxxxxx	żółty	yellow	hit	n/a
196.1226	n/a	RESPONSE	n/a	n/a	n/a	n/a	n/a	n/a	n/a	yellow
196.1504	1.0167	ITI	n/a	n/a	n/a	n/a	n/a	n/a	n/a	n/a
197.1671	0.5167	FIXCROSS	n/a	n/a	n/a	n/a	n/a	n/a	n/a	n/a
197.6837	0.6333	INK	48	Neutral	xxxxxxx	xxxxxxx	żółty	yellow	hit	n/a
198.2956	n/a	RESPONSE	n/a	n/a	n/a	n/a	n/a	n/a	n/a	yellow
198.3171	1.0167	ITI	n/a	n/a	n/a	n/a	n/a	n/a	n/a	n/a
199.3337	0.5167	FIXCROSS	n/a	n/a	n/a	n/a	n/a	n/a	n/a	n/a
199.8504	0.7	INK	49	Incongruent	zielony	green	niebieski	blue	hit	n/a
200.5166	n/a	RESPONSE	n/a	n/a	n/a	n/a	n/a	n/a	n/a	blue
200.5504	1.0167	ITI	n/a	n/a	n/a	n/a	n/a	n/a	n/a	n/a
201.5671	0.5167	FIXCROSS	n/a	n/a	n/a	n/a	n/a	n/a	n/a	n/a
202.0838	0.6167	INK	50	Incongruent	czerwony	red	niebieski	blue	hit	n/a
202.6739	n/a	RESPONSE	n/a	n/a	n/a	n/a	n/a	n/a	n/a	blue
202.7004	1.0167	ITI	n/a	n/a	n/a	n/a	n/a	n/a	n/a	n/a
203.7171	0.5167	FIXCROSS	n/a	n/a	n/a	n/a	n/a	n/a	n/a	n/a
204.2338	0.5667	INK	51	Incongruent	czerwony	red	zielony	green	hit	n/a
204.7671	n/a	RESPONSE	n/a	n/a	n/a	n/a	n/a	n/a	n/a	green
204.8005	1.0167	ITI	n/a	n/a	n/a	n/a	n/a	n/a	n/a	n/a
205.8171	0.5167	FIXCROSS	n/a	n/a	n/a	n/a	n/a	n/a	n/a	n/a
206.3338	0.4833	INK	52	Incongruent	czerwony	red	żółty	yellow	hit	n/a
206.7963	n/a	RESPONSE	n/a	n/a	n/a	n/a	n/a	n/a	n/a	yellow
206.8171	1.0167	ITI	n/a	n/a	n/a	n/a	n/a	n/a	n/a	n/a
207.8338	0.5167	FIXCROSS	n/a	n/a	n/a	n/a	n/a	n/a	n/a	n/a
208.3505	0.65	INK	53	Neutral	xxxxxxx	xxxxxxx	niebieski	blue	hit	n/a
208.9695	n/a	RESPONSE	n/a	n/a	n/a	n/a	n/a	n/a	n/a	blue
209.0005	1.0167	ITI	n/a	n/a	n/a	n/a	n/a	n/a	n/a	n/a
210.0172	0.5167	FIXCROSS	n/a	n/a	n/a	n/a	n/a	n/a	n/a	n/a
210.5338	0.45	INK	54	Incongruent	niebieski	blue	zielony	green	hit	n/a
210.9508	n/a	RESPONSE	n/a	n/a	n/a	n/a	n/a	n/a	n/a	green
210.9838	1.0167	ITI	n/a	n/a	n/a	n/a	n/a	n/a	n/a	n/a
212.0005	0.5167	FIXCROSS	n/a	n/a	n/a	n/a	n/a	n/a	n/a	n/a
212.5172	0.4833	INK	55	Neutral	xxxxxxxx	xxxxxxxx	żółty	yellow	hit	n/a
212.9801	n/a	RESPONSE	n/a	n/a	n/a	n/a	n/a	n/a	n/a	yellow
213.0005	1.0167	ITI	n/a	n/a	n/a	n/a	n/a	n/a	n/a	n/a
214.0172	0.5167	FIXCROSS	n/a	n/a	n/a	n/a	n/a	n/a	n/a	n/a
214.5339	0.55	INK	56	Incongruent	czerwony	red	zielony	green	hit	n/a
215.0573	n/a	RESPONSE	n/a	n/a	n/a	n/a	n/a	n/a	n/a	green
215.0839	1.0167	ITI	n/a	n/a	n/a	n/a	n/a	n/a	n/a	n/a
216.1005	0.5167	FIXCROSS	n/a	n/a	n/a	n/a	n/a	n/a	n/a	n/a
216.6172	0.5	INK	57	Neutral	xxxxx	xxxxx	niebieski	blue	hit	n/a
217.0867	n/a	RESPONSE	n/a	n/a	n/a	n/a	n/a	n/a	n/a	blue
217.1172	1.0167	ITI	n/a	n/a	n/a	n/a	n/a	n/a	n/a	n/a
218.1339	0.5167	FIXCROSS	n/a	n/a	n/a	n/a	n/a	n/a	n/a	n/a
218.6506	0.55	INK	58	Incongruent	zielony	green	żółty	yellow	hit	n/a
219.1798	n/a	RESPONSE	n/a	n/a	n/a	n/a	n/a	n/a	n/a	yellow
219.2006	1.0167	ITI	n/a	n/a	n/a	n/a	n/a	n/a	n/a	n/a
220.2172	0.5167	FIXCROSS	n/a	n/a	n/a	n/a	n/a	n/a	n/a	n/a
220.7339	0.6833	INK	59	Incongruent	niebieski	blue	zielony	green	hit	n/a
221.3849	n/a	RESPONSE	n/a	n/a	n/a	n/a	n/a	n/a	n/a	green
221.4172	1.0167	ITI	n/a	n/a	n/a	n/a	n/a	n/a	n/a	n/a
222.4339	0.5167	FIXCROSS	n/a	n/a	n/a	n/a	n/a	n/a	n/a	n/a
222.9506	0.8667	INK	60	Neutral	xxxxxxxxx	xxxxxxxxx	zielony	green	hit	n/a
223.7976	n/a	RESPONSE	n/a	n/a	n/a	n/a	n/a	n/a	n/a	green
223.8173	1.0167	ITI	n/a	n/a	n/a	n/a	n/a	n/a	n/a	n/a
224.8339	0.5167	FIXCROSS	n/a	n/a	n/a	n/a	n/a	n/a	n/a	n/a
225.3506	0.6333	INK	61	Incongruent	żółty	yellow	zielony	green	hit	n/a
225.9547	n/a	RESPONSE	n/a	n/a	n/a	n/a	n/a	n/a	n/a	green
225.9839	1.0167	ITI	n/a	n/a	n/a	n/a	n/a	n/a	n/a	n/a
227.0006	0.5167	FIXCROSS	n/a	n/a	n/a	n/a	n/a	n/a	n/a	n/a
227.5173	0.4833	INK	62	Incongruent	żółty	yellow	czerwony	red	hit	n/a
227.9681	n/a	RESPONSE	n/a	n/a	n/a	n/a	n/a	n/a	n/a	red
228.0006	1.0167	ITI	n/a	n/a	n/a	n/a	n/a	n/a	n/a	n/a
229.0173	0.5167	FIXCROSS	n/a	n/a	n/a	n/a	n/a	n/a	n/a	n/a
229.534	0.6	INK	63	Incongruent	niebieski	blue	żółty	yellow	hit	n/a
230.1093	n/a	RESPONSE	n/a	n/a	n/a	n/a	n/a	n/a	n/a	yellow
230.134	1.0167	ITI	n/a	n/a	n/a	n/a	n/a	n/a	n/a	n/a
231.1506	0.5167	FIXCROSS	n/a	n/a	n/a	n/a	n/a	n/a	n/a	n/a
231.6673	0.65	INK	64	Neutral	xxxxxxx	xxxxxxx	żółty	yellow	hit	n/a
232.2983	n/a	RESPONSE	n/a	n/a	n/a	n/a	n/a	n/a	n/a	yellow
232.3173	1.0167	ITI	n/a	n/a	n/a	n/a	n/a	n/a	n/a	n/a
233.334	0.5167	FIXCROSS	n/a	n/a	n/a	n/a	n/a	n/a	n/a	n/a
233.8507	0.6167	INK	65	Neutral	xxxxxxx	xxxxxxx	niebieski	blue	hit	n/a
234.4394	n/a	RESPONSE	n/a	n/a	n/a	n/a	n/a	n/a	n/a	blue
234.4673	1.0167	ITI	n/a	n/a	n/a	n/a	n/a	n/a	n/a	n/a
235.484	0.5167	FIXCROSS	n/a	n/a	n/a	n/a	n/a	n/a	n/a	n/a
236.0007	0.75	INK	66	Neutral	xxxxxxxx	xxxxxxxx	żółty	yellow	hit	n/a
236.7243	n/a	RESPONSE	n/a	n/a	n/a	n/a	n/a	n/a	n/a	yellow
236.7507	1.0167	ITI	n/a	n/a	n/a	n/a	n/a	n/a	n/a	n/a
237.7674	0.5167	FIXCROSS	n/a	n/a	n/a	n/a	n/a	n/a	n/a	n/a
238.284	0.4167	INK	67	Neutral	xxxxxxxxx	xxxxxxxxx	żółty	yellow	hit	n/a
238.6738	n/a	RESPONSE	n/a	n/a	n/a	n/a	n/a	n/a	n/a	yellow
238.7007	1.0167	ITI	n/a	n/a	n/a	n/a	n/a	n/a	n/a	n/a
239.7174	0.5167	FIXCROSS	n/a	n/a	n/a	n/a	n/a	n/a	n/a	n/a
240.234	0.4167	INK	68	Neutral	xxxxxxx	xxxxxxx	żółty	yellow	hit	n/a
240.6232	n/a	RESPONSE	n/a	n/a	n/a	n/a	n/a	n/a	n/a	yellow
240.6507	1.0167	ITI	n/a	n/a	n/a	n/a	n/a	n/a	n/a	n/a
241.6674	0.5167	FIXCROSS	n/a	n/a	n/a	n/a	n/a	n/a	n/a	n/a
242.1841	0.55	INK	69	Incongruent	zielony	green	żółty	yellow	hit	n/a
242.7164	n/a	RESPONSE	n/a	n/a	n/a	n/a	n/a	n/a	n/a	yellow
242.7341	1.0167	ITI	n/a	n/a	n/a	n/a	n/a	n/a	n/a	n/a
243.7507	0.5167	FIXCROSS	n/a	n/a	n/a	n/a	n/a	n/a	n/a	n/a
244.2674	0.55	INK	70	Neutral	xxxxx	xxxxx	czerwony	red	hit	n/a
244.7936	n/a	RESPONSE	n/a	n/a	n/a	n/a	n/a	n/a	n/a	red
244.8174	1.0167	ITI	n/a	n/a	n/a	n/a	n/a	n/a	n/a	n/a
245.8341	0.5167	FIXCROSS	n/a	n/a	n/a	n/a	n/a	n/a	n/a	n/a
246.3508	0.6333	INK	71	Neutral	xxxxxxxxx	xxxxxxxxx	zielony	green	hit	n/a
246.9508	n/a	RESPONSE	n/a	n/a	n/a	n/a	n/a	n/a	n/a	green
246.9841	1.0167	ITI	n/a	n/a	n/a	n/a	n/a	n/a	n/a	n/a
248.0008	0.5167	FIXCROSS	n/a	n/a	n/a	n/a	n/a	n/a	n/a	n/a
248.5174	0.55	INK	72	Incongruent	zielony	green	czerwony	red	hit	n/a
249.0441	n/a	RESPONSE	n/a	n/a	n/a	n/a	n/a	n/a	n/a	red
249.0675	1.0833	ITI	n/a	n/a	n/a	n/a	n/a	n/a	n/a	n/a
278.2852	n/a	RESPONSE	n/a	n/a	n/a	n/a	n/a	n/a	n/a	n/a
278.351	1.0167	ITI	n/a	n/a	n/a	n/a	n/a	n/a	n/a	n/a
279.3677	0.5167	FIXCROSS	n/a	n/a	n/a	n/a	n/a	n/a	n/a	n/a
279.8843	1.2	T_COLOR_NAME	1	Incongruent	czerwony	red	żółty	yellow	hit	n/a
281.0495	n/a	RESPONSE	n/a	n/a	n/a	n/a	n/a	n/a	n/a	red
281.0843	0.5167	FEEDBACK	n/a	n/a	n/a	n/a	n/a	n/a	n/a	n/a
281.601	1.0167	ITI	n/a	n/a	n/a	n/a	n/a	n/a	n/a	n/a
282.6177	0.5167	FIXCROSS	n/a	n/a	n/a	n/a	n/a	n/a	n/a	n/a
283.1344	0.9667	T_COLOR_NAME	2	Incongruent	żółty	yellow	zielony	green	hit	n/a
284.0696	n/a	RESPONSE	n/a	n/a	n/a	n/a	n/a	n/a	n/a	yellow
284.101	0.5167	FEEDBACK	n/a	n/a	n/a	n/a	n/a	n/a	n/a	n/a
284.6177	1.0167	ITI	n/a	n/a	n/a	n/a	n/a	n/a	n/a	n/a
285.6344	0.5167	FIXCROSS	n/a	n/a	n/a	n/a	n/a	n/a	n/a	n/a
286.151	0.7333	T_COLOR_NAME	3	Incongruent	zielony	green	żółty	yellow	hit	n/a
286.8499	n/a	RESPONSE	n/a	n/a	n/a	n/a	n/a	n/a	n/a	green
286.8844	0.5167	FEEDBACK	n/a	n/a	n/a	n/a	n/a	n/a	n/a	n/a
287.4011	1.0167	ITI	n/a	n/a	n/a	n/a	n/a	n/a	n/a	n/a
288.4177	0.5167	FIXCROSS	n/a	n/a	n/a	n/a	n/a	n/a	n/a	n/a
288.9344	0.9333	T_COLOR_NAME	4	Neutral	zielony	green	Neutral	Neutral	hit	n/a
289.838	n/a	RESPONSE	n/a	n/a	n/a	n/a	n/a	n/a	n/a	green
289.8677	0.5167	FEEDBACK	n/a	n/a	n/a	n/a	n/a	n/a	n/a	n/a
290.3844	1.0167	ITI	n/a	n/a	n/a	n/a	n/a	n/a	n/a	n/a
291.4011	0.5167	FIXCROSS	n/a	n/a	n/a	n/a	n/a	n/a	n/a	n/a
291.9177	0.5833	T_COLOR_NAME	5	Neutral	czerwony	red	Neutral	Neutral	hit	n/a
292.4745	n/a	RESPONSE	n/a	n/a	n/a	n/a	n/a	n/a	n/a	red
292.5011	0.5167	FEEDBACK	n/a	n/a	n/a	n/a	n/a	n/a	n/a	n/a
293.0178	1.0167	ITI	n/a	n/a	n/a	n/a	n/a	n/a	n/a	n/a
294.0344	0.5167	FIXCROSS	n/a	n/a	n/a	n/a	n/a	n/a	n/a	n/a
294.5511	0.9	T_COLOR_NAME	6	Incongruent	zielony	green	czerwony	red	hit	n/a
295.4306	n/a	RESPONSE	n/a	n/a	n/a	n/a	n/a	n/a	n/a	green
295.4511	0.5167	FEEDBACK	n/a	n/a	n/a	n/a	n/a	n/a	n/a	n/a
295.9678	1.0167	ITI	n/a	n/a	n/a	n/a	n/a	n/a	n/a	n/a
296.9844	0.5167	FIXCROSS	n/a	n/a	n/a	n/a	n/a	n/a	n/a	n/a
297.5011	0.6167	T_COLOR_NAME	7	Neutral	niebieski	blue	Neutral	Neutral	hit	n/a
298.0831	n/a	RESPONSE	n/a	n/a	n/a	n/a	n/a	n/a	n/a	blue
298.1178	0.5167	FEEDBACK	n/a	n/a	n/a	n/a	n/a	n/a	n/a	n/a
298.6345	1.0167	ITI	n/a	n/a	n/a	n/a	n/a	n/a	n/a	n/a
299.6511	0.5167	FIXCROSS	n/a	n/a	n/a	n/a	n/a	n/a	n/a	n/a
300.1678	0.7667	T_COLOR_NAME	8	Incongruent	żółty	yellow	czerwony	red	hit	n/a
300.9115	n/a	RESPONSE	n/a	n/a	n/a	n/a	n/a	n/a	n/a	yellow
300.9345	0.5167	FEEDBACK	n/a	n/a	n/a	n/a	n/a	n/a	n/a	n/a
301.4511	1.0167	ITI	n/a	n/a	n/a	n/a	n/a	n/a	n/a	n/a
302.4678	0.5167	FIXCROSS	n/a	n/a	n/a	n/a	n/a	n/a	n/a	n/a
302.9845	0.6667	T_COLOR_NAME	9	Neutral	żółty	yellow	Neutral	Neutral	hit	n/a
303.6278	n/a	RESPONSE	n/a	n/a	n/a	n/a	n/a	n/a	n/a	yellow
303.6512	0.5167	FEEDBACK	n/a	n/a	n/a	n/a	n/a	n/a	n/a	n/a
304.1678	1.0167	ITI	n/a	n/a	n/a	n/a	n/a	n/a	n/a	n/a
305.1845	0.5167	FIXCROSS	n/a	n/a	n/a	n/a	n/a	n/a	n/a	n/a
305.7012	0.8333	T_COLOR_NAME	10	Neutral	zielony	green	Neutral	Neutral	hit	n/a
306.504	n/a	RESPONSE	n/a	n/a	n/a	n/a	n/a	n/a	n/a	green
306.5345	0.5167	FEEDBACK	n/a	n/a	n/a	n/a	n/a	n/a	n/a	n/a
307.0512	1.0167	ITI	n/a	n/a	n/a	n/a	n/a	n/a	n/a	n/a
308.0679	0.5167	FIXCROSS	n/a	n/a	n/a	n/a	n/a	n/a	n/a	n/a
308.5845	0.7	T_COLOR_NAME	11	Neutral	niebieski	blue	Neutral	Neutral	incorrect	n/a
309.2523	n/a	RESPONSE	n/a	n/a	n/a	n/a	n/a	n/a	n/a	red
309.2845	0.5167	FEEDBACK	n/a	n/a	n/a	n/a	n/a	n/a	n/a	n/a
309.8012	1.0167	ITI	n/a	n/a	n/a	n/a	n/a	n/a	n/a	n/a
310.8179	0.5167	FIXCROSS	n/a	n/a	n/a	n/a	n/a	n/a	n/a	n/a
311.3346	0.8833	T_COLOR_NAME	12	Incongruent	czerwony	red	zielony	green	hit	n/a
312.1924	n/a	RESPONSE	n/a	n/a	n/a	n/a	n/a	n/a	n/a	red
312.2179	0.5167	FEEDBACK	n/a	n/a	n/a	n/a	n/a	n/a	n/a	n/a
312.7346	1.0333	ITI	n/a	n/a	n/a	n/a	n/a	n/a	n/a	n/a
316.0274	n/a	RESPONSE	n/a	n/a	n/a	n/a	n/a	n/a	n/a	n/a
316.0846	1.0167	ITI	n/a	n/a	n/a	n/a	n/a	n/a	n/a	n/a
317.1013	0.5167	FIXCROSS	n/a	n/a	n/a	n/a	n/a	n/a	n/a	n/a
317.6179	1.2333	COLOR_NAME	1	Incongruent	czerwony	red	niebieski	blue	hit	n/a
318.8237	n/a	RESPONSE	n/a	n/a	n/a	n/a	n/a	n/a	n/a	red
318.8512	1.0167	ITI	n/a	n/a	n/a	n/a	n/a	n/a	n/a	n/a
319.8679	0.5167	FIXCROSS	n/a	n/a	n/a	n/a	n/a	n/a	n/a	n/a
320.3846	0.6833	COLOR_NAME	2	Incongruent	żółty	yellow	zielony	green	hit	n/a
321.0448	n/a	RESPONSE	n/a	n/a	n/a	n/a	n/a	n/a	n/a	yellow
321.068	1.0167	ITI	n/a	n/a	n/a	n/a	n/a	n/a	n/a	n/a
322.0846	0.5167	FIXCROSS	n/a	n/a	n/a	n/a	n/a	n/a	n/a	n/a
322.6013	0.7	COLOR_NAME	3	Neutral	czerwony	red	Neutral	Neutral	hit	n/a
323.2818	n/a	RESPONSE	n/a	n/a	n/a	n/a	n/a	n/a	n/a	red
323.3013	1.0167	ITI	n/a	n/a	n/a	n/a	n/a	n/a	n/a	n/a
324.318	0.5167	FIXCROSS	n/a	n/a	n/a	n/a	n/a	n/a	n/a	n/a
324.8347	0.6667	COLOR_NAME	4	Neutral	żółty	yellow	Neutral	Neutral	hit	n/a
325.471	n/a	RESPONSE	n/a	n/a	n/a	n/a	n/a	n/a	n/a	yellow
325.5013	1.0167	ITI	n/a	n/a	n/a	n/a	n/a	n/a	n/a	n/a
326.518	0.5167	FIXCROSS	n/a	n/a	n/a	n/a	n/a	n/a	n/a	n/a
327.0347	0.6	COLOR_NAME	5	Neutral	żółty	yellow	Neutral	Neutral	hit	n/a
327.5961	n/a	RESPONSE	n/a	n/a	n/a	n/a	n/a	n/a	n/a	yellow
327.6347	1.0167	ITI	n/a	n/a	n/a	n/a	n/a	n/a	n/a	n/a
328.6513	0.5167	FIXCROSS	n/a	n/a	n/a	n/a	n/a	n/a	n/a	n/a
329.168	0.6167	COLOR_NAME	6	Neutral	niebieski	blue	Neutral	Neutral	hit	n/a
329.7534	n/a	RESPONSE	n/a	n/a	n/a	n/a	n/a	n/a	n/a	blue
329.7847	1.0167	ITI	n/a	n/a	n/a	n/a	n/a	n/a	n/a	n/a
330.8014	0.5167	FIXCROSS	n/a	n/a	n/a	n/a	n/a	n/a	n/a	n/a
331.318	0.65	COLOR_NAME	7	Neutral	żółty	yellow	Neutral	Neutral	hit	n/a
331.9424	n/a	RESPONSE	n/a	n/a	n/a	n/a	n/a	n/a	n/a	yellow
331.968	1.0167	ITI	n/a	n/a	n/a	n/a	n/a	n/a	n/a	n/a
332.9847	0.5167	FIXCROSS	n/a	n/a	n/a	n/a	n/a	n/a	n/a	n/a
333.5014	0.85	COLOR_NAME	8	Incongruent	zielony	green	żółty	yellow	hit	n/a
334.3233	n/a	RESPONSE	n/a	n/a	n/a	n/a	n/a	n/a	n/a	green
334.3514	1.0167	ITI	n/a	n/a	n/a	n/a	n/a	n/a	n/a	n/a
335.3681	0.5167	FIXCROSS	n/a	n/a	n/a	n/a	n/a	n/a	n/a	n/a
335.8847	0.6333	COLOR_NAME	9	Incongruent	zielony	green	niebieski	blue	hit	n/a
336.4964	n/a	RESPONSE	n/a	n/a	n/a	n/a	n/a	n/a	n/a	green
336.5181	1.0167	ITI	n/a	n/a	n/a	n/a	n/a	n/a	n/a	n/a
337.5347	0.5167	FIXCROSS	n/a	n/a	n/a	n/a	n/a	n/a	n/a	n/a
338.0514	0.7	COLOR_NAME	10	Incongruent	czerwony	red	zielony	green	hit	n/a
338.7335	n/a	RESPONSE	n/a	n/a	n/a	n/a	n/a	n/a	n/a	red
338.7514	1.0167	ITI	n/a	n/a	n/a	n/a	n/a	n/a	n/a	n/a
339.7681	0.5167	FIXCROSS	n/a	n/a	n/a	n/a	n/a	n/a	n/a	n/a
340.2848	0.8	COLOR_NAME	11	Incongruent	czerwony	red	żółty	yellow	hit	n/a
341.0664	n/a	RESPONSE	n/a	n/a	n/a	n/a	n/a	n/a	n/a	red
341.0848	1.0167	ITI	n/a	n/a	n/a	n/a	n/a	n/a	n/a	n/a
342.1014	0.5167	FIXCROSS	n/a	n/a	n/a	n/a	n/a	n/a	n/a	n/a
342.6181	0.6667	COLOR_NAME	12	Incongruent	żółty	yellow	czerwony	red	hit	n/a
343.2555	n/a	RESPONSE	n/a	n/a	n/a	n/a	n/a	n/a	n/a	yellow
343.2848	1.0167	ITI	n/a	n/a	n/a	n/a	n/a	n/a	n/a	n/a
344.3015	0.5167	FIXCROSS	n/a	n/a	n/a	n/a	n/a	n/a	n/a	n/a
344.8181	0.7667	COLOR_NAME	13	Incongruent	zielony	green	żółty	yellow	hit	n/a
345.5564	n/a	RESPONSE	n/a	n/a	n/a	n/a	n/a	n/a	n/a	green
345.5848	1.0167	ITI	n/a	n/a	n/a	n/a	n/a	n/a	n/a	n/a
346.6015	0.5167	FIXCROSS	n/a	n/a	n/a	n/a	n/a	n/a	n/a	n/a
347.1181	0.4833	COLOR_NAME	14	Incongruent	zielony	green	niebieski	blue	hit	n/a
347.5699	n/a	RESPONSE	n/a	n/a	n/a	n/a	n/a	n/a	n/a	green
347.6015	1.0167	ITI	n/a	n/a	n/a	n/a	n/a	n/a	n/a	n/a
348.6181	0.5167	FIXCROSS	n/a	n/a	n/a	n/a	n/a	n/a	n/a	n/a
349.1348	0.5833	COLOR_NAME	15	Neutral	zielony	green	Neutral	Neutral	hit	n/a
349.695	n/a	RESPONSE	n/a	n/a	n/a	n/a	n/a	n/a	n/a	green
349.7182	1.0167	ITI	n/a	n/a	n/a	n/a	n/a	n/a	n/a	n/a
350.7348	0.5167	FIXCROSS	n/a	n/a	n/a	n/a	n/a	n/a	n/a	n/a
351.2515	0.6	COLOR_NAME	16	Neutral	żółty	yellow	Neutral	Neutral	hit	n/a
351.8202	n/a	RESPONSE	n/a	n/a	n/a	n/a	n/a	n/a	n/a	yellow
351.8515	1.0167	ITI	n/a	n/a	n/a	n/a	n/a	n/a	n/a	n/a
352.8682	0.5167	FIXCROSS	n/a	n/a	n/a	n/a	n/a	n/a	n/a	n/a
353.3848	0.6167	COLOR_NAME	17	Neutral	czerwony	red	Neutral	Neutral	hit	n/a
353.9773	n/a	RESPONSE	n/a	n/a	n/a	n/a	n/a	n/a	n/a	red
354.0015	1.0167	ITI	n/a	n/a	n/a	n/a	n/a	n/a	n/a	n/a
355.0182	0.5167	FIXCROSS	n/a	n/a	n/a	n/a	n/a	n/a	n/a	n/a
355.5349	0.5167	COLOR_NAME	18	Incongruent	niebieski	blue	żółty	yellow	hit	n/a
356.0228	n/a	RESPONSE	n/a	n/a	n/a	n/a	n/a	n/a	n/a	blue
356.0515	1.0167	ITI	n/a	n/a	n/a	n/a	n/a	n/a	n/a	n/a
357.0682	0.5167	FIXCROSS	n/a	n/a	n/a	n/a	n/a	n/a	n/a	n/a
357.5849	0.6667	COLOR_NAME	19	Incongruent	zielony	green	niebieski	blue	hit	n/a
358.2277	n/a	RESPONSE	n/a	n/a	n/a	n/a	n/a	n/a	n/a	green
358.2515	1.0167	ITI	n/a	n/a	n/a	n/a	n/a	n/a	n/a	n/a
359.2682	0.5167	FIXCROSS	n/a	n/a	n/a	n/a	n/a	n/a	n/a	n/a
359.7849	0.65	COLOR_NAME	20	Incongruent	czerwony	red	żółty	yellow	hit	n/a
360.4169	n/a	RESPONSE	n/a	n/a	n/a	n/a	n/a	n/a	n/a	red
360.4349	1.0167	ITI	n/a	n/a	n/a	n/a	n/a	n/a	n/a	n/a
361.4516	0.5167	FIXCROSS	n/a	n/a	n/a	n/a	n/a	n/a	n/a	n/a
361.9682	0.7167	COLOR_NAME	21	Neutral	niebieski	blue	Neutral	Neutral	hit	n/a
362.654	n/a	RESPONSE	n/a	n/a	n/a	n/a	n/a	n/a	n/a	blue
362.6849	1.0167	ITI	n/a	n/a	n/a	n/a	n/a	n/a	n/a	n/a
363.7016	0.5167	FIXCROSS	n/a	n/a	n/a	n/a	n/a	n/a	n/a	n/a
364.2183	0.5167	COLOR_NAME	22	Neutral	czerwony	red	Neutral	Neutral	hit	n/a
364.7152	n/a	RESPONSE	n/a	n/a	n/a	n/a	n/a	n/a	n/a	red
364.7349	1.0167	ITI	n/a	n/a	n/a	n/a	n/a	n/a	n/a	n/a
365.7516	0.5167	FIXCROSS	n/a	n/a	n/a	n/a	n/a	n/a	n/a	n/a
366.2683	1.0333	COLOR_NAME	23	Incongruent	zielony	green	żółty	yellow	hit	n/a
367.2719	n/a	RESPONSE	n/a	n/a	n/a	n/a	n/a	n/a	n/a	green
367.3016	1.0167	ITI	n/a	n/a	n/a	n/a	n/a	n/a	n/a	n/a
368.3183	0.5167	FIXCROSS	n/a	n/a	n/a	n/a	n/a	n/a	n/a	n/a
368.835	0.7	COLOR_NAME	24	Neutral	zielony	green	Neutral	Neutral	hit	n/a
369.5089	n/a	RESPONSE	n/a	n/a	n/a	n/a	n/a	n/a	n/a	green
369.535	1.0167	ITI	n/a	n/a	n/a	n/a	n/a	n/a	n/a	n/a
370.5516	0.5167	FIXCROSS	n/a	n/a	n/a	n/a	n/a	n/a	n/a	n/a
371.0683	0.6333	COLOR_NAME	25	Incongruent	żółty	yellow	zielony	green	hit	n/a
371.6821	n/a	RESPONSE	n/a	n/a	n/a	n/a	n/a	n/a	n/a	yellow
371.7016	1.0167	ITI	n/a	n/a	n/a	n/a	n/a	n/a	n/a	n/a
372.7183	0.5167	FIXCROSS	n/a	n/a	n/a	n/a	n/a	n/a	n/a	n/a
373.235	0.7167	COLOR_NAME	26	Incongruent	żółty	yellow	zielony	green	hit	n/a
373.9191	n/a	RESPONSE	n/a	n/a	n/a	n/a	n/a	n/a	n/a	yellow
373.9517	1.0167	ITI	n/a	n/a	n/a	n/a	n/a	n/a	n/a	n/a
374.9683	0.5167	FIXCROSS	n/a	n/a	n/a	n/a	n/a	n/a	n/a	n/a
375.485	0.7167	COLOR_NAME	27	Neutral	zielony	green	Neutral	Neutral	hit	n/a
376.1721	n/a	RESPONSE	n/a	n/a	n/a	n/a	n/a	n/a	n/a	green
376.2017	1.0167	ITI	n/a	n/a	n/a	n/a	n/a	n/a	n/a	n/a
377.2184	0.5167	FIXCROSS	n/a	n/a	n/a	n/a	n/a	n/a	n/a	n/a
377.735	0.7333	COLOR_NAME	28	Incongruent	żółty	yellow	niebieski	blue	hit	n/a
378.4411	n/a	RESPONSE	n/a	n/a	n/a	n/a	n/a	n/a	n/a	yellow
378.4684	1.0167	ITI	n/a	n/a	n/a	n/a	n/a	n/a	n/a	n/a
379.485	0.5167	FIXCROSS	n/a	n/a	n/a	n/a	n/a	n/a	n/a	n/a
380.0017	0.8333	COLOR_NAME	29	Incongruent	niebieski	blue	czerwony	red	hit	n/a
380.8061	n/a	RESPONSE	n/a	n/a	n/a	n/a	n/a	n/a	n/a	blue
380.835	1.0167	ITI	n/a	n/a	n/a	n/a	n/a	n/a	n/a	n/a
381.8517	0.5167	FIXCROSS	n/a	n/a	n/a	n/a	n/a	n/a	n/a	n/a
382.3684	0.6167	COLOR_NAME	30	Incongruent	niebieski	blue	żółty	yellow	hit	n/a
382.9633	n/a	RESPONSE	n/a	n/a	n/a	n/a	n/a	n/a	n/a	blue
382.9851	1.0167	ITI	n/a	n/a	n/a	n/a	n/a	n/a	n/a	n/a
384.0017	0.5167	FIXCROSS	n/a	n/a	n/a	n/a	n/a	n/a	n/a	n/a
384.5184	0.65	COLOR_NAME	31	Neutral	czerwony	red	Neutral	Neutral	hit	n/a
385.1364	n/a	RESPONSE	n/a	n/a	n/a	n/a	n/a	n/a	n/a	red
385.1684	1.0167	ITI	n/a	n/a	n/a	n/a	n/a	n/a	n/a	n/a
386.1851	0.5167	FIXCROSS	n/a	n/a	n/a	n/a	n/a	n/a	n/a	n/a
386.7017	0.5833	COLOR_NAME	32	Incongruent	czerwony	red	niebieski	blue	hit	n/a
387.2615	n/a	RESPONSE	n/a	n/a	n/a	n/a	n/a	n/a	n/a	red
387.2851	1.0167	ITI	n/a	n/a	n/a	n/a	n/a	n/a	n/a	n/a
388.3018	0.5167	FIXCROSS	n/a	n/a	n/a	n/a	n/a	n/a	n/a	n/a
388.8184	0.85	COLOR_NAME	33	Neutral	niebieski	blue	Neutral	Neutral	hit	n/a
389.6425	n/a	RESPONSE	n/a	n/a	n/a	n/a	n/a	n/a	n/a	blue
389.6684	1.0167	ITI	n/a	n/a	n/a	n/a	n/a	n/a	n/a	n/a
390.6851	0.5167	FIXCROSS	n/a	n/a	n/a	n/a	n/a	n/a	n/a	n/a
391.2018	0.65	COLOR_NAME	34	Incongruent	żółty	yellow	niebieski	blue	hit	n/a
391.8316	n/a	RESPONSE	n/a	n/a	n/a	n/a	n/a	n/a	n/a	yellow
391.8518	1.0167	ITI	n/a	n/a	n/a	n/a	n/a	n/a	n/a	n/a
392.8685	0.5167	FIXCROSS	n/a	n/a	n/a	n/a	n/a	n/a	n/a	n/a
393.3851	0.6333	COLOR_NAME	35	Incongruent	niebieski	blue	żółty	yellow	hit	n/a
393.9887	n/a	RESPONSE	n/a	n/a	n/a	n/a	n/a	n/a	n/a	blue
394.0185	1.0167	ITI	n/a	n/a	n/a	n/a	n/a	n/a	n/a	n/a
395.0351	0.5167	FIXCROSS	n/a	n/a	n/a	n/a	n/a	n/a	n/a	n/a
395.5518	0.5333	COLOR_NAME	36	Incongruent	zielony	green	czerwony	red	hit	n/a
396.0661	n/a	RESPONSE	n/a	n/a	n/a	n/a	n/a	n/a	n/a	green
396.0851	1.0167	ITI	n/a	n/a	n/a	n/a	n/a	n/a	n/a	n/a
397.1018	0.5167	FIXCROSS	n/a	n/a	n/a	n/a	n/a	n/a	n/a	n/a
397.6185	0.6833	COLOR_NAME	37	Incongruent	niebieski	blue	czerwony	red	hit	n/a
398.2712	n/a	RESPONSE	n/a	n/a	n/a	n/a	n/a	n/a	n/a	blue
398.3018	1.0167	ITI	n/a	n/a	n/a	n/a	n/a	n/a	n/a	n/a
399.3185	0.5167	FIXCROSS	n/a	n/a	n/a	n/a	n/a	n/a	n/a	n/a
399.8352	0.6833	COLOR_NAME	38	Neutral	zielony	green	Neutral	Neutral	hit	n/a
400.4922	n/a	RESPONSE	n/a	n/a	n/a	n/a	n/a	n/a	n/a	green
400.5185	1.0167	ITI	n/a	n/a	n/a	n/a	n/a	n/a	n/a	n/a
401.5352	0.5167	FIXCROSS	n/a	n/a	n/a	n/a	n/a	n/a	n/a	n/a
402.0518	0.4333	COLOR_NAME	39	Incongruent	zielony	green	czerwony	red	hit	n/a
402.4577	n/a	RESPONSE	n/a	n/a	n/a	n/a	n/a	n/a	n/a	green
402.4852	1.0167	ITI	n/a	n/a	n/a	n/a	n/a	n/a	n/a	n/a
403.5019	0.5167	FIXCROSS	n/a	n/a	n/a	n/a	n/a	n/a	n/a	n/a
404.0185	0.4333	COLOR_NAME	40	Neutral	zielony	green	Neutral	Neutral	hit	n/a
404.4232	n/a	RESPONSE	n/a	n/a	n/a	n/a	n/a	n/a	n/a	green
404.4519	1.0167	ITI	n/a	n/a	n/a	n/a	n/a	n/a	n/a	n/a
405.4685	0.5167	FIXCROSS	n/a	n/a	n/a	n/a	n/a	n/a	n/a	n/a
405.9852	0.7333	COLOR_NAME	41	Incongruent	niebieski	blue	zielony	green	hit	n/a
406.6921	n/a	RESPONSE	n/a	n/a	n/a	n/a	n/a	n/a	n/a	blue
406.7185	1.0167	ITI	n/a	n/a	n/a	n/a	n/a	n/a	n/a	n/a
407.7352	0.5167	FIXCROSS	n/a	n/a	n/a	n/a	n/a	n/a	n/a	n/a
408.2519	0.4667	COLOR_NAME	42	Neutral	niebieski	blue	Neutral	Neutral	hit	n/a
408.6895	n/a	RESPONSE	n/a	n/a	n/a	n/a	n/a	n/a	n/a	blue
408.7186	1.0167	ITI	n/a	n/a	n/a	n/a	n/a	n/a	n/a	n/a
409.7352	0.5167	FIXCROSS	n/a	n/a	n/a	n/a	n/a	n/a	n/a	n/a
410.2519	0.6333	COLOR_NAME	43	Neutral	żółty	yellow	Neutral	Neutral	hit	n/a
410.8626	n/a	RESPONSE	n/a	n/a	n/a	n/a	n/a	n/a	n/a	yellow
410.8853	1.0167	ITI	n/a	n/a	n/a	n/a	n/a	n/a	n/a	n/a
411.9019	0.5167	FIXCROSS	n/a	n/a	n/a	n/a	n/a	n/a	n/a	n/a
412.4186	0.4833	COLOR_NAME	44	Neutral	czerwony	red	Neutral	Neutral	hit	n/a
412.876	n/a	RESPONSE	n/a	n/a	n/a	n/a	n/a	n/a	n/a	red
412.9019	1.0167	ITI	n/a	n/a	n/a	n/a	n/a	n/a	n/a	n/a
413.9186	0.5167	FIXCROSS	n/a	n/a	n/a	n/a	n/a	n/a	n/a	n/a
414.4353	0.5833	COLOR_NAME	45	Incongruent	czerwony	red	zielony	green	hit	n/a
415.0012	n/a	RESPONSE	n/a	n/a	n/a	n/a	n/a	n/a	n/a	red
415.0186	1.0167	ITI	n/a	n/a	n/a	n/a	n/a	n/a	n/a	n/a
416.0353	0.5167	FIXCROSS	n/a	n/a	n/a	n/a	n/a	n/a	n/a	n/a
416.552	0.9333	COLOR_NAME	46	Neutral	zielony	green	Neutral	Neutral	hit	n/a
417.462	n/a	RESPONSE	n/a	n/a	n/a	n/a	n/a	n/a	n/a	green
417.4853	1.0167	ITI	n/a	n/a	n/a	n/a	n/a	n/a	n/a	n/a
418.502	0.5167	FIXCROSS	n/a	n/a	n/a	n/a	n/a	n/a	n/a	n/a
419.0186	0.7167	COLOR_NAME	47	Incongruent	żółty	yellow	czerwony	red	hit	n/a
419.715	n/a	RESPONSE	n/a	n/a	n/a	n/a	n/a	n/a	n/a	yellow
419.7353	1.0167	ITI	n/a	n/a	n/a	n/a	n/a	n/a	n/a	n/a
420.752	0.5167	FIXCROSS	n/a	n/a	n/a	n/a	n/a	n/a	n/a	n/a
421.2687	0.6833	COLOR_NAME	48	Neutral	niebieski	blue	Neutral	Neutral	hit	n/a
421.9201	n/a	RESPONSE	n/a	n/a	n/a	n/a	n/a	n/a	n/a	blue
421.952	1.0167	ITI	n/a	n/a	n/a	n/a	n/a	n/a	n/a	n/a
422.9687	0.5167	FIXCROSS	n/a	n/a	n/a	n/a	n/a	n/a	n/a	n/a
423.4853	0.7333	COLOR_NAME	49	Neutral	czerwony	red	Neutral	Neutral	hit	n/a
424.1891	n/a	RESPONSE	n/a	n/a	n/a	n/a	n/a	n/a	n/a	red
424.2187	1.0167	ITI	n/a	n/a	n/a	n/a	n/a	n/a	n/a	n/a
425.2353	0.5167	FIXCROSS	n/a	n/a	n/a	n/a	n/a	n/a	n/a	n/a
425.752	0.7167	COLOR_NAME	50	Incongruent	niebieski	blue	zielony	green	hit	n/a
426.4422	n/a	RESPONSE	n/a	n/a	n/a	n/a	n/a	n/a	n/a	blue
426.4687	1.0167	ITI	n/a	n/a	n/a	n/a	n/a	n/a	n/a	n/a
427.4854	0.5167	FIXCROSS	n/a	n/a	n/a	n/a	n/a	n/a	n/a	n/a
428.002	0.5667	COLOR_NAME	51	Neutral	niebieski	blue	Neutral	Neutral	hit	n/a
428.5513	n/a	RESPONSE	n/a	n/a	n/a	n/a	n/a	n/a	n/a	blue
428.5687	1.0167	ITI	n/a	n/a	n/a	n/a	n/a	n/a	n/a	n/a
429.5854	0.5167	FIXCROSS	n/a	n/a	n/a	n/a	n/a	n/a	n/a	n/a
430.1021	0.5	COLOR_NAME	52	Neutral	zielony	green	Neutral	Neutral	hit	n/a
430.5806	n/a	RESPONSE	n/a	n/a	n/a	n/a	n/a	n/a	n/a	green
430.602	1.0167	ITI	n/a	n/a	n/a	n/a	n/a	n/a	n/a	n/a
431.6187	0.5167	FIXCROSS	n/a	n/a	n/a	n/a	n/a	n/a	n/a	n/a
432.1354	0.6167	COLOR_NAME	53	Incongruent	żółty	yellow	niebieski	blue	hit	n/a
432.7219	n/a	RESPONSE	n/a	n/a	n/a	n/a	n/a	n/a	n/a	yellow
432.7521	1.0167	ITI	n/a	n/a	n/a	n/a	n/a	n/a	n/a	n/a
433.7687	0.5167	FIXCROSS	n/a	n/a	n/a	n/a	n/a	n/a	n/a	n/a
434.2854	0.7333	COLOR_NAME	54	Neutral	niebieski	blue	Neutral	Neutral	hit	n/a
434.9908	n/a	RESPONSE	n/a	n/a	n/a	n/a	n/a	n/a	n/a	blue
435.0187	1.0167	ITI	n/a	n/a	n/a	n/a	n/a	n/a	n/a	n/a
436.0354	0.5167	FIXCROSS	n/a	n/a	n/a	n/a	n/a	n/a	n/a	n/a
436.5521	0.6833	COLOR_NAME	55	Neutral	zielony	green	Neutral	Neutral	hit	n/a
437.2119	n/a	RESPONSE	n/a	n/a	n/a	n/a	n/a	n/a	n/a	green
437.2354	1.0167	ITI	n/a	n/a	n/a	n/a	n/a	n/a	n/a	n/a
438.2521	0.5167	FIXCROSS	n/a	n/a	n/a	n/a	n/a	n/a	n/a	n/a
438.7688	0.5667	COLOR_NAME	56	Neutral	czerwony	red	Neutral	Neutral	hit	n/a
439.3051	n/a	RESPONSE	n/a	n/a	n/a	n/a	n/a	n/a	n/a	red
439.3354	1.0167	ITI	n/a	n/a	n/a	n/a	n/a	n/a	n/a	n/a
440.3521	0.5167	FIXCROSS	n/a	n/a	n/a	n/a	n/a	n/a	n/a	n/a
440.8688	0.75	COLOR_NAME	57	Neutral	zielony	green	Neutral	Neutral	hit	n/a
441.5903	n/a	RESPONSE	n/a	n/a	n/a	n/a	n/a	n/a	n/a	green
441.6188	1.0167	ITI	n/a	n/a	n/a	n/a	n/a	n/a	n/a	n/a
442.6355	0.5167	FIXCROSS	n/a	n/a	n/a	n/a	n/a	n/a	n/a	n/a
443.1521	0.6333	COLOR_NAME	58	Neutral	czerwony	red	Neutral	Neutral	hit	n/a
443.7634	n/a	RESPONSE	n/a	n/a	n/a	n/a	n/a	n/a	n/a	red
443.7855	1.0167	ITI	n/a	n/a	n/a	n/a	n/a	n/a	n/a	n/a
444.8021	0.5167	FIXCROSS	n/a	n/a	n/a	n/a	n/a	n/a	n/a	n/a
445.3188	0.7833	COLOR_NAME	59	Neutral	żółty	yellow	Neutral	Neutral	hit	n/a
446.0803	n/a	RESPONSE	n/a	n/a	n/a	n/a	n/a	n/a	n/a	yellow
446.1022	1.0167	ITI	n/a	n/a	n/a	n/a	n/a	n/a	n/a	n/a
447.1188	0.5167	FIXCROSS	n/a	n/a	n/a	n/a	n/a	n/a	n/a	n/a
447.6355	0.4833	COLOR_NAME	60	Neutral	żółty	yellow	Neutral	Neutral	hit	n/a
448.0937	n/a	RESPONSE	n/a	n/a	n/a	n/a	n/a	n/a	n/a	yellow
448.1188	1.0167	ITI	n/a	n/a	n/a	n/a	n/a	n/a	n/a	n/a
449.1355	0.5167	FIXCROSS	n/a	n/a	n/a	n/a	n/a	n/a	n/a	n/a
449.6522	0.6	COLOR_NAME	61	Incongruent	niebieski	blue	zielony	green	hit	n/a
450.2349	n/a	RESPONSE	n/a	n/a	n/a	n/a	n/a	n/a	n/a	blue
450.2522	1.0167	ITI	n/a	n/a	n/a	n/a	n/a	n/a	n/a	n/a
451.2689	0.5167	FIXCROSS	n/a	n/a	n/a	n/a	n/a	n/a	n/a	n/a
451.7855	0.85	COLOR_NAME	62	Neutral	żółty	yellow	Neutral	Neutral	hit	n/a
452.6158	n/a	RESPONSE	n/a	n/a	n/a	n/a	n/a	n/a	n/a	yellow
452.6355	1.0167	ITI	n/a	n/a	n/a	n/a	n/a	n/a	n/a	n/a
453.6522	0.5167	FIXCROSS	n/a	n/a	n/a	n/a	n/a	n/a	n/a	n/a
454.1689	0.6833	COLOR_NAME	63	Incongruent	czerwony	red	niebieski	blue	hit	n/a
454.8209	n/a	RESPONSE	n/a	n/a	n/a	n/a	n/a	n/a	n/a	red
454.8522	1.0167	ITI	n/a	n/a	n/a	n/a	n/a	n/a	n/a	n/a
455.8689	0.5167	FIXCROSS	n/a	n/a	n/a	n/a	n/a	n/a	n/a	n/a
456.3856	0.85	COLOR_NAME	64	Neutral	niebieski	blue	Neutral	Neutral	hit	n/a
457.2177	n/a	RESPONSE	n/a	n/a	n/a	n/a	n/a	n/a	n/a	blue
457.2356	1.0167	ITI	n/a	n/a	n/a	n/a	n/a	n/a	n/a	n/a
458.2522	0.5167	FIXCROSS	n/a	n/a	n/a	n/a	n/a	n/a	n/a	n/a
458.7689	0.5167	COLOR_NAME	65	Neutral	żółty	yellow	Neutral	Neutral	hit	n/a
459.263	n/a	RESPONSE	n/a	n/a	n/a	n/a	n/a	n/a	n/a	yellow
459.2856	1.0167	ITI	n/a	n/a	n/a	n/a	n/a	n/a	n/a	n/a
460.3023	0.5167	FIXCROSS	n/a	n/a	n/a	n/a	n/a	n/a	n/a	n/a
460.8189	0.6667	COLOR_NAME	66	Incongruent	zielony	green	czerwony	red	hit	n/a
461.4521	n/a	RESPONSE	n/a	n/a	n/a	n/a	n/a	n/a	n/a	green
461.4856	1.0167	ITI	n/a	n/a	n/a	n/a	n/a	n/a	n/a	n/a
462.5023	0.5167	FIXCROSS	n/a	n/a	n/a	n/a	n/a	n/a	n/a	n/a
463.0189	0.4667	COLOR_NAME	67	Incongruent	czerwony	red	żółty	yellow	hit	n/a
463.4655	n/a	RESPONSE	n/a	n/a	n/a	n/a	n/a	n/a	n/a	red
463.4856	1.0167	ITI	n/a	n/a	n/a	n/a	n/a	n/a	n/a	n/a
464.5023	0.5167	FIXCROSS	n/a	n/a	n/a	n/a	n/a	n/a	n/a	n/a
465.019	0.5833	COLOR_NAME	68	Neutral	czerwony	red	Neutral	Neutral	hit	n/a
465.5747	n/a	RESPONSE	n/a	n/a	n/a	n/a	n/a	n/a	n/a	red
465.6023	1.0167	ITI	n/a	n/a	n/a	n/a	n/a	n/a	n/a	n/a
466.619	0.5167	FIXCROSS	n/a	n/a	n/a	n/a	n/a	n/a	n/a	n/a
467.1356	0.5667	COLOR_NAME	69	Incongruent	żółty	yellow	czerwony	red	hit	n/a
467.6841	n/a	RESPONSE	n/a	n/a	n/a	n/a	n/a	n/a	n/a	yellow
467.7023	1.0167	ITI	n/a	n/a	n/a	n/a	n/a	n/a	n/a	n/a
468.719	0.5167	FIXCROSS	n/a	n/a	n/a	n/a	n/a	n/a	n/a	n/a
469.2356	1.25	COLOR_NAME	70	Incongruent	czerwony	red	zielony	green	hit	n/a
470.4644	n/a	RESPONSE	n/a	n/a	n/a	n/a	n/a	n/a	n/a	red
470.4857	1.0167	ITI	n/a	n/a	n/a	n/a	n/a	n/a	n/a	n/a
471.5023	0.5167	FIXCROSS	n/a	n/a	n/a	n/a	n/a	n/a	n/a	n/a
472.019	0.6167	COLOR_NAME	71	Neutral	niebieski	blue	Neutral	Neutral	incorrect	n/a
472.6055	n/a	RESPONSE	n/a	n/a	n/a	n/a	n/a	n/a	n/a	red
472.6357	1.0167	ITI	n/a	n/a	n/a	n/a	n/a	n/a	n/a	n/a
473.6523	0.5167	FIXCROSS	n/a	n/a	n/a	n/a	n/a	n/a	n/a	n/a
474.169	0.8667	COLOR_NAME	72	Incongruent	niebieski	blue	czerwony	red	hit	n/a
475.0184	n/a	RESPONSE	n/a	n/a	n/a	n/a	n/a	n/a	n/a	blue
475.0357	1.0333	ITI	n/a	n/a	n/a	n/a	n/a	n/a	n/a	n/a
479.9878	n/a	RESPONSE	n/a	n/a	n/a	n/a	n/a	n/a	n/a	n/a
