onset	duration	trial_type	melody_number	melody_part	key	sound	action
0.0	14.09	CUE_START	n/a	n/a	n/a	n/a	n/a
14.09	7.759	FIXCROSS	n/a	n/a	n/a	n/a	n/a
21.85	6.316	CUE_LISTEN	M1	1	n/a	n/a	n/a
28.165	7.758	FIXCROSS	n/a	n/a	n/a	n/a	n/a
35.924	6.317	CUE_PLAYBACK_RIGHT_HAND	M1	1	n/a	n/a	n/a
36.584	n/a	RESPONSE	M1	1	19	G4	press
37.045	n/a	RESPONSE	M1	1	19	G4	release
37.126	n/a	RESPONSE	M1	1	16	E4	press
37.399	n/a	RESPONSE	M1	1	16	E4	release
37.639	n/a	RESPONSE	M1	1	16	E4	press
37.97	n/a	RESPONSE	M1	1	16	E4	release
38.131	n/a	RESPONSE	M1	1	17	F4	press
38.634	n/a	RESPONSE	M1	1	17	F4	release
38.644	n/a	RESPONSE	M1	1	14	D4	press
38.865	n/a	RESPONSE	M1	1	14	D4	release
39.216	n/a	RESPONSE	M1	1	14	D4	press
39.619	n/a	RESPONSE	M1	1	14	D4	release
39.771	n/a	RESPONSE	M1	1	12	C4	press
40.09	n/a	RESPONSE	M1	1	16	E4	press
40.141	n/a	RESPONSE	M1	1	12	C4	release
40.423	n/a	RESPONSE	M1	1	19	G4	press
40.534	n/a	RESPONSE	M1	1	16	E4	release
41.335	n/a	RESPONSE	M1	1	19	G4	release
42.24	7.758	FIXCROSS	n/a	n/a	n/a	n/a	n/a
49.999	6.317	CUE_LISTEN	M1	2	n/a	n/a	n/a
56.315	7.758	FIXCROSS	n/a	n/a	n/a	n/a	n/a
64.074	6.325	CUE_PLAYBACK_RIGHT_HAND	M1	2	n/a	n/a	n/a
64.744	n/a	RESPONSE	M1	2	19	G4	press
65.246	n/a	RESPONSE	M1	2	19	G4	release
65.287	n/a	RESPONSE	M1	2	16	E4	press
65.575	n/a	RESPONSE	M1	2	16	E4	release
65.908	n/a	RESPONSE	M1	2	16	E4	press
66.279	n/a	RESPONSE	M1	2	16	E4	release
66.44	n/a	RESPONSE	M1	2	17	F4	press
66.854	n/a	RESPONSE	M1	2	17	F4	release
67.013	n/a	RESPONSE	M1	2	14	D4	press
67.244	n/a	RESPONSE	M1	2	14	D4	release
67.575	n/a	RESPONSE	M1	2	14	D4	press
67.996	n/a	RESPONSE	M1	2	14	D4	release
68.15	n/a	RESPONSE	M1	2	12	C4	press
68.409	n/a	RESPONSE	M1	2	12	C4	release
68.413	n/a	RESPONSE	M1	2	16	E4	press
68.692	n/a	RESPONSE	M1	2	16	E4	release
68.753	n/a	RESPONSE	M1	2	12	C4	press
69.954	n/a	RESPONSE	M1	2	12	C4	release
70.399	7.758	FIXCROSS	n/a	n/a	n/a	n/a	n/a
78.157	6.317	CUE_LISTEN	M1	1	n/a	n/a	n/a
84.474	7.758	FIXCROSS	n/a	n/a	n/a	n/a	n/a
92.232	6.317	CUE_PLAYBACK_BOTH_HANDS	M1	1	n/a	n/a	n/a
93.025	n/a	RESPONSE	M1	1	19	G4	press
93.035	n/a	RESPONSE	M1	1	07	G3	press
93.492	n/a	RESPONSE	M1	1	19	G4	release
93.535	n/a	RESPONSE	M1	1	04	E3	press
93.572	n/a	RESPONSE	M1	1	16	E4	press
93.694	n/a	RESPONSE	M1	1	07	G3	release
94.465	n/a	RESPONSE	M1	1	16	E4	release
94.498	n/a	RESPONSE	M1	1	04	E3	release
94.609	n/a	RESPONSE	M1	1	04	E3	press
94.626	n/a	RESPONSE	M1	1	16	E4	press
94.896	n/a	RESPONSE	M1	1	16	E4	release
94.996	n/a	RESPONSE	M1	1	04	E3	release
95.168	n/a	RESPONSE	M1	1	05	F3	press
95.199	n/a	RESPONSE	M1	1	17	F4	press
95.526	n/a	RESPONSE	M1	1	05	F3	release
95.59	n/a	RESPONSE	M1	1	17	F4	release
95.703	n/a	RESPONSE	M1	1	14	D4	press
95.715	n/a	RESPONSE	M1	1	02	D3	press
95.966	n/a	RESPONSE	M1	1	14	D4	release
96.235	n/a	RESPONSE	M1	1	14	D4	press
96.499	n/a	RESPONSE	M1	1	02	D3	release
96.519	n/a	RESPONSE	M1	1	14	D4	release
96.809	n/a	RESPONSE	M1	1	12	C4	press
96.812	n/a	RESPONSE	M1	1	00	C3	press
97.042	n/a	RESPONSE	M1	1	12	C4	release
97.113	n/a	RESPONSE	M1	1	16	E4	press
97.134	n/a	RESPONSE	M1	1	04	E3	press
97.295	n/a	RESPONSE	M1	1	00	C3	release
97.306	n/a	RESPONSE	M1	1	16	E4	release
97.458	n/a	RESPONSE	M1	1	19	G4	press
97.479	n/a	RESPONSE	M1	1	04	E3	release
97.54	n/a	RESPONSE	M1	1	05	F3	press
97.922	n/a	RESPONSE	M1	1	05	F3	release
98.233	n/a	RESPONSE	M1	1	07	G3	press
98.549	7.758	FIXCROSS	n/a	n/a	n/a	n/a	n/a
98.715	n/a	RESPONSE	M1	1	19	G4	release
99.126	n/a	RESPONSE	M1	1	07	G3	release
106.307	6.325	CUE_LISTEN	M1	2	n/a	n/a	n/a
112.632	7.758	FIXCROSS	n/a	n/a	n/a	n/a	n/a
120.391	6.317	CUE_PLAYBACK_BOTH_HANDS	M1	2	n/a	n/a	n/a
120.92	n/a	RESPONSE	M1	2	19	G4	press
120.949	n/a	RESPONSE	M1	2	07	G3	press
121.39	n/a	RESPONSE	M1	2	07	G3	release
121.393	n/a	RESPONSE	M1	2	16	E4	press
121.403	n/a	RESPONSE	M1	2	19	G4	release
121.405	n/a	RESPONSE	M1	2	04	E3	press
122.222	n/a	RESPONSE	M1	2	16	E4	release
122.366	n/a	RESPONSE	M1	2	04	E3	release
122.406	n/a	RESPONSE	M1	2	04	E3	press
122.433	n/a	RESPONSE	M1	2	16	E4	press
122.702	n/a	RESPONSE	M1	2	16	E4	release
122.753	n/a	RESPONSE	M1	2	04	E3	release
122.917	n/a	RESPONSE	M1	2	05	F3	press
122.929	n/a	RESPONSE	M1	2	17	F4	press
123.219	n/a	RESPONSE	M1	2	05	F3	release
123.312	n/a	RESPONSE	M1	2	17	F4	release
123.373	n/a	RESPONSE	M1	2	14	D4	press
123.395	n/a	RESPONSE	M1	2	02	D3	press
123.636	n/a	RESPONSE	M1	2	14	D4	release
123.708	n/a	RESPONSE	M1	2	02	D3	release
123.85	n/a	RESPONSE	M1	2	02	D3	press
123.865	n/a	RESPONSE	M1	2	14	D4	press
124.139	n/a	RESPONSE	M1	2	02	D3	release
124.159	n/a	RESPONSE	M1	2	14	D4	release
124.396	n/a	RESPONSE	M1	2	00	C3	press
124.444	n/a	RESPONSE	M1	2	12	C4	press
124.656	n/a	RESPONSE	M1	2	12	C4	release
124.746	n/a	RESPONSE	M1	2	04	E3	press
124.752	n/a	RESPONSE	M1	2	16	E4	press
124.882	n/a	RESPONSE	M1	2	00	C3	release
124.943	n/a	RESPONSE	M1	2	04	E3	release
124.966	n/a	RESPONSE	M1	2	16	E4	release
125.092	n/a	RESPONSE	M1	2	00	C3	press
125.236	n/a	RESPONSE	M1	2	12	C4	press
126.247	n/a	RESPONSE	M1	2	12	C4	release
126.618	n/a	RESPONSE	M1	2	00	C3	release
126.707	7.758	FIXCROSS	n/a	n/a	n/a	n/a	n/a
134.466	6.333	CUE_LISTEN	M1	1	n/a	n/a	n/a
140.799	7.758	FIXCROSS	n/a	n/a	n/a	n/a	n/a
148.558	6.308	CUE_PLAYBACK_RIGHT_HAND	M1	1	n/a	n/a	n/a
149.15	n/a	RESPONSE	M1	1	19	G4	press
149.632	n/a	RESPONSE	M1	1	19	G4	release
149.643	n/a	RESPONSE	M1	1	16	E4	press
150.487	n/a	RESPONSE	M1	1	16	E4	release
150.675	n/a	RESPONSE	M1	1	17	F4	press
151.118	n/a	RESPONSE	M1	1	17	F4	release
151.128	n/a	RESPONSE	M1	1	14	D4	press
151.359	n/a	RESPONSE	M1	1	14	D4	release
151.652	n/a	RESPONSE	M1	1	14	D4	press
152.01	n/a	RESPONSE	M1	1	14	D4	release
152.194	n/a	RESPONSE	M1	1	12	C4	press
152.41	n/a	RESPONSE	M1	1	16	E4	press
152.447	n/a	RESPONSE	M1	1	12	C4	release
152.689	n/a	RESPONSE	M1	1	19	G4	press
152.718	n/a	RESPONSE	M1	1	16	E4	release
153.474	n/a	RESPONSE	M1	1	19	G4	release
154.866	7.758	FIXCROSS	n/a	n/a	n/a	n/a	n/a
162.624	6.317	CUE_LISTEN	M1	2	n/a	n/a	n/a
168.941	7.758	FIXCROSS	n/a	n/a	n/a	n/a	n/a
176.699	6.325	CUE_PLAYBACK_RIGHT_HAND	M1	2	n/a	n/a	n/a
177.125	n/a	RESPONSE	M1	2	19	G4	press
177.637	n/a	RESPONSE	M1	2	19	G4	release
177.639	n/a	RESPONSE	M1	2	16	E4	press
177.899	n/a	RESPONSE	M1	2	16	E4	release
178.12	n/a	RESPONSE	M1	2	16	E4	press
178.464	n/a	RESPONSE	M1	2	16	E4	release
178.533	n/a	RESPONSE	M1	2	17	F4	press
179.004	n/a	RESPONSE	M1	2	14	D4	press
179.058	n/a	RESPONSE	M1	2	17	F4	release
179.307	n/a	RESPONSE	M1	2	14	D4	release
179.558	n/a	RESPONSE	M1	2	14	D4	press
179.979	n/a	RESPONSE	M1	2	14	D4	release
180.13	n/a	RESPONSE	M1	2	12	C4	press
180.492	n/a	RESPONSE	M1	2	16	E4	press
180.523	n/a	RESPONSE	M1	2	12	C4	release
180.854	n/a	RESPONSE	M1	2	16	E4	release
180.875	n/a	RESPONSE	M1	2	12	C4	press
182.792	n/a	RESPONSE	M1	2	12	C4	release
183.024	7.758	FIXCROSS	n/a	n/a	n/a	n/a	n/a
190.783	6.317	CUE_LISTEN	M1	1	n/a	n/a	n/a
197.099	7.758	FIXCROSS	n/a	n/a	n/a	n/a	n/a
204.858	6.317	CUE_PLAYBACK_BOTH_HANDS	M1	1	n/a	n/a	n/a
205.717	n/a	RESPONSE	M1	1	19	G4	press
205.758	n/a	RESPONSE	M1	1	07	G3	press
206.229	n/a	RESPONSE	M1	1	19	G4	release
206.26	n/a	RESPONSE	M1	1	04	E3	press
206.272	n/a	RESPONSE	M1	1	07	G3	release
206.283	n/a	RESPONSE	M1	1	16	E4	press
206.644	n/a	RESPONSE	M1	1	16	E4	release
206.835	n/a	RESPONSE	M1	1	16	E4	press
207.187	n/a	RESPONSE	M1	1	16	E4	release
207.268	n/a	RESPONSE	M1	1	04	E3	release
207.349	n/a	RESPONSE	M1	1	05	F3	press
207.36	n/a	RESPONSE	M1	1	17	F4	press
207.862	n/a	RESPONSE	M1	1	17	F4	release
207.873	n/a	RESPONSE	M1	1	05	F3	release
207.875	n/a	RESPONSE	M1	1	14	D4	press
207.878	n/a	RESPONSE	M1	1	02	D3	press
208.168	n/a	RESPONSE	M1	1	14	D4	release
208.438	n/a	RESPONSE	M1	1	14	D4	press
208.799	n/a	RESPONSE	M1	1	02	D3	release
208.813	n/a	RESPONSE	M1	1	14	D4	release
209.032	n/a	RESPONSE	M1	1	00	C3	press
209.063	n/a	RESPONSE	M1	1	12	C4	press
209.314	n/a	RESPONSE	M1	1	12	C4	release
209.317	n/a	RESPONSE	M1	1	16	E4	press
209.407	n/a	RESPONSE	M1	1	04	E3	press
209.409	n/a	RESPONSE	M1	1	05	F3	press
209.599	n/a	RESPONSE	M1	1	05	F3	release
209.64	n/a	RESPONSE	M1	1	16	E4	release
210.012	n/a	RESPONSE	M1	1	04	E3	release
210.063	n/a	RESPONSE	M1	1	07	G3	press
210.084	n/a	RESPONSE	M1	1	19	G4	press
211.174	7.758	FIXCROSS	n/a	n/a	n/a	n/a	n/a
211.285	n/a	RESPONSE	M1	1	19	G4	release
211.389	n/a	RESPONSE	M1	1	00	C3	release
211.998	n/a	RESPONSE	M1	1	07	G3	release
218.933	6.325	CUE_LISTEN	M1	2	n/a	n/a	n/a
225.258	7.758	FIXCROSS	n/a	n/a	n/a	n/a	n/a
233.016	6.317	CUE_PLAYBACK_BOTH_HANDS	M1	2	n/a	n/a	n/a
233.878	n/a	RESPONSE	M1	2	19	G4	press
233.897	n/a	RESPONSE	M1	2	07	G3	press
234.442	n/a	RESPONSE	M1	2	04	E3	press
234.48	n/a	RESPONSE	M1	2	16	E4	press
234.618	n/a	RESPONSE	M1	2	19	G4	release
234.729	n/a	RESPONSE	M1	2	16	E4	release
234.853	n/a	RESPONSE	M1	2	07	G3	release
235.039	n/a	RESPONSE	M1	2	16	E4	press
235.374	n/a	RESPONSE	M1	2	16	E4	release
235.508	n/a	RESPONSE	M1	2	04	E3	release
235.588	n/a	RESPONSE	M1	2	05	F3	press
235.59	n/a	RESPONSE	M1	2	17	F4	press
235.933	n/a	RESPONSE	M1	2	17	F4	release
236.074	n/a	RESPONSE	M1	2	05	F3	release
236.156	n/a	RESPONSE	M1	2	02	D3	press
236.177	n/a	RESPONSE	M1	2	14	D4	press
236.468	n/a	RESPONSE	M1	2	14	D4	release
236.779	n/a	RESPONSE	M1	2	14	D4	press
237.09	n/a	RESPONSE	M1	2	14	D4	release
237.114	n/a	RESPONSE	M1	2	02	D3	release
237.393	n/a	RESPONSE	M1	2	00	C3	press
237.444	n/a	RESPONSE	M1	2	12	C4	press
237.666	n/a	RESPONSE	M1	2	12	C4	release
237.697	n/a	RESPONSE	M1	2	04	E3	press
237.72	n/a	RESPONSE	M1	2	16	E4	press
237.9	n/a	RESPONSE	M1	2	04	E3	release
237.913	n/a	RESPONSE	M1	2	16	E4	release
238.356	n/a	RESPONSE	M1	2	12	C4	press
239.294	n/a	RESPONSE	M1	2	12	C4	release
239.333	7.758	FIXCROSS	n/a	n/a	n/a	n/a	n/a
239.916	n/a	RESPONSE	M1	2	00	C3	release
247.091	6.317	CUE_LISTEN	M1	1	n/a	n/a	n/a
253.408	7.758	FIXCROSS	n/a	n/a	n/a	n/a	n/a
261.166	6.325	CUE_PLAYBACK_RIGHT_HAND	M1	1	n/a	n/a	n/a
261.989	n/a	RESPONSE	M1	1	19	G4	press
262.504	n/a	RESPONSE	M1	1	19	G4	release
262.569	n/a	RESPONSE	M1	1	16	E4	press
262.819	n/a	RESPONSE	M1	1	16	E4	release
263.04	n/a	RESPONSE	M1	1	16	E4	press
263.372	n/a	RESPONSE	M1	1	16	E4	release
263.52	n/a	RESPONSE	M1	1	17	F4	press
264.016	n/a	RESPONSE	M1	1	14	D4	press
264.022	n/a	RESPONSE	M1	1	17	F4	release
264.302	n/a	RESPONSE	M1	1	14	D4	release
264.543	n/a	RESPONSE	M1	1	14	D4	press
265.016	n/a	RESPONSE	M1	1	14	D4	release
265.094	n/a	RESPONSE	M1	1	12	C4	press
265.34	n/a	RESPONSE	M1	1	16	E4	press
265.359	n/a	RESPONSE	M1	1	12	C4	release
265.647	n/a	RESPONSE	M1	1	19	G4	press
265.788	n/a	RESPONSE	M1	1	16	E4	release
266.669	n/a	RESPONSE	M1	1	19	G4	release
267.491	7.759	FIXCROSS	n/a	n/a	n/a	n/a	n/a
275.25	6.317	CUE_LISTEN	M1	2	n/a	n/a	n/a
281.566	7.758	FIXCROSS	n/a	n/a	n/a	n/a	n/a
289.325	6.317	CUE_PLAYBACK_RIGHT_HAND	M1	2	n/a	n/a	n/a
289.924	n/a	RESPONSE	M1	2	19	G4	press
290.443	n/a	RESPONSE	M1	2	16	E4	press
290.474	n/a	RESPONSE	M1	2	19	G4	release
290.706	n/a	RESPONSE	M1	2	16	E4	release
290.987	n/a	RESPONSE	M1	2	16	E4	press
291.401	n/a	RESPONSE	M1	2	16	E4	release
291.439	n/a	RESPONSE	M1	2	17	F4	press
291.943	n/a	RESPONSE	M1	2	14	D4	press
292.002	n/a	RESPONSE	M1	2	17	F4	release
292.228	n/a	RESPONSE	M1	2	14	D4	release
292.521	n/a	RESPONSE	M1	2	14	D4	press
293.047	n/a	RESPONSE	M1	2	14	D4	release
293.102	n/a	RESPONSE	M1	2	12	C4	press
293.406	n/a	RESPONSE	M1	2	16	E4	press
293.457	n/a	RESPONSE	M1	2	12	C4	release
293.639	n/a	RESPONSE	M1	2	16	E4	release
293.727	n/a	RESPONSE	M1	2	12	C4	press
295.283	n/a	RESPONSE	M1	2	12	C4	release
295.641	7.759	FIXCROSS	n/a	n/a	n/a	n/a	n/a
303.4	6.325	CUE_LISTEN	M1	1	n/a	n/a	n/a
309.725	7.759	FIXCROSS	n/a	n/a	n/a	n/a	n/a
317.483	6.316	CUE_PLAYBACK_BOTH_HANDS	M1	1	n/a	n/a	n/a
318.134	n/a	RESPONSE	M1	1	19	G4	press
318.146	n/a	RESPONSE	M1	1	07	G3	press
318.479	n/a	RESPONSE	M1	1	19	G4	release
318.638	n/a	RESPONSE	M1	1	04	E3	press
318.659	n/a	RESPONSE	M1	1	16	E4	press
318.871	n/a	RESPONSE	M1	1	07	G3	release
319.022	n/a	RESPONSE	M1	1	16	E4	release
319.173	n/a	RESPONSE	M1	1	16	E4	press
319.506	n/a	RESPONSE	M1	1	16	E4	release
319.596	n/a	RESPONSE	M1	1	04	E3	release
319.667	n/a	RESPONSE	M1	1	05	F3	press
319.669	n/a	RESPONSE	M1	1	17	F4	press
320.079	n/a	RESPONSE	M1	1	17	F4	release
320.153	n/a	RESPONSE	M1	1	02	D3	press
320.162	n/a	RESPONSE	M1	1	14	D4	press
320.174	n/a	RESPONSE	M1	1	05	F3	release
320.446	n/a	RESPONSE	M1	1	14	D4	release
320.677	n/a	RESPONSE	M1	1	14	D4	press
320.988	n/a	RESPONSE	M1	1	14	D4	release
320.999	n/a	RESPONSE	M1	1	02	D3	release
321.211	n/a	RESPONSE	M1	1	00	C3	press
321.213	n/a	RESPONSE	M1	1	12	C4	press
321.463	n/a	RESPONSE	M1	1	16	E4	press
321.474	n/a	RESPONSE	M1	1	12	C4	release
321.516	n/a	RESPONSE	M1	1	04	E3	press
321.727	n/a	RESPONSE	M1	1	19	G4	press
321.778	n/a	RESPONSE	M1	1	07	G3	press
321.799	n/a	RESPONSE	M1	1	16	E4	release
322.477	n/a	RESPONSE	M1	1	19	G4	release
322.521	n/a	RESPONSE	M1	1	00	C3	release
322.611	n/a	RESPONSE	M1	1	04	E3	release
322.649	n/a	RESPONSE	M1	1	07	G3	release
323.8	7.759	FIXCROSS	n/a	n/a	n/a	n/a	n/a
331.558	6.317	CUE_LISTEN	M1	2	n/a	n/a	n/a
337.875	7.759	FIXCROSS	n/a	n/a	n/a	n/a	n/a
345.633	6.325	CUE_PLAYBACK_BOTH_HANDS	M1	2	n/a	n/a	n/a
346.518	n/a	RESPONSE	M1	2	19	G4	press
346.522	n/a	RESPONSE	M1	2	07	G3	press
346.971	n/a	RESPONSE	M1	2	19	G4	release
347.024	n/a	RESPONSE	M1	2	04	E3	press
347.063	n/a	RESPONSE	M1	2	16	E4	press
347.104	n/a	RESPONSE	M1	2	07	G3	release
347.486	n/a	RESPONSE	M1	2	16	E4	release
347.579	n/a	RESPONSE	M1	2	16	E4	press
347.918	n/a	RESPONSE	M1	2	16	E4	release
347.969	n/a	RESPONSE	M1	2	04	E3	release
348.101	n/a	RESPONSE	M1	2	17	F4	press
348.114	n/a	RESPONSE	M1	2	05	F3	press
348.483	n/a	RESPONSE	M1	2	05	F3	release
348.516	n/a	RESPONSE	M1	2	17	F4	release
348.596	n/a	RESPONSE	M1	2	14	D4	press
348.607	n/a	RESPONSE	M1	2	02	D3	press
348.938	n/a	RESPONSE	M1	2	02	D3	release
348.941	n/a	RESPONSE	M1	2	14	D4	release
349.131	n/a	RESPONSE	M1	2	02	D3	press
349.142	n/a	RESPONSE	M1	2	14	D4	press
349.456	n/a	RESPONSE	M1	2	02	D3	release
349.524	n/a	RESPONSE	M1	2	14	D4	release
349.686	n/a	RESPONSE	M1	2	00	C3	press
349.697	n/a	RESPONSE	M1	2	12	C4	press
349.921	n/a	RESPONSE	M1	2	12	C4	release
349.959	n/a	RESPONSE	M1	2	04	E3	press
349.971	n/a	RESPONSE	M1	2	16	E4	press
350.072	n/a	RESPONSE	M1	2	00	C3	release
350.153	n/a	RESPONSE	M1	2	16	E4	release
350.164	n/a	RESPONSE	M1	2	04	E3	release
350.216	n/a	RESPONSE	M1	2	00	C3	press
351.927	n/a	RESPONSE	M1	2	00	C3	release
351.958	7.759	FIXCROSS	n/a	n/a	n/a	n/a	n/a
359.717	6.317	CUE_LISTEN	M1	1	n/a	n/a	n/a
366.033	7.758	FIXCROSS	n/a	n/a	n/a	n/a	n/a
373.792	6.317	CUE_PLAYBACK_RIGHT_HAND	M1	1	n/a	n/a	n/a
374.5	n/a	RESPONSE	M1	1	19	G4	press
374.987	n/a	RESPONSE	M1	1	19	G4	release
374.999	n/a	RESPONSE	M1	1	16	E4	press
375.246	n/a	RESPONSE	M1	1	16	E4	release
375.511	n/a	RESPONSE	M1	1	16	E4	press
375.861	n/a	RESPONSE	M1	1	16	E4	release
376.021	n/a	RESPONSE	M1	1	17	F4	press
376.462	n/a	RESPONSE	M1	1	14	D4	press
376.473	n/a	RESPONSE	M1	1	17	F4	release
376.754	n/a	RESPONSE	M1	1	14	D4	release
377.006	n/a	RESPONSE	M1	1	14	D4	press
377.387	n/a	RESPONSE	M1	1	14	D4	release
377.468	n/a	RESPONSE	M1	1	12	C4	press
377.722	n/a	RESPONSE	M1	1	16	E4	press
377.821	n/a	RESPONSE	M1	1	12	C4	release
378.012	n/a	RESPONSE	M1	1	19	G4	press
378.163	n/a	RESPONSE	M1	1	16	E4	release
378.914	n/a	RESPONSE	M1	1	19	G4	release
380.108	7.759	FIXCROSS	n/a	n/a	n/a	n/a	n/a
387.867	6.325	CUE_LISTEN	M1	2	n/a	n/a	n/a
394.192	7.758	FIXCROSS	n/a	n/a	n/a	n/a	n/a
401.95	6.325	CUE_PLAYBACK_RIGHT_HAND	M1	2	n/a	n/a	n/a
402.784	n/a	RESPONSE	M1	2	19	G4	press
403.352	n/a	RESPONSE	M1	2	16	E4	press
403.422	n/a	RESPONSE	M1	2	19	G4	release
403.723	n/a	RESPONSE	M1	2	16	E4	release
403.916	n/a	RESPONSE	M1	2	16	E4	press
404.361	n/a	RESPONSE	M1	2	16	E4	release
404.391	n/a	RESPONSE	M1	2	17	F4	press
404.874	n/a	RESPONSE	M1	2	14	D4	press
404.938	n/a	RESPONSE	M1	2	17	F4	release
405.172	n/a	RESPONSE	M1	2	14	D4	release
405.402	n/a	RESPONSE	M1	2	14	D4	press
405.937	n/a	RESPONSE	M1	2	14	D4	release
405.958	n/a	RESPONSE	M1	2	12	C4	press
406.57	n/a	RESPONSE	M1	2	16	E4	press
406.611	n/a	RESPONSE	M1	2	12	C4	release
406.932	n/a	RESPONSE	M1	2	12	C4	press
407.074	n/a	RESPONSE	M1	2	12	C4	release
407.544	n/a	RESPONSE	M1	2	16	E4	release
407.737	n/a	RESPONSE	M1	2	12	C4	press
408.275	7.758	FIXCROSS	n/a	n/a	n/a	n/a	n/a
409.037	n/a	RESPONSE	M1	2	12	C4	release
416.034	6.317	CUE_LISTEN	M1	1	n/a	n/a	n/a
422.35	7.759	FIXCROSS	n/a	n/a	n/a	n/a	n/a
430.109	6.317	CUE_PLAYBACK_BOTH_HANDS	M1	1	n/a	n/a	n/a
431.013	n/a	RESPONSE	M1	1	19	G4	press
431.032	n/a	RESPONSE	M1	1	07	G3	press
431.523	n/a	RESPONSE	M1	1	19	G4	release
431.577	n/a	RESPONSE	M1	1	04	E3	press
431.616	n/a	RESPONSE	M1	1	07	G3	release
431.618	n/a	RESPONSE	M1	1	16	E4	press
431.858	n/a	RESPONSE	M1	1	16	E4	release
432.021	n/a	RESPONSE	M1	1	04	E3	release
432.127	n/a	RESPONSE	M1	1	04	E3	press
432.141	n/a	RESPONSE	M1	1	16	E4	press
432.476	n/a	RESPONSE	M1	1	16	E4	release
432.621	n/a	RESPONSE	M1	1	04	E3	release
432.69	n/a	RESPONSE	M1	1	17	F4	press
432.714	n/a	RESPONSE	M1	1	05	F3	press
433.158	n/a	RESPONSE	M1	1	05	F3	release
433.174	n/a	RESPONSE	M1	1	17	F4	release
433.237	n/a	RESPONSE	M1	1	02	D3	press
433.24	n/a	RESPONSE	M1	1	14	D4	press
433.516	n/a	RESPONSE	M1	1	14	D4	release
433.616	n/a	RESPONSE	M1	1	02	D3	release
433.801	n/a	RESPONSE	M1	1	02	D3	press
433.83	n/a	RESPONSE	M1	1	14	D4	press
434.171	n/a	RESPONSE	M1	1	14	D4	release
434.187	n/a	RESPONSE	M1	1	02	D3	release
434.428	n/a	RESPONSE	M1	1	00	C3	press
434.441	n/a	RESPONSE	M1	1	12	C4	press
434.687	n/a	RESPONSE	M1	1	12	C4	release
434.725	n/a	RESPONSE	M1	1	16	E4	press
434.75	n/a	RESPONSE	M1	1	04	E3	press
434.946	n/a	RESPONSE	M1	1	19	G4	press
434.95	n/a	RESPONSE	M1	1	16	E4	release
435.027	n/a	RESPONSE	M1	1	07	G3	press
435.416	n/a	RESPONSE	M1	1	00	C3	release
435.602	n/a	RESPONSE	M1	1	04	E3	release
436.02	n/a	RESPONSE	M1	1	19	G4	release
436.425	7.758	FIXCROSS	n/a	n/a	n/a	n/a	n/a
436.521	n/a	RESPONSE	M1	1	07	G3	release
444.184	6.317	CUE_LISTEN	M1	2	n/a	n/a	n/a
450.5	7.758	FIXCROSS	n/a	n/a	n/a	n/a	n/a
458.259	6.325	CUE_PLAYBACK_BOTH_HANDS	M1	2	n/a	n/a	n/a
459.223	n/a	RESPONSE	M1	2	19	G4	press
459.235	n/a	RESPONSE	M1	2	07	G3	press
459.608	n/a	RESPONSE	M1	2	19	G4	release
459.737	n/a	RESPONSE	M1	2	04	E3	press
459.798	n/a	RESPONSE	M1	2	16	E4	press
459.801	n/a	RESPONSE	M1	2	07	G3	release
460.041	n/a	RESPONSE	M1	2	16	E4	release
460.292	n/a	RESPONSE	M1	2	16	E4	press
460.635	n/a	RESPONSE	M1	2	16	E4	release
460.785	n/a	RESPONSE	M1	2	04	E3	release
460.807	n/a	RESPONSE	M1	2	17	F4	press
460.817	n/a	RESPONSE	M1	2	05	F3	press
461.161	n/a	RESPONSE	M1	2	17	F4	release
461.22	n/a	RESPONSE	M1	2	05	F3	release
461.311	n/a	RESPONSE	M1	2	14	D4	press
461.315	n/a	RESPONSE	M1	2	02	D3	press
461.566	n/a	RESPONSE	M1	2	14	D4	release
461.875	n/a	RESPONSE	M1	2	14	D4	press
462.212	n/a	RESPONSE	M1	2	02	D3	release
462.23	n/a	RESPONSE	M1	2	14	D4	release
462.411	n/a	RESPONSE	M1	2	12	C4	press
462.416	n/a	RESPONSE	M1	2	00	C3	press
462.635	n/a	RESPONSE	M1	2	12	C4	release
462.706	n/a	RESPONSE	M1	2	16	E4	press
462.711	n/a	RESPONSE	M1	2	04	E3	press
462.821	n/a	RESPONSE	M1	2	00	C3	release
462.893	n/a	RESPONSE	M1	2	04	E3	release
462.906	n/a	RESPONSE	M1	2	16	E4	release
462.961	n/a	RESPONSE	M1	2	00	C3	press
463.026	n/a	RESPONSE	M1	2	12	C4	press
464.078	n/a	RESPONSE	M1	2	00	C3	release
464.295	n/a	RESPONSE	M1	2	12	C4	release
464.584	7.759	FIXCROSS	n/a	n/a	n/a	n/a	n/a
472.342	6.317	CUE_LISTEN	M1	1	n/a	n/a	n/a
478.659	7.758	FIXCROSS	n/a	n/a	n/a	n/a	n/a
486.417	6.317	CUE_PLAYBACK_RIGHT_HAND	M1	1	n/a	n/a	n/a
487.207	n/a	RESPONSE	M1	1	19	G4	press
487.698	n/a	RESPONSE	M1	1	19	G4	release
487.73	n/a	RESPONSE	M1	1	16	E4	press
488.001	n/a	RESPONSE	M1	1	16	E4	release
488.232	n/a	RESPONSE	M1	1	16	E4	press
488.613	n/a	RESPONSE	M1	1	16	E4	release
488.745	n/a	RESPONSE	M1	1	17	F4	press
489.246	n/a	RESPONSE	M1	1	14	D4	press
489.267	n/a	RESPONSE	M1	1	17	F4	release
489.528	n/a	RESPONSE	M1	1	14	D4	release
489.821	n/a	RESPONSE	M1	1	14	D4	press
490.271	n/a	RESPONSE	M1	1	14	D4	release
490.353	n/a	RESPONSE	M1	1	12	C4	press
490.626	n/a	RESPONSE	M1	1	16	E4	press
490.675	n/a	RESPONSE	M1	1	12	C4	release
490.896	n/a	RESPONSE	M1	1	19	G4	press
490.98	n/a	RESPONSE	M1	1	16	E4	release
491.701	n/a	RESPONSE	M1	1	19	G4	release
492.734	7.759	FIXCROSS	n/a	n/a	n/a	n/a	n/a
500.492	6.325	CUE_LISTEN	M1	2	n/a	n/a	n/a
506.817	7.759	FIXCROSS	n/a	n/a	n/a	n/a	n/a
514.576	6.317	CUE_PLAYBACK_RIGHT_HAND	M1	2	n/a	n/a	n/a
515.258	n/a	RESPONSE	M1	2	19	G4	press
515.762	n/a	RESPONSE	M1	2	16	E4	press
515.803	n/a	RESPONSE	M1	2	19	G4	release
516.037	n/a	RESPONSE	M1	2	16	E4	release
516.276	n/a	RESPONSE	M1	2	16	E4	press
516.687	n/a	RESPONSE	M1	2	16	E4	release
516.728	n/a	RESPONSE	M1	2	17	F4	press
517.21	n/a	RESPONSE	M1	2	14	D4	press
517.251	n/a	RESPONSE	M1	2	17	F4	release
517.502	n/a	RESPONSE	M1	2	14	D4	release
517.753	n/a	RESPONSE	M1	2	14	D4	press
518.255	n/a	RESPONSE	M1	2	14	D4	release
518.266	n/a	RESPONSE	M1	2	12	C4	press
518.547	n/a	RESPONSE	M1	2	16	E4	press
518.58	n/a	RESPONSE	M1	2	12	C4	release
518.84	n/a	RESPONSE	M1	2	16	E4	release
518.842	n/a	RESPONSE	M1	2	12	C4	press
520.022	n/a	RESPONSE	M1	2	12	C4	release
520.892	7.759	FIXCROSS	n/a	n/a	n/a	n/a	n/a
528.651	6.317	CUE_LISTEN	M1	1	n/a	n/a	n/a
534.967	7.758	FIXCROSS	n/a	n/a	n/a	n/a	n/a
542.726	6.325	CUE_PLAYBACK_BOTH_HANDS	M1	1	n/a	n/a	n/a
543.776	n/a	RESPONSE	M1	1	19	G4	press
543.782	n/a	RESPONSE	M1	1	07	G3	press
544.24	n/a	RESPONSE	M1	1	19	G4	release
544.291	n/a	RESPONSE	M1	1	04	E3	press
544.336	n/a	RESPONSE	M1	1	16	E4	press
544.451	n/a	RESPONSE	M1	1	07	G3	release
544.59	n/a	RESPONSE	M1	1	16	E4	release
544.848	n/a	RESPONSE	M1	1	16	E4	press
545.167	n/a	RESPONSE	M1	1	16	E4	release
545.28	n/a	RESPONSE	M1	1	04	E3	release
545.351	n/a	RESPONSE	M1	1	17	F4	press
545.364	n/a	RESPONSE	M1	1	05	F3	press
545.704	n/a	RESPONSE	M1	1	05	F3	release
545.755	n/a	RESPONSE	M1	1	17	F4	release
545.866	n/a	RESPONSE	M1	1	02	D3	press
545.87	n/a	RESPONSE	M1	1	14	D4	press
546.138	n/a	RESPONSE	M1	1	14	D4	release
546.21	n/a	RESPONSE	M1	1	02	D3	release
546.382	n/a	RESPONSE	M1	1	02	D3	press
546.405	n/a	RESPONSE	M1	1	14	D4	press
546.674	n/a	RESPONSE	M1	1	02	D3	release
546.725	n/a	RESPONSE	M1	1	14	D4	release
546.936	n/a	RESPONSE	M1	1	00	C3	press
546.977	n/a	RESPONSE	M1	1	12	C4	press
547.208	n/a	RESPONSE	M1	1	12	C4	release
547.211	n/a	RESPONSE	M1	1	16	E4	press
547.224	n/a	RESPONSE	M1	1	04	E3	press
547.355	n/a	RESPONSE	M1	1	00	C3	release
547.414	n/a	RESPONSE	M1	1	16	E4	release
547.475	n/a	RESPONSE	M1	1	19	G4	press
547.516	n/a	RESPONSE	M1	1	07	G3	press
547.518	n/a	RESPONSE	M1	1	04	E3	release
549.051	7.758	FIXCROSS	n/a	n/a	n/a	n/a	n/a
549.478	n/a	RESPONSE	M1	1	19	G4	release
550.79	n/a	RESPONSE	M1	1	07	G3	release
556.809	6.325	CUE_LISTEN	M1	2	n/a	n/a	n/a
563.134	7.758	FIXCROSS	n/a	n/a	n/a	n/a	n/a
570.892	6.308	CUE_PLAYBACK_BOTH_HANDS	M1	2	n/a	n/a	n/a
571.731	n/a	RESPONSE	M1	2	19	G4	press
571.755	n/a	RESPONSE	M1	2	07	G3	press
572.225	n/a	RESPONSE	M1	2	04	E3	press
572.272	n/a	RESPONSE	M1	2	19	G4	release
572.276	n/a	RESPONSE	M1	2	07	G3	release
572.284	n/a	RESPONSE	M1	2	16	E4	press
572.547	n/a	RESPONSE	M1	2	16	E4	release
572.662	n/a	RESPONSE	M1	2	04	E3	release
572.762	n/a	RESPONSE	M1	2	04	E3	press
572.767	n/a	RESPONSE	M1	2	16	E4	press
573.082	n/a	RESPONSE	M1	2	16	E4	release
573.244	n/a	RESPONSE	M1	2	04	E3	release
573.298	n/a	RESPONSE	M1	2	17	F4	press
573.316	n/a	RESPONSE	M1	2	05	F3	press
573.814	n/a	RESPONSE	M1	2	02	D3	press
573.822	n/a	RESPONSE	M1	2	17	F4	release
573.827	n/a	RESPONSE	M1	2	14	D4	press
573.834	n/a	RESPONSE	M1	2	05	F3	release
574.056	n/a	RESPONSE	M1	2	14	D4	release
574.146	n/a	RESPONSE	M1	2	02	D3	release
574.351	n/a	RESPONSE	M1	2	02	D3	press
574.366	n/a	RESPONSE	M1	2	14	D4	press
574.707	n/a	RESPONSE	M1	2	14	D4	release
574.711	n/a	RESPONSE	M1	2	02	D3	release
574.935	n/a	RESPONSE	M1	2	00	C3	press
574.944	n/a	RESPONSE	M1	2	12	C4	press
575.171	n/a	RESPONSE	M1	2	12	C4	release
575.177	n/a	RESPONSE	M1	2	16	E4	press
575.186	n/a	RESPONSE	M1	2	04	E3	press
575.317	n/a	RESPONSE	M1	2	00	C3	release
575.395	n/a	RESPONSE	M1	2	16	E4	release
575.397	n/a	RESPONSE	M1	2	04	E3	release
575.446	n/a	RESPONSE	M1	2	00	C3	press
575.466	n/a	RESPONSE	M1	2	12	C4	press
576.6	n/a	RESPONSE	M1	2	12	C4	release
576.924	n/a	RESPONSE	M1	2	00	C3	release
577.201	7.758	FIXCROSS	n/a	n/a	n/a	n/a	n/a
584.959	6.325	CUE_LISTEN	M1	1	n/a	n/a	n/a
591.284	7.758	FIXCROSS	n/a	n/a	n/a	n/a	n/a
599.042	6.317	CUE_PLAYBACK_RIGHT_HAND	M1	1	n/a	n/a	n/a
599.695	n/a	RESPONSE	M1	1	19	G4	press
600.175	n/a	RESPONSE	M1	1	16	E4	press
600.207	n/a	RESPONSE	M1	1	19	G4	release
600.467	n/a	RESPONSE	M1	1	16	E4	release
600.658	n/a	RESPONSE	M1	1	16	E4	press
601.06	n/a	RESPONSE	M1	1	16	E4	release
601.164	n/a	RESPONSE	M1	1	17	F4	press
601.632	n/a	RESPONSE	M1	1	14	D4	press
601.684	n/a	RESPONSE	M1	1	17	F4	release
601.945	n/a	RESPONSE	M1	1	14	D4	release
602.187	n/a	RESPONSE	M1	1	14	D4	press
602.734	n/a	RESPONSE	M1	1	14	D4	release
602.771	n/a	RESPONSE	M1	1	12	C4	press
603.036	n/a	RESPONSE	M1	1	16	E4	press
603.081	n/a	RESPONSE	M1	1	12	C4	release
603.361	n/a	RESPONSE	M1	1	19	G4	press
603.427	n/a	RESPONSE	M1	1	16	E4	release
604.107	n/a	RESPONSE	M1	1	19	G4	release
605.359	7.758	FIXCROSS	n/a	n/a	n/a	n/a	n/a
613.118	6.325	CUE_LISTEN	M1	2	n/a	n/a	n/a
619.442	7.759	FIXCROSS	n/a	n/a	n/a	n/a	n/a
627.201	6.317	CUE_PLAYBACK_RIGHT_HAND	M1	2	n/a	n/a	n/a
627.767	n/a	RESPONSE	M1	2	19	G4	press
628.259	n/a	RESPONSE	M1	2	19	G4	release
628.28	n/a	RESPONSE	M1	2	16	E4	press
628.554	n/a	RESPONSE	M1	2	16	E4	release
628.832	n/a	RESPONSE	M1	2	16	E4	press
629.234	n/a	RESPONSE	M1	2	16	E4	release
629.305	n/a	RESPONSE	M1	2	17	F4	press
629.806	n/a	RESPONSE	M1	2	14	D4	press
629.867	n/a	RESPONSE	M1	2	17	F4	release
630.1	n/a	RESPONSE	M1	2	14	D4	release
630.382	n/a	RESPONSE	M1	2	14	D4	press
630.881	n/a	RESPONSE	M1	2	14	D4	release
630.974	n/a	RESPONSE	M1	2	12	C4	press
631.274	n/a	RESPONSE	M1	2	16	E4	press
631.326	n/a	RESPONSE	M1	2	12	C4	release
631.526	n/a	RESPONSE	M1	2	16	E4	release
631.547	n/a	RESPONSE	M1	2	12	C4	press
632.746	n/a	RESPONSE	M1	2	12	C4	release
633.518	7.758	FIXCROSS	n/a	n/a	n/a	n/a	n/a
641.276	6.317	CUE_LISTEN	M1	1	n/a	n/a	n/a
647.593	7.758	FIXCROSS	n/a	n/a	n/a	n/a	n/a
655.351	6.325	CUE_PLAYBACK_BOTH_HANDS	M1	1	n/a	n/a	n/a
656.421	n/a	RESPONSE	M1	1	19	G4	press
656.442	n/a	RESPONSE	M1	1	07	G3	press
656.954	n/a	RESPONSE	M1	1	04	E3	press
656.965	n/a	RESPONSE	M1	1	16	E4	press
656.986	n/a	RESPONSE	M1	1	19	G4	release
657.117	n/a	RESPONSE	M1	1	07	G3	release
657.229	n/a	RESPONSE	M1	1	16	E4	release
657.46	n/a	RESPONSE	M1	1	16	E4	press
657.732	n/a	RESPONSE	M1	1	16	E4	release
657.865	n/a	RESPONSE	M1	1	04	E3	release
658.014	n/a	RESPONSE	M1	1	17	F4	press
658.025	n/a	RESPONSE	M1	1	05	F3	press
658.449	n/a	RESPONSE	M1	1	05	F3	release
658.457	n/a	RESPONSE	M1	1	17	F4	release
658.51	n/a	RESPONSE	M1	1	02	D3	press
658.521	n/a	RESPONSE	M1	1	14	D4	press
658.781	n/a	RESPONSE	M1	1	14	D4	release
658.872	n/a	RESPONSE	M1	1	02	D3	release
659.025	n/a	RESPONSE	M1	1	02	D3	press
659.056	n/a	RESPONSE	M1	1	14	D4	press
659.329	n/a	RESPONSE	M1	1	02	D3	release
659.357	n/a	RESPONSE	M1	1	14	D4	release
659.599	n/a	RESPONSE	M1	1	12	C4	press
659.601	n/a	RESPONSE	M1	1	00	C3	press
659.871	n/a	RESPONSE	M1	1	04	E3	press
659.882	n/a	RESPONSE	M1	1	16	E4	press
659.894	n/a	RESPONSE	M1	1	12	C4	release
659.986	n/a	RESPONSE	M1	1	00	C3	release
660.086	n/a	RESPONSE	M1	1	16	E4	release
660.117	n/a	RESPONSE	M1	1	19	G4	press
660.129	n/a	RESPONSE	M1	1	07	G3	press
660.14	n/a	RESPONSE	M1	1	04	E3	release
660.991	n/a	RESPONSE	M1	1	19	G4	release
661.115	n/a	RESPONSE	M1	1	07	G3	release
661.676	7.758	FIXCROSS	n/a	n/a	n/a	n/a	n/a
669.434	6.317	CUE_LISTEN	M1	2	n/a	n/a	n/a
675.751	7.758	FIXCROSS	n/a	n/a	n/a	n/a	n/a
683.51	6.317	CUE_PLAYBACK_BOTH_HANDS	M1	2	n/a	n/a	n/a
684.321	n/a	RESPONSE	M1	2	19	G4	press
684.33	n/a	RESPONSE	M1	2	07	G3	press
684.809	n/a	RESPONSE	M1	2	19	G4	release
684.834	n/a	RESPONSE	M1	2	04	E3	press
684.84	n/a	RESPONSE	M1	2	16	E4	press
684.875	n/a	RESPONSE	M1	2	07	G3	release
685.15	n/a	RESPONSE	M1	2	16	E4	release
685.35	n/a	RESPONSE	M1	2	16	E4	press
685.637	n/a	RESPONSE	M1	2	16	E4	release
685.717	n/a	RESPONSE	M1	2	04	E3	release
685.87	n/a	RESPONSE	M1	2	17	F4	press
685.89	n/a	RESPONSE	M1	2	05	F3	press
686.211	n/a	RESPONSE	M1	2	05	F3	release
686.365	n/a	RESPONSE	M1	2	17	F4	release
686.394	n/a	RESPONSE	M1	2	14	D4	press
686.396	n/a	RESPONSE	M1	2	02	D3	press
686.626	n/a	RESPONSE	M1	2	02	D3	release
686.65	n/a	RESPONSE	M1	2	14	D4	release
686.899	n/a	RESPONSE	M1	2	02	D3	press
686.91	n/a	RESPONSE	M1	2	14	D4	press
687.201	n/a	RESPONSE	M1	2	02	D3	release
687.204	n/a	RESPONSE	M1	2	14	D4	release
687.394	n/a	RESPONSE	M1	2	00	C3	press
687.405	n/a	RESPONSE	M1	2	12	C4	press
687.656	n/a	RESPONSE	M1	2	04	E3	press
687.72	n/a	RESPONSE	M1	2	16	E4	press
687.769	n/a	RESPONSE	M1	2	00	C3	release
687.791	n/a	RESPONSE	M1	2	12	C4	release
687.851	n/a	RESPONSE	M1	2	04	E3	release
688.092	n/a	RESPONSE	M1	2	16	E4	release
688.134	n/a	RESPONSE	M1	2	00	C3	press
688.155	n/a	RESPONSE	M1	2	12	C4	press
689.046	n/a	RESPONSE	M1	2	12	C4	release
689.157	n/a	RESPONSE	M1	2	00	C3	release
689.826	7.758	FIXCROSS	n/a	n/a	n/a	n/a	n/a
697.585	6.325	CUE_LISTEN	M1	1	n/a	n/a	n/a
703.91	7.759	FIXCROSS	n/a	n/a	n/a	n/a	n/a
711.668	6.317	CUE_PLAYBACK_RIGHT_HAND	M1	1	n/a	n/a	n/a
712.488	n/a	RESPONSE	M1	1	19	G4	press
713.002	n/a	RESPONSE	M1	1	19	G4	release
713.022	n/a	RESPONSE	M1	1	16	E4	press
713.396	n/a	RESPONSE	M1	1	16	E4	release
713.598	n/a	RESPONSE	M1	1	16	E4	press
713.99	n/a	RESPONSE	M1	1	16	E4	release
714.088	n/a	RESPONSE	M1	1	17	F4	press
714.581	n/a	RESPONSE	M1	1	17	F4	release
714.584	n/a	RESPONSE	M1	1	14	D4	press
714.951	n/a	RESPONSE	M1	1	14	D4	release
715.12	n/a	RESPONSE	M1	1	14	D4	press
715.578	n/a	RESPONSE	M1	1	14	D4	release
715.591	n/a	RESPONSE	M1	1	12	C4	press
715.869	n/a	RESPONSE	M1	1	16	E4	press
715.871	n/a	RESPONSE	M1	1	12	C4	release
716.104	n/a	RESPONSE	M1	1	19	G4	press
716.172	n/a	RESPONSE	M1	1	16	E4	release
716.814	n/a	RESPONSE	M1	1	19	G4	release
717.985	7.758	FIXCROSS	n/a	n/a	n/a	n/a	n/a
725.743	6.317	CUE_LISTEN	M1	2	n/a	n/a	n/a
732.06	7.758	FIXCROSS	n/a	n/a	n/a	n/a	n/a
739.818	6.325	CUE_PLAYBACK_RIGHT_HAND	M1	2	n/a	n/a	n/a
740.624	n/a	RESPONSE	M1	2	19	G4	press
741.075	n/a	RESPONSE	M1	2	16	E4	press
741.126	n/a	RESPONSE	M1	2	19	G4	release
741.408	n/a	RESPONSE	M1	2	16	E4	release
741.63	n/a	RESPONSE	M1	2	16	E4	press
741.99	n/a	RESPONSE	M1	2	16	E4	release
742.111	n/a	RESPONSE	M1	2	17	F4	press
742.615	n/a	RESPONSE	M1	2	14	D4	press
742.668	n/a	RESPONSE	M1	2	17	F4	release
742.94	n/a	RESPONSE	M1	2	14	D4	release
743.192	n/a	RESPONSE	M1	2	14	D4	press
743.716	n/a	RESPONSE	M1	2	14	D4	release
743.849	n/a	RESPONSE	M1	2	12	C4	press
744.148	n/a	RESPONSE	M1	2	16	E4	press
744.175	n/a	RESPONSE	M1	2	12	C4	release
744.43	n/a	RESPONSE	M1	2	12	C4	press
744.45	n/a	RESPONSE	M1	2	16	E4	release
745.18	n/a	RESPONSE	M1	2	12	C4	release
746.143	7.759	FIXCROSS	n/a	n/a	n/a	n/a	n/a
753.902	6.317	CUE_LISTEN	M1	1	n/a	n/a	n/a
760.218	7.758	FIXCROSS	n/a	n/a	n/a	n/a	n/a
767.976	6.317	CUE_PLAYBACK_BOTH_HANDS	M1	1	n/a	n/a	n/a
769.048	n/a	RESPONSE	M1	1	19	G4	press
769.059	n/a	RESPONSE	M1	1	07	G3	press
769.549	n/a	RESPONSE	M1	1	04	E3	press
769.56	n/a	RESPONSE	M1	1	19	G4	release
769.601	n/a	RESPONSE	M1	1	16	E4	press
769.673	n/a	RESPONSE	M1	1	07	G3	release
769.875	n/a	RESPONSE	M1	1	16	E4	release
769.955	n/a	RESPONSE	M1	1	04	E3	release
770.079	n/a	RESPONSE	M1	1	16	E4	press
770.088	n/a	RESPONSE	M1	1	04	E3	press
770.399	n/a	RESPONSE	M1	1	16	E4	release
770.49	n/a	RESPONSE	M1	1	04	E3	release
770.581	n/a	RESPONSE	M1	1	17	F4	press
770.603	n/a	RESPONSE	M1	1	05	F3	press
771.065	n/a	RESPONSE	M1	1	17	F4	release
771.085	n/a	RESPONSE	M1	1	14	D4	press
771.088	n/a	RESPONSE	M1	1	02	D3	press
771.158	n/a	RESPONSE	M1	1	05	F3	release
771.369	n/a	RESPONSE	M1	1	14	D4	release
771.6	n/a	RESPONSE	M1	1	14	D4	press
771.884	n/a	RESPONSE	M1	1	02	D3	release
771.913	n/a	RESPONSE	M1	1	14	D4	release
772.135	n/a	RESPONSE	M1	1	12	C4	press
772.146	n/a	RESPONSE	M1	1	00	C3	press
772.413	n/a	RESPONSE	M1	1	16	E4	press
772.415	n/a	RESPONSE	M1	1	04	E3	press
772.424	n/a	RESPONSE	M1	1	12	C4	release
772.545	n/a	RESPONSE	M1	1	00	C3	release
772.626	n/a	RESPONSE	M1	1	16	E4	release
772.649	n/a	RESPONSE	M1	1	19	G4	press
772.659	n/a	RESPONSE	M1	1	07	G3	press
772.751	n/a	RESPONSE	M1	1	04	E3	release
773.521	n/a	RESPONSE	M1	1	19	G4	release
773.9	n/a	RESPONSE	M1	1	07	G3	release
774.293	7.759	FIXCROSS	n/a	n/a	n/a	n/a	n/a
782.052	6.325	CUE_LISTEN	M1	2	n/a	n/a	n/a
788.376	7.759	FIXCROSS	n/a	n/a	n/a	n/a	n/a
796.135	6.317	CUE_PLAYBACK_BOTH_HANDS	M1	2	n/a	n/a	n/a
797.231	n/a	RESPONSE	M1	2	19	G4	press
797.245	n/a	RESPONSE	M1	2	07	G3	press
797.724	n/a	RESPONSE	M1	2	19	G4	release
797.756	n/a	RESPONSE	M1	2	04	E3	press
797.806	n/a	RESPONSE	M1	2	16	E4	press
797.828	n/a	RESPONSE	M1	2	07	G3	release
798.049	n/a	RESPONSE	M1	2	16	E4	release
798.11	n/a	RESPONSE	M1	2	04	E3	release
798.271	n/a	RESPONSE	M1	2	04	E3	press
798.313	n/a	RESPONSE	M1	2	16	E4	press
798.564	n/a	RESPONSE	M1	2	16	E4	release
798.665	n/a	RESPONSE	M1	2	04	E3	release
798.826	n/a	RESPONSE	M1	2	17	F4	press
798.829	n/a	RESPONSE	M1	2	05	F3	press
799.249	n/a	RESPONSE	M1	2	17	F4	release
799.33	n/a	RESPONSE	M1	2	02	D3	press
799.333	n/a	RESPONSE	M1	2	14	D4	press
799.353	n/a	RESPONSE	M1	2	05	F3	release
799.615	n/a	RESPONSE	M1	2	14	D4	release
799.668	n/a	RESPONSE	M1	2	02	D3	release
799.819	n/a	RESPONSE	M1	2	02	D3	press
799.839	n/a	RESPONSE	M1	2	14	D4	press
800.119	n/a	RESPONSE	M1	2	14	D4	release
800.14	n/a	RESPONSE	M1	2	02	D3	release
800.334	n/a	RESPONSE	M1	2	00	C3	press
800.343	n/a	RESPONSE	M1	2	12	C4	press
800.544	n/a	RESPONSE	M1	2	12	C4	release
800.585	n/a	RESPONSE	M1	2	16	E4	press
800.606	n/a	RESPONSE	M1	2	04	E3	press
800.78	n/a	RESPONSE	M1	2	04	E3	release
800.789	n/a	RESPONSE	M1	2	16	E4	release
800.81	n/a	RESPONSE	M1	2	12	C4	press
801.891	n/a	RESPONSE	M1	2	12	C4	release
802.026	n/a	RESPONSE	M1	2	00	C3	release
802.452	7.758	FIXCROSS	n/a	n/a	n/a	n/a	n/a
810.21	6.317	CUE_LISTEN	M1	1	n/a	n/a	n/a
816.527	7.759	FIXCROSS	n/a	n/a	n/a	n/a	n/a
824.285	6.325	CUE_PLAYBACK_RIGHT_HAND	M1	1	n/a	n/a	n/a
825.014	n/a	RESPONSE	M1	1	19	G4	press
825.505	n/a	RESPONSE	M1	1	16	E4	press
825.539	n/a	RESPONSE	M1	1	19	G4	release
825.785	n/a	RESPONSE	M1	1	16	E4	release
826.015	n/a	RESPONSE	M1	1	16	E4	press
826.405	n/a	RESPONSE	M1	1	16	E4	release
826.488	n/a	RESPONSE	M1	1	17	F4	press
827.008	n/a	RESPONSE	M1	1	14	D4	press
827.019	n/a	RESPONSE	M1	1	17	F4	release
827.33	n/a	RESPONSE	M1	1	14	D4	release
827.551	n/a	RESPONSE	M1	1	14	D4	press
828.023	n/a	RESPONSE	M1	1	14	D4	release
828.076	n/a	RESPONSE	M1	1	12	C4	press
828.376	n/a	RESPONSE	M1	1	16	E4	press
828.428	n/a	RESPONSE	M1	1	12	C4	release
828.728	n/a	RESPONSE	M1	1	19	G4	press
828.85	n/a	RESPONSE	M1	1	16	E4	release
829.483	n/a	RESPONSE	M1	1	19	G4	release
830.61	7.759	FIXCROSS	n/a	n/a	n/a	n/a	n/a
838.368	6.317	CUE_LISTEN	M1	2	n/a	n/a	n/a
844.685	7.758	FIXCROSS	n/a	n/a	n/a	n/a	n/a
852.444	6.325	CUE_PLAYBACK_RIGHT_HAND	M1	2	n/a	n/a	n/a
853.245	n/a	RESPONSE	M1	2	19	G4	press
853.776	n/a	RESPONSE	M1	2	16	E4	press
853.795	n/a	RESPONSE	M1	2	19	G4	release
854.043	n/a	RESPONSE	M1	2	16	E4	release
854.356	n/a	RESPONSE	M1	2	16	E4	press
854.819	n/a	RESPONSE	M1	2	16	E4	release
854.825	n/a	RESPONSE	M1	2	17	F4	press
855.355	n/a	RESPONSE	M1	2	14	D4	press
855.385	n/a	RESPONSE	M1	2	17	F4	release
855.636	n/a	RESPONSE	M1	2	14	D4	release
855.888	n/a	RESPONSE	M1	2	14	D4	press
856.469	n/a	RESPONSE	M1	2	12	C4	press
856.483	n/a	RESPONSE	M1	2	14	D4	release
856.742	n/a	RESPONSE	M1	2	16	E4	press
856.823	n/a	RESPONSE	M1	2	12	C4	release
857.014	n/a	RESPONSE	M1	2	12	C4	press
857.025	n/a	RESPONSE	M1	2	16	E4	release
858.316	n/a	RESPONSE	M1	2	12	C4	release
858.768	7.758	FIXCROSS	n/a	n/a	n/a	n/a	n/a
866.527	6.317	CUE_LISTEN	M1	1	n/a	n/a	n/a
872.844	7.759	FIXCROSS	n/a	n/a	n/a	n/a	n/a
880.602	6.317	CUE_PLAYBACK_BOTH_HANDS	M1	1	n/a	n/a	n/a
881.644	n/a	RESPONSE	M1	1	19	G4	press
881.655	n/a	RESPONSE	M1	1	07	G3	press
882.149	n/a	RESPONSE	M1	1	04	E3	press
882.158	n/a	RESPONSE	M1	1	16	E4	press
882.182	n/a	RESPONSE	M1	1	19	G4	release
882.208	n/a	RESPONSE	M1	1	07	G3	release
882.408	n/a	RESPONSE	M1	1	16	E4	release
882.475	n/a	RESPONSE	M1	1	04	E3	release
882.629	n/a	RESPONSE	M1	1	04	E3	press
882.643	n/a	RESPONSE	M1	1	16	E4	press
883.009	n/a	RESPONSE	M1	1	16	E4	release
883.082	n/a	RESPONSE	M1	1	04	E3	release
883.144	n/a	RESPONSE	M1	1	17	F4	press
883.17	n/a	RESPONSE	M1	1	05	F3	press
883.656	n/a	RESPONSE	M1	1	17	F4	release
883.682	n/a	RESPONSE	M1	1	02	D3	press
883.686	n/a	RESPONSE	M1	1	14	D4	press
883.758	n/a	RESPONSE	M1	1	05	F3	release
883.946	n/a	RESPONSE	M1	1	14	D4	release
884.065	n/a	RESPONSE	M1	1	02	D3	release
884.244	n/a	RESPONSE	M1	1	14	D4	press
884.248	n/a	RESPONSE	M1	1	02	D3	press
884.574	n/a	RESPONSE	M1	1	14	D4	release
884.669	n/a	RESPONSE	M1	1	02	D3	release
884.802	n/a	RESPONSE	M1	1	00	C3	press
884.815	n/a	RESPONSE	M1	1	12	C4	press
885.014	n/a	RESPONSE	M1	1	16	E4	press
885.063	n/a	RESPONSE	M1	1	12	C4	release
885.074	n/a	RESPONSE	M1	1	04	E3	press
885.214	n/a	RESPONSE	M1	1	00	C3	release
885.259	n/a	RESPONSE	M1	1	16	E4	release
885.266	n/a	RESPONSE	M1	1	19	G4	press
885.374	n/a	RESPONSE	M1	1	07	G3	press
885.714	n/a	RESPONSE	M1	1	04	E3	release
886.263	n/a	RESPONSE	M1	1	19	G4	release
886.514	n/a	RESPONSE	M1	1	07	G3	release
886.919	7.758	FIXCROSS	n/a	n/a	n/a	n/a	n/a
894.677	6.325	CUE_LISTEN	M1	2	n/a	n/a	n/a
901.002	7.758	FIXCROSS	n/a	n/a	n/a	n/a	n/a
908.76	117.438	CUE_PLAYBACK_BOTH_HANDS	M1	2	n/a	n/a	n/a
909.69	n/a	RESPONSE	M1	2	19	G4	press
909.722	n/a	RESPONSE	M1	2	07	G3	press
910.172	n/a	RESPONSE	M1	2	04	E3	press
910.193	n/a	RESPONSE	M1	2	16	E4	press
910.195	n/a	RESPONSE	M1	2	19	G4	release
910.278	n/a	RESPONSE	M1	2	07	G3	release
910.448	n/a	RESPONSE	M1	2	04	E3	release
910.45	n/a	RESPONSE	M1	2	16	E4	release
910.682	n/a	RESPONSE	M1	2	04	E3	press
910.713	n/a	RESPONSE	M1	2	16	E4	press
910.972	n/a	RESPONSE	M1	2	16	E4	release
911.053	n/a	RESPONSE	M1	2	04	E3	release
911.196	n/a	RESPONSE	M1	2	17	F4	press
911.235	n/a	RESPONSE	M1	2	05	F3	press
911.648	n/a	RESPONSE	M1	2	17	F4	release
911.688	n/a	RESPONSE	M1	2	05	F3	release
911.719	n/a	RESPONSE	M1	2	02	D3	press
911.723	n/a	RESPONSE	M1	2	14	D4	press
911.974	n/a	RESPONSE	M1	2	14	D4	release
912.003	n/a	RESPONSE	M1	2	02	D3	release
912.27	n/a	RESPONSE	M1	2	02	D3	press
912.275	n/a	RESPONSE	M1	2	14	D4	press
912.558	n/a	RESPONSE	M1	2	02	D3	release
912.578	n/a	RESPONSE	M1	2	14	D4	release
912.81	n/a	RESPONSE	M1	2	00	C3	press
912.826	n/a	RESPONSE	M1	2	12	C4	press
913.03	n/a	RESPONSE	M1	2	12	C4	release
913.064	n/a	RESPONSE	M1	2	16	E4	press
913.068	n/a	RESPONSE	M1	2	04	E3	press
913.094	n/a	RESPONSE	M1	2	00	C3	release
913.212	n/a	RESPONSE	M1	2	16	E4	release
913.238	n/a	RESPONSE	M1	2	12	C4	press
913.254	n/a	FIXCROSS	n/a	n/a	n/a	n/a	n/a
913.283	n/a	RESPONSE	M1	2	04	E3	release
913.972	n/a	RESPONSE	M1	2	12	C4	release
