onset	duration	trial_type	trial_number	stroop_condition	stim_text(PL)	stim_text(eng)	stim_color(PL)	stim_color(eng)	response_type	response_color
0.0	n/a	RESPONSE	n/a	n/a	n/a	n/a	n/a	n/a	n/a	n/a
0.0225	1.0167	ITI	n/a	n/a	n/a	n/a	n/a	n/a	n/a	n/a
1.0391	0.5	FIXCROSS	n/a	n/a	n/a	n/a	n/a	n/a	n/a	n/a
1.5391	1.05	T_INK	1	Incongruent	czerwony	red	zielony	green	hit	n/a
2.5742	n/a	RESPONSE	n/a	n/a	n/a	n/a	n/a	n/a	n/a	green
2.5891	0.5	FEEDBACK	n/a	n/a	n/a	n/a	n/a	n/a	n/a	n/a
3.0891	1.0	ITI	n/a	n/a	n/a	n/a	n/a	n/a	n/a	n/a
4.0891	0.5	FIXCROSS	n/a	n/a	n/a	n/a	n/a	n/a	n/a	n/a
4.589	0.9167	T_INK	2	Incongruent	czerwony	red	niebieski	blue	hit	n/a
5.5002	n/a	RESPONSE	n/a	n/a	n/a	n/a	n/a	n/a	n/a	blue
5.5057	0.5	FEEDBACK	n/a	n/a	n/a	n/a	n/a	n/a	n/a	n/a
6.0057	1.0	ITI	n/a	n/a	n/a	n/a	n/a	n/a	n/a	n/a
7.0057	0.5	FIXCROSS	n/a	n/a	n/a	n/a	n/a	n/a	n/a	n/a
7.5057	0.8167	T_INK	3	Neutral	xxxxxxxx	xxxxxxxx	niebieski	blue	hit	n/a
8.3144	n/a	RESPONSE	n/a	n/a	n/a	n/a	n/a	n/a	n/a	blue
8.3223	0.5	FEEDBACK	n/a	n/a	n/a	n/a	n/a	n/a	n/a	n/a
8.8223	1.0166	ITI	n/a	n/a	n/a	n/a	n/a	n/a	n/a	n/a
9.839	0.5	FIXCROSS	n/a	n/a	n/a	n/a	n/a	n/a	n/a	n/a
10.3389	0.9	T_INK	4	Incongruent	żółty	yellow	niebieski	blue	hit	n/a
11.2244	n/a	RESPONSE	n/a	n/a	n/a	n/a	n/a	n/a	n/a	blue
11.2389	0.5	FEEDBACK	n/a	n/a	n/a	n/a	n/a	n/a	n/a	n/a
11.7389	1.0	ITI	n/a	n/a	n/a	n/a	n/a	n/a	n/a	n/a
12.7389	0.5	FIXCROSS	n/a	n/a	n/a	n/a	n/a	n/a	n/a	n/a
13.2389	0.6667	T_INK	5	Incongruent	czerwony	red	żółty	yellow	hit	n/a
13.8947	n/a	RESPONSE	n/a	n/a	n/a	n/a	n/a	n/a	n/a	yellow
13.9055	0.5	FEEDBACK	n/a	n/a	n/a	n/a	n/a	n/a	n/a	n/a
14.4055	1.0	ITI	n/a	n/a	n/a	n/a	n/a	n/a	n/a	n/a
15.4055	0.5	FIXCROSS	n/a	n/a	n/a	n/a	n/a	n/a	n/a	n/a
15.9055	0.7667	T_INK	6	Neutral	xxxxxxxxx	xxxxxxxxx	zielony	green	hit	n/a
16.6608	n/a	RESPONSE	n/a	n/a	n/a	n/a	n/a	n/a	n/a	green
16.6722	0.5	FEEDBACK	n/a	n/a	n/a	n/a	n/a	n/a	n/a	n/a
17.1722	1.0	ITI	n/a	n/a	n/a	n/a	n/a	n/a	n/a	n/a
18.1721	0.5	FIXCROSS	n/a	n/a	n/a	n/a	n/a	n/a	n/a	n/a
18.6721	0.65	T_INK	7	Neutral	xxxxxxx	xxxxxxx	niebieski	blue	hit	n/a
19.315	n/a	RESPONSE	n/a	n/a	n/a	n/a	n/a	n/a	n/a	blue
19.3221	0.5	FEEDBACK	n/a	n/a	n/a	n/a	n/a	n/a	n/a	n/a
19.8221	1.0	ITI	n/a	n/a	n/a	n/a	n/a	n/a	n/a	n/a
20.8221	0.5	FIXCROSS	n/a	n/a	n/a	n/a	n/a	n/a	n/a	n/a
21.3221	0.6666	T_INK	8	Neutral	xxxxxxxx	xxxxxxxx	zielony	green	hit	n/a
21.9692	n/a	RESPONSE	n/a	n/a	n/a	n/a	n/a	n/a	n/a	green
21.9887	0.5	FEEDBACK	n/a	n/a	n/a	n/a	n/a	n/a	n/a	n/a
22.4887	1.0	ITI	n/a	n/a	n/a	n/a	n/a	n/a	n/a	n/a
23.4887	0.5	FIXCROSS	n/a	n/a	n/a	n/a	n/a	n/a	n/a	n/a
23.9887	0.8	T_INK	9	Incongruent	zielony	green	żółty	yellow	hit	n/a
24.7832	n/a	RESPONSE	n/a	n/a	n/a	n/a	n/a	n/a	n/a	yellow
24.7887	0.5	FEEDBACK	n/a	n/a	n/a	n/a	n/a	n/a	n/a	n/a
25.2887	1.0	ITI	n/a	n/a	n/a	n/a	n/a	n/a	n/a	n/a
26.2887	0.5	FIXCROSS	n/a	n/a	n/a	n/a	n/a	n/a	n/a	n/a
26.7887	0.7	T_INK	10	Neutral	xxxxx	xxxxx	niebieski	blue	hit	n/a
27.4694	n/a	RESPONSE	n/a	n/a	n/a	n/a	n/a	n/a	n/a	blue
27.4886	0.5	FEEDBACK	n/a	n/a	n/a	n/a	n/a	n/a	n/a	n/a
27.9886	1.0	ITI	n/a	n/a	n/a	n/a	n/a	n/a	n/a	n/a
28.9886	0.5167	FIXCROSS	n/a	n/a	n/a	n/a	n/a	n/a	n/a	n/a
29.5053	0.7833	T_INK	11	Neutral	xxxxxxxxx	xxxxxxxxx	czerwony	red	hit	n/a
30.2835	n/a	RESPONSE	n/a	n/a	n/a	n/a	n/a	n/a	n/a	red
30.2886	0.5	FEEDBACK	n/a	n/a	n/a	n/a	n/a	n/a	n/a	n/a
30.7886	1.0	ITI	n/a	n/a	n/a	n/a	n/a	n/a	n/a	n/a
31.7886	0.5	FIXCROSS	n/a	n/a	n/a	n/a	n/a	n/a	n/a	n/a
32.2886	0.8	T_INK	12	Neutral	xxxxxxxxx	xxxxxxxxx	żółty	yellow	hit	n/a
33.0816	n/a	RESPONSE	n/a	n/a	n/a	n/a	n/a	n/a	n/a	yellow
33.0885	0.5	FEEDBACK	n/a	n/a	n/a	n/a	n/a	n/a	n/a	n/a
33.5885	1.0	ITI	n/a	n/a	n/a	n/a	n/a	n/a	n/a	n/a
43.2509	n/a	RESPONSE	n/a	n/a	n/a	n/a	n/a	n/a	n/a	n/a
43.2717	1.0	ITI	n/a	n/a	n/a	n/a	n/a	n/a	n/a	n/a
44.2717	0.5	FIXCROSS	n/a	n/a	n/a	n/a	n/a	n/a	n/a	n/a
44.7717	0.7167	INK	1	Incongruent	żółty	yellow	zielony	green	hit	n/a
45.4733	n/a	RESPONSE	n/a	n/a	n/a	n/a	n/a	n/a	n/a	green
45.4883	1.0	ITI	n/a	n/a	n/a	n/a	n/a	n/a	n/a	n/a
46.4883	0.5	FIXCROSS	n/a	n/a	n/a	n/a	n/a	n/a	n/a	n/a
46.9883	0.6	INK	2	Neutral	xxxxxxxxx	xxxxxxxxx	żółty	yellow	hit	n/a
47.5839	n/a	RESPONSE	n/a	n/a	n/a	n/a	n/a	n/a	n/a	yellow
47.5883	1.0	ITI	n/a	n/a	n/a	n/a	n/a	n/a	n/a	n/a
48.5883	0.5	FIXCROSS	n/a	n/a	n/a	n/a	n/a	n/a	n/a	n/a
49.0883	0.6	INK	3	Neutral	xxxxxxxxx	xxxxxxxxx	zielony	green	hit	n/a
49.6785	n/a	RESPONSE	n/a	n/a	n/a	n/a	n/a	n/a	n/a	green
49.6883	1.0	ITI	n/a	n/a	n/a	n/a	n/a	n/a	n/a	n/a
50.6882	0.5	FIXCROSS	n/a	n/a	n/a	n/a	n/a	n/a	n/a	n/a
51.1882	0.6333	INK	4	Incongruent	zielony	green	żółty	yellow	hit	n/a
51.8051	n/a	RESPONSE	n/a	n/a	n/a	n/a	n/a	n/a	n/a	yellow
51.8216	1.0	ITI	n/a	n/a	n/a	n/a	n/a	n/a	n/a	n/a
52.8215	0.5	FIXCROSS	n/a	n/a	n/a	n/a	n/a	n/a	n/a	n/a
53.3215	0.6167	INK	5	Incongruent	czerwony	red	niebieski	blue	hit	n/a
53.9318	n/a	RESPONSE	n/a	n/a	n/a	n/a	n/a	n/a	n/a	blue
53.9382	1.0	ITI	n/a	n/a	n/a	n/a	n/a	n/a	n/a	n/a
54.9382	0.5	FIXCROSS	n/a	n/a	n/a	n/a	n/a	n/a	n/a	n/a
55.4382	0.5167	INK	6	Incongruent	czerwony	red	żółty	yellow	hit	n/a
55.9463	n/a	RESPONSE	n/a	n/a	n/a	n/a	n/a	n/a	n/a	yellow
55.9548	1.0	ITI	n/a	n/a	n/a	n/a	n/a	n/a	n/a	n/a
56.9548	0.5	FIXCROSS	n/a	n/a	n/a	n/a	n/a	n/a	n/a	n/a
57.4548	0.6833	INK	7	Incongruent	żółty	yellow	niebieski	blue	hit	n/a
58.1209	n/a	RESPONSE	n/a	n/a	n/a	n/a	n/a	n/a	n/a	blue
58.1381	1.0	ITI	n/a	n/a	n/a	n/a	n/a	n/a	n/a	n/a
59.1381	0.5	FIXCROSS	n/a	n/a	n/a	n/a	n/a	n/a	n/a	n/a
59.6381	0.6	INK	8	Incongruent	zielony	green	niebieski	blue	hit	n/a
60.2313	n/a	RESPONSE	n/a	n/a	n/a	n/a	n/a	n/a	n/a	blue
60.2381	1.0	ITI	n/a	n/a	n/a	n/a	n/a	n/a	n/a	n/a
61.2381	0.5	FIXCROSS	n/a	n/a	n/a	n/a	n/a	n/a	n/a	n/a
61.738	0.5167	INK	9	Neutral	xxxxxxx	xxxxxxx	niebieski	blue	hit	n/a
62.2461	n/a	RESPONSE	n/a	n/a	n/a	n/a	n/a	n/a	n/a	blue
62.2547	1.0	ITI	n/a	n/a	n/a	n/a	n/a	n/a	n/a	n/a
63.2547	0.5	FIXCROSS	n/a	n/a	n/a	n/a	n/a	n/a	n/a	n/a
63.7547	0.4333	INK	10	Neutral	xxxxxxxx	xxxxxxxx	niebieski	blue	hit	n/a
64.1807	n/a	RESPONSE	n/a	n/a	n/a	n/a	n/a	n/a	n/a	blue
64.188	1.0	ITI	n/a	n/a	n/a	n/a	n/a	n/a	n/a	n/a
65.188	0.5	FIXCROSS	n/a	n/a	n/a	n/a	n/a	n/a	n/a	n/a
65.688	0.5	INK	11	Incongruent	czerwony	red	zielony	green	incorrect	n/a
66.1794	n/a	RESPONSE	n/a	n/a	n/a	n/a	n/a	n/a	n/a	yellow
66.188	1.0	ITI	n/a	n/a	n/a	n/a	n/a	n/a	n/a	n/a
67.1879	0.5	FIXCROSS	n/a	n/a	n/a	n/a	n/a	n/a	n/a	n/a
67.6879	0.4833	INK	12	Neutral	xxxxxxxx	xxxxxxxx	zielony	green	hit	n/a
68.162	n/a	RESPONSE	n/a	n/a	n/a	n/a	n/a	n/a	n/a	green
68.1713	1.0	ITI	n/a	n/a	n/a	n/a	n/a	n/a	n/a	n/a
69.1712	0.5	FIXCROSS	n/a	n/a	n/a	n/a	n/a	n/a	n/a	n/a
69.6712	0.7167	INK	13	Incongruent	czerwony	red	niebieski	blue	hit	n/a
70.3687	n/a	RESPONSE	n/a	n/a	n/a	n/a	n/a	n/a	n/a	blue
70.3879	1.0	ITI	n/a	n/a	n/a	n/a	n/a	n/a	n/a	n/a
71.3879	0.5	FIXCROSS	n/a	n/a	n/a	n/a	n/a	n/a	n/a	n/a
71.8879	0.55	INK	14	Incongruent	czerwony	red	żółty	yellow	hit	n/a
72.4311	n/a	RESPONSE	n/a	n/a	n/a	n/a	n/a	n/a	n/a	yellow
72.4379	1.0	ITI	n/a	n/a	n/a	n/a	n/a	n/a	n/a	n/a
73.4378	0.5	FIXCROSS	n/a	n/a	n/a	n/a	n/a	n/a	n/a	n/a
73.9378	0.6	INK	15	Incongruent	zielony	green	żółty	yellow	hit	n/a
74.5258	n/a	RESPONSE	n/a	n/a	n/a	n/a	n/a	n/a	n/a	yellow
74.5378	1.0	ITI	n/a	n/a	n/a	n/a	n/a	n/a	n/a	n/a
75.5378	0.5	FIXCROSS	n/a	n/a	n/a	n/a	n/a	n/a	n/a	n/a
76.0378	0.4667	INK	16	Neutral	xxxxxxxx	xxxxxxxx	żółty	yellow	hit	n/a
76.4925	n/a	RESPONSE	n/a	n/a	n/a	n/a	n/a	n/a	n/a	yellow
76.5044	1.0	ITI	n/a	n/a	n/a	n/a	n/a	n/a	n/a	n/a
77.5044	0.5	FIXCROSS	n/a	n/a	n/a	n/a	n/a	n/a	n/a	n/a
78.0044	0.5833	INK	17	Neutral	xxxxxxxx	xxxxxxxx	żółty	yellow	hit	n/a
78.571	n/a	RESPONSE	n/a	n/a	n/a	n/a	n/a	n/a	n/a	yellow
78.5877	1.0	ITI	n/a	n/a	n/a	n/a	n/a	n/a	n/a	n/a
79.5877	0.5	FIXCROSS	n/a	n/a	n/a	n/a	n/a	n/a	n/a	n/a
80.0877	0.3833	INK	18	Neutral	xxxxxxx	xxxxxxx	czerwony	red	hit	n/a
80.4578	n/a	RESPONSE	n/a	n/a	n/a	n/a	n/a	n/a	n/a	red
80.471	1.0	ITI	n/a	n/a	n/a	n/a	n/a	n/a	n/a	n/a
81.471	0.5	FIXCROSS	n/a	n/a	n/a	n/a	n/a	n/a	n/a	n/a
81.971	0.7333	INK	19	Incongruent	zielony	green	niebieski	blue	hit	n/a
82.6962	n/a	RESPONSE	n/a	n/a	n/a	n/a	n/a	n/a	n/a	blue
82.7043	1.0	ITI	n/a	n/a	n/a	n/a	n/a	n/a	n/a	n/a
83.7043	0.5	FIXCROSS	n/a	n/a	n/a	n/a	n/a	n/a	n/a	n/a
84.2043	0.5	INK	20	Neutral	xxxxxxxx	xxxxxxxx	niebieski	blue	hit	n/a
84.6949	n/a	RESPONSE	n/a	n/a	n/a	n/a	n/a	n/a	n/a	blue
84.7043	1.0	ITI	n/a	n/a	n/a	n/a	n/a	n/a	n/a	n/a
85.7043	0.5	FIXCROSS	n/a	n/a	n/a	n/a	n/a	n/a	n/a	n/a
86.2043	0.6667	INK	21	Incongruent	żółty	yellow	czerwony	red	hit	n/a
86.8535	n/a	RESPONSE	n/a	n/a	n/a	n/a	n/a	n/a	n/a	red
86.8709	1.0	ITI	n/a	n/a	n/a	n/a	n/a	n/a	n/a	n/a
87.8709	0.5	FIXCROSS	n/a	n/a	n/a	n/a	n/a	n/a	n/a	n/a
88.3709	0.55	INK	22	Incongruent	czerwony	red	zielony	green	hit	n/a
88.916	n/a	RESPONSE	n/a	n/a	n/a	n/a	n/a	n/a	n/a	green
88.9209	1.0	ITI	n/a	n/a	n/a	n/a	n/a	n/a	n/a	n/a
89.9209	0.5	FIXCROSS	n/a	n/a	n/a	n/a	n/a	n/a	n/a	n/a
90.4209	0.4667	INK	23	Incongruent	niebieski	blue	żółty	yellow	hit	n/a
90.8828	n/a	RESPONSE	n/a	n/a	n/a	n/a	n/a	n/a	n/a	yellow
90.8875	1.0	ITI	n/a	n/a	n/a	n/a	n/a	n/a	n/a	n/a
91.8875	0.5	FIXCROSS	n/a	n/a	n/a	n/a	n/a	n/a	n/a	n/a
92.3875	0.4167	INK	24	Neutral	xxxxxxxxx	xxxxxxxxx	czerwony	red	hit	n/a
92.7855	n/a	RESPONSE	n/a	n/a	n/a	n/a	n/a	n/a	n/a	red
92.8042	1.0	ITI	n/a	n/a	n/a	n/a	n/a	n/a	n/a	n/a
93.8041	0.5	FIXCROSS	n/a	n/a	n/a	n/a	n/a	n/a	n/a	n/a
94.3041	0.4167	INK	25	Incongruent	żółty	yellow	czerwony	red	hit	n/a
94.7042	n/a	RESPONSE	n/a	n/a	n/a	n/a	n/a	n/a	n/a	red
94.7208	1.0	ITI	n/a	n/a	n/a	n/a	n/a	n/a	n/a	n/a
95.7208	0.5	FIXCROSS	n/a	n/a	n/a	n/a	n/a	n/a	n/a	n/a
96.2208	0.5	INK	26	Incongruent	niebieski	blue	zielony	green	hit	n/a
96.7029	n/a	RESPONSE	n/a	n/a	n/a	n/a	n/a	n/a	n/a	green
96.7208	1.0	ITI	n/a	n/a	n/a	n/a	n/a	n/a	n/a	n/a
97.7207	0.5	FIXCROSS	n/a	n/a	n/a	n/a	n/a	n/a	n/a	n/a
98.2207	0.5	INK	27	Neutral	xxxxxxxxx	xxxxxxxxx	żółty	yellow	hit	n/a
98.7175	n/a	RESPONSE	n/a	n/a	n/a	n/a	n/a	n/a	n/a	yellow
98.7207	1.0	ITI	n/a	n/a	n/a	n/a	n/a	n/a	n/a	n/a
99.7207	0.5	FIXCROSS	n/a	n/a	n/a	n/a	n/a	n/a	n/a	n/a
100.2207	0.4667	INK	28	Incongruent	zielony	green	czerwony	red	hit	n/a
100.6841	n/a	RESPONSE	n/a	n/a	n/a	n/a	n/a	n/a	n/a	red
100.6874	1.0	ITI	n/a	n/a	n/a	n/a	n/a	n/a	n/a	n/a
101.6873	0.5	FIXCROSS	n/a	n/a	n/a	n/a	n/a	n/a	n/a	n/a
102.1873	0.4833	INK	29	Incongruent	niebieski	blue	zielony	green	hit	n/a
102.6668	n/a	RESPONSE	n/a	n/a	n/a	n/a	n/a	n/a	n/a	green
102.6707	1.0	ITI	n/a	n/a	n/a	n/a	n/a	n/a	n/a	n/a
103.6706	0.5	FIXCROSS	n/a	n/a	n/a	n/a	n/a	n/a	n/a	n/a
104.1706	0.5667	INK	30	Neutral	xxxxxxxxx	xxxxxxxxx	żółty	yellow	hit	n/a
104.7294	n/a	RESPONSE	n/a	n/a	n/a	n/a	n/a	n/a	n/a	yellow
104.7373	1.0	ITI	n/a	n/a	n/a	n/a	n/a	n/a	n/a	n/a
105.7373	0.5	FIXCROSS	n/a	n/a	n/a	n/a	n/a	n/a	n/a	n/a
106.2373	0.45	INK	31	Incongruent	niebieski	blue	żółty	yellow	hit	n/a
106.68	n/a	RESPONSE	n/a	n/a	n/a	n/a	n/a	n/a	n/a	yellow
106.6873	1.0	ITI	n/a	n/a	n/a	n/a	n/a	n/a	n/a	n/a
107.6872	0.5	FIXCROSS	n/a	n/a	n/a	n/a	n/a	n/a	n/a	n/a
108.1872	0.5167	INK	32	Incongruent	zielony	green	czerwony	red	hit	n/a
108.6947	n/a	RESPONSE	n/a	n/a	n/a	n/a	n/a	n/a	n/a	red
108.7039	1.0	ITI	n/a	n/a	n/a	n/a	n/a	n/a	n/a	n/a
109.7039	0.5	FIXCROSS	n/a	n/a	n/a	n/a	n/a	n/a	n/a	n/a
110.2039	0.4167	INK	33	Incongruent	niebieski	blue	czerwony	red	hit	n/a
110.6134	n/a	RESPONSE	n/a	n/a	n/a	n/a	n/a	n/a	n/a	red
110.6205	1.0	ITI	n/a	n/a	n/a	n/a	n/a	n/a	n/a	n/a
111.6205	0.5	FIXCROSS	n/a	n/a	n/a	n/a	n/a	n/a	n/a	n/a
112.1205	0.7333	INK	34	Neutral	xxxxxxxx	xxxxxxxx	niebieski	blue	hit	n/a
112.8359	n/a	RESPONSE	n/a	n/a	n/a	n/a	n/a	n/a	n/a	blue
112.8538	1.0	ITI	n/a	n/a	n/a	n/a	n/a	n/a	n/a	n/a
113.8538	0.5	FIXCROSS	n/a	n/a	n/a	n/a	n/a	n/a	n/a	n/a
114.3538	0.4	INK	35	Neutral	xxxxx	xxxxx	niebieski	blue	hit	n/a
114.7386	n/a	RESPONSE	n/a	n/a	n/a	n/a	n/a	n/a	n/a	blue
114.7538	1.0	ITI	n/a	n/a	n/a	n/a	n/a	n/a	n/a	n/a
115.7538	0.5	FIXCROSS	n/a	n/a	n/a	n/a	n/a	n/a	n/a	n/a
116.2538	0.7	INK	36	Neutral	xxxxxxxx	xxxxxxxx	zielony	green	hit	n/a
116.9451	n/a	RESPONSE	n/a	n/a	n/a	n/a	n/a	n/a	n/a	green
116.9537	1.0	ITI	n/a	n/a	n/a	n/a	n/a	n/a	n/a	n/a
117.9537	0.5	FIXCROSS	n/a	n/a	n/a	n/a	n/a	n/a	n/a	n/a
118.4537	0.45	INK	37	Incongruent	niebieski	blue	zielony	green	hit	n/a
118.8959	n/a	RESPONSE	n/a	n/a	n/a	n/a	n/a	n/a	n/a	green
118.9037	1.0	ITI	n/a	n/a	n/a	n/a	n/a	n/a	n/a	n/a
119.9037	0.5	FIXCROSS	n/a	n/a	n/a	n/a	n/a	n/a	n/a	n/a
120.4037	0.4666	INK	38	Neutral	xxxxxxx	xxxxxxx	czerwony	red	hit	n/a
120.8625	n/a	RESPONSE	n/a	n/a	n/a	n/a	n/a	n/a	n/a	red
120.8703	1.0	ITI	n/a	n/a	n/a	n/a	n/a	n/a	n/a	n/a
121.8703	0.5	FIXCROSS	n/a	n/a	n/a	n/a	n/a	n/a	n/a	n/a
122.3703	0.35	INK	39	Neutral	xxxxxxxxx	xxxxxxxxx	czerwony	red	hit	n/a
122.7173	n/a	RESPONSE	n/a	n/a	n/a	n/a	n/a	n/a	n/a	red
122.7203	1.0	ITI	n/a	n/a	n/a	n/a	n/a	n/a	n/a	n/a
123.7203	0.5	FIXCROSS	n/a	n/a	n/a	n/a	n/a	n/a	n/a	n/a
124.2203	0.4667	INK	40	Neutral	xxxxx	xxxxx	zielony	green	hit	n/a
124.6839	n/a	RESPONSE	n/a	n/a	n/a	n/a	n/a	n/a	n/a	green
124.6869	1.0	ITI	n/a	n/a	n/a	n/a	n/a	n/a	n/a	n/a
125.6869	0.5	FIXCROSS	n/a	n/a	n/a	n/a	n/a	n/a	n/a	n/a
126.1869	0.4334	INK	41	Neutral	xxxxx	xxxxx	zielony	green	hit	n/a
126.6027	n/a	RESPONSE	n/a	n/a	n/a	n/a	n/a	n/a	n/a	green
126.6202	1.0	ITI	n/a	n/a	n/a	n/a	n/a	n/a	n/a	n/a
127.6202	0.5	FIXCROSS	n/a	n/a	n/a	n/a	n/a	n/a	n/a	n/a
128.1202	0.3667	INK	42	Incongruent	żółty	yellow	zielony	green	hit	n/a
128.4733	n/a	RESPONSE	n/a	n/a	n/a	n/a	n/a	n/a	n/a	green
128.4869	1.0	ITI	n/a	n/a	n/a	n/a	n/a	n/a	n/a	n/a
129.4869	0.5	FIXCROSS	n/a	n/a	n/a	n/a	n/a	n/a	n/a	n/a
129.9869	0.4667	INK	43	Incongruent	żółty	yellow	niebieski	blue	hit	n/a
130.44	n/a	RESPONSE	n/a	n/a	n/a	n/a	n/a	n/a	n/a	blue
130.4535	1.0	ITI	n/a	n/a	n/a	n/a	n/a	n/a	n/a	n/a
131.4535	0.5	FIXCROSS	n/a	n/a	n/a	n/a	n/a	n/a	n/a	n/a
131.9535	0.6	INK	44	Incongruent	niebieski	blue	żółty	yellow	hit	n/a
132.5347	n/a	RESPONSE	n/a	n/a	n/a	n/a	n/a	n/a	n/a	yellow
132.5535	1.0	ITI	n/a	n/a	n/a	n/a	n/a	n/a	n/a	n/a
133.5534	0.5	FIXCROSS	n/a	n/a	n/a	n/a	n/a	n/a	n/a	n/a
134.0534	0.6833	INK	45	Neutral	xxxxxxx	xxxxxxx	niebieski	blue	hit	n/a
134.7251	n/a	RESPONSE	n/a	n/a	n/a	n/a	n/a	n/a	n/a	blue
134.7368	1.0	ITI	n/a	n/a	n/a	n/a	n/a	n/a	n/a	n/a
135.7367	0.5	FIXCROSS	n/a	n/a	n/a	n/a	n/a	n/a	n/a	n/a
136.2367	0.5667	INK	46	Incongruent	żółty	yellow	zielony	green	hit	n/a
136.7877	n/a	RESPONSE	n/a	n/a	n/a	n/a	n/a	n/a	n/a	green
136.8034	1.0	ITI	n/a	n/a	n/a	n/a	n/a	n/a	n/a	n/a
137.8034	0.5	FIXCROSS	n/a	n/a	n/a	n/a	n/a	n/a	n/a	n/a
138.3034	0.4	INK	47	Neutral	xxxxx	xxxxx	zielony	green	hit	n/a
138.6905	n/a	RESPONSE	n/a	n/a	n/a	n/a	n/a	n/a	n/a	green
138.7033	1.0	ITI	n/a	n/a	n/a	n/a	n/a	n/a	n/a	n/a
139.7033	0.5	FIXCROSS	n/a	n/a	n/a	n/a	n/a	n/a	n/a	n/a
140.2033	0.6	INK	48	Incongruent	żółty	yellow	niebieski	blue	hit	n/a
140.785	n/a	RESPONSE	n/a	n/a	n/a	n/a	n/a	n/a	n/a	blue
140.8033	1.0	ITI	n/a	n/a	n/a	n/a	n/a	n/a	n/a	n/a
141.8033	0.5	FIXCROSS	n/a	n/a	n/a	n/a	n/a	n/a	n/a	n/a
142.3033	0.4167	INK	49	Neutral	xxxxx	xxxxx	czerwony	red	hit	n/a
142.7037	n/a	RESPONSE	n/a	n/a	n/a	n/a	n/a	n/a	n/a	red
142.72	1.0	ITI	n/a	n/a	n/a	n/a	n/a	n/a	n/a	n/a
143.7199	0.5	FIXCROSS	n/a	n/a	n/a	n/a	n/a	n/a	n/a	n/a
144.2199	0.55	INK	50	Neutral	xxxxxxx	xxxxxxx	niebieski	blue	hit	n/a
144.7663	n/a	RESPONSE	n/a	n/a	n/a	n/a	n/a	n/a	n/a	blue
144.7699	1.0	ITI	n/a	n/a	n/a	n/a	n/a	n/a	n/a	n/a
145.7699	0.5	FIXCROSS	n/a	n/a	n/a	n/a	n/a	n/a	n/a	n/a
146.2699	0.4167	INK	51	Neutral	xxxxx	xxxxx	czerwony	red	hit	n/a
146.6692	n/a	RESPONSE	n/a	n/a	n/a	n/a	n/a	n/a	n/a	red
146.6866	0.9999	ITI	n/a	n/a	n/a	n/a	n/a	n/a	n/a	n/a
147.6865	0.5	FIXCROSS	n/a	n/a	n/a	n/a	n/a	n/a	n/a	n/a
148.1865	0.6	INK	52	Neutral	xxxxxxx	xxxxxxx	żółty	yellow	hit	n/a
148.7797	n/a	RESPONSE	n/a	n/a	n/a	n/a	n/a	n/a	n/a	yellow
148.7865	1.0	ITI	n/a	n/a	n/a	n/a	n/a	n/a	n/a	n/a
149.7865	0.5	FIXCROSS	n/a	n/a	n/a	n/a	n/a	n/a	n/a	n/a
150.2865	0.6	INK	53	Incongruent	żółty	yellow	czerwony	red	hit	n/a
150.8743	n/a	RESPONSE	n/a	n/a	n/a	n/a	n/a	n/a	n/a	red
150.8865	1.0	ITI	n/a	n/a	n/a	n/a	n/a	n/a	n/a	n/a
151.8865	0.5	FIXCROSS	n/a	n/a	n/a	n/a	n/a	n/a	n/a	n/a
152.3865	0.4167	INK	54	Incongruent	zielony	green	niebieski	blue	hit	n/a
152.7929	n/a	RESPONSE	n/a	n/a	n/a	n/a	n/a	n/a	n/a	blue
152.8031	1.0	ITI	n/a	n/a	n/a	n/a	n/a	n/a	n/a	n/a
153.8031	0.5	FIXCROSS	n/a	n/a	n/a	n/a	n/a	n/a	n/a	n/a
154.3031	0.5833	INK	55	Neutral	xxxxxxx	xxxxxxx	żółty	yellow	hit	n/a
154.8715	n/a	RESPONSE	n/a	n/a	n/a	n/a	n/a	n/a	n/a	yellow
154.8864	1.0	ITI	n/a	n/a	n/a	n/a	n/a	n/a	n/a	n/a
155.8864	0.5	FIXCROSS	n/a	n/a	n/a	n/a	n/a	n/a	n/a	n/a
156.3864	0.4333	INK	56	Incongruent	zielony	green	żółty	yellow	hit	n/a
156.8063	n/a	RESPONSE	n/a	n/a	n/a	n/a	n/a	n/a	n/a	yellow
156.8197	1.0	ITI	n/a	n/a	n/a	n/a	n/a	n/a	n/a	n/a
157.8197	0.4977	FIXCROSS	n/a	n/a	n/a	n/a	n/a	n/a	n/a	n/a
158.3174	0.5189	INK	57	Incongruent	niebieski	blue	czerwony	red	hit	n/a
158.8209	n/a	RESPONSE	n/a	n/a	n/a	n/a	n/a	n/a	n/a	red
158.8363	1.0	ITI	n/a	n/a	n/a	n/a	n/a	n/a	n/a	n/a
159.8363	0.5	FIXCROSS	n/a	n/a	n/a	n/a	n/a	n/a	n/a	n/a
160.3363	0.5	INK	58	Incongruent	czerwony	red	zielony	green	hit	n/a
160.8195	n/a	RESPONSE	n/a	n/a	n/a	n/a	n/a	n/a	n/a	green
160.8363	1.0	ITI	n/a	n/a	n/a	n/a	n/a	n/a	n/a	n/a
161.8363	0.5	FIXCROSS	n/a	n/a	n/a	n/a	n/a	n/a	n/a	n/a
162.3363	0.6	INK	59	Incongruent	czerwony	red	niebieski	blue	hit	n/a
162.9301	n/a	RESPONSE	n/a	n/a	n/a	n/a	n/a	n/a	n/a	blue
162.9363	1.0	ITI	n/a	n/a	n/a	n/a	n/a	n/a	n/a	n/a
163.9363	0.5	FIXCROSS	n/a	n/a	n/a	n/a	n/a	n/a	n/a	n/a
164.4362	0.4167	INK	60	Neutral	xxxxx	xxxxx	niebieski	blue	hit	n/a
164.8488	n/a	RESPONSE	n/a	n/a	n/a	n/a	n/a	n/a	n/a	blue
164.8529	1.0	ITI	n/a	n/a	n/a	n/a	n/a	n/a	n/a	n/a
165.8529	0.5	FIXCROSS	n/a	n/a	n/a	n/a	n/a	n/a	n/a	n/a
166.3529	0.3667	INK	61	Neutral	xxxxxxx	xxxxxxx	czerwony	red	hit	n/a
166.7036	n/a	RESPONSE	n/a	n/a	n/a	n/a	n/a	n/a	n/a	red
166.7195	1.0	ITI	n/a	n/a	n/a	n/a	n/a	n/a	n/a	n/a
167.7195	0.5	FIXCROSS	n/a	n/a	n/a	n/a	n/a	n/a	n/a	n/a
168.2195	0.3333	INK	62	Neutral	xxxxx	xxxxx	niebieski	blue	hit	n/a
168.5423	n/a	RESPONSE	n/a	n/a	n/a	n/a	n/a	n/a	n/a	blue
168.5528	1.0	ITI	n/a	n/a	n/a	n/a	n/a	n/a	n/a	n/a
169.5528	0.5	FIXCROSS	n/a	n/a	n/a	n/a	n/a	n/a	n/a	n/a
170.0528	0.4333	INK	63	Neutral	xxxxxxxx	xxxxxxxx	żółty	yellow	hit	n/a
170.477	n/a	RESPONSE	n/a	n/a	n/a	n/a	n/a	n/a	n/a	yellow
170.4861	1.0	ITI	n/a	n/a	n/a	n/a	n/a	n/a	n/a	n/a
171.4861	0.5	FIXCROSS	n/a	n/a	n/a	n/a	n/a	n/a	n/a	n/a
171.9861	0.5167	INK	64	Incongruent	zielony	green	czerwony	red	hit	n/a
172.4917	n/a	RESPONSE	n/a	n/a	n/a	n/a	n/a	n/a	n/a	red
172.5028	1.0	ITI	n/a	n/a	n/a	n/a	n/a	n/a	n/a	n/a
173.5028	0.5	FIXCROSS	n/a	n/a	n/a	n/a	n/a	n/a	n/a	n/a
174.0027	0.5	INK	65	Neutral	xxxxx	xxxxx	czerwony	red	hit	n/a
174.4903	n/a	RESPONSE	n/a	n/a	n/a	n/a	n/a	n/a	n/a	red
174.5027	1.0	ITI	n/a	n/a	n/a	n/a	n/a	n/a	n/a	n/a
175.5027	0.5	FIXCROSS	n/a	n/a	n/a	n/a	n/a	n/a	n/a	n/a
176.0027	0.5	INK	66	Neutral	xxxxxxx	xxxxxxx	żółty	yellow	hit	n/a
176.489	n/a	RESPONSE	n/a	n/a	n/a	n/a	n/a	n/a	n/a	yellow
176.5027	1.0	ITI	n/a	n/a	n/a	n/a	n/a	n/a	n/a	n/a
177.5027	0.5	FIXCROSS	n/a	n/a	n/a	n/a	n/a	n/a	n/a	n/a
178.0027	0.6667	INK	67	Neutral	xxxxxxxxx	xxxxxxxxx	czerwony	red	hit	n/a
178.6635	n/a	RESPONSE	n/a	n/a	n/a	n/a	n/a	n/a	n/a	red
178.6693	1.0	ITI	n/a	n/a	n/a	n/a	n/a	n/a	n/a	n/a
179.6693	0.5	FIXCROSS	n/a	n/a	n/a	n/a	n/a	n/a	n/a	n/a
180.1693	0.5	INK	68	Incongruent	czerwony	red	żółty	yellow	hit	n/a
180.6621	n/a	RESPONSE	n/a	n/a	n/a	n/a	n/a	n/a	n/a	yellow
180.6693	1.0	ITI	n/a	n/a	n/a	n/a	n/a	n/a	n/a	n/a
181.6693	0.5	FIXCROSS	n/a	n/a	n/a	n/a	n/a	n/a	n/a	n/a
182.1693	0.35	INK	69	Incongruent	niebieski	blue	czerwony	red	hit	n/a
182.501	n/a	RESPONSE	n/a	n/a	n/a	n/a	n/a	n/a	n/a	red
182.5193	1.0	ITI	n/a	n/a	n/a	n/a	n/a	n/a	n/a	n/a
183.5192	0.5	FIXCROSS	n/a	n/a	n/a	n/a	n/a	n/a	n/a	n/a
184.0192	0.35	INK	70	Neutral	xxxxxxxxx	xxxxxxxxx	zielony	green	hit	n/a
184.3556	n/a	RESPONSE	n/a	n/a	n/a	n/a	n/a	n/a	n/a	green
184.3692	1.0	ITI	n/a	n/a	n/a	n/a	n/a	n/a	n/a	n/a
185.3692	0.5	FIXCROSS	n/a	n/a	n/a	n/a	n/a	n/a	n/a	n/a
185.8692	0.4167	INK	71	Neutral	xxxxxxxxx	xxxxxxxxx	zielony	green	hit	n/a
186.2744	n/a	RESPONSE	n/a	n/a	n/a	n/a	n/a	n/a	n/a	green
186.2859	1.0	ITI	n/a	n/a	n/a	n/a	n/a	n/a	n/a	n/a
187.2858	0.5	FIXCROSS	n/a	n/a	n/a	n/a	n/a	n/a	n/a	n/a
187.7858	0.4	INK	72	Neutral	xxxxxxxx	xxxxxxxx	zielony	green	hit	n/a
188.1771	n/a	RESPONSE	n/a	n/a	n/a	n/a	n/a	n/a	n/a	green
188.1858	1.0333	ITI	n/a	n/a	n/a	n/a	n/a	n/a	n/a	n/a
200.2329	n/a	RESPONSE	n/a	n/a	n/a	n/a	n/a	n/a	n/a	n/a
200.2689	1.0	ITI	n/a	n/a	n/a	n/a	n/a	n/a	n/a	n/a
201.2689	0.5	FIXCROSS	n/a	n/a	n/a	n/a	n/a	n/a	n/a	n/a
201.7689	1.1666	T_COLOR_NAME	1	Neutral	niebieski	blue	Neutral	Neutral	hit	n/a
202.9191	n/a	RESPONSE	n/a	n/a	n/a	n/a	n/a	n/a	n/a	blue
202.9356	0.5	FEEDBACK	n/a	n/a	n/a	n/a	n/a	n/a	n/a	n/a
203.4356	1.0	ITI	n/a	n/a	n/a	n/a	n/a	n/a	n/a	n/a
204.4355	0.5	FIXCROSS	n/a	n/a	n/a	n/a	n/a	n/a	n/a	n/a
204.9355	1.5666	T_COLOR_NAME	2	Incongruent	zielony	green	żółty	yellow	hit	n/a
206.4847	n/a	RESPONSE	n/a	n/a	n/a	n/a	n/a	n/a	n/a	green
206.5022	0.5	FEEDBACK	n/a	n/a	n/a	n/a	n/a	n/a	n/a	n/a
207.0022	1.0	ITI	n/a	n/a	n/a	n/a	n/a	n/a	n/a	n/a
208.0022	0.5	FIXCROSS	n/a	n/a	n/a	n/a	n/a	n/a	n/a	n/a
208.5021	0.9166	T_COLOR_NAME	3	Incongruent	czerwony	red	niebieski	blue	hit	n/a
209.4107	n/a	RESPONSE	n/a	n/a	n/a	n/a	n/a	n/a	n/a	red
209.4188	0.5	FEEDBACK	n/a	n/a	n/a	n/a	n/a	n/a	n/a	n/a
209.9188	1.0	ITI	n/a	n/a	n/a	n/a	n/a	n/a	n/a	n/a
210.9188	0.5	FIXCROSS	n/a	n/a	n/a	n/a	n/a	n/a	n/a	n/a
211.4187	0.8167	T_COLOR_NAME	4	Neutral	zielony	green	Neutral	Neutral	hit	n/a
212.2248	n/a	RESPONSE	n/a	n/a	n/a	n/a	n/a	n/a	n/a	green
212.2354	0.5	FEEDBACK	n/a	n/a	n/a	n/a	n/a	n/a	n/a	n/a
212.7354	1.0	ITI	n/a	n/a	n/a	n/a	n/a	n/a	n/a	n/a
213.7354	0.5	FIXCROSS	n/a	n/a	n/a	n/a	n/a	n/a	n/a	n/a
214.2354	0.8333	T_COLOR_NAME	5	Neutral	czerwony	red	Neutral	Neutral	hit	n/a
215.0549	n/a	RESPONSE	n/a	n/a	n/a	n/a	n/a	n/a	n/a	red
215.0687	0.5	FEEDBACK	n/a	n/a	n/a	n/a	n/a	n/a	n/a	n/a
215.5687	1.0	ITI	n/a	n/a	n/a	n/a	n/a	n/a	n/a	n/a
216.5687	0.5	FIXCROSS	n/a	n/a	n/a	n/a	n/a	n/a	n/a	n/a
217.0687	0.8166	T_COLOR_NAME	6	Incongruent	czerwony	red	zielony	green	hit	n/a
217.869	n/a	RESPONSE	n/a	n/a	n/a	n/a	n/a	n/a	n/a	red
217.8853	0.5	FEEDBACK	n/a	n/a	n/a	n/a	n/a	n/a	n/a	n/a
218.3853	1.0	ITI	n/a	n/a	n/a	n/a	n/a	n/a	n/a	n/a
219.3853	0.5	FIXCROSS	n/a	n/a	n/a	n/a	n/a	n/a	n/a	n/a
219.8853	0.5	T_COLOR_NAME	7	Neutral	czerwony	red	Neutral	Neutral	hit	n/a
220.3793	n/a	RESPONSE	n/a	n/a	n/a	n/a	n/a	n/a	n/a	red
220.3852	0.5	FEEDBACK	n/a	n/a	n/a	n/a	n/a	n/a	n/a	n/a
220.8853	1.0	ITI	n/a	n/a	n/a	n/a	n/a	n/a	n/a	n/a
221.8852	0.5	FIXCROSS	n/a	n/a	n/a	n/a	n/a	n/a	n/a	n/a
222.3852	0.7833	T_COLOR_NAME	8	Neutral	niebieski	blue	Neutral	Neutral	hit	n/a
223.1612	n/a	RESPONSE	n/a	n/a	n/a	n/a	n/a	n/a	n/a	blue
223.1686	0.5	FEEDBACK	n/a	n/a	n/a	n/a	n/a	n/a	n/a	n/a
223.6685	1.0	ITI	n/a	n/a	n/a	n/a	n/a	n/a	n/a	n/a
224.6685	0.5	FIXCROSS	n/a	n/a	n/a	n/a	n/a	n/a	n/a	n/a
225.1685	0.7333	T_COLOR_NAME	9	Incongruent	żółty	yellow	niebieski	blue	incorrect	n/a
225.8953	n/a	RESPONSE	n/a	n/a	n/a	n/a	n/a	n/a	n/a	blue
225.9018	0.5	FEEDBACK	n/a	n/a	n/a	n/a	n/a	n/a	n/a	n/a
226.4018	1.0	ITI	n/a	n/a	n/a	n/a	n/a	n/a	n/a	n/a
227.4018	0.5	FIXCROSS	n/a	n/a	n/a	n/a	n/a	n/a	n/a	n/a
227.9018	1.0667	T_COLOR_NAME	10	Incongruent	czerwony	red	żółty	yellow	hit	n/a
228.9493	n/a	RESPONSE	n/a	n/a	n/a	n/a	n/a	n/a	n/a	red
228.9685	0.5	FEEDBACK	n/a	n/a	n/a	n/a	n/a	n/a	n/a	n/a
229.4684	1.0	ITI	n/a	n/a	n/a	n/a	n/a	n/a	n/a	n/a
230.4684	0.5	FIXCROSS	n/a	n/a	n/a	n/a	n/a	n/a	n/a	n/a
230.9684	0.8833	T_COLOR_NAME	11	Neutral	żółty	yellow	Neutral	Neutral	hit	n/a
231.8433	n/a	RESPONSE	n/a	n/a	n/a	n/a	n/a	n/a	n/a	yellow
231.8517	0.5	FEEDBACK	n/a	n/a	n/a	n/a	n/a	n/a	n/a	n/a
232.3517	1.0	ITI	n/a	n/a	n/a	n/a	n/a	n/a	n/a	n/a
233.3517	0.5	FIXCROSS	n/a	n/a	n/a	n/a	n/a	n/a	n/a	n/a
233.8517	0.9666	T_COLOR_NAME	12	Neutral	niebieski	blue	Neutral	Neutral	hit	n/a
234.8014	n/a	RESPONSE	n/a	n/a	n/a	n/a	n/a	n/a	n/a	blue
234.8183	0.5	FEEDBACK	n/a	n/a	n/a	n/a	n/a	n/a	n/a	n/a
235.3183	1.0	ITI	n/a	n/a	n/a	n/a	n/a	n/a	n/a	n/a
239.2624	n/a	RESPONSE	n/a	n/a	n/a	n/a	n/a	n/a	n/a	n/a
239.2849	1.0	ITI	n/a	n/a	n/a	n/a	n/a	n/a	n/a	n/a
240.2849	0.5	FIXCROSS	n/a	n/a	n/a	n/a	n/a	n/a	n/a	n/a
240.7849	0.95	COLOR_NAME	1	Incongruent	zielony	green	niebieski	blue	hit	n/a
241.7244	n/a	RESPONSE	n/a	n/a	n/a	n/a	n/a	n/a	n/a	green
241.7349	1.0	ITI	n/a	n/a	n/a	n/a	n/a	n/a	n/a	n/a
242.7349	0.5	FIXCROSS	n/a	n/a	n/a	n/a	n/a	n/a	n/a	n/a
243.2349	0.5833	COLOR_NAME	2	Incongruent	zielony	green	żółty	yellow	hit	n/a
243.803	n/a	RESPONSE	n/a	n/a	n/a	n/a	n/a	n/a	n/a	green
243.8182	1.0	ITI	n/a	n/a	n/a	n/a	n/a	n/a	n/a	n/a
244.8182	0.5	FIXCROSS	n/a	n/a	n/a	n/a	n/a	n/a	n/a	n/a
245.3182	0.4333	COLOR_NAME	3	Neutral	zielony	green	Neutral	Neutral	hit	n/a
245.7378	n/a	RESPONSE	n/a	n/a	n/a	n/a	n/a	n/a	n/a	green
245.7515	1.0	ITI	n/a	n/a	n/a	n/a	n/a	n/a	n/a	n/a
246.7515	0.5	FIXCROSS	n/a	n/a	n/a	n/a	n/a	n/a	n/a	n/a
247.2515	0.9333	COLOR_NAME	4	Incongruent	czerwony	red	niebieski	blue	hit	n/a
248.1681	n/a	RESPONSE	n/a	n/a	n/a	n/a	n/a	n/a	n/a	red
248.1848	1.0	ITI	n/a	n/a	n/a	n/a	n/a	n/a	n/a	n/a
249.1848	0.5	FIXCROSS	n/a	n/a	n/a	n/a	n/a	n/a	n/a	n/a
249.6847	0.7167	COLOR_NAME	5	Incongruent	żółty	yellow	czerwony	red	hit	n/a
250.3905	n/a	RESPONSE	n/a	n/a	n/a	n/a	n/a	n/a	n/a	yellow
250.4014	1.0	ITI	n/a	n/a	n/a	n/a	n/a	n/a	n/a	n/a
251.4014	0.5	FIXCROSS	n/a	n/a	n/a	n/a	n/a	n/a	n/a	n/a
251.9014	0.55	COLOR_NAME	6	Neutral	żółty	yellow	Neutral	Neutral	hit	n/a
252.4372	n/a	RESPONSE	n/a	n/a	n/a	n/a	n/a	n/a	n/a	yellow
252.4514	1.0	ITI	n/a	n/a	n/a	n/a	n/a	n/a	n/a	n/a
253.4514	0.5	FIXCROSS	n/a	n/a	n/a	n/a	n/a	n/a	n/a	n/a
253.9513	0.6	COLOR_NAME	7	Incongruent	czerwony	red	żółty	yellow	hit	n/a
254.5478	n/a	RESPONSE	n/a	n/a	n/a	n/a	n/a	n/a	n/a	red
254.5513	1.0	ITI	n/a	n/a	n/a	n/a	n/a	n/a	n/a	n/a
255.5513	0.5	FIXCROSS	n/a	n/a	n/a	n/a	n/a	n/a	n/a	n/a
256.0513	0.6667	COLOR_NAME	8	Neutral	żółty	yellow	Neutral	Neutral	hit	n/a
256.7063	n/a	RESPONSE	n/a	n/a	n/a	n/a	n/a	n/a	n/a	yellow
256.718	1.0	ITI	n/a	n/a	n/a	n/a	n/a	n/a	n/a	n/a
257.7179	0.5	FIXCROSS	n/a	n/a	n/a	n/a	n/a	n/a	n/a	n/a
258.2179	0.7	COLOR_NAME	9	Neutral	niebieski	blue	Neutral	Neutral	hit	n/a
258.9128	n/a	RESPONSE	n/a	n/a	n/a	n/a	n/a	n/a	n/a	blue
258.9179	1.0	ITI	n/a	n/a	n/a	n/a	n/a	n/a	n/a	n/a
259.9179	0.5	FIXCROSS	n/a	n/a	n/a	n/a	n/a	n/a	n/a	n/a
260.4179	0.6166	COLOR_NAME	10	Neutral	żółty	yellow	Neutral	Neutral	hit	n/a
261.0235	n/a	RESPONSE	n/a	n/a	n/a	n/a	n/a	n/a	n/a	yellow
261.0345	1.0	ITI	n/a	n/a	n/a	n/a	n/a	n/a	n/a	n/a
262.0345	0.5	FIXCROSS	n/a	n/a	n/a	n/a	n/a	n/a	n/a	n/a
262.5345	0.7667	COLOR_NAME	11	Neutral	czerwony	red	Neutral	Neutral	hit	n/a
263.2939	n/a	RESPONSE	n/a	n/a	n/a	n/a	n/a	n/a	n/a	red
263.3012	1.0	ITI	n/a	n/a	n/a	n/a	n/a	n/a	n/a	n/a
264.3012	0.5	FIXCROSS	n/a	n/a	n/a	n/a	n/a	n/a	n/a	n/a
264.8012	0.7333	COLOR_NAME	12	Incongruent	niebieski	blue	zielony	green	incorrect	n/a
265.5165	n/a	RESPONSE	n/a	n/a	n/a	n/a	n/a	n/a	n/a	green
265.5345	1.0	ITI	n/a	n/a	n/a	n/a	n/a	n/a	n/a	n/a
266.5345	0.5	FIXCROSS	n/a	n/a	n/a	n/a	n/a	n/a	n/a	n/a
267.0344	0.9666	COLOR_NAME	13	Incongruent	zielony	green	czerwony	red	hit	n/a
267.9947	n/a	RESPONSE	n/a	n/a	n/a	n/a	n/a	n/a	n/a	green
268.0011	1.0	ITI	n/a	n/a	n/a	n/a	n/a	n/a	n/a	n/a
269.0011	0.5	FIXCROSS	n/a	n/a	n/a	n/a	n/a	n/a	n/a	n/a
269.5011	0.7167	COLOR_NAME	14	Incongruent	żółty	yellow	czerwony	red	hit	n/a
270.2012	n/a	RESPONSE	n/a	n/a	n/a	n/a	n/a	n/a	n/a	yellow
270.2177	1.0	ITI	n/a	n/a	n/a	n/a	n/a	n/a	n/a	n/a
271.2177	0.5	FIXCROSS	n/a	n/a	n/a	n/a	n/a	n/a	n/a	n/a
271.7177	0.5833	COLOR_NAME	15	Incongruent	żółty	yellow	zielony	green	hit	n/a
272.2958	n/a	RESPONSE	n/a	n/a	n/a	n/a	n/a	n/a	n/a	yellow
272.301	1.0	ITI	n/a	n/a	n/a	n/a	n/a	n/a	n/a	n/a
273.301	0.5	FIXCROSS	n/a	n/a	n/a	n/a	n/a	n/a	n/a	n/a
273.801	0.6833	COLOR_NAME	16	Incongruent	czerwony	red	żółty	yellow	hit	n/a
274.4704	n/a	RESPONSE	n/a	n/a	n/a	n/a	n/a	n/a	n/a	red
274.4843	1.0	ITI	n/a	n/a	n/a	n/a	n/a	n/a	n/a	n/a
275.4843	0.5	FIXCROSS	n/a	n/a	n/a	n/a	n/a	n/a	n/a	n/a
275.9843	0.65	COLOR_NAME	17	Neutral	zielony	green	Neutral	Neutral	hit	n/a
276.6289	n/a	RESPONSE	n/a	n/a	n/a	n/a	n/a	n/a	n/a	green
276.6343	1.0	ITI	n/a	n/a	n/a	n/a	n/a	n/a	n/a	n/a
277.6343	0.5	FIXCROSS	n/a	n/a	n/a	n/a	n/a	n/a	n/a	n/a
278.1343	0.7	COLOR_NAME	18	Incongruent	czerwony	red	zielony	green	hit	n/a
278.8194	n/a	RESPONSE	n/a	n/a	n/a	n/a	n/a	n/a	n/a	red
278.8342	1.0	ITI	n/a	n/a	n/a	n/a	n/a	n/a	n/a	n/a
279.8342	0.5	FIXCROSS	n/a	n/a	n/a	n/a	n/a	n/a	n/a	n/a
280.3342	0.7667	COLOR_NAME	19	Incongruent	zielony	green	czerwony	red	hit	n/a
281.0899	n/a	RESPONSE	n/a	n/a	n/a	n/a	n/a	n/a	n/a	green
281.1009	1.0	ITI	n/a	n/a	n/a	n/a	n/a	n/a	n/a	n/a
282.1008	0.5	FIXCROSS	n/a	n/a	n/a	n/a	n/a	n/a	n/a	n/a
282.6008	0.7166	COLOR_NAME	20	Neutral	niebieski	blue	Neutral	Neutral	hit	n/a
283.3124	n/a	RESPONSE	n/a	n/a	n/a	n/a	n/a	n/a	n/a	blue
283.3175	1.0	ITI	n/a	n/a	n/a	n/a	n/a	n/a	n/a	n/a
284.3175	0.5	FIXCROSS	n/a	n/a	n/a	n/a	n/a	n/a	n/a	n/a
284.8175	0.7333	COLOR_NAME	21	Neutral	zielony	green	Neutral	Neutral	hit	n/a
285.535	n/a	RESPONSE	n/a	n/a	n/a	n/a	n/a	n/a	n/a	green
285.5508	1.0	ITI	n/a	n/a	n/a	n/a	n/a	n/a	n/a	n/a
286.5508	0.5	FIXCROSS	n/a	n/a	n/a	n/a	n/a	n/a	n/a	n/a
287.0508	0.6833	COLOR_NAME	22	Neutral	niebieski	blue	Neutral	Neutral	hit	n/a
287.7255	n/a	RESPONSE	n/a	n/a	n/a	n/a	n/a	n/a	n/a	blue
287.7341	1.0	ITI	n/a	n/a	n/a	n/a	n/a	n/a	n/a	n/a
288.7341	0.5	FIXCROSS	n/a	n/a	n/a	n/a	n/a	n/a	n/a	n/a
289.234	0.8333	COLOR_NAME	23	Incongruent	czerwony	red	zielony	green	hit	n/a
290.0598	n/a	RESPONSE	n/a	n/a	n/a	n/a	n/a	n/a	n/a	red
290.0674	1.0	ITI	n/a	n/a	n/a	n/a	n/a	n/a	n/a	n/a
291.0674	0.5	FIXCROSS	n/a	n/a	n/a	n/a	n/a	n/a	n/a	n/a
291.5674	0.6333	COLOR_NAME	24	Neutral	niebieski	blue	Neutral	Neutral	hit	n/a
292.1864	n/a	RESPONSE	n/a	n/a	n/a	n/a	n/a	n/a	n/a	blue
292.2007	1.0	ITI	n/a	n/a	n/a	n/a	n/a	n/a	n/a	n/a
293.2006	0.5	FIXCROSS	n/a	n/a	n/a	n/a	n/a	n/a	n/a	n/a
293.7006	0.5833	COLOR_NAME	25	Incongruent	czerwony	red	niebieski	blue	hit	n/a
294.2651	n/a	RESPONSE	n/a	n/a	n/a	n/a	n/a	n/a	n/a	red
294.284	1.0	ITI	n/a	n/a	n/a	n/a	n/a	n/a	n/a	n/a
295.2839	0.5	FIXCROSS	n/a	n/a	n/a	n/a	n/a	n/a	n/a	n/a
295.7839	0.6833	COLOR_NAME	26	Neutral	zielony	green	Neutral	Neutral	hit	n/a
296.4555	n/a	RESPONSE	n/a	n/a	n/a	n/a	n/a	n/a	n/a	green
296.4673	1.0	ITI	n/a	n/a	n/a	n/a	n/a	n/a	n/a	n/a
297.4672	0.5	FIXCROSS	n/a	n/a	n/a	n/a	n/a	n/a	n/a	n/a
297.9672	0.5	COLOR_NAME	27	Neutral	zielony	green	Neutral	Neutral	hit	n/a
298.4543	n/a	RESPONSE	n/a	n/a	n/a	n/a	n/a	n/a	n/a	green
298.4672	1.0	ITI	n/a	n/a	n/a	n/a	n/a	n/a	n/a	n/a
299.4672	0.5	FIXCROSS	n/a	n/a	n/a	n/a	n/a	n/a	n/a	n/a
299.9672	0.8	COLOR_NAME	28	Incongruent	niebieski	blue	czerwony	red	hit	n/a
300.7567	n/a	RESPONSE	n/a	n/a	n/a	n/a	n/a	n/a	n/a	blue
300.7672	1.0	ITI	n/a	n/a	n/a	n/a	n/a	n/a	n/a	n/a
301.7672	0.5	FIXCROSS	n/a	n/a	n/a	n/a	n/a	n/a	n/a	n/a
302.2672	0.4667	COLOR_NAME	29	Neutral	żółty	yellow	Neutral	Neutral	hit	n/a
302.7234	n/a	RESPONSE	n/a	n/a	n/a	n/a	n/a	n/a	n/a	yellow
302.7338	1.0	ITI	n/a	n/a	n/a	n/a	n/a	n/a	n/a	n/a
303.7338	0.5	FIXCROSS	n/a	n/a	n/a	n/a	n/a	n/a	n/a	n/a
304.2338	0.6167	COLOR_NAME	30	Incongruent	żółty	yellow	zielony	green	hit	n/a
304.834	n/a	RESPONSE	n/a	n/a	n/a	n/a	n/a	n/a	n/a	yellow
304.8505	1.0	ITI	n/a	n/a	n/a	n/a	n/a	n/a	n/a	n/a
305.8504	0.5	FIXCROSS	n/a	n/a	n/a	n/a	n/a	n/a	n/a	n/a
306.3504	0.5333	COLOR_NAME	31	Neutral	żółty	yellow	Neutral	Neutral	hit	n/a
306.8646	n/a	RESPONSE	n/a	n/a	n/a	n/a	n/a	n/a	n/a	yellow
306.8837	1.0	ITI	n/a	n/a	n/a	n/a	n/a	n/a	n/a	n/a
307.8837	0.5	FIXCROSS	n/a	n/a	n/a	n/a	n/a	n/a	n/a	n/a
308.3837	0.65	COLOR_NAME	32	Incongruent	niebieski	blue	czerwony	red	hit	n/a
309.0232	n/a	RESPONSE	n/a	n/a	n/a	n/a	n/a	n/a	n/a	blue
309.0337	1.0	ITI	n/a	n/a	n/a	n/a	n/a	n/a	n/a	n/a
310.0337	0.5	FIXCROSS	n/a	n/a	n/a	n/a	n/a	n/a	n/a	n/a
310.5337	0.7	COLOR_NAME	33	Incongruent	czerwony	red	żółty	yellow	hit	n/a
311.2297	n/a	RESPONSE	n/a	n/a	n/a	n/a	n/a	n/a	n/a	red
311.2337	1.0	ITI	n/a	n/a	n/a	n/a	n/a	n/a	n/a	n/a
312.2336	0.5	FIXCROSS	n/a	n/a	n/a	n/a	n/a	n/a	n/a	n/a
312.7336	0.4333	COLOR_NAME	34	Neutral	czerwony	red	Neutral	Neutral	hit	n/a
313.1483	n/a	RESPONSE	n/a	n/a	n/a	n/a	n/a	n/a	n/a	red
313.167	1.0	ITI	n/a	n/a	n/a	n/a	n/a	n/a	n/a	n/a
314.1669	0.5	FIXCROSS	n/a	n/a	n/a	n/a	n/a	n/a	n/a	n/a
314.6669	0.5167	COLOR_NAME	35	Neutral	niebieski	blue	Neutral	Neutral	hit	n/a
315.179	n/a	RESPONSE	n/a	n/a	n/a	n/a	n/a	n/a	n/a	blue
315.1836	1.0	ITI	n/a	n/a	n/a	n/a	n/a	n/a	n/a	n/a
316.1836	0.5	FIXCROSS	n/a	n/a	n/a	n/a	n/a	n/a	n/a	n/a
316.6836	0.4167	COLOR_NAME	36	Neutral	niebieski	blue	Neutral	Neutral	hit	n/a
317.0818	n/a	RESPONSE	n/a	n/a	n/a	n/a	n/a	n/a	n/a	blue
317.1002	1.0	ITI	n/a	n/a	n/a	n/a	n/a	n/a	n/a	n/a
318.1002	0.5	FIXCROSS	n/a	n/a	n/a	n/a	n/a	n/a	n/a	n/a
318.6002	0.7167	COLOR_NAME	37	Neutral	żółty	yellow	Neutral	Neutral	hit	n/a
319.3043	n/a	RESPONSE	n/a	n/a	n/a	n/a	n/a	n/a	n/a	yellow
319.3169	1.0	ITI	n/a	n/a	n/a	n/a	n/a	n/a	n/a	n/a
320.3168	0.5	FIXCROSS	n/a	n/a	n/a	n/a	n/a	n/a	n/a	n/a
320.8168	0.4667	COLOR_NAME	38	Incongruent	żółty	yellow	niebieski	blue	hit	n/a
321.2709	n/a	RESPONSE	n/a	n/a	n/a	n/a	n/a	n/a	n/a	yellow
321.2835	1.0	ITI	n/a	n/a	n/a	n/a	n/a	n/a	n/a	n/a
322.2835	0.5	FIXCROSS	n/a	n/a	n/a	n/a	n/a	n/a	n/a	n/a
322.7835	0.7833	COLOR_NAME	39	Incongruent	niebieski	blue	czerwony	red	hit	n/a
323.5574	n/a	RESPONSE	n/a	n/a	n/a	n/a	n/a	n/a	n/a	blue
323.5668	1.0	ITI	n/a	n/a	n/a	n/a	n/a	n/a	n/a	n/a
324.5668	0.5	FIXCROSS	n/a	n/a	n/a	n/a	n/a	n/a	n/a	n/a
325.0668	0.7833	COLOR_NAME	40	Neutral	czerwony	red	Neutral	Neutral	hit	n/a
325.8438	n/a	RESPONSE	n/a	n/a	n/a	n/a	n/a	n/a	n/a	red
325.8501	1.0	ITI	n/a	n/a	n/a	n/a	n/a	n/a	n/a	n/a
326.8501	0.5	FIXCROSS	n/a	n/a	n/a	n/a	n/a	n/a	n/a	n/a
327.3501	0.7	COLOR_NAME	41	Neutral	niebieski	blue	Neutral	Neutral	hit	n/a
328.0344	n/a	RESPONSE	n/a	n/a	n/a	n/a	n/a	n/a	n/a	blue
328.05	1.0	ITI	n/a	n/a	n/a	n/a	n/a	n/a	n/a	n/a
329.05	0.5	FIXCROSS	n/a	n/a	n/a	n/a	n/a	n/a	n/a	n/a
329.55	0.85	COLOR_NAME	42	Incongruent	czerwony	red	zielony	green	hit	n/a
330.3848	n/a	RESPONSE	n/a	n/a	n/a	n/a	n/a	n/a	n/a	red
330.4	1.0	ITI	n/a	n/a	n/a	n/a	n/a	n/a	n/a	n/a
331.4	0.5	FIXCROSS	n/a	n/a	n/a	n/a	n/a	n/a	n/a	n/a
331.9	0.8666	COLOR_NAME	43	Incongruent	zielony	green	czerwony	red	hit	n/a
332.7512	n/a	RESPONSE	n/a	n/a	n/a	n/a	n/a	n/a	n/a	green
332.7666	1.0	ITI	n/a	n/a	n/a	n/a	n/a	n/a	n/a	n/a
333.7666	0.5	FIXCROSS	n/a	n/a	n/a	n/a	n/a	n/a	n/a	n/a
334.2666	0.4167	COLOR_NAME	44	Incongruent	zielony	green	żółty	yellow	hit	n/a
334.67	n/a	RESPONSE	n/a	n/a	n/a	n/a	n/a	n/a	n/a	green
334.6833	1.0	ITI	n/a	n/a	n/a	n/a	n/a	n/a	n/a	n/a
335.6832	0.5	FIXCROSS	n/a	n/a	n/a	n/a	n/a	n/a	n/a	n/a
336.1832	0.6166	COLOR_NAME	45	Neutral	czerwony	red	Neutral	Neutral	hit	n/a
336.7805	n/a	RESPONSE	n/a	n/a	n/a	n/a	n/a	n/a	n/a	red
336.7999	1.0	ITI	n/a	n/a	n/a	n/a	n/a	n/a	n/a	n/a
337.7999	0.5	FIXCROSS	n/a	n/a	n/a	n/a	n/a	n/a	n/a	n/a
338.2999	0.5833	COLOR_NAME	46	Neutral	niebieski	blue	Neutral	Neutral	hit	n/a
338.875	n/a	RESPONSE	n/a	n/a	n/a	n/a	n/a	n/a	n/a	blue
338.8832	1.0	ITI	n/a	n/a	n/a	n/a	n/a	n/a	n/a	n/a
339.8832	0.5	FIXCROSS	n/a	n/a	n/a	n/a	n/a	n/a	n/a	n/a
340.3832	0.6667	COLOR_NAME	47	Incongruent	zielony	green	niebieski	blue	hit	n/a
341.0336	n/a	RESPONSE	n/a	n/a	n/a	n/a	n/a	n/a	n/a	green
341.0498	1.0	ITI	n/a	n/a	n/a	n/a	n/a	n/a	n/a	n/a
342.0498	0.5	FIXCROSS	n/a	n/a	n/a	n/a	n/a	n/a	n/a	n/a
342.5498	0.7833	COLOR_NAME	48	Incongruent	niebieski	blue	żółty	yellow	hit	n/a
343.3201	n/a	RESPONSE	n/a	n/a	n/a	n/a	n/a	n/a	n/a	blue
343.3331	1.0	ITI	n/a	n/a	n/a	n/a	n/a	n/a	n/a	n/a
344.3331	0.5	FIXCROSS	n/a	n/a	n/a	n/a	n/a	n/a	n/a	n/a
344.8331	0.8	COLOR_NAME	49	Incongruent	żółty	yellow	czerwony	red	hit	n/a
345.6225	n/a	RESPONSE	n/a	n/a	n/a	n/a	n/a	n/a	n/a	yellow
345.6331	1.0	ITI	n/a	n/a	n/a	n/a	n/a	n/a	n/a	n/a
346.633	0.5	FIXCROSS	n/a	n/a	n/a	n/a	n/a	n/a	n/a	n/a
347.133	0.4833	COLOR_NAME	50	Incongruent	żółty	yellow	zielony	green	hit	n/a
347.6052	n/a	RESPONSE	n/a	n/a	n/a	n/a	n/a	n/a	n/a	yellow
347.6164	1.0	ITI	n/a	n/a	n/a	n/a	n/a	n/a	n/a	n/a
348.6163	0.5	FIXCROSS	n/a	n/a	n/a	n/a	n/a	n/a	n/a	n/a
349.1163	0.7	COLOR_NAME	51	Neutral	zielony	green	Neutral	Neutral	hit	n/a
349.8117	n/a	RESPONSE	n/a	n/a	n/a	n/a	n/a	n/a	n/a	green
349.8163	1.0	ITI	n/a	n/a	n/a	n/a	n/a	n/a	n/a	n/a
350.8163	0.5	FIXCROSS	n/a	n/a	n/a	n/a	n/a	n/a	n/a	n/a
351.3163	0.7833	COLOR_NAME	52	Neutral	czerwony	red	Neutral	Neutral	hit	n/a
352.0822	n/a	RESPONSE	n/a	n/a	n/a	n/a	n/a	n/a	n/a	red
352.0996	1.0	ITI	n/a	n/a	n/a	n/a	n/a	n/a	n/a	n/a
353.0996	0.5	FIXCROSS	n/a	n/a	n/a	n/a	n/a	n/a	n/a	n/a
353.5996	0.8833	COLOR_NAME	53	Incongruent	zielony	green	niebieski	blue	hit	n/a
354.4646	n/a	RESPONSE	n/a	n/a	n/a	n/a	n/a	n/a	n/a	green
354.4829	1.0	ITI	n/a	n/a	n/a	n/a	n/a	n/a	n/a	n/a
355.4829	0.5	FIXCROSS	n/a	n/a	n/a	n/a	n/a	n/a	n/a	n/a
355.9829	0.8833	COLOR_NAME	54	Neutral	czerwony	red	Neutral	Neutral	hit	n/a
356.8469	n/a	RESPONSE	n/a	n/a	n/a	n/a	n/a	n/a	n/a	red
356.8662	1.0	ITI	n/a	n/a	n/a	n/a	n/a	n/a	n/a	n/a
357.8662	0.5	FIXCROSS	n/a	n/a	n/a	n/a	n/a	n/a	n/a	n/a
358.3662	0.6	COLOR_NAME	55	Incongruent	czerwony	red	niebieski	blue	hit	n/a
358.9576	n/a	RESPONSE	n/a	n/a	n/a	n/a	n/a	n/a	n/a	red
358.9662	1.0	ITI	n/a	n/a	n/a	n/a	n/a	n/a	n/a	n/a
359.9662	0.5	FIXCROSS	n/a	n/a	n/a	n/a	n/a	n/a	n/a	n/a
360.4661	1.0833	COLOR_NAME	56	Incongruent	niebieski	blue	żółty	yellow	hit	n/a
361.5319	n/a	RESPONSE	n/a	n/a	n/a	n/a	n/a	n/a	n/a	blue
361.5495	1.0	ITI	n/a	n/a	n/a	n/a	n/a	n/a	n/a	n/a
362.5494	0.5	FIXCROSS	n/a	n/a	n/a	n/a	n/a	n/a	n/a	n/a
363.0494	0.6667	COLOR_NAME	57	Neutral	żółty	yellow	Neutral	Neutral	hit	n/a
363.7064	n/a	RESPONSE	n/a	n/a	n/a	n/a	n/a	n/a	n/a	yellow
363.7161	1.0	ITI	n/a	n/a	n/a	n/a	n/a	n/a	n/a	n/a
364.7161	0.5	FIXCROSS	n/a	n/a	n/a	n/a	n/a	n/a	n/a	n/a
365.2161	0.5	COLOR_NAME	58	Neutral	żółty	yellow	Neutral	Neutral	hit	n/a
365.705	n/a	RESPONSE	n/a	n/a	n/a	n/a	n/a	n/a	n/a	yellow
365.7161	1.0	ITI	n/a	n/a	n/a	n/a	n/a	n/a	n/a	n/a
366.716	0.5	FIXCROSS	n/a	n/a	n/a	n/a	n/a	n/a	n/a	n/a
367.216	0.6666	COLOR_NAME	59	Incongruent	zielony	green	żółty	yellow	hit	n/a
367.8796	n/a	RESPONSE	n/a	n/a	n/a	n/a	n/a	n/a	n/a	green
367.8827	1.0	ITI	n/a	n/a	n/a	n/a	n/a	n/a	n/a	n/a
368.8827	0.5	FIXCROSS	n/a	n/a	n/a	n/a	n/a	n/a	n/a	n/a
369.3826	0.8167	COLOR_NAME	60	Incongruent	niebieski	blue	żółty	yellow	hit	n/a
370.1821	n/a	RESPONSE	n/a	n/a	n/a	n/a	n/a	n/a	n/a	blue
370.1993	1.0	ITI	n/a	n/a	n/a	n/a	n/a	n/a	n/a	n/a
371.1993	0.5	FIXCROSS	n/a	n/a	n/a	n/a	n/a	n/a	n/a	n/a
371.6993	0.7	COLOR_NAME	61	Neutral	zielony	green	Neutral	Neutral	hit	n/a
372.3886	n/a	RESPONSE	n/a	n/a	n/a	n/a	n/a	n/a	n/a	green
372.3993	1.0	ITI	n/a	n/a	n/a	n/a	n/a	n/a	n/a	n/a
373.3992	0.5	FIXCROSS	n/a	n/a	n/a	n/a	n/a	n/a	n/a	n/a
373.8992	0.6	COLOR_NAME	62	Neutral	czerwony	red	Neutral	Neutral	hit	n/a
374.4832	n/a	RESPONSE	n/a	n/a	n/a	n/a	n/a	n/a	n/a	red
374.4992	1.0	ITI	n/a	n/a	n/a	n/a	n/a	n/a	n/a	n/a
375.4992	0.5	FIXCROSS	n/a	n/a	n/a	n/a	n/a	n/a	n/a	n/a
375.9992	0.6333	COLOR_NAME	63	Neutral	czerwony	red	Neutral	Neutral	hit	n/a
376.6257	n/a	RESPONSE	n/a	n/a	n/a	n/a	n/a	n/a	n/a	red
376.6325	1.0	ITI	n/a	n/a	n/a	n/a	n/a	n/a	n/a	n/a
377.6325	0.5	FIXCROSS	n/a	n/a	n/a	n/a	n/a	n/a	n/a	n/a
378.1325	0.5334	COLOR_NAME	64	Neutral	czerwony	red	Neutral	Neutral	hit	n/a
378.6563	n/a	RESPONSE	n/a	n/a	n/a	n/a	n/a	n/a	n/a	red
378.6658	1.0	ITI	n/a	n/a	n/a	n/a	n/a	n/a	n/a	n/a
379.6658	0.5	FIXCROSS	n/a	n/a	n/a	n/a	n/a	n/a	n/a	n/a
380.1658	0.6666	COLOR_NAME	65	Neutral	żółty	yellow	Neutral	Neutral	hit	n/a
380.8149	n/a	RESPONSE	n/a	n/a	n/a	n/a	n/a	n/a	n/a	yellow
380.8324	1.0	ITI	n/a	n/a	n/a	n/a	n/a	n/a	n/a	n/a
381.8324	0.5	FIXCROSS	n/a	n/a	n/a	n/a	n/a	n/a	n/a	n/a
382.3324	0.6333	COLOR_NAME	66	Neutral	niebieski	blue	Neutral	Neutral	hit	n/a
382.9575	n/a	RESPONSE	n/a	n/a	n/a	n/a	n/a	n/a	n/a	blue
382.9658	1.0	ITI	n/a	n/a	n/a	n/a	n/a	n/a	n/a	n/a
383.9657	0.5	FIXCROSS	n/a	n/a	n/a	n/a	n/a	n/a	n/a	n/a
384.4657	0.8333	COLOR_NAME	67	Incongruent	żółty	yellow	niebieski	blue	hit	n/a
385.2919	n/a	RESPONSE	n/a	n/a	n/a	n/a	n/a	n/a	n/a	yellow
385.299	1.0	ITI	n/a	n/a	n/a	n/a	n/a	n/a	n/a	n/a
386.299	0.5	FIXCROSS	n/a	n/a	n/a	n/a	n/a	n/a	n/a	n/a
386.799	0.4167	COLOR_NAME	68	Incongruent	żółty	yellow	niebieski	blue	hit	n/a
387.2105	n/a	RESPONSE	n/a	n/a	n/a	n/a	n/a	n/a	n/a	yellow
387.2157	1.0	ITI	n/a	n/a	n/a	n/a	n/a	n/a	n/a	n/a
388.2157	0.5	FIXCROSS	n/a	n/a	n/a	n/a	n/a	n/a	n/a	n/a
388.7156	0.8333	COLOR_NAME	69	Incongruent	niebieski	blue	zielony	green	hit	n/a
389.545	n/a	RESPONSE	n/a	n/a	n/a	n/a	n/a	n/a	n/a	blue
389.549	1.0	ITI	n/a	n/a	n/a	n/a	n/a	n/a	n/a	n/a
390.5489	0.5	FIXCROSS	n/a	n/a	n/a	n/a	n/a	n/a	n/a	n/a
391.0489	0.75	COLOR_NAME	70	Neutral	zielony	green	Neutral	Neutral	hit	n/a
391.7834	n/a	RESPONSE	n/a	n/a	n/a	n/a	n/a	n/a	n/a	green
391.7989	1.0	ITI	n/a	n/a	n/a	n/a	n/a	n/a	n/a	n/a
392.7989	0.5	FIXCROSS	n/a	n/a	n/a	n/a	n/a	n/a	n/a	n/a
393.2989	0.4	COLOR_NAME	71	Neutral	zielony	green	Neutral	Neutral	hit	n/a
393.6862	n/a	RESPONSE	n/a	n/a	n/a	n/a	n/a	n/a	n/a	green
393.6989	1.0	ITI	n/a	n/a	n/a	n/a	n/a	n/a	n/a	n/a
394.6989	0.5	FIXCROSS	n/a	n/a	n/a	n/a	n/a	n/a	n/a	n/a
395.1989	0.6667	COLOR_NAME	72	Incongruent	niebieski	blue	zielony	green	hit	n/a
395.8607	n/a	RESPONSE	n/a	n/a	n/a	n/a	n/a	n/a	n/a	blue
395.8655	1.0	ITI	n/a	n/a	n/a	n/a	n/a	n/a	n/a	n/a
400.7216	n/a	RESPONSE	n/a	n/a	n/a	n/a	n/a	n/a	n/a	n/a
