onset	duration	trial_type	trial_number	stroop_condition	stim_text(PL)	stim_text(eng)	stim_color(PL)	stim_color(eng)	response_type	response_color
0.0	n/a	RESPONSE	n/a	n/a	n/a	n/a	n/a	n/a	n/a	n/a
0.0556	1.0333	ITI	n/a	n/a	n/a	n/a	n/a	n/a	n/a	n/a
1.0889	0.5167	FIXCROSS	n/a	n/a	n/a	n/a	n/a	n/a	n/a	n/a
1.6056	1.3333	T_INK	1	Incongruent	żółty	yellow	niebieski	blue	hit	n/a
2.9114	n/a	RESPONSE	n/a	n/a	n/a	n/a	n/a	n/a	n/a	blue
2.939	0.5167	FEEDBACK	n/a	n/a	n/a	n/a	n/a	n/a	n/a	n/a
3.4556	1.0167	ITI	n/a	n/a	n/a	n/a	n/a	n/a	n/a	n/a
4.4723	0.5167	FIXCROSS	n/a	n/a	n/a	n/a	n/a	n/a	n/a	n/a
4.989	1.0667	T_INK	2	Incongruent	niebieski	blue	żółty	yellow	hit	n/a
6.0308	n/a	RESPONSE	n/a	n/a	n/a	n/a	n/a	n/a	n/a	yellow
6.0556	0.5167	FEEDBACK	n/a	n/a	n/a	n/a	n/a	n/a	n/a	n/a
6.5723	1.0167	ITI	n/a	n/a	n/a	n/a	n/a	n/a	n/a	n/a
7.589	0.5167	FIXCROSS	n/a	n/a	n/a	n/a	n/a	n/a	n/a	n/a
8.1057	0.9833	T_INK	3	Neutral	xxxxx	xxxxx	niebieski	blue	hit	n/a
9.0541	n/a	RESPONSE	n/a	n/a	n/a	n/a	n/a	n/a	n/a	blue
9.089	0.5167	FEEDBACK	n/a	n/a	n/a	n/a	n/a	n/a	n/a	n/a
9.6057	1.0167	ITI	n/a	n/a	n/a	n/a	n/a	n/a	n/a	n/a
10.6223	0.5167	FIXCROSS	n/a	n/a	n/a	n/a	n/a	n/a	n/a	n/a
11.139	0.8	T_INK	4	Incongruent	czerwony	red	zielony	green	hit	n/a
11.9175	n/a	RESPONSE	n/a	n/a	n/a	n/a	n/a	n/a	n/a	green
11.939	0.5167	FEEDBACK	n/a	n/a	n/a	n/a	n/a	n/a	n/a	n/a
12.4557	1.0167	ITI	n/a	n/a	n/a	n/a	n/a	n/a	n/a	n/a
13.4724	0.5167	FIXCROSS	n/a	n/a	n/a	n/a	n/a	n/a	n/a	n/a
13.989	0.75	T_INK	5	Incongruent	zielony	green	niebieski	blue	hit	n/a
14.7169	n/a	RESPONSE	n/a	n/a	n/a	n/a	n/a	n/a	n/a	blue
14.739	0.5167	FEEDBACK	n/a	n/a	n/a	n/a	n/a	n/a	n/a	n/a
15.2557	1.0167	ITI	n/a	n/a	n/a	n/a	n/a	n/a	n/a	n/a
16.2724	0.5167	FIXCROSS	n/a	n/a	n/a	n/a	n/a	n/a	n/a	n/a
16.7891	0.6	T_INK	6	Incongruent	zielony	green	czerwony	red	hit	n/a
17.3564	n/a	RESPONSE	n/a	n/a	n/a	n/a	n/a	n/a	n/a	red
17.3891	0.5167	FEEDBACK	n/a	n/a	n/a	n/a	n/a	n/a	n/a	n/a
17.9057	1.0167	ITI	n/a	n/a	n/a	n/a	n/a	n/a	n/a	n/a
18.9224	0.5167	FIXCROSS	n/a	n/a	n/a	n/a	n/a	n/a	n/a	n/a
19.4391	0.4833	T_INK	7	Incongruent	żółty	yellow	czerwony	red	hit	n/a
19.8998	n/a	RESPONSE	n/a	n/a	n/a	n/a	n/a	n/a	n/a	red
19.9224	0.5167	FEEDBACK	n/a	n/a	n/a	n/a	n/a	n/a	n/a	n/a
20.4391	1.0167	ITI	n/a	n/a	n/a	n/a	n/a	n/a	n/a	n/a
21.4558	0.5167	FIXCROSS	n/a	n/a	n/a	n/a	n/a	n/a	n/a	n/a
21.9724	0.8833	T_INK	8	Neutral	xxxxxxxx	xxxxxxxx	żółty	yellow	hit	n/a
22.8273	n/a	RESPONSE	n/a	n/a	n/a	n/a	n/a	n/a	n/a	yellow
22.8558	0.5167	FEEDBACK	n/a	n/a	n/a	n/a	n/a	n/a	n/a	n/a
23.3724	1.0167	ITI	n/a	n/a	n/a	n/a	n/a	n/a	n/a	n/a
24.3891	0.5167	FIXCROSS	n/a	n/a	n/a	n/a	n/a	n/a	n/a	n/a
24.9058	0.6167	T_INK	9	Neutral	xxxxxxx	xxxxxxx	czerwony	red	hit	n/a
25.4986	n/a	RESPONSE	n/a	n/a	n/a	n/a	n/a	n/a	n/a	red
25.5225	0.5167	FEEDBACK	n/a	n/a	n/a	n/a	n/a	n/a	n/a	n/a
26.0391	1.0167	ITI	n/a	n/a	n/a	n/a	n/a	n/a	n/a	n/a
27.0558	0.5167	FIXCROSS	n/a	n/a	n/a	n/a	n/a	n/a	n/a	n/a
27.5725	0.6833	T_INK	10	Incongruent	niebieski	blue	zielony	green	hit	n/a
28.2341	n/a	RESPONSE	n/a	n/a	n/a	n/a	n/a	n/a	n/a	green
28.2558	0.5167	FEEDBACK	n/a	n/a	n/a	n/a	n/a	n/a	n/a	n/a
28.7725	1.0167	ITI	n/a	n/a	n/a	n/a	n/a	n/a	n/a	n/a
29.7891	0.5167	FIXCROSS	n/a	n/a	n/a	n/a	n/a	n/a	n/a	n/a
30.3058	1.0	T_INK	11	Neutral	xxxxxxxxx	xxxxxxxxx	czerwony	red	hit	n/a
31.2734	n/a	RESPONSE	n/a	n/a	n/a	n/a	n/a	n/a	n/a	red
31.3058	0.5167	FEEDBACK	n/a	n/a	n/a	n/a	n/a	n/a	n/a	n/a
31.8225	1.0167	ITI	n/a	n/a	n/a	n/a	n/a	n/a	n/a	n/a
32.8392	0.5167	FIXCROSS	n/a	n/a	n/a	n/a	n/a	n/a	n/a	n/a
33.3558	0.5833	T_INK	12	Incongruent	niebieski	blue	czerwony	red	hit	n/a
33.9129	n/a	RESPONSE	n/a	n/a	n/a	n/a	n/a	n/a	n/a	red
33.9392	0.5167	FEEDBACK	n/a	n/a	n/a	n/a	n/a	n/a	n/a	n/a
34.4558	1.0333	ITI	n/a	n/a	n/a	n/a	n/a	n/a	n/a	n/a
40.9674	n/a	RESPONSE	n/a	n/a	n/a	n/a	n/a	n/a	n/a	n/a
41.0226	1.0167	ITI	n/a	n/a	n/a	n/a	n/a	n/a	n/a	n/a
42.0392	0.5167	FIXCROSS	n/a	n/a	n/a	n/a	n/a	n/a	n/a	n/a
42.5559	0.6833	INK	1	Incongruent	żółty	yellow	niebieski	blue	hit	n/a
43.2069	n/a	RESPONSE	n/a	n/a	n/a	n/a	n/a	n/a	n/a	blue
43.2392	1.0167	ITI	n/a	n/a	n/a	n/a	n/a	n/a	n/a	n/a
44.2559	0.5167	FIXCROSS	n/a	n/a	n/a	n/a	n/a	n/a	n/a	n/a
44.7726	0.5833	INK	2	Incongruent	zielony	green	żółty	yellow	hit	n/a
45.3345	n/a	RESPONSE	n/a	n/a	n/a	n/a	n/a	n/a	n/a	yellow
45.3559	1.0167	ITI	n/a	n/a	n/a	n/a	n/a	n/a	n/a	n/a
46.3726	0.5167	FIXCROSS	n/a	n/a	n/a	n/a	n/a	n/a	n/a	n/a
46.8893	0.5167	INK	3	Neutral	xxxxxxxxx	xxxxxxxxx	żółty	yellow	hit	n/a
47.3821	n/a	RESPONSE	n/a	n/a	n/a	n/a	n/a	n/a	n/a	yellow
47.4059	1.0167	ITI	n/a	n/a	n/a	n/a	n/a	n/a	n/a	n/a
48.4226	0.5167	FIXCROSS	n/a	n/a	n/a	n/a	n/a	n/a	n/a	n/a
48.9393	0.8	INK	4	Incongruent	żółty	yellow	zielony	green	hit	n/a
49.7175	n/a	RESPONSE	n/a	n/a	n/a	n/a	n/a	n/a	n/a	green
49.7393	1.0167	ITI	n/a	n/a	n/a	n/a	n/a	n/a	n/a	n/a
50.756	0.5167	FIXCROSS	n/a	n/a	n/a	n/a	n/a	n/a	n/a	n/a
51.2726	0.75	INK	5	Incongruent	niebieski	blue	żółty	yellow	hit	n/a
51.9891	n/a	RESPONSE	n/a	n/a	n/a	n/a	n/a	n/a	n/a	yellow
52.0226	1.0167	ITI	n/a	n/a	n/a	n/a	n/a	n/a	n/a	n/a
53.0393	0.5167	FIXCROSS	n/a	n/a	n/a	n/a	n/a	n/a	n/a	n/a
53.556	0.85	INK	6	Incongruent	zielony	green	niebieski	blue	hit	n/a
54.3726	n/a	RESPONSE	n/a	n/a	n/a	n/a	n/a	n/a	n/a	blue
54.406	1.0167	ITI	n/a	n/a	n/a	n/a	n/a	n/a	n/a	n/a
55.4227	0.5167	FIXCROSS	n/a	n/a	n/a	n/a	n/a	n/a	n/a	n/a
55.9393	0.8333	INK	7	Incongruent	czerwony	red	zielony	green	hit	n/a
56.7401	n/a	RESPONSE	n/a	n/a	n/a	n/a	n/a	n/a	n/a	green
56.7727	1.0167	ITI	n/a	n/a	n/a	n/a	n/a	n/a	n/a	n/a
57.7893	0.5167	FIXCROSS	n/a	n/a	n/a	n/a	n/a	n/a	n/a	n/a
58.306	0.8333	INK	8	Neutral	xxxxxxx	xxxxxxx	czerwony	red	hit	n/a
59.1076	n/a	RESPONSE	n/a	n/a	n/a	n/a	n/a	n/a	n/a	red
59.1394	1.0167	ITI	n/a	n/a	n/a	n/a	n/a	n/a	n/a	n/a
60.156	0.5167	FIXCROSS	n/a	n/a	n/a	n/a	n/a	n/a	n/a	n/a
60.6727	0.65	INK	9	Incongruent	niebieski	blue	żółty	yellow	hit	n/a
61.2991	n/a	RESPONSE	n/a	n/a	n/a	n/a	n/a	n/a	n/a	yellow
61.3227	1.0167	ITI	n/a	n/a	n/a	n/a	n/a	n/a	n/a	n/a
62.3394	0.5167	FIXCROSS	n/a	n/a	n/a	n/a	n/a	n/a	n/a	n/a
62.8561	0.6833	INK	10	Neutral	xxxxx	xxxxx	czerwony	red	hit	n/a
63.5067	n/a	RESPONSE	n/a	n/a	n/a	n/a	n/a	n/a	n/a	red
63.5394	1.0167	ITI	n/a	n/a	n/a	n/a	n/a	n/a	n/a	n/a
64.5561	0.5167	FIXCROSS	n/a	n/a	n/a	n/a	n/a	n/a	n/a	n/a
65.0727	0.5333	INK	11	Incongruent	niebieski	blue	czerwony	red	hit	n/a
65.5862	n/a	RESPONSE	n/a	n/a	n/a	n/a	n/a	n/a	n/a	red
65.6061	1.0167	ITI	n/a	n/a	n/a	n/a	n/a	n/a	n/a	n/a
66.6227	0.5167	FIXCROSS	n/a	n/a	n/a	n/a	n/a	n/a	n/a	n/a
67.1394	0.6333	INK	12	Neutral	xxxxx	xxxxx	niebieski	blue	hit	n/a
67.7457	n/a	RESPONSE	n/a	n/a	n/a	n/a	n/a	n/a	n/a	blue
67.7727	1.0167	ITI	n/a	n/a	n/a	n/a	n/a	n/a	n/a	n/a
68.7894	0.5167	FIXCROSS	n/a	n/a	n/a	n/a	n/a	n/a	n/a	n/a
69.3061	0.6	INK	13	Neutral	xxxxx	xxxxx	czerwony	red	hit	n/a
69.8733	n/a	RESPONSE	n/a	n/a	n/a	n/a	n/a	n/a	n/a	red
69.9061	1.0167	ITI	n/a	n/a	n/a	n/a	n/a	n/a	n/a	n/a
70.9228	0.5167	FIXCROSS	n/a	n/a	n/a	n/a	n/a	n/a	n/a	n/a
71.4395	0.5667	INK	14	Incongruent	żółty	yellow	czerwony	red	hit	n/a
71.9849	n/a	RESPONSE	n/a	n/a	n/a	n/a	n/a	n/a	n/a	red
72.0061	1.0167	ITI	n/a	n/a	n/a	n/a	n/a	n/a	n/a	n/a
73.0228	0.5167	FIXCROSS	n/a	n/a	n/a	n/a	n/a	n/a	n/a	n/a
73.5395	0.7	INK	15	Neutral	xxxxxxxxx	xxxxxxxxx	zielony	green	hit	n/a
74.2084	n/a	RESPONSE	n/a	n/a	n/a	n/a	n/a	n/a	n/a	green
74.2395	1.0167	ITI	n/a	n/a	n/a	n/a	n/a	n/a	n/a	n/a
75.2561	0.5167	FIXCROSS	n/a	n/a	n/a	n/a	n/a	n/a	n/a	n/a
75.7728	0.7333	INK	16	Neutral	xxxxx	xxxxx	zielony	green	hit	n/a
76.4799	n/a	RESPONSE	n/a	n/a	n/a	n/a	n/a	n/a	n/a	green
76.5061	1.0167	ITI	n/a	n/a	n/a	n/a	n/a	n/a	n/a	n/a
77.5228	0.5167	FIXCROSS	n/a	n/a	n/a	n/a	n/a	n/a	n/a	n/a
78.0395	0.5333	INK	17	Incongruent	niebieski	blue	zielony	green	hit	n/a
78.5435	n/a	RESPONSE	n/a	n/a	n/a	n/a	n/a	n/a	n/a	green
78.5728	1.0167	ITI	n/a	n/a	n/a	n/a	n/a	n/a	n/a	n/a
79.5895	0.5167	FIXCROSS	n/a	n/a	n/a	n/a	n/a	n/a	n/a	n/a
80.1062	0.5667	INK	18	Neutral	xxxxxxx	xxxxxxx	czerwony	red	hit	n/a
80.655	n/a	RESPONSE	n/a	n/a	n/a	n/a	n/a	n/a	n/a	red
80.6728	1.0167	ITI	n/a	n/a	n/a	n/a	n/a	n/a	n/a	n/a
81.6895	0.5167	FIXCROSS	n/a	n/a	n/a	n/a	n/a	n/a	n/a	n/a
82.2062	0.4333	INK	19	Neutral	xxxxxxx	xxxxxxx	żółty	yellow	hit	n/a
82.6066	n/a	RESPONSE	n/a	n/a	n/a	n/a	n/a	n/a	n/a	yellow
82.6395	1.0167	ITI	n/a	n/a	n/a	n/a	n/a	n/a	n/a	n/a
83.6562	0.5167	FIXCROSS	n/a	n/a	n/a	n/a	n/a	n/a	n/a	n/a
84.1729	0.55	INK	20	Neutral	xxxxxxxxx	xxxxxxxxx	żółty	yellow	hit	n/a
84.7021	n/a	RESPONSE	n/a	n/a	n/a	n/a	n/a	n/a	n/a	yellow
84.7229	1.0167	ITI	n/a	n/a	n/a	n/a	n/a	n/a	n/a	n/a
85.7395	0.5166	FIXCROSS	n/a	n/a	n/a	n/a	n/a	n/a	n/a	n/a
86.2561	0.5334	INK	21	Incongruent	zielony	green	czerwony	red	hit	n/a
86.7657	n/a	RESPONSE	n/a	n/a	n/a	n/a	n/a	n/a	n/a	red
86.7896	1.0167	ITI	n/a	n/a	n/a	n/a	n/a	n/a	n/a	n/a
87.8062	0.5167	FIXCROSS	n/a	n/a	n/a	n/a	n/a	n/a	n/a	n/a
88.3229	0.5667	INK	22	Incongruent	żółty	yellow	zielony	green	hit	n/a
88.8613	n/a	RESPONSE	n/a	n/a	n/a	n/a	n/a	n/a	n/a	green
88.8896	1.0167	ITI	n/a	n/a	n/a	n/a	n/a	n/a	n/a	n/a
89.9062	0.5167	FIXCROSS	n/a	n/a	n/a	n/a	n/a	n/a	n/a	n/a
90.4229	0.4333	INK	23	Neutral	xxxxxxxx	xxxxxxxx	zielony	green	hit	n/a
90.8289	n/a	RESPONSE	n/a	n/a	n/a	n/a	n/a	n/a	n/a	green
90.8562	1.0167	ITI	n/a	n/a	n/a	n/a	n/a	n/a	n/a	n/a
91.8729	0.5167	FIXCROSS	n/a	n/a	n/a	n/a	n/a	n/a	n/a	n/a
92.3896	0.6167	INK	24	Incongruent	zielony	green	czerwony	red	hit	n/a
92.9724	n/a	RESPONSE	n/a	n/a	n/a	n/a	n/a	n/a	n/a	red
93.0063	1.0167	ITI	n/a	n/a	n/a	n/a	n/a	n/a	n/a	n/a
94.0229	0.5167	FIXCROSS	n/a	n/a	n/a	n/a	n/a	n/a	n/a	n/a
94.5396	0.75	INK	25	Neutral	xxxxxxxxx	xxxxxxxxx	zielony	green	hit	n/a
95.26	n/a	RESPONSE	n/a	n/a	n/a	n/a	n/a	n/a	n/a	green
95.2896	1.0167	ITI	n/a	n/a	n/a	n/a	n/a	n/a	n/a	n/a
96.3063	0.5167	FIXCROSS	n/a	n/a	n/a	n/a	n/a	n/a	n/a	n/a
96.8229	0.5333	INK	26	Neutral	xxxxxxxxx	xxxxxxxxx	zielony	green	hit	n/a
97.3235	n/a	RESPONSE	n/a	n/a	n/a	n/a	n/a	n/a	n/a	green
97.3563	1.0167	ITI	n/a	n/a	n/a	n/a	n/a	n/a	n/a	n/a
98.373	0.5167	FIXCROSS	n/a	n/a	n/a	n/a	n/a	n/a	n/a	n/a
98.8896	0.4667	INK	27	Neutral	xxxxxxxx	xxxxxxxx	zielony	green	hit	n/a
99.3391	n/a	RESPONSE	n/a	n/a	n/a	n/a	n/a	n/a	n/a	green
99.3563	1.0167	ITI	n/a	n/a	n/a	n/a	n/a	n/a	n/a	n/a
100.373	0.5167	FIXCROSS	n/a	n/a	n/a	n/a	n/a	n/a	n/a	n/a
100.8896	0.45	INK	28	Incongruent	niebieski	blue	zielony	green	hit	n/a
101.3067	n/a	RESPONSE	n/a	n/a	n/a	n/a	n/a	n/a	n/a	green
101.3396	1.0167	ITI	n/a	n/a	n/a	n/a	n/a	n/a	n/a	n/a
102.3563	0.5167	FIXCROSS	n/a	n/a	n/a	n/a	n/a	n/a	n/a	n/a
102.873	0.4167	INK	29	Neutral	xxxxx	xxxxx	niebieski	blue	hit	n/a
103.2583	n/a	RESPONSE	n/a	n/a	n/a	n/a	n/a	n/a	n/a	blue
103.2897	1.0167	ITI	n/a	n/a	n/a	n/a	n/a	n/a	n/a	n/a
104.3063	0.5167	FIXCROSS	n/a	n/a	n/a	n/a	n/a	n/a	n/a	n/a
104.823	0.75	INK	30	Incongruent	zielony	green	żółty	yellow	hit	n/a
105.5458	n/a	RESPONSE	n/a	n/a	n/a	n/a	n/a	n/a	n/a	yellow
105.573	1.0167	ITI	n/a	n/a	n/a	n/a	n/a	n/a	n/a	n/a
106.5897	0.5167	FIXCROSS	n/a	n/a	n/a	n/a	n/a	n/a	n/a	n/a
107.1063	0.5	INK	31	Neutral	xxxxxxxxx	xxxxxxxxx	żółty	yellow	hit	n/a
107.5774	n/a	RESPONSE	n/a	n/a	n/a	n/a	n/a	n/a	n/a	yellow
107.6064	1.0167	ITI	n/a	n/a	n/a	n/a	n/a	n/a	n/a	n/a
108.623	0.5167	FIXCROSS	n/a	n/a	n/a	n/a	n/a	n/a	n/a	n/a
109.1397	0.4	INK	32	Neutral	xxxxxxx	xxxxxxx	żółty	yellow	hit	n/a
109.5129	n/a	RESPONSE	n/a	n/a	n/a	n/a	n/a	n/a	n/a	yellow
109.5397	1.0167	ITI	n/a	n/a	n/a	n/a	n/a	n/a	n/a	n/a
110.5564	0.5167	FIXCROSS	n/a	n/a	n/a	n/a	n/a	n/a	n/a	n/a
111.0731	0.85	INK	33	Neutral	xxxxxxxx	xxxxxxxx	zielony	green	hit	n/a
111.8964	n/a	RESPONSE	n/a	n/a	n/a	n/a	n/a	n/a	n/a	green
111.923	1.0167	ITI	n/a	n/a	n/a	n/a	n/a	n/a	n/a	n/a
112.9397	0.5167	FIXCROSS	n/a	n/a	n/a	n/a	n/a	n/a	n/a	n/a
113.4564	0.65	INK	34	Neutral	xxxxxxxx	xxxxxxxx	żółty	yellow	hit	n/a
114.056	n/a	RESPONSE	n/a	n/a	n/a	n/a	n/a	n/a	n/a	yellow
114.1064	1.0167	ITI	n/a	n/a	n/a	n/a	n/a	n/a	n/a	n/a
115.1231	0.5167	FIXCROSS	n/a	n/a	n/a	n/a	n/a	n/a	n/a	n/a
115.6397	0.9333	INK	35	Neutral	xxxxxxxx	xxxxxxxx	niebieski	blue	hit	n/a
116.5515	n/a	RESPONSE	n/a	n/a	n/a	n/a	n/a	n/a	n/a	blue
116.5731	1.0167	ITI	n/a	n/a	n/a	n/a	n/a	n/a	n/a	n/a
117.5898	0.5167	FIXCROSS	n/a	n/a	n/a	n/a	n/a	n/a	n/a	n/a
118.1064	0.7	INK	36	Incongruent	czerwony	red	niebieski	blue	hit	n/a
118.775	n/a	RESPONSE	n/a	n/a	n/a	n/a	n/a	n/a	n/a	blue
118.8064	1.0167	ITI	n/a	n/a	n/a	n/a	n/a	n/a	n/a	n/a
119.8231	0.5167	FIXCROSS	n/a	n/a	n/a	n/a	n/a	n/a	n/a	n/a
120.3398	0.5	INK	37	Neutral	xxxxxxxxx	xxxxxxxxx	czerwony	red	hit	n/a
120.8066	n/a	RESPONSE	n/a	n/a	n/a	n/a	n/a	n/a	n/a	red
120.8398	1.0167	ITI	n/a	n/a	n/a	n/a	n/a	n/a	n/a	n/a
121.8565	0.5167	FIXCROSS	n/a	n/a	n/a	n/a	n/a	n/a	n/a	n/a
122.3731	0.7667	INK	38	Incongruent	żółty	yellow	niebieski	blue	hit	n/a
123.1101	n/a	RESPONSE	n/a	n/a	n/a	n/a	n/a	n/a	n/a	blue
123.1398	1.0167	ITI	n/a	n/a	n/a	n/a	n/a	n/a	n/a	n/a
124.1565	0.5167	FIXCROSS	n/a	n/a	n/a	n/a	n/a	n/a	n/a	n/a
124.6731	0.7167	INK	39	Neutral	xxxxxxxx	xxxxxxxx	żółty	yellow	hit	n/a
125.3656	n/a	RESPONSE	n/a	n/a	n/a	n/a	n/a	n/a	n/a	yellow
125.3898	1.0167	ITI	n/a	n/a	n/a	n/a	n/a	n/a	n/a	n/a
126.4065	0.5167	FIXCROSS	n/a	n/a	n/a	n/a	n/a	n/a	n/a	n/a
126.9232	0.65	INK	40	Neutral	xxxxx	xxxxx	zielony	green	hit	n/a
127.5411	n/a	RESPONSE	n/a	n/a	n/a	n/a	n/a	n/a	n/a	green
127.5732	1.0167	ITI	n/a	n/a	n/a	n/a	n/a	n/a	n/a	n/a
128.5898	0.5167	FIXCROSS	n/a	n/a	n/a	n/a	n/a	n/a	n/a	n/a
129.1065	0.9833	INK	41	Incongruent	czerwony	red	niebieski	blue	hit	n/a
130.0686	n/a	RESPONSE	n/a	n/a	n/a	n/a	n/a	n/a	n/a	blue
130.0899	1.0167	ITI	n/a	n/a	n/a	n/a	n/a	n/a	n/a	n/a
131.1065	0.5167	FIXCROSS	n/a	n/a	n/a	n/a	n/a	n/a	n/a	n/a
131.6232	0.6833	INK	42	Incongruent	żółty	yellow	czerwony	red	hit	n/a
132.2761	n/a	RESPONSE	n/a	n/a	n/a	n/a	n/a	n/a	n/a	red
132.3065	1.0167	ITI	n/a	n/a	n/a	n/a	n/a	n/a	n/a	n/a
133.3232	0.5167	FIXCROSS	n/a	n/a	n/a	n/a	n/a	n/a	n/a	n/a
133.8399	0.8	INK	43	Incongruent	żółty	yellow	niebieski	blue	hit	n/a
134.6116	n/a	RESPONSE	n/a	n/a	n/a	n/a	n/a	n/a	n/a	blue
134.6399	1.0167	ITI	n/a	n/a	n/a	n/a	n/a	n/a	n/a	n/a
135.6565	0.5167	FIXCROSS	n/a	n/a	n/a	n/a	n/a	n/a	n/a	n/a
136.1732	0.65	INK	44	Incongruent	czerwony	red	żółty	yellow	hit	n/a
136.8032	n/a	RESPONSE	n/a	n/a	n/a	n/a	n/a	n/a	n/a	yellow
136.8232	1.0167	ITI	n/a	n/a	n/a	n/a	n/a	n/a	n/a	n/a
137.8399	0.5167	FIXCROSS	n/a	n/a	n/a	n/a	n/a	n/a	n/a	n/a
138.3566	0.7833	INK	45	Incongruent	czerwony	red	zielony	green	hit	n/a
139.1067	n/a	RESPONSE	n/a	n/a	n/a	n/a	n/a	n/a	n/a	green
139.1399	1.0167	ITI	n/a	n/a	n/a	n/a	n/a	n/a	n/a	n/a
140.1566	0.5167	FIXCROSS	n/a	n/a	n/a	n/a	n/a	n/a	n/a	n/a
140.6733	0.5333	INK	46	Incongruent	czerwony	red	zielony	green	hit	n/a
141.1863	n/a	RESPONSE	n/a	n/a	n/a	n/a	n/a	n/a	n/a	green
141.2066	1.0167	ITI	n/a	n/a	n/a	n/a	n/a	n/a	n/a	n/a
142.2233	0.5167	FIXCROSS	n/a	n/a	n/a	n/a	n/a	n/a	n/a	n/a
142.7399	0.5833	INK	47	Incongruent	niebieski	blue	czerwony	red	hit	n/a
143.2978	n/a	RESPONSE	n/a	n/a	n/a	n/a	n/a	n/a	n/a	red
143.3233	1.0167	ITI	n/a	n/a	n/a	n/a	n/a	n/a	n/a	n/a
144.3399	0.5167	FIXCROSS	n/a	n/a	n/a	n/a	n/a	n/a	n/a	n/a
144.8566	0.7167	INK	48	Incongruent	niebieski	blue	zielony	green	hit	n/a
145.5534	n/a	RESPONSE	n/a	n/a	n/a	n/a	n/a	n/a	n/a	green
145.5733	1.0167	ITI	n/a	n/a	n/a	n/a	n/a	n/a	n/a	n/a
146.59	0.5167	FIXCROSS	n/a	n/a	n/a	n/a	n/a	n/a	n/a	n/a
147.1066	0.6667	INK	49	Neutral	xxxxxxxx	xxxxxxxx	niebieski	blue	hit	n/a
147.7449	n/a	RESPONSE	n/a	n/a	n/a	n/a	n/a	n/a	n/a	blue
147.7733	1.0167	ITI	n/a	n/a	n/a	n/a	n/a	n/a	n/a	n/a
148.79	0.5167	FIXCROSS	n/a	n/a	n/a	n/a	n/a	n/a	n/a	n/a
149.3066	0.6	INK	50	Incongruent	czerwony	red	niebieski	blue	hit	n/a
149.8884	n/a	RESPONSE	n/a	n/a	n/a	n/a	n/a	n/a	n/a	blue
149.9066	1.0167	ITI	n/a	n/a	n/a	n/a	n/a	n/a	n/a	n/a
150.9233	0.5167	FIXCROSS	n/a	n/a	n/a	n/a	n/a	n/a	n/a	n/a
151.44	0.6167	INK	51	Incongruent	niebieski	blue	czerwony	red	hit	n/a
152.032	n/a	RESPONSE	n/a	n/a	n/a	n/a	n/a	n/a	n/a	red
152.0567	1.0167	ITI	n/a	n/a	n/a	n/a	n/a	n/a	n/a	n/a
153.0733	0.5167	FIXCROSS	n/a	n/a	n/a	n/a	n/a	n/a	n/a	n/a
153.59	1.2667	INK	52	Neutral	xxxxxxx	xxxxxxx	czerwony	red	hit	n/a
154.8314	n/a	RESPONSE	n/a	n/a	n/a	n/a	n/a	n/a	n/a	red
154.8567	1.0167	ITI	n/a	n/a	n/a	n/a	n/a	n/a	n/a	n/a
155.8733	0.5167	FIXCROSS	n/a	n/a	n/a	n/a	n/a	n/a	n/a	n/a
156.39	0.4833	INK	53	Neutral	xxxxxxxxx	xxxxxxxxx	czerwony	red	hit	n/a
156.8469	n/a	RESPONSE	n/a	n/a	n/a	n/a	n/a	n/a	n/a	red
156.8734	1.0167	ITI	n/a	n/a	n/a	n/a	n/a	n/a	n/a	n/a
157.89	0.5167	FIXCROSS	n/a	n/a	n/a	n/a	n/a	n/a	n/a	n/a
158.4067	0.6333	INK	54	Neutral	xxxxxxxx	xxxxxxxx	niebieski	blue	hit	n/a
159.0065	n/a	RESPONSE	n/a	n/a	n/a	n/a	n/a	n/a	n/a	blue
159.04	1.0167	ITI	n/a	n/a	n/a	n/a	n/a	n/a	n/a	n/a
160.0567	0.5167	FIXCROSS	n/a	n/a	n/a	n/a	n/a	n/a	n/a	n/a
160.5734	0.65	INK	55	Neutral	xxxxxxx	xxxxxxx	żółty	yellow	hit	n/a
161.1981	n/a	RESPONSE	n/a	n/a	n/a	n/a	n/a	n/a	n/a	yellow
161.2234	1.0167	ITI	n/a	n/a	n/a	n/a	n/a	n/a	n/a	n/a
162.2401	0.5167	FIXCROSS	n/a	n/a	n/a	n/a	n/a	n/a	n/a	n/a
162.7567	0.7167	INK	56	Incongruent	zielony	green	niebieski	blue	hit	n/a
163.4536	n/a	RESPONSE	n/a	n/a	n/a	n/a	n/a	n/a	n/a	blue
163.4734	1.0167	ITI	n/a	n/a	n/a	n/a	n/a	n/a	n/a	n/a
164.4901	0.5167	FIXCROSS	n/a	n/a	n/a	n/a	n/a	n/a	n/a	n/a
165.0067	0.5333	INK	57	Neutral	xxxxx	xxxxx	czerwony	red	hit	n/a
165.5171	n/a	RESPONSE	n/a	n/a	n/a	n/a	n/a	n/a	n/a	red
165.5401	1.0167	ITI	n/a	n/a	n/a	n/a	n/a	n/a	n/a	n/a
166.5568	0.5167	FIXCROSS	n/a	n/a	n/a	n/a	n/a	n/a	n/a	n/a
167.0734	0.65	INK	58	Incongruent	niebieski	blue	żółty	yellow	hit	n/a
167.6927	n/a	RESPONSE	n/a	n/a	n/a	n/a	n/a	n/a	n/a	yellow
167.7234	1.0167	ITI	n/a	n/a	n/a	n/a	n/a	n/a	n/a	n/a
168.7401	0.5167	FIXCROSS	n/a	n/a	n/a	n/a	n/a	n/a	n/a	n/a
169.2568	0.5	INK	59	Incongruent	czerwony	red	żółty	yellow	hit	n/a
169.7243	n/a	RESPONSE	n/a	n/a	n/a	n/a	n/a	n/a	n/a	yellow
169.7568	1.0167	ITI	n/a	n/a	n/a	n/a	n/a	n/a	n/a	n/a
170.7735	0.5167	FIXCROSS	n/a	n/a	n/a	n/a	n/a	n/a	n/a	n/a
171.2901	0.7167	INK	60	Neutral	xxxxx	xxxxx	niebieski	blue	hit	n/a
171.9798	n/a	RESPONSE	n/a	n/a	n/a	n/a	n/a	n/a	n/a	blue
172.0068	1.0167	ITI	n/a	n/a	n/a	n/a	n/a	n/a	n/a	n/a
173.0235	0.5167	FIXCROSS	n/a	n/a	n/a	n/a	n/a	n/a	n/a	n/a
173.5401	0.5833	INK	61	Incongruent	zielony	green	żółty	yellow	hit	n/a
174.0914	n/a	RESPONSE	n/a	n/a	n/a	n/a	n/a	n/a	n/a	yellow
174.1235	1.0167	ITI	n/a	n/a	n/a	n/a	n/a	n/a	n/a	n/a
175.1401	0.5167	FIXCROSS	n/a	n/a	n/a	n/a	n/a	n/a	n/a	n/a
175.6568	0.55	INK	62	Incongruent	żółty	yellow	czerwony	red	hit	n/a
176.1869	n/a	RESPONSE	n/a	n/a	n/a	n/a	n/a	n/a	n/a	red
176.2068	1.0167	ITI	n/a	n/a	n/a	n/a	n/a	n/a	n/a	n/a
177.2235	0.5167	FIXCROSS	n/a	n/a	n/a	n/a	n/a	n/a	n/a	n/a
177.7402	0.6167	INK	63	Incongruent	czerwony	red	żółty	yellow	hit	n/a
178.3304	n/a	RESPONSE	n/a	n/a	n/a	n/a	n/a	n/a	n/a	yellow
178.3568	1.0167	ITI	n/a	n/a	n/a	n/a	n/a	n/a	n/a	n/a
179.3735	0.5167	FIXCROSS	n/a	n/a	n/a	n/a	n/a	n/a	n/a	n/a
179.8902	0.7333	INK	64	Neutral	xxxxxxx	xxxxxxx	niebieski	blue	hit	n/a
180.602	n/a	RESPONSE	n/a	n/a	n/a	n/a	n/a	n/a	n/a	blue
180.6235	1.0167	ITI	n/a	n/a	n/a	n/a	n/a	n/a	n/a	n/a
181.6402	0.5167	FIXCROSS	n/a	n/a	n/a	n/a	n/a	n/a	n/a	n/a
182.1569	0.5167	INK	65	Incongruent	zielony	green	czerwony	red	hit	n/a
182.6495	n/a	RESPONSE	n/a	n/a	n/a	n/a	n/a	n/a	n/a	red
182.6735	1.0167	ITI	n/a	n/a	n/a	n/a	n/a	n/a	n/a	n/a
183.6902	0.5167	FIXCROSS	n/a	n/a	n/a	n/a	n/a	n/a	n/a	n/a
184.2069	0.8167	INK	66	Incongruent	żółty	yellow	zielony	green	hit	n/a
185.001	n/a	RESPONSE	n/a	n/a	n/a	n/a	n/a	n/a	n/a	green
185.0236	1.0167	ITI	n/a	n/a	n/a	n/a	n/a	n/a	n/a	n/a
186.0402	0.5167	FIXCROSS	n/a	n/a	n/a	n/a	n/a	n/a	n/a	n/a
186.5569	0.65	INK	67	Incongruent	zielony	green	niebieski	blue	hit	n/a
187.1766	n/a	RESPONSE	n/a	n/a	n/a	n/a	n/a	n/a	n/a	blue
187.2069	1.0167	ITI	n/a	n/a	n/a	n/a	n/a	n/a	n/a	n/a
188.2236	0.5167	FIXCROSS	n/a	n/a	n/a	n/a	n/a	n/a	n/a	n/a
188.7402	0.5833	INK	68	Neutral	xxxxxxxx	xxxxxxxx	żółty	yellow	hit	n/a
189.3041	n/a	RESPONSE	n/a	n/a	n/a	n/a	n/a	n/a	n/a	yellow
189.3236	1.0167	ITI	n/a	n/a	n/a	n/a	n/a	n/a	n/a	n/a
190.3402	0.5167	FIXCROSS	n/a	n/a	n/a	n/a	n/a	n/a	n/a	n/a
190.8569	0.8	INK	69	Neutral	xxxxx	xxxxx	zielony	green	hit	n/a
191.6236	n/a	RESPONSE	n/a	n/a	n/a	n/a	n/a	n/a	n/a	green
191.6569	1.0167	ITI	n/a	n/a	n/a	n/a	n/a	n/a	n/a	n/a
192.6736	0.5167	FIXCROSS	n/a	n/a	n/a	n/a	n/a	n/a	n/a	n/a
193.1903	0.8167	INK	70	Neutral	xxxxxxx	xxxxxxx	niebieski	blue	hit	n/a
193.9752	n/a	RESPONSE	n/a	n/a	n/a	n/a	n/a	n/a	n/a	blue
194.0069	1.0167	ITI	n/a	n/a	n/a	n/a	n/a	n/a	n/a	n/a
195.0236	0.5167	FIXCROSS	n/a	n/a	n/a	n/a	n/a	n/a	n/a	n/a
195.5403	0.4833	INK	71	Neutral	xxxxxxxxx	xxxxxxxxx	czerwony	red	hit	n/a
195.9907	n/a	RESPONSE	n/a	n/a	n/a	n/a	n/a	n/a	n/a	red
196.0236	1.0167	ITI	n/a	n/a	n/a	n/a	n/a	n/a	n/a	n/a
197.0403	0.5167	FIXCROSS	n/a	n/a	n/a	n/a	n/a	n/a	n/a	n/a
197.557	0.7333	INK	72	Neutral	xxxxxxx	xxxxxxx	niebieski	blue	hit	n/a
198.2623	n/a	RESPONSE	n/a	n/a	n/a	n/a	n/a	n/a	n/a	blue
198.2903	1.0833	ITI	n/a	n/a	n/a	n/a	n/a	n/a	n/a	n/a
205.4447	n/a	RESPONSE	n/a	n/a	n/a	n/a	n/a	n/a	n/a	n/a
205.507	1.0167	ITI	n/a	n/a	n/a	n/a	n/a	n/a	n/a	n/a
206.5237	0.5167	FIXCROSS	n/a	n/a	n/a	n/a	n/a	n/a	n/a	n/a
207.0404	1.0	T_COLOR_NAME	1	Incongruent	żółty	yellow	czerwony	red	hit	n/a
208.0042	n/a	RESPONSE	n/a	n/a	n/a	n/a	n/a	n/a	n/a	yellow
208.0404	0.5167	FEEDBACK	n/a	n/a	n/a	n/a	n/a	n/a	n/a	n/a
208.557	1.0167	ITI	n/a	n/a	n/a	n/a	n/a	n/a	n/a	n/a
209.5737	0.5167	FIXCROSS	n/a	n/a	n/a	n/a	n/a	n/a	n/a	n/a
210.0904	0.8167	T_COLOR_NAME	2	Neutral	niebieski	blue	Neutral	Neutral	hit	n/a
210.8836	n/a	RESPONSE	n/a	n/a	n/a	n/a	n/a	n/a	n/a	blue
210.9071	0.5167	FEEDBACK	n/a	n/a	n/a	n/a	n/a	n/a	n/a	n/a
211.4237	1.0167	ITI	n/a	n/a	n/a	n/a	n/a	n/a	n/a	n/a
212.4404	0.5167	FIXCROSS	n/a	n/a	n/a	n/a	n/a	n/a	n/a	n/a
212.9571	0.9333	T_COLOR_NAME	3	Incongruent	niebieski	blue	żółty	yellow	hit	n/a
213.859	n/a	RESPONSE	n/a	n/a	n/a	n/a	n/a	n/a	n/a	blue
213.8904	0.5167	FEEDBACK	n/a	n/a	n/a	n/a	n/a	n/a	n/a	n/a
214.4071	1.0167	ITI	n/a	n/a	n/a	n/a	n/a	n/a	n/a	n/a
215.4238	0.5167	FIXCROSS	n/a	n/a	n/a	n/a	n/a	n/a	n/a	n/a
215.9404	0.8667	T_COLOR_NAME	4	Neutral	żółty	yellow	Neutral	Neutral	hit	n/a
216.7864	n/a	RESPONSE	n/a	n/a	n/a	n/a	n/a	n/a	n/a	yellow
216.8071	0.5167	FEEDBACK	n/a	n/a	n/a	n/a	n/a	n/a	n/a	n/a
217.3238	1.0167	ITI	n/a	n/a	n/a	n/a	n/a	n/a	n/a	n/a
218.3404	0.5167	FIXCROSS	n/a	n/a	n/a	n/a	n/a	n/a	n/a	n/a
218.8571	1.1667	T_COLOR_NAME	5	Incongruent	niebieski	blue	czerwony	red	hit	n/a
220.0017	n/a	RESPONSE	n/a	n/a	n/a	n/a	n/a	n/a	n/a	blue
220.0238	0.5167	FEEDBACK	n/a	n/a	n/a	n/a	n/a	n/a	n/a	n/a
220.5405	1.0167	ITI	n/a	n/a	n/a	n/a	n/a	n/a	n/a	n/a
221.5571	0.5167	FIXCROSS	n/a	n/a	n/a	n/a	n/a	n/a	n/a	n/a
222.0738	0.85	T_COLOR_NAME	6	Incongruent	niebieski	blue	zielony	green	hit	n/a
222.897	n/a	RESPONSE	n/a	n/a	n/a	n/a	n/a	n/a	n/a	blue
222.9238	0.5167	FEEDBACK	n/a	n/a	n/a	n/a	n/a	n/a	n/a	n/a
223.4405	1.0167	ITI	n/a	n/a	n/a	n/a	n/a	n/a	n/a	n/a
224.4572	0.5167	FIXCROSS	n/a	n/a	n/a	n/a	n/a	n/a	n/a	n/a
224.9738	0.6167	T_COLOR_NAME	7	Neutral	czerwony	red	Neutral	Neutral	hit	n/a
225.5685	n/a	RESPONSE	n/a	n/a	n/a	n/a	n/a	n/a	n/a	red
225.5905	0.5167	FEEDBACK	n/a	n/a	n/a	n/a	n/a	n/a	n/a	n/a
226.1072	1.0167	ITI	n/a	n/a	n/a	n/a	n/a	n/a	n/a	n/a
227.1238	0.5104	FIXCROSS	n/a	n/a	n/a	n/a	n/a	n/a	n/a	n/a
227.6342	0.7896	T_COLOR_NAME	8	Incongruent	czerwony	red	zielony	green	hit	n/a
228.3999	n/a	RESPONSE	n/a	n/a	n/a	n/a	n/a	n/a	n/a	red
228.4238	0.5167	FEEDBACK	n/a	n/a	n/a	n/a	n/a	n/a	n/a	n/a
228.9405	1.0167	ITI	n/a	n/a	n/a	n/a	n/a	n/a	n/a	n/a
229.9572	0.5167	FIXCROSS	n/a	n/a	n/a	n/a	n/a	n/a	n/a	n/a
230.4739	0.9167	T_COLOR_NAME	9	Incongruent	żółty	yellow	niebieski	blue	hit	n/a
231.3593	n/a	RESPONSE	n/a	n/a	n/a	n/a	n/a	n/a	n/a	yellow
231.3905	0.5167	FEEDBACK	n/a	n/a	n/a	n/a	n/a	n/a	n/a	n/a
231.9072	1.0167	ITI	n/a	n/a	n/a	n/a	n/a	n/a	n/a	n/a
232.9239	0.5167	FIXCROSS	n/a	n/a	n/a	n/a	n/a	n/a	n/a	n/a
233.4405	0.4833	T_COLOR_NAME	10	Incongruent	zielony	green	czerwony	red	hit	n/a
233.9027	n/a	RESPONSE	n/a	n/a	n/a	n/a	n/a	n/a	n/a	green
233.9239	0.5167	FEEDBACK	n/a	n/a	n/a	n/a	n/a	n/a	n/a	n/a
234.4406	1.0167	ITI	n/a	n/a	n/a	n/a	n/a	n/a	n/a	n/a
235.4572	0.5167	FIXCROSS	n/a	n/a	n/a	n/a	n/a	n/a	n/a	n/a
235.9739	0.6833	T_COLOR_NAME	11	Incongruent	zielony	green	niebieski	blue	hit	n/a
236.6222	n/a	RESPONSE	n/a	n/a	n/a	n/a	n/a	n/a	n/a	green
236.6572	0.5167	FEEDBACK	n/a	n/a	n/a	n/a	n/a	n/a	n/a	n/a
237.1739	1.0167	ITI	n/a	n/a	n/a	n/a	n/a	n/a	n/a	n/a
238.1906	0.5167	FIXCROSS	n/a	n/a	n/a	n/a	n/a	n/a	n/a	n/a
238.7072	0.7167	T_COLOR_NAME	12	Neutral	zielony	green	Neutral	Neutral	hit	n/a
239.3896	n/a	RESPONSE	n/a	n/a	n/a	n/a	n/a	n/a	n/a	green
239.4239	0.5167	FEEDBACK	n/a	n/a	n/a	n/a	n/a	n/a	n/a	n/a
239.9406	1.0333	ITI	n/a	n/a	n/a	n/a	n/a	n/a	n/a	n/a
241.997	n/a	RESPONSE	n/a	n/a	n/a	n/a	n/a	n/a	n/a	n/a
242.0573	1.0167	ITI	n/a	n/a	n/a	n/a	n/a	n/a	n/a	n/a
243.0739	0.5167	FIXCROSS	n/a	n/a	n/a	n/a	n/a	n/a	n/a	n/a
243.5906	1.7333	COLOR_NAME	1	Incongruent	niebieski	blue	zielony	green	hit	n/a
245.2923	n/a	RESPONSE	n/a	n/a	n/a	n/a	n/a	n/a	n/a	blue
245.324	1.0167	ITI	n/a	n/a	n/a	n/a	n/a	n/a	n/a	n/a
246.3406	0.5167	FIXCROSS	n/a	n/a	n/a	n/a	n/a	n/a	n/a	n/a
246.8573	0.85	COLOR_NAME	2	Incongruent	niebieski	blue	czerwony	red	hit	n/a
247.6758	n/a	RESPONSE	n/a	n/a	n/a	n/a	n/a	n/a	n/a	blue
247.7073	1.0167	ITI	n/a	n/a	n/a	n/a	n/a	n/a	n/a	n/a
248.724	0.5167	FIXCROSS	n/a	n/a	n/a	n/a	n/a	n/a	n/a	n/a
249.2407	0.6333	COLOR_NAME	3	Neutral	niebieski	blue	Neutral	Neutral	hit	n/a
249.8514	n/a	RESPONSE	n/a	n/a	n/a	n/a	n/a	n/a	n/a	blue
249.874	1.0167	ITI	n/a	n/a	n/a	n/a	n/a	n/a	n/a	n/a
250.8907	0.5167	FIXCROSS	n/a	n/a	n/a	n/a	n/a	n/a	n/a	n/a
251.4073	0.6834	COLOR_NAME	4	Neutral	niebieski	blue	Neutral	Neutral	hit	n/a
252.0589	n/a	RESPONSE	n/a	n/a	n/a	n/a	n/a	n/a	n/a	blue
252.0907	1.0167	ITI	n/a	n/a	n/a	n/a	n/a	n/a	n/a	n/a
253.1073	0.5167	FIXCROSS	n/a	n/a	n/a	n/a	n/a	n/a	n/a	n/a
253.624	1.2667	COLOR_NAME	5	Neutral	zielony	green	Neutral	Neutral	hit	n/a
254.8583	n/a	RESPONSE	n/a	n/a	n/a	n/a	n/a	n/a	n/a	green
254.8907	1.0167	ITI	n/a	n/a	n/a	n/a	n/a	n/a	n/a	n/a
255.9074	0.5167	FIXCROSS	n/a	n/a	n/a	n/a	n/a	n/a	n/a	n/a
256.424	0.75	COLOR_NAME	6	Incongruent	żółty	yellow	czerwony	red	hit	n/a
257.1458	n/a	RESPONSE	n/a	n/a	n/a	n/a	n/a	n/a	n/a	yellow
257.1741	1.0167	ITI	n/a	n/a	n/a	n/a	n/a	n/a	n/a	n/a
258.1907	0.5167	FIXCROSS	n/a	n/a	n/a	n/a	n/a	n/a	n/a	n/a
258.7074	0.7667	COLOR_NAME	7	Neutral	czerwony	red	Neutral	Neutral	hit	n/a
259.4493	n/a	RESPONSE	n/a	n/a	n/a	n/a	n/a	n/a	n/a	red
259.4741	1.0167	ITI	n/a	n/a	n/a	n/a	n/a	n/a	n/a	n/a
260.4907	0.5167	FIXCROSS	n/a	n/a	n/a	n/a	n/a	n/a	n/a	n/a
261.0074	1.05	COLOR_NAME	8	Neutral	żółty	yellow	Neutral	Neutral	hit	n/a
262.0248	n/a	RESPONSE	n/a	n/a	n/a	n/a	n/a	n/a	n/a	yellow
262.0574	1.0167	ITI	n/a	n/a	n/a	n/a	n/a	n/a	n/a	n/a
263.0741	0.5167	FIXCROSS	n/a	n/a	n/a	n/a	n/a	n/a	n/a	n/a
263.5908	0.8167	COLOR_NAME	9	Neutral	niebieski	blue	Neutral	Neutral	hit	n/a
264.3763	n/a	RESPONSE	n/a	n/a	n/a	n/a	n/a	n/a	n/a	blue
264.4074	1.0167	ITI	n/a	n/a	n/a	n/a	n/a	n/a	n/a	n/a
265.4241	0.5167	FIXCROSS	n/a	n/a	n/a	n/a	n/a	n/a	n/a	n/a
265.9408	0.65	COLOR_NAME	10	Neutral	czerwony	red	Neutral	Neutral	hit	n/a
266.5678	n/a	RESPONSE	n/a	n/a	n/a	n/a	n/a	n/a	n/a	red
266.5908	1.0167	ITI	n/a	n/a	n/a	n/a	n/a	n/a	n/a	n/a
267.6074	0.5167	FIXCROSS	n/a	n/a	n/a	n/a	n/a	n/a	n/a	n/a
268.1241	0.8333	COLOR_NAME	11	Incongruent	żółty	yellow	zielony	green	hit	n/a
268.9353	n/a	RESPONSE	n/a	n/a	n/a	n/a	n/a	n/a	n/a	yellow
268.9575	1.0167	ITI	n/a	n/a	n/a	n/a	n/a	n/a	n/a	n/a
269.9741	0.5167	FIXCROSS	n/a	n/a	n/a	n/a	n/a	n/a	n/a	n/a
270.4908	0.8667	COLOR_NAME	12	Incongruent	żółty	yellow	niebieski	blue	hit	n/a
271.3348	n/a	RESPONSE	n/a	n/a	n/a	n/a	n/a	n/a	n/a	yellow
271.3575	1.0167	ITI	n/a	n/a	n/a	n/a	n/a	n/a	n/a	n/a
272.3741	0.5167	FIXCROSS	n/a	n/a	n/a	n/a	n/a	n/a	n/a	n/a
272.8908	0.5167	COLOR_NAME	13	Neutral	żółty	yellow	Neutral	Neutral	hit	n/a
273.3824	n/a	RESPONSE	n/a	n/a	n/a	n/a	n/a	n/a	n/a	yellow
273.4075	1.0167	ITI	n/a	n/a	n/a	n/a	n/a	n/a	n/a	n/a
274.4242	0.5167	FIXCROSS	n/a	n/a	n/a	n/a	n/a	n/a	n/a	n/a
274.9408	0.5333	COLOR_NAME	14	Incongruent	żółty	yellow	zielony	green	hit	n/a
275.446	n/a	RESPONSE	n/a	n/a	n/a	n/a	n/a	n/a	n/a	yellow
275.4742	1.0167	ITI	n/a	n/a	n/a	n/a	n/a	n/a	n/a	n/a
276.4908	0.5167	FIXCROSS	n/a	n/a	n/a	n/a	n/a	n/a	n/a	n/a
277.0075	0.8833	COLOR_NAME	15	Incongruent	niebieski	blue	czerwony	red	hit	n/a
277.8615	n/a	RESPONSE	n/a	n/a	n/a	n/a	n/a	n/a	n/a	blue
277.8909	1.0167	ITI	n/a	n/a	n/a	n/a	n/a	n/a	n/a	n/a
278.9075	0.5167	FIXCROSS	n/a	n/a	n/a	n/a	n/a	n/a	n/a	n/a
279.4242	0.7167	COLOR_NAME	16	Neutral	czerwony	red	Neutral	Neutral	hit	n/a
280.117	n/a	RESPONSE	n/a	n/a	n/a	n/a	n/a	n/a	n/a	red
280.1409	1.0167	ITI	n/a	n/a	n/a	n/a	n/a	n/a	n/a	n/a
281.1576	0.5167	FIXCROSS	n/a	n/a	n/a	n/a	n/a	n/a	n/a	n/a
281.6742	0.6833	COLOR_NAME	17	Neutral	żółty	yellow	Neutral	Neutral	hit	n/a
282.3245	n/a	RESPONSE	n/a	n/a	n/a	n/a	n/a	n/a	n/a	yellow
282.3576	1.0167	ITI	n/a	n/a	n/a	n/a	n/a	n/a	n/a	n/a
283.3742	0.5167	FIXCROSS	n/a	n/a	n/a	n/a	n/a	n/a	n/a	n/a
283.8909	0.6333	COLOR_NAME	18	Incongruent	zielony	green	niebieski	blue	hit	n/a
284.5001	n/a	RESPONSE	n/a	n/a	n/a	n/a	n/a	n/a	n/a	green
284.5242	1.0167	ITI	n/a	n/a	n/a	n/a	n/a	n/a	n/a	n/a
285.5409	0.5167	FIXCROSS	n/a	n/a	n/a	n/a	n/a	n/a	n/a	n/a
286.0576	0.7833	COLOR_NAME	19	Incongruent	niebieski	blue	zielony	green	hit	n/a
286.8196	n/a	RESPONSE	n/a	n/a	n/a	n/a	n/a	n/a	n/a	blue
286.8409	1.0167	ITI	n/a	n/a	n/a	n/a	n/a	n/a	n/a	n/a
287.8576	0.5167	FIXCROSS	n/a	n/a	n/a	n/a	n/a	n/a	n/a	n/a
288.3743	0.8167	COLOR_NAME	20	Incongruent	zielony	green	niebieski	blue	hit	n/a
289.1711	n/a	RESPONSE	n/a	n/a	n/a	n/a	n/a	n/a	n/a	green
289.1909	1.0167	ITI	n/a	n/a	n/a	n/a	n/a	n/a	n/a	n/a
290.2076	0.5167	FIXCROSS	n/a	n/a	n/a	n/a	n/a	n/a	n/a	n/a
290.7243	0.7667	COLOR_NAME	21	Incongruent	czerwony	red	żółty	yellow	hit	n/a
291.4586	n/a	RESPONSE	n/a	n/a	n/a	n/a	n/a	n/a	n/a	red
291.491	1.0167	ITI	n/a	n/a	n/a	n/a	n/a	n/a	n/a	n/a
292.5076	0.5167	FIXCROSS	n/a	n/a	n/a	n/a	n/a	n/a	n/a	n/a
293.0243	0.6	COLOR_NAME	22	Neutral	żółty	yellow	Neutral	Neutral	hit	n/a
293.6022	n/a	RESPONSE	n/a	n/a	n/a	n/a	n/a	n/a	n/a	yellow
293.6243	1.0167	ITI	n/a	n/a	n/a	n/a	n/a	n/a	n/a	n/a
294.641	0.5167	FIXCROSS	n/a	n/a	n/a	n/a	n/a	n/a	n/a	n/a
295.1576	0.5333	COLOR_NAME	23	Neutral	żółty	yellow	Neutral	Neutral	hit	n/a
295.6657	n/a	RESPONSE	n/a	n/a	n/a	n/a	n/a	n/a	n/a	yellow
295.691	1.0167	ITI	n/a	n/a	n/a	n/a	n/a	n/a	n/a	n/a
296.7077	0.5167	FIXCROSS	n/a	n/a	n/a	n/a	n/a	n/a	n/a	n/a
297.2243	0.7167	COLOR_NAME	24	Neutral	czerwony	red	Neutral	Neutral	hit	n/a
297.9212	n/a	RESPONSE	n/a	n/a	n/a	n/a	n/a	n/a	n/a	red
297.941	1.0167	ITI	n/a	n/a	n/a	n/a	n/a	n/a	n/a	n/a
298.9577	0.5167	FIXCROSS	n/a	n/a	n/a	n/a	n/a	n/a	n/a	n/a
299.4743	2.0	COLOR_NAME	25	Neutral	zielony	green	Neutral	Neutral	hit	n/a
301.4565	n/a	RESPONSE	n/a	n/a	n/a	n/a	n/a	n/a	n/a	green
301.4743	1.0167	ITI	n/a	n/a	n/a	n/a	n/a	n/a	n/a	n/a
302.491	0.5167	FIXCROSS	n/a	n/a	n/a	n/a	n/a	n/a	n/a	n/a
303.0077	0.65	COLOR_NAME	26	Neutral	zielony	green	Neutral	Neutral	hit	n/a
303.632	n/a	RESPONSE	n/a	n/a	n/a	n/a	n/a	n/a	n/a	green
303.6577	1.0167	ITI	n/a	n/a	n/a	n/a	n/a	n/a	n/a	n/a
304.6744	0.5167	FIXCROSS	n/a	n/a	n/a	n/a	n/a	n/a	n/a	n/a
305.191	0.65	COLOR_NAME	27	Neutral	czerwony	red	Neutral	Neutral	hit	n/a
305.8076	n/a	RESPONSE	n/a	n/a	n/a	n/a	n/a	n/a	n/a	red
305.841	1.0167	ITI	n/a	n/a	n/a	n/a	n/a	n/a	n/a	n/a
306.8577	0.5167	FIXCROSS	n/a	n/a	n/a	n/a	n/a	n/a	n/a	n/a
307.3744	0.7667	COLOR_NAME	28	Incongruent	żółty	yellow	zielony	green	hit	n/a
308.1111	n/a	RESPONSE	n/a	n/a	n/a	n/a	n/a	n/a	n/a	yellow
308.1411	1.0167	ITI	n/a	n/a	n/a	n/a	n/a	n/a	n/a	n/a
309.1577	0.5167	FIXCROSS	n/a	n/a	n/a	n/a	n/a	n/a	n/a	n/a
309.6744	0.75	COLOR_NAME	29	Incongruent	żółty	yellow	niebieski	blue	hit	n/a
310.3986	n/a	RESPONSE	n/a	n/a	n/a	n/a	n/a	n/a	n/a	yellow
310.4244	1.0167	ITI	n/a	n/a	n/a	n/a	n/a	n/a	n/a	n/a
311.4411	0.5167	FIXCROSS	n/a	n/a	n/a	n/a	n/a	n/a	n/a	n/a
311.9578	0.6667	COLOR_NAME	30	Neutral	czerwony	red	Neutral	Neutral	hit	n/a
312.6062	n/a	RESPONSE	n/a	n/a	n/a	n/a	n/a	n/a	n/a	red
312.6244	1.0167	ITI	n/a	n/a	n/a	n/a	n/a	n/a	n/a	n/a
313.6411	0.5167	FIXCROSS	n/a	n/a	n/a	n/a	n/a	n/a	n/a	n/a
314.1578	0.8333	COLOR_NAME	31	Neutral	niebieski	blue	Neutral	Neutral	hit	n/a
314.9737	n/a	RESPONSE	n/a	n/a	n/a	n/a	n/a	n/a	n/a	blue
314.9911	1.0167	ITI	n/a	n/a	n/a	n/a	n/a	n/a	n/a	n/a
316.0078	0.5167	FIXCROSS	n/a	n/a	n/a	n/a	n/a	n/a	n/a	n/a
316.5245	1.2	COLOR_NAME	32	Incongruent	czerwony	red	żółty	yellow	hit	n/a
317.6931	n/a	RESPONSE	n/a	n/a	n/a	n/a	n/a	n/a	n/a	red
317.7245	1.0167	ITI	n/a	n/a	n/a	n/a	n/a	n/a	n/a	n/a
318.7411	0.5167	FIXCROSS	n/a	n/a	n/a	n/a	n/a	n/a	n/a	n/a
319.2578	0.8167	COLOR_NAME	33	Incongruent	żółty	yellow	niebieski	blue	hit	n/a
320.0446	n/a	RESPONSE	n/a	n/a	n/a	n/a	n/a	n/a	n/a	yellow
320.0745	1.0167	ITI	n/a	n/a	n/a	n/a	n/a	n/a	n/a	n/a
321.0911	0.5167	FIXCROSS	n/a	n/a	n/a	n/a	n/a	n/a	n/a	n/a
321.6078	1.0	COLOR_NAME	34	Incongruent	zielony	green	czerwony	red	hit	n/a
322.5721	n/a	RESPONSE	n/a	n/a	n/a	n/a	n/a	n/a	n/a	green
322.6078	1.0167	ITI	n/a	n/a	n/a	n/a	n/a	n/a	n/a	n/a
323.6245	0.5167	FIXCROSS	n/a	n/a	n/a	n/a	n/a	n/a	n/a	n/a
324.1412	0.6333	COLOR_NAME	35	Incongruent	zielony	green	żółty	yellow	hit	n/a
324.7476	n/a	RESPONSE	n/a	n/a	n/a	n/a	n/a	n/a	n/a	green
324.7745	1.0167	ITI	n/a	n/a	n/a	n/a	n/a	n/a	n/a	n/a
325.7912	0.5167	FIXCROSS	n/a	n/a	n/a	n/a	n/a	n/a	n/a	n/a
326.3079	0.6667	COLOR_NAME	36	Incongruent	żółty	yellow	czerwony	red	hit	n/a
326.9551	n/a	RESPONSE	n/a	n/a	n/a	n/a	n/a	n/a	n/a	yellow
326.9745	1.0167	ITI	n/a	n/a	n/a	n/a	n/a	n/a	n/a	n/a
327.9912	0.5167	FIXCROSS	n/a	n/a	n/a	n/a	n/a	n/a	n/a	n/a
328.5079	1.1834	COLOR_NAME	37	Neutral	zielony	green	Neutral	Neutral	hit	n/a
329.6585	n/a	RESPONSE	n/a	n/a	n/a	n/a	n/a	n/a	n/a	green
329.6912	1.0167	ITI	n/a	n/a	n/a	n/a	n/a	n/a	n/a	n/a
330.7079	0.5167	FIXCROSS	n/a	n/a	n/a	n/a	n/a	n/a	n/a	n/a
331.2246	1.2333	COLOR_NAME	38	Incongruent	niebieski	blue	zielony	green	hit	n/a
332.426	n/a	RESPONSE	n/a	n/a	n/a	n/a	n/a	n/a	n/a	blue
332.4579	1.0167	ITI	n/a	n/a	n/a	n/a	n/a	n/a	n/a	n/a
333.4746	0.5167	FIXCROSS	n/a	n/a	n/a	n/a	n/a	n/a	n/a	n/a
333.9912	0.9167	COLOR_NAME	39	Incongruent	zielony	green	niebieski	blue	hit	n/a
334.8895	n/a	RESPONSE	n/a	n/a	n/a	n/a	n/a	n/a	n/a	green
334.9079	1.0167	ITI	n/a	n/a	n/a	n/a	n/a	n/a	n/a	n/a
335.9246	0.5167	FIXCROSS	n/a	n/a	n/a	n/a	n/a	n/a	n/a	n/a
336.4413	0.65	COLOR_NAME	40	Incongruent	czerwony	red	niebieski	blue	hit	n/a
337.065	n/a	RESPONSE	n/a	n/a	n/a	n/a	n/a	n/a	n/a	red
337.0913	1.0167	ITI	n/a	n/a	n/a	n/a	n/a	n/a	n/a	n/a
338.1079	0.5167	FIXCROSS	n/a	n/a	n/a	n/a	n/a	n/a	n/a	n/a
338.6246	1.2	COLOR_NAME	41	Incongruent	niebieski	blue	żółty	yellow	hit	n/a
339.8004	n/a	RESPONSE	n/a	n/a	n/a	n/a	n/a	n/a	n/a	blue
339.8246	1.0167	ITI	n/a	n/a	n/a	n/a	n/a	n/a	n/a	n/a
340.8413	0.5167	FIXCROSS	n/a	n/a	n/a	n/a	n/a	n/a	n/a	n/a
341.3579	0.8	COLOR_NAME	42	Incongruent	zielony	green	żółty	yellow	hit	n/a
342.1359	n/a	RESPONSE	n/a	n/a	n/a	n/a	n/a	n/a	n/a	green
342.158	1.0167	ITI	n/a	n/a	n/a	n/a	n/a	n/a	n/a	n/a
343.1746	0.5167	FIXCROSS	n/a	n/a	n/a	n/a	n/a	n/a	n/a	n/a
343.6913	0.9	COLOR_NAME	43	Neutral	niebieski	blue	Neutral	Neutral	hit	n/a
344.5674	n/a	RESPONSE	n/a	n/a	n/a	n/a	n/a	n/a	n/a	blue
344.5913	1.0167	ITI	n/a	n/a	n/a	n/a	n/a	n/a	n/a	n/a
345.608	0.5167	FIXCROSS	n/a	n/a	n/a	n/a	n/a	n/a	n/a	n/a
346.1246	0.6333	COLOR_NAME	44	Neutral	zielony	green	Neutral	Neutral	hit	n/a
346.727	n/a	RESPONSE	n/a	n/a	n/a	n/a	n/a	n/a	n/a	green
346.758	1.0167	ITI	n/a	n/a	n/a	n/a	n/a	n/a	n/a	n/a
347.7747	0.5167	FIXCROSS	n/a	n/a	n/a	n/a	n/a	n/a	n/a	n/a
348.2913	0.85	COLOR_NAME	45	Incongruent	czerwony	red	niebieski	blue	hit	n/a
349.1105	n/a	RESPONSE	n/a	n/a	n/a	n/a	n/a	n/a	n/a	red
349.1413	1.0167	ITI	n/a	n/a	n/a	n/a	n/a	n/a	n/a	n/a
350.158	0.5167	FIXCROSS	n/a	n/a	n/a	n/a	n/a	n/a	n/a	n/a
350.6747	1.0333	COLOR_NAME	46	Incongruent	czerwony	red	zielony	green	hit	n/a
351.6859	n/a	RESPONSE	n/a	n/a	n/a	n/a	n/a	n/a	n/a	red
351.708	1.0167	ITI	n/a	n/a	n/a	n/a	n/a	n/a	n/a	n/a
352.7247	0.5167	FIXCROSS	n/a	n/a	n/a	n/a	n/a	n/a	n/a	n/a
353.2414	0.9833	COLOR_NAME	47	Incongruent	niebieski	blue	żółty	yellow	hit	n/a
354.1974	n/a	RESPONSE	n/a	n/a	n/a	n/a	n/a	n/a	n/a	blue
354.2247	1.0167	ITI	n/a	n/a	n/a	n/a	n/a	n/a	n/a	n/a
355.2414	0.5167	FIXCROSS	n/a	n/a	n/a	n/a	n/a	n/a	n/a	n/a
355.758	0.9333	COLOR_NAME	48	Incongruent	czerwony	red	zielony	green	hit	n/a
356.6609	n/a	RESPONSE	n/a	n/a	n/a	n/a	n/a	n/a	n/a	red
356.6914	1.0167	ITI	n/a	n/a	n/a	n/a	n/a	n/a	n/a	n/a
357.7081	0.5167	FIXCROSS	n/a	n/a	n/a	n/a	n/a	n/a	n/a	n/a
358.2247	0.7333	COLOR_NAME	49	Neutral	zielony	green	Neutral	Neutral	hit	n/a
358.9324	n/a	RESPONSE	n/a	n/a	n/a	n/a	n/a	n/a	n/a	green
358.9581	1.0167	ITI	n/a	n/a	n/a	n/a	n/a	n/a	n/a	n/a
359.9747	0.5167	FIXCROSS	n/a	n/a	n/a	n/a	n/a	n/a	n/a	n/a
360.4914	0.9333	COLOR_NAME	50	Incongruent	niebieski	blue	żółty	yellow	hit	n/a
361.3959	n/a	RESPONSE	n/a	n/a	n/a	n/a	n/a	n/a	n/a	blue
361.4248	1.0167	ITI	n/a	n/a	n/a	n/a	n/a	n/a	n/a	n/a
362.4414	0.5167	FIXCROSS	n/a	n/a	n/a	n/a	n/a	n/a	n/a	n/a
362.9581	0.8	COLOR_NAME	51	Incongruent	niebieski	blue	czerwony	red	hit	n/a
363.7314	n/a	RESPONSE	n/a	n/a	n/a	n/a	n/a	n/a	n/a	blue
363.7581	1.0167	ITI	n/a	n/a	n/a	n/a	n/a	n/a	n/a	n/a
364.7748	0.5167	FIXCROSS	n/a	n/a	n/a	n/a	n/a	n/a	n/a	n/a
365.2914	0.5	COLOR_NAME	52	Incongruent	żółty	yellow	czerwony	red	hit	n/a
365.7629	n/a	RESPONSE	n/a	n/a	n/a	n/a	n/a	n/a	n/a	yellow
365.7915	1.0167	ITI	n/a	n/a	n/a	n/a	n/a	n/a	n/a	n/a
366.8081	0.5167	FIXCROSS	n/a	n/a	n/a	n/a	n/a	n/a	n/a	n/a
367.3248	0.6	COLOR_NAME	53	Incongruent	czerwony	red	zielony	green	hit	n/a
367.9065	n/a	RESPONSE	n/a	n/a	n/a	n/a	n/a	n/a	n/a	red
367.9248	1.0167	ITI	n/a	n/a	n/a	n/a	n/a	n/a	n/a	n/a
368.9415	0.5167	FIXCROSS	n/a	n/a	n/a	n/a	n/a	n/a	n/a	n/a
369.4581	0.6333	COLOR_NAME	54	Incongruent	czerwony	red	niebieski	blue	hit	n/a
370.0661	n/a	RESPONSE	n/a	n/a	n/a	n/a	n/a	n/a	n/a	red
370.0915	1.0167	ITI	n/a	n/a	n/a	n/a	n/a	n/a	n/a	n/a
371.1082	0.5167	FIXCROSS	n/a	n/a	n/a	n/a	n/a	n/a	n/a	n/a
371.6248	0.85	COLOR_NAME	55	Neutral	czerwony	red	Neutral	Neutral	hit	n/a
372.4496	n/a	RESPONSE	n/a	n/a	n/a	n/a	n/a	n/a	n/a	red
372.4748	1.0167	ITI	n/a	n/a	n/a	n/a	n/a	n/a	n/a	n/a
373.4915	0.5167	FIXCROSS	n/a	n/a	n/a	n/a	n/a	n/a	n/a	n/a
374.0082	0.65	COLOR_NAME	56	Incongruent	czerwony	red	żółty	yellow	hit	n/a
374.6251	n/a	RESPONSE	n/a	n/a	n/a	n/a	n/a	n/a	n/a	red
374.6582	1.0167	ITI	n/a	n/a	n/a	n/a	n/a	n/a	n/a	n/a
375.6749	0.5167	FIXCROSS	n/a	n/a	n/a	n/a	n/a	n/a	n/a	n/a
376.1915	0.7167	COLOR_NAME	57	Incongruent	zielony	green	czerwony	red	hit	n/a
376.8806	n/a	RESPONSE	n/a	n/a	n/a	n/a	n/a	n/a	n/a	green
376.9082	1.0167	ITI	n/a	n/a	n/a	n/a	n/a	n/a	n/a	n/a
377.9249	0.5167	FIXCROSS	n/a	n/a	n/a	n/a	n/a	n/a	n/a	n/a
378.4415	0.6	COLOR_NAME	58	Neutral	czerwony	red	Neutral	Neutral	hit	n/a
379.0082	n/a	RESPONSE	n/a	n/a	n/a	n/a	n/a	n/a	n/a	red
379.0415	1.0167	ITI	n/a	n/a	n/a	n/a	n/a	n/a	n/a	n/a
380.0582	0.5167	FIXCROSS	n/a	n/a	n/a	n/a	n/a	n/a	n/a	n/a
380.5749	0.7833	COLOR_NAME	59	Neutral	niebieski	blue	Neutral	Neutral	hit	n/a
381.3277	n/a	RESPONSE	n/a	n/a	n/a	n/a	n/a	n/a	n/a	blue
381.3582	1.0167	ITI	n/a	n/a	n/a	n/a	n/a	n/a	n/a	n/a
382.3749	0.5167	FIXCROSS	n/a	n/a	n/a	n/a	n/a	n/a	n/a	n/a
382.8916	1.1333	COLOR_NAME	60	Neutral	żółty	yellow	Neutral	Neutral	hit	n/a
383.9991	n/a	RESPONSE	n/a	n/a	n/a	n/a	n/a	n/a	n/a	yellow
384.0249	1.0167	ITI	n/a	n/a	n/a	n/a	n/a	n/a	n/a	n/a
385.0416	0.5167	FIXCROSS	n/a	n/a	n/a	n/a	n/a	n/a	n/a	n/a
385.5583	0.65	COLOR_NAME	61	Neutral	czerwony	red	Neutral	Neutral	hit	n/a
386.1746	n/a	RESPONSE	n/a	n/a	n/a	n/a	n/a	n/a	n/a	red
386.2083	1.0167	ITI	n/a	n/a	n/a	n/a	n/a	n/a	n/a	n/a
387.2249	0.5167	FIXCROSS	n/a	n/a	n/a	n/a	n/a	n/a	n/a	n/a
387.7416	0.7333	COLOR_NAME	62	Neutral	zielony	green	Neutral	Neutral	hit	n/a
388.4462	n/a	RESPONSE	n/a	n/a	n/a	n/a	n/a	n/a	n/a	green
388.4749	1.0167	ITI	n/a	n/a	n/a	n/a	n/a	n/a	n/a	n/a
389.4916	0.5167	FIXCROSS	n/a	n/a	n/a	n/a	n/a	n/a	n/a	n/a
390.0083	0.7167	COLOR_NAME	63	Neutral	żółty	yellow	Neutral	Neutral	hit	n/a
390.7017	n/a	RESPONSE	n/a	n/a	n/a	n/a	n/a	n/a	n/a	yellow
390.725	1.0167	ITI	n/a	n/a	n/a	n/a	n/a	n/a	n/a	n/a
391.7416	0.5167	FIXCROSS	n/a	n/a	n/a	n/a	n/a	n/a	n/a	n/a
392.2583	0.6667	COLOR_NAME	64	Neutral	żółty	yellow	Neutral	Neutral	hit	n/a
392.8932	n/a	RESPONSE	n/a	n/a	n/a	n/a	n/a	n/a	n/a	yellow
392.925	1.0167	ITI	n/a	n/a	n/a	n/a	n/a	n/a	n/a	n/a
393.9416	0.5167	FIXCROSS	n/a	n/a	n/a	n/a	n/a	n/a	n/a	n/a
394.4583	0.5	COLOR_NAME	65	Neutral	żółty	yellow	Neutral	Neutral	hit	n/a
394.9408	n/a	RESPONSE	n/a	n/a	n/a	n/a	n/a	n/a	n/a	yellow
394.9583	1.0167	ITI	n/a	n/a	n/a	n/a	n/a	n/a	n/a	n/a
395.975	0.5167	FIXCROSS	n/a	n/a	n/a	n/a	n/a	n/a	n/a	n/a
396.4917	0.85	COLOR_NAME	66	Neutral	niebieski	blue	Neutral	Neutral	hit	n/a
397.3243	n/a	RESPONSE	n/a	n/a	n/a	n/a	n/a	n/a	n/a	blue
397.3417	1.0167	ITI	n/a	n/a	n/a	n/a	n/a	n/a	n/a	n/a
398.3583	0.5167	FIXCROSS	n/a	n/a	n/a	n/a	n/a	n/a	n/a	n/a
398.875	1.0167	COLOR_NAME	67	Neutral	zielony	green	Neutral	Neutral	hit	n/a
399.8678	n/a	RESPONSE	n/a	n/a	n/a	n/a	n/a	n/a	n/a	green
399.8917	1.0167	ITI	n/a	n/a	n/a	n/a	n/a	n/a	n/a	n/a
400.9084	0.5167	FIXCROSS	n/a	n/a	n/a	n/a	n/a	n/a	n/a	n/a
401.425	0.8833	COLOR_NAME	68	Neutral	niebieski	blue	Neutral	Neutral	hit	n/a
402.2833	n/a	RESPONSE	n/a	n/a	n/a	n/a	n/a	n/a	n/a	blue
402.3084	1.0167	ITI	n/a	n/a	n/a	n/a	n/a	n/a	n/a	n/a
403.325	0.5167	FIXCROSS	n/a	n/a	n/a	n/a	n/a	n/a	n/a	n/a
403.8417	0.8667	COLOR_NAME	69	Incongruent	zielony	green	żółty	yellow	hit	n/a
404.6827	n/a	RESPONSE	n/a	n/a	n/a	n/a	n/a	n/a	n/a	green
404.7084	1.0167	ITI	n/a	n/a	n/a	n/a	n/a	n/a	n/a	n/a
405.7251	0.5167	FIXCROSS	n/a	n/a	n/a	n/a	n/a	n/a	n/a	n/a
406.2417	1.0167	COLOR_NAME	70	Incongruent	zielony	green	czerwony	red	hit	n/a
407.2262	n/a	RESPONSE	n/a	n/a	n/a	n/a	n/a	n/a	n/a	green
407.2584	1.0167	ITI	n/a	n/a	n/a	n/a	n/a	n/a	n/a	n/a
408.2751	0.5167	FIXCROSS	n/a	n/a	n/a	n/a	n/a	n/a	n/a	n/a
408.7917	0.6833	COLOR_NAME	71	Neutral	zielony	green	Neutral	Neutral	hit	n/a
409.4497	n/a	RESPONSE	n/a	n/a	n/a	n/a	n/a	n/a	n/a	green
409.4751	1.0167	ITI	n/a	n/a	n/a	n/a	n/a	n/a	n/a	n/a
410.4918	0.5167	FIXCROSS	n/a	n/a	n/a	n/a	n/a	n/a	n/a	n/a
411.0084	0.6833	COLOR_NAME	72	Neutral	niebieski	blue	Neutral	Neutral	hit	n/a
411.6732	n/a	RESPONSE	n/a	n/a	n/a	n/a	n/a	n/a	n/a	blue
411.6918	1.0333	ITI	n/a	n/a	n/a	n/a	n/a	n/a	n/a	n/a
414.6646	n/a	RESPONSE	n/a	n/a	n/a	n/a	n/a	n/a	n/a	n/a
