onset	duration	trial_type	trial_number	stroop_condition	stim_text(PL)	stim_text(eng)	stim_color(PL)	stim_color(eng)	response_type	response_color
0.0	n/a	RESPONSE	n/a	n/a	n/a	n/a	n/a	n/a	n/a	n/a
0.0599	1.0167	ITI	n/a	n/a	n/a	n/a	n/a	n/a	n/a	n/a
1.0766	0.5167	FIXCROSS	n/a	n/a	n/a	n/a	n/a	n/a	n/a	n/a
1.5933	1.5334	T_INK	1	Neutral	xxxxxxx	xxxxxxx	niebieski	blue	hit	n/a
3.099	n/a	RESPONSE	n/a	n/a	n/a	n/a	n/a	n/a	n/a	blue
3.1266	0.5167	FEEDBACK	n/a	n/a	n/a	n/a	n/a	n/a	n/a	n/a
3.6433	1.0167	ITI	n/a	n/a	n/a	n/a	n/a	n/a	n/a	n/a
4.66	0.5167	FIXCROSS	n/a	n/a	n/a	n/a	n/a	n/a	n/a	n/a
5.1766	1.9834	T_INK	2	Incongruent	żółty	yellow	zielony	green	hit	n/a
7.1248	n/a	RESPONSE	n/a	n/a	n/a	n/a	n/a	n/a	n/a	green
7.16	0.5167	FEEDBACK	n/a	n/a	n/a	n/a	n/a	n/a	n/a	n/a
7.6766	1.0167	ITI	n/a	n/a	n/a	n/a	n/a	n/a	n/a	n/a
8.6933	0.5167	FIXCROSS	n/a	n/a	n/a	n/a	n/a	n/a	n/a	n/a
9.21	0.7833	T_INK	3	Incongruent	zielony	green	żółty	yellow	hit	n/a
9.9684	n/a	RESPONSE	n/a	n/a	n/a	n/a	n/a	n/a	n/a	yellow
9.9933	0.5167	FEEDBACK	n/a	n/a	n/a	n/a	n/a	n/a	n/a	n/a
10.51	1.0167	ITI	n/a	n/a	n/a	n/a	n/a	n/a	n/a	n/a
11.5267	0.5167	FIXCROSS	n/a	n/a	n/a	n/a	n/a	n/a	n/a	n/a
12.0434	0.8667	T_INK	4	Neutral	xxxxxxx	xxxxxxx	czerwony	red	hit	n/a
12.8759	n/a	RESPONSE	n/a	n/a	n/a	n/a	n/a	n/a	n/a	red
12.91	0.5167	FEEDBACK	n/a	n/a	n/a	n/a	n/a	n/a	n/a	n/a
13.4267	1.0167	ITI	n/a	n/a	n/a	n/a	n/a	n/a	n/a	n/a
14.4434	0.5167	FIXCROSS	n/a	n/a	n/a	n/a	n/a	n/a	n/a	n/a
14.96	0.85	T_INK	5	Neutral	xxxxx	xxxxx	czerwony	red	hit	n/a
15.7833	n/a	RESPONSE	n/a	n/a	n/a	n/a	n/a	n/a	n/a	red
15.81	0.5167	FEEDBACK	n/a	n/a	n/a	n/a	n/a	n/a	n/a	n/a
15.9591	n/a	RESPONSE	n/a	n/a	n/a	n/a	n/a	n/a	n/a	red
16.3267	1.0167	ITI	n/a	n/a	n/a	n/a	n/a	n/a	n/a	n/a
17.3434	0.5167	FIXCROSS	n/a	n/a	n/a	n/a	n/a	n/a	n/a	n/a
17.8601	1.2333	T_INK	6	Incongruent	zielony	green	niebieski	blue	hit	n/a
19.0742	n/a	RESPONSE	n/a	n/a	n/a	n/a	n/a	n/a	n/a	blue
19.0934	0.5167	FEEDBACK	n/a	n/a	n/a	n/a	n/a	n/a	n/a	n/a
19.6101	1.0167	ITI	n/a	n/a	n/a	n/a	n/a	n/a	n/a	n/a
20.6267	0.5167	FIXCROSS	n/a	n/a	n/a	n/a	n/a	n/a	n/a	n/a
21.1434	0.95	T_INK	7	Incongruent	niebieski	blue	zielony	green	hit	n/a
22.0617	n/a	RESPONSE	n/a	n/a	n/a	n/a	n/a	n/a	n/a	green
22.0934	0.5167	FEEDBACK	n/a	n/a	n/a	n/a	n/a	n/a	n/a	n/a
22.6101	1.0167	ITI	n/a	n/a	n/a	n/a	n/a	n/a	n/a	n/a
23.6268	0.5167	FIXCROSS	n/a	n/a	n/a	n/a	n/a	n/a	n/a	n/a
24.1434	1.1667	T_INK	8	Incongruent	niebieski	blue	czerwony	red	hit	n/a
25.2886	n/a	RESPONSE	n/a	n/a	n/a	n/a	n/a	n/a	n/a	red
25.3101	0.5167	FEEDBACK	n/a	n/a	n/a	n/a	n/a	n/a	n/a	n/a
25.8268	1.0167	ITI	n/a	n/a	n/a	n/a	n/a	n/a	n/a	n/a
26.8435	0.5167	FIXCROSS	n/a	n/a	n/a	n/a	n/a	n/a	n/a	n/a
27.3601	0.9667	T_INK	9	Incongruent	czerwony	red	zielony	green	hit	n/a
28.292	n/a	RESPONSE	n/a	n/a	n/a	n/a	n/a	n/a	n/a	green
28.3268	0.5167	FEEDBACK	n/a	n/a	n/a	n/a	n/a	n/a	n/a	n/a
28.8435	1.0167	ITI	n/a	n/a	n/a	n/a	n/a	n/a	n/a	n/a
29.8602	0.5167	FIXCROSS	n/a	n/a	n/a	n/a	n/a	n/a	n/a	n/a
30.3768	0.8667	T_INK	10	Neutral	xxxxxxxxx	xxxxxxxxx	żółty	yellow	hit	n/a
31.2155	n/a	RESPONSE	n/a	n/a	n/a	n/a	n/a	n/a	n/a	yellow
31.2435	0.5167	FEEDBACK	n/a	n/a	n/a	n/a	n/a	n/a	n/a	n/a
31.7602	1.0167	ITI	n/a	n/a	n/a	n/a	n/a	n/a	n/a	n/a
32.7768	0.5167	FIXCROSS	n/a	n/a	n/a	n/a	n/a	n/a	n/a	n/a
33.2935	1.1	T_INK	11	Incongruent	zielony	green	czerwony	red	hit	n/a
34.3625	n/a	RESPONSE	n/a	n/a	n/a	n/a	n/a	n/a	n/a	red
34.3935	0.5167	FEEDBACK	n/a	n/a	n/a	n/a	n/a	n/a	n/a	n/a
34.9102	1.0167	ITI	n/a	n/a	n/a	n/a	n/a	n/a	n/a	n/a
35.9269	0.5167	FIXCROSS	n/a	n/a	n/a	n/a	n/a	n/a	n/a	n/a
36.4435	0.9334	T_INK	12	Neutral	xxxxx	xxxxx	zielony	green	hit	n/a
37.3499	n/a	RESPONSE	n/a	n/a	n/a	n/a	n/a	n/a	n/a	green
37.3769	0.5167	FEEDBACK	n/a	n/a	n/a	n/a	n/a	n/a	n/a	n/a
37.8935	1.0333	ITI	n/a	n/a	n/a	n/a	n/a	n/a	n/a	n/a
75.4827	n/a	RESPONSE	n/a	n/a	n/a	n/a	n/a	n/a	n/a	n/a
75.5439	1.0167	ITI	n/a	n/a	n/a	n/a	n/a	n/a	n/a	n/a
76.5605	0.5167	FIXCROSS	n/a	n/a	n/a	n/a	n/a	n/a	n/a	n/a
77.0772	0.9	INK	1	Neutral	xxxxxxxx	xxxxxxxx	zielony	green	hit	n/a
77.9429	n/a	RESPONSE	n/a	n/a	n/a	n/a	n/a	n/a	n/a	green
77.9772	1.0167	ITI	n/a	n/a	n/a	n/a	n/a	n/a	n/a	n/a
78.9939	0.5167	FIXCROSS	n/a	n/a	n/a	n/a	n/a	n/a	n/a	n/a
79.5106	0.6333	INK	2	Incongruent	niebieski	blue	czerwony	red	hit	n/a
80.1155	n/a	RESPONSE	n/a	n/a	n/a	n/a	n/a	n/a	n/a	red
80.1439	1.0167	ITI	n/a	n/a	n/a	n/a	n/a	n/a	n/a	n/a
81.1606	0.5167	FIXCROSS	n/a	n/a	n/a	n/a	n/a	n/a	n/a	n/a
81.6772	0.8667	INK	3	Neutral	xxxxxxx	xxxxxxx	niebieski	blue	hit	n/a
82.5118	n/a	RESPONSE	n/a	n/a	n/a	n/a	n/a	n/a	n/a	blue
82.5439	1.0167	ITI	n/a	n/a	n/a	n/a	n/a	n/a	n/a	n/a
83.5606	0.5167	FIXCROSS	n/a	n/a	n/a	n/a	n/a	n/a	n/a	n/a
84.0772	0.5667	INK	4	Neutral	xxxxx	xxxxx	czerwony	red	hit	n/a
84.6205	n/a	RESPONSE	n/a	n/a	n/a	n/a	n/a	n/a	n/a	red
84.6439	1.0167	ITI	n/a	n/a	n/a	n/a	n/a	n/a	n/a	n/a
85.6606	0.5167	FIXCROSS	n/a	n/a	n/a	n/a	n/a	n/a	n/a	n/a
86.1773	0.7	INK	5	Incongruent	czerwony	red	zielony	green	incorrect	n/a
86.8571	n/a	RESPONSE	n/a	n/a	n/a	n/a	n/a	n/a	n/a	yellow
86.8773	1.0167	ITI	n/a	n/a	n/a	n/a	n/a	n/a	n/a	n/a
87.894	0.5167	FIXCROSS	n/a	n/a	n/a	n/a	n/a	n/a	n/a	n/a
88.4106	0.65	INK	6	Neutral	xxxxxxx	xxxxxxx	żółty	yellow	hit	n/a
89.0297	n/a	RESPONSE	n/a	n/a	n/a	n/a	n/a	n/a	n/a	yellow
89.0606	1.0167	ITI	n/a	n/a	n/a	n/a	n/a	n/a	n/a	n/a
90.0773	0.5167	FIXCROSS	n/a	n/a	n/a	n/a	n/a	n/a	n/a	n/a
90.594	0.8167	INK	7	Neutral	xxxxx	xxxxx	niebieski	blue	hit	n/a
91.378	n/a	RESPONSE	n/a	n/a	n/a	n/a	n/a	n/a	n/a	blue
91.4106	1.0167	ITI	n/a	n/a	n/a	n/a	n/a	n/a	n/a	n/a
92.4273	0.5167	FIXCROSS	n/a	n/a	n/a	n/a	n/a	n/a	n/a	n/a
92.944	0.7	INK	8	Incongruent	niebieski	blue	czerwony	red	hit	n/a
93.6145	n/a	RESPONSE	n/a	n/a	n/a	n/a	n/a	n/a	n/a	red
93.644	1.0167	ITI	n/a	n/a	n/a	n/a	n/a	n/a	n/a	n/a
94.6607	0.5167	FIXCROSS	n/a	n/a	n/a	n/a	n/a	n/a	n/a	n/a
95.1773	0.45	INK	9	Incongruent	zielony	green	czerwony	red	hit	n/a
95.5955	n/a	RESPONSE	n/a	n/a	n/a	n/a	n/a	n/a	n/a	red
95.6273	1.0167	ITI	n/a	n/a	n/a	n/a	n/a	n/a	n/a	n/a
96.644	0.5167	FIXCROSS	n/a	n/a	n/a	n/a	n/a	n/a	n/a	n/a
97.1607	0.7167	INK	10	Neutral	xxxxxxxxx	xxxxxxxxx	zielony	green	hit	n/a
97.848	n/a	RESPONSE	n/a	n/a	n/a	n/a	n/a	n/a	n/a	green
97.8774	1.0167	ITI	n/a	n/a	n/a	n/a	n/a	n/a	n/a	n/a
98.894	0.5167	FIXCROSS	n/a	n/a	n/a	n/a	n/a	n/a	n/a	n/a
99.4107	0.8833	INK	11	Incongruent	żółty	yellow	czerwony	red	hit	n/a
100.2602	n/a	RESPONSE	n/a	n/a	n/a	n/a	n/a	n/a	n/a	red
100.2941	1.0167	ITI	n/a	n/a	n/a	n/a	n/a	n/a	n/a	n/a
101.3107	0.5167	FIXCROSS	n/a	n/a	n/a	n/a	n/a	n/a	n/a	n/a
101.8274	0.65	INK	12	Neutral	xxxxx	xxxxx	zielony	green	hit	n/a
102.4488	n/a	RESPONSE	n/a	n/a	n/a	n/a	n/a	n/a	n/a	green
102.4774	1.0167	ITI	n/a	n/a	n/a	n/a	n/a	n/a	n/a	n/a
103.4941	0.5167	FIXCROSS	n/a	n/a	n/a	n/a	n/a	n/a	n/a	n/a
104.0107	0.8667	INK	13	Incongruent	niebieski	blue	żółty	yellow	hit	n/a
104.8451	n/a	RESPONSE	n/a	n/a	n/a	n/a	n/a	n/a	n/a	yellow
104.8774	1.0167	ITI	n/a	n/a	n/a	n/a	n/a	n/a	n/a	n/a
105.8941	0.5167	FIXCROSS	n/a	n/a	n/a	n/a	n/a	n/a	n/a	n/a
106.4108	0.8	INK	14	Neutral	xxxxxxxx	xxxxxxxx	zielony	green	hit	n/a
107.1775	n/a	RESPONSE	n/a	n/a	n/a	n/a	n/a	n/a	n/a	green
107.2108	1.0167	ITI	n/a	n/a	n/a	n/a	n/a	n/a	n/a	n/a
108.2275	0.5167	FIXCROSS	n/a	n/a	n/a	n/a	n/a	n/a	n/a	n/a
108.7441	0.7667	INK	15	Neutral	xxxxxxxx	xxxxxxxx	niebieski	blue	hit	n/a
109.4778	n/a	RESPONSE	n/a	n/a	n/a	n/a	n/a	n/a	n/a	blue
109.5108	1.0167	ITI	n/a	n/a	n/a	n/a	n/a	n/a	n/a	n/a
110.5275	0.5167	FIXCROSS	n/a	n/a	n/a	n/a	n/a	n/a	n/a	n/a
111.0441	0.8333	INK	16	Neutral	xxxxx	xxxxx	zielony	green	hit	n/a
111.8582	n/a	RESPONSE	n/a	n/a	n/a	n/a	n/a	n/a	n/a	green
111.8775	1.0167	ITI	n/a	n/a	n/a	n/a	n/a	n/a	n/a	n/a
112.8941	0.5167	FIXCROSS	n/a	n/a	n/a	n/a	n/a	n/a	n/a	n/a
113.4108	0.65	INK	17	Neutral	xxxxxxxx	xxxxxxxx	zielony	green	hit	n/a
114.0308	n/a	RESPONSE	n/a	n/a	n/a	n/a	n/a	n/a	n/a	green
114.0608	1.0167	ITI	n/a	n/a	n/a	n/a	n/a	n/a	n/a	n/a
115.0775	0.5167	FIXCROSS	n/a	n/a	n/a	n/a	n/a	n/a	n/a	n/a
115.5942	0.5167	INK	18	Incongruent	żółty	yellow	niebieski	blue	incorrect	n/a
116.0916	n/a	RESPONSE	n/a	n/a	n/a	n/a	n/a	n/a	n/a	green
116.1108	1.0167	ITI	n/a	n/a	n/a	n/a	n/a	n/a	n/a	n/a
117.1275	0.5167	FIXCROSS	n/a	n/a	n/a	n/a	n/a	n/a	n/a	n/a
117.6442	0.5833	INK	19	Neutral	xxxxx	xxxxx	czerwony	red	hit	n/a
118.2004	n/a	RESPONSE	n/a	n/a	n/a	n/a	n/a	n/a	n/a	red
118.2275	1.0167	ITI	n/a	n/a	n/a	n/a	n/a	n/a	n/a	n/a
119.2442	0.5167	FIXCROSS	n/a	n/a	n/a	n/a	n/a	n/a	n/a	n/a
119.7609	0.95	INK	20	Incongruent	niebieski	blue	zielony	green	hit	n/a
120.6926	n/a	RESPONSE	n/a	n/a	n/a	n/a	n/a	n/a	n/a	green
120.7109	1.0167	ITI	n/a	n/a	n/a	n/a	n/a	n/a	n/a	n/a
121.7276	0.5167	FIXCROSS	n/a	n/a	n/a	n/a	n/a	n/a	n/a	n/a
122.2442	0.7	INK	21	Neutral	xxxxx	xxxxx	zielony	green	hit	n/a
122.9131	n/a	RESPONSE	n/a	n/a	n/a	n/a	n/a	n/a	n/a	green
122.9442	1.0167	ITI	n/a	n/a	n/a	n/a	n/a	n/a	n/a	n/a
123.9609	0.5167	FIXCROSS	n/a	n/a	n/a	n/a	n/a	n/a	n/a	n/a
124.4776	0.4833	INK	22	Neutral	xxxxxxxxx	xxxxxxxxx	zielony	green	hit	n/a
124.9419	n/a	RESPONSE	n/a	n/a	n/a	n/a	n/a	n/a	n/a	green
124.9609	1.0167	ITI	n/a	n/a	n/a	n/a	n/a	n/a	n/a	n/a
125.9776	0.5167	FIXCROSS	n/a	n/a	n/a	n/a	n/a	n/a	n/a	n/a
126.4943	0.5667	INK	23	Neutral	xxxxxxxxx	xxxxxxxxx	żółty	yellow	hit	n/a
127.0346	n/a	RESPONSE	n/a	n/a	n/a	n/a	n/a	n/a	n/a	yellow
127.0609	1.0167	ITI	n/a	n/a	n/a	n/a	n/a	n/a	n/a	n/a
128.0776	0.5167	FIXCROSS	n/a	n/a	n/a	n/a	n/a	n/a	n/a	n/a
128.5943	0.45	INK	24	Neutral	xxxxxxxxx	xxxxxxxxx	czerwony	red	hit	n/a
129.0155	n/a	RESPONSE	n/a	n/a	n/a	n/a	n/a	n/a	n/a	red
129.0443	1.0167	ITI	n/a	n/a	n/a	n/a	n/a	n/a	n/a	n/a
130.0609	0.5167	FIXCROSS	n/a	n/a	n/a	n/a	n/a	n/a	n/a	n/a
130.5776	0.8167	INK	25	Incongruent	niebieski	blue	zielony	green	hit	n/a
131.3638	n/a	RESPONSE	n/a	n/a	n/a	n/a	n/a	n/a	n/a	green
131.3943	1.0167	ITI	n/a	n/a	n/a	n/a	n/a	n/a	n/a	n/a
132.411	0.5167	FIXCROSS	n/a	n/a	n/a	n/a	n/a	n/a	n/a	n/a
132.9276	0.6333	INK	26	Neutral	xxxxx	xxxxx	niebieski	blue	hit	n/a
133.5364	n/a	RESPONSE	n/a	n/a	n/a	n/a	n/a	n/a	n/a	blue
133.561	1.0167	ITI	n/a	n/a	n/a	n/a	n/a	n/a	n/a	n/a
134.5777	0.5167	FIXCROSS	n/a	n/a	n/a	n/a	n/a	n/a	n/a	n/a
135.0943	0.5167	INK	27	Incongruent	czerwony	red	żółty	yellow	hit	n/a
135.5814	n/a	RESPONSE	n/a	n/a	n/a	n/a	n/a	n/a	n/a	yellow
135.611	1.0167	ITI	n/a	n/a	n/a	n/a	n/a	n/a	n/a	n/a
136.6277	0.5167	FIXCROSS	n/a	n/a	n/a	n/a	n/a	n/a	n/a	n/a
137.1443	0.5167	INK	28	Incongruent	żółty	yellow	czerwony	red	hit	n/a
137.6421	n/a	RESPONSE	n/a	n/a	n/a	n/a	n/a	n/a	n/a	red
137.661	1.0167	ITI	n/a	n/a	n/a	n/a	n/a	n/a	n/a	n/a
138.6777	0.5167	FIXCROSS	n/a	n/a	n/a	n/a	n/a	n/a	n/a	n/a
139.1944	0.5833	INK	29	Neutral	xxxxxxxx	xxxxxxxx	niebieski	blue	hit	n/a
139.7509	n/a	RESPONSE	n/a	n/a	n/a	n/a	n/a	n/a	n/a	blue
139.7777	1.0167	ITI	n/a	n/a	n/a	n/a	n/a	n/a	n/a	n/a
140.7944	0.5167	FIXCROSS	n/a	n/a	n/a	n/a	n/a	n/a	n/a	n/a
141.311	0.5167	INK	30	Neutral	xxxxxxx	xxxxxxx	żółty	yellow	hit	n/a
141.7957	n/a	RESPONSE	n/a	n/a	n/a	n/a	n/a	n/a	n/a	yellow
141.8277	1.0167	ITI	n/a	n/a	n/a	n/a	n/a	n/a	n/a	n/a
142.8444	0.5167	FIXCROSS	n/a	n/a	n/a	n/a	n/a	n/a	n/a	n/a
143.3611	0.5333	INK	31	Neutral	xxxxxxxx	xxxxxxxx	żółty	yellow	hit	n/a
143.8725	n/a	RESPONSE	n/a	n/a	n/a	n/a	n/a	n/a	n/a	yellow
143.8944	1.0167	ITI	n/a	n/a	n/a	n/a	n/a	n/a	n/a	n/a
144.9111	0.5167	FIXCROSS	n/a	n/a	n/a	n/a	n/a	n/a	n/a	n/a
145.4277	0.4667	INK	32	Neutral	xxxxxxx	xxxxxxx	niebieski	blue	hit	n/a
145.8694	n/a	RESPONSE	n/a	n/a	n/a	n/a	n/a	n/a	n/a	blue
145.8944	1.0167	ITI	n/a	n/a	n/a	n/a	n/a	n/a	n/a	n/a
146.9111	0.5167	FIXCROSS	n/a	n/a	n/a	n/a	n/a	n/a	n/a	n/a
147.4277	0.6667	INK	33	Incongruent	czerwony	red	żółty	yellow	hit	n/a
148.074	n/a	RESPONSE	n/a	n/a	n/a	n/a	n/a	n/a	n/a	yellow
148.0944	1.0167	ITI	n/a	n/a	n/a	n/a	n/a	n/a	n/a	n/a
149.1111	0.5167	FIXCROSS	n/a	n/a	n/a	n/a	n/a	n/a	n/a	n/a
149.6278	0.4667	INK	34	Neutral	xxxxxxxxx	xxxxxxxxx	żółty	yellow	hit	n/a
150.0709	n/a	RESPONSE	n/a	n/a	n/a	n/a	n/a	n/a	n/a	yellow
150.0944	1.0167	ITI	n/a	n/a	n/a	n/a	n/a	n/a	n/a	n/a
151.1111	0.5167	FIXCROSS	n/a	n/a	n/a	n/a	n/a	n/a	n/a	n/a
151.6278	0.6333	INK	35	Neutral	xxxxxxx	xxxxxxx	czerwony	red	hit	n/a
152.2435	n/a	RESPONSE	n/a	n/a	n/a	n/a	n/a	n/a	n/a	red
152.2611	1.0167	ITI	n/a	n/a	n/a	n/a	n/a	n/a	n/a	n/a
153.2778	0.5167	FIXCROSS	n/a	n/a	n/a	n/a	n/a	n/a	n/a	n/a
153.7945	0.4167	INK	36	Incongruent	zielony	green	czerwony	red	hit	n/a
154.1925	n/a	RESPONSE	n/a	n/a	n/a	n/a	n/a	n/a	n/a	red
154.2111	1.0167	ITI	n/a	n/a	n/a	n/a	n/a	n/a	n/a	n/a
155.2278	0.5167	FIXCROSS	n/a	n/a	n/a	n/a	n/a	n/a	n/a	n/a
155.7445	0.4	INK	37	Neutral	xxxxxxx	xxxxxxx	czerwony	red	hit	n/a
156.1254	n/a	RESPONSE	n/a	n/a	n/a	n/a	n/a	n/a	n/a	red
156.1445	1.0167	ITI	n/a	n/a	n/a	n/a	n/a	n/a	n/a	n/a
157.1612	0.5167	FIXCROSS	n/a	n/a	n/a	n/a	n/a	n/a	n/a	n/a
157.6778	0.7833	INK	38	Incongruent	żółty	yellow	zielony	green	hit	n/a
158.4418	n/a	RESPONSE	n/a	n/a	n/a	n/a	n/a	n/a	n/a	green
158.4612	1.0167	ITI	n/a	n/a	n/a	n/a	n/a	n/a	n/a	n/a
159.4778	0.5167	FIXCROSS	n/a	n/a	n/a	n/a	n/a	n/a	n/a	n/a
159.9945	0.55	INK	39	Neutral	xxxxxxxxx	xxxxxxxxx	czerwony	red	hit	n/a
160.5185	n/a	RESPONSE	n/a	n/a	n/a	n/a	n/a	n/a	n/a	red
160.5445	1.0167	ITI	n/a	n/a	n/a	n/a	n/a	n/a	n/a	n/a
161.5612	0.5167	FIXCROSS	n/a	n/a	n/a	n/a	n/a	n/a	n/a	n/a
162.0779	0.5667	INK	40	Incongruent	żółty	yellow	niebieski	blue	hit	n/a
162.6272	n/a	RESPONSE	n/a	n/a	n/a	n/a	n/a	n/a	n/a	blue
162.6445	1.0167	ITI	n/a	n/a	n/a	n/a	n/a	n/a	n/a	n/a
163.6612	0.5167	FIXCROSS	n/a	n/a	n/a	n/a	n/a	n/a	n/a	n/a
164.1779	0.7	INK	41	Incongruent	niebieski	blue	czerwony	red	hit	n/a
164.8478	n/a	RESPONSE	n/a	n/a	n/a	n/a	n/a	n/a	n/a	red
164.8779	1.0167	ITI	n/a	n/a	n/a	n/a	n/a	n/a	n/a	n/a
165.8946	0.5167	FIXCROSS	n/a	n/a	n/a	n/a	n/a	n/a	n/a	n/a
166.4112	0.65	INK	42	Incongruent	zielony	green	niebieski	blue	incorrect	n/a
167.0364	n/a	RESPONSE	n/a	n/a	n/a	n/a	n/a	n/a	n/a	green
167.0612	1.0167	ITI	n/a	n/a	n/a	n/a	n/a	n/a	n/a	n/a
168.0779	0.5167	FIXCROSS	n/a	n/a	n/a	n/a	n/a	n/a	n/a	n/a
168.5946	0.5667	INK	43	Neutral	xxxxxxxx	xxxxxxxx	żółty	yellow	hit	n/a
169.1292	n/a	RESPONSE	n/a	n/a	n/a	n/a	n/a	n/a	n/a	yellow
169.1613	1.0167	ITI	n/a	n/a	n/a	n/a	n/a	n/a	n/a	n/a
170.1779	0.5167	FIXCROSS	n/a	n/a	n/a	n/a	n/a	n/a	n/a	n/a
170.6946	0.6167	INK	44	Incongruent	zielony	green	niebieski	blue	hit	n/a
171.2858	n/a	RESPONSE	n/a	n/a	n/a	n/a	n/a	n/a	n/a	blue
171.3113	1.0167	ITI	n/a	n/a	n/a	n/a	n/a	n/a	n/a	n/a
172.3279	0.5167	FIXCROSS	n/a	n/a	n/a	n/a	n/a	n/a	n/a	n/a
172.8446	0.5167	INK	45	Incongruent	żółty	yellow	niebieski	blue	hit	n/a
173.3306	n/a	RESPONSE	n/a	n/a	n/a	n/a	n/a	n/a	n/a	blue
173.3613	1.0167	ITI	n/a	n/a	n/a	n/a	n/a	n/a	n/a	n/a
174.378	0.5167	FIXCROSS	n/a	n/a	n/a	n/a	n/a	n/a	n/a	n/a
174.8946	0.55	INK	46	Incongruent	zielony	green	żółty	yellow	hit	n/a
175.4233	n/a	RESPONSE	n/a	n/a	n/a	n/a	n/a	n/a	n/a	yellow
175.4446	1.0167	ITI	n/a	n/a	n/a	n/a	n/a	n/a	n/a	n/a
176.4613	0.5167	FIXCROSS	n/a	n/a	n/a	n/a	n/a	n/a	n/a	n/a
176.978	0.5167	INK	47	Incongruent	zielony	green	żółty	yellow	hit	n/a
177.4682	n/a	RESPONSE	n/a	n/a	n/a	n/a	n/a	n/a	n/a	yellow
177.4947	1.0167	ITI	n/a	n/a	n/a	n/a	n/a	n/a	n/a	n/a
178.5113	0.5167	FIXCROSS	n/a	n/a	n/a	n/a	n/a	n/a	n/a	n/a
179.028	0.6834	INK	48	Incongruent	niebieski	blue	zielony	green	incorrect	n/a
179.6887	n/a	RESPONSE	n/a	n/a	n/a	n/a	n/a	n/a	n/a	red
179.7113	1.0167	ITI	n/a	n/a	n/a	n/a	n/a	n/a	n/a	n/a
179.9443	n/a	RESPONSE	n/a	n/a	n/a	n/a	n/a	n/a	n/a	green
180.728	0.5167	FIXCROSS	n/a	n/a	n/a	n/a	n/a	n/a	n/a	n/a
181.2447	0.6833	INK	49	Neutral	xxxxxxx	xxxxxxx	niebieski	blue	hit	n/a
181.9092	n/a	RESPONSE	n/a	n/a	n/a	n/a	n/a	n/a	n/a	blue
181.928	1.0167	ITI	n/a	n/a	n/a	n/a	n/a	n/a	n/a	n/a
182.9447	0.5167	FIXCROSS	n/a	n/a	n/a	n/a	n/a	n/a	n/a	n/a
183.4614	0.65	INK	50	Incongruent	niebieski	blue	żółty	yellow	hit	n/a
184.0819	n/a	RESPONSE	n/a	n/a	n/a	n/a	n/a	n/a	n/a	yellow
184.1114	1.0167	ITI	n/a	n/a	n/a	n/a	n/a	n/a	n/a	n/a
185.1281	0.5167	FIXCROSS	n/a	n/a	n/a	n/a	n/a	n/a	n/a	n/a
185.6447	0.8	INK	51	Incongruent	czerwony	red	zielony	green	hit	n/a
186.4142	n/a	RESPONSE	n/a	n/a	n/a	n/a	n/a	n/a	n/a	green
186.4447	1.0167	ITI	n/a	n/a	n/a	n/a	n/a	n/a	n/a	n/a
187.4614	0.5167	FIXCROSS	n/a	n/a	n/a	n/a	n/a	n/a	n/a	n/a
187.9781	0.55	INK	52	Incongruent	czerwony	red	niebieski	blue	hit	n/a
188.5072	n/a	RESPONSE	n/a	n/a	n/a	n/a	n/a	n/a	n/a	blue
188.5281	1.0167	ITI	n/a	n/a	n/a	n/a	n/a	n/a	n/a	n/a
189.5448	0.5167	FIXCROSS	n/a	n/a	n/a	n/a	n/a	n/a	n/a	n/a
190.0614	0.6833	INK	53	Neutral	xxxxxxxxx	xxxxxxxxx	czerwony	red	hit	n/a
190.7118	n/a	RESPONSE	n/a	n/a	n/a	n/a	n/a	n/a	n/a	red
190.7448	1.0167	ITI	n/a	n/a	n/a	n/a	n/a	n/a	n/a	n/a
191.7614	0.5167	FIXCROSS	n/a	n/a	n/a	n/a	n/a	n/a	n/a	n/a
192.2781	0.7833	INK	54	Incongruent	żółty	yellow	zielony	green	hit	n/a
193.0282	n/a	RESPONSE	n/a	n/a	n/a	n/a	n/a	n/a	n/a	green
193.0614	1.0167	ITI	n/a	n/a	n/a	n/a	n/a	n/a	n/a	n/a
194.0781	0.5167	FIXCROSS	n/a	n/a	n/a	n/a	n/a	n/a	n/a	n/a
194.5948	0.8	INK	55	Incongruent	żółty	yellow	czerwony	red	incorrect	n/a
195.3765	n/a	RESPONSE	n/a	n/a	n/a	n/a	n/a	n/a	n/a	green
195.3948	1.0167	ITI	n/a	n/a	n/a	n/a	n/a	n/a	n/a	n/a
195.4564	n/a	RESPONSE	n/a	n/a	n/a	n/a	n/a	n/a	n/a	red
196.4115	0.5167	FIXCROSS	n/a	n/a	n/a	n/a	n/a	n/a	n/a	n/a
196.9281	0.5667	INK	56	Neutral	xxxxx	xxxxx	niebieski	blue	hit	n/a
197.4695	n/a	RESPONSE	n/a	n/a	n/a	n/a	n/a	n/a	n/a	blue
197.4948	1.0167	ITI	n/a	n/a	n/a	n/a	n/a	n/a	n/a	n/a
198.5115	0.5167	FIXCROSS	n/a	n/a	n/a	n/a	n/a	n/a	n/a	n/a
199.0282	0.65	INK	57	Neutral	xxxxxxxx	xxxxxxxx	żółty	yellow	hit	n/a
199.6582	n/a	RESPONSE	n/a	n/a	n/a	n/a	n/a	n/a	n/a	yellow
199.6782	1.0167	ITI	n/a	n/a	n/a	n/a	n/a	n/a	n/a	n/a
200.6948	0.5167	FIXCROSS	n/a	n/a	n/a	n/a	n/a	n/a	n/a	n/a
201.2115	0.7	INK	58	Incongruent	zielony	green	niebieski	blue	hit	n/a
201.8789	n/a	RESPONSE	n/a	n/a	n/a	n/a	n/a	n/a	n/a	blue
201.9115	1.0167	ITI	n/a	n/a	n/a	n/a	n/a	n/a	n/a	n/a
202.9282	0.5167	FIXCROSS	n/a	n/a	n/a	n/a	n/a	n/a	n/a	n/a
203.4449	0.4167	INK	59	Neutral	xxxxxxxx	xxxxxxxx	niebieski	blue	hit	n/a
203.8441	n/a	RESPONSE	n/a	n/a	n/a	n/a	n/a	n/a	n/a	blue
203.8615	1.0167	ITI	n/a	n/a	n/a	n/a	n/a	n/a	n/a	n/a
204.8782	0.5167	FIXCROSS	n/a	n/a	n/a	n/a	n/a	n/a	n/a	n/a
205.3949	0.5667	INK	60	Neutral	xxxxxxx	xxxxxxx	żółty	yellow	hit	n/a
205.937	n/a	RESPONSE	n/a	n/a	n/a	n/a	n/a	n/a	n/a	yellow
205.9615	1.0167	ITI	n/a	n/a	n/a	n/a	n/a	n/a	n/a	n/a
206.9782	0.5167	FIXCROSS	n/a	n/a	n/a	n/a	n/a	n/a	n/a	n/a
207.4949	1.05	INK	61	Incongruent	czerwony	red	żółty	yellow	hit	n/a
208.5252	n/a	RESPONSE	n/a	n/a	n/a	n/a	n/a	n/a	n/a	yellow
208.5449	1.0167	ITI	n/a	n/a	n/a	n/a	n/a	n/a	n/a	n/a
209.5616	0.5167	FIXCROSS	n/a	n/a	n/a	n/a	n/a	n/a	n/a	n/a
210.0783	0.4333	INK	62	Incongruent	zielony	green	żółty	yellow	hit	n/a
210.4903	n/a	RESPONSE	n/a	n/a	n/a	n/a	n/a	n/a	n/a	yellow
210.5116	1.0167	ITI	n/a	n/a	n/a	n/a	n/a	n/a	n/a	n/a
211.5283	0.5167	FIXCROSS	n/a	n/a	n/a	n/a	n/a	n/a	n/a	n/a
212.0449	0.6667	INK	63	Incongruent	czerwony	red	niebieski	blue	hit	n/a
212.6793	n/a	RESPONSE	n/a	n/a	n/a	n/a	n/a	n/a	n/a	blue
212.7116	1.0167	ITI	n/a	n/a	n/a	n/a	n/a	n/a	n/a	n/a
213.7283	0.5167	FIXCROSS	n/a	n/a	n/a	n/a	n/a	n/a	n/a	n/a
214.245	0.6	INK	64	Neutral	xxxxx	xxxxx	czerwony	red	hit	n/a
214.8202	n/a	RESPONSE	n/a	n/a	n/a	n/a	n/a	n/a	n/a	red
214.845	1.0167	ITI	n/a	n/a	n/a	n/a	n/a	n/a	n/a	n/a
215.8616	0.5167	FIXCROSS	n/a	n/a	n/a	n/a	n/a	n/a	n/a	n/a
216.3783	0.6167	INK	65	Incongruent	żółty	yellow	zielony	green	hit	n/a
216.977	n/a	RESPONSE	n/a	n/a	n/a	n/a	n/a	n/a	n/a	green
216.995	1.0167	ITI	n/a	n/a	n/a	n/a	n/a	n/a	n/a	n/a
218.0116	0.5167	FIXCROSS	n/a	n/a	n/a	n/a	n/a	n/a	n/a	n/a
218.5283	0.4667	INK	66	Neutral	xxxxxxxxx	xxxxxxxxx	zielony	green	hit	n/a
218.9742	n/a	RESPONSE	n/a	n/a	n/a	n/a	n/a	n/a	n/a	green
218.995	1.0167	ITI	n/a	n/a	n/a	n/a	n/a	n/a	n/a	n/a
220.0117	0.5167	FIXCROSS	n/a	n/a	n/a	n/a	n/a	n/a	n/a	n/a
220.5283	0.65	INK	67	Incongruent	niebieski	blue	żółty	yellow	hit	n/a
221.1471	n/a	RESPONSE	n/a	n/a	n/a	n/a	n/a	n/a	n/a	yellow
221.1783	1.0167	ITI	n/a	n/a	n/a	n/a	n/a	n/a	n/a	n/a
222.195	0.5167	FIXCROSS	n/a	n/a	n/a	n/a	n/a	n/a	n/a	n/a
222.7117	0.5333	INK	68	Neutral	xxxxxxx	xxxxxxx	czerwony	red	hit	n/a
223.2241	n/a	RESPONSE	n/a	n/a	n/a	n/a	n/a	n/a	n/a	red
223.245	1.0167	ITI	n/a	n/a	n/a	n/a	n/a	n/a	n/a	n/a
224.2617	0.5167	FIXCROSS	n/a	n/a	n/a	n/a	n/a	n/a	n/a	n/a
224.7784	0.6833	INK	69	Incongruent	czerwony	red	niebieski	blue	hit	n/a
225.4289	n/a	RESPONSE	n/a	n/a	n/a	n/a	n/a	n/a	n/a	blue
225.4617	1.0167	ITI	n/a	n/a	n/a	n/a	n/a	n/a	n/a	n/a
226.4784	0.5167	FIXCROSS	n/a	n/a	n/a	n/a	n/a	n/a	n/a	n/a
226.995	0.7	INK	70	Incongruent	czerwony	red	zielony	green	incorrect	n/a
227.6658	n/a	RESPONSE	n/a	n/a	n/a	n/a	n/a	n/a	n/a	yellow
227.6951	1.0167	ITI	n/a	n/a	n/a	n/a	n/a	n/a	n/a	n/a
227.7775	n/a	RESPONSE	n/a	n/a	n/a	n/a	n/a	n/a	n/a	green
228.7117	0.5167	FIXCROSS	n/a	n/a	n/a	n/a	n/a	n/a	n/a	n/a
229.2284	0.8167	INK	71	Incongruent	zielony	green	czerwony	red	hit	n/a
230.0143	n/a	RESPONSE	n/a	n/a	n/a	n/a	n/a	n/a	n/a	red
230.0451	1.0167	ITI	n/a	n/a	n/a	n/a	n/a	n/a	n/a	n/a
231.0617	0.5167	FIXCROSS	n/a	n/a	n/a	n/a	n/a	n/a	n/a	n/a
231.5784	0.6667	INK	72	Neutral	xxxxxxxxx	xxxxxxxxx	żółty	yellow	hit	n/a
232.2193	n/a	RESPONSE	n/a	n/a	n/a	n/a	n/a	n/a	n/a	yellow
232.2451	1.0833	ITI	n/a	n/a	n/a	n/a	n/a	n/a	n/a	n/a
255.706	n/a	RESPONSE	n/a	n/a	n/a	n/a	n/a	n/a	n/a	n/a
255.7619	1.0167	ITI	n/a	n/a	n/a	n/a	n/a	n/a	n/a	n/a
256.7786	0.5167	FIXCROSS	n/a	n/a	n/a	n/a	n/a	n/a	n/a	n/a
257.2953	0.8167	T_COLOR_NAME	1	Neutral	niebieski	blue	Neutral	Neutral	hit	n/a
258.0865	n/a	RESPONSE	n/a	n/a	n/a	n/a	n/a	n/a	n/a	blue
258.112	0.5167	FEEDBACK	n/a	n/a	n/a	n/a	n/a	n/a	n/a	n/a
258.6286	1.0167	ITI	n/a	n/a	n/a	n/a	n/a	n/a	n/a	n/a
259.6453	0.5167	FIXCROSS	n/a	n/a	n/a	n/a	n/a	n/a	n/a	n/a
260.162	1.3833	T_COLOR_NAME	2	Incongruent	żółty	yellow	zielony	green	hit	n/a
261.5218	n/a	RESPONSE	n/a	n/a	n/a	n/a	n/a	n/a	n/a	yellow
261.5453	0.5167	FEEDBACK	n/a	n/a	n/a	n/a	n/a	n/a	n/a	n/a
262.062	1.0167	ITI	n/a	n/a	n/a	n/a	n/a	n/a	n/a	n/a
263.0787	0.5167	FIXCROSS	n/a	n/a	n/a	n/a	n/a	n/a	n/a	n/a
263.5953	0.8167	T_COLOR_NAME	3	Incongruent	czerwony	red	zielony	green	hit	n/a
264.3817	n/a	RESPONSE	n/a	n/a	n/a	n/a	n/a	n/a	n/a	red
264.412	0.5167	FEEDBACK	n/a	n/a	n/a	n/a	n/a	n/a	n/a	n/a
264.9287	1.0167	ITI	n/a	n/a	n/a	n/a	n/a	n/a	n/a	n/a
265.9453	0.5167	FIXCROSS	n/a	n/a	n/a	n/a	n/a	n/a	n/a	n/a
266.462	1.05	T_COLOR_NAME	4	Neutral	zielony	green	Neutral	Neutral	hit	n/a
267.4814	n/a	RESPONSE	n/a	n/a	n/a	n/a	n/a	n/a	n/a	green
267.512	0.5167	FEEDBACK	n/a	n/a	n/a	n/a	n/a	n/a	n/a	n/a
268.0287	1.0167	ITI	n/a	n/a	n/a	n/a	n/a	n/a	n/a	n/a
269.0454	0.5167	FIXCROSS	n/a	n/a	n/a	n/a	n/a	n/a	n/a	n/a
269.5621	0.8667	T_COLOR_NAME	5	Incongruent	zielony	green	niebieski	blue	hit	n/a
270.4052	n/a	RESPONSE	n/a	n/a	n/a	n/a	n/a	n/a	n/a	green
270.4287	0.5167	FEEDBACK	n/a	n/a	n/a	n/a	n/a	n/a	n/a	n/a
270.9454	1.0167	ITI	n/a	n/a	n/a	n/a	n/a	n/a	n/a	n/a
271.9621	0.5167	FIXCROSS	n/a	n/a	n/a	n/a	n/a	n/a	n/a	n/a
272.4787	1.0333	T_COLOR_NAME	6	Incongruent	niebieski	blue	zielony	green	hit	n/a
273.489	n/a	RESPONSE	n/a	n/a	n/a	n/a	n/a	n/a	n/a	blue
273.5121	0.5167	FEEDBACK	n/a	n/a	n/a	n/a	n/a	n/a	n/a	n/a
274.0287	1.0167	ITI	n/a	n/a	n/a	n/a	n/a	n/a	n/a	n/a
275.0454	0.5167	FIXCROSS	n/a	n/a	n/a	n/a	n/a	n/a	n/a	n/a
275.5621	0.95	T_COLOR_NAME	7	Neutral	zielony	green	Neutral	Neutral	hit	n/a
276.4768	n/a	RESPONSE	n/a	n/a	n/a	n/a	n/a	n/a	n/a	green
276.5121	0.5167	FEEDBACK	n/a	n/a	n/a	n/a	n/a	n/a	n/a	n/a
277.0288	1.0167	ITI	n/a	n/a	n/a	n/a	n/a	n/a	n/a	n/a
278.0454	0.5167	FIXCROSS	n/a	n/a	n/a	n/a	n/a	n/a	n/a	n/a
278.5621	0.5833	T_COLOR_NAME	8	Neutral	żółty	yellow	Neutral	Neutral	hit	n/a
279.1132	n/a	RESPONSE	n/a	n/a	n/a	n/a	n/a	n/a	n/a	yellow
279.1454	0.5167	FEEDBACK	n/a	n/a	n/a	n/a	n/a	n/a	n/a	n/a
279.6621	1.0167	ITI	n/a	n/a	n/a	n/a	n/a	n/a	n/a	n/a
280.6788	0.5167	FIXCROSS	n/a	n/a	n/a	n/a	n/a	n/a	n/a	n/a
281.1955	0.8167	T_COLOR_NAME	9	Incongruent	zielony	green	czerwony	red	hit	n/a
281.9893	n/a	RESPONSE	n/a	n/a	n/a	n/a	n/a	n/a	n/a	green
282.0121	0.5167	FEEDBACK	n/a	n/a	n/a	n/a	n/a	n/a	n/a	n/a
282.5288	1.0167	ITI	n/a	n/a	n/a	n/a	n/a	n/a	n/a	n/a
283.5455	0.5167	FIXCROSS	n/a	n/a	n/a	n/a	n/a	n/a	n/a	n/a
284.0622	0.8333	T_COLOR_NAME	10	Incongruent	niebieski	blue	czerwony	red	hit	n/a
284.8653	n/a	RESPONSE	n/a	n/a	n/a	n/a	n/a	n/a	n/a	blue
284.8955	0.5167	FEEDBACK	n/a	n/a	n/a	n/a	n/a	n/a	n/a	n/a
285.4122	1.0167	ITI	n/a	n/a	n/a	n/a	n/a	n/a	n/a	n/a
286.4288	0.5167	FIXCROSS	n/a	n/a	n/a	n/a	n/a	n/a	n/a	n/a
286.9455	0.7167	T_COLOR_NAME	11	Neutral	żółty	yellow	Neutral	Neutral	hit	n/a
287.6295	n/a	RESPONSE	n/a	n/a	n/a	n/a	n/a	n/a	n/a	yellow
287.6622	0.5167	FEEDBACK	n/a	n/a	n/a	n/a	n/a	n/a	n/a	n/a
288.1789	1.0167	ITI	n/a	n/a	n/a	n/a	n/a	n/a	n/a	n/a
289.1955	0.5167	FIXCROSS	n/a	n/a	n/a	n/a	n/a	n/a	n/a	n/a
289.7122	0.7833	T_COLOR_NAME	12	Incongruent	zielony	green	żółty	yellow	hit	n/a
290.4736	n/a	RESPONSE	n/a	n/a	n/a	n/a	n/a	n/a	n/a	green
290.4955	0.5167	FEEDBACK	n/a	n/a	n/a	n/a	n/a	n/a	n/a	n/a
291.0122	1.0333	ITI	n/a	n/a	n/a	n/a	n/a	n/a	n/a	n/a
295.858	n/a	RESPONSE	n/a	n/a	n/a	n/a	n/a	n/a	n/a	n/a
295.9122	1.0167	ITI	n/a	n/a	n/a	n/a	n/a	n/a	n/a	n/a
296.9289	0.5167	FIXCROSS	n/a	n/a	n/a	n/a	n/a	n/a	n/a	n/a
297.4456	0.9	COLOR_NAME	1	Neutral	zielony	green	Neutral	Neutral	hit	n/a
298.3186	n/a	RESPONSE	n/a	n/a	n/a	n/a	n/a	n/a	n/a	green
298.3456	1.0167	ITI	n/a	n/a	n/a	n/a	n/a	n/a	n/a	n/a
299.3623	0.5167	FIXCROSS	n/a	n/a	n/a	n/a	n/a	n/a	n/a	n/a
299.8789	0.6167	COLOR_NAME	2	Neutral	żółty	yellow	Neutral	Neutral	hit	n/a
300.4756	n/a	RESPONSE	n/a	n/a	n/a	n/a	n/a	n/a	n/a	yellow
300.4956	1.0167	ITI	n/a	n/a	n/a	n/a	n/a	n/a	n/a	n/a
301.5123	0.5167	FIXCROSS	n/a	n/a	n/a	n/a	n/a	n/a	n/a	n/a
302.029	0.6	COLOR_NAME	3	Incongruent	czerwony	red	niebieski	blue	hit	n/a
302.6007	n/a	RESPONSE	n/a	n/a	n/a	n/a	n/a	n/a	n/a	red
302.629	1.0167	ITI	n/a	n/a	n/a	n/a	n/a	n/a	n/a	n/a
303.6456	0.5167	FIXCROSS	n/a	n/a	n/a	n/a	n/a	n/a	n/a	n/a
304.1623	0.7667	COLOR_NAME	4	Neutral	żółty	yellow	Neutral	Neutral	hit	n/a
304.9015	n/a	RESPONSE	n/a	n/a	n/a	n/a	n/a	n/a	n/a	yellow
304.929	1.0167	ITI	n/a	n/a	n/a	n/a	n/a	n/a	n/a	n/a
305.9457	0.5167	FIXCROSS	n/a	n/a	n/a	n/a	n/a	n/a	n/a	n/a
306.4623	0.65	COLOR_NAME	5	Incongruent	zielony	green	niebieski	blue	hit	n/a
307.0905	n/a	RESPONSE	n/a	n/a	n/a	n/a	n/a	n/a	n/a	green
307.1123	1.0167	ITI	n/a	n/a	n/a	n/a	n/a	n/a	n/a	n/a
308.129	0.5167	FIXCROSS	n/a	n/a	n/a	n/a	n/a	n/a	n/a	n/a
308.6457	0.5667	COLOR_NAME	6	Neutral	zielony	green	Neutral	Neutral	hit	n/a
309.1835	n/a	RESPONSE	n/a	n/a	n/a	n/a	n/a	n/a	n/a	green
309.2123	1.0167	ITI	n/a	n/a	n/a	n/a	n/a	n/a	n/a	n/a
310.229	0.5167	FIXCROSS	n/a	n/a	n/a	n/a	n/a	n/a	n/a	n/a
310.7457	0.6167	COLOR_NAME	7	Incongruent	niebieski	blue	żółty	yellow	hit	n/a
311.3405	n/a	RESPONSE	n/a	n/a	n/a	n/a	n/a	n/a	n/a	blue
311.3624	1.0167	ITI	n/a	n/a	n/a	n/a	n/a	n/a	n/a	n/a
312.379	0.5167	FIXCROSS	n/a	n/a	n/a	n/a	n/a	n/a	n/a	n/a
312.8957	0.6	COLOR_NAME	8	Incongruent	żółty	yellow	niebieski	blue	hit	n/a
313.4654	n/a	RESPONSE	n/a	n/a	n/a	n/a	n/a	n/a	n/a	yellow
313.4957	1.0167	ITI	n/a	n/a	n/a	n/a	n/a	n/a	n/a	n/a
314.5124	0.5167	FIXCROSS	n/a	n/a	n/a	n/a	n/a	n/a	n/a	n/a
315.0291	0.6833	COLOR_NAME	9	Neutral	czerwony	red	Neutral	Neutral	hit	n/a
315.6864	n/a	RESPONSE	n/a	n/a	n/a	n/a	n/a	n/a	n/a	red
315.7124	1.0167	ITI	n/a	n/a	n/a	n/a	n/a	n/a	n/a	n/a
316.7291	0.5167	FIXCROSS	n/a	n/a	n/a	n/a	n/a	n/a	n/a	n/a
317.2458	1.1833	COLOR_NAME	10	Incongruent	niebieski	blue	zielony	green	hit	n/a
318.4026	n/a	RESPONSE	n/a	n/a	n/a	n/a	n/a	n/a	n/a	blue
318.4291	1.0167	ITI	n/a	n/a	n/a	n/a	n/a	n/a	n/a	n/a
319.4458	0.5167	FIXCROSS	n/a	n/a	n/a	n/a	n/a	n/a	n/a	n/a
319.9624	0.75	COLOR_NAME	11	Incongruent	zielony	green	żółty	yellow	incorrect	n/a
320.6875	n/a	RESPONSE	n/a	n/a	n/a	n/a	n/a	n/a	n/a	yellow
320.7124	1.0167	ITI	n/a	n/a	n/a	n/a	n/a	n/a	n/a	n/a
321.7291	0.5167	FIXCROSS	n/a	n/a	n/a	n/a	n/a	n/a	n/a	n/a
322.2458	0.8833	COLOR_NAME	12	Incongruent	żółty	yellow	zielony	green	hit	n/a
323.1003	n/a	RESPONSE	n/a	n/a	n/a	n/a	n/a	n/a	n/a	yellow
323.1291	1.0167	ITI	n/a	n/a	n/a	n/a	n/a	n/a	n/a	n/a
324.1458	0.5167	FIXCROSS	n/a	n/a	n/a	n/a	n/a	n/a	n/a	n/a
324.6625	0.6667	COLOR_NAME	13	Neutral	zielony	green	Neutral	Neutral	hit	n/a
325.3053	n/a	RESPONSE	n/a	n/a	n/a	n/a	n/a	n/a	n/a	green
325.3291	1.0167	ITI	n/a	n/a	n/a	n/a	n/a	n/a	n/a	n/a
326.3458	0.5167	FIXCROSS	n/a	n/a	n/a	n/a	n/a	n/a	n/a	n/a
326.8625	0.85	COLOR_NAME	14	Incongruent	niebieski	blue	czerwony	red	hit	n/a
327.686	n/a	RESPONSE	n/a	n/a	n/a	n/a	n/a	n/a	n/a	blue
327.7125	1.0167	ITI	n/a	n/a	n/a	n/a	n/a	n/a	n/a	n/a
328.7292	0.5167	FIXCROSS	n/a	n/a	n/a	n/a	n/a	n/a	n/a	n/a
329.2458	0.55	COLOR_NAME	15	Neutral	niebieski	blue	Neutral	Neutral	hit	n/a
329.7633	n/a	RESPONSE	n/a	n/a	n/a	n/a	n/a	n/a	n/a	blue
329.7958	1.0167	ITI	n/a	n/a	n/a	n/a	n/a	n/a	n/a	n/a
330.8125	0.5167	FIXCROSS	n/a	n/a	n/a	n/a	n/a	n/a	n/a	n/a
331.3292	0.6167	COLOR_NAME	16	Neutral	niebieski	blue	Neutral	Neutral	hit	n/a
331.9202	n/a	RESPONSE	n/a	n/a	n/a	n/a	n/a	n/a	n/a	blue
331.9459	1.0167	ITI	n/a	n/a	n/a	n/a	n/a	n/a	n/a	n/a
332.9625	0.5167	FIXCROSS	n/a	n/a	n/a	n/a	n/a	n/a	n/a	n/a
333.4792	0.7667	COLOR_NAME	17	Neutral	żółty	yellow	Neutral	Neutral	hit	n/a
334.2208	n/a	RESPONSE	n/a	n/a	n/a	n/a	n/a	n/a	n/a	yellow
334.2459	1.0167	ITI	n/a	n/a	n/a	n/a	n/a	n/a	n/a	n/a
335.2626	0.5167	FIXCROSS	n/a	n/a	n/a	n/a	n/a	n/a	n/a	n/a
335.7792	0.5	COLOR_NAME	18	Neutral	żółty	yellow	Neutral	Neutral	hit	n/a
336.2499	n/a	RESPONSE	n/a	n/a	n/a	n/a	n/a	n/a	n/a	yellow
336.2792	1.0167	ITI	n/a	n/a	n/a	n/a	n/a	n/a	n/a	n/a
337.2959	0.5167	FIXCROSS	n/a	n/a	n/a	n/a	n/a	n/a	n/a	n/a
337.8126	0.6167	COLOR_NAME	19	Incongruent	czerwony	red	żółty	yellow	hit	n/a
338.4068	n/a	RESPONSE	n/a	n/a	n/a	n/a	n/a	n/a	n/a	red
338.4292	1.0167	ITI	n/a	n/a	n/a	n/a	n/a	n/a	n/a	n/a
339.4459	0.5167	FIXCROSS	n/a	n/a	n/a	n/a	n/a	n/a	n/a	n/a
339.9626	0.7167	COLOR_NAME	20	Incongruent	niebieski	blue	zielony	green	hit	n/a
340.6594	n/a	RESPONSE	n/a	n/a	n/a	n/a	n/a	n/a	n/a	blue
340.6793	1.0167	ITI	n/a	n/a	n/a	n/a	n/a	n/a	n/a	n/a
341.6959	0.5167	FIXCROSS	n/a	n/a	n/a	n/a	n/a	n/a	n/a	n/a
342.2126	0.5667	COLOR_NAME	21	Neutral	niebieski	blue	Neutral	Neutral	hit	n/a
342.7524	n/a	RESPONSE	n/a	n/a	n/a	n/a	n/a	n/a	n/a	blue
342.7793	1.0167	ITI	n/a	n/a	n/a	n/a	n/a	n/a	n/a	n/a
343.7959	0.5167	FIXCROSS	n/a	n/a	n/a	n/a	n/a	n/a	n/a	n/a
344.3126	0.7334	COLOR_NAME	22	Incongruent	żółty	yellow	niebieski	blue	hit	n/a
345.021	n/a	RESPONSE	n/a	n/a	n/a	n/a	n/a	n/a	n/a	yellow
345.046	1.0167	ITI	n/a	n/a	n/a	n/a	n/a	n/a	n/a	n/a
346.0626	0.5167	FIXCROSS	n/a	n/a	n/a	n/a	n/a	n/a	n/a	n/a
346.5793	0.6	COLOR_NAME	23	Incongruent	czerwony	red	zielony	green	hit	n/a
347.1618	n/a	RESPONSE	n/a	n/a	n/a	n/a	n/a	n/a	n/a	red
347.1793	1.0167	ITI	n/a	n/a	n/a	n/a	n/a	n/a	n/a	n/a
348.196	0.5167	FIXCROSS	n/a	n/a	n/a	n/a	n/a	n/a	n/a	n/a
348.7126	0.45	COLOR_NAME	24	Neutral	czerwony	red	Neutral	Neutral	hit	n/a
349.1429	n/a	RESPONSE	n/a	n/a	n/a	n/a	n/a	n/a	n/a	red
349.1627	1.0167	ITI	n/a	n/a	n/a	n/a	n/a	n/a	n/a	n/a
350.1793	0.5167	FIXCROSS	n/a	n/a	n/a	n/a	n/a	n/a	n/a	n/a
350.696	0.8667	COLOR_NAME	25	Neutral	zielony	green	Neutral	Neutral	incorrect	n/a
351.5393	n/a	RESPONSE	n/a	n/a	n/a	n/a	n/a	n/a	n/a	blue
351.5627	1.0167	ITI	n/a	n/a	n/a	n/a	n/a	n/a	n/a	n/a
352.5793	0.5167	FIXCROSS	n/a	n/a	n/a	n/a	n/a	n/a	n/a	n/a
353.096	0.65	COLOR_NAME	26	Neutral	czerwony	red	Neutral	Neutral	hit	n/a
353.728	n/a	RESPONSE	n/a	n/a	n/a	n/a	n/a	n/a	n/a	red
353.746	1.0167	ITI	n/a	n/a	n/a	n/a	n/a	n/a	n/a	n/a
354.7627	0.5167	FIXCROSS	n/a	n/a	n/a	n/a	n/a	n/a	n/a	n/a
355.2794	0.45	COLOR_NAME	27	Neutral	czerwony	red	Neutral	Neutral	hit	n/a
355.7091	n/a	RESPONSE	n/a	n/a	n/a	n/a	n/a	n/a	n/a	red
355.7294	1.0167	ITI	n/a	n/a	n/a	n/a	n/a	n/a	n/a	n/a
356.7461	0.5167	FIXCROSS	n/a	n/a	n/a	n/a	n/a	n/a	n/a	n/a
357.2627	0.7167	COLOR_NAME	28	Neutral	zielony	green	Neutral	Neutral	incorrect	n/a
357.9457	n/a	RESPONSE	n/a	n/a	n/a	n/a	n/a	n/a	n/a	blue
357.9794	1.0167	ITI	n/a	n/a	n/a	n/a	n/a	n/a	n/a	n/a
358.9961	0.5167	FIXCROSS	n/a	n/a	n/a	n/a	n/a	n/a	n/a	n/a
359.5127	0.9333	COLOR_NAME	29	Neutral	niebieski	blue	Neutral	Neutral	hit	n/a
360.422	n/a	RESPONSE	n/a	n/a	n/a	n/a	n/a	n/a	n/a	blue
360.4461	1.0167	ITI	n/a	n/a	n/a	n/a	n/a	n/a	n/a	n/a
361.4627	0.5167	FIXCROSS	n/a	n/a	n/a	n/a	n/a	n/a	n/a	n/a
361.9794	1.05	COLOR_NAME	30	Incongruent	zielony	green	niebieski	blue	hit	n/a
363.0101	n/a	RESPONSE	n/a	n/a	n/a	n/a	n/a	n/a	n/a	green
363.0294	1.0167	ITI	n/a	n/a	n/a	n/a	n/a	n/a	n/a	n/a
364.0461	0.5167	FIXCROSS	n/a	n/a	n/a	n/a	n/a	n/a	n/a	n/a
364.5628	0.6667	COLOR_NAME	31	Neutral	żółty	yellow	Neutral	Neutral	hit	n/a
365.1989	n/a	RESPONSE	n/a	n/a	n/a	n/a	n/a	n/a	n/a	yellow
365.2294	1.0167	ITI	n/a	n/a	n/a	n/a	n/a	n/a	n/a	n/a
366.2461	0.5167	FIXCROSS	n/a	n/a	n/a	n/a	n/a	n/a	n/a	n/a
366.7628	0.5334	COLOR_NAME	32	Neutral	żółty	yellow	Neutral	Neutral	hit	n/a
367.2758	n/a	RESPONSE	n/a	n/a	n/a	n/a	n/a	n/a	n/a	yellow
367.2961	1.0167	ITI	n/a	n/a	n/a	n/a	n/a	n/a	n/a	n/a
368.3128	0.5167	FIXCROSS	n/a	n/a	n/a	n/a	n/a	n/a	n/a	n/a
368.8295	0.6833	COLOR_NAME	33	Incongruent	czerwony	red	zielony	green	hit	n/a
369.4804	n/a	RESPONSE	n/a	n/a	n/a	n/a	n/a	n/a	n/a	red
369.5128	1.0167	ITI	n/a	n/a	n/a	n/a	n/a	n/a	n/a	n/a
370.5295	0.5167	FIXCROSS	n/a	n/a	n/a	n/a	n/a	n/a	n/a	n/a
371.0462	1.05	COLOR_NAME	34	Incongruent	żółty	yellow	zielony	green	hit	n/a
372.0685	n/a	RESPONSE	n/a	n/a	n/a	n/a	n/a	n/a	n/a	yellow
372.0962	1.0167	ITI	n/a	n/a	n/a	n/a	n/a	n/a	n/a	n/a
373.1128	0.5167	FIXCROSS	n/a	n/a	n/a	n/a	n/a	n/a	n/a	n/a
373.6295	1.0833	COLOR_NAME	35	Incongruent	niebieski	blue	czerwony	red	hit	n/a
374.6886	n/a	RESPONSE	n/a	n/a	n/a	n/a	n/a	n/a	n/a	blue
374.7128	1.0167	ITI	n/a	n/a	n/a	n/a	n/a	n/a	n/a	n/a
375.7295	0.5167	FIXCROSS	n/a	n/a	n/a	n/a	n/a	n/a	n/a	n/a
376.2462	0.8333	COLOR_NAME	36	Incongruent	zielony	green	żółty	yellow	hit	n/a
377.0531	n/a	RESPONSE	n/a	n/a	n/a	n/a	n/a	n/a	n/a	green
377.0795	1.0167	ITI	n/a	n/a	n/a	n/a	n/a	n/a	n/a	n/a
378.0962	0.5167	FIXCROSS	n/a	n/a	n/a	n/a	n/a	n/a	n/a	n/a
378.6129	0.55	COLOR_NAME	37	Incongruent	zielony	green	niebieski	blue	hit	n/a
379.1299	n/a	RESPONSE	n/a	n/a	n/a	n/a	n/a	n/a	n/a	green
379.1629	1.0167	ITI	n/a	n/a	n/a	n/a	n/a	n/a	n/a	n/a
380.1796	0.5167	FIXCROSS	n/a	n/a	n/a	n/a	n/a	n/a	n/a	n/a
380.6962	0.4667	COLOR_NAME	38	Neutral	zielony	green	Neutral	Neutral	hit	n/a
381.1429	n/a	RESPONSE	n/a	n/a	n/a	n/a	n/a	n/a	n/a	green
381.1629	1.0167	ITI	n/a	n/a	n/a	n/a	n/a	n/a	n/a	n/a
382.1796	0.5167	FIXCROSS	n/a	n/a	n/a	n/a	n/a	n/a	n/a	n/a
382.6962	0.7167	COLOR_NAME	39	Neutral	czerwony	red	Neutral	Neutral	hit	n/a
383.3795	n/a	RESPONSE	n/a	n/a	n/a	n/a	n/a	n/a	n/a	red
383.4129	1.0167	ITI	n/a	n/a	n/a	n/a	n/a	n/a	n/a	n/a
384.4296	0.5167	FIXCROSS	n/a	n/a	n/a	n/a	n/a	n/a	n/a	n/a
384.9463	0.5667	COLOR_NAME	40	Neutral	niebieski	blue	Neutral	Neutral	hit	n/a
385.4882	n/a	RESPONSE	n/a	n/a	n/a	n/a	n/a	n/a	n/a	blue
385.5129	1.0167	ITI	n/a	n/a	n/a	n/a	n/a	n/a	n/a	n/a
386.5296	0.5167	FIXCROSS	n/a	n/a	n/a	n/a	n/a	n/a	n/a	n/a
387.0463	0.6167	COLOR_NAME	41	Incongruent	czerwony	red	niebieski	blue	hit	n/a
387.645	n/a	RESPONSE	n/a	n/a	n/a	n/a	n/a	n/a	n/a	red
387.663	1.0167	ITI	n/a	n/a	n/a	n/a	n/a	n/a	n/a	n/a
388.6796	0.5167	FIXCROSS	n/a	n/a	n/a	n/a	n/a	n/a	n/a	n/a
389.1963	0.9667	COLOR_NAME	42	Neutral	zielony	green	Neutral	Neutral	hit	n/a
390.1372	n/a	RESPONSE	n/a	n/a	n/a	n/a	n/a	n/a	n/a	green
390.163	1.0167	ITI	n/a	n/a	n/a	n/a	n/a	n/a	n/a	n/a
391.1796	0.5167	FIXCROSS	n/a	n/a	n/a	n/a	n/a	n/a	n/a	n/a
391.6963	0.55	COLOR_NAME	43	Neutral	zielony	green	Neutral	Neutral	hit	n/a
392.2141	n/a	RESPONSE	n/a	n/a	n/a	n/a	n/a	n/a	n/a	green
392.2463	1.0167	ITI	n/a	n/a	n/a	n/a	n/a	n/a	n/a	n/a
393.263	0.5167	FIXCROSS	n/a	n/a	n/a	n/a	n/a	n/a	n/a	n/a
393.7797	0.9667	COLOR_NAME	44	Incongruent	niebieski	blue	czerwony	red	hit	n/a
394.7223	n/a	RESPONSE	n/a	n/a	n/a	n/a	n/a	n/a	n/a	blue
394.7463	1.0167	ITI	n/a	n/a	n/a	n/a	n/a	n/a	n/a	n/a
395.763	0.5167	FIXCROSS	n/a	n/a	n/a	n/a	n/a	n/a	n/a	n/a
396.2797	0.55	COLOR_NAME	45	Neutral	niebieski	blue	Neutral	Neutral	hit	n/a
396.7991	n/a	RESPONSE	n/a	n/a	n/a	n/a	n/a	n/a	n/a	blue
396.8297	1.0167	ITI	n/a	n/a	n/a	n/a	n/a	n/a	n/a	n/a
397.8464	0.5167	FIXCROSS	n/a	n/a	n/a	n/a	n/a	n/a	n/a	n/a
398.363	0.5333	COLOR_NAME	46	Incongruent	niebieski	blue	żółty	yellow	hit	n/a
398.8759	n/a	RESPONSE	n/a	n/a	n/a	n/a	n/a	n/a	n/a	blue
398.8964	1.0167	ITI	n/a	n/a	n/a	n/a	n/a	n/a	n/a	n/a
399.913	0.5167	FIXCROSS	n/a	n/a	n/a	n/a	n/a	n/a	n/a	n/a
400.4297	0.5667	COLOR_NAME	47	Neutral	czerwony	red	Neutral	Neutral	hit	n/a
400.9687	n/a	RESPONSE	n/a	n/a	n/a	n/a	n/a	n/a	n/a	red
400.9964	1.0167	ITI	n/a	n/a	n/a	n/a	n/a	n/a	n/a	n/a
402.0131	0.5167	FIXCROSS	n/a	n/a	n/a	n/a	n/a	n/a	n/a	n/a
402.5297	0.5333	COLOR_NAME	48	Neutral	żółty	yellow	Neutral	Neutral	hit	n/a
403.0296	n/a	RESPONSE	n/a	n/a	n/a	n/a	n/a	n/a	n/a	yellow
403.0631	1.0167	ITI	n/a	n/a	n/a	n/a	n/a	n/a	n/a	n/a
404.0797	0.5167	FIXCROSS	n/a	n/a	n/a	n/a	n/a	n/a	n/a	n/a
404.5964	0.75	COLOR_NAME	49	Neutral	niebieski	blue	Neutral	Neutral	incorrect	n/a
405.314	n/a	RESPONSE	n/a	n/a	n/a	n/a	n/a	n/a	n/a	red
405.3464	1.0167	ITI	n/a	n/a	n/a	n/a	n/a	n/a	n/a	n/a
406.3631	0.5167	FIXCROSS	n/a	n/a	n/a	n/a	n/a	n/a	n/a	n/a
406.8798	1.2	COLOR_NAME	50	Neutral	zielony	green	Neutral	Neutral	hit	n/a
408.0458	n/a	RESPONSE	n/a	n/a	n/a	n/a	n/a	n/a	n/a	green
408.0798	1.0167	ITI	n/a	n/a	n/a	n/a	n/a	n/a	n/a	n/a
409.0964	0.5167	FIXCROSS	n/a	n/a	n/a	n/a	n/a	n/a	n/a	n/a
409.6131	1.5	COLOR_NAME	51	Incongruent	czerwony	red	żółty	yellow	hit	n/a
411.0813	n/a	RESPONSE	n/a	n/a	n/a	n/a	n/a	n/a	n/a	red
411.1131	1.0167	ITI	n/a	n/a	n/a	n/a	n/a	n/a	n/a	n/a
412.1298	0.5167	FIXCROSS	n/a	n/a	n/a	n/a	n/a	n/a	n/a	n/a
412.6465	1.1333	COLOR_NAME	52	Incongruent	zielony	green	czerwony	red	hit	n/a
413.7493	n/a	RESPONSE	n/a	n/a	n/a	n/a	n/a	n/a	n/a	green
413.7798	1.0167	ITI	n/a	n/a	n/a	n/a	n/a	n/a	n/a	n/a
414.7965	0.5167	FIXCROSS	n/a	n/a	n/a	n/a	n/a	n/a	n/a	n/a
415.3132	0.7667	COLOR_NAME	53	Incongruent	niebieski	blue	zielony	green	hit	n/a
416.0498	n/a	RESPONSE	n/a	n/a	n/a	n/a	n/a	n/a	n/a	blue
416.0798	1.0167	ITI	n/a	n/a	n/a	n/a	n/a	n/a	n/a	n/a
417.0965	0.5167	FIXCROSS	n/a	n/a	n/a	n/a	n/a	n/a	n/a	n/a
417.6132	0.9667	COLOR_NAME	54	Incongruent	zielony	green	czerwony	red	hit	n/a
418.558	n/a	RESPONSE	n/a	n/a	n/a	n/a	n/a	n/a	n/a	green
418.5799	1.0167	ITI	n/a	n/a	n/a	n/a	n/a	n/a	n/a	n/a
419.5965	0.5167	FIXCROSS	n/a	n/a	n/a	n/a	n/a	n/a	n/a	n/a
420.1132	0.6667	COLOR_NAME	55	Neutral	niebieski	blue	Neutral	Neutral	hit	n/a
420.7626	n/a	RESPONSE	n/a	n/a	n/a	n/a	n/a	n/a	n/a	blue
420.7799	1.0167	ITI	n/a	n/a	n/a	n/a	n/a	n/a	n/a	n/a
421.7965	0.5167	FIXCROSS	n/a	n/a	n/a	n/a	n/a	n/a	n/a	n/a
422.3132	0.5667	COLOR_NAME	56	Incongruent	żółty	yellow	czerwony	red	hit	n/a
422.8555	n/a	RESPONSE	n/a	n/a	n/a	n/a	n/a	n/a	n/a	yellow
422.8799	1.0167	ITI	n/a	n/a	n/a	n/a	n/a	n/a	n/a	n/a
423.8966	0.5167	FIXCROSS	n/a	n/a	n/a	n/a	n/a	n/a	n/a	n/a
424.4132	0.5833	COLOR_NAME	57	Neutral	czerwony	red	Neutral	Neutral	hit	n/a
424.9643	n/a	RESPONSE	n/a	n/a	n/a	n/a	n/a	n/a	n/a	red
424.9966	1.0167	ITI	n/a	n/a	n/a	n/a	n/a	n/a	n/a	n/a
426.0132	0.5167	FIXCROSS	n/a	n/a	n/a	n/a	n/a	n/a	n/a	n/a
426.5299	0.9	COLOR_NAME	58	Incongruent	zielony	green	żółty	yellow	hit	n/a
427.4085	n/a	RESPONSE	n/a	n/a	n/a	n/a	n/a	n/a	n/a	green
427.4299	1.0167	ITI	n/a	n/a	n/a	n/a	n/a	n/a	n/a	n/a
428.4466	0.5167	FIXCROSS	n/a	n/a	n/a	n/a	n/a	n/a	n/a	n/a
428.9633	0.7667	COLOR_NAME	59	Neutral	czerwony	red	Neutral	Neutral	hit	n/a
429.7091	n/a	RESPONSE	n/a	n/a	n/a	n/a	n/a	n/a	n/a	red
429.7299	1.0167	ITI	n/a	n/a	n/a	n/a	n/a	n/a	n/a	n/a
430.7466	0.5167	FIXCROSS	n/a	n/a	n/a	n/a	n/a	n/a	n/a	n/a
431.2633	0.8667	COLOR_NAME	60	Incongruent	niebieski	blue	żółty	yellow	hit	n/a
432.1055	n/a	RESPONSE	n/a	n/a	n/a	n/a	n/a	n/a	n/a	blue
432.13	1.0167	ITI	n/a	n/a	n/a	n/a	n/a	n/a	n/a	n/a
433.1466	0.5167	FIXCROSS	n/a	n/a	n/a	n/a	n/a	n/a	n/a	n/a
433.6633	1.45	COLOR_NAME	61	Incongruent	czerwony	red	niebieski	blue	hit	n/a
435.0928	n/a	RESPONSE	n/a	n/a	n/a	n/a	n/a	n/a	n/a	red
435.1133	1.0167	ITI	n/a	n/a	n/a	n/a	n/a	n/a	n/a	n/a
436.13	0.5167	FIXCROSS	n/a	n/a	n/a	n/a	n/a	n/a	n/a	n/a
436.6467	0.85	COLOR_NAME	62	Incongruent	żółty	yellow	zielony	green	hit	n/a
437.4733	n/a	RESPONSE	n/a	n/a	n/a	n/a	n/a	n/a	n/a	yellow
437.4967	1.0167	ITI	n/a	n/a	n/a	n/a	n/a	n/a	n/a	n/a
438.5133	0.5167	FIXCROSS	n/a	n/a	n/a	n/a	n/a	n/a	n/a	n/a
439.03	0.6333	COLOR_NAME	63	Incongruent	czerwony	red	żółty	yellow	hit	n/a
439.63	n/a	RESPONSE	n/a	n/a	n/a	n/a	n/a	n/a	n/a	red
439.6633	1.0167	ITI	n/a	n/a	n/a	n/a	n/a	n/a	n/a	n/a
440.68	0.5167	FIXCROSS	n/a	n/a	n/a	n/a	n/a	n/a	n/a	n/a
441.1967	0.9333	COLOR_NAME	64	Neutral	niebieski	blue	Neutral	Neutral	hit	n/a
442.1061	n/a	RESPONSE	n/a	n/a	n/a	n/a	n/a	n/a	n/a	blue
442.13	1.0167	ITI	n/a	n/a	n/a	n/a	n/a	n/a	n/a	n/a
443.1467	0.5167	FIXCROSS	n/a	n/a	n/a	n/a	n/a	n/a	n/a	n/a
443.6634	1.1167	COLOR_NAME	65	Incongruent	zielony	green	czerwony	red	hit	n/a
444.7581	n/a	RESPONSE	n/a	n/a	n/a	n/a	n/a	n/a	n/a	green
444.7801	1.0167	ITI	n/a	n/a	n/a	n/a	n/a	n/a	n/a	n/a
445.7967	0.5167	FIXCROSS	n/a	n/a	n/a	n/a	n/a	n/a	n/a	n/a
446.3134	0.9333	COLOR_NAME	66	Neutral	żółty	yellow	Neutral	Neutral	hit	n/a
447.2184	n/a	RESPONSE	n/a	n/a	n/a	n/a	n/a	n/a	n/a	yellow
447.2467	1.0167	ITI	n/a	n/a	n/a	n/a	n/a	n/a	n/a	n/a
448.2634	0.5167	FIXCROSS	n/a	n/a	n/a	n/a	n/a	n/a	n/a	n/a
448.7801	0.7167	COLOR_NAME	67	Incongruent	żółty	yellow	czerwony	red	hit	n/a
449.471	n/a	RESPONSE	n/a	n/a	n/a	n/a	n/a	n/a	n/a	yellow
449.4968	1.0167	ITI	n/a	n/a	n/a	n/a	n/a	n/a	n/a	n/a
450.5134	0.5167	FIXCROSS	n/a	n/a	n/a	n/a	n/a	n/a	n/a	n/a
451.0301	0.55	COLOR_NAME	68	Neutral	żółty	yellow	Neutral	Neutral	hit	n/a
451.5478	n/a	RESPONSE	n/a	n/a	n/a	n/a	n/a	n/a	n/a	yellow
451.5801	1.0167	ITI	n/a	n/a	n/a	n/a	n/a	n/a	n/a	n/a
452.5968	0.5167	FIXCROSS	n/a	n/a	n/a	n/a	n/a	n/a	n/a	n/a
453.1135	0.5167	COLOR_NAME	69	Incongruent	żółty	yellow	czerwony	red	hit	n/a
453.6089	n/a	RESPONSE	n/a	n/a	n/a	n/a	n/a	n/a	n/a	yellow
453.6301	1.0167	ITI	n/a	n/a	n/a	n/a	n/a	n/a	n/a	n/a
454.6468	0.5167	FIXCROSS	n/a	n/a	n/a	n/a	n/a	n/a	n/a	n/a
455.1635	0.55	COLOR_NAME	70	Incongruent	czerwony	red	zielony	green	hit	n/a
455.6856	n/a	RESPONSE	n/a	n/a	n/a	n/a	n/a	n/a	n/a	red
455.7135	1.0167	ITI	n/a	n/a	n/a	n/a	n/a	n/a	n/a	n/a
456.7301	0.5167	FIXCROSS	n/a	n/a	n/a	n/a	n/a	n/a	n/a	n/a
457.2468	0.5333	COLOR_NAME	71	Neutral	czerwony	red	Neutral	Neutral	hit	n/a
457.7465	n/a	RESPONSE	n/a	n/a	n/a	n/a	n/a	n/a	n/a	red
457.7802	1.0167	ITI	n/a	n/a	n/a	n/a	n/a	n/a	n/a	n/a
458.7968	0.5167	FIXCROSS	n/a	n/a	n/a	n/a	n/a	n/a	n/a	n/a
459.3135	1.0333	COLOR_NAME	72	Incongruent	żółty	yellow	niebieski	blue	hit	n/a
460.3186	n/a	RESPONSE	n/a	n/a	n/a	n/a	n/a	n/a	n/a	yellow
460.3468	1.0333	ITI	n/a	n/a	n/a	n/a	n/a	n/a	n/a	n/a
465.2711	n/a	RESPONSE	n/a	n/a	n/a	n/a	n/a	n/a	n/a	n/a
