onset	duration	trial_type	trial_number	stroop_condition	stim_text(PL)	stim_text(eng)	stim_color(PL)	stim_color(eng)	response_type	response_color
0.0	n/a	RESPONSE	n/a	n/a	n/a	n/a	n/a	n/a	n/a	n/a
0.0268	1.0166	ITI	n/a	n/a	n/a	n/a	n/a	n/a	n/a	n/a
1.0434	0.5	FIXCROSS	n/a	n/a	n/a	n/a	n/a	n/a	n/a	n/a
1.5434	1.9166	T_INK	1	Neutral	xxxxx	xxxxx	czerwony	red	hit	n/a
3.4538	n/a	RESPONSE	n/a	n/a	n/a	n/a	n/a	n/a	n/a	red
3.4601	0.5	FEEDBACK	n/a	n/a	n/a	n/a	n/a	n/a	n/a	n/a
3.96	1.0	ITI	n/a	n/a	n/a	n/a	n/a	n/a	n/a	n/a
4.96	0.5	FIXCROSS	n/a	n/a	n/a	n/a	n/a	n/a	n/a	n/a
5.46	1.5	T_INK	2	Incongruent	niebieski	blue	zielony	green	hit	n/a
6.9556	n/a	RESPONSE	n/a	n/a	n/a	n/a	n/a	n/a	n/a	green
6.96	0.5	FEEDBACK	n/a	n/a	n/a	n/a	n/a	n/a	n/a	n/a
7.46	1.0	ITI	n/a	n/a	n/a	n/a	n/a	n/a	n/a	n/a
8.46	0.5	FIXCROSS	n/a	n/a	n/a	n/a	n/a	n/a	n/a	n/a
8.96	0.9166	T_INK	3	Neutral	xxxxxxx	xxxxxxx	niebieski	blue	hit	n/a
9.8656	n/a	RESPONSE	n/a	n/a	n/a	n/a	n/a	n/a	n/a	blue
9.8766	0.5	FEEDBACK	n/a	n/a	n/a	n/a	n/a	n/a	n/a	n/a
10.3766	1.0	ITI	n/a	n/a	n/a	n/a	n/a	n/a	n/a	n/a
11.3766	0.5	FIXCROSS	n/a	n/a	n/a	n/a	n/a	n/a	n/a	n/a
11.8766	0.9333	T_INK	4	Neutral	xxxxxxx	xxxxxxx	żółty	yellow	hit	n/a
12.7916	n/a	RESPONSE	n/a	n/a	n/a	n/a	n/a	n/a	n/a	yellow
12.8099	0.5	FEEDBACK	n/a	n/a	n/a	n/a	n/a	n/a	n/a	n/a
13.3099	1.0	ITI	n/a	n/a	n/a	n/a	n/a	n/a	n/a	n/a
14.3099	0.5	FIXCROSS	n/a	n/a	n/a	n/a	n/a	n/a	n/a	n/a
14.8099	1.2	T_INK	5	Incongruent	zielony	green	niebieski	blue	hit	n/a
15.9896	n/a	RESPONSE	n/a	n/a	n/a	n/a	n/a	n/a	n/a	blue
16.0098	0.5	FEEDBACK	n/a	n/a	n/a	n/a	n/a	n/a	n/a	n/a
16.5098	1.0	ITI	n/a	n/a	n/a	n/a	n/a	n/a	n/a	n/a
17.5098	0.5	FIXCROSS	n/a	n/a	n/a	n/a	n/a	n/a	n/a	n/a
18.0098	0.8667	T_INK	6	Neutral	xxxxx	xxxxx	zielony	green	hit	n/a
18.8677	n/a	RESPONSE	n/a	n/a	n/a	n/a	n/a	n/a	n/a	green
18.8764	0.5	FEEDBACK	n/a	n/a	n/a	n/a	n/a	n/a	n/a	n/a
19.3764	1.0	ITI	n/a	n/a	n/a	n/a	n/a	n/a	n/a	n/a
20.3764	0.5	FIXCROSS	n/a	n/a	n/a	n/a	n/a	n/a	n/a	n/a
20.8764	0.95	T_INK	7	Neutral	xxxxxxx	xxxxxxx	czerwony	red	hit	n/a
21.8098	n/a	RESPONSE	n/a	n/a	n/a	n/a	n/a	n/a	n/a	red
21.8264	0.5	FEEDBACK	n/a	n/a	n/a	n/a	n/a	n/a	n/a	n/a
22.3264	1.0	ITI	n/a	n/a	n/a	n/a	n/a	n/a	n/a	n/a
23.3264	0.5	FIXCROSS	n/a	n/a	n/a	n/a	n/a	n/a	n/a	n/a
23.8264	1.0167	T_INK	8	Incongruent	zielony	green	czerwony	red	hit	n/a
24.8319	n/a	RESPONSE	n/a	n/a	n/a	n/a	n/a	n/a	n/a	red
24.843	0.4999	FEEDBACK	n/a	n/a	n/a	n/a	n/a	n/a	n/a	n/a
25.343	1.0	ITI	n/a	n/a	n/a	n/a	n/a	n/a	n/a	n/a
26.343	0.5	FIXCROSS	n/a	n/a	n/a	n/a	n/a	n/a	n/a	n/a
26.843	0.6333	T_INK	9	Neutral	xxxxxxxxx	xxxxxxxxx	czerwony	red	hit	n/a
27.4701	n/a	RESPONSE	n/a	n/a	n/a	n/a	n/a	n/a	n/a	red
27.4763	0.5	FEEDBACK	n/a	n/a	n/a	n/a	n/a	n/a	n/a	n/a
27.9763	1.0166	ITI	n/a	n/a	n/a	n/a	n/a	n/a	n/a	n/a
28.9929	0.5	FIXCROSS	n/a	n/a	n/a	n/a	n/a	n/a	n/a	n/a
29.4929	0.9667	T_INK	10	Incongruent	żółty	yellow	czerwony	red	hit	n/a
30.4442	n/a	RESPONSE	n/a	n/a	n/a	n/a	n/a	n/a	n/a	red
30.4596	0.5	FEEDBACK	n/a	n/a	n/a	n/a	n/a	n/a	n/a	n/a
30.9596	1.0	ITI	n/a	n/a	n/a	n/a	n/a	n/a	n/a	n/a
31.9595	0.5	FIXCROSS	n/a	n/a	n/a	n/a	n/a	n/a	n/a	n/a
32.4595	1.4833	T_INK	11	Incongruent	zielony	green	żółty	yellow	hit	n/a
33.93	n/a	RESPONSE	n/a	n/a	n/a	n/a	n/a	n/a	n/a	yellow
33.9428	0.5	FEEDBACK	n/a	n/a	n/a	n/a	n/a	n/a	n/a	n/a
34.4428	1.0	ITI	n/a	n/a	n/a	n/a	n/a	n/a	n/a	n/a
35.4428	0.5	FIXCROSS	n/a	n/a	n/a	n/a	n/a	n/a	n/a	n/a
35.9428	1.0666	T_INK	12	Incongruent	niebieski	blue	czerwony	red	hit	n/a
37.0	n/a	RESPONSE	n/a	n/a	n/a	n/a	n/a	n/a	n/a	red
37.0095	0.5	FEEDBACK	n/a	n/a	n/a	n/a	n/a	n/a	n/a	n/a
37.5094	1.0	ITI	n/a	n/a	n/a	n/a	n/a	n/a	n/a	n/a
45.6664	n/a	RESPONSE	n/a	n/a	n/a	n/a	n/a	n/a	n/a	n/a
45.6926	1.0	ITI	n/a	n/a	n/a	n/a	n/a	n/a	n/a	n/a
46.6926	0.5	FIXCROSS	n/a	n/a	n/a	n/a	n/a	n/a	n/a	n/a
47.1926	1.4166	INK	1	Incongruent	żółty	yellow	niebieski	blue	hit	n/a
48.5924	n/a	RESPONSE	n/a	n/a	n/a	n/a	n/a	n/a	n/a	blue
48.6092	1.0	ITI	n/a	n/a	n/a	n/a	n/a	n/a	n/a	n/a
49.6092	0.5	FIXCROSS	n/a	n/a	n/a	n/a	n/a	n/a	n/a	n/a
50.1092	1.3	INK	2	Incongruent	niebieski	blue	zielony	green	hit	n/a
51.3908	n/a	RESPONSE	n/a	n/a	n/a	n/a	n/a	n/a	n/a	green
51.4092	1.0	ITI	n/a	n/a	n/a	n/a	n/a	n/a	n/a	n/a
52.4092	0.5	FIXCROSS	n/a	n/a	n/a	n/a	n/a	n/a	n/a	n/a
52.9092	0.9666	INK	3	Incongruent	niebieski	blue	czerwony	red	hit	n/a
53.869	n/a	RESPONSE	n/a	n/a	n/a	n/a	n/a	n/a	n/a	red
53.8758	1.0	ITI	n/a	n/a	n/a	n/a	n/a	n/a	n/a	n/a
54.8758	0.5	FIXCROSS	n/a	n/a	n/a	n/a	n/a	n/a	n/a	n/a
55.3758	0.9833	INK	4	Neutral	xxxxxxx	xxxxxxx	żółty	yellow	hit	n/a
56.3474	n/a	RESPONSE	n/a	n/a	n/a	n/a	n/a	n/a	n/a	yellow
56.3591	1.0	ITI	n/a	n/a	n/a	n/a	n/a	n/a	n/a	n/a
57.3591	0.5	FIXCROSS	n/a	n/a	n/a	n/a	n/a	n/a	n/a	n/a
57.8591	1.0166	INK	5	Incongruent	zielony	green	żółty	yellow	hit	n/a
58.8577	n/a	RESPONSE	n/a	n/a	n/a	n/a	n/a	n/a	n/a	yellow
58.8757	1.0	ITI	n/a	n/a	n/a	n/a	n/a	n/a	n/a	n/a
59.8757	0.5	FIXCROSS	n/a	n/a	n/a	n/a	n/a	n/a	n/a	n/a
60.3757	0.7166	INK	6	Neutral	xxxxxxx	xxxxxxx	czerwony	red	hit	n/a
61.0803	n/a	RESPONSE	n/a	n/a	n/a	n/a	n/a	n/a	n/a	red
61.0923	1.0	ITI	n/a	n/a	n/a	n/a	n/a	n/a	n/a	n/a
62.0923	0.5	FIXCROSS	n/a	n/a	n/a	n/a	n/a	n/a	n/a	n/a
62.5923	0.9166	INK	7	Neutral	xxxxxxxxx	xxxxxxxxx	zielony	green	hit	n/a
63.4948	n/a	RESPONSE	n/a	n/a	n/a	n/a	n/a	n/a	n/a	green
63.509	1.0	ITI	n/a	n/a	n/a	n/a	n/a	n/a	n/a	n/a
64.509	0.5	FIXCROSS	n/a	n/a	n/a	n/a	n/a	n/a	n/a	n/a
65.009	0.9667	INK	8	Incongruent	czerwony	red	zielony	green	hit	n/a
65.9572	n/a	RESPONSE	n/a	n/a	n/a	n/a	n/a	n/a	n/a	green
65.9756	1.0	ITI	n/a	n/a	n/a	n/a	n/a	n/a	n/a	n/a
66.9756	0.5	FIXCROSS	n/a	n/a	n/a	n/a	n/a	n/a	n/a	n/a
67.4756	0.8167	INK	9	Neutral	xxxxxxxxx	xxxxxxxxx	zielony	green	hit	n/a
68.2756	n/a	RESPONSE	n/a	n/a	n/a	n/a	n/a	n/a	n/a	green
68.2922	1.0	ITI	n/a	n/a	n/a	n/a	n/a	n/a	n/a	n/a
69.2922	0.5	FIXCROSS	n/a	n/a	n/a	n/a	n/a	n/a	n/a	n/a
69.7922	0.8167	INK	10	Incongruent	żółty	yellow	zielony	green	hit	n/a
70.5941	n/a	RESPONSE	n/a	n/a	n/a	n/a	n/a	n/a	n/a	green
70.6089	1.0	ITI	n/a	n/a	n/a	n/a	n/a	n/a	n/a	n/a
71.6089	0.5	FIXCROSS	n/a	n/a	n/a	n/a	n/a	n/a	n/a	n/a
72.1088	1.25	INK	11	Incongruent	żółty	yellow	niebieski	blue	hit	n/a
73.3444	n/a	RESPONSE	n/a	n/a	n/a	n/a	n/a	n/a	n/a	blue
73.3588	1.0	ITI	n/a	n/a	n/a	n/a	n/a	n/a	n/a	n/a
74.3588	0.5	FIXCROSS	n/a	n/a	n/a	n/a	n/a	n/a	n/a	n/a
74.8588	0.7333	INK	12	Neutral	xxxxxxxx	xxxxxxxx	niebieski	blue	hit	n/a
75.5828	n/a	RESPONSE	n/a	n/a	n/a	n/a	n/a	n/a	n/a	blue
75.5921	1.0	ITI	n/a	n/a	n/a	n/a	n/a	n/a	n/a	n/a
76.5921	0.5	FIXCROSS	n/a	n/a	n/a	n/a	n/a	n/a	n/a	n/a
77.0921	0.55	INK	13	Neutral	xxxxxxxx	xxxxxxxx	niebieski	blue	hit	n/a
77.6296	n/a	RESPONSE	n/a	n/a	n/a	n/a	n/a	n/a	n/a	blue
77.6421	1.0	ITI	n/a	n/a	n/a	n/a	n/a	n/a	n/a	n/a
78.642	0.5	FIXCROSS	n/a	n/a	n/a	n/a	n/a	n/a	n/a	n/a
79.142	0.6	INK	14	Neutral	xxxxxxxx	xxxxxxxx	żółty	yellow	hit	n/a
79.7242	n/a	RESPONSE	n/a	n/a	n/a	n/a	n/a	n/a	n/a	yellow
79.742	1.0	ITI	n/a	n/a	n/a	n/a	n/a	n/a	n/a	n/a
80.742	0.5	FIXCROSS	n/a	n/a	n/a	n/a	n/a	n/a	n/a	n/a
81.242	1.1833	INK	15	Incongruent	żółty	yellow	zielony	green	hit	n/a
82.4104	n/a	RESPONSE	n/a	n/a	n/a	n/a	n/a	n/a	n/a	green
82.4253	1.0	ITI	n/a	n/a	n/a	n/a	n/a	n/a	n/a	n/a
83.4253	0.5	FIXCROSS	n/a	n/a	n/a	n/a	n/a	n/a	n/a	n/a
83.9253	0.9833	INK	16	Incongruent	czerwony	red	żółty	yellow	hit	n/a
84.9048	n/a	RESPONSE	n/a	n/a	n/a	n/a	n/a	n/a	n/a	yellow
84.9086	1.0	ITI	n/a	n/a	n/a	n/a	n/a	n/a	n/a	n/a
85.9086	0.5	FIXCROSS	n/a	n/a	n/a	n/a	n/a	n/a	n/a	n/a
86.4086	0.8	INK	17	Neutral	xxxxx	xxxxx	zielony	green	hit	n/a
87.1913	n/a	RESPONSE	n/a	n/a	n/a	n/a	n/a	n/a	n/a	green
87.2086	1.0	ITI	n/a	n/a	n/a	n/a	n/a	n/a	n/a	n/a
88.2086	0.5	FIXCROSS	n/a	n/a	n/a	n/a	n/a	n/a	n/a	n/a
88.7085	0.7667	INK	18	Incongruent	zielony	green	niebieski	blue	hit	n/a
89.4618	n/a	RESPONSE	n/a	n/a	n/a	n/a	n/a	n/a	n/a	blue
89.4752	1.0	ITI	n/a	n/a	n/a	n/a	n/a	n/a	n/a	n/a
90.4752	0.5	FIXCROSS	n/a	n/a	n/a	n/a	n/a	n/a	n/a	n/a
90.9752	0.6833	INK	19	Neutral	xxxxx	xxxxx	czerwony	red	hit	n/a
91.6524	n/a	RESPONSE	n/a	n/a	n/a	n/a	n/a	n/a	n/a	red
91.6585	1.0	ITI	n/a	n/a	n/a	n/a	n/a	n/a	n/a	n/a
92.6584	0.5	FIXCROSS	n/a	n/a	n/a	n/a	n/a	n/a	n/a	n/a
93.1585	0.7667	INK	20	Neutral	xxxxxxxx	xxxxxxxx	zielony	green	hit	n/a
93.9069	n/a	RESPONSE	n/a	n/a	n/a	n/a	n/a	n/a	n/a	green
93.9251	1.0	ITI	n/a	n/a	n/a	n/a	n/a	n/a	n/a	n/a
94.9251	0.5	FIXCROSS	n/a	n/a	n/a	n/a	n/a	n/a	n/a	n/a
95.4251	0.6833	INK	21	Neutral	xxxxxxx	xxxxxxx	czerwony	red	hit	n/a
96.0975	n/a	RESPONSE	n/a	n/a	n/a	n/a	n/a	n/a	n/a	red
96.1084	1.0	ITI	n/a	n/a	n/a	n/a	n/a	n/a	n/a	n/a
97.1084	0.5	FIXCROSS	n/a	n/a	n/a	n/a	n/a	n/a	n/a	n/a
97.6084	0.65	INK	22	Neutral	xxxxxxx	xxxxxxx	żółty	yellow	hit	n/a
98.2401	n/a	RESPONSE	n/a	n/a	n/a	n/a	n/a	n/a	n/a	yellow
98.2584	1.0	ITI	n/a	n/a	n/a	n/a	n/a	n/a	n/a	n/a
99.2583	0.5	FIXCROSS	n/a	n/a	n/a	n/a	n/a	n/a	n/a	n/a
99.7583	0.9	INK	23	Incongruent	czerwony	red	zielony	green	hit	n/a
100.6544	n/a	RESPONSE	n/a	n/a	n/a	n/a	n/a	n/a	n/a	green
100.6583	1.0	ITI	n/a	n/a	n/a	n/a	n/a	n/a	n/a	n/a
101.6583	0.5	FIXCROSS	n/a	n/a	n/a	n/a	n/a	n/a	n/a	n/a
102.1583	0.85	INK	24	Incongruent	czerwony	red	żółty	yellow	hit	n/a
102.989	n/a	RESPONSE	n/a	n/a	n/a	n/a	n/a	n/a	n/a	yellow
103.0083	1.0	ITI	n/a	n/a	n/a	n/a	n/a	n/a	n/a	n/a
104.0083	0.5	FIXCROSS	n/a	n/a	n/a	n/a	n/a	n/a	n/a	n/a
104.5083	0.8667	INK	25	Neutral	xxxxxxxx	xxxxxxxx	zielony	green	hit	n/a
105.3555	n/a	RESPONSE	n/a	n/a	n/a	n/a	n/a	n/a	n/a	green
105.3749	1.0	ITI	n/a	n/a	n/a	n/a	n/a	n/a	n/a	n/a
106.3749	0.5	FIXCROSS	n/a	n/a	n/a	n/a	n/a	n/a	n/a	n/a
106.8749	0.6833	INK	26	Incongruent	niebieski	blue	czerwony	red	hit	n/a
107.546	n/a	RESPONSE	n/a	n/a	n/a	n/a	n/a	n/a	n/a	red
107.5582	1.0	ITI	n/a	n/a	n/a	n/a	n/a	n/a	n/a	n/a
108.5582	0.5	FIXCROSS	n/a	n/a	n/a	n/a	n/a	n/a	n/a	n/a
109.0582	0.6833	INK	27	Incongruent	zielony	green	żółty	yellow	hit	n/a
109.7366	n/a	RESPONSE	n/a	n/a	n/a	n/a	n/a	n/a	n/a	yellow
109.7415	1.0	ITI	n/a	n/a	n/a	n/a	n/a	n/a	n/a	n/a
110.7415	0.5	FIXCROSS	n/a	n/a	n/a	n/a	n/a	n/a	n/a	n/a
111.2415	0.6333	INK	28	Neutral	xxxxxxxxx	xxxxxxxxx	żółty	yellow	hit	n/a
111.8634	n/a	RESPONSE	n/a	n/a	n/a	n/a	n/a	n/a	n/a	yellow
111.8748	1.0	ITI	n/a	n/a	n/a	n/a	n/a	n/a	n/a	n/a
112.8748	0.5	FIXCROSS	n/a	n/a	n/a	n/a	n/a	n/a	n/a	n/a
113.3748	0.5167	INK	29	Neutral	xxxxxxxx	xxxxxxxx	żółty	yellow	hit	n/a
113.878	n/a	RESPONSE	n/a	n/a	n/a	n/a	n/a	n/a	n/a	yellow
113.8914	1.0	ITI	n/a	n/a	n/a	n/a	n/a	n/a	n/a	n/a
114.8914	0.5	FIXCROSS	n/a	n/a	n/a	n/a	n/a	n/a	n/a	n/a
115.3914	0.8333	INK	30	Incongruent	czerwony	red	niebieski	blue	hit	n/a
116.2125	n/a	RESPONSE	n/a	n/a	n/a	n/a	n/a	n/a	n/a	blue
116.2247	1.0	ITI	n/a	n/a	n/a	n/a	n/a	n/a	n/a	n/a
117.2247	0.5	FIXCROSS	n/a	n/a	n/a	n/a	n/a	n/a	n/a	n/a
117.7247	0.6833	INK	31	Neutral	xxxxxxx	xxxxxxx	czerwony	red	hit	n/a
118.4031	n/a	RESPONSE	n/a	n/a	n/a	n/a	n/a	n/a	n/a	red
118.408	1.0	ITI	n/a	n/a	n/a	n/a	n/a	n/a	n/a	n/a
119.408	0.5	FIXCROSS	n/a	n/a	n/a	n/a	n/a	n/a	n/a	n/a
119.908	0.7167	INK	32	Incongruent	zielony	green	czerwony	red	hit	n/a
120.6095	n/a	RESPONSE	n/a	n/a	n/a	n/a	n/a	n/a	n/a	red
120.6246	1.0	ITI	n/a	n/a	n/a	n/a	n/a	n/a	n/a	n/a
121.6246	0.5	FIXCROSS	n/a	n/a	n/a	n/a	n/a	n/a	n/a	n/a
122.1246	0.6833	INK	33	Incongruent	zielony	green	żółty	yellow	hit	n/a
122.8002	n/a	RESPONSE	n/a	n/a	n/a	n/a	n/a	n/a	n/a	yellow
122.8079	1.0	ITI	n/a	n/a	n/a	n/a	n/a	n/a	n/a	n/a
123.8079	0.5	FIXCROSS	n/a	n/a	n/a	n/a	n/a	n/a	n/a	n/a
124.3079	0.85	INK	34	Neutral	xxxxx	xxxxx	czerwony	red	hit	n/a
125.1507	n/a	RESPONSE	n/a	n/a	n/a	n/a	n/a	n/a	n/a	red
125.1579	1.0	ITI	n/a	n/a	n/a	n/a	n/a	n/a	n/a	n/a
126.1579	0.5	FIXCROSS	n/a	n/a	n/a	n/a	n/a	n/a	n/a	n/a
126.6579	0.7167	INK	35	Neutral	xxxxxxxxx	xxxxxxxxx	żółty	yellow	hit	n/a
127.3573	n/a	RESPONSE	n/a	n/a	n/a	n/a	n/a	n/a	n/a	yellow
127.3745	1.0	ITI	n/a	n/a	n/a	n/a	n/a	n/a	n/a	n/a
128.3745	0.5	FIXCROSS	n/a	n/a	n/a	n/a	n/a	n/a	n/a	n/a
128.8745	0.5833	INK	36	Neutral	xxxxxxxx	xxxxxxxx	żółty	yellow	hit	n/a
129.4519	n/a	RESPONSE	n/a	n/a	n/a	n/a	n/a	n/a	n/a	yellow
129.4578	1.0	ITI	n/a	n/a	n/a	n/a	n/a	n/a	n/a	n/a
130.4578	0.5	FIXCROSS	n/a	n/a	n/a	n/a	n/a	n/a	n/a	n/a
130.9578	0.85	INK	37	Neutral	xxxxxxxx	xxxxxxxx	zielony	green	hit	n/a
131.8024	n/a	RESPONSE	n/a	n/a	n/a	n/a	n/a	n/a	n/a	green
131.8078	1.0	ITI	n/a	n/a	n/a	n/a	n/a	n/a	n/a	n/a
132.8078	0.5	FIXCROSS	n/a	n/a	n/a	n/a	n/a	n/a	n/a	n/a
133.3077	0.7167	INK	38	Incongruent	zielony	green	czerwony	red	hit	n/a
134.009	n/a	RESPONSE	n/a	n/a	n/a	n/a	n/a	n/a	n/a	red
134.0244	1.0	ITI	n/a	n/a	n/a	n/a	n/a	n/a	n/a	n/a
135.0244	0.5	FIXCROSS	n/a	n/a	n/a	n/a	n/a	n/a	n/a	n/a
135.5244	0.9666	INK	39	Incongruent	żółty	yellow	niebieski	blue	hit	n/a
136.4874	n/a	RESPONSE	n/a	n/a	n/a	n/a	n/a	n/a	n/a	blue
136.491	1.0	ITI	n/a	n/a	n/a	n/a	n/a	n/a	n/a	n/a
137.491	0.5	FIXCROSS	n/a	n/a	n/a	n/a	n/a	n/a	n/a	n/a
137.991	0.9833	INK	40	Incongruent	czerwony	red	zielony	green	hit	n/a
138.9657	n/a	RESPONSE	n/a	n/a	n/a	n/a	n/a	n/a	n/a	green
138.9743	1.0	ITI	n/a	n/a	n/a	n/a	n/a	n/a	n/a	n/a
139.9743	0.5	FIXCROSS	n/a	n/a	n/a	n/a	n/a	n/a	n/a	n/a
140.4743	0.7333	INK	41	Neutral	xxxxx	xxxxx	niebieski	blue	hit	n/a
141.2043	n/a	RESPONSE	n/a	n/a	n/a	n/a	n/a	n/a	n/a	blue
141.2076	1.0	ITI	n/a	n/a	n/a	n/a	n/a	n/a	n/a	n/a
142.2076	0.5	FIXCROSS	n/a	n/a	n/a	n/a	n/a	n/a	n/a	n/a
142.7076	0.8167	INK	42	Neutral	xxxxxxxx	xxxxxxxx	niebieski	blue	hit	n/a
143.5068	n/a	RESPONSE	n/a	n/a	n/a	n/a	n/a	n/a	n/a	blue
143.5242	1.0	ITI	n/a	n/a	n/a	n/a	n/a	n/a	n/a	n/a
144.5242	0.5	FIXCROSS	n/a	n/a	n/a	n/a	n/a	n/a	n/a	n/a
145.0242	0.75	INK	43	Incongruent	żółty	yellow	czerwony	red	hit	n/a
145.7613	n/a	RESPONSE	n/a	n/a	n/a	n/a	n/a	n/a	n/a	red
145.7742	1.0	ITI	n/a	n/a	n/a	n/a	n/a	n/a	n/a	n/a
146.7742	0.5	FIXCROSS	n/a	n/a	n/a	n/a	n/a	n/a	n/a	n/a
147.2742	0.7667	INK	44	Incongruent	niebieski	blue	żółty	yellow	hit	n/a
148.0319	n/a	RESPONSE	n/a	n/a	n/a	n/a	n/a	n/a	n/a	yellow
148.0408	1.0	ITI	n/a	n/a	n/a	n/a	n/a	n/a	n/a	n/a
149.0408	0.5	FIXCROSS	n/a	n/a	n/a	n/a	n/a	n/a	n/a	n/a
149.5408	0.6167	INK	45	Neutral	xxxxxxxxx	xxxxxxxxx	żółty	yellow	hit	n/a
150.1425	n/a	RESPONSE	n/a	n/a	n/a	n/a	n/a	n/a	n/a	yellow
150.1574	1.0	ITI	n/a	n/a	n/a	n/a	n/a	n/a	n/a	n/a
151.1574	0.5	FIXCROSS	n/a	n/a	n/a	n/a	n/a	n/a	n/a	n/a
151.6574	0.7167	INK	46	Incongruent	czerwony	red	niebieski	blue	hit	n/a
152.3651	n/a	RESPONSE	n/a	n/a	n/a	n/a	n/a	n/a	n/a	blue
152.3741	1.0	ITI	n/a	n/a	n/a	n/a	n/a	n/a	n/a	n/a
153.3741	0.5	FIXCROSS	n/a	n/a	n/a	n/a	n/a	n/a	n/a	n/a
153.874	1.0667	INK	47	Incongruent	niebieski	blue	zielony	green	hit	n/a
154.9234	n/a	RESPONSE	n/a	n/a	n/a	n/a	n/a	n/a	n/a	green
154.9407	1.0	ITI	n/a	n/a	n/a	n/a	n/a	n/a	n/a	n/a
155.9407	0.5	FIXCROSS	n/a	n/a	n/a	n/a	n/a	n/a	n/a	n/a
156.4407	0.7167	INK	48	Incongruent	żółty	yellow	czerwony	red	hit	n/a
157.1459	n/a	RESPONSE	n/a	n/a	n/a	n/a	n/a	n/a	n/a	red
157.1573	1.0	ITI	n/a	n/a	n/a	n/a	n/a	n/a	n/a	n/a
158.1573	0.5	FIXCROSS	n/a	n/a	n/a	n/a	n/a	n/a	n/a	n/a
158.6573	0.8	INK	49	Incongruent	zielony	green	niebieski	blue	hit	n/a
159.4485	n/a	RESPONSE	n/a	n/a	n/a	n/a	n/a	n/a	n/a	blue
159.4573	1.0	ITI	n/a	n/a	n/a	n/a	n/a	n/a	n/a	n/a
160.4573	0.5	FIXCROSS	n/a	n/a	n/a	n/a	n/a	n/a	n/a	n/a
160.9573	0.8166	INK	50	Neutral	xxxxx	xxxxx	niebieski	blue	hit	n/a
161.7669	n/a	RESPONSE	n/a	n/a	n/a	n/a	n/a	n/a	n/a	blue
161.7739	1.0	ITI	n/a	n/a	n/a	n/a	n/a	n/a	n/a	n/a
162.7739	0.5	FIXCROSS	n/a	n/a	n/a	n/a	n/a	n/a	n/a	n/a
163.2739	0.45	INK	51	Neutral	xxxxxxxxx	xxxxxxxxx	czerwony	red	hit	n/a
163.7175	n/a	RESPONSE	n/a	n/a	n/a	n/a	n/a	n/a	n/a	red
163.7239	1.0	ITI	n/a	n/a	n/a	n/a	n/a	n/a	n/a	n/a
164.7239	0.5	FIXCROSS	n/a	n/a	n/a	n/a	n/a	n/a	n/a	n/a
165.2238	1.15	INK	52	Incongruent	czerwony	red	niebieski	blue	hit	n/a
166.3559	n/a	RESPONSE	n/a	n/a	n/a	n/a	n/a	n/a	n/a	blue
166.3738	1.0	ITI	n/a	n/a	n/a	n/a	n/a	n/a	n/a	n/a
167.3738	0.5	FIXCROSS	n/a	n/a	n/a	n/a	n/a	n/a	n/a	n/a
167.8738	0.7	INK	53	Incongruent	niebieski	blue	czerwony	red	hit	n/a
168.5624	n/a	RESPONSE	n/a	n/a	n/a	n/a	n/a	n/a	n/a	red
168.5738	1.0	ITI	n/a	n/a	n/a	n/a	n/a	n/a	n/a	n/a
169.5738	0.5	FIXCROSS	n/a	n/a	n/a	n/a	n/a	n/a	n/a	n/a
170.0738	0.75	INK	54	Incongruent	niebieski	blue	żółty	yellow	hit	n/a
170.817	n/a	RESPONSE	n/a	n/a	n/a	n/a	n/a	n/a	n/a	yellow
170.8237	1.0	ITI	n/a	n/a	n/a	n/a	n/a	n/a	n/a	n/a
171.8237	0.5	FIXCROSS	n/a	n/a	n/a	n/a	n/a	n/a	n/a	n/a
172.3237	0.9	INK	55	Neutral	xxxxx	xxxxx	niebieski	blue	hit	n/a
173.2154	n/a	RESPONSE	n/a	n/a	n/a	n/a	n/a	n/a	n/a	blue
173.2237	1.0	ITI	n/a	n/a	n/a	n/a	n/a	n/a	n/a	n/a
174.2237	0.5	FIXCROSS	n/a	n/a	n/a	n/a	n/a	n/a	n/a	n/a
174.7237	0.3833	INK	56	Neutral	xxxxx	xxxxx	czerwony	red	hit	n/a
175.1021	n/a	RESPONSE	n/a	n/a	n/a	n/a	n/a	n/a	n/a	red
175.107	1.0	ITI	n/a	n/a	n/a	n/a	n/a	n/a	n/a	n/a
176.107	0.5	FIXCROSS	n/a	n/a	n/a	n/a	n/a	n/a	n/a	n/a
176.607	0.5667	INK	57	Neutral	xxxxx	xxxxx	zielony	green	hit	n/a
177.1649	n/a	RESPONSE	n/a	n/a	n/a	n/a	n/a	n/a	n/a	green
177.1736	1.0	ITI	n/a	n/a	n/a	n/a	n/a	n/a	n/a	n/a
178.1736	0.5	FIXCROSS	n/a	n/a	n/a	n/a	n/a	n/a	n/a	n/a
178.6736	0.7	INK	58	Neutral	xxxxxxx	xxxxxxx	niebieski	blue	hit	n/a
179.3553	n/a	RESPONSE	n/a	n/a	n/a	n/a	n/a	n/a	n/a	blue
179.3736	1.0	ITI	n/a	n/a	n/a	n/a	n/a	n/a	n/a	n/a
180.3736	0.5	FIXCROSS	n/a	n/a	n/a	n/a	n/a	n/a	n/a	n/a
180.8736	0.75	INK	59	Incongruent	zielony	green	niebieski	blue	hit	n/a
181.61	n/a	RESPONSE	n/a	n/a	n/a	n/a	n/a	n/a	n/a	blue
181.6235	1.0	ITI	n/a	n/a	n/a	n/a	n/a	n/a	n/a	n/a
182.6235	0.5	FIXCROSS	n/a	n/a	n/a	n/a	n/a	n/a	n/a	n/a
183.1235	0.9666	INK	60	Neutral	xxxxxxxxx	xxxxxxxxx	zielony	green	hit	n/a
184.0723	n/a	RESPONSE	n/a	n/a	n/a	n/a	n/a	n/a	n/a	green
184.0902	1.0	ITI	n/a	n/a	n/a	n/a	n/a	n/a	n/a	n/a
185.0902	0.5	FIXCROSS	n/a	n/a	n/a	n/a	n/a	n/a	n/a	n/a
185.5901	0.6333	INK	61	Incongruent	żółty	yellow	czerwony	red	hit	n/a
186.2149	n/a	RESPONSE	n/a	n/a	n/a	n/a	n/a	n/a	n/a	red
186.2235	1.0	ITI	n/a	n/a	n/a	n/a	n/a	n/a	n/a	n/a
187.2235	0.5	FIXCROSS	n/a	n/a	n/a	n/a	n/a	n/a	n/a	n/a
187.7234	0.7333	INK	62	Neutral	xxxxxxxxx	xxxxxxxxx	czerwony	red	hit	n/a
188.4534	n/a	RESPONSE	n/a	n/a	n/a	n/a	n/a	n/a	n/a	red
188.4567	1.0	ITI	n/a	n/a	n/a	n/a	n/a	n/a	n/a	n/a
189.4567	0.5	FIXCROSS	n/a	n/a	n/a	n/a	n/a	n/a	n/a	n/a
189.9567	0.9833	INK	63	Neutral	xxxxxxx	xxxxxxx	niebieski	blue	hit	n/a
190.9319	n/a	RESPONSE	n/a	n/a	n/a	n/a	n/a	n/a	n/a	blue
190.94	1.0	ITI	n/a	n/a	n/a	n/a	n/a	n/a	n/a	n/a
191.94	0.5	FIXCROSS	n/a	n/a	n/a	n/a	n/a	n/a	n/a	n/a
192.44	0.7167	INK	64	Neutral	xxxxxxx	xxxxxxx	niebieski	blue	hit	n/a
193.1384	n/a	RESPONSE	n/a	n/a	n/a	n/a	n/a	n/a	n/a	blue
193.1567	1.0	ITI	n/a	n/a	n/a	n/a	n/a	n/a	n/a	n/a
194.1567	0.5	FIXCROSS	n/a	n/a	n/a	n/a	n/a	n/a	n/a	n/a
194.6566	0.9333	INK	65	Incongruent	czerwony	red	żółty	yellow	hit	n/a
195.5849	n/a	RESPONSE	n/a	n/a	n/a	n/a	n/a	n/a	n/a	yellow
195.59	1.0	ITI	n/a	n/a	n/a	n/a	n/a	n/a	n/a	n/a
196.5899	0.5	FIXCROSS	n/a	n/a	n/a	n/a	n/a	n/a	n/a	n/a
197.0899	0.85	INK	66	Neutral	xxxxxxxxx	xxxxxxxxx	czerwony	red	hit	n/a
197.9354	n/a	RESPONSE	n/a	n/a	n/a	n/a	n/a	n/a	n/a	red
197.9399	1.0	ITI	n/a	n/a	n/a	n/a	n/a	n/a	n/a	n/a
198.9399	0.5	FIXCROSS	n/a	n/a	n/a	n/a	n/a	n/a	n/a	n/a
199.4399	0.95	INK	67	Incongruent	niebieski	blue	zielony	green	hit	n/a
200.3817	n/a	RESPONSE	n/a	n/a	n/a	n/a	n/a	n/a	n/a	green
200.3899	1.0	ITI	n/a	n/a	n/a	n/a	n/a	n/a	n/a	n/a
201.3899	0.5	FIXCROSS	n/a	n/a	n/a	n/a	n/a	n/a	n/a	n/a
201.8899	0.6166	INK	68	Neutral	xxxxx	xxxxx	zielony	green	hit	n/a
202.4923	n/a	RESPONSE	n/a	n/a	n/a	n/a	n/a	n/a	n/a	green
202.5065	1.0	ITI	n/a	n/a	n/a	n/a	n/a	n/a	n/a	n/a
203.5065	0.5	FIXCROSS	n/a	n/a	n/a	n/a	n/a	n/a	n/a	n/a
204.0065	0.6167	INK	69	Incongruent	żółty	yellow	zielony	green	hit	n/a
204.6189	n/a	RESPONSE	n/a	n/a	n/a	n/a	n/a	n/a	n/a	green
204.6231	1.0	ITI	n/a	n/a	n/a	n/a	n/a	n/a	n/a	n/a
205.6231	0.5	FIXCROSS	n/a	n/a	n/a	n/a	n/a	n/a	n/a	n/a
206.1231	0.75	INK	70	Neutral	xxxxxxx	xxxxxxx	żółty	yellow	hit	n/a
206.8575	n/a	RESPONSE	n/a	n/a	n/a	n/a	n/a	n/a	n/a	yellow
206.8731	1.0	ITI	n/a	n/a	n/a	n/a	n/a	n/a	n/a	n/a
207.8731	0.5	FIXCROSS	n/a	n/a	n/a	n/a	n/a	n/a	n/a	n/a
208.3731	0.7167	INK	71	Incongruent	niebieski	blue	żółty	yellow	hit	n/a
209.079	n/a	RESPONSE	n/a	n/a	n/a	n/a	n/a	n/a	n/a	yellow
209.0897	1.0	ITI	n/a	n/a	n/a	n/a	n/a	n/a	n/a	n/a
210.0897	0.5	FIXCROSS	n/a	n/a	n/a	n/a	n/a	n/a	n/a	n/a
210.5897	0.4	INK	72	Incongruent	zielony	green	czerwony	red	hit	n/a
210.9817	n/a	RESPONSE	n/a	n/a	n/a	n/a	n/a	n/a	n/a	red
210.9897	1.0333	ITI	n/a	n/a	n/a	n/a	n/a	n/a	n/a	n/a
243.0727	n/a	RESPONSE	n/a	n/a	n/a	n/a	n/a	n/a	n/a	n/a
243.1058	1.0	ITI	n/a	n/a	n/a	n/a	n/a	n/a	n/a	n/a
244.1058	0.5	FIXCROSS	n/a	n/a	n/a	n/a	n/a	n/a	n/a	n/a
244.6057	1.2166	T_COLOR_NAME	1	Incongruent	niebieski	blue	czerwony	red	hit	n/a
245.8068	n/a	RESPONSE	n/a	n/a	n/a	n/a	n/a	n/a	n/a	blue
245.8224	0.5	FEEDBACK	n/a	n/a	n/a	n/a	n/a	n/a	n/a	n/a
246.3224	1.0	ITI	n/a	n/a	n/a	n/a	n/a	n/a	n/a	n/a
247.3224	0.5	FIXCROSS	n/a	n/a	n/a	n/a	n/a	n/a	n/a	n/a
247.8224	1.2666	T_COLOR_NAME	2	Incongruent	niebieski	blue	zielony	green	hit	n/a
249.0847	n/a	RESPONSE	n/a	n/a	n/a	n/a	n/a	n/a	n/a	blue
249.089	0.5	FEEDBACK	n/a	n/a	n/a	n/a	n/a	n/a	n/a	n/a
249.589	1.0	ITI	n/a	n/a	n/a	n/a	n/a	n/a	n/a	n/a
250.589	0.5	FIXCROSS	n/a	n/a	n/a	n/a	n/a	n/a	n/a	n/a
251.089	1.05	T_COLOR_NAME	3	Incongruent	zielony	green	niebieski	blue	hit	n/a
252.1226	n/a	RESPONSE	n/a	n/a	n/a	n/a	n/a	n/a	n/a	green
252.139	0.5	FEEDBACK	n/a	n/a	n/a	n/a	n/a	n/a	n/a	n/a
252.6389	1.0	ITI	n/a	n/a	n/a	n/a	n/a	n/a	n/a	n/a
253.6389	0.5	FIXCROSS	n/a	n/a	n/a	n/a	n/a	n/a	n/a	n/a
254.1389	1.6	T_COLOR_NAME	4	Incongruent	zielony	green	żółty	yellow	hit	n/a
255.7204	n/a	RESPONSE	n/a	n/a	n/a	n/a	n/a	n/a	n/a	green
255.7389	0.5	FEEDBACK	n/a	n/a	n/a	n/a	n/a	n/a	n/a	n/a
256.2389	1.0	ITI	n/a	n/a	n/a	n/a	n/a	n/a	n/a	n/a
257.2389	0.5	FIXCROSS	n/a	n/a	n/a	n/a	n/a	n/a	n/a	n/a
257.7388	0.7833	T_COLOR_NAME	5	Neutral	zielony	green	Neutral	Neutral	hit	n/a
258.5025	n/a	RESPONSE	n/a	n/a	n/a	n/a	n/a	n/a	n/a	green
258.5222	0.5	FEEDBACK	n/a	n/a	n/a	n/a	n/a	n/a	n/a	n/a
259.0222	1.0	ITI	n/a	n/a	n/a	n/a	n/a	n/a	n/a	n/a
260.0221	0.5	FIXCROSS	n/a	n/a	n/a	n/a	n/a	n/a	n/a	n/a
260.5221	0.8	T_COLOR_NAME	6	Neutral	zielony	green	Neutral	Neutral	hit	n/a
261.3166	n/a	RESPONSE	n/a	n/a	n/a	n/a	n/a	n/a	n/a	green
261.3221	0.5	FEEDBACK	n/a	n/a	n/a	n/a	n/a	n/a	n/a	n/a
261.8221	1.0	ITI	n/a	n/a	n/a	n/a	n/a	n/a	n/a	n/a
262.8221	0.5	FIXCROSS	n/a	n/a	n/a	n/a	n/a	n/a	n/a	n/a
263.3221	0.9167	T_COLOR_NAME	7	Neutral	żółty	yellow	Neutral	Neutral	hit	n/a
264.2267	n/a	RESPONSE	n/a	n/a	n/a	n/a	n/a	n/a	n/a	yellow
264.2387	0.5	FEEDBACK	n/a	n/a	n/a	n/a	n/a	n/a	n/a	n/a
264.7387	1.0	ITI	n/a	n/a	n/a	n/a	n/a	n/a	n/a	n/a
265.7387	0.5	FIXCROSS	n/a	n/a	n/a	n/a	n/a	n/a	n/a	n/a
266.2387	0.6666	T_COLOR_NAME	8	Neutral	żółty	yellow	Neutral	Neutral	hit	n/a
266.8969	n/a	RESPONSE	n/a	n/a	n/a	n/a	n/a	n/a	n/a	yellow
266.9054	0.5	FEEDBACK	n/a	n/a	n/a	n/a	n/a	n/a	n/a	n/a
267.4053	1.0	ITI	n/a	n/a	n/a	n/a	n/a	n/a	n/a	n/a
268.4053	0.5	FIXCROSS	n/a	n/a	n/a	n/a	n/a	n/a	n/a	n/a
268.9053	1.15	T_COLOR_NAME	9	Neutral	niebieski	blue	Neutral	Neutral	hit	n/a
270.0469	n/a	RESPONSE	n/a	n/a	n/a	n/a	n/a	n/a	n/a	blue
270.0553	0.5	FEEDBACK	n/a	n/a	n/a	n/a	n/a	n/a	n/a	n/a
270.5553	1.0	ITI	n/a	n/a	n/a	n/a	n/a	n/a	n/a	n/a
271.5553	0.5	FIXCROSS	n/a	n/a	n/a	n/a	n/a	n/a	n/a	n/a
272.0553	1.15	T_COLOR_NAME	10	Neutral	zielony	green	Neutral	Neutral	hit	n/a
273.1969	n/a	RESPONSE	n/a	n/a	n/a	n/a	n/a	n/a	n/a	green
273.2052	0.5	FEEDBACK	n/a	n/a	n/a	n/a	n/a	n/a	n/a	n/a
273.7052	1.0	ITI	n/a	n/a	n/a	n/a	n/a	n/a	n/a	n/a
274.7052	0.5	FIXCROSS	n/a	n/a	n/a	n/a	n/a	n/a	n/a	n/a
275.2052	1.4167	T_COLOR_NAME	11	Incongruent	zielony	green	czerwony	red	hit	n/a
276.6027	n/a	RESPONSE	n/a	n/a	n/a	n/a	n/a	n/a	n/a	green
276.6219	0.5	FEEDBACK	n/a	n/a	n/a	n/a	n/a	n/a	n/a	n/a
277.1218	1.0	ITI	n/a	n/a	n/a	n/a	n/a	n/a	n/a	n/a
278.1218	0.5	FIXCROSS	n/a	n/a	n/a	n/a	n/a	n/a	n/a	n/a
278.6218	0.7833	T_COLOR_NAME	12	Incongruent	żółty	yellow	czerwony	red	hit	n/a
279.4007	n/a	RESPONSE	n/a	n/a	n/a	n/a	n/a	n/a	n/a	yellow
279.4051	0.5	FEEDBACK	n/a	n/a	n/a	n/a	n/a	n/a	n/a	n/a
279.9051	1.0	ITI	n/a	n/a	n/a	n/a	n/a	n/a	n/a	n/a
283.5261	n/a	RESPONSE	n/a	n/a	n/a	n/a	n/a	n/a	n/a	n/a
283.5549	1.0001	ITI	n/a	n/a	n/a	n/a	n/a	n/a	n/a	n/a
284.555	0.5	FIXCROSS	n/a	n/a	n/a	n/a	n/a	n/a	n/a	n/a
285.055	1.35	COLOR_NAME	1	Incongruent	niebieski	blue	czerwony	red	hit	n/a
286.3882	n/a	RESPONSE	n/a	n/a	n/a	n/a	n/a	n/a	n/a	blue
286.405	1.0	ITI	n/a	n/a	n/a	n/a	n/a	n/a	n/a	n/a
287.405	0.5	FIXCROSS	n/a	n/a	n/a	n/a	n/a	n/a	n/a	n/a
287.905	0.95	COLOR_NAME	2	Incongruent	czerwony	red	zielony	green	hit	n/a
288.8507	n/a	RESPONSE	n/a	n/a	n/a	n/a	n/a	n/a	n/a	red
288.855	1.0	ITI	n/a	n/a	n/a	n/a	n/a	n/a	n/a	n/a
289.8549	0.5	FIXCROSS	n/a	n/a	n/a	n/a	n/a	n/a	n/a	n/a
290.3549	1.05	COLOR_NAME	3	Incongruent	zielony	green	żółty	yellow	hit	n/a
291.393	n/a	RESPONSE	n/a	n/a	n/a	n/a	n/a	n/a	n/a	green
291.4049	1.0	ITI	n/a	n/a	n/a	n/a	n/a	n/a	n/a	n/a
292.4049	0.5	FIXCROSS	n/a	n/a	n/a	n/a	n/a	n/a	n/a	n/a
292.9049	1.0333	COLOR_NAME	4	Neutral	niebieski	blue	Neutral	Neutral	hit	n/a
293.9194	n/a	RESPONSE	n/a	n/a	n/a	n/a	n/a	n/a	n/a	blue
293.9382	1.0	ITI	n/a	n/a	n/a	n/a	n/a	n/a	n/a	n/a
294.9382	0.5	FIXCROSS	n/a	n/a	n/a	n/a	n/a	n/a	n/a	n/a
295.4382	1.9166	COLOR_NAME	5	Neutral	zielony	green	Neutral	Neutral	hit	n/a
297.3411	n/a	RESPONSE	n/a	n/a	n/a	n/a	n/a	n/a	n/a	green
297.3548	1.0	ITI	n/a	n/a	n/a	n/a	n/a	n/a	n/a	n/a
298.3548	0.5	FIXCROSS	n/a	n/a	n/a	n/a	n/a	n/a	n/a	n/a
298.8548	0.8333	COLOR_NAME	6	Incongruent	zielony	green	niebieski	blue	hit	n/a
299.6755	n/a	RESPONSE	n/a	n/a	n/a	n/a	n/a	n/a	n/a	green
299.6881	1.0	ITI	n/a	n/a	n/a	n/a	n/a	n/a	n/a	n/a
300.6881	0.5	FIXCROSS	n/a	n/a	n/a	n/a	n/a	n/a	n/a	n/a
301.1881	0.65	COLOR_NAME	7	Incongruent	żółty	yellow	niebieski	blue	hit	n/a
301.8342	n/a	RESPONSE	n/a	n/a	n/a	n/a	n/a	n/a	n/a	yellow
301.8381	1.0	ITI	n/a	n/a	n/a	n/a	n/a	n/a	n/a	n/a
302.838	0.5	FIXCROSS	n/a	n/a	n/a	n/a	n/a	n/a	n/a	n/a
303.338	0.7167	COLOR_NAME	8	Neutral	żółty	yellow	Neutral	Neutral	hit	n/a
304.0407	n/a	RESPONSE	n/a	n/a	n/a	n/a	n/a	n/a	n/a	yellow
304.0547	1.0	ITI	n/a	n/a	n/a	n/a	n/a	n/a	n/a	n/a
305.0547	0.5	FIXCROSS	n/a	n/a	n/a	n/a	n/a	n/a	n/a	n/a
305.5547	0.7333	COLOR_NAME	9	Neutral	niebieski	blue	Neutral	Neutral	hit	n/a
306.2792	n/a	RESPONSE	n/a	n/a	n/a	n/a	n/a	n/a	n/a	blue
306.288	1.0	ITI	n/a	n/a	n/a	n/a	n/a	n/a	n/a	n/a
307.288	0.5	FIXCROSS	n/a	n/a	n/a	n/a	n/a	n/a	n/a	n/a
307.788	1.5666	COLOR_NAME	10	Incongruent	żółty	yellow	niebieski	blue	hit	n/a
309.3492	n/a	RESPONSE	n/a	n/a	n/a	n/a	n/a	n/a	n/a	yellow
309.3546	1.0	ITI	n/a	n/a	n/a	n/a	n/a	n/a	n/a	n/a
310.3546	0.5	FIXCROSS	n/a	n/a	n/a	n/a	n/a	n/a	n/a	n/a
310.8546	0.7666	COLOR_NAME	11	Neutral	czerwony	red	Neutral	Neutral	hit	n/a
311.6038	n/a	RESPONSE	n/a	n/a	n/a	n/a	n/a	n/a	n/a	red
311.6212	1.0	ITI	n/a	n/a	n/a	n/a	n/a	n/a	n/a	n/a
312.6212	0.5	FIXCROSS	n/a	n/a	n/a	n/a	n/a	n/a	n/a	n/a
313.1212	0.6167	COLOR_NAME	12	Neutral	żółty	yellow	Neutral	Neutral	hit	n/a
313.7304	n/a	RESPONSE	n/a	n/a	n/a	n/a	n/a	n/a	n/a	yellow
313.7379	1.0	ITI	n/a	n/a	n/a	n/a	n/a	n/a	n/a	n/a
314.7378	0.5	FIXCROSS	n/a	n/a	n/a	n/a	n/a	n/a	n/a	n/a
315.2378	0.9	COLOR_NAME	13	Incongruent	czerwony	red	niebieski	blue	hit	n/a
316.1288	n/a	RESPONSE	n/a	n/a	n/a	n/a	n/a	n/a	n/a	red
316.1378	1.0	ITI	n/a	n/a	n/a	n/a	n/a	n/a	n/a	n/a
317.1378	0.4999	FIXCROSS	n/a	n/a	n/a	n/a	n/a	n/a	n/a	n/a
317.6377	1.2168	COLOR_NAME	14	Incongruent	niebieski	blue	zielony	green	hit	n/a
318.8471	n/a	RESPONSE	n/a	n/a	n/a	n/a	n/a	n/a	n/a	blue
318.8544	1.0	ITI	n/a	n/a	n/a	n/a	n/a	n/a	n/a	n/a
319.8544	0.5	FIXCROSS	n/a	n/a	n/a	n/a	n/a	n/a	n/a	n/a
320.3544	0.55	COLOR_NAME	15	Neutral	niebieski	blue	Neutral	Neutral	incorrect	n/a
320.8936	n/a	RESPONSE	n/a	n/a	n/a	n/a	n/a	n/a	n/a	green
320.9044	1.0	ITI	n/a	n/a	n/a	n/a	n/a	n/a	n/a	n/a
321.9044	0.5	FIXCROSS	n/a	n/a	n/a	n/a	n/a	n/a	n/a	n/a
322.4044	0.8167	COLOR_NAME	16	Incongruent	czerwony	red	zielony	green	hit	n/a
323.2121	n/a	RESPONSE	n/a	n/a	n/a	n/a	n/a	n/a	n/a	red
323.221	1.0	ITI	n/a	n/a	n/a	n/a	n/a	n/a	n/a	n/a
324.221	0.5	FIXCROSS	n/a	n/a	n/a	n/a	n/a	n/a	n/a	n/a
324.721	0.6	COLOR_NAME	17	Neutral	czerwony	red	Neutral	Neutral	hit	n/a
325.3067	n/a	RESPONSE	n/a	n/a	n/a	n/a	n/a	n/a	n/a	red
325.321	1.0	ITI	n/a	n/a	n/a	n/a	n/a	n/a	n/a	n/a
326.321	0.5	FIXCROSS	n/a	n/a	n/a	n/a	n/a	n/a	n/a	n/a
326.821	0.85	COLOR_NAME	18	Incongruent	czerwony	red	zielony	green	hit	n/a
327.6572	n/a	RESPONSE	n/a	n/a	n/a	n/a	n/a	n/a	n/a	red
327.6709	1.0	ITI	n/a	n/a	n/a	n/a	n/a	n/a	n/a	n/a
328.6709	0.5	FIXCROSS	n/a	n/a	n/a	n/a	n/a	n/a	n/a	n/a
329.1709	0.55	COLOR_NAME	19	Incongruent	czerwony	red	żółty	yellow	hit	n/a
329.7038	n/a	RESPONSE	n/a	n/a	n/a	n/a	n/a	n/a	n/a	red
329.7209	1.0	ITI	n/a	n/a	n/a	n/a	n/a	n/a	n/a	n/a
330.7209	0.5	FIXCROSS	n/a	n/a	n/a	n/a	n/a	n/a	n/a	n/a
331.2209	0.55	COLOR_NAME	20	Incongruent	czerwony	red	żółty	yellow	hit	n/a
331.7664	n/a	RESPONSE	n/a	n/a	n/a	n/a	n/a	n/a	n/a	red
331.7709	1.0	ITI	n/a	n/a	n/a	n/a	n/a	n/a	n/a	n/a
332.7708	0.5	FIXCROSS	n/a	n/a	n/a	n/a	n/a	n/a	n/a	n/a
333.2708	0.85	COLOR_NAME	21	Incongruent	żółty	yellow	czerwony	red	hit	n/a
334.117	n/a	RESPONSE	n/a	n/a	n/a	n/a	n/a	n/a	n/a	yellow
334.1208	1.0	ITI	n/a	n/a	n/a	n/a	n/a	n/a	n/a	n/a
335.1208	0.5	FIXCROSS	n/a	n/a	n/a	n/a	n/a	n/a	n/a	n/a
335.6208	0.6333	COLOR_NAME	22	Neutral	czerwony	red	Neutral	Neutral	hit	n/a
336.2437	n/a	RESPONSE	n/a	n/a	n/a	n/a	n/a	n/a	n/a	red
336.2541	1.0	ITI	n/a	n/a	n/a	n/a	n/a	n/a	n/a	n/a
337.2541	0.5	FIXCROSS	n/a	n/a	n/a	n/a	n/a	n/a	n/a	n/a
337.7541	1.0666	COLOR_NAME	23	Incongruent	zielony	green	czerwony	red	incorrect	n/a
338.802	n/a	RESPONSE	n/a	n/a	n/a	n/a	n/a	n/a	n/a	red
338.8207	1.0	ITI	n/a	n/a	n/a	n/a	n/a	n/a	n/a	n/a
339.8207	0.5	FIXCROSS	n/a	n/a	n/a	n/a	n/a	n/a	n/a	n/a
340.3207	2.8833	COLOR_NAME	24	Incongruent	czerwony	red	niebieski	blue	hit	n/a
343.1991	n/a	RESPONSE	n/a	n/a	n/a	n/a	n/a	n/a	n/a	red
343.204	1.0	ITI	n/a	n/a	n/a	n/a	n/a	n/a	n/a	n/a
344.204	0.5	FIXCROSS	n/a	n/a	n/a	n/a	n/a	n/a	n/a	n/a
344.704	1.2167	COLOR_NAME	25	Incongruent	zielony	green	niebieski	blue	hit	n/a
345.9013	n/a	RESPONSE	n/a	n/a	n/a	n/a	n/a	n/a	n/a	green
345.9206	1.0	ITI	n/a	n/a	n/a	n/a	n/a	n/a	n/a	n/a
346.9206	0.5	FIXCROSS	n/a	n/a	n/a	n/a	n/a	n/a	n/a	n/a
347.4206	0.7833	COLOR_NAME	26	Neutral	zielony	green	Neutral	Neutral	hit	n/a
348.1879	n/a	RESPONSE	n/a	n/a	n/a	n/a	n/a	n/a	n/a	green
348.2039	1.0	ITI	n/a	n/a	n/a	n/a	n/a	n/a	n/a	n/a
349.2039	0.5	FIXCROSS	n/a	n/a	n/a	n/a	n/a	n/a	n/a	n/a
349.7039	1.15	COLOR_NAME	27	Neutral	niebieski	blue	Neutral	Neutral	hit	n/a
350.8422	n/a	RESPONSE	n/a	n/a	n/a	n/a	n/a	n/a	n/a	blue
350.8539	1.0	ITI	n/a	n/a	n/a	n/a	n/a	n/a	n/a	n/a
351.8538	0.5	FIXCROSS	n/a	n/a	n/a	n/a	n/a	n/a	n/a	n/a
352.3538	1.0333	COLOR_NAME	28	Neutral	zielony	green	Neutral	Neutral	hit	n/a
353.3684	n/a	RESPONSE	n/a	n/a	n/a	n/a	n/a	n/a	n/a	green
353.3871	1.0	ITI	n/a	n/a	n/a	n/a	n/a	n/a	n/a	n/a
354.3871	0.4997	FIXCROSS	n/a	n/a	n/a	n/a	n/a	n/a	n/a	n/a
354.8868	0.7837	COLOR_NAME	29	Incongruent	żółty	yellow	zielony	green	hit	n/a
355.6549	n/a	RESPONSE	n/a	n/a	n/a	n/a	n/a	n/a	n/a	yellow
355.6704	1.0	ITI	n/a	n/a	n/a	n/a	n/a	n/a	n/a	n/a
356.6704	0.5	FIXCROSS	n/a	n/a	n/a	n/a	n/a	n/a	n/a	n/a
357.1704	1.4666	COLOR_NAME	30	Incongruent	żółty	yellow	czerwony	red	hit	n/a
358.629	n/a	RESPONSE	n/a	n/a	n/a	n/a	n/a	n/a	n/a	yellow
358.6371	1.0	ITI	n/a	n/a	n/a	n/a	n/a	n/a	n/a	n/a
359.637	0.5	FIXCROSS	n/a	n/a	n/a	n/a	n/a	n/a	n/a	n/a
360.137	0.7333	COLOR_NAME	31	Neutral	czerwony	red	Neutral	Neutral	hit	n/a
360.8516	n/a	RESPONSE	n/a	n/a	n/a	n/a	n/a	n/a	n/a	red
360.8703	1.0	ITI	n/a	n/a	n/a	n/a	n/a	n/a	n/a	n/a
361.8703	0.5	FIXCROSS	n/a	n/a	n/a	n/a	n/a	n/a	n/a	n/a
362.3703	1.5833	COLOR_NAME	32	Incongruent	niebieski	blue	żółty	yellow	hit	n/a
363.9376	n/a	RESPONSE	n/a	n/a	n/a	n/a	n/a	n/a	n/a	blue
363.9536	1.0	ITI	n/a	n/a	n/a	n/a	n/a	n/a	n/a	n/a
364.9536	0.5	FIXCROSS	n/a	n/a	n/a	n/a	n/a	n/a	n/a	n/a
365.4536	0.95	COLOR_NAME	33	Incongruent	czerwony	red	niebieski	blue	hit	n/a
366.384	n/a	RESPONSE	n/a	n/a	n/a	n/a	n/a	n/a	n/a	red
366.4036	1.0	ITI	n/a	n/a	n/a	n/a	n/a	n/a	n/a	n/a
367.4036	0.5	FIXCROSS	n/a	n/a	n/a	n/a	n/a	n/a	n/a	n/a
367.9036	1.7666	COLOR_NAME	34	Incongruent	żółty	yellow	zielony	green	hit	n/a
369.6619	n/a	RESPONSE	n/a	n/a	n/a	n/a	n/a	n/a	n/a	yellow
369.6702	1.0	ITI	n/a	n/a	n/a	n/a	n/a	n/a	n/a	n/a
370.6702	0.5	FIXCROSS	n/a	n/a	n/a	n/a	n/a	n/a	n/a	n/a
371.1702	0.9333	COLOR_NAME	35	Neutral	żółty	yellow	Neutral	Neutral	hit	n/a
372.0923	n/a	RESPONSE	n/a	n/a	n/a	n/a	n/a	n/a	n/a	yellow
372.1035	1.0	ITI	n/a	n/a	n/a	n/a	n/a	n/a	n/a	n/a
373.1035	0.5	FIXCROSS	n/a	n/a	n/a	n/a	n/a	n/a	n/a	n/a
373.6035	1.0166	COLOR_NAME	36	Incongruent	niebieski	blue	żółty	yellow	hit	n/a
374.6027	n/a	RESPONSE	n/a	n/a	n/a	n/a	n/a	n/a	n/a	blue
374.6201	1.0	ITI	n/a	n/a	n/a	n/a	n/a	n/a	n/a	n/a
375.6201	0.5	FIXCROSS	n/a	n/a	n/a	n/a	n/a	n/a	n/a	n/a
376.1201	0.65	COLOR_NAME	37	Neutral	żółty	yellow	Neutral	Neutral	hit	n/a
376.7612	n/a	RESPONSE	n/a	n/a	n/a	n/a	n/a	n/a	n/a	yellow
376.7701	1.0	ITI	n/a	n/a	n/a	n/a	n/a	n/a	n/a	n/a
377.77	0.5	FIXCROSS	n/a	n/a	n/a	n/a	n/a	n/a	n/a	n/a
378.27	0.8833	COLOR_NAME	38	Incongruent	żółty	yellow	niebieski	blue	hit	n/a
379.1438	n/a	RESPONSE	n/a	n/a	n/a	n/a	n/a	n/a	n/a	yellow
379.1534	1.0	ITI	n/a	n/a	n/a	n/a	n/a	n/a	n/a	n/a
380.1533	0.5	FIXCROSS	n/a	n/a	n/a	n/a	n/a	n/a	n/a	n/a
380.6533	1.0166	COLOR_NAME	39	Incongruent	niebieski	blue	czerwony	red	hit	n/a
381.6541	n/a	RESPONSE	n/a	n/a	n/a	n/a	n/a	n/a	n/a	blue
381.67	1.0	ITI	n/a	n/a	n/a	n/a	n/a	n/a	n/a	n/a
382.67	0.5	FIXCROSS	n/a	n/a	n/a	n/a	n/a	n/a	n/a	n/a
383.17	0.6667	COLOR_NAME	40	Neutral	żółty	yellow	Neutral	Neutral	hit	n/a
383.8287	n/a	RESPONSE	n/a	n/a	n/a	n/a	n/a	n/a	n/a	yellow
383.8366	1.0	ITI	n/a	n/a	n/a	n/a	n/a	n/a	n/a	n/a
384.8366	0.5	FIXCROSS	n/a	n/a	n/a	n/a	n/a	n/a	n/a	n/a
385.3366	1.5166	COLOR_NAME	41	Incongruent	zielony	green	czerwony	red	hit	n/a
386.8347	n/a	RESPONSE	n/a	n/a	n/a	n/a	n/a	n/a	n/a	green
386.8532	1.0	ITI	n/a	n/a	n/a	n/a	n/a	n/a	n/a	n/a
387.8532	0.5	FIXCROSS	n/a	n/a	n/a	n/a	n/a	n/a	n/a	n/a
388.3532	1.1	COLOR_NAME	42	Neutral	niebieski	blue	Neutral	Neutral	hit	n/a
389.441	n/a	RESPONSE	n/a	n/a	n/a	n/a	n/a	n/a	n/a	blue
389.4532	1.0	ITI	n/a	n/a	n/a	n/a	n/a	n/a	n/a	n/a
390.4532	0.5	FIXCROSS	n/a	n/a	n/a	n/a	n/a	n/a	n/a	n/a
390.9532	0.7333	COLOR_NAME	43	Neutral	żółty	yellow	Neutral	Neutral	hit	n/a
391.6796	n/a	RESPONSE	n/a	n/a	n/a	n/a	n/a	n/a	n/a	yellow
391.6865	1.0	ITI	n/a	n/a	n/a	n/a	n/a	n/a	n/a	n/a
392.6865	0.5	FIXCROSS	n/a	n/a	n/a	n/a	n/a	n/a	n/a	n/a
393.1864	1.0	COLOR_NAME	44	Neutral	zielony	green	Neutral	Neutral	hit	n/a
394.1739	n/a	RESPONSE	n/a	n/a	n/a	n/a	n/a	n/a	n/a	green
394.1864	1.0	ITI	n/a	n/a	n/a	n/a	n/a	n/a	n/a	n/a
395.1864	0.5	FIXCROSS	n/a	n/a	n/a	n/a	n/a	n/a	n/a	n/a
395.6864	0.7833	COLOR_NAME	45	Neutral	niebieski	blue	Neutral	Neutral	hit	n/a
396.4604	n/a	RESPONSE	n/a	n/a	n/a	n/a	n/a	n/a	n/a	blue
396.4697	1.0	ITI	n/a	n/a	n/a	n/a	n/a	n/a	n/a	n/a
397.4697	0.5	FIXCROSS	n/a	n/a	n/a	n/a	n/a	n/a	n/a	n/a
397.9697	0.75	COLOR_NAME	46	Incongruent	żółty	yellow	czerwony	red	hit	n/a
398.715	n/a	RESPONSE	n/a	n/a	n/a	n/a	n/a	n/a	n/a	yellow
398.7197	1.0	ITI	n/a	n/a	n/a	n/a	n/a	n/a	n/a	n/a
399.7196	0.5	FIXCROSS	n/a	n/a	n/a	n/a	n/a	n/a	n/a	n/a
400.2197	0.6667	COLOR_NAME	47	Incongruent	żółty	yellow	zielony	green	hit	n/a
400.8736	n/a	RESPONSE	n/a	n/a	n/a	n/a	n/a	n/a	n/a	yellow
400.8863	1.0	ITI	n/a	n/a	n/a	n/a	n/a	n/a	n/a	n/a
401.8863	0.5	FIXCROSS	n/a	n/a	n/a	n/a	n/a	n/a	n/a	n/a
402.3863	0.7333	COLOR_NAME	48	Neutral	czerwony	red	Neutral	Neutral	hit	n/a
403.1122	n/a	RESPONSE	n/a	n/a	n/a	n/a	n/a	n/a	n/a	red
403.1196	1.0	ITI	n/a	n/a	n/a	n/a	n/a	n/a	n/a	n/a
404.1196	0.5	FIXCROSS	n/a	n/a	n/a	n/a	n/a	n/a	n/a	n/a
404.6196	0.8667	COLOR_NAME	49	Incongruent	niebieski	blue	zielony	green	hit	n/a
405.4786	n/a	RESPONSE	n/a	n/a	n/a	n/a	n/a	n/a	n/a	blue
405.4862	1.0	ITI	n/a	n/a	n/a	n/a	n/a	n/a	n/a	n/a
406.4862	0.5	FIXCROSS	n/a	n/a	n/a	n/a	n/a	n/a	n/a	n/a
406.9862	0.8833	COLOR_NAME	50	Neutral	zielony	green	Neutral	Neutral	hit	n/a
407.861	n/a	RESPONSE	n/a	n/a	n/a	n/a	n/a	n/a	n/a	green
407.8695	1.0	ITI	n/a	n/a	n/a	n/a	n/a	n/a	n/a	n/a
408.8695	0.5	FIXCROSS	n/a	n/a	n/a	n/a	n/a	n/a	n/a	n/a
409.3695	0.7833	COLOR_NAME	51	Neutral	zielony	green	Neutral	Neutral	hit	n/a
410.1476	n/a	RESPONSE	n/a	n/a	n/a	n/a	n/a	n/a	n/a	green
410.1528	1.0	ITI	n/a	n/a	n/a	n/a	n/a	n/a	n/a	n/a
411.1528	0.5	FIXCROSS	n/a	n/a	n/a	n/a	n/a	n/a	n/a	n/a
411.6528	0.7	COLOR_NAME	52	Neutral	zielony	green	Neutral	Neutral	hit	n/a
412.3382	n/a	RESPONSE	n/a	n/a	n/a	n/a	n/a	n/a	n/a	green
412.3528	1.0	ITI	n/a	n/a	n/a	n/a	n/a	n/a	n/a	n/a
413.3527	0.5	FIXCROSS	n/a	n/a	n/a	n/a	n/a	n/a	n/a	n/a
413.8527	0.8666	COLOR_NAME	53	Incongruent	zielony	green	żółty	yellow	hit	n/a
414.7045	n/a	RESPONSE	n/a	n/a	n/a	n/a	n/a	n/a	n/a	green
414.7194	1.0	ITI	n/a	n/a	n/a	n/a	n/a	n/a	n/a	n/a
415.7194	0.5	FIXCROSS	n/a	n/a	n/a	n/a	n/a	n/a	n/a	n/a
416.2194	0.7167	COLOR_NAME	54	Neutral	czerwony	red	Neutral	Neutral	hit	n/a
416.9271	n/a	RESPONSE	n/a	n/a	n/a	n/a	n/a	n/a	n/a	red
416.936	1.0	ITI	n/a	n/a	n/a	n/a	n/a	n/a	n/a	n/a
417.936	0.5	FIXCROSS	n/a	n/a	n/a	n/a	n/a	n/a	n/a	n/a
418.436	0.8667	COLOR_NAME	55	Neutral	niebieski	blue	Neutral	Neutral	hit	n/a
419.2936	n/a	RESPONSE	n/a	n/a	n/a	n/a	n/a	n/a	n/a	blue
419.3026	1.0	ITI	n/a	n/a	n/a	n/a	n/a	n/a	n/a	n/a
420.3026	0.5	FIXCROSS	n/a	n/a	n/a	n/a	n/a	n/a	n/a	n/a
420.8026	0.7333	COLOR_NAME	56	Neutral	żółty	yellow	Neutral	Neutral	hit	n/a
421.5321	n/a	RESPONSE	n/a	n/a	n/a	n/a	n/a	n/a	n/a	yellow
421.5359	1.0	ITI	n/a	n/a	n/a	n/a	n/a	n/a	n/a	n/a
422.5359	0.5	FIXCROSS	n/a	n/a	n/a	n/a	n/a	n/a	n/a	n/a
423.0359	0.8167	COLOR_NAME	57	Neutral	niebieski	blue	Neutral	Neutral	hit	n/a
423.8346	n/a	RESPONSE	n/a	n/a	n/a	n/a	n/a	n/a	n/a	blue
423.8526	1.0	ITI	n/a	n/a	n/a	n/a	n/a	n/a	n/a	n/a
424.8525	0.5	FIXCROSS	n/a	n/a	n/a	n/a	n/a	n/a	n/a	n/a
425.3525	0.7	COLOR_NAME	58	Neutral	zielony	green	Neutral	Neutral	incorrect	n/a
426.0412	n/a	RESPONSE	n/a	n/a	n/a	n/a	n/a	n/a	n/a	blue
426.0525	1.0	ITI	n/a	n/a	n/a	n/a	n/a	n/a	n/a	n/a
427.0525	0.5	FIXCROSS	n/a	n/a	n/a	n/a	n/a	n/a	n/a	n/a
427.5525	0.8	COLOR_NAME	59	Incongruent	zielony	green	niebieski	blue	hit	n/a
428.3437	n/a	RESPONSE	n/a	n/a	n/a	n/a	n/a	n/a	n/a	green
428.3525	1.0	ITI	n/a	n/a	n/a	n/a	n/a	n/a	n/a	n/a
429.3525	0.5	FIXCROSS	n/a	n/a	n/a	n/a	n/a	n/a	n/a	n/a
429.8525	0.4	COLOR_NAME	60	Neutral	czerwony	red	Neutral	Neutral	hit	n/a
430.2464	n/a	RESPONSE	n/a	n/a	n/a	n/a	n/a	n/a	n/a	red
430.2524	1.0	ITI	n/a	n/a	n/a	n/a	n/a	n/a	n/a	n/a
431.2524	0.5	FIXCROSS	n/a	n/a	n/a	n/a	n/a	n/a	n/a	n/a
431.7524	0.9333	COLOR_NAME	61	Incongruent	niebieski	blue	czerwony	red	hit	n/a
432.6769	n/a	RESPONSE	n/a	n/a	n/a	n/a	n/a	n/a	n/a	blue
432.6857	1.0	ITI	n/a	n/a	n/a	n/a	n/a	n/a	n/a	n/a
433.6857	0.5	FIXCROSS	n/a	n/a	n/a	n/a	n/a	n/a	n/a	n/a
434.1857	0.65	COLOR_NAME	62	Neutral	żółty	yellow	Neutral	Neutral	hit	n/a
434.8195	n/a	RESPONSE	n/a	n/a	n/a	n/a	n/a	n/a	n/a	yellow
434.8357	1.0	ITI	n/a	n/a	n/a	n/a	n/a	n/a	n/a	n/a
435.8357	0.5	FIXCROSS	n/a	n/a	n/a	n/a	n/a	n/a	n/a	n/a
436.3357	0.9	COLOR_NAME	63	Neutral	niebieski	blue	Neutral	Neutral	hit	n/a
437.2179	n/a	RESPONSE	n/a	n/a	n/a	n/a	n/a	n/a	n/a	blue
437.2357	1.0	ITI	n/a	n/a	n/a	n/a	n/a	n/a	n/a	n/a
438.2356	0.5	FIXCROSS	n/a	n/a	n/a	n/a	n/a	n/a	n/a	n/a
438.7356	0.9333	COLOR_NAME	64	Incongruent	czerwony	red	żółty	yellow	hit	n/a
439.6644	n/a	RESPONSE	n/a	n/a	n/a	n/a	n/a	n/a	n/a	red
439.6689	1.0	ITI	n/a	n/a	n/a	n/a	n/a	n/a	n/a	n/a
440.6689	0.5	FIXCROSS	n/a	n/a	n/a	n/a	n/a	n/a	n/a	n/a
441.1689	1.9666	COLOR_NAME	65	Incongruent	zielony	green	czerwony	red	hit	n/a
443.1181	n/a	RESPONSE	n/a	n/a	n/a	n/a	n/a	n/a	n/a	green
443.1356	1.0	ITI	n/a	n/a	n/a	n/a	n/a	n/a	n/a	n/a
444.1355	0.5	FIXCROSS	n/a	n/a	n/a	n/a	n/a	n/a	n/a	n/a
444.6355	0.9666	COLOR_NAME	66	Incongruent	zielony	green	żółty	yellow	hit	n/a
445.5965	n/a	RESPONSE	n/a	n/a	n/a	n/a	n/a	n/a	n/a	green
445.6022	1.0	ITI	n/a	n/a	n/a	n/a	n/a	n/a	n/a	n/a
446.6022	0.5	FIXCROSS	n/a	n/a	n/a	n/a	n/a	n/a	n/a	n/a
447.1021	0.6667	COLOR_NAME	67	Neutral	czerwony	red	Neutral	Neutral	hit	n/a
447.7551	n/a	RESPONSE	n/a	n/a	n/a	n/a	n/a	n/a	n/a	red
447.7688	1.0	ITI	n/a	n/a	n/a	n/a	n/a	n/a	n/a	n/a
448.7688	0.5	FIXCROSS	n/a	n/a	n/a	n/a	n/a	n/a	n/a	n/a
449.2688	0.65	COLOR_NAME	68	Neutral	żółty	yellow	Neutral	Neutral	hit	n/a
449.9136	n/a	RESPONSE	n/a	n/a	n/a	n/a	n/a	n/a	n/a	yellow
449.9188	1.0	ITI	n/a	n/a	n/a	n/a	n/a	n/a	n/a	n/a
450.9187	0.5	FIXCROSS	n/a	n/a	n/a	n/a	n/a	n/a	n/a	n/a
451.4187	0.9	COLOR_NAME	69	Neutral	czerwony	red	Neutral	Neutral	hit	n/a
452.312	n/a	RESPONSE	n/a	n/a	n/a	n/a	n/a	n/a	n/a	red
452.3187	1.0	ITI	n/a	n/a	n/a	n/a	n/a	n/a	n/a	n/a
453.3187	0.5	FIXCROSS	n/a	n/a	n/a	n/a	n/a	n/a	n/a	n/a
453.8187	0.75	COLOR_NAME	70	Incongruent	niebieski	blue	zielony	green	hit	n/a
454.5505	n/a	RESPONSE	n/a	n/a	n/a	n/a	n/a	n/a	n/a	blue
454.5687	1.0	ITI	n/a	n/a	n/a	n/a	n/a	n/a	n/a	n/a
455.5687	0.5	FIXCROSS	n/a	n/a	n/a	n/a	n/a	n/a	n/a	n/a
456.0687	0.5166	COLOR_NAME	71	Neutral	zielony	green	Neutral	Neutral	hit	n/a
456.5813	n/a	RESPONSE	n/a	n/a	n/a	n/a	n/a	n/a	n/a	green
456.5853	1.0	ITI	n/a	n/a	n/a	n/a	n/a	n/a	n/a	n/a
457.5853	0.5	FIXCROSS	n/a	n/a	n/a	n/a	n/a	n/a	n/a	n/a
458.0853	0.6833	COLOR_NAME	72	Incongruent	niebieski	blue	żółty	yellow	hit	n/a
458.7559	n/a	RESPONSE	n/a	n/a	n/a	n/a	n/a	n/a	n/a	blue
458.7686	1.0	ITI	n/a	n/a	n/a	n/a	n/a	n/a	n/a	n/a
469.8527	n/a	RESPONSE	n/a	n/a	n/a	n/a	n/a	n/a	n/a	n/a
