onset	duration	condition	trial_type	braille_stimulus	response_val	response_type
2.017	2.008	LEXICAL_DECISION	CUE	n/a	n/a	n/a
7.017	1.008	LEXICAL_DECISION	FIXCROSS	n/a	n/a	n/a
8.033	5.008	LEXICAL_DECISION	PSEUDOWORD	BADO	n/a	n/a
14.28	n/a	LEXICAL_DECISION	RESPONSE	n/a	NO	CORRECT_REJECTION
15.067	1.008	LEXICAL_DECISION	FIXCROSS	n/a	n/a	n/a
16.083	5.008	LEXICAL_DECISION	WORD	DEBEL	n/a	n/a
21.84	n/a	LEXICAL_DECISION	RESPONSE	n/a	NO	MISS
23.117	1.008	LEXICAL_DECISION	FIXCROSS	n/a	n/a	n/a
24.134	5.008	LEXICAL_DECISION	WORD	OBAL	n/a	n/a
30.464	n/a	LEXICAL_DECISION	RESPONSE	n/a	YES	HIT
31.167	1.008	LEXICAL_DECISION	FIXCROSS	n/a	n/a	n/a
32.184	5.008	LEXICAL_DECISION	PSEUDOWORD	LAKO	n/a	n/a
37.744	n/a	LEXICAL_DECISION	RESPONSE	n/a	NO	CORRECT_REJECTION
39.217	1.008	LEXICAL_DECISION	FIXCROSS	n/a	n/a	n/a
40.234	5.008	LEXICAL_DECISION	WORD	OBCA	n/a	n/a
45.72	n/a	LEXICAL_DECISION	RESPONSE	n/a	YES	HIT
49.275	2.008	6_DOT_DETECTION	CUE	n/a	n/a	n/a
54.275	1.008	6_DOT_DETECTION	FIXCROSS	n/a	n/a	n/a
55.292	5.008	6_DOT_DETECTION	NO_6-DOT	PKUŁS	n/a	n/a
61.0	n/a	6_DOT_DETECTION	RESPONSE	n/a	NO	CORRECT_REJECTION
62.325	1.009	6_DOT_DETECTION	FIXCROSS	n/a	n/a	n/a
63.342	5.008	6_DOT_DETECTION	6-DOT	ETS##	n/a	n/a
67.864	n/a	6_DOT_DETECTION	RESPONSE	n/a	YES	HIT
70.375	1.008	6_DOT_DETECTION	FIXCROSS	n/a	n/a	n/a
71.392	5.008	6_DOT_DETECTION	6-DOT	#ALK#	n/a	n/a
75.504	n/a	6_DOT_DETECTION	RESPONSE	n/a	YES	HIT
78.425	1.008	6_DOT_DETECTION	FIXCROSS	n/a	n/a	n/a
79.442	5.008	6_DOT_DETECTION	NO_6-DOT	TSDRO	n/a	n/a
85.224	n/a	6_DOT_DETECTION	RESPONSE	n/a	NO	CORRECT_REJECTION
86.475	1.008	6_DOT_DETECTION	FIXCROSS	n/a	n/a	n/a
87.492	5.008	6_DOT_DETECTION	6-DOT	O#L#	n/a	n/a
92.224	n/a	6_DOT_DETECTION	RESPONSE	n/a	YES	HIT
95.534	2.008	LEXICAL_DECISION	CUE	n/a	n/a	n/a
100.534	1.008	LEXICAL_DECISION	FIXCROSS	n/a	n/a	n/a
101.55	5.008	LEXICAL_DECISION	WORD	BOLEC	n/a	n/a
107.904	n/a	LEXICAL_DECISION	RESPONSE	n/a	NO	MISS
108.584	1.008	LEXICAL_DECISION	FIXCROSS	n/a	n/a	n/a
109.6	5.008	LEXICAL_DECISION	PSEUDOWORD	DBAL	n/a	n/a
116.16	n/a	LEXICAL_DECISION	RESPONSE	n/a	YES	FALSE_ALARM
116.634	1.008	LEXICAL_DECISION	FIXCROSS	n/a	n/a	n/a
117.65	5.008	LEXICAL_DECISION	PSEUDOWORD	ABDEK	n/a	n/a
124.104	n/a	LEXICAL_DECISION	RESPONSE	n/a	NO	CORRECT_REJECTION
124.684	1.008	LEXICAL_DECISION	FIXCROSS	n/a	n/a	n/a
125.7	5.008	LEXICAL_DECISION	WORD	OCALA	n/a	n/a
131.92	n/a	LEXICAL_DECISION	RESPONSE	n/a	YES	HIT
132.734	1.008	LEXICAL_DECISION	FIXCROSS	n/a	n/a	n/a
133.751	5.008	LEXICAL_DECISION	PSEUDOWORD	BEBO	n/a	n/a
140.664	n/a	LEXICAL_DECISION	RESPONSE	n/a	NO	CORRECT_REJECTION
142.301	2.008	6_DOT_DETECTION	CUE	n/a	n/a	n/a
146.792	1.008	6_DOT_DETECTION	FIXCROSS	n/a	n/a	n/a
147.809	5.008	6_DOT_DETECTION	6-DOT	D#PK#	n/a	n/a
152.304	n/a	6_DOT_DETECTION	RESPONSE	n/a	YES	HIT
154.842	1.008	6_DOT_DETECTION	FIXCROSS	n/a	n/a	n/a
155.859	5.008	6_DOT_DETECTION	NO_6-DOT	MKRLA	n/a	n/a
162.064	n/a	6_DOT_DETECTION	RESPONSE	n/a	NO	CORRECT_REJECTION
162.892	1.008	6_DOT_DETECTION	FIXCROSS	n/a	n/a	n/a
163.909	5.008	6_DOT_DETECTION	NO_6-DOT	MBIY	n/a	n/a
169.824	n/a	6_DOT_DETECTION	RESPONSE	n/a	NO	CORRECT_REJECTION
170.942	1.008	6_DOT_DETECTION	FIXCROSS	n/a	n/a	n/a
171.959	5.008	6_DOT_DETECTION	6-DOT	K##L	n/a	n/a
175.96	n/a	6_DOT_DETECTION	RESPONSE	n/a	YES	HIT
178.992	1.008	6_DOT_DETECTION	FIXCROSS	n/a	n/a	n/a
180.009	5.008	6_DOT_DETECTION	NO_6-DOT	DLEC	n/a	n/a
184.384	n/a	6_DOT_DETECTION	RESPONSE	n/a	NO	CORRECT_REJECTION
188.551	2.008	LEXICAL_DECISION	CUE	n/a	n/a	n/a
195.051	1.008	LEXICAL_DECISION	FIXCROSS	n/a	n/a	n/a
196.068	5.008	LEXICAL_DECISION	PSEUDOWORD	COKA	n/a	n/a
202.4	n/a	LEXICAL_DECISION	RESPONSE	n/a	NO	CORRECT_REJECTION
203.101	1.008	LEXICAL_DECISION	FIXCROSS	n/a	n/a	n/a
204.118	5.008	LEXICAL_DECISION	WORD	KLOC	n/a	n/a
210.96	n/a	LEXICAL_DECISION	RESPONSE	n/a	YES	HIT
211.151	1.008	LEXICAL_DECISION	FIXCROSS	n/a	n/a	n/a
212.168	5.008	LEXICAL_DECISION	PSEUDOWORD	CABL	n/a	n/a
218.72	n/a	LEXICAL_DECISION	RESPONSE	n/a	NO	CORRECT_REJECTION
219.201	1.008	LEXICAL_DECISION	FIXCROSS	n/a	n/a	n/a
220.218	5.008	LEXICAL_DECISION	PSEUDOWORD	DABA	n/a	n/a
226.464	n/a	LEXICAL_DECISION	RESPONSE	n/a	YES	FALSE_ALARM
227.251	1.008	LEXICAL_DECISION	FIXCROSS	n/a	n/a	n/a
228.268	5.008	LEXICAL_DECISION	WORD	CACKA	n/a	n/a
234.544	n/a	LEXICAL_DECISION	RESPONSE	n/a	NO	MISS
236.809	2.008	6_DOT_DETECTION	CUE	n/a	n/a	n/a
242.309	1.008	6_DOT_DETECTION	FIXCROSS	n/a	n/a	n/a
243.326	5.009	6_DOT_DETECTION	NO_6-DOT	OLBA	n/a	n/a
248.464	n/a	6_DOT_DETECTION	RESPONSE	n/a	NO	CORRECT_REJECTION
250.359	1.008	6_DOT_DETECTION	FIXCROSS	n/a	n/a	n/a
251.376	5.008	6_DOT_DETECTION	6-DOT	#U#	n/a	n/a
255.384	n/a	6_DOT_DETECTION	RESPONSE	n/a	YES	HIT
258.409	1.008	6_DOT_DETECTION	FIXCROSS	n/a	n/a	n/a
259.426	5.008	6_DOT_DETECTION	NO_6-DOT	ŁCT	n/a	n/a
265.264	n/a	6_DOT_DETECTION	RESPONSE	n/a	NO	CORRECT_REJECTION
266.459	1.008	6_DOT_DETECTION	FIXCROSS	n/a	n/a	n/a
267.476	5.008	6_DOT_DETECTION	NO_6-DOT	TKDS	n/a	n/a
272.92	n/a	6_DOT_DETECTION	RESPONSE	n/a	NO	CORRECT_REJECTION
274.51	1.008	6_DOT_DETECTION	FIXCROSS	n/a	n/a	n/a
275.526	5.008	6_DOT_DETECTION	6-DOT	T##B	n/a	n/a
280.12	n/a	6_DOT_DETECTION	RESPONSE	n/a	YES	HIT
284.568	2.008	LEXICAL_DECISION	CUE	n/a	n/a	n/a
290.568	1.008	LEXICAL_DECISION	FIXCROSS	n/a	n/a	n/a
291.584	5.008	LEXICAL_DECISION	PSEUDOWORD	LOCKA	n/a	n/a
298.2	n/a	LEXICAL_DECISION	RESPONSE	n/a	NO	CORRECT_REJECTION
298.618	1.008	LEXICAL_DECISION	FIXCROSS	n/a	n/a	n/a
299.635	5.008	LEXICAL_DECISION	PSEUDOWORD	BLEDA	n/a	n/a
306.424	n/a	LEXICAL_DECISION	RESPONSE	n/a	NO	CORRECT_REJECTION
306.668	1.008	LEXICAL_DECISION	FIXCROSS	n/a	n/a	n/a
307.685	5.008	LEXICAL_DECISION	PSEUDOWORD	CELDO	n/a	n/a
314.344	n/a	LEXICAL_DECISION	RESPONSE	n/a	YES	FALSE_ALARM
314.718	1.008	LEXICAL_DECISION	FIXCROSS	n/a	n/a	n/a
315.735	5.008	LEXICAL_DECISION	WORD	KOLE	n/a	n/a
321.864	n/a	LEXICAL_DECISION	RESPONSE	n/a	NO	MISS
322.768	1.008	LEXICAL_DECISION	FIXCROSS	n/a	n/a	n/a
323.785	5.008	LEXICAL_DECISION	WORD	OBA	n/a	n/a
329.904	n/a	LEXICAL_DECISION	RESPONSE	n/a	YES	HIT
332.826	2.008	6_DOT_DETECTION	CUE	n/a	n/a	n/a
338.826	1.008	6_DOT_DETECTION	FIXCROSS	n/a	n/a	n/a
339.843	5.008	6_DOT_DETECTION	NO_6-DOT	DMBI	n/a	n/a
344.4	n/a	6_DOT_DETECTION	RESPONSE	n/a	NO	CORRECT_REJECTION
346.876	1.008	6_DOT_DETECTION	FIXCROSS	n/a	n/a	n/a
347.893	5.008	6_DOT_DETECTION	NO_6-DOT	KŁDBT	n/a	n/a
353.56	n/a	6_DOT_DETECTION	RESPONSE	n/a	NO	CORRECT_REJECTION
354.926	1.008	6_DOT_DETECTION	FIXCROSS	n/a	n/a	n/a
355.943	5.008	6_DOT_DETECTION	NO_6-DOT	LMACO	n/a	n/a
361.04	n/a	6_DOT_DETECTION	RESPONSE	n/a	NO	CORRECT_REJECTION
362.976	1.009	6_DOT_DETECTION	FIXCROSS	n/a	n/a	n/a
363.993	5.008	6_DOT_DETECTION	6-DOT	K##E	n/a	n/a
368.537	n/a	6_DOT_DETECTION	RESPONSE	n/a	YES	HIT
371.026	1.009	6_DOT_DETECTION	FIXCROSS	n/a	n/a	n/a
372.043	5.008	6_DOT_DETECTION	6-DOT	D##	n/a	n/a
376.52	n/a	6_DOT_DETECTION	RESPONSE	n/a	YES	HIT
380.585	2.008	LEXICAL_DECISION	CUE	n/a	n/a	n/a
386.085	1.008	LEXICAL_DECISION	FIXCROSS	n/a	n/a	n/a
387.102	5.008	LEXICAL_DECISION	PSEUDOWORD	ALOD	n/a	n/a
393.857	n/a	LEXICAL_DECISION	RESPONSE	n/a	NO	CORRECT_REJECTION
394.135	1.008	LEXICAL_DECISION	FIXCROSS	n/a	n/a	n/a
395.152	5.008	LEXICAL_DECISION	WORD	DBA	n/a	n/a
400.841	n/a	LEXICAL_DECISION	RESPONSE	n/a	YES	HIT
402.185	1.008	LEXICAL_DECISION	FIXCROSS	n/a	n/a	n/a
403.202	5.008	LEXICAL_DECISION	PSEUDOWORD	KAL	n/a	n/a
409.241	n/a	LEXICAL_DECISION	RESPONSE	n/a	NO	CORRECT_REJECTION
410.235	1.008	LEXICAL_DECISION	FIXCROSS	n/a	n/a	n/a
411.252	5.008	LEXICAL_DECISION	WORD	KOLBA	n/a	n/a
417.281	n/a	LEXICAL_DECISION	RESPONSE	n/a	YES	HIT
418.285	1.008	LEXICAL_DECISION	FIXCROSS	n/a	n/a	n/a
419.302	5.008	LEXICAL_DECISION	WORD	BUDKA	n/a	n/a
425.617	n/a	LEXICAL_DECISION	RESPONSE	n/a	NO	MISS
427.843	2.008	6_DOT_DETECTION	CUE	n/a	n/a	n/a
433.343	1.008	6_DOT_DETECTION	FIXCROSS	n/a	n/a	n/a
434.36	5.008	6_DOT_DETECTION	NO_6-DOT	BMK	n/a	n/a
438.617	n/a	6_DOT_DETECTION	RESPONSE	n/a	NO	CORRECT_REJECTION
441.394	1.008	6_DOT_DETECTION	FIXCROSS	n/a	n/a	n/a
442.41	5.008	6_DOT_DETECTION	6-DOT	#AK#	n/a	n/a
446.361	n/a	6_DOT_DETECTION	RESPONSE	n/a	YES	HIT
449.444	1.008	6_DOT_DETECTION	FIXCROSS	n/a	n/a	n/a
450.46	5.008	6_DOT_DETECTION	NO_6-DOT	BKCA	n/a	n/a
454.137	n/a	6_DOT_DETECTION	RESPONSE	n/a	NO	CORRECT_REJECTION
457.494	1.008	6_DOT_DETECTION	FIXCROSS	n/a	n/a	n/a
458.51	5.008	6_DOT_DETECTION	6-DOT	UD#Y#	n/a	n/a
465.257	n/a	6_DOT_DETECTION	RESPONSE	n/a	NO	MISS
465.544	1.008	6_DOT_DETECTION	FIXCROSS	n/a	n/a	n/a
466.56	5.008	6_DOT_DETECTION	6-DOT	##IK	n/a	n/a
471.681	n/a	6_DOT_DETECTION	RESPONSE	n/a	YES	HIT
474.602	2.008	LEXICAL_DECISION	CUE	n/a	n/a	n/a
479.602	1.008	LEXICAL_DECISION	FIXCROSS	n/a	n/a	n/a
480.619	5.008	LEXICAL_DECISION	WORD	KOCE	n/a	n/a
487.337	n/a	LEXICAL_DECISION	RESPONSE	n/a	NO	MISS
487.652	1.008	LEXICAL_DECISION	FIXCROSS	n/a	n/a	n/a
488.669	5.008	LEXICAL_DECISION	WORD	KOLE	n/a	n/a
495.057	n/a	LEXICAL_DECISION	RESPONSE	n/a	YES	HIT
495.702	1.008	LEXICAL_DECISION	FIXCROSS	n/a	n/a	n/a
496.719	5.008	LEXICAL_DECISION	PSEUDOWORD	COL	n/a	n/a
502.481	n/a	LEXICAL_DECISION	RESPONSE	n/a	YES	FALSE_ALARM
503.752	1.008	LEXICAL_DECISION	FIXCROSS	n/a	n/a	n/a
504.769	5.008	LEXICAL_DECISION	PSEUDOWORD	KACEB	n/a	n/a
511.001	n/a	LEXICAL_DECISION	RESPONSE	n/a	NO	CORRECT_REJECTION
511.802	1.008	LEXICAL_DECISION	FIXCROSS	n/a	n/a	n/a
512.819	5.008	LEXICAL_DECISION	WORD	KOCA	n/a	n/a
518.537	n/a	LEXICAL_DECISION	RESPONSE	n/a	YES	HIT
520.86	2.008	6_DOT_DETECTION	CUE	n/a	n/a	n/a
527.86	1.008	6_DOT_DETECTION	FIXCROSS	n/a	n/a	n/a
528.877	5.008	6_DOT_DETECTION	6-DOT	CA#O#	n/a	n/a
534.641	n/a	6_DOT_DETECTION	RESPONSE	n/a	YES	HIT
535.91	1.008	6_DOT_DETECTION	FIXCROSS	n/a	n/a	n/a
536.927	5.008	6_DOT_DETECTION	6-DOT	PD##	n/a	n/a
542.801	n/a	6_DOT_DETECTION	RESPONSE	n/a	YES	HIT
543.96	1.008	6_DOT_DETECTION	FIXCROSS	n/a	n/a	n/a
544.977	5.008	6_DOT_DETECTION	NO_6-DOT	LKE	n/a	n/a
550.281	n/a	6_DOT_DETECTION	RESPONSE	n/a	NO	CORRECT_REJECTION
552.011	1.008	6_DOT_DETECTION	FIXCROSS	n/a	n/a	n/a
553.027	5.008	6_DOT_DETECTION	NO_6-DOT	DTOŁ	n/a	n/a
558.081	n/a	6_DOT_DETECTION	RESPONSE	n/a	NO	CORRECT_REJECTION
560.061	1.008	6_DOT_DETECTION	FIXCROSS	n/a	n/a	n/a
561.077	5.008	6_DOT_DETECTION	6-DOT	#LOK#	n/a	n/a
566.881	n/a	6_DOT_DETECTION	RESPONSE	n/a	YES	HIT
569.619	2.008	LEXICAL_DECISION	CUE	n/a	n/a	n/a
576.119	1.008	LEXICAL_DECISION	FIXCROSS	n/a	n/a	n/a
577.136	5.008	LEXICAL_DECISION	PSEUDOWORD	DAK	n/a	n/a
583.897	n/a	LEXICAL_DECISION	RESPONSE	n/a	NO	CORRECT_REJECTION
584.169	1.008	LEXICAL_DECISION	FIXCROSS	n/a	n/a	n/a
585.186	5.008	LEXICAL_DECISION	PSEUDOWORD	EBLOD	n/a	n/a
591.817	n/a	LEXICAL_DECISION	RESPONSE	n/a	YES	FALSE_ALARM
592.219	1.008	LEXICAL_DECISION	FIXCROSS	n/a	n/a	n/a
593.236	5.008	LEXICAL_DECISION	PSEUDOWORD	KLABO	n/a	n/a
599.417	n/a	LEXICAL_DECISION	RESPONSE	n/a	NO	CORRECT_REJECTION
600.269	1.008	LEXICAL_DECISION	FIXCROSS	n/a	n/a	n/a
601.286	5.008	LEXICAL_DECISION	WORD	LABA	n/a	n/a
607.841	n/a	LEXICAL_DECISION	RESPONSE	n/a	YES	HIT
608.319	1.008	LEXICAL_DECISION	FIXCROSS	n/a	n/a	n/a
609.336	5.008	LEXICAL_DECISION	WORD	KOLCA	n/a	n/a
615.881	n/a	LEXICAL_DECISION	RESPONSE	n/a	NO	MISS
617.878	2.008	6_DOT_DETECTION	CUE	n/a	n/a	n/a
622.378	1.008	6_DOT_DETECTION	FIXCROSS	n/a	n/a	n/a
623.394	5.008	6_DOT_DETECTION	NO_6-DOT	DBKL	n/a	n/a
628.961	n/a	6_DOT_DETECTION	RESPONSE	n/a	NO	CORRECT_REJECTION
630.428	1.008	6_DOT_DETECTION	FIXCROSS	n/a	n/a	n/a
631.444	5.008	6_DOT_DETECTION	NO_6-DOT	PYSL	n/a	n/a
636.121	n/a	6_DOT_DETECTION	RESPONSE	n/a	NO	CORRECT_REJECTION
638.478	1.008	6_DOT_DETECTION	FIXCROSS	n/a	n/a	n/a
639.494	5.008	6_DOT_DETECTION	NO_6-DOT	LBIT	n/a	n/a
645.177	n/a	6_DOT_DETECTION	RESPONSE	n/a	NO	CORRECT_REJECTION
646.528	1.008	6_DOT_DETECTION	FIXCROSS	n/a	n/a	n/a
647.544	5.008	6_DOT_DETECTION	6-DOT	##P	n/a	n/a
652.441	n/a	6_DOT_DETECTION	RESPONSE	n/a	YES	HIT
654.577	1.009	6_DOT_DETECTION	FIXCROSS	n/a	n/a	n/a
655.594	5.008	6_DOT_DETECTION	6-DOT	#TOC#	n/a	n/a
661.361	n/a	6_DOT_DETECTION	RESPONSE	n/a	YES	HIT
664.136	2.008	LEXICAL_DECISION	CUE	n/a	n/a	n/a
669.636	1.008	LEXICAL_DECISION	FIXCROSS	n/a	n/a	n/a
670.653	5.008	LEXICAL_DECISION	PSEUDOWORD	BOD	n/a	n/a
677.017	n/a	LEXICAL_DECISION	RESPONSE	n/a	NO	CORRECT_REJECTION
677.686	1.008	LEXICAL_DECISION	FIXCROSS	n/a	n/a	n/a
678.703	5.008	LEXICAL_DECISION	WORD	DLA	n/a	n/a
684.417	n/a	LEXICAL_DECISION	RESPONSE	n/a	YES	HIT
685.736	1.008	LEXICAL_DECISION	FIXCROSS	n/a	n/a	n/a
686.753	5.008	LEXICAL_DECISION	WORD	OBCO	n/a	n/a
693.497	n/a	LEXICAL_DECISION	RESPONSE	n/a	NO	MISS
693.786	1.008	LEXICAL_DECISION	FIXCROSS	n/a	n/a	n/a
694.803	5.008	LEXICAL_DECISION	WORD	BOK	n/a	n/a
699.841	n/a	LEXICAL_DECISION	RESPONSE	n/a	YES	HIT
701.836	1.008	LEXICAL_DECISION	FIXCROSS	n/a	n/a	n/a
702.853	5.008	LEXICAL_DECISION	PSEUDOWORD	KEDA	n/a	n/a
709.041	n/a	LEXICAL_DECISION	RESPONSE	n/a	NO	CORRECT_REJECTION
710.894	2.008	6_DOT_DETECTION	CUE	n/a	n/a	n/a
715.894	1.008	6_DOT_DETECTION	FIXCROSS	n/a	n/a	n/a
716.911	5.008	6_DOT_DETECTION	NO_6-DOT	KBD	n/a	n/a
722.201	n/a	6_DOT_DETECTION	RESPONSE	n/a	NO	CORRECT_REJECTION
723.945	1.008	6_DOT_DETECTION	FIXCROSS	n/a	n/a	n/a
724.961	5.008	6_DOT_DETECTION	6-DOT	#L#	n/a	n/a
729.457	n/a	6_DOT_DETECTION	RESPONSE	n/a	YES	HIT
731.995	1.008	6_DOT_DETECTION	FIXCROSS	n/a	n/a	n/a
733.011	5.008	6_DOT_DETECTION	6-DOT	DE##A	n/a	n/a
738.761	n/a	6_DOT_DETECTION	RESPONSE	n/a	YES	HIT
740.045	1.008	6_DOT_DETECTION	FIXCROSS	n/a	n/a	n/a
741.061	5.008	6_DOT_DETECTION	6-DOT	KO##	n/a	n/a
745.841	n/a	6_DOT_DETECTION	RESPONSE	n/a	YES	HIT
748.095	1.008	6_DOT_DETECTION	FIXCROSS	n/a	n/a	n/a
749.111	5.008	6_DOT_DETECTION	NO_6-DOT	ADBD	n/a	n/a
755.241	n/a	6_DOT_DETECTION	RESPONSE	n/a	NO	CORRECT_REJECTION
