onset	duration	trial_type	melody_number	melody_part	key	sound	action
0.0	14.08	CUE_START	n/a	n/a	n/a	n/a	n/a
14.08	7.76	FIXCROSS	n/a	n/a	n/a	n/a	n/a
21.84	6.324	CUE_LISTEN	M3	1	n/a	n/a	n/a
28.164	7.758	FIXCROSS	n/a	n/a	n/a	n/a	n/a
35.922	6.317	CUE_PLAYBACK_BOTH_HANDS	M3	1	n/a	n/a	n/a
37.622	n/a	RESPONSE	M3	1	00	C3	press
37.641	n/a	RESPONSE	M3	1	12	C4	press
38.15	n/a	RESPONSE	M3	1	07	G3	press
38.168	n/a	RESPONSE	M3	1	14	D4	press
38.171	n/a	RESPONSE	M3	1	16	E4	press
38.188	n/a	RESPONSE	M3	1	12	C4	release
38.207	n/a	RESPONSE	M3	1	00	C3	release
38.332	n/a	RESPONSE	M3	1	16	E4	release
38.683	n/a	RESPONSE	M3	1	16	E4	press
38.72	n/a	RESPONSE	M3	1	04	E3	press
38.738	n/a	RESPONSE	M3	1	14	D4	release
38.81	n/a	RESPONSE	M3	1	07	G3	release
39.231	n/a	RESPONSE	M3	1	07	G3	press
39.233	n/a	RESPONSE	M3	1	12	C4	press
39.286	n/a	RESPONSE	M3	1	16	E4	release
39.323	n/a	RESPONSE	M3	1	04	E3	release
39.57	n/a	RESPONSE	M3	1	12	C4	release
39.641	n/a	RESPONSE	M3	1	07	G3	release
39.802	n/a	RESPONSE	M3	1	00	C3	press
39.804	n/a	RESPONSE	M3	1	12	C4	press
40.334	n/a	RESPONSE	M3	1	14	D4	press
40.353	n/a	RESPONSE	M3	1	07	G3	press
40.39	n/a	RESPONSE	M3	1	00	C3	release
40.443	n/a	RESPONSE	M3	1	12	C4	release
40.847	n/a	RESPONSE	M3	1	04	E3	press
40.85	n/a	RESPONSE	M3	1	16	E4	press
40.884	n/a	RESPONSE	M3	1	14	D4	release
40.938	n/a	RESPONSE	M3	1	07	G3	release
41.381	n/a	RESPONSE	M3	1	07	G3	press
41.383	n/a	RESPONSE	M3	1	16	E4	release
41.386	n/a	RESPONSE	M3	1	12	C4	press
41.402	n/a	RESPONSE	M3	1	04	E3	release
42.239	7.758	FIXCROSS	n/a	n/a	n/a	n/a	n/a
42.243	n/a	RESPONSE	M3	1	12	C4	release
42.514	n/a	RESPONSE	M3	1	07	G3	release
49.997	6.317	CUE_LISTEN	M3	2	n/a	n/a	n/a
56.314	7.758	FIXCROSS	n/a	n/a	n/a	n/a	n/a
64.072	6.325	CUE_PLAYBACK_BOTH_HANDS	M3	2	n/a	n/a	n/a
64.742	n/a	RESPONSE	M3	2	00	C3	press
64.756	n/a	RESPONSE	M3	2	16	E4	press
65.218	n/a	RESPONSE	M3	2	16	E4	release
65.232	n/a	RESPONSE	M3	2	17	F4	press
65.29	n/a	RESPONSE	M3	2	07	G3	press
65.348	n/a	RESPONSE	M3	2	00	C3	release
65.775	n/a	RESPONSE	M3	2	04	E3	press
65.793	n/a	RESPONSE	M3	2	19	G4	press
65.866	n/a	RESPONSE	M3	2	17	F4	release
65.901	n/a	RESPONSE	M3	2	07	G3	release
66.306	n/a	RESPONSE	M3	2	07	G3	press
66.324	n/a	RESPONSE	M3	2	19	G4	release
66.381	n/a	RESPONSE	M3	2	04	E3	release
66.854	n/a	RESPONSE	M3	2	16	E4	press
66.874	n/a	RESPONSE	M3	2	00	C3	press
66.944	n/a	RESPONSE	M3	2	07	G3	release
67.313	n/a	RESPONSE	M3	2	16	E4	release
67.351	n/a	RESPONSE	M3	2	17	F4	press
67.404	n/a	RESPONSE	M3	2	07	G3	press
67.442	n/a	RESPONSE	M3	2	00	C3	release
67.914	n/a	RESPONSE	M3	2	04	E3	press
67.917	n/a	RESPONSE	M3	2	19	G4	press
67.952	n/a	RESPONSE	M3	2	17	F4	release
67.988	n/a	RESPONSE	M3	2	07	G3	release
68.463	n/a	RESPONSE	M3	2	07	G3	press
68.517	n/a	RESPONSE	M3	2	19	G4	release
68.52	n/a	RESPONSE	M3	2	04	E3	release
69.22	n/a	RESPONSE	M3	2	07	G3	release
70.397	7.758	FIXCROSS	n/a	n/a	n/a	n/a	n/a
78.156	6.317	CUE_LISTEN	M3	1	n/a	n/a	n/a
84.472	7.758	FIXCROSS	n/a	n/a	n/a	n/a	n/a
92.231	6.325	CUE_PLAYBACK_BOTH_HANDS	M3	1	n/a	n/a	n/a
92.92	n/a	RESPONSE	M3	1	00	C3	press
92.966	n/a	RESPONSE	M3	1	19	G4	press
93.261	n/a	RESPONSE	M3	1	21	A4	press
93.398	n/a	RESPONSE	M3	1	19	G4	release
93.613	n/a	RESPONSE	M3	1	07	G3	press
93.673	n/a	RESPONSE	M3	1	00	C3	release
93.706	n/a	RESPONSE	M3	1	21	A4	release
94.316	n/a	RESPONSE	M3	1	07	G3	release
94.632	n/a	RESPONSE	M3	1	00	C3	press
94.667	n/a	RESPONSE	M3	1	19	G4	press
94.927	n/a	RESPONSE	M3	1	21	A4	press
95.007	n/a	RESPONSE	M3	1	19	G4	release
95.247	n/a	RESPONSE	M3	1	19	G4	press
95.25	n/a	RESPONSE	M3	1	07	G3	press
95.33	n/a	RESPONSE	M3	1	21	A4	release
95.364	n/a	RESPONSE	M3	1	00	C3	release
95.557	n/a	RESPONSE	M3	1	17	F4	press
95.682	n/a	RESPONSE	M3	1	19	G4	release
95.852	n/a	RESPONSE	M3	1	04	E3	press
95.891	n/a	RESPONSE	M3	1	16	E4	press
95.943	n/a	RESPONSE	M3	1	17	F4	release
95.961	n/a	RESPONSE	M3	1	07	G3	release
96.578	n/a	RESPONSE	M3	1	07	G3	press
96.597	n/a	RESPONSE	M3	1	12	C4	press
96.6	n/a	RESPONSE	M3	1	04	E3	release
96.602	n/a	RESPONSE	M3	1	16	E4	release
96.618	n/a	RESPONSE	M3	1	14	D4	press
96.742	n/a	RESPONSE	M3	1	14	D4	release
97.181	n/a	RESPONSE	M3	1	12	C4	release
97.323	n/a	RESPONSE	M3	1	07	G3	release
97.38	n/a	RESPONSE	M3	1	00	C3	press
97.431	n/a	RESPONSE	M3	1	17	F4	press
97.467	n/a	RESPONSE	M3	1	19	G4	press
97.626	n/a	RESPONSE	M3	1	19	G4	release
97.697	n/a	RESPONSE	M3	1	19	G4	press
97.803	n/a	RESPONSE	M3	1	17	F4	release
97.876	n/a	RESPONSE	M3	1	19	G4	release
98.49	n/a	RESPONSE	M3	1	19	G4	press
98.492	n/a	RESPONSE	M3	1	07	G3	press
98.527	n/a	RESPONSE	M3	1	17	F4	press
98.546	n/a	RESPONSE	M3	1	00	C3	release
98.556	7.758	FIXCROSS	n/a	n/a	n/a	n/a	n/a
98.617	n/a	RESPONSE	M3	1	19	G4	release
98.863	n/a	RESPONSE	M3	1	16	E4	press
98.917	n/a	RESPONSE	M3	1	04	E3	press
98.936	n/a	RESPONSE	M3	1	17	F4	release
99.007	n/a	RESPONSE	M3	1	07	G3	release
99.271	n/a	RESPONSE	M3	1	14	D4	press
99.273	n/a	RESPONSE	M3	1	16	E4	release
99.764	n/a	RESPONSE	M3	1	14	D4	release
99.786	n/a	RESPONSE	M3	1	04	E3	release
106.314	6.317	CUE_LISTEN	M3	2	n/a	n/a	n/a
112.631	7.758	FIXCROSS	n/a	n/a	n/a	n/a	n/a
120.389	6.317	CUE_PLAYBACK_BOTH_HANDS	M3	2	n/a	n/a	n/a
121.542	n/a	RESPONSE	M3	2	00	C3	press
121.613	n/a	RESPONSE	M3	2	12	C4	press
122.176	n/a	RESPONSE	M3	2	12	C4	release
122.234	n/a	RESPONSE	M3	2	07	G3	press
122.753	n/a	RESPONSE	M3	2	07	G3	release
122.823	n/a	RESPONSE	M3	2	00	C3	release
122.958	n/a	RESPONSE	M3	2	00	C3	press
122.973	n/a	RESPONSE	M3	2	12	C4	press
123.997	n/a	RESPONSE	M3	2	12	C4	release
124.032	n/a	RESPONSE	M3	2	00	C3	release
124.327	n/a	RESPONSE	M3	2	00	C3	press
124.362	n/a	RESPONSE	M3	2	12	C4	press
124.982	n/a	RESPONSE	M3	2	12	C4	release
125.028	n/a	RESPONSE	M3	2	00	C3	release
125.031	n/a	RESPONSE	M3	2	07	G3	press
125.608	n/a	RESPONSE	M3	2	07	G3	release
125.632	n/a	RESPONSE	M3	2	00	C3	press
125.667	n/a	RESPONSE	M3	2	12	C4	press
126.706	7.758	FIXCROSS	n/a	n/a	n/a	n/a	n/a
126.765	n/a	RESPONSE	M3	2	12	C4	release
126.781	n/a	RESPONSE	M3	2	00	C3	release
134.464	6.325	CUE_LISTEN	M1	1	n/a	n/a	n/a
140.789	7.758	FIXCROSS	n/a	n/a	n/a	n/a	n/a
148.547	6.317	CUE_PLAYBACK_BOTH_HANDS	M1	1	n/a	n/a	n/a
149.476	n/a	RESPONSE	M1	1	07	G3	press
149.478	n/a	RESPONSE	M1	1	00	C3	press
149.481	n/a	RESPONSE	M1	1	04	E3	press
149.497	n/a	RESPONSE	M1	1	19	G4	press
149.922	n/a	RESPONSE	M1	1	19	G4	release
150.116	n/a	RESPONSE	M1	1	16	E4	press
150.366	n/a	RESPONSE	M1	1	16	E4	release
150.647	n/a	RESPONSE	M1	1	16	E4	press
150.878	n/a	RESPONSE	M1	1	16	E4	release
150.931	n/a	RESPONSE	M1	1	04	E3	release
150.948	n/a	RESPONSE	M1	1	00	C3	release
151.196	n/a	RESPONSE	M1	1	05	F3	press
151.213	n/a	RESPONSE	M1	1	02	D3	press
151.25	n/a	RESPONSE	M1	1	17	F4	press
151.781	n/a	RESPONSE	M1	1	17	F4	release
151.817	n/a	RESPONSE	M1	1	14	D4	press
152.08	n/a	RESPONSE	M1	1	14	D4	release
152.421	n/a	RESPONSE	M1	1	14	D4	press
152.614	n/a	RESPONSE	M1	1	02	D3	release
152.637	n/a	RESPONSE	M1	1	14	D4	release
152.652	n/a	RESPONSE	M1	1	07	G3	release
152.673	n/a	RESPONSE	M1	1	05	F3	release
152.922	n/a	RESPONSE	M1	1	04	E3	press
152.947	n/a	RESPONSE	M1	1	00	C3	press
153.028	n/a	RESPONSE	M1	1	07	G3	press
153.038	n/a	RESPONSE	M1	1	19	G4	press
153.356	n/a	RESPONSE	M1	1	16	E4	press
153.447	n/a	RESPONSE	M1	1	19	G4	release
153.662	n/a	RESPONSE	M1	1	16	E4	release
153.843	n/a	RESPONSE	M1	1	00	C3	release
153.89	n/a	RESPONSE	M1	1	07	G3	release
153.913	n/a	RESPONSE	M1	1	04	E3	release
154.084	n/a	RESPONSE	M1	1	04	E3	press
154.087	n/a	RESPONSE	M1	1	00	C3	press
154.097	n/a	RESPONSE	M1	1	07	G3	press
154.154	n/a	RESPONSE	M1	1	12	C4	press
154.45	n/a	RESPONSE	M1	1	14	D4	press
154.541	n/a	RESPONSE	M1	1	12	C4	release
154.744	n/a	RESPONSE	M1	1	17	F4	press
154.76	n/a	RESPONSE	M1	1	14	D4	release
154.772	n/a	RESPONSE	M1	1	19	G4	press
154.864	7.758	FIXCROSS	n/a	n/a	n/a	n/a	n/a
154.986	n/a	RESPONSE	M1	1	17	F4	release
155.053	n/a	RESPONSE	M1	1	19	G4	release
155.157	n/a	RESPONSE	M1	1	00	C3	release
155.168	n/a	RESPONSE	M1	1	04	E3	release
155.443	n/a	RESPONSE	M1	1	07	G3	release
162.622	6.317	CUE_LISTEN	M1	2	n/a	n/a	n/a
168.939	7.758	FIXCROSS	n/a	n/a	n/a	n/a	n/a
176.698	6.325	CUE_PLAYBACK_BOTH_HANDS	M1	2	n/a	n/a	n/a
177.35	n/a	RESPONSE	M1	2	04	E3	press
177.386	n/a	RESPONSE	M1	2	07	G3	press
177.422	n/a	RESPONSE	M1	2	19	G4	press
177.441	n/a	RESPONSE	M1	2	00	C3	press
177.827	n/a	RESPONSE	M1	2	19	G4	release
178.003	n/a	RESPONSE	M1	2	16	E4	press
178.218	n/a	RESPONSE	M1	2	16	E4	release
178.55	n/a	RESPONSE	M1	2	16	E4	press
178.796	n/a	RESPONSE	M1	2	16	E4	release
178.8	n/a	RESPONSE	M1	2	00	C3	release
178.868	n/a	RESPONSE	M1	2	04	E3	release
179.15	n/a	RESPONSE	M1	2	05	F3	press
179.168	n/a	RESPONSE	M1	2	02	D3	press
179.204	n/a	RESPONSE	M1	2	17	F4	press
179.627	n/a	RESPONSE	M1	2	17	F4	release
179.826	n/a	RESPONSE	M1	2	14	D4	press
180.02	n/a	RESPONSE	M1	2	14	D4	release
180.496	n/a	RESPONSE	M1	2	14	D4	press
180.708	n/a	RESPONSE	M1	2	14	D4	release
180.728	n/a	RESPONSE	M1	2	02	D3	release
180.814	n/a	RESPONSE	M1	2	05	F3	release
180.868	n/a	RESPONSE	M1	2	07	G3	release
181.114	n/a	RESPONSE	M1	2	04	E3	press
181.186	n/a	RESPONSE	M1	2	00	C3	press
181.188	n/a	RESPONSE	M1	2	07	G3	press
181.241	n/a	RESPONSE	M1	2	12	C4	press
181.492	n/a	RESPONSE	M1	2	16	E4	press
181.58	n/a	RESPONSE	M1	2	12	C4	release
181.843	n/a	RESPONSE	M1	2	12	C4	press
181.847	n/a	RESPONSE	M1	2	11	B3	press
181.863	n/a	RESPONSE	M1	2	16	E4	release
181.952	n/a	RESPONSE	M1	2	11	B3	release
183.017	n/a	RESPONSE	M1	2	12	C4	release
183.022	7.758	FIXCROSS	n/a	n/a	n/a	n/a	n/a
183.03	n/a	RESPONSE	M1	2	00	C3	release
183.1	n/a	RESPONSE	M1	2	04	E3	release
183.324	n/a	RESPONSE	M1	2	07	G3	release
190.781	6.317	CUE_LISTEN	M2	1	n/a	n/a	n/a
197.097	7.758	FIXCROSS	n/a	n/a	n/a	n/a	n/a
204.856	6.325	CUE_PLAYBACK_BOTH_HANDS	M2	1	n/a	n/a	n/a
205.422	n/a	RESPONSE	M2	1	07	G3	press
205.424	n/a	RESPONSE	M2	1	00	C3	press
205.447	n/a	RESPONSE	M2	1	24	C5	press
205.93	n/a	RESPONSE	M2	1	24	C5	release
205.948	n/a	RESPONSE	M2	1	19	G4	press
206.248	n/a	RESPONSE	M2	1	19	G4	release
206.284	n/a	RESPONSE	M2	1	00	C3	release
206.446	n/a	RESPONSE	M2	1	00	C3	press
206.5	n/a	RESPONSE	M2	1	19	G4	press
206.957	n/a	RESPONSE	M2	1	17	F4	press
207.01	n/a	RESPONSE	M2	1	19	G4	release
207.203	n/a	RESPONSE	M2	1	17	F4	release
207.257	n/a	RESPONSE	M2	1	00	C3	release
207.487	n/a	RESPONSE	M2	1	16	E4	press
207.506	n/a	RESPONSE	M2	1	00	C3	press
207.98	n/a	RESPONSE	M2	1	17	F4	press
208.086	n/a	RESPONSE	M2	1	16	E4	release
208.263	n/a	RESPONSE	M2	1	17	F4	release
208.317	n/a	RESPONSE	M2	1	07	G3	release
208.32	n/a	RESPONSE	M2	1	00	C3	release
208.512	n/a	RESPONSE	M2	1	07	G3	press
208.531	n/a	RESPONSE	M2	1	00	C3	press
208.567	n/a	RESPONSE	M2	1	19	G4	press
208.586	n/a	RESPONSE	M2	1	17	F4	press
208.762	n/a	RESPONSE	M2	1	17	F4	release
209.201	n/a	RESPONSE	M2	1	19	G4	release
209.361	n/a	RESPONSE	M2	1	00	C3	release
209.59	n/a	RESPONSE	M2	1	07	G3	release
211.181	7.758	FIXCROSS	n/a	n/a	n/a	n/a	n/a
218.939	6.317	CUE_LISTEN	M2	2	n/a	n/a	n/a
225.256	7.758	FIXCROSS	n/a	n/a	n/a	n/a	n/a
233.014	6.317	CUE_PLAYBACK_BOTH_HANDS	M2	2	n/a	n/a	n/a
233.818	n/a	RESPONSE	M2	2	24	C5	press
234.317	n/a	RESPONSE	M2	2	19	G4	press
234.351	n/a	RESPONSE	M2	2	24	C5	release
234.543	n/a	RESPONSE	M2	2	19	G4	release
235.221	n/a	RESPONSE	M2	2	07	G3	press
235.234	n/a	RESPONSE	M2	2	00	C3	press
235.247	n/a	RESPONSE	M2	2	24	C5	press
235.706	n/a	RESPONSE	M2	2	19	G4	press
235.812	n/a	RESPONSE	M2	2	24	C5	release
235.936	n/a	RESPONSE	M2	2	19	G4	release
235.972	n/a	RESPONSE	M2	2	00	C3	release
235.991	n/a	RESPONSE	M2	2	07	G3	release
236.221	n/a	RESPONSE	M2	2	00	C3	press
236.223	n/a	RESPONSE	M2	2	07	G3	press
236.241	n/a	RESPONSE	M2	2	19	G4	press
236.717	n/a	RESPONSE	M2	2	17	F4	press
236.807	n/a	RESPONSE	M2	2	19	G4	release
236.93	n/a	RESPONSE	M2	2	07	G3	release
236.932	n/a	RESPONSE	M2	2	00	C3	release
236.967	n/a	RESPONSE	M2	2	17	F4	release
237.213	n/a	RESPONSE	M2	2	07	G3	press
237.25	n/a	RESPONSE	M2	2	00	C3	press
237.252	n/a	RESPONSE	M2	2	16	E4	press
237.728	n/a	RESPONSE	M2	2	12	C4	press
237.797	n/a	RESPONSE	M2	2	16	E4	release
238.026	n/a	RESPONSE	M2	2	00	C3	release
238.028	n/a	RESPONSE	M2	2	07	G3	release
238.046	n/a	RESPONSE	M2	2	12	C4	release
238.276	n/a	RESPONSE	M2	2	07	G3	press
238.312	n/a	RESPONSE	M2	2	11	B3	press
238.331	n/a	RESPONSE	M2	2	12	C4	press
238.333	n/a	RESPONSE	M2	2	00	C3	press
238.578	n/a	RESPONSE	M2	2	12	C4	release
238.684	n/a	RESPONSE	M2	2	11	B3	release
238.774	n/a	RESPONSE	M2	2	00	C3	release
238.9	n/a	RESPONSE	M2	2	07	G3	release
239.331	7.758	FIXCROSS	n/a	n/a	n/a	n/a	n/a
247.089	6.317	CUE_LISTEN	M2	1	n/a	n/a	n/a
253.406	7.758	FIXCROSS	n/a	n/a	n/a	n/a	n/a
261.164	6.325	CUE_PLAYBACK_BOTH_HANDS	M2	1	n/a	n/a	n/a
261.982	n/a	RESPONSE	M2	1	07	G3	press
261.985	n/a	RESPONSE	M2	1	12	C4	press
262.002	n/a	RESPONSE	M2	1	00	C3	press
262.532	n/a	RESPONSE	M2	1	14	D4	press
262.636	n/a	RESPONSE	M2	1	12	C4	release
262.816	n/a	RESPONSE	M2	1	14	D4	release
262.828	n/a	RESPONSE	M2	1	00	C3	release
262.863	n/a	RESPONSE	M2	1	07	G3	release
263.022	n/a	RESPONSE	M2	1	07	G3	press
263.036	n/a	RESPONSE	M2	1	00	C3	press
263.103	n/a	RESPONSE	M2	1	16	E4	press
263.601	n/a	RESPONSE	M2	1	14	D4	press
263.603	n/a	RESPONSE	M2	1	16	E4	release
263.817	n/a	RESPONSE	M2	1	00	C3	release
263.841	n/a	RESPONSE	M2	1	14	D4	release
263.866	n/a	RESPONSE	M2	1	07	G3	release
264.116	n/a	RESPONSE	M2	1	07	G3	press
264.137	n/a	RESPONSE	M2	1	00	C3	press
264.183	n/a	RESPONSE	M2	1	16	E4	press
264.692	n/a	RESPONSE	M2	1	17	F4	press
264.727	n/a	RESPONSE	M2	1	16	E4	release
264.998	n/a	RESPONSE	M2	1	00	C3	release
265.022	n/a	RESPONSE	M2	1	07	G3	release
265.034	n/a	RESPONSE	M2	1	17	F4	release
265.252	n/a	RESPONSE	M2	1	07	G3	press
265.254	n/a	RESPONSE	M2	1	00	C3	press
265.277	n/a	RESPONSE	M2	1	19	G4	press
266.246	n/a	RESPONSE	M2	1	19	G4	release
266.317	n/a	RESPONSE	M2	1	00	C3	release
266.337	n/a	RESPONSE	M2	1	07	G3	release
267.489	7.759	FIXCROSS	n/a	n/a	n/a	n/a	n/a
275.248	6.317	CUE_LISTEN	M2	2	n/a	n/a	n/a
281.564	7.758	FIXCROSS	n/a	n/a	n/a	n/a	n/a
289.323	6.325	CUE_PLAYBACK_BOTH_HANDS	M2	2	n/a	n/a	n/a
290.153	n/a	RESPONSE	M2	2	07	G3	press
290.156	n/a	RESPONSE	M2	2	00	C3	press
290.191	n/a	RESPONSE	M2	2	16	E4	press
290.738	n/a	RESPONSE	M2	2	19	G4	press
290.774	n/a	RESPONSE	M2	2	16	E4	release
290.968	n/a	RESPONSE	M2	2	19	G4	release
290.971	n/a	RESPONSE	M2	2	00	C3	release
290.991	n/a	RESPONSE	M2	2	07	G3	release
291.27	n/a	RESPONSE	M2	2	00	C3	press
291.272	n/a	RESPONSE	M2	2	07	G3	press
291.307	n/a	RESPONSE	M2	2	19	G4	press
291.784	n/a	RESPONSE	M2	2	19	G4	release
291.911	n/a	RESPONSE	M2	2	17	F4	press
292.187	n/a	RESPONSE	M2	2	17	F4	release
292.19	n/a	RESPONSE	M2	2	07	G3	release
292.202	n/a	RESPONSE	M2	2	00	C3	release
292.496	n/a	RESPONSE	M2	2	00	C3	press
292.498	n/a	RESPONSE	M2	2	07	G3	press
292.543	n/a	RESPONSE	M2	2	16	E4	press
293.086	n/a	RESPONSE	M2	2	14	D4	press
293.108	n/a	RESPONSE	M2	2	16	E4	release
293.358	n/a	RESPONSE	M2	2	00	C3	release
293.361	n/a	RESPONSE	M2	2	14	D4	release
293.372	n/a	RESPONSE	M2	2	07	G3	release
293.724	n/a	RESPONSE	M2	2	07	G3	press
293.734	n/a	RESPONSE	M2	2	00	C3	press
293.758	n/a	RESPONSE	M2	2	11	B3	press
293.771	n/a	RESPONSE	M2	2	12	C4	press
293.873	n/a	RESPONSE	M2	2	12	C4	release
294.441	n/a	RESPONSE	M2	2	11	B3	release
294.642	n/a	RESPONSE	M2	2	00	C3	release
294.657	n/a	RESPONSE	M2	2	07	G3	release
295.648	7.758	FIXCROSS	n/a	n/a	n/a	n/a	n/a
303.406	6.317	CUE_LISTEN	M3	1	n/a	n/a	n/a
309.723	7.759	FIXCROSS	n/a	n/a	n/a	n/a	n/a
317.481	6.317	CUE_PLAYBACK_RIGHT_HAND	M3	1	n/a	n/a	n/a
318.902	n/a	RESPONSE	M3	1	12	C4	press
319.394	n/a	RESPONSE	M3	1	14	D4	press
319.466	n/a	RESPONSE	M3	1	12	C4	release
319.893	n/a	RESPONSE	M3	1	16	E4	press
319.962	n/a	RESPONSE	M3	1	14	D4	release
320.354	n/a	RESPONSE	M3	1	16	E4	release
320.388	n/a	RESPONSE	M3	1	12	C4	press
320.652	n/a	RESPONSE	M3	1	12	C4	release
320.986	n/a	RESPONSE	M3	1	12	C4	press
321.498	n/a	RESPONSE	M3	1	14	D4	press
321.57	n/a	RESPONSE	M3	1	12	C4	release
322.008	n/a	RESPONSE	M3	1	16	E4	press
322.063	n/a	RESPONSE	M3	1	14	D4	release
322.477	n/a	RESPONSE	M3	1	12	C4	press
322.523	n/a	RESPONSE	M3	1	16	E4	release
323.224	n/a	RESPONSE	M3	1	12	C4	release
323.798	7.758	FIXCROSS	n/a	n/a	n/a	n/a	n/a
331.556	6.325	CUE_LISTEN	M3	2	n/a	n/a	n/a
337.881	7.758	FIXCROSS	n/a	n/a	n/a	n/a	n/a
345.639	6.317	CUE_PLAYBACK_RIGHT_HAND	M3	2	n/a	n/a	n/a
346.361	n/a	RESPONSE	M3	2	16	E4	press
346.886	n/a	RESPONSE	M3	2	17	F4	press
346.904	n/a	RESPONSE	M3	2	16	E4	release
347.414	n/a	RESPONSE	M3	2	19	G4	press
347.451	n/a	RESPONSE	M3	2	17	F4	release
347.994	n/a	RESPONSE	M3	2	19	G4	release
348.504	n/a	RESPONSE	M3	2	16	E4	press
349.031	n/a	RESPONSE	M3	2	17	F4	press
349.05	n/a	RESPONSE	M3	2	16	E4	release
349.594	n/a	RESPONSE	M3	2	19	G4	press
349.844	n/a	RESPONSE	M3	2	17	F4	release
350.178	n/a	RESPONSE	M3	2	19	G4	release
351.956	7.758	FIXCROSS	n/a	n/a	n/a	n/a	n/a
359.714	6.325	CUE_LISTEN	M3	1	n/a	n/a	n/a
366.039	7.758	FIXCROSS	n/a	n/a	n/a	n/a	n/a
373.798	6.317	CUE_PLAYBACK_RIGHT_HAND	M3	1	n/a	n/a	n/a
374.554	n/a	RESPONSE	M3	1	19	G4	press
374.893	n/a	RESPONSE	M3	1	21	A4	press
374.951	n/a	RESPONSE	M3	1	19	G4	release
375.166	n/a	RESPONSE	M3	1	19	G4	press
375.271	n/a	RESPONSE	M3	1	21	A4	release
375.487	n/a	RESPONSE	M3	1	17	F4	press
375.567	n/a	RESPONSE	M3	1	19	G4	release
375.833	n/a	RESPONSE	M3	1	16	E4	press
375.868	n/a	RESPONSE	M3	1	17	F4	release
376.451	n/a	RESPONSE	M3	1	16	E4	release
376.487	n/a	RESPONSE	M3	1	12	C4	press
377.083	n/a	RESPONSE	M3	1	12	C4	release
377.418	n/a	RESPONSE	M3	1	17	F4	press
377.77	n/a	RESPONSE	M3	1	19	G4	press
377.841	n/a	RESPONSE	M3	1	17	F4	release
378.07	n/a	RESPONSE	M3	1	17	F4	press
378.123	n/a	RESPONSE	M3	1	19	G4	release
378.301	n/a	RESPONSE	M3	1	17	F4	release
378.704	n/a	RESPONSE	M3	1	19	G4	press
378.951	n/a	RESPONSE	M3	1	21	A4	press
379.004	n/a	RESPONSE	M3	1	19	G4	release
379.181	n/a	RESPONSE	M3	1	19	G4	press
379.287	n/a	RESPONSE	M3	1	21	A4	release
379.447	n/a	RESPONSE	M3	1	17	F4	press
379.536	n/a	RESPONSE	M3	1	19	G4	release
379.764	n/a	RESPONSE	M3	1	16	E4	press
379.822	n/a	RESPONSE	M3	1	17	F4	release
380.114	7.758	FIXCROSS	n/a	n/a	n/a	n/a	n/a
380.317	n/a	RESPONSE	M3	1	16	E4	release
380.336	n/a	RESPONSE	M3	1	12	C4	press
381.16	n/a	RESPONSE	M3	1	12	C4	release
387.873	6.317	CUE_LISTEN	M3	2	n/a	n/a	n/a
394.19	7.758	FIXCROSS	n/a	n/a	n/a	n/a	n/a
401.948	6.317	CUE_PLAYBACK_RIGHT_HAND	M3	2	n/a	n/a	n/a
402.663	n/a	RESPONSE	M3	2	12	C4	press
403.17	n/a	RESPONSE	M3	2	12	C4	release
403.793	n/a	RESPONSE	M3	2	07	G3	press
404.062	n/a	RESPONSE	M3	2	07	G3	release
404.663	n/a	RESPONSE	M3	2	12	C4	press
405.602	n/a	RESPONSE	M3	2	12	C4	release
406.095	n/a	RESPONSE	M3	2	12	C4	press
406.537	n/a	RESPONSE	M3	2	12	C4	release
406.958	n/a	RESPONSE	M3	2	07	G3	press
407.257	n/a	RESPONSE	M3	2	07	G3	release
407.82	n/a	RESPONSE	M3	2	12	C4	press
408.264	7.758	FIXCROSS	n/a	n/a	n/a	n/a	n/a
408.802	n/a	RESPONSE	M3	2	12	C4	release
416.023	6.325	CUE_LISTEN	M1	1	n/a	n/a	n/a
422.348	7.758	FIXCROSS	n/a	n/a	n/a	n/a	n/a
430.106	6.317	CUE_PLAYBACK_RIGHT_HAND	M1	1	n/a	n/a	n/a
430.716	n/a	RESPONSE	M1	1	19	G4	press
431.154	n/a	RESPONSE	M1	1	19	G4	release
431.297	n/a	RESPONSE	M1	1	16	E4	press
431.528	n/a	RESPONSE	M1	1	16	E4	release
431.83	n/a	RESPONSE	M1	1	16	E4	press
432.111	n/a	RESPONSE	M1	1	16	E4	release
432.428	n/a	RESPONSE	M1	1	17	F4	press
432.7	n/a	RESPONSE	M1	1	17	F4	release
433.004	n/a	RESPONSE	M1	1	14	D4	press
433.231	n/a	RESPONSE	M1	1	14	D4	release
433.627	n/a	RESPONSE	M1	1	14	D4	press
433.865	n/a	RESPONSE	M1	1	14	D4	release
434.306	n/a	RESPONSE	M1	1	12	C4	press
434.633	n/a	RESPONSE	M1	1	16	E4	press
434.702	n/a	RESPONSE	M1	1	12	C4	release
435.021	n/a	RESPONSE	M1	1	19	G4	press
435.056	n/a	RESPONSE	M1	1	16	E4	release
435.758	n/a	RESPONSE	M1	1	19	G4	release
436.423	7.758	FIXCROSS	n/a	n/a	n/a	n/a	n/a
444.181	6.317	CUE_LISTEN	M1	2	n/a	n/a	n/a
450.498	7.758	FIXCROSS	n/a	n/a	n/a	n/a	n/a
458.256	6.325	CUE_PLAYBACK_RIGHT_HAND	M1	2	n/a	n/a	n/a
458.96	n/a	RESPONSE	M1	2	19	G4	press
459.347	n/a	RESPONSE	M1	2	19	G4	release
459.558	n/a	RESPONSE	M1	2	16	E4	press
459.81	n/a	RESPONSE	M1	2	16	E4	release
460.09	n/a	RESPONSE	M1	2	16	E4	press
460.374	n/a	RESPONSE	M1	2	16	E4	release
460.658	n/a	RESPONSE	M1	2	17	F4	press
460.972	n/a	RESPONSE	M1	2	17	F4	release
461.236	n/a	RESPONSE	M1	2	14	D4	press
461.451	n/a	RESPONSE	M1	2	14	D4	release
461.802	n/a	RESPONSE	M1	2	14	D4	press
462.048	n/a	RESPONSE	M1	2	14	D4	release
462.448	n/a	RESPONSE	M1	2	12	C4	press
462.763	n/a	RESPONSE	M1	2	16	E4	press
462.776	n/a	RESPONSE	M1	2	12	C4	release
463.092	n/a	RESPONSE	M1	2	12	C4	press
463.138	n/a	RESPONSE	M1	2	16	E4	release
464.222	n/a	RESPONSE	M1	2	12	C4	release
464.581	7.758	FIXCROSS	n/a	n/a	n/a	n/a	n/a
472.34	6.317	CUE_LISTEN	M2	1	n/a	n/a	n/a
478.656	7.758	FIXCROSS	n/a	n/a	n/a	n/a	n/a
486.415	6.325	CUE_PLAYBACK_BOTH_HANDS	M2	1	n/a	n/a	n/a
488.556	n/a	RESPONSE	M2	1	24	C5	press
488.558	n/a	RESPONSE	M2	1	00	C3	press
488.561	n/a	RESPONSE	M2	1	07	G3	press
489.014	n/a	RESPONSE	M2	1	21	A4	press
489.017	n/a	RESPONSE	M2	1	24	C5	release
489.052	n/a	RESPONSE	M2	1	19	G4	press
489.09	n/a	RESPONSE	M2	1	19	G4	release
489.23	n/a	RESPONSE	M2	1	21	A4	release
489.283	n/a	RESPONSE	M2	1	00	C3	release
489.286	n/a	RESPONSE	M2	1	07	G3	release
489.55	n/a	RESPONSE	M2	1	00	C3	press
489.552	n/a	RESPONSE	M2	1	07	G3	press
489.57	n/a	RESPONSE	M2	1	21	A4	press
490.012	n/a	RESPONSE	M2	1	19	G4	press
490.031	n/a	RESPONSE	M2	1	21	A4	release
490.281	n/a	RESPONSE	M2	1	19	G4	release
490.32	n/a	RESPONSE	M2	1	00	C3	release
490.406	n/a	RESPONSE	M2	1	07	G3	release
490.811	n/a	RESPONSE	M2	1	00	C3	press
490.813	n/a	RESPONSE	M2	1	24	C5	press
490.83	n/a	RESPONSE	M2	1	07	G3	press
491.251	n/a	RESPONSE	M2	1	19	G4	press
491.323	n/a	RESPONSE	M2	1	24	C5	release
491.432	n/a	RESPONSE	M2	1	00	C3	release
491.434	n/a	RESPONSE	M2	1	07	G3	release
491.47	n/a	RESPONSE	M2	1	19	G4	release
491.821	n/a	RESPONSE	M2	1	07	G3	press
491.84	n/a	RESPONSE	M2	1	00	C3	press
491.842	n/a	RESPONSE	M2	1	19	G4	press
492.25	n/a	RESPONSE	M2	1	17	F4	press
492.304	n/a	RESPONSE	M2	1	19	G4	release
492.474	n/a	RESPONSE	M2	1	00	C3	release
492.477	n/a	RESPONSE	M2	1	07	G3	release
492.488	n/a	RESPONSE	M2	1	17	F4	release
492.726	n/a	RESPONSE	M2	1	07	G3	press
492.738	n/a	RESPONSE	M2	1	16	E4	press
492.74	7.758	FIXCROSS	n/a	n/a	n/a	n/a	n/a
492.773	n/a	RESPONSE	M2	1	00	C3	press
493.204	n/a	RESPONSE	M2	1	17	F4	press
493.293	n/a	RESPONSE	M2	1	16	E4	release
493.464	n/a	RESPONSE	M2	1	17	F4	release
493.488	n/a	RESPONSE	M2	1	07	G3	release
493.491	n/a	RESPONSE	M2	1	00	C3	release
493.706	n/a	RESPONSE	M2	1	07	G3	press
493.728	n/a	RESPONSE	M2	1	00	C3	press
493.741	n/a	RESPONSE	M2	1	19	G4	press
494.497	n/a	RESPONSE	M2	1	19	G4	release
494.566	n/a	RESPONSE	M2	1	00	C3	release
494.691	n/a	RESPONSE	M2	1	07	G3	release
500.498	6.317	CUE_LISTEN	M2	2	n/a	n/a	n/a
506.815	7.758	FIXCROSS	n/a	n/a	n/a	n/a	n/a
514.573	6.317	CUE_PLAYBACK_BOTH_HANDS	M2	2	n/a	n/a	n/a
515.434	n/a	RESPONSE	M2	2	24	C5	press
515.437	n/a	RESPONSE	M2	2	07	G3	press
515.439	n/a	RESPONSE	M2	2	00	C3	press
515.942	n/a	RESPONSE	M2	2	19	G4	press
515.978	n/a	RESPONSE	M2	2	24	C5	release
516.102	n/a	RESPONSE	M2	2	00	C3	release
516.121	n/a	RESPONSE	M2	2	19	G4	release
516.123	n/a	RESPONSE	M2	2	07	G3	release
516.424	n/a	RESPONSE	M2	2	00	C3	press
516.427	n/a	RESPONSE	M2	2	07	G3	press
516.444	n/a	RESPONSE	M2	2	19	G4	press
516.953	n/a	RESPONSE	M2	2	17	F4	press
517.007	n/a	RESPONSE	M2	2	19	G4	release
517.148	n/a	RESPONSE	M2	2	00	C3	release
517.151	n/a	RESPONSE	M2	2	07	G3	release
517.186	n/a	RESPONSE	M2	2	17	F4	release
517.468	n/a	RESPONSE	M2	2	16	E4	press
517.471	n/a	RESPONSE	M2	2	07	G3	press
517.523	n/a	RESPONSE	M2	2	00	C3	press
518.014	n/a	RESPONSE	M2	2	12	C4	press
518.017	n/a	RESPONSE	M2	2	14	D4	press
518.087	n/a	RESPONSE	M2	2	16	E4	release
518.25	n/a	RESPONSE	M2	2	14	D4	release
518.301	n/a	RESPONSE	M2	2	00	C3	release
518.319	n/a	RESPONSE	M2	2	12	C4	release
518.338	n/a	RESPONSE	M2	2	07	G3	release
519.04	n/a	RESPONSE	M2	2	11	B3	press
519.058	n/a	RESPONSE	M2	2	07	G3	press
519.182	n/a	RESPONSE	M2	2	00	C3	press
519.449	n/a	RESPONSE	M2	2	11	B3	release
519.466	n/a	RESPONSE	M2	2	00	C3	release
519.66	n/a	RESPONSE	M2	2	07	G3	release
520.89	7.758	FIXCROSS	n/a	n/a	n/a	n/a	n/a
528.648	6.325	CUE_LISTEN	M2	1	n/a	n/a	n/a
534.973	7.758	FIXCROSS	n/a	n/a	n/a	n/a	n/a
542.732	6.317	CUE_PLAYBACK_BOTH_HANDS	M2	1	n/a	n/a	n/a
543.906	n/a	RESPONSE	M2	1	12	C4	press
543.916	n/a	RESPONSE	M2	1	07	G3	press
543.928	n/a	RESPONSE	M2	1	00	C3	press
544.426	n/a	RESPONSE	M2	1	14	D4	press
544.562	n/a	RESPONSE	M2	1	12	C4	release
544.698	n/a	RESPONSE	M2	1	00	C3	release
544.711	n/a	RESPONSE	M2	1	07	G3	release
544.723	n/a	RESPONSE	M2	1	14	D4	release
544.961	n/a	RESPONSE	M2	1	00	C3	press
544.963	n/a	RESPONSE	M2	1	07	G3	press
544.998	n/a	RESPONSE	M2	1	16	E4	press
545.508	n/a	RESPONSE	M2	1	16	E4	release
545.511	n/a	RESPONSE	M2	1	14	D4	press
545.726	n/a	RESPONSE	M2	1	00	C3	release
545.744	n/a	RESPONSE	M2	1	07	G3	release
545.781	n/a	RESPONSE	M2	1	14	D4	release
546.044	n/a	RESPONSE	M2	1	07	G3	press
546.047	n/a	RESPONSE	M2	1	00	C3	press
546.082	n/a	RESPONSE	M2	1	16	E4	press
546.612	n/a	RESPONSE	M2	1	17	F4	press
546.614	n/a	RESPONSE	M2	1	16	E4	release
546.912	n/a	RESPONSE	M2	1	17	F4	release
546.931	n/a	RESPONSE	M2	1	00	C3	release
546.95	n/a	RESPONSE	M2	1	07	G3	release
547.161	n/a	RESPONSE	M2	1	07	G3	press
547.163	n/a	RESPONSE	M2	1	19	G4	press
547.181	n/a	RESPONSE	M2	1	00	C3	press
547.953	n/a	RESPONSE	M2	1	19	G4	release
548.077	n/a	RESPONSE	M2	1	00	C3	release
548.148	n/a	RESPONSE	M2	1	07	G3	release
549.048	7.758	FIXCROSS	n/a	n/a	n/a	n/a	n/a
556.806	6.317	CUE_LISTEN	M2	2	n/a	n/a	n/a
563.123	7.758	FIXCROSS	n/a	n/a	n/a	n/a	n/a
570.882	6.325	CUE_PLAYBACK_BOTH_HANDS	M2	2	n/a	n/a	n/a
571.744	n/a	RESPONSE	M2	2	07	G3	press
571.747	n/a	RESPONSE	M2	2	00	C3	press
571.75	n/a	RESPONSE	M2	2	16	E4	press
572.244	n/a	RESPONSE	M2	2	19	G4	press
572.247	n/a	RESPONSE	M2	2	16	E4	release
572.472	n/a	RESPONSE	M2	2	07	G3	release
572.484	n/a	RESPONSE	M2	2	00	C3	release
572.508	n/a	RESPONSE	M2	2	19	G4	release
572.78	n/a	RESPONSE	M2	2	07	G3	press
572.782	n/a	RESPONSE	M2	2	00	C3	press
572.784	n/a	RESPONSE	M2	2	19	G4	press
573.244	n/a	RESPONSE	M2	2	19	G4	release
573.326	n/a	RESPONSE	M2	2	17	F4	press
573.53	n/a	RESPONSE	M2	2	00	C3	release
573.532	n/a	RESPONSE	M2	2	07	G3	release
573.566	n/a	RESPONSE	M2	2	17	F4	release
573.837	n/a	RESPONSE	M2	2	00	C3	press
573.84	n/a	RESPONSE	M2	2	07	G3	press
573.884	n/a	RESPONSE	M2	2	16	E4	press
574.393	n/a	RESPONSE	M2	2	14	D4	press
574.451	n/a	RESPONSE	M2	2	16	E4	release
574.654	n/a	RESPONSE	M2	2	00	C3	release
574.667	n/a	RESPONSE	M2	2	07	G3	release
574.68	n/a	RESPONSE	M2	2	14	D4	release
574.973	n/a	RESPONSE	M2	2	07	G3	press
574.976	n/a	RESPONSE	M2	2	11	B3	press
574.998	n/a	RESPONSE	M2	2	12	C4	press
575.011	n/a	RESPONSE	M2	2	00	C3	press
575.102	n/a	RESPONSE	M2	2	12	C4	release
575.99	n/a	RESPONSE	M2	2	11	B3	release
576.043	n/a	RESPONSE	M2	2	00	C3	release
576.167	n/a	RESPONSE	M2	2	07	G3	release
577.206	7.758	FIXCROSS	n/a	n/a	n/a	n/a	n/a
584.965	6.317	CUE_LISTEN	M1	1	n/a	n/a	n/a
591.282	7.758	FIXCROSS	n/a	n/a	n/a	n/a	n/a
599.04	6.317	CUE_PLAYBACK_RIGHT_HAND	M1	1	n/a	n/a	n/a
599.87	n/a	RESPONSE	M1	1	19	G4	press
600.26	n/a	RESPONSE	M1	1	19	G4	release
600.471	n/a	RESPONSE	M1	1	16	E4	press
600.507	n/a	RESPONSE	M1	1	14	D4	press
600.631	n/a	RESPONSE	M1	1	14	D4	release
600.824	n/a	RESPONSE	M1	1	16	E4	release
601.018	n/a	RESPONSE	M1	1	16	E4	press
601.3	n/a	RESPONSE	M1	1	16	E4	release
601.584	n/a	RESPONSE	M1	1	17	F4	press
601.848	n/a	RESPONSE	M1	1	17	F4	release
602.136	n/a	RESPONSE	M1	1	14	D4	press
602.352	n/a	RESPONSE	M1	1	14	D4	release
602.703	n/a	RESPONSE	M1	1	14	D4	press
602.918	n/a	RESPONSE	M1	1	14	D4	release
603.382	n/a	RESPONSE	M1	1	12	C4	press
603.664	n/a	RESPONSE	M1	1	16	E4	press
603.687	n/a	RESPONSE	M1	1	12	C4	release
604.038	n/a	RESPONSE	M1	1	16	E4	release
604.051	n/a	RESPONSE	M1	1	19	G4	press
604.762	n/a	RESPONSE	M1	1	19	G4	release
605.356	7.758	FIXCROSS	n/a	n/a	n/a	n/a	n/a
613.115	6.325	CUE_LISTEN	M1	2	n/a	n/a	n/a
619.44	7.759	FIXCROSS	n/a	n/a	n/a	n/a	n/a
627.198	6.317	CUE_PLAYBACK_RIGHT_HAND	M1	2	n/a	n/a	n/a
627.767	n/a	RESPONSE	M1	2	19	G4	press
628.051	n/a	RESPONSE	M1	2	19	G4	release
628.296	n/a	RESPONSE	M1	2	16	E4	press
628.594	n/a	RESPONSE	M1	2	16	E4	release
628.841	n/a	RESPONSE	M1	2	16	E4	press
629.122	n/a	RESPONSE	M1	2	16	E4	release
629.404	n/a	RESPONSE	M1	2	17	F4	press
629.668	n/a	RESPONSE	M1	2	17	F4	release
629.918	n/a	RESPONSE	M1	2	14	D4	press
630.112	n/a	RESPONSE	M1	2	14	D4	release
630.467	n/a	RESPONSE	M1	2	14	D4	press
630.678	n/a	RESPONSE	M1	2	14	D4	release
631.082	n/a	RESPONSE	M1	2	12	C4	press
631.311	n/a	RESPONSE	M1	2	16	E4	press
631.368	n/a	RESPONSE	M1	2	12	C4	release
631.667	n/a	RESPONSE	M1	2	12	C4	press
631.703	n/a	RESPONSE	M1	2	16	E4	release
632.711	n/a	RESPONSE	M1	2	12	C4	release
633.515	7.758	FIXCROSS	n/a	n/a	n/a	n/a	n/a
641.273	6.325	CUE_LISTEN	M3	1	n/a	n/a	n/a
647.598	7.758	FIXCROSS	n/a	n/a	n/a	n/a	n/a
655.357	6.317	CUE_PLAYBACK_RIGHT_HAND	M3	1	n/a	n/a	n/a
656.223	n/a	RESPONSE	M3	1	12	C4	press
656.754	n/a	RESPONSE	M3	1	14	D4	press
656.806	n/a	RESPONSE	M3	1	12	C4	release
657.28	n/a	RESPONSE	M3	1	16	E4	press
657.318	n/a	RESPONSE	M3	1	14	D4	release
657.773	n/a	RESPONSE	M3	1	12	C4	press
657.81	n/a	RESPONSE	M3	1	16	E4	release
658.108	n/a	RESPONSE	M3	1	12	C4	release
658.391	n/a	RESPONSE	M3	1	12	C4	press
658.934	n/a	RESPONSE	M3	1	14	D4	press
659.093	n/a	RESPONSE	M3	1	12	C4	release
659.498	n/a	RESPONSE	M3	1	16	E4	press
659.554	n/a	RESPONSE	M3	1	14	D4	release
660.047	n/a	RESPONSE	M3	1	16	E4	release
660.05	n/a	RESPONSE	M3	1	12	C4	press
660.86	n/a	RESPONSE	M3	1	12	C4	release
661.673	7.758	FIXCROSS	n/a	n/a	n/a	n/a	n/a
669.432	6.317	CUE_LISTEN	M3	2	n/a	n/a	n/a
675.748	7.758	FIXCROSS	n/a	n/a	n/a	n/a	n/a
683.507	6.317	CUE_PLAYBACK_RIGHT_HAND	M3	2	n/a	n/a	n/a
684.363	n/a	RESPONSE	M3	2	16	E4	press
684.907	n/a	RESPONSE	M3	2	16	E4	release
684.917	n/a	RESPONSE	M3	2	17	F4	press
685.44	n/a	RESPONSE	M3	2	19	G4	press
685.474	n/a	RESPONSE	M3	2	17	F4	release
686.158	n/a	RESPONSE	M3	2	19	G4	release
686.581	n/a	RESPONSE	M3	2	16	E4	press
687.194	n/a	RESPONSE	M3	2	17	F4	press
687.231	n/a	RESPONSE	M3	2	16	E4	release
687.778	n/a	RESPONSE	M3	2	19	G4	press
687.797	n/a	RESPONSE	M3	2	17	F4	release
688.41	n/a	RESPONSE	M3	2	19	G4	release
689.823	7.759	FIXCROSS	n/a	n/a	n/a	n/a	n/a
697.582	6.325	CUE_LISTEN	M3	1	n/a	n/a	n/a
703.907	7.758	FIXCROSS	n/a	n/a	n/a	n/a	n/a
711.665	6.325	CUE_PLAYBACK_RIGHT_HAND	M3	1	n/a	n/a	n/a
712.508	n/a	RESPONSE	M3	1	19	G4	press
712.803	n/a	RESPONSE	M3	1	21	A4	press
712.882	n/a	RESPONSE	M3	1	19	G4	release
713.12	n/a	RESPONSE	M3	1	19	G4	press
713.146	n/a	RESPONSE	M3	1	21	A4	release
713.441	n/a	RESPONSE	M3	1	17	F4	press
713.518	n/a	RESPONSE	M3	1	19	G4	release
713.79	n/a	RESPONSE	M3	1	16	E4	press
713.792	n/a	RESPONSE	M3	1	17	F4	release
714.401	n/a	RESPONSE	M3	1	16	E4	release
714.436	n/a	RESPONSE	M3	1	12	C4	press
715.146	n/a	RESPONSE	M3	1	12	C4	release
715.331	n/a	RESPONSE	M3	1	17	F4	press
715.721	n/a	RESPONSE	M3	1	17	F4	release
716.037	n/a	RESPONSE	M3	1	19	G4	press
716.357	n/a	RESPONSE	M3	1	21	A4	press
716.393	n/a	RESPONSE	M3	1	19	G4	release
716.64	n/a	RESPONSE	M3	1	19	G4	press
716.711	n/a	RESPONSE	M3	1	21	A4	release
716.94	n/a	RESPONSE	M3	1	17	F4	press
717.028	n/a	RESPONSE	M3	1	19	G4	release
717.274	n/a	RESPONSE	M3	1	16	E4	press
717.311	n/a	RESPONSE	M3	1	17	F4	release
717.873	n/a	RESPONSE	M3	1	16	E4	release
717.892	n/a	RESPONSE	M3	1	12	C4	press
717.99	7.758	FIXCROSS	n/a	n/a	n/a	n/a	n/a
718.752	n/a	RESPONSE	M3	1	12	C4	release
725.748	6.317	CUE_LISTEN	M3	2	n/a	n/a	n/a
732.065	7.758	FIXCROSS	n/a	n/a	n/a	n/a	n/a
739.824	6.317	CUE_PLAYBACK_RIGHT_HAND	M3	2	n/a	n/a	n/a
741.422	n/a	RESPONSE	M3	2	12	C4	press
741.878	n/a	RESPONSE	M3	2	12	C4	release
742.474	n/a	RESPONSE	M3	2	09	A3	press
742.78	n/a	RESPONSE	M3	2	09	A3	release
743.264	n/a	RESPONSE	M3	2	12	C4	press
744.136	n/a	RESPONSE	M3	2	12	C4	release
744.553	n/a	RESPONSE	M3	2	12	C4	press
744.936	n/a	RESPONSE	M3	2	12	C4	release
745.184	n/a	RESPONSE	M3	2	07	G3	press
745.448	n/a	RESPONSE	M3	2	07	G3	release
745.751	n/a	RESPONSE	M3	2	12	C4	press
746.14	7.758	FIXCROSS	n/a	n/a	n/a	n/a	n/a
746.84	n/a	RESPONSE	M3	2	12	C4	release
753.898	6.325	CUE_LISTEN	M1	1	n/a	n/a	n/a
760.224	7.758	FIXCROSS	n/a	n/a	n/a	n/a	n/a
767.982	6.317	CUE_PLAYBACK_BOTH_HANDS	M1	1	n/a	n/a	n/a
768.992	n/a	RESPONSE	M1	1	04	E3	press
769.011	n/a	RESPONSE	M1	1	00	C3	press
769.013	n/a	RESPONSE	M1	1	07	G3	press
769.031	n/a	RESPONSE	M1	1	19	G4	press
769.473	n/a	RESPONSE	M1	1	19	G4	release
769.647	n/a	RESPONSE	M1	1	16	E4	press
769.95	n/a	RESPONSE	M1	1	16	E4	release
770.196	n/a	RESPONSE	M1	1	16	E4	press
770.463	n/a	RESPONSE	M1	1	16	E4	release
770.5	n/a	RESPONSE	M1	1	00	C3	release
770.536	n/a	RESPONSE	M1	1	04	E3	release
770.767	n/a	RESPONSE	M1	1	05	F3	press
770.783	n/a	RESPONSE	M1	1	02	D3	press
770.802	n/a	RESPONSE	M1	1	17	F4	press
771.293	n/a	RESPONSE	M1	1	17	F4	release
771.403	n/a	RESPONSE	M1	1	14	D4	press
771.597	n/a	RESPONSE	M1	1	14	D4	release
772.001	n/a	RESPONSE	M1	1	14	D4	press
772.216	n/a	RESPONSE	M1	1	02	D3	release
772.228	n/a	RESPONSE	M1	1	05	F3	release
772.231	n/a	RESPONSE	M1	1	14	D4	release
772.233	n/a	RESPONSE	M1	1	07	G3	release
772.57	n/a	RESPONSE	M1	1	04	E3	press
772.616	n/a	RESPONSE	M1	1	00	C3	press
772.63	n/a	RESPONSE	M1	1	07	G3	press
772.697	n/a	RESPONSE	M1	1	19	G4	press
773.013	n/a	RESPONSE	M1	1	19	G4	release
773.141	n/a	RESPONSE	M1	1	00	C3	release
773.23	n/a	RESPONSE	M1	1	07	G3	release
773.242	n/a	RESPONSE	M1	1	04	E3	release
773.368	n/a	RESPONSE	M1	1	04	E3	press
773.381	n/a	RESPONSE	M1	1	00	C3	press
773.383	n/a	RESPONSE	M1	1	07	G3	press
773.428	n/a	RESPONSE	M1	1	12	C4	press
773.802	n/a	RESPONSE	M1	1	14	D4	press
773.858	n/a	RESPONSE	M1	1	12	C4	release
774.22	n/a	RESPONSE	M1	1	14	D4	release
774.298	7.758	FIXCROSS	n/a	n/a	n/a	n/a	n/a
774.312	n/a	RESPONSE	M1	1	00	C3	release
774.451	n/a	RESPONSE	M1	1	00	C3	press
774.472	n/a	RESPONSE	M1	1	12	C4	press
774.777	n/a	RESPONSE	M1	1	16	E4	press
774.834	n/a	RESPONSE	M1	1	12	C4	release
775.14	n/a	RESPONSE	M1	1	00	C3	release
775.152	n/a	RESPONSE	M1	1	16	E4	release
775.154	n/a	RESPONSE	M1	1	19	G4	press
775.166	n/a	RESPONSE	M1	1	04	E3	release
775.178	n/a	RESPONSE	M1	1	07	G3	release
775.612	n/a	RESPONSE	M1	1	19	G4	release
782.057	6.317	CUE_LISTEN	M1	2	n/a	n/a	n/a
788.374	7.758	FIXCROSS	n/a	n/a	n/a	n/a	n/a
796.132	6.317	CUE_PLAYBACK_BOTH_HANDS	M1	2	n/a	n/a	n/a
796.768	n/a	RESPONSE	M1	2	07	G3	press
796.771	n/a	RESPONSE	M1	2	04	E3	press
796.788	n/a	RESPONSE	M1	2	19	G4	press
796.826	n/a	RESPONSE	M1	2	00	C3	press
797.143	n/a	RESPONSE	M1	2	19	G4	release
797.371	n/a	RESPONSE	M1	2	16	E4	press
797.582	n/a	RESPONSE	M1	2	16	E4	release
797.881	n/a	RESPONSE	M1	2	16	E4	press
798.092	n/a	RESPONSE	M1	2	00	C3	release
798.128	n/a	RESPONSE	M1	2	16	E4	release
798.182	n/a	RESPONSE	M1	2	04	E3	release
798.482	n/a	RESPONSE	M1	2	05	F3	press
798.484	n/a	RESPONSE	M1	2	02	D3	press
798.52	n/a	RESPONSE	M1	2	17	F4	press
798.977	n/a	RESPONSE	M1	2	17	F4	release
799.064	n/a	RESPONSE	M1	2	14	D4	press
799.364	n/a	RESPONSE	M1	2	14	D4	release
799.646	n/a	RESPONSE	M1	2	14	D4	press
799.843	n/a	RESPONSE	M1	2	14	D4	release
799.88	n/a	RESPONSE	M1	2	02	D3	release
799.916	n/a	RESPONSE	M1	2	05	F3	release
799.952	n/a	RESPONSE	M1	2	07	G3	release
800.146	n/a	RESPONSE	M1	2	04	E3	press
800.24	n/a	RESPONSE	M1	2	00	C3	press
800.257	n/a	RESPONSE	M1	2	07	G3	press
800.328	n/a	RESPONSE	M1	2	12	C4	press
800.574	n/a	RESPONSE	M1	2	16	E4	press
800.646	n/a	RESPONSE	M1	2	12	C4	release
800.874	n/a	RESPONSE	M1	2	16	E4	release
800.877	n/a	RESPONSE	M1	2	12	C4	press
800.912	n/a	RESPONSE	M1	2	11	B3	press
800.951	n/a	RESPONSE	M1	2	11	B3	release
801.881	n/a	RESPONSE	M1	2	12	C4	release
802.004	n/a	RESPONSE	M1	2	07	G3	release
802.058	n/a	RESPONSE	M1	2	04	E3	release
802.061	n/a	RESPONSE	M1	2	00	C3	release
802.448	7.759	FIXCROSS	n/a	n/a	n/a	n/a	n/a
810.207	6.325	CUE_LISTEN	M2	1	n/a	n/a	n/a
816.532	7.758	FIXCROSS	n/a	n/a	n/a	n/a	n/a
824.29	6.317	CUE_PLAYBACK_RIGHT_HAND	M2	1	n/a	n/a	n/a
825.22	n/a	RESPONSE	M2	1	24	C5	press
825.673	n/a	RESPONSE	M2	1	24	C5	release
825.767	n/a	RESPONSE	M2	1	21	A4	press
826.048	n/a	RESPONSE	M2	1	21	A4	release
826.666	n/a	RESPONSE	M2	1	24	C5	press
827.122	n/a	RESPONSE	M2	1	24	C5	release
827.176	n/a	RESPONSE	M2	1	19	G4	press
827.476	n/a	RESPONSE	M2	1	19	G4	release
827.652	n/a	RESPONSE	M2	1	19	G4	press
827.952	n/a	RESPONSE	M2	1	19	G4	release
828.144	n/a	RESPONSE	M2	1	17	F4	press
828.567	n/a	RESPONSE	M2	1	17	F4	release
828.621	n/a	RESPONSE	M2	1	16	E4	press
829.06	n/a	RESPONSE	M2	1	17	F4	press
829.166	n/a	RESPONSE	M2	1	16	E4	release
829.518	n/a	RESPONSE	M2	1	19	G4	press
829.537	n/a	RESPONSE	M2	1	17	F4	release
830.458	n/a	RESPONSE	M2	1	19	G4	release
830.607	7.759	FIXCROSS	n/a	n/a	n/a	n/a	n/a
838.365	6.317	CUE_LISTEN	M2	2	n/a	n/a	n/a
844.682	7.758	FIXCROSS	n/a	n/a	n/a	n/a	n/a
852.44	6.325	CUE_PLAYBACK_RIGHT_HAND	M2	2	n/a	n/a	n/a
853.021	n/a	RESPONSE	M2	2	24	C5	press
853.494	n/a	RESPONSE	M2	2	24	C5	release
853.653	n/a	RESPONSE	M2	2	19	G4	press
853.947	n/a	RESPONSE	M2	2	19	G4	release
854.162	n/a	RESPONSE	M2	2	19	G4	press
854.423	n/a	RESPONSE	M2	2	19	G4	release
854.717	n/a	RESPONSE	M2	2	17	F4	press
855.181	n/a	RESPONSE	M2	2	17	F4	release
855.284	n/a	RESPONSE	M2	2	16	E4	press
855.773	n/a	RESPONSE	M2	2	14	D4	press
855.862	n/a	RESPONSE	M2	2	16	E4	release
856.338	n/a	RESPONSE	M2	2	12	C4	press
856.413	n/a	RESPONSE	M2	2	14	D4	release
857.411	n/a	RESPONSE	M2	2	12	C4	release
858.765	7.758	FIXCROSS	n/a	n/a	n/a	n/a	n/a
866.524	6.317	CUE_LISTEN	M2	1	n/a	n/a	n/a
872.84	7.758	FIXCROSS	n/a	n/a	n/a	n/a	n/a
880.599	6.317	CUE_PLAYBACK_RIGHT_HAND	M2	1	n/a	n/a	n/a
881.353	n/a	RESPONSE	M2	1	12	C4	press
881.916	n/a	RESPONSE	M2	1	14	D4	press
881.987	n/a	RESPONSE	M2	1	12	C4	release
882.456	n/a	RESPONSE	M2	1	16	E4	press
882.491	n/a	RESPONSE	M2	1	14	D4	release
882.998	n/a	RESPONSE	M2	1	14	D4	press
883.023	n/a	RESPONSE	M2	1	16	E4	release
883.576	n/a	RESPONSE	M2	1	16	E4	press
883.633	n/a	RESPONSE	M2	1	14	D4	release
884.153	n/a	RESPONSE	M2	1	17	F4	press
884.176	n/a	RESPONSE	M2	1	16	E4	release
884.696	n/a	RESPONSE	M2	1	19	G4	press
884.721	n/a	RESPONSE	M2	1	17	F4	release
885.71	n/a	RESPONSE	M2	1	19	G4	release
886.915	7.758	FIXCROSS	n/a	n/a	n/a	n/a	n/a
894.674	6.325	CUE_LISTEN	M2	2	n/a	n/a	n/a
900.999	7.758	FIXCROSS	n/a	n/a	n/a	n/a	n/a
908.757	38.86	CUE_PLAYBACK_RIGHT_HAND	M2	2	n/a	n/a	n/a
909.647	n/a	RESPONSE	M2	2	16	E4	press
910.16	n/a	RESPONSE	M2	2	16	E4	release
910.178	n/a	RESPONSE	M2	2	19	G4	press
910.516	n/a	RESPONSE	M2	2	19	G4	release
910.71	n/a	RESPONSE	M2	2	19	G4	press
910.991	n/a	RESPONSE	M2	2	19	G4	release
911.254	n/a	RESPONSE	M2	2	17	F4	press
911.714	n/a	RESPONSE	M2	2	17	F4	release
911.804	n/a	RESPONSE	M2	2	16	E4	press
912.334	n/a	RESPONSE	M2	2	14	D4	press
912.361	n/a	RESPONSE	M2	2	16	E4	release
912.937	n/a	RESPONSE	M2	2	14	D4	release
912.947	n/a	RESPONSE	M2	2	12	C4	press
913.249	n/a	FIXCROSS	n/a	n/a	n/a	n/a	n/a
914.21	n/a	RESPONSE	M2	2	12	C4	release
