onset	duration	trial_type	trial_number	stroop_condition	stim_text(PL)	stim_text(eng)	stim_color(PL)	stim_color(eng)	response_type	response_color
0.0	n/a	RESPONSE	n/a	n/a	n/a	n/a	n/a	n/a	n/a	n/a
0.0632	1.0333	ITI	n/a	n/a	n/a	n/a	n/a	n/a	n/a	n/a
1.0966	0.5167	FIXCROSS	n/a	n/a	n/a	n/a	n/a	n/a	n/a	n/a
1.6132	1.9333	T_INK	1	Incongruent	zielony	green	czerwony	red	hit	n/a
3.5117	n/a	RESPONSE	n/a	n/a	n/a	n/a	n/a	n/a	n/a	red
3.5466	0.5167	FEEDBACK	n/a	n/a	n/a	n/a	n/a	n/a	n/a	n/a
4.0633	1.0167	ITI	n/a	n/a	n/a	n/a	n/a	n/a	n/a	n/a
5.0799	0.5167	FIXCROSS	n/a	n/a	n/a	n/a	n/a	n/a	n/a	n/a
5.5966	1.05	T_INK	2	Incongruent	czerwony	red	żółty	yellow	hit	n/a
6.6245	n/a	RESPONSE	n/a	n/a	n/a	n/a	n/a	n/a	n/a	yellow
6.6466	0.5167	FEEDBACK	n/a	n/a	n/a	n/a	n/a	n/a	n/a	n/a
7.1633	1.0166	ITI	n/a	n/a	n/a	n/a	n/a	n/a	n/a	n/a
8.1799	0.5167	FIXCROSS	n/a	n/a	n/a	n/a	n/a	n/a	n/a	n/a
8.6966	1.0167	T_INK	3	Incongruent	niebieski	blue	czerwony	red	hit	n/a
9.6895	n/a	RESPONSE	n/a	n/a	n/a	n/a	n/a	n/a	n/a	red
9.7133	0.5167	FEEDBACK	n/a	n/a	n/a	n/a	n/a	n/a	n/a	n/a
10.23	1.0167	ITI	n/a	n/a	n/a	n/a	n/a	n/a	n/a	n/a
11.2467	0.5166	FIXCROSS	n/a	n/a	n/a	n/a	n/a	n/a	n/a	n/a
11.7633	0.7334	T_INK	4	Neutral	xxxxxxx	xxxxxxx	żółty	yellow	hit	n/a
12.467	n/a	RESPONSE	n/a	n/a	n/a	n/a	n/a	n/a	n/a	yellow
12.4967	0.5167	FEEDBACK	n/a	n/a	n/a	n/a	n/a	n/a	n/a	n/a
13.0133	1.0167	ITI	n/a	n/a	n/a	n/a	n/a	n/a	n/a	n/a
14.03	0.5167	FIXCROSS	n/a	n/a	n/a	n/a	n/a	n/a	n/a	n/a
14.5467	1.05	T_INK	5	Neutral	xxxxx	xxxxx	niebieski	blue	hit	n/a
15.5637	n/a	RESPONSE	n/a	n/a	n/a	n/a	n/a	n/a	n/a	blue
15.5967	0.5166	FEEDBACK	n/a	n/a	n/a	n/a	n/a	n/a	n/a	n/a
16.1133	1.0167	ITI	n/a	n/a	n/a	n/a	n/a	n/a	n/a	n/a
17.13	0.5167	FIXCROSS	n/a	n/a	n/a	n/a	n/a	n/a	n/a	n/a
17.6467	0.55	T_INK	6	Neutral	xxxxxxxx	xxxxxxxx	żółty	yellow	hit	n/a
18.1657	n/a	RESPONSE	n/a	n/a	n/a	n/a	n/a	n/a	n/a	yellow
18.1967	0.5167	FEEDBACK	n/a	n/a	n/a	n/a	n/a	n/a	n/a	n/a
18.7134	1.0167	ITI	n/a	n/a	n/a	n/a	n/a	n/a	n/a	n/a
19.7301	0.5166	FIXCROSS	n/a	n/a	n/a	n/a	n/a	n/a	n/a	n/a
20.2467	0.7167	T_INK	7	Neutral	xxxxxxxxx	xxxxxxxxx	czerwony	red	hit	n/a
20.9431	n/a	RESPONSE	n/a	n/a	n/a	n/a	n/a	n/a	n/a	red
20.9634	0.5166	FEEDBACK	n/a	n/a	n/a	n/a	n/a	n/a	n/a	n/a
21.48	1.0167	ITI	n/a	n/a	n/a	n/a	n/a	n/a	n/a	n/a
22.4968	0.5167	FIXCROSS	n/a	n/a	n/a	n/a	n/a	n/a	n/a	n/a
23.0134	0.6833	T_INK	8	Neutral	xxxxxxx	xxxxxxx	czerwony	red	hit	n/a
23.6729	n/a	RESPONSE	n/a	n/a	n/a	n/a	n/a	n/a	n/a	red
23.6968	0.5167	FEEDBACK	n/a	n/a	n/a	n/a	n/a	n/a	n/a	n/a
24.2134	1.0166	ITI	n/a	n/a	n/a	n/a	n/a	n/a	n/a	n/a
25.2301	0.5167	FIXCROSS	n/a	n/a	n/a	n/a	n/a	n/a	n/a	n/a
25.7468	0.9333	T_INK	9	Neutral	xxxxxxx	xxxxxxx	niebieski	blue	hit	n/a
26.6578	n/a	RESPONSE	n/a	n/a	n/a	n/a	n/a	n/a	n/a	blue
26.6801	0.5167	FEEDBACK	n/a	n/a	n/a	n/a	n/a	n/a	n/a	n/a
27.1968	1.0167	ITI	n/a	n/a	n/a	n/a	n/a	n/a	n/a	n/a
28.2135	0.5167	FIXCROSS	n/a	n/a	n/a	n/a	n/a	n/a	n/a	n/a
28.7301	0.65	T_INK	10	Neutral	xxxxxxxx	xxxxxxxx	zielony	green	hit	n/a
29.3556	n/a	RESPONSE	n/a	n/a	n/a	n/a	n/a	n/a	n/a	green
29.3801	0.5167	FEEDBACK	n/a	n/a	n/a	n/a	n/a	n/a	n/a	n/a
29.8968	1.0167	ITI	n/a	n/a	n/a	n/a	n/a	n/a	n/a	n/a
30.9135	0.5166	FIXCROSS	n/a	n/a	n/a	n/a	n/a	n/a	n/a	n/a
31.4301	0.75	T_INK	11	Incongruent	niebieski	blue	zielony	green	hit	n/a
32.149	n/a	RESPONSE	n/a	n/a	n/a	n/a	n/a	n/a	n/a	green
32.1802	0.5167	FEEDBACK	n/a	n/a	n/a	n/a	n/a	n/a	n/a	n/a
32.6968	1.0333	ITI	n/a	n/a	n/a	n/a	n/a	n/a	n/a	n/a
33.7301	0.5167	FIXCROSS	n/a	n/a	n/a	n/a	n/a	n/a	n/a	n/a
34.2469	0.9333	T_INK	12	Incongruent	żółty	yellow	niebieski	blue	hit	n/a
35.15	n/a	RESPONSE	n/a	n/a	n/a	n/a	n/a	n/a	n/a	blue
35.1802	0.5167	FEEDBACK	n/a	n/a	n/a	n/a	n/a	n/a	n/a	n/a
35.6969	1.0333	ITI	n/a	n/a	n/a	n/a	n/a	n/a	n/a	n/a
39.1247	n/a	RESPONSE	n/a	n/a	n/a	n/a	n/a	n/a	n/a	n/a
39.1802	1.0167	ITI	n/a	n/a	n/a	n/a	n/a	n/a	n/a	n/a
40.1969	0.5166	FIXCROSS	n/a	n/a	n/a	n/a	n/a	n/a	n/a	n/a
40.7135	0.7167	INK	1	Neutral	xxxxxxxx	xxxxxxxx	żółty	yellow	hit	n/a
41.4074	n/a	RESPONSE	n/a	n/a	n/a	n/a	n/a	n/a	n/a	yellow
41.4302	1.0167	ITI	n/a	n/a	n/a	n/a	n/a	n/a	n/a	n/a
42.4469	0.5167	FIXCROSS	n/a	n/a	n/a	n/a	n/a	n/a	n/a	n/a
42.9636	0.8667	INK	2	Neutral	xxxxxxxx	xxxxxxxx	zielony	green	hit	n/a
43.8018	n/a	RESPONSE	n/a	n/a	n/a	n/a	n/a	n/a	n/a	green
43.8303	1.0167	ITI	n/a	n/a	n/a	n/a	n/a	n/a	n/a	n/a
44.8469	0.5167	FIXCROSS	n/a	n/a	n/a	n/a	n/a	n/a	n/a	n/a
45.3636	0.8	INK	3	Neutral	xxxxxxxxx	xxxxxxxxx	żółty	yellow	hit	n/a
46.1323	n/a	RESPONSE	n/a	n/a	n/a	n/a	n/a	n/a	n/a	yellow
46.1636	1.0167	ITI	n/a	n/a	n/a	n/a	n/a	n/a	n/a	n/a
47.1803	0.5166	FIXCROSS	n/a	n/a	n/a	n/a	n/a	n/a	n/a	n/a
47.6969	0.7834	INK	4	Incongruent	czerwony	red	żółty	yellow	hit	n/a
48.4628	n/a	RESPONSE	n/a	n/a	n/a	n/a	n/a	n/a	n/a	yellow
48.4803	1.0166	ITI	n/a	n/a	n/a	n/a	n/a	n/a	n/a	n/a
49.4969	0.5167	FIXCROSS	n/a	n/a	n/a	n/a	n/a	n/a	n/a	n/a
50.0137	0.75	INK	5	Incongruent	czerwony	red	zielony	green	hit	n/a
50.7455	n/a	RESPONSE	n/a	n/a	n/a	n/a	n/a	n/a	n/a	green
50.7636	1.0167	ITI	n/a	n/a	n/a	n/a	n/a	n/a	n/a	n/a
51.7803	0.5167	FIXCROSS	n/a	n/a	n/a	n/a	n/a	n/a	n/a	n/a
52.297	0.7166	INK	6	Incongruent	czerwony	red	żółty	yellow	hit	n/a
52.9803	n/a	RESPONSE	n/a	n/a	n/a	n/a	n/a	n/a	n/a	yellow
53.0136	1.0167	ITI	n/a	n/a	n/a	n/a	n/a	n/a	n/a	n/a
54.0303	0.5167	FIXCROSS	n/a	n/a	n/a	n/a	n/a	n/a	n/a	n/a
54.547	0.6	INK	7	Neutral	xxxxx	xxxxx	niebieski	blue	hit	n/a
55.1192	n/a	RESPONSE	n/a	n/a	n/a	n/a	n/a	n/a	n/a	blue
55.147	1.0167	ITI	n/a	n/a	n/a	n/a	n/a	n/a	n/a	n/a
56.1637	0.5167	FIXCROSS	n/a	n/a	n/a	n/a	n/a	n/a	n/a	n/a
56.6804	0.6333	INK	8	Neutral	xxxxxxx	xxxxxxx	żółty	yellow	hit	n/a
57.2902	n/a	RESPONSE	n/a	n/a	n/a	n/a	n/a	n/a	n/a	yellow
57.3137	1.0166	ITI	n/a	n/a	n/a	n/a	n/a	n/a	n/a	n/a
58.3304	0.5167	FIXCROSS	n/a	n/a	n/a	n/a	n/a	n/a	n/a	n/a
58.8471	0.7	INK	9	Neutral	xxxxxxxxx	xxxxxxxxx	zielony	green	hit	n/a
59.525	n/a	RESPONSE	n/a	n/a	n/a	n/a	n/a	n/a	n/a	green
59.547	1.0167	ITI	n/a	n/a	n/a	n/a	n/a	n/a	n/a	n/a
60.5637	0.5167	FIXCROSS	n/a	n/a	n/a	n/a	n/a	n/a	n/a	n/a
61.0804	0.65	INK	10	Incongruent	zielony	green	żółty	yellow	hit	n/a
61.712	n/a	RESPONSE	n/a	n/a	n/a	n/a	n/a	n/a	n/a	yellow
61.7304	1.0166	ITI	n/a	n/a	n/a	n/a	n/a	n/a	n/a	n/a
62.7471	0.5167	FIXCROSS	n/a	n/a	n/a	n/a	n/a	n/a	n/a	n/a
63.2637	0.6167	INK	11	Incongruent	niebieski	blue	żółty	yellow	hit	n/a
63.8509	n/a	RESPONSE	n/a	n/a	n/a	n/a	n/a	n/a	n/a	yellow
63.8804	1.0167	ITI	n/a	n/a	n/a	n/a	n/a	n/a	n/a	n/a
64.8971	0.5166	FIXCROSS	n/a	n/a	n/a	n/a	n/a	n/a	n/a	n/a
65.4137	0.9167	INK	12	Incongruent	żółty	yellow	zielony	green	hit	n/a
66.309	n/a	RESPONSE	n/a	n/a	n/a	n/a	n/a	n/a	n/a	green
66.3304	1.0167	ITI	n/a	n/a	n/a	n/a	n/a	n/a	n/a	n/a
67.3471	0.5167	FIXCROSS	n/a	n/a	n/a	n/a	n/a	n/a	n/a	n/a
67.8638	0.65	INK	13	Incongruent	niebieski	blue	zielony	green	hit	n/a
68.48	n/a	RESPONSE	n/a	n/a	n/a	n/a	n/a	n/a	n/a	green
68.5138	1.0167	ITI	n/a	n/a	n/a	n/a	n/a	n/a	n/a	n/a
69.5305	0.5167	FIXCROSS	n/a	n/a	n/a	n/a	n/a	n/a	n/a	n/a
70.0471	0.65	INK	14	Neutral	xxxxxxxxx	xxxxxxxxx	żółty	yellow	hit	n/a
70.6668	n/a	RESPONSE	n/a	n/a	n/a	n/a	n/a	n/a	n/a	yellow
70.6971	1.0167	ITI	n/a	n/a	n/a	n/a	n/a	n/a	n/a	n/a
71.7138	0.5167	FIXCROSS	n/a	n/a	n/a	n/a	n/a	n/a	n/a	n/a
72.2305	0.65	INK	15	Neutral	xxxxxxx	xxxxxxx	niebieski	blue	hit	n/a
72.8538	n/a	RESPONSE	n/a	n/a	n/a	n/a	n/a	n/a	n/a	blue
72.8805	1.0167	ITI	n/a	n/a	n/a	n/a	n/a	n/a	n/a	n/a
73.8971	0.5167	FIXCROSS	n/a	n/a	n/a	n/a	n/a	n/a	n/a	n/a
74.4139	0.6666	INK	16	Neutral	xxxxxxx	xxxxxxx	czerwony	red	hit	n/a
75.0565	n/a	RESPONSE	n/a	n/a	n/a	n/a	n/a	n/a	n/a	red
75.0805	1.0167	ITI	n/a	n/a	n/a	n/a	n/a	n/a	n/a	n/a
76.0972	0.5167	FIXCROSS	n/a	n/a	n/a	n/a	n/a	n/a	n/a	n/a
76.6139	0.7	INK	17	Incongruent	żółty	yellow	niebieski	blue	hit	n/a
77.2914	n/a	RESPONSE	n/a	n/a	n/a	n/a	n/a	n/a	n/a	blue
77.3139	1.0167	ITI	n/a	n/a	n/a	n/a	n/a	n/a	n/a	n/a
78.3305	0.5167	FIXCROSS	n/a	n/a	n/a	n/a	n/a	n/a	n/a	n/a
78.8472	0.6334	INK	18	Incongruent	niebieski	blue	zielony	green	hit	n/a
79.4622	n/a	RESPONSE	n/a	n/a	n/a	n/a	n/a	n/a	n/a	green
79.4806	1.0167	ITI	n/a	n/a	n/a	n/a	n/a	n/a	n/a	n/a
80.4972	0.5167	FIXCROSS	n/a	n/a	n/a	n/a	n/a	n/a	n/a	n/a
81.0139	0.8167	INK	19	Incongruent	żółty	yellow	niebieski	blue	hit	n/a
81.8088	n/a	RESPONSE	n/a	n/a	n/a	n/a	n/a	n/a	n/a	blue
81.8306	1.0166	ITI	n/a	n/a	n/a	n/a	n/a	n/a	n/a	n/a
82.8472	0.5167	FIXCROSS	n/a	n/a	n/a	n/a	n/a	n/a	n/a	n/a
83.3639	0.8167	INK	20	Incongruent	żółty	yellow	zielony	green	hit	n/a
84.1553	n/a	RESPONSE	n/a	n/a	n/a	n/a	n/a	n/a	n/a	green
84.1806	1.0167	ITI	n/a	n/a	n/a	n/a	n/a	n/a	n/a	n/a
85.1973	0.5166	FIXCROSS	n/a	n/a	n/a	n/a	n/a	n/a	n/a	n/a
85.7139	0.6334	INK	21	Incongruent	niebieski	blue	czerwony	red	hit	n/a
86.3263	n/a	RESPONSE	n/a	n/a	n/a	n/a	n/a	n/a	n/a	red
86.3473	1.0167	ITI	n/a	n/a	n/a	n/a	n/a	n/a	n/a	n/a
87.364	0.5167	FIXCROSS	n/a	n/a	n/a	n/a	n/a	n/a	n/a	n/a
87.8806	0.6	INK	22	Incongruent	żółty	yellow	czerwony	red	hit	n/a
88.4493	n/a	RESPONSE	n/a	n/a	n/a	n/a	n/a	n/a	n/a	red
88.4806	1.0166	ITI	n/a	n/a	n/a	n/a	n/a	n/a	n/a	n/a
89.4973	0.5167	FIXCROSS	n/a	n/a	n/a	n/a	n/a	n/a	n/a	n/a
90.014	0.6666	INK	23	Neutral	xxxxxxxxx	xxxxxxxxx	czerwony	red	hit	n/a
90.6521	n/a	RESPONSE	n/a	n/a	n/a	n/a	n/a	n/a	n/a	red
90.6806	1.0167	ITI	n/a	n/a	n/a	n/a	n/a	n/a	n/a	n/a
91.6973	0.5167	FIXCROSS	n/a	n/a	n/a	n/a	n/a	n/a	n/a	n/a
92.214	0.8	INK	24	Neutral	xxxxxxxx	xxxxxxxx	niebieski	blue	hit	n/a
92.9827	n/a	RESPONSE	n/a	n/a	n/a	n/a	n/a	n/a	n/a	blue
93.014	1.0167	ITI	n/a	n/a	n/a	n/a	n/a	n/a	n/a	n/a
94.0307	0.5167	FIXCROSS	n/a	n/a	n/a	n/a	n/a	n/a	n/a	n/a
94.5473	0.6667	INK	25	Neutral	xxxxx	xxxxx	zielony	green	hit	n/a
95.1856	n/a	RESPONSE	n/a	n/a	n/a	n/a	n/a	n/a	n/a	green
95.214	1.0167	ITI	n/a	n/a	n/a	n/a	n/a	n/a	n/a	n/a
96.2307	0.5167	FIXCROSS	n/a	n/a	n/a	n/a	n/a	n/a	n/a	n/a
96.7474	0.6833	INK	26	Incongruent	zielony	green	czerwony	red	hit	n/a
97.4043	n/a	RESPONSE	n/a	n/a	n/a	n/a	n/a	n/a	n/a	red
97.4307	1.0167	ITI	n/a	n/a	n/a	n/a	n/a	n/a	n/a	n/a
98.4474	0.5166	FIXCROSS	n/a	n/a	n/a	n/a	n/a	n/a	n/a	n/a
98.964	0.7667	INK	27	Neutral	xxxxxxxx	xxxxxxxx	żółty	yellow	hit	n/a
99.7029	n/a	RESPONSE	n/a	n/a	n/a	n/a	n/a	n/a	n/a	yellow
99.7307	1.0167	ITI	n/a	n/a	n/a	n/a	n/a	n/a	n/a	n/a
100.7474	0.5166	FIXCROSS	n/a	n/a	n/a	n/a	n/a	n/a	n/a	n/a
101.264	0.6834	INK	28	Neutral	xxxxxxx	xxxxxxx	niebieski	blue	hit	n/a
101.9217	n/a	RESPONSE	n/a	n/a	n/a	n/a	n/a	n/a	n/a	blue
101.9474	1.0167	ITI	n/a	n/a	n/a	n/a	n/a	n/a	n/a	n/a
102.9641	0.5166	FIXCROSS	n/a	n/a	n/a	n/a	n/a	n/a	n/a	n/a
103.4807	0.7667	INK	29	Neutral	xxxxxxxx	xxxxxxxx	niebieski	blue	hit	n/a
104.2205	n/a	RESPONSE	n/a	n/a	n/a	n/a	n/a	n/a	n/a	blue
104.2474	1.0167	ITI	n/a	n/a	n/a	n/a	n/a	n/a	n/a	n/a
105.2641	0.5167	FIXCROSS	n/a	n/a	n/a	n/a	n/a	n/a	n/a	n/a
105.7808	0.6166	INK	30	Neutral	xxxxxxx	xxxxxxx	czerwony	red	hit	n/a
106.3755	n/a	RESPONSE	n/a	n/a	n/a	n/a	n/a	n/a	n/a	red
106.3974	1.0167	ITI	n/a	n/a	n/a	n/a	n/a	n/a	n/a	n/a
107.4141	0.5167	FIXCROSS	n/a	n/a	n/a	n/a	n/a	n/a	n/a	n/a
107.9308	0.6167	INK	31	Neutral	xxxxx	xxxxx	niebieski	blue	hit	n/a
108.5144	n/a	RESPONSE	n/a	n/a	n/a	n/a	n/a	n/a	n/a	blue
108.5475	1.0167	ITI	n/a	n/a	n/a	n/a	n/a	n/a	n/a	n/a
109.5641	0.5166	FIXCROSS	n/a	n/a	n/a	n/a	n/a	n/a	n/a	n/a
110.0808	0.8167	INK	32	Incongruent	żółty	yellow	zielony	green	hit	n/a
110.8769	n/a	RESPONSE	n/a	n/a	n/a	n/a	n/a	n/a	n/a	green
110.8974	1.0167	ITI	n/a	n/a	n/a	n/a	n/a	n/a	n/a	n/a
111.9142	0.5167	FIXCROSS	n/a	n/a	n/a	n/a	n/a	n/a	n/a	n/a
112.4308	1.05	INK	33	Incongruent	niebieski	blue	zielony	green	hit	n/a
113.4627	n/a	RESPONSE	n/a	n/a	n/a	n/a	n/a	n/a	n/a	green
113.4808	1.0167	ITI	n/a	n/a	n/a	n/a	n/a	n/a	n/a	n/a
114.4975	0.5167	FIXCROSS	n/a	n/a	n/a	n/a	n/a	n/a	n/a	n/a
115.0142	0.6833	INK	34	Incongruent	zielony	green	żółty	yellow	hit	n/a
115.6656	n/a	RESPONSE	n/a	n/a	n/a	n/a	n/a	n/a	n/a	yellow
115.6975	1.0167	ITI	n/a	n/a	n/a	n/a	n/a	n/a	n/a	n/a
116.7142	0.5167	FIXCROSS	n/a	n/a	n/a	n/a	n/a	n/a	n/a	n/a
117.2309	0.7167	INK	35	Incongruent	żółty	yellow	czerwony	red	hit	n/a
117.9163	n/a	RESPONSE	n/a	n/a	n/a	n/a	n/a	n/a	n/a	red
117.9475	1.0166	ITI	n/a	n/a	n/a	n/a	n/a	n/a	n/a	n/a
118.9642	0.5167	FIXCROSS	n/a	n/a	n/a	n/a	n/a	n/a	n/a	n/a
119.4809	0.8666	INK	36	Incongruent	czerwony	red	zielony	green	hit	n/a
120.3268	n/a	RESPONSE	n/a	n/a	n/a	n/a	n/a	n/a	n/a	green
120.3475	1.0167	ITI	n/a	n/a	n/a	n/a	n/a	n/a	n/a	n/a
121.3642	0.5167	FIXCROSS	n/a	n/a	n/a	n/a	n/a	n/a	n/a	n/a
121.8809	0.8333	INK	37	Neutral	xxxxxxxxx	xxxxxxxxx	czerwony	red	hit	n/a
122.6892	n/a	RESPONSE	n/a	n/a	n/a	n/a	n/a	n/a	n/a	red
122.7142	1.0167	ITI	n/a	n/a	n/a	n/a	n/a	n/a	n/a	n/a
123.7309	0.5167	FIXCROSS	n/a	n/a	n/a	n/a	n/a	n/a	n/a	n/a
124.2476	1.0	INK	38	Neutral	xxxxxxx	xxxxxxx	czerwony	red	hit	n/a
125.2272	n/a	RESPONSE	n/a	n/a	n/a	n/a	n/a	n/a	n/a	red
125.2476	1.0167	ITI	n/a	n/a	n/a	n/a	n/a	n/a	n/a	n/a
126.2643	0.5166	FIXCROSS	n/a	n/a	n/a	n/a	n/a	n/a	n/a	n/a
126.7809	0.5834	INK	39	Incongruent	zielony	green	czerwony	red	hit	n/a
127.3343	n/a	RESPONSE	n/a	n/a	n/a	n/a	n/a	n/a	n/a	red
127.3643	1.0166	ITI	n/a	n/a	n/a	n/a	n/a	n/a	n/a	n/a
128.3809	0.5167	FIXCROSS	n/a	n/a	n/a	n/a	n/a	n/a	n/a	n/a
128.8976	0.6833	INK	40	Incongruent	czerwony	red	żółty	yellow	hit	n/a
129.5532	n/a	RESPONSE	n/a	n/a	n/a	n/a	n/a	n/a	n/a	yellow
129.581	1.0167	ITI	n/a	n/a	n/a	n/a	n/a	n/a	n/a	n/a
130.5976	0.5167	FIXCROSS	n/a	n/a	n/a	n/a	n/a	n/a	n/a	n/a
131.1143	0.7	INK	41	Incongruent	zielony	green	niebieski	blue	hit	n/a
131.7879	n/a	RESPONSE	n/a	n/a	n/a	n/a	n/a	n/a	n/a	blue
131.8143	1.0166	ITI	n/a	n/a	n/a	n/a	n/a	n/a	n/a	n/a
132.831	0.5167	FIXCROSS	n/a	n/a	n/a	n/a	n/a	n/a	n/a	n/a
133.3477	0.7667	INK	42	Incongruent	czerwony	red	niebieski	blue	hit	n/a
134.0866	n/a	RESPONSE	n/a	n/a	n/a	n/a	n/a	n/a	n/a	blue
134.1143	1.0167	ITI	n/a	n/a	n/a	n/a	n/a	n/a	n/a	n/a
135.131	0.5167	FIXCROSS	n/a	n/a	n/a	n/a	n/a	n/a	n/a	n/a
135.6477	0.7167	INK	43	Incongruent	niebieski	blue	czerwony	red	hit	n/a
136.3373	n/a	RESPONSE	n/a	n/a	n/a	n/a	n/a	n/a	n/a	red
136.3644	1.0167	ITI	n/a	n/a	n/a	n/a	n/a	n/a	n/a	n/a
137.381	0.5167	FIXCROSS	n/a	n/a	n/a	n/a	n/a	n/a	n/a	n/a
137.8977	0.65	INK	44	Neutral	xxxxx	xxxxx	zielony	green	hit	n/a
138.5242	n/a	RESPONSE	n/a	n/a	n/a	n/a	n/a	n/a	n/a	green
138.5477	1.0167	ITI	n/a	n/a	n/a	n/a	n/a	n/a	n/a	n/a
139.5644	0.5167	FIXCROSS	n/a	n/a	n/a	n/a	n/a	n/a	n/a	n/a
140.0811	0.6333	INK	45	Neutral	xxxxxxxxx	xxxxxxxxx	zielony	green	hit	n/a
140.6952	n/a	RESPONSE	n/a	n/a	n/a	n/a	n/a	n/a	n/a	green
140.7144	1.0167	ITI	n/a	n/a	n/a	n/a	n/a	n/a	n/a	n/a
141.7311	0.5167	FIXCROSS	n/a	n/a	n/a	n/a	n/a	n/a	n/a	n/a
142.2477	0.7	INK	46	Incongruent	zielony	green	czerwony	red	hit	n/a
142.93	n/a	RESPONSE	n/a	n/a	n/a	n/a	n/a	n/a	n/a	red
142.9477	1.0166	ITI	n/a	n/a	n/a	n/a	n/a	n/a	n/a	n/a
143.9644	0.5167	FIXCROSS	n/a	n/a	n/a	n/a	n/a	n/a	n/a	n/a
144.4811	0.9667	INK	47	Neutral	xxxxxxxx	xxxxxxxx	zielony	green	hit	n/a
145.4201	n/a	RESPONSE	n/a	n/a	n/a	n/a	n/a	n/a	n/a	green
145.4478	1.0167	ITI	n/a	n/a	n/a	n/a	n/a	n/a	n/a	n/a
146.4644	0.5167	FIXCROSS	n/a	n/a	n/a	n/a	n/a	n/a	n/a	n/a
146.9811	0.5	INK	48	Incongruent	czerwony	red	zielony	green	hit	n/a
147.4634	n/a	RESPONSE	n/a	n/a	n/a	n/a	n/a	n/a	n/a	green
147.4811	1.0167	ITI	n/a	n/a	n/a	n/a	n/a	n/a	n/a	n/a
148.4978	0.5167	FIXCROSS	n/a	n/a	n/a	n/a	n/a	n/a	n/a	n/a
149.0144	0.8333	INK	49	Neutral	xxxxxxx	xxxxxxx	niebieski	blue	hit	n/a
149.8259	n/a	RESPONSE	n/a	n/a	n/a	n/a	n/a	n/a	n/a	blue
149.8478	1.0167	ITI	n/a	n/a	n/a	n/a	n/a	n/a	n/a	n/a
150.8645	0.5166	FIXCROSS	n/a	n/a	n/a	n/a	n/a	n/a	n/a	n/a
151.3811	0.9167	INK	50	Neutral	xxxxxxxx	xxxxxxxx	żółty	yellow	hit	n/a
152.2682	n/a	RESPONSE	n/a	n/a	n/a	n/a	n/a	n/a	n/a	yellow
152.2978	1.0167	ITI	n/a	n/a	n/a	n/a	n/a	n/a	n/a	n/a
153.3145	0.5167	FIXCROSS	n/a	n/a	n/a	n/a	n/a	n/a	n/a	n/a
153.8312	0.8	INK	51	Incongruent	żółty	yellow	niebieski	blue	hit	n/a
154.5987	n/a	RESPONSE	n/a	n/a	n/a	n/a	n/a	n/a	n/a	blue
154.6312	1.0166	ITI	n/a	n/a	n/a	n/a	n/a	n/a	n/a	n/a
155.6478	0.5167	FIXCROSS	n/a	n/a	n/a	n/a	n/a	n/a	n/a	n/a
156.1645	0.7	INK	52	Neutral	xxxxx	xxxxx	niebieski	blue	hit	n/a
156.8335	n/a	RESPONSE	n/a	n/a	n/a	n/a	n/a	n/a	n/a	blue
156.8645	1.0167	ITI	n/a	n/a	n/a	n/a	n/a	n/a	n/a	n/a
157.8812	0.5167	FIXCROSS	n/a	n/a	n/a	n/a	n/a	n/a	n/a	n/a
158.3979	0.7667	INK	53	Incongruent	zielony	green	żółty	yellow	hit	n/a
159.1321	n/a	RESPONSE	n/a	n/a	n/a	n/a	n/a	n/a	n/a	yellow
159.1645	1.0167	ITI	n/a	n/a	n/a	n/a	n/a	n/a	n/a	n/a
160.1812	0.5166	FIXCROSS	n/a	n/a	n/a	n/a	n/a	n/a	n/a	n/a
160.6979	0.8167	INK	54	Incongruent	czerwony	red	niebieski	blue	hit	n/a
161.4946	n/a	RESPONSE	n/a	n/a	n/a	n/a	n/a	n/a	n/a	blue
161.5145	1.0167	ITI	n/a	n/a	n/a	n/a	n/a	n/a	n/a	n/a
162.5312	0.5167	FIXCROSS	n/a	n/a	n/a	n/a	n/a	n/a	n/a	n/a
163.0479	0.75	INK	55	Neutral	xxxxx	xxxxx	czerwony	red	hit	n/a
163.7773	n/a	RESPONSE	n/a	n/a	n/a	n/a	n/a	n/a	n/a	red
163.7979	1.0166	ITI	n/a	n/a	n/a	n/a	n/a	n/a	n/a	n/a
164.8146	0.5167	FIXCROSS	n/a	n/a	n/a	n/a	n/a	n/a	n/a	n/a
165.3312	0.8334	INK	56	Neutral	xxxxxxxx	xxxxxxxx	zielony	green	hit	n/a
166.1398	n/a	RESPONSE	n/a	n/a	n/a	n/a	n/a	n/a	n/a	green
166.1646	1.0167	ITI	n/a	n/a	n/a	n/a	n/a	n/a	n/a	n/a
167.1813	0.5166	FIXCROSS	n/a	n/a	n/a	n/a	n/a	n/a	n/a	n/a
167.6979	0.5833	INK	57	Neutral	xxxxx	xxxxx	czerwony	red	hit	n/a
168.2627	n/a	RESPONSE	n/a	n/a	n/a	n/a	n/a	n/a	n/a	red
168.2813	1.0167	ITI	n/a	n/a	n/a	n/a	n/a	n/a	n/a	n/a
169.298	0.5167	FIXCROSS	n/a	n/a	n/a	n/a	n/a	n/a	n/a	n/a
169.8146	0.55	INK	58	Incongruent	żółty	yellow	czerwony	red	hit	n/a
170.3378	n/a	RESPONSE	n/a	n/a	n/a	n/a	n/a	n/a	n/a	red
170.3646	1.0167	ITI	n/a	n/a	n/a	n/a	n/a	n/a	n/a	n/a
171.3813	0.5167	FIXCROSS	n/a	n/a	n/a	n/a	n/a	n/a	n/a	n/a
171.898	0.6	INK	59	Neutral	xxxxxxx	xxxxxxx	żółty	yellow	hit	n/a
172.4769	n/a	RESPONSE	n/a	n/a	n/a	n/a	n/a	n/a	n/a	yellow
172.498	1.0166	ITI	n/a	n/a	n/a	n/a	n/a	n/a	n/a	n/a
173.5146	0.5167	FIXCROSS	n/a	n/a	n/a	n/a	n/a	n/a	n/a	n/a
174.0313	0.6	INK	60	Neutral	xxxxxxxxx	xxxxxxxxx	żółty	yellow	hit	n/a
174.5999	n/a	RESPONSE	n/a	n/a	n/a	n/a	n/a	n/a	n/a	yellow
174.6313	1.0167	ITI	n/a	n/a	n/a	n/a	n/a	n/a	n/a	n/a
175.648	0.5167	FIXCROSS	n/a	n/a	n/a	n/a	n/a	n/a	n/a	n/a
176.1647	0.6667	INK	61	Incongruent	zielony	green	niebieski	blue	hit	n/a
176.8028	n/a	RESPONSE	n/a	n/a	n/a	n/a	n/a	n/a	n/a	blue
176.8314	1.0167	ITI	n/a	n/a	n/a	n/a	n/a	n/a	n/a	n/a
177.848	0.5167	FIXCROSS	n/a	n/a	n/a	n/a	n/a	n/a	n/a	n/a
178.3647	0.7667	INK	62	Incongruent	niebieski	blue	żółty	yellow	hit	n/a
179.1014	n/a	RESPONSE	n/a	n/a	n/a	n/a	n/a	n/a	n/a	yellow
179.1314	1.0167	ITI	n/a	n/a	n/a	n/a	n/a	n/a	n/a	n/a
180.148	0.5166	FIXCROSS	n/a	n/a	n/a	n/a	n/a	n/a	n/a	n/a
180.6647	0.5834	INK	63	Neutral	xxxxxxx	xxxxxxx	żółty	yellow	hit	n/a
181.2243	n/a	RESPONSE	n/a	n/a	n/a	n/a	n/a	n/a	n/a	yellow
181.2481	1.0167	ITI	n/a	n/a	n/a	n/a	n/a	n/a	n/a	n/a
182.2647	0.5167	FIXCROSS	n/a	n/a	n/a	n/a	n/a	n/a	n/a	n/a
182.7814	0.65	INK	64	Incongruent	niebieski	blue	żółty	yellow	hit	n/a
183.4112	n/a	RESPONSE	n/a	n/a	n/a	n/a	n/a	n/a	n/a	yellow
183.4314	1.0167	ITI	n/a	n/a	n/a	n/a	n/a	n/a	n/a	n/a
184.4481	0.5166	FIXCROSS	n/a	n/a	n/a	n/a	n/a	n/a	n/a	n/a
184.9647	0.85	INK	65	Incongruent	czerwony	red	niebieski	blue	hit	n/a
185.7897	n/a	RESPONSE	n/a	n/a	n/a	n/a	n/a	n/a	n/a	blue
185.8148	1.0167	ITI	n/a	n/a	n/a	n/a	n/a	n/a	n/a	n/a
186.8314	0.5167	FIXCROSS	n/a	n/a	n/a	n/a	n/a	n/a	n/a	n/a
187.3481	0.6667	INK	66	Neutral	xxxxx	xxxxx	czerwony	red	hit	n/a
187.9925	n/a	RESPONSE	n/a	n/a	n/a	n/a	n/a	n/a	n/a	red
188.0148	1.0167	ITI	n/a	n/a	n/a	n/a	n/a	n/a	n/a	n/a
189.0315	0.5167	FIXCROSS	n/a	n/a	n/a	n/a	n/a	n/a	n/a	n/a
189.5481	0.6167	INK	67	Neutral	xxxxxxxx	xxxxxxxx	niebieski	blue	hit	n/a
190.1475	n/a	RESPONSE	n/a	n/a	n/a	n/a	n/a	n/a	n/a	blue
190.1648	1.0167	ITI	n/a	n/a	n/a	n/a	n/a	n/a	n/a	n/a
191.1815	0.5167	FIXCROSS	n/a	n/a	n/a	n/a	n/a	n/a	n/a	n/a
191.6981	0.6167	INK	68	Incongruent	niebieski	blue	czerwony	red	hit	n/a
192.2865	n/a	RESPONSE	n/a	n/a	n/a	n/a	n/a	n/a	n/a	red
192.3148	1.0167	ITI	n/a	n/a	n/a	n/a	n/a	n/a	n/a	n/a
193.3315	0.5166	FIXCROSS	n/a	n/a	n/a	n/a	n/a	n/a	n/a	n/a
193.8481	0.65	INK	69	Incongruent	zielony	green	niebieski	blue	hit	n/a
194.4734	n/a	RESPONSE	n/a	n/a	n/a	n/a	n/a	n/a	n/a	blue
194.4981	1.0167	ITI	n/a	n/a	n/a	n/a	n/a	n/a	n/a	n/a
195.5148	0.5167	FIXCROSS	n/a	n/a	n/a	n/a	n/a	n/a	n/a	n/a
196.0315	0.9	INK	70	Neutral	xxxxx	xxxxx	zielony	green	hit	n/a
196.8997	n/a	RESPONSE	n/a	n/a	n/a	n/a	n/a	n/a	n/a	green
196.9315	1.0167	ITI	n/a	n/a	n/a	n/a	n/a	n/a	n/a	n/a
197.9482	0.5167	FIXCROSS	n/a	n/a	n/a	n/a	n/a	n/a	n/a	n/a
198.4649	0.7667	INK	71	Neutral	xxxxxxxxx	xxxxxxxxx	czerwony	red	hit	n/a
199.1984	n/a	RESPONSE	n/a	n/a	n/a	n/a	n/a	n/a	n/a	red
199.2315	1.0167	ITI	n/a	n/a	n/a	n/a	n/a	n/a	n/a	n/a
200.2482	0.5167	FIXCROSS	n/a	n/a	n/a	n/a	n/a	n/a	n/a	n/a
200.7649	0.75	INK	72	Neutral	xxxxxxxxx	xxxxxxxxx	zielony	green	hit	n/a
201.481	n/a	RESPONSE	n/a	n/a	n/a	n/a	n/a	n/a	n/a	green
201.5149	1.0833	ITI	n/a	n/a	n/a	n/a	n/a	n/a	n/a	n/a
219.1996	n/a	RESPONSE	n/a	n/a	n/a	n/a	n/a	n/a	n/a	n/a
219.265	1.0167	ITI	n/a	n/a	n/a	n/a	n/a	n/a	n/a	n/a
220.2817	0.5167	FIXCROSS	n/a	n/a	n/a	n/a	n/a	n/a	n/a	n/a
220.7984	0.8333	T_COLOR_NAME	1	Neutral	zielony	green	Neutral	Neutral	hit	n/a
221.594	n/a	RESPONSE	n/a	n/a	n/a	n/a	n/a	n/a	n/a	green
221.6317	0.5166	FEEDBACK	n/a	n/a	n/a	n/a	n/a	n/a	n/a	n/a
222.1484	1.0167	ITI	n/a	n/a	n/a	n/a	n/a	n/a	n/a	n/a
223.1651	0.5167	FIXCROSS	n/a	n/a	n/a	n/a	n/a	n/a	n/a	n/a
223.6817	0.95	T_COLOR_NAME	2	Incongruent	czerwony	red	żółty	yellow	hit	n/a
224.611	n/a	RESPONSE	n/a	n/a	n/a	n/a	n/a	n/a	n/a	red
224.6317	0.5167	FEEDBACK	n/a	n/a	n/a	n/a	n/a	n/a	n/a	n/a
225.1484	1.0167	ITI	n/a	n/a	n/a	n/a	n/a	n/a	n/a	n/a
226.1651	0.5167	FIXCROSS	n/a	n/a	n/a	n/a	n/a	n/a	n/a	n/a
226.6818	0.8667	T_COLOR_NAME	3	Incongruent	niebieski	blue	zielony	green	hit	n/a
227.5162	n/a	RESPONSE	n/a	n/a	n/a	n/a	n/a	n/a	n/a	blue
227.5484	0.5167	FEEDBACK	n/a	n/a	n/a	n/a	n/a	n/a	n/a	n/a
228.0651	1.0167	ITI	n/a	n/a	n/a	n/a	n/a	n/a	n/a	n/a
229.0818	0.5167	FIXCROSS	n/a	n/a	n/a	n/a	n/a	n/a	n/a	n/a
229.5985	0.8333	T_COLOR_NAME	4	Neutral	zielony	green	Neutral	Neutral	hit	n/a
230.4054	n/a	RESPONSE	n/a	n/a	n/a	n/a	n/a	n/a	n/a	green
230.4318	0.5167	FEEDBACK	n/a	n/a	n/a	n/a	n/a	n/a	n/a	n/a
230.9485	1.0167	ITI	n/a	n/a	n/a	n/a	n/a	n/a	n/a	n/a
231.9651	0.5166	FIXCROSS	n/a	n/a	n/a	n/a	n/a	n/a	n/a	n/a
232.4818	0.8	T_COLOR_NAME	5	Incongruent	żółty	yellow	niebieski	blue	hit	n/a
233.2468	n/a	RESPONSE	n/a	n/a	n/a	n/a	n/a	n/a	n/a	yellow
233.2818	0.5167	FEEDBACK	n/a	n/a	n/a	n/a	n/a	n/a	n/a	n/a
233.7985	1.0167	ITI	n/a	n/a	n/a	n/a	n/a	n/a	n/a	n/a
234.8152	0.5167	FIXCROSS	n/a	n/a	n/a	n/a	n/a	n/a	n/a	n/a
235.3318	0.85	T_COLOR_NAME	6	Neutral	niebieski	blue	Neutral	Neutral	hit	n/a
236.152	n/a	RESPONSE	n/a	n/a	n/a	n/a	n/a	n/a	n/a	blue
236.1818	0.5167	FEEDBACK	n/a	n/a	n/a	n/a	n/a	n/a	n/a	n/a
236.6985	1.0167	ITI	n/a	n/a	n/a	n/a	n/a	n/a	n/a	n/a
237.7152	0.5167	FIXCROSS	n/a	n/a	n/a	n/a	n/a	n/a	n/a	n/a
238.2319	0.7333	T_COLOR_NAME	7	Neutral	zielony	green	Neutral	Neutral	hit	n/a
238.9455	n/a	RESPONSE	n/a	n/a	n/a	n/a	n/a	n/a	n/a	green
238.9652	0.5167	FEEDBACK	n/a	n/a	n/a	n/a	n/a	n/a	n/a	n/a
239.4819	1.0167	ITI	n/a	n/a	n/a	n/a	n/a	n/a	n/a	n/a
240.4985	0.5166	FIXCROSS	n/a	n/a	n/a	n/a	n/a	n/a	n/a	n/a
241.0152	1.05	T_COLOR_NAME	8	Incongruent	zielony	green	czerwony	red	hit	n/a
242.0421	n/a	RESPONSE	n/a	n/a	n/a	n/a	n/a	n/a	n/a	green
242.0652	0.5167	FEEDBACK	n/a	n/a	n/a	n/a	n/a	n/a	n/a	n/a
242.5819	1.0167	ITI	n/a	n/a	n/a	n/a	n/a	n/a	n/a	n/a
243.5986	0.5167	FIXCROSS	n/a	n/a	n/a	n/a	n/a	n/a	n/a	n/a
244.1152	0.95	T_COLOR_NAME	9	Incongruent	niebieski	blue	czerwony	red	hit	n/a
245.0431	n/a	RESPONSE	n/a	n/a	n/a	n/a	n/a	n/a	n/a	blue
245.0652	0.5167	FEEDBACK	n/a	n/a	n/a	n/a	n/a	n/a	n/a	n/a
245.5819	1.0165	ITI	n/a	n/a	n/a	n/a	n/a	n/a	n/a	n/a
246.5984	0.5168	FIXCROSS	n/a	n/a	n/a	n/a	n/a	n/a	n/a	n/a
247.1153	0.8333	T_COLOR_NAME	10	Neutral	czerwony	red	Neutral	Neutral	hit	n/a
247.9165	n/a	RESPONSE	n/a	n/a	n/a	n/a	n/a	n/a	n/a	red
247.9486	0.5167	FEEDBACK	n/a	n/a	n/a	n/a	n/a	n/a	n/a	n/a
248.4653	1.0167	ITI	n/a	n/a	n/a	n/a	n/a	n/a	n/a	n/a
249.4819	0.5167	FIXCROSS	n/a	n/a	n/a	n/a	n/a	n/a	n/a	n/a
249.9986	1.0167	T_COLOR_NAME	11	Neutral	czerwony	red	Neutral	Neutral	hit	n/a
250.9813	n/a	RESPONSE	n/a	n/a	n/a	n/a	n/a	n/a	n/a	red
251.0153	0.5167	FEEDBACK	n/a	n/a	n/a	n/a	n/a	n/a	n/a	n/a
251.532	1.0166	ITI	n/a	n/a	n/a	n/a	n/a	n/a	n/a	n/a
252.5486	0.5167	FIXCROSS	n/a	n/a	n/a	n/a	n/a	n/a	n/a	n/a
253.0653	0.85	T_COLOR_NAME	12	Neutral	żółty	yellow	Neutral	Neutral	hit	n/a
253.8865	n/a	RESPONSE	n/a	n/a	n/a	n/a	n/a	n/a	n/a	yellow
253.9153	0.5167	FEEDBACK	n/a	n/a	n/a	n/a	n/a	n/a	n/a	n/a
254.432	1.0333	ITI	n/a	n/a	n/a	n/a	n/a	n/a	n/a	n/a
258.4677	n/a	RESPONSE	n/a	n/a	n/a	n/a	n/a	n/a	n/a	n/a
258.532	1.0166	ITI	n/a	n/a	n/a	n/a	n/a	n/a	n/a	n/a
259.5487	0.5167	FIXCROSS	n/a	n/a	n/a	n/a	n/a	n/a	n/a	n/a
260.0653	1.0	COLOR_NAME	1	Neutral	żółty	yellow	Neutral	Neutral	hit	n/a
261.0379	n/a	RESPONSE	n/a	n/a	n/a	n/a	n/a	n/a	n/a	yellow
261.0654	1.0166	ITI	n/a	n/a	n/a	n/a	n/a	n/a	n/a	n/a
262.082	0.5167	FIXCROSS	n/a	n/a	n/a	n/a	n/a	n/a	n/a	n/a
262.5987	0.75	COLOR_NAME	2	Incongruent	czerwony	red	zielony	green	hit	n/a
263.3205	n/a	RESPONSE	n/a	n/a	n/a	n/a	n/a	n/a	n/a	red
263.3487	1.0167	ITI	n/a	n/a	n/a	n/a	n/a	n/a	n/a	n/a
264.3654	0.5167	FIXCROSS	n/a	n/a	n/a	n/a	n/a	n/a	n/a	n/a
264.8821	0.8333	COLOR_NAME	3	Incongruent	zielony	green	niebieski	blue	hit	n/a
265.6829	n/a	RESPONSE	n/a	n/a	n/a	n/a	n/a	n/a	n/a	green
265.7154	1.0167	ITI	n/a	n/a	n/a	n/a	n/a	n/a	n/a	n/a
266.7321	0.5166	FIXCROSS	n/a	n/a	n/a	n/a	n/a	n/a	n/a	n/a
267.2487	0.75	COLOR_NAME	4	Neutral	żółty	yellow	Neutral	Neutral	hit	n/a
267.9656	n/a	RESPONSE	n/a	n/a	n/a	n/a	n/a	n/a	n/a	yellow
267.9988	1.0167	ITI	n/a	n/a	n/a	n/a	n/a	n/a	n/a	n/a
269.0154	0.5167	FIXCROSS	n/a	n/a	n/a	n/a	n/a	n/a	n/a	n/a
269.5321	0.8	COLOR_NAME	5	Neutral	zielony	green	Neutral	Neutral	hit	n/a
270.3121	n/a	RESPONSE	n/a	n/a	n/a	n/a	n/a	n/a	n/a	green
270.3321	1.0167	ITI	n/a	n/a	n/a	n/a	n/a	n/a	n/a	n/a
271.3488	0.5166	FIXCROSS	n/a	n/a	n/a	n/a	n/a	n/a	n/a	n/a
271.8654	0.7	COLOR_NAME	6	Incongruent	żółty	yellow	niebieski	blue	hit	n/a
272.5468	n/a	RESPONSE	n/a	n/a	n/a	n/a	n/a	n/a	n/a	yellow
272.5655	1.0167	ITI	n/a	n/a	n/a	n/a	n/a	n/a	n/a	n/a
273.5821	0.5167	FIXCROSS	n/a	n/a	n/a	n/a	n/a	n/a	n/a	n/a
274.0988	0.75	COLOR_NAME	7	Incongruent	niebieski	blue	żółty	yellow	hit	n/a
274.8296	n/a	RESPONSE	n/a	n/a	n/a	n/a	n/a	n/a	n/a	blue
274.8488	1.0167	ITI	n/a	n/a	n/a	n/a	n/a	n/a	n/a	n/a
275.8655	0.5167	FIXCROSS	n/a	n/a	n/a	n/a	n/a	n/a	n/a	n/a
276.3822	0.8	COLOR_NAME	8	Neutral	żółty	yellow	Neutral	Neutral	hit	n/a
277.16	n/a	RESPONSE	n/a	n/a	n/a	n/a	n/a	n/a	n/a	yellow
277.1822	1.0166	ITI	n/a	n/a	n/a	n/a	n/a	n/a	n/a	n/a
278.1988	0.5167	FIXCROSS	n/a	n/a	n/a	n/a	n/a	n/a	n/a	n/a
278.7155	1.0167	COLOR_NAME	9	Incongruent	zielony	green	żółty	yellow	hit	n/a
279.6981	n/a	RESPONSE	n/a	n/a	n/a	n/a	n/a	n/a	n/a	green
279.7322	1.0166	ITI	n/a	n/a	n/a	n/a	n/a	n/a	n/a	n/a
280.7488	0.5167	FIXCROSS	n/a	n/a	n/a	n/a	n/a	n/a	n/a	n/a
281.2655	0.6833	COLOR_NAME	10	Neutral	niebieski	blue	Neutral	Neutral	hit	n/a
281.9168	n/a	RESPONSE	n/a	n/a	n/a	n/a	n/a	n/a	n/a	blue
281.9488	1.0167	ITI	n/a	n/a	n/a	n/a	n/a	n/a	n/a	n/a
282.9655	0.5166	FIXCROSS	n/a	n/a	n/a	n/a	n/a	n/a	n/a	n/a
283.4822	0.7667	COLOR_NAME	11	Neutral	niebieski	blue	Neutral	Neutral	hit	n/a
284.2315	n/a	RESPONSE	n/a	n/a	n/a	n/a	n/a	n/a	n/a	blue
284.2489	1.0166	ITI	n/a	n/a	n/a	n/a	n/a	n/a	n/a	n/a
285.2655	0.5167	FIXCROSS	n/a	n/a	n/a	n/a	n/a	n/a	n/a	n/a
285.7822	0.65	COLOR_NAME	12	Neutral	niebieski	blue	Neutral	Neutral	hit	n/a
286.4024	n/a	RESPONSE	n/a	n/a	n/a	n/a	n/a	n/a	n/a	blue
286.4322	1.0167	ITI	n/a	n/a	n/a	n/a	n/a	n/a	n/a	n/a
287.4489	0.5167	FIXCROSS	n/a	n/a	n/a	n/a	n/a	n/a	n/a	n/a
287.9656	0.7167	COLOR_NAME	13	Incongruent	niebieski	blue	czerwony	red	hit	n/a
288.6531	n/a	RESPONSE	n/a	n/a	n/a	n/a	n/a	n/a	n/a	blue
288.6823	1.0166	ITI	n/a	n/a	n/a	n/a	n/a	n/a	n/a	n/a
289.6989	0.5167	FIXCROSS	n/a	n/a	n/a	n/a	n/a	n/a	n/a	n/a
290.2156	0.7833	COLOR_NAME	14	Incongruent	zielony	green	czerwony	red	hit	n/a
290.9676	n/a	RESPONSE	n/a	n/a	n/a	n/a	n/a	n/a	n/a	green
290.9989	1.0167	ITI	n/a	n/a	n/a	n/a	n/a	n/a	n/a	n/a
292.0156	0.5167	FIXCROSS	n/a	n/a	n/a	n/a	n/a	n/a	n/a	n/a
292.5323	0.75	COLOR_NAME	15	Incongruent	żółty	yellow	czerwony	red	hit	n/a
293.2503	n/a	RESPONSE	n/a	n/a	n/a	n/a	n/a	n/a	n/a	yellow
293.2823	1.0166	ITI	n/a	n/a	n/a	n/a	n/a	n/a	n/a	n/a
294.2989	0.5167	FIXCROSS	n/a	n/a	n/a	n/a	n/a	n/a	n/a	n/a
294.8156	0.8333	COLOR_NAME	16	Incongruent	niebieski	blue	żółty	yellow	hit	n/a
295.6288	n/a	RESPONSE	n/a	n/a	n/a	n/a	n/a	n/a	n/a	blue
295.649	1.0167	ITI	n/a	n/a	n/a	n/a	n/a	n/a	n/a	n/a
296.6657	0.5167	FIXCROSS	n/a	n/a	n/a	n/a	n/a	n/a	n/a	n/a
297.1823	0.9667	COLOR_NAME	17	Neutral	czerwony	red	Neutral	Neutral	hit	n/a
298.119	n/a	RESPONSE	n/a	n/a	n/a	n/a	n/a	n/a	n/a	red
298.149	1.0166	ITI	n/a	n/a	n/a	n/a	n/a	n/a	n/a	n/a
299.1656	0.5167	FIXCROSS	n/a	n/a	n/a	n/a	n/a	n/a	n/a	n/a
299.6823	0.8834	COLOR_NAME	18	Neutral	niebieski	blue	Neutral	Neutral	hit	n/a
300.5452	n/a	RESPONSE	n/a	n/a	n/a	n/a	n/a	n/a	n/a	blue
300.5657	1.0167	ITI	n/a	n/a	n/a	n/a	n/a	n/a	n/a	n/a
301.5824	0.5167	FIXCROSS	n/a	n/a	n/a	n/a	n/a	n/a	n/a	n/a
302.099	0.9833	COLOR_NAME	19	Incongruent	czerwony	red	niebieski	blue	hit	n/a
303.0515	n/a	RESPONSE	n/a	n/a	n/a	n/a	n/a	n/a	n/a	red
303.0824	1.0167	ITI	n/a	n/a	n/a	n/a	n/a	n/a	n/a	n/a
304.0991	0.5167	FIXCROSS	n/a	n/a	n/a	n/a	n/a	n/a	n/a	n/a
304.6157	0.8833	COLOR_NAME	20	Incongruent	zielony	green	niebieski	blue	hit	n/a
305.4778	n/a	RESPONSE	n/a	n/a	n/a	n/a	n/a	n/a	n/a	green
305.4991	1.0167	ITI	n/a	n/a	n/a	n/a	n/a	n/a	n/a	n/a
306.5157	0.5166	FIXCROSS	n/a	n/a	n/a	n/a	n/a	n/a	n/a	n/a
307.0324	1.0667	COLOR_NAME	21	Incongruent	czerwony	red	zielony	green	hit	n/a
308.0797	n/a	RESPONSE	n/a	n/a	n/a	n/a	n/a	n/a	n/a	red
308.0991	1.0167	ITI	n/a	n/a	n/a	n/a	n/a	n/a	n/a	n/a
309.1158	0.5167	FIXCROSS	n/a	n/a	n/a	n/a	n/a	n/a	n/a	n/a
309.6324	0.8333	COLOR_NAME	22	Incongruent	żółty	yellow	niebieski	blue	hit	n/a
310.4422	n/a	RESPONSE	n/a	n/a	n/a	n/a	n/a	n/a	n/a	yellow
310.4657	1.0167	ITI	n/a	n/a	n/a	n/a	n/a	n/a	n/a	n/a
311.4824	0.5167	FIXCROSS	n/a	n/a	n/a	n/a	n/a	n/a	n/a	n/a
311.9991	0.8	COLOR_NAME	23	Neutral	czerwony	red	Neutral	Neutral	hit	n/a
312.7728	n/a	RESPONSE	n/a	n/a	n/a	n/a	n/a	n/a	n/a	red
312.7991	1.0167	ITI	n/a	n/a	n/a	n/a	n/a	n/a	n/a	n/a
313.8158	0.5167	FIXCROSS	n/a	n/a	n/a	n/a	n/a	n/a	n/a	n/a
314.3325	1.2833	COLOR_NAME	24	Neutral	żółty	yellow	Neutral	Neutral	hit	n/a
315.5981	n/a	RESPONSE	n/a	n/a	n/a	n/a	n/a	n/a	n/a	yellow
315.6158	1.0167	ITI	n/a	n/a	n/a	n/a	n/a	n/a	n/a	n/a
316.6325	0.5167	FIXCROSS	n/a	n/a	n/a	n/a	n/a	n/a	n/a	n/a
317.1492	0.8	COLOR_NAME	25	Incongruent	zielony	green	żółty	yellow	hit	n/a
317.9287	n/a	RESPONSE	n/a	n/a	n/a	n/a	n/a	n/a	n/a	green
317.9492	1.0167	ITI	n/a	n/a	n/a	n/a	n/a	n/a	n/a	n/a
318.9658	0.5167	FIXCROSS	n/a	n/a	n/a	n/a	n/a	n/a	n/a	n/a
319.4825	0.75	COLOR_NAME	26	Incongruent	niebieski	blue	czerwony	red	hit	n/a
320.2113	n/a	RESPONSE	n/a	n/a	n/a	n/a	n/a	n/a	n/a	blue
320.2325	1.0166	ITI	n/a	n/a	n/a	n/a	n/a	n/a	n/a	n/a
321.2492	0.5167	FIXCROSS	n/a	n/a	n/a	n/a	n/a	n/a	n/a	n/a
321.7659	0.7167	COLOR_NAME	27	Incongruent	zielony	green	żółty	yellow	hit	n/a
322.462	n/a	RESPONSE	n/a	n/a	n/a	n/a	n/a	n/a	n/a	green
322.4825	1.0167	ITI	n/a	n/a	n/a	n/a	n/a	n/a	n/a	n/a
323.4992	0.5167	FIXCROSS	n/a	n/a	n/a	n/a	n/a	n/a	n/a	n/a
324.0159	0.7	COLOR_NAME	28	Neutral	czerwony	red	Neutral	Neutral	hit	n/a
324.6969	n/a	RESPONSE	n/a	n/a	n/a	n/a	n/a	n/a	n/a	red
324.7159	1.0167	ITI	n/a	n/a	n/a	n/a	n/a	n/a	n/a	n/a
325.7326	0.5167	FIXCROSS	n/a	n/a	n/a	n/a	n/a	n/a	n/a	n/a
326.2492	0.7	COLOR_NAME	29	Neutral	czerwony	red	Neutral	Neutral	hit	n/a
326.9316	n/a	RESPONSE	n/a	n/a	n/a	n/a	n/a	n/a	n/a	red
326.9492	1.0167	ITI	n/a	n/a	n/a	n/a	n/a	n/a	n/a	n/a
327.9659	0.5167	FIXCROSS	n/a	n/a	n/a	n/a	n/a	n/a	n/a	n/a
328.4826	0.8333	COLOR_NAME	30	Incongruent	żółty	yellow	zielony	green	hit	n/a
329.2941	n/a	RESPONSE	n/a	n/a	n/a	n/a	n/a	n/a	n/a	yellow
329.3159	1.0167	ITI	n/a	n/a	n/a	n/a	n/a	n/a	n/a	n/a
330.3326	0.5167	FIXCROSS	n/a	n/a	n/a	n/a	n/a	n/a	n/a	n/a
330.8493	0.9166	COLOR_NAME	31	Incongruent	zielony	green	czerwony	red	hit	n/a
331.7364	n/a	RESPONSE	n/a	n/a	n/a	n/a	n/a	n/a	n/a	green
331.7659	1.0167	ITI	n/a	n/a	n/a	n/a	n/a	n/a	n/a	n/a
332.7826	0.5167	FIXCROSS	n/a	n/a	n/a	n/a	n/a	n/a	n/a	n/a
333.2993	0.7666	COLOR_NAME	32	Neutral	czerwony	red	Neutral	Neutral	hit	n/a
334.035	n/a	RESPONSE	n/a	n/a	n/a	n/a	n/a	n/a	n/a	red
334.0659	1.0167	ITI	n/a	n/a	n/a	n/a	n/a	n/a	n/a	n/a
335.0826	0.5167	FIXCROSS	n/a	n/a	n/a	n/a	n/a	n/a	n/a	n/a
335.5993	0.8333	COLOR_NAME	33	Incongruent	żółty	yellow	niebieski	blue	hit	n/a
336.4135	n/a	RESPONSE	n/a	n/a	n/a	n/a	n/a	n/a	n/a	yellow
336.4326	1.0167	ITI	n/a	n/a	n/a	n/a	n/a	n/a	n/a	n/a
337.4493	0.5167	FIXCROSS	n/a	n/a	n/a	n/a	n/a	n/a	n/a	n/a
337.966	0.8333	COLOR_NAME	34	Incongruent	żółty	yellow	zielony	green	hit	n/a
338.776	n/a	RESPONSE	n/a	n/a	n/a	n/a	n/a	n/a	n/a	yellow
338.7993	1.0167	ITI	n/a	n/a	n/a	n/a	n/a	n/a	n/a	n/a
339.816	0.5167	FIXCROSS	n/a	n/a	n/a	n/a	n/a	n/a	n/a	n/a
340.3327	0.7333	COLOR_NAME	35	Neutral	zielony	green	Neutral	Neutral	hit	n/a
341.0427	n/a	RESPONSE	n/a	n/a	n/a	n/a	n/a	n/a	n/a	green
341.066	1.0167	ITI	n/a	n/a	n/a	n/a	n/a	n/a	n/a	n/a
342.0827	0.5167	FIXCROSS	n/a	n/a	n/a	n/a	n/a	n/a	n/a	n/a
342.5994	0.7333	COLOR_NAME	36	Incongruent	czerwony	red	niebieski	blue	hit	n/a
343.3093	n/a	RESPONSE	n/a	n/a	n/a	n/a	n/a	n/a	n/a	red
343.3327	1.0167	ITI	n/a	n/a	n/a	n/a	n/a	n/a	n/a	n/a
344.3494	0.5167	FIXCROSS	n/a	n/a	n/a	n/a	n/a	n/a	n/a	n/a
344.866	0.75	COLOR_NAME	37	Neutral	zielony	green	Neutral	Neutral	hit	n/a
345.592	n/a	RESPONSE	n/a	n/a	n/a	n/a	n/a	n/a	n/a	green
345.616	1.0167	ITI	n/a	n/a	n/a	n/a	n/a	n/a	n/a	n/a
346.6327	0.5167	FIXCROSS	n/a	n/a	n/a	n/a	n/a	n/a	n/a	n/a
347.1494	0.9667	COLOR_NAME	38	Neutral	żółty	yellow	Neutral	Neutral	hit	n/a
348.0981	n/a	RESPONSE	n/a	n/a	n/a	n/a	n/a	n/a	n/a	yellow
348.116	1.0167	ITI	n/a	n/a	n/a	n/a	n/a	n/a	n/a	n/a
349.1328	0.5167	FIXCROSS	n/a	n/a	n/a	n/a	n/a	n/a	n/a	n/a
349.6494	1.0667	COLOR_NAME	39	Incongruent	czerwony	red	żółty	yellow	hit	n/a
350.6841	n/a	RESPONSE	n/a	n/a	n/a	n/a	n/a	n/a	n/a	red
350.7161	1.0167	ITI	n/a	n/a	n/a	n/a	n/a	n/a	n/a	n/a
351.7328	0.5167	FIXCROSS	n/a	n/a	n/a	n/a	n/a	n/a	n/a	n/a
352.2494	0.7833	COLOR_NAME	40	Neutral	żółty	yellow	Neutral	Neutral	hit	n/a
353.0146	n/a	RESPONSE	n/a	n/a	n/a	n/a	n/a	n/a	n/a	yellow
353.0328	1.0167	ITI	n/a	n/a	n/a	n/a	n/a	n/a	n/a	n/a
354.0495	0.5167	FIXCROSS	n/a	n/a	n/a	n/a	n/a	n/a	n/a	n/a
354.5661	0.8833	COLOR_NAME	41	Neutral	czerwony	red	Neutral	Neutral	hit	n/a
355.4249	n/a	RESPONSE	n/a	n/a	n/a	n/a	n/a	n/a	n/a	red
355.4495	1.0167	ITI	n/a	n/a	n/a	n/a	n/a	n/a	n/a	n/a
356.4661	0.5167	FIXCROSS	n/a	n/a	n/a	n/a	n/a	n/a	n/a	n/a
356.9828	0.8833	COLOR_NAME	42	Neutral	żółty	yellow	Neutral	Neutral	hit	n/a
357.8353	n/a	RESPONSE	n/a	n/a	n/a	n/a	n/a	n/a	n/a	yellow
357.8662	1.0167	ITI	n/a	n/a	n/a	n/a	n/a	n/a	n/a	n/a
358.8828	0.5167	FIXCROSS	n/a	n/a	n/a	n/a	n/a	n/a	n/a	n/a
359.3995	0.8167	COLOR_NAME	43	Neutral	żółty	yellow	Neutral	Neutral	hit	n/a
360.1977	n/a	RESPONSE	n/a	n/a	n/a	n/a	n/a	n/a	n/a	yellow
360.2162	1.0167	ITI	n/a	n/a	n/a	n/a	n/a	n/a	n/a	n/a
361.2329	0.5166	FIXCROSS	n/a	n/a	n/a	n/a	n/a	n/a	n/a	n/a
361.7495	0.85	COLOR_NAME	44	Incongruent	niebieski	blue	zielony	green	hit	n/a
362.5762	n/a	RESPONSE	n/a	n/a	n/a	n/a	n/a	n/a	n/a	blue
362.5995	1.0167	ITI	n/a	n/a	n/a	n/a	n/a	n/a	n/a	n/a
363.6162	0.5167	FIXCROSS	n/a	n/a	n/a	n/a	n/a	n/a	n/a	n/a
364.1329	1.0166	COLOR_NAME	45	Incongruent	żółty	yellow	czerwony	red	hit	n/a
365.1303	n/a	RESPONSE	n/a	n/a	n/a	n/a	n/a	n/a	n/a	yellow
365.1495	1.0167	ITI	n/a	n/a	n/a	n/a	n/a	n/a	n/a	n/a
366.1662	0.5166	FIXCROSS	n/a	n/a	n/a	n/a	n/a	n/a	n/a	n/a
366.6829	0.8167	COLOR_NAME	46	Incongruent	czerwony	red	żółty	yellow	hit	n/a
367.4767	n/a	RESPONSE	n/a	n/a	n/a	n/a	n/a	n/a	n/a	red
367.4996	1.0167	ITI	n/a	n/a	n/a	n/a	n/a	n/a	n/a	n/a
368.5162	0.5167	FIXCROSS	n/a	n/a	n/a	n/a	n/a	n/a	n/a	n/a
369.0329	0.7333	COLOR_NAME	47	Neutral	niebieski	blue	Neutral	Neutral	hit	n/a
369.7435	n/a	RESPONSE	n/a	n/a	n/a	n/a	n/a	n/a	n/a	blue
369.7663	1.0167	ITI	n/a	n/a	n/a	n/a	n/a	n/a	n/a	n/a
370.7829	0.5167	FIXCROSS	n/a	n/a	n/a	n/a	n/a	n/a	n/a	n/a
371.2996	0.8	COLOR_NAME	48	Incongruent	czerwony	red	niebieski	blue	hit	n/a
372.0741	n/a	RESPONSE	n/a	n/a	n/a	n/a	n/a	n/a	n/a	red
372.0996	1.0167	ITI	n/a	n/a	n/a	n/a	n/a	n/a	n/a	n/a
373.1163	0.5167	FIXCROSS	n/a	n/a	n/a	n/a	n/a	n/a	n/a	n/a
373.6329	0.7166	COLOR_NAME	49	Neutral	zielony	green	Neutral	Neutral	hit	n/a
374.3248	n/a	RESPONSE	n/a	n/a	n/a	n/a	n/a	n/a	n/a	green
374.3496	1.0167	ITI	n/a	n/a	n/a	n/a	n/a	n/a	n/a	n/a
375.3663	0.5167	FIXCROSS	n/a	n/a	n/a	n/a	n/a	n/a	n/a	n/a
375.883	0.8	COLOR_NAME	50	Neutral	niebieski	blue	Neutral	Neutral	hit	n/a
376.6554	n/a	RESPONSE	n/a	n/a	n/a	n/a	n/a	n/a	n/a	blue
376.683	1.0167	ITI	n/a	n/a	n/a	n/a	n/a	n/a	n/a	n/a
377.6997	0.5167	FIXCROSS	n/a	n/a	n/a	n/a	n/a	n/a	n/a	n/a
378.2163	0.8	COLOR_NAME	51	Neutral	czerwony	red	Neutral	Neutral	hit	n/a
378.9859	n/a	RESPONSE	n/a	n/a	n/a	n/a	n/a	n/a	n/a	red
379.0163	1.0167	ITI	n/a	n/a	n/a	n/a	n/a	n/a	n/a	n/a
380.033	0.5167	FIXCROSS	n/a	n/a	n/a	n/a	n/a	n/a	n/a	n/a
380.5497	0.7833	COLOR_NAME	52	Incongruent	żółty	yellow	zielony	green	hit	n/a
381.3004	n/a	RESPONSE	n/a	n/a	n/a	n/a	n/a	n/a	n/a	yellow
381.333	1.0167	ITI	n/a	n/a	n/a	n/a	n/a	n/a	n/a	n/a
382.3497	0.5167	FIXCROSS	n/a	n/a	n/a	n/a	n/a	n/a	n/a	n/a
382.8664	0.75	COLOR_NAME	53	Neutral	zielony	green	Neutral	Neutral	hit	n/a
383.5831	n/a	RESPONSE	n/a	n/a	n/a	n/a	n/a	n/a	n/a	green
383.6164	1.0166	ITI	n/a	n/a	n/a	n/a	n/a	n/a	n/a	n/a
384.633	0.5167	FIXCROSS	n/a	n/a	n/a	n/a	n/a	n/a	n/a	n/a
385.1497	0.7	COLOR_NAME	54	Incongruent	niebieski	blue	żółty	yellow	hit	n/a
385.8178	n/a	RESPONSE	n/a	n/a	n/a	n/a	n/a	n/a	n/a	blue
385.8497	1.0167	ITI	n/a	n/a	n/a	n/a	n/a	n/a	n/a	n/a
386.8664	0.5166	FIXCROSS	n/a	n/a	n/a	n/a	n/a	n/a	n/a	n/a
387.383	0.75	COLOR_NAME	55	Neutral	zielony	green	Neutral	Neutral	hit	n/a
388.1005	n/a	RESPONSE	n/a	n/a	n/a	n/a	n/a	n/a	n/a	green
388.1331	1.0166	ITI	n/a	n/a	n/a	n/a	n/a	n/a	n/a	n/a
389.1497	0.5167	FIXCROSS	n/a	n/a	n/a	n/a	n/a	n/a	n/a	n/a
389.6664	0.6667	COLOR_NAME	56	Incongruent	niebieski	blue	zielony	green	hit	n/a
390.3034	n/a	RESPONSE	n/a	n/a	n/a	n/a	n/a	n/a	n/a	blue
390.3331	1.0167	ITI	n/a	n/a	n/a	n/a	n/a	n/a	n/a	n/a
391.3497	0.5167	FIXCROSS	n/a	n/a	n/a	n/a	n/a	n/a	n/a	n/a
391.8664	0.65	COLOR_NAME	57	Neutral	niebieski	blue	Neutral	Neutral	hit	n/a
392.4902	n/a	RESPONSE	n/a	n/a	n/a	n/a	n/a	n/a	n/a	blue
392.5164	1.0167	ITI	n/a	n/a	n/a	n/a	n/a	n/a	n/a	n/a
393.5331	0.5167	FIXCROSS	n/a	n/a	n/a	n/a	n/a	n/a	n/a	n/a
394.0498	0.7666	COLOR_NAME	58	Incongruent	czerwony	red	zielony	green	hit	n/a
394.7888	n/a	RESPONSE	n/a	n/a	n/a	n/a	n/a	n/a	n/a	red
394.8164	1.0167	ITI	n/a	n/a	n/a	n/a	n/a	n/a	n/a	n/a
395.8331	0.5167	FIXCROSS	n/a	n/a	n/a	n/a	n/a	n/a	n/a	n/a
396.3498	0.7833	COLOR_NAME	59	Incongruent	zielony	green	niebieski	blue	hit	n/a
397.1034	n/a	RESPONSE	n/a	n/a	n/a	n/a	n/a	n/a	n/a	green
397.1331	1.0167	ITI	n/a	n/a	n/a	n/a	n/a	n/a	n/a	n/a
398.1498	0.5166	FIXCROSS	n/a	n/a	n/a	n/a	n/a	n/a	n/a	n/a
398.6664	0.7667	COLOR_NAME	60	Incongruent	niebieski	blue	czerwony	red	hit	n/a
399.4022	n/a	RESPONSE	n/a	n/a	n/a	n/a	n/a	n/a	n/a	blue
399.4331	1.0167	ITI	n/a	n/a	n/a	n/a	n/a	n/a	n/a	n/a
400.4498	0.5167	FIXCROSS	n/a	n/a	n/a	n/a	n/a	n/a	n/a	n/a
400.9665	0.6667	COLOR_NAME	61	Neutral	niebieski	blue	Neutral	Neutral	hit	n/a
401.6049	n/a	RESPONSE	n/a	n/a	n/a	n/a	n/a	n/a	n/a	blue
401.6332	1.0167	ITI	n/a	n/a	n/a	n/a	n/a	n/a	n/a	n/a
402.6499	0.5167	FIXCROSS	n/a	n/a	n/a	n/a	n/a	n/a	n/a	n/a
403.1665	0.8333	COLOR_NAME	62	Incongruent	czerwony	red	żółty	yellow	hit	n/a
403.9675	n/a	RESPONSE	n/a	n/a	n/a	n/a	n/a	n/a	n/a	red
403.9998	1.0167	ITI	n/a	n/a	n/a	n/a	n/a	n/a	n/a	n/a
405.0165	0.5167	FIXCROSS	n/a	n/a	n/a	n/a	n/a	n/a	n/a	n/a
405.5332	0.75	COLOR_NAME	63	Neutral	czerwony	red	Neutral	Neutral	hit	n/a
406.2501	n/a	RESPONSE	n/a	n/a	n/a	n/a	n/a	n/a	n/a	red
406.2832	1.0167	ITI	n/a	n/a	n/a	n/a	n/a	n/a	n/a	n/a
407.2999	0.5166	FIXCROSS	n/a	n/a	n/a	n/a	n/a	n/a	n/a	n/a
407.8165	0.8333	COLOR_NAME	64	Neutral	zielony	green	Neutral	Neutral	hit	n/a
408.6285	n/a	RESPONSE	n/a	n/a	n/a	n/a	n/a	n/a	n/a	green
408.6499	1.0167	ITI	n/a	n/a	n/a	n/a	n/a	n/a	n/a	n/a
409.6666	0.5167	FIXCROSS	n/a	n/a	n/a	n/a	n/a	n/a	n/a	n/a
410.1833	0.7667	COLOR_NAME	65	Incongruent	zielony	green	czerwony	red	hit	n/a
410.9272	n/a	RESPONSE	n/a	n/a	n/a	n/a	n/a	n/a	n/a	green
410.9499	1.0167	ITI	n/a	n/a	n/a	n/a	n/a	n/a	n/a	n/a
411.9666	0.5167	FIXCROSS	n/a	n/a	n/a	n/a	n/a	n/a	n/a	n/a
412.4833	0.7333	COLOR_NAME	66	Incongruent	niebieski	blue	zielony	green	hit	n/a
413.1939	n/a	RESPONSE	n/a	n/a	n/a	n/a	n/a	n/a	n/a	blue
413.2166	1.0167	ITI	n/a	n/a	n/a	n/a	n/a	n/a	n/a	n/a
414.2333	0.5167	FIXCROSS	n/a	n/a	n/a	n/a	n/a	n/a	n/a	n/a
414.7499	0.7667	COLOR_NAME	67	Neutral	niebieski	blue	Neutral	Neutral	hit	n/a
415.4925	n/a	RESPONSE	n/a	n/a	n/a	n/a	n/a	n/a	n/a	blue
415.5166	1.0167	ITI	n/a	n/a	n/a	n/a	n/a	n/a	n/a	n/a
416.5333	0.5167	FIXCROSS	n/a	n/a	n/a	n/a	n/a	n/a	n/a	n/a
417.05	0.75	COLOR_NAME	68	Neutral	zielony	green	Neutral	Neutral	hit	n/a
417.7751	n/a	RESPONSE	n/a	n/a	n/a	n/a	n/a	n/a	n/a	green
417.8	1.0167	ITI	n/a	n/a	n/a	n/a	n/a	n/a	n/a	n/a
418.8166	0.5166	FIXCROSS	n/a	n/a	n/a	n/a	n/a	n/a	n/a	n/a
419.3333	1.0167	COLOR_NAME	69	Incongruent	żółty	yellow	czerwony	red	hit	n/a
420.3292	n/a	RESPONSE	n/a	n/a	n/a	n/a	n/a	n/a	n/a	yellow
420.35	1.0167	ITI	n/a	n/a	n/a	n/a	n/a	n/a	n/a	n/a
421.3667	0.5166	FIXCROSS	n/a	n/a	n/a	n/a	n/a	n/a	n/a	n/a
421.8833	0.9834	COLOR_NAME	70	Neutral	czerwony	red	Neutral	Neutral	hit	n/a
422.8353	n/a	RESPONSE	n/a	n/a	n/a	n/a	n/a	n/a	n/a	red
422.8667	1.0167	ITI	n/a	n/a	n/a	n/a	n/a	n/a	n/a	n/a
423.8834	0.5167	FIXCROSS	n/a	n/a	n/a	n/a	n/a	n/a	n/a	n/a
424.4	0.9333	COLOR_NAME	71	Neutral	żółty	yellow	Neutral	Neutral	hit	n/a
425.3095	n/a	RESPONSE	n/a	n/a	n/a	n/a	n/a	n/a	n/a	yellow
425.3334	1.0166	ITI	n/a	n/a	n/a	n/a	n/a	n/a	n/a	n/a
426.35	0.5167	FIXCROSS	n/a	n/a	n/a	n/a	n/a	n/a	n/a	n/a
426.8667	0.9666	COLOR_NAME	72	Neutral	zielony	green	Neutral	Neutral	hit	n/a
427.7997	n/a	RESPONSE	n/a	n/a	n/a	n/a	n/a	n/a	n/a	green
427.8334	1.0334	ITI	n/a	n/a	n/a	n/a	n/a	n/a	n/a	n/a
431.7903	n/a	RESPONSE	n/a	n/a	n/a	n/a	n/a	n/a	n/a	n/a
