onset	duration	trial_type	trial_number	stroop_condition	stim_text(PL)	stim_text(eng)	stim_color(PL)	stim_color(eng)	response_type	response_color
0.0	n/a	RESPONSE	n/a	n/a	n/a	n/a	n/a	n/a	n/a	n/a
0.0269	1.0166	ITI	n/a	n/a	n/a	n/a	n/a	n/a	n/a	n/a
1.0435	0.5	FIXCROSS	n/a	n/a	n/a	n/a	n/a	n/a	n/a	n/a
1.5435	2.2833	T_INK	1	Neutral	xxxxxxxx	xxxxxxxx	żółty	yellow	incorrect	n/a
3.8214	n/a	RESPONSE	n/a	n/a	n/a	n/a	n/a	n/a	n/a	green
3.8268	0.5	FEEDBACK	n/a	n/a	n/a	n/a	n/a	n/a	n/a	n/a
4.3268	1.0	ITI	n/a	n/a	n/a	n/a	n/a	n/a	n/a	n/a
5.3268	0.5	FIXCROSS	n/a	n/a	n/a	n/a	n/a	n/a	n/a	n/a
5.8268	1.5833	T_INK	2	Neutral	xxxxxxx	xxxxxxx	żółty	yellow	hit	n/a
7.403	n/a	RESPONSE	n/a	n/a	n/a	n/a	n/a	n/a	n/a	yellow
7.4101	0.5	FEEDBACK	n/a	n/a	n/a	n/a	n/a	n/a	n/a	n/a
7.9101	1.0	ITI	n/a	n/a	n/a	n/a	n/a	n/a	n/a	n/a
8.91	0.5	FIXCROSS	n/a	n/a	n/a	n/a	n/a	n/a	n/a	n/a
9.41	1.0	T_INK	3	Neutral	xxxxxxx	xxxxxxx	niebieski	blue	hit	n/a
10.393	n/a	RESPONSE	n/a	n/a	n/a	n/a	n/a	n/a	n/a	blue
10.41	0.5	FEEDBACK	n/a	n/a	n/a	n/a	n/a	n/a	n/a	n/a
10.91	1.0	ITI	n/a	n/a	n/a	n/a	n/a	n/a	n/a	n/a
11.91	0.5	FIXCROSS	n/a	n/a	n/a	n/a	n/a	n/a	n/a	n/a
12.41	1.0667	T_INK	4	Neutral	xxxxxxxxx	xxxxxxxxx	zielony	green	hit	n/a
13.463	n/a	RESPONSE	n/a	n/a	n/a	n/a	n/a	n/a	n/a	green
13.4766	0.5	FEEDBACK	n/a	n/a	n/a	n/a	n/a	n/a	n/a	n/a
13.9766	1.0	ITI	n/a	n/a	n/a	n/a	n/a	n/a	n/a	n/a
14.9766	0.5	FIXCROSS	n/a	n/a	n/a	n/a	n/a	n/a	n/a	n/a
15.4766	1.2666	T_INK	5	Incongruent	czerwony	red	niebieski	blue	hit	n/a
16.7247	n/a	RESPONSE	n/a	n/a	n/a	n/a	n/a	n/a	n/a	blue
16.7432	0.5	FEEDBACK	n/a	n/a	n/a	n/a	n/a	n/a	n/a	n/a
17.2432	1.0	ITI	n/a	n/a	n/a	n/a	n/a	n/a	n/a	n/a
18.2432	0.5	FIXCROSS	n/a	n/a	n/a	n/a	n/a	n/a	n/a	n/a
18.7432	1.0667	T_INK	6	Incongruent	żółty	yellow	czerwony	red	hit	n/a
19.7947	n/a	RESPONSE	n/a	n/a	n/a	n/a	n/a	n/a	n/a	red
19.8098	0.5	FEEDBACK	n/a	n/a	n/a	n/a	n/a	n/a	n/a	n/a
20.3098	1.0	ITI	n/a	n/a	n/a	n/a	n/a	n/a	n/a	n/a
21.3098	0.5	FIXCROSS	n/a	n/a	n/a	n/a	n/a	n/a	n/a	n/a
21.8098	0.8833	T_INK	7	Incongruent	czerwony	red	zielony	green	hit	n/a
22.6887	n/a	RESPONSE	n/a	n/a	n/a	n/a	n/a	n/a	n/a	green
22.6931	0.5	FEEDBACK	n/a	n/a	n/a	n/a	n/a	n/a	n/a	n/a
23.1931	1.0	ITI	n/a	n/a	n/a	n/a	n/a	n/a	n/a	n/a
24.1931	0.5	FIXCROSS	n/a	n/a	n/a	n/a	n/a	n/a	n/a	n/a
24.6931	1.6666	T_INK	8	Incongruent	niebieski	blue	zielony	green	hit	n/a
26.3503	n/a	RESPONSE	n/a	n/a	n/a	n/a	n/a	n/a	n/a	green
26.3597	0.5	FEEDBACK	n/a	n/a	n/a	n/a	n/a	n/a	n/a	n/a
26.8597	1.0	ITI	n/a	n/a	n/a	n/a	n/a	n/a	n/a	n/a
27.8597	0.5	FIXCROSS	n/a	n/a	n/a	n/a	n/a	n/a	n/a	n/a
28.3597	0.9666	T_INK	9	Neutral	xxxxxxxxx	xxxxxxxxx	żółty	yellow	hit	n/a
29.3083	n/a	RESPONSE	n/a	n/a	n/a	n/a	n/a	n/a	n/a	yellow
29.3263	0.5	FEEDBACK	n/a	n/a	n/a	n/a	n/a	n/a	n/a	n/a
29.8263	1.0	ITI	n/a	n/a	n/a	n/a	n/a	n/a	n/a	n/a
30.8263	0.5	FIXCROSS	n/a	n/a	n/a	n/a	n/a	n/a	n/a	n/a
31.3263	0.8166	T_INK	10	Neutral	xxxxxxxx	xxxxxxxx	zielony	green	hit	n/a
32.1384	n/a	RESPONSE	n/a	n/a	n/a	n/a	n/a	n/a	n/a	green
32.1429	0.5	FEEDBACK	n/a	n/a	n/a	n/a	n/a	n/a	n/a	n/a
32.6429	1.0	ITI	n/a	n/a	n/a	n/a	n/a	n/a	n/a	n/a
33.6429	0.5	FIXCROSS	n/a	n/a	n/a	n/a	n/a	n/a	n/a	n/a
34.1429	1.0666	T_INK	11	Neutral	xxxxx	xxxxx	niebieski	blue	hit	n/a
35.1923	n/a	RESPONSE	n/a	n/a	n/a	n/a	n/a	n/a	n/a	blue
35.2096	0.5	FEEDBACK	n/a	n/a	n/a	n/a	n/a	n/a	n/a	n/a
35.7096	1.0	ITI	n/a	n/a	n/a	n/a	n/a	n/a	n/a	n/a
36.7095	0.5	FIXCROSS	n/a	n/a	n/a	n/a	n/a	n/a	n/a	n/a
37.2095	0.75	T_INK	12	Incongruent	niebieski	blue	czerwony	red	hit	n/a
37.9425	n/a	RESPONSE	n/a	n/a	n/a	n/a	n/a	n/a	n/a	red
37.9595	0.5	FEEDBACK	n/a	n/a	n/a	n/a	n/a	n/a	n/a	n/a
38.4595	1.0	ITI	n/a	n/a	n/a	n/a	n/a	n/a	n/a	n/a
53.1803	n/a	RESPONSE	n/a	n/a	n/a	n/a	n/a	n/a	n/a	n/a
53.2092	1.0	ITI	n/a	n/a	n/a	n/a	n/a	n/a	n/a	n/a
54.2092	0.5	FIXCROSS	n/a	n/a	n/a	n/a	n/a	n/a	n/a	n/a
54.7092	0.9666	INK	1	Incongruent	żółty	yellow	zielony	green	hit	n/a
55.6586	n/a	RESPONSE	n/a	n/a	n/a	n/a	n/a	n/a	n/a	green
55.6759	1.0	ITI	n/a	n/a	n/a	n/a	n/a	n/a	n/a	n/a
56.6758	0.5	FIXCROSS	n/a	n/a	n/a	n/a	n/a	n/a	n/a	n/a
57.1758	0.6333	INK	2	Neutral	xxxxx	xxxxx	czerwony	red	hit	n/a
57.8011	n/a	RESPONSE	n/a	n/a	n/a	n/a	n/a	n/a	n/a	red
57.8092	1.0	ITI	n/a	n/a	n/a	n/a	n/a	n/a	n/a	n/a
58.8091	0.5	FIXCROSS	n/a	n/a	n/a	n/a	n/a	n/a	n/a	n/a
59.3091	1.0333	INK	3	Incongruent	zielony	green	czerwony	red	hit	n/a
60.3275	n/a	RESPONSE	n/a	n/a	n/a	n/a	n/a	n/a	n/a	red
60.3425	1.0	ITI	n/a	n/a	n/a	n/a	n/a	n/a	n/a	n/a
61.3424	0.5	FIXCROSS	n/a	n/a	n/a	n/a	n/a	n/a	n/a	n/a
61.8424	1.1	INK	4	Incongruent	niebieski	blue	żółty	yellow	hit	n/a
62.9338	n/a	RESPONSE	n/a	n/a	n/a	n/a	n/a	n/a	n/a	yellow
62.9424	1.0	ITI	n/a	n/a	n/a	n/a	n/a	n/a	n/a	n/a
63.9424	0.5	FIXCROSS	n/a	n/a	n/a	n/a	n/a	n/a	n/a	n/a
64.4424	0.8666	INK	5	Neutral	xxxxxxx	xxxxxxx	czerwony	red	hit	n/a
65.3002	n/a	RESPONSE	n/a	n/a	n/a	n/a	n/a	n/a	n/a	red
65.309	1.0	ITI	n/a	n/a	n/a	n/a	n/a	n/a	n/a	n/a
66.309	0.5	FIXCROSS	n/a	n/a	n/a	n/a	n/a	n/a	n/a	n/a
66.809	0.8167	INK	6	Incongruent	zielony	green	niebieski	blue	hit	n/a
67.6185	n/a	RESPONSE	n/a	n/a	n/a	n/a	n/a	n/a	n/a	blue
67.6257	1.0	ITI	n/a	n/a	n/a	n/a	n/a	n/a	n/a	n/a
68.6256	0.5	FIXCROSS	n/a	n/a	n/a	n/a	n/a	n/a	n/a	n/a
69.1256	0.8	INK	7	Incongruent	niebieski	blue	zielony	green	hit	n/a
69.921	n/a	RESPONSE	n/a	n/a	n/a	n/a	n/a	n/a	n/a	green
69.9256	1.0	ITI	n/a	n/a	n/a	n/a	n/a	n/a	n/a	n/a
70.9256	0.5	FIXCROSS	n/a	n/a	n/a	n/a	n/a	n/a	n/a	n/a
71.4256	0.7667	INK	8	Incongruent	żółty	yellow	zielony	green	hit	n/a
72.1755	n/a	RESPONSE	n/a	n/a	n/a	n/a	n/a	n/a	n/a	green
72.1922	1.0	ITI	n/a	n/a	n/a	n/a	n/a	n/a	n/a	n/a
73.1922	0.5	FIXCROSS	n/a	n/a	n/a	n/a	n/a	n/a	n/a	n/a
73.6922	0.7333	INK	9	Incongruent	żółty	yellow	czerwony	red	hit	n/a
74.414	n/a	RESPONSE	n/a	n/a	n/a	n/a	n/a	n/a	n/a	red
74.4255	1.0	ITI	n/a	n/a	n/a	n/a	n/a	n/a	n/a	n/a
75.4255	0.5	FIXCROSS	n/a	n/a	n/a	n/a	n/a	n/a	n/a	n/a
75.9255	0.6833	INK	10	Incongruent	zielony	green	czerwony	red	hit	n/a
76.6046	n/a	RESPONSE	n/a	n/a	n/a	n/a	n/a	n/a	n/a	red
76.6088	1.0	ITI	n/a	n/a	n/a	n/a	n/a	n/a	n/a	n/a
77.6088	0.5	FIXCROSS	n/a	n/a	n/a	n/a	n/a	n/a	n/a	n/a
78.1088	0.7666	INK	11	Neutral	xxxxxxx	xxxxxxx	żółty	yellow	hit	n/a
78.8591	n/a	RESPONSE	n/a	n/a	n/a	n/a	n/a	n/a	n/a	yellow
78.8755	1.0	ITI	n/a	n/a	n/a	n/a	n/a	n/a	n/a	n/a
79.8754	0.5	FIXCROSS	n/a	n/a	n/a	n/a	n/a	n/a	n/a	n/a
80.3754	0.7666	INK	12	Incongruent	niebieski	blue	czerwony	red	hit	n/a
81.1296	n/a	RESPONSE	n/a	n/a	n/a	n/a	n/a	n/a	n/a	red
81.1421	1.0	ITI	n/a	n/a	n/a	n/a	n/a	n/a	n/a	n/a
82.1421	0.5	FIXCROSS	n/a	n/a	n/a	n/a	n/a	n/a	n/a	n/a
82.6421	0.6833	INK	13	Neutral	xxxxxxxxx	xxxxxxxxx	zielony	green	hit	n/a
83.3201	n/a	RESPONSE	n/a	n/a	n/a	n/a	n/a	n/a	n/a	green
83.3254	1.0	ITI	n/a	n/a	n/a	n/a	n/a	n/a	n/a	n/a
84.3254	0.5	FIXCROSS	n/a	n/a	n/a	n/a	n/a	n/a	n/a	n/a
84.8254	0.6667	INK	14	Neutral	xxxxxxx	xxxxxxx	niebieski	blue	hit	n/a
85.4787	n/a	RESPONSE	n/a	n/a	n/a	n/a	n/a	n/a	n/a	blue
85.492	1.0	ITI	n/a	n/a	n/a	n/a	n/a	n/a	n/a	n/a
86.492	0.5	FIXCROSS	n/a	n/a	n/a	n/a	n/a	n/a	n/a	n/a
86.992	0.7	INK	15	Incongruent	czerwony	red	żółty	yellow	hit	n/a
87.6852	n/a	RESPONSE	n/a	n/a	n/a	n/a	n/a	n/a	n/a	yellow
87.692	1.0	ITI	n/a	n/a	n/a	n/a	n/a	n/a	n/a	n/a
88.6919	0.5	FIXCROSS	n/a	n/a	n/a	n/a	n/a	n/a	n/a	n/a
89.1919	0.75	INK	16	Neutral	xxxxxxxxx	xxxxxxxxx	żółty	yellow	hit	n/a
89.9236	n/a	RESPONSE	n/a	n/a	n/a	n/a	n/a	n/a	n/a	yellow
89.9419	1.0	ITI	n/a	n/a	n/a	n/a	n/a	n/a	n/a	n/a
90.9419	0.5	FIXCROSS	n/a	n/a	n/a	n/a	n/a	n/a	n/a	n/a
91.4419	0.6667	INK	17	Neutral	xxxxx	xxxxx	czerwony	red	hit	n/a
92.0982	n/a	RESPONSE	n/a	n/a	n/a	n/a	n/a	n/a	n/a	red
92.1086	1.0	ITI	n/a	n/a	n/a	n/a	n/a	n/a	n/a	n/a
93.1085	0.5	FIXCROSS	n/a	n/a	n/a	n/a	n/a	n/a	n/a	n/a
93.6085	0.85	INK	18	Neutral	xxxxxxxx	xxxxxxxx	żółty	yellow	hit	n/a
94.4486	n/a	RESPONSE	n/a	n/a	n/a	n/a	n/a	n/a	n/a	yellow
94.4585	1.0	ITI	n/a	n/a	n/a	n/a	n/a	n/a	n/a	n/a
95.4585	0.5	FIXCROSS	n/a	n/a	n/a	n/a	n/a	n/a	n/a	n/a
95.9585	0.5833	INK	19	Incongruent	zielony	green	żółty	yellow	hit	n/a
96.5272	n/a	RESPONSE	n/a	n/a	n/a	n/a	n/a	n/a	n/a	yellow
96.5418	1.0	ITI	n/a	n/a	n/a	n/a	n/a	n/a	n/a	n/a
97.5418	0.5	FIXCROSS	n/a	n/a	n/a	n/a	n/a	n/a	n/a	n/a
98.0418	0.6833	INK	20	Neutral	xxxxxxxx	xxxxxxxx	zielony	green	hit	n/a
98.7177	n/a	RESPONSE	n/a	n/a	n/a	n/a	n/a	n/a	n/a	green
98.7251	1.0	ITI	n/a	n/a	n/a	n/a	n/a	n/a	n/a	n/a
99.7251	0.5	FIXCROSS	n/a	n/a	n/a	n/a	n/a	n/a	n/a	n/a
100.2251	0.6333	INK	21	Neutral	xxxxx	xxxxx	niebieski	blue	hit	n/a
100.8444	n/a	RESPONSE	n/a	n/a	n/a	n/a	n/a	n/a	n/a	blue
100.8584	1.0	ITI	n/a	n/a	n/a	n/a	n/a	n/a	n/a	n/a
101.8584	0.5	FIXCROSS	n/a	n/a	n/a	n/a	n/a	n/a	n/a	n/a
102.3584	0.5667	INK	22	Neutral	xxxxxxxxx	xxxxxxxxx	czerwony	red	hit	n/a
102.9069	n/a	RESPONSE	n/a	n/a	n/a	n/a	n/a	n/a	n/a	red
102.925	1.0	ITI	n/a	n/a	n/a	n/a	n/a	n/a	n/a	n/a
103.925	0.5	FIXCROSS	n/a	n/a	n/a	n/a	n/a	n/a	n/a	n/a
104.425	0.6833	INK	23	Neutral	xxxxxxxxx	xxxxxxxxx	czerwony	red	hit	n/a
105.0975	n/a	RESPONSE	n/a	n/a	n/a	n/a	n/a	n/a	n/a	red
105.1083	1.0	ITI	n/a	n/a	n/a	n/a	n/a	n/a	n/a	n/a
106.1083	0.5	FIXCROSS	n/a	n/a	n/a	n/a	n/a	n/a	n/a	n/a
106.6083	0.6333	INK	24	Neutral	xxxxxxxx	xxxxxxxx	żółty	yellow	hit	n/a
107.224	n/a	RESPONSE	n/a	n/a	n/a	n/a	n/a	n/a	n/a	yellow
107.2416	1.0	ITI	n/a	n/a	n/a	n/a	n/a	n/a	n/a	n/a
108.2416	0.5	FIXCROSS	n/a	n/a	n/a	n/a	n/a	n/a	n/a	n/a
108.7416	0.75	INK	25	Incongruent	niebieski	blue	czerwony	red	hit	n/a
109.4785	n/a	RESPONSE	n/a	n/a	n/a	n/a	n/a	n/a	n/a	red
109.4916	1.0	ITI	n/a	n/a	n/a	n/a	n/a	n/a	n/a	n/a
110.4916	0.5	FIXCROSS	n/a	n/a	n/a	n/a	n/a	n/a	n/a	n/a
110.9915	0.6167	INK	26	Neutral	xxxxx	xxxxx	zielony	green	hit	n/a
111.5891	n/a	RESPONSE	n/a	n/a	n/a	n/a	n/a	n/a	n/a	green
111.6082	1.0	ITI	n/a	n/a	n/a	n/a	n/a	n/a	n/a	n/a
112.6082	0.5	FIXCROSS	n/a	n/a	n/a	n/a	n/a	n/a	n/a	n/a
113.1082	0.6833	INK	27	Incongruent	zielony	green	żółty	yellow	hit	n/a
113.7796	n/a	RESPONSE	n/a	n/a	n/a	n/a	n/a	n/a	n/a	yellow
113.7915	1.0	ITI	n/a	n/a	n/a	n/a	n/a	n/a	n/a	n/a
114.7915	0.5	FIXCROSS	n/a	n/a	n/a	n/a	n/a	n/a	n/a	n/a
115.2915	0.6833	INK	28	Incongruent	żółty	yellow	czerwony	red	hit	n/a
115.9701	n/a	RESPONSE	n/a	n/a	n/a	n/a	n/a	n/a	n/a	red
115.9748	1.0	ITI	n/a	n/a	n/a	n/a	n/a	n/a	n/a	n/a
116.9748	0.5	FIXCROSS	n/a	n/a	n/a	n/a	n/a	n/a	n/a	n/a
117.4748	0.6667	INK	29	Incongruent	żółty	yellow	niebieski	blue	hit	n/a
118.1287	n/a	RESPONSE	n/a	n/a	n/a	n/a	n/a	n/a	n/a	blue
118.1414	1.0	ITI	n/a	n/a	n/a	n/a	n/a	n/a	n/a	n/a
119.1414	0.5	FIXCROSS	n/a	n/a	n/a	n/a	n/a	n/a	n/a	n/a
119.6414	0.7167	INK	30	Neutral	xxxxxxx	xxxxxxx	niebieski	blue	hit	n/a
120.3512	n/a	RESPONSE	n/a	n/a	n/a	n/a	n/a	n/a	n/a	blue
120.358	1.0	ITI	n/a	n/a	n/a	n/a	n/a	n/a	n/a	n/a
121.358	0.5	FIXCROSS	n/a	n/a	n/a	n/a	n/a	n/a	n/a	n/a
121.858	0.6167	INK	31	Neutral	xxxxx	xxxxx	zielony	green	hit	n/a
122.4618	n/a	RESPONSE	n/a	n/a	n/a	n/a	n/a	n/a	n/a	green
122.4747	1.0	ITI	n/a	n/a	n/a	n/a	n/a	n/a	n/a	n/a
123.4746	0.4998	FIXCROSS	n/a	n/a	n/a	n/a	n/a	n/a	n/a	n/a
123.9744	0.7002	INK	32	Neutral	xxxxxxxxx	xxxxxxxxx	zielony	green	hit	n/a
124.6685	n/a	RESPONSE	n/a	n/a	n/a	n/a	n/a	n/a	n/a	green
124.6746	1.0	ITI	n/a	n/a	n/a	n/a	n/a	n/a	n/a	n/a
125.6746	0.5	FIXCROSS	n/a	n/a	n/a	n/a	n/a	n/a	n/a	n/a
126.1746	0.7167	INK	33	Neutral	xxxxxxxx	xxxxxxxx	żółty	yellow	hit	n/a
126.8748	n/a	RESPONSE	n/a	n/a	n/a	n/a	n/a	n/a	n/a	yellow
126.8913	1.0	ITI	n/a	n/a	n/a	n/a	n/a	n/a	n/a	n/a
127.8912	0.5	FIXCROSS	n/a	n/a	n/a	n/a	n/a	n/a	n/a	n/a
128.3912	0.6333	INK	34	Neutral	xxxxxxxx	xxxxxxxx	zielony	green	hit	n/a
129.0173	n/a	RESPONSE	n/a	n/a	n/a	n/a	n/a	n/a	n/a	green
129.0245	1.0	ITI	n/a	n/a	n/a	n/a	n/a	n/a	n/a	n/a
130.0245	0.5	FIXCROSS	n/a	n/a	n/a	n/a	n/a	n/a	n/a	n/a
130.5245	0.7167	INK	35	Neutral	xxxxxxx	xxxxxxx	żółty	yellow	hit	n/a
131.2239	n/a	RESPONSE	n/a	n/a	n/a	n/a	n/a	n/a	n/a	yellow
131.2412	1.0	ITI	n/a	n/a	n/a	n/a	n/a	n/a	n/a	n/a
132.2412	0.5	FIXCROSS	n/a	n/a	n/a	n/a	n/a	n/a	n/a	n/a
132.7412	0.6	INK	36	Neutral	xxxxx	xxxxx	niebieski	blue	hit	n/a
133.3345	n/a	RESPONSE	n/a	n/a	n/a	n/a	n/a	n/a	n/a	blue
133.3411	1.0	ITI	n/a	n/a	n/a	n/a	n/a	n/a	n/a	n/a
134.3411	0.5	FIXCROSS	n/a	n/a	n/a	n/a	n/a	n/a	n/a	n/a
134.8411	0.6	INK	37	Neutral	xxxxx	xxxxx	zielony	green	hit	n/a
135.4291	n/a	RESPONSE	n/a	n/a	n/a	n/a	n/a	n/a	n/a	green
135.4411	1.0	ITI	n/a	n/a	n/a	n/a	n/a	n/a	n/a	n/a
136.4411	0.5	FIXCROSS	n/a	n/a	n/a	n/a	n/a	n/a	n/a	n/a
136.9411	0.7166	INK	38	Incongruent	czerwony	red	niebieski	blue	hit	n/a
137.6516	n/a	RESPONSE	n/a	n/a	n/a	n/a	n/a	n/a	n/a	blue
137.6577	1.0	ITI	n/a	n/a	n/a	n/a	n/a	n/a	n/a	n/a
138.6577	0.5	FIXCROSS	n/a	n/a	n/a	n/a	n/a	n/a	n/a	n/a
139.1577	0.7167	INK	39	Incongruent	żółty	yellow	niebieski	blue	hit	n/a
139.8581	n/a	RESPONSE	n/a	n/a	n/a	n/a	n/a	n/a	n/a	blue
139.8744	1.0	ITI	n/a	n/a	n/a	n/a	n/a	n/a	n/a	n/a
140.8743	0.5	FIXCROSS	n/a	n/a	n/a	n/a	n/a	n/a	n/a	n/a
141.3743	0.7	INK	40	Neutral	xxxxxxxxx	xxxxxxxxx	zielony	green	hit	n/a
142.0647	n/a	RESPONSE	n/a	n/a	n/a	n/a	n/a	n/a	n/a	green
142.0743	1.0	ITI	n/a	n/a	n/a	n/a	n/a	n/a	n/a	n/a
143.0743	0.5	FIXCROSS	n/a	n/a	n/a	n/a	n/a	n/a	n/a	n/a
143.5743	0.8	INK	41	Incongruent	czerwony	red	zielony	green	hit	n/a
144.3671	n/a	RESPONSE	n/a	n/a	n/a	n/a	n/a	n/a	n/a	green
144.3743	1.0	ITI	n/a	n/a	n/a	n/a	n/a	n/a	n/a	n/a
145.3743	0.5	FIXCROSS	n/a	n/a	n/a	n/a	n/a	n/a	n/a	n/a
145.8743	0.7667	INK	42	Neutral	xxxxx	xxxxx	czerwony	red	hit	n/a
146.6215	n/a	RESPONSE	n/a	n/a	n/a	n/a	n/a	n/a	n/a	red
146.6409	1.0	ITI	n/a	n/a	n/a	n/a	n/a	n/a	n/a	n/a
147.6409	0.5	FIXCROSS	n/a	n/a	n/a	n/a	n/a	n/a	n/a	n/a
148.1409	0.6167	INK	43	Incongruent	żółty	yellow	niebieski	blue	hit	n/a
148.7482	n/a	RESPONSE	n/a	n/a	n/a	n/a	n/a	n/a	n/a	blue
148.7575	1.0	ITI	n/a	n/a	n/a	n/a	n/a	n/a	n/a	n/a
149.7575	0.5	FIXCROSS	n/a	n/a	n/a	n/a	n/a	n/a	n/a	n/a
150.2575	0.6667	INK	44	Incongruent	niebieski	blue	czerwony	red	hit	n/a
150.9068	n/a	RESPONSE	n/a	n/a	n/a	n/a	n/a	n/a	n/a	red
150.9242	1.0	ITI	n/a	n/a	n/a	n/a	n/a	n/a	n/a	n/a
151.9242	0.5	FIXCROSS	n/a	n/a	n/a	n/a	n/a	n/a	n/a	n/a
152.4241	0.5667	INK	45	Neutral	xxxxxxx	xxxxxxx	czerwony	red	hit	n/a
152.9854	n/a	RESPONSE	n/a	n/a	n/a	n/a	n/a	n/a	n/a	red
152.9908	1.0	ITI	n/a	n/a	n/a	n/a	n/a	n/a	n/a	n/a
153.9908	0.5	FIXCROSS	n/a	n/a	n/a	n/a	n/a	n/a	n/a	n/a
154.4908	0.7167	INK	46	Neutral	xxxxxxxx	xxxxxxxx	niebieski	blue	hit	n/a
155.1919	n/a	RESPONSE	n/a	n/a	n/a	n/a	n/a	n/a	n/a	blue
155.2074	1.0	ITI	n/a	n/a	n/a	n/a	n/a	n/a	n/a	n/a
156.2074	0.5	FIXCROSS	n/a	n/a	n/a	n/a	n/a	n/a	n/a	n/a
156.7074	0.75	INK	47	Incongruent	czerwony	red	żółty	yellow	hit	n/a
157.4465	n/a	RESPONSE	n/a	n/a	n/a	n/a	n/a	n/a	n/a	yellow
157.4574	1.0	ITI	n/a	n/a	n/a	n/a	n/a	n/a	n/a	n/a
158.4574	0.5	FIXCROSS	n/a	n/a	n/a	n/a	n/a	n/a	n/a	n/a
158.9574	0.6667	INK	48	Incongruent	czerwony	red	zielony	green	hit	n/a
159.6048	n/a	RESPONSE	n/a	n/a	n/a	n/a	n/a	n/a	n/a	green
159.624	1.0	ITI	n/a	n/a	n/a	n/a	n/a	n/a	n/a	n/a
160.624	0.5	FIXCROSS	n/a	n/a	n/a	n/a	n/a	n/a	n/a	n/a
161.124	0.6667	INK	49	Neutral	xxxxxxxx	xxxxxxxx	niebieski	blue	hit	n/a
161.7795	n/a	RESPONSE	n/a	n/a	n/a	n/a	n/a	n/a	n/a	blue
161.7906	1.0	ITI	n/a	n/a	n/a	n/a	n/a	n/a	n/a	n/a
162.7906	0.5	FIXCROSS	n/a	n/a	n/a	n/a	n/a	n/a	n/a	n/a
163.2906	0.6667	INK	50	Incongruent	zielony	green	niebieski	blue	hit	n/a
163.954	n/a	RESPONSE	n/a	n/a	n/a	n/a	n/a	n/a	n/a	blue
163.9573	1.0	ITI	n/a	n/a	n/a	n/a	n/a	n/a	n/a	n/a
164.9572	0.5	FIXCROSS	n/a	n/a	n/a	n/a	n/a	n/a	n/a	n/a
165.4572	0.7	INK	51	Incongruent	zielony	green	niebieski	blue	hit	n/a
166.1445	n/a	RESPONSE	n/a	n/a	n/a	n/a	n/a	n/a	n/a	blue
166.1572	1.0	ITI	n/a	n/a	n/a	n/a	n/a	n/a	n/a	n/a
167.1572	0.5	FIXCROSS	n/a	n/a	n/a	n/a	n/a	n/a	n/a	n/a
167.6572	0.7333	INK	52	Incongruent	żółty	yellow	czerwony	red	hit	n/a
168.383	n/a	RESPONSE	n/a	n/a	n/a	n/a	n/a	n/a	n/a	red
168.3905	1.0	ITI	n/a	n/a	n/a	n/a	n/a	n/a	n/a	n/a
169.3905	0.5	FIXCROSS	n/a	n/a	n/a	n/a	n/a	n/a	n/a	n/a
169.8905	0.65	INK	53	Neutral	xxxxxxxx	xxxxxxxx	zielony	green	hit	n/a
170.5256	n/a	RESPONSE	n/a	n/a	n/a	n/a	n/a	n/a	n/a	green
170.5405	1.0	ITI	n/a	n/a	n/a	n/a	n/a	n/a	n/a	n/a
171.5405	0.5	FIXCROSS	n/a	n/a	n/a	n/a	n/a	n/a	n/a	n/a
172.0405	0.7166	INK	54	Incongruent	niebieski	blue	zielony	green	hit	n/a
172.7482	n/a	RESPONSE	n/a	n/a	n/a	n/a	n/a	n/a	n/a	green
172.7571	1.0	ITI	n/a	n/a	n/a	n/a	n/a	n/a	n/a	n/a
173.7571	0.5	FIXCROSS	n/a	n/a	n/a	n/a	n/a	n/a	n/a	n/a
174.2571	0.75	INK	55	Incongruent	zielony	green	czerwony	red	hit	n/a
175.0027	n/a	RESPONSE	n/a	n/a	n/a	n/a	n/a	n/a	n/a	red
175.0071	1.0	ITI	n/a	n/a	n/a	n/a	n/a	n/a	n/a	n/a
176.007	0.5	FIXCROSS	n/a	n/a	n/a	n/a	n/a	n/a	n/a	n/a
176.507	0.6	INK	56	Neutral	xxxxxxxxx	xxxxxxxxx	czerwony	red	hit	n/a
177.0971	n/a	RESPONSE	n/a	n/a	n/a	n/a	n/a	n/a	n/a	red
177.107	1.0	ITI	n/a	n/a	n/a	n/a	n/a	n/a	n/a	n/a
178.107	0.5	FIXCROSS	n/a	n/a	n/a	n/a	n/a	n/a	n/a	n/a
178.607	0.7	INK	57	Neutral	xxxxxxxxx	xxxxxxxxx	żółty	yellow	hit	n/a
179.3037	n/a	RESPONSE	n/a	n/a	n/a	n/a	n/a	n/a	n/a	yellow
179.307	1.0	ITI	n/a	n/a	n/a	n/a	n/a	n/a	n/a	n/a
180.307	0.5	FIXCROSS	n/a	n/a	n/a	n/a	n/a	n/a	n/a	n/a
180.807	0.8167	INK	58	Neutral	xxxxxxx	xxxxxxx	niebieski	blue	hit	n/a
181.6061	n/a	RESPONSE	n/a	n/a	n/a	n/a	n/a	n/a	n/a	blue
181.6236	1.0	ITI	n/a	n/a	n/a	n/a	n/a	n/a	n/a	n/a
182.6236	0.5	FIXCROSS	n/a	n/a	n/a	n/a	n/a	n/a	n/a	n/a
183.1236	0.6166	INK	59	Neutral	xxxxx	xxxxx	niebieski	blue	hit	n/a
183.7327	n/a	RESPONSE	n/a	n/a	n/a	n/a	n/a	n/a	n/a	blue
183.7402	1.0	ITI	n/a	n/a	n/a	n/a	n/a	n/a	n/a	n/a
184.7402	0.5	FIXCROSS	n/a	n/a	n/a	n/a	n/a	n/a	n/a	n/a
185.2402	0.6333	INK	60	Incongruent	czerwony	red	zielony	green	hit	n/a
185.8593	n/a	RESPONSE	n/a	n/a	n/a	n/a	n/a	n/a	n/a	green
185.8735	1.0	ITI	n/a	n/a	n/a	n/a	n/a	n/a	n/a	n/a
186.8735	0.5	FIXCROSS	n/a	n/a	n/a	n/a	n/a	n/a	n/a	n/a
187.3735	0.5833	INK	61	Neutral	xxxxxxxx	xxxxxxxx	niebieski	blue	hit	n/a
187.9538	n/a	RESPONSE	n/a	n/a	n/a	n/a	n/a	n/a	n/a	blue
187.9568	1.0	ITI	n/a	n/a	n/a	n/a	n/a	n/a	n/a	n/a
188.9568	0.5	FIXCROSS	n/a	n/a	n/a	n/a	n/a	n/a	n/a	n/a
189.4568	0.6333	INK	62	Incongruent	czerwony	red	niebieski	blue	hit	n/a
190.0804	n/a	RESPONSE	n/a	n/a	n/a	n/a	n/a	n/a	n/a	blue
190.0901	1.0	ITI	n/a	n/a	n/a	n/a	n/a	n/a	n/a	n/a
191.0901	0.5	FIXCROSS	n/a	n/a	n/a	n/a	n/a	n/a	n/a	n/a
191.5901	0.6667	INK	63	Incongruent	czerwony	red	niebieski	blue	hit	n/a
192.2389	n/a	RESPONSE	n/a	n/a	n/a	n/a	n/a	n/a	n/a	blue
192.2568	1.0	ITI	n/a	n/a	n/a	n/a	n/a	n/a	n/a	n/a
193.2567	0.5	FIXCROSS	n/a	n/a	n/a	n/a	n/a	n/a	n/a	n/a
193.7567	0.75	INK	64	Incongruent	czerwony	red	żółty	yellow	hit	n/a
194.4934	n/a	RESPONSE	n/a	n/a	n/a	n/a	n/a	n/a	n/a	yellow
194.5067	1.0	ITI	n/a	n/a	n/a	n/a	n/a	n/a	n/a	n/a
195.5067	0.5	FIXCROSS	n/a	n/a	n/a	n/a	n/a	n/a	n/a	n/a
196.0067	0.6	INK	65	Incongruent	niebieski	blue	żółty	yellow	hit	n/a
196.588	n/a	RESPONSE	n/a	n/a	n/a	n/a	n/a	n/a	n/a	yellow
196.6067	1.0	ITI	n/a	n/a	n/a	n/a	n/a	n/a	n/a	n/a
197.6067	0.5	FIXCROSS	n/a	n/a	n/a	n/a	n/a	n/a	n/a	n/a
198.1066	0.85	INK	66	Incongruent	żółty	yellow	zielony	green	hit	n/a
198.9385	n/a	RESPONSE	n/a	n/a	n/a	n/a	n/a	n/a	n/a	green
198.9566	1.0	ITI	n/a	n/a	n/a	n/a	n/a	n/a	n/a	n/a
199.9566	0.5	FIXCROSS	n/a	n/a	n/a	n/a	n/a	n/a	n/a	n/a
200.4566	0.8833	INK	67	Incongruent	niebieski	blue	zielony	green	hit	n/a
201.3208	n/a	RESPONSE	n/a	n/a	n/a	n/a	n/a	n/a	n/a	green
201.3399	1.0	ITI	n/a	n/a	n/a	n/a	n/a	n/a	n/a	n/a
202.3399	0.5	FIXCROSS	n/a	n/a	n/a	n/a	n/a	n/a	n/a	n/a
202.8399	0.7167	INK	68	Neutral	xxxxxxx	xxxxxxx	żółty	yellow	hit	n/a
203.5433	n/a	RESPONSE	n/a	n/a	n/a	n/a	n/a	n/a	n/a	yellow
203.5566	1.0	ITI	n/a	n/a	n/a	n/a	n/a	n/a	n/a	n/a
204.5565	0.5	FIXCROSS	n/a	n/a	n/a	n/a	n/a	n/a	n/a	n/a
205.0565	0.6833	INK	69	Neutral	xxxxxxxxx	xxxxxxxxx	żółty	yellow	hit	n/a
205.734	n/a	RESPONSE	n/a	n/a	n/a	n/a	n/a	n/a	n/a	yellow
205.7398	1.0	ITI	n/a	n/a	n/a	n/a	n/a	n/a	n/a	n/a
206.7398	0.5	FIXCROSS	n/a	n/a	n/a	n/a	n/a	n/a	n/a	n/a
207.2398	0.7166	INK	70	Incongruent	niebieski	blue	żółty	yellow	hit	n/a
207.9404	n/a	RESPONSE	n/a	n/a	n/a	n/a	n/a	n/a	n/a	yellow
207.9565	1.0	ITI	n/a	n/a	n/a	n/a	n/a	n/a	n/a	n/a
208.9565	0.5	FIXCROSS	n/a	n/a	n/a	n/a	n/a	n/a	n/a	n/a
209.4564	0.8333	INK	71	Neutral	xxxxxxx	xxxxxxx	czerwony	red	hit	n/a
210.2748	n/a	RESPONSE	n/a	n/a	n/a	n/a	n/a	n/a	n/a	red
210.2898	1.0	ITI	n/a	n/a	n/a	n/a	n/a	n/a	n/a	n/a
211.2897	0.5	FIXCROSS	n/a	n/a	n/a	n/a	n/a	n/a	n/a	n/a
211.7897	0.75	INK	72	Incongruent	zielony	green	żółty	yellow	hit	n/a
212.5293	n/a	RESPONSE	n/a	n/a	n/a	n/a	n/a	n/a	n/a	yellow
212.5397	1.0333	ITI	n/a	n/a	n/a	n/a	n/a	n/a	n/a	n/a
222.3788	n/a	RESPONSE	n/a	n/a	n/a	n/a	n/a	n/a	n/a	n/a
222.4062	1.0	ITI	n/a	n/a	n/a	n/a	n/a	n/a	n/a	n/a
223.4062	0.5	FIXCROSS	n/a	n/a	n/a	n/a	n/a	n/a	n/a	n/a
223.9062	2.0666	T_COLOR_NAME	1	Incongruent	czerwony	red	zielony	green	hit	n/a
225.9602	n/a	RESPONSE	n/a	n/a	n/a	n/a	n/a	n/a	n/a	red
225.9728	0.5	FEEDBACK	n/a	n/a	n/a	n/a	n/a	n/a	n/a	n/a
226.4728	1.0	ITI	n/a	n/a	n/a	n/a	n/a	n/a	n/a	n/a
227.4728	0.5	FIXCROSS	n/a	n/a	n/a	n/a	n/a	n/a	n/a	n/a
227.9728	0.8667	T_COLOR_NAME	2	Incongruent	czerwony	red	niebieski	blue	hit	n/a
228.8218	n/a	RESPONSE	n/a	n/a	n/a	n/a	n/a	n/a	n/a	red
228.8394	0.5	FEEDBACK	n/a	n/a	n/a	n/a	n/a	n/a	n/a	n/a
229.3394	1.0	ITI	n/a	n/a	n/a	n/a	n/a	n/a	n/a	n/a
230.3394	0.5	FIXCROSS	n/a	n/a	n/a	n/a	n/a	n/a	n/a	n/a
230.8394	0.95	T_COLOR_NAME	3	Neutral	niebieski	blue	Neutral	Neutral	hit	n/a
231.7798	n/a	RESPONSE	n/a	n/a	n/a	n/a	n/a	n/a	n/a	blue
231.7894	0.5	FEEDBACK	n/a	n/a	n/a	n/a	n/a	n/a	n/a	n/a
232.2894	1.0	ITI	n/a	n/a	n/a	n/a	n/a	n/a	n/a	n/a
233.2894	0.5	FIXCROSS	n/a	n/a	n/a	n/a	n/a	n/a	n/a	n/a
233.7893	1.1333	T_COLOR_NAME	4	Incongruent	żółty	yellow	czerwony	red	hit	n/a
234.9136	n/a	RESPONSE	n/a	n/a	n/a	n/a	n/a	n/a	n/a	yellow
234.9227	0.5	FEEDBACK	n/a	n/a	n/a	n/a	n/a	n/a	n/a	n/a
235.4227	1.0	ITI	n/a	n/a	n/a	n/a	n/a	n/a	n/a	n/a
236.4226	0.5	FIXCROSS	n/a	n/a	n/a	n/a	n/a	n/a	n/a	n/a
236.9226	0.9333	T_COLOR_NAME	5	Neutral	żółty	yellow	Neutral	Neutral	hit	n/a
237.8398	n/a	RESPONSE	n/a	n/a	n/a	n/a	n/a	n/a	n/a	yellow
237.8559	0.5	FEEDBACK	n/a	n/a	n/a	n/a	n/a	n/a	n/a	n/a
238.3559	1.0	ITI	n/a	n/a	n/a	n/a	n/a	n/a	n/a	n/a
239.3559	0.5	FIXCROSS	n/a	n/a	n/a	n/a	n/a	n/a	n/a	n/a
239.8559	0.8833	T_COLOR_NAME	6	Neutral	zielony	green	Neutral	Neutral	hit	n/a
240.7337	n/a	RESPONSE	n/a	n/a	n/a	n/a	n/a	n/a	n/a	green
240.7392	0.5	FEEDBACK	n/a	n/a	n/a	n/a	n/a	n/a	n/a	n/a
241.2392	1.0	ITI	n/a	n/a	n/a	n/a	n/a	n/a	n/a	n/a
242.2392	0.5	FIXCROSS	n/a	n/a	n/a	n/a	n/a	n/a	n/a	n/a
242.7392	1.0833	T_COLOR_NAME	7	Neutral	niebieski	blue	Neutral	Neutral	hit	n/a
243.8037	n/a	RESPONSE	n/a	n/a	n/a	n/a	n/a	n/a	n/a	blue
243.8225	0.5	FEEDBACK	n/a	n/a	n/a	n/a	n/a	n/a	n/a	n/a
244.3225	1.0	ITI	n/a	n/a	n/a	n/a	n/a	n/a	n/a	n/a
245.3225	0.5	FIXCROSS	n/a	n/a	n/a	n/a	n/a	n/a	n/a	n/a
245.8225	1.15	T_COLOR_NAME	8	Incongruent	niebieski	blue	zielony	green	hit	n/a
246.9536	n/a	RESPONSE	n/a	n/a	n/a	n/a	n/a	n/a	n/a	blue
246.9724	0.5	FEEDBACK	n/a	n/a	n/a	n/a	n/a	n/a	n/a	n/a
247.4724	1.0	ITI	n/a	n/a	n/a	n/a	n/a	n/a	n/a	n/a
248.4724	0.5	FIXCROSS	n/a	n/a	n/a	n/a	n/a	n/a	n/a	n/a
248.9724	0.9167	T_COLOR_NAME	9	Neutral	zielony	green	Neutral	Neutral	hit	n/a
249.8797	n/a	RESPONSE	n/a	n/a	n/a	n/a	n/a	n/a	n/a	green
249.8891	0.5	FEEDBACK	n/a	n/a	n/a	n/a	n/a	n/a	n/a	n/a
250.389	1.0	ITI	n/a	n/a	n/a	n/a	n/a	n/a	n/a	n/a
251.389	0.5	FIXCROSS	n/a	n/a	n/a	n/a	n/a	n/a	n/a	n/a
251.889	0.8667	T_COLOR_NAME	10	Neutral	czerwony	red	Neutral	Neutral	hit	n/a
252.7417	n/a	RESPONSE	n/a	n/a	n/a	n/a	n/a	n/a	n/a	red
252.7557	0.5	FEEDBACK	n/a	n/a	n/a	n/a	n/a	n/a	n/a	n/a
253.2557	1.0	ITI	n/a	n/a	n/a	n/a	n/a	n/a	n/a	n/a
254.2556	0.5	FIXCROSS	n/a	n/a	n/a	n/a	n/a	n/a	n/a	n/a
254.7556	1.4833	T_COLOR_NAME	11	Incongruent	niebieski	blue	czerwony	red	hit	n/a
256.2273	n/a	RESPONSE	n/a	n/a	n/a	n/a	n/a	n/a	n/a	blue
256.2389	0.5	FEEDBACK	n/a	n/a	n/a	n/a	n/a	n/a	n/a	n/a
256.7389	1.0	ITI	n/a	n/a	n/a	n/a	n/a	n/a	n/a	n/a
257.7389	0.5	FIXCROSS	n/a	n/a	n/a	n/a	n/a	n/a	n/a	n/a
258.2389	1.1833	T_COLOR_NAME	12	Neutral	czerwony	red	Neutral	Neutral	hit	n/a
259.4091	n/a	RESPONSE	n/a	n/a	n/a	n/a	n/a	n/a	n/a	red
259.4222	0.5	FEEDBACK	n/a	n/a	n/a	n/a	n/a	n/a	n/a	n/a
259.9222	1.0	ITI	n/a	n/a	n/a	n/a	n/a	n/a	n/a	n/a
265.9329	n/a	RESPONSE	n/a	n/a	n/a	n/a	n/a	n/a	n/a	n/a
265.9554	1.0	ITI	n/a	n/a	n/a	n/a	n/a	n/a	n/a	n/a
266.9554	0.5	FIXCROSS	n/a	n/a	n/a	n/a	n/a	n/a	n/a	n/a
267.4554	1.7333	COLOR_NAME	1	Incongruent	niebieski	blue	czerwony	red	hit	n/a
269.1785	n/a	RESPONSE	n/a	n/a	n/a	n/a	n/a	n/a	n/a	blue
269.1887	1.0	ITI	n/a	n/a	n/a	n/a	n/a	n/a	n/a	n/a
270.1887	0.5	FIXCROSS	n/a	n/a	n/a	n/a	n/a	n/a	n/a	n/a
270.6887	0.9833	COLOR_NAME	2	Incongruent	żółty	yellow	czerwony	red	hit	n/a
271.6569	n/a	RESPONSE	n/a	n/a	n/a	n/a	n/a	n/a	n/a	yellow
271.672	1.0	ITI	n/a	n/a	n/a	n/a	n/a	n/a	n/a	n/a
272.672	0.5	FIXCROSS	n/a	n/a	n/a	n/a	n/a	n/a	n/a	n/a
273.172	1.05	COLOR_NAME	3	Incongruent	niebieski	blue	zielony	green	hit	n/a
274.2153	n/a	RESPONSE	n/a	n/a	n/a	n/a	n/a	n/a	n/a	blue
274.222	1.0	ITI	n/a	n/a	n/a	n/a	n/a	n/a	n/a	n/a
275.2219	0.5	FIXCROSS	n/a	n/a	n/a	n/a	n/a	n/a	n/a	n/a
275.7219	0.8833	COLOR_NAME	4	Neutral	zielony	green	Neutral	Neutral	hit	n/a
276.5976	n/a	RESPONSE	n/a	n/a	n/a	n/a	n/a	n/a	n/a	green
276.6052	1.0	ITI	n/a	n/a	n/a	n/a	n/a	n/a	n/a	n/a
277.6052	0.5	FIXCROSS	n/a	n/a	n/a	n/a	n/a	n/a	n/a	n/a
278.1052	0.9	COLOR_NAME	5	Neutral	czerwony	red	Neutral	Neutral	hit	n/a
278.996	n/a	RESPONSE	n/a	n/a	n/a	n/a	n/a	n/a	n/a	red
279.0052	1.0	ITI	n/a	n/a	n/a	n/a	n/a	n/a	n/a	n/a
280.0052	0.5	FIXCROSS	n/a	n/a	n/a	n/a	n/a	n/a	n/a	n/a
280.5052	0.8667	COLOR_NAME	6	Neutral	niebieski	blue	Neutral	Neutral	hit	n/a
281.3625	n/a	RESPONSE	n/a	n/a	n/a	n/a	n/a	n/a	n/a	blue
281.3718	1.0	ITI	n/a	n/a	n/a	n/a	n/a	n/a	n/a	n/a
282.3718	0.5	FIXCROSS	n/a	n/a	n/a	n/a	n/a	n/a	n/a	n/a
282.8718	0.8667	COLOR_NAME	7	Incongruent	czerwony	red	zielony	green	hit	n/a
283.7289	n/a	RESPONSE	n/a	n/a	n/a	n/a	n/a	n/a	n/a	red
283.7384	1.0	ITI	n/a	n/a	n/a	n/a	n/a	n/a	n/a	n/a
284.7384	0.5	FIXCROSS	n/a	n/a	n/a	n/a	n/a	n/a	n/a	n/a
285.2384	0.7166	COLOR_NAME	8	Neutral	czerwony	red	Neutral	Neutral	hit	n/a
285.9514	n/a	RESPONSE	n/a	n/a	n/a	n/a	n/a	n/a	n/a	red
285.9551	1.0	ITI	n/a	n/a	n/a	n/a	n/a	n/a	n/a	n/a
286.9551	0.5	FIXCROSS	n/a	n/a	n/a	n/a	n/a	n/a	n/a	n/a
287.455	0.7833	COLOR_NAME	9	Neutral	niebieski	blue	Neutral	Neutral	hit	n/a
288.2218	n/a	RESPONSE	n/a	n/a	n/a	n/a	n/a	n/a	n/a	blue
288.2384	1.0	ITI	n/a	n/a	n/a	n/a	n/a	n/a	n/a	n/a
289.2384	0.5	FIXCROSS	n/a	n/a	n/a	n/a	n/a	n/a	n/a	n/a
289.7383	0.7667	COLOR_NAME	10	Incongruent	czerwony	red	niebieski	blue	hit	n/a
290.4924	n/a	RESPONSE	n/a	n/a	n/a	n/a	n/a	n/a	n/a	red
290.505	1.0	ITI	n/a	n/a	n/a	n/a	n/a	n/a	n/a	n/a
291.505	0.5	FIXCROSS	n/a	n/a	n/a	n/a	n/a	n/a	n/a	n/a
292.005	0.65	COLOR_NAME	11	Incongruent	czerwony	red	żółty	yellow	hit	n/a
292.6509	n/a	RESPONSE	n/a	n/a	n/a	n/a	n/a	n/a	n/a	red
292.655	1.0	ITI	n/a	n/a	n/a	n/a	n/a	n/a	n/a	n/a
293.6549	0.5	FIXCROSS	n/a	n/a	n/a	n/a	n/a	n/a	n/a	n/a
294.1549	0.6833	COLOR_NAME	12	Neutral	czerwony	red	Neutral	Neutral	hit	n/a
294.8253	n/a	RESPONSE	n/a	n/a	n/a	n/a	n/a	n/a	n/a	red
294.8383	1.0	ITI	n/a	n/a	n/a	n/a	n/a	n/a	n/a	n/a
295.8382	0.5	FIXCROSS	n/a	n/a	n/a	n/a	n/a	n/a	n/a	n/a
296.3382	0.75	COLOR_NAME	13	Neutral	niebieski	blue	Neutral	Neutral	hit	n/a
297.0799	n/a	RESPONSE	n/a	n/a	n/a	n/a	n/a	n/a	n/a	blue
297.0882	1.0	ITI	n/a	n/a	n/a	n/a	n/a	n/a	n/a	n/a
298.0882	0.5	FIXCROSS	n/a	n/a	n/a	n/a	n/a	n/a	n/a	n/a
298.5882	0.7167	COLOR_NAME	14	Neutral	niebieski	blue	Neutral	Neutral	hit	n/a
299.2864	n/a	RESPONSE	n/a	n/a	n/a	n/a	n/a	n/a	n/a	blue
299.3048	1.0	ITI	n/a	n/a	n/a	n/a	n/a	n/a	n/a	n/a
300.3048	0.5	FIXCROSS	n/a	n/a	n/a	n/a	n/a	n/a	n/a	n/a
300.8048	0.8833	COLOR_NAME	15	Neutral	żółty	yellow	Neutral	Neutral	hit	n/a
301.6849	n/a	RESPONSE	n/a	n/a	n/a	n/a	n/a	n/a	n/a	yellow
301.6881	1.0	ITI	n/a	n/a	n/a	n/a	n/a	n/a	n/a	n/a
302.6881	0.5	FIXCROSS	n/a	n/a	n/a	n/a	n/a	n/a	n/a	n/a
303.1881	0.8333	COLOR_NAME	16	Incongruent	żółty	yellow	zielony	green	hit	n/a
304.0034	n/a	RESPONSE	n/a	n/a	n/a	n/a	n/a	n/a	n/a	yellow
304.0214	1.0	ITI	n/a	n/a	n/a	n/a	n/a	n/a	n/a	n/a
305.0214	0.5	FIXCROSS	n/a	n/a	n/a	n/a	n/a	n/a	n/a	n/a
305.5214	0.8667	COLOR_NAME	17	Neutral	czerwony	red	Neutral	Neutral	hit	n/a
306.3697	n/a	RESPONSE	n/a	n/a	n/a	n/a	n/a	n/a	n/a	red
306.388	1.0	ITI	n/a	n/a	n/a	n/a	n/a	n/a	n/a	n/a
307.388	0.5	FIXCROSS	n/a	n/a	n/a	n/a	n/a	n/a	n/a	n/a
307.888	0.8833	COLOR_NAME	18	Neutral	zielony	green	Neutral	Neutral	hit	n/a
308.7681	n/a	RESPONSE	n/a	n/a	n/a	n/a	n/a	n/a	n/a	green
308.7713	1.0	ITI	n/a	n/a	n/a	n/a	n/a	n/a	n/a	n/a
309.7713	0.5	FIXCROSS	n/a	n/a	n/a	n/a	n/a	n/a	n/a	n/a
310.2713	0.8666	COLOR_NAME	19	Neutral	niebieski	blue	Neutral	Neutral	hit	n/a
311.1186	n/a	RESPONSE	n/a	n/a	n/a	n/a	n/a	n/a	n/a	blue
311.138	1.0	ITI	n/a	n/a	n/a	n/a	n/a	n/a	n/a	n/a
312.1379	0.5	FIXCROSS	n/a	n/a	n/a	n/a	n/a	n/a	n/a	n/a
312.6379	0.7667	COLOR_NAME	20	Neutral	czerwony	red	Neutral	Neutral	hit	n/a
313.389	n/a	RESPONSE	n/a	n/a	n/a	n/a	n/a	n/a	n/a	red
313.4046	1.0	ITI	n/a	n/a	n/a	n/a	n/a	n/a	n/a	n/a
314.4046	0.5	FIXCROSS	n/a	n/a	n/a	n/a	n/a	n/a	n/a	n/a
314.9046	0.8167	COLOR_NAME	21	Neutral	niebieski	blue	Neutral	Neutral	hit	n/a
315.7074	n/a	RESPONSE	n/a	n/a	n/a	n/a	n/a	n/a	n/a	blue
315.7212	1.0	ITI	n/a	n/a	n/a	n/a	n/a	n/a	n/a	n/a
316.7212	0.5	FIXCROSS	n/a	n/a	n/a	n/a	n/a	n/a	n/a	n/a
317.2212	0.9166	COLOR_NAME	22	Incongruent	czerwony	red	żółty	yellow	hit	n/a
318.1219	n/a	RESPONSE	n/a	n/a	n/a	n/a	n/a	n/a	n/a	red
318.1378	1.0	ITI	n/a	n/a	n/a	n/a	n/a	n/a	n/a	n/a
319.1378	0.5	FIXCROSS	n/a	n/a	n/a	n/a	n/a	n/a	n/a	n/a
319.6378	0.9333	COLOR_NAME	23	Neutral	żółty	yellow	Neutral	Neutral	hit	n/a
320.5682	n/a	RESPONSE	n/a	n/a	n/a	n/a	n/a	n/a	n/a	yellow
320.5711	1.0	ITI	n/a	n/a	n/a	n/a	n/a	n/a	n/a	n/a
321.5711	0.4999	FIXCROSS	n/a	n/a	n/a	n/a	n/a	n/a	n/a	n/a
322.0711	0.9	COLOR_NAME	24	Incongruent	zielony	green	czerwony	red	hit	n/a
322.9666	n/a	RESPONSE	n/a	n/a	n/a	n/a	n/a	n/a	n/a	green
322.9711	1.0	ITI	n/a	n/a	n/a	n/a	n/a	n/a	n/a	n/a
323.9711	0.5	FIXCROSS	n/a	n/a	n/a	n/a	n/a	n/a	n/a	n/a
324.471	0.7667	COLOR_NAME	25	Neutral	zielony	green	Neutral	Neutral	hit	n/a
325.2211	n/a	RESPONSE	n/a	n/a	n/a	n/a	n/a	n/a	n/a	green
325.2377	1.0	ITI	n/a	n/a	n/a	n/a	n/a	n/a	n/a	n/a
326.2377	0.5	FIXCROSS	n/a	n/a	n/a	n/a	n/a	n/a	n/a	n/a
326.7377	0.9833	COLOR_NAME	26	Incongruent	żółty	yellow	niebieski	blue	hit	n/a
327.7154	n/a	RESPONSE	n/a	n/a	n/a	n/a	n/a	n/a	n/a	yellow
327.721	1.0	ITI	n/a	n/a	n/a	n/a	n/a	n/a	n/a	n/a
328.721	0.5	FIXCROSS	n/a	n/a	n/a	n/a	n/a	n/a	n/a	n/a
329.221	0.8333	COLOR_NAME	27	Neutral	zielony	green	Neutral	Neutral	hit	n/a
330.0498	n/a	RESPONSE	n/a	n/a	n/a	n/a	n/a	n/a	n/a	green
330.0543	1.0	ITI	n/a	n/a	n/a	n/a	n/a	n/a	n/a	n/a
331.0543	0.5	FIXCROSS	n/a	n/a	n/a	n/a	n/a	n/a	n/a	n/a
331.5543	0.8667	COLOR_NAME	28	Incongruent	żółty	yellow	niebieski	blue	hit	n/a
332.4163	n/a	RESPONSE	n/a	n/a	n/a	n/a	n/a	n/a	n/a	yellow
332.4209	1.0	ITI	n/a	n/a	n/a	n/a	n/a	n/a	n/a	n/a
333.4209	0.5	FIXCROSS	n/a	n/a	n/a	n/a	n/a	n/a	n/a	n/a
333.9209	0.7167	COLOR_NAME	29	Neutral	żółty	yellow	Neutral	Neutral	hit	n/a
334.6228	n/a	RESPONSE	n/a	n/a	n/a	n/a	n/a	n/a	n/a	yellow
334.6375	1.0	ITI	n/a	n/a	n/a	n/a	n/a	n/a	n/a	n/a
335.6375	0.5	FIXCROSS	n/a	n/a	n/a	n/a	n/a	n/a	n/a	n/a
336.1375	0.8167	COLOR_NAME	30	Incongruent	czerwony	red	niebieski	blue	hit	n/a
336.9413	n/a	RESPONSE	n/a	n/a	n/a	n/a	n/a	n/a	n/a	red
336.9542	1.0	ITI	n/a	n/a	n/a	n/a	n/a	n/a	n/a	n/a
337.9541	0.5	FIXCROSS	n/a	n/a	n/a	n/a	n/a	n/a	n/a	n/a
338.4541	0.9166	COLOR_NAME	31	Incongruent	żółty	yellow	czerwony	red	hit	n/a
339.3557	n/a	RESPONSE	n/a	n/a	n/a	n/a	n/a	n/a	n/a	yellow
339.3708	1.0	ITI	n/a	n/a	n/a	n/a	n/a	n/a	n/a	n/a
340.3708	0.5	FIXCROSS	n/a	n/a	n/a	n/a	n/a	n/a	n/a	n/a
340.8708	0.7833	COLOR_NAME	32	Incongruent	zielony	green	żółty	yellow	hit	n/a
341.6421	n/a	RESPONSE	n/a	n/a	n/a	n/a	n/a	n/a	n/a	green
341.6541	1.0	ITI	n/a	n/a	n/a	n/a	n/a	n/a	n/a	n/a
342.6541	0.5	FIXCROSS	n/a	n/a	n/a	n/a	n/a	n/a	n/a	n/a
343.1541	0.8833	COLOR_NAME	33	Incongruent	niebieski	blue	żółty	yellow	hit	n/a
344.0245	n/a	RESPONSE	n/a	n/a	n/a	n/a	n/a	n/a	n/a	blue
344.0374	1.0	ITI	n/a	n/a	n/a	n/a	n/a	n/a	n/a	n/a
345.0374	0.5	FIXCROSS	n/a	n/a	n/a	n/a	n/a	n/a	n/a	n/a
345.5373	1.0	COLOR_NAME	34	Incongruent	żółty	yellow	zielony	green	hit	n/a
346.5189	n/a	RESPONSE	n/a	n/a	n/a	n/a	n/a	n/a	n/a	yellow
346.5373	1.0	ITI	n/a	n/a	n/a	n/a	n/a	n/a	n/a	n/a
347.5373	0.5	FIXCROSS	n/a	n/a	n/a	n/a	n/a	n/a	n/a	n/a
348.0373	1.05	COLOR_NAME	35	Incongruent	żółty	yellow	zielony	green	hit	n/a
349.0771	n/a	RESPONSE	n/a	n/a	n/a	n/a	n/a	n/a	n/a	yellow
349.0873	1.0	ITI	n/a	n/a	n/a	n/a	n/a	n/a	n/a	n/a
350.0873	0.5	FIXCROSS	n/a	n/a	n/a	n/a	n/a	n/a	n/a	n/a
350.5873	0.7167	COLOR_NAME	36	Neutral	żółty	yellow	Neutral	Neutral	hit	n/a
351.2995	n/a	RESPONSE	n/a	n/a	n/a	n/a	n/a	n/a	n/a	yellow
351.3039	1.0	ITI	n/a	n/a	n/a	n/a	n/a	n/a	n/a	n/a
352.3039	0.5	FIXCROSS	n/a	n/a	n/a	n/a	n/a	n/a	n/a	n/a
352.8039	0.7167	COLOR_NAME	37	Neutral	zielony	green	Neutral	Neutral	hit	n/a
353.5062	n/a	RESPONSE	n/a	n/a	n/a	n/a	n/a	n/a	n/a	green
353.5205	1.0	ITI	n/a	n/a	n/a	n/a	n/a	n/a	n/a	n/a
354.5205	0.5	FIXCROSS	n/a	n/a	n/a	n/a	n/a	n/a	n/a	n/a
355.0205	0.8	COLOR_NAME	38	Incongruent	niebieski	blue	zielony	green	hit	n/a
355.8085	n/a	RESPONSE	n/a	n/a	n/a	n/a	n/a	n/a	n/a	blue
355.8205	1.0	ITI	n/a	n/a	n/a	n/a	n/a	n/a	n/a	n/a
356.8205	0.5	FIXCROSS	n/a	n/a	n/a	n/a	n/a	n/a	n/a	n/a
357.3205	0.7667	COLOR_NAME	39	Neutral	żółty	yellow	Neutral	Neutral	hit	n/a
358.079	n/a	RESPONSE	n/a	n/a	n/a	n/a	n/a	n/a	n/a	yellow
358.0871	1.0	ITI	n/a	n/a	n/a	n/a	n/a	n/a	n/a	n/a
359.0871	0.5	FIXCROSS	n/a	n/a	n/a	n/a	n/a	n/a	n/a	n/a
359.5871	0.7833	COLOR_NAME	40	Neutral	zielony	green	Neutral	Neutral	hit	n/a
360.3655	n/a	RESPONSE	n/a	n/a	n/a	n/a	n/a	n/a	n/a	green
360.3704	1.0	ITI	n/a	n/a	n/a	n/a	n/a	n/a	n/a	n/a
361.3704	0.5	FIXCROSS	n/a	n/a	n/a	n/a	n/a	n/a	n/a	n/a
361.8704	0.85	COLOR_NAME	41	Incongruent	czerwony	red	niebieski	blue	hit	n/a
362.7159	n/a	RESPONSE	n/a	n/a	n/a	n/a	n/a	n/a	n/a	red
362.7204	1.0	ITI	n/a	n/a	n/a	n/a	n/a	n/a	n/a	n/a
363.7204	0.5	FIXCROSS	n/a	n/a	n/a	n/a	n/a	n/a	n/a	n/a
364.2203	0.95	COLOR_NAME	42	Incongruent	zielony	green	czerwony	red	hit	n/a
365.1622	n/a	RESPONSE	n/a	n/a	n/a	n/a	n/a	n/a	n/a	green
365.1703	1.0	ITI	n/a	n/a	n/a	n/a	n/a	n/a	n/a	n/a
366.1703	0.5	FIXCROSS	n/a	n/a	n/a	n/a	n/a	n/a	n/a	n/a
366.6703	0.8166	COLOR_NAME	43	Incongruent	zielony	green	żółty	yellow	hit	n/a
367.4807	n/a	RESPONSE	n/a	n/a	n/a	n/a	n/a	n/a	n/a	green
367.4869	1.0	ITI	n/a	n/a	n/a	n/a	n/a	n/a	n/a	n/a
368.4869	0.5	FIXCROSS	n/a	n/a	n/a	n/a	n/a	n/a	n/a	n/a
368.9869	0.7833	COLOR_NAME	44	Neutral	żółty	yellow	Neutral	Neutral	hit	n/a
369.7512	n/a	RESPONSE	n/a	n/a	n/a	n/a	n/a	n/a	n/a	yellow
369.7702	1.0	ITI	n/a	n/a	n/a	n/a	n/a	n/a	n/a	n/a
370.7702	0.5	FIXCROSS	n/a	n/a	n/a	n/a	n/a	n/a	n/a	n/a
371.2702	0.6833	COLOR_NAME	45	Incongruent	czerwony	red	żółty	yellow	hit	n/a
371.9417	n/a	RESPONSE	n/a	n/a	n/a	n/a	n/a	n/a	n/a	red
371.9535	1.0	ITI	n/a	n/a	n/a	n/a	n/a	n/a	n/a	n/a
372.9535	0.5	FIXCROSS	n/a	n/a	n/a	n/a	n/a	n/a	n/a	n/a
373.4535	0.5833	COLOR_NAME	46	Neutral	czerwony	red	Neutral	Neutral	hit	n/a
374.0203	n/a	RESPONSE	n/a	n/a	n/a	n/a	n/a	n/a	n/a	red
374.0368	1.0	ITI	n/a	n/a	n/a	n/a	n/a	n/a	n/a	n/a
375.0368	0.5	FIXCROSS	n/a	n/a	n/a	n/a	n/a	n/a	n/a	n/a
375.5368	1.0666	COLOR_NAME	47	Incongruent	zielony	green	czerwony	red	hit	n/a
376.5947	n/a	RESPONSE	n/a	n/a	n/a	n/a	n/a	n/a	n/a	green
376.6035	1.0	ITI	n/a	n/a	n/a	n/a	n/a	n/a	n/a	n/a
377.6034	0.5	FIXCROSS	n/a	n/a	n/a	n/a	n/a	n/a	n/a	n/a
378.1034	0.95	COLOR_NAME	48	Neutral	czerwony	red	Neutral	Neutral	hit	n/a
379.0409	n/a	RESPONSE	n/a	n/a	n/a	n/a	n/a	n/a	n/a	red
379.0534	1.0	ITI	n/a	n/a	n/a	n/a	n/a	n/a	n/a	n/a
380.0534	0.5	FIXCROSS	n/a	n/a	n/a	n/a	n/a	n/a	n/a	n/a
380.5534	0.8333	COLOR_NAME	49	Neutral	żółty	yellow	Neutral	Neutral	hit	n/a
381.3754	n/a	RESPONSE	n/a	n/a	n/a	n/a	n/a	n/a	n/a	yellow
381.3867	1.0	ITI	n/a	n/a	n/a	n/a	n/a	n/a	n/a	n/a
382.3867	0.5	FIXCROSS	n/a	n/a	n/a	n/a	n/a	n/a	n/a	n/a
382.8867	1.2666	COLOR_NAME	50	Incongruent	zielony	green	niebieski	blue	hit	n/a
384.1415	n/a	RESPONSE	n/a	n/a	n/a	n/a	n/a	n/a	n/a	green
384.1533	1.0	ITI	n/a	n/a	n/a	n/a	n/a	n/a	n/a	n/a
385.1533	0.5	FIXCROSS	n/a	n/a	n/a	n/a	n/a	n/a	n/a	n/a
385.6533	0.6	COLOR_NAME	51	Neutral	zielony	green	Neutral	Neutral	hit	n/a
386.2361	n/a	RESPONSE	n/a	n/a	n/a	n/a	n/a	n/a	n/a	green
386.2533	1.0	ITI	n/a	n/a	n/a	n/a	n/a	n/a	n/a	n/a
387.2533	0.5	FIXCROSS	n/a	n/a	n/a	n/a	n/a	n/a	n/a	n/a
387.7533	0.8167	COLOR_NAME	52	Incongruent	niebieski	blue	żółty	yellow	hit	n/a
388.5546	n/a	RESPONSE	n/a	n/a	n/a	n/a	n/a	n/a	n/a	blue
388.5699	1.0	ITI	n/a	n/a	n/a	n/a	n/a	n/a	n/a	n/a
389.5699	0.5	FIXCROSS	n/a	n/a	n/a	n/a	n/a	n/a	n/a	n/a
390.0699	1.0333	COLOR_NAME	53	Neutral	niebieski	blue	Neutral	Neutral	hit	n/a
391.0968	n/a	RESPONSE	n/a	n/a	n/a	n/a	n/a	n/a	n/a	blue
391.1032	1.0	ITI	n/a	n/a	n/a	n/a	n/a	n/a	n/a	n/a
392.1032	0.5	FIXCROSS	n/a	n/a	n/a	n/a	n/a	n/a	n/a	n/a
392.6032	0.6667	COLOR_NAME	54	Neutral	żółty	yellow	Neutral	Neutral	hit	n/a
393.2554	n/a	RESPONSE	n/a	n/a	n/a	n/a	n/a	n/a	n/a	yellow
393.2698	1.0	ITI	n/a	n/a	n/a	n/a	n/a	n/a	n/a	n/a
394.2698	0.5	FIXCROSS	n/a	n/a	n/a	n/a	n/a	n/a	n/a	n/a
394.7698	0.9833	COLOR_NAME	55	Incongruent	czerwony	red	zielony	green	hit	n/a
395.7338	n/a	RESPONSE	n/a	n/a	n/a	n/a	n/a	n/a	n/a	red
395.7531	1.0	ITI	n/a	n/a	n/a	n/a	n/a	n/a	n/a	n/a
396.7531	0.5	FIXCROSS	n/a	n/a	n/a	n/a	n/a	n/a	n/a	n/a
397.2531	0.75	COLOR_NAME	56	Neutral	niebieski	blue	Neutral	Neutral	hit	n/a
397.9881	n/a	RESPONSE	n/a	n/a	n/a	n/a	n/a	n/a	n/a	blue
398.0031	1.0	ITI	n/a	n/a	n/a	n/a	n/a	n/a	n/a	n/a
399.0031	0.5	FIXCROSS	n/a	n/a	n/a	n/a	n/a	n/a	n/a	n/a
399.503	0.8333	COLOR_NAME	57	Incongruent	żółty	yellow	niebieski	blue	hit	n/a
400.3227	n/a	RESPONSE	n/a	n/a	n/a	n/a	n/a	n/a	n/a	yellow
400.3364	1.0	ITI	n/a	n/a	n/a	n/a	n/a	n/a	n/a	n/a
401.3363	0.5	FIXCROSS	n/a	n/a	n/a	n/a	n/a	n/a	n/a	n/a
401.8363	0.8333	COLOR_NAME	58	Neutral	zielony	green	Neutral	Neutral	hit	n/a
402.6571	n/a	RESPONSE	n/a	n/a	n/a	n/a	n/a	n/a	n/a	green
402.6697	1.0	ITI	n/a	n/a	n/a	n/a	n/a	n/a	n/a	n/a
403.6696	0.5	FIXCROSS	n/a	n/a	n/a	n/a	n/a	n/a	n/a	n/a
404.1696	0.9333	COLOR_NAME	59	Neutral	żółty	yellow	Neutral	Neutral	hit	n/a
405.0875	n/a	RESPONSE	n/a	n/a	n/a	n/a	n/a	n/a	n/a	yellow
405.1029	1.0	ITI	n/a	n/a	n/a	n/a	n/a	n/a	n/a	n/a
406.1029	0.5	FIXCROSS	n/a	n/a	n/a	n/a	n/a	n/a	n/a	n/a
406.6029	2.4	COLOR_NAME	60	Incongruent	zielony	green	niebieski	blue	hit	n/a
408.9888	n/a	RESPONSE	n/a	n/a	n/a	n/a	n/a	n/a	n/a	green
409.0029	1.0	ITI	n/a	n/a	n/a	n/a	n/a	n/a	n/a	n/a
410.0029	0.5	FIXCROSS	n/a	n/a	n/a	n/a	n/a	n/a	n/a	n/a
410.5028	1.0	COLOR_NAME	61	Neutral	niebieski	blue	Neutral	Neutral	hit	n/a
411.4992	n/a	RESPONSE	n/a	n/a	n/a	n/a	n/a	n/a	n/a	blue
411.5028	1.0	ITI	n/a	n/a	n/a	n/a	n/a	n/a	n/a	n/a
412.5028	0.5	FIXCROSS	n/a	n/a	n/a	n/a	n/a	n/a	n/a	n/a
413.0028	0.9333	COLOR_NAME	62	Incongruent	zielony	green	niebieski	blue	hit	n/a
413.9296	n/a	RESPONSE	n/a	n/a	n/a	n/a	n/a	n/a	n/a	green
413.9361	1.0	ITI	n/a	n/a	n/a	n/a	n/a	n/a	n/a	n/a
414.9361	0.5	FIXCROSS	n/a	n/a	n/a	n/a	n/a	n/a	n/a	n/a
415.4361	1.0333	COLOR_NAME	63	Incongruent	zielony	green	żółty	yellow	hit	n/a
416.4558	n/a	RESPONSE	n/a	n/a	n/a	n/a	n/a	n/a	n/a	green
416.4694	1.0	ITI	n/a	n/a	n/a	n/a	n/a	n/a	n/a	n/a
417.4694	0.5	FIXCROSS	n/a	n/a	n/a	n/a	n/a	n/a	n/a	n/a
417.9694	0.9833	COLOR_NAME	64	Incongruent	czerwony	red	zielony	green	hit	n/a
418.9341	n/a	RESPONSE	n/a	n/a	n/a	n/a	n/a	n/a	n/a	red
418.9527	1.0	ITI	n/a	n/a	n/a	n/a	n/a	n/a	n/a	n/a
419.9527	0.5	FIXCROSS	n/a	n/a	n/a	n/a	n/a	n/a	n/a	n/a
420.4527	0.8	COLOR_NAME	65	Neutral	czerwony	red	Neutral	Neutral	hit	n/a
421.2366	n/a	RESPONSE	n/a	n/a	n/a	n/a	n/a	n/a	n/a	red
421.2526	1.0	ITI	n/a	n/a	n/a	n/a	n/a	n/a	n/a	n/a
422.2526	0.5	FIXCROSS	n/a	n/a	n/a	n/a	n/a	n/a	n/a	n/a
422.7526	0.9333	COLOR_NAME	66	Incongruent	niebieski	blue	zielony	green	hit	n/a
423.683	n/a	RESPONSE	n/a	n/a	n/a	n/a	n/a	n/a	n/a	blue
423.6859	1.0	ITI	n/a	n/a	n/a	n/a	n/a	n/a	n/a	n/a
424.6859	0.5	FIXCROSS	n/a	n/a	n/a	n/a	n/a	n/a	n/a	n/a
425.1859	1.1666	COLOR_NAME	67	Incongruent	niebieski	blue	czerwony	red	hit	n/a
426.3372	n/a	RESPONSE	n/a	n/a	n/a	n/a	n/a	n/a	n/a	blue
426.3526	1.0	ITI	n/a	n/a	n/a	n/a	n/a	n/a	n/a	n/a
427.3525	0.5	FIXCROSS	n/a	n/a	n/a	n/a	n/a	n/a	n/a	n/a
427.8525	0.8666	COLOR_NAME	68	Neutral	zielony	green	Neutral	Neutral	hit	n/a
428.7036	n/a	RESPONSE	n/a	n/a	n/a	n/a	n/a	n/a	n/a	green
428.7192	1.0	ITI	n/a	n/a	n/a	n/a	n/a	n/a	n/a	n/a
429.7192	0.5	FIXCROSS	n/a	n/a	n/a	n/a	n/a	n/a	n/a	n/a
430.2192	1.05	COLOR_NAME	69	Incongruent	niebieski	blue	żółty	yellow	hit	n/a
431.2618	n/a	RESPONSE	n/a	n/a	n/a	n/a	n/a	n/a	n/a	blue
431.2691	1.0	ITI	n/a	n/a	n/a	n/a	n/a	n/a	n/a	n/a
432.2691	0.5	FIXCROSS	n/a	n/a	n/a	n/a	n/a	n/a	n/a	n/a
432.7691	0.8833	COLOR_NAME	70	Neutral	czerwony	red	Neutral	Neutral	hit	n/a
433.6442	n/a	RESPONSE	n/a	n/a	n/a	n/a	n/a	n/a	n/a	red
433.6524	1.0	ITI	n/a	n/a	n/a	n/a	n/a	n/a	n/a	n/a
434.6524	0.5	FIXCROSS	n/a	n/a	n/a	n/a	n/a	n/a	n/a	n/a
435.1524	1.0166	COLOR_NAME	71	Incongruent	żółty	yellow	czerwony	red	hit	n/a
436.1546	n/a	RESPONSE	n/a	n/a	n/a	n/a	n/a	n/a	n/a	yellow
436.1691	1.0	ITI	n/a	n/a	n/a	n/a	n/a	n/a	n/a	n/a
437.169	0.5	FIXCROSS	n/a	n/a	n/a	n/a	n/a	n/a	n/a	n/a
437.669	1.2333	COLOR_NAME	72	Incongruent	niebieski	blue	czerwony	red	hit	n/a
438.8888	n/a	RESPONSE	n/a	n/a	n/a	n/a	n/a	n/a	n/a	blue
438.9023	1.0	ITI	n/a	n/a	n/a	n/a	n/a	n/a	n/a	n/a
446.2119	n/a	RESPONSE	n/a	n/a	n/a	n/a	n/a	n/a	n/a	n/a
