onset	duration	trial_type	melody_number	melody_part	key	sound	action
0.0	14.084	CUE_START	n/a	n/a	n/a	n/a	n/a
14.084	7.76	FIXCROSS	n/a	n/a	n/a	n/a	n/a
21.844	6.316	CUE_LISTEN	M4	1	n/a	n/a	n/a
28.16	7.758	FIXCROSS	n/a	n/a	n/a	n/a	n/a
35.918	6.325	CUE_PLAYBACK_BOTH_HANDS	M4	1	n/a	n/a	n/a
39.379	n/a	RESPONSE	M4	1	04	E3	press
39.382	n/a	RESPONSE	M4	1	07	G3	press
39.546	n/a	RESPONSE	M4	1	07	G3	release
39.634	n/a	RESPONSE	M4	1	07	G3	press
39.638	n/a	RESPONSE	M4	1	00	C3	press
39.657	n/a	RESPONSE	M4	1	12	C4	press
40.372	n/a	RESPONSE	M4	1	17	F4	press
40.679	n/a	RESPONSE	M4	1	12	C4	release
40.821	n/a	RESPONSE	M4	1	21	A4	press
40.932	n/a	RESPONSE	M4	1	17	F4	release
41.113	n/a	RESPONSE	M4	1	19	G4	press
41.354	n/a	RESPONSE	M4	1	17	F4	press
41.386	n/a	RESPONSE	M4	1	21	A4	release
41.459	n/a	RESPONSE	M4	1	16	E4	press
41.528	n/a	RESPONSE	M4	1	19	G4	release
41.56	n/a	RESPONSE	M4	1	17	F4	release
41.801	n/a	RESPONSE	M4	1	17	F4	press
41.902	n/a	RESPONSE	M4	1	16	E4	release
42.163	n/a	RESPONSE	M4	1	17	F4	release
42.174	n/a	RESPONSE	M4	1	07	G3	release
42.216	n/a	RESPONSE	M4	1	00	C3	release
42.227	n/a	RESPONSE	M4	1	04	E3	release
42.243	7.758	FIXCROSS	n/a	n/a	n/a	n/a	n/a
42.338	n/a	RESPONSE	M4	1	12	C4	press
42.341	n/a	RESPONSE	M4	1	07	G3	press
42.351	n/a	RESPONSE	M4	1	00	C3	press
42.353	n/a	RESPONSE	M4	1	04	E3	press
42.654	n/a	RESPONSE	M4	1	17	F4	press
42.974	n/a	RESPONSE	M4	1	12	C4	release
43.016	n/a	RESPONSE	M4	1	21	A4	press
43.167	n/a	RESPONSE	M4	1	17	F4	release
43.318	n/a	RESPONSE	M4	1	19	G4	press
43.611	n/a	RESPONSE	M4	1	17	F4	press
43.671	n/a	RESPONSE	M4	1	21	A4	release
43.844	n/a	RESPONSE	M4	1	16	E4	press
43.853	n/a	RESPONSE	M4	1	19	G4	release
43.944	n/a	RESPONSE	M4	1	17	F4	release
44.156	n/a	RESPONSE	M4	1	17	F4	press
44.277	n/a	RESPONSE	M4	1	16	E4	release
44.798	n/a	RESPONSE	M4	1	17	F4	release
44.859	n/a	RESPONSE	M4	1	04	E3	release
44.981	n/a	RESPONSE	M4	1	07	G3	release
45.293	n/a	RESPONSE	M4	1	00	C3	release
50.001	6.317	CUE_LISTEN	M4	2	n/a	n/a	n/a
56.318	7.758	FIXCROSS	n/a	n/a	n/a	n/a	n/a
64.076	6.316	CUE_PLAYBACK_BOTH_HANDS	M4	2	n/a	n/a	n/a
64.695	n/a	RESPONSE	M4	2	04	E3	press
64.697	n/a	RESPONSE	M4	2	07	G3	press
64.7	n/a	RESPONSE	M4	2	00	C3	press
64.718	n/a	RESPONSE	M4	2	12	C4	press
65.15	n/a	RESPONSE	M4	2	17	F4	press
65.651	n/a	RESPONSE	M4	2	19	G4	press
65.773	n/a	RESPONSE	M4	2	12	C4	release
65.863	n/a	RESPONSE	M4	2	17	F4	release
65.974	n/a	RESPONSE	M4	2	23	B4	press
65.977	n/a	RESPONSE	M4	2	21	A4	press
66.047	n/a	RESPONSE	M4	2	19	G4	release
66.298	n/a	RESPONSE	M4	2	21	A4	release
66.301	n/a	RESPONSE	M4	2	23	B4	release
66.651	n/a	RESPONSE	M4	2	21	A4	press
66.964	n/a	RESPONSE	M4	2	21	A4	release
67.087	n/a	RESPONSE	M4	2	23	B4	press
67.11	n/a	RESPONSE	M4	2	21	A4	press
67.238	n/a	RESPONSE	M4	2	21	A4	release
67.521	n/a	RESPONSE	M4	2	20	G#4	press
67.827	n/a	RESPONSE	M4	2	19	G4	press
67.883	n/a	RESPONSE	M4	2	23	B4	release
68.138	n/a	RESPONSE	M4	2	17	F4	press
68.152	n/a	RESPONSE	M4	2	20	G#4	release
68.271	n/a	RESPONSE	M4	2	19	G4	release
68.548	n/a	RESPONSE	M4	2	17	F4	release
68.558	n/a	RESPONSE	M4	2	04	E3	release
68.561	n/a	RESPONSE	M4	2	07	G3	release
68.636	n/a	RESPONSE	M4	2	00	C3	release
68.851	n/a	RESPONSE	M4	2	07	G3	press
68.857	n/a	RESPONSE	M4	2	12	C4	press
68.869	n/a	RESPONSE	M4	2	04	E3	press
69.273	n/a	RESPONSE	M4	2	16	E4	press
69.737	n/a	RESPONSE	M4	2	12	C4	release
69.842	n/a	RESPONSE	M4	2	17	F4	press
69.848	n/a	RESPONSE	M4	2	19	G4	press
70.011	n/a	RESPONSE	M4	2	19	G4	release
70.393	7.758	FIXCROSS	n/a	n/a	n/a	n/a	n/a
70.644	n/a	RESPONSE	M4	2	20	G#4	press
70.676	n/a	RESPONSE	M4	2	16	E4	release
70.757	n/a	RESPONSE	M4	2	17	F4	release
70.97	n/a	RESPONSE	M4	2	19	G4	press
71.26	n/a	RESPONSE	M4	2	17	F4	press
71.271	n/a	RESPONSE	M4	2	20	G#4	release
71.403	n/a	RESPONSE	M4	2	19	G4	release
71.436	n/a	RESPONSE	M4	2	07	G3	release
71.574	n/a	RESPONSE	M4	2	16	E4	press
71.577	n/a	RESPONSE	M4	2	04	E3	release
71.62	n/a	RESPONSE	M4	2	07	G3	press
71.858	n/a	RESPONSE	M4	2	17	F4	release
72.402	n/a	RESPONSE	M4	2	16	E4	release
73.731	n/a	RESPONSE	M4	2	07	G3	release
78.151	6.325	CUE_LISTEN	M1	1	n/a	n/a	n/a
81.236	n/a	RESPONSE	M1	1	12	C4	press
82.097	n/a	RESPONSE	M1	1	12	C4	release
84.476	7.758	FIXCROSS	n/a	n/a	n/a	n/a	n/a
92.235	6.317	CUE_PLAYBACK_RIGHT_HAND	M1	1	n/a	n/a	n/a
93.709	n/a	RESPONSE	M1	1	19	G4	press
94.161	n/a	RESPONSE	M1	1	16	E4	press
94.192	n/a	RESPONSE	M1	1	14	D4	press
94.393	n/a	RESPONSE	M1	1	14	D4	release
94.484	n/a	RESPONSE	M1	1	19	G4	release
94.487	n/a	RESPONSE	M1	1	16	E4	release
94.617	n/a	RESPONSE	M1	1	16	E4	press
95.069	n/a	RESPONSE	M1	1	17	F4	press
95.1	n/a	RESPONSE	M1	1	16	E4	release
95.521	n/a	RESPONSE	M1	1	14	D4	press
95.602	n/a	RESPONSE	M1	1	17	F4	release
95.786	n/a	RESPONSE	M1	1	14	D4	release
95.954	n/a	RESPONSE	M1	1	14	D4	press
96.436	n/a	RESPONSE	M1	1	12	C4	press
96.487	n/a	RESPONSE	M1	1	14	D4	release
96.658	n/a	RESPONSE	M1	1	16	E4	press
96.89	n/a	RESPONSE	M1	1	12	C4	release
96.983	n/a	RESPONSE	M1	1	19	G4	press
97.813	n/a	RESPONSE	M1	1	19	G4	release
97.843	n/a	RESPONSE	M1	1	16	E4	release
98.551	7.758	FIXCROSS	n/a	n/a	n/a	n/a	n/a
106.31	6.317	CUE_LISTEN	M1	2	n/a	n/a	n/a
112.626	7.758	FIXCROSS	n/a	n/a	n/a	n/a	n/a
120.385	6.333	CUE_PLAYBACK_RIGHT_HAND	M1	2	n/a	n/a	n/a
121.021	n/a	RESPONSE	M1	2	19	G4	press
121.502	n/a	RESPONSE	M1	2	16	E4	press
121.593	n/a	RESPONSE	M1	2	19	G4	release
121.814	n/a	RESPONSE	M1	2	16	E4	release
121.938	n/a	RESPONSE	M1	2	16	E4	press
122.417	n/a	RESPONSE	M1	2	17	F4	press
122.42	n/a	RESPONSE	M1	2	16	E4	release
122.9	n/a	RESPONSE	M1	2	14	D4	press
123.001	n/a	RESPONSE	M1	2	17	F4	release
123.162	n/a	RESPONSE	M1	2	14	D4	release
123.403	n/a	RESPONSE	M1	2	14	D4	press
123.884	n/a	RESPONSE	M1	2	14	D4	release
123.887	n/a	RESPONSE	M1	2	12	C4	press
124.14	n/a	RESPONSE	M1	2	16	E4	press
124.268	n/a	RESPONSE	M1	2	12	C4	release
124.38	n/a	RESPONSE	M1	2	12	C4	press
124.481	n/a	RESPONSE	M1	2	16	E4	release
125.102	n/a	RESPONSE	M1	2	12	C4	release
126.718	7.758	FIXCROSS	n/a	n/a	n/a	n/a	n/a
134.477	6.308	CUE_LISTEN	M5	1	n/a	n/a	n/a
140.785	7.758	FIXCROSS	n/a	n/a	n/a	n/a	n/a
144.638	n/a	RESPONSE	M5	1	21	A4	press
146.23	n/a	RESPONSE	M5	1	04	E3	press
146.308	n/a	RESPONSE	M5	1	21	A4	release
146.88	n/a	RESPONSE	M5	1	04	E3	release
148.543	6.317	CUE_PLAYBACK_BOTH_HANDS	M5	1	n/a	n/a	n/a
149.176	n/a	RESPONSE	M5	1	04	E3	press
149.196	n/a	RESPONSE	M5	1	21	A4	press
149.506	n/a	RESPONSE	M5	1	07	G3	press
149.616	n/a	RESPONSE	M5	1	04	E3	release
149.73	n/a	RESPONSE	M5	1	21	A4	release
149.946	n/a	RESPONSE	M5	1	07	G3	release
150.306	n/a	RESPONSE	M5	1	05	F3	press
150.626	n/a	RESPONSE	M5	1	07	G3	press
150.628	n/a	RESPONSE	M5	1	09	A3	press
150.908	n/a	RESPONSE	M5	1	07	G3	release
150.911	n/a	RESPONSE	M5	1	09	A3	release
151.061	n/a	RESPONSE	M5	1	09	A3	press
151.423	n/a	RESPONSE	M5	1	09	A3	release
151.534	n/a	RESPONSE	M5	1	05	F3	release
151.734	n/a	RESPONSE	M5	1	21	A4	press
151.746	n/a	RESPONSE	M5	1	05	F3	press
152.047	n/a	RESPONSE	M5	1	09	A3	press
152.278	n/a	RESPONSE	M5	1	05	F3	release
152.29	n/a	RESPONSE	M5	1	21	A4	release
152.341	n/a	RESPONSE	M5	1	09	A3	release
152.372	n/a	RESPONSE	M5	1	21	A4	press
152.393	n/a	RESPONSE	M5	1	05	F3	press
152.396	n/a	RESPONSE	M5	1	04	E3	press
152.716	n/a	RESPONSE	M5	1	05	F3	release
152.718	n/a	RESPONSE	M5	1	21	A4	release
152.77	n/a	RESPONSE	M5	1	09	A3	press
152.97	n/a	RESPONSE	M5	1	04	E3	release
153.101	n/a	RESPONSE	M5	1	21	A4	press
153.103	n/a	RESPONSE	M5	1	02	D3	press
153.183	n/a	RESPONSE	M5	1	09	A3	release
153.336	n/a	RESPONSE	M5	1	21	A4	release
153.397	n/a	RESPONSE	M5	1	09	A3	press
153.408	n/a	RESPONSE	M5	1	21	A4	press
153.418	n/a	RESPONSE	M5	1	02	D3	release
153.65	n/a	RESPONSE	M5	1	21	A4	release
153.711	n/a	RESPONSE	M5	1	00	C3	press
153.752	n/a	RESPONSE	M5	1	09	A3	release
153.756	n/a	RESPONSE	M5	1	21	A4	press
154.004	n/a	RESPONSE	M5	1	09	A3	press
154.107	n/a	RESPONSE	M5	1	00	C3	release
154.188	n/a	RESPONSE	M5	1	21	A4	release
154.318	n/a	RESPONSE	M5	1	21	A4	press
154.331	n/a	RESPONSE	M5	1	05	F3	press
154.391	n/a	RESPONSE	M5	1	09	A3	release
154.604	n/a	RESPONSE	M5	1	23	B4	press
154.686	n/a	RESPONSE	M5	1	09	A3	press
154.754	n/a	RESPONSE	M5	1	05	F3	release
154.798	n/a	RESPONSE	M5	1	21	A4	release
154.86	7.758	FIXCROSS	n/a	n/a	n/a	n/a	n/a
155.138	n/a	RESPONSE	M5	1	23	B4	release
155.248	n/a	RESPONSE	M5	1	09	A3	release
155.37	n/a	RESPONSE	M5	1	21	A4	press
155.421	n/a	RESPONSE	M5	1	05	F3	press
155.434	n/a	RESPONSE	M5	1	07	G3	press
155.686	n/a	RESPONSE	M5	1	07	G3	release
155.764	n/a	RESPONSE	M5	1	24	C5	press
155.837	n/a	RESPONSE	M5	1	09	A3	press
155.927	n/a	RESPONSE	M5	1	21	A4	release
155.958	n/a	RESPONSE	M5	1	05	F3	release
156.51	n/a	RESPONSE	M5	1	17	F4	press
156.521	n/a	RESPONSE	M5	1	04	E3	press
156.613	n/a	RESPONSE	M5	1	09	A3	release
156.666	n/a	RESPONSE	M5	1	24	C5	release
156.862	n/a	RESPONSE	M5	1	09	A3	press
156.871	n/a	RESPONSE	M5	1	19	G4	press
156.946	n/a	RESPONSE	M5	1	04	E3	release
157.202	n/a	RESPONSE	M5	1	02	D3	press
157.211	n/a	RESPONSE	M5	1	17	F4	release
157.223	n/a	RESPONSE	M5	1	21	A4	press
157.282	n/a	RESPONSE	M5	1	09	A3	release
157.322	n/a	RESPONSE	M5	1	19	G4	release
157.55	n/a	RESPONSE	M5	1	09	A3	press
157.617	n/a	RESPONSE	M5	1	02	D3	release
158.046	n/a	RESPONSE	M5	1	00	C3	press
158.097	n/a	RESPONSE	M5	1	02	D3	press
158.102	n/a	RESPONSE	M5	1	09	A3	release
158.308	n/a	RESPONSE	M5	1	02	D3	release
158.366	n/a	RESPONSE	M5	1	00	C3	release
158.566	n/a	RESPONSE	M5	1	09	A3	press
159.543	n/a	RESPONSE	M5	1	09	A3	release
159.576	n/a	RESPONSE	M5	1	21	A4	release
160.504	n/a	RESPONSE	M5	1	21	A4	press
160.847	n/a	RESPONSE	M5	1	21	A4	release
161.438	n/a	RESPONSE	M5	1	05	F3	press
161.988	n/a	RESPONSE	M5	1	05	F3	release
162.03	n/a	RESPONSE	M5	1	09	A3	press
162.618	6.325	CUE_LISTEN	M5	2	n/a	n/a	n/a
163.431	n/a	RESPONSE	M5	2	09	A3	release
168.943	7.758	FIXCROSS	n/a	n/a	n/a	n/a	n/a
170.678	n/a	RESPONSE	M5	2	10	A#3	press
170.987	n/a	RESPONSE	M5	2	10	A#3	release
172.118	n/a	RESPONSE	M5	2	07	G3	press
173.01	n/a	RESPONSE	M5	2	07	G3	release
176.702	6.317	CUE_PLAYBACK_BOTH_HANDS	M5	2	n/a	n/a	n/a
177.26	n/a	RESPONSE	M5	2	07	G3	press
177.267	n/a	RESPONSE	M5	2	22	A#4	press
177.516	n/a	RESPONSE	M5	2	22	A#4	release
177.54	n/a	RESPONSE	M5	2	10	A#3	press
177.594	n/a	RESPONSE	M5	2	22	A#4	press
177.69	n/a	RESPONSE	M5	2	07	G3	release
177.78	n/a	RESPONSE	M5	2	22	A#4	release
177.892	n/a	RESPONSE	M5	2	22	A#4	press
177.902	n/a	RESPONSE	M5	2	04	E3	press
177.936	n/a	RESPONSE	M5	2	10	A#3	release
178.1	n/a	RESPONSE	M5	2	22	A#4	release
178.152	n/a	RESPONSE	M5	2	10	A#3	press
178.194	n/a	RESPONSE	M5	2	22	A#4	press
178.204	n/a	RESPONSE	M5	2	04	E3	release
178.396	n/a	RESPONSE	M5	2	22	A#4	release
178.51	n/a	RESPONSE	M5	2	22	A#4	press
178.531	n/a	RESPONSE	M5	2	10	A#3	release
178.553	n/a	RESPONSE	M5	2	05	F3	press
178.834	n/a	RESPONSE	M5	2	09	A3	press
178.86	n/a	RESPONSE	M5	2	21	A4	press
178.903	n/a	RESPONSE	M5	2	05	F3	release
178.961	n/a	RESPONSE	M5	2	22	A#4	release
179.103	n/a	RESPONSE	M5	2	21	A4	release
179.164	n/a	RESPONSE	M5	2	00	C3	press
179.201	n/a	RESPONSE	M5	2	21	A4	press
179.212	n/a	RESPONSE	M5	2	09	A3	release
179.446	n/a	RESPONSE	M5	2	21	A4	release
179.513	n/a	RESPONSE	M5	2	09	A3	press
179.542	n/a	RESPONSE	M5	2	21	A4	press
179.571	n/a	RESPONSE	M5	2	00	C3	release
180.468	n/a	RESPONSE	M5	2	21	A4	release
180.51	n/a	RESPONSE	M5	2	09	A3	release
180.671	n/a	RESPONSE	M5	2	07	G3	press
180.683	n/a	RESPONSE	M5	2	21	A4	press
181.063	n/a	RESPONSE	M5	2	11	B3	press
181.066	n/a	RESPONSE	M5	2	09	A3	press
181.106	n/a	RESPONSE	M5	2	19	G4	press
181.317	n/a	RESPONSE	M5	2	09	A3	release
181.38	n/a	RESPONSE	M5	2	11	B3	release
181.4	n/a	RESPONSE	M5	2	21	A4	release
181.402	n/a	RESPONSE	M5	2	19	G4	release
181.462	n/a	RESPONSE	M5	2	07	G3	release
181.543	n/a	RESPONSE	M5	2	21	A4	press
181.554	n/a	RESPONSE	M5	2	07	G3	press
181.806	n/a	RESPONSE	M5	2	11	B3	press
181.847	n/a	RESPONSE	M5	2	19	G4	press
181.941	n/a	RESPONSE	M5	2	07	G3	release
181.96	n/a	RESPONSE	M5	2	21	A4	release
182.291	n/a	RESPONSE	M5	2	02	D3	press
182.304	n/a	RESPONSE	M5	2	11	B3	release
182.484	n/a	RESPONSE	M5	2	02	D3	release
182.617	n/a	RESPONSE	M5	2	19	G4	release
182.686	n/a	RESPONSE	M5	2	02	D3	press
182.698	n/a	RESPONSE	M5	2	19	G4	press
183.018	7.758	FIXCROSS	n/a	n/a	n/a	n/a	n/a
183.288	n/a	RESPONSE	M5	2	11	B3	press
183.31	n/a	RESPONSE	M5	2	02	D3	release
183.312	n/a	RESPONSE	M5	2	21	A4	press
183.314	n/a	RESPONSE	M5	2	09	A3	press
183.364	n/a	RESPONSE	M5	2	19	G4	release
183.754	n/a	RESPONSE	M5	2	00	C3	press
183.766	n/a	RESPONSE	M5	2	09	A3	release
183.768	n/a	RESPONSE	M5	2	19	G4	press
183.818	n/a	RESPONSE	M5	2	11	B3	release
184.181	n/a	RESPONSE	M5	2	07	G3	press
184.183	n/a	RESPONSE	M5	2	21	A4	release
184.202	n/a	RESPONSE	M5	2	19	G4	release
184.673	n/a	RESPONSE	M5	2	00	C3	release
184.684	n/a	RESPONSE	M5	2	24	C5	press
184.966	n/a	RESPONSE	M5	2	24	C5	release
185.047	n/a	RESPONSE	M5	2	24	C5	press
185.118	n/a	RESPONSE	M5	2	04	E3	press
185.151	n/a	RESPONSE	M5	2	05	F3	press
185.201	n/a	RESPONSE	M5	2	07	G3	release
185.542	n/a	RESPONSE	M5	2	07	G3	press
185.544	n/a	RESPONSE	M5	2	05	F3	release
185.636	n/a	RESPONSE	M5	2	04	E3	release
186.276	n/a	RESPONSE	M5	2	24	C5	release
186.297	n/a	RESPONSE	M5	2	07	G3	release
190.777	6.325	CUE_LISTEN	M5	1	n/a	n/a	n/a
197.102	7.758	FIXCROSS	n/a	n/a	n/a	n/a	n/a
197.321	n/a	RESPONSE	M5	1	21	A4	press
197.574	n/a	RESPONSE	M5	1	21	A4	release
199.981	n/a	RESPONSE	M5	1	07	G3	press
200.22	n/a	RESPONSE	M5	1	07	G3	release
204.86	6.317	CUE_PLAYBACK_BOTH_HANDS	M5	1	n/a	n/a	n/a
205.432	n/a	RESPONSE	M5	1	04	E3	press
205.443	n/a	RESPONSE	M5	1	21	A4	press
205.694	n/a	RESPONSE	M5	1	21	A4	release
205.747	n/a	RESPONSE	M5	1	21	A4	press
205.757	n/a	RESPONSE	M5	1	07	G3	press
205.918	n/a	RESPONSE	M5	1	04	E3	release
205.96	n/a	RESPONSE	M5	1	21	A4	release
206.141	n/a	RESPONSE	M5	1	07	G3	release
206.482	n/a	RESPONSE	M5	1	21	A4	press
206.484	n/a	RESPONSE	M5	1	02	D3	press
206.724	n/a	RESPONSE	M5	1	21	A4	release
206.758	n/a	RESPONSE	M5	1	07	G3	press
206.78	n/a	RESPONSE	M5	1	21	A4	press
206.854	n/a	RESPONSE	M5	1	02	D3	release
206.998	n/a	RESPONSE	M5	1	21	A4	release
207.111	n/a	RESPONSE	M5	1	21	A4	press
207.15	n/a	RESPONSE	M5	1	07	G3	release
207.297	n/a	RESPONSE	M5	1	21	A4	release
207.59	n/a	RESPONSE	M5	1	04	E3	press
207.607	n/a	RESPONSE	M5	1	21	A4	press
207.84	n/a	RESPONSE	M5	1	21	A4	release
207.901	n/a	RESPONSE	M5	1	07	G3	press
207.911	n/a	RESPONSE	M5	1	21	A4	press
208.026	n/a	RESPONSE	M5	1	04	E3	release
208.136	n/a	RESPONSE	M5	1	21	A4	release
208.237	n/a	RESPONSE	M5	1	21	A4	press
208.24	n/a	RESPONSE	M5	1	02	D3	press
208.274	n/a	RESPONSE	M5	1	07	G3	release
208.277	n/a	RESPONSE	M5	1	04	E3	press
208.381	n/a	RESPONSE	M5	1	04	E3	release
208.543	n/a	RESPONSE	M5	1	07	G3	press
208.64	n/a	RESPONSE	M5	1	02	D3	release
208.757	n/a	RESPONSE	M5	1	21	A4	release
208.931	n/a	RESPONSE	M5	1	07	G3	release
209.461	n/a	RESPONSE	M5	1	05	F3	press
209.761	n/a	RESPONSE	M5	1	09	A3	press
209.766	n/a	RESPONSE	M5	1	07	G3	press
209.878	n/a	RESPONSE	M5	1	05	F3	release
209.933	n/a	RESPONSE	M5	1	07	G3	release
209.957	n/a	RESPONSE	M5	1	09	A3	release
210.158	n/a	RESPONSE	M5	1	05	F3	press
210.164	n/a	RESPONSE	M5	1	21	A4	press
210.37	n/a	RESPONSE	M5	1	21	A4	release
210.427	n/a	RESPONSE	M5	1	09	A3	press
210.462	n/a	RESPONSE	M5	1	21	A4	press
210.586	n/a	RESPONSE	M5	1	05	F3	release
210.654	n/a	RESPONSE	M5	1	21	A4	release
210.756	n/a	RESPONSE	M5	1	04	E3	press
210.767	n/a	RESPONSE	M5	1	21	A4	press
210.778	n/a	RESPONSE	M5	1	09	A3	release
211.07	n/a	RESPONSE	M5	1	09	A3	press
211.151	n/a	RESPONSE	M5	1	04	E3	release
211.177	7.758	FIXCROSS	n/a	n/a	n/a	n/a	n/a
211.262	n/a	RESPONSE	M5	1	21	A4	release
211.333	n/a	RESPONSE	M5	1	02	D3	press
211.366	n/a	RESPONSE	M5	1	21	A4	press
211.406	n/a	RESPONSE	M5	1	09	A3	release
211.578	n/a	RESPONSE	M5	1	21	A4	release
211.611	n/a	RESPONSE	M5	1	09	A3	press
211.642	n/a	RESPONSE	M5	1	02	D3	release
211.671	n/a	RESPONSE	M5	1	21	A4	press
211.862	n/a	RESPONSE	M5	1	21	A4	release
211.894	n/a	RESPONSE	M5	1	00	C3	press
211.947	n/a	RESPONSE	M5	1	09	A3	release
211.958	n/a	RESPONSE	M5	1	21	A4	press
212.187	n/a	RESPONSE	M5	1	09	A3	press
212.21	n/a	RESPONSE	M5	1	21	A4	release
212.3	n/a	RESPONSE	M5	1	00	C3	release
212.521	n/a	RESPONSE	M5	1	21	A4	press
212.552	n/a	RESPONSE	M5	1	05	F3	press
212.583	n/a	RESPONSE	M5	1	07	G3	press
212.666	n/a	RESPONSE	M5	1	09	A3	release
212.836	n/a	RESPONSE	M5	1	07	G3	release
212.897	n/a	RESPONSE	M5	1	05	F3	release
212.918	n/a	RESPONSE	M5	1	21	A4	release
213.012	n/a	RESPONSE	M5	1	05	F3	press
213.031	n/a	RESPONSE	M5	1	21	A4	press
213.322	n/a	RESPONSE	M5	1	09	A3	press
213.363	n/a	RESPONSE	M5	1	23	B4	press
213.384	n/a	RESPONSE	M5	1	05	F3	release
213.496	n/a	RESPONSE	M5	1	21	A4	release
213.817	n/a	RESPONSE	M5	1	23	B4	release
213.888	n/a	RESPONSE	M5	1	09	A3	release
213.95	n/a	RESPONSE	M5	1	21	A4	press
213.962	n/a	RESPONSE	M5	1	05	F3	press
214.252	n/a	RESPONSE	M5	1	24	C5	press
214.283	n/a	RESPONSE	M5	1	09	A3	press
214.357	n/a	RESPONSE	M5	1	05	F3	release
214.466	n/a	RESPONSE	M5	1	21	A4	release
214.647	n/a	RESPONSE	M5	1	17	F4	press
214.668	n/a	RESPONSE	M5	1	04	E3	press
214.7	n/a	RESPONSE	M5	1	05	F3	press
214.731	n/a	RESPONSE	M5	1	09	A3	release
214.942	n/a	RESPONSE	M5	1	24	C5	release
214.944	n/a	RESPONSE	M5	1	09	A3	press
214.974	n/a	RESPONSE	M5	1	05	F3	release
214.986	n/a	RESPONSE	M5	1	19	G4	press
215.04	n/a	RESPONSE	M5	1	04	E3	release
215.2	n/a	RESPONSE	M5	1	17	F4	release
215.3	n/a	RESPONSE	M5	1	05	F3	press
215.302	n/a	RESPONSE	M5	1	21	A4	press
215.342	n/a	RESPONSE	M5	1	07	G3	press
215.345	n/a	RESPONSE	M5	1	09	A3	release
215.404	n/a	RESPONSE	M5	1	19	G4	release
215.626	n/a	RESPONSE	M5	1	07	G3	release
215.637	n/a	RESPONSE	M5	1	09	A3	press
216.028	n/a	RESPONSE	M5	1	09	A3	release
216.15	n/a	RESPONSE	M5	1	21	A4	release
218.935	6.317	CUE_LISTEN	M5	2	n/a	n/a	n/a
220.391	n/a	RESPONSE	M5	2	05	F3	release
225.252	14.083	FIXCROSS	n/a	n/a	n/a	n/a	n/a
233.01	n/a	CUE_PLAYBACK_BOTH_HANDS	M4	2	n/a	n/a	n/a
233.426	n/a	RESPONSE	M5	2	09	A3	press
233.438	n/a	RESPONSE	M5	2	22	A#4	press
233.708	n/a	RESPONSE	M5	2	22	A#4	release
233.88	n/a	RESPONSE	M5	2	09	A3	release
234.381	n/a	RESPONSE	M5	2	22	A#4	press
234.385	n/a	RESPONSE	M5	2	09	A3	press
234.643	n/a	RESPONSE	M5	2	22	A#4	release
234.734	n/a	RESPONSE	M5	2	12	C4	press
234.856	n/a	RESPONSE	M5	2	12	C4	release
234.88	n/a	RESPONSE	M5	2	09	A3	release
235.518	n/a	RESPONSE	M5	2	22	A#4	press
235.521	n/a	RESPONSE	M5	2	07	G3	press
235.781	n/a	RESPONSE	M5	2	22	A#4	release
235.814	n/a	RESPONSE	M5	2	10	A#3	press
235.873	n/a	RESPONSE	M5	2	22	A#4	press
236.034	n/a	RESPONSE	M5	2	07	G3	release
236.046	n/a	RESPONSE	M5	2	22	A#4	release
236.237	n/a	RESPONSE	M5	2	10	A#3	release
236.478	n/a	RESPONSE	M5	2	22	A#4	press
236.482	n/a	RESPONSE	M5	2	04	E3	press
236.762	n/a	RESPONSE	M5	2	22	A#4	release
236.835	n/a	RESPONSE	M5	2	04	E3	release
237.152	n/a	RESPONSE	M5	2	07	G3	press
237.173	n/a	RESPONSE	M5	2	22	A#4	press
237.364	n/a	RESPONSE	M5	2	22	A#4	release
237.438	n/a	RESPONSE	M5	2	10	A#3	press
237.441	n/a	RESPONSE	M5	2	22	A#4	press
237.593	n/a	RESPONSE	M5	2	07	G3	release
237.701	n/a	RESPONSE	M5	2	22	A#4	release
237.755	n/a	RESPONSE	M5	2	10	A#3	release
237.766	n/a	RESPONSE	M5	2	22	A#4	press
237.834	n/a	RESPONSE	M5	2	04	E3	press
238.072	n/a	RESPONSE	M5	2	22	A#4	release
238.108	n/a	RESPONSE	M5	2	04	E3	release
238.196	n/a	RESPONSE	M5	2	22	A#4	press
238.213	n/a	RESPONSE	M5	2	07	G3	press
238.538	n/a	RESPONSE	M5	2	07	G3	release
239.335	7.758	FIXCROSS	n/a	n/a	n/a	n/a	n/a
239.492	n/a	RESPONSE	M5	2	04	E3	press
239.643	n/a	RESPONSE	M5	2	22	A#4	release
239.738	n/a	RESPONSE	M5	2	04	E3	release
239.758	n/a	RESPONSE	M5	2	22	A#4	press
239.761	n/a	RESPONSE	M5	2	05	F3	press
240.054	n/a	RESPONSE	M5	2	22	A#4	release
240.148	n/a	RESPONSE	M5	2	21	A4	press
240.171	n/a	RESPONSE	M5	2	09	A3	press
240.19	n/a	RESPONSE	M5	2	07	G3	press
240.232	n/a	RESPONSE	M5	2	05	F3	release
240.418	n/a	RESPONSE	M5	2	21	A4	release
240.507	n/a	RESPONSE	M5	2	07	G3	release
240.51	n/a	RESPONSE	M5	2	00	C3	press
240.522	n/a	RESPONSE	M5	2	09	A3	release
240.561	n/a	RESPONSE	M5	2	21	A4	press
240.812	n/a	RESPONSE	M5	2	09	A3	press
240.823	n/a	RESPONSE	M5	2	21	A4	release
240.875	n/a	RESPONSE	M5	2	00	C3	release
241.386	n/a	RESPONSE	M5	2	09	A3	release
242.037	n/a	RESPONSE	M5	2	00	C3	press
242.041	n/a	RESPONSE	M5	2	24	C5	press
242.31	n/a	RESPONSE	M5	2	24	C5	release
242.361	n/a	RESPONSE	M5	2	07	G3	press
242.402	n/a	RESPONSE	M5	2	24	C5	press
242.523	n/a	RESPONSE	M5	2	00	C3	release
242.725	n/a	RESPONSE	M5	2	24	C5	release
242.776	n/a	RESPONSE	M5	2	04	E3	press
242.817	n/a	RESPONSE	M5	2	22	A#4	press
242.868	n/a	RESPONSE	M5	2	07	G3	release
243.15	n/a	RESPONSE	M5	2	21	A4	press
243.161	n/a	RESPONSE	M5	2	07	G3	press
243.302	n/a	RESPONSE	M5	2	04	E3	release
243.364	n/a	RESPONSE	M5	2	22	A#4	release
243.524	n/a	RESPONSE	M5	2	05	F3	press
243.546	n/a	RESPONSE	M5	2	19	G4	press
243.637	n/a	RESPONSE	M5	2	07	G3	release
243.641	n/a	RESPONSE	M5	2	21	A4	release
244.211	n/a	RESPONSE	M5	2	19	G4	release
244.291	n/a	RESPONSE	M5	2	05	F3	release
247.094	6.325	CUE_LISTEN	M2	1	n/a	n/a	n/a
253.418	7.758	FIXCROSS	n/a	n/a	n/a	n/a	n/a
254.632	n/a	RESPONSE	M2	1	24	C5	press
256.373	n/a	RESPONSE	M2	1	21	A4	press
256.497	n/a	RESPONSE	M2	1	24	C5	release
256.646	n/a	RESPONSE	M2	1	21	A4	release
261.177	6.308	CUE_PLAYBACK_RIGHT_HAND	M2	1	n/a	n/a	n/a
261.7	n/a	RESPONSE	M2	1	24	C5	press
262.151	n/a	RESPONSE	M2	1	21	A4	press
262.243	n/a	RESPONSE	M2	1	24	C5	release
262.473	n/a	RESPONSE	M2	1	21	A4	release
262.645	n/a	RESPONSE	M2	1	24	C5	press
263.076	n/a	RESPONSE	M2	1	19	G4	press
263.327	n/a	RESPONSE	M2	1	24	C5	release
263.338	n/a	RESPONSE	M2	1	19	G4	release
263.47	n/a	RESPONSE	M2	1	19	G4	press
263.861	n/a	RESPONSE	M2	1	17	F4	press
263.992	n/a	RESPONSE	M2	1	19	G4	release
264.273	n/a	RESPONSE	M2	1	16	E4	press
264.405	n/a	RESPONSE	M2	1	17	F4	release
264.626	n/a	RESPONSE	M2	1	17	F4	press
264.757	n/a	RESPONSE	M2	1	16	E4	release
265.108	n/a	RESPONSE	M2	1	19	G4	press
265.15	n/a	RESPONSE	M2	1	17	F4	release
265.961	n/a	RESPONSE	M2	1	19	G4	release
267.485	7.758	FIXCROSS	n/a	n/a	n/a	n/a	n/a
275.244	6.325	CUE_LISTEN	M2	2	n/a	n/a	n/a
281.569	7.758	FIXCROSS	n/a	n/a	n/a	n/a	n/a
289.327	6.317	CUE_PLAYBACK_RIGHT_HAND	M2	2	n/a	n/a	n/a
289.813	n/a	RESPONSE	M2	2	24	C5	press
290.322	n/a	RESPONSE	M2	2	21	A4	press
290.327	n/a	RESPONSE	M2	2	24	C5	release
290.341	n/a	RESPONSE	M2	2	19	G4	press
290.505	n/a	RESPONSE	M2	2	19	G4	release
290.618	n/a	RESPONSE	M2	2	21	A4	release
290.81	n/a	RESPONSE	M2	2	24	C5	press
291.198	n/a	RESPONSE	M2	2	19	G4	press
291.4	n/a	RESPONSE	M2	2	24	C5	release
291.471	n/a	RESPONSE	M2	2	19	G4	release
291.602	n/a	RESPONSE	M2	2	19	G4	press
291.963	n/a	RESPONSE	M2	2	17	F4	press
292.164	n/a	RESPONSE	M2	2	19	G4	release
292.368	n/a	RESPONSE	M2	2	16	E4	press
292.467	n/a	RESPONSE	M2	2	17	F4	release
292.79	n/a	RESPONSE	M2	2	14	D4	press
292.8	n/a	RESPONSE	M2	2	12	C4	press
293.051	n/a	RESPONSE	M2	2	12	C4	release
293.242	n/a	RESPONSE	M2	2	16	E4	release
293.403	n/a	RESPONSE	M2	2	12	C4	press
293.744	n/a	RESPONSE	M2	2	14	D4	release
294.376	n/a	RESPONSE	M2	2	12	C4	release
295.644	7.758	FIXCROSS	n/a	n/a	n/a	n/a	n/a
303.402	6.317	CUE_LISTEN	M2	1	n/a	n/a	n/a
309.719	7.759	FIXCROSS	n/a	n/a	n/a	n/a	n/a
317.477	6.325	CUE_PLAYBACK_RIGHT_HAND	M2	1	n/a	n/a	n/a
317.953	n/a	RESPONSE	M2	1	12	C4	press
318.403	n/a	RESPONSE	M2	1	14	D4	press
318.812	n/a	RESPONSE	M2	1	12	C4	release
318.835	n/a	RESPONSE	M2	1	16	E4	press
318.915	n/a	RESPONSE	M2	1	14	D4	release
319.263	n/a	RESPONSE	M2	1	14	D4	press
319.351	n/a	RESPONSE	M2	1	16	E4	release
319.668	n/a	RESPONSE	M2	1	16	E4	press
319.757	n/a	RESPONSE	M2	1	14	D4	release
320.073	n/a	RESPONSE	M2	1	17	F4	press
320.507	n/a	RESPONSE	M2	1	19	G4	press
320.59	n/a	RESPONSE	M2	1	16	E4	release
320.63	n/a	RESPONSE	M2	1	17	F4	release
321.481	n/a	RESPONSE	M2	1	19	G4	release
323.802	7.758	FIXCROSS	n/a	n/a	n/a	n/a	n/a
331.56	6.317	CUE_LISTEN	M2	2	n/a	n/a	n/a
337.877	7.758	FIXCROSS	n/a	n/a	n/a	n/a	n/a
345.636	6.325	CUE_PLAYBACK_RIGHT_HAND	M2	2	n/a	n/a	n/a
346.133	n/a	RESPONSE	M2	2	16	E4	press
346.575	n/a	RESPONSE	M2	2	19	G4	press
346.738	n/a	RESPONSE	M2	2	16	E4	release
346.862	n/a	RESPONSE	M2	2	19	G4	release
346.976	n/a	RESPONSE	M2	2	19	G4	press
347.392	n/a	RESPONSE	M2	2	17	F4	press
347.496	n/a	RESPONSE	M2	2	19	G4	release
347.782	n/a	RESPONSE	M2	2	16	E4	press
347.908	n/a	RESPONSE	M2	2	17	F4	release
348.172	n/a	RESPONSE	M2	2	14	D4	press
348.31	n/a	RESPONSE	M2	2	16	E4	release
348.628	n/a	RESPONSE	M2	2	12	C4	press
348.975	n/a	RESPONSE	M2	2	14	D4	release
349.491	n/a	RESPONSE	M2	2	12	C4	release
351.96	7.758	FIXCROSS	n/a	n/a	n/a	n/a	n/a
359.719	6.317	CUE_LISTEN	M3	1	n/a	n/a	n/a
364.816	n/a	RESPONSE	M3	1	00	C3	press
366.036	7.758	FIXCROSS	n/a	n/a	n/a	n/a	n/a
366.468	n/a	RESPONSE	M3	1	00	C3	release
373.794	6.317	CUE_PLAYBACK_BOTH_HANDS	M3	1	n/a	n/a	n/a
374.666	n/a	RESPONSE	M3	1	00	C3	press
374.687	n/a	RESPONSE	M3	1	12	C4	press
375.118	n/a	RESPONSE	M3	1	07	G3	press
375.16	n/a	RESPONSE	M3	1	14	D4	press
375.291	n/a	RESPONSE	M3	1	00	C3	release
375.603	n/a	RESPONSE	M3	1	04	E3	press
375.606	n/a	RESPONSE	M3	1	16	E4	press
375.666	n/a	RESPONSE	M3	1	12	C4	release
375.697	n/a	RESPONSE	M3	1	07	G3	release
375.828	n/a	RESPONSE	M3	1	14	D4	release
376.16	n/a	RESPONSE	M3	1	07	G3	press
376.211	n/a	RESPONSE	M3	1	12	C4	press
376.252	n/a	RESPONSE	M3	1	04	E3	release
376.563	n/a	RESPONSE	M3	1	16	E4	release
376.566	n/a	RESPONSE	M3	1	12	C4	release
376.616	n/a	RESPONSE	M3	1	00	C3	press
376.658	n/a	RESPONSE	M3	1	07	G3	release
376.678	n/a	RESPONSE	M3	1	12	C4	press
377.056	n/a	RESPONSE	M3	1	07	G3	press
377.117	n/a	RESPONSE	M3	1	14	D4	press
377.177	n/a	RESPONSE	M3	1	00	C3	release
377.517	n/a	RESPONSE	M3	1	12	C4	release
377.537	n/a	RESPONSE	M3	1	04	E3	press
377.54	n/a	RESPONSE	M3	1	16	E4	press
377.62	n/a	RESPONSE	M3	1	07	G3	release
377.788	n/a	RESPONSE	M3	1	14	D4	release
378.005	n/a	RESPONSE	M3	1	07	G3	press
378.055	n/a	RESPONSE	M3	1	12	C4	press
378.09	n/a	RESPONSE	M3	1	04	E3	release
378.603	n/a	RESPONSE	M3	1	16	E4	release
378.785	n/a	RESPONSE	M3	1	07	G3	release
378.861	n/a	RESPONSE	M3	1	12	C4	release
380.11	7.758	FIXCROSS	n/a	n/a	n/a	n/a	n/a
387.869	6.325	CUE_LISTEN	M3	2	n/a	n/a	n/a
394.194	7.758	FIXCROSS	n/a	n/a	n/a	n/a	n/a
401.952	6.317	CUE_PLAYBACK_BOTH_HANDS	M3	2	n/a	n/a	n/a
402.6	n/a	RESPONSE	M3	2	00	C3	press
402.623	n/a	RESPONSE	M3	2	16	E4	press
403.043	n/a	RESPONSE	M3	2	07	G3	press
403.065	n/a	RESPONSE	M3	2	17	F4	press
403.268	n/a	RESPONSE	M3	2	00	C3	release
403.52	n/a	RESPONSE	M3	2	19	G4	press
403.528	n/a	RESPONSE	M3	2	04	E3	press
403.582	n/a	RESPONSE	M3	2	16	E4	release
403.611	n/a	RESPONSE	M3	2	07	G3	release
403.982	n/a	RESPONSE	M3	2	07	G3	press
404.063	n/a	RESPONSE	M3	2	04	E3	release
404.175	n/a	RESPONSE	M3	2	17	F4	release
404.466	n/a	RESPONSE	M3	2	00	C3	press
404.487	n/a	RESPONSE	M3	2	16	E4	press
404.498	n/a	RESPONSE	M3	2	19	G4	release
404.54	n/a	RESPONSE	M3	2	07	G3	release
404.883	n/a	RESPONSE	M3	2	07	G3	press
404.915	n/a	RESPONSE	M3	2	00	C3	release
404.923	n/a	RESPONSE	M3	2	17	F4	press
405.385	n/a	RESPONSE	M3	2	19	G4	press
405.396	n/a	RESPONSE	M3	2	04	E3	press
405.437	n/a	RESPONSE	M3	2	16	E4	release
405.468	n/a	RESPONSE	M3	2	07	G3	release
405.52	n/a	RESPONSE	M3	2	17	F4	release
405.862	n/a	RESPONSE	M3	2	07	G3	press
405.915	n/a	RESPONSE	M3	2	04	E3	release
406.573	n/a	RESPONSE	M3	2	19	G4	release
406.617	n/a	RESPONSE	M3	2	07	G3	release
408.269	7.758	FIXCROSS	n/a	n/a	n/a	n/a	n/a
411.671	n/a	RESPONSE	M3	2	19	G4	press
411.922	n/a	RESPONSE	M3	2	19	G4	release
416.027	6.317	CUE_LISTEN	M3	1	n/a	n/a	n/a
419.062	n/a	RESPONSE	M3	1	16	E4	press
419.891	n/a	RESPONSE	M3	1	16	E4	release
422.344	7.758	FIXCROSS	n/a	n/a	n/a	n/a	n/a
430.102	6.325	CUE_PLAYBACK_BOTH_HANDS	M3	1	n/a	n/a	n/a
431.302	n/a	RESPONSE	M3	1	00	C3	press
431.333	n/a	RESPONSE	M3	1	19	G4	press
431.585	n/a	RESPONSE	M3	1	21	A4	press
431.688	n/a	RESPONSE	M3	1	19	G4	release
431.867	n/a	RESPONSE	M3	1	19	G4	press
431.87	n/a	RESPONSE	M3	1	07	G3	press
431.98	n/a	RESPONSE	M3	1	00	C3	release
432.061	n/a	RESPONSE	M3	1	21	A4	release
432.112	n/a	RESPONSE	M3	1	17	F4	press
432.393	n/a	RESPONSE	M3	1	19	G4	release
432.405	n/a	RESPONSE	M3	1	04	E3	press
432.407	n/a	RESPONSE	M3	1	16	E4	press
432.478	n/a	RESPONSE	M3	1	07	G3	release
432.588	n/a	RESPONSE	M3	1	17	F4	release
432.96	n/a	RESPONSE	M3	1	12	C4	press
432.971	n/a	RESPONSE	M3	1	07	G3	press
433.022	n/a	RESPONSE	M3	1	04	E3	release
433.163	n/a	RESPONSE	M3	1	16	E4	release
433.545	n/a	RESPONSE	M3	1	19	G4	press
433.566	n/a	RESPONSE	M3	1	00	C3	press
433.637	n/a	RESPONSE	M3	1	07	G3	release
433.641	n/a	RESPONSE	M3	1	12	C4	release
433.84	n/a	RESPONSE	M3	1	23	B4	press
433.851	n/a	RESPONSE	M3	1	21	A4	press
433.895	n/a	RESPONSE	M3	1	19	G4	release
434.056	n/a	RESPONSE	M3	1	23	B4	release
434.215	n/a	RESPONSE	M3	1	21	A4	release
434.266	n/a	RESPONSE	M3	1	00	C3	release
434.328	n/a	RESPONSE	M3	1	00	C3	press
434.338	n/a	RESPONSE	M3	1	19	G4	press
434.59	n/a	RESPONSE	M3	1	21	A4	press
434.713	n/a	RESPONSE	M3	1	19	G4	release
434.902	n/a	RESPONSE	M3	1	19	G4	press
434.923	n/a	RESPONSE	M3	1	07	G3	press
434.957	n/a	RESPONSE	M3	1	00	C3	release
435.016	n/a	RESPONSE	M3	1	17	F4	press
435.148	n/a	RESPONSE	M3	1	21	A4	release
435.328	n/a	RESPONSE	M3	1	16	E4	press
435.331	n/a	RESPONSE	M3	1	19	G4	release
435.471	n/a	RESPONSE	M3	1	17	F4	release
435.482	n/a	RESPONSE	M3	1	04	E3	press
435.813	n/a	RESPONSE	M3	1	04	E3	release
435.835	n/a	RESPONSE	M3	1	07	G3	release
435.966	n/a	RESPONSE	M3	1	04	E3	press
435.997	n/a	RESPONSE	M3	1	12	C4	press
436.427	7.758	FIXCROSS	n/a	n/a	n/a	n/a	n/a
436.598	n/a	RESPONSE	M3	1	16	E4	release
436.751	n/a	RESPONSE	M3	1	04	E3	release
437.028	n/a	RESPONSE	M3	1	12	C4	release
444.186	6.317	CUE_LISTEN	M3	2	n/a	n/a	n/a
450.502	7.758	FIXCROSS	n/a	n/a	n/a	n/a	n/a
458.261	6.317	CUE_PLAYBACK_BOTH_HANDS	M3	2	n/a	n/a	n/a
459.051	n/a	RESPONSE	M3	2	12	C4	press
459.765	n/a	RESPONSE	M3	2	00	C3	press
460.113	n/a	RESPONSE	M3	2	12	C4	release
460.126	n/a	RESPONSE	M3	2	00	C3	release
460.296	n/a	RESPONSE	M3	2	00	C3	press
460.76	n/a	RESPONSE	M3	2	12	C4	press
461.252	n/a	RESPONSE	M3	2	00	C3	release
461.331	n/a	RESPONSE	M3	2	12	C4	release
461.442	n/a	RESPONSE	M3	2	12	C4	press
462.133	n/a	RESPONSE	M3	2	00	C3	press
462.785	n/a	RESPONSE	M3	2	00	C3	release
463.246	n/a	RESPONSE	M3	2	12	C4	release
463.437	n/a	RESPONSE	M3	2	07	G3	press
463.46	n/a	RESPONSE	M3	2	12	C4	press
464.577	7.758	FIXCROSS	n/a	n/a	n/a	n/a	n/a
464.7	n/a	RESPONSE	M3	2	07	G3	release
464.721	n/a	RESPONSE	M3	2	09	A3	press
464.792	n/a	RESPONSE	M3	2	07	G3	press
464.983	n/a	RESPONSE	M3	2	07	G3	release
465.455	n/a	RESPONSE	M3	2	09	A3	release
465.457	n/a	RESPONSE	M3	2	12	C4	release
465.58	n/a	RESPONSE	M3	2	12	C4	press
466.318	n/a	RESPONSE	M3	2	12	C4	release
466.45	n/a	RESPONSE	M3	2	12	C4	press
467.193	n/a	RESPONSE	M3	2	09	A3	press
467.206	n/a	RESPONSE	M3	2	07	G3	press
467.243	n/a	RESPONSE	M3	2	07	G3	release
467.446	n/a	RESPONSE	M3	2	12	C4	release
467.82	n/a	RESPONSE	M3	2	12	C4	press
467.823	n/a	RESPONSE	M3	2	09	A3	release
468.017	n/a	RESPONSE	M3	2	12	C4	release
472.336	6.325	CUE_LISTEN	M5	1	n/a	n/a	n/a
478.661	7.758	FIXCROSS	n/a	n/a	n/a	n/a	n/a
481.002	n/a	RESPONSE	M5	1	19	G4	press
482.873	n/a	RESPONSE	M5	1	19	G4	release
486.419	6.317	CUE_PLAYBACK_RIGHT_HAND	M5	1	n/a	n/a	n/a
487.073	n/a	RESPONSE	M5	1	19	G4	press
487.306	n/a	RESPONSE	M5	1	19	G4	release
487.361	n/a	RESPONSE	M5	1	19	G4	press
487.463	n/a	RESPONSE	M5	1	19	G4	release
487.912	n/a	RESPONSE	M5	1	17	F4	press
488.107	n/a	RESPONSE	M5	1	17	F4	release
488.616	n/a	RESPONSE	M5	1	19	G4	press
488.798	n/a	RESPONSE	M5	1	19	G4	release
488.886	n/a	RESPONSE	M5	1	19	G4	press
489.072	n/a	RESPONSE	M5	1	19	G4	release
489.181	n/a	RESPONSE	M5	1	19	G4	press
489.597	n/a	RESPONSE	M5	1	19	G4	release
489.701	n/a	RESPONSE	M5	1	19	G4	press
489.885	n/a	RESPONSE	M5	1	19	G4	release
489.972	n/a	RESPONSE	M5	1	19	G4	press
490.126	n/a	RESPONSE	M5	1	19	G4	release
490.218	n/a	RESPONSE	M5	1	19	G4	press
490.522	n/a	RESPONSE	M5	1	19	G4	release
490.653	n/a	RESPONSE	M5	1	19	G4	press
490.905	n/a	RESPONSE	M5	1	23	B4	press
491.086	n/a	RESPONSE	M5	1	19	G4	release
491.41	n/a	RESPONSE	M5	1	23	B4	release
491.798	n/a	RESPONSE	M5	1	23	B4	press
492.161	n/a	RESPONSE	M5	1	23	B4	release
492.321	n/a	RESPONSE	M5	1	19	G4	press
492.592	n/a	RESPONSE	M5	1	24	C5	press
492.613	n/a	RESPONSE	M5	1	23	B4	press
492.727	n/a	RESPONSE	M5	1	19	G4	release
492.736	7.758	FIXCROSS	n/a	n/a	n/a	n/a	n/a
492.817	n/a	RESPONSE	M5	1	24	C5	release
492.907	n/a	RESPONSE	M5	1	23	B4	release
493.078	n/a	RESPONSE	M5	1	19	G4	press
493.1	n/a	RESPONSE	M5	1	23	B4	press
493.351	n/a	RESPONSE	M5	1	23	B4	release
493.502	n/a	RESPONSE	M5	1	19	G4	release
499.88	n/a	RESPONSE	M5	1	12	C4	press
500.494	6.317	CUE_LISTEN	M5	2	n/a	n/a	n/a
500.792	n/a	RESPONSE	M5	2	12	C4	release
506.811	7.759	FIXCROSS	n/a	n/a	n/a	n/a	n/a
514.569	6.325	CUE_PLAYBACK_RIGHT_HAND	M5	2	n/a	n/a	n/a
515.127	n/a	RESPONSE	M5	2	22	A#4	press
515.34	n/a	RESPONSE	M5	2	22	A#4	release
515.4	n/a	RESPONSE	M5	2	22	A#4	press
515.581	n/a	RESPONSE	M5	2	22	A#4	release
515.642	n/a	RESPONSE	M5	2	22	A#4	press
515.823	n/a	RESPONSE	M5	2	22	A#4	release
515.905	n/a	RESPONSE	M5	2	22	A#4	press
516.076	n/a	RESPONSE	M5	2	22	A#4	release
516.178	n/a	RESPONSE	M5	2	22	A#4	press
516.478	n/a	RESPONSE	M5	2	21	A4	press
516.64	n/a	RESPONSE	M5	2	22	A#4	release
516.693	n/a	RESPONSE	M5	2	21	A4	release
516.762	n/a	RESPONSE	M5	2	21	A4	press
516.945	n/a	RESPONSE	M5	2	21	A4	release
517.025	n/a	RESPONSE	M5	2	21	A4	press
517.221	n/a	RESPONSE	M5	2	21	A4	release
517.347	n/a	RESPONSE	M5	2	21	A4	press
517.665	n/a	RESPONSE	M5	2	19	G4	press
517.78	n/a	RESPONSE	M5	2	21	A4	release
517.89	n/a	RESPONSE	M5	2	19	G4	release
517.967	n/a	RESPONSE	M5	2	19	G4	press
518.263	n/a	RESPONSE	M5	2	21	A4	press
518.318	n/a	RESPONSE	M5	2	19	G4	release
518.577	n/a	RESPONSE	M5	2	19	G4	press
518.77	n/a	RESPONSE	M5	2	21	A4	release
519.142	n/a	RESPONSE	M5	2	24	C5	press
519.252	n/a	RESPONSE	M5	2	19	G4	release
520.032	n/a	RESPONSE	M5	2	24	C5	release
520.894	7.758	FIXCROSS	n/a	n/a	n/a	n/a	n/a
528.653	6.317	CUE_LISTEN	M5	1	n/a	n/a	n/a
534.969	7.758	FIXCROSS	n/a	n/a	n/a	n/a	n/a
542.728	6.325	CUE_PLAYBACK_RIGHT_HAND	M5	1	n/a	n/a	n/a
543.21	n/a	RESPONSE	M5	1	21	A4	press
543.421	n/a	RESPONSE	M5	1	21	A4	release
543.472	n/a	RESPONSE	M5	1	21	A4	press
543.653	n/a	RESPONSE	M5	1	21	A4	release
543.715	n/a	RESPONSE	M5	1	21	A4	press
544.046	n/a	RESPONSE	M5	1	21	A4	release
544.168	n/a	RESPONSE	M5	1	21	A4	press
544.368	n/a	RESPONSE	M5	1	21	A4	release
544.431	n/a	RESPONSE	M5	1	21	A4	press
544.611	n/a	RESPONSE	M5	1	21	A4	release
544.662	n/a	RESPONSE	M5	1	21	A4	press
544.906	n/a	RESPONSE	M5	1	21	A4	release
545.065	n/a	RESPONSE	M5	1	21	A4	press
545.317	n/a	RESPONSE	M5	1	24	C5	press
545.577	n/a	RESPONSE	M5	1	24	C5	release
546.198	n/a	RESPONSE	M5	1	21	A4	release
546.31	n/a	RESPONSE	M5	1	21	A4	press
546.551	n/a	RESPONSE	M5	1	24	C5	press
546.842	n/a	RESPONSE	M5	1	17	F4	press
546.918	n/a	RESPONSE	M5	1	21	A4	release
547.055	n/a	RESPONSE	M5	1	24	C5	release
547.107	n/a	RESPONSE	M5	1	19	G4	press
547.38	n/a	RESPONSE	M5	1	17	F4	release
547.383	n/a	RESPONSE	M5	1	21	A4	press
547.5	n/a	RESPONSE	M5	1	19	G4	release
548.536	n/a	RESPONSE	M5	1	21	A4	release
549.053	7.758	FIXCROSS	n/a	n/a	n/a	n/a	n/a
556.811	6.317	CUE_LISTEN	M5	2	n/a	n/a	n/a
563.128	7.758	FIXCROSS	n/a	n/a	n/a	n/a	n/a
570.886	6.317	CUE_PLAYBACK_RIGHT_HAND	M5	2	n/a	n/a	n/a
571.424	n/a	RESPONSE	M5	2	22	A#4	press
571.875	n/a	RESPONSE	M5	2	22	A#4	release
571.935	n/a	RESPONSE	M5	2	22	A#4	press
572.097	n/a	RESPONSE	M5	2	22	A#4	release
572.158	n/a	RESPONSE	M5	2	22	A#4	press
572.318	n/a	RESPONSE	M5	2	22	A#4	release
572.4	n/a	RESPONSE	M5	2	22	A#4	press
572.561	n/a	RESPONSE	M5	2	22	A#4	release
572.672	n/a	RESPONSE	M5	2	22	A#4	press
572.954	n/a	RESPONSE	M5	2	21	A4	press
573.076	n/a	RESPONSE	M5	2	22	A#4	release
573.156	n/a	RESPONSE	M5	2	21	A4	release
573.208	n/a	RESPONSE	M5	2	21	A4	press
573.388	n/a	RESPONSE	M5	2	21	A4	release
573.471	n/a	RESPONSE	M5	2	21	A4	press
573.642	n/a	RESPONSE	M5	2	21	A4	release
573.755	n/a	RESPONSE	M5	2	21	A4	press
574.434	n/a	RESPONSE	M5	2	21	A4	release
574.537	n/a	RESPONSE	M5	2	24	C5	press
574.726	n/a	RESPONSE	M5	2	24	C5	release
574.807	n/a	RESPONSE	M5	2	24	C5	press
575.001	n/a	RESPONSE	M5	2	24	C5	release
575.13	n/a	RESPONSE	M5	2	22	A#4	press
575.492	n/a	RESPONSE	M5	2	19	G4	press
575.782	n/a	RESPONSE	M5	2	22	A#4	release
575.924	n/a	RESPONSE	M5	2	17	F4	press
576.185	n/a	RESPONSE	M5	2	19	G4	release
577.035	n/a	RESPONSE	M5	2	17	F4	release
577.203	7.758	FIXCROSS	n/a	n/a	n/a	n/a	n/a
584.961	6.325	CUE_LISTEN	M1	1	n/a	n/a	n/a
589.887	n/a	RESPONSE	M1	1	04	E3	press
591.286	7.758	FIXCROSS	n/a	n/a	n/a	n/a	n/a
591.626	n/a	RESPONSE	M1	1	04	E3	release
599.044	6.317	CUE_PLAYBACK_BOTH_HANDS	M1	1	n/a	n/a	n/a
599.746	n/a	RESPONSE	M1	1	19	G4	press
599.75	n/a	RESPONSE	M1	1	07	G3	press
599.752	n/a	RESPONSE	M1	1	04	E3	press
599.765	n/a	RESPONSE	M1	1	00	C3	press
600.227	n/a	RESPONSE	M1	1	16	E4	press
600.281	n/a	RESPONSE	M1	1	19	G4	release
600.528	n/a	RESPONSE	M1	1	16	E4	release
600.667	n/a	RESPONSE	M1	1	16	E4	press
600.748	n/a	RESPONSE	M1	1	00	C3	release
600.86	n/a	RESPONSE	M1	1	04	E3	release
600.911	n/a	RESPONSE	M1	1	16	E4	release
601.095	n/a	RESPONSE	M1	1	02	D3	press
601.133	n/a	RESPONSE	M1	1	17	F4	press
601.136	n/a	RESPONSE	M1	1	05	F3	press
601.156	n/a	RESPONSE	M1	1	16	E4	press
601.227	n/a	RESPONSE	M1	1	16	E4	release
601.578	n/a	RESPONSE	M1	1	14	D4	press
601.721	n/a	RESPONSE	M1	1	17	F4	release
601.822	n/a	RESPONSE	M1	1	14	D4	release
601.992	n/a	RESPONSE	M1	1	14	D4	press
602.174	n/a	RESPONSE	M1	1	05	F3	release
602.315	n/a	RESPONSE	M1	1	07	G3	release
602.317	n/a	RESPONSE	M1	1	14	D4	release
602.32	n/a	RESPONSE	M1	1	02	D3	release
602.438	n/a	RESPONSE	M1	1	04	E3	press
602.441	n/a	RESPONSE	M1	1	07	G3	press
602.444	n/a	RESPONSE	M1	1	12	C4	press
602.452	n/a	RESPONSE	M1	1	00	C3	press
602.703	n/a	RESPONSE	M1	1	16	E4	press
602.897	n/a	RESPONSE	M1	1	12	C4	release
602.996	n/a	RESPONSE	M1	1	19	G4	press
603.667	n/a	RESPONSE	M1	1	16	E4	release
603.758	n/a	RESPONSE	M1	1	19	G4	release
603.852	n/a	RESPONSE	M1	1	00	C3	release
604.081	n/a	RESPONSE	M1	1	07	G3	release
605.062	n/a	RESPONSE	M1	1	04	E3	release
605.361	7.758	FIXCROSS	n/a	n/a	n/a	n/a	n/a
613.12	6.317	CUE_LISTEN	M1	2	n/a	n/a	n/a
619.436	7.758	FIXCROSS	n/a	n/a	n/a	n/a	n/a
627.194	6.325	CUE_PLAYBACK_BOTH_HANDS	M1	2	n/a	n/a	n/a
628.04	n/a	RESPONSE	M1	2	19	G4	press
628.046	n/a	RESPONSE	M1	2	07	G3	press
628.048	n/a	RESPONSE	M1	2	00	C3	press
628.055	n/a	RESPONSE	M1	2	04	E3	press
628.537	n/a	RESPONSE	M1	2	16	E4	press
628.642	n/a	RESPONSE	M1	2	19	G4	release
628.802	n/a	RESPONSE	M1	2	16	E4	release
628.941	n/a	RESPONSE	M1	2	16	E4	press
629.037	n/a	RESPONSE	M1	2	00	C3	release
629.09	n/a	RESPONSE	M1	2	04	E3	release
629.217	n/a	RESPONSE	M1	2	16	E4	release
629.291	n/a	RESPONSE	M1	2	07	G3	release
629.377	n/a	RESPONSE	M1	2	02	D3	press
629.384	n/a	RESPONSE	M1	2	07	G3	press
629.398	n/a	RESPONSE	M1	2	17	F4	press
629.461	n/a	RESPONSE	M1	2	05	F3	press
629.887	n/a	RESPONSE	M1	2	14	D4	press
629.961	n/a	RESPONSE	M1	2	17	F4	release
630.135	n/a	RESPONSE	M1	2	14	D4	release
630.287	n/a	RESPONSE	M1	2	14	D4	press
630.46	n/a	RESPONSE	M1	2	05	F3	release
630.521	n/a	RESPONSE	M1	2	02	D3	release
630.572	n/a	RESPONSE	M1	2	14	D4	release
630.596	n/a	RESPONSE	M1	2	07	G3	release
630.735	n/a	RESPONSE	M1	2	07	G3	press
630.738	n/a	RESPONSE	M1	2	00	C3	press
630.747	n/a	RESPONSE	M1	2	04	E3	press
630.898	n/a	RESPONSE	M1	2	12	C4	press
631.0	n/a	RESPONSE	M1	2	14	D4	press
631.241	n/a	RESPONSE	M1	2	16	E4	press
631.374	n/a	RESPONSE	M1	2	12	C4	release
631.394	n/a	RESPONSE	M1	2	14	D4	release
631.515	n/a	RESPONSE	M1	2	12	C4	press
631.618	n/a	RESPONSE	M1	2	16	E4	release
632.317	n/a	RESPONSE	M1	2	04	E3	release
632.368	n/a	RESPONSE	M1	2	12	C4	release
632.38	n/a	RESPONSE	M1	2	07	G3	release
632.431	n/a	RESPONSE	M1	2	00	C3	release
633.52	7.758	FIXCROSS	n/a	n/a	n/a	n/a	n/a
641.278	6.317	CUE_LISTEN	M4	1	n/a	n/a	n/a
647.595	7.758	FIXCROSS	n/a	n/a	n/a	n/a	n/a
655.353	6.317	CUE_PLAYBACK_RIGHT_HAND	M4	1	n/a	n/a	n/a
655.757	n/a	RESPONSE	M4	1	12	C4	press
656.078	n/a	RESPONSE	M4	1	17	F4	press
656.53	n/a	RESPONSE	M4	1	21	A4	press
656.602	n/a	RESPONSE	M4	1	12	C4	release
656.732	n/a	RESPONSE	M4	1	17	F4	release
656.834	n/a	RESPONSE	M4	1	19	G4	press
657.115	n/a	RESPONSE	M4	1	21	A4	release
657.162	n/a	RESPONSE	M4	1	17	F4	press
657.352	n/a	RESPONSE	M4	1	19	G4	release
657.495	n/a	RESPONSE	M4	1	16	E4	press
657.632	n/a	RESPONSE	M4	1	17	F4	release
657.796	n/a	RESPONSE	M4	1	17	F4	press
657.887	n/a	RESPONSE	M4	1	16	E4	release
658.42	n/a	RESPONSE	M4	1	12	C4	press
658.452	n/a	RESPONSE	M4	1	17	F4	release
658.76	n/a	RESPONSE	M4	1	17	F4	press
659.297	n/a	RESPONSE	M4	1	21	A4	press
659.387	n/a	RESPONSE	M4	1	12	C4	release
659.588	n/a	RESPONSE	M4	1	17	F4	release
659.645	n/a	RESPONSE	M4	1	19	G4	press
659.824	n/a	RESPONSE	M4	1	21	A4	release
660.165	n/a	RESPONSE	M4	1	19	G4	release
660.245	n/a	RESPONSE	M4	1	19	G4	press
660.544	n/a	RESPONSE	M4	1	17	F4	press
660.845	n/a	RESPONSE	M4	1	16	E4	press
660.876	n/a	RESPONSE	M4	1	19	G4	release
660.948	n/a	RESPONSE	M4	1	17	F4	release
661.138	n/a	RESPONSE	M4	1	17	F4	press
661.282	n/a	RESPONSE	M4	1	16	E4	release
661.67	7.758	FIXCROSS	n/a	n/a	n/a	n/a	n/a
662.331	n/a	RESPONSE	M4	1	17	F4	release
669.428	6.325	CUE_LISTEN	M4	2	n/a	n/a	n/a
675.753	7.758	FIXCROSS	n/a	n/a	n/a	n/a	n/a
683.511	6.317	CUE_PLAYBACK_RIGHT_HAND	M4	2	n/a	n/a	n/a
683.942	n/a	RESPONSE	M4	2	12	C4	press
684.311	n/a	RESPONSE	M4	2	17	F4	press
684.542	n/a	RESPONSE	M4	2	12	C4	release
684.964	n/a	RESPONSE	M4	2	21	A4	press
685.005	n/a	RESPONSE	M4	2	19	G4	press
685.386	n/a	RESPONSE	M4	2	19	G4	release
685.417	n/a	RESPONSE	M4	2	21	A4	release
685.528	n/a	RESPONSE	M4	2	17	F4	release
685.71	n/a	RESPONSE	M4	2	21	A4	press
686.012	n/a	RESPONSE	M4	2	24	C5	press
686.112	n/a	RESPONSE	M4	2	21	A4	release
686.474	n/a	RESPONSE	M4	2	22	A#4	press
686.735	n/a	RESPONSE	M4	2	21	A4	press
686.888	n/a	RESPONSE	M4	2	22	A#4	release
686.917	n/a	RESPONSE	M4	2	24	C5	release
687.026	n/a	RESPONSE	M4	2	19	G4	press
687.175	n/a	RESPONSE	M4	2	21	A4	release
687.868	n/a	RESPONSE	M4	2	12	C4	press
687.917	n/a	RESPONSE	M4	2	14	D4	press
688.124	n/a	RESPONSE	M4	2	19	G4	release
688.227	n/a	RESPONSE	M4	2	14	D4	release
688.287	n/a	RESPONSE	M4	2	12	C4	release
688.386	n/a	RESPONSE	M4	2	12	C4	press
688.83	n/a	RESPONSE	M4	2	16	E4	press
689.01	n/a	RESPONSE	M4	2	12	C4	release
689.266	n/a	RESPONSE	M4	2	19	G4	press
689.28	n/a	RESPONSE	M4	2	17	F4	press
689.442	n/a	RESPONSE	M4	2	16	E4	release
689.551	n/a	RESPONSE	M4	2	17	F4	release
689.594	n/a	RESPONSE	M4	2	16	E4	press
689.614	n/a	RESPONSE	M4	2	19	G4	release
689.7	n/a	RESPONSE	M4	2	16	E4	release
689.828	7.758	FIXCROSS	n/a	n/a	n/a	n/a	n/a
690.006	n/a	RESPONSE	M4	2	12	C4	press
690.266	n/a	RESPONSE	M4	2	16	E4	press
690.375	n/a	RESPONSE	M4	2	12	C4	release
690.628	n/a	RESPONSE	M4	2	19	G4	press
691.03	n/a	RESPONSE	M4	2	16	E4	release
691.281	n/a	RESPONSE	M4	2	22	A#4	press
691.382	n/a	RESPONSE	M4	2	19	G4	release
691.656	n/a	RESPONSE	M4	2	21	A4	press
691.855	n/a	RESPONSE	M4	2	22	A#4	release
691.966	n/a	RESPONSE	M4	2	19	G4	press
692.137	n/a	RESPONSE	M4	2	21	A4	release
692.318	n/a	RESPONSE	M4	2	17	F4	press
692.85	n/a	RESPONSE	M4	2	19	G4	release
692.981	n/a	RESPONSE	M4	2	17	F4	release
697.586	6.317	CUE_LISTEN	M2	1	n/a	n/a	n/a
703.903	7.758	FIXCROSS	n/a	n/a	n/a	n/a	n/a
704.464	n/a	RESPONSE	M2	1	07	G3	press
705.607	n/a	RESPONSE	M2	1	07	G3	release
705.887	n/a	RESPONSE	M2	1	04	E3	press
709.212	n/a	RESPONSE	M2	1	04	E3	release
711.661	6.325	CUE_PLAYBACK_BOTH_HANDS	M2	1	n/a	n/a	n/a
712.242	n/a	RESPONSE	M2	1	24	C5	press
712.254	n/a	RESPONSE	M2	1	00	C3	press
712.256	n/a	RESPONSE	M2	1	07	G3	press
712.706	n/a	RESPONSE	M2	1	19	G4	press
712.968	n/a	RESPONSE	M2	1	24	C5	release
713.018	n/a	RESPONSE	M2	1	07	G3	release
713.032	n/a	RESPONSE	M2	1	19	G4	release
713.042	n/a	RESPONSE	M2	1	00	C3	release
713.112	n/a	RESPONSE	M2	1	00	C3	press
713.124	n/a	RESPONSE	M2	1	19	G4	press
713.126	n/a	RESPONSE	M2	1	07	G3	press
713.508	n/a	RESPONSE	M2	1	17	F4	press
713.637	n/a	RESPONSE	M2	1	19	G4	release
713.718	n/a	RESPONSE	M2	1	07	G3	release
713.93	n/a	RESPONSE	M2	1	07	G3	press
713.932	n/a	RESPONSE	M2	1	16	E4	press
714.112	n/a	RESPONSE	M2	1	17	F4	release
714.374	n/a	RESPONSE	M2	1	14	D4	press
714.765	n/a	RESPONSE	M2	1	14	D4	release
714.777	n/a	RESPONSE	M2	1	00	C3	release
714.837	n/a	RESPONSE	M2	1	16	E4	release
714.848	n/a	RESPONSE	M2	1	07	G3	release
715.46	n/a	RESPONSE	M2	1	23	B4	press
715.504	n/a	RESPONSE	M2	1	00	C3	press
715.522	n/a	RESPONSE	M2	1	07	G3	press
715.904	n/a	RESPONSE	M2	1	19	G4	press
715.915	n/a	RESPONSE	M2	1	17	F4	press
716.137	n/a	RESPONSE	M2	1	17	F4	release
716.15	n/a	RESPONSE	M2	1	19	G4	release
716.298	n/a	RESPONSE	M2	1	17	F4	press
716.31	n/a	RESPONSE	M2	1	00	C3	release
716.321	n/a	RESPONSE	M2	1	19	G4	press
716.372	n/a	RESPONSE	M2	1	23	B4	release
716.534	n/a	RESPONSE	M2	1	07	G3	release
716.695	n/a	RESPONSE	M2	1	16	E4	press
716.697	n/a	RESPONSE	M2	1	19	G4	release
716.818	n/a	RESPONSE	M2	1	17	F4	release
717.061	n/a	RESPONSE	M2	1	07	G3	press
717.064	n/a	RESPONSE	M2	1	00	C3	press
717.116	n/a	RESPONSE	M2	1	14	D4	press
717.235	n/a	RESPONSE	M2	1	16	E4	release
717.512	n/a	RESPONSE	M2	1	16	E4	press
717.521	n/a	RESPONSE	M2	1	17	F4	press
717.855	n/a	RESPONSE	M2	1	14	D4	release
717.876	n/a	RESPONSE	M2	1	16	E4	release
717.924	n/a	RESPONSE	M2	1	00	C3	release
717.986	7.758	FIXCROSS	n/a	n/a	n/a	n/a	n/a
718.474	n/a	RESPONSE	M2	1	17	F4	release
721.154	n/a	RESPONSE	M2	1	07	G3	release
725.745	6.317	CUE_LISTEN	M2	2	n/a	n/a	n/a
727.542	n/a	RESPONSE	M2	2	07	G3	press
732.061	7.758	FIXCROSS	n/a	n/a	n/a	n/a	n/a
738.741	n/a	RESPONSE	M2	2	07	G3	release
739.82	6.325	CUE_PLAYBACK_BOTH_HANDS	M2	2	n/a	n/a	n/a
740.246	n/a	RESPONSE	M2	2	24	C5	press
740.25	n/a	RESPONSE	M2	2	00	C3	press
740.255	n/a	RESPONSE	M2	2	07	G3	press
740.757	n/a	RESPONSE	M2	2	19	G4	press
740.788	n/a	RESPONSE	M2	2	21	A4	press
740.84	n/a	RESPONSE	M2	2	24	C5	release
741.041	n/a	RESPONSE	M2	2	21	A4	release
741.054	n/a	RESPONSE	M2	2	00	C3	release
741.095	n/a	RESPONSE	M2	2	19	G4	release
741.146	n/a	RESPONSE	M2	2	07	G3	release
741.386	n/a	RESPONSE	M2	2	24	C5	press
741.397	n/a	RESPONSE	M2	2	00	C3	press
741.408	n/a	RESPONSE	M2	2	07	G3	press
741.78	n/a	RESPONSE	M2	2	19	G4	press
742.031	n/a	RESPONSE	M2	2	24	C5	release
742.085	n/a	RESPONSE	M2	2	00	C3	release
742.105	n/a	RESPONSE	M2	2	19	G4	release
742.116	n/a	RESPONSE	M2	2	07	G3	release
742.19	n/a	RESPONSE	M2	2	00	C3	press
742.198	n/a	RESPONSE	M2	2	07	G3	press
742.21	n/a	RESPONSE	M2	2	19	G4	press
742.562	n/a	RESPONSE	M2	2	17	F4	press
742.682	n/a	RESPONSE	M2	2	19	G4	release
742.754	n/a	RESPONSE	M2	2	00	C3	release
742.805	n/a	RESPONSE	M2	2	07	G3	release
742.956	n/a	RESPONSE	M2	2	07	G3	press
742.958	n/a	RESPONSE	M2	2	16	E4	press
742.988	n/a	RESPONSE	M2	2	00	C3	press
743.06	n/a	RESPONSE	M2	2	17	F4	release
743.351	n/a	RESPONSE	M2	2	14	D4	press
743.492	n/a	RESPONSE	M2	2	00	C3	release
743.514	n/a	RESPONSE	M2	2	16	E4	release
743.545	n/a	RESPONSE	M2	2	07	G3	release
743.757	n/a	RESPONSE	M2	2	07	G3	press
743.76	n/a	RESPONSE	M2	2	12	C4	press
743.778	n/a	RESPONSE	M2	2	00	C3	press
743.89	n/a	RESPONSE	M2	2	14	D4	release
744.351	n/a	RESPONSE	M2	2	00	C3	release
744.595	n/a	RESPONSE	M2	2	12	C4	release
746.004	n/a	RESPONSE	M2	2	07	G3	release
746.145	7.758	FIXCROSS	n/a	n/a	n/a	n/a	n/a
753.903	6.317	CUE_LISTEN	M2	1	n/a	n/a	n/a
760.22	7.758	FIXCROSS	n/a	n/a	n/a	n/a	n/a
767.978	6.317	CUE_PLAYBACK_BOTH_HANDS	M2	1	n/a	n/a	n/a
768.806	n/a	RESPONSE	M2	1	07	G3	press
768.816	n/a	RESPONSE	M2	1	00	C3	press
768.818	n/a	RESPONSE	M2	1	12	C4	press
769.27	n/a	RESPONSE	M2	1	14	D4	press
769.474	n/a	RESPONSE	M2	1	00	C3	release
769.49	n/a	RESPONSE	M2	1	07	G3	release
769.594	n/a	RESPONSE	M2	1	12	C4	release
769.716	n/a	RESPONSE	M2	1	00	C3	press
769.718	n/a	RESPONSE	M2	1	07	G3	press
769.728	n/a	RESPONSE	M2	1	16	E4	press
769.829	n/a	RESPONSE	M2	1	14	D4	release
770.147	n/a	RESPONSE	M2	1	14	D4	press
770.216	n/a	RESPONSE	M2	1	16	E4	release
770.226	n/a	RESPONSE	M2	1	00	C3	release
770.241	n/a	RESPONSE	M2	1	07	G3	release
770.55	n/a	RESPONSE	M2	1	07	G3	press
770.562	n/a	RESPONSE	M2	1	00	C3	press
770.565	n/a	RESPONSE	M2	1	16	E4	press
770.574	n/a	RESPONSE	M2	1	17	F4	press
770.625	n/a	RESPONSE	M2	1	14	D4	release
770.726	n/a	RESPONSE	M2	1	17	F4	release
770.998	n/a	RESPONSE	M2	1	17	F4	press
771.15	n/a	RESPONSE	M2	1	07	G3	release
771.17	n/a	RESPONSE	M2	1	00	C3	release
771.211	n/a	RESPONSE	M2	1	16	E4	release
771.412	n/a	RESPONSE	M2	1	19	G4	press
771.424	n/a	RESPONSE	M2	1	07	G3	press
771.435	n/a	RESPONSE	M2	1	00	C3	press
771.486	n/a	RESPONSE	M2	1	17	F4	release
772.08	n/a	RESPONSE	M2	1	00	C3	release
772.22	n/a	RESPONSE	M2	1	19	G4	release
772.252	n/a	RESPONSE	M2	1	07	G3	release
774.295	7.758	FIXCROSS	n/a	n/a	n/a	n/a	n/a
782.053	6.317	CUE_LISTEN	M2	2	n/a	n/a	n/a
788.37	7.758	FIXCROSS	n/a	n/a	n/a	n/a	n/a
796.128	6.325	CUE_PLAYBACK_BOTH_HANDS	M2	2	n/a	n/a	n/a
796.876	n/a	RESPONSE	M2	2	07	G3	press
796.88	n/a	RESPONSE	M2	2	00	C3	press
796.882	n/a	RESPONSE	M2	2	16	E4	press
797.39	n/a	RESPONSE	M2	2	16	E4	release
797.582	n/a	RESPONSE	M2	2	19	G4	press
797.616	n/a	RESPONSE	M2	2	00	C3	release
797.756	n/a	RESPONSE	M2	2	07	G3	release
798.031	n/a	RESPONSE	M2	2	00	C3	press
798.04	n/a	RESPONSE	M2	2	07	G3	press
798.056	n/a	RESPONSE	M2	2	17	F4	press
798.466	n/a	RESPONSE	M2	2	17	F4	release
798.472	n/a	RESPONSE	M2	2	19	G4	release
798.541	n/a	RESPONSE	M2	2	00	C3	release
798.617	n/a	RESPONSE	M2	2	07	G3	release
798.822	n/a	RESPONSE	M2	2	07	G3	press
798.835	n/a	RESPONSE	M2	2	00	C3	press
798.84	n/a	RESPONSE	M2	2	14	D4	press
799.3	n/a	RESPONSE	M2	2	14	D4	release
799.427	n/a	RESPONSE	M2	2	00	C3	release
799.452	n/a	RESPONSE	M2	2	07	G3	release
799.646	n/a	RESPONSE	M2	2	16	E4	press
799.648	n/a	RESPONSE	M2	2	07	G3	press
799.655	n/a	RESPONSE	M2	2	00	C3	press
800.04	n/a	RESPONSE	M2	2	16	E4	release
800.077	n/a	RESPONSE	M2	2	19	G4	press
800.336	n/a	RESPONSE	M2	2	07	G3	release
800.351	n/a	RESPONSE	M2	2	00	C3	release
800.41	n/a	RESPONSE	M2	2	19	G4	release
800.474	n/a	RESPONSE	M2	2	00	C3	press
800.476	n/a	RESPONSE	M2	2	19	G4	press
800.486	n/a	RESPONSE	M2	2	07	G3	press
800.847	n/a	RESPONSE	M2	2	17	F4	press
801.048	n/a	RESPONSE	M2	2	07	G3	release
801.051	n/a	RESPONSE	M2	2	00	C3	release
801.241	n/a	RESPONSE	M2	2	19	G4	release
801.252	n/a	RESPONSE	M2	2	16	E4	press
801.255	n/a	RESPONSE	M2	2	00	C3	press
801.257	n/a	RESPONSE	M2	2	07	G3	press
801.466	n/a	RESPONSE	M2	2	17	F4	release
801.599	n/a	RESPONSE	M2	2	14	D4	press
801.728	n/a	RESPONSE	M2	2	16	E4	release
801.77	n/a	RESPONSE	M2	2	00	C3	release
801.791	n/a	RESPONSE	M2	2	07	G3	release
802.002	n/a	RESPONSE	M2	2	12	C4	press
802.014	n/a	RESPONSE	M2	2	07	G3	press
802.025	n/a	RESPONSE	M2	2	00	C3	press
802.453	7.758	FIXCROSS	n/a	n/a	n/a	n/a	n/a
802.546	n/a	RESPONSE	M2	2	00	C3	release
802.577	n/a	RESPONSE	M2	2	14	D4	release
802.599	n/a	RESPONSE	M2	2	07	G3	release
802.64	n/a	RESPONSE	M2	2	12	C4	release
810.212	6.317	CUE_LISTEN	M3	1	n/a	n/a	n/a
816.528	7.758	FIXCROSS	n/a	n/a	n/a	n/a	n/a
824.287	6.325	CUE_PLAYBACK_RIGHT_HAND	M3	1	n/a	n/a	n/a
824.72	n/a	RESPONSE	M3	1	12	C4	press
825.201	n/a	RESPONSE	M3	1	14	D4	press
825.654	n/a	RESPONSE	M3	1	12	C4	release
825.664	n/a	RESPONSE	M3	1	16	E4	press
825.835	n/a	RESPONSE	M3	1	14	D4	release
826.136	n/a	RESPONSE	M3	1	12	C4	press
826.467	n/a	RESPONSE	M3	1	16	E4	release
826.508	n/a	RESPONSE	M3	1	12	C4	release
826.63	n/a	RESPONSE	M3	1	12	C4	press
827.085	n/a	RESPONSE	M3	1	14	D4	press
827.147	n/a	RESPONSE	M3	1	12	C4	release
827.521	n/a	RESPONSE	M3	1	16	E4	press
827.629	n/a	RESPONSE	M3	1	14	D4	release
828.027	n/a	RESPONSE	M3	1	12	C4	press
828.381	n/a	RESPONSE	M3	1	16	E4	release
828.778	n/a	RESPONSE	M3	1	12	C4	release
830.612	7.758	FIXCROSS	n/a	n/a	n/a	n/a	n/a
838.37	6.317	CUE_LISTEN	M3	2	n/a	n/a	n/a
844.687	7.758	FIXCROSS	n/a	n/a	n/a	n/a	n/a
852.445	6.317	CUE_PLAYBACK_RIGHT_HAND	M3	2	n/a	n/a	n/a
853.004	n/a	RESPONSE	M3	2	16	E4	press
853.456	n/a	RESPONSE	M3	2	17	F4	press
853.916	n/a	RESPONSE	M3	2	19	G4	press
853.987	n/a	RESPONSE	M3	2	16	E4	release
854.038	n/a	RESPONSE	M3	2	17	F4	release
854.86	n/a	RESPONSE	M3	2	16	E4	press
854.904	n/a	RESPONSE	M3	2	19	G4	release
855.292	n/a	RESPONSE	M3	2	17	F4	press
855.774	n/a	RESPONSE	M3	2	19	G4	press
855.815	n/a	RESPONSE	M3	2	16	E4	release
855.976	n/a	RESPONSE	M3	2	17	F4	release
856.797	n/a	RESPONSE	M3	2	19	G4	release
858.762	7.758	FIXCROSS	n/a	n/a	n/a	n/a	n/a
866.52	6.325	CUE_LISTEN	M3	1	n/a	n/a	n/a
872.845	7.758	FIXCROSS	n/a	n/a	n/a	n/a	n/a
880.604	6.317	CUE_PLAYBACK_RIGHT_HAND	M3	1	n/a	n/a	n/a
881.146	n/a	RESPONSE	M3	1	19	G4	press
881.378	n/a	RESPONSE	M3	1	21	A4	press
881.479	n/a	RESPONSE	M3	1	19	G4	release
881.67	n/a	RESPONSE	M3	1	19	G4	press
881.901	n/a	RESPONSE	M3	1	17	F4	press
881.904	n/a	RESPONSE	M3	1	21	A4	release
882.185	n/a	RESPONSE	M3	1	16	E4	press
882.187	n/a	RESPONSE	M3	1	19	G4	release
882.306	n/a	RESPONSE	M3	1	17	F4	release
882.687	n/a	RESPONSE	M3	1	14	D4	press
882.699	n/a	RESPONSE	M3	1	12	C4	press
883.071	n/a	RESPONSE	M3	1	12	C4	release
883.081	n/a	RESPONSE	M3	1	14	D4	release
883.162	n/a	RESPONSE	M3	1	16	E4	release
883.296	n/a	RESPONSE	M3	1	19	G4	press
883.555	n/a	RESPONSE	M3	1	21	A4	press
883.616	n/a	RESPONSE	M3	1	19	G4	release
883.827	n/a	RESPONSE	M3	1	19	G4	press
884.069	n/a	RESPONSE	M3	1	21	A4	release
884.08	n/a	RESPONSE	M3	1	17	F4	press
884.324	n/a	RESPONSE	M3	1	19	G4	release
884.332	n/a	RESPONSE	M3	1	16	E4	press
884.446	n/a	RESPONSE	M3	1	17	F4	release
884.837	n/a	RESPONSE	M3	1	14	D4	press
885.306	n/a	RESPONSE	M3	1	14	D4	release
885.427	n/a	RESPONSE	M3	1	12	C4	press
885.989	n/a	RESPONSE	M3	1	16	E4	release
886.14	n/a	RESPONSE	M3	1	12	C4	release
886.92	7.758	FIXCROSS	n/a	n/a	n/a	n/a	n/a
894.679	6.317	CUE_LISTEN	M3	2	n/a	n/a	n/a
900.995	7.758	FIXCROSS	n/a	n/a	n/a	n/a	n/a
903.75	n/a	RESPONSE	M3	2	12	C4	press
906.212	n/a	RESPONSE	M3	2	12	C4	release
908.225	n/a	RESPONSE	M3	2	12	C4	press
908.754	257.44	CUE_PLAYBACK_RIGHT_HAND	M3	2	n/a	n/a	n/a
909.026	n/a	RESPONSE	M3	2	12	C4	release
909.211	n/a	RESPONSE	M3	2	12	C4	press
909.781	n/a	RESPONSE	M3	2	07	G3	press
910.171	n/a	RESPONSE	M3	2	12	C4	release
910.372	n/a	RESPONSE	M3	2	12	C4	press
910.539	n/a	RESPONSE	M3	2	07	G3	release
911.151	n/a	RESPONSE	M3	2	12	C4	release
911.49	n/a	RESPONSE	M3	2	12	C4	press
912.012	n/a	RESPONSE	M3	2	07	G3	press
912.062	n/a	RESPONSE	M3	2	05	F3	press
912.174	n/a	RESPONSE	M3	2	12	C4	release
912.185	n/a	RESPONSE	M3	2	05	F3	release
912.606	n/a	RESPONSE	M3	2	12	C4	press
912.737	n/a	RESPONSE	M3	2	07	G3	release
913.247	n/a	FIXCROSS	n/a	n/a	n/a	n/a	n/a
913.659	n/a	RESPONSE	M3	2	12	C4	release
1098.655	n/a	RESPONSE	M3	2	09	A3	press
1098.89	n/a	RESPONSE	M3	2	09	A3	release
