onset	duration	trial_type	trial_number	stroop_condition	stim_text(PL)	stim_text(eng)	stim_color(PL)	stim_color(eng)	response_type	response_color
0.0	n/a	RESPONSE	n/a	n/a	n/a	n/a	n/a	n/a	n/a	n/a
0.0568	1.0333	ITI	n/a	n/a	n/a	n/a	n/a	n/a	n/a	n/a
1.0901	0.5167	FIXCROSS	n/a	n/a	n/a	n/a	n/a	n/a	n/a	n/a
1.6068	0.9	T_INK	1	Incongruent	niebieski	blue	żółty	yellow	hit	n/a
2.4794	n/a	RESPONSE	n/a	n/a	n/a	n/a	n/a	n/a	n/a	yellow
2.5068	0.5167	FEEDBACK	n/a	n/a	n/a	n/a	n/a	n/a	n/a	n/a
3.0235	1.0167	ITI	n/a	n/a	n/a	n/a	n/a	n/a	n/a	n/a
4.0401	0.5167	FIXCROSS	n/a	n/a	n/a	n/a	n/a	n/a	n/a	n/a
4.5568	0.7167	T_INK	2	Neutral	xxxxxxxxx	xxxxxxxxx	zielony	green	incorrect	n/a
5.2467	n/a	RESPONSE	n/a	n/a	n/a	n/a	n/a	n/a	n/a	blue
5.2735	0.5167	FEEDBACK	n/a	n/a	n/a	n/a	n/a	n/a	n/a	n/a
5.7902	1.0167	ITI	n/a	n/a	n/a	n/a	n/a	n/a	n/a	n/a
6.8068	0.5167	FIXCROSS	n/a	n/a	n/a	n/a	n/a	n/a	n/a	n/a
7.3235	0.8	T_INK	3	Neutral	xxxxxxxx	xxxxxxxx	zielony	green	hit	n/a
8.094	n/a	RESPONSE	n/a	n/a	n/a	n/a	n/a	n/a	n/a	green
8.1235	0.5167	FEEDBACK	n/a	n/a	n/a	n/a	n/a	n/a	n/a	n/a
8.6402	1.0167	ITI	n/a	n/a	n/a	n/a	n/a	n/a	n/a	n/a
9.6568	0.5167	FIXCROSS	n/a	n/a	n/a	n/a	n/a	n/a	n/a	n/a
10.1735	0.8	T_INK	4	Neutral	xxxxxxx	xxxxxxx	żółty	yellow	hit	n/a
10.9413	n/a	RESPONSE	n/a	n/a	n/a	n/a	n/a	n/a	n/a	yellow
10.9735	0.5167	FEEDBACK	n/a	n/a	n/a	n/a	n/a	n/a	n/a	n/a
11.4902	1.0167	ITI	n/a	n/a	n/a	n/a	n/a	n/a	n/a	n/a
12.5069	0.5167	FIXCROSS	n/a	n/a	n/a	n/a	n/a	n/a	n/a	n/a
13.0235	0.7	T_INK	5	Incongruent	czerwony	red	zielony	green	hit	n/a
13.6926	n/a	RESPONSE	n/a	n/a	n/a	n/a	n/a	n/a	n/a	green
13.7235	0.5167	FEEDBACK	n/a	n/a	n/a	n/a	n/a	n/a	n/a	n/a
14.2402	1.0167	ITI	n/a	n/a	n/a	n/a	n/a	n/a	n/a	n/a
15.2569	0.5167	FIXCROSS	n/a	n/a	n/a	n/a	n/a	n/a	n/a	n/a
15.7736	0.8667	T_INK	6	Neutral	xxxxxxx	xxxxxxx	czerwony	red	hit	n/a
16.6039	n/a	RESPONSE	n/a	n/a	n/a	n/a	n/a	n/a	n/a	red
16.6402	0.5167	FEEDBACK	n/a	n/a	n/a	n/a	n/a	n/a	n/a	n/a
17.1569	1.0167	ITI	n/a	n/a	n/a	n/a	n/a	n/a	n/a	n/a
18.1736	0.5167	FIXCROSS	n/a	n/a	n/a	n/a	n/a	n/a	n/a	n/a
18.6902	0.5	T_INK	7	Incongruent	czerwony	red	niebieski	blue	hit	n/a
19.1633	n/a	RESPONSE	n/a	n/a	n/a	n/a	n/a	n/a	n/a	blue
19.1902	0.5167	FEEDBACK	n/a	n/a	n/a	n/a	n/a	n/a	n/a	n/a
19.7069	1.0167	ITI	n/a	n/a	n/a	n/a	n/a	n/a	n/a	n/a
20.7236	0.5167	FIXCROSS	n/a	n/a	n/a	n/a	n/a	n/a	n/a	n/a
21.2403	0.5	T_INK	8	Incongruent	zielony	green	czerwony	red	hit	n/a
21.7066	n/a	RESPONSE	n/a	n/a	n/a	n/a	n/a	n/a	n/a	red
21.7403	0.5167	FEEDBACK	n/a	n/a	n/a	n/a	n/a	n/a	n/a	n/a
22.2569	1.0167	ITI	n/a	n/a	n/a	n/a	n/a	n/a	n/a	n/a
23.2736	0.5167	FIXCROSS	n/a	n/a	n/a	n/a	n/a	n/a	n/a	n/a
23.7903	0.8667	T_INK	9	Neutral	xxxxxxx	xxxxxxx	niebieski	blue	hit	n/a
24.6339	n/a	RESPONSE	n/a	n/a	n/a	n/a	n/a	n/a	n/a	blue
24.6569	0.5167	FEEDBACK	n/a	n/a	n/a	n/a	n/a	n/a	n/a	n/a
25.1736	1.0167	ITI	n/a	n/a	n/a	n/a	n/a	n/a	n/a	n/a
26.1903	0.5167	FIXCROSS	n/a	n/a	n/a	n/a	n/a	n/a	n/a	n/a
26.707	1.3167	T_INK	10	Incongruent	żółty	yellow	zielony	green	hit	n/a
27.9931	n/a	RESPONSE	n/a	n/a	n/a	n/a	n/a	n/a	n/a	green
28.0236	0.5167	FEEDBACK	n/a	n/a	n/a	n/a	n/a	n/a	n/a	n/a
28.5403	1.0167	ITI	n/a	n/a	n/a	n/a	n/a	n/a	n/a	n/a
29.557	0.5167	FIXCROSS	n/a	n/a	n/a	n/a	n/a	n/a	n/a	n/a
30.0737	0.9667	T_INK	11	Incongruent	czerwony	red	żółty	yellow	incorrect	n/a
31.0164	n/a	RESPONSE	n/a	n/a	n/a	n/a	n/a	n/a	n/a	red
31.0403	0.5167	FEEDBACK	n/a	n/a	n/a	n/a	n/a	n/a	n/a	n/a
31.557	1.0167	ITI	n/a	n/a	n/a	n/a	n/a	n/a	n/a	n/a
32.5737	0.5167	FIXCROSS	n/a	n/a	n/a	n/a	n/a	n/a	n/a	n/a
33.0904	0.95	T_INK	12	Incongruent	zielony	green	żółty	yellow	hit	n/a
34.0076	n/a	RESPONSE	n/a	n/a	n/a	n/a	n/a	n/a	n/a	yellow
34.0403	0.5167	FEEDBACK	n/a	n/a	n/a	n/a	n/a	n/a	n/a	n/a
34.557	1.0334	ITI	n/a	n/a	n/a	n/a	n/a	n/a	n/a	n/a
38.7584	n/a	RESPONSE	n/a	n/a	n/a	n/a	n/a	n/a	n/a	n/a
38.8237	1.0167	ITI	n/a	n/a	n/a	n/a	n/a	n/a	n/a	n/a
39.8404	0.5167	FIXCROSS	n/a	n/a	n/a	n/a	n/a	n/a	n/a	n/a
40.3571	0.9333	INK	1	Incongruent	czerwony	red	zielony	green	hit	n/a
41.2698	n/a	RESPONSE	n/a	n/a	n/a	n/a	n/a	n/a	n/a	green
41.2904	1.0167	ITI	n/a	n/a	n/a	n/a	n/a	n/a	n/a	n/a
42.3071	0.5167	FIXCROSS	n/a	n/a	n/a	n/a	n/a	n/a	n/a	n/a
42.8237	0.7667	INK	2	Neutral	xxxxxxxxx	xxxxxxxxx	czerwony	red	hit	n/a
43.5572	n/a	RESPONSE	n/a	n/a	n/a	n/a	n/a	n/a	n/a	red
43.5904	1.0167	ITI	n/a	n/a	n/a	n/a	n/a	n/a	n/a	n/a
44.6071	0.5167	FIXCROSS	n/a	n/a	n/a	n/a	n/a	n/a	n/a	n/a
45.1238	0.7833	INK	3	Neutral	xxxxx	xxxxx	zielony	green	hit	n/a
45.8767	n/a	RESPONSE	n/a	n/a	n/a	n/a	n/a	n/a	n/a	green
45.9071	1.0167	ITI	n/a	n/a	n/a	n/a	n/a	n/a	n/a	n/a
46.9238	0.5167	FIXCROSS	n/a	n/a	n/a	n/a	n/a	n/a	n/a	n/a
47.4404	0.6167	INK	4	Incongruent	niebieski	blue	żółty	yellow	hit	n/a
48.0361	n/a	RESPONSE	n/a	n/a	n/a	n/a	n/a	n/a	n/a	yellow
48.0571	1.0167	ITI	n/a	n/a	n/a	n/a	n/a	n/a	n/a	n/a
49.0738	0.5167	FIXCROSS	n/a	n/a	n/a	n/a	n/a	n/a	n/a	n/a
49.5905	0.7167	INK	5	Neutral	xxxxxxxxx	xxxxxxxxx	żółty	yellow	hit	n/a
50.2756	n/a	RESPONSE	n/a	n/a	n/a	n/a	n/a	n/a	n/a	yellow
50.3071	1.0167	ITI	n/a	n/a	n/a	n/a	n/a	n/a	n/a	n/a
51.3238	0.5167	FIXCROSS	n/a	n/a	n/a	n/a	n/a	n/a	n/a	n/a
51.8405	0.6167	INK	6	Neutral	xxxxxxxx	xxxxxxxx	zielony	green	hit	n/a
52.4351	n/a	RESPONSE	n/a	n/a	n/a	n/a	n/a	n/a	n/a	green
52.4571	1.0167	ITI	n/a	n/a	n/a	n/a	n/a	n/a	n/a	n/a
53.4738	0.5167	FIXCROSS	n/a	n/a	n/a	n/a	n/a	n/a	n/a	n/a
53.9905	0.9667	INK	7	Incongruent	niebieski	blue	żółty	yellow	hit	n/a
54.9305	n/a	RESPONSE	n/a	n/a	n/a	n/a	n/a	n/a	n/a	yellow
54.9572	1.0167	ITI	n/a	n/a	n/a	n/a	n/a	n/a	n/a	n/a
55.9738	0.5167	FIXCROSS	n/a	n/a	n/a	n/a	n/a	n/a	n/a	n/a
56.4905	0.7334	INK	8	Neutral	xxxxxxxxx	xxxxxxxxx	zielony	green	hit	n/a
57.2019	n/a	RESPONSE	n/a	n/a	n/a	n/a	n/a	n/a	n/a	green
57.2239	1.0167	ITI	n/a	n/a	n/a	n/a	n/a	n/a	n/a	n/a
58.2405	0.5167	FIXCROSS	n/a	n/a	n/a	n/a	n/a	n/a	n/a	n/a
58.7572	0.8333	INK	9	Incongruent	niebieski	blue	czerwony	red	hit	n/a
59.5693	n/a	RESPONSE	n/a	n/a	n/a	n/a	n/a	n/a	n/a	red
59.5905	1.0167	ITI	n/a	n/a	n/a	n/a	n/a	n/a	n/a	n/a
60.6072	0.5167	FIXCROSS	n/a	n/a	n/a	n/a	n/a	n/a	n/a	n/a
61.1239	0.6667	INK	10	Incongruent	zielony	green	niebieski	blue	hit	n/a
61.7608	n/a	RESPONSE	n/a	n/a	n/a	n/a	n/a	n/a	n/a	blue
61.7905	1.0167	ITI	n/a	n/a	n/a	n/a	n/a	n/a	n/a	n/a
62.8072	0.5167	FIXCROSS	n/a	n/a	n/a	n/a	n/a	n/a	n/a	n/a
63.3239	0.6	INK	11	Incongruent	czerwony	red	zielony	green	hit	n/a
63.9042	n/a	RESPONSE	n/a	n/a	n/a	n/a	n/a	n/a	n/a	green
63.9239	1.0167	ITI	n/a	n/a	n/a	n/a	n/a	n/a	n/a	n/a
64.9406	0.5167	FIXCROSS	n/a	n/a	n/a	n/a	n/a	n/a	n/a	n/a
65.4572	0.55	INK	12	Neutral	xxxxxxxxx	xxxxxxxxx	żółty	yellow	hit	n/a
65.9837	n/a	RESPONSE	n/a	n/a	n/a	n/a	n/a	n/a	n/a	yellow
66.0072	1.0167	ITI	n/a	n/a	n/a	n/a	n/a	n/a	n/a	n/a
67.0239	0.5167	FIXCROSS	n/a	n/a	n/a	n/a	n/a	n/a	n/a	n/a
67.5406	0.65	INK	13	Neutral	xxxxxxx	xxxxxxx	żółty	yellow	hit	n/a
68.1592	n/a	RESPONSE	n/a	n/a	n/a	n/a	n/a	n/a	n/a	yellow
68.1906	1.0167	ITI	n/a	n/a	n/a	n/a	n/a	n/a	n/a	n/a
69.2073	0.5167	FIXCROSS	n/a	n/a	n/a	n/a	n/a	n/a	n/a	n/a
69.7239	0.7833	INK	14	Neutral	xxxxxxx	xxxxxxx	niebieski	blue	hit	n/a
70.4786	n/a	RESPONSE	n/a	n/a	n/a	n/a	n/a	n/a	n/a	blue
70.5073	1.0167	ITI	n/a	n/a	n/a	n/a	n/a	n/a	n/a	n/a
71.5239	0.5167	FIXCROSS	n/a	n/a	n/a	n/a	n/a	n/a	n/a	n/a
72.0406	0.6667	INK	15	Incongruent	zielony	green	żółty	yellow	hit	n/a
72.6861	n/a	RESPONSE	n/a	n/a	n/a	n/a	n/a	n/a	n/a	yellow
72.7073	1.0167	ITI	n/a	n/a	n/a	n/a	n/a	n/a	n/a	n/a
73.724	0.5167	FIXCROSS	n/a	n/a	n/a	n/a	n/a	n/a	n/a	n/a
74.2406	0.5833	INK	16	Neutral	xxxxx	xxxxx	niebieski	blue	hit	n/a
74.7975	n/a	RESPONSE	n/a	n/a	n/a	n/a	n/a	n/a	n/a	blue
74.824	1.0167	ITI	n/a	n/a	n/a	n/a	n/a	n/a	n/a	n/a
75.8406	0.5167	FIXCROSS	n/a	n/a	n/a	n/a	n/a	n/a	n/a	n/a
76.3573	0.5167	INK	17	Neutral	xxxxxxxx	xxxxxxxx	niebieski	blue	hit	n/a
76.845	n/a	RESPONSE	n/a	n/a	n/a	n/a	n/a	n/a	n/a	blue
76.874	1.0167	ITI	n/a	n/a	n/a	n/a	n/a	n/a	n/a	n/a
77.8907	0.5167	FIXCROSS	n/a	n/a	n/a	n/a	n/a	n/a	n/a	n/a
78.4073	0.6833	INK	18	Incongruent	żółty	yellow	czerwony	red	hit	n/a
79.0685	n/a	RESPONSE	n/a	n/a	n/a	n/a	n/a	n/a	n/a	red
79.0907	1.0167	ITI	n/a	n/a	n/a	n/a	n/a	n/a	n/a	n/a
80.1073	0.5167	FIXCROSS	n/a	n/a	n/a	n/a	n/a	n/a	n/a	n/a
80.624	0.75	INK	19	Incongruent	niebieski	blue	czerwony	red	hit	n/a
81.3559	n/a	RESPONSE	n/a	n/a	n/a	n/a	n/a	n/a	n/a	red
81.374	1.0167	ITI	n/a	n/a	n/a	n/a	n/a	n/a	n/a	n/a
82.3907	0.5167	FIXCROSS	n/a	n/a	n/a	n/a	n/a	n/a	n/a	n/a
82.9074	0.5	INK	20	Incongruent	czerwony	red	zielony	green	hit	n/a
83.3874	n/a	RESPONSE	n/a	n/a	n/a	n/a	n/a	n/a	n/a	green
83.4074	1.0167	ITI	n/a	n/a	n/a	n/a	n/a	n/a	n/a	n/a
84.424	0.5167	FIXCROSS	n/a	n/a	n/a	n/a	n/a	n/a	n/a	n/a
84.9407	0.7667	INK	21	Incongruent	czerwony	red	niebieski	blue	hit	n/a
85.6748	n/a	RESPONSE	n/a	n/a	n/a	n/a	n/a	n/a	n/a	blue
85.7074	1.0167	ITI	n/a	n/a	n/a	n/a	n/a	n/a	n/a	n/a
86.724	0.5167	FIXCROSS	n/a	n/a	n/a	n/a	n/a	n/a	n/a	n/a
87.2407	0.65	INK	22	Incongruent	zielony	green	czerwony	red	hit	n/a
87.8663	n/a	RESPONSE	n/a	n/a	n/a	n/a	n/a	n/a	n/a	red
87.8907	1.0167	ITI	n/a	n/a	n/a	n/a	n/a	n/a	n/a	n/a
88.9074	0.5167	FIXCROSS	n/a	n/a	n/a	n/a	n/a	n/a	n/a	n/a
89.4241	0.7833	INK	23	Incongruent	czerwony	red	żółty	yellow	hit	n/a
90.1857	n/a	RESPONSE	n/a	n/a	n/a	n/a	n/a	n/a	n/a	yellow
90.2074	1.0167	ITI	n/a	n/a	n/a	n/a	n/a	n/a	n/a	n/a
91.2241	0.5167	FIXCROSS	n/a	n/a	n/a	n/a	n/a	n/a	n/a	n/a
91.7408	0.6	INK	24	Incongruent	czerwony	red	żółty	yellow	hit	n/a
92.3132	n/a	RESPONSE	n/a	n/a	n/a	n/a	n/a	n/a	n/a	yellow
92.3408	1.0167	ITI	n/a	n/a	n/a	n/a	n/a	n/a	n/a	n/a
93.3574	0.5167	FIXCROSS	n/a	n/a	n/a	n/a	n/a	n/a	n/a	n/a
93.8741	0.6667	INK	25	Incongruent	niebieski	blue	czerwony	red	hit	n/a
94.5206	n/a	RESPONSE	n/a	n/a	n/a	n/a	n/a	n/a	n/a	red
94.5408	1.0167	ITI	n/a	n/a	n/a	n/a	n/a	n/a	n/a	n/a
95.5574	0.5167	FIXCROSS	n/a	n/a	n/a	n/a	n/a	n/a	n/a	n/a
96.0741	0.6333	INK	26	Neutral	xxxxxxxxx	xxxxxxxxx	żółty	yellow	hit	n/a
96.6801	n/a	RESPONSE	n/a	n/a	n/a	n/a	n/a	n/a	n/a	yellow
96.7075	1.0167	ITI	n/a	n/a	n/a	n/a	n/a	n/a	n/a	n/a
97.7241	0.5167	FIXCROSS	n/a	n/a	n/a	n/a	n/a	n/a	n/a	n/a
98.2408	0.7667	INK	27	Incongruent	zielony	green	żółty	yellow	hit	n/a
98.9835	n/a	RESPONSE	n/a	n/a	n/a	n/a	n/a	n/a	n/a	yellow
99.0075	1.0167	ITI	n/a	n/a	n/a	n/a	n/a	n/a	n/a	n/a
100.0241	0.5167	FIXCROSS	n/a	n/a	n/a	n/a	n/a	n/a	n/a	n/a
100.5408	0.6667	INK	28	Incongruent	zielony	green	żółty	yellow	hit	n/a
101.175	n/a	RESPONSE	n/a	n/a	n/a	n/a	n/a	n/a	n/a	yellow
101.2075	1.0167	ITI	n/a	n/a	n/a	n/a	n/a	n/a	n/a	n/a
102.2242	0.5167	FIXCROSS	n/a	n/a	n/a	n/a	n/a	n/a	n/a	n/a
102.7408	0.65	INK	29	Incongruent	czerwony	red	niebieski	blue	hit	n/a
103.3664	n/a	RESPONSE	n/a	n/a	n/a	n/a	n/a	n/a	n/a	blue
103.3908	1.0167	ITI	n/a	n/a	n/a	n/a	n/a	n/a	n/a	n/a
104.4075	0.5167	FIXCROSS	n/a	n/a	n/a	n/a	n/a	n/a	n/a	n/a
104.9242	0.7833	INK	30	Neutral	xxxxxxx	xxxxxxx	czerwony	red	hit	n/a
105.6859	n/a	RESPONSE	n/a	n/a	n/a	n/a	n/a	n/a	n/a	red
105.7075	1.0167	ITI	n/a	n/a	n/a	n/a	n/a	n/a	n/a	n/a
106.7242	0.5167	FIXCROSS	n/a	n/a	n/a	n/a	n/a	n/a	n/a	n/a
107.2409	0.6333	INK	31	Incongruent	niebieski	blue	zielony	green	hit	n/a
107.8453	n/a	RESPONSE	n/a	n/a	n/a	n/a	n/a	n/a	n/a	green
107.8742	1.0167	ITI	n/a	n/a	n/a	n/a	n/a	n/a	n/a	n/a
108.8909	0.5167	FIXCROSS	n/a	n/a	n/a	n/a	n/a	n/a	n/a	n/a
109.4075	0.7	INK	32	Incongruent	zielony	green	czerwony	red	hit	n/a
110.0848	n/a	RESPONSE	n/a	n/a	n/a	n/a	n/a	n/a	n/a	red
110.1076	1.0167	ITI	n/a	n/a	n/a	n/a	n/a	n/a	n/a	n/a
111.1242	0.5167	FIXCROSS	n/a	n/a	n/a	n/a	n/a	n/a	n/a	n/a
111.6409	0.6667	INK	33	Neutral	xxxxxxxx	xxxxxxxx	zielony	green	hit	n/a
112.2762	n/a	RESPONSE	n/a	n/a	n/a	n/a	n/a	n/a	n/a	green
112.3076	1.0167	ITI	n/a	n/a	n/a	n/a	n/a	n/a	n/a	n/a
113.3242	0.5167	FIXCROSS	n/a	n/a	n/a	n/a	n/a	n/a	n/a	n/a
113.8409	0.4833	INK	34	Incongruent	żółty	yellow	zielony	green	hit	n/a
114.2917	n/a	RESPONSE	n/a	n/a	n/a	n/a	n/a	n/a	n/a	green
114.3242	1.0167	ITI	n/a	n/a	n/a	n/a	n/a	n/a	n/a	n/a
115.3409	0.5167	FIXCROSS	n/a	n/a	n/a	n/a	n/a	n/a	n/a	n/a
115.8576	0.6333	INK	35	Incongruent	czerwony	red	żółty	yellow	hit	n/a
116.4672	n/a	RESPONSE	n/a	n/a	n/a	n/a	n/a	n/a	n/a	yellow
116.4909	1.0167	ITI	n/a	n/a	n/a	n/a	n/a	n/a	n/a	n/a
117.5076	0.5167	FIXCROSS	n/a	n/a	n/a	n/a	n/a	n/a	n/a	n/a
118.0243	0.6333	INK	36	Neutral	xxxxx	xxxxx	zielony	green	hit	n/a
118.6267	n/a	RESPONSE	n/a	n/a	n/a	n/a	n/a	n/a	n/a	green
118.6576	1.0167	ITI	n/a	n/a	n/a	n/a	n/a	n/a	n/a	n/a
119.6743	0.5167	FIXCROSS	n/a	n/a	n/a	n/a	n/a	n/a	n/a	n/a
120.1909	0.5333	INK	37	Incongruent	czerwony	red	niebieski	blue	hit	n/a
120.7061	n/a	RESPONSE	n/a	n/a	n/a	n/a	n/a	n/a	n/a	blue
120.7243	1.0167	ITI	n/a	n/a	n/a	n/a	n/a	n/a	n/a	n/a
121.741	0.5167	FIXCROSS	n/a	n/a	n/a	n/a	n/a	n/a	n/a	n/a
122.2576	0.6167	INK	38	Incongruent	żółty	yellow	czerwony	red	hit	n/a
122.8496	n/a	RESPONSE	n/a	n/a	n/a	n/a	n/a	n/a	n/a	red
122.8743	1.0167	ITI	n/a	n/a	n/a	n/a	n/a	n/a	n/a	n/a
123.891	0.5167	FIXCROSS	n/a	n/a	n/a	n/a	n/a	n/a	n/a	n/a
124.4076	0.5833	INK	39	Neutral	xxxxx	xxxxx	zielony	green	incorrect	n/a
124.9611	n/a	RESPONSE	n/a	n/a	n/a	n/a	n/a	n/a	n/a	yellow
124.991	1.0167	ITI	n/a	n/a	n/a	n/a	n/a	n/a	n/a	n/a
126.0076	0.5167	FIXCROSS	n/a	n/a	n/a	n/a	n/a	n/a	n/a	n/a
126.5243	0.7667	INK	40	Incongruent	żółty	yellow	czerwony	red	hit	n/a
127.2646	n/a	RESPONSE	n/a	n/a	n/a	n/a	n/a	n/a	n/a	red
127.291	1.0167	ITI	n/a	n/a	n/a	n/a	n/a	n/a	n/a	n/a
128.3077	0.5167	FIXCROSS	n/a	n/a	n/a	n/a	n/a	n/a	n/a	n/a
128.8243	0.6	INK	41	Incongruent	żółty	yellow	niebieski	blue	hit	n/a
129.392	n/a	RESPONSE	n/a	n/a	n/a	n/a	n/a	n/a	n/a	blue
129.4243	1.0167	ITI	n/a	n/a	n/a	n/a	n/a	n/a	n/a	n/a
130.441	0.5167	FIXCROSS	n/a	n/a	n/a	n/a	n/a	n/a	n/a	n/a
130.9577	0.9167	INK	42	Neutral	xxxxxxx	xxxxxxx	żółty	yellow	hit	n/a
131.8554	n/a	RESPONSE	n/a	n/a	n/a	n/a	n/a	n/a	n/a	yellow
131.8744	1.0167	ITI	n/a	n/a	n/a	n/a	n/a	n/a	n/a	n/a
132.891	0.5167	FIXCROSS	n/a	n/a	n/a	n/a	n/a	n/a	n/a	n/a
133.4077	0.7833	INK	43	Neutral	xxxxxxxx	xxxxxxxx	zielony	green	hit	n/a
134.1588	n/a	RESPONSE	n/a	n/a	n/a	n/a	n/a	n/a	n/a	green
134.191	1.0167	ITI	n/a	n/a	n/a	n/a	n/a	n/a	n/a	n/a
135.2077	0.5167	FIXCROSS	n/a	n/a	n/a	n/a	n/a	n/a	n/a	n/a
135.7244	0.7833	INK	44	Neutral	xxxxxxxx	xxxxxxxx	żółty	yellow	hit	n/a
136.4782	n/a	RESPONSE	n/a	n/a	n/a	n/a	n/a	n/a	n/a	yellow
136.5077	1.0167	ITI	n/a	n/a	n/a	n/a	n/a	n/a	n/a	n/a
137.5244	0.5167	FIXCROSS	n/a	n/a	n/a	n/a	n/a	n/a	n/a	n/a
138.0411	0.5	INK	45	Neutral	xxxxx	xxxxx	czerwony	red	hit	n/a
138.5097	n/a	RESPONSE	n/a	n/a	n/a	n/a	n/a	n/a	n/a	red
138.5411	1.0167	ITI	n/a	n/a	n/a	n/a	n/a	n/a	n/a	n/a
139.5577	0.5167	FIXCROSS	n/a	n/a	n/a	n/a	n/a	n/a	n/a	n/a
140.0744	0.4167	INK	46	Incongruent	żółty	yellow	niebieski	blue	hit	n/a
140.4612	n/a	RESPONSE	n/a	n/a	n/a	n/a	n/a	n/a	n/a	blue
140.4911	1.0167	ITI	n/a	n/a	n/a	n/a	n/a	n/a	n/a	n/a
141.5078	0.5167	FIXCROSS	n/a	n/a	n/a	n/a	n/a	n/a	n/a	n/a
142.0244	0.6167	INK	47	Neutral	xxxxx	xxxxx	niebieski	blue	hit	n/a
142.6207	n/a	RESPONSE	n/a	n/a	n/a	n/a	n/a	n/a	n/a	blue
142.6411	1.0167	ITI	n/a	n/a	n/a	n/a	n/a	n/a	n/a	n/a
143.6578	0.5167	FIXCROSS	n/a	n/a	n/a	n/a	n/a	n/a	n/a	n/a
144.1744	0.7	INK	48	Incongruent	zielony	green	niebieski	blue	hit	n/a
144.8442	n/a	RESPONSE	n/a	n/a	n/a	n/a	n/a	n/a	n/a	blue
144.8745	1.0167	ITI	n/a	n/a	n/a	n/a	n/a	n/a	n/a	n/a
145.8911	0.5167	FIXCROSS	n/a	n/a	n/a	n/a	n/a	n/a	n/a	n/a
146.4078	0.5167	INK	49	Incongruent	żółty	yellow	niebieski	blue	hit	n/a
146.8916	n/a	RESPONSE	n/a	n/a	n/a	n/a	n/a	n/a	n/a	blue
146.9245	1.0167	ITI	n/a	n/a	n/a	n/a	n/a	n/a	n/a	n/a
147.9411	0.5167	FIXCROSS	n/a	n/a	n/a	n/a	n/a	n/a	n/a	n/a
148.4578	0.8167	INK	50	Neutral	xxxxxxxx	xxxxxxxx	żółty	yellow	hit	n/a
149.243	n/a	RESPONSE	n/a	n/a	n/a	n/a	n/a	n/a	n/a	yellow
149.2745	1.0167	ITI	n/a	n/a	n/a	n/a	n/a	n/a	n/a	n/a
150.2912	0.5167	FIXCROSS	n/a	n/a	n/a	n/a	n/a	n/a	n/a	n/a
150.8078	0.75	INK	51	Incongruent	żółty	yellow	zielony	green	hit	n/a
151.5305	n/a	RESPONSE	n/a	n/a	n/a	n/a	n/a	n/a	n/a	green
151.5578	1.0167	ITI	n/a	n/a	n/a	n/a	n/a	n/a	n/a	n/a
152.5745	0.5167	FIXCROSS	n/a	n/a	n/a	n/a	n/a	n/a	n/a	n/a
153.0912	0.6	INK	52	Neutral	xxxxxxx	xxxxxxx	niebieski	blue	hit	n/a
153.674	n/a	RESPONSE	n/a	n/a	n/a	n/a	n/a	n/a	n/a	blue
153.6912	1.0167	ITI	n/a	n/a	n/a	n/a	n/a	n/a	n/a	n/a
154.7078	0.5167	FIXCROSS	n/a	n/a	n/a	n/a	n/a	n/a	n/a	n/a
155.2245	0.8	INK	53	Incongruent	żółty	yellow	zielony	green	hit	n/a
155.9934	n/a	RESPONSE	n/a	n/a	n/a	n/a	n/a	n/a	n/a	green
156.0245	1.0167	ITI	n/a	n/a	n/a	n/a	n/a	n/a	n/a	n/a
157.0412	0.5167	FIXCROSS	n/a	n/a	n/a	n/a	n/a	n/a	n/a	n/a
157.5579	0.7667	INK	54	Neutral	xxxxx	xxxxx	czerwony	red	hit	n/a
158.2968	n/a	RESPONSE	n/a	n/a	n/a	n/a	n/a	n/a	n/a	red
158.3245	1.0167	ITI	n/a	n/a	n/a	n/a	n/a	n/a	n/a	n/a
159.3412	0.5167	FIXCROSS	n/a	n/a	n/a	n/a	n/a	n/a	n/a	n/a
159.8579	0.85	INK	55	Neutral	xxxxxxxxx	xxxxxxxxx	zielony	green	hit	n/a
160.6802	n/a	RESPONSE	n/a	n/a	n/a	n/a	n/a	n/a	n/a	green
160.7079	1.0167	ITI	n/a	n/a	n/a	n/a	n/a	n/a	n/a	n/a
161.7246	0.5167	FIXCROSS	n/a	n/a	n/a	n/a	n/a	n/a	n/a	n/a
162.2412	0.8167	INK	56	Neutral	xxxxxxxx	xxxxxxxx	żółty	yellow	hit	n/a
163.0316	n/a	RESPONSE	n/a	n/a	n/a	n/a	n/a	n/a	n/a	yellow
163.0579	1.0167	ITI	n/a	n/a	n/a	n/a	n/a	n/a	n/a	n/a
164.0746	0.5167	FIXCROSS	n/a	n/a	n/a	n/a	n/a	n/a	n/a	n/a
164.5912	0.75	INK	57	Incongruent	zielony	green	niebieski	blue	hit	n/a
165.3191	n/a	RESPONSE	n/a	n/a	n/a	n/a	n/a	n/a	n/a	blue
165.3412	1.0167	ITI	n/a	n/a	n/a	n/a	n/a	n/a	n/a	n/a
166.3579	0.5167	FIXCROSS	n/a	n/a	n/a	n/a	n/a	n/a	n/a	n/a
166.8746	0.7	INK	58	Neutral	xxxxxxx	xxxxxxx	żółty	yellow	hit	n/a
167.5425	n/a	RESPONSE	n/a	n/a	n/a	n/a	n/a	n/a	n/a	yellow
167.5746	1.0167	ITI	n/a	n/a	n/a	n/a	n/a	n/a	n/a	n/a
168.5913	0.5167	FIXCROSS	n/a	n/a	n/a	n/a	n/a	n/a	n/a	n/a
169.1079	0.8167	INK	59	Incongruent	niebieski	blue	zielony	green	hit	n/a
169.8939	n/a	RESPONSE	n/a	n/a	n/a	n/a	n/a	n/a	n/a	green
169.9246	1.0167	ITI	n/a	n/a	n/a	n/a	n/a	n/a	n/a	n/a
170.9413	0.5167	FIXCROSS	n/a	n/a	n/a	n/a	n/a	n/a	n/a	n/a
171.458	0.9333	INK	60	Incongruent	niebieski	blue	żółty	yellow	hit	n/a
172.3733	n/a	RESPONSE	n/a	n/a	n/a	n/a	n/a	n/a	n/a	yellow
172.3913	1.0167	ITI	n/a	n/a	n/a	n/a	n/a	n/a	n/a	n/a
173.408	0.5167	FIXCROSS	n/a	n/a	n/a	n/a	n/a	n/a	n/a	n/a
173.9246	0.7	INK	61	Neutral	xxxxxxxx	xxxxxxxx	niebieski	blue	hit	n/a
174.5968	n/a	RESPONSE	n/a	n/a	n/a	n/a	n/a	n/a	n/a	blue
174.6246	1.0167	ITI	n/a	n/a	n/a	n/a	n/a	n/a	n/a	n/a
175.6413	0.5167	FIXCROSS	n/a	n/a	n/a	n/a	n/a	n/a	n/a	n/a
176.158	0.75	INK	62	Neutral	xxxxx	xxxxx	niebieski	blue	hit	n/a
176.8842	n/a	RESPONSE	n/a	n/a	n/a	n/a	n/a	n/a	n/a	blue
176.908	1.0167	ITI	n/a	n/a	n/a	n/a	n/a	n/a	n/a	n/a
177.9247	0.5167	FIXCROSS	n/a	n/a	n/a	n/a	n/a	n/a	n/a	n/a
178.4413	0.5667	INK	63	Neutral	xxxxxxxx	xxxxxxxx	niebieski	blue	hit	n/a
178.9797	n/a	RESPONSE	n/a	n/a	n/a	n/a	n/a	n/a	n/a	blue
179.008	1.0167	ITI	n/a	n/a	n/a	n/a	n/a	n/a	n/a	n/a
180.0247	0.5167	FIXCROSS	n/a	n/a	n/a	n/a	n/a	n/a	n/a	n/a
180.5413	0.8	INK	64	Neutral	xxxxx	xxxxx	czerwony	red	hit	n/a
181.3151	n/a	RESPONSE	n/a	n/a	n/a	n/a	n/a	n/a	n/a	red
181.3413	1.0167	ITI	n/a	n/a	n/a	n/a	n/a	n/a	n/a	n/a
182.358	0.5167	FIXCROSS	n/a	n/a	n/a	n/a	n/a	n/a	n/a	n/a
182.8747	1.0333	INK	65	Neutral	xxxxxxx	xxxxxxx	czerwony	red	hit	n/a
183.8904	n/a	RESPONSE	n/a	n/a	n/a	n/a	n/a	n/a	n/a	red
183.908	1.0167	ITI	n/a	n/a	n/a	n/a	n/a	n/a	n/a	n/a
184.9247	0.5167	FIXCROSS	n/a	n/a	n/a	n/a	n/a	n/a	n/a	n/a
185.4414	1.0832	INK	66	Neutral	xxxxxxxxx	xxxxxxxxx	czerwony	red	hit	n/a
186.4978	n/a	RESPONSE	n/a	n/a	n/a	n/a	n/a	n/a	n/a	red
186.5245	1.0168	ITI	n/a	n/a	n/a	n/a	n/a	n/a	n/a	n/a
187.5414	0.5167	FIXCROSS	n/a	n/a	n/a	n/a	n/a	n/a	n/a	n/a
188.0581	0.6167	INK	67	Incongruent	niebieski	blue	zielony	green	hit	n/a
188.6573	n/a	RESPONSE	n/a	n/a	n/a	n/a	n/a	n/a	n/a	green
188.6747	1.0167	ITI	n/a	n/a	n/a	n/a	n/a	n/a	n/a	n/a
189.6914	0.5167	FIXCROSS	n/a	n/a	n/a	n/a	n/a	n/a	n/a	n/a
190.2081	0.6	INK	68	Neutral	xxxxxxx	xxxxxxx	niebieski	blue	hit	n/a
190.7848	n/a	RESPONSE	n/a	n/a	n/a	n/a	n/a	n/a	n/a	blue
190.8081	1.0167	ITI	n/a	n/a	n/a	n/a	n/a	n/a	n/a	n/a
191.8248	0.5167	FIXCROSS	n/a	n/a	n/a	n/a	n/a	n/a	n/a	n/a
192.3414	0.9	INK	69	Neutral	xxxxxxxxx	xxxxxxxxx	czerwony	red	hit	n/a
193.2162	n/a	RESPONSE	n/a	n/a	n/a	n/a	n/a	n/a	n/a	red
193.2414	1.0167	ITI	n/a	n/a	n/a	n/a	n/a	n/a	n/a	n/a
194.2581	0.5167	FIXCROSS	n/a	n/a	n/a	n/a	n/a	n/a	n/a	n/a
194.7748	0.6833	INK	70	Neutral	xxxxxxx	xxxxxxx	czerwony	red	hit	n/a
195.4076	n/a	RESPONSE	n/a	n/a	n/a	n/a	n/a	n/a	n/a	red
195.4581	1.0167	ITI	n/a	n/a	n/a	n/a	n/a	n/a	n/a	n/a
196.4748	0.5167	FIXCROSS	n/a	n/a	n/a	n/a	n/a	n/a	n/a	n/a
196.9915	0.65	INK	71	Incongruent	zielony	green	czerwony	red	hit	n/a
197.6151	n/a	RESPONSE	n/a	n/a	n/a	n/a	n/a	n/a	n/a	red
197.6415	1.0167	ITI	n/a	n/a	n/a	n/a	n/a	n/a	n/a	n/a
198.6581	0.5167	FIXCROSS	n/a	n/a	n/a	n/a	n/a	n/a	n/a	n/a
199.1748	0.6167	INK	72	Neutral	xxxxxxxxx	xxxxxxxxx	zielony	green	hit	n/a
199.7585	n/a	RESPONSE	n/a	n/a	n/a	n/a	n/a	n/a	n/a	green
199.7915	1.0834	ITI	n/a	n/a	n/a	n/a	n/a	n/a	n/a	n/a
223.4647	n/a	RESPONSE	n/a	n/a	n/a	n/a	n/a	n/a	n/a	n/a
223.525	1.0167	ITI	n/a	n/a	n/a	n/a	n/a	n/a	n/a	n/a
224.5416	0.5167	FIXCROSS	n/a	n/a	n/a	n/a	n/a	n/a	n/a	n/a
225.0583	0.7167	T_COLOR_NAME	1	Neutral	zielony	green	Neutral	Neutral	hit	n/a
225.7361	n/a	RESPONSE	n/a	n/a	n/a	n/a	n/a	n/a	n/a	green
225.775	0.5167	FEEDBACK	n/a	n/a	n/a	n/a	n/a	n/a	n/a	n/a
226.2916	1.0167	ITI	n/a	n/a	n/a	n/a	n/a	n/a	n/a	n/a
227.3083	0.5167	FIXCROSS	n/a	n/a	n/a	n/a	n/a	n/a	n/a	n/a
227.825	1.4333	T_COLOR_NAME	2	Incongruent	czerwony	red	zielony	green	hit	n/a
229.2233	n/a	RESPONSE	n/a	n/a	n/a	n/a	n/a	n/a	n/a	red
229.2583	0.5167	FEEDBACK	n/a	n/a	n/a	n/a	n/a	n/a	n/a	n/a
229.775	1.0167	ITI	n/a	n/a	n/a	n/a	n/a	n/a	n/a	n/a
230.7917	0.5167	FIXCROSS	n/a	n/a	n/a	n/a	n/a	n/a	n/a	n/a
231.3084	1.05	T_COLOR_NAME	3	Incongruent	zielony	green	czerwony	red	hit	n/a
232.3265	n/a	RESPONSE	n/a	n/a	n/a	n/a	n/a	n/a	n/a	green
232.3584	0.5167	FEEDBACK	n/a	n/a	n/a	n/a	n/a	n/a	n/a	n/a
232.875	1.0167	ITI	n/a	n/a	n/a	n/a	n/a	n/a	n/a	n/a
233.8917	0.5167	FIXCROSS	n/a	n/a	n/a	n/a	n/a	n/a	n/a	n/a
234.4084	1.2334	T_COLOR_NAME	4	Incongruent	niebieski	blue	żółty	yellow	hit	n/a
235.6217	n/a	RESPONSE	n/a	n/a	n/a	n/a	n/a	n/a	n/a	blue
235.6417	0.5167	FEEDBACK	n/a	n/a	n/a	n/a	n/a	n/a	n/a	n/a
236.1584	1.0167	ITI	n/a	n/a	n/a	n/a	n/a	n/a	n/a	n/a
237.1751	0.5167	FIXCROSS	n/a	n/a	n/a	n/a	n/a	n/a	n/a	n/a
237.6917	0.7667	T_COLOR_NAME	5	Neutral	zielony	green	Neutral	Neutral	hit	n/a
238.4369	n/a	RESPONSE	n/a	n/a	n/a	n/a	n/a	n/a	n/a	green
238.4584	0.5167	FEEDBACK	n/a	n/a	n/a	n/a	n/a	n/a	n/a	n/a
238.9751	1.0167	ITI	n/a	n/a	n/a	n/a	n/a	n/a	n/a	n/a
239.9917	0.5167	FIXCROSS	n/a	n/a	n/a	n/a	n/a	n/a	n/a	n/a
240.5084	0.7833	T_COLOR_NAME	6	Neutral	niebieski	blue	Neutral	Neutral	hit	n/a
241.2682	n/a	RESPONSE	n/a	n/a	n/a	n/a	n/a	n/a	n/a	blue
241.2918	0.5167	FEEDBACK	n/a	n/a	n/a	n/a	n/a	n/a	n/a	n/a
241.8084	1.0167	ITI	n/a	n/a	n/a	n/a	n/a	n/a	n/a	n/a
242.8251	0.5167	FIXCROSS	n/a	n/a	n/a	n/a	n/a	n/a	n/a	n/a
243.3418	0.8667	T_COLOR_NAME	7	Incongruent	żółty	yellow	zielony	green	hit	n/a
244.1795	n/a	RESPONSE	n/a	n/a	n/a	n/a	n/a	n/a	n/a	yellow
244.2084	0.5167	FEEDBACK	n/a	n/a	n/a	n/a	n/a	n/a	n/a	n/a
244.7251	1.0167	ITI	n/a	n/a	n/a	n/a	n/a	n/a	n/a	n/a
245.7418	0.5167	FIXCROSS	n/a	n/a	n/a	n/a	n/a	n/a	n/a	n/a
246.2585	0.6833	T_COLOR_NAME	8	Neutral	zielony	green	Neutral	Neutral	hit	n/a
246.9148	n/a	RESPONSE	n/a	n/a	n/a	n/a	n/a	n/a	n/a	green
246.9418	0.5167	FEEDBACK	n/a	n/a	n/a	n/a	n/a	n/a	n/a	n/a
247.4585	1.0167	ITI	n/a	n/a	n/a	n/a	n/a	n/a	n/a	n/a
248.4751	0.5167	FIXCROSS	n/a	n/a	n/a	n/a	n/a	n/a	n/a	n/a
248.9918	0.75	T_COLOR_NAME	9	Incongruent	zielony	green	żółty	yellow	hit	n/a
249.7142	n/a	RESPONSE	n/a	n/a	n/a	n/a	n/a	n/a	n/a	green
249.7418	0.5167	FEEDBACK	n/a	n/a	n/a	n/a	n/a	n/a	n/a	n/a
250.2585	1.0167	ITI	n/a	n/a	n/a	n/a	n/a	n/a	n/a	n/a
251.2751	0.5167	FIXCROSS	n/a	n/a	n/a	n/a	n/a	n/a	n/a	n/a
251.7918	0.7667	T_COLOR_NAME	10	Incongruent	czerwony	red	żółty	yellow	hit	n/a
252.5295	n/a	RESPONSE	n/a	n/a	n/a	n/a	n/a	n/a	n/a	red
252.5585	0.5167	FEEDBACK	n/a	n/a	n/a	n/a	n/a	n/a	n/a	n/a
253.0752	1.0167	ITI	n/a	n/a	n/a	n/a	n/a	n/a	n/a	n/a
254.0918	0.5167	FIXCROSS	n/a	n/a	n/a	n/a	n/a	n/a	n/a	n/a
254.6085	0.85	T_COLOR_NAME	11	Neutral	czerwony	red	Neutral	Neutral	hit	n/a
255.4247	n/a	RESPONSE	n/a	n/a	n/a	n/a	n/a	n/a	n/a	red
255.4585	0.5167	FEEDBACK	n/a	n/a	n/a	n/a	n/a	n/a	n/a	n/a
255.9752	1.0167	ITI	n/a	n/a	n/a	n/a	n/a	n/a	n/a	n/a
256.9919	0.5167	FIXCROSS	n/a	n/a	n/a	n/a	n/a	n/a	n/a	n/a
257.5085	0.7333	T_COLOR_NAME	12	Incongruent	czerwony	red	niebieski	blue	hit	n/a
258.2081	n/a	RESPONSE	n/a	n/a	n/a	n/a	n/a	n/a	n/a	red
258.2419	0.5167	FEEDBACK	n/a	n/a	n/a	n/a	n/a	n/a	n/a	n/a
258.7585	1.0333	ITI	n/a	n/a	n/a	n/a	n/a	n/a	n/a	n/a
263.6307	n/a	RESPONSE	n/a	n/a	n/a	n/a	n/a	n/a	n/a	n/a
263.6919	1.0167	ITI	n/a	n/a	n/a	n/a	n/a	n/a	n/a	n/a
264.7086	0.5167	FIXCROSS	n/a	n/a	n/a	n/a	n/a	n/a	n/a	n/a
265.2252	0.85	COLOR_NAME	1	Neutral	niebieski	blue	Neutral	Neutral	hit	n/a
266.0461	n/a	RESPONSE	n/a	n/a	n/a	n/a	n/a	n/a	n/a	blue
266.0753	1.0167	ITI	n/a	n/a	n/a	n/a	n/a	n/a	n/a	n/a
267.0919	0.5167	FIXCROSS	n/a	n/a	n/a	n/a	n/a	n/a	n/a	n/a
267.6086	0.5333	COLOR_NAME	2	Incongruent	niebieski	blue	czerwony	red	hit	n/a
268.1096	n/a	RESPONSE	n/a	n/a	n/a	n/a	n/a	n/a	n/a	blue
268.1419	1.0167	ITI	n/a	n/a	n/a	n/a	n/a	n/a	n/a	n/a
269.1586	0.5167	FIXCROSS	n/a	n/a	n/a	n/a	n/a	n/a	n/a	n/a
269.6753	0.4833	COLOR_NAME	3	Neutral	zielony	green	Neutral	Neutral	hit	n/a
270.1411	n/a	RESPONSE	n/a	n/a	n/a	n/a	n/a	n/a	n/a	green
270.1586	1.0167	ITI	n/a	n/a	n/a	n/a	n/a	n/a	n/a	n/a
271.1753	0.5167	FIXCROSS	n/a	n/a	n/a	n/a	n/a	n/a	n/a	n/a
271.692	0.8667	COLOR_NAME	4	Neutral	żółty	yellow	Neutral	Neutral	hit	n/a
272.5405	n/a	RESPONSE	n/a	n/a	n/a	n/a	n/a	n/a	n/a	yellow
272.5586	1.0167	ITI	n/a	n/a	n/a	n/a	n/a	n/a	n/a	n/a
273.5753	0.5167	FIXCROSS	n/a	n/a	n/a	n/a	n/a	n/a	n/a	n/a
274.092	0.75	COLOR_NAME	5	Neutral	zielony	green	Neutral	Neutral	hit	n/a
274.812	n/a	RESPONSE	n/a	n/a	n/a	n/a	n/a	n/a	n/a	green
274.842	1.0167	ITI	n/a	n/a	n/a	n/a	n/a	n/a	n/a	n/a
275.8587	0.5167	FIXCROSS	n/a	n/a	n/a	n/a	n/a	n/a	n/a	n/a
276.3753	0.5167	COLOR_NAME	6	Neutral	zielony	green	Neutral	Neutral	hit	n/a
276.8594	n/a	RESPONSE	n/a	n/a	n/a	n/a	n/a	n/a	n/a	green
276.892	1.0167	ITI	n/a	n/a	n/a	n/a	n/a	n/a	n/a	n/a
277.9087	0.5167	FIXCROSS	n/a	n/a	n/a	n/a	n/a	n/a	n/a	n/a
278.4253	0.5833	COLOR_NAME	7	Neutral	czerwony	red	Neutral	Neutral	hit	n/a
278.9869	n/a	RESPONSE	n/a	n/a	n/a	n/a	n/a	n/a	n/a	red
279.0087	1.0167	ITI	n/a	n/a	n/a	n/a	n/a	n/a	n/a	n/a
280.0254	0.5167	FIXCROSS	n/a	n/a	n/a	n/a	n/a	n/a	n/a	n/a
280.542	0.8	COLOR_NAME	8	Incongruent	żółty	yellow	niebieski	blue	hit	n/a
281.3223	n/a	RESPONSE	n/a	n/a	n/a	n/a	n/a	n/a	n/a	yellow
281.342	1.0167	ITI	n/a	n/a	n/a	n/a	n/a	n/a	n/a	n/a
282.3587	0.5167	FIXCROSS	n/a	n/a	n/a	n/a	n/a	n/a	n/a	n/a
282.8754	0.8667	COLOR_NAME	9	Incongruent	czerwony	red	niebieski	blue	hit	n/a
283.7218	n/a	RESPONSE	n/a	n/a	n/a	n/a	n/a	n/a	n/a	red
283.742	1.0167	ITI	n/a	n/a	n/a	n/a	n/a	n/a	n/a	n/a
284.7587	0.5167	FIXCROSS	n/a	n/a	n/a	n/a	n/a	n/a	n/a	n/a
285.2754	0.7	COLOR_NAME	10	Incongruent	czerwony	red	zielony	green	hit	n/a
285.9452	n/a	RESPONSE	n/a	n/a	n/a	n/a	n/a	n/a	n/a	red
285.9754	1.0167	ITI	n/a	n/a	n/a	n/a	n/a	n/a	n/a	n/a
286.9921	0.5167	FIXCROSS	n/a	n/a	n/a	n/a	n/a	n/a	n/a	n/a
287.5087	1.05	COLOR_NAME	11	Incongruent	niebieski	blue	czerwony	red	hit	n/a
288.5366	n/a	RESPONSE	n/a	n/a	n/a	n/a	n/a	n/a	n/a	blue
288.5587	1.0167	ITI	n/a	n/a	n/a	n/a	n/a	n/a	n/a	n/a
289.5754	0.5167	FIXCROSS	n/a	n/a	n/a	n/a	n/a	n/a	n/a	n/a
290.0921	0.8667	COLOR_NAME	12	Incongruent	żółty	yellow	czerwony	red	hit	n/a
290.9359	n/a	RESPONSE	n/a	n/a	n/a	n/a	n/a	n/a	n/a	yellow
290.9588	1.0167	ITI	n/a	n/a	n/a	n/a	n/a	n/a	n/a	n/a
291.9754	0.5167	FIXCROSS	n/a	n/a	n/a	n/a	n/a	n/a	n/a	n/a
292.4921	0.6	COLOR_NAME	13	Neutral	zielony	green	Neutral	Neutral	hit	n/a
293.0634	n/a	RESPONSE	n/a	n/a	n/a	n/a	n/a	n/a	n/a	green
293.0921	1.0167	ITI	n/a	n/a	n/a	n/a	n/a	n/a	n/a	n/a
294.1088	0.5167	FIXCROSS	n/a	n/a	n/a	n/a	n/a	n/a	n/a	n/a
294.6254	0.7333	COLOR_NAME	14	Incongruent	niebieski	blue	zielony	green	hit	n/a
295.3349	n/a	RESPONSE	n/a	n/a	n/a	n/a	n/a	n/a	n/a	blue
295.3588	1.0167	ITI	n/a	n/a	n/a	n/a	n/a	n/a	n/a	n/a
296.3755	0.5167	FIXCROSS	n/a	n/a	n/a	n/a	n/a	n/a	n/a	n/a
296.8921	0.8667	COLOR_NAME	15	Incongruent	zielony	green	żółty	yellow	hit	n/a
297.7343	n/a	RESPONSE	n/a	n/a	n/a	n/a	n/a	n/a	n/a	green
297.7588	1.0167	ITI	n/a	n/a	n/a	n/a	n/a	n/a	n/a	n/a
298.7755	0.5167	FIXCROSS	n/a	n/a	n/a	n/a	n/a	n/a	n/a	n/a
299.2921	0.5833	COLOR_NAME	16	Incongruent	zielony	green	żółty	yellow	hit	n/a
299.8457	n/a	RESPONSE	n/a	n/a	n/a	n/a	n/a	n/a	n/a	green
299.8755	1.0167	ITI	n/a	n/a	n/a	n/a	n/a	n/a	n/a	n/a
300.8922	0.5167	FIXCROSS	n/a	n/a	n/a	n/a	n/a	n/a	n/a	n/a
301.4088	0.8	COLOR_NAME	17	Neutral	żółty	yellow	Neutral	Neutral	hit	n/a
302.1812	n/a	RESPONSE	n/a	n/a	n/a	n/a	n/a	n/a	n/a	yellow
302.2088	1.0167	ITI	n/a	n/a	n/a	n/a	n/a	n/a	n/a	n/a
303.2255	0.5167	FIXCROSS	n/a	n/a	n/a	n/a	n/a	n/a	n/a	n/a
303.7422	0.7167	COLOR_NAME	18	Neutral	niebieski	blue	Neutral	Neutral	hit	n/a
304.4366	n/a	RESPONSE	n/a	n/a	n/a	n/a	n/a	n/a	n/a	blue
304.4588	1.0167	ITI	n/a	n/a	n/a	n/a	n/a	n/a	n/a	n/a
305.4755	0.5167	FIXCROSS	n/a	n/a	n/a	n/a	n/a	n/a	n/a	n/a
305.9922	0.9833	COLOR_NAME	19	Incongruent	żółty	yellow	czerwony	red	hit	n/a
306.948	n/a	RESPONSE	n/a	n/a	n/a	n/a	n/a	n/a	n/a	yellow
306.9755	1.0167	ITI	n/a	n/a	n/a	n/a	n/a	n/a	n/a	n/a
307.9922	0.5167	FIXCROSS	n/a	n/a	n/a	n/a	n/a	n/a	n/a	n/a
308.5089	0.85	COLOR_NAME	20	Incongruent	niebieski	blue	żółty	yellow	hit	n/a
309.3314	n/a	RESPONSE	n/a	n/a	n/a	n/a	n/a	n/a	n/a	blue
309.3589	1.0167	ITI	n/a	n/a	n/a	n/a	n/a	n/a	n/a	n/a
310.3755	0.5167	FIXCROSS	n/a	n/a	n/a	n/a	n/a	n/a	n/a	n/a
310.8922	0.95	COLOR_NAME	21	Incongruent	zielony	green	czerwony	red	hit	n/a
311.8108	n/a	RESPONSE	n/a	n/a	n/a	n/a	n/a	n/a	n/a	green
311.8422	1.0167	ITI	n/a	n/a	n/a	n/a	n/a	n/a	n/a	n/a
312.8589	0.5167	FIXCROSS	n/a	n/a	n/a	n/a	n/a	n/a	n/a	n/a
313.3756	0.9167	COLOR_NAME	22	Incongruent	niebieski	blue	zielony	green	hit	n/a
314.2741	n/a	RESPONSE	n/a	n/a	n/a	n/a	n/a	n/a	n/a	blue
314.2922	1.0167	ITI	n/a	n/a	n/a	n/a	n/a	n/a	n/a	n/a
315.3089	0.5167	FIXCROSS	n/a	n/a	n/a	n/a	n/a	n/a	n/a	n/a
315.8256	0.7167	COLOR_NAME	23	Neutral	żółty	yellow	Neutral	Neutral	hit	n/a
316.5136	n/a	RESPONSE	n/a	n/a	n/a	n/a	n/a	n/a	n/a	yellow
316.5423	1.0167	ITI	n/a	n/a	n/a	n/a	n/a	n/a	n/a	n/a
317.5589	0.5167	FIXCROSS	n/a	n/a	n/a	n/a	n/a	n/a	n/a	n/a
318.0756	0.9333	COLOR_NAME	24	Incongruent	czerwony	red	niebieski	blue	hit	n/a
318.977	n/a	RESPONSE	n/a	n/a	n/a	n/a	n/a	n/a	n/a	red
319.0089	1.0167	ITI	n/a	n/a	n/a	n/a	n/a	n/a	n/a	n/a
320.0256	0.5167	FIXCROSS	n/a	n/a	n/a	n/a	n/a	n/a	n/a	n/a
320.5423	0.8833	COLOR_NAME	25	Neutral	zielony	green	Neutral	Neutral	hit	n/a
321.3924	n/a	RESPONSE	n/a	n/a	n/a	n/a	n/a	n/a	n/a	green
321.4256	1.0167	ITI	n/a	n/a	n/a	n/a	n/a	n/a	n/a	n/a
322.4423	0.5167	FIXCROSS	n/a	n/a	n/a	n/a	n/a	n/a	n/a	n/a
322.959	0.55	COLOR_NAME	26	Incongruent	zielony	green	niebieski	blue	hit	n/a
323.4879	n/a	RESPONSE	n/a	n/a	n/a	n/a	n/a	n/a	n/a	green
323.509	1.0167	ITI	n/a	n/a	n/a	n/a	n/a	n/a	n/a	n/a
324.5256	0.5167	FIXCROSS	n/a	n/a	n/a	n/a	n/a	n/a	n/a	n/a
325.0423	0.85	COLOR_NAME	27	Neutral	czerwony	red	Neutral	Neutral	hit	n/a
325.8713	n/a	RESPONSE	n/a	n/a	n/a	n/a	n/a	n/a	n/a	red
325.8923	1.0167	ITI	n/a	n/a	n/a	n/a	n/a	n/a	n/a	n/a
326.909	0.5167	FIXCROSS	n/a	n/a	n/a	n/a	n/a	n/a	n/a	n/a
327.4257	0.6833	COLOR_NAME	28	Neutral	zielony	green	Neutral	Neutral	hit	n/a
328.0787	n/a	RESPONSE	n/a	n/a	n/a	n/a	n/a	n/a	n/a	green
328.109	1.0167	ITI	n/a	n/a	n/a	n/a	n/a	n/a	n/a	n/a
329.1257	0.5167	FIXCROSS	n/a	n/a	n/a	n/a	n/a	n/a	n/a	n/a
329.6423	0.6	COLOR_NAME	29	Incongruent	żółty	yellow	niebieski	blue	hit	n/a
330.2222	n/a	RESPONSE	n/a	n/a	n/a	n/a	n/a	n/a	n/a	yellow
330.2424	1.0167	ITI	n/a	n/a	n/a	n/a	n/a	n/a	n/a	n/a
331.259	0.5167	FIXCROSS	n/a	n/a	n/a	n/a	n/a	n/a	n/a	n/a
331.7757	0.9167	COLOR_NAME	30	Incongruent	żółty	yellow	zielony	green	hit	n/a
332.6696	n/a	RESPONSE	n/a	n/a	n/a	n/a	n/a	n/a	n/a	yellow
332.6924	1.0167	ITI	n/a	n/a	n/a	n/a	n/a	n/a	n/a	n/a
333.709	0.5167	FIXCROSS	n/a	n/a	n/a	n/a	n/a	n/a	n/a	n/a
334.2257	0.6167	COLOR_NAME	31	Neutral	żółty	yellow	Neutral	Neutral	hit	n/a
334.813	n/a	RESPONSE	n/a	n/a	n/a	n/a	n/a	n/a	n/a	yellow
334.8424	1.0167	ITI	n/a	n/a	n/a	n/a	n/a	n/a	n/a	n/a
335.8591	0.5167	FIXCROSS	n/a	n/a	n/a	n/a	n/a	n/a	n/a	n/a
336.3757	0.55	COLOR_NAME	32	Neutral	żółty	yellow	Neutral	Neutral	hit	n/a
336.9085	n/a	RESPONSE	n/a	n/a	n/a	n/a	n/a	n/a	n/a	yellow
336.9257	1.0167	ITI	n/a	n/a	n/a	n/a	n/a	n/a	n/a	n/a
337.9424	0.5167	FIXCROSS	n/a	n/a	n/a	n/a	n/a	n/a	n/a	n/a
338.4591	0.5667	COLOR_NAME	33	Incongruent	żółty	yellow	niebieski	blue	hit	n/a
339.004	n/a	RESPONSE	n/a	n/a	n/a	n/a	n/a	n/a	n/a	yellow
339.0257	1.0166	ITI	n/a	n/a	n/a	n/a	n/a	n/a	n/a	n/a
340.0424	0.5167	FIXCROSS	n/a	n/a	n/a	n/a	n/a	n/a	n/a	n/a
340.5591	0.7333	COLOR_NAME	34	Incongruent	zielony	green	żółty	yellow	hit	n/a
341.2595	n/a	RESPONSE	n/a	n/a	n/a	n/a	n/a	n/a	n/a	green
341.2924	1.0167	ITI	n/a	n/a	n/a	n/a	n/a	n/a	n/a	n/a
342.3091	0.5167	FIXCROSS	n/a	n/a	n/a	n/a	n/a	n/a	n/a	n/a
342.8258	1.0167	COLOR_NAME	35	Incongruent	niebieski	blue	czerwony	red	hit	n/a
343.8189	n/a	RESPONSE	n/a	n/a	n/a	n/a	n/a	n/a	n/a	blue
343.8424	1.0167	ITI	n/a	n/a	n/a	n/a	n/a	n/a	n/a	n/a
344.8591	0.5167	FIXCROSS	n/a	n/a	n/a	n/a	n/a	n/a	n/a	n/a
345.3758	0.65	COLOR_NAME	36	Neutral	czerwony	red	Neutral	Neutral	hit	n/a
345.9943	n/a	RESPONSE	n/a	n/a	n/a	n/a	n/a	n/a	n/a	red
346.0258	1.0167	ITI	n/a	n/a	n/a	n/a	n/a	n/a	n/a	n/a
347.0425	0.5167	FIXCROSS	n/a	n/a	n/a	n/a	n/a	n/a	n/a	n/a
347.5591	0.6333	COLOR_NAME	37	Neutral	niebieski	blue	Neutral	Neutral	hit	n/a
348.1698	n/a	RESPONSE	n/a	n/a	n/a	n/a	n/a	n/a	n/a	blue
348.1925	1.0167	ITI	n/a	n/a	n/a	n/a	n/a	n/a	n/a	n/a
349.2091	0.5167	FIXCROSS	n/a	n/a	n/a	n/a	n/a	n/a	n/a	n/a
349.7258	0.8	COLOR_NAME	38	Incongruent	czerwony	red	żółty	yellow	hit	n/a
350.5052	n/a	RESPONSE	n/a	n/a	n/a	n/a	n/a	n/a	n/a	red
350.5258	1.0167	ITI	n/a	n/a	n/a	n/a	n/a	n/a	n/a	n/a
351.5425	0.5167	FIXCROSS	n/a	n/a	n/a	n/a	n/a	n/a	n/a	n/a
352.0592	0.9167	COLOR_NAME	39	Incongruent	zielony	green	czerwony	red	hit	n/a
352.9526	n/a	RESPONSE	n/a	n/a	n/a	n/a	n/a	n/a	n/a	green
352.9758	1.0167	ITI	n/a	n/a	n/a	n/a	n/a	n/a	n/a	n/a
353.9925	0.5167	FIXCROSS	n/a	n/a	n/a	n/a	n/a	n/a	n/a	n/a
354.5092	0.6333	COLOR_NAME	40	Incongruent	zielony	green	czerwony	red	hit	n/a
355.112	n/a	RESPONSE	n/a	n/a	n/a	n/a	n/a	n/a	n/a	green
355.1425	1.0167	ITI	n/a	n/a	n/a	n/a	n/a	n/a	n/a	n/a
356.1592	0.5167	FIXCROSS	n/a	n/a	n/a	n/a	n/a	n/a	n/a	n/a
356.6759	0.6167	COLOR_NAME	41	Incongruent	niebieski	blue	zielony	green	hit	n/a
357.2715	n/a	RESPONSE	n/a	n/a	n/a	n/a	n/a	n/a	n/a	blue
357.2925	1.0167	ITI	n/a	n/a	n/a	n/a	n/a	n/a	n/a	n/a
358.3092	0.5167	FIXCROSS	n/a	n/a	n/a	n/a	n/a	n/a	n/a	n/a
358.8259	0.65	COLOR_NAME	42	Neutral	niebieski	blue	Neutral	Neutral	hit	n/a
359.447	n/a	RESPONSE	n/a	n/a	n/a	n/a	n/a	n/a	n/a	blue
359.4759	1.0167	ITI	n/a	n/a	n/a	n/a	n/a	n/a	n/a	n/a
360.4926	0.5167	FIXCROSS	n/a	n/a	n/a	n/a	n/a	n/a	n/a	n/a
361.0092	0.6333	COLOR_NAME	43	Neutral	żółty	yellow	Neutral	Neutral	hit	n/a
361.6224	n/a	RESPONSE	n/a	n/a	n/a	n/a	n/a	n/a	n/a	yellow
361.6426	1.0167	ITI	n/a	n/a	n/a	n/a	n/a	n/a	n/a	n/a
362.6592	0.5167	FIXCROSS	n/a	n/a	n/a	n/a	n/a	n/a	n/a	n/a
363.1759	0.6	COLOR_NAME	44	Neutral	zielony	green	Neutral	Neutral	hit	n/a
363.7499	n/a	RESPONSE	n/a	n/a	n/a	n/a	n/a	n/a	n/a	green
363.7759	1.0167	ITI	n/a	n/a	n/a	n/a	n/a	n/a	n/a	n/a
364.7926	0.5167	FIXCROSS	n/a	n/a	n/a	n/a	n/a	n/a	n/a	n/a
365.3093	0.5667	COLOR_NAME	45	Incongruent	zielony	green	niebieski	blue	hit	n/a
365.8454	n/a	RESPONSE	n/a	n/a	n/a	n/a	n/a	n/a	n/a	green
365.8759	1.0167	ITI	n/a	n/a	n/a	n/a	n/a	n/a	n/a	n/a
366.8926	0.5167	FIXCROSS	n/a	n/a	n/a	n/a	n/a	n/a	n/a	n/a
367.4093	0.7167	COLOR_NAME	46	Incongruent	żółty	yellow	zielony	green	hit	n/a
368.1008	n/a	RESPONSE	n/a	n/a	n/a	n/a	n/a	n/a	n/a	yellow
368.1259	1.0167	ITI	n/a	n/a	n/a	n/a	n/a	n/a	n/a	n/a
369.1426	0.5167	FIXCROSS	n/a	n/a	n/a	n/a	n/a	n/a	n/a	n/a
369.6593	0.7	COLOR_NAME	47	Neutral	niebieski	blue	Neutral	Neutral	hit	n/a
370.3402	n/a	RESPONSE	n/a	n/a	n/a	n/a	n/a	n/a	n/a	blue
370.3593	1.0167	ITI	n/a	n/a	n/a	n/a	n/a	n/a	n/a	n/a
371.376	0.5167	FIXCROSS	n/a	n/a	n/a	n/a	n/a	n/a	n/a	n/a
371.8926	0.7333	COLOR_NAME	48	Incongruent	zielony	green	niebieski	blue	hit	n/a
372.5957	n/a	RESPONSE	n/a	n/a	n/a	n/a	n/a	n/a	n/a	green
372.626	1.0167	ITI	n/a	n/a	n/a	n/a	n/a	n/a	n/a	n/a
373.6426	0.5167	FIXCROSS	n/a	n/a	n/a	n/a	n/a	n/a	n/a	n/a
374.1593	0.6667	COLOR_NAME	49	Incongruent	żółty	yellow	zielony	green	hit	n/a
374.8032	n/a	RESPONSE	n/a	n/a	n/a	n/a	n/a	n/a	n/a	yellow
374.826	1.0167	ITI	n/a	n/a	n/a	n/a	n/a	n/a	n/a	n/a
375.8427	0.5167	FIXCROSS	n/a	n/a	n/a	n/a	n/a	n/a	n/a	n/a
376.3593	0.7167	COLOR_NAME	50	Incongruent	czerwony	red	zielony	green	hit	n/a
377.0426	n/a	RESPONSE	n/a	n/a	n/a	n/a	n/a	n/a	n/a	red
377.076	1.0167	ITI	n/a	n/a	n/a	n/a	n/a	n/a	n/a	n/a
378.0927	0.5167	FIXCROSS	n/a	n/a	n/a	n/a	n/a	n/a	n/a	n/a
378.6094	0.9167	COLOR_NAME	51	Incongruent	czerwony	red	żółty	yellow	hit	n/a
379.506	n/a	RESPONSE	n/a	n/a	n/a	n/a	n/a	n/a	n/a	red
379.526	1.0167	ITI	n/a	n/a	n/a	n/a	n/a	n/a	n/a	n/a
380.5427	0.5167	FIXCROSS	n/a	n/a	n/a	n/a	n/a	n/a	n/a	n/a
381.0594	0.7667	COLOR_NAME	52	Incongruent	żółty	yellow	czerwony	red	hit	n/a
381.7934	n/a	RESPONSE	n/a	n/a	n/a	n/a	n/a	n/a	n/a	yellow
381.826	1.0167	ITI	n/a	n/a	n/a	n/a	n/a	n/a	n/a	n/a
382.8427	0.5167	FIXCROSS	n/a	n/a	n/a	n/a	n/a	n/a	n/a	n/a
383.3594	0.6	COLOR_NAME	53	Neutral	niebieski	blue	Neutral	Neutral	hit	n/a
383.9369	n/a	RESPONSE	n/a	n/a	n/a	n/a	n/a	n/a	n/a	blue
383.9594	1.0167	ITI	n/a	n/a	n/a	n/a	n/a	n/a	n/a	n/a
384.9761	0.5167	FIXCROSS	n/a	n/a	n/a	n/a	n/a	n/a	n/a	n/a
385.4927	0.65	COLOR_NAME	54	Neutral	niebieski	blue	Neutral	Neutral	hit	n/a
386.1123	n/a	RESPONSE	n/a	n/a	n/a	n/a	n/a	n/a	n/a	blue
386.1427	1.0167	ITI	n/a	n/a	n/a	n/a	n/a	n/a	n/a	n/a
387.1594	0.5167	FIXCROSS	n/a	n/a	n/a	n/a	n/a	n/a	n/a	n/a
387.6761	1.0167	COLOR_NAME	55	Neutral	zielony	green	Neutral	Neutral	hit	n/a
388.6717	n/a	RESPONSE	n/a	n/a	n/a	n/a	n/a	n/a	n/a	green
388.6927	1.0167	ITI	n/a	n/a	n/a	n/a	n/a	n/a	n/a	n/a
389.7094	0.5167	FIXCROSS	n/a	n/a	n/a	n/a	n/a	n/a	n/a	n/a
390.2261	1.1667	COLOR_NAME	56	Neutral	czerwony	red	Neutral	Neutral	hit	n/a
391.375	n/a	RESPONSE	n/a	n/a	n/a	n/a	n/a	n/a	n/a	red
391.3928	1.0167	ITI	n/a	n/a	n/a	n/a	n/a	n/a	n/a	n/a
392.4094	0.5167	FIXCROSS	n/a	n/a	n/a	n/a	n/a	n/a	n/a	n/a
392.9261	0.9167	COLOR_NAME	57	Incongruent	niebieski	blue	żółty	yellow	hit	n/a
393.8224	n/a	RESPONSE	n/a	n/a	n/a	n/a	n/a	n/a	n/a	blue
393.8428	1.0167	ITI	n/a	n/a	n/a	n/a	n/a	n/a	n/a	n/a
394.8595	0.5167	FIXCROSS	n/a	n/a	n/a	n/a	n/a	n/a	n/a	n/a
395.3761	0.8667	COLOR_NAME	58	Neutral	żółty	yellow	Neutral	Neutral	hit	n/a
396.2218	n/a	RESPONSE	n/a	n/a	n/a	n/a	n/a	n/a	n/a	yellow
396.2428	1.0167	ITI	n/a	n/a	n/a	n/a	n/a	n/a	n/a	n/a
397.2595	0.5167	FIXCROSS	n/a	n/a	n/a	n/a	n/a	n/a	n/a	n/a
397.7761	0.8333	COLOR_NAME	59	Incongruent	czerwony	red	niebieski	blue	hit	n/a
398.5893	n/a	RESPONSE	n/a	n/a	n/a	n/a	n/a	n/a	n/a	red
398.6095	1.0167	ITI	n/a	n/a	n/a	n/a	n/a	n/a	n/a	n/a
399.6262	0.5167	FIXCROSS	n/a	n/a	n/a	n/a	n/a	n/a	n/a	n/a
400.1428	0.8167	COLOR_NAME	60	Neutral	czerwony	red	Neutral	Neutral	hit	n/a
400.9407	n/a	RESPONSE	n/a	n/a	n/a	n/a	n/a	n/a	n/a	red
400.9595	1.0167	ITI	n/a	n/a	n/a	n/a	n/a	n/a	n/a	n/a
401.9762	0.5167	FIXCROSS	n/a	n/a	n/a	n/a	n/a	n/a	n/a	n/a
402.4928	0.7167	COLOR_NAME	61	Incongruent	niebieski	blue	żółty	yellow	hit	n/a
403.1801	n/a	RESPONSE	n/a	n/a	n/a	n/a	n/a	n/a	n/a	blue
403.2095	1.0167	ITI	n/a	n/a	n/a	n/a	n/a	n/a	n/a	n/a
404.2262	0.5167	FIXCROSS	n/a	n/a	n/a	n/a	n/a	n/a	n/a	n/a
404.7429	0.7	COLOR_NAME	62	Incongruent	czerwony	red	żółty	yellow	hit	n/a
405.4196	n/a	RESPONSE	n/a	n/a	n/a	n/a	n/a	n/a	n/a	red
405.4429	1.0167	ITI	n/a	n/a	n/a	n/a	n/a	n/a	n/a	n/a
406.4595	0.5167	FIXCROSS	n/a	n/a	n/a	n/a	n/a	n/a	n/a	n/a
406.9762	0.7	COLOR_NAME	63	Neutral	czerwony	red	Neutral	Neutral	hit	n/a
407.659	n/a	RESPONSE	n/a	n/a	n/a	n/a	n/a	n/a	n/a	red
407.6762	1.0167	ITI	n/a	n/a	n/a	n/a	n/a	n/a	n/a	n/a
408.6929	0.5167	FIXCROSS	n/a	n/a	n/a	n/a	n/a	n/a	n/a	n/a
409.2096	0.65	COLOR_NAME	64	Neutral	czerwony	red	Neutral	Neutral	hit	n/a
409.8345	n/a	RESPONSE	n/a	n/a	n/a	n/a	n/a	n/a	n/a	red
409.8596	1.0167	ITI	n/a	n/a	n/a	n/a	n/a	n/a	n/a	n/a
410.8762	0.5167	FIXCROSS	n/a	n/a	n/a	n/a	n/a	n/a	n/a	n/a
411.3929	0.95	COLOR_NAME	65	Neutral	żółty	yellow	Neutral	Neutral	hit	n/a
412.3139	n/a	RESPONSE	n/a	n/a	n/a	n/a	n/a	n/a	n/a	yellow
412.3429	1.0167	ITI	n/a	n/a	n/a	n/a	n/a	n/a	n/a	n/a
413.3596	0.5167	FIXCROSS	n/a	n/a	n/a	n/a	n/a	n/a	n/a	n/a
413.8763	1.05	COLOR_NAME	66	Neutral	zielony	green	Neutral	Neutral	hit	n/a
414.9052	n/a	RESPONSE	n/a	n/a	n/a	n/a	n/a	n/a	n/a	green
414.9262	1.0167	ITI	n/a	n/a	n/a	n/a	n/a	n/a	n/a	n/a
415.9429	0.5167	FIXCROSS	n/a	n/a	n/a	n/a	n/a	n/a	n/a	n/a
416.4596	0.75	COLOR_NAME	67	Neutral	niebieski	blue	Neutral	Neutral	hit	n/a
417.1766	n/a	RESPONSE	n/a	n/a	n/a	n/a	n/a	n/a	n/a	blue
417.2096	1.0167	ITI	n/a	n/a	n/a	n/a	n/a	n/a	n/a	n/a
418.2263	0.5167	FIXCROSS	n/a	n/a	n/a	n/a	n/a	n/a	n/a	n/a
418.743	0.6833	COLOR_NAME	68	Neutral	niebieski	blue	Neutral	Neutral	hit	n/a
419.4001	n/a	RESPONSE	n/a	n/a	n/a	n/a	n/a	n/a	n/a	blue
419.4263	1.0167	ITI	n/a	n/a	n/a	n/a	n/a	n/a	n/a	n/a
420.443	0.5167	FIXCROSS	n/a	n/a	n/a	n/a	n/a	n/a	n/a	n/a
420.9596	0.8333	COLOR_NAME	69	Neutral	czerwony	red	Neutral	Neutral	hit	n/a
421.7675	n/a	RESPONSE	n/a	n/a	n/a	n/a	n/a	n/a	n/a	red
421.793	1.0167	ITI	n/a	n/a	n/a	n/a	n/a	n/a	n/a	n/a
422.8096	0.5167	FIXCROSS	n/a	n/a	n/a	n/a	n/a	n/a	n/a	n/a
423.3263	0.9167	COLOR_NAME	70	Incongruent	czerwony	red	zielony	green	hit	n/a
424.2149	n/a	RESPONSE	n/a	n/a	n/a	n/a	n/a	n/a	n/a	red
424.243	1.0167	ITI	n/a	n/a	n/a	n/a	n/a	n/a	n/a	n/a
425.2597	0.5167	FIXCROSS	n/a	n/a	n/a	n/a	n/a	n/a	n/a	n/a
425.7763	0.9333	COLOR_NAME	71	Neutral	żółty	yellow	Neutral	Neutral	hit	n/a
426.6783	n/a	RESPONSE	n/a	n/a	n/a	n/a	n/a	n/a	n/a	yellow
426.7097	1.0167	ITI	n/a	n/a	n/a	n/a	n/a	n/a	n/a	n/a
427.7263	0.5167	FIXCROSS	n/a	n/a	n/a	n/a	n/a	n/a	n/a	n/a
428.243	0.6833	COLOR_NAME	72	Neutral	czerwony	red	Neutral	Neutral	hit	n/a
428.9017	n/a	RESPONSE	n/a	n/a	n/a	n/a	n/a	n/a	n/a	red
428.9264	1.0333	ITI	n/a	n/a	n/a	n/a	n/a	n/a	n/a	n/a
434.9002	n/a	RESPONSE	n/a	n/a	n/a	n/a	n/a	n/a	n/a	n/a
