onset	duration	trial_type	melody_number	melody_part	key	sound	action
0.0	14.082	CUE_START	n/a	n/a	n/a	n/a	n/a
14.082	7.76	FIXCROSS	n/a	n/a	n/a	n/a	n/a
21.842	6.324	CUE_LISTEN	M4	1	n/a	n/a	n/a
28.165	7.758	FIXCROSS	n/a	n/a	n/a	n/a	n/a
35.924	6.317	CUE_PLAYBACK_BOTH_HANDS	M4	1	n/a	n/a	n/a
37.09	n/a	RESPONSE	M4	1	05	F3	press
37.1	n/a	RESPONSE	M4	1	09	A3	press
37.111	n/a	RESPONSE	M4	1	12	C4	press
37.432	n/a	RESPONSE	M4	1	16	E4	press
37.944	n/a	RESPONSE	M4	1	21	A4	press
38.085	n/a	RESPONSE	M4	1	21	A4	release
38.089	n/a	RESPONSE	M4	1	16	E4	release
38.137	n/a	RESPONSE	M4	1	12	C4	release
38.17	n/a	RESPONSE	M4	1	09	A3	release
38.392	n/a	RESPONSE	M4	1	09	A3	press
38.404	n/a	RESPONSE	M4	1	12	C4	press
38.722	n/a	RESPONSE	M4	1	17	F4	press
39.135	n/a	RESPONSE	M4	1	23	B4	press
39.197	n/a	RESPONSE	M4	1	17	F4	release
39.517	n/a	RESPONSE	M4	1	23	B4	release
39.619	n/a	RESPONSE	M4	1	12	C4	release
39.77	n/a	RESPONSE	M4	1	12	C4	press
39.811	n/a	RESPONSE	M4	1	21	A4	press
40.142	n/a	RESPONSE	M4	1	19	G4	press
40.284	n/a	RESPONSE	M4	1	21	A4	release
40.435	n/a	RESPONSE	M4	1	17	F4	press
40.526	n/a	RESPONSE	M4	1	19	G4	release
40.747	n/a	RESPONSE	M4	1	16	E4	press
40.851	n/a	RESPONSE	M4	1	17	F4	release
41.072	n/a	RESPONSE	M4	1	17	F4	press
41.161	n/a	RESPONSE	M4	1	16	E4	release
41.322	n/a	RESPONSE	M4	1	12	C4	release
41.333	n/a	RESPONSE	M4	1	09	A3	release
41.405	n/a	RESPONSE	M4	1	05	F3	release
41.446	n/a	RESPONSE	M4	1	17	F4	release
41.66	n/a	RESPONSE	M4	1	05	F3	press
41.669	n/a	RESPONSE	M4	1	09	A3	press
41.671	n/a	RESPONSE	M4	1	12	C4	press
42.151	n/a	RESPONSE	M4	1	17	F4	press
42.24	7.758	FIXCROSS	n/a	n/a	n/a	n/a	n/a
42.692	n/a	RESPONSE	M4	1	21	A4	press
42.734	n/a	RESPONSE	M4	1	17	F4	release
42.865	n/a	RESPONSE	M4	1	21	A4	release
42.916	n/a	RESPONSE	M4	1	09	A3	release
42.949	n/a	RESPONSE	M4	1	12	C4	release
43.395	n/a	RESPONSE	M4	1	05	F3	release
49.999	6.317	CUE_LISTEN	M4	2	n/a	n/a	n/a
56.316	7.758	FIXCROSS	n/a	n/a	n/a	n/a	n/a
64.074	6.325	CUE_PLAYBACK_BOTH_HANDS	M4	2	n/a	n/a	n/a
64.59	n/a	RESPONSE	M4	2	05	F3	press
64.592	n/a	RESPONSE	M4	2	09	A3	press
64.607	n/a	RESPONSE	M4	2	12	C4	press
64.865	n/a	RESPONSE	M4	2	16	E4	press
65.206	n/a	RESPONSE	M4	2	21	A4	press
65.426	n/a	RESPONSE	M4	2	16	E4	release
65.535	n/a	RESPONSE	M4	2	21	A4	release
65.595	n/a	RESPONSE	M4	2	05	F3	release
65.602	n/a	RESPONSE	M4	2	09	A3	release
65.671	n/a	RESPONSE	M4	2	12	C4	release
65.765	n/a	RESPONSE	M4	2	05	F3	press
65.767	n/a	RESPONSE	M4	2	09	A3	press
65.77	n/a	RESPONSE	M4	2	12	C4	press
66.026	n/a	RESPONSE	M4	2	16	E4	press
66.7	n/a	RESPONSE	M4	2	16	E4	release
66.751	n/a	RESPONSE	M4	2	09	A3	release
66.762	n/a	RESPONSE	M4	2	12	C4	release
66.894	n/a	RESPONSE	M4	2	09	A3	press
66.896	n/a	RESPONSE	M4	2	12	C4	press
67.159	n/a	RESPONSE	M4	2	17	F4	press
67.5	n/a	RESPONSE	M4	2	21	A4	press
67.639	n/a	RESPONSE	M4	2	17	F4	release
67.88	n/a	RESPONSE	M4	2	19	G4	press
68.001	n/a	RESPONSE	M4	2	19	G4	release
68.182	n/a	RESPONSE	M4	2	21	A4	release
68.284	n/a	RESPONSE	M4	2	20	G#4	press
68.585	n/a	RESPONSE	M4	2	17	F4	press
68.736	n/a	RESPONSE	M4	2	20	G#4	release
68.867	n/a	RESPONSE	M4	2	17	F4	release
68.889	n/a	RESPONSE	M4	2	12	C4	release
68.9	n/a	RESPONSE	M4	2	05	F3	release
68.911	n/a	RESPONSE	M4	2	09	A3	release
69.794	n/a	RESPONSE	M4	2	05	F3	press
69.796	n/a	RESPONSE	M4	2	09	A3	press
69.806	n/a	RESPONSE	M4	2	12	C4	press
70.147	n/a	RESPONSE	M4	2	16	E4	press
70.399	7.759	FIXCROSS	n/a	n/a	n/a	n/a	n/a
70.74	n/a	RESPONSE	M4	2	16	E4	release
70.79	n/a	RESPONSE	M4	2	12	C4	release
70.801	n/a	RESPONSE	M4	2	09	A3	release
70.832	n/a	RESPONSE	M4	2	05	F3	release
78.157	6.317	CUE_LISTEN	M1	1	n/a	n/a	n/a
84.474	7.758	FIXCROSS	n/a	n/a	n/a	n/a	n/a
92.232	6.317	CUE_PLAYBACK_RIGHT_HAND	M1	1	n/a	n/a	n/a
92.768	n/a	RESPONSE	M1	1	19	G4	press
93.307	n/a	RESPONSE	M1	1	16	E4	press
93.425	n/a	RESPONSE	M1	1	19	G4	release
93.775	n/a	RESPONSE	M1	1	16	E4	release
93.854	n/a	RESPONSE	M1	1	16	E4	press
94.369	n/a	RESPONSE	M1	1	17	F4	press
94.39	n/a	RESPONSE	M1	1	16	E4	release
94.879	n/a	RESPONSE	M1	1	14	D4	press
94.977	n/a	RESPONSE	M1	1	17	F4	release
95.257	n/a	RESPONSE	M1	1	14	D4	release
95.356	n/a	RESPONSE	M1	1	14	D4	press
95.849	n/a	RESPONSE	M1	1	12	C4	press
95.92	n/a	RESPONSE	M1	1	14	D4	release
96.104	n/a	RESPONSE	M1	1	16	E4	press
96.255	n/a	RESPONSE	M1	1	12	C4	release
96.365	n/a	RESPONSE	M1	1	19	G4	press
96.452	n/a	RESPONSE	M1	1	16	E4	release
97.452	n/a	RESPONSE	M1	1	19	G4	release
98.549	7.758	FIXCROSS	n/a	n/a	n/a	n/a	n/a
106.307	6.325	CUE_LISTEN	M1	2	n/a	n/a	n/a
112.632	7.758	FIXCROSS	n/a	n/a	n/a	n/a	n/a
120.391	6.317	CUE_PLAYBACK_RIGHT_HAND	M1	2	n/a	n/a	n/a
120.841	n/a	RESPONSE	M1	2	19	G4	press
121.361	n/a	RESPONSE	M1	2	16	E4	press
121.472	n/a	RESPONSE	M1	2	19	G4	release
121.814	n/a	RESPONSE	M1	2	16	E4	release
121.866	n/a	RESPONSE	M1	2	16	E4	press
122.386	n/a	RESPONSE	M1	2	17	F4	press
122.438	n/a	RESPONSE	M1	2	16	E4	release
122.869	n/a	RESPONSE	M1	2	14	D4	press
122.952	n/a	RESPONSE	M1	2	17	F4	release
123.294	n/a	RESPONSE	M1	2	14	D4	release
123.374	n/a	RESPONSE	M1	2	14	D4	press
123.902	n/a	RESPONSE	M1	2	12	C4	press
123.932	n/a	RESPONSE	M1	2	14	D4	release
124.145	n/a	RESPONSE	M1	2	16	E4	press
124.305	n/a	RESPONSE	M1	2	12	C4	release
124.421	n/a	RESPONSE	M1	2	12	C4	press
124.482	n/a	RESPONSE	M1	2	16	E4	release
125.476	n/a	RESPONSE	M1	2	12	C4	release
126.707	7.758	FIXCROSS	n/a	n/a	n/a	n/a	n/a
134.466	6.317	CUE_LISTEN	M5	1	n/a	n/a	n/a
140.782	7.758	FIXCROSS	n/a	n/a	n/a	n/a	n/a
148.541	6.325	CUE_PLAYBACK_BOTH_HANDS	M5	1	n/a	n/a	n/a
149.022	n/a	RESPONSE	M5	1	21	A4	press
149.034	n/a	RESPONSE	M5	1	05	F3	press
149.415	n/a	RESPONSE	M5	1	09	A3	press
149.576	n/a	RESPONSE	M5	1	05	F3	release
149.708	n/a	RESPONSE	M5	1	21	A4	release
149.749	n/a	RESPONSE	M5	1	09	A3	release
149.751	n/a	RESPONSE	M5	1	21	A4	press
149.771	n/a	RESPONSE	M5	1	04	E3	press
150.102	n/a	RESPONSE	M5	1	09	A3	press
150.194	n/a	RESPONSE	M5	1	04	E3	release
150.196	n/a	RESPONSE	M5	1	21	A4	release
150.406	n/a	RESPONSE	M5	1	21	A4	press
150.438	n/a	RESPONSE	M5	1	02	D3	press
150.479	n/a	RESPONSE	M5	1	09	A3	release
150.71	n/a	RESPONSE	M5	1	02	D3	release
150.731	n/a	RESPONSE	M5	1	09	A3	press
150.985	n/a	RESPONSE	M5	1	21	A4	release
151.046	n/a	RESPONSE	M5	1	21	A4	press
151.055	n/a	RESPONSE	M5	1	00	C3	press
151.086	n/a	RESPONSE	M5	1	09	A3	release
151.348	n/a	RESPONSE	M5	1	09	A3	press
151.379	n/a	RESPONSE	M5	1	00	C3	release
151.53	n/a	RESPONSE	M5	1	21	A4	release
151.671	n/a	RESPONSE	M5	1	05	F3	press
151.682	n/a	RESPONSE	M5	1	21	A4	press
151.695	n/a	RESPONSE	M5	1	09	A3	release
151.985	n/a	RESPONSE	M5	1	24	C5	press
152.016	n/a	RESPONSE	M5	1	23	B4	press
152.028	n/a	RESPONSE	M5	1	09	A3	press
152.071	n/a	RESPONSE	M5	1	21	A4	release
152.09	n/a	RESPONSE	M5	1	05	F3	release
152.321	n/a	RESPONSE	M5	1	23	B4	release
152.382	n/a	RESPONSE	M5	1	24	C5	release
152.394	n/a	RESPONSE	M5	1	17	F4	press
152.396	n/a	RESPONSE	M5	1	04	E3	press
152.456	n/a	RESPONSE	M5	1	09	A3	release
152.738	n/a	RESPONSE	M5	1	09	A3	press
152.769	n/a	RESPONSE	M5	1	19	G4	press
152.791	n/a	RESPONSE	M5	1	04	E3	release
152.999	n/a	RESPONSE	M5	1	17	F4	release
153.102	n/a	RESPONSE	M5	1	21	A4	press
153.105	n/a	RESPONSE	M5	1	02	D3	press
153.164	n/a	RESPONSE	M5	1	09	A3	release
153.184	n/a	RESPONSE	M5	1	19	G4	release
153.45	n/a	RESPONSE	M5	1	09	A3	press
153.52	n/a	RESPONSE	M5	1	02	D3	release
153.808	n/a	RESPONSE	M5	1	00	C3	press
153.892	n/a	RESPONSE	M5	1	09	A3	release
154.159	n/a	RESPONSE	M5	1	09	A3	press
154.238	n/a	RESPONSE	M5	1	00	C3	release
154.374	n/a	RESPONSE	M5	1	21	A4	release
154.866	7.758	FIXCROSS	n/a	n/a	n/a	n/a	n/a
155.108	n/a	RESPONSE	M5	1	09	A3	release
162.624	6.317	CUE_LISTEN	M5	2	n/a	n/a	n/a
168.941	7.758	FIXCROSS	n/a	n/a	n/a	n/a	n/a
176.699	6.317	CUE_PLAYBACK_BOTH_HANDS	M5	2	n/a	n/a	n/a
177.174	n/a	RESPONSE	M5	2	07	G3	press
177.185	n/a	RESPONSE	M5	2	22	A#4	press
177.446	n/a	RESPONSE	M5	2	07	G3	release
177.449	n/a	RESPONSE	M5	2	22	A#4	release
177.539	n/a	RESPONSE	M5	2	22	A#4	press
177.58	n/a	RESPONSE	M5	2	10	A#3	press
177.791	n/a	RESPONSE	M5	2	22	A#4	release
177.812	n/a	RESPONSE	M5	2	10	A#3	release
177.884	n/a	RESPONSE	M5	2	22	A#4	press
177.945	n/a	RESPONSE	M5	2	04	E3	press
178.206	n/a	RESPONSE	M5	2	22	A#4	release
178.268	n/a	RESPONSE	M5	2	22	A#4	press
178.279	n/a	RESPONSE	M5	2	10	A#3	press
178.281	n/a	RESPONSE	M5	2	04	E3	release
178.512	n/a	RESPONSE	M5	2	22	A#4	release
178.562	n/a	RESPONSE	M5	2	10	A#3	release
178.576	n/a	RESPONSE	M5	2	22	A#4	press
178.615	n/a	RESPONSE	M5	2	05	F3	press
178.976	n/a	RESPONSE	M5	2	21	A4	press
178.979	n/a	RESPONSE	M5	2	09	A3	press
179.013	n/a	RESPONSE	M5	2	07	G3	press
179.041	n/a	RESPONSE	M5	2	22	A#4	release
179.044	n/a	RESPONSE	M5	2	05	F3	release
179.204	n/a	RESPONSE	M5	2	07	G3	release
179.325	n/a	RESPONSE	M5	2	21	A4	release
179.376	n/a	RESPONSE	M5	2	21	A4	press
179.398	n/a	RESPONSE	M5	2	00	C3	press
179.409	n/a	RESPONSE	M5	2	09	A3	release
179.71	n/a	RESPONSE	M5	2	21	A4	release
179.751	n/a	RESPONSE	M5	2	21	A4	press
179.772	n/a	RESPONSE	M5	2	09	A3	press
179.784	n/a	RESPONSE	M5	2	00	C3	release
180.055	n/a	RESPONSE	M5	2	21	A4	release
180.126	n/a	RESPONSE	M5	2	21	A4	press
180.148	n/a	RESPONSE	M5	2	07	G3	press
180.209	n/a	RESPONSE	M5	2	09	A3	release
180.5	n/a	RESPONSE	M5	2	11	B3	press
180.521	n/a	RESPONSE	M5	2	19	G4	press
180.582	n/a	RESPONSE	M5	2	21	A4	release
180.594	n/a	RESPONSE	M5	2	07	G3	release
180.815	n/a	RESPONSE	M5	2	19	G4	release
180.866	n/a	RESPONSE	M5	2	11	B3	release
180.869	n/a	RESPONSE	M5	2	02	D3	press
180.889	n/a	RESPONSE	M5	2	19	G4	press
181.23	n/a	RESPONSE	M5	2	19	G4	release
181.241	n/a	RESPONSE	M5	2	07	G3	press
181.244	n/a	RESPONSE	M5	2	21	A4	press
181.264	n/a	RESPONSE	M5	2	02	D3	release
181.596	n/a	RESPONSE	M5	2	19	G4	press
181.606	n/a	RESPONSE	M5	2	00	C3	press
181.648	n/a	RESPONSE	M5	2	07	G3	release
181.659	n/a	RESPONSE	M5	2	21	A4	release
181.97	n/a	RESPONSE	M5	2	07	G3	press
182.081	n/a	RESPONSE	M5	2	00	C3	release
182.304	n/a	RESPONSE	M5	2	04	E3	press
182.345	n/a	RESPONSE	M5	2	24	C5	press
182.355	n/a	RESPONSE	M5	2	19	G4	release
182.386	n/a	RESPONSE	M5	2	07	G3	release
182.658	n/a	RESPONSE	M5	2	07	G3	press
182.819	n/a	RESPONSE	M5	2	04	E3	release
182.9	n/a	RESPONSE	M5	2	24	C5	release
183.016	7.767	FIXCROSS	n/a	n/a	n/a	n/a	n/a
183.079	n/a	RESPONSE	M5	2	07	G3	release
190.782	6.317	CUE_LISTEN	M5	1	n/a	n/a	n/a
197.099	7.758	FIXCROSS	n/a	n/a	n/a	n/a	n/a
204.858	6.317	CUE_PLAYBACK_BOTH_HANDS	M5	1	n/a	n/a	n/a
205.409	n/a	RESPONSE	M5	1	21	A4	press
205.411	n/a	RESPONSE	M5	1	05	F3	press
205.669	n/a	RESPONSE	M5	1	21	A4	release
205.699	n/a	RESPONSE	M5	1	05	F3	release
205.72	n/a	RESPONSE	M5	1	09	A3	press
205.724	n/a	RESPONSE	M5	1	21	A4	press
205.944	n/a	RESPONSE	M5	1	21	A4	release
205.998	n/a	RESPONSE	M5	1	09	A3	release
206.019	n/a	RESPONSE	M5	1	04	E3	press
206.021	n/a	RESPONSE	M5	1	21	A4	press
206.334	n/a	RESPONSE	M5	1	09	A3	press
206.478	n/a	RESPONSE	M5	1	04	E3	release
206.582	n/a	RESPONSE	M5	1	21	A4	release
206.649	n/a	RESPONSE	M5	1	02	D3	press
206.67	n/a	RESPONSE	M5	1	21	A4	press
206.672	n/a	RESPONSE	M5	1	09	A3	release
206.912	n/a	RESPONSE	M5	1	21	A4	release
206.944	n/a	RESPONSE	M5	1	02	D3	release
206.956	n/a	RESPONSE	M5	1	21	A4	press
206.959	n/a	RESPONSE	M5	1	09	A3	press
207.238	n/a	RESPONSE	M5	1	21	A4	release
207.29	n/a	RESPONSE	M5	1	00	C3	press
207.3	n/a	RESPONSE	M5	1	21	A4	press
207.311	n/a	RESPONSE	M5	1	09	A3	release
207.594	n/a	RESPONSE	M5	1	09	A3	press
207.644	n/a	RESPONSE	M5	1	00	C3	release
207.805	n/a	RESPONSE	M5	1	21	A4	release
207.936	n/a	RESPONSE	M5	1	05	F3	press
207.939	n/a	RESPONSE	M5	1	21	A4	press
207.959	n/a	RESPONSE	M5	1	09	A3	release
208.23	n/a	RESPONSE	M5	1	24	C5	press
208.271	n/a	RESPONSE	M5	1	09	A3	press
208.312	n/a	RESPONSE	M5	1	05	F3	release
208.324	n/a	RESPONSE	M5	1	21	A4	release
208.555	n/a	RESPONSE	M5	1	17	F4	press
208.558	n/a	RESPONSE	M5	1	04	E3	press
208.658	n/a	RESPONSE	M5	1	24	C5	release
208.699	n/a	RESPONSE	M5	1	09	A3	release
208.87	n/a	RESPONSE	M5	1	09	A3	press
208.911	n/a	RESPONSE	M5	1	04	E3	release
208.914	n/a	RESPONSE	M5	1	19	G4	press
209.066	n/a	RESPONSE	M5	1	17	F4	release
209.196	n/a	RESPONSE	M5	1	02	D3	press
209.199	n/a	RESPONSE	M5	1	21	A4	press
209.27	n/a	RESPONSE	M5	1	09	A3	release
209.28	n/a	RESPONSE	M5	1	19	G4	release
209.501	n/a	RESPONSE	M5	1	09	A3	press
209.555	n/a	RESPONSE	M5	1	02	D3	release
209.826	n/a	RESPONSE	M5	1	00	C3	press
209.935	n/a	RESPONSE	M5	1	09	A3	release
210.146	n/a	RESPONSE	M5	1	09	A3	press
210.248	n/a	RESPONSE	M5	1	00	C3	release
210.419	n/a	RESPONSE	M5	1	21	A4	release
210.75	n/a	RESPONSE	M5	1	09	A3	release
211.174	7.758	FIXCROSS	n/a	n/a	n/a	n/a	n/a
218.933	6.325	CUE_LISTEN	M5	2	n/a	n/a	n/a
225.258	14.075	FIXCROSS	n/a	n/a	n/a	n/a	n/a
233.016	n/a	CUE_PLAYBACK_BOTH_HANDS	M4	2	n/a	n/a	n/a
233.482	n/a	RESPONSE	M5	2	07	G3	press
233.494	n/a	RESPONSE	M5	2	22	A#4	press
233.728	n/a	RESPONSE	M5	2	22	A#4	release
233.778	n/a	RESPONSE	M5	2	22	A#4	press
233.788	n/a	RESPONSE	M5	2	10	A#3	press
233.79	n/a	RESPONSE	M5	2	07	G3	release
234.048	n/a	RESPONSE	M5	2	22	A#4	release
234.11	n/a	RESPONSE	M5	2	10	A#3	release
234.138	n/a	RESPONSE	M5	2	22	A#4	press
234.172	n/a	RESPONSE	M5	2	04	E3	press
234.451	n/a	RESPONSE	M5	2	22	A#4	release
234.504	n/a	RESPONSE	M5	2	10	A#3	press
234.511	n/a	RESPONSE	M5	2	04	E3	release
234.521	n/a	RESPONSE	M5	2	22	A#4	press
234.765	n/a	RESPONSE	M5	2	22	A#4	release
234.781	n/a	RESPONSE	M5	2	10	A#3	release
234.835	n/a	RESPONSE	M5	2	22	A#4	press
234.848	n/a	RESPONSE	M5	2	05	F3	press
235.199	n/a	RESPONSE	M5	2	09	A3	press
235.23	n/a	RESPONSE	M5	2	21	A4	press
235.281	n/a	RESPONSE	M5	2	05	F3	release
235.341	n/a	RESPONSE	M5	2	22	A#4	release
235.526	n/a	RESPONSE	M5	2	21	A4	release
235.565	n/a	RESPONSE	M5	2	00	C3	press
235.582	n/a	RESPONSE	M5	2	21	A4	press
235.615	n/a	RESPONSE	M5	2	09	A3	release
235.886	n/a	RESPONSE	M5	2	21	A4	release
235.945	n/a	RESPONSE	M5	2	21	A4	press
235.948	n/a	RESPONSE	M5	2	09	A3	press
235.954	n/a	RESPONSE	M5	2	00	C3	release
236.404	n/a	RESPONSE	M5	2	21	A4	release
236.479	n/a	RESPONSE	M5	2	09	A3	release
236.495	n/a	RESPONSE	M5	2	24	C5	press
236.509	n/a	RESPONSE	M5	2	00	C3	press
236.756	n/a	RESPONSE	M5	2	24	C5	release
236.869	n/a	RESPONSE	M5	2	24	C5	press
236.888	n/a	RESPONSE	M5	2	07	G3	press
236.89	n/a	RESPONSE	M5	2	00	C3	release
237.23	n/a	RESPONSE	M5	2	04	E3	press
237.291	n/a	RESPONSE	M5	2	07	G3	release
237.324	n/a	RESPONSE	M5	2	22	A#4	press
237.404	n/a	RESPONSE	M5	2	24	C5	release
237.595	n/a	RESPONSE	M5	2	22	A#4	release
237.676	n/a	RESPONSE	M5	2	19	G4	press
237.679	n/a	RESPONSE	M5	2	04	E3	release
237.681	n/a	RESPONSE	M5	2	05	F3	press
238.0	n/a	RESPONSE	M5	2	17	F4	press
238.014	n/a	RESPONSE	M5	2	07	G3	press
238.022	n/a	RESPONSE	M5	2	09	A3	press
238.034	n/a	RESPONSE	M5	2	19	G4	release
238.048	n/a	RESPONSE	M5	2	05	F3	release
238.256	n/a	RESPONSE	M5	2	09	A3	release
238.348	n/a	RESPONSE	M5	2	07	G3	release
238.369	n/a	RESPONSE	M5	2	05	F3	press
238.551	n/a	RESPONSE	M5	2	05	F3	release
238.641	n/a	RESPONSE	M5	2	17	F4	release
239.333	7.758	FIXCROSS	n/a	n/a	n/a	n/a	n/a
247.091	6.317	CUE_LISTEN	M2	1	n/a	n/a	n/a
253.408	7.758	FIXCROSS	n/a	n/a	n/a	n/a	n/a
261.166	6.325	CUE_PLAYBACK_RIGHT_HAND	M2	1	n/a	n/a	n/a
261.589	n/a	RESPONSE	M2	1	24	C5	press
262.051	n/a	RESPONSE	M2	1	19	G4	press
262.181	n/a	RESPONSE	M2	1	24	C5	release
262.372	n/a	RESPONSE	M2	1	19	G4	release
262.464	n/a	RESPONSE	M2	1	19	G4	press
262.915	n/a	RESPONSE	M2	1	17	F4	press
263.065	n/a	RESPONSE	M2	1	19	G4	release
263.339	n/a	RESPONSE	M2	1	16	E4	press
263.441	n/a	RESPONSE	M2	1	17	F4	release
263.754	n/a	RESPONSE	M2	1	17	F4	press
263.884	n/a	RESPONSE	M2	1	16	E4	release
264.174	n/a	RESPONSE	M2	1	19	G4	press
264.269	n/a	RESPONSE	M2	1	17	F4	release
265.664	n/a	RESPONSE	M2	1	19	G4	release
267.491	7.758	FIXCROSS	n/a	n/a	n/a	n/a	n/a
275.249	6.317	CUE_LISTEN	M2	2	n/a	n/a	n/a
281.566	7.758	FIXCROSS	n/a	n/a	n/a	n/a	n/a
289.324	6.317	CUE_PLAYBACK_RIGHT_HAND	M2	2	n/a	n/a	n/a
289.816	n/a	RESPONSE	M2	2	24	C5	press
290.316	n/a	RESPONSE	M2	2	19	G4	press
290.44	n/a	RESPONSE	M2	2	24	C5	release
290.651	n/a	RESPONSE	M2	2	19	G4	release
290.78	n/a	RESPONSE	M2	2	19	G4	press
291.271	n/a	RESPONSE	M2	2	17	F4	press
291.364	n/a	RESPONSE	M2	2	19	G4	release
291.734	n/a	RESPONSE	M2	2	16	E4	press
291.806	n/a	RESPONSE	M2	2	17	F4	release
292.246	n/a	RESPONSE	M2	2	14	D4	press
292.358	n/a	RESPONSE	M2	2	16	E4	release
292.699	n/a	RESPONSE	M2	2	12	C4	press
292.85	n/a	RESPONSE	M2	2	14	D4	release
293.961	n/a	RESPONSE	M2	2	12	C4	release
295.641	7.758	FIXCROSS	n/a	n/a	n/a	n/a	n/a
303.4	6.325	CUE_LISTEN	M2	1	n/a	n/a	n/a
309.724	7.758	FIXCROSS	n/a	n/a	n/a	n/a	n/a
317.483	6.317	CUE_PLAYBACK_RIGHT_HAND	M2	1	n/a	n/a	n/a
318.036	n/a	RESPONSE	M2	1	12	C4	press
318.545	n/a	RESPONSE	M2	1	14	D4	press
318.686	n/a	RESPONSE	M2	1	12	C4	release
319.039	n/a	RESPONSE	M2	1	16	E4	press
319.12	n/a	RESPONSE	M2	1	14	D4	release
319.551	n/a	RESPONSE	M2	1	14	D4	press
319.633	n/a	RESPONSE	M2	1	16	E4	release
320.034	n/a	RESPONSE	M2	1	16	E4	press
320.135	n/a	RESPONSE	M2	1	14	D4	release
320.526	n/a	RESPONSE	M2	1	17	F4	press
320.658	n/a	RESPONSE	M2	1	16	E4	release
321.009	n/a	RESPONSE	M2	1	19	G4	press
321.13	n/a	RESPONSE	M2	1	17	F4	release
322.171	n/a	RESPONSE	M2	1	19	G4	release
323.799	7.759	FIXCROSS	n/a	n/a	n/a	n/a	n/a
331.558	6.317	CUE_LISTEN	M2	2	n/a	n/a	n/a
337.874	7.758	FIXCROSS	n/a	n/a	n/a	n/a	n/a
345.633	6.325	CUE_PLAYBACK_RIGHT_HAND	M2	2	n/a	n/a	n/a
346.054	n/a	RESPONSE	M2	2	16	E4	press
346.541	n/a	RESPONSE	M2	2	19	G4	press
346.62	n/a	RESPONSE	M2	2	16	E4	release
347.291	n/a	RESPONSE	M2	2	19	G4	release
347.355	n/a	RESPONSE	M2	2	19	G4	press
347.845	n/a	RESPONSE	M2	2	17	F4	press
347.858	n/a	RESPONSE	M2	2	19	G4	release
348.296	n/a	RESPONSE	M2	2	16	E4	press
348.358	n/a	RESPONSE	M2	2	17	F4	release
348.73	n/a	RESPONSE	M2	2	14	D4	press
348.8	n/a	RESPONSE	M2	2	16	E4	release
349.203	n/a	RESPONSE	M2	2	12	C4	press
349.275	n/a	RESPONSE	M2	2	14	D4	release
350.265	n/a	RESPONSE	M2	2	12	C4	release
351.958	7.758	FIXCROSS	n/a	n/a	n/a	n/a	n/a
359.716	6.317	CUE_LISTEN	M3	1	n/a	n/a	n/a
366.033	7.758	FIXCROSS	n/a	n/a	n/a	n/a	n/a
373.791	6.317	CUE_PLAYBACK_BOTH_HANDS	M3	1	n/a	n/a	n/a
374.476	n/a	RESPONSE	M3	1	00	C3	press
374.479	n/a	RESPONSE	M3	1	12	C4	press
374.978	n/a	RESPONSE	M3	1	07	G3	press
374.985	n/a	RESPONSE	M3	1	14	D4	press
375.108	n/a	RESPONSE	M3	1	12	C4	release
375.203	n/a	RESPONSE	M3	1	00	C3	release
375.463	n/a	RESPONSE	M3	1	16	E4	press
375.475	n/a	RESPONSE	M3	1	04	E3	press
375.534	n/a	RESPONSE	M3	1	07	G3	release
375.548	n/a	RESPONSE	M3	1	14	D4	release
375.964	n/a	RESPONSE	M3	1	07	G3	press
375.968	n/a	RESPONSE	M3	1	12	C4	press
376.018	n/a	RESPONSE	M3	1	16	E4	release
376.046	n/a	RESPONSE	M3	1	04	E3	release
376.374	n/a	RESPONSE	M3	1	12	C4	release
376.419	n/a	RESPONSE	M3	1	07	G3	release
376.445	n/a	RESPONSE	M3	1	00	C3	press
376.47	n/a	RESPONSE	M3	1	12	C4	press
376.954	n/a	RESPONSE	M3	1	07	G3	press
376.964	n/a	RESPONSE	M3	1	14	D4	press
377.064	n/a	RESPONSE	M3	1	00	C3	release
377.066	n/a	RESPONSE	M3	1	12	C4	release
377.438	n/a	RESPONSE	M3	1	16	E4	press
377.459	n/a	RESPONSE	M3	1	04	E3	press
377.53	n/a	RESPONSE	M3	1	07	G3	release
377.533	n/a	RESPONSE	M3	1	14	D4	release
377.921	n/a	RESPONSE	M3	1	12	C4	press
377.933	n/a	RESPONSE	M3	1	07	G3	press
377.964	n/a	RESPONSE	M3	1	16	E4	release
377.995	n/a	RESPONSE	M3	1	04	E3	release
378.758	n/a	RESPONSE	M3	1	12	C4	release
378.788	n/a	RESPONSE	M3	1	07	G3	release
380.108	7.767	FIXCROSS	n/a	n/a	n/a	n/a	n/a
387.875	6.317	CUE_LISTEN	M3	2	n/a	n/a	n/a
394.191	7.758	FIXCROSS	n/a	n/a	n/a	n/a	n/a
401.95	6.317	CUE_PLAYBACK_BOTH_HANDS	M3	2	n/a	n/a	n/a
402.51	n/a	RESPONSE	M3	2	00	C3	press
402.523	n/a	RESPONSE	M3	2	16	E4	press
403.009	n/a	RESPONSE	M3	2	07	G3	press
403.03	n/a	RESPONSE	M3	2	17	F4	press
403.091	n/a	RESPONSE	M3	2	00	C3	release
403.126	n/a	RESPONSE	M3	2	16	E4	release
403.501	n/a	RESPONSE	M3	2	19	G4	press
403.513	n/a	RESPONSE	M3	2	04	E3	press
403.595	n/a	RESPONSE	M3	2	07	G3	release
403.608	n/a	RESPONSE	M3	2	17	F4	release
403.998	n/a	RESPONSE	M3	2	07	G3	press
404.136	n/a	RESPONSE	M3	2	04	E3	release
404.284	n/a	RESPONSE	M3	2	19	G4	release
404.489	n/a	RESPONSE	M3	2	00	C3	press
404.5	n/a	RESPONSE	M3	2	16	E4	press
404.549	n/a	RESPONSE	M3	2	07	G3	release
404.995	n/a	RESPONSE	M3	2	17	F4	press
405.001	n/a	RESPONSE	M3	2	07	G3	press
405.093	n/a	RESPONSE	M3	2	16	E4	release
405.099	n/a	RESPONSE	M3	2	00	C3	release
405.453	n/a	RESPONSE	M3	2	19	G4	press
405.486	n/a	RESPONSE	M3	2	04	E3	press
405.523	n/a	RESPONSE	M3	2	07	G3	release
405.558	n/a	RESPONSE	M3	2	17	F4	release
405.953	n/a	RESPONSE	M3	2	07	G3	press
406.049	n/a	RESPONSE	M3	2	04	E3	release
406.468	n/a	RESPONSE	M3	2	19	G4	release
406.535	n/a	RESPONSE	M3	2	07	G3	release
408.266	7.758	FIXCROSS	n/a	n/a	n/a	n/a	n/a
416.025	6.325	CUE_LISTEN	M3	1	n/a	n/a	n/a
422.35	7.758	FIXCROSS	n/a	n/a	n/a	n/a	n/a
430.108	6.317	CUE_PLAYBACK_BOTH_HANDS	M3	1	n/a	n/a	n/a
430.523	n/a	RESPONSE	M3	1	00	C3	press
430.554	n/a	RESPONSE	M3	1	19	G4	press
430.855	n/a	RESPONSE	M3	1	21	A4	press
430.986	n/a	RESPONSE	M3	1	19	G4	release
431.098	n/a	RESPONSE	M3	1	07	G3	press
431.109	n/a	RESPONSE	M3	1	19	G4	press
431.18	n/a	RESPONSE	M3	1	00	C3	release
431.261	n/a	RESPONSE	M3	1	21	A4	release
431.373	n/a	RESPONSE	M3	1	17	F4	press
431.565	n/a	RESPONSE	M3	1	19	G4	release
431.645	n/a	RESPONSE	M3	1	04	E3	press
431.676	n/a	RESPONSE	M3	1	16	E4	press
431.778	n/a	RESPONSE	M3	1	17	F4	release
431.78	n/a	RESPONSE	M3	1	07	G3	release
432.193	n/a	RESPONSE	M3	1	07	G3	press
432.203	n/a	RESPONSE	M3	1	12	C4	press
432.264	n/a	RESPONSE	M3	1	04	E3	release
432.304	n/a	RESPONSE	M3	1	12	C4	release
432.518	n/a	RESPONSE	M3	1	16	E4	release
432.606	n/a	RESPONSE	M3	1	07	G3	release
432.748	n/a	RESPONSE	M3	1	00	C3	press
432.769	n/a	RESPONSE	M3	1	19	G4	press
433.066	n/a	RESPONSE	M3	1	21	A4	press
433.185	n/a	RESPONSE	M3	1	19	G4	release
433.29	n/a	RESPONSE	M3	1	19	G4	press
433.293	n/a	RESPONSE	M3	1	07	G3	press
433.395	n/a	RESPONSE	M3	1	21	A4	release
433.406	n/a	RESPONSE	M3	1	00	C3	release
433.555	n/a	RESPONSE	M3	1	17	F4	press
433.754	n/a	RESPONSE	M3	1	19	G4	release
433.819	n/a	RESPONSE	M3	1	04	E3	press
433.825	n/a	RESPONSE	M3	1	16	E4	press
433.883	n/a	RESPONSE	M3	1	07	G3	release
433.938	n/a	RESPONSE	M3	1	17	F4	release
434.334	n/a	RESPONSE	M3	1	07	G3	press
434.336	n/a	RESPONSE	M3	1	12	C4	press
434.341	n/a	RESPONSE	M3	1	14	D4	press
434.406	n/a	RESPONSE	M3	1	16	E4	release
434.411	n/a	RESPONSE	M3	1	04	E3	release
434.536	n/a	RESPONSE	M3	1	14	D4	release
434.731	n/a	RESPONSE	M3	1	12	C4	release
434.823	n/a	RESPONSE	M3	1	07	G3	release
436.425	7.759	FIXCROSS	n/a	n/a	n/a	n/a	n/a
444.183	6.317	CUE_LISTEN	M3	2	n/a	n/a	n/a
450.5	7.758	FIXCROSS	n/a	n/a	n/a	n/a	n/a
458.258	6.325	CUE_PLAYBACK_BOTH_HANDS	M3	2	n/a	n/a	n/a
458.834	n/a	RESPONSE	M3	2	00	C3	press
458.855	n/a	RESPONSE	M3	2	12	C4	press
459.388	n/a	RESPONSE	M3	2	07	G3	press
459.531	n/a	RESPONSE	M3	2	00	C3	release
459.64	n/a	RESPONSE	M3	2	12	C4	release
459.883	n/a	RESPONSE	M3	2	00	C3	press
459.893	n/a	RESPONSE	M3	2	12	C4	press
459.946	n/a	RESPONSE	M3	2	07	G3	release
460.738	n/a	RESPONSE	M3	2	12	C4	release
460.746	n/a	RESPONSE	M3	2	00	C3	release
460.878	n/a	RESPONSE	M3	2	00	C3	press
460.891	n/a	RESPONSE	M3	2	12	C4	press
461.43	n/a	RESPONSE	M3	2	07	G3	press
461.473	n/a	RESPONSE	M3	2	00	C3	release
461.643	n/a	RESPONSE	M3	2	12	C4	release
461.914	n/a	RESPONSE	M3	2	12	C4	press
461.925	n/a	RESPONSE	M3	2	00	C3	press
461.958	n/a	RESPONSE	M3	2	07	G3	release
462.918	n/a	RESPONSE	M3	2	12	C4	release
462.93	n/a	RESPONSE	M3	2	00	C3	release
464.583	7.758	FIXCROSS	n/a	n/a	n/a	n/a	n/a
472.342	6.325	CUE_LISTEN	M5	1	n/a	n/a	n/a
478.666	7.758	FIXCROSS	n/a	n/a	n/a	n/a	n/a
486.425	6.308	CUE_PLAYBACK_RIGHT_HAND	M5	1	n/a	n/a	n/a
487.188	n/a	RESPONSE	M5	1	21	A4	press
487.629	n/a	RESPONSE	M5	1	21	A4	release
487.7	n/a	RESPONSE	M5	1	21	A4	press
487.853	n/a	RESPONSE	M5	1	21	A4	release
487.953	n/a	RESPONSE	M5	1	21	A4	press
488.374	n/a	RESPONSE	M5	1	21	A4	release
488.515	n/a	RESPONSE	M5	1	21	A4	press
488.696	n/a	RESPONSE	M5	1	21	A4	release
488.778	n/a	RESPONSE	M5	1	21	A4	press
488.949	n/a	RESPONSE	M5	1	21	A4	release
489.031	n/a	RESPONSE	M5	1	21	A4	press
489.283	n/a	RESPONSE	M5	1	21	A4	release
489.484	n/a	RESPONSE	M5	1	21	A4	press
489.706	n/a	RESPONSE	M5	1	24	C5	press
489.818	n/a	RESPONSE	M5	1	21	A4	release
490.019	n/a	RESPONSE	M5	1	17	F4	press
490.069	n/a	RESPONSE	M5	1	24	C5	release
490.291	n/a	RESPONSE	M5	1	19	G4	press
490.431	n/a	RESPONSE	M5	1	17	F4	release
490.563	n/a	RESPONSE	M5	1	21	A4	press
490.764	n/a	RESPONSE	M5	1	19	G4	release
491.495	n/a	RESPONSE	M5	1	21	A4	release
492.733	7.758	FIXCROSS	n/a	n/a	n/a	n/a	n/a
500.492	6.325	CUE_LISTEN	M5	2	n/a	n/a	n/a
506.816	7.758	FIXCROSS	n/a	n/a	n/a	n/a	n/a
514.575	6.317	CUE_PLAYBACK_RIGHT_HAND	M5	2	n/a	n/a	n/a
515.11	n/a	RESPONSE	M5	2	22	A#4	press
515.295	n/a	RESPONSE	M5	2	22	A#4	release
515.358	n/a	RESPONSE	M5	2	22	A#4	press
515.563	n/a	RESPONSE	M5	2	22	A#4	release
515.651	n/a	RESPONSE	M5	2	22	A#4	press
515.793	n/a	RESPONSE	M5	2	22	A#4	release
515.898	n/a	RESPONSE	M5	2	22	A#4	press
516.095	n/a	RESPONSE	M5	2	22	A#4	release
516.218	n/a	RESPONSE	M5	2	22	A#4	press
516.478	n/a	RESPONSE	M5	2	21	A4	press
516.549	n/a	RESPONSE	M5	2	22	A#4	release
516.664	n/a	RESPONSE	M5	2	21	A4	release
516.733	n/a	RESPONSE	M5	2	21	A4	press
516.945	n/a	RESPONSE	M5	2	21	A4	release
517.015	n/a	RESPONSE	M5	2	21	A4	press
517.186	n/a	RESPONSE	M5	2	21	A4	release
517.278	n/a	RESPONSE	M5	2	21	A4	press
517.539	n/a	RESPONSE	M5	2	19	G4	press
517.583	n/a	RESPONSE	M5	2	21	A4	release
517.711	n/a	RESPONSE	M5	2	19	G4	release
517.783	n/a	RESPONSE	M5	2	19	G4	press
518.094	n/a	RESPONSE	M5	2	21	A4	press
518.105	n/a	RESPONSE	M5	2	19	G4	release
518.366	n/a	RESPONSE	M5	2	19	G4	press
518.448	n/a	RESPONSE	M5	2	21	A4	release
518.859	n/a	RESPONSE	M5	2	24	C5	press
518.89	n/a	RESPONSE	M5	2	19	G4	release
519.963	n/a	RESPONSE	M5	2	24	C5	release
520.891	7.759	FIXCROSS	n/a	n/a	n/a	n/a	n/a
528.65	6.317	CUE_LISTEN	M5	1	n/a	n/a	n/a
534.967	7.758	FIXCROSS	n/a	n/a	n/a	n/a	n/a
542.725	6.325	CUE_PLAYBACK_RIGHT_HAND	M5	1	n/a	n/a	n/a
543.533	n/a	RESPONSE	M5	1	21	A4	press
543.714	n/a	RESPONSE	M5	1	21	A4	release
543.773	n/a	RESPONSE	M5	1	21	A4	press
543.955	n/a	RESPONSE	M5	1	21	A4	release
544.043	n/a	RESPONSE	M5	1	21	A4	press
544.435	n/a	RESPONSE	M5	1	21	A4	release
544.551	n/a	RESPONSE	M5	1	21	A4	press
544.743	n/a	RESPONSE	M5	1	21	A4	release
544.814	n/a	RESPONSE	M5	1	21	A4	press
544.985	n/a	RESPONSE	M5	1	21	A4	release
545.075	n/a	RESPONSE	M5	1	21	A4	press
545.408	n/a	RESPONSE	M5	1	21	A4	release
545.57	n/a	RESPONSE	M5	1	21	A4	press
545.804	n/a	RESPONSE	M5	1	24	C5	press
545.865	n/a	RESPONSE	M5	1	21	A4	release
546.053	n/a	RESPONSE	M5	1	17	F4	press
546.135	n/a	RESPONSE	M5	1	24	C5	release
546.334	n/a	RESPONSE	M5	1	19	G4	press
546.5	n/a	RESPONSE	M5	1	17	F4	release
546.593	n/a	RESPONSE	M5	1	21	A4	press
546.718	n/a	RESPONSE	M5	1	19	G4	release
547.728	n/a	RESPONSE	M5	1	21	A4	release
549.05	7.758	FIXCROSS	n/a	n/a	n/a	n/a	n/a
556.808	6.317	CUE_LISTEN	M5	2	n/a	n/a	n/a
563.125	7.758	FIXCROSS	n/a	n/a	n/a	n/a	n/a
570.883	6.317	CUE_PLAYBACK_RIGHT_HAND	M5	2	n/a	n/a	n/a
571.218	n/a	RESPONSE	M5	2	22	A#4	press
571.366	n/a	RESPONSE	M5	2	22	A#4	release
571.438	n/a	RESPONSE	M5	2	22	A#4	press
571.639	n/a	RESPONSE	M5	2	22	A#4	release
571.69	n/a	RESPONSE	M5	2	22	A#4	press
571.874	n/a	RESPONSE	M5	2	22	A#4	release
571.915	n/a	RESPONSE	M5	2	22	A#4	press
572.124	n/a	RESPONSE	M5	2	22	A#4	release
572.185	n/a	RESPONSE	M5	2	22	A#4	press
572.426	n/a	RESPONSE	M5	2	21	A4	press
572.538	n/a	RESPONSE	M5	2	22	A#4	release
572.619	n/a	RESPONSE	M5	2	21	A4	release
572.67	n/a	RESPONSE	M5	2	21	A4	press
572.854	n/a	RESPONSE	M5	2	21	A4	release
572.933	n/a	RESPONSE	M5	2	21	A4	press
573.149	n/a	RESPONSE	M5	2	24	C5	press
573.174	n/a	RESPONSE	M5	2	21	A4	release
573.583	n/a	RESPONSE	M5	2	24	C5	release
573.694	n/a	RESPONSE	M5	2	24	C5	press
573.883	n/a	RESPONSE	M5	2	24	C5	release
573.99	n/a	RESPONSE	M5	2	22	A#4	press
574.313	n/a	RESPONSE	M5	2	19	G4	press
574.389	n/a	RESPONSE	M5	2	22	A#4	release
574.525	n/a	RESPONSE	M5	2	17	F4	press
574.721	n/a	RESPONSE	M5	2	19	G4	release
575.069	n/a	RESPONSE	M5	2	17	F4	release
577.2	7.758	FIXCROSS	n/a	n/a	n/a	n/a	n/a
584.958	6.325	CUE_LISTEN	M1	1	n/a	n/a	n/a
591.283	7.758	FIXCROSS	n/a	n/a	n/a	n/a	n/a
599.042	6.317	CUE_PLAYBACK_BOTH_HANDS	M1	1	n/a	n/a	n/a
599.565	n/a	RESPONSE	M1	1	00	C3	press
599.568	n/a	RESPONSE	M1	1	04	E3	press
599.57	n/a	RESPONSE	M1	1	19	G4	press
599.579	n/a	RESPONSE	M1	1	07	G3	press
600.09	n/a	RESPONSE	M1	1	16	E4	press
600.184	n/a	RESPONSE	M1	1	19	G4	release
600.533	n/a	RESPONSE	M1	1	16	E4	release
600.604	n/a	RESPONSE	M1	1	16	E4	press
600.948	n/a	RESPONSE	M1	1	04	E3	release
600.976	n/a	RESPONSE	M1	1	00	C3	release
601.048	n/a	RESPONSE	M1	1	16	E4	release
601.119	n/a	RESPONSE	M1	1	17	F4	press
601.122	n/a	RESPONSE	M1	1	05	F3	press
601.124	n/a	RESPONSE	M1	1	02	D3	press
601.653	n/a	RESPONSE	M1	1	14	D4	press
601.725	n/a	RESPONSE	M1	1	17	F4	release
602.058	n/a	RESPONSE	M1	1	14	D4	release
602.146	n/a	RESPONSE	M1	1	14	D4	press
602.428	n/a	RESPONSE	M1	1	02	D3	release
602.452	n/a	RESPONSE	M1	1	05	F3	release
602.5	n/a	RESPONSE	M1	1	14	D4	release
602.642	n/a	RESPONSE	M1	1	04	E3	press
602.663	n/a	RESPONSE	M1	1	00	C3	press
602.665	n/a	RESPONSE	M1	1	12	C4	press
602.925	n/a	RESPONSE	M1	1	16	E4	press
603.058	n/a	RESPONSE	M1	1	12	C4	release
603.188	n/a	RESPONSE	M1	1	19	G4	press
603.255	n/a	RESPONSE	M1	1	16	E4	release
604.249	n/a	RESPONSE	M1	1	00	C3	release
604.33	n/a	RESPONSE	M1	1	19	G4	release
604.519	n/a	RESPONSE	M1	1	04	E3	release
605.358	7.759	FIXCROSS	n/a	n/a	n/a	n/a	n/a
606.276	n/a	RESPONSE	M1	1	07	G3	release
613.117	6.325	CUE_LISTEN	M1	2	n/a	n/a	n/a
619.442	7.759	FIXCROSS	n/a	n/a	n/a	n/a	n/a
627.2	6.317	CUE_PLAYBACK_BOTH_HANDS	M1	2	n/a	n/a	n/a
627.648	n/a	RESPONSE	M1	2	19	G4	press
627.65	n/a	RESPONSE	M1	2	00	C3	press
627.653	n/a	RESPONSE	M1	2	04	E3	press
627.661	n/a	RESPONSE	M1	2	07	G3	press
628.184	n/a	RESPONSE	M1	2	16	E4	press
628.244	n/a	RESPONSE	M1	2	19	G4	release
628.605	n/a	RESPONSE	M1	2	16	E4	release
628.706	n/a	RESPONSE	M1	2	16	E4	press
629.07	n/a	RESPONSE	M1	2	00	C3	release
629.092	n/a	RESPONSE	M1	2	04	E3	release
629.192	n/a	RESPONSE	M1	2	16	E4	release
629.203	n/a	RESPONSE	M1	2	02	D3	press
629.205	n/a	RESPONSE	M1	2	05	F3	press
629.215	n/a	RESPONSE	M1	2	17	F4	press
629.706	n/a	RESPONSE	M1	2	14	D4	press
629.768	n/a	RESPONSE	M1	2	17	F4	release
630.14	n/a	RESPONSE	M1	2	14	D4	release
630.22	n/a	RESPONSE	M1	2	14	D4	press
630.594	n/a	RESPONSE	M1	2	02	D3	release
630.613	n/a	RESPONSE	M1	2	05	F3	release
630.714	n/a	RESPONSE	M1	2	14	D4	release
630.745	n/a	RESPONSE	M1	2	04	E3	press
630.758	n/a	RESPONSE	M1	2	12	C4	press
630.768	n/a	RESPONSE	M1	2	00	C3	press
630.999	n/a	RESPONSE	M1	2	16	E4	press
631.16	n/a	RESPONSE	M1	2	12	C4	release
631.312	n/a	RESPONSE	M1	2	12	C4	press
631.343	n/a	RESPONSE	M1	2	16	E4	release
632.334	n/a	RESPONSE	M1	2	12	C4	release
632.365	n/a	RESPONSE	M1	2	07	G3	release
632.436	n/a	RESPONSE	M1	2	00	C3	release
632.439	n/a	RESPONSE	M1	2	04	E3	release
633.517	7.759	FIXCROSS	n/a	n/a	n/a	n/a	n/a
641.275	6.317	CUE_LISTEN	M4	1	n/a	n/a	n/a
647.592	7.758	FIXCROSS	n/a	n/a	n/a	n/a	n/a
655.35	6.325	CUE_PLAYBACK_RIGHT_HAND	M4	1	n/a	n/a	n/a
655.806	n/a	RESPONSE	M4	1	12	C4	press
656.118	n/a	RESPONSE	M4	1	16	E4	press
656.328	n/a	RESPONSE	M4	1	12	C4	release
656.566	n/a	RESPONSE	M4	1	16	E4	release
656.762	n/a	RESPONSE	M4	1	12	C4	press
657.173	n/a	RESPONSE	M4	1	17	F4	press
657.345	n/a	RESPONSE	M4	1	12	C4	release
657.475	n/a	RESPONSE	M4	1	19	G4	press
657.478	n/a	RESPONSE	M4	1	21	A4	press
657.519	n/a	RESPONSE	M4	1	17	F4	release
657.859	n/a	RESPONSE	M4	1	19	G4	release
657.87	n/a	RESPONSE	M4	1	21	A4	release
658.092	n/a	RESPONSE	M4	1	21	A4	press
658.373	n/a	RESPONSE	M4	1	19	G4	press
658.444	n/a	RESPONSE	M4	1	21	A4	release
658.675	n/a	RESPONSE	M4	1	17	F4	press
658.778	n/a	RESPONSE	M4	1	19	G4	release
658.958	n/a	RESPONSE	M4	1	16	E4	press
659.06	n/a	RESPONSE	M4	1	17	F4	release
659.263	n/a	RESPONSE	M4	1	17	F4	press
659.423	n/a	RESPONSE	M4	1	16	E4	release
659.794	n/a	RESPONSE	M4	1	12	C4	press
659.835	n/a	RESPONSE	M4	1	17	F4	release
660.126	n/a	RESPONSE	M4	1	17	F4	press
660.218	n/a	RESPONSE	M4	1	12	C4	release
660.429	n/a	RESPONSE	M4	1	21	A4	press
660.473	n/a	RESPONSE	M4	1	19	G4	press
660.512	n/a	RESPONSE	M4	1	17	F4	release
660.553	n/a	RESPONSE	M4	1	19	G4	release
660.736	n/a	RESPONSE	M4	1	19	G4	press
660.815	n/a	RESPONSE	M4	1	21	A4	release
661.016	n/a	RESPONSE	M4	1	17	F4	press
661.128	n/a	RESPONSE	M4	1	19	G4	release
661.319	n/a	RESPONSE	M4	1	16	E4	press
661.412	n/a	RESPONSE	M4	1	17	F4	release
661.612	n/a	RESPONSE	M4	1	17	F4	press
661.675	7.759	FIXCROSS	n/a	n/a	n/a	n/a	n/a
661.693	n/a	RESPONSE	M4	1	16	E4	release
662.166	n/a	RESPONSE	M4	1	17	F4	release
669.434	6.317	CUE_LISTEN	M4	2	n/a	n/a	n/a
675.75	7.758	FIXCROSS	n/a	n/a	n/a	n/a	n/a
683.509	6.317	CUE_PLAYBACK_RIGHT_HAND	M4	2	n/a	n/a	n/a
683.898	n/a	RESPONSE	M4	2	12	C4	press
684.204	n/a	RESPONSE	M4	2	17	F4	press
684.326	n/a	RESPONSE	M4	2	12	C4	release
684.559	n/a	RESPONSE	M4	2	23	B4	press
684.806	n/a	RESPONSE	M4	2	23	B4	release
685.025	n/a	RESPONSE	M4	2	17	F4	release
685.202	n/a	RESPONSE	M4	2	14	D4	press
685.489	n/a	RESPONSE	M4	2	14	D4	release
685.669	n/a	RESPONSE	M4	2	12	C4	press
686.022	n/a	RESPONSE	M4	2	17	F4	press
686.16	n/a	RESPONSE	M4	2	12	C4	release
686.433	n/a	RESPONSE	M4	2	19	G4	press
686.854	n/a	RESPONSE	M4	2	19	G4	release
686.985	n/a	RESPONSE	M4	2	17	F4	release
687.266	n/a	RESPONSE	M4	2	23	B4	press
687.708	n/a	RESPONSE	M4	2	20	G#4	press
687.769	n/a	RESPONSE	M4	2	23	B4	release
688.1	n/a	RESPONSE	M4	2	20	G#4	release
689.825	7.759	FIXCROSS	n/a	n/a	n/a	n/a	n/a
697.584	6.325	CUE_LISTEN	M2	1	n/a	n/a	n/a
703.909	7.758	FIXCROSS	n/a	n/a	n/a	n/a	n/a
711.667	6.317	CUE_PLAYBACK_BOTH_HANDS	M2	1	n/a	n/a	n/a
712.272	n/a	RESPONSE	M2	1	24	C5	press
712.274	n/a	RESPONSE	M2	1	00	C3	press
712.284	n/a	RESPONSE	M2	1	07	G3	press
712.826	n/a	RESPONSE	M2	1	19	G4	press
712.846	n/a	RESPONSE	M2	1	21	A4	press
712.98	n/a	RESPONSE	M2	1	24	C5	release
713.125	n/a	RESPONSE	M2	1	19	G4	release
713.132	n/a	RESPONSE	M2	1	21	A4	release
713.215	n/a	RESPONSE	M2	1	00	C3	release
713.246	n/a	RESPONSE	M2	1	07	G3	release
713.358	n/a	RESPONSE	M2	1	24	C5	press
713.366	n/a	RESPONSE	M2	1	00	C3	press
713.372	n/a	RESPONSE	M2	1	07	G3	press
713.824	n/a	RESPONSE	M2	1	19	G4	press
713.93	n/a	RESPONSE	M2	1	24	C5	release
714.102	n/a	RESPONSE	M2	1	00	C3	release
714.136	n/a	RESPONSE	M2	1	07	G3	release
714.164	n/a	RESPONSE	M2	1	19	G4	release
714.234	n/a	RESPONSE	M2	1	00	C3	press
714.248	n/a	RESPONSE	M2	1	07	G3	press
714.255	n/a	RESPONSE	M2	1	19	G4	press
714.694	n/a	RESPONSE	M2	1	17	F4	press
714.776	n/a	RESPONSE	M2	1	19	G4	release
714.946	n/a	RESPONSE	M2	1	00	C3	release
715.023	n/a	RESPONSE	M2	1	07	G3	release
715.13	n/a	RESPONSE	M2	1	00	C3	press
715.133	n/a	RESPONSE	M2	1	16	E4	press
715.138	n/a	RESPONSE	M2	1	07	G3	press
715.295	n/a	RESPONSE	M2	1	17	F4	release
715.57	n/a	RESPONSE	M2	1	17	F4	press
715.679	n/a	RESPONSE	M2	1	16	E4	release
715.85	n/a	RESPONSE	M2	1	00	C3	release
715.909	n/a	RESPONSE	M2	1	07	G3	release
715.999	n/a	RESPONSE	M2	1	17	F4	release
716.013	n/a	RESPONSE	M2	1	19	G4	press
716.019	n/a	RESPONSE	M2	1	00	C3	press
716.026	n/a	RESPONSE	M2	1	07	G3	press
717.079	n/a	RESPONSE	M2	1	19	G4	release
717.09	n/a	RESPONSE	M2	1	00	C3	release
717.232	n/a	RESPONSE	M2	1	07	G3	release
717.984	7.758	FIXCROSS	n/a	n/a	n/a	n/a	n/a
725.742	6.317	CUE_LISTEN	M2	2	n/a	n/a	n/a
732.059	7.758	FIXCROSS	n/a	n/a	n/a	n/a	n/a
739.817	6.325	CUE_PLAYBACK_BOTH_HANDS	M2	2	n/a	n/a	n/a
740.214	n/a	RESPONSE	M2	2	00	C3	press
740.225	n/a	RESPONSE	M2	2	24	C5	press
740.236	n/a	RESPONSE	M2	2	07	G3	press
740.708	n/a	RESPONSE	M2	2	19	G4	press
740.802	n/a	RESPONSE	M2	2	24	C5	release
740.99	n/a	RESPONSE	M2	2	00	C3	release
741.022	n/a	RESPONSE	M2	2	07	G3	release
741.034	n/a	RESPONSE	M2	2	19	G4	release
741.134	n/a	RESPONSE	M2	2	00	C3	press
741.145	n/a	RESPONSE	M2	2	19	G4	press
741.156	n/a	RESPONSE	M2	2	07	G3	press
741.618	n/a	RESPONSE	M2	2	17	F4	press
741.709	n/a	RESPONSE	M2	2	19	G4	release
741.94	n/a	RESPONSE	M2	2	00	C3	release
741.962	n/a	RESPONSE	M2	2	07	G3	release
742.055	n/a	RESPONSE	M2	2	16	E4	press
742.064	n/a	RESPONSE	M2	2	00	C3	press
742.076	n/a	RESPONSE	M2	2	07	G3	press
742.109	n/a	RESPONSE	M2	2	17	F4	release
742.543	n/a	RESPONSE	M2	2	14	D4	press
742.674	n/a	RESPONSE	M2	2	16	E4	release
742.804	n/a	RESPONSE	M2	2	07	G3	release
742.806	n/a	RESPONSE	M2	2	00	C3	release
742.985	n/a	RESPONSE	M2	2	12	C4	press
742.996	n/a	RESPONSE	M2	2	00	C3	press
742.999	n/a	RESPONSE	M2	2	07	G3	press
743.22	n/a	RESPONSE	M2	2	14	D4	release
743.903	n/a	RESPONSE	M2	2	00	C3	release
743.97	n/a	RESPONSE	M2	2	07	G3	release
744.034	n/a	RESPONSE	M2	2	12	C4	release
746.142	7.758	FIXCROSS	n/a	n/a	n/a	n/a	n/a
753.9	6.317	CUE_LISTEN	M2	1	n/a	n/a	n/a
760.217	7.758	FIXCROSS	n/a	n/a	n/a	n/a	n/a
767.976	6.325	CUE_PLAYBACK_BOTH_HANDS	M2	1	n/a	n/a	n/a
768.409	n/a	RESPONSE	M2	1	00	C3	press
768.43	n/a	RESPONSE	M2	1	07	G3	press
768.434	n/a	RESPONSE	M2	1	12	C4	press
768.973	n/a	RESPONSE	M2	1	14	D4	press
769.098	n/a	RESPONSE	M2	1	12	C4	release
769.256	n/a	RESPONSE	M2	1	00	C3	release
769.288	n/a	RESPONSE	M2	1	07	G3	release
769.419	n/a	RESPONSE	M2	1	00	C3	press
769.422	n/a	RESPONSE	M2	1	14	D4	release
769.424	n/a	RESPONSE	M2	1	07	G3	press
769.433	n/a	RESPONSE	M2	1	16	E4	press
769.966	n/a	RESPONSE	M2	1	14	D4	press
770.015	n/a	RESPONSE	M2	1	16	E4	release
770.116	n/a	RESPONSE	M2	1	00	C3	release
770.15	n/a	RESPONSE	M2	1	07	G3	release
770.389	n/a	RESPONSE	M2	1	00	C3	press
770.4	n/a	RESPONSE	M2	1	07	G3	press
770.432	n/a	RESPONSE	M2	1	16	E4	press
770.463	n/a	RESPONSE	M2	1	14	D4	release
770.914	n/a	RESPONSE	M2	1	17	F4	press
771.006	n/a	RESPONSE	M2	1	16	E4	release
771.239	n/a	RESPONSE	M2	1	07	G3	release
771.278	n/a	RESPONSE	M2	1	00	C3	release
771.39	n/a	RESPONSE	M2	1	19	G4	press
771.403	n/a	RESPONSE	M2	1	00	C3	press
771.412	n/a	RESPONSE	M2	1	07	G3	press
771.453	n/a	RESPONSE	M2	1	17	F4	release
772.594	n/a	RESPONSE	M2	1	00	C3	release
772.725	n/a	RESPONSE	M2	1	19	G4	release
774.3	7.758	FIXCROSS	n/a	n/a	n/a	n/a	n/a
782.059	6.317	CUE_LISTEN	M2	2	n/a	n/a	n/a
788.376	7.758	FIXCROSS	n/a	n/a	n/a	n/a	n/a
796.134	6.317	CUE_PLAYBACK_BOTH_HANDS	M2	2	n/a	n/a	n/a
796.244	n/a	RESPONSE	M2	2	07	G3	release
796.662	n/a	RESPONSE	M2	2	00	C3	press
796.664	n/a	RESPONSE	M2	2	07	G3	press
796.674	n/a	RESPONSE	M2	2	16	E4	press
797.205	n/a	RESPONSE	M2	2	21	A4	press
797.208	n/a	RESPONSE	M2	2	19	G4	press
797.259	n/a	RESPONSE	M2	2	16	E4	release
797.442	n/a	RESPONSE	M2	2	00	C3	release
797.51	n/a	RESPONSE	M2	2	21	A4	release
797.542	n/a	RESPONSE	M2	2	19	G4	release
797.553	n/a	RESPONSE	M2	2	07	G3	release
797.724	n/a	RESPONSE	M2	2	00	C3	press
797.735	n/a	RESPONSE	M2	2	07	G3	press
797.738	n/a	RESPONSE	M2	2	19	G4	press
798.24	n/a	RESPONSE	M2	2	17	F4	press
798.31	n/a	RESPONSE	M2	2	19	G4	release
798.462	n/a	RESPONSE	M2	2	00	C3	release
798.482	n/a	RESPONSE	M2	2	07	G3	release
798.713	n/a	RESPONSE	M2	2	16	E4	press
798.715	n/a	RESPONSE	M2	2	00	C3	press
798.725	n/a	RESPONSE	M2	2	07	G3	press
798.757	n/a	RESPONSE	M2	2	17	F4	release
799.249	n/a	RESPONSE	M2	2	14	D4	press
799.29	n/a	RESPONSE	M2	2	16	E4	release
799.503	n/a	RESPONSE	M2	2	00	C3	release
799.553	n/a	RESPONSE	M2	2	07	G3	release
799.756	n/a	RESPONSE	M2	2	07	G3	press
799.759	n/a	RESPONSE	M2	2	00	C3	press
799.768	n/a	RESPONSE	M2	2	12	C4	press
799.77	n/a	RESPONSE	M2	2	14	D4	release
801.093	n/a	RESPONSE	M2	2	12	C4	release
801.112	n/a	RESPONSE	M2	2	00	C3	release
801.164	n/a	RESPONSE	M2	2	07	G3	release
802.451	7.758	FIXCROSS	n/a	n/a	n/a	n/a	n/a
810.209	6.325	CUE_LISTEN	M3	1	n/a	n/a	n/a
816.534	7.759	FIXCROSS	n/a	n/a	n/a	n/a	n/a
824.292	6.317	CUE_PLAYBACK_RIGHT_HAND	M3	1	n/a	n/a	n/a
824.893	n/a	RESPONSE	M3	1	12	C4	press
825.392	n/a	RESPONSE	M3	1	14	D4	press
825.509	n/a	RESPONSE	M3	1	12	C4	release
825.875	n/a	RESPONSE	M3	1	16	E4	press
825.949	n/a	RESPONSE	M3	1	14	D4	release
826.422	n/a	RESPONSE	M3	1	12	C4	press
826.452	n/a	RESPONSE	M3	1	16	E4	release
826.787	n/a	RESPONSE	M3	1	12	C4	release
826.898	n/a	RESPONSE	M3	1	12	C4	press
827.392	n/a	RESPONSE	M3	1	14	D4	press
827.5	n/a	RESPONSE	M3	1	12	C4	release
827.882	n/a	RESPONSE	M3	1	16	E4	press
827.963	n/a	RESPONSE	M3	1	14	D4	release
828.364	n/a	RESPONSE	M3	1	12	C4	press
828.436	n/a	RESPONSE	M3	1	16	E4	release
829.23	n/a	RESPONSE	M3	1	12	C4	release
830.609	7.758	FIXCROSS	n/a	n/a	n/a	n/a	n/a
838.367	6.317	CUE_LISTEN	M3	2	n/a	n/a	n/a
844.684	7.758	FIXCROSS	n/a	n/a	n/a	n/a	n/a
852.442	6.325	CUE_PLAYBACK_RIGHT_HAND	M3	2	n/a	n/a	n/a
852.902	n/a	RESPONSE	M3	2	16	E4	press
853.422	n/a	RESPONSE	M3	2	17	F4	press
853.573	n/a	RESPONSE	M3	2	16	E4	release
853.897	n/a	RESPONSE	M3	2	19	G4	press
854.015	n/a	RESPONSE	M3	2	17	F4	release
854.892	n/a	RESPONSE	M3	2	16	E4	press
854.962	n/a	RESPONSE	M3	2	19	G4	release
855.377	n/a	RESPONSE	M3	2	17	F4	press
855.477	n/a	RESPONSE	M3	2	16	E4	release
855.885	n/a	RESPONSE	M3	2	19	G4	press
855.985	n/a	RESPONSE	M3	2	17	F4	release
856.82	n/a	RESPONSE	M3	2	19	G4	release
858.767	7.758	FIXCROSS	n/a	n/a	n/a	n/a	n/a
866.526	6.317	CUE_LISTEN	M3	1	n/a	n/a	n/a
872.842	7.758	FIXCROSS	n/a	n/a	n/a	n/a	n/a
880.601	6.317	CUE_PLAYBACK_RIGHT_HAND	M3	1	n/a	n/a	n/a
881.115	n/a	RESPONSE	M3	1	19	G4	press
881.387	n/a	RESPONSE	M3	1	21	A4	press
881.468	n/a	RESPONSE	M3	1	23	B4	press
881.522	n/a	RESPONSE	M3	1	19	G4	release
881.67	n/a	RESPONSE	M3	1	19	G4	press
881.692	n/a	RESPONSE	M3	1	23	B4	release
881.803	n/a	RESPONSE	M3	1	21	A4	release
881.975	n/a	RESPONSE	M3	1	17	F4	press
882.125	n/a	RESPONSE	M3	1	19	G4	release
882.277	n/a	RESPONSE	M3	1	16	E4	press
882.508	n/a	RESPONSE	M3	1	17	F4	release
882.839	n/a	RESPONSE	M3	1	12	C4	press
882.843	n/a	RESPONSE	M3	1	14	D4	press
882.902	n/a	RESPONSE	M3	1	16	E4	release
883.06	n/a	RESPONSE	M3	1	12	C4	release
883.209	n/a	RESPONSE	M3	1	14	D4	release
883.51	n/a	RESPONSE	M3	1	19	G4	press
883.75	n/a	RESPONSE	M3	1	21	A4	press
883.865	n/a	RESPONSE	M3	1	19	G4	release
884.015	n/a	RESPONSE	M3	1	19	G4	press
884.12	n/a	RESPONSE	M3	1	21	A4	release
884.273	n/a	RESPONSE	M3	1	17	F4	press
884.365	n/a	RESPONSE	M3	1	19	G4	release
884.548	n/a	RESPONSE	M3	1	16	E4	press
884.652	n/a	RESPONSE	M3	1	17	F4	release
885.124	n/a	RESPONSE	M3	1	14	D4	press
885.225	n/a	RESPONSE	M3	1	16	E4	release
885.575	n/a	RESPONSE	M3	1	14	D4	release
885.737	n/a	RESPONSE	M3	1	12	C4	press
886.109	n/a	RESPONSE	M3	1	12	C4	release
886.917	7.758	FIXCROSS	n/a	n/a	n/a	n/a	n/a
894.676	6.325	CUE_LISTEN	M3	2	n/a	n/a	n/a
901.001	7.758	FIXCROSS	n/a	n/a	n/a	n/a	n/a
908.759	195.456	CUE_PLAYBACK_RIGHT_HAND	M3	2	n/a	n/a	n/a
909.308	n/a	RESPONSE	M3	2	12	C4	press
909.799	n/a	RESPONSE	M3	2	07	G3	press
909.82	n/a	RESPONSE	M3	2	12	C4	release
910.282	n/a	RESPONSE	M3	2	12	C4	press
910.583	n/a	RESPONSE	M3	2	07	G3	release
910.894	n/a	RESPONSE	M3	2	12	C4	release
911.235	n/a	RESPONSE	M3	2	12	C4	press
911.697	n/a	RESPONSE	M3	2	07	G3	press
911.758	n/a	RESPONSE	M3	2	12	C4	release
912.189	n/a	RESPONSE	M3	2	12	C4	press
912.31	n/a	RESPONSE	M3	2	07	G3	release
913.204	n/a	RESPONSE	M3	2	12	C4	release
913.257	n/a	FIXCROSS	n/a	n/a	n/a	n/a	n/a
