onset	duration	trial_type	trial_number	stroop_condition	stim_text(PL)	stim_text(eng)	stim_color(PL)	stim_color(eng)	response_type	response_color
0.0	n/a	RESPONSE	n/a	n/a	n/a	n/a	n/a	n/a	n/a	n/a
0.0316	1.0167	ITI	n/a	n/a	n/a	n/a	n/a	n/a	n/a	n/a
1.0482	0.5	FIXCROSS	n/a	n/a	n/a	n/a	n/a	n/a	n/a	n/a
1.5482	2.0667	T_INK	1	Incongruent	zielony	green	żółty	yellow	hit	n/a
3.5991	n/a	RESPONSE	n/a	n/a	n/a	n/a	n/a	n/a	n/a	yellow
3.6149	0.5	FEEDBACK	n/a	n/a	n/a	n/a	n/a	n/a	n/a	n/a
4.1149	1.0167	ITI	n/a	n/a	n/a	n/a	n/a	n/a	n/a	n/a
5.1316	0.5	FIXCROSS	n/a	n/a	n/a	n/a	n/a	n/a	n/a	n/a
5.6316	3.0	T_INK	2	Incongruent	żółty	yellow	zielony	green	incorrect	n/a
8.6058	n/a	RESPONSE	n/a	n/a	n/a	n/a	n/a	n/a	n/a	yellow
8.6316	0.5167	FEEDBACK	n/a	n/a	n/a	n/a	n/a	n/a	n/a	n/a
9.1483	1.0167	ITI	n/a	n/a	n/a	n/a	n/a	n/a	n/a	n/a
10.165	0.5167	FIXCROSS	n/a	n/a	n/a	n/a	n/a	n/a	n/a	n/a
10.6816	1.1167	T_INK	3	Neutral	xxxxxxx	xxxxxxx	czerwony	red	hit	n/a
11.773	n/a	RESPONSE	n/a	n/a	n/a	n/a	n/a	n/a	n/a	red
11.7983	0.5167	FEEDBACK	n/a	n/a	n/a	n/a	n/a	n/a	n/a	n/a
12.315	1.0167	ITI	n/a	n/a	n/a	n/a	n/a	n/a	n/a	n/a
13.3317	0.5167	FIXCROSS	n/a	n/a	n/a	n/a	n/a	n/a	n/a	n/a
13.8483	2.0834	T_INK	4	Incongruent	czerwony	red	żółty	yellow	hit	n/a
15.9	n/a	RESPONSE	n/a	n/a	n/a	n/a	n/a	n/a	n/a	yellow
15.9317	0.5167	FEEDBACK	n/a	n/a	n/a	n/a	n/a	n/a	n/a	n/a
16.4483	1.0167	ITI	n/a	n/a	n/a	n/a	n/a	n/a	n/a	n/a
17.465	0.5167	FIXCROSS	n/a	n/a	n/a	n/a	n/a	n/a	n/a	n/a
17.9817	1.1	T_INK	5	Neutral	xxxxxxxx	xxxxxxxx	niebieski	blue	hit	n/a
19.0512	n/a	RESPONSE	n/a	n/a	n/a	n/a	n/a	n/a	n/a	blue
19.0817	0.5167	FEEDBACK	n/a	n/a	n/a	n/a	n/a	n/a	n/a	n/a
19.5984	1.0167	ITI	n/a	n/a	n/a	n/a	n/a	n/a	n/a	n/a
20.615	0.5167	FIXCROSS	n/a	n/a	n/a	n/a	n/a	n/a	n/a	n/a
21.1317	2.45	T_INK	6	Incongruent	zielony	green	niebieski	blue	hit	n/a
23.5461	n/a	RESPONSE	n/a	n/a	n/a	n/a	n/a	n/a	n/a	blue
23.5817	0.5167	FEEDBACK	n/a	n/a	n/a	n/a	n/a	n/a	n/a	n/a
24.0984	1.0167	ITI	n/a	n/a	n/a	n/a	n/a	n/a	n/a	n/a
25.1151	0.5167	FIXCROSS	n/a	n/a	n/a	n/a	n/a	n/a	n/a	n/a
25.6318	0.95	T_INK	7	Neutral	xxxxxxx	xxxxxxx	niebieski	blue	hit	n/a
26.5534	n/a	RESPONSE	n/a	n/a	n/a	n/a	n/a	n/a	n/a	blue
26.5818	0.5167	FEEDBACK	n/a	n/a	n/a	n/a	n/a	n/a	n/a	n/a
27.0984	1.0167	ITI	n/a	n/a	n/a	n/a	n/a	n/a	n/a	n/a
28.1151	0.5167	FIXCROSS	n/a	n/a	n/a	n/a	n/a	n/a	n/a	n/a
28.6318	0.85	T_INK	8	Neutral	xxxxxxxxx	xxxxxxxxx	żółty	yellow	hit	n/a
29.4487	n/a	RESPONSE	n/a	n/a	n/a	n/a	n/a	n/a	n/a	yellow
29.4818	0.5167	FEEDBACK	n/a	n/a	n/a	n/a	n/a	n/a	n/a	n/a
29.9984	1.0167	ITI	n/a	n/a	n/a	n/a	n/a	n/a	n/a	n/a
31.0151	0.5167	FIXCROSS	n/a	n/a	n/a	n/a	n/a	n/a	n/a	n/a
31.5318	0.7333	T_INK	9	Neutral	xxxxx	xxxxx	niebieski	blue	hit	n/a
32.232	n/a	RESPONSE	n/a	n/a	n/a	n/a	n/a	n/a	n/a	blue
32.2651	0.5167	FEEDBACK	n/a	n/a	n/a	n/a	n/a	n/a	n/a	n/a
32.7818	1.0167	ITI	n/a	n/a	n/a	n/a	n/a	n/a	n/a	n/a
33.7985	0.5167	FIXCROSS	n/a	n/a	n/a	n/a	n/a	n/a	n/a	n/a
34.3151	2.7167	T_INK	10	Incongruent	niebieski	blue	zielony	green	hit	n/a
36.9988	n/a	RESPONSE	n/a	n/a	n/a	n/a	n/a	n/a	n/a	green
37.0318	0.5167	FEEDBACK	n/a	n/a	n/a	n/a	n/a	n/a	n/a	n/a
37.5485	1.0167	ITI	n/a	n/a	n/a	n/a	n/a	n/a	n/a	n/a
38.5652	0.5167	FIXCROSS	n/a	n/a	n/a	n/a	n/a	n/a	n/a	n/a
39.0818	0.9167	T_INK	11	Incongruent	zielony	green	czerwony	red	hit	n/a
39.9741	n/a	RESPONSE	n/a	n/a	n/a	n/a	n/a	n/a	n/a	red
39.9985	0.5167	FEEDBACK	n/a	n/a	n/a	n/a	n/a	n/a	n/a	n/a
40.5152	1.0167	ITI	n/a	n/a	n/a	n/a	n/a	n/a	n/a	n/a
41.5319	0.5167	FIXCROSS	n/a	n/a	n/a	n/a	n/a	n/a	n/a	n/a
42.0485	0.9833	T_INK	12	Incongruent	czerwony	red	zielony	green	hit	n/a
43.0133	n/a	RESPONSE	n/a	n/a	n/a	n/a	n/a	n/a	n/a	green
43.0319	0.5167	FEEDBACK	n/a	n/a	n/a	n/a	n/a	n/a	n/a	n/a
43.5485	1.0271	ITI	n/a	n/a	n/a	n/a	n/a	n/a	n/a	n/a
46.8683	n/a	RESPONSE	n/a	n/a	n/a	n/a	n/a	n/a	n/a	n/a
46.9319	1.0167	ITI	n/a	n/a	n/a	n/a	n/a	n/a	n/a	n/a
47.9486	0.5167	FIXCROSS	n/a	n/a	n/a	n/a	n/a	n/a	n/a	n/a
48.4652	0.9167	INK	1	Incongruent	zielony	green	czerwony	red	hit	n/a
49.3637	n/a	RESPONSE	n/a	n/a	n/a	n/a	n/a	n/a	n/a	red
49.3819	1.0167	ITI	n/a	n/a	n/a	n/a	n/a	n/a	n/a	n/a
50.3986	0.5167	FIXCROSS	n/a	n/a	n/a	n/a	n/a	n/a	n/a	n/a
50.9153	0.8667	INK	2	Neutral	xxxxx	xxxxx	zielony	green	hit	n/a
51.7631	n/a	RESPONSE	n/a	n/a	n/a	n/a	n/a	n/a	n/a	green
51.7819	1.0167	ITI	n/a	n/a	n/a	n/a	n/a	n/a	n/a	n/a
52.7986	0.5167	FIXCROSS	n/a	n/a	n/a	n/a	n/a	n/a	n/a	n/a
53.3153	0.75	INK	3	Incongruent	zielony	green	żółty	yellow	hit	n/a
54.0345	n/a	RESPONSE	n/a	n/a	n/a	n/a	n/a	n/a	n/a	yellow
54.0653	1.0167	ITI	n/a	n/a	n/a	n/a	n/a	n/a	n/a	n/a
55.082	0.5167	FIXCROSS	n/a	n/a	n/a	n/a	n/a	n/a	n/a	n/a
55.5986	0.9333	INK	4	Incongruent	żółty	yellow	niebieski	blue	hit	n/a
56.5139	n/a	RESPONSE	n/a	n/a	n/a	n/a	n/a	n/a	n/a	blue
56.532	1.0167	ITI	n/a	n/a	n/a	n/a	n/a	n/a	n/a	n/a
57.5487	0.5167	FIXCROSS	n/a	n/a	n/a	n/a	n/a	n/a	n/a	n/a
58.0653	0.7	INK	5	Incongruent	czerwony	red	żółty	yellow	hit	n/a
58.7374	n/a	RESPONSE	n/a	n/a	n/a	n/a	n/a	n/a	n/a	yellow
58.7653	1.0167	ITI	n/a	n/a	n/a	n/a	n/a	n/a	n/a	n/a
59.782	0.5167	FIXCROSS	n/a	n/a	n/a	n/a	n/a	n/a	n/a	n/a
60.2987	0.6333	INK	6	Incongruent	czerwony	red	niebieski	blue	hit	n/a
60.9129	n/a	RESPONSE	n/a	n/a	n/a	n/a	n/a	n/a	n/a	blue
60.932	1.0167	ITI	n/a	n/a	n/a	n/a	n/a	n/a	n/a	n/a
61.9487	0.5167	FIXCROSS	n/a	n/a	n/a	n/a	n/a	n/a	n/a	n/a
62.4653	0.6333	INK	7	Incongruent	żółty	yellow	niebieski	blue	hit	n/a
63.0723	n/a	RESPONSE	n/a	n/a	n/a	n/a	n/a	n/a	n/a	blue
63.0987	1.0167	ITI	n/a	n/a	n/a	n/a	n/a	n/a	n/a	n/a
64.1154	0.5167	FIXCROSS	n/a	n/a	n/a	n/a	n/a	n/a	n/a	n/a
64.632	0.75	INK	8	Neutral	xxxxx	xxxxx	czerwony	red	hit	n/a
65.3598	n/a	RESPONSE	n/a	n/a	n/a	n/a	n/a	n/a	n/a	red
65.382	1.0167	ITI	n/a	n/a	n/a	n/a	n/a	n/a	n/a	n/a
66.3987	0.5167	FIXCROSS	n/a	n/a	n/a	n/a	n/a	n/a	n/a	n/a
66.9154	0.7	INK	9	Incongruent	żółty	yellow	niebieski	blue	hit	n/a
67.5832	n/a	RESPONSE	n/a	n/a	n/a	n/a	n/a	n/a	n/a	blue
67.6154	1.0167	ITI	n/a	n/a	n/a	n/a	n/a	n/a	n/a	n/a
68.6321	0.5167	FIXCROSS	n/a	n/a	n/a	n/a	n/a	n/a	n/a	n/a
69.1487	0.7333	INK	10	Incongruent	czerwony	red	żółty	yellow	hit	n/a
69.8546	n/a	RESPONSE	n/a	n/a	n/a	n/a	n/a	n/a	n/a	yellow
69.8821	1.0167	ITI	n/a	n/a	n/a	n/a	n/a	n/a	n/a	n/a
70.8987	0.5167	FIXCROSS	n/a	n/a	n/a	n/a	n/a	n/a	n/a	n/a
71.4154	0.6667	INK	11	Neutral	xxxxxxxx	xxxxxxxx	żółty	yellow	hit	n/a
72.0461	n/a	RESPONSE	n/a	n/a	n/a	n/a	n/a	n/a	n/a	yellow
72.0821	1.0167	ITI	n/a	n/a	n/a	n/a	n/a	n/a	n/a	n/a
73.0988	0.5167	FIXCROSS	n/a	n/a	n/a	n/a	n/a	n/a	n/a	n/a
73.6154	0.9	INK	12	Neutral	xxxxx	xxxxx	czerwony	red	hit	n/a
74.4935	n/a	RESPONSE	n/a	n/a	n/a	n/a	n/a	n/a	n/a	red
74.5154	1.0167	ITI	n/a	n/a	n/a	n/a	n/a	n/a	n/a	n/a
75.5321	0.5167	FIXCROSS	n/a	n/a	n/a	n/a	n/a	n/a	n/a	n/a
76.0488	0.65	INK	13	Neutral	xxxxxxx	xxxxxxx	niebieski	blue	hit	n/a
76.669	n/a	RESPONSE	n/a	n/a	n/a	n/a	n/a	n/a	n/a	blue
76.6988	1.0167	ITI	n/a	n/a	n/a	n/a	n/a	n/a	n/a	n/a
77.7155	0.5167	FIXCROSS	n/a	n/a	n/a	n/a	n/a	n/a	n/a	n/a
78.2321	0.7167	INK	14	Incongruent	czerwony	red	niebieski	blue	hit	n/a
78.9244	n/a	RESPONSE	n/a	n/a	n/a	n/a	n/a	n/a	n/a	blue
78.9488	1.0167	ITI	n/a	n/a	n/a	n/a	n/a	n/a	n/a	n/a
79.9655	0.5167	FIXCROSS	n/a	n/a	n/a	n/a	n/a	n/a	n/a	n/a
80.4821	0.8	INK	15	Neutral	xxxxxxxx	xxxxxxxx	zielony	green	hit	n/a
81.2598	n/a	RESPONSE	n/a	n/a	n/a	n/a	n/a	n/a	n/a	green
81.2822	1.0167	ITI	n/a	n/a	n/a	n/a	n/a	n/a	n/a	n/a
82.2988	0.5167	FIXCROSS	n/a	n/a	n/a	n/a	n/a	n/a	n/a	n/a
82.8155	1.0834	INK	16	Incongruent	niebieski	blue	zielony	green	hit	n/a
83.8672	n/a	RESPONSE	n/a	n/a	n/a	n/a	n/a	n/a	n/a	green
83.8988	1.0167	ITI	n/a	n/a	n/a	n/a	n/a	n/a	n/a	n/a
84.9155	0.5167	FIXCROSS	n/a	n/a	n/a	n/a	n/a	n/a	n/a	n/a
85.4322	0.7167	INK	17	Neutral	xxxxxxxxx	xxxxxxxxx	żółty	yellow	hit	n/a
86.1226	n/a	RESPONSE	n/a	n/a	n/a	n/a	n/a	n/a	n/a	yellow
86.1489	1.0167	ITI	n/a	n/a	n/a	n/a	n/a	n/a	n/a	n/a
87.1655	0.5167	FIXCROSS	n/a	n/a	n/a	n/a	n/a	n/a	n/a	n/a
87.6822	0.8167	INK	18	Incongruent	żółty	yellow	zielony	green	hit	n/a
88.4741	n/a	RESPONSE	n/a	n/a	n/a	n/a	n/a	n/a	n/a	green
88.4989	1.0167	ITI	n/a	n/a	n/a	n/a	n/a	n/a	n/a	n/a
89.5155	0.5167	FIXCROSS	n/a	n/a	n/a	n/a	n/a	n/a	n/a	n/a
90.0322	0.8667	INK	19	Incongruent	zielony	green	czerwony	red	hit	n/a
90.8734	n/a	RESPONSE	n/a	n/a	n/a	n/a	n/a	n/a	n/a	red
90.8989	1.0167	ITI	n/a	n/a	n/a	n/a	n/a	n/a	n/a	n/a
91.9156	0.5167	FIXCROSS	n/a	n/a	n/a	n/a	n/a	n/a	n/a	n/a
92.4322	0.6833	INK	20	Neutral	xxxxxxx	xxxxxxx	czerwony	red	hit	n/a
93.0969	n/a	RESPONSE	n/a	n/a	n/a	n/a	n/a	n/a	n/a	red
93.1156	1.0167	ITI	n/a	n/a	n/a	n/a	n/a	n/a	n/a	n/a
94.1322	0.5167	FIXCROSS	n/a	n/a	n/a	n/a	n/a	n/a	n/a	n/a
94.6489	0.6667	INK	21	Incongruent	czerwony	red	niebieski	blue	hit	n/a
95.2883	n/a	RESPONSE	n/a	n/a	n/a	n/a	n/a	n/a	n/a	blue
95.3156	1.0167	ITI	n/a	n/a	n/a	n/a	n/a	n/a	n/a	n/a
96.3323	0.5167	FIXCROSS	n/a	n/a	n/a	n/a	n/a	n/a	n/a	n/a
96.8489	0.7333	INK	22	Incongruent	zielony	green	niebieski	blue	hit	n/a
97.5598	n/a	RESPONSE	n/a	n/a	n/a	n/a	n/a	n/a	n/a	blue
97.5823	1.0167	ITI	n/a	n/a	n/a	n/a	n/a	n/a	n/a	n/a
98.5989	0.5167	FIXCROSS	n/a	n/a	n/a	n/a	n/a	n/a	n/a	n/a
99.1156	0.7333	INK	23	Neutral	xxxxxxx	xxxxxxx	czerwony	red	hit	n/a
99.8152	n/a	RESPONSE	n/a	n/a	n/a	n/a	n/a	n/a	n/a	red
99.849	1.0167	ITI	n/a	n/a	n/a	n/a	n/a	n/a	n/a	n/a
100.8656	0.5167	FIXCROSS	n/a	n/a	n/a	n/a	n/a	n/a	n/a	n/a
101.3823	0.6667	INK	24	Incongruent	niebieski	blue	żółty	yellow	hit	n/a
102.0227	n/a	RESPONSE	n/a	n/a	n/a	n/a	n/a	n/a	n/a	yellow
102.049	1.0167	ITI	n/a	n/a	n/a	n/a	n/a	n/a	n/a	n/a
103.0656	0.5167	FIXCROSS	n/a	n/a	n/a	n/a	n/a	n/a	n/a	n/a
103.5823	0.6333	INK	25	Neutral	xxxxxxxx	xxxxxxxx	żółty	yellow	hit	n/a
104.1821	n/a	RESPONSE	n/a	n/a	n/a	n/a	n/a	n/a	n/a	yellow
104.2156	1.0167	ITI	n/a	n/a	n/a	n/a	n/a	n/a	n/a	n/a
105.2323	0.5167	FIXCROSS	n/a	n/a	n/a	n/a	n/a	n/a	n/a	n/a
105.749	0.6333	INK	26	Neutral	xxxxx	xxxxx	niebieski	blue	hit	n/a
106.3576	n/a	RESPONSE	n/a	n/a	n/a	n/a	n/a	n/a	n/a	blue
106.3823	1.0167	ITI	n/a	n/a	n/a	n/a	n/a	n/a	n/a	n/a
107.399	0.5167	FIXCROSS	n/a	n/a	n/a	n/a	n/a	n/a	n/a	n/a
107.9157	0.6667	INK	27	Incongruent	niebieski	blue	żółty	yellow	hit	n/a
108.549	n/a	RESPONSE	n/a	n/a	n/a	n/a	n/a	n/a	n/a	yellow
108.5823	1.0167	ITI	n/a	n/a	n/a	n/a	n/a	n/a	n/a	n/a
109.599	0.5167	FIXCROSS	n/a	n/a	n/a	n/a	n/a	n/a	n/a	n/a
110.1157	0.65	INK	28	Neutral	xxxxxxxxx	xxxxxxxxx	żółty	yellow	hit	n/a
110.7405	n/a	RESPONSE	n/a	n/a	n/a	n/a	n/a	n/a	n/a	yellow
110.7657	1.0167	ITI	n/a	n/a	n/a	n/a	n/a	n/a	n/a	n/a
111.7824	0.5167	FIXCROSS	n/a	n/a	n/a	n/a	n/a	n/a	n/a	n/a
112.299	0.7167	INK	29	Neutral	xxxxx	xxxxx	zielony	green	hit	n/a
112.9959	n/a	RESPONSE	n/a	n/a	n/a	n/a	n/a	n/a	n/a	green
113.0157	1.0167	ITI	n/a	n/a	n/a	n/a	n/a	n/a	n/a	n/a
114.0324	0.5167	FIXCROSS	n/a	n/a	n/a	n/a	n/a	n/a	n/a	n/a
114.5491	0.6167	INK	30	Neutral	xxxxxxxx	xxxxxxxx	żółty	yellow	hit	n/a
115.1394	n/a	RESPONSE	n/a	n/a	n/a	n/a	n/a	n/a	n/a	yellow
115.1657	1.0167	ITI	n/a	n/a	n/a	n/a	n/a	n/a	n/a	n/a
116.1824	0.5167	FIXCROSS	n/a	n/a	n/a	n/a	n/a	n/a	n/a	n/a
116.6991	0.6833	INK	31	Neutral	xxxxxxxx	xxxxxxxx	zielony	green	hit	n/a
117.3628	n/a	RESPONSE	n/a	n/a	n/a	n/a	n/a	n/a	n/a	green
117.3824	1.0167	ITI	n/a	n/a	n/a	n/a	n/a	n/a	n/a	n/a
118.3991	0.5167	FIXCROSS	n/a	n/a	n/a	n/a	n/a	n/a	n/a	n/a
118.9158	0.5833	INK	32	Incongruent	niebieski	blue	żółty	yellow	hit	n/a
119.4743	n/a	RESPONSE	n/a	n/a	n/a	n/a	n/a	n/a	n/a	yellow
119.4991	1.0167	ITI	n/a	n/a	n/a	n/a	n/a	n/a	n/a	n/a
120.5158	0.5167	FIXCROSS	n/a	n/a	n/a	n/a	n/a	n/a	n/a	n/a
121.0324	0.9	INK	33	Incongruent	niebieski	blue	czerwony	red	hit	n/a
121.9057	n/a	RESPONSE	n/a	n/a	n/a	n/a	n/a	n/a	n/a	red
121.9324	1.0167	ITI	n/a	n/a	n/a	n/a	n/a	n/a	n/a	n/a
122.9491	0.5167	FIXCROSS	n/a	n/a	n/a	n/a	n/a	n/a	n/a	n/a
123.4658	0.7333	INK	34	Incongruent	czerwony	red	zielony	green	hit	n/a
124.1771	n/a	RESPONSE	n/a	n/a	n/a	n/a	n/a	n/a	n/a	green
124.1991	1.0167	ITI	n/a	n/a	n/a	n/a	n/a	n/a	n/a	n/a
125.2158	0.5167	FIXCROSS	n/a	n/a	n/a	n/a	n/a	n/a	n/a	n/a
125.7325	0.7	INK	35	Incongruent	żółty	yellow	czerwony	red	hit	n/a
126.4006	n/a	RESPONSE	n/a	n/a	n/a	n/a	n/a	n/a	n/a	red
126.4325	1.0167	ITI	n/a	n/a	n/a	n/a	n/a	n/a	n/a	n/a
127.4491	0.5167	FIXCROSS	n/a	n/a	n/a	n/a	n/a	n/a	n/a	n/a
127.9658	0.6333	INK	36	Incongruent	zielony	green	niebieski	blue	hit	n/a
128.5761	n/a	RESPONSE	n/a	n/a	n/a	n/a	n/a	n/a	n/a	blue
128.5992	1.0167	ITI	n/a	n/a	n/a	n/a	n/a	n/a	n/a	n/a
129.6158	0.5167	FIXCROSS	n/a	n/a	n/a	n/a	n/a	n/a	n/a	n/a
130.1325	0.65	INK	37	Neutral	xxxxxxx	xxxxxxx	czerwony	red	hit	n/a
130.7516	n/a	RESPONSE	n/a	n/a	n/a	n/a	n/a	n/a	n/a	red
130.7825	1.0167	ITI	n/a	n/a	n/a	n/a	n/a	n/a	n/a	n/a
131.7992	0.5167	FIXCROSS	n/a	n/a	n/a	n/a	n/a	n/a	n/a	n/a
132.3158	0.6333	INK	38	Neutral	xxxxx	xxxxx	niebieski	blue	hit	n/a
132.927	n/a	RESPONSE	n/a	n/a	n/a	n/a	n/a	n/a	n/a	blue
132.9492	1.0167	ITI	n/a	n/a	n/a	n/a	n/a	n/a	n/a	n/a
133.9659	0.5167	FIXCROSS	n/a	n/a	n/a	n/a	n/a	n/a	n/a	n/a
134.4825	0.8167	INK	39	Incongruent	zielony	green	czerwony	red	hit	n/a
135.2784	n/a	RESPONSE	n/a	n/a	n/a	n/a	n/a	n/a	n/a	red
135.2992	1.0167	ITI	n/a	n/a	n/a	n/a	n/a	n/a	n/a	n/a
136.3159	0.5167	FIXCROSS	n/a	n/a	n/a	n/a	n/a	n/a	n/a	n/a
136.8325	0.7167	INK	40	Neutral	xxxxxxxxx	xxxxxxxxx	zielony	green	hit	n/a
137.5179	n/a	RESPONSE	n/a	n/a	n/a	n/a	n/a	n/a	n/a	green
137.5492	1.0167	ITI	n/a	n/a	n/a	n/a	n/a	n/a	n/a	n/a
138.5659	0.5167	FIXCROSS	n/a	n/a	n/a	n/a	n/a	n/a	n/a	n/a
139.0826	0.8	INK	41	Incongruent	niebieski	blue	czerwony	red	hit	n/a
139.8533	n/a	RESPONSE	n/a	n/a	n/a	n/a	n/a	n/a	n/a	red
139.8826	1.0167	ITI	n/a	n/a	n/a	n/a	n/a	n/a	n/a	n/a
140.8992	0.5167	FIXCROSS	n/a	n/a	n/a	n/a	n/a	n/a	n/a	n/a
141.4159	0.65	INK	42	Neutral	xxxxx	xxxxx	czerwony	red	hit	n/a
142.0447	n/a	RESPONSE	n/a	n/a	n/a	n/a	n/a	n/a	n/a	red
142.0659	1.0167	ITI	n/a	n/a	n/a	n/a	n/a	n/a	n/a	n/a
143.0826	0.5167	FIXCROSS	n/a	n/a	n/a	n/a	n/a	n/a	n/a	n/a
143.5993	0.7667	INK	43	Incongruent	żółty	yellow	czerwony	red	hit	n/a
144.3322	n/a	RESPONSE	n/a	n/a	n/a	n/a	n/a	n/a	n/a	red
144.3659	1.0167	ITI	n/a	n/a	n/a	n/a	n/a	n/a	n/a	n/a
145.3826	0.5167	FIXCROSS	n/a	n/a	n/a	n/a	n/a	n/a	n/a	n/a
145.8993	0.4833	INK	44	Neutral	xxxxxxxxx	xxxxxxxxx	czerwony	red	hit	n/a
146.3637	n/a	RESPONSE	n/a	n/a	n/a	n/a	n/a	n/a	n/a	red
146.3826	1.0167	ITI	n/a	n/a	n/a	n/a	n/a	n/a	n/a	n/a
147.3993	0.5167	FIXCROSS	n/a	n/a	n/a	n/a	n/a	n/a	n/a	n/a
147.916	0.5	INK	45	Neutral	xxxxxxxxx	xxxxxxxxx	czerwony	red	hit	n/a
148.3952	n/a	RESPONSE	n/a	n/a	n/a	n/a	n/a	n/a	n/a	red
148.416	1.0167	ITI	n/a	n/a	n/a	n/a	n/a	n/a	n/a	n/a
149.4326	0.5167	FIXCROSS	n/a	n/a	n/a	n/a	n/a	n/a	n/a	n/a
149.9493	0.7833	INK	46	Incongruent	zielony	green	niebieski	blue	hit	n/a
150.7145	n/a	RESPONSE	n/a	n/a	n/a	n/a	n/a	n/a	n/a	blue
150.7326	1.0167	ITI	n/a	n/a	n/a	n/a	n/a	n/a	n/a	n/a
151.7493	0.5167	FIXCROSS	n/a	n/a	n/a	n/a	n/a	n/a	n/a	n/a
152.266	0.6833	INK	47	Neutral	xxxxxxx	xxxxxxx	żółty	yellow	hit	n/a
152.922	n/a	RESPONSE	n/a	n/a	n/a	n/a	n/a	n/a	n/a	yellow
152.9493	1.0167	ITI	n/a	n/a	n/a	n/a	n/a	n/a	n/a	n/a
153.966	0.5167	FIXCROSS	n/a	n/a	n/a	n/a	n/a	n/a	n/a	n/a
154.4827	0.5667	INK	48	Neutral	xxxxxxx	xxxxxxx	żółty	yellow	hit	n/a
155.0175	n/a	RESPONSE	n/a	n/a	n/a	n/a	n/a	n/a	n/a	yellow
155.0493	1.0167	ITI	n/a	n/a	n/a	n/a	n/a	n/a	n/a	n/a
156.066	0.5167	FIXCROSS	n/a	n/a	n/a	n/a	n/a	n/a	n/a	n/a
156.5827	0.65	INK	49	Neutral	xxxxxxx	xxxxxxx	niebieski	blue	hit	n/a
157.2089	n/a	RESPONSE	n/a	n/a	n/a	n/a	n/a	n/a	n/a	blue
157.2327	1.0167	ITI	n/a	n/a	n/a	n/a	n/a	n/a	n/a	n/a
158.2494	0.5167	FIXCROSS	n/a	n/a	n/a	n/a	n/a	n/a	n/a	n/a
158.766	0.9	INK	50	Neutral	xxxxx	xxxxx	zielony	green	hit	n/a
159.6404	n/a	RESPONSE	n/a	n/a	n/a	n/a	n/a	n/a	n/a	green
159.666	1.0167	ITI	n/a	n/a	n/a	n/a	n/a	n/a	n/a	n/a
160.6827	0.5167	FIXCROSS	n/a	n/a	n/a	n/a	n/a	n/a	n/a	n/a
161.1994	0.5833	INK	51	Neutral	xxxxxxxxx	xxxxxxxxx	żółty	yellow	hit	n/a
161.7518	n/a	RESPONSE	n/a	n/a	n/a	n/a	n/a	n/a	n/a	yellow
161.7827	1.0167	ITI	n/a	n/a	n/a	n/a	n/a	n/a	n/a	n/a
162.7994	0.5167	FIXCROSS	n/a	n/a	n/a	n/a	n/a	n/a	n/a	n/a
163.3161	0.6167	INK	52	Neutral	xxxxxxx	xxxxxxx	niebieski	blue	hit	n/a
163.9113	n/a	RESPONSE	n/a	n/a	n/a	n/a	n/a	n/a	n/a	blue
163.9327	1.0167	ITI	n/a	n/a	n/a	n/a	n/a	n/a	n/a	n/a
164.9494	0.5167	FIXCROSS	n/a	n/a	n/a	n/a	n/a	n/a	n/a	n/a
165.4661	0.8	INK	53	Incongruent	żółty	yellow	zielony	green	hit	n/a
166.2467	n/a	RESPONSE	n/a	n/a	n/a	n/a	n/a	n/a	n/a	green
166.2661	1.0167	ITI	n/a	n/a	n/a	n/a	n/a	n/a	n/a	n/a
167.2828	0.5167	FIXCROSS	n/a	n/a	n/a	n/a	n/a	n/a	n/a	n/a
167.7994	0.7	INK	54	Neutral	xxxxxxxxx	xxxxxxxxx	zielony	green	incorrect	n/a
168.4701	n/a	RESPONSE	n/a	n/a	n/a	n/a	n/a	n/a	n/a	yellow
168.4994	1.0167	ITI	n/a	n/a	n/a	n/a	n/a	n/a	n/a	n/a
169.5161	0.5167	FIXCROSS	n/a	n/a	n/a	n/a	n/a	n/a	n/a	n/a
170.0328	1.05	INK	55	Neutral	xxxxxxxxx	xxxxxxxxx	czerwony	red	hit	n/a
171.0615	n/a	RESPONSE	n/a	n/a	n/a	n/a	n/a	n/a	n/a	red
171.0828	1.0167	ITI	n/a	n/a	n/a	n/a	n/a	n/a	n/a	n/a
172.0995	0.5167	FIXCROSS	n/a	n/a	n/a	n/a	n/a	n/a	n/a	n/a
172.6161	0.75	INK	56	Incongruent	zielony	green	żółty	yellow	hit	n/a
173.333	n/a	RESPONSE	n/a	n/a	n/a	n/a	n/a	n/a	n/a	yellow
173.3661	1.0167	ITI	n/a	n/a	n/a	n/a	n/a	n/a	n/a	n/a
174.3828	0.5167	FIXCROSS	n/a	n/a	n/a	n/a	n/a	n/a	n/a	n/a
174.8995	0.65	INK	57	Neutral	xxxxxxxx	xxxxxxxx	niebieski	blue	hit	n/a
175.5244	n/a	RESPONSE	n/a	n/a	n/a	n/a	n/a	n/a	n/a	blue
175.5495	1.0167	ITI	n/a	n/a	n/a	n/a	n/a	n/a	n/a	n/a
176.5662	0.5167	FIXCROSS	n/a	n/a	n/a	n/a	n/a	n/a	n/a	n/a
177.0828	0.7667	INK	58	Neutral	xxxxxxxxx	xxxxxxxxx	zielony	green	hit	n/a
177.8279	n/a	RESPONSE	n/a	n/a	n/a	n/a	n/a	n/a	n/a	green
177.8495	1.0167	ITI	n/a	n/a	n/a	n/a	n/a	n/a	n/a	n/a
178.8662	0.5167	FIXCROSS	n/a	n/a	n/a	n/a	n/a	n/a	n/a	n/a
179.3828	0.6167	INK	59	Neutral	xxxxxxx	xxxxxxx	żółty	yellow	hit	n/a
179.9713	n/a	RESPONSE	n/a	n/a	n/a	n/a	n/a	n/a	n/a	yellow
179.9995	1.0167	ITI	n/a	n/a	n/a	n/a	n/a	n/a	n/a	n/a
181.0162	0.5167	FIXCROSS	n/a	n/a	n/a	n/a	n/a	n/a	n/a	n/a
181.5329	0.7	INK	60	Neutral	xxxxx	xxxxx	niebieski	blue	hit	n/a
182.2108	n/a	RESPONSE	n/a	n/a	n/a	n/a	n/a	n/a	n/a	blue
182.2329	1.0167	ITI	n/a	n/a	n/a	n/a	n/a	n/a	n/a	n/a
183.2495	0.5167	FIXCROSS	n/a	n/a	n/a	n/a	n/a	n/a	n/a	n/a
183.7662	0.7667	INK	61	Incongruent	żółty	yellow	zielony	green	hit	n/a
184.5142	n/a	RESPONSE	n/a	n/a	n/a	n/a	n/a	n/a	n/a	green
184.5329	1.0167	ITI	n/a	n/a	n/a	n/a	n/a	n/a	n/a	n/a
185.5496	0.5167	FIXCROSS	n/a	n/a	n/a	n/a	n/a	n/a	n/a	n/a
186.0662	0.6333	INK	62	Incongruent	żółty	yellow	czerwony	red	hit	n/a
186.6737	n/a	RESPONSE	n/a	n/a	n/a	n/a	n/a	n/a	n/a	red
186.6996	1.0167	ITI	n/a	n/a	n/a	n/a	n/a	n/a	n/a	n/a
187.7162	0.5167	FIXCROSS	n/a	n/a	n/a	n/a	n/a	n/a	n/a	n/a
188.2329	0.7667	INK	63	Incongruent	niebieski	blue	czerwony	red	hit	n/a
188.9771	n/a	RESPONSE	n/a	n/a	n/a	n/a	n/a	n/a	n/a	red
188.9996	1.0167	ITI	n/a	n/a	n/a	n/a	n/a	n/a	n/a	n/a
190.0163	0.5167	FIXCROSS	n/a	n/a	n/a	n/a	n/a	n/a	n/a	n/a
190.5329	0.6833	INK	64	Neutral	xxxxxxxx	xxxxxxxx	niebieski	blue	hit	n/a
191.1846	n/a	RESPONSE	n/a	n/a	n/a	n/a	n/a	n/a	n/a	blue
191.2163	1.0167	ITI	n/a	n/a	n/a	n/a	n/a	n/a	n/a	n/a
192.2329	0.5167	FIXCROSS	n/a	n/a	n/a	n/a	n/a	n/a	n/a	n/a
192.7496	0.7833	INK	65	Incongruent	czerwony	red	zielony	green	hit	n/a
193.504	n/a	RESPONSE	n/a	n/a	n/a	n/a	n/a	n/a	n/a	green
193.5329	1.0167	ITI	n/a	n/a	n/a	n/a	n/a	n/a	n/a	n/a
194.5496	0.5167	FIXCROSS	n/a	n/a	n/a	n/a	n/a	n/a	n/a	n/a
195.0663	0.7167	INK	66	Incongruent	niebieski	blue	zielony	green	hit	n/a
195.7594	n/a	RESPONSE	n/a	n/a	n/a	n/a	n/a	n/a	n/a	green
195.783	1.0167	ITI	n/a	n/a	n/a	n/a	n/a	n/a	n/a	n/a
196.7996	0.5167	FIXCROSS	n/a	n/a	n/a	n/a	n/a	n/a	n/a	n/a
197.3163	0.7333	INK	67	Incongruent	czerwony	red	zielony	green	hit	n/a
198.0309	n/a	RESPONSE	n/a	n/a	n/a	n/a	n/a	n/a	n/a	green
198.0496	1.0166	ITI	n/a	n/a	n/a	n/a	n/a	n/a	n/a	n/a
199.0663	0.5167	FIXCROSS	n/a	n/a	n/a	n/a	n/a	n/a	n/a	n/a
199.583	0.75	INK	68	Incongruent	niebieski	blue	zielony	green	hit	n/a
200.3023	n/a	RESPONSE	n/a	n/a	n/a	n/a	n/a	n/a	n/a	green
200.333	1.0167	ITI	n/a	n/a	n/a	n/a	n/a	n/a	n/a	n/a
201.3497	0.5167	FIXCROSS	n/a	n/a	n/a	n/a	n/a	n/a	n/a	n/a
201.8663	0.5667	INK	69	Neutral	xxxxxxxx	xxxxxxxx	zielony	green	hit	n/a
202.4138	n/a	RESPONSE	n/a	n/a	n/a	n/a	n/a	n/a	n/a	green
202.433	1.0167	ITI	n/a	n/a	n/a	n/a	n/a	n/a	n/a	n/a
203.4497	0.5167	FIXCROSS	n/a	n/a	n/a	n/a	n/a	n/a	n/a	n/a
203.9664	0.6833	INK	70	Incongruent	czerwony	red	żółty	yellow	hit	n/a
204.6212	n/a	RESPONSE	n/a	n/a	n/a	n/a	n/a	n/a	n/a	yellow
204.6497	1.0167	ITI	n/a	n/a	n/a	n/a	n/a	n/a	n/a	n/a
205.6664	0.5167	FIXCROSS	n/a	n/a	n/a	n/a	n/a	n/a	n/a	n/a
206.183	0.4667	INK	71	Incongruent	zielony	green	żółty	yellow	hit	n/a
206.6207	n/a	RESPONSE	n/a	n/a	n/a	n/a	n/a	n/a	n/a	yellow
206.6497	1.0167	ITI	n/a	n/a	n/a	n/a	n/a	n/a	n/a	n/a
207.6664	0.5167	FIXCROSS	n/a	n/a	n/a	n/a	n/a	n/a	n/a	n/a
208.183	0.6667	INK	72	Neutral	xxxxxxxx	xxxxxxxx	niebieski	blue	hit	n/a
208.8282	n/a	RESPONSE	n/a	n/a	n/a	n/a	n/a	n/a	n/a	blue
208.8497	1.0833	ITI	n/a	n/a	n/a	n/a	n/a	n/a	n/a	n/a
215.6265	n/a	RESPONSE	n/a	n/a	n/a	n/a	n/a	n/a	n/a	n/a
215.6831	1.0167	ITI	n/a	n/a	n/a	n/a	n/a	n/a	n/a	n/a
216.6998	0.5167	FIXCROSS	n/a	n/a	n/a	n/a	n/a	n/a	n/a	n/a
217.2164	1.2667	T_COLOR_NAME	1	Incongruent	żółty	yellow	zielony	green	hit	n/a
218.4578	n/a	RESPONSE	n/a	n/a	n/a	n/a	n/a	n/a	n/a	yellow
218.4831	0.5167	FEEDBACK	n/a	n/a	n/a	n/a	n/a	n/a	n/a	n/a
218.9998	1.0167	ITI	n/a	n/a	n/a	n/a	n/a	n/a	n/a	n/a
220.0165	0.5167	FIXCROSS	n/a	n/a	n/a	n/a	n/a	n/a	n/a	n/a
220.5331	1.4333	T_COLOR_NAME	2	Neutral	czerwony	red	Neutral	Neutral	hit	n/a
221.9449	n/a	RESPONSE	n/a	n/a	n/a	n/a	n/a	n/a	n/a	red
221.9665	0.5167	FEEDBACK	n/a	n/a	n/a	n/a	n/a	n/a	n/a	n/a
222.4831	1.0167	ITI	n/a	n/a	n/a	n/a	n/a	n/a	n/a	n/a
223.4998	0.5167	FIXCROSS	n/a	n/a	n/a	n/a	n/a	n/a	n/a	n/a
224.0165	1.5167	T_COLOR_NAME	3	Incongruent	niebieski	blue	zielony	green	hit	n/a
225.5121	n/a	RESPONSE	n/a	n/a	n/a	n/a	n/a	n/a	n/a	blue
225.5332	0.5167	FEEDBACK	n/a	n/a	n/a	n/a	n/a	n/a	n/a	n/a
226.0498	1.0167	ITI	n/a	n/a	n/a	n/a	n/a	n/a	n/a	n/a
227.0665	0.5167	FIXCROSS	n/a	n/a	n/a	n/a	n/a	n/a	n/a	n/a
227.5832	1.2167	T_COLOR_NAME	4	Neutral	zielony	green	Neutral	Neutral	hit	n/a
228.7752	n/a	RESPONSE	n/a	n/a	n/a	n/a	n/a	n/a	n/a	green
228.7998	0.5167	FEEDBACK	n/a	n/a	n/a	n/a	n/a	n/a	n/a	n/a
229.3165	1.0167	ITI	n/a	n/a	n/a	n/a	n/a	n/a	n/a	n/a
230.3332	0.5167	FIXCROSS	n/a	n/a	n/a	n/a	n/a	n/a	n/a	n/a
230.8499	0.9834	T_COLOR_NAME	5	Incongruent	zielony	green	żółty	yellow	hit	n/a
231.7985	n/a	RESPONSE	n/a	n/a	n/a	n/a	n/a	n/a	n/a	green
231.8332	0.5167	FEEDBACK	n/a	n/a	n/a	n/a	n/a	n/a	n/a	n/a
232.3499	1.0167	ITI	n/a	n/a	n/a	n/a	n/a	n/a	n/a	n/a
233.3665	0.5167	FIXCROSS	n/a	n/a	n/a	n/a	n/a	n/a	n/a	n/a
233.8832	1.0834	T_COLOR_NAME	6	Incongruent	czerwony	red	zielony	green	hit	n/a
234.9337	n/a	RESPONSE	n/a	n/a	n/a	n/a	n/a	n/a	n/a	red
234.9666	0.5167	FEEDBACK	n/a	n/a	n/a	n/a	n/a	n/a	n/a	n/a
235.4832	1.0167	ITI	n/a	n/a	n/a	n/a	n/a	n/a	n/a	n/a
236.4999	0.5167	FIXCROSS	n/a	n/a	n/a	n/a	n/a	n/a	n/a	n/a
237.0166	0.9167	T_COLOR_NAME	7	Neutral	żółty	yellow	Neutral	Neutral	hit	n/a
237.9089	n/a	RESPONSE	n/a	n/a	n/a	n/a	n/a	n/a	n/a	yellow
237.9332	0.5167	FEEDBACK	n/a	n/a	n/a	n/a	n/a	n/a	n/a	n/a
238.4499	1.0167	ITI	n/a	n/a	n/a	n/a	n/a	n/a	n/a	n/a
239.4666	0.5167	FIXCROSS	n/a	n/a	n/a	n/a	n/a	n/a	n/a	n/a
239.9833	1.35	T_COLOR_NAME	8	Incongruent	zielony	green	niebieski	blue	hit	n/a
241.3002	n/a	RESPONSE	n/a	n/a	n/a	n/a	n/a	n/a	n/a	green
241.3333	0.5167	FEEDBACK	n/a	n/a	n/a	n/a	n/a	n/a	n/a	n/a
241.8499	1.0167	ITI	n/a	n/a	n/a	n/a	n/a	n/a	n/a	n/a
242.8666	0.5167	FIXCROSS	n/a	n/a	n/a	n/a	n/a	n/a	n/a	n/a
243.3833	1.3167	T_COLOR_NAME	9	Incongruent	zielony	green	czerwony	red	hit	n/a
244.6753	n/a	RESPONSE	n/a	n/a	n/a	n/a	n/a	n/a	n/a	green
244.7	0.5167	FEEDBACK	n/a	n/a	n/a	n/a	n/a	n/a	n/a	n/a
245.2166	1.0167	ITI	n/a	n/a	n/a	n/a	n/a	n/a	n/a	n/a
246.2333	0.5167	FIXCROSS	n/a	n/a	n/a	n/a	n/a	n/a	n/a	n/a
246.75	0.9333	T_COLOR_NAME	10	Neutral	zielony	green	Neutral	Neutral	hit	n/a
247.6506	n/a	RESPONSE	n/a	n/a	n/a	n/a	n/a	n/a	n/a	green
247.6833	0.5167	FEEDBACK	n/a	n/a	n/a	n/a	n/a	n/a	n/a	n/a
248.2	1.0167	ITI	n/a	n/a	n/a	n/a	n/a	n/a	n/a	n/a
249.2167	0.5167	FIXCROSS	n/a	n/a	n/a	n/a	n/a	n/a	n/a	n/a
249.7333	1.05	T_COLOR_NAME	11	Neutral	niebieski	blue	Neutral	Neutral	hit	n/a
250.7538	n/a	RESPONSE	n/a	n/a	n/a	n/a	n/a	n/a	n/a	blue
250.7833	0.5167	FEEDBACK	n/a	n/a	n/a	n/a	n/a	n/a	n/a	n/a
251.3	1.0167	ITI	n/a	n/a	n/a	n/a	n/a	n/a	n/a	n/a
252.3167	0.5167	FIXCROSS	n/a	n/a	n/a	n/a	n/a	n/a	n/a	n/a
252.8333	1.0833	T_COLOR_NAME	12	Incongruent	czerwony	red	żółty	yellow	hit	n/a
253.889	n/a	RESPONSE	n/a	n/a	n/a	n/a	n/a	n/a	n/a	red
253.9167	0.5167	FEEDBACK	n/a	n/a	n/a	n/a	n/a	n/a	n/a	n/a
254.4334	1.0333	ITI	n/a	n/a	n/a	n/a	n/a	n/a	n/a	n/a
257.6481	n/a	RESPONSE	n/a	n/a	n/a	n/a	n/a	n/a	n/a	n/a
257.7167	1.0167	ITI	n/a	n/a	n/a	n/a	n/a	n/a	n/a	n/a
258.7334	0.5167	FIXCROSS	n/a	n/a	n/a	n/a	n/a	n/a	n/a	n/a
259.2501	0.9833	COLOR_NAME	1	Incongruent	niebieski	blue	żółty	yellow	hit	n/a
260.2074	n/a	RESPONSE	n/a	n/a	n/a	n/a	n/a	n/a	n/a	blue
260.2334	1.0167	ITI	n/a	n/a	n/a	n/a	n/a	n/a	n/a	n/a
261.2501	0.5167	FIXCROSS	n/a	n/a	n/a	n/a	n/a	n/a	n/a	n/a
261.7668	1.1333	COLOR_NAME	2	Incongruent	czerwony	red	niebieski	blue	hit	n/a
262.8788	n/a	RESPONSE	n/a	n/a	n/a	n/a	n/a	n/a	n/a	red
262.9001	1.0167	ITI	n/a	n/a	n/a	n/a	n/a	n/a	n/a	n/a
263.9168	0.5167	FIXCROSS	n/a	n/a	n/a	n/a	n/a	n/a	n/a	n/a
264.4334	0.7333	COLOR_NAME	3	Neutral	niebieski	blue	Neutral	Neutral	hit	n/a
265.1342	n/a	RESPONSE	n/a	n/a	n/a	n/a	n/a	n/a	n/a	blue
265.1668	1.0167	ITI	n/a	n/a	n/a	n/a	n/a	n/a	n/a	n/a
266.1834	0.5167	FIXCROSS	n/a	n/a	n/a	n/a	n/a	n/a	n/a	n/a
266.7001	1.1167	COLOR_NAME	4	Incongruent	czerwony	red	niebieski	blue	hit	n/a
267.7896	n/a	RESPONSE	n/a	n/a	n/a	n/a	n/a	n/a	n/a	red
267.8168	1.0167	ITI	n/a	n/a	n/a	n/a	n/a	n/a	n/a	n/a
268.8335	0.5167	FIXCROSS	n/a	n/a	n/a	n/a	n/a	n/a	n/a	n/a
269.3501	1.1833	COLOR_NAME	5	Incongruent	czerwony	red	zielony	green	hit	n/a
270.5089	n/a	RESPONSE	n/a	n/a	n/a	n/a	n/a	n/a	n/a	red
270.5335	1.0167	ITI	n/a	n/a	n/a	n/a	n/a	n/a	n/a	n/a
271.5501	0.5167	FIXCROSS	n/a	n/a	n/a	n/a	n/a	n/a	n/a	n/a
272.0668	0.8167	COLOR_NAME	6	Neutral	niebieski	blue	Neutral	Neutral	hit	n/a
272.8603	n/a	RESPONSE	n/a	n/a	n/a	n/a	n/a	n/a	n/a	blue
272.8835	1.0167	ITI	n/a	n/a	n/a	n/a	n/a	n/a	n/a	n/a
273.9002	0.5167	FIXCROSS	n/a	n/a	n/a	n/a	n/a	n/a	n/a	n/a
274.4168	0.9167	COLOR_NAME	7	Incongruent	czerwony	red	zielony	green	hit	n/a
275.3078	n/a	RESPONSE	n/a	n/a	n/a	n/a	n/a	n/a	n/a	red
275.3335	1.0167	ITI	n/a	n/a	n/a	n/a	n/a	n/a	n/a	n/a
276.3502	0.5167	FIXCROSS	n/a	n/a	n/a	n/a	n/a	n/a	n/a	n/a
276.8668	0.9333	COLOR_NAME	8	Neutral	żółty	yellow	Neutral	Neutral	hit	n/a
277.7711	n/a	RESPONSE	n/a	n/a	n/a	n/a	n/a	n/a	n/a	yellow
277.8002	1.0167	ITI	n/a	n/a	n/a	n/a	n/a	n/a	n/a	n/a
278.8169	0.5167	FIXCROSS	n/a	n/a	n/a	n/a	n/a	n/a	n/a	n/a
279.3335	0.95	COLOR_NAME	9	Incongruent	żółty	yellow	niebieski	blue	hit	n/a
280.2505	n/a	RESPONSE	n/a	n/a	n/a	n/a	n/a	n/a	n/a	yellow
280.2835	1.0167	ITI	n/a	n/a	n/a	n/a	n/a	n/a	n/a	n/a
281.3002	0.5167	FIXCROSS	n/a	n/a	n/a	n/a	n/a	n/a	n/a	n/a
281.8169	1.2834	COLOR_NAME	10	Incongruent	niebieski	blue	zielony	green	hit	n/a
283.0818	n/a	RESPONSE	n/a	n/a	n/a	n/a	n/a	n/a	n/a	blue
283.1002	1.0167	ITI	n/a	n/a	n/a	n/a	n/a	n/a	n/a	n/a
284.1169	0.5167	FIXCROSS	n/a	n/a	n/a	n/a	n/a	n/a	n/a	n/a
284.6336	0.85	COLOR_NAME	11	Neutral	niebieski	blue	Neutral	Neutral	hit	n/a
285.4652	n/a	RESPONSE	n/a	n/a	n/a	n/a	n/a	n/a	n/a	blue
285.4836	1.0167	ITI	n/a	n/a	n/a	n/a	n/a	n/a	n/a	n/a
286.5002	0.5167	FIXCROSS	n/a	n/a	n/a	n/a	n/a	n/a	n/a	n/a
287.0169	1.25	COLOR_NAME	12	Incongruent	niebieski	blue	czerwony	red	hit	n/a
288.2165	n/a	RESPONSE	n/a	n/a	n/a	n/a	n/a	n/a	n/a	blue
288.2669	1.0167	ITI	n/a	n/a	n/a	n/a	n/a	n/a	n/a	n/a
289.2836	0.5167	FIXCROSS	n/a	n/a	n/a	n/a	n/a	n/a	n/a	n/a
289.8003	1.5833	COLOR_NAME	13	Incongruent	czerwony	red	żółty	yellow	hit	n/a
291.3517	n/a	RESPONSE	n/a	n/a	n/a	n/a	n/a	n/a	n/a	red
291.3836	1.0167	ITI	n/a	n/a	n/a	n/a	n/a	n/a	n/a	n/a
292.4003	0.5167	FIXCROSS	n/a	n/a	n/a	n/a	n/a	n/a	n/a	n/a
292.917	0.95	COLOR_NAME	14	Neutral	zielony	green	Neutral	Neutral	hit	n/a
293.8471	n/a	RESPONSE	n/a	n/a	n/a	n/a	n/a	n/a	n/a	green
293.867	1.0167	ITI	n/a	n/a	n/a	n/a	n/a	n/a	n/a	n/a
294.8836	0.5167	FIXCROSS	n/a	n/a	n/a	n/a	n/a	n/a	n/a	n/a
295.4003	1.0	COLOR_NAME	15	Neutral	czerwony	red	Neutral	Neutral	hit	n/a
296.3745	n/a	RESPONSE	n/a	n/a	n/a	n/a	n/a	n/a	n/a	red
296.4003	1.0167	ITI	n/a	n/a	n/a	n/a	n/a	n/a	n/a	n/a
297.417	0.5167	FIXCROSS	n/a	n/a	n/a	n/a	n/a	n/a	n/a	n/a
297.9337	0.75	COLOR_NAME	16	Neutral	żółty	yellow	Neutral	Neutral	hit	n/a
298.6619	n/a	RESPONSE	n/a	n/a	n/a	n/a	n/a	n/a	n/a	yellow
298.6837	1.0167	ITI	n/a	n/a	n/a	n/a	n/a	n/a	n/a	n/a
299.7003	0.5167	FIXCROSS	n/a	n/a	n/a	n/a	n/a	n/a	n/a	n/a
300.217	0.8333	COLOR_NAME	17	Neutral	czerwony	red	Neutral	Neutral	hit	n/a
301.0293	n/a	RESPONSE	n/a	n/a	n/a	n/a	n/a	n/a	n/a	red
301.0504	1.0167	ITI	n/a	n/a	n/a	n/a	n/a	n/a	n/a	n/a
302.067	0.5167	FIXCROSS	n/a	n/a	n/a	n/a	n/a	n/a	n/a	n/a
302.5837	1.1167	COLOR_NAME	18	Incongruent	niebieski	blue	zielony	green	hit	n/a
303.6687	n/a	RESPONSE	n/a	n/a	n/a	n/a	n/a	n/a	n/a	blue
303.7004	1.0167	ITI	n/a	n/a	n/a	n/a	n/a	n/a	n/a	n/a
304.717	0.5167	FIXCROSS	n/a	n/a	n/a	n/a	n/a	n/a	n/a	n/a
305.2337	0.7167	COLOR_NAME	19	Neutral	niebieski	blue	Neutral	Neutral	hit	n/a
305.9241	n/a	RESPONSE	n/a	n/a	n/a	n/a	n/a	n/a	n/a	blue
305.9504	1.0167	ITI	n/a	n/a	n/a	n/a	n/a	n/a	n/a	n/a
306.9671	0.5167	FIXCROSS	n/a	n/a	n/a	n/a	n/a	n/a	n/a	n/a
307.4837	0.7833	COLOR_NAME	20	Neutral	czerwony	red	Neutral	Neutral	hit	n/a
308.2435	n/a	RESPONSE	n/a	n/a	n/a	n/a	n/a	n/a	n/a	red
308.2671	1.0167	ITI	n/a	n/a	n/a	n/a	n/a	n/a	n/a	n/a
309.2837	0.5167	FIXCROSS	n/a	n/a	n/a	n/a	n/a	n/a	n/a	n/a
309.8004	1.0667	COLOR_NAME	21	Incongruent	niebieski	blue	żółty	yellow	hit	n/a
310.8349	n/a	RESPONSE	n/a	n/a	n/a	n/a	n/a	n/a	n/a	blue
310.8671	1.0167	ITI	n/a	n/a	n/a	n/a	n/a	n/a	n/a	n/a
311.8837	0.5167	FIXCROSS	n/a	n/a	n/a	n/a	n/a	n/a	n/a	n/a
312.4004	0.9167	COLOR_NAME	22	Incongruent	zielony	green	niebieski	blue	hit	n/a
313.2983	n/a	RESPONSE	n/a	n/a	n/a	n/a	n/a	n/a	n/a	green
313.3171	1.0167	ITI	n/a	n/a	n/a	n/a	n/a	n/a	n/a	n/a
314.3338	0.5167	FIXCROSS	n/a	n/a	n/a	n/a	n/a	n/a	n/a	n/a
314.8504	0.6333	COLOR_NAME	23	Neutral	niebieski	blue	Neutral	Neutral	hit	n/a
315.4578	n/a	RESPONSE	n/a	n/a	n/a	n/a	n/a	n/a	n/a	blue
315.4838	1.0167	ITI	n/a	n/a	n/a	n/a	n/a	n/a	n/a	n/a
316.5005	0.5167	FIXCROSS	n/a	n/a	n/a	n/a	n/a	n/a	n/a	n/a
317.0171	0.8333	COLOR_NAME	24	Neutral	żółty	yellow	Neutral	Neutral	hit	n/a
317.8252	n/a	RESPONSE	n/a	n/a	n/a	n/a	n/a	n/a	n/a	yellow
317.8505	1.0167	ITI	n/a	n/a	n/a	n/a	n/a	n/a	n/a	n/a
318.8671	0.5167	FIXCROSS	n/a	n/a	n/a	n/a	n/a	n/a	n/a	n/a
319.3838	0.65	COLOR_NAME	25	Neutral	żółty	yellow	Neutral	Neutral	hit	n/a
320.0006	n/a	RESPONSE	n/a	n/a	n/a	n/a	n/a	n/a	n/a	yellow
320.0338	1.0167	ITI	n/a	n/a	n/a	n/a	n/a	n/a	n/a	n/a
321.0505	0.5167	FIXCROSS	n/a	n/a	n/a	n/a	n/a	n/a	n/a	n/a
321.5671	0.7333	COLOR_NAME	26	Incongruent	niebieski	blue	żółty	yellow	hit	n/a
322.272	n/a	RESPONSE	n/a	n/a	n/a	n/a	n/a	n/a	n/a	blue
322.3005	1.0167	ITI	n/a	n/a	n/a	n/a	n/a	n/a	n/a	n/a
323.3172	0.5167	FIXCROSS	n/a	n/a	n/a	n/a	n/a	n/a	n/a	n/a
323.8338	1.3333	COLOR_NAME	27	Incongruent	czerwony	red	zielony	green	hit	n/a
325.1353	n/a	RESPONSE	n/a	n/a	n/a	n/a	n/a	n/a	n/a	red
325.1672	1.0167	ITI	n/a	n/a	n/a	n/a	n/a	n/a	n/a	n/a
326.1838	0.5167	FIXCROSS	n/a	n/a	n/a	n/a	n/a	n/a	n/a	n/a
326.7005	1.05	COLOR_NAME	28	Neutral	zielony	green	Neutral	Neutral	hit	n/a
327.7267	n/a	RESPONSE	n/a	n/a	n/a	n/a	n/a	n/a	n/a	green
327.7505	1.0167	ITI	n/a	n/a	n/a	n/a	n/a	n/a	n/a	n/a
328.7672	0.5167	FIXCROSS	n/a	n/a	n/a	n/a	n/a	n/a	n/a	n/a
329.2839	0.8	COLOR_NAME	29	Incongruent	niebieski	blue	zielony	green	hit	n/a
330.0621	n/a	RESPONSE	n/a	n/a	n/a	n/a	n/a	n/a	n/a	blue
330.0839	1.0167	ITI	n/a	n/a	n/a	n/a	n/a	n/a	n/a	n/a
331.1005	0.5167	FIXCROSS	n/a	n/a	n/a	n/a	n/a	n/a	n/a	n/a
331.6172	1.0167	COLOR_NAME	30	Incongruent	zielony	green	czerwony	red	hit	n/a
332.6055	n/a	RESPONSE	n/a	n/a	n/a	n/a	n/a	n/a	n/a	green
332.6339	1.0167	ITI	n/a	n/a	n/a	n/a	n/a	n/a	n/a	n/a
333.6506	0.5167	FIXCROSS	n/a	n/a	n/a	n/a	n/a	n/a	n/a	n/a
334.1672	1.1833	COLOR_NAME	31	Incongruent	zielony	green	żółty	yellow	hit	n/a
335.3248	n/a	RESPONSE	n/a	n/a	n/a	n/a	n/a	n/a	n/a	green
335.3506	1.0167	ITI	n/a	n/a	n/a	n/a	n/a	n/a	n/a	n/a
336.3672	0.5167	FIXCROSS	n/a	n/a	n/a	n/a	n/a	n/a	n/a	n/a
336.8839	1.0333	COLOR_NAME	32	Incongruent	czerwony	red	żółty	yellow	hit	n/a
337.8842	n/a	RESPONSE	n/a	n/a	n/a	n/a	n/a	n/a	n/a	red
337.9173	1.0167	ITI	n/a	n/a	n/a	n/a	n/a	n/a	n/a	n/a
338.9339	0.5167	FIXCROSS	n/a	n/a	n/a	n/a	n/a	n/a	n/a	n/a
339.4506	0.75	COLOR_NAME	33	Neutral	niebieski	blue	Neutral	Neutral	hit	n/a
340.1716	n/a	RESPONSE	n/a	n/a	n/a	n/a	n/a	n/a	n/a	blue
340.2006	1.0167	ITI	n/a	n/a	n/a	n/a	n/a	n/a	n/a	n/a
341.2173	0.5167	FIXCROSS	n/a	n/a	n/a	n/a	n/a	n/a	n/a	n/a
341.734	1.2167	COLOR_NAME	34	Incongruent	żółty	yellow	czerwony	red	hit	n/a
342.9229	n/a	RESPONSE	n/a	n/a	n/a	n/a	n/a	n/a	n/a	yellow
342.9506	1.0167	ITI	n/a	n/a	n/a	n/a	n/a	n/a	n/a	n/a
343.9673	0.5167	FIXCROSS	n/a	n/a	n/a	n/a	n/a	n/a	n/a	n/a
344.484	0.8333	COLOR_NAME	35	Neutral	czerwony	red	Neutral	Neutral	hit	n/a
345.2903	n/a	RESPONSE	n/a	n/a	n/a	n/a	n/a	n/a	n/a	red
345.3173	1.0167	ITI	n/a	n/a	n/a	n/a	n/a	n/a	n/a	n/a
346.334	0.5167	FIXCROSS	n/a	n/a	n/a	n/a	n/a	n/a	n/a	n/a
346.8507	0.8667	COLOR_NAME	36	Incongruent	żółty	yellow	zielony	green	hit	n/a
347.6897	n/a	RESPONSE	n/a	n/a	n/a	n/a	n/a	n/a	n/a	yellow
347.7173	1.0167	ITI	n/a	n/a	n/a	n/a	n/a	n/a	n/a	n/a
348.734	0.5167	FIXCROSS	n/a	n/a	n/a	n/a	n/a	n/a	n/a	n/a
349.2507	0.75	COLOR_NAME	37	Neutral	czerwony	red	Neutral	Neutral	hit	n/a
349.9772	n/a	RESPONSE	n/a	n/a	n/a	n/a	n/a	n/a	n/a	red
350.0007	1.0167	ITI	n/a	n/a	n/a	n/a	n/a	n/a	n/a	n/a
351.0174	0.5167	FIXCROSS	n/a	n/a	n/a	n/a	n/a	n/a	n/a	n/a
351.534	0.9667	COLOR_NAME	38	Neutral	zielony	green	Neutral	Neutral	hit	n/a
352.4726	n/a	RESPONSE	n/a	n/a	n/a	n/a	n/a	n/a	n/a	green
352.5007	1.0167	ITI	n/a	n/a	n/a	n/a	n/a	n/a	n/a	n/a
353.5174	0.5167	FIXCROSS	n/a	n/a	n/a	n/a	n/a	n/a	n/a	n/a
354.034	0.8833	COLOR_NAME	39	Neutral	czerwony	red	Neutral	Neutral	hit	n/a
354.8879	n/a	RESPONSE	n/a	n/a	n/a	n/a	n/a	n/a	n/a	red
354.9174	1.0167	ITI	n/a	n/a	n/a	n/a	n/a	n/a	n/a	n/a
355.9341	0.5167	FIXCROSS	n/a	n/a	n/a	n/a	n/a	n/a	n/a	n/a
356.4507	0.75	COLOR_NAME	40	Incongruent	czerwony	red	żółty	yellow	hit	n/a
357.1754	n/a	RESPONSE	n/a	n/a	n/a	n/a	n/a	n/a	n/a	red
357.2007	1.0167	ITI	n/a	n/a	n/a	n/a	n/a	n/a	n/a	n/a
358.2174	0.5167	FIXCROSS	n/a	n/a	n/a	n/a	n/a	n/a	n/a	n/a
358.7341	0.8333	COLOR_NAME	41	Neutral	żółty	yellow	Neutral	Neutral	hit	n/a
359.5428	n/a	RESPONSE	n/a	n/a	n/a	n/a	n/a	n/a	n/a	yellow
359.5674	1.0167	ITI	n/a	n/a	n/a	n/a	n/a	n/a	n/a	n/a
360.5841	0.5167	FIXCROSS	n/a	n/a	n/a	n/a	n/a	n/a	n/a	n/a
361.1008	0.8	COLOR_NAME	42	Neutral	niebieski	blue	Neutral	Neutral	hit	n/a
361.8782	n/a	RESPONSE	n/a	n/a	n/a	n/a	n/a	n/a	n/a	blue
361.9008	1.0167	ITI	n/a	n/a	n/a	n/a	n/a	n/a	n/a	n/a
362.9174	0.5167	FIXCROSS	n/a	n/a	n/a	n/a	n/a	n/a	n/a	n/a
363.4341	1.0333	COLOR_NAME	43	Incongruent	żółty	yellow	niebieski	blue	hit	n/a
364.4376	n/a	RESPONSE	n/a	n/a	n/a	n/a	n/a	n/a	n/a	yellow
364.4674	1.0167	ITI	n/a	n/a	n/a	n/a	n/a	n/a	n/a	n/a
365.4841	0.5167	FIXCROSS	n/a	n/a	n/a	n/a	n/a	n/a	n/a	n/a
366.0008	0.8333	COLOR_NAME	44	Incongruent	żółty	yellow	niebieski	blue	hit	n/a
366.805	n/a	RESPONSE	n/a	n/a	n/a	n/a	n/a	n/a	n/a	yellow
366.8341	1.0167	ITI	n/a	n/a	n/a	n/a	n/a	n/a	n/a	n/a
367.8508	0.5167	FIXCROSS	n/a	n/a	n/a	n/a	n/a	n/a	n/a	n/a
368.3675	1.3	COLOR_NAME	45	Neutral	zielony	green	Neutral	Neutral	hit	n/a
369.6363	n/a	RESPONSE	n/a	n/a	n/a	n/a	n/a	n/a	n/a	green
369.6675	1.0167	ITI	n/a	n/a	n/a	n/a	n/a	n/a	n/a	n/a
370.6841	0.5167	FIXCROSS	n/a	n/a	n/a	n/a	n/a	n/a	n/a	n/a
371.2008	0.7667	COLOR_NAME	46	Neutral	niebieski	blue	Neutral	Neutral	hit	n/a
371.9397	n/a	RESPONSE	n/a	n/a	n/a	n/a	n/a	n/a	n/a	blue
371.9675	1.0167	ITI	n/a	n/a	n/a	n/a	n/a	n/a	n/a	n/a
372.9842	0.5167	FIXCROSS	n/a	n/a	n/a	n/a	n/a	n/a	n/a	n/a
373.5008	1.0	COLOR_NAME	47	Incongruent	zielony	green	niebieski	blue	hit	n/a
374.4831	n/a	RESPONSE	n/a	n/a	n/a	n/a	n/a	n/a	n/a	green
374.5008	1.0167	ITI	n/a	n/a	n/a	n/a	n/a	n/a	n/a	n/a
375.5175	0.5167	FIXCROSS	n/a	n/a	n/a	n/a	n/a	n/a	n/a	n/a
376.0342	1.2167	COLOR_NAME	48	Incongruent	zielony	green	żółty	yellow	hit	n/a
377.2185	n/a	RESPONSE	n/a	n/a	n/a	n/a	n/a	n/a	n/a	green
377.2509	1.0167	ITI	n/a	n/a	n/a	n/a	n/a	n/a	n/a	n/a
378.2675	0.5167	FIXCROSS	n/a	n/a	n/a	n/a	n/a	n/a	n/a	n/a
378.7842	1.0667	COLOR_NAME	49	Incongruent	żółty	yellow	czerwony	red	hit	n/a
379.8258	n/a	RESPONSE	n/a	n/a	n/a	n/a	n/a	n/a	n/a	yellow
379.8509	1.0167	ITI	n/a	n/a	n/a	n/a	n/a	n/a	n/a	n/a
380.8676	0.5167	FIXCROSS	n/a	n/a	n/a	n/a	n/a	n/a	n/a	n/a
381.3842	0.8167	COLOR_NAME	50	Neutral	zielony	green	Neutral	Neutral	hit	n/a
382.1772	n/a	RESPONSE	n/a	n/a	n/a	n/a	n/a	n/a	n/a	green
382.2009	1.0167	ITI	n/a	n/a	n/a	n/a	n/a	n/a	n/a	n/a
383.2176	0.5167	FIXCROSS	n/a	n/a	n/a	n/a	n/a	n/a	n/a	n/a
383.7342	0.9833	COLOR_NAME	51	Incongruent	zielony	green	niebieski	blue	hit	n/a
384.6886	n/a	RESPONSE	n/a	n/a	n/a	n/a	n/a	n/a	n/a	green
384.7176	1.0167	ITI	n/a	n/a	n/a	n/a	n/a	n/a	n/a	n/a
385.7342	0.5167	FIXCROSS	n/a	n/a	n/a	n/a	n/a	n/a	n/a	n/a
386.2509	0.8667	COLOR_NAME	52	Incongruent	niebieski	blue	czerwony	red	hit	n/a
387.088	n/a	RESPONSE	n/a	n/a	n/a	n/a	n/a	n/a	n/a	blue
387.1176	1.0167	ITI	n/a	n/a	n/a	n/a	n/a	n/a	n/a	n/a
388.1343	0.5167	FIXCROSS	n/a	n/a	n/a	n/a	n/a	n/a	n/a	n/a
388.6509	0.8	COLOR_NAME	53	Neutral	żółty	yellow	Neutral	Neutral	hit	n/a
389.4234	n/a	RESPONSE	n/a	n/a	n/a	n/a	n/a	n/a	n/a	yellow
389.4509	1.0167	ITI	n/a	n/a	n/a	n/a	n/a	n/a	n/a	n/a
390.4676	0.5167	FIXCROSS	n/a	n/a	n/a	n/a	n/a	n/a	n/a	n/a
390.9843	0.85	COLOR_NAME	54	Neutral	zielony	green	Neutral	Neutral	hit	n/a
391.8068	n/a	RESPONSE	n/a	n/a	n/a	n/a	n/a	n/a	n/a	green
391.8343	1.0167	ITI	n/a	n/a	n/a	n/a	n/a	n/a	n/a	n/a
392.851	0.5167	FIXCROSS	n/a	n/a	n/a	n/a	n/a	n/a	n/a	n/a
393.3676	0.7167	COLOR_NAME	55	Neutral	zielony	green	Neutral	Neutral	hit	n/a
394.0623	n/a	RESPONSE	n/a	n/a	n/a	n/a	n/a	n/a	n/a	green
394.0843	1.0167	ITI	n/a	n/a	n/a	n/a	n/a	n/a	n/a	n/a
395.101	0.5167	FIXCROSS	n/a	n/a	n/a	n/a	n/a	n/a	n/a	n/a
395.6177	1.0667	COLOR_NAME	56	Incongruent	żółty	yellow	zielony	green	hit	n/a
396.6536	n/a	RESPONSE	n/a	n/a	n/a	n/a	n/a	n/a	n/a	yellow
396.6843	1.0167	ITI	n/a	n/a	n/a	n/a	n/a	n/a	n/a	n/a
397.701	0.5167	FIXCROSS	n/a	n/a	n/a	n/a	n/a	n/a	n/a	n/a
398.2177	1.1333	COLOR_NAME	57	Incongruent	żółty	yellow	czerwony	red	hit	n/a
399.3249	n/a	RESPONSE	n/a	n/a	n/a	n/a	n/a	n/a	n/a	yellow
399.351	1.0167	ITI	n/a	n/a	n/a	n/a	n/a	n/a	n/a	n/a
400.3677	0.5167	FIXCROSS	n/a	n/a	n/a	n/a	n/a	n/a	n/a	n/a
400.8843	0.8	COLOR_NAME	58	Neutral	czerwony	red	Neutral	Neutral	hit	n/a
401.6604	n/a	RESPONSE	n/a	n/a	n/a	n/a	n/a	n/a	n/a	red
401.6844	1.0167	ITI	n/a	n/a	n/a	n/a	n/a	n/a	n/a	n/a
402.701	0.5167	FIXCROSS	n/a	n/a	n/a	n/a	n/a	n/a	n/a	n/a
403.2177	1.05	COLOR_NAME	59	Incongruent	niebieski	blue	czerwony	red	hit	n/a
404.2357	n/a	RESPONSE	n/a	n/a	n/a	n/a	n/a	n/a	n/a	blue
404.2677	1.0167	ITI	n/a	n/a	n/a	n/a	n/a	n/a	n/a	n/a
405.2844	0.5167	FIXCROSS	n/a	n/a	n/a	n/a	n/a	n/a	n/a	n/a
405.8011	0.7667	COLOR_NAME	60	Neutral	żółty	yellow	Neutral	Neutral	hit	n/a
406.5391	n/a	RESPONSE	n/a	n/a	n/a	n/a	n/a	n/a	n/a	yellow
406.5677	1.0167	ITI	n/a	n/a	n/a	n/a	n/a	n/a	n/a	n/a
407.5844	0.5167	FIXCROSS	n/a	n/a	n/a	n/a	n/a	n/a	n/a	n/a
408.1011	0.6333	COLOR_NAME	61	Neutral	żółty	yellow	Neutral	Neutral	hit	n/a
408.7146	n/a	RESPONSE	n/a	n/a	n/a	n/a	n/a	n/a	n/a	yellow
408.7344	1.0167	ITI	n/a	n/a	n/a	n/a	n/a	n/a	n/a	n/a
409.7511	0.5167	FIXCROSS	n/a	n/a	n/a	n/a	n/a	n/a	n/a	n/a
410.2678	1.0	COLOR_NAME	62	Incongruent	żółty	yellow	zielony	green	hit	n/a
411.242	n/a	RESPONSE	n/a	n/a	n/a	n/a	n/a	n/a	n/a	yellow
411.2678	1.0167	ITI	n/a	n/a	n/a	n/a	n/a	n/a	n/a	n/a
412.2844	0.5167	FIXCROSS	n/a	n/a	n/a	n/a	n/a	n/a	n/a	n/a
412.8011	0.9	COLOR_NAME	63	Neutral	zielony	green	Neutral	Neutral	hit	n/a
413.6734	n/a	RESPONSE	n/a	n/a	n/a	n/a	n/a	n/a	n/a	green
413.7011	1.0167	ITI	n/a	n/a	n/a	n/a	n/a	n/a	n/a	n/a
414.7178	0.5167	FIXCROSS	n/a	n/a	n/a	n/a	n/a	n/a	n/a	n/a
415.2345	0.75	COLOR_NAME	64	Neutral	niebieski	blue	Neutral	Neutral	hit	n/a
415.9608	n/a	RESPONSE	n/a	n/a	n/a	n/a	n/a	n/a	n/a	blue
415.9845	1.0167	ITI	n/a	n/a	n/a	n/a	n/a	n/a	n/a	n/a
417.0011	0.5167	FIXCROSS	n/a	n/a	n/a	n/a	n/a	n/a	n/a	n/a
417.5178	0.75	COLOR_NAME	65	Neutral	żółty	yellow	Neutral	Neutral	hit	n/a
418.2483	n/a	RESPONSE	n/a	n/a	n/a	n/a	n/a	n/a	n/a	yellow
418.2678	1.0167	ITI	n/a	n/a	n/a	n/a	n/a	n/a	n/a	n/a
419.2845	0.5167	FIXCROSS	n/a	n/a	n/a	n/a	n/a	n/a	n/a	n/a
419.8011	1.0833	COLOR_NAME	66	Incongruent	czerwony	red	niebieski	blue	hit	n/a
420.8556	n/a	RESPONSE	n/a	n/a	n/a	n/a	n/a	n/a	n/a	red
420.8845	1.0167	ITI	n/a	n/a	n/a	n/a	n/a	n/a	n/a	n/a
421.9012	0.5167	FIXCROSS	n/a	n/a	n/a	n/a	n/a	n/a	n/a	n/a
422.4178	1.5833	COLOR_NAME	67	Incongruent	zielony	green	żółty	yellow	hit	n/a
423.9748	n/a	RESPONSE	n/a	n/a	n/a	n/a	n/a	n/a	n/a	green
424.0012	1.0167	ITI	n/a	n/a	n/a	n/a	n/a	n/a	n/a	n/a
425.0178	0.5167	FIXCROSS	n/a	n/a	n/a	n/a	n/a	n/a	n/a	n/a
425.5345	1.1167	COLOR_NAME	68	Incongruent	zielony	green	czerwony	red	hit	n/a
426.6301	n/a	RESPONSE	n/a	n/a	n/a	n/a	n/a	n/a	n/a	green
426.6512	1.0167	ITI	n/a	n/a	n/a	n/a	n/a	n/a	n/a	n/a
427.6679	0.5167	FIXCROSS	n/a	n/a	n/a	n/a	n/a	n/a	n/a	n/a
428.1845	0.8333	COLOR_NAME	69	Neutral	czerwony	red	Neutral	Neutral	hit	n/a
428.9976	n/a	RESPONSE	n/a	n/a	n/a	n/a	n/a	n/a	n/a	red
429.0179	1.0167	ITI	n/a	n/a	n/a	n/a	n/a	n/a	n/a	n/a
430.0345	0.5167	FIXCROSS	n/a	n/a	n/a	n/a	n/a	n/a	n/a	n/a
430.5512	0.7833	COLOR_NAME	70	Incongruent	zielony	green	czerwony	red	hit	n/a
431.317	n/a	RESPONSE	n/a	n/a	n/a	n/a	n/a	n/a	n/a	green
431.3346	1.0167	ITI	n/a	n/a	n/a	n/a	n/a	n/a	n/a	n/a
432.3512	0.5167	FIXCROSS	n/a	n/a	n/a	n/a	n/a	n/a	n/a	n/a
432.8679	0.6833	COLOR_NAME	71	Neutral	zielony	green	Neutral	Neutral	hit	n/a
433.5244	n/a	RESPONSE	n/a	n/a	n/a	n/a	n/a	n/a	n/a	green
433.5512	1.0167	ITI	n/a	n/a	n/a	n/a	n/a	n/a	n/a	n/a
434.5679	0.5167	FIXCROSS	n/a	n/a	n/a	n/a	n/a	n/a	n/a	n/a
435.0846	0.65	COLOR_NAME	72	Neutral	czerwony	red	Neutral	Neutral	hit	n/a
435.6999	n/a	RESPONSE	n/a	n/a	n/a	n/a	n/a	n/a	n/a	red
435.7346	1.0333	ITI	n/a	n/a	n/a	n/a	n/a	n/a	n/a	n/a
439.571	n/a	RESPONSE	n/a	n/a	n/a	n/a	n/a	n/a	n/a	n/a
