onset	duration	trial_type	trial_number	stroop_condition	stim_text(PL)	stim_text(eng)	stim_color(PL)	stim_color(eng)	response_type	response_color
0.0	n/a	RESPONSE	n/a	n/a	n/a	n/a	n/a	n/a	n/a	blue
0.0	n/a	RESPONSE	n/a	n/a	n/a	n/a	n/a	n/a	n/a	yellow
0.0001	n/a	RESPONSE	n/a	n/a	n/a	n/a	n/a	n/a	n/a	n/a
0.0001	n/a	RESPONSE	n/a	n/a	n/a	n/a	n/a	n/a	n/a	green
0.0001	n/a	RESPONSE	n/a	n/a	n/a	n/a	n/a	n/a	n/a	red
71.3693	n/a	RESPONSE	n/a	n/a	n/a	n/a	n/a	n/a	n/a	n/a
71.4336	1.0333	ITI	n/a	n/a	n/a	n/a	n/a	n/a	n/a	n/a
72.467	0.5167	FIXCROSS	n/a	n/a	n/a	n/a	n/a	n/a	n/a	n/a
72.9836	1.4667	T_INK	1	Neutral	xxxxxxx	xxxxxxx	czerwony	red	hit	n/a
74.4246	n/a	RESPONSE	n/a	n/a	n/a	n/a	n/a	n/a	n/a	red
74.4503	0.5167	FEEDBACK	n/a	n/a	n/a	n/a	n/a	n/a	n/a	n/a
74.967	1.0167	ITI	n/a	n/a	n/a	n/a	n/a	n/a	n/a	n/a
75.9837	0.5167	FIXCROSS	n/a	n/a	n/a	n/a	n/a	n/a	n/a	n/a
76.5003	1.1	T_INK	2	Incongruent	niebieski	blue	żółty	yellow	hit	n/a
77.5758	n/a	RESPONSE	n/a	n/a	n/a	n/a	n/a	n/a	n/a	yellow
77.6004	0.5167	FEEDBACK	n/a	n/a	n/a	n/a	n/a	n/a	n/a	n/a
78.117	1.0167	ITI	n/a	n/a	n/a	n/a	n/a	n/a	n/a	n/a
79.1337	0.5167	FIXCROSS	n/a	n/a	n/a	n/a	n/a	n/a	n/a	n/a
79.6504	1.6333	T_INK	3	Neutral	xxxxxxx	xxxxxxx	niebieski	blue	hit	n/a
81.2549	n/a	RESPONSE	n/a	n/a	n/a	n/a	n/a	n/a	n/a	blue
81.2837	0.5167	FEEDBACK	n/a	n/a	n/a	n/a	n/a	n/a	n/a	n/a
81.8004	1.0167	ITI	n/a	n/a	n/a	n/a	n/a	n/a	n/a	n/a
82.8171	0.5167	FIXCROSS	n/a	n/a	n/a	n/a	n/a	n/a	n/a	n/a
83.3337	0.8833	T_INK	4	Incongruent	żółty	yellow	niebieski	blue	hit	n/a
84.1822	n/a	RESPONSE	n/a	n/a	n/a	n/a	n/a	n/a	n/a	blue
84.2171	0.5167	FEEDBACK	n/a	n/a	n/a	n/a	n/a	n/a	n/a	n/a
84.7337	1.0167	ITI	n/a	n/a	n/a	n/a	n/a	n/a	n/a	n/a
85.7504	0.5167	FIXCROSS	n/a	n/a	n/a	n/a	n/a	n/a	n/a	n/a
86.2671	0.8167	T_INK	5	Neutral	xxxxxxxxx	xxxxxxxxx	żółty	yellow	hit	n/a
87.0614	n/a	RESPONSE	n/a	n/a	n/a	n/a	n/a	n/a	n/a	yellow
87.0838	0.5167	FEEDBACK	n/a	n/a	n/a	n/a	n/a	n/a	n/a	n/a
87.6004	1.0167	ITI	n/a	n/a	n/a	n/a	n/a	n/a	n/a	n/a
88.6171	0.5167	FIXCROSS	n/a	n/a	n/a	n/a	n/a	n/a	n/a	n/a
89.1338	1.0167	T_INK	6	Incongruent	zielony	green	czerwony	red	hit	n/a
90.1167	n/a	RESPONSE	n/a	n/a	n/a	n/a	n/a	n/a	n/a	red
90.1505	0.5167	FEEDBACK	n/a	n/a	n/a	n/a	n/a	n/a	n/a	n/a
90.6671	1.0167	ITI	n/a	n/a	n/a	n/a	n/a	n/a	n/a	n/a
91.6838	0.5167	FIXCROSS	n/a	n/a	n/a	n/a	n/a	n/a	n/a	n/a
92.2005	0.7667	T_INK	7	Incongruent	niebieski	blue	czerwony	red	hit	n/a
92.9321	n/a	RESPONSE	n/a	n/a	n/a	n/a	n/a	n/a	n/a	red
92.9672	0.5167	FEEDBACK	n/a	n/a	n/a	n/a	n/a	n/a	n/a	n/a
93.4838	1.0167	ITI	n/a	n/a	n/a	n/a	n/a	n/a	n/a	n/a
94.5005	0.5167	FIXCROSS	n/a	n/a	n/a	n/a	n/a	n/a	n/a	n/a
95.0172	0.9667	T_INK	8	Incongruent	żółty	yellow	zielony	green	hit	n/a
95.9552	n/a	RESPONSE	n/a	n/a	n/a	n/a	n/a	n/a	n/a	green
95.9838	0.5167	FEEDBACK	n/a	n/a	n/a	n/a	n/a	n/a	n/a	n/a
96.5005	1.0167	ITI	n/a	n/a	n/a	n/a	n/a	n/a	n/a	n/a
97.5172	0.5167	FIXCROSS	n/a	n/a	n/a	n/a	n/a	n/a	n/a	n/a
98.0339	0.7833	T_INK	9	Incongruent	niebieski	blue	zielony	green	hit	n/a
98.7866	n/a	RESPONSE	n/a	n/a	n/a	n/a	n/a	n/a	n/a	green
98.8172	0.5167	FEEDBACK	n/a	n/a	n/a	n/a	n/a	n/a	n/a	n/a
99.3339	1.0167	ITI	n/a	n/a	n/a	n/a	n/a	n/a	n/a	n/a
100.3506	0.5167	FIXCROSS	n/a	n/a	n/a	n/a	n/a	n/a	n/a	n/a
100.8672	0.6333	T_INK	10	Neutral	xxxxxxx	xxxxxxx	żółty	yellow	hit	n/a
101.4739	n/a	RESPONSE	n/a	n/a	n/a	n/a	n/a	n/a	n/a	yellow
101.5006	0.5167	FEEDBACK	n/a	n/a	n/a	n/a	n/a	n/a	n/a	n/a
102.0172	1.0167	ITI	n/a	n/a	n/a	n/a	n/a	n/a	n/a	n/a
103.0339	0.5167	FIXCROSS	n/a	n/a	n/a	n/a	n/a	n/a	n/a	n/a
103.5506	0.6333	T_INK	11	Incongruent	czerwony	red	zielony	green	hit	n/a
104.1613	n/a	RESPONSE	n/a	n/a	n/a	n/a	n/a	n/a	n/a	green
104.1839	0.5167	FEEDBACK	n/a	n/a	n/a	n/a	n/a	n/a	n/a	n/a
104.7006	1.0167	ITI	n/a	n/a	n/a	n/a	n/a	n/a	n/a	n/a
105.7173	0.5167	FIXCROSS	n/a	n/a	n/a	n/a	n/a	n/a	n/a	n/a
106.2339	0.7	T_INK	12	Incongruent	czerwony	red	żółty	yellow	hit	n/a
106.9126	n/a	RESPONSE	n/a	n/a	n/a	n/a	n/a	n/a	n/a	yellow
106.9339	0.5167	FEEDBACK	n/a	n/a	n/a	n/a	n/a	n/a	n/a	n/a
107.4506	1.0333	ITI	n/a	n/a	n/a	n/a	n/a	n/a	n/a	n/a
123.4205	n/a	RESPONSE	n/a	n/a	n/a	n/a	n/a	n/a	n/a	n/a
123.4841	1.0167	ITI	n/a	n/a	n/a	n/a	n/a	n/a	n/a	n/a
124.5008	0.5167	FIXCROSS	n/a	n/a	n/a	n/a	n/a	n/a	n/a	n/a
125.0174	1.0833	INK	1	Neutral	xxxxxxxxx	xxxxxxxxx	czerwony	red	hit	n/a
126.0759	n/a	RESPONSE	n/a	n/a	n/a	n/a	n/a	n/a	n/a	red
126.1008	1.0167	ITI	n/a	n/a	n/a	n/a	n/a	n/a	n/a	n/a
127.1174	0.5167	FIXCROSS	n/a	n/a	n/a	n/a	n/a	n/a	n/a	n/a
127.6341	0.9167	INK	2	Incongruent	zielony	green	niebieski	blue	hit	n/a
128.5233	n/a	RESPONSE	n/a	n/a	n/a	n/a	n/a	n/a	n/a	blue
128.5508	1.0167	ITI	n/a	n/a	n/a	n/a	n/a	n/a	n/a	n/a
129.5675	0.5167	FIXCROSS	n/a	n/a	n/a	n/a	n/a	n/a	n/a	n/a
130.0841	0.65	INK	3	Neutral	xxxxxxx	xxxxxxx	niebieski	blue	hit	n/a
130.7147	n/a	RESPONSE	n/a	n/a	n/a	n/a	n/a	n/a	n/a	blue
130.7341	1.0167	ITI	n/a	n/a	n/a	n/a	n/a	n/a	n/a	n/a
131.7508	0.5167	FIXCROSS	n/a	n/a	n/a	n/a	n/a	n/a	n/a	n/a
132.2675	0.7167	INK	4	Incongruent	niebieski	blue	zielony	green	hit	n/a
132.9541	n/a	RESPONSE	n/a	n/a	n/a	n/a	n/a	n/a	n/a	green
132.9842	1.0167	ITI	n/a	n/a	n/a	n/a	n/a	n/a	n/a	n/a
134.0008	0.5167	FIXCROSS	n/a	n/a	n/a	n/a	n/a	n/a	n/a	n/a
134.5175	0.6167	INK	5	Neutral	xxxxxxx	xxxxxxx	żółty	yellow	hit	n/a
135.1136	n/a	RESPONSE	n/a	n/a	n/a	n/a	n/a	n/a	n/a	yellow
135.1342	1.0167	ITI	n/a	n/a	n/a	n/a	n/a	n/a	n/a	n/a
136.1508	0.5167	FIXCROSS	n/a	n/a	n/a	n/a	n/a	n/a	n/a	n/a
136.6675	0.8667	INK	6	Incongruent	niebieski	blue	czerwony	red	incorrect	n/a
137.513	n/a	RESPONSE	n/a	n/a	n/a	n/a	n/a	n/a	n/a	blue
137.5342	1.0167	ITI	n/a	n/a	n/a	n/a	n/a	n/a	n/a	n/a
138.5509	0.5167	FIXCROSS	n/a	n/a	n/a	n/a	n/a	n/a	n/a	n/a
139.0675	0.9833	INK	7	Incongruent	żółty	yellow	niebieski	blue	hit	n/a
140.0244	n/a	RESPONSE	n/a	n/a	n/a	n/a	n/a	n/a	n/a	blue
140.0509	1.0167	ITI	n/a	n/a	n/a	n/a	n/a	n/a	n/a	n/a
141.0676	0.5167	FIXCROSS	n/a	n/a	n/a	n/a	n/a	n/a	n/a	n/a
141.5842	0.55	INK	8	Neutral	xxxxx	xxxxx	niebieski	blue	hit	n/a
142.1039	n/a	RESPONSE	n/a	n/a	n/a	n/a	n/a	n/a	n/a	blue
142.1342	1.0167	ITI	n/a	n/a	n/a	n/a	n/a	n/a	n/a	n/a
143.1509	0.5167	FIXCROSS	n/a	n/a	n/a	n/a	n/a	n/a	n/a	n/a
143.6676	0.75	INK	9	Neutral	xxxxxxxx	xxxxxxxx	zielony	green	hit	n/a
144.3913	n/a	RESPONSE	n/a	n/a	n/a	n/a	n/a	n/a	n/a	green
144.4176	1.0167	ITI	n/a	n/a	n/a	n/a	n/a	n/a	n/a	n/a
145.4343	0.5167	FIXCROSS	n/a	n/a	n/a	n/a	n/a	n/a	n/a	n/a
145.9509	0.8	INK	10	Incongruent	zielony	green	czerwony	red	hit	n/a
146.7268	n/a	RESPONSE	n/a	n/a	n/a	n/a	n/a	n/a	n/a	red
146.7509	1.0167	ITI	n/a	n/a	n/a	n/a	n/a	n/a	n/a	n/a
147.7676	0.5167	FIXCROSS	n/a	n/a	n/a	n/a	n/a	n/a	n/a	n/a
148.2843	0.8167	INK	11	Neutral	xxxxxxxx	xxxxxxxx	zielony	green	hit	n/a
149.0782	n/a	RESPONSE	n/a	n/a	n/a	n/a	n/a	n/a	n/a	green
149.101	1.0167	ITI	n/a	n/a	n/a	n/a	n/a	n/a	n/a	n/a
150.1176	0.5167	FIXCROSS	n/a	n/a	n/a	n/a	n/a	n/a	n/a	n/a
150.6343	0.6167	INK	12	Neutral	xxxxxxxxx	xxxxxxxxx	żółty	yellow	hit	n/a
151.2217	n/a	RESPONSE	n/a	n/a	n/a	n/a	n/a	n/a	n/a	yellow
151.251	1.0167	ITI	n/a	n/a	n/a	n/a	n/a	n/a	n/a	n/a
152.2677	0.5167	FIXCROSS	n/a	n/a	n/a	n/a	n/a	n/a	n/a	n/a
152.7843	0.8167	INK	13	Neutral	xxxxxxxx	xxxxxxxx	niebieski	blue	incorrect	n/a
153.5731	n/a	RESPONSE	n/a	n/a	n/a	n/a	n/a	n/a	n/a	green
153.601	1.0167	ITI	n/a	n/a	n/a	n/a	n/a	n/a	n/a	n/a
154.2129	n/a	RESPONSE	n/a	n/a	n/a	n/a	n/a	n/a	n/a	blue
154.6177	0.5167	FIXCROSS	n/a	n/a	n/a	n/a	n/a	n/a	n/a	n/a
155.1343	1.0167	INK	14	Incongruent	zielony	green	żółty	yellow	hit	n/a
156.1324	n/a	RESPONSE	n/a	n/a	n/a	n/a	n/a	n/a	n/a	yellow
156.151	1.0167	ITI	n/a	n/a	n/a	n/a	n/a	n/a	n/a	n/a
157.1677	0.5167	FIXCROSS	n/a	n/a	n/a	n/a	n/a	n/a	n/a	n/a
157.6844	0.5833	INK	15	Incongruent	zielony	green	żółty	yellow	hit	n/a
158.2439	n/a	RESPONSE	n/a	n/a	n/a	n/a	n/a	n/a	n/a	yellow
158.2677	1.0167	ITI	n/a	n/a	n/a	n/a	n/a	n/a	n/a	n/a
159.2844	0.5167	FIXCROSS	n/a	n/a	n/a	n/a	n/a	n/a	n/a	n/a
159.801	1.1833	INK	16	Incongruent	zielony	green	niebieski	blue	incorrect	n/a
160.9633	n/a	RESPONSE	n/a	n/a	n/a	n/a	n/a	n/a	n/a	green
160.9844	1.0167	ITI	n/a	n/a	n/a	n/a	n/a	n/a	n/a	n/a
162.0011	0.5167	FIXCROSS	n/a	n/a	n/a	n/a	n/a	n/a	n/a	n/a
162.5177	0.6667	INK	17	Neutral	xxxxx	xxxxx	zielony	green	hit	n/a
163.1547	n/a	RESPONSE	n/a	n/a	n/a	n/a	n/a	n/a	n/a	green
163.1844	1.0167	ITI	n/a	n/a	n/a	n/a	n/a	n/a	n/a	n/a
164.2011	0.5167	FIXCROSS	n/a	n/a	n/a	n/a	n/a	n/a	n/a	n/a
164.7178	0.5667	INK	18	Incongruent	żółty	yellow	zielony	green	hit	n/a
165.2662	n/a	RESPONSE	n/a	n/a	n/a	n/a	n/a	n/a	n/a	green
165.2844	1.0167	ITI	n/a	n/a	n/a	n/a	n/a	n/a	n/a	n/a
166.3011	0.5167	FIXCROSS	n/a	n/a	n/a	n/a	n/a	n/a	n/a	n/a
166.8178	0.9	INK	19	Neutral	xxxxxxx	xxxxxxx	czerwony	red	hit	n/a
167.6977	n/a	RESPONSE	n/a	n/a	n/a	n/a	n/a	n/a	n/a	red
167.7178	1.0167	ITI	n/a	n/a	n/a	n/a	n/a	n/a	n/a	n/a
168.7345	0.5167	FIXCROSS	n/a	n/a	n/a	n/a	n/a	n/a	n/a	n/a
169.2511	0.65	INK	20	Neutral	xxxxxxx	xxxxxxx	żółty	yellow	hit	n/a
169.8731	n/a	RESPONSE	n/a	n/a	n/a	n/a	n/a	n/a	n/a	yellow
169.9011	1.0167	ITI	n/a	n/a	n/a	n/a	n/a	n/a	n/a	n/a
170.9178	0.5167	FIXCROSS	n/a	n/a	n/a	n/a	n/a	n/a	n/a	n/a
171.4345	0.75	INK	21	Incongruent	czerwony	red	zielony	green	hit	n/a
172.1605	n/a	RESPONSE	n/a	n/a	n/a	n/a	n/a	n/a	n/a	green
172.1845	1.0167	ITI	n/a	n/a	n/a	n/a	n/a	n/a	n/a	n/a
173.2012	0.5167	FIXCROSS	n/a	n/a	n/a	n/a	n/a	n/a	n/a	n/a
173.7178	0.8	INK	22	Neutral	xxxxxxx	xxxxxxx	niebieski	blue	hit	n/a
174.4959	n/a	RESPONSE	n/a	n/a	n/a	n/a	n/a	n/a	n/a	blue
174.5178	1.0167	ITI	n/a	n/a	n/a	n/a	n/a	n/a	n/a	n/a
175.5345	0.5167	FIXCROSS	n/a	n/a	n/a	n/a	n/a	n/a	n/a	n/a
176.0512	0.55	INK	23	Neutral	xxxxxxx	xxxxxxx	żółty	yellow	hit	n/a
176.5754	n/a	RESPONSE	n/a	n/a	n/a	n/a	n/a	n/a	n/a	yellow
176.6012	1.0167	ITI	n/a	n/a	n/a	n/a	n/a	n/a	n/a	n/a
177.6179	0.5167	FIXCROSS	n/a	n/a	n/a	n/a	n/a	n/a	n/a	n/a
178.1345	0.65	INK	24	Incongruent	żółty	yellow	czerwony	red	hit	n/a
178.7509	n/a	RESPONSE	n/a	n/a	n/a	n/a	n/a	n/a	n/a	red
178.7845	1.0167	ITI	n/a	n/a	n/a	n/a	n/a	n/a	n/a	n/a
179.8012	0.5167	FIXCROSS	n/a	n/a	n/a	n/a	n/a	n/a	n/a	n/a
180.3179	0.5667	INK	25	Neutral	xxxxxxxxx	xxxxxxxxx	żółty	yellow	hit	n/a
180.8623	n/a	RESPONSE	n/a	n/a	n/a	n/a	n/a	n/a	n/a	yellow
180.8846	1.0167	ITI	n/a	n/a	n/a	n/a	n/a	n/a	n/a	n/a
181.9012	0.5167	FIXCROSS	n/a	n/a	n/a	n/a	n/a	n/a	n/a	n/a
182.4179	0.5833	INK	26	Neutral	xxxxxxxxx	xxxxxxxxx	żółty	yellow	hit	n/a
182.9738	n/a	RESPONSE	n/a	n/a	n/a	n/a	n/a	n/a	n/a	yellow
183.0012	1.0167	ITI	n/a	n/a	n/a	n/a	n/a	n/a	n/a	n/a
184.0179	0.5167	FIXCROSS	n/a	n/a	n/a	n/a	n/a	n/a	n/a	n/a
184.5346	0.6167	INK	27	Neutral	xxxxx	xxxxx	czerwony	red	hit	n/a
185.1332	n/a	RESPONSE	n/a	n/a	n/a	n/a	n/a	n/a	n/a	red
185.1513	1.0167	ITI	n/a	n/a	n/a	n/a	n/a	n/a	n/a	n/a
186.1679	0.5167	FIXCROSS	n/a	n/a	n/a	n/a	n/a	n/a	n/a	n/a
186.6846	1.0834	INK	28	Incongruent	czerwony	red	niebieski	blue	hit	n/a
187.7405	n/a	RESPONSE	n/a	n/a	n/a	n/a	n/a	n/a	n/a	blue
187.768	1.0167	ITI	n/a	n/a	n/a	n/a	n/a	n/a	n/a	n/a
188.7846	0.5167	FIXCROSS	n/a	n/a	n/a	n/a	n/a	n/a	n/a	n/a
189.3013	0.5667	INK	29	Incongruent	żółty	yellow	zielony	green	hit	n/a
189.836	n/a	RESPONSE	n/a	n/a	n/a	n/a	n/a	n/a	n/a	green
189.868	1.0167	ITI	n/a	n/a	n/a	n/a	n/a	n/a	n/a	n/a
190.8846	0.5167	FIXCROSS	n/a	n/a	n/a	n/a	n/a	n/a	n/a	n/a
191.4013	0.6167	INK	30	Incongruent	żółty	yellow	czerwony	red	hit	n/a
191.9954	n/a	RESPONSE	n/a	n/a	n/a	n/a	n/a	n/a	n/a	red
192.018	1.0167	ITI	n/a	n/a	n/a	n/a	n/a	n/a	n/a	n/a
193.0347	0.5167	FIXCROSS	n/a	n/a	n/a	n/a	n/a	n/a	n/a	n/a
193.5513	0.4667	INK	31	Incongruent	zielony	green	żółty	yellow	hit	n/a
193.9949	n/a	RESPONSE	n/a	n/a	n/a	n/a	n/a	n/a	n/a	yellow
194.018	1.0167	ITI	n/a	n/a	n/a	n/a	n/a	n/a	n/a	n/a
195.0347	0.5167	FIXCROSS	n/a	n/a	n/a	n/a	n/a	n/a	n/a	n/a
195.5513	0.6333	INK	32	Incongruent	niebieski	blue	żółty	yellow	hit	n/a
196.1543	n/a	RESPONSE	n/a	n/a	n/a	n/a	n/a	n/a	n/a	yellow
196.1847	1.0167	ITI	n/a	n/a	n/a	n/a	n/a	n/a	n/a	n/a
197.2014	0.5167	FIXCROSS	n/a	n/a	n/a	n/a	n/a	n/a	n/a	n/a
197.718	0.5167	INK	33	Neutral	xxxxxxxx	xxxxxxxx	żółty	yellow	hit	n/a
198.2018	n/a	RESPONSE	n/a	n/a	n/a	n/a	n/a	n/a	n/a	yellow
198.2347	1.0167	ITI	n/a	n/a	n/a	n/a	n/a	n/a	n/a	n/a
199.2514	0.5167	FIXCROSS	n/a	n/a	n/a	n/a	n/a	n/a	n/a	n/a
199.7681	0.7167	INK	34	Incongruent	niebieski	blue	zielony	green	hit	n/a
200.4572	n/a	RESPONSE	n/a	n/a	n/a	n/a	n/a	n/a	n/a	green
200.4847	1.0167	ITI	n/a	n/a	n/a	n/a	n/a	n/a	n/a	n/a
201.5014	0.5167	FIXCROSS	n/a	n/a	n/a	n/a	n/a	n/a	n/a	n/a
202.0181	0.65	INK	35	Neutral	xxxxxxxx	xxxxxxxx	niebieski	blue	hit	n/a
202.6487	n/a	RESPONSE	n/a	n/a	n/a	n/a	n/a	n/a	n/a	blue
202.6681	1.0167	ITI	n/a	n/a	n/a	n/a	n/a	n/a	n/a	n/a
203.6847	0.5167	FIXCROSS	n/a	n/a	n/a	n/a	n/a	n/a	n/a	n/a
204.2014	0.6333	INK	36	Incongruent	zielony	green	czerwony	red	hit	n/a
204.8081	n/a	RESPONSE	n/a	n/a	n/a	n/a	n/a	n/a	n/a	red
204.8348	1.0167	ITI	n/a	n/a	n/a	n/a	n/a	n/a	n/a	n/a
205.8514	0.5167	FIXCROSS	n/a	n/a	n/a	n/a	n/a	n/a	n/a	n/a
206.3681	0.45	INK	37	Incongruent	zielony	green	czerwony	red	hit	n/a
206.7916	n/a	RESPONSE	n/a	n/a	n/a	n/a	n/a	n/a	n/a	red
206.8181	1.0167	ITI	n/a	n/a	n/a	n/a	n/a	n/a	n/a	n/a
207.8348	0.5167	FIXCROSS	n/a	n/a	n/a	n/a	n/a	n/a	n/a	n/a
208.3515	0.5167	INK	38	Neutral	xxxxxxx	xxxxxxx	czerwony	red	hit	n/a
208.839	n/a	RESPONSE	n/a	n/a	n/a	n/a	n/a	n/a	n/a	red
208.8681	1.0167	ITI	n/a	n/a	n/a	n/a	n/a	n/a	n/a	n/a
209.8848	0.5167	FIXCROSS	n/a	n/a	n/a	n/a	n/a	n/a	n/a	n/a
210.4015	0.7833	INK	39	Incongruent	niebieski	blue	żółty	yellow	hit	n/a
211.1584	n/a	RESPONSE	n/a	n/a	n/a	n/a	n/a	n/a	n/a	yellow
211.1848	1.0167	ITI	n/a	n/a	n/a	n/a	n/a	n/a	n/a	n/a
212.2015	0.5167	FIXCROSS	n/a	n/a	n/a	n/a	n/a	n/a	n/a	n/a
212.7182	0.3667	INK	40	Neutral	xxxxxxxx	xxxxxxxx	żółty	yellow	hit	n/a
213.0619	n/a	RESPONSE	n/a	n/a	n/a	n/a	n/a	n/a	n/a	yellow
213.0848	1.0167	ITI	n/a	n/a	n/a	n/a	n/a	n/a	n/a	n/a
214.1015	0.5167	FIXCROSS	n/a	n/a	n/a	n/a	n/a	n/a	n/a	n/a
214.6182	0.6333	INK	41	Neutral	xxxxx	xxxxx	zielony	green	hit	n/a
215.2214	n/a	RESPONSE	n/a	n/a	n/a	n/a	n/a	n/a	n/a	green
215.2515	1.0167	ITI	n/a	n/a	n/a	n/a	n/a	n/a	n/a	n/a
216.2682	0.5167	FIXCROSS	n/a	n/a	n/a	n/a	n/a	n/a	n/a	n/a
216.7849	0.4167	INK	42	Neutral	xxxxxxxxx	xxxxxxxxx	zielony	green	hit	n/a
217.1729	n/a	RESPONSE	n/a	n/a	n/a	n/a	n/a	n/a	n/a	green
217.2015	1.0167	ITI	n/a	n/a	n/a	n/a	n/a	n/a	n/a	n/a
218.2182	0.5167	FIXCROSS	n/a	n/a	n/a	n/a	n/a	n/a	n/a	n/a
218.7349	0.4333	INK	43	Incongruent	czerwony	red	zielony	green	hit	n/a
219.1404	n/a	RESPONSE	n/a	n/a	n/a	n/a	n/a	n/a	n/a	green
219.1682	1.0167	ITI	n/a	n/a	n/a	n/a	n/a	n/a	n/a	n/a
220.1849	0.5167	FIXCROSS	n/a	n/a	n/a	n/a	n/a	n/a	n/a	n/a
220.7016	0.75	INK	44	Neutral	xxxxxxxxx	xxxxxxxxx	czerwony	red	hit	n/a
221.4278	n/a	RESPONSE	n/a	n/a	n/a	n/a	n/a	n/a	n/a	red
221.4516	1.0167	ITI	n/a	n/a	n/a	n/a	n/a	n/a	n/a	n/a
222.4682	0.5167	FIXCROSS	n/a	n/a	n/a	n/a	n/a	n/a	n/a	n/a
222.9849	0.5833	INK	45	Neutral	xxxxxxxx	xxxxxxxx	żółty	yellow	hit	n/a
223.5392	n/a	RESPONSE	n/a	n/a	n/a	n/a	n/a	n/a	n/a	yellow
223.5682	1.0167	ITI	n/a	n/a	n/a	n/a	n/a	n/a	n/a	n/a
224.5849	0.5167	FIXCROSS	n/a	n/a	n/a	n/a	n/a	n/a	n/a	n/a
225.1016	0.6167	INK	46	Incongruent	żółty	yellow	zielony	green	hit	n/a
225.6986	n/a	RESPONSE	n/a	n/a	n/a	n/a	n/a	n/a	n/a	green
225.7183	1.0167	ITI	n/a	n/a	n/a	n/a	n/a	n/a	n/a	n/a
226.7349	0.5167	FIXCROSS	n/a	n/a	n/a	n/a	n/a	n/a	n/a	n/a
227.2516	0.5833	INK	47	Incongruent	niebieski	blue	czerwony	red	hit	n/a
227.8101	n/a	RESPONSE	n/a	n/a	n/a	n/a	n/a	n/a	n/a	red
227.835	1.0167	ITI	n/a	n/a	n/a	n/a	n/a	n/a	n/a	n/a
228.8516	0.5167	FIXCROSS	n/a	n/a	n/a	n/a	n/a	n/a	n/a	n/a
229.3683	0.6833	INK	48	Neutral	xxxxx	xxxxx	niebieski	blue	hit	n/a
230.0335	n/a	RESPONSE	n/a	n/a	n/a	n/a	n/a	n/a	n/a	blue
230.0516	1.0167	ITI	n/a	n/a	n/a	n/a	n/a	n/a	n/a	n/a
231.0683	0.5167	FIXCROSS	n/a	n/a	n/a	n/a	n/a	n/a	n/a	n/a
231.585	0.5667	INK	49	Incongruent	żółty	yellow	czerwony	red	hit	n/a
232.129	n/a	RESPONSE	n/a	n/a	n/a	n/a	n/a	n/a	n/a	red
232.1517	1.0167	ITI	n/a	n/a	n/a	n/a	n/a	n/a	n/a	n/a
233.1683	0.5167	FIXCROSS	n/a	n/a	n/a	n/a	n/a	n/a	n/a	n/a
233.685	1.1667	INK	50	Incongruent	żółty	yellow	niebieski	blue	incorrect	n/a
234.8323	n/a	RESPONSE	n/a	n/a	n/a	n/a	n/a	n/a	n/a	green
234.8517	1.0167	ITI	n/a	n/a	n/a	n/a	n/a	n/a	n/a	n/a
235.1042	n/a	RESPONSE	n/a	n/a	n/a	n/a	n/a	n/a	n/a	blue
235.8683	0.5167	FIXCROSS	n/a	n/a	n/a	n/a	n/a	n/a	n/a	n/a
236.385	0.7667	INK	51	Neutral	xxxxxxxx	xxxxxxxx	zielony	green	hit	n/a
237.1197	n/a	RESPONSE	n/a	n/a	n/a	n/a	n/a	n/a	n/a	green
237.1517	1.0167	ITI	n/a	n/a	n/a	n/a	n/a	n/a	n/a	n/a
238.1684	0.5167	FIXCROSS	n/a	n/a	n/a	n/a	n/a	n/a	n/a	n/a
238.685	0.5833	INK	52	Neutral	xxxxxxxxx	xxxxxxxxx	czerwony	red	hit	n/a
239.2471	n/a	RESPONSE	n/a	n/a	n/a	n/a	n/a	n/a	n/a	red
239.2684	1.0167	ITI	n/a	n/a	n/a	n/a	n/a	n/a	n/a	n/a
240.2851	0.5167	FIXCROSS	n/a	n/a	n/a	n/a	n/a	n/a	n/a	n/a
240.8017	0.65	INK	53	Neutral	xxxxxxxxx	xxxxxxxxx	zielony	green	hit	n/a
241.4225	n/a	RESPONSE	n/a	n/a	n/a	n/a	n/a	n/a	n/a	green
241.4517	1.0167	ITI	n/a	n/a	n/a	n/a	n/a	n/a	n/a	n/a
242.4684	0.5167	FIXCROSS	n/a	n/a	n/a	n/a	n/a	n/a	n/a	n/a
242.9851	0.5833	INK	54	Neutral	xxxxx	xxxxx	czerwony	red	hit	n/a
243.5499	n/a	RESPONSE	n/a	n/a	n/a	n/a	n/a	n/a	n/a	red
243.5684	1.0167	ITI	n/a	n/a	n/a	n/a	n/a	n/a	n/a	n/a
244.5851	0.5167	FIXCROSS	n/a	n/a	n/a	n/a	n/a	n/a	n/a	n/a
245.1018	0.8271	INK	55	Incongruent	żółty	yellow	niebieski	blue	hit	n/a
245.9013	n/a	RESPONSE	n/a	n/a	n/a	n/a	n/a	n/a	n/a	blue
245.9288	1.0229	ITI	n/a	n/a	n/a	n/a	n/a	n/a	n/a	n/a
246.9518	0.5167	FIXCROSS	n/a	n/a	n/a	n/a	n/a	n/a	n/a	n/a
247.4684	0.8334	INK	56	Incongruent	czerwony	red	zielony	green	hit	n/a
248.2687	n/a	RESPONSE	n/a	n/a	n/a	n/a	n/a	n/a	n/a	green
248.3018	1.0167	ITI	n/a	n/a	n/a	n/a	n/a	n/a	n/a	n/a
249.3185	0.5167	FIXCROSS	n/a	n/a	n/a	n/a	n/a	n/a	n/a	n/a
249.8351	0.7667	INK	57	Incongruent	czerwony	red	niebieski	blue	incorrect	n/a
250.5721	n/a	RESPONSE	n/a	n/a	n/a	n/a	n/a	n/a	n/a	red
250.6018	1.0167	ITI	n/a	n/a	n/a	n/a	n/a	n/a	n/a	n/a
251.6185	0.5167	FIXCROSS	n/a	n/a	n/a	n/a	n/a	n/a	n/a	n/a
252.1352	0.75	INK	58	Neutral	xxxxx	xxxxx	niebieski	blue	hit	n/a
252.8595	n/a	RESPONSE	n/a	n/a	n/a	n/a	n/a	n/a	n/a	blue
252.8852	1.0167	ITI	n/a	n/a	n/a	n/a	n/a	n/a	n/a	n/a
253.9018	0.5167	FIXCROSS	n/a	n/a	n/a	n/a	n/a	n/a	n/a	n/a
254.4185	0.65	INK	59	Neutral	xxxxxxx	xxxxxxx	czerwony	red	hit	n/a
255.0349	n/a	RESPONSE	n/a	n/a	n/a	n/a	n/a	n/a	n/a	red
255.0685	1.0167	ITI	n/a	n/a	n/a	n/a	n/a	n/a	n/a	n/a
256.0852	0.5167	FIXCROSS	n/a	n/a	n/a	n/a	n/a	n/a	n/a	n/a
256.6019	0.55	INK	60	Neutral	xxxxx	xxxxx	zielony	green	hit	n/a
257.1304	n/a	RESPONSE	n/a	n/a	n/a	n/a	n/a	n/a	n/a	green
257.1519	1.0167	ITI	n/a	n/a	n/a	n/a	n/a	n/a	n/a	n/a
258.1685	0.5167	FIXCROSS	n/a	n/a	n/a	n/a	n/a	n/a	n/a	n/a
258.6852	0.5667	INK	61	Neutral	xxxxx	xxxxx	czerwony	red	hit	n/a
259.2259	n/a	RESPONSE	n/a	n/a	n/a	n/a	n/a	n/a	n/a	red
259.2519	1.0167	ITI	n/a	n/a	n/a	n/a	n/a	n/a	n/a	n/a
260.2686	0.5167	FIXCROSS	n/a	n/a	n/a	n/a	n/a	n/a	n/a	n/a
260.7852	0.8333	INK	62	Incongruent	niebieski	blue	zielony	green	hit	n/a
261.5932	n/a	RESPONSE	n/a	n/a	n/a	n/a	n/a	n/a	n/a	green
261.6186	1.0167	ITI	n/a	n/a	n/a	n/a	n/a	n/a	n/a	n/a
262.6352	0.5167	FIXCROSS	n/a	n/a	n/a	n/a	n/a	n/a	n/a	n/a
263.1519	1.0167	INK	63	Incongruent	zielony	green	niebieski	blue	hit	n/a
264.1366	n/a	RESPONSE	n/a	n/a	n/a	n/a	n/a	n/a	n/a	blue
264.1686	1.0167	ITI	n/a	n/a	n/a	n/a	n/a	n/a	n/a	n/a
265.1853	0.5167	FIXCROSS	n/a	n/a	n/a	n/a	n/a	n/a	n/a	n/a
265.7019	0.75	INK	64	Neutral	xxxxxxxxx	xxxxxxxxx	zielony	green	hit	n/a
266.424	n/a	RESPONSE	n/a	n/a	n/a	n/a	n/a	n/a	n/a	green
266.4519	1.0167	ITI	n/a	n/a	n/a	n/a	n/a	n/a	n/a	n/a
267.4686	0.5167	FIXCROSS	n/a	n/a	n/a	n/a	n/a	n/a	n/a	n/a
267.9853	0.9167	INK	65	Incongruent	czerwony	red	niebieski	blue	hit	n/a
268.8713	n/a	RESPONSE	n/a	n/a	n/a	n/a	n/a	n/a	n/a	blue
268.902	1.0167	ITI	n/a	n/a	n/a	n/a	n/a	n/a	n/a	n/a
269.9186	0.5167	FIXCROSS	n/a	n/a	n/a	n/a	n/a	n/a	n/a	n/a
270.4353	0.5833	INK	66	Incongruent	czerwony	red	żółty	yellow	hit	n/a
270.9988	n/a	RESPONSE	n/a	n/a	n/a	n/a	n/a	n/a	n/a	yellow
271.0186	1.0167	ITI	n/a	n/a	n/a	n/a	n/a	n/a	n/a	n/a
272.0353	0.5167	FIXCROSS	n/a	n/a	n/a	n/a	n/a	n/a	n/a	n/a
272.552	0.65	INK	67	Neutral	xxxxxxx	xxxxxxx	niebieski	blue	hit	n/a
273.1742	n/a	RESPONSE	n/a	n/a	n/a	n/a	n/a	n/a	n/a	blue
273.202	1.0167	ITI	n/a	n/a	n/a	n/a	n/a	n/a	n/a	n/a
274.2187	0.5167	FIXCROSS	n/a	n/a	n/a	n/a	n/a	n/a	n/a	n/a
274.7353	0.6	INK	68	Neutral	xxxxxxxx	xxxxxxxx	niebieski	blue	hit	n/a
275.3016	n/a	RESPONSE	n/a	n/a	n/a	n/a	n/a	n/a	n/a	blue
275.3354	1.0167	ITI	n/a	n/a	n/a	n/a	n/a	n/a	n/a	n/a
276.352	0.5167	FIXCROSS	n/a	n/a	n/a	n/a	n/a	n/a	n/a	n/a
276.8687	0.55	INK	69	Incongruent	czerwony	red	żółty	yellow	hit	n/a
277.3971	n/a	RESPONSE	n/a	n/a	n/a	n/a	n/a	n/a	n/a	yellow
277.4187	1.0167	ITI	n/a	n/a	n/a	n/a	n/a	n/a	n/a	n/a
278.4354	0.5167	FIXCROSS	n/a	n/a	n/a	n/a	n/a	n/a	n/a	n/a
278.952	0.5	INK	70	Incongruent	czerwony	red	żółty	yellow	hit	n/a
279.4285	n/a	RESPONSE	n/a	n/a	n/a	n/a	n/a	n/a	n/a	yellow
279.452	1.0167	ITI	n/a	n/a	n/a	n/a	n/a	n/a	n/a	n/a
280.4687	0.5167	FIXCROSS	n/a	n/a	n/a	n/a	n/a	n/a	n/a	n/a
280.9854	0.6167	INK	71	Incongruent	niebieski	blue	czerwony	red	hit	n/a
281.572	n/a	RESPONSE	n/a	n/a	n/a	n/a	n/a	n/a	n/a	red
281.6021	1.0167	ITI	n/a	n/a	n/a	n/a	n/a	n/a	n/a	n/a
282.6187	0.5167	FIXCROSS	n/a	n/a	n/a	n/a	n/a	n/a	n/a	n/a
283.1354	0.5667	INK	72	Incongruent	niebieski	blue	żółty	yellow	hit	n/a
283.6835	n/a	RESPONSE	n/a	n/a	n/a	n/a	n/a	n/a	n/a	yellow
283.7021	1.0833	ITI	n/a	n/a	n/a	n/a	n/a	n/a	n/a	n/a
316.4428	n/a	RESPONSE	n/a	n/a	n/a	n/a	n/a	n/a	n/a	n/a
316.5024	1.0167	ITI	n/a	n/a	n/a	n/a	n/a	n/a	n/a	n/a
317.519	0.5167	FIXCROSS	n/a	n/a	n/a	n/a	n/a	n/a	n/a	n/a
318.0357	1.6167	T_COLOR_NAME	1	Incongruent	niebieski	blue	żółty	yellow	hit	n/a
319.626	n/a	RESPONSE	n/a	n/a	n/a	n/a	n/a	n/a	n/a	blue
319.6524	0.5167	FEEDBACK	n/a	n/a	n/a	n/a	n/a	n/a	n/a	n/a
320.1691	1.0167	ITI	n/a	n/a	n/a	n/a	n/a	n/a	n/a	n/a
321.1857	0.5167	FIXCROSS	n/a	n/a	n/a	n/a	n/a	n/a	n/a	n/a
321.7024	0.7833	T_COLOR_NAME	2	Neutral	niebieski	blue	Neutral	Neutral	hit	n/a
322.4573	n/a	RESPONSE	n/a	n/a	n/a	n/a	n/a	n/a	n/a	blue
322.4857	0.5167	FEEDBACK	n/a	n/a	n/a	n/a	n/a	n/a	n/a	n/a
323.0024	1.0167	ITI	n/a	n/a	n/a	n/a	n/a	n/a	n/a	n/a
324.0191	0.5167	FIXCROSS	n/a	n/a	n/a	n/a	n/a	n/a	n/a	n/a
324.5357	0.7833	T_COLOR_NAME	3	Incongruent	żółty	yellow	niebieski	blue	hit	n/a
325.2885	n/a	RESPONSE	n/a	n/a	n/a	n/a	n/a	n/a	n/a	yellow
325.3191	0.5167	FEEDBACK	n/a	n/a	n/a	n/a	n/a	n/a	n/a	n/a
325.8358	1.0167	ITI	n/a	n/a	n/a	n/a	n/a	n/a	n/a	n/a
326.8524	0.5167	FIXCROSS	n/a	n/a	n/a	n/a	n/a	n/a	n/a	n/a
327.3691	0.9333	T_COLOR_NAME	4	Neutral	zielony	green	Neutral	Neutral	hit	n/a
328.2798	n/a	RESPONSE	n/a	n/a	n/a	n/a	n/a	n/a	n/a	green
328.3025	0.5167	FEEDBACK	n/a	n/a	n/a	n/a	n/a	n/a	n/a	n/a
328.8191	1.0167	ITI	n/a	n/a	n/a	n/a	n/a	n/a	n/a	n/a
329.8358	0.5167	FIXCROSS	n/a	n/a	n/a	n/a	n/a	n/a	n/a	n/a
330.3525	0.9333	T_COLOR_NAME	5	Incongruent	czerwony	red	żółty	yellow	incorrect	n/a
331.255	n/a	RESPONSE	n/a	n/a	n/a	n/a	n/a	n/a	n/a	yellow
331.2858	0.5167	FEEDBACK	n/a	n/a	n/a	n/a	n/a	n/a	n/a	n/a
331.8025	1.0167	ITI	n/a	n/a	n/a	n/a	n/a	n/a	n/a	n/a
332.8192	0.5167	FIXCROSS	n/a	n/a	n/a	n/a	n/a	n/a	n/a	n/a
333.3358	1.3333	T_COLOR_NAME	6	Incongruent	niebieski	blue	zielony	green	hit	n/a
334.6461	n/a	RESPONSE	n/a	n/a	n/a	n/a	n/a	n/a	n/a	blue
334.6692	0.5167	FEEDBACK	n/a	n/a	n/a	n/a	n/a	n/a	n/a	n/a
335.1858	1.0167	ITI	n/a	n/a	n/a	n/a	n/a	n/a	n/a	n/a
336.2025	0.5167	FIXCROSS	n/a	n/a	n/a	n/a	n/a	n/a	n/a	n/a
336.7192	0.8167	T_COLOR_NAME	7	Neutral	zielony	green	Neutral	Neutral	hit	n/a
337.5094	n/a	RESPONSE	n/a	n/a	n/a	n/a	n/a	n/a	n/a	green
337.5359	0.5167	FEEDBACK	n/a	n/a	n/a	n/a	n/a	n/a	n/a	n/a
338.0525	1.0167	ITI	n/a	n/a	n/a	n/a	n/a	n/a	n/a	n/a
339.0692	0.5167	FIXCROSS	n/a	n/a	n/a	n/a	n/a	n/a	n/a	n/a
339.5859	0.5333	T_COLOR_NAME	8	Neutral	zielony	green	Neutral	Neutral	hit	n/a
340.0847	n/a	RESPONSE	n/a	n/a	n/a	n/a	n/a	n/a	n/a	green
340.1192	0.5167	FEEDBACK	n/a	n/a	n/a	n/a	n/a	n/a	n/a	n/a
340.6359	1.0167	ITI	n/a	n/a	n/a	n/a	n/a	n/a	n/a	n/a
341.6526	0.5167	FIXCROSS	n/a	n/a	n/a	n/a	n/a	n/a	n/a	n/a
342.1692	0.6667	T_COLOR_NAME	9	Incongruent	zielony	green	czerwony	red	hit	n/a
342.804	n/a	RESPONSE	n/a	n/a	n/a	n/a	n/a	n/a	n/a	green
342.8359	0.5167	FEEDBACK	n/a	n/a	n/a	n/a	n/a	n/a	n/a	n/a
343.3526	1.0167	ITI	n/a	n/a	n/a	n/a	n/a	n/a	n/a	n/a
344.3693	0.5167	FIXCROSS	n/a	n/a	n/a	n/a	n/a	n/a	n/a	n/a
344.8859	0.85	T_COLOR_NAME	10	Incongruent	żółty	yellow	zielony	green	hit	n/a
345.7153	n/a	RESPONSE	n/a	n/a	n/a	n/a	n/a	n/a	n/a	yellow
345.7359	0.5167	FEEDBACK	n/a	n/a	n/a	n/a	n/a	n/a	n/a	n/a
346.2526	1.0167	ITI	n/a	n/a	n/a	n/a	n/a	n/a	n/a	n/a
347.2693	0.5167	FIXCROSS	n/a	n/a	n/a	n/a	n/a	n/a	n/a	n/a
347.786	0.9833	T_COLOR_NAME	11	Incongruent	niebieski	blue	czerwony	red	hit	n/a
348.7386	n/a	RESPONSE	n/a	n/a	n/a	n/a	n/a	n/a	n/a	blue
348.7693	0.5167	FEEDBACK	n/a	n/a	n/a	n/a	n/a	n/a	n/a	n/a
349.286	1.0167	ITI	n/a	n/a	n/a	n/a	n/a	n/a	n/a	n/a
350.3026	0.5167	FIXCROSS	n/a	n/a	n/a	n/a	n/a	n/a	n/a	n/a
350.8193	0.9	T_COLOR_NAME	12	Incongruent	czerwony	red	zielony	green	hit	n/a
351.6978	n/a	RESPONSE	n/a	n/a	n/a	n/a	n/a	n/a	n/a	red
351.7193	0.5167	FEEDBACK	n/a	n/a	n/a	n/a	n/a	n/a	n/a	n/a
352.236	1.0333	ITI	n/a	n/a	n/a	n/a	n/a	n/a	n/a	n/a
369.4535	n/a	RESPONSE	n/a	n/a	n/a	n/a	n/a	n/a	n/a	n/a
369.5195	1.0167	ITI	n/a	n/a	n/a	n/a	n/a	n/a	n/a	n/a
370.5361	0.5167	FIXCROSS	n/a	n/a	n/a	n/a	n/a	n/a	n/a	n/a
371.0528	0.8833	COLOR_NAME	1	Incongruent	czerwony	red	zielony	green	hit	n/a
371.9168	n/a	RESPONSE	n/a	n/a	n/a	n/a	n/a	n/a	n/a	red
371.9361	1.0167	ITI	n/a	n/a	n/a	n/a	n/a	n/a	n/a	n/a
372.9528	0.5167	FIXCROSS	n/a	n/a	n/a	n/a	n/a	n/a	n/a	n/a
373.4695	1.2667	COLOR_NAME	2	Incongruent	zielony	green	żółty	yellow	hit	n/a
374.7161	n/a	RESPONSE	n/a	n/a	n/a	n/a	n/a	n/a	n/a	green
374.7362	1.0167	ITI	n/a	n/a	n/a	n/a	n/a	n/a	n/a	n/a
375.7529	0.5167	FIXCROSS	n/a	n/a	n/a	n/a	n/a	n/a	n/a	n/a
376.2695	0.7167	COLOR_NAME	3	Incongruent	żółty	yellow	czerwony	red	hit	n/a
376.9556	n/a	RESPONSE	n/a	n/a	n/a	n/a	n/a	n/a	n/a	yellow
376.9862	1.0167	ITI	n/a	n/a	n/a	n/a	n/a	n/a	n/a	n/a
378.0029	0.5167	FIXCROSS	n/a	n/a	n/a	n/a	n/a	n/a	n/a	n/a
378.5195	0.5833	COLOR_NAME	4	Incongruent	żółty	yellow	niebieski	blue	hit	n/a
379.083	n/a	RESPONSE	n/a	n/a	n/a	n/a	n/a	n/a	n/a	yellow
379.1029	1.0167	ITI	n/a	n/a	n/a	n/a	n/a	n/a	n/a	n/a
380.1196	0.5167	FIXCROSS	n/a	n/a	n/a	n/a	n/a	n/a	n/a	n/a
380.6362	0.85	COLOR_NAME	5	Neutral	zielony	green	Neutral	Neutral	hit	n/a
381.4665	n/a	RESPONSE	n/a	n/a	n/a	n/a	n/a	n/a	n/a	green
381.4862	1.0167	ITI	n/a	n/a	n/a	n/a	n/a	n/a	n/a	n/a
382.5029	0.5167	FIXCROSS	n/a	n/a	n/a	n/a	n/a	n/a	n/a	n/a
383.0196	0.6167	COLOR_NAME	6	Incongruent	żółty	yellow	niebieski	blue	hit	n/a
383.61	n/a	RESPONSE	n/a	n/a	n/a	n/a	n/a	n/a	n/a	yellow
383.6362	1.0167	ITI	n/a	n/a	n/a	n/a	n/a	n/a	n/a	n/a
384.6529	0.5167	FIXCROSS	n/a	n/a	n/a	n/a	n/a	n/a	n/a	n/a
385.1696	0.5833	COLOR_NAME	7	Neutral	żółty	yellow	Neutral	Neutral	hit	n/a
385.7214	n/a	RESPONSE	n/a	n/a	n/a	n/a	n/a	n/a	n/a	yellow
385.7529	1.0167	ITI	n/a	n/a	n/a	n/a	n/a	n/a	n/a	n/a
386.7696	0.5167	FIXCROSS	n/a	n/a	n/a	n/a	n/a	n/a	n/a	n/a
387.2863	0.7833	COLOR_NAME	8	Neutral	niebieski	blue	Neutral	Neutral	hit	n/a
388.0409	n/a	RESPONSE	n/a	n/a	n/a	n/a	n/a	n/a	n/a	blue
388.0696	1.0167	ITI	n/a	n/a	n/a	n/a	n/a	n/a	n/a	n/a
389.0863	0.5167	FIXCROSS	n/a	n/a	n/a	n/a	n/a	n/a	n/a	n/a
389.603	0.6667	COLOR_NAME	9	Neutral	czerwony	red	Neutral	Neutral	hit	n/a
390.2483	n/a	RESPONSE	n/a	n/a	n/a	n/a	n/a	n/a	n/a	red
390.2696	1.0167	ITI	n/a	n/a	n/a	n/a	n/a	n/a	n/a	n/a
391.2863	0.5167	FIXCROSS	n/a	n/a	n/a	n/a	n/a	n/a	n/a	n/a
391.803	0.7167	COLOR_NAME	10	Incongruent	czerwony	red	zielony	green	hit	n/a
392.4877	n/a	RESPONSE	n/a	n/a	n/a	n/a	n/a	n/a	n/a	red
392.5197	1.0167	ITI	n/a	n/a	n/a	n/a	n/a	n/a	n/a	n/a
393.5363	0.5167	FIXCROSS	n/a	n/a	n/a	n/a	n/a	n/a	n/a	n/a
394.053	0.8	COLOR_NAME	11	Incongruent	zielony	green	czerwony	red	hit	n/a
394.8232	n/a	RESPONSE	n/a	n/a	n/a	n/a	n/a	n/a	n/a	green
394.853	1.0167	ITI	n/a	n/a	n/a	n/a	n/a	n/a	n/a	n/a
395.8697	0.5167	FIXCROSS	n/a	n/a	n/a	n/a	n/a	n/a	n/a	n/a
396.3864	1.4167	COLOR_NAME	12	Incongruent	niebieski	blue	żółty	yellow	hit	n/a
397.7824	n/a	RESPONSE	n/a	n/a	n/a	n/a	n/a	n/a	n/a	blue
397.803	1.0167	ITI	n/a	n/a	n/a	n/a	n/a	n/a	n/a	n/a
398.8197	0.5167	FIXCROSS	n/a	n/a	n/a	n/a	n/a	n/a	n/a	n/a
399.3364	0.8167	COLOR_NAME	13	Incongruent	żółty	yellow	czerwony	red	incorrect	n/a
400.1339	n/a	RESPONSE	n/a	n/a	n/a	n/a	n/a	n/a	n/a	red
400.153	1.0167	ITI	n/a	n/a	n/a	n/a	n/a	n/a	n/a	n/a
401.1697	0.5167	FIXCROSS	n/a	n/a	n/a	n/a	n/a	n/a	n/a	n/a
401.6864	0.85	COLOR_NAME	14	Neutral	niebieski	blue	Neutral	Neutral	hit	n/a
402.5173	n/a	RESPONSE	n/a	n/a	n/a	n/a	n/a	n/a	n/a	blue
402.5364	1.0167	ITI	n/a	n/a	n/a	n/a	n/a	n/a	n/a	n/a
403.5531	0.5167	FIXCROSS	n/a	n/a	n/a	n/a	n/a	n/a	n/a	n/a
404.0697	0.8	COLOR_NAME	15	Incongruent	czerwony	red	żółty	yellow	hit	n/a
404.8367	n/a	RESPONSE	n/a	n/a	n/a	n/a	n/a	n/a	n/a	red
404.8698	1.0167	ITI	n/a	n/a	n/a	n/a	n/a	n/a	n/a	n/a
405.8864	0.5167	FIXCROSS	n/a	n/a	n/a	n/a	n/a	n/a	n/a	n/a
406.4031	0.8667	COLOR_NAME	16	Incongruent	zielony	green	niebieski	blue	hit	n/a
407.2361	n/a	RESPONSE	n/a	n/a	n/a	n/a	n/a	n/a	n/a	green
407.2698	1.0167	ITI	n/a	n/a	n/a	n/a	n/a	n/a	n/a	n/a
408.2865	0.5167	FIXCROSS	n/a	n/a	n/a	n/a	n/a	n/a	n/a	n/a
408.8031	0.5167	COLOR_NAME	17	Neutral	zielony	green	Neutral	Neutral	hit	n/a
409.2996	n/a	RESPONSE	n/a	n/a	n/a	n/a	n/a	n/a	n/a	green
409.3198	1.0167	ITI	n/a	n/a	n/a	n/a	n/a	n/a	n/a	n/a
410.3365	0.5167	FIXCROSS	n/a	n/a	n/a	n/a	n/a	n/a	n/a	n/a
410.8531	0.45	COLOR_NAME	18	Neutral	zielony	green	Neutral	Neutral	hit	n/a
411.2831	n/a	RESPONSE	n/a	n/a	n/a	n/a	n/a	n/a	n/a	green
411.3031	1.0167	ITI	n/a	n/a	n/a	n/a	n/a	n/a	n/a	n/a
412.3198	0.5167	FIXCROSS	n/a	n/a	n/a	n/a	n/a	n/a	n/a	n/a
412.8365	0.7167	COLOR_NAME	19	Neutral	czerwony	red	Neutral	Neutral	hit	n/a
413.5225	n/a	RESPONSE	n/a	n/a	n/a	n/a	n/a	n/a	n/a	red
413.5532	1.0167	ITI	n/a	n/a	n/a	n/a	n/a	n/a	n/a	n/a
414.5698	0.5167	FIXCROSS	n/a	n/a	n/a	n/a	n/a	n/a	n/a	n/a
415.0865	0.6	COLOR_NAME	20	Incongruent	żółty	yellow	niebieski	blue	hit	n/a
415.666	n/a	RESPONSE	n/a	n/a	n/a	n/a	n/a	n/a	n/a	yellow
415.6865	1.0167	ITI	n/a	n/a	n/a	n/a	n/a	n/a	n/a	n/a
416.7032	0.5167	FIXCROSS	n/a	n/a	n/a	n/a	n/a	n/a	n/a	n/a
417.2199	0.5	COLOR_NAME	21	Neutral	żółty	yellow	Neutral	Neutral	hit	n/a
417.6975	n/a	RESPONSE	n/a	n/a	n/a	n/a	n/a	n/a	n/a	yellow
417.7199	1.0167	ITI	n/a	n/a	n/a	n/a	n/a	n/a	n/a	n/a
418.7365	0.5167	FIXCROSS	n/a	n/a	n/a	n/a	n/a	n/a	n/a	n/a
419.2532	0.8667	COLOR_NAME	22	Incongruent	niebieski	blue	czerwony	red	hit	n/a
420.0969	n/a	RESPONSE	n/a	n/a	n/a	n/a	n/a	n/a	n/a	blue
420.1199	1.0167	ITI	n/a	n/a	n/a	n/a	n/a	n/a	n/a	n/a
421.1366	0.5167	FIXCROSS	n/a	n/a	n/a	n/a	n/a	n/a	n/a	n/a
421.6532	0.55	COLOR_NAME	23	Neutral	niebieski	blue	Neutral	Neutral	hit	n/a
422.1764	n/a	RESPONSE	n/a	n/a	n/a	n/a	n/a	n/a	n/a	blue
422.2032	1.0167	ITI	n/a	n/a	n/a	n/a	n/a	n/a	n/a	n/a
423.2199	0.5167	FIXCROSS	n/a	n/a	n/a	n/a	n/a	n/a	n/a	n/a
423.7366	0.8833	COLOR_NAME	24	Incongruent	zielony	green	niebieski	blue	hit	n/a
424.5919	n/a	RESPONSE	n/a	n/a	n/a	n/a	n/a	n/a	n/a	green
424.6199	1.0167	ITI	n/a	n/a	n/a	n/a	n/a	n/a	n/a	n/a
425.6366	0.5167	FIXCROSS	n/a	n/a	n/a	n/a	n/a	n/a	n/a	n/a
426.1533	0.5167	COLOR_NAME	25	Neutral	zielony	green	Neutral	Neutral	hit	n/a
426.6393	n/a	RESPONSE	n/a	n/a	n/a	n/a	n/a	n/a	n/a	green
426.6699	1.0167	ITI	n/a	n/a	n/a	n/a	n/a	n/a	n/a	n/a
427.6866	0.5167	FIXCROSS	n/a	n/a	n/a	n/a	n/a	n/a	n/a	n/a
428.2033	0.65	COLOR_NAME	26	Neutral	żółty	yellow	Neutral	Neutral	hit	n/a
428.8308	n/a	RESPONSE	n/a	n/a	n/a	n/a	n/a	n/a	n/a	yellow
428.8533	1.0167	ITI	n/a	n/a	n/a	n/a	n/a	n/a	n/a	n/a
429.87	0.5167	FIXCROSS	n/a	n/a	n/a	n/a	n/a	n/a	n/a	n/a
430.3866	0.8667	COLOR_NAME	27	Incongruent	czerwony	red	zielony	green	hit	n/a
431.2302	n/a	RESPONSE	n/a	n/a	n/a	n/a	n/a	n/a	n/a	red
431.2533	1.0167	ITI	n/a	n/a	n/a	n/a	n/a	n/a	n/a	n/a
432.27	0.5167	FIXCROSS	n/a	n/a	n/a	n/a	n/a	n/a	n/a	n/a
432.7867	0.7667	COLOR_NAME	28	Neutral	żółty	yellow	Neutral	Neutral	hit	n/a
433.5336	n/a	RESPONSE	n/a	n/a	n/a	n/a	n/a	n/a	n/a	yellow
433.5533	1.0167	ITI	n/a	n/a	n/a	n/a	n/a	n/a	n/a	n/a
434.57	0.5167	FIXCROSS	n/a	n/a	n/a	n/a	n/a	n/a	n/a	n/a
435.0867	0.6833	COLOR_NAME	29	Incongruent	czerwony	red	żółty	yellow	hit	n/a
435.7411	n/a	RESPONSE	n/a	n/a	n/a	n/a	n/a	n/a	n/a	red
435.77	1.0167	ITI	n/a	n/a	n/a	n/a	n/a	n/a	n/a	n/a
436.7867	0.5167	FIXCROSS	n/a	n/a	n/a	n/a	n/a	n/a	n/a	n/a
437.3034	0.6	COLOR_NAME	30	Neutral	czerwony	red	Neutral	Neutral	hit	n/a
437.8686	n/a	RESPONSE	n/a	n/a	n/a	n/a	n/a	n/a	n/a	red
437.9034	1.0167	ITI	n/a	n/a	n/a	n/a	n/a	n/a	n/a	n/a
438.92	0.5167	FIXCROSS	n/a	n/a	n/a	n/a	n/a	n/a	n/a	n/a
439.4367	0.45	COLOR_NAME	31	Neutral	czerwony	red	Neutral	Neutral	hit	n/a
439.8681	n/a	RESPONSE	n/a	n/a	n/a	n/a	n/a	n/a	n/a	red
439.8867	1.0167	ITI	n/a	n/a	n/a	n/a	n/a	n/a	n/a	n/a
440.9034	0.5167	FIXCROSS	n/a	n/a	n/a	n/a	n/a	n/a	n/a	n/a
441.4201	0.6667	COLOR_NAME	32	Incongruent	czerwony	red	niebieski	blue	hit	n/a
442.0595	n/a	RESPONSE	n/a	n/a	n/a	n/a	n/a	n/a	n/a	red
442.0867	1.0167	ITI	n/a	n/a	n/a	n/a	n/a	n/a	n/a	n/a
443.1034	0.5167	FIXCROSS	n/a	n/a	n/a	n/a	n/a	n/a	n/a	n/a
443.6201	0.7167	COLOR_NAME	33	Neutral	zielony	green	Neutral	Neutral	hit	n/a
444.315	n/a	RESPONSE	n/a	n/a	n/a	n/a	n/a	n/a	n/a	green
444.3368	1.0167	ITI	n/a	n/a	n/a	n/a	n/a	n/a	n/a	n/a
445.3534	0.5167	FIXCROSS	n/a	n/a	n/a	n/a	n/a	n/a	n/a	n/a
445.8701	0.6833	COLOR_NAME	34	Incongruent	żółty	yellow	czerwony	red	hit	n/a
446.5224	n/a	RESPONSE	n/a	n/a	n/a	n/a	n/a	n/a	n/a	yellow
446.5534	1.0167	ITI	n/a	n/a	n/a	n/a	n/a	n/a	n/a	n/a
447.5701	0.5167	FIXCROSS	n/a	n/a	n/a	n/a	n/a	n/a	n/a	n/a
448.0868	0.5167	COLOR_NAME	35	Neutral	żółty	yellow	Neutral	Neutral	hit	n/a
448.5699	n/a	RESPONSE	n/a	n/a	n/a	n/a	n/a	n/a	n/a	yellow
448.6034	1.0167	ITI	n/a	n/a	n/a	n/a	n/a	n/a	n/a	n/a
449.6201	0.5167	FIXCROSS	n/a	n/a	n/a	n/a	n/a	n/a	n/a	n/a
450.1368	0.9333	COLOR_NAME	36	Neutral	niebieski	blue	Neutral	Neutral	hit	n/a
451.0493	n/a	RESPONSE	n/a	n/a	n/a	n/a	n/a	n/a	n/a	blue
451.0701	1.0167	ITI	n/a	n/a	n/a	n/a	n/a	n/a	n/a	n/a
452.0868	0.5167	FIXCROSS	n/a	n/a	n/a	n/a	n/a	n/a	n/a	n/a
452.6035	1.0667	COLOR_NAME	37	Neutral	czerwony	red	Neutral	Neutral	hit	n/a
453.6407	n/a	RESPONSE	n/a	n/a	n/a	n/a	n/a	n/a	n/a	red
453.6702	1.0167	ITI	n/a	n/a	n/a	n/a	n/a	n/a	n/a	n/a
454.6868	0.5167	FIXCROSS	n/a	n/a	n/a	n/a	n/a	n/a	n/a	n/a
455.2035	0.7167	COLOR_NAME	38	Neutral	niebieski	blue	Neutral	Neutral	hit	n/a
455.8961	n/a	RESPONSE	n/a	n/a	n/a	n/a	n/a	n/a	n/a	blue
455.9202	1.0167	ITI	n/a	n/a	n/a	n/a	n/a	n/a	n/a	n/a
456.9369	0.5167	FIXCROSS	n/a	n/a	n/a	n/a	n/a	n/a	n/a	n/a
457.4535	0.6833	COLOR_NAME	39	Neutral	niebieski	blue	Neutral	Neutral	hit	n/a
458.1035	n/a	RESPONSE	n/a	n/a	n/a	n/a	n/a	n/a	n/a	blue
458.1369	1.0167	ITI	n/a	n/a	n/a	n/a	n/a	n/a	n/a	n/a
459.1535	0.5167	FIXCROSS	n/a	n/a	n/a	n/a	n/a	n/a	n/a	n/a
459.6702	0.5	COLOR_NAME	40	Incongruent	czerwony	red	niebieski	blue	hit	n/a
460.1511	n/a	RESPONSE	n/a	n/a	n/a	n/a	n/a	n/a	n/a	red
460.1702	1.0167	ITI	n/a	n/a	n/a	n/a	n/a	n/a	n/a	n/a
461.1869	0.5167	FIXCROSS	n/a	n/a	n/a	n/a	n/a	n/a	n/a	n/a
461.7036	0.9833	COLOR_NAME	41	Incongruent	zielony	green	żółty	yellow	hit	n/a
462.6624	n/a	RESPONSE	n/a	n/a	n/a	n/a	n/a	n/a	n/a	green
462.6869	1.0167	ITI	n/a	n/a	n/a	n/a	n/a	n/a	n/a	n/a
463.7036	0.5167	FIXCROSS	n/a	n/a	n/a	n/a	n/a	n/a	n/a	n/a
464.2202	0.6833	COLOR_NAME	42	Neutral	niebieski	blue	Neutral	Neutral	hit	n/a
464.8699	n/a	RESPONSE	n/a	n/a	n/a	n/a	n/a	n/a	n/a	blue
464.9036	1.0167	ITI	n/a	n/a	n/a	n/a	n/a	n/a	n/a	n/a
465.9203	0.5167	FIXCROSS	n/a	n/a	n/a	n/a	n/a	n/a	n/a	n/a
466.4369	0.8	COLOR_NAME	43	Incongruent	zielony	green	czerwony	red	hit	n/a
467.2054	n/a	RESPONSE	n/a	n/a	n/a	n/a	n/a	n/a	n/a	green
467.2369	1.0167	ITI	n/a	n/a	n/a	n/a	n/a	n/a	n/a	n/a
468.2536	0.5167	FIXCROSS	n/a	n/a	n/a	n/a	n/a	n/a	n/a	n/a
468.7703	0.6167	COLOR_NAME	44	Neutral	czerwony	red	Neutral	Neutral	hit	n/a
469.3648	n/a	RESPONSE	n/a	n/a	n/a	n/a	n/a	n/a	n/a	red
469.387	1.0167	ITI	n/a	n/a	n/a	n/a	n/a	n/a	n/a	n/a
470.4036	0.5167	FIXCROSS	n/a	n/a	n/a	n/a	n/a	n/a	n/a	n/a
470.9203	0.6333	COLOR_NAME	45	Neutral	żółty	yellow	Neutral	Neutral	hit	n/a
471.5243	n/a	RESPONSE	n/a	n/a	n/a	n/a	n/a	n/a	n/a	yellow
471.5536	1.0167	ITI	n/a	n/a	n/a	n/a	n/a	n/a	n/a	n/a
472.5703	0.5167	FIXCROSS	n/a	n/a	n/a	n/a	n/a	n/a	n/a	n/a
473.087	0.65	COLOR_NAME	46	Incongruent	czerwony	red	niebieski	blue	hit	n/a
473.7157	n/a	RESPONSE	n/a	n/a	n/a	n/a	n/a	n/a	n/a	red
473.737	1.0167	ITI	n/a	n/a	n/a	n/a	n/a	n/a	n/a	n/a
474.7537	0.5167	FIXCROSS	n/a	n/a	n/a	n/a	n/a	n/a	n/a	n/a
475.2703	0.7167	COLOR_NAME	47	Neutral	niebieski	blue	Neutral	Neutral	hit	n/a
475.9552	n/a	RESPONSE	n/a	n/a	n/a	n/a	n/a	n/a	n/a	blue
475.987	1.0167	ITI	n/a	n/a	n/a	n/a	n/a	n/a	n/a	n/a
477.0037	0.5167	FIXCROSS	n/a	n/a	n/a	n/a	n/a	n/a	n/a	n/a
477.5204	0.6	COLOR_NAME	48	Neutral	żółty	yellow	Neutral	Neutral	hit	n/a
478.0986	n/a	RESPONSE	n/a	n/a	n/a	n/a	n/a	n/a	n/a	yellow
478.1204	1.0167	ITI	n/a	n/a	n/a	n/a	n/a	n/a	n/a	n/a
479.137	0.5167	FIXCROSS	n/a	n/a	n/a	n/a	n/a	n/a	n/a	n/a
479.6537	0.55	COLOR_NAME	49	Neutral	żółty	yellow	Neutral	Neutral	hit	n/a
480.1781	n/a	RESPONSE	n/a	n/a	n/a	n/a	n/a	n/a	n/a	yellow
480.2037	1.0167	ITI	n/a	n/a	n/a	n/a	n/a	n/a	n/a	n/a
481.2204	0.5167	FIXCROSS	n/a	n/a	n/a	n/a	n/a	n/a	n/a	n/a
481.7371	0.8333	COLOR_NAME	50	Neutral	zielony	green	Neutral	Neutral	hit	n/a
482.5455	n/a	RESPONSE	n/a	n/a	n/a	n/a	n/a	n/a	n/a	green
482.5704	1.0167	ITI	n/a	n/a	n/a	n/a	n/a	n/a	n/a	n/a
483.5871	0.5167	FIXCROSS	n/a	n/a	n/a	n/a	n/a	n/a	n/a	n/a
484.1037	0.6333	COLOR_NAME	51	Neutral	czerwony	red	Neutral	Neutral	hit	n/a
484.705	n/a	RESPONSE	n/a	n/a	n/a	n/a	n/a	n/a	n/a	red
484.7371	1.0167	ITI	n/a	n/a	n/a	n/a	n/a	n/a	n/a	n/a
485.7538	0.5167	FIXCROSS	n/a	n/a	n/a	n/a	n/a	n/a	n/a	n/a
486.2704	0.7833	COLOR_NAME	52	Incongruent	żółty	yellow	zielony	green	hit	n/a
487.0244	n/a	RESPONSE	n/a	n/a	n/a	n/a	n/a	n/a	n/a	yellow
487.0538	1.0167	ITI	n/a	n/a	n/a	n/a	n/a	n/a	n/a	n/a
488.0704	0.5167	FIXCROSS	n/a	n/a	n/a	n/a	n/a	n/a	n/a	n/a
488.5871	0.6167	COLOR_NAME	53	Incongruent	niebieski	blue	żółty	yellow	hit	n/a
489.1839	n/a	RESPONSE	n/a	n/a	n/a	n/a	n/a	n/a	n/a	blue
489.2038	1.0167	ITI	n/a	n/a	n/a	n/a	n/a	n/a	n/a	n/a
490.2205	0.5167	FIXCROSS	n/a	n/a	n/a	n/a	n/a	n/a	n/a	n/a
490.7371	0.75	COLOR_NAME	54	Neutral	zielony	green	Neutral	Neutral	hit	n/a
491.4553	n/a	RESPONSE	n/a	n/a	n/a	n/a	n/a	n/a	n/a	green
491.4871	1.0167	ITI	n/a	n/a	n/a	n/a	n/a	n/a	n/a	n/a
492.5038	0.5167	FIXCROSS	n/a	n/a	n/a	n/a	n/a	n/a	n/a	n/a
493.0205	0.9	COLOR_NAME	55	Incongruent	niebieski	blue	zielony	green	hit	n/a
493.9027	n/a	RESPONSE	n/a	n/a	n/a	n/a	n/a	n/a	n/a	blue
493.9205	1.0167	ITI	n/a	n/a	n/a	n/a	n/a	n/a	n/a	n/a
494.9372	0.5167	FIXCROSS	n/a	n/a	n/a	n/a	n/a	n/a	n/a	n/a
495.4538	0.6333	COLOR_NAME	56	Neutral	czerwony	red	Neutral	Neutral	hit	n/a
496.0623	n/a	RESPONSE	n/a	n/a	n/a	n/a	n/a	n/a	n/a	red
496.0872	1.0167	ITI	n/a	n/a	n/a	n/a	n/a	n/a	n/a	n/a
497.1038	0.5167	FIXCROSS	n/a	n/a	n/a	n/a	n/a	n/a	n/a	n/a
497.6205	1.1667	COLOR_NAME	57	Incongruent	niebieski	blue	czerwony	red	hit	n/a
498.7655	n/a	RESPONSE	n/a	n/a	n/a	n/a	n/a	n/a	n/a	blue
498.7872	1.0167	ITI	n/a	n/a	n/a	n/a	n/a	n/a	n/a	n/a
499.8039	0.5167	FIXCROSS	n/a	n/a	n/a	n/a	n/a	n/a	n/a	n/a
500.3205	0.6667	COLOR_NAME	58	Incongruent	niebieski	blue	żółty	yellow	hit	n/a
500.957	n/a	RESPONSE	n/a	n/a	n/a	n/a	n/a	n/a	n/a	blue
500.9872	1.0167	ITI	n/a	n/a	n/a	n/a	n/a	n/a	n/a	n/a
502.0039	0.5167	FIXCROSS	n/a	n/a	n/a	n/a	n/a	n/a	n/a	n/a
502.5206	0.6333	COLOR_NAME	59	Incongruent	czerwony	red	żółty	yellow	hit	n/a
503.1325	n/a	RESPONSE	n/a	n/a	n/a	n/a	n/a	n/a	n/a	red
503.1539	1.0167	ITI	n/a	n/a	n/a	n/a	n/a	n/a	n/a	n/a
504.1706	0.5167	FIXCROSS	n/a	n/a	n/a	n/a	n/a	n/a	n/a	n/a
504.6872	0.8	COLOR_NAME	60	Neutral	zielony	green	Neutral	Neutral	hit	n/a
505.4679	n/a	RESPONSE	n/a	n/a	n/a	n/a	n/a	n/a	n/a	green
505.4872	1.0167	ITI	n/a	n/a	n/a	n/a	n/a	n/a	n/a	n/a
506.5039	0.5167	FIXCROSS	n/a	n/a	n/a	n/a	n/a	n/a	n/a	n/a
507.0206	0.6667	COLOR_NAME	61	Incongruent	niebieski	blue	czerwony	red	hit	n/a
507.6594	n/a	RESPONSE	n/a	n/a	n/a	n/a	n/a	n/a	n/a	blue
507.6873	1.0167	ITI	n/a	n/a	n/a	n/a	n/a	n/a	n/a	n/a
508.7039	0.5167	FIXCROSS	n/a	n/a	n/a	n/a	n/a	n/a	n/a	n/a
509.2206	0.55	COLOR_NAME	62	Incongruent	niebieski	blue	zielony	green	hit	n/a
509.7388	n/a	RESPONSE	n/a	n/a	n/a	n/a	n/a	n/a	n/a	blue
509.7706	1.0167	ITI	n/a	n/a	n/a	n/a	n/a	n/a	n/a	n/a
510.7873	0.5167	FIXCROSS	n/a	n/a	n/a	n/a	n/a	n/a	n/a	n/a
511.304	0.6167	COLOR_NAME	63	Neutral	czerwony	red	Neutral	Neutral	hit	n/a
511.8983	n/a	RESPONSE	n/a	n/a	n/a	n/a	n/a	n/a	n/a	red
511.9206	1.0167	ITI	n/a	n/a	n/a	n/a	n/a	n/a	n/a	n/a
512.9373	0.5167	FIXCROSS	n/a	n/a	n/a	n/a	n/a	n/a	n/a	n/a
513.454	0.7833	COLOR_NAME	64	Neutral	żółty	yellow	Neutral	Neutral	hit	n/a
514.2177	n/a	RESPONSE	n/a	n/a	n/a	n/a	n/a	n/a	n/a	yellow
514.2373	1.0167	ITI	n/a	n/a	n/a	n/a	n/a	n/a	n/a	n/a
515.254	0.5167	FIXCROSS	n/a	n/a	n/a	n/a	n/a	n/a	n/a	n/a
515.7707	0.55	COLOR_NAME	65	Incongruent	żółty	yellow	zielony	green	hit	n/a
516.2972	n/a	RESPONSE	n/a	n/a	n/a	n/a	n/a	n/a	n/a	yellow
516.3207	1.0167	ITI	n/a	n/a	n/a	n/a	n/a	n/a	n/a	n/a
517.3373	0.5167	FIXCROSS	n/a	n/a	n/a	n/a	n/a	n/a	n/a	n/a
517.854	1.0333	COLOR_NAME	66	Neutral	niebieski	blue	Neutral	Neutral	hit	n/a
518.8566	n/a	RESPONSE	n/a	n/a	n/a	n/a	n/a	n/a	n/a	blue
518.8874	1.0167	ITI	n/a	n/a	n/a	n/a	n/a	n/a	n/a	n/a
519.904	0.5167	FIXCROSS	n/a	n/a	n/a	n/a	n/a	n/a	n/a	n/a
520.4207	0.8667	COLOR_NAME	67	Incongruent	żółty	yellow	zielony	green	hit	n/a
521.256	n/a	RESPONSE	n/a	n/a	n/a	n/a	n/a	n/a	n/a	yellow
521.2874	1.0167	ITI	n/a	n/a	n/a	n/a	n/a	n/a	n/a	n/a
522.304	0.5167	FIXCROSS	n/a	n/a	n/a	n/a	n/a	n/a	n/a	n/a
522.8207	0.7	COLOR_NAME	68	Incongruent	zielony	green	żółty	yellow	hit	n/a
523.4955	n/a	RESPONSE	n/a	n/a	n/a	n/a	n/a	n/a	n/a	green
523.5207	1.0167	ITI	n/a	n/a	n/a	n/a	n/a	n/a	n/a	n/a
524.5374	0.5167	FIXCROSS	n/a	n/a	n/a	n/a	n/a	n/a	n/a	n/a
525.0541	0.6333	COLOR_NAME	69	Incongruent	zielony	green	czerwony	red	hit	n/a
525.6549	n/a	RESPONSE	n/a	n/a	n/a	n/a	n/a	n/a	n/a	green
525.6874	1.0167	ITI	n/a	n/a	n/a	n/a	n/a	n/a	n/a	n/a
526.7041	0.5167	FIXCROSS	n/a	n/a	n/a	n/a	n/a	n/a	n/a	n/a
527.2207	0.5334	COLOR_NAME	70	Incongruent	zielony	green	niebieski	blue	hit	n/a
527.7344	n/a	RESPONSE	n/a	n/a	n/a	n/a	n/a	n/a	n/a	green
527.7541	1.0167	ITI	n/a	n/a	n/a	n/a	n/a	n/a	n/a	n/a
528.7708	0.5167	FIXCROSS	n/a	n/a	n/a	n/a	n/a	n/a	n/a	n/a
529.2874	0.6	COLOR_NAME	71	Incongruent	niebieski	blue	zielony	green	hit	n/a
529.8619	n/a	RESPONSE	n/a	n/a	n/a	n/a	n/a	n/a	n/a	blue
529.8874	1.0167	ITI	n/a	n/a	n/a	n/a	n/a	n/a	n/a	n/a
530.9041	0.5167	FIXCROSS	n/a	n/a	n/a	n/a	n/a	n/a	n/a	n/a
531.4208	0.5333	COLOR_NAME	72	Neutral	zielony	green	Neutral	Neutral	hit	n/a
531.9254	n/a	RESPONSE	n/a	n/a	n/a	n/a	n/a	n/a	n/a	green
531.9541	1.0333	ITI	n/a	n/a	n/a	n/a	n/a	n/a	n/a	n/a
537.348	n/a	RESPONSE	n/a	n/a	n/a	n/a	n/a	n/a	n/a	n/a
