onset	duration	trial_type	trial_number	stroop_condition	stim_text(PL)	stim_text(eng)	stim_color(PL)	stim_color(eng)	response_type	response_color
0.0	n/a	RESPONSE	n/a	n/a	n/a	n/a	n/a	n/a	n/a	n/a
1.9097	1.9834	ITI	n/a	n/a	n/a	n/a	n/a	n/a	n/a	n/a
3.8931	0.5	FIXCROSS	n/a	n/a	n/a	n/a	n/a	n/a	n/a	n/a
4.3931	1.1833	T_INK	1	Incongruent	niebieski	blue	czerwony	red	hit	n/a
5.5558	n/a	RESPONSE	n/a	n/a	n/a	n/a	n/a	n/a	n/a	red
5.5764	0.5	FEEDBACK	n/a	n/a	n/a	n/a	n/a	n/a	n/a	n/a
6.0764	1.0	ITI	n/a	n/a	n/a	n/a	n/a	n/a	n/a	n/a
7.0764	0.5	FIXCROSS	n/a	n/a	n/a	n/a	n/a	n/a	n/a	n/a
7.5764	1.0166	T_INK	2	Neutral	xxxxxxx	xxxxxxx	niebieski	blue	hit	n/a
8.589	n/a	RESPONSE	n/a	n/a	n/a	n/a	n/a	n/a	n/a	blue
8.5931	0.5	FEEDBACK	n/a	n/a	n/a	n/a	n/a	n/a	n/a	n/a
9.0931	1.0167	ITI	n/a	n/a	n/a	n/a	n/a	n/a	n/a	n/a
10.1098	0.5	FIXCROSS	n/a	n/a	n/a	n/a	n/a	n/a	n/a	n/a
10.6098	0.9333	T_INK	3	Incongruent	żółty	yellow	zielony	green	hit	n/a
11.5265	n/a	RESPONSE	n/a	n/a	n/a	n/a	n/a	n/a	n/a	green
11.5431	0.5	FEEDBACK	n/a	n/a	n/a	n/a	n/a	n/a	n/a	n/a
12.0431	1.0167	ITI	n/a	n/a	n/a	n/a	n/a	n/a	n/a	n/a
13.0598	0.5167	FIXCROSS	n/a	n/a	n/a	n/a	n/a	n/a	n/a	n/a
13.5765	0.8667	T_INK	4	Incongruent	niebieski	blue	żółty	yellow	hit	n/a
14.4159	n/a	RESPONSE	n/a	n/a	n/a	n/a	n/a	n/a	n/a	yellow
14.4432	0.5166	FEEDBACK	n/a	n/a	n/a	n/a	n/a	n/a	n/a	n/a
14.9598	1.0167	ITI	n/a	n/a	n/a	n/a	n/a	n/a	n/a	n/a
15.9765	0.5167	FIXCROSS	n/a	n/a	n/a	n/a	n/a	n/a	n/a	n/a
16.4932	0.8166	T_INK	5	Incongruent	niebieski	blue	zielony	green	hit	n/a
17.2895	n/a	RESPONSE	n/a	n/a	n/a	n/a	n/a	n/a	n/a	green
17.3098	0.5167	FEEDBACK	n/a	n/a	n/a	n/a	n/a	n/a	n/a	n/a
17.8265	1.0166	ITI	n/a	n/a	n/a	n/a	n/a	n/a	n/a	n/a
18.8432	0.5167	FIXCROSS	n/a	n/a	n/a	n/a	n/a	n/a	n/a	n/a
19.3598	0.8667	T_INK	6	Neutral	xxxxxxxx	xxxxxxxx	niebieski	blue	hit	n/a
20.195	n/a	RESPONSE	n/a	n/a	n/a	n/a	n/a	n/a	n/a	blue
20.2265	0.5167	FEEDBACK	n/a	n/a	n/a	n/a	n/a	n/a	n/a	n/a
20.7432	1.0167	ITI	n/a	n/a	n/a	n/a	n/a	n/a	n/a	n/a
21.7599	0.5167	FIXCROSS	n/a	n/a	n/a	n/a	n/a	n/a	n/a	n/a
22.2765	0.7	T_INK	7	Neutral	xxxxxxx	xxxxxxx	żółty	yellow	hit	n/a
22.9568	n/a	RESPONSE	n/a	n/a	n/a	n/a	n/a	n/a	n/a	yellow
22.9765	0.5167	FEEDBACK	n/a	n/a	n/a	n/a	n/a	n/a	n/a	n/a
23.4932	1.0167	ITI	n/a	n/a	n/a	n/a	n/a	n/a	n/a	n/a
24.5099	0.5167	FIXCROSS	n/a	n/a	n/a	n/a	n/a	n/a	n/a	n/a
25.0266	0.6833	T_INK	8	Neutral	xxxxxxxx	xxxxxxxx	żółty	yellow	hit	n/a
25.6866	n/a	RESPONSE	n/a	n/a	n/a	n/a	n/a	n/a	n/a	yellow
25.7099	0.5167	FEEDBACK	n/a	n/a	n/a	n/a	n/a	n/a	n/a	n/a
26.2266	1.0167	ITI	n/a	n/a	n/a	n/a	n/a	n/a	n/a	n/a
27.2433	0.5167	FIXCROSS	n/a	n/a	n/a	n/a	n/a	n/a	n/a	n/a
27.7599	0.9167	T_INK	9	Incongruent	czerwony	red	niebieski	blue	hit	n/a
28.656	n/a	RESPONSE	n/a	n/a	n/a	n/a	n/a	n/a	n/a	blue
28.6766	0.5167	FEEDBACK	n/a	n/a	n/a	n/a	n/a	n/a	n/a	n/a
29.1933	1.0167	ITI	n/a	n/a	n/a	n/a	n/a	n/a	n/a	n/a
30.2099	0.5167	FIXCROSS	n/a	n/a	n/a	n/a	n/a	n/a	n/a	n/a
30.7266	0.6667	T_INK	10	Incongruent	zielony	green	żółty	yellow	hit	n/a
31.37	n/a	RESPONSE	n/a	n/a	n/a	n/a	n/a	n/a	n/a	yellow
31.3933	0.5167	FEEDBACK	n/a	n/a	n/a	n/a	n/a	n/a	n/a	n/a
31.91	1.0167	ITI	n/a	n/a	n/a	n/a	n/a	n/a	n/a	n/a
32.9266	0.5167	FIXCROSS	n/a	n/a	n/a	n/a	n/a	n/a	n/a	n/a
33.4433	0.85	T_INK	11	Incongruent	żółty	yellow	czerwony	red	hit	n/a
34.2594	n/a	RESPONSE	n/a	n/a	n/a	n/a	n/a	n/a	n/a	red
34.2933	0.5167	FEEDBACK	n/a	n/a	n/a	n/a	n/a	n/a	n/a	n/a
34.81	1.0167	ITI	n/a	n/a	n/a	n/a	n/a	n/a	n/a	n/a
35.8267	0.5167	FIXCROSS	n/a	n/a	n/a	n/a	n/a	n/a	n/a	n/a
36.3433	0.6	T_INK	12	Incongruent	czerwony	red	żółty	yellow	hit	n/a
36.9094	n/a	RESPONSE	n/a	n/a	n/a	n/a	n/a	n/a	n/a	yellow
36.9433	0.5167	FEEDBACK	n/a	n/a	n/a	n/a	n/a	n/a	n/a	n/a
37.46	1.0333	ITI	n/a	n/a	n/a	n/a	n/a	n/a	n/a	n/a
49.3135	n/a	RESPONSE	n/a	n/a	n/a	n/a	n/a	n/a	n/a	n/a
49.3768	1.0167	ITI	n/a	n/a	n/a	n/a	n/a	n/a	n/a	n/a
50.3934	0.5167	FIXCROSS	n/a	n/a	n/a	n/a	n/a	n/a	n/a	n/a
50.9101	0.85	INK	1	Incongruent	żółty	yellow	czerwony	red	hit	n/a
51.7401	n/a	RESPONSE	n/a	n/a	n/a	n/a	n/a	n/a	n/a	red
51.7601	1.0167	ITI	n/a	n/a	n/a	n/a	n/a	n/a	n/a	n/a
52.7768	0.5167	FIXCROSS	n/a	n/a	n/a	n/a	n/a	n/a	n/a	n/a
53.2935	0.75	INK	2	Incongruent	zielony	green	czerwony	red	hit	n/a
54.0229	n/a	RESPONSE	n/a	n/a	n/a	n/a	n/a	n/a	n/a	red
54.0435	1.0167	ITI	n/a	n/a	n/a	n/a	n/a	n/a	n/a	n/a
55.0601	0.5167	FIXCROSS	n/a	n/a	n/a	n/a	n/a	n/a	n/a	n/a
55.5768	0.4667	INK	3	Incongruent	żółty	yellow	czerwony	red	hit	n/a
56.0185	n/a	RESPONSE	n/a	n/a	n/a	n/a	n/a	n/a	n/a	red
56.0435	1.0167	ITI	n/a	n/a	n/a	n/a	n/a	n/a	n/a	n/a
57.0602	0.5167	FIXCROSS	n/a	n/a	n/a	n/a	n/a	n/a	n/a	n/a
57.5768	0.5666	INK	4	Neutral	xxxxxxx	xxxxxxx	żółty	yellow	hit	n/a
58.1258	n/a	RESPONSE	n/a	n/a	n/a	n/a	n/a	n/a	n/a	yellow
58.1435	1.0167	ITI	n/a	n/a	n/a	n/a	n/a	n/a	n/a	n/a
59.1602	0.5166	FIXCROSS	n/a	n/a	n/a	n/a	n/a	n/a	n/a	n/a
59.6768	0.4833	INK	5	Incongruent	czerwony	red	żółty	yellow	hit	n/a
60.1372	n/a	RESPONSE	n/a	n/a	n/a	n/a	n/a	n/a	n/a	yellow
60.1602	1.0167	ITI	n/a	n/a	n/a	n/a	n/a	n/a	n/a	n/a
61.1768	0.5166	FIXCROSS	n/a	n/a	n/a	n/a	n/a	n/a	n/a	n/a
61.6935	0.7	INK	6	Neutral	xxxxxxxx	xxxxxxxx	niebieski	blue	hit	n/a
62.3722	n/a	RESPONSE	n/a	n/a	n/a	n/a	n/a	n/a	n/a	blue
62.3935	1.0167	ITI	n/a	n/a	n/a	n/a	n/a	n/a	n/a	n/a
63.4102	0.5167	FIXCROSS	n/a	n/a	n/a	n/a	n/a	n/a	n/a	n/a
63.9269	0.6667	INK	7	Incongruent	niebieski	blue	zielony	green	hit	n/a
64.5753	n/a	RESPONSE	n/a	n/a	n/a	n/a	n/a	n/a	n/a	green
64.5935	1.0166	ITI	n/a	n/a	n/a	n/a	n/a	n/a	n/a	n/a
65.6102	0.5167	FIXCROSS	n/a	n/a	n/a	n/a	n/a	n/a	n/a	n/a
66.1269	0.6166	INK	8	Neutral	xxxxx	xxxxx	niebieski	blue	hit	n/a
66.7145	n/a	RESPONSE	n/a	n/a	n/a	n/a	n/a	n/a	n/a	blue
66.7435	1.0167	ITI	n/a	n/a	n/a	n/a	n/a	n/a	n/a	n/a
67.7602	0.5167	FIXCROSS	n/a	n/a	n/a	n/a	n/a	n/a	n/a	n/a
68.2769	0.6167	INK	9	Incongruent	niebieski	blue	żółty	yellow	hit	n/a
68.8696	n/a	RESPONSE	n/a	n/a	n/a	n/a	n/a	n/a	n/a	yellow
68.8936	1.0166	ITI	n/a	n/a	n/a	n/a	n/a	n/a	n/a	n/a
69.9102	0.5167	FIXCROSS	n/a	n/a	n/a	n/a	n/a	n/a	n/a	n/a
70.4269	0.5166	INK	10	Incongruent	zielony	green	żółty	yellow	hit	n/a
70.913	n/a	RESPONSE	n/a	n/a	n/a	n/a	n/a	n/a	n/a	yellow
70.9436	1.0167	ITI	n/a	n/a	n/a	n/a	n/a	n/a	n/a	n/a
71.9603	0.5167	FIXCROSS	n/a	n/a	n/a	n/a	n/a	n/a	n/a	n/a
72.4769	0.7833	INK	11	Neutral	xxxxx	xxxxx	czerwony	red	hit	n/a
73.2278	n/a	RESPONSE	n/a	n/a	n/a	n/a	n/a	n/a	n/a	red
73.2602	1.0167	ITI	n/a	n/a	n/a	n/a	n/a	n/a	n/a	n/a
74.277	0.5167	FIXCROSS	n/a	n/a	n/a	n/a	n/a	n/a	n/a	n/a
74.7936	0.6	INK	12	Neutral	xxxxx	xxxxx	niebieski	blue	hit	n/a
75.3669	n/a	RESPONSE	n/a	n/a	n/a	n/a	n/a	n/a	n/a	blue
75.3936	1.0167	ITI	n/a	n/a	n/a	n/a	n/a	n/a	n/a	n/a
76.4103	0.5167	FIXCROSS	n/a	n/a	n/a	n/a	n/a	n/a	n/a	n/a
76.927	0.7	INK	13	Neutral	xxxxxxxx	xxxxxxxx	niebieski	blue	hit	n/a
77.6019	n/a	RESPONSE	n/a	n/a	n/a	n/a	n/a	n/a	n/a	blue
77.627	1.0167	ITI	n/a	n/a	n/a	n/a	n/a	n/a	n/a	n/a
78.6437	0.5166	FIXCROSS	n/a	n/a	n/a	n/a	n/a	n/a	n/a	n/a
79.1603	0.4667	INK	14	Incongruent	czerwony	red	niebieski	blue	hit	n/a
79.5974	n/a	RESPONSE	n/a	n/a	n/a	n/a	n/a	n/a	n/a	blue
79.627	1.0167	ITI	n/a	n/a	n/a	n/a	n/a	n/a	n/a	n/a
80.6437	0.5167	FIXCROSS	n/a	n/a	n/a	n/a	n/a	n/a	n/a	n/a
81.1603	0.45	INK	15	Neutral	xxxxxxx	xxxxxxx	czerwony	red	hit	n/a
81.577	n/a	RESPONSE	n/a	n/a	n/a	n/a	n/a	n/a	n/a	red
81.6103	1.0167	ITI	n/a	n/a	n/a	n/a	n/a	n/a	n/a	n/a
82.627	0.5166	FIXCROSS	n/a	n/a	n/a	n/a	n/a	n/a	n/a	n/a
83.1436	0.7834	INK	16	Incongruent	niebieski	blue	czerwony	red	hit	n/a
83.9077	n/a	RESPONSE	n/a	n/a	n/a	n/a	n/a	n/a	n/a	red
83.927	1.0167	ITI	n/a	n/a	n/a	n/a	n/a	n/a	n/a	n/a
84.9437	0.5166	FIXCROSS	n/a	n/a	n/a	n/a	n/a	n/a	n/a	n/a
85.4603	0.6334	INK	17	Neutral	xxxxxxxxx	xxxxxxxxx	żółty	yellow	hit	n/a
86.0629	n/a	RESPONSE	n/a	n/a	n/a	n/a	n/a	n/a	n/a	yellow
86.0937	1.0166	ITI	n/a	n/a	n/a	n/a	n/a	n/a	n/a	n/a
87.1104	0.5167	FIXCROSS	n/a	n/a	n/a	n/a	n/a	n/a	n/a	n/a
87.6271	0.6833	INK	18	Neutral	xxxxx	xxxxx	zielony	green	hit	n/a
88.2819	n/a	RESPONSE	n/a	n/a	n/a	n/a	n/a	n/a	n/a	green
88.3104	1.0167	ITI	n/a	n/a	n/a	n/a	n/a	n/a	n/a	n/a
89.3271	0.5167	FIXCROSS	n/a	n/a	n/a	n/a	n/a	n/a	n/a	n/a
89.8437	0.8167	INK	19	Incongruent	zielony	green	niebieski	blue	hit	n/a
90.6286	n/a	RESPONSE	n/a	n/a	n/a	n/a	n/a	n/a	n/a	blue
90.6604	1.0167	ITI	n/a	n/a	n/a	n/a	n/a	n/a	n/a	n/a
91.6771	0.5167	FIXCROSS	n/a	n/a	n/a	n/a	n/a	n/a	n/a	n/a
92.1938	0.6833	INK	20	Incongruent	zielony	green	żółty	yellow	hit	n/a
92.8477	n/a	RESPONSE	n/a	n/a	n/a	n/a	n/a	n/a	n/a	yellow
92.8771	1.0167	ITI	n/a	n/a	n/a	n/a	n/a	n/a	n/a	n/a
93.8938	0.5167	FIXCROSS	n/a	n/a	n/a	n/a	n/a	n/a	n/a	n/a
94.4104	0.6833	INK	21	Incongruent	żółty	yellow	niebieski	blue	hit	n/a
95.0667	n/a	RESPONSE	n/a	n/a	n/a	n/a	n/a	n/a	n/a	blue
95.0938	1.0167	ITI	n/a	n/a	n/a	n/a	n/a	n/a	n/a	n/a
96.1105	0.5167	FIXCROSS	n/a	n/a	n/a	n/a	n/a	n/a	n/a	n/a
96.6271	0.7167	INK	22	Neutral	xxxxxxxxx	xxxxxxxxx	zielony	green	hit	n/a
97.3176	n/a	RESPONSE	n/a	n/a	n/a	n/a	n/a	n/a	n/a	green
97.3438	1.0167	ITI	n/a	n/a	n/a	n/a	n/a	n/a	n/a	n/a
98.3605	0.5167	FIXCROSS	n/a	n/a	n/a	n/a	n/a	n/a	n/a	n/a
98.8771	0.7	INK	23	Incongruent	czerwony	red	niebieski	blue	hit	n/a
99.5526	n/a	RESPONSE	n/a	n/a	n/a	n/a	n/a	n/a	n/a	blue
99.5771	1.0166	ITI	n/a	n/a	n/a	n/a	n/a	n/a	n/a	n/a
100.5938	0.5167	FIXCROSS	n/a	n/a	n/a	n/a	n/a	n/a	n/a	n/a
101.1105	0.65	INK	24	Neutral	xxxxxxxxx	xxxxxxxxx	czerwony	red	hit	n/a
101.7396	n/a	RESPONSE	n/a	n/a	n/a	n/a	n/a	n/a	n/a	red
101.7605	1.0167	ITI	n/a	n/a	n/a	n/a	n/a	n/a	n/a	n/a
102.7772	0.5167	FIXCROSS	n/a	n/a	n/a	n/a	n/a	n/a	n/a	n/a
103.2938	0.5833	INK	25	Neutral	xxxxxxxx	xxxxxxxx	niebieski	blue	hit	n/a
103.8469	n/a	RESPONSE	n/a	n/a	n/a	n/a	n/a	n/a	n/a	blue
103.8771	1.0167	ITI	n/a	n/a	n/a	n/a	n/a	n/a	n/a	n/a
104.8939	0.5166	FIXCROSS	n/a	n/a	n/a	n/a	n/a	n/a	n/a	n/a
105.4105	0.6167	INK	26	Neutral	xxxxxxxxx	xxxxxxxxx	czerwony	red	hit	n/a
106.002	n/a	RESPONSE	n/a	n/a	n/a	n/a	n/a	n/a	n/a	red
106.0272	1.0167	ITI	n/a	n/a	n/a	n/a	n/a	n/a	n/a	n/a
107.0439	0.5167	FIXCROSS	n/a	n/a	n/a	n/a	n/a	n/a	n/a	n/a
107.5605	0.5833	INK	27	Neutral	xxxxx	xxxxx	niebieski	blue	hit	n/a
108.1253	n/a	RESPONSE	n/a	n/a	n/a	n/a	n/a	n/a	n/a	blue
108.1438	1.0167	ITI	n/a	n/a	n/a	n/a	n/a	n/a	n/a	n/a
109.1606	0.5167	FIXCROSS	n/a	n/a	n/a	n/a	n/a	n/a	n/a	n/a
109.6772	0.7333	INK	28	Incongruent	niebieski	blue	żółty	yellow	hit	n/a
110.3921	n/a	RESPONSE	n/a	n/a	n/a	n/a	n/a	n/a	n/a	yellow
110.4106	1.0167	ITI	n/a	n/a	n/a	n/a	n/a	n/a	n/a	n/a
111.4272	0.5167	FIXCROSS	n/a	n/a	n/a	n/a	n/a	n/a	n/a	n/a
111.9439	0.6833	INK	29	Neutral	xxxxx	xxxxx	zielony	green	hit	n/a
112.5952	n/a	RESPONSE	n/a	n/a	n/a	n/a	n/a	n/a	n/a	green
112.6272	1.0166	ITI	n/a	n/a	n/a	n/a	n/a	n/a	n/a	n/a
113.6439	0.5167	FIXCROSS	n/a	n/a	n/a	n/a	n/a	n/a	n/a	n/a
114.1606	0.7667	INK	30	Incongruent	zielony	green	niebieski	blue	hit	n/a
114.8939	n/a	RESPONSE	n/a	n/a	n/a	n/a	n/a	n/a	n/a	blue
114.9273	1.0166	ITI	n/a	n/a	n/a	n/a	n/a	n/a	n/a	n/a
115.9439	0.5167	FIXCROSS	n/a	n/a	n/a	n/a	n/a	n/a	n/a	n/a
116.4606	0.4666	INK	31	Neutral	xxxxxxx	xxxxxxx	czerwony	red	hit	n/a
116.9054	n/a	RESPONSE	n/a	n/a	n/a	n/a	n/a	n/a	n/a	red
116.9273	1.0167	ITI	n/a	n/a	n/a	n/a	n/a	n/a	n/a	n/a
117.944	0.5167	FIXCROSS	n/a	n/a	n/a	n/a	n/a	n/a	n/a	n/a
118.4606	0.8167	INK	32	Incongruent	żółty	yellow	zielony	green	hit	n/a
119.2523	n/a	RESPONSE	n/a	n/a	n/a	n/a	n/a	n/a	n/a	green
119.2773	1.0167	ITI	n/a	n/a	n/a	n/a	n/a	n/a	n/a	n/a
120.294	0.5167	FIXCROSS	n/a	n/a	n/a	n/a	n/a	n/a	n/a	n/a
120.8106	0.7834	INK	33	Incongruent	żółty	yellow	zielony	green	hit	n/a
121.567	n/a	RESPONSE	n/a	n/a	n/a	n/a	n/a	n/a	n/a	green
121.594	1.0166	ITI	n/a	n/a	n/a	n/a	n/a	n/a	n/a	n/a
122.6106	0.5167	FIXCROSS	n/a	n/a	n/a	n/a	n/a	n/a	n/a	n/a
123.1273	0.7167	INK	34	Incongruent	zielony	green	czerwony	red	hit	n/a
123.818	n/a	RESPONSE	n/a	n/a	n/a	n/a	n/a	n/a	n/a	red
123.844	1.0166	ITI	n/a	n/a	n/a	n/a	n/a	n/a	n/a	n/a
124.8606	0.5167	FIXCROSS	n/a	n/a	n/a	n/a	n/a	n/a	n/a	n/a
125.3773	0.6667	INK	35	Incongruent	zielony	green	czerwony	red	hit	n/a
126.021	n/a	RESPONSE	n/a	n/a	n/a	n/a	n/a	n/a	n/a	red
126.044	1.0167	ITI	n/a	n/a	n/a	n/a	n/a	n/a	n/a	n/a
127.0607	0.5167	FIXCROSS	n/a	n/a	n/a	n/a	n/a	n/a	n/a	n/a
127.5774	0.8333	INK	36	Neutral	xxxxxxxx	xxxxxxxx	zielony	green	hit	n/a
128.3837	n/a	RESPONSE	n/a	n/a	n/a	n/a	n/a	n/a	n/a	green
128.4107	1.0167	ITI	n/a	n/a	n/a	n/a	n/a	n/a	n/a	n/a
129.4274	0.5167	FIXCROSS	n/a	n/a	n/a	n/a	n/a	n/a	n/a	n/a
129.9441	0.9333	INK	37	Incongruent	żółty	yellow	niebieski	blue	hit	n/a
130.8581	n/a	RESPONSE	n/a	n/a	n/a	n/a	n/a	n/a	n/a	blue
130.8774	1.0167	ITI	n/a	n/a	n/a	n/a	n/a	n/a	n/a	n/a
131.8941	0.5167	FIXCROSS	n/a	n/a	n/a	n/a	n/a	n/a	n/a	n/a
132.4107	0.7	INK	38	Neutral	xxxxxxx	xxxxxxx	żółty	yellow	hit	n/a
133.0931	n/a	RESPONSE	n/a	n/a	n/a	n/a	n/a	n/a	n/a	yellow
133.1107	1.0167	ITI	n/a	n/a	n/a	n/a	n/a	n/a	n/a	n/a
134.1274	0.5167	FIXCROSS	n/a	n/a	n/a	n/a	n/a	n/a	n/a	n/a
134.6441	0.7333	INK	39	Neutral	xxxxxxxx	xxxxxxxx	zielony	green	hit	n/a
135.344	n/a	RESPONSE	n/a	n/a	n/a	n/a	n/a	n/a	n/a	green
135.3774	1.0166	ITI	n/a	n/a	n/a	n/a	n/a	n/a	n/a	n/a
136.3941	0.5167	FIXCROSS	n/a	n/a	n/a	n/a	n/a	n/a	n/a	n/a
136.9108	0.5667	INK	40	Incongruent	żółty	yellow	zielony	green	hit	n/a
137.4513	n/a	RESPONSE	n/a	n/a	n/a	n/a	n/a	n/a	n/a	green
137.4774	1.0167	ITI	n/a	n/a	n/a	n/a	n/a	n/a	n/a	n/a
138.4941	0.5167	FIXCROSS	n/a	n/a	n/a	n/a	n/a	n/a	n/a	n/a
139.0108	0.75	INK	41	Incongruent	czerwony	red	żółty	yellow	hit	n/a
139.7342	n/a	RESPONSE	n/a	n/a	n/a	n/a	n/a	n/a	n/a	yellow
139.7608	1.0167	ITI	n/a	n/a	n/a	n/a	n/a	n/a	n/a	n/a
140.7775	0.5166	FIXCROSS	n/a	n/a	n/a	n/a	n/a	n/a	n/a	n/a
141.2941	0.55	INK	42	Neutral	xxxxxxxx	xxxxxxxx	żółty	yellow	hit	n/a
141.8254	n/a	RESPONSE	n/a	n/a	n/a	n/a	n/a	n/a	n/a	yellow
141.8441	1.0167	ITI	n/a	n/a	n/a	n/a	n/a	n/a	n/a	n/a
142.8608	0.5166	FIXCROSS	n/a	n/a	n/a	n/a	n/a	n/a	n/a	n/a
143.3775	0.7167	INK	43	Neutral	xxxxxxx	xxxxxxx	niebieski	blue	hit	n/a
144.0604	n/a	RESPONSE	n/a	n/a	n/a	n/a	n/a	n/a	n/a	blue
144.0942	1.0167	ITI	n/a	n/a	n/a	n/a	n/a	n/a	n/a	n/a
145.1108	0.5167	FIXCROSS	n/a	n/a	n/a	n/a	n/a	n/a	n/a	n/a
145.6275	0.6833	INK	44	Neutral	xxxxx	xxxxx	zielony	green	hit	n/a
146.2794	n/a	RESPONSE	n/a	n/a	n/a	n/a	n/a	n/a	n/a	green
146.3108	1.0167	ITI	n/a	n/a	n/a	n/a	n/a	n/a	n/a	n/a
147.3275	0.5166	FIXCROSS	n/a	n/a	n/a	n/a	n/a	n/a	n/a	n/a
147.8442	0.6834	INK	45	Incongruent	niebieski	blue	czerwony	red	hit	n/a
148.4984	n/a	RESPONSE	n/a	n/a	n/a	n/a	n/a	n/a	n/a	red
148.5275	1.0167	ITI	n/a	n/a	n/a	n/a	n/a	n/a	n/a	n/a
149.5442	0.5167	FIXCROSS	n/a	n/a	n/a	n/a	n/a	n/a	n/a	n/a
150.0609	0.75	INK	46	Neutral	xxxxxxxx	xxxxxxxx	żółty	yellow	hit	n/a
150.7813	n/a	RESPONSE	n/a	n/a	n/a	n/a	n/a	n/a	n/a	yellow
150.8109	1.0167	ITI	n/a	n/a	n/a	n/a	n/a	n/a	n/a	n/a
151.8276	0.5166	FIXCROSS	n/a	n/a	n/a	n/a	n/a	n/a	n/a	n/a
152.3442	0.7	INK	47	Incongruent	czerwony	red	zielony	green	hit	n/a
153.0162	n/a	RESPONSE	n/a	n/a	n/a	n/a	n/a	n/a	n/a	green
153.0442	1.0167	ITI	n/a	n/a	n/a	n/a	n/a	n/a	n/a	n/a
154.0609	0.5167	FIXCROSS	n/a	n/a	n/a	n/a	n/a	n/a	n/a	n/a
154.5776	0.6	INK	48	Incongruent	niebieski	blue	zielony	green	hit	n/a
155.1555	n/a	RESPONSE	n/a	n/a	n/a	n/a	n/a	n/a	n/a	green
155.1775	1.0167	ITI	n/a	n/a	n/a	n/a	n/a	n/a	n/a	n/a
156.1942	0.5167	FIXCROSS	n/a	n/a	n/a	n/a	n/a	n/a	n/a	n/a
156.7109	0.7333	INK	49	Incongruent	niebieski	blue	żółty	yellow	hit	n/a
157.4223	n/a	RESPONSE	n/a	n/a	n/a	n/a	n/a	n/a	n/a	yellow
157.4443	1.0167	ITI	n/a	n/a	n/a	n/a	n/a	n/a	n/a	n/a
158.4609	0.5167	FIXCROSS	n/a	n/a	n/a	n/a	n/a	n/a	n/a	n/a
158.9776	0.6333	INK	50	Neutral	xxxxxxx	xxxxxxx	niebieski	blue	hit	n/a
159.5774	n/a	RESPONSE	n/a	n/a	n/a	n/a	n/a	n/a	n/a	blue
159.6109	1.0167	ITI	n/a	n/a	n/a	n/a	n/a	n/a	n/a	n/a
160.6276	0.5167	FIXCROSS	n/a	n/a	n/a	n/a	n/a	n/a	n/a	n/a
161.1443	0.5333	INK	51	Neutral	xxxxx	xxxxx	czerwony	red	hit	n/a
161.6528	n/a	RESPONSE	n/a	n/a	n/a	n/a	n/a	n/a	n/a	red
161.6776	1.0167	ITI	n/a	n/a	n/a	n/a	n/a	n/a	n/a	n/a
162.6943	0.5166	FIXCROSS	n/a	n/a	n/a	n/a	n/a	n/a	n/a	n/a
163.2109	0.5	INK	52	Incongruent	żółty	yellow	czerwony	red	hit	n/a
163.6804	n/a	RESPONSE	n/a	n/a	n/a	n/a	n/a	n/a	n/a	red
163.711	1.0167	ITI	n/a	n/a	n/a	n/a	n/a	n/a	n/a	n/a
164.7276	0.5167	FIXCROSS	n/a	n/a	n/a	n/a	n/a	n/a	n/a	n/a
165.2443	0.8	INK	53	Incongruent	zielony	green	niebieski	blue	hit	n/a
166.011	n/a	RESPONSE	n/a	n/a	n/a	n/a	n/a	n/a	n/a	blue
166.0443	1.0167	ITI	n/a	n/a	n/a	n/a	n/a	n/a	n/a	n/a
167.061	0.5166	FIXCROSS	n/a	n/a	n/a	n/a	n/a	n/a	n/a	n/a
167.5776	0.5667	INK	54	Neutral	xxxxxxxxx	xxxxxxxxx	zielony	green	hit	n/a
168.1183	n/a	RESPONSE	n/a	n/a	n/a	n/a	n/a	n/a	n/a	green
168.1443	1.0167	ITI	n/a	n/a	n/a	n/a	n/a	n/a	n/a	n/a
169.161	0.5166	FIXCROSS	n/a	n/a	n/a	n/a	n/a	n/a	n/a	n/a
169.6777	0.7167	INK	55	Neutral	xxxxx	xxxxx	czerwony	red	hit	n/a
170.3693	n/a	RESPONSE	n/a	n/a	n/a	n/a	n/a	n/a	n/a	red
170.3943	1.0167	ITI	n/a	n/a	n/a	n/a	n/a	n/a	n/a	n/a
171.411	0.5167	FIXCROSS	n/a	n/a	n/a	n/a	n/a	n/a	n/a	n/a
171.9277	0.7333	INK	56	Neutral	xxxxxxx	xxxxxxx	żółty	yellow	hit	n/a
172.6361	n/a	RESPONSE	n/a	n/a	n/a	n/a	n/a	n/a	n/a	yellow
172.661	1.0166	ITI	n/a	n/a	n/a	n/a	n/a	n/a	n/a	n/a
173.6777	0.5167	FIXCROSS	n/a	n/a	n/a	n/a	n/a	n/a	n/a	n/a
174.1944	0.6667	INK	57	Incongruent	niebieski	blue	zielony	green	hit	n/a
174.8392	n/a	RESPONSE	n/a	n/a	n/a	n/a	n/a	n/a	n/a	green
174.8611	1.0166	ITI	n/a	n/a	n/a	n/a	n/a	n/a	n/a	n/a
175.8777	0.5167	FIXCROSS	n/a	n/a	n/a	n/a	n/a	n/a	n/a	n/a
176.3944	0.6833	INK	58	Neutral	xxxxxxxx	xxxxxxxx	żółty	yellow	hit	n/a
177.0582	n/a	RESPONSE	n/a	n/a	n/a	n/a	n/a	n/a	n/a	yellow
177.0777	1.0167	ITI	n/a	n/a	n/a	n/a	n/a	n/a	n/a	n/a
178.0944	0.5166	FIXCROSS	n/a	n/a	n/a	n/a	n/a	n/a	n/a	n/a
178.6111	0.5834	INK	59	Neutral	xxxxxxxxx	xxxxxxxxx	żółty	yellow	hit	n/a
179.1654	n/a	RESPONSE	n/a	n/a	n/a	n/a	n/a	n/a	n/a	yellow
179.1944	1.0167	ITI	n/a	n/a	n/a	n/a	n/a	n/a	n/a	n/a
180.2111	0.5167	FIXCROSS	n/a	n/a	n/a	n/a	n/a	n/a	n/a	n/a
180.7278	0.6667	INK	60	Incongruent	żółty	yellow	niebieski	blue	hit	n/a
181.3684	n/a	RESPONSE	n/a	n/a	n/a	n/a	n/a	n/a	n/a	blue
181.3944	1.0167	ITI	n/a	n/a	n/a	n/a	n/a	n/a	n/a	n/a
182.4111	0.5167	FIXCROSS	n/a	n/a	n/a	n/a	n/a	n/a	n/a	n/a
182.9278	0.5667	INK	61	Incongruent	czerwony	red	niebieski	blue	hit	n/a
183.4758	n/a	RESPONSE	n/a	n/a	n/a	n/a	n/a	n/a	n/a	blue
183.4945	1.0166	ITI	n/a	n/a	n/a	n/a	n/a	n/a	n/a	n/a
184.5111	0.5167	FIXCROSS	n/a	n/a	n/a	n/a	n/a	n/a	n/a	n/a
185.0278	0.65	INK	62	Neutral	xxxxxxxxx	xxxxxxxxx	czerwony	red	hit	n/a
185.6468	n/a	RESPONSE	n/a	n/a	n/a	n/a	n/a	n/a	n/a	red
185.6778	1.0167	ITI	n/a	n/a	n/a	n/a	n/a	n/a	n/a	n/a
186.6945	0.5167	FIXCROSS	n/a	n/a	n/a	n/a	n/a	n/a	n/a	n/a
187.2112	0.5666	INK	63	Incongruent	czerwony	red	zielony	green	hit	n/a
187.7542	n/a	RESPONSE	n/a	n/a	n/a	n/a	n/a	n/a	n/a	green
187.7778	1.0167	ITI	n/a	n/a	n/a	n/a	n/a	n/a	n/a	n/a
188.7945	0.5167	FIXCROSS	n/a	n/a	n/a	n/a	n/a	n/a	n/a	n/a
189.3112	0.7667	INK	64	Neutral	xxxxxxx	xxxxxxx	niebieski	blue	hit	n/a
190.053	n/a	RESPONSE	n/a	n/a	n/a	n/a	n/a	n/a	n/a	blue
190.0778	1.0167	ITI	n/a	n/a	n/a	n/a	n/a	n/a	n/a	n/a
191.0945	0.5167	FIXCROSS	n/a	n/a	n/a	n/a	n/a	n/a	n/a	n/a
191.6112	0.75	INK	65	Neutral	xxxxxxx	xxxxxxx	czerwony	red	hit	n/a
192.3359	n/a	RESPONSE	n/a	n/a	n/a	n/a	n/a	n/a	n/a	red
192.3612	1.0167	ITI	n/a	n/a	n/a	n/a	n/a	n/a	n/a	n/a
193.3779	0.5166	FIXCROSS	n/a	n/a	n/a	n/a	n/a	n/a	n/a	n/a
193.8945	0.5834	INK	66	Neutral	xxxxxxxxx	xxxxxxxxx	zielony	green	hit	n/a
194.4591	n/a	RESPONSE	n/a	n/a	n/a	n/a	n/a	n/a	n/a	green
194.4779	1.0167	ITI	n/a	n/a	n/a	n/a	n/a	n/a	n/a	n/a
195.4945	0.5167	FIXCROSS	n/a	n/a	n/a	n/a	n/a	n/a	n/a	n/a
196.0112	0.6667	INK	67	Incongruent	zielony	green	żółty	yellow	hit	n/a
196.6462	n/a	RESPONSE	n/a	n/a	n/a	n/a	n/a	n/a	n/a	yellow
196.6779	1.0166	ITI	n/a	n/a	n/a	n/a	n/a	n/a	n/a	n/a
197.6945	0.5167	FIXCROSS	n/a	n/a	n/a	n/a	n/a	n/a	n/a	n/a
198.2112	0.6	INK	68	Neutral	xxxxxxxxx	xxxxxxxxx	żółty	yellow	hit	n/a
198.7855	n/a	RESPONSE	n/a	n/a	n/a	n/a	n/a	n/a	n/a	yellow
198.8112	1.0167	ITI	n/a	n/a	n/a	n/a	n/a	n/a	n/a	n/a
199.8279	0.5167	FIXCROSS	n/a	n/a	n/a	n/a	n/a	n/a	n/a	n/a
200.3446	0.8166	INK	69	Incongruent	niebieski	blue	czerwony	red	hit	n/a
201.1323	n/a	RESPONSE	n/a	n/a	n/a	n/a	n/a	n/a	n/a	red
201.1612	1.0167	ITI	n/a	n/a	n/a	n/a	n/a	n/a	n/a	n/a
202.1779	0.5167	FIXCROSS	n/a	n/a	n/a	n/a	n/a	n/a	n/a	n/a
202.6946	0.55	INK	70	Incongruent	czerwony	red	zielony	green	hit	n/a
203.2235	n/a	RESPONSE	n/a	n/a	n/a	n/a	n/a	n/a	n/a	green
203.2446	1.0167	ITI	n/a	n/a	n/a	n/a	n/a	n/a	n/a	n/a
204.2613	0.5167	FIXCROSS	n/a	n/a	n/a	n/a	n/a	n/a	n/a	n/a
204.7779	0.8667	INK	71	Incongruent	czerwony	red	żółty	yellow	hit	n/a
205.6183	n/a	RESPONSE	n/a	n/a	n/a	n/a	n/a	n/a	n/a	yellow
205.6446	1.0167	ITI	n/a	n/a	n/a	n/a	n/a	n/a	n/a	n/a
206.6613	0.5167	FIXCROSS	n/a	n/a	n/a	n/a	n/a	n/a	n/a	n/a
207.178	0.7667	INK	72	Neutral	xxxxxxxx	xxxxxxxx	zielony	green	hit	n/a
207.9171	n/a	RESPONSE	n/a	n/a	n/a	n/a	n/a	n/a	n/a	green
207.9446	1.0833	ITI	n/a	n/a	n/a	n/a	n/a	n/a	n/a	n/a
240.8515	n/a	RESPONSE	n/a	n/a	n/a	n/a	n/a	n/a	n/a	n/a
240.9115	1.0167	ITI	n/a	n/a	n/a	n/a	n/a	n/a	n/a	n/a
241.9282	0.5167	FIXCROSS	n/a	n/a	n/a	n/a	n/a	n/a	n/a	n/a
242.4449	0.9	T_COLOR_NAME	1	Neutral	czerwony	red	Neutral	Neutral	hit	n/a
243.3099	n/a	RESPONSE	n/a	n/a	n/a	n/a	n/a	n/a	n/a	red
243.3449	0.5167	FEEDBACK	n/a	n/a	n/a	n/a	n/a	n/a	n/a	n/a
243.8616	1.0167	ITI	n/a	n/a	n/a	n/a	n/a	n/a	n/a	n/a
244.8783	0.5167	FIXCROSS	n/a	n/a	n/a	n/a	n/a	n/a	n/a	n/a
245.3949	0.85	T_COLOR_NAME	2	Incongruent	żółty	yellow	zielony	green	hit	n/a
246.2155	n/a	RESPONSE	n/a	n/a	n/a	n/a	n/a	n/a	n/a	yellow
246.2449	0.5167	FEEDBACK	n/a	n/a	n/a	n/a	n/a	n/a	n/a	n/a
246.7616	1.0166	ITI	n/a	n/a	n/a	n/a	n/a	n/a	n/a	n/a
247.7782	0.5167	FIXCROSS	n/a	n/a	n/a	n/a	n/a	n/a	n/a	n/a
248.2949	0.7	T_COLOR_NAME	3	Incongruent	żółty	yellow	czerwony	red	hit	n/a
248.9613	n/a	RESPONSE	n/a	n/a	n/a	n/a	n/a	n/a	n/a	yellow
248.9949	0.5166	FEEDBACK	n/a	n/a	n/a	n/a	n/a	n/a	n/a	n/a
249.5116	1.0167	ITI	n/a	n/a	n/a	n/a	n/a	n/a	n/a	n/a
250.5283	0.5167	FIXCROSS	n/a	n/a	n/a	n/a	n/a	n/a	n/a	n/a
251.0449	0.8167	T_COLOR_NAME	4	Neutral	zielony	green	Neutral	Neutral	hit	n/a
251.8349	n/a	RESPONSE	n/a	n/a	n/a	n/a	n/a	n/a	n/a	green
251.8616	0.5166	FEEDBACK	n/a	n/a	n/a	n/a	n/a	n/a	n/a	n/a
252.3783	1.0167	ITI	n/a	n/a	n/a	n/a	n/a	n/a	n/a	n/a
253.395	0.5167	FIXCROSS	n/a	n/a	n/a	n/a	n/a	n/a	n/a	n/a
253.9117	0.5	T_COLOR_NAME	5	Neutral	zielony	green	Neutral	Neutral	hit	n/a
254.3893	n/a	RESPONSE	n/a	n/a	n/a	n/a	n/a	n/a	n/a	green
254.4117	0.5167	FEEDBACK	n/a	n/a	n/a	n/a	n/a	n/a	n/a	n/a
254.9283	1.0167	ITI	n/a	n/a	n/a	n/a	n/a	n/a	n/a	n/a
255.945	0.5167	FIXCROSS	n/a	n/a	n/a	n/a	n/a	n/a	n/a	n/a
256.4617	0.8833	T_COLOR_NAME	6	Incongruent	niebieski	blue	czerwony	red	hit	n/a
257.3107	n/a	RESPONSE	n/a	n/a	n/a	n/a	n/a	n/a	n/a	blue
257.345	0.5167	FEEDBACK	n/a	n/a	n/a	n/a	n/a	n/a	n/a	n/a
257.8617	1.0167	ITI	n/a	n/a	n/a	n/a	n/a	n/a	n/a	n/a
258.8783	0.5167	FIXCROSS	n/a	n/a	n/a	n/a	n/a	n/a	n/a	n/a
259.395	0.6834	T_COLOR_NAME	7	Incongruent	niebieski	blue	żółty	yellow	hit	n/a
260.0566	n/a	RESPONSE	n/a	n/a	n/a	n/a	n/a	n/a	n/a	blue
260.0784	0.5167	FEEDBACK	n/a	n/a	n/a	n/a	n/a	n/a	n/a	n/a
260.595	1.0167	ITI	n/a	n/a	n/a	n/a	n/a	n/a	n/a	n/a
261.6117	0.5167	FIXCROSS	n/a	n/a	n/a	n/a	n/a	n/a	n/a	n/a
262.1284	0.8666	T_COLOR_NAME	8	Neutral	czerwony	red	Neutral	Neutral	hit	n/a
262.9622	n/a	RESPONSE	n/a	n/a	n/a	n/a	n/a	n/a	n/a	red
262.995	0.5167	FEEDBACK	n/a	n/a	n/a	n/a	n/a	n/a	n/a	n/a
263.5117	1.0167	ITI	n/a	n/a	n/a	n/a	n/a	n/a	n/a	n/a
264.5284	0.5167	FIXCROSS	n/a	n/a	n/a	n/a	n/a	n/a	n/a	n/a
265.0451	0.8166	T_COLOR_NAME	9	Incongruent	zielony	green	żółty	yellow	hit	n/a
265.8357	n/a	RESPONSE	n/a	n/a	n/a	n/a	n/a	n/a	n/a	green
265.8617	0.5167	FEEDBACK	n/a	n/a	n/a	n/a	n/a	n/a	n/a	n/a
266.3784	1.0167	ITI	n/a	n/a	n/a	n/a	n/a	n/a	n/a	n/a
267.3951	0.5167	FIXCROSS	n/a	n/a	n/a	n/a	n/a	n/a	n/a	n/a
267.9118	0.75	T_COLOR_NAME	10	Incongruent	niebieski	blue	zielony	green	hit	n/a
268.6295	n/a	RESPONSE	n/a	n/a	n/a	n/a	n/a	n/a	n/a	blue
268.6618	0.5167	FEEDBACK	n/a	n/a	n/a	n/a	n/a	n/a	n/a	n/a
269.1784	1.0166	ITI	n/a	n/a	n/a	n/a	n/a	n/a	n/a	n/a
270.1951	0.5167	FIXCROSS	n/a	n/a	n/a	n/a	n/a	n/a	n/a	n/a
270.7118	0.6667	T_COLOR_NAME	11	Incongruent	czerwony	red	niebieski	blue	hit	n/a
271.3433	n/a	RESPONSE	n/a	n/a	n/a	n/a	n/a	n/a	n/a	red
271.3784	0.5167	FEEDBACK	n/a	n/a	n/a	n/a	n/a	n/a	n/a	n/a
271.8951	1.0167	ITI	n/a	n/a	n/a	n/a	n/a	n/a	n/a	n/a
272.9118	0.5167	FIXCROSS	n/a	n/a	n/a	n/a	n/a	n/a	n/a	n/a
273.4285	0.6833	T_COLOR_NAME	12	Incongruent	czerwony	red	żółty	yellow	hit	n/a
274.0893	n/a	RESPONSE	n/a	n/a	n/a	n/a	n/a	n/a	n/a	red
274.1118	0.5167	FEEDBACK	n/a	n/a	n/a	n/a	n/a	n/a	n/a	n/a
274.6285	1.0333	ITI	n/a	n/a	n/a	n/a	n/a	n/a	n/a	n/a
284.0669	n/a	RESPONSE	n/a	n/a	n/a	n/a	n/a	n/a	n/a	n/a
284.1285	1.0166	ITI	n/a	n/a	n/a	n/a	n/a	n/a	n/a	n/a
285.1452	0.5167	FIXCROSS	n/a	n/a	n/a	n/a	n/a	n/a	n/a	n/a
285.6618	0.8334	COLOR_NAME	1	Incongruent	żółty	yellow	czerwony	red	hit	n/a
286.4775	n/a	RESPONSE	n/a	n/a	n/a	n/a	n/a	n/a	n/a	yellow
286.4952	1.0167	ITI	n/a	n/a	n/a	n/a	n/a	n/a	n/a	n/a
287.5119	0.5167	FIXCROSS	n/a	n/a	n/a	n/a	n/a	n/a	n/a	n/a
288.0286	0.7	COLOR_NAME	2	Neutral	niebieski	blue	Neutral	Neutral	hit	n/a
288.6966	n/a	RESPONSE	n/a	n/a	n/a	n/a	n/a	n/a	n/a	blue
288.7286	1.0167	ITI	n/a	n/a	n/a	n/a	n/a	n/a	n/a	n/a
289.7452	0.5167	FIXCROSS	n/a	n/a	n/a	n/a	n/a	n/a	n/a	n/a
290.2619	0.7	COLOR_NAME	3	Incongruent	czerwony	red	zielony	green	hit	n/a
290.9316	n/a	RESPONSE	n/a	n/a	n/a	n/a	n/a	n/a	n/a	red
290.9619	1.0166	ITI	n/a	n/a	n/a	n/a	n/a	n/a	n/a	n/a
291.9786	0.5167	FIXCROSS	n/a	n/a	n/a	n/a	n/a	n/a	n/a	n/a
292.4952	0.7334	COLOR_NAME	4	Incongruent	zielony	green	niebieski	blue	hit	n/a
293.1985	n/a	RESPONSE	n/a	n/a	n/a	n/a	n/a	n/a	n/a	green
293.2286	1.0167	ITI	n/a	n/a	n/a	n/a	n/a	n/a	n/a	n/a
294.2453	0.5167	FIXCROSS	n/a	n/a	n/a	n/a	n/a	n/a	n/a	n/a
294.7619	0.6667	COLOR_NAME	5	Neutral	zielony	green	Neutral	Neutral	hit	n/a
295.4015	n/a	RESPONSE	n/a	n/a	n/a	n/a	n/a	n/a	n/a	green
295.4286	1.0167	ITI	n/a	n/a	n/a	n/a	n/a	n/a	n/a	n/a
296.4453	0.5167	FIXCROSS	n/a	n/a	n/a	n/a	n/a	n/a	n/a	n/a
296.962	0.8333	COLOR_NAME	6	Incongruent	czerwony	red	żółty	yellow	hit	n/a
297.7643	n/a	RESPONSE	n/a	n/a	n/a	n/a	n/a	n/a	n/a	red
297.7953	1.0167	ITI	n/a	n/a	n/a	n/a	n/a	n/a	n/a	n/a
298.812	0.5167	FIXCROSS	n/a	n/a	n/a	n/a	n/a	n/a	n/a	n/a
299.3287	0.7	COLOR_NAME	7	Incongruent	niebieski	blue	czerwony	red	hit	n/a
299.9992	n/a	RESPONSE	n/a	n/a	n/a	n/a	n/a	n/a	n/a	blue
300.0287	1.0167	ITI	n/a	n/a	n/a	n/a	n/a	n/a	n/a	n/a
301.0453	0.5167	FIXCROSS	n/a	n/a	n/a	n/a	n/a	n/a	n/a	n/a
301.562	0.7	COLOR_NAME	8	Neutral	żółty	yellow	Neutral	Neutral	hit	n/a
302.2342	n/a	RESPONSE	n/a	n/a	n/a	n/a	n/a	n/a	n/a	yellow
302.262	1.0167	ITI	n/a	n/a	n/a	n/a	n/a	n/a	n/a	n/a
303.2787	0.5167	FIXCROSS	n/a	n/a	n/a	n/a	n/a	n/a	n/a	n/a
303.7953	0.5167	COLOR_NAME	9	Incongruent	żółty	yellow	zielony	green	hit	n/a
304.2936	n/a	RESPONSE	n/a	n/a	n/a	n/a	n/a	n/a	n/a	yellow
304.312	1.0167	ITI	n/a	n/a	n/a	n/a	n/a	n/a	n/a	n/a
305.3287	0.5167	FIXCROSS	n/a	n/a	n/a	n/a	n/a	n/a	n/a	n/a
305.8454	0.6833	COLOR_NAME	10	Neutral	niebieski	blue	Neutral	Neutral	hit	n/a
306.4967	n/a	RESPONSE	n/a	n/a	n/a	n/a	n/a	n/a	n/a	blue
306.5287	1.0167	ITI	n/a	n/a	n/a	n/a	n/a	n/a	n/a	n/a
307.5453	0.5167	FIXCROSS	n/a	n/a	n/a	n/a	n/a	n/a	n/a	n/a
308.0621	0.6333	COLOR_NAME	11	Neutral	czerwony	red	Neutral	Neutral	hit	n/a
308.6678	n/a	RESPONSE	n/a	n/a	n/a	n/a	n/a	n/a	n/a	red
308.6954	1.0166	ITI	n/a	n/a	n/a	n/a	n/a	n/a	n/a	n/a
309.712	0.5167	FIXCROSS	n/a	n/a	n/a	n/a	n/a	n/a	n/a	n/a
310.2287	0.8334	COLOR_NAME	12	Incongruent	zielony	green	żółty	yellow	hit	n/a
311.0304	n/a	RESPONSE	n/a	n/a	n/a	n/a	n/a	n/a	n/a	green
311.0621	1.0167	ITI	n/a	n/a	n/a	n/a	n/a	n/a	n/a	n/a
312.0787	0.5167	FIXCROSS	n/a	n/a	n/a	n/a	n/a	n/a	n/a	n/a
312.5954	0.5666	COLOR_NAME	13	Incongruent	zielony	green	czerwony	red	hit	n/a
313.1377	n/a	RESPONSE	n/a	n/a	n/a	n/a	n/a	n/a	n/a	green
313.1621	1.0167	ITI	n/a	n/a	n/a	n/a	n/a	n/a	n/a	n/a
314.1788	0.5167	FIXCROSS	n/a	n/a	n/a	n/a	n/a	n/a	n/a	n/a
314.6954	0.65	COLOR_NAME	14	Incongruent	żółty	yellow	czerwony	red	hit	n/a
315.3248	n/a	RESPONSE	n/a	n/a	n/a	n/a	n/a	n/a	n/a	yellow
315.3454	1.0167	ITI	n/a	n/a	n/a	n/a	n/a	n/a	n/a	n/a
316.3621	0.5167	FIXCROSS	n/a	n/a	n/a	n/a	n/a	n/a	n/a	n/a
316.8788	0.5833	COLOR_NAME	15	Neutral	zielony	green	Neutral	Neutral	hit	n/a
317.4322	n/a	RESPONSE	n/a	n/a	n/a	n/a	n/a	n/a	n/a	green
317.4621	1.0167	ITI	n/a	n/a	n/a	n/a	n/a	n/a	n/a	n/a
318.4788	0.5167	FIXCROSS	n/a	n/a	n/a	n/a	n/a	n/a	n/a	n/a
318.9955	0.6167	COLOR_NAME	16	Neutral	czerwony	red	Neutral	Neutral	hit	n/a
319.5872	n/a	RESPONSE	n/a	n/a	n/a	n/a	n/a	n/a	n/a	red
319.6121	1.0166	ITI	n/a	n/a	n/a	n/a	n/a	n/a	n/a	n/a
320.6288	0.5167	FIXCROSS	n/a	n/a	n/a	n/a	n/a	n/a	n/a	n/a
321.1455	0.6333	COLOR_NAME	17	Neutral	czerwony	red	Neutral	Neutral	hit	n/a
321.7585	n/a	RESPONSE	n/a	n/a	n/a	n/a	n/a	n/a	n/a	red
321.7788	1.0167	ITI	n/a	n/a	n/a	n/a	n/a	n/a	n/a	n/a
322.7955	0.5167	FIXCROSS	n/a	n/a	n/a	n/a	n/a	n/a	n/a	n/a
323.3122	0.6	COLOR_NAME	18	Incongruent	niebieski	blue	żółty	yellow	hit	n/a
323.8817	n/a	RESPONSE	n/a	n/a	n/a	n/a	n/a	n/a	n/a	blue
323.9122	1.0167	ITI	n/a	n/a	n/a	n/a	n/a	n/a	n/a	n/a
324.9288	0.5167	FIXCROSS	n/a	n/a	n/a	n/a	n/a	n/a	n/a	n/a
325.4455	0.9	COLOR_NAME	19	Neutral	zielony	green	Neutral	Neutral	hit	n/a
326.3242	n/a	RESPONSE	n/a	n/a	n/a	n/a	n/a	n/a	n/a	green
326.3455	1.0167	ITI	n/a	n/a	n/a	n/a	n/a	n/a	n/a	n/a
327.3622	0.5167	FIXCROSS	n/a	n/a	n/a	n/a	n/a	n/a	n/a	n/a
327.8789	0.8166	COLOR_NAME	20	Neutral	żółty	yellow	Neutral	Neutral	hit	n/a
328.6709	n/a	RESPONSE	n/a	n/a	n/a	n/a	n/a	n/a	n/a	yellow
328.6955	1.0167	ITI	n/a	n/a	n/a	n/a	n/a	n/a	n/a	n/a
329.7122	0.5167	FIXCROSS	n/a	n/a	n/a	n/a	n/a	n/a	n/a	n/a
330.2289	0.6333	COLOR_NAME	21	Neutral	zielony	green	Neutral	Neutral	hit	n/a
330.842	n/a	RESPONSE	n/a	n/a	n/a	n/a	n/a	n/a	n/a	green
330.8622	1.0166	ITI	n/a	n/a	n/a	n/a	n/a	n/a	n/a	n/a
331.8789	0.5167	FIXCROSS	n/a	n/a	n/a	n/a	n/a	n/a	n/a	n/a
332.3955	0.5334	COLOR_NAME	22	Neutral	czerwony	red	Neutral	Neutral	hit	n/a
332.9014	n/a	RESPONSE	n/a	n/a	n/a	n/a	n/a	n/a	n/a	red
332.9289	1.0167	ITI	n/a	n/a	n/a	n/a	n/a	n/a	n/a	n/a
333.9456	0.5167	FIXCROSS	n/a	n/a	n/a	n/a	n/a	n/a	n/a	n/a
334.4622	0.5333	COLOR_NAME	23	Neutral	niebieski	blue	Neutral	Neutral	hit	n/a
334.9767	n/a	RESPONSE	n/a	n/a	n/a	n/a	n/a	n/a	n/a	blue
334.9956	1.0167	ITI	n/a	n/a	n/a	n/a	n/a	n/a	n/a	n/a
336.0122	0.5167	FIXCROSS	n/a	n/a	n/a	n/a	n/a	n/a	n/a	n/a
336.5289	0.7166	COLOR_NAME	24	Neutral	żółty	yellow	Neutral	Neutral	hit	n/a
337.2118	n/a	RESPONSE	n/a	n/a	n/a	n/a	n/a	n/a	n/a	yellow
337.2456	1.0167	ITI	n/a	n/a	n/a	n/a	n/a	n/a	n/a	n/a
338.2623	0.5167	FIXCROSS	n/a	n/a	n/a	n/a	n/a	n/a	n/a	n/a
338.7789	0.6166	COLOR_NAME	25	Neutral	czerwony	red	Neutral	Neutral	hit	n/a
339.3669	n/a	RESPONSE	n/a	n/a	n/a	n/a	n/a	n/a	n/a	red
339.3956	1.0167	ITI	n/a	n/a	n/a	n/a	n/a	n/a	n/a	n/a
340.4123	0.5167	FIXCROSS	n/a	n/a	n/a	n/a	n/a	n/a	n/a	n/a
340.9289	0.85	COLOR_NAME	26	Incongruent	niebieski	blue	czerwony	red	hit	n/a
341.7615	n/a	RESPONSE	n/a	n/a	n/a	n/a	n/a	n/a	n/a	blue
341.779	1.0167	ITI	n/a	n/a	n/a	n/a	n/a	n/a	n/a	n/a
342.7956	0.5167	FIXCROSS	n/a	n/a	n/a	n/a	n/a	n/a	n/a	n/a
343.3123	0.6334	COLOR_NAME	27	Neutral	czerwony	red	Neutral	Neutral	hit	n/a
343.9167	n/a	RESPONSE	n/a	n/a	n/a	n/a	n/a	n/a	n/a	red
343.9456	1.0167	ITI	n/a	n/a	n/a	n/a	n/a	n/a	n/a	n/a
344.9623	0.5167	FIXCROSS	n/a	n/a	n/a	n/a	n/a	n/a	n/a	n/a
345.479	0.7667	COLOR_NAME	28	Neutral	żółty	yellow	Neutral	Neutral	hit	n/a
346.2156	n/a	RESPONSE	n/a	n/a	n/a	n/a	n/a	n/a	n/a	yellow
346.2457	1.0167	ITI	n/a	n/a	n/a	n/a	n/a	n/a	n/a	n/a
347.2623	0.5167	FIXCROSS	n/a	n/a	n/a	n/a	n/a	n/a	n/a	n/a
347.779	0.7167	COLOR_NAME	29	Incongruent	zielony	green	czerwony	red	hit	n/a
348.4664	n/a	RESPONSE	n/a	n/a	n/a	n/a	n/a	n/a	n/a	green
348.4957	1.0167	ITI	n/a	n/a	n/a	n/a	n/a	n/a	n/a	n/a
349.5123	0.5167	FIXCROSS	n/a	n/a	n/a	n/a	n/a	n/a	n/a	n/a
350.029	0.7666	COLOR_NAME	30	Neutral	niebieski	blue	Neutral	Neutral	hit	n/a
350.7652	n/a	RESPONSE	n/a	n/a	n/a	n/a	n/a	n/a	n/a	blue
350.7957	1.0167	ITI	n/a	n/a	n/a	n/a	n/a	n/a	n/a	n/a
351.8123	0.5167	FIXCROSS	n/a	n/a	n/a	n/a	n/a	n/a	n/a	n/a
352.329	0.8667	COLOR_NAME	31	Neutral	zielony	green	Neutral	Neutral	hit	n/a
353.1759	n/a	RESPONSE	n/a	n/a	n/a	n/a	n/a	n/a	n/a	green
353.1957	1.0167	ITI	n/a	n/a	n/a	n/a	n/a	n/a	n/a	n/a
354.2124	0.5167	FIXCROSS	n/a	n/a	n/a	n/a	n/a	n/a	n/a	n/a
354.7291	0.6667	COLOR_NAME	32	Incongruent	zielony	green	niebieski	blue	hit	n/a
355.3631	n/a	RESPONSE	n/a	n/a	n/a	n/a	n/a	n/a	n/a	green
355.3957	1.0166	ITI	n/a	n/a	n/a	n/a	n/a	n/a	n/a	n/a
356.4124	0.5167	FIXCROSS	n/a	n/a	n/a	n/a	n/a	n/a	n/a	n/a
356.9291	0.6833	COLOR_NAME	33	Incongruent	żółty	yellow	zielony	green	hit	n/a
357.5821	n/a	RESPONSE	n/a	n/a	n/a	n/a	n/a	n/a	n/a	yellow
357.6124	1.0167	ITI	n/a	n/a	n/a	n/a	n/a	n/a	n/a	n/a
358.6291	0.5167	FIXCROSS	n/a	n/a	n/a	n/a	n/a	n/a	n/a	n/a
359.1457	0.95	COLOR_NAME	34	Neutral	niebieski	blue	Neutral	Neutral	hit	n/a
360.0724	n/a	RESPONSE	n/a	n/a	n/a	n/a	n/a	n/a	n/a	blue
360.0957	1.0167	ITI	n/a	n/a	n/a	n/a	n/a	n/a	n/a	n/a
361.1124	0.5167	FIXCROSS	n/a	n/a	n/a	n/a	n/a	n/a	n/a	n/a
361.6291	1.5167	COLOR_NAME	35	Incongruent	niebieski	blue	czerwony	red	hit	n/a
363.1215	n/a	RESPONSE	n/a	n/a	n/a	n/a	n/a	n/a	n/a	blue
363.1458	1.0167	ITI	n/a	n/a	n/a	n/a	n/a	n/a	n/a	n/a
364.1624	0.5167	FIXCROSS	n/a	n/a	n/a	n/a	n/a	n/a	n/a	n/a
364.6791	0.7834	COLOR_NAME	36	Incongruent	czerwony	red	niebieski	blue	hit	n/a
365.4363	n/a	RESPONSE	n/a	n/a	n/a	n/a	n/a	n/a	n/a	red
365.4625	1.0167	ITI	n/a	n/a	n/a	n/a	n/a	n/a	n/a	n/a
366.4791	0.5167	FIXCROSS	n/a	n/a	n/a	n/a	n/a	n/a	n/a	n/a
366.9958	0.55	COLOR_NAME	37	Incongruent	czerwony	red	zielony	green	hit	n/a
367.5276	n/a	RESPONSE	n/a	n/a	n/a	n/a	n/a	n/a	n/a	red
367.5458	1.0167	ITI	n/a	n/a	n/a	n/a	n/a	n/a	n/a	n/a
368.5625	0.5167	FIXCROSS	n/a	n/a	n/a	n/a	n/a	n/a	n/a	n/a
369.0792	0.75	COLOR_NAME	38	Incongruent	zielony	green	niebieski	blue	hit	n/a
369.7945	n/a	RESPONSE	n/a	n/a	n/a	n/a	n/a	n/a	n/a	green
369.8292	1.0166	ITI	n/a	n/a	n/a	n/a	n/a	n/a	n/a	n/a
370.8458	0.5167	FIXCROSS	n/a	n/a	n/a	n/a	n/a	n/a	n/a	n/a
371.3625	0.6833	COLOR_NAME	39	Neutral	czerwony	red	Neutral	Neutral	hit	n/a
372.0135	n/a	RESPONSE	n/a	n/a	n/a	n/a	n/a	n/a	n/a	red
372.0458	1.0167	ITI	n/a	n/a	n/a	n/a	n/a	n/a	n/a	n/a
373.0625	0.5167	FIXCROSS	n/a	n/a	n/a	n/a	n/a	n/a	n/a	n/a
373.5792	0.95	COLOR_NAME	40	Incongruent	zielony	green	żółty	yellow	hit	n/a
374.5039	n/a	RESPONSE	n/a	n/a	n/a	n/a	n/a	n/a	n/a	green
374.5292	1.0167	ITI	n/a	n/a	n/a	n/a	n/a	n/a	n/a	n/a
375.5459	0.5167	FIXCROSS	n/a	n/a	n/a	n/a	n/a	n/a	n/a	n/a
376.0625	0.8167	COLOR_NAME	41	Neutral	niebieski	blue	Neutral	Neutral	hit	n/a
376.8507	n/a	RESPONSE	n/a	n/a	n/a	n/a	n/a	n/a	n/a	blue
376.8792	1.0167	ITI	n/a	n/a	n/a	n/a	n/a	n/a	n/a	n/a
377.8959	0.5166	FIXCROSS	n/a	n/a	n/a	n/a	n/a	n/a	n/a	n/a
378.4125	0.7334	COLOR_NAME	42	Incongruent	zielony	green	czerwony	red	hit	n/a
379.1176	n/a	RESPONSE	n/a	n/a	n/a	n/a	n/a	n/a	n/a	green
379.1459	1.0167	ITI	n/a	n/a	n/a	n/a	n/a	n/a	n/a	n/a
380.1626	0.5166	FIXCROSS	n/a	n/a	n/a	n/a	n/a	n/a	n/a	n/a
380.6792	0.8	COLOR_NAME	43	Incongruent	czerwony	red	niebieski	blue	hit	n/a
381.4483	n/a	RESPONSE	n/a	n/a	n/a	n/a	n/a	n/a	n/a	red
381.4792	1.0166	ITI	n/a	n/a	n/a	n/a	n/a	n/a	n/a	n/a
382.4959	0.5167	FIXCROSS	n/a	n/a	n/a	n/a	n/a	n/a	n/a	n/a
383.0126	0.5667	COLOR_NAME	44	Incongruent	czerwony	red	niebieski	blue	hit	n/a
383.5556	n/a	RESPONSE	n/a	n/a	n/a	n/a	n/a	n/a	n/a	red
383.5793	1.0166	ITI	n/a	n/a	n/a	n/a	n/a	n/a	n/a	n/a
384.5959	0.5167	FIXCROSS	n/a	n/a	n/a	n/a	n/a	n/a	n/a	n/a
385.1126	0.75	COLOR_NAME	45	Neutral	żółty	yellow	Neutral	Neutral	hit	n/a
385.8385	n/a	RESPONSE	n/a	n/a	n/a	n/a	n/a	n/a	n/a	yellow
385.8626	1.0167	ITI	n/a	n/a	n/a	n/a	n/a	n/a	n/a	n/a
386.8793	0.5167	FIXCROSS	n/a	n/a	n/a	n/a	n/a	n/a	n/a	n/a
387.396	0.85	COLOR_NAME	46	Incongruent	niebieski	blue	żółty	yellow	hit	n/a
388.2171	n/a	RESPONSE	n/a	n/a	n/a	n/a	n/a	n/a	n/a	blue
388.246	1.0167	ITI	n/a	n/a	n/a	n/a	n/a	n/a	n/a	n/a
389.2626	0.5167	FIXCROSS	n/a	n/a	n/a	n/a	n/a	n/a	n/a	n/a
389.7793	0.8333	COLOR_NAME	47	Incongruent	żółty	yellow	niebieski	blue	hit	n/a
390.5798	n/a	RESPONSE	n/a	n/a	n/a	n/a	n/a	n/a	n/a	yellow
390.6126	1.0167	ITI	n/a	n/a	n/a	n/a	n/a	n/a	n/a	n/a
391.6293	0.5167	FIXCROSS	n/a	n/a	n/a	n/a	n/a	n/a	n/a	n/a
392.146	0.5667	COLOR_NAME	48	Neutral	żółty	yellow	Neutral	Neutral	hit	n/a
392.6871	n/a	RESPONSE	n/a	n/a	n/a	n/a	n/a	n/a	n/a	yellow
392.7127	1.0166	ITI	n/a	n/a	n/a	n/a	n/a	n/a	n/a	n/a
393.7293	0.5167	FIXCROSS	n/a	n/a	n/a	n/a	n/a	n/a	n/a	n/a
394.246	0.8	COLOR_NAME	49	Incongruent	zielony	green	żółty	yellow	hit	n/a
395.0179	n/a	RESPONSE	n/a	n/a	n/a	n/a	n/a	n/a	n/a	green
395.046	1.0166	ITI	n/a	n/a	n/a	n/a	n/a	n/a	n/a	n/a
396.0627	0.5167	FIXCROSS	n/a	n/a	n/a	n/a	n/a	n/a	n/a	n/a
396.5793	0.5334	COLOR_NAME	50	Neutral	zielony	green	Neutral	Neutral	hit	n/a
397.0932	n/a	RESPONSE	n/a	n/a	n/a	n/a	n/a	n/a	n/a	green
397.1127	1.0167	ITI	n/a	n/a	n/a	n/a	n/a	n/a	n/a	n/a
398.1294	0.5166	FIXCROSS	n/a	n/a	n/a	n/a	n/a	n/a	n/a	n/a
398.646	0.7	COLOR_NAME	51	Incongruent	żółty	yellow	zielony	green	hit	n/a
399.3282	n/a	RESPONSE	n/a	n/a	n/a	n/a	n/a	n/a	n/a	yellow
399.346	1.0167	ITI	n/a	n/a	n/a	n/a	n/a	n/a	n/a	n/a
400.3627	0.5166	FIXCROSS	n/a	n/a	n/a	n/a	n/a	n/a	n/a	n/a
400.8794	0.7167	COLOR_NAME	52	Incongruent	czerwony	red	żółty	yellow	hit	n/a
401.5632	n/a	RESPONSE	n/a	n/a	n/a	n/a	n/a	n/a	n/a	red
401.5961	1.0166	ITI	n/a	n/a	n/a	n/a	n/a	n/a	n/a	n/a
402.6127	0.5167	FIXCROSS	n/a	n/a	n/a	n/a	n/a	n/a	n/a	n/a
403.1294	0.8333	COLOR_NAME	53	Neutral	żółty	yellow	Neutral	Neutral	hit	n/a
403.9418	n/a	RESPONSE	n/a	n/a	n/a	n/a	n/a	n/a	n/a	yellow
403.9628	1.0167	ITI	n/a	n/a	n/a	n/a	n/a	n/a	n/a	n/a
404.9794	0.5166	FIXCROSS	n/a	n/a	n/a	n/a	n/a	n/a	n/a	n/a
405.4961	0.6667	COLOR_NAME	54	Incongruent	żółty	yellow	niebieski	blue	hit	n/a
406.1448	n/a	RESPONSE	n/a	n/a	n/a	n/a	n/a	n/a	n/a	yellow
406.1628	1.0167	ITI	n/a	n/a	n/a	n/a	n/a	n/a	n/a	n/a
407.1794	0.5166	FIXCROSS	n/a	n/a	n/a	n/a	n/a	n/a	n/a	n/a
407.6961	0.7333	COLOR_NAME	55	Incongruent	niebieski	blue	zielony	green	hit	n/a
408.3958	n/a	RESPONSE	n/a	n/a	n/a	n/a	n/a	n/a	n/a	blue
408.4294	1.0167	ITI	n/a	n/a	n/a	n/a	n/a	n/a	n/a	n/a
409.4461	0.5167	FIXCROSS	n/a	n/a	n/a	n/a	n/a	n/a	n/a	n/a
409.9628	0.65	COLOR_NAME	56	Neutral	zielony	green	Neutral	Neutral	hit	n/a
410.5829	n/a	RESPONSE	n/a	n/a	n/a	n/a	n/a	n/a	n/a	green
410.6128	1.0167	ITI	n/a	n/a	n/a	n/a	n/a	n/a	n/a	n/a
411.6295	0.5167	FIXCROSS	n/a	n/a	n/a	n/a	n/a	n/a	n/a	n/a
412.1462	0.8333	COLOR_NAME	57	Neutral	niebieski	blue	Neutral	Neutral	hit	n/a
412.9615	n/a	RESPONSE	n/a	n/a	n/a	n/a	n/a	n/a	n/a	blue
412.9795	1.0167	ITI	n/a	n/a	n/a	n/a	n/a	n/a	n/a	n/a
413.9962	0.5166	FIXCROSS	n/a	n/a	n/a	n/a	n/a	n/a	n/a	n/a
414.5128	0.95	COLOR_NAME	58	Neutral	żółty	yellow	Neutral	Neutral	hit	n/a
415.436	n/a	RESPONSE	n/a	n/a	n/a	n/a	n/a	n/a	n/a	yellow
415.4628	1.0167	ITI	n/a	n/a	n/a	n/a	n/a	n/a	n/a	n/a
416.4795	0.5167	FIXCROSS	n/a	n/a	n/a	n/a	n/a	n/a	n/a	n/a
416.9962	0.9	COLOR_NAME	59	Incongruent	niebieski	blue	zielony	green	hit	n/a
417.8785	n/a	RESPONSE	n/a	n/a	n/a	n/a	n/a	n/a	n/a	blue
417.8962	1.0167	ITI	n/a	n/a	n/a	n/a	n/a	n/a	n/a	n/a
418.9129	0.5167	FIXCROSS	n/a	n/a	n/a	n/a	n/a	n/a	n/a	n/a
419.4295	0.6667	COLOR_NAME	60	Neutral	niebieski	blue	Neutral	Neutral	hit	n/a
420.0656	n/a	RESPONSE	n/a	n/a	n/a	n/a	n/a	n/a	n/a	blue
420.0962	1.0167	ITI	n/a	n/a	n/a	n/a	n/a	n/a	n/a	n/a
421.1129	0.5167	FIXCROSS	n/a	n/a	n/a	n/a	n/a	n/a	n/a	n/a
421.6295	0.75	COLOR_NAME	61	Neutral	czerwony	red	Neutral	Neutral	hit	n/a
422.3484	n/a	RESPONSE	n/a	n/a	n/a	n/a	n/a	n/a	n/a	red
422.3796	1.0167	ITI	n/a	n/a	n/a	n/a	n/a	n/a	n/a	n/a
423.3962	0.5167	FIXCROSS	n/a	n/a	n/a	n/a	n/a	n/a	n/a	n/a
423.9129	0.5	COLOR_NAME	62	Incongruent	czerwony	red	żółty	yellow	hit	n/a
424.3918	n/a	RESPONSE	n/a	n/a	n/a	n/a	n/a	n/a	n/a	red
424.4129	1.0166	ITI	n/a	n/a	n/a	n/a	n/a	n/a	n/a	n/a
425.4295	0.5167	FIXCROSS	n/a	n/a	n/a	n/a	n/a	n/a	n/a	n/a
425.9462	0.6833	COLOR_NAME	63	Neutral	zielony	green	Neutral	Neutral	hit	n/a
426.6109	n/a	RESPONSE	n/a	n/a	n/a	n/a	n/a	n/a	n/a	green
426.6296	1.0166	ITI	n/a	n/a	n/a	n/a	n/a	n/a	n/a	n/a
427.6462	0.5167	FIXCROSS	n/a	n/a	n/a	n/a	n/a	n/a	n/a	n/a
428.1629	0.4667	COLOR_NAME	64	Neutral	zielony	green	Neutral	Neutral	hit	n/a
428.6063	n/a	RESPONSE	n/a	n/a	n/a	n/a	n/a	n/a	n/a	green
428.6296	1.0167	ITI	n/a	n/a	n/a	n/a	n/a	n/a	n/a	n/a
429.6463	0.5167	FIXCROSS	n/a	n/a	n/a	n/a	n/a	n/a	n/a	n/a
430.163	0.6833	COLOR_NAME	65	Incongruent	żółty	yellow	niebieski	blue	hit	n/a
430.8253	n/a	RESPONSE	n/a	n/a	n/a	n/a	n/a	n/a	n/a	yellow
430.8463	1.0166	ITI	n/a	n/a	n/a	n/a	n/a	n/a	n/a	n/a
431.8629	0.5167	FIXCROSS	n/a	n/a	n/a	n/a	n/a	n/a	n/a	n/a
432.3796	0.9167	COLOR_NAME	66	Incongruent	niebieski	blue	żółty	yellow	hit	n/a
433.2679	n/a	RESPONSE	n/a	n/a	n/a	n/a	n/a	n/a	n/a	blue
433.2963	1.0167	ITI	n/a	n/a	n/a	n/a	n/a	n/a	n/a	n/a
434.3129	0.5167	FIXCROSS	n/a	n/a	n/a	n/a	n/a	n/a	n/a	n/a
434.8296	0.6833	COLOR_NAME	67	Incongruent	czerwony	red	zielony	green	hit	n/a
435.4869	n/a	RESPONSE	n/a	n/a	n/a	n/a	n/a	n/a	n/a	red
435.513	1.0167	ITI	n/a	n/a	n/a	n/a	n/a	n/a	n/a	n/a
436.5297	0.5167	FIXCROSS	n/a	n/a	n/a	n/a	n/a	n/a	n/a	n/a
437.0463	0.7333	COLOR_NAME	68	Neutral	żółty	yellow	Neutral	Neutral	hit	n/a
437.7537	n/a	RESPONSE	n/a	n/a	n/a	n/a	n/a	n/a	n/a	yellow
437.7797	1.0167	ITI	n/a	n/a	n/a	n/a	n/a	n/a	n/a	n/a
438.7963	0.5166	FIXCROSS	n/a	n/a	n/a	n/a	n/a	n/a	n/a	n/a
439.313	0.8333	COLOR_NAME	69	Neutral	czerwony	red	Neutral	Neutral	hit	n/a
440.1165	n/a	RESPONSE	n/a	n/a	n/a	n/a	n/a	n/a	n/a	red
440.1463	1.0167	ITI	n/a	n/a	n/a	n/a	n/a	n/a	n/a	n/a
441.163	0.5167	FIXCROSS	n/a	n/a	n/a	n/a	n/a	n/a	n/a	n/a
441.6797	1.0833	COLOR_NAME	70	Incongruent	żółty	yellow	czerwony	red	incorrect	n/a
442.7345	n/a	RESPONSE	n/a	n/a	n/a	n/a	n/a	n/a	n/a	red
442.763	1.0167	ITI	n/a	n/a	n/a	n/a	n/a	n/a	n/a	n/a
443.7797	0.5166	FIXCROSS	n/a	n/a	n/a	n/a	n/a	n/a	n/a	n/a
444.2964	0.8667	COLOR_NAME	71	Neutral	niebieski	blue	Neutral	Neutral	hit	n/a
445.1291	n/a	RESPONSE	n/a	n/a	n/a	n/a	n/a	n/a	n/a	blue
445.1631	1.0167	ITI	n/a	n/a	n/a	n/a	n/a	n/a	n/a	n/a
446.1797	0.5167	FIXCROSS	n/a	n/a	n/a	n/a	n/a	n/a	n/a	n/a
446.6964	1.0333	COLOR_NAME	72	Incongruent	niebieski	blue	zielony	green	hit	n/a
447.6993	n/a	RESPONSE	n/a	n/a	n/a	n/a	n/a	n/a	n/a	blue
447.7297	1.0333	ITI	n/a	n/a	n/a	n/a	n/a	n/a	n/a	n/a
451.0677	n/a	RESPONSE	n/a	n/a	n/a	n/a	n/a	n/a	n/a	n/a
