onset	duration	trial_type	trial_number	stroop_condition	stim_text(PL)	stim_text(eng)	stim_color(PL)	stim_color(eng)	response_type	response_color
0.0	n/a	RESPONSE	n/a	n/a	n/a	n/a	n/a	n/a	n/a	n/a
0.0261	1.0167	ITI	n/a	n/a	n/a	n/a	n/a	n/a	n/a	n/a
1.0428	0.5	FIXCROSS	n/a	n/a	n/a	n/a	n/a	n/a	n/a	n/a
1.5427	1.2166	T_INK	1	Incongruent	niebieski	blue	czerwony	red	hit	n/a
2.7499	n/a	RESPONSE	n/a	n/a	n/a	n/a	n/a	n/a	n/a	red
2.7594	0.5	FEEDBACK	n/a	n/a	n/a	n/a	n/a	n/a	n/a	n/a
3.2594	1.0	ITI	n/a	n/a	n/a	n/a	n/a	n/a	n/a	n/a
4.2594	0.5	FIXCROSS	n/a	n/a	n/a	n/a	n/a	n/a	n/a	n/a
4.7594	0.5	T_INK	2	Neutral	xxxxx	xxxxx	zielony	green	hit	n/a
5.2442	n/a	RESPONSE	n/a	n/a	n/a	n/a	n/a	n/a	n/a	green
5.2593	0.5	FEEDBACK	n/a	n/a	n/a	n/a	n/a	n/a	n/a	n/a
5.7593	1.0	ITI	n/a	n/a	n/a	n/a	n/a	n/a	n/a	n/a
6.7593	0.5	FIXCROSS	n/a	n/a	n/a	n/a	n/a	n/a	n/a	n/a
7.2593	0.4833	T_INK	3	Neutral	xxxxxxxxx	xxxxxxxxx	czerwony	red	hit	n/a
7.7224	n/a	RESPONSE	n/a	n/a	n/a	n/a	n/a	n/a	n/a	red
7.7426	0.5	FEEDBACK	n/a	n/a	n/a	n/a	n/a	n/a	n/a	n/a
8.2426	1.0	ITI	n/a	n/a	n/a	n/a	n/a	n/a	n/a	n/a
9.2426	0.5	FIXCROSS	n/a	n/a	n/a	n/a	n/a	n/a	n/a	n/a
9.7426	0.5667	T_INK	4	Neutral	xxxxxxxxx	xxxxxxxxx	zielony	green	hit	n/a
10.2965	n/a	RESPONSE	n/a	n/a	n/a	n/a	n/a	n/a	n/a	green
10.3092	0.5	FEEDBACK	n/a	n/a	n/a	n/a	n/a	n/a	n/a	n/a
10.8092	1.0166	ITI	n/a	n/a	n/a	n/a	n/a	n/a	n/a	n/a
11.8259	0.5	FIXCROSS	n/a	n/a	n/a	n/a	n/a	n/a	n/a	n/a
12.3259	0.6167	T_INK	5	Incongruent	żółty	yellow	zielony	green	hit	n/a
12.9346	n/a	RESPONSE	n/a	n/a	n/a	n/a	n/a	n/a	n/a	green
12.9425	0.5	FEEDBACK	n/a	n/a	n/a	n/a	n/a	n/a	n/a	n/a
13.4425	1.0	ITI	n/a	n/a	n/a	n/a	n/a	n/a	n/a	n/a
14.4425	0.5	FIXCROSS	n/a	n/a	n/a	n/a	n/a	n/a	n/a	n/a
14.9425	0.5	T_INK	6	Incongruent	niebieski	blue	zielony	green	hit	n/a
15.4288	n/a	RESPONSE	n/a	n/a	n/a	n/a	n/a	n/a	n/a	green
15.4425	0.5	FEEDBACK	n/a	n/a	n/a	n/a	n/a	n/a	n/a	n/a
15.9425	1.0	ITI	n/a	n/a	n/a	n/a	n/a	n/a	n/a	n/a
16.9425	0.5	FIXCROSS	n/a	n/a	n/a	n/a	n/a	n/a	n/a	n/a
17.4424	0.6333	T_INK	7	Incongruent	niebieski	blue	żółty	yellow	hit	n/a
18.067	n/a	RESPONSE	n/a	n/a	n/a	n/a	n/a	n/a	n/a	yellow
18.0758	0.5	FEEDBACK	n/a	n/a	n/a	n/a	n/a	n/a	n/a	n/a
18.5757	1.0	ITI	n/a	n/a	n/a	n/a	n/a	n/a	n/a	n/a
19.5757	0.5	FIXCROSS	n/a	n/a	n/a	n/a	n/a	n/a	n/a	n/a
20.0757	0.5166	T_INK	8	Incongruent	czerwony	red	zielony	green	hit	n/a
20.5772	n/a	RESPONSE	n/a	n/a	n/a	n/a	n/a	n/a	n/a	green
20.5924	0.5	FEEDBACK	n/a	n/a	n/a	n/a	n/a	n/a	n/a	n/a
21.0924	1.0	ITI	n/a	n/a	n/a	n/a	n/a	n/a	n/a	n/a
22.0923	0.5	FIXCROSS	n/a	n/a	n/a	n/a	n/a	n/a	n/a	n/a
22.5923	0.6833	T_INK	9	Neutral	xxxxx	xxxxx	niebieski	blue	hit	n/a
23.2633	n/a	RESPONSE	n/a	n/a	n/a	n/a	n/a	n/a	n/a	blue
23.2757	0.5	FEEDBACK	n/a	n/a	n/a	n/a	n/a	n/a	n/a	n/a
23.7756	1.0	ITI	n/a	n/a	n/a	n/a	n/a	n/a	n/a	n/a
24.7756	0.5	FIXCROSS	n/a	n/a	n/a	n/a	n/a	n/a	n/a	n/a
25.2756	0.5667	T_INK	10	Neutral	xxxxxxx	xxxxxxx	żółty	yellow	hit	n/a
25.8374	n/a	RESPONSE	n/a	n/a	n/a	n/a	n/a	n/a	n/a	yellow
25.8423	0.5	FEEDBACK	n/a	n/a	n/a	n/a	n/a	n/a	n/a	n/a
26.3423	1.0	ITI	n/a	n/a	n/a	n/a	n/a	n/a	n/a	n/a
27.3422	0.5	FIXCROSS	n/a	n/a	n/a	n/a	n/a	n/a	n/a	n/a
27.8422	0.6333	T_INK	11	Incongruent	żółty	yellow	niebieski	blue	hit	n/a
28.4595	n/a	RESPONSE	n/a	n/a	n/a	n/a	n/a	n/a	n/a	blue
28.4756	0.5	FEEDBACK	n/a	n/a	n/a	n/a	n/a	n/a	n/a	n/a
28.9755	1.0	ITI	n/a	n/a	n/a	n/a	n/a	n/a	n/a	n/a
29.9755	0.5	FIXCROSS	n/a	n/a	n/a	n/a	n/a	n/a	n/a	n/a
30.4755	0.5	T_INK	12	Incongruent	zielony	green	żółty	yellow	hit	n/a
30.9697	n/a	RESPONSE	n/a	n/a	n/a	n/a	n/a	n/a	n/a	yellow
30.9755	0.5	FEEDBACK	n/a	n/a	n/a	n/a	n/a	n/a	n/a	n/a
31.4755	1.0	ITI	n/a	n/a	n/a	n/a	n/a	n/a	n/a	n/a
39.9072	n/a	RESPONSE	n/a	n/a	n/a	n/a	n/a	n/a	n/a	n/a
39.942	1.0	ITI	n/a	n/a	n/a	n/a	n/a	n/a	n/a	n/a
40.942	0.5	FIXCROSS	n/a	n/a	n/a	n/a	n/a	n/a	n/a	n/a
41.442	0.5166	INK	1	Neutral	xxxxxxx	xxxxxxx	żółty	yellow	hit	n/a
41.9539	n/a	RESPONSE	n/a	n/a	n/a	n/a	n/a	n/a	n/a	yellow
41.9586	1.0	ITI	n/a	n/a	n/a	n/a	n/a	n/a	n/a	n/a
42.9586	0.5	FIXCROSS	n/a	n/a	n/a	n/a	n/a	n/a	n/a	n/a
43.4586	0.4667	INK	2	Neutral	xxxxxxx	xxxxxxx	czerwony	red	hit	n/a
43.9205	n/a	RESPONSE	n/a	n/a	n/a	n/a	n/a	n/a	n/a	red
43.9252	1.0	ITI	n/a	n/a	n/a	n/a	n/a	n/a	n/a	n/a
44.9252	0.5	FIXCROSS	n/a	n/a	n/a	n/a	n/a	n/a	n/a	n/a
45.4252	0.4333	INK	3	Incongruent	zielony	green	niebieski	blue	hit	n/a
45.8551	n/a	RESPONSE	n/a	n/a	n/a	n/a	n/a	n/a	n/a	blue
45.8585	1.0	ITI	n/a	n/a	n/a	n/a	n/a	n/a	n/a	n/a
46.8585	0.5	FIXCROSS	n/a	n/a	n/a	n/a	n/a	n/a	n/a	n/a
47.3585	0.45	INK	4	Neutral	xxxxxxxx	xxxxxxxx	żółty	yellow	hit	n/a
47.8057	n/a	RESPONSE	n/a	n/a	n/a	n/a	n/a	n/a	n/a	yellow
47.8085	1.0	ITI	n/a	n/a	n/a	n/a	n/a	n/a	n/a	n/a
48.8085	0.5	FIXCROSS	n/a	n/a	n/a	n/a	n/a	n/a	n/a	n/a
49.3084	0.3667	INK	5	Incongruent	czerwony	red	zielony	green	hit	n/a
49.6603	n/a	RESPONSE	n/a	n/a	n/a	n/a	n/a	n/a	n/a	green
49.6751	1.0	ITI	n/a	n/a	n/a	n/a	n/a	n/a	n/a	n/a
50.6751	0.5	FIXCROSS	n/a	n/a	n/a	n/a	n/a	n/a	n/a	n/a
51.1751	0.45	INK	6	Incongruent	zielony	green	czerwony	red	hit	n/a
51.6109	n/a	RESPONSE	n/a	n/a	n/a	n/a	n/a	n/a	n/a	red
51.6251	0.9999	ITI	n/a	n/a	n/a	n/a	n/a	n/a	n/a	n/a
52.625	0.5001	FIXCROSS	n/a	n/a	n/a	n/a	n/a	n/a	n/a	n/a
53.1251	0.4833	INK	7	Neutral	xxxxxxxxx	xxxxxxxxx	czerwony	red	hit	n/a
53.5935	n/a	RESPONSE	n/a	n/a	n/a	n/a	n/a	n/a	n/a	red
53.6084	1.0	ITI	n/a	n/a	n/a	n/a	n/a	n/a	n/a	n/a
54.6084	0.5	FIXCROSS	n/a	n/a	n/a	n/a	n/a	n/a	n/a	n/a
55.1084	0.5167	INK	8	Neutral	xxxxxxx	xxxxxxx	żółty	yellow	hit	n/a
55.608	n/a	RESPONSE	n/a	n/a	n/a	n/a	n/a	n/a	n/a	yellow
55.625	1.0	ITI	n/a	n/a	n/a	n/a	n/a	n/a	n/a	n/a
56.625	0.5	FIXCROSS	n/a	n/a	n/a	n/a	n/a	n/a	n/a	n/a
57.125	0.4167	INK	9	Incongruent	niebieski	blue	zielony	green	hit	n/a
57.5267	n/a	RESPONSE	n/a	n/a	n/a	n/a	n/a	n/a	n/a	green
57.5416	1.0	ITI	n/a	n/a	n/a	n/a	n/a	n/a	n/a	n/a
58.5416	0.5	FIXCROSS	n/a	n/a	n/a	n/a	n/a	n/a	n/a	n/a
59.0416	0.3667	INK	10	Neutral	xxxxxxx	xxxxxxx	czerwony	red	hit	n/a
59.3973	n/a	RESPONSE	n/a	n/a	n/a	n/a	n/a	n/a	n/a	red
59.4083	1.0	ITI	n/a	n/a	n/a	n/a	n/a	n/a	n/a	n/a
60.4082	0.5	FIXCROSS	n/a	n/a	n/a	n/a	n/a	n/a	n/a	n/a
60.9082	0.45	INK	11	Incongruent	niebieski	blue	czerwony	red	hit	n/a
61.348	n/a	RESPONSE	n/a	n/a	n/a	n/a	n/a	n/a	n/a	red
61.3582	1.0	ITI	n/a	n/a	n/a	n/a	n/a	n/a	n/a	n/a
62.3582	0.5	FIXCROSS	n/a	n/a	n/a	n/a	n/a	n/a	n/a	n/a
62.8582	0.4667	INK	12	Neutral	xxxxxxxxx	xxxxxxxxx	żółty	yellow	hit	n/a
63.3145	n/a	RESPONSE	n/a	n/a	n/a	n/a	n/a	n/a	n/a	yellow
63.3249	1.0	ITI	n/a	n/a	n/a	n/a	n/a	n/a	n/a	n/a
64.3248	0.5	FIXCROSS	n/a	n/a	n/a	n/a	n/a	n/a	n/a	n/a
64.8248	0.4	INK	13	Neutral	xxxxx	xxxxx	czerwony	red	hit	n/a
65.2171	n/a	RESPONSE	n/a	n/a	n/a	n/a	n/a	n/a	n/a	red
65.2248	1.0	ITI	n/a	n/a	n/a	n/a	n/a	n/a	n/a	n/a
66.2248	0.5	FIXCROSS	n/a	n/a	n/a	n/a	n/a	n/a	n/a	n/a
66.7248	0.3833	INK	14	Neutral	xxxxxxx	xxxxxxx	niebieski	blue	hit	n/a
67.1038	n/a	RESPONSE	n/a	n/a	n/a	n/a	n/a	n/a	n/a	blue
67.1081	1.0	ITI	n/a	n/a	n/a	n/a	n/a	n/a	n/a	n/a
68.1081	0.5	FIXCROSS	n/a	n/a	n/a	n/a	n/a	n/a	n/a	n/a
68.6081	0.4833	INK	15	Neutral	xxxxxxxx	xxxxxxxx	niebieski	blue	hit	n/a
69.0864	n/a	RESPONSE	n/a	n/a	n/a	n/a	n/a	n/a	n/a	blue
69.0914	1.0	ITI	n/a	n/a	n/a	n/a	n/a	n/a	n/a	n/a
70.0914	0.5	FIXCROSS	n/a	n/a	n/a	n/a	n/a	n/a	n/a	n/a
70.5914	0.4167	INK	16	Incongruent	żółty	yellow	czerwony	red	hit	n/a
71.005	n/a	RESPONSE	n/a	n/a	n/a	n/a	n/a	n/a	n/a	red
71.008	1.0	ITI	n/a	n/a	n/a	n/a	n/a	n/a	n/a	n/a
72.008	0.5	FIXCROSS	n/a	n/a	n/a	n/a	n/a	n/a	n/a	n/a
72.508	0.4333	INK	17	Neutral	xxxxx	xxxxx	zielony	green	hit	n/a
72.9236	n/a	RESPONSE	n/a	n/a	n/a	n/a	n/a	n/a	n/a	green
72.9413	1.0	ITI	n/a	n/a	n/a	n/a	n/a	n/a	n/a	n/a
73.9413	0.5	FIXCROSS	n/a	n/a	n/a	n/a	n/a	n/a	n/a	n/a
74.4413	0.5	INK	18	Neutral	xxxxxxxx	xxxxxxxx	żółty	yellow	hit	n/a
74.9222	n/a	RESPONSE	n/a	n/a	n/a	n/a	n/a	n/a	n/a	yellow
74.9413	1.0	ITI	n/a	n/a	n/a	n/a	n/a	n/a	n/a	n/a
75.9413	0.5	FIXCROSS	n/a	n/a	n/a	n/a	n/a	n/a	n/a	n/a
76.4413	0.3667	INK	19	Neutral	xxxxx	xxxxx	czerwony	red	hit	n/a
76.7929	n/a	RESPONSE	n/a	n/a	n/a	n/a	n/a	n/a	n/a	red
76.8079	1.0	ITI	n/a	n/a	n/a	n/a	n/a	n/a	n/a	n/a
77.8079	0.5	FIXCROSS	n/a	n/a	n/a	n/a	n/a	n/a	n/a	n/a
78.3079	0.4	INK	20	Incongruent	zielony	green	żółty	yellow	hit	n/a
78.6956	n/a	RESPONSE	n/a	n/a	n/a	n/a	n/a	n/a	n/a	yellow
78.7079	1.0	ITI	n/a	n/a	n/a	n/a	n/a	n/a	n/a	n/a
79.7079	0.5	FIXCROSS	n/a	n/a	n/a	n/a	n/a	n/a	n/a	n/a
80.2079	0.6333	INK	21	Incongruent	żółty	yellow	niebieski	blue	hit	n/a
80.8221	n/a	RESPONSE	n/a	n/a	n/a	n/a	n/a	n/a	n/a	blue
80.8412	0.9999	ITI	n/a	n/a	n/a	n/a	n/a	n/a	n/a	n/a
81.8411	0.5001	FIXCROSS	n/a	n/a	n/a	n/a	n/a	n/a	n/a	n/a
82.3411	0.4667	INK	22	Neutral	xxxxxxxx	xxxxxxxx	żółty	yellow	hit	n/a
82.8045	n/a	RESPONSE	n/a	n/a	n/a	n/a	n/a	n/a	n/a	yellow
82.8078	1.0	ITI	n/a	n/a	n/a	n/a	n/a	n/a	n/a	n/a
83.8078	0.5	FIXCROSS	n/a	n/a	n/a	n/a	n/a	n/a	n/a	n/a
84.3078	0.4667	INK	23	Neutral	xxxxxxxx	xxxxxxxx	zielony	green	hit	n/a
84.7551	n/a	RESPONSE	n/a	n/a	n/a	n/a	n/a	n/a	n/a	green
84.7744	1.0	ITI	n/a	n/a	n/a	n/a	n/a	n/a	n/a	n/a
85.7744	0.5	FIXCROSS	n/a	n/a	n/a	n/a	n/a	n/a	n/a	n/a
86.2744	0.45	INK	24	Incongruent	zielony	green	niebieski	blue	hit	n/a
86.7057	n/a	RESPONSE	n/a	n/a	n/a	n/a	n/a	n/a	n/a	blue
86.7244	1.0	ITI	n/a	n/a	n/a	n/a	n/a	n/a	n/a	n/a
87.7244	0.5	FIXCROSS	n/a	n/a	n/a	n/a	n/a	n/a	n/a	n/a
88.2244	0.3333	INK	25	Neutral	xxxxxxxxx	xxxxxxxxx	żółty	yellow	hit	n/a
88.5444	n/a	RESPONSE	n/a	n/a	n/a	n/a	n/a	n/a	n/a	yellow
88.5577	1.0	ITI	n/a	n/a	n/a	n/a	n/a	n/a	n/a	n/a
89.5577	0.5	FIXCROSS	n/a	n/a	n/a	n/a	n/a	n/a	n/a	n/a
90.0576	0.3667	INK	26	Neutral	xxxxxxxxx	xxxxxxxxx	zielony	green	hit	n/a
90.4151	n/a	RESPONSE	n/a	n/a	n/a	n/a	n/a	n/a	n/a	green
90.4243	1.0	ITI	n/a	n/a	n/a	n/a	n/a	n/a	n/a	n/a
91.4243	0.5	FIXCROSS	n/a	n/a	n/a	n/a	n/a	n/a	n/a	n/a
91.9243	0.6833	INK	27	Neutral	xxxxxxxxx	xxxxxxxxx	zielony	green	hit	n/a
92.5895	n/a	RESPONSE	n/a	n/a	n/a	n/a	n/a	n/a	n/a	green
92.6076	1.0	ITI	n/a	n/a	n/a	n/a	n/a	n/a	n/a	n/a
93.6076	0.5	FIXCROSS	n/a	n/a	n/a	n/a	n/a	n/a	n/a	n/a
94.1076	0.5	INK	28	Incongruent	zielony	green	czerwony	red	hit	n/a
94.604	n/a	RESPONSE	n/a	n/a	n/a	n/a	n/a	n/a	n/a	red
94.6075	1.0	ITI	n/a	n/a	n/a	n/a	n/a	n/a	n/a	n/a
95.6075	0.5	FIXCROSS	n/a	n/a	n/a	n/a	n/a	n/a	n/a	n/a
96.1075	0.4	INK	29	Neutral	xxxxxxxxx	xxxxxxxxx	zielony	green	hit	n/a
96.4908	n/a	RESPONSE	n/a	n/a	n/a	n/a	n/a	n/a	n/a	green
96.5075	1.0	ITI	n/a	n/a	n/a	n/a	n/a	n/a	n/a	n/a
97.5075	0.5	FIXCROSS	n/a	n/a	n/a	n/a	n/a	n/a	n/a	n/a
98.0075	0.4	INK	30	Neutral	xxxxxxx	xxxxxxx	żółty	yellow	hit	n/a
98.3934	n/a	RESPONSE	n/a	n/a	n/a	n/a	n/a	n/a	n/a	yellow
98.4075	1.0	ITI	n/a	n/a	n/a	n/a	n/a	n/a	n/a	n/a
99.4075	0.5	FIXCROSS	n/a	n/a	n/a	n/a	n/a	n/a	n/a	n/a
99.9075	0.5833	INK	31	Neutral	xxxxxxxx	xxxxxxxx	zielony	green	hit	n/a
100.4718	n/a	RESPONSE	n/a	n/a	n/a	n/a	n/a	n/a	n/a	green
100.4908	1.0	ITI	n/a	n/a	n/a	n/a	n/a	n/a	n/a	n/a
101.4908	0.5	FIXCROSS	n/a	n/a	n/a	n/a	n/a	n/a	n/a	n/a
101.9908	0.3833	INK	32	Incongruent	żółty	yellow	niebieski	blue	hit	n/a
102.3585	n/a	RESPONSE	n/a	n/a	n/a	n/a	n/a	n/a	n/a	blue
102.3741	1.0	ITI	n/a	n/a	n/a	n/a	n/a	n/a	n/a	n/a
103.3741	0.5	FIXCROSS	n/a	n/a	n/a	n/a	n/a	n/a	n/a	n/a
103.8741	0.4167	INK	33	Neutral	xxxxx	xxxxx	niebieski	blue	hit	n/a
104.2772	n/a	RESPONSE	n/a	n/a	n/a	n/a	n/a	n/a	n/a	blue
104.2907	1.0	ITI	n/a	n/a	n/a	n/a	n/a	n/a	n/a	n/a
105.2907	0.5	FIXCROSS	n/a	n/a	n/a	n/a	n/a	n/a	n/a	n/a
105.7907	0.45	INK	34	Incongruent	czerwony	red	żółty	yellow	hit	n/a
106.2277	n/a	RESPONSE	n/a	n/a	n/a	n/a	n/a	n/a	n/a	yellow
106.2407	1.0	ITI	n/a	n/a	n/a	n/a	n/a	n/a	n/a	n/a
107.2406	0.5	FIXCROSS	n/a	n/a	n/a	n/a	n/a	n/a	n/a	n/a
107.7406	0.4333	INK	35	Neutral	xxxxx	xxxxx	niebieski	blue	hit	n/a
108.1623	n/a	RESPONSE	n/a	n/a	n/a	n/a	n/a	n/a	n/a	blue
108.174	1.0	ITI	n/a	n/a	n/a	n/a	n/a	n/a	n/a	n/a
109.1739	0.5	FIXCROSS	n/a	n/a	n/a	n/a	n/a	n/a	n/a	n/a
109.6739	0.4167	INK	36	Neutral	xxxxxxx	xxxxxxx	niebieski	blue	hit	n/a
110.081	n/a	RESPONSE	n/a	n/a	n/a	n/a	n/a	n/a	n/a	blue
110.0906	1.0	ITI	n/a	n/a	n/a	n/a	n/a	n/a	n/a	n/a
111.0906	0.5	FIXCROSS	n/a	n/a	n/a	n/a	n/a	n/a	n/a	n/a
111.5906	0.4333	INK	37	Incongruent	zielony	green	żółty	yellow	incorrect	n/a
112.0156	n/a	RESPONSE	n/a	n/a	n/a	n/a	n/a	n/a	n/a	green
112.0239	1.0	ITI	n/a	n/a	n/a	n/a	n/a	n/a	n/a	n/a
113.0239	0.5	FIXCROSS	n/a	n/a	n/a	n/a	n/a	n/a	n/a	n/a
113.5238	0.45	INK	38	Neutral	xxxxxxxx	xxxxxxxx	zielony	green	hit	n/a
113.9663	n/a	RESPONSE	n/a	n/a	n/a	n/a	n/a	n/a	n/a	green
113.9738	1.0	ITI	n/a	n/a	n/a	n/a	n/a	n/a	n/a	n/a
114.9738	0.5	FIXCROSS	n/a	n/a	n/a	n/a	n/a	n/a	n/a	n/a
115.4738	0.45	INK	39	Neutral	xxxxxxxx	xxxxxxxx	niebieski	blue	hit	n/a
115.9169	n/a	RESPONSE	n/a	n/a	n/a	n/a	n/a	n/a	n/a	blue
115.9238	1.0	ITI	n/a	n/a	n/a	n/a	n/a	n/a	n/a	n/a
116.9238	0.5	FIXCROSS	n/a	n/a	n/a	n/a	n/a	n/a	n/a	n/a
117.4238	0.35	INK	40	Incongruent	zielony	green	niebieski	blue	hit	n/a
117.7554	n/a	RESPONSE	n/a	n/a	n/a	n/a	n/a	n/a	n/a	blue
117.7738	1.0	ITI	n/a	n/a	n/a	n/a	n/a	n/a	n/a	n/a
118.7738	0.5	FIXCROSS	n/a	n/a	n/a	n/a	n/a	n/a	n/a	n/a
119.2737	0.4833	INK	41	Incongruent	niebieski	blue	czerwony	red	hit	n/a
119.7381	n/a	RESPONSE	n/a	n/a	n/a	n/a	n/a	n/a	n/a	red
119.7571	1.0	ITI	n/a	n/a	n/a	n/a	n/a	n/a	n/a	n/a
120.757	0.5	FIXCROSS	n/a	n/a	n/a	n/a	n/a	n/a	n/a	n/a
121.257	0.4667	INK	42	Incongruent	czerwony	red	niebieski	blue	hit	n/a
121.7207	n/a	RESPONSE	n/a	n/a	n/a	n/a	n/a	n/a	n/a	blue
121.7237	1.0	ITI	n/a	n/a	n/a	n/a	n/a	n/a	n/a	n/a
122.7237	0.5	FIXCROSS	n/a	n/a	n/a	n/a	n/a	n/a	n/a	n/a
123.2237	0.4667	INK	43	Neutral	xxxxxxxx	xxxxxxxx	niebieski	blue	hit	n/a
123.6873	n/a	RESPONSE	n/a	n/a	n/a	n/a	n/a	n/a	n/a	blue
123.6903	1.0	ITI	n/a	n/a	n/a	n/a	n/a	n/a	n/a	n/a
124.6903	0.5	FIXCROSS	n/a	n/a	n/a	n/a	n/a	n/a	n/a	n/a
125.1903	0.4666	INK	44	Neutral	xxxxxxxxx	xxxxxxxxx	czerwony	red	hit	n/a
125.6378	n/a	RESPONSE	n/a	n/a	n/a	n/a	n/a	n/a	n/a	red
125.6569	1.0	ITI	n/a	n/a	n/a	n/a	n/a	n/a	n/a	n/a
126.6569	0.5	FIXCROSS	n/a	n/a	n/a	n/a	n/a	n/a	n/a	n/a
127.1569	0.45	INK	45	Neutral	xxxxxxx	xxxxxxx	czerwony	red	hit	n/a
127.5884	n/a	RESPONSE	n/a	n/a	n/a	n/a	n/a	n/a	n/a	red
127.6069	1.0	ITI	n/a	n/a	n/a	n/a	n/a	n/a	n/a	n/a
128.6069	0.5	FIXCROSS	n/a	n/a	n/a	n/a	n/a	n/a	n/a	n/a
129.1069	0.6167	INK	46	Incongruent	niebieski	blue	żółty	yellow	hit	n/a
129.715	n/a	RESPONSE	n/a	n/a	n/a	n/a	n/a	n/a	n/a	yellow
129.7235	1.0	ITI	n/a	n/a	n/a	n/a	n/a	n/a	n/a	n/a
130.7235	0.5	FIXCROSS	n/a	n/a	n/a	n/a	n/a	n/a	n/a	n/a
131.2235	0.5167	INK	47	Incongruent	czerwony	red	zielony	green	hit	n/a
131.7295	n/a	RESPONSE	n/a	n/a	n/a	n/a	n/a	n/a	n/a	green
131.7402	1.0	ITI	n/a	n/a	n/a	n/a	n/a	n/a	n/a	n/a
132.7401	0.5	FIXCROSS	n/a	n/a	n/a	n/a	n/a	n/a	n/a	n/a
133.2401	0.3667	INK	48	Neutral	xxxxxxx	xxxxxxx	niebieski	blue	hit	n/a
133.6001	n/a	RESPONSE	n/a	n/a	n/a	n/a	n/a	n/a	n/a	blue
133.6068	1.0	ITI	n/a	n/a	n/a	n/a	n/a	n/a	n/a	n/a
134.6068	0.5	FIXCROSS	n/a	n/a	n/a	n/a	n/a	n/a	n/a	n/a
135.1067	0.4	INK	49	Incongruent	żółty	yellow	czerwony	red	hit	n/a
135.5028	n/a	RESPONSE	n/a	n/a	n/a	n/a	n/a	n/a	n/a	red
135.5067	1.0	ITI	n/a	n/a	n/a	n/a	n/a	n/a	n/a	n/a
136.5067	0.5	FIXCROSS	n/a	n/a	n/a	n/a	n/a	n/a	n/a	n/a
137.0067	0.45	INK	50	Incongruent	żółty	yellow	zielony	green	hit	n/a
137.4533	n/a	RESPONSE	n/a	n/a	n/a	n/a	n/a	n/a	n/a	green
137.4567	1.0	ITI	n/a	n/a	n/a	n/a	n/a	n/a	n/a	n/a
138.4567	0.5	FIXCROSS	n/a	n/a	n/a	n/a	n/a	n/a	n/a	n/a
138.9567	0.6	INK	51	Incongruent	zielony	green	czerwony	red	hit	n/a
139.5479	n/a	RESPONSE	n/a	n/a	n/a	n/a	n/a	n/a	n/a	red
139.5567	1.0	ITI	n/a	n/a	n/a	n/a	n/a	n/a	n/a	n/a
140.5566	0.5	FIXCROSS	n/a	n/a	n/a	n/a	n/a	n/a	n/a	n/a
141.0566	0.4	INK	52	Incongruent	żółty	yellow	czerwony	red	hit	n/a
141.4505	n/a	RESPONSE	n/a	n/a	n/a	n/a	n/a	n/a	n/a	red
141.4566	1.0	ITI	n/a	n/a	n/a	n/a	n/a	n/a	n/a	n/a
142.4566	0.5	FIXCROSS	n/a	n/a	n/a	n/a	n/a	n/a	n/a	n/a
142.9566	0.45	INK	53	Incongruent	żółty	yellow	zielony	green	hit	n/a
143.4011	n/a	RESPONSE	n/a	n/a	n/a	n/a	n/a	n/a	n/a	green
143.4066	1.0	ITI	n/a	n/a	n/a	n/a	n/a	n/a	n/a	n/a
144.4066	0.5	FIXCROSS	n/a	n/a	n/a	n/a	n/a	n/a	n/a	n/a
144.9066	0.4	INK	54	Neutral	xxxxx	xxxxx	czerwony	red	hit	n/a
145.2877	n/a	RESPONSE	n/a	n/a	n/a	n/a	n/a	n/a	n/a	red
145.3065	1.0	ITI	n/a	n/a	n/a	n/a	n/a	n/a	n/a	n/a
146.3065	0.5	FIXCROSS	n/a	n/a	n/a	n/a	n/a	n/a	n/a	n/a
146.8065	0.4	INK	55	Incongruent	czerwony	red	zielony	green	hit	n/a
147.1904	n/a	RESPONSE	n/a	n/a	n/a	n/a	n/a	n/a	n/a	green
147.2065	1.0	ITI	n/a	n/a	n/a	n/a	n/a	n/a	n/a	n/a
148.2065	0.5	FIXCROSS	n/a	n/a	n/a	n/a	n/a	n/a	n/a	n/a
148.7065	0.4666	INK	56	Incongruent	żółty	yellow	niebieski	blue	incorrect	n/a
149.1569	n/a	RESPONSE	n/a	n/a	n/a	n/a	n/a	n/a	n/a	yellow
149.1731	1.0	ITI	n/a	n/a	n/a	n/a	n/a	n/a	n/a	n/a
149.2209	n/a	RESPONSE	n/a	n/a	n/a	n/a	n/a	n/a	n/a	blue
150.1731	0.5	FIXCROSS	n/a	n/a	n/a	n/a	n/a	n/a	n/a	n/a
150.6731	0.4167	INK	57	Incongruent	czerwony	red	żółty	yellow	hit	n/a
151.0755	n/a	RESPONSE	n/a	n/a	n/a	n/a	n/a	n/a	n/a	yellow
151.0898	1.0	ITI	n/a	n/a	n/a	n/a	n/a	n/a	n/a	n/a
152.0897	0.5	FIXCROSS	n/a	n/a	n/a	n/a	n/a	n/a	n/a	n/a
152.5897	0.4667	INK	58	Incongruent	czerwony	red	żółty	yellow	hit	n/a
153.0421	n/a	RESPONSE	n/a	n/a	n/a	n/a	n/a	n/a	n/a	yellow
153.0564	1.0	ITI	n/a	n/a	n/a	n/a	n/a	n/a	n/a	n/a
154.0564	0.5	FIXCROSS	n/a	n/a	n/a	n/a	n/a	n/a	n/a	n/a
154.5564	0.4833	INK	59	Neutral	xxxxx	xxxxx	zielony	green	hit	n/a
155.0248	n/a	RESPONSE	n/a	n/a	n/a	n/a	n/a	n/a	n/a	green
155.0397	1.0	ITI	n/a	n/a	n/a	n/a	n/a	n/a	n/a	n/a
156.0397	0.5	FIXCROSS	n/a	n/a	n/a	n/a	n/a	n/a	n/a	n/a
156.5397	0.45	INK	60	Incongruent	czerwony	red	niebieski	blue	hit	n/a
156.9754	n/a	RESPONSE	n/a	n/a	n/a	n/a	n/a	n/a	n/a	blue
156.9896	1.0	ITI	n/a	n/a	n/a	n/a	n/a	n/a	n/a	n/a
157.9896	0.5	FIXCROSS	n/a	n/a	n/a	n/a	n/a	n/a	n/a	n/a
158.4896	0.5333	INK	61	Neutral	xxxxxxxxx	xxxxxxxxx	czerwony	red	hit	n/a
159.0059	n/a	RESPONSE	n/a	n/a	n/a	n/a	n/a	n/a	n/a	red
159.0229	1.0	ITI	n/a	n/a	n/a	n/a	n/a	n/a	n/a	n/a
160.0229	0.5	FIXCROSS	n/a	n/a	n/a	n/a	n/a	n/a	n/a	n/a
160.5229	0.4833	INK	62	Neutral	xxxxx	xxxxx	zielony	green	hit	n/a
160.9885	n/a	RESPONSE	n/a	n/a	n/a	n/a	n/a	n/a	n/a	green
161.0062	1.0	ITI	n/a	n/a	n/a	n/a	n/a	n/a	n/a	n/a
162.0062	0.5	FIXCROSS	n/a	n/a	n/a	n/a	n/a	n/a	n/a	n/a
162.5062	0.3833	INK	63	Neutral	xxxxx	xxxxx	niebieski	blue	hit	n/a
162.8751	n/a	RESPONSE	n/a	n/a	n/a	n/a	n/a	n/a	n/a	blue
162.8895	1.0	ITI	n/a	n/a	n/a	n/a	n/a	n/a	n/a	n/a
163.8895	0.5	FIXCROSS	n/a	n/a	n/a	n/a	n/a	n/a	n/a	n/a
164.3895	0.4333	INK	64	Incongruent	niebieski	blue	czerwony	red	hit	n/a
164.8097	n/a	RESPONSE	n/a	n/a	n/a	n/a	n/a	n/a	n/a	red
164.8228	1.0	ITI	n/a	n/a	n/a	n/a	n/a	n/a	n/a	n/a
165.8228	0.5	FIXCROSS	n/a	n/a	n/a	n/a	n/a	n/a	n/a	n/a
166.3228	0.6166	INK	65	Incongruent	niebieski	blue	żółty	yellow	hit	n/a
166.9362	n/a	RESPONSE	n/a	n/a	n/a	n/a	n/a	n/a	n/a	yellow
166.9394	1.0	ITI	n/a	n/a	n/a	n/a	n/a	n/a	n/a	n/a
167.9394	0.5	FIXCROSS	n/a	n/a	n/a	n/a	n/a	n/a	n/a	n/a
168.4394	0.5333	INK	66	Neutral	xxxxxxxxx	xxxxxxxxx	żółty	yellow	hit	n/a
168.9668	n/a	RESPONSE	n/a	n/a	n/a	n/a	n/a	n/a	n/a	yellow
168.9727	1.0	ITI	n/a	n/a	n/a	n/a	n/a	n/a	n/a	n/a
169.9727	0.5	FIXCROSS	n/a	n/a	n/a	n/a	n/a	n/a	n/a	n/a
170.4727	0.9	INK	67	Incongruent	niebieski	blue	zielony	green	hit	n/a
171.365	n/a	RESPONSE	n/a	n/a	n/a	n/a	n/a	n/a	n/a	green
171.3727	1.0	ITI	n/a	n/a	n/a	n/a	n/a	n/a	n/a	n/a
172.3727	0.5	FIXCROSS	n/a	n/a	n/a	n/a	n/a	n/a	n/a	n/a
172.8727	0.4667	INK	68	Incongruent	niebieski	blue	zielony	green	hit	n/a
173.3316	n/a	RESPONSE	n/a	n/a	n/a	n/a	n/a	n/a	n/a	green
173.3393	1.0	ITI	n/a	n/a	n/a	n/a	n/a	n/a	n/a	n/a
174.3393	0.5	FIXCROSS	n/a	n/a	n/a	n/a	n/a	n/a	n/a	n/a
174.8393	0.5167	INK	69	Incongruent	zielony	green	żółty	yellow	hit	n/a
175.3462	n/a	RESPONSE	n/a	n/a	n/a	n/a	n/a	n/a	n/a	yellow
175.356	1.0	ITI	n/a	n/a	n/a	n/a	n/a	n/a	n/a	n/a
176.3559	0.5	FIXCROSS	n/a	n/a	n/a	n/a	n/a	n/a	n/a	n/a
176.8559	0.5833	INK	70	Incongruent	niebieski	blue	żółty	yellow	hit	n/a
177.4246	n/a	RESPONSE	n/a	n/a	n/a	n/a	n/a	n/a	n/a	yellow
177.4392	1.0	ITI	n/a	n/a	n/a	n/a	n/a	n/a	n/a	n/a
178.4392	0.5	FIXCROSS	n/a	n/a	n/a	n/a	n/a	n/a	n/a	n/a
178.9392	0.4333	INK	71	Incongruent	żółty	yellow	zielony	green	hit	n/a
179.3592	n/a	RESPONSE	n/a	n/a	n/a	n/a	n/a	n/a	n/a	green
179.3725	1.0	ITI	n/a	n/a	n/a	n/a	n/a	n/a	n/a	n/a
180.3725	0.5	FIXCROSS	n/a	n/a	n/a	n/a	n/a	n/a	n/a	n/a
180.8725	0.3333	INK	72	Incongruent	czerwony	red	niebieski	blue	hit	n/a
181.1979	n/a	RESPONSE	n/a	n/a	n/a	n/a	n/a	n/a	n/a	blue
181.2058	1.0333	ITI	n/a	n/a	n/a	n/a	n/a	n/a	n/a	n/a
204.0456	n/a	RESPONSE	n/a	n/a	n/a	n/a	n/a	n/a	n/a	n/a
204.072	1.0	ITI	n/a	n/a	n/a	n/a	n/a	n/a	n/a	n/a
205.072	0.5	FIXCROSS	n/a	n/a	n/a	n/a	n/a	n/a	n/a	n/a
205.572	0.6666	T_COLOR_NAME	1	Neutral	żółty	yellow	Neutral	Neutral	hit	n/a
206.2201	n/a	RESPONSE	n/a	n/a	n/a	n/a	n/a	n/a	n/a	yellow
206.2387	0.5	FEEDBACK	n/a	n/a	n/a	n/a	n/a	n/a	n/a	n/a
206.7387	1.0	ITI	n/a	n/a	n/a	n/a	n/a	n/a	n/a	n/a
207.7386	0.5	FIXCROSS	n/a	n/a	n/a	n/a	n/a	n/a	n/a	n/a
208.2386	0.6833	T_COLOR_NAME	2	Incongruent	zielony	green	żółty	yellow	hit	n/a
208.9061	n/a	RESPONSE	n/a	n/a	n/a	n/a	n/a	n/a	n/a	green
208.9219	0.5	FEEDBACK	n/a	n/a	n/a	n/a	n/a	n/a	n/a	n/a
209.4219	1.0	ITI	n/a	n/a	n/a	n/a	n/a	n/a	n/a	n/a
210.4219	0.5	FIXCROSS	n/a	n/a	n/a	n/a	n/a	n/a	n/a	n/a
210.9219	0.6833	T_COLOR_NAME	3	Incongruent	żółty	yellow	zielony	green	hit	n/a
211.5923	n/a	RESPONSE	n/a	n/a	n/a	n/a	n/a	n/a	n/a	yellow
211.6052	0.5	FEEDBACK	n/a	n/a	n/a	n/a	n/a	n/a	n/a	n/a
212.1052	1.0	ITI	n/a	n/a	n/a	n/a	n/a	n/a	n/a	n/a
213.1052	0.5	FIXCROSS	n/a	n/a	n/a	n/a	n/a	n/a	n/a	n/a
213.6052	0.6666	T_COLOR_NAME	4	Incongruent	niebieski	blue	czerwony	red	hit	n/a
214.2622	n/a	RESPONSE	n/a	n/a	n/a	n/a	n/a	n/a	n/a	blue
214.2718	0.5	FEEDBACK	n/a	n/a	n/a	n/a	n/a	n/a	n/a	n/a
214.7718	1.0	ITI	n/a	n/a	n/a	n/a	n/a	n/a	n/a	n/a
215.7718	0.5	FIXCROSS	n/a	n/a	n/a	n/a	n/a	n/a	n/a	n/a
216.2718	0.4667	T_COLOR_NAME	5	Neutral	niebieski	blue	Neutral	Neutral	hit	n/a
216.7245	n/a	RESPONSE	n/a	n/a	n/a	n/a	n/a	n/a	n/a	blue
216.7385	0.5	FEEDBACK	n/a	n/a	n/a	n/a	n/a	n/a	n/a	n/a
217.2384	1.0	ITI	n/a	n/a	n/a	n/a	n/a	n/a	n/a	n/a
218.2384	0.5	FIXCROSS	n/a	n/a	n/a	n/a	n/a	n/a	n/a	n/a
218.7384	0.45	T_COLOR_NAME	6	Neutral	niebieski	blue	Neutral	Neutral	hit	n/a
219.1708	n/a	RESPONSE	n/a	n/a	n/a	n/a	n/a	n/a	n/a	blue
219.1884	0.5	FEEDBACK	n/a	n/a	n/a	n/a	n/a	n/a	n/a	n/a
219.6884	1.0	ITI	n/a	n/a	n/a	n/a	n/a	n/a	n/a	n/a
220.6884	0.5	FIXCROSS	n/a	n/a	n/a	n/a	n/a	n/a	n/a	n/a
221.1884	0.7667	T_COLOR_NAME	7	Neutral	zielony	green	Neutral	Neutral	hit	n/a
221.9368	n/a	RESPONSE	n/a	n/a	n/a	n/a	n/a	n/a	n/a	green
221.955	0.5	FEEDBACK	n/a	n/a	n/a	n/a	n/a	n/a	n/a	n/a
222.455	1.0	ITI	n/a	n/a	n/a	n/a	n/a	n/a	n/a	n/a
223.455	0.5	FIXCROSS	n/a	n/a	n/a	n/a	n/a	n/a	n/a	n/a
223.955	0.6	T_COLOR_NAME	8	Incongruent	niebieski	blue	zielony	green	hit	n/a
224.5429	n/a	RESPONSE	n/a	n/a	n/a	n/a	n/a	n/a	n/a	blue
224.555	0.5	FEEDBACK	n/a	n/a	n/a	n/a	n/a	n/a	n/a	n/a
225.0549	1.0	ITI	n/a	n/a	n/a	n/a	n/a	n/a	n/a	n/a
226.0549	0.5	FIXCROSS	n/a	n/a	n/a	n/a	n/a	n/a	n/a	n/a
226.5549	0.5167	T_COLOR_NAME	9	Incongruent	żółty	yellow	niebieski	blue	hit	n/a
227.0532	n/a	RESPONSE	n/a	n/a	n/a	n/a	n/a	n/a	n/a	yellow
227.0716	0.5	FEEDBACK	n/a	n/a	n/a	n/a	n/a	n/a	n/a	n/a
227.5716	1.0	ITI	n/a	n/a	n/a	n/a	n/a	n/a	n/a	n/a
228.5715	0.5	FIXCROSS	n/a	n/a	n/a	n/a	n/a	n/a	n/a	n/a
229.0715	0.8166	T_COLOR_NAME	10	Incongruent	czerwony	red	zielony	green	hit	n/a
229.8831	n/a	RESPONSE	n/a	n/a	n/a	n/a	n/a	n/a	n/a	red
229.8882	0.5	FEEDBACK	n/a	n/a	n/a	n/a	n/a	n/a	n/a	n/a
230.3882	1.0	ITI	n/a	n/a	n/a	n/a	n/a	n/a	n/a	n/a
231.3882	0.5	FIXCROSS	n/a	n/a	n/a	n/a	n/a	n/a	n/a	n/a
231.8881	0.5	T_COLOR_NAME	11	Incongruent	niebieski	blue	żółty	yellow	hit	n/a
232.3773	n/a	RESPONSE	n/a	n/a	n/a	n/a	n/a	n/a	n/a	blue
232.3881	0.5	FEEDBACK	n/a	n/a	n/a	n/a	n/a	n/a	n/a	n/a
232.8881	1.0	ITI	n/a	n/a	n/a	n/a	n/a	n/a	n/a	n/a
233.8881	0.5	FIXCROSS	n/a	n/a	n/a	n/a	n/a	n/a	n/a	n/a
234.3881	0.5667	T_COLOR_NAME	12	Neutral	żółty	yellow	Neutral	Neutral	hit	n/a
234.9354	n/a	RESPONSE	n/a	n/a	n/a	n/a	n/a	n/a	n/a	yellow
234.9547	0.5	FEEDBACK	n/a	n/a	n/a	n/a	n/a	n/a	n/a	n/a
235.4547	1.0	ITI	n/a	n/a	n/a	n/a	n/a	n/a	n/a	n/a
242.4177	n/a	RESPONSE	n/a	n/a	n/a	n/a	n/a	n/a	n/a	n/a
242.4379	1.0	ITI	n/a	n/a	n/a	n/a	n/a	n/a	n/a	n/a
243.4379	0.5	FIXCROSS	n/a	n/a	n/a	n/a	n/a	n/a	n/a	n/a
243.9379	0.5	COLOR_NAME	1	Incongruent	niebieski	blue	zielony	green	hit	n/a
244.4321	n/a	RESPONSE	n/a	n/a	n/a	n/a	n/a	n/a	n/a	blue
244.4379	1.0	ITI	n/a	n/a	n/a	n/a	n/a	n/a	n/a	n/a
245.4379	0.5	FIXCROSS	n/a	n/a	n/a	n/a	n/a	n/a	n/a	n/a
245.9379	0.5667	COLOR_NAME	2	Incongruent	żółty	yellow	czerwony	red	hit	n/a
246.4947	n/a	RESPONSE	n/a	n/a	n/a	n/a	n/a	n/a	n/a	yellow
246.5045	1.0	ITI	n/a	n/a	n/a	n/a	n/a	n/a	n/a	n/a
247.5045	0.5	FIXCROSS	n/a	n/a	n/a	n/a	n/a	n/a	n/a	n/a
248.0045	0.6	COLOR_NAME	3	Neutral	zielony	green	Neutral	Neutral	hit	n/a
248.5892	n/a	RESPONSE	n/a	n/a	n/a	n/a	n/a	n/a	n/a	green
248.6045	1.0	ITI	n/a	n/a	n/a	n/a	n/a	n/a	n/a	n/a
249.6045	0.5	FIXCROSS	n/a	n/a	n/a	n/a	n/a	n/a	n/a	n/a
250.1044	0.55	COLOR_NAME	4	Incongruent	niebieski	blue	czerwony	red	hit	n/a
250.6357	n/a	RESPONSE	n/a	n/a	n/a	n/a	n/a	n/a	n/a	blue
250.6544	1.0	ITI	n/a	n/a	n/a	n/a	n/a	n/a	n/a	n/a
251.6544	0.5	FIXCROSS	n/a	n/a	n/a	n/a	n/a	n/a	n/a	n/a
252.1544	1.0666	COLOR_NAME	5	Incongruent	żółty	yellow	zielony	green	hit	n/a
253.2099	n/a	RESPONSE	n/a	n/a	n/a	n/a	n/a	n/a	n/a	yellow
253.221	1.0	ITI	n/a	n/a	n/a	n/a	n/a	n/a	n/a	n/a
254.221	0.5	FIXCROSS	n/a	n/a	n/a	n/a	n/a	n/a	n/a	n/a
254.721	0.8	COLOR_NAME	6	Incongruent	zielony	green	żółty	yellow	hit	n/a
255.5123	n/a	RESPONSE	n/a	n/a	n/a	n/a	n/a	n/a	n/a	green
255.521	1.0	ITI	n/a	n/a	n/a	n/a	n/a	n/a	n/a	n/a
256.521	0.5	FIXCROSS	n/a	n/a	n/a	n/a	n/a	n/a	n/a	n/a
257.021	0.4333	COLOR_NAME	7	Incongruent	czerwony	red	niebieski	blue	hit	n/a
257.4469	n/a	RESPONSE	n/a	n/a	n/a	n/a	n/a	n/a	n/a	red
257.4543	1.0	ITI	n/a	n/a	n/a	n/a	n/a	n/a	n/a	n/a
258.4543	0.5	FIXCROSS	n/a	n/a	n/a	n/a	n/a	n/a	n/a	n/a
258.9543	0.3667	COLOR_NAME	8	Incongruent	niebieski	blue	żółty	yellow	hit	n/a
259.3015	n/a	RESPONSE	n/a	n/a	n/a	n/a	n/a	n/a	n/a	blue
259.3209	1.0	ITI	n/a	n/a	n/a	n/a	n/a	n/a	n/a	n/a
260.3209	0.5	FIXCROSS	n/a	n/a	n/a	n/a	n/a	n/a	n/a	n/a
260.8209	0.65	COLOR_NAME	9	Incongruent	żółty	yellow	niebieski	blue	hit	n/a
261.4598	n/a	RESPONSE	n/a	n/a	n/a	n/a	n/a	n/a	n/a	yellow
261.4709	1.0	ITI	n/a	n/a	n/a	n/a	n/a	n/a	n/a	n/a
262.4709	0.5	FIXCROSS	n/a	n/a	n/a	n/a	n/a	n/a	n/a	n/a
262.9709	0.5333	COLOR_NAME	10	Neutral	niebieski	blue	Neutral	Neutral	hit	n/a
263.4905	n/a	RESPONSE	n/a	n/a	n/a	n/a	n/a	n/a	n/a	blue
263.5042	1.0	ITI	n/a	n/a	n/a	n/a	n/a	n/a	n/a	n/a
264.5042	0.5	FIXCROSS	n/a	n/a	n/a	n/a	n/a	n/a	n/a	n/a
265.0042	0.6833	COLOR_NAME	11	Neutral	zielony	green	Neutral	Neutral	hit	n/a
265.6808	n/a	RESPONSE	n/a	n/a	n/a	n/a	n/a	n/a	n/a	green
265.6875	1.0	ITI	n/a	n/a	n/a	n/a	n/a	n/a	n/a	n/a
266.6874	0.5	FIXCROSS	n/a	n/a	n/a	n/a	n/a	n/a	n/a	n/a
267.1874	0.7167	COLOR_NAME	12	Incongruent	żółty	yellow	zielony	green	hit	n/a
267.8873	n/a	RESPONSE	n/a	n/a	n/a	n/a	n/a	n/a	n/a	yellow
267.9041	1.0	ITI	n/a	n/a	n/a	n/a	n/a	n/a	n/a	n/a
268.9041	0.5	FIXCROSS	n/a	n/a	n/a	n/a	n/a	n/a	n/a	n/a
269.4041	0.7333	COLOR_NAME	13	Neutral	zielony	green	Neutral	Neutral	hit	n/a
270.1257	n/a	RESPONSE	n/a	n/a	n/a	n/a	n/a	n/a	n/a	green
270.1374	1.0	ITI	n/a	n/a	n/a	n/a	n/a	n/a	n/a	n/a
271.1374	0.5	FIXCROSS	n/a	n/a	n/a	n/a	n/a	n/a	n/a	n/a
271.6373	0.5167	COLOR_NAME	14	Incongruent	niebieski	blue	czerwony	red	hit	n/a
272.1402	n/a	RESPONSE	n/a	n/a	n/a	n/a	n/a	n/a	n/a	blue
272.154	1.0	ITI	n/a	n/a	n/a	n/a	n/a	n/a	n/a	n/a
273.154	0.5	FIXCROSS	n/a	n/a	n/a	n/a	n/a	n/a	n/a	n/a
273.654	0.45	COLOR_NAME	15	Neutral	niebieski	blue	Neutral	Neutral	hit	n/a
274.0907	n/a	RESPONSE	n/a	n/a	n/a	n/a	n/a	n/a	n/a	blue
274.104	1.0	ITI	n/a	n/a	n/a	n/a	n/a	n/a	n/a	n/a
275.104	0.5	FIXCROSS	n/a	n/a	n/a	n/a	n/a	n/a	n/a	n/a
275.6039	0.4	COLOR_NAME	16	Neutral	niebieski	blue	Neutral	Neutral	hit	n/a
275.9934	n/a	RESPONSE	n/a	n/a	n/a	n/a	n/a	n/a	n/a	blue
276.0039	1.0	ITI	n/a	n/a	n/a	n/a	n/a	n/a	n/a	n/a
277.0039	0.5	FIXCROSS	n/a	n/a	n/a	n/a	n/a	n/a	n/a	n/a
277.5039	0.8833	COLOR_NAME	17	Neutral	zielony	green	Neutral	Neutral	hit	n/a
278.3757	n/a	RESPONSE	n/a	n/a	n/a	n/a	n/a	n/a	n/a	green
278.3872	1.0	ITI	n/a	n/a	n/a	n/a	n/a	n/a	n/a	n/a
279.3872	0.5	FIXCROSS	n/a	n/a	n/a	n/a	n/a	n/a	n/a	n/a
279.8872	0.6	COLOR_NAME	18	Neutral	niebieski	blue	Neutral	Neutral	hit	n/a
280.4704	n/a	RESPONSE	n/a	n/a	n/a	n/a	n/a	n/a	n/a	blue
280.4872	1.0	ITI	n/a	n/a	n/a	n/a	n/a	n/a	n/a	n/a
281.4872	0.5	FIXCROSS	n/a	n/a	n/a	n/a	n/a	n/a	n/a	n/a
281.9871	0.5333	COLOR_NAME	19	Neutral	zielony	green	Neutral	Neutral	hit	n/a
282.5168	n/a	RESPONSE	n/a	n/a	n/a	n/a	n/a	n/a	n/a	green
282.5205	1.0	ITI	n/a	n/a	n/a	n/a	n/a	n/a	n/a	n/a
283.5204	0.5	FIXCROSS	n/a	n/a	n/a	n/a	n/a	n/a	n/a	n/a
284.0204	0.6333	COLOR_NAME	20	Neutral	żółty	yellow	Neutral	Neutral	hit	n/a
284.6433	n/a	RESPONSE	n/a	n/a	n/a	n/a	n/a	n/a	n/a	yellow
284.6538	1.0	ITI	n/a	n/a	n/a	n/a	n/a	n/a	n/a	n/a
285.6537	0.5	FIXCROSS	n/a	n/a	n/a	n/a	n/a	n/a	n/a	n/a
286.1537	0.6	COLOR_NAME	21	Neutral	czerwony	red	Neutral	Neutral	hit	n/a
286.7378	n/a	RESPONSE	n/a	n/a	n/a	n/a	n/a	n/a	n/a	red
286.7537	1.0	ITI	n/a	n/a	n/a	n/a	n/a	n/a	n/a	n/a
287.7537	0.5	FIXCROSS	n/a	n/a	n/a	n/a	n/a	n/a	n/a	n/a
288.2537	0.55	COLOR_NAME	22	Neutral	żółty	yellow	Neutral	Neutral	hit	n/a
288.8002	n/a	RESPONSE	n/a	n/a	n/a	n/a	n/a	n/a	n/a	yellow
288.8037	1.0	ITI	n/a	n/a	n/a	n/a	n/a	n/a	n/a	n/a
289.8036	0.5	FIXCROSS	n/a	n/a	n/a	n/a	n/a	n/a	n/a	n/a
290.3036	0.5333	COLOR_NAME	23	Incongruent	żółty	yellow	czerwony	red	hit	n/a
290.8308	n/a	RESPONSE	n/a	n/a	n/a	n/a	n/a	n/a	n/a	yellow
290.837	1.0	ITI	n/a	n/a	n/a	n/a	n/a	n/a	n/a	n/a
291.8369	0.5	FIXCROSS	n/a	n/a	n/a	n/a	n/a	n/a	n/a	n/a
292.3369	1.2	COLOR_NAME	24	Incongruent	zielony	green	niebieski	blue	hit	n/a
293.5329	n/a	RESPONSE	n/a	n/a	n/a	n/a	n/a	n/a	n/a	green
293.5369	1.0	ITI	n/a	n/a	n/a	n/a	n/a	n/a	n/a	n/a
294.5369	0.5	FIXCROSS	n/a	n/a	n/a	n/a	n/a	n/a	n/a	n/a
295.0369	0.5167	COLOR_NAME	25	Neutral	żółty	yellow	Neutral	Neutral	hit	n/a
295.5475	n/a	RESPONSE	n/a	n/a	n/a	n/a	n/a	n/a	n/a	yellow
295.5535	1.0	ITI	n/a	n/a	n/a	n/a	n/a	n/a	n/a	n/a
296.5535	0.5	FIXCROSS	n/a	n/a	n/a	n/a	n/a	n/a	n/a	n/a
297.0535	0.5667	COLOR_NAME	26	Incongruent	niebieski	blue	żółty	yellow	hit	n/a
297.6101	n/a	RESPONSE	n/a	n/a	n/a	n/a	n/a	n/a	n/a	blue
297.6202	1.0	ITI	n/a	n/a	n/a	n/a	n/a	n/a	n/a	n/a
298.6201	0.5	FIXCROSS	n/a	n/a	n/a	n/a	n/a	n/a	n/a	n/a
299.1201	0.5167	COLOR_NAME	27	Incongruent	czerwony	red	żółty	yellow	hit	n/a
299.6245	n/a	RESPONSE	n/a	n/a	n/a	n/a	n/a	n/a	n/a	red
299.6368	1.0	ITI	n/a	n/a	n/a	n/a	n/a	n/a	n/a	n/a
300.6368	0.5	FIXCROSS	n/a	n/a	n/a	n/a	n/a	n/a	n/a	n/a
301.1368	0.4167	COLOR_NAME	28	Incongruent	niebieski	blue	żółty	yellow	hit	n/a
301.5431	n/a	RESPONSE	n/a	n/a	n/a	n/a	n/a	n/a	n/a	blue
301.5534	1.0	ITI	n/a	n/a	n/a	n/a	n/a	n/a	n/a	n/a
302.5534	0.5	FIXCROSS	n/a	n/a	n/a	n/a	n/a	n/a	n/a	n/a
303.0534	0.7	COLOR_NAME	29	Incongruent	żółty	yellow	czerwony	red	hit	n/a
303.7496	n/a	RESPONSE	n/a	n/a	n/a	n/a	n/a	n/a	n/a	yellow
303.7534	1.0	ITI	n/a	n/a	n/a	n/a	n/a	n/a	n/a	n/a
304.7533	0.5	FIXCROSS	n/a	n/a	n/a	n/a	n/a	n/a	n/a	n/a
305.2533	0.5333	COLOR_NAME	30	Neutral	niebieski	blue	Neutral	Neutral	hit	n/a
305.7801	n/a	RESPONSE	n/a	n/a	n/a	n/a	n/a	n/a	n/a	blue
305.7867	1.0	ITI	n/a	n/a	n/a	n/a	n/a	n/a	n/a	n/a
306.7866	0.5	FIXCROSS	n/a	n/a	n/a	n/a	n/a	n/a	n/a	n/a
307.2866	0.6167	COLOR_NAME	31	Neutral	żółty	yellow	Neutral	Neutral	hit	n/a
307.8906	n/a	RESPONSE	n/a	n/a	n/a	n/a	n/a	n/a	n/a	yellow
307.9033	1.0	ITI	n/a	n/a	n/a	n/a	n/a	n/a	n/a	n/a
308.9033	0.5	FIXCROSS	n/a	n/a	n/a	n/a	n/a	n/a	n/a	n/a
309.4033	0.5333	COLOR_NAME	32	Incongruent	czerwony	red	żółty	yellow	hit	n/a
309.9212	n/a	RESPONSE	n/a	n/a	n/a	n/a	n/a	n/a	n/a	red
309.9366	1.0	ITI	n/a	n/a	n/a	n/a	n/a	n/a	n/a	n/a
310.9366	0.5	FIXCROSS	n/a	n/a	n/a	n/a	n/a	n/a	n/a	n/a
311.4366	0.55	COLOR_NAME	33	Neutral	żółty	yellow	Neutral	Neutral	hit	n/a
311.9677	n/a	RESPONSE	n/a	n/a	n/a	n/a	n/a	n/a	n/a	yellow
311.9865	1.0	ITI	n/a	n/a	n/a	n/a	n/a	n/a	n/a	n/a
312.9865	0.5	FIXCROSS	n/a	n/a	n/a	n/a	n/a	n/a	n/a	n/a
313.4865	0.6167	COLOR_NAME	34	Incongruent	żółty	yellow	zielony	green	hit	n/a
314.0941	n/a	RESPONSE	n/a	n/a	n/a	n/a	n/a	n/a	n/a	yellow
314.1032	1.0	ITI	n/a	n/a	n/a	n/a	n/a	n/a	n/a	n/a
315.1031	0.5	FIXCROSS	n/a	n/a	n/a	n/a	n/a	n/a	n/a	n/a
315.6031	0.5833	COLOR_NAME	35	Neutral	niebieski	blue	Neutral	Neutral	hit	n/a
316.1726	n/a	RESPONSE	n/a	n/a	n/a	n/a	n/a	n/a	n/a	blue
316.1864	1.0	ITI	n/a	n/a	n/a	n/a	n/a	n/a	n/a	n/a
317.1864	0.5	FIXCROSS	n/a	n/a	n/a	n/a	n/a	n/a	n/a	n/a
317.6864	0.7	COLOR_NAME	36	Neutral	czerwony	red	Neutral	Neutral	hit	n/a
318.379	n/a	RESPONSE	n/a	n/a	n/a	n/a	n/a	n/a	n/a	red
318.3864	1.0	ITI	n/a	n/a	n/a	n/a	n/a	n/a	n/a	n/a
319.3864	0.5	FIXCROSS	n/a	n/a	n/a	n/a	n/a	n/a	n/a	n/a
319.8864	0.6833	COLOR_NAME	37	Neutral	zielony	green	Neutral	Neutral	hit	n/a
320.5535	n/a	RESPONSE	n/a	n/a	n/a	n/a	n/a	n/a	n/a	green
320.5697	1.0	ITI	n/a	n/a	n/a	n/a	n/a	n/a	n/a	n/a
321.5697	0.5	FIXCROSS	n/a	n/a	n/a	n/a	n/a	n/a	n/a	n/a
322.0697	0.5333	COLOR_NAME	38	Neutral	zielony	green	Neutral	Neutral	hit	n/a
322.6001	n/a	RESPONSE	n/a	n/a	n/a	n/a	n/a	n/a	n/a	green
322.603	1.0	ITI	n/a	n/a	n/a	n/a	n/a	n/a	n/a	n/a
323.603	0.5	FIXCROSS	n/a	n/a	n/a	n/a	n/a	n/a	n/a	n/a
324.103	0.4667	COLOR_NAME	39	Incongruent	zielony	green	czerwony	red	hit	n/a
324.5505	n/a	RESPONSE	n/a	n/a	n/a	n/a	n/a	n/a	n/a	green
324.5696	1.0	ITI	n/a	n/a	n/a	n/a	n/a	n/a	n/a	n/a
325.5696	0.5	FIXCROSS	n/a	n/a	n/a	n/a	n/a	n/a	n/a	n/a
326.0696	0.4667	COLOR_NAME	40	Incongruent	zielony	green	czerwony	red	hit	n/a
326.5173	n/a	RESPONSE	n/a	n/a	n/a	n/a	n/a	n/a	n/a	green
326.5362	1.0	ITI	n/a	n/a	n/a	n/a	n/a	n/a	n/a	n/a
327.5362	0.5	FIXCROSS	n/a	n/a	n/a	n/a	n/a	n/a	n/a	n/a
328.0362	0.4833	COLOR_NAME	41	Incongruent	niebieski	blue	czerwony	red	hit	n/a
328.5158	n/a	RESPONSE	n/a	n/a	n/a	n/a	n/a	n/a	n/a	blue
328.5195	1.0	ITI	n/a	n/a	n/a	n/a	n/a	n/a	n/a	n/a
329.5195	0.5	FIXCROSS	n/a	n/a	n/a	n/a	n/a	n/a	n/a	n/a
330.0195	0.4833	COLOR_NAME	42	Neutral	zielony	green	Neutral	Neutral	hit	n/a
330.4985	n/a	RESPONSE	n/a	n/a	n/a	n/a	n/a	n/a	n/a	green
330.5028	1.0	ITI	n/a	n/a	n/a	n/a	n/a	n/a	n/a	n/a
331.5028	0.5	FIXCROSS	n/a	n/a	n/a	n/a	n/a	n/a	n/a	n/a
332.0028	0.5333	COLOR_NAME	43	Neutral	czerwony	red	Neutral	Neutral	hit	n/a
332.5288	n/a	RESPONSE	n/a	n/a	n/a	n/a	n/a	n/a	n/a	red
332.5361	1.0	ITI	n/a	n/a	n/a	n/a	n/a	n/a	n/a	n/a
333.5361	0.5	FIXCROSS	n/a	n/a	n/a	n/a	n/a	n/a	n/a	n/a
334.0361	0.5333	COLOR_NAME	44	Incongruent	niebieski	blue	zielony	green	hit	n/a
334.5595	n/a	RESPONSE	n/a	n/a	n/a	n/a	n/a	n/a	n/a	blue
334.5694	1.0	ITI	n/a	n/a	n/a	n/a	n/a	n/a	n/a	n/a
335.5694	0.5	FIXCROSS	n/a	n/a	n/a	n/a	n/a	n/a	n/a	n/a
336.0694	0.8	COLOR_NAME	45	Incongruent	zielony	green	żółty	yellow	hit	n/a
336.8619	n/a	RESPONSE	n/a	n/a	n/a	n/a	n/a	n/a	n/a	green
336.8694	1.0	ITI	n/a	n/a	n/a	n/a	n/a	n/a	n/a	n/a
337.8694	0.5	FIXCROSS	n/a	n/a	n/a	n/a	n/a	n/a	n/a	n/a
338.3693	0.4833	COLOR_NAME	46	Incongruent	czerwony	red	zielony	green	hit	n/a
338.8444	n/a	RESPONSE	n/a	n/a	n/a	n/a	n/a	n/a	n/a	red
338.8527	1.0	ITI	n/a	n/a	n/a	n/a	n/a	n/a	n/a	n/a
339.8526	0.5	FIXCROSS	n/a	n/a	n/a	n/a	n/a	n/a	n/a	n/a
340.3526	0.5833	COLOR_NAME	47	Incongruent	zielony	green	czerwony	red	hit	n/a
340.9229	n/a	RESPONSE	n/a	n/a	n/a	n/a	n/a	n/a	n/a	green
340.936	1.0	ITI	n/a	n/a	n/a	n/a	n/a	n/a	n/a	n/a
341.9359	0.5	FIXCROSS	n/a	n/a	n/a	n/a	n/a	n/a	n/a	n/a
342.4359	0.5667	COLOR_NAME	48	Incongruent	żółty	yellow	niebieski	blue	hit	n/a
342.9854	n/a	RESPONSE	n/a	n/a	n/a	n/a	n/a	n/a	n/a	yellow
343.0026	1.0	ITI	n/a	n/a	n/a	n/a	n/a	n/a	n/a	n/a
344.0026	0.5	FIXCROSS	n/a	n/a	n/a	n/a	n/a	n/a	n/a	n/a
344.5025	0.55	COLOR_NAME	49	Neutral	czerwony	red	Neutral	Neutral	hit	n/a
345.048	n/a	RESPONSE	n/a	n/a	n/a	n/a	n/a	n/a	n/a	red
345.0525	1.0	ITI	n/a	n/a	n/a	n/a	n/a	n/a	n/a	n/a
346.0525	0.5	FIXCROSS	n/a	n/a	n/a	n/a	n/a	n/a	n/a	n/a
346.5525	0.9	COLOR_NAME	50	Incongruent	czerwony	red	niebieski	blue	hit	n/a
347.4463	n/a	RESPONSE	n/a	n/a	n/a	n/a	n/a	n/a	n/a	red
347.4525	1.0	ITI	n/a	n/a	n/a	n/a	n/a	n/a	n/a	n/a
348.4525	0.5	FIXCROSS	n/a	n/a	n/a	n/a	n/a	n/a	n/a	n/a
348.9525	0.4333	COLOR_NAME	51	Incongruent	czerwony	red	niebieski	blue	hit	n/a
349.3809	n/a	RESPONSE	n/a	n/a	n/a	n/a	n/a	n/a	n/a	red
349.3858	1.0	ITI	n/a	n/a	n/a	n/a	n/a	n/a	n/a	n/a
350.3858	0.5	FIXCROSS	n/a	n/a	n/a	n/a	n/a	n/a	n/a	n/a
350.8858	0.4	COLOR_NAME	52	Neutral	niebieski	blue	Neutral	Neutral	hit	n/a
351.2675	n/a	RESPONSE	n/a	n/a	n/a	n/a	n/a	n/a	n/a	blue
351.2858	1.0	ITI	n/a	n/a	n/a	n/a	n/a	n/a	n/a	n/a
352.2857	0.5	FIXCROSS	n/a	n/a	n/a	n/a	n/a	n/a	n/a	n/a
352.7857	0.4833	COLOR_NAME	53	Neutral	czerwony	red	Neutral	Neutral	hit	n/a
353.2501	n/a	RESPONSE	n/a	n/a	n/a	n/a	n/a	n/a	n/a	red
353.2691	1.0	ITI	n/a	n/a	n/a	n/a	n/a	n/a	n/a	n/a
354.269	0.5	FIXCROSS	n/a	n/a	n/a	n/a	n/a	n/a	n/a	n/a
354.769	0.4167	COLOR_NAME	54	Neutral	czerwony	red	Neutral	Neutral	hit	n/a
355.1687	n/a	RESPONSE	n/a	n/a	n/a	n/a	n/a	n/a	n/a	red
355.1857	1.0	ITI	n/a	n/a	n/a	n/a	n/a	n/a	n/a	n/a
356.1857	0.5	FIXCROSS	n/a	n/a	n/a	n/a	n/a	n/a	n/a	n/a
356.6856	1.0166	COLOR_NAME	55	Neutral	żółty	yellow	Neutral	Neutral	hit	n/a
357.6949	n/a	RESPONSE	n/a	n/a	n/a	n/a	n/a	n/a	n/a	yellow
357.7023	1.0	ITI	n/a	n/a	n/a	n/a	n/a	n/a	n/a	n/a
358.7023	0.5	FIXCROSS	n/a	n/a	n/a	n/a	n/a	n/a	n/a	n/a
359.2023	0.5833	COLOR_NAME	56	Incongruent	czerwony	red	żółty	yellow	hit	n/a
359.7734	n/a	RESPONSE	n/a	n/a	n/a	n/a	n/a	n/a	n/a	red
359.7856	1.0	ITI	n/a	n/a	n/a	n/a	n/a	n/a	n/a	n/a
360.7856	0.5	FIXCROSS	n/a	n/a	n/a	n/a	n/a	n/a	n/a	n/a
361.2855	0.5333	COLOR_NAME	57	Neutral	czerwony	red	Neutral	Neutral	hit	n/a
361.804	n/a	RESPONSE	n/a	n/a	n/a	n/a	n/a	n/a	n/a	red
361.8189	1.0	ITI	n/a	n/a	n/a	n/a	n/a	n/a	n/a	n/a
362.8189	0.5	FIXCROSS	n/a	n/a	n/a	n/a	n/a	n/a	n/a	n/a
363.3188	0.6167	COLOR_NAME	58	Incongruent	zielony	green	niebieski	blue	hit	n/a
363.9305	n/a	RESPONSE	n/a	n/a	n/a	n/a	n/a	n/a	n/a	green
363.9355	1.0	ITI	n/a	n/a	n/a	n/a	n/a	n/a	n/a	n/a
364.9355	0.5	FIXCROSS	n/a	n/a	n/a	n/a	n/a	n/a	n/a	n/a
365.4355	0.6	COLOR_NAME	59	Incongruent	niebieski	blue	zielony	green	hit	n/a
366.0249	n/a	RESPONSE	n/a	n/a	n/a	n/a	n/a	n/a	n/a	blue
366.0355	1.0	ITI	n/a	n/a	n/a	n/a	n/a	n/a	n/a	n/a
367.0354	0.5	FIXCROSS	n/a	n/a	n/a	n/a	n/a	n/a	n/a	n/a
367.5354	0.65	COLOR_NAME	60	Neutral	żółty	yellow	Neutral	Neutral	hit	n/a
368.1675	n/a	RESPONSE	n/a	n/a	n/a	n/a	n/a	n/a	n/a	yellow
368.1854	1.0	ITI	n/a	n/a	n/a	n/a	n/a	n/a	n/a	n/a
369.1854	0.5	FIXCROSS	n/a	n/a	n/a	n/a	n/a	n/a	n/a	n/a
369.6854	0.4333	COLOR_NAME	61	Neutral	niebieski	blue	Neutral	Neutral	hit	n/a
370.1021	n/a	RESPONSE	n/a	n/a	n/a	n/a	n/a	n/a	n/a	blue
370.1187	1.0	ITI	n/a	n/a	n/a	n/a	n/a	n/a	n/a	n/a
371.1187	0.5	FIXCROSS	n/a	n/a	n/a	n/a	n/a	n/a	n/a	n/a
371.6187	0.5833	COLOR_NAME	62	Neutral	żółty	yellow	Neutral	Neutral	hit	n/a
372.1965	n/a	RESPONSE	n/a	n/a	n/a	n/a	n/a	n/a	n/a	yellow
372.202	0.9999	ITI	n/a	n/a	n/a	n/a	n/a	n/a	n/a	n/a
373.2019	0.5001	FIXCROSS	n/a	n/a	n/a	n/a	n/a	n/a	n/a	n/a
373.702	0.8166	COLOR_NAME	63	Incongruent	zielony	green	niebieski	blue	hit	n/a
374.5149	n/a	RESPONSE	n/a	n/a	n/a	n/a	n/a	n/a	n/a	green
374.5186	1.0	ITI	n/a	n/a	n/a	n/a	n/a	n/a	n/a	n/a
375.5186	0.5	FIXCROSS	n/a	n/a	n/a	n/a	n/a	n/a	n/a	n/a
376.0186	0.7167	COLOR_NAME	64	Incongruent	czerwony	red	zielony	green	hit	n/a
376.7214	n/a	RESPONSE	n/a	n/a	n/a	n/a	n/a	n/a	n/a	red
376.7352	1.0	ITI	n/a	n/a	n/a	n/a	n/a	n/a	n/a	n/a
377.7352	0.5	FIXCROSS	n/a	n/a	n/a	n/a	n/a	n/a	n/a	n/a
378.2352	0.45	COLOR_NAME	65	Incongruent	czerwony	red	zielony	green	hit	n/a
378.6719	n/a	RESPONSE	n/a	n/a	n/a	n/a	n/a	n/a	n/a	red
378.6852	1.0	ITI	n/a	n/a	n/a	n/a	n/a	n/a	n/a	n/a
379.6852	0.5	FIXCROSS	n/a	n/a	n/a	n/a	n/a	n/a	n/a	n/a
380.1852	0.4667	COLOR_NAME	66	Neutral	żółty	yellow	Neutral	Neutral	hit	n/a
380.6384	n/a	RESPONSE	n/a	n/a	n/a	n/a	n/a	n/a	n/a	yellow
380.6518	1.0	ITI	n/a	n/a	n/a	n/a	n/a	n/a	n/a	n/a
381.6518	0.5	FIXCROSS	n/a	n/a	n/a	n/a	n/a	n/a	n/a	n/a
382.1518	0.4667	COLOR_NAME	67	Neutral	niebieski	blue	Neutral	Neutral	hit	n/a
382.605	n/a	RESPONSE	n/a	n/a	n/a	n/a	n/a	n/a	n/a	blue
382.6185	1.0	ITI	n/a	n/a	n/a	n/a	n/a	n/a	n/a	n/a
383.6184	0.5	FIXCROSS	n/a	n/a	n/a	n/a	n/a	n/a	n/a	n/a
384.1184	0.5833	COLOR_NAME	68	Neutral	czerwony	red	Neutral	Neutral	hit	n/a
384.6835	n/a	RESPONSE	n/a	n/a	n/a	n/a	n/a	n/a	n/a	red
384.7017	1.0	ITI	n/a	n/a	n/a	n/a	n/a	n/a	n/a	n/a
385.7017	0.5	FIXCROSS	n/a	n/a	n/a	n/a	n/a	n/a	n/a	n/a
386.2017	0.5333	COLOR_NAME	69	Incongruent	żółty	yellow	niebieski	blue	hit	n/a
386.7301	n/a	RESPONSE	n/a	n/a	n/a	n/a	n/a	n/a	n/a	yellow
386.735	1.0	ITI	n/a	n/a	n/a	n/a	n/a	n/a	n/a	n/a
387.735	0.5	FIXCROSS	n/a	n/a	n/a	n/a	n/a	n/a	n/a	n/a
388.235	0.7167	COLOR_NAME	70	Incongruent	zielony	green	żółty	yellow	hit	n/a
388.9365	n/a	RESPONSE	n/a	n/a	n/a	n/a	n/a	n/a	n/a	green
388.9517	1.0	ITI	n/a	n/a	n/a	n/a	n/a	n/a	n/a	n/a
389.9516	0.5	FIXCROSS	n/a	n/a	n/a	n/a	n/a	n/a	n/a	n/a
390.4516	0.5666	COLOR_NAME	71	Neutral	zielony	green	Neutral	Neutral	hit	n/a
391.015	n/a	RESPONSE	n/a	n/a	n/a	n/a	n/a	n/a	n/a	green
391.0183	1.0	ITI	n/a	n/a	n/a	n/a	n/a	n/a	n/a	n/a
392.0183	0.5	FIXCROSS	n/a	n/a	n/a	n/a	n/a	n/a	n/a	n/a
392.5183	0.5333	COLOR_NAME	72	Neutral	czerwony	red	Neutral	Neutral	hit	n/a
393.0456	n/a	RESPONSE	n/a	n/a	n/a	n/a	n/a	n/a	n/a	red
393.0516	1.0	ITI	n/a	n/a	n/a	n/a	n/a	n/a	n/a	n/a
398.2258	n/a	RESPONSE	n/a	n/a	n/a	n/a	n/a	n/a	n/a	n/a
