onset	duration	trial_type	melody_number	melody_part	key	sound	action
0.0	14.086	CUE_START	n/a	n/a	n/a	n/a	n/a
14.086	7.76	FIXCROSS	n/a	n/a	n/a	n/a	n/a
21.846	6.316	CUE_LISTEN	M1	1	n/a	n/a	n/a
28.161	7.758	FIXCROSS	n/a	n/a	n/a	n/a	n/a
35.92	6.325	CUE_PLAYBACK_RIGHT_HAND	M1	1	n/a	n/a	n/a
36.746	n/a	RESPONSE	M1	1	19	G4	press
37.189	n/a	RESPONSE	M1	1	19	G4	release
37.29	n/a	RESPONSE	M1	1	16	E4	press
37.495	n/a	RESPONSE	M1	1	16	E4	release
37.835	n/a	RESPONSE	M1	1	16	E4	press
38.385	n/a	RESPONSE	M1	1	17	F4	press
38.419	n/a	RESPONSE	M1	1	16	E4	release
38.939	n/a	RESPONSE	M1	1	14	D4	press
39.073	n/a	RESPONSE	M1	1	17	F4	release
39.141	n/a	RESPONSE	M1	1	14	D4	release
39.504	n/a	RESPONSE	M1	1	14	D4	press
40.054	n/a	RESPONSE	M1	1	12	C4	press
40.135	n/a	RESPONSE	M1	1	14	D4	release
40.329	n/a	RESPONSE	M1	1	16	E4	press
40.428	n/a	RESPONSE	M1	1	12	C4	release
40.63	n/a	RESPONSE	M1	1	19	G4	press
40.651	n/a	RESPONSE	M1	1	16	E4	release
41.591	n/a	RESPONSE	M1	1	19	G4	release
42.244	7.758	FIXCROSS	n/a	n/a	n/a	n/a	n/a
50.003	6.317	CUE_LISTEN	M1	2	n/a	n/a	n/a
56.32	7.758	FIXCROSS	n/a	n/a	n/a	n/a	n/a
64.078	6.317	CUE_PLAYBACK_RIGHT_HAND	M1	2	n/a	n/a	n/a
65.066	n/a	RESPONSE	M1	2	19	G4	press
65.503	n/a	RESPONSE	M1	2	19	G4	release
65.644	n/a	RESPONSE	M1	2	16	E4	press
65.864	n/a	RESPONSE	M1	2	16	E4	release
66.23	n/a	RESPONSE	M1	2	16	E4	press
66.805	n/a	RESPONSE	M1	2	17	F4	press
66.854	n/a	RESPONSE	M1	2	16	E4	release
67.338	n/a	RESPONSE	M1	2	14	D4	press
67.419	n/a	RESPONSE	M1	2	17	F4	release
67.6	n/a	RESPONSE	M1	2	14	D4	release
67.918	n/a	RESPONSE	M1	2	14	D4	press
68.49	n/a	RESPONSE	M1	2	12	C4	press
68.501	n/a	RESPONSE	M1	2	11	B3	press
68.523	n/a	RESPONSE	M1	2	14	D4	release
68.644	n/a	RESPONSE	M1	2	11	B3	release
68.806	n/a	RESPONSE	M1	2	16	E4	press
68.878	n/a	RESPONSE	M1	2	12	C4	release
69.11	n/a	RESPONSE	M1	2	12	C4	press
69.15	n/a	RESPONSE	M1	2	16	E4	release
69.781	n/a	RESPONSE	M1	2	12	C4	release
70.395	7.758	FIXCROSS	n/a	n/a	n/a	n/a	n/a
78.153	6.325	CUE_LISTEN	M2	1	n/a	n/a	n/a
84.478	7.758	FIXCROSS	n/a	n/a	n/a	n/a	n/a
92.236	6.317	CUE_PLAYBACK_BOTH_HANDS	M2	1	n/a	n/a	n/a
93.215	n/a	RESPONSE	M2	1	00	C3	press
93.217	n/a	RESPONSE	M2	1	07	G3	press
93.22	n/a	RESPONSE	M2	1	23	B4	press
93.779	n/a	RESPONSE	M2	1	23	B4	release
93.81	n/a	RESPONSE	M2	1	16	E4	press
93.813	n/a	RESPONSE	M2	1	17	F4	press
93.833	n/a	RESPONSE	M2	1	00	C3	release
93.934	n/a	RESPONSE	M2	1	16	E4	release
93.936	n/a	RESPONSE	M2	1	07	G3	release
94.066	n/a	RESPONSE	M2	1	17	F4	release
94.348	n/a	RESPONSE	M2	1	17	F4	press
94.36	n/a	RESPONSE	M2	1	00	C3	press
94.363	n/a	RESPONSE	M2	1	07	G3	press
94.873	n/a	RESPONSE	M2	1	16	E4	press
94.956	n/a	RESPONSE	M2	1	00	C3	release
94.985	n/a	RESPONSE	M2	1	07	G3	release
94.988	n/a	RESPONSE	M2	1	17	F4	release
95.403	n/a	RESPONSE	M2	1	07	G3	press
95.406	n/a	RESPONSE	M2	1	00	C3	press
95.409	n/a	RESPONSE	M2	1	14	D4	press
95.444	n/a	RESPONSE	M2	1	16	E4	release
95.93	n/a	RESPONSE	M2	1	16	E4	press
95.985	n/a	RESPONSE	M2	1	00	C3	release
95.988	n/a	RESPONSE	M2	1	14	D4	release
96.023	n/a	RESPONSE	M2	1	07	G3	release
96.44	n/a	RESPONSE	M2	1	17	F4	press
96.464	n/a	RESPONSE	M2	1	00	C3	press
96.466	n/a	RESPONSE	M2	1	07	G3	press
96.496	n/a	RESPONSE	M2	1	16	E4	release
97.081	n/a	RESPONSE	M2	1	00	C3	release
97.103	n/a	RESPONSE	M2	1	17	F4	release
97.878	n/a	RESPONSE	M2	1	07	G3	release
98.553	7.758	FIXCROSS	n/a	n/a	n/a	n/a	n/a
106.311	6.317	CUE_LISTEN	M2	2	n/a	n/a	n/a
112.628	7.758	FIXCROSS	n/a	n/a	n/a	n/a	n/a
120.386	6.325	CUE_PLAYBACK_BOTH_HANDS	M2	2	n/a	n/a	n/a
121.239	n/a	RESPONSE	M2	2	23	B4	press
121.241	n/a	RESPONSE	M2	2	07	G3	press
121.251	n/a	RESPONSE	M2	2	00	C3	press
121.703	n/a	RESPONSE	M2	2	00	C3	release
121.714	n/a	RESPONSE	M2	2	07	G3	release
121.738	n/a	RESPONSE	M2	2	23	B4	release
121.866	n/a	RESPONSE	M2	2	17	F4	press
122.078	n/a	RESPONSE	M2	2	17	F4	release
122.389	n/a	RESPONSE	M2	2	17	F4	press
122.391	n/a	RESPONSE	M2	2	00	C3	press
122.401	n/a	RESPONSE	M2	2	07	G3	press
122.875	n/a	RESPONSE	M2	2	16	E4	press
122.984	n/a	RESPONSE	M2	2	00	C3	release
123.005	n/a	RESPONSE	M2	2	07	G3	release
123.036	n/a	RESPONSE	M2	2	17	F4	release
123.398	n/a	RESPONSE	M2	2	14	D4	press
123.409	n/a	RESPONSE	M2	2	00	C3	press
123.411	n/a	RESPONSE	M2	2	07	G3	press
123.471	n/a	RESPONSE	M2	2	16	E4	release
123.953	n/a	RESPONSE	M2	2	12	C4	press
123.996	n/a	RESPONSE	M2	2	00	C3	release
124.015	n/a	RESPONSE	M2	2	07	G3	release
124.026	n/a	RESPONSE	M2	2	14	D4	release
124.409	n/a	RESPONSE	M2	2	07	G3	press
124.42	n/a	RESPONSE	M2	2	00	C3	press
124.451	n/a	RESPONSE	M2	2	11	B3	press
124.575	n/a	RESPONSE	M2	2	11	B3	release
124.596	n/a	RESPONSE	M2	2	12	C4	release
125.009	n/a	RESPONSE	M2	2	00	C3	release
125.033	n/a	RESPONSE	M2	2	11	B3	press
125.36	n/a	RESPONSE	M2	2	11	B3	release
125.913	n/a	RESPONSE	M2	2	07	G3	release
126.711	7.758	FIXCROSS	n/a	n/a	n/a	n/a	n/a
128.075	n/a	RESPONSE	M2	2	11	B3	press
128.376	n/a	RESPONSE	M2	2	11	B3	release
134.47	6.317	CUE_LISTEN	M2	1	n/a	n/a	n/a
140.786	7.759	FIXCROSS	n/a	n/a	n/a	n/a	n/a
148.545	6.316	CUE_PLAYBACK_BOTH_HANDS	M2	1	n/a	n/a	n/a
149.394	n/a	RESPONSE	M2	1	00	C3	press
149.398	n/a	RESPONSE	M2	1	07	G3	press
149.416	n/a	RESPONSE	M2	1	12	C4	press
149.908	n/a	RESPONSE	M2	1	14	D4	press
150.02	n/a	RESPONSE	M2	1	12	C4	release
150.03	n/a	RESPONSE	M2	1	00	C3	release
150.033	n/a	RESPONSE	M2	1	07	G3	release
150.353	n/a	RESPONSE	M2	1	16	E4	press
150.374	n/a	RESPONSE	M2	1	14	D4	release
150.385	n/a	RESPONSE	M2	1	00	C3	press
150.388	n/a	RESPONSE	M2	1	07	G3	press
150.878	n/a	RESPONSE	M2	1	14	D4	press
150.909	n/a	RESPONSE	M2	1	00	C3	release
150.93	n/a	RESPONSE	M2	1	07	G3	release
150.934	n/a	RESPONSE	M2	1	16	E4	release
151.343	n/a	RESPONSE	M2	1	16	E4	press
151.364	n/a	RESPONSE	M2	1	00	C3	press
151.366	n/a	RESPONSE	M2	1	07	G3	press
151.406	n/a	RESPONSE	M2	1	14	D4	release
151.818	n/a	RESPONSE	M2	1	17	F4	press
151.88	n/a	RESPONSE	M2	1	00	C3	release
151.903	n/a	RESPONSE	M2	1	07	G3	release
151.912	n/a	RESPONSE	M2	1	16	E4	release
152.304	n/a	RESPONSE	M2	1	00	C3	press
152.314	n/a	RESPONSE	M2	1	07	G3	press
152.316	n/a	RESPONSE	M2	1	19	G4	press
152.376	n/a	RESPONSE	M2	1	17	F4	release
152.969	n/a	RESPONSE	M2	1	00	C3	release
152.99	n/a	RESPONSE	M2	1	07	G3	release
153.0	n/a	RESPONSE	M2	1	19	G4	release
154.861	7.758	FIXCROSS	n/a	n/a	n/a	n/a	n/a
162.62	6.325	CUE_LISTEN	M2	2	n/a	n/a	n/a
168.945	7.759	FIXCROSS	n/a	n/a	n/a	n/a	n/a
176.703	6.316	CUE_PLAYBACK_BOTH_HANDS	M2	2	n/a	n/a	n/a
177.499	n/a	RESPONSE	M2	2	16	E4	press
177.503	n/a	RESPONSE	M2	2	00	C3	press
177.509	n/a	RESPONSE	M2	2	07	G3	press
178.009	n/a	RESPONSE	M2	2	19	G4	press
178.065	n/a	RESPONSE	M2	2	16	E4	release
178.175	n/a	RESPONSE	M2	2	00	C3	release
178.178	n/a	RESPONSE	M2	2	07	G3	release
178.238	n/a	RESPONSE	M2	2	19	G4	release
178.569	n/a	RESPONSE	M2	2	19	G4	press
178.571	n/a	RESPONSE	M2	2	00	C3	press
178.574	n/a	RESPONSE	M2	2	07	G3	press
179.074	n/a	RESPONSE	M2	2	17	F4	press
179.145	n/a	RESPONSE	M2	2	19	G4	release
179.196	n/a	RESPONSE	M2	2	00	C3	release
179.219	n/a	RESPONSE	M2	2	07	G3	release
179.569	n/a	RESPONSE	M2	2	16	E4	press
179.58	n/a	RESPONSE	M2	2	00	C3	press
179.583	n/a	RESPONSE	M2	2	07	G3	press
179.653	n/a	RESPONSE	M2	2	17	F4	release
180.094	n/a	RESPONSE	M2	2	14	D4	press
180.146	n/a	RESPONSE	M2	2	00	C3	release
180.168	n/a	RESPONSE	M2	2	07	G3	release
180.199	n/a	RESPONSE	M2	2	16	E4	release
180.589	n/a	RESPONSE	M2	2	00	C3	press
180.6	n/a	RESPONSE	M2	2	07	G3	press
180.603	n/a	RESPONSE	M2	2	12	C4	press
180.663	n/a	RESPONSE	M2	2	14	D4	release
181.456	n/a	RESPONSE	M2	2	00	C3	release
181.575	n/a	RESPONSE	M2	2	12	C4	release
181.646	n/a	RESPONSE	M2	2	07	G3	release
183.02	7.758	FIXCROSS	n/a	n/a	n/a	n/a	n/a
190.778	6.317	CUE_LISTEN	M1	1	n/a	n/a	n/a
197.095	7.758	FIXCROSS	n/a	n/a	n/a	n/a	n/a
204.853	6.325	CUE_PLAYBACK_RIGHT_HAND	M1	1	n/a	n/a	n/a
205.689	n/a	RESPONSE	M1	1	19	G4	press
206.099	n/a	RESPONSE	M1	1	19	G4	release
206.204	n/a	RESPONSE	M1	1	16	E4	press
206.434	n/a	RESPONSE	M1	1	16	E4	release
206.704	n/a	RESPONSE	M1	1	16	E4	press
207.144	n/a	RESPONSE	M1	1	16	E4	release
207.22	n/a	RESPONSE	M1	1	17	F4	press
207.621	n/a	RESPONSE	M1	1	17	F4	release
207.728	n/a	RESPONSE	M1	1	14	D4	press
207.954	n/a	RESPONSE	M1	1	14	D4	release
208.238	n/a	RESPONSE	M1	1	14	D4	press
208.56	n/a	RESPONSE	M1	1	14	D4	release
208.741	n/a	RESPONSE	M1	1	12	C4	press
209.033	n/a	RESPONSE	M1	1	16	E4	press
209.134	n/a	RESPONSE	M1	1	12	C4	release
209.295	n/a	RESPONSE	M1	1	19	G4	press
209.326	n/a	RESPONSE	M1	1	16	E4	release
210.068	n/a	RESPONSE	M1	1	19	G4	release
211.178	7.758	FIXCROSS	n/a	n/a	n/a	n/a	n/a
218.937	6.325	CUE_LISTEN	M1	2	n/a	n/a	n/a
225.262	7.758	FIXCROSS	n/a	n/a	n/a	n/a	n/a
233.02	6.308	CUE_PLAYBACK_RIGHT_HAND	M1	2	n/a	n/a	n/a
234.168	n/a	RESPONSE	M1	2	19	G4	press
234.59	n/a	RESPONSE	M1	2	19	G4	release
234.701	n/a	RESPONSE	M1	2	16	E4	press
234.923	n/a	RESPONSE	M1	2	16	E4	release
235.226	n/a	RESPONSE	M1	2	16	E4	press
235.721	n/a	RESPONSE	M1	2	17	F4	press
235.739	n/a	RESPONSE	M1	2	16	E4	release
236.089	n/a	RESPONSE	M1	2	17	F4	release
236.249	n/a	RESPONSE	M1	2	14	D4	press
236.503	n/a	RESPONSE	M1	2	14	D4	release
236.773	n/a	RESPONSE	M1	2	14	D4	press
237.209	n/a	RESPONSE	M1	2	14	D4	release
237.329	n/a	RESPONSE	M1	2	12	C4	press
237.626	n/a	RESPONSE	M1	2	16	E4	press
237.704	n/a	RESPONSE	M1	2	12	C4	release
237.919	n/a	RESPONSE	M1	2	12	C4	press
237.954	n/a	RESPONSE	M1	2	16	E4	release
238.464	n/a	RESPONSE	M1	2	12	C4	release
239.328	7.758	FIXCROSS	n/a	n/a	n/a	n/a	n/a
247.087	6.325	CUE_LISTEN	M3	1	n/a	n/a	n/a
253.412	7.758	FIXCROSS	n/a	n/a	n/a	n/a	n/a
261.17	6.317	CUE_PLAYBACK_RIGHT_HAND	M3	1	n/a	n/a	n/a
262.02	n/a	RESPONSE	M3	1	12	C4	press
262.509	n/a	RESPONSE	M3	1	14	D4	press
262.59	n/a	RESPONSE	M3	1	12	C4	release
262.981	n/a	RESPONSE	M3	1	16	E4	press
263.063	n/a	RESPONSE	M3	1	14	D4	release
263.484	n/a	RESPONSE	M3	1	12	C4	press
263.525	n/a	RESPONSE	M3	1	16	E4	release
263.716	n/a	RESPONSE	M3	1	12	C4	release
263.999	n/a	RESPONSE	M3	1	12	C4	press
264.489	n/a	RESPONSE	M3	1	14	D4	press
264.584	n/a	RESPONSE	M3	1	12	C4	release
264.948	n/a	RESPONSE	M3	1	16	E4	press
265.046	n/a	RESPONSE	M3	1	14	D4	release
265.476	n/a	RESPONSE	M3	1	12	C4	press
265.501	n/a	RESPONSE	M3	1	16	E4	release
265.831	n/a	RESPONSE	M3	1	12	C4	release
267.487	7.758	FIXCROSS	n/a	n/a	n/a	n/a	n/a
275.245	6.325	CUE_LISTEN	M3	2	n/a	n/a	n/a
281.57	7.758	FIXCROSS	n/a	n/a	n/a	n/a	n/a
289.328	6.317	CUE_PLAYBACK_RIGHT_HAND	M3	2	n/a	n/a	n/a
290.121	n/a	RESPONSE	M3	2	16	E4	press
290.594	n/a	RESPONSE	M3	2	17	F4	press
290.664	n/a	RESPONSE	M3	2	16	E4	release
291.075	n/a	RESPONSE	M3	2	19	G4	press
291.126	n/a	RESPONSE	M3	2	17	F4	release
291.778	n/a	RESPONSE	M3	2	19	G4	release
292.099	n/a	RESPONSE	M3	2	16	E4	press
292.59	n/a	RESPONSE	M3	2	17	F4	press
292.661	n/a	RESPONSE	M3	2	16	E4	release
293.083	n/a	RESPONSE	M3	2	19	G4	press
293.134	n/a	RESPONSE	M3	2	17	F4	release
293.875	n/a	RESPONSE	M3	2	19	G4	release
295.645	7.758	FIXCROSS	n/a	n/a	n/a	n/a	n/a
303.404	6.317	CUE_LISTEN	M3	1	n/a	n/a	n/a
309.72	7.758	FIXCROSS	n/a	n/a	n/a	n/a	n/a
317.478	6.325	CUE_PLAYBACK_RIGHT_HAND	M3	1	n/a	n/a	n/a
318.193	n/a	RESPONSE	M3	1	19	G4	press
318.494	n/a	RESPONSE	M3	1	21	A4	press
318.566	n/a	RESPONSE	M3	1	19	G4	release
318.759	n/a	RESPONSE	M3	1	19	G4	press
318.859	n/a	RESPONSE	M3	1	21	A4	release
319.05	n/a	RESPONSE	M3	1	17	F4	press
319.194	n/a	RESPONSE	M3	1	19	G4	release
319.355	n/a	RESPONSE	M3	1	16	E4	press
319.504	n/a	RESPONSE	M3	1	17	F4	release
319.945	n/a	RESPONSE	M3	1	12	C4	press
320.026	n/a	RESPONSE	M3	1	16	E4	release
320.568	n/a	RESPONSE	M3	1	19	G4	press
320.589	n/a	RESPONSE	M3	1	12	C4	release
320.86	n/a	RESPONSE	M3	1	21	A4	press
320.921	n/a	RESPONSE	M3	1	19	G4	release
321.103	n/a	RESPONSE	M3	1	19	G4	press
321.214	n/a	RESPONSE	M3	1	21	A4	release
321.405	n/a	RESPONSE	M3	1	17	F4	press
321.569	n/a	RESPONSE	M3	1	19	G4	release
321.738	n/a	RESPONSE	M3	1	16	E4	press
321.86	n/a	RESPONSE	M3	1	17	F4	release
322.363	n/a	RESPONSE	M3	1	12	C4	press
322.453	n/a	RESPONSE	M3	1	16	E4	release
322.993	n/a	RESPONSE	M3	1	12	C4	release
323.803	7.758	FIXCROSS	n/a	n/a	n/a	n/a	n/a
331.562	6.317	CUE_LISTEN	M3	2	n/a	n/a	n/a
337.878	7.758	FIXCROSS	n/a	n/a	n/a	n/a	n/a
345.637	6.317	CUE_PLAYBACK_RIGHT_HAND	M3	2	n/a	n/a	n/a
346.309	n/a	RESPONSE	M3	2	12	C4	press
346.856	n/a	RESPONSE	M3	2	07	G3	press
346.979	n/a	RESPONSE	M3	2	12	C4	release
347.409	n/a	RESPONSE	M3	2	12	C4	press
347.45	n/a	RESPONSE	M3	2	07	G3	release
348.146	n/a	RESPONSE	M3	2	12	C4	release
348.459	n/a	RESPONSE	M3	2	12	C4	press
349.014	n/a	RESPONSE	M3	2	07	G3	press
349.174	n/a	RESPONSE	M3	2	12	C4	release
349.554	n/a	RESPONSE	M3	2	12	C4	press
349.625	n/a	RESPONSE	M3	2	07	G3	release
350.229	n/a	RESPONSE	M3	2	12	C4	release
351.954	7.758	FIXCROSS	n/a	n/a	n/a	n/a	n/a
359.712	6.325	CUE_LISTEN	M1	1	n/a	n/a	n/a
366.037	7.758	FIXCROSS	n/a	n/a	n/a	n/a	n/a
373.795	6.317	CUE_PLAYBACK_BOTH_HANDS	M1	1	n/a	n/a	n/a
374.578	n/a	RESPONSE	M1	1	19	G4	press
374.589	n/a	RESPONSE	M1	1	07	G3	press
374.591	n/a	RESPONSE	M1	1	00	C3	press
374.594	n/a	RESPONSE	M1	1	04	E3	press
375.088	n/a	RESPONSE	M1	1	19	G4	release
375.238	n/a	RESPONSE	M1	1	16	E4	press
375.516	n/a	RESPONSE	M1	1	16	E4	release
375.876	n/a	RESPONSE	M1	1	16	E4	press
376.15	n/a	RESPONSE	M1	1	00	C3	release
376.183	n/a	RESPONSE	M1	1	07	G3	release
376.196	n/a	RESPONSE	M1	1	04	E3	release
376.21	n/a	RESPONSE	M1	1	16	E4	release
376.514	n/a	RESPONSE	M1	1	05	F3	press
376.524	n/a	RESPONSE	M1	1	02	D3	press
376.528	n/a	RESPONSE	M1	1	07	G3	press
376.539	n/a	RESPONSE	M1	1	17	F4	press
377.054	n/a	RESPONSE	M1	1	17	F4	release
377.18	n/a	RESPONSE	M1	1	14	D4	press
377.463	n/a	RESPONSE	M1	1	14	D4	release
377.794	n/a	RESPONSE	M1	1	14	D4	press
378.008	n/a	RESPONSE	M1	1	02	D3	release
378.028	n/a	RESPONSE	M1	1	05	F3	release
378.045	n/a	RESPONSE	M1	1	14	D4	release
378.43	n/a	RESPONSE	M1	1	00	C3	press
378.433	n/a	RESPONSE	M1	1	04	E3	press
378.443	n/a	RESPONSE	M1	1	12	C4	press
378.785	n/a	RESPONSE	M1	1	16	E4	press
378.906	n/a	RESPONSE	M1	1	12	C4	release
379.128	n/a	RESPONSE	M1	1	19	G4	press
379.169	n/a	RESPONSE	M1	1	16	E4	release
379.38	n/a	RESPONSE	M1	1	00	C3	release
379.641	n/a	RESPONSE	M1	1	19	G4	release
380.112	7.758	FIXCROSS	n/a	n/a	n/a	n/a	n/a
387.87	6.317	CUE_LISTEN	M1	2	n/a	n/a	n/a
394.187	7.758	FIXCROSS	n/a	n/a	n/a	n/a	n/a
401.945	6.325	CUE_PLAYBACK_BOTH_HANDS	M1	2	n/a	n/a	n/a
402.419	n/a	RESPONSE	M1	2	07	G3	release
402.468	n/a	RESPONSE	M1	2	04	E3	release
402.879	n/a	RESPONSE	M1	2	19	G4	press
402.891	n/a	RESPONSE	M1	2	00	C3	press
402.901	n/a	RESPONSE	M1	2	04	E3	press
402.904	n/a	RESPONSE	M1	2	07	G3	press
403.324	n/a	RESPONSE	M1	2	19	G4	release
403.466	n/a	RESPONSE	M1	2	16	E4	press
403.749	n/a	RESPONSE	M1	2	16	E4	release
404.048	n/a	RESPONSE	M1	2	16	E4	press
404.209	n/a	RESPONSE	M1	2	00	C3	release
404.29	n/a	RESPONSE	M1	2	16	E4	release
404.293	n/a	RESPONSE	M1	2	04	E3	release
404.543	n/a	RESPONSE	M1	2	07	G3	release
404.626	n/a	RESPONSE	M1	2	02	D3	press
404.63	n/a	RESPONSE	M1	2	05	F3	press
404.639	n/a	RESPONSE	M1	2	17	F4	press
404.641	n/a	RESPONSE	M1	2	07	G3	press
405.098	n/a	RESPONSE	M1	2	17	F4	release
405.231	n/a	RESPONSE	M1	2	14	D4	press
405.473	n/a	RESPONSE	M1	2	14	D4	release
405.788	n/a	RESPONSE	M1	2	14	D4	press
405.969	n/a	RESPONSE	M1	2	02	D3	release
405.979	n/a	RESPONSE	M1	2	05	F3	release
406.016	n/a	RESPONSE	M1	2	14	D4	release
406.144	n/a	RESPONSE	M1	2	07	G3	release
406.366	n/a	RESPONSE	M1	2	04	E3	press
406.369	n/a	RESPONSE	M1	2	00	C3	press
406.371	n/a	RESPONSE	M1	2	07	G3	press
406.391	n/a	RESPONSE	M1	2	12	C4	press
406.706	n/a	RESPONSE	M1	2	16	E4	press
406.783	n/a	RESPONSE	M1	2	12	C4	release
407.029	n/a	RESPONSE	M1	2	12	C4	press
407.046	n/a	RESPONSE	M1	2	16	E4	release
407.685	n/a	RESPONSE	M1	2	12	C4	release
407.753	n/a	RESPONSE	M1	2	00	C3	release
407.826	n/a	RESPONSE	M1	2	04	E3	release
408.27	7.758	FIXCROSS	n/a	n/a	n/a	n/a	n/a
416.029	6.317	CUE_LISTEN	M2	1	n/a	n/a	n/a
417.559	n/a	RESPONSE	M2	1	07	G3	release
422.345	7.758	FIXCROSS	n/a	n/a	n/a	n/a	n/a
427.098	n/a	RESPONSE	M2	1	19	G4	press
427.286	n/a	RESPONSE	M2	1	19	G4	release
428.071	n/a	RESPONSE	M2	1	19	G4	press
428.33	n/a	RESPONSE	M2	1	19	G4	release
428.54	n/a	RESPONSE	M2	1	17	F4	press
428.924	n/a	RESPONSE	M2	1	17	F4	release
429.185	n/a	RESPONSE	M2	1	16	E4	press
429.486	n/a	RESPONSE	M2	1	16	E4	release
430.104	6.325	CUE_PLAYBACK_RIGHT_HAND	M2	1	n/a	n/a	n/a
431.538	n/a	RESPONSE	M2	1	24	C5	press
431.89	n/a	RESPONSE	M2	1	24	C5	release
432.08	n/a	RESPONSE	M2	1	19	G4	press
432.283	n/a	RESPONSE	M2	1	19	G4	release
432.603	n/a	RESPONSE	M2	1	19	G4	press
433.064	n/a	RESPONSE	M2	1	17	F4	press
433.135	n/a	RESPONSE	M2	1	19	G4	release
433.566	n/a	RESPONSE	M2	1	16	E4	press
433.638	n/a	RESPONSE	M2	1	17	F4	release
434.029	n/a	RESPONSE	M2	1	17	F4	press
434.1	n/a	RESPONSE	M2	1	16	E4	release
434.543	n/a	RESPONSE	M2	1	19	G4	press
434.609	n/a	RESPONSE	M2	1	17	F4	release
435.57	n/a	RESPONSE	M2	1	19	G4	release
436.429	7.758	FIXCROSS	n/a	n/a	n/a	n/a	n/a
444.187	6.317	CUE_LISTEN	M2	2	n/a	n/a	n/a
450.504	7.758	FIXCROSS	n/a	n/a	n/a	n/a	n/a
458.262	6.317	CUE_PLAYBACK_RIGHT_HAND	M2	2	n/a	n/a	n/a
459.065	n/a	RESPONSE	M2	2	23	B4	press
459.586	n/a	RESPONSE	M2	2	23	B4	release
460.088	n/a	RESPONSE	M2	2	24	C5	press
460.311	n/a	RESPONSE	M2	2	24	C5	release
460.59	n/a	RESPONSE	M2	2	17	F4	press
460.801	n/a	RESPONSE	M2	2	17	F4	release
461.543	n/a	RESPONSE	M2	2	24	C5	press
461.826	n/a	RESPONSE	M2	2	24	C5	release
462.085	n/a	RESPONSE	M2	2	16	E4	press
462.268	n/a	RESPONSE	M2	2	16	E4	release
462.578	n/a	RESPONSE	M2	2	16	E4	press
463.089	n/a	RESPONSE	M2	2	14	D4	press
463.3	n/a	RESPONSE	M2	2	16	E4	release
463.581	n/a	RESPONSE	M2	2	12	C4	press
463.773	n/a	RESPONSE	M2	2	14	D4	release
464.094	n/a	RESPONSE	M2	2	11	B3	press
464.145	n/a	RESPONSE	M2	2	12	C4	release
464.376	n/a	RESPONSE	M2	2	11	B3	release
464.579	7.758	FIXCROSS	n/a	n/a	n/a	n/a	n/a
466.194	n/a	RESPONSE	M2	2	12	C4	press
466.448	n/a	RESPONSE	M2	2	12	C4	release
466.633	n/a	RESPONSE	M2	2	12	C4	press
466.914	n/a	RESPONSE	M2	2	12	C4	release
467.46	n/a	RESPONSE	M2	2	14	D4	press
467.883	n/a	RESPONSE	M2	2	14	D4	release
467.899	n/a	RESPONSE	M2	2	16	E4	press
468.273	n/a	RESPONSE	M2	2	17	F4	press
468.334	n/a	RESPONSE	M2	2	16	E4	release
468.698	n/a	RESPONSE	M2	2	17	F4	release
469.228	n/a	RESPONSE	M2	2	19	G4	press
469.399	n/a	RESPONSE	M2	2	19	G4	release
472.337	6.317	CUE_LISTEN	M2	1	n/a	n/a	n/a
473.933	n/a	RESPONSE	M2	1	14	D4	press
474.214	n/a	RESPONSE	M2	1	14	D4	release
477.223	n/a	RESPONSE	M2	1	14	D4	press
477.465	n/a	RESPONSE	M2	1	14	D4	release
478.645	n/a	RESPONSE	M2	1	16	E4	press
478.654	7.758	FIXCROSS	n/a	n/a	n/a	n/a	n/a
478.936	n/a	RESPONSE	M2	1	16	E4	release
486.412	6.325	CUE_PLAYBACK_RIGHT_HAND	M2	1	n/a	n/a	n/a
487.228	n/a	RESPONSE	M2	1	12	C4	press
487.706	n/a	RESPONSE	M2	1	14	D4	press
487.793	n/a	RESPONSE	M2	1	12	C4	release
488.195	n/a	RESPONSE	M2	1	16	E4	press
488.268	n/a	RESPONSE	M2	1	14	D4	release
488.699	n/a	RESPONSE	M2	1	14	D4	press
488.77	n/a	RESPONSE	M2	1	16	E4	release
489.171	n/a	RESPONSE	M2	1	16	E4	press
489.243	n/a	RESPONSE	M2	1	14	D4	release
489.664	n/a	RESPONSE	M2	1	17	F4	press
489.766	n/a	RESPONSE	M2	1	16	E4	release
490.146	n/a	RESPONSE	M2	1	19	G4	press
490.208	n/a	RESPONSE	M2	1	17	F4	release
490.839	n/a	RESPONSE	M2	1	19	G4	release
492.737	7.758	FIXCROSS	n/a	n/a	n/a	n/a	n/a
500.496	6.317	CUE_LISTEN	M2	2	n/a	n/a	n/a
506.812	7.758	FIXCROSS	n/a	n/a	n/a	n/a	n/a
514.571	6.325	CUE_PLAYBACK_RIGHT_HAND	M2	2	n/a	n/a	n/a
515.518	n/a	RESPONSE	M2	2	16	E4	press
515.983	n/a	RESPONSE	M2	2	16	E4	release
516.033	n/a	RESPONSE	M2	2	19	G4	press
516.263	n/a	RESPONSE	M2	2	19	G4	release
516.549	n/a	RESPONSE	M2	2	19	G4	press
517.029	n/a	RESPONSE	M2	2	17	F4	press
517.136	n/a	RESPONSE	M2	2	19	G4	release
517.478	n/a	RESPONSE	M2	2	16	E4	press
517.553	n/a	RESPONSE	M2	2	17	F4	release
517.963	n/a	RESPONSE	M2	2	14	D4	press
518.048	n/a	RESPONSE	M2	2	16	E4	release
518.451	n/a	RESPONSE	M2	2	12	C4	press
518.553	n/a	RESPONSE	M2	2	14	D4	release
518.808	n/a	RESPONSE	M2	2	12	C4	release
520.895	7.758	FIXCROSS	n/a	n/a	n/a	n/a	n/a
528.654	6.317	CUE_LISTEN	M3	1	n/a	n/a	n/a
534.97	7.767	FIXCROSS	n/a	n/a	n/a	n/a	n/a
537.618	n/a	RESPONSE	M3	1	07	G3	press
538.003	n/a	RESPONSE	M3	1	07	G3	release
542.669	n/a	RESPONSE	M3	1	12	C4	press
542.737	6.308	CUE_PLAYBACK_BOTH_HANDS	M3	1	n/a	n/a	n/a
543.02	n/a	RESPONSE	M3	1	12	C4	release
543.96	n/a	RESPONSE	M3	1	00	C3	press
543.99	n/a	RESPONSE	M3	1	12	C4	press
544.521	n/a	RESPONSE	M3	1	07	G3	press
544.533	n/a	RESPONSE	M3	1	14	D4	press
544.609	n/a	RESPONSE	M3	1	00	C3	release
544.653	n/a	RESPONSE	M3	1	12	C4	release
544.995	n/a	RESPONSE	M3	1	04	E3	press
545.011	n/a	RESPONSE	M3	1	16	E4	press
545.091	n/a	RESPONSE	M3	1	14	D4	release
545.094	n/a	RESPONSE	M3	1	07	G3	release
545.483	n/a	RESPONSE	M3	1	07	G3	press
545.535	n/a	RESPONSE	M3	1	12	C4	press
545.583	n/a	RESPONSE	M3	1	04	E3	release
545.611	n/a	RESPONSE	M3	1	16	E4	release
545.723	n/a	RESPONSE	M3	1	07	G3	release
545.781	n/a	RESPONSE	M3	1	12	C4	release
546.038	n/a	RESPONSE	M3	1	00	C3	press
546.046	n/a	RESPONSE	M3	1	12	C4	press
546.544	n/a	RESPONSE	M3	1	07	G3	press
546.546	n/a	RESPONSE	M3	1	14	D4	press
546.629	n/a	RESPONSE	M3	1	00	C3	release
546.648	n/a	RESPONSE	M3	1	12	C4	release
547.014	n/a	RESPONSE	M3	1	04	E3	press
547.016	n/a	RESPONSE	M3	1	16	E4	press
547.113	n/a	RESPONSE	M3	1	14	D4	release
547.115	n/a	RESPONSE	M3	1	07	G3	release
547.501	n/a	RESPONSE	M3	1	07	G3	press
547.519	n/a	RESPONSE	M3	1	12	C4	press
547.568	n/a	RESPONSE	M3	1	04	E3	release
547.58	n/a	RESPONSE	M3	1	16	E4	release
547.738	n/a	RESPONSE	M3	1	07	G3	release
547.814	n/a	RESPONSE	M3	1	12	C4	release
549.046	7.759	FIXCROSS	n/a	n/a	n/a	n/a	n/a
556.804	6.325	CUE_LISTEN	M3	2	n/a	n/a	n/a
563.129	7.758	FIXCROSS	n/a	n/a	n/a	n/a	n/a
570.887	6.317	CUE_PLAYBACK_BOTH_HANDS	M3	2	n/a	n/a	n/a
571.691	n/a	RESPONSE	M3	2	16	E4	press
571.703	n/a	RESPONSE	M3	2	00	C3	press
572.254	n/a	RESPONSE	M3	2	17	F4	press
572.256	n/a	RESPONSE	M3	2	07	G3	press
572.328	n/a	RESPONSE	M3	2	16	E4	release
572.338	n/a	RESPONSE	M3	2	00	C3	release
572.751	n/a	RESPONSE	M3	2	04	E3	press
572.79	n/a	RESPONSE	M3	2	19	G4	press
572.843	n/a	RESPONSE	M3	2	07	G3	release
572.845	n/a	RESPONSE	M3	2	17	F4	release
573.294	n/a	RESPONSE	M3	2	07	G3	press
573.385	n/a	RESPONSE	M3	2	04	E3	release
573.516	n/a	RESPONSE	M3	2	19	G4	release
573.519	n/a	RESPONSE	M3	2	07	G3	release
573.829	n/a	RESPONSE	M3	2	00	C3	press
573.85	n/a	RESPONSE	M3	2	16	E4	press
574.373	n/a	RESPONSE	M3	2	17	F4	press
574.393	n/a	RESPONSE	M3	2	07	G3	press
574.446	n/a	RESPONSE	M3	2	16	E4	release
574.485	n/a	RESPONSE	M3	2	00	C3	release
574.873	n/a	RESPONSE	M3	2	04	E3	press
574.898	n/a	RESPONSE	M3	2	19	G4	press
574.949	n/a	RESPONSE	M3	2	07	G3	release
574.961	n/a	RESPONSE	M3	2	17	F4	release
575.38	n/a	RESPONSE	M3	2	07	G3	press
575.466	n/a	RESPONSE	M3	2	04	E3	release
575.689	n/a	RESPONSE	M3	2	07	G3	release
575.701	n/a	RESPONSE	M3	2	19	G4	release
577.204	7.758	FIXCROSS	n/a	n/a	n/a	n/a	n/a
582.564	n/a	RESPONSE	M3	2	12	C4	press
582.945	n/a	RESPONSE	M3	2	12	C4	release
584.962	6.317	CUE_LISTEN	M3	1	n/a	n/a	n/a
591.279	7.758	FIXCROSS	n/a	n/a	n/a	n/a	n/a
599.037	6.325	CUE_PLAYBACK_BOTH_HANDS	M3	1	n/a	n/a	n/a
599.946	n/a	RESPONSE	M3	1	19	G4	press
599.955	n/a	RESPONSE	M3	1	00	C3	press
600.306	n/a	RESPONSE	M3	1	21	A4	press
600.548	n/a	RESPONSE	M3	1	19	G4	release
600.649	n/a	RESPONSE	M3	1	19	G4	press
600.661	n/a	RESPONSE	M3	1	07	G3	press
600.721	n/a	RESPONSE	M3	1	00	C3	release
600.734	n/a	RESPONSE	M3	1	21	A4	release
600.996	n/a	RESPONSE	M3	1	17	F4	press
601.218	n/a	RESPONSE	M3	1	19	G4	release
601.336	n/a	RESPONSE	M3	1	04	E3	press
601.378	n/a	RESPONSE	M3	1	16	E4	press
601.419	n/a	RESPONSE	M3	1	07	G3	release
601.533	n/a	RESPONSE	M3	1	17	F4	release
602.021	n/a	RESPONSE	M3	1	07	G3	press
602.024	n/a	RESPONSE	M3	1	12	C4	press
602.094	n/a	RESPONSE	M3	1	04	E3	release
602.125	n/a	RESPONSE	M3	1	16	E4	release
602.466	n/a	RESPONSE	M3	1	07	G3	release
602.478	n/a	RESPONSE	M3	1	12	C4	release
602.809	n/a	RESPONSE	M3	1	00	C3	press
602.811	n/a	RESPONSE	M3	1	19	G4	press
603.171	n/a	RESPONSE	M3	1	21	A4	press
603.233	n/a	RESPONSE	M3	1	19	G4	release
603.504	n/a	RESPONSE	M3	1	19	G4	press
603.516	n/a	RESPONSE	M3	1	07	G3	press
603.559	n/a	RESPONSE	M3	1	00	C3	release
603.668	n/a	RESPONSE	M3	1	21	A4	release
603.999	n/a	RESPONSE	M3	1	17	F4	press
604.12	n/a	RESPONSE	M3	1	19	G4	release
604.391	n/a	RESPONSE	M3	1	04	E3	press
604.403	n/a	RESPONSE	M3	1	16	E4	press
604.424	n/a	RESPONSE	M3	1	07	G3	release
604.506	n/a	RESPONSE	M3	1	17	F4	release
605.133	n/a	RESPONSE	M3	1	07	G3	press
605.149	n/a	RESPONSE	M3	1	12	C4	press
605.199	n/a	RESPONSE	M3	1	04	E3	release
605.343	n/a	RESPONSE	M3	1	16	E4	release
605.362	7.758	FIXCROSS	n/a	n/a	n/a	n/a	n/a
605.553	n/a	RESPONSE	M3	1	12	C4	release
605.57	n/a	RESPONSE	M3	1	07	G3	release
613.121	6.317	CUE_LISTEN	M3	2	n/a	n/a	n/a
619.437	7.758	FIXCROSS	n/a	n/a	n/a	n/a	n/a
627.196	6.317	CUE_PLAYBACK_BOTH_HANDS	M3	2	n/a	n/a	n/a
627.973	n/a	RESPONSE	M3	2	00	C3	press
627.975	n/a	RESPONSE	M3	2	12	C4	press
628.536	n/a	RESPONSE	M3	2	07	G3	press
628.548	n/a	RESPONSE	M3	2	12	C4	release
628.591	n/a	RESPONSE	M3	2	00	C3	release
629.063	n/a	RESPONSE	M3	2	00	C3	press
629.073	n/a	RESPONSE	M3	2	12	C4	press
629.104	n/a	RESPONSE	M3	2	07	G3	release
629.775	n/a	RESPONSE	M3	2	12	C4	release
629.796	n/a	RESPONSE	M3	2	00	C3	release
630.098	n/a	RESPONSE	M3	2	00	C3	press
630.1	n/a	RESPONSE	M3	2	12	C4	press
630.7	n/a	RESPONSE	M3	2	07	G3	press
630.733	n/a	RESPONSE	M3	2	00	C3	release
630.793	n/a	RESPONSE	M3	2	12	C4	release
631.254	n/a	RESPONSE	M3	2	00	C3	press
631.275	n/a	RESPONSE	M3	2	12	C4	press
631.286	n/a	RESPONSE	M3	2	07	G3	release
631.988	n/a	RESPONSE	M3	2	00	C3	release
632.019	n/a	RESPONSE	M3	2	12	C4	release
633.512	7.758	FIXCROSS	n/a	n/a	n/a	n/a	n/a
641.271	6.325	CUE_LISTEN	M1	1	n/a	n/a	n/a
647.596	7.758	FIXCROSS	n/a	n/a	n/a	n/a	n/a
655.354	6.317	CUE_PLAYBACK_BOTH_HANDS	M1	1	n/a	n/a	n/a
656.338	n/a	RESPONSE	M1	1	19	G4	press
656.353	n/a	RESPONSE	M1	1	00	C3	press
656.36	n/a	RESPONSE	M1	1	07	G3	press
656.363	n/a	RESPONSE	M1	1	04	E3	press
656.794	n/a	RESPONSE	M1	1	19	G4	release
656.961	n/a	RESPONSE	M1	1	16	E4	press
657.228	n/a	RESPONSE	M1	1	16	E4	release
657.558	n/a	RESPONSE	M1	1	16	E4	press
657.895	n/a	RESPONSE	M1	1	16	E4	release
657.918	n/a	RESPONSE	M1	1	00	C3	release
657.953	n/a	RESPONSE	M1	1	04	E3	release
658.171	n/a	RESPONSE	M1	1	05	F3	press
658.174	n/a	RESPONSE	M1	1	02	D3	press
658.184	n/a	RESPONSE	M1	1	17	F4	press
658.585	n/a	RESPONSE	M1	1	17	F4	release
658.739	n/a	RESPONSE	M1	1	14	D4	press
659.009	n/a	RESPONSE	M1	1	14	D4	release
659.31	n/a	RESPONSE	M1	1	14	D4	press
659.521	n/a	RESPONSE	M1	1	05	F3	release
659.543	n/a	RESPONSE	M1	1	02	D3	release
659.545	n/a	RESPONSE	M1	1	14	D4	release
659.665	n/a	RESPONSE	M1	1	07	G3	release
659.856	n/a	RESPONSE	M1	1	00	C3	press
659.868	n/a	RESPONSE	M1	1	04	E3	press
659.87	n/a	RESPONSE	M1	1	07	G3	press
659.88	n/a	RESPONSE	M1	1	12	C4	press
660.183	n/a	RESPONSE	M1	1	16	E4	press
660.293	n/a	RESPONSE	M1	1	12	C4	release
660.474	n/a	RESPONSE	M1	1	19	G4	press
660.535	n/a	RESPONSE	M1	1	16	E4	release
660.916	n/a	RESPONSE	M1	1	07	G3	release
660.919	n/a	RESPONSE	M1	1	00	C3	release
660.939	n/a	RESPONSE	M1	1	19	G4	release
661.03	n/a	RESPONSE	M1	1	04	E3	release
661.671	7.758	FIXCROSS	n/a	n/a	n/a	n/a	n/a
669.429	6.317	CUE_LISTEN	M1	2	n/a	n/a	n/a
675.746	7.758	FIXCROSS	n/a	n/a	n/a	n/a	n/a
683.504	6.325	CUE_PLAYBACK_BOTH_HANDS	M1	2	n/a	n/a	n/a
684.609	n/a	RESPONSE	M1	2	00	C3	press
684.611	n/a	RESPONSE	M1	2	19	G4	press
684.625	n/a	RESPONSE	M1	2	07	G3	press
685.019	n/a	RESPONSE	M1	2	04	E3	press
685.426	n/a	RESPONSE	M1	2	00	C3	release
685.475	n/a	RESPONSE	M1	2	19	G4	release
685.504	n/a	RESPONSE	M1	2	07	G3	release
685.609	n/a	RESPONSE	M1	2	04	E3	release
685.709	n/a	RESPONSE	M1	2	00	C3	press
685.711	n/a	RESPONSE	M1	2	19	G4	press
685.714	n/a	RESPONSE	M1	2	04	E3	press
685.721	n/a	RESPONSE	M1	2	07	G3	press
686.131	n/a	RESPONSE	M1	2	19	G4	release
686.271	n/a	RESPONSE	M1	2	16	E4	press
686.518	n/a	RESPONSE	M1	2	16	E4	release
686.806	n/a	RESPONSE	M1	2	16	E4	press
687.029	n/a	RESPONSE	M1	2	00	C3	release
687.05	n/a	RESPONSE	M1	2	16	E4	release
687.104	n/a	RESPONSE	M1	2	07	G3	release
687.119	n/a	RESPONSE	M1	2	04	E3	release
687.309	n/a	RESPONSE	M1	2	05	F3	press
687.314	n/a	RESPONSE	M1	2	02	D3	press
687.324	n/a	RESPONSE	M1	2	07	G3	press
687.331	n/a	RESPONSE	M1	2	17	F4	press
687.703	n/a	RESPONSE	M1	2	17	F4	release
687.855	n/a	RESPONSE	M1	2	14	D4	press
688.078	n/a	RESPONSE	M1	2	14	D4	release
688.374	n/a	RESPONSE	M1	2	14	D4	press
688.565	n/a	RESPONSE	M1	2	02	D3	release
688.568	n/a	RESPONSE	M1	2	05	F3	release
688.6	n/a	RESPONSE	M1	2	14	D4	release
688.69	n/a	RESPONSE	M1	2	07	G3	release
688.883	n/a	RESPONSE	M1	2	00	C3	press
688.885	n/a	RESPONSE	M1	2	04	E3	press
688.894	n/a	RESPONSE	M1	2	07	G3	press
688.935	n/a	RESPONSE	M1	2	11	B3	press
688.938	n/a	RESPONSE	M1	2	12	C4	press
689.268	n/a	RESPONSE	M1	2	11	B3	release
689.499	n/a	RESPONSE	M1	2	16	E4	press
689.57	n/a	RESPONSE	M1	2	12	C4	release
689.653	n/a	RESPONSE	M1	2	00	C3	release
689.672	n/a	RESPONSE	M1	2	07	G3	release
689.815	n/a	RESPONSE	M1	2	12	C4	press
689.829	7.758	FIXCROSS	n/a	n/a	n/a	n/a	n/a
689.885	n/a	RESPONSE	M1	2	16	E4	release
689.926	n/a	RESPONSE	M1	2	04	E3	release
690.318	n/a	RESPONSE	M1	2	12	C4	release
697.588	6.317	CUE_LISTEN	M2	1	n/a	n/a	n/a
703.329	n/a	RESPONSE	M2	1	12	C4	press
703.56	n/a	RESPONSE	M2	1	12	C4	release
703.661	n/a	RESPONSE	M2	1	14	D4	press
703.904	7.758	FIXCROSS	n/a	n/a	n/a	n/a	n/a
703.925	n/a	RESPONSE	M2	1	14	D4	release
704.276	n/a	RESPONSE	M2	1	17	F4	press
704.465	n/a	RESPONSE	M2	1	17	F4	release
704.834	n/a	RESPONSE	M2	1	19	G4	press
705.211	n/a	RESPONSE	M2	1	19	G4	release
707.139	n/a	RESPONSE	M2	1	23	B4	press
707.539	n/a	RESPONSE	M2	1	23	B4	release
707.624	n/a	RESPONSE	M2	1	17	F4	press
707.879	n/a	RESPONSE	M2	1	17	F4	release
711.663	6.325	CUE_PLAYBACK_BOTH_HANDS	M2	1	n/a	n/a	n/a
712.893	n/a	RESPONSE	M2	1	24	C5	press
712.895	n/a	RESPONSE	M2	1	07	G3	press
712.898	n/a	RESPONSE	M2	1	00	C3	press
713.316	n/a	RESPONSE	M2	1	24	C5	release
713.468	n/a	RESPONSE	M2	1	17	F4	press
713.721	n/a	RESPONSE	M2	1	00	C3	release
713.79	n/a	RESPONSE	M2	1	17	F4	release
713.891	n/a	RESPONSE	M2	1	07	G3	release
714.323	n/a	RESPONSE	M2	1	24	C5	press
714.336	n/a	RESPONSE	M2	1	00	C3	press
714.345	n/a	RESPONSE	M2	1	07	G3	press
714.913	n/a	RESPONSE	M2	1	19	G4	press
714.916	n/a	RESPONSE	M2	1	17	F4	press
715.088	n/a	RESPONSE	M2	1	17	F4	release
715.094	n/a	RESPONSE	M2	1	19	G4	release
715.131	n/a	RESPONSE	M2	1	00	C3	release
715.146	n/a	RESPONSE	M2	1	07	G3	release
715.239	n/a	RESPONSE	M2	1	24	C5	release
715.541	n/a	RESPONSE	M2	1	00	C3	press
715.544	n/a	RESPONSE	M2	1	17	F4	press
715.548	n/a	RESPONSE	M2	1	07	G3	press
716.108	n/a	RESPONSE	M2	1	16	E4	press
716.239	n/a	RESPONSE	M2	1	17	F4	release
716.276	n/a	RESPONSE	M2	1	00	C3	release
716.309	n/a	RESPONSE	M2	1	07	G3	release
716.646	n/a	RESPONSE	M2	1	14	D4	press
716.659	n/a	RESPONSE	M2	1	07	G3	press
716.663	n/a	RESPONSE	M2	1	00	C3	press
716.703	n/a	RESPONSE	M2	1	16	E4	release
717.174	n/a	RESPONSE	M2	1	16	E4	press
717.249	n/a	RESPONSE	M2	1	14	D4	release
717.308	n/a	RESPONSE	M2	1	00	C3	release
717.314	n/a	RESPONSE	M2	1	07	G3	release
717.673	n/a	RESPONSE	M2	1	17	F4	press
717.684	n/a	RESPONSE	M2	1	00	C3	press
717.686	n/a	RESPONSE	M2	1	07	G3	press
717.753	n/a	RESPONSE	M2	1	16	E4	release
717.988	7.759	FIXCROSS	n/a	n/a	n/a	n/a	n/a
718.268	n/a	RESPONSE	M2	1	00	C3	release
718.329	n/a	RESPONSE	M2	1	17	F4	release
719.811	n/a	RESPONSE	M2	1	19	G4	press
720.235	n/a	RESPONSE	M2	1	19	G4	release
720.394	n/a	RESPONSE	M2	1	19	G4	press
720.585	n/a	RESPONSE	M2	1	07	G3	release
720.656	n/a	RESPONSE	M2	1	19	G4	release
721.148	n/a	RESPONSE	M2	1	24	C5	press
721.499	n/a	RESPONSE	M2	1	24	C5	release
721.61	n/a	RESPONSE	M2	1	19	G4	press
722.201	n/a	RESPONSE	M2	1	19	G4	release
722.373	n/a	RESPONSE	M2	1	19	G4	press
722.654	n/a	RESPONSE	M2	1	19	G4	release
722.775	n/a	RESPONSE	M2	1	17	F4	press
723.186	n/a	RESPONSE	M2	1	17	F4	release
723.258	n/a	RESPONSE	M2	1	16	E4	press
723.569	n/a	RESPONSE	M2	1	16	E4	release
723.6	n/a	RESPONSE	M2	1	17	F4	press
723.941	n/a	RESPONSE	M2	1	17	F4	release
724.963	n/a	RESPONSE	M2	1	24	C5	press
725.321	n/a	RESPONSE	M2	1	24	C5	release
725.393	n/a	RESPONSE	M2	1	19	G4	press
725.579	n/a	RESPONSE	M2	1	19	G4	release
725.746	6.317	CUE_LISTEN	M2	2	n/a	n/a	n/a
732.063	7.758	FIXCROSS	n/a	n/a	n/a	n/a	n/a
739.821	6.317	CUE_PLAYBACK_BOTH_HANDS	M2	2	n/a	n/a	n/a
740.599	n/a	RESPONSE	M2	2	24	C5	press
740.61	n/a	RESPONSE	M2	2	00	C3	press
740.619	n/a	RESPONSE	M2	2	07	G3	press
741.13	n/a	RESPONSE	M2	2	17	F4	press
741.201	n/a	RESPONSE	M2	2	00	C3	release
741.204	n/a	RESPONSE	M2	2	24	C5	release
741.234	n/a	RESPONSE	M2	2	07	G3	release
741.325	n/a	RESPONSE	M2	2	17	F4	release
742.046	n/a	RESPONSE	M2	2	24	C5	press
742.068	n/a	RESPONSE	M2	2	00	C3	press
742.07	n/a	RESPONSE	M2	2	07	G3	press
742.59	n/a	RESPONSE	M2	2	19	G4	press
742.601	n/a	RESPONSE	M2	2	17	F4	press
742.633	n/a	RESPONSE	M2	2	00	C3	release
742.636	n/a	RESPONSE	M2	2	07	G3	release
742.695	n/a	RESPONSE	M2	2	24	C5	release
742.746	n/a	RESPONSE	M2	2	17	F4	release
742.858	n/a	RESPONSE	M2	2	19	G4	release
743.119	n/a	RESPONSE	M2	2	19	G4	press
743.15	n/a	RESPONSE	M2	2	00	C3	press
743.161	n/a	RESPONSE	M2	2	07	G3	press
743.674	n/a	RESPONSE	M2	2	17	F4	press
743.784	n/a	RESPONSE	M2	2	00	C3	release
743.786	n/a	RESPONSE	M2	2	07	G3	release
743.816	n/a	RESPONSE	M2	2	19	G4	release
744.199	n/a	RESPONSE	M2	2	16	E4	press
744.219	n/a	RESPONSE	M2	2	00	C3	press
744.221	n/a	RESPONSE	M2	2	07	G3	press
744.281	n/a	RESPONSE	M2	2	17	F4	release
744.738	n/a	RESPONSE	M2	2	14	D4	press
744.831	n/a	RESPONSE	M2	2	16	E4	release
744.839	n/a	RESPONSE	M2	2	00	C3	release
744.885	n/a	RESPONSE	M2	2	07	G3	release
745.23	n/a	RESPONSE	M2	2	12	C4	press
745.241	n/a	RESPONSE	M2	2	00	C3	press
745.244	n/a	RESPONSE	M2	2	07	G3	press
745.318	n/a	RESPONSE	M2	2	14	D4	release
745.988	n/a	RESPONSE	M2	2	00	C3	release
746.035	n/a	RESPONSE	M2	2	07	G3	release
746.064	n/a	RESPONSE	M2	2	12	C4	release
746.138	7.758	FIXCROSS	n/a	n/a	n/a	n/a	n/a
753.896	6.325	CUE_LISTEN	M2	1	n/a	n/a	n/a
760.221	7.758	FIXCROSS	n/a	n/a	n/a	n/a	n/a
767.979	6.317	CUE_PLAYBACK_BOTH_HANDS	M2	1	n/a	n/a	n/a
768.896	n/a	RESPONSE	M2	1	00	C3	press
768.908	n/a	RESPONSE	M2	1	07	G3	press
768.91	n/a	RESPONSE	M2	1	12	C4	press
769.451	n/a	RESPONSE	M2	1	14	D4	press
769.571	n/a	RESPONSE	M2	1	12	C4	release
769.623	n/a	RESPONSE	M2	1	00	C3	release
769.634	n/a	RESPONSE	M2	1	07	G3	release
769.955	n/a	RESPONSE	M2	1	16	E4	press
769.966	n/a	RESPONSE	M2	1	00	C3	press
769.969	n/a	RESPONSE	M2	1	07	G3	press
770.009	n/a	RESPONSE	M2	1	14	D4	release
770.49	n/a	RESPONSE	M2	1	14	D4	press
770.551	n/a	RESPONSE	M2	1	00	C3	release
770.554	n/a	RESPONSE	M2	1	16	E4	release
770.574	n/a	RESPONSE	M2	1	07	G3	release
770.975	n/a	RESPONSE	M2	1	16	E4	press
770.986	n/a	RESPONSE	M2	1	07	G3	press
770.989	n/a	RESPONSE	M2	1	00	C3	press
771.03	n/a	RESPONSE	M2	1	14	D4	release
771.49	n/a	RESPONSE	M2	1	17	F4	press
771.591	n/a	RESPONSE	M2	1	00	C3	release
771.603	n/a	RESPONSE	M2	1	07	G3	release
771.605	n/a	RESPONSE	M2	1	16	E4	release
771.985	n/a	RESPONSE	M2	1	07	G3	press
771.988	n/a	RESPONSE	M2	1	00	C3	press
771.998	n/a	RESPONSE	M2	1	19	G4	press
772.069	n/a	RESPONSE	M2	1	17	F4	release
772.72	n/a	RESPONSE	M2	1	00	C3	release
772.761	n/a	RESPONSE	M2	1	07	G3	release
772.933	n/a	RESPONSE	M2	1	19	G4	release
774.296	7.758	FIXCROSS	n/a	n/a	n/a	n/a	n/a
782.054	6.317	CUE_LISTEN	M2	2	n/a	n/a	n/a
788.371	7.758	FIXCROSS	n/a	n/a	n/a	n/a	n/a
796.129	6.325	CUE_PLAYBACK_BOTH_HANDS	M2	2	n/a	n/a	n/a
797.02	n/a	RESPONSE	M2	2	16	E4	press
797.03	n/a	RESPONSE	M2	2	07	G3	press
797.032	n/a	RESPONSE	M2	2	00	C3	press
797.605	n/a	RESPONSE	M2	2	19	G4	press
797.668	n/a	RESPONSE	M2	2	16	E4	release
797.72	n/a	RESPONSE	M2	2	00	C3	release
797.724	n/a	RESPONSE	M2	2	07	G3	release
797.826	n/a	RESPONSE	M2	2	19	G4	release
798.157	n/a	RESPONSE	M2	2	19	G4	press
798.162	n/a	RESPONSE	M2	2	07	G3	press
798.165	n/a	RESPONSE	M2	2	00	C3	press
798.755	n/a	RESPONSE	M2	2	17	F4	press
798.856	n/a	RESPONSE	M2	2	19	G4	release
798.878	n/a	RESPONSE	M2	2	00	C3	release
798.899	n/a	RESPONSE	M2	2	07	G3	release
799.271	n/a	RESPONSE	M2	2	16	E4	press
799.281	n/a	RESPONSE	M2	2	00	C3	press
799.284	n/a	RESPONSE	M2	2	07	G3	press
799.334	n/a	RESPONSE	M2	2	17	F4	release
799.865	n/a	RESPONSE	M2	2	14	D4	press
799.909	n/a	RESPONSE	M2	2	00	C3	release
799.98	n/a	RESPONSE	M2	2	07	G3	release
799.999	n/a	RESPONSE	M2	2	16	E4	release
800.391	n/a	RESPONSE	M2	2	00	C3	press
800.401	n/a	RESPONSE	M2	2	07	G3	press
800.413	n/a	RESPONSE	M2	2	12	C4	press
800.484	n/a	RESPONSE	M2	2	14	D4	release
801.045	n/a	RESPONSE	M2	2	00	C3	release
801.066	n/a	RESPONSE	M2	2	07	G3	release
801.15	n/a	RESPONSE	M2	2	12	C4	release
802.454	7.758	FIXCROSS	n/a	n/a	n/a	n/a	n/a
810.213	6.325	CUE_LISTEN	M3	1	n/a	n/a	n/a
816.538	7.758	FIXCROSS	n/a	n/a	n/a	n/a	n/a
824.296	6.308	CUE_PLAYBACK_RIGHT_HAND	M3	1	n/a	n/a	n/a
825.361	n/a	RESPONSE	M3	1	12	C4	press
825.846	n/a	RESPONSE	M3	1	14	D4	press
825.938	n/a	RESPONSE	M3	1	12	C4	release
826.375	n/a	RESPONSE	M3	1	16	E4	press
826.481	n/a	RESPONSE	M3	1	14	D4	release
826.851	n/a	RESPONSE	M3	1	12	C4	press
826.91	n/a	RESPONSE	M3	1	16	E4	release
827.105	n/a	RESPONSE	M3	1	12	C4	release
827.354	n/a	RESPONSE	M3	1	12	C4	press
827.839	n/a	RESPONSE	M3	1	14	D4	press
827.961	n/a	RESPONSE	M3	1	12	C4	release
828.293	n/a	RESPONSE	M3	1	16	E4	press
828.464	n/a	RESPONSE	M3	1	14	D4	release
828.758	n/a	RESPONSE	M3	1	12	C4	press
828.798	n/a	RESPONSE	M3	1	16	E4	release
829.209	n/a	RESPONSE	M3	1	12	C4	release
830.604	7.758	FIXCROSS	n/a	n/a	n/a	n/a	n/a
838.363	6.325	CUE_LISTEN	M3	2	n/a	n/a	n/a
844.688	7.758	FIXCROSS	n/a	n/a	n/a	n/a	n/a
852.446	6.317	CUE_PLAYBACK_RIGHT_HAND	M3	2	n/a	n/a	n/a
853.269	n/a	RESPONSE	M3	2	16	E4	press
853.73	n/a	RESPONSE	M3	2	17	F4	press
853.791	n/a	RESPONSE	M3	2	16	E4	release
854.213	n/a	RESPONSE	M3	2	19	G4	press
854.284	n/a	RESPONSE	M3	2	17	F4	release
854.79	n/a	RESPONSE	M3	2	19	G4	release
855.174	n/a	RESPONSE	M3	2	16	E4	press
855.66	n/a	RESPONSE	M3	2	17	F4	press
855.731	n/a	RESPONSE	M3	2	16	E4	release
856.164	n/a	RESPONSE	M3	2	19	G4	press
856.219	n/a	RESPONSE	M3	2	17	F4	release
856.874	n/a	RESPONSE	M3	2	19	G4	release
858.763	7.758	FIXCROSS	n/a	n/a	n/a	n/a	n/a
866.521	6.317	CUE_LISTEN	M3	1	n/a	n/a	n/a
872.838	7.759	FIXCROSS	n/a	n/a	n/a	n/a	n/a
880.596	6.325	CUE_PLAYBACK_RIGHT_HAND	M3	1	n/a	n/a	n/a
882.125	n/a	RESPONSE	M3	1	19	G4	press
882.395	n/a	RESPONSE	M3	1	21	A4	press
882.436	n/a	RESPONSE	M3	1	19	G4	release
882.658	n/a	RESPONSE	M3	1	19	G4	press
882.739	n/a	RESPONSE	M3	1	21	A4	release
882.901	n/a	RESPONSE	M3	1	17	F4	press
883.061	n/a	RESPONSE	M3	1	19	G4	release
883.183	n/a	RESPONSE	M3	1	16	E4	press
883.376	n/a	RESPONSE	M3	1	17	F4	release
883.725	n/a	RESPONSE	M3	1	12	C4	press
883.796	n/a	RESPONSE	M3	1	16	E4	release
884.358	n/a	RESPONSE	M3	1	19	G4	press
884.389	n/a	RESPONSE	M3	1	12	C4	release
884.605	n/a	RESPONSE	M3	1	21	A4	press
884.658	n/a	RESPONSE	M3	1	19	G4	release
884.865	n/a	RESPONSE	M3	1	19	G4	press
884.959	n/a	RESPONSE	M3	1	21	A4	release
885.134	n/a	RESPONSE	M3	1	17	F4	press
885.321	n/a	RESPONSE	M3	1	19	G4	release
885.436	n/a	RESPONSE	M3	1	16	E4	press
885.609	n/a	RESPONSE	M3	1	17	F4	release
885.929	n/a	RESPONSE	M3	1	12	C4	press
886.022	n/a	RESPONSE	M3	1	16	E4	release
886.376	n/a	RESPONSE	M3	1	12	C4	release
886.921	7.758	FIXCROSS	n/a	n/a	n/a	n/a	n/a
894.68	6.317	CUE_LISTEN	M3	2	n/a	n/a	n/a
900.996	7.758	FIXCROSS	n/a	n/a	n/a	n/a	n/a
908.755	39.11	CUE_PLAYBACK_RIGHT_HAND	M3	2	n/a	n/a	n/a
909.668	n/a	RESPONSE	M3	2	12	C4	press
910.188	n/a	RESPONSE	M3	2	07	G3	press
910.31	n/a	RESPONSE	M3	2	12	C4	release
910.73	n/a	RESPONSE	M3	2	12	C4	press
910.881	n/a	RESPONSE	M3	2	07	G3	release
911.353	n/a	RESPONSE	M3	2	12	C4	release
911.784	n/a	RESPONSE	M3	2	12	C4	press
912.298	n/a	RESPONSE	M3	2	07	G3	press
912.466	n/a	RESPONSE	M3	2	12	C4	release
912.778	n/a	RESPONSE	M3	2	12	C4	press
912.859	n/a	RESPONSE	M3	2	07	G3	release
913.246	n/a	FIXCROSS	n/a	n/a	n/a	n/a	n/a
913.33	n/a	RESPONSE	M3	2	12	C4	release
