onset	duration	trial_type	trial_number	stroop_condition	stim_text(PL)	stim_text(eng)	stim_color(PL)	stim_color(eng)	response_type	response_color
0.0	n/a	RESPONSE	n/a	n/a	n/a	n/a	n/a	n/a	n/a	n/a
0.0623	1.0333	ITI	n/a	n/a	n/a	n/a	n/a	n/a	n/a	n/a
1.0956	0.5167	FIXCROSS	n/a	n/a	n/a	n/a	n/a	n/a	n/a	n/a
1.6122	0.8167	T_INK	1	Neutral	xxxxxxxx	xxxxxxxx	zielony	green	hit	n/a
2.3945	n/a	RESPONSE	n/a	n/a	n/a	n/a	n/a	n/a	n/a	green
2.4289	0.5167	FEEDBACK	n/a	n/a	n/a	n/a	n/a	n/a	n/a	n/a
2.9456	1.0167	ITI	n/a	n/a	n/a	n/a	n/a	n/a	n/a	n/a
3.9623	0.5167	FIXCROSS	n/a	n/a	n/a	n/a	n/a	n/a	n/a	n/a
4.479	0.8833	T_INK	2	Incongruent	żółty	yellow	niebieski	blue	hit	n/a
5.3317	n/a	RESPONSE	n/a	n/a	n/a	n/a	n/a	n/a	n/a	blue
5.3623	0.5166	FEEDBACK	n/a	n/a	n/a	n/a	n/a	n/a	n/a	n/a
5.8789	1.0167	ITI	n/a	n/a	n/a	n/a	n/a	n/a	n/a	n/a
6.8956	0.5167	FIXCROSS	n/a	n/a	n/a	n/a	n/a	n/a	n/a	n/a
7.4123	0.5166	T_INK	3	Incongruent	niebieski	blue	czerwony	red	hit	n/a
7.9018	n/a	RESPONSE	n/a	n/a	n/a	n/a	n/a	n/a	n/a	red
7.929	0.5167	FEEDBACK	n/a	n/a	n/a	n/a	n/a	n/a	n/a	n/a
8.4457	1.0166	ITI	n/a	n/a	n/a	n/a	n/a	n/a	n/a	n/a
9.4623	0.5167	FIXCROSS	n/a	n/a	n/a	n/a	n/a	n/a	n/a	n/a
9.979	0.5	T_INK	4	Neutral	xxxxxxxx	xxxxxxxx	żółty	yellow	hit	n/a
10.4559	n/a	RESPONSE	n/a	n/a	n/a	n/a	n/a	n/a	n/a	yellow
10.479	0.5167	FEEDBACK	n/a	n/a	n/a	n/a	n/a	n/a	n/a	n/a
10.9957	1.0167	ITI	n/a	n/a	n/a	n/a	n/a	n/a	n/a	n/a
12.0123	0.5167	FIXCROSS	n/a	n/a	n/a	n/a	n/a	n/a	n/a	n/a
12.529	0.6333	T_INK	5	Incongruent	zielony	green	czerwony	red	hit	n/a
13.1378	n/a	RESPONSE	n/a	n/a	n/a	n/a	n/a	n/a	n/a	red
13.1623	0.5166	FEEDBACK	n/a	n/a	n/a	n/a	n/a	n/a	n/a	n/a
13.679	1.0167	ITI	n/a	n/a	n/a	n/a	n/a	n/a	n/a	n/a
14.6957	0.5167	FIXCROSS	n/a	n/a	n/a	n/a	n/a	n/a	n/a	n/a
15.2123	0.5167	T_INK	6	Neutral	xxxxx	xxxxx	zielony	green	hit	n/a
15.7077	n/a	RESPONSE	n/a	n/a	n/a	n/a	n/a	n/a	n/a	green
15.729	0.5167	FEEDBACK	n/a	n/a	n/a	n/a	n/a	n/a	n/a	n/a
16.2457	1.0167	ITI	n/a	n/a	n/a	n/a	n/a	n/a	n/a	n/a
17.2624	0.5167	FIXCROSS	n/a	n/a	n/a	n/a	n/a	n/a	n/a	n/a
17.7791	0.6	T_INK	7	Neutral	xxxxx	xxxxx	niebieski	blue	hit	n/a
18.3577	n/a	RESPONSE	n/a	n/a	n/a	n/a	n/a	n/a	n/a	blue
18.3791	0.5166	FEEDBACK	n/a	n/a	n/a	n/a	n/a	n/a	n/a	n/a
18.8957	1.0167	ITI	n/a	n/a	n/a	n/a	n/a	n/a	n/a	n/a
19.9124	0.5167	FIXCROSS	n/a	n/a	n/a	n/a	n/a	n/a	n/a	n/a
20.429	0.7833	T_INK	8	Neutral	xxxxxxxxx	xxxxxxxxx	żółty	yellow	hit	n/a
21.1833	n/a	RESPONSE	n/a	n/a	n/a	n/a	n/a	n/a	n/a	yellow
21.2124	0.5167	FEEDBACK	n/a	n/a	n/a	n/a	n/a	n/a	n/a	n/a
21.7291	1.0167	ITI	n/a	n/a	n/a	n/a	n/a	n/a	n/a	n/a
22.7458	0.5167	FIXCROSS	n/a	n/a	n/a	n/a	n/a	n/a	n/a	n/a
23.2624	1.25	T_INK	9	Incongruent	czerwony	red	żółty	yellow	hit	n/a
24.4876	n/a	RESPONSE	n/a	n/a	n/a	n/a	n/a	n/a	n/a	yellow
24.5124	0.5167	FEEDBACK	n/a	n/a	n/a	n/a	n/a	n/a	n/a	n/a
25.0291	1.0167	ITI	n/a	n/a	n/a	n/a	n/a	n/a	n/a	n/a
26.0458	0.5167	FIXCROSS	n/a	n/a	n/a	n/a	n/a	n/a	n/a	n/a
26.5624	0.6833	T_INK	10	Incongruent	niebieski	blue	żółty	yellow	hit	n/a
27.2173	n/a	RESPONSE	n/a	n/a	n/a	n/a	n/a	n/a	n/a	yellow
27.2457	0.5167	FEEDBACK	n/a	n/a	n/a	n/a	n/a	n/a	n/a	n/a
27.7625	1.0166	ITI	n/a	n/a	n/a	n/a	n/a	n/a	n/a	n/a
28.7791	0.5167	FIXCROSS	n/a	n/a	n/a	n/a	n/a	n/a	n/a	n/a
29.2958	0.6	T_INK	11	Incongruent	czerwony	red	zielony	green	hit	n/a
29.8673	n/a	RESPONSE	n/a	n/a	n/a	n/a	n/a	n/a	n/a	green
29.8958	0.5167	FEEDBACK	n/a	n/a	n/a	n/a	n/a	n/a	n/a	n/a
30.4125	1.0167	ITI	n/a	n/a	n/a	n/a	n/a	n/a	n/a	n/a
31.4291	0.5167	FIXCROSS	n/a	n/a	n/a	n/a	n/a	n/a	n/a	n/a
31.9458	0.65	T_INK	12	Neutral	xxxxxxx	xxxxxxx	czerwony	red	hit	n/a
32.5651	n/a	RESPONSE	n/a	n/a	n/a	n/a	n/a	n/a	n/a	red
32.5958	0.5166	FEEDBACK	n/a	n/a	n/a	n/a	n/a	n/a	n/a	n/a
33.1125	1.0334	ITI	n/a	n/a	n/a	n/a	n/a	n/a	n/a	n/a
41.8238	n/a	RESPONSE	n/a	n/a	n/a	n/a	n/a	n/a	n/a	n/a
41.8792	1.0166	ITI	n/a	n/a	n/a	n/a	n/a	n/a	n/a	n/a
42.8958	0.5167	FIXCROSS	n/a	n/a	n/a	n/a	n/a	n/a	n/a	n/a
43.4125	0.65	INK	1	Incongruent	żółty	yellow	zielony	green	hit	n/a
44.0426	n/a	RESPONSE	n/a	n/a	n/a	n/a	n/a	n/a	n/a	green
44.0625	1.0167	ITI	n/a	n/a	n/a	n/a	n/a	n/a	n/a	n/a
45.0792	0.5167	FIXCROSS	n/a	n/a	n/a	n/a	n/a	n/a	n/a	n/a
45.5959	0.4333	INK	2	Neutral	xxxxxxxx	xxxxxxxx	zielony	green	hit	n/a
46.0061	n/a	RESPONSE	n/a	n/a	n/a	n/a	n/a	n/a	n/a	green
46.0292	1.0167	ITI	n/a	n/a	n/a	n/a	n/a	n/a	n/a	n/a
47.0459	0.5167	FIXCROSS	n/a	n/a	n/a	n/a	n/a	n/a	n/a	n/a
47.5626	0.45	INK	3	Neutral	xxxxxxxxx	xxxxxxxxx	czerwony	red	hit	n/a
47.9856	n/a	RESPONSE	n/a	n/a	n/a	n/a	n/a	n/a	n/a	red
48.0125	1.0167	ITI	n/a	n/a	n/a	n/a	n/a	n/a	n/a	n/a
49.0292	0.5167	FIXCROSS	n/a	n/a	n/a	n/a	n/a	n/a	n/a	n/a
49.5459	0.5833	INK	4	Incongruent	czerwony	red	zielony	green	hit	n/a
50.1087	n/a	RESPONSE	n/a	n/a	n/a	n/a	n/a	n/a	n/a	green
50.1293	1.0166	ITI	n/a	n/a	n/a	n/a	n/a	n/a	n/a	n/a
51.1459	0.5167	FIXCROSS	n/a	n/a	n/a	n/a	n/a	n/a	n/a	n/a
51.6626	0.4833	INK	5	Neutral	xxxxxxx	xxxxxxx	żółty	yellow	hit	n/a
52.12	n/a	RESPONSE	n/a	n/a	n/a	n/a	n/a	n/a	n/a	yellow
52.1459	1.0167	ITI	n/a	n/a	n/a	n/a	n/a	n/a	n/a	n/a
53.1626	0.5167	FIXCROSS	n/a	n/a	n/a	n/a	n/a	n/a	n/a	n/a
53.6793	0.5667	INK	6	Incongruent	zielony	green	niebieski	blue	hit	n/a
54.2272	n/a	RESPONSE	n/a	n/a	n/a	n/a	n/a	n/a	n/a	blue
54.246	1.0167	ITI	n/a	n/a	n/a	n/a	n/a	n/a	n/a	n/a
55.2626	0.5167	FIXCROSS	n/a	n/a	n/a	n/a	n/a	n/a	n/a	n/a
55.7793	0.7	INK	7	Neutral	xxxxxxxxx	xxxxxxxxx	czerwony	red	hit	n/a
56.4461	n/a	RESPONSE	n/a	n/a	n/a	n/a	n/a	n/a	n/a	red
56.4793	1.0167	ITI	n/a	n/a	n/a	n/a	n/a	n/a	n/a	n/a
57.496	0.5166	FIXCROSS	n/a	n/a	n/a	n/a	n/a	n/a	n/a	n/a
58.0126	0.5167	INK	8	Neutral	xxxxxxx	xxxxxxx	czerwony	red	hit	n/a
58.5053	n/a	RESPONSE	n/a	n/a	n/a	n/a	n/a	n/a	n/a	red
58.5293	1.0167	ITI	n/a	n/a	n/a	n/a	n/a	n/a	n/a	n/a
59.546	0.5167	FIXCROSS	n/a	n/a	n/a	n/a	n/a	n/a	n/a	n/a
60.0627	0.6	INK	9	Neutral	xxxxxxx	xxxxxxx	niebieski	blue	hit	n/a
60.6284	n/a	RESPONSE	n/a	n/a	n/a	n/a	n/a	n/a	n/a	blue
60.6626	1.0167	ITI	n/a	n/a	n/a	n/a	n/a	n/a	n/a	n/a
61.6793	0.5166	FIXCROSS	n/a	n/a	n/a	n/a	n/a	n/a	n/a	n/a
62.196	0.7167	INK	10	Incongruent	niebieski	blue	czerwony	red	hit	n/a
62.8953	n/a	RESPONSE	n/a	n/a	n/a	n/a	n/a	n/a	n/a	red
62.9127	1.0167	ITI	n/a	n/a	n/a	n/a	n/a	n/a	n/a	n/a
63.9293	0.5166	FIXCROSS	n/a	n/a	n/a	n/a	n/a	n/a	n/a	n/a
64.446	0.6	INK	11	Incongruent	niebieski	blue	zielony	green	hit	n/a
65.0184	n/a	RESPONSE	n/a	n/a	n/a	n/a	n/a	n/a	n/a	green
65.046	1.0167	ITI	n/a	n/a	n/a	n/a	n/a	n/a	n/a	n/a
66.0627	0.5167	FIXCROSS	n/a	n/a	n/a	n/a	n/a	n/a	n/a	n/a
66.5794	0.55	INK	12	Incongruent	zielony	green	niebieski	blue	hit	n/a
67.1096	n/a	RESPONSE	n/a	n/a	n/a	n/a	n/a	n/a	n/a	blue
67.1293	1.0167	ITI	n/a	n/a	n/a	n/a	n/a	n/a	n/a	n/a
68.146	0.5167	FIXCROSS	n/a	n/a	n/a	n/a	n/a	n/a	n/a	n/a
68.6627	0.4	INK	13	Neutral	xxxxxxxx	xxxxxxxx	niebieski	blue	hit	n/a
69.0411	n/a	RESPONSE	n/a	n/a	n/a	n/a	n/a	n/a	n/a	blue
69.0627	1.0167	ITI	n/a	n/a	n/a	n/a	n/a	n/a	n/a	n/a
70.0794	0.5167	FIXCROSS	n/a	n/a	n/a	n/a	n/a	n/a	n/a	n/a
70.5961	0.3667	INK	14	Neutral	xxxxxxx	xxxxxxx	niebieski	blue	hit	n/a
70.9408	n/a	RESPONSE	n/a	n/a	n/a	n/a	n/a	n/a	n/a	blue
70.9627	1.0167	ITI	n/a	n/a	n/a	n/a	n/a	n/a	n/a	n/a
71.9794	0.5166	FIXCROSS	n/a	n/a	n/a	n/a	n/a	n/a	n/a	n/a
72.496	0.5833	INK	15	Incongruent	niebieski	blue	zielony	green	hit	n/a
73.0479	n/a	RESPONSE	n/a	n/a	n/a	n/a	n/a	n/a	n/a	green
73.0794	1.0167	ITI	n/a	n/a	n/a	n/a	n/a	n/a	n/a	n/a
74.096	0.5167	FIXCROSS	n/a	n/a	n/a	n/a	n/a	n/a	n/a	n/a
74.6128	0.5333	INK	16	Neutral	xxxxx	xxxxx	zielony	green	hit	n/a
75.1231	n/a	RESPONSE	n/a	n/a	n/a	n/a	n/a	n/a	n/a	green
75.1461	1.0167	ITI	n/a	n/a	n/a	n/a	n/a	n/a	n/a	n/a
76.1628	0.5167	FIXCROSS	n/a	n/a	n/a	n/a	n/a	n/a	n/a	n/a
76.6794	0.4833	INK	17	Neutral	xxxxxxxx	xxxxxxxx	żółty	yellow	hit	n/a
77.1345	n/a	RESPONSE	n/a	n/a	n/a	n/a	n/a	n/a	n/a	yellow
77.1628	1.0167	ITI	n/a	n/a	n/a	n/a	n/a	n/a	n/a	n/a
78.1794	0.5166	FIXCROSS	n/a	n/a	n/a	n/a	n/a	n/a	n/a	n/a
78.6961	0.5	INK	18	Neutral	xxxxx	xxxxx	czerwony	red	hit	n/a
79.1779	n/a	RESPONSE	n/a	n/a	n/a	n/a	n/a	n/a	n/a	red
79.1961	1.0167	ITI	n/a	n/a	n/a	n/a	n/a	n/a	n/a	n/a
80.2128	0.5167	FIXCROSS	n/a	n/a	n/a	n/a	n/a	n/a	n/a	n/a
80.7295	0.45	INK	19	Incongruent	czerwony	red	niebieski	blue	hit	n/a
81.1572	n/a	RESPONSE	n/a	n/a	n/a	n/a	n/a	n/a	n/a	blue
81.1794	1.0167	ITI	n/a	n/a	n/a	n/a	n/a	n/a	n/a	n/a
82.1961	0.5166	FIXCROSS	n/a	n/a	n/a	n/a	n/a	n/a	n/a	n/a
82.7128	0.5167	INK	20	Neutral	xxxxx	xxxxx	czerwony	red	hit	n/a
83.2006	n/a	RESPONSE	n/a	n/a	n/a	n/a	n/a	n/a	n/a	red
83.2295	1.0167	ITI	n/a	n/a	n/a	n/a	n/a	n/a	n/a	n/a
84.2461	0.5167	FIXCROSS	n/a	n/a	n/a	n/a	n/a	n/a	n/a	n/a
84.7628	0.6333	INK	21	Neutral	xxxxxxxx	xxxxxxxx	niebieski	blue	hit	n/a
85.3715	n/a	RESPONSE	n/a	n/a	n/a	n/a	n/a	n/a	n/a	blue
85.3962	1.0167	ITI	n/a	n/a	n/a	n/a	n/a	n/a	n/a	n/a
86.4128	0.5166	FIXCROSS	n/a	n/a	n/a	n/a	n/a	n/a	n/a	n/a
86.9295	0.65	INK	22	Incongruent	żółty	yellow	zielony	green	hit	n/a
87.5585	n/a	RESPONSE	n/a	n/a	n/a	n/a	n/a	n/a	n/a	green
87.5795	1.0167	ITI	n/a	n/a	n/a	n/a	n/a	n/a	n/a	n/a
88.5962	0.5167	FIXCROSS	n/a	n/a	n/a	n/a	n/a	n/a	n/a	n/a
89.1128	0.55	INK	23	Neutral	xxxxx	xxxxx	niebieski	blue	hit	n/a
89.6337	n/a	RESPONSE	n/a	n/a	n/a	n/a	n/a	n/a	n/a	blue
89.6629	1.0167	ITI	n/a	n/a	n/a	n/a	n/a	n/a	n/a	n/a
90.6795	0.5166	FIXCROSS	n/a	n/a	n/a	n/a	n/a	n/a	n/a	n/a
91.1962	0.5333	INK	24	Incongruent	niebieski	blue	czerwony	red	hit	n/a
91.7089	n/a	RESPONSE	n/a	n/a	n/a	n/a	n/a	n/a	n/a	red
91.7295	1.0167	ITI	n/a	n/a	n/a	n/a	n/a	n/a	n/a	n/a
92.7462	0.5167	FIXCROSS	n/a	n/a	n/a	n/a	n/a	n/a	n/a	n/a
93.2629	0.4	INK	25	Incongruent	zielony	green	czerwony	red	hit	n/a
93.6404	n/a	RESPONSE	n/a	n/a	n/a	n/a	n/a	n/a	n/a	red
93.6628	1.0167	ITI	n/a	n/a	n/a	n/a	n/a	n/a	n/a	n/a
94.6795	0.5167	FIXCROSS	n/a	n/a	n/a	n/a	n/a	n/a	n/a	n/a
95.1962	0.6167	INK	26	Incongruent	czerwony	red	zielony	green	hit	n/a
95.7955	n/a	RESPONSE	n/a	n/a	n/a	n/a	n/a	n/a	n/a	green
95.8129	1.0167	ITI	n/a	n/a	n/a	n/a	n/a	n/a	n/a	n/a
96.8296	0.5166	FIXCROSS	n/a	n/a	n/a	n/a	n/a	n/a	n/a	n/a
97.3462	0.5167	INK	27	Incongruent	żółty	yellow	czerwony	red	hit	n/a
97.8388	n/a	RESPONSE	n/a	n/a	n/a	n/a	n/a	n/a	n/a	red
97.8629	1.0167	ITI	n/a	n/a	n/a	n/a	n/a	n/a	n/a	n/a
98.8796	0.5167	FIXCROSS	n/a	n/a	n/a	n/a	n/a	n/a	n/a	n/a
99.3962	0.4667	INK	28	Incongruent	zielony	green	niebieski	blue	hit	n/a
99.8342	n/a	RESPONSE	n/a	n/a	n/a	n/a	n/a	n/a	n/a	blue
99.8629	1.0167	ITI	n/a	n/a	n/a	n/a	n/a	n/a	n/a	n/a
100.8796	0.5167	FIXCROSS	n/a	n/a	n/a	n/a	n/a	n/a	n/a	n/a
101.3963	0.4667	INK	29	Incongruent	niebieski	blue	zielony	green	hit	n/a
101.8456	n/a	RESPONSE	n/a	n/a	n/a	n/a	n/a	n/a	n/a	green
101.8629	1.0166	ITI	n/a	n/a	n/a	n/a	n/a	n/a	n/a	n/a
102.8796	0.5167	FIXCROSS	n/a	n/a	n/a	n/a	n/a	n/a	n/a	n/a
103.3963	0.5167	INK	30	Incongruent	zielony	green	żółty	yellow	hit	n/a
103.8889	n/a	RESPONSE	n/a	n/a	n/a	n/a	n/a	n/a	n/a	yellow
103.913	1.0166	ITI	n/a	n/a	n/a	n/a	n/a	n/a	n/a	n/a
104.9296	0.5167	FIXCROSS	n/a	n/a	n/a	n/a	n/a	n/a	n/a	n/a
105.4463	0.4	INK	31	Neutral	xxxxxxxxx	xxxxxxxxx	żółty	yellow	hit	n/a
105.8204	n/a	RESPONSE	n/a	n/a	n/a	n/a	n/a	n/a	n/a	yellow
105.8463	1.0167	ITI	n/a	n/a	n/a	n/a	n/a	n/a	n/a	n/a
106.863	0.5166	FIXCROSS	n/a	n/a	n/a	n/a	n/a	n/a	n/a	n/a
107.3796	0.4667	INK	32	Incongruent	niebieski	blue	żółty	yellow	hit	n/a
107.8159	n/a	RESPONSE	n/a	n/a	n/a	n/a	n/a	n/a	n/a	yellow
107.8463	1.0166	ITI	n/a	n/a	n/a	n/a	n/a	n/a	n/a	n/a
108.8629	0.5167	FIXCROSS	n/a	n/a	n/a	n/a	n/a	n/a	n/a	n/a
109.3796	0.3834	INK	33	Incongruent	czerwony	red	żółty	yellow	hit	n/a
109.7315	n/a	RESPONSE	n/a	n/a	n/a	n/a	n/a	n/a	n/a	yellow
109.763	1.0166	ITI	n/a	n/a	n/a	n/a	n/a	n/a	n/a	n/a
110.7796	0.5167	FIXCROSS	n/a	n/a	n/a	n/a	n/a	n/a	n/a	n/a
111.2963	0.5333	INK	34	Neutral	xxxxxxxxx	xxxxxxxxx	zielony	green	hit	n/a
111.8067	n/a	RESPONSE	n/a	n/a	n/a	n/a	n/a	n/a	n/a	green
111.8297	1.0167	ITI	n/a	n/a	n/a	n/a	n/a	n/a	n/a	n/a
112.8463	0.5167	FIXCROSS	n/a	n/a	n/a	n/a	n/a	n/a	n/a	n/a
113.363	0.35	INK	35	Incongruent	czerwony	red	zielony	green	hit	n/a
113.6903	n/a	RESPONSE	n/a	n/a	n/a	n/a	n/a	n/a	n/a	green
113.713	1.0167	ITI	n/a	n/a	n/a	n/a	n/a	n/a	n/a	n/a
114.7297	0.5167	FIXCROSS	n/a	n/a	n/a	n/a	n/a	n/a	n/a	n/a
115.2463	0.5833	INK	36	Incongruent	żółty	yellow	niebieski	blue	hit	n/a
115.7975	n/a	RESPONSE	n/a	n/a	n/a	n/a	n/a	n/a	n/a	blue
115.8297	1.0167	ITI	n/a	n/a	n/a	n/a	n/a	n/a	n/a	n/a
116.8463	0.5167	FIXCROSS	n/a	n/a	n/a	n/a	n/a	n/a	n/a	n/a
117.363	0.4667	INK	37	Incongruent	niebieski	blue	żółty	yellow	hit	n/a
117.8089	n/a	RESPONSE	n/a	n/a	n/a	n/a	n/a	n/a	n/a	yellow
117.8297	1.0167	ITI	n/a	n/a	n/a	n/a	n/a	n/a	n/a	n/a
118.8464	0.5167	FIXCROSS	n/a	n/a	n/a	n/a	n/a	n/a	n/a	n/a
119.363	0.4833	INK	38	Neutral	xxxxxxx	xxxxxxx	żółty	yellow	hit	n/a
119.8202	n/a	RESPONSE	n/a	n/a	n/a	n/a	n/a	n/a	n/a	yellow
119.8464	1.0167	ITI	n/a	n/a	n/a	n/a	n/a	n/a	n/a	n/a
120.8631	0.5167	FIXCROSS	n/a	n/a	n/a	n/a	n/a	n/a	n/a	n/a
121.3797	0.5	INK	39	Neutral	xxxxxxxxx	xxxxxxxxx	czerwony	red	hit	n/a
121.8476	n/a	RESPONSE	n/a	n/a	n/a	n/a	n/a	n/a	n/a	red
121.8797	1.0167	ITI	n/a	n/a	n/a	n/a	n/a	n/a	n/a	n/a
122.8964	0.5166	FIXCROSS	n/a	n/a	n/a	n/a	n/a	n/a	n/a	n/a
123.413	0.4	INK	40	Neutral	xxxxxxx	xxxxxxx	niebieski	blue	incorrect	n/a
123.7792	n/a	RESPONSE	n/a	n/a	n/a	n/a	n/a	n/a	n/a	red
123.8131	1.0166	ITI	n/a	n/a	n/a	n/a	n/a	n/a	n/a	n/a
124.8297	0.5167	FIXCROSS	n/a	n/a	n/a	n/a	n/a	n/a	n/a	n/a
125.3464	0.6333	INK	41	Neutral	xxxxx	xxxxx	zielony	green	hit	n/a
125.9502	n/a	RESPONSE	n/a	n/a	n/a	n/a	n/a	n/a	n/a	green
125.9798	1.0167	ITI	n/a	n/a	n/a	n/a	n/a	n/a	n/a	n/a
126.9964	0.5166	FIXCROSS	n/a	n/a	n/a	n/a	n/a	n/a	n/a	n/a
127.5131	0.7167	INK	42	Incongruent	żółty	yellow	czerwony	red	hit	n/a
128.201	n/a	RESPONSE	n/a	n/a	n/a	n/a	n/a	n/a	n/a	red
128.2298	1.0166	ITI	n/a	n/a	n/a	n/a	n/a	n/a	n/a	n/a
129.2464	0.5167	FIXCROSS	n/a	n/a	n/a	n/a	n/a	n/a	n/a	n/a
129.7631	0.6667	INK	43	Neutral	xxxxxxxxx	xxxxxxxxx	zielony	green	hit	n/a
130.404	n/a	RESPONSE	n/a	n/a	n/a	n/a	n/a	n/a	n/a	green
130.4298	1.0167	ITI	n/a	n/a	n/a	n/a	n/a	n/a	n/a	n/a
131.4465	0.5167	FIXCROSS	n/a	n/a	n/a	n/a	n/a	n/a	n/a	n/a
131.9631	0.8333	INK	44	Incongruent	żółty	yellow	zielony	green	hit	n/a
132.7664	n/a	RESPONSE	n/a	n/a	n/a	n/a	n/a	n/a	n/a	green
132.7964	1.0167	ITI	n/a	n/a	n/a	n/a	n/a	n/a	n/a	n/a
133.8131	0.5166	FIXCROSS	n/a	n/a	n/a	n/a	n/a	n/a	n/a	n/a
134.3298	0.6834	INK	45	Incongruent	żółty	yellow	czerwony	red	hit	n/a
134.9853	n/a	RESPONSE	n/a	n/a	n/a	n/a	n/a	n/a	n/a	red
135.0131	1.0166	ITI	n/a	n/a	n/a	n/a	n/a	n/a	n/a	n/a
136.0298	0.5167	FIXCROSS	n/a	n/a	n/a	n/a	n/a	n/a	n/a	n/a
136.5465	0.5333	INK	46	Neutral	xxxxx	xxxxx	niebieski	blue	hit	n/a
137.0605	n/a	RESPONSE	n/a	n/a	n/a	n/a	n/a	n/a	n/a	blue
137.0798	1.0167	ITI	n/a	n/a	n/a	n/a	n/a	n/a	n/a	n/a
138.0965	0.5166	FIXCROSS	n/a	n/a	n/a	n/a	n/a	n/a	n/a	n/a
138.6131	0.6334	INK	47	Incongruent	niebieski	blue	żółty	yellow	hit	n/a
139.2156	n/a	RESPONSE	n/a	n/a	n/a	n/a	n/a	n/a	n/a	yellow
139.2465	1.0167	ITI	n/a	n/a	n/a	n/a	n/a	n/a	n/a	n/a
140.2632	0.5167	FIXCROSS	n/a	n/a	n/a	n/a	n/a	n/a	n/a	n/a
140.7798	0.45	INK	48	Incongruent	czerwony	red	żółty	yellow	hit	n/a
141.211	n/a	RESPONSE	n/a	n/a	n/a	n/a	n/a	n/a	n/a	yellow
141.2298	1.0167	ITI	n/a	n/a	n/a	n/a	n/a	n/a	n/a	n/a
142.2465	0.5167	FIXCROSS	n/a	n/a	n/a	n/a	n/a	n/a	n/a	n/a
142.7632	0.6833	INK	49	Incongruent	zielony	green	czerwony	red	hit	n/a
143.414	n/a	RESPONSE	n/a	n/a	n/a	n/a	n/a	n/a	n/a	red
143.4465	1.0167	ITI	n/a	n/a	n/a	n/a	n/a	n/a	n/a	n/a
144.4632	0.5167	FIXCROSS	n/a	n/a	n/a	n/a	n/a	n/a	n/a	n/a
144.9799	0.45	INK	50	Incongruent	zielony	green	żółty	yellow	hit	n/a
145.4094	n/a	RESPONSE	n/a	n/a	n/a	n/a	n/a	n/a	n/a	yellow
145.4299	1.0167	ITI	n/a	n/a	n/a	n/a	n/a	n/a	n/a	n/a
146.4466	0.5167	FIXCROSS	n/a	n/a	n/a	n/a	n/a	n/a	n/a	n/a
146.9632	0.5333	INK	51	Neutral	xxxxxxxx	xxxxxxxx	niebieski	blue	hit	n/a
147.4687	n/a	RESPONSE	n/a	n/a	n/a	n/a	n/a	n/a	n/a	blue
147.4966	1.0166	ITI	n/a	n/a	n/a	n/a	n/a	n/a	n/a	n/a
148.5132	0.5167	FIXCROSS	n/a	n/a	n/a	n/a	n/a	n/a	n/a	n/a
149.0299	0.5833	INK	52	Neutral	xxxxxxxxx	xxxxxxxxx	zielony	green	hit	n/a
149.5919	n/a	RESPONSE	n/a	n/a	n/a	n/a	n/a	n/a	n/a	green
149.6132	1.0167	ITI	n/a	n/a	n/a	n/a	n/a	n/a	n/a	n/a
150.6299	0.5167	FIXCROSS	n/a	n/a	n/a	n/a	n/a	n/a	n/a	n/a
151.1466	0.65	INK	53	Incongruent	czerwony	red	niebieski	blue	hit	n/a
151.7788	n/a	RESPONSE	n/a	n/a	n/a	n/a	n/a	n/a	n/a	blue
151.7966	1.0166	ITI	n/a	n/a	n/a	n/a	n/a	n/a	n/a	n/a
152.8132	0.5167	FIXCROSS	n/a	n/a	n/a	n/a	n/a	n/a	n/a	n/a
153.3299	0.5667	INK	54	Incongruent	zielony	green	czerwony	red	hit	n/a
153.8701	n/a	RESPONSE	n/a	n/a	n/a	n/a	n/a	n/a	n/a	red
153.8966	1.0167	ITI	n/a	n/a	n/a	n/a	n/a	n/a	n/a	n/a
154.9133	0.5167	FIXCROSS	n/a	n/a	n/a	n/a	n/a	n/a	n/a	n/a
155.4299	0.4833	INK	55	Neutral	xxxxxxx	xxxxxxx	żółty	yellow	hit	n/a
155.8814	n/a	RESPONSE	n/a	n/a	n/a	n/a	n/a	n/a	n/a	yellow
155.9133	1.0166	ITI	n/a	n/a	n/a	n/a	n/a	n/a	n/a	n/a
156.9299	0.5167	FIXCROSS	n/a	n/a	n/a	n/a	n/a	n/a	n/a	n/a
157.4466	0.45	INK	56	Neutral	xxxxxxxx	xxxxxxxx	żółty	yellow	hit	n/a
157.8769	n/a	RESPONSE	n/a	n/a	n/a	n/a	n/a	n/a	n/a	yellow
157.8966	1.0166	ITI	n/a	n/a	n/a	n/a	n/a	n/a	n/a	n/a
158.9133	0.5167	FIXCROSS	n/a	n/a	n/a	n/a	n/a	n/a	n/a	n/a
159.43	0.5167	INK	57	Incongruent	czerwony	red	żółty	yellow	hit	n/a
159.9201	n/a	RESPONSE	n/a	n/a	n/a	n/a	n/a	n/a	n/a	yellow
159.9466	1.0167	ITI	n/a	n/a	n/a	n/a	n/a	n/a	n/a	n/a
160.9633	0.5166	FIXCROSS	n/a	n/a	n/a	n/a	n/a	n/a	n/a	n/a
161.48	0.5834	INK	58	Neutral	xxxxx	xxxxx	czerwony	red	hit	n/a
162.0433	n/a	RESPONSE	n/a	n/a	n/a	n/a	n/a	n/a	n/a	red
162.0633	1.0167	ITI	n/a	n/a	n/a	n/a	n/a	n/a	n/a	n/a
163.08	0.5166	FIXCROSS	n/a	n/a	n/a	n/a	n/a	n/a	n/a	n/a
163.5966	0.6	INK	59	Neutral	xxxxxxxx	xxxxxxxx	zielony	green	hit	n/a
164.1663	n/a	RESPONSE	n/a	n/a	n/a	n/a	n/a	n/a	n/a	green
164.1966	1.0167	ITI	n/a	n/a	n/a	n/a	n/a	n/a	n/a	n/a
165.2134	0.5167	FIXCROSS	n/a	n/a	n/a	n/a	n/a	n/a	n/a	n/a
165.73	0.5	INK	60	Incongruent	czerwony	red	niebieski	blue	hit	n/a
166.2097	n/a	RESPONSE	n/a	n/a	n/a	n/a	n/a	n/a	n/a	blue
166.23	1.0167	ITI	n/a	n/a	n/a	n/a	n/a	n/a	n/a	n/a
167.2467	0.5167	FIXCROSS	n/a	n/a	n/a	n/a	n/a	n/a	n/a	n/a
167.7634	0.5167	INK	61	Neutral	xxxxxxxxx	xxxxxxxxx	żółty	yellow	hit	n/a
168.2529	n/a	RESPONSE	n/a	n/a	n/a	n/a	n/a	n/a	n/a	yellow
168.28	1.0167	ITI	n/a	n/a	n/a	n/a	n/a	n/a	n/a	n/a
169.2967	0.5167	FIXCROSS	n/a	n/a	n/a	n/a	n/a	n/a	n/a	n/a
169.8134	0.5	INK	62	Neutral	xxxxxxxx	xxxxxxxx	zielony	green	hit	n/a
170.2803	n/a	RESPONSE	n/a	n/a	n/a	n/a	n/a	n/a	n/a	green
170.3134	1.0167	ITI	n/a	n/a	n/a	n/a	n/a	n/a	n/a	n/a
171.33	0.5167	FIXCROSS	n/a	n/a	n/a	n/a	n/a	n/a	n/a	n/a
171.8467	0.4	INK	63	Incongruent	żółty	yellow	niebieski	blue	hit	n/a
172.2278	n/a	RESPONSE	n/a	n/a	n/a	n/a	n/a	n/a	n/a	blue
172.2467	1.0167	ITI	n/a	n/a	n/a	n/a	n/a	n/a	n/a	n/a
173.2634	0.5167	FIXCROSS	n/a	n/a	n/a	n/a	n/a	n/a	n/a	n/a
173.7801	0.5	INK	64	Neutral	xxxxxxx	xxxxxxx	czerwony	red	hit	n/a
174.2551	n/a	RESPONSE	n/a	n/a	n/a	n/a	n/a	n/a	n/a	red
174.28	1.0167	ITI	n/a	n/a	n/a	n/a	n/a	n/a	n/a	n/a
175.2968	0.5166	FIXCROSS	n/a	n/a	n/a	n/a	n/a	n/a	n/a	n/a
175.8134	0.5	INK	65	Incongruent	niebieski	blue	czerwony	red	hit	n/a
176.2824	n/a	RESPONSE	n/a	n/a	n/a	n/a	n/a	n/a	n/a	red
176.3134	1.0166	ITI	n/a	n/a	n/a	n/a	n/a	n/a	n/a	n/a
177.3301	0.5167	FIXCROSS	n/a	n/a	n/a	n/a	n/a	n/a	n/a	n/a
177.8468	0.45	INK	66	Neutral	xxxxx	xxxxx	niebieski	blue	hit	n/a
178.2778	n/a	RESPONSE	n/a	n/a	n/a	n/a	n/a	n/a	n/a	blue
178.2967	1.0167	ITI	n/a	n/a	n/a	n/a	n/a	n/a	n/a	n/a
179.3134	0.5167	FIXCROSS	n/a	n/a	n/a	n/a	n/a	n/a	n/a	n/a
179.8301	0.4167	INK	67	Neutral	xxxxxxxxx	xxxxxxxxx	żółty	yellow	hit	n/a
180.2254	n/a	RESPONSE	n/a	n/a	n/a	n/a	n/a	n/a	n/a	yellow
180.2468	1.0167	ITI	n/a	n/a	n/a	n/a	n/a	n/a	n/a	n/a
181.2635	0.5167	FIXCROSS	n/a	n/a	n/a	n/a	n/a	n/a	n/a	n/a
181.7801	0.6	INK	68	Neutral	xxxxxxx	xxxxxxx	czerwony	red	hit	n/a
182.3485	n/a	RESPONSE	n/a	n/a	n/a	n/a	n/a	n/a	n/a	red
182.3801	1.0167	ITI	n/a	n/a	n/a	n/a	n/a	n/a	n/a	n/a
183.3967	0.5167	FIXCROSS	n/a	n/a	n/a	n/a	n/a	n/a	n/a	n/a
183.9135	0.4	INK	69	Incongruent	żółty	yellow	niebieski	blue	hit	n/a
184.296	n/a	RESPONSE	n/a	n/a	n/a	n/a	n/a	n/a	n/a	blue
184.3134	1.0167	ITI	n/a	n/a	n/a	n/a	n/a	n/a	n/a	n/a
185.3301	0.5167	FIXCROSS	n/a	n/a	n/a	n/a	n/a	n/a	n/a	n/a
185.8468	0.4333	INK	70	Neutral	xxxxx	xxxxx	zielony	green	hit	n/a
186.2594	n/a	RESPONSE	n/a	n/a	n/a	n/a	n/a	n/a	n/a	green
186.2801	1.0167	ITI	n/a	n/a	n/a	n/a	n/a	n/a	n/a	n/a
187.2968	0.5167	FIXCROSS	n/a	n/a	n/a	n/a	n/a	n/a	n/a	n/a
187.8135	0.5	INK	71	Neutral	xxxxxxxx	xxxxxxxx	żółty	yellow	hit	n/a
188.2868	n/a	RESPONSE	n/a	n/a	n/a	n/a	n/a	n/a	n/a	yellow
188.3135	1.0167	ITI	n/a	n/a	n/a	n/a	n/a	n/a	n/a	n/a
189.3302	0.5167	FIXCROSS	n/a	n/a	n/a	n/a	n/a	n/a	n/a	n/a
189.8468	0.4833	INK	72	Incongruent	zielony	green	żółty	yellow	hit	n/a
190.2983	n/a	RESPONSE	n/a	n/a	n/a	n/a	n/a	n/a	n/a	yellow
190.3301	1.0833	ITI	n/a	n/a	n/a	n/a	n/a	n/a	n/a	n/a
226.1833	n/a	RESPONSE	n/a	n/a	n/a	n/a	n/a	n/a	n/a	n/a
226.2471	1.0167	ITI	n/a	n/a	n/a	n/a	n/a	n/a	n/a	n/a
227.2638	0.5167	FIXCROSS	n/a	n/a	n/a	n/a	n/a	n/a	n/a	n/a
227.7804	0.8667	T_COLOR_NAME	1	Neutral	czerwony	red	Neutral	Neutral	hit	n/a
228.6098	n/a	RESPONSE	n/a	n/a	n/a	n/a	n/a	n/a	n/a	red
228.6471	0.5167	FEEDBACK	n/a	n/a	n/a	n/a	n/a	n/a	n/a	n/a
229.1638	1.0167	ITI	n/a	n/a	n/a	n/a	n/a	n/a	n/a	n/a
230.1804	0.5166	FIXCROSS	n/a	n/a	n/a	n/a	n/a	n/a	n/a	n/a
230.6971	0.6334	T_COLOR_NAME	2	Neutral	żółty	yellow	Neutral	Neutral	hit	n/a
231.3075	n/a	RESPONSE	n/a	n/a	n/a	n/a	n/a	n/a	n/a	yellow
231.3305	0.5166	FEEDBACK	n/a	n/a	n/a	n/a	n/a	n/a	n/a	n/a
231.8471	1.0167	ITI	n/a	n/a	n/a	n/a	n/a	n/a	n/a	n/a
232.8638	0.5167	FIXCROSS	n/a	n/a	n/a	n/a	n/a	n/a	n/a	n/a
233.3804	0.8334	T_COLOR_NAME	3	Neutral	zielony	green	Neutral	Neutral	hit	n/a
234.1809	n/a	RESPONSE	n/a	n/a	n/a	n/a	n/a	n/a	n/a	green
234.2138	0.5167	FEEDBACK	n/a	n/a	n/a	n/a	n/a	n/a	n/a	n/a
234.7305	1.0167	ITI	n/a	n/a	n/a	n/a	n/a	n/a	n/a	n/a
235.7472	0.5167	FIXCROSS	n/a	n/a	n/a	n/a	n/a	n/a	n/a	n/a
236.2638	0.85	T_COLOR_NAME	4	Incongruent	niebieski	blue	żółty	yellow	hit	n/a
237.0862	n/a	RESPONSE	n/a	n/a	n/a	n/a	n/a	n/a	n/a	blue
237.1138	0.5167	FEEDBACK	n/a	n/a	n/a	n/a	n/a	n/a	n/a	n/a
237.6305	1.0167	ITI	n/a	n/a	n/a	n/a	n/a	n/a	n/a	n/a
238.6472	0.5167	FIXCROSS	n/a	n/a	n/a	n/a	n/a	n/a	n/a	n/a
239.1638	0.6667	T_COLOR_NAME	5	Incongruent	czerwony	red	żółty	yellow	hit	n/a
239.7999	n/a	RESPONSE	n/a	n/a	n/a	n/a	n/a	n/a	n/a	red
239.8305	0.5166	FEEDBACK	n/a	n/a	n/a	n/a	n/a	n/a	n/a	n/a
240.3471	1.0167	ITI	n/a	n/a	n/a	n/a	n/a	n/a	n/a	n/a
241.3639	0.5167	FIXCROSS	n/a	n/a	n/a	n/a	n/a	n/a	n/a	n/a
241.8805	0.6333	T_COLOR_NAME	6	Neutral	żółty	yellow	Neutral	Neutral	hit	n/a
242.4817	n/a	RESPONSE	n/a	n/a	n/a	n/a	n/a	n/a	n/a	yellow
242.5139	0.5166	FEEDBACK	n/a	n/a	n/a	n/a	n/a	n/a	n/a	n/a
243.0305	1.0167	ITI	n/a	n/a	n/a	n/a	n/a	n/a	n/a	n/a
244.0472	0.5167	FIXCROSS	n/a	n/a	n/a	n/a	n/a	n/a	n/a	n/a
244.5639	1.1167	T_COLOR_NAME	7	Incongruent	czerwony	red	zielony	green	hit	n/a
245.6585	n/a	RESPONSE	n/a	n/a	n/a	n/a	n/a	n/a	n/a	red
245.6805	0.5166	FEEDBACK	n/a	n/a	n/a	n/a	n/a	n/a	n/a	n/a
246.1972	1.0167	ITI	n/a	n/a	n/a	n/a	n/a	n/a	n/a	n/a
247.2139	0.5167	FIXCROSS	n/a	n/a	n/a	n/a	n/a	n/a	n/a	n/a
247.7306	1.2667	T_COLOR_NAME	8	Incongruent	niebieski	blue	czerwony	red	hit	n/a
248.9629	n/a	RESPONSE	n/a	n/a	n/a	n/a	n/a	n/a	n/a	blue
248.9972	0.5167	FEEDBACK	n/a	n/a	n/a	n/a	n/a	n/a	n/a	n/a
249.5139	1.0167	ITI	n/a	n/a	n/a	n/a	n/a	n/a	n/a	n/a
250.5306	0.5167	FIXCROSS	n/a	n/a	n/a	n/a	n/a	n/a	n/a	n/a
251.0473	0.6167	T_COLOR_NAME	9	Neutral	niebieski	blue	Neutral	Neutral	hit	n/a
251.6448	n/a	RESPONSE	n/a	n/a	n/a	n/a	n/a	n/a	n/a	blue
251.6639	0.5167	FEEDBACK	n/a	n/a	n/a	n/a	n/a	n/a	n/a	n/a
252.1806	1.0167	ITI	n/a	n/a	n/a	n/a	n/a	n/a	n/a	n/a
253.1973	0.5167	FIXCROSS	n/a	n/a	n/a	n/a	n/a	n/a	n/a	n/a
253.7139	0.65	T_COLOR_NAME	10	Incongruent	żółty	yellow	niebieski	blue	hit	n/a
254.3425	n/a	RESPONSE	n/a	n/a	n/a	n/a	n/a	n/a	n/a	yellow
254.3639	0.5167	FEEDBACK	n/a	n/a	n/a	n/a	n/a	n/a	n/a	n/a
254.8806	1.0167	ITI	n/a	n/a	n/a	n/a	n/a	n/a	n/a	n/a
255.8973	0.5167	FIXCROSS	n/a	n/a	n/a	n/a	n/a	n/a	n/a	n/a
256.4139	1.3	T_COLOR_NAME	11	Incongruent	zielony	green	czerwony	red	hit	n/a
257.6948	n/a	RESPONSE	n/a	n/a	n/a	n/a	n/a	n/a	n/a	green
257.714	0.5166	FEEDBACK	n/a	n/a	n/a	n/a	n/a	n/a	n/a	n/a
258.2306	1.0167	ITI	n/a	n/a	n/a	n/a	n/a	n/a	n/a	n/a
259.2473	0.5166	FIXCROSS	n/a	n/a	n/a	n/a	n/a	n/a	n/a	n/a
259.7639	0.8	T_COLOR_NAME	12	Neutral	czerwony	red	Neutral	Neutral	hit	n/a
260.5363	n/a	RESPONSE	n/a	n/a	n/a	n/a	n/a	n/a	n/a	red
260.5639	0.5167	FEEDBACK	n/a	n/a	n/a	n/a	n/a	n/a	n/a	n/a
261.0807	1.0333	ITI	n/a	n/a	n/a	n/a	n/a	n/a	n/a	n/a
287.0831	n/a	RESPONSE	n/a	n/a	n/a	n/a	n/a	n/a	n/a	n/a
287.1475	1.0167	ITI	n/a	n/a	n/a	n/a	n/a	n/a	n/a	n/a
288.1641	0.5167	FIXCROSS	n/a	n/a	n/a	n/a	n/a	n/a	n/a	n/a
288.6808	0.6167	COLOR_NAME	1	Neutral	zielony	green	Neutral	Neutral	incorrect	n/a
289.27	n/a	RESPONSE	n/a	n/a	n/a	n/a	n/a	n/a	n/a	red
289.2975	1.0166	ITI	n/a	n/a	n/a	n/a	n/a	n/a	n/a	n/a
290.3141	0.5167	FIXCROSS	n/a	n/a	n/a	n/a	n/a	n/a	n/a	n/a
290.8309	0.8167	COLOR_NAME	2	Incongruent	zielony	green	żółty	yellow	hit	n/a
291.6167	n/a	RESPONSE	n/a	n/a	n/a	n/a	n/a	n/a	n/a	green
291.6475	1.0166	ITI	n/a	n/a	n/a	n/a	n/a	n/a	n/a	n/a
292.6642	0.5167	FIXCROSS	n/a	n/a	n/a	n/a	n/a	n/a	n/a	n/a
293.1808	0.6	COLOR_NAME	3	Neutral	zielony	green	Neutral	Neutral	hit	n/a
293.7558	n/a	RESPONSE	n/a	n/a	n/a	n/a	n/a	n/a	n/a	green
293.7809	1.0166	ITI	n/a	n/a	n/a	n/a	n/a	n/a	n/a	n/a
294.7975	0.5167	FIXCROSS	n/a	n/a	n/a	n/a	n/a	n/a	n/a	n/a
295.3142	0.45	COLOR_NAME	4	Neutral	zielony	green	Neutral	Neutral	hit	n/a
295.7352	n/a	RESPONSE	n/a	n/a	n/a	n/a	n/a	n/a	n/a	green
295.7642	1.0167	ITI	n/a	n/a	n/a	n/a	n/a	n/a	n/a	n/a
296.7809	0.5167	FIXCROSS	n/a	n/a	n/a	n/a	n/a	n/a	n/a	n/a
297.2975	0.4333	COLOR_NAME	5	Incongruent	zielony	green	żółty	yellow	hit	n/a
297.6987	n/a	RESPONSE	n/a	n/a	n/a	n/a	n/a	n/a	n/a	green
297.7309	1.0167	ITI	n/a	n/a	n/a	n/a	n/a	n/a	n/a	n/a
298.7475	0.5167	FIXCROSS	n/a	n/a	n/a	n/a	n/a	n/a	n/a	n/a
299.2642	0.6499	COLOR_NAME	6	Neutral	żółty	yellow	Neutral	Neutral	hit	n/a
299.8857	n/a	RESPONSE	n/a	n/a	n/a	n/a	n/a	n/a	n/a	yellow
299.9142	1.0167	ITI	n/a	n/a	n/a	n/a	n/a	n/a	n/a	n/a
300.9309	0.5167	FIXCROSS	n/a	n/a	n/a	n/a	n/a	n/a	n/a	n/a
301.4476	0.6666	COLOR_NAME	7	Neutral	czerwony	red	Neutral	Neutral	hit	n/a
302.0887	n/a	RESPONSE	n/a	n/a	n/a	n/a	n/a	n/a	n/a	red
302.1142	1.0167	ITI	n/a	n/a	n/a	n/a	n/a	n/a	n/a	n/a
303.1309	0.5167	FIXCROSS	n/a	n/a	n/a	n/a	n/a	n/a	n/a	n/a
303.6476	0.4833	COLOR_NAME	8	Neutral	żółty	yellow	Neutral	Neutral	hit	n/a
304.1	n/a	RESPONSE	n/a	n/a	n/a	n/a	n/a	n/a	n/a	yellow
304.1309	1.0166	ITI	n/a	n/a	n/a	n/a	n/a	n/a	n/a	n/a
305.1476	0.5167	FIXCROSS	n/a	n/a	n/a	n/a	n/a	n/a	n/a	n/a
305.6643	0.7667	COLOR_NAME	9	Incongruent	niebieski	blue	zielony	green	hit	n/a
306.3988	n/a	RESPONSE	n/a	n/a	n/a	n/a	n/a	n/a	n/a	blue
306.4309	1.0167	ITI	n/a	n/a	n/a	n/a	n/a	n/a	n/a	n/a
307.4476	0.5167	FIXCROSS	n/a	n/a	n/a	n/a	n/a	n/a	n/a	n/a
307.9643	0.6667	COLOR_NAME	10	Neutral	czerwony	red	Neutral	Neutral	hit	n/a
308.6017	n/a	RESPONSE	n/a	n/a	n/a	n/a	n/a	n/a	n/a	red
308.631	1.0166	ITI	n/a	n/a	n/a	n/a	n/a	n/a	n/a	n/a
309.6476	0.5167	FIXCROSS	n/a	n/a	n/a	n/a	n/a	n/a	n/a	n/a
310.1643	0.75	COLOR_NAME	11	Neutral	zielony	green	Neutral	Neutral	hit	n/a
310.8845	n/a	RESPONSE	n/a	n/a	n/a	n/a	n/a	n/a	n/a	green
310.9143	1.0167	ITI	n/a	n/a	n/a	n/a	n/a	n/a	n/a	n/a
311.931	0.5167	FIXCROSS	n/a	n/a	n/a	n/a	n/a	n/a	n/a	n/a
312.4477	0.5333	COLOR_NAME	12	Neutral	żółty	yellow	Neutral	Neutral	hit	n/a
312.9597	n/a	RESPONSE	n/a	n/a	n/a	n/a	n/a	n/a	n/a	yellow
312.981	1.0167	ITI	n/a	n/a	n/a	n/a	n/a	n/a	n/a	n/a
313.9976	0.5167	FIXCROSS	n/a	n/a	n/a	n/a	n/a	n/a	n/a	n/a
314.5143	0.5833	COLOR_NAME	13	Incongruent	żółty	yellow	zielony	green	hit	n/a
315.0667	n/a	RESPONSE	n/a	n/a	n/a	n/a	n/a	n/a	n/a	yellow
315.0977	1.0166	ITI	n/a	n/a	n/a	n/a	n/a	n/a	n/a	n/a
316.1143	0.5167	FIXCROSS	n/a	n/a	n/a	n/a	n/a	n/a	n/a	n/a
316.631	0.55	COLOR_NAME	14	Neutral	żółty	yellow	Neutral	Neutral	hit	n/a
317.158	n/a	RESPONSE	n/a	n/a	n/a	n/a	n/a	n/a	n/a	yellow
317.181	1.0167	ITI	n/a	n/a	n/a	n/a	n/a	n/a	n/a	n/a
318.1977	0.5167	FIXCROSS	n/a	n/a	n/a	n/a	n/a	n/a	n/a	n/a
318.7144	0.6667	COLOR_NAME	15	Neutral	zielony	green	Neutral	Neutral	hit	n/a
319.361	n/a	RESPONSE	n/a	n/a	n/a	n/a	n/a	n/a	n/a	green
319.381	1.0167	ITI	n/a	n/a	n/a	n/a	n/a	n/a	n/a	n/a
320.3977	0.5166	FIXCROSS	n/a	n/a	n/a	n/a	n/a	n/a	n/a	n/a
320.9143	0.65	COLOR_NAME	16	Incongruent	żółty	yellow	czerwony	red	hit	n/a
321.532	n/a	RESPONSE	n/a	n/a	n/a	n/a	n/a	n/a	n/a	yellow
321.5644	1.0166	ITI	n/a	n/a	n/a	n/a	n/a	n/a	n/a	n/a
322.581	0.5167	FIXCROSS	n/a	n/a	n/a	n/a	n/a	n/a	n/a	n/a
323.0977	0.6667	COLOR_NAME	17	Neutral	czerwony	red	Neutral	Neutral	hit	n/a
323.7349	n/a	RESPONSE	n/a	n/a	n/a	n/a	n/a	n/a	n/a	red
323.7644	1.0167	ITI	n/a	n/a	n/a	n/a	n/a	n/a	n/a	n/a
324.7811	0.5166	FIXCROSS	n/a	n/a	n/a	n/a	n/a	n/a	n/a	n/a
325.2977	0.6833	COLOR_NAME	18	Neutral	niebieski	blue	Neutral	Neutral	hit	n/a
325.9538	n/a	RESPONSE	n/a	n/a	n/a	n/a	n/a	n/a	n/a	blue
325.981	1.0167	ITI	n/a	n/a	n/a	n/a	n/a	n/a	n/a	n/a
326.9978	0.5167	FIXCROSS	n/a	n/a	n/a	n/a	n/a	n/a	n/a	n/a
327.5144	0.5167	COLOR_NAME	19	Incongruent	niebieski	blue	czerwony	red	hit	n/a
327.9971	n/a	RESPONSE	n/a	n/a	n/a	n/a	n/a	n/a	n/a	blue
328.0311	1.0166	ITI	n/a	n/a	n/a	n/a	n/a	n/a	n/a	n/a
329.0477	0.5167	FIXCROSS	n/a	n/a	n/a	n/a	n/a	n/a	n/a	n/a
329.5644	0.5	COLOR_NAME	20	Neutral	niebieski	blue	Neutral	Neutral	hit	n/a
330.0405	n/a	RESPONSE	n/a	n/a	n/a	n/a	n/a	n/a	n/a	blue
330.0644	1.0167	ITI	n/a	n/a	n/a	n/a	n/a	n/a	n/a	n/a
331.0811	0.5166	FIXCROSS	n/a	n/a	n/a	n/a	n/a	n/a	n/a	n/a
331.5977	0.7	COLOR_NAME	21	Incongruent	zielony	green	czerwony	red	hit	n/a
332.2753	n/a	RESPONSE	n/a	n/a	n/a	n/a	n/a	n/a	n/a	green
332.2978	1.0167	ITI	n/a	n/a	n/a	n/a	n/a	n/a	n/a	n/a
333.3145	0.5167	FIXCROSS	n/a	n/a	n/a	n/a	n/a	n/a	n/a	n/a
333.8311	0.6833	COLOR_NAME	22	Incongruent	czerwony	red	zielony	green	hit	n/a
334.4943	n/a	RESPONSE	n/a	n/a	n/a	n/a	n/a	n/a	n/a	red
334.5145	1.0167	ITI	n/a	n/a	n/a	n/a	n/a	n/a	n/a	n/a
335.5311	0.5167	FIXCROSS	n/a	n/a	n/a	n/a	n/a	n/a	n/a	n/a
336.0478	0.5166	COLOR_NAME	23	Incongruent	żółty	yellow	zielony	green	hit	n/a
336.5375	n/a	RESPONSE	n/a	n/a	n/a	n/a	n/a	n/a	n/a	yellow
336.5644	1.0167	ITI	n/a	n/a	n/a	n/a	n/a	n/a	n/a	n/a
337.5811	0.5167	FIXCROSS	n/a	n/a	n/a	n/a	n/a	n/a	n/a	n/a
338.0978	0.5667	COLOR_NAME	24	Incongruent	niebieski	blue	żółty	yellow	hit	n/a
338.6448	n/a	RESPONSE	n/a	n/a	n/a	n/a	n/a	n/a	n/a	blue
338.6645	1.0167	ITI	n/a	n/a	n/a	n/a	n/a	n/a	n/a	n/a
339.6812	0.5167	FIXCROSS	n/a	n/a	n/a	n/a	n/a	n/a	n/a	n/a
340.1978	0.4666	COLOR_NAME	25	Incongruent	niebieski	blue	żółty	yellow	hit	n/a
340.6402	n/a	RESPONSE	n/a	n/a	n/a	n/a	n/a	n/a	n/a	blue
340.6645	1.0167	ITI	n/a	n/a	n/a	n/a	n/a	n/a	n/a	n/a
341.6812	0.5167	FIXCROSS	n/a	n/a	n/a	n/a	n/a	n/a	n/a	n/a
342.1979	0.5333	COLOR_NAME	26	Incongruent	niebieski	blue	czerwony	red	hit	n/a
342.6995	n/a	RESPONSE	n/a	n/a	n/a	n/a	n/a	n/a	n/a	blue
342.7312	1.0166	ITI	n/a	n/a	n/a	n/a	n/a	n/a	n/a	n/a
343.7478	0.5167	FIXCROSS	n/a	n/a	n/a	n/a	n/a	n/a	n/a	n/a
344.2645	0.5833	COLOR_NAME	27	Incongruent	żółty	yellow	niebieski	blue	hit	n/a
344.8225	n/a	RESPONSE	n/a	n/a	n/a	n/a	n/a	n/a	n/a	yellow
344.8478	1.0167	ITI	n/a	n/a	n/a	n/a	n/a	n/a	n/a	n/a
345.8645	0.5167	FIXCROSS	n/a	n/a	n/a	n/a	n/a	n/a	n/a	n/a
346.3812	0.35	COLOR_NAME	28	Neutral	żółty	yellow	Neutral	Neutral	hit	n/a
346.7063	n/a	RESPONSE	n/a	n/a	n/a	n/a	n/a	n/a	n/a	yellow
346.7312	1.0167	ITI	n/a	n/a	n/a	n/a	n/a	n/a	n/a	n/a
347.7479	0.5167	FIXCROSS	n/a	n/a	n/a	n/a	n/a	n/a	n/a	n/a
348.2646	0.75	COLOR_NAME	29	Incongruent	niebieski	blue	żółty	yellow	hit	n/a
348.989	n/a	RESPONSE	n/a	n/a	n/a	n/a	n/a	n/a	n/a	blue
349.0145	1.0167	ITI	n/a	n/a	n/a	n/a	n/a	n/a	n/a	n/a
350.0312	0.5167	FIXCROSS	n/a	n/a	n/a	n/a	n/a	n/a	n/a	n/a
350.5479	0.6667	COLOR_NAME	30	Neutral	zielony	green	Neutral	Neutral	hit	n/a
351.192	n/a	RESPONSE	n/a	n/a	n/a	n/a	n/a	n/a	n/a	green
351.2145	1.0167	ITI	n/a	n/a	n/a	n/a	n/a	n/a	n/a	n/a
352.2312	0.5167	FIXCROSS	n/a	n/a	n/a	n/a	n/a	n/a	n/a	n/a
352.7479	0.6	COLOR_NAME	31	Incongruent	czerwony	red	żółty	yellow	hit	n/a
353.3151	n/a	RESPONSE	n/a	n/a	n/a	n/a	n/a	n/a	n/a	red
353.3479	1.0167	ITI	n/a	n/a	n/a	n/a	n/a	n/a	n/a	n/a
354.3646	0.5167	FIXCROSS	n/a	n/a	n/a	n/a	n/a	n/a	n/a	n/a
354.8813	0.6	COLOR_NAME	32	Incongruent	żółty	yellow	czerwony	red	hit	n/a
355.4543	n/a	RESPONSE	n/a	n/a	n/a	n/a	n/a	n/a	n/a	yellow
355.4813	1.0167	ITI	n/a	n/a	n/a	n/a	n/a	n/a	n/a	n/a
356.498	0.5167	FIXCROSS	n/a	n/a	n/a	n/a	n/a	n/a	n/a	n/a
357.0146	0.7	COLOR_NAME	33	Incongruent	czerwony	red	żółty	yellow	hit	n/a
357.6892	n/a	RESPONSE	n/a	n/a	n/a	n/a	n/a	n/a	n/a	red
357.7146	1.0167	ITI	n/a	n/a	n/a	n/a	n/a	n/a	n/a	n/a
358.7313	0.5166	FIXCROSS	n/a	n/a	n/a	n/a	n/a	n/a	n/a	n/a
359.2479	0.5334	COLOR_NAME	34	Neutral	czerwony	red	Neutral	Neutral	hit	n/a
359.7484	n/a	RESPONSE	n/a	n/a	n/a	n/a	n/a	n/a	n/a	red
359.7813	1.0167	ITI	n/a	n/a	n/a	n/a	n/a	n/a	n/a	n/a
360.798	0.5166	FIXCROSS	n/a	n/a	n/a	n/a	n/a	n/a	n/a	n/a
361.3146	0.5	COLOR_NAME	35	Incongruent	czerwony	red	niebieski	blue	hit	n/a
361.7917	n/a	RESPONSE	n/a	n/a	n/a	n/a	n/a	n/a	n/a	red
361.8147	1.0166	ITI	n/a	n/a	n/a	n/a	n/a	n/a	n/a	n/a
362.8313	0.5167	FIXCROSS	n/a	n/a	n/a	n/a	n/a	n/a	n/a	n/a
363.348	0.5833	COLOR_NAME	36	Neutral	niebieski	blue	Neutral	Neutral	hit	n/a
363.8988	n/a	RESPONSE	n/a	n/a	n/a	n/a	n/a	n/a	n/a	blue
363.9313	1.0166	ITI	n/a	n/a	n/a	n/a	n/a	n/a	n/a	n/a
364.948	0.5167	FIXCROSS	n/a	n/a	n/a	n/a	n/a	n/a	n/a	n/a
365.4646	0.5	COLOR_NAME	37	Incongruent	żółty	yellow	niebieski	blue	hit	n/a
365.9422	n/a	RESPONSE	n/a	n/a	n/a	n/a	n/a	n/a	n/a	yellow
365.9646	1.0167	ITI	n/a	n/a	n/a	n/a	n/a	n/a	n/a	n/a
366.9813	0.5167	FIXCROSS	n/a	n/a	n/a	n/a	n/a	n/a	n/a	n/a
367.498	0.55	COLOR_NAME	38	Neutral	niebieski	blue	Neutral	Neutral	hit	n/a
368.0174	n/a	RESPONSE	n/a	n/a	n/a	n/a	n/a	n/a	n/a	blue
368.048	1.0167	ITI	n/a	n/a	n/a	n/a	n/a	n/a	n/a	n/a
369.0647	0.5167	FIXCROSS	n/a	n/a	n/a	n/a	n/a	n/a	n/a	n/a
369.5814	0.7	COLOR_NAME	39	Incongruent	czerwony	red	zielony	green	hit	n/a
370.2522	n/a	RESPONSE	n/a	n/a	n/a	n/a	n/a	n/a	n/a	red
370.2814	1.0167	ITI	n/a	n/a	n/a	n/a	n/a	n/a	n/a	n/a
371.2981	0.5166	FIXCROSS	n/a	n/a	n/a	n/a	n/a	n/a	n/a	n/a
371.8147	0.65	COLOR_NAME	40	Neutral	niebieski	blue	Neutral	Neutral	hit	n/a
372.4392	n/a	RESPONSE	n/a	n/a	n/a	n/a	n/a	n/a	n/a	blue
372.4647	1.0166	ITI	n/a	n/a	n/a	n/a	n/a	n/a	n/a	n/a
373.4814	0.5167	FIXCROSS	n/a	n/a	n/a	n/a	n/a	n/a	n/a	n/a
373.9981	0.4167	COLOR_NAME	41	Neutral	niebieski	blue	Neutral	Neutral	hit	n/a
374.3867	n/a	RESPONSE	n/a	n/a	n/a	n/a	n/a	n/a	n/a	blue
374.4147	1.0167	ITI	n/a	n/a	n/a	n/a	n/a	n/a	n/a	n/a
375.4314	0.5166	FIXCROSS	n/a	n/a	n/a	n/a	n/a	n/a	n/a	n/a
375.948	0.4834	COLOR_NAME	42	Neutral	żółty	yellow	Neutral	Neutral	hit	n/a
376.398	n/a	RESPONSE	n/a	n/a	n/a	n/a	n/a	n/a	n/a	yellow
376.4314	1.0167	ITI	n/a	n/a	n/a	n/a	n/a	n/a	n/a	n/a
377.4481	0.5166	FIXCROSS	n/a	n/a	n/a	n/a	n/a	n/a	n/a	n/a
377.9647	0.4667	COLOR_NAME	43	Neutral	niebieski	blue	Neutral	Neutral	hit	n/a
378.4095	n/a	RESPONSE	n/a	n/a	n/a	n/a	n/a	n/a	n/a	blue
378.4314	1.0167	ITI	n/a	n/a	n/a	n/a	n/a	n/a	n/a	n/a
379.4481	0.5167	FIXCROSS	n/a	n/a	n/a	n/a	n/a	n/a	n/a	n/a
379.9648	0.5	COLOR_NAME	44	Neutral	zielony	green	Neutral	Neutral	hit	n/a
380.437	n/a	RESPONSE	n/a	n/a	n/a	n/a	n/a	n/a	n/a	green
380.4647	1.0089	ITI	n/a	n/a	n/a	n/a	n/a	n/a	n/a	n/a
381.4736	0.5245	FIXCROSS	n/a	n/a	n/a	n/a	n/a	n/a	n/a	n/a
381.9981	0.5167	COLOR_NAME	45	Neutral	żółty	yellow	Neutral	Neutral	hit	n/a
382.4964	n/a	RESPONSE	n/a	n/a	n/a	n/a	n/a	n/a	n/a	yellow
382.5148	1.0167	ITI	n/a	n/a	n/a	n/a	n/a	n/a	n/a	n/a
383.5315	0.5167	FIXCROSS	n/a	n/a	n/a	n/a	n/a	n/a	n/a	n/a
384.0481	0.5667	COLOR_NAME	46	Neutral	czerwony	red	Neutral	Neutral	hit	n/a
384.5876	n/a	RESPONSE	n/a	n/a	n/a	n/a	n/a	n/a	n/a	red
384.6148	1.0167	ITI	n/a	n/a	n/a	n/a	n/a	n/a	n/a	n/a
385.6315	0.5166	FIXCROSS	n/a	n/a	n/a	n/a	n/a	n/a	n/a	n/a
386.1481	0.5667	COLOR_NAME	47	Incongruent	czerwony	red	żółty	yellow	hit	n/a
386.6947	n/a	RESPONSE	n/a	n/a	n/a	n/a	n/a	n/a	n/a	red
386.7148	1.0167	ITI	n/a	n/a	n/a	n/a	n/a	n/a	n/a	n/a
387.7315	0.5167	FIXCROSS	n/a	n/a	n/a	n/a	n/a	n/a	n/a	n/a
388.2482	0.6	COLOR_NAME	48	Incongruent	niebieski	blue	zielony	green	hit	n/a
388.8179	n/a	RESPONSE	n/a	n/a	n/a	n/a	n/a	n/a	n/a	blue
388.8482	1.0167	ITI	n/a	n/a	n/a	n/a	n/a	n/a	n/a	n/a
389.8648	0.5167	FIXCROSS	n/a	n/a	n/a	n/a	n/a	n/a	n/a	n/a
390.3815	0.55	COLOR_NAME	49	Neutral	żółty	yellow	Neutral	Neutral	hit	n/a
390.9091	n/a	RESPONSE	n/a	n/a	n/a	n/a	n/a	n/a	n/a	yellow
390.9315	1.0167	ITI	n/a	n/a	n/a	n/a	n/a	n/a	n/a	n/a
391.9482	0.5167	FIXCROSS	n/a	n/a	n/a	n/a	n/a	n/a	n/a	n/a
392.4648	0.5666	COLOR_NAME	50	Incongruent	żółty	yellow	niebieski	blue	hit	n/a
393.0002	n/a	RESPONSE	n/a	n/a	n/a	n/a	n/a	n/a	n/a	yellow
393.0315	1.0167	ITI	n/a	n/a	n/a	n/a	n/a	n/a	n/a	n/a
394.0482	0.5166	FIXCROSS	n/a	n/a	n/a	n/a	n/a	n/a	n/a	n/a
394.5648	0.7	COLOR_NAME	51	Incongruent	żółty	yellow	czerwony	red	hit	n/a
395.2352	n/a	RESPONSE	n/a	n/a	n/a	n/a	n/a	n/a	n/a	yellow
395.2649	1.0166	ITI	n/a	n/a	n/a	n/a	n/a	n/a	n/a	n/a
396.2815	0.5167	FIXCROSS	n/a	n/a	n/a	n/a	n/a	n/a	n/a	n/a
396.7982	0.7001	COLOR_NAME	52	Incongruent	zielony	green	niebieski	blue	hit	n/a
397.4701	n/a	RESPONSE	n/a	n/a	n/a	n/a	n/a	n/a	n/a	green
397.4982	1.0167	ITI	n/a	n/a	n/a	n/a	n/a	n/a	n/a	n/a
398.5149	0.5167	FIXCROSS	n/a	n/a	n/a	n/a	n/a	n/a	n/a	n/a
399.0316	0.4833	COLOR_NAME	53	Neutral	zielony	green	Neutral	Neutral	hit	n/a
399.4974	n/a	RESPONSE	n/a	n/a	n/a	n/a	n/a	n/a	n/a	green
399.5149	1.0167	ITI	n/a	n/a	n/a	n/a	n/a	n/a	n/a	n/a
400.5315	0.5167	FIXCROSS	n/a	n/a	n/a	n/a	n/a	n/a	n/a	n/a
401.0482	0.4667	COLOR_NAME	54	Incongruent	zielony	green	niebieski	blue	hit	n/a
401.4928	n/a	RESPONSE	n/a	n/a	n/a	n/a	n/a	n/a	n/a	green
401.5149	1.0167	ITI	n/a	n/a	n/a	n/a	n/a	n/a	n/a	n/a
402.5316	0.5167	FIXCROSS	n/a	n/a	n/a	n/a	n/a	n/a	n/a	n/a
403.0483	0.6166	COLOR_NAME	55	Incongruent	żółty	yellow	zielony	green	hit	n/a
403.6318	n/a	RESPONSE	n/a	n/a	n/a	n/a	n/a	n/a	n/a	yellow
403.6649	1.0167	ITI	n/a	n/a	n/a	n/a	n/a	n/a	n/a	n/a
404.6816	0.5167	FIXCROSS	n/a	n/a	n/a	n/a	n/a	n/a	n/a	n/a
405.1983	0.7	COLOR_NAME	56	Incongruent	zielony	green	czerwony	red	hit	n/a
405.8667	n/a	RESPONSE	n/a	n/a	n/a	n/a	n/a	n/a	n/a	green
405.8983	1.0167	ITI	n/a	n/a	n/a	n/a	n/a	n/a	n/a	n/a
406.915	0.5167	FIXCROSS	n/a	n/a	n/a	n/a	n/a	n/a	n/a	n/a
407.4316	0.4667	COLOR_NAME	57	Neutral	zielony	green	Neutral	Neutral	hit	n/a
407.878	n/a	RESPONSE	n/a	n/a	n/a	n/a	n/a	n/a	n/a	green
407.8983	1.0167	ITI	n/a	n/a	n/a	n/a	n/a	n/a	n/a	n/a
408.915	0.5166	FIXCROSS	n/a	n/a	n/a	n/a	n/a	n/a	n/a	n/a
409.4316	0.6334	COLOR_NAME	58	Incongruent	zielony	green	żółty	yellow	hit	n/a
410.0332	n/a	RESPONSE	n/a	n/a	n/a	n/a	n/a	n/a	n/a	green
410.065	1.0167	ITI	n/a	n/a	n/a	n/a	n/a	n/a	n/a	n/a
411.0816	0.5167	FIXCROSS	n/a	n/a	n/a	n/a	n/a	n/a	n/a	n/a
411.5983	0.6667	COLOR_NAME	59	Incongruent	niebieski	blue	zielony	green	hit	n/a
412.2361	n/a	RESPONSE	n/a	n/a	n/a	n/a	n/a	n/a	n/a	blue
412.265	1.0167	ITI	n/a	n/a	n/a	n/a	n/a	n/a	n/a	n/a
413.2817	0.5167	FIXCROSS	n/a	n/a	n/a	n/a	n/a	n/a	n/a	n/a
413.7983	0.4666	COLOR_NAME	60	Neutral	żółty	yellow	Neutral	Neutral	hit	n/a
414.2474	n/a	RESPONSE	n/a	n/a	n/a	n/a	n/a	n/a	n/a	yellow
414.265	1.0167	ITI	n/a	n/a	n/a	n/a	n/a	n/a	n/a	n/a
415.2817	0.5167	FIXCROSS	n/a	n/a	n/a	n/a	n/a	n/a	n/a	n/a
415.7983	0.5333	COLOR_NAME	61	Neutral	niebieski	blue	Neutral	Neutral	hit	n/a
416.3067	n/a	RESPONSE	n/a	n/a	n/a	n/a	n/a	n/a	n/a	blue
416.3317	1.0167	ITI	n/a	n/a	n/a	n/a	n/a	n/a	n/a	n/a
417.3484	0.5167	FIXCROSS	n/a	n/a	n/a	n/a	n/a	n/a	n/a	n/a
417.865	0.55	COLOR_NAME	62	Neutral	czerwony	red	Neutral	Neutral	hit	n/a
418.3819	n/a	RESPONSE	n/a	n/a	n/a	n/a	n/a	n/a	n/a	red
418.415	1.0167	ITI	n/a	n/a	n/a	n/a	n/a	n/a	n/a	n/a
419.4317	0.5167	FIXCROSS	n/a	n/a	n/a	n/a	n/a	n/a	n/a	n/a
419.9484	0.4167	COLOR_NAME	63	Neutral	czerwony	red	Neutral	Neutral	hit	n/a
420.3455	n/a	RESPONSE	n/a	n/a	n/a	n/a	n/a	n/a	n/a	red
420.365	1.0167	ITI	n/a	n/a	n/a	n/a	n/a	n/a	n/a	n/a
421.3817	0.5166	FIXCROSS	n/a	n/a	n/a	n/a	n/a	n/a	n/a	n/a
421.8983	0.4	COLOR_NAME	64	Incongruent	czerwony	red	niebieski	blue	hit	n/a
422.277	n/a	RESPONSE	n/a	n/a	n/a	n/a	n/a	n/a	n/a	red
422.2984	1.0167	ITI	n/a	n/a	n/a	n/a	n/a	n/a	n/a	n/a
423.3151	0.5167	FIXCROSS	n/a	n/a	n/a	n/a	n/a	n/a	n/a	n/a
423.8317	0.3833	COLOR_NAME	65	Incongruent	czerwony	red	zielony	green	hit	n/a
424.1925	n/a	RESPONSE	n/a	n/a	n/a	n/a	n/a	n/a	n/a	red
424.2151	1.0167	ITI	n/a	n/a	n/a	n/a	n/a	n/a	n/a	n/a
425.2317	0.5166	FIXCROSS	n/a	n/a	n/a	n/a	n/a	n/a	n/a	n/a
425.7484	0.4	COLOR_NAME	66	Neutral	czerwony	red	Neutral	Neutral	hit	n/a
426.1242	n/a	RESPONSE	n/a	n/a	n/a	n/a	n/a	n/a	n/a	red
426.1484	1.0166	ITI	n/a	n/a	n/a	n/a	n/a	n/a	n/a	n/a
427.1651	0.5167	FIXCROSS	n/a	n/a	n/a	n/a	n/a	n/a	n/a	n/a
427.6818	0.6166	COLOR_NAME	67	Incongruent	niebieski	blue	czerwony	red	hit	n/a
428.2791	n/a	RESPONSE	n/a	n/a	n/a	n/a	n/a	n/a	n/a	blue
428.2984	1.0167	ITI	n/a	n/a	n/a	n/a	n/a	n/a	n/a	n/a
429.3151	0.5167	FIXCROSS	n/a	n/a	n/a	n/a	n/a	n/a	n/a	n/a
429.8318	0.4	COLOR_NAME	68	Neutral	niebieski	blue	Neutral	Neutral	hit	n/a
430.2107	n/a	RESPONSE	n/a	n/a	n/a	n/a	n/a	n/a	n/a	blue
430.2318	1.0167	ITI	n/a	n/a	n/a	n/a	n/a	n/a	n/a	n/a
431.2484	0.5166	FIXCROSS	n/a	n/a	n/a	n/a	n/a	n/a	n/a	n/a
431.7651	0.55	COLOR_NAME	69	Incongruent	czerwony	red	niebieski	blue	hit	n/a
432.286	n/a	RESPONSE	n/a	n/a	n/a	n/a	n/a	n/a	n/a	red
432.3151	1.0167	ITI	n/a	n/a	n/a	n/a	n/a	n/a	n/a	n/a
433.3318	0.5167	FIXCROSS	n/a	n/a	n/a	n/a	n/a	n/a	n/a	n/a
433.8485	0.4333	COLOR_NAME	70	Neutral	czerwony	red	Neutral	Neutral	hit	n/a
434.2495	n/a	RESPONSE	n/a	n/a	n/a	n/a	n/a	n/a	n/a	red
434.2818	1.0167	ITI	n/a	n/a	n/a	n/a	n/a	n/a	n/a	n/a
435.2985	0.5166	FIXCROSS	n/a	n/a	n/a	n/a	n/a	n/a	n/a	n/a
435.8151	0.9167	COLOR_NAME	71	Incongruent	zielony	green	czerwony	red	hit	n/a
436.708	n/a	RESPONSE	n/a	n/a	n/a	n/a	n/a	n/a	n/a	green
436.7318	1.0167	ITI	n/a	n/a	n/a	n/a	n/a	n/a	n/a	n/a
437.7485	0.5167	FIXCROSS	n/a	n/a	n/a	n/a	n/a	n/a	n/a	n/a
438.2652	0.6333	COLOR_NAME	72	Incongruent	zielony	green	niebieski	blue	hit	n/a
438.8789	n/a	RESPONSE	n/a	n/a	n/a	n/a	n/a	n/a	n/a	green
438.8985	1.0334	ITI	n/a	n/a	n/a	n/a	n/a	n/a	n/a	n/a
446.2221	n/a	RESPONSE	n/a	n/a	n/a	n/a	n/a	n/a	n/a	n/a
