onset	duration	trial_type	melody_number	melody_part	key	sound	action
0.0	14.085	CUE_START	n/a	n/a	n/a	n/a	n/a
14.085	7.759	FIXCROSS	n/a	n/a	n/a	n/a	n/a
21.845	6.316	CUE_LISTEN	M4	1	n/a	n/a	n/a
28.16	7.759	FIXCROSS	n/a	n/a	n/a	n/a	n/a
35.919	6.325	CUE_PLAYBACK_RIGHT_HAND	M4	1	n/a	n/a	n/a
36.776	n/a	RESPONSE	M4	1	21	A4	press
37.088	n/a	RESPONSE	M4	1	21	A4	release
37.2	n/a	RESPONSE	M4	1	21	A4	press
37.492	n/a	RESPONSE	M4	1	21	A4	release
37.646	n/a	RESPONSE	M4	1	21	A4	press
38.228	n/a	RESPONSE	M4	1	21	A4	release
38.412	n/a	RESPONSE	M4	1	21	A4	press
38.745	n/a	RESPONSE	M4	1	21	A4	release
38.866	n/a	RESPONSE	M4	1	21	A4	press
39.177	n/a	RESPONSE	M4	1	21	A4	release
39.318	n/a	RESPONSE	M4	1	21	A4	press
39.841	n/a	RESPONSE	M4	1	21	A4	release
40.105	n/a	RESPONSE	M4	1	21	A4	press
40.543	n/a	RESPONSE	M4	1	21	A4	release
40.557	n/a	RESPONSE	M4	1	24	C5	press
40.946	n/a	RESPONSE	M4	1	24	C5	release
41.017	n/a	RESPONSE	M4	1	17	F4	press
41.498	n/a	RESPONSE	M4	1	19	G4	press
41.51	n/a	RESPONSE	M4	1	17	F4	release
41.881	n/a	RESPONSE	M4	1	19	G4	release
41.982	n/a	RESPONSE	M4	1	21	A4	press
42.244	7.758	FIXCROSS	n/a	n/a	n/a	n/a	n/a
43.263	n/a	RESPONSE	M4	1	21	A4	release
50.002	6.317	CUE_LISTEN	M4	2	n/a	n/a	n/a
56.319	7.758	FIXCROSS	n/a	n/a	n/a	n/a	n/a
64.077	6.317	CUE_PLAYBACK_RIGHT_HAND	M4	2	n/a	n/a	n/a
64.672	n/a	RESPONSE	M4	2	22	A#4	press
64.992	n/a	RESPONSE	M4	2	22	A#4	release
65.147	n/a	RESPONSE	M4	2	22	A#4	press
65.48	n/a	RESPONSE	M4	2	22	A#4	release
65.637	n/a	RESPONSE	M4	2	22	A#4	press
65.956	n/a	RESPONSE	M4	2	22	A#4	release
66.112	n/a	RESPONSE	M4	2	22	A#4	press
66.403	n/a	RESPONSE	M4	2	22	A#4	release
66.583	n/a	RESPONSE	M4	2	22	A#4	press
66.855	n/a	RESPONSE	M4	2	22	A#4	release
67.065	n/a	RESPONSE	M4	2	21	A4	press
67.362	n/a	RESPONSE	M4	2	21	A4	release
67.545	n/a	RESPONSE	M4	2	21	A4	press
67.852	n/a	RESPONSE	M4	2	21	A4	release
68.023	n/a	RESPONSE	M4	2	21	A4	press
68.315	n/a	RESPONSE	M4	2	21	A4	release
68.515	n/a	RESPONSE	M4	2	21	A4	press
68.841	n/a	RESPONSE	M4	2	21	A4	release
68.962	n/a	RESPONSE	M4	2	19	G4	press
69.276	n/a	RESPONSE	M4	2	19	G4	release
69.435	n/a	RESPONSE	M4	2	19	G4	press
69.706	n/a	RESPONSE	M4	2	19	G4	release
69.898	n/a	RESPONSE	M4	2	21	A4	press
70.212	n/a	RESPONSE	M4	2	21	A4	release
70.371	n/a	RESPONSE	M4	2	19	G4	press
70.394	7.758	FIXCROSS	n/a	n/a	n/a	n/a	n/a
71.302	n/a	RESPONSE	M4	2	24	C5	press
71.305	n/a	RESPONSE	M4	2	19	G4	release
72.057	n/a	RESPONSE	M4	2	24	C5	release
78.152	6.325	CUE_LISTEN	M1	1	n/a	n/a	n/a
84.477	7.758	FIXCROSS	n/a	n/a	n/a	n/a	n/a
92.236	6.317	CUE_PLAYBACK_RIGHT_HAND	M1	1	n/a	n/a	n/a
92.765	n/a	RESPONSE	M1	1	21	A4	press
93.126	n/a	RESPONSE	M1	1	21	A4	release
93.637	n/a	RESPONSE	M1	1	21	A4	press
93.958	n/a	RESPONSE	M1	1	21	A4	release
94.12	n/a	RESPONSE	M1	1	21	A4	press
94.411	n/a	RESPONSE	M1	1	21	A4	release
94.582	n/a	RESPONSE	M1	1	21	A4	press
95.201	n/a	RESPONSE	M1	1	21	A4	release
95.453	n/a	RESPONSE	M1	1	21	A4	press
95.792	n/a	RESPONSE	M1	1	21	A4	release
95.932	n/a	RESPONSE	M1	1	21	A4	press
96.237	n/a	RESPONSE	M1	1	21	A4	release
96.413	n/a	RESPONSE	M1	1	21	A4	press
96.942	n/a	RESPONSE	M1	1	21	A4	release
97.266	n/a	RESPONSE	M1	1	21	A4	press
97.705	n/a	RESPONSE	M1	1	24	C5	press
97.752	n/a	RESPONSE	M1	1	21	A4	release
98.171	n/a	RESPONSE	M1	1	17	F4	press
98.406	n/a	RESPONSE	M1	1	24	C5	release
98.552	7.758	FIXCROSS	n/a	n/a	n/a	n/a	n/a
98.632	n/a	RESPONSE	M1	1	19	G4	press
98.683	n/a	RESPONSE	M1	1	17	F4	release
99.085	n/a	RESPONSE	M1	1	19	G4	release
99.096	n/a	RESPONSE	M1	1	21	A4	press
100.288	n/a	RESPONSE	M1	1	21	A4	release
106.311	6.317	CUE_LISTEN	M1	2	n/a	n/a	n/a
112.627	7.758	FIXCROSS	n/a	n/a	n/a	n/a	n/a
120.386	6.325	CUE_PLAYBACK_RIGHT_HAND	M1	2	n/a	n/a	n/a
121.248	n/a	RESPONSE	M1	2	22	A#4	press
121.63	n/a	RESPONSE	M1	2	22	A#4	release
121.721	n/a	RESPONSE	M1	2	22	A#4	press
122.062	n/a	RESPONSE	M1	2	22	A#4	release
122.223	n/a	RESPONSE	M1	2	22	A#4	press
122.585	n/a	RESPONSE	M1	2	22	A#4	release
122.716	n/a	RESPONSE	M1	2	22	A#4	press
123.047	n/a	RESPONSE	M1	2	22	A#4	release
123.221	n/a	RESPONSE	M1	2	22	A#4	press
123.511	n/a	RESPONSE	M1	2	22	A#4	release
123.742	n/a	RESPONSE	M1	2	21	A4	press
124.082	n/a	RESPONSE	M1	2	21	A4	release
124.235	n/a	RESPONSE	M1	2	21	A4	press
124.557	n/a	RESPONSE	M1	2	21	A4	release
124.746	n/a	RESPONSE	M1	2	21	A4	press
125.017	n/a	RESPONSE	M1	2	21	A4	release
125.852	n/a	RESPONSE	M1	2	24	C5	press
126.163	n/a	RESPONSE	M1	2	24	C5	release
126.347	n/a	RESPONSE	M1	2	24	C5	press
126.706	n/a	RESPONSE	M1	2	24	C5	release
126.711	7.758	FIXCROSS	n/a	n/a	n/a	n/a	n/a
126.818	n/a	RESPONSE	M1	2	22	A#4	press
127.237	n/a	RESPONSE	M1	2	22	A#4	release
127.411	n/a	RESPONSE	M1	2	19	G4	press
127.815	n/a	RESPONSE	M1	2	19	G4	release
127.932	n/a	RESPONSE	M1	2	17	F4	press
129.287	n/a	RESPONSE	M1	2	17	F4	release
134.469	6.317	CUE_LISTEN	M5	1	n/a	n/a	n/a
140.786	7.758	FIXCROSS	n/a	n/a	n/a	n/a	n/a
148.544	6.317	CUE_PLAYBACK_BOTH_HANDS	M5	1	n/a	n/a	n/a
149.821	n/a	RESPONSE	M5	1	19	G4	press
149.842	n/a	RESPONSE	M5	1	00	C3	press
149.853	n/a	RESPONSE	M5	1	04	E3	press
149.865	n/a	RESPONSE	M5	1	07	G3	press
150.346	n/a	RESPONSE	M5	1	19	G4	release
150.36	n/a	RESPONSE	M5	1	16	E4	press
150.71	n/a	RESPONSE	M5	1	16	E4	release
150.9	n/a	RESPONSE	M5	1	16	E4	press
151.201	n/a	RESPONSE	M5	1	04	E3	release
151.222	n/a	RESPONSE	M5	1	00	C3	release
151.255	n/a	RESPONSE	M5	1	16	E4	release
151.395	n/a	RESPONSE	M5	1	07	G3	release
151.547	n/a	RESPONSE	M5	1	05	F3	press
151.557	n/a	RESPONSE	M5	1	02	D3	press
151.568	n/a	RESPONSE	M5	1	17	F4	press
151.6	n/a	RESPONSE	M5	1	07	G3	press
152.151	n/a	RESPONSE	M5	1	14	D4	press
152.162	n/a	RESPONSE	M5	1	17	F4	release
152.465	n/a	RESPONSE	M5	1	14	D4	release
152.675	n/a	RESPONSE	M5	1	14	D4	press
152.876	n/a	RESPONSE	M5	1	07	G3	release
152.987	n/a	RESPONSE	M5	1	14	D4	release
153.0	n/a	RESPONSE	M5	1	05	F3	release
153.05	n/a	RESPONSE	M5	1	02	D3	release
153.341	n/a	RESPONSE	M5	1	07	G3	press
153.343	n/a	RESPONSE	M5	1	04	E3	press
153.346	n/a	RESPONSE	M5	1	12	C4	press
153.365	n/a	RESPONSE	M5	1	00	C3	press
153.756	n/a	RESPONSE	M5	1	16	E4	press
153.797	n/a	RESPONSE	M5	1	12	C4	release
154.101	n/a	RESPONSE	M5	1	19	G4	press
154.11	n/a	RESPONSE	M5	1	16	E4	release
154.861	7.758	FIXCROSS	n/a	n/a	n/a	n/a	n/a
155.208	n/a	RESPONSE	M5	1	04	E3	release
155.217	n/a	RESPONSE	M5	1	19	G4	release
155.221	n/a	RESPONSE	M5	1	00	C3	release
155.991	n/a	RESPONSE	M5	1	07	G3	release
162.619	6.325	CUE_LISTEN	M5	2	n/a	n/a	n/a
168.944	7.758	FIXCROSS	n/a	n/a	n/a	n/a	n/a
176.702	6.317	CUE_PLAYBACK_BOTH_HANDS	M5	2	n/a	n/a	n/a
177.78	n/a	RESPONSE	M5	2	19	G4	press
177.791	n/a	RESPONSE	M5	2	00	C3	press
177.794	n/a	RESPONSE	M5	2	04	E3	press
177.822	n/a	RESPONSE	M5	2	07	G3	press
178.234	n/a	RESPONSE	M5	2	19	G4	release
178.351	n/a	RESPONSE	M5	2	16	E4	press
178.685	n/a	RESPONSE	M5	2	16	E4	release
178.845	n/a	RESPONSE	M5	2	16	E4	press
179.078	n/a	RESPONSE	M5	2	00	C3	release
179.087	n/a	RESPONSE	M5	2	04	E3	release
179.12	n/a	RESPONSE	M5	2	16	E4	release
179.14	n/a	RESPONSE	M5	2	07	G3	release
179.351	n/a	RESPONSE	M5	2	05	F3	press
179.362	n/a	RESPONSE	M5	2	17	F4	press
179.374	n/a	RESPONSE	M5	2	02	D3	press
179.876	n/a	RESPONSE	M5	2	17	F4	release
179.888	n/a	RESPONSE	M5	2	14	D4	press
180.238	n/a	RESPONSE	M5	2	14	D4	release
180.4	n/a	RESPONSE	M5	2	14	D4	press
180.671	n/a	RESPONSE	M5	2	14	D4	release
180.702	n/a	RESPONSE	M5	2	05	F3	release
180.774	n/a	RESPONSE	M5	2	02	D3	release
181.395	n/a	RESPONSE	M5	2	00	C3	press
182.116	n/a	RESPONSE	M5	2	04	E3	press
182.137	n/a	RESPONSE	M5	2	07	G3	press
182.168	n/a	RESPONSE	M5	2	12	C4	press
182.56	n/a	RESPONSE	M5	2	16	E4	press
182.593	n/a	RESPONSE	M5	2	12	C4	release
182.952	n/a	RESPONSE	M5	2	12	C4	press
182.985	n/a	RESPONSE	M5	2	16	E4	release
183.019	7.758	FIXCROSS	n/a	n/a	n/a	n/a	n/a
184.085	n/a	RESPONSE	M5	2	00	C3	release
184.106	n/a	RESPONSE	M5	2	12	C4	release
184.127	n/a	RESPONSE	M5	2	07	G3	release
184.148	n/a	RESPONSE	M5	2	04	E3	release
190.778	6.317	CUE_LISTEN	M5	1	n/a	n/a	n/a
197.094	7.758	FIXCROSS	n/a	n/a	n/a	n/a	n/a
201.19	n/a	RESPONSE	M5	1	12	C4	press
201.501	n/a	RESPONSE	M5	1	14	D4	press
201.704	n/a	RESPONSE	M5	1	12	C4	release
201.884	n/a	RESPONSE	M5	1	14	D4	release
203.825	n/a	RESPONSE	M5	1	12	C4	press
204.136	n/a	RESPONSE	M5	1	12	C4	release
204.167	n/a	RESPONSE	M5	1	16	E4	press
204.811	n/a	RESPONSE	M5	1	16	E4	release
204.853	6.325	CUE_PLAYBACK_RIGHT_HAND	M5	1	n/a	n/a	n/a
205.161	n/a	RESPONSE	M5	1	17	F4	press
205.575	n/a	RESPONSE	M5	1	17	F4	release
208.63	n/a	RESPONSE	M5	1	16	E4	press
209.01	n/a	RESPONSE	M5	1	16	E4	release
209.701	n/a	RESPONSE	M5	1	24	C5	press
210.194	n/a	RESPONSE	M5	1	24	C5	release
210.247	n/a	RESPONSE	M5	1	21	A4	press
210.576	n/a	RESPONSE	M5	1	21	A4	release
210.727	n/a	RESPONSE	M5	1	21	A4	press
210.988	n/a	RESPONSE	M5	1	21	A4	release
211.178	7.758	FIXCROSS	n/a	n/a	n/a	n/a	n/a
218.936	6.317	CUE_LISTEN	M5	2	n/a	n/a	n/a
225.253	7.758	FIXCROSS	n/a	n/a	n/a	n/a	n/a
227.718	n/a	RESPONSE	M5	2	19	G4	press
228.048	n/a	RESPONSE	M5	2	19	G4	release
228.217	n/a	RESPONSE	M5	2	16	E4	press
228.755	n/a	RESPONSE	M5	2	16	E4	release
233.011	6.325	CUE_PLAYBACK_RIGHT_HAND	M5	2	n/a	n/a	n/a
234.988	n/a	RESPONSE	M5	2	19	G4	press
235.19	n/a	RESPONSE	M5	2	19	G4	release
236.695	n/a	RESPONSE	M5	2	21	A4	press
236.956	n/a	RESPONSE	M5	2	21	A4	release
239.336	7.758	FIXCROSS	n/a	n/a	n/a	n/a	n/a
239.656	n/a	RESPONSE	M5	2	24	C5	press
239.991	n/a	RESPONSE	M5	2	24	C5	release
240.09	n/a	RESPONSE	M5	2	19	G4	press
240.641	n/a	RESPONSE	M5	2	21	A4	press
240.745	n/a	RESPONSE	M5	2	19	G4	release
240.854	n/a	RESPONSE	M5	2	21	A4	release
247.094	6.317	CUE_LISTEN	M2	1	n/a	n/a	n/a
253.411	7.758	FIXCROSS	n/a	n/a	n/a	n/a	n/a
261.169	6.317	CUE_PLAYBACK_BOTH_HANDS	M2	1	n/a	n/a	n/a
262.92	n/a	RESPONSE	M2	1	00	C3	press
262.924	n/a	RESPONSE	M2	1	24	C5	press
262.955	n/a	RESPONSE	M2	1	07	G3	press
263.294	n/a	RESPONSE	M2	1	24	C5	release
263.456	n/a	RESPONSE	M2	1	21	A4	press
263.836	n/a	RESPONSE	M2	1	21	A4	release
263.978	n/a	RESPONSE	M2	1	00	C3	release
264.098	n/a	RESPONSE	M2	1	07	G3	release
264.975	n/a	RESPONSE	M2	1	24	C5	press
266.071	n/a	RESPONSE	M2	1	24	C5	release
266.311	n/a	RESPONSE	M2	1	24	C5	press
266.315	n/a	RESPONSE	M2	1	07	G3	press
266.317	n/a	RESPONSE	M2	1	00	C3	press
266.71	n/a	RESPONSE	M2	1	24	C5	release
266.79	n/a	RESPONSE	M2	1	19	G4	press
267.121	n/a	RESPONSE	M2	1	19	G4	release
267.192	n/a	RESPONSE	M2	1	00	C3	release
267.208	n/a	RESPONSE	M2	1	07	G3	release
267.326	n/a	RESPONSE	M2	1	19	G4	press
267.342	n/a	RESPONSE	M2	1	07	G3	press
267.346	n/a	RESPONSE	M2	1	00	C3	press
267.486	7.758	FIXCROSS	n/a	n/a	n/a	n/a	n/a
267.748	n/a	RESPONSE	M2	1	19	G4	release
267.916	n/a	RESPONSE	M2	1	21	A4	press
268.196	n/a	RESPONSE	M2	1	21	A4	release
268.364	n/a	RESPONSE	M2	1	07	G3	release
268.38	n/a	RESPONSE	M2	1	00	C3	release
268.748	n/a	RESPONSE	M2	1	17	F4	press
268.821	n/a	RESPONSE	M2	1	07	G3	press
269.011	n/a	RESPONSE	M2	1	07	G3	release
269.052	n/a	RESPONSE	M2	1	17	F4	release
269.374	n/a	RESPONSE	M2	1	16	E4	press
269.435	n/a	RESPONSE	M2	1	07	G3	press
269.456	n/a	RESPONSE	M2	1	00	C3	press
269.77	n/a	RESPONSE	M2	1	16	E4	release
269.8	n/a	RESPONSE	M2	1	00	C3	release
269.844	n/a	RESPONSE	M2	1	07	G3	release
269.984	n/a	RESPONSE	M2	1	17	F4	press
270.225	n/a	RESPONSE	M2	1	17	F4	release
270.476	n/a	RESPONSE	M2	1	07	G3	press
270.486	n/a	RESPONSE	M2	1	00	C3	press
270.488	n/a	RESPONSE	M2	1	19	G4	press
271.229	n/a	RESPONSE	M2	1	00	C3	release
271.25	n/a	RESPONSE	M2	1	19	G4	release
271.981	n/a	RESPONSE	M2	1	07	G3	release
275.244	6.325	CUE_LISTEN	M2	2	n/a	n/a	n/a
281.569	7.758	FIXCROSS	n/a	n/a	n/a	n/a	n/a
289.328	6.317	CUE_PLAYBACK_BOTH_HANDS	M2	2	n/a	n/a	n/a
290.621	n/a	RESPONSE	M2	2	00	C3	press
290.624	n/a	RESPONSE	M2	2	07	G3	press
290.626	n/a	RESPONSE	M2	2	24	C5	press
291.005	n/a	RESPONSE	M2	2	24	C5	release
291.176	n/a	RESPONSE	M2	2	19	G4	press
291.557	n/a	RESPONSE	M2	2	19	G4	release
291.578	n/a	RESPONSE	M2	2	07	G3	release
291.581	n/a	RESPONSE	M2	2	00	C3	release
291.724	n/a	RESPONSE	M2	2	19	G4	press
291.732	n/a	RESPONSE	M2	2	00	C3	press
291.735	n/a	RESPONSE	M2	2	07	G3	press
292.155	n/a	RESPONSE	M2	2	19	G4	release
292.236	n/a	RESPONSE	M2	2	17	F4	press
292.547	n/a	RESPONSE	M2	2	17	F4	release
292.55	n/a	RESPONSE	M2	2	00	C3	release
292.552	n/a	RESPONSE	M2	2	07	G3	release
292.761	n/a	RESPONSE	M2	2	00	C3	press
292.764	n/a	RESPONSE	M2	2	07	G3	press
292.824	n/a	RESPONSE	M2	2	16	E4	press
292.855	n/a	RESPONSE	M2	2	14	D4	press
292.996	n/a	RESPONSE	M2	2	14	D4	release
293.357	n/a	RESPONSE	M2	2	14	D4	press
293.468	n/a	RESPONSE	M2	2	16	E4	release
293.67	n/a	RESPONSE	M2	2	00	C3	release
293.682	n/a	RESPONSE	M2	2	07	G3	release
293.712	n/a	RESPONSE	M2	2	14	D4	release
293.904	n/a	RESPONSE	M2	2	07	G3	press
293.925	n/a	RESPONSE	M2	2	12	C4	press
293.936	n/a	RESPONSE	M2	2	00	C3	press
294.965	n/a	RESPONSE	M2	2	12	C4	release
295.018	n/a	RESPONSE	M2	2	00	C3	release
295.345	n/a	RESPONSE	M2	2	07	G3	release
295.644	7.758	FIXCROSS	n/a	n/a	n/a	n/a	n/a
303.403	6.317	CUE_LISTEN	M2	1	n/a	n/a	n/a
309.72	7.758	FIXCROSS	n/a	n/a	n/a	n/a	n/a
317.478	6.325	CUE_PLAYBACK_BOTH_HANDS	M2	1	n/a	n/a	n/a
318.447	n/a	RESPONSE	M2	1	00	C3	press
318.45	n/a	RESPONSE	M2	1	07	G3	press
318.49	n/a	RESPONSE	M2	1	12	C4	press
319.304	n/a	RESPONSE	M2	1	12	C4	release
319.605	n/a	RESPONSE	M2	1	07	G3	release
319.716	n/a	RESPONSE	M2	1	00	C3	release
319.87	n/a	RESPONSE	M2	1	07	G3	press
319.881	n/a	RESPONSE	M2	1	00	C3	press
319.891	n/a	RESPONSE	M2	1	12	C4	press
320.492	n/a	RESPONSE	M2	1	14	D4	press
320.624	n/a	RESPONSE	M2	1	12	C4	release
320.985	n/a	RESPONSE	M2	1	14	D4	release
321.016	n/a	RESPONSE	M2	1	16	E4	press
321.407	n/a	RESPONSE	M2	1	16	E4	release
321.448	n/a	RESPONSE	M2	1	00	C3	release
321.451	n/a	RESPONSE	M2	1	07	G3	release
321.581	n/a	RESPONSE	M2	1	00	C3	press
321.584	n/a	RESPONSE	M2	1	14	D4	press
321.586	n/a	RESPONSE	M2	1	07	G3	press
322.095	n/a	RESPONSE	M2	1	14	D4	release
322.139	n/a	RESPONSE	M2	1	16	E4	press
322.749	n/a	RESPONSE	M2	1	17	F4	press
322.911	n/a	RESPONSE	M2	1	16	E4	release
323.26	n/a	RESPONSE	M2	1	19	G4	press
323.451	n/a	RESPONSE	M2	1	17	F4	release
323.803	7.759	FIXCROSS	n/a	n/a	n/a	n/a	n/a
324.032	n/a	RESPONSE	M2	1	19	G4	release
324.186	n/a	RESPONSE	M2	1	00	C3	release
324.215	n/a	RESPONSE	M2	1	07	G3	release
331.561	6.317	CUE_LISTEN	M2	2	n/a	n/a	n/a
337.878	7.758	FIXCROSS	n/a	n/a	n/a	n/a	n/a
345.636	6.317	CUE_PLAYBACK_BOTH_HANDS	M2	2	n/a	n/a	n/a
346.281	n/a	RESPONSE	M2	2	16	E4	press
346.295	n/a	RESPONSE	M2	2	00	C3	press
346.304	n/a	RESPONSE	M2	2	07	G3	press
346.682	n/a	RESPONSE	M2	2	16	E4	release
346.821	n/a	RESPONSE	M2	2	19	G4	press
347.144	n/a	RESPONSE	M2	2	19	G4	release
347.175	n/a	RESPONSE	M2	2	00	C3	release
347.184	n/a	RESPONSE	M2	2	07	G3	release
347.326	n/a	RESPONSE	M2	2	00	C3	press
347.337	n/a	RESPONSE	M2	2	19	G4	press
347.344	n/a	RESPONSE	M2	2	07	G3	press
347.84	n/a	RESPONSE	M2	2	19	G4	release
348.032	n/a	RESPONSE	M2	2	17	F4	press
348.374	n/a	RESPONSE	M2	2	17	F4	release
348.457	n/a	RESPONSE	M2	2	00	C3	release
348.59	n/a	RESPONSE	M2	2	07	G3	release
348.691	n/a	RESPONSE	M2	2	00	C3	press
348.694	n/a	RESPONSE	M2	2	16	E4	press
348.704	n/a	RESPONSE	M2	2	07	G3	press
349.305	n/a	RESPONSE	M2	2	14	D4	press
349.347	n/a	RESPONSE	M2	2	16	E4	release
349.66	n/a	RESPONSE	M2	2	14	D4	release
349.669	n/a	RESPONSE	M2	2	00	C3	release
349.671	n/a	RESPONSE	M2	2	07	G3	release
349.902	n/a	RESPONSE	M2	2	00	C3	press
349.905	n/a	RESPONSE	M2	2	12	C4	press
349.915	n/a	RESPONSE	M2	2	07	G3	press
350.856	n/a	RESPONSE	M2	2	00	C3	release
350.867	n/a	RESPONSE	M2	2	12	C4	release
350.96	n/a	RESPONSE	M2	2	07	G3	release
351.953	7.758	FIXCROSS	n/a	n/a	n/a	n/a	n/a
359.711	6.325	CUE_LISTEN	M3	1	n/a	n/a	n/a
366.036	7.758	FIXCROSS	n/a	n/a	n/a	n/a	n/a
373.795	6.317	CUE_PLAYBACK_RIGHT_HAND	M3	1	n/a	n/a	n/a
374.835	n/a	RESPONSE	M3	1	12	C4	press
375.36	n/a	RESPONSE	M3	1	14	D4	press
375.498	n/a	RESPONSE	M3	1	12	C4	release
375.739	n/a	RESPONSE	M3	1	14	D4	release
376.401	n/a	RESPONSE	M3	1	14	D4	press
376.835	n/a	RESPONSE	M3	1	14	D4	release
376.989	n/a	RESPONSE	M3	1	16	E4	press
377.462	n/a	RESPONSE	M3	1	16	E4	release
377.8	n/a	RESPONSE	M3	1	12	C4	press
378.19	n/a	RESPONSE	M3	1	12	C4	release
378.446	n/a	RESPONSE	M3	1	12	C4	press
378.872	n/a	RESPONSE	M3	1	12	C4	release
379.095	n/a	RESPONSE	M3	1	14	D4	press
379.444	n/a	RESPONSE	M3	1	14	D4	release
379.715	n/a	RESPONSE	M3	1	16	E4	press
380.097	n/a	RESPONSE	M3	1	16	E4	release
380.111	7.758	FIXCROSS	n/a	n/a	n/a	n/a	n/a
380.359	n/a	RESPONSE	M3	1	12	C4	press
380.75	n/a	RESPONSE	M3	1	12	C4	release
387.87	6.317	CUE_LISTEN	M3	2	n/a	n/a	n/a
394.186	7.758	FIXCROSS	n/a	n/a	n/a	n/a	n/a
395.549	n/a	RESPONSE	M3	2	16	E4	press
395.961	n/a	RESPONSE	M3	2	16	E4	release
396.042	n/a	RESPONSE	M3	2	17	F4	press
396.446	n/a	RESPONSE	M3	2	17	F4	release
396.596	n/a	RESPONSE	M3	2	19	G4	press
397.425	n/a	RESPONSE	M3	2	19	G4	release
397.644	n/a	RESPONSE	M3	2	16	E4	press
398.06	n/a	RESPONSE	M3	2	16	E4	release
398.171	n/a	RESPONSE	M3	2	17	F4	press
398.517	n/a	RESPONSE	M3	2	17	F4	release
398.715	n/a	RESPONSE	M3	2	19	G4	press
399.266	n/a	RESPONSE	M3	2	19	G4	release
401.945	6.325	CUE_PLAYBACK_RIGHT_HAND	M3	2	n/a	n/a	n/a
406.3	n/a	RESPONSE	M3	2	16	E4	press
406.66	n/a	RESPONSE	M3	2	16	E4	release
406.784	n/a	RESPONSE	M3	2	17	F4	press
407.164	n/a	RESPONSE	M3	2	17	F4	release
407.316	n/a	RESPONSE	M3	2	19	G4	press
407.959	n/a	RESPONSE	M3	2	19	G4	release
408.249	n/a	RESPONSE	M3	2	16	E4	press
408.27	7.758	FIXCROSS	n/a	n/a	n/a	n/a	n/a
408.636	n/a	RESPONSE	M3	2	16	E4	release
408.777	n/a	RESPONSE	M3	2	17	F4	press
409.129	n/a	RESPONSE	M3	2	17	F4	release
409.3	n/a	RESPONSE	M3	2	19	G4	press
409.932	n/a	RESPONSE	M3	2	19	G4	release
416.028	6.317	CUE_LISTEN	M3	1	n/a	n/a	n/a
422.345	7.758	FIXCROSS	n/a	n/a	n/a	n/a	n/a
430.103	6.317	CUE_PLAYBACK_RIGHT_HAND	M3	1	n/a	n/a	n/a
430.904	n/a	RESPONSE	M3	1	19	G4	press
431.255	n/a	RESPONSE	M3	1	19	G4	release
431.266	n/a	RESPONSE	M3	1	21	A4	press
431.559	n/a	RESPONSE	M3	1	21	A4	release
431.659	n/a	RESPONSE	M3	1	19	G4	press
432.02	n/a	RESPONSE	M3	1	19	G4	release
432.051	n/a	RESPONSE	M3	1	17	F4	press
432.452	n/a	RESPONSE	M3	1	16	E4	press
432.534	n/a	RESPONSE	M3	1	17	F4	release
433.175	n/a	RESPONSE	M3	1	12	C4	press
433.286	n/a	RESPONSE	M3	1	16	E4	release
433.597	n/a	RESPONSE	M3	1	12	C4	release
433.929	n/a	RESPONSE	M3	1	19	G4	press
434.28	n/a	RESPONSE	M3	1	19	G4	release
434.321	n/a	RESPONSE	M3	1	21	A4	press
434.562	n/a	RESPONSE	M3	1	21	A4	release
434.704	n/a	RESPONSE	M3	1	19	G4	press
435.095	n/a	RESPONSE	M3	1	17	F4	press
435.126	n/a	RESPONSE	M3	1	19	G4	release
435.464	n/a	RESPONSE	M3	1	17	F4	release
435.496	n/a	RESPONSE	M3	1	16	E4	press
436.17	n/a	RESPONSE	M3	1	16	E4	release
436.251	n/a	RESPONSE	M3	1	12	C4	press
436.42	7.758	FIXCROSS	n/a	n/a	n/a	n/a	n/a
436.919	n/a	RESPONSE	M3	1	12	C4	release
444.178	6.325	CUE_LISTEN	M3	2	n/a	n/a	n/a
450.503	7.758	FIXCROSS	n/a	n/a	n/a	n/a	n/a
458.262	6.317	CUE_PLAYBACK_RIGHT_HAND	M3	2	n/a	n/a	n/a
459.104	n/a	RESPONSE	M3	2	12	C4	press
459.645	n/a	RESPONSE	M3	2	07	G3	press
459.686	n/a	RESPONSE	M3	2	12	C4	release
460.189	n/a	RESPONSE	M3	2	07	G3	release
460.2	n/a	RESPONSE	M3	2	12	C4	press
461.111	n/a	RESPONSE	M3	2	12	C4	release
461.302	n/a	RESPONSE	M3	2	12	C4	press
461.844	n/a	RESPONSE	M3	2	07	G3	press
461.887	n/a	RESPONSE	M3	2	12	C4	release
462.386	n/a	RESPONSE	M3	2	12	C4	press
462.407	n/a	RESPONSE	M3	2	07	G3	release
463.359	n/a	RESPONSE	M3	2	12	C4	release
464.578	7.758	FIXCROSS	n/a	n/a	n/a	n/a	n/a
472.337	6.325	CUE_LISTEN	M5	1	n/a	n/a	n/a
478.662	7.758	FIXCROSS	n/a	n/a	n/a	n/a	n/a
480.92	n/a	RESPONSE	M5	1	24	C5	press
481.21	n/a	RESPONSE	M5	1	24	C5	release
483.602	n/a	RESPONSE	M5	1	24	C5	press
484.174	n/a	RESPONSE	M5	1	24	C5	release
486.42	6.317	CUE_PLAYBACK_BOTH_HANDS	M5	1	n/a	n/a	n/a
488.137	n/a	RESPONSE	M5	1	11	B3	press
488.142	n/a	RESPONSE	M5	1	04	E3	press
488.147	n/a	RESPONSE	M5	1	07	G3	press
488.15	n/a	RESPONSE	M5	1	00	C3	press
488.59	n/a	RESPONSE	M5	1	11	B3	release
488.599	n/a	RESPONSE	M5	1	04	E3	release
488.63	n/a	RESPONSE	M5	1	00	C3	release
488.661	n/a	RESPONSE	M5	1	07	G3	release
492.737	7.758	FIXCROSS	n/a	n/a	n/a	n/a	n/a
493.016	n/a	RESPONSE	M5	1	00	C3	press
493.037	n/a	RESPONSE	M5	1	07	G3	press
493.079	n/a	RESPONSE	M5	1	11	B3	press
493.1	n/a	RESPONSE	M5	1	12	C4	press
493.284	n/a	RESPONSE	M5	1	11	B3	release
493.742	n/a	RESPONSE	M5	1	12	C4	release
493.845	n/a	RESPONSE	M5	1	14	D4	press
494.225	n/a	RESPONSE	M5	1	14	D4	release
494.676	n/a	RESPONSE	M5	1	07	G3	release
494.707	n/a	RESPONSE	M5	1	17	F4	press
494.71	n/a	RESPONSE	M5	1	16	E4	press
495.12	n/a	RESPONSE	M5	1	17	F4	release
495.122	n/a	RESPONSE	M5	1	16	E4	release
500.495	6.317	CUE_LISTEN	M5	2	n/a	n/a	n/a
503.756	n/a	RESPONSE	M5	2	00	C3	release
506.812	7.759	FIXCROSS	n/a	n/a	n/a	n/a	n/a
508.136	n/a	RESPONSE	M5	2	00	C3	press
508.177	n/a	RESPONSE	M5	2	04	E3	press
508.196	n/a	RESPONSE	M5	2	12	C4	press
508.202	n/a	RESPONSE	M5	2	07	G3	press
508.529	n/a	RESPONSE	M5	2	12	C4	release
508.546	n/a	RESPONSE	M5	2	14	D4	press
508.86	n/a	RESPONSE	M5	2	14	D4	release
508.872	n/a	RESPONSE	M5	2	17	F4	press
509.244	n/a	RESPONSE	M5	2	17	F4	release
509.424	n/a	RESPONSE	M5	2	04	E3	release
509.665	n/a	RESPONSE	M5	2	04	E3	press
509.907	n/a	RESPONSE	M5	2	12	C4	press
510.429	n/a	RESPONSE	M5	2	14	D4	press
510.46	n/a	RESPONSE	M5	2	12	C4	release
510.791	n/a	RESPONSE	M5	2	14	D4	release
510.845	n/a	RESPONSE	M5	2	16	E4	press
511.016	n/a	RESPONSE	M5	2	17	F4	press
511.275	n/a	RESPONSE	M5	2	16	E4	release
511.626	n/a	RESPONSE	M5	2	17	F4	release
511.927	n/a	RESPONSE	M5	2	04	E3	release
511.961	n/a	RESPONSE	M5	2	07	G3	release
514.57	6.325	CUE_PLAYBACK_BOTH_HANDS	M5	2	n/a	n/a	n/a
515.591	n/a	RESPONSE	M5	2	00	C3	release
517.914	n/a	RESPONSE	M5	2	00	C3	press
517.93	n/a	RESPONSE	M5	2	04	E3	press
517.962	n/a	RESPONSE	M5	2	07	G3	press
517.971	n/a	RESPONSE	M5	2	12	C4	press
518.364	n/a	RESPONSE	M5	2	12	C4	release
518.412	n/a	RESPONSE	M5	2	14	D4	press
518.744	n/a	RESPONSE	M5	2	14	D4	release
519.254	n/a	RESPONSE	M5	2	14	D4	press
519.595	n/a	RESPONSE	M5	2	12	C4	press
519.686	n/a	RESPONSE	M5	2	14	D4	release
519.869	n/a	RESPONSE	M5	2	12	C4	release
519.952	n/a	RESPONSE	M5	2	14	D4	press
520.134	n/a	RESPONSE	M5	2	17	F4	press
520.262	n/a	RESPONSE	M5	2	14	D4	release
520.844	n/a	RESPONSE	M5	2	04	E3	release
520.895	7.758	FIXCROSS	n/a	n/a	n/a	n/a	n/a
520.955	n/a	RESPONSE	M5	2	07	G3	release
521.076	n/a	RESPONSE	M5	2	17	F4	release
528.653	6.317	CUE_LISTEN	M5	1	n/a	n/a	n/a
530.247	n/a	RESPONSE	M5	1	00	C3	release
534.97	7.758	FIXCROSS	n/a	n/a	n/a	n/a	n/a
542.728	6.317	CUE_PLAYBACK_RIGHT_HAND	M5	1	n/a	n/a	n/a
543.569	n/a	RESPONSE	M5	1	17	F4	press
544.01	n/a	RESPONSE	M5	1	17	F4	release
544.101	n/a	RESPONSE	M5	1	14	D4	press
544.404	n/a	RESPONSE	M5	1	14	D4	release
544.594	n/a	RESPONSE	M5	1	14	D4	press
544.865	n/a	RESPONSE	M5	1	14	D4	release
545.097	n/a	RESPONSE	M5	1	16	E4	press
545.677	n/a	RESPONSE	M5	1	16	E4	release
548.16	n/a	RESPONSE	M5	1	17	F4	press
548.564	n/a	RESPONSE	M5	1	17	F4	release
548.687	n/a	RESPONSE	M5	1	14	D4	press
549.029	n/a	RESPONSE	M5	1	14	D4	release
549.045	7.758	FIXCROSS	n/a	n/a	n/a	n/a	n/a
549.2	n/a	RESPONSE	M5	1	14	D4	press
549.481	n/a	RESPONSE	M5	1	14	D4	release
549.692	n/a	RESPONSE	M5	1	16	E4	press
550.095	n/a	RESPONSE	M5	1	16	E4	release
550.206	n/a	RESPONSE	M5	1	12	C4	press
550.51	n/a	RESPONSE	M5	1	12	C4	release
550.709	n/a	RESPONSE	M5	1	12	C4	press
550.98	n/a	RESPONSE	M5	1	12	C4	release
551.181	n/a	RESPONSE	M5	1	11	B3	press
551.452	n/a	RESPONSE	M5	1	11	B3	release
551.524	n/a	RESPONSE	M5	1	14	D4	press
551.777	n/a	RESPONSE	M5	1	14	D4	release
551.886	n/a	RESPONSE	M5	1	17	F4	press
552.407	n/a	RESPONSE	M5	1	17	F4	release
556.804	6.325	CUE_LISTEN	M5	2	n/a	n/a	n/a
563.128	7.758	FIXCROSS	n/a	n/a	n/a	n/a	n/a
570.887	6.317	CUE_PLAYBACK_RIGHT_HAND	M5	2	n/a	n/a	n/a
571.652	n/a	RESPONSE	M5	2	19	G4	press
572.064	n/a	RESPONSE	M5	2	19	G4	release
572.225	n/a	RESPONSE	M5	2	16	E4	press
572.606	n/a	RESPONSE	M5	2	16	E4	release
572.807	n/a	RESPONSE	M5	2	16	E4	press
573.28	n/a	RESPONSE	M5	2	16	E4	release
574.54	n/a	RESPONSE	M5	2	17	F4	press
575.045	n/a	RESPONSE	M5	2	17	F4	release
575.152	n/a	RESPONSE	M5	2	14	D4	press
575.511	n/a	RESPONSE	M5	2	14	D4	release
575.716	n/a	RESPONSE	M5	2	14	D4	press
576.166	n/a	RESPONSE	M5	2	14	D4	release
576.426	n/a	RESPONSE	M5	2	19	G4	press
576.772	n/a	RESPONSE	M5	2	19	G4	release
577.204	7.758	FIXCROSS	n/a	n/a	n/a	n/a	n/a
577.406	n/a	RESPONSE	M5	2	12	C4	press
577.75	n/a	RESPONSE	M5	2	16	E4	press
577.765	n/a	RESPONSE	M5	2	12	C4	release
578.097	n/a	RESPONSE	M5	2	12	C4	press
578.141	n/a	RESPONSE	M5	2	16	E4	release
579.211	n/a	RESPONSE	M5	2	12	C4	release
584.962	6.317	CUE_LISTEN	M1	1	n/a	n/a	n/a
591.278	7.758	FIXCROSS	n/a	n/a	n/a	n/a	n/a
599.037	6.325	CUE_PLAYBACK_RIGHT_HAND	M1	1	n/a	n/a	n/a
599.965	n/a	RESPONSE	M1	1	05	F3	press
599.994	n/a	RESPONSE	M1	1	19	G4	press
600.385	n/a	RESPONSE	M1	1	19	G4	release
600.436	n/a	RESPONSE	M1	1	05	F3	release
602.36	n/a	RESPONSE	M1	1	05	F3	press
602.369	n/a	RESPONSE	M1	1	21	A4	press
602.53	n/a	RESPONSE	M1	1	05	F3	release
602.534	n/a	RESPONSE	M1	1	21	A4	release
603.665	n/a	RESPONSE	M1	1	05	F3	press
603.684	n/a	RESPONSE	M1	1	21	A4	press
604.108	n/a	RESPONSE	M1	1	21	A4	release
604.176	n/a	RESPONSE	M1	1	05	F3	release
604.189	n/a	RESPONSE	M1	1	24	C5	press
604.191	n/a	RESPONSE	M1	1	09	A3	press
604.58	n/a	RESPONSE	M1	1	09	A3	release
604.691	n/a	RESPONSE	M1	1	24	C5	release
604.815	n/a	RESPONSE	M1	1	04	E3	press
604.834	n/a	RESPONSE	M1	1	21	A4	press
605.277	n/a	RESPONSE	M1	1	21	A4	release
605.362	7.758	FIXCROSS	n/a	n/a	n/a	n/a	n/a
613.12	6.317	CUE_LISTEN	M1	2	n/a	n/a	n/a
619.437	7.758	FIXCROSS	n/a	n/a	n/a	n/a	n/a
627.195	6.317	CUE_PLAYBACK_RIGHT_HAND	M1	2	n/a	n/a	n/a
627.839	n/a	RESPONSE	M1	2	05	F3	press
627.842	n/a	RESPONSE	M1	2	21	A4	press
628.232	n/a	RESPONSE	M1	2	21	A4	release
628.249	n/a	RESPONSE	M1	2	05	F3	release
628.339	n/a	RESPONSE	M1	2	24	C5	press
628.344	n/a	RESPONSE	M1	2	09	A3	press
628.689	n/a	RESPONSE	M1	2	09	A3	release
629.0	n/a	RESPONSE	M1	2	17	F4	press
629.341	n/a	RESPONSE	M1	2	24	C5	release
629.512	n/a	RESPONSE	M1	2	17	F4	release
629.797	n/a	RESPONSE	M1	2	21	A4	press
629.866	n/a	RESPONSE	M1	2	09	A3	press
630.288	n/a	RESPONSE	M1	2	04	E3	release
630.329	n/a	RESPONSE	M1	2	21	A4	release
630.38	n/a	RESPONSE	M1	2	09	A3	release
632.682	n/a	RESPONSE	M1	2	17	F4	press
632.714	n/a	RESPONSE	M1	2	02	D3	press
633.296	n/a	RESPONSE	M1	2	17	F4	release
633.512	7.759	FIXCROSS	n/a	n/a	n/a	n/a	n/a
633.516	n/a	RESPONSE	M1	2	02	D3	release
633.648	n/a	RESPONSE	M1	2	21	A4	press
633.68	n/a	RESPONSE	M1	2	09	A3	press
633.98	n/a	RESPONSE	M1	2	21	A4	release
634.051	n/a	RESPONSE	M1	2	09	A3	release
634.214	n/a	RESPONSE	M1	2	00	C3	press
634.265	n/a	RESPONSE	M1	2	17	F4	press
634.555	n/a	RESPONSE	M1	2	17	F4	release
634.706	n/a	RESPONSE	M1	2	09	A3	press
635.184	n/a	RESPONSE	M1	2	09	A3	release
635.932	n/a	RESPONSE	M1	2	00	C3	release
641.27	6.325	CUE_LISTEN	M4	1	n/a	n/a	n/a
647.595	7.758	FIXCROSS	n/a	n/a	n/a	n/a	n/a
648.749	n/a	RESPONSE	M4	1	24	C5	press
650.404	n/a	RESPONSE	M4	1	24	C5	release
655.354	6.317	CUE_PLAYBACK_BOTH_HANDS	M4	1	n/a	n/a	n/a
655.949	n/a	RESPONSE	M4	1	21	A4	press
655.951	n/a	RESPONSE	M4	1	05	F3	press
656.275	n/a	RESPONSE	M4	1	21	A4	release
656.291	n/a	RESPONSE	M4	1	05	F3	release
656.404	n/a	RESPONSE	M4	1	09	A3	press
656.435	n/a	RESPONSE	M4	1	24	C5	press
656.77	n/a	RESPONSE	M4	1	09	A3	release
657.022	n/a	RESPONSE	M4	1	24	C5	release
657.206	n/a	RESPONSE	M4	1	04	E3	press
657.216	n/a	RESPONSE	M4	1	21	A4	press
657.692	n/a	RESPONSE	M4	1	21	A4	release
657.735	n/a	RESPONSE	M4	1	04	E3	release
658.359	n/a	RESPONSE	M4	1	21	A4	press
658.376	n/a	RESPONSE	M4	1	05	F3	press
658.691	n/a	RESPONSE	M4	1	21	A4	release
658.764	n/a	RESPONSE	M4	1	05	F3	release
658.794	n/a	RESPONSE	M4	1	09	A3	press
658.836	n/a	RESPONSE	M4	1	21	A4	press
659.116	n/a	RESPONSE	M4	1	21	A4	release
659.138	n/a	RESPONSE	M4	1	09	A3	release
659.211	n/a	RESPONSE	M4	1	04	E3	press
659.221	n/a	RESPONSE	M4	1	21	A4	press
659.512	n/a	RESPONSE	M4	1	21	A4	release
659.592	n/a	RESPONSE	M4	1	09	A3	press
659.805	n/a	RESPONSE	M4	1	04	E3	release
659.966	n/a	RESPONSE	M4	1	02	D3	press
659.97	n/a	RESPONSE	M4	1	21	A4	press
660.089	n/a	RESPONSE	M4	1	09	A3	release
660.271	n/a	RESPONSE	M4	1	21	A4	release
660.361	n/a	RESPONSE	M4	1	09	A3	press
660.382	n/a	RESPONSE	M4	1	21	A4	press
660.614	n/a	RESPONSE	M4	1	02	D3	release
660.635	n/a	RESPONSE	M4	1	21	A4	release
660.696	n/a	RESPONSE	M4	1	09	A3	release
660.777	n/a	RESPONSE	M4	1	21	A4	press
660.78	n/a	RESPONSE	M4	1	00	C3	press
660.84	n/a	RESPONSE	M4	1	02	D3	press
661.091	n/a	RESPONSE	M4	1	21	A4	release
661.102	n/a	RESPONSE	M4	1	02	D3	release
661.264	n/a	RESPONSE	M4	1	09	A3	press
661.385	n/a	RESPONSE	M4	1	21	A4	press
661.639	n/a	RESPONSE	M4	1	00	C3	release
661.666	n/a	RESPONSE	M4	1	21	A4	release
661.67	7.758	FIXCROSS	n/a	n/a	n/a	n/a	n/a
661.779	n/a	RESPONSE	M4	1	09	A3	release
669.429	6.325	CUE_LISTEN	M4	2	n/a	n/a	n/a
675.754	14.083	FIXCROSS	n/a	n/a	n/a	n/a	n/a
675.924	n/a	RESPONSE	M4	2	07	G3	press
675.951	n/a	RESPONSE	M4	2	22	A#4	press
676.295	n/a	RESPONSE	M4	2	07	G3	release
676.35	n/a	RESPONSE	M4	2	22	A#4	release
676.499	n/a	RESPONSE	M4	2	10	A#3	press
676.54	n/a	RESPONSE	M4	2	22	A#4	press
676.912	n/a	RESPONSE	M4	2	22	A#4	release
677.069	n/a	RESPONSE	M4	2	22	A#4	press
677.079	n/a	RESPONSE	M4	2	04	E3	press
677.096	n/a	RESPONSE	M4	2	10	A#3	release
677.43	n/a	RESPONSE	M4	2	22	A#4	release
677.638	n/a	RESPONSE	M4	2	10	A#3	press
677.646	n/a	RESPONSE	M4	2	22	A#4	press
677.698	n/a	RESPONSE	M4	2	04	E3	release
678.176	n/a	RESPONSE	M4	2	22	A#4	release
678.242	n/a	RESPONSE	M4	2	10	A#3	release
678.282	n/a	RESPONSE	M4	2	22	A#4	press
678.31	n/a	RESPONSE	M4	2	05	F3	press
678.884	n/a	RESPONSE	M4	2	22	A#4	release
678.895	n/a	RESPONSE	M4	2	09	A3	press
678.898	n/a	RESPONSE	M4	2	21	A4	press
678.94	n/a	RESPONSE	M4	2	05	F3	release
679.229	n/a	RESPONSE	M4	2	21	A4	release
679.47	n/a	RESPONSE	M4	2	21	A4	press
679.472	n/a	RESPONSE	M4	2	02	D3	press
679.592	n/a	RESPONSE	M4	2	09	A3	release
679.825	n/a	RESPONSE	M4	2	21	A4	release
680.076	n/a	RESPONSE	M4	2	09	A3	press
680.079	n/a	RESPONSE	M4	2	21	A4	press
680.109	n/a	RESPONSE	M4	2	02	D3	release
680.47	n/a	RESPONSE	M4	2	21	A4	release
680.791	n/a	RESPONSE	M4	2	09	A3	release
682.202	n/a	RESPONSE	M4	2	24	C5	press
682.556	n/a	RESPONSE	M4	2	24	C5	release
682.815	n/a	RESPONSE	M4	2	24	C5	press
683.449	n/a	RESPONSE	M4	2	22	A#4	press
683.512	n/a	CUE_PLAYBACK_BOTH_HANDS	M4	2	n/a	n/a	n/a
683.598	n/a	RESPONSE	M4	2	24	C5	release
685.026	n/a	RESPONSE	M4	2	22	A#4	release
687.197	n/a	RESPONSE	M4	2	22	A#4	press
687.209	n/a	RESPONSE	M4	2	07	G3	press
687.638	n/a	RESPONSE	M4	2	22	A#4	release
687.785	n/a	RESPONSE	M4	2	10	A#3	press
687.81	n/a	RESPONSE	M4	2	22	A#4	press
687.856	n/a	RESPONSE	M4	2	07	G3	release
688.159	n/a	RESPONSE	M4	2	22	A#4	release
688.365	n/a	RESPONSE	M4	2	22	A#4	press
688.654	n/a	RESPONSE	M4	2	22	A#4	release
689.806	n/a	RESPONSE	M4	2	10	A#3	release
689.837	7.758	FIXCROSS	n/a	n/a	n/a	n/a	n/a
689.86	n/a	RESPONSE	M4	2	22	A#4	press
689.88	n/a	RESPONSE	M4	2	04	E3	press
690.201	n/a	RESPONSE	M4	2	22	A#4	release
690.394	n/a	RESPONSE	M4	2	22	A#4	press
690.424	n/a	RESPONSE	M4	2	10	A#3	press
690.558	n/a	RESPONSE	M4	2	04	E3	release
690.699	n/a	RESPONSE	M4	2	22	A#4	release
690.888	n/a	RESPONSE	M4	2	10	A#3	release
690.98	n/a	RESPONSE	M4	2	22	A#4	press
691.0	n/a	RESPONSE	M4	2	05	F3	press
691.441	n/a	RESPONSE	M4	2	22	A#4	release
691.572	n/a	RESPONSE	M4	2	09	A3	press
691.614	n/a	RESPONSE	M4	2	22	A#4	press
691.725	n/a	RESPONSE	M4	2	05	F3	release
691.866	n/a	RESPONSE	M4	2	22	A#4	release
692.158	n/a	RESPONSE	M4	2	21	A4	press
692.45	n/a	RESPONSE	M4	2	21	A4	release
692.63	n/a	RESPONSE	M4	2	09	A3	release
692.734	n/a	RESPONSE	M4	2	02	D3	press
692.782	n/a	RESPONSE	M4	2	21	A4	press
693.074	n/a	RESPONSE	M4	2	21	A4	release
693.315	n/a	RESPONSE	M4	2	21	A4	press
693.339	n/a	RESPONSE	M4	2	09	A3	press
693.347	n/a	RESPONSE	M4	2	11	B3	press
693.539	n/a	RESPONSE	M4	2	11	B3	release
693.66	n/a	RESPONSE	M4	2	02	D3	release
693.731	n/a	RESPONSE	M4	2	21	A4	release
694.092	n/a	RESPONSE	M4	2	09	A3	release
697.596	6.308	CUE_LISTEN	M2	1	n/a	n/a	n/a
703.904	7.758	FIXCROSS	n/a	n/a	n/a	n/a	n/a
711.662	6.325	CUE_PLAYBACK_RIGHT_HAND	M2	1	n/a	n/a	n/a
712.444	n/a	RESPONSE	M2	1	24	C5	press
712.825	n/a	RESPONSE	M2	1	24	C5	release
712.946	n/a	RESPONSE	M2	1	21	A4	press
713.34	n/a	RESPONSE	M2	1	21	A4	release
715.597	n/a	RESPONSE	M2	1	24	C5	press
716.021	n/a	RESPONSE	M2	1	24	C5	release
716.214	n/a	RESPONSE	M2	1	24	C5	press
716.658	n/a	RESPONSE	M2	1	24	C5	release
716.82	n/a	RESPONSE	M2	1	21	A4	press
716.95	n/a	RESPONSE	M2	1	21	A4	release
717.454	n/a	RESPONSE	M2	1	24	C5	press
717.8	n/a	RESPONSE	M2	1	24	C5	release
717.954	n/a	RESPONSE	M2	1	19	G4	press
717.987	7.758	FIXCROSS	n/a	n/a	n/a	n/a	n/a
718.272	n/a	RESPONSE	M2	1	19	G4	release
718.468	n/a	RESPONSE	M2	1	19	G4	press
718.801	n/a	RESPONSE	M2	1	19	G4	release
718.934	n/a	RESPONSE	M2	1	17	F4	press
719.254	n/a	RESPONSE	M2	1	17	F4	release
719.386	n/a	RESPONSE	M2	1	16	E4	press
719.766	n/a	RESPONSE	M2	1	16	E4	release
719.839	n/a	RESPONSE	M2	1	17	F4	press
720.24	n/a	RESPONSE	M2	1	17	F4	release
720.334	n/a	RESPONSE	M2	1	19	G4	press
720.944	n/a	RESPONSE	M2	1	19	G4	release
725.746	6.317	CUE_LISTEN	M2	2	n/a	n/a	n/a
732.062	7.758	FIXCROSS	n/a	n/a	n/a	n/a	n/a
739.821	6.317	CUE_PLAYBACK_RIGHT_HAND	M2	2	n/a	n/a	n/a
740.584	n/a	RESPONSE	M2	2	24	C5	press
740.975	n/a	RESPONSE	M2	2	24	C5	release
741.086	n/a	RESPONSE	M2	2	19	G4	press
741.438	n/a	RESPONSE	M2	2	19	G4	release
741.571	n/a	RESPONSE	M2	2	19	G4	press
741.9	n/a	RESPONSE	M2	2	19	G4	release
742.044	n/a	RESPONSE	M2	2	17	F4	press
742.382	n/a	RESPONSE	M2	2	17	F4	release
742.504	n/a	RESPONSE	M2	2	16	E4	press
742.985	n/a	RESPONSE	M2	2	16	E4	release
743.009	n/a	RESPONSE	M2	2	14	D4	press
743.378	n/a	RESPONSE	M2	2	14	D4	release
743.499	n/a	RESPONSE	M2	2	12	C4	press
744.35	n/a	RESPONSE	M2	2	12	C4	release
746.137	7.758	FIXCROSS	n/a	n/a	n/a	n/a	n/a
753.896	6.325	CUE_LISTEN	M2	1	n/a	n/a	n/a
760.221	7.758	FIXCROSS	n/a	n/a	n/a	n/a	n/a
767.979	6.317	CUE_PLAYBACK_RIGHT_HAND	M2	1	n/a	n/a	n/a
768.796	n/a	RESPONSE	M2	1	12	C4	press
769.278	n/a	RESPONSE	M2	1	12	C4	release
769.339	n/a	RESPONSE	M2	1	14	D4	press
769.74	n/a	RESPONSE	M2	1	14	D4	release
769.842	n/a	RESPONSE	M2	1	16	E4	press
770.224	n/a	RESPONSE	M2	1	16	E4	release
770.345	n/a	RESPONSE	M2	1	14	D4	press
770.716	n/a	RESPONSE	M2	1	14	D4	release
770.878	n/a	RESPONSE	M2	1	16	E4	press
771.299	n/a	RESPONSE	M2	1	16	E4	release
771.4	n/a	RESPONSE	M2	1	17	F4	press
771.821	n/a	RESPONSE	M2	1	17	F4	release
771.932	n/a	RESPONSE	M2	1	19	G4	press
772.414	n/a	RESPONSE	M2	1	19	G4	release
774.296	7.758	FIXCROSS	n/a	n/a	n/a	n/a	n/a
782.054	6.317	CUE_LISTEN	M2	2	n/a	n/a	n/a
788.371	7.758	FIXCROSS	n/a	n/a	n/a	n/a	n/a
796.129	6.325	CUE_PLAYBACK_RIGHT_HAND	M2	2	n/a	n/a	n/a
796.829	n/a	RESPONSE	M2	2	16	E4	press
797.261	n/a	RESPONSE	M2	2	16	E4	release
797.342	n/a	RESPONSE	M2	2	19	G4	press
797.715	n/a	RESPONSE	M2	2	19	G4	release
797.849	n/a	RESPONSE	M2	2	19	G4	press
798.149	n/a	RESPONSE	M2	2	19	G4	release
798.341	n/a	RESPONSE	M2	2	17	F4	press
798.68	n/a	RESPONSE	M2	2	17	F4	release
798.851	n/a	RESPONSE	M2	2	16	E4	press
799.182	n/a	RESPONSE	M2	2	16	E4	release
799.354	n/a	RESPONSE	M2	2	14	D4	press
799.655	n/a	RESPONSE	M2	2	14	D4	release
799.878	n/a	RESPONSE	M2	2	12	C4	press
800.139	n/a	RESPONSE	M2	2	12	C4	release
802.454	7.758	FIXCROSS	n/a	n/a	n/a	n/a	n/a
809.724	n/a	RESPONSE	M2	2	07	G3	press
809.816	n/a	RESPONSE	M2	2	07	G3	release
810.212	6.317	CUE_LISTEN	M3	1	n/a	n/a	n/a
816.529	7.758	FIXCROSS	n/a	n/a	n/a	n/a	n/a
824.288	6.317	CUE_PLAYBACK_BOTH_HANDS	M3	1	n/a	n/a	n/a
825.224	n/a	RESPONSE	M3	1	00	C3	press
825.228	n/a	RESPONSE	M3	1	12	C4	press
825.654	n/a	RESPONSE	M3	1	12	C4	release
825.701	n/a	RESPONSE	M3	1	07	G3	press
825.756	n/a	RESPONSE	M3	1	14	D4	press
826.136	n/a	RESPONSE	M3	1	14	D4	release
826.15	n/a	RESPONSE	M3	1	00	C3	release
826.159	n/a	RESPONSE	M3	1	07	G3	release
826.188	n/a	RESPONSE	M3	1	04	E3	press
826.203	n/a	RESPONSE	M3	1	16	E4	press
826.589	n/a	RESPONSE	M3	1	16	E4	release
826.654	n/a	RESPONSE	M3	1	04	E3	release
826.689	n/a	RESPONSE	M3	1	07	G3	press
826.706	n/a	RESPONSE	M3	1	12	C4	press
827.038	n/a	RESPONSE	M3	1	12	C4	release
827.045	n/a	RESPONSE	M3	1	07	G3	release
827.189	n/a	RESPONSE	M3	1	00	C3	press
827.204	n/a	RESPONSE	M3	1	12	C4	press
827.598	n/a	RESPONSE	M3	1	12	C4	release
827.659	n/a	RESPONSE	M3	1	07	G3	press
827.696	n/a	RESPONSE	M3	1	00	C3	release
827.699	n/a	RESPONSE	M3	1	14	D4	press
828.011	n/a	RESPONSE	M3	1	14	D4	release
828.088	n/a	RESPONSE	M3	1	07	G3	release
828.148	n/a	RESPONSE	M3	1	04	E3	press
828.165	n/a	RESPONSE	M3	1	16	E4	press
828.576	n/a	RESPONSE	M3	1	16	E4	release
828.658	n/a	RESPONSE	M3	1	07	G3	press
828.671	n/a	RESPONSE	M3	1	12	C4	press
829.06	n/a	RESPONSE	M3	1	04	E3	release
829.181	n/a	RESPONSE	M3	1	12	C4	release
829.234	n/a	RESPONSE	M3	1	07	G3	release
830.604	7.758	FIXCROSS	n/a	n/a	n/a	n/a	n/a
838.362	6.325	CUE_LISTEN	M3	2	n/a	n/a	n/a
844.688	7.758	FIXCROSS	n/a	n/a	n/a	n/a	n/a
852.446	6.317	CUE_PLAYBACK_BOTH_HANDS	M3	2	n/a	n/a	n/a
853.481	n/a	RESPONSE	M3	2	00	C3	press
853.502	n/a	RESPONSE	M3	2	19	G4	press
853.924	n/a	RESPONSE	M3	2	19	G4	release
853.985	n/a	RESPONSE	M3	2	00	C3	release
854.199	n/a	RESPONSE	M3	2	00	C3	press
854.208	n/a	RESPONSE	M3	2	19	G4	press
854.569	n/a	RESPONSE	M3	2	19	G4	release
854.592	n/a	RESPONSE	M3	2	21	A4	press
854.631	n/a	RESPONSE	M3	2	07	G3	press
854.865	n/a	RESPONSE	M3	2	21	A4	release
854.884	n/a	RESPONSE	M3	2	00	C3	release
855.089	n/a	RESPONSE	M3	2	19	G4	press
855.369	n/a	RESPONSE	M3	2	07	G3	release
855.461	n/a	RESPONSE	M3	2	19	G4	release
855.914	n/a	RESPONSE	M3	2	00	C3	press
855.936	n/a	RESPONSE	M3	2	19	G4	press
856.224	n/a	RESPONSE	M3	2	19	G4	release
856.334	n/a	RESPONSE	M3	2	21	A4	press
856.569	n/a	RESPONSE	M3	2	21	A4	release
856.699	n/a	RESPONSE	M3	2	07	G3	press
856.715	n/a	RESPONSE	M3	2	19	G4	press
857.103	n/a	RESPONSE	M3	2	07	G3	release
857.146	n/a	RESPONSE	M3	2	00	C3	release
857.172	n/a	RESPONSE	M3	2	17	F4	press
857.209	n/a	RESPONSE	M3	2	05	F3	press
857.302	n/a	RESPONSE	M3	2	19	G4	release
857.444	n/a	RESPONSE	M3	2	05	F3	release
857.526	n/a	RESPONSE	M3	2	17	F4	release
857.644	n/a	RESPONSE	M3	2	04	E3	press
857.66	n/a	RESPONSE	M3	2	16	E4	press
858.578	n/a	RESPONSE	M3	2	16	E4	release
858.599	n/a	RESPONSE	M3	2	07	G3	press
858.601	n/a	RESPONSE	M3	2	14	D4	press
858.762	7.758	FIXCROSS	n/a	n/a	n/a	n/a	n/a
859.061	n/a	RESPONSE	M3	2	04	E3	release
859.082	n/a	RESPONSE	M3	2	14	D4	release
859.114	n/a	RESPONSE	M3	2	07	G3	release
859.465	n/a	RESPONSE	M3	2	00	C3	press
859.476	n/a	RESPONSE	M3	2	19	G4	press
859.748	n/a	RESPONSE	M3	2	19	G4	release
859.89	n/a	RESPONSE	M3	2	21	A4	press
860.111	n/a	RESPONSE	M3	2	21	A4	release
860.273	n/a	RESPONSE	M3	2	00	C3	release
860.304	n/a	RESPONSE	M3	2	19	G4	press
860.306	n/a	RESPONSE	M3	2	07	G3	press
860.639	n/a	RESPONSE	M3	2	19	G4	release
860.758	n/a	RESPONSE	M3	2	17	F4	press
860.87	n/a	RESPONSE	M3	2	07	G3	release
861.01	n/a	RESPONSE	M3	2	17	F4	release
861.253	n/a	RESPONSE	M3	2	16	E4	press
861.272	n/a	RESPONSE	M3	2	04	E3	press
861.744	n/a	RESPONSE	M3	2	04	E3	release
861.785	n/a	RESPONSE	M3	2	16	E4	release
862.126	n/a	RESPONSE	M3	2	14	D4	press
862.129	n/a	RESPONSE	M3	2	07	G3	press
862.689	n/a	RESPONSE	M3	2	14	D4	release
862.75	n/a	RESPONSE	M3	2	07	G3	release
866.521	6.325	CUE_LISTEN	M3	1	n/a	n/a	n/a
871.172	n/a	RESPONSE	M3	1	19	G4	press
871.494	n/a	RESPONSE	M3	1	19	G4	release
871.815	n/a	RESPONSE	M3	1	21	A4	press
872.096	n/a	RESPONSE	M3	1	21	A4	release
872.846	7.758	FIXCROSS	n/a	n/a	n/a	n/a	n/a
880.604	6.317	CUE_PLAYBACK_BOTH_HANDS	M3	1	n/a	n/a	n/a
881.694	n/a	RESPONSE	M3	1	19	G4	press
881.705	n/a	RESPONSE	M3	1	00	C3	press
882.218	n/a	RESPONSE	M3	1	19	G4	release
882.298	n/a	RESPONSE	M3	1	00	C3	release
882.669	n/a	RESPONSE	M3	1	00	C3	press
882.68	n/a	RESPONSE	M3	1	19	G4	press
883.021	n/a	RESPONSE	M3	1	19	G4	release
883.082	n/a	RESPONSE	M3	1	21	A4	press
883.086	n/a	RESPONSE	M3	1	07	G3	press
883.325	n/a	RESPONSE	M3	1	21	A4	release
883.478	n/a	RESPONSE	M3	1	19	G4	press
883.82	n/a	RESPONSE	M3	1	07	G3	release
883.919	n/a	RESPONSE	M3	1	19	G4	release
884.05	n/a	RESPONSE	M3	1	00	C3	release
884.281	n/a	RESPONSE	M3	1	19	G4	press
884.284	n/a	RESPONSE	M3	1	00	C3	press
884.554	n/a	RESPONSE	M3	1	19	G4	release
884.685	n/a	RESPONSE	M3	1	21	A4	press
884.906	n/a	RESPONSE	M3	1	21	A4	release
885.054	n/a	RESPONSE	M3	1	07	G3	press
885.068	n/a	RESPONSE	M3	1	19	G4	press
885.476	n/a	RESPONSE	M3	1	07	G3	release
885.518	n/a	RESPONSE	M3	1	17	F4	press
885.52	n/a	RESPONSE	M3	1	05	F3	press
885.542	n/a	RESPONSE	M3	1	00	C3	release
885.624	n/a	RESPONSE	M3	1	19	G4	release
885.782	n/a	RESPONSE	M3	1	05	F3	release
885.825	n/a	RESPONSE	M3	1	17	F4	release
885.942	n/a	RESPONSE	M3	1	04	E3	press
885.999	n/a	RESPONSE	M3	1	16	E4	press
886.684	n/a	RESPONSE	M3	1	16	E4	release
886.778	n/a	RESPONSE	M3	1	04	E3	release
886.799	n/a	RESPONSE	M3	1	07	G3	press
886.816	n/a	RESPONSE	M3	1	14	D4	press
886.921	7.759	FIXCROSS	n/a	n/a	n/a	n/a	n/a
887.28	n/a	RESPONSE	M3	1	14	D4	release
887.318	n/a	RESPONSE	M3	1	07	G3	release
887.564	n/a	RESPONSE	M3	1	19	G4	press
887.568	n/a	RESPONSE	M3	1	00	C3	press
887.84	n/a	RESPONSE	M3	1	19	G4	release
887.983	n/a	RESPONSE	M3	1	21	A4	press
888.176	n/a	RESPONSE	M3	1	21	A4	release
888.37	n/a	RESPONSE	M3	1	07	G3	press
888.375	n/a	RESPONSE	M3	1	19	G4	press
888.724	n/a	RESPONSE	M3	1	19	G4	release
888.815	n/a	RESPONSE	M3	1	17	F4	press
888.926	n/a	RESPONSE	M3	1	07	G3	release
889.018	n/a	RESPONSE	M3	1	00	C3	release
889.119	n/a	RESPONSE	M3	1	17	F4	release
889.273	n/a	RESPONSE	M3	1	05	F3	press
889.293	n/a	RESPONSE	M3	1	16	E4	press
889.946	n/a	RESPONSE	M3	1	16	E4	release
889.955	n/a	RESPONSE	M3	1	05	F3	release
890.149	n/a	RESPONSE	M3	1	00	C3	press
890.158	n/a	RESPONSE	M3	1	12	C4	press
890.839	n/a	RESPONSE	M3	1	12	C4	release
890.851	n/a	RESPONSE	M3	1	00	C3	release
891.453	n/a	RESPONSE	M3	1	00	C3	press
891.484	n/a	RESPONSE	M3	1	12	C4	press
892.314	n/a	RESPONSE	M3	1	07	G3	press
892.325	n/a	RESPONSE	M3	1	05	F3	press
892.696	n/a	RESPONSE	M3	1	05	F3	release
892.728	n/a	RESPONSE	M3	1	07	G3	release
892.919	n/a	RESPONSE	M3	1	00	C3	release
892.95	n/a	RESPONSE	M3	1	12	C4	release
894.679	6.317	CUE_LISTEN	M3	2	n/a	n/a	n/a
900.996	7.758	FIXCROSS	n/a	n/a	n/a	n/a	n/a
908.754	195.602	CUE_PLAYBACK_BOTH_HANDS	M3	2	n/a	n/a	n/a
910.76	n/a	RESPONSE	M3	2	07	G3	press
910.763	n/a	RESPONSE	M3	2	12	C4	press
911.235	n/a	RESPONSE	M3	2	12	C4	release
911.244	n/a	RESPONSE	M3	2	07	G3	release
911.355	n/a	RESPONSE	M3	2	07	G3	press
911.836	n/a	RESPONSE	M3	2	07	G3	release
912.008	n/a	RESPONSE	M3	2	12	C4	press
912.019	n/a	RESPONSE	M3	2	07	G3	press
913.03	n/a	RESPONSE	M3	2	12	C4	release
913.033	n/a	RESPONSE	M3	2	07	G3	release
913.252	n/a	FIXCROSS	n/a	n/a	n/a	n/a	n/a
913.283	n/a	RESPONSE	M3	2	07	G3	press
913.294	n/a	RESPONSE	M3	2	12	C4	press
913.738	n/a	RESPONSE	M3	2	07	G3	release
913.746	n/a	RESPONSE	M3	2	12	C4	release
913.888	n/a	RESPONSE	M3	2	07	G3	press
914.319	n/a	RESPONSE	M3	2	07	G3	release
914.501	n/a	RESPONSE	M3	2	07	G3	press
914.504	n/a	RESPONSE	M3	2	12	C4	press
915.464	n/a	RESPONSE	M3	2	12	C4	release
916.663	n/a	RESPONSE	M3	2	07	G3	release
