onset	duration	trial_type	braille_stimulus	targets	response_count
2.017	2.008	CUE_REST	n/a	n/a	n/a
7.017	1.008	FIXCROSS	n/a	n/a	n/a
13.067	1.008	FIXCROSS	n/a	n/a	n/a
21.125	2.008	CUE_6_DOT	n/a	n/a	n/a
26.125	1.008	FIXCROSS	n/a	n/a	n/a
27.141	5.009	6_DOT_DETECTION	ETMMP	0	n/a
32.175	1.008	FIXCROSS	n/a	n/a	n/a
33.192	5.008	6_DOT_DETECTION	#MAM#	2	n/a
34.44	n/a	RESPONSE	n/a	n/a	1/2
36.68	n/a	RESPONSE	n/a	n/a	2/2
38.225	1.008	FIXCROSS	n/a	n/a	n/a
39.242	5.008	6_DOT_DETECTION	#MUEI	1	n/a
40.68	n/a	RESPONSE	n/a	n/a	1/1
44.275	1.008	FIXCROSS	n/a	n/a	n/a
45.292	5.008	6_DOT_DETECTION	#ODY#	2	n/a
47.016	n/a	RESPONSE	n/a	n/a	1/2
49.256	n/a	RESPONSE	n/a	n/a	2/2
50.325	1.008	FIXCROSS	n/a	n/a	n/a
51.342	5.008	6_DOT_DETECTION	L#OPP	1	n/a
53.4	n/a	RESPONSE	n/a	n/a	1/1
55.2	n/a	RESPONSE	n/a	n/a	2/1
56.375	1.008	FIXCROSS	n/a	n/a	n/a
57.392	5.008	6_DOT_DETECTION	EESLŁ	0	n/a
62.425	1.008	FIXCROSS	n/a	n/a	n/a
63.442	5.008	6_DOT_DETECTION	TLE#A	1	n/a
66.16	n/a	RESPONSE	n/a	n/a	1/1
68.475	1.008	FIXCROSS	n/a	n/a	n/a
69.492	5.008	6_DOT_DETECTION	MIT##	2	n/a
72.44	n/a	RESPONSE	n/a	n/a	1/2
73.296	n/a	RESPONSE	n/a	n/a	2/2
76.034	2.008	CUE_REST	n/a	n/a	n/a
82.534	1.008	FIXCROSS	n/a	n/a	n/a
88.584	1.008	FIXCROSS	n/a	n/a	n/a
95.642	2.008	CUE_6_DOT	n/a	n/a	n/a
100.642	1.008	FIXCROSS	n/a	n/a	n/a
101.659	5.008	6_DOT_DETECTION	O#CLC	1	n/a
103.736	n/a	RESPONSE	n/a	n/a	1/1
106.692	1.008	FIXCROSS	n/a	n/a	n/a
107.708	5.009	6_DOT_DETECTION	CPCPO	0	n/a
112.742	1.008	FIXCROSS	n/a	n/a	n/a
113.759	5.008	6_DOT_DETECTION	CDYCS	0	n/a
118.792	1.008	FIXCROSS	n/a	n/a	n/a
119.808	5.009	6_DOT_DETECTION	#MAT#	2	n/a
121.16	n/a	RESPONSE	n/a	n/a	1/2
123.496	n/a	RESPONSE	n/a	n/a	2/2
124.842	1.008	FIXCROSS	n/a	n/a	n/a
125.858	5.009	6_DOT_DETECTION	ASA#S	1	n/a
128.376	n/a	RESPONSE	n/a	n/a	1/1
130.892	1.008	FIXCROSS	n/a	n/a	n/a
131.909	5.008	6_DOT_DETECTION	D#DOM	1	n/a
133.816	n/a	RESPONSE	n/a	n/a	1/1
136.942	1.008	FIXCROSS	n/a	n/a	n/a
137.959	5.008	6_DOT_DETECTION	#BYT#	2	n/a
139.216	n/a	RESPONSE	n/a	n/a	1/2
141.8	n/a	RESPONSE	n/a	n/a	2/2
142.992	1.008	FIXCROSS	n/a	n/a	n/a
144.009	5.008	6_DOT_DETECTION	B#KOS	1	n/a
146.136	n/a	RESPONSE	n/a	n/a	1/1
150.55	2.008	CUE_REST	n/a	n/a	n/a
155.05	1.008	FIXCROSS	n/a	n/a	n/a
161.1	1.008	FIXCROSS	n/a	n/a	n/a
168.659	2.008	CUE_6_DOT	n/a	n/a	n/a
175.159	1.008	FIXCROSS	n/a	n/a	n/a
176.176	5.008	6_DOT_DETECTION	KEBI#	1	n/a
180.36	n/a	RESPONSE	n/a	n/a	1/1
181.209	1.008	FIXCROSS	n/a	n/a	n/a
182.226	5.008	6_DOT_DETECTION	OSI##	2	n/a
186.056	n/a	RESPONSE	n/a	n/a	1/2
187.259	1.008	FIXCROSS	n/a	n/a	n/a
187.416	n/a	RESPONSE	n/a	n/a	2/2
188.276	5.008	6_DOT_DETECTION	ŁIOOI	0	n/a
193.309	1.008	FIXCROSS	n/a	n/a	n/a
194.326	5.008	6_DOT_DETECTION	YOIUC	0	n/a
199.359	1.008	FIXCROSS	n/a	n/a	n/a
200.376	5.008	6_DOT_DETECTION	YMEKP	0	n/a
203.76	n/a	RESPONSE	n/a	n/a	1/0
205.409	1.008	FIXCROSS	n/a	n/a	n/a
206.426	5.008	6_DOT_DETECTION	LOS#O	1	n/a
209.696	n/a	RESPONSE	n/a	n/a	1/1
211.459	1.008	FIXCROSS	n/a	n/a	n/a
212.476	5.008	6_DOT_DETECTION	##ILU	2	n/a
214.056	n/a	RESPONSE	n/a	n/a	1/2
215.24	n/a	RESPONSE	n/a	n/a	2/2
217.509	1.008	FIXCROSS	n/a	n/a	n/a
218.525	5.009	6_DOT_DETECTION	PLLIU	0	n/a
225.567	2.008	CUE_REST	n/a	n/a	n/a
229.567	1.008	FIXCROSS	n/a	n/a	n/a
235.617	1.008	FIXCROSS	n/a	n/a	n/a
243.676	2.008	CUE_6_DOT	n/a	n/a	n/a
249.676	1.008	FIXCROSS	n/a	n/a	n/a
250.692	5.008	6_DOT_DETECTION	Ł#TYM	1	n/a
252.656	n/a	RESPONSE	n/a	n/a	1/1
255.726	1.008	FIXCROSS	n/a	n/a	n/a
256.742	5.008	6_DOT_DETECTION	KOŁ#Y	1	n/a
259.816	n/a	RESPONSE	n/a	n/a	1/1
260.736	n/a	RESPONSE	n/a	n/a	2/1
261.776	1.008	FIXCROSS	n/a	n/a	n/a
262.792	5.008	6_DOT_DETECTION	OYPTK	0	n/a
264.8	n/a	RESPONSE	n/a	n/a	1/0
267.826	1.008	FIXCROSS	n/a	n/a	n/a
268.842	5.008	6_DOT_DETECTION	YSPIU	0	n/a
273.876	1.008	FIXCROSS	n/a	n/a	n/a
274.892	5.008	6_DOT_DETECTION	##CŁO	2	n/a
276.56	n/a	RESPONSE	n/a	n/a	1/2
279.926	1.008	FIXCROSS	n/a	n/a	n/a
280.942	5.008	6_DOT_DETECTION	##ŁUT	2	n/a
282.616	n/a	RESPONSE	n/a	n/a	1/2
284.0	n/a	RESPONSE	n/a	n/a	2/2
285.976	1.008	FIXCROSS	n/a	n/a	n/a
286.992	5.008	6_DOT_DETECTION	#TŁO#	2	n/a
288.736	n/a	RESPONSE	n/a	n/a	1/2
291.72	n/a	RESPONSE	n/a	n/a	2/2
292.026	1.008	FIXCROSS	n/a	n/a	n/a
293.042	5.008	6_DOT_DETECTION	##ŁUP	2	n/a
294.536	n/a	RESPONSE	n/a	n/a	1/2
296.48	n/a	RESPONSE	n/a	n/a	2/2
299.084	2.008	CUE_REST	n/a	n/a	n/a
305.084	1.008	FIXCROSS	n/a	n/a	n/a
311.134	1.008	FIXCROSS	n/a	n/a	n/a
318.693	2.008	CUE_6_DOT	n/a	n/a	n/a
324.193	1.008	FIXCROSS	n/a	n/a	n/a
325.209	5.008	6_DOT_DETECTION	TŁSDB	0	n/a
330.243	1.008	FIXCROSS	n/a	n/a	n/a
331.259	5.008	6_DOT_DETECTION	D#BYK	1	n/a
333.56	n/a	RESPONSE	n/a	n/a	1/1
336.293	1.008	FIXCROSS	n/a	n/a	n/a
337.309	5.008	6_DOT_DETECTION	AALC#	1	n/a
340.816	n/a	RESPONSE	n/a	n/a	1/1
342.343	1.008	FIXCROSS	n/a	n/a	n/a
343.359	5.008	6_DOT_DETECTION	LB#AA	1	n/a
346.0	n/a	RESPONSE	n/a	n/a	1/1
348.393	1.008	FIXCROSS	n/a	n/a	n/a
349.409	5.008	6_DOT_DETECTION	BUK##	2	n/a
352.096	n/a	RESPONSE	n/a	n/a	1/2
353.04	n/a	RESPONSE	n/a	n/a	2/2
354.443	1.008	FIXCROSS	n/a	n/a	n/a
355.459	5.008	6_DOT_DETECTION	##TIK	2	n/a
356.96	n/a	RESPONSE	n/a	n/a	1/2
357.656	n/a	RESPONSE	n/a	n/a	2/2
360.493	1.008	FIXCROSS	n/a	n/a	n/a
361.509	5.008	6_DOT_DETECTION	CACLO	0	n/a
366.543	1.008	FIXCROSS	n/a	n/a	n/a
367.559	5.008	6_DOT_DETECTION	CACKD	0	n/a
373.601	2.008	CUE_REST	n/a	n/a	n/a
380.601	1.008	FIXCROSS	n/a	n/a	n/a
386.651	1.008	FIXCROSS	n/a	n/a	n/a
393.71	2.008	CUE_6_DOT	n/a	n/a	n/a
398.71	1.008	FIXCROSS	n/a	n/a	n/a
399.726	5.008	6_DOT_DETECTION	DYL#A	1	n/a
403.36	n/a	RESPONSE	n/a	n/a	1/1
404.76	1.008	FIXCROSS	n/a	n/a	n/a
405.776	5.008	6_DOT_DETECTION	KPDIA	0	n/a
410.81	1.008	FIXCROSS	n/a	n/a	n/a
411.826	5.008	6_DOT_DETECTION	EPEP#	1	n/a
415.816	n/a	RESPONSE	n/a	n/a	1/1
416.86	1.008	FIXCROSS	n/a	n/a	n/a
417.876	5.008	6_DOT_DETECTION	CUD##	2	n/a
421.56	n/a	RESPONSE	n/a	n/a	1/2
422.91	1.008	FIXCROSS	n/a	n/a	n/a
423.926	5.008	6_DOT_DETECTION	O#ŁKA	1	n/a
426.136	n/a	RESPONSE	n/a	n/a	1/1
428.96	1.008	FIXCROSS	n/a	n/a	n/a
429.976	5.008	6_DOT_DETECTION	MIL##	2	n/a
433.0	n/a	RESPONSE	n/a	n/a	1/2
434.056	n/a	RESPONSE	n/a	n/a	2/2
435.01	1.008	FIXCROSS	n/a	n/a	n/a
436.026	5.009	6_DOT_DETECTION	OMCKC	0	n/a
441.06	1.008	FIXCROSS	n/a	n/a	n/a
442.076	5.008	6_DOT_DETECTION	OOEET	0	n/a
