onset	duration	trial_type	trial_number	stroop_condition	stim_text(PL)	stim_text(eng)	stim_color(PL)	stim_color(eng)	response_type	response_color
0.0	n/a	RESPONSE	n/a	n/a	n/a	n/a	n/a	n/a	n/a	n/a
0.0255	1.0166	ITI	n/a	n/a	n/a	n/a	n/a	n/a	n/a	n/a
1.0421	0.5	FIXCROSS	n/a	n/a	n/a	n/a	n/a	n/a	n/a	n/a
1.5421	1.0667	T_INK	1	Neutral	xxxxxxxx	xxxxxxxx	niebieski	blue	hit	n/a
2.5903	n/a	RESPONSE	n/a	n/a	n/a	n/a	n/a	n/a	n/a	blue
2.6088	0.5	FEEDBACK	n/a	n/a	n/a	n/a	n/a	n/a	n/a	n/a
3.1087	1.0167	ITI	n/a	n/a	n/a	n/a	n/a	n/a	n/a	n/a
4.1254	0.5	FIXCROSS	n/a	n/a	n/a	n/a	n/a	n/a	n/a	n/a
4.6254	0.9833	T_INK	2	Incongruent	żółty	yellow	niebieski	blue	hit	n/a
5.5963	n/a	RESPONSE	n/a	n/a	n/a	n/a	n/a	n/a	n/a	blue
5.6087	0.5	FEEDBACK	n/a	n/a	n/a	n/a	n/a	n/a	n/a	n/a
6.1087	1.0	ITI	n/a	n/a	n/a	n/a	n/a	n/a	n/a	n/a
7.1087	0.5	FIXCROSS	n/a	n/a	n/a	n/a	n/a	n/a	n/a	n/a
7.6087	1.0833	T_INK	3	Incongruent	zielony	green	czerwony	red	hit	n/a
8.6821	n/a	RESPONSE	n/a	n/a	n/a	n/a	n/a	n/a	n/a	red
8.692	0.5	FEEDBACK	n/a	n/a	n/a	n/a	n/a	n/a	n/a	n/a
9.192	1.0	ITI	n/a	n/a	n/a	n/a	n/a	n/a	n/a	n/a
10.1919	0.5	FIXCROSS	n/a	n/a	n/a	n/a	n/a	n/a	n/a	n/a
10.6919	0.8333	T_INK	4	Neutral	xxxxx	xxxxx	zielony	green	hit	n/a
11.5123	n/a	RESPONSE	n/a	n/a	n/a	n/a	n/a	n/a	n/a	green
11.5253	0.5	FEEDBACK	n/a	n/a	n/a	n/a	n/a	n/a	n/a	n/a
12.0253	1.0	ITI	n/a	n/a	n/a	n/a	n/a	n/a	n/a	n/a
13.0252	0.5	FIXCROSS	n/a	n/a	n/a	n/a	n/a	n/a	n/a	n/a
13.5252	0.4833	T_INK	5	Neutral	xxxxxxxx	xxxxxxxx	zielony	green	hit	n/a
13.9906	n/a	RESPONSE	n/a	n/a	n/a	n/a	n/a	n/a	n/a	green
14.0085	0.5	FEEDBACK	n/a	n/a	n/a	n/a	n/a	n/a	n/a	n/a
14.5085	1.0	ITI	n/a	n/a	n/a	n/a	n/a	n/a	n/a	n/a
15.5085	0.5	FIXCROSS	n/a	n/a	n/a	n/a	n/a	n/a	n/a	n/a
16.0085	0.5167	T_INK	6	Neutral	xxxxxxx	xxxxxxx	czerwony	red	hit	n/a
16.517	n/a	RESPONSE	n/a	n/a	n/a	n/a	n/a	n/a	n/a	red
16.5252	0.5	FEEDBACK	n/a	n/a	n/a	n/a	n/a	n/a	n/a	n/a
17.0252	1.0	ITI	n/a	n/a	n/a	n/a	n/a	n/a	n/a	n/a
18.0251	0.5	FIXCROSS	n/a	n/a	n/a	n/a	n/a	n/a	n/a	n/a
18.5251	0.65	T_INK	7	Neutral	xxxxxxxxx	xxxxxxxxx	czerwony	red	hit	n/a
19.1552	n/a	RESPONSE	n/a	n/a	n/a	n/a	n/a	n/a	n/a	red
19.1751	0.5	FEEDBACK	n/a	n/a	n/a	n/a	n/a	n/a	n/a	n/a
19.6751	1.0	ITI	n/a	n/a	n/a	n/a	n/a	n/a	n/a	n/a
20.6751	0.5	FIXCROSS	n/a	n/a	n/a	n/a	n/a	n/a	n/a	n/a
21.1751	0.8	T_INK	8	Neutral	xxxxxxxxx	xxxxxxxxx	zielony	green	hit	n/a
21.9693	n/a	RESPONSE	n/a	n/a	n/a	n/a	n/a	n/a	n/a	green
21.9751	0.5	FEEDBACK	n/a	n/a	n/a	n/a	n/a	n/a	n/a	n/a
22.4751	1.0	ITI	n/a	n/a	n/a	n/a	n/a	n/a	n/a	n/a
23.4751	0.5	FIXCROSS	n/a	n/a	n/a	n/a	n/a	n/a	n/a	n/a
23.975	0.4333	T_INK	9	Neutral	xxxxx	xxxxx	czerwony	red	hit	n/a
24.3998	n/a	RESPONSE	n/a	n/a	n/a	n/a	n/a	n/a	n/a	red
24.4084	0.5	FEEDBACK	n/a	n/a	n/a	n/a	n/a	n/a	n/a	n/a
24.9084	1.0	ITI	n/a	n/a	n/a	n/a	n/a	n/a	n/a	n/a
25.9083	0.5	FIXCROSS	n/a	n/a	n/a	n/a	n/a	n/a	n/a	n/a
26.4083	0.5833	T_INK	10	Incongruent	czerwony	red	niebieski	blue	hit	n/a
26.9739	n/a	RESPONSE	n/a	n/a	n/a	n/a	n/a	n/a	n/a	blue
26.9916	0.5	FEEDBACK	n/a	n/a	n/a	n/a	n/a	n/a	n/a	n/a
27.4916	1.0	ITI	n/a	n/a	n/a	n/a	n/a	n/a	n/a	n/a
28.4916	0.5	FIXCROSS	n/a	n/a	n/a	n/a	n/a	n/a	n/a	n/a
28.9916	0.6	T_INK	11	Neutral	xxxxx	xxxxx	niebieski	blue	hit	n/a
29.5801	n/a	RESPONSE	n/a	n/a	n/a	n/a	n/a	n/a	n/a	blue
29.5916	0.5	FEEDBACK	n/a	n/a	n/a	n/a	n/a	n/a	n/a	n/a
30.0916	1.0	ITI	n/a	n/a	n/a	n/a	n/a	n/a	n/a	n/a
31.0916	0.5	FIXCROSS	n/a	n/a	n/a	n/a	n/a	n/a	n/a	n/a
31.5916	1.2	T_INK	12	Incongruent	zielony	green	żółty	yellow	incorrect	n/a
32.778	n/a	RESPONSE	n/a	n/a	n/a	n/a	n/a	n/a	n/a	green
32.7915	0.5	FEEDBACK	n/a	n/a	n/a	n/a	n/a	n/a	n/a	n/a
33.2915	1.0	ITI	n/a	n/a	n/a	n/a	n/a	n/a	n/a	n/a
38.5822	n/a	RESPONSE	n/a	n/a	n/a	n/a	n/a	n/a	n/a	n/a
38.6081	1.0	ITI	n/a	n/a	n/a	n/a	n/a	n/a	n/a	n/a
39.6081	0.5	FIXCROSS	n/a	n/a	n/a	n/a	n/a	n/a	n/a	n/a
40.1081	1.7333	INK	1	Neutral	xxxxx	xxxxx	czerwony	red	hit	n/a
41.8279	n/a	RESPONSE	n/a	n/a	n/a	n/a	n/a	n/a	n/a	red
41.8414	1.0	ITI	n/a	n/a	n/a	n/a	n/a	n/a	n/a	n/a
42.8414	0.5	FIXCROSS	n/a	n/a	n/a	n/a	n/a	n/a	n/a	n/a
43.3414	0.85	INK	2	Incongruent	czerwony	red	żółty	yellow	incorrect	n/a
44.1784	n/a	RESPONSE	n/a	n/a	n/a	n/a	n/a	n/a	n/a	green
44.1913	1.0	ITI	n/a	n/a	n/a	n/a	n/a	n/a	n/a	n/a
45.1913	0.5	FIXCROSS	n/a	n/a	n/a	n/a	n/a	n/a	n/a	n/a
45.6913	0.4667	INK	3	Neutral	xxxxxxx	xxxxxxx	czerwony	red	hit	n/a
46.145	n/a	RESPONSE	n/a	n/a	n/a	n/a	n/a	n/a	n/a	red
46.158	1.0	ITI	n/a	n/a	n/a	n/a	n/a	n/a	n/a	n/a
47.158	0.5	FIXCROSS	n/a	n/a	n/a	n/a	n/a	n/a	n/a	n/a
47.658	0.85	INK	4	Neutral	xxxxxxx	xxxxxxx	żółty	yellow	incorrect	n/a
48.4955	n/a	RESPONSE	n/a	n/a	n/a	n/a	n/a	n/a	n/a	green
48.5079	1.0	ITI	n/a	n/a	n/a	n/a	n/a	n/a	n/a	n/a
49.5079	0.5	FIXCROSS	n/a	n/a	n/a	n/a	n/a	n/a	n/a	n/a
50.0079	0.4167	INK	5	Incongruent	żółty	yellow	czerwony	red	hit	n/a
50.4143	n/a	RESPONSE	n/a	n/a	n/a	n/a	n/a	n/a	n/a	red
50.4246	1.0	ITI	n/a	n/a	n/a	n/a	n/a	n/a	n/a	n/a
51.4245	0.5	FIXCROSS	n/a	n/a	n/a	n/a	n/a	n/a	n/a	n/a
51.9245	0.5833	INK	6	Neutral	xxxxxxx	xxxxxxx	czerwony	red	hit	n/a
52.4929	n/a	RESPONSE	n/a	n/a	n/a	n/a	n/a	n/a	n/a	red
52.5079	1.0	ITI	n/a	n/a	n/a	n/a	n/a	n/a	n/a	n/a
53.5078	0.5	FIXCROSS	n/a	n/a	n/a	n/a	n/a	n/a	n/a	n/a
54.0078	0.65	INK	7	Neutral	xxxxxxx	xxxxxxx	żółty	yellow	incorrect	n/a
54.6513	n/a	RESPONSE	n/a	n/a	n/a	n/a	n/a	n/a	n/a	green
54.6578	1.0	ITI	n/a	n/a	n/a	n/a	n/a	n/a	n/a	n/a
55.6578	0.5	FIXCROSS	n/a	n/a	n/a	n/a	n/a	n/a	n/a	n/a
56.1578	0.5667	INK	8	Neutral	xxxxx	xxxxx	niebieski	blue	hit	n/a
56.714	n/a	RESPONSE	n/a	n/a	n/a	n/a	n/a	n/a	n/a	blue
56.7244	1.0	ITI	n/a	n/a	n/a	n/a	n/a	n/a	n/a	n/a
57.7244	0.5	FIXCROSS	n/a	n/a	n/a	n/a	n/a	n/a	n/a	n/a
58.2244	0.8833	INK	9	Neutral	xxxxxxxxx	xxxxxxxxx	żółty	yellow	incorrect	n/a
59.0963	n/a	RESPONSE	n/a	n/a	n/a	n/a	n/a	n/a	n/a	green
59.1078	1.0	ITI	n/a	n/a	n/a	n/a	n/a	n/a	n/a	n/a
60.1077	0.5	FIXCROSS	n/a	n/a	n/a	n/a	n/a	n/a	n/a	n/a
60.6077	0.65	INK	10	Neutral	xxxxxxxx	xxxxxxxx	niebieski	blue	hit	n/a
61.239	n/a	RESPONSE	n/a	n/a	n/a	n/a	n/a	n/a	n/a	blue
61.2577	1.0	ITI	n/a	n/a	n/a	n/a	n/a	n/a	n/a	n/a
62.2577	0.5	FIXCROSS	n/a	n/a	n/a	n/a	n/a	n/a	n/a	n/a
62.7577	0.65	INK	11	Incongruent	zielony	green	czerwony	red	hit	n/a
63.3975	n/a	RESPONSE	n/a	n/a	n/a	n/a	n/a	n/a	n/a	red
63.4077	1.0	ITI	n/a	n/a	n/a	n/a	n/a	n/a	n/a	n/a
64.4076	0.5	FIXCROSS	n/a	n/a	n/a	n/a	n/a	n/a	n/a	n/a
64.9076	0.6166	INK	12	Neutral	xxxxxxx	xxxxxxx	niebieski	blue	hit	n/a
65.508	n/a	RESPONSE	n/a	n/a	n/a	n/a	n/a	n/a	n/a	blue
65.5243	1.0	ITI	n/a	n/a	n/a	n/a	n/a	n/a	n/a	n/a
66.5243	0.5	FIXCROSS	n/a	n/a	n/a	n/a	n/a	n/a	n/a	n/a
67.0243	0.8333	INK	13	Incongruent	zielony	green	żółty	yellow	incorrect	n/a
67.8426	n/a	RESPONSE	n/a	n/a	n/a	n/a	n/a	n/a	n/a	green
67.8576	1.0	ITI	n/a	n/a	n/a	n/a	n/a	n/a	n/a	n/a
68.8576	0.5	FIXCROSS	n/a	n/a	n/a	n/a	n/a	n/a	n/a	n/a
69.3576	0.6666	INK	14	Neutral	xxxxx	xxxxx	niebieski	blue	hit	n/a
70.017	n/a	RESPONSE	n/a	n/a	n/a	n/a	n/a	n/a	n/a	blue
70.0242	1.0	ITI	n/a	n/a	n/a	n/a	n/a	n/a	n/a	n/a
71.0242	0.4998	FIXCROSS	n/a	n/a	n/a	n/a	n/a	n/a	n/a	n/a
71.524	2.3335	INK	15	Incongruent	niebieski	blue	żółty	yellow	incorrect	n/a
73.8545	n/a	RESPONSE	n/a	n/a	n/a	n/a	n/a	n/a	n/a	green
73.8575	1.0	ITI	n/a	n/a	n/a	n/a	n/a	n/a	n/a	n/a
74.8575	0.5	FIXCROSS	n/a	n/a	n/a	n/a	n/a	n/a	n/a	n/a
75.3575	0.7	INK	16	Incongruent	niebieski	blue	żółty	yellow	incorrect	n/a
76.045	n/a	RESPONSE	n/a	n/a	n/a	n/a	n/a	n/a	n/a	green
76.0574	1.0	ITI	n/a	n/a	n/a	n/a	n/a	n/a	n/a	n/a
77.0574	0.5	FIXCROSS	n/a	n/a	n/a	n/a	n/a	n/a	n/a	n/a
77.5574	0.5833	INK	17	Neutral	xxxxxxxx	xxxxxxxx	zielony	green	hit	n/a
78.1236	n/a	RESPONSE	n/a	n/a	n/a	n/a	n/a	n/a	n/a	green
78.1407	1.0	ITI	n/a	n/a	n/a	n/a	n/a	n/a	n/a	n/a
79.1407	0.5	FIXCROSS	n/a	n/a	n/a	n/a	n/a	n/a	n/a	n/a
79.6407	0.7333	INK	18	Incongruent	czerwony	red	zielony	green	hit	n/a
80.3621	n/a	RESPONSE	n/a	n/a	n/a	n/a	n/a	n/a	n/a	green
80.374	1.0	ITI	n/a	n/a	n/a	n/a	n/a	n/a	n/a	n/a
81.374	0.5	FIXCROSS	n/a	n/a	n/a	n/a	n/a	n/a	n/a	n/a
81.874	1.4	INK	19	Incongruent	żółty	yellow	zielony	green	hit	n/a
83.2562	n/a	RESPONSE	n/a	n/a	n/a	n/a	n/a	n/a	n/a	green
83.274	1.0	ITI	n/a	n/a	n/a	n/a	n/a	n/a	n/a	n/a
84.274	0.5	FIXCROSS	n/a	n/a	n/a	n/a	n/a	n/a	n/a	n/a
84.774	0.6833	INK	20	Neutral	xxxxxxxx	xxxxxxxx	niebieski	blue	hit	n/a
85.4468	n/a	RESPONSE	n/a	n/a	n/a	n/a	n/a	n/a	n/a	blue
85.4573	1.0	ITI	n/a	n/a	n/a	n/a	n/a	n/a	n/a	n/a
86.4573	0.5	FIXCROSS	n/a	n/a	n/a	n/a	n/a	n/a	n/a	n/a
86.9572	0.5	INK	21	Neutral	xxxxx	xxxxx	czerwony	red	hit	n/a
87.4454	n/a	RESPONSE	n/a	n/a	n/a	n/a	n/a	n/a	n/a	red
87.4572	1.0	ITI	n/a	n/a	n/a	n/a	n/a	n/a	n/a	n/a
88.4572	0.5	FIXCROSS	n/a	n/a	n/a	n/a	n/a	n/a	n/a	n/a
88.9572	0.4833	INK	22	Incongruent	żółty	yellow	zielony	green	hit	n/a
89.4281	n/a	RESPONSE	n/a	n/a	n/a	n/a	n/a	n/a	n/a	green
89.4405	1.0	ITI	n/a	n/a	n/a	n/a	n/a	n/a	n/a	n/a
90.4405	0.5	FIXCROSS	n/a	n/a	n/a	n/a	n/a	n/a	n/a	n/a
90.9405	0.6666	INK	23	Neutral	xxxxx	xxxxx	zielony	green	hit	n/a
91.6026	n/a	RESPONSE	n/a	n/a	n/a	n/a	n/a	n/a	n/a	green
91.6072	1.0	ITI	n/a	n/a	n/a	n/a	n/a	n/a	n/a	n/a
92.6071	0.5	FIXCROSS	n/a	n/a	n/a	n/a	n/a	n/a	n/a	n/a
93.1071	0.5	INK	24	Neutral	xxxxx	xxxxx	niebieski	blue	hit	n/a
93.6014	n/a	RESPONSE	n/a	n/a	n/a	n/a	n/a	n/a	n/a	blue
93.6071	1.0	ITI	n/a	n/a	n/a	n/a	n/a	n/a	n/a	n/a
94.6071	0.5	FIXCROSS	n/a	n/a	n/a	n/a	n/a	n/a	n/a	n/a
95.1071	0.7	INK	25	Incongruent	czerwony	red	żółty	yellow	hit	n/a
95.7919	n/a	RESPONSE	n/a	n/a	n/a	n/a	n/a	n/a	n/a	yellow
95.8071	1.0	ITI	n/a	n/a	n/a	n/a	n/a	n/a	n/a	n/a
96.8071	0.5	FIXCROSS	n/a	n/a	n/a	n/a	n/a	n/a	n/a	n/a
97.3071	0.7167	INK	26	Incongruent	czerwony	red	zielony	green	hit	n/a
98.0143	n/a	RESPONSE	n/a	n/a	n/a	n/a	n/a	n/a	n/a	green
98.0237	1.0	ITI	n/a	n/a	n/a	n/a	n/a	n/a	n/a	n/a
99.0237	0.5	FIXCROSS	n/a	n/a	n/a	n/a	n/a	n/a	n/a	n/a
99.5237	0.8333	INK	27	Incongruent	żółty	yellow	niebieski	blue	hit	n/a
100.3487	n/a	RESPONSE	n/a	n/a	n/a	n/a	n/a	n/a	n/a	blue
100.357	1.0	ITI	n/a	n/a	n/a	n/a	n/a	n/a	n/a	n/a
101.357	0.5	FIXCROSS	n/a	n/a	n/a	n/a	n/a	n/a	n/a	n/a
101.857	0.55	INK	28	Incongruent	żółty	yellow	czerwony	red	hit	n/a
102.3953	n/a	RESPONSE	n/a	n/a	n/a	n/a	n/a	n/a	n/a	red
102.407	1.0	ITI	n/a	n/a	n/a	n/a	n/a	n/a	n/a	n/a
103.4069	0.5	FIXCROSS	n/a	n/a	n/a	n/a	n/a	n/a	n/a	n/a
103.9069	0.7167	INK	29	Incongruent	zielony	green	niebieski	blue	hit	n/a
104.6179	n/a	RESPONSE	n/a	n/a	n/a	n/a	n/a	n/a	n/a	blue
104.6236	1.0	ITI	n/a	n/a	n/a	n/a	n/a	n/a	n/a	n/a
105.6236	0.5	FIXCROSS	n/a	n/a	n/a	n/a	n/a	n/a	n/a	n/a
106.1236	0.5333	INK	30	Neutral	xxxxxxxx	xxxxxxxx	zielony	green	hit	n/a
106.6486	n/a	RESPONSE	n/a	n/a	n/a	n/a	n/a	n/a	n/a	green
106.6569	1.0	ITI	n/a	n/a	n/a	n/a	n/a	n/a	n/a	n/a
107.6569	0.5	FIXCROSS	n/a	n/a	n/a	n/a	n/a	n/a	n/a	n/a
108.1569	0.8333	INK	31	Incongruent	czerwony	red	niebieski	blue	hit	n/a
108.9829	n/a	RESPONSE	n/a	n/a	n/a	n/a	n/a	n/a	n/a	blue
108.9902	1.0	ITI	n/a	n/a	n/a	n/a	n/a	n/a	n/a	n/a
109.9902	0.5	FIXCROSS	n/a	n/a	n/a	n/a	n/a	n/a	n/a	n/a
110.4902	0.5	INK	32	Neutral	xxxxxxx	xxxxxxx	niebieski	blue	hit	n/a
110.9817	n/a	RESPONSE	n/a	n/a	n/a	n/a	n/a	n/a	n/a	blue
110.9901	1.0	ITI	n/a	n/a	n/a	n/a	n/a	n/a	n/a	n/a
111.9901	0.5	FIXCROSS	n/a	n/a	n/a	n/a	n/a	n/a	n/a	n/a
112.4901	0.6667	INK	33	Incongruent	niebieski	blue	zielony	green	hit	n/a
113.1402	n/a	RESPONSE	n/a	n/a	n/a	n/a	n/a	n/a	n/a	green
113.1568	1.0	ITI	n/a	n/a	n/a	n/a	n/a	n/a	n/a	n/a
114.1568	0.5	FIXCROSS	n/a	n/a	n/a	n/a	n/a	n/a	n/a	n/a
114.6568	0.6167	INK	34	Incongruent	niebieski	blue	czerwony	red	hit	n/a
115.2668	n/a	RESPONSE	n/a	n/a	n/a	n/a	n/a	n/a	n/a	red
115.2734	1.0	ITI	n/a	n/a	n/a	n/a	n/a	n/a	n/a	n/a
116.2734	0.5	FIXCROSS	n/a	n/a	n/a	n/a	n/a	n/a	n/a	n/a
116.7734	1.5833	INK	35	Incongruent	zielony	green	czerwony	red	hit	n/a
118.3527	n/a	RESPONSE	n/a	n/a	n/a	n/a	n/a	n/a	n/a	red
118.3567	1.0	ITI	n/a	n/a	n/a	n/a	n/a	n/a	n/a	n/a
119.3567	0.5	FIXCROSS	n/a	n/a	n/a	n/a	n/a	n/a	n/a	n/a
119.8567	0.8666	INK	36	Incongruent	czerwony	red	zielony	green	hit	n/a
120.7192	n/a	RESPONSE	n/a	n/a	n/a	n/a	n/a	n/a	n/a	green
120.7233	1.0	ITI	n/a	n/a	n/a	n/a	n/a	n/a	n/a	n/a
121.7233	0.5	FIXCROSS	n/a	n/a	n/a	n/a	n/a	n/a	n/a	n/a
122.2233	0.9167	INK	37	Neutral	xxxxxxxxx	xxxxxxxxx	czerwony	red	hit	n/a
123.1334	n/a	RESPONSE	n/a	n/a	n/a	n/a	n/a	n/a	n/a	red
123.1399	1.0	ITI	n/a	n/a	n/a	n/a	n/a	n/a	n/a	n/a
124.1399	0.5	FIXCROSS	n/a	n/a	n/a	n/a	n/a	n/a	n/a	n/a
124.6399	1.2666	INK	38	Neutral	xxxxxxxxx	xxxxxxxxx	zielony	green	hit	n/a
125.8997	n/a	RESPONSE	n/a	n/a	n/a	n/a	n/a	n/a	n/a	green
125.9065	1.0	ITI	n/a	n/a	n/a	n/a	n/a	n/a	n/a	n/a
126.9065	0.5	FIXCROSS	n/a	n/a	n/a	n/a	n/a	n/a	n/a	n/a
127.4065	0.5333	INK	39	Neutral	xxxxx	xxxxx	zielony	green	hit	n/a
127.9303	n/a	RESPONSE	n/a	n/a	n/a	n/a	n/a	n/a	n/a	green
127.9398	1.0	ITI	n/a	n/a	n/a	n/a	n/a	n/a	n/a	n/a
128.9398	0.5	FIXCROSS	n/a	n/a	n/a	n/a	n/a	n/a	n/a	n/a
129.4398	0.6333	INK	40	Neutral	xxxxxxxx	xxxxxxxx	niebieski	blue	hit	n/a
130.0569	n/a	RESPONSE	n/a	n/a	n/a	n/a	n/a	n/a	n/a	blue
130.0731	1.0	ITI	n/a	n/a	n/a	n/a	n/a	n/a	n/a	n/a
131.0731	0.5	FIXCROSS	n/a	n/a	n/a	n/a	n/a	n/a	n/a	n/a
131.5731	0.75	INK	41	Incongruent	czerwony	red	niebieski	blue	hit	n/a
132.3114	n/a	RESPONSE	n/a	n/a	n/a	n/a	n/a	n/a	n/a	blue
132.3231	1.0	ITI	n/a	n/a	n/a	n/a	n/a	n/a	n/a	n/a
133.3231	0.5	FIXCROSS	n/a	n/a	n/a	n/a	n/a	n/a	n/a	n/a
133.8231	0.7833	INK	42	Neutral	xxxxxxxx	xxxxxxxx	zielony	green	hit	n/a
134.5979	n/a	RESPONSE	n/a	n/a	n/a	n/a	n/a	n/a	n/a	green
134.6064	1.0	ITI	n/a	n/a	n/a	n/a	n/a	n/a	n/a	n/a
135.6064	0.5	FIXCROSS	n/a	n/a	n/a	n/a	n/a	n/a	n/a	n/a
136.1063	0.65	INK	43	Incongruent	żółty	yellow	czerwony	red	hit	n/a
136.7404	n/a	RESPONSE	n/a	n/a	n/a	n/a	n/a	n/a	n/a	red
136.7564	1.0	ITI	n/a	n/a	n/a	n/a	n/a	n/a	n/a	n/a
137.7563	0.5	FIXCROSS	n/a	n/a	n/a	n/a	n/a	n/a	n/a	n/a
138.2563	0.7	INK	44	Incongruent	żółty	yellow	niebieski	blue	hit	n/a
138.9469	n/a	RESPONSE	n/a	n/a	n/a	n/a	n/a	n/a	n/a	blue
138.9563	1.0	ITI	n/a	n/a	n/a	n/a	n/a	n/a	n/a	n/a
139.9563	0.5	FIXCROSS	n/a	n/a	n/a	n/a	n/a	n/a	n/a	n/a
140.4563	0.7167	INK	45	Incongruent	czerwony	red	żółty	yellow	incorrect	n/a
141.1695	n/a	RESPONSE	n/a	n/a	n/a	n/a	n/a	n/a	n/a	green
141.1729	1.0	ITI	n/a	n/a	n/a	n/a	n/a	n/a	n/a	n/a
142.1729	0.5	FIXCROSS	n/a	n/a	n/a	n/a	n/a	n/a	n/a	n/a
142.6729	0.65	INK	46	Neutral	xxxxxxxxx	xxxxxxxxx	żółty	yellow	hit	n/a
143.3121	n/a	RESPONSE	n/a	n/a	n/a	n/a	n/a	n/a	n/a	yellow
143.3229	1.0	ITI	n/a	n/a	n/a	n/a	n/a	n/a	n/a	n/a
144.3229	0.5	FIXCROSS	n/a	n/a	n/a	n/a	n/a	n/a	n/a	n/a
144.8229	0.4833	INK	47	Neutral	xxxxxxxxx	xxxxxxxxx	zielony	green	hit	n/a
145.2947	n/a	RESPONSE	n/a	n/a	n/a	n/a	n/a	n/a	n/a	green
145.3062	1.0	ITI	n/a	n/a	n/a	n/a	n/a	n/a	n/a	n/a
146.3062	0.5	FIXCROSS	n/a	n/a	n/a	n/a	n/a	n/a	n/a	n/a
146.8062	0.6167	INK	48	Neutral	xxxxx	xxxxx	czerwony	red	hit	n/a
147.4053	n/a	RESPONSE	n/a	n/a	n/a	n/a	n/a	n/a	n/a	red
147.4228	1.0	ITI	n/a	n/a	n/a	n/a	n/a	n/a	n/a	n/a
148.4228	0.5	FIXCROSS	n/a	n/a	n/a	n/a	n/a	n/a	n/a	n/a
148.9228	0.8833	INK	49	Incongruent	zielony	green	żółty	yellow	hit	n/a
149.7877	n/a	RESPONSE	n/a	n/a	n/a	n/a	n/a	n/a	n/a	yellow
149.8061	1.0	ITI	n/a	n/a	n/a	n/a	n/a	n/a	n/a	n/a
150.8061	0.5	FIXCROSS	n/a	n/a	n/a	n/a	n/a	n/a	n/a	n/a
151.3061	0.9	INK	50	Incongruent	niebieski	blue	czerwony	red	hit	n/a
152.202	n/a	RESPONSE	n/a	n/a	n/a	n/a	n/a	n/a	n/a	red
152.2061	1.0	ITI	n/a	n/a	n/a	n/a	n/a	n/a	n/a	n/a
153.2061	0.5	FIXCROSS	n/a	n/a	n/a	n/a	n/a	n/a	n/a	n/a
153.7061	0.65	INK	51	Incongruent	czerwony	red	niebieski	blue	hit	n/a
154.3446	n/a	RESPONSE	n/a	n/a	n/a	n/a	n/a	n/a	n/a	blue
154.356	1.0	ITI	n/a	n/a	n/a	n/a	n/a	n/a	n/a	n/a
155.356	0.5	FIXCROSS	n/a	n/a	n/a	n/a	n/a	n/a	n/a	n/a
155.856	0.6167	INK	52	Neutral	xxxxx	xxxxx	zielony	green	hit	n/a
156.4552	n/a	RESPONSE	n/a	n/a	n/a	n/a	n/a	n/a	n/a	green
156.4727	1.0	ITI	n/a	n/a	n/a	n/a	n/a	n/a	n/a	n/a
157.4727	0.5	FIXCROSS	n/a	n/a	n/a	n/a	n/a	n/a	n/a	n/a
157.9726	0.55	INK	53	Incongruent	żółty	yellow	zielony	green	hit	n/a
158.5177	n/a	RESPONSE	n/a	n/a	n/a	n/a	n/a	n/a	n/a	green
158.5226	1.0	ITI	n/a	n/a	n/a	n/a	n/a	n/a	n/a	n/a
159.5226	0.5	FIXCROSS	n/a	n/a	n/a	n/a	n/a	n/a	n/a	n/a
160.0226	0.5833	INK	54	Neutral	xxxxxxx	xxxxxxx	niebieski	blue	hit	n/a
160.5963	n/a	RESPONSE	n/a	n/a	n/a	n/a	n/a	n/a	n/a	blue
160.6059	1.0	ITI	n/a	n/a	n/a	n/a	n/a	n/a	n/a	n/a
161.6059	0.5	FIXCROSS	n/a	n/a	n/a	n/a	n/a	n/a	n/a	n/a
162.1059	0.85	INK	55	Incongruent	niebieski	blue	zielony	green	hit	n/a
162.9469	n/a	RESPONSE	n/a	n/a	n/a	n/a	n/a	n/a	n/a	green
162.9559	1.0	ITI	n/a	n/a	n/a	n/a	n/a	n/a	n/a	n/a
163.9559	0.5	FIXCROSS	n/a	n/a	n/a	n/a	n/a	n/a	n/a	n/a
164.4559	0.7166	INK	56	Neutral	xxxxxxx	xxxxxxx	żółty	yellow	hit	n/a
165.1693	n/a	RESPONSE	n/a	n/a	n/a	n/a	n/a	n/a	n/a	yellow
165.1725	1.0	ITI	n/a	n/a	n/a	n/a	n/a	n/a	n/a	n/a
166.1725	0.5	FIXCROSS	n/a	n/a	n/a	n/a	n/a	n/a	n/a	n/a
166.6725	0.6167	INK	57	Incongruent	niebieski	blue	zielony	green	hit	n/a
167.2799	n/a	RESPONSE	n/a	n/a	n/a	n/a	n/a	n/a	n/a	green
167.2891	1.0	ITI	n/a	n/a	n/a	n/a	n/a	n/a	n/a	n/a
168.2891	0.5	FIXCROSS	n/a	n/a	n/a	n/a	n/a	n/a	n/a	n/a
168.7891	0.5667	INK	58	Incongruent	niebieski	blue	czerwony	red	hit	n/a
169.3425	n/a	RESPONSE	n/a	n/a	n/a	n/a	n/a	n/a	n/a	red
169.3558	1.0	ITI	n/a	n/a	n/a	n/a	n/a	n/a	n/a	n/a
170.3558	0.5	FIXCROSS	n/a	n/a	n/a	n/a	n/a	n/a	n/a	n/a
170.8557	0.4833	INK	59	Neutral	xxxxxxxxx	xxxxxxxxx	czerwony	red	hit	n/a
171.3253	n/a	RESPONSE	n/a	n/a	n/a	n/a	n/a	n/a	n/a	red
171.3391	1.0	ITI	n/a	n/a	n/a	n/a	n/a	n/a	n/a	n/a
172.3391	0.5	FIXCROSS	n/a	n/a	n/a	n/a	n/a	n/a	n/a	n/a
172.839	0.7666	INK	60	Incongruent	niebieski	blue	żółty	yellow	hit	n/a
173.5958	n/a	RESPONSE	n/a	n/a	n/a	n/a	n/a	n/a	n/a	yellow
173.6057	1.0	ITI	n/a	n/a	n/a	n/a	n/a	n/a	n/a	n/a
174.6057	0.5	FIXCROSS	n/a	n/a	n/a	n/a	n/a	n/a	n/a	n/a
175.1057	0.65	INK	61	Neutral	xxxxxxxxx	xxxxxxxxx	zielony	green	incorrect	n/a
175.7382	n/a	RESPONSE	n/a	n/a	n/a	n/a	n/a	n/a	n/a	red
175.7557	1.0	ITI	n/a	n/a	n/a	n/a	n/a	n/a	n/a	n/a
176.7556	0.5	FIXCROSS	n/a	n/a	n/a	n/a	n/a	n/a	n/a	n/a
177.2556	1.4333	INK	62	Incongruent	zielony	green	żółty	yellow	hit	n/a
178.6802	n/a	RESPONSE	n/a	n/a	n/a	n/a	n/a	n/a	n/a	yellow
178.6889	1.0	ITI	n/a	n/a	n/a	n/a	n/a	n/a	n/a	n/a
179.6889	0.5	FIXCROSS	n/a	n/a	n/a	n/a	n/a	n/a	n/a	n/a
180.1889	0.7667	INK	63	Neutral	xxxxxxxxx	xxxxxxxxx	czerwony	red	hit	n/a
180.9508	n/a	RESPONSE	n/a	n/a	n/a	n/a	n/a	n/a	n/a	red
180.9556	1.0	ITI	n/a	n/a	n/a	n/a	n/a	n/a	n/a	n/a
181.1426	n/a	RESPONSE	n/a	n/a	n/a	n/a	n/a	n/a	n/a	red
181.9555	0.5	FIXCROSS	n/a	n/a	n/a	n/a	n/a	n/a	n/a	n/a
182.4555	0.5833	INK	64	Neutral	xxxxxxx	xxxxxxx	czerwony	red	hit	n/a
183.0293	n/a	RESPONSE	n/a	n/a	n/a	n/a	n/a	n/a	n/a	red
183.0389	1.0	ITI	n/a	n/a	n/a	n/a	n/a	n/a	n/a	n/a
183.2052	n/a	RESPONSE	n/a	n/a	n/a	n/a	n/a	n/a	n/a	red
184.0388	0.5	FIXCROSS	n/a	n/a	n/a	n/a	n/a	n/a	n/a	n/a
184.5388	0.8	INK	65	Neutral	xxxxxxxx	xxxxxxxx	żółty	yellow	hit	n/a
185.3318	n/a	RESPONSE	n/a	n/a	n/a	n/a	n/a	n/a	n/a	yellow
185.3388	1.0	ITI	n/a	n/a	n/a	n/a	n/a	n/a	n/a	n/a
186.3388	0.5	FIXCROSS	n/a	n/a	n/a	n/a	n/a	n/a	n/a	n/a
186.8388	0.9	INK	66	Incongruent	zielony	green	czerwony	red	hit	n/a
187.7302	n/a	RESPONSE	n/a	n/a	n/a	n/a	n/a	n/a	n/a	red
187.7388	1.0	ITI	n/a	n/a	n/a	n/a	n/a	n/a	n/a	n/a
188.7388	0.5	FIXCROSS	n/a	n/a	n/a	n/a	n/a	n/a	n/a	n/a
189.2388	0.6667	INK	67	Neutral	xxxxxxxx	xxxxxxxx	żółty	yellow	hit	n/a
189.8888	n/a	RESPONSE	n/a	n/a	n/a	n/a	n/a	n/a	n/a	yellow
189.9054	1.0	ITI	n/a	n/a	n/a	n/a	n/a	n/a	n/a	n/a
190.9054	0.5	FIXCROSS	n/a	n/a	n/a	n/a	n/a	n/a	n/a	n/a
191.4054	0.7167	INK	68	Incongruent	zielony	green	niebieski	blue	hit	n/a
192.1113	n/a	RESPONSE	n/a	n/a	n/a	n/a	n/a	n/a	n/a	blue
192.122	1.0	ITI	n/a	n/a	n/a	n/a	n/a	n/a	n/a	n/a
193.122	0.5	FIXCROSS	n/a	n/a	n/a	n/a	n/a	n/a	n/a	n/a
193.622	0.7167	INK	69	Neutral	xxxxxxxx	xxxxxxxx	żółty	yellow	hit	n/a
194.3338	n/a	RESPONSE	n/a	n/a	n/a	n/a	n/a	n/a	n/a	yellow
194.3387	1.0	ITI	n/a	n/a	n/a	n/a	n/a	n/a	n/a	n/a
195.3386	0.5	FIXCROSS	n/a	n/a	n/a	n/a	n/a	n/a	n/a	n/a
195.8386	0.75	INK	70	Incongruent	żółty	yellow	niebieski	blue	hit	n/a
196.5724	n/a	RESPONSE	n/a	n/a	n/a	n/a	n/a	n/a	n/a	blue
196.5886	1.0	ITI	n/a	n/a	n/a	n/a	n/a	n/a	n/a	n/a
197.5886	0.5	FIXCROSS	n/a	n/a	n/a	n/a	n/a	n/a	n/a	n/a
198.0886	0.75	INK	71	Neutral	xxxxxxxxx	xxxxxxxxx	żółty	yellow	hit	n/a
198.8268	n/a	RESPONSE	n/a	n/a	n/a	n/a	n/a	n/a	n/a	yellow
198.8386	1.0	ITI	n/a	n/a	n/a	n/a	n/a	n/a	n/a	n/a
199.8386	0.5	FIXCROSS	n/a	n/a	n/a	n/a	n/a	n/a	n/a	n/a
200.3385	0.7833	INK	72	Incongruent	zielony	green	niebieski	blue	hit	n/a
201.1132	n/a	RESPONSE	n/a	n/a	n/a	n/a	n/a	n/a	n/a	blue
201.1219	1.0333	ITI	n/a	n/a	n/a	n/a	n/a	n/a	n/a	n/a
216.9267	n/a	RESPONSE	n/a	n/a	n/a	n/a	n/a	n/a	n/a	n/a
216.9549	0.9999	ITI	n/a	n/a	n/a	n/a	n/a	n/a	n/a	n/a
217.9549	0.5	FIXCROSS	n/a	n/a	n/a	n/a	n/a	n/a	n/a	n/a
218.4549	0.9667	T_COLOR_NAME	1	Neutral	czerwony	red	Neutral	Neutral	hit	n/a
219.405	n/a	RESPONSE	n/a	n/a	n/a	n/a	n/a	n/a	n/a	red
219.4215	0.5	FEEDBACK	n/a	n/a	n/a	n/a	n/a	n/a	n/a	n/a
219.9215	1.0	ITI	n/a	n/a	n/a	n/a	n/a	n/a	n/a	n/a
220.9215	0.5	FIXCROSS	n/a	n/a	n/a	n/a	n/a	n/a	n/a	n/a
221.4215	0.9833	T_COLOR_NAME	2	Incongruent	zielony	green	czerwony	red	hit	n/a
222.395	n/a	RESPONSE	n/a	n/a	n/a	n/a	n/a	n/a	n/a	green
222.4048	0.5	FEEDBACK	n/a	n/a	n/a	n/a	n/a	n/a	n/a	n/a
222.9048	1.0	ITI	n/a	n/a	n/a	n/a	n/a	n/a	n/a	n/a
223.9048	0.5	FIXCROSS	n/a	n/a	n/a	n/a	n/a	n/a	n/a	n/a
224.4048	0.85	T_COLOR_NAME	3	Incongruent	żółty	yellow	niebieski	blue	hit	n/a
225.2411	n/a	RESPONSE	n/a	n/a	n/a	n/a	n/a	n/a	n/a	yellow
225.2548	0.5	FEEDBACK	n/a	n/a	n/a	n/a	n/a	n/a	n/a	n/a
225.7548	1.0	ITI	n/a	n/a	n/a	n/a	n/a	n/a	n/a	n/a
226.7547	0.5	FIXCROSS	n/a	n/a	n/a	n/a	n/a	n/a	n/a	n/a
227.2547	0.7667	T_COLOR_NAME	4	Incongruent	zielony	green	żółty	yellow	hit	n/a
228.007	n/a	RESPONSE	n/a	n/a	n/a	n/a	n/a	n/a	n/a	green
228.0214	0.5	FEEDBACK	n/a	n/a	n/a	n/a	n/a	n/a	n/a	n/a
228.5214	1.0	ITI	n/a	n/a	n/a	n/a	n/a	n/a	n/a	n/a
229.5214	0.5	FIXCROSS	n/a	n/a	n/a	n/a	n/a	n/a	n/a	n/a
230.0214	0.7167	T_COLOR_NAME	5	Neutral	żółty	yellow	Neutral	Neutral	hit	n/a
230.7246	n/a	RESPONSE	n/a	n/a	n/a	n/a	n/a	n/a	n/a	yellow
230.738	0.5	FEEDBACK	n/a	n/a	n/a	n/a	n/a	n/a	n/a	n/a
231.238	1.0	ITI	n/a	n/a	n/a	n/a	n/a	n/a	n/a	n/a
232.238	0.5	FIXCROSS	n/a	n/a	n/a	n/a	n/a	n/a	n/a	n/a
232.738	0.5	T_COLOR_NAME	6	Neutral	żółty	yellow	Neutral	Neutral	hit	n/a
233.2186	n/a	RESPONSE	n/a	n/a	n/a	n/a	n/a	n/a	n/a	yellow
233.238	0.5	FEEDBACK	n/a	n/a	n/a	n/a	n/a	n/a	n/a	n/a
233.738	1.0	ITI	n/a	n/a	n/a	n/a	n/a	n/a	n/a	n/a
234.7379	0.5	FIXCROSS	n/a	n/a	n/a	n/a	n/a	n/a	n/a	n/a
235.2379	0.5833	T_COLOR_NAME	7	Neutral	żółty	yellow	Neutral	Neutral	hit	n/a
235.8085	n/a	RESPONSE	n/a	n/a	n/a	n/a	n/a	n/a	n/a	yellow
235.8213	0.5	FEEDBACK	n/a	n/a	n/a	n/a	n/a	n/a	n/a	n/a
236.3212	1.0	ITI	n/a	n/a	n/a	n/a	n/a	n/a	n/a	n/a
237.3212	0.5	FIXCROSS	n/a	n/a	n/a	n/a	n/a	n/a	n/a	n/a
237.8212	0.6166	T_COLOR_NAME	8	Neutral	zielony	green	Neutral	Neutral	hit	n/a
238.4305	n/a	RESPONSE	n/a	n/a	n/a	n/a	n/a	n/a	n/a	green
238.4379	0.5	FEEDBACK	n/a	n/a	n/a	n/a	n/a	n/a	n/a	n/a
238.9379	1.0	ITI	n/a	n/a	n/a	n/a	n/a	n/a	n/a	n/a
239.9378	0.5	FIXCROSS	n/a	n/a	n/a	n/a	n/a	n/a	n/a	n/a
240.4378	0.6	T_COLOR_NAME	9	Neutral	niebieski	blue	Neutral	Neutral	hit	n/a
241.0205	n/a	RESPONSE	n/a	n/a	n/a	n/a	n/a	n/a	n/a	blue
241.0378	0.5	FEEDBACK	n/a	n/a	n/a	n/a	n/a	n/a	n/a	n/a
241.5378	1.0	ITI	n/a	n/a	n/a	n/a	n/a	n/a	n/a	n/a
242.5378	0.5	FIXCROSS	n/a	n/a	n/a	n/a	n/a	n/a	n/a	n/a
243.0378	0.4167	T_COLOR_NAME	10	Neutral	niebieski	blue	Neutral	Neutral	hit	n/a
243.4347	n/a	RESPONSE	n/a	n/a	n/a	n/a	n/a	n/a	n/a	blue
243.4544	0.5	FEEDBACK	n/a	n/a	n/a	n/a	n/a	n/a	n/a	n/a
243.9544	1.0	ITI	n/a	n/a	n/a	n/a	n/a	n/a	n/a	n/a
244.9544	0.5	FIXCROSS	n/a	n/a	n/a	n/a	n/a	n/a	n/a	n/a
245.4544	0.6	T_COLOR_NAME	11	Incongruent	czerwony	red	niebieski	blue	hit	n/a
246.0407	n/a	RESPONSE	n/a	n/a	n/a	n/a	n/a	n/a	n/a	red
246.0544	0.5	FEEDBACK	n/a	n/a	n/a	n/a	n/a	n/a	n/a	n/a
246.5544	1.0	ITI	n/a	n/a	n/a	n/a	n/a	n/a	n/a	n/a
247.5544	0.5	FIXCROSS	n/a	n/a	n/a	n/a	n/a	n/a	n/a	n/a
248.0544	0.5	T_COLOR_NAME	12	Neutral	czerwony	red	Neutral	Neutral	hit	n/a
248.5349	n/a	RESPONSE	n/a	n/a	n/a	n/a	n/a	n/a	n/a	red
248.5544	0.5	FEEDBACK	n/a	n/a	n/a	n/a	n/a	n/a	n/a	n/a
249.0544	1.0	ITI	n/a	n/a	n/a	n/a	n/a	n/a	n/a	n/a
252.3241	n/a	RESPONSE	n/a	n/a	n/a	n/a	n/a	n/a	n/a	n/a
252.3543	1.0	ITI	n/a	n/a	n/a	n/a	n/a	n/a	n/a	n/a
253.3543	0.5	FIXCROSS	n/a	n/a	n/a	n/a	n/a	n/a	n/a	n/a
253.8543	0.7	COLOR_NAME	1	Neutral	niebieski	blue	Neutral	Neutral	hit	n/a
254.5464	n/a	RESPONSE	n/a	n/a	n/a	n/a	n/a	n/a	n/a	blue
254.5542	1.0	ITI	n/a	n/a	n/a	n/a	n/a	n/a	n/a	n/a
255.5542	0.5	FIXCROSS	n/a	n/a	n/a	n/a	n/a	n/a	n/a	n/a
256.0542	0.7666	COLOR_NAME	2	Neutral	żółty	yellow	Neutral	Neutral	hit	n/a
256.8007	n/a	RESPONSE	n/a	n/a	n/a	n/a	n/a	n/a	n/a	yellow
256.8209	1.0	ITI	n/a	n/a	n/a	n/a	n/a	n/a	n/a	n/a
257.8208	0.5	FIXCROSS	n/a	n/a	n/a	n/a	n/a	n/a	n/a	n/a
258.3209	0.6333	COLOR_NAME	3	Neutral	zielony	green	Neutral	Neutral	hit	n/a
258.943	n/a	RESPONSE	n/a	n/a	n/a	n/a	n/a	n/a	n/a	green
258.9542	1.0	ITI	n/a	n/a	n/a	n/a	n/a	n/a	n/a	n/a
259.9542	0.5	FIXCROSS	n/a	n/a	n/a	n/a	n/a	n/a	n/a	n/a
260.4541	0.55	COLOR_NAME	4	Neutral	niebieski	blue	Neutral	Neutral	hit	n/a
260.9895	n/a	RESPONSE	n/a	n/a	n/a	n/a	n/a	n/a	n/a	blue
261.0041	1.0	ITI	n/a	n/a	n/a	n/a	n/a	n/a	n/a	n/a
262.0041	0.5	FIXCROSS	n/a	n/a	n/a	n/a	n/a	n/a	n/a	n/a
262.5041	0.5833	COLOR_NAME	5	Neutral	czerwony	red	Neutral	Neutral	hit	n/a
263.068	n/a	RESPONSE	n/a	n/a	n/a	n/a	n/a	n/a	n/a	red
263.0874	1.0	ITI	n/a	n/a	n/a	n/a	n/a	n/a	n/a	n/a
264.0874	0.5	FIXCROSS	n/a	n/a	n/a	n/a	n/a	n/a	n/a	n/a
264.5874	0.85	COLOR_NAME	6	Incongruent	zielony	green	żółty	yellow	hit	n/a
265.4341	n/a	RESPONSE	n/a	n/a	n/a	n/a	n/a	n/a	n/a	green
265.4374	1.0	ITI	n/a	n/a	n/a	n/a	n/a	n/a	n/a	n/a
266.4374	0.5	FIXCROSS	n/a	n/a	n/a	n/a	n/a	n/a	n/a	n/a
266.9374	0.7	COLOR_NAME	7	Neutral	czerwony	red	Neutral	Neutral	hit	n/a
267.6244	n/a	RESPONSE	n/a	n/a	n/a	n/a	n/a	n/a	n/a	red
267.6374	1.0	ITI	n/a	n/a	n/a	n/a	n/a	n/a	n/a	n/a
268.6373	0.5	FIXCROSS	n/a	n/a	n/a	n/a	n/a	n/a	n/a	n/a
269.1373	0.8166	COLOR_NAME	8	Incongruent	czerwony	red	zielony	green	hit	n/a
269.9426	n/a	RESPONSE	n/a	n/a	n/a	n/a	n/a	n/a	n/a	red
269.954	1.0	ITI	n/a	n/a	n/a	n/a	n/a	n/a	n/a	n/a
270.954	0.5	FIXCROSS	n/a	n/a	n/a	n/a	n/a	n/a	n/a	n/a
271.4539	0.7	COLOR_NAME	9	Neutral	zielony	green	Neutral	Neutral	hit	n/a
272.1485	n/a	RESPONSE	n/a	n/a	n/a	n/a	n/a	n/a	n/a	green
272.1539	1.0	ITI	n/a	n/a	n/a	n/a	n/a	n/a	n/a	n/a
273.1539	0.5	FIXCROSS	n/a	n/a	n/a	n/a	n/a	n/a	n/a	n/a
273.6539	0.6667	COLOR_NAME	10	Incongruent	żółty	yellow	czerwony	red	hit	n/a
274.3068	n/a	RESPONSE	n/a	n/a	n/a	n/a	n/a	n/a	n/a	yellow
274.3206	1.0	ITI	n/a	n/a	n/a	n/a	n/a	n/a	n/a	n/a
275.3205	0.5	FIXCROSS	n/a	n/a	n/a	n/a	n/a	n/a	n/a	n/a
275.8205	0.6166	COLOR_NAME	11	Neutral	niebieski	blue	Neutral	Neutral	hit	n/a
276.4333	n/a	RESPONSE	n/a	n/a	n/a	n/a	n/a	n/a	n/a	blue
276.4372	0.9999	ITI	n/a	n/a	n/a	n/a	n/a	n/a	n/a	n/a
277.4371	0.5	FIXCROSS	n/a	n/a	n/a	n/a	n/a	n/a	n/a	n/a
277.9372	0.6833	COLOR_NAME	12	Neutral	zielony	green	Neutral	Neutral	hit	n/a
278.6075	n/a	RESPONSE	n/a	n/a	n/a	n/a	n/a	n/a	n/a	green
278.6205	1.0	ITI	n/a	n/a	n/a	n/a	n/a	n/a	n/a	n/a
279.6205	0.5	FIXCROSS	n/a	n/a	n/a	n/a	n/a	n/a	n/a	n/a
280.1205	0.5167	COLOR_NAME	13	Neutral	czerwony	red	Neutral	Neutral	hit	n/a
280.6219	n/a	RESPONSE	n/a	n/a	n/a	n/a	n/a	n/a	n/a	red
280.6371	1.0	ITI	n/a	n/a	n/a	n/a	n/a	n/a	n/a	n/a
281.6371	0.5	FIXCROSS	n/a	n/a	n/a	n/a	n/a	n/a	n/a	n/a
282.1371	0.5833	COLOR_NAME	14	Neutral	niebieski	blue	Neutral	Neutral	hit	n/a
282.7162	n/a	RESPONSE	n/a	n/a	n/a	n/a	n/a	n/a	n/a	blue
282.7204	1.0	ITI	n/a	n/a	n/a	n/a	n/a	n/a	n/a	n/a
283.7204	0.5	FIXCROSS	n/a	n/a	n/a	n/a	n/a	n/a	n/a	n/a
284.2204	0.6167	COLOR_NAME	15	Incongruent	czerwony	red	niebieski	blue	hit	n/a
284.8266	n/a	RESPONSE	n/a	n/a	n/a	n/a	n/a	n/a	n/a	red
284.837	1.0	ITI	n/a	n/a	n/a	n/a	n/a	n/a	n/a	n/a
285.837	0.5	FIXCROSS	n/a	n/a	n/a	n/a	n/a	n/a	n/a	n/a
286.337	0.55	COLOR_NAME	16	Incongruent	czerwony	red	zielony	green	hit	n/a
286.8729	n/a	RESPONSE	n/a	n/a	n/a	n/a	n/a	n/a	n/a	red
286.887	1.0	ITI	n/a	n/a	n/a	n/a	n/a	n/a	n/a	n/a
287.887	0.5	FIXCROSS	n/a	n/a	n/a	n/a	n/a	n/a	n/a	n/a
288.387	1.0667	COLOR_NAME	17	Incongruent	zielony	green	żółty	yellow	hit	n/a
289.4469	n/a	RESPONSE	n/a	n/a	n/a	n/a	n/a	n/a	n/a	green
289.4536	1.0	ITI	n/a	n/a	n/a	n/a	n/a	n/a	n/a	n/a
290.4536	0.5	FIXCROSS	n/a	n/a	n/a	n/a	n/a	n/a	n/a	n/a
290.9536	0.6333	COLOR_NAME	18	Neutral	czerwony	red	Neutral	Neutral	hit	n/a
291.5733	n/a	RESPONSE	n/a	n/a	n/a	n/a	n/a	n/a	n/a	red
291.5869	1.0	ITI	n/a	n/a	n/a	n/a	n/a	n/a	n/a	n/a
292.5869	0.5	FIXCROSS	n/a	n/a	n/a	n/a	n/a	n/a	n/a	n/a
293.0869	0.85	COLOR_NAME	19	Neutral	żółty	yellow	Neutral	Neutral	hit	n/a
293.9236	n/a	RESPONSE	n/a	n/a	n/a	n/a	n/a	n/a	n/a	yellow
293.9369	1.0	ITI	n/a	n/a	n/a	n/a	n/a	n/a	n/a	n/a
294.9369	0.5	FIXCROSS	n/a	n/a	n/a	n/a	n/a	n/a	n/a	n/a
295.4369	0.8667	COLOR_NAME	20	Incongruent	niebieski	blue	żółty	yellow	hit	n/a
296.2899	n/a	RESPONSE	n/a	n/a	n/a	n/a	n/a	n/a	n/a	blue
296.3035	1.0	ITI	n/a	n/a	n/a	n/a	n/a	n/a	n/a	n/a
297.3035	0.5	FIXCROSS	n/a	n/a	n/a	n/a	n/a	n/a	n/a	n/a
297.8035	0.8166	COLOR_NAME	21	Neutral	żółty	yellow	Neutral	Neutral	hit	n/a
298.6084	n/a	RESPONSE	n/a	n/a	n/a	n/a	n/a	n/a	n/a	yellow
298.6201	1.0	ITI	n/a	n/a	n/a	n/a	n/a	n/a	n/a	n/a
299.6201	0.5	FIXCROSS	n/a	n/a	n/a	n/a	n/a	n/a	n/a	n/a
300.1201	0.65	COLOR_NAME	22	Neutral	żółty	yellow	Neutral	Neutral	hit	n/a
300.7669	n/a	RESPONSE	n/a	n/a	n/a	n/a	n/a	n/a	n/a	yellow
300.7701	1.0	ITI	n/a	n/a	n/a	n/a	n/a	n/a	n/a	n/a
301.7701	0.5	FIXCROSS	n/a	n/a	n/a	n/a	n/a	n/a	n/a	n/a
302.2701	0.6833	COLOR_NAME	23	Incongruent	czerwony	red	żółty	yellow	hit	n/a
302.9415	n/a	RESPONSE	n/a	n/a	n/a	n/a	n/a	n/a	n/a	red
302.9534	1.0	ITI	n/a	n/a	n/a	n/a	n/a	n/a	n/a	n/a
303.9534	0.5	FIXCROSS	n/a	n/a	n/a	n/a	n/a	n/a	n/a	n/a
304.4534	0.6	COLOR_NAME	24	Incongruent	czerwony	red	niebieski	blue	hit	n/a
305.0361	n/a	RESPONSE	n/a	n/a	n/a	n/a	n/a	n/a	n/a	red
305.0534	1.0	ITI	n/a	n/a	n/a	n/a	n/a	n/a	n/a	n/a
306.0533	0.5	FIXCROSS	n/a	n/a	n/a	n/a	n/a	n/a	n/a	n/a
306.5533	0.8666	COLOR_NAME	25	Incongruent	zielony	green	żółty	yellow	hit	n/a
307.4025	n/a	RESPONSE	n/a	n/a	n/a	n/a	n/a	n/a	n/a	green
307.42	1.0	ITI	n/a	n/a	n/a	n/a	n/a	n/a	n/a	n/a
308.42	0.5	FIXCROSS	n/a	n/a	n/a	n/a	n/a	n/a	n/a	n/a
308.92	0.8833	COLOR_NAME	26	Neutral	niebieski	blue	Neutral	Neutral	hit	n/a
309.7849	n/a	RESPONSE	n/a	n/a	n/a	n/a	n/a	n/a	n/a	blue
309.8033	1.0	ITI	n/a	n/a	n/a	n/a	n/a	n/a	n/a	n/a
310.8033	0.5	FIXCROSS	n/a	n/a	n/a	n/a	n/a	n/a	n/a	n/a
311.3032	0.7	COLOR_NAME	27	Incongruent	niebieski	blue	żółty	yellow	hit	n/a
311.9915	n/a	RESPONSE	n/a	n/a	n/a	n/a	n/a	n/a	n/a	blue
312.0032	1.0	ITI	n/a	n/a	n/a	n/a	n/a	n/a	n/a	n/a
313.0032	0.5	FIXCROSS	n/a	n/a	n/a	n/a	n/a	n/a	n/a	n/a
313.5032	0.7666	COLOR_NAME	28	Neutral	czerwony	red	Neutral	Neutral	hit	n/a
314.2619	n/a	RESPONSE	n/a	n/a	n/a	n/a	n/a	n/a	n/a	red
314.2698	1.0	ITI	n/a	n/a	n/a	n/a	n/a	n/a	n/a	n/a
315.2698	0.5	FIXCROSS	n/a	n/a	n/a	n/a	n/a	n/a	n/a	n/a
315.7698	0.6833	COLOR_NAME	29	Incongruent	czerwony	red	żółty	yellow	hit	n/a
316.4364	n/a	RESPONSE	n/a	n/a	n/a	n/a	n/a	n/a	n/a	red
316.4531	1.0	ITI	n/a	n/a	n/a	n/a	n/a	n/a	n/a	n/a
317.4531	0.5	FIXCROSS	n/a	n/a	n/a	n/a	n/a	n/a	n/a	n/a
317.9531	0.9	COLOR_NAME	30	Incongruent	zielony	green	czerwony	red	hit	n/a
318.8349	n/a	RESPONSE	n/a	n/a	n/a	n/a	n/a	n/a	n/a	green
318.8531	1.0	ITI	n/a	n/a	n/a	n/a	n/a	n/a	n/a	n/a
319.8531	0.5	FIXCROSS	n/a	n/a	n/a	n/a	n/a	n/a	n/a	n/a
320.3531	0.6666	COLOR_NAME	31	Neutral	niebieski	blue	Neutral	Neutral	hit	n/a
321.0094	n/a	RESPONSE	n/a	n/a	n/a	n/a	n/a	n/a	n/a	blue
321.0197	1.0	ITI	n/a	n/a	n/a	n/a	n/a	n/a	n/a	n/a
322.0197	0.5	FIXCROSS	n/a	n/a	n/a	n/a	n/a	n/a	n/a	n/a
322.5197	0.85	COLOR_NAME	32	Incongruent	żółty	yellow	czerwony	red	hit	n/a
323.3599	n/a	RESPONSE	n/a	n/a	n/a	n/a	n/a	n/a	n/a	yellow
323.3697	1.0	ITI	n/a	n/a	n/a	n/a	n/a	n/a	n/a	n/a
324.3697	0.5	FIXCROSS	n/a	n/a	n/a	n/a	n/a	n/a	n/a	n/a
324.8697	0.7166	COLOR_NAME	33	Neutral	niebieski	blue	Neutral	Neutral	hit	n/a
325.5823	n/a	RESPONSE	n/a	n/a	n/a	n/a	n/a	n/a	n/a	blue
325.5863	1.0	ITI	n/a	n/a	n/a	n/a	n/a	n/a	n/a	n/a
326.5863	0.5	FIXCROSS	n/a	n/a	n/a	n/a	n/a	n/a	n/a	n/a
327.0863	0.65	COLOR_NAME	34	Neutral	czerwony	red	Neutral	Neutral	hit	n/a
327.7248	n/a	RESPONSE	n/a	n/a	n/a	n/a	n/a	n/a	n/a	red
327.7363	1.0	ITI	n/a	n/a	n/a	n/a	n/a	n/a	n/a	n/a
328.7363	0.5	FIXCROSS	n/a	n/a	n/a	n/a	n/a	n/a	n/a	n/a
329.2363	0.6833	COLOR_NAME	35	Neutral	żółty	yellow	Neutral	Neutral	hit	n/a
329.9153	n/a	RESPONSE	n/a	n/a	n/a	n/a	n/a	n/a	n/a	yellow
329.9196	1.0	ITI	n/a	n/a	n/a	n/a	n/a	n/a	n/a	n/a
330.9196	0.5	FIXCROSS	n/a	n/a	n/a	n/a	n/a	n/a	n/a	n/a
331.4195	0.65	COLOR_NAME	36	Incongruent	czerwony	red	zielony	green	hit	n/a
332.058	n/a	RESPONSE	n/a	n/a	n/a	n/a	n/a	n/a	n/a	red
332.0695	1.0	ITI	n/a	n/a	n/a	n/a	n/a	n/a	n/a	n/a
333.0695	0.5	FIXCROSS	n/a	n/a	n/a	n/a	n/a	n/a	n/a	n/a
333.5695	0.8166	COLOR_NAME	37	Incongruent	zielony	green	czerwony	red	hit	n/a
334.3763	n/a	RESPONSE	n/a	n/a	n/a	n/a	n/a	n/a	n/a	green
334.3862	1.0	ITI	n/a	n/a	n/a	n/a	n/a	n/a	n/a	n/a
335.3861	0.5	FIXCROSS	n/a	n/a	n/a	n/a	n/a	n/a	n/a	n/a
335.8861	0.5667	COLOR_NAME	38	Neutral	zielony	green	Neutral	Neutral	hit	n/a
336.4389	n/a	RESPONSE	n/a	n/a	n/a	n/a	n/a	n/a	n/a	green
336.4528	1.0	ITI	n/a	n/a	n/a	n/a	n/a	n/a	n/a	n/a
337.4528	0.5	FIXCROSS	n/a	n/a	n/a	n/a	n/a	n/a	n/a	n/a
337.9528	0.5333	COLOR_NAME	39	Incongruent	zielony	green	niebieski	blue	hit	n/a
338.4695	n/a	RESPONSE	n/a	n/a	n/a	n/a	n/a	n/a	n/a	green
338.4861	1.0	ITI	n/a	n/a	n/a	n/a	n/a	n/a	n/a	n/a
339.4861	0.5	FIXCROSS	n/a	n/a	n/a	n/a	n/a	n/a	n/a	n/a
339.9861	0.5	COLOR_NAME	40	Incongruent	czerwony	red	niebieski	blue	hit	n/a
340.4682	n/a	RESPONSE	n/a	n/a	n/a	n/a	n/a	n/a	n/a	red
340.4861	1.0	ITI	n/a	n/a	n/a	n/a	n/a	n/a	n/a	n/a
341.486	0.5	FIXCROSS	n/a	n/a	n/a	n/a	n/a	n/a	n/a	n/a
341.986	0.9333	COLOR_NAME	41	Incongruent	żółty	yellow	zielony	green	hit	n/a
342.9147	n/a	RESPONSE	n/a	n/a	n/a	n/a	n/a	n/a	n/a	yellow
342.9193	1.0	ITI	n/a	n/a	n/a	n/a	n/a	n/a	n/a	n/a
343.9193	0.5	FIXCROSS	n/a	n/a	n/a	n/a	n/a	n/a	n/a	n/a
344.4193	0.7167	COLOR_NAME	42	Incongruent	niebieski	blue	czerwony	red	hit	n/a
345.1211	n/a	RESPONSE	n/a	n/a	n/a	n/a	n/a	n/a	n/a	blue
345.136	1.0	ITI	n/a	n/a	n/a	n/a	n/a	n/a	n/a	n/a
346.1359	0.5	FIXCROSS	n/a	n/a	n/a	n/a	n/a	n/a	n/a	n/a
346.6359	0.7833	COLOR_NAME	43	Incongruent	zielony	green	niebieski	blue	hit	n/a
347.4076	n/a	RESPONSE	n/a	n/a	n/a	n/a	n/a	n/a	n/a	green
347.4193	1.0	ITI	n/a	n/a	n/a	n/a	n/a	n/a	n/a	n/a
348.4192	0.5	FIXCROSS	n/a	n/a	n/a	n/a	n/a	n/a	n/a	n/a
348.9192	0.6167	COLOR_NAME	44	Neutral	zielony	green	Neutral	Neutral	hit	n/a
349.5181	n/a	RESPONSE	n/a	n/a	n/a	n/a	n/a	n/a	n/a	green
349.5359	1.0	ITI	n/a	n/a	n/a	n/a	n/a	n/a	n/a	n/a
350.5359	0.5	FIXCROSS	n/a	n/a	n/a	n/a	n/a	n/a	n/a	n/a
351.0359	0.65	COLOR_NAME	45	Incongruent	żółty	yellow	zielony	green	hit	n/a
351.6767	n/a	RESPONSE	n/a	n/a	n/a	n/a	n/a	n/a	n/a	yellow
351.6859	1.0	ITI	n/a	n/a	n/a	n/a	n/a	n/a	n/a	n/a
352.6858	0.5	FIXCROSS	n/a	n/a	n/a	n/a	n/a	n/a	n/a	n/a
353.1858	0.5	COLOR_NAME	46	Neutral	żółty	yellow	Neutral	Neutral	hit	n/a
353.6753	n/a	RESPONSE	n/a	n/a	n/a	n/a	n/a	n/a	n/a	yellow
353.6858	1.0	ITI	n/a	n/a	n/a	n/a	n/a	n/a	n/a	n/a
354.6858	0.5	FIXCROSS	n/a	n/a	n/a	n/a	n/a	n/a	n/a	n/a
355.1858	0.6833	COLOR_NAME	47	Incongruent	żółty	yellow	niebieski	blue	hit	n/a
355.8499	n/a	RESPONSE	n/a	n/a	n/a	n/a	n/a	n/a	n/a	yellow
355.8691	1.0	ITI	n/a	n/a	n/a	n/a	n/a	n/a	n/a	n/a
356.8691	0.5	FIXCROSS	n/a	n/a	n/a	n/a	n/a	n/a	n/a	n/a
357.3691	0.6167	COLOR_NAME	48	Incongruent	zielony	green	niebieski	blue	hit	n/a
357.9764	n/a	RESPONSE	n/a	n/a	n/a	n/a	n/a	n/a	n/a	green
357.9857	1.0	ITI	n/a	n/a	n/a	n/a	n/a	n/a	n/a	n/a
358.9857	0.5	FIXCROSS	n/a	n/a	n/a	n/a	n/a	n/a	n/a	n/a
359.4857	0.6333	COLOR_NAME	49	Incongruent	żółty	yellow	zielony	green	hit	n/a
360.103	n/a	RESPONSE	n/a	n/a	n/a	n/a	n/a	n/a	n/a	yellow
360.119	1.0	ITI	n/a	n/a	n/a	n/a	n/a	n/a	n/a	n/a
361.119	0.5	FIXCROSS	n/a	n/a	n/a	n/a	n/a	n/a	n/a	n/a
361.619	0.6	COLOR_NAME	50	Neutral	zielony	green	Neutral	Neutral	hit	n/a
362.2136	n/a	RESPONSE	n/a	n/a	n/a	n/a	n/a	n/a	n/a	green
362.219	1.0	ITI	n/a	n/a	n/a	n/a	n/a	n/a	n/a	n/a
363.219	0.5	FIXCROSS	n/a	n/a	n/a	n/a	n/a	n/a	n/a	n/a
363.719	0.6666	COLOR_NAME	51	Incongruent	zielony	green	czerwony	red	hit	n/a
364.3721	n/a	RESPONSE	n/a	n/a	n/a	n/a	n/a	n/a	n/a	green
364.3856	1.0	ITI	n/a	n/a	n/a	n/a	n/a	n/a	n/a	n/a
365.3856	0.5	FIXCROSS	n/a	n/a	n/a	n/a	n/a	n/a	n/a	n/a
365.8856	0.8167	COLOR_NAME	52	Neutral	niebieski	blue	Neutral	Neutral	hit	n/a
366.6906	n/a	RESPONSE	n/a	n/a	n/a	n/a	n/a	n/a	n/a	blue
366.7023	1.0	ITI	n/a	n/a	n/a	n/a	n/a	n/a	n/a	n/a
367.7022	0.5	FIXCROSS	n/a	n/a	n/a	n/a	n/a	n/a	n/a	n/a
368.2022	0.5333	COLOR_NAME	53	Neutral	czerwony	red	Neutral	Neutral	hit	n/a
368.7212	n/a	RESPONSE	n/a	n/a	n/a	n/a	n/a	n/a	n/a	red
368.7355	1.0	ITI	n/a	n/a	n/a	n/a	n/a	n/a	n/a	n/a
369.7355	0.5	FIXCROSS	n/a	n/a	n/a	n/a	n/a	n/a	n/a	n/a
370.2355	0.9333	COLOR_NAME	54	Neutral	żółty	yellow	Neutral	Neutral	hit	n/a
371.1517	n/a	RESPONSE	n/a	n/a	n/a	n/a	n/a	n/a	n/a	yellow
371.1688	1.0	ITI	n/a	n/a	n/a	n/a	n/a	n/a	n/a	n/a
372.1688	0.5	FIXCROSS	n/a	n/a	n/a	n/a	n/a	n/a	n/a	n/a
372.6688	0.6	COLOR_NAME	55	Neutral	żółty	yellow	Neutral	Neutral	hit	n/a
373.2622	n/a	RESPONSE	n/a	n/a	n/a	n/a	n/a	n/a	n/a	yellow
373.2688	1.0	ITI	n/a	n/a	n/a	n/a	n/a	n/a	n/a	n/a
374.2688	0.5	FIXCROSS	n/a	n/a	n/a	n/a	n/a	n/a	n/a	n/a
374.7688	0.5167	COLOR_NAME	56	Neutral	żółty	yellow	Neutral	Neutral	hit	n/a
375.2768	n/a	RESPONSE	n/a	n/a	n/a	n/a	n/a	n/a	n/a	yellow
375.2854	1.0	ITI	n/a	n/a	n/a	n/a	n/a	n/a	n/a	n/a
376.2854	0.5	FIXCROSS	n/a	n/a	n/a	n/a	n/a	n/a	n/a	n/a
376.7854	0.6167	COLOR_NAME	57	Neutral	zielony	green	Neutral	Neutral	hit	n/a
377.3874	n/a	RESPONSE	n/a	n/a	n/a	n/a	n/a	n/a	n/a	green
377.4021	1.0	ITI	n/a	n/a	n/a	n/a	n/a	n/a	n/a	n/a
378.402	0.5	FIXCROSS	n/a	n/a	n/a	n/a	n/a	n/a	n/a	n/a
378.902	0.6667	COLOR_NAME	58	Incongruent	niebieski	blue	zielony	green	hit	n/a
379.562	n/a	RESPONSE	n/a	n/a	n/a	n/a	n/a	n/a	n/a	blue
379.5687	1.0	ITI	n/a	n/a	n/a	n/a	n/a	n/a	n/a	n/a
380.5687	0.5	FIXCROSS	n/a	n/a	n/a	n/a	n/a	n/a	n/a	n/a
381.0687	0.65	COLOR_NAME	59	Incongruent	niebieski	blue	żółty	yellow	hit	n/a
381.7046	n/a	RESPONSE	n/a	n/a	n/a	n/a	n/a	n/a	n/a	blue
381.7187	1.0	ITI	n/a	n/a	n/a	n/a	n/a	n/a	n/a	n/a
382.7186	0.5	FIXCROSS	n/a	n/a	n/a	n/a	n/a	n/a	n/a	n/a
383.2186	0.6667	COLOR_NAME	60	Neutral	zielony	green	Neutral	Neutral	hit	n/a
383.8791	n/a	RESPONSE	n/a	n/a	n/a	n/a	n/a	n/a	n/a	green
383.8853	1.0	ITI	n/a	n/a	n/a	n/a	n/a	n/a	n/a	n/a
384.8853	0.5	FIXCROSS	n/a	n/a	n/a	n/a	n/a	n/a	n/a	n/a
385.3853	0.5667	COLOR_NAME	61	Neutral	czerwony	red	Neutral	Neutral	hit	n/a
385.9417	n/a	RESPONSE	n/a	n/a	n/a	n/a	n/a	n/a	n/a	red
385.9519	1.0	ITI	n/a	n/a	n/a	n/a	n/a	n/a	n/a	n/a
386.9519	0.5	FIXCROSS	n/a	n/a	n/a	n/a	n/a	n/a	n/a	n/a
387.4519	0.9167	COLOR_NAME	62	Incongruent	żółty	yellow	niebieski	blue	hit	n/a
388.3561	n/a	RESPONSE	n/a	n/a	n/a	n/a	n/a	n/a	n/a	yellow
388.3685	1.0	ITI	n/a	n/a	n/a	n/a	n/a	n/a	n/a	n/a
389.3685	0.5	FIXCROSS	n/a	n/a	n/a	n/a	n/a	n/a	n/a	n/a
389.8685	0.7667	COLOR_NAME	63	Incongruent	niebieski	blue	zielony	green	hit	n/a
390.6266	n/a	RESPONSE	n/a	n/a	n/a	n/a	n/a	n/a	n/a	blue
390.6352	1.0	ITI	n/a	n/a	n/a	n/a	n/a	n/a	n/a	n/a
391.6351	0.5	FIXCROSS	n/a	n/a	n/a	n/a	n/a	n/a	n/a	n/a
392.1351	0.9667	COLOR_NAME	64	Neutral	czerwony	red	Neutral	Neutral	hit	n/a
393.0889	n/a	RESPONSE	n/a	n/a	n/a	n/a	n/a	n/a	n/a	red
393.1018	1.0	ITI	n/a	n/a	n/a	n/a	n/a	n/a	n/a	n/a
394.1018	0.5	FIXCROSS	n/a	n/a	n/a	n/a	n/a	n/a	n/a	n/a
394.6018	0.7833	COLOR_NAME	65	Incongruent	żółty	yellow	niebieski	blue	hit	n/a
395.3753	n/a	RESPONSE	n/a	n/a	n/a	n/a	n/a	n/a	n/a	yellow
395.3851	1.0	ITI	n/a	n/a	n/a	n/a	n/a	n/a	n/a	n/a
396.385	0.5	FIXCROSS	n/a	n/a	n/a	n/a	n/a	n/a	n/a	n/a
396.885	0.8333	COLOR_NAME	66	Incongruent	czerwony	red	żółty	yellow	hit	n/a
397.7098	n/a	RESPONSE	n/a	n/a	n/a	n/a	n/a	n/a	n/a	red
397.7184	1.0	ITI	n/a	n/a	n/a	n/a	n/a	n/a	n/a	n/a
398.7183	0.5	FIXCROSS	n/a	n/a	n/a	n/a	n/a	n/a	n/a	n/a
399.2183	0.7333	COLOR_NAME	67	Incongruent	niebieski	blue	czerwony	red	hit	n/a
399.9322	n/a	RESPONSE	n/a	n/a	n/a	n/a	n/a	n/a	n/a	blue
399.9517	1.0	ITI	n/a	n/a	n/a	n/a	n/a	n/a	n/a	n/a
400.9516	0.5	FIXCROSS	n/a	n/a	n/a	n/a	n/a	n/a	n/a	n/a
401.4516	0.5833	COLOR_NAME	68	Neutral	niebieski	blue	Neutral	Neutral	hit	n/a
402.0269	n/a	RESPONSE	n/a	n/a	n/a	n/a	n/a	n/a	n/a	blue
402.035	1.0	ITI	n/a	n/a	n/a	n/a	n/a	n/a	n/a	n/a
403.0349	0.5	FIXCROSS	n/a	n/a	n/a	n/a	n/a	n/a	n/a	n/a
403.5349	0.6833	COLOR_NAME	69	Incongruent	żółty	yellow	czerwony	red	hit	n/a
404.2015	n/a	RESPONSE	n/a	n/a	n/a	n/a	n/a	n/a	n/a	yellow
404.2183	1.0	ITI	n/a	n/a	n/a	n/a	n/a	n/a	n/a	n/a
405.2182	0.5	FIXCROSS	n/a	n/a	n/a	n/a	n/a	n/a	n/a	n/a
405.7182	0.6833	COLOR_NAME	70	Incongruent	niebieski	blue	zielony	green	hit	n/a
406.392	n/a	RESPONSE	n/a	n/a	n/a	n/a	n/a	n/a	n/a	blue
406.4016	1.0	ITI	n/a	n/a	n/a	n/a	n/a	n/a	n/a	n/a
407.4015	0.5	FIXCROSS	n/a	n/a	n/a	n/a	n/a	n/a	n/a	n/a
407.9015	0.5667	COLOR_NAME	71	Incongruent	niebieski	blue	czerwony	red	hit	n/a
408.4546	n/a	RESPONSE	n/a	n/a	n/a	n/a	n/a	n/a	n/a	blue
408.4682	1.0	ITI	n/a	n/a	n/a	n/a	n/a	n/a	n/a	n/a
409.4682	0.5	FIXCROSS	n/a	n/a	n/a	n/a	n/a	n/a	n/a	n/a
409.9682	0.9166	COLOR_NAME	72	Neutral	zielony	green	Neutral	Neutral	hit	n/a
410.869	n/a	RESPONSE	n/a	n/a	n/a	n/a	n/a	n/a	n/a	green
410.8848	1.0167	ITI	n/a	n/a	n/a	n/a	n/a	n/a	n/a	n/a
414.2587	n/a	RESPONSE	n/a	n/a	n/a	n/a	n/a	n/a	n/a	n/a
