onset	duration	trial_type	trial_number	stroop_condition	stim_text(PL)	stim_text(eng)	stim_color(PL)	stim_color(eng)	response_type	response_color
0.0	n/a	RESPONSE	n/a	n/a	n/a	n/a	n/a	n/a	n/a	n/a
0.0282	1.0167	ITI	n/a	n/a	n/a	n/a	n/a	n/a	n/a	n/a
1.0449	0.5	FIXCROSS	n/a	n/a	n/a	n/a	n/a	n/a	n/a	n/a
1.5449	2.05	T_INK	1	Incongruent	czerwony	red	żółty	yellow	hit	n/a
3.5832	n/a	RESPONSE	n/a	n/a	n/a	n/a	n/a	n/a	n/a	yellow
3.5949	0.5167	FEEDBACK	n/a	n/a	n/a	n/a	n/a	n/a	n/a	n/a
4.1116	1.0167	ITI	n/a	n/a	n/a	n/a	n/a	n/a	n/a	n/a
5.1283	0.5167	FIXCROSS	n/a	n/a	n/a	n/a	n/a	n/a	n/a	n/a
5.6449	1.05	T_INK	2	Neutral	xxxxxxx	xxxxxxx	czerwony	red	hit	n/a
6.6705	n/a	RESPONSE	n/a	n/a	n/a	n/a	n/a	n/a	n/a	red
6.695	0.5167	FEEDBACK	n/a	n/a	n/a	n/a	n/a	n/a	n/a	n/a
7.2116	1.0167	ITI	n/a	n/a	n/a	n/a	n/a	n/a	n/a	n/a
8.2283	0.5167	FIXCROSS	n/a	n/a	n/a	n/a	n/a	n/a	n/a	n/a
8.745	0.8167	T_INK	3	Incongruent	czerwony	red	niebieski	blue	hit	n/a
9.5337	n/a	RESPONSE	n/a	n/a	n/a	n/a	n/a	n/a	n/a	blue
9.5617	0.5167	FEEDBACK	n/a	n/a	n/a	n/a	n/a	n/a	n/a	n/a
10.0783	1.0167	ITI	n/a	n/a	n/a	n/a	n/a	n/a	n/a	n/a
11.095	0.5167	FIXCROSS	n/a	n/a	n/a	n/a	n/a	n/a	n/a	n/a
11.6117	0.7667	T_INK	4	Incongruent	zielony	green	niebieski	blue	hit	n/a
12.3491	n/a	RESPONSE	n/a	n/a	n/a	n/a	n/a	n/a	n/a	blue
12.3784	0.5167	FEEDBACK	n/a	n/a	n/a	n/a	n/a	n/a	n/a	n/a
12.895	1.0167	ITI	n/a	n/a	n/a	n/a	n/a	n/a	n/a	n/a
13.9117	0.5167	FIXCROSS	n/a	n/a	n/a	n/a	n/a	n/a	n/a	n/a
14.4284	0.6167	T_INK	5	Neutral	xxxxxxx	xxxxxxx	żółty	yellow	hit	n/a
15.0204	n/a	RESPONSE	n/a	n/a	n/a	n/a	n/a	n/a	n/a	yellow
15.045	0.5167	FEEDBACK	n/a	n/a	n/a	n/a	n/a	n/a	n/a	n/a
15.5617	1.0167	ITI	n/a	n/a	n/a	n/a	n/a	n/a	n/a	n/a
16.5784	0.5167	FIXCROSS	n/a	n/a	n/a	n/a	n/a	n/a	n/a	n/a
17.0951	1.0167	T_INK	6	Incongruent	niebieski	blue	czerwony	red	hit	n/a
18.0917	n/a	RESPONSE	n/a	n/a	n/a	n/a	n/a	n/a	n/a	red
18.1118	0.5167	FEEDBACK	n/a	n/a	n/a	n/a	n/a	n/a	n/a	n/a
18.6284	1.0167	ITI	n/a	n/a	n/a	n/a	n/a	n/a	n/a	n/a
19.6451	0.5167	FIXCROSS	n/a	n/a	n/a	n/a	n/a	n/a	n/a	n/a
20.1618	0.7167	T_INK	7	Neutral	xxxxxxxx	xxxxxxxx	niebieski	blue	hit	n/a
20.843	n/a	RESPONSE	n/a	n/a	n/a	n/a	n/a	n/a	n/a	blue
20.8785	0.5167	FEEDBACK	n/a	n/a	n/a	n/a	n/a	n/a	n/a	n/a
21.3951	1.0167	ITI	n/a	n/a	n/a	n/a	n/a	n/a	n/a	n/a
22.4118	0.5167	FIXCROSS	n/a	n/a	n/a	n/a	n/a	n/a	n/a	n/a
22.9285	0.5834	T_INK	8	Neutral	xxxxxxxx	xxxxxxxx	żółty	yellow	hit	n/a
23.4824	n/a	RESPONSE	n/a	n/a	n/a	n/a	n/a	n/a	n/a	yellow
23.5118	0.5167	FEEDBACK	n/a	n/a	n/a	n/a	n/a	n/a	n/a	n/a
24.0285	1.0167	ITI	n/a	n/a	n/a	n/a	n/a	n/a	n/a	n/a
25.0452	0.5167	FIXCROSS	n/a	n/a	n/a	n/a	n/a	n/a	n/a	n/a
25.5618	0.5833	T_INK	9	Neutral	xxxxx	xxxxx	zielony	green	hit	n/a
26.1218	n/a	RESPONSE	n/a	n/a	n/a	n/a	n/a	n/a	n/a	green
26.1452	0.5167	FEEDBACK	n/a	n/a	n/a	n/a	n/a	n/a	n/a	n/a
26.6619	1.0167	ITI	n/a	n/a	n/a	n/a	n/a	n/a	n/a	n/a
27.6785	0.5167	FIXCROSS	n/a	n/a	n/a	n/a	n/a	n/a	n/a	n/a
28.1952	0.9833	T_INK	10	Neutral	xxxxx	xxxxx	niebieski	blue	hit	n/a
29.145	n/a	RESPONSE	n/a	n/a	n/a	n/a	n/a	n/a	n/a	blue
29.1786	0.5167	FEEDBACK	n/a	n/a	n/a	n/a	n/a	n/a	n/a	n/a
29.6952	1.0167	ITI	n/a	n/a	n/a	n/a	n/a	n/a	n/a	n/a
30.7119	0.5167	FIXCROSS	n/a	n/a	n/a	n/a	n/a	n/a	n/a	n/a
31.2286	0.6	T_INK	11	Neutral	xxxxxxxxx	xxxxxxxxx	żółty	yellow	hit	n/a
31.8004	n/a	RESPONSE	n/a	n/a	n/a	n/a	n/a	n/a	n/a	yellow
31.8286	0.5167	FEEDBACK	n/a	n/a	n/a	n/a	n/a	n/a	n/a	n/a
32.3453	1.0167	ITI	n/a	n/a	n/a	n/a	n/a	n/a	n/a	n/a
33.362	0.5167	FIXCROSS	n/a	n/a	n/a	n/a	n/a	n/a	n/a	n/a
33.8786	0.85	T_INK	12	Neutral	xxxxxxxxx	xxxxxxxxx	czerwony	red	hit	n/a
34.6957	n/a	RESPONSE	n/a	n/a	n/a	n/a	n/a	n/a	n/a	red
34.7286	0.5167	FEEDBACK	n/a	n/a	n/a	n/a	n/a	n/a	n/a	n/a
35.2453	1.0333	ITI	n/a	n/a	n/a	n/a	n/a	n/a	n/a	n/a
38.7907	n/a	RESPONSE	n/a	n/a	n/a	n/a	n/a	n/a	n/a	n/a
38.8453	1.0167	ITI	n/a	n/a	n/a	n/a	n/a	n/a	n/a	n/a
39.862	0.5167	FIXCROSS	n/a	n/a	n/a	n/a	n/a	n/a	n/a	n/a
40.3787	0.95	INK	1	Neutral	xxxxxxxxx	xxxxxxxxx	zielony	green	hit	n/a
41.3021	n/a	RESPONSE	n/a	n/a	n/a	n/a	n/a	n/a	n/a	green
41.3287	1.0167	ITI	n/a	n/a	n/a	n/a	n/a	n/a	n/a	n/a
42.3454	0.5167	FIXCROSS	n/a	n/a	n/a	n/a	n/a	n/a	n/a	n/a
42.8621	1.05	INK	2	Incongruent	niebieski	blue	czerwony	red	hit	n/a
43.8935	n/a	RESPONSE	n/a	n/a	n/a	n/a	n/a	n/a	n/a	red
43.9121	1.0167	ITI	n/a	n/a	n/a	n/a	n/a	n/a	n/a	n/a
44.9288	0.5167	FIXCROSS	n/a	n/a	n/a	n/a	n/a	n/a	n/a	n/a
45.4454	0.7667	INK	3	Neutral	xxxxxxxx	xxxxxxxx	zielony	green	hit	n/a
46.1809	n/a	RESPONSE	n/a	n/a	n/a	n/a	n/a	n/a	n/a	green
46.2121	1.0167	ITI	n/a	n/a	n/a	n/a	n/a	n/a	n/a	n/a
47.2288	0.5167	FIXCROSS	n/a	n/a	n/a	n/a	n/a	n/a	n/a	n/a
47.7455	0.9167	INK	4	Neutral	xxxxx	xxxxx	czerwony	red	hit	n/a
48.6284	n/a	RESPONSE	n/a	n/a	n/a	n/a	n/a	n/a	n/a	red
48.6621	1.0167	ITI	n/a	n/a	n/a	n/a	n/a	n/a	n/a	n/a
49.6788	0.5167	FIXCROSS	n/a	n/a	n/a	n/a	n/a	n/a	n/a	n/a
50.1955	1.1667	INK	5	Incongruent	żółty	yellow	czerwony	red	hit	n/a
51.3317	n/a	RESPONSE	n/a	n/a	n/a	n/a	n/a	n/a	n/a	red
51.3622	1.0167	ITI	n/a	n/a	n/a	n/a	n/a	n/a	n/a	n/a
52.3789	0.5167	FIXCROSS	n/a	n/a	n/a	n/a	n/a	n/a	n/a	n/a
52.8955	0.7333	INK	6	Incongruent	zielony	green	żółty	yellow	hit	n/a
53.6031	n/a	RESPONSE	n/a	n/a	n/a	n/a	n/a	n/a	n/a	yellow
53.6289	1.0167	ITI	n/a	n/a	n/a	n/a	n/a	n/a	n/a	n/a
54.6455	0.5167	FIXCROSS	n/a	n/a	n/a	n/a	n/a	n/a	n/a	n/a
55.1622	0.65	INK	7	Neutral	xxxxxxx	xxxxxxx	żółty	yellow	hit	n/a
55.7786	n/a	RESPONSE	n/a	n/a	n/a	n/a	n/a	n/a	n/a	yellow
55.8122	1.0167	ITI	n/a	n/a	n/a	n/a	n/a	n/a	n/a	n/a
56.8289	0.5167	FIXCROSS	n/a	n/a	n/a	n/a	n/a	n/a	n/a	n/a
57.3456	0.6833	INK	8	Neutral	xxxxxxx	xxxxxxx	czerwony	red	hit	n/a
58.0021	n/a	RESPONSE	n/a	n/a	n/a	n/a	n/a	n/a	n/a	red
58.0289	1.0167	ITI	n/a	n/a	n/a	n/a	n/a	n/a	n/a	n/a
59.0456	0.5167	FIXCROSS	n/a	n/a	n/a	n/a	n/a	n/a	n/a	n/a
59.5623	0.6667	INK	9	Neutral	xxxxxxxxx	xxxxxxxxx	żółty	yellow	hit	n/a
60.2096	n/a	RESPONSE	n/a	n/a	n/a	n/a	n/a	n/a	n/a	yellow
60.2289	1.0167	ITI	n/a	n/a	n/a	n/a	n/a	n/a	n/a	n/a
61.2456	0.5167	FIXCROSS	n/a	n/a	n/a	n/a	n/a	n/a	n/a	n/a
61.7623	0.7334	INK	10	Neutral	xxxxxxxx	xxxxxxxx	niebieski	blue	hit	n/a
62.465	n/a	RESPONSE	n/a	n/a	n/a	n/a	n/a	n/a	n/a	blue
62.4957	1.0167	ITI	n/a	n/a	n/a	n/a	n/a	n/a	n/a	n/a
63.5123	0.5167	FIXCROSS	n/a	n/a	n/a	n/a	n/a	n/a	n/a	n/a
64.029	0.6	INK	11	Neutral	xxxxx	xxxxx	niebieski	blue	hit	n/a
64.6085	n/a	RESPONSE	n/a	n/a	n/a	n/a	n/a	n/a	n/a	blue
64.629	1.0167	ITI	n/a	n/a	n/a	n/a	n/a	n/a	n/a	n/a
65.6457	0.5167	FIXCROSS	n/a	n/a	n/a	n/a	n/a	n/a	n/a	n/a
66.1624	0.65	INK	12	Incongruent	niebieski	blue	zielony	green	hit	n/a
66.784	n/a	RESPONSE	n/a	n/a	n/a	n/a	n/a	n/a	n/a	green
66.8124	1.0167	ITI	n/a	n/a	n/a	n/a	n/a	n/a	n/a	n/a
67.829	0.5167	FIXCROSS	n/a	n/a	n/a	n/a	n/a	n/a	n/a	n/a
68.3457	0.6	INK	13	Neutral	xxxxxxx	xxxxxxx	niebieski	blue	hit	n/a
68.9275	n/a	RESPONSE	n/a	n/a	n/a	n/a	n/a	n/a	n/a	blue
68.9457	1.0167	ITI	n/a	n/a	n/a	n/a	n/a	n/a	n/a	n/a
69.9624	0.5167	FIXCROSS	n/a	n/a	n/a	n/a	n/a	n/a	n/a	n/a
70.4791	0.7167	INK	14	Incongruent	czerwony	red	żółty	yellow	hit	n/a
71.1669	n/a	RESPONSE	n/a	n/a	n/a	n/a	n/a	n/a	n/a	yellow
71.1958	1.0167	ITI	n/a	n/a	n/a	n/a	n/a	n/a	n/a	n/a
72.2124	0.5167	FIXCROSS	n/a	n/a	n/a	n/a	n/a	n/a	n/a	n/a
72.7291	0.7333	INK	15	Incongruent	niebieski	blue	zielony	green	hit	n/a
73.4384	n/a	RESPONSE	n/a	n/a	n/a	n/a	n/a	n/a	n/a	green
73.4624	1.0167	ITI	n/a	n/a	n/a	n/a	n/a	n/a	n/a	n/a
74.4791	0.5167	FIXCROSS	n/a	n/a	n/a	n/a	n/a	n/a	n/a	n/a
74.9958	0.6833	INK	16	Incongruent	czerwony	red	niebieski	blue	hit	n/a
75.6459	n/a	RESPONSE	n/a	n/a	n/a	n/a	n/a	n/a	n/a	blue
75.6791	1.0167	ITI	n/a	n/a	n/a	n/a	n/a	n/a	n/a	n/a
76.6958	0.5167	FIXCROSS	n/a	n/a	n/a	n/a	n/a	n/a	n/a	n/a
77.2125	0.6667	INK	17	Incongruent	niebieski	blue	czerwony	red	hit	n/a
77.8533	n/a	RESPONSE	n/a	n/a	n/a	n/a	n/a	n/a	n/a	red
77.8792	1.0167	ITI	n/a	n/a	n/a	n/a	n/a	n/a	n/a	n/a
78.8958	0.5167	FIXCROSS	n/a	n/a	n/a	n/a	n/a	n/a	n/a	n/a
79.4125	0.65	INK	18	Neutral	xxxxxxx	xxxxxxx	niebieski	blue	hit	n/a
80.0449	n/a	RESPONSE	n/a	n/a	n/a	n/a	n/a	n/a	n/a	blue
80.0625	1.0167	ITI	n/a	n/a	n/a	n/a	n/a	n/a	n/a	n/a
81.0792	0.5167	FIXCROSS	n/a	n/a	n/a	n/a	n/a	n/a	n/a	n/a
81.5959	0.5334	INK	19	Incongruent	zielony	green	żółty	yellow	hit	n/a
82.1083	n/a	RESPONSE	n/a	n/a	n/a	n/a	n/a	n/a	n/a	yellow
82.1292	1.0167	ITI	n/a	n/a	n/a	n/a	n/a	n/a	n/a	n/a
83.1459	0.5167	FIXCROSS	n/a	n/a	n/a	n/a	n/a	n/a	n/a	n/a
83.6626	0.75	INK	20	Incongruent	żółty	yellow	czerwony	red	hit	n/a
84.3798	n/a	RESPONSE	n/a	n/a	n/a	n/a	n/a	n/a	n/a	red
84.4126	1.0167	ITI	n/a	n/a	n/a	n/a	n/a	n/a	n/a	n/a
85.4293	0.5167	FIXCROSS	n/a	n/a	n/a	n/a	n/a	n/a	n/a	n/a
85.9459	0.6	INK	21	Neutral	xxxxxxxx	xxxxxxxx	niebieski	blue	hit	n/a
86.5233	n/a	RESPONSE	n/a	n/a	n/a	n/a	n/a	n/a	n/a	blue
86.5459	1.0167	ITI	n/a	n/a	n/a	n/a	n/a	n/a	n/a	n/a
87.5626	0.5167	FIXCROSS	n/a	n/a	n/a	n/a	n/a	n/a	n/a	n/a
88.0793	0.6667	INK	22	Neutral	xxxxx	xxxxx	czerwony	red	hit	n/a
88.7147	n/a	RESPONSE	n/a	n/a	n/a	n/a	n/a	n/a	n/a	red
88.746	1.0167	ITI	n/a	n/a	n/a	n/a	n/a	n/a	n/a	n/a
89.7626	0.5167	FIXCROSS	n/a	n/a	n/a	n/a	n/a	n/a	n/a	n/a
90.2793	0.8667	INK	23	Incongruent	żółty	yellow	zielony	green	hit	n/a
91.1142	n/a	RESPONSE	n/a	n/a	n/a	n/a	n/a	n/a	n/a	green
91.146	1.0167	ITI	n/a	n/a	n/a	n/a	n/a	n/a	n/a	n/a
92.1627	0.5167	FIXCROSS	n/a	n/a	n/a	n/a	n/a	n/a	n/a	n/a
92.6793	0.6167	INK	24	Incongruent	niebieski	blue	żółty	yellow	hit	n/a
93.2736	n/a	RESPONSE	n/a	n/a	n/a	n/a	n/a	n/a	n/a	yellow
93.296	1.0167	ITI	n/a	n/a	n/a	n/a	n/a	n/a	n/a	n/a
94.3127	0.5167	FIXCROSS	n/a	n/a	n/a	n/a	n/a	n/a	n/a	n/a
94.8294	0.5	INK	25	Incongruent	czerwony	red	żółty	yellow	hit	n/a
95.3052	n/a	RESPONSE	n/a	n/a	n/a	n/a	n/a	n/a	n/a	yellow
95.3294	1.0167	ITI	n/a	n/a	n/a	n/a	n/a	n/a	n/a	n/a
96.3461	0.5167	FIXCROSS	n/a	n/a	n/a	n/a	n/a	n/a	n/a	n/a
96.8627	0.65	INK	26	Incongruent	czerwony	red	niebieski	blue	hit	n/a
97.4806	n/a	RESPONSE	n/a	n/a	n/a	n/a	n/a	n/a	n/a	blue
97.5127	1.0167	ITI	n/a	n/a	n/a	n/a	n/a	n/a	n/a	n/a
98.5294	0.5167	FIXCROSS	n/a	n/a	n/a	n/a	n/a	n/a	n/a	n/a
99.0461	0.55	INK	27	Incongruent	czerwony	red	żółty	yellow	hit	n/a
99.5762	n/a	RESPONSE	n/a	n/a	n/a	n/a	n/a	n/a	n/a	yellow
99.5961	1.0167	ITI	n/a	n/a	n/a	n/a	n/a	n/a	n/a	n/a
100.6128	0.5167	FIXCROSS	n/a	n/a	n/a	n/a	n/a	n/a	n/a	n/a
101.1294	0.5	INK	28	Neutral	xxxxxxxx	xxxxxxxx	żółty	yellow	hit	n/a
101.6077	n/a	RESPONSE	n/a	n/a	n/a	n/a	n/a	n/a	n/a	yellow
101.6295	1.0167	ITI	n/a	n/a	n/a	n/a	n/a	n/a	n/a	n/a
102.6461	0.5167	FIXCROSS	n/a	n/a	n/a	n/a	n/a	n/a	n/a	n/a
103.1628	0.5833	INK	29	Neutral	xxxxx	xxxxx	czerwony	red	hit	n/a
103.7191	n/a	RESPONSE	n/a	n/a	n/a	n/a	n/a	n/a	n/a	red
103.7461	1.0167	ITI	n/a	n/a	n/a	n/a	n/a	n/a	n/a	n/a
104.7628	0.5167	FIXCROSS	n/a	n/a	n/a	n/a	n/a	n/a	n/a	n/a
105.2795	0.6834	INK	30	Incongruent	żółty	yellow	czerwony	red	hit	n/a
105.9427	n/a	RESPONSE	n/a	n/a	n/a	n/a	n/a	n/a	n/a	red
105.9628	1.0167	ITI	n/a	n/a	n/a	n/a	n/a	n/a	n/a	n/a
106.9795	0.5167	FIXCROSS	n/a	n/a	n/a	n/a	n/a	n/a	n/a	n/a
107.4962	0.6	INK	31	Incongruent	niebieski	blue	żółty	yellow	hit	n/a
108.0701	n/a	RESPONSE	n/a	n/a	n/a	n/a	n/a	n/a	n/a	yellow
108.0962	1.0167	ITI	n/a	n/a	n/a	n/a	n/a	n/a	n/a	n/a
109.1129	0.5167	FIXCROSS	n/a	n/a	n/a	n/a	n/a	n/a	n/a	n/a
109.6295	0.6334	INK	32	Neutral	xxxxxxxx	xxxxxxxx	zielony	green	hit	n/a
110.2456	n/a	RESPONSE	n/a	n/a	n/a	n/a	n/a	n/a	n/a	green
110.2629	1.0167	ITI	n/a	n/a	n/a	n/a	n/a	n/a	n/a	n/a
111.2796	0.5167	FIXCROSS	n/a	n/a	n/a	n/a	n/a	n/a	n/a	n/a
111.7962	0.4833	INK	33	Neutral	xxxxxxxxx	xxxxxxxxx	żółty	yellow	hit	n/a
112.2611	n/a	RESPONSE	n/a	n/a	n/a	n/a	n/a	n/a	n/a	yellow
112.2796	1.0167	ITI	n/a	n/a	n/a	n/a	n/a	n/a	n/a	n/a
113.2963	0.5167	FIXCROSS	n/a	n/a	n/a	n/a	n/a	n/a	n/a	n/a
113.8129	0.6833	INK	34	Neutral	xxxxxxxxx	xxxxxxxxx	czerwony	red	hit	n/a
114.4686	n/a	RESPONSE	n/a	n/a	n/a	n/a	n/a	n/a	n/a	red
114.4963	1.0167	ITI	n/a	n/a	n/a	n/a	n/a	n/a	n/a	n/a
115.5129	0.5167	FIXCROSS	n/a	n/a	n/a	n/a	n/a	n/a	n/a	n/a
116.0296	0.6	INK	35	Neutral	xxxxxxxxx	xxxxxxxxx	zielony	green	hit	n/a
116.6121	n/a	RESPONSE	n/a	n/a	n/a	n/a	n/a	n/a	n/a	green
116.6296	1.0167	ITI	n/a	n/a	n/a	n/a	n/a	n/a	n/a	n/a
117.6463	0.5167	FIXCROSS	n/a	n/a	n/a	n/a	n/a	n/a	n/a	n/a
118.163	0.5667	INK	36	Incongruent	zielony	green	niebieski	blue	hit	n/a
118.7076	n/a	RESPONSE	n/a	n/a	n/a	n/a	n/a	n/a	n/a	blue
118.7297	1.0167	ITI	n/a	n/a	n/a	n/a	n/a	n/a	n/a	n/a
119.7463	0.5167	FIXCROSS	n/a	n/a	n/a	n/a	n/a	n/a	n/a	n/a
120.263	0.6333	INK	37	Neutral	xxxxx	xxxxx	zielony	green	hit	n/a
120.867	n/a	RESPONSE	n/a	n/a	n/a	n/a	n/a	n/a	n/a	green
120.8964	1.0167	ITI	n/a	n/a	n/a	n/a	n/a	n/a	n/a	n/a
121.913	0.5167	FIXCROSS	n/a	n/a	n/a	n/a	n/a	n/a	n/a	n/a
122.4297	0.4667	INK	38	Incongruent	zielony	green	żółty	yellow	hit	n/a
122.8665	n/a	RESPONSE	n/a	n/a	n/a	n/a	n/a	n/a	n/a	yellow
122.8964	1.0167	ITI	n/a	n/a	n/a	n/a	n/a	n/a	n/a	n/a
123.9131	0.5167	FIXCROSS	n/a	n/a	n/a	n/a	n/a	n/a	n/a	n/a
124.4297	0.55	INK	39	Incongruent	niebieski	blue	żółty	yellow	hit	n/a
124.9621	n/a	RESPONSE	n/a	n/a	n/a	n/a	n/a	n/a	n/a	yellow
124.9797	1.0167	ITI	n/a	n/a	n/a	n/a	n/a	n/a	n/a	n/a
125.9964	0.5167	FIXCROSS	n/a	n/a	n/a	n/a	n/a	n/a	n/a	n/a
126.5131	0.7	INK	40	Incongruent	zielony	green	niebieski	blue	hit	n/a
127.1855	n/a	RESPONSE	n/a	n/a	n/a	n/a	n/a	n/a	n/a	blue
127.2131	1.0167	ITI	n/a	n/a	n/a	n/a	n/a	n/a	n/a	n/a
128.2298	0.5167	FIXCROSS	n/a	n/a	n/a	n/a	n/a	n/a	n/a	n/a
128.7464	0.5833	INK	41	Neutral	xxxxxxxx	xxxxxxxx	żółty	yellow	hit	n/a
129.297	n/a	RESPONSE	n/a	n/a	n/a	n/a	n/a	n/a	n/a	yellow
129.3298	1.0167	ITI	n/a	n/a	n/a	n/a	n/a	n/a	n/a	n/a
130.3465	0.5167	FIXCROSS	n/a	n/a	n/a	n/a	n/a	n/a	n/a	n/a
130.8631	0.75	INK	42	Incongruent	czerwony	red	zielony	green	hit	n/a
131.5845	n/a	RESPONSE	n/a	n/a	n/a	n/a	n/a	n/a	n/a	green
131.6131	1.0167	ITI	n/a	n/a	n/a	n/a	n/a	n/a	n/a	n/a
132.6298	0.5167	FIXCROSS	n/a	n/a	n/a	n/a	n/a	n/a	n/a	n/a
133.1465	0.6167	INK	43	Incongruent	żółty	yellow	zielony	green	hit	n/a
133.7439	n/a	RESPONSE	n/a	n/a	n/a	n/a	n/a	n/a	n/a	green
133.7632	1.0167	ITI	n/a	n/a	n/a	n/a	n/a	n/a	n/a	n/a
134.7798	0.5167	FIXCROSS	n/a	n/a	n/a	n/a	n/a	n/a	n/a	n/a
135.2965	0.55	INK	44	Incongruent	czerwony	red	zielony	green	hit	n/a
135.8234	n/a	RESPONSE	n/a	n/a	n/a	n/a	n/a	n/a	n/a	green
135.8465	1.0167	ITI	n/a	n/a	n/a	n/a	n/a	n/a	n/a	n/a
136.8632	0.5167	FIXCROSS	n/a	n/a	n/a	n/a	n/a	n/a	n/a	n/a
137.3799	0.9167	INK	45	Incongruent	zielony	green	czerwony	red	hit	n/a
138.2709	n/a	RESPONSE	n/a	n/a	n/a	n/a	n/a	n/a	n/a	red
138.2966	1.0167	ITI	n/a	n/a	n/a	n/a	n/a	n/a	n/a	n/a
139.3132	0.5167	FIXCROSS	n/a	n/a	n/a	n/a	n/a	n/a	n/a	n/a
139.8299	0.5667	INK	46	Incongruent	zielony	green	niebieski	blue	hit	n/a
140.3664	n/a	RESPONSE	n/a	n/a	n/a	n/a	n/a	n/a	n/a	blue
140.3966	1.0167	ITI	n/a	n/a	n/a	n/a	n/a	n/a	n/a	n/a
141.4133	0.5167	FIXCROSS	n/a	n/a	n/a	n/a	n/a	n/a	n/a	n/a
141.9299	0.65	INK	47	Neutral	xxxxx	xxxxx	zielony	green	hit	n/a
142.5578	n/a	RESPONSE	n/a	n/a	n/a	n/a	n/a	n/a	n/a	green
142.5799	1.0167	ITI	n/a	n/a	n/a	n/a	n/a	n/a	n/a	n/a
143.5966	0.5167	FIXCROSS	n/a	n/a	n/a	n/a	n/a	n/a	n/a	n/a
144.1133	0.5167	INK	48	Neutral	xxxxx	xxxxx	zielony	green	hit	n/a
144.6054	n/a	RESPONSE	n/a	n/a	n/a	n/a	n/a	n/a	n/a	green
144.63	1.0167	ITI	n/a	n/a	n/a	n/a	n/a	n/a	n/a	n/a
145.6466	0.5167	FIXCROSS	n/a	n/a	n/a	n/a	n/a	n/a	n/a	n/a
146.1633	0.5667	INK	49	Incongruent	żółty	yellow	niebieski	blue	hit	n/a
146.7008	n/a	RESPONSE	n/a	n/a	n/a	n/a	n/a	n/a	n/a	blue
146.73	1.0167	ITI	n/a	n/a	n/a	n/a	n/a	n/a	n/a	n/a
147.7467	0.5167	FIXCROSS	n/a	n/a	n/a	n/a	n/a	n/a	n/a	n/a
148.2634	0.6833	INK	50	Neutral	xxxxxxxxx	xxxxxxxxx	czerwony	red	hit	n/a
148.9243	n/a	RESPONSE	n/a	n/a	n/a	n/a	n/a	n/a	n/a	red
148.9467	1.0167	ITI	n/a	n/a	n/a	n/a	n/a	n/a	n/a	n/a
149.9634	0.5167	FIXCROSS	n/a	n/a	n/a	n/a	n/a	n/a	n/a	n/a
150.48	0.65	INK	51	Incongruent	żółty	yellow	niebieski	blue	hit	n/a
151.0998	n/a	RESPONSE	n/a	n/a	n/a	n/a	n/a	n/a	n/a	blue
151.1301	1.0167	ITI	n/a	n/a	n/a	n/a	n/a	n/a	n/a	n/a
152.1467	0.5167	FIXCROSS	n/a	n/a	n/a	n/a	n/a	n/a	n/a	n/a
152.6634	0.5833	INK	52	Incongruent	zielony	green	czerwony	red	hit	n/a
153.2273	n/a	RESPONSE	n/a	n/a	n/a	n/a	n/a	n/a	n/a	red
153.2467	1.0167	ITI	n/a	n/a	n/a	n/a	n/a	n/a	n/a	n/a
154.2634	0.5167	FIXCROSS	n/a	n/a	n/a	n/a	n/a	n/a	n/a	n/a
154.7801	0.6167	INK	53	Neutral	xxxxx	xxxxx	niebieski	blue	hit	n/a
155.3708	n/a	RESPONSE	n/a	n/a	n/a	n/a	n/a	n/a	n/a	blue
155.3968	1.0167	ITI	n/a	n/a	n/a	n/a	n/a	n/a	n/a	n/a
156.4134	0.5167	FIXCROSS	n/a	n/a	n/a	n/a	n/a	n/a	n/a	n/a
156.9301	0.6667	INK	54	Neutral	xxxxxxxx	xxxxxxxx	zielony	green	hit	n/a
157.5783	n/a	RESPONSE	n/a	n/a	n/a	n/a	n/a	n/a	n/a	green
157.5968	1.0167	ITI	n/a	n/a	n/a	n/a	n/a	n/a	n/a	n/a
158.6135	0.5167	FIXCROSS	n/a	n/a	n/a	n/a	n/a	n/a	n/a	n/a
159.1301	0.6333	INK	55	Neutral	xxxxx	xxxxx	niebieski	blue	hit	n/a
159.7377	n/a	RESPONSE	n/a	n/a	n/a	n/a	n/a	n/a	n/a	blue
159.7635	1.0167	ITI	n/a	n/a	n/a	n/a	n/a	n/a	n/a	n/a
160.7802	0.5167	FIXCROSS	n/a	n/a	n/a	n/a	n/a	n/a	n/a	n/a
161.2968	0.6667	INK	56	Neutral	xxxxxxxxx	xxxxxxxxx	zielony	green	hit	n/a
161.9452	n/a	RESPONSE	n/a	n/a	n/a	n/a	n/a	n/a	n/a	green
161.9635	1.0167	ITI	n/a	n/a	n/a	n/a	n/a	n/a	n/a	n/a
162.9802	0.5167	FIXCROSS	n/a	n/a	n/a	n/a	n/a	n/a	n/a	n/a
163.4969	0.6	INK	57	Neutral	xxxxxxx	xxxxxxx	niebieski	blue	hit	n/a
164.0727	n/a	RESPONSE	n/a	n/a	n/a	n/a	n/a	n/a	n/a	blue
164.0969	1.0167	ITI	n/a	n/a	n/a	n/a	n/a	n/a	n/a	n/a
165.1135	0.5167	FIXCROSS	n/a	n/a	n/a	n/a	n/a	n/a	n/a	n/a
165.6302	0.6167	INK	58	Incongruent	czerwony	red	zielony	green	incorrect	n/a
166.2162	n/a	RESPONSE	n/a	n/a	n/a	n/a	n/a	n/a	n/a	red
166.2469	1.0167	ITI	n/a	n/a	n/a	n/a	n/a	n/a	n/a	n/a
167.2636	0.5167	FIXCROSS	n/a	n/a	n/a	n/a	n/a	n/a	n/a	n/a
167.7802	0.8	INK	59	Incongruent	zielony	green	czerwony	red	hit	n/a
168.5516	n/a	RESPONSE	n/a	n/a	n/a	n/a	n/a	n/a	n/a	red
168.5803	1.0167	ITI	n/a	n/a	n/a	n/a	n/a	n/a	n/a	n/a
169.5969	0.5167	FIXCROSS	n/a	n/a	n/a	n/a	n/a	n/a	n/a	n/a
170.1136	0.6167	INK	60	Neutral	xxxxxxxxx	xxxxxxxxx	czerwony	red	hit	n/a
170.7111	n/a	RESPONSE	n/a	n/a	n/a	n/a	n/a	n/a	n/a	red
170.7303	1.0167	ITI	n/a	n/a	n/a	n/a	n/a	n/a	n/a	n/a
171.747	0.5167	FIXCROSS	n/a	n/a	n/a	n/a	n/a	n/a	n/a	n/a
172.2636	0.6	INK	61	Neutral	xxxxxxx	xxxxxxx	żółty	yellow	hit	n/a
172.8386	n/a	RESPONSE	n/a	n/a	n/a	n/a	n/a	n/a	n/a	yellow
172.8636	1.0167	ITI	n/a	n/a	n/a	n/a	n/a	n/a	n/a	n/a
173.8803	0.5167	FIXCROSS	n/a	n/a	n/a	n/a	n/a	n/a	n/a	n/a
174.397	0.8	INK	62	Neutral	xxxxxxx	xxxxxxx	czerwony	red	hit	n/a
175.174	n/a	RESPONSE	n/a	n/a	n/a	n/a	n/a	n/a	n/a	red
175.197	1.0167	ITI	n/a	n/a	n/a	n/a	n/a	n/a	n/a	n/a
176.2137	0.5167	FIXCROSS	n/a	n/a	n/a	n/a	n/a	n/a	n/a	n/a
176.7303	0.7167	INK	63	Neutral	xxxxxxx	xxxxxxx	żółty	yellow	hit	n/a
177.4135	n/a	RESPONSE	n/a	n/a	n/a	n/a	n/a	n/a	n/a	yellow
177.447	1.0167	ITI	n/a	n/a	n/a	n/a	n/a	n/a	n/a	n/a
178.4637	0.5167	FIXCROSS	n/a	n/a	n/a	n/a	n/a	n/a	n/a	n/a
178.9804	0.5333	INK	64	Neutral	xxxxxxxxx	xxxxxxxxx	żółty	yellow	hit	n/a
179.493	n/a	RESPONSE	n/a	n/a	n/a	n/a	n/a	n/a	n/a	yellow
179.5137	1.0167	ITI	n/a	n/a	n/a	n/a	n/a	n/a	n/a	n/a
180.5304	0.5167	FIXCROSS	n/a	n/a	n/a	n/a	n/a	n/a	n/a	n/a
181.0471	0.85	INK	65	Incongruent	niebieski	blue	czerwony	red	hit	n/a
181.8764	n/a	RESPONSE	n/a	n/a	n/a	n/a	n/a	n/a	n/a	red
181.8971	1.0167	ITI	n/a	n/a	n/a	n/a	n/a	n/a	n/a	n/a
182.9138	0.5167	FIXCROSS	n/a	n/a	n/a	n/a	n/a	n/a	n/a	n/a
183.4304	0.5667	INK	66	Incongruent	czerwony	red	niebieski	blue	hit	n/a
183.9719	n/a	RESPONSE	n/a	n/a	n/a	n/a	n/a	n/a	n/a	blue
183.9971	1.0167	ITI	n/a	n/a	n/a	n/a	n/a	n/a	n/a	n/a
185.0138	0.5167	FIXCROSS	n/a	n/a	n/a	n/a	n/a	n/a	n/a	n/a
185.5305	0.7	INK	67	Incongruent	niebieski	blue	zielony	green	hit	n/a
186.2113	n/a	RESPONSE	n/a	n/a	n/a	n/a	n/a	n/a	n/a	green
186.2305	1.0167	ITI	n/a	n/a	n/a	n/a	n/a	n/a	n/a	n/a
187.2471	0.5167	FIXCROSS	n/a	n/a	n/a	n/a	n/a	n/a	n/a	n/a
187.7638	0.65	INK	68	Incongruent	żółty	yellow	niebieski	blue	hit	n/a
188.3868	n/a	RESPONSE	n/a	n/a	n/a	n/a	n/a	n/a	n/a	blue
188.4138	1.0167	ITI	n/a	n/a	n/a	n/a	n/a	n/a	n/a	n/a
189.4305	0.5167	FIXCROSS	n/a	n/a	n/a	n/a	n/a	n/a	n/a	n/a
189.9472	0.6667	INK	69	Neutral	xxxxxxx	xxxxxxx	czerwony	red	hit	n/a
190.5943	n/a	RESPONSE	n/a	n/a	n/a	n/a	n/a	n/a	n/a	red
190.6139	1.0167	ITI	n/a	n/a	n/a	n/a	n/a	n/a	n/a	n/a
191.6305	0.5167	FIXCROSS	n/a	n/a	n/a	n/a	n/a	n/a	n/a	n/a
192.1472	0.5667	INK	70	Neutral	xxxxxxxx	xxxxxxxx	żółty	yellow	hit	n/a
192.6898	n/a	RESPONSE	n/a	n/a	n/a	n/a	n/a	n/a	n/a	yellow
192.7139	1.0167	ITI	n/a	n/a	n/a	n/a	n/a	n/a	n/a	n/a
193.7306	0.5167	FIXCROSS	n/a	n/a	n/a	n/a	n/a	n/a	n/a	n/a
194.2472	0.7667	INK	71	Incongruent	żółty	yellow	zielony	green	hit	n/a
194.9933	n/a	RESPONSE	n/a	n/a	n/a	n/a	n/a	n/a	n/a	green
195.0139	1.0167	ITI	n/a	n/a	n/a	n/a	n/a	n/a	n/a	n/a
196.0306	0.5167	FIXCROSS	n/a	n/a	n/a	n/a	n/a	n/a	n/a	n/a
196.5473	0.5	INK	72	Neutral	xxxxxxxx	xxxxxxxx	niebieski	blue	hit	n/a
197.0248	n/a	RESPONSE	n/a	n/a	n/a	n/a	n/a	n/a	n/a	blue
197.0473	1.0833	ITI	n/a	n/a	n/a	n/a	n/a	n/a	n/a	n/a
209.7577	n/a	RESPONSE	n/a	n/a	n/a	n/a	n/a	n/a	n/a	n/a
209.8141	1.0167	ITI	n/a	n/a	n/a	n/a	n/a	n/a	n/a	n/a
210.8307	0.5167	FIXCROSS	n/a	n/a	n/a	n/a	n/a	n/a	n/a	n/a
211.3474	0.8333	T_COLOR_NAME	1	Incongruent	czerwony	red	żółty	yellow	hit	n/a
212.1572	n/a	RESPONSE	n/a	n/a	n/a	n/a	n/a	n/a	n/a	red
212.1808	0.5167	FEEDBACK	n/a	n/a	n/a	n/a	n/a	n/a	n/a	n/a
212.6974	1.0167	ITI	n/a	n/a	n/a	n/a	n/a	n/a	n/a	n/a
213.7141	0.5167	FIXCROSS	n/a	n/a	n/a	n/a	n/a	n/a	n/a	n/a
214.2308	0.6667	T_COLOR_NAME	2	Neutral	niebieski	blue	Neutral	Neutral	hit	n/a
214.8765	n/a	RESPONSE	n/a	n/a	n/a	n/a	n/a	n/a	n/a	blue
214.8975	0.5167	FEEDBACK	n/a	n/a	n/a	n/a	n/a	n/a	n/a	n/a
215.4141	1.0167	ITI	n/a	n/a	n/a	n/a	n/a	n/a	n/a	n/a
216.4308	0.5167	FIXCROSS	n/a	n/a	n/a	n/a	n/a	n/a	n/a	n/a
216.9475	0.8333	T_COLOR_NAME	3	Neutral	żółty	yellow	Neutral	Neutral	hit	n/a
217.7558	n/a	RESPONSE	n/a	n/a	n/a	n/a	n/a	n/a	n/a	yellow
217.7808	0.5167	FEEDBACK	n/a	n/a	n/a	n/a	n/a	n/a	n/a	n/a
218.2975	1.0167	ITI	n/a	n/a	n/a	n/a	n/a	n/a	n/a	n/a
219.3142	0.5167	FIXCROSS	n/a	n/a	n/a	n/a	n/a	n/a	n/a	n/a
219.8309	0.5833	T_COLOR_NAME	4	Neutral	zielony	green	Neutral	Neutral	hit	n/a
220.3792	n/a	RESPONSE	n/a	n/a	n/a	n/a	n/a	n/a	n/a	green
220.4142	0.5167	FEEDBACK	n/a	n/a	n/a	n/a	n/a	n/a	n/a	n/a
220.9309	1.0167	ITI	n/a	n/a	n/a	n/a	n/a	n/a	n/a	n/a
221.9475	0.5167	FIXCROSS	n/a	n/a	n/a	n/a	n/a	n/a	n/a	n/a
222.4642	0.7333	T_COLOR_NAME	5	Neutral	żółty	yellow	Neutral	Neutral	hit	n/a
223.1625	n/a	RESPONSE	n/a	n/a	n/a	n/a	n/a	n/a	n/a	yellow
223.1976	0.5167	FEEDBACK	n/a	n/a	n/a	n/a	n/a	n/a	n/a	n/a
223.7142	1.0167	ITI	n/a	n/a	n/a	n/a	n/a	n/a	n/a	n/a
224.7309	0.5167	FIXCROSS	n/a	n/a	n/a	n/a	n/a	n/a	n/a	n/a
225.2476	0.65	T_COLOR_NAME	6	Incongruent	czerwony	red	niebieski	blue	incorrect	n/a
225.8659	n/a	RESPONSE	n/a	n/a	n/a	n/a	n/a	n/a	n/a	blue
225.8976	0.5167	FEEDBACK	n/a	n/a	n/a	n/a	n/a	n/a	n/a	n/a
226.4143	1.0167	ITI	n/a	n/a	n/a	n/a	n/a	n/a	n/a	n/a
227.4309	0.5167	FIXCROSS	n/a	n/a	n/a	n/a	n/a	n/a	n/a	n/a
227.9476	0.7833	T_COLOR_NAME	7	Incongruent	zielony	green	niebieski	blue	hit	n/a
228.6972	n/a	RESPONSE	n/a	n/a	n/a	n/a	n/a	n/a	n/a	green
228.731	0.5167	FEEDBACK	n/a	n/a	n/a	n/a	n/a	n/a	n/a	n/a
229.2476	1.0167	ITI	n/a	n/a	n/a	n/a	n/a	n/a	n/a	n/a
230.2643	0.5167	FIXCROSS	n/a	n/a	n/a	n/a	n/a	n/a	n/a	n/a
230.781	0.75	T_COLOR_NAME	8	Neutral	czerwony	red	Neutral	Neutral	hit	n/a
231.4965	n/a	RESPONSE	n/a	n/a	n/a	n/a	n/a	n/a	n/a	red
231.531	0.5167	FEEDBACK	n/a	n/a	n/a	n/a	n/a	n/a	n/a	n/a
232.0477	1.0167	ITI	n/a	n/a	n/a	n/a	n/a	n/a	n/a	n/a
233.0643	0.5167	FIXCROSS	n/a	n/a	n/a	n/a	n/a	n/a	n/a	n/a
233.581	0.95	T_COLOR_NAME	9	Neutral	zielony	green	Neutral	Neutral	hit	n/a
234.5038	n/a	RESPONSE	n/a	n/a	n/a	n/a	n/a	n/a	n/a	green
234.531	0.5167	FEEDBACK	n/a	n/a	n/a	n/a	n/a	n/a	n/a	n/a
235.0477	1.0167	ITI	n/a	n/a	n/a	n/a	n/a	n/a	n/a	n/a
236.0644	0.5167	FIXCROSS	n/a	n/a	n/a	n/a	n/a	n/a	n/a	n/a
236.5811	0.75	T_COLOR_NAME	10	Neutral	niebieski	blue	Neutral	Neutral	hit	n/a
237.3031	n/a	RESPONSE	n/a	n/a	n/a	n/a	n/a	n/a	n/a	blue
237.3311	0.5167	FEEDBACK	n/a	n/a	n/a	n/a	n/a	n/a	n/a	n/a
237.8477	1.0167	ITI	n/a	n/a	n/a	n/a	n/a	n/a	n/a	n/a
238.8644	0.5167	FIXCROSS	n/a	n/a	n/a	n/a	n/a	n/a	n/a	n/a
239.3811	0.9333	T_COLOR_NAME	11	Neutral	czerwony	red	Neutral	Neutral	hit	n/a
240.2944	n/a	RESPONSE	n/a	n/a	n/a	n/a	n/a	n/a	n/a	red
240.3144	0.5167	FEEDBACK	n/a	n/a	n/a	n/a	n/a	n/a	n/a	n/a
240.8311	1.0167	ITI	n/a	n/a	n/a	n/a	n/a	n/a	n/a	n/a
241.8478	0.5167	FIXCROSS	n/a	n/a	n/a	n/a	n/a	n/a	n/a	n/a
242.3645	1.3667	T_COLOR_NAME	12	Incongruent	niebieski	blue	czerwony	red	incorrect	n/a
243.7016	n/a	RESPONSE	n/a	n/a	n/a	n/a	n/a	n/a	n/a	red
243.7311	0.5167	FEEDBACK	n/a	n/a	n/a	n/a	n/a	n/a	n/a	n/a
243.9735	n/a	RESPONSE	n/a	n/a	n/a	n/a	n/a	n/a	n/a	blue
244.2478	1.0333	ITI	n/a	n/a	n/a	n/a	n/a	n/a	n/a	n/a
248.0366	n/a	RESPONSE	n/a	n/a	n/a	n/a	n/a	n/a	n/a	n/a
248.0979	1.0167	ITI	n/a	n/a	n/a	n/a	n/a	n/a	n/a	n/a
249.1145	0.5167	FIXCROSS	n/a	n/a	n/a	n/a	n/a	n/a	n/a	n/a
249.6312	1.6167	COLOR_NAME	1	Incongruent	żółty	yellow	niebieski	blue	hit	n/a
251.2198	n/a	RESPONSE	n/a	n/a	n/a	n/a	n/a	n/a	n/a	yellow
251.2479	1.0167	ITI	n/a	n/a	n/a	n/a	n/a	n/a	n/a	n/a
252.2646	0.5167	FIXCROSS	n/a	n/a	n/a	n/a	n/a	n/a	n/a	n/a
252.7812	0.9333	COLOR_NAME	2	Incongruent	zielony	green	niebieski	blue	hit	n/a
253.6831	n/a	RESPONSE	n/a	n/a	n/a	n/a	n/a	n/a	n/a	green
253.7146	1.0167	ITI	n/a	n/a	n/a	n/a	n/a	n/a	n/a	n/a
254.7313	0.5167	FIXCROSS	n/a	n/a	n/a	n/a	n/a	n/a	n/a	n/a
255.2479	0.5833	COLOR_NAME	3	Incongruent	czerwony	red	żółty	yellow	hit	n/a
255.8107	n/a	RESPONSE	n/a	n/a	n/a	n/a	n/a	n/a	n/a	red
255.8313	1.0167	ITI	n/a	n/a	n/a	n/a	n/a	n/a	n/a	n/a
256.848	0.5167	FIXCROSS	n/a	n/a	n/a	n/a	n/a	n/a	n/a	n/a
257.3646	0.7167	COLOR_NAME	4	Neutral	niebieski	blue	Neutral	Neutral	hit	n/a
258.0502	n/a	RESPONSE	n/a	n/a	n/a	n/a	n/a	n/a	n/a	blue
258.0813	1.0167	ITI	n/a	n/a	n/a	n/a	n/a	n/a	n/a	n/a
259.098	0.5167	FIXCROSS	n/a	n/a	n/a	n/a	n/a	n/a	n/a	n/a
259.6147	0.5167	COLOR_NAME	5	Incongruent	żółty	yellow	zielony	green	hit	n/a
260.0977	n/a	RESPONSE	n/a	n/a	n/a	n/a	n/a	n/a	n/a	yellow
260.1313	1.0167	ITI	n/a	n/a	n/a	n/a	n/a	n/a	n/a	n/a
261.148	0.5167	FIXCROSS	n/a	n/a	n/a	n/a	n/a	n/a	n/a	n/a
261.6647	0.6833	COLOR_NAME	6	Incongruent	niebieski	blue	zielony	green	hit	n/a
262.3211	n/a	RESPONSE	n/a	n/a	n/a	n/a	n/a	n/a	n/a	blue
262.348	1.0167	ITI	n/a	n/a	n/a	n/a	n/a	n/a	n/a	n/a
263.3647	0.5167	FIXCROSS	n/a	n/a	n/a	n/a	n/a	n/a	n/a	n/a
263.8814	0.6667	COLOR_NAME	7	Incongruent	niebieski	blue	zielony	green	hit	n/a
264.5286	n/a	RESPONSE	n/a	n/a	n/a	n/a	n/a	n/a	n/a	blue
264.548	1.0167	ITI	n/a	n/a	n/a	n/a	n/a	n/a	n/a	n/a
265.5647	0.5167	FIXCROSS	n/a	n/a	n/a	n/a	n/a	n/a	n/a	n/a
266.0814	0.8333	COLOR_NAME	8	Incongruent	żółty	yellow	czerwony	red	hit	n/a
266.896	n/a	RESPONSE	n/a	n/a	n/a	n/a	n/a	n/a	n/a	yellow
266.9147	1.0167	ITI	n/a	n/a	n/a	n/a	n/a	n/a	n/a	n/a
267.9314	0.5167	FIXCROSS	n/a	n/a	n/a	n/a	n/a	n/a	n/a	n/a
268.4481	0.95	COLOR_NAME	9	Neutral	czerwony	red	Neutral	Neutral	hit	n/a
269.3754	n/a	RESPONSE	n/a	n/a	n/a	n/a	n/a	n/a	n/a	red
269.3981	1.0167	ITI	n/a	n/a	n/a	n/a	n/a	n/a	n/a	n/a
270.4148	0.5167	FIXCROSS	n/a	n/a	n/a	n/a	n/a	n/a	n/a	n/a
270.9314	0.7333	COLOR_NAME	10	Incongruent	zielony	green	żółty	yellow	hit	n/a
271.6469	n/a	RESPONSE	n/a	n/a	n/a	n/a	n/a	n/a	n/a	green
271.6648	1.0167	ITI	n/a	n/a	n/a	n/a	n/a	n/a	n/a	n/a
272.6815	0.5167	FIXCROSS	n/a	n/a	n/a	n/a	n/a	n/a	n/a	n/a
273.1981	0.6167	COLOR_NAME	11	Incongruent	zielony	green	niebieski	blue	hit	n/a
273.7904	n/a	RESPONSE	n/a	n/a	n/a	n/a	n/a	n/a	n/a	green
273.8148	1.0167	ITI	n/a	n/a	n/a	n/a	n/a	n/a	n/a	n/a
274.8315	0.5167	FIXCROSS	n/a	n/a	n/a	n/a	n/a	n/a	n/a	n/a
275.3482	0.85	COLOR_NAME	12	Neutral	czerwony	red	Neutral	Neutral	hit	n/a
276.1738	n/a	RESPONSE	n/a	n/a	n/a	n/a	n/a	n/a	n/a	red
276.1982	1.0167	ITI	n/a	n/a	n/a	n/a	n/a	n/a	n/a	n/a
277.2149	0.5167	FIXCROSS	n/a	n/a	n/a	n/a	n/a	n/a	n/a	n/a
277.7315	0.7333	COLOR_NAME	13	Neutral	żółty	yellow	Neutral	Neutral	hit	n/a
278.4453	n/a	RESPONSE	n/a	n/a	n/a	n/a	n/a	n/a	n/a	yellow
278.4649	1.0167	ITI	n/a	n/a	n/a	n/a	n/a	n/a	n/a	n/a
279.4816	0.5167	FIXCROSS	n/a	n/a	n/a	n/a	n/a	n/a	n/a	n/a
279.9982	0.6	COLOR_NAME	14	Incongruent	żółty	yellow	niebieski	blue	hit	n/a
280.5728	n/a	RESPONSE	n/a	n/a	n/a	n/a	n/a	n/a	n/a	yellow
280.5982	1.0167	ITI	n/a	n/a	n/a	n/a	n/a	n/a	n/a	n/a
281.6149	0.5167	FIXCROSS	n/a	n/a	n/a	n/a	n/a	n/a	n/a	n/a
282.1316	0.7333	COLOR_NAME	15	Neutral	czerwony	red	Neutral	Neutral	hit	n/a
282.8442	n/a	RESPONSE	n/a	n/a	n/a	n/a	n/a	n/a	n/a	red
282.8649	1.0167	ITI	n/a	n/a	n/a	n/a	n/a	n/a	n/a	n/a
283.8816	0.5167	FIXCROSS	n/a	n/a	n/a	n/a	n/a	n/a	n/a	n/a
284.3983	0.7667	COLOR_NAME	16	Incongruent	zielony	green	żółty	yellow	hit	n/a
285.1476	n/a	RESPONSE	n/a	n/a	n/a	n/a	n/a	n/a	n/a	green
285.1649	1.0167	ITI	n/a	n/a	n/a	n/a	n/a	n/a	n/a	n/a
286.1816	0.5167	FIXCROSS	n/a	n/a	n/a	n/a	n/a	n/a	n/a	n/a
286.6983	0.8167	COLOR_NAME	17	Incongruent	czerwony	red	niebieski	blue	hit	n/a
287.4831	n/a	RESPONSE	n/a	n/a	n/a	n/a	n/a	n/a	n/a	red
287.515	1.0167	ITI	n/a	n/a	n/a	n/a	n/a	n/a	n/a	n/a
288.5317	0.5167	FIXCROSS	n/a	n/a	n/a	n/a	n/a	n/a	n/a	n/a
289.0483	0.7667	COLOR_NAME	18	Incongruent	niebieski	blue	zielony	green	hit	n/a
289.7865	n/a	RESPONSE	n/a	n/a	n/a	n/a	n/a	n/a	n/a	blue
289.815	1.0167	ITI	n/a	n/a	n/a	n/a	n/a	n/a	n/a	n/a
290.8317	0.5166	FIXCROSS	n/a	n/a	n/a	n/a	n/a	n/a	n/a	n/a
291.3483	0.7167	COLOR_NAME	19	Neutral	żółty	yellow	Neutral	Neutral	hit	n/a
292.042	n/a	RESPONSE	n/a	n/a	n/a	n/a	n/a	n/a	n/a	yellow
292.065	1.0167	ITI	n/a	n/a	n/a	n/a	n/a	n/a	n/a	n/a
293.0817	0.5167	FIXCROSS	n/a	n/a	n/a	n/a	n/a	n/a	n/a	n/a
293.5984	0.6833	COLOR_NAME	20	Neutral	niebieski	blue	Neutral	Neutral	hit	n/a
294.2495	n/a	RESPONSE	n/a	n/a	n/a	n/a	n/a	n/a	n/a	blue
294.2817	1.0167	ITI	n/a	n/a	n/a	n/a	n/a	n/a	n/a	n/a
294.4414	n/a	RESPONSE	n/a	n/a	n/a	n/a	n/a	n/a	n/a	blue
295.2984	0.5167	FIXCROSS	n/a	n/a	n/a	n/a	n/a	n/a	n/a	n/a
295.8151	0.9	COLOR_NAME	21	Neutral	zielony	green	Neutral	Neutral	hit	n/a
296.6968	n/a	RESPONSE	n/a	n/a	n/a	n/a	n/a	n/a	n/a	green
296.7151	1.0167	ITI	n/a	n/a	n/a	n/a	n/a	n/a	n/a	n/a
297.7318	0.5167	FIXCROSS	n/a	n/a	n/a	n/a	n/a	n/a	n/a	n/a
298.2484	0.7	COLOR_NAME	22	Neutral	zielony	green	Neutral	Neutral	hit	n/a
298.9203	n/a	RESPONSE	n/a	n/a	n/a	n/a	n/a	n/a	n/a	green
298.9484	1.0167	ITI	n/a	n/a	n/a	n/a	n/a	n/a	n/a	n/a
299.9651	0.5167	FIXCROSS	n/a	n/a	n/a	n/a	n/a	n/a	n/a	n/a
300.4818	0.6167	COLOR_NAME	23	Neutral	niebieski	blue	Neutral	Neutral	hit	n/a
301.0798	n/a	RESPONSE	n/a	n/a	n/a	n/a	n/a	n/a	n/a	blue
301.0985	1.0167	ITI	n/a	n/a	n/a	n/a	n/a	n/a	n/a	n/a
302.1151	0.5167	FIXCROSS	n/a	n/a	n/a	n/a	n/a	n/a	n/a	n/a
302.6318	0.6	COLOR_NAME	24	Incongruent	niebieski	blue	czerwony	red	hit	n/a
303.2073	n/a	RESPONSE	n/a	n/a	n/a	n/a	n/a	n/a	n/a	blue
303.2318	1.0167	ITI	n/a	n/a	n/a	n/a	n/a	n/a	n/a	n/a
304.2485	0.5167	FIXCROSS	n/a	n/a	n/a	n/a	n/a	n/a	n/a	n/a
304.7652	0.6833	COLOR_NAME	25	Incongruent	czerwony	red	zielony	green	hit	n/a
305.4148	n/a	RESPONSE	n/a	n/a	n/a	n/a	n/a	n/a	n/a	red
305.4485	1.0167	ITI	n/a	n/a	n/a	n/a	n/a	n/a	n/a	n/a
306.4652	0.5167	FIXCROSS	n/a	n/a	n/a	n/a	n/a	n/a	n/a	n/a
306.9819	0.9	COLOR_NAME	26	Incongruent	zielony	green	czerwony	red	hit	n/a
307.8622	n/a	RESPONSE	n/a	n/a	n/a	n/a	n/a	n/a	n/a	green
307.8819	1.0167	ITI	n/a	n/a	n/a	n/a	n/a	n/a	n/a	n/a
308.8986	0.5167	FIXCROSS	n/a	n/a	n/a	n/a	n/a	n/a	n/a	n/a
309.4152	0.5333	COLOR_NAME	27	Incongruent	zielony	green	żółty	yellow	hit	n/a
309.9257	n/a	RESPONSE	n/a	n/a	n/a	n/a	n/a	n/a	n/a	green
309.9486	1.0167	ITI	n/a	n/a	n/a	n/a	n/a	n/a	n/a	n/a
310.9652	0.5167	FIXCROSS	n/a	n/a	n/a	n/a	n/a	n/a	n/a	n/a
311.4819	0.7833	COLOR_NAME	28	Neutral	niebieski	blue	Neutral	Neutral	hit	n/a
312.2452	n/a	RESPONSE	n/a	n/a	n/a	n/a	n/a	n/a	n/a	blue
312.2653	1.0167	ITI	n/a	n/a	n/a	n/a	n/a	n/a	n/a	n/a
313.2819	0.5167	FIXCROSS	n/a	n/a	n/a	n/a	n/a	n/a	n/a	n/a
313.7986	0.9667	COLOR_NAME	29	Neutral	zielony	green	Neutral	Neutral	hit	n/a
314.7406	n/a	RESPONSE	n/a	n/a	n/a	n/a	n/a	n/a	n/a	green
314.7653	1.0167	ITI	n/a	n/a	n/a	n/a	n/a	n/a	n/a	n/a
315.782	0.5167	FIXCROSS	n/a	n/a	n/a	n/a	n/a	n/a	n/a	n/a
316.2986	1.4333	COLOR_NAME	30	Incongruent	niebieski	blue	żółty	yellow	hit	n/a
317.6998	n/a	RESPONSE	n/a	n/a	n/a	n/a	n/a	n/a	n/a	blue
317.732	1.0167	ITI	n/a	n/a	n/a	n/a	n/a	n/a	n/a	n/a
318.7487	0.5167	FIXCROSS	n/a	n/a	n/a	n/a	n/a	n/a	n/a	n/a
319.2653	0.7	COLOR_NAME	31	Neutral	żółty	yellow	Neutral	Neutral	hit	n/a
319.9393	n/a	RESPONSE	n/a	n/a	n/a	n/a	n/a	n/a	n/a	yellow
319.9654	1.0167	ITI	n/a	n/a	n/a	n/a	n/a	n/a	n/a	n/a
320.982	0.5167	FIXCROSS	n/a	n/a	n/a	n/a	n/a	n/a	n/a	n/a
321.4987	0.8167	COLOR_NAME	32	Incongruent	niebieski	blue	czerwony	red	hit	n/a
322.2907	n/a	RESPONSE	n/a	n/a	n/a	n/a	n/a	n/a	n/a	blue
322.3154	1.0167	ITI	n/a	n/a	n/a	n/a	n/a	n/a	n/a	n/a
323.3321	0.5167	FIXCROSS	n/a	n/a	n/a	n/a	n/a	n/a	n/a	n/a
323.8487	0.9167	COLOR_NAME	33	Incongruent	zielony	green	niebieski	blue	hit	n/a
324.7382	n/a	RESPONSE	n/a	n/a	n/a	n/a	n/a	n/a	n/a	green
324.7654	1.0167	ITI	n/a	n/a	n/a	n/a	n/a	n/a	n/a	n/a
325.7821	0.5167	FIXCROSS	n/a	n/a	n/a	n/a	n/a	n/a	n/a	n/a
326.2988	0.6833	COLOR_NAME	34	Neutral	żółty	yellow	Neutral	Neutral	hit	n/a
326.9617	n/a	RESPONSE	n/a	n/a	n/a	n/a	n/a	n/a	n/a	yellow
326.9821	1.0167	ITI	n/a	n/a	n/a	n/a	n/a	n/a	n/a	n/a
327.9988	0.5167	FIXCROSS	n/a	n/a	n/a	n/a	n/a	n/a	n/a	n/a
328.5154	0.8	COLOR_NAME	35	Neutral	czerwony	red	Neutral	Neutral	hit	n/a
329.2971	n/a	RESPONSE	n/a	n/a	n/a	n/a	n/a	n/a	n/a	red
329.3155	1.0167	ITI	n/a	n/a	n/a	n/a	n/a	n/a	n/a	n/a
330.3321	0.5167	FIXCROSS	n/a	n/a	n/a	n/a	n/a	n/a	n/a	n/a
330.8488	0.7167	COLOR_NAME	36	Neutral	niebieski	blue	Neutral	Neutral	hit	n/a
331.5365	n/a	RESPONSE	n/a	n/a	n/a	n/a	n/a	n/a	n/a	blue
331.5655	1.0167	ITI	n/a	n/a	n/a	n/a	n/a	n/a	n/a	n/a
332.5822	0.5167	FIXCROSS	n/a	n/a	n/a	n/a	n/a	n/a	n/a	n/a
333.0988	0.8167	COLOR_NAME	37	Neutral	zielony	green	Neutral	Neutral	hit	n/a
333.888	n/a	RESPONSE	n/a	n/a	n/a	n/a	n/a	n/a	n/a	green
333.9155	1.0167	ITI	n/a	n/a	n/a	n/a	n/a	n/a	n/a	n/a
334.9322	0.5167	FIXCROSS	n/a	n/a	n/a	n/a	n/a	n/a	n/a	n/a
335.4489	1.1167	COLOR_NAME	38	Incongruent	czerwony	red	żółty	yellow	hit	n/a
336.5433	n/a	RESPONSE	n/a	n/a	n/a	n/a	n/a	n/a	n/a	red
336.5655	1.0167	ITI	n/a	n/a	n/a	n/a	n/a	n/a	n/a	n/a
337.5822	0.5167	FIXCROSS	n/a	n/a	n/a	n/a	n/a	n/a	n/a	n/a
338.0989	0.7167	COLOR_NAME	39	Neutral	niebieski	blue	Neutral	Neutral	hit	n/a
338.7828	n/a	RESPONSE	n/a	n/a	n/a	n/a	n/a	n/a	n/a	blue
338.8156	1.0167	ITI	n/a	n/a	n/a	n/a	n/a	n/a	n/a	n/a
339.8322	0.5167	FIXCROSS	n/a	n/a	n/a	n/a	n/a	n/a	n/a	n/a
340.3489	0.6	COLOR_NAME	40	Neutral	niebieski	blue	Neutral	Neutral	hit	n/a
340.9263	n/a	RESPONSE	n/a	n/a	n/a	n/a	n/a	n/a	n/a	blue
340.9489	1.0167	ITI	n/a	n/a	n/a	n/a	n/a	n/a	n/a	n/a
341.9656	0.5167	FIXCROSS	n/a	n/a	n/a	n/a	n/a	n/a	n/a	n/a
342.4823	0.5667	COLOR_NAME	41	Incongruent	niebieski	blue	czerwony	red	hit	n/a
343.0217	n/a	RESPONSE	n/a	n/a	n/a	n/a	n/a	n/a	n/a	blue
343.0489	1.0167	ITI	n/a	n/a	n/a	n/a	n/a	n/a	n/a	n/a
344.0656	0.5167	FIXCROSS	n/a	n/a	n/a	n/a	n/a	n/a	n/a	n/a
344.5823	0.7667	COLOR_NAME	42	Neutral	zielony	green	Neutral	Neutral	hit	n/a
345.3252	n/a	RESPONSE	n/a	n/a	n/a	n/a	n/a	n/a	n/a	green
345.349	1.0167	ITI	n/a	n/a	n/a	n/a	n/a	n/a	n/a	n/a
346.3657	0.5167	FIXCROSS	n/a	n/a	n/a	n/a	n/a	n/a	n/a	n/a
346.8823	0.6333	COLOR_NAME	43	Neutral	żółty	yellow	Neutral	Neutral	hit	n/a
347.4847	n/a	RESPONSE	n/a	n/a	n/a	n/a	n/a	n/a	n/a	yellow
347.5157	1.0167	ITI	n/a	n/a	n/a	n/a	n/a	n/a	n/a	n/a
348.5323	0.5167	FIXCROSS	n/a	n/a	n/a	n/a	n/a	n/a	n/a	n/a
349.049	0.8	COLOR_NAME	44	Neutral	czerwony	red	Neutral	Neutral	hit	n/a
349.8201	n/a	RESPONSE	n/a	n/a	n/a	n/a	n/a	n/a	n/a	red
349.849	1.0167	ITI	n/a	n/a	n/a	n/a	n/a	n/a	n/a	n/a
350.8657	0.5167	FIXCROSS	n/a	n/a	n/a	n/a	n/a	n/a	n/a	n/a
351.3824	0.7667	COLOR_NAME	45	Incongruent	żółty	yellow	zielony	green	incorrect	n/a
352.1236	n/a	RESPONSE	n/a	n/a	n/a	n/a	n/a	n/a	n/a	green
352.149	1.0167	ITI	n/a	n/a	n/a	n/a	n/a	n/a	n/a	n/a
352.1876	n/a	RESPONSE	n/a	n/a	n/a	n/a	n/a	n/a	n/a	yellow
353.1657	0.5167	FIXCROSS	n/a	n/a	n/a	n/a	n/a	n/a	n/a	n/a
353.6824	0.85	COLOR_NAME	46	Incongruent	czerwony	red	niebieski	blue	hit	n/a
354.507	n/a	RESPONSE	n/a	n/a	n/a	n/a	n/a	n/a	n/a	red
354.5324	1.0167	ITI	n/a	n/a	n/a	n/a	n/a	n/a	n/a	n/a
355.5491	0.5167	FIXCROSS	n/a	n/a	n/a	n/a	n/a	n/a	n/a	n/a
356.0658	0.8834	COLOR_NAME	47	Neutral	zielony	green	Neutral	Neutral	hit	n/a
356.9225	n/a	RESPONSE	n/a	n/a	n/a	n/a	n/a	n/a	n/a	green
356.9491	1.0167	ITI	n/a	n/a	n/a	n/a	n/a	n/a	n/a	n/a
357.9658	0.5167	FIXCROSS	n/a	n/a	n/a	n/a	n/a	n/a	n/a	n/a
358.4825	0.8667	COLOR_NAME	48	Neutral	czerwony	red	Neutral	Neutral	hit	n/a
359.3219	n/a	RESPONSE	n/a	n/a	n/a	n/a	n/a	n/a	n/a	red
359.3491	1.0167	ITI	n/a	n/a	n/a	n/a	n/a	n/a	n/a	n/a
360.3658	0.5167	FIXCROSS	n/a	n/a	n/a	n/a	n/a	n/a	n/a	n/a
360.8825	0.7833	COLOR_NAME	49	Incongruent	niebieski	blue	żółty	yellow	hit	n/a
361.6413	n/a	RESPONSE	n/a	n/a	n/a	n/a	n/a	n/a	n/a	blue
361.6658	1.0167	ITI	n/a	n/a	n/a	n/a	n/a	n/a	n/a	n/a
362.6825	0.5167	FIXCROSS	n/a	n/a	n/a	n/a	n/a	n/a	n/a	n/a
363.1992	0.7333	COLOR_NAME	50	Incongruent	czerwony	red	zielony	green	hit	n/a
363.9128	n/a	RESPONSE	n/a	n/a	n/a	n/a	n/a	n/a	n/a	red
363.9325	1.0167	ITI	n/a	n/a	n/a	n/a	n/a	n/a	n/a	n/a
364.9492	0.5167	FIXCROSS	n/a	n/a	n/a	n/a	n/a	n/a	n/a	n/a
365.4659	1.0	COLOR_NAME	51	Neutral	zielony	green	Neutral	Neutral	hit	n/a
366.4402	n/a	RESPONSE	n/a	n/a	n/a	n/a	n/a	n/a	n/a	green
366.4659	1.0167	ITI	n/a	n/a	n/a	n/a	n/a	n/a	n/a	n/a
367.4826	0.5167	FIXCROSS	n/a	n/a	n/a	n/a	n/a	n/a	n/a	n/a
367.9992	0.6833	COLOR_NAME	52	Incongruent	żółty	yellow	niebieski	blue	hit	n/a
368.6636	n/a	RESPONSE	n/a	n/a	n/a	n/a	n/a	n/a	n/a	yellow
368.6826	1.0167	ITI	n/a	n/a	n/a	n/a	n/a	n/a	n/a	n/a
369.6992	0.5167	FIXCROSS	n/a	n/a	n/a	n/a	n/a	n/a	n/a	n/a
370.2159	0.9167	COLOR_NAME	53	Incongruent	niebieski	blue	żółty	yellow	hit	n/a
371.1111	n/a	RESPONSE	n/a	n/a	n/a	n/a	n/a	n/a	n/a	blue
371.1326	1.0167	ITI	n/a	n/a	n/a	n/a	n/a	n/a	n/a	n/a
372.1493	0.5167	FIXCROSS	n/a	n/a	n/a	n/a	n/a	n/a	n/a	n/a
372.6659	0.6667	COLOR_NAME	54	Neutral	żółty	yellow	Neutral	Neutral	hit	n/a
373.3025	n/a	RESPONSE	n/a	n/a	n/a	n/a	n/a	n/a	n/a	yellow
373.3326	1.0167	ITI	n/a	n/a	n/a	n/a	n/a	n/a	n/a	n/a
374.3493	0.5167	FIXCROSS	n/a	n/a	n/a	n/a	n/a	n/a	n/a	n/a
374.866	0.7667	COLOR_NAME	55	Neutral	czerwony	red	Neutral	Neutral	hit	n/a
375.606	n/a	RESPONSE	n/a	n/a	n/a	n/a	n/a	n/a	n/a	red
375.6326	1.0167	ITI	n/a	n/a	n/a	n/a	n/a	n/a	n/a	n/a
375.8299	n/a	RESPONSE	n/a	n/a	n/a	n/a	n/a	n/a	n/a	red
376.6493	0.5167	FIXCROSS	n/a	n/a	n/a	n/a	n/a	n/a	n/a	n/a
377.166	0.6167	COLOR_NAME	56	Neutral	niebieski	blue	Neutral	Neutral	hit	n/a
377.7494	n/a	RESPONSE	n/a	n/a	n/a	n/a	n/a	n/a	n/a	blue
377.7827	1.0167	ITI	n/a	n/a	n/a	n/a	n/a	n/a	n/a	n/a
378.7994	0.5167	FIXCROSS	n/a	n/a	n/a	n/a	n/a	n/a	n/a	n/a
379.316	0.7333	COLOR_NAME	57	Neutral	żółty	yellow	Neutral	Neutral	hit	n/a
380.0209	n/a	RESPONSE	n/a	n/a	n/a	n/a	n/a	n/a	n/a	yellow
380.0494	1.0167	ITI	n/a	n/a	n/a	n/a	n/a	n/a	n/a	n/a
381.066	0.5167	FIXCROSS	n/a	n/a	n/a	n/a	n/a	n/a	n/a	n/a
381.5827	0.6333	COLOR_NAME	58	Neutral	żółty	yellow	Neutral	Neutral	hit	n/a
382.1964	n/a	RESPONSE	n/a	n/a	n/a	n/a	n/a	n/a	n/a	yellow
382.2161	1.0167	ITI	n/a	n/a	n/a	n/a	n/a	n/a	n/a	n/a
383.2327	0.5167	FIXCROSS	n/a	n/a	n/a	n/a	n/a	n/a	n/a	n/a
383.7494	0.8333	COLOR_NAME	59	Neutral	zielony	green	Neutral	Neutral	incorrect	n/a
384.5638	n/a	RESPONSE	n/a	n/a	n/a	n/a	n/a	n/a	n/a	red
384.5828	1.0167	ITI	n/a	n/a	n/a	n/a	n/a	n/a	n/a	n/a
385.5994	0.5167	FIXCROSS	n/a	n/a	n/a	n/a	n/a	n/a	n/a	n/a
386.1161	1.1833	COLOR_NAME	60	Incongruent	żółty	yellow	czerwony	red	hit	n/a
387.2672	n/a	RESPONSE	n/a	n/a	n/a	n/a	n/a	n/a	n/a	yellow
387.2994	1.0167	ITI	n/a	n/a	n/a	n/a	n/a	n/a	n/a	n/a
388.3161	0.5167	FIXCROSS	n/a	n/a	n/a	n/a	n/a	n/a	n/a	n/a
388.8328	0.5167	COLOR_NAME	61	Neutral	żółty	yellow	Neutral	Neutral	hit	n/a
389.3307	n/a	RESPONSE	n/a	n/a	n/a	n/a	n/a	n/a	n/a	yellow
389.3495	1.0167	ITI	n/a	n/a	n/a	n/a	n/a	n/a	n/a	n/a
390.3662	0.5167	FIXCROSS	n/a	n/a	n/a	n/a	n/a	n/a	n/a	n/a
390.8828	0.5333	COLOR_NAME	62	Incongruent	żółty	yellow	czerwony	red	hit	n/a
391.3942	n/a	RESPONSE	n/a	n/a	n/a	n/a	n/a	n/a	n/a	yellow
391.4162	1.0167	ITI	n/a	n/a	n/a	n/a	n/a	n/a	n/a	n/a
392.4328	0.5167	FIXCROSS	n/a	n/a	n/a	n/a	n/a	n/a	n/a	n/a
392.9495	1.4667	COLOR_NAME	63	Neutral	czerwony	red	Neutral	Neutral	hit	n/a
394.3855	n/a	RESPONSE	n/a	n/a	n/a	n/a	n/a	n/a	n/a	red
394.4162	1.0167	ITI	n/a	n/a	n/a	n/a	n/a	n/a	n/a	n/a
395.4329	0.5167	FIXCROSS	n/a	n/a	n/a	n/a	n/a	n/a	n/a	n/a
395.9496	0.5667	COLOR_NAME	64	Incongruent	żółty	yellow	zielony	green	hit	n/a
396.4969	n/a	RESPONSE	n/a	n/a	n/a	n/a	n/a	n/a	n/a	yellow
396.5162	1.0167	ITI	n/a	n/a	n/a	n/a	n/a	n/a	n/a	n/a
397.5329	0.5167	FIXCROSS	n/a	n/a	n/a	n/a	n/a	n/a	n/a	n/a
398.0496	0.6833	COLOR_NAME	65	Incongruent	czerwony	red	żółty	yellow	hit	n/a
398.7044	n/a	RESPONSE	n/a	n/a	n/a	n/a	n/a	n/a	n/a	red
398.7329	1.0167	ITI	n/a	n/a	n/a	n/a	n/a	n/a	n/a	n/a
399.7496	0.5167	FIXCROSS	n/a	n/a	n/a	n/a	n/a	n/a	n/a	n/a
400.2663	0.5833	COLOR_NAME	66	Incongruent	czerwony	red	zielony	green	hit	n/a
400.8319	n/a	RESPONSE	n/a	n/a	n/a	n/a	n/a	n/a	n/a	red
400.8496	1.0167	ITI	n/a	n/a	n/a	n/a	n/a	n/a	n/a	n/a
401.8663	0.5167	FIXCROSS	n/a	n/a	n/a	n/a	n/a	n/a	n/a	n/a
402.383	0.4667	COLOR_NAME	67	Neutral	niebieski	blue	Neutral	Neutral	hit	n/a
402.8314	n/a	RESPONSE	n/a	n/a	n/a	n/a	n/a	n/a	n/a	blue
402.8496	1.0167	ITI	n/a	n/a	n/a	n/a	n/a	n/a	n/a	n/a
403.8663	0.5167	FIXCROSS	n/a	n/a	n/a	n/a	n/a	n/a	n/a	n/a
404.383	0.5667	COLOR_NAME	68	Incongruent	zielony	green	czerwony	red	hit	n/a
404.9269	n/a	RESPONSE	n/a	n/a	n/a	n/a	n/a	n/a	n/a	green
404.9497	1.0167	ITI	n/a	n/a	n/a	n/a	n/a	n/a	n/a	n/a
405.9663	0.5167	FIXCROSS	n/a	n/a	n/a	n/a	n/a	n/a	n/a	n/a
406.483	0.6833	COLOR_NAME	69	Neutral	czerwony	red	Neutral	Neutral	hit	n/a
407.1344	n/a	RESPONSE	n/a	n/a	n/a	n/a	n/a	n/a	n/a	red
407.1663	1.0167	ITI	n/a	n/a	n/a	n/a	n/a	n/a	n/a	n/a
408.183	0.5167	FIXCROSS	n/a	n/a	n/a	n/a	n/a	n/a	n/a	n/a
408.6997	0.7333	COLOR_NAME	70	Incongruent	zielony	green	czerwony	red	hit	n/a
409.4059	n/a	RESPONSE	n/a	n/a	n/a	n/a	n/a	n/a	n/a	green
409.433	1.0167	ITI	n/a	n/a	n/a	n/a	n/a	n/a	n/a	n/a
410.4497	0.5167	FIXCROSS	n/a	n/a	n/a	n/a	n/a	n/a	n/a	n/a
410.9664	1.0333	COLOR_NAME	71	Incongruent	czerwony	red	niebieski	blue	hit	n/a
411.9812	n/a	RESPONSE	n/a	n/a	n/a	n/a	n/a	n/a	n/a	red
411.9997	1.0167	ITI	n/a	n/a	n/a	n/a	n/a	n/a	n/a	n/a
413.0164	0.5167	FIXCROSS	n/a	n/a	n/a	n/a	n/a	n/a	n/a	n/a
413.5331	1.1333	COLOR_NAME	72	Neutral	zielony	green	Neutral	Neutral	hit	n/a
414.6366	n/a	RESPONSE	n/a	n/a	n/a	n/a	n/a	n/a	n/a	green
414.6664	1.0333	ITI	n/a	n/a	n/a	n/a	n/a	n/a	n/a	n/a
420.5072	n/a	RESPONSE	n/a	n/a	n/a	n/a	n/a	n/a	n/a	n/a
