onset	duration	trial_type	braille_stimulus	targets	response_count
2.015	2.008	CUE_REST	n/a	n/a	n/a
7.015	1.008	FIXCROSS	n/a	n/a	n/a
13.065	1.008	FIXCROSS	n/a	n/a	n/a
21.124	2.008	CUE_6_DOT	n/a	n/a	n/a
26.124	1.008	FIXCROSS	n/a	n/a	n/a
27.14	5.008	6_DOT_DETECTION	K#OBU	1	n/a
32.174	1.008	FIXCROSS	n/a	n/a	n/a
33.19	5.009	6_DOT_DETECTION	##BYM	2	n/a
34.736	n/a	RESPONSE	n/a	n/a	1/2
36.016	n/a	RESPONSE	n/a	n/a	2/2
38.224	1.008	FIXCROSS	n/a	n/a	n/a
39.24	5.009	6_DOT_DETECTION	#MOI#	2	n/a
40.4	n/a	RESPONSE	n/a	n/a	1/2
42.68	n/a	RESPONSE	n/a	n/a	2/2
44.274	1.008	FIXCROSS	n/a	n/a	n/a
45.29	5.009	6_DOT_DETECTION	PBC#O	1	n/a
48.36	n/a	RESPONSE	n/a	n/a	1/1
50.324	1.008	FIXCROSS	n/a	n/a	n/a
51.34	5.008	6_DOT_DETECTION	#CSDŁ	1	n/a
52.896	n/a	RESPONSE	n/a	n/a	1/1
56.374	1.008	FIXCROSS	n/a	n/a	n/a
57.39	5.008	6_DOT_DETECTION	TMPLP	0	n/a
62.424	1.008	FIXCROSS	n/a	n/a	n/a
63.44	5.008	6_DOT_DETECTION	PIK#S	1	n/a
66.24	n/a	RESPONSE	n/a	n/a	1/1
68.474	1.008	FIXCROSS	n/a	n/a	n/a
69.49	5.009	6_DOT_DETECTION	##PUK	2	n/a
70.6	n/a	RESPONSE	n/a	n/a	1/2
71.52	n/a	RESPONSE	n/a	n/a	2/2
76.032	2.008	CUE_REST	n/a	n/a	n/a
82.532	1.008	FIXCROSS	n/a	n/a	n/a
88.582	1.008	FIXCROSS	n/a	n/a	n/a
95.641	2.008	CUE_6_DOT	n/a	n/a	n/a
100.641	1.008	FIXCROSS	n/a	n/a	n/a
101.657	5.008	6_DOT_DETECTION	#PYL#	2	n/a
103.536	n/a	RESPONSE	n/a	n/a	1/2
105.32	n/a	RESPONSE	n/a	n/a	2/2
106.496	n/a	RESPONSE	n/a	n/a	3/2
106.691	1.008	FIXCROSS	n/a	n/a	n/a
107.707	5.009	6_DOT_DETECTION	#LOB#	2	n/a
109.256	n/a	RESPONSE	n/a	n/a	1/2
111.456	n/a	RESPONSE	n/a	n/a	2/2
112.741	1.008	FIXCROSS	n/a	n/a	n/a
113.757	5.009	6_DOT_DETECTION	KKBDB	0	n/a
116.256	n/a	RESPONSE	n/a	n/a	1/0
118.791	1.008	FIXCROSS	n/a	n/a	n/a
119.807	5.008	6_DOT_DETECTION	#MOC#	2	n/a
121.136	n/a	RESPONSE	n/a	n/a	1/2
123.896	n/a	RESPONSE	n/a	n/a	2/2
124.841	1.008	FIXCROSS	n/a	n/a	n/a
125.857	5.008	6_DOT_DETECTION	OYOEL	0	n/a
130.891	1.008	FIXCROSS	n/a	n/a	n/a
131.907	5.008	6_DOT_DETECTION	UICCI	0	n/a
136.941	1.008	FIXCROSS	n/a	n/a	n/a
137.957	5.009	6_DOT_DETECTION	YYSAT	0	n/a
141.76	n/a	RESPONSE	n/a	n/a	1/0
142.991	1.008	FIXCROSS	n/a	n/a	n/a
144.007	5.008	6_DOT_DETECTION	ŁEB##	2	n/a
147.096	n/a	RESPONSE	n/a	n/a	1/2
148.04	n/a	RESPONSE	n/a	n/a	2/2
150.549	2.008	CUE_REST	n/a	n/a	n/a
155.049	1.008	FIXCROSS	n/a	n/a	n/a
161.099	1.008	FIXCROSS	n/a	n/a	n/a
168.658	2.008	CUE_6_DOT	n/a	n/a	n/a
175.158	1.008	FIXCROSS	n/a	n/a	n/a
176.174	5.008	6_DOT_DETECTION	ILE#A	1	n/a
179.696	n/a	RESPONSE	n/a	n/a	1/1
181.208	1.008	FIXCROSS	n/a	n/a	n/a
182.224	5.008	6_DOT_DETECTION	#ULU#	2	n/a
183.496	n/a	RESPONSE	n/a	n/a	1/2
186.216	n/a	RESPONSE	n/a	n/a	2/2
187.258	1.008	FIXCROSS	n/a	n/a	n/a
188.274	5.008	6_DOT_DETECTION	OŁKKŁ	0	n/a
193.308	1.008	FIXCROSS	n/a	n/a	n/a
194.324	5.008	6_DOT_DETECTION	ŁBY##	2	n/a
196.816	n/a	RESPONSE	n/a	n/a	1/2
197.84	n/a	RESPONSE	n/a	n/a	2/2
199.358	1.008	FIXCROSS	n/a	n/a	n/a
200.374	5.008	6_DOT_DETECTION	UTCKE	0	n/a
205.408	1.008	FIXCROSS	n/a	n/a	n/a
206.424	5.009	6_DOT_DETECTION	T#ŁUK	1	n/a
208.24	n/a	RESPONSE	n/a	n/a	1/1
211.458	1.008	FIXCROSS	n/a	n/a	n/a
212.474	5.009	6_DOT_DETECTION	ALCBC	0	n/a
217.508	1.008	FIXCROSS	n/a	n/a	n/a
218.524	5.008	6_DOT_DETECTION	MOL#I	1	n/a
221.04	n/a	RESPONSE	n/a	n/a	1/1
225.566	2.008	CUE_REST	n/a	n/a	n/a
229.566	1.008	FIXCROSS	n/a	n/a	n/a
235.616	1.008	FIXCROSS	n/a	n/a	n/a
243.674	2.008	CUE_6_DOT	n/a	n/a	n/a
249.674	1.008	FIXCROSS	n/a	n/a	n/a
250.691	5.008	6_DOT_DETECTION	ELKYB	0	n/a
254.16	n/a	RESPONSE	n/a	n/a	1/0
255.724	1.008	FIXCROSS	n/a	n/a	n/a
256.741	5.008	6_DOT_DETECTION	CUI#A	1	n/a
259.32	n/a	RESPONSE	n/a	n/a	1/1
261.774	1.008	FIXCROSS	n/a	n/a	n/a
262.791	5.008	6_DOT_DETECTION	A#KŁA	1	n/a
264.8	n/a	RESPONSE	n/a	n/a	1/1
267.824	1.008	FIXCROSS	n/a	n/a	n/a
268.84	5.009	6_DOT_DETECTION	#DCBK	1	n/a
270.456	n/a	RESPONSE	n/a	n/a	1/1
273.874	1.008	FIXCROSS	n/a	n/a	n/a
274.891	5.009	6_DOT_DETECTION	DAL#S	1	n/a
278.32	n/a	RESPONSE	n/a	n/a	1/1
279.924	1.008	FIXCROSS	n/a	n/a	n/a
280.941	5.009	6_DOT_DETECTION	CLCLK	0	n/a
285.974	1.008	FIXCROSS	n/a	n/a	n/a
286.991	5.008	6_DOT_DETECTION	DDLYC	0	n/a
288.816	n/a	RESPONSE	n/a	n/a	1/0
292.024	1.008	FIXCROSS	n/a	n/a	n/a
293.041	5.009	6_DOT_DETECTION	CLU#L	1	n/a
296.32	n/a	RESPONSE	n/a	n/a	1/1
299.083	2.008	CUE_REST	n/a	n/a	n/a
305.083	1.008	FIXCROSS	n/a	n/a	n/a
311.133	1.008	FIXCROSS	n/a	n/a	n/a
318.691	2.008	CUE_6_DOT	n/a	n/a	n/a
324.191	1.008	FIXCROSS	n/a	n/a	n/a
325.208	5.008	6_DOT_DETECTION	CEP##	2	n/a
328.016	n/a	RESPONSE	n/a	n/a	1/2
328.76	n/a	RESPONSE	n/a	n/a	2/2
330.241	1.008	FIXCROSS	n/a	n/a	n/a
331.257	5.009	6_DOT_DETECTION	BOM##	2	n/a
334.256	n/a	RESPONSE	n/a	n/a	1/2
335.16	n/a	RESPONSE	n/a	n/a	2/2
336.291	1.008	FIXCROSS	n/a	n/a	n/a
337.307	5.009	6_DOT_DETECTION	PIŁ##	2	n/a
340.52	n/a	RESPONSE	n/a	n/a	1/2
341.52	n/a	RESPONSE	n/a	n/a	2/2
342.341	1.008	FIXCROSS	n/a	n/a	n/a
343.358	5.008	6_DOT_DETECTION	Ł#BCO	1	n/a
345.24	n/a	RESPONSE	n/a	n/a	1/1
348.391	1.008	FIXCROSS	n/a	n/a	n/a
349.408	5.008	6_DOT_DETECTION	##DAŁ	2	n/a
350.88	n/a	RESPONSE	n/a	n/a	1/2
354.441	1.008	FIXCROSS	n/a	n/a	n/a
355.457	5.009	6_DOT_DETECTION	A#KAT	1	n/a
357.6	n/a	RESPONSE	n/a	n/a	1/1
359.16	n/a	RESPONSE	n/a	n/a	2/1
360.491	1.008	FIXCROSS	n/a	n/a	n/a
361.508	5.009	6_DOT_DETECTION	##LOT	2	n/a
363.04	n/a	RESPONSE	n/a	n/a	1/2
365.04	n/a	RESPONSE	n/a	n/a	2/2
366.541	1.008	FIXCROSS	n/a	n/a	n/a
367.558	5.008	6_DOT_DETECTION	ITPCY	0	n/a
371.016	n/a	RESPONSE	n/a	n/a	1/0
373.599	2.009	CUE_REST	n/a	n/a	n/a
380.6	1.008	FIXCROSS	n/a	n/a	n/a
386.65	1.008	FIXCROSS	n/a	n/a	n/a
393.708	2.008	CUE_6_DOT	n/a	n/a	n/a
398.708	1.008	FIXCROSS	n/a	n/a	n/a
399.725	5.008	6_DOT_DETECTION	EDDCK	0	n/a
404.758	1.008	FIXCROSS	n/a	n/a	n/a
405.775	5.008	6_DOT_DETECTION	##MUS	2	n/a
407.56	n/a	RESPONSE	n/a	n/a	1/2
410.808	1.008	FIXCROSS	n/a	n/a	n/a
411.825	5.008	6_DOT_DETECTION	AMUPT	0	n/a
416.858	1.008	FIXCROSS	n/a	n/a	n/a
417.874	5.009	6_DOT_DETECTION	LEDLB	0	n/a
422.908	1.008	FIXCROSS	n/a	n/a	n/a
423.924	5.009	6_DOT_DETECTION	UKPBB	0	n/a
428.958	1.008	FIXCROSS	n/a	n/a	n/a
429.975	5.008	6_DOT_DETECTION	DL#KU	1	n/a
432.856	n/a	RESPONSE	n/a	n/a	1/1
433.512	n/a	RESPONSE	n/a	n/a	2/1
435.008	1.008	FIXCROSS	n/a	n/a	n/a
436.025	5.008	6_DOT_DETECTION	PSEIP	0	n/a
441.058	1.008	FIXCROSS	n/a	n/a	n/a
442.075	5.008	6_DOT_DETECTION	E#CEL	1	n/a
443.752	n/a	RESPONSE	n/a	n/a	1/1
