onset	duration	trial_type	trial_number	stroop_condition	stim_text(PL)	stim_text(eng)	stim_color(PL)	stim_color(eng)	response_type	response_color
0.0	n/a	RESPONSE	n/a	n/a	n/a	n/a	n/a	n/a	n/a	n/a
0.0566	1.0333	ITI	n/a	n/a	n/a	n/a	n/a	n/a	n/a	n/a
1.0899	0.5167	FIXCROSS	n/a	n/a	n/a	n/a	n/a	n/a	n/a	n/a
1.6066	2.6167	T_INK	1	Incongruent	czerwony	red	żółty	yellow	incorrect	n/a
4.1909	n/a	RESPONSE	n/a	n/a	n/a	n/a	n/a	n/a	n/a	red
4.2233	0.5167	FEEDBACK	n/a	n/a	n/a	n/a	n/a	n/a	n/a	n/a
4.74	1.0167	ITI	n/a	n/a	n/a	n/a	n/a	n/a	n/a	n/a
5.7566	0.5167	FIXCROSS	n/a	n/a	n/a	n/a	n/a	n/a	n/a	n/a
6.2733	1.0333	T_INK	2	Neutral	xxxxxxxxx	xxxxxxxxx	zielony	green	hit	n/a
7.2781	n/a	RESPONSE	n/a	n/a	n/a	n/a	n/a	n/a	n/a	green
7.3066	0.5167	FEEDBACK	n/a	n/a	n/a	n/a	n/a	n/a	n/a	n/a
7.8233	1.0167	ITI	n/a	n/a	n/a	n/a	n/a	n/a	n/a	n/a
8.84	0.5167	FIXCROSS	n/a	n/a	n/a	n/a	n/a	n/a	n/a	n/a
9.3567	0.75	T_INK	3	Neutral	xxxxxxxxx	xxxxxxxxx	żółty	yellow	hit	n/a
10.0774	n/a	RESPONSE	n/a	n/a	n/a	n/a	n/a	n/a	n/a	yellow
10.1067	0.5167	FEEDBACK	n/a	n/a	n/a	n/a	n/a	n/a	n/a	n/a
10.6233	1.0167	ITI	n/a	n/a	n/a	n/a	n/a	n/a	n/a	n/a
11.64	0.5167	FIXCROSS	n/a	n/a	n/a	n/a	n/a	n/a	n/a	n/a
12.1567	1.15	T_INK	4	Incongruent	niebieski	blue	zielony	green	hit	n/a
13.2765	n/a	RESPONSE	n/a	n/a	n/a	n/a	n/a	n/a	n/a	green
13.3067	0.5167	FEEDBACK	n/a	n/a	n/a	n/a	n/a	n/a	n/a	n/a
13.8234	1.0167	ITI	n/a	n/a	n/a	n/a	n/a	n/a	n/a	n/a
14.84	0.5167	FIXCROSS	n/a	n/a	n/a	n/a	n/a	n/a	n/a	n/a
15.3567	0.65	T_INK	5	Neutral	xxxxxxxx	xxxxxxxx	żółty	yellow	hit	n/a
15.9798	n/a	RESPONSE	n/a	n/a	n/a	n/a	n/a	n/a	n/a	yellow
16.0067	0.5167	FEEDBACK	n/a	n/a	n/a	n/a	n/a	n/a	n/a	n/a
16.5234	1.0167	ITI	n/a	n/a	n/a	n/a	n/a	n/a	n/a	n/a
17.5401	0.5167	FIXCROSS	n/a	n/a	n/a	n/a	n/a	n/a	n/a	n/a
18.0567	0.8667	T_INK	6	Incongruent	zielony	green	czerwony	red	hit	n/a
18.8911	n/a	RESPONSE	n/a	n/a	n/a	n/a	n/a	n/a	n/a	red
18.9234	0.5167	FEEDBACK	n/a	n/a	n/a	n/a	n/a	n/a	n/a	n/a
19.4401	1.0167	ITI	n/a	n/a	n/a	n/a	n/a	n/a	n/a	n/a
20.4567	0.5167	FIXCROSS	n/a	n/a	n/a	n/a	n/a	n/a	n/a	n/a
20.9734	0.9667	T_INK	7	Neutral	xxxxx	xxxxx	zielony	green	hit	n/a
21.9144	n/a	RESPONSE	n/a	n/a	n/a	n/a	n/a	n/a	n/a	green
21.9401	0.5167	FEEDBACK	n/a	n/a	n/a	n/a	n/a	n/a	n/a	n/a
22.4568	1.0167	ITI	n/a	n/a	n/a	n/a	n/a	n/a	n/a	n/a
23.4734	0.5167	FIXCROSS	n/a	n/a	n/a	n/a	n/a	n/a	n/a	n/a
23.9901	0.8167	T_INK	8	Neutral	xxxxxxxxx	xxxxxxxxx	czerwony	red	hit	n/a
24.7776	n/a	RESPONSE	n/a	n/a	n/a	n/a	n/a	n/a	n/a	red
24.8068	0.5167	FEEDBACK	n/a	n/a	n/a	n/a	n/a	n/a	n/a	n/a
25.3234	1.0167	ITI	n/a	n/a	n/a	n/a	n/a	n/a	n/a	n/a
26.3401	0.5167	FIXCROSS	n/a	n/a	n/a	n/a	n/a	n/a	n/a	n/a
26.8568	0.9167	T_INK	9	Incongruent	zielony	green	niebieski	blue	hit	n/a
27.7529	n/a	RESPONSE	n/a	n/a	n/a	n/a	n/a	n/a	n/a	blue
27.7735	0.5167	FEEDBACK	n/a	n/a	n/a	n/a	n/a	n/a	n/a	n/a
28.2901	1.0164	ITI	n/a	n/a	n/a	n/a	n/a	n/a	n/a	n/a
29.3065	0.5169	FIXCROSS	n/a	n/a	n/a	n/a	n/a	n/a	n/a	n/a
29.8235	0.5833	T_INK	10	Incongruent	czerwony	red	zielony	green	hit	n/a
30.3763	n/a	RESPONSE	n/a	n/a	n/a	n/a	n/a	n/a	n/a	green
30.4068	0.5167	FEEDBACK	n/a	n/a	n/a	n/a	n/a	n/a	n/a	n/a
30.9235	1.0167	ITI	n/a	n/a	n/a	n/a	n/a	n/a	n/a	n/a
31.9402	0.5167	FIXCROSS	n/a	n/a	n/a	n/a	n/a	n/a	n/a	n/a
32.4568	0.6667	T_INK	11	Neutral	xxxxxxx	xxxxxxx	żółty	yellow	hit	n/a
33.0956	n/a	RESPONSE	n/a	n/a	n/a	n/a	n/a	n/a	n/a	yellow
33.1235	0.5167	FEEDBACK	n/a	n/a	n/a	n/a	n/a	n/a	n/a	n/a
33.6402	1.0167	ITI	n/a	n/a	n/a	n/a	n/a	n/a	n/a	n/a
34.6568	0.5167	FIXCROSS	n/a	n/a	n/a	n/a	n/a	n/a	n/a	n/a
35.1735	1.1834	T_INK	12	Neutral	xxxxxxxx	xxxxxxxx	zielony	green	hit	n/a
36.3268	n/a	RESPONSE	n/a	n/a	n/a	n/a	n/a	n/a	n/a	green
36.3568	0.5167	FEEDBACK	n/a	n/a	n/a	n/a	n/a	n/a	n/a	n/a
36.8735	1.0333	ITI	n/a	n/a	n/a	n/a	n/a	n/a	n/a	n/a
40.7097	n/a	RESPONSE	n/a	n/a	n/a	n/a	n/a	n/a	n/a	n/a
40.7735	1.0167	ITI	n/a	n/a	n/a	n/a	n/a	n/a	n/a	n/a
41.7902	0.5167	FIXCROSS	n/a	n/a	n/a	n/a	n/a	n/a	n/a	n/a
42.3069	1.2	INK	1	Neutral	xxxxx	xxxxx	zielony	green	hit	n/a
43.477	n/a	RESPONSE	n/a	n/a	n/a	n/a	n/a	n/a	n/a	green
43.5069	1.0167	ITI	n/a	n/a	n/a	n/a	n/a	n/a	n/a	n/a
44.5236	0.5167	FIXCROSS	n/a	n/a	n/a	n/a	n/a	n/a	n/a	n/a
45.0402	0.8833	INK	2	Incongruent	żółty	yellow	niebieski	blue	hit	n/a
45.8924	n/a	RESPONSE	n/a	n/a	n/a	n/a	n/a	n/a	n/a	blue
45.9236	1.0167	ITI	n/a	n/a	n/a	n/a	n/a	n/a	n/a	n/a
46.9403	0.5167	FIXCROSS	n/a	n/a	n/a	n/a	n/a	n/a	n/a	n/a
47.4569	0.6333	INK	3	Incongruent	czerwony	red	żółty	yellow	hit	n/a
48.0679	n/a	RESPONSE	n/a	n/a	n/a	n/a	n/a	n/a	n/a	yellow
48.0903	1.0167	ITI	n/a	n/a	n/a	n/a	n/a	n/a	n/a	n/a
49.1069	0.5167	FIXCROSS	n/a	n/a	n/a	n/a	n/a	n/a	n/a	n/a
49.6236	0.8167	INK	4	Incongruent	czerwony	red	niebieski	blue	hit	n/a
50.4193	n/a	RESPONSE	n/a	n/a	n/a	n/a	n/a	n/a	n/a	blue
50.4403	1.0167	ITI	n/a	n/a	n/a	n/a	n/a	n/a	n/a	n/a
51.4569	0.5167	FIXCROSS	n/a	n/a	n/a	n/a	n/a	n/a	n/a	n/a
51.9736	0.8167	INK	5	Neutral	xxxxxxxxx	xxxxxxxxx	czerwony	red	hit	n/a
52.7707	n/a	RESPONSE	n/a	n/a	n/a	n/a	n/a	n/a	n/a	red
52.7903	1.0167	ITI	n/a	n/a	n/a	n/a	n/a	n/a	n/a	n/a
53.807	0.5167	FIXCROSS	n/a	n/a	n/a	n/a	n/a	n/a	n/a	n/a
54.3236	0.9333	INK	6	Neutral	xxxxxxx	xxxxxxx	żółty	yellow	hit	n/a
55.2341	n/a	RESPONSE	n/a	n/a	n/a	n/a	n/a	n/a	n/a	yellow
55.257	1.0167	ITI	n/a	n/a	n/a	n/a	n/a	n/a	n/a	n/a
56.2736	0.5167	FIXCROSS	n/a	n/a	n/a	n/a	n/a	n/a	n/a	n/a
56.7903	0.9	INK	7	Incongruent	żółty	yellow	zielony	green	hit	n/a
57.6655	n/a	RESPONSE	n/a	n/a	n/a	n/a	n/a	n/a	n/a	green
57.6903	1.0167	ITI	n/a	n/a	n/a	n/a	n/a	n/a	n/a	n/a
58.707	0.5167	FIXCROSS	n/a	n/a	n/a	n/a	n/a	n/a	n/a	n/a
59.2237	0.5833	INK	8	Neutral	xxxxxxx	xxxxxxx	żółty	yellow	hit	n/a
59.777	n/a	RESPONSE	n/a	n/a	n/a	n/a	n/a	n/a	n/a	yellow
59.807	1.0167	ITI	n/a	n/a	n/a	n/a	n/a	n/a	n/a	n/a
60.8237	0.5167	FIXCROSS	n/a	n/a	n/a	n/a	n/a	n/a	n/a	n/a
61.3403	0.75	INK	9	Neutral	xxxxxxxx	xxxxxxxx	niebieski	blue	hit	n/a
62.0644	n/a	RESPONSE	n/a	n/a	n/a	n/a	n/a	n/a	n/a	blue
62.0904	1.0167	ITI	n/a	n/a	n/a	n/a	n/a	n/a	n/a	n/a
63.107	0.5167	FIXCROSS	n/a	n/a	n/a	n/a	n/a	n/a	n/a	n/a
63.6237	0.7	INK	10	Incongruent	żółty	yellow	zielony	green	hit	n/a
64.3038	n/a	RESPONSE	n/a	n/a	n/a	n/a	n/a	n/a	n/a	green
64.3237	1.0167	ITI	n/a	n/a	n/a	n/a	n/a	n/a	n/a	n/a
65.3404	0.5167	FIXCROSS	n/a	n/a	n/a	n/a	n/a	n/a	n/a	n/a
65.857	0.8833	INK	11	Neutral	xxxxxxxxx	xxxxxxxxx	czerwony	red	hit	n/a
66.7192	n/a	RESPONSE	n/a	n/a	n/a	n/a	n/a	n/a	n/a	red
66.7404	1.0167	ITI	n/a	n/a	n/a	n/a	n/a	n/a	n/a	n/a
67.7571	0.5167	FIXCROSS	n/a	n/a	n/a	n/a	n/a	n/a	n/a	n/a
68.2737	0.7833	INK	12	Incongruent	czerwony	red	zielony	green	hit	n/a
69.0387	n/a	RESPONSE	n/a	n/a	n/a	n/a	n/a	n/a	n/a	green
69.0571	1.0167	ITI	n/a	n/a	n/a	n/a	n/a	n/a	n/a	n/a
70.0737	0.5167	FIXCROSS	n/a	n/a	n/a	n/a	n/a	n/a	n/a	n/a
70.5904	0.8333	INK	13	Incongruent	niebieski	blue	zielony	green	hit	n/a
71.4061	n/a	RESPONSE	n/a	n/a	n/a	n/a	n/a	n/a	n/a	green
71.4238	1.0167	ITI	n/a	n/a	n/a	n/a	n/a	n/a	n/a	n/a
72.4404	0.5167	FIXCROSS	n/a	n/a	n/a	n/a	n/a	n/a	n/a	n/a
72.9571	0.5833	INK	14	Incongruent	niebieski	blue	żółty	yellow	hit	n/a
73.5176	n/a	RESPONSE	n/a	n/a	n/a	n/a	n/a	n/a	n/a	yellow
73.5404	1.0167	ITI	n/a	n/a	n/a	n/a	n/a	n/a	n/a	n/a
74.5571	0.5167	FIXCROSS	n/a	n/a	n/a	n/a	n/a	n/a	n/a	n/a
75.0738	0.7	INK	15	Incongruent	czerwony	red	zielony	green	hit	n/a
75.741	n/a	RESPONSE	n/a	n/a	n/a	n/a	n/a	n/a	n/a	green
75.7738	1.0167	ITI	n/a	n/a	n/a	n/a	n/a	n/a	n/a	n/a
76.7905	0.5167	FIXCROSS	n/a	n/a	n/a	n/a	n/a	n/a	n/a	n/a
77.3071	0.6667	INK	16	Neutral	xxxxx	xxxxx	zielony	green	hit	n/a
77.9485	n/a	RESPONSE	n/a	n/a	n/a	n/a	n/a	n/a	n/a	green
77.9738	1.0167	ITI	n/a	n/a	n/a	n/a	n/a	n/a	n/a	n/a
78.9905	0.5167	FIXCROSS	n/a	n/a	n/a	n/a	n/a	n/a	n/a	n/a
79.5071	0.8	INK	17	Incongruent	żółty	yellow	niebieski	blue	hit	n/a
80.2839	n/a	RESPONSE	n/a	n/a	n/a	n/a	n/a	n/a	n/a	blue
80.3071	1.0167	ITI	n/a	n/a	n/a	n/a	n/a	n/a	n/a	n/a
81.3238	0.5167	FIXCROSS	n/a	n/a	n/a	n/a	n/a	n/a	n/a	n/a
81.8405	0.6167	INK	18	Incongruent	niebieski	blue	czerwony	red	hit	n/a
82.4273	n/a	RESPONSE	n/a	n/a	n/a	n/a	n/a	n/a	n/a	red
82.4572	1.0167	ITI	n/a	n/a	n/a	n/a	n/a	n/a	n/a	n/a
83.4738	0.5167	FIXCROSS	n/a	n/a	n/a	n/a	n/a	n/a	n/a	n/a
83.9905	0.6667	INK	19	Neutral	xxxxxxxxx	xxxxxxxxx	żółty	yellow	hit	n/a
84.6348	n/a	RESPONSE	n/a	n/a	n/a	n/a	n/a	n/a	n/a	yellow
84.6572	1.0166	ITI	n/a	n/a	n/a	n/a	n/a	n/a	n/a	n/a
85.6738	0.5168	FIXCROSS	n/a	n/a	n/a	n/a	n/a	n/a	n/a	n/a
86.1905	0.7	INK	20	Neutral	xxxxx	xxxxx	czerwony	red	hit	n/a
86.8582	n/a	RESPONSE	n/a	n/a	n/a	n/a	n/a	n/a	n/a	red
86.8905	1.0167	ITI	n/a	n/a	n/a	n/a	n/a	n/a	n/a	n/a
87.9072	0.5167	FIXCROSS	n/a	n/a	n/a	n/a	n/a	n/a	n/a	n/a
88.4239	1.1833	INK	21	Incongruent	niebieski	blue	zielony	green	hit	n/a
89.5776	n/a	RESPONSE	n/a	n/a	n/a	n/a	n/a	n/a	n/a	green
89.6072	1.0167	ITI	n/a	n/a	n/a	n/a	n/a	n/a	n/a	n/a
90.6239	0.5167	FIXCROSS	n/a	n/a	n/a	n/a	n/a	n/a	n/a	n/a
91.1405	0.7833	INK	22	Incongruent	zielony	green	czerwony	red	hit	n/a
91.897	n/a	RESPONSE	n/a	n/a	n/a	n/a	n/a	n/a	n/a	red
91.9239	1.0167	ITI	n/a	n/a	n/a	n/a	n/a	n/a	n/a	n/a
92.9406	0.5167	FIXCROSS	n/a	n/a	n/a	n/a	n/a	n/a	n/a	n/a
93.4572	0.65	INK	23	Incongruent	żółty	yellow	niebieski	blue	hit	n/a
94.0725	n/a	RESPONSE	n/a	n/a	n/a	n/a	n/a	n/a	n/a	blue
94.1072	1.0167	ITI	n/a	n/a	n/a	n/a	n/a	n/a	n/a	n/a
95.1239	0.5167	FIXCROSS	n/a	n/a	n/a	n/a	n/a	n/a	n/a	n/a
95.6406	0.6667	INK	24	Neutral	xxxxxxxx	xxxxxxxx	niebieski	blue	hit	n/a
96.2799	n/a	RESPONSE	n/a	n/a	n/a	n/a	n/a	n/a	n/a	blue
96.3073	1.0167	ITI	n/a	n/a	n/a	n/a	n/a	n/a	n/a	n/a
97.3239	0.5167	FIXCROSS	n/a	n/a	n/a	n/a	n/a	n/a	n/a	n/a
97.8406	0.8167	INK	25	Incongruent	żółty	yellow	czerwony	red	hit	n/a
98.6313	n/a	RESPONSE	n/a	n/a	n/a	n/a	n/a	n/a	n/a	red
98.6573	1.0167	ITI	n/a	n/a	n/a	n/a	n/a	n/a	n/a	n/a
99.6739	0.5167	FIXCROSS	n/a	n/a	n/a	n/a	n/a	n/a	n/a	n/a
100.1906	0.6	INK	26	Neutral	xxxxxxxxx	xxxxxxxxx	żółty	yellow	hit	n/a
100.7588	n/a	RESPONSE	n/a	n/a	n/a	n/a	n/a	n/a	n/a	yellow
100.7906	1.0167	ITI	n/a	n/a	n/a	n/a	n/a	n/a	n/a	n/a
101.8073	0.5166	FIXCROSS	n/a	n/a	n/a	n/a	n/a	n/a	n/a	n/a
102.3239	0.5667	INK	27	Neutral	xxxxx	xxxxx	niebieski	blue	hit	n/a
102.8703	n/a	RESPONSE	n/a	n/a	n/a	n/a	n/a	n/a	n/a	blue
102.8906	1.0167	ITI	n/a	n/a	n/a	n/a	n/a	n/a	n/a	n/a
103.9073	0.5167	FIXCROSS	n/a	n/a	n/a	n/a	n/a	n/a	n/a	n/a
104.424	0.7833	INK	28	Incongruent	żółty	yellow	czerwony	red	hit	n/a
105.1737	n/a	RESPONSE	n/a	n/a	n/a	n/a	n/a	n/a	n/a	red
105.2073	1.0167	ITI	n/a	n/a	n/a	n/a	n/a	n/a	n/a	n/a
106.224	0.5167	FIXCROSS	n/a	n/a	n/a	n/a	n/a	n/a	n/a	n/a
106.7407	0.85	INK	29	Neutral	xxxxxxxx	xxxxxxxx	zielony	green	hit	n/a
107.5571	n/a	RESPONSE	n/a	n/a	n/a	n/a	n/a	n/a	n/a	green
107.5907	1.0167	ITI	n/a	n/a	n/a	n/a	n/a	n/a	n/a	n/a
108.6073	0.5167	FIXCROSS	n/a	n/a	n/a	n/a	n/a	n/a	n/a	n/a
109.124	1.5833	INK	30	Neutral	xxxxxxxxx	xxxxxxxxx	zielony	green	hit	n/a
110.6763	n/a	RESPONSE	n/a	n/a	n/a	n/a	n/a	n/a	n/a	green
110.7073	1.0167	ITI	n/a	n/a	n/a	n/a	n/a	n/a	n/a	n/a
111.724	0.5167	FIXCROSS	n/a	n/a	n/a	n/a	n/a	n/a	n/a	n/a
112.2407	1.6167	INK	31	Incongruent	niebieski	blue	czerwony	red	hit	n/a
113.8276	n/a	RESPONSE	n/a	n/a	n/a	n/a	n/a	n/a	n/a	red
113.8574	1.0167	ITI	n/a	n/a	n/a	n/a	n/a	n/a	n/a	n/a
114.874	0.5167	FIXCROSS	n/a	n/a	n/a	n/a	n/a	n/a	n/a	n/a
115.3907	0.5667	INK	32	Neutral	xxxxx	xxxxx	czerwony	red	hit	n/a
115.939	n/a	RESPONSE	n/a	n/a	n/a	n/a	n/a	n/a	n/a	red
115.9574	1.0167	ITI	n/a	n/a	n/a	n/a	n/a	n/a	n/a	n/a
116.9741	0.5167	FIXCROSS	n/a	n/a	n/a	n/a	n/a	n/a	n/a	n/a
117.4907	0.8333	INK	33	Incongruent	niebieski	blue	zielony	green	hit	n/a
118.3065	n/a	RESPONSE	n/a	n/a	n/a	n/a	n/a	n/a	n/a	green
118.3241	1.0166	ITI	n/a	n/a	n/a	n/a	n/a	n/a	n/a	n/a
119.3406	0.5168	FIXCROSS	n/a	n/a	n/a	n/a	n/a	n/a	n/a	n/a
119.8574	0.6833	INK	34	Incongruent	zielony	green	czerwony	red	hit	n/a
120.5139	n/a	RESPONSE	n/a	n/a	n/a	n/a	n/a	n/a	n/a	red
120.5407	1.0167	ITI	n/a	n/a	n/a	n/a	n/a	n/a	n/a	n/a
121.5574	0.5167	FIXCROSS	n/a	n/a	n/a	n/a	n/a	n/a	n/a	n/a
122.0741	1.0833	INK	35	Neutral	xxxxxxxxx	xxxxxxxxx	zielony	green	hit	n/a
123.1373	n/a	RESPONSE	n/a	n/a	n/a	n/a	n/a	n/a	n/a	green
123.1574	1.0167	ITI	n/a	n/a	n/a	n/a	n/a	n/a	n/a	n/a
124.1741	0.5167	FIXCROSS	n/a	n/a	n/a	n/a	n/a	n/a	n/a	n/a
124.6908	1.0667	INK	36	Incongruent	zielony	green	niebieski	blue	hit	n/a
125.7286	n/a	RESPONSE	n/a	n/a	n/a	n/a	n/a	n/a	n/a	blue
125.7574	1.0167	ITI	n/a	n/a	n/a	n/a	n/a	n/a	n/a	n/a
126.7741	0.5167	FIXCROSS	n/a	n/a	n/a	n/a	n/a	n/a	n/a	n/a
127.2908	0.6	INK	37	Neutral	xxxxxxx	xxxxxxx	niebieski	blue	hit	n/a
127.8561	n/a	RESPONSE	n/a	n/a	n/a	n/a	n/a	n/a	n/a	blue
127.8908	1.0167	ITI	n/a	n/a	n/a	n/a	n/a	n/a	n/a	n/a
128.9075	0.5167	FIXCROSS	n/a	n/a	n/a	n/a	n/a	n/a	n/a	n/a
129.4241	0.7333	INK	38	Neutral	xxxxxxx	xxxxxxx	czerwony	red	hit	n/a
130.1275	n/a	RESPONSE	n/a	n/a	n/a	n/a	n/a	n/a	n/a	red
130.1575	1.0167	ITI	n/a	n/a	n/a	n/a	n/a	n/a	n/a	n/a
131.1742	0.5167	FIXCROSS	n/a	n/a	n/a	n/a	n/a	n/a	n/a	n/a
131.6908	0.7833	INK	39	Incongruent	niebieski	blue	czerwony	red	hit	n/a
132.447	n/a	RESPONSE	n/a	n/a	n/a	n/a	n/a	n/a	n/a	red
132.4742	1.0167	ITI	n/a	n/a	n/a	n/a	n/a	n/a	n/a	n/a
133.4908	0.5167	FIXCROSS	n/a	n/a	n/a	n/a	n/a	n/a	n/a	n/a
134.0075	0.6667	INK	40	Incongruent	niebieski	blue	żółty	yellow	hit	n/a
134.6544	n/a	RESPONSE	n/a	n/a	n/a	n/a	n/a	n/a	n/a	yellow
134.6742	1.0167	ITI	n/a	n/a	n/a	n/a	n/a	n/a	n/a	n/a
135.6908	0.5167	FIXCROSS	n/a	n/a	n/a	n/a	n/a	n/a	n/a	n/a
136.2075	0.8	INK	41	Neutral	xxxxxxx	xxxxxxx	czerwony	red	hit	n/a
136.9898	n/a	RESPONSE	n/a	n/a	n/a	n/a	n/a	n/a	n/a	red
137.0075	1.0167	ITI	n/a	n/a	n/a	n/a	n/a	n/a	n/a	n/a
138.0242	0.5167	FIXCROSS	n/a	n/a	n/a	n/a	n/a	n/a	n/a	n/a
138.5409	0.6667	INK	42	Neutral	xxxxx	xxxxx	zielony	green	hit	n/a
139.1813	n/a	RESPONSE	n/a	n/a	n/a	n/a	n/a	n/a	n/a	green
139.2075	1.0167	ITI	n/a	n/a	n/a	n/a	n/a	n/a	n/a	n/a
140.2242	0.5167	FIXCROSS	n/a	n/a	n/a	n/a	n/a	n/a	n/a	n/a
140.7409	0.75	INK	43	Neutral	xxxxxxx	xxxxxxx	czerwony	red	hit	n/a
141.4687	n/a	RESPONSE	n/a	n/a	n/a	n/a	n/a	n/a	n/a	red
141.4909	1.0167	ITI	n/a	n/a	n/a	n/a	n/a	n/a	n/a	n/a
142.5076	0.5167	FIXCROSS	n/a	n/a	n/a	n/a	n/a	n/a	n/a	n/a
143.0242	0.9667	INK	44	Neutral	xxxxxxx	xxxxxxx	niebieski	blue	hit	n/a
143.9641	n/a	RESPONSE	n/a	n/a	n/a	n/a	n/a	n/a	n/a	blue
143.9909	1.0167	ITI	n/a	n/a	n/a	n/a	n/a	n/a	n/a	n/a
145.0076	0.5167	FIXCROSS	n/a	n/a	n/a	n/a	n/a	n/a	n/a	n/a
145.5242	0.7167	INK	45	Incongruent	zielony	green	żółty	yellow	hit	n/a
146.2196	n/a	RESPONSE	n/a	n/a	n/a	n/a	n/a	n/a	n/a	yellow
146.2409	1.0167	ITI	n/a	n/a	n/a	n/a	n/a	n/a	n/a	n/a
147.2576	0.5167	FIXCROSS	n/a	n/a	n/a	n/a	n/a	n/a	n/a	n/a
147.7743	0.6667	INK	46	Neutral	xxxxxxxxx	xxxxxxxxx	zielony	green	hit	n/a
148.4111	n/a	RESPONSE	n/a	n/a	n/a	n/a	n/a	n/a	n/a	green
148.4409	1.0167	ITI	n/a	n/a	n/a	n/a	n/a	n/a	n/a	n/a
149.4576	0.5167	FIXCROSS	n/a	n/a	n/a	n/a	n/a	n/a	n/a	n/a
149.9743	0.8	INK	47	Neutral	xxxxxxxx	xxxxxxxx	niebieski	blue	hit	n/a
150.7464	n/a	RESPONSE	n/a	n/a	n/a	n/a	n/a	n/a	n/a	blue
150.7743	1.0167	ITI	n/a	n/a	n/a	n/a	n/a	n/a	n/a	n/a
151.791	0.5167	FIXCROSS	n/a	n/a	n/a	n/a	n/a	n/a	n/a	n/a
152.3076	0.7333	INK	48	Neutral	xxxxxxxxx	xxxxxxxxx	żółty	yellow	hit	n/a
153.0179	n/a	RESPONSE	n/a	n/a	n/a	n/a	n/a	n/a	n/a	yellow
153.041	1.0167	ITI	n/a	n/a	n/a	n/a	n/a	n/a	n/a	n/a
154.0576	0.5167	FIXCROSS	n/a	n/a	n/a	n/a	n/a	n/a	n/a	n/a
154.5743	0.7	INK	49	Neutral	xxxxxxxxx	xxxxxxxxx	czerwony	red	hit	n/a
155.2413	n/a	RESPONSE	n/a	n/a	n/a	n/a	n/a	n/a	n/a	red
155.2743	1.0167	ITI	n/a	n/a	n/a	n/a	n/a	n/a	n/a	n/a
156.291	0.5167	FIXCROSS	n/a	n/a	n/a	n/a	n/a	n/a	n/a	n/a
156.8077	0.7	INK	50	Neutral	xxxxxxxx	xxxxxxxx	żółty	yellow	hit	n/a
157.4808	n/a	RESPONSE	n/a	n/a	n/a	n/a	n/a	n/a	n/a	yellow
157.5077	1.0167	ITI	n/a	n/a	n/a	n/a	n/a	n/a	n/a	n/a
158.5243	0.5167	FIXCROSS	n/a	n/a	n/a	n/a	n/a	n/a	n/a	n/a
159.041	0.45	INK	51	Neutral	xxxxxxxx	xxxxxxxx	żółty	yellow	hit	n/a
159.4643	n/a	RESPONSE	n/a	n/a	n/a	n/a	n/a	n/a	n/a	yellow
159.491	1.0167	ITI	n/a	n/a	n/a	n/a	n/a	n/a	n/a	n/a
160.5077	0.5167	FIXCROSS	n/a	n/a	n/a	n/a	n/a	n/a	n/a	n/a
161.0244	0.5833	INK	52	Incongruent	niebieski	blue	żółty	yellow	hit	n/a
161.5757	n/a	RESPONSE	n/a	n/a	n/a	n/a	n/a	n/a	n/a	yellow
161.6077	1.0167	ITI	n/a	n/a	n/a	n/a	n/a	n/a	n/a	n/a
162.6244	0.5167	FIXCROSS	n/a	n/a	n/a	n/a	n/a	n/a	n/a	n/a
163.141	0.6	INK	53	Incongruent	zielony	green	czerwony	red	hit	n/a
163.7192	n/a	RESPONSE	n/a	n/a	n/a	n/a	n/a	n/a	n/a	red
163.741	1.0167	ITI	n/a	n/a	n/a	n/a	n/a	n/a	n/a	n/a
164.7577	0.5167	FIXCROSS	n/a	n/a	n/a	n/a	n/a	n/a	n/a	n/a
165.2744	0.6167	INK	54	Incongruent	czerwony	red	żółty	yellow	hit	n/a
165.8627	n/a	RESPONSE	n/a	n/a	n/a	n/a	n/a	n/a	n/a	yellow
165.891	1.0167	ITI	n/a	n/a	n/a	n/a	n/a	n/a	n/a	n/a
166.9077	0.5167	FIXCROSS	n/a	n/a	n/a	n/a	n/a	n/a	n/a	n/a
167.4244	0.8833	INK	55	Incongruent	czerwony	red	niebieski	blue	hit	n/a
168.2781	n/a	RESPONSE	n/a	n/a	n/a	n/a	n/a	n/a	n/a	blue
168.3077	1.0167	ITI	n/a	n/a	n/a	n/a	n/a	n/a	n/a	n/a
169.3244	0.5167	FIXCROSS	n/a	n/a	n/a	n/a	n/a	n/a	n/a	n/a
169.8411	0.8833	INK	56	Incongruent	czerwony	red	żółty	yellow	hit	n/a
170.6935	n/a	RESPONSE	n/a	n/a	n/a	n/a	n/a	n/a	n/a	yellow
170.7244	1.0167	ITI	n/a	n/a	n/a	n/a	n/a	n/a	n/a	n/a
171.7411	0.5167	FIXCROSS	n/a	n/a	n/a	n/a	n/a	n/a	n/a	n/a
172.2578	0.5167	INK	57	Incongruent	zielony	green	żółty	yellow	hit	n/a
172.741	n/a	RESPONSE	n/a	n/a	n/a	n/a	n/a	n/a	n/a	yellow
172.7744	1.0167	ITI	n/a	n/a	n/a	n/a	n/a	n/a	n/a	n/a
173.7911	0.5167	FIXCROSS	n/a	n/a	n/a	n/a	n/a	n/a	n/a	n/a
174.3078	0.5333	INK	58	Incongruent	zielony	green	niebieski	blue	hit	n/a
174.8205	n/a	RESPONSE	n/a	n/a	n/a	n/a	n/a	n/a	n/a	blue
174.8411	1.0167	ITI	n/a	n/a	n/a	n/a	n/a	n/a	n/a	n/a
175.8578	0.5167	FIXCROSS	n/a	n/a	n/a	n/a	n/a	n/a	n/a	n/a
176.3745	0.85	INK	59	Incongruent	czerwony	red	zielony	green	hit	n/a
177.2039	n/a	RESPONSE	n/a	n/a	n/a	n/a	n/a	n/a	n/a	green
177.2245	1.0167	ITI	n/a	n/a	n/a	n/a	n/a	n/a	n/a	n/a
178.2411	0.5167	FIXCROSS	n/a	n/a	n/a	n/a	n/a	n/a	n/a	n/a
178.7578	0.6167	INK	60	Neutral	xxxxxxx	xxxxxxx	żółty	yellow	hit	n/a
179.3473	n/a	RESPONSE	n/a	n/a	n/a	n/a	n/a	n/a	n/a	yellow
179.3745	1.0167	ITI	n/a	n/a	n/a	n/a	n/a	n/a	n/a	n/a
180.3912	0.5167	FIXCROSS	n/a	n/a	n/a	n/a	n/a	n/a	n/a	n/a
180.9078	0.6667	INK	61	Neutral	xxxxx	xxxxx	niebieski	blue	hit	n/a
181.5548	n/a	RESPONSE	n/a	n/a	n/a	n/a	n/a	n/a	n/a	blue
181.5745	1.0167	ITI	n/a	n/a	n/a	n/a	n/a	n/a	n/a	n/a
182.5912	0.5167	FIXCROSS	n/a	n/a	n/a	n/a	n/a	n/a	n/a	n/a
183.1078	0.6667	INK	62	Incongruent	zielony	green	żółty	yellow	hit	n/a
183.7463	n/a	RESPONSE	n/a	n/a	n/a	n/a	n/a	n/a	n/a	yellow
183.7745	1.0167	ITI	n/a	n/a	n/a	n/a	n/a	n/a	n/a	n/a
184.7912	0.5167	FIXCROSS	n/a	n/a	n/a	n/a	n/a	n/a	n/a	n/a
185.3079	1.05	INK	63	Neutral	xxxxxxx	xxxxxxx	niebieski	blue	hit	n/a
186.3376	n/a	RESPONSE	n/a	n/a	n/a	n/a	n/a	n/a	n/a	blue
186.3579	1.0167	ITI	n/a	n/a	n/a	n/a	n/a	n/a	n/a	n/a
187.3745	0.5167	FIXCROSS	n/a	n/a	n/a	n/a	n/a	n/a	n/a	n/a
187.8912	0.75	INK	64	Neutral	xxxxxxxx	xxxxxxxx	żółty	yellow	hit	n/a
188.6091	n/a	RESPONSE	n/a	n/a	n/a	n/a	n/a	n/a	n/a	yellow
188.6412	1.0167	ITI	n/a	n/a	n/a	n/a	n/a	n/a	n/a	n/a
189.6579	0.5167	FIXCROSS	n/a	n/a	n/a	n/a	n/a	n/a	n/a	n/a
190.1746	0.8667	INK	65	Incongruent	czerwony	red	niebieski	blue	hit	n/a
191.0084	n/a	RESPONSE	n/a	n/a	n/a	n/a	n/a	n/a	n/a	blue
191.0412	1.0167	ITI	n/a	n/a	n/a	n/a	n/a	n/a	n/a	n/a
192.0579	0.5167	FIXCROSS	n/a	n/a	n/a	n/a	n/a	n/a	n/a	n/a
192.5746	0.8833	INK	66	Incongruent	żółty	yellow	zielony	green	hit	n/a
193.4398	n/a	RESPONSE	n/a	n/a	n/a	n/a	n/a	n/a	n/a	green
193.4579	1.0167	ITI	n/a	n/a	n/a	n/a	n/a	n/a	n/a	n/a
194.4746	0.5167	FIXCROSS	n/a	n/a	n/a	n/a	n/a	n/a	n/a	n/a
194.9912	0.7833	INK	67	Incongruent	żółty	yellow	czerwony	red	hit	n/a
195.7432	n/a	RESPONSE	n/a	n/a	n/a	n/a	n/a	n/a	n/a	red
195.7746	1.0167	ITI	n/a	n/a	n/a	n/a	n/a	n/a	n/a	n/a
196.7913	0.5167	FIXCROSS	n/a	n/a	n/a	n/a	n/a	n/a	n/a	n/a
197.3079	1.25	INK	68	Neutral	xxxxxxxx	xxxxxxxx	zielony	green	hit	n/a
198.5266	n/a	RESPONSE	n/a	n/a	n/a	n/a	n/a	n/a	n/a	green
198.5579	1.0167	ITI	n/a	n/a	n/a	n/a	n/a	n/a	n/a	n/a
199.5746	0.5167	FIXCROSS	n/a	n/a	n/a	n/a	n/a	n/a	n/a	n/a
200.0913	0.6333	INK	69	Neutral	xxxxx	xxxxx	czerwony	red	hit	n/a
200.702	n/a	RESPONSE	n/a	n/a	n/a	n/a	n/a	n/a	n/a	red
200.7246	1.0167	ITI	n/a	n/a	n/a	n/a	n/a	n/a	n/a	n/a
201.7413	0.5167	FIXCROSS	n/a	n/a	n/a	n/a	n/a	n/a	n/a	n/a
202.258	0.75	INK	70	Neutral	xxxxx	xxxxx	niebieski	blue	hit	n/a
202.9895	n/a	RESPONSE	n/a	n/a	n/a	n/a	n/a	n/a	n/a	blue
203.008	1.0167	ITI	n/a	n/a	n/a	n/a	n/a	n/a	n/a	n/a
204.0246	0.5167	FIXCROSS	n/a	n/a	n/a	n/a	n/a	n/a	n/a	n/a
204.5413	0.6833	INK	71	Incongruent	zielony	green	niebieski	blue	hit	n/a
205.1969	n/a	RESPONSE	n/a	n/a	n/a	n/a	n/a	n/a	n/a	blue
205.2246	1.0167	ITI	n/a	n/a	n/a	n/a	n/a	n/a	n/a	n/a
206.2413	0.5167	FIXCROSS	n/a	n/a	n/a	n/a	n/a	n/a	n/a	n/a
206.758	0.65	INK	72	Neutral	xxxxxxxx	xxxxxxxx	zielony	green	hit	n/a
207.3884	n/a	RESPONSE	n/a	n/a	n/a	n/a	n/a	n/a	n/a	green
207.408	1.0834	ITI	n/a	n/a	n/a	n/a	n/a	n/a	n/a	n/a
212.3632	n/a	RESPONSE	n/a	n/a	n/a	n/a	n/a	n/a	n/a	n/a
212.3914	1.0	ITI	n/a	n/a	n/a	n/a	n/a	n/a	n/a	n/a
213.3914	0.5	FIXCROSS	n/a	n/a	n/a	n/a	n/a	n/a	n/a	n/a
213.8914	1.25	T_COLOR_NAME	1	Incongruent	zielony	green	niebieski	blue	hit	n/a
215.1145	n/a	RESPONSE	n/a	n/a	n/a	n/a	n/a	n/a	n/a	green
215.1414	0.5167	FEEDBACK	n/a	n/a	n/a	n/a	n/a	n/a	n/a	n/a
215.658	1.0167	ITI	n/a	n/a	n/a	n/a	n/a	n/a	n/a	n/a
216.6747	0.5167	FIXCROSS	n/a	n/a	n/a	n/a	n/a	n/a	n/a	n/a
217.1914	0.8333	T_COLOR_NAME	2	Incongruent	niebieski	blue	zielony	green	hit	n/a
217.9938	n/a	RESPONSE	n/a	n/a	n/a	n/a	n/a	n/a	n/a	blue
218.0247	0.5167	FEEDBACK	n/a	n/a	n/a	n/a	n/a	n/a	n/a	n/a
218.5414	1.0167	ITI	n/a	n/a	n/a	n/a	n/a	n/a	n/a	n/a
219.5581	0.5167	FIXCROSS	n/a	n/a	n/a	n/a	n/a	n/a	n/a	n/a
220.0747	0.8167	T_COLOR_NAME	3	Neutral	czerwony	red	Neutral	Neutral	hit	n/a
220.8571	n/a	RESPONSE	n/a	n/a	n/a	n/a	n/a	n/a	n/a	red
220.8914	0.5167	FEEDBACK	n/a	n/a	n/a	n/a	n/a	n/a	n/a	n/a
221.4081	1.0167	ITI	n/a	n/a	n/a	n/a	n/a	n/a	n/a	n/a
222.4248	0.5167	FIXCROSS	n/a	n/a	n/a	n/a	n/a	n/a	n/a	n/a
222.9414	1.4833	T_COLOR_NAME	4	Incongruent	zielony	green	czerwony	red	hit	n/a
224.3922	n/a	RESPONSE	n/a	n/a	n/a	n/a	n/a	n/a	n/a	green
224.4248	0.5167	FEEDBACK	n/a	n/a	n/a	n/a	n/a	n/a	n/a	n/a
224.9414	1.0167	ITI	n/a	n/a	n/a	n/a	n/a	n/a	n/a	n/a
225.9581	0.5167	FIXCROSS	n/a	n/a	n/a	n/a	n/a	n/a	n/a	n/a
226.4748	0.8833	T_COLOR_NAME	5	Neutral	niebieski	blue	Neutral	Neutral	hit	n/a
227.3354	n/a	RESPONSE	n/a	n/a	n/a	n/a	n/a	n/a	n/a	blue
227.3581	0.5167	FEEDBACK	n/a	n/a	n/a	n/a	n/a	n/a	n/a	n/a
227.8748	1.0167	ITI	n/a	n/a	n/a	n/a	n/a	n/a	n/a	n/a
228.8915	0.5167	FIXCROSS	n/a	n/a	n/a	n/a	n/a	n/a	n/a	n/a
229.4081	0.7	T_COLOR_NAME	6	Neutral	czerwony	red	Neutral	Neutral	hit	n/a
230.0868	n/a	RESPONSE	n/a	n/a	n/a	n/a	n/a	n/a	n/a	red
230.1081	0.5167	FEEDBACK	n/a	n/a	n/a	n/a	n/a	n/a	n/a	n/a
230.6248	1.0167	ITI	n/a	n/a	n/a	n/a	n/a	n/a	n/a	n/a
231.6415	0.5167	FIXCROSS	n/a	n/a	n/a	n/a	n/a	n/a	n/a	n/a
232.1582	0.6167	T_COLOR_NAME	7	Neutral	niebieski	blue	Neutral	Neutral	hit	n/a
232.7421	n/a	RESPONSE	n/a	n/a	n/a	n/a	n/a	n/a	n/a	blue
232.7748	0.5167	FEEDBACK	n/a	n/a	n/a	n/a	n/a	n/a	n/a	n/a
233.2915	1.0167	ITI	n/a	n/a	n/a	n/a	n/a	n/a	n/a	n/a
234.3082	0.5167	FIXCROSS	n/a	n/a	n/a	n/a	n/a	n/a	n/a	n/a
234.8248	0.75	T_COLOR_NAME	8	Incongruent	czerwony	red	zielony	green	hit	n/a
235.5414	n/a	RESPONSE	n/a	n/a	n/a	n/a	n/a	n/a	n/a	red
235.5748	0.5167	FEEDBACK	n/a	n/a	n/a	n/a	n/a	n/a	n/a	n/a
236.0915	1.0167	ITI	n/a	n/a	n/a	n/a	n/a	n/a	n/a	n/a
237.1082	0.5167	FIXCROSS	n/a	n/a	n/a	n/a	n/a	n/a	n/a	n/a
237.6249	0.7	T_COLOR_NAME	9	Neutral	żółty	yellow	Neutral	Neutral	hit	n/a
238.2927	n/a	RESPONSE	n/a	n/a	n/a	n/a	n/a	n/a	n/a	yellow
238.3249	0.5167	FEEDBACK	n/a	n/a	n/a	n/a	n/a	n/a	n/a	n/a
238.8415	1.0167	ITI	n/a	n/a	n/a	n/a	n/a	n/a	n/a	n/a
239.8582	0.5167	FIXCROSS	n/a	n/a	n/a	n/a	n/a	n/a	n/a	n/a
240.3749	0.9167	T_COLOR_NAME	10	Incongruent	czerwony	red	żółty	yellow	hit	n/a
241.268	n/a	RESPONSE	n/a	n/a	n/a	n/a	n/a	n/a	n/a	red
241.2916	0.5167	FEEDBACK	n/a	n/a	n/a	n/a	n/a	n/a	n/a	n/a
241.8082	1.0167	ITI	n/a	n/a	n/a	n/a	n/a	n/a	n/a	n/a
242.8249	0.5167	FIXCROSS	n/a	n/a	n/a	n/a	n/a	n/a	n/a	n/a
243.3416	0.7833	T_COLOR_NAME	11	Neutral	zielony	green	Neutral	Neutral	hit	n/a
244.0993	n/a	RESPONSE	n/a	n/a	n/a	n/a	n/a	n/a	n/a	green
244.1249	0.5167	FEEDBACK	n/a	n/a	n/a	n/a	n/a	n/a	n/a	n/a
244.6416	1.0167	ITI	n/a	n/a	n/a	n/a	n/a	n/a	n/a	n/a
245.6582	0.5167	FIXCROSS	n/a	n/a	n/a	n/a	n/a	n/a	n/a	n/a
246.1749	0.5	T_COLOR_NAME	12	Neutral	niebieski	blue	Neutral	Neutral	hit	n/a
246.6427	n/a	RESPONSE	n/a	n/a	n/a	n/a	n/a	n/a	n/a	blue
246.6749	0.5167	FEEDBACK	n/a	n/a	n/a	n/a	n/a	n/a	n/a	n/a
247.1916	1.0333	ITI	n/a	n/a	n/a	n/a	n/a	n/a	n/a	n/a
249.5539	n/a	RESPONSE	n/a	n/a	n/a	n/a	n/a	n/a	n/a	n/a
249.6083	1.0167	ITI	n/a	n/a	n/a	n/a	n/a	n/a	n/a	n/a
250.6249	0.5167	FIXCROSS	n/a	n/a	n/a	n/a	n/a	n/a	n/a	n/a
251.1416	0.9167	COLOR_NAME	1	Incongruent	czerwony	red	zielony	green	hit	n/a
252.0333	n/a	RESPONSE	n/a	n/a	n/a	n/a	n/a	n/a	n/a	red
252.0583	1.0167	ITI	n/a	n/a	n/a	n/a	n/a	n/a	n/a	n/a
253.075	0.5167	FIXCROSS	n/a	n/a	n/a	n/a	n/a	n/a	n/a	n/a
253.5916	0.6	COLOR_NAME	2	Neutral	żółty	yellow	Neutral	Neutral	hit	n/a
254.1608	n/a	RESPONSE	n/a	n/a	n/a	n/a	n/a	n/a	n/a	yellow
254.1916	1.0167	ITI	n/a	n/a	n/a	n/a	n/a	n/a	n/a	n/a
255.2083	0.5167	FIXCROSS	n/a	n/a	n/a	n/a	n/a	n/a	n/a	n/a
255.725	0.6667	COLOR_NAME	3	Incongruent	niebieski	blue	czerwony	red	hit	n/a
256.3683	n/a	RESPONSE	n/a	n/a	n/a	n/a	n/a	n/a	n/a	blue
256.3916	1.0167	ITI	n/a	n/a	n/a	n/a	n/a	n/a	n/a	n/a
257.4083	0.5167	FIXCROSS	n/a	n/a	n/a	n/a	n/a	n/a	n/a	n/a
257.925	0.4333	COLOR_NAME	4	Incongruent	zielony	green	czerwony	red	hit	n/a
258.3358	n/a	RESPONSE	n/a	n/a	n/a	n/a	n/a	n/a	n/a	green
258.3583	1.0167	ITI	n/a	n/a	n/a	n/a	n/a	n/a	n/a	n/a
259.375	0.5167	FIXCROSS	n/a	n/a	n/a	n/a	n/a	n/a	n/a	n/a
259.8917	0.7333	COLOR_NAME	5	Neutral	niebieski	blue	Neutral	Neutral	hit	n/a
260.5912	n/a	RESPONSE	n/a	n/a	n/a	n/a	n/a	n/a	n/a	blue
260.625	1.0167	ITI	n/a	n/a	n/a	n/a	n/a	n/a	n/a	n/a
261.6417	0.5167	FIXCROSS	n/a	n/a	n/a	n/a	n/a	n/a	n/a	n/a
262.1583	0.6667	COLOR_NAME	6	Incongruent	żółty	yellow	zielony	green	hit	n/a
262.7987	n/a	RESPONSE	n/a	n/a	n/a	n/a	n/a	n/a	n/a	yellow
262.825	1.0167	ITI	n/a	n/a	n/a	n/a	n/a	n/a	n/a	n/a
263.8417	0.5167	FIXCROSS	n/a	n/a	n/a	n/a	n/a	n/a	n/a	n/a
264.3584	0.7667	COLOR_NAME	7	Incongruent	zielony	green	niebieski	blue	hit	n/a
265.1021	n/a	RESPONSE	n/a	n/a	n/a	n/a	n/a	n/a	n/a	green
265.125	1.0167	ITI	n/a	n/a	n/a	n/a	n/a	n/a	n/a	n/a
266.1417	0.5167	FIXCROSS	n/a	n/a	n/a	n/a	n/a	n/a	n/a	n/a
266.6584	0.6833	COLOR_NAME	8	Incongruent	zielony	green	niebieski	blue	hit	n/a
267.3096	n/a	RESPONSE	n/a	n/a	n/a	n/a	n/a	n/a	n/a	green
267.3417	1.0167	ITI	n/a	n/a	n/a	n/a	n/a	n/a	n/a	n/a
268.3584	0.5167	FIXCROSS	n/a	n/a	n/a	n/a	n/a	n/a	n/a	n/a
268.8751	0.8	COLOR_NAME	9	Incongruent	żółty	yellow	czerwony	red	hit	n/a
269.645	n/a	RESPONSE	n/a	n/a	n/a	n/a	n/a	n/a	n/a	yellow
269.6751	1.0167	ITI	n/a	n/a	n/a	n/a	n/a	n/a	n/a	n/a
270.6917	0.5167	FIXCROSS	n/a	n/a	n/a	n/a	n/a	n/a	n/a	n/a
271.2084	0.6167	COLOR_NAME	10	Incongruent	niebieski	blue	żółty	yellow	hit	n/a
271.8044	n/a	RESPONSE	n/a	n/a	n/a	n/a	n/a	n/a	n/a	blue
271.8251	1.0167	ITI	n/a	n/a	n/a	n/a	n/a	n/a	n/a	n/a
272.8417	0.5167	FIXCROSS	n/a	n/a	n/a	n/a	n/a	n/a	n/a	n/a
273.3584	0.45	COLOR_NAME	11	Neutral	czerwony	red	Neutral	Neutral	hit	n/a
273.788	n/a	RESPONSE	n/a	n/a	n/a	n/a	n/a	n/a	n/a	red
273.8084	1.0167	ITI	n/a	n/a	n/a	n/a	n/a	n/a	n/a	n/a
274.8251	0.5167	FIXCROSS	n/a	n/a	n/a	n/a	n/a	n/a	n/a	n/a
275.3418	1.0	COLOR_NAME	12	Incongruent	zielony	green	żółty	yellow	hit	n/a
276.3153	n/a	RESPONSE	n/a	n/a	n/a	n/a	n/a	n/a	n/a	green
276.3418	1.0167	ITI	n/a	n/a	n/a	n/a	n/a	n/a	n/a	n/a
277.3584	0.5167	FIXCROSS	n/a	n/a	n/a	n/a	n/a	n/a	n/a	n/a
277.8751	0.95	COLOR_NAME	13	Neutral	niebieski	blue	Neutral	Neutral	hit	n/a
278.7947	n/a	RESPONSE	n/a	n/a	n/a	n/a	n/a	n/a	n/a	blue
278.8251	1.0167	ITI	n/a	n/a	n/a	n/a	n/a	n/a	n/a	n/a
279.8418	0.5167	FIXCROSS	n/a	n/a	n/a	n/a	n/a	n/a	n/a	n/a
280.3585	0.6333	COLOR_NAME	14	Incongruent	żółty	yellow	niebieski	blue	hit	n/a
280.9701	n/a	RESPONSE	n/a	n/a	n/a	n/a	n/a	n/a	n/a	yellow
280.9918	1.0167	ITI	n/a	n/a	n/a	n/a	n/a	n/a	n/a	n/a
282.0085	0.5167	FIXCROSS	n/a	n/a	n/a	n/a	n/a	n/a	n/a	n/a
282.5252	1.2667	COLOR_NAME	15	Incongruent	zielony	green	czerwony	red	hit	n/a
283.7695	n/a	RESPONSE	n/a	n/a	n/a	n/a	n/a	n/a	n/a	green
283.7918	1.0167	ITI	n/a	n/a	n/a	n/a	n/a	n/a	n/a	n/a
284.8085	0.5167	FIXCROSS	n/a	n/a	n/a	n/a	n/a	n/a	n/a	n/a
285.3252	0.8	COLOR_NAME	16	Incongruent	żółty	yellow	zielony	green	hit	n/a
286.1049	n/a	RESPONSE	n/a	n/a	n/a	n/a	n/a	n/a	n/a	yellow
286.1252	1.0167	ITI	n/a	n/a	n/a	n/a	n/a	n/a	n/a	n/a
287.1419	0.5167	FIXCROSS	n/a	n/a	n/a	n/a	n/a	n/a	n/a	n/a
287.6585	0.6833	COLOR_NAME	17	Neutral	żółty	yellow	Neutral	Neutral	hit	n/a
288.3124	n/a	RESPONSE	n/a	n/a	n/a	n/a	n/a	n/a	n/a	yellow
288.3419	1.0167	ITI	n/a	n/a	n/a	n/a	n/a	n/a	n/a	n/a
289.3585	0.5167	FIXCROSS	n/a	n/a	n/a	n/a	n/a	n/a	n/a	n/a
289.8752	1.1333	COLOR_NAME	18	Incongruent	czerwony	red	żółty	yellow	hit	n/a
290.9837	n/a	RESPONSE	n/a	n/a	n/a	n/a	n/a	n/a	n/a	red
291.0085	1.0167	ITI	n/a	n/a	n/a	n/a	n/a	n/a	n/a	n/a
292.0252	0.5167	FIXCROSS	n/a	n/a	n/a	n/a	n/a	n/a	n/a	n/a
292.5419	0.7333	COLOR_NAME	19	Incongruent	niebieski	blue	żółty	yellow	hit	n/a
293.2551	n/a	RESPONSE	n/a	n/a	n/a	n/a	n/a	n/a	n/a	blue
293.2752	1.0167	ITI	n/a	n/a	n/a	n/a	n/a	n/a	n/a	n/a
294.2919	0.5167	FIXCROSS	n/a	n/a	n/a	n/a	n/a	n/a	n/a	n/a
294.8086	0.4833	COLOR_NAME	20	Incongruent	zielony	green	żółty	yellow	hit	n/a
295.2706	n/a	RESPONSE	n/a	n/a	n/a	n/a	n/a	n/a	n/a	green
295.2919	1.0167	ITI	n/a	n/a	n/a	n/a	n/a	n/a	n/a	n/a
296.3086	0.5167	FIXCROSS	n/a	n/a	n/a	n/a	n/a	n/a	n/a	n/a
296.8252	0.7667	COLOR_NAME	21	Incongruent	żółty	yellow	niebieski	blue	hit	n/a
297.574	n/a	RESPONSE	n/a	n/a	n/a	n/a	n/a	n/a	n/a	yellow
297.5919	1.0167	ITI	n/a	n/a	n/a	n/a	n/a	n/a	n/a	n/a
298.6086	0.5167	FIXCROSS	n/a	n/a	n/a	n/a	n/a	n/a	n/a	n/a
299.1253	1.1833	COLOR_NAME	22	Neutral	niebieski	blue	Neutral	Neutral	hit	n/a
300.2774	n/a	RESPONSE	n/a	n/a	n/a	n/a	n/a	n/a	n/a	blue
300.3086	1.0167	ITI	n/a	n/a	n/a	n/a	n/a	n/a	n/a	n/a
301.3253	0.5167	FIXCROSS	n/a	n/a	n/a	n/a	n/a	n/a	n/a	n/a
301.8419	0.7167	COLOR_NAME	23	Neutral	żółty	yellow	Neutral	Neutral	hit	n/a
302.5328	n/a	RESPONSE	n/a	n/a	n/a	n/a	n/a	n/a	n/a	yellow
302.5586	1.0167	ITI	n/a	n/a	n/a	n/a	n/a	n/a	n/a	n/a
303.5753	0.5167	FIXCROSS	n/a	n/a	n/a	n/a	n/a	n/a	n/a	n/a
304.092	0.6667	COLOR_NAME	24	Incongruent	niebieski	blue	zielony	green	hit	n/a
304.7403	n/a	RESPONSE	n/a	n/a	n/a	n/a	n/a	n/a	n/a	blue
304.7586	1.0167	ITI	n/a	n/a	n/a	n/a	n/a	n/a	n/a	n/a
305.7753	0.5167	FIXCROSS	n/a	n/a	n/a	n/a	n/a	n/a	n/a	n/a
306.292	0.7833	COLOR_NAME	25	Neutral	czerwony	red	Neutral	Neutral	hit	n/a
307.0437	n/a	RESPONSE	n/a	n/a	n/a	n/a	n/a	n/a	n/a	red
307.0753	1.0167	ITI	n/a	n/a	n/a	n/a	n/a	n/a	n/a	n/a
308.092	0.5167	FIXCROSS	n/a	n/a	n/a	n/a	n/a	n/a	n/a	n/a
308.6087	0.9	COLOR_NAME	26	Incongruent	czerwony	red	niebieski	blue	hit	n/a
309.4911	n/a	RESPONSE	n/a	n/a	n/a	n/a	n/a	n/a	n/a	red
309.5087	1.0167	ITI	n/a	n/a	n/a	n/a	n/a	n/a	n/a	n/a
310.5253	0.5167	FIXCROSS	n/a	n/a	n/a	n/a	n/a	n/a	n/a	n/a
311.042	1.3667	COLOR_NAME	27	Incongruent	niebieski	blue	żółty	yellow	hit	n/a
312.3864	n/a	RESPONSE	n/a	n/a	n/a	n/a	n/a	n/a	n/a	blue
312.4087	1.0167	ITI	n/a	n/a	n/a	n/a	n/a	n/a	n/a	n/a
313.4254	0.5167	FIXCROSS	n/a	n/a	n/a	n/a	n/a	n/a	n/a	n/a
313.942	0.5	COLOR_NAME	28	Neutral	zielony	green	Neutral	Neutral	hit	n/a
314.4179	n/a	RESPONSE	n/a	n/a	n/a	n/a	n/a	n/a	n/a	green
314.442	1.0167	ITI	n/a	n/a	n/a	n/a	n/a	n/a	n/a	n/a
315.4587	0.5167	FIXCROSS	n/a	n/a	n/a	n/a	n/a	n/a	n/a	n/a
315.9754	0.6667	COLOR_NAME	29	Incongruent	niebieski	blue	zielony	green	hit	n/a
316.6093	n/a	RESPONSE	n/a	n/a	n/a	n/a	n/a	n/a	n/a	blue
316.642	1.0167	ITI	n/a	n/a	n/a	n/a	n/a	n/a	n/a	n/a
317.6587	0.5167	FIXCROSS	n/a	n/a	n/a	n/a	n/a	n/a	n/a	n/a
318.1754	0.8	COLOR_NAME	30	Incongruent	czerwony	red	żółty	yellow	hit	n/a
318.9447	n/a	RESPONSE	n/a	n/a	n/a	n/a	n/a	n/a	n/a	red
318.9754	1.0167	ITI	n/a	n/a	n/a	n/a	n/a	n/a	n/a	n/a
319.9921	0.5167	FIXCROSS	n/a	n/a	n/a	n/a	n/a	n/a	n/a	n/a
320.5087	0.6166	COLOR_NAME	31	Neutral	niebieski	blue	Neutral	Neutral	hit	n/a
321.1042	n/a	RESPONSE	n/a	n/a	n/a	n/a	n/a	n/a	n/a	blue
321.1254	1.0167	ITI	n/a	n/a	n/a	n/a	n/a	n/a	n/a	n/a
322.1421	0.5167	FIXCROSS	n/a	n/a	n/a	n/a	n/a	n/a	n/a	n/a
322.6587	0.8333	COLOR_NAME	32	Incongruent	żółty	yellow	czerwony	red	hit	n/a
323.4716	n/a	RESPONSE	n/a	n/a	n/a	n/a	n/a	n/a	n/a	yellow
323.4921	1.0167	ITI	n/a	n/a	n/a	n/a	n/a	n/a	n/a	n/a
324.5088	0.5167	FIXCROSS	n/a	n/a	n/a	n/a	n/a	n/a	n/a	n/a
325.0254	0.6	COLOR_NAME	33	Incongruent	żółty	yellow	zielony	green	hit	n/a
325.5991	n/a	RESPONSE	n/a	n/a	n/a	n/a	n/a	n/a	n/a	yellow
325.6254	1.0167	ITI	n/a	n/a	n/a	n/a	n/a	n/a	n/a	n/a
326.6421	0.5167	FIXCROSS	n/a	n/a	n/a	n/a	n/a	n/a	n/a	n/a
327.1588	1.3	COLOR_NAME	34	Neutral	czerwony	red	Neutral	Neutral	hit	n/a
328.4304	n/a	RESPONSE	n/a	n/a	n/a	n/a	n/a	n/a	n/a	red
328.4588	1.0167	ITI	n/a	n/a	n/a	n/a	n/a	n/a	n/a	n/a
329.4755	0.5167	FIXCROSS	n/a	n/a	n/a	n/a	n/a	n/a	n/a	n/a
329.9921	0.6	COLOR_NAME	35	Incongruent	czerwony	red	żółty	yellow	hit	n/a
330.5738	n/a	RESPONSE	n/a	n/a	n/a	n/a	n/a	n/a	n/a	red
330.5921	1.0167	ITI	n/a	n/a	n/a	n/a	n/a	n/a	n/a	n/a
331.6088	0.5167	FIXCROSS	n/a	n/a	n/a	n/a	n/a	n/a	n/a	n/a
332.1255	0.5167	COLOR_NAME	36	Neutral	czerwony	red	Neutral	Neutral	hit	n/a
332.6214	n/a	RESPONSE	n/a	n/a	n/a	n/a	n/a	n/a	n/a	red
332.6422	1.0167	ITI	n/a	n/a	n/a	n/a	n/a	n/a	n/a	n/a
333.6588	0.5167	FIXCROSS	n/a	n/a	n/a	n/a	n/a	n/a	n/a	n/a
334.1755	0.75	COLOR_NAME	37	Incongruent	czerwony	red	zielony	green	hit	n/a
334.8928	n/a	RESPONSE	n/a	n/a	n/a	n/a	n/a	n/a	n/a	red
334.9255	1.0167	ITI	n/a	n/a	n/a	n/a	n/a	n/a	n/a	n/a
335.9422	0.5167	FIXCROSS	n/a	n/a	n/a	n/a	n/a	n/a	n/a	n/a
336.4588	0.9833	COLOR_NAME	38	Neutral	zielony	green	Neutral	Neutral	hit	n/a
337.4202	n/a	RESPONSE	n/a	n/a	n/a	n/a	n/a	n/a	n/a	green
337.4422	1.0167	ITI	n/a	n/a	n/a	n/a	n/a	n/a	n/a	n/a
338.4588	0.5167	FIXCROSS	n/a	n/a	n/a	n/a	n/a	n/a	n/a	n/a
338.9755	0.55	COLOR_NAME	39	Neutral	zielony	green	Neutral	Neutral	hit	n/a
339.4997	n/a	RESPONSE	n/a	n/a	n/a	n/a	n/a	n/a	n/a	green
339.5255	1.0167	ITI	n/a	n/a	n/a	n/a	n/a	n/a	n/a	n/a
340.5422	0.5167	FIXCROSS	n/a	n/a	n/a	n/a	n/a	n/a	n/a	n/a
341.0589	0.55	COLOR_NAME	40	Neutral	zielony	green	Neutral	Neutral	hit	n/a
341.5791	n/a	RESPONSE	n/a	n/a	n/a	n/a	n/a	n/a	n/a	green
341.6089	1.0167	ITI	n/a	n/a	n/a	n/a	n/a	n/a	n/a	n/a
342.6255	0.5167	FIXCROSS	n/a	n/a	n/a	n/a	n/a	n/a	n/a	n/a
343.1422	0.65	COLOR_NAME	41	Incongruent	żółty	yellow	czerwony	red	hit	n/a
343.7706	n/a	RESPONSE	n/a	n/a	n/a	n/a	n/a	n/a	n/a	yellow
343.7922	1.0167	ITI	n/a	n/a	n/a	n/a	n/a	n/a	n/a	n/a
344.8089	0.5167	FIXCROSS	n/a	n/a	n/a	n/a	n/a	n/a	n/a	n/a
345.3256	0.4833	COLOR_NAME	42	Neutral	żółty	yellow	Neutral	Neutral	hit	n/a
345.7861	n/a	RESPONSE	n/a	n/a	n/a	n/a	n/a	n/a	n/a	yellow
345.8089	1.0167	ITI	n/a	n/a	n/a	n/a	n/a	n/a	n/a	n/a
346.8256	0.5167	FIXCROSS	n/a	n/a	n/a	n/a	n/a	n/a	n/a	n/a
347.3423	0.8	COLOR_NAME	43	Incongruent	czerwony	red	niebieski	blue	hit	n/a
348.1215	n/a	RESPONSE	n/a	n/a	n/a	n/a	n/a	n/a	n/a	red
348.1423	1.0167	ITI	n/a	n/a	n/a	n/a	n/a	n/a	n/a	n/a
349.1589	0.5167	FIXCROSS	n/a	n/a	n/a	n/a	n/a	n/a	n/a	n/a
349.6756	0.7167	COLOR_NAME	44	Neutral	czerwony	red	Neutral	Neutral	hit	n/a
350.361	n/a	RESPONSE	n/a	n/a	n/a	n/a	n/a	n/a	n/a	red
350.3923	1.0167	ITI	n/a	n/a	n/a	n/a	n/a	n/a	n/a	n/a
351.4089	0.5167	FIXCROSS	n/a	n/a	n/a	n/a	n/a	n/a	n/a	n/a
351.9256	0.4	COLOR_NAME	45	Neutral	czerwony	red	Neutral	Neutral	hit	n/a
352.2965	n/a	RESPONSE	n/a	n/a	n/a	n/a	n/a	n/a	n/a	red
352.3256	1.0167	ITI	n/a	n/a	n/a	n/a	n/a	n/a	n/a	n/a
353.3423	0.5167	FIXCROSS	n/a	n/a	n/a	n/a	n/a	n/a	n/a	n/a
353.859	0.9667	COLOR_NAME	46	Incongruent	zielony	green	żółty	yellow	hit	n/a
354.7918	n/a	RESPONSE	n/a	n/a	n/a	n/a	n/a	n/a	n/a	green
354.8256	1.0167	ITI	n/a	n/a	n/a	n/a	n/a	n/a	n/a	n/a
355.8423	0.5167	FIXCROSS	n/a	n/a	n/a	n/a	n/a	n/a	n/a	n/a
356.359	0.85	COLOR_NAME	47	Neutral	czerwony	red	Neutral	Neutral	hit	n/a
357.1753	n/a	RESPONSE	n/a	n/a	n/a	n/a	n/a	n/a	n/a	red
357.209	1.0167	ITI	n/a	n/a	n/a	n/a	n/a	n/a	n/a	n/a
358.2256	0.5167	FIXCROSS	n/a	n/a	n/a	n/a	n/a	n/a	n/a	n/a
358.7423	0.7667	COLOR_NAME	48	Neutral	żółty	yellow	Neutral	Neutral	hit	n/a
359.4787	n/a	RESPONSE	n/a	n/a	n/a	n/a	n/a	n/a	n/a	yellow
359.509	1.0167	ITI	n/a	n/a	n/a	n/a	n/a	n/a	n/a	n/a
360.5257	0.5167	FIXCROSS	n/a	n/a	n/a	n/a	n/a	n/a	n/a	n/a
361.0423	0.4667	COLOR_NAME	49	Neutral	zielony	green	Neutral	Neutral	hit	n/a
361.4782	n/a	RESPONSE	n/a	n/a	n/a	n/a	n/a	n/a	n/a	green
361.509	1.0167	ITI	n/a	n/a	n/a	n/a	n/a	n/a	n/a	n/a
362.5257	0.5167	FIXCROSS	n/a	n/a	n/a	n/a	n/a	n/a	n/a	n/a
363.0423	0.7333	COLOR_NAME	50	Neutral	niebieski	blue	Neutral	Neutral	hit	n/a
363.7496	n/a	RESPONSE	n/a	n/a	n/a	n/a	n/a	n/a	n/a	blue
363.7757	1.0167	ITI	n/a	n/a	n/a	n/a	n/a	n/a	n/a	n/a
364.7924	0.5167	FIXCROSS	n/a	n/a	n/a	n/a	n/a	n/a	n/a	n/a
365.309	0.6333	COLOR_NAME	51	Neutral	żółty	yellow	Neutral	Neutral	hit	n/a
365.9091	n/a	RESPONSE	n/a	n/a	n/a	n/a	n/a	n/a	n/a	yellow
365.9424	1.0167	ITI	n/a	n/a	n/a	n/a	n/a	n/a	n/a	n/a
366.959	0.5167	FIXCROSS	n/a	n/a	n/a	n/a	n/a	n/a	n/a	n/a
367.4757	0.4833	COLOR_NAME	52	Neutral	niebieski	blue	Neutral	Neutral	hit	n/a
367.9406	n/a	RESPONSE	n/a	n/a	n/a	n/a	n/a	n/a	n/a	blue
367.959	1.0167	ITI	n/a	n/a	n/a	n/a	n/a	n/a	n/a	n/a
368.9757	0.5167	FIXCROSS	n/a	n/a	n/a	n/a	n/a	n/a	n/a	n/a
369.4924	0.8833	COLOR_NAME	53	Incongruent	zielony	green	czerwony	red	hit	n/a
370.34	n/a	RESPONSE	n/a	n/a	n/a	n/a	n/a	n/a	n/a	green
370.3757	1.0167	ITI	n/a	n/a	n/a	n/a	n/a	n/a	n/a	n/a
371.3924	0.5167	FIXCROSS	n/a	n/a	n/a	n/a	n/a	n/a	n/a	n/a
371.9091	0.6167	COLOR_NAME	54	Neutral	zielony	green	Neutral	Neutral	hit	n/a
372.4995	n/a	RESPONSE	n/a	n/a	n/a	n/a	n/a	n/a	n/a	green
372.5257	1.0167	ITI	n/a	n/a	n/a	n/a	n/a	n/a	n/a	n/a
373.5424	0.5167	FIXCROSS	n/a	n/a	n/a	n/a	n/a	n/a	n/a	n/a
374.0591	0.7333	COLOR_NAME	55	Incongruent	żółty	yellow	niebieski	blue	hit	n/a
374.7709	n/a	RESPONSE	n/a	n/a	n/a	n/a	n/a	n/a	n/a	yellow
374.7924	1.0167	ITI	n/a	n/a	n/a	n/a	n/a	n/a	n/a	n/a
375.8091	0.5167	FIXCROSS	n/a	n/a	n/a	n/a	n/a	n/a	n/a	n/a
376.3258	1.1	COLOR_NAME	56	Neutral	czerwony	red	Neutral	Neutral	hit	n/a
377.3942	n/a	RESPONSE	n/a	n/a	n/a	n/a	n/a	n/a	n/a	red
377.4258	1.0167	ITI	n/a	n/a	n/a	n/a	n/a	n/a	n/a	n/a
378.4424	0.5167	FIXCROSS	n/a	n/a	n/a	n/a	n/a	n/a	n/a	n/a
378.9591	0.6833	COLOR_NAME	57	Neutral	niebieski	blue	Neutral	Neutral	hit	n/a
379.6177	n/a	RESPONSE	n/a	n/a	n/a	n/a	n/a	n/a	n/a	blue
379.6425	1.0167	ITI	n/a	n/a	n/a	n/a	n/a	n/a	n/a	n/a
380.6591	0.5167	FIXCROSS	n/a	n/a	n/a	n/a	n/a	n/a	n/a	n/a
381.1758	0.8833	COLOR_NAME	58	Neutral	zielony	green	Neutral	Neutral	hit	n/a
382.0332	n/a	RESPONSE	n/a	n/a	n/a	n/a	n/a	n/a	n/a	green
382.0591	1.0167	ITI	n/a	n/a	n/a	n/a	n/a	n/a	n/a	n/a
383.0758	0.5167	FIXCROSS	n/a	n/a	n/a	n/a	n/a	n/a	n/a	n/a
383.5925	0.7833	COLOR_NAME	59	Neutral	czerwony	red	Neutral	Neutral	hit	n/a
384.3525	n/a	RESPONSE	n/a	n/a	n/a	n/a	n/a	n/a	n/a	red
384.3758	1.0167	ITI	n/a	n/a	n/a	n/a	n/a	n/a	n/a	n/a
385.3925	0.5167	FIXCROSS	n/a	n/a	n/a	n/a	n/a	n/a	n/a	n/a
385.9092	0.75	COLOR_NAME	60	Neutral	żółty	yellow	Neutral	Neutral	hit	n/a
386.64	n/a	RESPONSE	n/a	n/a	n/a	n/a	n/a	n/a	n/a	yellow
386.6592	1.0167	ITI	n/a	n/a	n/a	n/a	n/a	n/a	n/a	n/a
387.6758	0.5167	FIXCROSS	n/a	n/a	n/a	n/a	n/a	n/a	n/a	n/a
388.1925	0.5833	COLOR_NAME	61	Neutral	żółty	yellow	Neutral	Neutral	hit	n/a
388.7514	n/a	RESPONSE	n/a	n/a	n/a	n/a	n/a	n/a	n/a	yellow
388.7758	1.0167	ITI	n/a	n/a	n/a	n/a	n/a	n/a	n/a	n/a
389.7925	0.5167	FIXCROSS	n/a	n/a	n/a	n/a	n/a	n/a	n/a	n/a
390.3092	0.3833	COLOR_NAME	62	Neutral	żółty	yellow	Neutral	Neutral	hit	n/a
390.671	n/a	RESPONSE	n/a	n/a	n/a	n/a	n/a	n/a	n/a	yellow
390.6925	1.0167	ITI	n/a	n/a	n/a	n/a	n/a	n/a	n/a	n/a
391.7092	0.5167	FIXCROSS	n/a	n/a	n/a	n/a	n/a	n/a	n/a	n/a
392.2259	0.7334	COLOR_NAME	63	Incongruent	czerwony	red	zielony	green	hit	n/a
392.9264	n/a	RESPONSE	n/a	n/a	n/a	n/a	n/a	n/a	n/a	red
392.9592	1.0167	ITI	n/a	n/a	n/a	n/a	n/a	n/a	n/a	n/a
393.9759	0.5167	FIXCROSS	n/a	n/a	n/a	n/a	n/a	n/a	n/a	n/a
394.4926	0.85	COLOR_NAME	64	Neutral	niebieski	blue	Neutral	Neutral	hit	n/a
395.3098	n/a	RESPONSE	n/a	n/a	n/a	n/a	n/a	n/a	n/a	blue
395.3426	1.0167	ITI	n/a	n/a	n/a	n/a	n/a	n/a	n/a	n/a
396.3592	0.5167	FIXCROSS	n/a	n/a	n/a	n/a	n/a	n/a	n/a	n/a
396.8759	1.0333	COLOR_NAME	65	Incongruent	czerwony	red	niebieski	blue	hit	n/a
397.8851	n/a	RESPONSE	n/a	n/a	n/a	n/a	n/a	n/a	n/a	red
397.9092	1.0167	ITI	n/a	n/a	n/a	n/a	n/a	n/a	n/a	n/a
398.9259	0.5167	FIXCROSS	n/a	n/a	n/a	n/a	n/a	n/a	n/a	n/a
399.4426	0.7667	COLOR_NAME	66	Neutral	zielony	green	Neutral	Neutral	hit	n/a
400.1886	n/a	RESPONSE	n/a	n/a	n/a	n/a	n/a	n/a	n/a	green
400.2093	1.0167	ITI	n/a	n/a	n/a	n/a	n/a	n/a	n/a	n/a
401.2259	0.5167	FIXCROSS	n/a	n/a	n/a	n/a	n/a	n/a	n/a	n/a
401.7426	0.8	COLOR_NAME	67	Incongruent	niebieski	blue	czerwony	red	incorrect	n/a
402.524	n/a	RESPONSE	n/a	n/a	n/a	n/a	n/a	n/a	n/a	red
402.5426	1.0167	ITI	n/a	n/a	n/a	n/a	n/a	n/a	n/a	n/a
403.5593	0.5167	FIXCROSS	n/a	n/a	n/a	n/a	n/a	n/a	n/a	n/a
404.0759	0.8667	COLOR_NAME	68	Incongruent	niebieski	blue	zielony	green	hit	n/a
404.9234	n/a	RESPONSE	n/a	n/a	n/a	n/a	n/a	n/a	n/a	blue
404.9426	1.0167	ITI	n/a	n/a	n/a	n/a	n/a	n/a	n/a	n/a
405.9593	0.5167	FIXCROSS	n/a	n/a	n/a	n/a	n/a	n/a	n/a	n/a
406.476	0.4833	COLOR_NAME	69	Neutral	niebieski	blue	Neutral	Neutral	hit	n/a
406.9389	n/a	RESPONSE	n/a	n/a	n/a	n/a	n/a	n/a	n/a	blue
406.9593	1.0167	ITI	n/a	n/a	n/a	n/a	n/a	n/a	n/a	n/a
407.976	0.5167	FIXCROSS	n/a	n/a	n/a	n/a	n/a	n/a	n/a	n/a
408.4926	0.7833	COLOR_NAME	70	Incongruent	zielony	green	niebieski	blue	hit	n/a
409.2423	n/a	RESPONSE	n/a	n/a	n/a	n/a	n/a	n/a	n/a	green
409.276	1.0167	ITI	n/a	n/a	n/a	n/a	n/a	n/a	n/a	n/a
410.2927	0.5167	FIXCROSS	n/a	n/a	n/a	n/a	n/a	n/a	n/a	n/a
410.8093	0.5167	COLOR_NAME	71	Incongruent	niebieski	blue	czerwony	red	hit	n/a
411.3059	n/a	RESPONSE	n/a	n/a	n/a	n/a	n/a	n/a	n/a	blue
411.326	1.0167	ITI	n/a	n/a	n/a	n/a	n/a	n/a	n/a	n/a
412.3427	0.5167	FIXCROSS	n/a	n/a	n/a	n/a	n/a	n/a	n/a	n/a
412.8593	1.05	COLOR_NAME	72	Neutral	zielony	green	Neutral	Neutral	hit	n/a
413.8812	n/a	RESPONSE	n/a	n/a	n/a	n/a	n/a	n/a	n/a	green
413.9093	1.0333	ITI	n/a	n/a	n/a	n/a	n/a	n/a	n/a	n/a
417.0804	n/a	RESPONSE	n/a	n/a	n/a	n/a	n/a	n/a	n/a	n/a
