onset	duration	trial_type	trial_number	stroop_condition	stim_text(PL)	stim_text(eng)	stim_color(PL)	stim_color(eng)	response_type	response_color
0.0	n/a	RESPONSE	n/a	n/a	n/a	n/a	n/a	n/a	n/a	n/a
0.0548	1.0333	ITI	n/a	n/a	n/a	n/a	n/a	n/a	n/a	n/a
1.0881	0.5167	FIXCROSS	n/a	n/a	n/a	n/a	n/a	n/a	n/a	n/a
1.6048	1.7	T_INK	1	Incongruent	czerwony	red	niebieski	blue	hit	n/a
3.2776	n/a	RESPONSE	n/a	n/a	n/a	n/a	n/a	n/a	n/a	blue
3.3048	0.5167	FEEDBACK	n/a	n/a	n/a	n/a	n/a	n/a	n/a	n/a
3.8215	1.0167	ITI	n/a	n/a	n/a	n/a	n/a	n/a	n/a	n/a
4.8381	0.5167	FIXCROSS	n/a	n/a	n/a	n/a	n/a	n/a	n/a	n/a
5.3548	1.15	T_INK	2	Neutral	xxxxxxxxx	xxxxxxxxx	zielony	green	hit	n/a
6.4752	n/a	RESPONSE	n/a	n/a	n/a	n/a	n/a	n/a	n/a	green
6.5048	0.5167	FEEDBACK	n/a	n/a	n/a	n/a	n/a	n/a	n/a	n/a
7.0215	1.0167	ITI	n/a	n/a	n/a	n/a	n/a	n/a	n/a	n/a
8.0382	0.5167	FIXCROSS	n/a	n/a	n/a	n/a	n/a	n/a	n/a	n/a
8.5548	1.1333	T_INK	3	Incongruent	czerwony	red	zielony	green	hit	n/a
9.6568	n/a	RESPONSE	n/a	n/a	n/a	n/a	n/a	n/a	n/a	green
9.6882	0.5167	FEEDBACK	n/a	n/a	n/a	n/a	n/a	n/a	n/a	n/a
10.2049	1.0167	ITI	n/a	n/a	n/a	n/a	n/a	n/a	n/a	n/a
11.2215	0.5167	FIXCROSS	n/a	n/a	n/a	n/a	n/a	n/a	n/a	n/a
11.7382	0.5667	T_INK	4	Neutral	xxxxx	xxxxx	czerwony	red	hit	n/a
12.2789	n/a	RESPONSE	n/a	n/a	n/a	n/a	n/a	n/a	n/a	red
12.3049	0.5167	FEEDBACK	n/a	n/a	n/a	n/a	n/a	n/a	n/a	n/a
12.8216	1.0167	ITI	n/a	n/a	n/a	n/a	n/a	n/a	n/a	n/a
13.8382	0.5167	FIXCROSS	n/a	n/a	n/a	n/a	n/a	n/a	n/a	n/a
14.3549	0.5333	T_INK	5	Incongruent	zielony	green	żółty	yellow	hit	n/a
14.869	n/a	RESPONSE	n/a	n/a	n/a	n/a	n/a	n/a	n/a	yellow
14.8882	0.5167	FEEDBACK	n/a	n/a	n/a	n/a	n/a	n/a	n/a	n/a
15.4049	1.0167	ITI	n/a	n/a	n/a	n/a	n/a	n/a	n/a	n/a
16.4216	0.5167	FIXCROSS	n/a	n/a	n/a	n/a	n/a	n/a	n/a	n/a
16.9383	0.5	T_INK	6	Neutral	xxxxxxxxx	xxxxxxxxx	żółty	yellow	hit	n/a
17.4111	n/a	RESPONSE	n/a	n/a	n/a	n/a	n/a	n/a	n/a	yellow
17.4383	0.5167	FEEDBACK	n/a	n/a	n/a	n/a	n/a	n/a	n/a	n/a
17.9549	1.0167	ITI	n/a	n/a	n/a	n/a	n/a	n/a	n/a	n/a
18.9716	0.5167	FIXCROSS	n/a	n/a	n/a	n/a	n/a	n/a	n/a	n/a
19.4883	0.9333	T_INK	7	Incongruent	czerwony	red	żółty	yellow	hit	n/a
20.4008	n/a	RESPONSE	n/a	n/a	n/a	n/a	n/a	n/a	n/a	yellow
20.4216	0.5167	FEEDBACK	n/a	n/a	n/a	n/a	n/a	n/a	n/a	n/a
20.9383	1.0167	ITI	n/a	n/a	n/a	n/a	n/a	n/a	n/a	n/a
21.955	0.5167	FIXCROSS	n/a	n/a	n/a	n/a	n/a	n/a	n/a	n/a
22.4717	0.7333	T_INK	8	Neutral	xxxxxxxx	xxxxxxxx	niebieski	blue	hit	n/a
23.1827	n/a	RESPONSE	n/a	n/a	n/a	n/a	n/a	n/a	n/a	blue
23.205	0.5167	FEEDBACK	n/a	n/a	n/a	n/a	n/a	n/a	n/a	n/a
23.7217	1.0167	ITI	n/a	n/a	n/a	n/a	n/a	n/a	n/a	n/a
24.7383	0.5167	FIXCROSS	n/a	n/a	n/a	n/a	n/a	n/a	n/a	n/a
25.255	0.6667	T_INK	9	Incongruent	niebieski	blue	zielony	green	hit	n/a
25.9008	n/a	RESPONSE	n/a	n/a	n/a	n/a	n/a	n/a	n/a	green
25.9217	0.5167	FEEDBACK	n/a	n/a	n/a	n/a	n/a	n/a	n/a	n/a
26.4384	1.0167	ITI	n/a	n/a	n/a	n/a	n/a	n/a	n/a	n/a
27.455	0.5167	FIXCROSS	n/a	n/a	n/a	n/a	n/a	n/a	n/a	n/a
27.9717	0.5667	T_INK	10	Neutral	xxxxxxx	xxxxxxx	czerwony	red	hit	n/a
28.5068	n/a	RESPONSE	n/a	n/a	n/a	n/a	n/a	n/a	n/a	red
28.5384	0.5167	FEEDBACK	n/a	n/a	n/a	n/a	n/a	n/a	n/a	n/a
29.0551	1.0167	ITI	n/a	n/a	n/a	n/a	n/a	n/a	n/a	n/a
30.0717	0.5167	FIXCROSS	n/a	n/a	n/a	n/a	n/a	n/a	n/a	n/a
30.5884	0.5333	T_INK	11	Neutral	xxxxxxxx	xxxxxxxx	żółty	yellow	hit	n/a
31.0968	n/a	RESPONSE	n/a	n/a	n/a	n/a	n/a	n/a	n/a	yellow
31.1217	0.5167	FEEDBACK	n/a	n/a	n/a	n/a	n/a	n/a	n/a	n/a
31.6384	1.0167	ITI	n/a	n/a	n/a	n/a	n/a	n/a	n/a	n/a
32.6551	0.5167	FIXCROSS	n/a	n/a	n/a	n/a	n/a	n/a	n/a	n/a
33.1718	0.5	T_INK	12	Neutral	xxxxxxxx	xxxxxxxx	zielony	green	hit	n/a
33.639	n/a	RESPONSE	n/a	n/a	n/a	n/a	n/a	n/a	n/a	green
33.6718	0.5167	FEEDBACK	n/a	n/a	n/a	n/a	n/a	n/a	n/a	n/a
34.1884	1.0333	ITI	n/a	n/a	n/a	n/a	n/a	n/a	n/a	n/a
76.4075	n/a	RESPONSE	n/a	n/a	n/a	n/a	n/a	n/a	n/a	n/a
76.4722	1.0167	ITI	n/a	n/a	n/a	n/a	n/a	n/a	n/a	n/a
77.4889	0.5167	FIXCROSS	n/a	n/a	n/a	n/a	n/a	n/a	n/a	n/a
78.0056	0.6167	INK	1	Neutral	xxxxxxxx	xxxxxxxx	zielony	green	hit	n/a
78.5979	n/a	RESPONSE	n/a	n/a	n/a	n/a	n/a	n/a	n/a	green
78.6222	1.0167	ITI	n/a	n/a	n/a	n/a	n/a	n/a	n/a	n/a
79.6389	0.5167	FIXCROSS	n/a	n/a	n/a	n/a	n/a	n/a	n/a	n/a
80.1556	0.6	INK	2	Incongruent	czerwony	red	zielony	green	hit	n/a
80.7244	n/a	RESPONSE	n/a	n/a	n/a	n/a	n/a	n/a	n/a	green
80.7556	1.0167	ITI	n/a	n/a	n/a	n/a	n/a	n/a	n/a	n/a
81.7723	0.5167	FIXCROSS	n/a	n/a	n/a	n/a	n/a	n/a	n/a	n/a
82.2889	0.4333	INK	3	Neutral	xxxxxxxxx	xxxxxxxxx	czerwony	red	hit	n/a
82.6908	n/a	RESPONSE	n/a	n/a	n/a	n/a	n/a	n/a	n/a	red
82.7223	1.0167	ITI	n/a	n/a	n/a	n/a	n/a	n/a	n/a	n/a
83.7389	0.5167	FIXCROSS	n/a	n/a	n/a	n/a	n/a	n/a	n/a	n/a
84.2556	0.45	INK	4	Incongruent	czerwony	red	żółty	yellow	hit	n/a
84.6734	n/a	RESPONSE	n/a	n/a	n/a	n/a	n/a	n/a	n/a	yellow
84.7056	1.0167	ITI	n/a	n/a	n/a	n/a	n/a	n/a	n/a	n/a
85.7223	0.5167	FIXCROSS	n/a	n/a	n/a	n/a	n/a	n/a	n/a	n/a
86.239	0.4667	INK	5	Neutral	xxxxxxxx	xxxxxxxx	żółty	yellow	hit	n/a
86.6719	n/a	RESPONSE	n/a	n/a	n/a	n/a	n/a	n/a	n/a	yellow
86.7056	1.0167	ITI	n/a	n/a	n/a	n/a	n/a	n/a	n/a	n/a
87.7223	0.5167	FIXCROSS	n/a	n/a	n/a	n/a	n/a	n/a	n/a	n/a
88.239	0.4667	INK	6	Neutral	xxxxxxxxx	xxxxxxxxx	zielony	green	hit	n/a
88.6865	n/a	RESPONSE	n/a	n/a	n/a	n/a	n/a	n/a	n/a	green
88.7057	1.0167	ITI	n/a	n/a	n/a	n/a	n/a	n/a	n/a	n/a
89.7223	0.5167	FIXCROSS	n/a	n/a	n/a	n/a	n/a	n/a	n/a	n/a
90.239	0.75	INK	7	Neutral	xxxxx	xxxxx	czerwony	red	hit	n/a
90.9568	n/a	RESPONSE	n/a	n/a	n/a	n/a	n/a	n/a	n/a	red
90.989	1.0167	ITI	n/a	n/a	n/a	n/a	n/a	n/a	n/a	n/a
92.0057	0.5167	FIXCROSS	n/a	n/a	n/a	n/a	n/a	n/a	n/a	n/a
92.5224	0.65	INK	8	Incongruent	żółty	yellow	czerwony	red	hit	n/a
93.1471	n/a	RESPONSE	n/a	n/a	n/a	n/a	n/a	n/a	n/a	red
93.1724	1.0167	ITI	n/a	n/a	n/a	n/a	n/a	n/a	n/a	n/a
94.189	0.5167	FIXCROSS	n/a	n/a	n/a	n/a	n/a	n/a	n/a	n/a
94.7057	0.4667	INK	9	Incongruent	czerwony	red	żółty	yellow	incorrect	n/a
95.1456	n/a	RESPONSE	n/a	n/a	n/a	n/a	n/a	n/a	n/a	green
95.1724	1.0167	ITI	n/a	n/a	n/a	n/a	n/a	n/a	n/a	n/a
95.3375	n/a	RESPONSE	n/a	n/a	n/a	n/a	n/a	n/a	n/a	yellow
96.1891	0.5167	FIXCROSS	n/a	n/a	n/a	n/a	n/a	n/a	n/a	n/a
96.7057	0.75	INK	10	Incongruent	żółty	yellow	niebieski	blue	hit	n/a
97.432	n/a	RESPONSE	n/a	n/a	n/a	n/a	n/a	n/a	n/a	blue
97.4558	1.0167	ITI	n/a	n/a	n/a	n/a	n/a	n/a	n/a	n/a
98.4724	0.5167	FIXCROSS	n/a	n/a	n/a	n/a	n/a	n/a	n/a	n/a
98.9891	0.7167	INK	11	Neutral	xxxxxxxxx	xxxxxxxxx	czerwony	red	hit	n/a
99.6863	n/a	RESPONSE	n/a	n/a	n/a	n/a	n/a	n/a	n/a	red
99.7058	1.0167	ITI	n/a	n/a	n/a	n/a	n/a	n/a	n/a	n/a
100.7225	0.5167	FIXCROSS	n/a	n/a	n/a	n/a	n/a	n/a	n/a	n/a
101.2391	0.5	INK	12	Neutral	xxxxxxx	xxxxxxx	czerwony	red	hit	n/a
101.7168	n/a	RESPONSE	n/a	n/a	n/a	n/a	n/a	n/a	n/a	red
101.7391	1.0167	ITI	n/a	n/a	n/a	n/a	n/a	n/a	n/a	n/a
102.7558	0.5167	FIXCROSS	n/a	n/a	n/a	n/a	n/a	n/a	n/a	n/a
103.2725	0.65	INK	13	Incongruent	niebieski	blue	zielony	green	hit	n/a
103.8913	n/a	RESPONSE	n/a	n/a	n/a	n/a	n/a	n/a	n/a	green
103.9225	1.0167	ITI	n/a	n/a	n/a	n/a	n/a	n/a	n/a	n/a
104.9392	0.5167	FIXCROSS	n/a	n/a	n/a	n/a	n/a	n/a	n/a	n/a
105.4558	0.4333	INK	14	Neutral	xxxxxxx	xxxxxxx	czerwony	red	hit	n/a
105.8578	n/a	RESPONSE	n/a	n/a	n/a	n/a	n/a	n/a	n/a	red
105.8892	1.0167	ITI	n/a	n/a	n/a	n/a	n/a	n/a	n/a	n/a
106.9058	0.5167	FIXCROSS	n/a	n/a	n/a	n/a	n/a	n/a	n/a	n/a
107.4225	0.45	INK	15	Neutral	xxxxxxx	xxxxxxx	żółty	yellow	hit	n/a
107.84	n/a	RESPONSE	n/a	n/a	n/a	n/a	n/a	n/a	n/a	yellow
107.8725	1.0167	ITI	n/a	n/a	n/a	n/a	n/a	n/a	n/a	n/a
108.8892	0.5167	FIXCROSS	n/a	n/a	n/a	n/a	n/a	n/a	n/a	n/a
109.4059	0.45	INK	16	Incongruent	zielony	green	czerwony	red	hit	n/a
109.8386	n/a	RESPONSE	n/a	n/a	n/a	n/a	n/a	n/a	n/a	red
109.8559	1.0167	ITI	n/a	n/a	n/a	n/a	n/a	n/a	n/a	n/a
110.8726	0.5167	FIXCROSS	n/a	n/a	n/a	n/a	n/a	n/a	n/a	n/a
111.3892	0.5333	INK	17	Neutral	xxxxxxx	xxxxxxx	żółty	yellow	hit	n/a
111.901	n/a	RESPONSE	n/a	n/a	n/a	n/a	n/a	n/a	n/a	yellow
111.9226	1.0167	ITI	n/a	n/a	n/a	n/a	n/a	n/a	n/a	n/a
112.9392	0.5167	FIXCROSS	n/a	n/a	n/a	n/a	n/a	n/a	n/a	n/a
113.4559	0.5	INK	18	Incongruent	żółty	yellow	czerwony	red	hit	n/a
113.9316	n/a	RESPONSE	n/a	n/a	n/a	n/a	n/a	n/a	n/a	red
113.9559	1.0167	ITI	n/a	n/a	n/a	n/a	n/a	n/a	n/a	n/a
114.9726	0.5167	FIXCROSS	n/a	n/a	n/a	n/a	n/a	n/a	n/a	n/a
115.4893	0.6	INK	19	Neutral	xxxxxxxx	xxxxxxxx	zielony	green	hit	n/a
116.0579	n/a	RESPONSE	n/a	n/a	n/a	n/a	n/a	n/a	n/a	green
116.0893	1.0167	ITI	n/a	n/a	n/a	n/a	n/a	n/a	n/a	n/a
117.106	0.5167	FIXCROSS	n/a	n/a	n/a	n/a	n/a	n/a	n/a	n/a
117.6226	0.8167	INK	20	Neutral	xxxxx	xxxxx	niebieski	blue	hit	n/a
118.4083	n/a	RESPONSE	n/a	n/a	n/a	n/a	n/a	n/a	n/a	blue
118.4393	1.0167	ITI	n/a	n/a	n/a	n/a	n/a	n/a	n/a	n/a
119.456	0.5167	FIXCROSS	n/a	n/a	n/a	n/a	n/a	n/a	n/a	n/a
119.9726	0.5	INK	21	Incongruent	zielony	green	czerwony	red	hit	n/a
120.4548	n/a	RESPONSE	n/a	n/a	n/a	n/a	n/a	n/a	n/a	red
120.4727	1.0167	ITI	n/a	n/a	n/a	n/a	n/a	n/a	n/a	n/a
121.4893	0.5167	FIXCROSS	n/a	n/a	n/a	n/a	n/a	n/a	n/a	n/a
122.006	0.5	INK	22	Incongruent	zielony	green	czerwony	red	hit	n/a
122.4853	n/a	RESPONSE	n/a	n/a	n/a	n/a	n/a	n/a	n/a	red
122.506	1.0167	ITI	n/a	n/a	n/a	n/a	n/a	n/a	n/a	n/a
123.5227	0.5167	FIXCROSS	n/a	n/a	n/a	n/a	n/a	n/a	n/a	n/a
124.0394	0.5167	INK	23	Incongruent	zielony	green	żółty	yellow	hit	n/a
124.5318	n/a	RESPONSE	n/a	n/a	n/a	n/a	n/a	n/a	n/a	yellow
124.556	1.0167	ITI	n/a	n/a	n/a	n/a	n/a	n/a	n/a	n/a
125.5727	0.5167	FIXCROSS	n/a	n/a	n/a	n/a	n/a	n/a	n/a	n/a
126.0894	0.4667	INK	24	Incongruent	niebieski	blue	czerwony	red	hit	n/a
126.5302	n/a	RESPONSE	n/a	n/a	n/a	n/a	n/a	n/a	n/a	red
126.556	1.0167	ITI	n/a	n/a	n/a	n/a	n/a	n/a	n/a	n/a
127.5727	0.5167	FIXCROSS	n/a	n/a	n/a	n/a	n/a	n/a	n/a	n/a
128.0894	0.6333	INK	25	Incongruent	niebieski	blue	zielony	green	hit	n/a
128.7046	n/a	RESPONSE	n/a	n/a	n/a	n/a	n/a	n/a	n/a	green
128.7227	1.0167	ITI	n/a	n/a	n/a	n/a	n/a	n/a	n/a	n/a
129.7394	0.5167	FIXCROSS	n/a	n/a	n/a	n/a	n/a	n/a	n/a	n/a
130.2561	0.5167	INK	26	Incongruent	niebieski	blue	czerwony	red	hit	n/a
130.7512	n/a	RESPONSE	n/a	n/a	n/a	n/a	n/a	n/a	n/a	red
130.7728	1.0167	ITI	n/a	n/a	n/a	n/a	n/a	n/a	n/a	n/a
131.7894	0.5167	FIXCROSS	n/a	n/a	n/a	n/a	n/a	n/a	n/a	n/a
132.3061	0.6333	INK	27	Neutral	xxxxx	xxxxx	czerwony	red	hit	n/a
132.9096	n/a	RESPONSE	n/a	n/a	n/a	n/a	n/a	n/a	n/a	red
132.9394	1.0167	ITI	n/a	n/a	n/a	n/a	n/a	n/a	n/a	n/a
133.9561	0.5167	FIXCROSS	n/a	n/a	n/a	n/a	n/a	n/a	n/a	n/a
134.4728	0.4833	INK	28	Incongruent	czerwony	red	niebieski	blue	hit	n/a
134.9241	n/a	RESPONSE	n/a	n/a	n/a	n/a	n/a	n/a	n/a	blue
134.9561	1.0167	ITI	n/a	n/a	n/a	n/a	n/a	n/a	n/a	n/a
135.9728	0.5167	FIXCROSS	n/a	n/a	n/a	n/a	n/a	n/a	n/a	n/a
136.4895	0.4334	INK	29	Incongruent	niebieski	blue	żółty	yellow	hit	n/a
136.8907	n/a	RESPONSE	n/a	n/a	n/a	n/a	n/a	n/a	n/a	yellow
136.9228	1.0167	ITI	n/a	n/a	n/a	n/a	n/a	n/a	n/a	n/a
137.9395	0.5167	FIXCROSS	n/a	n/a	n/a	n/a	n/a	n/a	n/a	n/a
138.4562	0.55	INK	30	Incongruent	czerwony	red	niebieski	blue	hit	n/a
138.9852	n/a	RESPONSE	n/a	n/a	n/a	n/a	n/a	n/a	n/a	blue
139.0062	1.0167	ITI	n/a	n/a	n/a	n/a	n/a	n/a	n/a	n/a
140.0228	0.5167	FIXCROSS	n/a	n/a	n/a	n/a	n/a	n/a	n/a	n/a
140.5395	0.5833	INK	31	Neutral	xxxxxxxxx	xxxxxxxxx	żółty	yellow	incorrect	n/a
141.0955	n/a	RESPONSE	n/a	n/a	n/a	n/a	n/a	n/a	n/a	green
141.1229	1.0167	ITI	n/a	n/a	n/a	n/a	n/a	n/a	n/a	n/a
142.1395	0.5167	FIXCROSS	n/a	n/a	n/a	n/a	n/a	n/a	n/a	n/a
142.6562	0.55	INK	32	Neutral	xxxxxxxxx	xxxxxxxxx	zielony	green	hit	n/a
143.174	n/a	RESPONSE	n/a	n/a	n/a	n/a	n/a	n/a	n/a	green
143.2062	1.0167	ITI	n/a	n/a	n/a	n/a	n/a	n/a	n/a	n/a
144.2229	0.5167	FIXCROSS	n/a	n/a	n/a	n/a	n/a	n/a	n/a	n/a
144.7396	0.4667	INK	33	Neutral	xxxxx	xxxxx	zielony	green	hit	n/a
145.1885	n/a	RESPONSE	n/a	n/a	n/a	n/a	n/a	n/a	n/a	green
145.2062	1.0167	ITI	n/a	n/a	n/a	n/a	n/a	n/a	n/a	n/a
146.2229	0.5167	FIXCROSS	n/a	n/a	n/a	n/a	n/a	n/a	n/a	n/a
146.7396	0.6	INK	34	Neutral	xxxxxxx	xxxxxxx	niebieski	blue	hit	n/a
147.315	n/a	RESPONSE	n/a	n/a	n/a	n/a	n/a	n/a	n/a	blue
147.3396	1.0167	ITI	n/a	n/a	n/a	n/a	n/a	n/a	n/a	n/a
148.3563	0.5167	FIXCROSS	n/a	n/a	n/a	n/a	n/a	n/a	n/a	n/a
148.8729	0.4333	INK	35	Neutral	xxxxxxx	xxxxxxx	żółty	yellow	hit	n/a
149.2816	n/a	RESPONSE	n/a	n/a	n/a	n/a	n/a	n/a	n/a	yellow
149.3063	1.0167	ITI	n/a	n/a	n/a	n/a	n/a	n/a	n/a	n/a
150.323	0.5167	FIXCROSS	n/a	n/a	n/a	n/a	n/a	n/a	n/a	n/a
150.8396	0.4833	INK	36	Neutral	xxxxxxxx	xxxxxxxx	niebieski	blue	hit	n/a
151.2961	n/a	RESPONSE	n/a	n/a	n/a	n/a	n/a	n/a	n/a	blue
151.323	1.0167	ITI	n/a	n/a	n/a	n/a	n/a	n/a	n/a	n/a
152.3396	0.5167	FIXCROSS	n/a	n/a	n/a	n/a	n/a	n/a	n/a	n/a
152.8563	0.4667	INK	37	Incongruent	czerwony	red	żółty	yellow	hit	n/a
153.2945	n/a	RESPONSE	n/a	n/a	n/a	n/a	n/a	n/a	n/a	yellow
153.323	1.0167	ITI	n/a	n/a	n/a	n/a	n/a	n/a	n/a	n/a
154.3397	0.5167	FIXCROSS	n/a	n/a	n/a	n/a	n/a	n/a	n/a	n/a
154.8563	0.55	INK	38	Incongruent	zielony	green	niebieski	blue	hit	n/a
155.389	n/a	RESPONSE	n/a	n/a	n/a	n/a	n/a	n/a	n/a	blue
155.4063	1.0167	ITI	n/a	n/a	n/a	n/a	n/a	n/a	n/a	n/a
156.423	0.5167	FIXCROSS	n/a	n/a	n/a	n/a	n/a	n/a	n/a	n/a
156.9397	0.6167	INK	39	Incongruent	czerwony	red	niebieski	blue	hit	n/a
157.5314	n/a	RESPONSE	n/a	n/a	n/a	n/a	n/a	n/a	n/a	blue
157.5564	1.0167	ITI	n/a	n/a	n/a	n/a	n/a	n/a	n/a	n/a
158.573	0.5167	FIXCROSS	n/a	n/a	n/a	n/a	n/a	n/a	n/a	n/a
159.0897	0.5667	INK	40	Incongruent	niebieski	blue	czerwony	red	hit	n/a
159.626	n/a	RESPONSE	n/a	n/a	n/a	n/a	n/a	n/a	n/a	red
159.6564	1.0167	ITI	n/a	n/a	n/a	n/a	n/a	n/a	n/a	n/a
160.6731	0.5167	FIXCROSS	n/a	n/a	n/a	n/a	n/a	n/a	n/a	n/a
161.1897	0.7667	INK	41	Neutral	xxxxxxxx	xxxxxxxx	niebieski	blue	hit	n/a
161.9282	n/a	RESPONSE	n/a	n/a	n/a	n/a	n/a	n/a	n/a	blue
161.9564	1.0167	ITI	n/a	n/a	n/a	n/a	n/a	n/a	n/a	n/a
162.9731	0.5167	FIXCROSS	n/a	n/a	n/a	n/a	n/a	n/a	n/a	n/a
163.4898	0.5833	INK	42	Neutral	xxxxxxxxx	xxxxxxxxx	czerwony	red	hit	n/a
164.0546	n/a	RESPONSE	n/a	n/a	n/a	n/a	n/a	n/a	n/a	red
164.0731	1.0167	ITI	n/a	n/a	n/a	n/a	n/a	n/a	n/a	n/a
165.0898	0.5167	FIXCROSS	n/a	n/a	n/a	n/a	n/a	n/a	n/a	n/a
165.6064	0.7667	INK	43	Neutral	xxxxxxxx	xxxxxxxx	zielony	green	hit	n/a
166.3409	n/a	RESPONSE	n/a	n/a	n/a	n/a	n/a	n/a	n/a	green
166.3731	1.0167	ITI	n/a	n/a	n/a	n/a	n/a	n/a	n/a	n/a
167.3898	0.5167	FIXCROSS	n/a	n/a	n/a	n/a	n/a	n/a	n/a	n/a
167.9065	0.55	INK	44	Incongruent	zielony	green	żółty	yellow	hit	n/a
168.4354	n/a	RESPONSE	n/a	n/a	n/a	n/a	n/a	n/a	n/a	yellow
168.4565	1.0167	ITI	n/a	n/a	n/a	n/a	n/a	n/a	n/a	n/a
169.4731	0.5167	FIXCROSS	n/a	n/a	n/a	n/a	n/a	n/a	n/a	n/a
169.9898	0.4	INK	45	Incongruent	żółty	yellow	niebieski	blue	hit	n/a
170.37	n/a	RESPONSE	n/a	n/a	n/a	n/a	n/a	n/a	n/a	blue
170.3898	1.0167	ITI	n/a	n/a	n/a	n/a	n/a	n/a	n/a	n/a
171.4065	0.5167	FIXCROSS	n/a	n/a	n/a	n/a	n/a	n/a	n/a	n/a
171.9232	0.4833	INK	46	Neutral	xxxxxxxx	xxxxxxxx	niebieski	blue	hit	n/a
172.3845	n/a	RESPONSE	n/a	n/a	n/a	n/a	n/a	n/a	n/a	blue
172.4065	1.0167	ITI	n/a	n/a	n/a	n/a	n/a	n/a	n/a	n/a
173.4232	0.5167	FIXCROSS	n/a	n/a	n/a	n/a	n/a	n/a	n/a	n/a
173.9399	0.5	INK	47	Neutral	xxxxxxxxx	xxxxxxxxx	żółty	yellow	hit	n/a
174.415	n/a	RESPONSE	n/a	n/a	n/a	n/a	n/a	n/a	n/a	yellow
174.4399	1.0167	ITI	n/a	n/a	n/a	n/a	n/a	n/a	n/a	n/a
175.4565	0.5167	FIXCROSS	n/a	n/a	n/a	n/a	n/a	n/a	n/a	n/a
175.9732	0.7	INK	48	Incongruent	czerwony	red	zielony	green	hit	n/a
176.6534	n/a	RESPONSE	n/a	n/a	n/a	n/a	n/a	n/a	n/a	green
176.6732	1.0167	ITI	n/a	n/a	n/a	n/a	n/a	n/a	n/a	n/a
177.6899	0.5167	FIXCROSS	n/a	n/a	n/a	n/a	n/a	n/a	n/a	n/a
178.2066	0.5333	INK	49	Neutral	xxxxxxxxx	xxxxxxxxx	zielony	green	hit	n/a
178.7158	n/a	RESPONSE	n/a	n/a	n/a	n/a	n/a	n/a	n/a	green
178.7399	1.0167	ITI	n/a	n/a	n/a	n/a	n/a	n/a	n/a	n/a
179.7566	0.5167	FIXCROSS	n/a	n/a	n/a	n/a	n/a	n/a	n/a	n/a
180.2733	0.4167	INK	50	Neutral	xxxxx	xxxxx	zielony	green	hit	n/a
180.6663	n/a	RESPONSE	n/a	n/a	n/a	n/a	n/a	n/a	n/a	green
180.6899	1.0167	ITI	n/a	n/a	n/a	n/a	n/a	n/a	n/a	n/a
181.7066	0.5167	FIXCROSS	n/a	n/a	n/a	n/a	n/a	n/a	n/a	n/a
182.2233	0.5167	INK	51	Incongruent	żółty	yellow	zielony	green	hit	n/a
182.7129	n/a	RESPONSE	n/a	n/a	n/a	n/a	n/a	n/a	n/a	green
182.7399	1.0167	ITI	n/a	n/a	n/a	n/a	n/a	n/a	n/a	n/a
183.7566	0.5167	FIXCROSS	n/a	n/a	n/a	n/a	n/a	n/a	n/a	n/a
184.2733	0.5	INK	52	Neutral	xxxxx	xxxxx	niebieski	blue	hit	n/a
184.7434	n/a	RESPONSE	n/a	n/a	n/a	n/a	n/a	n/a	n/a	blue
184.7733	1.0167	ITI	n/a	n/a	n/a	n/a	n/a	n/a	n/a	n/a
185.79	0.5167	FIXCROSS	n/a	n/a	n/a	n/a	n/a	n/a	n/a	n/a
186.3066	0.5333	INK	53	Neutral	xxxxxxxx	xxxxxxxx	żółty	yellow	hit	n/a
186.8219	n/a	RESPONSE	n/a	n/a	n/a	n/a	n/a	n/a	n/a	yellow
186.84	1.0167	ITI	n/a	n/a	n/a	n/a	n/a	n/a	n/a	n/a
187.8567	0.5167	FIXCROSS	n/a	n/a	n/a	n/a	n/a	n/a	n/a	n/a
188.3733	0.7333	INK	54	Incongruent	żółty	yellow	zielony	green	hit	n/a
189.0763	n/a	RESPONSE	n/a	n/a	n/a	n/a	n/a	n/a	n/a	green
189.1067	1.0167	ITI	n/a	n/a	n/a	n/a	n/a	n/a	n/a	n/a
190.1234	0.5167	FIXCROSS	n/a	n/a	n/a	n/a	n/a	n/a	n/a	n/a
190.64	0.7834	INK	55	Incongruent	czerwony	red	zielony	green	hit	n/a
191.3945	n/a	RESPONSE	n/a	n/a	n/a	n/a	n/a	n/a	n/a	green
191.4234	1.0167	ITI	n/a	n/a	n/a	n/a	n/a	n/a	n/a	n/a
192.44	0.5167	FIXCROSS	n/a	n/a	n/a	n/a	n/a	n/a	n/a	n/a
192.9567	0.4833	INK	56	Incongruent	niebieski	blue	żółty	yellow	hit	n/a
193.4091	n/a	RESPONSE	n/a	n/a	n/a	n/a	n/a	n/a	n/a	yellow
193.4401	1.0167	ITI	n/a	n/a	n/a	n/a	n/a	n/a	n/a	n/a
194.4567	0.5167	FIXCROSS	n/a	n/a	n/a	n/a	n/a	n/a	n/a	n/a
194.9734	1.2834	INK	57	Incongruent	żółty	yellow	czerwony	red	hit	n/a
196.223	n/a	RESPONSE	n/a	n/a	n/a	n/a	n/a	n/a	n/a	red
196.2568	1.0167	ITI	n/a	n/a	n/a	n/a	n/a	n/a	n/a	n/a
197.2734	0.5167	FIXCROSS	n/a	n/a	n/a	n/a	n/a	n/a	n/a	n/a
197.7901	0.4667	INK	58	Neutral	xxxxxxx	xxxxxxx	czerwony	red	hit	n/a
198.2376	n/a	RESPONSE	n/a	n/a	n/a	n/a	n/a	n/a	n/a	red
198.2568	1.0167	ITI	n/a	n/a	n/a	n/a	n/a	n/a	n/a	n/a
199.2734	0.5167	FIXCROSS	n/a	n/a	n/a	n/a	n/a	n/a	n/a	n/a
199.7901	0.5667	INK	59	Incongruent	zielony	green	niebieski	blue	hit	n/a
200.3319	n/a	RESPONSE	n/a	n/a	n/a	n/a	n/a	n/a	n/a	blue
200.3568	1.0167	ITI	n/a	n/a	n/a	n/a	n/a	n/a	n/a	n/a
201.3735	0.5167	FIXCROSS	n/a	n/a	n/a	n/a	n/a	n/a	n/a	n/a
201.8901	0.7833	INK	60	Incongruent	żółty	yellow	zielony	green	hit	n/a
202.6503	n/a	RESPONSE	n/a	n/a	n/a	n/a	n/a	n/a	n/a	green
202.6735	1.0167	ITI	n/a	n/a	n/a	n/a	n/a	n/a	n/a	n/a
203.6902	0.5167	FIXCROSS	n/a	n/a	n/a	n/a	n/a	n/a	n/a	n/a
204.2068	0.5167	INK	61	Incongruent	niebieski	blue	żółty	yellow	hit	n/a
204.6968	n/a	RESPONSE	n/a	n/a	n/a	n/a	n/a	n/a	n/a	yellow
204.7235	1.0167	ITI	n/a	n/a	n/a	n/a	n/a	n/a	n/a	n/a
205.7402	0.5167	FIXCROSS	n/a	n/a	n/a	n/a	n/a	n/a	n/a	n/a
206.2569	0.6334	INK	62	Incongruent	żółty	yellow	niebieski	blue	hit	n/a
206.8711	n/a	RESPONSE	n/a	n/a	n/a	n/a	n/a	n/a	n/a	blue
206.8902	1.0167	ITI	n/a	n/a	n/a	n/a	n/a	n/a	n/a	n/a
207.9069	0.5167	FIXCROSS	n/a	n/a	n/a	n/a	n/a	n/a	n/a	n/a
208.4235	0.4167	INK	63	Neutral	xxxxxxxxx	xxxxxxxxx	żółty	yellow	hit	n/a
208.8217	n/a	RESPONSE	n/a	n/a	n/a	n/a	n/a	n/a	n/a	yellow
208.8402	1.0167	ITI	n/a	n/a	n/a	n/a	n/a	n/a	n/a	n/a
209.8569	0.5167	FIXCROSS	n/a	n/a	n/a	n/a	n/a	n/a	n/a	n/a
210.3736	0.55	INK	64	Neutral	xxxxx	xxxxx	czerwony	red	hit	n/a
210.9002	n/a	RESPONSE	n/a	n/a	n/a	n/a	n/a	n/a	n/a	red
210.9236	1.0167	ITI	n/a	n/a	n/a	n/a	n/a	n/a	n/a	n/a
211.9402	0.5167	FIXCROSS	n/a	n/a	n/a	n/a	n/a	n/a	n/a	n/a
212.4569	0.4167	INK	65	Neutral	xxxxxxx	xxxxxxx	niebieski	blue	incorrect	n/a
212.8508	n/a	RESPONSE	n/a	n/a	n/a	n/a	n/a	n/a	n/a	red
212.8736	1.0167	ITI	n/a	n/a	n/a	n/a	n/a	n/a	n/a	n/a
213.8903	0.5167	FIXCROSS	n/a	n/a	n/a	n/a	n/a	n/a	n/a	n/a
214.4069	0.4833	INK	66	Neutral	xxxxx	xxxxx	niebieski	blue	hit	n/a
214.8653	n/a	RESPONSE	n/a	n/a	n/a	n/a	n/a	n/a	n/a	blue
214.8903	1.0167	ITI	n/a	n/a	n/a	n/a	n/a	n/a	n/a	n/a
215.9069	0.5167	FIXCROSS	n/a	n/a	n/a	n/a	n/a	n/a	n/a	n/a
216.4236	0.4833	INK	67	Neutral	xxxxxxx	xxxxxxx	niebieski	blue	hit	n/a
216.8798	n/a	RESPONSE	n/a	n/a	n/a	n/a	n/a	n/a	n/a	blue
216.907	1.0167	ITI	n/a	n/a	n/a	n/a	n/a	n/a	n/a	n/a
217.9236	0.5167	FIXCROSS	n/a	n/a	n/a	n/a	n/a	n/a	n/a	n/a
218.4403	0.5667	INK	68	Incongruent	zielony	green	niebieski	blue	hit	n/a
218.9743	n/a	RESPONSE	n/a	n/a	n/a	n/a	n/a	n/a	n/a	blue
219.007	1.0167	ITI	n/a	n/a	n/a	n/a	n/a	n/a	n/a	n/a
220.0237	0.5167	FIXCROSS	n/a	n/a	n/a	n/a	n/a	n/a	n/a	n/a
220.5403	0.45	INK	69	Incongruent	zielony	green	żółty	yellow	hit	n/a
220.9729	n/a	RESPONSE	n/a	n/a	n/a	n/a	n/a	n/a	n/a	yellow
220.9903	1.0167	ITI	n/a	n/a	n/a	n/a	n/a	n/a	n/a	n/a
222.007	0.5167	FIXCROSS	n/a	n/a	n/a	n/a	n/a	n/a	n/a	n/a
222.5237	0.5	INK	70	Neutral	xxxxxxxx	xxxxxxxx	żółty	yellow	hit	n/a
223.0034	n/a	RESPONSE	n/a	n/a	n/a	n/a	n/a	n/a	n/a	yellow
223.0237	1.0167	ITI	n/a	n/a	n/a	n/a	n/a	n/a	n/a	n/a
224.0404	0.5167	FIXCROSS	n/a	n/a	n/a	n/a	n/a	n/a	n/a	n/a
224.557	0.7667	INK	71	Neutral	xxxxx	xxxxx	zielony	green	hit	n/a
225.3056	n/a	RESPONSE	n/a	n/a	n/a	n/a	n/a	n/a	n/a	green
225.3237	1.0167	ITI	n/a	n/a	n/a	n/a	n/a	n/a	n/a	n/a
226.3404	0.5167	FIXCROSS	n/a	n/a	n/a	n/a	n/a	n/a	n/a	n/a
226.8571	0.6667	INK	72	Incongruent	niebieski	blue	zielony	green	hit	n/a
227.4961	n/a	RESPONSE	n/a	n/a	n/a	n/a	n/a	n/a	n/a	green
227.5237	1.0834	ITI	n/a	n/a	n/a	n/a	n/a	n/a	n/a	n/a
245.8346	n/a	RESPONSE	n/a	n/a	n/a	n/a	n/a	n/a	n/a	n/a
245.8906	1.0167	ITI	n/a	n/a	n/a	n/a	n/a	n/a	n/a	n/a
246.9073	0.5167	FIXCROSS	n/a	n/a	n/a	n/a	n/a	n/a	n/a	n/a
247.4239	1.0167	T_COLOR_NAME	1	Neutral	żółty	yellow	Neutral	Neutral	hit	n/a
248.4087	n/a	RESPONSE	n/a	n/a	n/a	n/a	n/a	n/a	n/a	yellow
248.4406	0.5167	FEEDBACK	n/a	n/a	n/a	n/a	n/a	n/a	n/a	n/a
248.9573	1.0167	ITI	n/a	n/a	n/a	n/a	n/a	n/a	n/a	n/a
249.974	0.5167	FIXCROSS	n/a	n/a	n/a	n/a	n/a	n/a	n/a	n/a
250.4906	1.0167	T_COLOR_NAME	2	Incongruent	czerwony	red	zielony	green	hit	n/a
251.4784	n/a	RESPONSE	n/a	n/a	n/a	n/a	n/a	n/a	n/a	red
251.5073	0.5167	FEEDBACK	n/a	n/a	n/a	n/a	n/a	n/a	n/a	n/a
252.024	1.0167	ITI	n/a	n/a	n/a	n/a	n/a	n/a	n/a	n/a
253.0407	0.5167	FIXCROSS	n/a	n/a	n/a	n/a	n/a	n/a	n/a	n/a
253.5573	0.9167	T_COLOR_NAME	3	Incongruent	niebieski	blue	zielony	green	hit	n/a
254.4523	n/a	RESPONSE	n/a	n/a	n/a	n/a	n/a	n/a	n/a	blue
254.474	0.5167	FEEDBACK	n/a	n/a	n/a	n/a	n/a	n/a	n/a	n/a
254.9907	1.0167	ITI	n/a	n/a	n/a	n/a	n/a	n/a	n/a	n/a
256.0074	0.5167	FIXCROSS	n/a	n/a	n/a	n/a	n/a	n/a	n/a	n/a
256.524	0.75	T_COLOR_NAME	4	Neutral	czerwony	red	Neutral	Neutral	hit	n/a
257.2502	n/a	RESPONSE	n/a	n/a	n/a	n/a	n/a	n/a	n/a	red
257.274	0.5167	FEEDBACK	n/a	n/a	n/a	n/a	n/a	n/a	n/a	n/a
257.7907	1.0167	ITI	n/a	n/a	n/a	n/a	n/a	n/a	n/a	n/a
258.8074	0.5167	FIXCROSS	n/a	n/a	n/a	n/a	n/a	n/a	n/a	n/a
259.3241	1.4	T_COLOR_NAME	5	Incongruent	czerwony	red	żółty	yellow	hit	n/a
260.7036	n/a	RESPONSE	n/a	n/a	n/a	n/a	n/a	n/a	n/a	red
260.7241	0.5167	FEEDBACK	n/a	n/a	n/a	n/a	n/a	n/a	n/a	n/a
261.2408	1.0167	ITI	n/a	n/a	n/a	n/a	n/a	n/a	n/a	n/a
262.2574	0.5167	FIXCROSS	n/a	n/a	n/a	n/a	n/a	n/a	n/a	n/a
262.7741	0.5167	T_COLOR_NAME	6	Neutral	czerwony	red	Neutral	Neutral	hit	n/a
263.2617	n/a	RESPONSE	n/a	n/a	n/a	n/a	n/a	n/a	n/a	red
263.2908	0.5167	FEEDBACK	n/a	n/a	n/a	n/a	n/a	n/a	n/a	n/a
263.8074	1.0167	ITI	n/a	n/a	n/a	n/a	n/a	n/a	n/a	n/a
264.8241	0.5167	FIXCROSS	n/a	n/a	n/a	n/a	n/a	n/a	n/a	n/a
265.3408	0.7167	T_COLOR_NAME	7	Neutral	niebieski	blue	Neutral	Neutral	hit	n/a
266.0277	n/a	RESPONSE	n/a	n/a	n/a	n/a	n/a	n/a	n/a	blue
266.0575	0.5167	FEEDBACK	n/a	n/a	n/a	n/a	n/a	n/a	n/a	n/a
266.5741	1.0167	ITI	n/a	n/a	n/a	n/a	n/a	n/a	n/a	n/a
267.5908	0.5167	FIXCROSS	n/a	n/a	n/a	n/a	n/a	n/a	n/a	n/a
268.1075	0.5333	T_COLOR_NAME	8	Neutral	niebieski	blue	Neutral	Neutral	hit	n/a
268.6178	n/a	RESPONSE	n/a	n/a	n/a	n/a	n/a	n/a	n/a	blue
268.6408	0.5167	FEEDBACK	n/a	n/a	n/a	n/a	n/a	n/a	n/a	n/a
269.1575	1.0167	ITI	n/a	n/a	n/a	n/a	n/a	n/a	n/a	n/a
270.1742	0.5167	FIXCROSS	n/a	n/a	n/a	n/a	n/a	n/a	n/a	n/a
270.6908	0.6833	T_COLOR_NAME	9	Incongruent	zielony	green	żółty	yellow	incorrect	n/a
271.3518	n/a	RESPONSE	n/a	n/a	n/a	n/a	n/a	n/a	n/a	yellow
271.3742	0.5167	FEEDBACK	n/a	n/a	n/a	n/a	n/a	n/a	n/a	n/a
271.8909	1.0167	ITI	n/a	n/a	n/a	n/a	n/a	n/a	n/a	n/a
272.9075	0.5167	FIXCROSS	n/a	n/a	n/a	n/a	n/a	n/a	n/a	n/a
273.4242	1.2667	T_COLOR_NAME	10	Incongruent	czerwony	red	niebieski	blue	hit	n/a
274.6614	n/a	RESPONSE	n/a	n/a	n/a	n/a	n/a	n/a	n/a	red
274.6909	0.5167	FEEDBACK	n/a	n/a	n/a	n/a	n/a	n/a	n/a	n/a
275.2076	1.0167	ITI	n/a	n/a	n/a	n/a	n/a	n/a	n/a	n/a
276.2242	0.5167	FIXCROSS	n/a	n/a	n/a	n/a	n/a	n/a	n/a	n/a
276.7409	0.5167	T_COLOR_NAME	11	Neutral	czerwony	red	Neutral	Neutral	hit	n/a
277.2353	n/a	RESPONSE	n/a	n/a	n/a	n/a	n/a	n/a	n/a	red
277.2576	0.5167	FEEDBACK	n/a	n/a	n/a	n/a	n/a	n/a	n/a	n/a
277.7743	1.0167	ITI	n/a	n/a	n/a	n/a	n/a	n/a	n/a	n/a
278.7909	0.5167	FIXCROSS	n/a	n/a	n/a	n/a	n/a	n/a	n/a	n/a
279.3076	1.0333	T_COLOR_NAME	12	Neutral	zielony	green	Neutral	Neutral	hit	n/a
280.3211	n/a	RESPONSE	n/a	n/a	n/a	n/a	n/a	n/a	n/a	green
280.3409	0.5167	FEEDBACK	n/a	n/a	n/a	n/a	n/a	n/a	n/a	n/a
280.8576	1.0333	ITI	n/a	n/a	n/a	n/a	n/a	n/a	n/a	n/a
284.0144	n/a	RESPONSE	n/a	n/a	n/a	n/a	n/a	n/a	n/a	n/a
284.0743	1.0167	ITI	n/a	n/a	n/a	n/a	n/a	n/a	n/a	n/a
285.091	0.5167	FIXCROSS	n/a	n/a	n/a	n/a	n/a	n/a	n/a	n/a
285.6077	0.9167	COLOR_NAME	1	Neutral	zielony	green	Neutral	Neutral	hit	n/a
286.4925	n/a	RESPONSE	n/a	n/a	n/a	n/a	n/a	n/a	n/a	green
286.5243	1.0167	ITI	n/a	n/a	n/a	n/a	n/a	n/a	n/a	n/a
287.541	0.5167	FIXCROSS	n/a	n/a	n/a	n/a	n/a	n/a	n/a	n/a
288.0577	0.5	COLOR_NAME	2	Neutral	zielony	green	Neutral	Neutral	hit	n/a
288.5231	n/a	RESPONSE	n/a	n/a	n/a	n/a	n/a	n/a	n/a	green
288.5577	1.0167	ITI	n/a	n/a	n/a	n/a	n/a	n/a	n/a	n/a
289.5744	0.5167	FIXCROSS	n/a	n/a	n/a	n/a	n/a	n/a	n/a	n/a
290.091	1.25	COLOR_NAME	3	Incongruent	zielony	green	czerwony	red	hit	n/a
291.321	n/a	RESPONSE	n/a	n/a	n/a	n/a	n/a	n/a	n/a	green
291.3411	1.0167	ITI	n/a	n/a	n/a	n/a	n/a	n/a	n/a	n/a
292.3577	0.5167	FIXCROSS	n/a	n/a	n/a	n/a	n/a	n/a	n/a	n/a
292.8744	0.55	COLOR_NAME	4	Neutral	zielony	green	Neutral	Neutral	hit	n/a
293.3994	n/a	RESPONSE	n/a	n/a	n/a	n/a	n/a	n/a	n/a	green
293.4244	1.0167	ITI	n/a	n/a	n/a	n/a	n/a	n/a	n/a	n/a
294.4411	0.5167	FIXCROSS	n/a	n/a	n/a	n/a	n/a	n/a	n/a	n/a
294.9578	0.9667	COLOR_NAME	5	Incongruent	żółty	yellow	zielony	green	hit	n/a
295.8937	n/a	RESPONSE	n/a	n/a	n/a	n/a	n/a	n/a	n/a	yellow
295.9244	1.0167	ITI	n/a	n/a	n/a	n/a	n/a	n/a	n/a	n/a
296.9411	0.5167	FIXCROSS	n/a	n/a	n/a	n/a	n/a	n/a	n/a	n/a
297.4578	0.65	COLOR_NAME	6	Neutral	niebieski	blue	Neutral	Neutral	hit	n/a
298.0841	n/a	RESPONSE	n/a	n/a	n/a	n/a	n/a	n/a	n/a	blue
298.1078	1.0167	ITI	n/a	n/a	n/a	n/a	n/a	n/a	n/a	n/a
299.1245	0.5167	FIXCROSS	n/a	n/a	n/a	n/a	n/a	n/a	n/a	n/a
299.6411	0.7833	COLOR_NAME	7	Neutral	czerwony	red	Neutral	Neutral	hit	n/a
300.4023	n/a	RESPONSE	n/a	n/a	n/a	n/a	n/a	n/a	n/a	red
300.4245	1.0167	ITI	n/a	n/a	n/a	n/a	n/a	n/a	n/a	n/a
301.4412	0.5167	FIXCROSS	n/a	n/a	n/a	n/a	n/a	n/a	n/a	n/a
301.9578	1.55	COLOR_NAME	8	Incongruent	zielony	green	niebieski	blue	hit	n/a
303.488	n/a	RESPONSE	n/a	n/a	n/a	n/a	n/a	n/a	n/a	green
303.5079	1.0167	ITI	n/a	n/a	n/a	n/a	n/a	n/a	n/a	n/a
304.5245	0.5167	FIXCROSS	n/a	n/a	n/a	n/a	n/a	n/a	n/a	n/a
305.0412	1.6334	COLOR_NAME	9	Incongruent	niebieski	blue	żółty	yellow	hit	n/a
306.6537	n/a	RESPONSE	n/a	n/a	n/a	n/a	n/a	n/a	n/a	blue
306.6746	1.0167	ITI	n/a	n/a	n/a	n/a	n/a	n/a	n/a	n/a
307.6912	0.5167	FIXCROSS	n/a	n/a	n/a	n/a	n/a	n/a	n/a	n/a
308.2079	0.65	COLOR_NAME	10	Neutral	czerwony	red	Neutral	Neutral	hit	n/a
308.8281	n/a	RESPONSE	n/a	n/a	n/a	n/a	n/a	n/a	n/a	red
308.8579	1.0167	ITI	n/a	n/a	n/a	n/a	n/a	n/a	n/a	n/a
309.8746	0.5167	FIXCROSS	n/a	n/a	n/a	n/a	n/a	n/a	n/a	n/a
310.3913	0.5333	COLOR_NAME	11	Neutral	żółty	yellow	Neutral	Neutral	hit	n/a
310.9066	n/a	RESPONSE	n/a	n/a	n/a	n/a	n/a	n/a	n/a	yellow
310.9246	1.0167	ITI	n/a	n/a	n/a	n/a	n/a	n/a	n/a	n/a
311.9413	0.5167	FIXCROSS	n/a	n/a	n/a	n/a	n/a	n/a	n/a	n/a
312.458	0.5833	COLOR_NAME	12	Neutral	żółty	yellow	Neutral	Neutral	hit	n/a
313.0171	n/a	RESPONSE	n/a	n/a	n/a	n/a	n/a	n/a	n/a	yellow
313.0413	1.0167	ITI	n/a	n/a	n/a	n/a	n/a	n/a	n/a	n/a
314.058	0.5167	FIXCROSS	n/a	n/a	n/a	n/a	n/a	n/a	n/a	n/a
314.5746	0.6333	COLOR_NAME	13	Neutral	niebieski	blue	Neutral	Neutral	hit	n/a
315.1754	n/a	RESPONSE	n/a	n/a	n/a	n/a	n/a	n/a	n/a	blue
315.208	1.0167	ITI	n/a	n/a	n/a	n/a	n/a	n/a	n/a	n/a
316.2247	0.5167	FIXCROSS	n/a	n/a	n/a	n/a	n/a	n/a	n/a	n/a
316.7413	0.5167	COLOR_NAME	14	Neutral	niebieski	blue	Neutral	Neutral	hit	n/a
317.2379	n/a	RESPONSE	n/a	n/a	n/a	n/a	n/a	n/a	n/a	blue
317.258	1.0167	ITI	n/a	n/a	n/a	n/a	n/a	n/a	n/a	n/a
318.2747	0.5167	FIXCROSS	n/a	n/a	n/a	n/a	n/a	n/a	n/a	n/a
318.7914	1.55	COLOR_NAME	15	Incongruent	niebieski	blue	czerwony	red	hit	n/a
320.3078	n/a	RESPONSE	n/a	n/a	n/a	n/a	n/a	n/a	n/a	blue
320.3414	1.0167	ITI	n/a	n/a	n/a	n/a	n/a	n/a	n/a	n/a
321.358	0.5167	FIXCROSS	n/a	n/a	n/a	n/a	n/a	n/a	n/a	n/a
321.8747	1.15	COLOR_NAME	16	Incongruent	czerwony	red	żółty	yellow	hit	n/a
322.9937	n/a	RESPONSE	n/a	n/a	n/a	n/a	n/a	n/a	n/a	red
323.0247	1.0167	ITI	n/a	n/a	n/a	n/a	n/a	n/a	n/a	n/a
324.0414	0.5167	FIXCROSS	n/a	n/a	n/a	n/a	n/a	n/a	n/a	n/a
324.5581	0.9167	COLOR_NAME	17	Incongruent	żółty	yellow	zielony	green	hit	n/a
325.4558	n/a	RESPONSE	n/a	n/a	n/a	n/a	n/a	n/a	n/a	yellow
325.4748	1.0167	ITI	n/a	n/a	n/a	n/a	n/a	n/a	n/a	n/a
326.4914	0.5167	FIXCROSS	n/a	n/a	n/a	n/a	n/a	n/a	n/a	n/a
327.0081	1.2333	COLOR_NAME	18	Incongruent	zielony	green	niebieski	blue	hit	n/a
328.2218	n/a	RESPONSE	n/a	n/a	n/a	n/a	n/a	n/a	n/a	green
328.2414	1.0167	ITI	n/a	n/a	n/a	n/a	n/a	n/a	n/a	n/a
329.2581	0.5167	FIXCROSS	n/a	n/a	n/a	n/a	n/a	n/a	n/a	n/a
329.7748	0.8167	COLOR_NAME	19	Neutral	zielony	green	Neutral	Neutral	hit	n/a
330.572	n/a	RESPONSE	n/a	n/a	n/a	n/a	n/a	n/a	n/a	green
330.5915	1.0167	ITI	n/a	n/a	n/a	n/a	n/a	n/a	n/a	n/a
331.6082	0.5167	FIXCROSS	n/a	n/a	n/a	n/a	n/a	n/a	n/a	n/a
332.1248	0.7333	COLOR_NAME	20	Neutral	czerwony	red	Neutral	Neutral	hit	n/a
332.8264	n/a	RESPONSE	n/a	n/a	n/a	n/a	n/a	n/a	n/a	red
332.8582	1.0167	ITI	n/a	n/a	n/a	n/a	n/a	n/a	n/a	n/a
333.8748	0.5167	FIXCROSS	n/a	n/a	n/a	n/a	n/a	n/a	n/a	n/a
334.3915	1.0333	COLOR_NAME	21	Neutral	zielony	green	Neutral	Neutral	hit	n/a
335.4005	n/a	RESPONSE	n/a	n/a	n/a	n/a	n/a	n/a	n/a	green
335.4248	1.0167	ITI	n/a	n/a	n/a	n/a	n/a	n/a	n/a	n/a
336.4415	0.5167	FIXCROSS	n/a	n/a	n/a	n/a	n/a	n/a	n/a	n/a
336.9582	0.8834	COLOR_NAME	22	Incongruent	zielony	green	niebieski	blue	hit	n/a
337.8147	n/a	RESPONSE	n/a	n/a	n/a	n/a	n/a	n/a	n/a	green
337.8416	1.0167	ITI	n/a	n/a	n/a	n/a	n/a	n/a	n/a	n/a
338.8582	0.5167	FIXCROSS	n/a	n/a	n/a	n/a	n/a	n/a	n/a	n/a
339.3749	0.8334	COLOR_NAME	23	Incongruent	niebieski	blue	czerwony	red	hit	n/a
340.181	n/a	RESPONSE	n/a	n/a	n/a	n/a	n/a	n/a	n/a	blue
340.2082	1.0167	ITI	n/a	n/a	n/a	n/a	n/a	n/a	n/a	n/a
341.2249	0.5167	FIXCROSS	n/a	n/a	n/a	n/a	n/a	n/a	n/a	n/a
341.7416	0.6167	COLOR_NAME	24	Neutral	niebieski	blue	Neutral	Neutral	hit	n/a
342.3394	n/a	RESPONSE	n/a	n/a	n/a	n/a	n/a	n/a	n/a	blue
342.3583	1.0167	ITI	n/a	n/a	n/a	n/a	n/a	n/a	n/a	n/a
343.3749	0.5167	FIXCROSS	n/a	n/a	n/a	n/a	n/a	n/a	n/a	n/a
343.8916	0.6833	COLOR_NAME	25	Neutral	zielony	green	Neutral	Neutral	hit	n/a
344.5458	n/a	RESPONSE	n/a	n/a	n/a	n/a	n/a	n/a	n/a	green
344.5749	1.0167	ITI	n/a	n/a	n/a	n/a	n/a	n/a	n/a	n/a
345.5916	0.5167	FIXCROSS	n/a	n/a	n/a	n/a	n/a	n/a	n/a	n/a
346.1083	0.75	COLOR_NAME	26	Incongruent	czerwony	red	zielony	green	hit	n/a
346.8321	n/a	RESPONSE	n/a	n/a	n/a	n/a	n/a	n/a	n/a	red
346.8583	1.0167	ITI	n/a	n/a	n/a	n/a	n/a	n/a	n/a	n/a
347.875	0.5167	FIXCROSS	n/a	n/a	n/a	n/a	n/a	n/a	n/a	n/a
348.3917	0.8167	COLOR_NAME	27	Incongruent	niebieski	blue	żółty	yellow	hit	n/a
349.1824	n/a	RESPONSE	n/a	n/a	n/a	n/a	n/a	n/a	n/a	blue
349.2083	1.0167	ITI	n/a	n/a	n/a	n/a	n/a	n/a	n/a	n/a
350.225	0.5167	FIXCROSS	n/a	n/a	n/a	n/a	n/a	n/a	n/a	n/a
350.7417	0.7167	COLOR_NAME	28	Neutral	czerwony	red	Neutral	Neutral	hit	n/a
351.4366	n/a	RESPONSE	n/a	n/a	n/a	n/a	n/a	n/a	n/a	red
351.4583	1.0167	ITI	n/a	n/a	n/a	n/a	n/a	n/a	n/a	n/a
352.475	0.5167	FIXCROSS	n/a	n/a	n/a	n/a	n/a	n/a	n/a	n/a
352.9917	0.8167	COLOR_NAME	29	Incongruent	czerwony	red	niebieski	blue	hit	n/a
353.787	n/a	RESPONSE	n/a	n/a	n/a	n/a	n/a	n/a	n/a	red
353.8084	1.0167	ITI	n/a	n/a	n/a	n/a	n/a	n/a	n/a	n/a
354.8251	0.5167	FIXCROSS	n/a	n/a	n/a	n/a	n/a	n/a	n/a	n/a
355.3417	0.5667	COLOR_NAME	30	Incongruent	czerwony	red	zielony	green	hit	n/a
355.8815	n/a	RESPONSE	n/a	n/a	n/a	n/a	n/a	n/a	n/a	red
355.9084	1.0167	ITI	n/a	n/a	n/a	n/a	n/a	n/a	n/a	n/a
356.9251	0.5167	FIXCROSS	n/a	n/a	n/a	n/a	n/a	n/a	n/a	n/a
357.4418	0.4	COLOR_NAME	31	Neutral	niebieski	blue	Neutral	Neutral	hit	n/a
357.816	n/a	RESPONSE	n/a	n/a	n/a	n/a	n/a	n/a	n/a	blue
357.8417	1.0167	ITI	n/a	n/a	n/a	n/a	n/a	n/a	n/a	n/a
358.8584	0.5167	FIXCROSS	n/a	n/a	n/a	n/a	n/a	n/a	n/a	n/a
359.3751	0.4167	COLOR_NAME	32	Neutral	niebieski	blue	Neutral	Neutral	hit	n/a
359.7666	n/a	RESPONSE	n/a	n/a	n/a	n/a	n/a	n/a	n/a	blue
359.7918	1.0167	ITI	n/a	n/a	n/a	n/a	n/a	n/a	n/a	n/a
360.8084	0.5167	FIXCROSS	n/a	n/a	n/a	n/a	n/a	n/a	n/a	n/a
361.3251	0.45	COLOR_NAME	33	Neutral	żółty	yellow	Neutral	Neutral	hit	n/a
361.7491	n/a	RESPONSE	n/a	n/a	n/a	n/a	n/a	n/a	n/a	yellow
361.7751	1.0167	ITI	n/a	n/a	n/a	n/a	n/a	n/a	n/a	n/a
362.7918	0.5167	FIXCROSS	n/a	n/a	n/a	n/a	n/a	n/a	n/a	n/a
363.3085	0.4167	COLOR_NAME	34	Neutral	zielony	green	Neutral	Neutral	hit	n/a
363.6997	n/a	RESPONSE	n/a	n/a	n/a	n/a	n/a	n/a	n/a	green
363.7251	1.0167	ITI	n/a	n/a	n/a	n/a	n/a	n/a	n/a	n/a
364.7418	0.5167	FIXCROSS	n/a	n/a	n/a	n/a	n/a	n/a	n/a	n/a
365.2585	0.7333	COLOR_NAME	35	Incongruent	żółty	yellow	czerwony	red	hit	n/a
365.97	n/a	RESPONSE	n/a	n/a	n/a	n/a	n/a	n/a	n/a	yellow
365.9918	1.0167	ITI	n/a	n/a	n/a	n/a	n/a	n/a	n/a	n/a
367.0085	0.5167	FIXCROSS	n/a	n/a	n/a	n/a	n/a	n/a	n/a	n/a
367.5252	0.5167	COLOR_NAME	36	Neutral	czerwony	red	Neutral	Neutral	hit	n/a
368.0165	n/a	RESPONSE	n/a	n/a	n/a	n/a	n/a	n/a	n/a	red
368.0419	1.0167	ITI	n/a	n/a	n/a	n/a	n/a	n/a	n/a	n/a
369.0585	0.5167	FIXCROSS	n/a	n/a	n/a	n/a	n/a	n/a	n/a	n/a
369.5752	0.5833	COLOR_NAME	37	Neutral	żółty	yellow	Neutral	Neutral	hit	n/a
370.127	n/a	RESPONSE	n/a	n/a	n/a	n/a	n/a	n/a	n/a	yellow
370.1586	1.0167	ITI	n/a	n/a	n/a	n/a	n/a	n/a	n/a	n/a
371.1752	0.5167	FIXCROSS	n/a	n/a	n/a	n/a	n/a	n/a	n/a	n/a
371.6919	0.8667	COLOR_NAME	38	Incongruent	czerwony	red	niebieski	blue	hit	n/a
372.5412	n/a	RESPONSE	n/a	n/a	n/a	n/a	n/a	n/a	n/a	red
372.5586	1.0167	ITI	n/a	n/a	n/a	n/a	n/a	n/a	n/a	n/a
373.5752	0.5167	FIXCROSS	n/a	n/a	n/a	n/a	n/a	n/a	n/a	n/a
374.0919	0.4833	COLOR_NAME	39	Incongruent	żółty	yellow	zielony	green	hit	n/a
374.5557	n/a	RESPONSE	n/a	n/a	n/a	n/a	n/a	n/a	n/a	yellow
374.5753	1.0167	ITI	n/a	n/a	n/a	n/a	n/a	n/a	n/a	n/a
375.5919	0.5167	FIXCROSS	n/a	n/a	n/a	n/a	n/a	n/a	n/a	n/a
376.1086	0.75	COLOR_NAME	40	Incongruent	niebieski	blue	czerwony	red	hit	n/a
376.8261	n/a	RESPONSE	n/a	n/a	n/a	n/a	n/a	n/a	n/a	blue
376.8586	1.0167	ITI	n/a	n/a	n/a	n/a	n/a	n/a	n/a	n/a
377.8753	0.5167	FIXCROSS	n/a	n/a	n/a	n/a	n/a	n/a	n/a	n/a
378.392	0.45	COLOR_NAME	41	Neutral	żółty	yellow	Neutral	Neutral	hit	n/a
378.8245	n/a	RESPONSE	n/a	n/a	n/a	n/a	n/a	n/a	n/a	yellow
378.842	1.0167	ITI	n/a	n/a	n/a	n/a	n/a	n/a	n/a	n/a
379.8586	0.5167	FIXCROSS	n/a	n/a	n/a	n/a	n/a	n/a	n/a	n/a
380.3753	0.8167	COLOR_NAME	42	Incongruent	zielony	green	czerwony	red	hit	n/a
381.1588	n/a	RESPONSE	n/a	n/a	n/a	n/a	n/a	n/a	n/a	green
381.192	1.0167	ITI	n/a	n/a	n/a	n/a	n/a	n/a	n/a	n/a
382.2087	0.5167	FIXCROSS	n/a	n/a	n/a	n/a	n/a	n/a	n/a	n/a
382.7253	0.9167	COLOR_NAME	43	Incongruent	czerwony	red	żółty	yellow	hit	n/a
383.621	n/a	RESPONSE	n/a	n/a	n/a	n/a	n/a	n/a	n/a	red
383.642	1.0167	ITI	n/a	n/a	n/a	n/a	n/a	n/a	n/a	n/a
384.6587	0.5167	FIXCROSS	n/a	n/a	n/a	n/a	n/a	n/a	n/a	n/a
385.1754	0.5667	COLOR_NAME	44	Neutral	żółty	yellow	Neutral	Neutral	hit	n/a
385.7155	n/a	RESPONSE	n/a	n/a	n/a	n/a	n/a	n/a	n/a	yellow
385.742	1.0167	ITI	n/a	n/a	n/a	n/a	n/a	n/a	n/a	n/a
386.7587	0.5167	FIXCROSS	n/a	n/a	n/a	n/a	n/a	n/a	n/a	n/a
387.2754	1.3	COLOR_NAME	45	Incongruent	żółty	yellow	niebieski	blue	hit	n/a
388.5453	n/a	RESPONSE	n/a	n/a	n/a	n/a	n/a	n/a	n/a	yellow
388.5754	1.0167	ITI	n/a	n/a	n/a	n/a	n/a	n/a	n/a	n/a
389.5921	0.5167	FIXCROSS	n/a	n/a	n/a	n/a	n/a	n/a	n/a	n/a
390.1088	0.7833	COLOR_NAME	46	Incongruent	zielony	green	żółty	yellow	hit	n/a
390.8637	n/a	RESPONSE	n/a	n/a	n/a	n/a	n/a	n/a	n/a	green
390.8921	1.0167	ITI	n/a	n/a	n/a	n/a	n/a	n/a	n/a	n/a
391.9088	0.5167	FIXCROSS	n/a	n/a	n/a	n/a	n/a	n/a	n/a	n/a
392.4254	1.25	COLOR_NAME	47	Incongruent	żółty	yellow	niebieski	blue	hit	n/a
393.6456	n/a	RESPONSE	n/a	n/a	n/a	n/a	n/a	n/a	n/a	yellow
393.6755	1.0167	ITI	n/a	n/a	n/a	n/a	n/a	n/a	n/a	n/a
394.6921	0.5167	FIXCROSS	n/a	n/a	n/a	n/a	n/a	n/a	n/a	n/a
395.2088	0.65	COLOR_NAME	48	Neutral	niebieski	blue	Neutral	Neutral	hit	n/a
395.8359	n/a	RESPONSE	n/a	n/a	n/a	n/a	n/a	n/a	n/a	blue
395.8588	1.0167	ITI	n/a	n/a	n/a	n/a	n/a	n/a	n/a	n/a
396.8755	0.5167	FIXCROSS	n/a	n/a	n/a	n/a	n/a	n/a	n/a	n/a
397.3922	0.5833	COLOR_NAME	49	Neutral	czerwony	red	Neutral	Neutral	hit	n/a
397.9464	n/a	RESPONSE	n/a	n/a	n/a	n/a	n/a	n/a	n/a	red
397.9755	1.0167	ITI	n/a	n/a	n/a	n/a	n/a	n/a	n/a	n/a
398.9922	0.5167	FIXCROSS	n/a	n/a	n/a	n/a	n/a	n/a	n/a	n/a
399.5089	0.5833	COLOR_NAME	50	Neutral	niebieski	blue	Neutral	Neutral	hit	n/a
400.0729	n/a	RESPONSE	n/a	n/a	n/a	n/a	n/a	n/a	n/a	blue
400.0922	1.0167	ITI	n/a	n/a	n/a	n/a	n/a	n/a	n/a	n/a
401.1089	0.5167	FIXCROSS	n/a	n/a	n/a	n/a	n/a	n/a	n/a	n/a
401.6255	0.5	COLOR_NAME	51	Neutral	żółty	yellow	Neutral	Neutral	hit	n/a
402.1034	n/a	RESPONSE	n/a	n/a	n/a	n/a	n/a	n/a	n/a	yellow
402.1255	1.0167	ITI	n/a	n/a	n/a	n/a	n/a	n/a	n/a	n/a
403.1422	0.5167	FIXCROSS	n/a	n/a	n/a	n/a	n/a	n/a	n/a	n/a
403.6589	0.4667	COLOR_NAME	52	Neutral	żółty	yellow	Neutral	Neutral	hit	n/a
404.1018	n/a	RESPONSE	n/a	n/a	n/a	n/a	n/a	n/a	n/a	yellow
404.1256	1.0167	ITI	n/a	n/a	n/a	n/a	n/a	n/a	n/a	n/a
405.1422	0.5167	FIXCROSS	n/a	n/a	n/a	n/a	n/a	n/a	n/a	n/a
405.6589	0.6167	COLOR_NAME	53	Incongruent	niebieski	blue	zielony	green	hit	n/a
406.2443	n/a	RESPONSE	n/a	n/a	n/a	n/a	n/a	n/a	n/a	blue
406.2756	1.0167	ITI	n/a	n/a	n/a	n/a	n/a	n/a	n/a	n/a
407.2923	0.5167	FIXCROSS	n/a	n/a	n/a	n/a	n/a	n/a	n/a	n/a
407.8089	0.4833	COLOR_NAME	54	Incongruent	niebieski	blue	zielony	green	hit	n/a
408.2588	n/a	RESPONSE	n/a	n/a	n/a	n/a	n/a	n/a	n/a	blue
408.2923	1.0167	ITI	n/a	n/a	n/a	n/a	n/a	n/a	n/a	n/a
409.309	0.5167	FIXCROSS	n/a	n/a	n/a	n/a	n/a	n/a	n/a	n/a
409.8256	0.55	COLOR_NAME	55	Neutral	niebieski	blue	Neutral	Neutral	hit	n/a
410.3533	n/a	RESPONSE	n/a	n/a	n/a	n/a	n/a	n/a	n/a	blue
410.3756	1.0167	ITI	n/a	n/a	n/a	n/a	n/a	n/a	n/a	n/a
411.3923	0.5167	FIXCROSS	n/a	n/a	n/a	n/a	n/a	n/a	n/a	n/a
411.909	0.5167	COLOR_NAME	56	Neutral	żółty	yellow	Neutral	Neutral	hit	n/a
412.3998	n/a	RESPONSE	n/a	n/a	n/a	n/a	n/a	n/a	n/a	yellow
412.4257	1.0167	ITI	n/a	n/a	n/a	n/a	n/a	n/a	n/a	n/a
413.4423	0.5167	FIXCROSS	n/a	n/a	n/a	n/a	n/a	n/a	n/a	n/a
413.959	0.5333	COLOR_NAME	57	Neutral	czerwony	red	Neutral	Neutral	hit	n/a
414.4623	n/a	RESPONSE	n/a	n/a	n/a	n/a	n/a	n/a	n/a	red
414.4923	1.0167	ITI	n/a	n/a	n/a	n/a	n/a	n/a	n/a	n/a
415.509	0.5167	FIXCROSS	n/a	n/a	n/a	n/a	n/a	n/a	n/a	n/a
416.0257	0.7333	COLOR_NAME	58	Incongruent	żółty	yellow	niebieski	blue	hit	n/a
416.7326	n/a	RESPONSE	n/a	n/a	n/a	n/a	n/a	n/a	n/a	yellow
416.759	1.0167	ITI	n/a	n/a	n/a	n/a	n/a	n/a	n/a	n/a
417.7757	0.5167	FIXCROSS	n/a	n/a	n/a	n/a	n/a	n/a	n/a	n/a
418.2924	0.85	COLOR_NAME	59	Incongruent	zielony	green	czerwony	red	hit	n/a
419.1149	n/a	RESPONSE	n/a	n/a	n/a	n/a	n/a	n/a	n/a	green
419.1424	1.0167	ITI	n/a	n/a	n/a	n/a	n/a	n/a	n/a	n/a
420.1591	0.5167	FIXCROSS	n/a	n/a	n/a	n/a	n/a	n/a	n/a	n/a
420.6758	0.5833	COLOR_NAME	60	Incongruent	niebieski	blue	żółty	yellow	hit	n/a
421.2254	n/a	RESPONSE	n/a	n/a	n/a	n/a	n/a	n/a	n/a	blue
421.2591	1.0167	ITI	n/a	n/a	n/a	n/a	n/a	n/a	n/a	n/a
422.2758	0.5167	FIXCROSS	n/a	n/a	n/a	n/a	n/a	n/a	n/a	n/a
422.7924	0.4333	COLOR_NAME	61	Incongruent	niebieski	blue	zielony	green	hit	n/a
423.2078	n/a	RESPONSE	n/a	n/a	n/a	n/a	n/a	n/a	n/a	blue
423.2258	1.0167	ITI	n/a	n/a	n/a	n/a	n/a	n/a	n/a	n/a
424.2424	0.5167	FIXCROSS	n/a	n/a	n/a	n/a	n/a	n/a	n/a	n/a
424.7591	0.5	COLOR_NAME	62	Incongruent	żółty	yellow	czerwony	red	hit	n/a
425.2383	n/a	RESPONSE	n/a	n/a	n/a	n/a	n/a	n/a	n/a	yellow
425.2591	1.0167	ITI	n/a	n/a	n/a	n/a	n/a	n/a	n/a	n/a
426.2758	0.5167	FIXCROSS	n/a	n/a	n/a	n/a	n/a	n/a	n/a	n/a
426.7925	0.5167	COLOR_NAME	63	Neutral	czerwony	red	Neutral	Neutral	hit	n/a
427.2849	n/a	RESPONSE	n/a	n/a	n/a	n/a	n/a	n/a	n/a	red
427.3091	1.0167	ITI	n/a	n/a	n/a	n/a	n/a	n/a	n/a	n/a
428.3258	0.5167	FIXCROSS	n/a	n/a	n/a	n/a	n/a	n/a	n/a	n/a
428.8425	0.5333	COLOR_NAME	64	Neutral	czerwony	red	Neutral	Neutral	hit	n/a
429.3472	n/a	RESPONSE	n/a	n/a	n/a	n/a	n/a	n/a	n/a	red
429.3758	1.0167	ITI	n/a	n/a	n/a	n/a	n/a	n/a	n/a	n/a
430.3925	0.5167	FIXCROSS	n/a	n/a	n/a	n/a	n/a	n/a	n/a	n/a
430.9092	0.7	COLOR_NAME	65	Neutral	zielony	green	Neutral	Neutral	hit	n/a
431.5856	n/a	RESPONSE	n/a	n/a	n/a	n/a	n/a	n/a	n/a	green
431.6092	1.0167	ITI	n/a	n/a	n/a	n/a	n/a	n/a	n/a	n/a
432.6259	0.5167	FIXCROSS	n/a	n/a	n/a	n/a	n/a	n/a	n/a	n/a
433.1425	0.7333	COLOR_NAME	66	Incongruent	zielony	green	żółty	yellow	incorrect	n/a
433.856	n/a	RESPONSE	n/a	n/a	n/a	n/a	n/a	n/a	n/a	yellow
433.8759	1.0167	ITI	n/a	n/a	n/a	n/a	n/a	n/a	n/a	n/a
434.8926	0.5167	FIXCROSS	n/a	n/a	n/a	n/a	n/a	n/a	n/a	n/a
435.4092	1.0667	COLOR_NAME	67	Incongruent	czerwony	red	niebieski	blue	hit	n/a
436.4461	n/a	RESPONSE	n/a	n/a	n/a	n/a	n/a	n/a	n/a	red
436.4759	1.0167	ITI	n/a	n/a	n/a	n/a	n/a	n/a	n/a	n/a
437.4926	0.5167	FIXCROSS	n/a	n/a	n/a	n/a	n/a	n/a	n/a	n/a
438.0093	0.6333	COLOR_NAME	68	Neutral	zielony	green	Neutral	Neutral	hit	n/a
438.6205	n/a	RESPONSE	n/a	n/a	n/a	n/a	n/a	n/a	n/a	green
438.6426	1.0167	ITI	n/a	n/a	n/a	n/a	n/a	n/a	n/a	n/a
439.6593	0.5167	FIXCROSS	n/a	n/a	n/a	n/a	n/a	n/a	n/a	n/a
440.1759	1.25	COLOR_NAME	69	Incongruent	czerwony	red	żółty	yellow	hit	n/a
441.4025	n/a	RESPONSE	n/a	n/a	n/a	n/a	n/a	n/a	n/a	red
441.426	1.0167	ITI	n/a	n/a	n/a	n/a	n/a	n/a	n/a	n/a
442.4426	0.5167	FIXCROSS	n/a	n/a	n/a	n/a	n/a	n/a	n/a	n/a
442.9593	1.1833	COLOR_NAME	70	Incongruent	zielony	green	żółty	yellow	hit	n/a
444.1204	n/a	RESPONSE	n/a	n/a	n/a	n/a	n/a	n/a	n/a	green
444.1427	1.0167	ITI	n/a	n/a	n/a	n/a	n/a	n/a	n/a	n/a
445.1593	0.5167	FIXCROSS	n/a	n/a	n/a	n/a	n/a	n/a	n/a	n/a
445.676	0.8333	COLOR_NAME	71	Incongruent	czerwony	red	zielony	green	hit	n/a
446.4868	n/a	RESPONSE	n/a	n/a	n/a	n/a	n/a	n/a	n/a	red
446.5093	1.0167	ITI	n/a	n/a	n/a	n/a	n/a	n/a	n/a	n/a
447.526	0.5167	FIXCROSS	n/a	n/a	n/a	n/a	n/a	n/a	n/a	n/a
448.0427	1.3834	COLOR_NAME	72	Incongruent	żółty	yellow	czerwony	red	hit	n/a
449.3965	n/a	RESPONSE	n/a	n/a	n/a	n/a	n/a	n/a	n/a	yellow
449.426	1.0333	ITI	n/a	n/a	n/a	n/a	n/a	n/a	n/a	n/a
453.5375	n/a	RESPONSE	n/a	n/a	n/a	n/a	n/a	n/a	n/a	n/a
