onset	duration	trial_type	n_back_condition	trial_number	stimulus	response_type
0.0	n/a	RESPONSE	n/a	n/a	n/a	n/a
0.0288	1.0	ISI	n/a	n/a	n/a	n/a
1.0288	0.5	DISTRACTOR	1	1	A	Correct Rejection
1.5288	1.0	ISI	n/a	n/a	n/a	n/a
2.5288	0.5	DISTRACTOR	1	2	G	Correct Rejection
3.0288	1.0	ISI	n/a	n/a	n/a	n/a
4.0289	0.5	DISTRACTOR	1	3	D	Correct Rejection
4.5289	1.0	ISI	n/a	n/a	n/a	n/a
5.5289	0.5	TARGET	1	4	D	Hit
5.9157	n/a	RESPONSE	n/a	n/a	n/a	n/a
6.0289	1.0	ISI	n/a	n/a	n/a	n/a
7.0289	0.5	DISTRACTOR	1	5	H	Correct Rejection
7.5289	1.0	ISI	n/a	n/a	n/a	n/a
8.5289	0.5	DISTRACTOR	1	6	C	Correct Rejection
9.0289	1.0	ISI	n/a	n/a	n/a	n/a
10.0289	0.5	DISTRACTOR	1	7	A	Correct Rejection
10.5289	1.0	ISI	n/a	n/a	n/a	n/a
11.5289	0.5	DISTRACTOR	1	8	H	Correct Rejection
12.0289	1.0	ISI	n/a	n/a	n/a	n/a
13.029	0.5	DISTRACTOR	1	9	B	Correct Rejection
13.529	1.0	ISI	n/a	n/a	n/a	n/a
14.529	0.5	DISTRACTOR	1	10	D	Correct Rejection
15.029	1.0	ISI	n/a	n/a	n/a	n/a
16.029	0.5	TARGET	1	11	D	Hit
16.529	1.0	ISI	n/a	n/a	n/a	n/a
16.532	n/a	RESPONSE	n/a	n/a	n/a	n/a
17.529	0.5	DISTRACTOR	1	12	F	Correct Rejection
18.029	1.0	ISI	n/a	n/a	n/a	n/a
19.029	0.5	DISTRACTOR	1	13	B	Correct Rejection
19.529	1.0	ISI	n/a	n/a	n/a	n/a
20.5291	0.5	DISTRACTOR	1	14	J	Correct Rejection
21.0291	1.0167	ISI	n/a	n/a	n/a	n/a
22.0457	0.5167	DISTRACTOR	1	15	D	Correct Rejection
22.5624	1.0167	ISI	n/a	n/a	n/a	n/a
23.5791	0.5167	DISTRACTOR	1	16	I	Correct Rejection
24.0958	1.0167	ISI	n/a	n/a	n/a	n/a
25.1124	0.5167	TARGET	1	17	I	Hit
25.6291	1.0167	ISI	n/a	n/a	n/a	n/a
25.6293	n/a	RESPONSE	n/a	n/a	n/a	n/a
26.6458	0.5167	TARGET	1	18	I	Hit
27.1002	n/a	RESPONSE	n/a	n/a	n/a	n/a
27.1625	1.0167	ISI	n/a	n/a	n/a	n/a
28.1791	0.5167	DISTRACTOR	1	19	G	Correct Rejection
28.6958	1.0167	ISI	n/a	n/a	n/a	n/a
29.7125	0.5167	DISTRACTOR	1	20	I	Correct Rejection
30.2292	1.0167	ISI	n/a	n/a	n/a	n/a
31.2458	0.5167	DISTRACTOR	1	21	B	Correct Rejection
31.7625	1.0167	ISI	n/a	n/a	n/a	n/a
32.7792	0.5167	DISTRACTOR	1	22	D	Correct Rejection
33.2959	1.0167	ISI	n/a	n/a	n/a	n/a
34.3126	0.5167	DISTRACTOR	1	23	I	Correct Rejection
34.8292	1.0167	ISI	n/a	n/a	n/a	n/a
35.8459	0.5167	TARGET	1	24	I	Hit
36.3254	n/a	RESPONSE	n/a	n/a	n/a	n/a
36.3626	1.0167	ISI	n/a	n/a	n/a	n/a
37.3793	0.5167	TARGET	1	25	I	Hit
37.7643	n/a	RESPONSE	n/a	n/a	n/a	n/a
37.8959	1.0167	ISI	n/a	n/a	n/a	n/a
38.9126	0.5167	DISTRACTOR	1	26	E	Correct Rejection
39.4293	1.0167	ISI	n/a	n/a	n/a	n/a
40.446	0.5167	DISTRACTOR	1	27	B	Correct Rejection
40.9626	1.0167	ISI	n/a	n/a	n/a	n/a
41.9793	0.5167	TARGET	1	28	B	Hit
42.496	1.0167	ISI	n/a	n/a	n/a	n/a
42.5768	n/a	RESPONSE	n/a	n/a	n/a	n/a
43.5126	0.5167	DISTRACTOR	1	29	F	Correct Rejection
44.0293	1.0167	ISI	n/a	n/a	n/a	n/a
45.046	0.5167	DISTRACTOR	1	30	D	Correct Rejection
45.5627	1.0167	ISI	n/a	n/a	n/a	n/a
46.5794	0.5167	DISTRACTOR	1	31	H	Correct Rejection
47.096	1.0167	ISI	n/a	n/a	n/a	n/a
48.1127	0.5167	DISTRACTOR	1	32	I	Correct Rejection
48.6294	1.0167	ISI	n/a	n/a	n/a	n/a
49.6461	0.5167	DISTRACTOR	1	33	J	Correct Rejection
50.1627	1.0167	ISI	n/a	n/a	n/a	n/a
51.1794	0.5167	DISTRACTOR	1	34	I	False Alarm
51.6961	1.0167	ISI	n/a	n/a	n/a	n/a
51.786	n/a	RESPONSE	n/a	n/a	n/a	n/a
52.7128	0.5167	DISTRACTOR	1	35	D	Correct Rejection
53.2294	1.0167	ISI	n/a	n/a	n/a	n/a
54.2461	0.5167	DISTRACTOR	1	36	E	Correct Rejection
54.7628	1.0167	ISI	n/a	n/a	n/a	n/a
55.7795	0.5167	DISTRACTOR	1	37	C	Correct Rejection
56.2961	1.0167	ISI	n/a	n/a	n/a	n/a
57.3128	0.5167	DISTRACTOR	1	38	F	Correct Rejection
57.8295	1.0167	ISI	n/a	n/a	n/a	n/a
58.8462	0.5167	DISTRACTOR	1	39	H	Correct Rejection
59.3628	1.0167	ISI	n/a	n/a	n/a	n/a
60.3795	0.5167	DISTRACTOR	1	40	A	Correct Rejection
60.8962	1.0167	ISI	n/a	n/a	n/a	n/a
61.9129	0.5167	DISTRACTOR	1	41	J	Correct Rejection
62.4295	1.0167	ISI	n/a	n/a	n/a	n/a
63.4462	0.5167	DISTRACTOR	1	42	D	Correct Rejection
63.9629	1.0167	ISI	n/a	n/a	n/a	n/a
64.9796	0.5167	TARGET	1	43	D	Hit
65.2961	n/a	RESPONSE	n/a	n/a	n/a	n/a
65.4962	1.0167	ISI	n/a	n/a	n/a	n/a
66.5129	0.5167	DISTRACTOR	1	44	J	Correct Rejection
67.0296	1.0167	ISI	n/a	n/a	n/a	n/a
68.0463	0.5167	TARGET	1	45	J	Hit
68.3819	n/a	RESPONSE	n/a	n/a	n/a	n/a
68.5629	1.0167	ISI	n/a	n/a	n/a	n/a
69.5796	0.5167	DISTRACTOR	1	46	H	Correct Rejection
70.0963	1.0167	ISI	n/a	n/a	n/a	n/a
71.113	0.5167	DISTRACTOR	1	47	E	Correct Rejection
71.6296	1.0167	ISI	n/a	n/a	n/a	n/a
72.6463	0.5167	TARGET	1	48	E	Hit
73.0825	n/a	RESPONSE	n/a	n/a	n/a	n/a
73.163	1.0167	ISI	n/a	n/a	n/a	n/a
74.1797	0.5167	DISTRACTOR	1	49	G	Correct Rejection
74.6963	1.0167	ISI	n/a	n/a	n/a	n/a
75.713	0.5167	DISTRACTOR	1	50	D	Correct Rejection
76.2297	1.1167	ISI	n/a	n/a	n/a	n/a
79.7336	n/a	RESPONSE	n/a	n/a	n/a	n/a
79.7964	1.0167	ISI	n/a	n/a	n/a	n/a
80.8131	0.5167	DISTRACTOR	2	1	G	Correct Rejection
81.3298	1.0167	ISI	n/a	n/a	n/a	n/a
82.3464	0.5167	DISTRACTOR	2	2	C	Correct Rejection
82.8631	1.0167	ISI	n/a	n/a	n/a	n/a
83.8798	0.5167	DISTRACTOR	2	3	H	Correct Rejection
84.3965	1.0167	ISI	n/a	n/a	n/a	n/a
85.4131	0.5167	TARGET	2	4	C	Hit
85.9298	1.0167	ISI	n/a	n/a	n/a	n/a
85.969	n/a	RESPONSE	n/a	n/a	n/a	n/a
86.9465	0.5167	DISTRACTOR	2	5	B	Correct Rejection
87.4632	1.0167	ISI	n/a	n/a	n/a	n/a
88.4798	0.5167	DISTRACTOR	2	6	H	False Alarm
88.9965	1.0167	ISI	n/a	n/a	n/a	n/a
89.1985	n/a	RESPONSE	n/a	n/a	n/a	n/a
90.0132	0.5167	DISTRACTOR	2	7	F	Correct Rejection
90.5299	1.0167	ISI	n/a	n/a	n/a	n/a
91.5465	0.5167	DISTRACTOR	2	8	I	Correct Rejection
92.0632	1.0167	ISI	n/a	n/a	n/a	n/a
93.0799	0.5167	DISTRACTOR	2	9	B	Correct Rejection
93.5966	1.0167	ISI	n/a	n/a	n/a	n/a
94.6132	0.5167	DISTRACTOR	2	10	C	Correct Rejection
95.1299	1.0167	ISI	n/a	n/a	n/a	n/a
96.1466	0.5167	DISTRACTOR	2	11	D	Correct Rejection
96.6633	1.0167	ISI	n/a	n/a	n/a	n/a
97.6799	0.5167	DISTRACTOR	2	12	H	Correct Rejection
98.1966	1.0167	ISI	n/a	n/a	n/a	n/a
99.2133	0.5167	DISTRACTOR	2	13	E	Correct Rejection
99.73	1.0167	ISI	n/a	n/a	n/a	n/a
100.7466	0.5167	TARGET	2	14	H	Hit
101.2633	1.0167	ISI	n/a	n/a	n/a	n/a
101.2857	n/a	RESPONSE	n/a	n/a	n/a	n/a
102.28	0.5167	DISTRACTOR	2	15	A	Correct Rejection
102.7967	1.0167	ISI	n/a	n/a	n/a	n/a
103.8133	0.5167	DISTRACTOR	2	16	C	Correct Rejection
104.33	1.0167	ISI	n/a	n/a	n/a	n/a
105.3467	0.5167	DISTRACTOR	2	17	F	Correct Rejection
105.8634	1.0167	ISI	n/a	n/a	n/a	n/a
106.88	0.5167	DISTRACTOR	2	18	A	Correct Rejection
107.3967	1.0167	ISI	n/a	n/a	n/a	n/a
108.4134	0.5167	DISTRACTOR	2	19	D	Correct Rejection
108.9301	1.0167	ISI	n/a	n/a	n/a	n/a
109.9467	0.5167	DISTRACTOR	2	20	C	Correct Rejection
110.4634	1.0167	ISI	n/a	n/a	n/a	n/a
111.4801	0.5167	DISTRACTOR	2	21	A	False Alarm
111.9968	1.0167	ISI	n/a	n/a	n/a	n/a
112.2377	n/a	RESPONSE	n/a	n/a	n/a	n/a
113.0135	0.5167	DISTRACTOR	2	22	B	Correct Rejection
113.5301	1.0167	ISI	n/a	n/a	n/a	n/a
114.5468	0.5167	DISTRACTOR	2	23	F	Correct Rejection
115.0635	1.0167	ISI	n/a	n/a	n/a	n/a
116.0802	0.5167	DISTRACTOR	2	24	D	Correct Rejection
116.5968	1.0167	ISI	n/a	n/a	n/a	n/a
117.6135	0.5167	DISTRACTOR	2	25	C	Correct Rejection
118.1302	1.0167	ISI	n/a	n/a	n/a	n/a
119.1468	0.5167	DISTRACTOR	2	26	J	Correct Rejection
119.6635	1.0167	ISI	n/a	n/a	n/a	n/a
120.6802	0.5167	DISTRACTOR	2	27	G	Correct Rejection
121.1969	1.0167	ISI	n/a	n/a	n/a	n/a
122.2135	0.5167	DISTRACTOR	2	28	D	Correct Rejection
122.7302	1.0167	ISI	n/a	n/a	n/a	n/a
123.7469	0.5167	DISTRACTOR	2	29	D	False Alarm
124.213	n/a	RESPONSE	n/a	n/a	n/a	n/a
124.2636	1.0167	ISI	n/a	n/a	n/a	n/a
125.2802	0.5167	DISTRACTOR	2	30	A	Correct Rejection
125.7969	1.0167	ISI	n/a	n/a	n/a	n/a
126.8136	0.5167	DISTRACTOR	2	31	F	Correct Rejection
127.3303	1.0167	ISI	n/a	n/a	n/a	n/a
128.347	0.5167	DISTRACTOR	2	32	E	Correct Rejection
128.8636	1.0167	ISI	n/a	n/a	n/a	n/a
129.8803	0.5167	TARGET	2	33	F	Hit
130.397	1.0167	ISI	n/a	n/a	n/a	n/a
130.4164	n/a	RESPONSE	n/a	n/a	n/a	n/a
131.4137	0.5167	TARGET	2	34	E	Miss
131.9303	1.0167	ISI	n/a	n/a	n/a	n/a
132.947	0.5167	TARGET	2	35	F	Hit
133.4637	1.0167	ISI	n/a	n/a	n/a	n/a
133.5021	n/a	RESPONSE	n/a	n/a	n/a	n/a
134.4804	0.5167	TARGET	2	36	E	Miss
134.997	1.0167	ISI	n/a	n/a	n/a	n/a
136.0137	0.5167	DISTRACTOR	2	37	H	Correct Rejection
136.5304	1.0167	ISI	n/a	n/a	n/a	n/a
137.547	0.5167	DISTRACTOR	2	38	I	Correct Rejection
138.0637	1.0167	ISI	n/a	n/a	n/a	n/a
139.0804	0.5167	TARGET	2	39	H	Hit
139.5971	1.0167	ISI	n/a	n/a	n/a	n/a
139.6095	n/a	RESPONSE	n/a	n/a	n/a	n/a
140.6138	0.5167	DISTRACTOR	2	40	G	Correct Rejection
141.1304	1.0167	ISI	n/a	n/a	n/a	n/a
142.1471	0.5167	DISTRACTOR	2	41	G	False Alarm
142.6638	1.0167	ISI	n/a	n/a	n/a	n/a
142.6793	n/a	RESPONSE	n/a	n/a	n/a	n/a
143.6805	0.5167	TARGET	2	42	G	Hit
144.1971	1.0167	ISI	n/a	n/a	n/a	n/a
144.438	n/a	RESPONSE	n/a	n/a	n/a	n/a
145.2138	0.5167	DISTRACTOR	2	43	H	Correct Rejection
145.7305	1.0167	ISI	n/a	n/a	n/a	n/a
146.7472	0.5167	DISTRACTOR	2	44	J	Correct Rejection
147.2638	1.0167	ISI	n/a	n/a	n/a	n/a
148.2805	0.5167	DISTRACTOR	2	45	A	Correct Rejection
148.7972	1.0167	ISI	n/a	n/a	n/a	n/a
149.8139	0.5167	DISTRACTOR	2	46	E	Correct Rejection
150.3305	1.0167	ISI	n/a	n/a	n/a	n/a
151.3472	0.5167	DISTRACTOR	2	47	B	Correct Rejection
151.8639	1.0167	ISI	n/a	n/a	n/a	n/a
152.8806	0.5167	TARGET	2	48	E	Hit
153.3972	1.0167	ISI	n/a	n/a	n/a	n/a
153.5514	n/a	RESPONSE	n/a	n/a	n/a	n/a
154.4139	0.5167	TARGET	2	49	B	Hit
154.9306	1.0167	ISI	n/a	n/a	n/a	n/a
155.1502	n/a	RESPONSE	n/a	n/a	n/a	n/a
155.9473	0.5167	DISTRACTOR	2	50	F	Correct Rejection
156.4639	1.1	ISI	n/a	n/a	n/a	n/a
165.6544	n/a	RESPONSE	n/a	n/a	n/a	n/a
165.714	1.0167	ISI	n/a	n/a	n/a	n/a
166.7307	0.5167	DISTRACTOR	3	1	B	Correct Rejection
167.2474	1.0167	ISI	n/a	n/a	n/a	n/a
168.2641	0.5167	DISTRACTOR	3	2	E	Correct Rejection
168.7807	1.0167	ISI	n/a	n/a	n/a	n/a
169.7974	0.5167	DISTRACTOR	3	3	H	Correct Rejection
170.3141	1.0167	ISI	n/a	n/a	n/a	n/a
171.3308	0.5167	DISTRACTOR	3	4	A	Correct Rejection
171.8474	1.0167	ISI	n/a	n/a	n/a	n/a
172.8641	0.5167	DISTRACTOR	3	5	A	False Alarm
173.3808	1.0167	ISI	n/a	n/a	n/a	n/a
173.5047	n/a	RESPONSE	n/a	n/a	n/a	n/a
173.8564	n/a	RESPONSE	n/a	n/a	n/a	n/a
174.3975	0.5167	DISTRACTOR	3	6	E	Correct Rejection
174.9141	1.0167	ISI	n/a	n/a	n/a	n/a
175.9308	0.5167	DISTRACTOR	3	7	F	False Alarm
176.1908	n/a	RESPONSE	n/a	n/a	n/a	n/a
176.4475	1.0167	ISI	n/a	n/a	n/a	n/a
177.4642	0.5167	DISTRACTOR	3	8	E	Correct Rejection
177.9808	1.0167	ISI	n/a	n/a	n/a	n/a
178.9975	0.5167	DISTRACTOR	3	9	I	Correct Rejection
179.5142	1.0167	ISI	n/a	n/a	n/a	n/a
180.5309	0.5167	DISTRACTOR	3	10	G	Correct Rejection
181.0475	1.0167	ISI	n/a	n/a	n/a	n/a
182.0642	0.5167	DISTRACTOR	3	11	I	Correct Rejection
182.5809	1.0167	ISI	n/a	n/a	n/a	n/a
183.5976	0.5167	DISTRACTOR	3	12	H	Correct Rejection
184.1142	1.0167	ISI	n/a	n/a	n/a	n/a
185.1309	0.5167	TARGET	3	13	G	Hit
185.6476	1.0167	ISI	n/a	n/a	n/a	n/a
186.0555	n/a	RESPONSE	n/a	n/a	n/a	n/a
186.6643	0.5167	DISTRACTOR	3	14	A	Correct Rejection
187.1809	1.0167	ISI	n/a	n/a	n/a	n/a
188.1976	0.5167	DISTRACTOR	3	15	I	Correct Rejection
188.7143	1.0167	ISI	n/a	n/a	n/a	n/a
189.731	0.5167	TARGET	3	16	G	Miss
190.2477	1.0167	ISI	n/a	n/a	n/a	n/a
191.2643	0.5167	DISTRACTOR	3	17	C	Correct Rejection
191.781	1.0167	ISI	n/a	n/a	n/a	n/a
192.7977	0.5167	TARGET	3	18	I	Miss
193.3144	1.0167	ISI	n/a	n/a	n/a	n/a
194.331	0.5167	TARGET	3	19	G	Hit
194.8477	1.0167	ISI	n/a	n/a	n/a	n/a
195.2008	n/a	RESPONSE	n/a	n/a	n/a	n/a
195.8644	0.5167	DISTRACTOR	3	20	E	Correct Rejection
196.381	1.0167	ISI	n/a	n/a	n/a	n/a
197.3977	0.5167	DISTRACTOR	3	21	C	Correct Rejection
197.9144	1.0167	ISI	n/a	n/a	n/a	n/a
198.9311	0.5167	TARGET	3	22	G	Miss
199.4478	1.0167	ISI	n/a	n/a	n/a	n/a
200.4644	0.5167	DISTRACTOR	3	23	I	Correct Rejection
200.9811	1.0167	ISI	n/a	n/a	n/a	n/a
201.9978	0.5167	DISTRACTOR	3	24	D	Correct Rejection
202.5145	1.0167	ISI	n/a	n/a	n/a	n/a
203.5311	0.5167	DISTRACTOR	3	25	D	Correct Rejection
204.0478	1.0167	ISI	n/a	n/a	n/a	n/a
205.0645	0.5167	DISTRACTOR	3	26	H	Correct Rejection
205.5812	1.0167	ISI	n/a	n/a	n/a	n/a
206.5978	0.5167	DISTRACTOR	3	27	G	Correct Rejection
207.1145	1.0167	ISI	n/a	n/a	n/a	n/a
208.1312	0.5167	DISTRACTOR	3	28	F	Correct Rejection
208.6478	1.0167	ISI	n/a	n/a	n/a	n/a
209.6645	0.5167	DISTRACTOR	3	29	A	Correct Rejection
210.1812	1.0167	ISI	n/a	n/a	n/a	n/a
211.1979	0.5167	TARGET	3	30	G	Hit
211.5567	n/a	RESPONSE	n/a	n/a	n/a	n/a
211.7146	1.0167	ISI	n/a	n/a	n/a	n/a
212.7312	0.5167	DISTRACTOR	3	31	D	False Alarm
213.2479	1.0167	ISI	n/a	n/a	n/a	n/a
213.3635	n/a	RESPONSE	n/a	n/a	n/a	n/a
214.2646	0.5167	TARGET	3	32	A	Miss
214.7812	1.0167	ISI	n/a	n/a	n/a	n/a
215.7979	0.5167	DISTRACTOR	3	33	J	Correct Rejection
216.3146	1.0167	ISI	n/a	n/a	n/a	n/a
217.3313	0.5167	TARGET	3	34	D	Miss
217.848	1.0167	ISI	n/a	n/a	n/a	n/a
218.8646	0.5167	DISTRACTOR	3	35	I	Correct Rejection
219.3813	1.0167	ISI	n/a	n/a	n/a	n/a
220.398	0.5167	DISTRACTOR	3	36	C	Correct Rejection
220.9147	1.0167	ISI	n/a	n/a	n/a	n/a
221.9313	0.5167	DISTRACTOR	3	37	A	Correct Rejection
222.448	1.0167	ISI	n/a	n/a	n/a	n/a
223.4647	0.5167	TARGET	3	38	I	Miss
223.9814	1.0167	ISI	n/a	n/a	n/a	n/a
224.998	0.5167	DISTRACTOR	3	39	I	False Alarm
225.5147	1.0167	ISI	n/a	n/a	n/a	n/a
225.6424	n/a	RESPONSE	n/a	n/a	n/a	n/a
226.5314	0.5167	DISTRACTOR	3	40	C	False Alarm
227.0481	1.0167	ISI	n/a	n/a	n/a	n/a
227.2892	n/a	RESPONSE	n/a	n/a	n/a	n/a
228.0647	0.5167	DISTRACTOR	3	41	G	Correct Rejection
228.5814	1.0167	ISI	n/a	n/a	n/a	n/a
229.5981	0.5167	DISTRACTOR	3	42	H	Correct Rejection
230.1148	1.0167	ISI	n/a	n/a	n/a	n/a
231.1314	0.5167	DISTRACTOR	3	43	B	Correct Rejection
231.6481	1.0167	ISI	n/a	n/a	n/a	n/a
232.6648	0.5167	DISTRACTOR	3	44	D	Correct Rejection
233.1815	1.0167	ISI	n/a	n/a	n/a	n/a
234.1981	0.5167	DISTRACTOR	3	45	G	Correct Rejection
234.7148	1.0167	ISI	n/a	n/a	n/a	n/a
235.7315	0.5167	DISTRACTOR	3	46	F	Correct Rejection
236.2482	1.0167	ISI	n/a	n/a	n/a	n/a
237.2648	0.5167	DISTRACTOR	3	47	G	False Alarm
237.6816	n/a	RESPONSE	n/a	n/a	n/a	n/a
237.7815	1.0167	ISI	n/a	n/a	n/a	n/a
238.7982	0.5167	DISTRACTOR	3	48	I	Correct Rejection
239.3149	1.0167	ISI	n/a	n/a	n/a	n/a
240.3315	0.5167	DISTRACTOR	3	49	I	False Alarm
240.7673	n/a	RESPONSE	n/a	n/a	n/a	n/a
240.8482	1.0167	ISI	n/a	n/a	n/a	n/a
241.8649	0.5167	TARGET	3	50	G	Hit
242.3816	1.0333	ISI	n/a	n/a	n/a	n/a
242.7178	n/a	RESPONSE	n/a	n/a	n/a	n/a
248.0739	n/a	RESPONSE	n/a	n/a	n/a	n/a
