onset	duration	trial_type	trial_number	stroop_condition	stim_text(PL)	stim_text(eng)	stim_color(PL)	stim_color(eng)	response_type	response_color
0.0	n/a	RESPONSE	n/a	n/a	n/a	n/a	n/a	n/a	n/a	n/a
0.0607	1.0167	ITI	n/a	n/a	n/a	n/a	n/a	n/a	n/a	n/a
1.0774	0.5167	FIXCROSS	n/a	n/a	n/a	n/a	n/a	n/a	n/a	n/a
1.5941	1.1333	T_INK	1	Incongruent	czerwony	red	niebieski	blue	hit	n/a
2.698	n/a	RESPONSE	n/a	n/a	n/a	n/a	n/a	n/a	n/a	blue
2.7274	0.5167	FEEDBACK	n/a	n/a	n/a	n/a	n/a	n/a	n/a	n/a
3.2441	1.0167	ITI	n/a	n/a	n/a	n/a	n/a	n/a	n/a	n/a
4.2608	0.5166	FIXCROSS	n/a	n/a	n/a	n/a	n/a	n/a	n/a	n/a
4.7774	0.7833	T_INK	2	Incongruent	niebieski	blue	żółty	yellow	hit	n/a
5.5236	n/a	RESPONSE	n/a	n/a	n/a	n/a	n/a	n/a	n/a	yellow
5.5607	0.5167	FEEDBACK	n/a	n/a	n/a	n/a	n/a	n/a	n/a	n/a
6.0774	1.0167	ITI	n/a	n/a	n/a	n/a	n/a	n/a	n/a	n/a
7.0941	0.5166	FIXCROSS	n/a	n/a	n/a	n/a	n/a	n/a	n/a	n/a
7.6108	0.85	T_INK	3	Incongruent	czerwony	red	zielony	green	hit	n/a
8.4289	n/a	RESPONSE	n/a	n/a	n/a	n/a	n/a	n/a	n/a	green
8.4608	0.5167	FEEDBACK	n/a	n/a	n/a	n/a	n/a	n/a	n/a	n/a
8.9775	1.0167	ITI	n/a	n/a	n/a	n/a	n/a	n/a	n/a	n/a
9.9941	0.5166	FIXCROSS	n/a	n/a	n/a	n/a	n/a	n/a	n/a	n/a
10.5108	0.8667	T_INK	4	Neutral	xxxxxxxx	xxxxxxxx	niebieski	blue	hit	n/a
11.3504	n/a	RESPONSE	n/a	n/a	n/a	n/a	n/a	n/a	n/a	blue
11.3775	0.5167	FEEDBACK	n/a	n/a	n/a	n/a	n/a	n/a	n/a	n/a
11.8942	1.0167	ITI	n/a	n/a	n/a	n/a	n/a	n/a	n/a	n/a
12.9108	0.5167	FIXCROSS	n/a	n/a	n/a	n/a	n/a	n/a	n/a	n/a
13.4275	0.65	T_INK	5	Incongruent	żółty	yellow	niebieski	blue	hit	n/a
14.0482	n/a	RESPONSE	n/a	n/a	n/a	n/a	n/a	n/a	n/a	blue
14.0775	0.5167	FEEDBACK	n/a	n/a	n/a	n/a	n/a	n/a	n/a	n/a
14.5942	1.0167	ITI	n/a	n/a	n/a	n/a	n/a	n/a	n/a	n/a
15.6109	0.5167	FIXCROSS	n/a	n/a	n/a	n/a	n/a	n/a	n/a	n/a
16.1275	0.8833	T_INK	6	Neutral	xxxxxxxx	xxxxxxxx	zielony	green	incorrect	n/a
16.9856	n/a	RESPONSE	n/a	n/a	n/a	n/a	n/a	n/a	n/a	red
17.0108	0.5167	FEEDBACK	n/a	n/a	n/a	n/a	n/a	n/a	n/a	n/a
17.5275	1.0167	ITI	n/a	n/a	n/a	n/a	n/a	n/a	n/a	n/a
18.5442	0.5167	FIXCROSS	n/a	n/a	n/a	n/a	n/a	n/a	n/a	n/a
19.0609	0.8167	T_INK	7	Neutral	xxxxxxxx	xxxxxxxx	żółty	yellow	hit	n/a
19.859	n/a	RESPONSE	n/a	n/a	n/a	n/a	n/a	n/a	n/a	yellow
19.8776	0.5167	FEEDBACK	n/a	n/a	n/a	n/a	n/a	n/a	n/a	n/a
20.3942	1.0167	ITI	n/a	n/a	n/a	n/a	n/a	n/a	n/a	n/a
21.4109	0.5167	FIXCROSS	n/a	n/a	n/a	n/a	n/a	n/a	n/a	n/a
21.9276	0.6333	T_INK	8	Neutral	xxxxxxx	xxxxxxx	żółty	yellow	hit	n/a
22.541	n/a	RESPONSE	n/a	n/a	n/a	n/a	n/a	n/a	n/a	yellow
22.5609	0.5167	FEEDBACK	n/a	n/a	n/a	n/a	n/a	n/a	n/a	n/a
23.0776	1.0166	ITI	n/a	n/a	n/a	n/a	n/a	n/a	n/a	n/a
24.0942	0.5167	FIXCROSS	n/a	n/a	n/a	n/a	n/a	n/a	n/a	n/a
24.6109	1.5	T_INK	9	Incongruent	niebieski	blue	czerwony	red	hit	n/a
26.085	n/a	RESPONSE	n/a	n/a	n/a	n/a	n/a	n/a	n/a	red
26.1109	0.5166	FEEDBACK	n/a	n/a	n/a	n/a	n/a	n/a	n/a	n/a
26.6276	1.0167	ITI	n/a	n/a	n/a	n/a	n/a	n/a	n/a	n/a
27.6442	0.5167	FIXCROSS	n/a	n/a	n/a	n/a	n/a	n/a	n/a	n/a
28.1609	0.8167	T_INK	10	Incongruent	zielony	green	żółty	yellow	hit	n/a
28.9585	n/a	RESPONSE	n/a	n/a	n/a	n/a	n/a	n/a	n/a	yellow
28.9776	0.5167	FEEDBACK	n/a	n/a	n/a	n/a	n/a	n/a	n/a	n/a
29.4943	1.0166	ITI	n/a	n/a	n/a	n/a	n/a	n/a	n/a	n/a
30.5109	0.5167	FIXCROSS	n/a	n/a	n/a	n/a	n/a	n/a	n/a	n/a
31.0276	0.7333	T_INK	11	Incongruent	niebieski	blue	zielony	green	hit	n/a
31.7363	n/a	RESPONSE	n/a	n/a	n/a	n/a	n/a	n/a	n/a	green
31.761	0.5166	FEEDBACK	n/a	n/a	n/a	n/a	n/a	n/a	n/a	n/a
32.2776	1.0167	ITI	n/a	n/a	n/a	n/a	n/a	n/a	n/a	n/a
33.2943	0.5167	FIXCROSS	n/a	n/a	n/a	n/a	n/a	n/a	n/a	n/a
33.811	0.7	T_INK	12	Incongruent	zielony	green	czerwony	red	hit	n/a
34.4821	n/a	RESPONSE	n/a	n/a	n/a	n/a	n/a	n/a	n/a	red
34.511	0.5167	FEEDBACK	n/a	n/a	n/a	n/a	n/a	n/a	n/a	n/a
35.0277	1.0333	ITI	n/a	n/a	n/a	n/a	n/a	n/a	n/a	n/a
41.6339	n/a	RESPONSE	n/a	n/a	n/a	n/a	n/a	n/a	n/a	n/a
41.6944	1.0166	ITI	n/a	n/a	n/a	n/a	n/a	n/a	n/a	n/a
42.711	0.5167	FIXCROSS	n/a	n/a	n/a	n/a	n/a	n/a	n/a	n/a
43.2277	0.6833	INK	1	Neutral	xxxxxxx	xxxxxxx	żółty	yellow	hit	n/a
43.8847	n/a	RESPONSE	n/a	n/a	n/a	n/a	n/a	n/a	n/a	yellow
43.9111	1.0166	ITI	n/a	n/a	n/a	n/a	n/a	n/a	n/a	n/a
44.9277	0.5167	FIXCROSS	n/a	n/a	n/a	n/a	n/a	n/a	n/a	n/a
45.4444	0.7166	INK	2	Incongruent	zielony	green	żółty	yellow	hit	n/a
46.1357	n/a	RESPONSE	n/a	n/a	n/a	n/a	n/a	n/a	n/a	yellow
46.1611	1.0167	ITI	n/a	n/a	n/a	n/a	n/a	n/a	n/a	n/a
47.1778	0.5167	FIXCROSS	n/a	n/a	n/a	n/a	n/a	n/a	n/a	n/a
47.6944	0.65	INK	3	Neutral	xxxxxxxx	xxxxxxxx	żółty	yellow	hit	n/a
48.3227	n/a	RESPONSE	n/a	n/a	n/a	n/a	n/a	n/a	n/a	yellow
48.3444	1.0167	ITI	n/a	n/a	n/a	n/a	n/a	n/a	n/a	n/a
49.3611	0.5167	FIXCROSS	n/a	n/a	n/a	n/a	n/a	n/a	n/a	n/a
49.8778	0.4833	INK	4	Neutral	xxxxxxxx	xxxxxxxx	żółty	yellow	hit	n/a
50.3342	n/a	RESPONSE	n/a	n/a	n/a	n/a	n/a	n/a	n/a	yellow
50.3611	1.0167	ITI	n/a	n/a	n/a	n/a	n/a	n/a	n/a	n/a
51.3778	0.5167	FIXCROSS	n/a	n/a	n/a	n/a	n/a	n/a	n/a	n/a
51.8945	0.6167	INK	5	Neutral	xxxxx	xxxxx	niebieski	blue	hit	n/a
52.4894	n/a	RESPONSE	n/a	n/a	n/a	n/a	n/a	n/a	n/a	blue
52.5111	1.0167	ITI	n/a	n/a	n/a	n/a	n/a	n/a	n/a	n/a
53.5278	0.5167	FIXCROSS	n/a	n/a	n/a	n/a	n/a	n/a	n/a	n/a
54.0445	0.5667	INK	6	Neutral	xxxxxxxxx	xxxxxxxxx	czerwony	red	hit	n/a
54.5806	n/a	RESPONSE	n/a	n/a	n/a	n/a	n/a	n/a	n/a	red
54.6112	1.0166	ITI	n/a	n/a	n/a	n/a	n/a	n/a	n/a	n/a
55.6278	0.5167	FIXCROSS	n/a	n/a	n/a	n/a	n/a	n/a	n/a	n/a
56.1445	0.55	INK	7	Incongruent	czerwony	red	żółty	yellow	hit	n/a
56.6718	n/a	RESPONSE	n/a	n/a	n/a	n/a	n/a	n/a	n/a	yellow
56.6945	1.0167	ITI	n/a	n/a	n/a	n/a	n/a	n/a	n/a	n/a
57.7112	0.5167	FIXCROSS	n/a	n/a	n/a	n/a	n/a	n/a	n/a	n/a
58.2278	0.9333	INK	8	Neutral	xxxxx	xxxxx	czerwony	red	hit	n/a
59.1303	n/a	RESPONSE	n/a	n/a	n/a	n/a	n/a	n/a	n/a	red
59.1611	1.0167	ITI	n/a	n/a	n/a	n/a	n/a	n/a	n/a	n/a
60.1779	0.5167	FIXCROSS	n/a	n/a	n/a	n/a	n/a	n/a	n/a	n/a
60.6945	0.5167	INK	9	Neutral	xxxxxxxx	xxxxxxxx	niebieski	blue	hit	n/a
61.1896	n/a	RESPONSE	n/a	n/a	n/a	n/a	n/a	n/a	n/a	blue
61.2112	1.0167	ITI	n/a	n/a	n/a	n/a	n/a	n/a	n/a	n/a
62.2279	0.5167	FIXCROSS	n/a	n/a	n/a	n/a	n/a	n/a	n/a	n/a
62.7445	0.6	INK	10	Incongruent	zielony	green	niebieski	blue	hit	n/a
63.3129	n/a	RESPONSE	n/a	n/a	n/a	n/a	n/a	n/a	n/a	blue
63.3445	1.0167	ITI	n/a	n/a	n/a	n/a	n/a	n/a	n/a	n/a
64.3612	0.5167	FIXCROSS	n/a	n/a	n/a	n/a	n/a	n/a	n/a	n/a
64.8778	0.5167	INK	11	Incongruent	czerwony	red	zielony	green	hit	n/a
65.3722	n/a	RESPONSE	n/a	n/a	n/a	n/a	n/a	n/a	n/a	green
65.3946	1.0167	ITI	n/a	n/a	n/a	n/a	n/a	n/a	n/a	n/a
66.4112	0.5167	FIXCROSS	n/a	n/a	n/a	n/a	n/a	n/a	n/a	n/a
66.9279	0.8	INK	12	Incongruent	żółty	yellow	zielony	green	hit	n/a
67.7029	n/a	RESPONSE	n/a	n/a	n/a	n/a	n/a	n/a	n/a	green
67.7279	1.0166	ITI	n/a	n/a	n/a	n/a	n/a	n/a	n/a	n/a
68.7446	0.5167	FIXCROSS	n/a	n/a	n/a	n/a	n/a	n/a	n/a	n/a
69.2612	0.5667	INK	13	Incongruent	czerwony	red	żółty	yellow	hit	n/a
69.7942	n/a	RESPONSE	n/a	n/a	n/a	n/a	n/a	n/a	n/a	yellow
69.8279	1.0167	ITI	n/a	n/a	n/a	n/a	n/a	n/a	n/a	n/a
70.8446	0.5166	FIXCROSS	n/a	n/a	n/a	n/a	n/a	n/a	n/a	n/a
71.3612	0.5834	INK	14	Incongruent	niebieski	blue	żółty	yellow	hit	n/a
71.9175	n/a	RESPONSE	n/a	n/a	n/a	n/a	n/a	n/a	n/a	yellow
71.9446	1.0167	ITI	n/a	n/a	n/a	n/a	n/a	n/a	n/a	n/a
72.9613	0.5167	FIXCROSS	n/a	n/a	n/a	n/a	n/a	n/a	n/a	n/a
73.478	0.5167	INK	15	Neutral	xxxxx	xxxxx	czerwony	red	hit	n/a
73.9769	n/a	RESPONSE	n/a	n/a	n/a	n/a	n/a	n/a	n/a	red
73.9946	1.0167	ITI	n/a	n/a	n/a	n/a	n/a	n/a	n/a	n/a
75.0113	0.5166	FIXCROSS	n/a	n/a	n/a	n/a	n/a	n/a	n/a	n/a
75.5279	0.55	INK	16	Neutral	xxxxxxx	xxxxxxx	żółty	yellow	hit	n/a
76.0521	n/a	RESPONSE	n/a	n/a	n/a	n/a	n/a	n/a	n/a	yellow
76.0779	1.0167	ITI	n/a	n/a	n/a	n/a	n/a	n/a	n/a	n/a
77.0946	0.5167	FIXCROSS	n/a	n/a	n/a	n/a	n/a	n/a	n/a	n/a
77.6113	0.75	INK	17	Incongruent	żółty	yellow	niebieski	blue	hit	n/a
78.3351	n/a	RESPONSE	n/a	n/a	n/a	n/a	n/a	n/a	n/a	blue
78.3613	1.0167	ITI	n/a	n/a	n/a	n/a	n/a	n/a	n/a	n/a
79.378	0.5167	FIXCROSS	n/a	n/a	n/a	n/a	n/a	n/a	n/a	n/a
79.8947	0.7	INK	18	Incongruent	żółty	yellow	czerwony	red	incorrect	n/a
80.5699	n/a	RESPONSE	n/a	n/a	n/a	n/a	n/a	n/a	n/a	green
80.5947	1.0167	ITI	n/a	n/a	n/a	n/a	n/a	n/a	n/a	n/a
81.6114	0.5166	FIXCROSS	n/a	n/a	n/a	n/a	n/a	n/a	n/a	n/a
82.128	0.8667	INK	19	Incongruent	żółty	yellow	czerwony	red	hit	n/a
82.9644	n/a	RESPONSE	n/a	n/a	n/a	n/a	n/a	n/a	n/a	red
82.9947	1.0167	ITI	n/a	n/a	n/a	n/a	n/a	n/a	n/a	n/a
84.0113	0.5167	FIXCROSS	n/a	n/a	n/a	n/a	n/a	n/a	n/a	n/a
84.528	0.6334	INK	20	Incongruent	czerwony	red	żółty	yellow	hit	n/a
85.1355	n/a	RESPONSE	n/a	n/a	n/a	n/a	n/a	n/a	n/a	yellow
85.1614	1.0167	ITI	n/a	n/a	n/a	n/a	n/a	n/a	n/a	n/a
86.178	0.5167	FIXCROSS	n/a	n/a	n/a	n/a	n/a	n/a	n/a	n/a
86.6947	0.7	INK	21	Incongruent	czerwony	red	niebieski	blue	hit	n/a
87.3704	n/a	RESPONSE	n/a	n/a	n/a	n/a	n/a	n/a	n/a	blue
87.3947	1.0167	ITI	n/a	n/a	n/a	n/a	n/a	n/a	n/a	n/a
88.4114	0.5167	FIXCROSS	n/a	n/a	n/a	n/a	n/a	n/a	n/a	n/a
88.9281	0.7167	INK	22	Neutral	xxxxx	xxxxx	zielony	green	hit	n/a
89.6214	n/a	RESPONSE	n/a	n/a	n/a	n/a	n/a	n/a	n/a	green
89.6447	1.0167	ITI	n/a	n/a	n/a	n/a	n/a	n/a	n/a	n/a
90.6614	0.5167	FIXCROSS	n/a	n/a	n/a	n/a	n/a	n/a	n/a	n/a
91.1781	0.5333	INK	23	Incongruent	żółty	yellow	czerwony	red	hit	n/a
91.6808	n/a	RESPONSE	n/a	n/a	n/a	n/a	n/a	n/a	n/a	red
91.7114	1.0167	ITI	n/a	n/a	n/a	n/a	n/a	n/a	n/a	n/a
92.7281	0.5167	FIXCROSS	n/a	n/a	n/a	n/a	n/a	n/a	n/a	n/a
93.2448	0.7	INK	24	Neutral	xxxxxxxxx	xxxxxxxxx	zielony	green	hit	n/a
93.9156	n/a	RESPONSE	n/a	n/a	n/a	n/a	n/a	n/a	n/a	green
93.9448	1.0167	ITI	n/a	n/a	n/a	n/a	n/a	n/a	n/a	n/a
94.9615	0.5167	FIXCROSS	n/a	n/a	n/a	n/a	n/a	n/a	n/a	n/a
95.4781	0.65	INK	25	Incongruent	czerwony	red	niebieski	blue	hit	n/a
96.1028	n/a	RESPONSE	n/a	n/a	n/a	n/a	n/a	n/a	n/a	blue
96.1281	1.0167	ITI	n/a	n/a	n/a	n/a	n/a	n/a	n/a	n/a
97.1448	0.5166	FIXCROSS	n/a	n/a	n/a	n/a	n/a	n/a	n/a	n/a
97.6614	0.7	INK	26	Incongruent	zielony	green	czerwony	red	hit	n/a
98.3377	n/a	RESPONSE	n/a	n/a	n/a	n/a	n/a	n/a	n/a	red
98.3614	1.0167	ITI	n/a	n/a	n/a	n/a	n/a	n/a	n/a	n/a
99.3781	0.5167	FIXCROSS	n/a	n/a	n/a	n/a	n/a	n/a	n/a	n/a
99.8948	0.8333	INK	27	Neutral	xxxxxxxx	xxxxxxxx	zielony	green	hit	n/a
100.7003	n/a	RESPONSE	n/a	n/a	n/a	n/a	n/a	n/a	n/a	green
100.7282	1.0167	ITI	n/a	n/a	n/a	n/a	n/a	n/a	n/a	n/a
101.7448	0.5166	FIXCROSS	n/a	n/a	n/a	n/a	n/a	n/a	n/a	n/a
102.2615	0.65	INK	28	Incongruent	niebieski	blue	żółty	yellow	hit	n/a
102.8873	n/a	RESPONSE	n/a	n/a	n/a	n/a	n/a	n/a	n/a	yellow
102.9115	1.0167	ITI	n/a	n/a	n/a	n/a	n/a	n/a	n/a	n/a
103.9282	0.5167	FIXCROSS	n/a	n/a	n/a	n/a	n/a	n/a	n/a	n/a
104.4448	1.2167	INK	29	Incongruent	niebieski	blue	zielony	green	hit	n/a
105.6331	n/a	RESPONSE	n/a	n/a	n/a	n/a	n/a	n/a	n/a	green
105.6615	1.0167	ITI	n/a	n/a	n/a	n/a	n/a	n/a	n/a	n/a
106.6782	0.5167	FIXCROSS	n/a	n/a	n/a	n/a	n/a	n/a	n/a	n/a
107.1949	0.5	INK	30	Neutral	xxxxxxxx	xxxxxxxx	zielony	green	hit	n/a
107.6765	n/a	RESPONSE	n/a	n/a	n/a	n/a	n/a	n/a	n/a	green
107.6949	1.0167	ITI	n/a	n/a	n/a	n/a	n/a	n/a	n/a	n/a
108.7115	0.5167	FIXCROSS	n/a	n/a	n/a	n/a	n/a	n/a	n/a	n/a
109.2282	0.6	INK	31	Neutral	xxxxxxxxx	xxxxxxxxx	żółty	yellow	hit	n/a
109.7997	n/a	RESPONSE	n/a	n/a	n/a	n/a	n/a	n/a	n/a	yellow
109.8282	1.0167	ITI	n/a	n/a	n/a	n/a	n/a	n/a	n/a	n/a
110.8449	0.5166	FIXCROSS	n/a	n/a	n/a	n/a	n/a	n/a	n/a	n/a
111.3615	0.6834	INK	32	Neutral	xxxxxxxxx	xxxxxxxxx	zielony	green	hit	n/a
112.0187	n/a	RESPONSE	n/a	n/a	n/a	n/a	n/a	n/a	n/a	green
112.0449	1.0166	ITI	n/a	n/a	n/a	n/a	n/a	n/a	n/a	n/a
113.0615	0.5167	FIXCROSS	n/a	n/a	n/a	n/a	n/a	n/a	n/a	n/a
113.5782	0.55	INK	33	Incongruent	czerwony	red	zielony	green	hit	n/a
114.1099	n/a	RESPONSE	n/a	n/a	n/a	n/a	n/a	n/a	n/a	green
114.1283	1.0167	ITI	n/a	n/a	n/a	n/a	n/a	n/a	n/a	n/a
115.1449	0.5166	FIXCROSS	n/a	n/a	n/a	n/a	n/a	n/a	n/a	n/a
115.6616	0.65	INK	34	Neutral	xxxxxxx	xxxxxxx	żółty	yellow	hit	n/a
116.2809	n/a	RESPONSE	n/a	n/a	n/a	n/a	n/a	n/a	n/a	yellow
116.3116	1.0167	ITI	n/a	n/a	n/a	n/a	n/a	n/a	n/a	n/a
117.3283	0.5167	FIXCROSS	n/a	n/a	n/a	n/a	n/a	n/a	n/a	n/a
117.845	1.3333	INK	35	Incongruent	niebieski	blue	zielony	green	hit	n/a
119.1543	n/a	RESPONSE	n/a	n/a	n/a	n/a	n/a	n/a	n/a	green
119.1783	1.0166	ITI	n/a	n/a	n/a	n/a	n/a	n/a	n/a	n/a
120.1949	0.5167	FIXCROSS	n/a	n/a	n/a	n/a	n/a	n/a	n/a	n/a
120.7116	0.8	INK	36	Incongruent	niebieski	blue	czerwony	red	hit	n/a
121.4851	n/a	RESPONSE	n/a	n/a	n/a	n/a	n/a	n/a	n/a	red
121.5116	1.0167	ITI	n/a	n/a	n/a	n/a	n/a	n/a	n/a	n/a
122.5283	0.5166	FIXCROSS	n/a	n/a	n/a	n/a	n/a	n/a	n/a	n/a
123.045	0.6333	INK	37	Neutral	xxxxxxx	xxxxxxx	czerwony	red	hit	n/a
123.6562	n/a	RESPONSE	n/a	n/a	n/a	n/a	n/a	n/a	n/a	red
123.6783	1.0167	ITI	n/a	n/a	n/a	n/a	n/a	n/a	n/a	n/a
124.695	0.5166	FIXCROSS	n/a	n/a	n/a	n/a	n/a	n/a	n/a	n/a
125.2116	0.5	INK	38	Neutral	xxxxxxxxx	xxxxxxxxx	czerwony	red	hit	n/a
125.6835	n/a	RESPONSE	n/a	n/a	n/a	n/a	n/a	n/a	n/a	red
125.7116	1.0167	ITI	n/a	n/a	n/a	n/a	n/a	n/a	n/a	n/a
126.7283	0.5167	FIXCROSS	n/a	n/a	n/a	n/a	n/a	n/a	n/a	n/a
127.245	0.9	INK	39	Incongruent	żółty	yellow	niebieski	blue	hit	n/a
128.1099	n/a	RESPONSE	n/a	n/a	n/a	n/a	n/a	n/a	n/a	blue
128.145	1.0167	ITI	n/a	n/a	n/a	n/a	n/a	n/a	n/a	n/a
129.1617	0.5167	FIXCROSS	n/a	n/a	n/a	n/a	n/a	n/a	n/a	n/a
129.6784	0.6833	INK	40	Neutral	xxxxx	xxxxx	czerwony	red	hit	n/a
130.3291	n/a	RESPONSE	n/a	n/a	n/a	n/a	n/a	n/a	n/a	red
130.3617	1.0166	ITI	n/a	n/a	n/a	n/a	n/a	n/a	n/a	n/a
131.3783	0.5167	FIXCROSS	n/a	n/a	n/a	n/a	n/a	n/a	n/a	n/a
131.8951	0.7	INK	41	Neutral	xxxxxxxxx	xxxxxxxxx	zielony	green	hit	n/a
132.5639	n/a	RESPONSE	n/a	n/a	n/a	n/a	n/a	n/a	n/a	green
132.5951	1.0167	ITI	n/a	n/a	n/a	n/a	n/a	n/a	n/a	n/a
133.6117	0.5166	FIXCROSS	n/a	n/a	n/a	n/a	n/a	n/a	n/a	n/a
134.1284	0.7334	INK	42	Incongruent	zielony	green	żółty	yellow	hit	n/a
134.8308	n/a	RESPONSE	n/a	n/a	n/a	n/a	n/a	n/a	n/a	yellow
134.8617	1.0166	ITI	n/a	n/a	n/a	n/a	n/a	n/a	n/a	n/a
135.8784	0.5167	FIXCROSS	n/a	n/a	n/a	n/a	n/a	n/a	n/a	n/a
136.3951	1.0833	INK	43	Incongruent	niebieski	blue	czerwony	red	hit	n/a
137.4488	n/a	RESPONSE	n/a	n/a	n/a	n/a	n/a	n/a	n/a	red
137.4784	1.0166	ITI	n/a	n/a	n/a	n/a	n/a	n/a	n/a	n/a
138.4951	0.5167	FIXCROSS	n/a	n/a	n/a	n/a	n/a	n/a	n/a	n/a
139.0117	0.7834	INK	44	Neutral	xxxxxxx	xxxxxxx	niebieski	blue	hit	n/a
139.7636	n/a	RESPONSE	n/a	n/a	n/a	n/a	n/a	n/a	n/a	blue
139.7951	1.0167	ITI	n/a	n/a	n/a	n/a	n/a	n/a	n/a	n/a
140.8118	0.5166	FIXCROSS	n/a	n/a	n/a	n/a	n/a	n/a	n/a	n/a
141.3284	0.65	INK	45	Neutral	xxxxx	xxxxx	niebieski	blue	hit	n/a
141.9506	n/a	RESPONSE	n/a	n/a	n/a	n/a	n/a	n/a	n/a	blue
141.9785	1.0167	ITI	n/a	n/a	n/a	n/a	n/a	n/a	n/a	n/a
142.9951	0.5166	FIXCROSS	n/a	n/a	n/a	n/a	n/a	n/a	n/a	n/a
143.5118	0.6	INK	46	Incongruent	żółty	yellow	zielony	green	hit	n/a
144.0898	n/a	RESPONSE	n/a	n/a	n/a	n/a	n/a	n/a	n/a	green
144.1118	1.0166	ITI	n/a	n/a	n/a	n/a	n/a	n/a	n/a	n/a
145.1285	0.5167	FIXCROSS	n/a	n/a	n/a	n/a	n/a	n/a	n/a	n/a
145.6451	0.5833	INK	47	Neutral	xxxxxxxxx	xxxxxxxxx	żółty	yellow	hit	n/a
146.197	n/a	RESPONSE	n/a	n/a	n/a	n/a	n/a	n/a	n/a	yellow
146.2285	1.0167	ITI	n/a	n/a	n/a	n/a	n/a	n/a	n/a	n/a
147.2452	0.5167	FIXCROSS	n/a	n/a	n/a	n/a	n/a	n/a	n/a	n/a
147.7618	0.8	INK	48	Neutral	xxxxxxx	xxxxxxx	niebieski	blue	hit	n/a
148.5436	n/a	RESPONSE	n/a	n/a	n/a	n/a	n/a	n/a	n/a	blue
148.5618	1.0166	ITI	n/a	n/a	n/a	n/a	n/a	n/a	n/a	n/a
149.5785	0.5167	FIXCROSS	n/a	n/a	n/a	n/a	n/a	n/a	n/a	n/a
150.0952	0.5167	INK	49	Incongruent	żółty	yellow	niebieski	blue	hit	n/a
150.587	n/a	RESPONSE	n/a	n/a	n/a	n/a	n/a	n/a	n/a	blue
150.6119	1.0167	ITI	n/a	n/a	n/a	n/a	n/a	n/a	n/a	n/a
151.6285	0.5167	FIXCROSS	n/a	n/a	n/a	n/a	n/a	n/a	n/a	n/a
152.1452	0.6667	INK	50	Incongruent	czerwony	red	zielony	green	hit	n/a
152.7901	n/a	RESPONSE	n/a	n/a	n/a	n/a	n/a	n/a	n/a	green
152.8119	1.0166	ITI	n/a	n/a	n/a	n/a	n/a	n/a	n/a	n/a
153.8285	0.5167	FIXCROSS	n/a	n/a	n/a	n/a	n/a	n/a	n/a	n/a
154.3452	0.5667	INK	51	Neutral	xxxxxxxx	xxxxxxxx	zielony	green	hit	n/a
154.8813	n/a	RESPONSE	n/a	n/a	n/a	n/a	n/a	n/a	n/a	green
154.9119	1.0166	ITI	n/a	n/a	n/a	n/a	n/a	n/a	n/a	n/a
155.9285	0.5167	FIXCROSS	n/a	n/a	n/a	n/a	n/a	n/a	n/a	n/a
156.4452	0.7	INK	52	Incongruent	niebieski	blue	żółty	yellow	hit	n/a
157.1161	n/a	RESPONSE	n/a	n/a	n/a	n/a	n/a	n/a	n/a	yellow
157.1452	1.0166	ITI	n/a	n/a	n/a	n/a	n/a	n/a	n/a	n/a
158.1619	0.5167	FIXCROSS	n/a	n/a	n/a	n/a	n/a	n/a	n/a	n/a
158.6786	0.5333	INK	53	Neutral	xxxxx	xxxxx	zielony	green	hit	n/a
159.1915	n/a	RESPONSE	n/a	n/a	n/a	n/a	n/a	n/a	n/a	green
159.2119	1.0167	ITI	n/a	n/a	n/a	n/a	n/a	n/a	n/a	n/a
160.2286	0.5167	FIXCROSS	n/a	n/a	n/a	n/a	n/a	n/a	n/a	n/a
160.7453	1.3333	INK	54	Incongruent	czerwony	red	niebieski	blue	incorrect	n/a
162.049	n/a	RESPONSE	n/a	n/a	n/a	n/a	n/a	n/a	n/a	red
162.0786	1.0167	ITI	n/a	n/a	n/a	n/a	n/a	n/a	n/a	n/a
162.1447	n/a	RESPONSE	n/a	n/a	n/a	n/a	n/a	n/a	n/a	blue
162.2565	n/a	RESPONSE	n/a	n/a	n/a	n/a	n/a	n/a	n/a	blue
163.0953	0.5167	FIXCROSS	n/a	n/a	n/a	n/a	n/a	n/a	n/a	n/a
163.612	0.5	INK	55	Neutral	xxxxx	xxxxx	niebieski	blue	hit	n/a
164.0923	n/a	RESPONSE	n/a	n/a	n/a	n/a	n/a	n/a	n/a	blue
164.112	1.0167	ITI	n/a	n/a	n/a	n/a	n/a	n/a	n/a	n/a
165.1286	0.5167	FIXCROSS	n/a	n/a	n/a	n/a	n/a	n/a	n/a	n/a
165.6453	0.5	INK	56	Neutral	xxxxxxx	xxxxxxx	niebieski	blue	hit	n/a
166.1198	n/a	RESPONSE	n/a	n/a	n/a	n/a	n/a	n/a	n/a	blue
166.1453	1.0166	ITI	n/a	n/a	n/a	n/a	n/a	n/a	n/a	n/a
167.162	0.5167	FIXCROSS	n/a	n/a	n/a	n/a	n/a	n/a	n/a	n/a
167.6786	0.4834	INK	57	Neutral	xxxxxxxx	xxxxxxxx	niebieski	blue	hit	n/a
168.1311	n/a	RESPONSE	n/a	n/a	n/a	n/a	n/a	n/a	n/a	blue
168.162	1.0167	ITI	n/a	n/a	n/a	n/a	n/a	n/a	n/a	n/a
169.1786	0.5167	FIXCROSS	n/a	n/a	n/a	n/a	n/a	n/a	n/a	n/a
169.6953	0.9167	INK	58	Neutral	xxxxx	xxxxx	zielony	green	hit	n/a
170.5896	n/a	RESPONSE	n/a	n/a	n/a	n/a	n/a	n/a	n/a	green
170.612	1.0167	ITI	n/a	n/a	n/a	n/a	n/a	n/a	n/a	n/a
171.6287	0.5167	FIXCROSS	n/a	n/a	n/a	n/a	n/a	n/a	n/a	n/a
172.1454	0.7167	INK	59	Neutral	xxxxxxx	xxxxxxx	czerwony	red	hit	n/a
172.8404	n/a	RESPONSE	n/a	n/a	n/a	n/a	n/a	n/a	n/a	red
172.862	1.0167	ITI	n/a	n/a	n/a	n/a	n/a	n/a	n/a	n/a
173.8787	0.5167	FIXCROSS	n/a	n/a	n/a	n/a	n/a	n/a	n/a	n/a
174.3954	0.6167	INK	60	Neutral	xxxxxxxxx	xxxxxxxxx	żółty	yellow	hit	n/a
174.9797	n/a	RESPONSE	n/a	n/a	n/a	n/a	n/a	n/a	n/a	yellow
175.012	1.0167	ITI	n/a	n/a	n/a	n/a	n/a	n/a	n/a	n/a
176.0287	0.5167	FIXCROSS	n/a	n/a	n/a	n/a	n/a	n/a	n/a	n/a
176.5454	0.6667	INK	61	Incongruent	zielony	green	niebieski	blue	hit	n/a
177.1826	n/a	RESPONSE	n/a	n/a	n/a	n/a	n/a	n/a	n/a	blue
177.2121	1.0167	ITI	n/a	n/a	n/a	n/a	n/a	n/a	n/a	n/a
178.2287	0.5167	FIXCROSS	n/a	n/a	n/a	n/a	n/a	n/a	n/a	n/a
178.7454	0.6	INK	62	Neutral	xxxxxxxx	xxxxxxxx	żółty	yellow	hit	n/a
179.3219	n/a	RESPONSE	n/a	n/a	n/a	n/a	n/a	n/a	n/a	yellow
179.3454	1.0167	ITI	n/a	n/a	n/a	n/a	n/a	n/a	n/a	n/a
180.3621	0.5167	FIXCROSS	n/a	n/a	n/a	n/a	n/a	n/a	n/a	n/a
180.8787	0.4667	INK	63	Neutral	xxxxxxxx	xxxxxxxx	niebieski	blue	hit	n/a
181.3172	n/a	RESPONSE	n/a	n/a	n/a	n/a	n/a	n/a	n/a	blue
181.3454	1.0167	ITI	n/a	n/a	n/a	n/a	n/a	n/a	n/a	n/a
182.3621	0.5167	FIXCROSS	n/a	n/a	n/a	n/a	n/a	n/a	n/a	n/a
182.8788	0.6	INK	64	Incongruent	zielony	green	żółty	yellow	hit	n/a
183.4564	n/a	RESPONSE	n/a	n/a	n/a	n/a	n/a	n/a	n/a	yellow
183.4788	1.0167	ITI	n/a	n/a	n/a	n/a	n/a	n/a	n/a	n/a
184.4955	0.5166	FIXCROSS	n/a	n/a	n/a	n/a	n/a	n/a	n/a	n/a
185.0121	0.5833	INK	65	Neutral	xxxxxxx	xxxxxxx	czerwony	red	hit	n/a
185.5636	n/a	RESPONSE	n/a	n/a	n/a	n/a	n/a	n/a	n/a	red
185.5954	1.0167	ITI	n/a	n/a	n/a	n/a	n/a	n/a	n/a	n/a
186.6121	0.5167	FIXCROSS	n/a	n/a	n/a	n/a	n/a	n/a	n/a	n/a
187.1288	0.5667	INK	66	Incongruent	zielony	green	niebieski	blue	hit	n/a
187.6709	n/a	RESPONSE	n/a	n/a	n/a	n/a	n/a	n/a	n/a	blue
187.6955	1.0167	ITI	n/a	n/a	n/a	n/a	n/a	n/a	n/a	n/a
188.7122	0.5166	FIXCROSS	n/a	n/a	n/a	n/a	n/a	n/a	n/a	n/a
189.2288	0.9167	INK	67	Incongruent	niebieski	blue	zielony	green	hit	n/a
190.1132	n/a	RESPONSE	n/a	n/a	n/a	n/a	n/a	n/a	n/a	green
190.1455	1.0167	ITI	n/a	n/a	n/a	n/a	n/a	n/a	n/a	n/a
191.1622	0.5167	FIXCROSS	n/a	n/a	n/a	n/a	n/a	n/a	n/a	n/a
191.6788	0.6833	INK	68	Incongruent	niebieski	blue	czerwony	red	hit	n/a
192.3322	n/a	RESPONSE	n/a	n/a	n/a	n/a	n/a	n/a	n/a	red
192.3622	1.0167	ITI	n/a	n/a	n/a	n/a	n/a	n/a	n/a	n/a
193.3788	0.5167	FIXCROSS	n/a	n/a	n/a	n/a	n/a	n/a	n/a	n/a
193.8955	0.7	INK	69	Incongruent	żółty	yellow	zielony	green	incorrect	n/a
194.5672	n/a	RESPONSE	n/a	n/a	n/a	n/a	n/a	n/a	n/a	yellow
194.5955	1.0167	ITI	n/a	n/a	n/a	n/a	n/a	n/a	n/a	n/a
195.6122	0.5167	FIXCROSS	n/a	n/a	n/a	n/a	n/a	n/a	n/a	n/a
196.1289	0.7666	INK	70	Incongruent	zielony	green	czerwony	red	hit	n/a
196.8659	n/a	RESPONSE	n/a	n/a	n/a	n/a	n/a	n/a	n/a	red
196.8955	1.0167	ITI	n/a	n/a	n/a	n/a	n/a	n/a	n/a	n/a
197.9122	0.5166	FIXCROSS	n/a	n/a	n/a	n/a	n/a	n/a	n/a	n/a
198.4288	0.7167	INK	71	Neutral	xxxxxxxxx	xxxxxxxxx	czerwony	red	hit	n/a
199.1169	n/a	RESPONSE	n/a	n/a	n/a	n/a	n/a	n/a	n/a	red
199.1455	1.0167	ITI	n/a	n/a	n/a	n/a	n/a	n/a	n/a	n/a
200.1622	0.5167	FIXCROSS	n/a	n/a	n/a	n/a	n/a	n/a	n/a	n/a
200.6789	0.4833	INK	72	Incongruent	zielony	green	czerwony	red	hit	n/a
201.1283	n/a	RESPONSE	n/a	n/a	n/a	n/a	n/a	n/a	n/a	red
201.1622	1.1	ITI	n/a	n/a	n/a	n/a	n/a	n/a	n/a	n/a
216.3896	n/a	RESPONSE	n/a	n/a	n/a	n/a	n/a	n/a	n/a	n/a
216.4457	1.0167	ITI	n/a	n/a	n/a	n/a	n/a	n/a	n/a	n/a
217.4624	0.5167	FIXCROSS	n/a	n/a	n/a	n/a	n/a	n/a	n/a	n/a
217.979	0.8	T_COLOR_NAME	1	Incongruent	czerwony	red	niebieski	blue	hit	n/a
218.7523	n/a	RESPONSE	n/a	n/a	n/a	n/a	n/a	n/a	n/a	red
218.779	0.5167	FEEDBACK	n/a	n/a	n/a	n/a	n/a	n/a	n/a	n/a
219.2957	1.0167	ITI	n/a	n/a	n/a	n/a	n/a	n/a	n/a	n/a
220.3124	0.5167	FIXCROSS	n/a	n/a	n/a	n/a	n/a	n/a	n/a	n/a
220.8291	0.55	T_COLOR_NAME	2	Neutral	czerwony	red	Neutral	Neutral	hit	n/a
221.3544	n/a	RESPONSE	n/a	n/a	n/a	n/a	n/a	n/a	n/a	red
221.3791	0.5167	FEEDBACK	n/a	n/a	n/a	n/a	n/a	n/a	n/a	n/a
221.8957	1.0166	ITI	n/a	n/a	n/a	n/a	n/a	n/a	n/a	n/a
222.9124	0.5167	FIXCROSS	n/a	n/a	n/a	n/a	n/a	n/a	n/a	n/a
223.4291	0.85	T_COLOR_NAME	3	Neutral	zielony	green	Neutral	Neutral	hit	n/a
224.2438	n/a	RESPONSE	n/a	n/a	n/a	n/a	n/a	n/a	n/a	green
224.2791	0.5167	FEEDBACK	n/a	n/a	n/a	n/a	n/a	n/a	n/a	n/a
224.7957	1.0166	ITI	n/a	n/a	n/a	n/a	n/a	n/a	n/a	n/a
225.8124	0.5167	FIXCROSS	n/a	n/a	n/a	n/a	n/a	n/a	n/a	n/a
226.3291	0.6167	T_COLOR_NAME	4	Incongruent	czerwony	red	zielony	green	hit	n/a
226.9257	n/a	RESPONSE	n/a	n/a	n/a	n/a	n/a	n/a	n/a	red
226.9458	0.5167	FEEDBACK	n/a	n/a	n/a	n/a	n/a	n/a	n/a	n/a
227.4624	1.0167	ITI	n/a	n/a	n/a	n/a	n/a	n/a	n/a	n/a
228.4791	0.5167	FIXCROSS	n/a	n/a	n/a	n/a	n/a	n/a	n/a	n/a
228.9958	0.8667	T_COLOR_NAME	5	Incongruent	zielony	green	czerwony	red	hit	n/a
229.8311	n/a	RESPONSE	n/a	n/a	n/a	n/a	n/a	n/a	n/a	green
229.8625	0.5167	FEEDBACK	n/a	n/a	n/a	n/a	n/a	n/a	n/a	n/a
230.3791	1.0167	ITI	n/a	n/a	n/a	n/a	n/a	n/a	n/a	n/a
231.3958	0.5167	FIXCROSS	n/a	n/a	n/a	n/a	n/a	n/a	n/a	n/a
231.9125	0.7	T_COLOR_NAME	6	Incongruent	niebieski	blue	żółty	yellow	hit	n/a
232.5927	n/a	RESPONSE	n/a	n/a	n/a	n/a	n/a	n/a	n/a	blue
232.6125	0.5167	FEEDBACK	n/a	n/a	n/a	n/a	n/a	n/a	n/a	n/a
233.1291	1.0166	ITI	n/a	n/a	n/a	n/a	n/a	n/a	n/a	n/a
234.1458	0.5167	FIXCROSS	n/a	n/a	n/a	n/a	n/a	n/a	n/a	n/a
234.6625	0.65	T_COLOR_NAME	7	Incongruent	żółty	yellow	niebieski	blue	hit	n/a
235.2909	n/a	RESPONSE	n/a	n/a	n/a	n/a	n/a	n/a	n/a	yellow
235.3125	0.5167	FEEDBACK	n/a	n/a	n/a	n/a	n/a	n/a	n/a	n/a
235.8292	1.0167	ITI	n/a	n/a	n/a	n/a	n/a	n/a	n/a	n/a
236.8458	0.5166	FIXCROSS	n/a	n/a	n/a	n/a	n/a	n/a	n/a	n/a
237.3625	0.6167	T_COLOR_NAME	8	Neutral	czerwony	red	Neutral	Neutral	hit	n/a
237.9568	n/a	RESPONSE	n/a	n/a	n/a	n/a	n/a	n/a	n/a	red
237.9792	0.5167	FEEDBACK	n/a	n/a	n/a	n/a	n/a	n/a	n/a	n/a
238.4959	1.0167	ITI	n/a	n/a	n/a	n/a	n/a	n/a	n/a	n/a
239.5125	0.5166	FIXCROSS	n/a	n/a	n/a	n/a	n/a	n/a	n/a	n/a
240.0292	0.8167	T_COLOR_NAME	9	Incongruent	niebieski	blue	zielony	green	hit	n/a
240.8144	n/a	RESPONSE	n/a	n/a	n/a	n/a	n/a	n/a	n/a	blue
240.8459	0.5167	FEEDBACK	n/a	n/a	n/a	n/a	n/a	n/a	n/a	n/a
241.3625	1.0167	ITI	n/a	n/a	n/a	n/a	n/a	n/a	n/a	n/a
242.3792	0.5167	FIXCROSS	n/a	n/a	n/a	n/a	n/a	n/a	n/a	n/a
242.8959	0.7167	T_COLOR_NAME	10	Neutral	czerwony	red	Neutral	Neutral	hit	n/a
243.5921	n/a	RESPONSE	n/a	n/a	n/a	n/a	n/a	n/a	n/a	red
243.6126	0.5167	FEEDBACK	n/a	n/a	n/a	n/a	n/a	n/a	n/a	n/a
244.1292	1.0167	ITI	n/a	n/a	n/a	n/a	n/a	n/a	n/a	n/a
245.1459	0.5167	FIXCROSS	n/a	n/a	n/a	n/a	n/a	n/a	n/a	n/a
245.6626	0.8	T_COLOR_NAME	11	Incongruent	niebieski	blue	czerwony	red	hit	n/a
246.4335	n/a	RESPONSE	n/a	n/a	n/a	n/a	n/a	n/a	n/a	blue
246.4626	0.5167	FEEDBACK	n/a	n/a	n/a	n/a	n/a	n/a	n/a	n/a
246.9792	1.0167	ITI	n/a	n/a	n/a	n/a	n/a	n/a	n/a	n/a
247.9959	0.5167	FIXCROSS	n/a	n/a	n/a	n/a	n/a	n/a	n/a	n/a
248.5126	1.3333	T_COLOR_NAME	12	Incongruent	zielony	green	żółty	yellow	hit	n/a
249.818	n/a	RESPONSE	n/a	n/a	n/a	n/a	n/a	n/a	n/a	green
249.8459	0.5166	FEEDBACK	n/a	n/a	n/a	n/a	n/a	n/a	n/a	n/a
250.3626	1.0333	ITI	n/a	n/a	n/a	n/a	n/a	n/a	n/a	n/a
255.4851	n/a	RESPONSE	n/a	n/a	n/a	n/a	n/a	n/a	n/a	n/a
255.5459	1.0167	ITI	n/a	n/a	n/a	n/a	n/a	n/a	n/a	n/a
256.5627	0.5167	FIXCROSS	n/a	n/a	n/a	n/a	n/a	n/a	n/a	n/a
257.0793	0.7833	COLOR_NAME	1	Neutral	żółty	yellow	Neutral	Neutral	hit	n/a
257.8318	n/a	RESPONSE	n/a	n/a	n/a	n/a	n/a	n/a	n/a	yellow
257.8627	1.0167	ITI	n/a	n/a	n/a	n/a	n/a	n/a	n/a	n/a
258.8793	0.5167	FIXCROSS	n/a	n/a	n/a	n/a	n/a	n/a	n/a	n/a
259.396	0.65	COLOR_NAME	2	Incongruent	żółty	yellow	czerwony	red	hit	n/a
260.0189	n/a	RESPONSE	n/a	n/a	n/a	n/a	n/a	n/a	n/a	yellow
260.046	1.0167	ITI	n/a	n/a	n/a	n/a	n/a	n/a	n/a	n/a
261.0627	0.5167	FIXCROSS	n/a	n/a	n/a	n/a	n/a	n/a	n/a	n/a
261.5794	0.4833	COLOR_NAME	3	Neutral	żółty	yellow	Neutral	Neutral	hit	n/a
262.0303	n/a	RESPONSE	n/a	n/a	n/a	n/a	n/a	n/a	n/a	yellow
262.0627	1.0167	ITI	n/a	n/a	n/a	n/a	n/a	n/a	n/a	n/a
263.0793	0.5167	FIXCROSS	n/a	n/a	n/a	n/a	n/a	n/a	n/a	n/a
263.596	0.5666	COLOR_NAME	4	Incongruent	niebieski	blue	zielony	green	hit	n/a
264.1375	n/a	RESPONSE	n/a	n/a	n/a	n/a	n/a	n/a	n/a	blue
264.1627	1.0167	ITI	n/a	n/a	n/a	n/a	n/a	n/a	n/a	n/a
265.1793	0.5167	FIXCROSS	n/a	n/a	n/a	n/a	n/a	n/a	n/a	n/a
265.696	0.8167	COLOR_NAME	5	Incongruent	zielony	green	niebieski	blue	incorrect	n/a
266.4841	n/a	RESPONSE	n/a	n/a	n/a	n/a	n/a	n/a	n/a	red
266.5127	1.0167	ITI	n/a	n/a	n/a	n/a	n/a	n/a	n/a	n/a
267.5294	0.5167	FIXCROSS	n/a	n/a	n/a	n/a	n/a	n/a	n/a	n/a
268.0461	1.0167	COLOR_NAME	6	Incongruent	żółty	yellow	czerwony	red	hit	n/a
269.0383	n/a	RESPONSE	n/a	n/a	n/a	n/a	n/a	n/a	n/a	yellow
269.0627	1.0167	ITI	n/a	n/a	n/a	n/a	n/a	n/a	n/a	n/a
270.0794	0.5167	FIXCROSS	n/a	n/a	n/a	n/a	n/a	n/a	n/a	n/a
270.5961	0.6667	COLOR_NAME	7	Incongruent	niebieski	blue	zielony	green	hit	n/a
271.2412	n/a	RESPONSE	n/a	n/a	n/a	n/a	n/a	n/a	n/a	blue
271.2628	1.0167	ITI	n/a	n/a	n/a	n/a	n/a	n/a	n/a	n/a
272.2794	0.5167	FIXCROSS	n/a	n/a	n/a	n/a	n/a	n/a	n/a	n/a
272.7961	0.9	COLOR_NAME	8	Incongruent	żółty	yellow	niebieski	blue	hit	n/a
273.6678	n/a	RESPONSE	n/a	n/a	n/a	n/a	n/a	n/a	n/a	yellow
273.6961	1.0167	ITI	n/a	n/a	n/a	n/a	n/a	n/a	n/a	n/a
274.7128	0.5167	FIXCROSS	n/a	n/a	n/a	n/a	n/a	n/a	n/a	n/a
275.2295	1.0667	COLOR_NAME	9	Neutral	zielony	green	Neutral	Neutral	hit	n/a
276.2698	n/a	RESPONSE	n/a	n/a	n/a	n/a	n/a	n/a	n/a	green
276.2961	1.0166	ITI	n/a	n/a	n/a	n/a	n/a	n/a	n/a	n/a
277.3128	0.5167	FIXCROSS	n/a	n/a	n/a	n/a	n/a	n/a	n/a	n/a
277.8295	0.8667	COLOR_NAME	10	Incongruent	niebieski	blue	czerwony	red	hit	n/a
278.6644	n/a	RESPONSE	n/a	n/a	n/a	n/a	n/a	n/a	n/a	blue
278.6962	1.0167	ITI	n/a	n/a	n/a	n/a	n/a	n/a	n/a	n/a
279.7128	0.5166	FIXCROSS	n/a	n/a	n/a	n/a	n/a	n/a	n/a	n/a
280.2295	1.0667	COLOR_NAME	11	Incongruent	zielony	green	niebieski	blue	hit	n/a
281.2665	n/a	RESPONSE	n/a	n/a	n/a	n/a	n/a	n/a	n/a	green
281.2962	1.0166	ITI	n/a	n/a	n/a	n/a	n/a	n/a	n/a	n/a
282.3128	0.5167	FIXCROSS	n/a	n/a	n/a	n/a	n/a	n/a	n/a	n/a
282.8295	0.7167	COLOR_NAME	12	Incongruent	żółty	yellow	niebieski	blue	hit	n/a
283.5175	n/a	RESPONSE	n/a	n/a	n/a	n/a	n/a	n/a	n/a	yellow
283.5462	1.0167	ITI	n/a	n/a	n/a	n/a	n/a	n/a	n/a	n/a
284.5629	0.5166	FIXCROSS	n/a	n/a	n/a	n/a	n/a	n/a	n/a	n/a
285.0795	0.8	COLOR_NAME	13	Neutral	zielony	green	Neutral	Neutral	hit	n/a
285.8482	n/a	RESPONSE	n/a	n/a	n/a	n/a	n/a	n/a	n/a	green
285.8795	1.0166	ITI	n/a	n/a	n/a	n/a	n/a	n/a	n/a	n/a
286.8962	0.5167	FIXCROSS	n/a	n/a	n/a	n/a	n/a	n/a	n/a	n/a
287.4129	0.7833	COLOR_NAME	14	Incongruent	czerwony	red	niebieski	blue	hit	n/a
288.1629	n/a	RESPONSE	n/a	n/a	n/a	n/a	n/a	n/a	n/a	red
288.1962	1.0167	ITI	n/a	n/a	n/a	n/a	n/a	n/a	n/a	n/a
289.2129	0.5167	FIXCROSS	n/a	n/a	n/a	n/a	n/a	n/a	n/a	n/a
289.7296	0.7333	COLOR_NAME	15	Neutral	żółty	yellow	Neutral	Neutral	hit	n/a
290.4298	n/a	RESPONSE	n/a	n/a	n/a	n/a	n/a	n/a	n/a	yellow
290.4629	1.0167	ITI	n/a	n/a	n/a	n/a	n/a	n/a	n/a	n/a
291.4796	0.5167	FIXCROSS	n/a	n/a	n/a	n/a	n/a	n/a	n/a	n/a
291.9963	0.6	COLOR_NAME	16	Incongruent	żółty	yellow	niebieski	blue	hit	n/a
292.5689	n/a	RESPONSE	n/a	n/a	n/a	n/a	n/a	n/a	n/a	yellow
292.5963	1.0167	ITI	n/a	n/a	n/a	n/a	n/a	n/a	n/a	n/a
293.6129	0.5167	FIXCROSS	n/a	n/a	n/a	n/a	n/a	n/a	n/a	n/a
294.1296	0.8667	COLOR_NAME	17	Incongruent	niebieski	blue	czerwony	red	hit	n/a
294.9635	n/a	RESPONSE	n/a	n/a	n/a	n/a	n/a	n/a	n/a	blue
294.9963	1.0167	ITI	n/a	n/a	n/a	n/a	n/a	n/a	n/a	n/a
296.013	0.5167	FIXCROSS	n/a	n/a	n/a	n/a	n/a	n/a	n/a	n/a
296.5296	0.5333	COLOR_NAME	18	Incongruent	żółty	yellow	zielony	green	hit	n/a
297.0387	n/a	RESPONSE	n/a	n/a	n/a	n/a	n/a	n/a	n/a	yellow
297.063	1.0166	ITI	n/a	n/a	n/a	n/a	n/a	n/a	n/a	n/a
298.0796	0.5167	FIXCROSS	n/a	n/a	n/a	n/a	n/a	n/a	n/a	n/a
298.5963	0.7166	COLOR_NAME	19	Neutral	niebieski	blue	Neutral	Neutral	hit	n/a
299.2896	n/a	RESPONSE	n/a	n/a	n/a	n/a	n/a	n/a	n/a	blue
299.3129	1.0167	ITI	n/a	n/a	n/a	n/a	n/a	n/a	n/a	n/a
300.3296	0.5166	FIXCROSS	n/a	n/a	n/a	n/a	n/a	n/a	n/a	n/a
300.8463	1.1167	COLOR_NAME	20	Incongruent	zielony	green	żółty	yellow	hit	n/a
301.9396	n/a	RESPONSE	n/a	n/a	n/a	n/a	n/a	n/a	n/a	green
301.963	1.0167	ITI	n/a	n/a	n/a	n/a	n/a	n/a	n/a	n/a
302.9797	0.5167	FIXCROSS	n/a	n/a	n/a	n/a	n/a	n/a	n/a	n/a
303.4963	0.8	COLOR_NAME	21	Incongruent	czerwony	red	żółty	yellow	hit	n/a
304.2704	n/a	RESPONSE	n/a	n/a	n/a	n/a	n/a	n/a	n/a	red
304.2963	1.0167	ITI	n/a	n/a	n/a	n/a	n/a	n/a	n/a	n/a
305.313	0.5167	FIXCROSS	n/a	n/a	n/a	n/a	n/a	n/a	n/a	n/a
305.8297	0.5667	COLOR_NAME	22	Neutral	żółty	yellow	Neutral	Neutral	hit	n/a
306.3775	n/a	RESPONSE	n/a	n/a	n/a	n/a	n/a	n/a	n/a	yellow
306.3964	1.0167	ITI	n/a	n/a	n/a	n/a	n/a	n/a	n/a	n/a
307.413	0.5167	FIXCROSS	n/a	n/a	n/a	n/a	n/a	n/a	n/a	n/a
307.9297	1.4333	COLOR_NAME	23	Incongruent	czerwony	red	żółty	yellow	hit	n/a
309.3308	n/a	RESPONSE	n/a	n/a	n/a	n/a	n/a	n/a	n/a	red
309.363	1.0167	ITI	n/a	n/a	n/a	n/a	n/a	n/a	n/a	n/a
310.3797	0.5167	FIXCROSS	n/a	n/a	n/a	n/a	n/a	n/a	n/a	n/a
310.8964	0.6333	COLOR_NAME	24	Incongruent	czerwony	red	niebieski	blue	hit	n/a
311.5019	n/a	RESPONSE	n/a	n/a	n/a	n/a	n/a	n/a	n/a	red
311.5297	1.0167	ITI	n/a	n/a	n/a	n/a	n/a	n/a	n/a	n/a
312.5464	0.5166	FIXCROSS	n/a	n/a	n/a	n/a	n/a	n/a	n/a	n/a
313.063	0.5	COLOR_NAME	25	Incongruent	czerwony	red	zielony	green	hit	n/a
313.5292	n/a	RESPONSE	n/a	n/a	n/a	n/a	n/a	n/a	n/a	red
313.563	1.0167	ITI	n/a	n/a	n/a	n/a	n/a	n/a	n/a	n/a
314.5797	0.5167	FIXCROSS	n/a	n/a	n/a	n/a	n/a	n/a	n/a	n/a
315.0964	0.6833	COLOR_NAME	26	Neutral	niebieski	blue	Neutral	Neutral	hit	n/a
315.7482	n/a	RESPONSE	n/a	n/a	n/a	n/a	n/a	n/a	n/a	blue
315.7797	1.0167	ITI	n/a	n/a	n/a	n/a	n/a	n/a	n/a	n/a
316.7964	0.5166	FIXCROSS	n/a	n/a	n/a	n/a	n/a	n/a	n/a	n/a
317.3131	0.7167	COLOR_NAME	27	Neutral	żółty	yellow	Neutral	Neutral	hit	n/a
317.9992	n/a	RESPONSE	n/a	n/a	n/a	n/a	n/a	n/a	n/a	yellow
318.0298	1.0167	ITI	n/a	n/a	n/a	n/a	n/a	n/a	n/a	n/a
319.0465	0.5167	FIXCROSS	n/a	n/a	n/a	n/a	n/a	n/a	n/a	n/a
319.5631	1.2	COLOR_NAME	28	Incongruent	czerwony	red	niebieski	blue	hit	n/a
320.7289	n/a	RESPONSE	n/a	n/a	n/a	n/a	n/a	n/a	n/a	red
320.7631	1.0167	ITI	n/a	n/a	n/a	n/a	n/a	n/a	n/a	n/a
321.7798	0.5167	FIXCROSS	n/a	n/a	n/a	n/a	n/a	n/a	n/a	n/a
322.2965	0.65	COLOR_NAME	29	Neutral	czerwony	red	Neutral	Neutral	hit	n/a
322.9159	n/a	RESPONSE	n/a	n/a	n/a	n/a	n/a	n/a	n/a	red
322.9465	1.0167	ITI	n/a	n/a	n/a	n/a	n/a	n/a	n/a	n/a
323.9632	0.5167	FIXCROSS	n/a	n/a	n/a	n/a	n/a	n/a	n/a	n/a
324.4798	0.8667	COLOR_NAME	30	Neutral	niebieski	blue	Neutral	Neutral	hit	n/a
325.3265	n/a	RESPONSE	n/a	n/a	n/a	n/a	n/a	n/a	n/a	blue
325.3465	1.0167	ITI	n/a	n/a	n/a	n/a	n/a	n/a	n/a	n/a
326.3632	0.5167	FIXCROSS	n/a	n/a	n/a	n/a	n/a	n/a	n/a	n/a
326.8798	1.0667	COLOR_NAME	31	Incongruent	niebieski	blue	czerwony	red	hit	n/a
327.9286	n/a	RESPONSE	n/a	n/a	n/a	n/a	n/a	n/a	n/a	blue
327.9465	1.0167	ITI	n/a	n/a	n/a	n/a	n/a	n/a	n/a	n/a
328.9632	0.5167	FIXCROSS	n/a	n/a	n/a	n/a	n/a	n/a	n/a	n/a
329.4799	0.8	COLOR_NAME	32	Neutral	czerwony	red	Neutral	Neutral	hit	n/a
330.2593	n/a	RESPONSE	n/a	n/a	n/a	n/a	n/a	n/a	n/a	red
330.2799	1.0167	ITI	n/a	n/a	n/a	n/a	n/a	n/a	n/a	n/a
331.2965	0.5167	FIXCROSS	n/a	n/a	n/a	n/a	n/a	n/a	n/a	n/a
331.8132	0.6166	COLOR_NAME	33	Neutral	czerwony	red	Neutral	Neutral	hit	n/a
332.3984	n/a	RESPONSE	n/a	n/a	n/a	n/a	n/a	n/a	n/a	red
332.4299	1.0167	ITI	n/a	n/a	n/a	n/a	n/a	n/a	n/a	n/a
333.4465	0.5167	FIXCROSS	n/a	n/a	n/a	n/a	n/a	n/a	n/a	n/a
333.9632	0.6834	COLOR_NAME	34	Neutral	niebieski	blue	Neutral	Neutral	hit	n/a
334.6174	n/a	RESPONSE	n/a	n/a	n/a	n/a	n/a	n/a	n/a	blue
334.6466	1.0167	ITI	n/a	n/a	n/a	n/a	n/a	n/a	n/a	n/a
335.6632	0.5167	FIXCROSS	n/a	n/a	n/a	n/a	n/a	n/a	n/a	n/a
336.1799	0.6833	COLOR_NAME	35	Incongruent	niebieski	blue	zielony	green	hit	n/a
336.8364	n/a	RESPONSE	n/a	n/a	n/a	n/a	n/a	n/a	n/a	blue
336.8633	1.0167	ITI	n/a	n/a	n/a	n/a	n/a	n/a	n/a	n/a
337.8799	0.5166	FIXCROSS	n/a	n/a	n/a	n/a	n/a	n/a	n/a	n/a
338.3966	1.2834	COLOR_NAME	36	Incongruent	zielony	green	niebieski	blue	hit	n/a
339.646	n/a	RESPONSE	n/a	n/a	n/a	n/a	n/a	n/a	n/a	green
339.6799	1.0167	ITI	n/a	n/a	n/a	n/a	n/a	n/a	n/a	n/a
340.6966	0.5167	FIXCROSS	n/a	n/a	n/a	n/a	n/a	n/a	n/a	n/a
341.2133	0.9833	COLOR_NAME	37	Incongruent	zielony	green	żółty	yellow	hit	n/a
342.1681	n/a	RESPONSE	n/a	n/a	n/a	n/a	n/a	n/a	n/a	green
342.1966	1.0166	ITI	n/a	n/a	n/a	n/a	n/a	n/a	n/a	n/a
343.2133	0.5167	FIXCROSS	n/a	n/a	n/a	n/a	n/a	n/a	n/a	n/a
343.73	0.75	COLOR_NAME	38	Incongruent	czerwony	red	zielony	green	hit	n/a
344.451	n/a	RESPONSE	n/a	n/a	n/a	n/a	n/a	n/a	n/a	red
344.48	1.0167	ITI	n/a	n/a	n/a	n/a	n/a	n/a	n/a	n/a
345.4967	0.5167	FIXCROSS	n/a	n/a	n/a	n/a	n/a	n/a	n/a	n/a
346.0133	0.65	COLOR_NAME	39	Neutral	żółty	yellow	Neutral	Neutral	hit	n/a
346.6381	n/a	RESPONSE	n/a	n/a	n/a	n/a	n/a	n/a	n/a	yellow
346.6633	1.0167	ITI	n/a	n/a	n/a	n/a	n/a	n/a	n/a	n/a
347.68	0.5166	FIXCROSS	n/a	n/a	n/a	n/a	n/a	n/a	n/a	n/a
348.1966	0.7834	COLOR_NAME	40	Neutral	zielony	green	Neutral	Neutral	hit	n/a
348.9529	n/a	RESPONSE	n/a	n/a	n/a	n/a	n/a	n/a	n/a	green
348.98	1.0166	ITI	n/a	n/a	n/a	n/a	n/a	n/a	n/a	n/a
349.9966	0.5167	FIXCROSS	n/a	n/a	n/a	n/a	n/a	n/a	n/a	n/a
350.5133	0.7667	COLOR_NAME	41	Neutral	czerwony	red	Neutral	Neutral	hit	n/a
351.2516	n/a	RESPONSE	n/a	n/a	n/a	n/a	n/a	n/a	n/a	red
351.28	1.0167	ITI	n/a	n/a	n/a	n/a	n/a	n/a	n/a	n/a
352.2967	0.5167	FIXCROSS	n/a	n/a	n/a	n/a	n/a	n/a	n/a	n/a
352.8134	0.5833	COLOR_NAME	42	Neutral	żółty	yellow	Neutral	Neutral	hit	n/a
353.3748	n/a	RESPONSE	n/a	n/a	n/a	n/a	n/a	n/a	n/a	yellow
353.3967	1.0167	ITI	n/a	n/a	n/a	n/a	n/a	n/a	n/a	n/a
354.4134	0.5167	FIXCROSS	n/a	n/a	n/a	n/a	n/a	n/a	n/a	n/a
354.9301	0.8167	COLOR_NAME	43	Incongruent	zielony	green	żółty	yellow	hit	n/a
355.7214	n/a	RESPONSE	n/a	n/a	n/a	n/a	n/a	n/a	n/a	green
355.7467	1.0166	ITI	n/a	n/a	n/a	n/a	n/a	n/a	n/a	n/a
356.7634	0.5167	FIXCROSS	n/a	n/a	n/a	n/a	n/a	n/a	n/a	n/a
357.2801	0.6833	COLOR_NAME	44	Neutral	czerwony	red	Neutral	Neutral	hit	n/a
357.9404	n/a	RESPONSE	n/a	n/a	n/a	n/a	n/a	n/a	n/a	red
357.9634	1.0167	ITI	n/a	n/a	n/a	n/a	n/a	n/a	n/a	n/a
358.9801	0.5167	FIXCROSS	n/a	n/a	n/a	n/a	n/a	n/a	n/a	n/a
359.4968	0.7833	COLOR_NAME	45	Neutral	zielony	green	Neutral	Neutral	hit	n/a
360.2551	n/a	RESPONSE	n/a	n/a	n/a	n/a	n/a	n/a	n/a	green
360.2801	1.0167	ITI	n/a	n/a	n/a	n/a	n/a	n/a	n/a	n/a
361.2967	0.5167	FIXCROSS	n/a	n/a	n/a	n/a	n/a	n/a	n/a	n/a
361.8134	0.95	COLOR_NAME	46	Incongruent	zielony	green	czerwony	red	incorrect	n/a
362.7295	n/a	RESPONSE	n/a	n/a	n/a	n/a	n/a	n/a	n/a	red
362.7634	1.0167	ITI	n/a	n/a	n/a	n/a	n/a	n/a	n/a	n/a
363.7801	0.5167	FIXCROSS	n/a	n/a	n/a	n/a	n/a	n/a	n/a	n/a
364.2968	0.65	COLOR_NAME	47	Neutral	zielony	green	Neutral	Neutral	hit	n/a
364.9167	n/a	RESPONSE	n/a	n/a	n/a	n/a	n/a	n/a	n/a	green
364.9468	1.0167	ITI	n/a	n/a	n/a	n/a	n/a	n/a	n/a	n/a
365.0283	n/a	RESPONSE	n/a	n/a	n/a	n/a	n/a	n/a	n/a	green
365.9635	0.5167	FIXCROSS	n/a	n/a	n/a	n/a	n/a	n/a	n/a	n/a
366.4801	0.7333	COLOR_NAME	48	Neutral	niebieski	blue	Neutral	Neutral	hit	n/a
367.1834	n/a	RESPONSE	n/a	n/a	n/a	n/a	n/a	n/a	n/a	blue
367.2135	1.0167	ITI	n/a	n/a	n/a	n/a	n/a	n/a	n/a	n/a
368.2302	0.5166	FIXCROSS	n/a	n/a	n/a	n/a	n/a	n/a	n/a	n/a
368.7468	0.8	COLOR_NAME	49	Incongruent	czerwony	red	zielony	green	hit	n/a
369.5141	n/a	RESPONSE	n/a	n/a	n/a	n/a	n/a	n/a	n/a	red
369.5468	1.0166	ITI	n/a	n/a	n/a	n/a	n/a	n/a	n/a	n/a
370.5635	0.5167	FIXCROSS	n/a	n/a	n/a	n/a	n/a	n/a	n/a	n/a
371.0801	0.7834	COLOR_NAME	50	Incongruent	niebieski	blue	żółty	yellow	hit	n/a
371.8448	n/a	RESPONSE	n/a	n/a	n/a	n/a	n/a	n/a	n/a	blue
371.8635	1.0166	ITI	n/a	n/a	n/a	n/a	n/a	n/a	n/a	n/a
372.8802	0.5167	FIXCROSS	n/a	n/a	n/a	n/a	n/a	n/a	n/a	n/a
373.3969	0.6166	COLOR_NAME	51	Neutral	niebieski	blue	Neutral	Neutral	hit	n/a
373.984	n/a	RESPONSE	n/a	n/a	n/a	n/a	n/a	n/a	n/a	blue
374.0135	1.0167	ITI	n/a	n/a	n/a	n/a	n/a	n/a	n/a	n/a
375.0302	0.5167	FIXCROSS	n/a	n/a	n/a	n/a	n/a	n/a	n/a	n/a
375.5469	1.1166	COLOR_NAME	52	Incongruent	czerwony	red	żółty	yellow	hit	n/a
376.634	n/a	RESPONSE	n/a	n/a	n/a	n/a	n/a	n/a	n/a	red
376.6635	1.0167	ITI	n/a	n/a	n/a	n/a	n/a	n/a	n/a	n/a
377.6802	0.5167	FIXCROSS	n/a	n/a	n/a	n/a	n/a	n/a	n/a	n/a
378.1969	0.5833	COLOR_NAME	53	Neutral	żółty	yellow	Neutral	Neutral	hit	n/a
378.7571	n/a	RESPONSE	n/a	n/a	n/a	n/a	n/a	n/a	n/a	yellow
378.7802	1.0167	ITI	n/a	n/a	n/a	n/a	n/a	n/a	n/a	n/a
379.7969	0.5166	FIXCROSS	n/a	n/a	n/a	n/a	n/a	n/a	n/a	n/a
380.3135	0.8	COLOR_NAME	54	Neutral	zielony	green	Neutral	Neutral	hit	n/a
381.0878	n/a	RESPONSE	n/a	n/a	n/a	n/a	n/a	n/a	n/a	green
381.1135	1.0167	ITI	n/a	n/a	n/a	n/a	n/a	n/a	n/a	n/a
382.1303	0.5167	FIXCROSS	n/a	n/a	n/a	n/a	n/a	n/a	n/a	n/a
382.6469	1.05	COLOR_NAME	55	Incongruent	żółty	yellow	czerwony	red	hit	n/a
383.6739	n/a	RESPONSE	n/a	n/a	n/a	n/a	n/a	n/a	n/a	yellow
383.6969	1.0167	ITI	n/a	n/a	n/a	n/a	n/a	n/a	n/a	n/a
384.7136	0.5167	FIXCROSS	n/a	n/a	n/a	n/a	n/a	n/a	n/a	n/a
385.2303	1.0833	COLOR_NAME	56	Incongruent	niebieski	blue	żółty	yellow	hit	n/a
386.292	n/a	RESPONSE	n/a	n/a	n/a	n/a	n/a	n/a	n/a	blue
386.3136	1.0167	ITI	n/a	n/a	n/a	n/a	n/a	n/a	n/a	n/a
387.3303	0.5167	FIXCROSS	n/a	n/a	n/a	n/a	n/a	n/a	n/a	n/a
387.847	0.5666	COLOR_NAME	57	Neutral	niebieski	blue	Neutral	Neutral	hit	n/a
388.3832	n/a	RESPONSE	n/a	n/a	n/a	n/a	n/a	n/a	n/a	blue
388.4136	1.0167	ITI	n/a	n/a	n/a	n/a	n/a	n/a	n/a	n/a
389.4303	0.5167	FIXCROSS	n/a	n/a	n/a	n/a	n/a	n/a	n/a	n/a
389.9469	0.6833	COLOR_NAME	58	Neutral	niebieski	blue	Neutral	Neutral	hit	n/a
390.6022	n/a	RESPONSE	n/a	n/a	n/a	n/a	n/a	n/a	n/a	blue
390.6303	1.0167	ITI	n/a	n/a	n/a	n/a	n/a	n/a	n/a	n/a
391.647	0.5167	FIXCROSS	n/a	n/a	n/a	n/a	n/a	n/a	n/a	n/a
392.1636	0.85	COLOR_NAME	59	Incongruent	zielony	green	czerwony	red	hit	n/a
392.9808	n/a	RESPONSE	n/a	n/a	n/a	n/a	n/a	n/a	n/a	green
393.0136	1.0167	ITI	n/a	n/a	n/a	n/a	n/a	n/a	n/a	n/a
394.0303	0.5167	FIXCROSS	n/a	n/a	n/a	n/a	n/a	n/a	n/a	n/a
394.547	0.6333	COLOR_NAME	60	Neutral	żółty	yellow	Neutral	Neutral	hit	n/a
395.1519	n/a	RESPONSE	n/a	n/a	n/a	n/a	n/a	n/a	n/a	yellow
395.1804	1.0166	ITI	n/a	n/a	n/a	n/a	n/a	n/a	n/a	n/a
396.197	0.5167	FIXCROSS	n/a	n/a	n/a	n/a	n/a	n/a	n/a	n/a
396.7137	0.7833	COLOR_NAME	61	Neutral	czerwony	red	Neutral	Neutral	hit	n/a
397.4667	n/a	RESPONSE	n/a	n/a	n/a	n/a	n/a	n/a	n/a	red
397.497	1.0167	ITI	n/a	n/a	n/a	n/a	n/a	n/a	n/a	n/a
398.5137	0.5167	FIXCROSS	n/a	n/a	n/a	n/a	n/a	n/a	n/a	n/a
399.0304	0.7167	COLOR_NAME	62	Neutral	czerwony	red	Neutral	Neutral	hit	n/a
399.7176	n/a	RESPONSE	n/a	n/a	n/a	n/a	n/a	n/a	n/a	red
399.7471	1.0167	ITI	n/a	n/a	n/a	n/a	n/a	n/a	n/a	n/a
400.7637	0.5167	FIXCROSS	n/a	n/a	n/a	n/a	n/a	n/a	n/a	n/a
401.2804	0.8	COLOR_NAME	63	Neutral	zielony	green	Neutral	Neutral	hit	n/a
402.0484	n/a	RESPONSE	n/a	n/a	n/a	n/a	n/a	n/a	n/a	green
402.0804	1.0166	ITI	n/a	n/a	n/a	n/a	n/a	n/a	n/a	n/a
403.097	0.5167	FIXCROSS	n/a	n/a	n/a	n/a	n/a	n/a	n/a	n/a
403.6138	0.75	COLOR_NAME	64	Neutral	czerwony	red	Neutral	Neutral	hit	n/a
404.3312	n/a	RESPONSE	n/a	n/a	n/a	n/a	n/a	n/a	n/a	red
404.3637	1.0167	ITI	n/a	n/a	n/a	n/a	n/a	n/a	n/a	n/a
405.3804	0.5167	FIXCROSS	n/a	n/a	n/a	n/a	n/a	n/a	n/a	n/a
405.8971	0.8	COLOR_NAME	65	Incongruent	żółty	yellow	zielony	green	hit	n/a
406.6778	n/a	RESPONSE	n/a	n/a	n/a	n/a	n/a	n/a	n/a	yellow
406.6971	1.0167	ITI	n/a	n/a	n/a	n/a	n/a	n/a	n/a	n/a
407.7138	0.5167	FIXCROSS	n/a	n/a	n/a	n/a	n/a	n/a	n/a	n/a
408.2305	1.0833	COLOR_NAME	66	Neutral	niebieski	blue	Neutral	Neutral	hit	n/a
409.2799	n/a	RESPONSE	n/a	n/a	n/a	n/a	n/a	n/a	n/a	blue
409.3138	1.0167	ITI	n/a	n/a	n/a	n/a	n/a	n/a	n/a	n/a
410.3304	0.5167	FIXCROSS	n/a	n/a	n/a	n/a	n/a	n/a	n/a	n/a
410.8471	0.65	COLOR_NAME	67	Incongruent	żółty	yellow	zielony	green	hit	n/a
411.4668	n/a	RESPONSE	n/a	n/a	n/a	n/a	n/a	n/a	n/a	yellow
411.4971	1.0167	ITI	n/a	n/a	n/a	n/a	n/a	n/a	n/a	n/a
412.5138	0.5167	FIXCROSS	n/a	n/a	n/a	n/a	n/a	n/a	n/a	n/a
413.0305	0.6333	COLOR_NAME	68	Incongruent	niebieski	blue	żółty	yellow	incorrect	n/a
413.6379	n/a	RESPONSE	n/a	n/a	n/a	n/a	n/a	n/a	n/a	green
413.6638	1.0167	ITI	n/a	n/a	n/a	n/a	n/a	n/a	n/a	n/a
414.6805	0.5167	FIXCROSS	n/a	n/a	n/a	n/a	n/a	n/a	n/a	n/a
415.1972	0.65	COLOR_NAME	69	Neutral	zielony	green	Neutral	Neutral	incorrect	n/a
415.825	n/a	RESPONSE	n/a	n/a	n/a	n/a	n/a	n/a	n/a	yellow
415.8472	1.0166	ITI	n/a	n/a	n/a	n/a	n/a	n/a	n/a	n/a
416.8638	0.5167	FIXCROSS	n/a	n/a	n/a	n/a	n/a	n/a	n/a	n/a
417.3805	0.8833	COLOR_NAME	70	Neutral	czerwony	red	Neutral	Neutral	hit	n/a
418.2355	n/a	RESPONSE	n/a	n/a	n/a	n/a	n/a	n/a	n/a	red
418.2639	1.0166	ITI	n/a	n/a	n/a	n/a	n/a	n/a	n/a	n/a
419.2805	0.5167	FIXCROSS	n/a	n/a	n/a	n/a	n/a	n/a	n/a	n/a
419.7972	1.0	COLOR_NAME	71	Incongruent	zielony	green	czerwony	red	hit	n/a
420.7737	n/a	RESPONSE	n/a	n/a	n/a	n/a	n/a	n/a	n/a	green
420.7972	1.0166	ITI	n/a	n/a	n/a	n/a	n/a	n/a	n/a	n/a
421.8139	0.5167	FIXCROSS	n/a	n/a	n/a	n/a	n/a	n/a	n/a	n/a
422.3305	0.5167	COLOR_NAME	72	Neutral	zielony	green	Neutral	Neutral	hit	n/a
422.8171	n/a	RESPONSE	n/a	n/a	n/a	n/a	n/a	n/a	n/a	green
422.8472	1.0334	ITI	n/a	n/a	n/a	n/a	n/a	n/a	n/a	n/a
426.6165	n/a	RESPONSE	n/a	n/a	n/a	n/a	n/a	n/a	n/a	n/a
