onset	duration	trial_type	trial_number	stroop_condition	stim_text(PL)	stim_text(eng)	stim_color(PL)	stim_color(eng)	response_type	response_color
0.0	n/a	RESPONSE	n/a	n/a	n/a	n/a	n/a	n/a	n/a	n/a
0.0579	1.0167	ITI	n/a	n/a	n/a	n/a	n/a	n/a	n/a	n/a
1.0746	0.5167	FIXCROSS	n/a	n/a	n/a	n/a	n/a	n/a	n/a	n/a
1.5912	1.1333	T_INK	1	Neutral	xxxxxxx	xxxxxxx	żółty	yellow	hit	n/a
2.7	n/a	RESPONSE	n/a	n/a	n/a	n/a	n/a	n/a	n/a	yellow
2.7246	0.5167	FEEDBACK	n/a	n/a	n/a	n/a	n/a	n/a	n/a	n/a
3.2413	1.0167	ITI	n/a	n/a	n/a	n/a	n/a	n/a	n/a	n/a
4.2579	0.5167	FIXCROSS	n/a	n/a	n/a	n/a	n/a	n/a	n/a	n/a
4.7746	1.5833	T_INK	2	Incongruent	czerwony	red	zielony	green	hit	n/a
6.3263	n/a	RESPONSE	n/a	n/a	n/a	n/a	n/a	n/a	n/a	green
6.3579	0.5167	FEEDBACK	n/a	n/a	n/a	n/a	n/a	n/a	n/a	n/a
6.8746	1.0167	ITI	n/a	n/a	n/a	n/a	n/a	n/a	n/a	n/a
7.8913	0.5167	FIXCROSS	n/a	n/a	n/a	n/a	n/a	n/a	n/a	n/a
8.408	1.6833	T_INK	3	Incongruent	niebieski	blue	zielony	green	hit	n/a
10.0647	n/a	RESPONSE	n/a	n/a	n/a	n/a	n/a	n/a	n/a	green
10.0913	0.5167	FEEDBACK	n/a	n/a	n/a	n/a	n/a	n/a	n/a	n/a
10.608	1.0167	ITI	n/a	n/a	n/a	n/a	n/a	n/a	n/a	n/a
11.6247	0.5166	FIXCROSS	n/a	n/a	n/a	n/a	n/a	n/a	n/a	n/a
12.1413	0.9667	T_INK	4	Neutral	xxxxx	xxxxx	niebieski	blue	hit	n/a
13.084	n/a	RESPONSE	n/a	n/a	n/a	n/a	n/a	n/a	n/a	blue
13.108	0.5167	FEEDBACK	n/a	n/a	n/a	n/a	n/a	n/a	n/a	n/a
13.6247	1.0167	ITI	n/a	n/a	n/a	n/a	n/a	n/a	n/a	n/a
14.6414	0.5167	FIXCROSS	n/a	n/a	n/a	n/a	n/a	n/a	n/a	n/a
15.158	0.8667	T_INK	5	Neutral	xxxxxxx	xxxxxxx	czerwony	red	hit	n/a
15.9916	n/a	RESPONSE	n/a	n/a	n/a	n/a	n/a	n/a	n/a	red
16.0247	0.5167	FEEDBACK	n/a	n/a	n/a	n/a	n/a	n/a	n/a	n/a
16.5414	1.0167	ITI	n/a	n/a	n/a	n/a	n/a	n/a	n/a	n/a
17.5581	0.5167	FIXCROSS	n/a	n/a	n/a	n/a	n/a	n/a	n/a	n/a
18.0747	0.8167	T_INK	6	Incongruent	żółty	yellow	czerwony	red	hit	n/a
18.867	n/a	RESPONSE	n/a	n/a	n/a	n/a	n/a	n/a	n/a	red
18.8914	0.5167	FEEDBACK	n/a	n/a	n/a	n/a	n/a	n/a	n/a	n/a
19.4081	1.0167	ITI	n/a	n/a	n/a	n/a	n/a	n/a	n/a	n/a
20.4247	0.5167	FIXCROSS	n/a	n/a	n/a	n/a	n/a	n/a	n/a	n/a
20.9414	0.85	T_INK	7	Incongruent	niebieski	blue	czerwony	red	hit	n/a
21.7586	n/a	RESPONSE	n/a	n/a	n/a	n/a	n/a	n/a	n/a	red
21.7914	0.5167	FEEDBACK	n/a	n/a	n/a	n/a	n/a	n/a	n/a	n/a
22.3081	1.0167	ITI	n/a	n/a	n/a	n/a	n/a	n/a	n/a	n/a
23.3248	0.5167	FIXCROSS	n/a	n/a	n/a	n/a	n/a	n/a	n/a	n/a
23.8414	0.7667	T_INK	8	Incongruent	czerwony	red	żółty	yellow	hit	n/a
24.5862	n/a	RESPONSE	n/a	n/a	n/a	n/a	n/a	n/a	n/a	yellow
24.6081	0.5167	FEEDBACK	n/a	n/a	n/a	n/a	n/a	n/a	n/a	n/a
25.1248	1.0167	ITI	n/a	n/a	n/a	n/a	n/a	n/a	n/a	n/a
26.1415	0.5167	FIXCROSS	n/a	n/a	n/a	n/a	n/a	n/a	n/a	n/a
26.6581	0.8833	T_INK	9	Neutral	xxxxxxx	xxxxxxx	niebieski	blue	hit	n/a
27.5098	n/a	RESPONSE	n/a	n/a	n/a	n/a	n/a	n/a	n/a	blue
27.5415	0.5167	FEEDBACK	n/a	n/a	n/a	n/a	n/a	n/a	n/a	n/a
28.0581	1.0167	ITI	n/a	n/a	n/a	n/a	n/a	n/a	n/a	n/a
29.0748	0.5167	FIXCROSS	n/a	n/a	n/a	n/a	n/a	n/a	n/a	n/a
29.5915	0.9333	T_INK	10	Neutral	xxxxxxxxx	xxxxxxxxx	czerwony	red	hit	n/a
30.4971	n/a	RESPONSE	n/a	n/a	n/a	n/a	n/a	n/a	n/a	red
30.5248	0.5167	FEEDBACK	n/a	n/a	n/a	n/a	n/a	n/a	n/a	n/a
31.0415	1.0167	ITI	n/a	n/a	n/a	n/a	n/a	n/a	n/a	n/a
32.0582	0.5167	FIXCROSS	n/a	n/a	n/a	n/a	n/a	n/a	n/a	n/a
32.5748	0.8	T_INK	11	Incongruent	zielony	green	żółty	yellow	hit	n/a
33.3409	n/a	RESPONSE	n/a	n/a	n/a	n/a	n/a	n/a	n/a	yellow
33.3748	0.5167	FEEDBACK	n/a	n/a	n/a	n/a	n/a	n/a	n/a	n/a
33.8915	1.0167	ITI	n/a	n/a	n/a	n/a	n/a	n/a	n/a	n/a
34.9082	0.5167	FIXCROSS	n/a	n/a	n/a	n/a	n/a	n/a	n/a	n/a
35.4249	0.9667	T_INK	12	Incongruent	żółty	yellow	niebieski	blue	hit	n/a
36.3602	n/a	RESPONSE	n/a	n/a	n/a	n/a	n/a	n/a	n/a	blue
36.3915	0.5167	FEEDBACK	n/a	n/a	n/a	n/a	n/a	n/a	n/a	n/a
36.9082	1.0333	ITI	n/a	n/a	n/a	n/a	n/a	n/a	n/a	n/a
41.2008	n/a	RESPONSE	n/a	n/a	n/a	n/a	n/a	n/a	n/a	n/a
41.2583	1.0167	ITI	n/a	n/a	n/a	n/a	n/a	n/a	n/a	n/a
42.2749	0.5167	FIXCROSS	n/a	n/a	n/a	n/a	n/a	n/a	n/a	n/a
42.7916	1.3167	INK	1	Incongruent	niebieski	blue	zielony	green	hit	n/a
44.0764	n/a	RESPONSE	n/a	n/a	n/a	n/a	n/a	n/a	n/a	green
44.1083	1.0167	ITI	n/a	n/a	n/a	n/a	n/a	n/a	n/a	n/a
45.1249	0.5167	FIXCROSS	n/a	n/a	n/a	n/a	n/a	n/a	n/a	n/a
45.6416	0.8	INK	2	Neutral	xxxxxxxx	xxxxxxxx	żółty	yellow	hit	n/a
46.4087	n/a	RESPONSE	n/a	n/a	n/a	n/a	n/a	n/a	n/a	yellow
46.4416	1.0167	ITI	n/a	n/a	n/a	n/a	n/a	n/a	n/a	n/a
47.4583	0.5167	FIXCROSS	n/a	n/a	n/a	n/a	n/a	n/a	n/a	n/a
47.975	1.0167	INK	3	Neutral	xxxxx	xxxxx	zielony	green	hit	n/a
48.9648	n/a	RESPONSE	n/a	n/a	n/a	n/a	n/a	n/a	n/a	green
48.9917	1.0167	ITI	n/a	n/a	n/a	n/a	n/a	n/a	n/a	n/a
50.0083	0.5167	FIXCROSS	n/a	n/a	n/a	n/a	n/a	n/a	n/a	n/a
50.525	0.7667	INK	4	Incongruent	żółty	yellow	czerwony	red	hit	n/a
51.2653	n/a	RESPONSE	n/a	n/a	n/a	n/a	n/a	n/a	n/a	red
51.2917	1.0167	ITI	n/a	n/a	n/a	n/a	n/a	n/a	n/a	n/a
52.3083	0.5167	FIXCROSS	n/a	n/a	n/a	n/a	n/a	n/a	n/a	n/a
52.825	0.85	INK	5	Incongruent	żółty	yellow	niebieski	blue	hit	n/a
53.6456	n/a	RESPONSE	n/a	n/a	n/a	n/a	n/a	n/a	n/a	blue
53.675	1.0167	ITI	n/a	n/a	n/a	n/a	n/a	n/a	n/a	n/a
54.6917	0.5167	FIXCROSS	n/a	n/a	n/a	n/a	n/a	n/a	n/a	n/a
55.2084	0.7667	INK	6	Neutral	xxxxxxx	xxxxxxx	żółty	yellow	hit	n/a
55.9461	n/a	RESPONSE	n/a	n/a	n/a	n/a	n/a	n/a	n/a	yellow
55.975	1.0167	ITI	n/a	n/a	n/a	n/a	n/a	n/a	n/a	n/a
56.9917	0.5167	FIXCROSS	n/a	n/a	n/a	n/a	n/a	n/a	n/a	n/a
57.5084	0.75	INK	7	Incongruent	żółty	yellow	czerwony	red	hit	n/a
58.2306	n/a	RESPONSE	n/a	n/a	n/a	n/a	n/a	n/a	n/a	red
58.2584	1.0167	ITI	n/a	n/a	n/a	n/a	n/a	n/a	n/a	n/a
59.2751	0.5167	FIXCROSS	n/a	n/a	n/a	n/a	n/a	n/a	n/a	n/a
59.7917	0.8333	INK	8	Neutral	xxxxxxxx	xxxxxxxx	niebieski	blue	hit	n/a
60.5949	n/a	RESPONSE	n/a	n/a	n/a	n/a	n/a	n/a	n/a	blue
60.6251	1.0167	ITI	n/a	n/a	n/a	n/a	n/a	n/a	n/a	n/a
61.6418	0.5167	FIXCROSS	n/a	n/a	n/a	n/a	n/a	n/a	n/a	n/a
62.1584	0.7333	INK	9	Neutral	xxxxxxx	xxxxxxx	czerwony	red	hit	n/a
62.8634	n/a	RESPONSE	n/a	n/a	n/a	n/a	n/a	n/a	n/a	red
62.8918	1.0167	ITI	n/a	n/a	n/a	n/a	n/a	n/a	n/a	n/a
63.9084	0.5167	FIXCROSS	n/a	n/a	n/a	n/a	n/a	n/a	n/a	n/a
64.4251	0.7	INK	10	Incongruent	czerwony	red	zielony	green	hit	n/a
65.1	n/a	RESPONSE	n/a	n/a	n/a	n/a	n/a	n/a	n/a	green
65.1251	1.0167	ITI	n/a	n/a	n/a	n/a	n/a	n/a	n/a	n/a
66.1418	0.5167	FIXCROSS	n/a	n/a	n/a	n/a	n/a	n/a	n/a	n/a
66.6585	0.65	INK	11	Incongruent	niebieski	blue	czerwony	red	hit	n/a
67.2886	n/a	RESPONSE	n/a	n/a	n/a	n/a	n/a	n/a	n/a	red
67.3085	1.0167	ITI	n/a	n/a	n/a	n/a	n/a	n/a	n/a	n/a
68.3251	0.5167	FIXCROSS	n/a	n/a	n/a	n/a	n/a	n/a	n/a	n/a
68.8418	0.6167	INK	12	Incongruent	niebieski	blue	żółty	yellow	hit	n/a
69.4292	n/a	RESPONSE	n/a	n/a	n/a	n/a	n/a	n/a	n/a	yellow
69.4585	1.0167	ITI	n/a	n/a	n/a	n/a	n/a	n/a	n/a	n/a
70.4752	0.5167	FIXCROSS	n/a	n/a	n/a	n/a	n/a	n/a	n/a	n/a
70.9918	0.7833	INK	13	Neutral	xxxxxxx	xxxxxxx	niebieski	blue	hit	n/a
71.7457	n/a	RESPONSE	n/a	n/a	n/a	n/a	n/a	n/a	n/a	blue
71.7752	1.0167	ITI	n/a	n/a	n/a	n/a	n/a	n/a	n/a	n/a
72.7919	0.5167	FIXCROSS	n/a	n/a	n/a	n/a	n/a	n/a	n/a	n/a
73.3085	0.65	INK	14	Incongruent	zielony	green	żółty	yellow	hit	n/a
73.9343	n/a	RESPONSE	n/a	n/a	n/a	n/a	n/a	n/a	n/a	yellow
73.9585	1.0167	ITI	n/a	n/a	n/a	n/a	n/a	n/a	n/a	n/a
74.9752	0.5167	FIXCROSS	n/a	n/a	n/a	n/a	n/a	n/a	n/a	n/a
75.4919	0.7667	INK	15	Neutral	xxxxxxxxx	xxxxxxxxx	czerwony	red	hit	n/a
76.2349	n/a	RESPONSE	n/a	n/a	n/a	n/a	n/a	n/a	n/a	red
76.2585	1.0167	ITI	n/a	n/a	n/a	n/a	n/a	n/a	n/a	n/a
77.2752	0.5167	FIXCROSS	n/a	n/a	n/a	n/a	n/a	n/a	n/a	n/a
77.7919	0.6833	INK	16	Incongruent	niebieski	blue	żółty	yellow	hit	n/a
78.4554	n/a	RESPONSE	n/a	n/a	n/a	n/a	n/a	n/a	n/a	yellow
78.4752	1.0167	ITI	n/a	n/a	n/a	n/a	n/a	n/a	n/a	n/a
79.4919	0.5167	FIXCROSS	n/a	n/a	n/a	n/a	n/a	n/a	n/a	n/a
80.0086	0.7333	INK	17	Incongruent	czerwony	red	zielony	green	hit	n/a
80.7239	n/a	RESPONSE	n/a	n/a	n/a	n/a	n/a	n/a	n/a	green
80.7419	1.0167	ITI	n/a	n/a	n/a	n/a	n/a	n/a	n/a	n/a
81.7586	0.5167	FIXCROSS	n/a	n/a	n/a	n/a	n/a	n/a	n/a	n/a
82.2753	0.7	INK	18	Neutral	xxxxxxxx	xxxxxxxx	niebieski	blue	hit	n/a
82.9448	n/a	RESPONSE	n/a	n/a	n/a	n/a	n/a	n/a	n/a	blue
82.9753	1.0167	ITI	n/a	n/a	n/a	n/a	n/a	n/a	n/a	n/a
83.9919	0.5167	FIXCROSS	n/a	n/a	n/a	n/a	n/a	n/a	n/a	n/a
84.5086	0.9167	INK	19	Incongruent	żółty	yellow	zielony	green	hit	n/a
85.4052	n/a	RESPONSE	n/a	n/a	n/a	n/a	n/a	n/a	n/a	green
85.4253	1.0167	ITI	n/a	n/a	n/a	n/a	n/a	n/a	n/a	n/a
86.442	0.5167	FIXCROSS	n/a	n/a	n/a	n/a	n/a	n/a	n/a	n/a
86.9586	0.7667	INK	20	Incongruent	żółty	yellow	niebieski	blue	hit	n/a
87.7059	n/a	RESPONSE	n/a	n/a	n/a	n/a	n/a	n/a	n/a	blue
87.7253	1.0167	ITI	n/a	n/a	n/a	n/a	n/a	n/a	n/a	n/a
88.742	0.5167	FIXCROSS	n/a	n/a	n/a	n/a	n/a	n/a	n/a	n/a
89.2586	0.7	INK	21	Neutral	xxxxx	xxxxx	niebieski	blue	hit	n/a
89.9267	n/a	RESPONSE	n/a	n/a	n/a	n/a	n/a	n/a	n/a	blue
89.9587	1.0167	ITI	n/a	n/a	n/a	n/a	n/a	n/a	n/a	n/a
90.9753	0.5167	FIXCROSS	n/a	n/a	n/a	n/a	n/a	n/a	n/a	n/a
91.492	0.75	INK	22	Neutral	xxxxxxx	xxxxxxx	niebieski	blue	hit	n/a
92.2115	n/a	RESPONSE	n/a	n/a	n/a	n/a	n/a	n/a	n/a	blue
92.242	1.0167	ITI	n/a	n/a	n/a	n/a	n/a	n/a	n/a	n/a
93.2587	0.5167	FIXCROSS	n/a	n/a	n/a	n/a	n/a	n/a	n/a	n/a
93.7754	0.4667	INK	23	Neutral	xxxxx	xxxxx	czerwony	red	hit	n/a
94.2247	n/a	RESPONSE	n/a	n/a	n/a	n/a	n/a	n/a	n/a	red
94.242	1.0167	ITI	n/a	n/a	n/a	n/a	n/a	n/a	n/a	n/a
95.2587	0.5167	FIXCROSS	n/a	n/a	n/a	n/a	n/a	n/a	n/a	n/a
95.7754	0.7167	INK	24	Incongruent	zielony	green	czerwony	red	hit	n/a
96.4615	n/a	RESPONSE	n/a	n/a	n/a	n/a	n/a	n/a	n/a	red
96.492	1.0167	ITI	n/a	n/a	n/a	n/a	n/a	n/a	n/a	n/a
97.5087	0.5167	FIXCROSS	n/a	n/a	n/a	n/a	n/a	n/a	n/a	n/a
98.0254	0.4833	INK	25	Neutral	xxxxxxxx	xxxxxxxx	zielony	green	incorrect	n/a
98.4906	n/a	RESPONSE	n/a	n/a	n/a	n/a	n/a	n/a	n/a	yellow
98.5087	1.0167	ITI	n/a	n/a	n/a	n/a	n/a	n/a	n/a	n/a
99.5254	0.5167	FIXCROSS	n/a	n/a	n/a	n/a	n/a	n/a	n/a	n/a
100.0421	1.1167	INK	26	Incongruent	niebieski	blue	czerwony	red	hit	n/a
101.127	n/a	RESPONSE	n/a	n/a	n/a	n/a	n/a	n/a	n/a	red
101.1587	1.0167	ITI	n/a	n/a	n/a	n/a	n/a	n/a	n/a	n/a
102.1754	0.5167	FIXCROSS	n/a	n/a	n/a	n/a	n/a	n/a	n/a	n/a
102.6921	0.6334	INK	27	Neutral	xxxxxxxx	xxxxxxxx	zielony	green	hit	n/a
103.2998	n/a	RESPONSE	n/a	n/a	n/a	n/a	n/a	n/a	n/a	green
103.3254	1.0167	ITI	n/a	n/a	n/a	n/a	n/a	n/a	n/a	n/a
104.3421	0.5167	FIXCROSS	n/a	n/a	n/a	n/a	n/a	n/a	n/a	n/a
104.8588	0.7833	INK	28	Incongruent	żółty	yellow	czerwony	red	hit	n/a
105.6165	n/a	RESPONSE	n/a	n/a	n/a	n/a	n/a	n/a	n/a	red
105.6421	1.0167	ITI	n/a	n/a	n/a	n/a	n/a	n/a	n/a	n/a
106.6588	0.5167	FIXCROSS	n/a	n/a	n/a	n/a	n/a	n/a	n/a	n/a
107.1755	0.5833	INK	29	Neutral	xxxxx	xxxxx	czerwony	red	hit	n/a
107.7255	n/a	RESPONSE	n/a	n/a	n/a	n/a	n/a	n/a	n/a	red
107.7588	1.0167	ITI	n/a	n/a	n/a	n/a	n/a	n/a	n/a	n/a
108.7755	0.5167	FIXCROSS	n/a	n/a	n/a	n/a	n/a	n/a	n/a	n/a
109.2922	0.9333	INK	30	Neutral	xxxxxxx	xxxxxxx	żółty	yellow	hit	n/a
110.202	n/a	RESPONSE	n/a	n/a	n/a	n/a	n/a	n/a	n/a	yellow
110.2255	1.0167	ITI	n/a	n/a	n/a	n/a	n/a	n/a	n/a	n/a
111.2422	0.5167	FIXCROSS	n/a	n/a	n/a	n/a	n/a	n/a	n/a	n/a
111.7588	0.75	INK	31	Incongruent	żółty	yellow	zielony	green	hit	n/a
112.4869	n/a	RESPONSE	n/a	n/a	n/a	n/a	n/a	n/a	n/a	green
112.5088	1.0167	ITI	n/a	n/a	n/a	n/a	n/a	n/a	n/a	n/a
113.5255	0.5167	FIXCROSS	n/a	n/a	n/a	n/a	n/a	n/a	n/a	n/a
114.0422	0.6333	INK	32	Neutral	xxxxxxxxx	xxxxxxxxx	żółty	yellow	hit	n/a
114.6439	n/a	RESPONSE	n/a	n/a	n/a	n/a	n/a	n/a	n/a	yellow
114.6755	1.0167	ITI	n/a	n/a	n/a	n/a	n/a	n/a	n/a	n/a
115.6922	0.5167	FIXCROSS	n/a	n/a	n/a	n/a	n/a	n/a	n/a	n/a
116.2089	0.9	INK	33	Neutral	xxxxxxx	xxxxxxx	czerwony	red	hit	n/a
117.0884	n/a	RESPONSE	n/a	n/a	n/a	n/a	n/a	n/a	n/a	red
117.1089	1.0167	ITI	n/a	n/a	n/a	n/a	n/a	n/a	n/a	n/a
118.1256	0.5167	FIXCROSS	n/a	n/a	n/a	n/a	n/a	n/a	n/a	n/a
118.6422	0.7167	INK	34	Neutral	xxxxx	xxxxx	niebieski	blue	hit	n/a
119.3412	n/a	RESPONSE	n/a	n/a	n/a	n/a	n/a	n/a	n/a	blue
119.3589	1.0167	ITI	n/a	n/a	n/a	n/a	n/a	n/a	n/a	n/a
120.3756	0.5167	FIXCROSS	n/a	n/a	n/a	n/a	n/a	n/a	n/a	n/a
120.8922	0.5833	INK	35	Incongruent	czerwony	red	niebieski	blue	hit	n/a
121.4503	n/a	RESPONSE	n/a	n/a	n/a	n/a	n/a	n/a	n/a	blue
121.4756	1.0167	ITI	n/a	n/a	n/a	n/a	n/a	n/a	n/a	n/a
122.4923	0.5167	FIXCROSS	n/a	n/a	n/a	n/a	n/a	n/a	n/a	n/a
123.0089	0.6667	INK	36	Neutral	xxxxx	xxxxx	zielony	green	hit	n/a
123.6551	n/a	RESPONSE	n/a	n/a	n/a	n/a	n/a	n/a	n/a	green
123.6756	1.0167	ITI	n/a	n/a	n/a	n/a	n/a	n/a	n/a	n/a
124.6923	0.5167	FIXCROSS	n/a	n/a	n/a	n/a	n/a	n/a	n/a	n/a
125.2089	0.9333	INK	37	Incongruent	zielony	green	niebieski	blue	hit	n/a
126.1156	n/a	RESPONSE	n/a	n/a	n/a	n/a	n/a	n/a	n/a	blue
126.1423	1.0167	ITI	n/a	n/a	n/a	n/a	n/a	n/a	n/a	n/a
127.159	0.5167	FIXCROSS	n/a	n/a	n/a	n/a	n/a	n/a	n/a	n/a
127.6756	0.6333	INK	38	Neutral	xxxxxxx	xxxxxxx	niebieski	blue	hit	n/a
128.2886	n/a	RESPONSE	n/a	n/a	n/a	n/a	n/a	n/a	n/a	blue
128.309	1.0167	ITI	n/a	n/a	n/a	n/a	n/a	n/a	n/a	n/a
129.3256	0.5167	FIXCROSS	n/a	n/a	n/a	n/a	n/a	n/a	n/a	n/a
129.8423	0.8167	INK	39	Incongruent	niebieski	blue	zielony	green	hit	n/a
130.6373	n/a	RESPONSE	n/a	n/a	n/a	n/a	n/a	n/a	n/a	green
130.659	1.0167	ITI	n/a	n/a	n/a	n/a	n/a	n/a	n/a	n/a
131.6757	0.5167	FIXCROSS	n/a	n/a	n/a	n/a	n/a	n/a	n/a	n/a
132.1923	0.7167	INK	40	Neutral	xxxxxxxxx	xxxxxxxxx	zielony	green	hit	n/a
132.8901	n/a	RESPONSE	n/a	n/a	n/a	n/a	n/a	n/a	n/a	green
132.909	1.0167	ITI	n/a	n/a	n/a	n/a	n/a	n/a	n/a	n/a
133.9257	0.5167	FIXCROSS	n/a	n/a	n/a	n/a	n/a	n/a	n/a	n/a
134.4424	0.5667	INK	41	Incongruent	zielony	green	żółty	yellow	hit	n/a
134.9832	n/a	RESPONSE	n/a	n/a	n/a	n/a	n/a	n/a	n/a	yellow
135.009	1.0167	ITI	n/a	n/a	n/a	n/a	n/a	n/a	n/a	n/a
136.0257	0.5167	FIXCROSS	n/a	n/a	n/a	n/a	n/a	n/a	n/a	n/a
136.5424	1.1167	INK	42	Incongruent	czerwony	red	niebieski	blue	hit	n/a
137.6354	n/a	RESPONSE	n/a	n/a	n/a	n/a	n/a	n/a	n/a	blue
137.659	1.0167	ITI	n/a	n/a	n/a	n/a	n/a	n/a	n/a	n/a
138.6757	0.5167	FIXCROSS	n/a	n/a	n/a	n/a	n/a	n/a	n/a	n/a
139.1924	0.85	INK	43	Incongruent	czerwony	red	żółty	yellow	hit	n/a
140.0162	n/a	RESPONSE	n/a	n/a	n/a	n/a	n/a	n/a	n/a	yellow
140.0424	1.0167	ITI	n/a	n/a	n/a	n/a	n/a	n/a	n/a	n/a
141.0591	0.5167	FIXCROSS	n/a	n/a	n/a	n/a	n/a	n/a	n/a	n/a
141.5757	0.7333	INK	44	Incongruent	czerwony	red	zielony	green	hit	n/a
142.285	n/a	RESPONSE	n/a	n/a	n/a	n/a	n/a	n/a	n/a	green
142.3091	1.0167	ITI	n/a	n/a	n/a	n/a	n/a	n/a	n/a	n/a
143.3258	0.5167	FIXCROSS	n/a	n/a	n/a	n/a	n/a	n/a	n/a	n/a
143.8424	0.7	INK	45	Neutral	xxxxxxxx	xxxxxxxx	zielony	green	hit	n/a
144.5219	n/a	RESPONSE	n/a	n/a	n/a	n/a	n/a	n/a	n/a	green
144.5424	1.0167	ITI	n/a	n/a	n/a	n/a	n/a	n/a	n/a	n/a
145.5591	0.5167	FIXCROSS	n/a	n/a	n/a	n/a	n/a	n/a	n/a	n/a
146.0758	0.8167	INK	46	Incongruent	czerwony	red	niebieski	blue	hit	n/a
146.8706	n/a	RESPONSE	n/a	n/a	n/a	n/a	n/a	n/a	n/a	blue
146.8925	1.0167	ITI	n/a	n/a	n/a	n/a	n/a	n/a	n/a	n/a
147.9091	0.5167	FIXCROSS	n/a	n/a	n/a	n/a	n/a	n/a	n/a	n/a
148.4258	0.7167	INK	47	Incongruent	niebieski	blue	żółty	yellow	hit	n/a
149.1235	n/a	RESPONSE	n/a	n/a	n/a	n/a	n/a	n/a	n/a	yellow
149.1425	1.0167	ITI	n/a	n/a	n/a	n/a	n/a	n/a	n/a	n/a
150.1591	0.5167	FIXCROSS	n/a	n/a	n/a	n/a	n/a	n/a	n/a	n/a
150.6758	0.75	INK	48	Neutral	xxxxxxxxx	xxxxxxxxx	zielony	green	hit	n/a
151.3923	n/a	RESPONSE	n/a	n/a	n/a	n/a	n/a	n/a	n/a	green
151.4258	1.0167	ITI	n/a	n/a	n/a	n/a	n/a	n/a	n/a	n/a
152.4425	0.5167	FIXCROSS	n/a	n/a	n/a	n/a	n/a	n/a	n/a	n/a
152.9592	0.5833	INK	49	Neutral	xxxxx	xxxxx	czerwony	red	hit	n/a
153.5174	n/a	RESPONSE	n/a	n/a	n/a	n/a	n/a	n/a	n/a	red
153.5425	1.0167	ITI	n/a	n/a	n/a	n/a	n/a	n/a	n/a	n/a
154.5592	0.5167	FIXCROSS	n/a	n/a	n/a	n/a	n/a	n/a	n/a	n/a
155.0758	0.7833	INK	50	Incongruent	żółty	yellow	zielony	green	hit	n/a
155.8343	n/a	RESPONSE	n/a	n/a	n/a	n/a	n/a	n/a	n/a	green
155.8592	1.0167	ITI	n/a	n/a	n/a	n/a	n/a	n/a	n/a	n/a
156.8759	0.5167	FIXCROSS	n/a	n/a	n/a	n/a	n/a	n/a	n/a	n/a
157.3925	0.65	INK	51	Incongruent	zielony	green	żółty	yellow	hit	n/a
158.0232	n/a	RESPONSE	n/a	n/a	n/a	n/a	n/a	n/a	n/a	yellow
158.0425	1.0167	ITI	n/a	n/a	n/a	n/a	n/a	n/a	n/a	n/a
159.0592	0.5167	FIXCROSS	n/a	n/a	n/a	n/a	n/a	n/a	n/a	n/a
159.5759	0.6833	INK	52	Neutral	xxxxxxxxx	xxxxxxxxx	zielony	green	hit	n/a
160.2282	n/a	RESPONSE	n/a	n/a	n/a	n/a	n/a	n/a	n/a	green
160.2592	1.0167	ITI	n/a	n/a	n/a	n/a	n/a	n/a	n/a	n/a
161.2759	0.5167	FIXCROSS	n/a	n/a	n/a	n/a	n/a	n/a	n/a	n/a
161.7926	0.6167	INK	53	Incongruent	zielony	green	czerwony	red	hit	n/a
162.3852	n/a	RESPONSE	n/a	n/a	n/a	n/a	n/a	n/a	n/a	red
162.4092	1.0167	ITI	n/a	n/a	n/a	n/a	n/a	n/a	n/a	n/a
163.4259	0.5167	FIXCROSS	n/a	n/a	n/a	n/a	n/a	n/a	n/a	n/a
163.9426	0.6167	INK	54	Neutral	xxxxxxx	xxxxxxx	czerwony	red	hit	n/a
164.5263	n/a	RESPONSE	n/a	n/a	n/a	n/a	n/a	n/a	n/a	red
164.5593	1.0167	ITI	n/a	n/a	n/a	n/a	n/a	n/a	n/a	n/a
165.5759	0.5167	FIXCROSS	n/a	n/a	n/a	n/a	n/a	n/a	n/a	n/a
166.0926	0.7833	INK	55	Incongruent	zielony	green	czerwony	red	hit	n/a
166.843	n/a	RESPONSE	n/a	n/a	n/a	n/a	n/a	n/a	n/a	red
166.876	1.0167	ITI	n/a	n/a	n/a	n/a	n/a	n/a	n/a	n/a
167.8926	0.5167	FIXCROSS	n/a	n/a	n/a	n/a	n/a	n/a	n/a	n/a
168.4093	0.8167	INK	56	Incongruent	zielony	green	niebieski	blue	hit	n/a
169.2078	n/a	RESPONSE	n/a	n/a	n/a	n/a	n/a	n/a	n/a	blue
169.226	1.0167	ITI	n/a	n/a	n/a	n/a	n/a	n/a	n/a	n/a
170.2426	0.5167	FIXCROSS	n/a	n/a	n/a	n/a	n/a	n/a	n/a	n/a
170.7593	0.9	INK	57	Incongruent	czerwony	red	żółty	yellow	hit	n/a
171.6364	n/a	RESPONSE	n/a	n/a	n/a	n/a	n/a	n/a	n/a	yellow
171.6593	1.0167	ITI	n/a	n/a	n/a	n/a	n/a	n/a	n/a	n/a
172.676	0.5167	FIXCROSS	n/a	n/a	n/a	n/a	n/a	n/a	n/a	n/a
173.1927	0.5333	INK	58	Neutral	xxxxxxxxx	xxxxxxxxx	żółty	yellow	hit	n/a
173.6978	n/a	RESPONSE	n/a	n/a	n/a	n/a	n/a	n/a	n/a	yellow
173.726	1.0167	ITI	n/a	n/a	n/a	n/a	n/a	n/a	n/a	n/a
174.7427	0.5167	FIXCROSS	n/a	n/a	n/a	n/a	n/a	n/a	n/a	n/a
175.2593	0.55	INK	59	Neutral	xxxxxxxxx	xxxxxxxxx	czerwony	red	hit	n/a
175.7909	n/a	RESPONSE	n/a	n/a	n/a	n/a	n/a	n/a	n/a	red
175.8094	1.0167	ITI	n/a	n/a	n/a	n/a	n/a	n/a	n/a	n/a
176.826	0.5167	FIXCROSS	n/a	n/a	n/a	n/a	n/a	n/a	n/a	n/a
177.3427	0.4	INK	60	Neutral	xxxxxxxxx	xxxxxxxxx	czerwony	red	hit	n/a
177.7242	n/a	RESPONSE	n/a	n/a	n/a	n/a	n/a	n/a	n/a	red
177.7427	1.0167	ITI	n/a	n/a	n/a	n/a	n/a	n/a	n/a	n/a
178.7594	0.5167	FIXCROSS	n/a	n/a	n/a	n/a	n/a	n/a	n/a	n/a
179.276	0.8	INK	61	Neutral	xxxxxxxx	xxxxxxxx	żółty	yellow	hit	n/a
180.057	n/a	RESPONSE	n/a	n/a	n/a	n/a	n/a	n/a	n/a	yellow
180.0761	1.0167	ITI	n/a	n/a	n/a	n/a	n/a	n/a	n/a	n/a
181.0927	0.5167	FIXCROSS	n/a	n/a	n/a	n/a	n/a	n/a	n/a	n/a
181.6094	0.5667	INK	62	Neutral	xxxxx	xxxxx	zielony	green	hit	n/a
182.1502	n/a	RESPONSE	n/a	n/a	n/a	n/a	n/a	n/a	n/a	green
182.1761	1.0167	ITI	n/a	n/a	n/a	n/a	n/a	n/a	n/a	n/a
183.1927	0.5167	FIXCROSS	n/a	n/a	n/a	n/a	n/a	n/a	n/a	n/a
183.7094	0.5167	INK	63	Neutral	xxxxxxxx	xxxxxxxx	niebieski	blue	hit	n/a
184.1954	n/a	RESPONSE	n/a	n/a	n/a	n/a	n/a	n/a	n/a	blue
184.2261	1.0167	ITI	n/a	n/a	n/a	n/a	n/a	n/a	n/a	n/a
185.2428	0.5167	FIXCROSS	n/a	n/a	n/a	n/a	n/a	n/a	n/a	n/a
185.7594	0.6	INK	64	Neutral	xxxxx	xxxxx	niebieski	blue	hit	n/a
186.3365	n/a	RESPONSE	n/a	n/a	n/a	n/a	n/a	n/a	n/a	blue
186.3594	1.0167	ITI	n/a	n/a	n/a	n/a	n/a	n/a	n/a	n/a
187.3761	0.5167	FIXCROSS	n/a	n/a	n/a	n/a	n/a	n/a	n/a	n/a
187.8928	0.5333	INK	65	Incongruent	zielony	green	niebieski	blue	hit	n/a
188.3976	n/a	RESPONSE	n/a	n/a	n/a	n/a	n/a	n/a	n/a	blue
188.4261	1.0167	ITI	n/a	n/a	n/a	n/a	n/a	n/a	n/a	n/a
189.4428	0.5167	FIXCROSS	n/a	n/a	n/a	n/a	n/a	n/a	n/a	n/a
189.9595	0.5833	INK	66	Neutral	xxxxxxxx	xxxxxxxx	żółty	yellow	hit	n/a
190.5229	n/a	RESPONSE	n/a	n/a	n/a	n/a	n/a	n/a	n/a	yellow
190.5428	1.0167	ITI	n/a	n/a	n/a	n/a	n/a	n/a	n/a	n/a
191.5595	0.5167	FIXCROSS	n/a	n/a	n/a	n/a	n/a	n/a	n/a	n/a
192.0762	0.6167	INK	67	Incongruent	niebieski	blue	czerwony	red	hit	n/a
192.6639	n/a	RESPONSE	n/a	n/a	n/a	n/a	n/a	n/a	n/a	red
192.6928	1.0167	ITI	n/a	n/a	n/a	n/a	n/a	n/a	n/a	n/a
193.7095	0.5167	FIXCROSS	n/a	n/a	n/a	n/a	n/a	n/a	n/a	n/a
194.2262	0.8	INK	68	Incongruent	niebieski	blue	zielony	green	hit	n/a
194.9967	n/a	RESPONSE	n/a	n/a	n/a	n/a	n/a	n/a	n/a	green
195.0262	1.0167	ITI	n/a	n/a	n/a	n/a	n/a	n/a	n/a	n/a
196.0428	0.5167	FIXCROSS	n/a	n/a	n/a	n/a	n/a	n/a	n/a	n/a
196.5595	0.5	INK	69	Neutral	xxxxxxxxx	xxxxxxxxx	żółty	yellow	hit	n/a
197.0259	n/a	RESPONSE	n/a	n/a	n/a	n/a	n/a	n/a	n/a	yellow
197.0595	1.0167	ITI	n/a	n/a	n/a	n/a	n/a	n/a	n/a	n/a
198.0762	0.5167	FIXCROSS	n/a	n/a	n/a	n/a	n/a	n/a	n/a	n/a
198.5929	0.6833	INK	70	Incongruent	żółty	yellow	niebieski	blue	incorrect	n/a
199.2469	n/a	RESPONSE	n/a	n/a	n/a	n/a	n/a	n/a	n/a	green
199.2762	1.0167	ITI	n/a	n/a	n/a	n/a	n/a	n/a	n/a	n/a
200.2929	0.5167	FIXCROSS	n/a	n/a	n/a	n/a	n/a	n/a	n/a	n/a
200.8095	0.5667	INK	71	Neutral	xxxxxxx	xxxxxxx	żółty	yellow	hit	n/a
201.3561	n/a	RESPONSE	n/a	n/a	n/a	n/a	n/a	n/a	n/a	yellow
201.3762	1.0167	ITI	n/a	n/a	n/a	n/a	n/a	n/a	n/a	n/a
202.3929	0.5167	FIXCROSS	n/a	n/a	n/a	n/a	n/a	n/a	n/a	n/a
202.9096	0.7333	INK	72	Incongruent	czerwony	red	żółty	yellow	hit	n/a
203.609	n/a	RESPONSE	n/a	n/a	n/a	n/a	n/a	n/a	n/a	yellow
203.6429	1.0833	ITI	n/a	n/a	n/a	n/a	n/a	n/a	n/a	n/a
216.3117	n/a	RESPONSE	n/a	n/a	n/a	n/a	n/a	n/a	n/a	n/a
216.3763	1.0167	ITI	n/a	n/a	n/a	n/a	n/a	n/a	n/a	n/a
217.393	0.5167	FIXCROSS	n/a	n/a	n/a	n/a	n/a	n/a	n/a	n/a
217.9097	5.0167	T_COLOR_NAME	1	Neutral	zielony	green	Neutral	Neutral	incorrect	n/a
219.3796	n/a	RESPONSE	n/a	n/a	n/a	n/a	n/a	n/a	n/a	n/a
220.0507	n/a	RESPONSE	n/a	n/a	n/a	n/a	n/a	n/a	n/a	green
222.0319	n/a	RESPONSE	n/a	n/a	n/a	n/a	n/a	n/a	n/a	green
222.9264	0.5167	FEEDBACK	n/a	n/a	n/a	n/a	n/a	n/a	n/a	n/a
223.4431	1.0167	ITI	n/a	n/a	n/a	n/a	n/a	n/a	n/a	n/a
224.4597	0.5167	FIXCROSS	n/a	n/a	n/a	n/a	n/a	n/a	n/a	n/a
224.9764	1.7167	T_COLOR_NAME	2	Incongruent	niebieski	blue	zielony	green	hit	n/a
226.6657	n/a	RESPONSE	n/a	n/a	n/a	n/a	n/a	n/a	n/a	blue
226.6931	0.5167	FEEDBACK	n/a	n/a	n/a	n/a	n/a	n/a	n/a	n/a
227.2098	1.0167	ITI	n/a	n/a	n/a	n/a	n/a	n/a	n/a	n/a
228.2264	0.5167	FIXCROSS	n/a	n/a	n/a	n/a	n/a	n/a	n/a	n/a
228.7431	1.5333	T_COLOR_NAME	3	Incongruent	żółty	yellow	niebieski	blue	hit	n/a
230.2448	n/a	RESPONSE	n/a	n/a	n/a	n/a	n/a	n/a	n/a	yellow
230.2764	0.5167	FEEDBACK	n/a	n/a	n/a	n/a	n/a	n/a	n/a	n/a
230.7931	1.0167	ITI	n/a	n/a	n/a	n/a	n/a	n/a	n/a	n/a
231.8098	0.5167	FIXCROSS	n/a	n/a	n/a	n/a	n/a	n/a	n/a	n/a
232.3265	1.2333	T_COLOR_NAME	4	Incongruent	czerwony	red	żółty	yellow	incorrect	n/a
233.5364	n/a	RESPONSE	n/a	n/a	n/a	n/a	n/a	n/a	n/a	yellow
233.5598	0.5167	FEEDBACK	n/a	n/a	n/a	n/a	n/a	n/a	n/a	n/a
234.0765	1.0167	ITI	n/a	n/a	n/a	n/a	n/a	n/a	n/a	n/a
235.0932	0.5167	FIXCROSS	n/a	n/a	n/a	n/a	n/a	n/a	n/a	n/a
235.6098	1.3667	T_COLOR_NAME	5	Incongruent	żółty	yellow	czerwony	red	incorrect	n/a
236.9557	n/a	RESPONSE	n/a	n/a	n/a	n/a	n/a	n/a	n/a	red
236.9765	0.5167	FEEDBACK	n/a	n/a	n/a	n/a	n/a	n/a	n/a	n/a
237.4932	1.0167	ITI	n/a	n/a	n/a	n/a	n/a	n/a	n/a	n/a
238.5099	0.5167	FIXCROSS	n/a	n/a	n/a	n/a	n/a	n/a	n/a	n/a
239.0265	1.8	T_COLOR_NAME	6	Incongruent	niebieski	blue	czerwony	red	hit	n/a
240.8065	n/a	RESPONSE	n/a	n/a	n/a	n/a	n/a	n/a	n/a	blue
240.8265	0.5167	FEEDBACK	n/a	n/a	n/a	n/a	n/a	n/a	n/a	n/a
241.3432	1.0167	ITI	n/a	n/a	n/a	n/a	n/a	n/a	n/a	n/a
242.3599	0.5167	FIXCROSS	n/a	n/a	n/a	n/a	n/a	n/a	n/a	n/a
242.8765	5.0167	T_COLOR_NAME	7	Neutral	zielony	green	Neutral	Neutral	incorrect	n/a
243.7466	n/a	RESPONSE	n/a	n/a	n/a	n/a	n/a	n/a	n/a	n/a
246.7665	n/a	RESPONSE	n/a	n/a	n/a	n/a	n/a	n/a	n/a	green
247.7731	n/a	RESPONSE	n/a	n/a	n/a	n/a	n/a	n/a	n/a	green
247.8932	0.5167	FEEDBACK	n/a	n/a	n/a	n/a	n/a	n/a	n/a	n/a
248.4099	1.0167	ITI	n/a	n/a	n/a	n/a	n/a	n/a	n/a	n/a
249.4266	0.5167	FIXCROSS	n/a	n/a	n/a	n/a	n/a	n/a	n/a	n/a
249.9433	1.4	T_COLOR_NAME	8	Incongruent	czerwony	red	zielony	green	hit	n/a
251.3203	n/a	RESPONSE	n/a	n/a	n/a	n/a	n/a	n/a	n/a	red
251.3433	0.5167	FEEDBACK	n/a	n/a	n/a	n/a	n/a	n/a	n/a	n/a
251.8599	1.0167	ITI	n/a	n/a	n/a	n/a	n/a	n/a	n/a	n/a
252.8766	0.5167	FIXCROSS	n/a	n/a	n/a	n/a	n/a	n/a	n/a	n/a
253.3933	1.6333	T_COLOR_NAME	9	Neutral	niebieski	blue	Neutral	Neutral	hit	n/a
254.9954	n/a	RESPONSE	n/a	n/a	n/a	n/a	n/a	n/a	n/a	blue
255.0266	0.5167	FEEDBACK	n/a	n/a	n/a	n/a	n/a	n/a	n/a	n/a
255.5433	1.0167	ITI	n/a	n/a	n/a	n/a	n/a	n/a	n/a	n/a
256.56	0.5167	FIXCROSS	n/a	n/a	n/a	n/a	n/a	n/a	n/a	n/a
257.0767	0.8833	T_COLOR_NAME	10	Neutral	zielony	green	Neutral	Neutral	hit	n/a
257.9354	n/a	RESPONSE	n/a	n/a	n/a	n/a	n/a	n/a	n/a	green
257.96	0.5167	FEEDBACK	n/a	n/a	n/a	n/a	n/a	n/a	n/a	n/a
258.4767	1.0167	ITI	n/a	n/a	n/a	n/a	n/a	n/a	n/a	n/a
259.4933	0.5167	FIXCROSS	n/a	n/a	n/a	n/a	n/a	n/a	n/a	n/a
260.01	1.0	T_COLOR_NAME	11	Neutral	żółty	yellow	Neutral	Neutral	hit	n/a
260.9873	n/a	RESPONSE	n/a	n/a	n/a	n/a	n/a	n/a	n/a	yellow
261.01	0.5167	FEEDBACK	n/a	n/a	n/a	n/a	n/a	n/a	n/a	n/a
261.5267	1.0167	ITI	n/a	n/a	n/a	n/a	n/a	n/a	n/a	n/a
262.5434	0.5167	FIXCROSS	n/a	n/a	n/a	n/a	n/a	n/a	n/a	n/a
263.06	1.2167	T_COLOR_NAME	12	Incongruent	zielony	green	żółty	yellow	hit	n/a
264.2467	n/a	RESPONSE	n/a	n/a	n/a	n/a	n/a	n/a	n/a	green
264.2767	0.5167	FEEDBACK	n/a	n/a	n/a	n/a	n/a	n/a	n/a	n/a
264.7934	1.0333	ITI	n/a	n/a	n/a	n/a	n/a	n/a	n/a	n/a
268.6569	n/a	RESPONSE	n/a	n/a	n/a	n/a	n/a	n/a	n/a	n/a
268.7101	1.0167	ITI	n/a	n/a	n/a	n/a	n/a	n/a	n/a	n/a
269.7268	0.5167	FIXCROSS	n/a	n/a	n/a	n/a	n/a	n/a	n/a	n/a
270.2434	1.1667	COLOR_NAME	1	Neutral	czerwony	red	Neutral	Neutral	hit	n/a
271.3892	n/a	RESPONSE	n/a	n/a	n/a	n/a	n/a	n/a	n/a	red
271.4101	1.0167	ITI	n/a	n/a	n/a	n/a	n/a	n/a	n/a	n/a
272.4268	0.5167	FIXCROSS	n/a	n/a	n/a	n/a	n/a	n/a	n/a	n/a
272.9434	0.9	COLOR_NAME	2	Neutral	niebieski	blue	Neutral	Neutral	hit	n/a
273.8179	n/a	RESPONSE	n/a	n/a	n/a	n/a	n/a	n/a	n/a	blue
273.8434	1.0167	ITI	n/a	n/a	n/a	n/a	n/a	n/a	n/a	n/a
274.8601	0.5167	FIXCROSS	n/a	n/a	n/a	n/a	n/a	n/a	n/a	n/a
275.3768	0.7	COLOR_NAME	3	Neutral	czerwony	red	Neutral	Neutral	hit	n/a
276.0549	n/a	RESPONSE	n/a	n/a	n/a	n/a	n/a	n/a	n/a	red
276.0768	1.0167	ITI	n/a	n/a	n/a	n/a	n/a	n/a	n/a	n/a
277.0935	0.5167	FIXCROSS	n/a	n/a	n/a	n/a	n/a	n/a	n/a	n/a
277.6101	0.8833	COLOR_NAME	4	Neutral	żółty	yellow	Neutral	Neutral	hit	n/a
278.4676	n/a	RESPONSE	n/a	n/a	n/a	n/a	n/a	n/a	n/a	yellow
278.4935	1.0167	ITI	n/a	n/a	n/a	n/a	n/a	n/a	n/a	n/a
279.5102	0.5167	FIXCROSS	n/a	n/a	n/a	n/a	n/a	n/a	n/a	n/a
280.0268	0.7333	COLOR_NAME	5	Neutral	zielony	green	Neutral	Neutral	hit	n/a
280.7366	n/a	RESPONSE	n/a	n/a	n/a	n/a	n/a	n/a	n/a	green
280.7602	1.0167	ITI	n/a	n/a	n/a	n/a	n/a	n/a	n/a	n/a
281.7769	0.5167	FIXCROSS	n/a	n/a	n/a	n/a	n/a	n/a	n/a	n/a
282.2935	0.9	COLOR_NAME	6	Neutral	żółty	yellow	Neutral	Neutral	hit	n/a
283.1653	n/a	RESPONSE	n/a	n/a	n/a	n/a	n/a	n/a	n/a	yellow
283.1935	1.0167	ITI	n/a	n/a	n/a	n/a	n/a	n/a	n/a	n/a
284.2102	0.5167	FIXCROSS	n/a	n/a	n/a	n/a	n/a	n/a	n/a	n/a
284.7269	0.8	COLOR_NAME	7	Neutral	czerwony	red	Neutral	Neutral	hit	n/a
285.4982	n/a	RESPONSE	n/a	n/a	n/a	n/a	n/a	n/a	n/a	red
285.5269	1.0167	ITI	n/a	n/a	n/a	n/a	n/a	n/a	n/a	n/a
286.5436	0.5167	FIXCROSS	n/a	n/a	n/a	n/a	n/a	n/a	n/a	n/a
287.0602	0.6667	COLOR_NAME	8	Neutral	niebieski	blue	Neutral	Neutral	hit	n/a
287.7033	n/a	RESPONSE	n/a	n/a	n/a	n/a	n/a	n/a	n/a	blue
287.7269	1.0167	ITI	n/a	n/a	n/a	n/a	n/a	n/a	n/a	n/a
288.7436	0.5167	FIXCROSS	n/a	n/a	n/a	n/a	n/a	n/a	n/a	n/a
289.2602	0.8333	COLOR_NAME	9	Incongruent	czerwony	red	niebieski	blue	hit	n/a
290.068	n/a	RESPONSE	n/a	n/a	n/a	n/a	n/a	n/a	n/a	red
290.0936	1.0167	ITI	n/a	n/a	n/a	n/a	n/a	n/a	n/a	n/a
291.1102	0.5167	FIXCROSS	n/a	n/a	n/a	n/a	n/a	n/a	n/a	n/a
291.6269	0.6833	COLOR_NAME	10	Incongruent	czerwony	red	zielony	green	hit	n/a
292.289	n/a	RESPONSE	n/a	n/a	n/a	n/a	n/a	n/a	n/a	red
292.3103	1.0167	ITI	n/a	n/a	n/a	n/a	n/a	n/a	n/a	n/a
293.3269	0.5167	FIXCROSS	n/a	n/a	n/a	n/a	n/a	n/a	n/a	n/a
293.8436	1.0167	COLOR_NAME	11	Neutral	zielony	green	Neutral	Neutral	hit	n/a
294.8296	n/a	RESPONSE	n/a	n/a	n/a	n/a	n/a	n/a	n/a	green
294.8603	1.0167	ITI	n/a	n/a	n/a	n/a	n/a	n/a	n/a	n/a
295.877	0.5167	FIXCROSS	n/a	n/a	n/a	n/a	n/a	n/a	n/a	n/a
296.3936	0.8167	COLOR_NAME	12	Neutral	żółty	yellow	Neutral	Neutral	hit	n/a
297.1784	n/a	RESPONSE	n/a	n/a	n/a	n/a	n/a	n/a	n/a	yellow
297.2103	1.0167	ITI	n/a	n/a	n/a	n/a	n/a	n/a	n/a	n/a
298.227	0.5167	FIXCROSS	n/a	n/a	n/a	n/a	n/a	n/a	n/a	n/a
298.7436	1.0	COLOR_NAME	13	Incongruent	niebieski	blue	żółty	yellow	hit	n/a
299.719	n/a	RESPONSE	n/a	n/a	n/a	n/a	n/a	n/a	n/a	blue
299.7436	1.0167	ITI	n/a	n/a	n/a	n/a	n/a	n/a	n/a	n/a
300.7603	0.5167	FIXCROSS	n/a	n/a	n/a	n/a	n/a	n/a	n/a	n/a
301.277	1.0833	COLOR_NAME	14	Neutral	żółty	yellow	Neutral	Neutral	hit	n/a
302.3395	n/a	RESPONSE	n/a	n/a	n/a	n/a	n/a	n/a	n/a	yellow
302.3603	1.0167	ITI	n/a	n/a	n/a	n/a	n/a	n/a	n/a	n/a
303.377	0.5167	FIXCROSS	n/a	n/a	n/a	n/a	n/a	n/a	n/a	n/a
303.8937	0.75	COLOR_NAME	15	Neutral	czerwony	red	Neutral	Neutral	hit	n/a
304.6243	n/a	RESPONSE	n/a	n/a	n/a	n/a	n/a	n/a	n/a	red
304.6437	1.0167	ITI	n/a	n/a	n/a	n/a	n/a	n/a	n/a	n/a
305.6604	0.5167	FIXCROSS	n/a	n/a	n/a	n/a	n/a	n/a	n/a	n/a
306.177	1.05	COLOR_NAME	16	Incongruent	niebieski	blue	żółty	yellow	hit	n/a
307.1968	n/a	RESPONSE	n/a	n/a	n/a	n/a	n/a	n/a	n/a	blue
307.227	1.0167	ITI	n/a	n/a	n/a	n/a	n/a	n/a	n/a	n/a
308.2437	0.5167	FIXCROSS	n/a	n/a	n/a	n/a	n/a	n/a	n/a	n/a
308.7604	0.9333	COLOR_NAME	17	Incongruent	żółty	yellow	niebieski	blue	hit	n/a
309.6735	n/a	RESPONSE	n/a	n/a	n/a	n/a	n/a	n/a	n/a	yellow
309.6937	1.0167	ITI	n/a	n/a	n/a	n/a	n/a	n/a	n/a	n/a
310.7104	0.5167	FIXCROSS	n/a	n/a	n/a	n/a	n/a	n/a	n/a	n/a
311.2271	0.85	COLOR_NAME	18	Neutral	zielony	green	Neutral	Neutral	hit	n/a
312.0544	n/a	RESPONSE	n/a	n/a	n/a	n/a	n/a	n/a	n/a	green
312.0771	1.0167	ITI	n/a	n/a	n/a	n/a	n/a	n/a	n/a	n/a
313.0938	0.5167	FIXCROSS	n/a	n/a	n/a	n/a	n/a	n/a	n/a	n/a
313.6104	0.8833	COLOR_NAME	19	Incongruent	żółty	yellow	czerwony	red	hit	n/a
314.467	n/a	RESPONSE	n/a	n/a	n/a	n/a	n/a	n/a	n/a	yellow
314.4938	1.0167	ITI	n/a	n/a	n/a	n/a	n/a	n/a	n/a	n/a
315.5104	0.5167	FIXCROSS	n/a	n/a	n/a	n/a	n/a	n/a	n/a	n/a
316.0271	0.8667	COLOR_NAME	20	Neutral	niebieski	blue	Neutral	Neutral	hit	n/a
316.8636	n/a	RESPONSE	n/a	n/a	n/a	n/a	n/a	n/a	n/a	blue
316.8938	1.0167	ITI	n/a	n/a	n/a	n/a	n/a	n/a	n/a	n/a
317.9105	0.5167	FIXCROSS	n/a	n/a	n/a	n/a	n/a	n/a	n/a	n/a
318.4271	0.8167	COLOR_NAME	21	Neutral	niebieski	blue	Neutral	Neutral	hit	n/a
319.2121	n/a	RESPONSE	n/a	n/a	n/a	n/a	n/a	n/a	n/a	blue
319.2438	1.0167	ITI	n/a	n/a	n/a	n/a	n/a	n/a	n/a	n/a
320.2605	0.5167	FIXCROSS	n/a	n/a	n/a	n/a	n/a	n/a	n/a	n/a
320.7771	0.7167	COLOR_NAME	22	Neutral	niebieski	blue	Neutral	Neutral	hit	n/a
321.4652	n/a	RESPONSE	n/a	n/a	n/a	n/a	n/a	n/a	n/a	blue
321.4938	1.0167	ITI	n/a	n/a	n/a	n/a	n/a	n/a	n/a	n/a
322.5105	0.5167	FIXCROSS	n/a	n/a	n/a	n/a	n/a	n/a	n/a	n/a
323.0272	0.7167	COLOR_NAME	23	Incongruent	niebieski	blue	czerwony	red	hit	n/a
323.7182	n/a	RESPONSE	n/a	n/a	n/a	n/a	n/a	n/a	n/a	blue
323.7438	1.0167	ITI	n/a	n/a	n/a	n/a	n/a	n/a	n/a	n/a
324.7605	0.5167	FIXCROSS	n/a	n/a	n/a	n/a	n/a	n/a	n/a	n/a
325.2772	0.8	COLOR_NAME	24	Incongruent	zielony	green	niebieski	blue	hit	n/a
326.0509	n/a	RESPONSE	n/a	n/a	n/a	n/a	n/a	n/a	n/a	green
326.0772	1.0167	ITI	n/a	n/a	n/a	n/a	n/a	n/a	n/a	n/a
327.0939	0.5167	FIXCROSS	n/a	n/a	n/a	n/a	n/a	n/a	n/a	n/a
327.6105	0.7	COLOR_NAME	25	Incongruent	żółty	yellow	zielony	green	hit	n/a
328.2878	n/a	RESPONSE	n/a	n/a	n/a	n/a	n/a	n/a	n/a	yellow
328.3105	1.0167	ITI	n/a	n/a	n/a	n/a	n/a	n/a	n/a	n/a
329.3272	0.5167	FIXCROSS	n/a	n/a	n/a	n/a	n/a	n/a	n/a	n/a
329.8439	0.7	COLOR_NAME	26	Neutral	żółty	yellow	Neutral	Neutral	hit	n/a
330.5248	n/a	RESPONSE	n/a	n/a	n/a	n/a	n/a	n/a	n/a	yellow
330.5439	1.0167	ITI	n/a	n/a	n/a	n/a	n/a	n/a	n/a	n/a
331.5606	0.5167	FIXCROSS	n/a	n/a	n/a	n/a	n/a	n/a	n/a	n/a
332.0772	0.7167	COLOR_NAME	27	Neutral	czerwony	red	Neutral	Neutral	hit	n/a
332.7618	n/a	RESPONSE	n/a	n/a	n/a	n/a	n/a	n/a	n/a	red
332.7939	1.0167	ITI	n/a	n/a	n/a	n/a	n/a	n/a	n/a	n/a
333.8106	0.5167	FIXCROSS	n/a	n/a	n/a	n/a	n/a	n/a	n/a	n/a
334.3273	0.7167	COLOR_NAME	28	Neutral	żółty	yellow	Neutral	Neutral	hit	n/a
335.0146	n/a	RESPONSE	n/a	n/a	n/a	n/a	n/a	n/a	n/a	yellow
335.0439	1.0167	ITI	n/a	n/a	n/a	n/a	n/a	n/a	n/a	n/a
336.0606	0.5167	FIXCROSS	n/a	n/a	n/a	n/a	n/a	n/a	n/a	n/a
336.5773	0.75	COLOR_NAME	29	Neutral	niebieski	blue	Neutral	Neutral	hit	n/a
337.2996	n/a	RESPONSE	n/a	n/a	n/a	n/a	n/a	n/a	n/a	blue
337.3273	1.0167	ITI	n/a	n/a	n/a	n/a	n/a	n/a	n/a	n/a
338.3439	0.5167	FIXCROSS	n/a	n/a	n/a	n/a	n/a	n/a	n/a	n/a
338.8606	0.55	COLOR_NAME	30	Neutral	zielony	green	Neutral	Neutral	hit	n/a
339.3927	n/a	RESPONSE	n/a	n/a	n/a	n/a	n/a	n/a	n/a	green
339.4106	1.0167	ITI	n/a	n/a	n/a	n/a	n/a	n/a	n/a	n/a
340.4273	0.5167	FIXCROSS	n/a	n/a	n/a	n/a	n/a	n/a	n/a	n/a
340.944	0.7333	COLOR_NAME	31	Incongruent	niebieski	blue	zielony	green	hit	n/a
341.6457	n/a	RESPONSE	n/a	n/a	n/a	n/a	n/a	n/a	n/a	blue
341.6773	1.0167	ITI	n/a	n/a	n/a	n/a	n/a	n/a	n/a	n/a
342.694	0.5167	FIXCROSS	n/a	n/a	n/a	n/a	n/a	n/a	n/a	n/a
343.2107	0.8167	COLOR_NAME	32	Incongruent	zielony	green	żółty	yellow	hit	n/a
343.9945	n/a	RESPONSE	n/a	n/a	n/a	n/a	n/a	n/a	n/a	green
344.0273	1.0167	ITI	n/a	n/a	n/a	n/a	n/a	n/a	n/a	n/a
345.044	0.5167	FIXCROSS	n/a	n/a	n/a	n/a	n/a	n/a	n/a	n/a
345.5607	1.0167	COLOR_NAME	33	Incongruent	niebieski	blue	czerwony	red	hit	n/a
346.5511	n/a	RESPONSE	n/a	n/a	n/a	n/a	n/a	n/a	n/a	blue
346.5773	1.0167	ITI	n/a	n/a	n/a	n/a	n/a	n/a	n/a	n/a
347.594	0.5167	FIXCROSS	n/a	n/a	n/a	n/a	n/a	n/a	n/a	n/a
348.1107	0.6667	COLOR_NAME	34	Incongruent	żółty	yellow	zielony	green	hit	n/a
348.7561	n/a	RESPONSE	n/a	n/a	n/a	n/a	n/a	n/a	n/a	yellow
348.7774	1.0167	ITI	n/a	n/a	n/a	n/a	n/a	n/a	n/a	n/a
349.794	0.5167	FIXCROSS	n/a	n/a	n/a	n/a	n/a	n/a	n/a	n/a
350.3107	0.8333	COLOR_NAME	35	Neutral	zielony	green	Neutral	Neutral	hit	n/a
351.1209	n/a	RESPONSE	n/a	n/a	n/a	n/a	n/a	n/a	n/a	green
351.144	1.0167	ITI	n/a	n/a	n/a	n/a	n/a	n/a	n/a	n/a
352.1607	0.5167	FIXCROSS	n/a	n/a	n/a	n/a	n/a	n/a	n/a	n/a
352.6774	0.9333	COLOR_NAME	36	Incongruent	czerwony	red	niebieski	blue	hit	n/a
353.5817	n/a	RESPONSE	n/a	n/a	n/a	n/a	n/a	n/a	n/a	red
353.6107	1.0167	ITI	n/a	n/a	n/a	n/a	n/a	n/a	n/a	n/a
354.6274	0.5167	FIXCROSS	n/a	n/a	n/a	n/a	n/a	n/a	n/a	n/a
355.1441	0.5833	COLOR_NAME	37	Incongruent	zielony	green	żółty	yellow	incorrect	n/a
355.7068	n/a	RESPONSE	n/a	n/a	n/a	n/a	n/a	n/a	n/a	yellow
355.7274	1.0167	ITI	n/a	n/a	n/a	n/a	n/a	n/a	n/a	n/a
356.7441	0.5167	FIXCROSS	n/a	n/a	n/a	n/a	n/a	n/a	n/a	n/a
357.2608	0.7667	COLOR_NAME	38	Neutral	niebieski	blue	Neutral	Neutral	hit	n/a
358.0076	n/a	RESPONSE	n/a	n/a	n/a	n/a	n/a	n/a	n/a	blue
358.0274	1.0167	ITI	n/a	n/a	n/a	n/a	n/a	n/a	n/a	n/a
359.0441	0.5167	FIXCROSS	n/a	n/a	n/a	n/a	n/a	n/a	n/a	n/a
359.5608	0.95	COLOR_NAME	39	Incongruent	zielony	green	czerwony	red	hit	n/a
360.4843	n/a	RESPONSE	n/a	n/a	n/a	n/a	n/a	n/a	n/a	green
360.5108	1.0167	ITI	n/a	n/a	n/a	n/a	n/a	n/a	n/a	n/a
361.5275	0.5167	FIXCROSS	n/a	n/a	n/a	n/a	n/a	n/a	n/a	n/a
362.0441	0.5	COLOR_NAME	40	Neutral	czerwony	red	Neutral	Neutral	hit	n/a
362.5137	n/a	RESPONSE	n/a	n/a	n/a	n/a	n/a	n/a	n/a	red
362.5441	1.0167	ITI	n/a	n/a	n/a	n/a	n/a	n/a	n/a	n/a
363.5608	0.5167	FIXCROSS	n/a	n/a	n/a	n/a	n/a	n/a	n/a	n/a
364.0775	0.7167	COLOR_NAME	41	Neutral	zielony	green	Neutral	Neutral	hit	n/a
364.7667	n/a	RESPONSE	n/a	n/a	n/a	n/a	n/a	n/a	n/a	green
364.7942	1.0167	ITI	n/a	n/a	n/a	n/a	n/a	n/a	n/a	n/a
365.8108	0.5167	FIXCROSS	n/a	n/a	n/a	n/a	n/a	n/a	n/a	n/a
366.3275	1.1	COLOR_NAME	42	Incongruent	niebieski	blue	żółty	yellow	hit	n/a
367.403	n/a	RESPONSE	n/a	n/a	n/a	n/a	n/a	n/a	n/a	blue
367.4275	1.0167	ITI	n/a	n/a	n/a	n/a	n/a	n/a	n/a	n/a
368.4442	0.5167	FIXCROSS	n/a	n/a	n/a	n/a	n/a	n/a	n/a	n/a
368.9608	0.85	COLOR_NAME	43	Neutral	zielony	green	Neutral	Neutral	hit	n/a
369.7839	n/a	RESPONSE	n/a	n/a	n/a	n/a	n/a	n/a	n/a	green
369.8109	1.0167	ITI	n/a	n/a	n/a	n/a	n/a	n/a	n/a	n/a
370.8275	0.5167	FIXCROSS	n/a	n/a	n/a	n/a	n/a	n/a	n/a	n/a
371.3442	0.5833	COLOR_NAME	44	Incongruent	żółty	yellow	niebieski	blue	hit	n/a
371.893	n/a	RESPONSE	n/a	n/a	n/a	n/a	n/a	n/a	n/a	yellow
371.9275	1.0167	ITI	n/a	n/a	n/a	n/a	n/a	n/a	n/a	n/a
372.9442	0.5167	FIXCROSS	n/a	n/a	n/a	n/a	n/a	n/a	n/a	n/a
373.4609	0.85	COLOR_NAME	45	Incongruent	żółty	yellow	czerwony	red	hit	n/a
374.2898	n/a	RESPONSE	n/a	n/a	n/a	n/a	n/a	n/a	n/a	yellow
374.3109	1.0167	ITI	n/a	n/a	n/a	n/a	n/a	n/a	n/a	n/a
375.3276	0.5167	FIXCROSS	n/a	n/a	n/a	n/a	n/a	n/a	n/a	n/a
375.8442	0.7333	COLOR_NAME	46	Neutral	niebieski	blue	Neutral	Neutral	hit	n/a
376.5588	n/a	RESPONSE	n/a	n/a	n/a	n/a	n/a	n/a	n/a	blue
376.5776	1.0167	ITI	n/a	n/a	n/a	n/a	n/a	n/a	n/a	n/a
377.5942	0.5167	FIXCROSS	n/a	n/a	n/a	n/a	n/a	n/a	n/a	n/a
378.1109	0.6167	COLOR_NAME	47	Incongruent	czerwony	red	żółty	yellow	hit	n/a
378.6999	n/a	RESPONSE	n/a	n/a	n/a	n/a	n/a	n/a	n/a	red
378.7276	1.0167	ITI	n/a	n/a	n/a	n/a	n/a	n/a	n/a	n/a
379.7443	0.5167	FIXCROSS	n/a	n/a	n/a	n/a	n/a	n/a	n/a	n/a
380.2609	0.55	COLOR_NAME	48	Incongruent	czerwony	red	niebieski	blue	hit	n/a
380.793	n/a	RESPONSE	n/a	n/a	n/a	n/a	n/a	n/a	n/a	red
380.8109	1.0167	ITI	n/a	n/a	n/a	n/a	n/a	n/a	n/a	n/a
381.8276	0.5167	FIXCROSS	n/a	n/a	n/a	n/a	n/a	n/a	n/a	n/a
382.3443	0.7833	COLOR_NAME	49	Incongruent	zielony	green	niebieski	blue	hit	n/a
383.0938	n/a	RESPONSE	n/a	n/a	n/a	n/a	n/a	n/a	n/a	green
383.1276	1.0167	ITI	n/a	n/a	n/a	n/a	n/a	n/a	n/a	n/a
384.1443	0.5167	FIXCROSS	n/a	n/a	n/a	n/a	n/a	n/a	n/a	n/a
384.661	0.55	COLOR_NAME	50	Incongruent	czerwony	red	żółty	yellow	hit	n/a
385.1869	n/a	RESPONSE	n/a	n/a	n/a	n/a	n/a	n/a	n/a	red
385.211	1.0167	ITI	n/a	n/a	n/a	n/a	n/a	n/a	n/a	n/a
386.2276	0.5167	FIXCROSS	n/a	n/a	n/a	n/a	n/a	n/a	n/a	n/a
386.7443	0.75	COLOR_NAME	51	Incongruent	niebieski	blue	zielony	green	hit	n/a
387.4719	n/a	RESPONSE	n/a	n/a	n/a	n/a	n/a	n/a	n/a	blue
387.4943	1.0167	ITI	n/a	n/a	n/a	n/a	n/a	n/a	n/a	n/a
388.511	0.5167	FIXCROSS	n/a	n/a	n/a	n/a	n/a	n/a	n/a	n/a
389.0277	0.8333	COLOR_NAME	52	Incongruent	zielony	green	czerwony	red	hit	n/a
389.8366	n/a	RESPONSE	n/a	n/a	n/a	n/a	n/a	n/a	n/a	green
389.861	1.0167	ITI	n/a	n/a	n/a	n/a	n/a	n/a	n/a	n/a
390.8777	0.5167	FIXCROSS	n/a	n/a	n/a	n/a	n/a	n/a	n/a	n/a
391.3944	0.6167	COLOR_NAME	53	Incongruent	zielony	green	niebieski	blue	hit	n/a
391.9777	n/a	RESPONSE	n/a	n/a	n/a	n/a	n/a	n/a	n/a	green
392.011	1.0167	ITI	n/a	n/a	n/a	n/a	n/a	n/a	n/a	n/a
393.0277	0.5167	FIXCROSS	n/a	n/a	n/a	n/a	n/a	n/a	n/a	n/a
393.5444	0.6667	COLOR_NAME	54	Neutral	żółty	yellow	Neutral	Neutral	hit	n/a
394.1828	n/a	RESPONSE	n/a	n/a	n/a	n/a	n/a	n/a	n/a	yellow
394.211	1.0167	ITI	n/a	n/a	n/a	n/a	n/a	n/a	n/a	n/a
395.2277	0.5167	FIXCROSS	n/a	n/a	n/a	n/a	n/a	n/a	n/a	n/a
395.7444	0.6667	COLOR_NAME	55	Incongruent	żółty	yellow	niebieski	blue	hit	n/a
396.3878	n/a	RESPONSE	n/a	n/a	n/a	n/a	n/a	n/a	n/a	yellow
396.4111	1.0167	ITI	n/a	n/a	n/a	n/a	n/a	n/a	n/a	n/a
397.4277	0.5167	FIXCROSS	n/a	n/a	n/a	n/a	n/a	n/a	n/a	n/a
397.9444	0.4833	COLOR_NAME	56	Neutral	czerwony	red	Neutral	Neutral	hit	n/a
398.4012	n/a	RESPONSE	n/a	n/a	n/a	n/a	n/a	n/a	n/a	red
398.4277	1.0167	ITI	n/a	n/a	n/a	n/a	n/a	n/a	n/a	n/a
399.4444	0.5167	FIXCROSS	n/a	n/a	n/a	n/a	n/a	n/a	n/a	n/a
399.9611	0.8333	COLOR_NAME	57	Neutral	zielony	green	Neutral	Neutral	hit	n/a
400.7659	n/a	RESPONSE	n/a	n/a	n/a	n/a	n/a	n/a	n/a	green
400.7944	1.0167	ITI	n/a	n/a	n/a	n/a	n/a	n/a	n/a	n/a
401.8111	0.5167	FIXCROSS	n/a	n/a	n/a	n/a	n/a	n/a	n/a	n/a
402.3278	0.6333	COLOR_NAME	58	Neutral	żółty	yellow	Neutral	Neutral	hit	n/a
402.939	n/a	RESPONSE	n/a	n/a	n/a	n/a	n/a	n/a	n/a	yellow
402.9611	1.0167	ITI	n/a	n/a	n/a	n/a	n/a	n/a	n/a	n/a
403.9778	0.5167	FIXCROSS	n/a	n/a	n/a	n/a	n/a	n/a	n/a	n/a
404.4945	0.6833	COLOR_NAME	59	Incongruent	żółty	yellow	zielony	green	hit	n/a
405.1441	n/a	RESPONSE	n/a	n/a	n/a	n/a	n/a	n/a	n/a	yellow
405.1778	1.0167	ITI	n/a	n/a	n/a	n/a	n/a	n/a	n/a	n/a
406.1945	0.5167	FIXCROSS	n/a	n/a	n/a	n/a	n/a	n/a	n/a	n/a
406.7111	0.7667	COLOR_NAME	60	Neutral	zielony	green	Neutral	Neutral	hit	n/a
407.4449	n/a	RESPONSE	n/a	n/a	n/a	n/a	n/a	n/a	n/a	green
407.4778	1.0167	ITI	n/a	n/a	n/a	n/a	n/a	n/a	n/a	n/a
408.4945	0.5167	FIXCROSS	n/a	n/a	n/a	n/a	n/a	n/a	n/a	n/a
409.0112	0.75	COLOR_NAME	61	Incongruent	czerwony	red	zielony	green	hit	n/a
409.7299	n/a	RESPONSE	n/a	n/a	n/a	n/a	n/a	n/a	n/a	red
409.7612	1.0167	ITI	n/a	n/a	n/a	n/a	n/a	n/a	n/a	n/a
410.7778	0.5167	FIXCROSS	n/a	n/a	n/a	n/a	n/a	n/a	n/a	n/a
411.2945	0.6333	COLOR_NAME	62	Incongruent	żółty	yellow	czerwony	red	hit	n/a
411.9029	n/a	RESPONSE	n/a	n/a	n/a	n/a	n/a	n/a	n/a	yellow
411.9279	1.0167	ITI	n/a	n/a	n/a	n/a	n/a	n/a	n/a	n/a
412.9445	0.5167	FIXCROSS	n/a	n/a	n/a	n/a	n/a	n/a	n/a	n/a
413.4612	0.65	COLOR_NAME	63	Incongruent	czerwony	red	żółty	yellow	hit	n/a
414.0919	n/a	RESPONSE	n/a	n/a	n/a	n/a	n/a	n/a	n/a	red
414.1112	1.0167	ITI	n/a	n/a	n/a	n/a	n/a	n/a	n/a	n/a
415.1279	0.5167	FIXCROSS	n/a	n/a	n/a	n/a	n/a	n/a	n/a	n/a
415.6445	0.7833	COLOR_NAME	64	Incongruent	zielony	green	żółty	yellow	hit	n/a
416.4088	n/a	RESPONSE	n/a	n/a	n/a	n/a	n/a	n/a	n/a	green
416.4279	1.0167	ITI	n/a	n/a	n/a	n/a	n/a	n/a	n/a	n/a
417.4446	0.5167	FIXCROSS	n/a	n/a	n/a	n/a	n/a	n/a	n/a	n/a
417.9612	0.7667	COLOR_NAME	65	Neutral	żółty	yellow	Neutral	Neutral	hit	n/a
418.7098	n/a	RESPONSE	n/a	n/a	n/a	n/a	n/a	n/a	n/a	yellow
418.7279	1.0167	ITI	n/a	n/a	n/a	n/a	n/a	n/a	n/a	n/a
419.7446	0.5167	FIXCROSS	n/a	n/a	n/a	n/a	n/a	n/a	n/a	n/a
420.2612	0.7833	COLOR_NAME	66	Incongruent	niebieski	blue	zielony	green	hit	n/a
421.0267	n/a	RESPONSE	n/a	n/a	n/a	n/a	n/a	n/a	n/a	blue
421.0446	1.0167	ITI	n/a	n/a	n/a	n/a	n/a	n/a	n/a	n/a
422.0613	0.5167	FIXCROSS	n/a	n/a	n/a	n/a	n/a	n/a	n/a	n/a
422.5779	0.6167	COLOR_NAME	67	Neutral	niebieski	blue	Neutral	Neutral	hit	n/a
423.1678	n/a	RESPONSE	n/a	n/a	n/a	n/a	n/a	n/a	n/a	blue
423.1946	1.0167	ITI	n/a	n/a	n/a	n/a	n/a	n/a	n/a	n/a
424.2113	0.5167	FIXCROSS	n/a	n/a	n/a	n/a	n/a	n/a	n/a	n/a
424.7279	0.55	COLOR_NAME	68	Neutral	czerwony	red	Neutral	Neutral	hit	n/a
425.245	n/a	RESPONSE	n/a	n/a	n/a	n/a	n/a	n/a	n/a	red
425.2779	1.0167	ITI	n/a	n/a	n/a	n/a	n/a	n/a	n/a	n/a
426.2946	0.5167	FIXCROSS	n/a	n/a	n/a	n/a	n/a	n/a	n/a	n/a
426.8113	0.65	COLOR_NAME	69	Incongruent	czerwony	red	zielony	green	hit	n/a
427.4341	n/a	RESPONSE	n/a	n/a	n/a	n/a	n/a	n/a	n/a	red
427.4613	1.0167	ITI	n/a	n/a	n/a	n/a	n/a	n/a	n/a	n/a
428.478	0.5167	FIXCROSS	n/a	n/a	n/a	n/a	n/a	n/a	n/a	n/a
428.9946	0.6833	COLOR_NAME	70	Incongruent	niebieski	blue	czerwony	red	hit	n/a
429.6551	n/a	RESPONSE	n/a	n/a	n/a	n/a	n/a	n/a	n/a	blue
429.678	1.0167	ITI	n/a	n/a	n/a	n/a	n/a	n/a	n/a	n/a
430.6947	0.5167	FIXCROSS	n/a	n/a	n/a	n/a	n/a	n/a	n/a	n/a
431.2113	0.8667	COLOR_NAME	71	Incongruent	zielony	green	czerwony	red	hit	n/a
432.0519	n/a	RESPONSE	n/a	n/a	n/a	n/a	n/a	n/a	n/a	green
432.078	1.0167	ITI	n/a	n/a	n/a	n/a	n/a	n/a	n/a	n/a
433.0947	0.5167	FIXCROSS	n/a	n/a	n/a	n/a	n/a	n/a	n/a	n/a
433.6113	0.4833	COLOR_NAME	72	Neutral	czerwony	red	Neutral	Neutral	hit	n/a
434.0651	n/a	RESPONSE	n/a	n/a	n/a	n/a	n/a	n/a	n/a	red
434.0947	1.0333	ITI	n/a	n/a	n/a	n/a	n/a	n/a	n/a	n/a
437.3407	n/a	RESPONSE	n/a	n/a	n/a	n/a	n/a	n/a	n/a	n/a
