onset	duration	trial_type	trial_number	stroop_condition	stim_text(PL)	stim_text(eng)	stim_color(PL)	stim_color(eng)	response_type	response_color
0.0	n/a	RESPONSE	n/a	n/a	n/a	n/a	n/a	n/a	n/a	n/a
0.0619	1.0333	ITI	n/a	n/a	n/a	n/a	n/a	n/a	n/a	n/a
1.0952	0.5167	FIXCROSS	n/a	n/a	n/a	n/a	n/a	n/a	n/a	n/a
1.6119	4.7834	T_INK	1	Incongruent	żółty	yellow	niebieski	blue	hit	n/a
6.3664	n/a	RESPONSE	n/a	n/a	n/a	n/a	n/a	n/a	n/a	blue
6.3953	0.5167	FEEDBACK	n/a	n/a	n/a	n/a	n/a	n/a	n/a	n/a
6.912	1.0167	ITI	n/a	n/a	n/a	n/a	n/a	n/a	n/a	n/a
7.9286	0.5167	FIXCROSS	n/a	n/a	n/a	n/a	n/a	n/a	n/a	n/a
8.4453	1.2334	T_INK	2	Incongruent	żółty	yellow	zielony	green	hit	n/a
9.6456	n/a	RESPONSE	n/a	n/a	n/a	n/a	n/a	n/a	n/a	green
9.6787	0.5167	FEEDBACK	n/a	n/a	n/a	n/a	n/a	n/a	n/a	n/a
10.1953	1.0167	ITI	n/a	n/a	n/a	n/a	n/a	n/a	n/a	n/a
11.212	0.5167	FIXCROSS	n/a	n/a	n/a	n/a	n/a	n/a	n/a	n/a
11.7287	0.8667	T_INK	3	Incongruent	zielony	green	czerwony	red	hit	n/a
12.5729	n/a	RESPONSE	n/a	n/a	n/a	n/a	n/a	n/a	n/a	red
12.5954	0.5167	FEEDBACK	n/a	n/a	n/a	n/a	n/a	n/a	n/a	n/a
13.112	1.0167	ITI	n/a	n/a	n/a	n/a	n/a	n/a	n/a	n/a
14.1287	0.5167	FIXCROSS	n/a	n/a	n/a	n/a	n/a	n/a	n/a	n/a
14.6454	0.7833	T_INK	4	Neutral	xxxxxxxxx	xxxxxxxxx	zielony	green	hit	n/a
15.4043	n/a	RESPONSE	n/a	n/a	n/a	n/a	n/a	n/a	n/a	green
15.4287	0.5167	FEEDBACK	n/a	n/a	n/a	n/a	n/a	n/a	n/a	n/a
15.9454	1.0167	ITI	n/a	n/a	n/a	n/a	n/a	n/a	n/a	n/a
16.9621	0.5167	FIXCROSS	n/a	n/a	n/a	n/a	n/a	n/a	n/a	n/a
17.4788	0.6667	T_INK	5	Neutral	xxxxx	xxxxx	czerwony	red	hit	n/a
18.1237	n/a	RESPONSE	n/a	n/a	n/a	n/a	n/a	n/a	n/a	red
18.1454	0.5167	FEEDBACK	n/a	n/a	n/a	n/a	n/a	n/a	n/a	n/a
18.6621	1.0167	ITI	n/a	n/a	n/a	n/a	n/a	n/a	n/a	n/a
19.6788	0.5167	FIXCROSS	n/a	n/a	n/a	n/a	n/a	n/a	n/a	n/a
20.1955	0.7333	T_INK	6	Incongruent	niebieski	blue	czerwony	red	hit	n/a
20.907	n/a	RESPONSE	n/a	n/a	n/a	n/a	n/a	n/a	n/a	red
20.9288	0.5167	FEEDBACK	n/a	n/a	n/a	n/a	n/a	n/a	n/a	n/a
21.4455	1.0167	ITI	n/a	n/a	n/a	n/a	n/a	n/a	n/a	n/a
22.4622	0.5167	FIXCROSS	n/a	n/a	n/a	n/a	n/a	n/a	n/a	n/a
22.9788	0.8333	T_INK	7	Incongruent	czerwony	red	niebieski	blue	hit	n/a
23.7863	n/a	RESPONSE	n/a	n/a	n/a	n/a	n/a	n/a	n/a	blue
23.8122	0.5167	FEEDBACK	n/a	n/a	n/a	n/a	n/a	n/a	n/a	n/a
24.3289	1.0167	ITI	n/a	n/a	n/a	n/a	n/a	n/a	n/a	n/a
25.3455	0.5167	FIXCROSS	n/a	n/a	n/a	n/a	n/a	n/a	n/a	n/a
25.8622	0.7667	T_INK	8	Neutral	xxxxx	xxxxx	niebieski	blue	hit	n/a
26.6017	n/a	RESPONSE	n/a	n/a	n/a	n/a	n/a	n/a	n/a	blue
26.6289	0.5167	FEEDBACK	n/a	n/a	n/a	n/a	n/a	n/a	n/a	n/a
27.1456	1.0167	ITI	n/a	n/a	n/a	n/a	n/a	n/a	n/a	n/a
28.1623	0.5167	FIXCROSS	n/a	n/a	n/a	n/a	n/a	n/a	n/a	n/a
28.6789	0.7	T_INK	9	Neutral	xxxxxxxx	xxxxxxxx	zielony	green	incorrect	n/a
29.3531	n/a	RESPONSE	n/a	n/a	n/a	n/a	n/a	n/a	n/a	red
29.3789	0.5167	FEEDBACK	n/a	n/a	n/a	n/a	n/a	n/a	n/a	n/a
29.8956	1.0167	ITI	n/a	n/a	n/a	n/a	n/a	n/a	n/a	n/a
30.9123	0.5167	FIXCROSS	n/a	n/a	n/a	n/a	n/a	n/a	n/a	n/a
31.429	0.85	T_INK	10	Neutral	xxxxxxxxx	xxxxxxxxx	czerwony	red	hit	n/a
32.2484	n/a	RESPONSE	n/a	n/a	n/a	n/a	n/a	n/a	n/a	red
32.279	0.5167	FEEDBACK	n/a	n/a	n/a	n/a	n/a	n/a	n/a	n/a
32.7957	1.0167	ITI	n/a	n/a	n/a	n/a	n/a	n/a	n/a	n/a
33.8123	0.5167	FIXCROSS	n/a	n/a	n/a	n/a	n/a	n/a	n/a	n/a
34.329	0.8334	T_INK	11	Neutral	xxxxx	xxxxx	zielony	green	hit	n/a
35.1437	n/a	RESPONSE	n/a	n/a	n/a	n/a	n/a	n/a	n/a	green
35.1624	0.5167	FEEDBACK	n/a	n/a	n/a	n/a	n/a	n/a	n/a	n/a
35.679	1.0167	ITI	n/a	n/a	n/a	n/a	n/a	n/a	n/a	n/a
36.6957	0.5167	FIXCROSS	n/a	n/a	n/a	n/a	n/a	n/a	n/a	n/a
37.2124	0.6667	T_INK	12	Neutral	xxxxxxxx	xxxxxxxx	żółty	yellow	hit	n/a
37.8471	n/a	RESPONSE	n/a	n/a	n/a	n/a	n/a	n/a	n/a	yellow
37.8791	0.5167	FEEDBACK	n/a	n/a	n/a	n/a	n/a	n/a	n/a	n/a
38.3957	1.0334	ITI	n/a	n/a	n/a	n/a	n/a	n/a	n/a	n/a
69.7597	n/a	RESPONSE	n/a	n/a	n/a	n/a	n/a	n/a	n/a	n/a
69.8128	1.0167	ITI	n/a	n/a	n/a	n/a	n/a	n/a	n/a	n/a
70.8295	0.5167	FIXCROSS	n/a	n/a	n/a	n/a	n/a	n/a	n/a	n/a
71.3462	0.85	INK	1	Neutral	xxxxxxxx	xxxxxxxx	zielony	green	hit	n/a
72.1592	n/a	RESPONSE	n/a	n/a	n/a	n/a	n/a	n/a	n/a	green
72.1962	1.0167	ITI	n/a	n/a	n/a	n/a	n/a	n/a	n/a	n/a
73.2129	0.5167	FIXCROSS	n/a	n/a	n/a	n/a	n/a	n/a	n/a	n/a
73.7295	0.9499	INK	2	Incongruent	czerwony	red	niebieski	blue	hit	n/a
74.6546	n/a	RESPONSE	n/a	n/a	n/a	n/a	n/a	n/a	n/a	blue
74.6795	1.0168	ITI	n/a	n/a	n/a	n/a	n/a	n/a	n/a	n/a
75.6962	0.5167	FIXCROSS	n/a	n/a	n/a	n/a	n/a	n/a	n/a	n/a
76.2129	0.6667	INK	3	Incongruent	czerwony	red	zielony	green	hit	n/a
76.8461	n/a	RESPONSE	n/a	n/a	n/a	n/a	n/a	n/a	n/a	green
76.8796	1.0167	ITI	n/a	n/a	n/a	n/a	n/a	n/a	n/a	n/a
77.8963	0.5167	FIXCROSS	n/a	n/a	n/a	n/a	n/a	n/a	n/a	n/a
78.4129	0.6834	INK	4	Neutral	xxxxxxx	xxxxxxx	żółty	yellow	hit	n/a
79.0695	n/a	RESPONSE	n/a	n/a	n/a	n/a	n/a	n/a	n/a	yellow
79.0963	1.0167	ITI	n/a	n/a	n/a	n/a	n/a	n/a	n/a	n/a
80.113	0.5167	FIXCROSS	n/a	n/a	n/a	n/a	n/a	n/a	n/a	n/a
80.6296	0.7167	INK	5	Incongruent	czerwony	red	niebieski	blue	hit	n/a
81.325	n/a	RESPONSE	n/a	n/a	n/a	n/a	n/a	n/a	n/a	blue
81.3463	1.0167	ITI	n/a	n/a	n/a	n/a	n/a	n/a	n/a	n/a
82.363	0.5167	FIXCROSS	n/a	n/a	n/a	n/a	n/a	n/a	n/a	n/a
82.8797	0.6	INK	6	Incongruent	niebieski	blue	czerwony	red	hit	n/a
83.4526	n/a	RESPONSE	n/a	n/a	n/a	n/a	n/a	n/a	n/a	red
83.4797	1.0167	ITI	n/a	n/a	n/a	n/a	n/a	n/a	n/a	n/a
84.4964	0.5167	FIXCROSS	n/a	n/a	n/a	n/a	n/a	n/a	n/a	n/a
85.013	0.6	INK	7	Neutral	xxxxx	xxxxx	niebieski	blue	hit	n/a
85.58	n/a	RESPONSE	n/a	n/a	n/a	n/a	n/a	n/a	n/a	blue
85.613	1.0167	ITI	n/a	n/a	n/a	n/a	n/a	n/a	n/a	n/a
86.6297	0.5167	FIXCROSS	n/a	n/a	n/a	n/a	n/a	n/a	n/a	n/a
87.1464	0.7667	INK	8	Incongruent	zielony	green	żółty	yellow	hit	n/a
87.8835	n/a	RESPONSE	n/a	n/a	n/a	n/a	n/a	n/a	n/a	yellow
87.9131	1.0167	ITI	n/a	n/a	n/a	n/a	n/a	n/a	n/a	n/a
88.9298	0.5167	FIXCROSS	n/a	n/a	n/a	n/a	n/a	n/a	n/a	n/a
89.4464	0.6333	INK	9	Neutral	xxxxxxx	xxxxxxx	niebieski	blue	hit	n/a
90.059	n/a	RESPONSE	n/a	n/a	n/a	n/a	n/a	n/a	n/a	blue
90.0798	1.0167	ITI	n/a	n/a	n/a	n/a	n/a	n/a	n/a	n/a
91.0965	0.5167	FIXCROSS	n/a	n/a	n/a	n/a	n/a	n/a	n/a	n/a
91.6131	0.6667	INK	10	Incongruent	żółty	yellow	niebieski	blue	hit	n/a
92.2505	n/a	RESPONSE	n/a	n/a	n/a	n/a	n/a	n/a	n/a	blue
92.2798	1.0167	ITI	n/a	n/a	n/a	n/a	n/a	n/a	n/a	n/a
93.2965	0.5167	FIXCROSS	n/a	n/a	n/a	n/a	n/a	n/a	n/a	n/a
93.8132	0.5333	INK	11	Incongruent	zielony	green	czerwony	red	hit	n/a
94.314	n/a	RESPONSE	n/a	n/a	n/a	n/a	n/a	n/a	n/a	red
94.3465	1.0167	ITI	n/a	n/a	n/a	n/a	n/a	n/a	n/a	n/a
95.3632	0.5167	FIXCROSS	n/a	n/a	n/a	n/a	n/a	n/a	n/a	n/a
95.8798	0.8167	INK	12	Incongruent	niebieski	blue	zielony	green	hit	n/a
96.6655	n/a	RESPONSE	n/a	n/a	n/a	n/a	n/a	n/a	n/a	green
96.6965	1.0167	ITI	n/a	n/a	n/a	n/a	n/a	n/a	n/a	n/a
97.7132	0.5167	FIXCROSS	n/a	n/a	n/a	n/a	n/a	n/a	n/a	n/a
98.2299	0.6	INK	13	Neutral	xxxxx	xxxxx	niebieski	blue	hit	n/a
98.809	n/a	RESPONSE	n/a	n/a	n/a	n/a	n/a	n/a	n/a	blue
98.8299	1.0167	ITI	n/a	n/a	n/a	n/a	n/a	n/a	n/a	n/a
99.8466	0.5167	FIXCROSS	n/a	n/a	n/a	n/a	n/a	n/a	n/a	n/a
100.3632	0.6667	INK	14	Incongruent	czerwony	red	zielony	green	hit	n/a
101.0005	n/a	RESPONSE	n/a	n/a	n/a	n/a	n/a	n/a	n/a	green
101.0299	1.0167	ITI	n/a	n/a	n/a	n/a	n/a	n/a	n/a	n/a
102.0466	0.5167	FIXCROSS	n/a	n/a	n/a	n/a	n/a	n/a	n/a	n/a
102.5633	0.6333	INK	15	Neutral	xxxxxxxxx	xxxxxxxxx	zielony	green	hit	n/a
103.176	n/a	RESPONSE	n/a	n/a	n/a	n/a	n/a	n/a	n/a	green
103.1966	1.0167	ITI	n/a	n/a	n/a	n/a	n/a	n/a	n/a	n/a
104.2133	0.5167	FIXCROSS	n/a	n/a	n/a	n/a	n/a	n/a	n/a	n/a
104.73	0.5333	INK	16	Incongruent	zielony	green	czerwony	red	hit	n/a
105.2395	n/a	RESPONSE	n/a	n/a	n/a	n/a	n/a	n/a	n/a	red
105.2633	1.0167	ITI	n/a	n/a	n/a	n/a	n/a	n/a	n/a	n/a
106.28	0.5167	FIXCROSS	n/a	n/a	n/a	n/a	n/a	n/a	n/a	n/a
106.7967	0.65	INK	17	Incongruent	zielony	green	czerwony	red	hit	n/a
107.415	n/a	RESPONSE	n/a	n/a	n/a	n/a	n/a	n/a	n/a	red
107.4467	1.0167	ITI	n/a	n/a	n/a	n/a	n/a	n/a	n/a	n/a
108.4634	0.5167	FIXCROSS	n/a	n/a	n/a	n/a	n/a	n/a	n/a	n/a
108.98	0.7	INK	18	Incongruent	niebieski	blue	żółty	yellow	hit	n/a
109.6545	n/a	RESPONSE	n/a	n/a	n/a	n/a	n/a	n/a	n/a	yellow
109.68	1.0167	ITI	n/a	n/a	n/a	n/a	n/a	n/a	n/a	n/a
110.6967	0.5167	FIXCROSS	n/a	n/a	n/a	n/a	n/a	n/a	n/a	n/a
111.2134	0.5667	INK	19	Incongruent	czerwony	red	żółty	yellow	hit	n/a
111.75	n/a	RESPONSE	n/a	n/a	n/a	n/a	n/a	n/a	n/a	yellow
111.7801	1.0167	ITI	n/a	n/a	n/a	n/a	n/a	n/a	n/a	n/a
112.7967	0.5167	FIXCROSS	n/a	n/a	n/a	n/a	n/a	n/a	n/a	n/a
113.3134	0.6833	INK	20	Incongruent	niebieski	blue	zielony	green	hit	n/a
113.9735	n/a	RESPONSE	n/a	n/a	n/a	n/a	n/a	n/a	n/a	green
113.9968	1.0167	ITI	n/a	n/a	n/a	n/a	n/a	n/a	n/a	n/a
115.0134	0.5167	FIXCROSS	n/a	n/a	n/a	n/a	n/a	n/a	n/a	n/a
115.5301	0.6	INK	21	Incongruent	zielony	green	żółty	yellow	hit	n/a
116.101	n/a	RESPONSE	n/a	n/a	n/a	n/a	n/a	n/a	n/a	yellow
116.1301	1.0167	ITI	n/a	n/a	n/a	n/a	n/a	n/a	n/a	n/a
117.1468	0.5167	FIXCROSS	n/a	n/a	n/a	n/a	n/a	n/a	n/a	n/a
117.6635	0.6667	INK	22	Neutral	xxxxxxxx	xxxxxxxx	żółty	yellow	hit	n/a
118.3085	n/a	RESPONSE	n/a	n/a	n/a	n/a	n/a	n/a	n/a	yellow
118.3302	1.0167	ITI	n/a	n/a	n/a	n/a	n/a	n/a	n/a	n/a
119.3468	0.5167	FIXCROSS	n/a	n/a	n/a	n/a	n/a	n/a	n/a	n/a
119.8635	0.5667	INK	23	Neutral	xxxxxxxxx	xxxxxxxxx	czerwony	red	hit	n/a
120.404	n/a	RESPONSE	n/a	n/a	n/a	n/a	n/a	n/a	n/a	red
120.4302	1.0167	ITI	n/a	n/a	n/a	n/a	n/a	n/a	n/a	n/a
121.4469	0.5167	FIXCROSS	n/a	n/a	n/a	n/a	n/a	n/a	n/a	n/a
121.9635	0.7499	INK	24	Incongruent	zielony	green	niebieski	blue	hit	n/a
122.6914	n/a	RESPONSE	n/a	n/a	n/a	n/a	n/a	n/a	n/a	blue
122.7134	1.0168	ITI	n/a	n/a	n/a	n/a	n/a	n/a	n/a	n/a
123.7302	0.5167	FIXCROSS	n/a	n/a	n/a	n/a	n/a	n/a	n/a	n/a
124.2469	0.65	INK	25	Neutral	xxxxxxx	xxxxxxx	czerwony	red	hit	n/a
124.867	n/a	RESPONSE	n/a	n/a	n/a	n/a	n/a	n/a	n/a	red
124.8969	1.0167	ITI	n/a	n/a	n/a	n/a	n/a	n/a	n/a	n/a
125.9136	0.5167	FIXCROSS	n/a	n/a	n/a	n/a	n/a	n/a	n/a	n/a
126.4303	0.6167	INK	26	Neutral	xxxxxxx	xxxxxxx	żółty	yellow	hit	n/a
127.0264	n/a	RESPONSE	n/a	n/a	n/a	n/a	n/a	n/a	n/a	yellow
127.0469	1.0167	ITI	n/a	n/a	n/a	n/a	n/a	n/a	n/a	n/a
128.0636	0.5167	FIXCROSS	n/a	n/a	n/a	n/a	n/a	n/a	n/a	n/a
128.5803	0.6667	INK	27	Incongruent	żółty	yellow	niebieski	blue	hit	n/a
129.2179	n/a	RESPONSE	n/a	n/a	n/a	n/a	n/a	n/a	n/a	blue
129.247	1.0167	ITI	n/a	n/a	n/a	n/a	n/a	n/a	n/a	n/a
130.2636	0.5167	FIXCROSS	n/a	n/a	n/a	n/a	n/a	n/a	n/a	n/a
130.7803	0.5333	INK	28	Neutral	xxxxxxxxx	xxxxxxxxx	żółty	yellow	hit	n/a
131.2815	n/a	RESPONSE	n/a	n/a	n/a	n/a	n/a	n/a	n/a	yellow
131.3137	1.0167	ITI	n/a	n/a	n/a	n/a	n/a	n/a	n/a	n/a
132.3303	0.5167	FIXCROSS	n/a	n/a	n/a	n/a	n/a	n/a	n/a	n/a
132.847	0.55	INK	29	Incongruent	zielony	green	niebieski	blue	hit	n/a
133.377	n/a	RESPONSE	n/a	n/a	n/a	n/a	n/a	n/a	n/a	blue
133.397	1.0167	ITI	n/a	n/a	n/a	n/a	n/a	n/a	n/a	n/a
134.4137	0.5167	FIXCROSS	n/a	n/a	n/a	n/a	n/a	n/a	n/a	n/a
134.9304	0.6167	INK	30	Neutral	xxxxxxxxx	xxxxxxxxx	czerwony	red	hit	n/a
135.5205	n/a	RESPONSE	n/a	n/a	n/a	n/a	n/a	n/a	n/a	red
135.5471	1.0167	ITI	n/a	n/a	n/a	n/a	n/a	n/a	n/a	n/a
136.5637	0.5167	FIXCROSS	n/a	n/a	n/a	n/a	n/a	n/a	n/a	n/a
137.0804	0.6333	INK	31	Incongruent	zielony	green	żółty	yellow	hit	n/a
137.696	n/a	RESPONSE	n/a	n/a	n/a	n/a	n/a	n/a	n/a	yellow
137.7137	1.0167	ITI	n/a	n/a	n/a	n/a	n/a	n/a	n/a	n/a
138.7304	0.5167	FIXCROSS	n/a	n/a	n/a	n/a	n/a	n/a	n/a	n/a
139.2471	0.5667	INK	32	Neutral	xxxxxxxx	xxxxxxxx	żółty	yellow	hit	n/a
139.7915	n/a	RESPONSE	n/a	n/a	n/a	n/a	n/a	n/a	n/a	yellow
139.8138	1.0167	ITI	n/a	n/a	n/a	n/a	n/a	n/a	n/a	n/a
140.8305	0.5167	FIXCROSS	n/a	n/a	n/a	n/a	n/a	n/a	n/a	n/a
141.3471	0.55	INK	33	Incongruent	niebieski	blue	żółty	yellow	hit	n/a
141.871	n/a	RESPONSE	n/a	n/a	n/a	n/a	n/a	n/a	n/a	yellow
141.8971	1.0167	ITI	n/a	n/a	n/a	n/a	n/a	n/a	n/a	n/a
142.9138	0.5167	FIXCROSS	n/a	n/a	n/a	n/a	n/a	n/a	n/a	n/a
143.4305	0.5667	INK	34	Neutral	xxxxxxx	xxxxxxx	czerwony	red	hit	n/a
143.9665	n/a	RESPONSE	n/a	n/a	n/a	n/a	n/a	n/a	n/a	red
143.9972	1.0167	ITI	n/a	n/a	n/a	n/a	n/a	n/a	n/a	n/a
145.0138	0.5167	FIXCROSS	n/a	n/a	n/a	n/a	n/a	n/a	n/a	n/a
145.5305	0.5833	INK	35	Neutral	xxxxxxxx	xxxxxxxx	niebieski	blue	hit	n/a
146.094	n/a	RESPONSE	n/a	n/a	n/a	n/a	n/a	n/a	n/a	blue
146.1139	1.0167	ITI	n/a	n/a	n/a	n/a	n/a	n/a	n/a	n/a
147.1306	0.5167	FIXCROSS	n/a	n/a	n/a	n/a	n/a	n/a	n/a	n/a
147.6472	0.6167	INK	36	Incongruent	niebieski	blue	czerwony	red	hit	n/a
148.2376	n/a	RESPONSE	n/a	n/a	n/a	n/a	n/a	n/a	n/a	red
148.2639	1.0167	ITI	n/a	n/a	n/a	n/a	n/a	n/a	n/a	n/a
149.2806	0.5167	FIXCROSS	n/a	n/a	n/a	n/a	n/a	n/a	n/a	n/a
149.7972	0.5	INK	37	Neutral	xxxxxxxxx	xxxxxxxxx	czerwony	red	hit	n/a
150.269	n/a	RESPONSE	n/a	n/a	n/a	n/a	n/a	n/a	n/a	red
150.2973	1.0167	ITI	n/a	n/a	n/a	n/a	n/a	n/a	n/a	n/a
151.3139	0.5167	FIXCROSS	n/a	n/a	n/a	n/a	n/a	n/a	n/a	n/a
151.8306	0.5667	INK	38	Neutral	xxxxxxxxx	xxxxxxxxx	żółty	yellow	hit	n/a
152.3646	n/a	RESPONSE	n/a	n/a	n/a	n/a	n/a	n/a	n/a	yellow
152.3973	1.0167	ITI	n/a	n/a	n/a	n/a	n/a	n/a	n/a	n/a
153.414	0.5167	FIXCROSS	n/a	n/a	n/a	n/a	n/a	n/a	n/a	n/a
153.9306	0.5833	INK	39	Incongruent	żółty	yellow	czerwony	red	hit	n/a
154.4921	n/a	RESPONSE	n/a	n/a	n/a	n/a	n/a	n/a	n/a	red
154.514	1.0167	ITI	n/a	n/a	n/a	n/a	n/a	n/a	n/a	n/a
155.5307	0.5167	FIXCROSS	n/a	n/a	n/a	n/a	n/a	n/a	n/a	n/a
156.0473	0.45	INK	40	Incongruent	żółty	yellow	czerwony	red	hit	n/a
156.4756	n/a	RESPONSE	n/a	n/a	n/a	n/a	n/a	n/a	n/a	red
156.4973	1.0167	ITI	n/a	n/a	n/a	n/a	n/a	n/a	n/a	n/a
157.514	0.5167	FIXCROSS	n/a	n/a	n/a	n/a	n/a	n/a	n/a	n/a
158.0307	0.8833	INK	41	Incongruent	żółty	yellow	zielony	green	hit	n/a
158.8911	n/a	RESPONSE	n/a	n/a	n/a	n/a	n/a	n/a	n/a	green
158.914	1.0167	ITI	n/a	n/a	n/a	n/a	n/a	n/a	n/a	n/a
159.9307	0.5167	FIXCROSS	n/a	n/a	n/a	n/a	n/a	n/a	n/a	n/a
160.4474	0.6167	INK	42	Neutral	xxxxxxxx	xxxxxxxx	niebieski	blue	hit	n/a
161.0346	n/a	RESPONSE	n/a	n/a	n/a	n/a	n/a	n/a	n/a	blue
161.0641	1.0167	ITI	n/a	n/a	n/a	n/a	n/a	n/a	n/a	n/a
162.0807	0.5167	FIXCROSS	n/a	n/a	n/a	n/a	n/a	n/a	n/a	n/a
162.5974	0.5167	INK	43	Neutral	xxxxx	xxxxx	czerwony	red	hit	n/a
163.0821	n/a	RESPONSE	n/a	n/a	n/a	n/a	n/a	n/a	n/a	red
163.1141	1.0167	ITI	n/a	n/a	n/a	n/a	n/a	n/a	n/a	n/a
164.1308	0.5167	FIXCROSS	n/a	n/a	n/a	n/a	n/a	n/a	n/a	n/a
164.6475	0.75	INK	44	Neutral	xxxxxxxxx	xxxxxxxxx	żółty	yellow	hit	n/a
165.3696	n/a	RESPONSE	n/a	n/a	n/a	n/a	n/a	n/a	n/a	yellow
165.3975	1.0167	ITI	n/a	n/a	n/a	n/a	n/a	n/a	n/a	n/a
166.4141	0.5167	FIXCROSS	n/a	n/a	n/a	n/a	n/a	n/a	n/a	n/a
166.9308	0.5333	INK	45	Neutral	xxxxxxxx	xxxxxxxx	żółty	yellow	hit	n/a
167.4331	n/a	RESPONSE	n/a	n/a	n/a	n/a	n/a	n/a	n/a	yellow
167.4641	1.0167	ITI	n/a	n/a	n/a	n/a	n/a	n/a	n/a	n/a
168.4808	0.5167	FIXCROSS	n/a	n/a	n/a	n/a	n/a	n/a	n/a	n/a
168.9975	0.7167	INK	46	Neutral	xxxxxxxxx	xxxxxxxxx	zielony	green	hit	n/a
169.6886	n/a	RESPONSE	n/a	n/a	n/a	n/a	n/a	n/a	n/a	green
169.7142	1.0167	ITI	n/a	n/a	n/a	n/a	n/a	n/a	n/a	n/a
170.7309	0.5167	FIXCROSS	n/a	n/a	n/a	n/a	n/a	n/a	n/a	n/a
171.2475	0.5667	INK	47	Incongruent	czerwony	red	żółty	yellow	hit	n/a
171.7841	n/a	RESPONSE	n/a	n/a	n/a	n/a	n/a	n/a	n/a	yellow
171.8142	1.0167	ITI	n/a	n/a	n/a	n/a	n/a	n/a	n/a	n/a
172.8309	0.5167	FIXCROSS	n/a	n/a	n/a	n/a	n/a	n/a	n/a	n/a
173.3476	0.6167	INK	48	Neutral	xxxxxxx	xxxxxxx	niebieski	blue	hit	n/a
173.9436	n/a	RESPONSE	n/a	n/a	n/a	n/a	n/a	n/a	n/a	blue
173.9642	1.0167	ITI	n/a	n/a	n/a	n/a	n/a	n/a	n/a	n/a
174.9809	0.5167	FIXCROSS	n/a	n/a	n/a	n/a	n/a	n/a	n/a	n/a
175.4976	0.75	INK	49	Incongruent	żółty	yellow	zielony	green	hit	n/a
176.2151	n/a	RESPONSE	n/a	n/a	n/a	n/a	n/a	n/a	n/a	green
176.2476	1.0167	ITI	n/a	n/a	n/a	n/a	n/a	n/a	n/a	n/a
177.2643	0.5167	FIXCROSS	n/a	n/a	n/a	n/a	n/a	n/a	n/a	n/a
177.781	0.4834	INK	50	Neutral	xxxxx	xxxxx	czerwony	red	hit	n/a
178.2306	n/a	RESPONSE	n/a	n/a	n/a	n/a	n/a	n/a	n/a	red
178.2643	1.0167	ITI	n/a	n/a	n/a	n/a	n/a	n/a	n/a	n/a
179.281	0.5167	FIXCROSS	n/a	n/a	n/a	n/a	n/a	n/a	n/a	n/a
179.7977	0.8	INK	51	Neutral	xxxxxxxx	xxxxxxxx	zielony	green	hit	n/a
180.5661	n/a	RESPONSE	n/a	n/a	n/a	n/a	n/a	n/a	n/a	green
180.5977	1.0167	ITI	n/a	n/a	n/a	n/a	n/a	n/a	n/a	n/a
181.6143	0.5167	FIXCROSS	n/a	n/a	n/a	n/a	n/a	n/a	n/a	n/a
182.131	0.5833	INK	52	Incongruent	niebieski	blue	żółty	yellow	hit	n/a
182.6935	n/a	RESPONSE	n/a	n/a	n/a	n/a	n/a	n/a	n/a	yellow
182.7144	1.0167	ITI	n/a	n/a	n/a	n/a	n/a	n/a	n/a	n/a
183.731	0.5167	FIXCROSS	n/a	n/a	n/a	n/a	n/a	n/a	n/a	n/a
184.2477	0.6333	INK	53	Neutral	xxxxx	xxxxx	zielony	green	hit	n/a
184.8531	n/a	RESPONSE	n/a	n/a	n/a	n/a	n/a	n/a	n/a	green
184.8811	1.0167	ITI	n/a	n/a	n/a	n/a	n/a	n/a	n/a	n/a
185.8977	0.5167	FIXCROSS	n/a	n/a	n/a	n/a	n/a	n/a	n/a	n/a
186.4144	0.5667	INK	54	Neutral	xxxxxxx	xxxxxxx	niebieski	blue	hit	n/a
186.9486	n/a	RESPONSE	n/a	n/a	n/a	n/a	n/a	n/a	n/a	blue
186.9811	1.0167	ITI	n/a	n/a	n/a	n/a	n/a	n/a	n/a	n/a
187.9978	0.5167	FIXCROSS	n/a	n/a	n/a	n/a	n/a	n/a	n/a	n/a
188.5144	0.5167	INK	55	Neutral	xxxxx	xxxxx	czerwony	red	hit	n/a
189.0121	n/a	RESPONSE	n/a	n/a	n/a	n/a	n/a	n/a	n/a	red
189.0311	1.0167	ITI	n/a	n/a	n/a	n/a	n/a	n/a	n/a	n/a
190.0478	0.5167	FIXCROSS	n/a	n/a	n/a	n/a	n/a	n/a	n/a	n/a
190.5645	0.6	INK	56	Incongruent	czerwony	red	niebieski	blue	hit	n/a
191.1396	n/a	RESPONSE	n/a	n/a	n/a	n/a	n/a	n/a	n/a	blue
191.1645	1.0167	ITI	n/a	n/a	n/a	n/a	n/a	n/a	n/a	n/a
192.1812	0.5167	FIXCROSS	n/a	n/a	n/a	n/a	n/a	n/a	n/a	n/a
192.6978	0.6	INK	57	Neutral	xxxxxxxx	xxxxxxxx	niebieski	blue	hit	n/a
193.2671	n/a	RESPONSE	n/a	n/a	n/a	n/a	n/a	n/a	n/a	blue
193.2978	1.0167	ITI	n/a	n/a	n/a	n/a	n/a	n/a	n/a	n/a
194.3145	0.5167	FIXCROSS	n/a	n/a	n/a	n/a	n/a	n/a	n/a	n/a
194.8312	0.7167	INK	58	Incongruent	żółty	yellow	czerwony	red	hit	n/a
195.5226	n/a	RESPONSE	n/a	n/a	n/a	n/a	n/a	n/a	n/a	red
195.5479	1.0167	ITI	n/a	n/a	n/a	n/a	n/a	n/a	n/a	n/a
196.5646	0.5167	FIXCROSS	n/a	n/a	n/a	n/a	n/a	n/a	n/a	n/a
197.0812	0.6167	INK	59	Neutral	xxxxx	xxxxx	zielony	green	hit	n/a
197.6661	n/a	RESPONSE	n/a	n/a	n/a	n/a	n/a	n/a	n/a	green
197.6979	1.0167	ITI	n/a	n/a	n/a	n/a	n/a	n/a	n/a	n/a
198.7146	0.5167	FIXCROSS	n/a	n/a	n/a	n/a	n/a	n/a	n/a	n/a
199.2312	0.75	INK	60	Incongruent	niebieski	blue	zielony	green	hit	n/a
199.9536	n/a	RESPONSE	n/a	n/a	n/a	n/a	n/a	n/a	n/a	green
199.9813	1.0167	ITI	n/a	n/a	n/a	n/a	n/a	n/a	n/a	n/a
200.9979	0.5167	FIXCROSS	n/a	n/a	n/a	n/a	n/a	n/a	n/a	n/a
201.5146	0.6	INK	61	Incongruent	czerwony	red	żółty	yellow	hit	n/a
202.0971	n/a	RESPONSE	n/a	n/a	n/a	n/a	n/a	n/a	n/a	yellow
202.1146	1.0167	ITI	n/a	n/a	n/a	n/a	n/a	n/a	n/a	n/a
203.1313	0.5167	FIXCROSS	n/a	n/a	n/a	n/a	n/a	n/a	n/a	n/a
203.648	0.6167	INK	62	Neutral	xxxxxxxx	xxxxxxxx	zielony	green	hit	n/a
204.2406	n/a	RESPONSE	n/a	n/a	n/a	n/a	n/a	n/a	n/a	green
204.2647	1.0167	ITI	n/a	n/a	n/a	n/a	n/a	n/a	n/a	n/a
205.2813	0.5167	FIXCROSS	n/a	n/a	n/a	n/a	n/a	n/a	n/a	n/a
205.798	0.5333	INK	63	Incongruent	niebieski	blue	czerwony	red	hit	n/a
206.3041	n/a	RESPONSE	n/a	n/a	n/a	n/a	n/a	n/a	n/a	red
206.3313	1.0167	ITI	n/a	n/a	n/a	n/a	n/a	n/a	n/a	n/a
207.348	0.5167	FIXCROSS	n/a	n/a	n/a	n/a	n/a	n/a	n/a	n/a
207.8647	0.6	INK	64	Neutral	xxxxx	xxxxx	niebieski	blue	hit	n/a
208.4316	n/a	RESPONSE	n/a	n/a	n/a	n/a	n/a	n/a	n/a	blue
208.4647	1.0167	ITI	n/a	n/a	n/a	n/a	n/a	n/a	n/a	n/a
209.4814	0.5167	FIXCROSS	n/a	n/a	n/a	n/a	n/a	n/a	n/a	n/a
209.9981	0.6167	INK	65	Neutral	xxxxxxxxx	xxxxxxxxx	zielony	green	hit	n/a
210.5911	n/a	RESPONSE	n/a	n/a	n/a	n/a	n/a	n/a	n/a	green
210.6147	1.0167	ITI	n/a	n/a	n/a	n/a	n/a	n/a	n/a	n/a
211.6314	0.5167	FIXCROSS	n/a	n/a	n/a	n/a	n/a	n/a	n/a	n/a
212.1481	0.65	INK	66	Neutral	xxxxxxx	xxxxxxx	czerwony	red	hit	n/a
212.7666	n/a	RESPONSE	n/a	n/a	n/a	n/a	n/a	n/a	n/a	red
212.7981	1.0167	ITI	n/a	n/a	n/a	n/a	n/a	n/a	n/a	n/a
213.8148	0.5167	FIXCROSS	n/a	n/a	n/a	n/a	n/a	n/a	n/a	n/a
214.3315	0.5167	INK	67	Neutral	xxxxx	xxxxx	zielony	green	hit	n/a
214.8302	n/a	RESPONSE	n/a	n/a	n/a	n/a	n/a	n/a	n/a	green
214.8481	1.0167	ITI	n/a	n/a	n/a	n/a	n/a	n/a	n/a	n/a
215.8648	0.5167	FIXCROSS	n/a	n/a	n/a	n/a	n/a	n/a	n/a	n/a
216.3815	0.5333	INK	68	Neutral	xxxxxxx	xxxxxxx	żółty	yellow	hit	n/a
216.8937	n/a	RESPONSE	n/a	n/a	n/a	n/a	n/a	n/a	n/a	yellow
216.9148	1.0167	ITI	n/a	n/a	n/a	n/a	n/a	n/a	n/a	n/a
217.9315	0.5167	FIXCROSS	n/a	n/a	n/a	n/a	n/a	n/a	n/a	n/a
218.4482	0.65	INK	69	Incongruent	żółty	yellow	niebieski	blue	hit	n/a
219.0692	n/a	RESPONSE	n/a	n/a	n/a	n/a	n/a	n/a	n/a	blue
219.0982	1.0167	ITI	n/a	n/a	n/a	n/a	n/a	n/a	n/a	n/a
220.1149	0.5167	FIXCROSS	n/a	n/a	n/a	n/a	n/a	n/a	n/a	n/a
220.6315	0.55	INK	70	Incongruent	zielony	green	niebieski	blue	hit	n/a
221.1487	n/a	RESPONSE	n/a	n/a	n/a	n/a	n/a	n/a	n/a	blue
221.1815	1.0167	ITI	n/a	n/a	n/a	n/a	n/a	n/a	n/a	n/a
222.1982	0.5167	FIXCROSS	n/a	n/a	n/a	n/a	n/a	n/a	n/a	n/a
222.7149	0.5667	INK	71	Incongruent	żółty	yellow	zielony	green	hit	n/a
223.2602	n/a	RESPONSE	n/a	n/a	n/a	n/a	n/a	n/a	n/a	green
223.2816	1.0167	ITI	n/a	n/a	n/a	n/a	n/a	n/a	n/a	n/a
224.2983	0.5167	FIXCROSS	n/a	n/a	n/a	n/a	n/a	n/a	n/a	n/a
224.8149	0.6667	INK	72	Incongruent	czerwony	red	zielony	green	hit	n/a
225.4517	n/a	RESPONSE	n/a	n/a	n/a	n/a	n/a	n/a	n/a	green
225.4816	1.0834	ITI	n/a	n/a	n/a	n/a	n/a	n/a	n/a	n/a
240.2482	n/a	RESPONSE	n/a	n/a	n/a	n/a	n/a	n/a	n/a	n/a
240.3151	1.0167	ITI	n/a	n/a	n/a	n/a	n/a	n/a	n/a	n/a
241.3318	0.5167	FIXCROSS	n/a	n/a	n/a	n/a	n/a	n/a	n/a	n/a
241.8485	0.9833	T_COLOR_NAME	1	Neutral	niebieski	blue	Neutral	Neutral	hit	n/a
242.8077	n/a	RESPONSE	n/a	n/a	n/a	n/a	n/a	n/a	n/a	blue
242.8318	0.5167	FEEDBACK	n/a	n/a	n/a	n/a	n/a	n/a	n/a	n/a
243.3485	1.0167	ITI	n/a	n/a	n/a	n/a	n/a	n/a	n/a	n/a
244.3652	0.5167	FIXCROSS	n/a	n/a	n/a	n/a	n/a	n/a	n/a	n/a
244.8819	1.1333	T_COLOR_NAME	2	Incongruent	żółty	yellow	zielony	green	hit	n/a
245.9909	n/a	RESPONSE	n/a	n/a	n/a	n/a	n/a	n/a	n/a	yellow
246.0152	0.5167	FEEDBACK	n/a	n/a	n/a	n/a	n/a	n/a	n/a	n/a
246.5319	1.0167	ITI	n/a	n/a	n/a	n/a	n/a	n/a	n/a	n/a
247.5486	0.5167	FIXCROSS	n/a	n/a	n/a	n/a	n/a	n/a	n/a	n/a
248.0652	0.8167	T_COLOR_NAME	3	Neutral	czerwony	red	Neutral	Neutral	hit	n/a
248.8542	n/a	RESPONSE	n/a	n/a	n/a	n/a	n/a	n/a	n/a	red
248.8819	0.5167	FEEDBACK	n/a	n/a	n/a	n/a	n/a	n/a	n/a	n/a
249.3986	1.0167	ITI	n/a	n/a	n/a	n/a	n/a	n/a	n/a	n/a
250.4153	0.5167	FIXCROSS	n/a	n/a	n/a	n/a	n/a	n/a	n/a	n/a
250.9319	0.85	T_COLOR_NAME	4	Incongruent	czerwony	red	niebieski	blue	hit	n/a
251.7496	n/a	RESPONSE	n/a	n/a	n/a	n/a	n/a	n/a	n/a	red
251.782	0.5167	FEEDBACK	n/a	n/a	n/a	n/a	n/a	n/a	n/a	n/a
252.2986	1.0167	ITI	n/a	n/a	n/a	n/a	n/a	n/a	n/a	n/a
253.3153	0.5167	FIXCROSS	n/a	n/a	n/a	n/a	n/a	n/a	n/a	n/a
253.832	0.7833	T_COLOR_NAME	5	Neutral	czerwony	red	Neutral	Neutral	hit	n/a
254.581	n/a	RESPONSE	n/a	n/a	n/a	n/a	n/a	n/a	n/a	red
254.6153	0.5167	FEEDBACK	n/a	n/a	n/a	n/a	n/a	n/a	n/a	n/a
255.132	1.0167	ITI	n/a	n/a	n/a	n/a	n/a	n/a	n/a	n/a
256.1487	0.5167	FIXCROSS	n/a	n/a	n/a	n/a	n/a	n/a	n/a	n/a
256.6654	1.2333	T_COLOR_NAME	6	Incongruent	niebieski	blue	czerwony	red	hit	n/a
257.8762	n/a	RESPONSE	n/a	n/a	n/a	n/a	n/a	n/a	n/a	blue
257.8987	0.5167	FEEDBACK	n/a	n/a	n/a	n/a	n/a	n/a	n/a	n/a
258.4154	1.0167	ITI	n/a	n/a	n/a	n/a	n/a	n/a	n/a	n/a
259.4321	0.5167	FIXCROSS	n/a	n/a	n/a	n/a	n/a	n/a	n/a	n/a
259.9487	0.7833	T_COLOR_NAME	7	Incongruent	zielony	green	czerwony	red	hit	n/a
260.7075	n/a	RESPONSE	n/a	n/a	n/a	n/a	n/a	n/a	n/a	green
260.7321	0.5167	FEEDBACK	n/a	n/a	n/a	n/a	n/a	n/a	n/a	n/a
261.2488	1.0167	ITI	n/a	n/a	n/a	n/a	n/a	n/a	n/a	n/a
262.2654	0.5167	FIXCROSS	n/a	n/a	n/a	n/a	n/a	n/a	n/a	n/a
262.7821	0.8167	T_COLOR_NAME	8	Neutral	żółty	yellow	Neutral	Neutral	hit	n/a
263.5708	n/a	RESPONSE	n/a	n/a	n/a	n/a	n/a	n/a	n/a	yellow
263.5988	0.5167	FEEDBACK	n/a	n/a	n/a	n/a	n/a	n/a	n/a	n/a
264.1155	1.0167	ITI	n/a	n/a	n/a	n/a	n/a	n/a	n/a	n/a
265.1321	0.5167	FIXCROSS	n/a	n/a	n/a	n/a	n/a	n/a	n/a	n/a
265.6488	0.8	T_COLOR_NAME	9	Neutral	żółty	yellow	Neutral	Neutral	hit	n/a
266.4182	n/a	RESPONSE	n/a	n/a	n/a	n/a	n/a	n/a	n/a	yellow
266.4488	0.5167	FEEDBACK	n/a	n/a	n/a	n/a	n/a	n/a	n/a	n/a
266.9655	1.0167	ITI	n/a	n/a	n/a	n/a	n/a	n/a	n/a	n/a
267.9822	0.5167	FIXCROSS	n/a	n/a	n/a	n/a	n/a	n/a	n/a	n/a
268.4988	0.6667	T_COLOR_NAME	10	Incongruent	żółty	yellow	niebieski	blue	hit	n/a
269.1376	n/a	RESPONSE	n/a	n/a	n/a	n/a	n/a	n/a	n/a	yellow
269.1655	0.5167	FEEDBACK	n/a	n/a	n/a	n/a	n/a	n/a	n/a	n/a
269.6822	1.0167	ITI	n/a	n/a	n/a	n/a	n/a	n/a	n/a	n/a
270.6989	0.5167	FIXCROSS	n/a	n/a	n/a	n/a	n/a	n/a	n/a	n/a
271.2156	0.7167	T_COLOR_NAME	11	Neutral	niebieski	blue	Neutral	Neutral	hit	n/a
271.9049	n/a	RESPONSE	n/a	n/a	n/a	n/a	n/a	n/a	n/a	blue
271.9322	0.5167	FEEDBACK	n/a	n/a	n/a	n/a	n/a	n/a	n/a	n/a
272.4489	1.0167	ITI	n/a	n/a	n/a	n/a	n/a	n/a	n/a	n/a
273.4656	0.5167	FIXCROSS	n/a	n/a	n/a	n/a	n/a	n/a	n/a	n/a
273.9823	0.7	T_COLOR_NAME	12	Neutral	żółty	yellow	Neutral	Neutral	hit	n/a
274.6563	n/a	RESPONSE	n/a	n/a	n/a	n/a	n/a	n/a	n/a	yellow
274.6823	0.5167	FEEDBACK	n/a	n/a	n/a	n/a	n/a	n/a	n/a	n/a
275.1989	1.0333	ITI	n/a	n/a	n/a	n/a	n/a	n/a	n/a	n/a
282.5745	n/a	RESPONSE	n/a	n/a	n/a	n/a	n/a	n/a	n/a	n/a
282.6324	1.0167	ITI	n/a	n/a	n/a	n/a	n/a	n/a	n/a	n/a
283.6491	0.5167	FIXCROSS	n/a	n/a	n/a	n/a	n/a	n/a	n/a	n/a
284.1657	0.7167	COLOR_NAME	1	Incongruent	żółty	yellow	czerwony	red	hit	n/a
284.8619	n/a	RESPONSE	n/a	n/a	n/a	n/a	n/a	n/a	n/a	yellow
284.8824	1.0167	ITI	n/a	n/a	n/a	n/a	n/a	n/a	n/a	n/a
285.8991	0.5167	FIXCROSS	n/a	n/a	n/a	n/a	n/a	n/a	n/a	n/a
286.4158	0.7833	COLOR_NAME	2	Incongruent	niebieski	blue	żółty	yellow	hit	n/a
287.1654	n/a	RESPONSE	n/a	n/a	n/a	n/a	n/a	n/a	n/a	blue
287.1991	1.0167	ITI	n/a	n/a	n/a	n/a	n/a	n/a	n/a	n/a
288.2158	0.5167	FIXCROSS	n/a	n/a	n/a	n/a	n/a	n/a	n/a	n/a
288.7325	0.65	COLOR_NAME	3	Neutral	żółty	yellow	Neutral	Neutral	hit	n/a
289.3569	n/a	RESPONSE	n/a	n/a	n/a	n/a	n/a	n/a	n/a	yellow
289.3825	1.0167	ITI	n/a	n/a	n/a	n/a	n/a	n/a	n/a	n/a
290.3992	0.5167	FIXCROSS	n/a	n/a	n/a	n/a	n/a	n/a	n/a	n/a
290.9158	0.8334	COLOR_NAME	4	Incongruent	niebieski	blue	zielony	green	hit	n/a
291.7243	n/a	RESPONSE	n/a	n/a	n/a	n/a	n/a	n/a	n/a	blue
291.7492	1.0167	ITI	n/a	n/a	n/a	n/a	n/a	n/a	n/a	n/a
292.7658	0.5167	FIXCROSS	n/a	n/a	n/a	n/a	n/a	n/a	n/a	n/a
293.2825	0.65	COLOR_NAME	5	Neutral	czerwony	red	Neutral	Neutral	hit	n/a
293.8998	n/a	RESPONSE	n/a	n/a	n/a	n/a	n/a	n/a	n/a	red
293.9325	1.0167	ITI	n/a	n/a	n/a	n/a	n/a	n/a	n/a	n/a
294.9492	0.5167	FIXCROSS	n/a	n/a	n/a	n/a	n/a	n/a	n/a	n/a
295.4659	0.7	COLOR_NAME	6	Neutral	niebieski	blue	Neutral	Neutral	hit	n/a
296.1393	n/a	RESPONSE	n/a	n/a	n/a	n/a	n/a	n/a	n/a	blue
296.1659	1.0167	ITI	n/a	n/a	n/a	n/a	n/a	n/a	n/a	n/a
297.1826	0.5167	FIXCROSS	n/a	n/a	n/a	n/a	n/a	n/a	n/a	n/a
297.6992	0.6667	COLOR_NAME	7	Incongruent	żółty	yellow	niebieski	blue	hit	n/a
298.3468	n/a	RESPONSE	n/a	n/a	n/a	n/a	n/a	n/a	n/a	yellow
298.3659	1.0167	ITI	n/a	n/a	n/a	n/a	n/a	n/a	n/a	n/a
299.3826	0.5167	FIXCROSS	n/a	n/a	n/a	n/a	n/a	n/a	n/a	n/a
299.8993	0.8167	COLOR_NAME	8	Incongruent	zielony	green	niebieski	blue	hit	n/a
300.6982	n/a	RESPONSE	n/a	n/a	n/a	n/a	n/a	n/a	n/a	green
300.7159	1.0167	ITI	n/a	n/a	n/a	n/a	n/a	n/a	n/a	n/a
301.7326	0.5167	FIXCROSS	n/a	n/a	n/a	n/a	n/a	n/a	n/a	n/a
302.2493	0.5167	COLOR_NAME	9	Incongruent	zielony	green	czerwony	red	hit	n/a
302.7458	n/a	RESPONSE	n/a	n/a	n/a	n/a	n/a	n/a	n/a	green
302.766	1.0167	ITI	n/a	n/a	n/a	n/a	n/a	n/a	n/a	n/a
303.7827	0.5167	FIXCROSS	n/a	n/a	n/a	n/a	n/a	n/a	n/a	n/a
304.2993	0.55	COLOR_NAME	10	Incongruent	zielony	green	czerwony	red	hit	n/a
304.8253	n/a	RESPONSE	n/a	n/a	n/a	n/a	n/a	n/a	n/a	green
304.8493	1.0167	ITI	n/a	n/a	n/a	n/a	n/a	n/a	n/a	n/a
305.866	0.5167	FIXCROSS	n/a	n/a	n/a	n/a	n/a	n/a	n/a	n/a
306.3827	0.6667	COLOR_NAME	11	Neutral	żółty	yellow	Neutral	Neutral	hit	n/a
307.0168	n/a	RESPONSE	n/a	n/a	n/a	n/a	n/a	n/a	n/a	yellow
307.0494	1.0167	ITI	n/a	n/a	n/a	n/a	n/a	n/a	n/a	n/a
308.066	0.5167	FIXCROSS	n/a	n/a	n/a	n/a	n/a	n/a	n/a	n/a
308.5827	0.6167	COLOR_NAME	12	Incongruent	niebieski	blue	żółty	yellow	hit	n/a
309.1763	n/a	RESPONSE	n/a	n/a	n/a	n/a	n/a	n/a	n/a	blue
309.1994	1.0167	ITI	n/a	n/a	n/a	n/a	n/a	n/a	n/a	n/a
310.2161	0.5167	FIXCROSS	n/a	n/a	n/a	n/a	n/a	n/a	n/a	n/a
310.7328	0.7833	COLOR_NAME	13	Incongruent	zielony	green	niebieski	blue	hit	n/a
311.4958	n/a	RESPONSE	n/a	n/a	n/a	n/a	n/a	n/a	n/a	green
311.5161	1.0167	ITI	n/a	n/a	n/a	n/a	n/a	n/a	n/a	n/a
312.5328	0.5167	FIXCROSS	n/a	n/a	n/a	n/a	n/a	n/a	n/a	n/a
313.0494	0.7167	COLOR_NAME	14	Neutral	czerwony	red	Neutral	Neutral	hit	n/a
313.7352	n/a	RESPONSE	n/a	n/a	n/a	n/a	n/a	n/a	n/a	red
313.7661	1.0167	ITI	n/a	n/a	n/a	n/a	n/a	n/a	n/a	n/a
314.7828	0.5167	FIXCROSS	n/a	n/a	n/a	n/a	n/a	n/a	n/a	n/a
315.2995	0.65	COLOR_NAME	15	Incongruent	czerwony	red	zielony	green	hit	n/a
315.9267	n/a	RESPONSE	n/a	n/a	n/a	n/a	n/a	n/a	n/a	red
315.9495	1.0167	ITI	n/a	n/a	n/a	n/a	n/a	n/a	n/a	n/a
316.9662	0.5167	FIXCROSS	n/a	n/a	n/a	n/a	n/a	n/a	n/a	n/a
317.4828	0.8667	COLOR_NAME	16	Neutral	zielony	green	Neutral	Neutral	hit	n/a
318.3262	n/a	RESPONSE	n/a	n/a	n/a	n/a	n/a	n/a	n/a	green
318.3495	1.0167	ITI	n/a	n/a	n/a	n/a	n/a	n/a	n/a	n/a
319.3662	0.5167	FIXCROSS	n/a	n/a	n/a	n/a	n/a	n/a	n/a	n/a
319.8829	0.5	COLOR_NAME	17	Neutral	zielony	green	Neutral	Neutral	hit	n/a
320.3577	n/a	RESPONSE	n/a	n/a	n/a	n/a	n/a	n/a	n/a	green
320.3829	1.0167	ITI	n/a	n/a	n/a	n/a	n/a	n/a	n/a	n/a
321.3996	0.5167	FIXCROSS	n/a	n/a	n/a	n/a	n/a	n/a	n/a	n/a
321.9162	0.6667	COLOR_NAME	18	Neutral	niebieski	blue	Neutral	Neutral	hit	n/a
322.5652	n/a	RESPONSE	n/a	n/a	n/a	n/a	n/a	n/a	n/a	blue
322.5829	1.0167	ITI	n/a	n/a	n/a	n/a	n/a	n/a	n/a	n/a
323.5996	0.5167	FIXCROSS	n/a	n/a	n/a	n/a	n/a	n/a	n/a	n/a
324.1163	0.7167	COLOR_NAME	19	Incongruent	zielony	green	niebieski	blue	hit	n/a
324.8047	n/a	RESPONSE	n/a	n/a	n/a	n/a	n/a	n/a	n/a	green
324.8329	1.0167	ITI	n/a	n/a	n/a	n/a	n/a	n/a	n/a	n/a
325.8496	0.5167	FIXCROSS	n/a	n/a	n/a	n/a	n/a	n/a	n/a	n/a
326.3663	0.5667	COLOR_NAME	20	Neutral	zielony	green	Neutral	Neutral	hit	n/a
326.9002	n/a	RESPONSE	n/a	n/a	n/a	n/a	n/a	n/a	n/a	green
326.933	1.0167	ITI	n/a	n/a	n/a	n/a	n/a	n/a	n/a	n/a
327.9496	0.5167	FIXCROSS	n/a	n/a	n/a	n/a	n/a	n/a	n/a	n/a
328.4663	0.7	COLOR_NAME	21	Incongruent	niebieski	blue	czerwony	red	hit	n/a
329.1397	n/a	RESPONSE	n/a	n/a	n/a	n/a	n/a	n/a	n/a	blue
329.1663	1.0167	ITI	n/a	n/a	n/a	n/a	n/a	n/a	n/a	n/a
330.183	0.5167	FIXCROSS	n/a	n/a	n/a	n/a	n/a	n/a	n/a	n/a
330.6997	0.85	COLOR_NAME	22	Incongruent	czerwony	red	żółty	yellow	hit	n/a
331.5231	n/a	RESPONSE	n/a	n/a	n/a	n/a	n/a	n/a	n/a	red
331.5497	1.0167	ITI	n/a	n/a	n/a	n/a	n/a	n/a	n/a	n/a
332.5664	0.5167	FIXCROSS	n/a	n/a	n/a	n/a	n/a	n/a	n/a	n/a
333.083	0.5667	COLOR_NAME	23	Neutral	żółty	yellow	Neutral	Neutral	hit	n/a
333.6186	n/a	RESPONSE	n/a	n/a	n/a	n/a	n/a	n/a	n/a	yellow
333.6497	1.0167	ITI	n/a	n/a	n/a	n/a	n/a	n/a	n/a	n/a
334.6664	0.5167	FIXCROSS	n/a	n/a	n/a	n/a	n/a	n/a	n/a	n/a
335.1831	0.8	COLOR_NAME	24	Incongruent	zielony	green	czerwony	red	hit	n/a
335.9541	n/a	RESPONSE	n/a	n/a	n/a	n/a	n/a	n/a	n/a	green
335.9831	1.0167	ITI	n/a	n/a	n/a	n/a	n/a	n/a	n/a	n/a
336.9998	0.5167	FIXCROSS	n/a	n/a	n/a	n/a	n/a	n/a	n/a	n/a
337.5164	0.5667	COLOR_NAME	25	Neutral	czerwony	red	Neutral	Neutral	hit	n/a
338.0656	n/a	RESPONSE	n/a	n/a	n/a	n/a	n/a	n/a	n/a	red
338.0831	1.0167	ITI	n/a	n/a	n/a	n/a	n/a	n/a	n/a	n/a
339.0998	0.5167	FIXCROSS	n/a	n/a	n/a	n/a	n/a	n/a	n/a	n/a
339.6165	0.5333	COLOR_NAME	26	Incongruent	czerwony	red	niebieski	blue	hit	n/a
340.1291	n/a	RESPONSE	n/a	n/a	n/a	n/a	n/a	n/a	n/a	red
340.1498	1.0167	ITI	n/a	n/a	n/a	n/a	n/a	n/a	n/a	n/a
341.1665	0.5167	FIXCROSS	n/a	n/a	n/a	n/a	n/a	n/a	n/a	n/a
341.6832	0.6667	COLOR_NAME	27	Neutral	zielony	green	Neutral	Neutral	hit	n/a
342.3206	n/a	RESPONSE	n/a	n/a	n/a	n/a	n/a	n/a	n/a	green
342.3498	1.0167	ITI	n/a	n/a	n/a	n/a	n/a	n/a	n/a	n/a
343.3665	0.5167	FIXCROSS	n/a	n/a	n/a	n/a	n/a	n/a	n/a	n/a
343.8832	0.55	COLOR_NAME	28	Incongruent	żółty	yellow	zielony	green	hit	n/a
344.4001	n/a	RESPONSE	n/a	n/a	n/a	n/a	n/a	n/a	n/a	yellow
344.4332	1.0167	ITI	n/a	n/a	n/a	n/a	n/a	n/a	n/a	n/a
345.4499	0.5167	FIXCROSS	n/a	n/a	n/a	n/a	n/a	n/a	n/a	n/a
345.9666	0.6	COLOR_NAME	29	Neutral	zielony	green	Neutral	Neutral	incorrect	n/a
346.5436	n/a	RESPONSE	n/a	n/a	n/a	n/a	n/a	n/a	n/a	red
346.5666	1.0167	ITI	n/a	n/a	n/a	n/a	n/a	n/a	n/a	n/a
347.5832	0.5167	FIXCROSS	n/a	n/a	n/a	n/a	n/a	n/a	n/a	n/a
348.0999	0.85	COLOR_NAME	30	Incongruent	żółty	yellow	zielony	green	hit	n/a
348.9271	n/a	RESPONSE	n/a	n/a	n/a	n/a	n/a	n/a	n/a	yellow
348.9499	1.0167	ITI	n/a	n/a	n/a	n/a	n/a	n/a	n/a	n/a
349.9666	0.5167	FIXCROSS	n/a	n/a	n/a	n/a	n/a	n/a	n/a	n/a
350.4833	0.75	COLOR_NAME	31	Incongruent	czerwony	red	zielony	green	hit	n/a
351.2145	n/a	RESPONSE	n/a	n/a	n/a	n/a	n/a	n/a	n/a	red
351.2333	1.0167	ITI	n/a	n/a	n/a	n/a	n/a	n/a	n/a	n/a
352.25	0.5167	FIXCROSS	n/a	n/a	n/a	n/a	n/a	n/a	n/a	n/a
352.7667	0.7167	COLOR_NAME	32	Neutral	czerwony	red	Neutral	Neutral	hit	n/a
353.454	n/a	RESPONSE	n/a	n/a	n/a	n/a	n/a	n/a	n/a	red
353.4833	1.0167	ITI	n/a	n/a	n/a	n/a	n/a	n/a	n/a	n/a
354.5	0.5167	FIXCROSS	n/a	n/a	n/a	n/a	n/a	n/a	n/a	n/a
355.0167	0.6333	COLOR_NAME	33	Neutral	niebieski	blue	Neutral	Neutral	hit	n/a
355.6295	n/a	RESPONSE	n/a	n/a	n/a	n/a	n/a	n/a	n/a	blue
355.65	1.0167	ITI	n/a	n/a	n/a	n/a	n/a	n/a	n/a	n/a
356.6667	0.5167	FIXCROSS	n/a	n/a	n/a	n/a	n/a	n/a	n/a	n/a
357.1834	0.7333	COLOR_NAME	34	Neutral	niebieski	blue	Neutral	Neutral	hit	n/a
357.885	n/a	RESPONSE	n/a	n/a	n/a	n/a	n/a	n/a	n/a	blue
357.9167	1.0167	ITI	n/a	n/a	n/a	n/a	n/a	n/a	n/a	n/a
358.9334	0.5167	FIXCROSS	n/a	n/a	n/a	n/a	n/a	n/a	n/a	n/a
359.4501	0.75	COLOR_NAME	35	Incongruent	żółty	yellow	niebieski	blue	hit	n/a
360.1725	n/a	RESPONSE	n/a	n/a	n/a	n/a	n/a	n/a	n/a	yellow
360.2001	1.0167	ITI	n/a	n/a	n/a	n/a	n/a	n/a	n/a	n/a
361.2168	0.5167	FIXCROSS	n/a	n/a	n/a	n/a	n/a	n/a	n/a	n/a
361.7334	0.7833	COLOR_NAME	36	Incongruent	niebieski	blue	zielony	green	hit	n/a
362.4919	n/a	RESPONSE	n/a	n/a	n/a	n/a	n/a	n/a	n/a	blue
362.5168	1.0167	ITI	n/a	n/a	n/a	n/a	n/a	n/a	n/a	n/a
363.5335	0.5167	FIXCROSS	n/a	n/a	n/a	n/a	n/a	n/a	n/a	n/a
364.0501	1.0167	COLOR_NAME	37	Incongruent	niebieski	blue	czerwony	red	hit	n/a
365.0354	n/a	RESPONSE	n/a	n/a	n/a	n/a	n/a	n/a	n/a	blue
365.0668	1.0167	ITI	n/a	n/a	n/a	n/a	n/a	n/a	n/a	n/a
366.0835	0.5167	FIXCROSS	n/a	n/a	n/a	n/a	n/a	n/a	n/a	n/a
366.6002	0.7	COLOR_NAME	38	Incongruent	żółty	yellow	czerwony	red	hit	n/a
367.2748	n/a	RESPONSE	n/a	n/a	n/a	n/a	n/a	n/a	n/a	yellow
367.3002	1.0167	ITI	n/a	n/a	n/a	n/a	n/a	n/a	n/a	n/a
368.3169	0.5167	FIXCROSS	n/a	n/a	n/a	n/a	n/a	n/a	n/a	n/a
368.8335	0.55	COLOR_NAME	39	Incongruent	zielony	green	żółty	yellow	hit	n/a
369.3543	n/a	RESPONSE	n/a	n/a	n/a	n/a	n/a	n/a	n/a	green
369.3835	1.0167	ITI	n/a	n/a	n/a	n/a	n/a	n/a	n/a	n/a
370.4002	0.5167	FIXCROSS	n/a	n/a	n/a	n/a	n/a	n/a	n/a	n/a
370.9169	0.5	COLOR_NAME	40	Neutral	zielony	green	Neutral	Neutral	hit	n/a
371.3859	n/a	RESPONSE	n/a	n/a	n/a	n/a	n/a	n/a	n/a	green
371.4169	1.0167	ITI	n/a	n/a	n/a	n/a	n/a	n/a	n/a	n/a
372.4336	0.5167	FIXCROSS	n/a	n/a	n/a	n/a	n/a	n/a	n/a	n/a
372.9503	0.6667	COLOR_NAME	41	Neutral	żółty	yellow	Neutral	Neutral	hit	n/a
373.5934	n/a	RESPONSE	n/a	n/a	n/a	n/a	n/a	n/a	n/a	yellow
373.6169	1.0167	ITI	n/a	n/a	n/a	n/a	n/a	n/a	n/a	n/a
374.6336	0.5167	FIXCROSS	n/a	n/a	n/a	n/a	n/a	n/a	n/a	n/a
375.1503	0.5667	COLOR_NAME	42	Neutral	niebieski	blue	Neutral	Neutral	hit	n/a
375.6889	n/a	RESPONSE	n/a	n/a	n/a	n/a	n/a	n/a	n/a	blue
375.717	1.0167	ITI	n/a	n/a	n/a	n/a	n/a	n/a	n/a	n/a
376.7336	0.5167	FIXCROSS	n/a	n/a	n/a	n/a	n/a	n/a	n/a	n/a
377.2503	0.6667	COLOR_NAME	43	Incongruent	żółty	yellow	czerwony	red	hit	n/a
377.8964	n/a	RESPONSE	n/a	n/a	n/a	n/a	n/a	n/a	n/a	yellow
377.917	1.0167	ITI	n/a	n/a	n/a	n/a	n/a	n/a	n/a	n/a
378.9337	0.5167	FIXCROSS	n/a	n/a	n/a	n/a	n/a	n/a	n/a	n/a
379.4503	0.6333	COLOR_NAME	44	Neutral	żółty	yellow	Neutral	Neutral	hit	n/a
380.0558	n/a	RESPONSE	n/a	n/a	n/a	n/a	n/a	n/a	n/a	yellow
380.0837	1.0167	ITI	n/a	n/a	n/a	n/a	n/a	n/a	n/a	n/a
381.1004	0.5167	FIXCROSS	n/a	n/a	n/a	n/a	n/a	n/a	n/a	n/a
381.617	0.7667	COLOR_NAME	45	Neutral	zielony	green	Neutral	Neutral	hit	n/a
382.3593	n/a	RESPONSE	n/a	n/a	n/a	n/a	n/a	n/a	n/a	green
382.3837	1.0167	ITI	n/a	n/a	n/a	n/a	n/a	n/a	n/a	n/a
383.4004	0.5167	FIXCROSS	n/a	n/a	n/a	n/a	n/a	n/a	n/a	n/a
383.9171	0.7334	COLOR_NAME	46	Incongruent	czerwony	red	żółty	yellow	hit	n/a
384.6308	n/a	RESPONSE	n/a	n/a	n/a	n/a	n/a	n/a	n/a	red
384.6504	1.0167	ITI	n/a	n/a	n/a	n/a	n/a	n/a	n/a	n/a
385.6671	0.5167	FIXCROSS	n/a	n/a	n/a	n/a	n/a	n/a	n/a	n/a
386.1838	0.8	COLOR_NAME	47	Neutral	zielony	green	Neutral	Neutral	hit	n/a
386.9502	n/a	RESPONSE	n/a	n/a	n/a	n/a	n/a	n/a	n/a	green
386.9838	1.0167	ITI	n/a	n/a	n/a	n/a	n/a	n/a	n/a	n/a
388.0004	0.5167	FIXCROSS	n/a	n/a	n/a	n/a	n/a	n/a	n/a	n/a
388.5171	0.75	COLOR_NAME	48	Neutral	żółty	yellow	Neutral	Neutral	hit	n/a
389.2377	n/a	RESPONSE	n/a	n/a	n/a	n/a	n/a	n/a	n/a	yellow
389.2671	1.0167	ITI	n/a	n/a	n/a	n/a	n/a	n/a	n/a	n/a
390.2838	0.5167	FIXCROSS	n/a	n/a	n/a	n/a	n/a	n/a	n/a	n/a
390.8005	0.5833	COLOR_NAME	49	Neutral	czerwony	red	Neutral	Neutral	hit	n/a
391.3652	n/a	RESPONSE	n/a	n/a	n/a	n/a	n/a	n/a	n/a	red
391.3838	1.0167	ITI	n/a	n/a	n/a	n/a	n/a	n/a	n/a	n/a
392.4005	0.5167	FIXCROSS	n/a	n/a	n/a	n/a	n/a	n/a	n/a	n/a
392.9172	0.8	COLOR_NAME	50	Incongruent	zielony	green	żółty	yellow	hit	n/a
393.6847	n/a	RESPONSE	n/a	n/a	n/a	n/a	n/a	n/a	n/a	green
393.7172	1.0167	ITI	n/a	n/a	n/a	n/a	n/a	n/a	n/a	n/a
394.7339	0.5167	FIXCROSS	n/a	n/a	n/a	n/a	n/a	n/a	n/a	n/a
395.2505	0.6667	COLOR_NAME	51	Incongruent	niebieski	blue	czerwony	red	hit	n/a
395.8922	n/a	RESPONSE	n/a	n/a	n/a	n/a	n/a	n/a	n/a	blue
395.9172	1.0167	ITI	n/a	n/a	n/a	n/a	n/a	n/a	n/a	n/a
396.9339	0.5167	FIXCROSS	n/a	n/a	n/a	n/a	n/a	n/a	n/a	n/a
397.4506	0.7	COLOR_NAME	52	Neutral	czerwony	red	Neutral	Neutral	hit	n/a
398.1317	n/a	RESPONSE	n/a	n/a	n/a	n/a	n/a	n/a	n/a	red
398.1506	1.0167	ITI	n/a	n/a	n/a	n/a	n/a	n/a	n/a	n/a
399.1673	0.5167	FIXCROSS	n/a	n/a	n/a	n/a	n/a	n/a	n/a	n/a
399.6839	0.5667	COLOR_NAME	53	Neutral	niebieski	blue	Neutral	Neutral	hit	n/a
400.2272	n/a	RESPONSE	n/a	n/a	n/a	n/a	n/a	n/a	n/a	blue
400.2506	1.0167	ITI	n/a	n/a	n/a	n/a	n/a	n/a	n/a	n/a
401.2673	0.5167	FIXCROSS	n/a	n/a	n/a	n/a	n/a	n/a	n/a	n/a
401.784	0.7	COLOR_NAME	54	Neutral	niebieski	blue	Neutral	Neutral	hit	n/a
402.4667	n/a	RESPONSE	n/a	n/a	n/a	n/a	n/a	n/a	n/a	blue
402.484	1.0167	ITI	n/a	n/a	n/a	n/a	n/a	n/a	n/a	n/a
403.5007	0.5167	FIXCROSS	n/a	n/a	n/a	n/a	n/a	n/a	n/a	n/a
404.0173	0.7	COLOR_NAME	55	Incongruent	żółty	yellow	zielony	green	hit	n/a
404.6902	n/a	RESPONSE	n/a	n/a	n/a	n/a	n/a	n/a	n/a	yellow
404.7173	1.0167	ITI	n/a	n/a	n/a	n/a	n/a	n/a	n/a	n/a
405.734	0.5167	FIXCROSS	n/a	n/a	n/a	n/a	n/a	n/a	n/a	n/a
406.2507	0.7167	COLOR_NAME	56	Incongruent	żółty	yellow	niebieski	blue	hit	n/a
406.9456	n/a	RESPONSE	n/a	n/a	n/a	n/a	n/a	n/a	n/a	yellow
406.9674	1.0167	ITI	n/a	n/a	n/a	n/a	n/a	n/a	n/a	n/a
407.984	0.5167	FIXCROSS	n/a	n/a	n/a	n/a	n/a	n/a	n/a	n/a
408.5007	0.85	COLOR_NAME	57	Neutral	żółty	yellow	Neutral	Neutral	hit	n/a
409.3291	n/a	RESPONSE	n/a	n/a	n/a	n/a	n/a	n/a	n/a	yellow
409.3507	1.0167	ITI	n/a	n/a	n/a	n/a	n/a	n/a	n/a	n/a
410.3674	0.5167	FIXCROSS	n/a	n/a	n/a	n/a	n/a	n/a	n/a	n/a
410.8841	0.6333	COLOR_NAME	58	Neutral	żółty	yellow	Neutral	Neutral	hit	n/a
411.4885	n/a	RESPONSE	n/a	n/a	n/a	n/a	n/a	n/a	n/a	yellow
411.5174	1.0167	ITI	n/a	n/a	n/a	n/a	n/a	n/a	n/a	n/a
412.5341	0.5167	FIXCROSS	n/a	n/a	n/a	n/a	n/a	n/a	n/a	n/a
413.0508	0.6167	COLOR_NAME	59	Incongruent	czerwony	red	zielony	green	hit	n/a
413.6481	n/a	RESPONSE	n/a	n/a	n/a	n/a	n/a	n/a	n/a	red
413.6675	1.0167	ITI	n/a	n/a	n/a	n/a	n/a	n/a	n/a	n/a
414.6841	0.5167	FIXCROSS	n/a	n/a	n/a	n/a	n/a	n/a	n/a	n/a
415.2008	0.9667	COLOR_NAME	60	Incongruent	czerwony	red	niebieski	blue	hit	n/a
416.1435	n/a	RESPONSE	n/a	n/a	n/a	n/a	n/a	n/a	n/a	red
416.1675	1.0167	ITI	n/a	n/a	n/a	n/a	n/a	n/a	n/a	n/a
417.1842	0.5167	FIXCROSS	n/a	n/a	n/a	n/a	n/a	n/a	n/a	n/a
417.7008	0.7	COLOR_NAME	61	Incongruent	czerwony	red	żółty	yellow	hit	n/a
418.383	n/a	RESPONSE	n/a	n/a	n/a	n/a	n/a	n/a	n/a	red
418.4009	1.0167	ITI	n/a	n/a	n/a	n/a	n/a	n/a	n/a	n/a
419.4175	0.5167	FIXCROSS	n/a	n/a	n/a	n/a	n/a	n/a	n/a	n/a
419.9342	0.65	COLOR_NAME	62	Neutral	zielony	green	Neutral	Neutral	hit	n/a
420.5584	n/a	RESPONSE	n/a	n/a	n/a	n/a	n/a	n/a	n/a	green
420.5842	1.0167	ITI	n/a	n/a	n/a	n/a	n/a	n/a	n/a	n/a
421.6009	0.5167	FIXCROSS	n/a	n/a	n/a	n/a	n/a	n/a	n/a	n/a
422.1176	0.7667	COLOR_NAME	63	Neutral	czerwony	red	Neutral	Neutral	hit	n/a
422.8619	n/a	RESPONSE	n/a	n/a	n/a	n/a	n/a	n/a	n/a	red
422.8842	1.0167	ITI	n/a	n/a	n/a	n/a	n/a	n/a	n/a	n/a
423.9009	0.5167	FIXCROSS	n/a	n/a	n/a	n/a	n/a	n/a	n/a	n/a
424.4176	0.6834	COLOR_NAME	64	Neutral	niebieski	blue	Neutral	Neutral	hit	n/a
425.0694	n/a	RESPONSE	n/a	n/a	n/a	n/a	n/a	n/a	n/a	blue
425.101	1.0167	ITI	n/a	n/a	n/a	n/a	n/a	n/a	n/a	n/a
426.1176	0.5167	FIXCROSS	n/a	n/a	n/a	n/a	n/a	n/a	n/a	n/a
426.6343	0.6667	COLOR_NAME	65	Incongruent	niebieski	blue	zielony	green	hit	n/a
427.2769	n/a	RESPONSE	n/a	n/a	n/a	n/a	n/a	n/a	n/a	blue
427.301	1.0167	ITI	n/a	n/a	n/a	n/a	n/a	n/a	n/a	n/a
428.3176	0.5167	FIXCROSS	n/a	n/a	n/a	n/a	n/a	n/a	n/a	n/a
428.8343	0.6833	COLOR_NAME	66	Neutral	czerwony	red	Neutral	Neutral	hit	n/a
429.5004	n/a	RESPONSE	n/a	n/a	n/a	n/a	n/a	n/a	n/a	red
429.5177	1.0167	ITI	n/a	n/a	n/a	n/a	n/a	n/a	n/a	n/a
430.5343	0.5167	FIXCROSS	n/a	n/a	n/a	n/a	n/a	n/a	n/a	n/a
431.051	0.7333	COLOR_NAME	67	Incongruent	niebieski	blue	żółty	yellow	hit	n/a
431.7559	n/a	RESPONSE	n/a	n/a	n/a	n/a	n/a	n/a	n/a	blue
431.7844	1.0167	ITI	n/a	n/a	n/a	n/a	n/a	n/a	n/a	n/a
432.801	0.5167	FIXCROSS	n/a	n/a	n/a	n/a	n/a	n/a	n/a	n/a
433.3177	0.5833	COLOR_NAME	68	Neutral	czerwony	red	Neutral	Neutral	hit	n/a
433.8674	n/a	RESPONSE	n/a	n/a	n/a	n/a	n/a	n/a	n/a	red
433.9011	1.0167	ITI	n/a	n/a	n/a	n/a	n/a	n/a	n/a	n/a
434.9178	0.5167	FIXCROSS	n/a	n/a	n/a	n/a	n/a	n/a	n/a	n/a
435.4344	0.7	COLOR_NAME	69	Incongruent	czerwony	red	niebieski	blue	hit	n/a
436.1069	n/a	RESPONSE	n/a	n/a	n/a	n/a	n/a	n/a	n/a	red
436.1344	1.0167	ITI	n/a	n/a	n/a	n/a	n/a	n/a	n/a	n/a
437.1511	0.5167	FIXCROSS	n/a	n/a	n/a	n/a	n/a	n/a	n/a	n/a
437.6678	0.7167	COLOR_NAME	70	Neutral	żółty	yellow	Neutral	Neutral	hit	n/a
438.3623	n/a	RESPONSE	n/a	n/a	n/a	n/a	n/a	n/a	n/a	yellow
438.3844	1.0167	ITI	n/a	n/a	n/a	n/a	n/a	n/a	n/a	n/a
439.4011	0.5167	FIXCROSS	n/a	n/a	n/a	n/a	n/a	n/a	n/a	n/a
439.9178	0.65	COLOR_NAME	71	Neutral	niebieski	blue	Neutral	Neutral	hit	n/a
440.5378	n/a	RESPONSE	n/a	n/a	n/a	n/a	n/a	n/a	n/a	blue
440.5678	1.0167	ITI	n/a	n/a	n/a	n/a	n/a	n/a	n/a	n/a
441.5845	0.5167	FIXCROSS	n/a	n/a	n/a	n/a	n/a	n/a	n/a	n/a
442.1012	0.8667	COLOR_NAME	72	Incongruent	zielony	green	żółty	yellow	hit	n/a
442.9373	n/a	RESPONSE	n/a	n/a	n/a	n/a	n/a	n/a	n/a	green
442.9678	1.0334	ITI	n/a	n/a	n/a	n/a	n/a	n/a	n/a	n/a
446.8084	n/a	RESPONSE	n/a	n/a	n/a	n/a	n/a	n/a	n/a	n/a
