onset	duration	trial_type	trial_number	stroop_condition	stim_text(PL)	stim_text(eng)	stim_color(PL)	stim_color(eng)	response_type	response_color
0.0	n/a	RESPONSE	n/a	n/a	n/a	n/a	n/a	n/a	n/a	n/a
0.0627	1.0167	ITI	n/a	n/a	n/a	n/a	n/a	n/a	n/a	n/a
1.0794	0.5167	FIXCROSS	n/a	n/a	n/a	n/a	n/a	n/a	n/a	n/a
1.5961	1.45	T_INK	1	Incongruent	żółty	yellow	czerwony	red	hit	n/a
3.0232	n/a	RESPONSE	n/a	n/a	n/a	n/a	n/a	n/a	n/a	red
3.0461	0.5167	FEEDBACK	n/a	n/a	n/a	n/a	n/a	n/a	n/a	n/a
3.5628	1.0167	ITI	n/a	n/a	n/a	n/a	n/a	n/a	n/a	n/a
4.5794	0.5167	FIXCROSS	n/a	n/a	n/a	n/a	n/a	n/a	n/a	n/a
5.0961	0.9	T_INK	2	Neutral	xxxxxxx	xxxxxxx	niebieski	blue	hit	n/a
5.9665	n/a	RESPONSE	n/a	n/a	n/a	n/a	n/a	n/a	n/a	blue
5.9961	0.5167	FEEDBACK	n/a	n/a	n/a	n/a	n/a	n/a	n/a	n/a
6.5128	1.0167	ITI	n/a	n/a	n/a	n/a	n/a	n/a	n/a	n/a
7.5295	0.5167	FIXCROSS	n/a	n/a	n/a	n/a	n/a	n/a	n/a	n/a
8.0462	1.0667	T_INK	3	Incongruent	zielony	green	czerwony	red	hit	n/a
9.0857	n/a	RESPONSE	n/a	n/a	n/a	n/a	n/a	n/a	n/a	red
9.1128	0.5167	FEEDBACK	n/a	n/a	n/a	n/a	n/a	n/a	n/a	n/a
9.6295	1.0167	ITI	n/a	n/a	n/a	n/a	n/a	n/a	n/a	n/a
10.6462	0.5167	FIXCROSS	n/a	n/a	n/a	n/a	n/a	n/a	n/a	n/a
11.1629	0.8833	T_INK	4	Incongruent	niebieski	blue	czerwony	red	hit	n/a
12.013	n/a	RESPONSE	n/a	n/a	n/a	n/a	n/a	n/a	n/a	red
12.0462	0.5167	FEEDBACK	n/a	n/a	n/a	n/a	n/a	n/a	n/a	n/a
12.5629	1.0167	ITI	n/a	n/a	n/a	n/a	n/a	n/a	n/a	n/a
13.5795	0.5167	FIXCROSS	n/a	n/a	n/a	n/a	n/a	n/a	n/a	n/a
14.0962	0.85	T_INK	5	Neutral	xxxxx	xxxxx	niebieski	blue	hit	n/a
14.9243	n/a	RESPONSE	n/a	n/a	n/a	n/a	n/a	n/a	n/a	blue
14.9462	0.5167	FEEDBACK	n/a	n/a	n/a	n/a	n/a	n/a	n/a	n/a
15.4629	1.0167	ITI	n/a	n/a	n/a	n/a	n/a	n/a	n/a	n/a
16.4796	0.5167	FIXCROSS	n/a	n/a	n/a	n/a	n/a	n/a	n/a	n/a
16.9963	1.15	T_INK	6	Incongruent	żółty	yellow	niebieski	blue	hit	n/a
18.1236	n/a	RESPONSE	n/a	n/a	n/a	n/a	n/a	n/a	n/a	blue
18.1463	0.5167	FEEDBACK	n/a	n/a	n/a	n/a	n/a	n/a	n/a	n/a
18.6629	1.0167	ITI	n/a	n/a	n/a	n/a	n/a	n/a	n/a	n/a
19.6796	0.5167	FIXCROSS	n/a	n/a	n/a	n/a	n/a	n/a	n/a	n/a
20.1963	1.0333	T_INK	7	Neutral	xxxxxxxx	xxxxxxxx	zielony	green	hit	n/a
21.1948	n/a	RESPONSE	n/a	n/a	n/a	n/a	n/a	n/a	n/a	green
21.2296	0.5167	FEEDBACK	n/a	n/a	n/a	n/a	n/a	n/a	n/a	n/a
21.7463	1.0167	ITI	n/a	n/a	n/a	n/a	n/a	n/a	n/a	n/a
22.763	0.5167	FIXCROSS	n/a	n/a	n/a	n/a	n/a	n/a	n/a	n/a
23.2797	0.9833	T_INK	8	Neutral	xxxxxxx	xxxxxxx	żółty	yellow	hit	n/a
24.2341	n/a	RESPONSE	n/a	n/a	n/a	n/a	n/a	n/a	n/a	yellow
24.263	0.5167	FEEDBACK	n/a	n/a	n/a	n/a	n/a	n/a	n/a	n/a
24.7797	1.0167	ITI	n/a	n/a	n/a	n/a	n/a	n/a	n/a	n/a
25.7964	0.5167	FIXCROSS	n/a	n/a	n/a	n/a	n/a	n/a	n/a	n/a
26.313	1.5333	T_INK	9	Incongruent	żółty	yellow	zielony	green	hit	n/a
27.8172	n/a	RESPONSE	n/a	n/a	n/a	n/a	n/a	n/a	n/a	green
27.8464	0.5167	FEEDBACK	n/a	n/a	n/a	n/a	n/a	n/a	n/a	n/a
28.3631	1.0167	ITI	n/a	n/a	n/a	n/a	n/a	n/a	n/a	n/a
29.3797	0.5167	FIXCROSS	n/a	n/a	n/a	n/a	n/a	n/a	n/a	n/a
29.8964	1.25	T_INK	10	Incongruent	zielony	green	niebieski	blue	hit	n/a
31.1124	n/a	RESPONSE	n/a	n/a	n/a	n/a	n/a	n/a	n/a	blue
31.1464	0.5167	FEEDBACK	n/a	n/a	n/a	n/a	n/a	n/a	n/a	n/a
31.6631	1.0167	ITI	n/a	n/a	n/a	n/a	n/a	n/a	n/a	n/a
32.6798	0.5167	FIXCROSS	n/a	n/a	n/a	n/a	n/a	n/a	n/a	n/a
33.1965	0.7667	T_INK	11	Neutral	xxxxxxxx	xxxxxxxx	żółty	yellow	hit	n/a
33.9437	n/a	RESPONSE	n/a	n/a	n/a	n/a	n/a	n/a	n/a	yellow
33.9631	0.5167	FEEDBACK	n/a	n/a	n/a	n/a	n/a	n/a	n/a	n/a
34.4798	1.0167	ITI	n/a	n/a	n/a	n/a	n/a	n/a	n/a	n/a
35.4965	0.5167	FIXCROSS	n/a	n/a	n/a	n/a	n/a	n/a	n/a	n/a
36.0131	0.95	T_INK	12	Neutral	xxxxxxx	xxxxxxx	czerwony	red	hit	n/a
36.935	n/a	RESPONSE	n/a	n/a	n/a	n/a	n/a	n/a	n/a	red
36.9632	0.5167	FEEDBACK	n/a	n/a	n/a	n/a	n/a	n/a	n/a	n/a
37.4798	1.0333	ITI	n/a	n/a	n/a	n/a	n/a	n/a	n/a	n/a
42.1498	n/a	RESPONSE	n/a	n/a	n/a	n/a	n/a	n/a	n/a	n/a
42.2132	1.0167	ITI	n/a	n/a	n/a	n/a	n/a	n/a	n/a	n/a
43.2299	0.5167	FIXCROSS	n/a	n/a	n/a	n/a	n/a	n/a	n/a	n/a
43.7466	0.9	INK	1	Incongruent	zielony	green	niebieski	blue	hit	n/a
44.6291	n/a	RESPONSE	n/a	n/a	n/a	n/a	n/a	n/a	n/a	blue
44.6466	1.0167	ITI	n/a	n/a	n/a	n/a	n/a	n/a	n/a	n/a
45.6633	0.5167	FIXCROSS	n/a	n/a	n/a	n/a	n/a	n/a	n/a	n/a
46.1799	0.8167	INK	2	Neutral	xxxxxxx	xxxxxxx	żółty	yellow	hit	n/a
46.9646	n/a	RESPONSE	n/a	n/a	n/a	n/a	n/a	n/a	n/a	yellow
46.9966	1.0167	ITI	n/a	n/a	n/a	n/a	n/a	n/a	n/a	n/a
48.0133	0.5167	FIXCROSS	n/a	n/a	n/a	n/a	n/a	n/a	n/a	n/a
48.53	0.8167	INK	3	Neutral	xxxxxxxxx	xxxxxxxxx	czerwony	red	hit	n/a
49.316	n/a	RESPONSE	n/a	n/a	n/a	n/a	n/a	n/a	n/a	red
49.3466	1.0167	ITI	n/a	n/a	n/a	n/a	n/a	n/a	n/a	n/a
50.3633	0.5167	FIXCROSS	n/a	n/a	n/a	n/a	n/a	n/a	n/a	n/a
50.88	0.85	INK	4	Neutral	xxxxxxxxx	xxxxxxxxx	zielony	green	hit	n/a
51.6994	n/a	RESPONSE	n/a	n/a	n/a	n/a	n/a	n/a	n/a	green
51.73	1.0167	ITI	n/a	n/a	n/a	n/a	n/a	n/a	n/a	n/a
52.7467	0.5167	FIXCROSS	n/a	n/a	n/a	n/a	n/a	n/a	n/a	n/a
53.2634	0.6333	INK	5	Neutral	xxxxxxxxx	xxxxxxxxx	zielony	green	hit	n/a
53.8749	n/a	RESPONSE	n/a	n/a	n/a	n/a	n/a	n/a	n/a	green
53.8967	1.0167	ITI	n/a	n/a	n/a	n/a	n/a	n/a	n/a	n/a
54.9134	0.5167	FIXCROSS	n/a	n/a	n/a	n/a	n/a	n/a	n/a	n/a
55.4301	0.85	INK	6	Neutral	xxxxxxxx	xxxxxxxx	niebieski	blue	hit	n/a
56.2584	n/a	RESPONSE	n/a	n/a	n/a	n/a	n/a	n/a	n/a	blue
56.2801	1.0167	ITI	n/a	n/a	n/a	n/a	n/a	n/a	n/a	n/a
57.2967	0.5167	FIXCROSS	n/a	n/a	n/a	n/a	n/a	n/a	n/a	n/a
57.8134	0.9334	INK	7	Incongruent	żółty	yellow	zielony	green	hit	n/a
58.7217	n/a	RESPONSE	n/a	n/a	n/a	n/a	n/a	n/a	n/a	green
58.7468	1.0167	ITI	n/a	n/a	n/a	n/a	n/a	n/a	n/a	n/a
59.7634	0.5167	FIXCROSS	n/a	n/a	n/a	n/a	n/a	n/a	n/a	n/a
60.2801	0.7834	INK	8	Neutral	xxxxxxxxx	xxxxxxxxx	czerwony	red	hit	n/a
61.0412	n/a	RESPONSE	n/a	n/a	n/a	n/a	n/a	n/a	n/a	red
61.0635	1.0167	ITI	n/a	n/a	n/a	n/a	n/a	n/a	n/a	n/a
62.0801	0.5167	FIXCROSS	n/a	n/a	n/a	n/a	n/a	n/a	n/a	n/a
62.5968	0.9167	INK	9	Incongruent	czerwony	red	żółty	yellow	hit	n/a
63.4886	n/a	RESPONSE	n/a	n/a	n/a	n/a	n/a	n/a	n/a	yellow
63.5135	1.0167	ITI	n/a	n/a	n/a	n/a	n/a	n/a	n/a	n/a
64.5302	0.5167	FIXCROSS	n/a	n/a	n/a	n/a	n/a	n/a	n/a	n/a
65.0468	0.8	INK	10	Incongruent	zielony	green	niebieski	blue	hit	n/a
65.824	n/a	RESPONSE	n/a	n/a	n/a	n/a	n/a	n/a	n/a	blue
65.8468	1.0167	ITI	n/a	n/a	n/a	n/a	n/a	n/a	n/a	n/a
66.8635	0.5167	FIXCROSS	n/a	n/a	n/a	n/a	n/a	n/a	n/a	n/a
67.3802	0.7167	INK	11	Neutral	xxxxxxxx	xxxxxxxx	zielony	green	hit	n/a
68.0635	n/a	RESPONSE	n/a	n/a	n/a	n/a	n/a	n/a	n/a	green
68.0969	1.0167	ITI	n/a	n/a	n/a	n/a	n/a	n/a	n/a	n/a
69.1135	0.5167	FIXCROSS	n/a	n/a	n/a	n/a	n/a	n/a	n/a	n/a
69.6302	0.9333	INK	12	Incongruent	żółty	yellow	czerwony	red	hit	n/a
70.5429	n/a	RESPONSE	n/a	n/a	n/a	n/a	n/a	n/a	n/a	red
70.5636	1.0167	ITI	n/a	n/a	n/a	n/a	n/a	n/a	n/a	n/a
71.5802	0.5167	FIXCROSS	n/a	n/a	n/a	n/a	n/a	n/a	n/a	n/a
72.0969	0.7	INK	13	Neutral	xxxxx	xxxxx	niebieski	blue	hit	n/a
72.7663	n/a	RESPONSE	n/a	n/a	n/a	n/a	n/a	n/a	n/a	blue
72.7969	1.0167	ITI	n/a	n/a	n/a	n/a	n/a	n/a	n/a	n/a
73.8136	0.5167	FIXCROSS	n/a	n/a	n/a	n/a	n/a	n/a	n/a	n/a
74.3303	1.0167	INK	14	Incongruent	zielony	green	czerwony	red	hit	n/a
75.3257	n/a	RESPONSE	n/a	n/a	n/a	n/a	n/a	n/a	n/a	red
75.347	1.0167	ITI	n/a	n/a	n/a	n/a	n/a	n/a	n/a	n/a
76.3636	0.5167	FIXCROSS	n/a	n/a	n/a	n/a	n/a	n/a	n/a	n/a
76.8803	0.6833	INK	15	Neutral	xxxxxxx	xxxxxxx	żółty	yellow	hit	n/a
77.5332	n/a	RESPONSE	n/a	n/a	n/a	n/a	n/a	n/a	n/a	yellow
77.5637	1.0167	ITI	n/a	n/a	n/a	n/a	n/a	n/a	n/a	n/a
78.5803	0.5167	FIXCROSS	n/a	n/a	n/a	n/a	n/a	n/a	n/a	n/a
79.097	0.8	INK	16	Incongruent	niebieski	blue	żółty	yellow	hit	n/a
79.8686	n/a	RESPONSE	n/a	n/a	n/a	n/a	n/a	n/a	n/a	yellow
79.897	1.0167	ITI	n/a	n/a	n/a	n/a	n/a	n/a	n/a	n/a
80.9137	0.5167	FIXCROSS	n/a	n/a	n/a	n/a	n/a	n/a	n/a	n/a
81.4304	0.7833	INK	17	Neutral	xxxxx	xxxxx	czerwony	red	hit	n/a
82.1881	n/a	RESPONSE	n/a	n/a	n/a	n/a	n/a	n/a	n/a	red
82.2137	1.0167	ITI	n/a	n/a	n/a	n/a	n/a	n/a	n/a	n/a
83.2304	0.5167	FIXCROSS	n/a	n/a	n/a	n/a	n/a	n/a	n/a	n/a
83.7471	0.6	INK	18	Incongruent	niebieski	blue	czerwony	red	hit	n/a
84.3156	n/a	RESPONSE	n/a	n/a	n/a	n/a	n/a	n/a	n/a	red
84.3471	1.0167	ITI	n/a	n/a	n/a	n/a	n/a	n/a	n/a	n/a
85.3637	0.5167	FIXCROSS	n/a	n/a	n/a	n/a	n/a	n/a	n/a	n/a
85.8804	0.85	INK	19	Incongruent	żółty	yellow	niebieski	blue	hit	n/a
86.699	n/a	RESPONSE	n/a	n/a	n/a	n/a	n/a	n/a	n/a	blue
86.7304	1.0167	ITI	n/a	n/a	n/a	n/a	n/a	n/a	n/a	n/a
87.7471	0.5167	FIXCROSS	n/a	n/a	n/a	n/a	n/a	n/a	n/a	n/a
88.2638	1.05	INK	20	Incongruent	zielony	green	czerwony	red	hit	n/a
89.2904	n/a	RESPONSE	n/a	n/a	n/a	n/a	n/a	n/a	n/a	red
89.3138	1.0167	ITI	n/a	n/a	n/a	n/a	n/a	n/a	n/a	n/a
90.3305	0.5167	FIXCROSS	n/a	n/a	n/a	n/a	n/a	n/a	n/a	n/a
90.8471	0.8167	INK	21	Incongruent	żółty	yellow	zielony	green	hit	n/a
91.6418	n/a	RESPONSE	n/a	n/a	n/a	n/a	n/a	n/a	n/a	green
91.6638	1.0167	ITI	n/a	n/a	n/a	n/a	n/a	n/a	n/a	n/a
92.6805	0.5167	FIXCROSS	n/a	n/a	n/a	n/a	n/a	n/a	n/a	n/a
93.1972	0.7667	INK	22	Neutral	xxxxxxx	xxxxxxx	czerwony	red	hit	n/a
93.9452	n/a	RESPONSE	n/a	n/a	n/a	n/a	n/a	n/a	n/a	red
93.9638	1.0167	ITI	n/a	n/a	n/a	n/a	n/a	n/a	n/a	n/a
94.9805	0.5167	FIXCROSS	n/a	n/a	n/a	n/a	n/a	n/a	n/a	n/a
95.4972	0.8667	INK	23	Incongruent	czerwony	red	zielony	green	hit	n/a
96.3446	n/a	RESPONSE	n/a	n/a	n/a	n/a	n/a	n/a	n/a	green
96.3639	1.0167	ITI	n/a	n/a	n/a	n/a	n/a	n/a	n/a	n/a
97.3805	0.5167	FIXCROSS	n/a	n/a	n/a	n/a	n/a	n/a	n/a	n/a
97.8972	0.5667	INK	24	Neutral	xxxxx	xxxxx	zielony	green	hit	n/a
98.4401	n/a	RESPONSE	n/a	n/a	n/a	n/a	n/a	n/a	n/a	green
98.4639	1.0167	ITI	n/a	n/a	n/a	n/a	n/a	n/a	n/a	n/a
99.4806	0.5167	FIXCROSS	n/a	n/a	n/a	n/a	n/a	n/a	n/a	n/a
99.9972	1.0167	INK	25	Neutral	xxxxx	xxxxx	czerwony	red	hit	n/a
100.9835	n/a	RESPONSE	n/a	n/a	n/a	n/a	n/a	n/a	n/a	red
101.0139	1.0167	ITI	n/a	n/a	n/a	n/a	n/a	n/a	n/a	n/a
102.0306	0.5167	FIXCROSS	n/a	n/a	n/a	n/a	n/a	n/a	n/a	n/a
102.5473	0.7667	INK	26	Neutral	xxxxxxx	xxxxxxx	niebieski	blue	hit	n/a
103.287	n/a	RESPONSE	n/a	n/a	n/a	n/a	n/a	n/a	n/a	blue
103.314	1.0167	ITI	n/a	n/a	n/a	n/a	n/a	n/a	n/a	n/a
104.3306	0.5167	FIXCROSS	n/a	n/a	n/a	n/a	n/a	n/a	n/a	n/a
104.8473	0.75	INK	27	Neutral	xxxxx	xxxxx	zielony	green	hit	n/a
105.5744	n/a	RESPONSE	n/a	n/a	n/a	n/a	n/a	n/a	n/a	green
105.5973	1.0149	ITI	n/a	n/a	n/a	n/a	n/a	n/a	n/a	n/a
106.6122	0.5185	FIXCROSS	n/a	n/a	n/a	n/a	n/a	n/a	n/a	n/a
107.1307	0.7333	INK	28	Neutral	xxxxxxxxx	xxxxxxxxx	żółty	yellow	hit	n/a
107.8459	n/a	RESPONSE	n/a	n/a	n/a	n/a	n/a	n/a	n/a	yellow
107.864	1.0167	ITI	n/a	n/a	n/a	n/a	n/a	n/a	n/a	n/a
108.8807	0.5167	FIXCROSS	n/a	n/a	n/a	n/a	n/a	n/a	n/a	n/a
109.3974	0.6833	INK	29	Incongruent	czerwony	red	żółty	yellow	hit	n/a
110.0533	n/a	RESPONSE	n/a	n/a	n/a	n/a	n/a	n/a	n/a	yellow
110.0807	1.0167	ITI	n/a	n/a	n/a	n/a	n/a	n/a	n/a	n/a
111.0974	0.5167	FIXCROSS	n/a	n/a	n/a	n/a	n/a	n/a	n/a	n/a
111.6141	0.7	INK	30	Neutral	xxxxxxxx	xxxxxxxx	zielony	green	hit	n/a
112.2928	n/a	RESPONSE	n/a	n/a	n/a	n/a	n/a	n/a	n/a	green
112.3141	1.0167	ITI	n/a	n/a	n/a	n/a	n/a	n/a	n/a	n/a
113.3307	0.5167	FIXCROSS	n/a	n/a	n/a	n/a	n/a	n/a	n/a	n/a
113.8474	0.7167	INK	31	Neutral	xxxxxxxx	xxxxxxxx	niebieski	blue	hit	n/a
114.5323	n/a	RESPONSE	n/a	n/a	n/a	n/a	n/a	n/a	n/a	blue
114.5641	1.0167	ITI	n/a	n/a	n/a	n/a	n/a	n/a	n/a	n/a
115.5808	0.5167	FIXCROSS	n/a	n/a	n/a	n/a	n/a	n/a	n/a	n/a
116.0974	0.8667	INK	32	Incongruent	niebieski	blue	zielony	green	hit	n/a
116.9316	n/a	RESPONSE	n/a	n/a	n/a	n/a	n/a	n/a	n/a	green
116.9641	1.0167	ITI	n/a	n/a	n/a	n/a	n/a	n/a	n/a	n/a
117.9808	0.5167	FIXCROSS	n/a	n/a	n/a	n/a	n/a	n/a	n/a	n/a
118.4975	0.6167	INK	33	Neutral	xxxxxxxx	xxxxxxxx	zielony	green	hit	n/a
119.0911	n/a	RESPONSE	n/a	n/a	n/a	n/a	n/a	n/a	n/a	green
119.1141	1.0166	ITI	n/a	n/a	n/a	n/a	n/a	n/a	n/a	n/a
120.1307	0.5168	FIXCROSS	n/a	n/a	n/a	n/a	n/a	n/a	n/a	n/a
120.6475	0.7833	INK	34	Incongruent	czerwony	red	żółty	yellow	hit	n/a
121.3946	n/a	RESPONSE	n/a	n/a	n/a	n/a	n/a	n/a	n/a	yellow
121.4308	1.0167	ITI	n/a	n/a	n/a	n/a	n/a	n/a	n/a	n/a
122.4475	0.5167	FIXCROSS	n/a	n/a	n/a	n/a	n/a	n/a	n/a	n/a
122.9642	0.5667	INK	35	Neutral	xxxxxxx	xxxxxxx	żółty	yellow	hit	n/a
123.5061	n/a	RESPONSE	n/a	n/a	n/a	n/a	n/a	n/a	n/a	yellow
123.5309	1.0167	ITI	n/a	n/a	n/a	n/a	n/a	n/a	n/a	n/a
124.5475	0.5167	FIXCROSS	n/a	n/a	n/a	n/a	n/a	n/a	n/a	n/a
125.0642	0.4667	INK	36	Neutral	xxxxxxxxx	xxxxxxxxx	żółty	yellow	hit	n/a
125.5056	n/a	RESPONSE	n/a	n/a	n/a	n/a	n/a	n/a	n/a	yellow
125.5309	1.0167	ITI	n/a	n/a	n/a	n/a	n/a	n/a	n/a	n/a
126.5476	0.5167	FIXCROSS	n/a	n/a	n/a	n/a	n/a	n/a	n/a	n/a
127.0642	1.0167	INK	37	Incongruent	czerwony	red	niebieski	blue	hit	n/a
128.049	n/a	RESPONSE	n/a	n/a	n/a	n/a	n/a	n/a	n/a	blue
128.0809	1.0167	ITI	n/a	n/a	n/a	n/a	n/a	n/a	n/a	n/a
129.0976	0.5167	FIXCROSS	n/a	n/a	n/a	n/a	n/a	n/a	n/a	n/a
129.6143	0.6833	INK	38	Incongruent	czerwony	red	niebieski	blue	hit	n/a
130.2724	n/a	RESPONSE	n/a	n/a	n/a	n/a	n/a	n/a	n/a	blue
130.2976	1.0167	ITI	n/a	n/a	n/a	n/a	n/a	n/a	n/a	n/a
131.3143	0.5167	FIXCROSS	n/a	n/a	n/a	n/a	n/a	n/a	n/a	n/a
131.831	1.0833	INK	39	Incongruent	żółty	yellow	czerwony	red	hit	n/a
132.8958	n/a	RESPONSE	n/a	n/a	n/a	n/a	n/a	n/a	n/a	red
132.9143	1.0167	ITI	n/a	n/a	n/a	n/a	n/a	n/a	n/a	n/a
133.931	0.5167	FIXCROSS	n/a	n/a	n/a	n/a	n/a	n/a	n/a	n/a
134.4477	0.8333	INK	40	Incongruent	żółty	yellow	niebieski	blue	hit	n/a
135.2472	n/a	RESPONSE	n/a	n/a	n/a	n/a	n/a	n/a	n/a	blue
135.281	1.0166	ITI	n/a	n/a	n/a	n/a	n/a	n/a	n/a	n/a
136.2976	0.5167	FIXCROSS	n/a	n/a	n/a	n/a	n/a	n/a	n/a	n/a
136.8144	0.8333	INK	41	Incongruent	niebieski	blue	żółty	yellow	hit	n/a
137.6147	n/a	RESPONSE	n/a	n/a	n/a	n/a	n/a	n/a	n/a	yellow
137.6477	1.0167	ITI	n/a	n/a	n/a	n/a	n/a	n/a	n/a	n/a
138.6644	0.5167	FIXCROSS	n/a	n/a	n/a	n/a	n/a	n/a	n/a	n/a
139.181	0.8	INK	42	Neutral	xxxxxxx	xxxxxxx	czerwony	red	hit	n/a
139.9501	n/a	RESPONSE	n/a	n/a	n/a	n/a	n/a	n/a	n/a	red
139.9811	1.0167	ITI	n/a	n/a	n/a	n/a	n/a	n/a	n/a	n/a
140.9977	0.5167	FIXCROSS	n/a	n/a	n/a	n/a	n/a	n/a	n/a	n/a
141.5144	0.7833	INK	43	Neutral	xxxxx	xxxxx	niebieski	blue	hit	n/a
142.2696	n/a	RESPONSE	n/a	n/a	n/a	n/a	n/a	n/a	n/a	blue
142.2978	1.0167	ITI	n/a	n/a	n/a	n/a	n/a	n/a	n/a	n/a
143.3144	0.5167	FIXCROSS	n/a	n/a	n/a	n/a	n/a	n/a	n/a	n/a
143.8311	0.5833	INK	44	Neutral	xxxxxxx	xxxxxxx	niebieski	blue	hit	n/a
144.381	n/a	RESPONSE	n/a	n/a	n/a	n/a	n/a	n/a	n/a	blue
144.4144	1.0167	ITI	n/a	n/a	n/a	n/a	n/a	n/a	n/a	n/a
145.4311	0.5167	FIXCROSS	n/a	n/a	n/a	n/a	n/a	n/a	n/a	n/a
145.9478	0.8333	INK	45	Incongruent	niebieski	blue	czerwony	red	hit	n/a
146.7485	n/a	RESPONSE	n/a	n/a	n/a	n/a	n/a	n/a	n/a	red
146.7811	1.0167	ITI	n/a	n/a	n/a	n/a	n/a	n/a	n/a	n/a
147.7978	0.5167	FIXCROSS	n/a	n/a	n/a	n/a	n/a	n/a	n/a	n/a
148.3145	0.7333	INK	46	Incongruent	niebieski	blue	żółty	yellow	hit	n/a
149.0199	n/a	RESPONSE	n/a	n/a	n/a	n/a	n/a	n/a	n/a	yellow
149.0478	1.0167	ITI	n/a	n/a	n/a	n/a	n/a	n/a	n/a	n/a
150.0645	0.5167	FIXCROSS	n/a	n/a	n/a	n/a	n/a	n/a	n/a	n/a
150.5812	0.75	INK	47	Neutral	xxxxx	xxxxx	zielony	green	hit	n/a
151.3073	n/a	RESPONSE	n/a	n/a	n/a	n/a	n/a	n/a	n/a	green
151.3312	1.0167	ITI	n/a	n/a	n/a	n/a	n/a	n/a	n/a	n/a
152.3479	0.5167	FIXCROSS	n/a	n/a	n/a	n/a	n/a	n/a	n/a	n/a
152.8645	0.8167	INK	48	Incongruent	czerwony	red	niebieski	blue	hit	n/a
153.6588	n/a	RESPONSE	n/a	n/a	n/a	n/a	n/a	n/a	n/a	blue
153.6812	1.0167	ITI	n/a	n/a	n/a	n/a	n/a	n/a	n/a	n/a
154.6979	0.5167	FIXCROSS	n/a	n/a	n/a	n/a	n/a	n/a	n/a	n/a
155.2146	0.5167	INK	49	Neutral	xxxxx	xxxxx	niebieski	blue	hit	n/a
155.7063	n/a	RESPONSE	n/a	n/a	n/a	n/a	n/a	n/a	n/a	blue
155.7312	1.0167	ITI	n/a	n/a	n/a	n/a	n/a	n/a	n/a	n/a
156.7479	0.5167	FIXCROSS	n/a	n/a	n/a	n/a	n/a	n/a	n/a	n/a
157.2646	0.5667	INK	50	Neutral	xxxxxxx	xxxxxxx	niebieski	blue	hit	n/a
157.8018	n/a	RESPONSE	n/a	n/a	n/a	n/a	n/a	n/a	n/a	blue
157.8313	1.0167	ITI	n/a	n/a	n/a	n/a	n/a	n/a	n/a	n/a
158.8479	0.5167	FIXCROSS	n/a	n/a	n/a	n/a	n/a	n/a	n/a	n/a
159.3646	0.8167	INK	51	Incongruent	zielony	green	czerwony	red	hit	n/a
160.1532	n/a	RESPONSE	n/a	n/a	n/a	n/a	n/a	n/a	n/a	red
160.1813	1.0167	ITI	n/a	n/a	n/a	n/a	n/a	n/a	n/a	n/a
161.198	0.5167	FIXCROSS	n/a	n/a	n/a	n/a	n/a	n/a	n/a	n/a
161.7146	0.75	INK	52	Incongruent	zielony	green	żółty	yellow	hit	n/a
162.4406	n/a	RESPONSE	n/a	n/a	n/a	n/a	n/a	n/a	n/a	yellow
162.4646	1.0167	ITI	n/a	n/a	n/a	n/a	n/a	n/a	n/a	n/a
163.4813	0.5167	FIXCROSS	n/a	n/a	n/a	n/a	n/a	n/a	n/a	n/a
163.998	0.85	INK	53	Incongruent	niebieski	blue	czerwony	red	hit	n/a
164.8241	n/a	RESPONSE	n/a	n/a	n/a	n/a	n/a	n/a	n/a	red
164.848	1.0167	ITI	n/a	n/a	n/a	n/a	n/a	n/a	n/a	n/a
165.8647	0.5167	FIXCROSS	n/a	n/a	n/a	n/a	n/a	n/a	n/a	n/a
166.3814	0.5167	INK	54	Neutral	xxxxx	xxxxx	czerwony	red	hit	n/a
166.8716	n/a	RESPONSE	n/a	n/a	n/a	n/a	n/a	n/a	n/a	red
166.898	1.0167	ITI	n/a	n/a	n/a	n/a	n/a	n/a	n/a	n/a
167.9147	0.5167	FIXCROSS	n/a	n/a	n/a	n/a	n/a	n/a	n/a	n/a
168.4314	0.5333	INK	55	Neutral	xxxxxxxxx	xxxxxxxxx	czerwony	red	hit	n/a
168.9351	n/a	RESPONSE	n/a	n/a	n/a	n/a	n/a	n/a	n/a	red
168.9647	1.0167	ITI	n/a	n/a	n/a	n/a	n/a	n/a	n/a	n/a
169.9814	0.5167	FIXCROSS	n/a	n/a	n/a	n/a	n/a	n/a	n/a	n/a
170.4981	1.0	INK	56	Incongruent	czerwony	red	zielony	green	hit	n/a
171.4625	n/a	RESPONSE	n/a	n/a	n/a	n/a	n/a	n/a	n/a	green
171.4981	1.0167	ITI	n/a	n/a	n/a	n/a	n/a	n/a	n/a	n/a
172.5148	0.5167	FIXCROSS	n/a	n/a	n/a	n/a	n/a	n/a	n/a	n/a
173.0314	0.8	INK	57	Neutral	xxxxxxxx	xxxxxxxx	niebieski	blue	hit	n/a
173.7979	n/a	RESPONSE	n/a	n/a	n/a	n/a	n/a	n/a	n/a	blue
173.8314	1.0167	ITI	n/a	n/a	n/a	n/a	n/a	n/a	n/a	n/a
174.8481	0.5167	FIXCROSS	n/a	n/a	n/a	n/a	n/a	n/a	n/a	n/a
175.3648	0.7167	INK	58	Neutral	xxxxxxxx	xxxxxxxx	żółty	yellow	hit	n/a
176.0534	n/a	RESPONSE	n/a	n/a	n/a	n/a	n/a	n/a	n/a	yellow
176.0815	1.0167	ITI	n/a	n/a	n/a	n/a	n/a	n/a	n/a	n/a
177.0982	0.5167	FIXCROSS	n/a	n/a	n/a	n/a	n/a	n/a	n/a	n/a
177.6148	0.7333	INK	59	Incongruent	zielony	green	żółty	yellow	hit	n/a
178.3248	n/a	RESPONSE	n/a	n/a	n/a	n/a	n/a	n/a	n/a	yellow
178.3482	1.0167	ITI	n/a	n/a	n/a	n/a	n/a	n/a	n/a	n/a
179.3648	0.5167	FIXCROSS	n/a	n/a	n/a	n/a	n/a	n/a	n/a	n/a
179.8815	0.8667	INK	60	Incongruent	czerwony	red	zielony	green	hit	n/a
180.7242	n/a	RESPONSE	n/a	n/a	n/a	n/a	n/a	n/a	n/a	green
180.7482	1.0167	ITI	n/a	n/a	n/a	n/a	n/a	n/a	n/a	n/a
181.7649	0.5167	FIXCROSS	n/a	n/a	n/a	n/a	n/a	n/a	n/a	n/a
182.2816	0.7167	INK	61	Incongruent	zielony	green	żółty	yellow	hit	n/a
182.9637	n/a	RESPONSE	n/a	n/a	n/a	n/a	n/a	n/a	n/a	yellow
182.9982	1.0167	ITI	n/a	n/a	n/a	n/a	n/a	n/a	n/a	n/a
184.0149	0.5167	FIXCROSS	n/a	n/a	n/a	n/a	n/a	n/a	n/a	n/a
184.5316	0.5333	INK	62	Neutral	xxxxxxxx	xxxxxxxx	żółty	yellow	hit	n/a
185.0432	n/a	RESPONSE	n/a	n/a	n/a	n/a	n/a	n/a	n/a	yellow
185.0649	1.0167	ITI	n/a	n/a	n/a	n/a	n/a	n/a	n/a	n/a
186.0816	0.5167	FIXCROSS	n/a	n/a	n/a	n/a	n/a	n/a	n/a	n/a
186.5983	0.9333	INK	63	Incongruent	niebieski	blue	zielony	green	hit	n/a
187.5066	n/a	RESPONSE	n/a	n/a	n/a	n/a	n/a	n/a	n/a	green
187.5316	1.0167	ITI	n/a	n/a	n/a	n/a	n/a	n/a	n/a	n/a
188.5483	0.5167	FIXCROSS	n/a	n/a	n/a	n/a	n/a	n/a	n/a	n/a
189.065	0.5167	INK	64	Neutral	xxxxxxxxx	xxxxxxxxx	zielony	green	hit	n/a
189.5541	n/a	RESPONSE	n/a	n/a	n/a	n/a	n/a	n/a	n/a	green
189.5816	1.0167	ITI	n/a	n/a	n/a	n/a	n/a	n/a	n/a	n/a
190.5983	0.5167	FIXCROSS	n/a	n/a	n/a	n/a	n/a	n/a	n/a	n/a
191.115	0.6	INK	65	Incongruent	niebieski	blue	zielony	green	hit	n/a
191.6976	n/a	RESPONSE	n/a	n/a	n/a	n/a	n/a	n/a	n/a	green
191.715	1.0167	ITI	n/a	n/a	n/a	n/a	n/a	n/a	n/a	n/a
192.7317	0.5167	FIXCROSS	n/a	n/a	n/a	n/a	n/a	n/a	n/a	n/a
193.2483	0.7667	INK	66	Incongruent	żółty	yellow	niebieski	blue	hit	n/a
193.985	n/a	RESPONSE	n/a	n/a	n/a	n/a	n/a	n/a	n/a	blue
194.015	1.0167	ITI	n/a	n/a	n/a	n/a	n/a	n/a	n/a	n/a
195.0317	0.5167	FIXCROSS	n/a	n/a	n/a	n/a	n/a	n/a	n/a	n/a
195.5484	0.7167	INK	67	Incongruent	zielony	green	niebieski	blue	hit	n/a
196.2405	n/a	RESPONSE	n/a	n/a	n/a	n/a	n/a	n/a	n/a	blue
196.265	1.0167	ITI	n/a	n/a	n/a	n/a	n/a	n/a	n/a	n/a
197.2817	0.5167	FIXCROSS	n/a	n/a	n/a	n/a	n/a	n/a	n/a	n/a
197.7984	0.75	INK	68	Neutral	xxxxxxxx	xxxxxxxx	żółty	yellow	hit	n/a
198.5279	n/a	RESPONSE	n/a	n/a	n/a	n/a	n/a	n/a	n/a	yellow
198.5484	1.0167	ITI	n/a	n/a	n/a	n/a	n/a	n/a	n/a	n/a
199.5651	0.5167	FIXCROSS	n/a	n/a	n/a	n/a	n/a	n/a	n/a	n/a
200.0818	0.7	INK	69	Neutral	xxxxxxx	xxxxxxx	czerwony	red	hit	n/a
200.7514	n/a	RESPONSE	n/a	n/a	n/a	n/a	n/a	n/a	n/a	red
200.7818	1.0167	ITI	n/a	n/a	n/a	n/a	n/a	n/a	n/a	n/a
201.7984	0.5167	FIXCROSS	n/a	n/a	n/a	n/a	n/a	n/a	n/a	n/a
202.3151	0.7333	INK	70	Incongruent	żółty	yellow	zielony	green	hit	n/a
203.0229	n/a	RESPONSE	n/a	n/a	n/a	n/a	n/a	n/a	n/a	green
203.0485	1.0167	ITI	n/a	n/a	n/a	n/a	n/a	n/a	n/a	n/a
204.0651	0.5167	FIXCROSS	n/a	n/a	n/a	n/a	n/a	n/a	n/a	n/a
204.5818	0.7334	INK	71	Neutral	xxxxxxxxx	xxxxxxxxx	żółty	yellow	hit	n/a
205.2943	n/a	RESPONSE	n/a	n/a	n/a	n/a	n/a	n/a	n/a	yellow
205.3152	1.0167	ITI	n/a	n/a	n/a	n/a	n/a	n/a	n/a	n/a
206.3318	0.5167	FIXCROSS	n/a	n/a	n/a	n/a	n/a	n/a	n/a	n/a
206.8485	0.8	INK	72	Incongruent	żółty	yellow	czerwony	red	hit	n/a
207.6297	n/a	RESPONSE	n/a	n/a	n/a	n/a	n/a	n/a	n/a	red
207.6485	1.0833	ITI	n/a	n/a	n/a	n/a	n/a	n/a	n/a	n/a
231.4	n/a	RESPONSE	n/a	n/a	n/a	n/a	n/a	n/a	n/a	n/a
231.4655	1.0167	ITI	n/a	n/a	n/a	n/a	n/a	n/a	n/a	n/a
232.4821	0.5167	FIXCROSS	n/a	n/a	n/a	n/a	n/a	n/a	n/a	n/a
232.9988	0.7833	T_COLOR_NAME	1	Incongruent	żółty	yellow	czerwony	red	hit	n/a
233.7514	n/a	RESPONSE	n/a	n/a	n/a	n/a	n/a	n/a	n/a	yellow
233.7821	0.5167	FEEDBACK	n/a	n/a	n/a	n/a	n/a	n/a	n/a	n/a
234.2988	1.0167	ITI	n/a	n/a	n/a	n/a	n/a	n/a	n/a	n/a
235.3155	0.5167	FIXCROSS	n/a	n/a	n/a	n/a	n/a	n/a	n/a	n/a
235.8322	0.7833	T_COLOR_NAME	2	Incongruent	niebieski	blue	czerwony	red	hit	n/a
236.5827	n/a	RESPONSE	n/a	n/a	n/a	n/a	n/a	n/a	n/a	blue
236.6155	0.5167	FEEDBACK	n/a	n/a	n/a	n/a	n/a	n/a	n/a	n/a
237.1322	1.0167	ITI	n/a	n/a	n/a	n/a	n/a	n/a	n/a	n/a
238.1489	0.5167	FIXCROSS	n/a	n/a	n/a	n/a	n/a	n/a	n/a	n/a
238.6655	0.8667	T_COLOR_NAME	3	Neutral	zielony	green	Neutral	Neutral	hit	n/a
239.51	n/a	RESPONSE	n/a	n/a	n/a	n/a	n/a	n/a	n/a	green
239.5322	0.5167	FEEDBACK	n/a	n/a	n/a	n/a	n/a	n/a	n/a	n/a
240.0489	1.0167	ITI	n/a	n/a	n/a	n/a	n/a	n/a	n/a	n/a
241.0656	0.5167	FIXCROSS	n/a	n/a	n/a	n/a	n/a	n/a	n/a	n/a
241.5822	0.7834	T_COLOR_NAME	4	Neutral	czerwony	red	Neutral	Neutral	hit	n/a
242.3413	n/a	RESPONSE	n/a	n/a	n/a	n/a	n/a	n/a	n/a	red
242.3656	0.5167	FEEDBACK	n/a	n/a	n/a	n/a	n/a	n/a	n/a	n/a
242.8822	1.0167	ITI	n/a	n/a	n/a	n/a	n/a	n/a	n/a	n/a
243.8989	0.5166	FIXCROSS	n/a	n/a	n/a	n/a	n/a	n/a	n/a	n/a
244.4155	0.8001	T_COLOR_NAME	5	Neutral	zielony	green	Neutral	Neutral	hit	n/a
245.1886	n/a	RESPONSE	n/a	n/a	n/a	n/a	n/a	n/a	n/a	green
245.2156	0.5167	FEEDBACK	n/a	n/a	n/a	n/a	n/a	n/a	n/a	n/a
245.7323	1.0167	ITI	n/a	n/a	n/a	n/a	n/a	n/a	n/a	n/a
246.749	0.5167	FIXCROSS	n/a	n/a	n/a	n/a	n/a	n/a	n/a	n/a
247.2656	0.7167	T_COLOR_NAME	6	Neutral	żółty	yellow	Neutral	Neutral	hit	n/a
247.956	n/a	RESPONSE	n/a	n/a	n/a	n/a	n/a	n/a	n/a	yellow
247.9823	0.5167	FEEDBACK	n/a	n/a	n/a	n/a	n/a	n/a	n/a	n/a
248.499	1.0167	ITI	n/a	n/a	n/a	n/a	n/a	n/a	n/a	n/a
249.5157	0.5167	FIXCROSS	n/a	n/a	n/a	n/a	n/a	n/a	n/a	n/a
250.0323	0.8667	T_COLOR_NAME	7	Incongruent	żółty	yellow	zielony	green	hit	n/a
250.8672	n/a	RESPONSE	n/a	n/a	n/a	n/a	n/a	n/a	n/a	yellow
250.899	0.5167	FEEDBACK	n/a	n/a	n/a	n/a	n/a	n/a	n/a	n/a
251.4157	1.0167	ITI	n/a	n/a	n/a	n/a	n/a	n/a	n/a	n/a
252.4324	0.5167	FIXCROSS	n/a	n/a	n/a	n/a	n/a	n/a	n/a	n/a
252.949	0.7167	T_COLOR_NAME	8	Incongruent	żółty	yellow	niebieski	blue	hit	n/a
253.6346	n/a	RESPONSE	n/a	n/a	n/a	n/a	n/a	n/a	n/a	yellow
253.6657	0.5167	FEEDBACK	n/a	n/a	n/a	n/a	n/a	n/a	n/a	n/a
254.1824	1.0167	ITI	n/a	n/a	n/a	n/a	n/a	n/a	n/a	n/a
255.1991	0.5167	FIXCROSS	n/a	n/a	n/a	n/a	n/a	n/a	n/a	n/a
255.7157	0.7833	T_COLOR_NAME	9	Neutral	czerwony	red	Neutral	Neutral	hit	n/a
256.4659	n/a	RESPONSE	n/a	n/a	n/a	n/a	n/a	n/a	n/a	red
256.4991	0.5167	FEEDBACK	n/a	n/a	n/a	n/a	n/a	n/a	n/a	n/a
257.0157	1.0167	ITI	n/a	n/a	n/a	n/a	n/a	n/a	n/a	n/a
258.0324	0.5167	FIXCROSS	n/a	n/a	n/a	n/a	n/a	n/a	n/a	n/a
258.5491	0.9333	T_COLOR_NAME	10	Neutral	zielony	green	Neutral	Neutral	hit	n/a
259.4572	n/a	RESPONSE	n/a	n/a	n/a	n/a	n/a	n/a	n/a	green
259.4824	0.5167	FEEDBACK	n/a	n/a	n/a	n/a	n/a	n/a	n/a	n/a
259.9991	1.0167	ITI	n/a	n/a	n/a	n/a	n/a	n/a	n/a	n/a
261.0158	0.5167	FIXCROSS	n/a	n/a	n/a	n/a	n/a	n/a	n/a	n/a
261.5325	0.7	T_COLOR_NAME	11	Incongruent	zielony	green	czerwony	red	hit	n/a
262.2085	n/a	RESPONSE	n/a	n/a	n/a	n/a	n/a	n/a	n/a	green
262.2325	0.5167	FEEDBACK	n/a	n/a	n/a	n/a	n/a	n/a	n/a	n/a
262.7491	1.0167	ITI	n/a	n/a	n/a	n/a	n/a	n/a	n/a	n/a
263.7658	0.5167	FIXCROSS	n/a	n/a	n/a	n/a	n/a	n/a	n/a	n/a
264.2825	0.6833	T_COLOR_NAME	12	Incongruent	zielony	green	niebieski	blue	hit	n/a
264.9439	n/a	RESPONSE	n/a	n/a	n/a	n/a	n/a	n/a	n/a	green
264.9658	0.5167	FEEDBACK	n/a	n/a	n/a	n/a	n/a	n/a	n/a	n/a
265.4825	1.0334	ITI	n/a	n/a	n/a	n/a	n/a	n/a	n/a	n/a
269.5667	n/a	RESPONSE	n/a	n/a	n/a	n/a	n/a	n/a	n/a	n/a
269.6326	1.0167	ITI	n/a	n/a	n/a	n/a	n/a	n/a	n/a	n/a
270.6492	0.5167	FIXCROSS	n/a	n/a	n/a	n/a	n/a	n/a	n/a	n/a
271.1659	0.7333	COLOR_NAME	1	Neutral	zielony	green	Neutral	Neutral	hit	n/a
271.8702	n/a	RESPONSE	n/a	n/a	n/a	n/a	n/a	n/a	n/a	green
271.8993	1.0167	ITI	n/a	n/a	n/a	n/a	n/a	n/a	n/a	n/a
272.9159	0.5167	FIXCROSS	n/a	n/a	n/a	n/a	n/a	n/a	n/a	n/a
273.4326	0.8167	COLOR_NAME	2	Neutral	czerwony	red	Neutral	Neutral	hit	n/a
274.2216	n/a	RESPONSE	n/a	n/a	n/a	n/a	n/a	n/a	n/a	red
274.2493	1.0167	ITI	n/a	n/a	n/a	n/a	n/a	n/a	n/a	n/a
275.266	0.5167	FIXCROSS	n/a	n/a	n/a	n/a	n/a	n/a	n/a	n/a
275.7826	0.8333	COLOR_NAME	3	Incongruent	zielony	green	czerwony	red	hit	n/a
276.589	n/a	RESPONSE	n/a	n/a	n/a	n/a	n/a	n/a	n/a	green
276.616	1.0167	ITI	n/a	n/a	n/a	n/a	n/a	n/a	n/a	n/a
277.6327	0.5167	FIXCROSS	n/a	n/a	n/a	n/a	n/a	n/a	n/a	n/a
278.1493	0.7167	COLOR_NAME	4	Neutral	żółty	yellow	Neutral	Neutral	hit	n/a
278.8445	n/a	RESPONSE	n/a	n/a	n/a	n/a	n/a	n/a	n/a	yellow
278.866	1.0167	ITI	n/a	n/a	n/a	n/a	n/a	n/a	n/a	n/a
279.8827	0.5167	FIXCROSS	n/a	n/a	n/a	n/a	n/a	n/a	n/a	n/a
280.3994	0.7333	COLOR_NAME	5	Neutral	czerwony	red	Neutral	Neutral	hit	n/a
281.1	n/a	RESPONSE	n/a	n/a	n/a	n/a	n/a	n/a	n/a	red
281.1327	1.0167	ITI	n/a	n/a	n/a	n/a	n/a	n/a	n/a	n/a
282.1494	0.5167	FIXCROSS	n/a	n/a	n/a	n/a	n/a	n/a	n/a	n/a
282.666	0.8333	COLOR_NAME	6	Neutral	niebieski	blue	Neutral	Neutral	hit	n/a
283.4673	n/a	RESPONSE	n/a	n/a	n/a	n/a	n/a	n/a	n/a	blue
283.4994	1.0167	ITI	n/a	n/a	n/a	n/a	n/a	n/a	n/a	n/a
284.5161	0.5167	FIXCROSS	n/a	n/a	n/a	n/a	n/a	n/a	n/a	n/a
285.0327	0.7667	COLOR_NAME	7	Neutral	zielony	green	Neutral	Neutral	hit	n/a
285.7708	n/a	RESPONSE	n/a	n/a	n/a	n/a	n/a	n/a	n/a	green
285.7994	1.0167	ITI	n/a	n/a	n/a	n/a	n/a	n/a	n/a	n/a
286.8161	0.5167	FIXCROSS	n/a	n/a	n/a	n/a	n/a	n/a	n/a	n/a
287.3328	0.8	COLOR_NAME	8	Incongruent	żółty	yellow	zielony	green	hit	n/a
288.1063	n/a	RESPONSE	n/a	n/a	n/a	n/a	n/a	n/a	n/a	yellow
288.1328	1.0167	ITI	n/a	n/a	n/a	n/a	n/a	n/a	n/a	n/a
289.1494	0.5167	FIXCROSS	n/a	n/a	n/a	n/a	n/a	n/a	n/a	n/a
289.6661	0.9	COLOR_NAME	9	Incongruent	niebieski	blue	zielony	green	hit	n/a
290.5377	n/a	RESPONSE	n/a	n/a	n/a	n/a	n/a	n/a	n/a	blue
290.5661	1.0167	ITI	n/a	n/a	n/a	n/a	n/a	n/a	n/a	n/a
291.5828	0.5167	FIXCROSS	n/a	n/a	n/a	n/a	n/a	n/a	n/a	n/a
292.0995	0.7	COLOR_NAME	10	Neutral	żółty	yellow	Neutral	Neutral	hit	n/a
292.7771	n/a	RESPONSE	n/a	n/a	n/a	n/a	n/a	n/a	n/a	yellow
292.7995	1.0167	ITI	n/a	n/a	n/a	n/a	n/a	n/a	n/a	n/a
293.8162	0.5167	FIXCROSS	n/a	n/a	n/a	n/a	n/a	n/a	n/a	n/a
294.3329	0.6	COLOR_NAME	11	Neutral	żółty	yellow	Neutral	Neutral	hit	n/a
294.9046	n/a	RESPONSE	n/a	n/a	n/a	n/a	n/a	n/a	n/a	yellow
294.9329	1.0167	ITI	n/a	n/a	n/a	n/a	n/a	n/a	n/a	n/a
295.9495	0.5167	FIXCROSS	n/a	n/a	n/a	n/a	n/a	n/a	n/a	n/a
296.4662	0.7167	COLOR_NAME	12	Incongruent	żółty	yellow	niebieski	blue	hit	n/a
297.1601	n/a	RESPONSE	n/a	n/a	n/a	n/a	n/a	n/a	n/a	yellow
297.1829	1.0167	ITI	n/a	n/a	n/a	n/a	n/a	n/a	n/a	n/a
298.1996	0.5167	FIXCROSS	n/a	n/a	n/a	n/a	n/a	n/a	n/a	n/a
298.7162	0.9	COLOR_NAME	13	Incongruent	czerwony	red	żółty	yellow	hit	n/a
299.5915	n/a	RESPONSE	n/a	n/a	n/a	n/a	n/a	n/a	n/a	red
299.6162	1.0167	ITI	n/a	n/a	n/a	n/a	n/a	n/a	n/a	n/a
300.6329	0.5167	FIXCROSS	n/a	n/a	n/a	n/a	n/a	n/a	n/a	n/a
301.1496	0.9167	COLOR_NAME	14	Incongruent	zielony	green	niebieski	blue	hit	n/a
302.0389	n/a	RESPONSE	n/a	n/a	n/a	n/a	n/a	n/a	n/a	green
302.0663	1.0167	ITI	n/a	n/a	n/a	n/a	n/a	n/a	n/a	n/a
303.0829	0.5167	FIXCROSS	n/a	n/a	n/a	n/a	n/a	n/a	n/a	n/a
303.5996	0.7833	COLOR_NAME	15	Incongruent	niebieski	blue	żółty	yellow	hit	n/a
304.3583	n/a	RESPONSE	n/a	n/a	n/a	n/a	n/a	n/a	n/a	blue
304.383	1.0167	ITI	n/a	n/a	n/a	n/a	n/a	n/a	n/a	n/a
305.3996	0.5167	FIXCROSS	n/a	n/a	n/a	n/a	n/a	n/a	n/a	n/a
305.9163	0.95	COLOR_NAME	16	Neutral	czerwony	red	Neutral	Neutral	hit	n/a
306.8377	n/a	RESPONSE	n/a	n/a	n/a	n/a	n/a	n/a	n/a	red
306.8663	1.0167	ITI	n/a	n/a	n/a	n/a	n/a	n/a	n/a	n/a
307.883	0.5167	FIXCROSS	n/a	n/a	n/a	n/a	n/a	n/a	n/a	n/a
308.3997	0.7334	COLOR_NAME	17	Neutral	niebieski	blue	Neutral	Neutral	hit	n/a
309.1092	n/a	RESPONSE	n/a	n/a	n/a	n/a	n/a	n/a	n/a	blue
309.133	1.0167	ITI	n/a	n/a	n/a	n/a	n/a	n/a	n/a	n/a
310.1497	0.5167	FIXCROSS	n/a	n/a	n/a	n/a	n/a	n/a	n/a	n/a
310.6664	0.75	COLOR_NAME	18	Neutral	żółty	yellow	Neutral	Neutral	hit	n/a
311.3966	n/a	RESPONSE	n/a	n/a	n/a	n/a	n/a	n/a	n/a	yellow
311.4164	1.0167	ITI	n/a	n/a	n/a	n/a	n/a	n/a	n/a	n/a
312.4331	0.5167	FIXCROSS	n/a	n/a	n/a	n/a	n/a	n/a	n/a	n/a
312.9497	0.6333	COLOR_NAME	19	Neutral	żółty	yellow	Neutral	Neutral	hit	n/a
313.5561	n/a	RESPONSE	n/a	n/a	n/a	n/a	n/a	n/a	n/a	yellow
313.5831	1.0167	ITI	n/a	n/a	n/a	n/a	n/a	n/a	n/a	n/a
314.5997	0.5167	FIXCROSS	n/a	n/a	n/a	n/a	n/a	n/a	n/a	n/a
315.1164	0.7667	COLOR_NAME	20	Neutral	zielony	green	Neutral	Neutral	hit	n/a
315.8595	n/a	RESPONSE	n/a	n/a	n/a	n/a	n/a	n/a	n/a	green
315.8831	1.0167	ITI	n/a	n/a	n/a	n/a	n/a	n/a	n/a	n/a
316.8998	0.5167	FIXCROSS	n/a	n/a	n/a	n/a	n/a	n/a	n/a	n/a
317.4164	0.7333	COLOR_NAME	21	Incongruent	niebieski	blue	żółty	yellow	hit	n/a
318.131	n/a	RESPONSE	n/a	n/a	n/a	n/a	n/a	n/a	n/a	blue
318.1498	1.0167	ITI	n/a	n/a	n/a	n/a	n/a	n/a	n/a	n/a
319.1665	0.5167	FIXCROSS	n/a	n/a	n/a	n/a	n/a	n/a	n/a	n/a
319.6831	0.6833	COLOR_NAME	22	Neutral	czerwony	red	Neutral	Neutral	hit	n/a
320.3385	n/a	RESPONSE	n/a	n/a	n/a	n/a	n/a	n/a	n/a	red
320.3665	1.0167	ITI	n/a	n/a	n/a	n/a	n/a	n/a	n/a	n/a
321.3832	0.5167	FIXCROSS	n/a	n/a	n/a	n/a	n/a	n/a	n/a	n/a
321.8998	0.7333	COLOR_NAME	23	Neutral	żółty	yellow	Neutral	Neutral	hit	n/a
322.6067	n/a	RESPONSE	n/a	n/a	n/a	n/a	n/a	n/a	n/a	yellow
322.6332	1.0167	ITI	n/a	n/a	n/a	n/a	n/a	n/a	n/a	n/a
323.6499	0.5167	FIXCROSS	n/a	n/a	n/a	n/a	n/a	n/a	n/a	n/a
324.1665	0.65	COLOR_NAME	24	Neutral	czerwony	red	Neutral	Neutral	hit	n/a
324.7854	n/a	RESPONSE	n/a	n/a	n/a	n/a	n/a	n/a	n/a	red
324.8165	1.0167	ITI	n/a	n/a	n/a	n/a	n/a	n/a	n/a	n/a
325.8332	0.5167	FIXCROSS	n/a	n/a	n/a	n/a	n/a	n/a	n/a	n/a
326.3499	0.6	COLOR_NAME	25	Neutral	czerwony	red	Neutral	Neutral	hit	n/a
326.9289	n/a	RESPONSE	n/a	n/a	n/a	n/a	n/a	n/a	n/a	red
326.9499	1.0167	ITI	n/a	n/a	n/a	n/a	n/a	n/a	n/a	n/a
327.9666	0.5167	FIXCROSS	n/a	n/a	n/a	n/a	n/a	n/a	n/a	n/a
328.4832	0.7	COLOR_NAME	26	Incongruent	czerwony	red	zielony	green	hit	n/a
329.1523	n/a	RESPONSE	n/a	n/a	n/a	n/a	n/a	n/a	n/a	red
329.1833	1.0167	ITI	n/a	n/a	n/a	n/a	n/a	n/a	n/a	n/a
330.1999	0.5167	FIXCROSS	n/a	n/a	n/a	n/a	n/a	n/a	n/a	n/a
330.7166	0.7334	COLOR_NAME	27	Incongruent	żółty	yellow	zielony	green	hit	n/a
331.4238	n/a	RESPONSE	n/a	n/a	n/a	n/a	n/a	n/a	n/a	yellow
331.45	1.0167	ITI	n/a	n/a	n/a	n/a	n/a	n/a	n/a	n/a
332.4666	0.5167	FIXCROSS	n/a	n/a	n/a	n/a	n/a	n/a	n/a	n/a
332.9833	0.6833	COLOR_NAME	28	Neutral	czerwony	red	Neutral	Neutral	hit	n/a
333.6472	n/a	RESPONSE	n/a	n/a	n/a	n/a	n/a	n/a	n/a	red
333.6666	1.0167	ITI	n/a	n/a	n/a	n/a	n/a	n/a	n/a	n/a
334.6833	0.5167	FIXCROSS	n/a	n/a	n/a	n/a	n/a	n/a	n/a	n/a
335.2	0.7	COLOR_NAME	29	Neutral	żółty	yellow	Neutral	Neutral	hit	n/a
335.8707	n/a	RESPONSE	n/a	n/a	n/a	n/a	n/a	n/a	n/a	yellow
335.9	1.0167	ITI	n/a	n/a	n/a	n/a	n/a	n/a	n/a	n/a
336.9167	0.5167	FIXCROSS	n/a	n/a	n/a	n/a	n/a	n/a	n/a	n/a
337.4334	0.75	COLOR_NAME	30	Incongruent	niebieski	blue	czerwony	red	hit	n/a
338.1581	n/a	RESPONSE	n/a	n/a	n/a	n/a	n/a	n/a	n/a	blue
338.1834	1.0167	ITI	n/a	n/a	n/a	n/a	n/a	n/a	n/a	n/a
339.2	0.5167	FIXCROSS	n/a	n/a	n/a	n/a	n/a	n/a	n/a	n/a
339.7167	0.8333	COLOR_NAME	31	Incongruent	zielony	green	czerwony	red	hit	n/a
340.5256	n/a	RESPONSE	n/a	n/a	n/a	n/a	n/a	n/a	n/a	green
340.5501	1.0167	ITI	n/a	n/a	n/a	n/a	n/a	n/a	n/a	n/a
341.5667	0.5167	FIXCROSS	n/a	n/a	n/a	n/a	n/a	n/a	n/a	n/a
342.0834	0.7333	COLOR_NAME	32	Incongruent	czerwony	red	zielony	green	hit	n/a
342.797	n/a	RESPONSE	n/a	n/a	n/a	n/a	n/a	n/a	n/a	red
342.8167	1.0167	ITI	n/a	n/a	n/a	n/a	n/a	n/a	n/a	n/a
343.8334	0.5167	FIXCROSS	n/a	n/a	n/a	n/a	n/a	n/a	n/a	n/a
344.3501	0.7833	COLOR_NAME	33	Incongruent	żółty	yellow	niebieski	blue	hit	n/a
345.1005	n/a	RESPONSE	n/a	n/a	n/a	n/a	n/a	n/a	n/a	yellow
345.1334	1.0167	ITI	n/a	n/a	n/a	n/a	n/a	n/a	n/a	n/a
346.1501	0.5167	FIXCROSS	n/a	n/a	n/a	n/a	n/a	n/a	n/a	n/a
346.6668	0.75	COLOR_NAME	34	Neutral	niebieski	blue	Neutral	Neutral	hit	n/a
347.3879	n/a	RESPONSE	n/a	n/a	n/a	n/a	n/a	n/a	n/a	blue
347.4168	1.0167	ITI	n/a	n/a	n/a	n/a	n/a	n/a	n/a	n/a
348.4335	0.5167	FIXCROSS	n/a	n/a	n/a	n/a	n/a	n/a	n/a	n/a
348.9501	0.6667	COLOR_NAME	35	Incongruent	czerwony	red	zielony	green	hit	n/a
349.5954	n/a	RESPONSE	n/a	n/a	n/a	n/a	n/a	n/a	n/a	red
349.6168	1.0167	ITI	n/a	n/a	n/a	n/a	n/a	n/a	n/a	n/a
350.6335	0.5167	FIXCROSS	n/a	n/a	n/a	n/a	n/a	n/a	n/a	n/a
351.1502	0.7167	COLOR_NAME	36	Neutral	zielony	green	Neutral	Neutral	hit	n/a
351.8348	n/a	RESPONSE	n/a	n/a	n/a	n/a	n/a	n/a	n/a	green
351.8668	1.0167	ITI	n/a	n/a	n/a	n/a	n/a	n/a	n/a	n/a
352.8835	0.5167	FIXCROSS	n/a	n/a	n/a	n/a	n/a	n/a	n/a	n/a
353.4002	0.5667	COLOR_NAME	37	Neutral	zielony	green	Neutral	Neutral	hit	n/a
353.9463	n/a	RESPONSE	n/a	n/a	n/a	n/a	n/a	n/a	n/a	green
353.9669	1.0167	ITI	n/a	n/a	n/a	n/a	n/a	n/a	n/a	n/a
354.9836	0.5167	FIXCROSS	n/a	n/a	n/a	n/a	n/a	n/a	n/a	n/a
355.5002	0.9	COLOR_NAME	38	Incongruent	żółty	yellow	czerwony	red	hit	n/a
356.3777	n/a	RESPONSE	n/a	n/a	n/a	n/a	n/a	n/a	n/a	yellow
356.4002	1.0167	ITI	n/a	n/a	n/a	n/a	n/a	n/a	n/a	n/a
357.4169	0.5167	FIXCROSS	n/a	n/a	n/a	n/a	n/a	n/a	n/a	n/a
357.9336	0.8	COLOR_NAME	39	Neutral	niebieski	blue	Neutral	Neutral	hit	n/a
358.7132	n/a	RESPONSE	n/a	n/a	n/a	n/a	n/a	n/a	n/a	blue
358.7336	1.0167	ITI	n/a	n/a	n/a	n/a	n/a	n/a	n/a	n/a
359.7503	0.5167	FIXCROSS	n/a	n/a	n/a	n/a	n/a	n/a	n/a	n/a
360.267	0.7667	COLOR_NAME	40	Incongruent	czerwony	red	niebieski	blue	hit	n/a
361.0006	n/a	RESPONSE	n/a	n/a	n/a	n/a	n/a	n/a	n/a	red
361.0336	1.0167	ITI	n/a	n/a	n/a	n/a	n/a	n/a	n/a	n/a
362.0503	0.5167	FIXCROSS	n/a	n/a	n/a	n/a	n/a	n/a	n/a	n/a
362.567	0.8167	COLOR_NAME	41	Incongruent	niebieski	blue	czerwony	red	hit	n/a
363.3521	n/a	RESPONSE	n/a	n/a	n/a	n/a	n/a	n/a	n/a	blue
363.3837	1.0167	ITI	n/a	n/a	n/a	n/a	n/a	n/a	n/a	n/a
364.4003	0.5167	FIXCROSS	n/a	n/a	n/a	n/a	n/a	n/a	n/a	n/a
364.917	0.8667	COLOR_NAME	42	Incongruent	zielony	green	żółty	yellow	hit	n/a
365.7514	n/a	RESPONSE	n/a	n/a	n/a	n/a	n/a	n/a	n/a	green
365.7837	1.0167	ITI	n/a	n/a	n/a	n/a	n/a	n/a	n/a	n/a
366.8004	0.5167	FIXCROSS	n/a	n/a	n/a	n/a	n/a	n/a	n/a	n/a
367.317	0.7	COLOR_NAME	43	Neutral	niebieski	blue	Neutral	Neutral	hit	n/a
367.9909	n/a	RESPONSE	n/a	n/a	n/a	n/a	n/a	n/a	n/a	blue
368.017	1.0167	ITI	n/a	n/a	n/a	n/a	n/a	n/a	n/a	n/a
369.0337	0.5167	FIXCROSS	n/a	n/a	n/a	n/a	n/a	n/a	n/a	n/a
369.5504	0.7167	COLOR_NAME	44	Neutral	żółty	yellow	Neutral	Neutral	hit	n/a
370.2464	n/a	RESPONSE	n/a	n/a	n/a	n/a	n/a	n/a	n/a	yellow
370.2671	1.0167	ITI	n/a	n/a	n/a	n/a	n/a	n/a	n/a	n/a
371.2837	0.5167	FIXCROSS	n/a	n/a	n/a	n/a	n/a	n/a	n/a	n/a
371.8004	0.8167	COLOR_NAME	45	Neutral	zielony	green	Neutral	Neutral	hit	n/a
372.5978	n/a	RESPONSE	n/a	n/a	n/a	n/a	n/a	n/a	n/a	green
372.6171	1.0167	ITI	n/a	n/a	n/a	n/a	n/a	n/a	n/a	n/a
373.6338	0.5167	FIXCROSS	n/a	n/a	n/a	n/a	n/a	n/a	n/a	n/a
374.1504	0.5667	COLOR_NAME	46	Neutral	zielony	green	Neutral	Neutral	hit	n/a
374.6933	n/a	RESPONSE	n/a	n/a	n/a	n/a	n/a	n/a	n/a	green
374.7171	1.0167	ITI	n/a	n/a	n/a	n/a	n/a	n/a	n/a	n/a
375.7338	0.5167	FIXCROSS	n/a	n/a	n/a	n/a	n/a	n/a	n/a	n/a
376.2505	0.7667	COLOR_NAME	47	Incongruent	żółty	yellow	niebieski	blue	hit	n/a
376.9967	n/a	RESPONSE	n/a	n/a	n/a	n/a	n/a	n/a	n/a	yellow
377.0171	1.0167	ITI	n/a	n/a	n/a	n/a	n/a	n/a	n/a	n/a
378.0338	0.5167	FIXCROSS	n/a	n/a	n/a	n/a	n/a	n/a	n/a	n/a
378.5505	0.8167	COLOR_NAME	48	Incongruent	czerwony	red	niebieski	blue	hit	n/a
379.3482	n/a	RESPONSE	n/a	n/a	n/a	n/a	n/a	n/a	n/a	red
379.3672	1.0167	ITI	n/a	n/a	n/a	n/a	n/a	n/a	n/a	n/a
380.3838	0.5167	FIXCROSS	n/a	n/a	n/a	n/a	n/a	n/a	n/a	n/a
380.9005	0.8	COLOR_NAME	49	Incongruent	żółty	yellow	czerwony	red	hit	n/a
381.6676	n/a	RESPONSE	n/a	n/a	n/a	n/a	n/a	n/a	n/a	yellow
381.7005	1.0167	ITI	n/a	n/a	n/a	n/a	n/a	n/a	n/a	n/a
382.7172	0.5167	FIXCROSS	n/a	n/a	n/a	n/a	n/a	n/a	n/a	n/a
383.2339	0.75	COLOR_NAME	50	Incongruent	niebieski	blue	zielony	green	hit	n/a
383.9551	n/a	RESPONSE	n/a	n/a	n/a	n/a	n/a	n/a	n/a	blue
383.9839	1.0167	ITI	n/a	n/a	n/a	n/a	n/a	n/a	n/a	n/a
385.0006	0.5167	FIXCROSS	n/a	n/a	n/a	n/a	n/a	n/a	n/a	n/a
385.5172	0.8167	COLOR_NAME	51	Incongruent	zielony	green	niebieski	blue	hit	n/a
386.3065	n/a	RESPONSE	n/a	n/a	n/a	n/a	n/a	n/a	n/a	green
386.3339	1.0167	ITI	n/a	n/a	n/a	n/a	n/a	n/a	n/a	n/a
387.3506	0.5167	FIXCROSS	n/a	n/a	n/a	n/a	n/a	n/a	n/a	n/a
387.8673	1.0	COLOR_NAME	52	Incongruent	czerwony	red	żółty	yellow	hit	n/a
388.8339	n/a	RESPONSE	n/a	n/a	n/a	n/a	n/a	n/a	n/a	red
388.8673	1.0167	ITI	n/a	n/a	n/a	n/a	n/a	n/a	n/a	n/a
389.884	0.5167	FIXCROSS	n/a	n/a	n/a	n/a	n/a	n/a	n/a	n/a
390.4006	0.75	COLOR_NAME	53	Neutral	niebieski	blue	Neutral	Neutral	hit	n/a
391.1213	n/a	RESPONSE	n/a	n/a	n/a	n/a	n/a	n/a	n/a	blue
391.1506	1.0167	ITI	n/a	n/a	n/a	n/a	n/a	n/a	n/a	n/a
392.1673	0.5167	FIXCROSS	n/a	n/a	n/a	n/a	n/a	n/a	n/a	n/a
392.684	0.7167	COLOR_NAME	54	Neutral	czerwony	red	Neutral	Neutral	hit	n/a
393.3768	n/a	RESPONSE	n/a	n/a	n/a	n/a	n/a	n/a	n/a	red
393.4007	1.0167	ITI	n/a	n/a	n/a	n/a	n/a	n/a	n/a	n/a
394.4173	0.5167	FIXCROSS	n/a	n/a	n/a	n/a	n/a	n/a	n/a	n/a
394.934	0.65	COLOR_NAME	55	Incongruent	czerwony	red	niebieski	blue	hit	n/a
395.5522	n/a	RESPONSE	n/a	n/a	n/a	n/a	n/a	n/a	n/a	red
395.584	1.0167	ITI	n/a	n/a	n/a	n/a	n/a	n/a	n/a	n/a
396.6007	0.5167	FIXCROSS	n/a	n/a	n/a	n/a	n/a	n/a	n/a	n/a
397.1174	0.7333	COLOR_NAME	56	Incongruent	zielony	green	czerwony	red	hit	n/a
397.8237	n/a	RESPONSE	n/a	n/a	n/a	n/a	n/a	n/a	n/a	green
397.8507	1.0167	ITI	n/a	n/a	n/a	n/a	n/a	n/a	n/a	n/a
398.8674	0.5167	FIXCROSS	n/a	n/a	n/a	n/a	n/a	n/a	n/a	n/a
399.3841	0.6833	COLOR_NAME	57	Incongruent	żółty	yellow	czerwony	red	hit	n/a
400.0471	n/a	RESPONSE	n/a	n/a	n/a	n/a	n/a	n/a	n/a	yellow
400.0674	1.0167	ITI	n/a	n/a	n/a	n/a	n/a	n/a	n/a	n/a
401.0841	0.5167	FIXCROSS	n/a	n/a	n/a	n/a	n/a	n/a	n/a	n/a
401.6008	0.7667	COLOR_NAME	58	Neutral	niebieski	blue	Neutral	Neutral	hit	n/a
402.3346	n/a	RESPONSE	n/a	n/a	n/a	n/a	n/a	n/a	n/a	blue
402.3674	1.0167	ITI	n/a	n/a	n/a	n/a	n/a	n/a	n/a	n/a
403.3841	0.5167	FIXCROSS	n/a	n/a	n/a	n/a	n/a	n/a	n/a	n/a
403.9008	0.7667	COLOR_NAME	59	Incongruent	zielony	green	żółty	yellow	hit	n/a
404.6381	n/a	RESPONSE	n/a	n/a	n/a	n/a	n/a	n/a	n/a	green
404.6675	1.0167	ITI	n/a	n/a	n/a	n/a	n/a	n/a	n/a	n/a
405.6841	0.5167	FIXCROSS	n/a	n/a	n/a	n/a	n/a	n/a	n/a	n/a
406.2008	0.6	COLOR_NAME	60	Neutral	zielony	green	Neutral	Neutral	hit	n/a
406.7815	n/a	RESPONSE	n/a	n/a	n/a	n/a	n/a	n/a	n/a	green
406.8008	1.0167	ITI	n/a	n/a	n/a	n/a	n/a	n/a	n/a	n/a
407.8175	0.5167	FIXCROSS	n/a	n/a	n/a	n/a	n/a	n/a	n/a	n/a
408.3342	0.7167	COLOR_NAME	61	Incongruent	niebieski	blue	zielony	green	hit	n/a
409.021	n/a	RESPONSE	n/a	n/a	n/a	n/a	n/a	n/a	n/a	blue
409.0508	1.0167	ITI	n/a	n/a	n/a	n/a	n/a	n/a	n/a	n/a
410.0675	0.5167	FIXCROSS	n/a	n/a	n/a	n/a	n/a	n/a	n/a	n/a
410.5842	0.5667	COLOR_NAME	62	Neutral	niebieski	blue	Neutral	Neutral	hit	n/a
411.1325	n/a	RESPONSE	n/a	n/a	n/a	n/a	n/a	n/a	n/a	blue
411.1509	1.0167	ITI	n/a	n/a	n/a	n/a	n/a	n/a	n/a	n/a
412.1675	0.5167	FIXCROSS	n/a	n/a	n/a	n/a	n/a	n/a	n/a	n/a
412.6842	1.1	COLOR_NAME	63	Incongruent	zielony	green	żółty	yellow	hit	n/a
413.7558	n/a	RESPONSE	n/a	n/a	n/a	n/a	n/a	n/a	n/a	green
413.7842	1.0167	ITI	n/a	n/a	n/a	n/a	n/a	n/a	n/a	n/a
414.8009	0.5167	FIXCROSS	n/a	n/a	n/a	n/a	n/a	n/a	n/a	n/a
415.3176	0.8	COLOR_NAME	64	Neutral	czerwony	red	Neutral	Neutral	hit	n/a
416.0913	n/a	RESPONSE	n/a	n/a	n/a	n/a	n/a	n/a	n/a	red
416.1176	1.0167	ITI	n/a	n/a	n/a	n/a	n/a	n/a	n/a	n/a
417.1343	0.5167	FIXCROSS	n/a	n/a	n/a	n/a	n/a	n/a	n/a	n/a
417.6509	0.6	COLOR_NAME	65	Incongruent	żółty	yellow	zielony	green	hit	n/a
418.2188	n/a	RESPONSE	n/a	n/a	n/a	n/a	n/a	n/a	n/a	yellow
418.251	1.0167	ITI	n/a	n/a	n/a	n/a	n/a	n/a	n/a	n/a
419.2676	0.5167	FIXCROSS	n/a	n/a	n/a	n/a	n/a	n/a	n/a	n/a
419.7843	0.7333	COLOR_NAME	66	Incongruent	niebieski	blue	żółty	yellow	hit	n/a
420.4902	n/a	RESPONSE	n/a	n/a	n/a	n/a	n/a	n/a	n/a	blue
420.5176	1.0167	ITI	n/a	n/a	n/a	n/a	n/a	n/a	n/a	n/a
421.5343	0.5167	FIXCROSS	n/a	n/a	n/a	n/a	n/a	n/a	n/a	n/a
422.051	0.8667	COLOR_NAME	67	Neutral	zielony	green	Neutral	Neutral	hit	n/a
422.8896	n/a	RESPONSE	n/a	n/a	n/a	n/a	n/a	n/a	n/a	green
422.9177	1.0167	ITI	n/a	n/a	n/a	n/a	n/a	n/a	n/a	n/a
423.9343	0.5167	FIXCROSS	n/a	n/a	n/a	n/a	n/a	n/a	n/a	n/a
424.451	0.6833	COLOR_NAME	68	Neutral	niebieski	blue	Neutral	Neutral	hit	n/a
425.1131	n/a	RESPONSE	n/a	n/a	n/a	n/a	n/a	n/a	n/a	blue
425.1344	1.0167	ITI	n/a	n/a	n/a	n/a	n/a	n/a	n/a	n/a
426.151	0.5167	FIXCROSS	n/a	n/a	n/a	n/a	n/a	n/a	n/a	n/a
426.6677	0.7667	COLOR_NAME	69	Incongruent	niebieski	blue	czerwony	red	hit	n/a
427.4006	n/a	RESPONSE	n/a	n/a	n/a	n/a	n/a	n/a	n/a	blue
427.4344	1.0167	ITI	n/a	n/a	n/a	n/a	n/a	n/a	n/a	n/a
428.4511	0.5167	FIXCROSS	n/a	n/a	n/a	n/a	n/a	n/a	n/a	n/a
428.9677	0.85	COLOR_NAME	70	Incongruent	zielony	green	niebieski	blue	hit	n/a
429.8	n/a	RESPONSE	n/a	n/a	n/a	n/a	n/a	n/a	n/a	green
429.8177	1.0167	ITI	n/a	n/a	n/a	n/a	n/a	n/a	n/a	n/a
430.8344	0.5167	FIXCROSS	n/a	n/a	n/a	n/a	n/a	n/a	n/a	n/a
431.3511	0.8	COLOR_NAME	71	Incongruent	czerwony	red	żółty	yellow	hit	n/a
432.1194	n/a	RESPONSE	n/a	n/a	n/a	n/a	n/a	n/a	n/a	red
432.1511	1.0167	ITI	n/a	n/a	n/a	n/a	n/a	n/a	n/a	n/a
433.1678	0.5167	FIXCROSS	n/a	n/a	n/a	n/a	n/a	n/a	n/a	n/a
433.6845	0.85	COLOR_NAME	72	Neutral	żółty	yellow	Neutral	Neutral	hit	n/a
434.5028	n/a	RESPONSE	n/a	n/a	n/a	n/a	n/a	n/a	n/a	yellow
434.5345	1.0333	ITI	n/a	n/a	n/a	n/a	n/a	n/a	n/a	n/a
438.038	n/a	RESPONSE	n/a	n/a	n/a	n/a	n/a	n/a	n/a	n/a
