onset	duration	trial_type	trial_number	stroop_condition	stim_text(PL)	stim_text(eng)	stim_color(PL)	stim_color(eng)	response_type	response_color
0.0	n/a	RESPONSE	n/a	n/a	n/a	n/a	n/a	n/a	n/a	n/a
0.0606	1.0333	ITI	n/a	n/a	n/a	n/a	n/a	n/a	n/a	n/a
1.094	0.5167	FIXCROSS	n/a	n/a	n/a	n/a	n/a	n/a	n/a	n/a
1.6106	2.6333	T_INK	1	Incongruent	niebieski	blue	żółty	yellow	hit	n/a
4.2231	n/a	RESPONSE	n/a	n/a	n/a	n/a	n/a	n/a	n/a	yellow
4.244	0.5167	FEEDBACK	n/a	n/a	n/a	n/a	n/a	n/a	n/a	n/a
4.7607	1.0167	ITI	n/a	n/a	n/a	n/a	n/a	n/a	n/a	n/a
5.7773	0.5167	FIXCROSS	n/a	n/a	n/a	n/a	n/a	n/a	n/a	n/a
6.294	1.0833	T_INK	2	Neutral	xxxxxxxxx	xxxxxxxxx	zielony	green	hit	n/a
7.3424	n/a	RESPONSE	n/a	n/a	n/a	n/a	n/a	n/a	n/a	green
7.3774	0.5167	FEEDBACK	n/a	n/a	n/a	n/a	n/a	n/a	n/a	n/a
7.894	1.0167	ITI	n/a	n/a	n/a	n/a	n/a	n/a	n/a	n/a
8.9107	0.5167	FIXCROSS	n/a	n/a	n/a	n/a	n/a	n/a	n/a	n/a
9.4274	0.9333	T_INK	3	Incongruent	żółty	yellow	zielony	green	incorrect	n/a
10.3338	n/a	RESPONSE	n/a	n/a	n/a	n/a	n/a	n/a	n/a	yellow
10.3607	0.5167	FEEDBACK	n/a	n/a	n/a	n/a	n/a	n/a	n/a	n/a
10.8774	1.0167	ITI	n/a	n/a	n/a	n/a	n/a	n/a	n/a	n/a
11.8941	0.5167	FIXCROSS	n/a	n/a	n/a	n/a	n/a	n/a	n/a	n/a
12.4107	2.1	T_INK	4	Incongruent	niebieski	blue	zielony	green	hit	n/a
14.477	n/a	RESPONSE	n/a	n/a	n/a	n/a	n/a	n/a	n/a	green
14.5107	0.5167	FEEDBACK	n/a	n/a	n/a	n/a	n/a	n/a	n/a	n/a
15.0274	1.0167	ITI	n/a	n/a	n/a	n/a	n/a	n/a	n/a	n/a
16.0441	0.5167	FIXCROSS	n/a	n/a	n/a	n/a	n/a	n/a	n/a	n/a
16.5607	0.95	T_INK	5	Neutral	xxxxxxxx	xxxxxxxx	zielony	green	hit	n/a
17.4844	n/a	RESPONSE	n/a	n/a	n/a	n/a	n/a	n/a	n/a	green
17.5108	0.5167	FEEDBACK	n/a	n/a	n/a	n/a	n/a	n/a	n/a	n/a
18.0274	1.0167	ITI	n/a	n/a	n/a	n/a	n/a	n/a	n/a	n/a
19.0441	0.5167	FIXCROSS	n/a	n/a	n/a	n/a	n/a	n/a	n/a	n/a
19.5608	1.0833	T_INK	6	Neutral	xxxxx	xxxxx	niebieski	blue	hit	n/a
20.6198	n/a	RESPONSE	n/a	n/a	n/a	n/a	n/a	n/a	n/a	blue
20.6441	0.5167	FEEDBACK	n/a	n/a	n/a	n/a	n/a	n/a	n/a	n/a
21.1608	1.0167	ITI	n/a	n/a	n/a	n/a	n/a	n/a	n/a	n/a
22.1775	0.5167	FIXCROSS	n/a	n/a	n/a	n/a	n/a	n/a	n/a	n/a
22.6941	0.7167	T_INK	7	Neutral	xxxxxxx	xxxxxxx	niebieski	blue	hit	n/a
23.3873	n/a	RESPONSE	n/a	n/a	n/a	n/a	n/a	n/a	n/a	blue
23.4108	0.5167	FEEDBACK	n/a	n/a	n/a	n/a	n/a	n/a	n/a	n/a
23.9275	1.0167	ITI	n/a	n/a	n/a	n/a	n/a	n/a	n/a	n/a
24.9442	0.5167	FIXCROSS	n/a	n/a	n/a	n/a	n/a	n/a	n/a	n/a
25.4608	1.1833	T_INK	8	Incongruent	żółty	yellow	czerwony	red	hit	n/a
26.6186	n/a	RESPONSE	n/a	n/a	n/a	n/a	n/a	n/a	n/a	red
26.6442	0.5167	FEEDBACK	n/a	n/a	n/a	n/a	n/a	n/a	n/a	n/a
27.1608	1.0167	ITI	n/a	n/a	n/a	n/a	n/a	n/a	n/a	n/a
28.1775	0.5167	FIXCROSS	n/a	n/a	n/a	n/a	n/a	n/a	n/a	n/a
28.6942	0.7833	T_INK	9	Neutral	xxxxxxx	xxxxxxx	żółty	yellow	hit	n/a
29.4501	n/a	RESPONSE	n/a	n/a	n/a	n/a	n/a	n/a	n/a	yellow
29.4775	0.5167	FEEDBACK	n/a	n/a	n/a	n/a	n/a	n/a	n/a	n/a
29.9942	1.0167	ITI	n/a	n/a	n/a	n/a	n/a	n/a	n/a	n/a
31.0109	0.5167	FIXCROSS	n/a	n/a	n/a	n/a	n/a	n/a	n/a	n/a
31.5275	1.2833	T_INK	10	Incongruent	żółty	yellow	niebieski	blue	hit	n/a
32.7774	n/a	RESPONSE	n/a	n/a	n/a	n/a	n/a	n/a	n/a	blue
32.8109	0.5167	FEEDBACK	n/a	n/a	n/a	n/a	n/a	n/a	n/a	n/a
33.3276	1.0167	ITI	n/a	n/a	n/a	n/a	n/a	n/a	n/a	n/a
34.3442	0.5167	FIXCROSS	n/a	n/a	n/a	n/a	n/a	n/a	n/a	n/a
34.8609	0.9167	T_INK	11	Incongruent	niebieski	blue	czerwony	red	hit	n/a
35.7529	n/a	RESPONSE	n/a	n/a	n/a	n/a	n/a	n/a	n/a	red
35.7776	0.5167	FEEDBACK	n/a	n/a	n/a	n/a	n/a	n/a	n/a	n/a
36.2942	1.0167	ITI	n/a	n/a	n/a	n/a	n/a	n/a	n/a	n/a
37.3109	0.5167	FIXCROSS	n/a	n/a	n/a	n/a	n/a	n/a	n/a	n/a
37.8276	0.9833	T_INK	12	Incongruent	czerwony	red	zielony	green	hit	n/a
38.7923	n/a	RESPONSE	n/a	n/a	n/a	n/a	n/a	n/a	n/a	green
38.8109	0.5167	FEEDBACK	n/a	n/a	n/a	n/a	n/a	n/a	n/a	n/a
39.3276	1.0333	ITI	n/a	n/a	n/a	n/a	n/a	n/a	n/a	n/a
43.7352	n/a	RESPONSE	n/a	n/a	n/a	n/a	n/a	n/a	n/a	n/a
43.7943	1.0167	ITI	n/a	n/a	n/a	n/a	n/a	n/a	n/a	n/a
44.811	0.5167	FIXCROSS	n/a	n/a	n/a	n/a	n/a	n/a	n/a	n/a
45.3276	0.8833	INK	1	Neutral	xxxxx	xxxxx	czerwony	red	hit	n/a
46.1827	n/a	RESPONSE	n/a	n/a	n/a	n/a	n/a	n/a	n/a	red
46.211	1.0167	ITI	n/a	n/a	n/a	n/a	n/a	n/a	n/a	n/a
47.2276	0.5167	FIXCROSS	n/a	n/a	n/a	n/a	n/a	n/a	n/a	n/a
47.7443	1.25	INK	2	Incongruent	żółty	yellow	zielony	green	hit	n/a
48.9659	n/a	RESPONSE	n/a	n/a	n/a	n/a	n/a	n/a	n/a	green
48.9943	1.0167	ITI	n/a	n/a	n/a	n/a	n/a	n/a	n/a	n/a
50.011	0.5167	FIXCROSS	n/a	n/a	n/a	n/a	n/a	n/a	n/a	n/a
50.5277	0.8833	INK	3	Neutral	xxxxxxx	xxxxxxx	niebieski	blue	hit	n/a
51.3813	n/a	RESPONSE	n/a	n/a	n/a	n/a	n/a	n/a	n/a	blue
51.411	1.0167	ITI	n/a	n/a	n/a	n/a	n/a	n/a	n/a	n/a
52.4277	0.5167	FIXCROSS	n/a	n/a	n/a	n/a	n/a	n/a	n/a	n/a
52.9444	0.8	INK	4	Incongruent	zielony	green	niebieski	blue	hit	n/a
53.7167	n/a	RESPONSE	n/a	n/a	n/a	n/a	n/a	n/a	n/a	blue
53.7444	1.0167	ITI	n/a	n/a	n/a	n/a	n/a	n/a	n/a	n/a
54.761	0.5167	FIXCROSS	n/a	n/a	n/a	n/a	n/a	n/a	n/a	n/a
55.2777	0.7	INK	5	Neutral	xxxxxxxxx	xxxxxxxxx	żółty	yellow	hit	n/a
55.9562	n/a	RESPONSE	n/a	n/a	n/a	n/a	n/a	n/a	n/a	yellow
55.9777	1.0167	ITI	n/a	n/a	n/a	n/a	n/a	n/a	n/a	n/a
56.9944	0.5167	FIXCROSS	n/a	n/a	n/a	n/a	n/a	n/a	n/a	n/a
57.511	0.7833	INK	6	Incongruent	zielony	green	niebieski	blue	hit	n/a
58.2757	n/a	RESPONSE	n/a	n/a	n/a	n/a	n/a	n/a	n/a	blue
58.2944	1.0167	ITI	n/a	n/a	n/a	n/a	n/a	n/a	n/a	n/a
59.3111	0.5167	FIXCROSS	n/a	n/a	n/a	n/a	n/a	n/a	n/a	n/a
59.8277	0.6667	INK	7	Incongruent	żółty	yellow	czerwony	red	hit	n/a
60.4672	n/a	RESPONSE	n/a	n/a	n/a	n/a	n/a	n/a	n/a	red
60.4944	1.0167	ITI	n/a	n/a	n/a	n/a	n/a	n/a	n/a	n/a
61.5111	0.5167	FIXCROSS	n/a	n/a	n/a	n/a	n/a	n/a	n/a	n/a
62.0278	0.9333	INK	8	Incongruent	czerwony	red	niebieski	blue	hit	n/a
62.9307	n/a	RESPONSE	n/a	n/a	n/a	n/a	n/a	n/a	n/a	blue
62.9611	1.0167	ITI	n/a	n/a	n/a	n/a	n/a	n/a	n/a	n/a
63.9778	0.5167	FIXCROSS	n/a	n/a	n/a	n/a	n/a	n/a	n/a	n/a
64.4944	0.6	INK	9	Neutral	xxxxxxx	xxxxxxx	niebieski	blue	hit	n/a
65.0582	n/a	RESPONSE	n/a	n/a	n/a	n/a	n/a	n/a	n/a	blue
65.0944	1.0167	ITI	n/a	n/a	n/a	n/a	n/a	n/a	n/a	n/a
66.1111	0.5167	FIXCROSS	n/a	n/a	n/a	n/a	n/a	n/a	n/a	n/a
66.6278	0.5667	INK	10	Neutral	xxxxxxxxx	xxxxxxxxx	czerwony	red	hit	n/a
67.1698	n/a	RESPONSE	n/a	n/a	n/a	n/a	n/a	n/a	n/a	red
67.1945	1.0167	ITI	n/a	n/a	n/a	n/a	n/a	n/a	n/a	n/a
68.2111	0.5167	FIXCROSS	n/a	n/a	n/a	n/a	n/a	n/a	n/a	n/a
68.7278	0.5333	INK	11	Neutral	xxxxxxxx	xxxxxxxx	niebieski	blue	hit	n/a
69.2333	n/a	RESPONSE	n/a	n/a	n/a	n/a	n/a	n/a	n/a	blue
69.2611	1.0167	ITI	n/a	n/a	n/a	n/a	n/a	n/a	n/a	n/a
70.2778	0.5167	FIXCROSS	n/a	n/a	n/a	n/a	n/a	n/a	n/a	n/a
70.7945	0.8333	INK	12	Incongruent	żółty	yellow	niebieski	blue	hit	n/a
71.6008	n/a	RESPONSE	n/a	n/a	n/a	n/a	n/a	n/a	n/a	blue
71.6278	1.0167	ITI	n/a	n/a	n/a	n/a	n/a	n/a	n/a	n/a
72.6445	0.5167	FIXCROSS	n/a	n/a	n/a	n/a	n/a	n/a	n/a	n/a
73.1612	1.1333	INK	13	Neutral	xxxxx	xxxxx	zielony	green	hit	n/a
74.2722	n/a	RESPONSE	n/a	n/a	n/a	n/a	n/a	n/a	n/a	green
74.2945	1.0167	ITI	n/a	n/a	n/a	n/a	n/a	n/a	n/a	n/a
75.3112	0.5167	FIXCROSS	n/a	n/a	n/a	n/a	n/a	n/a	n/a	n/a
75.8279	0.6333	INK	14	Neutral	xxxxxxxx	xxxxxxxx	żółty	yellow	hit	n/a
76.4318	n/a	RESPONSE	n/a	n/a	n/a	n/a	n/a	n/a	n/a	yellow
76.4612	1.0167	ITI	n/a	n/a	n/a	n/a	n/a	n/a	n/a	n/a
77.4779	0.5167	FIXCROSS	n/a	n/a	n/a	n/a	n/a	n/a	n/a	n/a
77.9945	1.0833	INK	15	Incongruent	czerwony	red	zielony	green	hit	n/a
79.0552	n/a	RESPONSE	n/a	n/a	n/a	n/a	n/a	n/a	n/a	green
79.0779	1.0167	ITI	n/a	n/a	n/a	n/a	n/a	n/a	n/a	n/a
80.0945	0.5167	FIXCROSS	n/a	n/a	n/a	n/a	n/a	n/a	n/a	n/a
80.6112	0.7167	INK	16	Incongruent	niebieski	blue	czerwony	red	hit	n/a
81.2948	n/a	RESPONSE	n/a	n/a	n/a	n/a	n/a	n/a	n/a	red
81.3279	1.0167	ITI	n/a	n/a	n/a	n/a	n/a	n/a	n/a	n/a
82.3446	0.5167	FIXCROSS	n/a	n/a	n/a	n/a	n/a	n/a	n/a	n/a
82.8612	0.7167	INK	17	Incongruent	zielony	green	żółty	yellow	hit	n/a
83.5503	n/a	RESPONSE	n/a	n/a	n/a	n/a	n/a	n/a	n/a	yellow
83.5779	1.0167	ITI	n/a	n/a	n/a	n/a	n/a	n/a	n/a	n/a
84.5946	0.5167	FIXCROSS	n/a	n/a	n/a	n/a	n/a	n/a	n/a	n/a
85.1112	0.8333	INK	18	Neutral	xxxxxxxxx	xxxxxxxxx	zielony	green	hit	n/a
85.9177	n/a	RESPONSE	n/a	n/a	n/a	n/a	n/a	n/a	n/a	green
85.9446	1.0167	ITI	n/a	n/a	n/a	n/a	n/a	n/a	n/a	n/a
86.9613	0.5167	FIXCROSS	n/a	n/a	n/a	n/a	n/a	n/a	n/a	n/a
87.4779	0.7333	INK	19	Neutral	xxxxxxxx	xxxxxxxx	żółty	yellow	hit	n/a
88.1892	n/a	RESPONSE	n/a	n/a	n/a	n/a	n/a	n/a	n/a	yellow
88.2113	1.0167	ITI	n/a	n/a	n/a	n/a	n/a	n/a	n/a	n/a
89.2279	0.5167	FIXCROSS	n/a	n/a	n/a	n/a	n/a	n/a	n/a	n/a
89.7446	0.8833	INK	20	Neutral	xxxxx	xxxxx	niebieski	blue	hit	n/a
90.6047	n/a	RESPONSE	n/a	n/a	n/a	n/a	n/a	n/a	n/a	blue
90.628	1.0167	ITI	n/a	n/a	n/a	n/a	n/a	n/a	n/a	n/a
91.6446	0.5167	FIXCROSS	n/a	n/a	n/a	n/a	n/a	n/a	n/a	n/a
92.1613	0.8333	INK	21	Neutral	xxxxxxxxx	xxxxxxxxx	żółty	yellow	hit	n/a
92.9723	n/a	RESPONSE	n/a	n/a	n/a	n/a	n/a	n/a	n/a	yellow
92.9946	1.0167	ITI	n/a	n/a	n/a	n/a	n/a	n/a	n/a	n/a
94.0113	0.5167	FIXCROSS	n/a	n/a	n/a	n/a	n/a	n/a	n/a	n/a
94.528	0.8667	INK	22	Neutral	xxxxx	xxxxx	czerwony	red	hit	n/a
95.3718	n/a	RESPONSE	n/a	n/a	n/a	n/a	n/a	n/a	n/a	red
95.3947	1.0167	ITI	n/a	n/a	n/a	n/a	n/a	n/a	n/a	n/a
96.4113	0.5167	FIXCROSS	n/a	n/a	n/a	n/a	n/a	n/a	n/a	n/a
96.928	0.95	INK	23	Incongruent	zielony	green	niebieski	blue	hit	n/a
97.8512	n/a	RESPONSE	n/a	n/a	n/a	n/a	n/a	n/a	n/a	blue
97.878	1.0167	ITI	n/a	n/a	n/a	n/a	n/a	n/a	n/a	n/a
98.8947	0.5167	FIXCROSS	n/a	n/a	n/a	n/a	n/a	n/a	n/a	n/a
99.4113	0.8667	INK	24	Neutral	xxxxx	xxxxx	zielony	green	hit	n/a
100.2507	n/a	RESPONSE	n/a	n/a	n/a	n/a	n/a	n/a	n/a	green
100.278	1.0167	ITI	n/a	n/a	n/a	n/a	n/a	n/a	n/a	n/a
101.2947	0.5167	FIXCROSS	n/a	n/a	n/a	n/a	n/a	n/a	n/a	n/a
101.8114	0.7667	INK	25	Neutral	xxxxxxxx	xxxxxxxx	zielony	green	hit	n/a
102.5542	n/a	RESPONSE	n/a	n/a	n/a	n/a	n/a	n/a	n/a	green
102.578	1.0167	ITI	n/a	n/a	n/a	n/a	n/a	n/a	n/a	n/a
103.5947	0.5167	FIXCROSS	n/a	n/a	n/a	n/a	n/a	n/a	n/a	n/a
104.1114	1.05	INK	26	Incongruent	żółty	yellow	niebieski	blue	hit	n/a
105.1297	n/a	RESPONSE	n/a	n/a	n/a	n/a	n/a	n/a	n/a	blue
105.1614	1.0167	ITI	n/a	n/a	n/a	n/a	n/a	n/a	n/a	n/a
106.1781	0.5167	FIXCROSS	n/a	n/a	n/a	n/a	n/a	n/a	n/a	n/a
106.6947	0.7667	INK	27	Incongruent	czerwony	red	niebieski	blue	hit	n/a
107.4332	n/a	RESPONSE	n/a	n/a	n/a	n/a	n/a	n/a	n/a	blue
107.4614	1.0167	ITI	n/a	n/a	n/a	n/a	n/a	n/a	n/a	n/a
108.4781	0.5167	FIXCROSS	n/a	n/a	n/a	n/a	n/a	n/a	n/a	n/a
108.9947	0.7667	INK	28	Neutral	xxxxxxx	xxxxxxx	żółty	yellow	hit	n/a
109.7367	n/a	RESPONSE	n/a	n/a	n/a	n/a	n/a	n/a	n/a	yellow
109.7614	1.0167	ITI	n/a	n/a	n/a	n/a	n/a	n/a	n/a	n/a
110.7781	0.5167	FIXCROSS	n/a	n/a	n/a	n/a	n/a	n/a	n/a	n/a
111.2948	0.9667	INK	29	Neutral	xxxxxxxx	xxxxxxxx	zielony	green	hit	n/a
112.2322	n/a	RESPONSE	n/a	n/a	n/a	n/a	n/a	n/a	n/a	green
112.2614	1.0167	ITI	n/a	n/a	n/a	n/a	n/a	n/a	n/a	n/a
113.2781	0.5167	FIXCROSS	n/a	n/a	n/a	n/a	n/a	n/a	n/a	n/a
113.7948	0.7167	INK	30	Neutral	xxxxxxx	xxxxxxx	czerwony	red	hit	n/a
114.4877	n/a	RESPONSE	n/a	n/a	n/a	n/a	n/a	n/a	n/a	red
114.5114	1.0167	ITI	n/a	n/a	n/a	n/a	n/a	n/a	n/a	n/a
115.5281	0.5167	FIXCROSS	n/a	n/a	n/a	n/a	n/a	n/a	n/a	n/a
116.0448	0.9167	INK	31	Incongruent	żółty	yellow	zielony	green	hit	n/a
116.9352	n/a	RESPONSE	n/a	n/a	n/a	n/a	n/a	n/a	n/a	green
116.9615	1.0167	ITI	n/a	n/a	n/a	n/a	n/a	n/a	n/a	n/a
117.9782	0.5167	FIXCROSS	n/a	n/a	n/a	n/a	n/a	n/a	n/a	n/a
118.4948	0.7667	INK	32	Neutral	xxxxxxxx	xxxxxxxx	żółty	yellow	hit	n/a
119.2387	n/a	RESPONSE	n/a	n/a	n/a	n/a	n/a	n/a	n/a	yellow
119.2615	1.0167	ITI	n/a	n/a	n/a	n/a	n/a	n/a	n/a	n/a
120.2782	0.5167	FIXCROSS	n/a	n/a	n/a	n/a	n/a	n/a	n/a	n/a
120.7948	0.8	INK	33	Incongruent	niebieski	blue	żółty	yellow	hit	n/a
121.5742	n/a	RESPONSE	n/a	n/a	n/a	n/a	n/a	n/a	n/a	yellow
121.5948	1.0167	ITI	n/a	n/a	n/a	n/a	n/a	n/a	n/a	n/a
122.6115	0.5167	FIXCROSS	n/a	n/a	n/a	n/a	n/a	n/a	n/a	n/a
123.1282	0.7667	INK	34	Neutral	xxxxx	xxxxx	zielony	green	hit	n/a
123.8617	n/a	RESPONSE	n/a	n/a	n/a	n/a	n/a	n/a	n/a	green
123.8948	1.0167	ITI	n/a	n/a	n/a	n/a	n/a	n/a	n/a	n/a
124.9115	0.5167	FIXCROSS	n/a	n/a	n/a	n/a	n/a	n/a	n/a	n/a
125.4282	0.55	INK	35	Neutral	xxxxxxxxx	xxxxxxxxx	czerwony	red	hit	n/a
125.9573	n/a	RESPONSE	n/a	n/a	n/a	n/a	n/a	n/a	n/a	red
125.9782	1.0167	ITI	n/a	n/a	n/a	n/a	n/a	n/a	n/a	n/a
126.9949	0.5167	FIXCROSS	n/a	n/a	n/a	n/a	n/a	n/a	n/a	n/a
127.5115	0.5833	INK	36	Incongruent	czerwony	red	niebieski	blue	hit	n/a
128.0689	n/a	RESPONSE	n/a	n/a	n/a	n/a	n/a	n/a	n/a	blue
128.0949	1.0167	ITI	n/a	n/a	n/a	n/a	n/a	n/a	n/a	n/a
129.1116	0.5167	FIXCROSS	n/a	n/a	n/a	n/a	n/a	n/a	n/a	n/a
129.6282	0.6833	INK	37	Neutral	xxxxxxxx	xxxxxxxx	niebieski	blue	hit	n/a
130.2924	n/a	RESPONSE	n/a	n/a	n/a	n/a	n/a	n/a	n/a	blue
130.3116	1.0167	ITI	n/a	n/a	n/a	n/a	n/a	n/a	n/a	n/a
131.3282	0.5167	FIXCROSS	n/a	n/a	n/a	n/a	n/a	n/a	n/a	n/a
131.8449	0.6167	INK	38	Neutral	xxxxx	xxxxx	czerwony	red	hit	n/a
132.436	n/a	RESPONSE	n/a	n/a	n/a	n/a	n/a	n/a	n/a	red
132.4616	1.0167	ITI	n/a	n/a	n/a	n/a	n/a	n/a	n/a	n/a
133.4783	0.5167	FIXCROSS	n/a	n/a	n/a	n/a	n/a	n/a	n/a	n/a
133.9949	1.2667	INK	39	Incongruent	zielony	green	żółty	yellow	hit	n/a
135.2353	n/a	RESPONSE	n/a	n/a	n/a	n/a	n/a	n/a	n/a	yellow
135.2616	1.0167	ITI	n/a	n/a	n/a	n/a	n/a	n/a	n/a	n/a
136.2783	0.5167	FIXCROSS	n/a	n/a	n/a	n/a	n/a	n/a	n/a	n/a
136.7949	0.9833	INK	40	Neutral	xxxxx	xxxxx	niebieski	blue	hit	n/a
137.7468	n/a	RESPONSE	n/a	n/a	n/a	n/a	n/a	n/a	n/a	blue
137.7783	1.0167	ITI	n/a	n/a	n/a	n/a	n/a	n/a	n/a	n/a
138.795	0.5167	FIXCROSS	n/a	n/a	n/a	n/a	n/a	n/a	n/a	n/a
139.3116	0.7333	INK	41	Incongruent	żółty	yellow	zielony	green	hit	n/a
140.0183	n/a	RESPONSE	n/a	n/a	n/a	n/a	n/a	n/a	n/a	green
140.045	1.0167	ITI	n/a	n/a	n/a	n/a	n/a	n/a	n/a	n/a
141.0616	0.5167	FIXCROSS	n/a	n/a	n/a	n/a	n/a	n/a	n/a	n/a
141.5783	0.8167	INK	42	Neutral	xxxxx	xxxxx	niebieski	blue	hit	n/a
142.3699	n/a	RESPONSE	n/a	n/a	n/a	n/a	n/a	n/a	n/a	blue
142.395	1.0167	ITI	n/a	n/a	n/a	n/a	n/a	n/a	n/a	n/a
143.4117	0.5167	FIXCROSS	n/a	n/a	n/a	n/a	n/a	n/a	n/a	n/a
143.9283	0.5333	INK	43	Neutral	xxxxxxx	xxxxxxx	niebieski	blue	hit	n/a
144.4334	n/a	RESPONSE	n/a	n/a	n/a	n/a	n/a	n/a	n/a	blue
144.4617	1.0167	ITI	n/a	n/a	n/a	n/a	n/a	n/a	n/a	n/a
145.4783	0.5167	FIXCROSS	n/a	n/a	n/a	n/a	n/a	n/a	n/a	n/a
145.995	0.8	INK	44	Incongruent	zielony	green	czerwony	red	hit	n/a
146.7689	n/a	RESPONSE	n/a	n/a	n/a	n/a	n/a	n/a	n/a	red
146.795	1.0167	ITI	n/a	n/a	n/a	n/a	n/a	n/a	n/a	n/a
147.8117	0.5167	FIXCROSS	n/a	n/a	n/a	n/a	n/a	n/a	n/a	n/a
148.3284	0.7833	INK	45	Incongruent	żółty	yellow	czerwony	red	hit	n/a
149.0884	n/a	RESPONSE	n/a	n/a	n/a	n/a	n/a	n/a	n/a	red
149.1117	1.0167	ITI	n/a	n/a	n/a	n/a	n/a	n/a	n/a	n/a
150.1284	0.5167	FIXCROSS	n/a	n/a	n/a	n/a	n/a	n/a	n/a	n/a
150.645	1.1667	INK	46	Incongruent	niebieski	blue	zielony	green	hit	n/a
151.7918	n/a	RESPONSE	n/a	n/a	n/a	n/a	n/a	n/a	n/a	green
151.8117	1.0167	ITI	n/a	n/a	n/a	n/a	n/a	n/a	n/a	n/a
152.8284	0.5167	FIXCROSS	n/a	n/a	n/a	n/a	n/a	n/a	n/a	n/a
153.345	0.8333	INK	47	Neutral	xxxxxxx	xxxxxxx	czerwony	red	hit	n/a
154.1593	n/a	RESPONSE	n/a	n/a	n/a	n/a	n/a	n/a	n/a	red
154.1784	1.0167	ITI	n/a	n/a	n/a	n/a	n/a	n/a	n/a	n/a
155.1951	0.5167	FIXCROSS	n/a	n/a	n/a	n/a	n/a	n/a	n/a	n/a
155.7117	0.8167	INK	48	Incongruent	czerwony	red	zielony	green	hit	n/a
156.5109	n/a	RESPONSE	n/a	n/a	n/a	n/a	n/a	n/a	n/a	green
156.5284	1.0167	ITI	n/a	n/a	n/a	n/a	n/a	n/a	n/a	n/a
157.5451	0.5167	FIXCROSS	n/a	n/a	n/a	n/a	n/a	n/a	n/a	n/a
158.0618	0.7333	INK	49	Incongruent	niebieski	blue	żółty	yellow	hit	n/a
158.7664	n/a	RESPONSE	n/a	n/a	n/a	n/a	n/a	n/a	n/a	yellow
158.7951	1.0167	ITI	n/a	n/a	n/a	n/a	n/a	n/a	n/a	n/a
159.8118	0.5167	FIXCROSS	n/a	n/a	n/a	n/a	n/a	n/a	n/a	n/a
160.3284	0.65	INK	50	Incongruent	zielony	green	czerwony	red	hit	n/a
160.9579	n/a	RESPONSE	n/a	n/a	n/a	n/a	n/a	n/a	n/a	red
160.9784	1.0167	ITI	n/a	n/a	n/a	n/a	n/a	n/a	n/a	n/a
161.9951	0.5167	FIXCROSS	n/a	n/a	n/a	n/a	n/a	n/a	n/a	n/a
162.5118	0.75	INK	51	Incongruent	zielony	green	żółty	yellow	hit	n/a
163.2294	n/a	RESPONSE	n/a	n/a	n/a	n/a	n/a	n/a	n/a	yellow
163.2618	1.0167	ITI	n/a	n/a	n/a	n/a	n/a	n/a	n/a	n/a
164.2785	0.5167	FIXCROSS	n/a	n/a	n/a	n/a	n/a	n/a	n/a	n/a
164.7951	0.7	INK	52	Neutral	xxxxxxxxx	xxxxxxxxx	zielony	green	hit	n/a
165.469	n/a	RESPONSE	n/a	n/a	n/a	n/a	n/a	n/a	n/a	green
165.4951	1.0167	ITI	n/a	n/a	n/a	n/a	n/a	n/a	n/a	n/a
166.5118	0.5167	FIXCROSS	n/a	n/a	n/a	n/a	n/a	n/a	n/a	n/a
167.0285	0.7333	INK	53	Neutral	xxxxxxxx	xxxxxxxx	niebieski	blue	hit	n/a
167.7405	n/a	RESPONSE	n/a	n/a	n/a	n/a	n/a	n/a	n/a	blue
167.7618	1.0167	ITI	n/a	n/a	n/a	n/a	n/a	n/a	n/a	n/a
168.7785	0.5167	FIXCROSS	n/a	n/a	n/a	n/a	n/a	n/a	n/a	n/a
169.2952	0.8833	INK	54	Incongruent	czerwony	red	żółty	yellow	hit	n/a
170.156	n/a	RESPONSE	n/a	n/a	n/a	n/a	n/a	n/a	n/a	yellow
170.1785	1.0167	ITI	n/a	n/a	n/a	n/a	n/a	n/a	n/a	n/a
171.1952	0.5167	FIXCROSS	n/a	n/a	n/a	n/a	n/a	n/a	n/a	n/a
171.7119	0.7167	INK	55	Incongruent	zielony	green	czerwony	red	hit	n/a
172.3955	n/a	RESPONSE	n/a	n/a	n/a	n/a	n/a	n/a	n/a	red
172.4285	1.0167	ITI	n/a	n/a	n/a	n/a	n/a	n/a	n/a	n/a
173.4452	0.5167	FIXCROSS	n/a	n/a	n/a	n/a	n/a	n/a	n/a	n/a
173.9619	0.7167	INK	56	Incongruent	żółty	yellow	niebieski	blue	hit	n/a
174.651	n/a	RESPONSE	n/a	n/a	n/a	n/a	n/a	n/a	n/a	blue
174.6785	1.0167	ITI	n/a	n/a	n/a	n/a	n/a	n/a	n/a	n/a
175.6952	0.5167	FIXCROSS	n/a	n/a	n/a	n/a	n/a	n/a	n/a	n/a
176.2119	0.6	INK	57	Neutral	xxxxxxxx	xxxxxxxx	zielony	green	hit	n/a
176.7786	n/a	RESPONSE	n/a	n/a	n/a	n/a	n/a	n/a	n/a	green
176.8119	1.0167	ITI	n/a	n/a	n/a	n/a	n/a	n/a	n/a	n/a
177.8286	0.5167	FIXCROSS	n/a	n/a	n/a	n/a	n/a	n/a	n/a	n/a
178.3452	0.85	INK	58	Neutral	xxxxxxx	xxxxxxx	czerwony	red	hit	n/a
179.1621	n/a	RESPONSE	n/a	n/a	n/a	n/a	n/a	n/a	n/a	red
179.1952	1.0167	ITI	n/a	n/a	n/a	n/a	n/a	n/a	n/a	n/a
180.2119	0.5167	FIXCROSS	n/a	n/a	n/a	n/a	n/a	n/a	n/a	n/a
180.7286	0.6667	INK	59	Incongruent	żółty	yellow	czerwony	red	hit	n/a
181.3696	n/a	RESPONSE	n/a	n/a	n/a	n/a	n/a	n/a	n/a	red
181.3953	1.0167	ITI	n/a	n/a	n/a	n/a	n/a	n/a	n/a	n/a
182.4119	0.5167	FIXCROSS	n/a	n/a	n/a	n/a	n/a	n/a	n/a	n/a
182.9286	0.7667	INK	60	Neutral	xxxxxxxxx	xxxxxxxxx	żółty	yellow	hit	n/a
183.6732	n/a	RESPONSE	n/a	n/a	n/a	n/a	n/a	n/a	n/a	yellow
183.6953	1.0167	ITI	n/a	n/a	n/a	n/a	n/a	n/a	n/a	n/a
184.7119	0.5167	FIXCROSS	n/a	n/a	n/a	n/a	n/a	n/a	n/a	n/a
185.2286	0.6833	INK	61	Incongruent	niebieski	blue	zielony	green	hit	n/a
185.8807	n/a	RESPONSE	n/a	n/a	n/a	n/a	n/a	n/a	n/a	green
185.912	1.0167	ITI	n/a	n/a	n/a	n/a	n/a	n/a	n/a	n/a
186.9286	0.5167	FIXCROSS	n/a	n/a	n/a	n/a	n/a	n/a	n/a	n/a
187.4453	0.65	INK	62	Incongruent	niebieski	blue	żółty	yellow	hit	n/a
188.0722	n/a	RESPONSE	n/a	n/a	n/a	n/a	n/a	n/a	n/a	yellow
188.0953	1.0167	ITI	n/a	n/a	n/a	n/a	n/a	n/a	n/a	n/a
189.112	0.5167	FIXCROSS	n/a	n/a	n/a	n/a	n/a	n/a	n/a	n/a
189.6286	0.7	INK	63	Incongruent	niebieski	blue	zielony	green	incorrect	n/a
190.2958	n/a	RESPONSE	n/a	n/a	n/a	n/a	n/a	n/a	n/a	yellow
190.3287	1.0167	ITI	n/a	n/a	n/a	n/a	n/a	n/a	n/a	n/a
191.3453	0.5167	FIXCROSS	n/a	n/a	n/a	n/a	n/a	n/a	n/a	n/a
191.862	0.85	INK	64	Incongruent	czerwony	red	żółty	yellow	hit	n/a
192.6792	n/a	RESPONSE	n/a	n/a	n/a	n/a	n/a	n/a	n/a	yellow
192.712	1.0167	ITI	n/a	n/a	n/a	n/a	n/a	n/a	n/a	n/a
193.7287	0.5167	FIXCROSS	n/a	n/a	n/a	n/a	n/a	n/a	n/a	n/a
194.2453	0.7	INK	65	Incongruent	niebieski	blue	czerwony	red	hit	n/a
194.9188	n/a	RESPONSE	n/a	n/a	n/a	n/a	n/a	n/a	n/a	red
194.9453	1.0167	ITI	n/a	n/a	n/a	n/a	n/a	n/a	n/a	n/a
195.962	0.5167	FIXCROSS	n/a	n/a	n/a	n/a	n/a	n/a	n/a	n/a
196.4787	1.2667	INK	66	Incongruent	czerwony	red	żółty	yellow	hit	n/a
197.7182	n/a	RESPONSE	n/a	n/a	n/a	n/a	n/a	n/a	n/a	yellow
197.7454	1.0167	ITI	n/a	n/a	n/a	n/a	n/a	n/a	n/a	n/a
198.762	0.5167	FIXCROSS	n/a	n/a	n/a	n/a	n/a	n/a	n/a	n/a
199.2787	0.8	INK	67	Incongruent	czerwony	red	zielony	green	hit	n/a
200.0537	n/a	RESPONSE	n/a	n/a	n/a	n/a	n/a	n/a	n/a	green
200.0787	1.0167	ITI	n/a	n/a	n/a	n/a	n/a	n/a	n/a	n/a
201.0954	0.5167	FIXCROSS	n/a	n/a	n/a	n/a	n/a	n/a	n/a	n/a
201.612	0.9667	INK	68	Neutral	xxxxxxx	xxxxxxx	żółty	yellow	hit	n/a
202.5492	n/a	RESPONSE	n/a	n/a	n/a	n/a	n/a	n/a	n/a	yellow
202.5787	1.0167	ITI	n/a	n/a	n/a	n/a	n/a	n/a	n/a	n/a
203.5954	0.5167	FIXCROSS	n/a	n/a	n/a	n/a	n/a	n/a	n/a	n/a
204.1121	0.5667	INK	69	Neutral	xxxxxxx	xxxxxxx	żółty	yellow	hit	n/a
204.6607	n/a	RESPONSE	n/a	n/a	n/a	n/a	n/a	n/a	n/a	yellow
204.6787	1.0167	ITI	n/a	n/a	n/a	n/a	n/a	n/a	n/a	n/a
205.6954	0.5167	FIXCROSS	n/a	n/a	n/a	n/a	n/a	n/a	n/a	n/a
206.2121	0.6667	INK	70	Neutral	xxxxxxxxx	xxxxxxxxx	czerwony	red	hit	n/a
206.8523	n/a	RESPONSE	n/a	n/a	n/a	n/a	n/a	n/a	n/a	red
206.8788	1.0167	ITI	n/a	n/a	n/a	n/a	n/a	n/a	n/a	n/a
207.8954	0.5167	FIXCROSS	n/a	n/a	n/a	n/a	n/a	n/a	n/a	n/a
208.4121	0.6	INK	71	Incongruent	niebieski	blue	czerwony	red	hit	n/a
208.9798	n/a	RESPONSE	n/a	n/a	n/a	n/a	n/a	n/a	n/a	red
209.0121	1.0167	ITI	n/a	n/a	n/a	n/a	n/a	n/a	n/a	n/a
210.0288	0.5167	FIXCROSS	n/a	n/a	n/a	n/a	n/a	n/a	n/a	n/a
210.5454	1.2	INK	72	Neutral	xxxxxxxxx	xxxxxxxxx	zielony	green	hit	n/a
211.7152	n/a	RESPONSE	n/a	n/a	n/a	n/a	n/a	n/a	n/a	green
211.7455	1.0833	ITI	n/a	n/a	n/a	n/a	n/a	n/a	n/a	n/a
250.779	n/a	RESPONSE	n/a	n/a	n/a	n/a	n/a	n/a	n/a	n/a
250.8457	1.0167	ITI	n/a	n/a	n/a	n/a	n/a	n/a	n/a	n/a
251.8624	0.5167	FIXCROSS	n/a	n/a	n/a	n/a	n/a	n/a	n/a	n/a
252.3791	1.8167	T_COLOR_NAME	1	Incongruent	niebieski	blue	czerwony	red	hit	n/a
254.1703	n/a	RESPONSE	n/a	n/a	n/a	n/a	n/a	n/a	n/a	blue
254.1957	0.5167	FEEDBACK	n/a	n/a	n/a	n/a	n/a	n/a	n/a	n/a
254.7124	1.0167	ITI	n/a	n/a	n/a	n/a	n/a	n/a	n/a	n/a
255.7291	0.5167	FIXCROSS	n/a	n/a	n/a	n/a	n/a	n/a	n/a	n/a
256.2458	2.1834	T_COLOR_NAME	2	Neutral	czerwony	red	Neutral	Neutral	hit	n/a
258.3934	n/a	RESPONSE	n/a	n/a	n/a	n/a	n/a	n/a	n/a	red
258.4291	0.5167	FEEDBACK	n/a	n/a	n/a	n/a	n/a	n/a	n/a	n/a
258.9458	1.0167	ITI	n/a	n/a	n/a	n/a	n/a	n/a	n/a	n/a
259.9625	0.5167	FIXCROSS	n/a	n/a	n/a	n/a	n/a	n/a	n/a	n/a
260.4791	1.2833	T_COLOR_NAME	3	Incongruent	żółty	yellow	czerwony	red	hit	n/a
261.7367	n/a	RESPONSE	n/a	n/a	n/a	n/a	n/a	n/a	n/a	yellow
261.7625	0.5167	FEEDBACK	n/a	n/a	n/a	n/a	n/a	n/a	n/a	n/a
262.2791	1.0167	ITI	n/a	n/a	n/a	n/a	n/a	n/a	n/a	n/a
263.2958	0.5167	FIXCROSS	n/a	n/a	n/a	n/a	n/a	n/a	n/a	n/a
263.8125	0.9333	T_COLOR_NAME	4	Incongruent	niebieski	blue	żółty	yellow	hit	n/a
264.7121	n/a	RESPONSE	n/a	n/a	n/a	n/a	n/a	n/a	n/a	blue
264.7458	0.5167	FEEDBACK	n/a	n/a	n/a	n/a	n/a	n/a	n/a	n/a
265.2625	1.0167	ITI	n/a	n/a	n/a	n/a	n/a	n/a	n/a	n/a
266.2792	0.5167	FIXCROSS	n/a	n/a	n/a	n/a	n/a	n/a	n/a	n/a
266.7958	1.8	T_COLOR_NAME	5	Neutral	żółty	yellow	Neutral	Neutral	hit	n/a
268.5673	n/a	RESPONSE	n/a	n/a	n/a	n/a	n/a	n/a	n/a	yellow
268.5958	0.5167	FEEDBACK	n/a	n/a	n/a	n/a	n/a	n/a	n/a	n/a
269.1125	1.0167	ITI	n/a	n/a	n/a	n/a	n/a	n/a	n/a	n/a
270.1292	0.5167	FIXCROSS	n/a	n/a	n/a	n/a	n/a	n/a	n/a	n/a
270.6459	1.5667	T_COLOR_NAME	6	Incongruent	niebieski	blue	zielony	green	hit	n/a
272.1825	n/a	RESPONSE	n/a	n/a	n/a	n/a	n/a	n/a	n/a	blue
272.2125	0.5167	FEEDBACK	n/a	n/a	n/a	n/a	n/a	n/a	n/a	n/a
272.7292	1.0167	ITI	n/a	n/a	n/a	n/a	n/a	n/a	n/a	n/a
273.7459	0.5167	FIXCROSS	n/a	n/a	n/a	n/a	n/a	n/a	n/a	n/a
274.2626	1.4667	T_COLOR_NAME	7	Incongruent	żółty	yellow	zielony	green	hit	n/a
275.7018	n/a	RESPONSE	n/a	n/a	n/a	n/a	n/a	n/a	n/a	yellow
275.7292	0.5167	FEEDBACK	n/a	n/a	n/a	n/a	n/a	n/a	n/a	n/a
276.2459	1.0167	ITI	n/a	n/a	n/a	n/a	n/a	n/a	n/a	n/a
277.2626	0.5167	FIXCROSS	n/a	n/a	n/a	n/a	n/a	n/a	n/a	n/a
277.7792	0.7667	T_COLOR_NAME	8	Incongruent	żółty	yellow	niebieski	blue	hit	n/a
278.5172	n/a	RESPONSE	n/a	n/a	n/a	n/a	n/a	n/a	n/a	yellow
278.5459	0.5167	FEEDBACK	n/a	n/a	n/a	n/a	n/a	n/a	n/a	n/a
279.0626	1.0167	ITI	n/a	n/a	n/a	n/a	n/a	n/a	n/a	n/a
280.0793	0.5167	FIXCROSS	n/a	n/a	n/a	n/a	n/a	n/a	n/a	n/a
280.5959	1.0	T_COLOR_NAME	9	Neutral	zielony	green	Neutral	Neutral	hit	n/a
281.5726	n/a	RESPONSE	n/a	n/a	n/a	n/a	n/a	n/a	n/a	green
281.5959	0.5167	FEEDBACK	n/a	n/a	n/a	n/a	n/a	n/a	n/a	n/a
282.1126	1.0167	ITI	n/a	n/a	n/a	n/a	n/a	n/a	n/a	n/a
283.1293	0.5167	FIXCROSS	n/a	n/a	n/a	n/a	n/a	n/a	n/a	n/a
283.6459	1.4167	T_COLOR_NAME	10	Incongruent	czerwony	red	zielony	green	hit	n/a
285.0438	n/a	RESPONSE	n/a	n/a	n/a	n/a	n/a	n/a	n/a	red
285.0626	0.5167	FEEDBACK	n/a	n/a	n/a	n/a	n/a	n/a	n/a	n/a
285.5793	1.0167	ITI	n/a	n/a	n/a	n/a	n/a	n/a	n/a	n/a
286.596	0.5167	FIXCROSS	n/a	n/a	n/a	n/a	n/a	n/a	n/a	n/a
287.1126	0.95	T_COLOR_NAME	11	Neutral	niebieski	blue	Neutral	Neutral	hit	n/a
288.0352	n/a	RESPONSE	n/a	n/a	n/a	n/a	n/a	n/a	n/a	blue
288.0627	0.5167	FEEDBACK	n/a	n/a	n/a	n/a	n/a	n/a	n/a	n/a
288.5793	1.0167	ITI	n/a	n/a	n/a	n/a	n/a	n/a	n/a	n/a
289.596	0.5167	FIXCROSS	n/a	n/a	n/a	n/a	n/a	n/a	n/a	n/a
290.1127	0.9	T_COLOR_NAME	12	Neutral	zielony	green	Neutral	Neutral	hit	n/a
290.9786	n/a	RESPONSE	n/a	n/a	n/a	n/a	n/a	n/a	n/a	green
291.0127	0.5167	FEEDBACK	n/a	n/a	n/a	n/a	n/a	n/a	n/a	n/a
291.5293	1.0333	ITI	n/a	n/a	n/a	n/a	n/a	n/a	n/a	n/a
294.3379	n/a	RESPONSE	n/a	n/a	n/a	n/a	n/a	n/a	n/a	n/a
294.396	1.0167	ITI	n/a	n/a	n/a	n/a	n/a	n/a	n/a	n/a
295.4127	0.5167	FIXCROSS	n/a	n/a	n/a	n/a	n/a	n/a	n/a	n/a
295.9294	1.1333	COLOR_NAME	1	Neutral	czerwony	red	Neutral	Neutral	hit	n/a
297.0413	n/a	RESPONSE	n/a	n/a	n/a	n/a	n/a	n/a	n/a	red
297.0627	1.0167	ITI	n/a	n/a	n/a	n/a	n/a	n/a	n/a	n/a
298.0794	0.5167	FIXCROSS	n/a	n/a	n/a	n/a	n/a	n/a	n/a	n/a
298.5961	1.0333	COLOR_NAME	2	Neutral	żółty	yellow	Neutral	Neutral	hit	n/a
299.6008	n/a	RESPONSE	n/a	n/a	n/a	n/a	n/a	n/a	n/a	yellow
299.6294	1.0167	ITI	n/a	n/a	n/a	n/a	n/a	n/a	n/a	n/a
300.6461	0.5167	FIXCROSS	n/a	n/a	n/a	n/a	n/a	n/a	n/a	n/a
301.1627	1.3834	COLOR_NAME	3	Incongruent	żółty	yellow	czerwony	red	hit	n/a
302.5281	n/a	RESPONSE	n/a	n/a	n/a	n/a	n/a	n/a	n/a	yellow
302.5461	1.0167	ITI	n/a	n/a	n/a	n/a	n/a	n/a	n/a	n/a
303.5628	0.5167	FIXCROSS	n/a	n/a	n/a	n/a	n/a	n/a	n/a	n/a
304.0794	0.9667	COLOR_NAME	4	Neutral	czerwony	red	Neutral	Neutral	hit	n/a
305.0237	n/a	RESPONSE	n/a	n/a	n/a	n/a	n/a	n/a	n/a	red
305.0461	1.0167	ITI	n/a	n/a	n/a	n/a	n/a	n/a	n/a	n/a
306.0628	0.5167	FIXCROSS	n/a	n/a	n/a	n/a	n/a	n/a	n/a	n/a
306.5794	1.0833	COLOR_NAME	5	Incongruent	żółty	yellow	czerwony	red	hit	n/a
307.6311	n/a	RESPONSE	n/a	n/a	n/a	n/a	n/a	n/a	n/a	yellow
307.6628	1.0167	ITI	n/a	n/a	n/a	n/a	n/a	n/a	n/a	n/a
308.6795	0.5167	FIXCROSS	n/a	n/a	n/a	n/a	n/a	n/a	n/a	n/a
309.1961	1.0833	COLOR_NAME	6	Neutral	niebieski	blue	Neutral	Neutral	hit	n/a
310.2545	n/a	RESPONSE	n/a	n/a	n/a	n/a	n/a	n/a	n/a	blue
310.2795	1.0167	ITI	n/a	n/a	n/a	n/a	n/a	n/a	n/a	n/a
311.2961	0.5167	FIXCROSS	n/a	n/a	n/a	n/a	n/a	n/a	n/a	n/a
311.8128	0.8	COLOR_NAME	7	Incongruent	niebieski	blue	żółty	yellow	hit	n/a
312.59	n/a	RESPONSE	n/a	n/a	n/a	n/a	n/a	n/a	n/a	blue
312.6128	1.0167	ITI	n/a	n/a	n/a	n/a	n/a	n/a	n/a	n/a
313.6295	0.5167	FIXCROSS	n/a	n/a	n/a	n/a	n/a	n/a	n/a	n/a
314.1462	0.85	COLOR_NAME	8	Incongruent	niebieski	blue	zielony	green	hit	n/a
314.9735	n/a	RESPONSE	n/a	n/a	n/a	n/a	n/a	n/a	n/a	blue
314.9962	1.0167	ITI	n/a	n/a	n/a	n/a	n/a	n/a	n/a	n/a
316.0128	0.5167	FIXCROSS	n/a	n/a	n/a	n/a	n/a	n/a	n/a	n/a
316.5295	0.8667	COLOR_NAME	9	Incongruent	czerwony	red	zielony	green	hit	n/a
317.373	n/a	RESPONSE	n/a	n/a	n/a	n/a	n/a	n/a	n/a	red
317.3962	1.0167	ITI	n/a	n/a	n/a	n/a	n/a	n/a	n/a	n/a
318.4129	0.5167	FIXCROSS	n/a	n/a	n/a	n/a	n/a	n/a	n/a	n/a
318.9295	0.9167	COLOR_NAME	10	Incongruent	zielony	green	niebieski	blue	hit	n/a
319.8205	n/a	RESPONSE	n/a	n/a	n/a	n/a	n/a	n/a	n/a	green
319.8462	1.0167	ITI	n/a	n/a	n/a	n/a	n/a	n/a	n/a	n/a
320.8629	0.5167	FIXCROSS	n/a	n/a	n/a	n/a	n/a	n/a	n/a	n/a
321.3795	1.05	COLOR_NAME	11	Incongruent	żółty	yellow	zielony	green	hit	n/a
322.3959	n/a	RESPONSE	n/a	n/a	n/a	n/a	n/a	n/a	n/a	yellow
322.4295	1.0167	ITI	n/a	n/a	n/a	n/a	n/a	n/a	n/a	n/a
323.4462	0.5167	FIXCROSS	n/a	n/a	n/a	n/a	n/a	n/a	n/a	n/a
323.9629	0.8333	COLOR_NAME	12	Incongruent	czerwony	red	zielony	green	hit	n/a
324.7635	n/a	RESPONSE	n/a	n/a	n/a	n/a	n/a	n/a	n/a	red
324.7962	1.0167	ITI	n/a	n/a	n/a	n/a	n/a	n/a	n/a	n/a
325.8129	0.5167	FIXCROSS	n/a	n/a	n/a	n/a	n/a	n/a	n/a	n/a
326.3296	0.65	COLOR_NAME	13	Neutral	niebieski	blue	Neutral	Neutral	hit	n/a
326.955	n/a	RESPONSE	n/a	n/a	n/a	n/a	n/a	n/a	n/a	blue
326.9796	1.0167	ITI	n/a	n/a	n/a	n/a	n/a	n/a	n/a	n/a
327.9963	0.5167	FIXCROSS	n/a	n/a	n/a	n/a	n/a	n/a	n/a	n/a
328.5129	0.7	COLOR_NAME	14	Incongruent	czerwony	red	żółty	yellow	hit	n/a
329.1946	n/a	RESPONSE	n/a	n/a	n/a	n/a	n/a	n/a	n/a	red
329.2129	1.0167	ITI	n/a	n/a	n/a	n/a	n/a	n/a	n/a	n/a
330.2296	0.5167	FIXCROSS	n/a	n/a	n/a	n/a	n/a	n/a	n/a	n/a
330.7463	0.8	COLOR_NAME	15	Incongruent	niebieski	blue	czerwony	red	hit	n/a
331.514	n/a	RESPONSE	n/a	n/a	n/a	n/a	n/a	n/a	n/a	blue
331.5463	1.0167	ITI	n/a	n/a	n/a	n/a	n/a	n/a	n/a	n/a
332.5629	0.5167	FIXCROSS	n/a	n/a	n/a	n/a	n/a	n/a	n/a	n/a
333.0796	0.85	COLOR_NAME	16	Incongruent	zielony	green	czerwony	red	incorrect	n/a
333.8976	n/a	RESPONSE	n/a	n/a	n/a	n/a	n/a	n/a	n/a	yellow
333.9296	1.0167	ITI	n/a	n/a	n/a	n/a	n/a	n/a	n/a	n/a
334.9463	0.5167	FIXCROSS	n/a	n/a	n/a	n/a	n/a	n/a	n/a	n/a
335.463	0.8167	COLOR_NAME	17	Neutral	żółty	yellow	Neutral	Neutral	hit	n/a
336.2491	n/a	RESPONSE	n/a	n/a	n/a	n/a	n/a	n/a	n/a	yellow
336.2796	1.0167	ITI	n/a	n/a	n/a	n/a	n/a	n/a	n/a	n/a
337.2963	0.5167	FIXCROSS	n/a	n/a	n/a	n/a	n/a	n/a	n/a	n/a
337.813	1.2667	COLOR_NAME	18	Neutral	żółty	yellow	Neutral	Neutral	hit	n/a
339.0485	n/a	RESPONSE	n/a	n/a	n/a	n/a	n/a	n/a	n/a	yellow
339.0797	1.0167	ITI	n/a	n/a	n/a	n/a	n/a	n/a	n/a	n/a
340.0963	0.5167	FIXCROSS	n/a	n/a	n/a	n/a	n/a	n/a	n/a	n/a
340.613	1.0667	COLOR_NAME	19	Neutral	czerwony	red	Neutral	Neutral	hit	n/a
341.6559	n/a	RESPONSE	n/a	n/a	n/a	n/a	n/a	n/a	n/a	red
341.6797	1.0167	ITI	n/a	n/a	n/a	n/a	n/a	n/a	n/a	n/a
342.6964	0.5167	FIXCROSS	n/a	n/a	n/a	n/a	n/a	n/a	n/a	n/a
343.213	0.8167	COLOR_NAME	20	Neutral	czerwony	red	Neutral	Neutral	hit	n/a
344.0074	n/a	RESPONSE	n/a	n/a	n/a	n/a	n/a	n/a	n/a	red
344.0297	1.0167	ITI	n/a	n/a	n/a	n/a	n/a	n/a	n/a	n/a
345.0464	0.5167	FIXCROSS	n/a	n/a	n/a	n/a	n/a	n/a	n/a	n/a
345.563	0.7667	COLOR_NAME	21	Neutral	czerwony	red	Neutral	Neutral	hit	n/a
346.3109	n/a	RESPONSE	n/a	n/a	n/a	n/a	n/a	n/a	n/a	red
346.3297	1.0167	ITI	n/a	n/a	n/a	n/a	n/a	n/a	n/a	n/a
347.3464	0.5167	FIXCROSS	n/a	n/a	n/a	n/a	n/a	n/a	n/a	n/a
347.8631	0.7833	COLOR_NAME	22	Incongruent	czerwony	red	zielony	green	hit	n/a
348.6144	n/a	RESPONSE	n/a	n/a	n/a	n/a	n/a	n/a	n/a	red
348.6464	1.0167	ITI	n/a	n/a	n/a	n/a	n/a	n/a	n/a	n/a
349.6631	0.5167	FIXCROSS	n/a	n/a	n/a	n/a	n/a	n/a	n/a	n/a
350.1797	0.6333	COLOR_NAME	23	Neutral	czerwony	red	Neutral	Neutral	hit	n/a
350.79	n/a	RESPONSE	n/a	n/a	n/a	n/a	n/a	n/a	n/a	red
350.8131	1.0167	ITI	n/a	n/a	n/a	n/a	n/a	n/a	n/a	n/a
351.8298	0.5167	FIXCROSS	n/a	n/a	n/a	n/a	n/a	n/a	n/a	n/a
352.3464	0.75	COLOR_NAME	24	Neutral	niebieski	blue	Neutral	Neutral	hit	n/a
353.0615	n/a	RESPONSE	n/a	n/a	n/a	n/a	n/a	n/a	n/a	blue
353.0964	1.0167	ITI	n/a	n/a	n/a	n/a	n/a	n/a	n/a	n/a
354.1131	0.5167	FIXCROSS	n/a	n/a	n/a	n/a	n/a	n/a	n/a	n/a
354.6298	0.9833	COLOR_NAME	25	Neutral	zielony	green	Neutral	Neutral	hit	n/a
355.589	n/a	RESPONSE	n/a	n/a	n/a	n/a	n/a	n/a	n/a	green
355.6131	1.0167	ITI	n/a	n/a	n/a	n/a	n/a	n/a	n/a	n/a
356.6298	0.5167	FIXCROSS	n/a	n/a	n/a	n/a	n/a	n/a	n/a	n/a
357.1464	0.8167	COLOR_NAME	26	Neutral	czerwony	red	Neutral	Neutral	hit	n/a
357.9405	n/a	RESPONSE	n/a	n/a	n/a	n/a	n/a	n/a	n/a	red
357.9631	1.0167	ITI	n/a	n/a	n/a	n/a	n/a	n/a	n/a	n/a
358.9798	0.5167	FIXCROSS	n/a	n/a	n/a	n/a	n/a	n/a	n/a	n/a
359.4965	0.9	COLOR_NAME	27	Neutral	żółty	yellow	Neutral	Neutral	hit	n/a
360.372	n/a	RESPONSE	n/a	n/a	n/a	n/a	n/a	n/a	n/a	yellow
360.3965	1.0167	ITI	n/a	n/a	n/a	n/a	n/a	n/a	n/a	n/a
361.4131	0.5167	FIXCROSS	n/a	n/a	n/a	n/a	n/a	n/a	n/a	n/a
361.9298	0.8333	COLOR_NAME	28	Incongruent	żółty	yellow	zielony	green	hit	n/a
362.7395	n/a	RESPONSE	n/a	n/a	n/a	n/a	n/a	n/a	n/a	yellow
362.7632	1.0167	ITI	n/a	n/a	n/a	n/a	n/a	n/a	n/a	n/a
363.7798	0.5167	FIXCROSS	n/a	n/a	n/a	n/a	n/a	n/a	n/a	n/a
364.2965	0.6167	COLOR_NAME	29	Neutral	żółty	yellow	Neutral	Neutral	hit	n/a
364.8831	n/a	RESPONSE	n/a	n/a	n/a	n/a	n/a	n/a	n/a	yellow
364.9132	1.0167	ITI	n/a	n/a	n/a	n/a	n/a	n/a	n/a	n/a
365.9298	0.5167	FIXCROSS	n/a	n/a	n/a	n/a	n/a	n/a	n/a	n/a
366.4465	0.6833	COLOR_NAME	30	Neutral	zielony	green	Neutral	Neutral	hit	n/a
367.1066	n/a	RESPONSE	n/a	n/a	n/a	n/a	n/a	n/a	n/a	green
367.1299	1.0167	ITI	n/a	n/a	n/a	n/a	n/a	n/a	n/a	n/a
368.1465	0.5167	FIXCROSS	n/a	n/a	n/a	n/a	n/a	n/a	n/a	n/a
368.6632	1.0333	COLOR_NAME	31	Neutral	niebieski	blue	Neutral	Neutral	hit	n/a
369.666	n/a	RESPONSE	n/a	n/a	n/a	n/a	n/a	n/a	n/a	blue
369.6965	1.0167	ITI	n/a	n/a	n/a	n/a	n/a	n/a	n/a	n/a
370.7132	0.5167	FIXCROSS	n/a	n/a	n/a	n/a	n/a	n/a	n/a	n/a
371.2299	0.65	COLOR_NAME	32	Incongruent	niebieski	blue	żółty	yellow	hit	n/a
371.8516	n/a	RESPONSE	n/a	n/a	n/a	n/a	n/a	n/a	n/a	blue
371.8799	1.0167	ITI	n/a	n/a	n/a	n/a	n/a	n/a	n/a	n/a
372.8966	0.5167	FIXCROSS	n/a	n/a	n/a	n/a	n/a	n/a	n/a	n/a
373.4132	0.95	COLOR_NAME	33	Incongruent	żółty	yellow	niebieski	blue	hit	n/a
374.3371	n/a	RESPONSE	n/a	n/a	n/a	n/a	n/a	n/a	n/a	yellow
374.3632	1.0167	ITI	n/a	n/a	n/a	n/a	n/a	n/a	n/a	n/a
375.3799	0.5167	FIXCROSS	n/a	n/a	n/a	n/a	n/a	n/a	n/a	n/a
375.8966	0.9	COLOR_NAME	34	Neutral	niebieski	blue	Neutral	Neutral	hit	n/a
376.7686	n/a	RESPONSE	n/a	n/a	n/a	n/a	n/a	n/a	n/a	blue
376.7966	1.0167	ITI	n/a	n/a	n/a	n/a	n/a	n/a	n/a	n/a
377.8133	0.5167	FIXCROSS	n/a	n/a	n/a	n/a	n/a	n/a	n/a	n/a
378.3299	0.8	COLOR_NAME	35	Incongruent	niebieski	blue	żółty	yellow	hit	n/a
379.1041	n/a	RESPONSE	n/a	n/a	n/a	n/a	n/a	n/a	n/a	blue
379.1299	1.0167	ITI	n/a	n/a	n/a	n/a	n/a	n/a	n/a	n/a
380.1466	0.5167	FIXCROSS	n/a	n/a	n/a	n/a	n/a	n/a	n/a	n/a
380.6633	0.8667	COLOR_NAME	36	Neutral	zielony	green	Neutral	Neutral	hit	n/a
381.5036	n/a	RESPONSE	n/a	n/a	n/a	n/a	n/a	n/a	n/a	green
381.5299	1.0167	ITI	n/a	n/a	n/a	n/a	n/a	n/a	n/a	n/a
382.5466	0.5167	FIXCROSS	n/a	n/a	n/a	n/a	n/a	n/a	n/a	n/a
383.0633	0.55	COLOR_NAME	37	Neutral	zielony	green	Neutral	Neutral	hit	n/a
383.5831	n/a	RESPONSE	n/a	n/a	n/a	n/a	n/a	n/a	n/a	green
383.6133	1.0167	ITI	n/a	n/a	n/a	n/a	n/a	n/a	n/a	n/a
384.63	0.5167	FIXCROSS	n/a	n/a	n/a	n/a	n/a	n/a	n/a	n/a
385.1466	0.9667	COLOR_NAME	38	Incongruent	czerwony	red	niebieski	blue	hit	n/a
386.0786	n/a	RESPONSE	n/a	n/a	n/a	n/a	n/a	n/a	n/a	red
386.1133	1.0167	ITI	n/a	n/a	n/a	n/a	n/a	n/a	n/a	n/a
387.13	0.5167	FIXCROSS	n/a	n/a	n/a	n/a	n/a	n/a	n/a	n/a
387.6467	0.8167	COLOR_NAME	39	Neutral	czerwony	red	Neutral	Neutral	hit	n/a
388.4301	n/a	RESPONSE	n/a	n/a	n/a	n/a	n/a	n/a	n/a	red
388.4633	1.0167	ITI	n/a	n/a	n/a	n/a	n/a	n/a	n/a	n/a
389.48	0.5167	FIXCROSS	n/a	n/a	n/a	n/a	n/a	n/a	n/a	n/a
389.9967	0.8333	COLOR_NAME	40	Neutral	niebieski	blue	Neutral	Neutral	hit	n/a
390.7976	n/a	RESPONSE	n/a	n/a	n/a	n/a	n/a	n/a	n/a	blue
390.83	1.0167	ITI	n/a	n/a	n/a	n/a	n/a	n/a	n/a	n/a
391.8467	0.5167	FIXCROSS	n/a	n/a	n/a	n/a	n/a	n/a	n/a	n/a
392.3634	0.6333	COLOR_NAME	41	Incongruent	niebieski	blue	czerwony	red	hit	n/a
392.9732	n/a	RESPONSE	n/a	n/a	n/a	n/a	n/a	n/a	n/a	blue
392.9967	1.0167	ITI	n/a	n/a	n/a	n/a	n/a	n/a	n/a	n/a
394.0134	0.5167	FIXCROSS	n/a	n/a	n/a	n/a	n/a	n/a	n/a	n/a
394.53	0.9667	COLOR_NAME	42	Neutral	zielony	green	Neutral	Neutral	hit	n/a
395.4686	n/a	RESPONSE	n/a	n/a	n/a	n/a	n/a	n/a	n/a	green
395.4967	1.0167	ITI	n/a	n/a	n/a	n/a	n/a	n/a	n/a	n/a
396.5134	0.5167	FIXCROSS	n/a	n/a	n/a	n/a	n/a	n/a	n/a	n/a
397.0301	1.0667	COLOR_NAME	43	Incongruent	czerwony	red	niebieski	blue	hit	n/a
398.076	n/a	RESPONSE	n/a	n/a	n/a	n/a	n/a	n/a	n/a	red
398.0967	1.0167	ITI	n/a	n/a	n/a	n/a	n/a	n/a	n/a	n/a
399.1134	0.5167	FIXCROSS	n/a	n/a	n/a	n/a	n/a	n/a	n/a	n/a
399.6301	0.8667	COLOR_NAME	44	Incongruent	zielony	green	czerwony	red	hit	n/a
400.4756	n/a	RESPONSE	n/a	n/a	n/a	n/a	n/a	n/a	n/a	green
400.4968	1.0167	ITI	n/a	n/a	n/a	n/a	n/a	n/a	n/a	n/a
401.5134	0.5167	FIXCROSS	n/a	n/a	n/a	n/a	n/a	n/a	n/a	n/a
402.0301	0.9167	COLOR_NAME	45	Neutral	niebieski	blue	Neutral	Neutral	hit	n/a
402.9231	n/a	RESPONSE	n/a	n/a	n/a	n/a	n/a	n/a	n/a	blue
402.9468	1.0167	ITI	n/a	n/a	n/a	n/a	n/a	n/a	n/a	n/a
403.9634	0.5167	FIXCROSS	n/a	n/a	n/a	n/a	n/a	n/a	n/a	n/a
404.4801	0.8	COLOR_NAME	46	Neutral	żółty	yellow	Neutral	Neutral	hit	n/a
405.2586	n/a	RESPONSE	n/a	n/a	n/a	n/a	n/a	n/a	n/a	yellow
405.2801	1.0167	ITI	n/a	n/a	n/a	n/a	n/a	n/a	n/a	n/a
406.2968	0.5167	FIXCROSS	n/a	n/a	n/a	n/a	n/a	n/a	n/a	n/a
406.8135	0.7	COLOR_NAME	47	Incongruent	niebieski	blue	zielony	green	hit	n/a
407.4821	n/a	RESPONSE	n/a	n/a	n/a	n/a	n/a	n/a	n/a	blue
407.5135	1.0167	ITI	n/a	n/a	n/a	n/a	n/a	n/a	n/a	n/a
408.5301	0.5167	FIXCROSS	n/a	n/a	n/a	n/a	n/a	n/a	n/a	n/a
409.0468	0.7833	COLOR_NAME	48	Incongruent	zielony	green	żółty	yellow	hit	n/a
409.8016	n/a	RESPONSE	n/a	n/a	n/a	n/a	n/a	n/a	n/a	green
409.8301	1.0167	ITI	n/a	n/a	n/a	n/a	n/a	n/a	n/a	n/a
410.8468	0.5167	FIXCROSS	n/a	n/a	n/a	n/a	n/a	n/a	n/a	n/a
411.3635	1.3	COLOR_NAME	49	Incongruent	żółty	yellow	niebieski	blue	hit	n/a
412.633	n/a	RESPONSE	n/a	n/a	n/a	n/a	n/a	n/a	n/a	yellow
412.6635	1.0167	ITI	n/a	n/a	n/a	n/a	n/a	n/a	n/a	n/a
413.6802	0.5167	FIXCROSS	n/a	n/a	n/a	n/a	n/a	n/a	n/a	n/a
414.1968	0.7833	COLOR_NAME	50	Incongruent	zielony	green	niebieski	blue	hit	n/a
414.9525	n/a	RESPONSE	n/a	n/a	n/a	n/a	n/a	n/a	n/a	green
414.9802	1.0167	ITI	n/a	n/a	n/a	n/a	n/a	n/a	n/a	n/a
415.9969	0.5167	FIXCROSS	n/a	n/a	n/a	n/a	n/a	n/a	n/a	n/a
416.5135	1.0667	COLOR_NAME	51	Neutral	zielony	green	Neutral	Neutral	hit	n/a
417.56	n/a	RESPONSE	n/a	n/a	n/a	n/a	n/a	n/a	n/a	green
417.5802	1.0167	ITI	n/a	n/a	n/a	n/a	n/a	n/a	n/a	n/a
418.5969	0.5167	FIXCROSS	n/a	n/a	n/a	n/a	n/a	n/a	n/a	n/a
419.1135	0.7333	COLOR_NAME	52	Incongruent	zielony	green	czerwony	red	hit	n/a
419.8155	n/a	RESPONSE	n/a	n/a	n/a	n/a	n/a	n/a	n/a	green
419.8469	1.0167	ITI	n/a	n/a	n/a	n/a	n/a	n/a	n/a	n/a
420.8635	0.5167	FIXCROSS	n/a	n/a	n/a	n/a	n/a	n/a	n/a	n/a
421.3802	0.6833	COLOR_NAME	53	Incongruent	zielony	green	niebieski	blue	hit	n/a
422.0391	n/a	RESPONSE	n/a	n/a	n/a	n/a	n/a	n/a	n/a	green
422.0636	1.0167	ITI	n/a	n/a	n/a	n/a	n/a	n/a	n/a	n/a
423.0802	0.5167	FIXCROSS	n/a	n/a	n/a	n/a	n/a	n/a	n/a	n/a
423.5969	0.6667	COLOR_NAME	54	Neutral	zielony	green	Neutral	Neutral	hit	n/a
424.2306	n/a	RESPONSE	n/a	n/a	n/a	n/a	n/a	n/a	n/a	green
424.2636	1.0167	ITI	n/a	n/a	n/a	n/a	n/a	n/a	n/a	n/a
425.2802	0.5167	FIXCROSS	n/a	n/a	n/a	n/a	n/a	n/a	n/a	n/a
425.7969	1.6333	COLOR_NAME	55	Neutral	żółty	yellow	Neutral	Neutral	hit	n/a
427.3979	n/a	RESPONSE	n/a	n/a	n/a	n/a	n/a	n/a	n/a	yellow
427.4303	1.0167	ITI	n/a	n/a	n/a	n/a	n/a	n/a	n/a	n/a
428.4469	0.5167	FIXCROSS	n/a	n/a	n/a	n/a	n/a	n/a	n/a	n/a
428.9636	1.7167	COLOR_NAME	56	Incongruent	niebieski	blue	zielony	green	hit	n/a
430.6612	n/a	RESPONSE	n/a	n/a	n/a	n/a	n/a	n/a	n/a	blue
430.6803	1.0167	ITI	n/a	n/a	n/a	n/a	n/a	n/a	n/a	n/a
431.697	0.5167	FIXCROSS	n/a	n/a	n/a	n/a	n/a	n/a	n/a	n/a
432.2136	1.9333	COLOR_NAME	57	Incongruent	zielony	green	żółty	yellow	hit	n/a
434.1165	n/a	RESPONSE	n/a	n/a	n/a	n/a	n/a	n/a	n/a	green
434.147	1.0167	ITI	n/a	n/a	n/a	n/a	n/a	n/a	n/a	n/a
435.1636	0.5167	FIXCROSS	n/a	n/a	n/a	n/a	n/a	n/a	n/a	n/a
435.6803	0.9667	COLOR_NAME	58	Incongruent	czerwony	red	żółty	yellow	hit	n/a
436.612	n/a	RESPONSE	n/a	n/a	n/a	n/a	n/a	n/a	n/a	red
436.647	1.0167	ITI	n/a	n/a	n/a	n/a	n/a	n/a	n/a	n/a
437.6637	0.5167	FIXCROSS	n/a	n/a	n/a	n/a	n/a	n/a	n/a	n/a
438.1803	0.75	COLOR_NAME	59	Incongruent	żółty	yellow	niebieski	blue	hit	n/a
438.8995	n/a	RESPONSE	n/a	n/a	n/a	n/a	n/a	n/a	n/a	yellow
438.9303	1.0167	ITI	n/a	n/a	n/a	n/a	n/a	n/a	n/a	n/a
439.947	0.5167	FIXCROSS	n/a	n/a	n/a	n/a	n/a	n/a	n/a	n/a
440.4637	0.75	COLOR_NAME	60	Incongruent	czerwony	red	żółty	yellow	hit	n/a
441.187	n/a	RESPONSE	n/a	n/a	n/a	n/a	n/a	n/a	n/a	red
441.2137	1.0167	ITI	n/a	n/a	n/a	n/a	n/a	n/a	n/a	n/a
442.2304	0.5167	FIXCROSS	n/a	n/a	n/a	n/a	n/a	n/a	n/a	n/a
442.747	0.8667	COLOR_NAME	61	Incongruent	zielony	green	żółty	yellow	hit	n/a
443.5865	n/a	RESPONSE	n/a	n/a	n/a	n/a	n/a	n/a	n/a	green
443.6137	1.0167	ITI	n/a	n/a	n/a	n/a	n/a	n/a	n/a	n/a
444.6304	0.5167	FIXCROSS	n/a	n/a	n/a	n/a	n/a	n/a	n/a	n/a
445.147	1.1667	COLOR_NAME	62	Neutral	żółty	yellow	Neutral	Neutral	hit	n/a
446.29	n/a	RESPONSE	n/a	n/a	n/a	n/a	n/a	n/a	n/a	yellow
446.3137	1.0167	ITI	n/a	n/a	n/a	n/a	n/a	n/a	n/a	n/a
447.3304	0.5167	FIXCROSS	n/a	n/a	n/a	n/a	n/a	n/a	n/a	n/a
447.8471	0.7667	COLOR_NAME	63	Incongruent	czerwony	red	niebieski	blue	hit	n/a
448.5934	n/a	RESPONSE	n/a	n/a	n/a	n/a	n/a	n/a	n/a	red
448.6137	1.0167	ITI	n/a	n/a	n/a	n/a	n/a	n/a	n/a	n/a
449.6304	0.5167	FIXCROSS	n/a	n/a	n/a	n/a	n/a	n/a	n/a	n/a
450.1471	0.7333	COLOR_NAME	64	Neutral	czerwony	red	Neutral	Neutral	hit	n/a
450.849	n/a	RESPONSE	n/a	n/a	n/a	n/a	n/a	n/a	n/a	red
450.8804	1.0167	ITI	n/a	n/a	n/a	n/a	n/a	n/a	n/a	n/a
451.8971	0.5167	FIXCROSS	n/a	n/a	n/a	n/a	n/a	n/a	n/a	n/a
452.4138	1.25	COLOR_NAME	65	Incongruent	niebieski	blue	czerwony	red	hit	n/a
453.6324	n/a	RESPONSE	n/a	n/a	n/a	n/a	n/a	n/a	n/a	blue
453.6638	1.0167	ITI	n/a	n/a	n/a	n/a	n/a	n/a	n/a	n/a
454.6804	0.5167	FIXCROSS	n/a	n/a	n/a	n/a	n/a	n/a	n/a	n/a
455.1971	0.7	COLOR_NAME	66	Neutral	niebieski	blue	Neutral	Neutral	hit	n/a
455.872	n/a	RESPONSE	n/a	n/a	n/a	n/a	n/a	n/a	n/a	blue
455.8971	1.0167	ITI	n/a	n/a	n/a	n/a	n/a	n/a	n/a	n/a
456.9138	0.5167	FIXCROSS	n/a	n/a	n/a	n/a	n/a	n/a	n/a	n/a
457.4305	1.3333	COLOR_NAME	67	Neutral	zielony	green	Neutral	Neutral	hit	n/a
458.7353	n/a	RESPONSE	n/a	n/a	n/a	n/a	n/a	n/a	n/a	green
458.7638	1.0167	ITI	n/a	n/a	n/a	n/a	n/a	n/a	n/a	n/a
459.7805	0.5167	FIXCROSS	n/a	n/a	n/a	n/a	n/a	n/a	n/a	n/a
460.2972	1.8333	COLOR_NAME	68	Incongruent	żółty	yellow	zielony	green	hit	n/a
462.1106	n/a	RESPONSE	n/a	n/a	n/a	n/a	n/a	n/a	n/a	yellow
462.1305	1.0167	ITI	n/a	n/a	n/a	n/a	n/a	n/a	n/a	n/a
463.1472	0.5167	FIXCROSS	n/a	n/a	n/a	n/a	n/a	n/a	n/a	n/a
463.6638	0.95	COLOR_NAME	69	Neutral	zielony	green	Neutral	Neutral	hit	n/a
464.59	n/a	RESPONSE	n/a	n/a	n/a	n/a	n/a	n/a	n/a	green
464.6138	1.0167	ITI	n/a	n/a	n/a	n/a	n/a	n/a	n/a	n/a
465.6305	0.5167	FIXCROSS	n/a	n/a	n/a	n/a	n/a	n/a	n/a	n/a
466.1472	1.8	COLOR_NAME	70	Incongruent	żółty	yellow	czerwony	red	incorrect	n/a
467.9174	n/a	RESPONSE	n/a	n/a	n/a	n/a	n/a	n/a	n/a	red
467.9472	1.0167	ITI	n/a	n/a	n/a	n/a	n/a	n/a	n/a	n/a
468.9639	0.5167	FIXCROSS	n/a	n/a	n/a	n/a	n/a	n/a	n/a	n/a
469.4805	1.65	COLOR_NAME	71	Neutral	niebieski	blue	Neutral	Neutral	hit	n/a
471.1008	n/a	RESPONSE	n/a	n/a	n/a	n/a	n/a	n/a	n/a	blue
471.1305	1.0167	ITI	n/a	n/a	n/a	n/a	n/a	n/a	n/a	n/a
472.1472	0.5167	FIXCROSS	n/a	n/a	n/a	n/a	n/a	n/a	n/a	n/a
472.6639	0.9167	COLOR_NAME	72	Neutral	żółty	yellow	Neutral	Neutral	hit	n/a
473.5482	n/a	RESPONSE	n/a	n/a	n/a	n/a	n/a	n/a	n/a	yellow
473.5806	1.0333	ITI	n/a	n/a	n/a	n/a	n/a	n/a	n/a	n/a
478.4272	n/a	RESPONSE	n/a	n/a	n/a	n/a	n/a	n/a	n/a	n/a
