onset	duration	trial_type	melody_number	melody_part	key	sound	action
0.0	14.088	CUE_START	n/a	n/a	n/a	n/a	n/a
14.089	7.76	FIXCROSS	n/a	n/a	n/a	n/a	n/a
21.848	6.316	CUE_LISTEN	M1	1	n/a	n/a	n/a
27.588	n/a	RESPONSE	M1	1	19	G4	press
28.011	n/a	RESPONSE	M1	1	19	G4	release
28.164	7.758	FIXCROSS	n/a	n/a	n/a	n/a	n/a
28.182	n/a	RESPONSE	M1	1	16	E4	press
28.553	n/a	RESPONSE	M1	1	16	E4	release
28.704	n/a	RESPONSE	M1	1	16	E4	press
29.216	n/a	RESPONSE	M1	1	16	E4	release
29.417	n/a	RESPONSE	M1	1	17	F4	press
29.813	n/a	RESPONSE	M1	1	17	F4	release
29.953	n/a	RESPONSE	M1	1	14	D4	press
30.396	n/a	RESPONSE	M1	1	14	D4	release
30.472	n/a	RESPONSE	M1	1	14	D4	press
30.891	n/a	RESPONSE	M1	1	14	D4	release
30.921	n/a	RESPONSE	M1	1	12	C4	press
31.163	n/a	RESPONSE	M1	1	12	C4	release
31.192	n/a	RESPONSE	M1	1	16	E4	press
31.436	n/a	RESPONSE	M1	1	16	E4	release
31.446	n/a	RESPONSE	M1	1	19	G4	press
31.773	n/a	RESPONSE	M1	1	19	G4	release
35.922	6.317	CUE_PLAYBACK_RIGHT_HAND	M1	1	n/a	n/a	n/a
36.832	n/a	RESPONSE	M1	1	19	G4	press
37.203	n/a	RESPONSE	M1	1	19	G4	release
37.384	n/a	RESPONSE	M1	1	16	E4	press
37.727	n/a	RESPONSE	M1	1	16	E4	release
37.938	n/a	RESPONSE	M1	1	16	E4	press
38.272	n/a	RESPONSE	M1	1	16	E4	release
38.461	n/a	RESPONSE	M1	1	17	F4	press
38.804	n/a	RESPONSE	M1	1	17	F4	release
39.003	n/a	RESPONSE	M1	1	14	D4	press
39.334	n/a	RESPONSE	M1	1	14	D4	release
39.547	n/a	RESPONSE	M1	1	14	D4	press
39.989	n/a	RESPONSE	M1	1	14	D4	release
40.114	n/a	RESPONSE	M1	1	12	C4	press
40.121	n/a	RESPONSE	M1	1	11	B3	press
40.273	n/a	RESPONSE	M1	1	11	B3	release
40.307	n/a	RESPONSE	M1	1	12	C4	release
40.406	n/a	RESPONSE	M1	1	16	E4	press
40.623	n/a	RESPONSE	M1	1	16	E4	release
40.653	n/a	RESPONSE	M1	1	19	G4	press
41.469	n/a	RESPONSE	M1	1	19	G4	release
42.239	7.758	FIXCROSS	n/a	n/a	n/a	n/a	n/a
49.997	6.325	CUE_LISTEN	M1	2	n/a	n/a	n/a
56.322	7.758	FIXCROSS	n/a	n/a	n/a	n/a	n/a
64.08	6.317	CUE_PLAYBACK_RIGHT_HAND	M1	2	n/a	n/a	n/a
65.254	n/a	RESPONSE	M1	2	19	G4	press
65.664	n/a	RESPONSE	M1	2	19	G4	release
65.828	n/a	RESPONSE	M1	2	16	E4	press
66.337	n/a	RESPONSE	M1	2	16	E4	release
66.428	n/a	RESPONSE	M1	2	16	E4	press
66.799	n/a	RESPONSE	M1	2	16	E4	release
67.081	n/a	RESPONSE	M1	2	17	F4	press
67.502	n/a	RESPONSE	M1	2	17	F4	release
67.694	n/a	RESPONSE	M1	2	14	D4	press
68.156	n/a	RESPONSE	M1	2	14	D4	release
68.317	n/a	RESPONSE	M1	2	14	D4	press
68.798	n/a	RESPONSE	M1	2	14	D4	release
69.039	n/a	RESPONSE	M1	2	12	C4	press
69.261	n/a	RESPONSE	M1	2	12	C4	release
69.392	n/a	RESPONSE	M1	2	16	E4	press
69.654	n/a	RESPONSE	M1	2	16	E4	release
69.817	n/a	RESPONSE	M1	2	12	C4	press
70.397	7.758	FIXCROSS	n/a	n/a	n/a	n/a	n/a
70.918	n/a	RESPONSE	M1	2	12	C4	release
78.156	6.317	CUE_LISTEN	M1	1	n/a	n/a	n/a
84.472	7.758	FIXCROSS	n/a	n/a	n/a	n/a	n/a
92.23	6.333	CUE_PLAYBACK_BOTH_HANDS	M1	1	n/a	n/a	n/a
93.003	n/a	RESPONSE	M1	1	07	G3	press
93.007	n/a	RESPONSE	M1	1	19	G4	press
93.416	n/a	RESPONSE	M1	1	19	G4	release
93.467	n/a	RESPONSE	M1	1	07	G3	release
93.639	n/a	RESPONSE	M1	1	04	E3	press
93.642	n/a	RESPONSE	M1	1	16	E4	press
94.031	n/a	RESPONSE	M1	1	16	E4	release
94.212	n/a	RESPONSE	M1	1	16	E4	press
94.553	n/a	RESPONSE	M1	1	16	E4	release
94.644	n/a	RESPONSE	M1	1	04	E3	release
94.786	n/a	RESPONSE	M1	1	17	F4	press
94.788	n/a	RESPONSE	M1	1	05	F3	press
95.148	n/a	RESPONSE	M1	1	17	F4	release
95.189	n/a	RESPONSE	M1	1	05	F3	release
95.322	n/a	RESPONSE	M1	1	02	D3	press
95.344	n/a	RESPONSE	M1	1	14	D4	press
95.743	n/a	RESPONSE	M1	1	14	D4	release
95.924	n/a	RESPONSE	M1	1	14	D4	press
96.206	n/a	RESPONSE	M1	1	02	D3	release
96.317	n/a	RESPONSE	M1	1	14	D4	release
96.448	n/a	RESPONSE	M1	1	00	C3	press
96.472	n/a	RESPONSE	M1	1	12	C4	press
96.701	n/a	RESPONSE	M1	1	12	C4	release
96.722	n/a	RESPONSE	M1	1	00	C3	release
96.733	n/a	RESPONSE	M1	1	04	E3	press
96.744	n/a	RESPONSE	M1	1	16	E4	press
96.946	n/a	RESPONSE	M1	1	16	E4	release
96.967	n/a	RESPONSE	M1	1	04	E3	release
97.018	n/a	RESPONSE	M1	1	19	G4	press
97.029	n/a	RESPONSE	M1	1	07	G3	press
97.722	n/a	RESPONSE	M1	1	07	G3	release
97.744	n/a	RESPONSE	M1	1	19	G4	release
98.564	7.758	FIXCROSS	n/a	n/a	n/a	n/a	n/a
106.322	6.308	CUE_LISTEN	M1	2	n/a	n/a	n/a
112.63	7.758	FIXCROSS	n/a	n/a	n/a	n/a	n/a
120.389	6.317	CUE_PLAYBACK_BOTH_HANDS	M1	2	n/a	n/a	n/a
121.233	n/a	RESPONSE	M1	2	07	G3	press
121.244	n/a	RESPONSE	M1	2	19	G4	press
121.617	n/a	RESPONSE	M1	2	07	G3	release
121.624	n/a	RESPONSE	M1	2	19	G4	release
121.799	n/a	RESPONSE	M1	2	04	E3	press
121.802	n/a	RESPONSE	M1	2	16	E4	press
122.222	n/a	RESPONSE	M1	2	16	E4	release
122.379	n/a	RESPONSE	M1	2	16	E4	press
122.758	n/a	RESPONSE	M1	2	16	E4	release
122.789	n/a	RESPONSE	M1	2	04	E3	release
122.952	n/a	RESPONSE	M1	2	17	F4	press
122.954	n/a	RESPONSE	M1	2	05	F3	press
123.322	n/a	RESPONSE	M1	2	17	F4	release
123.35	n/a	RESPONSE	M1	2	05	F3	release
123.502	n/a	RESPONSE	M1	2	02	D3	press
123.513	n/a	RESPONSE	M1	2	14	D4	press
123.524	n/a	RESPONSE	M1	2	16	E4	press
123.726	n/a	RESPONSE	M1	2	16	E4	release
124.029	n/a	RESPONSE	M1	2	02	D3	release
124.038	n/a	RESPONSE	M1	2	14	D4	release
124.119	n/a	RESPONSE	M1	2	02	D3	press
124.122	n/a	RESPONSE	M1	2	14	D4	press
124.414	n/a	RESPONSE	M1	2	02	D3	release
124.593	n/a	RESPONSE	M1	2	14	D4	release
124.744	n/a	RESPONSE	M1	2	00	C3	press
124.747	n/a	RESPONSE	M1	2	12	C4	press
124.977	n/a	RESPONSE	M1	2	12	C4	release
125.01	n/a	RESPONSE	M1	2	00	C3	release
125.02	n/a	RESPONSE	M1	2	16	E4	press
125.03	n/a	RESPONSE	M1	2	04	E3	press
125.253	n/a	RESPONSE	M1	2	04	E3	release
125.256	n/a	RESPONSE	M1	2	16	E4	release
125.276	n/a	RESPONSE	M1	2	12	C4	press
125.317	n/a	RESPONSE	M1	2	00	C3	press
126.328	n/a	RESPONSE	M1	2	12	C4	release
126.35	n/a	RESPONSE	M1	2	00	C3	release
126.706	7.758	FIXCROSS	n/a	n/a	n/a	n/a	n/a
134.464	6.325	CUE_LISTEN	M1	1	n/a	n/a	n/a
140.789	7.758	FIXCROSS	n/a	n/a	n/a	n/a	n/a
148.547	6.317	CUE_PLAYBACK_RIGHT_HAND	M1	1	n/a	n/a	n/a
149.339	n/a	RESPONSE	M1	1	19	G4	press
149.754	n/a	RESPONSE	M1	1	19	G4	release
149.926	n/a	RESPONSE	M1	1	16	E4	press
150.347	n/a	RESPONSE	M1	1	16	E4	release
150.502	n/a	RESPONSE	M1	1	16	E4	press
150.868	n/a	RESPONSE	M1	1	16	E4	release
151.089	n/a	RESPONSE	M1	1	17	F4	press
151.504	n/a	RESPONSE	M1	1	17	F4	release
151.649	n/a	RESPONSE	M1	1	14	D4	press
151.992	n/a	RESPONSE	M1	1	14	D4	release
152.228	n/a	RESPONSE	M1	1	14	D4	press
152.692	n/a	RESPONSE	M1	1	14	D4	release
152.899	n/a	RESPONSE	M1	1	12	C4	press
153.176	n/a	RESPONSE	M1	1	12	C4	release
153.208	n/a	RESPONSE	M1	1	16	E4	press
153.44	n/a	RESPONSE	M1	1	16	E4	release
153.509	n/a	RESPONSE	M1	1	19	G4	press
154.42	n/a	RESPONSE	M1	1	19	G4	release
154.864	7.758	FIXCROSS	n/a	n/a	n/a	n/a	n/a
162.622	6.317	CUE_LISTEN	M1	2	n/a	n/a	n/a
168.939	7.758	FIXCROSS	n/a	n/a	n/a	n/a	n/a
176.697	6.325	CUE_PLAYBACK_RIGHT_HAND	M1	2	n/a	n/a	n/a
177.469	n/a	RESPONSE	M1	2	19	G4	press
177.883	n/a	RESPONSE	M1	2	19	G4	release
178.074	n/a	RESPONSE	M1	2	16	E4	press
178.454	n/a	RESPONSE	M1	2	16	E4	release
178.646	n/a	RESPONSE	M1	2	16	E4	press
179.027	n/a	RESPONSE	M1	2	16	E4	release
179.198	n/a	RESPONSE	M1	2	17	F4	press
179.582	n/a	RESPONSE	M1	2	17	F4	release
179.794	n/a	RESPONSE	M1	2	14	D4	press
180.264	n/a	RESPONSE	M1	2	14	D4	release
180.346	n/a	RESPONSE	M1	2	14	D4	press
180.868	n/a	RESPONSE	M1	2	14	D4	release
180.926	n/a	RESPONSE	M1	2	12	C4	press
181.149	n/a	RESPONSE	M1	2	12	C4	release
181.217	n/a	RESPONSE	M1	2	16	E4	press
181.567	n/a	RESPONSE	M1	2	12	C4	press
181.572	n/a	RESPONSE	M1	2	16	E4	release
182.788	n/a	RESPONSE	M1	2	12	C4	release
183.022	7.758	FIXCROSS	n/a	n/a	n/a	n/a	n/a
190.781	6.317	CUE_LISTEN	M1	1	n/a	n/a	n/a
197.097	7.758	FIXCROSS	n/a	n/a	n/a	n/a	n/a
204.856	6.317	CUE_PLAYBACK_BOTH_HANDS	M1	1	n/a	n/a	n/a
205.703	n/a	RESPONSE	M1	1	07	G3	press
205.724	n/a	RESPONSE	M1	1	19	G4	press
206.186	n/a	RESPONSE	M1	1	19	G4	release
206.197	n/a	RESPONSE	M1	1	07	G3	release
206.318	n/a	RESPONSE	M1	1	04	E3	press
206.329	n/a	RESPONSE	M1	1	16	E4	press
206.74	n/a	RESPONSE	M1	1	16	E4	release
206.922	n/a	RESPONSE	M1	1	16	E4	press
207.333	n/a	RESPONSE	M1	1	16	E4	release
207.474	n/a	RESPONSE	M1	1	04	E3	release
207.515	n/a	RESPONSE	M1	1	05	F3	press
207.518	n/a	RESPONSE	M1	1	17	F4	press
207.949	n/a	RESPONSE	M1	1	17	F4	release
207.983	n/a	RESPONSE	M1	1	05	F3	release
208.092	n/a	RESPONSE	M1	1	02	D3	press
208.123	n/a	RESPONSE	M1	1	14	D4	press
208.584	n/a	RESPONSE	M1	1	14	D4	release
208.725	n/a	RESPONSE	M1	1	14	D4	press
209.027	n/a	RESPONSE	M1	1	02	D3	release
209.178	n/a	RESPONSE	M1	1	14	D4	release
209.299	n/a	RESPONSE	M1	1	00	C3	press
209.33	n/a	RESPONSE	M1	1	12	C4	press
209.542	n/a	RESPONSE	M1	1	12	C4	release
209.589	n/a	RESPONSE	M1	1	16	E4	press
209.6	n/a	RESPONSE	M1	1	04	E3	press
209.627	n/a	RESPONSE	M1	1	00	C3	release
209.834	n/a	RESPONSE	M1	1	16	E4	release
209.894	n/a	RESPONSE	M1	1	04	E3	release
209.897	n/a	RESPONSE	M1	1	19	G4	press
209.903	n/a	RESPONSE	M1	1	07	G3	press
210.742	n/a	RESPONSE	M1	1	19	G4	release
211.138	n/a	RESPONSE	M1	1	07	G3	release
211.172	7.758	FIXCROSS	n/a	n/a	n/a	n/a	n/a
218.931	6.325	CUE_LISTEN	M1	2	n/a	n/a	n/a
225.256	7.758	FIXCROSS	n/a	n/a	n/a	n/a	n/a
233.014	6.317	CUE_PLAYBACK_BOTH_HANDS	M1	2	n/a	n/a	n/a
233.808	n/a	RESPONSE	M1	2	07	G3	press
233.817	n/a	RESPONSE	M1	2	19	G4	press
234.238	n/a	RESPONSE	M1	2	19	G4	release
234.249	n/a	RESPONSE	M1	2	07	G3	release
234.373	n/a	RESPONSE	M1	2	04	E3	press
234.382	n/a	RESPONSE	M1	2	16	E4	press
234.843	n/a	RESPONSE	M1	2	16	E4	release
234.994	n/a	RESPONSE	M1	2	16	E4	press
235.385	n/a	RESPONSE	M1	2	16	E4	release
235.497	n/a	RESPONSE	M1	2	04	E3	release
235.558	n/a	RESPONSE	M1	2	05	F3	press
235.56	n/a	RESPONSE	M1	2	17	F4	press
235.98	n/a	RESPONSE	M1	2	17	F4	release
235.992	n/a	RESPONSE	M1	2	05	F3	release
236.123	n/a	RESPONSE	M1	2	02	D3	press
236.144	n/a	RESPONSE	M1	2	14	D4	press
236.596	n/a	RESPONSE	M1	2	14	D4	release
236.617	n/a	RESPONSE	M1	2	02	D3	release
236.748	n/a	RESPONSE	M1	2	02	D3	press
236.769	n/a	RESPONSE	M1	2	14	D4	press
237.042	n/a	RESPONSE	M1	2	02	D3	release
237.202	n/a	RESPONSE	M1	2	14	D4	release
237.343	n/a	RESPONSE	M1	2	00	C3	press
237.347	n/a	RESPONSE	M1	2	12	C4	press
237.596	n/a	RESPONSE	M1	2	12	C4	release
237.619	n/a	RESPONSE	M1	2	00	C3	release
237.649	n/a	RESPONSE	M1	2	04	E3	press
237.67	n/a	RESPONSE	M1	2	16	E4	press
237.912	n/a	RESPONSE	M1	2	16	E4	release
237.914	n/a	RESPONSE	M1	2	04	E3	release
237.957	n/a	RESPONSE	M1	2	12	C4	press
237.967	n/a	RESPONSE	M1	2	00	C3	press
239.117	n/a	RESPONSE	M1	2	00	C3	release
239.22	n/a	RESPONSE	M1	2	12	C4	release
239.331	7.758	FIXCROSS	n/a	n/a	n/a	n/a	n/a
247.089	6.325	CUE_LISTEN	M1	1	n/a	n/a	n/a
253.414	7.758	FIXCROSS	n/a	n/a	n/a	n/a	n/a
261.172	6.317	CUE_PLAYBACK_RIGHT_HAND	M1	1	n/a	n/a	n/a
261.847	n/a	RESPONSE	M1	1	19	G4	press
262.322	n/a	RESPONSE	M1	1	19	G4	release
262.445	n/a	RESPONSE	M1	1	16	E4	press
262.923	n/a	RESPONSE	M1	1	16	E4	release
263.052	n/a	RESPONSE	M1	1	16	E4	press
263.44	n/a	RESPONSE	M1	1	16	E4	release
263.604	n/a	RESPONSE	M1	1	17	F4	press
264.103	n/a	RESPONSE	M1	1	17	F4	release
264.174	n/a	RESPONSE	M1	1	14	D4	press
264.575	n/a	RESPONSE	M1	1	14	D4	release
264.719	n/a	RESPONSE	M1	1	14	D4	press
265.178	n/a	RESPONSE	M1	1	14	D4	release
265.359	n/a	RESPONSE	M1	1	12	C4	press
265.632	n/a	RESPONSE	M1	1	16	E4	press
265.642	n/a	RESPONSE	M1	1	12	C4	release
265.913	n/a	RESPONSE	M1	1	16	E4	release
265.944	n/a	RESPONSE	M1	1	19	G4	press
266.647	n/a	RESPONSE	M1	1	19	G4	release
267.489	7.758	FIXCROSS	n/a	n/a	n/a	n/a	n/a
275.248	6.317	CUE_LISTEN	M1	2	n/a	n/a	n/a
281.564	7.758	FIXCROSS	n/a	n/a	n/a	n/a	n/a
289.322	6.325	CUE_PLAYBACK_RIGHT_HAND	M1	2	n/a	n/a	n/a
290.078	n/a	RESPONSE	M1	2	19	G4	press
290.44	n/a	RESPONSE	M1	2	19	G4	release
290.645	n/a	RESPONSE	M1	2	16	E4	press
291.004	n/a	RESPONSE	M1	2	16	E4	release
291.153	n/a	RESPONSE	M1	2	16	E4	press
291.487	n/a	RESPONSE	M1	2	16	E4	release
291.658	n/a	RESPONSE	M1	2	17	F4	press
291.992	n/a	RESPONSE	M1	2	17	F4	release
292.208	n/a	RESPONSE	M1	2	14	D4	press
292.624	n/a	RESPONSE	M1	2	14	D4	release
292.752	n/a	RESPONSE	M1	2	14	D4	press
293.275	n/a	RESPONSE	M1	2	14	D4	release
293.327	n/a	RESPONSE	M1	2	12	C4	press
293.539	n/a	RESPONSE	M1	2	12	C4	release
293.599	n/a	RESPONSE	M1	2	16	E4	press
293.862	n/a	RESPONSE	M1	2	16	E4	release
293.874	n/a	RESPONSE	M1	2	12	C4	press
294.875	n/a	RESPONSE	M1	2	12	C4	release
295.648	7.758	FIXCROSS	n/a	n/a	n/a	n/a	n/a
303.406	6.317	CUE_LISTEN	M1	1	n/a	n/a	n/a
309.722	7.758	FIXCROSS	n/a	n/a	n/a	n/a	n/a
317.481	6.317	CUE_PLAYBACK_BOTH_HANDS	M1	1	n/a	n/a	n/a
318.172	n/a	RESPONSE	M1	1	19	G4	press
318.194	n/a	RESPONSE	M1	1	07	G3	press
318.634	n/a	RESPONSE	M1	1	19	G4	release
318.655	n/a	RESPONSE	M1	1	07	G3	release
318.807	n/a	RESPONSE	M1	1	04	E3	press
318.809	n/a	RESPONSE	M1	1	16	E4	press
319.269	n/a	RESPONSE	M1	1	16	E4	release
319.44	n/a	RESPONSE	M1	1	16	E4	press
319.86	n/a	RESPONSE	M1	1	16	E4	release
319.958	n/a	RESPONSE	M1	1	04	E3	release
320.053	n/a	RESPONSE	M1	1	05	F3	press
320.055	n/a	RESPONSE	M1	1	17	F4	press
320.57	n/a	RESPONSE	M1	1	05	F3	release
320.583	n/a	RESPONSE	M1	1	17	F4	release
320.7	n/a	RESPONSE	M1	1	02	D3	press
320.714	n/a	RESPONSE	M1	1	14	D4	press
321.195	n/a	RESPONSE	M1	1	14	D4	release
321.244	n/a	RESPONSE	M1	1	02	D3	release
321.322	n/a	RESPONSE	M1	1	02	D3	press
321.332	n/a	RESPONSE	M1	1	14	D4	press
321.734	n/a	RESPONSE	M1	1	02	D3	release
321.842	n/a	RESPONSE	M1	1	14	D4	release
321.977	n/a	RESPONSE	M1	1	12	C4	press
321.98	n/a	RESPONSE	M1	1	00	C3	press
322.23	n/a	RESPONSE	M1	1	12	C4	release
322.328	n/a	RESPONSE	M1	1	16	E4	press
322.33	n/a	RESPONSE	M1	1	04	E3	press
322.343	n/a	RESPONSE	M1	1	00	C3	release
322.637	n/a	RESPONSE	M1	1	16	E4	release
322.685	n/a	RESPONSE	M1	1	19	G4	press
322.689	n/a	RESPONSE	M1	1	07	G3	press
322.714	n/a	RESPONSE	M1	1	04	E3	release
323.662	n/a	RESPONSE	M1	1	19	G4	release
323.798	7.758	FIXCROSS	n/a	n/a	n/a	n/a	n/a
323.87	n/a	RESPONSE	M1	1	07	G3	release
331.556	6.325	CUE_LISTEN	M1	2	n/a	n/a	n/a
337.881	7.758	FIXCROSS	n/a	n/a	n/a	n/a	n/a
345.639	6.317	CUE_PLAYBACK_BOTH_HANDS	M1	2	n/a	n/a	n/a
346.202	n/a	RESPONSE	M1	2	19	G4	press
346.204	n/a	RESPONSE	M1	2	07	G3	press
346.624	n/a	RESPONSE	M1	2	19	G4	release
346.695	n/a	RESPONSE	M1	2	07	G3	release
346.767	n/a	RESPONSE	M1	2	04	E3	press
346.778	n/a	RESPONSE	M1	2	16	E4	press
347.159	n/a	RESPONSE	M1	2	16	E4	release
347.23	n/a	RESPONSE	M1	2	04	E3	release
347.354	n/a	RESPONSE	M1	2	04	E3	press
347.373	n/a	RESPONSE	M1	2	16	E4	press
347.735	n/a	RESPONSE	M1	2	16	E4	release
347.846	n/a	RESPONSE	M1	2	04	E3	release
347.908	n/a	RESPONSE	M1	2	05	F3	press
347.922	n/a	RESPONSE	M1	2	17	F4	press
348.372	n/a	RESPONSE	M1	2	17	F4	release
348.402	n/a	RESPONSE	M1	2	05	F3	release
348.455	n/a	RESPONSE	M1	2	02	D3	press
348.484	n/a	RESPONSE	M1	2	14	D4	press
348.865	n/a	RESPONSE	M1	2	14	D4	release
348.957	n/a	RESPONSE	M1	2	02	D3	release
349.008	n/a	RESPONSE	M1	2	02	D3	press
349.022	n/a	RESPONSE	M1	2	14	D4	press
349.4	n/a	RESPONSE	M1	2	02	D3	release
349.498	n/a	RESPONSE	M1	2	14	D4	release
349.558	n/a	RESPONSE	M1	2	00	C3	press
349.563	n/a	RESPONSE	M1	2	12	C4	press
349.792	n/a	RESPONSE	M1	2	12	C4	release
349.84	n/a	RESPONSE	M1	2	00	C3	release
349.859	n/a	RESPONSE	M1	2	04	E3	press
349.874	n/a	RESPONSE	M1	2	16	E4	press
350.093	n/a	RESPONSE	M1	2	04	E3	release
350.108	n/a	RESPONSE	M1	2	12	C4	press
350.115	n/a	RESPONSE	M1	2	16	E4	release
350.128	n/a	RESPONSE	M1	2	00	C3	press
351.235	n/a	RESPONSE	M1	2	00	C3	release
351.327	n/a	RESPONSE	M1	2	12	C4	release
351.956	7.758	FIXCROSS	n/a	n/a	n/a	n/a	n/a
359.714	6.317	CUE_LISTEN	M1	1	n/a	n/a	n/a
366.031	7.758	FIXCROSS	n/a	n/a	n/a	n/a	n/a
373.789	6.325	CUE_PLAYBACK_RIGHT_HAND	M1	1	n/a	n/a	n/a
374.415	n/a	RESPONSE	M1	1	19	G4	press
374.805	n/a	RESPONSE	M1	1	19	G4	release
374.987	n/a	RESPONSE	M1	1	16	E4	press
375.369	n/a	RESPONSE	M1	1	16	E4	release
375.509	n/a	RESPONSE	M1	1	16	E4	press
375.92	n/a	RESPONSE	M1	1	16	E4	release
376.052	n/a	RESPONSE	M1	1	17	F4	press
376.493	n/a	RESPONSE	M1	1	17	F4	release
376.586	n/a	RESPONSE	M1	1	14	D4	press
376.987	n/a	RESPONSE	M1	1	14	D4	release
377.116	n/a	RESPONSE	M1	1	14	D4	press
377.689	n/a	RESPONSE	M1	1	14	D4	release
377.71	n/a	RESPONSE	M1	1	12	C4	press
377.964	n/a	RESPONSE	M1	1	16	E4	press
377.973	n/a	RESPONSE	M1	1	12	C4	release
378.294	n/a	RESPONSE	M1	1	19	G4	press
378.305	n/a	RESPONSE	M1	1	16	E4	release
379.086	n/a	RESPONSE	M1	1	19	G4	release
380.114	7.758	FIXCROSS	n/a	n/a	n/a	n/a	n/a
387.873	6.317	CUE_LISTEN	M1	2	n/a	n/a	n/a
394.189	7.758	FIXCROSS	n/a	n/a	n/a	n/a	n/a
401.948	6.317	CUE_PLAYBACK_RIGHT_HAND	M1	2	n/a	n/a	n/a
402.585	n/a	RESPONSE	M1	2	19	G4	press
403.008	n/a	RESPONSE	M1	2	19	G4	release
403.138	n/a	RESPONSE	M1	2	16	E4	press
403.619	n/a	RESPONSE	M1	2	16	E4	release
403.7	n/a	RESPONSE	M1	2	16	E4	press
404.102	n/a	RESPONSE	M1	2	16	E4	release
404.283	n/a	RESPONSE	M1	2	17	F4	press
404.804	n/a	RESPONSE	M1	2	17	F4	release
404.875	n/a	RESPONSE	M1	2	14	D4	press
405.338	n/a	RESPONSE	M1	2	14	D4	release
405.44	n/a	RESPONSE	M1	2	14	D4	press
406.029	n/a	RESPONSE	M1	2	12	C4	press
406.24	n/a	RESPONSE	M1	2	14	D4	release
406.292	n/a	RESPONSE	M1	2	12	C4	release
406.303	n/a	RESPONSE	M1	2	16	E4	press
406.624	n/a	RESPONSE	M1	2	12	C4	press
406.665	n/a	RESPONSE	M1	2	16	E4	release
407.608	n/a	RESPONSE	M1	2	12	C4	release
408.264	7.758	FIXCROSS	n/a	n/a	n/a	n/a	n/a
416.023	6.325	CUE_LISTEN	M1	1	n/a	n/a	n/a
422.348	7.758	FIXCROSS	n/a	n/a	n/a	n/a	n/a
430.106	6.317	CUE_PLAYBACK_BOTH_HANDS	M1	1	n/a	n/a	n/a
431.233	n/a	RESPONSE	M1	1	07	G3	press
431.235	n/a	RESPONSE	M1	1	19	G4	press
431.69	n/a	RESPONSE	M1	1	19	G4	release
431.826	n/a	RESPONSE	M1	1	04	E3	press
431.83	n/a	RESPONSE	M1	1	16	E4	press
431.859	n/a	RESPONSE	M1	1	07	G3	release
432.283	n/a	RESPONSE	M1	1	16	E4	release
432.416	n/a	RESPONSE	M1	1	16	E4	press
432.86	n/a	RESPONSE	M1	1	16	E4	release
432.93	n/a	RESPONSE	M1	1	04	E3	release
432.958	n/a	RESPONSE	M1	1	05	F3	press
432.97	n/a	RESPONSE	M1	1	17	F4	press
433.478	n/a	RESPONSE	M1	1	17	F4	release
433.496	n/a	RESPONSE	M1	1	05	F3	release
433.538	n/a	RESPONSE	M1	1	02	D3	press
433.549	n/a	RESPONSE	M1	1	14	D4	press
434.03	n/a	RESPONSE	M1	1	14	D4	release
434.033	n/a	RESPONSE	M1	1	02	D3	release
434.104	n/a	RESPONSE	M1	1	02	D3	press
434.128	n/a	RESPONSE	M1	1	14	D4	press
434.476	n/a	RESPONSE	M1	1	02	D3	release
434.628	n/a	RESPONSE	M1	1	14	D4	release
434.659	n/a	RESPONSE	M1	1	00	C3	press
434.71	n/a	RESPONSE	M1	1	12	C4	press
434.943	n/a	RESPONSE	M1	1	12	C4	release
434.993	n/a	RESPONSE	M1	1	04	E3	press
435.004	n/a	RESPONSE	M1	1	16	E4	press
435.065	n/a	RESPONSE	M1	1	00	C3	release
435.308	n/a	RESPONSE	M1	1	16	E4	release
435.318	n/a	RESPONSE	M1	1	07	G3	press
435.32	n/a	RESPONSE	M1	1	19	G4	press
435.36	n/a	RESPONSE	M1	1	04	E3	release
436.412	n/a	RESPONSE	M1	1	19	G4	release
436.423	7.758	FIXCROSS	n/a	n/a	n/a	n/a	n/a
436.953	n/a	RESPONSE	M1	1	07	G3	release
444.181	6.317	CUE_LISTEN	M1	2	n/a	n/a	n/a
450.498	7.758	FIXCROSS	n/a	n/a	n/a	n/a	n/a
458.256	6.325	CUE_PLAYBACK_BOTH_HANDS	M1	2	n/a	n/a	n/a
459.0	n/a	RESPONSE	M1	2	07	G3	press
459.003	n/a	RESPONSE	M1	2	19	G4	press
459.433	n/a	RESPONSE	M1	2	19	G4	release
459.493	n/a	RESPONSE	M1	2	07	G3	release
459.579	n/a	RESPONSE	M1	2	16	E4	press
459.582	n/a	RESPONSE	M1	2	04	E3	press
460.028	n/a	RESPONSE	M1	2	16	E4	release
460.148	n/a	RESPONSE	M1	2	16	E4	press
460.608	n/a	RESPONSE	M1	2	16	E4	release
460.614	n/a	RESPONSE	M1	2	04	E3	release
460.699	n/a	RESPONSE	M1	2	17	F4	press
460.715	n/a	RESPONSE	M1	2	05	F3	press
461.116	n/a	RESPONSE	M1	2	17	F4	release
461.17	n/a	RESPONSE	M1	2	05	F3	release
461.272	n/a	RESPONSE	M1	2	02	D3	press
461.296	n/a	RESPONSE	M1	2	14	D4	press
461.722	n/a	RESPONSE	M1	2	02	D3	release
461.76	n/a	RESPONSE	M1	2	14	D4	release
461.836	n/a	RESPONSE	M1	2	02	D3	press
461.862	n/a	RESPONSE	M1	2	14	D4	press
462.28	n/a	RESPONSE	M1	2	02	D3	release
462.433	n/a	RESPONSE	M1	2	14	D4	release
462.46	n/a	RESPONSE	M1	2	00	C3	press
462.478	n/a	RESPONSE	M1	2	12	C4	press
462.723	n/a	RESPONSE	M1	2	12	C4	release
462.74	n/a	RESPONSE	M1	2	04	E3	press
462.76	n/a	RESPONSE	M1	2	16	E4	press
462.806	n/a	RESPONSE	M1	2	00	C3	release
462.988	n/a	RESPONSE	M1	2	04	E3	release
463.029	n/a	RESPONSE	M1	2	16	E4	release
463.079	n/a	RESPONSE	M1	2	00	C3	press
463.082	n/a	RESPONSE	M1	2	12	C4	press
464.052	n/a	RESPONSE	M1	2	00	C3	release
464.103	n/a	RESPONSE	M1	2	12	C4	release
464.581	7.758	FIXCROSS	n/a	n/a	n/a	n/a	n/a
472.34	6.317	CUE_LISTEN	M1	1	n/a	n/a	n/a
478.656	7.758	FIXCROSS	n/a	n/a	n/a	n/a	n/a
486.415	6.325	CUE_PLAYBACK_RIGHT_HAND	M1	1	n/a	n/a	n/a
487.323	n/a	RESPONSE	M1	1	19	G4	press
487.464	n/a	RESPONSE	M1	1	17	F4	press
487.655	n/a	RESPONSE	M1	1	17	F4	release
487.738	n/a	RESPONSE	M1	1	19	G4	release
487.859	n/a	RESPONSE	M1	1	16	E4	press
488.21	n/a	RESPONSE	M1	1	16	E4	release
488.362	n/a	RESPONSE	M1	1	16	E4	press
488.823	n/a	RESPONSE	M1	1	16	E4	release
488.924	n/a	RESPONSE	M1	1	17	F4	press
489.335	n/a	RESPONSE	M1	1	17	F4	release
489.436	n/a	RESPONSE	M1	1	14	D4	press
489.888	n/a	RESPONSE	M1	1	14	D4	release
489.983	n/a	RESPONSE	M1	1	14	D4	press
490.564	n/a	RESPONSE	M1	1	12	C4	press
490.783	n/a	RESPONSE	M1	1	14	D4	release
490.801	n/a	RESPONSE	M1	1	12	C4	release
490.825	n/a	RESPONSE	M1	1	16	E4	press
491.123	n/a	RESPONSE	M1	1	16	E4	release
491.126	n/a	RESPONSE	M1	1	19	G4	press
491.873	n/a	RESPONSE	M1	1	19	G4	release
492.74	7.758	FIXCROSS	n/a	n/a	n/a	n/a	n/a
500.498	6.317	CUE_LISTEN	M1	2	n/a	n/a	n/a
506.815	7.758	FIXCROSS	n/a	n/a	n/a	n/a	n/a
514.573	6.317	CUE_PLAYBACK_RIGHT_HAND	M1	2	n/a	n/a	n/a
515.205	n/a	RESPONSE	M1	2	19	G4	press
515.689	n/a	RESPONSE	M1	2	19	G4	release
515.789	n/a	RESPONSE	M1	2	16	E4	press
516.199	n/a	RESPONSE	M1	2	16	E4	release
516.34	n/a	RESPONSE	M1	2	16	E4	press
516.771	n/a	RESPONSE	M1	2	16	E4	release
516.903	n/a	RESPONSE	M1	2	17	F4	press
517.296	n/a	RESPONSE	M1	2	17	F4	release
517.448	n/a	RESPONSE	M1	2	14	D4	press
517.809	n/a	RESPONSE	M1	2	14	D4	release
518.011	n/a	RESPONSE	M1	2	14	D4	press
518.552	n/a	RESPONSE	M1	2	14	D4	release
518.563	n/a	RESPONSE	M1	2	12	C4	press
518.784	n/a	RESPONSE	M1	2	16	E4	press
518.825	n/a	RESPONSE	M1	2	12	C4	release
519.177	n/a	RESPONSE	M1	2	19	G4	press
519.179	n/a	RESPONSE	M1	2	16	E4	release
520.044	n/a	RESPONSE	M1	2	19	G4	release
520.89	7.758	FIXCROSS	n/a	n/a	n/a	n/a	n/a
528.648	6.325	CUE_LISTEN	M1	1	n/a	n/a	n/a
534.973	7.758	FIXCROSS	n/a	n/a	n/a	n/a	n/a
542.731	6.317	CUE_PLAYBACK_BOTH_HANDS	M1	1	n/a	n/a	n/a
543.361	n/a	RESPONSE	M1	1	07	G3	press
543.453	n/a	RESPONSE	M1	1	19	G4	press
543.864	n/a	RESPONSE	M1	1	19	G4	release
544.025	n/a	RESPONSE	M1	1	04	E3	press
544.028	n/a	RESPONSE	M1	1	16	E4	press
544.088	n/a	RESPONSE	M1	1	07	G3	release
544.519	n/a	RESPONSE	M1	1	16	E4	release
544.603	n/a	RESPONSE	M1	1	04	E3	release
544.641	n/a	RESPONSE	M1	1	04	E3	press
544.644	n/a	RESPONSE	M1	1	16	E4	press
545.074	n/a	RESPONSE	M1	1	16	E4	release
545.135	n/a	RESPONSE	M1	1	04	E3	release
545.166	n/a	RESPONSE	M1	1	05	F3	press
545.178	n/a	RESPONSE	M1	1	17	F4	press
545.629	n/a	RESPONSE	M1	1	17	F4	release
545.72	n/a	RESPONSE	M1	1	05	F3	release
545.751	n/a	RESPONSE	M1	1	02	D3	press
545.754	n/a	RESPONSE	M1	1	14	D4	press
546.204	n/a	RESPONSE	M1	1	14	D4	release
546.248	n/a	RESPONSE	M1	1	02	D3	release
546.326	n/a	RESPONSE	M1	1	02	D3	press
546.348	n/a	RESPONSE	M1	1	14	D4	press
546.709	n/a	RESPONSE	M1	1	02	D3	release
546.8	n/a	RESPONSE	M1	1	14	D4	release
546.924	n/a	RESPONSE	M1	1	00	C3	press
546.945	n/a	RESPONSE	M1	1	12	C4	press
547.184	n/a	RESPONSE	M1	1	12	C4	release
547.235	n/a	RESPONSE	M1	1	04	E3	press
547.246	n/a	RESPONSE	M1	1	16	E4	press
547.308	n/a	RESPONSE	M1	1	00	C3	release
547.539	n/a	RESPONSE	M1	1	16	E4	release
547.55	n/a	RESPONSE	M1	1	07	G3	press
547.553	n/a	RESPONSE	M1	1	19	G4	press
547.633	n/a	RESPONSE	M1	1	04	E3	release
548.665	n/a	RESPONSE	M1	1	19	G4	release
548.746	n/a	RESPONSE	M1	1	07	G3	release
549.048	7.758	FIXCROSS	n/a	n/a	n/a	n/a	n/a
556.806	6.317	CUE_LISTEN	M1	2	n/a	n/a	n/a
563.123	7.758	FIXCROSS	n/a	n/a	n/a	n/a	n/a
570.881	6.325	CUE_PLAYBACK_BOTH_HANDS	M1	2	n/a	n/a	n/a
571.579	n/a	RESPONSE	M1	2	07	G3	press
571.595	n/a	RESPONSE	M1	2	19	G4	press
572.04	n/a	RESPONSE	M1	2	19	G4	release
572.165	n/a	RESPONSE	M1	2	07	G3	release
572.181	n/a	RESPONSE	M1	2	04	E3	press
572.193	n/a	RESPONSE	M1	2	16	E4	press
572.689	n/a	RESPONSE	M1	2	16	E4	release
572.761	n/a	RESPONSE	M1	2	16	E4	press
573.264	n/a	RESPONSE	M1	2	16	E4	release
573.275	n/a	RESPONSE	M1	2	04	E3	release
573.326	n/a	RESPONSE	M1	2	17	F4	press
573.338	n/a	RESPONSE	M1	2	05	F3	press
573.829	n/a	RESPONSE	M1	2	17	F4	release
573.85	n/a	RESPONSE	M1	2	05	F3	release
573.911	n/a	RESPONSE	M1	2	02	D3	press
573.914	n/a	RESPONSE	M1	2	14	D4	press
573.934	n/a	RESPONSE	M1	2	04	E3	press
574.205	n/a	RESPONSE	M1	2	04	E3	release
574.386	n/a	RESPONSE	M1	2	02	D3	release
574.448	n/a	RESPONSE	M1	2	14	D4	release
574.479	n/a	RESPONSE	M1	2	02	D3	press
574.5	n/a	RESPONSE	M1	2	14	D4	press
574.931	n/a	RESPONSE	M1	2	02	D3	release
575.014	n/a	RESPONSE	M1	2	14	D4	release
575.084	n/a	RESPONSE	M1	2	00	C3	press
575.105	n/a	RESPONSE	M1	2	12	C4	press
575.346	n/a	RESPONSE	M1	2	12	C4	release
575.38	n/a	RESPONSE	M1	2	04	E3	press
575.399	n/a	RESPONSE	M1	2	16	E4	press
575.43	n/a	RESPONSE	M1	2	00	C3	release
575.661	n/a	RESPONSE	M1	2	04	E3	release
575.693	n/a	RESPONSE	M1	2	12	C4	press
575.695	n/a	RESPONSE	M1	2	00	C3	press
575.755	n/a	RESPONSE	M1	2	16	E4	release
576.716	n/a	RESPONSE	M1	2	00	C3	release
576.848	n/a	RESPONSE	M1	2	12	C4	release
577.206	7.758	FIXCROSS	n/a	n/a	n/a	n/a	n/a
584.965	6.317	CUE_LISTEN	M1	1	n/a	n/a	n/a
591.281	7.758	FIXCROSS	n/a	n/a	n/a	n/a	n/a
599.04	6.317	CUE_PLAYBACK_RIGHT_HAND	M1	1	n/a	n/a	n/a
599.58	n/a	RESPONSE	M1	1	19	G4	press
600.101	n/a	RESPONSE	M1	1	19	G4	release
600.185	n/a	RESPONSE	M1	1	16	E4	press
600.636	n/a	RESPONSE	M1	1	16	E4	release
600.754	n/a	RESPONSE	M1	1	16	E4	press
601.171	n/a	RESPONSE	M1	1	16	E4	release
601.356	n/a	RESPONSE	M1	1	17	F4	press
601.961	n/a	RESPONSE	M1	1	17	F4	release
601.975	n/a	RESPONSE	M1	1	14	D4	press
602.469	n/a	RESPONSE	M1	1	14	D4	release
602.549	n/a	RESPONSE	M1	1	14	D4	press
603.106	n/a	RESPONSE	M1	1	12	C4	press
603.169	n/a	RESPONSE	M1	1	14	D4	release
603.379	n/a	RESPONSE	M1	1	12	C4	release
603.383	n/a	RESPONSE	M1	1	16	E4	press
603.711	n/a	RESPONSE	M1	1	19	G4	press
603.714	n/a	RESPONSE	M1	1	16	E4	release
604.594	n/a	RESPONSE	M1	1	19	G4	release
605.356	7.758	FIXCROSS	n/a	n/a	n/a	n/a	n/a
613.115	6.325	CUE_LISTEN	M1	2	n/a	n/a	n/a
619.44	7.758	FIXCROSS	n/a	n/a	n/a	n/a	n/a
627.198	6.317	CUE_PLAYBACK_RIGHT_HAND	M1	2	n/a	n/a	n/a
627.806	n/a	RESPONSE	M1	2	19	G4	press
628.338	n/a	RESPONSE	M1	2	19	G4	release
628.429	n/a	RESPONSE	M1	2	16	E4	press
628.88	n/a	RESPONSE	M1	2	16	E4	release
629.034	n/a	RESPONSE	M1	2	16	E4	press
629.518	n/a	RESPONSE	M1	2	16	E4	release
629.644	n/a	RESPONSE	M1	2	17	F4	press
630.196	n/a	RESPONSE	M1	2	17	F4	release
630.214	n/a	RESPONSE	M1	2	14	D4	press
630.635	n/a	RESPONSE	M1	2	14	D4	release
630.781	n/a	RESPONSE	M1	2	14	D4	press
631.404	n/a	RESPONSE	M1	2	14	D4	release
631.415	n/a	RESPONSE	M1	2	12	C4	press
631.723	n/a	RESPONSE	M1	2	16	E4	press
631.725	n/a	RESPONSE	M1	2	12	C4	release
632.053	n/a	RESPONSE	M1	2	12	C4	press
632.061	n/a	RESPONSE	M1	2	11	B3	press
632.066	n/a	RESPONSE	M1	2	16	E4	release
632.11	n/a	RESPONSE	M1	2	11	B3	release
633.291	n/a	RESPONSE	M1	2	12	C4	release
633.515	7.758	FIXCROSS	n/a	n/a	n/a	n/a	n/a
641.273	6.317	CUE_LISTEN	M1	1	n/a	n/a	n/a
647.59	7.758	FIXCROSS	n/a	n/a	n/a	n/a	n/a
655.348	6.325	CUE_PLAYBACK_BOTH_HANDS	M1	1	n/a	n/a	n/a
655.866	n/a	RESPONSE	M1	1	19	G4	press
655.875	n/a	RESPONSE	M1	1	07	G3	press
656.336	n/a	RESPONSE	M1	1	19	G4	release
656.478	n/a	RESPONSE	M1	1	16	E4	press
656.481	n/a	RESPONSE	M1	1	04	E3	press
656.49	n/a	RESPONSE	M1	1	07	G3	release
656.912	n/a	RESPONSE	M1	1	16	E4	release
656.942	n/a	RESPONSE	M1	1	04	E3	release
657.034	n/a	RESPONSE	M1	1	04	E3	press
657.038	n/a	RESPONSE	M1	1	16	E4	press
657.536	n/a	RESPONSE	M1	1	16	E4	release
657.588	n/a	RESPONSE	M1	1	04	E3	release
657.609	n/a	RESPONSE	M1	1	05	F3	press
657.622	n/a	RESPONSE	M1	1	17	F4	press
658.122	n/a	RESPONSE	M1	1	17	F4	release
658.174	n/a	RESPONSE	M1	1	05	F3	release
658.185	n/a	RESPONSE	M1	1	02	D3	press
658.188	n/a	RESPONSE	M1	1	14	D4	press
658.678	n/a	RESPONSE	M1	1	14	D4	release
658.68	n/a	RESPONSE	M1	1	02	D3	release
658.78	n/a	RESPONSE	M1	1	02	D3	press
658.791	n/a	RESPONSE	M1	1	14	D4	press
659.224	n/a	RESPONSE	M1	1	02	D3	release
659.405	n/a	RESPONSE	M1	1	14	D4	release
659.408	n/a	RESPONSE	M1	1	00	C3	press
659.439	n/a	RESPONSE	M1	1	12	C4	press
659.696	n/a	RESPONSE	M1	1	12	C4	release
659.741	n/a	RESPONSE	M1	1	04	E3	press
659.745	n/a	RESPONSE	M1	1	16	E4	press
659.802	n/a	RESPONSE	M1	1	00	C3	release
660.096	n/a	RESPONSE	M1	1	19	G4	press
660.099	n/a	RESPONSE	M1	1	07	G3	press
660.128	n/a	RESPONSE	M1	1	16	E4	release
660.184	n/a	RESPONSE	M1	1	04	E3	release
661.058	n/a	RESPONSE	M1	1	19	G4	release
661.07	n/a	RESPONSE	M1	1	07	G3	release
661.673	7.758	FIXCROSS	n/a	n/a	n/a	n/a	n/a
669.432	6.317	CUE_LISTEN	M1	2	n/a	n/a	n/a
675.748	7.758	FIXCROSS	n/a	n/a	n/a	n/a	n/a
683.507	6.317	CUE_PLAYBACK_BOTH_HANDS	M1	2	n/a	n/a	n/a
684.238	n/a	RESPONSE	M1	2	19	G4	press
684.24	n/a	RESPONSE	M1	2	07	G3	press
684.66	n/a	RESPONSE	M1	2	19	G4	release
684.811	n/a	RESPONSE	M1	2	04	E3	press
684.832	n/a	RESPONSE	M1	2	16	E4	press
684.984	n/a	RESPONSE	M1	2	07	G3	release
685.299	n/a	RESPONSE	M1	2	16	E4	release
685.438	n/a	RESPONSE	M1	2	16	E4	press
685.929	n/a	RESPONSE	M1	2	16	E4	release
685.981	n/a	RESPONSE	M1	2	05	F3	press
685.991	n/a	RESPONSE	M1	2	17	F4	press
686.002	n/a	RESPONSE	M1	2	04	E3	release
686.474	n/a	RESPONSE	M1	2	17	F4	release
686.575	n/a	RESPONSE	M1	2	05	F3	release
686.578	n/a	RESPONSE	M1	2	14	D4	press
686.58	n/a	RESPONSE	M1	2	02	D3	press
687.059	n/a	RESPONSE	M1	2	14	D4	release
687.061	n/a	RESPONSE	M1	2	02	D3	release
687.171	n/a	RESPONSE	M1	2	02	D3	press
687.174	n/a	RESPONSE	M1	2	14	D4	press
687.614	n/a	RESPONSE	M1	2	02	D3	release
687.686	n/a	RESPONSE	M1	2	14	D4	release
687.718	n/a	RESPONSE	M1	2	00	C3	press
687.72	n/a	RESPONSE	M1	2	12	C4	press
687.98	n/a	RESPONSE	M1	2	12	C4	release
688.001	n/a	RESPONSE	M1	2	04	E3	press
688.034	n/a	RESPONSE	M1	2	16	E4	press
688.074	n/a	RESPONSE	M1	2	00	C3	release
688.285	n/a	RESPONSE	M1	2	04	E3	release
688.306	n/a	RESPONSE	M1	2	16	E4	release
688.338	n/a	RESPONSE	M1	2	12	C4	press
688.34	n/a	RESPONSE	M1	2	00	C3	press
689.43	n/a	RESPONSE	M1	2	12	C4	release
689.511	n/a	RESPONSE	M1	2	00	C3	release
689.823	7.758	FIXCROSS	n/a	n/a	n/a	n/a	n/a
692.106	n/a	RESPONSE	M1	2	04	E3	press
694.07	n/a	RESPONSE	M1	2	04	E3	release
697.582	6.325	CUE_LISTEN	M1	1	n/a	n/a	n/a
703.907	7.758	FIXCROSS	n/a	n/a	n/a	n/a	n/a
711.665	6.317	CUE_PLAYBACK_RIGHT_HAND	M1	1	n/a	n/a	n/a
712.15	n/a	RESPONSE	M1	1	19	G4	press
712.63	n/a	RESPONSE	M1	1	19	G4	release
712.702	n/a	RESPONSE	M1	1	16	E4	press
713.11	n/a	RESPONSE	M1	1	16	E4	release
713.291	n/a	RESPONSE	M1	1	16	E4	press
713.682	n/a	RESPONSE	M1	1	16	E4	release
713.865	n/a	RESPONSE	M1	1	17	F4	press
714.336	n/a	RESPONSE	M1	1	17	F4	release
714.446	n/a	RESPONSE	M1	1	14	D4	press
714.878	n/a	RESPONSE	M1	1	14	D4	release
715.009	n/a	RESPONSE	M1	1	14	D4	press
715.59	n/a	RESPONSE	M1	1	14	D4	release
715.614	n/a	RESPONSE	M1	1	12	C4	press
715.892	n/a	RESPONSE	M1	1	12	C4	release
715.904	n/a	RESPONSE	M1	1	16	E4	press
716.265	n/a	RESPONSE	M1	1	19	G4	press
716.316	n/a	RESPONSE	M1	1	16	E4	release
717.168	n/a	RESPONSE	M1	1	19	G4	release
717.982	7.758	FIXCROSS	n/a	n/a	n/a	n/a	n/a
725.74	6.325	CUE_LISTEN	M1	2	n/a	n/a	n/a
732.065	7.758	FIXCROSS	n/a	n/a	n/a	n/a	n/a
739.823	6.317	CUE_PLAYBACK_RIGHT_HAND	M1	2	n/a	n/a	n/a
740.361	n/a	RESPONSE	M1	2	19	G4	press
740.829	n/a	RESPONSE	M1	2	19	G4	release
740.938	n/a	RESPONSE	M1	2	16	E4	press
741.389	n/a	RESPONSE	M1	2	16	E4	release
741.501	n/a	RESPONSE	M1	2	16	E4	press
741.966	n/a	RESPONSE	M1	2	16	E4	release
742.042	n/a	RESPONSE	M1	2	18	F#4	press
742.064	n/a	RESPONSE	M1	2	17	F4	press
742.078	n/a	RESPONSE	M1	2	18	F#4	release
742.6	n/a	RESPONSE	M1	2	14	D4	press
742.602	n/a	RESPONSE	M1	2	17	F4	release
743.086	n/a	RESPONSE	M1	2	14	D4	release
743.178	n/a	RESPONSE	M1	2	14	D4	press
743.749	n/a	RESPONSE	M1	2	12	C4	press
743.83	n/a	RESPONSE	M1	2	14	D4	release
744.001	n/a	RESPONSE	M1	2	12	C4	release
744.052	n/a	RESPONSE	M1	2	16	E4	press
744.424	n/a	RESPONSE	M1	2	12	C4	press
744.535	n/a	RESPONSE	M1	2	16	E4	release
745.509	n/a	RESPONSE	M1	2	12	C4	release
746.14	7.758	FIXCROSS	n/a	n/a	n/a	n/a	n/a
753.898	6.317	CUE_LISTEN	M1	1	n/a	n/a	n/a
760.215	7.758	FIXCROSS	n/a	n/a	n/a	n/a	n/a
767.973	6.325	CUE_PLAYBACK_BOTH_HANDS	M1	1	n/a	n/a	n/a
768.752	n/a	RESPONSE	M1	1	07	G3	press
768.755	n/a	RESPONSE	M1	1	19	G4	press
769.216	n/a	RESPONSE	M1	1	19	G4	release
769.346	n/a	RESPONSE	M1	1	04	E3	press
769.349	n/a	RESPONSE	M1	1	07	G3	release
769.351	n/a	RESPONSE	M1	1	16	E4	press
769.798	n/a	RESPONSE	M1	1	16	E4	release
769.949	n/a	RESPONSE	M1	1	16	E4	press
770.431	n/a	RESPONSE	M1	1	16	E4	release
770.494	n/a	RESPONSE	M1	1	04	E3	release
770.546	n/a	RESPONSE	M1	1	17	F4	press
770.55	n/a	RESPONSE	M1	1	05	F3	press
771.039	n/a	RESPONSE	M1	1	05	F3	release
771.057	n/a	RESPONSE	M1	1	17	F4	release
771.162	n/a	RESPONSE	M1	1	02	D3	press
771.184	n/a	RESPONSE	M1	1	14	D4	press
771.629	n/a	RESPONSE	M1	1	02	D3	release
771.634	n/a	RESPONSE	M1	1	14	D4	release
771.726	n/a	RESPONSE	M1	1	02	D3	press
771.734	n/a	RESPONSE	M1	1	14	D4	press
772.141	n/a	RESPONSE	M1	1	02	D3	release
772.232	n/a	RESPONSE	M1	1	14	D4	release
772.276	n/a	RESPONSE	M1	1	00	C3	press
772.291	n/a	RESPONSE	M1	1	12	C4	press
772.585	n/a	RESPONSE	M1	1	04	E3	press
772.596	n/a	RESPONSE	M1	1	16	E4	press
772.601	n/a	RESPONSE	M1	1	12	C4	release
772.68	n/a	RESPONSE	M1	1	00	C3	release
772.876	n/a	RESPONSE	M1	1	07	G3	press
772.879	n/a	RESPONSE	M1	1	19	G4	press
772.881	n/a	RESPONSE	M1	1	16	E4	release
772.915	n/a	RESPONSE	M1	1	04	E3	release
773.841	n/a	RESPONSE	M1	1	19	G4	release
774.062	n/a	RESPONSE	M1	1	07	G3	release
774.298	7.758	FIXCROSS	n/a	n/a	n/a	n/a	n/a
782.057	6.317	CUE_LISTEN	M1	2	n/a	n/a	n/a
788.373	7.758	FIXCROSS	n/a	n/a	n/a	n/a	n/a
796.132	6.317	CUE_PLAYBACK_BOTH_HANDS	M1	2	n/a	n/a	n/a
796.764	n/a	RESPONSE	M1	2	19	G4	press
796.766	n/a	RESPONSE	M1	2	07	G3	press
797.296	n/a	RESPONSE	M1	2	19	G4	release
797.327	n/a	RESPONSE	M1	2	07	G3	release
797.351	n/a	RESPONSE	M1	2	16	E4	press
797.37	n/a	RESPONSE	M1	2	04	E3	press
797.872	n/a	RESPONSE	M1	2	16	E4	release
797.984	n/a	RESPONSE	M1	2	16	E4	press
798.445	n/a	RESPONSE	M1	2	16	E4	release
798.506	n/a	RESPONSE	M1	2	04	E3	release
798.519	n/a	RESPONSE	M1	2	05	F3	press
798.539	n/a	RESPONSE	M1	2	17	F4	press
798.971	n/a	RESPONSE	M1	2	17	F4	release
799.032	n/a	RESPONSE	M1	2	05	F3	release
799.102	n/a	RESPONSE	M1	2	02	D3	press
799.105	n/a	RESPONSE	M1	2	14	D4	press
799.595	n/a	RESPONSE	M1	2	14	D4	release
799.614	n/a	RESPONSE	M1	2	02	D3	release
799.711	n/a	RESPONSE	M1	2	14	D4	press
799.714	n/a	RESPONSE	M1	2	02	D3	press
800.062	n/a	RESPONSE	M1	2	02	D3	release
800.15	n/a	RESPONSE	M1	2	14	D4	release
800.264	n/a	RESPONSE	M1	2	00	C3	press
800.296	n/a	RESPONSE	M1	2	12	C4	press
800.535	n/a	RESPONSE	M1	2	12	C4	release
800.57	n/a	RESPONSE	M1	2	04	E3	press
800.586	n/a	RESPONSE	M1	2	00	C3	release
800.595	n/a	RESPONSE	M1	2	16	E4	press
800.837	n/a	RESPONSE	M1	2	04	E3	release
800.867	n/a	RESPONSE	M1	2	16	E4	release
800.875	n/a	RESPONSE	M1	2	12	C4	press
800.887	n/a	RESPONSE	M1	2	00	C3	press
801.859	n/a	RESPONSE	M1	2	12	C4	release
801.872	n/a	RESPONSE	M1	2	00	C3	release
802.448	7.758	FIXCROSS	n/a	n/a	n/a	n/a	n/a
810.207	6.325	CUE_LISTEN	M1	1	n/a	n/a	n/a
816.532	7.758	FIXCROSS	n/a	n/a	n/a	n/a	n/a
824.29	6.317	CUE_PLAYBACK_RIGHT_HAND	M1	1	n/a	n/a	n/a
824.826	n/a	RESPONSE	M1	1	19	G4	press
825.347	n/a	RESPONSE	M1	1	19	G4	release
825.399	n/a	RESPONSE	M1	1	16	E4	press
825.76	n/a	RESPONSE	M1	1	16	E4	release
825.914	n/a	RESPONSE	M1	1	16	E4	press
826.362	n/a	RESPONSE	M1	1	16	E4	release
826.494	n/a	RESPONSE	M1	1	17	F4	press
826.957	n/a	RESPONSE	M1	1	17	F4	release
827.007	n/a	RESPONSE	M1	1	14	D4	press
827.467	n/a	RESPONSE	M1	1	14	D4	release
827.551	n/a	RESPONSE	M1	1	14	D4	press
828.112	n/a	RESPONSE	M1	1	14	D4	release
828.122	n/a	RESPONSE	M1	1	12	C4	press
828.364	n/a	RESPONSE	M1	1	12	C4	release
828.375	n/a	RESPONSE	M1	1	16	E4	press
828.659	n/a	RESPONSE	M1	1	19	G4	press
828.667	n/a	RESPONSE	M1	1	16	E4	release
829.475	n/a	RESPONSE	M1	1	19	G4	release
830.607	7.758	FIXCROSS	n/a	n/a	n/a	n/a	n/a
838.365	6.317	CUE_LISTEN	M1	2	n/a	n/a	n/a
839.104	n/a	RESPONSE	M1	2	04	E3	press
844.682	7.759	FIXCROSS	n/a	n/a	n/a	n/a	n/a
852.44	6.325	CUE_PLAYBACK_RIGHT_HAND	M1	2	n/a	n/a	n/a
853.045	n/a	RESPONSE	M1	2	19	G4	press
853.501	n/a	RESPONSE	M1	2	19	G4	release
853.632	n/a	RESPONSE	M1	2	16	E4	press
854.064	n/a	RESPONSE	M1	2	16	E4	release
854.197	n/a	RESPONSE	M1	2	16	E4	press
854.637	n/a	RESPONSE	M1	2	16	E4	release
854.747	n/a	RESPONSE	M1	2	17	F4	press
855.289	n/a	RESPONSE	M1	2	17	F4	release
855.31	n/a	RESPONSE	M1	2	14	D4	press
855.771	n/a	RESPONSE	M1	2	14	D4	release
855.892	n/a	RESPONSE	M1	2	14	D4	press
856.484	n/a	RESPONSE	M1	2	12	C4	press
856.525	n/a	RESPONSE	M1	2	14	D4	release
856.729	n/a	RESPONSE	M1	2	12	C4	release
856.767	n/a	RESPONSE	M1	2	16	E4	press
857.049	n/a	RESPONSE	M1	2	16	E4	release
857.052	n/a	RESPONSE	M1	2	12	C4	press
858.035	n/a	RESPONSE	M1	2	12	C4	release
858.765	7.758	FIXCROSS	n/a	n/a	n/a	n/a	n/a
866.524	6.317	CUE_LISTEN	M1	1	n/a	n/a	n/a
872.84	7.758	FIXCROSS	n/a	n/a	n/a	n/a	n/a
880.599	6.317	CUE_PLAYBACK_BOTH_HANDS	M1	1	n/a	n/a	n/a
881.194	n/a	RESPONSE	M1	1	19	G4	press
881.892	n/a	RESPONSE	M1	1	04	E3	release
881.936	n/a	RESPONSE	M1	1	19	G4	release
881.965	n/a	RESPONSE	M1	1	07	G3	press
881.976	n/a	RESPONSE	M1	1	19	G4	press
882.369	n/a	RESPONSE	M1	1	19	G4	release
882.395	n/a	RESPONSE	M1	1	07	G3	release
882.51	n/a	RESPONSE	M1	1	04	E3	press
882.526	n/a	RESPONSE	M1	1	16	E4	press
882.98	n/a	RESPONSE	M1	1	16	E4	release
883.045	n/a	RESPONSE	M1	1	04	E3	release
883.126	n/a	RESPONSE	M1	1	04	E3	press
883.137	n/a	RESPONSE	M1	1	16	E4	press
883.579	n/a	RESPONSE	M1	1	16	E4	release
883.6	n/a	RESPONSE	M1	1	04	E3	release
883.694	n/a	RESPONSE	M1	1	17	F4	press
883.702	n/a	RESPONSE	M1	1	05	F3	press
884.124	n/a	RESPONSE	M1	1	17	F4	release
884.205	n/a	RESPONSE	M1	1	05	F3	release
884.276	n/a	RESPONSE	M1	1	14	D4	press
884.279	n/a	RESPONSE	M1	1	04	E3	press
884.281	n/a	RESPONSE	M1	1	02	D3	press
884.681	n/a	RESPONSE	M1	1	02	D3	release
884.684	n/a	RESPONSE	M1	1	04	E3	release
884.732	n/a	RESPONSE	M1	1	14	D4	release
884.836	n/a	RESPONSE	M1	1	04	E3	press
884.885	n/a	RESPONSE	M1	1	14	D4	press
885.266	n/a	RESPONSE	M1	1	04	E3	release
885.347	n/a	RESPONSE	M1	1	14	D4	release
885.43	n/a	RESPONSE	M1	1	02	D3	press
885.44	n/a	RESPONSE	M1	1	00	C3	press
885.451	n/a	RESPONSE	M1	1	12	C4	press
885.685	n/a	RESPONSE	M1	1	12	C4	release
885.734	n/a	RESPONSE	M1	1	05	F3	press
885.755	n/a	RESPONSE	M1	1	00	C3	release
885.757	n/a	RESPONSE	M1	1	14	D4	press
885.777	n/a	RESPONSE	M1	1	16	E4	press
885.79	n/a	RESPONSE	M1	1	02	D3	release
885.86	n/a	RESPONSE	M1	1	16	E4	release
885.961	n/a	RESPONSE	M1	1	14	D4	release
886.002	n/a	RESPONSE	M1	1	16	E4	press
886.044	n/a	RESPONSE	M1	1	17	F4	press
886.055	n/a	RESPONSE	M1	1	09	A3	press
886.066	n/a	RESPONSE	M1	1	19	G4	press
886.159	n/a	RESPONSE	M1	1	16	E4	release
886.169	n/a	RESPONSE	M1	1	05	F3	release
886.41	n/a	RESPONSE	M1	1	17	F4	release
886.611	n/a	RESPONSE	M1	1	19	G4	release
886.694	n/a	RESPONSE	M1	1	09	A3	release
886.915	7.758	FIXCROSS	n/a	n/a	n/a	n/a	n/a
894.674	6.325	CUE_LISTEN	M1	2	n/a	n/a	n/a
900.999	7.758	FIXCROSS	n/a	n/a	n/a	n/a	n/a
908.757	51.591	CUE_PLAYBACK_BOTH_HANDS	M1	2	n/a	n/a	n/a
909.52	n/a	RESPONSE	M1	2	07	G3	press
909.526	n/a	RESPONSE	M1	2	19	G4	press
910.08	n/a	RESPONSE	M1	2	19	G4	release
910.144	n/a	RESPONSE	M1	2	04	E3	press
910.15	n/a	RESPONSE	M1	2	16	E4	press
910.17	n/a	RESPONSE	M1	2	07	G3	release
910.58	n/a	RESPONSE	M1	2	16	E4	release
910.675	n/a	RESPONSE	M1	2	04	E3	release
910.73	n/a	RESPONSE	M1	2	04	E3	press
910.746	n/a	RESPONSE	M1	2	16	E4	press
911.194	n/a	RESPONSE	M1	2	16	E4	release
911.237	n/a	RESPONSE	M1	2	04	E3	release
911.34	n/a	RESPONSE	M1	2	17	F4	press
911.351	n/a	RESPONSE	M1	2	05	F3	press
911.785	n/a	RESPONSE	M1	2	17	F4	release
911.841	n/a	RESPONSE	M1	2	05	F3	release
911.965	n/a	RESPONSE	M1	2	14	D4	press
911.967	n/a	RESPONSE	M1	2	02	D3	press
912.431	n/a	RESPONSE	M1	2	14	D4	release
912.46	n/a	RESPONSE	M1	2	02	D3	release
912.55	n/a	RESPONSE	M1	2	02	D3	press
912.571	n/a	RESPONSE	M1	2	14	D4	press
912.929	n/a	RESPONSE	M1	2	02	D3	release
913.111	n/a	RESPONSE	M1	2	14	D4	release
913.202	n/a	RESPONSE	M1	2	00	C3	press
913.252	n/a	FIXCROSS	n/a	n/a	n/a	n/a	n/a
913.254	n/a	RESPONSE	M1	2	12	C4	press
913.497	n/a	RESPONSE	M1	2	12	C4	release
913.576	n/a	RESPONSE	M1	2	04	E3	press
913.597	n/a	RESPONSE	M1	2	16	E4	press
913.608	n/a	RESPONSE	M1	2	00	C3	release
913.85	n/a	RESPONSE	M1	2	04	E3	release
913.861	n/a	RESPONSE	M1	2	16	E4	release
913.932	n/a	RESPONSE	M1	2	00	C3	press
913.944	n/a	RESPONSE	M1	2	12	C4	press
913.955	n/a	RESPONSE	M1	2	11	B3	press
914.146	n/a	RESPONSE	M1	2	11	B3	release
915.219	n/a	RESPONSE	M1	2	00	C3	release
915.27	n/a	RESPONSE	M1	2	12	C4	release
921.205	n/a	RESPONSE	M1	2	05	F3	press
921.612	n/a	RESPONSE	M1	2	05	F3	release
