onset	duration	trial_type	trial_number	stroop_condition	stim_text(PL)	stim_text(eng)	stim_color(PL)	stim_color(eng)	response_type	response_color
0.0	n/a	RESPONSE	n/a	n/a	n/a	n/a	n/a	n/a	n/a	n/a
0.0304	1.0167	ITI	n/a	n/a	n/a	n/a	n/a	n/a	n/a	n/a
1.0471	0.5	FIXCROSS	n/a	n/a	n/a	n/a	n/a	n/a	n/a	n/a
1.5471	1.0167	T_INK	1	Neutral	xxxxxxxxx	xxxxxxxxx	żółty	yellow	hit	n/a
2.5594	n/a	RESPONSE	n/a	n/a	n/a	n/a	n/a	n/a	n/a	yellow
2.5638	0.5	FEEDBACK	n/a	n/a	n/a	n/a	n/a	n/a	n/a	n/a
3.0638	1.0	ITI	n/a	n/a	n/a	n/a	n/a	n/a	n/a	n/a
4.0638	0.5	FIXCROSS	n/a	n/a	n/a	n/a	n/a	n/a	n/a	n/a
4.5638	0.8667	T_INK	2	Neutral	xxxxx	xxxxx	niebieski	blue	hit	n/a
5.4227	n/a	RESPONSE	n/a	n/a	n/a	n/a	n/a	n/a	n/a	blue
5.4305	0.5	FEEDBACK	n/a	n/a	n/a	n/a	n/a	n/a	n/a	n/a
5.9305	1.0	ITI	n/a	n/a	n/a	n/a	n/a	n/a	n/a	n/a
6.9305	0.5	FIXCROSS	n/a	n/a	n/a	n/a	n/a	n/a	n/a	n/a
7.4305	0.75	T_INK	3	Neutral	xxxxxxxx	xxxxxxxx	zielony	green	hit	n/a
8.1741	n/a	RESPONSE	n/a	n/a	n/a	n/a	n/a	n/a	n/a	green
8.1805	0.5	FEEDBACK	n/a	n/a	n/a	n/a	n/a	n/a	n/a	n/a
8.6805	1.0	ITI	n/a	n/a	n/a	n/a	n/a	n/a	n/a	n/a
9.6805	0.5	FIXCROSS	n/a	n/a	n/a	n/a	n/a	n/a	n/a	n/a
10.1805	0.65	T_INK	4	Neutral	xxxxxxx	xxxxxxx	żółty	yellow	hit	n/a
10.8134	n/a	RESPONSE	n/a	n/a	n/a	n/a	n/a	n/a	n/a	yellow
10.8305	0.5167	FEEDBACK	n/a	n/a	n/a	n/a	n/a	n/a	n/a	n/a
11.3472	1.0167	ITI	n/a	n/a	n/a	n/a	n/a	n/a	n/a	n/a
12.3639	0.5167	FIXCROSS	n/a	n/a	n/a	n/a	n/a	n/a	n/a	n/a
12.8806	0.9334	T_INK	5	Incongruent	czerwony	red	niebieski	blue	hit	n/a
13.7887	n/a	RESPONSE	n/a	n/a	n/a	n/a	n/a	n/a	n/a	blue
13.8139	0.5167	FEEDBACK	n/a	n/a	n/a	n/a	n/a	n/a	n/a	n/a
14.3306	1.0167	ITI	n/a	n/a	n/a	n/a	n/a	n/a	n/a	n/a
15.3473	0.5167	FIXCROSS	n/a	n/a	n/a	n/a	n/a	n/a	n/a	n/a
15.8639	0.7333	T_INK	6	Neutral	xxxxxxx	xxxxxxx	niebieski	blue	hit	n/a
16.572	n/a	RESPONSE	n/a	n/a	n/a	n/a	n/a	n/a	n/a	blue
16.5973	0.5167	FEEDBACK	n/a	n/a	n/a	n/a	n/a	n/a	n/a	n/a
17.114	1.0167	ITI	n/a	n/a	n/a	n/a	n/a	n/a	n/a	n/a
18.1306	0.5167	FIXCROSS	n/a	n/a	n/a	n/a	n/a	n/a	n/a	n/a
18.6473	0.5833	T_INK	7	Incongruent	czerwony	red	zielony	green	hit	n/a
19.2114	n/a	RESPONSE	n/a	n/a	n/a	n/a	n/a	n/a	n/a	green
19.2306	0.5167	FEEDBACK	n/a	n/a	n/a	n/a	n/a	n/a	n/a	n/a
19.7473	1.0167	ITI	n/a	n/a	n/a	n/a	n/a	n/a	n/a	n/a
20.764	0.5167	FIXCROSS	n/a	n/a	n/a	n/a	n/a	n/a	n/a	n/a
21.2807	0.6	T_INK	8	Neutral	xxxxxxxxx	xxxxxxxxx	zielony	green	hit	n/a
21.8508	n/a	RESPONSE	n/a	n/a	n/a	n/a	n/a	n/a	n/a	green
21.8807	0.5167	FEEDBACK	n/a	n/a	n/a	n/a	n/a	n/a	n/a	n/a
22.3973	1.0167	ITI	n/a	n/a	n/a	n/a	n/a	n/a	n/a	n/a
23.414	0.5167	FIXCROSS	n/a	n/a	n/a	n/a	n/a	n/a	n/a	n/a
23.9307	0.9833	T_INK	9	Incongruent	żółty	yellow	zielony	green	hit	n/a
24.89	n/a	RESPONSE	n/a	n/a	n/a	n/a	n/a	n/a	n/a	green
24.914	0.5167	FEEDBACK	n/a	n/a	n/a	n/a	n/a	n/a	n/a	n/a
25.4307	1.0167	ITI	n/a	n/a	n/a	n/a	n/a	n/a	n/a	n/a
26.4474	0.5167	FIXCROSS	n/a	n/a	n/a	n/a	n/a	n/a	n/a	n/a
26.9641	0.6834	T_INK	10	Neutral	xxxxx	xxxxx	czerwony	red	hit	n/a
27.6254	n/a	RESPONSE	n/a	n/a	n/a	n/a	n/a	n/a	n/a	red
27.6474	0.5167	FEEDBACK	n/a	n/a	n/a	n/a	n/a	n/a	n/a	n/a
28.1641	1.0167	ITI	n/a	n/a	n/a	n/a	n/a	n/a	n/a	n/a
29.1808	0.5167	FIXCROSS	n/a	n/a	n/a	n/a	n/a	n/a	n/a	n/a
29.6974	0.8167	T_INK	11	Incongruent	żółty	yellow	niebieski	blue	hit	n/a
30.4887	n/a	RESPONSE	n/a	n/a	n/a	n/a	n/a	n/a	n/a	blue
30.5141	0.5167	FEEDBACK	n/a	n/a	n/a	n/a	n/a	n/a	n/a	n/a
31.0308	1.0167	ITI	n/a	n/a	n/a	n/a	n/a	n/a	n/a	n/a
32.0475	0.5167	FIXCROSS	n/a	n/a	n/a	n/a	n/a	n/a	n/a	n/a
32.5641	0.95	T_INK	12	Incongruent	zielony	green	czerwony	red	hit	n/a
33.4799	n/a	RESPONSE	n/a	n/a	n/a	n/a	n/a	n/a	n/a	red
33.5142	0.5167	FEEDBACK	n/a	n/a	n/a	n/a	n/a	n/a	n/a	n/a
34.0308	1.0333	ITI	n/a	n/a	n/a	n/a	n/a	n/a	n/a	n/a
37.175	n/a	RESPONSE	n/a	n/a	n/a	n/a	n/a	n/a	n/a	n/a
37.2309	1.0167	ITI	n/a	n/a	n/a	n/a	n/a	n/a	n/a	n/a
38.2475	0.5167	FIXCROSS	n/a	n/a	n/a	n/a	n/a	n/a	n/a	n/a
38.7642	0.9333	INK	1	Neutral	xxxxx	xxxxx	niebieski	blue	hit	n/a
39.6704	n/a	RESPONSE	n/a	n/a	n/a	n/a	n/a	n/a	n/a	blue
39.6976	1.0167	ITI	n/a	n/a	n/a	n/a	n/a	n/a	n/a	n/a
40.7142	0.5167	FIXCROSS	n/a	n/a	n/a	n/a	n/a	n/a	n/a	n/a
41.2309	0.7833	INK	2	Incongruent	zielony	green	żółty	yellow	hit	n/a
41.9898	n/a	RESPONSE	n/a	n/a	n/a	n/a	n/a	n/a	n/a	yellow
42.0143	1.0167	ITI	n/a	n/a	n/a	n/a	n/a	n/a	n/a	n/a
43.0309	0.5167	FIXCROSS	n/a	n/a	n/a	n/a	n/a	n/a	n/a	n/a
43.5476	0.8	INK	3	Neutral	xxxxxxxx	xxxxxxxx	zielony	green	hit	n/a
44.3253	n/a	RESPONSE	n/a	n/a	n/a	n/a	n/a	n/a	n/a	green
44.3476	1.0167	ITI	n/a	n/a	n/a	n/a	n/a	n/a	n/a	n/a
45.3643	0.5167	FIXCROSS	n/a	n/a	n/a	n/a	n/a	n/a	n/a	n/a
45.881	0.7	INK	4	Incongruent	żółty	yellow	niebieski	blue	hit	n/a
46.5488	n/a	RESPONSE	n/a	n/a	n/a	n/a	n/a	n/a	n/a	blue
46.581	1.0167	ITI	n/a	n/a	n/a	n/a	n/a	n/a	n/a	n/a
47.5976	0.5167	FIXCROSS	n/a	n/a	n/a	n/a	n/a	n/a	n/a	n/a
48.1143	0.7667	INK	5	Neutral	xxxxxxxxx	xxxxxxxxx	zielony	green	hit	n/a
48.8522	n/a	RESPONSE	n/a	n/a	n/a	n/a	n/a	n/a	n/a	green
48.881	1.0167	ITI	n/a	n/a	n/a	n/a	n/a	n/a	n/a	n/a
49.8977	0.5167	FIXCROSS	n/a	n/a	n/a	n/a	n/a	n/a	n/a	n/a
50.4144	0.75	INK	6	Neutral	xxxxxxxx	xxxxxxxx	żółty	yellow	hit	n/a
51.1396	n/a	RESPONSE	n/a	n/a	n/a	n/a	n/a	n/a	n/a	yellow
51.1644	1.0167	ITI	n/a	n/a	n/a	n/a	n/a	n/a	n/a	n/a
52.181	0.5167	FIXCROSS	n/a	n/a	n/a	n/a	n/a	n/a	n/a	n/a
52.6977	0.8333	INK	7	Incongruent	czerwony	red	niebieski	blue	hit	n/a
53.5071	n/a	RESPONSE	n/a	n/a	n/a	n/a	n/a	n/a	n/a	blue
53.5311	1.0167	ITI	n/a	n/a	n/a	n/a	n/a	n/a	n/a	n/a
54.5477	0.5167	FIXCROSS	n/a	n/a	n/a	n/a	n/a	n/a	n/a	n/a
55.0644	0.6833	INK	8	Incongruent	zielony	green	niebieski	blue	hit	n/a
55.7145	n/a	RESPONSE	n/a	n/a	n/a	n/a	n/a	n/a	n/a	blue
55.7478	1.0167	ITI	n/a	n/a	n/a	n/a	n/a	n/a	n/a	n/a
56.7644	0.5167	FIXCROSS	n/a	n/a	n/a	n/a	n/a	n/a	n/a	n/a
57.2811	0.55	INK	9	Neutral	xxxxx	xxxxx	czerwony	red	hit	n/a
57.81	n/a	RESPONSE	n/a	n/a	n/a	n/a	n/a	n/a	n/a	red
57.8311	1.0167	ITI	n/a	n/a	n/a	n/a	n/a	n/a	n/a	n/a
58.8478	0.5167	FIXCROSS	n/a	n/a	n/a	n/a	n/a	n/a	n/a	n/a
59.3645	0.7333	INK	10	Incongruent	żółty	yellow	niebieski	blue	hit	n/a
60.0655	n/a	RESPONSE	n/a	n/a	n/a	n/a	n/a	n/a	n/a	blue
60.0978	1.0167	ITI	n/a	n/a	n/a	n/a	n/a	n/a	n/a	n/a
61.1145	0.5167	FIXCROSS	n/a	n/a	n/a	n/a	n/a	n/a	n/a	n/a
61.6311	0.7167	INK	11	Neutral	xxxxxxxx	xxxxxxxx	niebieski	blue	hit	n/a
62.3209	n/a	RESPONSE	n/a	n/a	n/a	n/a	n/a	n/a	n/a	blue
62.3478	1.0167	ITI	n/a	n/a	n/a	n/a	n/a	n/a	n/a	n/a
63.3645	0.5167	FIXCROSS	n/a	n/a	n/a	n/a	n/a	n/a	n/a	n/a
63.8812	0.8667	INK	12	Incongruent	czerwony	red	żółty	yellow	hit	n/a
64.7204	n/a	RESPONSE	n/a	n/a	n/a	n/a	n/a	n/a	n/a	yellow
64.7478	1.0167	ITI	n/a	n/a	n/a	n/a	n/a	n/a	n/a	n/a
65.7645	0.5167	FIXCROSS	n/a	n/a	n/a	n/a	n/a	n/a	n/a	n/a
66.2812	0.6	INK	13	Neutral	xxxxx	xxxxx	niebieski	blue	hit	n/a
66.8479	n/a	RESPONSE	n/a	n/a	n/a	n/a	n/a	n/a	n/a	blue
66.8812	1.0167	ITI	n/a	n/a	n/a	n/a	n/a	n/a	n/a	n/a
67.8979	0.5167	FIXCROSS	n/a	n/a	n/a	n/a	n/a	n/a	n/a	n/a
68.4146	0.6167	INK	14	Neutral	xxxxxxxxx	xxxxxxxxx	zielony	green	hit	n/a
69.0073	n/a	RESPONSE	n/a	n/a	n/a	n/a	n/a	n/a	n/a	green
69.0312	1.0167	ITI	n/a	n/a	n/a	n/a	n/a	n/a	n/a	n/a
70.0479	0.5167	FIXCROSS	n/a	n/a	n/a	n/a	n/a	n/a	n/a	n/a
70.5646	0.9	INK	15	Incongruent	niebieski	blue	żółty	yellow	hit	n/a
71.4387	n/a	RESPONSE	n/a	n/a	n/a	n/a	n/a	n/a	n/a	yellow
71.4646	1.0167	ITI	n/a	n/a	n/a	n/a	n/a	n/a	n/a	n/a
72.4813	0.5167	FIXCROSS	n/a	n/a	n/a	n/a	n/a	n/a	n/a	n/a
72.9979	0.65	INK	16	Neutral	xxxxxxx	xxxxxxx	czerwony	red	hit	n/a
73.6142	n/a	RESPONSE	n/a	n/a	n/a	n/a	n/a	n/a	n/a	red
73.648	1.0167	ITI	n/a	n/a	n/a	n/a	n/a	n/a	n/a	n/a
74.6646	0.5167	FIXCROSS	n/a	n/a	n/a	n/a	n/a	n/a	n/a	n/a
75.1813	0.6667	INK	17	Incongruent	zielony	green	żółty	yellow	hit	n/a
75.8217	n/a	RESPONSE	n/a	n/a	n/a	n/a	n/a	n/a	n/a	yellow
75.848	1.0167	ITI	n/a	n/a	n/a	n/a	n/a	n/a	n/a	n/a
76.8647	0.5167	FIXCROSS	n/a	n/a	n/a	n/a	n/a	n/a	n/a	n/a
77.3813	0.5667	INK	18	Neutral	xxxxxxxxx	xxxxxxxxx	czerwony	red	hit	n/a
77.9172	n/a	RESPONSE	n/a	n/a	n/a	n/a	n/a	n/a	n/a	red
77.948	1.0167	ITI	n/a	n/a	n/a	n/a	n/a	n/a	n/a	n/a
78.9647	0.5167	FIXCROSS	n/a	n/a	n/a	n/a	n/a	n/a	n/a	n/a
79.4814	0.6	INK	19	Incongruent	czerwony	red	zielony	green	hit	n/a
80.0606	n/a	RESPONSE	n/a	n/a	n/a	n/a	n/a	n/a	n/a	green
80.0814	1.0167	ITI	n/a	n/a	n/a	n/a	n/a	n/a	n/a	n/a
81.098	0.5167	FIXCROSS	n/a	n/a	n/a	n/a	n/a	n/a	n/a	n/a
81.6147	0.7	INK	20	Neutral	xxxxxxxx	xxxxxxxx	żółty	yellow	hit	n/a
82.2841	n/a	RESPONSE	n/a	n/a	n/a	n/a	n/a	n/a	n/a	yellow
82.3147	1.0167	ITI	n/a	n/a	n/a	n/a	n/a	n/a	n/a	n/a
83.3314	0.5167	FIXCROSS	n/a	n/a	n/a	n/a	n/a	n/a	n/a	n/a
83.8481	0.7333	INK	21	Incongruent	niebieski	blue	czerwony	red	hit	n/a
84.5555	n/a	RESPONSE	n/a	n/a	n/a	n/a	n/a	n/a	n/a	red
84.5814	1.0167	ITI	n/a	n/a	n/a	n/a	n/a	n/a	n/a	n/a
85.5981	0.5167	FIXCROSS	n/a	n/a	n/a	n/a	n/a	n/a	n/a	n/a
86.1148	0.4833	INK	22	Neutral	xxxxxxx	xxxxxxx	czerwony	red	hit	n/a
86.5711	n/a	RESPONSE	n/a	n/a	n/a	n/a	n/a	n/a	n/a	red
86.5981	1.0167	ITI	n/a	n/a	n/a	n/a	n/a	n/a	n/a	n/a
87.6148	0.5167	FIXCROSS	n/a	n/a	n/a	n/a	n/a	n/a	n/a	n/a
88.1315	0.7167	INK	23	Neutral	xxxxxxx	xxxxxxx	żółty	yellow	hit	n/a
88.8265	n/a	RESPONSE	n/a	n/a	n/a	n/a	n/a	n/a	n/a	yellow
88.8481	1.0167	ITI	n/a	n/a	n/a	n/a	n/a	n/a	n/a	n/a
89.8648	0.5167	FIXCROSS	n/a	n/a	n/a	n/a	n/a	n/a	n/a	n/a
90.3815	0.8	INK	24	Incongruent	niebieski	blue	zielony	green	hit	n/a
91.1619	n/a	RESPONSE	n/a	n/a	n/a	n/a	n/a	n/a	n/a	green
91.1815	1.0167	ITI	n/a	n/a	n/a	n/a	n/a	n/a	n/a	n/a
92.1982	0.5167	FIXCROSS	n/a	n/a	n/a	n/a	n/a	n/a	n/a	n/a
92.7148	0.5833	INK	25	Incongruent	niebieski	blue	zielony	green	hit	n/a
93.2735	n/a	RESPONSE	n/a	n/a	n/a	n/a	n/a	n/a	n/a	green
93.2982	1.0167	ITI	n/a	n/a	n/a	n/a	n/a	n/a	n/a	n/a
94.3149	0.5167	FIXCROSS	n/a	n/a	n/a	n/a	n/a	n/a	n/a	n/a
94.8315	0.75	INK	26	Neutral	xxxxxxx	xxxxxxx	niebieski	blue	hit	n/a
95.5609	n/a	RESPONSE	n/a	n/a	n/a	n/a	n/a	n/a	n/a	blue
95.5815	1.0167	ITI	n/a	n/a	n/a	n/a	n/a	n/a	n/a	n/a
96.5982	0.5167	FIXCROSS	n/a	n/a	n/a	n/a	n/a	n/a	n/a	n/a
97.1149	0.85	INK	27	Neutral	xxxxxxxx	xxxxxxxx	zielony	green	hit	n/a
97.9443	n/a	RESPONSE	n/a	n/a	n/a	n/a	n/a	n/a	n/a	green
97.9649	1.0167	ITI	n/a	n/a	n/a	n/a	n/a	n/a	n/a	n/a
98.9816	0.5167	FIXCROSS	n/a	n/a	n/a	n/a	n/a	n/a	n/a	n/a
99.4983	0.7167	INK	28	Neutral	xxxxxxx	xxxxxxx	żółty	yellow	hit	n/a
100.1837	n/a	RESPONSE	n/a	n/a	n/a	n/a	n/a	n/a	n/a	yellow
100.2149	1.0167	ITI	n/a	n/a	n/a	n/a	n/a	n/a	n/a	n/a
101.2316	0.5167	FIXCROSS	n/a	n/a	n/a	n/a	n/a	n/a	n/a	n/a
101.7483	0.7	INK	29	Incongruent	zielony	green	niebieski	blue	hit	n/a
102.4232	n/a	RESPONSE	n/a	n/a	n/a	n/a	n/a	n/a	n/a	blue
102.4483	1.0167	ITI	n/a	n/a	n/a	n/a	n/a	n/a	n/a	n/a
103.465	0.5167	FIXCROSS	n/a	n/a	n/a	n/a	n/a	n/a	n/a	n/a
103.9816	0.5333	INK	30	Incongruent	zielony	green	niebieski	blue	hit	n/a
104.4867	n/a	RESPONSE	n/a	n/a	n/a	n/a	n/a	n/a	n/a	blue
104.515	1.0167	ITI	n/a	n/a	n/a	n/a	n/a	n/a	n/a	n/a
105.5317	0.5167	FIXCROSS	n/a	n/a	n/a	n/a	n/a	n/a	n/a	n/a
106.0483	0.6667	INK	31	Incongruent	niebieski	blue	żółty	yellow	hit	n/a
106.6942	n/a	RESPONSE	n/a	n/a	n/a	n/a	n/a	n/a	n/a	yellow
106.715	1.0167	ITI	n/a	n/a	n/a	n/a	n/a	n/a	n/a	n/a
107.7317	0.5167	FIXCROSS	n/a	n/a	n/a	n/a	n/a	n/a	n/a	n/a
108.2484	0.8167	INK	32	Neutral	xxxxxxxxx	xxxxxxxxx	zielony	green	hit	n/a
109.0456	n/a	RESPONSE	n/a	n/a	n/a	n/a	n/a	n/a	n/a	green
109.065	1.0167	ITI	n/a	n/a	n/a	n/a	n/a	n/a	n/a	n/a
110.0817	0.5167	FIXCROSS	n/a	n/a	n/a	n/a	n/a	n/a	n/a	n/a
110.5984	0.6167	INK	33	Incongruent	zielony	green	czerwony	red	hit	n/a
111.1891	n/a	RESPONSE	n/a	n/a	n/a	n/a	n/a	n/a	n/a	red
111.2151	1.0167	ITI	n/a	n/a	n/a	n/a	n/a	n/a	n/a	n/a
112.2317	0.5167	FIXCROSS	n/a	n/a	n/a	n/a	n/a	n/a	n/a	n/a
112.7484	0.8167	INK	34	Incongruent	żółty	yellow	zielony	green	hit	n/a
113.5405	n/a	RESPONSE	n/a	n/a	n/a	n/a	n/a	n/a	n/a	green
113.5651	1.0167	ITI	n/a	n/a	n/a	n/a	n/a	n/a	n/a	n/a
114.5818	0.5167	FIXCROSS	n/a	n/a	n/a	n/a	n/a	n/a	n/a	n/a
115.0984	0.6	INK	35	Neutral	xxxxxxxxx	xxxxxxxxx	żółty	yellow	hit	n/a
115.6681	n/a	RESPONSE	n/a	n/a	n/a	n/a	n/a	n/a	n/a	yellow
115.6984	1.0167	ITI	n/a	n/a	n/a	n/a	n/a	n/a	n/a	n/a
116.7151	0.5167	FIXCROSS	n/a	n/a	n/a	n/a	n/a	n/a	n/a	n/a
117.2318	0.5667	INK	36	Neutral	xxxxxxxx	xxxxxxxx	niebieski	blue	hit	n/a
117.7795	n/a	RESPONSE	n/a	n/a	n/a	n/a	n/a	n/a	n/a	blue
117.7985	1.0167	ITI	n/a	n/a	n/a	n/a	n/a	n/a	n/a	n/a
118.8151	0.5167	FIXCROSS	n/a	n/a	n/a	n/a	n/a	n/a	n/a	n/a
119.3318	0.5	INK	37	Neutral	xxxxxxxxx	xxxxxxxxx	żółty	yellow	incorrect	n/a
119.811	n/a	RESPONSE	n/a	n/a	n/a	n/a	n/a	n/a	n/a	green
119.8318	1.0167	ITI	n/a	n/a	n/a	n/a	n/a	n/a	n/a	n/a
120.8485	0.5167	FIXCROSS	n/a	n/a	n/a	n/a	n/a	n/a	n/a	n/a
121.3652	0.7167	INK	38	Incongruent	żółty	yellow	zielony	green	hit	n/a
122.0505	n/a	RESPONSE	n/a	n/a	n/a	n/a	n/a	n/a	n/a	green
122.0819	1.0167	ITI	n/a	n/a	n/a	n/a	n/a	n/a	n/a	n/a
123.0985	0.5167	FIXCROSS	n/a	n/a	n/a	n/a	n/a	n/a	n/a	n/a
123.6152	0.65	INK	39	Incongruent	zielony	green	czerwony	red	hit	n/a
124.242	n/a	RESPONSE	n/a	n/a	n/a	n/a	n/a	n/a	n/a	red
124.2652	1.0167	ITI	n/a	n/a	n/a	n/a	n/a	n/a	n/a	n/a
125.2819	0.5167	FIXCROSS	n/a	n/a	n/a	n/a	n/a	n/a	n/a	n/a
125.7986	0.7167	INK	40	Neutral	xxxxxxxx	xxxxxxxx	żółty	yellow	hit	n/a
126.4974	n/a	RESPONSE	n/a	n/a	n/a	n/a	n/a	n/a	n/a	yellow
126.5152	1.0167	ITI	n/a	n/a	n/a	n/a	n/a	n/a	n/a	n/a
127.5319	0.5167	FIXCROSS	n/a	n/a	n/a	n/a	n/a	n/a	n/a	n/a
128.0486	0.85	INK	41	Incongruent	czerwony	red	niebieski	blue	hit	n/a
128.8808	n/a	RESPONSE	n/a	n/a	n/a	n/a	n/a	n/a	n/a	blue
128.8986	1.0167	ITI	n/a	n/a	n/a	n/a	n/a	n/a	n/a	n/a
129.9153	0.5167	FIXCROSS	n/a	n/a	n/a	n/a	n/a	n/a	n/a	n/a
130.4319	0.6167	INK	42	Neutral	xxxxxxxx	xxxxxxxx	zielony	green	hit	n/a
131.0243	n/a	RESPONSE	n/a	n/a	n/a	n/a	n/a	n/a	n/a	green
131.0486	1.0167	ITI	n/a	n/a	n/a	n/a	n/a	n/a	n/a	n/a
132.0653	0.5167	FIXCROSS	n/a	n/a	n/a	n/a	n/a	n/a	n/a	n/a
132.582	0.7667	INK	43	Neutral	xxxxxxx	xxxxxxx	żółty	yellow	hit	n/a
133.3277	n/a	RESPONSE	n/a	n/a	n/a	n/a	n/a	n/a	n/a	yellow
133.3486	1.0167	ITI	n/a	n/a	n/a	n/a	n/a	n/a	n/a	n/a
134.3653	0.5167	FIXCROSS	n/a	n/a	n/a	n/a	n/a	n/a	n/a	n/a
134.882	0.6834	INK	44	Incongruent	żółty	yellow	czerwony	red	hit	n/a
135.5352	n/a	RESPONSE	n/a	n/a	n/a	n/a	n/a	n/a	n/a	red
135.5654	1.0167	ITI	n/a	n/a	n/a	n/a	n/a	n/a	n/a	n/a
136.582	0.5167	FIXCROSS	n/a	n/a	n/a	n/a	n/a	n/a	n/a	n/a
137.0987	0.75	INK	45	Incongruent	czerwony	red	żółty	yellow	hit	n/a
137.8227	n/a	RESPONSE	n/a	n/a	n/a	n/a	n/a	n/a	n/a	yellow
137.8487	1.0167	ITI	n/a	n/a	n/a	n/a	n/a	n/a	n/a	n/a
138.8654	0.5167	FIXCROSS	n/a	n/a	n/a	n/a	n/a	n/a	n/a	n/a
139.3821	0.65	INK	46	Neutral	xxxxxxxx	xxxxxxxx	niebieski	blue	hit	n/a
140.0141	n/a	RESPONSE	n/a	n/a	n/a	n/a	n/a	n/a	n/a	blue
140.0321	1.0167	ITI	n/a	n/a	n/a	n/a	n/a	n/a	n/a	n/a
141.0487	0.5167	FIXCROSS	n/a	n/a	n/a	n/a	n/a	n/a	n/a	n/a
141.5654	0.6333	INK	47	Neutral	xxxxx	xxxxx	zielony	green	hit	n/a
142.1736	n/a	RESPONSE	n/a	n/a	n/a	n/a	n/a	n/a	n/a	green
142.1987	1.0167	ITI	n/a	n/a	n/a	n/a	n/a	n/a	n/a	n/a
143.2154	0.5167	FIXCROSS	n/a	n/a	n/a	n/a	n/a	n/a	n/a	n/a
143.7321	0.6833	INK	48	Incongruent	zielony	green	czerwony	red	hit	n/a
144.3971	n/a	RESPONSE	n/a	n/a	n/a	n/a	n/a	n/a	n/a	red
144.4155	1.0167	ITI	n/a	n/a	n/a	n/a	n/a	n/a	n/a	n/a
145.4321	0.5167	FIXCROSS	n/a	n/a	n/a	n/a	n/a	n/a	n/a	n/a
145.9488	0.8	INK	49	Neutral	xxxxxxx	xxxxxxx	niebieski	blue	hit	n/a
146.7165	n/a	RESPONSE	n/a	n/a	n/a	n/a	n/a	n/a	n/a	blue
146.7488	1.0167	ITI	n/a	n/a	n/a	n/a	n/a	n/a	n/a	n/a
147.7655	0.5167	FIXCROSS	n/a	n/a	n/a	n/a	n/a	n/a	n/a	n/a
148.2822	0.8667	INK	50	Neutral	xxxxx	xxxxx	czerwony	red	hit	n/a
149.1159	n/a	RESPONSE	n/a	n/a	n/a	n/a	n/a	n/a	n/a	red
149.1488	1.0167	ITI	n/a	n/a	n/a	n/a	n/a	n/a	n/a	n/a
150.1655	0.5167	FIXCROSS	n/a	n/a	n/a	n/a	n/a	n/a	n/a	n/a
150.6822	0.6667	INK	51	Incongruent	czerwony	red	niebieski	blue	hit	n/a
151.3234	n/a	RESPONSE	n/a	n/a	n/a	n/a	n/a	n/a	n/a	blue
151.3489	1.0167	ITI	n/a	n/a	n/a	n/a	n/a	n/a	n/a	n/a
152.3655	0.5167	FIXCROSS	n/a	n/a	n/a	n/a	n/a	n/a	n/a	n/a
152.8822	0.65	INK	52	Neutral	xxxxxxxxx	xxxxxxxxx	żółty	yellow	hit	n/a
153.4988	n/a	RESPONSE	n/a	n/a	n/a	n/a	n/a	n/a	n/a	yellow
153.5322	1.0167	ITI	n/a	n/a	n/a	n/a	n/a	n/a	n/a	n/a
154.5489	0.5167	FIXCROSS	n/a	n/a	n/a	n/a	n/a	n/a	n/a	n/a
155.0656	0.7833	INK	53	Neutral	xxxxxxx	xxxxxxx	niebieski	blue	hit	n/a
155.8183	n/a	RESPONSE	n/a	n/a	n/a	n/a	n/a	n/a	n/a	blue
155.8489	1.0167	ITI	n/a	n/a	n/a	n/a	n/a	n/a	n/a	n/a
156.8656	0.5167	FIXCROSS	n/a	n/a	n/a	n/a	n/a	n/a	n/a	n/a
157.3823	0.7833	INK	54	Incongruent	zielony	green	żółty	yellow	hit	n/a
158.1377	n/a	RESPONSE	n/a	n/a	n/a	n/a	n/a	n/a	n/a	yellow
158.1656	1.0167	ITI	n/a	n/a	n/a	n/a	n/a	n/a	n/a	n/a
159.1823	0.5167	FIXCROSS	n/a	n/a	n/a	n/a	n/a	n/a	n/a	n/a
159.699	1.0	INK	55	Neutral	xxxxx	xxxxx	czerwony	red	hit	n/a
160.6811	n/a	RESPONSE	n/a	n/a	n/a	n/a	n/a	n/a	n/a	red
160.699	1.0167	ITI	n/a	n/a	n/a	n/a	n/a	n/a	n/a	n/a
161.7156	0.5167	FIXCROSS	n/a	n/a	n/a	n/a	n/a	n/a	n/a	n/a
162.2323	0.8	INK	56	Incongruent	żółty	yellow	zielony	green	hit	n/a
163.0005	n/a	RESPONSE	n/a	n/a	n/a	n/a	n/a	n/a	n/a	green
163.0323	1.0167	ITI	n/a	n/a	n/a	n/a	n/a	n/a	n/a	n/a
164.049	0.5167	FIXCROSS	n/a	n/a	n/a	n/a	n/a	n/a	n/a	n/a
164.5657	0.7167	INK	57	Neutral	xxxxxxx	xxxxxxx	czerwony	red	hit	n/a
165.256	n/a	RESPONSE	n/a	n/a	n/a	n/a	n/a	n/a	n/a	red
165.2823	1.0167	ITI	n/a	n/a	n/a	n/a	n/a	n/a	n/a	n/a
166.299	0.5167	FIXCROSS	n/a	n/a	n/a	n/a	n/a	n/a	n/a	n/a
166.8157	0.7833	INK	58	Incongruent	niebieski	blue	żółty	yellow	hit	n/a
167.5754	n/a	RESPONSE	n/a	n/a	n/a	n/a	n/a	n/a	n/a	yellow
167.599	1.0167	ITI	n/a	n/a	n/a	n/a	n/a	n/a	n/a	n/a
168.6157	0.5167	FIXCROSS	n/a	n/a	n/a	n/a	n/a	n/a	n/a	n/a
169.1324	0.8	INK	59	Incongruent	niebieski	blue	czerwony	red	hit	n/a
169.9109	n/a	RESPONSE	n/a	n/a	n/a	n/a	n/a	n/a	n/a	red
169.9324	1.0167	ITI	n/a	n/a	n/a	n/a	n/a	n/a	n/a	n/a
170.9491	0.5167	FIXCROSS	n/a	n/a	n/a	n/a	n/a	n/a	n/a	n/a
171.4658	0.7667	INK	60	Neutral	xxxxx	xxxxx	zielony	green	hit	n/a
172.2143	n/a	RESPONSE	n/a	n/a	n/a	n/a	n/a	n/a	n/a	green
172.2324	1.0167	ITI	n/a	n/a	n/a	n/a	n/a	n/a	n/a	n/a
173.2491	0.5167	FIXCROSS	n/a	n/a	n/a	n/a	n/a	n/a	n/a	n/a
173.7658	0.6333	INK	61	Incongruent	żółty	yellow	czerwony	red	hit	n/a
174.3738	n/a	RESPONSE	n/a	n/a	n/a	n/a	n/a	n/a	n/a	red
174.3991	1.0167	ITI	n/a	n/a	n/a	n/a	n/a	n/a	n/a	n/a
175.4158	0.5167	FIXCROSS	n/a	n/a	n/a	n/a	n/a	n/a	n/a	n/a
175.9325	0.7834	INK	62	Incongruent	czerwony	red	żółty	yellow	hit	n/a
176.6932	n/a	RESPONSE	n/a	n/a	n/a	n/a	n/a	n/a	n/a	yellow
176.7158	1.0167	ITI	n/a	n/a	n/a	n/a	n/a	n/a	n/a	n/a
177.7325	0.5167	FIXCROSS	n/a	n/a	n/a	n/a	n/a	n/a	n/a	n/a
178.2492	0.75	INK	63	Incongruent	czerwony	red	zielony	green	hit	n/a
178.9807	n/a	RESPONSE	n/a	n/a	n/a	n/a	n/a	n/a	n/a	green
178.9992	1.0167	ITI	n/a	n/a	n/a	n/a	n/a	n/a	n/a	n/a
180.0159	0.5167	FIXCROSS	n/a	n/a	n/a	n/a	n/a	n/a	n/a	n/a
180.5325	0.7333	INK	64	Neutral	xxxxx	xxxxx	zielony	green	hit	n/a
181.2361	n/a	RESPONSE	n/a	n/a	n/a	n/a	n/a	n/a	n/a	green
181.2659	1.0167	ITI	n/a	n/a	n/a	n/a	n/a	n/a	n/a	n/a
182.2826	0.5167	FIXCROSS	n/a	n/a	n/a	n/a	n/a	n/a	n/a	n/a
182.7992	0.55	INK	65	Incongruent	niebieski	blue	czerwony	red	hit	n/a
183.3156	n/a	RESPONSE	n/a	n/a	n/a	n/a	n/a	n/a	n/a	red
183.3492	1.0167	ITI	n/a	n/a	n/a	n/a	n/a	n/a	n/a	n/a
184.3659	0.5167	FIXCROSS	n/a	n/a	n/a	n/a	n/a	n/a	n/a	n/a
184.8826	0.6167	INK	66	Incongruent	żółty	yellow	czerwony	red	hit	n/a
185.4751	n/a	RESPONSE	n/a	n/a	n/a	n/a	n/a	n/a	n/a	red
185.4993	1.0167	ITI	n/a	n/a	n/a	n/a	n/a	n/a	n/a	n/a
186.5159	0.5167	FIXCROSS	n/a	n/a	n/a	n/a	n/a	n/a	n/a	n/a
187.0326	0.8	INK	67	Incongruent	czerwony	red	zielony	green	hit	n/a
187.8105	n/a	RESPONSE	n/a	n/a	n/a	n/a	n/a	n/a	n/a	green
187.8326	1.0167	ITI	n/a	n/a	n/a	n/a	n/a	n/a	n/a	n/a
188.8493	0.5167	FIXCROSS	n/a	n/a	n/a	n/a	n/a	n/a	n/a	n/a
189.366	0.7667	INK	68	Incongruent	żółty	yellow	niebieski	blue	hit	n/a
190.114	n/a	RESPONSE	n/a	n/a	n/a	n/a	n/a	n/a	n/a	blue
190.1326	1.0167	ITI	n/a	n/a	n/a	n/a	n/a	n/a	n/a	n/a
191.1493	0.5167	FIXCROSS	n/a	n/a	n/a	n/a	n/a	n/a	n/a	n/a
191.666	0.6833	INK	69	Neutral	xxxxxxxxx	xxxxxxxxx	czerwony	red	hit	n/a
192.3215	n/a	RESPONSE	n/a	n/a	n/a	n/a	n/a	n/a	n/a	red
192.3493	1.0167	ITI	n/a	n/a	n/a	n/a	n/a	n/a	n/a	n/a
193.366	0.5167	FIXCROSS	n/a	n/a	n/a	n/a	n/a	n/a	n/a	n/a
193.8827	0.75	INK	70	Incongruent	niebieski	blue	zielony	green	hit	n/a
194.6089	n/a	RESPONSE	n/a	n/a	n/a	n/a	n/a	n/a	n/a	green
194.6327	1.0167	ITI	n/a	n/a	n/a	n/a	n/a	n/a	n/a	n/a
195.6494	0.5167	FIXCROSS	n/a	n/a	n/a	n/a	n/a	n/a	n/a	n/a
196.166	0.55	INK	71	Neutral	xxxxxxxxx	xxxxxxxxx	czerwony	red	hit	n/a
196.6884	n/a	RESPONSE	n/a	n/a	n/a	n/a	n/a	n/a	n/a	red
196.7161	1.0167	ITI	n/a	n/a	n/a	n/a	n/a	n/a	n/a	n/a
197.7327	0.5167	FIXCROSS	n/a	n/a	n/a	n/a	n/a	n/a	n/a	n/a
198.2494	0.8333	INK	72	Neutral	xxxxx	xxxxx	niebieski	blue	hit	n/a
199.0558	n/a	RESPONSE	n/a	n/a	n/a	n/a	n/a	n/a	n/a	blue
199.0827	1.0834	ITI	n/a	n/a	n/a	n/a	n/a	n/a	n/a	n/a
216.9715	n/a	RESPONSE	n/a	n/a	n/a	n/a	n/a	n/a	n/a	n/a
217.033	1.0167	ITI	n/a	n/a	n/a	n/a	n/a	n/a	n/a	n/a
218.0496	0.5167	FIXCROSS	n/a	n/a	n/a	n/a	n/a	n/a	n/a	n/a
218.5663	1.3667	T_COLOR_NAME	1	Incongruent	zielony	green	czerwony	red	hit	n/a
219.8987	n/a	RESPONSE	n/a	n/a	n/a	n/a	n/a	n/a	n/a	green
219.933	0.5167	FEEDBACK	n/a	n/a	n/a	n/a	n/a	n/a	n/a	n/a
220.4497	1.0167	ITI	n/a	n/a	n/a	n/a	n/a	n/a	n/a	n/a
221.4663	0.5167	FIXCROSS	n/a	n/a	n/a	n/a	n/a	n/a	n/a	n/a
221.983	0.8833	T_COLOR_NAME	2	Neutral	żółty	yellow	Neutral	Neutral	hit	n/a
222.842	n/a	RESPONSE	n/a	n/a	n/a	n/a	n/a	n/a	n/a	yellow
222.8664	0.5167	FEEDBACK	n/a	n/a	n/a	n/a	n/a	n/a	n/a	n/a
223.383	1.0167	ITI	n/a	n/a	n/a	n/a	n/a	n/a	n/a	n/a
224.3997	0.5167	FIXCROSS	n/a	n/a	n/a	n/a	n/a	n/a	n/a	n/a
224.9164	0.7833	T_COLOR_NAME	3	Incongruent	czerwony	red	niebieski	blue	hit	n/a
225.6733	n/a	RESPONSE	n/a	n/a	n/a	n/a	n/a	n/a	n/a	red
225.6997	0.5167	FEEDBACK	n/a	n/a	n/a	n/a	n/a	n/a	n/a	n/a
226.2164	1.0167	ITI	n/a	n/a	n/a	n/a	n/a	n/a	n/a	n/a
227.2331	0.5167	FIXCROSS	n/a	n/a	n/a	n/a	n/a	n/a	n/a	n/a
227.7497	0.85	T_COLOR_NAME	4	Neutral	niebieski	blue	Neutral	Neutral	hit	n/a
228.5687	n/a	RESPONSE	n/a	n/a	n/a	n/a	n/a	n/a	n/a	blue
228.5998	0.5167	FEEDBACK	n/a	n/a	n/a	n/a	n/a	n/a	n/a	n/a
229.1164	1.0167	ITI	n/a	n/a	n/a	n/a	n/a	n/a	n/a	n/a
230.1331	0.5167	FIXCROSS	n/a	n/a	n/a	n/a	n/a	n/a	n/a	n/a
230.6498	0.8167	T_COLOR_NAME	5	Incongruent	czerwony	red	zielony	green	hit	n/a
231.432	n/a	RESPONSE	n/a	n/a	n/a	n/a	n/a	n/a	n/a	red
231.4665	0.5167	FEEDBACK	n/a	n/a	n/a	n/a	n/a	n/a	n/a	n/a
231.9831	1.0167	ITI	n/a	n/a	n/a	n/a	n/a	n/a	n/a	n/a
232.9998	0.5167	FIXCROSS	n/a	n/a	n/a	n/a	n/a	n/a	n/a	n/a
233.5165	0.9	T_COLOR_NAME	6	Neutral	niebieski	blue	Neutral	Neutral	hit	n/a
234.3912	n/a	RESPONSE	n/a	n/a	n/a	n/a	n/a	n/a	n/a	blue
234.4165	0.5167	FEEDBACK	n/a	n/a	n/a	n/a	n/a	n/a	n/a	n/a
234.9332	1.0167	ITI	n/a	n/a	n/a	n/a	n/a	n/a	n/a	n/a
235.9498	0.5167	FIXCROSS	n/a	n/a	n/a	n/a	n/a	n/a	n/a	n/a
236.4665	0.7167	T_COLOR_NAME	7	Neutral	czerwony	red	Neutral	Neutral	hit	n/a
237.1585	n/a	RESPONSE	n/a	n/a	n/a	n/a	n/a	n/a	n/a	red
237.1832	0.5167	FEEDBACK	n/a	n/a	n/a	n/a	n/a	n/a	n/a	n/a
237.6999	1.0167	ITI	n/a	n/a	n/a	n/a	n/a	n/a	n/a	n/a
238.7165	0.5167	FIXCROSS	n/a	n/a	n/a	n/a	n/a	n/a	n/a	n/a
239.2332	0.8667	T_COLOR_NAME	8	Neutral	zielony	green	Neutral	Neutral	hit	n/a
240.0699	n/a	RESPONSE	n/a	n/a	n/a	n/a	n/a	n/a	n/a	green
240.0999	0.5167	FEEDBACK	n/a	n/a	n/a	n/a	n/a	n/a	n/a	n/a
240.6166	1.0167	ITI	n/a	n/a	n/a	n/a	n/a	n/a	n/a	n/a
241.6332	0.5167	FIXCROSS	n/a	n/a	n/a	n/a	n/a	n/a	n/a	n/a
242.1499	0.7667	T_COLOR_NAME	9	Neutral	żółty	yellow	Neutral	Neutral	hit	n/a
242.8852	n/a	RESPONSE	n/a	n/a	n/a	n/a	n/a	n/a	n/a	yellow
242.9166	0.5167	FEEDBACK	n/a	n/a	n/a	n/a	n/a	n/a	n/a	n/a
243.4333	1.0167	ITI	n/a	n/a	n/a	n/a	n/a	n/a	n/a	n/a
244.4499	0.5167	FIXCROSS	n/a	n/a	n/a	n/a	n/a	n/a	n/a	n/a
244.9666	0.8	T_COLOR_NAME	10	Incongruent	żółty	yellow	zielony	green	hit	n/a
245.7325	n/a	RESPONSE	n/a	n/a	n/a	n/a	n/a	n/a	n/a	yellow
245.7666	0.5167	FEEDBACK	n/a	n/a	n/a	n/a	n/a	n/a	n/a	n/a
246.2833	1.0167	ITI	n/a	n/a	n/a	n/a	n/a	n/a	n/a	n/a
247.3	0.5167	FIXCROSS	n/a	n/a	n/a	n/a	n/a	n/a	n/a	n/a
247.8166	0.6833	T_COLOR_NAME	11	Incongruent	żółty	yellow	niebieski	blue	hit	n/a
248.4678	n/a	RESPONSE	n/a	n/a	n/a	n/a	n/a	n/a	n/a	yellow
248.5	0.5167	FEEDBACK	n/a	n/a	n/a	n/a	n/a	n/a	n/a	n/a
249.0167	1.0167	ITI	n/a	n/a	n/a	n/a	n/a	n/a	n/a	n/a
250.0333	0.5167	FIXCROSS	n/a	n/a	n/a	n/a	n/a	n/a	n/a	n/a
250.55	0.6333	T_COLOR_NAME	12	Neutral	zielony	green	Neutral	Neutral	hit	n/a
251.1552	n/a	RESPONSE	n/a	n/a	n/a	n/a	n/a	n/a	n/a	green
251.1833	0.5167	FEEDBACK	n/a	n/a	n/a	n/a	n/a	n/a	n/a	n/a
251.7	1.0333	ITI	n/a	n/a	n/a	n/a	n/a	n/a	n/a	n/a
254.4664	n/a	RESPONSE	n/a	n/a	n/a	n/a	n/a	n/a	n/a	n/a
254.5334	1.0167	ITI	n/a	n/a	n/a	n/a	n/a	n/a	n/a	n/a
255.5501	0.5167	FIXCROSS	n/a	n/a	n/a	n/a	n/a	n/a	n/a	n/a
256.0667	0.7667	COLOR_NAME	1	Neutral	czerwony	red	Neutral	Neutral	hit	n/a
256.8018	n/a	RESPONSE	n/a	n/a	n/a	n/a	n/a	n/a	n/a	red
256.8334	1.0167	ITI	n/a	n/a	n/a	n/a	n/a	n/a	n/a	n/a
257.8501	0.5167	FIXCROSS	n/a	n/a	n/a	n/a	n/a	n/a	n/a	n/a
258.3668	0.7833	COLOR_NAME	2	Neutral	niebieski	blue	Neutral	Neutral	hit	n/a
259.1213	n/a	RESPONSE	n/a	n/a	n/a	n/a	n/a	n/a	n/a	blue
259.1501	1.0167	ITI	n/a	n/a	n/a	n/a	n/a	n/a	n/a	n/a
260.1668	0.5167	FIXCROSS	n/a	n/a	n/a	n/a	n/a	n/a	n/a	n/a
260.6835	0.5667	COLOR_NAME	3	Neutral	żółty	yellow	Neutral	Neutral	hit	n/a
261.2327	n/a	RESPONSE	n/a	n/a	n/a	n/a	n/a	n/a	n/a	yellow
261.2501	1.0167	ITI	n/a	n/a	n/a	n/a	n/a	n/a	n/a	n/a
262.2668	0.5167	FIXCROSS	n/a	n/a	n/a	n/a	n/a	n/a	n/a	n/a
262.7835	0.7834	COLOR_NAME	4	Neutral	niebieski	blue	Neutral	Neutral	hit	n/a
263.5362	n/a	RESPONSE	n/a	n/a	n/a	n/a	n/a	n/a	n/a	blue
263.5668	1.0167	ITI	n/a	n/a	n/a	n/a	n/a	n/a	n/a	n/a
264.5835	0.5167	FIXCROSS	n/a	n/a	n/a	n/a	n/a	n/a	n/a	n/a
265.1002	1.1167	COLOR_NAME	5	Incongruent	żółty	yellow	czerwony	red	hit	n/a
266.1915	n/a	RESPONSE	n/a	n/a	n/a	n/a	n/a	n/a	n/a	yellow
266.2169	1.0167	ITI	n/a	n/a	n/a	n/a	n/a	n/a	n/a	n/a
267.2335	0.5167	FIXCROSS	n/a	n/a	n/a	n/a	n/a	n/a	n/a	n/a
267.7502	0.6667	COLOR_NAME	6	Incongruent	żółty	yellow	zielony	green	hit	n/a
268.383	n/a	RESPONSE	n/a	n/a	n/a	n/a	n/a	n/a	n/a	yellow
268.4169	1.0167	ITI	n/a	n/a	n/a	n/a	n/a	n/a	n/a	n/a
269.4336	0.5167	FIXCROSS	n/a	n/a	n/a	n/a	n/a	n/a	n/a	n/a
269.9502	0.85	COLOR_NAME	7	Incongruent	niebieski	blue	czerwony	red	hit	n/a
270.7686	n/a	RESPONSE	n/a	n/a	n/a	n/a	n/a	n/a	n/a	blue
270.8003	1.0167	ITI	n/a	n/a	n/a	n/a	n/a	n/a	n/a	n/a
271.8169	0.5167	FIXCROSS	n/a	n/a	n/a	n/a	n/a	n/a	n/a	n/a
272.3336	0.8333	COLOR_NAME	8	Neutral	zielony	green	Neutral	Neutral	hit	n/a
273.1339	n/a	RESPONSE	n/a	n/a	n/a	n/a	n/a	n/a	n/a	green
273.1669	1.0167	ITI	n/a	n/a	n/a	n/a	n/a	n/a	n/a	n/a
274.1836	0.5167	FIXCROSS	n/a	n/a	n/a	n/a	n/a	n/a	n/a	n/a
274.7003	0.5833	COLOR_NAME	9	Incongruent	zielony	green	niebieski	blue	hit	n/a
275.2613	n/a	RESPONSE	n/a	n/a	n/a	n/a	n/a	n/a	n/a	green
275.2836	1.0167	ITI	n/a	n/a	n/a	n/a	n/a	n/a	n/a	n/a
276.3003	0.5167	FIXCROSS	n/a	n/a	n/a	n/a	n/a	n/a	n/a	n/a
276.817	0.75	COLOR_NAME	10	Neutral	żółty	yellow	Neutral	Neutral	hit	n/a
277.5488	n/a	RESPONSE	n/a	n/a	n/a	n/a	n/a	n/a	n/a	yellow
277.567	1.0167	ITI	n/a	n/a	n/a	n/a	n/a	n/a	n/a	n/a
278.5837	0.5167	FIXCROSS	n/a	n/a	n/a	n/a	n/a	n/a	n/a	n/a
279.1003	0.8333	COLOR_NAME	11	Incongruent	zielony	green	czerwony	red	incorrect	n/a
279.9002	n/a	RESPONSE	n/a	n/a	n/a	n/a	n/a	n/a	n/a	red
279.9337	1.0167	ITI	n/a	n/a	n/a	n/a	n/a	n/a	n/a	n/a
280.9504	0.5167	FIXCROSS	n/a	n/a	n/a	n/a	n/a	n/a	n/a	n/a
281.467	0.7833	COLOR_NAME	12	Incongruent	niebieski	blue	żółty	yellow	hit	n/a
282.2196	n/a	RESPONSE	n/a	n/a	n/a	n/a	n/a	n/a	n/a	blue
282.2504	1.0167	ITI	n/a	n/a	n/a	n/a	n/a	n/a	n/a	n/a
283.2671	0.5167	FIXCROSS	n/a	n/a	n/a	n/a	n/a	n/a	n/a	n/a
283.7837	0.8167	COLOR_NAME	13	Neutral	niebieski	blue	Neutral	Neutral	hit	n/a
284.5711	n/a	RESPONSE	n/a	n/a	n/a	n/a	n/a	n/a	n/a	blue
284.6004	1.0167	ITI	n/a	n/a	n/a	n/a	n/a	n/a	n/a	n/a
285.6171	0.5167	FIXCROSS	n/a	n/a	n/a	n/a	n/a	n/a	n/a	n/a
286.1338	0.9334	COLOR_NAME	14	Incongruent	żółty	yellow	zielony	green	hit	n/a
287.0345	n/a	RESPONSE	n/a	n/a	n/a	n/a	n/a	n/a	n/a	yellow
287.0671	1.0167	ITI	n/a	n/a	n/a	n/a	n/a	n/a	n/a	n/a
288.0838	0.5167	FIXCROSS	n/a	n/a	n/a	n/a	n/a	n/a	n/a	n/a
288.6004	0.7333	COLOR_NAME	15	Incongruent	niebieski	blue	zielony	green	hit	n/a
289.306	n/a	RESPONSE	n/a	n/a	n/a	n/a	n/a	n/a	n/a	blue
289.3338	1.0167	ITI	n/a	n/a	n/a	n/a	n/a	n/a	n/a	n/a
290.3505	0.5167	FIXCROSS	n/a	n/a	n/a	n/a	n/a	n/a	n/a	n/a
290.8671	0.7167	COLOR_NAME	16	Incongruent	żółty	yellow	niebieski	blue	hit	n/a
291.5614	n/a	RESPONSE	n/a	n/a	n/a	n/a	n/a	n/a	n/a	yellow
291.5838	1.0167	ITI	n/a	n/a	n/a	n/a	n/a	n/a	n/a	n/a
292.6005	0.5167	FIXCROSS	n/a	n/a	n/a	n/a	n/a	n/a	n/a	n/a
293.1172	0.7167	COLOR_NAME	17	Neutral	czerwony	red	Neutral	Neutral	hit	n/a
293.8009	n/a	RESPONSE	n/a	n/a	n/a	n/a	n/a	n/a	n/a	red
293.8338	1.0167	ITI	n/a	n/a	n/a	n/a	n/a	n/a	n/a	n/a
294.8505	0.5167	FIXCROSS	n/a	n/a	n/a	n/a	n/a	n/a	n/a	n/a
295.3672	0.8167	COLOR_NAME	18	Incongruent	niebieski	blue	czerwony	red	hit	n/a
296.1523	n/a	RESPONSE	n/a	n/a	n/a	n/a	n/a	n/a	n/a	blue
296.1839	1.0167	ITI	n/a	n/a	n/a	n/a	n/a	n/a	n/a	n/a
297.2005	0.5167	FIXCROSS	n/a	n/a	n/a	n/a	n/a	n/a	n/a	n/a
297.7172	0.7167	COLOR_NAME	19	Neutral	żółty	yellow	Neutral	Neutral	hit	n/a
298.4077	n/a	RESPONSE	n/a	n/a	n/a	n/a	n/a	n/a	n/a	yellow
298.4339	1.0167	ITI	n/a	n/a	n/a	n/a	n/a	n/a	n/a	n/a
299.4506	0.5167	FIXCROSS	n/a	n/a	n/a	n/a	n/a	n/a	n/a	n/a
299.9673	1.3	COLOR_NAME	20	Incongruent	czerwony	red	żółty	yellow	hit	n/a
301.2391	n/a	RESPONSE	n/a	n/a	n/a	n/a	n/a	n/a	n/a	red
301.2673	1.0167	ITI	n/a	n/a	n/a	n/a	n/a	n/a	n/a	n/a
302.2839	0.5167	FIXCROSS	n/a	n/a	n/a	n/a	n/a	n/a	n/a	n/a
302.8006	0.7	COLOR_NAME	21	Neutral	żółty	yellow	Neutral	Neutral	hit	n/a
303.4785	n/a	RESPONSE	n/a	n/a	n/a	n/a	n/a	n/a	n/a	yellow
303.5006	1.0167	ITI	n/a	n/a	n/a	n/a	n/a	n/a	n/a	n/a
304.5173	0.5167	FIXCROSS	n/a	n/a	n/a	n/a	n/a	n/a	n/a	n/a
305.034	0.6833	COLOR_NAME	22	Neutral	żółty	yellow	Neutral	Neutral	hit	n/a
305.686	n/a	RESPONSE	n/a	n/a	n/a	n/a	n/a	n/a	n/a	yellow
305.7173	1.0167	ITI	n/a	n/a	n/a	n/a	n/a	n/a	n/a	n/a
306.734	0.5167	FIXCROSS	n/a	n/a	n/a	n/a	n/a	n/a	n/a	n/a
307.2507	0.7667	COLOR_NAME	23	Neutral	niebieski	blue	Neutral	Neutral	hit	n/a
307.9894	n/a	RESPONSE	n/a	n/a	n/a	n/a	n/a	n/a	n/a	blue
308.0173	1.0167	ITI	n/a	n/a	n/a	n/a	n/a	n/a	n/a	n/a
309.034	0.5167	FIXCROSS	n/a	n/a	n/a	n/a	n/a	n/a	n/a	n/a
309.5507	0.6	COLOR_NAME	24	Incongruent	czerwony	red	zielony	green	hit	n/a
310.1329	n/a	RESPONSE	n/a	n/a	n/a	n/a	n/a	n/a	n/a	red
310.1507	1.0167	ITI	n/a	n/a	n/a	n/a	n/a	n/a	n/a	n/a
311.1674	0.5167	FIXCROSS	n/a	n/a	n/a	n/a	n/a	n/a	n/a	n/a
311.684	0.5833	COLOR_NAME	25	Incongruent	czerwony	red	żółty	yellow	hit	n/a
312.2444	n/a	RESPONSE	n/a	n/a	n/a	n/a	n/a	n/a	n/a	red
312.2674	1.0167	ITI	n/a	n/a	n/a	n/a	n/a	n/a	n/a	n/a
313.2841	0.5167	FIXCROSS	n/a	n/a	n/a	n/a	n/a	n/a	n/a	n/a
313.8007	0.6833	COLOR_NAME	26	Incongruent	żółty	yellow	niebieski	blue	hit	n/a
314.4519	n/a	RESPONSE	n/a	n/a	n/a	n/a	n/a	n/a	n/a	yellow
314.4841	1.0167	ITI	n/a	n/a	n/a	n/a	n/a	n/a	n/a	n/a
315.5008	0.5167	FIXCROSS	n/a	n/a	n/a	n/a	n/a	n/a	n/a	n/a
316.0174	0.7833	COLOR_NAME	27	Incongruent	zielony	green	niebieski	blue	incorrect	n/a
316.7713	n/a	RESPONSE	n/a	n/a	n/a	n/a	n/a	n/a	n/a	blue
316.8008	1.0167	ITI	n/a	n/a	n/a	n/a	n/a	n/a	n/a	n/a
317.8175	0.5167	FIXCROSS	n/a	n/a	n/a	n/a	n/a	n/a	n/a	n/a
318.3341	0.75	COLOR_NAME	28	Neutral	żółty	yellow	Neutral	Neutral	hit	n/a
319.0587	n/a	RESPONSE	n/a	n/a	n/a	n/a	n/a	n/a	n/a	yellow
319.0841	1.0167	ITI	n/a	n/a	n/a	n/a	n/a	n/a	n/a	n/a
320.1008	0.5167	FIXCROSS	n/a	n/a	n/a	n/a	n/a	n/a	n/a	n/a
320.6175	1.0333	COLOR_NAME	29	Incongruent	zielony	green	niebieski	blue	hit	n/a
321.6181	n/a	RESPONSE	n/a	n/a	n/a	n/a	n/a	n/a	n/a	green
321.6508	1.0167	ITI	n/a	n/a	n/a	n/a	n/a	n/a	n/a	n/a
322.6675	0.5167	FIXCROSS	n/a	n/a	n/a	n/a	n/a	n/a	n/a	n/a
323.1842	0.8667	COLOR_NAME	30	Incongruent	niebieski	blue	zielony	green	hit	n/a
324.0335	n/a	RESPONSE	n/a	n/a	n/a	n/a	n/a	n/a	n/a	blue
324.0509	1.0167	ITI	n/a	n/a	n/a	n/a	n/a	n/a	n/a	n/a
325.0675	0.5167	FIXCROSS	n/a	n/a	n/a	n/a	n/a	n/a	n/a	n/a
325.5842	0.7	COLOR_NAME	31	Incongruent	żółty	yellow	niebieski	blue	hit	n/a
326.257	n/a	RESPONSE	n/a	n/a	n/a	n/a	n/a	n/a	n/a	yellow
326.2842	1.0167	ITI	n/a	n/a	n/a	n/a	n/a	n/a	n/a	n/a
327.3009	0.5167	FIXCROSS	n/a	n/a	n/a	n/a	n/a	n/a	n/a	n/a
327.8176	0.9833	COLOR_NAME	32	Incongruent	niebieski	blue	zielony	green	hit	n/a
328.7684	n/a	RESPONSE	n/a	n/a	n/a	n/a	n/a	n/a	n/a	blue
328.8009	1.0167	ITI	n/a	n/a	n/a	n/a	n/a	n/a	n/a	n/a
329.8176	0.5167	FIXCROSS	n/a	n/a	n/a	n/a	n/a	n/a	n/a	n/a
330.3343	0.7167	COLOR_NAME	33	Neutral	zielony	green	Neutral	Neutral	hit	n/a
331.0238	n/a	RESPONSE	n/a	n/a	n/a	n/a	n/a	n/a	n/a	green
331.0509	1.0167	ITI	n/a	n/a	n/a	n/a	n/a	n/a	n/a	n/a
332.0676	0.5167	FIXCROSS	n/a	n/a	n/a	n/a	n/a	n/a	n/a	n/a
332.5843	0.75	COLOR_NAME	34	Incongruent	żółty	yellow	czerwony	red	hit	n/a
333.3113	n/a	RESPONSE	n/a	n/a	n/a	n/a	n/a	n/a	n/a	yellow
333.3343	1.0167	ITI	n/a	n/a	n/a	n/a	n/a	n/a	n/a	n/a
334.351	0.5167	FIXCROSS	n/a	n/a	n/a	n/a	n/a	n/a	n/a	n/a
334.8677	0.9333	COLOR_NAME	35	Neutral	zielony	green	Neutral	Neutral	hit	n/a
335.7747	n/a	RESPONSE	n/a	n/a	n/a	n/a	n/a	n/a	n/a	green
335.801	1.0167	ITI	n/a	n/a	n/a	n/a	n/a	n/a	n/a	n/a
336.8177	0.5167	FIXCROSS	n/a	n/a	n/a	n/a	n/a	n/a	n/a	n/a
337.3343	0.7833	COLOR_NAME	36	Incongruent	czerwony	red	zielony	green	hit	n/a
338.0941	n/a	RESPONSE	n/a	n/a	n/a	n/a	n/a	n/a	n/a	red
338.1177	1.0167	ITI	n/a	n/a	n/a	n/a	n/a	n/a	n/a	n/a
339.1344	0.5167	FIXCROSS	n/a	n/a	n/a	n/a	n/a	n/a	n/a	n/a
339.651	0.85	COLOR_NAME	37	Neutral	niebieski	blue	Neutral	Neutral	hit	n/a
340.4776	n/a	RESPONSE	n/a	n/a	n/a	n/a	n/a	n/a	n/a	blue
340.5011	1.0167	ITI	n/a	n/a	n/a	n/a	n/a	n/a	n/a	n/a
341.5177	0.5167	FIXCROSS	n/a	n/a	n/a	n/a	n/a	n/a	n/a	n/a
342.0344	0.7167	COLOR_NAME	38	Neutral	żółty	yellow	Neutral	Neutral	hit	n/a
342.733	n/a	RESPONSE	n/a	n/a	n/a	n/a	n/a	n/a	n/a	yellow
342.7511	1.0167	ITI	n/a	n/a	n/a	n/a	n/a	n/a	n/a	n/a
343.7678	0.5167	FIXCROSS	n/a	n/a	n/a	n/a	n/a	n/a	n/a	n/a
344.2844	0.7	COLOR_NAME	39	Incongruent	czerwony	red	niebieski	blue	hit	n/a
344.9565	n/a	RESPONSE	n/a	n/a	n/a	n/a	n/a	n/a	n/a	red
344.9844	1.0167	ITI	n/a	n/a	n/a	n/a	n/a	n/a	n/a	n/a
346.0011	0.5167	FIXCROSS	n/a	n/a	n/a	n/a	n/a	n/a	n/a	n/a
346.5178	0.8333	COLOR_NAME	40	Incongruent	zielony	green	czerwony	red	hit	n/a
347.3239	n/a	RESPONSE	n/a	n/a	n/a	n/a	n/a	n/a	n/a	green
347.3511	1.0167	ITI	n/a	n/a	n/a	n/a	n/a	n/a	n/a	n/a
348.3678	0.5167	FIXCROSS	n/a	n/a	n/a	n/a	n/a	n/a	n/a	n/a
348.8845	0.75	COLOR_NAME	41	Neutral	żółty	yellow	Neutral	Neutral	hit	n/a
349.6113	n/a	RESPONSE	n/a	n/a	n/a	n/a	n/a	n/a	n/a	yellow
349.6345	1.0167	ITI	n/a	n/a	n/a	n/a	n/a	n/a	n/a	n/a
350.6512	0.5167	FIXCROSS	n/a	n/a	n/a	n/a	n/a	n/a	n/a	n/a
351.1678	1.0667	COLOR_NAME	42	Incongruent	żółty	yellow	czerwony	red	hit	n/a
352.2027	n/a	RESPONSE	n/a	n/a	n/a	n/a	n/a	n/a	n/a	yellow
352.2345	1.0167	ITI	n/a	n/a	n/a	n/a	n/a	n/a	n/a	n/a
353.2512	0.5167	FIXCROSS	n/a	n/a	n/a	n/a	n/a	n/a	n/a	n/a
353.7679	0.7167	COLOR_NAME	43	Neutral	czerwony	red	Neutral	Neutral	hit	n/a
354.4582	n/a	RESPONSE	n/a	n/a	n/a	n/a	n/a	n/a	n/a	red
354.4846	1.0167	ITI	n/a	n/a	n/a	n/a	n/a	n/a	n/a	n/a
355.5012	0.5167	FIXCROSS	n/a	n/a	n/a	n/a	n/a	n/a	n/a	n/a
356.0179	0.8	COLOR_NAME	44	Incongruent	żółty	yellow	zielony	green	hit	n/a
356.7936	n/a	RESPONSE	n/a	n/a	n/a	n/a	n/a	n/a	n/a	yellow
356.8179	1.0167	ITI	n/a	n/a	n/a	n/a	n/a	n/a	n/a	n/a
357.8346	0.5167	FIXCROSS	n/a	n/a	n/a	n/a	n/a	n/a	n/a	n/a
358.3513	0.8333	COLOR_NAME	45	Incongruent	zielony	green	żółty	yellow	hit	n/a
359.161	n/a	RESPONSE	n/a	n/a	n/a	n/a	n/a	n/a	n/a	green
359.1846	1.0167	ITI	n/a	n/a	n/a	n/a	n/a	n/a	n/a	n/a
360.2013	0.5167	FIXCROSS	n/a	n/a	n/a	n/a	n/a	n/a	n/a	n/a
360.7179	0.7	COLOR_NAME	46	Incongruent	czerwony	red	niebieski	blue	hit	n/a
361.4005	n/a	RESPONSE	n/a	n/a	n/a	n/a	n/a	n/a	n/a	red
361.418	1.0167	ITI	n/a	n/a	n/a	n/a	n/a	n/a	n/a	n/a
362.4346	0.5167	FIXCROSS	n/a	n/a	n/a	n/a	n/a	n/a	n/a	n/a
362.9513	0.85	COLOR_NAME	47	Neutral	zielony	green	Neutral	Neutral	hit	n/a
363.7679	n/a	RESPONSE	n/a	n/a	n/a	n/a	n/a	n/a	n/a	green
363.8013	1.0167	ITI	n/a	n/a	n/a	n/a	n/a	n/a	n/a	n/a
364.818	0.5167	FIXCROSS	n/a	n/a	n/a	n/a	n/a	n/a	n/a	n/a
365.3347	0.6667	COLOR_NAME	48	Incongruent	czerwony	red	zielony	green	hit	n/a
365.9754	n/a	RESPONSE	n/a	n/a	n/a	n/a	n/a	n/a	n/a	red
366.0013	1.0167	ITI	n/a	n/a	n/a	n/a	n/a	n/a	n/a	n/a
367.018	0.5167	FIXCROSS	n/a	n/a	n/a	n/a	n/a	n/a	n/a	n/a
367.5347	0.6334	COLOR_NAME	49	Neutral	zielony	green	Neutral	Neutral	hit	n/a
368.1349	n/a	RESPONSE	n/a	n/a	n/a	n/a	n/a	n/a	n/a	green
368.168	1.0167	ITI	n/a	n/a	n/a	n/a	n/a	n/a	n/a	n/a
369.1847	0.5167	FIXCROSS	n/a	n/a	n/a	n/a	n/a	n/a	n/a	n/a
369.7014	0.5833	COLOR_NAME	50	Neutral	czerwony	red	Neutral	Neutral	hit	n/a
370.2623	n/a	RESPONSE	n/a	n/a	n/a	n/a	n/a	n/a	n/a	red
370.2847	1.0167	ITI	n/a	n/a	n/a	n/a	n/a	n/a	n/a	n/a
371.3014	0.5167	FIXCROSS	n/a	n/a	n/a	n/a	n/a	n/a	n/a	n/a
371.8181	0.9333	COLOR_NAME	51	Neutral	niebieski	blue	Neutral	Neutral	hit	n/a
372.7257	n/a	RESPONSE	n/a	n/a	n/a	n/a	n/a	n/a	n/a	blue
372.7514	1.0167	ITI	n/a	n/a	n/a	n/a	n/a	n/a	n/a	n/a
373.7681	0.5167	FIXCROSS	n/a	n/a	n/a	n/a	n/a	n/a	n/a	n/a
374.2848	0.7333	COLOR_NAME	52	Neutral	żółty	yellow	Neutral	Neutral	hit	n/a
374.9972	n/a	RESPONSE	n/a	n/a	n/a	n/a	n/a	n/a	n/a	yellow
375.0181	1.0167	ITI	n/a	n/a	n/a	n/a	n/a	n/a	n/a	n/a
376.0348	0.5167	FIXCROSS	n/a	n/a	n/a	n/a	n/a	n/a	n/a	n/a
376.5515	0.9667	COLOR_NAME	53	Neutral	niebieski	blue	Neutral	Neutral	hit	n/a
377.4926	n/a	RESPONSE	n/a	n/a	n/a	n/a	n/a	n/a	n/a	blue
377.5181	1.0167	ITI	n/a	n/a	n/a	n/a	n/a	n/a	n/a	n/a
378.5348	0.5167	FIXCROSS	n/a	n/a	n/a	n/a	n/a	n/a	n/a	n/a
379.0515	0.8667	COLOR_NAME	54	Incongruent	niebieski	blue	żółty	yellow	hit	n/a
379.892	n/a	RESPONSE	n/a	n/a	n/a	n/a	n/a	n/a	n/a	blue
379.9182	1.0167	ITI	n/a	n/a	n/a	n/a	n/a	n/a	n/a	n/a
380.9348	0.5167	FIXCROSS	n/a	n/a	n/a	n/a	n/a	n/a	n/a	n/a
381.4515	0.7333	COLOR_NAME	55	Incongruent	zielony	green	żółty	yellow	hit	n/a
382.1635	n/a	RESPONSE	n/a	n/a	n/a	n/a	n/a	n/a	n/a	green
382.1849	1.0167	ITI	n/a	n/a	n/a	n/a	n/a	n/a	n/a	n/a
383.2015	0.5167	FIXCROSS	n/a	n/a	n/a	n/a	n/a	n/a	n/a	n/a
383.7182	0.9333	COLOR_NAME	56	Neutral	niebieski	blue	Neutral	Neutral	hit	n/a
384.6269	n/a	RESPONSE	n/a	n/a	n/a	n/a	n/a	n/a	n/a	blue
384.6516	1.0167	ITI	n/a	n/a	n/a	n/a	n/a	n/a	n/a	n/a
385.6682	0.5167	FIXCROSS	n/a	n/a	n/a	n/a	n/a	n/a	n/a	n/a
386.1849	0.6667	COLOR_NAME	57	Neutral	czerwony	red	Neutral	Neutral	hit	n/a
386.8184	n/a	RESPONSE	n/a	n/a	n/a	n/a	n/a	n/a	n/a	red
386.8516	1.0167	ITI	n/a	n/a	n/a	n/a	n/a	n/a	n/a	n/a
387.8683	0.5167	FIXCROSS	n/a	n/a	n/a	n/a	n/a	n/a	n/a	n/a
388.3849	0.6667	COLOR_NAME	58	Incongruent	czerwony	red	niebieski	blue	hit	n/a
389.0258	n/a	RESPONSE	n/a	n/a	n/a	n/a	n/a	n/a	n/a	red
389.0516	1.0167	ITI	n/a	n/a	n/a	n/a	n/a	n/a	n/a	n/a
390.0683	0.5167	FIXCROSS	n/a	n/a	n/a	n/a	n/a	n/a	n/a	n/a
390.585	0.7334	COLOR_NAME	59	Neutral	zielony	green	Neutral	Neutral	hit	n/a
391.2972	n/a	RESPONSE	n/a	n/a	n/a	n/a	n/a	n/a	n/a	green
391.3183	1.0167	ITI	n/a	n/a	n/a	n/a	n/a	n/a	n/a	n/a
392.335	0.5167	FIXCROSS	n/a	n/a	n/a	n/a	n/a	n/a	n/a	n/a
392.8517	0.7333	COLOR_NAME	60	Neutral	czerwony	red	Neutral	Neutral	hit	n/a
393.5527	n/a	RESPONSE	n/a	n/a	n/a	n/a	n/a	n/a	n/a	red
393.585	1.0167	ITI	n/a	n/a	n/a	n/a	n/a	n/a	n/a	n/a
394.6017	0.5167	FIXCROSS	n/a	n/a	n/a	n/a	n/a	n/a	n/a	n/a
395.1183	1.3167	COLOR_NAME	61	Incongruent	zielony	green	żółty	yellow	hit	n/a
396.416	n/a	RESPONSE	n/a	n/a	n/a	n/a	n/a	n/a	n/a	green
396.435	1.0167	ITI	n/a	n/a	n/a	n/a	n/a	n/a	n/a	n/a
397.4517	0.5167	FIXCROSS	n/a	n/a	n/a	n/a	n/a	n/a	n/a	n/a
397.9684	0.65	COLOR_NAME	62	Neutral	czerwony	red	Neutral	Neutral	hit	n/a
398.5915	n/a	RESPONSE	n/a	n/a	n/a	n/a	n/a	n/a	n/a	red
398.6184	1.0167	ITI	n/a	n/a	n/a	n/a	n/a	n/a	n/a	n/a
399.6351	0.5167	FIXCROSS	n/a	n/a	n/a	n/a	n/a	n/a	n/a	n/a
400.1517	0.5667	COLOR_NAME	63	Neutral	czerwony	red	Neutral	Neutral	hit	n/a
400.687	n/a	RESPONSE	n/a	n/a	n/a	n/a	n/a	n/a	n/a	red
400.7184	1.0167	ITI	n/a	n/a	n/a	n/a	n/a	n/a	n/a	n/a
401.7351	0.5167	FIXCROSS	n/a	n/a	n/a	n/a	n/a	n/a	n/a	n/a
402.2518	0.7667	COLOR_NAME	64	Neutral	zielony	green	Neutral	Neutral	hit	n/a
402.9904	n/a	RESPONSE	n/a	n/a	n/a	n/a	n/a	n/a	n/a	green
403.0184	1.0167	ITI	n/a	n/a	n/a	n/a	n/a	n/a	n/a	n/a
404.0351	0.5167	FIXCROSS	n/a	n/a	n/a	n/a	n/a	n/a	n/a	n/a
404.5518	0.8167	COLOR_NAME	65	Incongruent	czerwony	red	żółty	yellow	hit	n/a
405.3419	n/a	RESPONSE	n/a	n/a	n/a	n/a	n/a	n/a	n/a	red
405.3685	1.0167	ITI	n/a	n/a	n/a	n/a	n/a	n/a	n/a	n/a
406.3851	0.5167	FIXCROSS	n/a	n/a	n/a	n/a	n/a	n/a	n/a	n/a
406.9018	0.6333	COLOR_NAME	66	Neutral	zielony	green	Neutral	Neutral	hit	n/a
407.5173	n/a	RESPONSE	n/a	n/a	n/a	n/a	n/a	n/a	n/a	green
407.5352	1.0167	ITI	n/a	n/a	n/a	n/a	n/a	n/a	n/a	n/a
408.5518	0.5167	FIXCROSS	n/a	n/a	n/a	n/a	n/a	n/a	n/a	n/a
409.0685	0.8333	COLOR_NAME	67	Incongruent	niebieski	blue	żółty	yellow	hit	n/a
409.8688	n/a	RESPONSE	n/a	n/a	n/a	n/a	n/a	n/a	n/a	blue
409.9019	1.0167	ITI	n/a	n/a	n/a	n/a	n/a	n/a	n/a	n/a
410.9185	0.5167	FIXCROSS	n/a	n/a	n/a	n/a	n/a	n/a	n/a	n/a
411.4352	0.8167	COLOR_NAME	68	Incongruent	niebieski	blue	czerwony	red	hit	n/a
412.2202	n/a	RESPONSE	n/a	n/a	n/a	n/a	n/a	n/a	n/a	blue
412.2519	1.0167	ITI	n/a	n/a	n/a	n/a	n/a	n/a	n/a	n/a
413.2686	0.5167	FIXCROSS	n/a	n/a	n/a	n/a	n/a	n/a	n/a	n/a
413.7852	1.1834	COLOR_NAME	69	Incongruent	zielony	green	czerwony	red	hit	n/a
414.9395	n/a	RESPONSE	n/a	n/a	n/a	n/a	n/a	n/a	n/a	green
414.9686	1.0167	ITI	n/a	n/a	n/a	n/a	n/a	n/a	n/a	n/a
415.9853	0.5167	FIXCROSS	n/a	n/a	n/a	n/a	n/a	n/a	n/a	n/a
416.5019	0.9167	COLOR_NAME	70	Neutral	czerwony	red	Neutral	Neutral	hit	n/a
417.3869	n/a	RESPONSE	n/a	n/a	n/a	n/a	n/a	n/a	n/a	red
417.4186	1.0167	ITI	n/a	n/a	n/a	n/a	n/a	n/a	n/a	n/a
418.4353	0.5167	FIXCROSS	n/a	n/a	n/a	n/a	n/a	n/a	n/a	n/a
418.952	0.8	COLOR_NAME	71	Neutral	zielony	green	Neutral	Neutral	hit	n/a
419.7224	n/a	RESPONSE	n/a	n/a	n/a	n/a	n/a	n/a	n/a	green
419.752	1.0167	ITI	n/a	n/a	n/a	n/a	n/a	n/a	n/a	n/a
420.7687	0.5167	FIXCROSS	n/a	n/a	n/a	n/a	n/a	n/a	n/a	n/a
421.2853	0.8	COLOR_NAME	72	Neutral	niebieski	blue	Neutral	Neutral	hit	n/a
422.0578	n/a	RESPONSE	n/a	n/a	n/a	n/a	n/a	n/a	n/a	blue
422.0853	1.0333	ITI	n/a	n/a	n/a	n/a	n/a	n/a	n/a	n/a
425.1611	n/a	RESPONSE	n/a	n/a	n/a	n/a	n/a	n/a	n/a	n/a
