onset	duration	trial_type	trial_number	stroop_condition	stim_text(PL)	stim_text(eng)	stim_color(PL)	stim_color(eng)	response_type	response_color
0.0	n/a	RESPONSE	n/a	n/a	n/a	n/a	n/a	n/a	n/a	n/a
0.9716	1.0333	ITI	n/a	n/a	n/a	n/a	n/a	n/a	n/a	n/a
2.0049	0.5167	FIXCROSS	n/a	n/a	n/a	n/a	n/a	n/a	n/a	n/a
2.5216	5.0167	T_INK	1	Incongruent	niebieski	blue	zielony	green	miss	n/a
7.5383	0.5167	FEEDBACK	n/a	n/a	n/a	n/a	n/a	n/a	n/a	n/a
8.055	1.0167	ITI	n/a	n/a	n/a	n/a	n/a	n/a	n/a	n/a
9.0717	0.5167	FIXCROSS	n/a	n/a	n/a	n/a	n/a	n/a	n/a	n/a
9.5883	2.2833	T_INK	2	Incongruent	żółty	yellow	niebieski	blue	hit	n/a
11.8456	n/a	RESPONSE	n/a	n/a	n/a	n/a	n/a	n/a	n/a	blue
11.8717	0.5167	FEEDBACK	n/a	n/a	n/a	n/a	n/a	n/a	n/a	n/a
12.3884	1.0167	ITI	n/a	n/a	n/a	n/a	n/a	n/a	n/a	n/a
13.405	0.5166	FIXCROSS	n/a	n/a	n/a	n/a	n/a	n/a	n/a	n/a
13.9217	1.45	T_INK	3	Incongruent	żółty	yellow	czerwony	red	hit	n/a
15.3416	n/a	RESPONSE	n/a	n/a	n/a	n/a	n/a	n/a	n/a	red
15.3717	0.5167	FEEDBACK	n/a	n/a	n/a	n/a	n/a	n/a	n/a	n/a
15.8884	1.0167	ITI	n/a	n/a	n/a	n/a	n/a	n/a	n/a	n/a
16.9051	0.5166	FIXCROSS	n/a	n/a	n/a	n/a	n/a	n/a	n/a	n/a
17.4217	0.9834	T_INK	4	Neutral	xxxxxxxxx	xxxxxxxxx	czerwony	red	hit	n/a
18.3749	n/a	RESPONSE	n/a	n/a	n/a	n/a	n/a	n/a	n/a	red
18.4051	0.5166	FEEDBACK	n/a	n/a	n/a	n/a	n/a	n/a	n/a	n/a
18.9217	1.0167	ITI	n/a	n/a	n/a	n/a	n/a	n/a	n/a	n/a
19.9384	0.5167	FIXCROSS	n/a	n/a	n/a	n/a	n/a	n/a	n/a	n/a
20.4551	1.2	T_INK	5	Neutral	xxxxxxxxx	xxxxxxxxx	zielony	green	hit	n/a
21.6316	n/a	RESPONSE	n/a	n/a	n/a	n/a	n/a	n/a	n/a	green
21.6551	0.5167	FEEDBACK	n/a	n/a	n/a	n/a	n/a	n/a	n/a	n/a
22.1718	1.0167	ITI	n/a	n/a	n/a	n/a	n/a	n/a	n/a	n/a
23.1884	0.5167	FIXCROSS	n/a	n/a	n/a	n/a	n/a	n/a	n/a	n/a
23.7051	0.7167	T_INK	6	Neutral	xxxxxxx	xxxxxxx	żółty	yellow	hit	n/a
24.3934	n/a	RESPONSE	n/a	n/a	n/a	n/a	n/a	n/a	n/a	yellow
24.4218	0.5167	FEEDBACK	n/a	n/a	n/a	n/a	n/a	n/a	n/a	n/a
24.9385	1.0167	ITI	n/a	n/a	n/a	n/a	n/a	n/a	n/a	n/a
25.9551	0.5167	FIXCROSS	n/a	n/a	n/a	n/a	n/a	n/a	n/a	n/a
26.4718	0.9833	T_INK	7	Neutral	xxxxx	xxxxx	zielony	green	hit	n/a
27.4266	n/a	RESPONSE	n/a	n/a	n/a	n/a	n/a	n/a	n/a	green
27.4551	0.5167	FEEDBACK	n/a	n/a	n/a	n/a	n/a	n/a	n/a	n/a
27.9718	1.0167	ITI	n/a	n/a	n/a	n/a	n/a	n/a	n/a	n/a
28.9885	0.5166	FIXCROSS	n/a	n/a	n/a	n/a	n/a	n/a	n/a	n/a
29.5051	0.7333	T_INK	8	Neutral	xxxxx	xxxxx	czerwony	red	hit	n/a
30.2043	n/a	RESPONSE	n/a	n/a	n/a	n/a	n/a	n/a	n/a	red
30.2385	0.5167	FEEDBACK	n/a	n/a	n/a	n/a	n/a	n/a	n/a	n/a
30.7552	1.0167	ITI	n/a	n/a	n/a	n/a	n/a	n/a	n/a	n/a
31.7718	0.5167	FIXCROSS	n/a	n/a	n/a	n/a	n/a	n/a	n/a	n/a
32.2885	0.7833	T_INK	9	Neutral	xxxxxxx	xxxxxxx	czerwony	red	hit	n/a
33.0459	n/a	RESPONSE	n/a	n/a	n/a	n/a	n/a	n/a	n/a	red
33.0718	0.5167	FEEDBACK	n/a	n/a	n/a	n/a	n/a	n/a	n/a	n/a
33.5885	1.0167	ITI	n/a	n/a	n/a	n/a	n/a	n/a	n/a	n/a
34.6052	0.5167	FIXCROSS	n/a	n/a	n/a	n/a	n/a	n/a	n/a	n/a
35.1219	0.9166	T_INK	10	Neutral	xxxxx	xxxxx	niebieski	blue	hit	n/a
36.0154	n/a	RESPONSE	n/a	n/a	n/a	n/a	n/a	n/a	n/a	blue
36.0385	0.5167	FEEDBACK	n/a	n/a	n/a	n/a	n/a	n/a	n/a	n/a
36.5551	1.0167	ITI	n/a	n/a	n/a	n/a	n/a	n/a	n/a	n/a
37.5719	0.5166	FIXCROSS	n/a	n/a	n/a	n/a	n/a	n/a	n/a	n/a
38.0885	0.7167	T_INK	11	Neutral	xxxxxxxx	xxxxxxxx	żółty	yellow	hit	n/a
38.7771	n/a	RESPONSE	n/a	n/a	n/a	n/a	n/a	n/a	n/a	yellow
38.8052	0.5167	FEEDBACK	n/a	n/a	n/a	n/a	n/a	n/a	n/a	n/a
39.3219	1.0167	ITI	n/a	n/a	n/a	n/a	n/a	n/a	n/a	n/a
40.3386	0.5167	FIXCROSS	n/a	n/a	n/a	n/a	n/a	n/a	n/a	n/a
40.8552	1.0	T_INK	12	Incongruent	żółty	yellow	zielony	green	hit	n/a
41.8263	n/a	RESPONSE	n/a	n/a	n/a	n/a	n/a	n/a	n/a	green
41.8552	0.5166	FEEDBACK	n/a	n/a	n/a	n/a	n/a	n/a	n/a	n/a
42.3719	1.0334	ITI	n/a	n/a	n/a	n/a	n/a	n/a	n/a	n/a
46.1526	n/a	RESPONSE	n/a	n/a	n/a	n/a	n/a	n/a	n/a	n/a
46.2219	1.0167	ITI	n/a	n/a	n/a	n/a	n/a	n/a	n/a	n/a
47.2386	0.5167	FIXCROSS	n/a	n/a	n/a	n/a	n/a	n/a	n/a	n/a
47.7553	1.2333	INK	1	Neutral	xxxxxxxxx	xxxxxxxxx	żółty	yellow	hit	n/a
48.9624	n/a	RESPONSE	n/a	n/a	n/a	n/a	n/a	n/a	n/a	yellow
48.9886	1.0166	ITI	n/a	n/a	n/a	n/a	n/a	n/a	n/a	n/a
50.0053	0.5167	FIXCROSS	n/a	n/a	n/a	n/a	n/a	n/a	n/a	n/a
50.5219	1.6	INK	2	Incongruent	zielony	green	żółty	yellow	hit	n/a
52.0913	n/a	RESPONSE	n/a	n/a	n/a	n/a	n/a	n/a	n/a	yellow
52.122	1.0167	ITI	n/a	n/a	n/a	n/a	n/a	n/a	n/a	n/a
53.1386	0.5167	FIXCROSS	n/a	n/a	n/a	n/a	n/a	n/a	n/a	n/a
53.6553	1.2	INK	3	Incongruent	czerwony	red	niebieski	blue	hit	n/a
54.8212	n/a	RESPONSE	n/a	n/a	n/a	n/a	n/a	n/a	n/a	blue
54.8553	1.0167	ITI	n/a	n/a	n/a	n/a	n/a	n/a	n/a	n/a
55.872	0.5167	FIXCROSS	n/a	n/a	n/a	n/a	n/a	n/a	n/a	n/a
56.3887	1.3167	INK	4	Neutral	xxxxxxxxx	xxxxxxxxx	zielony	green	hit	n/a
57.6787	n/a	RESPONSE	n/a	n/a	n/a	n/a	n/a	n/a	n/a	green
57.7053	1.0167	ITI	n/a	n/a	n/a	n/a	n/a	n/a	n/a	n/a
58.722	0.5167	FIXCROSS	n/a	n/a	n/a	n/a	n/a	n/a	n/a	n/a
59.2387	0.95	INK	5	Incongruent	zielony	green	żółty	yellow	hit	n/a
60.1532	n/a	RESPONSE	n/a	n/a	n/a	n/a	n/a	n/a	n/a	yellow
60.1887	1.0167	ITI	n/a	n/a	n/a	n/a	n/a	n/a	n/a	n/a
61.2053	0.5167	FIXCROSS	n/a	n/a	n/a	n/a	n/a	n/a	n/a	n/a
61.722	1.3667	INK	6	Incongruent	żółty	yellow	niebieski	blue	hit	n/a
63.0587	n/a	RESPONSE	n/a	n/a	n/a	n/a	n/a	n/a	n/a	blue
63.0887	1.0167	ITI	n/a	n/a	n/a	n/a	n/a	n/a	n/a	n/a
64.1054	0.5167	FIXCROSS	n/a	n/a	n/a	n/a	n/a	n/a	n/a	n/a
64.6221	0.8166	INK	7	Neutral	xxxxxxxx	xxxxxxxx	niebieski	blue	hit	n/a
65.4213	n/a	RESPONSE	n/a	n/a	n/a	n/a	n/a	n/a	n/a	blue
65.4387	1.0167	ITI	n/a	n/a	n/a	n/a	n/a	n/a	n/a	n/a
66.4554	0.5167	FIXCROSS	n/a	n/a	n/a	n/a	n/a	n/a	n/a	n/a
66.9721	0.6833	INK	8	Neutral	xxxxxxxxx	xxxxxxxxx	żółty	yellow	hit	n/a
67.6244	n/a	RESPONSE	n/a	n/a	n/a	n/a	n/a	n/a	n/a	yellow
67.6554	1.0167	ITI	n/a	n/a	n/a	n/a	n/a	n/a	n/a	n/a
68.6721	0.5167	FIXCROSS	n/a	n/a	n/a	n/a	n/a	n/a	n/a	n/a
69.1888	0.9833	INK	9	Incongruent	czerwony	red	żółty	yellow	hit	n/a
70.1467	n/a	RESPONSE	n/a	n/a	n/a	n/a	n/a	n/a	n/a	yellow
70.1721	1.0167	ITI	n/a	n/a	n/a	n/a	n/a	n/a	n/a	n/a
71.1888	0.5166	FIXCROSS	n/a	n/a	n/a	n/a	n/a	n/a	n/a	n/a
71.7054	0.75	INK	10	Neutral	xxxxxxxx	xxxxxxxx	żółty	yellow	hit	n/a
72.4296	n/a	RESPONSE	n/a	n/a	n/a	n/a	n/a	n/a	n/a	yellow
72.4554	1.0166	ITI	n/a	n/a	n/a	n/a	n/a	n/a	n/a	n/a
73.4721	0.5167	FIXCROSS	n/a	n/a	n/a	n/a	n/a	n/a	n/a	n/a
73.9888	0.9833	INK	11	Neutral	xxxxxxxxx	xxxxxxxxx	zielony	green	hit	n/a
74.9519	n/a	RESPONSE	n/a	n/a	n/a	n/a	n/a	n/a	n/a	green
74.9721	1.0167	ITI	n/a	n/a	n/a	n/a	n/a	n/a	n/a	n/a
75.9888	0.5167	FIXCROSS	n/a	n/a	n/a	n/a	n/a	n/a	n/a	n/a
76.5055	0.7667	INK	12	Neutral	xxxxx	xxxxx	czerwony	red	hit	n/a
77.2507	n/a	RESPONSE	n/a	n/a	n/a	n/a	n/a	n/a	n/a	red
77.2721	1.0166	ITI	n/a	n/a	n/a	n/a	n/a	n/a	n/a	n/a
78.2888	0.5167	FIXCROSS	n/a	n/a	n/a	n/a	n/a	n/a	n/a	n/a
78.8054	0.9334	INK	13	Incongruent	zielony	green	żółty	yellow	hit	n/a
79.7092	n/a	RESPONSE	n/a	n/a	n/a	n/a	n/a	n/a	n/a	yellow
79.7388	1.0167	ITI	n/a	n/a	n/a	n/a	n/a	n/a	n/a	n/a
80.7555	0.5167	FIXCROSS	n/a	n/a	n/a	n/a	n/a	n/a	n/a	n/a
81.2722	0.8	INK	14	Incongruent	niebieski	blue	czerwony	red	hit	n/a
82.0399	n/a	RESPONSE	n/a	n/a	n/a	n/a	n/a	n/a	n/a	red
82.0721	1.0167	ITI	n/a	n/a	n/a	n/a	n/a	n/a	n/a	n/a
83.0888	0.5167	FIXCROSS	n/a	n/a	n/a	n/a	n/a	n/a	n/a	n/a
83.6055	0.8833	INK	15	Neutral	xxxxxxx	xxxxxxx	żółty	yellow	hit	n/a
84.4666	n/a	RESPONSE	n/a	n/a	n/a	n/a	n/a	n/a	n/a	yellow
84.4888	1.0167	ITI	n/a	n/a	n/a	n/a	n/a	n/a	n/a	n/a
85.5055	0.5167	FIXCROSS	n/a	n/a	n/a	n/a	n/a	n/a	n/a	n/a
86.0222	0.7667	INK	16	Neutral	xxxxxxxxx	xxxxxxxxx	czerwony	red	hit	n/a
86.7655	n/a	RESPONSE	n/a	n/a	n/a	n/a	n/a	n/a	n/a	red
86.7889	1.0167	ITI	n/a	n/a	n/a	n/a	n/a	n/a	n/a	n/a
87.8055	0.5167	FIXCROSS	n/a	n/a	n/a	n/a	n/a	n/a	n/a	n/a
88.3222	1.1334	INK	17	Neutral	xxxxxxxx	xxxxxxxx	zielony	green	hit	n/a
89.4315	n/a	RESPONSE	n/a	n/a	n/a	n/a	n/a	n/a	n/a	green
89.4556	1.0166	ITI	n/a	n/a	n/a	n/a	n/a	n/a	n/a	n/a
90.4722	0.5167	FIXCROSS	n/a	n/a	n/a	n/a	n/a	n/a	n/a	n/a
90.9889	0.8	INK	18	Incongruent	czerwony	red	zielony	green	hit	n/a
91.7622	n/a	RESPONSE	n/a	n/a	n/a	n/a	n/a	n/a	n/a	green
91.7889	1.0167	ITI	n/a	n/a	n/a	n/a	n/a	n/a	n/a	n/a
92.8056	0.5167	FIXCROSS	n/a	n/a	n/a	n/a	n/a	n/a	n/a	n/a
93.3223	0.8167	INK	19	Incongruent	niebieski	blue	czerwony	red	hit	n/a
94.1089	n/a	RESPONSE	n/a	n/a	n/a	n/a	n/a	n/a	n/a	red
94.1389	1.0166	ITI	n/a	n/a	n/a	n/a	n/a	n/a	n/a	n/a
95.1556	0.5167	FIXCROSS	n/a	n/a	n/a	n/a	n/a	n/a	n/a	n/a
95.6723	0.9	INK	20	Incongruent	zielony	green	niebieski	blue	hit	n/a
96.5514	n/a	RESPONSE	n/a	n/a	n/a	n/a	n/a	n/a	n/a	blue
96.5722	1.0167	ITI	n/a	n/a	n/a	n/a	n/a	n/a	n/a	n/a
97.5889	0.5167	FIXCROSS	n/a	n/a	n/a	n/a	n/a	n/a	n/a	n/a
98.1056	0.7	INK	21	Neutral	xxxxx	xxxxx	niebieski	blue	hit	n/a
98.7864	n/a	RESPONSE	n/a	n/a	n/a	n/a	n/a	n/a	n/a	blue
98.8056	1.0167	ITI	n/a	n/a	n/a	n/a	n/a	n/a	n/a	n/a
99.8223	0.5167	FIXCROSS	n/a	n/a	n/a	n/a	n/a	n/a	n/a	n/a
100.339	0.9166	INK	22	Incongruent	zielony	green	niebieski	blue	hit	n/a
101.229	n/a	RESPONSE	n/a	n/a	n/a	n/a	n/a	n/a	n/a	blue
101.2556	1.0167	ITI	n/a	n/a	n/a	n/a	n/a	n/a	n/a	n/a
102.2723	0.5166	FIXCROSS	n/a	n/a	n/a	n/a	n/a	n/a	n/a	n/a
102.789	0.7334	INK	23	Neutral	xxxxxxxx	xxxxxxxx	niebieski	blue	hit	n/a
103.4958	n/a	RESPONSE	n/a	n/a	n/a	n/a	n/a	n/a	n/a	blue
103.5223	1.0167	ITI	n/a	n/a	n/a	n/a	n/a	n/a	n/a	n/a
104.539	0.5167	FIXCROSS	n/a	n/a	n/a	n/a	n/a	n/a	n/a	n/a
105.0557	0.75	INK	24	Incongruent	niebieski	blue	czerwony	red	hit	n/a
105.7788	n/a	RESPONSE	n/a	n/a	n/a	n/a	n/a	n/a	n/a	red
105.8057	1.0167	ITI	n/a	n/a	n/a	n/a	n/a	n/a	n/a	n/a
106.8223	0.5167	FIXCROSS	n/a	n/a	n/a	n/a	n/a	n/a	n/a	n/a
107.339	0.75	INK	25	Incongruent	żółty	yellow	czerwony	red	hit	n/a
108.0616	n/a	RESPONSE	n/a	n/a	n/a	n/a	n/a	n/a	n/a	red
108.089	1.0167	ITI	n/a	n/a	n/a	n/a	n/a	n/a	n/a	n/a
109.1057	0.5167	FIXCROSS	n/a	n/a	n/a	n/a	n/a	n/a	n/a	n/a
109.6224	0.65	INK	26	Neutral	xxxxxxx	xxxxxxx	czerwony	red	hit	n/a
110.2487	n/a	RESPONSE	n/a	n/a	n/a	n/a	n/a	n/a	n/a	red
110.2724	1.0167	ITI	n/a	n/a	n/a	n/a	n/a	n/a	n/a	n/a
111.289	0.5166	FIXCROSS	n/a	n/a	n/a	n/a	n/a	n/a	n/a	n/a
111.8057	0.7667	INK	27	Incongruent	niebieski	blue	żółty	yellow	hit	n/a
112.5476	n/a	RESPONSE	n/a	n/a	n/a	n/a	n/a	n/a	n/a	yellow
112.5723	1.0167	ITI	n/a	n/a	n/a	n/a	n/a	n/a	n/a	n/a
113.5891	0.5166	FIXCROSS	n/a	n/a	n/a	n/a	n/a	n/a	n/a	n/a
114.1057	0.65	INK	28	Incongruent	czerwony	red	żółty	yellow	hit	n/a
114.7347	n/a	RESPONSE	n/a	n/a	n/a	n/a	n/a	n/a	n/a	yellow
114.7557	1.0167	ITI	n/a	n/a	n/a	n/a	n/a	n/a	n/a	n/a
115.7724	0.5167	FIXCROSS	n/a	n/a	n/a	n/a	n/a	n/a	n/a	n/a
116.2891	0.6667	INK	29	Incongruent	czerwony	red	żółty	yellow	hit	n/a
116.9376	n/a	RESPONSE	n/a	n/a	n/a	n/a	n/a	n/a	n/a	yellow
116.9557	1.0166	ITI	n/a	n/a	n/a	n/a	n/a	n/a	n/a	n/a
117.9724	0.5167	FIXCROSS	n/a	n/a	n/a	n/a	n/a	n/a	n/a	n/a
118.4891	0.7667	INK	30	Neutral	xxxxx	xxxxx	zielony	green	hit	n/a
119.2365	n/a	RESPONSE	n/a	n/a	n/a	n/a	n/a	n/a	n/a	green
119.2558	1.0167	ITI	n/a	n/a	n/a	n/a	n/a	n/a	n/a	n/a
120.2724	0.5167	FIXCROSS	n/a	n/a	n/a	n/a	n/a	n/a	n/a	n/a
120.7891	0.9333	INK	31	Neutral	xxxxxxx	xxxxxxx	żółty	yellow	hit	n/a
121.6951	n/a	RESPONSE	n/a	n/a	n/a	n/a	n/a	n/a	n/a	yellow
121.7224	1.0167	ITI	n/a	n/a	n/a	n/a	n/a	n/a	n/a	n/a
122.7391	0.5166	FIXCROSS	n/a	n/a	n/a	n/a	n/a	n/a	n/a	n/a
123.2558	0.9167	INK	32	Incongruent	niebieski	blue	zielony	green	hit	n/a
124.1536	n/a	RESPONSE	n/a	n/a	n/a	n/a	n/a	n/a	n/a	green
124.1725	1.0167	ITI	n/a	n/a	n/a	n/a	n/a	n/a	n/a	n/a
125.1891	0.5167	FIXCROSS	n/a	n/a	n/a	n/a	n/a	n/a	n/a	n/a
125.7058	0.7167	INK	33	Neutral	xxxxxxx	xxxxxxx	żółty	yellow	hit	n/a
126.4044	n/a	RESPONSE	n/a	n/a	n/a	n/a	n/a	n/a	n/a	yellow
126.4225	1.0167	ITI	n/a	n/a	n/a	n/a	n/a	n/a	n/a	n/a
127.4391	0.5167	FIXCROSS	n/a	n/a	n/a	n/a	n/a	n/a	n/a	n/a
127.9558	0.65	INK	34	Neutral	xxxxxxx	xxxxxxx	czerwony	red	hit	n/a
128.5755	n/a	RESPONSE	n/a	n/a	n/a	n/a	n/a	n/a	n/a	red
128.6058	1.0167	ITI	n/a	n/a	n/a	n/a	n/a	n/a	n/a	n/a
129.6225	0.5166	FIXCROSS	n/a	n/a	n/a	n/a	n/a	n/a	n/a	n/a
130.1391	0.7334	INK	35	Neutral	xxxxxxx	xxxxxxx	czerwony	red	hit	n/a
130.8425	n/a	RESPONSE	n/a	n/a	n/a	n/a	n/a	n/a	n/a	red
130.8725	1.0166	ITI	n/a	n/a	n/a	n/a	n/a	n/a	n/a	n/a
131.8891	0.5167	FIXCROSS	n/a	n/a	n/a	n/a	n/a	n/a	n/a	n/a
132.4058	0.8333	INK	36	Incongruent	żółty	yellow	zielony	green	hit	n/a
133.2212	n/a	RESPONSE	n/a	n/a	n/a	n/a	n/a	n/a	n/a	green
133.2392	1.0167	ITI	n/a	n/a	n/a	n/a	n/a	n/a	n/a	n/a
134.2559	0.5167	FIXCROSS	n/a	n/a	n/a	n/a	n/a	n/a	n/a	n/a
134.7725	0.7	INK	37	Neutral	xxxxx	xxxxx	czerwony	red	hit	n/a
135.4402	n/a	RESPONSE	n/a	n/a	n/a	n/a	n/a	n/a	n/a	red
135.4725	1.0167	ITI	n/a	n/a	n/a	n/a	n/a	n/a	n/a	n/a
136.4892	0.5167	FIXCROSS	n/a	n/a	n/a	n/a	n/a	n/a	n/a	n/a
137.0059	0.6833	INK	38	Neutral	xxxxxxx	xxxxxxx	niebieski	blue	hit	n/a
137.6591	n/a	RESPONSE	n/a	n/a	n/a	n/a	n/a	n/a	n/a	blue
137.6892	1.0167	ITI	n/a	n/a	n/a	n/a	n/a	n/a	n/a	n/a
138.7059	0.5166	FIXCROSS	n/a	n/a	n/a	n/a	n/a	n/a	n/a	n/a
139.2225	0.9167	INK	39	Neutral	xxxxxxxx	xxxxxxxx	zielony	green	hit	n/a
140.1176	n/a	RESPONSE	n/a	n/a	n/a	n/a	n/a	n/a	n/a	green
140.1392	1.0166	ITI	n/a	n/a	n/a	n/a	n/a	n/a	n/a	n/a
141.1559	0.5167	FIXCROSS	n/a	n/a	n/a	n/a	n/a	n/a	n/a	n/a
141.6726	0.7833	INK	40	Incongruent	żółty	yellow	czerwony	red	hit	n/a
142.4325	n/a	RESPONSE	n/a	n/a	n/a	n/a	n/a	n/a	n/a	red
142.4559	1.0167	ITI	n/a	n/a	n/a	n/a	n/a	n/a	n/a	n/a
143.4726	0.5167	FIXCROSS	n/a	n/a	n/a	n/a	n/a	n/a	n/a	n/a
143.9893	0.8667	INK	41	Neutral	xxxxxxxxx	xxxxxxxxx	zielony	green	hit	n/a
144.8271	n/a	RESPONSE	n/a	n/a	n/a	n/a	n/a	n/a	n/a	green
144.8559	1.0166	ITI	n/a	n/a	n/a	n/a	n/a	n/a	n/a	n/a
145.8726	0.5167	FIXCROSS	n/a	n/a	n/a	n/a	n/a	n/a	n/a	n/a
146.3893	0.85	INK	42	Incongruent	zielony	green	czerwony	red	hit	n/a
147.2058	n/a	RESPONSE	n/a	n/a	n/a	n/a	n/a	n/a	n/a	red
147.2393	1.0167	ITI	n/a	n/a	n/a	n/a	n/a	n/a	n/a	n/a
148.256	0.5166	FIXCROSS	n/a	n/a	n/a	n/a	n/a	n/a	n/a	n/a
148.7726	0.8	INK	43	Neutral	xxxxx	xxxxx	niebieski	blue	hit	n/a
149.5525	n/a	RESPONSE	n/a	n/a	n/a	n/a	n/a	n/a	n/a	blue
149.5726	1.0167	ITI	n/a	n/a	n/a	n/a	n/a	n/a	n/a	n/a
150.5893	0.5166	FIXCROSS	n/a	n/a	n/a	n/a	n/a	n/a	n/a	n/a
151.1059	0.7167	INK	44	Neutral	xxxxxxxxx	xxxxxxxxx	żółty	yellow	hit	n/a
151.8035	n/a	RESPONSE	n/a	n/a	n/a	n/a	n/a	n/a	n/a	yellow
151.8226	1.0167	ITI	n/a	n/a	n/a	n/a	n/a	n/a	n/a	n/a
152.8393	0.5167	FIXCROSS	n/a	n/a	n/a	n/a	n/a	n/a	n/a	n/a
153.356	0.8	INK	45	Incongruent	czerwony	red	zielony	green	hit	n/a
154.1343	n/a	RESPONSE	n/a	n/a	n/a	n/a	n/a	n/a	n/a	green
154.156	1.0167	ITI	n/a	n/a	n/a	n/a	n/a	n/a	n/a	n/a
155.1727	0.5167	FIXCROSS	n/a	n/a	n/a	n/a	n/a	n/a	n/a	n/a
155.6893	0.75	INK	46	Neutral	xxxxx	xxxxx	zielony	green	hit	n/a
156.4172	n/a	RESPONSE	n/a	n/a	n/a	n/a	n/a	n/a	n/a	green
156.4393	1.0167	ITI	n/a	n/a	n/a	n/a	n/a	n/a	n/a	n/a
157.456	0.5166	FIXCROSS	n/a	n/a	n/a	n/a	n/a	n/a	n/a	n/a
157.9727	0.7	INK	47	Incongruent	zielony	green	niebieski	blue	hit	n/a
158.6522	n/a	RESPONSE	n/a	n/a	n/a	n/a	n/a	n/a	n/a	blue
158.6726	1.0167	ITI	n/a	n/a	n/a	n/a	n/a	n/a	n/a	n/a
159.6894	0.5166	FIXCROSS	n/a	n/a	n/a	n/a	n/a	n/a	n/a	n/a
160.206	0.85	INK	48	Neutral	xxxxxxxx	xxxxxxxx	zielony	green	hit	n/a
161.0308	n/a	RESPONSE	n/a	n/a	n/a	n/a	n/a	n/a	n/a	green
161.056	1.0167	ITI	n/a	n/a	n/a	n/a	n/a	n/a	n/a	n/a
162.0727	0.5167	FIXCROSS	n/a	n/a	n/a	n/a	n/a	n/a	n/a	n/a
162.5894	0.9	INK	49	Neutral	xxxxxxxx	xxxxxxxx	niebieski	blue	hit	n/a
163.4573	n/a	RESPONSE	n/a	n/a	n/a	n/a	n/a	n/a	n/a	blue
163.4894	1.0166	ITI	n/a	n/a	n/a	n/a	n/a	n/a	n/a	n/a
164.506	0.5167	FIXCROSS	n/a	n/a	n/a	n/a	n/a	n/a	n/a	n/a
165.0227	0.8334	INK	50	Incongruent	żółty	yellow	niebieski	blue	hit	n/a
165.8361	n/a	RESPONSE	n/a	n/a	n/a	n/a	n/a	n/a	n/a	blue
165.8561	1.0167	ITI	n/a	n/a	n/a	n/a	n/a	n/a	n/a	n/a
166.8727	0.5167	FIXCROSS	n/a	n/a	n/a	n/a	n/a	n/a	n/a	n/a
167.3894	0.8833	INK	51	Incongruent	czerwony	red	zielony	green	hit	n/a
168.2467	n/a	RESPONSE	n/a	n/a	n/a	n/a	n/a	n/a	n/a	green
168.2728	1.0167	ITI	n/a	n/a	n/a	n/a	n/a	n/a	n/a	n/a
169.2894	0.5167	FIXCROSS	n/a	n/a	n/a	n/a	n/a	n/a	n/a	n/a
169.8061	0.7333	INK	52	Neutral	xxxxxxx	xxxxxxx	niebieski	blue	hit	n/a
170.5135	n/a	RESPONSE	n/a	n/a	n/a	n/a	n/a	n/a	n/a	blue
170.5394	1.0167	ITI	n/a	n/a	n/a	n/a	n/a	n/a	n/a	n/a
171.5561	0.5166	FIXCROSS	n/a	n/a	n/a	n/a	n/a	n/a	n/a	n/a
172.0728	0.7	INK	53	Neutral	xxxxxxxxx	xxxxxxxxx	czerwony	red	hit	n/a
172.7486	n/a	RESPONSE	n/a	n/a	n/a	n/a	n/a	n/a	n/a	red
172.7728	1.0166	ITI	n/a	n/a	n/a	n/a	n/a	n/a	n/a	n/a
173.7894	0.5167	FIXCROSS	n/a	n/a	n/a	n/a	n/a	n/a	n/a	n/a
174.3061	0.6833	INK	54	Neutral	xxxxx	xxxxx	zielony	green	hit	n/a
174.9676	n/a	RESPONSE	n/a	n/a	n/a	n/a	n/a	n/a	n/a	green
174.9894	1.0167	ITI	n/a	n/a	n/a	n/a	n/a	n/a	n/a	n/a
176.0061	0.5167	FIXCROSS	n/a	n/a	n/a	n/a	n/a	n/a	n/a	n/a
176.5228	0.6333	INK	55	Neutral	xxxxxxxx	xxxxxxxx	żółty	yellow	hit	n/a
177.1387	n/a	RESPONSE	n/a	n/a	n/a	n/a	n/a	n/a	n/a	yellow
177.1562	1.0167	ITI	n/a	n/a	n/a	n/a	n/a	n/a	n/a	n/a
178.1728	0.5167	FIXCROSS	n/a	n/a	n/a	n/a	n/a	n/a	n/a	n/a
178.6895	0.8333	INK	56	Incongruent	niebieski	blue	zielony	green	hit	n/a
179.5014	n/a	RESPONSE	n/a	n/a	n/a	n/a	n/a	n/a	n/a	green
179.5228	1.0167	ITI	n/a	n/a	n/a	n/a	n/a	n/a	n/a	n/a
180.5395	0.5166	FIXCROSS	n/a	n/a	n/a	n/a	n/a	n/a	n/a	n/a
181.0562	0.6167	INK	57	Incongruent	żółty	yellow	zielony	green	hit	n/a
181.6406	n/a	RESPONSE	n/a	n/a	n/a	n/a	n/a	n/a	n/a	green
181.6728	1.0167	ITI	n/a	n/a	n/a	n/a	n/a	n/a	n/a	n/a
182.6895	0.5167	FIXCROSS	n/a	n/a	n/a	n/a	n/a	n/a	n/a	n/a
183.2062	0.7	INK	58	Neutral	xxxxx	xxxxx	czerwony	red	hit	n/a
183.8756	n/a	RESPONSE	n/a	n/a	n/a	n/a	n/a	n/a	n/a	red
183.9062	1.0166	ITI	n/a	n/a	n/a	n/a	n/a	n/a	n/a	n/a
184.9228	0.5167	FIXCROSS	n/a	n/a	n/a	n/a	n/a	n/a	n/a	n/a
185.4395	0.6333	INK	59	Incongruent	zielony	green	czerwony	red	hit	n/a
186.0467	n/a	RESPONSE	n/a	n/a	n/a	n/a	n/a	n/a	n/a	red
186.0728	1.0167	ITI	n/a	n/a	n/a	n/a	n/a	n/a	n/a	n/a
187.0896	0.5167	FIXCROSS	n/a	n/a	n/a	n/a	n/a	n/a	n/a	n/a
187.6062	0.6333	INK	60	Neutral	xxxxxxxxx	xxxxxxxxx	czerwony	red	hit	n/a
188.2179	n/a	RESPONSE	n/a	n/a	n/a	n/a	n/a	n/a	n/a	red
188.2395	1.0167	ITI	n/a	n/a	n/a	n/a	n/a	n/a	n/a	n/a
189.2562	0.5166	FIXCROSS	n/a	n/a	n/a	n/a	n/a	n/a	n/a	n/a
189.7729	0.7	INK	61	Neutral	xxxxxxxx	xxxxxxxx	żółty	yellow	hit	n/a
190.4529	n/a	RESPONSE	n/a	n/a	n/a	n/a	n/a	n/a	n/a	yellow
190.4729	1.0167	ITI	n/a	n/a	n/a	n/a	n/a	n/a	n/a	n/a
191.4896	0.5167	FIXCROSS	n/a	n/a	n/a	n/a	n/a	n/a	n/a	n/a
192.0063	0.9	INK	62	Incongruent	niebieski	blue	zielony	green	hit	n/a
192.8795	n/a	RESPONSE	n/a	n/a	n/a	n/a	n/a	n/a	n/a	green
192.9063	1.0167	ITI	n/a	n/a	n/a	n/a	n/a	n/a	n/a	n/a
193.9229	0.5167	FIXCROSS	n/a	n/a	n/a	n/a	n/a	n/a	n/a	n/a
194.4396	0.7165	INK	63	Incongruent	niebieski	blue	żółty	yellow	hit	n/a
195.1305	n/a	RESPONSE	n/a	n/a	n/a	n/a	n/a	n/a	n/a	yellow
195.1561	1.0168	ITI	n/a	n/a	n/a	n/a	n/a	n/a	n/a	n/a
196.1729	0.5167	FIXCROSS	n/a	n/a	n/a	n/a	n/a	n/a	n/a	n/a
196.6896	0.7	INK	64	Incongruent	żółty	yellow	czerwony	red	hit	n/a
197.3654	n/a	RESPONSE	n/a	n/a	n/a	n/a	n/a	n/a	n/a	red
197.3896	1.0166	ITI	n/a	n/a	n/a	n/a	n/a	n/a	n/a	n/a
198.4063	0.5167	FIXCROSS	n/a	n/a	n/a	n/a	n/a	n/a	n/a	n/a
198.923	0.85	INK	65	Incongruent	zielony	green	czerwony	red	hit	n/a
199.7442	n/a	RESPONSE	n/a	n/a	n/a	n/a	n/a	n/a	n/a	red
199.773	1.0166	ITI	n/a	n/a	n/a	n/a	n/a	n/a	n/a	n/a
200.7896	0.5167	FIXCROSS	n/a	n/a	n/a	n/a	n/a	n/a	n/a	n/a
201.3063	0.7333	INK	66	Incongruent	żółty	yellow	zielony	green	hit	n/a
202.0112	n/a	RESPONSE	n/a	n/a	n/a	n/a	n/a	n/a	n/a	green
202.0396	1.0167	ITI	n/a	n/a	n/a	n/a	n/a	n/a	n/a	n/a
203.0563	0.5167	FIXCROSS	n/a	n/a	n/a	n/a	n/a	n/a	n/a	n/a
203.573	0.6167	INK	67	Incongruent	czerwony	red	niebieski	blue	hit	n/a
204.1664	n/a	RESPONSE	n/a	n/a	n/a	n/a	n/a	n/a	n/a	blue
204.1897	1.0166	ITI	n/a	n/a	n/a	n/a	n/a	n/a	n/a	n/a
205.2063	0.5167	FIXCROSS	n/a	n/a	n/a	n/a	n/a	n/a	n/a	n/a
205.723	0.6667	INK	68	Incongruent	czerwony	red	niebieski	blue	hit	n/a
206.3695	n/a	RESPONSE	n/a	n/a	n/a	n/a	n/a	n/a	n/a	blue
206.3897	1.0166	ITI	n/a	n/a	n/a	n/a	n/a	n/a	n/a	n/a
207.4063	0.5167	FIXCROSS	n/a	n/a	n/a	n/a	n/a	n/a	n/a	n/a
207.923	0.55	INK	69	Incongruent	niebieski	blue	żółty	yellow	hit	n/a
208.4448	n/a	RESPONSE	n/a	n/a	n/a	n/a	n/a	n/a	n/a	yellow
208.473	1.0167	ITI	n/a	n/a	n/a	n/a	n/a	n/a	n/a	n/a
209.4897	0.5167	FIXCROSS	n/a	n/a	n/a	n/a	n/a	n/a	n/a	n/a
210.0064	0.7667	INK	70	Neutral	xxxxxxx	xxxxxxx	niebieski	blue	hit	n/a
210.7435	n/a	RESPONSE	n/a	n/a	n/a	n/a	n/a	n/a	n/a	blue
210.7731	1.0167	ITI	n/a	n/a	n/a	n/a	n/a	n/a	n/a	n/a
211.7897	0.5167	FIXCROSS	n/a	n/a	n/a	n/a	n/a	n/a	n/a	n/a
212.3064	0.5667	INK	71	Neutral	xxxxx	xxxxx	niebieski	blue	hit	n/a
212.8509	n/a	RESPONSE	n/a	n/a	n/a	n/a	n/a	n/a	n/a	blue
212.8731	1.0167	ITI	n/a	n/a	n/a	n/a	n/a	n/a	n/a	n/a
213.8897	0.5167	FIXCROSS	n/a	n/a	n/a	n/a	n/a	n/a	n/a	n/a
214.4064	0.6333	INK	72	Incongruent	żółty	yellow	niebieski	blue	hit	n/a
215.022	n/a	RESPONSE	n/a	n/a	n/a	n/a	n/a	n/a	n/a	blue
215.0397	1.0829	ITI	n/a	n/a	n/a	n/a	n/a	n/a	n/a	n/a
236.8451	n/a	RESPONSE	n/a	n/a	n/a	n/a	n/a	n/a	n/a	n/a
236.9065	1.0167	ITI	n/a	n/a	n/a	n/a	n/a	n/a	n/a	n/a
237.9232	0.5167	FIXCROSS	n/a	n/a	n/a	n/a	n/a	n/a	n/a	n/a
238.4399	1.0	T_COLOR_NAME	1	Neutral	żółty	yellow	Neutral	Neutral	hit	n/a
239.4155	n/a	RESPONSE	n/a	n/a	n/a	n/a	n/a	n/a	n/a	yellow
239.4399	0.5166	FEEDBACK	n/a	n/a	n/a	n/a	n/a	n/a	n/a	n/a
239.9565	1.0167	ITI	n/a	n/a	n/a	n/a	n/a	n/a	n/a	n/a
240.9732	0.5167	FIXCROSS	n/a	n/a	n/a	n/a	n/a	n/a	n/a	n/a
241.4899	0.9667	T_COLOR_NAME	2	Neutral	niebieski	blue	Neutral	Neutral	hit	n/a
242.4326	n/a	RESPONSE	n/a	n/a	n/a	n/a	n/a	n/a	n/a	blue
242.4566	0.5167	FEEDBACK	n/a	n/a	n/a	n/a	n/a	n/a	n/a	n/a
242.9733	1.0167	ITI	n/a	n/a	n/a	n/a	n/a	n/a	n/a	n/a
243.9899	0.5166	FIXCROSS	n/a	n/a	n/a	n/a	n/a	n/a	n/a	n/a
244.5066	1.4167	T_COLOR_NAME	3	Incongruent	żółty	yellow	zielony	green	hit	n/a
245.8968	n/a	RESPONSE	n/a	n/a	n/a	n/a	n/a	n/a	n/a	yellow
245.9233	0.5167	FEEDBACK	n/a	n/a	n/a	n/a	n/a	n/a	n/a	n/a
246.44	1.0167	ITI	n/a	n/a	n/a	n/a	n/a	n/a	n/a	n/a
247.4566	0.5167	FIXCROSS	n/a	n/a	n/a	n/a	n/a	n/a	n/a	n/a
247.9733	1.0333	T_COLOR_NAME	4	Incongruent	niebieski	blue	zielony	green	hit	n/a
248.9779	n/a	RESPONSE	n/a	n/a	n/a	n/a	n/a	n/a	n/a	blue
249.0066	0.5167	FEEDBACK	n/a	n/a	n/a	n/a	n/a	n/a	n/a	n/a
249.5233	1.0167	ITI	n/a	n/a	n/a	n/a	n/a	n/a	n/a	n/a
250.54	0.5166	FIXCROSS	n/a	n/a	n/a	n/a	n/a	n/a	n/a	n/a
251.0566	0.75	T_COLOR_NAME	5	Neutral	czerwony	red	Neutral	Neutral	hit	n/a
251.7877	n/a	RESPONSE	n/a	n/a	n/a	n/a	n/a	n/a	n/a	red
251.8067	0.5167	FEEDBACK	n/a	n/a	n/a	n/a	n/a	n/a	n/a	n/a
252.3233	1.0167	ITI	n/a	n/a	n/a	n/a	n/a	n/a	n/a	n/a
253.34	0.5167	FIXCROSS	n/a	n/a	n/a	n/a	n/a	n/a	n/a	n/a
253.8567	0.8	T_COLOR_NAME	6	Neutral	niebieski	blue	Neutral	Neutral	hit	n/a
254.6293	n/a	RESPONSE	n/a	n/a	n/a	n/a	n/a	n/a	n/a	blue
254.6567	0.5167	FEEDBACK	n/a	n/a	n/a	n/a	n/a	n/a	n/a	n/a
255.1733	1.0167	ITI	n/a	n/a	n/a	n/a	n/a	n/a	n/a	n/a
256.19	0.5166	FIXCROSS	n/a	n/a	n/a	n/a	n/a	n/a	n/a	n/a
256.7067	0.8833	T_COLOR_NAME	7	Incongruent	żółty	yellow	czerwony	red	hit	n/a
257.5667	n/a	RESPONSE	n/a	n/a	n/a	n/a	n/a	n/a	n/a	yellow
257.59	0.5167	FEEDBACK	n/a	n/a	n/a	n/a	n/a	n/a	n/a	n/a
258.1067	1.0166	ITI	n/a	n/a	n/a	n/a	n/a	n/a	n/a	n/a
259.1233	0.5167	FIXCROSS	n/a	n/a	n/a	n/a	n/a	n/a	n/a	n/a
259.64	0.75	T_COLOR_NAME	8	Incongruent	żółty	yellow	niebieski	blue	hit	n/a
260.3604	n/a	RESPONSE	n/a	n/a	n/a	n/a	n/a	n/a	n/a	yellow
260.3901	0.5166	FEEDBACK	n/a	n/a	n/a	n/a	n/a	n/a	n/a	n/a
260.9067	1.0167	ITI	n/a	n/a	n/a	n/a	n/a	n/a	n/a	n/a
261.9234	0.5167	FIXCROSS	n/a	n/a	n/a	n/a	n/a	n/a	n/a	n/a
262.4401	0.9667	T_COLOR_NAME	9	Neutral	zielony	green	Neutral	Neutral	hit	n/a
263.3778	n/a	RESPONSE	n/a	n/a	n/a	n/a	n/a	n/a	n/a	green
263.4067	0.5166	FEEDBACK	n/a	n/a	n/a	n/a	n/a	n/a	n/a	n/a
263.9234	1.0167	ITI	n/a	n/a	n/a	n/a	n/a	n/a	n/a	n/a
264.9401	0.5167	FIXCROSS	n/a	n/a	n/a	n/a	n/a	n/a	n/a	n/a
265.4567	0.75	T_COLOR_NAME	10	Neutral	żółty	yellow	Neutral	Neutral	hit	n/a
266.1875	n/a	RESPONSE	n/a	n/a	n/a	n/a	n/a	n/a	n/a	yellow
266.2067	0.5167	FEEDBACK	n/a	n/a	n/a	n/a	n/a	n/a	n/a	n/a
266.7234	1.0167	ITI	n/a	n/a	n/a	n/a	n/a	n/a	n/a	n/a
267.7401	0.5167	FIXCROSS	n/a	n/a	n/a	n/a	n/a	n/a	n/a	n/a
268.2568	1.0667	T_COLOR_NAME	11	Neutral	zielony	green	Neutral	Neutral	hit	n/a
269.3005	n/a	RESPONSE	n/a	n/a	n/a	n/a	n/a	n/a	n/a	green
269.3234	0.5167	FEEDBACK	n/a	n/a	n/a	n/a	n/a	n/a	n/a	n/a
269.8401	1.0166	ITI	n/a	n/a	n/a	n/a	n/a	n/a	n/a	n/a
270.8568	0.5167	FIXCROSS	n/a	n/a	n/a	n/a	n/a	n/a	n/a	n/a
271.3735	0.75	T_COLOR_NAME	12	Neutral	żółty	yellow	Neutral	Neutral	hit	n/a
272.0942	n/a	RESPONSE	n/a	n/a	n/a	n/a	n/a	n/a	n/a	yellow
272.1235	0.5167	FEEDBACK	n/a	n/a	n/a	n/a	n/a	n/a	n/a	n/a
272.6401	1.0333	ITI	n/a	n/a	n/a	n/a	n/a	n/a	n/a	n/a
275.2391	n/a	RESPONSE	n/a	n/a	n/a	n/a	n/a	n/a	n/a	n/a
275.3068	1.0167	ITI	n/a	n/a	n/a	n/a	n/a	n/a	n/a	n/a
276.3235	0.5167	FIXCROSS	n/a	n/a	n/a	n/a	n/a	n/a	n/a	n/a
276.8402	1.1833	COLOR_NAME	1	Neutral	czerwony	red	Neutral	Neutral	hit	n/a
278.001	n/a	RESPONSE	n/a	n/a	n/a	n/a	n/a	n/a	n/a	red
278.0235	1.0167	ITI	n/a	n/a	n/a	n/a	n/a	n/a	n/a	n/a
279.0402	0.5167	FIXCROSS	n/a	n/a	n/a	n/a	n/a	n/a	n/a	n/a
279.5568	0.6333	COLOR_NAME	2	Neutral	żółty	yellow	Neutral	Neutral	hit	n/a
280.1722	n/a	RESPONSE	n/a	n/a	n/a	n/a	n/a	n/a	n/a	yellow
280.1901	1.0167	ITI	n/a	n/a	n/a	n/a	n/a	n/a	n/a	n/a
281.2069	0.5167	FIXCROSS	n/a	n/a	n/a	n/a	n/a	n/a	n/a	n/a
281.7235	1.15	COLOR_NAME	3	Incongruent	czerwony	red	niebieski	blue	hit	n/a
282.8542	n/a	RESPONSE	n/a	n/a	n/a	n/a	n/a	n/a	n/a	red
282.8735	1.0167	ITI	n/a	n/a	n/a	n/a	n/a	n/a	n/a	n/a
283.8902	0.5166	FIXCROSS	n/a	n/a	n/a	n/a	n/a	n/a	n/a	n/a
284.4069	0.6667	COLOR_NAME	4	Incongruent	żółty	yellow	czerwony	red	hit	n/a
285.0412	n/a	RESPONSE	n/a	n/a	n/a	n/a	n/a	n/a	n/a	yellow
285.0736	1.0167	ITI	n/a	n/a	n/a	n/a	n/a	n/a	n/a	n/a
286.0902	0.5167	FIXCROSS	n/a	n/a	n/a	n/a	n/a	n/a	n/a	n/a
286.6069	1.0833	COLOR_NAME	5	Incongruent	czerwony	red	zielony	green	hit	n/a
287.6594	n/a	RESPONSE	n/a	n/a	n/a	n/a	n/a	n/a	n/a	red
287.6902	1.0166	ITI	n/a	n/a	n/a	n/a	n/a	n/a	n/a	n/a
288.7069	0.5167	FIXCROSS	n/a	n/a	n/a	n/a	n/a	n/a	n/a	n/a
289.2235	0.65	COLOR_NAME	6	Neutral	żółty	yellow	Neutral	Neutral	hit	n/a
289.8465	n/a	RESPONSE	n/a	n/a	n/a	n/a	n/a	n/a	n/a	yellow
289.8736	1.0167	ITI	n/a	n/a	n/a	n/a	n/a	n/a	n/a	n/a
290.8902	0.5167	FIXCROSS	n/a	n/a	n/a	n/a	n/a	n/a	n/a	n/a
291.4069	0.8667	COLOR_NAME	7	Incongruent	niebieski	blue	czerwony	red	hit	n/a
292.241	n/a	RESPONSE	n/a	n/a	n/a	n/a	n/a	n/a	n/a	blue
292.2736	1.0167	ITI	n/a	n/a	n/a	n/a	n/a	n/a	n/a	n/a
293.2903	0.5167	FIXCROSS	n/a	n/a	n/a	n/a	n/a	n/a	n/a	n/a
293.8069	0.7333	COLOR_NAME	8	Neutral	zielony	green	Neutral	Neutral	hit	n/a
294.508	n/a	RESPONSE	n/a	n/a	n/a	n/a	n/a	n/a	n/a	green
294.5403	1.0167	ITI	n/a	n/a	n/a	n/a	n/a	n/a	n/a	n/a
295.5569	0.5167	FIXCROSS	n/a	n/a	n/a	n/a	n/a	n/a	n/a	n/a
296.0736	0.8	COLOR_NAME	9	Neutral	żółty	yellow	Neutral	Neutral	hit	n/a
296.8548	n/a	RESPONSE	n/a	n/a	n/a	n/a	n/a	n/a	n/a	yellow
296.8736	1.0167	ITI	n/a	n/a	n/a	n/a	n/a	n/a	n/a	n/a
297.8903	0.5167	FIXCROSS	n/a	n/a	n/a	n/a	n/a	n/a	n/a	n/a
298.407	0.9667	COLOR_NAME	10	Neutral	czerwony	red	Neutral	Neutral	hit	n/a
299.3451	n/a	RESPONSE	n/a	n/a	n/a	n/a	n/a	n/a	n/a	red
299.3736	1.0167	ITI	n/a	n/a	n/a	n/a	n/a	n/a	n/a	n/a
300.3903	0.5166	FIXCROSS	n/a	n/a	n/a	n/a	n/a	n/a	n/a	n/a
300.9069	0.9667	COLOR_NAME	11	Incongruent	zielony	green	niebieski	blue	hit	n/a
301.8516	n/a	RESPONSE	n/a	n/a	n/a	n/a	n/a	n/a	n/a	green
301.8737	1.0167	ITI	n/a	n/a	n/a	n/a	n/a	n/a	n/a	n/a
302.8903	0.5166	FIXCROSS	n/a	n/a	n/a	n/a	n/a	n/a	n/a	n/a
303.407	0.8334	COLOR_NAME	12	Neutral	zielony	green	Neutral	Neutral	hit	n/a
304.2142	n/a	RESPONSE	n/a	n/a	n/a	n/a	n/a	n/a	n/a	green
304.2403	1.0166	ITI	n/a	n/a	n/a	n/a	n/a	n/a	n/a	n/a
305.257	0.5167	FIXCROSS	n/a	n/a	n/a	n/a	n/a	n/a	n/a	n/a
305.7737	0.6333	COLOR_NAME	13	Neutral	zielony	green	Neutral	Neutral	hit	n/a
306.3854	n/a	RESPONSE	n/a	n/a	n/a	n/a	n/a	n/a	n/a	green
306.407	1.0167	ITI	n/a	n/a	n/a	n/a	n/a	n/a	n/a	n/a
307.4237	0.5166	FIXCROSS	n/a	n/a	n/a	n/a	n/a	n/a	n/a	n/a
307.9403	0.8667	COLOR_NAME	14	Neutral	czerwony	red	Neutral	Neutral	hit	n/a
308.78	n/a	RESPONSE	n/a	n/a	n/a	n/a	n/a	n/a	n/a	red
308.807	1.0166	ITI	n/a	n/a	n/a	n/a	n/a	n/a	n/a	n/a
309.8237	0.5167	FIXCROSS	n/a	n/a	n/a	n/a	n/a	n/a	n/a	n/a
310.3404	0.7833	COLOR_NAME	15	Neutral	zielony	green	Neutral	Neutral	hit	n/a
311.0948	n/a	RESPONSE	n/a	n/a	n/a	n/a	n/a	n/a	n/a	green
311.1237	1.0167	ITI	n/a	n/a	n/a	n/a	n/a	n/a	n/a	n/a
312.1404	0.5166	FIXCROSS	n/a	n/a	n/a	n/a	n/a	n/a	n/a	n/a
312.657	0.9333	COLOR_NAME	16	Incongruent	czerwony	red	niebieski	blue	hit	n/a
313.5693	n/a	RESPONSE	n/a	n/a	n/a	n/a	n/a	n/a	n/a	red
313.5904	1.0167	ITI	n/a	n/a	n/a	n/a	n/a	n/a	n/a	n/a
314.6071	0.5167	FIXCROSS	n/a	n/a	n/a	n/a	n/a	n/a	n/a	n/a
315.1238	0.8833	COLOR_NAME	17	Neutral	niebieski	blue	Neutral	Neutral	hit	n/a
315.9799	n/a	RESPONSE	n/a	n/a	n/a	n/a	n/a	n/a	n/a	blue
316.0071	1.0167	ITI	n/a	n/a	n/a	n/a	n/a	n/a	n/a	n/a
317.0238	0.5167	FIXCROSS	n/a	n/a	n/a	n/a	n/a	n/a	n/a	n/a
317.5404	0.8	COLOR_NAME	18	Neutral	czerwony	red	Neutral	Neutral	hit	n/a
318.3106	n/a	RESPONSE	n/a	n/a	n/a	n/a	n/a	n/a	n/a	red
318.3405	1.0167	ITI	n/a	n/a	n/a	n/a	n/a	n/a	n/a	n/a
319.3571	0.5167	FIXCROSS	n/a	n/a	n/a	n/a	n/a	n/a	n/a	n/a
319.8738	0.7334	COLOR_NAME	19	Neutral	żółty	yellow	Neutral	Neutral	hit	n/a
320.5776	n/a	RESPONSE	n/a	n/a	n/a	n/a	n/a	n/a	n/a	yellow
320.6071	1.0167	ITI	n/a	n/a	n/a	n/a	n/a	n/a	n/a	n/a
321.6238	0.5167	FIXCROSS	n/a	n/a	n/a	n/a	n/a	n/a	n/a	n/a
322.1405	0.8667	COLOR_NAME	20	Incongruent	żółty	yellow	zielony	green	hit	n/a
322.9882	n/a	RESPONSE	n/a	n/a	n/a	n/a	n/a	n/a	n/a	yellow
323.0071	1.0167	ITI	n/a	n/a	n/a	n/a	n/a	n/a	n/a	n/a
324.0238	0.5167	FIXCROSS	n/a	n/a	n/a	n/a	n/a	n/a	n/a	n/a
324.5405	0.9833	COLOR_NAME	21	Neutral	zielony	green	Neutral	Neutral	hit	n/a
325.4946	n/a	RESPONSE	n/a	n/a	n/a	n/a	n/a	n/a	n/a	green
325.5238	1.0167	ITI	n/a	n/a	n/a	n/a	n/a	n/a	n/a	n/a
326.5405	0.5167	FIXCROSS	n/a	n/a	n/a	n/a	n/a	n/a	n/a	n/a
327.0572	0.6667	COLOR_NAME	22	Neutral	żółty	yellow	Neutral	Neutral	hit	n/a
327.6976	n/a	RESPONSE	n/a	n/a	n/a	n/a	n/a	n/a	n/a	yellow
327.7238	1.0167	ITI	n/a	n/a	n/a	n/a	n/a	n/a	n/a	n/a
328.7405	0.5166	FIXCROSS	n/a	n/a	n/a	n/a	n/a	n/a	n/a	n/a
329.2571	0.8333	COLOR_NAME	23	Neutral	niebieski	blue	Neutral	Neutral	hit	n/a
330.0602	n/a	RESPONSE	n/a	n/a	n/a	n/a	n/a	n/a	n/a	blue
330.0905	1.0167	ITI	n/a	n/a	n/a	n/a	n/a	n/a	n/a	n/a
331.1072	0.5167	FIXCROSS	n/a	n/a	n/a	n/a	n/a	n/a	n/a	n/a
331.6239	0.8167	COLOR_NAME	24	Neutral	żółty	yellow	Neutral	Neutral	hit	n/a
332.4229	n/a	RESPONSE	n/a	n/a	n/a	n/a	n/a	n/a	n/a	yellow
332.4405	1.0167	ITI	n/a	n/a	n/a	n/a	n/a	n/a	n/a	n/a
333.4572	0.5167	FIXCROSS	n/a	n/a	n/a	n/a	n/a	n/a	n/a	n/a
333.9739	0.85	COLOR_NAME	25	Neutral	niebieski	blue	Neutral	Neutral	hit	n/a
334.8016	n/a	RESPONSE	n/a	n/a	n/a	n/a	n/a	n/a	n/a	blue
334.8239	1.0167	ITI	n/a	n/a	n/a	n/a	n/a	n/a	n/a	n/a
335.8406	0.5167	FIXCROSS	n/a	n/a	n/a	n/a	n/a	n/a	n/a	n/a
336.3572	1.0167	COLOR_NAME	26	Incongruent	zielony	green	czerwony	red	hit	n/a
337.3399	n/a	RESPONSE	n/a	n/a	n/a	n/a	n/a	n/a	n/a	green
337.3739	1.0167	ITI	n/a	n/a	n/a	n/a	n/a	n/a	n/a	n/a
338.3906	0.5167	FIXCROSS	n/a	n/a	n/a	n/a	n/a	n/a	n/a	n/a
338.9073	0.7333	COLOR_NAME	27	Incongruent	żółty	yellow	zielony	green	hit	n/a
339.6068	n/a	RESPONSE	n/a	n/a	n/a	n/a	n/a	n/a	n/a	yellow
339.6406	1.0166	ITI	n/a	n/a	n/a	n/a	n/a	n/a	n/a	n/a
340.6572	0.5167	FIXCROSS	n/a	n/a	n/a	n/a	n/a	n/a	n/a	n/a
341.1739	0.8333	COLOR_NAME	28	Neutral	niebieski	blue	Neutral	Neutral	hit	n/a
341.9855	n/a	RESPONSE	n/a	n/a	n/a	n/a	n/a	n/a	n/a	blue
342.0072	1.0167	ITI	n/a	n/a	n/a	n/a	n/a	n/a	n/a	n/a
343.0239	0.5167	FIXCROSS	n/a	n/a	n/a	n/a	n/a	n/a	n/a	n/a
343.5406	0.7667	COLOR_NAME	29	Neutral	niebieski	blue	Neutral	Neutral	hit	n/a
344.2843	n/a	RESPONSE	n/a	n/a	n/a	n/a	n/a	n/a	n/a	blue
344.3073	1.0167	ITI	n/a	n/a	n/a	n/a	n/a	n/a	n/a	n/a
345.324	0.5166	FIXCROSS	n/a	n/a	n/a	n/a	n/a	n/a	n/a	n/a
345.8406	0.6834	COLOR_NAME	30	Neutral	niebieski	blue	Neutral	Neutral	hit	n/a
346.5034	n/a	RESPONSE	n/a	n/a	n/a	n/a	n/a	n/a	n/a	blue
346.524	1.0167	ITI	n/a	n/a	n/a	n/a	n/a	n/a	n/a	n/a
347.5406	0.5166	FIXCROSS	n/a	n/a	n/a	n/a	n/a	n/a	n/a	n/a
348.0573	0.8	COLOR_NAME	31	Incongruent	niebieski	blue	żółty	yellow	hit	n/a
348.8341	n/a	RESPONSE	n/a	n/a	n/a	n/a	n/a	n/a	n/a	blue
348.8573	1.0167	ITI	n/a	n/a	n/a	n/a	n/a	n/a	n/a	n/a
349.874	0.5167	FIXCROSS	n/a	n/a	n/a	n/a	n/a	n/a	n/a	n/a
350.3907	0.8166	COLOR_NAME	32	Incongruent	czerwony	red	zielony	green	hit	n/a
351.1808	n/a	RESPONSE	n/a	n/a	n/a	n/a	n/a	n/a	n/a	red
351.2073	1.0167	ITI	n/a	n/a	n/a	n/a	n/a	n/a	n/a	n/a
352.224	0.5167	FIXCROSS	n/a	n/a	n/a	n/a	n/a	n/a	n/a	n/a
352.7407	1.1667	COLOR_NAME	33	Incongruent	czerwony	red	żółty	yellow	hit	n/a
353.8788	n/a	RESPONSE	n/a	n/a	n/a	n/a	n/a	n/a	n/a	red
353.9073	1.0167	ITI	n/a	n/a	n/a	n/a	n/a	n/a	n/a	n/a
354.924	0.5167	FIXCROSS	n/a	n/a	n/a	n/a	n/a	n/a	n/a	n/a
355.4407	0.6833	COLOR_NAME	34	Incongruent	czerwony	red	żółty	yellow	hit	n/a
356.0979	n/a	RESPONSE	n/a	n/a	n/a	n/a	n/a	n/a	n/a	red
356.124	1.0167	ITI	n/a	n/a	n/a	n/a	n/a	n/a	n/a	n/a
357.1407	0.5166	FIXCROSS	n/a	n/a	n/a	n/a	n/a	n/a	n/a	n/a
357.6573	0.8667	COLOR_NAME	35	Incongruent	zielony	green	niebieski	blue	hit	n/a
358.4925	n/a	RESPONSE	n/a	n/a	n/a	n/a	n/a	n/a	n/a	green
358.524	1.0166	ITI	n/a	n/a	n/a	n/a	n/a	n/a	n/a	n/a
359.5407	0.5167	FIXCROSS	n/a	n/a	n/a	n/a	n/a	n/a	n/a	n/a
360.0574	1.1667	COLOR_NAME	36	Neutral	niebieski	blue	Neutral	Neutral	hit	n/a
361.1905	n/a	RESPONSE	n/a	n/a	n/a	n/a	n/a	n/a	n/a	blue
361.2241	1.0167	ITI	n/a	n/a	n/a	n/a	n/a	n/a	n/a	n/a
362.2407	0.5167	FIXCROSS	n/a	n/a	n/a	n/a	n/a	n/a	n/a	n/a
362.7574	0.9833	COLOR_NAME	37	Incongruent	zielony	green	niebieski	blue	hit	n/a
363.7128	n/a	RESPONSE	n/a	n/a	n/a	n/a	n/a	n/a	n/a	green
363.7407	1.0167	ITI	n/a	n/a	n/a	n/a	n/a	n/a	n/a	n/a
364.7574	0.5167	FIXCROSS	n/a	n/a	n/a	n/a	n/a	n/a	n/a	n/a
365.2741	0.7833	COLOR_NAME	38	Neutral	czerwony	red	Neutral	Neutral	hit	n/a
366.0277	n/a	RESPONSE	n/a	n/a	n/a	n/a	n/a	n/a	n/a	red
366.0574	1.0167	ITI	n/a	n/a	n/a	n/a	n/a	n/a	n/a	n/a
367.0741	0.5167	FIXCROSS	n/a	n/a	n/a	n/a	n/a	n/a	n/a	n/a
367.5908	1.0167	COLOR_NAME	39	Incongruent	czerwony	red	żółty	yellow	hit	n/a
368.5819	n/a	RESPONSE	n/a	n/a	n/a	n/a	n/a	n/a	n/a	red
368.6074	1.0167	ITI	n/a	n/a	n/a	n/a	n/a	n/a	n/a	n/a
369.6241	0.5167	FIXCROSS	n/a	n/a	n/a	n/a	n/a	n/a	n/a	n/a
370.1408	0.8333	COLOR_NAME	40	Incongruent	zielony	green	żółty	yellow	hit	n/a
370.9446	n/a	RESPONSE	n/a	n/a	n/a	n/a	n/a	n/a	n/a	green
370.9741	1.0167	ITI	n/a	n/a	n/a	n/a	n/a	n/a	n/a	n/a
371.9908	0.5166	FIXCROSS	n/a	n/a	n/a	n/a	n/a	n/a	n/a	n/a
372.5074	0.6334	COLOR_NAME	41	Incongruent	żółty	yellow	czerwony	red	hit	n/a
373.1157	n/a	RESPONSE	n/a	n/a	n/a	n/a	n/a	n/a	n/a	yellow
373.1408	1.0167	ITI	n/a	n/a	n/a	n/a	n/a	n/a	n/a	n/a
374.1575	0.5167	FIXCROSS	n/a	n/a	n/a	n/a	n/a	n/a	n/a	n/a
374.6742	0.8167	COLOR_NAME	42	Neutral	niebieski	blue	Neutral	Neutral	hit	n/a
375.4626	n/a	RESPONSE	n/a	n/a	n/a	n/a	n/a	n/a	n/a	blue
375.4908	1.0167	ITI	n/a	n/a	n/a	n/a	n/a	n/a	n/a	n/a
376.5075	0.5167	FIXCROSS	n/a	n/a	n/a	n/a	n/a	n/a	n/a	n/a
377.0242	0.8667	COLOR_NAME	43	Neutral	zielony	green	Neutral	Neutral	hit	n/a
377.8731	n/a	RESPONSE	n/a	n/a	n/a	n/a	n/a	n/a	n/a	green
377.8908	1.0167	ITI	n/a	n/a	n/a	n/a	n/a	n/a	n/a	n/a
378.9075	0.5166	FIXCROSS	n/a	n/a	n/a	n/a	n/a	n/a	n/a	n/a
379.4242	0.9834	COLOR_NAME	44	Neutral	niebieski	blue	Neutral	Neutral	hit	n/a
380.3793	n/a	RESPONSE	n/a	n/a	n/a	n/a	n/a	n/a	n/a	blue
380.4075	1.0167	ITI	n/a	n/a	n/a	n/a	n/a	n/a	n/a	n/a
381.4242	0.5167	FIXCROSS	n/a	n/a	n/a	n/a	n/a	n/a	n/a	n/a
381.9409	1.2667	COLOR_NAME	45	Incongruent	żółty	yellow	czerwony	red	hit	n/a
383.1892	n/a	RESPONSE	n/a	n/a	n/a	n/a	n/a	n/a	n/a	yellow
383.2076	1.0166	ITI	n/a	n/a	n/a	n/a	n/a	n/a	n/a	n/a
384.2242	0.5167	FIXCROSS	n/a	n/a	n/a	n/a	n/a	n/a	n/a	n/a
384.7409	0.8167	COLOR_NAME	46	Incongruent	niebieski	blue	czerwony	red	hit	n/a
385.536	n/a	RESPONSE	n/a	n/a	n/a	n/a	n/a	n/a	n/a	blue
385.5576	1.0166	ITI	n/a	n/a	n/a	n/a	n/a	n/a	n/a	n/a
386.5742	0.5167	FIXCROSS	n/a	n/a	n/a	n/a	n/a	n/a	n/a	n/a
387.0909	1.0333	COLOR_NAME	47	Neutral	zielony	green	Neutral	Neutral	hit	n/a
388.1062	n/a	RESPONSE	n/a	n/a	n/a	n/a	n/a	n/a	n/a	green
388.1242	1.0167	ITI	n/a	n/a	n/a	n/a	n/a	n/a	n/a	n/a
389.1409	0.5167	FIXCROSS	n/a	n/a	n/a	n/a	n/a	n/a	n/a	n/a
389.6576	1.0667	COLOR_NAME	48	Incongruent	niebieski	blue	czerwony	red	hit	n/a
390.6924	n/a	RESPONSE	n/a	n/a	n/a	n/a	n/a	n/a	n/a	blue
390.7243	1.0167	ITI	n/a	n/a	n/a	n/a	n/a	n/a	n/a	n/a
391.7409	0.5167	FIXCROSS	n/a	n/a	n/a	n/a	n/a	n/a	n/a	n/a
392.2576	0.9	COLOR_NAME	49	Incongruent	zielony	green	czerwony	red	hit	n/a
393.135	n/a	RESPONSE	n/a	n/a	n/a	n/a	n/a	n/a	n/a	green
393.1576	1.0167	ITI	n/a	n/a	n/a	n/a	n/a	n/a	n/a	n/a
394.1743	0.5167	FIXCROSS	n/a	n/a	n/a	n/a	n/a	n/a	n/a	n/a
394.691	0.7833	COLOR_NAME	50	Incongruent	żółty	yellow	niebieski	blue	hit	n/a
395.4498	n/a	RESPONSE	n/a	n/a	n/a	n/a	n/a	n/a	n/a	yellow
395.4743	1.0167	ITI	n/a	n/a	n/a	n/a	n/a	n/a	n/a	n/a
396.491	0.5167	FIXCROSS	n/a	n/a	n/a	n/a	n/a	n/a	n/a	n/a
397.0076	0.7	COLOR_NAME	51	Neutral	żółty	yellow	Neutral	Neutral	hit	n/a
397.6848	n/a	RESPONSE	n/a	n/a	n/a	n/a	n/a	n/a	n/a	yellow
397.7076	1.0167	ITI	n/a	n/a	n/a	n/a	n/a	n/a	n/a	n/a
398.7243	0.5166	FIXCROSS	n/a	n/a	n/a	n/a	n/a	n/a	n/a	n/a
399.241	0.8	COLOR_NAME	52	Neutral	żółty	yellow	Neutral	Neutral	hit	n/a
400.0155	n/a	RESPONSE	n/a	n/a	n/a	n/a	n/a	n/a	n/a	yellow
400.041	1.0166	ITI	n/a	n/a	n/a	n/a	n/a	n/a	n/a	n/a
401.0576	0.5167	FIXCROSS	n/a	n/a	n/a	n/a	n/a	n/a	n/a	n/a
401.5743	0.95	COLOR_NAME	53	Neutral	czerwony	red	Neutral	Neutral	hit	n/a
402.506	n/a	RESPONSE	n/a	n/a	n/a	n/a	n/a	n/a	n/a	red
402.5243	1.0167	ITI	n/a	n/a	n/a	n/a	n/a	n/a	n/a	n/a
403.541	0.5166	FIXCROSS	n/a	n/a	n/a	n/a	n/a	n/a	n/a	n/a
404.0577	0.75	COLOR_NAME	54	Incongruent	żółty	yellow	niebieski	blue	hit	n/a
404.789	n/a	RESPONSE	n/a	n/a	n/a	n/a	n/a	n/a	n/a	yellow
404.8077	1.0167	ITI	n/a	n/a	n/a	n/a	n/a	n/a	n/a	n/a
405.8244	0.5166	FIXCROSS	n/a	n/a	n/a	n/a	n/a	n/a	n/a	n/a
406.341	0.9834	COLOR_NAME	55	Incongruent	niebieski	blue	żółty	yellow	hit	n/a
407.2953	n/a	RESPONSE	n/a	n/a	n/a	n/a	n/a	n/a	n/a	blue
407.3244	1.0167	ITI	n/a	n/a	n/a	n/a	n/a	n/a	n/a	n/a
408.3411	0.5167	FIXCROSS	n/a	n/a	n/a	n/a	n/a	n/a	n/a	n/a
408.8577	0.9167	COLOR_NAME	56	Incongruent	zielony	green	żółty	yellow	hit	n/a
409.7538	n/a	RESPONSE	n/a	n/a	n/a	n/a	n/a	n/a	n/a	green
409.7744	1.0167	ITI	n/a	n/a	n/a	n/a	n/a	n/a	n/a	n/a
410.7911	0.5166	FIXCROSS	n/a	n/a	n/a	n/a	n/a	n/a	n/a	n/a
411.3077	0.9	COLOR_NAME	57	Incongruent	niebieski	blue	zielony	green	hit	n/a
412.1804	n/a	RESPONSE	n/a	n/a	n/a	n/a	n/a	n/a	n/a	blue
412.2077	1.0167	ITI	n/a	n/a	n/a	n/a	n/a	n/a	n/a	n/a
413.2244	0.5167	FIXCROSS	n/a	n/a	n/a	n/a	n/a	n/a	n/a	n/a
413.7411	0.8666	COLOR_NAME	58	Incongruent	niebieski	blue	zielony	green	hit	n/a
414.5749	n/a	RESPONSE	n/a	n/a	n/a	n/a	n/a	n/a	n/a	blue
414.6077	1.0167	ITI	n/a	n/a	n/a	n/a	n/a	n/a	n/a	n/a
415.6244	0.5167	FIXCROSS	n/a	n/a	n/a	n/a	n/a	n/a	n/a	n/a
416.1411	0.8666	COLOR_NAME	59	Incongruent	czerwony	red	niebieski	blue	hit	n/a
416.9857	n/a	RESPONSE	n/a	n/a	n/a	n/a	n/a	n/a	n/a	red
417.0077	1.0167	ITI	n/a	n/a	n/a	n/a	n/a	n/a	n/a	n/a
418.0245	0.5167	FIXCROSS	n/a	n/a	n/a	n/a	n/a	n/a	n/a	n/a
418.5411	0.9667	COLOR_NAME	60	Neutral	czerwony	red	Neutral	Neutral	hit	n/a
419.476	n/a	RESPONSE	n/a	n/a	n/a	n/a	n/a	n/a	n/a	red
419.5078	1.0167	ITI	n/a	n/a	n/a	n/a	n/a	n/a	n/a	n/a
420.5245	0.5166	FIXCROSS	n/a	n/a	n/a	n/a	n/a	n/a	n/a	n/a
421.0411	0.6	COLOR_NAME	61	Neutral	żółty	yellow	Neutral	Neutral	hit	n/a
421.6153	n/a	RESPONSE	n/a	n/a	n/a	n/a	n/a	n/a	n/a	yellow
421.6411	1.0167	ITI	n/a	n/a	n/a	n/a	n/a	n/a	n/a	n/a
422.6578	0.5167	FIXCROSS	n/a	n/a	n/a	n/a	n/a	n/a	n/a	n/a
423.1745	0.7833	COLOR_NAME	62	Incongruent	zielony	green	czerwony	red	hit	n/a
423.9301	n/a	RESPONSE	n/a	n/a	n/a	n/a	n/a	n/a	n/a	green
423.9578	1.0167	ITI	n/a	n/a	n/a	n/a	n/a	n/a	n/a	n/a
424.9745	0.5166	FIXCROSS	n/a	n/a	n/a	n/a	n/a	n/a	n/a	n/a
425.4911	0.7333	COLOR_NAME	63	Incongruent	niebieski	blue	żółty	yellow	hit	n/a
426.1969	n/a	RESPONSE	n/a	n/a	n/a	n/a	n/a	n/a	n/a	blue
426.2245	1.0167	ITI	n/a	n/a	n/a	n/a	n/a	n/a	n/a	n/a
427.2412	0.5167	FIXCROSS	n/a	n/a	n/a	n/a	n/a	n/a	n/a	n/a
427.7579	0.7833	COLOR_NAME	64	Neutral	zielony	green	Neutral	Neutral	hit	n/a
428.5118	n/a	RESPONSE	n/a	n/a	n/a	n/a	n/a	n/a	n/a	green
428.5412	1.0167	ITI	n/a	n/a	n/a	n/a	n/a	n/a	n/a	n/a
429.5579	0.5167	FIXCROSS	n/a	n/a	n/a	n/a	n/a	n/a	n/a	n/a
430.0745	0.6833	COLOR_NAME	65	Incongruent	żółty	yellow	niebieski	blue	hit	n/a
430.7308	n/a	RESPONSE	n/a	n/a	n/a	n/a	n/a	n/a	n/a	yellow
430.7579	1.0167	ITI	n/a	n/a	n/a	n/a	n/a	n/a	n/a	n/a
431.7745	0.5167	FIXCROSS	n/a	n/a	n/a	n/a	n/a	n/a	n/a	n/a
432.2912	0.8833	COLOR_NAME	66	Incongruent	żółty	yellow	zielony	green	hit	n/a
433.1415	n/a	RESPONSE	n/a	n/a	n/a	n/a	n/a	n/a	n/a	yellow
433.1746	1.0167	ITI	n/a	n/a	n/a	n/a	n/a	n/a	n/a	n/a
434.1912	0.5167	FIXCROSS	n/a	n/a	n/a	n/a	n/a	n/a	n/a	n/a
434.7079	0.9667	COLOR_NAME	67	Incongruent	zielony	green	żółty	yellow	hit	n/a
435.6479	n/a	RESPONSE	n/a	n/a	n/a	n/a	n/a	n/a	n/a	green
435.6746	1.0167	ITI	n/a	n/a	n/a	n/a	n/a	n/a	n/a	n/a
436.6913	0.5166	FIXCROSS	n/a	n/a	n/a	n/a	n/a	n/a	n/a	n/a
437.2079	0.7833	COLOR_NAME	68	Incongruent	czerwony	red	zielony	green	hit	n/a
437.9627	n/a	RESPONSE	n/a	n/a	n/a	n/a	n/a	n/a	n/a	red
437.9912	1.0167	ITI	n/a	n/a	n/a	n/a	n/a	n/a	n/a	n/a
439.0079	0.5167	FIXCROSS	n/a	n/a	n/a	n/a	n/a	n/a	n/a	n/a
439.5246	0.7	COLOR_NAME	69	Neutral	czerwony	red	Neutral	Neutral	hit	n/a
440.1977	n/a	RESPONSE	n/a	n/a	n/a	n/a	n/a	n/a	n/a	red
440.2246	1.0167	ITI	n/a	n/a	n/a	n/a	n/a	n/a	n/a	n/a
441.2413	0.5167	FIXCROSS	n/a	n/a	n/a	n/a	n/a	n/a	n/a	n/a
441.7579	0.8667	COLOR_NAME	70	Neutral	zielony	green	Neutral	Neutral	hit	n/a
442.5923	n/a	RESPONSE	n/a	n/a	n/a	n/a	n/a	n/a	n/a	green
442.6246	1.0166	ITI	n/a	n/a	n/a	n/a	n/a	n/a	n/a	n/a
443.6413	0.5167	FIXCROSS	n/a	n/a	n/a	n/a	n/a	n/a	n/a	n/a
444.158	0.8833	COLOR_NAME	71	Neutral	czerwony	red	Neutral	Neutral	hit	n/a
445.0189	n/a	RESPONSE	n/a	n/a	n/a	n/a	n/a	n/a	n/a	red
445.0413	1.0167	ITI	n/a	n/a	n/a	n/a	n/a	n/a	n/a	n/a
446.058	0.5167	FIXCROSS	n/a	n/a	n/a	n/a	n/a	n/a	n/a	n/a
446.5746	0.8	COLOR_NAME	72	Incongruent	niebieski	blue	zielony	green	hit	n/a
447.3496	n/a	RESPONSE	n/a	n/a	n/a	n/a	n/a	n/a	n/a	blue
447.3746	1.0334	ITI	n/a	n/a	n/a	n/a	n/a	n/a	n/a	n/a
451.3087	n/a	RESPONSE	n/a	n/a	n/a	n/a	n/a	n/a	n/a	n/a
