onset	duration	trial_type	braille_stimulus	targets	response_count
2.013	2.008	CUE_REST	n/a	n/a	n/a
7.013	1.008	FIXCROSS	n/a	n/a	n/a
13.063	1.008	FIXCROSS	n/a	n/a	n/a
21.121	2.008	CUE_6_DOT	n/a	n/a	n/a
26.121	1.008	FIXCROSS	n/a	n/a	n/a
27.138	5.008	6_DOT_DETECTION	C#CEŁ	1	n/a
28.976	n/a	RESPONSE	n/a	n/a	1/1
32.171	1.008	FIXCROSS	n/a	n/a	n/a
33.188	5.008	6_DOT_DETECTION	ITŁEM	0	n/a
38.221	1.008	FIXCROSS	n/a	n/a	n/a
39.238	5.008	6_DOT_DETECTION	TEK##	2	n/a
42.096	n/a	RESPONSE	n/a	n/a	1/2
43.136	n/a	RESPONSE	n/a	n/a	2/2
44.271	1.008	FIXCROSS	n/a	n/a	n/a
45.288	5.008	6_DOT_DETECTION	O#LAS	1	n/a
47.296	n/a	RESPONSE	n/a	n/a	1/1
50.321	1.008	FIXCROSS	n/a	n/a	n/a
51.338	5.008	6_DOT_DETECTION	KOP#M	1	n/a
53.976	n/a	RESPONSE	n/a	n/a	1/1
55.48	n/a	RESPONSE	n/a	n/a	2/1
56.371	1.008	FIXCROSS	n/a	n/a	n/a
57.388	5.008	6_DOT_DETECTION	SB#OL	1	n/a
59.696	n/a	RESPONSE	n/a	n/a	1/1
62.421	1.008	FIXCROSS	n/a	n/a	n/a
63.437	5.009	6_DOT_DETECTION	##KAT	2	n/a
65.016	n/a	RESPONSE	n/a	n/a	1/2
66.136	n/a	RESPONSE	n/a	n/a	2/2
68.471	1.008	FIXCROSS	n/a	n/a	n/a
69.488	5.008	6_DOT_DETECTION	DTIDI	0	n/a
76.029	2.008	CUE_REST	n/a	n/a	n/a
82.529	1.008	FIXCROSS	n/a	n/a	n/a
88.58	1.008	FIXCROSS	n/a	n/a	n/a
95.638	2.008	CUE_6_DOT	n/a	n/a	n/a
100.638	1.008	FIXCROSS	n/a	n/a	n/a
101.654	5.008	6_DOT_DETECTION	BUT##	2	n/a
104.48	n/a	RESPONSE	n/a	n/a	1/2
105.456	n/a	RESPONSE	n/a	n/a	2/2
106.688	1.008	FIXCROSS	n/a	n/a	n/a
107.704	5.008	6_DOT_DETECTION	APD#C	1	n/a
110.88	n/a	RESPONSE	n/a	n/a	1/1
112.738	1.008	FIXCROSS	n/a	n/a	n/a
113.754	5.008	6_DOT_DETECTION	EUBEC	0	n/a
118.788	1.008	FIXCROSS	n/a	n/a	n/a
119.804	5.009	6_DOT_DETECTION	KMŁKM	0	n/a
124.838	1.008	FIXCROSS	n/a	n/a	n/a
125.854	5.008	6_DOT_DETECTION	#PSU#	2	n/a
127.296	n/a	RESPONSE	n/a	n/a	1/2
129.96	n/a	RESPONSE	n/a	n/a	2/2
130.888	1.008	FIXCROSS	n/a	n/a	n/a
131.904	5.009	6_DOT_DETECTION	PMSKK	0	n/a
136.938	1.008	FIXCROSS	n/a	n/a	n/a
137.954	5.008	6_DOT_DETECTION	T#BUD	1	n/a
140.216	n/a	RESPONSE	n/a	n/a	1/1
142.988	1.008	FIXCROSS	n/a	n/a	n/a
144.004	5.008	6_DOT_DETECTION	#KMBŁ	1	n/a
145.376	n/a	RESPONSE	n/a	n/a	1/1
150.546	2.008	CUE_REST	n/a	n/a	n/a
155.046	1.008	FIXCROSS	n/a	n/a	n/a
161.096	1.008	FIXCROSS	n/a	n/a	n/a
168.655	2.008	CUE_6_DOT	n/a	n/a	n/a
175.155	1.008	FIXCROSS	n/a	n/a	n/a
176.171	5.009	6_DOT_DETECTION	A#ŁAP	1	n/a
178.256	n/a	RESPONSE	n/a	n/a	1/1
181.205	1.008	FIXCROSS	n/a	n/a	n/a
182.221	5.008	6_DOT_DETECTION	TYŁ##	2	n/a
184.376	n/a	RESPONSE	n/a	n/a	1/2
185.92	n/a	RESPONSE	n/a	n/a	2/2
187.255	1.008	FIXCROSS	n/a	n/a	n/a
188.271	5.008	6_DOT_DETECTION	TOK##	2	n/a
191.72	n/a	RESPONSE	n/a	n/a	1/2
192.616	n/a	RESPONSE	n/a	n/a	2/2
193.305	1.008	FIXCROSS	n/a	n/a	n/a
194.321	5.008	6_DOT_DETECTION	DBA#C	1	n/a
197.56	n/a	RESPONSE	n/a	n/a	1/1
199.355	1.008	FIXCROSS	n/a	n/a	n/a
200.371	5.008	6_DOT_DETECTION	KTIŁŁ	0	n/a
205.405	1.008	FIXCROSS	n/a	n/a	n/a
206.421	5.008	6_DOT_DETECTION	BLCLK	0	n/a
211.455	1.008	FIXCROSS	n/a	n/a	n/a
212.471	5.008	6_DOT_DETECTION	ESY##	2	n/a
216.656	n/a	RESPONSE	n/a	n/a	1/2
217.505	1.008	FIXCROSS	n/a	n/a	n/a
217.8	n/a	RESPONSE	n/a	n/a	2/2
218.521	5.009	6_DOT_DETECTION	STO#E	1	n/a
223.08	n/a	RESPONSE	n/a	n/a	1/1
225.563	2.008	CUE_REST	n/a	n/a	n/a
229.563	1.008	FIXCROSS	n/a	n/a	n/a
235.613	1.008	FIXCROSS	n/a	n/a	n/a
243.671	2.008	CUE_6_DOT	n/a	n/a	n/a
249.671	1.008	FIXCROSS	n/a	n/a	n/a
250.688	5.008	6_DOT_DETECTION	#ULE#	2	n/a
251.936	n/a	RESPONSE	n/a	n/a	1/2
254.312	n/a	RESPONSE	n/a	n/a	2/2
255.721	1.008	FIXCROSS	n/a	n/a	n/a
256.738	5.008	6_DOT_DETECTION	#SAD#	2	n/a
258.136	n/a	RESPONSE	n/a	n/a	1/2
260.992	n/a	RESPONSE	n/a	n/a	2/2
261.771	1.008	FIXCROSS	n/a	n/a	n/a
262.788	5.009	6_DOT_DETECTION	AŁDLK	0	n/a
267.821	1.008	FIXCROSS	n/a	n/a	n/a
268.837	5.009	6_DOT_DETECTION	##PYŁ	2	n/a
270.016	n/a	RESPONSE	n/a	n/a	1/2
273.871	1.008	FIXCROSS	n/a	n/a	n/a
273.896	n/a	RESPONSE	n/a	n/a	2/2
274.888	5.008	6_DOT_DETECTION	ŁPPTY	0	n/a
279.921	1.008	FIXCROSS	n/a	n/a	n/a
280.938	5.008	6_DOT_DETECTION	ŁY#SE	1	n/a
284.976	n/a	RESPONSE	n/a	n/a	1/1
285.971	1.008	FIXCROSS	n/a	n/a	n/a
286.988	5.008	6_DOT_DETECTION	CIKUE	0	n/a
292.021	1.008	FIXCROSS	n/a	n/a	n/a
293.038	5.009	6_DOT_DETECTION	P#ŁUY	1	n/a
296.072	n/a	RESPONSE	n/a	n/a	1/1
299.08	2.008	CUE_REST	n/a	n/a	n/a
305.08	1.008	FIXCROSS	n/a	n/a	n/a
311.13	1.008	FIXCROSS	n/a	n/a	n/a
318.688	2.008	CUE_6_DOT	n/a	n/a	n/a
324.188	1.008	FIXCROSS	n/a	n/a	n/a
325.204	5.009	6_DOT_DETECTION	LLACB	0	n/a
330.238	1.008	FIXCROSS	n/a	n/a	n/a
331.255	5.008	6_DOT_DETECTION	OAICU	0	n/a
336.288	1.008	FIXCROSS	n/a	n/a	n/a
337.304	5.009	6_DOT_DETECTION	#MIS#	2	n/a
338.616	n/a	RESPONSE	n/a	n/a	1/2
342.192	n/a	RESPONSE	n/a	n/a	2/2
342.338	1.008	FIXCROSS	n/a	n/a	n/a
343.355	5.008	6_DOT_DETECTION	ŁCDCA	0	n/a
348.388	1.008	FIXCROSS	n/a	n/a	n/a
349.405	5.008	6_DOT_DETECTION	Y#LEK	1	n/a
351.256	n/a	RESPONSE	n/a	n/a	1/1
354.438	1.008	FIXCROSS	n/a	n/a	n/a
355.455	5.008	6_DOT_DETECTION	TAK#P	1	n/a
358.336	n/a	RESPONSE	n/a	n/a	1/1
359.376	n/a	RESPONSE	n/a	n/a	2/1
360.488	1.008	FIXCROSS	n/a	n/a	n/a
361.505	5.008	6_DOT_DETECTION	LSC##	2	n/a
364.552	n/a	RESPONSE	n/a	n/a	1/2
365.632	n/a	RESPONSE	n/a	n/a	2/2
366.538	1.008	FIXCROSS	n/a	n/a	n/a
367.555	5.008	6_DOT_DETECTION	BSEBL	0	n/a
373.596	2.008	CUE_REST	n/a	n/a	n/a
380.596	1.008	FIXCROSS	n/a	n/a	n/a
386.646	1.008	FIXCROSS	n/a	n/a	n/a
393.705	2.008	CUE_6_DOT	n/a	n/a	n/a
398.705	1.008	FIXCROSS	n/a	n/a	n/a
399.722	5.008	6_DOT_DETECTION	#DAT#	2	n/a
401.096	n/a	RESPONSE	n/a	n/a	1/2
404.272	n/a	RESPONSE	n/a	n/a	2/2
404.755	1.008	FIXCROSS	n/a	n/a	n/a
405.771	5.009	6_DOT_DETECTION	YEAAK	0	n/a
410.805	1.008	FIXCROSS	n/a	n/a	n/a
411.822	5.008	6_DOT_DETECTION	##IEY	2	n/a
412.976	n/a	RESPONSE	n/a	n/a	1/2
414.096	n/a	RESPONSE	n/a	n/a	2/2
416.855	1.008	FIXCROSS	n/a	n/a	n/a
417.872	5.008	6_DOT_DETECTION	SOK#Ł	1	n/a
420.592	n/a	RESPONSE	n/a	n/a	1/1
422.905	1.008	FIXCROSS	n/a	n/a	n/a
423.922	5.008	6_DOT_DETECTION	##MAK	2	n/a
425.456	n/a	RESPONSE	n/a	n/a	1/2
426.432	n/a	RESPONSE	n/a	n/a	2/2
428.955	1.008	FIXCROSS	n/a	n/a	n/a
429.972	5.008	6_DOT_DETECTION	OYŁ#Ł	1	n/a
433.592	n/a	RESPONSE	n/a	n/a	1/1
435.005	1.008	FIXCROSS	n/a	n/a	n/a
436.021	5.009	6_DOT_DETECTION	##POP	2	n/a
437.016	n/a	RESPONSE	n/a	n/a	1/2
438.112	n/a	RESPONSE	n/a	n/a	2/2
441.055	1.008	FIXCROSS	n/a	n/a	n/a
442.072	5.008	6_DOT_DETECTION	ŁSCPT	0	n/a
