onset	duration	trial_type	trial_number	stroop_condition	stim_text(PL)	stim_text(eng)	stim_color(PL)	stim_color(eng)	response_type	response_color
0.0	n/a	RESPONSE	n/a	n/a	n/a	n/a	n/a	n/a	n/a	green
0.0	n/a	RESPONSE	n/a	n/a	n/a	n/a	n/a	n/a	n/a	red
0.0001	n/a	RESPONSE	n/a	n/a	n/a	n/a	n/a	n/a	n/a	red
0.0001	n/a	RESPONSE	n/a	n/a	n/a	n/a	n/a	n/a	n/a	blue
0.0001	n/a	RESPONSE	n/a	n/a	n/a	n/a	n/a	n/a	n/a	yellow
0.0001	n/a	RESPONSE	n/a	n/a	n/a	n/a	n/a	n/a	n/a	green
0.0001	n/a	RESPONSE	n/a	n/a	n/a	n/a	n/a	n/a	n/a	n/a
0.0002	n/a	RESPONSE	n/a	n/a	n/a	n/a	n/a	n/a	n/a	blue
0.0002	n/a	RESPONSE	n/a	n/a	n/a	n/a	n/a	n/a	n/a	red
0.0002	n/a	RESPONSE	n/a	n/a	n/a	n/a	n/a	n/a	n/a	green
0.0002	n/a	RESPONSE	n/a	n/a	n/a	n/a	n/a	n/a	n/a	yellow
0.0002	n/a	RESPONSE	n/a	n/a	n/a	n/a	n/a	n/a	n/a	red
0.0003	n/a	RESPONSE	n/a	n/a	n/a	n/a	n/a	n/a	n/a	blue
57.3453	n/a	RESPONSE	n/a	n/a	n/a	n/a	n/a	n/a	n/a	n/a
57.4335	1.0166	ITI	n/a	n/a	n/a	n/a	n/a	n/a	n/a	n/a
58.4501	0.5167	FIXCROSS	n/a	n/a	n/a	n/a	n/a	n/a	n/a	n/a
58.9668	1.2167	T_INK	1	Incongruent	zielony	green	niebieski	blue	hit	n/a
60.1547	n/a	RESPONSE	n/a	n/a	n/a	n/a	n/a	n/a	n/a	blue
60.1835	0.5167	FEEDBACK	n/a	n/a	n/a	n/a	n/a	n/a	n/a	n/a
60.7002	1.0167	ITI	n/a	n/a	n/a	n/a	n/a	n/a	n/a	n/a
61.7168	0.5166	FIXCROSS	n/a	n/a	n/a	n/a	n/a	n/a	n/a	n/a
62.2335	1.2	T_INK	2	Neutral	xxxxxxxxx	xxxxxxxxx	żółty	yellow	hit	n/a
63.4112	n/a	RESPONSE	n/a	n/a	n/a	n/a	n/a	n/a	n/a	yellow
63.4335	0.5166	FEEDBACK	n/a	n/a	n/a	n/a	n/a	n/a	n/a	n/a
63.9502	1.0167	ITI	n/a	n/a	n/a	n/a	n/a	n/a	n/a	n/a
64.9669	0.5167	FIXCROSS	n/a	n/a	n/a	n/a	n/a	n/a	n/a	n/a
65.4835	0.9333	T_INK	3	Incongruent	zielony	green	żółty	yellow	hit	n/a
66.3962	n/a	RESPONSE	n/a	n/a	n/a	n/a	n/a	n/a	n/a	yellow
66.4169	0.5167	FEEDBACK	n/a	n/a	n/a	n/a	n/a	n/a	n/a	n/a
66.9336	1.0167	ITI	n/a	n/a	n/a	n/a	n/a	n/a	n/a	n/a
67.9502	0.5167	FIXCROSS	n/a	n/a	n/a	n/a	n/a	n/a	n/a	n/a
68.4669	0.8667	T_INK	4	Incongruent	zielony	green	czerwony	red	hit	n/a
69.3014	n/a	RESPONSE	n/a	n/a	n/a	n/a	n/a	n/a	n/a	red
69.3336	0.5167	FEEDBACK	n/a	n/a	n/a	n/a	n/a	n/a	n/a	n/a
69.8502	1.0166	ITI	n/a	n/a	n/a	n/a	n/a	n/a	n/a	n/a
70.8669	0.5167	FIXCROSS	n/a	n/a	n/a	n/a	n/a	n/a	n/a	n/a
71.3836	1.0833	T_INK	5	Neutral	xxxxx	xxxxx	zielony	green	hit	n/a
72.4461	n/a	RESPONSE	n/a	n/a	n/a	n/a	n/a	n/a	n/a	green
72.4669	0.5167	FEEDBACK	n/a	n/a	n/a	n/a	n/a	n/a	n/a	n/a
72.9836	1.0167	ITI	n/a	n/a	n/a	n/a	n/a	n/a	n/a	n/a
74.0002	0.5167	FIXCROSS	n/a	n/a	n/a	n/a	n/a	n/a	n/a	n/a
74.5169	1.05	T_INK	6	Neutral	xxxxxxx	xxxxxxx	czerwony	red	hit	n/a
75.5428	n/a	RESPONSE	n/a	n/a	n/a	n/a	n/a	n/a	n/a	red
75.5669	0.5166	FEEDBACK	n/a	n/a	n/a	n/a	n/a	n/a	n/a	n/a
76.0836	1.0167	ITI	n/a	n/a	n/a	n/a	n/a	n/a	n/a	n/a
77.1003	0.5167	FIXCROSS	n/a	n/a	n/a	n/a	n/a	n/a	n/a	n/a
77.617	0.75	T_INK	7	Neutral	xxxxxxx	xxxxxxx	niebieski	blue	hit	n/a
78.3363	n/a	RESPONSE	n/a	n/a	n/a	n/a	n/a	n/a	n/a	blue
78.3669	0.5167	FEEDBACK	n/a	n/a	n/a	n/a	n/a	n/a	n/a	n/a
78.8836	1.0166	ITI	n/a	n/a	n/a	n/a	n/a	n/a	n/a	n/a
79.9003	0.5167	FIXCROSS	n/a	n/a	n/a	n/a	n/a	n/a	n/a	n/a
80.417	0.9167	T_INK	8	Incongruent	czerwony	red	żółty	yellow	hit	n/a
81.3054	n/a	RESPONSE	n/a	n/a	n/a	n/a	n/a	n/a	n/a	yellow
81.3337	0.5166	FEEDBACK	n/a	n/a	n/a	n/a	n/a	n/a	n/a	n/a
81.8503	1.0167	ITI	n/a	n/a	n/a	n/a	n/a	n/a	n/a	n/a
82.867	0.5167	FIXCROSS	n/a	n/a	n/a	n/a	n/a	n/a	n/a	n/a
83.3837	0.7167	T_INK	9	Neutral	xxxxxxxx	xxxxxxxx	żółty	yellow	hit	n/a
84.0668	n/a	RESPONSE	n/a	n/a	n/a	n/a	n/a	n/a	n/a	yellow
84.1004	0.5167	FEEDBACK	n/a	n/a	n/a	n/a	n/a	n/a	n/a	n/a
84.617	1.0167	ITI	n/a	n/a	n/a	n/a	n/a	n/a	n/a	n/a
85.6337	0.5167	FIXCROSS	n/a	n/a	n/a	n/a	n/a	n/a	n/a	n/a
86.1504	0.8667	T_INK	10	Neutral	xxxxx	xxxxx	czerwony	red	hit	n/a
86.9881	n/a	RESPONSE	n/a	n/a	n/a	n/a	n/a	n/a	n/a	red
87.017	0.5167	FEEDBACK	n/a	n/a	n/a	n/a	n/a	n/a	n/a	n/a
87.5337	1.0167	ITI	n/a	n/a	n/a	n/a	n/a	n/a	n/a	n/a
88.5504	0.5167	FIXCROSS	n/a	n/a	n/a	n/a	n/a	n/a	n/a	n/a
89.0671	0.9333	T_INK	11	Incongruent	niebieski	blue	czerwony	red	hit	n/a
89.9732	n/a	RESPONSE	n/a	n/a	n/a	n/a	n/a	n/a	n/a	red
90.0004	0.5167	FEEDBACK	n/a	n/a	n/a	n/a	n/a	n/a	n/a	n/a
90.5171	1.0167	ITI	n/a	n/a	n/a	n/a	n/a	n/a	n/a	n/a
91.5337	0.5167	FIXCROSS	n/a	n/a	n/a	n/a	n/a	n/a	n/a	n/a
92.0504	0.8167	T_INK	12	Incongruent	żółty	yellow	zielony	green	hit	n/a
92.8464	n/a	RESPONSE	n/a	n/a	n/a	n/a	n/a	n/a	n/a	green
92.8671	0.5167	FEEDBACK	n/a	n/a	n/a	n/a	n/a	n/a	n/a	n/a
93.3838	1.0333	ITI	n/a	n/a	n/a	n/a	n/a	n/a	n/a	n/a
108.7772	n/a	RESPONSE	n/a	n/a	n/a	n/a	n/a	n/a	n/a	n/a
108.8339	1.0166	ITI	n/a	n/a	n/a	n/a	n/a	n/a	n/a	n/a
109.8505	0.5167	FIXCROSS	n/a	n/a	n/a	n/a	n/a	n/a	n/a	n/a
110.3672	0.9333	INK	1	Neutral	xxxxxxxx	xxxxxxxx	zielony	green	hit	n/a
111.2674	n/a	RESPONSE	n/a	n/a	n/a	n/a	n/a	n/a	n/a	green
111.3006	1.0166	ITI	n/a	n/a	n/a	n/a	n/a	n/a	n/a	n/a
112.3172	0.5167	FIXCROSS	n/a	n/a	n/a	n/a	n/a	n/a	n/a	n/a
112.8339	0.8167	INK	2	Incongruent	czerwony	red	żółty	yellow	hit	n/a
113.6139	n/a	RESPONSE	n/a	n/a	n/a	n/a	n/a	n/a	n/a	yellow
113.6506	1.0167	ITI	n/a	n/a	n/a	n/a	n/a	n/a	n/a	n/a
114.6673	0.5167	FIXCROSS	n/a	n/a	n/a	n/a	n/a	n/a	n/a	n/a
115.1839	0.7667	INK	3	Incongruent	niebieski	blue	żółty	yellow	hit	n/a
115.9285	n/a	RESPONSE	n/a	n/a	n/a	n/a	n/a	n/a	n/a	yellow
115.9506	1.0167	ITI	n/a	n/a	n/a	n/a	n/a	n/a	n/a	n/a
116.9673	0.5167	FIXCROSS	n/a	n/a	n/a	n/a	n/a	n/a	n/a	n/a
117.484	0.6333	INK	4	Neutral	xxxxxxxxx	xxxxxxxxx	żółty	yellow	hit	n/a
118.0835	n/a	RESPONSE	n/a	n/a	n/a	n/a	n/a	n/a	n/a	yellow
118.1173	1.0333	ITI	n/a	n/a	n/a	n/a	n/a	n/a	n/a	n/a
119.1506	0.5167	FIXCROSS	n/a	n/a	n/a	n/a	n/a	n/a	n/a	n/a
119.6673	0.7167	INK	5	Neutral	xxxxxxxxx	xxxxxxxxx	czerwony	red	hit	n/a
120.3504	n/a	RESPONSE	n/a	n/a	n/a	n/a	n/a	n/a	n/a	red
120.384	1.0167	ITI	n/a	n/a	n/a	n/a	n/a	n/a	n/a	n/a
121.4007	0.5167	FIXCROSS	n/a	n/a	n/a	n/a	n/a	n/a	n/a	n/a
121.9173	0.85	INK	6	Neutral	xxxxxxx	xxxxxxx	niebieski	blue	hit	n/a
122.7448	n/a	RESPONSE	n/a	n/a	n/a	n/a	n/a	n/a	n/a	blue
122.7673	1.0167	ITI	n/a	n/a	n/a	n/a	n/a	n/a	n/a	n/a
123.784	0.5167	FIXCROSS	n/a	n/a	n/a	n/a	n/a	n/a	n/a	n/a
124.3007	0.7166	INK	7	Neutral	xxxxxxx	xxxxxxx	czerwony	red	hit	n/a
124.9955	n/a	RESPONSE	n/a	n/a	n/a	n/a	n/a	n/a	n/a	red
125.0173	1.0167	ITI	n/a	n/a	n/a	n/a	n/a	n/a	n/a	n/a
126.034	0.5166	FIXCROSS	n/a	n/a	n/a	n/a	n/a	n/a	n/a	n/a
126.5507	0.75	INK	8	Neutral	xxxxx	xxxxx	czerwony	red	hit	n/a
127.2782	n/a	RESPONSE	n/a	n/a	n/a	n/a	n/a	n/a	n/a	red
127.3007	1.0167	ITI	n/a	n/a	n/a	n/a	n/a	n/a	n/a	n/a
128.3174	0.5167	FIXCROSS	n/a	n/a	n/a	n/a	n/a	n/a	n/a	n/a
128.834	0.9333	INK	9	Neutral	xxxxx	xxxxx	niebieski	blue	hit	n/a
129.7364	n/a	RESPONSE	n/a	n/a	n/a	n/a	n/a	n/a	n/a	blue
129.7674	1.0166	ITI	n/a	n/a	n/a	n/a	n/a	n/a	n/a	n/a
130.784	0.5167	FIXCROSS	n/a	n/a	n/a	n/a	n/a	n/a	n/a	n/a
131.3007	0.8667	INK	10	Neutral	xxxxxxxx	xxxxxxxx	żółty	yellow	hit	n/a
132.1468	n/a	RESPONSE	n/a	n/a	n/a	n/a	n/a	n/a	n/a	yellow
132.1674	1.0167	ITI	n/a	n/a	n/a	n/a	n/a	n/a	n/a	n/a
133.184	0.5167	FIXCROSS	n/a	n/a	n/a	n/a	n/a	n/a	n/a	n/a
133.7007	0.65	INK	11	Neutral	xxxxxxxxx	xxxxxxxxx	żółty	yellow	hit	n/a
134.3177	n/a	RESPONSE	n/a	n/a	n/a	n/a	n/a	n/a	n/a	yellow
134.3508	1.0167	ITI	n/a	n/a	n/a	n/a	n/a	n/a	n/a	n/a
135.3674	0.5167	FIXCROSS	n/a	n/a	n/a	n/a	n/a	n/a	n/a	n/a
135.8841	0.95	INK	12	Incongruent	zielony	green	niebieski	blue	hit	n/a
136.8079	n/a	RESPONSE	n/a	n/a	n/a	n/a	n/a	n/a	n/a	blue
136.8341	1.0167	ITI	n/a	n/a	n/a	n/a	n/a	n/a	n/a	n/a
137.8508	0.5167	FIXCROSS	n/a	n/a	n/a	n/a	n/a	n/a	n/a	n/a
138.3674	0.7667	INK	13	Incongruent	zielony	green	czerwony	red	hit	n/a
139.1065	n/a	RESPONSE	n/a	n/a	n/a	n/a	n/a	n/a	n/a	red
139.1341	1.0167	ITI	n/a	n/a	n/a	n/a	n/a	n/a	n/a	n/a
140.1508	0.5167	FIXCROSS	n/a	n/a	n/a	n/a	n/a	n/a	n/a	n/a
140.6675	0.7667	INK	14	Incongruent	zielony	green	czerwony	red	hit	n/a
141.4051	n/a	RESPONSE	n/a	n/a	n/a	n/a	n/a	n/a	n/a	red
141.4342	1.0167	ITI	n/a	n/a	n/a	n/a	n/a	n/a	n/a	n/a
142.4508	0.5167	FIXCROSS	n/a	n/a	n/a	n/a	n/a	n/a	n/a	n/a
142.9675	0.7833	INK	15	Incongruent	żółty	yellow	czerwony	red	hit	n/a
143.7197	n/a	RESPONSE	n/a	n/a	n/a	n/a	n/a	n/a	n/a	red
143.7508	1.0167	ITI	n/a	n/a	n/a	n/a	n/a	n/a	n/a	n/a
144.7675	0.5167	FIXCROSS	n/a	n/a	n/a	n/a	n/a	n/a	n/a	n/a
145.2842	0.75	INK	16	Neutral	xxxxxxxx	xxxxxxxx	niebieski	blue	hit	n/a
146.0023	n/a	RESPONSE	n/a	n/a	n/a	n/a	n/a	n/a	n/a	blue
146.0342	1.0167	ITI	n/a	n/a	n/a	n/a	n/a	n/a	n/a	n/a
147.0509	0.5166	FIXCROSS	n/a	n/a	n/a	n/a	n/a	n/a	n/a	n/a
147.5675	0.6834	INK	17	Incongruent	niebieski	blue	czerwony	red	hit	n/a
148.2211	n/a	RESPONSE	n/a	n/a	n/a	n/a	n/a	n/a	n/a	red
148.2509	1.0166	ITI	n/a	n/a	n/a	n/a	n/a	n/a	n/a	n/a
149.2675	0.5167	FIXCROSS	n/a	n/a	n/a	n/a	n/a	n/a	n/a	n/a
149.7842	0.6833	INK	18	Incongruent	zielony	green	czerwony	red	hit	n/a
150.4399	n/a	RESPONSE	n/a	n/a	n/a	n/a	n/a	n/a	n/a	red
150.4675	1.0167	ITI	n/a	n/a	n/a	n/a	n/a	n/a	n/a	n/a
151.4842	0.5167	FIXCROSS	n/a	n/a	n/a	n/a	n/a	n/a	n/a	n/a
152.0009	0.6333	INK	19	Neutral	xxxxxxxx	xxxxxxxx	żółty	yellow	hit	n/a
152.6109	n/a	RESPONSE	n/a	n/a	n/a	n/a	n/a	n/a	n/a	yellow
152.6342	1.0167	ITI	n/a	n/a	n/a	n/a	n/a	n/a	n/a	n/a
153.6509	0.5166	FIXCROSS	n/a	n/a	n/a	n/a	n/a	n/a	n/a	n/a
154.1675	0.7167	INK	20	Incongruent	niebieski	blue	żółty	yellow	hit	n/a
154.8617	n/a	RESPONSE	n/a	n/a	n/a	n/a	n/a	n/a	n/a	yellow
154.8842	1.0167	ITI	n/a	n/a	n/a	n/a	n/a	n/a	n/a	n/a
155.9009	0.5167	FIXCROSS	n/a	n/a	n/a	n/a	n/a	n/a	n/a	n/a
156.4176	0.7667	INK	21	Neutral	xxxxxxxx	xxxxxxxx	niebieski	blue	hit	n/a
157.1603	n/a	RESPONSE	n/a	n/a	n/a	n/a	n/a	n/a	n/a	blue
157.1843	1.0167	ITI	n/a	n/a	n/a	n/a	n/a	n/a	n/a	n/a
158.2009	0.5167	FIXCROSS	n/a	n/a	n/a	n/a	n/a	n/a	n/a	n/a
158.7176	0.9167	INK	22	Incongruent	żółty	yellow	zielony	green	hit	n/a
159.6027	n/a	RESPONSE	n/a	n/a	n/a	n/a	n/a	n/a	n/a	green
159.6343	1.0167	ITI	n/a	n/a	n/a	n/a	n/a	n/a	n/a	n/a
160.651	0.5167	FIXCROSS	n/a	n/a	n/a	n/a	n/a	n/a	n/a	n/a
161.1676	0.9833	INK	23	Incongruent	żółty	yellow	niebieski	blue	hit	n/a
162.1247	n/a	RESPONSE	n/a	n/a	n/a	n/a	n/a	n/a	n/a	blue
162.151	1.0167	ITI	n/a	n/a	n/a	n/a	n/a	n/a	n/a	n/a
163.1677	0.5167	FIXCROSS	n/a	n/a	n/a	n/a	n/a	n/a	n/a	n/a
163.6843	0.6667	INK	24	Incongruent	czerwony	red	niebieski	blue	hit	n/a
164.3276	n/a	RESPONSE	n/a	n/a	n/a	n/a	n/a	n/a	n/a	blue
164.351	1.0167	ITI	n/a	n/a	n/a	n/a	n/a	n/a	n/a	n/a
165.3677	0.5166	FIXCROSS	n/a	n/a	n/a	n/a	n/a	n/a	n/a	n/a
165.8843	0.5334	INK	25	Neutral	xxxxxxx	xxxxxxx	czerwony	red	hit	n/a
166.3867	n/a	RESPONSE	n/a	n/a	n/a	n/a	n/a	n/a	n/a	red
166.4177	1.0166	ITI	n/a	n/a	n/a	n/a	n/a	n/a	n/a	n/a
167.4343	0.5167	FIXCROSS	n/a	n/a	n/a	n/a	n/a	n/a	n/a	n/a
167.951	0.6667	INK	26	Neutral	xxxxxxx	xxxxxxx	żółty	yellow	hit	n/a
168.5895	n/a	RESPONSE	n/a	n/a	n/a	n/a	n/a	n/a	n/a	yellow
168.6177	1.0167	ITI	n/a	n/a	n/a	n/a	n/a	n/a	n/a	n/a
169.6344	0.5167	FIXCROSS	n/a	n/a	n/a	n/a	n/a	n/a	n/a	n/a
170.151	0.8166	INK	27	Incongruent	czerwony	red	niebieski	blue	hit	n/a
170.9362	n/a	RESPONSE	n/a	n/a	n/a	n/a	n/a	n/a	n/a	blue
170.9677	1.0167	ITI	n/a	n/a	n/a	n/a	n/a	n/a	n/a	n/a
171.9844	0.5166	FIXCROSS	n/a	n/a	n/a	n/a	n/a	n/a	n/a	n/a
172.501	0.6333	INK	28	Neutral	xxxxxxx	xxxxxxx	niebieski	blue	hit	n/a
173.107	n/a	RESPONSE	n/a	n/a	n/a	n/a	n/a	n/a	n/a	blue
173.1344	1.0167	ITI	n/a	n/a	n/a	n/a	n/a	n/a	n/a	n/a
174.1511	0.5167	FIXCROSS	n/a	n/a	n/a	n/a	n/a	n/a	n/a	n/a
174.6677	0.9833	INK	29	Neutral	xxxxxxxxx	xxxxxxxxx	zielony	green	hit	n/a
175.6291	n/a	RESPONSE	n/a	n/a	n/a	n/a	n/a	n/a	n/a	green
175.6511	1.0167	ITI	n/a	n/a	n/a	n/a	n/a	n/a	n/a	n/a
176.6677	0.5167	FIXCROSS	n/a	n/a	n/a	n/a	n/a	n/a	n/a	n/a
177.1844	0.6834	INK	30	Neutral	xxxxxxxxx	xxxxxxxxx	czerwony	red	hit	n/a
177.848	n/a	RESPONSE	n/a	n/a	n/a	n/a	n/a	n/a	n/a	red
177.8678	1.0166	ITI	n/a	n/a	n/a	n/a	n/a	n/a	n/a	n/a
178.8844	0.5167	FIXCROSS	n/a	n/a	n/a	n/a	n/a	n/a	n/a	n/a
179.4011	0.7667	INK	31	Incongruent	czerwony	red	zielony	green	hit	n/a
180.1466	n/a	RESPONSE	n/a	n/a	n/a	n/a	n/a	n/a	n/a	green
180.1678	1.0167	ITI	n/a	n/a	n/a	n/a	n/a	n/a	n/a	n/a
181.1845	0.5166	FIXCROSS	n/a	n/a	n/a	n/a	n/a	n/a	n/a	n/a
181.7011	0.65	INK	32	Neutral	xxxxx	xxxxx	zielony	green	hit	n/a
182.3175	n/a	RESPONSE	n/a	n/a	n/a	n/a	n/a	n/a	n/a	green
182.3511	1.0167	ITI	n/a	n/a	n/a	n/a	n/a	n/a	n/a	n/a
183.3678	0.5167	FIXCROSS	n/a	n/a	n/a	n/a	n/a	n/a	n/a	n/a
183.8845	0.5667	INK	33	Incongruent	czerwony	red	zielony	green	hit	n/a
184.4246	n/a	RESPONSE	n/a	n/a	n/a	n/a	n/a	n/a	n/a	green
184.4512	1.0167	ITI	n/a	n/a	n/a	n/a	n/a	n/a	n/a	n/a
185.4678	0.5167	FIXCROSS	n/a	n/a	n/a	n/a	n/a	n/a	n/a	n/a
185.9845	0.6333	INK	34	Neutral	xxxxxxxxx	xxxxxxxxx	żółty	yellow	hit	n/a
186.5954	n/a	RESPONSE	n/a	n/a	n/a	n/a	n/a	n/a	n/a	yellow
186.6178	1.0167	ITI	n/a	n/a	n/a	n/a	n/a	n/a	n/a	n/a
187.6345	0.5167	FIXCROSS	n/a	n/a	n/a	n/a	n/a	n/a	n/a	n/a
188.1512	0.7	INK	35	Incongruent	zielony	green	żółty	yellow	hit	n/a
188.8303	n/a	RESPONSE	n/a	n/a	n/a	n/a	n/a	n/a	n/a	yellow
188.8512	1.0166	ITI	n/a	n/a	n/a	n/a	n/a	n/a	n/a	n/a
189.8678	0.5167	FIXCROSS	n/a	n/a	n/a	n/a	n/a	n/a	n/a	n/a
190.3845	0.6833	INK	36	Incongruent	żółty	yellow	czerwony	red	hit	n/a
191.0491	n/a	RESPONSE	n/a	n/a	n/a	n/a	n/a	n/a	n/a	red
191.0679	1.0167	ITI	n/a	n/a	n/a	n/a	n/a	n/a	n/a	n/a
192.0845	0.5167	FIXCROSS	n/a	n/a	n/a	n/a	n/a	n/a	n/a	n/a
192.6012	0.7833	INK	37	Incongruent	niebieski	blue	zielony	green	hit	n/a
193.3636	n/a	RESPONSE	n/a	n/a	n/a	n/a	n/a	n/a	n/a	green
193.3846	1.0167	ITI	n/a	n/a	n/a	n/a	n/a	n/a	n/a	n/a
194.4012	0.5167	FIXCROSS	n/a	n/a	n/a	n/a	n/a	n/a	n/a	n/a
194.9179	0.65	INK	38	Neutral	xxxxx	xxxxx	niebieski	blue	hit	n/a
195.5505	n/a	RESPONSE	n/a	n/a	n/a	n/a	n/a	n/a	n/a	blue
195.5679	1.0167	ITI	n/a	n/a	n/a	n/a	n/a	n/a	n/a	n/a
196.5845	0.5167	FIXCROSS	n/a	n/a	n/a	n/a	n/a	n/a	n/a	n/a
197.1013	0.75	INK	39	Incongruent	czerwony	red	zielony	green	hit	n/a
197.8332	n/a	RESPONSE	n/a	n/a	n/a	n/a	n/a	n/a	n/a	green
197.8512	1.0167	ITI	n/a	n/a	n/a	n/a	n/a	n/a	n/a	n/a
198.8679	0.5167	FIXCROSS	n/a	n/a	n/a	n/a	n/a	n/a	n/a	n/a
199.3846	0.5667	INK	40	Neutral	xxxxxxxx	xxxxxxxx	żółty	yellow	hit	n/a
199.9243	n/a	RESPONSE	n/a	n/a	n/a	n/a	n/a	n/a	n/a	yellow
199.9513	1.0167	ITI	n/a	n/a	n/a	n/a	n/a	n/a	n/a	n/a
200.968	0.5167	FIXCROSS	n/a	n/a	n/a	n/a	n/a	n/a	n/a	n/a
201.4846	0.7667	INK	41	Incongruent	niebieski	blue	czerwony	red	hit	n/a
202.2229	n/a	RESPONSE	n/a	n/a	n/a	n/a	n/a	n/a	n/a	red
202.2513	1.0166	ITI	n/a	n/a	n/a	n/a	n/a	n/a	n/a	n/a
203.2679	0.5167	FIXCROSS	n/a	n/a	n/a	n/a	n/a	n/a	n/a	n/a
203.7846	0.5833	INK	42	Neutral	xxxxxxx	xxxxxxx	czerwony	red	hit	n/a
204.3459	n/a	RESPONSE	n/a	n/a	n/a	n/a	n/a	n/a	n/a	red
204.368	1.0167	ITI	n/a	n/a	n/a	n/a	n/a	n/a	n/a	n/a
205.3847	0.5167	FIXCROSS	n/a	n/a	n/a	n/a	n/a	n/a	n/a	n/a
205.9013	0.7833	INK	43	Incongruent	zielony	green	niebieski	blue	hit	n/a
206.6605	n/a	RESPONSE	n/a	n/a	n/a	n/a	n/a	n/a	n/a	blue
206.6847	1.0167	ITI	n/a	n/a	n/a	n/a	n/a	n/a	n/a	n/a
207.7013	0.5167	FIXCROSS	n/a	n/a	n/a	n/a	n/a	n/a	n/a	n/a
208.218	0.8167	INK	44	Incongruent	żółty	yellow	zielony	green	hit	n/a
209.0071	n/a	RESPONSE	n/a	n/a	n/a	n/a	n/a	n/a	n/a	green
209.0347	1.0167	ITI	n/a	n/a	n/a	n/a	n/a	n/a	n/a	n/a
210.0514	0.5167	FIXCROSS	n/a	n/a	n/a	n/a	n/a	n/a	n/a	n/a
210.568	0.5667	INK	45	Incongruent	niebieski	blue	zielony	green	hit	n/a
211.1141	n/a	RESPONSE	n/a	n/a	n/a	n/a	n/a	n/a	n/a	green
211.1347	1.0167	ITI	n/a	n/a	n/a	n/a	n/a	n/a	n/a	n/a
212.1514	0.5166	FIXCROSS	n/a	n/a	n/a	n/a	n/a	n/a	n/a	n/a
212.668	0.4834	INK	46	Neutral	xxxxxxxxx	xxxxxxxxx	zielony	green	hit	n/a
213.1254	n/a	RESPONSE	n/a	n/a	n/a	n/a	n/a	n/a	n/a	green
213.1514	1.0166	ITI	n/a	n/a	n/a	n/a	n/a	n/a	n/a	n/a
214.168	0.5167	FIXCROSS	n/a	n/a	n/a	n/a	n/a	n/a	n/a	n/a
214.6847	0.5333	INK	47	Incongruent	czerwony	red	żółty	yellow	hit	n/a
215.1845	n/a	RESPONSE	n/a	n/a	n/a	n/a	n/a	n/a	n/a	yellow
215.218	1.0167	ITI	n/a	n/a	n/a	n/a	n/a	n/a	n/a	n/a
216.2347	0.5167	FIXCROSS	n/a	n/a	n/a	n/a	n/a	n/a	n/a	n/a
216.7514	0.7166	INK	48	Incongruent	niebieski	blue	zielony	green	hit	n/a
217.4354	n/a	RESPONSE	n/a	n/a	n/a	n/a	n/a	n/a	n/a	green
217.4681	1.0167	ITI	n/a	n/a	n/a	n/a	n/a	n/a	n/a	n/a
218.4847	0.5167	FIXCROSS	n/a	n/a	n/a	n/a	n/a	n/a	n/a	n/a
219.0014	0.7	INK	49	Incongruent	żółty	yellow	niebieski	blue	hit	n/a
219.6701	n/a	RESPONSE	n/a	n/a	n/a	n/a	n/a	n/a	n/a	blue
219.7014	1.0167	ITI	n/a	n/a	n/a	n/a	n/a	n/a	n/a	n/a
220.7181	0.5167	FIXCROSS	n/a	n/a	n/a	n/a	n/a	n/a	n/a	n/a
221.2348	0.7833	INK	50	Neutral	xxxxx	xxxxx	zielony	green	hit	n/a
221.9847	n/a	RESPONSE	n/a	n/a	n/a	n/a	n/a	n/a	n/a	green
222.0181	1.0167	ITI	n/a	n/a	n/a	n/a	n/a	n/a	n/a	n/a
223.0348	0.5167	FIXCROSS	n/a	n/a	n/a	n/a	n/a	n/a	n/a	n/a
223.5515	0.6833	INK	51	Incongruent	niebieski	blue	żółty	yellow	hit	n/a
224.2036	n/a	RESPONSE	n/a	n/a	n/a	n/a	n/a	n/a	n/a	yellow
224.2348	1.0167	ITI	n/a	n/a	n/a	n/a	n/a	n/a	n/a	n/a
225.2515	0.5167	FIXCROSS	n/a	n/a	n/a	n/a	n/a	n/a	n/a	n/a
225.7682	0.7667	INK	52	Incongruent	żółty	yellow	zielony	green	hit	n/a
226.5022	n/a	RESPONSE	n/a	n/a	n/a	n/a	n/a	n/a	n/a	green
226.5348	1.0167	ITI	n/a	n/a	n/a	n/a	n/a	n/a	n/a	n/a
227.5515	0.5167	FIXCROSS	n/a	n/a	n/a	n/a	n/a	n/a	n/a	n/a
228.0682	0.5333	INK	53	Neutral	xxxxxxxx	xxxxxxxx	zielony	green	hit	n/a
228.5774	n/a	RESPONSE	n/a	n/a	n/a	n/a	n/a	n/a	n/a	green
228.6015	1.0166	ITI	n/a	n/a	n/a	n/a	n/a	n/a	n/a	n/a
229.6181	0.5167	FIXCROSS	n/a	n/a	n/a	n/a	n/a	n/a	n/a	n/a
230.1349	0.6667	INK	54	Incongruent	czerwony	red	żółty	yellow	hit	n/a
230.7802	n/a	RESPONSE	n/a	n/a	n/a	n/a	n/a	n/a	n/a	yellow
230.8015	1.0166	ITI	n/a	n/a	n/a	n/a	n/a	n/a	n/a	n/a
231.8182	0.5167	FIXCROSS	n/a	n/a	n/a	n/a	n/a	n/a	n/a	n/a
232.3349	0.65	INK	55	Neutral	xxxxx	xxxxx	czerwony	red	hit	n/a
232.9511	n/a	RESPONSE	n/a	n/a	n/a	n/a	n/a	n/a	n/a	red
232.9849	1.0167	ITI	n/a	n/a	n/a	n/a	n/a	n/a	n/a	n/a
234.0016	0.5167	FIXCROSS	n/a	n/a	n/a	n/a	n/a	n/a	n/a	n/a
234.5182	0.9167	INK	56	Incongruent	żółty	yellow	niebieski	blue	hit	n/a
235.4094	n/a	RESPONSE	n/a	n/a	n/a	n/a	n/a	n/a	n/a	blue
235.4349	1.0167	ITI	n/a	n/a	n/a	n/a	n/a	n/a	n/a	n/a
236.4516	0.5166	FIXCROSS	n/a	n/a	n/a	n/a	n/a	n/a	n/a	n/a
236.9682	0.7167	INK	57	Neutral	xxxxxxxxx	xxxxxxxxx	zielony	green	hit	n/a
237.6602	n/a	RESPONSE	n/a	n/a	n/a	n/a	n/a	n/a	n/a	green
237.6849	1.0167	ITI	n/a	n/a	n/a	n/a	n/a	n/a	n/a	n/a
238.7016	0.5166	FIXCROSS	n/a	n/a	n/a	n/a	n/a	n/a	n/a	n/a
239.2182	0.65	INK	58	Neutral	xxxxxxx	xxxxxxx	żółty	yellow	hit	n/a
239.847	n/a	RESPONSE	n/a	n/a	n/a	n/a	n/a	n/a	n/a	yellow
239.8682	1.0167	ITI	n/a	n/a	n/a	n/a	n/a	n/a	n/a	n/a
240.8849	0.5167	FIXCROSS	n/a	n/a	n/a	n/a	n/a	n/a	n/a	n/a
241.4016	0.75	INK	59	Neutral	xxxxxxxx	xxxxxxxx	zielony	green	hit	n/a
242.1297	n/a	RESPONSE	n/a	n/a	n/a	n/a	n/a	n/a	n/a	green
242.1516	1.0167	ITI	n/a	n/a	n/a	n/a	n/a	n/a	n/a	n/a
243.1683	0.5166	FIXCROSS	n/a	n/a	n/a	n/a	n/a	n/a	n/a	n/a
243.6849	0.5834	INK	60	Neutral	xxxxxxx	xxxxxxx	żółty	yellow	hit	n/a
244.2367	n/a	RESPONSE	n/a	n/a	n/a	n/a	n/a	n/a	n/a	yellow
244.2683	1.0167	ITI	n/a	n/a	n/a	n/a	n/a	n/a	n/a	n/a
245.285	0.5166	FIXCROSS	n/a	n/a	n/a	n/a	n/a	n/a	n/a	n/a
245.8016	0.7167	INK	61	Neutral	xxxxx	xxxxx	czerwony	red	hit	n/a
246.4874	n/a	RESPONSE	n/a	n/a	n/a	n/a	n/a	n/a	n/a	red
246.5183	1.0167	ITI	n/a	n/a	n/a	n/a	n/a	n/a	n/a	n/a
247.535	0.5167	FIXCROSS	n/a	n/a	n/a	n/a	n/a	n/a	n/a	n/a
248.0517	0.45	INK	62	Neutral	xxxxxxxxx	xxxxxxxxx	czerwony	red	hit	n/a
248.4828	n/a	RESPONSE	n/a	n/a	n/a	n/a	n/a	n/a	n/a	red
248.5017	1.0166	ITI	n/a	n/a	n/a	n/a	n/a	n/a	n/a	n/a
249.5183	0.5167	FIXCROSS	n/a	n/a	n/a	n/a	n/a	n/a	n/a	n/a
250.035	0.7333	INK	63	Incongruent	zielony	green	żółty	yellow	hit	n/a
250.7336	n/a	RESPONSE	n/a	n/a	n/a	n/a	n/a	n/a	n/a	yellow
250.7684	1.0167	ITI	n/a	n/a	n/a	n/a	n/a	n/a	n/a	n/a
251.785	0.5167	FIXCROSS	n/a	n/a	n/a	n/a	n/a	n/a	n/a	n/a
252.3017	0.9833	INK	64	Neutral	xxxxxxxx	xxxxxxxx	niebieski	blue	hit	n/a
253.2397	n/a	RESPONSE	n/a	n/a	n/a	n/a	n/a	n/a	n/a	blue
253.285	1.0166	ITI	n/a	n/a	n/a	n/a	n/a	n/a	n/a	n/a
254.3017	0.5167	FIXCROSS	n/a	n/a	n/a	n/a	n/a	n/a	n/a	n/a
254.8184	0.7333	INK	65	Incongruent	czerwony	red	niebieski	blue	hit	n/a
255.5224	n/a	RESPONSE	n/a	n/a	n/a	n/a	n/a	n/a	n/a	blue
255.5517	1.0167	ITI	n/a	n/a	n/a	n/a	n/a	n/a	n/a	n/a
256.5684	0.5167	FIXCROSS	n/a	n/a	n/a	n/a	n/a	n/a	n/a	n/a
257.0851	1.1	INK	66	Neutral	xxxxx	xxxxx	zielony	green	hit	n/a
258.1562	n/a	RESPONSE	n/a	n/a	n/a	n/a	n/a	n/a	n/a	green
258.185	1.0167	ITI	n/a	n/a	n/a	n/a	n/a	n/a	n/a	n/a
259.2017	0.5167	FIXCROSS	n/a	n/a	n/a	n/a	n/a	n/a	n/a	n/a
259.7184	0.9	INK	67	Incongruent	niebieski	blue	czerwony	red	hit	n/a
260.5985	n/a	RESPONSE	n/a	n/a	n/a	n/a	n/a	n/a	n/a	red
260.6184	1.0167	ITI	n/a	n/a	n/a	n/a	n/a	n/a	n/a	n/a
261.6351	0.5167	FIXCROSS	n/a	n/a	n/a	n/a	n/a	n/a	n/a	n/a
262.1518	0.7166	INK	68	Incongruent	zielony	green	żółty	yellow	hit	n/a
262.8492	n/a	RESPONSE	n/a	n/a	n/a	n/a	n/a	n/a	n/a	yellow
262.8684	1.0167	ITI	n/a	n/a	n/a	n/a	n/a	n/a	n/a	n/a
263.8851	0.5167	FIXCROSS	n/a	n/a	n/a	n/a	n/a	n/a	n/a	n/a
264.4018	0.7	INK	69	Incongruent	zielony	green	niebieski	blue	hit	n/a
265.084	n/a	RESPONSE	n/a	n/a	n/a	n/a	n/a	n/a	n/a	blue
265.1018	1.0167	ITI	n/a	n/a	n/a	n/a	n/a	n/a	n/a	n/a
266.1185	0.5167	FIXCROSS	n/a	n/a	n/a	n/a	n/a	n/a	n/a	n/a
266.6352	0.7	INK	70	Neutral	xxxxxxx	xxxxxxx	niebieski	blue	hit	n/a
267.3027	n/a	RESPONSE	n/a	n/a	n/a	n/a	n/a	n/a	n/a	blue
267.3352	1.0166	ITI	n/a	n/a	n/a	n/a	n/a	n/a	n/a	n/a
268.3518	0.5167	FIXCROSS	n/a	n/a	n/a	n/a	n/a	n/a	n/a	n/a
268.8685	0.8834	INK	71	Incongruent	żółty	yellow	czerwony	red	hit	n/a
269.729	n/a	RESPONSE	n/a	n/a	n/a	n/a	n/a	n/a	n/a	red
269.7518	1.0167	ITI	n/a	n/a	n/a	n/a	n/a	n/a	n/a	n/a
270.7685	0.5167	FIXCROSS	n/a	n/a	n/a	n/a	n/a	n/a	n/a	n/a
271.2852	0.7	INK	72	Neutral	xxxxx	xxxxx	niebieski	blue	hit	n/a
271.9638	n/a	RESPONSE	n/a	n/a	n/a	n/a	n/a	n/a	n/a	blue
271.9852	1.0829	ITI	n/a	n/a	n/a	n/a	n/a	n/a	n/a	n/a
300.3132	n/a	RESPONSE	n/a	n/a	n/a	n/a	n/a	n/a	n/a	n/a
300.3688	1.0167	ITI	n/a	n/a	n/a	n/a	n/a	n/a	n/a	n/a
301.3854	0.5167	FIXCROSS	n/a	n/a	n/a	n/a	n/a	n/a	n/a	n/a
301.9021	1.4	T_COLOR_NAME	1	Neutral	czerwony	red	Neutral	Neutral	hit	n/a
303.2663	n/a	RESPONSE	n/a	n/a	n/a	n/a	n/a	n/a	n/a	red
303.3021	0.5167	FEEDBACK	n/a	n/a	n/a	n/a	n/a	n/a	n/a	n/a
303.8188	1.0167	ITI	n/a	n/a	n/a	n/a	n/a	n/a	n/a	n/a
304.8355	0.5167	FIXCROSS	n/a	n/a	n/a	n/a	n/a	n/a	n/a	n/a
305.3521	1.4333	T_COLOR_NAME	2	Incongruent	zielony	green	czerwony	red	hit	n/a
306.7621	n/a	RESPONSE	n/a	n/a	n/a	n/a	n/a	n/a	n/a	green
306.7855	0.5167	FEEDBACK	n/a	n/a	n/a	n/a	n/a	n/a	n/a	n/a
307.3021	1.0167	ITI	n/a	n/a	n/a	n/a	n/a	n/a	n/a	n/a
308.3188	0.5167	FIXCROSS	n/a	n/a	n/a	n/a	n/a	n/a	n/a	n/a
308.8355	0.8	T_COLOR_NAME	3	Neutral	zielony	green	Neutral	Neutral	hit	n/a
309.6036	n/a	RESPONSE	n/a	n/a	n/a	n/a	n/a	n/a	n/a	green
309.6355	0.5166	FEEDBACK	n/a	n/a	n/a	n/a	n/a	n/a	n/a	n/a
310.1521	1.0167	ITI	n/a	n/a	n/a	n/a	n/a	n/a	n/a	n/a
311.1689	0.5166	FIXCROSS	n/a	n/a	n/a	n/a	n/a	n/a	n/a	n/a
311.6855	0.7	T_COLOR_NAME	4	Neutral	zielony	green	Neutral	Neutral	hit	n/a
312.365	n/a	RESPONSE	n/a	n/a	n/a	n/a	n/a	n/a	n/a	green
312.3855	0.5167	FEEDBACK	n/a	n/a	n/a	n/a	n/a	n/a	n/a	n/a
312.9022	1.0167	ITI	n/a	n/a	n/a	n/a	n/a	n/a	n/a	n/a
313.9189	0.5167	FIXCROSS	n/a	n/a	n/a	n/a	n/a	n/a	n/a	n/a
314.4355	1.0167	T_COLOR_NAME	5	Incongruent	niebieski	blue	czerwony	red	hit	n/a
315.4299	n/a	RESPONSE	n/a	n/a	n/a	n/a	n/a	n/a	n/a	blue
315.4522	0.5167	FEEDBACK	n/a	n/a	n/a	n/a	n/a	n/a	n/a	n/a
315.9689	1.0167	ITI	n/a	n/a	n/a	n/a	n/a	n/a	n/a	n/a
316.9856	0.5166	FIXCROSS	n/a	n/a	n/a	n/a	n/a	n/a	n/a	n/a
317.5022	1.05	T_COLOR_NAME	6	Incongruent	czerwony	red	żółty	yellow	hit	n/a
318.5266	n/a	RESPONSE	n/a	n/a	n/a	n/a	n/a	n/a	n/a	red
318.5522	0.5167	FEEDBACK	n/a	n/a	n/a	n/a	n/a	n/a	n/a	n/a
319.0689	1.0167	ITI	n/a	n/a	n/a	n/a	n/a	n/a	n/a	n/a
320.0856	0.5167	FIXCROSS	n/a	n/a	n/a	n/a	n/a	n/a	n/a	n/a
320.6023	1.0	T_COLOR_NAME	7	Neutral	żółty	yellow	Neutral	Neutral	hit	n/a
321.5754	n/a	RESPONSE	n/a	n/a	n/a	n/a	n/a	n/a	n/a	yellow
321.6022	0.5167	FEEDBACK	n/a	n/a	n/a	n/a	n/a	n/a	n/a	n/a
322.1189	1.0167	ITI	n/a	n/a	n/a	n/a	n/a	n/a	n/a	n/a
323.1356	0.5167	FIXCROSS	n/a	n/a	n/a	n/a	n/a	n/a	n/a	n/a
323.6523	0.9833	T_COLOR_NAME	8	Incongruent	zielony	green	żółty	yellow	hit	n/a
324.6084	n/a	RESPONSE	n/a	n/a	n/a	n/a	n/a	n/a	n/a	green
324.6356	0.5166	FEEDBACK	n/a	n/a	n/a	n/a	n/a	n/a	n/a	n/a
325.1523	1.0167	ITI	n/a	n/a	n/a	n/a	n/a	n/a	n/a	n/a
326.169	0.5167	FIXCROSS	n/a	n/a	n/a	n/a	n/a	n/a	n/a	n/a
326.6856	1.1833	T_COLOR_NAME	9	Incongruent	żółty	yellow	zielony	green	hit	n/a
327.8329	n/a	RESPONSE	n/a	n/a	n/a	n/a	n/a	n/a	n/a	yellow
327.869	0.5167	FEEDBACK	n/a	n/a	n/a	n/a	n/a	n/a	n/a	n/a
328.3857	1.0167	ITI	n/a	n/a	n/a	n/a	n/a	n/a	n/a	n/a
329.4023	0.5167	FIXCROSS	n/a	n/a	n/a	n/a	n/a	n/a	n/a	n/a
329.919	0.8	T_COLOR_NAME	10	Neutral	żółty	yellow	Neutral	Neutral	hit	n/a
330.6902	n/a	RESPONSE	n/a	n/a	n/a	n/a	n/a	n/a	n/a	yellow
330.719	0.5167	FEEDBACK	n/a	n/a	n/a	n/a	n/a	n/a	n/a	n/a
331.2357	1.0167	ITI	n/a	n/a	n/a	n/a	n/a	n/a	n/a	n/a
332.2523	0.5167	FIXCROSS	n/a	n/a	n/a	n/a	n/a	n/a	n/a	n/a
332.769	1.0666	T_COLOR_NAME	11	Neutral	niebieski	blue	Neutral	Neutral	hit	n/a
333.8029	n/a	RESPONSE	n/a	n/a	n/a	n/a	n/a	n/a	n/a	blue
333.8357	0.5167	FEEDBACK	n/a	n/a	n/a	n/a	n/a	n/a	n/a	n/a
334.3524	1.0166	ITI	n/a	n/a	n/a	n/a	n/a	n/a	n/a	n/a
335.369	0.5167	FIXCROSS	n/a	n/a	n/a	n/a	n/a	n/a	n/a	n/a
335.8857	0.9833	T_COLOR_NAME	12	Incongruent	zielony	green	niebieski	blue	hit	n/a
336.8358	n/a	RESPONSE	n/a	n/a	n/a	n/a	n/a	n/a	n/a	green
336.8691	0.5167	FEEDBACK	n/a	n/a	n/a	n/a	n/a	n/a	n/a	n/a
337.3857	1.0333	ITI	n/a	n/a	n/a	n/a	n/a	n/a	n/a	n/a
343.4922	n/a	RESPONSE	n/a	n/a	n/a	n/a	n/a	n/a	n/a	n/a
343.5524	1.0167	ITI	n/a	n/a	n/a	n/a	n/a	n/a	n/a	n/a
344.5691	0.5167	FIXCROSS	n/a	n/a	n/a	n/a	n/a	n/a	n/a	n/a
345.0858	1.2	COLOR_NAME	1	Incongruent	niebieski	blue	zielony	green	hit	n/a
346.2538	n/a	RESPONSE	n/a	n/a	n/a	n/a	n/a	n/a	n/a	blue
346.2858	1.0167	ITI	n/a	n/a	n/a	n/a	n/a	n/a	n/a	n/a
347.3025	0.5167	FIXCROSS	n/a	n/a	n/a	n/a	n/a	n/a	n/a	n/a
347.8191	0.75	COLOR_NAME	2	Neutral	niebieski	blue	Neutral	Neutral	hit	n/a
348.5365	n/a	RESPONSE	n/a	n/a	n/a	n/a	n/a	n/a	n/a	blue
348.5691	1.0167	ITI	n/a	n/a	n/a	n/a	n/a	n/a	n/a	n/a
349.5858	0.5167	FIXCROSS	n/a	n/a	n/a	n/a	n/a	n/a	n/a	n/a
350.1025	0.7167	COLOR_NAME	3	Neutral	czerwony	red	Neutral	Neutral	hit	n/a
350.7873	n/a	RESPONSE	n/a	n/a	n/a	n/a	n/a	n/a	n/a	red
350.8192	1.0167	ITI	n/a	n/a	n/a	n/a	n/a	n/a	n/a	n/a
351.8358	0.5166	FIXCROSS	n/a	n/a	n/a	n/a	n/a	n/a	n/a	n/a
352.3524	0.5668	COLOR_NAME	4	Incongruent	czerwony	red	żółty	yellow	hit	n/a
352.8944	n/a	RESPONSE	n/a	n/a	n/a	n/a	n/a	n/a	n/a	red
352.9192	1.0167	ITI	n/a	n/a	n/a	n/a	n/a	n/a	n/a	n/a
353.9359	0.5167	FIXCROSS	n/a	n/a	n/a	n/a	n/a	n/a	n/a	n/a
354.4525	0.55	COLOR_NAME	5	Incongruent	czerwony	red	niebieski	blue	hit	n/a
354.9695	n/a	RESPONSE	n/a	n/a	n/a	n/a	n/a	n/a	n/a	red
355.0025	1.0167	ITI	n/a	n/a	n/a	n/a	n/a	n/a	n/a	n/a
356.0192	0.5167	FIXCROSS	n/a	n/a	n/a	n/a	n/a	n/a	n/a	n/a
356.5359	0.7667	COLOR_NAME	6	Neutral	zielony	green	Neutral	Neutral	hit	n/a
357.284	n/a	RESPONSE	n/a	n/a	n/a	n/a	n/a	n/a	n/a	green
357.3026	1.0167	ITI	n/a	n/a	n/a	n/a	n/a	n/a	n/a	n/a
358.3192	0.5167	FIXCROSS	n/a	n/a	n/a	n/a	n/a	n/a	n/a	n/a
358.8359	0.9	COLOR_NAME	7	Neutral	niebieski	blue	Neutral	Neutral	hit	n/a
359.7104	n/a	RESPONSE	n/a	n/a	n/a	n/a	n/a	n/a	n/a	blue
359.7359	1.0167	ITI	n/a	n/a	n/a	n/a	n/a	n/a	n/a	n/a
360.7526	0.5167	FIXCROSS	n/a	n/a	n/a	n/a	n/a	n/a	n/a	n/a
361.2693	0.6833	COLOR_NAME	8	Neutral	niebieski	blue	Neutral	Neutral	hit	n/a
361.9293	n/a	RESPONSE	n/a	n/a	n/a	n/a	n/a	n/a	n/a	blue
361.9526	1.0167	ITI	n/a	n/a	n/a	n/a	n/a	n/a	n/a	n/a
362.9693	0.5167	FIXCROSS	n/a	n/a	n/a	n/a	n/a	n/a	n/a	n/a
363.4859	0.6	COLOR_NAME	9	Neutral	niebieski	blue	Neutral	Neutral	hit	n/a
364.0684	n/a	RESPONSE	n/a	n/a	n/a	n/a	n/a	n/a	n/a	blue
364.0859	1.0166	ITI	n/a	n/a	n/a	n/a	n/a	n/a	n/a	n/a
365.1026	0.5167	FIXCROSS	n/a	n/a	n/a	n/a	n/a	n/a	n/a	n/a
365.6193	0.7167	COLOR_NAME	10	Neutral	czerwony	red	Neutral	Neutral	hit	n/a
366.3031	n/a	RESPONSE	n/a	n/a	n/a	n/a	n/a	n/a	n/a	red
366.336	1.0166	ITI	n/a	n/a	n/a	n/a	n/a	n/a	n/a	n/a
367.3526	0.5167	FIXCROSS	n/a	n/a	n/a	n/a	n/a	n/a	n/a	n/a
367.8693	0.9333	COLOR_NAME	11	Neutral	zielony	green	Neutral	Neutral	hit	n/a
368.7773	n/a	RESPONSE	n/a	n/a	n/a	n/a	n/a	n/a	n/a	green
368.8027	1.0167	ITI	n/a	n/a	n/a	n/a	n/a	n/a	n/a	n/a
369.8193	0.5167	FIXCROSS	n/a	n/a	n/a	n/a	n/a	n/a	n/a	n/a
370.336	1.0667	COLOR_NAME	12	Incongruent	żółty	yellow	niebieski	blue	hit	n/a
371.3791	n/a	RESPONSE	n/a	n/a	n/a	n/a	n/a	n/a	n/a	yellow
371.4027	1.0166	ITI	n/a	n/a	n/a	n/a	n/a	n/a	n/a	n/a
372.4193	0.5167	FIXCROSS	n/a	n/a	n/a	n/a	n/a	n/a	n/a	n/a
372.936	0.9334	COLOR_NAME	13	Neutral	zielony	green	Neutral	Neutral	hit	n/a
373.8374	n/a	RESPONSE	n/a	n/a	n/a	n/a	n/a	n/a	n/a	green
373.8693	1.0167	ITI	n/a	n/a	n/a	n/a	n/a	n/a	n/a	n/a
374.886	0.5166	FIXCROSS	n/a	n/a	n/a	n/a	n/a	n/a	n/a	n/a
375.4027	0.65	COLOR_NAME	14	Incongruent	zielony	green	żółty	yellow	hit	n/a
376.0243	n/a	RESPONSE	n/a	n/a	n/a	n/a	n/a	n/a	n/a	green
376.0527	1.0167	ITI	n/a	n/a	n/a	n/a	n/a	n/a	n/a	n/a
377.0694	0.5167	FIXCROSS	n/a	n/a	n/a	n/a	n/a	n/a	n/a	n/a
377.5861	0.7833	COLOR_NAME	15	Incongruent	czerwony	red	zielony	green	hit	n/a
378.339	n/a	RESPONSE	n/a	n/a	n/a	n/a	n/a	n/a	n/a	red
378.3694	1.0167	ITI	n/a	n/a	n/a	n/a	n/a	n/a	n/a	n/a
379.3861	0.5167	FIXCROSS	n/a	n/a	n/a	n/a	n/a	n/a	n/a	n/a
379.9027	0.8167	COLOR_NAME	16	Neutral	niebieski	blue	Neutral	Neutral	hit	n/a
380.6854	n/a	RESPONSE	n/a	n/a	n/a	n/a	n/a	n/a	n/a	blue
380.7194	1.0167	ITI	n/a	n/a	n/a	n/a	n/a	n/a	n/a	n/a
381.7361	0.5167	FIXCROSS	n/a	n/a	n/a	n/a	n/a	n/a	n/a	n/a
382.2527	0.8833	COLOR_NAME	17	Neutral	żółty	yellow	Neutral	Neutral	hit	n/a
383.1118	n/a	RESPONSE	n/a	n/a	n/a	n/a	n/a	n/a	n/a	yellow
383.1361	1.0167	ITI	n/a	n/a	n/a	n/a	n/a	n/a	n/a	n/a
384.1528	0.5167	FIXCROSS	n/a	n/a	n/a	n/a	n/a	n/a	n/a	n/a
384.6694	0.65	COLOR_NAME	18	Neutral	żółty	yellow	Neutral	Neutral	hit	n/a
385.2986	n/a	RESPONSE	n/a	n/a	n/a	n/a	n/a	n/a	n/a	yellow
385.3194	1.0167	ITI	n/a	n/a	n/a	n/a	n/a	n/a	n/a	n/a
386.3361	0.5167	FIXCROSS	n/a	n/a	n/a	n/a	n/a	n/a	n/a	n/a
386.8528	0.9167	COLOR_NAME	19	Incongruent	zielony	green	czerwony	red	hit	n/a
387.7409	n/a	RESPONSE	n/a	n/a	n/a	n/a	n/a	n/a	n/a	green
387.7695	1.0167	ITI	n/a	n/a	n/a	n/a	n/a	n/a	n/a	n/a
388.7861	0.5167	FIXCROSS	n/a	n/a	n/a	n/a	n/a	n/a	n/a	n/a
389.3028	0.7	COLOR_NAME	20	Incongruent	zielony	green	żółty	yellow	hit	n/a
389.9757	n/a	RESPONSE	n/a	n/a	n/a	n/a	n/a	n/a	n/a	green
390.0028	1.0167	ITI	n/a	n/a	n/a	n/a	n/a	n/a	n/a	n/a
391.0195	0.5167	FIXCROSS	n/a	n/a	n/a	n/a	n/a	n/a	n/a	n/a
391.5362	0.8166	COLOR_NAME	21	Incongruent	niebieski	blue	żółty	yellow	hit	n/a
392.3222	n/a	RESPONSE	n/a	n/a	n/a	n/a	n/a	n/a	n/a	blue
392.3528	1.0167	ITI	n/a	n/a	n/a	n/a	n/a	n/a	n/a	n/a
393.3695	0.5166	FIXCROSS	n/a	n/a	n/a	n/a	n/a	n/a	n/a	n/a
393.8861	0.7834	COLOR_NAME	22	Neutral	czerwony	red	Neutral	Neutral	hit	n/a
394.6368	n/a	RESPONSE	n/a	n/a	n/a	n/a	n/a	n/a	n/a	red
394.6695	1.0166	ITI	n/a	n/a	n/a	n/a	n/a	n/a	n/a	n/a
395.6862	0.5167	FIXCROSS	n/a	n/a	n/a	n/a	n/a	n/a	n/a	n/a
396.2029	0.9333	COLOR_NAME	23	Incongruent	niebieski	blue	żółty	yellow	hit	n/a
397.111	n/a	RESPONSE	n/a	n/a	n/a	n/a	n/a	n/a	n/a	blue
397.1362	1.0167	ITI	n/a	n/a	n/a	n/a	n/a	n/a	n/a	n/a
398.1529	0.5167	FIXCROSS	n/a	n/a	n/a	n/a	n/a	n/a	n/a	n/a
398.6695	0.8167	COLOR_NAME	24	Neutral	zielony	green	Neutral	Neutral	hit	n/a
399.4576	n/a	RESPONSE	n/a	n/a	n/a	n/a	n/a	n/a	n/a	green
399.4862	1.0167	ITI	n/a	n/a	n/a	n/a	n/a	n/a	n/a	n/a
400.5029	0.5167	FIXCROSS	n/a	n/a	n/a	n/a	n/a	n/a	n/a	n/a
401.0196	0.9	COLOR_NAME	25	Incongruent	żółty	yellow	czerwony	red	hit	n/a
401.884	n/a	RESPONSE	n/a	n/a	n/a	n/a	n/a	n/a	n/a	yellow
401.9195	1.0167	ITI	n/a	n/a	n/a	n/a	n/a	n/a	n/a	n/a
402.9363	0.5167	FIXCROSS	n/a	n/a	n/a	n/a	n/a	n/a	n/a	n/a
403.4529	0.9	COLOR_NAME	26	Incongruent	zielony	green	niebieski	blue	hit	n/a
404.3262	n/a	RESPONSE	n/a	n/a	n/a	n/a	n/a	n/a	n/a	green
404.3529	1.0167	ITI	n/a	n/a	n/a	n/a	n/a	n/a	n/a	n/a
405.3696	0.5167	FIXCROSS	n/a	n/a	n/a	n/a	n/a	n/a	n/a	n/a
405.8863	0.6666	COLOR_NAME	27	Incongruent	czerwony	red	zielony	green	hit	n/a
406.529	n/a	RESPONSE	n/a	n/a	n/a	n/a	n/a	n/a	n/a	red
406.5529	1.0167	ITI	n/a	n/a	n/a	n/a	n/a	n/a	n/a	n/a
407.5696	0.5167	FIXCROSS	n/a	n/a	n/a	n/a	n/a	n/a	n/a	n/a
408.0863	0.9333	COLOR_NAME	28	Incongruent	żółty	yellow	niebieski	blue	hit	n/a
408.9874	n/a	RESPONSE	n/a	n/a	n/a	n/a	n/a	n/a	n/a	yellow
409.0196	1.0167	ITI	n/a	n/a	n/a	n/a	n/a	n/a	n/a	n/a
410.0363	0.5166	FIXCROSS	n/a	n/a	n/a	n/a	n/a	n/a	n/a	n/a
410.553	0.9	COLOR_NAME	29	Incongruent	zielony	green	niebieski	blue	hit	n/a
411.4296	n/a	RESPONSE	n/a	n/a	n/a	n/a	n/a	n/a	n/a	green
411.453	1.0167	ITI	n/a	n/a	n/a	n/a	n/a	n/a	n/a	n/a
412.4697	0.5167	FIXCROSS	n/a	n/a	n/a	n/a	n/a	n/a	n/a	n/a
412.9863	0.6833	COLOR_NAME	30	Neutral	czerwony	red	Neutral	Neutral	hit	n/a
413.6484	n/a	RESPONSE	n/a	n/a	n/a	n/a	n/a	n/a	n/a	red
413.6696	1.0167	ITI	n/a	n/a	n/a	n/a	n/a	n/a	n/a	n/a
414.6863	0.5167	FIXCROSS	n/a	n/a	n/a	n/a	n/a	n/a	n/a	n/a
415.203	0.9166	COLOR_NAME	31	Incongruent	żółty	yellow	niebieski	blue	hit	n/a
416.0908	n/a	RESPONSE	n/a	n/a	n/a	n/a	n/a	n/a	n/a	yellow
416.1197	1.0167	ITI	n/a	n/a	n/a	n/a	n/a	n/a	n/a	n/a
417.1364	0.5167	FIXCROSS	n/a	n/a	n/a	n/a	n/a	n/a	n/a	n/a
417.653	0.8666	COLOR_NAME	32	Neutral	żółty	yellow	Neutral	Neutral	hit	n/a
418.501	n/a	RESPONSE	n/a	n/a	n/a	n/a	n/a	n/a	n/a	yellow
418.5197	1.0167	ITI	n/a	n/a	n/a	n/a	n/a	n/a	n/a	n/a
419.5364	0.5167	FIXCROSS	n/a	n/a	n/a	n/a	n/a	n/a	n/a	n/a
420.0531	0.7	COLOR_NAME	33	Incongruent	czerwony	red	niebieski	blue	hit	n/a
420.7198	n/a	RESPONSE	n/a	n/a	n/a	n/a	n/a	n/a	n/a	red
420.7531	1.0167	ITI	n/a	n/a	n/a	n/a	n/a	n/a	n/a	n/a
421.7697	0.5167	FIXCROSS	n/a	n/a	n/a	n/a	n/a	n/a	n/a	n/a
422.2864	0.7666	COLOR_NAME	34	Neutral	zielony	green	Neutral	Neutral	hit	n/a
423.0345	n/a	RESPONSE	n/a	n/a	n/a	n/a	n/a	n/a	n/a	green
423.053	1.0167	ITI	n/a	n/a	n/a	n/a	n/a	n/a	n/a	n/a
424.0698	0.5167	FIXCROSS	n/a	n/a	n/a	n/a	n/a	n/a	n/a	n/a
424.5864	0.8667	COLOR_NAME	35	Incongruent	żółty	yellow	czerwony	red	hit	n/a
425.4289	n/a	RESPONSE	n/a	n/a	n/a	n/a	n/a	n/a	n/a	yellow
425.4531	1.0167	ITI	n/a	n/a	n/a	n/a	n/a	n/a	n/a	n/a
426.4698	0.5167	FIXCROSS	n/a	n/a	n/a	n/a	n/a	n/a	n/a	n/a
426.9864	0.8167	COLOR_NAME	36	Neutral	zielony	green	Neutral	Neutral	hit	n/a
427.7754	n/a	RESPONSE	n/a	n/a	n/a	n/a	n/a	n/a	n/a	green
427.8031	1.0167	ITI	n/a	n/a	n/a	n/a	n/a	n/a	n/a	n/a
428.8198	0.5166	FIXCROSS	n/a	n/a	n/a	n/a	n/a	n/a	n/a	n/a
429.3364	0.8834	COLOR_NAME	37	Neutral	niebieski	blue	Neutral	Neutral	hit	n/a
430.1858	n/a	RESPONSE	n/a	n/a	n/a	n/a	n/a	n/a	n/a	blue
430.2198	1.0166	ITI	n/a	n/a	n/a	n/a	n/a	n/a	n/a	n/a
431.2364	0.5167	FIXCROSS	n/a	n/a	n/a	n/a	n/a	n/a	n/a	n/a
431.7531	0.8167	COLOR_NAME	38	Neutral	żółty	yellow	Neutral	Neutral	hit	n/a
432.5482	n/a	RESPONSE	n/a	n/a	n/a	n/a	n/a	n/a	n/a	yellow
432.5698	1.0166	ITI	n/a	n/a	n/a	n/a	n/a	n/a	n/a	n/a
433.5865	0.5167	FIXCROSS	n/a	n/a	n/a	n/a	n/a	n/a	n/a	n/a
434.1032	0.7	COLOR_NAME	39	Neutral	żółty	yellow	Neutral	Neutral	hit	n/a
434.7831	n/a	RESPONSE	n/a	n/a	n/a	n/a	n/a	n/a	n/a	yellow
434.8032	1.0167	ITI	n/a	n/a	n/a	n/a	n/a	n/a	n/a	n/a
435.8199	0.5167	FIXCROSS	n/a	n/a	n/a	n/a	n/a	n/a	n/a	n/a
436.3365	0.7	COLOR_NAME	40	Incongruent	żółty	yellow	zielony	green	hit	n/a
437.0178	n/a	RESPONSE	n/a	n/a	n/a	n/a	n/a	n/a	n/a	yellow
437.0365	1.0166	ITI	n/a	n/a	n/a	n/a	n/a	n/a	n/a	n/a
438.0532	0.5167	FIXCROSS	n/a	n/a	n/a	n/a	n/a	n/a	n/a	n/a
438.5699	0.8833	COLOR_NAME	41	Incongruent	zielony	green	czerwony	red	hit	n/a
439.4282	n/a	RESPONSE	n/a	n/a	n/a	n/a	n/a	n/a	n/a	green
439.4532	1.0167	ITI	n/a	n/a	n/a	n/a	n/a	n/a	n/a	n/a
440.4699	0.5167	FIXCROSS	n/a	n/a	n/a	n/a	n/a	n/a	n/a	n/a
440.9866	0.7167	COLOR_NAME	42	Neutral	żółty	yellow	Neutral	Neutral	hit	n/a
441.679	n/a	RESPONSE	n/a	n/a	n/a	n/a	n/a	n/a	n/a	yellow
441.7032	1.0166	ITI	n/a	n/a	n/a	n/a	n/a	n/a	n/a	n/a
442.7199	0.5167	FIXCROSS	n/a	n/a	n/a	n/a	n/a	n/a	n/a	n/a
443.2366	0.95	COLOR_NAME	43	Incongruent	niebieski	blue	czerwony	red	hit	n/a
444.1691	n/a	RESPONSE	n/a	n/a	n/a	n/a	n/a	n/a	n/a	blue
444.1866	1.0167	ITI	n/a	n/a	n/a	n/a	n/a	n/a	n/a	n/a
445.2033	0.5167	FIXCROSS	n/a	n/a	n/a	n/a	n/a	n/a	n/a	n/a
445.7199	0.8667	COLOR_NAME	44	Neutral	żółty	yellow	Neutral	Neutral	hit	n/a
446.5636	n/a	RESPONSE	n/a	n/a	n/a	n/a	n/a	n/a	n/a	yellow
446.5866	1.0167	ITI	n/a	n/a	n/a	n/a	n/a	n/a	n/a	n/a
447.6033	0.5167	FIXCROSS	n/a	n/a	n/a	n/a	n/a	n/a	n/a	n/a
448.12	0.75	COLOR_NAME	45	Incongruent	czerwony	red	niebieski	blue	hit	n/a
448.8462	n/a	RESPONSE	n/a	n/a	n/a	n/a	n/a	n/a	n/a	red
448.87	1.0167	ITI	n/a	n/a	n/a	n/a	n/a	n/a	n/a	n/a
449.8866	0.5166	FIXCROSS	n/a	n/a	n/a	n/a	n/a	n/a	n/a	n/a
450.4033	0.7834	COLOR_NAME	46	Incongruent	żółty	yellow	zielony	green	hit	n/a
451.1607	n/a	RESPONSE	n/a	n/a	n/a	n/a	n/a	n/a	n/a	yellow
451.1866	1.0167	ITI	n/a	n/a	n/a	n/a	n/a	n/a	n/a	n/a
452.2033	0.5166	FIXCROSS	n/a	n/a	n/a	n/a	n/a	n/a	n/a	n/a
452.72	0.7	COLOR_NAME	47	Incongruent	zielony	green	niebieski	blue	hit	n/a
453.3956	n/a	RESPONSE	n/a	n/a	n/a	n/a	n/a	n/a	n/a	green
453.42	1.0166	ITI	n/a	n/a	n/a	n/a	n/a	n/a	n/a	n/a
454.4366	0.5167	FIXCROSS	n/a	n/a	n/a	n/a	n/a	n/a	n/a	n/a
454.9533	0.7167	COLOR_NAME	48	Neutral	niebieski	blue	Neutral	Neutral	hit	n/a
455.6463	n/a	RESPONSE	n/a	n/a	n/a	n/a	n/a	n/a	n/a	blue
455.67	1.0166	ITI	n/a	n/a	n/a	n/a	n/a	n/a	n/a	n/a
456.6867	0.5167	FIXCROSS	n/a	n/a	n/a	n/a	n/a	n/a	n/a	n/a
457.2034	0.75	COLOR_NAME	49	Incongruent	niebieski	blue	zielony	green	hit	n/a
457.929	n/a	RESPONSE	n/a	n/a	n/a	n/a	n/a	n/a	n/a	blue
457.9534	1.0167	ITI	n/a	n/a	n/a	n/a	n/a	n/a	n/a	n/a
458.97	0.5166	FIXCROSS	n/a	n/a	n/a	n/a	n/a	n/a	n/a	n/a
459.4867	0.7834	COLOR_NAME	50	Neutral	zielony	green	Neutral	Neutral	hit	n/a
460.2435	n/a	RESPONSE	n/a	n/a	n/a	n/a	n/a	n/a	n/a	green
460.2701	1.0167	ITI	n/a	n/a	n/a	n/a	n/a	n/a	n/a	n/a
461.2867	0.5167	FIXCROSS	n/a	n/a	n/a	n/a	n/a	n/a	n/a	n/a
461.8034	0.8	COLOR_NAME	51	Incongruent	zielony	green	żółty	yellow	hit	n/a
462.5741	n/a	RESPONSE	n/a	n/a	n/a	n/a	n/a	n/a	n/a	green
462.6034	1.0167	ITI	n/a	n/a	n/a	n/a	n/a	n/a	n/a	n/a
463.6201	0.5167	FIXCROSS	n/a	n/a	n/a	n/a	n/a	n/a	n/a	n/a
464.1368	0.95	COLOR_NAME	52	Incongruent	niebieski	blue	czerwony	red	hit	n/a
465.0644	n/a	RESPONSE	n/a	n/a	n/a	n/a	n/a	n/a	n/a	blue
465.0868	1.0167	ITI	n/a	n/a	n/a	n/a	n/a	n/a	n/a	n/a
466.1034	0.5166	FIXCROSS	n/a	n/a	n/a	n/a	n/a	n/a	n/a	n/a
466.6201	0.85	COLOR_NAME	53	Incongruent	żółty	yellow	czerwony	red	hit	n/a
467.4429	n/a	RESPONSE	n/a	n/a	n/a	n/a	n/a	n/a	n/a	yellow
467.4701	1.0166	ITI	n/a	n/a	n/a	n/a	n/a	n/a	n/a	n/a
468.4867	0.5167	FIXCROSS	n/a	n/a	n/a	n/a	n/a	n/a	n/a	n/a
469.0035	0.8167	COLOR_NAME	54	Incongruent	żółty	yellow	zielony	green	hit	n/a
469.7893	n/a	RESPONSE	n/a	n/a	n/a	n/a	n/a	n/a	n/a	yellow
469.8201	1.0167	ITI	n/a	n/a	n/a	n/a	n/a	n/a	n/a	n/a
470.8368	0.5167	FIXCROSS	n/a	n/a	n/a	n/a	n/a	n/a	n/a	n/a
471.3535	0.8833	COLOR_NAME	55	Incongruent	niebieski	blue	zielony	green	hit	n/a
472.2156	n/a	RESPONSE	n/a	n/a	n/a	n/a	n/a	n/a	n/a	blue
472.2368	1.0167	ITI	n/a	n/a	n/a	n/a	n/a	n/a	n/a	n/a
473.2535	0.5167	FIXCROSS	n/a	n/a	n/a	n/a	n/a	n/a	n/a	n/a
473.7702	0.8166	COLOR_NAME	56	Neutral	niebieski	blue	Neutral	Neutral	hit	n/a
474.5621	n/a	RESPONSE	n/a	n/a	n/a	n/a	n/a	n/a	n/a	blue
474.5868	1.0167	ITI	n/a	n/a	n/a	n/a	n/a	n/a	n/a	n/a
475.6035	0.5167	FIXCROSS	n/a	n/a	n/a	n/a	n/a	n/a	n/a	n/a
476.1202	0.7333	COLOR_NAME	57	Neutral	czerwony	red	Neutral	Neutral	hit	n/a
476.8288	n/a	RESPONSE	n/a	n/a	n/a	n/a	n/a	n/a	n/a	red
476.8535	1.0166	ITI	n/a	n/a	n/a	n/a	n/a	n/a	n/a	n/a
477.8702	0.5167	FIXCROSS	n/a	n/a	n/a	n/a	n/a	n/a	n/a	n/a
478.3868	0.6834	COLOR_NAME	58	Neutral	żółty	yellow	Neutral	Neutral	hit	n/a
479.0477	n/a	RESPONSE	n/a	n/a	n/a	n/a	n/a	n/a	n/a	yellow
479.0702	1.0167	ITI	n/a	n/a	n/a	n/a	n/a	n/a	n/a	n/a
480.0869	0.5167	FIXCROSS	n/a	n/a	n/a	n/a	n/a	n/a	n/a	n/a
480.6036	0.95	COLOR_NAME	59	Incongruent	niebieski	blue	żółty	yellow	hit	n/a
481.5219	n/a	RESPONSE	n/a	n/a	n/a	n/a	n/a	n/a	n/a	blue
481.5535	1.0167	ITI	n/a	n/a	n/a	n/a	n/a	n/a	n/a	n/a
482.5702	0.5167	FIXCROSS	n/a	n/a	n/a	n/a	n/a	n/a	n/a	n/a
483.0869	0.8167	COLOR_NAME	60	Neutral	czerwony	red	Neutral	Neutral	hit	n/a
483.8844	n/a	RESPONSE	n/a	n/a	n/a	n/a	n/a	n/a	n/a	red
483.9035	1.0167	ITI	n/a	n/a	n/a	n/a	n/a	n/a	n/a	n/a
484.9202	0.5166	FIXCROSS	n/a	n/a	n/a	n/a	n/a	n/a	n/a	n/a
485.4369	0.8	COLOR_NAME	61	Neutral	niebieski	blue	Neutral	Neutral	hit	n/a
486.2149	n/a	RESPONSE	n/a	n/a	n/a	n/a	n/a	n/a	n/a	blue
486.2369	1.0167	ITI	n/a	n/a	n/a	n/a	n/a	n/a	n/a	n/a
487.2536	0.5167	FIXCROSS	n/a	n/a	n/a	n/a	n/a	n/a	n/a	n/a
487.7703	0.9333	COLOR_NAME	62	Incongruent	zielony	green	czerwony	red	hit	n/a
488.6731	n/a	RESPONSE	n/a	n/a	n/a	n/a	n/a	n/a	n/a	green
488.7036	1.0167	ITI	n/a	n/a	n/a	n/a	n/a	n/a	n/a	n/a
489.7203	0.5166	FIXCROSS	n/a	n/a	n/a	n/a	n/a	n/a	n/a	n/a
490.2369	0.8	COLOR_NAME	63	Incongruent	czerwony	red	żółty	yellow	hit	n/a
491.0037	n/a	RESPONSE	n/a	n/a	n/a	n/a	n/a	n/a	n/a	red
491.037	1.0167	ITI	n/a	n/a	n/a	n/a	n/a	n/a	n/a	n/a
492.0536	0.5167	FIXCROSS	n/a	n/a	n/a	n/a	n/a	n/a	n/a	n/a
492.5703	0.65	COLOR_NAME	64	Neutral	czerwony	red	Neutral	Neutral	hit	n/a
493.1906	n/a	RESPONSE	n/a	n/a	n/a	n/a	n/a	n/a	n/a	red
493.2203	1.0167	ITI	n/a	n/a	n/a	n/a	n/a	n/a	n/a	n/a
494.237	0.5166	FIXCROSS	n/a	n/a	n/a	n/a	n/a	n/a	n/a	n/a
494.7536	0.8667	COLOR_NAME	65	Incongruent	niebieski	blue	czerwony	red	hit	n/a
495.6009	n/a	RESPONSE	n/a	n/a	n/a	n/a	n/a	n/a	n/a	blue
495.6203	1.0167	ITI	n/a	n/a	n/a	n/a	n/a	n/a	n/a	n/a
496.637	0.5167	FIXCROSS	n/a	n/a	n/a	n/a	n/a	n/a	n/a	n/a
497.1537	1.2167	COLOR_NAME	66	Incongruent	czerwony	red	zielony	green	hit	n/a
498.3465	n/a	RESPONSE	n/a	n/a	n/a	n/a	n/a	n/a	n/a	red
498.3704	1.0167	ITI	n/a	n/a	n/a	n/a	n/a	n/a	n/a	n/a
499.387	0.5167	FIXCROSS	n/a	n/a	n/a	n/a	n/a	n/a	n/a	n/a
499.9037	0.9	COLOR_NAME	67	Neutral	żółty	yellow	Neutral	Neutral	hit	n/a
500.7729	n/a	RESPONSE	n/a	n/a	n/a	n/a	n/a	n/a	n/a	yellow
500.8037	1.0167	ITI	n/a	n/a	n/a	n/a	n/a	n/a	n/a	n/a
501.8204	0.5167	FIXCROSS	n/a	n/a	n/a	n/a	n/a	n/a	n/a	n/a
502.3371	0.9	COLOR_NAME	68	Neutral	zielony	green	Neutral	Neutral	hit	n/a
503.215	n/a	RESPONSE	n/a	n/a	n/a	n/a	n/a	n/a	n/a	green
503.2371	1.0167	ITI	n/a	n/a	n/a	n/a	n/a	n/a	n/a	n/a
504.2537	0.5167	FIXCROSS	n/a	n/a	n/a	n/a	n/a	n/a	n/a	n/a
504.7704	0.7333	COLOR_NAME	69	Neutral	czerwony	red	Neutral	Neutral	hit	n/a
505.4818	n/a	RESPONSE	n/a	n/a	n/a	n/a	n/a	n/a	n/a	red
505.5038	1.0167	ITI	n/a	n/a	n/a	n/a	n/a	n/a	n/a	n/a
506.5204	0.5167	FIXCROSS	n/a	n/a	n/a	n/a	n/a	n/a	n/a	n/a
507.0371	0.8167	COLOR_NAME	70	Neutral	zielony	green	Neutral	Neutral	hit	n/a
507.8282	n/a	RESPONSE	n/a	n/a	n/a	n/a	n/a	n/a	n/a	green
507.8538	1.0167	ITI	n/a	n/a	n/a	n/a	n/a	n/a	n/a	n/a
508.8704	0.5167	FIXCROSS	n/a	n/a	n/a	n/a	n/a	n/a	n/a	n/a
509.3871	0.7167	COLOR_NAME	71	Neutral	czerwony	red	Neutral	Neutral	hit	n/a
510.079	n/a	RESPONSE	n/a	n/a	n/a	n/a	n/a	n/a	n/a	red
510.1038	1.0167	ITI	n/a	n/a	n/a	n/a	n/a	n/a	n/a	n/a
511.1205	0.5167	FIXCROSS	n/a	n/a	n/a	n/a	n/a	n/a	n/a	n/a
511.6371	0.7667	COLOR_NAME	72	Incongruent	czerwony	red	żółty	yellow	hit	n/a
512.3776	n/a	RESPONSE	n/a	n/a	n/a	n/a	n/a	n/a	n/a	red
512.4038	1.0333	ITI	n/a	n/a	n/a	n/a	n/a	n/a	n/a	n/a
516.6557	n/a	RESPONSE	n/a	n/a	n/a	n/a	n/a	n/a	n/a	n/a
