onset	duration	trial_type	melody_number	melody_part	key	sound	action
0.0	14.081	CUE_START	n/a	n/a	n/a	n/a	n/a
14.081	7.759	FIXCROSS	n/a	n/a	n/a	n/a	n/a
21.84	6.324	CUE_LISTEN	M4	1	n/a	n/a	n/a
28.164	7.758	FIXCROSS	n/a	n/a	n/a	n/a	n/a
35.923	6.317	CUE_PLAYBACK_BOTH_HANDS	M4	1	n/a	n/a	n/a
38.61	n/a	RESPONSE	M4	1	04	E3	press
38.613	n/a	RESPONSE	M4	1	12	C4	press
38.615	n/a	RESPONSE	M4	1	07	G3	press
38.636	n/a	RESPONSE	M4	1	00	C3	press
39.173	n/a	RESPONSE	M4	1	12	C4	release
39.2	n/a	RESPONSE	M4	1	17	F4	press
39.919	n/a	RESPONSE	M4	1	23	B4	press
39.958	n/a	RESPONSE	M4	1	17	F4	release
40.432	n/a	RESPONSE	M4	1	23	B4	release
40.585	n/a	RESPONSE	M4	1	00	C3	release
40.664	n/a	RESPONSE	M4	1	04	E3	release
41.269	n/a	RESPONSE	M4	1	07	G3	release
41.91	n/a	RESPONSE	M4	1	07	G3	press
41.919	n/a	RESPONSE	M4	1	04	E3	press
41.943	n/a	RESPONSE	M4	1	00	C3	press
41.952	n/a	RESPONSE	M4	1	12	C4	press
42.239	7.758	FIXCROSS	n/a	n/a	n/a	n/a	n/a
42.643	n/a	RESPONSE	M4	1	00	C3	release
42.645	n/a	RESPONSE	M4	1	12	C4	release
42.748	n/a	RESPONSE	M4	1	04	E3	release
42.766	n/a	RESPONSE	M4	1	07	G3	release
43.148	n/a	RESPONSE	M4	1	07	G3	press
43.15	n/a	RESPONSE	M4	1	04	E3	press
43.21	n/a	RESPONSE	M4	1	00	C3	press
43.213	n/a	RESPONSE	M4	1	12	C4	press
43.735	n/a	RESPONSE	M4	1	17	F4	press
43.744	n/a	RESPONSE	M4	1	12	C4	release
44.385	n/a	RESPONSE	M4	1	23	B4	press
44.406	n/a	RESPONSE	M4	1	17	F4	release
44.858	n/a	RESPONSE	M4	1	21	A4	press
44.9	n/a	RESPONSE	M4	1	23	B4	release
45.383	n/a	RESPONSE	M4	1	19	G4	press
45.412	n/a	RESPONSE	M4	1	21	A4	release
45.893	n/a	RESPONSE	M4	1	17	F4	press
45.934	n/a	RESPONSE	M4	1	19	G4	release
46.375	n/a	RESPONSE	M4	1	19	G4	press
46.43	n/a	RESPONSE	M4	1	17	F4	release
46.665	n/a	RESPONSE	M4	1	19	G4	release
46.98	n/a	RESPONSE	M4	1	04	E3	release
47.135	n/a	RESPONSE	M4	1	07	G3	release
47.306	n/a	RESPONSE	M4	1	00	C3	release
49.998	6.317	CUE_LISTEN	M4	2	n/a	n/a	n/a
56.314	7.758	FIXCROSS	n/a	n/a	n/a	n/a	n/a
64.073	6.325	CUE_PLAYBACK_BOTH_HANDS	M4	2	n/a	n/a	n/a
65.208	n/a	RESPONSE	M4	2	07	G3	press
65.218	n/a	RESPONSE	M4	2	04	E3	press
65.259	n/a	RESPONSE	M4	2	12	C4	press
65.322	n/a	RESPONSE	M4	2	00	C3	press
65.704	n/a	RESPONSE	M4	2	17	F4	press
65.756	n/a	RESPONSE	M4	2	12	C4	release
66.255	n/a	RESPONSE	M4	2	21	A4	press
66.425	n/a	RESPONSE	M4	2	17	F4	release
66.76	n/a	RESPONSE	M4	2	24	C5	press
66.829	n/a	RESPONSE	M4	2	21	A4	release
67.225	n/a	RESPONSE	M4	2	24	C5	release
67.562	n/a	RESPONSE	M4	2	00	C3	release
67.692	n/a	RESPONSE	M4	2	04	E3	release
69.12	n/a	RESPONSE	M4	2	04	E3	press
69.123	n/a	RESPONSE	M4	2	00	C3	press
69.203	n/a	RESPONSE	M4	2	22	A#4	press
69.674	n/a	RESPONSE	M4	2	22	A#4	release
69.775	n/a	RESPONSE	M4	2	21	A4	press
70.314	n/a	RESPONSE	M4	2	19	G4	press
70.398	7.758	FIXCROSS	n/a	n/a	n/a	n/a	n/a
70.405	n/a	RESPONSE	M4	2	21	A4	release
70.606	n/a	RESPONSE	M4	2	19	G4	release
71.229	n/a	RESPONSE	M4	2	04	E3	release
71.923	n/a	RESPONSE	M4	2	05	F3	press
71.962	n/a	RESPONSE	M4	2	14	D4	press
72.523	n/a	RESPONSE	M4	2	17	F4	press
72.564	n/a	RESPONSE	M4	2	14	D4	release
72.918	n/a	RESPONSE	M4	2	17	F4	release
73.086	n/a	RESPONSE	M4	2	05	F3	release
73.208	n/a	RESPONSE	M4	2	00	C3	release
73.84	n/a	RESPONSE	M4	2	07	G3	release
78.156	6.325	CUE_LISTEN	M1	1	n/a	n/a	n/a
84.28	n/a	RESPONSE	M1	1	07	G3	press
84.481	7.758	FIXCROSS	n/a	n/a	n/a	n/a	n/a
84.632	n/a	RESPONSE	M1	1	07	G3	release
92.24	6.317	CUE_PLAYBACK_RIGHT_HAND	M1	1	n/a	n/a	n/a
92.829	n/a	RESPONSE	M1	1	07	G3	press
92.832	n/a	RESPONSE	M1	1	04	E3	press
92.872	n/a	RESPONSE	M1	1	19	G4	press
92.923	n/a	RESPONSE	M1	1	00	C3	press
93.114	n/a	RESPONSE	M1	1	00	C3	release
93.126	n/a	RESPONSE	M1	1	19	G4	release
93.176	n/a	RESPONSE	M1	1	04	E3	release
93.18	n/a	RESPONSE	M1	1	07	G3	release
93.689	n/a	RESPONSE	M1	1	19	G4	press
94.37	n/a	RESPONSE	M1	1	19	G4	release
94.373	n/a	RESPONSE	M1	1	16	E4	press
94.714	n/a	RESPONSE	M1	1	16	E4	release
94.994	n/a	RESPONSE	M1	1	16	E4	press
95.685	n/a	RESPONSE	M1	1	17	F4	press
95.726	n/a	RESPONSE	M1	1	16	E4	release
96.338	n/a	RESPONSE	M1	1	17	F4	release
96.37	n/a	RESPONSE	M1	1	14	D4	press
96.583	n/a	RESPONSE	M1	1	14	D4	release
97.005	n/a	RESPONSE	M1	1	14	D4	press
97.709	n/a	RESPONSE	M1	1	14	D4	release
97.712	n/a	RESPONSE	M1	1	12	C4	press
98.11	n/a	RESPONSE	M1	1	16	E4	press
98.194	n/a	RESPONSE	M1	1	12	C4	release
98.536	n/a	RESPONSE	M1	1	19	G4	press
98.539	n/a	RESPONSE	M1	1	16	E4	release
98.556	7.758	FIXCROSS	n/a	n/a	n/a	n/a	n/a
99.649	n/a	RESPONSE	M1	1	19	G4	release
102.513	n/a	RESPONSE	M1	1	04	E3	press
106.315	6.317	CUE_LISTEN	M1	2	n/a	n/a	n/a
109.487	n/a	RESPONSE	M1	2	04	E3	release
112.631	7.758	FIXCROSS	n/a	n/a	n/a	n/a	n/a
120.39	6.317	CUE_PLAYBACK_RIGHT_HAND	M1	2	n/a	n/a	n/a
121.305	n/a	RESPONSE	M1	2	19	G4	press
121.994	n/a	RESPONSE	M1	2	16	E4	press
122.145	n/a	RESPONSE	M1	2	19	G4	release
122.319	n/a	RESPONSE	M1	2	16	E4	release
122.579	n/a	RESPONSE	M1	2	16	E4	press
123.229	n/a	RESPONSE	M1	2	16	E4	release
123.24	n/a	RESPONSE	M1	2	17	F4	press
123.852	n/a	RESPONSE	M1	2	17	F4	release
123.863	n/a	RESPONSE	M1	2	14	D4	press
124.084	n/a	RESPONSE	M1	2	14	D4	release
124.545	n/a	RESPONSE	M1	2	14	D4	press
125.257	n/a	RESPONSE	M1	2	14	D4	release
125.308	n/a	RESPONSE	M1	2	12	C4	press
125.719	n/a	RESPONSE	M1	2	16	E4	press
125.793	n/a	RESPONSE	M1	2	12	C4	release
126.122	n/a	RESPONSE	M1	2	12	C4	press
126.163	n/a	RESPONSE	M1	2	16	E4	release
126.706	7.758	FIXCROSS	n/a	n/a	n/a	n/a	n/a
127.423	n/a	RESPONSE	M1	2	12	C4	release
134.465	6.325	CUE_LISTEN	M5	1	n/a	n/a	n/a
140.79	7.758	FIXCROSS	n/a	n/a	n/a	n/a	n/a
148.548	6.317	CUE_PLAYBACK_BOTH_HANDS	M5	1	n/a	n/a	n/a
149.617	n/a	RESPONSE	M5	1	05	F3	press
149.653	n/a	RESPONSE	M5	1	17	F4	press
149.943	n/a	RESPONSE	M5	1	17	F4	release
150.124	n/a	RESPONSE	M5	1	17	F4	press
150.165	n/a	RESPONSE	M5	1	09	A3	press
150.249	n/a	RESPONSE	M5	1	05	F3	release
150.368	n/a	RESPONSE	M5	1	17	F4	release
150.599	n/a	RESPONSE	M5	1	04	E3	press
150.64	n/a	RESPONSE	M5	1	17	F4	press
150.734	n/a	RESPONSE	M5	1	09	A3	release
150.834	n/a	RESPONSE	M5	1	17	F4	release
151.125	n/a	RESPONSE	M5	1	09	A3	press
151.177	n/a	RESPONSE	M5	1	04	E3	release
151.638	n/a	RESPONSE	M5	1	02	D3	press
151.66	n/a	RESPONSE	M5	1	17	F4	press
151.73	n/a	RESPONSE	M5	1	09	A3	release
151.904	n/a	RESPONSE	M5	1	17	F4	release
152.123	n/a	RESPONSE	M5	1	17	F4	press
152.164	n/a	RESPONSE	M5	1	09	A3	press
152.225	n/a	RESPONSE	M5	1	02	D3	release
152.339	n/a	RESPONSE	M5	1	17	F4	release
152.648	n/a	RESPONSE	M5	1	00	C3	press
152.669	n/a	RESPONSE	M5	1	17	F4	press
152.73	n/a	RESPONSE	M5	1	09	A3	release
152.882	n/a	RESPONSE	M5	1	17	F4	release
153.145	n/a	RESPONSE	M5	1	09	A3	press
153.214	n/a	RESPONSE	M5	1	00	C3	release
153.648	n/a	RESPONSE	M5	1	07	G3	press
153.657	n/a	RESPONSE	M5	1	17	F4	press
153.718	n/a	RESPONSE	M5	1	09	A3	release
154.129	n/a	RESPONSE	M5	1	21	A4	press
154.18	n/a	RESPONSE	M5	1	09	A3	press
154.232	n/a	RESPONSE	M5	1	17	F4	release
154.254	n/a	RESPONSE	M5	1	07	G3	release
154.624	n/a	RESPONSE	M5	1	14	D4	press
154.627	n/a	RESPONSE	M5	1	04	E3	press
154.747	n/a	RESPONSE	M5	1	21	A4	release
154.788	n/a	RESPONSE	M5	1	09	A3	release
154.865	7.758	FIXCROSS	n/a	n/a	n/a	n/a	n/a
155.099	n/a	RESPONSE	M5	1	16	E4	press
155.13	n/a	RESPONSE	M5	1	09	A3	press
155.162	n/a	RESPONSE	M5	1	14	D4	release
155.173	n/a	RESPONSE	M5	1	04	E3	release
155.564	n/a	RESPONSE	M5	1	17	F4	press
155.585	n/a	RESPONSE	M5	1	02	D3	press
155.617	n/a	RESPONSE	M5	1	16	E4	release
155.668	n/a	RESPONSE	M5	1	09	A3	release
156.069	n/a	RESPONSE	M5	1	17	F4	release
156.12	n/a	RESPONSE	M5	1	02	D3	release
162.623	6.317	CUE_LISTEN	M5	2	n/a	n/a	n/a
168.94	7.758	FIXCROSS	n/a	n/a	n/a	n/a	n/a
172.14	n/a	RESPONSE	M5	2	21	A4	press
172.314	n/a	RESPONSE	M5	2	21	A4	release
176.698	6.325	CUE_PLAYBACK_BOTH_HANDS	M5	2	n/a	n/a	n/a
177.379	n/a	RESPONSE	M5	2	05	F3	press
177.415	n/a	RESPONSE	M5	2	21	A4	press
177.779	n/a	RESPONSE	M5	2	21	A4	release
177.85	n/a	RESPONSE	M5	2	09	A3	press
177.857	n/a	RESPONSE	M5	2	21	A4	press
177.962	n/a	RESPONSE	M5	2	05	F3	release
178.062	n/a	RESPONSE	M5	2	21	A4	release
178.213	n/a	RESPONSE	M5	2	04	E3	press
178.304	n/a	RESPONSE	M5	2	21	A4	press
178.314	n/a	RESPONSE	M5	2	09	A3	release
178.516	n/a	RESPONSE	M5	2	21	A4	release
178.728	n/a	RESPONSE	M5	2	09	A3	press
178.78	n/a	RESPONSE	M5	2	04	E3	release
179.159	n/a	RESPONSE	M5	2	02	D3	press
179.194	n/a	RESPONSE	M5	2	21	A4	press
179.209	n/a	RESPONSE	M5	2	09	A3	release
179.394	n/a	RESPONSE	M5	2	21	A4	release
179.604	n/a	RESPONSE	M5	2	21	A4	press
179.647	n/a	RESPONSE	M5	2	09	A3	press
179.695	n/a	RESPONSE	M5	2	02	D3	release
179.824	n/a	RESPONSE	M5	2	21	A4	release
180.072	n/a	RESPONSE	M5	2	00	C3	press
180.083	n/a	RESPONSE	M5	2	21	A4	press
180.134	n/a	RESPONSE	M5	2	09	A3	release
180.405	n/a	RESPONSE	M5	2	21	A4	release
180.517	n/a	RESPONSE	M5	2	09	A3	press
180.568	n/a	RESPONSE	M5	2	00	C3	release
180.95	n/a	RESPONSE	M5	2	07	G3	press
180.972	n/a	RESPONSE	M5	2	21	A4	press
181.033	n/a	RESPONSE	M5	2	09	A3	release
181.404	n/a	RESPONSE	M5	2	24	C5	press
181.415	n/a	RESPONSE	M5	2	09	A3	press
181.437	n/a	RESPONSE	M5	2	21	A4	release
181.478	n/a	RESPONSE	M5	2	07	G3	release
181.809	n/a	RESPONSE	M5	2	04	E3	press
181.83	n/a	RESPONSE	M5	2	17	F4	press
181.902	n/a	RESPONSE	M5	2	09	A3	release
181.993	n/a	RESPONSE	M5	2	24	C5	release
182.254	n/a	RESPONSE	M5	2	09	A3	press
182.275	n/a	RESPONSE	M5	2	19	G4	press
182.297	n/a	RESPONSE	M5	2	04	E3	release
182.429	n/a	RESPONSE	M5	2	17	F4	release
182.669	n/a	RESPONSE	M5	2	21	A4	press
182.7	n/a	RESPONSE	M5	2	02	D3	press
182.772	n/a	RESPONSE	M5	2	09	A3	release
182.774	n/a	RESPONSE	M5	2	19	G4	release
183.023	7.758	FIXCROSS	n/a	n/a	n/a	n/a	n/a
183.144	n/a	RESPONSE	M5	2	09	A3	press
183.165	n/a	RESPONSE	M5	2	21	A4	release
183.198	n/a	RESPONSE	M5	2	02	D3	release
183.568	n/a	RESPONSE	M5	2	00	C3	press
183.639	n/a	RESPONSE	M5	2	09	A3	release
184.02	n/a	RESPONSE	M5	2	09	A3	press
184.092	n/a	RESPONSE	M5	2	00	C3	release
184.444	n/a	RESPONSE	M5	2	07	G3	press
184.494	n/a	RESPONSE	M5	2	22	A#4	press
184.528	n/a	RESPONSE	M5	2	09	A3	release
184.699	n/a	RESPONSE	M5	2	22	A#4	release
184.958	n/a	RESPONSE	M5	2	22	A#4	press
184.96	n/a	RESPONSE	M5	2	09	A3	press
185.12	n/a	RESPONSE	M5	2	07	G3	release
185.123	n/a	RESPONSE	M5	2	22	A#4	release
185.503	n/a	RESPONSE	M5	2	09	A3	release
186.98	n/a	RESPONSE	M5	2	07	G3	press
187.149	n/a	RESPONSE	M5	2	07	G3	release
190.782	6.317	CUE_LISTEN	M5	1	n/a	n/a	n/a
197.098	7.758	FIXCROSS	n/a	n/a	n/a	n/a	n/a
204.856	6.317	CUE_PLAYBACK_BOTH_HANDS	M5	1	n/a	n/a	n/a
205.807	n/a	RESPONSE	M5	1	05	F3	press
205.829	n/a	RESPONSE	M5	1	21	A4	press
206.089	n/a	RESPONSE	M5	1	21	A4	release
206.27	n/a	RESPONSE	M5	1	21	A4	press
206.273	n/a	RESPONSE	M5	1	09	A3	press
206.363	n/a	RESPONSE	M5	1	05	F3	release
206.487	n/a	RESPONSE	M5	1	21	A4	release
206.734	n/a	RESPONSE	M5	1	04	E3	press
206.789	n/a	RESPONSE	M5	1	21	A4	press
206.879	n/a	RESPONSE	M5	1	09	A3	release
207.037	n/a	RESPONSE	M5	1	21	A4	release
207.272	n/a	RESPONSE	M5	1	09	A3	press
207.354	n/a	RESPONSE	M5	1	04	E3	release
207.742	n/a	RESPONSE	M5	1	02	D3	press
207.805	n/a	RESPONSE	M5	1	21	A4	press
207.85	n/a	RESPONSE	M5	1	09	A3	release
208.19	n/a	RESPONSE	M5	1	21	A4	release
208.278	n/a	RESPONSE	M5	1	09	A3	press
208.28	n/a	RESPONSE	M5	1	21	A4	press
208.334	n/a	RESPONSE	M5	1	02	D3	release
208.554	n/a	RESPONSE	M5	1	21	A4	release
208.758	n/a	RESPONSE	M5	1	00	C3	press
208.785	n/a	RESPONSE	M5	1	21	A4	press
208.838	n/a	RESPONSE	M5	1	09	A3	release
209.21	n/a	RESPONSE	M5	1	21	A4	release
209.244	n/a	RESPONSE	M5	1	09	A3	press
209.303	n/a	RESPONSE	M5	1	00	C3	release
209.704	n/a	RESPONSE	M5	1	05	F3	press
209.73	n/a	RESPONSE	M5	1	21	A4	press
209.76	n/a	RESPONSE	M5	1	09	A3	release
210.163	n/a	RESPONSE	M5	1	24	C5	press
210.194	n/a	RESPONSE	M5	1	09	A3	press
210.235	n/a	RESPONSE	M5	1	05	F3	release
210.247	n/a	RESPONSE	M5	1	21	A4	release
210.638	n/a	RESPONSE	M5	1	04	E3	press
210.659	n/a	RESPONSE	M5	1	17	F4	press
210.7	n/a	RESPONSE	M5	1	02	D3	press
210.752	n/a	RESPONSE	M5	1	24	C5	release
210.864	n/a	RESPONSE	M5	1	09	A3	release
210.945	n/a	RESPONSE	M5	1	02	D3	release
211.078	n/a	RESPONSE	M5	1	19	G4	press
211.118	n/a	RESPONSE	M5	1	17	F4	release
211.169	n/a	RESPONSE	M5	1	09	A3	press
211.173	7.758	FIXCROSS	n/a	n/a	n/a	n/a	n/a
211.18	n/a	RESPONSE	M5	1	04	E3	release
211.603	n/a	RESPONSE	M5	1	21	A4	press
211.634	n/a	RESPONSE	M5	1	02	D3	press
211.665	n/a	RESPONSE	M5	1	19	G4	release
211.717	n/a	RESPONSE	M5	1	09	A3	release
212.138	n/a	RESPONSE	M5	1	09	A3	press
212.179	n/a	RESPONSE	M5	1	21	A4	release
212.193	n/a	RESPONSE	M5	1	02	D3	release
212.642	n/a	RESPONSE	M5	1	00	C3	press
212.703	n/a	RESPONSE	M5	1	09	A3	release
213.184	n/a	RESPONSE	M5	1	09	A3	press
213.308	n/a	RESPONSE	M5	1	00	C3	release
213.767	n/a	RESPONSE	M5	1	09	A3	release
218.932	6.325	CUE_LISTEN	M5	2	n/a	n/a	n/a
225.256	14.075	FIXCROSS	n/a	n/a	n/a	n/a	n/a
233.015	n/a	CUE_PLAYBACK_BOTH_HANDS	M4	2	n/a	n/a	n/a
233.659	n/a	RESPONSE	M5	2	07	G3	press
233.683	n/a	RESPONSE	M5	2	22	A#4	press
233.942	n/a	RESPONSE	M5	2	22	A#4	release
234.323	n/a	RESPONSE	M5	2	10	A#3	press
234.344	n/a	RESPONSE	M5	2	22	A#4	press
234.375	n/a	RESPONSE	M5	2	07	G3	release
234.589	n/a	RESPONSE	M5	2	22	A#4	release
234.938	n/a	RESPONSE	M5	2	04	E3	press
234.942	n/a	RESPONSE	M5	2	10	A#3	release
234.99	n/a	RESPONSE	M5	2	22	A#4	press
235.212	n/a	RESPONSE	M5	2	22	A#4	release
235.463	n/a	RESPONSE	M5	2	10	A#3	press
235.514	n/a	RESPONSE	M5	2	04	E3	release
235.595	n/a	RESPONSE	M5	2	22	A#4	press
235.827	n/a	RESPONSE	M5	2	22	A#4	release
235.948	n/a	RESPONSE	M5	2	05	F3	press
236.05	n/a	RESPONSE	M5	2	10	A#3	release
236.3	n/a	RESPONSE	M5	2	22	A#4	press
236.884	n/a	RESPONSE	M5	2	21	A4	press
236.904	n/a	RESPONSE	M5	2	09	A3	press
236.925	n/a	RESPONSE	M5	2	22	A#4	release
236.978	n/a	RESPONSE	M5	2	05	F3	release
237.232	n/a	RESPONSE	M5	2	21	A4	release
237.478	n/a	RESPONSE	M5	2	00	C3	press
237.543	n/a	RESPONSE	M5	2	21	A4	press
237.585	n/a	RESPONSE	M5	2	09	A3	release
237.832	n/a	RESPONSE	M5	2	21	A4	release
238.132	n/a	RESPONSE	M5	2	21	A4	press
238.157	n/a	RESPONSE	M5	2	09	A3	press
238.293	n/a	RESPONSE	M5	2	00	C3	release
238.354	n/a	RESPONSE	M5	2	21	A4	release
239.332	7.758	FIXCROSS	n/a	n/a	n/a	n/a	n/a
240.04	n/a	RESPONSE	M5	2	00	C3	press
240.053	n/a	RESPONSE	M5	2	24	C5	press
240.093	n/a	RESPONSE	M5	2	09	A3	release
240.653	n/a	RESPONSE	M5	2	07	G3	press
240.785	n/a	RESPONSE	M5	2	00	C3	release
241.007	n/a	RESPONSE	M5	2	24	C5	release
241.428	n/a	RESPONSE	M5	2	04	E3	press
241.469	n/a	RESPONSE	M5	2	22	A#4	press
241.592	n/a	RESPONSE	M5	2	07	G3	release
242.082	n/a	RESPONSE	M5	2	07	G3	press
242.084	n/a	RESPONSE	M5	2	21	A4	press
242.094	n/a	RESPONSE	M5	2	19	G4	press
242.165	n/a	RESPONSE	M5	2	22	A#4	release
242.187	n/a	RESPONSE	M5	2	04	E3	release
242.2	n/a	RESPONSE	M5	2	19	G4	release
242.719	n/a	RESPONSE	M5	2	19	G4	press
242.722	n/a	RESPONSE	M5	2	05	F3	press
242.792	n/a	RESPONSE	M5	2	21	A4	release
242.813	n/a	RESPONSE	M5	2	07	G3	release
243.255	n/a	RESPONSE	M5	2	19	G4	release
243.278	n/a	RESPONSE	M5	2	05	F3	release
247.09	6.325	CUE_LISTEN	M2	1	n/a	n/a	n/a
253.415	7.758	FIXCROSS	n/a	n/a	n/a	n/a	n/a
261.173	6.317	CUE_PLAYBACK_RIGHT_HAND	M2	1	n/a	n/a	n/a
262.065	n/a	RESPONSE	M2	1	24	C5	press
262.647	n/a	RESPONSE	M2	1	19	G4	press
262.708	n/a	RESPONSE	M2	1	24	C5	release
263.009	n/a	RESPONSE	M2	1	19	G4	release
263.17	n/a	RESPONSE	M2	1	19	G4	press
263.704	n/a	RESPONSE	M2	1	17	F4	press
263.764	n/a	RESPONSE	M2	1	19	G4	release
264.294	n/a	RESPONSE	M2	1	16	E4	press
264.455	n/a	RESPONSE	M2	1	17	F4	release
264.837	n/a	RESPONSE	M2	1	17	F4	press
264.928	n/a	RESPONSE	M2	1	16	E4	release
265.4	n/a	RESPONSE	M2	1	19	G4	press
265.52	n/a	RESPONSE	M2	1	17	F4	release
266.407	n/a	RESPONSE	M2	1	19	G4	release
267.49	7.759	FIXCROSS	n/a	n/a	n/a	n/a	n/a
275.248	6.317	CUE_LISTEN	M2	2	n/a	n/a	n/a
281.565	7.758	FIXCROSS	n/a	n/a	n/a	n/a	n/a
289.323	6.317	CUE_PLAYBACK_RIGHT_HAND	M2	2	n/a	n/a	n/a
289.872	n/a	RESPONSE	M2	2	24	C5	press
290.385	n/a	RESPONSE	M2	2	19	G4	press
290.419	n/a	RESPONSE	M2	2	24	C5	release
290.698	n/a	RESPONSE	M2	2	19	G4	release
290.9	n/a	RESPONSE	M2	2	19	G4	press
291.402	n/a	RESPONSE	M2	2	17	F4	press
291.453	n/a	RESPONSE	M2	2	19	G4	release
291.894	n/a	RESPONSE	M2	2	16	E4	press
291.995	n/a	RESPONSE	M2	2	17	F4	release
292.429	n/a	RESPONSE	M2	2	14	D4	press
292.528	n/a	RESPONSE	M2	2	16	E4	release
292.99	n/a	RESPONSE	M2	2	12	C4	press
293.05	n/a	RESPONSE	M2	2	14	D4	release
294.482	n/a	RESPONSE	M2	2	12	C4	release
295.64	7.758	FIXCROSS	n/a	n/a	n/a	n/a	n/a
303.398	6.325	CUE_LISTEN	M2	1	n/a	n/a	n/a
309.723	7.758	FIXCROSS	n/a	n/a	n/a	n/a	n/a
317.482	6.317	CUE_PLAYBACK_RIGHT_HAND	M2	1	n/a	n/a	n/a
318.104	n/a	RESPONSE	M2	1	12	C4	press
318.577	n/a	RESPONSE	M2	1	14	D4	press
318.619	n/a	RESPONSE	M2	1	12	C4	release
319.035	n/a	RESPONSE	M2	1	16	E4	press
319.103	n/a	RESPONSE	M2	1	14	D4	release
319.517	n/a	RESPONSE	M2	1	14	D4	press
319.557	n/a	RESPONSE	M2	1	16	E4	release
319.999	n/a	RESPONSE	M2	1	16	E4	press
320.07	n/a	RESPONSE	M2	1	14	D4	release
320.492	n/a	RESPONSE	M2	1	16	E4	release
320.495	n/a	RESPONSE	M2	1	17	F4	press
321.035	n/a	RESPONSE	M2	1	19	G4	press
321.137	n/a	RESPONSE	M2	1	17	F4	release
322.349	n/a	RESPONSE	M2	1	19	G4	release
323.798	7.758	FIXCROSS	n/a	n/a	n/a	n/a	n/a
331.557	6.325	CUE_LISTEN	M2	2	n/a	n/a	n/a
337.882	7.758	FIXCROSS	n/a	n/a	n/a	n/a	n/a
345.64	6.317	CUE_PLAYBACK_RIGHT_HAND	M2	2	n/a	n/a	n/a
346.289	n/a	RESPONSE	M2	2	16	E4	press
346.759	n/a	RESPONSE	M2	2	16	E4	release
346.767	n/a	RESPONSE	M2	2	19	G4	press
347.069	n/a	RESPONSE	M2	2	19	G4	release
347.297	n/a	RESPONSE	M2	2	19	G4	press
347.774	n/a	RESPONSE	M2	2	17	F4	press
347.797	n/a	RESPONSE	M2	2	19	G4	release
348.255	n/a	RESPONSE	M2	2	16	E4	press
348.317	n/a	RESPONSE	M2	2	17	F4	release
348.779	n/a	RESPONSE	M2	2	14	D4	press
348.833	n/a	RESPONSE	M2	2	16	E4	release
349.373	n/a	RESPONSE	M2	2	12	C4	press
349.434	n/a	RESPONSE	M2	2	14	D4	release
350.714	n/a	RESPONSE	M2	2	12	C4	release
351.957	7.759	FIXCROSS	n/a	n/a	n/a	n/a	n/a
359.715	6.325	CUE_LISTEN	M3	1	n/a	n/a	n/a
366.04	7.758	FIXCROSS	n/a	n/a	n/a	n/a	n/a
373.799	6.317	CUE_PLAYBACK_BOTH_HANDS	M3	1	n/a	n/a	n/a
374.539	n/a	RESPONSE	M3	1	00	C3	press
374.542	n/a	RESPONSE	M3	1	12	C4	press
375.082	n/a	RESPONSE	M3	1	07	G3	press
375.103	n/a	RESPONSE	M3	1	14	D4	press
375.144	n/a	RESPONSE	M3	1	00	C3	release
375.155	n/a	RESPONSE	M3	1	12	C4	release
375.637	n/a	RESPONSE	M3	1	04	E3	press
375.658	n/a	RESPONSE	M3	1	16	E4	press
375.712	n/a	RESPONSE	M3	1	14	D4	release
375.74	n/a	RESPONSE	M3	1	07	G3	release
376.213	n/a	RESPONSE	M3	1	07	G3	press
376.233	n/a	RESPONSE	M3	1	12	C4	press
376.294	n/a	RESPONSE	M3	1	16	E4	release
376.347	n/a	RESPONSE	M3	1	04	E3	release
376.55	n/a	RESPONSE	M3	1	12	C4	release
376.81	n/a	RESPONSE	M3	1	00	C3	press
376.815	n/a	RESPONSE	M3	1	12	C4	press
376.897	n/a	RESPONSE	M3	1	07	G3	release
377.402	n/a	RESPONSE	M3	1	14	D4	press
377.413	n/a	RESPONSE	M3	1	07	G3	press
377.46	n/a	RESPONSE	M3	1	00	C3	release
377.48	n/a	RESPONSE	M3	1	12	C4	release
377.994	n/a	RESPONSE	M3	1	04	E3	press
378.007	n/a	RESPONSE	M3	1	16	E4	press
378.065	n/a	RESPONSE	M3	1	14	D4	release
378.109	n/a	RESPONSE	M3	1	07	G3	release
378.583	n/a	RESPONSE	M3	1	07	G3	press
378.595	n/a	RESPONSE	M3	1	12	C4	press
378.617	n/a	RESPONSE	M3	1	04	E3	release
378.648	n/a	RESPONSE	M3	1	16	E4	release
379.415	n/a	RESPONSE	M3	1	12	C4	release
379.559	n/a	RESPONSE	M3	1	07	G3	release
380.115	7.758	FIXCROSS	n/a	n/a	n/a	n/a	n/a
387.874	6.317	CUE_LISTEN	M3	2	n/a	n/a	n/a
394.19	7.758	FIXCROSS	n/a	n/a	n/a	n/a	n/a
401.949	6.325	CUE_PLAYBACK_BOTH_HANDS	M3	2	n/a	n/a	n/a
402.983	n/a	RESPONSE	M3	2	00	C3	press
402.985	n/a	RESPONSE	M3	2	16	E4	press
403.528	n/a	RESPONSE	M3	2	07	G3	press
403.537	n/a	RESPONSE	M3	2	17	F4	press
403.578	n/a	RESPONSE	M3	2	00	C3	release
403.599	n/a	RESPONSE	M3	2	16	E4	release
404.07	n/a	RESPONSE	M3	2	04	E3	press
404.082	n/a	RESPONSE	M3	2	16	E4	press
404.145	n/a	RESPONSE	M3	2	07	G3	release
404.164	n/a	RESPONSE	M3	2	17	F4	release
404.667	n/a	RESPONSE	M3	2	04	E3	release
404.698	n/a	RESPONSE	M3	2	16	E4	release
408.274	7.758	FIXCROSS	n/a	n/a	n/a	n/a	n/a
411.344	n/a	RESPONSE	M3	2	00	C3	press
411.365	n/a	RESPONSE	M3	2	16	E4	press
411.817	n/a	RESPONSE	M3	2	17	F4	press
411.828	n/a	RESPONSE	M3	2	07	G3	press
411.859	n/a	RESPONSE	M3	2	16	E4	release
411.87	n/a	RESPONSE	M3	2	00	C3	release
412.272	n/a	RESPONSE	M3	2	04	E3	press
412.283	n/a	RESPONSE	M3	2	16	E4	press
412.334	n/a	RESPONSE	M3	2	17	F4	release
412.385	n/a	RESPONSE	M3	2	07	G3	release
412.638	n/a	RESPONSE	M3	2	16	E4	release
412.798	n/a	RESPONSE	M3	2	07	G3	press
412.8	n/a	RESPONSE	M3	2	04	E3	release
413.41	n/a	RESPONSE	M3	2	07	G3	release
413.532	n/a	RESPONSE	M3	2	16	E4	press
413.543	n/a	RESPONSE	M3	2	00	C3	press
414.054	n/a	RESPONSE	M3	2	16	E4	release
414.057	n/a	RESPONSE	M3	2	19	G4	press
414.067	n/a	RESPONSE	M3	2	07	G3	press
414.08	n/a	RESPONSE	M3	2	00	C3	release
414.499	n/a	RESPONSE	M3	2	16	E4	press
414.512	n/a	RESPONSE	M3	2	04	E3	press
414.532	n/a	RESPONSE	M3	2	19	G4	release
414.574	n/a	RESPONSE	M3	2	07	G3	release
414.874	n/a	RESPONSE	M3	2	16	E4	release
414.895	n/a	RESPONSE	M3	2	04	E3	release
416.032	6.317	CUE_LISTEN	M3	1	n/a	n/a	n/a
422.349	7.758	FIXCROSS	n/a	n/a	n/a	n/a	n/a
430.107	6.317	CUE_PLAYBACK_BOTH_HANDS	M3	1	n/a	n/a	n/a
430.674	n/a	RESPONSE	M3	1	00	C3	press
430.695	n/a	RESPONSE	M3	1	19	G4	press
431.008	n/a	RESPONSE	M3	1	21	A4	press
431.102	n/a	RESPONSE	M3	1	19	G4	release
431.353	n/a	RESPONSE	M3	1	19	G4	press
431.362	n/a	RESPONSE	M3	1	07	G3	press
431.414	n/a	RESPONSE	M3	1	21	A4	release
431.425	n/a	RESPONSE	M3	1	00	C3	release
431.669	n/a	RESPONSE	M3	1	17	F4	press
431.739	n/a	RESPONSE	M3	1	19	G4	release
432.039	n/a	RESPONSE	M3	1	04	E3	press
432.042	n/a	RESPONSE	M3	1	16	E4	press
432.113	n/a	RESPONSE	M3	1	07	G3	release
432.115	n/a	RESPONSE	M3	1	17	F4	release
432.736	n/a	RESPONSE	M3	1	00	C3	press
432.738	n/a	RESPONSE	M3	1	12	C4	press
432.747	n/a	RESPONSE	M3	1	16	E4	release
432.768	n/a	RESPONSE	M3	1	04	E3	release
433.369	n/a	RESPONSE	M3	1	12	C4	release
433.46	n/a	RESPONSE	M3	1	17	F4	press
433.492	n/a	RESPONSE	M3	1	19	G4	press
433.533	n/a	RESPONSE	M3	1	19	G4	release
433.744	n/a	RESPONSE	M3	1	17	F4	release
433.776	n/a	RESPONSE	M3	1	00	C3	release
433.958	n/a	RESPONSE	M3	1	00	C3	press
433.988	n/a	RESPONSE	M3	1	17	F4	press
434.329	n/a	RESPONSE	M3	1	19	G4	press
434.492	n/a	RESPONSE	M3	1	17	F4	release
434.732	n/a	RESPONSE	M3	1	19	G4	release
435.043	n/a	RESPONSE	M3	1	00	C3	release
435.244	n/a	RESPONSE	M3	1	00	C3	press
435.247	n/a	RESPONSE	M3	1	19	G4	press
435.567	n/a	RESPONSE	M3	1	21	A4	press
435.688	n/a	RESPONSE	M3	1	19	G4	release
435.912	n/a	RESPONSE	M3	1	19	G4	press
435.94	n/a	RESPONSE	M3	1	07	G3	press
435.982	n/a	RESPONSE	M3	1	21	A4	release
436.004	n/a	RESPONSE	M3	1	00	C3	release
436.244	n/a	RESPONSE	M3	1	17	F4	press
436.358	n/a	RESPONSE	M3	1	19	G4	release
436.424	7.758	FIXCROSS	n/a	n/a	n/a	n/a	n/a
436.603	n/a	RESPONSE	M3	1	04	E3	press
436.624	n/a	RESPONSE	M3	1	16	E4	press
436.658	n/a	RESPONSE	M3	1	17	F4	release
436.672	n/a	RESPONSE	M3	1	07	G3	release
437.358	n/a	RESPONSE	M3	1	00	C3	press
437.369	n/a	RESPONSE	M3	1	12	C4	press
437.378	n/a	RESPONSE	M3	1	04	E3	release
437.405	n/a	RESPONSE	M3	1	16	E4	release
438.429	n/a	RESPONSE	M3	1	12	C4	release
438.444	n/a	RESPONSE	M3	1	00	C3	release
444.182	6.317	CUE_LISTEN	M3	2	n/a	n/a	n/a
450.499	7.759	FIXCROSS	n/a	n/a	n/a	n/a	n/a
458.257	6.325	CUE_PLAYBACK_BOTH_HANDS	M3	2	n/a	n/a	n/a
459.398	n/a	RESPONSE	M3	2	00	C3	press
459.422	n/a	RESPONSE	M3	2	12	C4	press
459.747	n/a	RESPONSE	M3	2	12	C4	release
460.25	n/a	RESPONSE	M3	2	09	A3	press
460.592	n/a	RESPONSE	M3	2	09	A3	release
460.807	n/a	RESPONSE	M3	2	00	C3	release
461.246	n/a	RESPONSE	M3	2	00	C3	press
461.257	n/a	RESPONSE	M3	2	12	C4	press
462.338	n/a	RESPONSE	M3	2	12	C4	release
462.379	n/a	RESPONSE	M3	2	00	C3	release
462.82	n/a	RESPONSE	M3	2	00	C3	press
462.852	n/a	RESPONSE	M3	2	12	C4	press
463.183	n/a	RESPONSE	M3	2	12	C4	release
463.664	n/a	RESPONSE	M3	2	07	G3	press
463.927	n/a	RESPONSE	M3	2	07	G3	release
464.377	n/a	RESPONSE	M3	2	00	C3	release
464.548	n/a	RESPONSE	M3	2	00	C3	press
464.562	n/a	RESPONSE	M3	2	12	C4	press
464.582	7.758	FIXCROSS	n/a	n/a	n/a	n/a	n/a
465.78	n/a	RESPONSE	M3	2	12	C4	release
465.792	n/a	RESPONSE	M3	2	00	C3	release
472.34	6.317	CUE_LISTEN	M5	1	n/a	n/a	n/a
478.657	7.758	FIXCROSS	n/a	n/a	n/a	n/a	n/a
486.416	6.317	CUE_PLAYBACK_RIGHT_HAND	M5	1	n/a	n/a	n/a
487.458	n/a	RESPONSE	M5	1	14	D4	press
487.613	n/a	RESPONSE	M5	1	14	D4	release
489.288	n/a	RESPONSE	M5	1	21	A4	press
489.473	n/a	RESPONSE	M5	1	21	A4	release
489.613	n/a	RESPONSE	M5	1	21	A4	press
489.777	n/a	RESPONSE	M5	1	21	A4	release
489.932	n/a	RESPONSE	M5	1	21	A4	press
490.513	n/a	RESPONSE	M5	1	21	A4	release
490.694	n/a	RESPONSE	M5	1	21	A4	press
490.887	n/a	RESPONSE	M5	1	21	A4	release
491.038	n/a	RESPONSE	M5	1	21	A4	press
491.219	n/a	RESPONSE	M5	1	21	A4	release
491.4	n/a	RESPONSE	M5	1	21	A4	press
491.892	n/a	RESPONSE	M5	1	21	A4	release
492.113	n/a	RESPONSE	M5	1	21	A4	press
492.546	n/a	RESPONSE	M5	1	24	C5	press
492.626	n/a	RESPONSE	M5	1	21	A4	release
492.732	7.758	FIXCROSS	n/a	n/a	n/a	n/a	n/a
492.977	n/a	RESPONSE	M5	1	17	F4	press
493.058	n/a	RESPONSE	M5	1	24	C5	release
493.349	n/a	RESPONSE	M5	1	19	G4	press
493.45	n/a	RESPONSE	M5	1	17	F4	release
493.782	n/a	RESPONSE	M5	1	21	A4	press
494.073	n/a	RESPONSE	M5	1	19	G4	release
494.794	n/a	RESPONSE	M5	1	21	A4	release
500.491	6.325	CUE_LISTEN	M5	2	n/a	n/a	n/a
506.816	7.758	FIXCROSS	n/a	n/a	n/a	n/a	n/a
514.574	6.317	CUE_PLAYBACK_RIGHT_HAND	M5	2	n/a	n/a	n/a
515.199	n/a	RESPONSE	M5	2	22	A#4	press
515.33	n/a	RESPONSE	M5	2	22	A#4	release
515.484	n/a	RESPONSE	M5	2	22	A#4	press
515.644	n/a	RESPONSE	M5	2	22	A#4	release
515.804	n/a	RESPONSE	M5	2	22	A#4	press
515.976	n/a	RESPONSE	M5	2	22	A#4	release
516.117	n/a	RESPONSE	M5	2	22	A#4	press
516.26	n/a	RESPONSE	M5	2	22	A#4	release
516.434	n/a	RESPONSE	M5	2	22	A#4	press
516.65	n/a	RESPONSE	M5	2	22	A#4	release
516.839	n/a	RESPONSE	M5	2	23	B4	press
516.842	n/a	RESPONSE	M5	2	21	A4	press
516.963	n/a	RESPONSE	M5	2	23	B4	release
517.158	n/a	RESPONSE	M5	2	21	A4	release
518.181	n/a	RESPONSE	M5	2	22	A#4	press
518.426	n/a	RESPONSE	M5	2	22	A#4	release
518.552	n/a	RESPONSE	M5	2	22	A#4	press
518.773	n/a	RESPONSE	M5	2	22	A#4	release
518.923	n/a	RESPONSE	M5	2	22	A#4	press
519.149	n/a	RESPONSE	M5	2	22	A#4	release
519.307	n/a	RESPONSE	M5	2	22	A#4	press
519.524	n/a	RESPONSE	M5	2	22	A#4	release
519.696	n/a	RESPONSE	M5	2	22	A#4	press
520.018	n/a	RESPONSE	M5	2	22	A#4	release
520.169	n/a	RESPONSE	M5	2	21	A4	press
520.433	n/a	RESPONSE	M5	2	21	A4	release
520.604	n/a	RESPONSE	M5	2	21	A4	press
520.864	n/a	RESPONSE	M5	2	21	A4	release
520.891	7.758	FIXCROSS	n/a	n/a	n/a	n/a	n/a
521.058	n/a	RESPONSE	M5	2	21	A4	press
521.428	n/a	RESPONSE	M5	2	21	A4	release
521.648	n/a	RESPONSE	M5	2	21	A4	press
522.1	n/a	RESPONSE	M5	2	19	G4	press
522.11	n/a	RESPONSE	M5	2	21	A4	release
522.353	n/a	RESPONSE	M5	2	19	G4	release
522.553	n/a	RESPONSE	M5	2	19	G4	press
522.964	n/a	RESPONSE	M5	2	21	A4	press
522.977	n/a	RESPONSE	M5	2	19	G4	release
523.427	n/a	RESPONSE	M5	2	19	G4	press
523.478	n/a	RESPONSE	M5	2	21	A4	release
524.449	n/a	RESPONSE	M5	2	19	G4	release
524.623	n/a	RESPONSE	M5	2	24	C5	press
524.754	n/a	RESPONSE	M5	2	23	B4	press
524.943	n/a	RESPONSE	M5	2	23	B4	release
525.224	n/a	RESPONSE	M5	2	24	C5	release
528.649	6.325	CUE_LISTEN	M5	1	n/a	n/a	n/a
534.974	7.759	FIXCROSS	n/a	n/a	n/a	n/a	n/a
535.373	n/a	RESPONSE	M5	1	21	A4	press
535.624	n/a	RESPONSE	M5	1	21	A4	release
542.732	6.317	CUE_PLAYBACK_RIGHT_HAND	M5	1	n/a	n/a	n/a
543.491	n/a	RESPONSE	M5	1	21	A4	press
543.712	n/a	RESPONSE	M5	1	21	A4	release
543.853	n/a	RESPONSE	M5	1	21	A4	press
544.054	n/a	RESPONSE	M5	1	21	A4	release
544.206	n/a	RESPONSE	M5	1	21	A4	press
544.698	n/a	RESPONSE	M5	1	21	A4	release
544.938	n/a	RESPONSE	M5	1	21	A4	press
545.139	n/a	RESPONSE	M5	1	21	A4	release
545.273	n/a	RESPONSE	M5	1	21	A4	press
545.483	n/a	RESPONSE	M5	1	21	A4	release
545.604	n/a	RESPONSE	M5	1	21	A4	press
546.054	n/a	RESPONSE	M5	1	21	A4	release
546.326	n/a	RESPONSE	M5	1	21	A4	press
546.809	n/a	RESPONSE	M5	1	24	C5	press
546.906	n/a	RESPONSE	M5	1	21	A4	release
547.31	n/a	RESPONSE	M5	1	17	F4	press
547.413	n/a	RESPONSE	M5	1	24	C5	release
547.802	n/a	RESPONSE	M5	1	19	G4	press
547.893	n/a	RESPONSE	M5	1	17	F4	release
548.279	n/a	RESPONSE	M5	1	21	A4	press
548.354	n/a	RESPONSE	M5	1	19	G4	release
549.049	7.758	FIXCROSS	n/a	n/a	n/a	n/a	n/a
549.388	n/a	RESPONSE	M5	1	21	A4	release
556.807	6.317	CUE_LISTEN	M5	2	n/a	n/a	n/a
563.124	7.758	FIXCROSS	n/a	n/a	n/a	n/a	n/a
570.882	6.325	CUE_PLAYBACK_RIGHT_HAND	M5	2	n/a	n/a	n/a
571.478	n/a	RESPONSE	M5	2	22	A#4	press
571.649	n/a	RESPONSE	M5	2	22	A#4	release
571.81	n/a	RESPONSE	M5	2	22	A#4	press
572.022	n/a	RESPONSE	M5	2	22	A#4	release
572.163	n/a	RESPONSE	M5	2	22	A#4	press
572.354	n/a	RESPONSE	M5	2	22	A#4	release
572.496	n/a	RESPONSE	M5	2	22	A#4	press
572.707	n/a	RESPONSE	M5	2	22	A#4	release
572.848	n/a	RESPONSE	M5	2	22	A#4	press
573.119	n/a	RESPONSE	M5	2	22	A#4	release
573.23	n/a	RESPONSE	M5	2	21	A4	press
573.472	n/a	RESPONSE	M5	2	21	A4	release
573.633	n/a	RESPONSE	M5	2	21	A4	press
573.854	n/a	RESPONSE	M5	2	21	A4	release
574.026	n/a	RESPONSE	M5	2	21	A4	press
574.727	n/a	RESPONSE	M5	2	21	A4	release
574.939	n/a	RESPONSE	M5	2	24	C5	press
575.179	n/a	RESPONSE	M5	2	24	C5	release
575.323	n/a	RESPONSE	M5	2	24	C5	press
575.733	n/a	RESPONSE	M5	2	24	C5	release
575.793	n/a	RESPONSE	M5	2	22	A#4	press
576.197	n/a	RESPONSE	M5	2	21	A4	press
576.277	n/a	RESPONSE	M5	2	22	A#4	release
576.717	n/a	RESPONSE	M5	2	19	G4	press
576.786	n/a	RESPONSE	M5	2	21	A4	release
577.189	n/a	RESPONSE	M5	2	19	G4	release
577.207	7.758	FIXCROSS	n/a	n/a	n/a	n/a	n/a
579.072	n/a	RESPONSE	M5	2	22	A#4	press
579.484	n/a	RESPONSE	M5	2	19	G4	press
579.598	n/a	RESPONSE	M5	2	22	A#4	release
579.896	n/a	RESPONSE	M5	2	21	A4	press
580.047	n/a	RESPONSE	M5	2	19	G4	release
580.458	n/a	RESPONSE	M5	2	21	A4	release
584.966	6.317	CUE_LISTEN	M1	1	n/a	n/a	n/a
591.282	7.758	FIXCROSS	n/a	n/a	n/a	n/a	n/a
599.041	6.317	CUE_PLAYBACK_BOTH_HANDS	M1	1	n/a	n/a	n/a
599.876	n/a	RESPONSE	M1	1	04	E3	press
599.882	n/a	RESPONSE	M1	1	07	G3	press
599.902	n/a	RESPONSE	M1	1	19	G4	press
599.912	n/a	RESPONSE	M1	1	00	C3	press
600.439	n/a	RESPONSE	M1	1	19	G4	release
600.491	n/a	RESPONSE	M1	1	16	E4	press
600.672	n/a	RESPONSE	M1	1	16	E4	release
601.017	n/a	RESPONSE	M1	1	16	E4	press
601.316	n/a	RESPONSE	M1	1	16	E4	release
601.318	n/a	RESPONSE	M1	1	00	C3	release
601.338	n/a	RESPONSE	M1	1	04	E3	release
601.619	n/a	RESPONSE	M1	1	05	F3	press
601.623	n/a	RESPONSE	M1	1	02	D3	press
601.632	n/a	RESPONSE	M1	1	17	F4	press
602.244	n/a	RESPONSE	M1	1	17	F4	release
602.247	n/a	RESPONSE	M1	1	14	D4	press
602.437	n/a	RESPONSE	M1	1	14	D4	release
602.838	n/a	RESPONSE	M1	1	14	D4	press
603.049	n/a	RESPONSE	M1	1	14	D4	release
603.06	n/a	RESPONSE	M1	1	02	D3	release
603.083	n/a	RESPONSE	M1	1	05	F3	release
603.443	n/a	RESPONSE	M1	1	04	E3	press
603.474	n/a	RESPONSE	M1	1	00	C3	press
603.496	n/a	RESPONSE	M1	1	12	C4	press
603.797	n/a	RESPONSE	M1	1	16	E4	press
603.859	n/a	RESPONSE	M1	1	12	C4	release
604.209	n/a	RESPONSE	M1	1	19	G4	press
604.261	n/a	RESPONSE	M1	1	16	E4	release
605.102	n/a	RESPONSE	M1	1	19	G4	release
605.357	7.759	FIXCROSS	n/a	n/a	n/a	n/a	n/a
605.383	n/a	RESPONSE	M1	1	00	C3	release
605.564	n/a	RESPONSE	M1	1	04	E3	release
610.569	n/a	RESPONSE	M1	1	07	G3	release
613.116	6.325	CUE_LISTEN	M1	2	n/a	n/a	n/a
619.441	7.758	FIXCROSS	n/a	n/a	n/a	n/a	n/a
627.199	6.317	CUE_PLAYBACK_BOTH_HANDS	M1	2	n/a	n/a	n/a
627.983	n/a	RESPONSE	M1	2	04	E3	press
628.001	n/a	RESPONSE	M1	2	07	G3	press
628.019	n/a	RESPONSE	M1	2	00	C3	press
628.024	n/a	RESPONSE	M1	2	19	G4	press
628.537	n/a	RESPONSE	M1	2	19	G4	release
628.584	n/a	RESPONSE	M1	2	16	E4	press
628.783	n/a	RESPONSE	M1	2	16	E4	release
629.08	n/a	RESPONSE	M1	2	16	E4	press
629.303	n/a	RESPONSE	M1	2	16	E4	release
629.324	n/a	RESPONSE	M1	2	00	C3	release
629.413	n/a	RESPONSE	M1	2	04	E3	release
629.639	n/a	RESPONSE	M1	2	05	F3	press
629.659	n/a	RESPONSE	M1	2	02	D3	press
629.663	n/a	RESPONSE	M1	2	17	F4	press
630.253	n/a	RESPONSE	M1	2	14	D4	press
630.274	n/a	RESPONSE	M1	2	17	F4	release
630.438	n/a	RESPONSE	M1	2	14	D4	release
630.818	n/a	RESPONSE	M1	2	14	D4	press
630.999	n/a	RESPONSE	M1	2	14	D4	release
631.04	n/a	RESPONSE	M1	2	02	D3	release
631.102	n/a	RESPONSE	M1	2	05	F3	release
631.376	n/a	RESPONSE	M1	2	04	E3	press
631.414	n/a	RESPONSE	M1	2	00	C3	press
631.476	n/a	RESPONSE	M1	2	12	C4	press
631.848	n/a	RESPONSE	M1	2	16	E4	press
631.938	n/a	RESPONSE	M1	2	12	C4	release
632.189	n/a	RESPONSE	M1	2	12	C4	press
632.221	n/a	RESPONSE	M1	2	16	E4	release
633.293	n/a	RESPONSE	M1	2	12	C4	release
633.363	n/a	RESPONSE	M1	2	00	C3	release
633.516	7.759	FIXCROSS	n/a	n/a	n/a	n/a	n/a
633.604	n/a	RESPONSE	M1	2	04	E3	release
634.986	n/a	RESPONSE	M1	2	07	G3	release
641.274	6.325	CUE_LISTEN	M4	1	n/a	n/a	n/a
647.599	7.758	FIXCROSS	n/a	n/a	n/a	n/a	n/a
655.358	6.317	CUE_PLAYBACK_RIGHT_HAND	M4	1	n/a	n/a	n/a
656.299	n/a	RESPONSE	M4	1	12	C4	press
656.762	n/a	RESPONSE	M4	1	17	F4	press
656.769	n/a	RESPONSE	M4	1	12	C4	release
657.423	n/a	RESPONSE	M4	1	17	F4	release
657.462	n/a	RESPONSE	M4	1	23	B4	press
657.567	n/a	RESPONSE	M4	1	17	F4	press
657.772	n/a	RESPONSE	M4	1	17	F4	release
658.098	n/a	RESPONSE	M4	1	23	B4	release
658.881	n/a	RESPONSE	M4	1	14	D4	press
659.494	n/a	RESPONSE	M4	1	14	D4	release
660.527	n/a	RESPONSE	M4	1	12	C4	press
661.309	n/a	RESPONSE	M4	1	12	C4	release
661.582	n/a	RESPONSE	M4	1	12	C4	press
661.674	7.758	FIXCROSS	n/a	n/a	n/a	n/a	n/a
662.222	n/a	RESPONSE	M4	1	17	F4	press
662.334	n/a	RESPONSE	M4	1	12	C4	release
662.884	n/a	RESPONSE	M4	1	21	A4	press
662.896	n/a	RESPONSE	M4	1	17	F4	release
663.379	n/a	RESPONSE	M4	1	19	G4	press
663.429	n/a	RESPONSE	M4	1	21	A4	release
663.919	n/a	RESPONSE	M4	1	17	F4	press
663.971	n/a	RESPONSE	M4	1	19	G4	release
664.452	n/a	RESPONSE	M4	1	16	E4	press
664.523	n/a	RESPONSE	M4	1	17	F4	release
664.994	n/a	RESPONSE	M4	1	17	F4	press
665.066	n/a	RESPONSE	M4	1	16	E4	release
665.817	n/a	RESPONSE	M4	1	17	F4	release
666.119	n/a	RESPONSE	M4	1	12	C4	press
666.677	n/a	RESPONSE	M4	1	17	F4	press
666.738	n/a	RESPONSE	M4	1	12	C4	release
667.317	n/a	RESPONSE	M4	1	23	B4	press
667.383	n/a	RESPONSE	M4	1	17	F4	release
667.876	n/a	RESPONSE	M4	1	21	A4	press
667.878	n/a	RESPONSE	M4	1	19	G4	press
667.886	n/a	RESPONSE	M4	1	23	B4	release
668.072	n/a	RESPONSE	M4	1	21	A4	release
668.303	n/a	RESPONSE	M4	1	19	G4	release
669.433	6.317	CUE_LISTEN	M4	2	n/a	n/a	n/a
675.749	7.758	FIXCROSS	n/a	n/a	n/a	n/a	n/a
683.508	6.317	CUE_PLAYBACK_RIGHT_HAND	M4	2	n/a	n/a	n/a
684.173	n/a	RESPONSE	M4	2	12	C4	press
684.734	n/a	RESPONSE	M4	2	17	F4	press
684.807	n/a	RESPONSE	M4	2	12	C4	release
685.399	n/a	RESPONSE	M4	2	21	A4	press
685.468	n/a	RESPONSE	M4	2	17	F4	release
685.912	n/a	RESPONSE	M4	2	24	C5	press
686.151	n/a	RESPONSE	M4	2	21	A4	release
687.118	n/a	RESPONSE	M4	2	22	A#4	press
687.174	n/a	RESPONSE	M4	2	24	C5	release
687.547	n/a	RESPONSE	M4	2	21	A4	press
687.842	n/a	RESPONSE	M4	2	22	A#4	release
688.252	n/a	RESPONSE	M4	2	19	G4	press
688.364	n/a	RESPONSE	M4	2	21	A4	release
689.027	n/a	RESPONSE	M4	2	19	G4	release
689.824	7.758	FIXCROSS	n/a	n/a	n/a	n/a	n/a
691.314	n/a	RESPONSE	M4	2	12	C4	press
692.046	n/a	RESPONSE	M4	2	16	E4	press
692.187	n/a	RESPONSE	M4	2	12	C4	release
692.809	n/a	RESPONSE	M4	2	19	G4	press
692.869	n/a	RESPONSE	M4	2	16	E4	release
693.651	n/a	RESPONSE	M4	2	22	A#4	press
693.712	n/a	RESPONSE	M4	2	19	G4	release
693.783	n/a	RESPONSE	M4	2	23	B4	press
693.864	n/a	RESPONSE	M4	2	22	A#4	release
694.116	n/a	RESPONSE	M4	2	23	B4	release
694.418	n/a	RESPONSE	M4	2	21	A4	press
695.008	n/a	RESPONSE	M4	2	19	G4	press
695.131	n/a	RESPONSE	M4	2	21	A4	release
695.641	n/a	RESPONSE	M4	2	17	F4	press
695.692	n/a	RESPONSE	M4	2	19	G4	release
696.617	n/a	RESPONSE	M4	2	17	F4	release
697.583	6.325	CUE_LISTEN	M2	1	n/a	n/a	n/a
703.908	7.758	FIXCROSS	n/a	n/a	n/a	n/a	n/a
711.666	6.325	CUE_PLAYBACK_BOTH_HANDS	M2	1	n/a	n/a	n/a
712.586	n/a	RESPONSE	M2	1	24	C5	press
712.588	n/a	RESPONSE	M2	1	07	G3	press
712.598	n/a	RESPONSE	M2	1	00	C3	press
713.219	n/a	RESPONSE	M2	1	19	G4	press
713.283	n/a	RESPONSE	M2	1	24	C5	release
713.442	n/a	RESPONSE	M2	1	19	G4	release
713.753	n/a	RESPONSE	M2	1	19	G4	press
714.294	n/a	RESPONSE	M2	1	17	F4	press
714.406	n/a	RESPONSE	M2	1	19	G4	release
714.497	n/a	RESPONSE	M2	1	07	G3	release
714.508	n/a	RESPONSE	M2	1	00	C3	release
714.869	n/a	RESPONSE	M2	1	07	G3	press
714.881	n/a	RESPONSE	M2	1	00	C3	press
714.892	n/a	RESPONSE	M2	1	16	E4	press
714.894	n/a	RESPONSE	M2	1	17	F4	release
715.454	n/a	RESPONSE	M2	1	17	F4	press
715.526	n/a	RESPONSE	M2	1	16	E4	release
715.679	n/a	RESPONSE	M2	1	07	G3	release
715.711	n/a	RESPONSE	M2	1	00	C3	release
716.051	n/a	RESPONSE	M2	1	19	G4	press
716.061	n/a	RESPONSE	M2	1	07	G3	press
716.082	n/a	RESPONSE	M2	1	00	C3	press
716.103	n/a	RESPONSE	M2	1	17	F4	release
716.959	n/a	RESPONSE	M2	1	19	G4	release
717.082	n/a	RESPONSE	M2	1	00	C3	release
717.119	n/a	RESPONSE	M2	1	07	G3	release
717.991	7.759	FIXCROSS	n/a	n/a	n/a	n/a	n/a
725.75	6.317	CUE_LISTEN	M2	2	n/a	n/a	n/a
732.066	7.758	FIXCROSS	n/a	n/a	n/a	n/a	n/a
739.824	6.317	CUE_PLAYBACK_BOTH_HANDS	M2	2	n/a	n/a	n/a
740.697	n/a	RESPONSE	M2	2	24	C5	press
740.699	n/a	RESPONSE	M2	2	07	G3	press
740.711	n/a	RESPONSE	M2	2	00	C3	press
741.252	n/a	RESPONSE	M2	2	19	G4	press
741.353	n/a	RESPONSE	M2	2	24	C5	release
741.504	n/a	RESPONSE	M2	2	00	C3	release
741.516	n/a	RESPONSE	M2	2	07	G3	release
741.567	n/a	RESPONSE	M2	2	19	G4	release
741.788	n/a	RESPONSE	M2	2	07	G3	press
741.811	n/a	RESPONSE	M2	2	00	C3	press
741.821	n/a	RESPONSE	M2	2	19	G4	press
742.352	n/a	RESPONSE	M2	2	17	F4	press
742.436	n/a	RESPONSE	M2	2	19	G4	release
742.564	n/a	RESPONSE	M2	2	00	C3	release
742.567	n/a	RESPONSE	M2	2	07	G3	release
742.968	n/a	RESPONSE	M2	2	07	G3	press
742.971	n/a	RESPONSE	M2	2	16	E4	press
742.983	n/a	RESPONSE	M2	2	00	C3	press
743.013	n/a	RESPONSE	M2	2	17	F4	release
743.533	n/a	RESPONSE	M2	2	14	D4	press
743.634	n/a	RESPONSE	M2	2	16	E4	release
743.686	n/a	RESPONSE	M2	2	00	C3	release
743.697	n/a	RESPONSE	M2	2	07	G3	release
744.118	n/a	RESPONSE	M2	2	07	G3	press
744.121	n/a	RESPONSE	M2	2	00	C3	press
744.131	n/a	RESPONSE	M2	2	12	C4	press
744.152	n/a	RESPONSE	M2	2	11	B3	press
744.183	n/a	RESPONSE	M2	2	11	B3	release
744.194	n/a	RESPONSE	M2	2	14	D4	release
745.236	n/a	RESPONSE	M2	2	00	C3	release
745.247	n/a	RESPONSE	M2	2	12	C4	release
745.278	n/a	RESPONSE	M2	2	07	G3	release
746.141	7.758	FIXCROSS	n/a	n/a	n/a	n/a	n/a
753.9	6.317	CUE_LISTEN	M2	1	n/a	n/a	n/a
760.216	7.759	FIXCROSS	n/a	n/a	n/a	n/a	n/a
767.975	6.325	CUE_PLAYBACK_BOTH_HANDS	M2	1	n/a	n/a	n/a
768.754	n/a	RESPONSE	M2	1	07	G3	press
768.772	n/a	RESPONSE	M2	1	00	C3	press
768.777	n/a	RESPONSE	M2	1	12	C4	press
769.338	n/a	RESPONSE	M2	1	14	D4	press
769.419	n/a	RESPONSE	M2	1	12	C4	release
769.473	n/a	RESPONSE	M2	1	00	C3	release
769.479	n/a	RESPONSE	M2	1	07	G3	release
769.923	n/a	RESPONSE	M2	1	07	G3	press
769.926	n/a	RESPONSE	M2	1	16	E4	press
769.934	n/a	RESPONSE	M2	1	00	C3	press
769.983	n/a	RESPONSE	M2	1	14	D4	release
770.531	n/a	RESPONSE	M2	1	14	D4	press
770.562	n/a	RESPONSE	M2	1	16	E4	release
770.613	n/a	RESPONSE	M2	1	00	C3	release
770.634	n/a	RESPONSE	M2	1	07	G3	release
771.087	n/a	RESPONSE	M2	1	16	E4	press
771.118	n/a	RESPONSE	M2	1	00	C3	press
771.121	n/a	RESPONSE	M2	1	07	G3	press
771.171	n/a	RESPONSE	M2	1	14	D4	release
771.732	n/a	RESPONSE	M2	1	17	F4	press
771.803	n/a	RESPONSE	M2	1	00	C3	release
771.806	n/a	RESPONSE	M2	1	16	E4	release
771.816	n/a	RESPONSE	M2	1	07	G3	release
772.347	n/a	RESPONSE	M2	1	19	G4	press
772.369	n/a	RESPONSE	M2	1	07	G3	press
772.379	n/a	RESPONSE	M2	1	00	C3	press
772.401	n/a	RESPONSE	M2	1	17	F4	release
773.562	n/a	RESPONSE	M2	1	19	G4	release
773.603	n/a	RESPONSE	M2	1	00	C3	release
773.737	n/a	RESPONSE	M2	1	07	G3	release
774.3	7.758	FIXCROSS	n/a	n/a	n/a	n/a	n/a
782.058	6.317	CUE_LISTEN	M2	2	n/a	n/a	n/a
788.374	7.758	FIXCROSS	n/a	n/a	n/a	n/a	n/a
796.133	6.317	CUE_PLAYBACK_BOTH_HANDS	M2	2	n/a	n/a	n/a
796.817	n/a	RESPONSE	M2	2	07	G3	press
796.826	n/a	RESPONSE	M2	2	00	C3	press
796.844	n/a	RESPONSE	M2	2	16	E4	press
797.432	n/a	RESPONSE	M2	2	19	G4	press
797.478	n/a	RESPONSE	M2	2	16	E4	release
797.613	n/a	RESPONSE	M2	2	00	C3	release
797.649	n/a	RESPONSE	M2	2	07	G3	release
797.749	n/a	RESPONSE	M2	2	19	G4	release
797.963	n/a	RESPONSE	M2	2	07	G3	press
797.974	n/a	RESPONSE	M2	2	00	C3	press
797.983	n/a	RESPONSE	M2	2	19	G4	press
798.562	n/a	RESPONSE	M2	2	17	F4	press
798.588	n/a	RESPONSE	M2	2	19	G4	release
798.666	n/a	RESPONSE	M2	2	00	C3	release
798.668	n/a	RESPONSE	M2	2	07	G3	release
799.112	n/a	RESPONSE	M2	2	07	G3	press
799.114	n/a	RESPONSE	M2	2	15	D#4	press
799.127	n/a	RESPONSE	M2	2	00	C3	press
799.162	n/a	RESPONSE	M2	2	16	E4	press
799.177	n/a	RESPONSE	M2	2	15	D#4	release
799.218	n/a	RESPONSE	M2	2	17	F4	release
799.721	n/a	RESPONSE	M2	2	14	D4	press
799.769	n/a	RESPONSE	M2	2	16	E4	release
799.814	n/a	RESPONSE	M2	2	00	C3	release
799.829	n/a	RESPONSE	M2	2	07	G3	release
800.324	n/a	RESPONSE	M2	2	07	G3	press
800.327	n/a	RESPONSE	M2	2	12	C4	press
800.339	n/a	RESPONSE	M2	2	00	C3	press
800.369	n/a	RESPONSE	M2	2	14	D4	release
801.471	n/a	RESPONSE	M2	2	00	C3	release
801.492	n/a	RESPONSE	M2	2	12	C4	release
801.646	n/a	RESPONSE	M2	2	07	G3	release
802.45	7.758	FIXCROSS	n/a	n/a	n/a	n/a	n/a
810.208	6.325	CUE_LISTEN	M3	1	n/a	n/a	n/a
816.533	7.758	FIXCROSS	n/a	n/a	n/a	n/a	n/a
824.291	6.325	CUE_PLAYBACK_RIGHT_HAND	M3	1	n/a	n/a	n/a
824.933	n/a	RESPONSE	M3	1	12	C4	press
825.423	n/a	RESPONSE	M3	1	14	D4	press
825.494	n/a	RESPONSE	M3	1	12	C4	release
825.926	n/a	RESPONSE	M3	1	16	E4	press
826.017	n/a	RESPONSE	M3	1	14	D4	release
826.439	n/a	RESPONSE	M3	1	12	C4	press
826.541	n/a	RESPONSE	M3	1	16	E4	release
826.772	n/a	RESPONSE	M3	1	12	C4	release
826.988	n/a	RESPONSE	M3	1	12	C4	press
827.518	n/a	RESPONSE	M3	1	14	D4	press
827.612	n/a	RESPONSE	M3	1	12	C4	release
828.057	n/a	RESPONSE	M3	1	16	E4	press
828.152	n/a	RESPONSE	M3	1	14	D4	release
828.592	n/a	RESPONSE	M3	1	12	C4	press
828.638	n/a	RESPONSE	M3	1	16	E4	release
829.351	n/a	RESPONSE	M3	1	12	C4	release
830.616	7.758	FIXCROSS	n/a	n/a	n/a	n/a	n/a
838.375	6.308	CUE_LISTEN	M3	2	n/a	n/a	n/a
844.683	7.758	FIXCROSS	n/a	n/a	n/a	n/a	n/a
852.441	6.325	CUE_PLAYBACK_RIGHT_HAND	M3	2	n/a	n/a	n/a
853.087	n/a	RESPONSE	M3	2	16	E4	press
853.618	n/a	RESPONSE	M3	2	17	F4	press
853.65	n/a	RESPONSE	M3	2	16	E4	release
854.182	n/a	RESPONSE	M3	2	19	G4	press
854.292	n/a	RESPONSE	M3	2	17	F4	release
855.083	n/a	RESPONSE	M3	2	19	G4	release
855.394	n/a	RESPONSE	M3	2	16	E4	press
855.966	n/a	RESPONSE	M3	2	17	F4	press
855.968	n/a	RESPONSE	M3	2	16	E4	release
856.539	n/a	RESPONSE	M3	2	19	G4	press
856.717	n/a	RESPONSE	M3	2	17	F4	release
857.398	n/a	RESPONSE	M3	2	19	G4	release
858.766	7.758	FIXCROSS	n/a	n/a	n/a	n/a	n/a
866.525	6.317	CUE_LISTEN	M3	1	n/a	n/a	n/a
872.841	7.758	FIXCROSS	n/a	n/a	n/a	n/a	n/a
880.6	6.325	CUE_PLAYBACK_RIGHT_HAND	M3	1	n/a	n/a	n/a
881.253	n/a	RESPONSE	M3	1	19	G4	press
881.582	n/a	RESPONSE	M3	1	21	A4	press
881.673	n/a	RESPONSE	M3	1	19	G4	release
881.914	n/a	RESPONSE	M3	1	19	G4	press
882.016	n/a	RESPONSE	M3	1	21	A4	release
882.207	n/a	RESPONSE	M3	1	17	F4	press
882.318	n/a	RESPONSE	M3	1	19	G4	release
882.569	n/a	RESPONSE	M3	1	16	E4	press
882.641	n/a	RESPONSE	M3	1	17	F4	release
883.242	n/a	RESPONSE	M3	1	16	E4	release
883.253	n/a	RESPONSE	M3	1	12	C4	press
883.816	n/a	RESPONSE	M3	1	12	C4	release
884.236	n/a	RESPONSE	M3	1	17	F4	press
884.657	n/a	RESPONSE	M3	1	17	F4	release
885.068	n/a	RESPONSE	M3	1	19	G4	press
885.379	n/a	RESPONSE	M3	1	21	A4	press
885.402	n/a	RESPONSE	M3	1	19	G4	release
885.702	n/a	RESPONSE	M3	1	19	G4	press
885.786	n/a	RESPONSE	M3	1	21	A4	release
886.004	n/a	RESPONSE	M3	1	17	F4	press
886.106	n/a	RESPONSE	M3	1	19	G4	release
886.348	n/a	RESPONSE	M3	1	16	E4	press
886.398	n/a	RESPONSE	M3	1	17	F4	release
886.925	7.758	FIXCROSS	n/a	n/a	n/a	n/a	n/a
887.102	n/a	RESPONSE	M3	1	12	C4	press
887.119	n/a	RESPONSE	M3	1	16	E4	release
888.022	n/a	RESPONSE	M3	1	12	C4	release
888.917	n/a	RESPONSE	M3	1	12	C4	press
889.233	n/a	RESPONSE	M3	1	12	C4	release
894.683	6.317	CUE_LISTEN	M3	2	n/a	n/a	n/a
901.0	7.758	FIXCROSS	n/a	n/a	n/a	n/a	n/a
908.758	208.51	CUE_PLAYBACK_RIGHT_HAND	M3	2	n/a	n/a	n/a
909.549	n/a	RESPONSE	M3	2	12	C4	press
909.991	n/a	RESPONSE	M3	2	12	C4	release
910.292	n/a	RESPONSE	M3	2	07	G3	press
911.284	n/a	RESPONSE	M3	2	07	G3	release
911.356	n/a	RESPONSE	M3	2	12	C4	press
912.217	n/a	RESPONSE	M3	2	12	C4	release
912.771	n/a	RESPONSE	M3	2	12	C4	press
913.251	n/a	FIXCROSS	n/a	n/a	n/a	n/a	n/a
913.279	n/a	RESPONSE	M3	2	12	C4	release
913.651	n/a	RESPONSE	M3	2	07	G3	press
914.352	n/a	RESPONSE	M3	2	07	G3	release
914.613	n/a	RESPONSE	M3	2	12	C4	press
915.617	n/a	RESPONSE	M3	2	12	C4	release
