onset	duration	trial_type	n_back_condition	trial_number	stimulus	response_type
0.0	n/a	RESPONSE	n/a	n/a	n/a	n/a
0.0202	1.0	ISI	n/a	n/a	n/a	n/a
1.0202	0.5	DISTRACTOR	1	1	I	Correct Rejection
1.5202	1.0	ISI	n/a	n/a	n/a	n/a
2.5202	0.5	TARGET	1	2	I	Hit
2.9534	n/a	RESPONSE	n/a	n/a	n/a	n/a
3.0202	1.0167	ISI	n/a	n/a	n/a	n/a
4.0369	0.5	DISTRACTOR	1	3	H	Correct Rejection
4.5369	1.0	ISI	n/a	n/a	n/a	n/a
5.5369	0.5	TARGET	1	4	H	Hit
5.9865	n/a	RESPONSE	n/a	n/a	n/a	n/a
6.0369	1.0	ISI	n/a	n/a	n/a	n/a
7.0369	0.5	DISTRACTOR	1	5	D	Correct Rejection
7.537	3.6667	ISI	n/a	n/a	n/a	n/a
11.2036	0.7833	DISTRACTOR	1	6	A	Correct Rejection
11.987	1.2167	ISI	n/a	n/a	n/a	n/a
13.2037	0.5	TARGET	1	7	A	Hit
13.7037	1.0	ISI	n/a	n/a	n/a	n/a
13.7293	n/a	RESPONSE	n/a	n/a	n/a	n/a
14.7036	0.5	DISTRACTOR	1	8	E	Correct Rejection
15.2036	1.0	ISI	n/a	n/a	n/a	n/a
16.2037	0.5	DISTRACTOR	1	9	D	Correct Rejection
16.7037	1.0	ISI	n/a	n/a	n/a	n/a
17.7037	0.5	DISTRACTOR	1	10	G	Correct Rejection
18.2037	1.0	ISI	n/a	n/a	n/a	n/a
19.2037	0.5	DISTRACTOR	1	11	F	Correct Rejection
19.7037	1.0167	ISI	n/a	n/a	n/a	n/a
20.7204	0.5167	TARGET	1	12	F	Hit
21.1843	n/a	RESPONSE	n/a	n/a	n/a	n/a
21.2371	1.0167	ISI	n/a	n/a	n/a	n/a
22.2537	0.5167	DISTRACTOR	1	13	B	Correct Rejection
22.7704	1.0167	ISI	n/a	n/a	n/a	n/a
23.7871	0.5167	DISTRACTOR	1	14	E	Correct Rejection
24.3037	1.0167	ISI	n/a	n/a	n/a	n/a
25.3204	0.5167	DISTRACTOR	1	15	H	Correct Rejection
25.8371	1.0167	ISI	n/a	n/a	n/a	n/a
26.8538	0.5166	TARGET	1	16	H	Hit
27.1707	n/a	RESPONSE	n/a	n/a	n/a	n/a
27.3704	1.0167	ISI	n/a	n/a	n/a	n/a
28.3871	0.5167	DISTRACTOR	1	17	C	Correct Rejection
28.9038	1.0166	ISI	n/a	n/a	n/a	n/a
29.9204	0.5167	DISTRACTOR	1	18	G	Correct Rejection
30.4371	1.0167	ISI	n/a	n/a	n/a	n/a
31.4538	0.5166	DISTRACTOR	1	19	A	Correct Rejection
31.9704	1.0167	ISI	n/a	n/a	n/a	n/a
32.9871	0.5167	DISTRACTOR	1	20	H	Correct Rejection
33.5038	1.0167	ISI	n/a	n/a	n/a	n/a
34.5205	0.5167	DISTRACTOR	1	21	F	Correct Rejection
35.0372	1.0167	ISI	n/a	n/a	n/a	n/a
36.0538	0.5167	DISTRACTOR	1	22	G	Correct Rejection
36.5705	1.0167	ISI	n/a	n/a	n/a	n/a
37.5872	0.5167	TARGET	1	23	G	Hit
38.0421	n/a	RESPONSE	n/a	n/a	n/a	n/a
38.1039	1.0166	ISI	n/a	n/a	n/a	n/a
39.1205	0.5167	DISTRACTOR	1	24	A	Correct Rejection
39.6372	1.0166	ISI	n/a	n/a	n/a	n/a
40.6539	0.5167	DISTRACTOR	1	25	J	Correct Rejection
41.1705	1.0167	ISI	n/a	n/a	n/a	n/a
42.1872	0.5167	DISTRACTOR	1	26	I	Correct Rejection
42.7039	1.0167	ISI	n/a	n/a	n/a	n/a
43.7205	0.5167	DISTRACTOR	1	27	H	Correct Rejection
44.2372	1.0167	ISI	n/a	n/a	n/a	n/a
45.2539	0.5167	DISTRACTOR	1	28	F	Correct Rejection
45.7706	1.0167	ISI	n/a	n/a	n/a	n/a
46.7873	0.5166	TARGET	1	29	F	Hit
47.3011	n/a	RESPONSE	n/a	n/a	n/a	n/a
47.3039	1.0167	ISI	n/a	n/a	n/a	n/a
48.3206	0.5166	DISTRACTOR	1	30	H	Correct Rejection
48.8372	1.0167	ISI	n/a	n/a	n/a	n/a
49.854	0.5167	DISTRACTOR	1	31	C	Correct Rejection
50.3706	1.0167	ISI	n/a	n/a	n/a	n/a
51.3873	0.5167	DISTRACTOR	1	32	G	Correct Rejection
51.904	1.0167	ISI	n/a	n/a	n/a	n/a
52.9206	0.5167	DISTRACTOR	1	33	I	Correct Rejection
53.4373	1.0167	ISI	n/a	n/a	n/a	n/a
54.454	0.5167	TARGET	1	34	I	Hit
54.8679	n/a	RESPONSE	n/a	n/a	n/a	n/a
54.9707	1.0166	ISI	n/a	n/a	n/a	n/a
55.9873	0.5167	DISTRACTOR	1	35	C	Correct Rejection
56.504	1.0166	ISI	n/a	n/a	n/a	n/a
57.5206	0.5167	TARGET	1	36	C	Hit
57.917	n/a	RESPONSE	n/a	n/a	n/a	n/a
58.0374	1.0167	ISI	n/a	n/a	n/a	n/a
59.054	0.5166	DISTRACTOR	1	37	I	Correct Rejection
59.5707	1.0167	ISI	n/a	n/a	n/a	n/a
60.5874	0.5166	DISTRACTOR	1	38	J	Correct Rejection
61.104	1.0167	ISI	n/a	n/a	n/a	n/a
62.1207	0.5167	DISTRACTOR	1	39	I	False Alarm
62.6374	1.0166	ISI	n/a	n/a	n/a	n/a
62.6582	n/a	RESPONSE	n/a	n/a	n/a	n/a
63.654	0.5167	DISTRACTOR	1	40	D	Correct Rejection
64.1707	1.0167	ISI	n/a	n/a	n/a	n/a
65.1874	0.5166	DISTRACTOR	1	41	F	Correct Rejection
65.7041	1.0167	ISI	n/a	n/a	n/a	n/a
66.7208	0.5167	DISTRACTOR	1	42	D	Correct Rejection
67.2374	1.0167	ISI	n/a	n/a	n/a	n/a
68.2541	0.5167	DISTRACTOR	1	43	G	Correct Rejection
68.7708	1.0167	ISI	n/a	n/a	n/a	n/a
69.7874	0.5166	DISTRACTOR	1	44	I	Correct Rejection
70.3041	1.0167	ISI	n/a	n/a	n/a	n/a
71.3208	0.5167	TARGET	1	45	I	Hit
71.7894	n/a	RESPONSE	n/a	n/a	n/a	n/a
71.8375	1.0167	ISI	n/a	n/a	n/a	n/a
72.8541	0.5167	DISTRACTOR	1	46	B	Correct Rejection
73.3708	1.0166	ISI	n/a	n/a	n/a	n/a
74.3875	0.5167	DISTRACTOR	1	47	I	Correct Rejection
74.9041	1.0167	ISI	n/a	n/a	n/a	n/a
75.9208	0.5167	DISTRACTOR	1	48	D	Correct Rejection
76.4375	1.0167	ISI	n/a	n/a	n/a	n/a
77.4542	0.5167	DISTRACTOR	1	49	I	Correct Rejection
77.9708	1.0167	ISI	n/a	n/a	n/a	n/a
78.9875	0.5167	DISTRACTOR	1	50	E	Correct Rejection
79.5042	1.15	ISI	n/a	n/a	n/a	n/a
83.1557	n/a	RESPONSE	n/a	n/a	n/a	n/a
83.1876	1.0	ISI	n/a	n/a	n/a	n/a
84.1876	0.5	DISTRACTOR	2	1	B	Correct Rejection
84.6876	1.0	ISI	n/a	n/a	n/a	n/a
85.6876	0.5167	DISTRACTOR	2	2	G	Correct Rejection
86.2042	1.0166	ISI	n/a	n/a	n/a	n/a
87.2209	0.5167	DISTRACTOR	2	3	E	Correct Rejection
87.7376	1.0166	ISI	n/a	n/a	n/a	n/a
88.7542	0.5167	DISTRACTOR	2	4	E	Correct Rejection
89.2709	1.0166	ISI	n/a	n/a	n/a	n/a
90.2876	0.5167	DISTRACTOR	2	5	C	Correct Rejection
90.8043	1.0166	ISI	n/a	n/a	n/a	n/a
91.8209	0.5167	DISTRACTOR	2	6	H	Correct Rejection
92.3376	1.0166	ISI	n/a	n/a	n/a	n/a
93.3543	0.5167	DISTRACTOR	2	7	A	Correct Rejection
93.871	1.0167	ISI	n/a	n/a	n/a	n/a
94.8877	0.5167	TARGET	2	8	H	Miss
95.4043	1.0167	ISI	n/a	n/a	n/a	n/a
96.421	0.5167	DISTRACTOR	2	9	I	Correct Rejection
96.9377	1.0167	ISI	n/a	n/a	n/a	n/a
97.9543	0.5166	DISTRACTOR	2	10	B	Correct Rejection
98.471	1.0165	ISI	n/a	n/a	n/a	n/a
99.4874	0.5169	DISTRACTOR	2	11	E	Correct Rejection
100.0043	1.0167	ISI	n/a	n/a	n/a	n/a
101.021	0.5166	TARGET	2	12	B	Hit
101.5377	1.0167	ISI	n/a	n/a	n/a	n/a
101.5938	n/a	RESPONSE	n/a	n/a	n/a	n/a
102.5543	0.5167	DISTRACTOR	2	13	A	Correct Rejection
103.071	1.0166	ISI	n/a	n/a	n/a	n/a
104.0877	0.5167	DISTRACTOR	2	14	E	Correct Rejection
104.6044	1.0167	ISI	n/a	n/a	n/a	n/a
105.6211	0.5167	DISTRACTOR	2	15	F	Correct Rejection
106.1377	1.0167	ISI	n/a	n/a	n/a	n/a
107.1544	0.5167	TARGET	2	16	E	Hit
107.6711	1.0167	ISI	n/a	n/a	n/a	n/a
107.708	n/a	RESPONSE	n/a	n/a	n/a	n/a
108.6878	0.5167	DISTRACTOR	2	17	C	Correct Rejection
109.2044	1.0167	ISI	n/a	n/a	n/a	n/a
110.2211	0.5166	DISTRACTOR	2	18	J	Correct Rejection
110.7377	1.0167	ISI	n/a	n/a	n/a	n/a
111.7545	0.5167	DISTRACTOR	2	19	H	Correct Rejection
112.2711	1.0166	ISI	n/a	n/a	n/a	n/a
113.2878	0.5167	TARGET	2	20	J	Hit
113.6305	n/a	RESPONSE	n/a	n/a	n/a	n/a
113.8045	1.0166	ISI	n/a	n/a	n/a	n/a
114.8211	0.5167	DISTRACTOR	2	21	J	Correct Rejection
115.3378	1.0167	ISI	n/a	n/a	n/a	n/a
116.3545	0.5167	DISTRACTOR	2	22	E	Correct Rejection
116.8712	1.0166	ISI	n/a	n/a	n/a	n/a
117.8878	0.5167	DISTRACTOR	2	23	D	Correct Rejection
118.4045	1.0166	ISI	n/a	n/a	n/a	n/a
119.4211	0.5167	DISTRACTOR	2	24	J	Correct Rejection
119.9379	1.0167	ISI	n/a	n/a	n/a	n/a
120.9545	0.5166	DISTRACTOR	2	25	G	Correct Rejection
121.4712	1.0167	ISI	n/a	n/a	n/a	n/a
122.4879	0.5166	TARGET	2	26	J	Hit
123.0045	1.0167	ISI	n/a	n/a	n/a	n/a
123.2566	n/a	RESPONSE	n/a	n/a	n/a	n/a
124.0212	0.5167	DISTRACTOR	2	27	A	Correct Rejection
124.5379	1.0167	ISI	n/a	n/a	n/a	n/a
125.5546	0.5167	DISTRACTOR	2	28	I	Correct Rejection
126.0712	1.0167	ISI	n/a	n/a	n/a	n/a
127.0879	0.5167	DISTRACTOR	2	29	J	False Alarm
127.5988	n/a	RESPONSE	n/a	n/a	n/a	n/a
127.6046	1.0167	ISI	n/a	n/a	n/a	n/a
128.6213	0.5167	DISTRACTOR	2	30	G	Correct Rejection
129.1379	1.0167	ISI	n/a	n/a	n/a	n/a
130.1546	0.5166	DISTRACTOR	2	31	D	Correct Rejection
130.6712	1.0167	ISI	n/a	n/a	n/a	n/a
131.6879	0.5166	DISTRACTOR	2	32	F	Correct Rejection
132.2046	1.0167	ISI	n/a	n/a	n/a	n/a
133.2213	0.5167	DISTRACTOR	2	33	B	Correct Rejection
133.738	1.0167	ISI	n/a	n/a	n/a	n/a
134.7546	0.5167	DISTRACTOR	2	34	D	Correct Rejection
135.2713	1.0167	ISI	n/a	n/a	n/a	n/a
136.288	0.5166	DISTRACTOR	2	35	A	Correct Rejection
136.8046	1.0167	ISI	n/a	n/a	n/a	n/a
137.8213	0.5167	DISTRACTOR	2	36	H	Correct Rejection
138.338	1.0167	ISI	n/a	n/a	n/a	n/a
139.3547	0.5167	TARGET	2	37	A	Hit
139.8713	1.0167	ISI	n/a	n/a	n/a	n/a
139.9707	n/a	RESPONSE	n/a	n/a	n/a	n/a
140.888	0.5166	DISTRACTOR	2	38	C	Correct Rejection
141.4046	1.0167	ISI	n/a	n/a	n/a	n/a
142.4214	0.5167	DISTRACTOR	2	39	D	Correct Rejection
142.938	1.0166	ISI	n/a	n/a	n/a	n/a
143.9547	0.5167	DISTRACTOR	2	40	A	Correct Rejection
144.4713	1.0167	ISI	n/a	n/a	n/a	n/a
145.488	0.5167	TARGET	2	41	D	Hit
146.0047	1.0167	ISI	n/a	n/a	n/a	n/a
146.1168	n/a	RESPONSE	n/a	n/a	n/a	n/a
147.0214	0.5167	DISTRACTOR	2	42	D	Correct Rejection
147.5381	1.0167	ISI	n/a	n/a	n/a	n/a
148.5547	0.5167	DISTRACTOR	2	43	C	Correct Rejection
149.0714	1.0167	ISI	n/a	n/a	n/a	n/a
150.0881	0.5166	TARGET	2	44	D	Hit
150.6047	1.0167	ISI	n/a	n/a	n/a	n/a
150.6505	n/a	RESPONSE	n/a	n/a	n/a	n/a
151.6214	0.5167	DISTRACTOR	2	45	D	False Alarm
152.1381	1.0167	ISI	n/a	n/a	n/a	n/a
152.183	n/a	RESPONSE	n/a	n/a	n/a	n/a
153.1547	0.5167	DISTRACTOR	2	46	F	Correct Rejection
153.6714	1.0167	ISI	n/a	n/a	n/a	n/a
154.6881	0.5166	DISTRACTOR	2	47	F	Correct Rejection
155.2048	1.0167	ISI	n/a	n/a	n/a	n/a
156.2215	0.5167	TARGET	2	48	F	Hit
156.557	n/a	RESPONSE	n/a	n/a	n/a	n/a
156.7381	1.0167	ISI	n/a	n/a	n/a	n/a
157.7548	0.5167	DISTRACTOR	2	49	G	Correct Rejection
158.2715	1.0167	ISI	n/a	n/a	n/a	n/a
159.2882	0.5167	TARGET	2	50	F	Hit
159.8048	1.1	ISI	n/a	n/a	n/a	n/a
159.8935	n/a	RESPONSE	n/a	n/a	n/a	n/a
163.0065	n/a	RESPONSE	n/a	n/a	n/a	n/a
163.0382	1.0	ISI	n/a	n/a	n/a	n/a
164.0382	0.5	DISTRACTOR	3	1	B	Correct Rejection
164.5382	1.0	ISI	n/a	n/a	n/a	n/a
165.5382	0.5	DISTRACTOR	3	2	H	Correct Rejection
166.0382	1.0166	ISI	n/a	n/a	n/a	n/a
167.0549	0.5167	DISTRACTOR	3	3	D	Correct Rejection
167.5716	1.0167	ISI	n/a	n/a	n/a	n/a
168.5882	0.5166	DISTRACTOR	3	4	E	Correct Rejection
169.1049	1.0167	ISI	n/a	n/a	n/a	n/a
170.1216	0.5167	DISTRACTOR	3	5	J	Correct Rejection
170.6382	1.0167	ISI	n/a	n/a	n/a	n/a
171.6549	0.5166	DISTRACTOR	3	6	C	Correct Rejection
172.1716	1.0167	ISI	n/a	n/a	n/a	n/a
173.1883	0.5167	TARGET	3	7	E	Hit
173.7049	1.0167	ISI	n/a	n/a	n/a	n/a
173.8778	n/a	RESPONSE	n/a	n/a	n/a	n/a
174.7216	0.5166	DISTRACTOR	3	8	I	Correct Rejection
175.2382	1.0167	ISI	n/a	n/a	n/a	n/a
176.2549	0.5167	DISTRACTOR	3	9	F	Correct Rejection
176.7716	1.0167	ISI	n/a	n/a	n/a	n/a
177.7883	0.5167	TARGET	3	10	E	Hit
178.305	1.0167	ISI	n/a	n/a	n/a	n/a
178.3478	n/a	RESPONSE	n/a	n/a	n/a	n/a
179.3217	0.5167	DISTRACTOR	3	11	G	Correct Rejection
179.8383	1.0167	ISI	n/a	n/a	n/a	n/a
180.855	0.5166	DISTRACTOR	3	12	E	False Alarm
181.3716	1.0167	ISI	n/a	n/a	n/a	n/a
181.4766	n/a	RESPONSE	n/a	n/a	n/a	n/a
182.3883	0.5167	TARGET	3	13	E	Hit
182.905	1.0167	ISI	n/a	n/a	n/a	n/a
183.0571	n/a	RESPONSE	n/a	n/a	n/a	n/a
183.9217	0.5167	DISTRACTOR	3	14	B	Correct Rejection
184.4384	1.0167	ISI	n/a	n/a	n/a	n/a
185.455	0.5166	DISTRACTOR	3	15	G	Correct Rejection
185.9717	1.0167	ISI	n/a	n/a	n/a	n/a
186.9883	0.5167	DISTRACTOR	3	16	G	False Alarm
187.3993	n/a	RESPONSE	n/a	n/a	n/a	n/a
187.505	1.0167	ISI	n/a	n/a	n/a	n/a
188.5217	0.5167	DISTRACTOR	3	17	E	Correct Rejection
189.0384	1.0167	ISI	n/a	n/a	n/a	n/a
190.0551	0.5167	DISTRACTOR	3	18	B	Correct Rejection
190.5717	1.0166	ISI	n/a	n/a	n/a	n/a
191.5884	0.5167	DISTRACTOR	3	19	C	Correct Rejection
191.6298	n/a	RESPONSE	n/a	n/a	n/a	n/a
192.105	1.0167	ISI	n/a	n/a	n/a	n/a
193.1218	0.5167	DISTRACTOR	3	20	D	Correct Rejection
193.6384	1.0167	ISI	n/a	n/a	n/a	n/a
194.6551	0.5167	DISTRACTOR	3	21	D	Correct Rejection
195.1718	1.0	ISI	n/a	n/a	n/a	n/a
196.1718	0.5167	DISTRACTOR	3	22	E	Correct Rejection
196.6884	1.0167	ISI	n/a	n/a	n/a	n/a
197.7051	0.5167	DISTRACTOR	3	23	I	Correct Rejection
198.2218	1.0167	ISI	n/a	n/a	n/a	n/a
199.2385	0.5167	DISTRACTOR	3	24	C	Correct Rejection
199.7551	1.0167	ISI	n/a	n/a	n/a	n/a
200.7718	0.5167	DISTRACTOR	3	25	C	Correct Rejection
201.2885	1.0166	ISI	n/a	n/a	n/a	n/a
202.3051	0.5167	TARGET	3	26	I	Miss
202.8218	1.0167	ISI	n/a	n/a	n/a	n/a
203.8385	0.5167	TARGET	3	27	C	Hit
204.2412	n/a	RESPONSE	n/a	n/a	n/a	n/a
204.3552	1.0167	ISI	n/a	n/a	n/a	n/a
205.3718	0.5167	DISTRACTOR	3	28	A	Correct Rejection
205.8885	1.0167	ISI	n/a	n/a	n/a	n/a
206.9052	0.5166	DISTRACTOR	3	29	F	Correct Rejection
207.4218	1.0167	ISI	n/a	n/a	n/a	n/a
208.4385	0.5166	TARGET	3	30	C	Miss
208.9552	1.0167	ISI	n/a	n/a	n/a	n/a
209.9719	0.5167	DISTRACTOR	3	31	H	Correct Rejection
210.4886	1.0167	ISI	n/a	n/a	n/a	n/a
211.5052	0.5167	DISTRACTOR	3	32	C	False Alarm
212.0219	1.0167	ISI	n/a	n/a	n/a	n/a
212.1114	n/a	RESPONSE	n/a	n/a	n/a	n/a
213.0386	0.5166	TARGET	3	33	C	Miss
213.5552	1.0167	ISI	n/a	n/a	n/a	n/a
214.5719	0.5167	DISTRACTOR	3	34	E	Correct Rejection
215.0886	1.0166	ISI	n/a	n/a	n/a	n/a
216.1052	0.5167	DISTRACTOR	3	35	F	Correct Rejection
216.6219	1.0167	ISI	n/a	n/a	n/a	n/a
217.6386	0.5167	DISTRACTOR	3	36	H	False Alarm
218.1553	1.0167	ISI	n/a	n/a	n/a	n/a
218.2734	n/a	RESPONSE	n/a	n/a	n/a	n/a
219.1719	0.5167	TARGET	3	37	E	Miss
219.6886	1.0167	ISI	n/a	n/a	n/a	n/a
220.7053	0.5167	TARGET	3	38	F	Miss
221.222	1.0167	ISI	n/a	n/a	n/a	n/a
222.2386	0.5167	TARGET	3	39	H	Miss
222.7553	1.0167	ISI	n/a	n/a	n/a	n/a
223.772	0.5167	DISTRACTOR	3	40	G	Correct Rejection
224.2887	1.0167	ISI	n/a	n/a	n/a	n/a
225.3053	0.5167	DISTRACTOR	3	41	D	Correct Rejection
225.822	1.0167	ISI	n/a	n/a	n/a	n/a
226.8387	0.5167	DISTRACTOR	3	42	C	Correct Rejection
227.3553	1.0167	ISI	n/a	n/a	n/a	n/a
228.372	0.5166	DISTRACTOR	3	43	F	Correct Rejection
228.8887	1.0167	ISI	n/a	n/a	n/a	n/a
229.9054	0.5166	DISTRACTOR	3	44	J	Correct Rejection
230.422	1.0167	ISI	n/a	n/a	n/a	n/a
231.4387	0.5167	DISTRACTOR	3	45	H	Correct Rejection
231.9554	1.0166	ISI	n/a	n/a	n/a	n/a
232.972	0.5167	DISTRACTOR	3	46	G	Correct Rejection
233.4887	1.0167	ISI	n/a	n/a	n/a	n/a
234.5054	0.5167	DISTRACTOR	3	47	A	Correct Rejection
235.0221	1.0167	ISI	n/a	n/a	n/a	n/a
236.0387	0.5167	DISTRACTOR	3	48	I	Correct Rejection
236.5554	1.0167	ISI	n/a	n/a	n/a	n/a
237.5721	0.5167	DISTRACTOR	3	49	H	Correct Rejection
238.0888	1.0166	ISI	n/a	n/a	n/a	n/a
239.1054	0.5167	DISTRACTOR	3	50	F	Correct Rejection
239.6221	1.0334	ISI	n/a	n/a	n/a	n/a
242.0598	n/a	RESPONSE	n/a	n/a	n/a	n/a
