onset	duration	trial_type	melody_number	melody_part	key	sound	action
0.0	14.085	CUE_START	n/a	n/a	n/a	n/a	n/a
14.085	7.759	FIXCROSS	n/a	n/a	n/a	n/a	n/a
21.845	6.316	CUE_LISTEN	M1	1	n/a	n/a	n/a
28.16	7.758	FIXCROSS	n/a	n/a	n/a	n/a	n/a
35.919	6.325	CUE_PLAYBACK_RIGHT_HAND	M1	1	n/a	n/a	n/a
38.325	n/a	RESPONSE	M1	1	19	G4	press
39.535	n/a	RESPONSE	M1	1	19	G4	release
39.649	n/a	RESPONSE	M1	1	19	G4	press
40.191	n/a	RESPONSE	M1	1	19	G4	release
40.545	n/a	RESPONSE	M1	1	16	E4	press
40.876	n/a	RESPONSE	M1	1	16	E4	release
41.112	n/a	RESPONSE	M1	1	16	E4	press
41.472	n/a	RESPONSE	M1	1	16	E4	release
41.69	n/a	RESPONSE	M1	1	17	F4	press
41.992	n/a	RESPONSE	M1	1	17	F4	release
42.244	7.758	FIXCROSS	n/a	n/a	n/a	n/a	n/a
42.264	n/a	RESPONSE	M1	1	14	D4	press
42.535	n/a	RESPONSE	M1	1	14	D4	release
42.718	n/a	RESPONSE	M1	1	14	D4	press
42.969	n/a	RESPONSE	M1	1	14	D4	release
43.284	n/a	RESPONSE	M1	1	12	C4	press
43.56	n/a	RESPONSE	M1	1	16	E4	press
43.646	n/a	RESPONSE	M1	1	12	C4	release
43.839	n/a	RESPONSE	M1	1	19	G4	press
43.936	n/a	RESPONSE	M1	1	16	E4	release
44.115	n/a	RESPONSE	M1	1	19	G4	release
50.002	6.317	CUE_LISTEN	M1	2	n/a	n/a	n/a
56.319	7.758	FIXCROSS	n/a	n/a	n/a	n/a	n/a
64.077	6.317	CUE_PLAYBACK_RIGHT_HAND	M1	2	n/a	n/a	n/a
64.86	n/a	RESPONSE	M1	2	19	G4	press
65.274	n/a	RESPONSE	M1	2	19	G4	release
65.454	n/a	RESPONSE	M1	2	19	G4	press
65.843	n/a	RESPONSE	M1	2	19	G4	release
65.969	n/a	RESPONSE	M1	2	16	E4	press
66.326	n/a	RESPONSE	M1	2	16	E4	release
66.506	n/a	RESPONSE	M1	2	16	E4	press
66.851	n/a	RESPONSE	M1	2	16	E4	release
66.964	n/a	RESPONSE	M1	2	17	F4	press
67.335	n/a	RESPONSE	M1	2	17	F4	release
67.529	n/a	RESPONSE	M1	2	14	D4	press
67.846	n/a	RESPONSE	M1	2	14	D4	release
68.07	n/a	RESPONSE	M1	2	14	D4	press
68.405	n/a	RESPONSE	M1	2	14	D4	release
68.735	n/a	RESPONSE	M1	2	12	C4	press
69.073	n/a	RESPONSE	M1	2	16	E4	press
69.089	n/a	RESPONSE	M1	2	12	C4	release
69.455	n/a	RESPONSE	M1	2	16	E4	release
69.485	n/a	RESPONSE	M1	2	12	C4	press
70.003	n/a	RESPONSE	M1	2	12	C4	release
70.394	7.758	FIXCROSS	n/a	n/a	n/a	n/a	n/a
78.152	6.325	CUE_LISTEN	M1	1	n/a	n/a	n/a
84.477	7.758	FIXCROSS	n/a	n/a	n/a	n/a	n/a
92.236	6.317	CUE_PLAYBACK_BOTH_HANDS	M1	1	n/a	n/a	n/a
93.229	n/a	RESPONSE	M1	1	19	G4	press
93.244	n/a	RESPONSE	M1	1	07	G3	press
93.575	n/a	RESPONSE	M1	1	19	G4	release
93.59	n/a	RESPONSE	M1	1	07	G3	release
93.756	n/a	RESPONSE	M1	1	04	E3	press
93.799	n/a	RESPONSE	M1	1	16	E4	press
94.144	n/a	RESPONSE	M1	1	16	E4	release
94.341	n/a	RESPONSE	M1	1	16	E4	press
94.648	n/a	RESPONSE	M1	1	16	E4	release
94.714	n/a	RESPONSE	M1	1	04	E3	release
94.868	n/a	RESPONSE	M1	1	17	F4	press
94.87	n/a	RESPONSE	M1	1	05	F3	press
95.214	n/a	RESPONSE	M1	1	05	F3	release
95.229	n/a	RESPONSE	M1	1	17	F4	release
95.436	n/a	RESPONSE	M1	1	02	D3	press
95.465	n/a	RESPONSE	M1	1	14	D4	press
95.716	n/a	RESPONSE	M1	1	02	D3	release
95.756	n/a	RESPONSE	M1	1	14	D4	release
95.991	n/a	RESPONSE	M1	1	02	D3	press
96.02	n/a	RESPONSE	M1	1	14	D4	press
96.256	n/a	RESPONSE	M1	1	14	D4	release
96.271	n/a	RESPONSE	M1	1	02	D3	release
96.534	n/a	RESPONSE	M1	1	00	C3	press
96.563	n/a	RESPONSE	M1	1	12	C4	press
96.855	n/a	RESPONSE	M1	1	00	C3	release
96.881	n/a	RESPONSE	M1	1	04	E3	press
96.939	n/a	RESPONSE	M1	1	12	C4	release
96.953	n/a	RESPONSE	M1	1	16	E4	press
97.201	n/a	RESPONSE	M1	1	16	E4	release
97.299	n/a	RESPONSE	M1	1	07	G3	press
97.314	n/a	RESPONSE	M1	1	19	G4	press
97.316	n/a	RESPONSE	M1	1	04	E3	release
97.676	n/a	RESPONSE	M1	1	19	G4	release
97.829	n/a	RESPONSE	M1	1	07	G3	release
98.552	7.758	FIXCROSS	n/a	n/a	n/a	n/a	n/a
106.311	6.317	CUE_LISTEN	M1	2	n/a	n/a	n/a
112.627	7.758	FIXCROSS	n/a	n/a	n/a	n/a	n/a
120.386	6.325	CUE_PLAYBACK_BOTH_HANDS	M1	2	n/a	n/a	n/a
121.233	n/a	RESPONSE	M1	2	19	G4	press
121.251	n/a	RESPONSE	M1	2	07	G3	press
121.61	n/a	RESPONSE	M1	2	07	G3	release
121.619	n/a	RESPONSE	M1	2	19	G4	release
121.785	n/a	RESPONSE	M1	2	04	E3	press
121.818	n/a	RESPONSE	M1	2	16	E4	press
122.143	n/a	RESPONSE	M1	2	16	E4	release
122.324	n/a	RESPONSE	M1	2	16	E4	press
122.64	n/a	RESPONSE	M1	2	16	E4	release
122.67	n/a	RESPONSE	M1	2	04	E3	release
122.849	n/a	RESPONSE	M1	2	17	F4	press
122.864	n/a	RESPONSE	M1	2	05	F3	press
123.168	n/a	RESPONSE	M1	2	05	F3	release
123.183	n/a	RESPONSE	M1	2	17	F4	release
123.39	n/a	RESPONSE	M1	2	02	D3	press
123.419	n/a	RESPONSE	M1	2	14	D4	press
123.656	n/a	RESPONSE	M1	2	14	D4	release
123.765	n/a	RESPONSE	M1	2	02	D3	release
123.904	n/a	RESPONSE	M1	2	02	D3	press
123.946	n/a	RESPONSE	M1	2	14	D4	press
124.185	n/a	RESPONSE	M1	2	02	D3	release
124.214	n/a	RESPONSE	M1	2	14	D4	release
124.395	n/a	RESPONSE	M1	2	00	C3	press
124.423	n/a	RESPONSE	M1	2	12	C4	press
124.671	n/a	RESPONSE	M1	2	00	C3	release
124.769	n/a	RESPONSE	M1	2	12	C4	release
124.786	n/a	RESPONSE	M1	2	04	E3	press
124.799	n/a	RESPONSE	M1	2	16	E4	press
125.061	n/a	RESPONSE	M1	2	16	E4	release
125.09	n/a	RESPONSE	M1	2	00	C3	press
125.108	n/a	RESPONSE	M1	2	04	E3	release
125.148	n/a	RESPONSE	M1	2	12	C4	press
125.536	n/a	RESPONSE	M1	2	12	C4	release
125.865	n/a	RESPONSE	M1	2	00	C3	release
126.711	7.758	FIXCROSS	n/a	n/a	n/a	n/a	n/a
134.469	6.317	CUE_LISTEN	M1	1	n/a	n/a	n/a
140.786	7.767	FIXCROSS	n/a	n/a	n/a	n/a	n/a
148.552	6.308	CUE_PLAYBACK_RIGHT_HAND	M1	1	n/a	n/a	n/a
149.593	n/a	RESPONSE	M1	1	19	G4	press
150.044	n/a	RESPONSE	M1	1	19	G4	release
150.166	n/a	RESPONSE	M1	1	16	E4	press
150.43	n/a	RESPONSE	M1	1	16	E4	release
150.769	n/a	RESPONSE	M1	1	16	E4	press
151.056	n/a	RESPONSE	M1	1	16	E4	release
151.41	n/a	RESPONSE	M1	1	16	E4	press
151.77	n/a	RESPONSE	M1	1	16	E4	release
152.892	n/a	RESPONSE	M1	1	19	G4	press
153.239	n/a	RESPONSE	M1	1	19	G4	release
153.416	n/a	RESPONSE	M1	1	16	E4	press
153.734	n/a	RESPONSE	M1	1	16	E4	release
153.942	n/a	RESPONSE	M1	1	16	E4	press
154.263	n/a	RESPONSE	M1	1	16	E4	release
154.443	n/a	RESPONSE	M1	1	17	F4	press
154.774	n/a	RESPONSE	M1	1	17	F4	release
154.861	7.758	FIXCROSS	n/a	n/a	n/a	n/a	n/a
155.009	n/a	RESPONSE	M1	1	14	D4	press
155.285	n/a	RESPONSE	M1	1	14	D4	release
155.589	n/a	RESPONSE	M1	1	14	D4	press
155.865	n/a	RESPONSE	M1	1	14	D4	release
162.619	6.325	CUE_LISTEN	M1	2	n/a	n/a	n/a
168.944	7.758	FIXCROSS	n/a	n/a	n/a	n/a	n/a
176.703	6.317	CUE_PLAYBACK_RIGHT_HAND	M1	2	n/a	n/a	n/a
177.584	n/a	RESPONSE	M1	2	19	G4	press
178.024	n/a	RESPONSE	M1	2	19	G4	release
178.135	n/a	RESPONSE	M1	2	16	E4	press
178.499	n/a	RESPONSE	M1	2	16	E4	release
178.638	n/a	RESPONSE	M1	2	16	E4	press
178.994	n/a	RESPONSE	M1	2	16	E4	release
179.163	n/a	RESPONSE	M1	2	17	F4	press
179.54	n/a	RESPONSE	M1	2	17	F4	release
179.745	n/a	RESPONSE	M1	2	14	D4	press
180.104	n/a	RESPONSE	M1	2	14	D4	release
180.332	n/a	RESPONSE	M1	2	14	D4	press
180.768	n/a	RESPONSE	M1	2	14	D4	release
180.942	n/a	RESPONSE	M1	2	12	C4	press
181.37	n/a	RESPONSE	M1	2	16	E4	press
181.382	n/a	RESPONSE	M1	2	12	C4	release
181.728	n/a	RESPONSE	M1	2	12	C4	press
181.794	n/a	RESPONSE	M1	2	16	E4	release
182.232	n/a	RESPONSE	M1	2	12	C4	release
183.019	7.758	FIXCROSS	n/a	n/a	n/a	n/a	n/a
190.778	6.325	CUE_LISTEN	M1	1	n/a	n/a	n/a
197.103	7.758	FIXCROSS	n/a	n/a	n/a	n/a	n/a
204.861	6.317	CUE_PLAYBACK_BOTH_HANDS	M1	1	n/a	n/a	n/a
205.81	n/a	RESPONSE	M1	1	07	G3	press
205.824	n/a	RESPONSE	M1	1	19	G4	press
206.156	n/a	RESPONSE	M1	1	07	G3	release
206.159	n/a	RESPONSE	M1	1	19	G4	release
206.366	n/a	RESPONSE	M1	1	04	E3	press
206.396	n/a	RESPONSE	M1	1	16	E4	press
206.698	n/a	RESPONSE	M1	1	16	E4	release
206.878	n/a	RESPONSE	M1	1	16	E4	press
207.155	n/a	RESPONSE	M1	1	16	E4	release
207.184	n/a	RESPONSE	M1	1	04	E3	release
207.363	n/a	RESPONSE	M1	1	17	F4	press
207.378	n/a	RESPONSE	M1	1	05	F3	press
207.654	n/a	RESPONSE	M1	1	05	F3	release
207.683	n/a	RESPONSE	M1	1	17	F4	release
207.876	n/a	RESPONSE	M1	1	02	D3	press
207.919	n/a	RESPONSE	M1	1	14	D4	press
208.126	n/a	RESPONSE	M1	1	02	D3	release
208.129	n/a	RESPONSE	M1	1	14	D4	release
208.422	n/a	RESPONSE	M1	1	02	D3	press
208.424	n/a	RESPONSE	M1	1	14	D4	press
208.658	n/a	RESPONSE	M1	1	02	D3	release
208.714	n/a	RESPONSE	M1	1	14	D4	release
208.894	n/a	RESPONSE	M1	1	00	C3	press
208.896	n/a	RESPONSE	M1	1	12	C4	press
209.155	n/a	RESPONSE	M1	1	00	C3	release
209.196	n/a	RESPONSE	M1	1	12	C4	release
209.226	n/a	RESPONSE	M1	1	04	E3	press
209.243	n/a	RESPONSE	M1	1	16	E4	press
209.552	n/a	RESPONSE	M1	1	04	E3	release
209.56	n/a	RESPONSE	M1	1	16	E4	release
209.614	n/a	RESPONSE	M1	1	19	G4	press
209.633	n/a	RESPONSE	M1	1	05	F3	press
209.714	n/a	RESPONSE	M1	1	07	G3	press
209.925	n/a	RESPONSE	M1	1	07	G3	release
209.965	n/a	RESPONSE	M1	1	19	G4	release
210.01	n/a	RESPONSE	M1	1	05	F3	release
211.178	7.758	FIXCROSS	n/a	n/a	n/a	n/a	n/a
218.936	6.317	CUE_LISTEN	M1	2	n/a	n/a	n/a
225.253	7.758	FIXCROSS	n/a	n/a	n/a	n/a	n/a
233.011	6.325	CUE_PLAYBACK_BOTH_HANDS	M1	2	n/a	n/a	n/a
233.785	n/a	RESPONSE	M1	2	07	G3	press
233.788	n/a	RESPONSE	M1	2	19	G4	press
234.118	n/a	RESPONSE	M1	2	07	G3	release
234.163	n/a	RESPONSE	M1	2	19	G4	release
234.289	n/a	RESPONSE	M1	2	04	E3	press
234.345	n/a	RESPONSE	M1	2	16	E4	press
234.649	n/a	RESPONSE	M1	2	16	E4	release
234.829	n/a	RESPONSE	M1	2	16	E4	press
235.119	n/a	RESPONSE	M1	2	16	E4	release
235.203	n/a	RESPONSE	M1	2	04	E3	release
235.328	n/a	RESPONSE	M1	2	17	F4	press
235.343	n/a	RESPONSE	M1	2	05	F3	press
235.605	n/a	RESPONSE	M1	2	05	F3	release
235.635	n/a	RESPONSE	M1	2	17	F4	release
235.815	n/a	RESPONSE	M1	2	02	D3	press
235.858	n/a	RESPONSE	M1	2	14	D4	press
236.093	n/a	RESPONSE	M1	2	14	D4	release
236.37	n/a	RESPONSE	M1	2	14	D4	press
236.605	n/a	RESPONSE	M1	2	14	D4	release
236.662	n/a	RESPONSE	M1	2	02	D3	release
236.842	n/a	RESPONSE	M1	2	00	C3	press
236.898	n/a	RESPONSE	M1	2	12	C4	press
237.16	n/a	RESPONSE	M1	2	00	C3	release
237.258	n/a	RESPONSE	M1	2	12	C4	release
237.287	n/a	RESPONSE	M1	2	16	E4	press
237.289	n/a	RESPONSE	M1	2	04	E3	press
237.605	n/a	RESPONSE	M1	2	16	E4	release
237.608	n/a	RESPONSE	M1	2	00	C3	press
237.635	n/a	RESPONSE	M1	2	12	C4	press
237.65	n/a	RESPONSE	M1	2	04	E3	release
238.009	n/a	RESPONSE	M1	2	12	C4	release
238.038	n/a	RESPONSE	M1	2	00	C3	release
239.336	7.758	FIXCROSS	n/a	n/a	n/a	n/a	n/a
247.094	6.317	CUE_LISTEN	M1	1	n/a	n/a	n/a
253.411	7.758	FIXCROSS	n/a	n/a	n/a	n/a	n/a
261.17	6.317	CUE_PLAYBACK_RIGHT_HAND	M1	1	n/a	n/a	n/a
261.93	n/a	RESPONSE	M1	1	19	G4	press
262.328	n/a	RESPONSE	M1	1	19	G4	release
262.429	n/a	RESPONSE	M1	1	16	E4	press
262.832	n/a	RESPONSE	M1	1	16	E4	release
262.984	n/a	RESPONSE	M1	1	16	E4	press
263.302	n/a	RESPONSE	M1	1	16	E4	release
263.495	n/a	RESPONSE	M1	1	17	F4	press
263.84	n/a	RESPONSE	M1	1	17	F4	release
264.063	n/a	RESPONSE	M1	1	14	D4	press
264.385	n/a	RESPONSE	M1	1	14	D4	release
264.59	n/a	RESPONSE	M1	1	14	D4	press
265.032	n/a	RESPONSE	M1	1	14	D4	release
265.143	n/a	RESPONSE	M1	1	12	C4	press
265.447	n/a	RESPONSE	M1	1	16	E4	press
265.53	n/a	RESPONSE	M1	1	12	C4	release
265.779	n/a	RESPONSE	M1	1	19	G4	press
265.849	n/a	RESPONSE	M1	1	16	E4	release
266.142	n/a	RESPONSE	M1	1	19	G4	release
267.486	7.759	FIXCROSS	n/a	n/a	n/a	n/a	n/a
275.245	6.325	CUE_LISTEN	M1	2	n/a	n/a	n/a
281.57	7.758	FIXCROSS	n/a	n/a	n/a	n/a	n/a
289.328	6.317	CUE_PLAYBACK_RIGHT_HAND	M1	2	n/a	n/a	n/a
290.013	n/a	RESPONSE	M1	2	19	G4	press
290.377	n/a	RESPONSE	M1	2	19	G4	release
290.529	n/a	RESPONSE	M1	2	16	E4	press
290.83	n/a	RESPONSE	M1	2	16	E4	release
291.033	n/a	RESPONSE	M1	2	16	E4	press
291.34	n/a	RESPONSE	M1	2	16	E4	release
291.568	n/a	RESPONSE	M1	2	17	F4	press
291.883	n/a	RESPONSE	M1	2	17	F4	release
292.095	n/a	RESPONSE	M1	2	14	D4	press
292.337	n/a	RESPONSE	M1	2	14	D4	release
292.626	n/a	RESPONSE	M1	2	14	D4	press
292.944	n/a	RESPONSE	M1	2	14	D4	release
293.274	n/a	RESPONSE	M1	2	12	C4	press
293.578	n/a	RESPONSE	M1	2	16	E4	press
293.703	n/a	RESPONSE	M1	2	12	C4	release
293.897	n/a	RESPONSE	M1	2	12	C4	press
293.967	n/a	RESPONSE	M1	2	16	E4	release
294.455	n/a	RESPONSE	M1	2	12	C4	release
295.645	7.758	FIXCROSS	n/a	n/a	n/a	n/a	n/a
303.403	6.317	CUE_LISTEN	M1	1	n/a	n/a	n/a
309.72	7.759	FIXCROSS	n/a	n/a	n/a	n/a	n/a
317.478	6.325	CUE_PLAYBACK_BOTH_HANDS	M1	1	n/a	n/a	n/a
318.197	n/a	RESPONSE	M1	1	07	G3	press
318.212	n/a	RESPONSE	M1	1	19	G4	press
318.573	n/a	RESPONSE	M1	1	07	G3	release
318.604	n/a	RESPONSE	M1	1	19	G4	release
318.728	n/a	RESPONSE	M1	1	04	E3	press
318.784	n/a	RESPONSE	M1	1	16	E4	press
319.123	n/a	RESPONSE	M1	1	16	E4	release
319.33	n/a	RESPONSE	M1	1	16	E4	press
319.654	n/a	RESPONSE	M1	1	16	E4	release
319.79	n/a	RESPONSE	M1	1	04	E3	release
319.866	n/a	RESPONSE	M1	1	17	F4	press
319.877	n/a	RESPONSE	M1	1	05	F3	press
320.192	n/a	RESPONSE	M1	1	05	F3	release
320.223	n/a	RESPONSE	M1	1	17	F4	release
320.389	n/a	RESPONSE	M1	1	02	D3	press
320.452	n/a	RESPONSE	M1	1	14	D4	press
320.699	n/a	RESPONSE	M1	1	14	D4	release
320.723	n/a	RESPONSE	M1	1	02	D3	release
320.964	n/a	RESPONSE	M1	1	02	D3	press
320.982	n/a	RESPONSE	M1	1	14	D4	press
321.224	n/a	RESPONSE	M1	1	02	D3	release
321.26	n/a	RESPONSE	M1	1	14	D4	release
321.436	n/a	RESPONSE	M1	1	00	C3	press
321.496	n/a	RESPONSE	M1	1	12	C4	press
321.79	n/a	RESPONSE	M1	1	04	E3	press
321.837	n/a	RESPONSE	M1	1	16	E4	press
321.848	n/a	RESPONSE	M1	1	00	C3	release
321.907	n/a	RESPONSE	M1	1	12	C4	release
322.133	n/a	RESPONSE	M1	1	16	E4	release
322.153	n/a	RESPONSE	M1	1	07	G3	press
322.189	n/a	RESPONSE	M1	1	19	G4	press
322.258	n/a	RESPONSE	M1	1	04	E3	release
322.529	n/a	RESPONSE	M1	1	19	G4	release
323.063	n/a	RESPONSE	M1	1	07	G3	release
323.803	7.758	FIXCROSS	n/a	n/a	n/a	n/a	n/a
331.562	6.317	CUE_LISTEN	M1	2	n/a	n/a	n/a
337.878	7.758	FIXCROSS	n/a	n/a	n/a	n/a	n/a
345.637	6.317	CUE_PLAYBACK_BOTH_HANDS	M1	2	n/a	n/a	n/a
346.319	n/a	RESPONSE	M1	2	07	G3	press
346.322	n/a	RESPONSE	M1	2	19	G4	press
346.664	n/a	RESPONSE	M1	2	07	G3	release
346.734	n/a	RESPONSE	M1	2	19	G4	release
346.79	n/a	RESPONSE	M1	2	04	E3	press
346.86	n/a	RESPONSE	M1	2	16	E4	press
347.206	n/a	RESPONSE	M1	2	16	E4	release
347.372	n/a	RESPONSE	M1	2	16	E4	press
347.703	n/a	RESPONSE	M1	2	16	E4	release
347.746	n/a	RESPONSE	M1	2	04	E3	release
347.898	n/a	RESPONSE	M1	2	17	F4	press
347.902	n/a	RESPONSE	M1	2	05	F3	press
348.219	n/a	RESPONSE	M1	2	05	F3	release
348.247	n/a	RESPONSE	M1	2	17	F4	release
348.402	n/a	RESPONSE	M1	2	02	D3	press
348.43	n/a	RESPONSE	M1	2	14	D4	press
348.666	n/a	RESPONSE	M1	2	02	D3	release
348.708	n/a	RESPONSE	M1	2	14	D4	release
348.957	n/a	RESPONSE	M1	2	14	D4	press
348.959	n/a	RESPONSE	M1	2	02	D3	press
349.233	n/a	RESPONSE	M1	2	02	D3	release
349.257	n/a	RESPONSE	M1	2	14	D4	release
349.483	n/a	RESPONSE	M1	2	00	C3	press
349.508	n/a	RESPONSE	M1	2	12	C4	press
349.778	n/a	RESPONSE	M1	2	00	C3	release
349.832	n/a	RESPONSE	M1	2	12	C4	release
349.84	n/a	RESPONSE	M1	2	04	E3	press
349.894	n/a	RESPONSE	M1	2	16	E4	press
350.12	n/a	RESPONSE	M1	2	16	E4	release
350.123	n/a	RESPONSE	M1	2	00	C3	press
350.138	n/a	RESPONSE	M1	2	12	C4	press
350.17	n/a	RESPONSE	M1	2	04	E3	release
350.569	n/a	RESPONSE	M1	2	12	C4	release
350.668	n/a	RESPONSE	M1	2	00	C3	release
351.953	7.758	FIXCROSS	n/a	n/a	n/a	n/a	n/a
359.712	6.325	CUE_LISTEN	M1	1	n/a	n/a	n/a
366.037	7.758	FIXCROSS	n/a	n/a	n/a	n/a	n/a
373.795	6.317	CUE_PLAYBACK_RIGHT_HAND	M1	1	n/a	n/a	n/a
374.831	n/a	RESPONSE	M1	1	19	G4	press
375.258	n/a	RESPONSE	M1	1	19	G4	release
375.356	n/a	RESPONSE	M1	1	16	E4	press
375.728	n/a	RESPONSE	M1	1	16	E4	release
375.881	n/a	RESPONSE	M1	1	16	E4	press
376.254	n/a	RESPONSE	M1	1	16	E4	release
376.409	n/a	RESPONSE	M1	1	17	F4	press
376.756	n/a	RESPONSE	M1	1	17	F4	release
376.962	n/a	RESPONSE	M1	1	14	D4	press
377.211	n/a	RESPONSE	M1	1	14	D4	release
377.473	n/a	RESPONSE	M1	1	14	D4	press
377.818	n/a	RESPONSE	M1	1	14	D4	release
378.094	n/a	RESPONSE	M1	1	12	C4	press
378.373	n/a	RESPONSE	M1	1	16	E4	press
378.623	n/a	RESPONSE	M1	1	12	C4	release
378.734	n/a	RESPONSE	M1	1	19	G4	press
378.779	n/a	RESPONSE	M1	1	16	E4	release
379.213	n/a	RESPONSE	M1	1	19	G4	release
380.112	7.758	FIXCROSS	n/a	n/a	n/a	n/a	n/a
387.87	6.317	CUE_LISTEN	M1	2	n/a	n/a	n/a
394.187	7.758	FIXCROSS	n/a	n/a	n/a	n/a	n/a
401.945	6.325	CUE_PLAYBACK_RIGHT_HAND	M1	2	n/a	n/a	n/a
402.801	n/a	RESPONSE	M1	2	19	G4	press
403.213	n/a	RESPONSE	M1	2	19	G4	release
403.297	n/a	RESPONSE	M1	2	16	E4	press
403.727	n/a	RESPONSE	M1	2	16	E4	release
403.849	n/a	RESPONSE	M1	2	16	E4	press
404.169	n/a	RESPONSE	M1	2	16	E4	release
404.378	n/a	RESPONSE	M1	2	17	F4	press
404.737	n/a	RESPONSE	M1	2	17	F4	release
404.986	n/a	RESPONSE	M1	2	14	D4	press
405.276	n/a	RESPONSE	M1	2	14	D4	release
405.538	n/a	RESPONSE	M1	2	14	D4	press
405.817	n/a	RESPONSE	M1	2	14	D4	release
406.216	n/a	RESPONSE	M1	2	12	C4	press
406.547	n/a	RESPONSE	M1	2	16	E4	press
406.644	n/a	RESPONSE	M1	2	12	C4	release
406.866	n/a	RESPONSE	M1	2	12	C4	press
406.949	n/a	RESPONSE	M1	2	16	E4	release
407.281	n/a	RESPONSE	M1	2	12	C4	release
408.27	7.758	FIXCROSS	n/a	n/a	n/a	n/a	n/a
416.028	6.317	CUE_LISTEN	M1	1	n/a	n/a	n/a
422.345	7.758	FIXCROSS	n/a	n/a	n/a	n/a	n/a
430.104	6.317	CUE_PLAYBACK_BOTH_HANDS	M1	1	n/a	n/a	n/a
430.872	n/a	RESPONSE	M1	1	07	G3	press
430.893	n/a	RESPONSE	M1	1	19	G4	press
431.277	n/a	RESPONSE	M1	1	07	G3	release
431.287	n/a	RESPONSE	M1	1	19	G4	release
431.399	n/a	RESPONSE	M1	1	04	E3	press
431.477	n/a	RESPONSE	M1	1	16	E4	press
431.912	n/a	RESPONSE	M1	1	16	E4	release
432.033	n/a	RESPONSE	M1	1	16	E4	press
432.397	n/a	RESPONSE	M1	1	16	E4	release
432.472	n/a	RESPONSE	M1	1	04	E3	release
432.601	n/a	RESPONSE	M1	1	17	F4	press
432.613	n/a	RESPONSE	M1	1	05	F3	press
432.999	n/a	RESPONSE	M1	1	17	F4	release
433.042	n/a	RESPONSE	M1	1	05	F3	release
433.196	n/a	RESPONSE	M1	1	02	D3	press
433.224	n/a	RESPONSE	M1	1	14	D4	press
433.486	n/a	RESPONSE	M1	1	02	D3	release
433.514	n/a	RESPONSE	M1	1	14	D4	release
433.777	n/a	RESPONSE	M1	1	02	D3	press
433.792	n/a	RESPONSE	M1	1	14	D4	press
434.082	n/a	RESPONSE	M1	1	02	D3	release
434.097	n/a	RESPONSE	M1	1	14	D4	release
434.253	n/a	RESPONSE	M1	1	00	C3	press
434.282	n/a	RESPONSE	M1	1	12	C4	press
434.599	n/a	RESPONSE	M1	1	04	E3	press
434.656	n/a	RESPONSE	M1	1	16	E4	press
434.658	n/a	RESPONSE	M1	1	00	C3	release
434.686	n/a	RESPONSE	M1	1	12	C4	release
434.976	n/a	RESPONSE	M1	1	07	G3	press
435.004	n/a	RESPONSE	M1	1	19	G4	press
435.007	n/a	RESPONSE	M1	1	16	E4	release
435.103	n/a	RESPONSE	M1	1	04	E3	release
435.448	n/a	RESPONSE	M1	1	19	G4	release
435.601	n/a	RESPONSE	M1	1	07	G3	release
436.42	7.758	FIXCROSS	n/a	n/a	n/a	n/a	n/a
444.179	6.325	CUE_LISTEN	M1	2	n/a	n/a	n/a
450.504	7.758	FIXCROSS	n/a	n/a	n/a	n/a	n/a
458.262	6.317	CUE_PLAYBACK_BOTH_HANDS	M1	2	n/a	n/a	n/a
459.012	n/a	RESPONSE	M1	2	07	G3	press
459.014	n/a	RESPONSE	M1	2	19	G4	press
459.38	n/a	RESPONSE	M1	2	07	G3	release
459.446	n/a	RESPONSE	M1	2	19	G4	release
459.514	n/a	RESPONSE	M1	2	04	E3	press
459.561	n/a	RESPONSE	M1	2	16	E4	press
459.922	n/a	RESPONSE	M1	2	16	E4	release
460.043	n/a	RESPONSE	M1	2	16	E4	press
460.361	n/a	RESPONSE	M1	2	16	E4	release
460.401	n/a	RESPONSE	M1	2	04	E3	release
460.559	n/a	RESPONSE	M1	2	17	F4	press
460.569	n/a	RESPONSE	M1	2	05	F3	press
460.891	n/a	RESPONSE	M1	2	17	F4	release
460.894	n/a	RESPONSE	M1	2	05	F3	release
461.058	n/a	RESPONSE	M1	2	02	D3	press
461.089	n/a	RESPONSE	M1	2	14	D4	press
461.338	n/a	RESPONSE	M1	2	02	D3	release
461.354	n/a	RESPONSE	M1	2	14	D4	release
461.613	n/a	RESPONSE	M1	2	02	D3	press
461.619	n/a	RESPONSE	M1	2	14	D4	press
461.876	n/a	RESPONSE	M1	2	02	D3	release
461.9	n/a	RESPONSE	M1	2	14	D4	release
462.12	n/a	RESPONSE	M1	2	00	C3	press
462.181	n/a	RESPONSE	M1	2	12	C4	press
462.407	n/a	RESPONSE	M1	2	00	C3	release
462.461	n/a	RESPONSE	M1	2	04	E3	press
462.479	n/a	RESPONSE	M1	2	16	E4	press
462.508	n/a	RESPONSE	M1	2	12	C4	release
462.742	n/a	RESPONSE	M1	2	00	C3	press
462.771	n/a	RESPONSE	M1	2	04	E3	release
462.786	n/a	RESPONSE	M1	2	12	C4	press
462.788	n/a	RESPONSE	M1	2	16	E4	release
463.228	n/a	RESPONSE	M1	2	00	C3	release
463.272	n/a	RESPONSE	M1	2	12	C4	release
464.579	7.759	FIXCROSS	n/a	n/a	n/a	n/a	n/a
472.337	6.325	CUE_LISTEN	M1	1	n/a	n/a	n/a
478.662	7.758	FIXCROSS	n/a	n/a	n/a	n/a	n/a
486.42	6.317	CUE_PLAYBACK_RIGHT_HAND	M1	1	n/a	n/a	n/a
487.318	n/a	RESPONSE	M1	1	19	G4	press
487.761	n/a	RESPONSE	M1	1	19	G4	release
487.83	n/a	RESPONSE	M1	1	16	E4	press
488.203	n/a	RESPONSE	M1	1	16	E4	release
488.384	n/a	RESPONSE	M1	1	16	E4	press
488.731	n/a	RESPONSE	M1	1	16	E4	release
488.897	n/a	RESPONSE	M1	1	17	F4	press
489.238	n/a	RESPONSE	M1	1	17	F4	release
489.45	n/a	RESPONSE	M1	1	14	D4	press
489.746	n/a	RESPONSE	M1	1	14	D4	release
489.994	n/a	RESPONSE	M1	1	14	D4	press
490.294	n/a	RESPONSE	M1	1	14	D4	release
490.627	n/a	RESPONSE	M1	1	12	C4	press
490.89	n/a	RESPONSE	M1	1	16	E4	press
491.154	n/a	RESPONSE	M1	1	12	C4	release
491.252	n/a	RESPONSE	M1	1	19	G4	press
491.313	n/a	RESPONSE	M1	1	16	E4	release
491.847	n/a	RESPONSE	M1	1	19	G4	release
492.737	7.758	FIXCROSS	n/a	n/a	n/a	n/a	n/a
500.496	6.317	CUE_LISTEN	M1	2	n/a	n/a	n/a
506.812	7.759	FIXCROSS	n/a	n/a	n/a	n/a	n/a
514.571	6.325	CUE_PLAYBACK_RIGHT_HAND	M1	2	n/a	n/a	n/a
515.382	n/a	RESPONSE	M1	2	19	G4	press
515.754	n/a	RESPONSE	M1	2	19	G4	release
515.907	n/a	RESPONSE	M1	2	16	E4	press
516.253	n/a	RESPONSE	M1	2	16	E4	release
516.433	n/a	RESPONSE	M1	2	16	E4	press
516.781	n/a	RESPONSE	M1	2	16	E4	release
516.958	n/a	RESPONSE	M1	2	17	F4	press
517.345	n/a	RESPONSE	M1	2	17	F4	release
517.497	n/a	RESPONSE	M1	2	14	D4	press
517.828	n/a	RESPONSE	M1	2	14	D4	release
518.049	n/a	RESPONSE	M1	2	14	D4	press
518.327	n/a	RESPONSE	M1	2	14	D4	release
518.633	n/a	RESPONSE	M1	2	12	C4	press
518.973	n/a	RESPONSE	M1	2	16	E4	press
519.034	n/a	RESPONSE	M1	2	12	C4	release
519.263	n/a	RESPONSE	M1	2	12	C4	press
519.402	n/a	RESPONSE	M1	2	16	E4	release
519.746	n/a	RESPONSE	M1	2	12	C4	release
520.895	7.758	FIXCROSS	n/a	n/a	n/a	n/a	n/a
528.654	6.317	CUE_LISTEN	M1	1	n/a	n/a	n/a
534.971	7.758	FIXCROSS	n/a	n/a	n/a	n/a	n/a
542.729	6.317	CUE_PLAYBACK_BOTH_HANDS	M1	1	n/a	n/a	n/a
543.411	n/a	RESPONSE	M1	1	07	G3	press
543.482	n/a	RESPONSE	M1	1	19	G4	press
543.853	n/a	RESPONSE	M1	1	19	G4	release
543.882	n/a	RESPONSE	M1	1	07	G3	release
543.886	n/a	RESPONSE	M1	1	04	E3	press
543.94	n/a	RESPONSE	M1	1	16	E4	press
544.288	n/a	RESPONSE	M1	1	16	E4	release
544.468	n/a	RESPONSE	M1	1	16	E4	press
544.815	n/a	RESPONSE	M1	1	16	E4	release
544.856	n/a	RESPONSE	M1	1	04	E3	release
544.97	n/a	RESPONSE	M1	1	17	F4	press
545.01	n/a	RESPONSE	M1	1	05	F3	press
545.327	n/a	RESPONSE	M1	1	17	F4	release
545.342	n/a	RESPONSE	M1	1	05	F3	release
545.495	n/a	RESPONSE	M1	1	02	D3	press
545.51	n/a	RESPONSE	M1	1	14	D4	press
545.787	n/a	RESPONSE	M1	1	14	D4	release
546.021	n/a	RESPONSE	M1	1	14	D4	press
546.298	n/a	RESPONSE	M1	1	02	D3	release
546.341	n/a	RESPONSE	M1	1	14	D4	release
546.466	n/a	RESPONSE	M1	1	00	C3	press
546.536	n/a	RESPONSE	M1	1	12	C4	press
546.826	n/a	RESPONSE	M1	1	04	E3	press
546.828	n/a	RESPONSE	M1	1	00	C3	release
546.842	n/a	RESPONSE	M1	1	16	E4	press
547.022	n/a	RESPONSE	M1	1	12	C4	release
547.216	n/a	RESPONSE	M1	1	07	G3	press
547.218	n/a	RESPONSE	M1	1	19	G4	press
547.26	n/a	RESPONSE	M1	1	16	E4	release
547.275	n/a	RESPONSE	M1	1	04	E3	release
547.785	n/a	RESPONSE	M1	1	19	G4	release
547.951	n/a	RESPONSE	M1	1	07	G3	release
549.046	7.758	FIXCROSS	n/a	n/a	n/a	n/a	n/a
556.804	6.325	CUE_LISTEN	M1	2	n/a	n/a	n/a
563.129	7.758	FIXCROSS	n/a	n/a	n/a	n/a	n/a
570.887	6.317	CUE_PLAYBACK_BOTH_HANDS	M1	2	n/a	n/a	n/a
571.638	n/a	RESPONSE	M1	2	07	G3	press
571.641	n/a	RESPONSE	M1	2	19	G4	press
572.023	n/a	RESPONSE	M1	2	07	G3	release
572.062	n/a	RESPONSE	M1	2	19	G4	release
572.138	n/a	RESPONSE	M1	2	04	E3	press
572.178	n/a	RESPONSE	M1	2	16	E4	press
572.597	n/a	RESPONSE	M1	2	16	E4	release
572.695	n/a	RESPONSE	M1	2	16	E4	press
573.067	n/a	RESPONSE	M1	2	16	E4	release
573.123	n/a	RESPONSE	M1	2	04	E3	release
573.248	n/a	RESPONSE	M1	2	17	F4	press
573.263	n/a	RESPONSE	M1	2	05	F3	press
573.595	n/a	RESPONSE	M1	2	05	F3	release
573.61	n/a	RESPONSE	M1	2	17	F4	release
573.762	n/a	RESPONSE	M1	2	02	D3	press
573.805	n/a	RESPONSE	M1	2	14	D4	press
574.067	n/a	RESPONSE	M1	2	14	D4	release
574.151	n/a	RESPONSE	M1	2	02	D3	release
574.335	n/a	RESPONSE	M1	2	02	D3	press
574.363	n/a	RESPONSE	M1	2	14	D4	press
574.598	n/a	RESPONSE	M1	2	02	D3	release
574.641	n/a	RESPONSE	M1	2	14	D4	release
574.849	n/a	RESPONSE	M1	2	00	C3	press
574.892	n/a	RESPONSE	M1	2	12	C4	press
575.112	n/a	RESPONSE	M1	2	00	C3	release
575.237	n/a	RESPONSE	M1	2	16	E4	press
575.24	n/a	RESPONSE	M1	2	04	E3	press
575.281	n/a	RESPONSE	M1	2	12	C4	release
575.53	n/a	RESPONSE	M1	2	04	E3	release
575.532	n/a	RESPONSE	M1	2	16	E4	release
575.56	n/a	RESPONSE	M1	2	00	C3	press
575.575	n/a	RESPONSE	M1	2	12	C4	press
576.032	n/a	RESPONSE	M1	2	12	C4	release
576.101	n/a	RESPONSE	M1	2	00	C3	release
577.204	7.758	FIXCROSS	n/a	n/a	n/a	n/a	n/a
584.962	6.317	CUE_LISTEN	M1	1	n/a	n/a	n/a
591.279	7.758	FIXCROSS	n/a	n/a	n/a	n/a	n/a
599.038	6.325	CUE_PLAYBACK_RIGHT_HAND	M1	1	n/a	n/a	n/a
599.927	n/a	RESPONSE	M1	1	19	G4	press
600.371	n/a	RESPONSE	M1	1	19	G4	release
600.41	n/a	RESPONSE	M1	1	16	E4	press
601.32	n/a	RESPONSE	M1	1	16	E4	release
601.44	n/a	RESPONSE	M1	1	16	E4	press
601.763	n/a	RESPONSE	M1	1	16	E4	release
601.961	n/a	RESPONSE	M1	1	17	F4	press
602.332	n/a	RESPONSE	M1	1	17	F4	release
602.526	n/a	RESPONSE	M1	1	14	D4	press
602.868	n/a	RESPONSE	M1	1	14	D4	release
603.103	n/a	RESPONSE	M1	1	14	D4	press
603.448	n/a	RESPONSE	M1	1	14	D4	release
603.78	n/a	RESPONSE	M1	1	12	C4	press
604.153	n/a	RESPONSE	M1	1	16	E4	press
604.447	n/a	RESPONSE	M1	1	12	C4	release
604.53	n/a	RESPONSE	M1	1	19	G4	press
604.586	n/a	RESPONSE	M1	1	16	E4	release
605.123	n/a	RESPONSE	M1	1	19	G4	release
605.362	7.758	FIXCROSS	n/a	n/a	n/a	n/a	n/a
613.121	6.317	CUE_LISTEN	M1	2	n/a	n/a	n/a
619.438	7.758	FIXCROSS	n/a	n/a	n/a	n/a	n/a
627.196	6.317	CUE_PLAYBACK_RIGHT_HAND	M1	2	n/a	n/a	n/a
628.146	n/a	RESPONSE	M1	2	19	G4	press
628.536	n/a	RESPONSE	M1	2	19	G4	release
628.688	n/a	RESPONSE	M1	2	16	E4	press
629.062	n/a	RESPONSE	M1	2	16	E4	release
629.226	n/a	RESPONSE	M1	2	16	E4	press
629.577	n/a	RESPONSE	M1	2	16	E4	release
629.773	n/a	RESPONSE	M1	2	17	F4	press
630.031	n/a	RESPONSE	M1	2	17	F4	release
630.31	n/a	RESPONSE	M1	2	14	D4	press
630.566	n/a	RESPONSE	M1	2	14	D4	release
630.822	n/a	RESPONSE	M1	2	14	D4	press
631.154	n/a	RESPONSE	M1	2	14	D4	release
631.45	n/a	RESPONSE	M1	2	12	C4	press
631.794	n/a	RESPONSE	M1	2	16	E4	press
631.88	n/a	RESPONSE	M1	2	12	C4	release
632.22	n/a	RESPONSE	M1	2	12	C4	press
632.278	n/a	RESPONSE	M1	2	16	E4	release
632.668	n/a	RESPONSE	M1	2	12	C4	release
633.513	7.758	FIXCROSS	n/a	n/a	n/a	n/a	n/a
641.271	6.325	CUE_LISTEN	M1	1	n/a	n/a	n/a
647.596	7.758	FIXCROSS	n/a	n/a	n/a	n/a	n/a
655.354	6.317	CUE_PLAYBACK_BOTH_HANDS	M1	1	n/a	n/a	n/a
656.102	n/a	RESPONSE	M1	1	07	G3	press
656.105	n/a	RESPONSE	M1	1	19	G4	press
656.504	n/a	RESPONSE	M1	1	07	G3	release
656.601	n/a	RESPONSE	M1	1	19	G4	release
656.605	n/a	RESPONSE	M1	1	04	E3	press
656.672	n/a	RESPONSE	M1	1	16	E4	press
657.017	n/a	RESPONSE	M1	1	16	E4	release
657.074	n/a	RESPONSE	M1	1	04	E3	release
657.212	n/a	RESPONSE	M1	1	04	E3	press
657.255	n/a	RESPONSE	M1	1	16	E4	press
657.586	n/a	RESPONSE	M1	1	16	E4	release
657.615	n/a	RESPONSE	M1	1	04	E3	release
657.781	n/a	RESPONSE	M1	1	17	F4	press
657.784	n/a	RESPONSE	M1	1	05	F3	press
658.114	n/a	RESPONSE	M1	1	17	F4	release
658.142	n/a	RESPONSE	M1	1	05	F3	release
658.284	n/a	RESPONSE	M1	1	02	D3	press
658.325	n/a	RESPONSE	M1	1	14	D4	press
658.604	n/a	RESPONSE	M1	1	14	D4	release
658.606	n/a	RESPONSE	M1	1	02	D3	release
658.798	n/a	RESPONSE	M1	1	02	D3	press
658.855	n/a	RESPONSE	M1	1	14	D4	press
659.087	n/a	RESPONSE	M1	1	02	D3	release
659.09	n/a	RESPONSE	M1	1	14	D4	release
659.326	n/a	RESPONSE	M1	1	00	C3	press
659.328	n/a	RESPONSE	M1	1	12	C4	press
659.627	n/a	RESPONSE	M1	1	04	E3	press
659.667	n/a	RESPONSE	M1	1	16	E4	press
659.712	n/a	RESPONSE	M1	1	00	C3	release
659.746	n/a	RESPONSE	M1	1	12	C4	release
659.972	n/a	RESPONSE	M1	1	16	E4	release
659.986	n/a	RESPONSE	M1	1	07	G3	press
660.002	n/a	RESPONSE	M1	1	19	G4	press
660.036	n/a	RESPONSE	M1	1	04	E3	release
660.471	n/a	RESPONSE	M1	1	19	G4	release
660.675	n/a	RESPONSE	M1	1	07	G3	release
661.671	7.758	FIXCROSS	n/a	n/a	n/a	n/a	n/a
669.43	6.325	CUE_LISTEN	M1	2	n/a	n/a	n/a
675.754	7.758	FIXCROSS	n/a	n/a	n/a	n/a	n/a
683.513	6.317	CUE_PLAYBACK_BOTH_HANDS	M1	2	n/a	n/a	n/a
684.412	n/a	RESPONSE	M1	2	07	G3	press
684.426	n/a	RESPONSE	M1	2	19	G4	press
684.826	n/a	RESPONSE	M1	2	19	G4	release
684.855	n/a	RESPONSE	M1	2	07	G3	release
685.076	n/a	RESPONSE	M1	2	16	E4	press
685.119	n/a	RESPONSE	M1	2	02	D3	press
685.216	n/a	RESPONSE	M1	2	04	E3	press
685.41	n/a	RESPONSE	M1	2	04	E3	release
685.466	n/a	RESPONSE	M1	2	02	D3	release
685.522	n/a	RESPONSE	M1	2	16	E4	release
685.73	n/a	RESPONSE	M1	2	16	E4	press
685.841	n/a	RESPONSE	M1	2	02	D3	press
686.131	n/a	RESPONSE	M1	2	02	D3	release
686.146	n/a	RESPONSE	M1	2	16	E4	release
686.341	n/a	RESPONSE	M1	2	04	E3	press
686.384	n/a	RESPONSE	M1	2	17	F4	press
686.66	n/a	RESPONSE	M1	2	04	E3	release
686.688	n/a	RESPONSE	M1	2	17	F4	release
686.896	n/a	RESPONSE	M1	2	02	D3	press
686.98	n/a	RESPONSE	M1	2	14	D4	press
687.245	n/a	RESPONSE	M1	2	14	D4	release
687.561	n/a	RESPONSE	M1	2	14	D4	press
687.854	n/a	RESPONSE	M1	2	14	D4	release
687.99	n/a	RESPONSE	M1	2	02	D3	release
688.142	n/a	RESPONSE	M1	2	00	C3	press
688.242	n/a	RESPONSE	M1	2	12	C4	press
688.561	n/a	RESPONSE	M1	2	00	C3	release
688.604	n/a	RESPONSE	M1	2	16	E4	press
688.632	n/a	RESPONSE	M1	2	12	C4	release
688.649	n/a	RESPONSE	M1	2	04	E3	press
688.937	n/a	RESPONSE	M1	2	00	C3	press
688.94	n/a	RESPONSE	M1	2	16	E4	release
688.942	n/a	RESPONSE	M1	2	04	E3	release
688.955	n/a	RESPONSE	M1	2	12	C4	press
689.491	n/a	RESPONSE	M1	2	00	C3	release
689.59	n/a	RESPONSE	M1	2	12	C4	release
689.83	7.758	FIXCROSS	n/a	n/a	n/a	n/a	n/a
697.588	6.317	CUE_LISTEN	M1	1	n/a	n/a	n/a
703.904	7.759	FIXCROSS	n/a	n/a	n/a	n/a	n/a
711.663	6.325	CUE_PLAYBACK_RIGHT_HAND	M1	1	n/a	n/a	n/a
712.627	n/a	RESPONSE	M1	1	19	G4	press
712.931	n/a	RESPONSE	M1	1	19	G4	release
713.125	n/a	RESPONSE	M1	1	16	E4	press
713.47	n/a	RESPONSE	M1	1	16	E4	release
713.677	n/a	RESPONSE	M1	1	16	E4	press
714.036	n/a	RESPONSE	M1	1	16	E4	release
714.22	n/a	RESPONSE	M1	1	17	F4	press
714.537	n/a	RESPONSE	M1	1	17	F4	release
714.786	n/a	RESPONSE	M1	1	14	D4	press
715.065	n/a	RESPONSE	M1	1	14	D4	release
715.325	n/a	RESPONSE	M1	1	14	D4	press
715.741	n/a	RESPONSE	M1	1	14	D4	release
715.987	n/a	RESPONSE	M1	1	12	C4	press
716.334	n/a	RESPONSE	M1	1	16	E4	press
716.514	n/a	RESPONSE	M1	1	12	C4	release
716.666	n/a	RESPONSE	M1	1	19	G4	press
716.709	n/a	RESPONSE	M1	1	16	E4	release
717.22	n/a	RESPONSE	M1	1	19	G4	release
717.988	7.758	FIXCROSS	n/a	n/a	n/a	n/a	n/a
725.746	6.317	CUE_LISTEN	M1	2	n/a	n/a	n/a
732.063	7.758	FIXCROSS	n/a	n/a	n/a	n/a	n/a
739.821	6.317	CUE_PLAYBACK_RIGHT_HAND	M1	2	n/a	n/a	n/a
740.527	n/a	RESPONSE	M1	2	19	G4	press
741.091	n/a	RESPONSE	M1	2	19	G4	release
741.175	n/a	RESPONSE	M1	2	16	E4	press
741.56	n/a	RESPONSE	M1	2	16	E4	release
741.77	n/a	RESPONSE	M1	2	16	E4	press
742.131	n/a	RESPONSE	M1	2	16	E4	release
742.366	n/a	RESPONSE	M1	2	17	F4	press
742.701	n/a	RESPONSE	M1	2	17	F4	release
742.979	n/a	RESPONSE	M1	2	14	D4	press
743.267	n/a	RESPONSE	M1	2	14	D4	release
743.6	n/a	RESPONSE	M1	2	14	D4	press
743.902	n/a	RESPONSE	M1	2	14	D4	release
744.279	n/a	RESPONSE	M1	2	12	C4	press
744.652	n/a	RESPONSE	M1	2	16	E4	press
744.694	n/a	RESPONSE	M1	2	12	C4	release
745.039	n/a	RESPONSE	M1	2	12	C4	press
745.15	n/a	RESPONSE	M1	2	16	E4	release
745.605	n/a	RESPONSE	M1	2	12	C4	release
746.138	7.758	FIXCROSS	n/a	n/a	n/a	n/a	n/a
753.896	6.325	CUE_LISTEN	M1	1	n/a	n/a	n/a
760.221	7.758	FIXCROSS	n/a	n/a	n/a	n/a	n/a
767.98	6.317	CUE_PLAYBACK_BOTH_HANDS	M1	1	n/a	n/a	n/a
768.887	n/a	RESPONSE	M1	1	07	G3	press
768.902	n/a	RESPONSE	M1	1	19	G4	press
769.306	n/a	RESPONSE	M1	1	19	G4	release
769.309	n/a	RESPONSE	M1	1	07	G3	release
769.311	n/a	RESPONSE	M1	1	04	E3	press
769.408	n/a	RESPONSE	M1	1	16	E4	press
769.784	n/a	RESPONSE	M1	1	16	E4	release
769.958	n/a	RESPONSE	M1	1	16	E4	press
770.282	n/a	RESPONSE	M1	1	16	E4	release
770.374	n/a	RESPONSE	M1	1	04	E3	release
770.48	n/a	RESPONSE	M1	1	05	F3	press
770.489	n/a	RESPONSE	M1	1	17	F4	press
770.829	n/a	RESPONSE	M1	1	05	F3	release
770.839	n/a	RESPONSE	M1	1	17	F4	release
770.995	n/a	RESPONSE	M1	1	02	D3	press
771.035	n/a	RESPONSE	M1	1	14	D4	press
771.342	n/a	RESPONSE	M1	1	14	D4	release
771.614	n/a	RESPONSE	M1	1	14	D4	press
771.938	n/a	RESPONSE	M1	1	02	D3	release
771.94	n/a	RESPONSE	M1	1	14	D4	release
772.09	n/a	RESPONSE	M1	1	00	C3	press
772.121	n/a	RESPONSE	M1	1	12	C4	press
772.431	n/a	RESPONSE	M1	1	04	E3	press
772.462	n/a	RESPONSE	M1	1	16	E4	press
772.488	n/a	RESPONSE	M1	1	00	C3	release
772.548	n/a	RESPONSE	M1	1	12	C4	release
772.805	n/a	RESPONSE	M1	1	07	G3	press
772.834	n/a	RESPONSE	M1	1	19	G4	press
772.849	n/a	RESPONSE	M1	1	04	E3	release
772.878	n/a	RESPONSE	M1	1	16	E4	release
773.65	n/a	RESPONSE	M1	1	19	G4	release
773.787	n/a	RESPONSE	M1	1	07	G3	release
774.296	7.758	FIXCROSS	n/a	n/a	n/a	n/a	n/a
782.055	6.317	CUE_LISTEN	M1	2	n/a	n/a	n/a
788.372	7.758	FIXCROSS	n/a	n/a	n/a	n/a	n/a
796.13	6.325	CUE_PLAYBACK_BOTH_HANDS	M1	2	n/a	n/a	n/a
797.134	n/a	RESPONSE	M1	2	07	G3	press
797.162	n/a	RESPONSE	M1	2	19	G4	press
797.564	n/a	RESPONSE	M1	2	07	G3	release
797.646	n/a	RESPONSE	M1	2	19	G4	release
797.716	n/a	RESPONSE	M1	2	04	E3	press
797.745	n/a	RESPONSE	M1	2	16	E4	press
798.118	n/a	RESPONSE	M1	2	16	E4	release
798.132	n/a	RESPONSE	M1	2	04	E3	release
798.314	n/a	RESPONSE	M1	2	04	E3	press
798.329	n/a	RESPONSE	M1	2	16	E4	press
798.704	n/a	RESPONSE	M1	2	16	E4	release
798.774	n/a	RESPONSE	M1	2	04	E3	release
798.94	n/a	RESPONSE	M1	2	17	F4	press
798.955	n/a	RESPONSE	M1	2	05	F3	press
799.301	n/a	RESPONSE	M1	2	17	F4	release
799.34	n/a	RESPONSE	M1	2	05	F3	release
799.551	n/a	RESPONSE	M1	2	02	D3	press
799.605	n/a	RESPONSE	M1	2	14	D4	press
799.929	n/a	RESPONSE	M1	2	14	D4	release
800.211	n/a	RESPONSE	M1	2	14	D4	press
800.532	n/a	RESPONSE	M1	2	02	D3	release
800.586	n/a	RESPONSE	M1	2	14	D4	release
800.79	n/a	RESPONSE	M1	2	00	C3	press
800.821	n/a	RESPONSE	M1	2	12	C4	press
801.085	n/a	RESPONSE	M1	2	00	C3	release
801.109	n/a	RESPONSE	M1	2	04	E3	press
801.171	n/a	RESPONSE	M1	2	16	E4	press
801.231	n/a	RESPONSE	M1	2	12	C4	release
801.414	n/a	RESPONSE	M1	2	00	C3	press
801.468	n/a	RESPONSE	M1	2	04	E3	release
801.482	n/a	RESPONSE	M1	2	12	C4	press
801.531	n/a	RESPONSE	M1	2	16	E4	release
802.004	n/a	RESPONSE	M1	2	00	C3	release
802.08	n/a	RESPONSE	M1	2	12	C4	release
802.455	7.758	FIXCROSS	n/a	n/a	n/a	n/a	n/a
810.213	6.317	CUE_LISTEN	M1	1	n/a	n/a	n/a
816.53	7.758	FIXCROSS	n/a	n/a	n/a	n/a	n/a
824.288	6.317	CUE_PLAYBACK_RIGHT_HAND	M1	1	n/a	n/a	n/a
825.226	n/a	RESPONSE	M1	1	19	G4	press
825.651	n/a	RESPONSE	M1	1	19	G4	release
825.735	n/a	RESPONSE	M1	1	16	E4	press
826.15	n/a	RESPONSE	M1	1	16	E4	release
826.318	n/a	RESPONSE	M1	1	16	E4	press
826.702	n/a	RESPONSE	M1	1	16	E4	release
826.884	n/a	RESPONSE	M1	1	17	F4	press
827.255	n/a	RESPONSE	M1	1	17	F4	release
827.476	n/a	RESPONSE	M1	1	14	D4	press
827.808	n/a	RESPONSE	M1	1	14	D4	release
828.07	n/a	RESPONSE	M1	1	14	D4	press
828.376	n/a	RESPONSE	M1	1	14	D4	release
828.684	n/a	RESPONSE	M1	1	12	C4	press
829.018	n/a	RESPONSE	M1	1	16	E4	press
829.201	n/a	RESPONSE	M1	1	12	C4	release
829.412	n/a	RESPONSE	M1	1	19	G4	press
829.514	n/a	RESPONSE	M1	1	16	E4	release
830.09	n/a	RESPONSE	M1	1	19	G4	release
830.605	7.758	FIXCROSS	n/a	n/a	n/a	n/a	n/a
838.363	6.325	CUE_LISTEN	M1	2	n/a	n/a	n/a
844.688	7.759	FIXCROSS	n/a	n/a	n/a	n/a	n/a
852.447	6.325	CUE_PLAYBACK_RIGHT_HAND	M1	2	n/a	n/a	n/a
853.411	n/a	RESPONSE	M1	2	19	G4	press
853.853	n/a	RESPONSE	M1	2	19	G4	release
853.952	n/a	RESPONSE	M1	2	16	E4	press
854.354	n/a	RESPONSE	M1	2	16	E4	release
854.494	n/a	RESPONSE	M1	2	16	E4	press
854.894	n/a	RESPONSE	M1	2	16	E4	release
855.045	n/a	RESPONSE	M1	2	17	F4	press
855.404	n/a	RESPONSE	M1	2	17	F4	release
855.625	n/a	RESPONSE	M1	2	14	D4	press
855.915	n/a	RESPONSE	M1	2	14	D4	release
856.206	n/a	RESPONSE	M1	2	14	D4	press
856.565	n/a	RESPONSE	M1	2	14	D4	release
856.858	n/a	RESPONSE	M1	2	12	C4	press
857.214	n/a	RESPONSE	M1	2	16	E4	press
857.298	n/a	RESPONSE	M1	2	12	C4	release
857.575	n/a	RESPONSE	M1	2	12	C4	press
857.699	n/a	RESPONSE	M1	2	16	E4	release
858.251	n/a	RESPONSE	M1	2	12	C4	release
858.772	7.758	FIXCROSS	n/a	n/a	n/a	n/a	n/a
866.53	6.317	CUE_LISTEN	M1	1	n/a	n/a	n/a
872.847	7.759	FIXCROSS	n/a	n/a	n/a	n/a	n/a
880.605	6.317	CUE_PLAYBACK_BOTH_HANDS	M1	1	n/a	n/a	n/a
881.518	n/a	RESPONSE	M1	1	07	G3	press
881.521	n/a	RESPONSE	M1	1	19	G4	press
882.023	n/a	RESPONSE	M1	1	07	G3	release
882.091	n/a	RESPONSE	M1	1	19	G4	release
882.185	n/a	RESPONSE	M1	1	04	E3	press
882.215	n/a	RESPONSE	M1	1	16	E4	press
882.561	n/a	RESPONSE	M1	1	16	E4	release
882.62	n/a	RESPONSE	M1	1	04	E3	release
882.73	n/a	RESPONSE	M1	1	04	E3	press
882.759	n/a	RESPONSE	M1	1	16	E4	press
883.104	n/a	RESPONSE	M1	1	16	E4	release
883.146	n/a	RESPONSE	M1	1	04	E3	release
883.299	n/a	RESPONSE	M1	1	17	F4	press
883.328	n/a	RESPONSE	M1	1	05	F3	press
883.633	n/a	RESPONSE	M1	1	17	F4	release
883.661	n/a	RESPONSE	M1	1	05	F3	release
883.829	n/a	RESPONSE	M1	1	02	D3	press
883.871	n/a	RESPONSE	M1	1	14	D4	press
884.131	n/a	RESPONSE	M1	1	14	D4	release
884.164	n/a	RESPONSE	M1	1	02	D3	release
884.358	n/a	RESPONSE	M1	1	02	D3	press
884.414	n/a	RESPONSE	M1	1	14	D4	press
884.718	n/a	RESPONSE	M1	1	02	D3	release
884.746	n/a	RESPONSE	M1	1	14	D4	release
884.874	n/a	RESPONSE	M1	1	00	C3	press
884.9	n/a	RESPONSE	M1	1	12	C4	press
885.19	n/a	RESPONSE	M1	1	04	E3	press
885.246	n/a	RESPONSE	M1	1	16	E4	press
885.261	n/a	RESPONSE	M1	1	00	C3	release
885.414	n/a	RESPONSE	M1	1	12	C4	release
885.566	n/a	RESPONSE	M1	1	07	G3	press
885.569	n/a	RESPONSE	M1	1	19	G4	press
885.61	n/a	RESPONSE	M1	1	16	E4	release
885.613	n/a	RESPONSE	M1	1	04	E3	release
886.246	n/a	RESPONSE	M1	1	19	G4	release
886.316	n/a	RESPONSE	M1	1	07	G3	release
886.922	7.758	FIXCROSS	n/a	n/a	n/a	n/a	n/a
894.68	6.317	CUE_LISTEN	M1	2	n/a	n/a	n/a
900.997	7.759	FIXCROSS	n/a	n/a	n/a	n/a	n/a
908.755	110.291	CUE_PLAYBACK_BOTH_HANDS	M1	2	n/a	n/a	n/a
909.599	n/a	RESPONSE	M1	2	07	G3	press
909.63	n/a	RESPONSE	M1	2	19	G4	press
910.106	n/a	RESPONSE	M1	2	07	G3	release
910.12	n/a	RESPONSE	M1	2	04	E3	press
910.139	n/a	RESPONSE	M1	2	19	G4	release
910.191	n/a	RESPONSE	M1	2	16	E4	press
910.568	n/a	RESPONSE	M1	2	16	E4	release
910.606	n/a	RESPONSE	M1	2	04	E3	release
910.728	n/a	RESPONSE	M1	2	04	E3	press
910.746	n/a	RESPONSE	M1	2	16	E4	press
911.1	n/a	RESPONSE	M1	2	16	E4	release
911.168	n/a	RESPONSE	M1	2	04	E3	release
911.31	n/a	RESPONSE	M1	2	05	F3	press
911.319	n/a	RESPONSE	M1	2	17	F4	press
911.613	n/a	RESPONSE	M1	2	05	F3	release
911.631	n/a	RESPONSE	M1	2	17	F4	release
911.835	n/a	RESPONSE	M1	2	02	D3	press
911.894	n/a	RESPONSE	M1	2	14	D4	press
912.196	n/a	RESPONSE	M1	2	14	D4	release
912.484	n/a	RESPONSE	M1	2	14	D4	press
912.733	n/a	RESPONSE	M1	2	02	D3	release
912.761	n/a	RESPONSE	M1	2	14	D4	release
912.969	n/a	RESPONSE	M1	2	00	C3	press
912.998	n/a	RESPONSE	M1	2	12	C4	press
913.248	n/a	RESPONSE	M1	2	00	C3	release
913.248	n/a	FIXCROSS	n/a	n/a	n/a	n/a	n/a
913.289	n/a	RESPONSE	M1	2	04	E3	press
913.333	n/a	RESPONSE	M1	2	16	E4	press
913.36	n/a	RESPONSE	M1	2	12	C4	release
913.471	n/a	RESPONSE	M1	2	00	C3	press
913.583	n/a	RESPONSE	M1	2	04	E3	release
913.626	n/a	RESPONSE	M1	2	12	C4	press
913.681	n/a	RESPONSE	M1	2	16	E4	release
913.878	n/a	RESPONSE	M1	2	00	C3	release
913.948	n/a	RESPONSE	M1	2	12	C4	release
