onset	duration	trial_type	trial_number	stroop_condition	stim_text(PL)	stim_text(eng)	stim_color(PL)	stim_color(eng)	response_type	response_color
0.0	n/a	RESPONSE	n/a	n/a	n/a	n/a	n/a	n/a	n/a	green
53.1777	n/a	RESPONSE	n/a	n/a	n/a	n/a	n/a	n/a	n/a	n/a
53.2334	1.0334	ITI	n/a	n/a	n/a	n/a	n/a	n/a	n/a	n/a
54.2668	0.5167	FIXCROSS	n/a	n/a	n/a	n/a	n/a	n/a	n/a	n/a
54.7834	3.05	T_INK	1	Neutral	xxxxxxxxx	xxxxxxxxx	zielony	green	hit	n/a
57.8124	n/a	RESPONSE	n/a	n/a	n/a	n/a	n/a	n/a	n/a	green
57.8335	0.5167	FEEDBACK	n/a	n/a	n/a	n/a	n/a	n/a	n/a	n/a
58.3501	1.0167	ITI	n/a	n/a	n/a	n/a	n/a	n/a	n/a	n/a
59.3668	0.5167	FIXCROSS	n/a	n/a	n/a	n/a	n/a	n/a	n/a	n/a
59.8835	1.3833	T_INK	2	Incongruent	zielony	green	żółty	yellow	hit	n/a
61.2325	n/a	RESPONSE	n/a	n/a	n/a	n/a	n/a	n/a	n/a	yellow
61.2668	0.5167	FEEDBACK	n/a	n/a	n/a	n/a	n/a	n/a	n/a	n/a
61.7835	1.0167	ITI	n/a	n/a	n/a	n/a	n/a	n/a	n/a	n/a
62.8002	0.5167	FIXCROSS	n/a	n/a	n/a	n/a	n/a	n/a	n/a	n/a
63.3168	1.1167	T_INK	3	Neutral	xxxxxxx	xxxxxxx	żółty	yellow	hit	n/a
64.3969	n/a	RESPONSE	n/a	n/a	n/a	n/a	n/a	n/a	n/a	yellow
64.4335	0.5167	FEEDBACK	n/a	n/a	n/a	n/a	n/a	n/a	n/a	n/a
64.9502	1.0167	ITI	n/a	n/a	n/a	n/a	n/a	n/a	n/a	n/a
65.9669	0.5167	FIXCROSS	n/a	n/a	n/a	n/a	n/a	n/a	n/a	n/a
66.4835	1.95	T_INK	4	Neutral	xxxxxxxx	xxxxxxxx	niebieski	blue	hit	n/a
68.4081	n/a	RESPONSE	n/a	n/a	n/a	n/a	n/a	n/a	n/a	blue
68.4336	0.5167	FEEDBACK	n/a	n/a	n/a	n/a	n/a	n/a	n/a	n/a
68.9502	1.0167	ITI	n/a	n/a	n/a	n/a	n/a	n/a	n/a	n/a
69.9669	0.5167	FIXCROSS	n/a	n/a	n/a	n/a	n/a	n/a	n/a	n/a
70.4836	1.7167	T_INK	5	Incongruent	czerwony	red	żółty	yellow	hit	n/a
72.1799	n/a	RESPONSE	n/a	n/a	n/a	n/a	n/a	n/a	n/a	yellow
72.2002	0.5167	FEEDBACK	n/a	n/a	n/a	n/a	n/a	n/a	n/a	n/a
72.7169	1.0167	ITI	n/a	n/a	n/a	n/a	n/a	n/a	n/a	n/a
73.7336	0.5167	FIXCROSS	n/a	n/a	n/a	n/a	n/a	n/a	n/a	n/a
74.2503	1.2833	T_INK	6	Neutral	xxxxxxxxx	xxxxxxxxx	żółty	yellow	hit	n/a
75.504	n/a	RESPONSE	n/a	n/a	n/a	n/a	n/a	n/a	n/a	yellow
75.5336	0.5167	FEEDBACK	n/a	n/a	n/a	n/a	n/a	n/a	n/a	n/a
76.0503	1.0167	ITI	n/a	n/a	n/a	n/a	n/a	n/a	n/a	n/a
77.0669	0.5167	FIXCROSS	n/a	n/a	n/a	n/a	n/a	n/a	n/a	n/a
77.5836	2.4334	T_INK	7	Incongruent	żółty	yellow	czerwony	red	hit	n/a
79.995	n/a	RESPONSE	n/a	n/a	n/a	n/a	n/a	n/a	n/a	red
80.017	0.5167	FEEDBACK	n/a	n/a	n/a	n/a	n/a	n/a	n/a	n/a
80.5336	1.0167	ITI	n/a	n/a	n/a	n/a	n/a	n/a	n/a	n/a
81.5503	0.5167	FIXCROSS	n/a	n/a	n/a	n/a	n/a	n/a	n/a	n/a
82.067	1.1667	T_INK	8	Neutral	xxxxxxxxx	xxxxxxxxx	czerwony	red	hit	n/a
83.2073	n/a	RESPONSE	n/a	n/a	n/a	n/a	n/a	n/a	n/a	red
83.2337	0.5167	FEEDBACK	n/a	n/a	n/a	n/a	n/a	n/a	n/a	n/a
83.7503	1.0167	ITI	n/a	n/a	n/a	n/a	n/a	n/a	n/a	n/a
84.767	0.5167	FIXCROSS	n/a	n/a	n/a	n/a	n/a	n/a	n/a	n/a
85.2837	1.3167	T_INK	9	Incongruent	żółty	yellow	niebieski	blue	hit	n/a
86.5794	n/a	RESPONSE	n/a	n/a	n/a	n/a	n/a	n/a	n/a	blue
86.6003	0.5167	FEEDBACK	n/a	n/a	n/a	n/a	n/a	n/a	n/a	n/a
87.117	1.0167	ITI	n/a	n/a	n/a	n/a	n/a	n/a	n/a	n/a
88.1337	0.5167	FIXCROSS	n/a	n/a	n/a	n/a	n/a	n/a	n/a	n/a
88.6504	0.7667	T_INK	10	Neutral	xxxxxxxx	xxxxxxxx	żółty	yellow	hit	n/a
89.3922	n/a	RESPONSE	n/a	n/a	n/a	n/a	n/a	n/a	n/a	yellow
89.417	0.5167	FEEDBACK	n/a	n/a	n/a	n/a	n/a	n/a	n/a	n/a
89.9337	1.0167	ITI	n/a	n/a	n/a	n/a	n/a	n/a	n/a	n/a
90.9504	0.5167	FIXCROSS	n/a	n/a	n/a	n/a	n/a	n/a	n/a	n/a
91.4671	1.7	T_INK	11	Neutral	xxxxxxxx	xxxxxxxx	zielony	green	hit	n/a
93.1479	n/a	RESPONSE	n/a	n/a	n/a	n/a	n/a	n/a	n/a	green
93.1671	0.5167	FEEDBACK	n/a	n/a	n/a	n/a	n/a	n/a	n/a	n/a
93.6837	1.0167	ITI	n/a	n/a	n/a	n/a	n/a	n/a	n/a	n/a
94.7004	0.5167	FIXCROSS	n/a	n/a	n/a	n/a	n/a	n/a	n/a	n/a
95.2171	1.85	T_INK	12	Incongruent	niebieski	blue	czerwony	red	hit	n/a
97.0474	n/a	RESPONSE	n/a	n/a	n/a	n/a	n/a	n/a	n/a	red
97.0671	0.5167	FEEDBACK	n/a	n/a	n/a	n/a	n/a	n/a	n/a	n/a
97.5838	1.0333	ITI	n/a	n/a	n/a	n/a	n/a	n/a	n/a	n/a
101.6342	n/a	RESPONSE	n/a	n/a	n/a	n/a	n/a	n/a	n/a	n/a
101.7005	1.0167	ITI	n/a	n/a	n/a	n/a	n/a	n/a	n/a	n/a
102.7171	0.5167	FIXCROSS	n/a	n/a	n/a	n/a	n/a	n/a	n/a	n/a
103.2338	2.35	INK	1	Neutral	xxxxxxx	xxxxxxx	niebieski	blue	hit	n/a
105.5657	n/a	RESPONSE	n/a	n/a	n/a	n/a	n/a	n/a	n/a	blue
105.5838	1.0167	ITI	n/a	n/a	n/a	n/a	n/a	n/a	n/a	n/a
106.6005	0.5167	FIXCROSS	n/a	n/a	n/a	n/a	n/a	n/a	n/a	n/a
107.1172	1.4334	INK	2	Neutral	xxxxx	xxxxx	czerwony	red	hit	n/a
108.5224	n/a	RESPONSE	n/a	n/a	n/a	n/a	n/a	n/a	n/a	red
108.5505	1.0167	ITI	n/a	n/a	n/a	n/a	n/a	n/a	n/a	n/a
109.5672	0.5167	FIXCROSS	n/a	n/a	n/a	n/a	n/a	n/a	n/a	n/a
110.0839	1.3	INK	3	Neutral	xxxxxxxx	xxxxxxxx	niebieski	blue	hit	n/a
111.3511	n/a	RESPONSE	n/a	n/a	n/a	n/a	n/a	n/a	n/a	blue
111.3839	1.0167	ITI	n/a	n/a	n/a	n/a	n/a	n/a	n/a	n/a
112.4005	0.5167	FIXCROSS	n/a	n/a	n/a	n/a	n/a	n/a	n/a	n/a
112.9172	1.5	INK	4	Incongruent	niebieski	blue	czerwony	red	hit	n/a
114.3876	n/a	RESPONSE	n/a	n/a	n/a	n/a	n/a	n/a	n/a	red
114.4172	1.0167	ITI	n/a	n/a	n/a	n/a	n/a	n/a	n/a	n/a
115.4339	0.5167	FIXCROSS	n/a	n/a	n/a	n/a	n/a	n/a	n/a	n/a
115.9506	2.2167	INK	5	Incongruent	zielony	green	niebieski	blue	hit	n/a
118.1433	n/a	RESPONSE	n/a	n/a	n/a	n/a	n/a	n/a	n/a	blue
118.1672	1.0167	ITI	n/a	n/a	n/a	n/a	n/a	n/a	n/a	n/a
119.1839	0.5167	FIXCROSS	n/a	n/a	n/a	n/a	n/a	n/a	n/a	n/a
119.7006	1.1334	INK	6	Neutral	xxxxxxxx	xxxxxxxx	żółty	yellow	hit	n/a
120.8123	n/a	RESPONSE	n/a	n/a	n/a	n/a	n/a	n/a	n/a	yellow
120.8339	1.0167	ITI	n/a	n/a	n/a	n/a	n/a	n/a	n/a	n/a
121.8506	0.5167	FIXCROSS	n/a	n/a	n/a	n/a	n/a	n/a	n/a	n/a
122.3673	1.7833	INK	7	Neutral	xxxxx	xxxxx	zielony	green	hit	n/a
124.1205	n/a	RESPONSE	n/a	n/a	n/a	n/a	n/a	n/a	n/a	green
124.1506	1.0167	ITI	n/a	n/a	n/a	n/a	n/a	n/a	n/a	n/a
125.1673	0.5167	FIXCROSS	n/a	n/a	n/a	n/a	n/a	n/a	n/a	n/a
125.684	1.8334	INK	8	Neutral	xxxxxxxxx	xxxxxxxxx	zielony	green	hit	n/a
127.4927	n/a	RESPONSE	n/a	n/a	n/a	n/a	n/a	n/a	n/a	green
127.5173	1.0167	ITI	n/a	n/a	n/a	n/a	n/a	n/a	n/a	n/a
128.534	0.5167	FIXCROSS	n/a	n/a	n/a	n/a	n/a	n/a	n/a	n/a
129.0507	1.0167	INK	9	Neutral	xxxxxxx	xxxxxxx	żółty	yellow	hit	n/a
130.0497	n/a	RESPONSE	n/a	n/a	n/a	n/a	n/a	n/a	n/a	yellow
130.0673	1.0167	ITI	n/a	n/a	n/a	n/a	n/a	n/a	n/a	n/a
131.084	0.5167	FIXCROSS	n/a	n/a	n/a	n/a	n/a	n/a	n/a	n/a
131.6007	1.5	INK	10	Incongruent	czerwony	red	niebieski	blue	hit	n/a
133.0702	n/a	RESPONSE	n/a	n/a	n/a	n/a	n/a	n/a	n/a	blue
133.1007	1.0167	ITI	n/a	n/a	n/a	n/a	n/a	n/a	n/a	n/a
134.1174	0.5167	FIXCROSS	n/a	n/a	n/a	n/a	n/a	n/a	n/a	n/a
134.634	1.9334	INK	11	Incongruent	zielony	green	żółty	yellow	incorrect	n/a
136.5383	n/a	RESPONSE	n/a	n/a	n/a	n/a	n/a	n/a	n/a	green
136.5674	1.0167	ITI	n/a	n/a	n/a	n/a	n/a	n/a	n/a	n/a
137.5841	0.5167	FIXCROSS	n/a	n/a	n/a	n/a	n/a	n/a	n/a	n/a
138.1007	0.8	INK	12	Neutral	xxxxxxxx	xxxxxxxx	żółty	yellow	hit	n/a
138.8717	n/a	RESPONSE	n/a	n/a	n/a	n/a	n/a	n/a	n/a	yellow
138.9007	1.0167	ITI	n/a	n/a	n/a	n/a	n/a	n/a	n/a	n/a
139.9174	0.5167	FIXCROSS	n/a	n/a	n/a	n/a	n/a	n/a	n/a	n/a
140.4341	0.8833	INK	13	Incongruent	niebieski	blue	żółty	yellow	hit	n/a
141.285	n/a	RESPONSE	n/a	n/a	n/a	n/a	n/a	n/a	n/a	yellow
141.3174	1.0167	ITI	n/a	n/a	n/a	n/a	n/a	n/a	n/a	n/a
142.3341	0.5167	FIXCROSS	n/a	n/a	n/a	n/a	n/a	n/a	n/a	n/a
142.8508	2.9834	INK	14	Neutral	xxxxxxx	xxxxxxx	czerwony	red	hit	n/a
145.8077	n/a	RESPONSE	n/a	n/a	n/a	n/a	n/a	n/a	n/a	red
145.8341	1.0167	ITI	n/a	n/a	n/a	n/a	n/a	n/a	n/a	n/a
146.8508	0.5167	FIXCROSS	n/a	n/a	n/a	n/a	n/a	n/a	n/a	n/a
147.3675	1.55	INK	15	Neutral	xxxxx	xxxxx	niebieski	blue	hit	n/a
148.8923	n/a	RESPONSE	n/a	n/a	n/a	n/a	n/a	n/a	n/a	blue
148.9175	1.0167	ITI	n/a	n/a	n/a	n/a	n/a	n/a	n/a	n/a
149.9342	0.5167	FIXCROSS	n/a	n/a	n/a	n/a	n/a	n/a	n/a	n/a
150.4508	1.2	INK	16	Neutral	xxxxxxx	xxxxxxx	czerwony	red	incorrect	n/a
151.6251	n/a	RESPONSE	n/a	n/a	n/a	n/a	n/a	n/a	n/a	green
151.6508	1.0167	ITI	n/a	n/a	n/a	n/a	n/a	n/a	n/a	n/a
152.6675	0.5167	FIXCROSS	n/a	n/a	n/a	n/a	n/a	n/a	n/a	n/a
153.1842	1.7667	INK	17	Neutral	xxxxxxx	xxxxxxx	niebieski	blue	hit	n/a
154.9174	n/a	RESPONSE	n/a	n/a	n/a	n/a	n/a	n/a	n/a	blue
154.9508	1.0167	ITI	n/a	n/a	n/a	n/a	n/a	n/a	n/a	n/a
155.9675	0.5167	FIXCROSS	n/a	n/a	n/a	n/a	n/a	n/a	n/a	n/a
156.4842	0.9	INK	18	Incongruent	zielony	green	czerwony	red	hit	n/a
157.3626	n/a	RESPONSE	n/a	n/a	n/a	n/a	n/a	n/a	n/a	red
157.3842	1.0167	ITI	n/a	n/a	n/a	n/a	n/a	n/a	n/a	n/a
158.4009	0.5167	FIXCROSS	n/a	n/a	n/a	n/a	n/a	n/a	n/a	n/a
158.9175	1.2833	INK	19	Neutral	xxxxxxx	xxxxxxx	niebieski	blue	hit	n/a
160.1754	n/a	RESPONSE	n/a	n/a	n/a	n/a	n/a	n/a	n/a	blue
160.2009	1.0167	ITI	n/a	n/a	n/a	n/a	n/a	n/a	n/a	n/a
161.2176	0.5167	FIXCROSS	n/a	n/a	n/a	n/a	n/a	n/a	n/a	n/a
161.7342	1.6	INK	20	Incongruent	zielony	green	czerwony	red	hit	n/a
163.3077	n/a	RESPONSE	n/a	n/a	n/a	n/a	n/a	n/a	n/a	red
163.3342	1.0167	ITI	n/a	n/a	n/a	n/a	n/a	n/a	n/a	n/a
164.3509	0.5167	FIXCROSS	n/a	n/a	n/a	n/a	n/a	n/a	n/a	n/a
164.8676	1.1167	INK	21	Incongruent	niebieski	blue	żółty	yellow	hit	n/a
165.9607	n/a	RESPONSE	n/a	n/a	n/a	n/a	n/a	n/a	n/a	yellow
165.9843	1.0167	ITI	n/a	n/a	n/a	n/a	n/a	n/a	n/a	n/a
167.0009	0.5167	FIXCROSS	n/a	n/a	n/a	n/a	n/a	n/a	n/a	n/a
167.5176	1.0667	INK	22	Neutral	xxxxxxxxx	xxxxxxxxx	czerwony	red	hit	n/a
168.5657	n/a	RESPONSE	n/a	n/a	n/a	n/a	n/a	n/a	n/a	red
168.5843	1.0167	ITI	n/a	n/a	n/a	n/a	n/a	n/a	n/a	n/a
169.6009	0.5167	FIXCROSS	n/a	n/a	n/a	n/a	n/a	n/a	n/a	n/a
170.1176	1.0	INK	23	Neutral	xxxxxxxx	xxxxxxxx	żółty	yellow	hit	n/a
171.0908	n/a	RESPONSE	n/a	n/a	n/a	n/a	n/a	n/a	n/a	yellow
171.1176	1.0167	ITI	n/a	n/a	n/a	n/a	n/a	n/a	n/a	n/a
172.1343	0.5167	FIXCROSS	n/a	n/a	n/a	n/a	n/a	n/a	n/a	n/a
172.651	1.0833	INK	24	Incongruent	zielony	green	niebieski	blue	hit	n/a
173.7118	n/a	RESPONSE	n/a	n/a	n/a	n/a	n/a	n/a	n/a	blue
173.7343	1.0167	ITI	n/a	n/a	n/a	n/a	n/a	n/a	n/a	n/a
174.751	0.5167	FIXCROSS	n/a	n/a	n/a	n/a	n/a	n/a	n/a	n/a
175.2677	1.0167	INK	25	Neutral	xxxxxxxxx	xxxxxxxxx	żółty	yellow	hit	n/a
176.2528	n/a	RESPONSE	n/a	n/a	n/a	n/a	n/a	n/a	n/a	yellow
176.2843	1.0167	ITI	n/a	n/a	n/a	n/a	n/a	n/a	n/a	n/a
177.301	0.5167	FIXCROSS	n/a	n/a	n/a	n/a	n/a	n/a	n/a	n/a
177.8177	0.8833	INK	26	Incongruent	czerwony	red	zielony	green	hit	n/a
178.682	n/a	RESPONSE	n/a	n/a	n/a	n/a	n/a	n/a	n/a	green
178.701	1.0167	ITI	n/a	n/a	n/a	n/a	n/a	n/a	n/a	n/a
179.7177	0.5167	FIXCROSS	n/a	n/a	n/a	n/a	n/a	n/a	n/a	n/a
180.2344	1.3167	INK	27	Neutral	xxxxxxxxx	xxxxxxxxx	czerwony	red	hit	n/a
181.5267	n/a	RESPONSE	n/a	n/a	n/a	n/a	n/a	n/a	n/a	red
181.551	1.0167	ITI	n/a	n/a	n/a	n/a	n/a	n/a	n/a	n/a
182.5677	0.5167	FIXCROSS	n/a	n/a	n/a	n/a	n/a	n/a	n/a	n/a
183.0844	1.2333	INK	28	Neutral	xxxxx	xxxxx	niebieski	blue	hit	n/a
184.2915	n/a	RESPONSE	n/a	n/a	n/a	n/a	n/a	n/a	n/a	blue
184.3177	1.0167	ITI	n/a	n/a	n/a	n/a	n/a	n/a	n/a	n/a
185.3344	0.5167	FIXCROSS	n/a	n/a	n/a	n/a	n/a	n/a	n/a	n/a
185.8511	1.0167	INK	29	Incongruent	zielony	green	czerwony	red	hit	n/a
186.8485	n/a	RESPONSE	n/a	n/a	n/a	n/a	n/a	n/a	n/a	red
186.8677	1.0167	ITI	n/a	n/a	n/a	n/a	n/a	n/a	n/a	n/a
187.8844	0.5167	FIXCROSS	n/a	n/a	n/a	n/a	n/a	n/a	n/a	n/a
188.4011	1.15	INK	30	Incongruent	czerwony	red	niebieski	blue	hit	n/a
189.5175	n/a	RESPONSE	n/a	n/a	n/a	n/a	n/a	n/a	n/a	blue
189.5511	1.0167	ITI	n/a	n/a	n/a	n/a	n/a	n/a	n/a	n/a
190.5678	0.5167	FIXCROSS	n/a	n/a	n/a	n/a	n/a	n/a	n/a	n/a
191.0844	1.0167	INK	31	Neutral	xxxxxxxxx	xxxxxxxxx	czerwony	red	hit	n/a
192.0745	n/a	RESPONSE	n/a	n/a	n/a	n/a	n/a	n/a	n/a	red
192.1011	1.0167	ITI	n/a	n/a	n/a	n/a	n/a	n/a	n/a	n/a
193.1178	0.5167	FIXCROSS	n/a	n/a	n/a	n/a	n/a	n/a	n/a	n/a
193.6345	0.9333	INK	32	Neutral	xxxxx	xxxxx	niebieski	blue	hit	n/a
194.5356	n/a	RESPONSE	n/a	n/a	n/a	n/a	n/a	n/a	n/a	blue
194.5678	1.0167	ITI	n/a	n/a	n/a	n/a	n/a	n/a	n/a	n/a
195.5845	0.5167	FIXCROSS	n/a	n/a	n/a	n/a	n/a	n/a	n/a	n/a
196.1011	0.8667	INK	33	Neutral	xxxxxxxx	xxxxxxxx	niebieski	blue	hit	n/a
196.9489	n/a	RESPONSE	n/a	n/a	n/a	n/a	n/a	n/a	n/a	blue
196.9678	1.0167	ITI	n/a	n/a	n/a	n/a	n/a	n/a	n/a	n/a
197.9845	0.5167	FIXCROSS	n/a	n/a	n/a	n/a	n/a	n/a	n/a	n/a
198.5012	1.0333	INK	34	Neutral	xxxxxxx	xxxxxxx	czerwony	red	hit	n/a
199.5058	n/a	RESPONSE	n/a	n/a	n/a	n/a	n/a	n/a	n/a	red
199.5345	1.0167	ITI	n/a	n/a	n/a	n/a	n/a	n/a	n/a	n/a
200.5512	0.5167	FIXCROSS	n/a	n/a	n/a	n/a	n/a	n/a	n/a	n/a
201.0678	1.5	INK	35	Neutral	xxxxxxxxx	xxxxxxxxx	zielony	green	hit	n/a
202.5424	n/a	RESPONSE	n/a	n/a	n/a	n/a	n/a	n/a	n/a	green
202.5678	1.0167	ITI	n/a	n/a	n/a	n/a	n/a	n/a	n/a	n/a
203.5845	0.5167	FIXCROSS	n/a	n/a	n/a	n/a	n/a	n/a	n/a	n/a
204.1012	1.0833	INK	36	Incongruent	żółty	yellow	zielony	green	hit	n/a
205.1632	n/a	RESPONSE	n/a	n/a	n/a	n/a	n/a	n/a	n/a	green
205.1845	1.0167	ITI	n/a	n/a	n/a	n/a	n/a	n/a	n/a	n/a
206.2012	0.5167	FIXCROSS	n/a	n/a	n/a	n/a	n/a	n/a	n/a	n/a
206.7179	1.7	INK	37	Incongruent	czerwony	red	zielony	green	hit	n/a
208.3916	n/a	RESPONSE	n/a	n/a	n/a	n/a	n/a	n/a	n/a	green
208.4179	1.0167	ITI	n/a	n/a	n/a	n/a	n/a	n/a	n/a	n/a
209.4346	0.5167	FIXCROSS	n/a	n/a	n/a	n/a	n/a	n/a	n/a	n/a
209.9512	0.8	INK	38	Incongruent	zielony	green	żółty	yellow	hit	n/a
210.7249	n/a	RESPONSE	n/a	n/a	n/a	n/a	n/a	n/a	n/a	yellow
210.7512	1.0167	ITI	n/a	n/a	n/a	n/a	n/a	n/a	n/a	n/a
211.7679	0.5167	FIXCROSS	n/a	n/a	n/a	n/a	n/a	n/a	n/a	n/a
212.2846	1.25	INK	39	Incongruent	niebieski	blue	czerwony	red	hit	n/a
213.5056	n/a	RESPONSE	n/a	n/a	n/a	n/a	n/a	n/a	n/a	red
213.5346	1.0167	ITI	n/a	n/a	n/a	n/a	n/a	n/a	n/a	n/a
214.5513	0.5167	FIXCROSS	n/a	n/a	n/a	n/a	n/a	n/a	n/a	n/a
215.0679	1.2	INK	40	Neutral	xxxxxxxx	xxxxxxxx	zielony	green	hit	n/a
216.2385	n/a	RESPONSE	n/a	n/a	n/a	n/a	n/a	n/a	n/a	green
216.268	1.0167	ITI	n/a	n/a	n/a	n/a	n/a	n/a	n/a	n/a
217.2846	0.5167	FIXCROSS	n/a	n/a	n/a	n/a	n/a	n/a	n/a	n/a
217.8013	0.95	INK	41	Neutral	xxxxxxxx	xxxxxxxx	zielony	green	hit	n/a
218.7315	n/a	RESPONSE	n/a	n/a	n/a	n/a	n/a	n/a	n/a	green
218.7513	1.0167	ITI	n/a	n/a	n/a	n/a	n/a	n/a	n/a	n/a
219.768	0.5167	FIXCROSS	n/a	n/a	n/a	n/a	n/a	n/a	n/a	n/a
220.2846	1.0	INK	42	Neutral	xxxxxxx	xxxxxxx	żółty	yellow	hit	n/a
221.2566	n/a	RESPONSE	n/a	n/a	n/a	n/a	n/a	n/a	n/a	yellow
221.2847	1.0165	ITI	n/a	n/a	n/a	n/a	n/a	n/a	n/a	n/a
222.3012	0.5168	FIXCROSS	n/a	n/a	n/a	n/a	n/a	n/a	n/a	n/a
222.818	1.3	INK	43	Incongruent	żółty	yellow	niebieski	blue	hit	n/a
224.0853	n/a	RESPONSE	n/a	n/a	n/a	n/a	n/a	n/a	n/a	blue
224.118	1.0167	ITI	n/a	n/a	n/a	n/a	n/a	n/a	n/a	n/a
225.1347	0.5167	FIXCROSS	n/a	n/a	n/a	n/a	n/a	n/a	n/a	n/a
225.6513	1.1	INK	44	Neutral	xxxxxxxxx	xxxxxxxxx	zielony	green	hit	n/a
226.7221	n/a	RESPONSE	n/a	n/a	n/a	n/a	n/a	n/a	n/a	green
226.7514	1.0167	ITI	n/a	n/a	n/a	n/a	n/a	n/a	n/a	n/a
227.768	0.5167	FIXCROSS	n/a	n/a	n/a	n/a	n/a	n/a	n/a	n/a
228.2847	1.15	INK	45	Incongruent	zielony	green	żółty	yellow	hit	n/a
229.4071	n/a	RESPONSE	n/a	n/a	n/a	n/a	n/a	n/a	n/a	yellow
229.4347	1.0167	ITI	n/a	n/a	n/a	n/a	n/a	n/a	n/a	n/a
230.4514	0.5167	FIXCROSS	n/a	n/a	n/a	n/a	n/a	n/a	n/a	n/a
230.9681	0.8167	INK	46	Incongruent	czerwony	red	żółty	yellow	hit	n/a
231.7563	n/a	RESPONSE	n/a	n/a	n/a	n/a	n/a	n/a	n/a	yellow
231.7847	1.0167	ITI	n/a	n/a	n/a	n/a	n/a	n/a	n/a	n/a
232.8014	0.5167	FIXCROSS	n/a	n/a	n/a	n/a	n/a	n/a	n/a	n/a
233.3181	2.1667	INK	47	Incongruent	niebieski	blue	zielony	green	hit	n/a
235.464	n/a	RESPONSE	n/a	n/a	n/a	n/a	n/a	n/a	n/a	green
235.4848	1.0167	ITI	n/a	n/a	n/a	n/a	n/a	n/a	n/a	n/a
236.5014	0.5167	FIXCROSS	n/a	n/a	n/a	n/a	n/a	n/a	n/a	n/a
237.0181	1.2333	INK	48	Neutral	xxxxx	xxxxx	zielony	green	hit	n/a
238.2289	n/a	RESPONSE	n/a	n/a	n/a	n/a	n/a	n/a	n/a	green
238.2514	1.0167	ITI	n/a	n/a	n/a	n/a	n/a	n/a	n/a	n/a
239.2681	0.5167	FIXCROSS	n/a	n/a	n/a	n/a	n/a	n/a	n/a	n/a
239.7848	1.2833	INK	49	Incongruent	żółty	yellow	niebieski	blue	hit	n/a
241.0417	n/a	RESPONSE	n/a	n/a	n/a	n/a	n/a	n/a	n/a	blue
241.0681	1.0167	ITI	n/a	n/a	n/a	n/a	n/a	n/a	n/a	n/a
242.0848	0.5167	FIXCROSS	n/a	n/a	n/a	n/a	n/a	n/a	n/a	n/a
242.6015	1.7834	INK	50	Incongruent	żółty	yellow	czerwony	red	hit	n/a
244.3658	n/a	RESPONSE	n/a	n/a	n/a	n/a	n/a	n/a	n/a	red
244.3848	1.0167	ITI	n/a	n/a	n/a	n/a	n/a	n/a	n/a	n/a
245.4015	0.5167	FIXCROSS	n/a	n/a	n/a	n/a	n/a	n/a	n/a	n/a
245.9182	0.9	INK	51	Neutral	xxxxxxxxx	xxxxxxxxx	żółty	yellow	hit	n/a
246.7949	n/a	RESPONSE	n/a	n/a	n/a	n/a	n/a	n/a	n/a	yellow
246.8182	1.0167	ITI	n/a	n/a	n/a	n/a	n/a	n/a	n/a	n/a
247.8348	0.5167	FIXCROSS	n/a	n/a	n/a	n/a	n/a	n/a	n/a	n/a
248.3515	1.4834	INK	52	Neutral	xxxxxxxx	xxxxxxxx	zielony	green	hit	n/a
249.8155	n/a	RESPONSE	n/a	n/a	n/a	n/a	n/a	n/a	n/a	green
249.8349	1.0167	ITI	n/a	n/a	n/a	n/a	n/a	n/a	n/a	n/a
250.8515	0.5167	FIXCROSS	n/a	n/a	n/a	n/a	n/a	n/a	n/a	n/a
251.3682	1.15	INK	53	Incongruent	niebieski	blue	zielony	green	hit	n/a
252.5003	n/a	RESPONSE	n/a	n/a	n/a	n/a	n/a	n/a	n/a	green
252.5182	1.0167	ITI	n/a	n/a	n/a	n/a	n/a	n/a	n/a	n/a
253.5349	0.5167	FIXCROSS	n/a	n/a	n/a	n/a	n/a	n/a	n/a	n/a
254.0516	1.3834	INK	54	Incongruent	niebieski	blue	czerwony	red	hit	n/a
255.4089	n/a	RESPONSE	n/a	n/a	n/a	n/a	n/a	n/a	n/a	red
255.4349	1.0167	ITI	n/a	n/a	n/a	n/a	n/a	n/a	n/a	n/a
256.4516	0.5167	FIXCROSS	n/a	n/a	n/a	n/a	n/a	n/a	n/a	n/a
256.9682	1.0667	INK	55	Incongruent	czerwony	red	zielony	green	hit	n/a
258.0139	n/a	RESPONSE	n/a	n/a	n/a	n/a	n/a	n/a	n/a	green
258.0349	1.0167	ITI	n/a	n/a	n/a	n/a	n/a	n/a	n/a	n/a
259.0516	0.5167	FIXCROSS	n/a	n/a	n/a	n/a	n/a	n/a	n/a	n/a
259.5683	0.7167	INK	56	Incongruent	żółty	yellow	zielony	green	hit	n/a
260.2514	n/a	RESPONSE	n/a	n/a	n/a	n/a	n/a	n/a	n/a	green
260.2849	1.0166	ITI	n/a	n/a	n/a	n/a	n/a	n/a	n/a	n/a
261.3015	0.5168	FIXCROSS	n/a	n/a	n/a	n/a	n/a	n/a	n/a	n/a
261.8183	0.8333	INK	57	Neutral	xxxxxxx	xxxxxxx	żółty	yellow	hit	n/a
262.6326	n/a	RESPONSE	n/a	n/a	n/a	n/a	n/a	n/a	n/a	yellow
262.6516	1.0167	ITI	n/a	n/a	n/a	n/a	n/a	n/a	n/a	n/a
263.6683	0.5167	FIXCROSS	n/a	n/a	n/a	n/a	n/a	n/a	n/a	n/a
264.185	1.2667	INK	58	Incongruent	czerwony	red	niebieski	blue	hit	n/a
265.4293	n/a	RESPONSE	n/a	n/a	n/a	n/a	n/a	n/a	n/a	blue
265.4516	1.0167	ITI	n/a	n/a	n/a	n/a	n/a	n/a	n/a	n/a
266.4683	0.5167	FIXCROSS	n/a	n/a	n/a	n/a	n/a	n/a	n/a	n/a
266.985	0.9667	INK	59	Neutral	xxxxxxxx	xxxxxxxx	niebieski	blue	hit	n/a
267.9225	n/a	RESPONSE	n/a	n/a	n/a	n/a	n/a	n/a	n/a	blue
267.9517	1.0167	ITI	n/a	n/a	n/a	n/a	n/a	n/a	n/a	n/a
268.9683	0.5167	FIXCROSS	n/a	n/a	n/a	n/a	n/a	n/a	n/a	n/a
269.485	0.7667	INK	60	Incongruent	żółty	yellow	niebieski	blue	hit	n/a
270.2239	n/a	RESPONSE	n/a	n/a	n/a	n/a	n/a	n/a	n/a	blue
270.2517	1.0167	ITI	n/a	n/a	n/a	n/a	n/a	n/a	n/a	n/a
271.2683	0.5167	FIXCROSS	n/a	n/a	n/a	n/a	n/a	n/a	n/a	n/a
271.785	1.3333	INK	61	Incongruent	żółty	yellow	zielony	green	hit	n/a
273.1006	n/a	RESPONSE	n/a	n/a	n/a	n/a	n/a	n/a	n/a	green
273.1184	1.0167	ITI	n/a	n/a	n/a	n/a	n/a	n/a	n/a	n/a
274.135	0.5167	FIXCROSS	n/a	n/a	n/a	n/a	n/a	n/a	n/a	n/a
274.6517	0.95	INK	62	Neutral	xxxxx	xxxxx	czerwony	red	hit	n/a
275.5778	n/a	RESPONSE	n/a	n/a	n/a	n/a	n/a	n/a	n/a	red
275.6017	1.0167	ITI	n/a	n/a	n/a	n/a	n/a	n/a	n/a	n/a
276.6184	0.5167	FIXCROSS	n/a	n/a	n/a	n/a	n/a	n/a	n/a	n/a
277.1351	1.0167	INK	63	Neutral	xxxxx	xxxxx	zielony	green	hit	n/a
278.1189	n/a	RESPONSE	n/a	n/a	n/a	n/a	n/a	n/a	n/a	green
278.1517	1.0167	ITI	n/a	n/a	n/a	n/a	n/a	n/a	n/a	n/a
279.1684	0.5167	FIXCROSS	n/a	n/a	n/a	n/a	n/a	n/a	n/a	n/a
279.6851	1.2	INK	64	Incongruent	czerwony	red	żółty	yellow	hit	n/a
280.8517	n/a	RESPONSE	n/a	n/a	n/a	n/a	n/a	n/a	n/a	yellow
280.8851	1.0167	ITI	n/a	n/a	n/a	n/a	n/a	n/a	n/a	n/a
281.9018	0.5167	FIXCROSS	n/a	n/a	n/a	n/a	n/a	n/a	n/a	n/a
282.4184	0.9667	INK	65	Incongruent	żółty	yellow	czerwony	red	hit	n/a
283.3608	n/a	RESPONSE	n/a	n/a	n/a	n/a	n/a	n/a	n/a	red
283.3851	1.0167	ITI	n/a	n/a	n/a	n/a	n/a	n/a	n/a	n/a
284.4018	0.5167	FIXCROSS	n/a	n/a	n/a	n/a	n/a	n/a	n/a	n/a
284.9184	0.75	INK	66	Incongruent	niebieski	blue	zielony	green	hit	n/a
285.6463	n/a	RESPONSE	n/a	n/a	n/a	n/a	n/a	n/a	n/a	green
285.6684	1.0167	ITI	n/a	n/a	n/a	n/a	n/a	n/a	n/a	n/a
286.6851	0.5167	FIXCROSS	n/a	n/a	n/a	n/a	n/a	n/a	n/a	n/a
287.2018	1.3333	INK	67	Neutral	xxxxx	xxxxx	czerwony	red	hit	n/a
288.507	n/a	RESPONSE	n/a	n/a	n/a	n/a	n/a	n/a	n/a	red
288.5351	1.0167	ITI	n/a	n/a	n/a	n/a	n/a	n/a	n/a	n/a
289.5518	0.5167	FIXCROSS	n/a	n/a	n/a	n/a	n/a	n/a	n/a	n/a
290.0685	0.8833	INK	68	Incongruent	żółty	yellow	czerwony	red	hit	n/a
290.9202	n/a	RESPONSE	n/a	n/a	n/a	n/a	n/a	n/a	n/a	red
290.9518	1.0167	ITI	n/a	n/a	n/a	n/a	n/a	n/a	n/a	n/a
291.9685	0.5167	FIXCROSS	n/a	n/a	n/a	n/a	n/a	n/a	n/a	n/a
292.4852	0.8	INK	69	Incongruent	czerwony	red	żółty	yellow	hit	n/a
293.2535	n/a	RESPONSE	n/a	n/a	n/a	n/a	n/a	n/a	n/a	yellow
293.2852	1.0167	ITI	n/a	n/a	n/a	n/a	n/a	n/a	n/a	n/a
294.3018	0.5167	FIXCROSS	n/a	n/a	n/a	n/a	n/a	n/a	n/a	n/a
294.8185	0.7833	INK	70	Incongruent	zielony	green	niebieski	blue	hit	n/a
295.5709	n/a	RESPONSE	n/a	n/a	n/a	n/a	n/a	n/a	n/a	blue
295.6019	1.0167	ITI	n/a	n/a	n/a	n/a	n/a	n/a	n/a	n/a
296.6185	0.5167	FIXCROSS	n/a	n/a	n/a	n/a	n/a	n/a	n/a	n/a
297.1352	0.7333	INK	71	Neutral	xxxxxxxxx	xxxxxxxxx	żółty	yellow	hit	n/a
297.8402	n/a	RESPONSE	n/a	n/a	n/a	n/a	n/a	n/a	n/a	yellow
297.8685	1.0167	ITI	n/a	n/a	n/a	n/a	n/a	n/a	n/a	n/a
298.8852	0.5167	FIXCROSS	n/a	n/a	n/a	n/a	n/a	n/a	n/a	n/a
299.4019	0.9167	INK	72	Incongruent	niebieski	blue	żółty	yellow	hit	n/a
300.2855	n/a	RESPONSE	n/a	n/a	n/a	n/a	n/a	n/a	n/a	yellow
300.3186	1.0833	ITI	n/a	n/a	n/a	n/a	n/a	n/a	n/a	n/a
330.619	n/a	RESPONSE	n/a	n/a	n/a	n/a	n/a	n/a	n/a	n/a
330.6854	1.0167	ITI	n/a	n/a	n/a	n/a	n/a	n/a	n/a	n/a
331.7021	0.5167	FIXCROSS	n/a	n/a	n/a	n/a	n/a	n/a	n/a	n/a
332.2188	1.55	T_COLOR_NAME	1	Neutral	czerwony	red	Neutral	Neutral	hit	n/a
333.7355	n/a	RESPONSE	n/a	n/a	n/a	n/a	n/a	n/a	n/a	red
333.7688	0.5167	FEEDBACK	n/a	n/a	n/a	n/a	n/a	n/a	n/a	n/a
334.2855	1.0167	ITI	n/a	n/a	n/a	n/a	n/a	n/a	n/a	n/a
335.3021	0.5167	FIXCROSS	n/a	n/a	n/a	n/a	n/a	n/a	n/a	n/a
335.8188	1.1333	T_COLOR_NAME	2	Neutral	niebieski	blue	Neutral	Neutral	hit	n/a
336.9159	n/a	RESPONSE	n/a	n/a	n/a	n/a	n/a	n/a	n/a	blue
336.9521	0.5167	FEEDBACK	n/a	n/a	n/a	n/a	n/a	n/a	n/a	n/a
337.4688	1.0167	ITI	n/a	n/a	n/a	n/a	n/a	n/a	n/a	n/a
338.4855	0.5167	FIXCROSS	n/a	n/a	n/a	n/a	n/a	n/a	n/a	n/a
339.0022	3.0834	T_COLOR_NAME	3	Incongruent	żółty	yellow	czerwony	red	hit	n/a
342.0621	n/a	RESPONSE	n/a	n/a	n/a	n/a	n/a	n/a	n/a	yellow
342.0855	0.5167	FEEDBACK	n/a	n/a	n/a	n/a	n/a	n/a	n/a	n/a
342.6022	1.0167	ITI	n/a	n/a	n/a	n/a	n/a	n/a	n/a	n/a
343.6189	0.5167	FIXCROSS	n/a	n/a	n/a	n/a	n/a	n/a	n/a	n/a
344.1355	1.1	T_COLOR_NAME	4	Neutral	niebieski	blue	Neutral	Neutral	hit	n/a
345.2106	n/a	RESPONSE	n/a	n/a	n/a	n/a	n/a	n/a	n/a	blue
345.2355	0.5167	FEEDBACK	n/a	n/a	n/a	n/a	n/a	n/a	n/a	n/a
345.7522	1.0167	ITI	n/a	n/a	n/a	n/a	n/a	n/a	n/a	n/a
346.7689	0.5167	FIXCROSS	n/a	n/a	n/a	n/a	n/a	n/a	n/a	n/a
347.2856	1.5667	T_COLOR_NAME	5	Neutral	niebieski	blue	Neutral	Neutral	hit	n/a
348.8225	n/a	RESPONSE	n/a	n/a	n/a	n/a	n/a	n/a	n/a	blue
348.8522	0.5167	FEEDBACK	n/a	n/a	n/a	n/a	n/a	n/a	n/a	n/a
349.3689	1.0167	ITI	n/a	n/a	n/a	n/a	n/a	n/a	n/a	n/a
350.3856	0.5167	FIXCROSS	n/a	n/a	n/a	n/a	n/a	n/a	n/a	n/a
350.9022	1.05	T_COLOR_NAME	6	Incongruent	żółty	yellow	niebieski	blue	hit	n/a
351.923	n/a	RESPONSE	n/a	n/a	n/a	n/a	n/a	n/a	n/a	yellow
351.9523	0.5167	FEEDBACK	n/a	n/a	n/a	n/a	n/a	n/a	n/a	n/a
352.4689	1.0167	ITI	n/a	n/a	n/a	n/a	n/a	n/a	n/a	n/a
353.4856	0.5167	FIXCROSS	n/a	n/a	n/a	n/a	n/a	n/a	n/a	n/a
354.0023	0.9667	T_COLOR_NAME	7	Incongruent	czerwony	red	żółty	yellow	hit	n/a
354.9436	n/a	RESPONSE	n/a	n/a	n/a	n/a	n/a	n/a	n/a	red
354.9689	0.5167	FEEDBACK	n/a	n/a	n/a	n/a	n/a	n/a	n/a	n/a
355.4856	1.0167	ITI	n/a	n/a	n/a	n/a	n/a	n/a	n/a	n/a
356.5023	0.5167	FIXCROSS	n/a	n/a	n/a	n/a	n/a	n/a	n/a	n/a
357.019	0.9	T_COLOR_NAME	8	Neutral	czerwony	red	Neutral	Neutral	hit	n/a
357.8842	n/a	RESPONSE	n/a	n/a	n/a	n/a	n/a	n/a	n/a	red
357.919	0.5167	FEEDBACK	n/a	n/a	n/a	n/a	n/a	n/a	n/a	n/a
358.4356	1.0167	ITI	n/a	n/a	n/a	n/a	n/a	n/a	n/a	n/a
359.4523	0.5167	FIXCROSS	n/a	n/a	n/a	n/a	n/a	n/a	n/a	n/a
359.969	1.4833	T_COLOR_NAME	9	Incongruent	zielony	green	żółty	yellow	hit	n/a
361.4321	n/a	RESPONSE	n/a	n/a	n/a	n/a	n/a	n/a	n/a	green
361.4523	0.5167	FEEDBACK	n/a	n/a	n/a	n/a	n/a	n/a	n/a	n/a
361.969	1.0167	ITI	n/a	n/a	n/a	n/a	n/a	n/a	n/a	n/a
362.9857	0.5167	FIXCROSS	n/a	n/a	n/a	n/a	n/a	n/a	n/a	n/a
363.5023	1.0167	T_COLOR_NAME	10	Incongruent	niebieski	blue	czerwony	red	hit	n/a
364.4847	n/a	RESPONSE	n/a	n/a	n/a	n/a	n/a	n/a	n/a	blue
364.519	0.5167	FEEDBACK	n/a	n/a	n/a	n/a	n/a	n/a	n/a	n/a
365.0357	1.0167	ITI	n/a	n/a	n/a	n/a	n/a	n/a	n/a	n/a
366.0524	0.5167	FIXCROSS	n/a	n/a	n/a	n/a	n/a	n/a	n/a	n/a
366.569	0.95	T_COLOR_NAME	11	Neutral	czerwony	red	Neutral	Neutral	hit	n/a
367.4893	n/a	RESPONSE	n/a	n/a	n/a	n/a	n/a	n/a	n/a	red
367.519	0.5167	FEEDBACK	n/a	n/a	n/a	n/a	n/a	n/a	n/a	n/a
368.0357	1.0167	ITI	n/a	n/a	n/a	n/a	n/a	n/a	n/a	n/a
369.0524	0.5167	FIXCROSS	n/a	n/a	n/a	n/a	n/a	n/a	n/a	n/a
369.569	1.05	T_COLOR_NAME	12	Neutral	zielony	green	Neutral	Neutral	hit	n/a
370.5899	n/a	RESPONSE	n/a	n/a	n/a	n/a	n/a	n/a	n/a	green
370.6191	0.5167	FEEDBACK	n/a	n/a	n/a	n/a	n/a	n/a	n/a	n/a
371.1357	1.0333	ITI	n/a	n/a	n/a	n/a	n/a	n/a	n/a	n/a
374.873	n/a	RESPONSE	n/a	n/a	n/a	n/a	n/a	n/a	n/a	n/a
374.9357	1.0167	ITI	n/a	n/a	n/a	n/a	n/a	n/a	n/a	n/a
375.9524	0.5167	FIXCROSS	n/a	n/a	n/a	n/a	n/a	n/a	n/a	n/a
376.4691	1.2333	COLOR_NAME	1	Neutral	zielony	green	Neutral	Neutral	hit	n/a
377.6698	n/a	RESPONSE	n/a	n/a	n/a	n/a	n/a	n/a	n/a	green
377.7024	1.0167	ITI	n/a	n/a	n/a	n/a	n/a	n/a	n/a	n/a
378.7191	0.5167	FIXCROSS	n/a	n/a	n/a	n/a	n/a	n/a	n/a	n/a
379.2358	0.8167	COLOR_NAME	2	Neutral	zielony	green	Neutral	Neutral	hit	n/a
380.0192	n/a	RESPONSE	n/a	n/a	n/a	n/a	n/a	n/a	n/a	green
380.0525	1.0167	ITI	n/a	n/a	n/a	n/a	n/a	n/a	n/a	n/a
381.0691	0.5167	FIXCROSS	n/a	n/a	n/a	n/a	n/a	n/a	n/a	n/a
381.5858	1.25	COLOR_NAME	3	Neutral	niebieski	blue	Neutral	Neutral	hit	n/a
382.8161	n/a	RESPONSE	n/a	n/a	n/a	n/a	n/a	n/a	n/a	blue
382.8358	1.0167	ITI	n/a	n/a	n/a	n/a	n/a	n/a	n/a	n/a
383.8525	0.5167	FIXCROSS	n/a	n/a	n/a	n/a	n/a	n/a	n/a	n/a
384.3692	1.2333	COLOR_NAME	4	Neutral	zielony	green	Neutral	Neutral	hit	n/a
385.5808	n/a	RESPONSE	n/a	n/a	n/a	n/a	n/a	n/a	n/a	green
385.6025	1.0167	ITI	n/a	n/a	n/a	n/a	n/a	n/a	n/a	n/a
386.6192	0.5167	FIXCROSS	n/a	n/a	n/a	n/a	n/a	n/a	n/a	n/a
387.1358	1.25	COLOR_NAME	5	Incongruent	żółty	yellow	niebieski	blue	hit	n/a
388.3618	n/a	RESPONSE	n/a	n/a	n/a	n/a	n/a	n/a	n/a	yellow
388.3859	1.0167	ITI	n/a	n/a	n/a	n/a	n/a	n/a	n/a	n/a
389.4025	0.5167	FIXCROSS	n/a	n/a	n/a	n/a	n/a	n/a	n/a	n/a
389.9192	1.0333	COLOR_NAME	6	Neutral	niebieski	blue	Neutral	Neutral	hit	n/a
390.9349	n/a	RESPONSE	n/a	n/a	n/a	n/a	n/a	n/a	n/a	blue
390.9525	1.0167	ITI	n/a	n/a	n/a	n/a	n/a	n/a	n/a	n/a
391.9692	0.5167	FIXCROSS	n/a	n/a	n/a	n/a	n/a	n/a	n/a	n/a
392.4859	2.5167	COLOR_NAME	7	Incongruent	niebieski	blue	czerwony	red	hit	n/a
394.9784	n/a	RESPONSE	n/a	n/a	n/a	n/a	n/a	n/a	n/a	blue
395.0026	1.0167	ITI	n/a	n/a	n/a	n/a	n/a	n/a	n/a	n/a
396.0192	0.5167	FIXCROSS	n/a	n/a	n/a	n/a	n/a	n/a	n/a	n/a
396.5359	1.1333	COLOR_NAME	8	Neutral	czerwony	red	Neutral	Neutral	hit	n/a
397.6473	n/a	RESPONSE	n/a	n/a	n/a	n/a	n/a	n/a	n/a	red
397.6692	1.0167	ITI	n/a	n/a	n/a	n/a	n/a	n/a	n/a	n/a
398.6859	0.5167	FIXCROSS	n/a	n/a	n/a	n/a	n/a	n/a	n/a	n/a
399.2026	1.2667	COLOR_NAME	9	Neutral	niebieski	blue	Neutral	Neutral	hit	n/a
400.4442	n/a	RESPONSE	n/a	n/a	n/a	n/a	n/a	n/a	n/a	blue
400.4693	1.0167	ITI	n/a	n/a	n/a	n/a	n/a	n/a	n/a	n/a
401.4859	0.5167	FIXCROSS	n/a	n/a	n/a	n/a	n/a	n/a	n/a	n/a
402.0026	0.9833	COLOR_NAME	10	Neutral	czerwony	red	Neutral	Neutral	hit	n/a
402.9533	n/a	RESPONSE	n/a	n/a	n/a	n/a	n/a	n/a	n/a	red
402.986	1.0167	ITI	n/a	n/a	n/a	n/a	n/a	n/a	n/a	n/a
404.0026	0.5167	FIXCROSS	n/a	n/a	n/a	n/a	n/a	n/a	n/a	n/a
404.5193	0.8667	COLOR_NAME	11	Neutral	czerwony	red	Neutral	Neutral	hit	n/a
405.3666	n/a	RESPONSE	n/a	n/a	n/a	n/a	n/a	n/a	n/a	red
405.386	1.0167	ITI	n/a	n/a	n/a	n/a	n/a	n/a	n/a	n/a
406.4026	0.5167	FIXCROSS	n/a	n/a	n/a	n/a	n/a	n/a	n/a	n/a
406.9193	0.7167	COLOR_NAME	12	Neutral	żółty	yellow	Neutral	Neutral	hit	n/a
407.6041	n/a	RESPONSE	n/a	n/a	n/a	n/a	n/a	n/a	n/a	yellow
407.636	1.0167	ITI	n/a	n/a	n/a	n/a	n/a	n/a	n/a	n/a
408.6527	0.5167	FIXCROSS	n/a	n/a	n/a	n/a	n/a	n/a	n/a	n/a
409.1693	0.9	COLOR_NAME	13	Neutral	niebieski	blue	Neutral	Neutral	hit	n/a
410.0493	n/a	RESPONSE	n/a	n/a	n/a	n/a	n/a	n/a	n/a	blue
410.0693	1.0167	ITI	n/a	n/a	n/a	n/a	n/a	n/a	n/a	n/a
411.086	0.5167	FIXCROSS	n/a	n/a	n/a	n/a	n/a	n/a	n/a	n/a
411.6027	1.1667	COLOR_NAME	14	Neutral	zielony	green	Neutral	Neutral	hit	n/a
412.7503	n/a	RESPONSE	n/a	n/a	n/a	n/a	n/a	n/a	n/a	green
412.7693	1.0167	ITI	n/a	n/a	n/a	n/a	n/a	n/a	n/a	n/a
413.786	0.5167	FIXCROSS	n/a	n/a	n/a	n/a	n/a	n/a	n/a	n/a
414.3027	1.0167	COLOR_NAME	15	Neutral	żółty	yellow	Neutral	Neutral	hit	n/a
415.2914	n/a	RESPONSE	n/a	n/a	n/a	n/a	n/a	n/a	n/a	yellow
415.3194	1.0167	ITI	n/a	n/a	n/a	n/a	n/a	n/a	n/a	n/a
416.336	0.5167	FIXCROSS	n/a	n/a	n/a	n/a	n/a	n/a	n/a	n/a
416.8527	1.0667	COLOR_NAME	16	Neutral	czerwony	red	Neutral	Neutral	hit	n/a
417.8965	n/a	RESPONSE	n/a	n/a	n/a	n/a	n/a	n/a	n/a	red
417.9194	1.0167	ITI	n/a	n/a	n/a	n/a	n/a	n/a	n/a	n/a
418.9361	0.5167	FIXCROSS	n/a	n/a	n/a	n/a	n/a	n/a	n/a	n/a
419.4527	1.7334	COLOR_NAME	17	Incongruent	zielony	green	czerwony	red	hit	n/a
421.1568	n/a	RESPONSE	n/a	n/a	n/a	n/a	n/a	n/a	n/a	green
421.1861	1.0167	ITI	n/a	n/a	n/a	n/a	n/a	n/a	n/a	n/a
422.2028	0.5167	FIXCROSS	n/a	n/a	n/a	n/a	n/a	n/a	n/a	n/a
422.7194	2.2833	COLOR_NAME	18	Incongruent	zielony	green	czerwony	red	hit	n/a
424.9765	n/a	RESPONSE	n/a	n/a	n/a	n/a	n/a	n/a	n/a	green
425.0028	1.0167	ITI	n/a	n/a	n/a	n/a	n/a	n/a	n/a	n/a
426.0194	0.5167	FIXCROSS	n/a	n/a	n/a	n/a	n/a	n/a	n/a	n/a
426.5361	1.1333	COLOR_NAME	19	Neutral	niebieski	blue	Neutral	Neutral	hit	n/a
427.6456	n/a	RESPONSE	n/a	n/a	n/a	n/a	n/a	n/a	n/a	blue
427.6694	1.0167	ITI	n/a	n/a	n/a	n/a	n/a	n/a	n/a	n/a
428.6861	0.5167	FIXCROSS	n/a	n/a	n/a	n/a	n/a	n/a	n/a	n/a
429.2028	1.0	COLOR_NAME	20	Incongruent	żółty	yellow	niebieski	blue	hit	n/a
430.1707	n/a	RESPONSE	n/a	n/a	n/a	n/a	n/a	n/a	n/a	yellow
430.2028	1.0167	ITI	n/a	n/a	n/a	n/a	n/a	n/a	n/a	n/a
431.2195	0.5167	FIXCROSS	n/a	n/a	n/a	n/a	n/a	n/a	n/a	n/a
431.7361	0.75	COLOR_NAME	21	Neutral	czerwony	red	Neutral	Neutral	hit	n/a
432.4561	n/a	RESPONSE	n/a	n/a	n/a	n/a	n/a	n/a	n/a	red
432.4861	1.0167	ITI	n/a	n/a	n/a	n/a	n/a	n/a	n/a	n/a
433.5028	0.5167	FIXCROSS	n/a	n/a	n/a	n/a	n/a	n/a	n/a	n/a
434.0195	2.1334	COLOR_NAME	22	Incongruent	niebieski	blue	czerwony	red	hit	n/a
436.132	n/a	RESPONSE	n/a	n/a	n/a	n/a	n/a	n/a	n/a	blue
436.1528	1.0167	ITI	n/a	n/a	n/a	n/a	n/a	n/a	n/a	n/a
437.1695	0.5167	FIXCROSS	n/a	n/a	n/a	n/a	n/a	n/a	n/a	n/a
437.6862	1.6167	COLOR_NAME	23	Incongruent	żółty	yellow	czerwony	red	hit	n/a
439.2805	n/a	RESPONSE	n/a	n/a	n/a	n/a	n/a	n/a	n/a	yellow
439.3029	1.0167	ITI	n/a	n/a	n/a	n/a	n/a	n/a	n/a	n/a
440.3195	0.5167	FIXCROSS	n/a	n/a	n/a	n/a	n/a	n/a	n/a	n/a
440.8362	1.0167	COLOR_NAME	24	Neutral	żółty	yellow	Neutral	Neutral	hit	n/a
441.8216	n/a	RESPONSE	n/a	n/a	n/a	n/a	n/a	n/a	n/a	yellow
441.8529	1.0167	ITI	n/a	n/a	n/a	n/a	n/a	n/a	n/a	n/a
442.8696	0.5167	FIXCROSS	n/a	n/a	n/a	n/a	n/a	n/a	n/a	n/a
443.3862	0.9167	COLOR_NAME	25	Neutral	zielony	green	Neutral	Neutral	hit	n/a
444.2828	n/a	RESPONSE	n/a	n/a	n/a	n/a	n/a	n/a	n/a	green
444.3029	1.0167	ITI	n/a	n/a	n/a	n/a	n/a	n/a	n/a	n/a
445.3196	0.5167	FIXCROSS	n/a	n/a	n/a	n/a	n/a	n/a	n/a	n/a
445.8362	1.0167	COLOR_NAME	26	Neutral	czerwony	red	Neutral	Neutral	hit	n/a
446.824	n/a	RESPONSE	n/a	n/a	n/a	n/a	n/a	n/a	n/a	red
446.8529	1.0167	ITI	n/a	n/a	n/a	n/a	n/a	n/a	n/a	n/a
447.8696	0.5167	FIXCROSS	n/a	n/a	n/a	n/a	n/a	n/a	n/a	n/a
448.3863	1.4333	COLOR_NAME	27	Incongruent	zielony	green	niebieski	blue	hit	n/a
449.7966	n/a	RESPONSE	n/a	n/a	n/a	n/a	n/a	n/a	n/a	green
449.8196	1.0167	ITI	n/a	n/a	n/a	n/a	n/a	n/a	n/a	n/a
450.8363	0.5167	FIXCROSS	n/a	n/a	n/a	n/a	n/a	n/a	n/a	n/a
451.353	0.6833	COLOR_NAME	28	Incongruent	zielony	green	żółty	yellow	incorrect	n/a
452.0181	n/a	RESPONSE	n/a	n/a	n/a	n/a	n/a	n/a	n/a	yellow
452.0363	1.0167	ITI	n/a	n/a	n/a	n/a	n/a	n/a	n/a	n/a
453.053	0.5167	FIXCROSS	n/a	n/a	n/a	n/a	n/a	n/a	n/a	n/a
453.5696	2.0667	COLOR_NAME	29	Incongruent	czerwony	red	niebieski	blue	hit	n/a
455.614	n/a	RESPONSE	n/a	n/a	n/a	n/a	n/a	n/a	n/a	red
455.6363	1.0167	ITI	n/a	n/a	n/a	n/a	n/a	n/a	n/a	n/a
456.653	0.5167	FIXCROSS	n/a	n/a	n/a	n/a	n/a	n/a	n/a	n/a
457.1697	1.6334	COLOR_NAME	30	Incongruent	zielony	green	żółty	yellow	hit	n/a
458.7785	n/a	RESPONSE	n/a	n/a	n/a	n/a	n/a	n/a	n/a	green
458.803	1.0167	ITI	n/a	n/a	n/a	n/a	n/a	n/a	n/a	n/a
459.8197	0.5167	FIXCROSS	n/a	n/a	n/a	n/a	n/a	n/a	n/a	n/a
460.3363	1.1667	COLOR_NAME	31	Neutral	niebieski	blue	Neutral	Neutral	hit	n/a
461.4794	n/a	RESPONSE	n/a	n/a	n/a	n/a	n/a	n/a	n/a	blue
461.503	1.0167	ITI	n/a	n/a	n/a	n/a	n/a	n/a	n/a	n/a
462.5197	0.5167	FIXCROSS	n/a	n/a	n/a	n/a	n/a	n/a	n/a	n/a
463.0364	1.0167	COLOR_NAME	32	Incongruent	czerwony	red	żółty	yellow	hit	n/a
464.0206	n/a	RESPONSE	n/a	n/a	n/a	n/a	n/a	n/a	n/a	red
464.053	1.0167	ITI	n/a	n/a	n/a	n/a	n/a	n/a	n/a	n/a
465.0697	0.5167	FIXCROSS	n/a	n/a	n/a	n/a	n/a	n/a	n/a	n/a
465.5864	0.7833	COLOR_NAME	33	Incongruent	czerwony	red	żółty	yellow	hit	n/a
466.3381	n/a	RESPONSE	n/a	n/a	n/a	n/a	n/a	n/a	n/a	red
466.3697	1.0167	ITI	n/a	n/a	n/a	n/a	n/a	n/a	n/a	n/a
467.3864	0.5167	FIXCROSS	n/a	n/a	n/a	n/a	n/a	n/a	n/a	n/a
467.9031	1.4833	COLOR_NAME	34	Neutral	żółty	yellow	Neutral	Neutral	hit	n/a
469.3586	n/a	RESPONSE	n/a	n/a	n/a	n/a	n/a	n/a	n/a	yellow
469.3864	1.0167	ITI	n/a	n/a	n/a	n/a	n/a	n/a	n/a	n/a
470.4031	0.5167	FIXCROSS	n/a	n/a	n/a	n/a	n/a	n/a	n/a	n/a
470.9197	1.3	COLOR_NAME	35	Incongruent	czerwony	red	niebieski	blue	hit	n/a
472.1874	n/a	RESPONSE	n/a	n/a	n/a	n/a	n/a	n/a	n/a	red
472.2198	1.0167	ITI	n/a	n/a	n/a	n/a	n/a	n/a	n/a	n/a
473.2364	0.5167	FIXCROSS	n/a	n/a	n/a	n/a	n/a	n/a	n/a	n/a
473.7531	1.2167	COLOR_NAME	36	Incongruent	zielony	green	czerwony	red	hit	n/a
474.9523	n/a	RESPONSE	n/a	n/a	n/a	n/a	n/a	n/a	n/a	green
474.9698	1.0167	ITI	n/a	n/a	n/a	n/a	n/a	n/a	n/a	n/a
475.9864	0.5167	FIXCROSS	n/a	n/a	n/a	n/a	n/a	n/a	n/a	n/a
476.5031	1.1	COLOR_NAME	37	Incongruent	żółty	yellow	zielony	green	hit	n/a
477.5734	n/a	RESPONSE	n/a	n/a	n/a	n/a	n/a	n/a	n/a	yellow
477.6031	1.0167	ITI	n/a	n/a	n/a	n/a	n/a	n/a	n/a	n/a
478.6198	0.5167	FIXCROSS	n/a	n/a	n/a	n/a	n/a	n/a	n/a	n/a
479.1365	1.5333	COLOR_NAME	38	Incongruent	niebieski	blue	zielony	green	hit	n/a
480.642	n/a	RESPONSE	n/a	n/a	n/a	n/a	n/a	n/a	n/a	blue
480.6698	1.0167	ITI	n/a	n/a	n/a	n/a	n/a	n/a	n/a	n/a
481.6865	0.5167	FIXCROSS	n/a	n/a	n/a	n/a	n/a	n/a	n/a	n/a
482.2032	0.9833	COLOR_NAME	39	Incongruent	czerwony	red	zielony	green	hit	n/a
483.1671	n/a	RESPONSE	n/a	n/a	n/a	n/a	n/a	n/a	n/a	red
483.1865	1.0167	ITI	n/a	n/a	n/a	n/a	n/a	n/a	n/a	n/a
484.2032	0.5167	FIXCROSS	n/a	n/a	n/a	n/a	n/a	n/a	n/a	n/a
484.7198	1.1	COLOR_NAME	40	Incongruent	niebieski	blue	żółty	yellow	hit	n/a
485.7882	n/a	RESPONSE	n/a	n/a	n/a	n/a	n/a	n/a	n/a	blue
485.8199	1.0167	ITI	n/a	n/a	n/a	n/a	n/a	n/a	n/a	n/a
486.8365	0.5167	FIXCROSS	n/a	n/a	n/a	n/a	n/a	n/a	n/a	n/a
487.3532	1.35	COLOR_NAME	41	Neutral	niebieski	blue	Neutral	Neutral	hit	n/a
488.6809	n/a	RESPONSE	n/a	n/a	n/a	n/a	n/a	n/a	n/a	blue
488.7032	1.0167	ITI	n/a	n/a	n/a	n/a	n/a	n/a	n/a	n/a
489.7199	0.5167	FIXCROSS	n/a	n/a	n/a	n/a	n/a	n/a	n/a	n/a
490.2365	0.8	COLOR_NAME	42	Neutral	niebieski	blue	Neutral	Neutral	hit	n/a
491.0143	n/a	RESPONSE	n/a	n/a	n/a	n/a	n/a	n/a	n/a	blue
491.0366	1.0167	ITI	n/a	n/a	n/a	n/a	n/a	n/a	n/a	n/a
492.0532	0.5167	FIXCROSS	n/a	n/a	n/a	n/a	n/a	n/a	n/a	n/a
492.5699	1.0167	COLOR_NAME	43	Incongruent	niebieski	blue	zielony	green	hit	n/a
493.5554	n/a	RESPONSE	n/a	n/a	n/a	n/a	n/a	n/a	n/a	blue
493.5866	1.0167	ITI	n/a	n/a	n/a	n/a	n/a	n/a	n/a	n/a
494.6032	0.5166	FIXCROSS	n/a	n/a	n/a	n/a	n/a	n/a	n/a	n/a
495.1198	0.9835	COLOR_NAME	44	Neutral	czerwony	red	Neutral	Neutral	hit	n/a
496.0806	n/a	RESPONSE	n/a	n/a	n/a	n/a	n/a	n/a	n/a	red
496.1033	1.0167	ITI	n/a	n/a	n/a	n/a	n/a	n/a	n/a	n/a
497.1199	0.5167	FIXCROSS	n/a	n/a	n/a	n/a	n/a	n/a	n/a	n/a
497.6366	1.05	COLOR_NAME	45	Neutral	zielony	green	Neutral	Neutral	hit	n/a
498.6538	n/a	RESPONSE	n/a	n/a	n/a	n/a	n/a	n/a	n/a	green
498.6866	1.0167	ITI	n/a	n/a	n/a	n/a	n/a	n/a	n/a	n/a
499.7033	0.5167	FIXCROSS	n/a	n/a	n/a	n/a	n/a	n/a	n/a	n/a
500.22	1.2167	COLOR_NAME	46	Incongruent	zielony	green	niebieski	blue	hit	n/a
501.4186	n/a	RESPONSE	n/a	n/a	n/a	n/a	n/a	n/a	n/a	green
501.4366	1.0167	ITI	n/a	n/a	n/a	n/a	n/a	n/a	n/a	n/a
502.4533	0.5167	FIXCROSS	n/a	n/a	n/a	n/a	n/a	n/a	n/a	n/a
502.97	1.45	COLOR_NAME	47	Incongruent	niebieski	blue	zielony	green	hit	n/a
504.3912	n/a	RESPONSE	n/a	n/a	n/a	n/a	n/a	n/a	n/a	blue
504.42	1.0167	ITI	n/a	n/a	n/a	n/a	n/a	n/a	n/a	n/a
505.4366	0.5167	FIXCROSS	n/a	n/a	n/a	n/a	n/a	n/a	n/a	n/a
505.9533	1.3	COLOR_NAME	48	Neutral	zielony	green	Neutral	Neutral	hit	n/a
507.22	n/a	RESPONSE	n/a	n/a	n/a	n/a	n/a	n/a	n/a	green
507.2533	1.0167	ITI	n/a	n/a	n/a	n/a	n/a	n/a	n/a	n/a
508.27	0.5167	FIXCROSS	n/a	n/a	n/a	n/a	n/a	n/a	n/a	n/a
508.7867	0.8833	COLOR_NAME	49	Incongruent	czerwony	red	żółty	yellow	hit	n/a
509.6494	n/a	RESPONSE	n/a	n/a	n/a	n/a	n/a	n/a	n/a	red
509.67	1.0167	ITI	n/a	n/a	n/a	n/a	n/a	n/a	n/a	n/a
510.6867	0.5167	FIXCROSS	n/a	n/a	n/a	n/a	n/a	n/a	n/a	n/a
511.2034	0.8	COLOR_NAME	50	Incongruent	czerwony	red	zielony	green	hit	n/a
511.9827	n/a	RESPONSE	n/a	n/a	n/a	n/a	n/a	n/a	n/a	red
512.0034	1.0167	ITI	n/a	n/a	n/a	n/a	n/a	n/a	n/a	n/a
513.02	0.5167	FIXCROSS	n/a	n/a	n/a	n/a	n/a	n/a	n/a	n/a
513.5367	0.8833	COLOR_NAME	51	Neutral	żółty	yellow	Neutral	Neutral	hit	n/a
514.3959	n/a	RESPONSE	n/a	n/a	n/a	n/a	n/a	n/a	n/a	yellow
514.4201	1.0167	ITI	n/a	n/a	n/a	n/a	n/a	n/a	n/a	n/a
515.4367	0.5167	FIXCROSS	n/a	n/a	n/a	n/a	n/a	n/a	n/a	n/a
515.9534	0.5833	COLOR_NAME	52	Incongruent	żółty	yellow	czerwony	red	hit	n/a
516.5055	n/a	RESPONSE	n/a	n/a	n/a	n/a	n/a	n/a	n/a	yellow
516.5367	1.0167	ITI	n/a	n/a	n/a	n/a	n/a	n/a	n/a	n/a
517.5534	0.5167	FIXCROSS	n/a	n/a	n/a	n/a	n/a	n/a	n/a	n/a
518.0701	1.0667	COLOR_NAME	53	Neutral	niebieski	blue	Neutral	Neutral	hit	n/a
519.1106	n/a	RESPONSE	n/a	n/a	n/a	n/a	n/a	n/a	n/a	blue
519.1367	1.0167	ITI	n/a	n/a	n/a	n/a	n/a	n/a	n/a	n/a
520.1534	0.5167	FIXCROSS	n/a	n/a	n/a	n/a	n/a	n/a	n/a	n/a
520.6701	2.0167	COLOR_NAME	54	Incongruent	zielony	green	żółty	yellow	hit	n/a
522.6586	n/a	RESPONSE	n/a	n/a	n/a	n/a	n/a	n/a	n/a	green
522.6868	1.0167	ITI	n/a	n/a	n/a	n/a	n/a	n/a	n/a	n/a
523.7034	0.5167	FIXCROSS	n/a	n/a	n/a	n/a	n/a	n/a	n/a	n/a
524.2201	1.5	COLOR_NAME	55	Incongruent	czerwony	red	niebieski	blue	hit	n/a
525.6952	n/a	RESPONSE	n/a	n/a	n/a	n/a	n/a	n/a	n/a	red
525.7201	1.0167	ITI	n/a	n/a	n/a	n/a	n/a	n/a	n/a	n/a
526.7368	0.5167	FIXCROSS	n/a	n/a	n/a	n/a	n/a	n/a	n/a	n/a
527.2535	1.0	COLOR_NAME	56	Neutral	żółty	yellow	Neutral	Neutral	hit	n/a
528.2204	n/a	RESPONSE	n/a	n/a	n/a	n/a	n/a	n/a	n/a	yellow
528.2535	1.0167	ITI	n/a	n/a	n/a	n/a	n/a	n/a	n/a	n/a
529.2701	0.5167	FIXCROSS	n/a	n/a	n/a	n/a	n/a	n/a	n/a	n/a
529.7868	0.8833	COLOR_NAME	57	Incongruent	żółty	yellow	zielony	green	hit	n/a
530.6496	n/a	RESPONSE	n/a	n/a	n/a	n/a	n/a	n/a	n/a	yellow
530.6702	1.0167	ITI	n/a	n/a	n/a	n/a	n/a	n/a	n/a	n/a
531.6868	0.5167	FIXCROSS	n/a	n/a	n/a	n/a	n/a	n/a	n/a	n/a
532.2035	1.2	COLOR_NAME	58	Neutral	zielony	green	Neutral	Neutral	hit	n/a
533.3826	n/a	RESPONSE	n/a	n/a	n/a	n/a	n/a	n/a	n/a	green
533.4035	1.0167	ITI	n/a	n/a	n/a	n/a	n/a	n/a	n/a	n/a
534.4202	0.5167	FIXCROSS	n/a	n/a	n/a	n/a	n/a	n/a	n/a	n/a
534.9369	1.0833	COLOR_NAME	59	Incongruent	żółty	yellow	czerwony	red	hit	n/a
535.9877	n/a	RESPONSE	n/a	n/a	n/a	n/a	n/a	n/a	n/a	yellow
536.0202	1.0167	ITI	n/a	n/a	n/a	n/a	n/a	n/a	n/a	n/a
537.0369	0.5167	FIXCROSS	n/a	n/a	n/a	n/a	n/a	n/a	n/a	n/a
537.5535	1.1333	COLOR_NAME	60	Incongruent	niebieski	blue	żółty	yellow	hit	n/a
538.6566	n/a	RESPONSE	n/a	n/a	n/a	n/a	n/a	n/a	n/a	blue
538.6869	1.0167	ITI	n/a	n/a	n/a	n/a	n/a	n/a	n/a	n/a
539.7036	0.5167	FIXCROSS	n/a	n/a	n/a	n/a	n/a	n/a	n/a	n/a
540.2202	2.3667	COLOR_NAME	61	Incongruent	niebieski	blue	czerwony	red	hit	n/a
542.5562	n/a	RESPONSE	n/a	n/a	n/a	n/a	n/a	n/a	n/a	blue
542.5869	1.0167	ITI	n/a	n/a	n/a	n/a	n/a	n/a	n/a	n/a
543.6036	0.5167	FIXCROSS	n/a	n/a	n/a	n/a	n/a	n/a	n/a	n/a
544.1203	0.85	COLOR_NAME	62	Neutral	zielony	green	Neutral	Neutral	hit	n/a
544.9376	n/a	RESPONSE	n/a	n/a	n/a	n/a	n/a	n/a	n/a	green
544.9703	1.0167	ITI	n/a	n/a	n/a	n/a	n/a	n/a	n/a	n/a
545.9869	0.5167	FIXCROSS	n/a	n/a	n/a	n/a	n/a	n/a	n/a	n/a
546.5036	0.5	COLOR_NAME	63	Neutral	żółty	yellow	Neutral	Neutral	hit	n/a
546.9833	n/a	RESPONSE	n/a	n/a	n/a	n/a	n/a	n/a	n/a	yellow
547.0036	1.0167	ITI	n/a	n/a	n/a	n/a	n/a	n/a	n/a	n/a
548.0203	0.5167	FIXCROSS	n/a	n/a	n/a	n/a	n/a	n/a	n/a	n/a
548.537	0.85	COLOR_NAME	64	Neutral	czerwony	red	Neutral	Neutral	hit	n/a
549.3646	n/a	RESPONSE	n/a	n/a	n/a	n/a	n/a	n/a	n/a	red
549.387	1.0167	ITI	n/a	n/a	n/a	n/a	n/a	n/a	n/a	n/a
550.4036	0.5167	FIXCROSS	n/a	n/a	n/a	n/a	n/a	n/a	n/a	n/a
550.9203	0.5167	COLOR_NAME	65	Neutral	czerwony	red	Neutral	Neutral	hit	n/a
551.4104	n/a	RESPONSE	n/a	n/a	n/a	n/a	n/a	n/a	n/a	red
551.437	1.0167	ITI	n/a	n/a	n/a	n/a	n/a	n/a	n/a	n/a
552.4536	0.5167	FIXCROSS	n/a	n/a	n/a	n/a	n/a	n/a	n/a	n/a
552.9703	0.75	COLOR_NAME	66	Incongruent	żółty	yellow	zielony	green	hit	n/a
553.6957	n/a	RESPONSE	n/a	n/a	n/a	n/a	n/a	n/a	n/a	yellow
553.7203	1.0167	ITI	n/a	n/a	n/a	n/a	n/a	n/a	n/a	n/a
554.737	0.5167	FIXCROSS	n/a	n/a	n/a	n/a	n/a	n/a	n/a	n/a
555.2537	0.6333	COLOR_NAME	67	Incongruent	żółty	yellow	niebieski	blue	hit	n/a
555.8693	n/a	RESPONSE	n/a	n/a	n/a	n/a	n/a	n/a	n/a	yellow
555.887	1.0167	ITI	n/a	n/a	n/a	n/a	n/a	n/a	n/a	n/a
556.9037	0.5167	FIXCROSS	n/a	n/a	n/a	n/a	n/a	n/a	n/a	n/a
557.4203	0.5	COLOR_NAME	68	Neutral	żółty	yellow	Neutral	Neutral	hit	n/a
557.899	n/a	RESPONSE	n/a	n/a	n/a	n/a	n/a	n/a	n/a	yellow
557.9203	1.0167	ITI	n/a	n/a	n/a	n/a	n/a	n/a	n/a	n/a
558.937	0.5167	FIXCROSS	n/a	n/a	n/a	n/a	n/a	n/a	n/a	n/a
559.4537	1.1667	COLOR_NAME	69	Incongruent	niebieski	blue	żółty	yellow	hit	n/a
560.6	n/a	RESPONSE	n/a	n/a	n/a	n/a	n/a	n/a	n/a	blue
560.6204	1.0167	ITI	n/a	n/a	n/a	n/a	n/a	n/a	n/a	n/a
561.637	0.5167	FIXCROSS	n/a	n/a	n/a	n/a	n/a	n/a	n/a	n/a
562.1537	1.2	COLOR_NAME	70	Incongruent	zielony	green	niebieski	blue	hit	n/a
563.333	n/a	RESPONSE	n/a	n/a	n/a	n/a	n/a	n/a	n/a	green
563.3537	1.0167	ITI	n/a	n/a	n/a	n/a	n/a	n/a	n/a	n/a
564.3704	0.5167	FIXCROSS	n/a	n/a	n/a	n/a	n/a	n/a	n/a	n/a
564.8871	0.85	COLOR_NAME	71	Incongruent	czerwony	red	zielony	green	hit	n/a
565.7143	n/a	RESPONSE	n/a	n/a	n/a	n/a	n/a	n/a	n/a	red
565.7371	1.0167	ITI	n/a	n/a	n/a	n/a	n/a	n/a	n/a	n/a
566.7537	0.5167	FIXCROSS	n/a	n/a	n/a	n/a	n/a	n/a	n/a	n/a
567.2704	0.7833	COLOR_NAME	72	Neutral	żółty	yellow	Neutral	Neutral	hit	n/a
568.0317	n/a	RESPONSE	n/a	n/a	n/a	n/a	n/a	n/a	n/a	yellow
568.0538	1.0333	ITI	n/a	n/a	n/a	n/a	n/a	n/a	n/a	n/a
572.9541	n/a	RESPONSE	n/a	n/a	n/a	n/a	n/a	n/a	n/a	n/a
