onset	duration	trial_type	n_back_condition	trial_number	stimulus	response_type
0.0	n/a	RESPONSE	n/a	n/a	n/a	n/a
0.7707	2.75	ISI	n/a	n/a	n/a	n/a
3.5208	0.5166	DISTRACTOR	1	1	D	Correct Rejection
4.0374	1.0167	ISI	n/a	n/a	n/a	n/a
5.0541	0.5167	DISTRACTOR	1	2	J	Correct Rejection
5.5708	1.0166	ISI	n/a	n/a	n/a	n/a
6.5874	0.5167	DISTRACTOR	1	3	G	Correct Rejection
7.1041	1.0166	ISI	n/a	n/a	n/a	n/a
8.1208	0.5167	DISTRACTOR	1	4	A	Correct Rejection
8.6375	1.0167	ISI	n/a	n/a	n/a	n/a
9.6541	0.5167	DISTRACTOR	1	5	B	Correct Rejection
10.1708	1.0167	ISI	n/a	n/a	n/a	n/a
11.1875	0.5166	TARGET	1	6	B	Hit
11.7041	1.0167	ISI	n/a	n/a	n/a	n/a
11.8777	n/a	RESPONSE	n/a	n/a	n/a	n/a
12.7208	0.5167	DISTRACTOR	1	7	A	Correct Rejection
13.2375	1.0166	ISI	n/a	n/a	n/a	n/a
14.2541	0.5167	DISTRACTOR	1	8	J	Correct Rejection
14.7708	1.0167	ISI	n/a	n/a	n/a	n/a
15.7875	0.5167	DISTRACTOR	1	9	D	Correct Rejection
16.3042	1.0167	ISI	n/a	n/a	n/a	n/a
17.3209	0.5166	DISTRACTOR	1	10	J	False Alarm
17.8375	1.0167	ISI	n/a	n/a	n/a	n/a
18.1677	n/a	RESPONSE	n/a	n/a	n/a	n/a
18.8542	0.5167	DISTRACTOR	1	11	A	Correct Rejection
19.3709	1.0167	ISI	n/a	n/a	n/a	n/a
20.3875	0.5167	DISTRACTOR	1	12	B	Correct Rejection
20.9042	1.0167	ISI	n/a	n/a	n/a	n/a
21.9209	0.5167	DISTRACTOR	1	13	G	Correct Rejection
22.4376	1.0166	ISI	n/a	n/a	n/a	n/a
23.4542	0.5167	DISTRACTOR	1	14	C	Correct Rejection
23.9709	1.0166	ISI	n/a	n/a	n/a	n/a
24.9876	0.5167	DISTRACTOR	1	15	B	Correct Rejection
25.5042	1.0167	ISI	n/a	n/a	n/a	n/a
26.5209	0.5167	TARGET	1	16	B	Hit
26.9482	n/a	RESPONSE	n/a	n/a	n/a	n/a
27.0376	1.0167	ISI	n/a	n/a	n/a	n/a
28.0543	0.5166	DISTRACTOR	1	17	I	Correct Rejection
28.5709	1.0167	ISI	n/a	n/a	n/a	n/a
29.5876	0.5167	TARGET	1	18	I	Hit
30.1043	1.0167	ISI	n/a	n/a	n/a	n/a
30.3805	n/a	RESPONSE	n/a	n/a	n/a	n/a
31.121	0.5167	TARGET	1	19	I	Hit
31.6376	1.0167	ISI	n/a	n/a	n/a	n/a
31.8972	n/a	RESPONSE	n/a	n/a	n/a	n/a
32.6543	0.5167	DISTRACTOR	1	20	A	Correct Rejection
33.171	1.0166	ISI	n/a	n/a	n/a	n/a
34.1876	0.5167	DISTRACTOR	1	21	I	Correct Rejection
34.7043	1.0167	ISI	n/a	n/a	n/a	n/a
35.721	0.5167	TARGET	1	22	I	Hit
36.2377	1.0167	ISI	n/a	n/a	n/a	n/a
36.2554	n/a	RESPONSE	n/a	n/a	n/a	n/a
37.2543	0.5166	DISTRACTOR	1	23	E	Correct Rejection
37.771	1.0167	ISI	n/a	n/a	n/a	n/a
38.7877	0.5166	DISTRACTOR	1	24	J	Correct Rejection
39.3043	1.0167	ISI	n/a	n/a	n/a	n/a
40.321	0.5167	DISTRACTOR	1	25	F	Correct Rejection
40.8377	1.0167	ISI	n/a	n/a	n/a	n/a
41.8544	0.5167	DISTRACTOR	1	26	B	Correct Rejection
42.3711	1.0167	ISI	n/a	n/a	n/a	n/a
43.3877	0.5166	DISTRACTOR	1	27	H	Correct Rejection
43.9044	1.0167	ISI	n/a	n/a	n/a	n/a
44.9211	0.5167	DISTRACTOR	1	28	D	Correct Rejection
45.4377	1.0167	ISI	n/a	n/a	n/a	n/a
46.4544	0.5166	DISTRACTOR	1	29	H	Correct Rejection
46.9711	1.0167	ISI	n/a	n/a	n/a	n/a
47.9878	0.5167	DISTRACTOR	1	30	B	Correct Rejection
48.5044	1.0166	ISI	n/a	n/a	n/a	n/a
49.5211	0.5167	DISTRACTOR	1	31	A	Correct Rejection
50.0378	1.0167	ISI	n/a	n/a	n/a	n/a
51.0544	0.5167	DISTRACTOR	1	32	H	Correct Rejection
51.5711	1.0167	ISI	n/a	n/a	n/a	n/a
52.5878	0.5166	DISTRACTOR	1	33	J	Correct Rejection
53.1044	1.0167	ISI	n/a	n/a	n/a	n/a
54.1211	0.5167	DISTRACTOR	1	34	A	Correct Rejection
54.6378	1.0167	ISI	n/a	n/a	n/a	n/a
55.6545	0.5167	DISTRACTOR	1	35	D	Correct Rejection
56.1712	1.0167	ISI	n/a	n/a	n/a	n/a
57.1878	0.5167	DISTRACTOR	1	36	E	Correct Rejection
57.7045	1.0167	ISI	n/a	n/a	n/a	n/a
58.7212	0.5167	DISTRACTOR	1	37	F	Correct Rejection
59.2378	1.0166	ISI	n/a	n/a	n/a	n/a
60.2545	0.5167	DISTRACTOR	1	38	D	Correct Rejection
60.7712	1.0166	ISI	n/a	n/a	n/a	n/a
61.7878	0.5167	TARGET	1	39	D	Hit
62.3045	1.0167	ISI	n/a	n/a	n/a	n/a
62.3573	n/a	RESPONSE	n/a	n/a	n/a	n/a
63.3212	0.5166	DISTRACTOR	1	40	J	Correct Rejection
63.8378	1.0167	ISI	n/a	n/a	n/a	n/a
64.8546	0.5167	DISTRACTOR	1	41	A	Correct Rejection
65.3712	1.0167	ISI	n/a	n/a	n/a	n/a
66.3879	0.5166	TARGET	1	42	A	Hit
66.9045	1.0167	ISI	n/a	n/a	n/a	n/a
67.0029	n/a	RESPONSE	n/a	n/a	n/a	n/a
67.9212	0.5167	TARGET	1	43	A	Hit
68.4379	1.0167	ISI	n/a	n/a	n/a	n/a
69.0145	n/a	RESPONSE	n/a	n/a	n/a	n/a
69.4546	0.5167	TARGET	1	44	A	Hit
69.9713	1.0166	ISI	n/a	n/a	n/a	n/a
69.9723	n/a	RESPONSE	n/a	n/a	n/a	n/a
70.9879	0.5167	DISTRACTOR	1	45	I	Correct Rejection
71.5046	1.0167	ISI	n/a	n/a	n/a	n/a
72.5213	0.5167	DISTRACTOR	1	46	E	Correct Rejection
73.0379	1.0166	ISI	n/a	n/a	n/a	n/a
74.0546	0.5167	DISTRACTOR	1	47	I	Correct Rejection
74.5713	1.0167	ISI	n/a	n/a	n/a	n/a
75.588	0.5167	TARGET	1	48	I	Hit
76.1046	1.0167	ISI	n/a	n/a	n/a	n/a
76.1505	n/a	RESPONSE	n/a	n/a	n/a	n/a
77.1213	0.5167	DISTRACTOR	1	49	H	Correct Rejection
77.638	1.0167	ISI	n/a	n/a	n/a	n/a
78.6547	0.5167	DISTRACTOR	1	50	I	Correct Rejection
79.1713	1.1333	ISI	n/a	n/a	n/a	n/a
91.1889	n/a	RESPONSE	n/a	n/a	n/a	n/a
91.2547	1.0167	ISI	n/a	n/a	n/a	n/a
92.2714	0.5167	DISTRACTOR	2	1	I	Correct Rejection
92.7881	1.0167	ISI	n/a	n/a	n/a	n/a
93.8048	0.5167	DISTRACTOR	2	2	A	Correct Rejection
94.3214	1.0167	ISI	n/a	n/a	n/a	n/a
95.3381	0.5167	DISTRACTOR	2	3	D	Correct Rejection
95.8548	1.0167	ISI	n/a	n/a	n/a	n/a
96.8715	0.5167	DISTRACTOR	2	4	J	Correct Rejection
97.3881	1.0167	ISI	n/a	n/a	n/a	n/a
98.4048	0.5167	TARGET	2	5	D	Miss
98.9215	1.0166	ISI	n/a	n/a	n/a	n/a
99.9381	0.5167	DISTRACTOR	2	6	A	Correct Rejection
100.4548	1.0167	ISI	n/a	n/a	n/a	n/a
101.4715	0.5166	DISTRACTOR	2	7	F	Correct Rejection
101.9881	1.0167	ISI	n/a	n/a	n/a	n/a
103.0048	0.5166	DISTRACTOR	2	8	G	Correct Rejection
103.5215	1.0167	ISI	n/a	n/a	n/a	n/a
104.5382	0.5167	DISTRACTOR	2	9	D	Correct Rejection
105.0548	1.0167	ISI	n/a	n/a	n/a	n/a
106.0715	0.5167	DISTRACTOR	2	10	F	False Alarm
106.5882	1.0167	ISI	n/a	n/a	n/a	n/a
106.7542	n/a	RESPONSE	n/a	n/a	n/a	n/a
107.6049	0.5167	DISTRACTOR	2	11	E	Correct Rejection
108.1215	1.0167	ISI	n/a	n/a	n/a	n/a
109.1382	0.5167	DISTRACTOR	2	12	C	Correct Rejection
109.6549	1.0166	ISI	n/a	n/a	n/a	n/a
110.6715	0.5167	DISTRACTOR	2	13	D	Correct Rejection
111.1882	1.0167	ISI	n/a	n/a	n/a	n/a
112.2049	0.5167	TARGET	2	14	C	Hit
112.7216	1.0166	ISI	n/a	n/a	n/a	n/a
113.2359	n/a	RESPONSE	n/a	n/a	n/a	n/a
113.7382	0.5167	DISTRACTOR	2	15	A	Correct Rejection
114.2549	1.0167	ISI	n/a	n/a	n/a	n/a
115.2716	0.5167	DISTRACTOR	2	16	B	Correct Rejection
115.7883	1.0167	ISI	n/a	n/a	n/a	n/a
116.8049	0.5167	DISTRACTOR	2	17	F	Correct Rejection
117.3216	1.0166	ISI	n/a	n/a	n/a	n/a
118.3383	0.5167	DISTRACTOR	2	18	H	Correct Rejection
118.855	1.0167	ISI	n/a	n/a	n/a	n/a
119.8716	0.5167	TARGET	2	19	F	Hit
120.3883	1.0167	ISI	n/a	n/a	n/a	n/a
120.9946	n/a	RESPONSE	n/a	n/a	n/a	n/a
121.405	0.5167	TARGET	2	20	H	Miss
121.9216	1.0167	ISI	n/a	n/a	n/a	n/a
122.9383	0.5167	DISTRACTOR	2	21	A	False Alarm
123.3892	n/a	RESPONSE	n/a	n/a	n/a	n/a
123.455	1.0167	ISI	n/a	n/a	n/a	n/a
124.4717	0.5167	DISTRACTOR	2	22	B	Correct Rejection
124.9883	1.0166	ISI	n/a	n/a	n/a	n/a
126.005	0.5167	DISTRACTOR	2	23	G	Correct Rejection
126.5217	1.0167	ISI	n/a	n/a	n/a	n/a
127.5383	0.5166	DISTRACTOR	2	24	I	Correct Rejection
128.055	1.0167	ISI	n/a	n/a	n/a	n/a
129.0717	0.5167	DISTRACTOR	2	25	H	False Alarm
129.5884	1.0167	ISI	n/a	n/a	n/a	n/a
129.5995	n/a	RESPONSE	n/a	n/a	n/a	n/a
130.605	0.5167	DISTRACTOR	2	26	E	Correct Rejection
131.1217	1.0166	ISI	n/a	n/a	n/a	n/a
132.1383	0.5167	DISTRACTOR	2	27	G	Correct Rejection
132.655	1.0167	ISI	n/a	n/a	n/a	n/a
133.6717	0.5167	DISTRACTOR	2	28	C	Correct Rejection
134.1884	1.0167	ISI	n/a	n/a	n/a	n/a
135.2051	0.5167	DISTRACTOR	2	29	A	Correct Rejection
135.7217	1.0167	ISI	n/a	n/a	n/a	n/a
136.7384	0.5167	TARGET	2	30	C	Hit
137.2304	n/a	RESPONSE	n/a	n/a	n/a	n/a
137.2551	1.0166	ISI	n/a	n/a	n/a	n/a
138.2717	0.5167	DISTRACTOR	2	31	B	Correct Rejection
138.7884	1.0167	ISI	n/a	n/a	n/a	n/a
139.8051	0.5167	DISTRACTOR	2	32	D	Correct Rejection
140.3218	1.0167	ISI	n/a	n/a	n/a	n/a
141.3384	0.5167	DISTRACTOR	2	33	J	Correct Rejection
141.8551	1.0166	ISI	n/a	n/a	n/a	n/a
142.8717	0.5167	DISTRACTOR	2	34	A	False Alarm
143.3884	1.0167	ISI	n/a	n/a	n/a	n/a
143.4566	n/a	RESPONSE	n/a	n/a	n/a	n/a
144.4051	0.5167	TARGET	2	35	J	Hit
144.9218	1.0166	ISI	n/a	n/a	n/a	n/a
145.2446	n/a	RESPONSE	n/a	n/a	n/a	n/a
145.9385	0.5167	TARGET	2	36	A	Hit
146.4551	1.0167	ISI	n/a	n/a	n/a	n/a
147.1603	n/a	RESPONSE	n/a	n/a	n/a	n/a
147.4718	0.5166	DISTRACTOR	2	37	G	Correct Rejection
147.9885	1.0167	ISI	n/a	n/a	n/a	n/a
149.0052	0.5167	DISTRACTOR	2	38	C	Correct Rejection
149.5218	1.0167	ISI	n/a	n/a	n/a	n/a
150.5385	0.5167	DISTRACTOR	2	39	F	Correct Rejection
151.0552	1.0167	ISI	n/a	n/a	n/a	n/a
152.0719	0.5167	DISTRACTOR	2	40	G	False Alarm
152.5882	n/a	RESPONSE	n/a	n/a	n/a	n/a
152.5885	1.0167	ISI	n/a	n/a	n/a	n/a
153.6052	0.5167	DISTRACTOR	2	41	A	Correct Rejection
154.1219	1.0167	ISI	n/a	n/a	n/a	n/a
155.1386	0.5167	TARGET	2	42	G	Hit
155.6552	1.0167	ISI	n/a	n/a	n/a	n/a
155.8928	n/a	RESPONSE	n/a	n/a	n/a	n/a
156.6719	0.5167	DISTRACTOR	2	43	C	Correct Rejection
157.1886	1.0167	ISI	n/a	n/a	n/a	n/a
158.2052	0.5166	DISTRACTOR	2	44	I	Correct Rejection
158.7219	1.0167	ISI	n/a	n/a	n/a	n/a
159.7386	0.5166	TARGET	2	45	C	Hit
160.2552	1.0167	ISI	n/a	n/a	n/a	n/a
160.3787	n/a	RESPONSE	n/a	n/a	n/a	n/a
161.2719	0.5167	DISTRACTOR	2	46	J	Correct Rejection
161.7886	1.0167	ISI	n/a	n/a	n/a	n/a
162.8053	0.5167	DISTRACTOR	2	47	G	False Alarm
163.3219	1.0167	ISI	n/a	n/a	n/a	n/a
163.6356	n/a	RESPONSE	n/a	n/a	n/a	n/a
164.3386	0.5166	TARGET	2	48	J	Hit
164.8553	1.0167	ISI	n/a	n/a	n/a	n/a
165.1362	n/a	RESPONSE	n/a	n/a	n/a	n/a
165.872	0.5167	DISTRACTOR	2	49	I	Correct Rejection
166.3886	1.0167	ISI	n/a	n/a	n/a	n/a
167.4053	0.5167	DISTRACTOR	2	50	E	Correct Rejection
167.922	1.1	ISI	n/a	n/a	n/a	n/a
178.674	n/a	RESPONSE	n/a	n/a	n/a	n/a
178.7387	1.0167	ISI	n/a	n/a	n/a	n/a
179.7554	0.5167	DISTRACTOR	3	1	I	Correct Rejection
180.2721	1.0167	ISI	n/a	n/a	n/a	n/a
181.2887	0.5167	DISTRACTOR	3	2	E	Correct Rejection
181.8054	1.0167	ISI	n/a	n/a	n/a	n/a
182.8221	0.5166	DISTRACTOR	3	3	C	Correct Rejection
183.3387	1.0167	ISI	n/a	n/a	n/a	n/a
184.3554	0.5167	DISTRACTOR	3	4	D	Correct Rejection
184.8721	1.0167	ISI	n/a	n/a	n/a	n/a
185.8887	0.5167	TARGET	3	5	E	Miss
186.4054	1.0167	ISI	n/a	n/a	n/a	n/a
187.4221	0.5167	DISTRACTOR	3	6	I	False Alarm
187.9388	1.0167	ISI	n/a	n/a	n/a	n/a
188.0931	n/a	RESPONSE	n/a	n/a	n/a	n/a
188.9554	0.5167	DISTRACTOR	3	7	I	Correct Rejection
189.4721	1.0167	ISI	n/a	n/a	n/a	n/a
190.4888	0.5167	TARGET	3	8	E	Hit
191.0055	1.0167	ISI	n/a	n/a	n/a	n/a
191.3339	n/a	RESPONSE	n/a	n/a	n/a	n/a
192.0222	0.5167	DISTRACTOR	3	9	J	Correct Rejection
192.5388	1.0167	ISI	n/a	n/a	n/a	n/a
193.5555	0.5166	DISTRACTOR	3	10	J	Correct Rejection
194.0721	1.0167	ISI	n/a	n/a	n/a	n/a
195.0888	0.5167	TARGET	3	11	E	Miss
195.6055	1.0167	ISI	n/a	n/a	n/a	n/a
196.6222	0.5167	DISTRACTOR	3	12	B	False Alarm
197.1389	1.0167	ISI	n/a	n/a	n/a	n/a
197.5919	n/a	RESPONSE	n/a	n/a	n/a	n/a
198.1555	0.5167	DISTRACTOR	3	13	C	Correct Rejection
198.6722	1.0166	ISI	n/a	n/a	n/a	n/a
199.6888	0.5167	DISTRACTOR	3	14	J	Correct Rejection
200.2055	1.0167	ISI	n/a	n/a	n/a	n/a
201.2222	0.5167	DISTRACTOR	3	15	H	False Alarm
201.7389	1.0166	ISI	n/a	n/a	n/a	n/a
201.9342	n/a	RESPONSE	n/a	n/a	n/a	n/a
202.7555	0.5167	DISTRACTOR	3	16	J	Correct Rejection
203.2722	1.0167	ISI	n/a	n/a	n/a	n/a
204.2889	0.5167	DISTRACTOR	3	17	C	Correct Rejection
204.8055	1.0167	ISI	n/a	n/a	n/a	n/a
205.8223	0.5167	DISTRACTOR	3	18	F	Correct Rejection
206.3389	1.0166	ISI	n/a	n/a	n/a	n/a
207.3556	0.5167	TARGET	3	19	J	Miss
207.8723	1.0167	ISI	n/a	n/a	n/a	n/a
208.8889	0.5166	TARGET	3	20	C	Miss
209.4056	1.0167	ISI	n/a	n/a	n/a	n/a
210.4223	0.5167	DISTRACTOR	3	21	B	Correct Rejection
210.939	1.0166	ISI	n/a	n/a	n/a	n/a
211.9556	0.5167	DISTRACTOR	3	22	I	Correct Rejection
212.4723	1.0167	ISI	n/a	n/a	n/a	n/a
213.489	0.5167	DISTRACTOR	3	23	J	False Alarm
214.0056	1.0167	ISI	n/a	n/a	n/a	n/a
214.1631	n/a	RESPONSE	n/a	n/a	n/a	n/a
215.0223	0.5167	DISTRACTOR	3	24	D	Correct Rejection
215.539	1.0167	ISI	n/a	n/a	n/a	n/a
216.5557	0.5166	DISTRACTOR	3	25	B	Correct Rejection
217.0723	1.0167	ISI	n/a	n/a	n/a	n/a
218.089	0.5167	DISTRACTOR	3	26	B	False Alarm
218.3937	n/a	RESPONSE	n/a	n/a	n/a	n/a
218.6057	1.0167	ISI	n/a	n/a	n/a	n/a
219.6224	0.5167	DISTRACTOR	3	27	J	Correct Rejection
220.139	1.0167	ISI	n/a	n/a	n/a	n/a
221.1557	0.5167	TARGET	3	28	B	Miss
221.6724	1.0167	ISI	n/a	n/a	n/a	n/a
222.689	0.5167	DISTRACTOR	3	29	G	False Alarm
223.1512	n/a	RESPONSE	n/a	n/a	n/a	n/a
223.2057	1.0167	ISI	n/a	n/a	n/a	n/a
224.2224	0.5166	DISTRACTOR	3	30	F	Correct Rejection
224.739	1.0167	ISI	n/a	n/a	n/a	n/a
225.7557	0.5167	DISTRACTOR	3	31	G	Correct Rejection
226.2724	1.0166	ISI	n/a	n/a	n/a	n/a
227.289	0.5167	DISTRACTOR	3	32	J	Correct Rejection
227.8057	1.0167	ISI	n/a	n/a	n/a	n/a
228.8224	0.5167	DISTRACTOR	3	33	B	False Alarm
229.3391	1.0166	ISI	n/a	n/a	n/a	n/a
229.489	n/a	RESPONSE	n/a	n/a	n/a	n/a
230.3557	0.5166	DISTRACTOR	3	34	J	Correct Rejection
230.8724	1.0167	ISI	n/a	n/a	n/a	n/a
231.8891	0.5167	DISTRACTOR	3	35	F	Correct Rejection
232.4058	1.0166	ISI	n/a	n/a	n/a	n/a
233.4224	0.5167	DISTRACTOR	3	36	F	Correct Rejection
233.9391	1.0167	ISI	n/a	n/a	n/a	n/a
234.9558	0.5167	TARGET	3	37	J	Hit
235.4725	1.0167	ISI	n/a	n/a	n/a	n/a
236.258	n/a	RESPONSE	n/a	n/a	n/a	n/a
236.4891	0.5167	DISTRACTOR	3	38	D	Correct Rejection
237.0058	1.0166	ISI	n/a	n/a	n/a	n/a
238.0224	0.5167	DISTRACTOR	3	39	A	Correct Rejection
238.5391	1.0167	ISI	n/a	n/a	n/a	n/a
239.5558	0.5166	DISTRACTOR	3	40	F	Correct Rejection
240.0725	1.0167	ISI	n/a	n/a	n/a	n/a
241.0892	0.5167	TARGET	3	41	D	Hit
241.6058	1.0167	ISI	n/a	n/a	n/a	n/a
241.654	n/a	RESPONSE	n/a	n/a	n/a	n/a
242.6225	0.5167	DISTRACTOR	3	42	I	Correct Rejection
243.1392	1.0166	ISI	n/a	n/a	n/a	n/a
244.1558	0.5167	DISTRACTOR	3	43	I	False Alarm
244.6725	1.0167	ISI	n/a	n/a	n/a	n/a
244.9267	n/a	RESPONSE	n/a	n/a	n/a	n/a
245.6892	0.5167	TARGET	3	44	D	Miss
246.2059	1.0167	ISI	n/a	n/a	n/a	n/a
247.2226	0.5167	DISTRACTOR	3	45	H	Correct Rejection
247.7392	1.0167	ISI	n/a	n/a	n/a	n/a
248.7559	0.5167	DISTRACTOR	3	46	F	Correct Rejection
249.2726	1.0166	ISI	n/a	n/a	n/a	n/a
250.2892	0.5167	DISTRACTOR	3	47	E	Correct Rejection
250.8059	1.0167	ISI	n/a	n/a	n/a	n/a
251.8226	0.5167	DISTRACTOR	3	48	F	False Alarm
252.3393	1.0167	ISI	n/a	n/a	n/a	n/a
252.3662	n/a	RESPONSE	n/a	n/a	n/a	n/a
253.3559	0.5167	DISTRACTOR	3	49	G	Correct Rejection
253.8726	1.0167	ISI	n/a	n/a	n/a	n/a
254.8893	0.5166	TARGET	3	50	E	Miss
255.4059	1.0333	ISI	n/a	n/a	n/a	n/a
258.9434	n/a	RESPONSE	n/a	n/a	n/a	n/a
