onset	duration	trial_type	melody_number	melody_part	key	sound	action
0.0	14.085	CUE_START	n/a	n/a	n/a	n/a	n/a
14.086	7.76	FIXCROSS	n/a	n/a	n/a	n/a	n/a
21.845	6.315	CUE_LISTEN	M1	1	n/a	n/a	n/a
28.16	7.758	FIXCROSS	n/a	n/a	n/a	n/a	n/a
35.919	6.325	CUE_PLAYBACK_RIGHT_HAND	M1	1	n/a	n/a	n/a
36.566	n/a	RESPONSE	M1	1	19	G4	press
37.105	n/a	RESPONSE	M1	1	16	E4	press
37.131	n/a	RESPONSE	M1	1	19	G4	release
37.522	n/a	RESPONSE	M1	1	16	E4	release
37.637	n/a	RESPONSE	M1	1	16	E4	press
38.151	n/a	RESPONSE	M1	1	17	F4	press
38.226	n/a	RESPONSE	M1	1	16	E4	release
38.664	n/a	RESPONSE	M1	1	14	D4	press
38.736	n/a	RESPONSE	M1	1	17	F4	release
39.147	n/a	RESPONSE	M1	1	14	D4	release
39.195	n/a	RESPONSE	M1	1	14	D4	press
39.75	n/a	RESPONSE	M1	1	12	C4	press
39.864	n/a	RESPONSE	M1	1	14	D4	release
39.99	n/a	RESPONSE	M1	1	16	E4	press
40.094	n/a	RESPONSE	M1	1	12	C4	release
40.291	n/a	RESPONSE	M1	1	19	G4	press
40.341	n/a	RESPONSE	M1	1	16	E4	release
41.832	n/a	RESPONSE	M1	1	19	G4	release
42.244	7.758	FIXCROSS	n/a	n/a	n/a	n/a	n/a
50.002	6.317	CUE_LISTEN	M1	2	n/a	n/a	n/a
56.319	7.758	FIXCROSS	n/a	n/a	n/a	n/a	n/a
64.077	6.317	CUE_PLAYBACK_RIGHT_HAND	M1	2	n/a	n/a	n/a
64.842	n/a	RESPONSE	M1	2	19	G4	press
65.385	n/a	RESPONSE	M1	2	16	E4	press
65.504	n/a	RESPONSE	M1	2	19	G4	release
65.835	n/a	RESPONSE	M1	2	16	E4	release
65.896	n/a	RESPONSE	M1	2	16	E4	press
66.407	n/a	RESPONSE	M1	2	17	F4	press
66.469	n/a	RESPONSE	M1	2	16	E4	release
66.904	n/a	RESPONSE	M1	2	14	D4	press
66.964	n/a	RESPONSE	M1	2	17	F4	release
67.29	n/a	RESPONSE	M1	2	14	D4	release
67.395	n/a	RESPONSE	M1	2	14	D4	press
67.885	n/a	RESPONSE	M1	2	12	C4	press
68.035	n/a	RESPONSE	M1	2	14	D4	release
68.102	n/a	RESPONSE	M1	2	16	E4	press
68.202	n/a	RESPONSE	M1	2	12	C4	release
68.388	n/a	RESPONSE	M1	2	12	C4	press
68.482	n/a	RESPONSE	M1	2	16	E4	release
69.442	n/a	RESPONSE	M1	2	12	C4	release
70.394	7.758	FIXCROSS	n/a	n/a	n/a	n/a	n/a
78.152	6.325	CUE_LISTEN	M1	1	n/a	n/a	n/a
84.477	7.758	FIXCROSS	n/a	n/a	n/a	n/a	n/a
92.236	6.317	CUE_PLAYBACK_BOTH_HANDS	M1	1	n/a	n/a	n/a
92.801	n/a	RESPONSE	M1	1	19	G4	press
92.812	n/a	RESPONSE	M1	1	07	G3	press
93.275	n/a	RESPONSE	M1	1	04	E3	press
93.288	n/a	RESPONSE	M1	1	16	E4	press
93.306	n/a	RESPONSE	M1	1	07	G3	release
93.368	n/a	RESPONSE	M1	1	19	G4	release
93.741	n/a	RESPONSE	M1	1	04	E3	release
93.75	n/a	RESPONSE	M1	1	16	E4	release
93.801	n/a	RESPONSE	M1	1	04	E3	press
93.804	n/a	RESPONSE	M1	1	16	E4	press
94.304	n/a	RESPONSE	M1	1	17	F4	press
94.315	n/a	RESPONSE	M1	1	04	E3	release
94.318	n/a	RESPONSE	M1	1	05	F3	press
94.32	n/a	RESPONSE	M1	1	16	E4	release
94.789	n/a	RESPONSE	M1	1	02	D3	press
94.8	n/a	RESPONSE	M1	1	14	D4	press
94.851	n/a	RESPONSE	M1	1	05	F3	release
94.865	n/a	RESPONSE	M1	1	17	F4	release
95.184	n/a	RESPONSE	M1	1	14	D4	release
95.215	n/a	RESPONSE	M1	1	02	D3	release
95.286	n/a	RESPONSE	M1	1	14	D4	press
95.289	n/a	RESPONSE	M1	1	02	D3	press
95.729	n/a	RESPONSE	M1	1	02	D3	release
95.78	n/a	RESPONSE	M1	1	00	C3	press
95.801	n/a	RESPONSE	M1	1	12	C4	press
95.902	n/a	RESPONSE	M1	1	14	D4	release
96.064	n/a	RESPONSE	M1	1	16	E4	press
96.085	n/a	RESPONSE	M1	1	04	E3	press
96.088	n/a	RESPONSE	M1	1	05	F3	press
96.118	n/a	RESPONSE	M1	1	12	C4	release
96.229	n/a	RESPONSE	M1	1	00	C3	release
96.27	n/a	RESPONSE	M1	1	07	G3	press
96.301	n/a	RESPONSE	M1	1	12	C4	press
96.352	n/a	RESPONSE	M1	1	04	E3	release
96.374	n/a	RESPONSE	M1	1	19	G4	press
96.385	n/a	RESPONSE	M1	1	16	E4	release
96.762	n/a	RESPONSE	M1	1	05	F3	release
97.102	n/a	RESPONSE	M1	1	12	C4	release
97.306	n/a	RESPONSE	M1	1	19	G4	release
97.526	n/a	RESPONSE	M1	1	07	G3	release
98.552	7.758	FIXCROSS	n/a	n/a	n/a	n/a	n/a
106.311	6.317	CUE_LISTEN	M1	2	n/a	n/a	n/a
112.628	7.758	FIXCROSS	n/a	n/a	n/a	n/a	n/a
120.386	6.325	CUE_PLAYBACK_BOTH_HANDS	M1	2	n/a	n/a	n/a
120.955	n/a	RESPONSE	M1	2	07	G3	press
120.958	n/a	RESPONSE	M1	2	19	G4	press
121.478	n/a	RESPONSE	M1	2	04	E3	press
121.499	n/a	RESPONSE	M1	2	16	E4	press
121.51	n/a	RESPONSE	M1	2	07	G3	release
121.541	n/a	RESPONSE	M1	2	19	G4	release
122.032	n/a	RESPONSE	M1	2	04	E3	release
122.094	n/a	RESPONSE	M1	2	04	E3	press
122.625	n/a	RESPONSE	M1	2	17	F4	press
122.649	n/a	RESPONSE	M1	2	05	F3	press
122.658	n/a	RESPONSE	M1	2	16	E4	release
122.669	n/a	RESPONSE	M1	2	04	E3	release
123.16	n/a	RESPONSE	M1	2	02	D3	press
123.171	n/a	RESPONSE	M1	2	14	D4	press
123.212	n/a	RESPONSE	M1	2	05	F3	release
123.234	n/a	RESPONSE	M1	2	17	F4	release
123.645	n/a	RESPONSE	M1	2	02	D3	release
123.666	n/a	RESPONSE	M1	2	14	D4	release
123.72	n/a	RESPONSE	M1	2	14	D4	press
123.739	n/a	RESPONSE	M1	2	02	D3	press
124.282	n/a	RESPONSE	M1	2	02	D3	release
124.301	n/a	RESPONSE	M1	2	00	C3	press
124.332	n/a	RESPONSE	M1	2	12	C4	press
124.474	n/a	RESPONSE	M1	2	14	D4	release
125.405	n/a	RESPONSE	M1	2	04	E3	press
125.426	n/a	RESPONSE	M1	2	16	E4	press
125.438	n/a	RESPONSE	M1	2	12	C4	release
125.519	n/a	RESPONSE	M1	2	00	C3	release
125.8	n/a	RESPONSE	M1	2	12	C4	press
125.811	n/a	RESPONSE	M1	2	00	C3	press
125.822	n/a	RESPONSE	M1	2	16	E4	release
125.874	n/a	RESPONSE	M1	2	04	E3	release
126.711	7.758	FIXCROSS	n/a	n/a	n/a	n/a	n/a
126.874	n/a	RESPONSE	M1	2	00	C3	release
127.648	n/a	RESPONSE	M1	2	12	C4	release
134.469	6.317	CUE_LISTEN	M1	1	n/a	n/a	n/a
140.786	7.758	FIXCROSS	n/a	n/a	n/a	n/a	n/a
148.544	6.317	CUE_PLAYBACK_RIGHT_HAND	M1	1	n/a	n/a	n/a
149.214	n/a	RESPONSE	M1	1	19	G4	press
149.744	n/a	RESPONSE	M1	1	16	E4	press
149.833	n/a	RESPONSE	M1	1	19	G4	release
150.206	n/a	RESPONSE	M1	1	16	E4	release
150.26	n/a	RESPONSE	M1	1	16	E4	press
150.798	n/a	RESPONSE	M1	1	17	F4	press
150.858	n/a	RESPONSE	M1	1	16	E4	release
151.319	n/a	RESPONSE	M1	1	14	D4	press
151.38	n/a	RESPONSE	M1	1	17	F4	release
151.791	n/a	RESPONSE	M1	1	14	D4	release
151.843	n/a	RESPONSE	M1	1	14	D4	press
152.364	n/a	RESPONSE	M1	1	12	C4	press
152.488	n/a	RESPONSE	M1	1	14	D4	release
152.596	n/a	RESPONSE	M1	1	16	E4	press
152.698	n/a	RESPONSE	M1	1	12	C4	release
152.889	n/a	RESPONSE	M1	1	19	G4	press
152.98	n/a	RESPONSE	M1	1	16	E4	release
154.071	n/a	RESPONSE	M1	1	19	G4	release
154.861	7.758	FIXCROSS	n/a	n/a	n/a	n/a	n/a
162.619	6.325	CUE_LISTEN	M1	2	n/a	n/a	n/a
168.944	7.758	FIXCROSS	n/a	n/a	n/a	n/a	n/a
176.703	6.317	CUE_PLAYBACK_RIGHT_HAND	M1	2	n/a	n/a	n/a
177.223	n/a	RESPONSE	M1	2	19	G4	press
177.754	n/a	RESPONSE	M1	2	16	E4	press
177.801	n/a	RESPONSE	M1	2	19	G4	release
178.2	n/a	RESPONSE	M1	2	16	E4	release
178.248	n/a	RESPONSE	M1	2	16	E4	press
178.774	n/a	RESPONSE	M1	2	17	F4	press
178.823	n/a	RESPONSE	M1	2	16	E4	release
179.311	n/a	RESPONSE	M1	2	14	D4	press
179.383	n/a	RESPONSE	M1	2	17	F4	release
179.758	n/a	RESPONSE	M1	2	14	D4	release
179.813	n/a	RESPONSE	M1	2	14	D4	press
180.328	n/a	RESPONSE	M1	2	12	C4	press
180.454	n/a	RESPONSE	M1	2	14	D4	release
180.555	n/a	RESPONSE	M1	2	16	E4	press
180.626	n/a	RESPONSE	M1	2	12	C4	release
180.84	n/a	RESPONSE	M1	2	12	C4	press
180.979	n/a	RESPONSE	M1	2	16	E4	release
182.483	n/a	RESPONSE	M1	2	12	C4	release
183.019	7.767	FIXCROSS	n/a	n/a	n/a	n/a	n/a
190.786	6.308	CUE_LISTEN	M1	1	n/a	n/a	n/a
197.094	7.758	FIXCROSS	n/a	n/a	n/a	n/a	n/a
204.853	6.325	CUE_PLAYBACK_BOTH_HANDS	M1	1	n/a	n/a	n/a
205.368	n/a	RESPONSE	M1	1	19	G4	press
205.379	n/a	RESPONSE	M1	1	07	G3	press
205.89	n/a	RESPONSE	M1	1	04	E3	press
205.893	n/a	RESPONSE	M1	1	16	E4	press
205.923	n/a	RESPONSE	M1	1	07	G3	release
205.944	n/a	RESPONSE	M1	1	19	G4	release
206.355	n/a	RESPONSE	M1	1	04	E3	release
206.409	n/a	RESPONSE	M1	1	04	E3	press
206.904	n/a	RESPONSE	M1	1	17	F4	press
206.93	n/a	RESPONSE	M1	1	05	F3	press
206.935	n/a	RESPONSE	M1	1	16	E4	release
206.941	n/a	RESPONSE	M1	1	04	E3	release
207.395	n/a	RESPONSE	M1	1	14	D4	press
207.404	n/a	RESPONSE	M1	1	02	D3	press
207.444	n/a	RESPONSE	M1	1	17	F4	release
207.453	n/a	RESPONSE	M1	1	05	F3	release
207.849	n/a	RESPONSE	M1	1	14	D4	release
207.851	n/a	RESPONSE	M1	1	02	D3	release
207.906	n/a	RESPONSE	M1	1	14	D4	press
207.911	n/a	RESPONSE	M1	1	02	D3	press
208.445	n/a	RESPONSE	M1	1	02	D3	release
208.456	n/a	RESPONSE	M1	1	00	C3	press
208.465	n/a	RESPONSE	M1	1	12	C4	press
208.563	n/a	RESPONSE	M1	1	14	D4	release
208.749	n/a	RESPONSE	M1	1	16	E4	press
208.751	n/a	RESPONSE	M1	1	04	E3	press
208.81	n/a	RESPONSE	M1	1	12	C4	release
208.863	n/a	RESPONSE	M1	1	00	C3	release
208.978	n/a	RESPONSE	M1	1	07	G3	press
208.981	n/a	RESPONSE	M1	1	12	C4	press
209.031	n/a	RESPONSE	M1	1	04	E3	release
209.04	n/a	RESPONSE	M1	1	16	E4	release
209.048	n/a	RESPONSE	M1	1	19	G4	press
209.163	n/a	RESPONSE	M1	1	12	C4	release
210.259	n/a	RESPONSE	M1	1	07	G3	release
210.498	n/a	RESPONSE	M1	1	19	G4	release
211.178	7.758	FIXCROSS	n/a	n/a	n/a	n/a	n/a
218.936	6.317	CUE_LISTEN	M1	2	n/a	n/a	n/a
225.253	7.758	FIXCROSS	n/a	n/a	n/a	n/a	n/a
233.011	6.325	CUE_PLAYBACK_BOTH_HANDS	M1	2	n/a	n/a	n/a
233.582	n/a	RESPONSE	M1	2	19	G4	press
233.585	n/a	RESPONSE	M1	2	07	G3	press
234.134	n/a	RESPONSE	M1	2	04	E3	press
234.145	n/a	RESPONSE	M1	2	16	E4	press
234.176	n/a	RESPONSE	M1	2	07	G3	release
234.198	n/a	RESPONSE	M1	2	19	G4	release
234.589	n/a	RESPONSE	M1	2	04	E3	release
234.64	n/a	RESPONSE	M1	2	04	E3	press
235.144	n/a	RESPONSE	M1	2	17	F4	press
235.163	n/a	RESPONSE	M1	2	05	F3	press
235.174	n/a	RESPONSE	M1	2	16	E4	release
235.205	n/a	RESPONSE	M1	2	04	E3	release
235.626	n/a	RESPONSE	M1	2	14	D4	press
235.629	n/a	RESPONSE	M1	2	02	D3	press
235.67	n/a	RESPONSE	M1	2	17	F4	release
235.68	n/a	RESPONSE	M1	2	05	F3	release
236.031	n/a	RESPONSE	M1	2	14	D4	release
236.044	n/a	RESPONSE	M1	2	02	D3	release
236.105	n/a	RESPONSE	M1	2	14	D4	press
236.108	n/a	RESPONSE	M1	2	02	D3	press
236.586	n/a	RESPONSE	M1	2	02	D3	release
236.608	n/a	RESPONSE	M1	2	00	C3	press
236.619	n/a	RESPONSE	M1	2	12	C4	press
236.71	n/a	RESPONSE	M1	2	14	D4	release
236.86	n/a	RESPONSE	M1	2	16	E4	press
236.873	n/a	RESPONSE	M1	2	04	E3	press
236.88	n/a	RESPONSE	M1	2	05	F3	press
236.89	n/a	RESPONSE	M1	2	12	C4	release
236.943	n/a	RESPONSE	M1	2	00	C3	release
237.014	n/a	RESPONSE	M1	2	05	F3	release
237.086	n/a	RESPONSE	M1	2	12	C4	press
237.089	n/a	RESPONSE	M1	2	00	C3	press
237.125	n/a	RESPONSE	M1	2	16	E4	release
237.162	n/a	RESPONSE	M1	2	04	E3	release
238.05	n/a	RESPONSE	M1	2	00	C3	release
238.14	n/a	RESPONSE	M1	2	12	C4	release
239.336	7.758	FIXCROSS	n/a	n/a	n/a	n/a	n/a
247.095	6.317	CUE_LISTEN	M1	1	n/a	n/a	n/a
253.411	7.758	FIXCROSS	n/a	n/a	n/a	n/a	n/a
261.17	6.317	CUE_PLAYBACK_RIGHT_HAND	M1	1	n/a	n/a	n/a
261.715	n/a	RESPONSE	M1	1	19	G4	press
262.226	n/a	RESPONSE	M1	1	16	E4	press
262.289	n/a	RESPONSE	M1	1	19	G4	release
262.689	n/a	RESPONSE	M1	1	16	E4	release
262.75	n/a	RESPONSE	M1	1	16	E4	press
263.252	n/a	RESPONSE	M1	1	17	F4	press
263.323	n/a	RESPONSE	M1	1	16	E4	release
263.794	n/a	RESPONSE	M1	1	14	D4	press
263.858	n/a	RESPONSE	M1	1	17	F4	release
264.256	n/a	RESPONSE	M1	1	14	D4	release
264.308	n/a	RESPONSE	M1	1	14	D4	press
264.849	n/a	RESPONSE	M1	1	12	C4	press
264.97	n/a	RESPONSE	M1	1	14	D4	release
265.092	n/a	RESPONSE	M1	1	16	E4	press
265.193	n/a	RESPONSE	M1	1	12	C4	release
265.406	n/a	RESPONSE	M1	1	19	G4	press
265.485	n/a	RESPONSE	M1	1	16	E4	release
266.792	n/a	RESPONSE	M1	1	19	G4	release
267.486	7.758	FIXCROSS	n/a	n/a	n/a	n/a	n/a
275.245	6.325	CUE_LISTEN	M1	2	n/a	n/a	n/a
281.57	7.759	FIXCROSS	n/a	n/a	n/a	n/a	n/a
289.328	6.316	CUE_PLAYBACK_RIGHT_HAND	M1	2	n/a	n/a	n/a
289.899	n/a	RESPONSE	M1	2	19	G4	press
290.399	n/a	RESPONSE	M1	2	16	E4	press
290.45	n/a	RESPONSE	M1	2	19	G4	release
290.862	n/a	RESPONSE	M1	2	16	E4	release
290.933	n/a	RESPONSE	M1	2	16	E4	press
291.434	n/a	RESPONSE	M1	2	17	F4	press
291.545	n/a	RESPONSE	M1	2	16	E4	release
291.996	n/a	RESPONSE	M1	2	14	D4	press
292.038	n/a	RESPONSE	M1	2	17	F4	release
292.449	n/a	RESPONSE	M1	2	14	D4	release
292.5	n/a	RESPONSE	M1	2	14	D4	press
292.972	n/a	RESPONSE	M1	2	12	C4	press
293.203	n/a	RESPONSE	M1	2	16	E4	press
293.205	n/a	RESPONSE	M1	2	14	D4	release
293.258	n/a	RESPONSE	M1	2	12	C4	release
293.496	n/a	RESPONSE	M1	2	12	C4	press
293.568	n/a	RESPONSE	M1	2	16	E4	release
294.619	n/a	RESPONSE	M1	2	12	C4	release
295.645	7.758	FIXCROSS	n/a	n/a	n/a	n/a	n/a
303.403	6.317	CUE_LISTEN	M1	1	n/a	n/a	n/a
309.72	7.759	FIXCROSS	n/a	n/a	n/a	n/a	n/a
317.478	6.333	CUE_PLAYBACK_BOTH_HANDS	M1	1	n/a	n/a	n/a
318.022	n/a	RESPONSE	M1	1	19	G4	press
318.033	n/a	RESPONSE	M1	1	07	G3	press
318.54	n/a	RESPONSE	M1	1	16	E4	press
318.549	n/a	RESPONSE	M1	1	04	E3	press
318.594	n/a	RESPONSE	M1	1	07	G3	release
318.612	n/a	RESPONSE	M1	1	19	G4	release
319.032	n/a	RESPONSE	M1	1	16	E4	release
319.035	n/a	RESPONSE	M1	1	04	E3	release
319.074	n/a	RESPONSE	M1	1	16	E4	press
319.079	n/a	RESPONSE	M1	1	04	E3	press
319.568	n/a	RESPONSE	M1	1	17	F4	press
319.588	n/a	RESPONSE	M1	1	05	F3	press
319.602	n/a	RESPONSE	M1	1	16	E4	release
319.604	n/a	RESPONSE	M1	1	04	E3	release
320.08	n/a	RESPONSE	M1	1	14	D4	press
320.085	n/a	RESPONSE	M1	1	02	D3	press
320.138	n/a	RESPONSE	M1	1	17	F4	release
320.148	n/a	RESPONSE	M1	1	05	F3	release
320.532	n/a	RESPONSE	M1	1	14	D4	release
320.543	n/a	RESPONSE	M1	1	02	D3	release
320.594	n/a	RESPONSE	M1	1	02	D3	press
320.605	n/a	RESPONSE	M1	1	14	D4	press
321.137	n/a	RESPONSE	M1	1	00	C3	press
321.14	n/a	RESPONSE	M1	1	02	D3	release
321.169	n/a	RESPONSE	M1	1	12	C4	press
321.26	n/a	RESPONSE	M1	1	14	D4	release
321.632	n/a	RESPONSE	M1	1	04	E3	press
321.634	n/a	RESPONSE	M1	1	16	E4	press
321.734	n/a	RESPONSE	M1	1	12	C4	release
321.775	n/a	RESPONSE	M1	1	00	C3	release
322.117	n/a	RESPONSE	M1	1	07	G3	press
322.129	n/a	RESPONSE	M1	1	19	G4	press
322.139	n/a	RESPONSE	M1	1	04	E3	release
322.15	n/a	RESPONSE	M1	1	16	E4	release
323.142	n/a	RESPONSE	M1	1	19	G4	release
323.255	n/a	RESPONSE	M1	1	07	G3	release
323.812	7.758	FIXCROSS	n/a	n/a	n/a	n/a	n/a
331.57	6.308	CUE_LISTEN	M1	2	n/a	n/a	n/a
337.878	7.759	FIXCROSS	n/a	n/a	n/a	n/a	n/a
345.637	6.317	CUE_PLAYBACK_BOTH_HANDS	M1	2	n/a	n/a	n/a
346.178	n/a	RESPONSE	M1	2	19	G4	press
346.199	n/a	RESPONSE	M1	2	07	G3	press
346.69	n/a	RESPONSE	M1	2	16	E4	press
346.693	n/a	RESPONSE	M1	2	04	E3	press
346.723	n/a	RESPONSE	M1	2	19	G4	release
346.727	n/a	RESPONSE	M1	2	07	G3	release
347.197	n/a	RESPONSE	M1	2	04	E3	release
347.248	n/a	RESPONSE	M1	2	04	E3	press
347.758	n/a	RESPONSE	M1	2	17	F4	press
347.78	n/a	RESPONSE	M1	2	16	E4	release
347.785	n/a	RESPONSE	M1	2	05	F3	press
347.795	n/a	RESPONSE	M1	2	04	E3	release
348.264	n/a	RESPONSE	M1	2	02	D3	press
348.272	n/a	RESPONSE	M1	2	14	D4	press
348.329	n/a	RESPONSE	M1	2	05	F3	release
348.34	n/a	RESPONSE	M1	2	17	F4	release
348.733	n/a	RESPONSE	M1	2	02	D3	release
348.739	n/a	RESPONSE	M1	2	14	D4	release
348.819	n/a	RESPONSE	M1	2	02	D3	press
348.822	n/a	RESPONSE	M1	2	14	D4	press
349.342	n/a	RESPONSE	M1	2	12	C4	press
349.345	n/a	RESPONSE	M1	2	00	C3	press
349.353	n/a	RESPONSE	M1	2	02	D3	release
349.452	n/a	RESPONSE	M1	2	14	D4	release
349.813	n/a	RESPONSE	M1	2	04	E3	press
349.82	n/a	RESPONSE	M1	2	16	E4	press
349.892	n/a	RESPONSE	M1	2	12	C4	release
349.993	n/a	RESPONSE	M1	2	00	C3	release
350.302	n/a	RESPONSE	M1	2	12	C4	press
350.312	n/a	RESPONSE	M1	2	00	C3	press
350.328	n/a	RESPONSE	M1	2	16	E4	release
350.35	n/a	RESPONSE	M1	2	04	E3	release
351.518	n/a	RESPONSE	M1	2	00	C3	release
351.579	n/a	RESPONSE	M1	2	12	C4	release
351.953	7.759	FIXCROSS	n/a	n/a	n/a	n/a	n/a
359.712	6.325	CUE_LISTEN	M1	1	n/a	n/a	n/a
366.037	7.758	FIXCROSS	n/a	n/a	n/a	n/a	n/a
373.795	6.317	CUE_PLAYBACK_RIGHT_HAND	M1	1	n/a	n/a	n/a
374.39	n/a	RESPONSE	M1	1	19	G4	press
374.922	n/a	RESPONSE	M1	1	16	E4	press
374.953	n/a	RESPONSE	M1	1	19	G4	release
375.374	n/a	RESPONSE	M1	1	16	E4	release
375.445	n/a	RESPONSE	M1	1	16	E4	press
375.987	n/a	RESPONSE	M1	1	17	F4	press
376.068	n/a	RESPONSE	M1	1	16	E4	release
376.529	n/a	RESPONSE	M1	1	14	D4	press
376.613	n/a	RESPONSE	M1	1	17	F4	release
376.978	n/a	RESPONSE	M1	1	14	D4	release
377.047	n/a	RESPONSE	M1	1	14	D4	press
377.555	n/a	RESPONSE	M1	1	12	C4	press
377.734	n/a	RESPONSE	M1	1	14	D4	release
377.823	n/a	RESPONSE	M1	1	16	E4	press
377.929	n/a	RESPONSE	M1	1	12	C4	release
378.109	n/a	RESPONSE	M1	1	19	G4	press
378.207	n/a	RESPONSE	M1	1	16	E4	release
379.372	n/a	RESPONSE	M1	1	19	G4	release
380.112	7.758	FIXCROSS	n/a	n/a	n/a	n/a	n/a
387.87	6.317	CUE_LISTEN	M1	2	n/a	n/a	n/a
394.187	7.759	FIXCROSS	n/a	n/a	n/a	n/a	n/a
401.945	6.325	CUE_PLAYBACK_RIGHT_HAND	M1	2	n/a	n/a	n/a
402.413	n/a	RESPONSE	M1	2	19	G4	press
402.924	n/a	RESPONSE	M1	2	16	E4	press
402.976	n/a	RESPONSE	M1	2	19	G4	release
403.397	n/a	RESPONSE	M1	2	16	E4	release
403.479	n/a	RESPONSE	M1	2	16	E4	press
403.962	n/a	RESPONSE	M1	2	17	F4	press
404.03	n/a	RESPONSE	M1	2	16	E4	release
404.482	n/a	RESPONSE	M1	2	14	D4	press
404.543	n/a	RESPONSE	M1	2	17	F4	release
404.934	n/a	RESPONSE	M1	2	14	D4	release
405.028	n/a	RESPONSE	M1	2	14	D4	press
405.559	n/a	RESPONSE	M1	2	12	C4	press
405.699	n/a	RESPONSE	M1	2	14	D4	release
405.809	n/a	RESPONSE	M1	2	16	E4	press
405.89	n/a	RESPONSE	M1	2	12	C4	release
406.102	n/a	RESPONSE	M1	2	12	C4	press
406.174	n/a	RESPONSE	M1	2	16	E4	release
407.19	n/a	RESPONSE	M1	2	12	C4	release
408.27	7.759	FIXCROSS	n/a	n/a	n/a	n/a	n/a
416.029	6.317	CUE_LISTEN	M1	1	n/a	n/a	n/a
422.345	7.758	FIXCROSS	n/a	n/a	n/a	n/a	n/a
430.104	6.317	CUE_PLAYBACK_BOTH_HANDS	M1	1	n/a	n/a	n/a
430.619	n/a	RESPONSE	M1	1	19	G4	press
430.622	n/a	RESPONSE	M1	1	07	G3	press
431.15	n/a	RESPONSE	M1	1	04	E3	press
431.153	n/a	RESPONSE	M1	1	16	E4	press
431.193	n/a	RESPONSE	M1	1	07	G3	release
431.224	n/a	RESPONSE	M1	1	19	G4	release
431.626	n/a	RESPONSE	M1	1	04	E3	release
431.637	n/a	RESPONSE	M1	1	16	E4	release
431.658	n/a	RESPONSE	M1	1	04	E3	press
431.669	n/a	RESPONSE	M1	1	16	E4	press
432.192	n/a	RESPONSE	M1	1	17	F4	press
432.212	n/a	RESPONSE	M1	1	05	F3	press
432.233	n/a	RESPONSE	M1	1	16	E4	release
432.244	n/a	RESPONSE	M1	1	04	E3	release
432.706	n/a	RESPONSE	M1	1	14	D4	press
432.708	n/a	RESPONSE	M1	1	02	D3	press
432.759	n/a	RESPONSE	M1	1	17	F4	release
432.769	n/a	RESPONSE	M1	1	05	F3	release
433.15	n/a	RESPONSE	M1	1	14	D4	release
433.162	n/a	RESPONSE	M1	1	02	D3	release
433.223	n/a	RESPONSE	M1	1	02	D3	press
433.226	n/a	RESPONSE	M1	1	14	D4	press
433.707	n/a	RESPONSE	M1	1	02	D3	release
433.737	n/a	RESPONSE	M1	1	00	C3	press
433.768	n/a	RESPONSE	M1	1	12	C4	press
433.839	n/a	RESPONSE	M1	1	14	D4	release
434.05	n/a	RESPONSE	M1	1	04	E3	press
434.072	n/a	RESPONSE	M1	1	16	E4	press
434.146	n/a	RESPONSE	M1	1	12	C4	release
434.154	n/a	RESPONSE	M1	1	00	C3	release
434.307	n/a	RESPONSE	M1	1	07	G3	press
434.338	n/a	RESPONSE	M1	1	19	G4	press
434.378	n/a	RESPONSE	M1	1	16	E4	release
434.389	n/a	RESPONSE	M1	1	04	E3	release
435.51	n/a	RESPONSE	M1	1	19	G4	release
435.532	n/a	RESPONSE	M1	1	07	G3	release
436.42	7.759	FIXCROSS	n/a	n/a	n/a	n/a	n/a
444.179	6.325	CUE_LISTEN	M1	2	n/a	n/a	n/a
450.504	7.759	FIXCROSS	n/a	n/a	n/a	n/a	n/a
458.262	6.317	CUE_PLAYBACK_BOTH_HANDS	M1	2	n/a	n/a	n/a
458.799	n/a	RESPONSE	M1	2	07	G3	press
458.816	n/a	RESPONSE	M1	2	19	G4	press
459.346	n/a	RESPONSE	M1	2	16	E4	press
459.348	n/a	RESPONSE	M1	2	04	E3	press
459.406	n/a	RESPONSE	M1	2	07	G3	release
459.409	n/a	RESPONSE	M1	2	19	G4	release
459.844	n/a	RESPONSE	M1	2	04	E3	release
459.898	n/a	RESPONSE	M1	2	04	E3	press
460.413	n/a	RESPONSE	M1	2	17	F4	press
460.424	n/a	RESPONSE	M1	2	05	F3	press
460.436	n/a	RESPONSE	M1	2	04	E3	release
460.457	n/a	RESPONSE	M1	2	16	E4	release
460.928	n/a	RESPONSE	M1	2	02	D3	press
460.949	n/a	RESPONSE	M1	2	14	D4	press
460.991	n/a	RESPONSE	M1	2	05	F3	release
461.002	n/a	RESPONSE	M1	2	17	F4	release
461.426	n/a	RESPONSE	M1	2	02	D3	release
461.464	n/a	RESPONSE	M1	2	14	D4	release
461.496	n/a	RESPONSE	M1	2	02	D3	press
461.508	n/a	RESPONSE	M1	2	14	D4	press
462.031	n/a	RESPONSE	M1	2	02	D3	release
462.042	n/a	RESPONSE	M1	2	12	C4	press
462.051	n/a	RESPONSE	M1	2	00	C3	press
462.182	n/a	RESPONSE	M1	2	14	D4	release
462.333	n/a	RESPONSE	M1	2	16	E4	press
462.354	n/a	RESPONSE	M1	2	04	E3	press
462.376	n/a	RESPONSE	M1	2	05	F3	press
462.379	n/a	RESPONSE	M1	2	12	C4	release
462.468	n/a	RESPONSE	M1	2	00	C3	release
462.579	n/a	RESPONSE	M1	2	00	C3	press
462.582	n/a	RESPONSE	M1	2	12	C4	press
462.604	n/a	RESPONSE	M1	2	05	F3	release
462.633	n/a	RESPONSE	M1	2	16	E4	release
462.657	n/a	RESPONSE	M1	2	04	E3	release
463.616	n/a	RESPONSE	M1	2	00	C3	release
464.207	n/a	RESPONSE	M1	2	12	C4	release
464.579	7.758	FIXCROSS	n/a	n/a	n/a	n/a	n/a
472.337	6.325	CUE_LISTEN	M1	1	n/a	n/a	n/a
478.662	7.758	FIXCROSS	n/a	n/a	n/a	n/a	n/a
486.421	6.317	CUE_PLAYBACK_RIGHT_HAND	M1	1	n/a	n/a	n/a
486.987	n/a	RESPONSE	M1	1	19	G4	press
487.481	n/a	RESPONSE	M1	1	16	E4	press
487.568	n/a	RESPONSE	M1	1	19	G4	release
487.953	n/a	RESPONSE	M1	1	16	E4	release
488.032	n/a	RESPONSE	M1	1	16	E4	press
488.512	n/a	RESPONSE	M1	1	17	F4	press
488.627	n/a	RESPONSE	M1	1	16	E4	release
489.042	n/a	RESPONSE	M1	1	14	D4	press
489.117	n/a	RESPONSE	M1	1	17	F4	release
489.459	n/a	RESPONSE	M1	1	14	D4	release
489.518	n/a	RESPONSE	M1	1	14	D4	press
490.051	n/a	RESPONSE	M1	1	12	C4	press
490.164	n/a	RESPONSE	M1	1	14	D4	release
490.262	n/a	RESPONSE	M1	1	16	E4	press
490.331	n/a	RESPONSE	M1	1	12	C4	release
490.557	n/a	RESPONSE	M1	1	19	G4	press
490.628	n/a	RESPONSE	M1	1	16	E4	release
491.871	n/a	RESPONSE	M1	1	19	G4	release
492.737	7.759	FIXCROSS	n/a	n/a	n/a	n/a	n/a
500.496	6.317	CUE_LISTEN	M1	2	n/a	n/a	n/a
506.812	7.758	FIXCROSS	n/a	n/a	n/a	n/a	n/a
514.571	6.325	CUE_PLAYBACK_RIGHT_HAND	M1	2	n/a	n/a	n/a
515.061	n/a	RESPONSE	M1	2	19	G4	press
515.572	n/a	RESPONSE	M1	2	16	E4	press
515.673	n/a	RESPONSE	M1	2	19	G4	release
516.504	n/a	RESPONSE	M1	2	16	E4	release
516.536	n/a	RESPONSE	M1	2	16	E4	press
517.021	n/a	RESPONSE	M1	2	17	F4	press
517.106	n/a	RESPONSE	M1	2	16	E4	release
517.521	n/a	RESPONSE	M1	2	14	D4	press
517.614	n/a	RESPONSE	M1	2	17	F4	release
517.984	n/a	RESPONSE	M1	2	14	D4	release
518.044	n/a	RESPONSE	M1	2	14	D4	press
518.537	n/a	RESPONSE	M1	2	12	C4	press
518.662	n/a	RESPONSE	M1	2	14	D4	release
518.786	n/a	RESPONSE	M1	2	16	E4	press
518.869	n/a	RESPONSE	M1	2	12	C4	release
519.067	n/a	RESPONSE	M1	2	12	C4	press
519.113	n/a	RESPONSE	M1	2	16	E4	release
520.198	n/a	RESPONSE	M1	2	12	C4	release
520.896	7.759	FIXCROSS	n/a	n/a	n/a	n/a	n/a
528.654	6.317	CUE_LISTEN	M1	1	n/a	n/a	n/a
534.971	7.759	FIXCROSS	n/a	n/a	n/a	n/a	n/a
542.729	6.317	CUE_PLAYBACK_BOTH_HANDS	M1	1	n/a	n/a	n/a
543.144	n/a	RESPONSE	M1	1	19	G4	press
543.166	n/a	RESPONSE	M1	1	07	G3	press
543.68	n/a	RESPONSE	M1	1	04	E3	press
543.698	n/a	RESPONSE	M1	1	16	E4	press
543.712	n/a	RESPONSE	M1	1	07	G3	release
543.751	n/a	RESPONSE	M1	1	19	G4	release
544.162	n/a	RESPONSE	M1	1	04	E3	release
544.173	n/a	RESPONSE	M1	1	16	E4	release
544.217	n/a	RESPONSE	M1	1	16	E4	press
544.226	n/a	RESPONSE	M1	1	04	E3	press
544.777	n/a	RESPONSE	M1	1	17	F4	press
544.791	n/a	RESPONSE	M1	1	05	F3	press
544.799	n/a	RESPONSE	M1	1	16	E4	release
544.802	n/a	RESPONSE	M1	1	04	E3	release
545.312	n/a	RESPONSE	M1	1	02	D3	press
545.316	n/a	RESPONSE	M1	1	14	D4	press
545.354	n/a	RESPONSE	M1	1	05	F3	release
545.376	n/a	RESPONSE	M1	1	17	F4	release
545.758	n/a	RESPONSE	M1	1	02	D3	release
545.781	n/a	RESPONSE	M1	1	14	D4	release
545.832	n/a	RESPONSE	M1	1	02	D3	press
545.834	n/a	RESPONSE	M1	1	14	D4	press
546.366	n/a	RESPONSE	M1	1	02	D3	release
546.384	n/a	RESPONSE	M1	1	00	C3	press
546.398	n/a	RESPONSE	M1	1	12	C4	press
546.487	n/a	RESPONSE	M1	1	14	D4	release
546.728	n/a	RESPONSE	M1	1	04	E3	press
546.739	n/a	RESPONSE	M1	1	16	E4	press
546.808	n/a	RESPONSE	M1	1	12	C4	release
546.828	n/a	RESPONSE	M1	1	00	C3	release
547.002	n/a	RESPONSE	M1	1	07	G3	press
547.054	n/a	RESPONSE	M1	1	04	E3	release
547.057	n/a	RESPONSE	M1	1	19	G4	press
547.072	n/a	RESPONSE	M1	1	16	E4	release
548.197	n/a	RESPONSE	M1	1	07	G3	release
548.214	n/a	RESPONSE	M1	1	19	G4	release
549.046	7.758	FIXCROSS	n/a	n/a	n/a	n/a	n/a
556.804	6.325	CUE_LISTEN	M1	2	n/a	n/a	n/a
563.129	7.758	FIXCROSS	n/a	n/a	n/a	n/a	n/a
570.888	6.317	CUE_PLAYBACK_BOTH_HANDS	M1	2	n/a	n/a	n/a
571.358	n/a	RESPONSE	M1	2	19	G4	press
571.382	n/a	RESPONSE	M1	2	07	G3	press
571.913	n/a	RESPONSE	M1	2	16	E4	press
571.913	n/a	RESPONSE	M1	2	04	E3	press
571.954	n/a	RESPONSE	M1	2	07	G3	release
572.007	n/a	RESPONSE	M1	2	19	G4	release
572.387	n/a	RESPONSE	M1	2	04	E3	release
572.409	n/a	RESPONSE	M1	2	16	E4	release
572.452	n/a	RESPONSE	M1	2	04	E3	press
572.461	n/a	RESPONSE	M1	2	16	E4	press
572.972	n/a	RESPONSE	M1	2	17	F4	press
573.003	n/a	RESPONSE	M1	2	05	F3	press
573.034	n/a	RESPONSE	M1	2	16	E4	release
573.037	n/a	RESPONSE	M1	2	04	E3	release
573.487	n/a	RESPONSE	M1	2	02	D3	press
573.498	n/a	RESPONSE	M1	2	14	D4	press
573.54	n/a	RESPONSE	M1	2	05	F3	release
573.571	n/a	RESPONSE	M1	2	17	F4	release
573.942	n/a	RESPONSE	M1	2	02	D3	release
573.963	n/a	RESPONSE	M1	2	14	D4	release
574.024	n/a	RESPONSE	M1	2	02	D3	press
574.036	n/a	RESPONSE	M1	2	14	D4	press
574.54	n/a	RESPONSE	M1	2	00	C3	press
574.558	n/a	RESPONSE	M1	2	12	C4	press
574.561	n/a	RESPONSE	M1	2	02	D3	release
574.681	n/a	RESPONSE	M1	2	14	D4	release
574.813	n/a	RESPONSE	M1	2	04	E3	press
574.833	n/a	RESPONSE	M1	2	16	E4	press
574.884	n/a	RESPONSE	M1	2	12	C4	release
574.897	n/a	RESPONSE	M1	2	00	C3	release
575.058	n/a	RESPONSE	M1	2	12	C4	press
575.068	n/a	RESPONSE	M1	2	00	C3	press
575.099	n/a	RESPONSE	M1	2	16	E4	release
575.111	n/a	RESPONSE	M1	2	04	E3	release
576.232	n/a	RESPONSE	M1	2	00	C3	release
576.383	n/a	RESPONSE	M1	2	12	C4	release
577.204	7.759	FIXCROSS	n/a	n/a	n/a	n/a	n/a
584.963	6.316	CUE_LISTEN	M1	1	n/a	n/a	n/a
591.279	7.758	FIXCROSS	n/a	n/a	n/a	n/a	n/a
599.038	6.325	CUE_PLAYBACK_RIGHT_HAND	M1	1	n/a	n/a	n/a
599.57	n/a	RESPONSE	M1	1	19	G4	press
600.086	n/a	RESPONSE	M1	1	16	E4	press
600.197	n/a	RESPONSE	M1	1	19	G4	release
600.531	n/a	RESPONSE	M1	1	16	E4	release
600.582	n/a	RESPONSE	M1	1	16	E4	press
601.073	n/a	RESPONSE	M1	1	17	F4	press
601.076	n/a	RESPONSE	M1	1	16	E4	release
601.576	n/a	RESPONSE	M1	1	14	D4	press
601.637	n/a	RESPONSE	M1	1	17	F4	release
602.028	n/a	RESPONSE	M1	1	14	D4	release
602.1	n/a	RESPONSE	M1	1	14	D4	press
602.621	n/a	RESPONSE	M1	1	12	C4	press
602.722	n/a	RESPONSE	M1	1	14	D4	release
602.846	n/a	RESPONSE	M1	1	16	E4	press
602.897	n/a	RESPONSE	M1	1	12	C4	release
603.146	n/a	RESPONSE	M1	1	19	G4	press
603.178	n/a	RESPONSE	M1	1	16	E4	release
604.358	n/a	RESPONSE	M1	1	19	G4	release
605.363	7.758	FIXCROSS	n/a	n/a	n/a	n/a	n/a
613.121	6.317	CUE_LISTEN	M1	2	n/a	n/a	n/a
619.438	7.758	FIXCROSS	n/a	n/a	n/a	n/a	n/a
627.196	6.317	CUE_PLAYBACK_RIGHT_HAND	M1	2	n/a	n/a	n/a
627.694	n/a	RESPONSE	M1	2	19	G4	press
628.205	n/a	RESPONSE	M1	2	16	E4	press
628.218	n/a	RESPONSE	M1	2	19	G4	release
628.652	n/a	RESPONSE	M1	2	16	E4	release
628.722	n/a	RESPONSE	M1	2	16	E4	press
629.252	n/a	RESPONSE	M1	2	17	F4	press
629.321	n/a	RESPONSE	M1	2	16	E4	release
629.795	n/a	RESPONSE	M1	2	14	D4	press
629.858	n/a	RESPONSE	M1	2	17	F4	release
630.255	n/a	RESPONSE	M1	2	14	D4	release
630.302	n/a	RESPONSE	M1	2	14	D4	press
630.856	n/a	RESPONSE	M1	2	12	C4	press
630.986	n/a	RESPONSE	M1	2	14	D4	release
631.076	n/a	RESPONSE	M1	2	16	E4	press
631.147	n/a	RESPONSE	M1	2	12	C4	release
631.408	n/a	RESPONSE	M1	2	12	C4	press
631.45	n/a	RESPONSE	M1	2	16	E4	release
632.601	n/a	RESPONSE	M1	2	12	C4	release
633.513	7.758	FIXCROSS	n/a	n/a	n/a	n/a	n/a
641.271	6.325	CUE_LISTEN	M1	1	n/a	n/a	n/a
647.596	7.758	FIXCROSS	n/a	n/a	n/a	n/a	n/a
655.354	6.317	CUE_PLAYBACK_BOTH_HANDS	M1	1	n/a	n/a	n/a
655.833	n/a	RESPONSE	M1	1	19	G4	press
655.855	n/a	RESPONSE	M1	1	07	G3	press
656.385	n/a	RESPONSE	M1	1	04	E3	press
656.387	n/a	RESPONSE	M1	1	16	E4	press
656.43	n/a	RESPONSE	M1	1	19	G4	release
656.438	n/a	RESPONSE	M1	1	07	G3	release
656.862	n/a	RESPONSE	M1	1	04	E3	release
656.876	n/a	RESPONSE	M1	1	16	E4	release
656.912	n/a	RESPONSE	M1	1	04	E3	press
656.915	n/a	RESPONSE	M1	1	16	E4	press
657.465	n/a	RESPONSE	M1	1	17	F4	press
657.496	n/a	RESPONSE	M1	1	05	F3	press
657.508	n/a	RESPONSE	M1	1	16	E4	release
657.523	n/a	RESPONSE	M1	1	04	E3	release
658.011	n/a	RESPONSE	M1	1	14	D4	press
658.02	n/a	RESPONSE	M1	1	02	D3	press
658.062	n/a	RESPONSE	M1	1	17	F4	release
658.075	n/a	RESPONSE	M1	1	05	F3	release
658.477	n/a	RESPONSE	M1	1	02	D3	release
658.505	n/a	RESPONSE	M1	1	14	D4	release
658.557	n/a	RESPONSE	M1	1	02	D3	press
658.566	n/a	RESPONSE	M1	1	14	D4	press
659.093	n/a	RESPONSE	M1	1	00	C3	press
659.103	n/a	RESPONSE	M1	1	12	C4	press
659.113	n/a	RESPONSE	M1	1	02	D3	release
659.221	n/a	RESPONSE	M1	1	14	D4	release
659.413	n/a	RESPONSE	M1	1	16	E4	press
659.418	n/a	RESPONSE	M1	1	04	E3	press
659.461	n/a	RESPONSE	M1	1	12	C4	release
659.521	n/a	RESPONSE	M1	1	00	C3	release
659.766	n/a	RESPONSE	M1	1	07	G3	press
659.772	n/a	RESPONSE	M1	1	16	E4	release
659.783	n/a	RESPONSE	M1	1	19	G4	press
659.833	n/a	RESPONSE	M1	1	04	E3	release
660.941	n/a	RESPONSE	M1	1	19	G4	release
660.975	n/a	RESPONSE	M1	1	07	G3	release
661.671	7.758	FIXCROSS	n/a	n/a	n/a	n/a	n/a
669.43	6.325	CUE_LISTEN	M1	2	n/a	n/a	n/a
675.754	7.759	FIXCROSS	n/a	n/a	n/a	n/a	n/a
683.513	6.317	CUE_PLAYBACK_BOTH_HANDS	M1	2	n/a	n/a	n/a
683.955	n/a	RESPONSE	M1	2	19	G4	press
683.963	n/a	RESPONSE	M1	2	07	G3	press
684.475	n/a	RESPONSE	M1	2	04	E3	press
684.477	n/a	RESPONSE	M1	2	16	E4	press
684.527	n/a	RESPONSE	M1	2	07	G3	release
684.538	n/a	RESPONSE	M1	2	19	G4	release
684.95	n/a	RESPONSE	M1	2	04	E3	release
684.981	n/a	RESPONSE	M1	2	16	E4	release
685.012	n/a	RESPONSE	M1	2	04	E3	press
685.023	n/a	RESPONSE	M1	2	16	E4	press
685.535	n/a	RESPONSE	M1	2	17	F4	press
685.547	n/a	RESPONSE	M1	2	05	F3	press
685.567	n/a	RESPONSE	M1	2	04	E3	release
685.578	n/a	RESPONSE	M1	2	16	E4	release
686.06	n/a	RESPONSE	M1	2	14	D4	press
686.062	n/a	RESPONSE	M1	2	02	D3	press
686.115	n/a	RESPONSE	M1	2	05	F3	release
686.123	n/a	RESPONSE	M1	2	17	F4	release
686.515	n/a	RESPONSE	M1	2	02	D3	release
686.546	n/a	RESPONSE	M1	2	14	D4	release
686.597	n/a	RESPONSE	M1	2	02	D3	press
686.608	n/a	RESPONSE	M1	2	14	D4	press
687.11	n/a	RESPONSE	M1	2	02	D3	release
687.127	n/a	RESPONSE	M1	2	00	C3	press
687.133	n/a	RESPONSE	M1	2	12	C4	press
687.257	n/a	RESPONSE	M1	2	14	D4	release
687.375	n/a	RESPONSE	M1	2	16	E4	press
687.392	n/a	RESPONSE	M1	2	04	E3	press
687.44	n/a	RESPONSE	M1	2	12	C4	release
687.488	n/a	RESPONSE	M1	2	00	C3	release
687.606	n/a	RESPONSE	M1	2	00	C3	press
687.623	n/a	RESPONSE	M1	2	12	C4	press
687.632	n/a	RESPONSE	M1	2	04	E3	release
687.656	n/a	RESPONSE	M1	2	16	E4	release
688.911	n/a	RESPONSE	M1	2	00	C3	release
689.592	n/a	RESPONSE	M1	2	12	C4	release
689.83	7.758	FIXCROSS	n/a	n/a	n/a	n/a	n/a
697.588	6.317	CUE_LISTEN	M1	1	n/a	n/a	n/a
703.905	7.759	FIXCROSS	n/a	n/a	n/a	n/a	n/a
711.663	6.325	CUE_PLAYBACK_RIGHT_HAND	M1	1	n/a	n/a	n/a
712.096	n/a	RESPONSE	M1	1	19	G4	press
712.617	n/a	RESPONSE	M1	1	16	E4	press
712.64	n/a	RESPONSE	M1	1	19	G4	release
713.15	n/a	RESPONSE	M1	1	16	E4	release
713.191	n/a	RESPONSE	M1	1	16	E4	press
713.672	n/a	RESPONSE	M1	1	17	F4	press
713.723	n/a	RESPONSE	M1	1	16	E4	release
714.185	n/a	RESPONSE	M1	1	14	D4	press
714.216	n/a	RESPONSE	M1	1	17	F4	release
714.617	n/a	RESPONSE	M1	1	14	D4	release
714.688	n/a	RESPONSE	M1	1	14	D4	press
715.2	n/a	RESPONSE	M1	1	12	C4	press
715.331	n/a	RESPONSE	M1	1	14	D4	release
715.453	n/a	RESPONSE	M1	1	16	E4	press
715.545	n/a	RESPONSE	M1	1	12	C4	release
715.765	n/a	RESPONSE	M1	1	19	G4	press
715.786	n/a	RESPONSE	M1	1	16	E4	release
716.957	n/a	RESPONSE	M1	1	19	G4	release
717.988	7.758	FIXCROSS	n/a	n/a	n/a	n/a	n/a
725.746	6.317	CUE_LISTEN	M1	2	n/a	n/a	n/a
732.063	7.758	FIXCROSS	n/a	n/a	n/a	n/a	n/a
739.822	6.317	CUE_PLAYBACK_RIGHT_HAND	M1	2	n/a	n/a	n/a
740.336	n/a	RESPONSE	M1	2	19	G4	press
740.831	n/a	RESPONSE	M1	2	16	E4	press
740.892	n/a	RESPONSE	M1	2	19	G4	release
741.282	n/a	RESPONSE	M1	2	16	E4	release
741.362	n/a	RESPONSE	M1	2	16	E4	press
741.874	n/a	RESPONSE	M1	2	17	F4	press
741.965	n/a	RESPONSE	M1	2	16	E4	release
742.386	n/a	RESPONSE	M1	2	14	D4	press
742.437	n/a	RESPONSE	M1	2	17	F4	release
742.818	n/a	RESPONSE	M1	2	14	D4	release
742.9	n/a	RESPONSE	M1	2	14	D4	press
743.401	n/a	RESPONSE	M1	2	12	C4	press
743.504	n/a	RESPONSE	M1	2	14	D4	release
743.654	n/a	RESPONSE	M1	2	16	E4	press
743.705	n/a	RESPONSE	M1	2	12	C4	release
743.917	n/a	RESPONSE	M1	2	12	C4	press
743.948	n/a	RESPONSE	M1	2	16	E4	release
744.971	n/a	RESPONSE	M1	2	12	C4	release
746.138	7.759	FIXCROSS	n/a	n/a	n/a	n/a	n/a
753.897	6.325	CUE_LISTEN	M1	1	n/a	n/a	n/a
760.222	7.759	FIXCROSS	n/a	n/a	n/a	n/a	n/a
767.98	6.317	CUE_PLAYBACK_BOTH_HANDS	M1	1	n/a	n/a	n/a
768.434	n/a	RESPONSE	M1	1	19	G4	press
768.444	n/a	RESPONSE	M1	1	07	G3	press
768.96	n/a	RESPONSE	M1	1	16	E4	press
768.967	n/a	RESPONSE	M1	1	04	E3	press
769.002	n/a	RESPONSE	M1	1	19	G4	release
769.024	n/a	RESPONSE	M1	1	07	G3	release
769.457	n/a	RESPONSE	M1	1	04	E3	release
769.466	n/a	RESPONSE	M1	1	16	E4	release
769.518	n/a	RESPONSE	M1	1	04	E3	press
769.534	n/a	RESPONSE	M1	1	16	E4	press
770.06	n/a	RESPONSE	M1	1	17	F4	press
770.062	n/a	RESPONSE	M1	1	16	E4	release
770.095	n/a	RESPONSE	M1	1	05	F3	press
770.144	n/a	RESPONSE	M1	1	04	E3	release
770.626	n/a	RESPONSE	M1	1	14	D4	press
770.628	n/a	RESPONSE	M1	1	02	D3	press
770.679	n/a	RESPONSE	M1	1	17	F4	release
770.681	n/a	RESPONSE	M1	1	05	F3	release
771.061	n/a	RESPONSE	M1	1	02	D3	release
771.072	n/a	RESPONSE	M1	1	14	D4	release
771.135	n/a	RESPONSE	M1	1	02	D3	press
771.155	n/a	RESPONSE	M1	1	14	D4	press
771.666	n/a	RESPONSE	M1	1	02	D3	release
771.677	n/a	RESPONSE	M1	1	12	C4	press
771.688	n/a	RESPONSE	M1	1	00	C3	press
771.8	n/a	RESPONSE	M1	1	14	D4	release
771.961	n/a	RESPONSE	M1	1	04	E3	press
771.972	n/a	RESPONSE	M1	1	05	F3	press
771.975	n/a	RESPONSE	M1	1	16	E4	press
772.065	n/a	RESPONSE	M1	1	12	C4	release
772.106	n/a	RESPONSE	M1	1	00	C3	release
772.197	n/a	RESPONSE	M1	1	05	F3	release
772.219	n/a	RESPONSE	M1	1	07	G3	press
772.24	n/a	RESPONSE	M1	1	19	G4	press
772.251	n/a	RESPONSE	M1	1	04	E3	release
772.272	n/a	RESPONSE	M1	1	16	E4	release
773.294	n/a	RESPONSE	M1	1	19	G4	release
773.315	n/a	RESPONSE	M1	1	07	G3	release
774.296	7.758	FIXCROSS	n/a	n/a	n/a	n/a	n/a
782.055	6.317	CUE_LISTEN	M1	2	n/a	n/a	n/a
788.372	7.759	FIXCROSS	n/a	n/a	n/a	n/a	n/a
796.13	6.325	CUE_PLAYBACK_BOTH_HANDS	M1	2	n/a	n/a	n/a
796.54	n/a	RESPONSE	M1	2	19	G4	press
796.554	n/a	RESPONSE	M1	2	07	G3	press
797.064	n/a	RESPONSE	M1	2	04	E3	press
797.066	n/a	RESPONSE	M1	2	16	E4	press
797.124	n/a	RESPONSE	M1	2	07	G3	release
797.146	n/a	RESPONSE	M1	2	19	G4	release
797.577	n/a	RESPONSE	M1	2	04	E3	release
797.602	n/a	RESPONSE	M1	2	16	E4	release
797.631	n/a	RESPONSE	M1	2	04	E3	press
797.646	n/a	RESPONSE	M1	2	16	E4	press
798.135	n/a	RESPONSE	M1	2	17	F4	press
798.16	n/a	RESPONSE	M1	2	16	E4	release
798.172	n/a	RESPONSE	M1	2	05	F3	press
798.206	n/a	RESPONSE	M1	2	04	E3	release
798.665	n/a	RESPONSE	M1	2	14	D4	press
798.672	n/a	RESPONSE	M1	2	02	D3	press
798.731	n/a	RESPONSE	M1	2	05	F3	release
798.736	n/a	RESPONSE	M1	2	17	F4	release
799.132	n/a	RESPONSE	M1	2	02	D3	release
799.135	n/a	RESPONSE	M1	2	14	D4	release
799.217	n/a	RESPONSE	M1	2	02	D3	press
799.229	n/a	RESPONSE	M1	2	14	D4	press
799.72	n/a	RESPONSE	M1	2	12	C4	press
799.722	n/a	RESPONSE	M1	2	00	C3	press
799.741	n/a	RESPONSE	M1	2	02	D3	release
799.805	n/a	RESPONSE	M1	2	14	D4	release
800.176	n/a	RESPONSE	M1	2	16	E4	press
800.18	n/a	RESPONSE	M1	2	04	E3	press
800.239	n/a	RESPONSE	M1	2	12	C4	release
800.27	n/a	RESPONSE	M1	2	00	C3	release
800.437	n/a	RESPONSE	M1	2	12	C4	press
800.449	n/a	RESPONSE	M1	2	00	C3	press
800.48	n/a	RESPONSE	M1	2	16	E4	release
800.504	n/a	RESPONSE	M1	2	04	E3	release
801.554	n/a	RESPONSE	M1	2	00	C3	release
801.775	n/a	RESPONSE	M1	2	12	C4	release
802.455	7.758	FIXCROSS	n/a	n/a	n/a	n/a	n/a
810.214	6.325	CUE_LISTEN	M1	1	n/a	n/a	n/a
816.538	7.759	FIXCROSS	n/a	n/a	n/a	n/a	n/a
824.297	6.308	CUE_PLAYBACK_RIGHT_HAND	M1	1	n/a	n/a	n/a
824.764	n/a	RESPONSE	M1	1	19	G4	press
825.315	n/a	RESPONSE	M1	1	16	E4	press
825.376	n/a	RESPONSE	M1	1	19	G4	release
825.797	n/a	RESPONSE	M1	1	16	E4	release
825.86	n/a	RESPONSE	M1	1	16	E4	press
826.33	n/a	RESPONSE	M1	1	17	F4	press
826.421	n/a	RESPONSE	M1	1	16	E4	release
826.84	n/a	RESPONSE	M1	1	14	D4	press
826.93	n/a	RESPONSE	M1	1	17	F4	release
827.28	n/a	RESPONSE	M1	1	14	D4	release
827.354	n/a	RESPONSE	M1	1	14	D4	press
827.901	n/a	RESPONSE	M1	1	12	C4	press
828.025	n/a	RESPONSE	M1	1	14	D4	release
828.134	n/a	RESPONSE	M1	1	16	E4	press
828.247	n/a	RESPONSE	M1	1	12	C4	release
828.484	n/a	RESPONSE	M1	1	19	G4	press
828.492	n/a	RESPONSE	M1	1	16	E4	release
829.827	n/a	RESPONSE	M1	1	19	G4	release
830.605	7.759	FIXCROSS	n/a	n/a	n/a	n/a	n/a
838.364	6.325	CUE_LISTEN	M1	2	n/a	n/a	n/a
844.688	7.759	FIXCROSS	n/a	n/a	n/a	n/a	n/a
852.447	6.325	CUE_PLAYBACK_RIGHT_HAND	M1	2	n/a	n/a	n/a
852.929	n/a	RESPONSE	M1	2	19	G4	press
853.449	n/a	RESPONSE	M1	2	16	E4	press
853.51	n/a	RESPONSE	M1	2	19	G4	release
854.662	n/a	RESPONSE	M1	2	16	E4	release
854.712	n/a	RESPONSE	M1	2	16	E4	press
855.165	n/a	RESPONSE	M1	2	17	F4	press
855.255	n/a	RESPONSE	M1	2	16	E4	release
855.668	n/a	RESPONSE	M1	2	14	D4	press
855.737	n/a	RESPONSE	M1	2	17	F4	release
856.081	n/a	RESPONSE	M1	2	14	D4	release
856.18	n/a	RESPONSE	M1	2	14	D4	press
856.671	n/a	RESPONSE	M1	2	12	C4	press
856.79	n/a	RESPONSE	M1	2	14	D4	release
856.936	n/a	RESPONSE	M1	2	16	E4	press
856.994	n/a	RESPONSE	M1	2	12	C4	release
857.242	n/a	RESPONSE	M1	2	12	C4	press
857.284	n/a	RESPONSE	M1	2	16	E4	release
858.517	n/a	RESPONSE	M1	2	12	C4	release
858.772	7.759	FIXCROSS	n/a	n/a	n/a	n/a	n/a
866.53	6.308	CUE_LISTEN	M1	1	n/a	n/a	n/a
872.839	7.758	FIXCROSS	n/a	n/a	n/a	n/a	n/a
880.597	6.325	CUE_PLAYBACK_BOTH_HANDS	M1	1	n/a	n/a	n/a
881.0	n/a	RESPONSE	M1	1	19	G4	press
881.024	n/a	RESPONSE	M1	1	07	G3	press
881.542	n/a	RESPONSE	M1	1	04	E3	press
881.564	n/a	RESPONSE	M1	1	16	E4	press
881.605	n/a	RESPONSE	M1	1	07	G3	release
881.616	n/a	RESPONSE	M1	1	19	G4	release
882.068	n/a	RESPONSE	M1	1	04	E3	release
882.079	n/a	RESPONSE	M1	1	16	E4	release
882.111	n/a	RESPONSE	M1	1	04	E3	press
882.122	n/a	RESPONSE	M1	1	16	E4	press
882.652	n/a	RESPONSE	M1	1	17	F4	press
882.664	n/a	RESPONSE	M1	1	05	F3	press
882.675	n/a	RESPONSE	M1	1	04	E3	release
882.696	n/a	RESPONSE	M1	1	16	E4	release
883.18	n/a	RESPONSE	M1	1	02	D3	press
883.199	n/a	RESPONSE	M1	1	14	D4	press
883.24	n/a	RESPONSE	M1	1	05	F3	release
883.261	n/a	RESPONSE	M1	1	17	F4	release
883.632	n/a	RESPONSE	M1	1	02	D3	release
883.655	n/a	RESPONSE	M1	1	14	D4	release
883.725	n/a	RESPONSE	M1	1	02	D3	press
883.746	n/a	RESPONSE	M1	1	14	D4	press
884.268	n/a	RESPONSE	M1	1	02	D3	release
884.278	n/a	RESPONSE	M1	1	00	C3	press
884.281	n/a	RESPONSE	M1	1	12	C4	press
884.411	n/a	RESPONSE	M1	1	14	D4	release
884.562	n/a	RESPONSE	M1	1	16	E4	press
884.565	n/a	RESPONSE	M1	1	04	E3	press
884.577	n/a	RESPONSE	M1	1	05	F3	press
884.637	n/a	RESPONSE	M1	1	12	C4	release
884.76	n/a	RESPONSE	M1	1	05	F3	release
884.809	n/a	RESPONSE	M1	1	07	G3	press
884.822	n/a	RESPONSE	M1	1	00	C3	release
884.851	n/a	RESPONSE	M1	1	19	G4	press
884.862	n/a	RESPONSE	M1	1	16	E4	release
884.866	n/a	RESPONSE	M1	1	04	E3	release
885.978	n/a	RESPONSE	M1	1	07	G3	release
886.146	n/a	RESPONSE	M1	1	19	G4	release
886.922	7.759	FIXCROSS	n/a	n/a	n/a	n/a	n/a
894.68	6.316	CUE_LISTEN	M1	2	n/a	n/a	n/a
900.997	7.758	FIXCROSS	n/a	n/a	n/a	n/a	n/a
908.755	38.69	CUE_PLAYBACK_BOTH_HANDS	M1	2	n/a	n/a	n/a
909.242	n/a	RESPONSE	M1	2	19	G4	press
909.261	n/a	RESPONSE	M1	2	07	G3	press
909.805	n/a	RESPONSE	M1	2	16	E4	press
909.816	n/a	RESPONSE	M1	2	04	E3	press
909.86	n/a	RESPONSE	M1	2	07	G3	release
909.904	n/a	RESPONSE	M1	2	19	G4	release
910.299	n/a	RESPONSE	M1	2	04	E3	release
910.349	n/a	RESPONSE	M1	2	04	E3	press
910.894	n/a	RESPONSE	M1	2	17	F4	press
910.896	n/a	RESPONSE	M1	2	05	F3	press
910.905	n/a	RESPONSE	M1	2	16	E4	release
910.916	n/a	RESPONSE	M1	2	04	E3	release
911.4	n/a	RESPONSE	M1	2	02	D3	press
911.419	n/a	RESPONSE	M1	2	14	D4	press
911.45	n/a	RESPONSE	M1	2	05	F3	release
911.471	n/a	RESPONSE	M1	2	17	F4	release
911.892	n/a	RESPONSE	M1	2	02	D3	release
911.915	n/a	RESPONSE	M1	2	14	D4	release
911.965	n/a	RESPONSE	M1	2	02	D3	press
911.968	n/a	RESPONSE	M1	2	14	D4	press
912.498	n/a	RESPONSE	M1	2	02	D3	release
912.509	n/a	RESPONSE	M1	2	12	C4	press
912.53	n/a	RESPONSE	M1	2	00	C3	press
912.631	n/a	RESPONSE	M1	2	14	D4	release
912.792	n/a	RESPONSE	M1	2	16	E4	press
912.795	n/a	RESPONSE	M1	2	04	E3	press
912.845	n/a	RESPONSE	M1	2	12	C4	release
912.938	n/a	RESPONSE	M1	2	00	C3	release
913.058	n/a	RESPONSE	M1	2	12	C4	press
913.079	n/a	RESPONSE	M1	2	16	E4	release
913.081	n/a	RESPONSE	M1	2	00	C3	press
913.091	n/a	RESPONSE	M1	2	04	E3	release
913.25	n/a	FIXCROSS	n/a	n/a	n/a	n/a	n/a
914.304	n/a	RESPONSE	M1	2	00	C3	release
914.394	n/a	RESPONSE	M1	2	12	C4	release
