onset	duration	trial_type	trial_number	stroop_condition	stim_text(PL)	stim_text(eng)	stim_color(PL)	stim_color(eng)	response_type	response_color
0.0	n/a	RESPONSE	n/a	n/a	n/a	n/a	n/a	n/a	n/a	n/a
0.0	n/a	RESPONSE	n/a	n/a	n/a	n/a	n/a	n/a	n/a	green
0.0001	n/a	RESPONSE	n/a	n/a	n/a	n/a	n/a	n/a	n/a	green
0.0001	n/a	RESPONSE	n/a	n/a	n/a	n/a	n/a	n/a	n/a	red
0.0001	n/a	RESPONSE	n/a	n/a	n/a	n/a	n/a	n/a	n/a	red
0.0001	n/a	RESPONSE	n/a	n/a	n/a	n/a	n/a	n/a	n/a	red
0.0001	n/a	RESPONSE	n/a	n/a	n/a	n/a	n/a	n/a	n/a	yellow
91.1783	n/a	RESPONSE	n/a	n/a	n/a	n/a	n/a	n/a	n/a	n/a
91.2338	1.0167	ITI	n/a	n/a	n/a	n/a	n/a	n/a	n/a	n/a
92.2505	0.5167	FIXCROSS	n/a	n/a	n/a	n/a	n/a	n/a	n/a	n/a
92.7672	0.75	T_INK	1	Incongruent	czerwony	red	żółty	yellow	hit	n/a
93.4954	n/a	RESPONSE	n/a	n/a	n/a	n/a	n/a	n/a	n/a	yellow
93.5172	0.5167	FEEDBACK	n/a	n/a	n/a	n/a	n/a	n/a	n/a	n/a
94.0339	1.0167	ITI	n/a	n/a	n/a	n/a	n/a	n/a	n/a	n/a
95.0505	0.5167	FIXCROSS	n/a	n/a	n/a	n/a	n/a	n/a	n/a	n/a
95.5672	0.4833	T_INK	2	Neutral	xxxxxxxxx	xxxxxxxxx	żółty	yellow	hit	n/a
96.0203	n/a	RESPONSE	n/a	n/a	n/a	n/a	n/a	n/a	n/a	yellow
96.0505	0.5167	FEEDBACK	n/a	n/a	n/a	n/a	n/a	n/a	n/a	n/a
96.5672	1.0167	ITI	n/a	n/a	n/a	n/a	n/a	n/a	n/a	n/a
97.5839	0.5167	FIXCROSS	n/a	n/a	n/a	n/a	n/a	n/a	n/a	n/a
98.1005	0.6167	T_INK	3	Incongruent	zielony	green	żółty	yellow	hit	n/a
98.689	n/a	RESPONSE	n/a	n/a	n/a	n/a	n/a	n/a	n/a	yellow
98.7172	0.5167	FEEDBACK	n/a	n/a	n/a	n/a	n/a	n/a	n/a	n/a
99.2339	1.0167	ITI	n/a	n/a	n/a	n/a	n/a	n/a	n/a	n/a
100.2506	0.5167	FIXCROSS	n/a	n/a	n/a	n/a	n/a	n/a	n/a	n/a
100.7672	0.9667	T_INK	4	Neutral	xxxxxxx	xxxxxxx	niebieski	blue	hit	n/a
101.7092	n/a	RESPONSE	n/a	n/a	n/a	n/a	n/a	n/a	n/a	blue
101.7339	0.5167	FEEDBACK	n/a	n/a	n/a	n/a	n/a	n/a	n/a	n/a
102.2506	1.0167	ITI	n/a	n/a	n/a	n/a	n/a	n/a	n/a	n/a
103.2673	0.5167	FIXCROSS	n/a	n/a	n/a	n/a	n/a	n/a	n/a	n/a
103.7839	0.8	T_INK	5	Incongruent	żółty	yellow	czerwony	red	hit	n/a
104.5537	n/a	RESPONSE	n/a	n/a	n/a	n/a	n/a	n/a	n/a	red
104.5839	0.5167	FEEDBACK	n/a	n/a	n/a	n/a	n/a	n/a	n/a	n/a
105.1006	1.0167	ITI	n/a	n/a	n/a	n/a	n/a	n/a	n/a	n/a
106.1173	0.5166	FIXCROSS	n/a	n/a	n/a	n/a	n/a	n/a	n/a	n/a
106.6339	0.4834	T_INK	6	Neutral	xxxxxxx	xxxxxxx	żółty	yellow	hit	n/a
107.0945	n/a	RESPONSE	n/a	n/a	n/a	n/a	n/a	n/a	n/a	yellow
107.1173	0.5167	FEEDBACK	n/a	n/a	n/a	n/a	n/a	n/a	n/a	n/a
107.634	1.0167	ITI	n/a	n/a	n/a	n/a	n/a	n/a	n/a	n/a
108.6506	0.5167	FIXCROSS	n/a	n/a	n/a	n/a	n/a	n/a	n/a	n/a
109.1673	0.6167	T_INK	7	Incongruent	czerwony	red	niebieski	blue	hit	n/a
109.7633	n/a	RESPONSE	n/a	n/a	n/a	n/a	n/a	n/a	n/a	blue
109.784	0.5167	FEEDBACK	n/a	n/a	n/a	n/a	n/a	n/a	n/a	n/a
110.3006	1.0167	ITI	n/a	n/a	n/a	n/a	n/a	n/a	n/a	n/a
111.3173	0.5167	FIXCROSS	n/a	n/a	n/a	n/a	n/a	n/a	n/a	n/a
111.834	0.4167	T_INK	8	Neutral	xxxxxxxx	xxxxxxxx	żółty	yellow	hit	n/a
112.2242	n/a	RESPONSE	n/a	n/a	n/a	n/a	n/a	n/a	n/a	yellow
112.2507	0.5167	FEEDBACK	n/a	n/a	n/a	n/a	n/a	n/a	n/a	n/a
112.7673	1.0167	ITI	n/a	n/a	n/a	n/a	n/a	n/a	n/a	n/a
113.784	0.5167	FIXCROSS	n/a	n/a	n/a	n/a	n/a	n/a	n/a	n/a
114.3007	0.4167	T_INK	9	Neutral	xxxxx	xxxxx	niebieski	blue	incorrect	n/a
114.6852	n/a	RESPONSE	n/a	n/a	n/a	n/a	n/a	n/a	n/a	yellow
114.7174	0.5167	FEEDBACK	n/a	n/a	n/a	n/a	n/a	n/a	n/a	n/a
115.234	1.0167	ITI	n/a	n/a	n/a	n/a	n/a	n/a	n/a	n/a
116.2507	0.5167	FIXCROSS	n/a	n/a	n/a	n/a	n/a	n/a	n/a	n/a
116.7674	0.6833	T_INK	10	Incongruent	niebieski	blue	żółty	yellow	hit	n/a
117.4178	n/a	RESPONSE	n/a	n/a	n/a	n/a	n/a	n/a	n/a	yellow
117.4507	0.5167	FEEDBACK	n/a	n/a	n/a	n/a	n/a	n/a	n/a	n/a
117.9674	1.0167	ITI	n/a	n/a	n/a	n/a	n/a	n/a	n/a	n/a
118.9841	0.5167	FIXCROSS	n/a	n/a	n/a	n/a	n/a	n/a	n/a	n/a
119.5007	0.5667	T_INK	11	Incongruent	żółty	yellow	niebieski	blue	hit	n/a
120.0386	n/a	RESPONSE	n/a	n/a	n/a	n/a	n/a	n/a	n/a	blue
120.0674	0.5167	FEEDBACK	n/a	n/a	n/a	n/a	n/a	n/a	n/a	n/a
120.5841	1.0167	ITI	n/a	n/a	n/a	n/a	n/a	n/a	n/a	n/a
121.6008	0.5167	FIXCROSS	n/a	n/a	n/a	n/a	n/a	n/a	n/a	n/a
122.1174	0.6833	T_INK	12	Incongruent	żółty	yellow	zielony	green	hit	n/a
122.7712	n/a	RESPONSE	n/a	n/a	n/a	n/a	n/a	n/a	n/a	green
122.8008	0.5167	FEEDBACK	n/a	n/a	n/a	n/a	n/a	n/a	n/a	n/a
123.3174	1.0333	ITI	n/a	n/a	n/a	n/a	n/a	n/a	n/a	n/a
131.896	n/a	RESPONSE	n/a	n/a	n/a	n/a	n/a	n/a	n/a	n/a
131.9508	1.0167	ITI	n/a	n/a	n/a	n/a	n/a	n/a	n/a	n/a
132.9675	0.5167	FIXCROSS	n/a	n/a	n/a	n/a	n/a	n/a	n/a	n/a
133.4842	0.6333	INK	1	Incongruent	niebieski	blue	żółty	yellow	hit	n/a
134.0854	n/a	RESPONSE	n/a	n/a	n/a	n/a	n/a	n/a	n/a	yellow
134.1175	1.0167	ITI	n/a	n/a	n/a	n/a	n/a	n/a	n/a	n/a
135.1342	0.5167	FIXCROSS	n/a	n/a	n/a	n/a	n/a	n/a	n/a	n/a
135.6509	0.6	INK	2	Neutral	xxxxx	xxxxx	czerwony	red	hit	n/a
136.2267	n/a	RESPONSE	n/a	n/a	n/a	n/a	n/a	n/a	n/a	red
136.2509	1.0167	ITI	n/a	n/a	n/a	n/a	n/a	n/a	n/a	n/a
137.2675	0.5167	FIXCROSS	n/a	n/a	n/a	n/a	n/a	n/a	n/a	n/a
137.7842	0.7667	INK	3	Neutral	xxxxxxx	xxxxxxx	czerwony	red	hit	n/a
138.5279	n/a	RESPONSE	n/a	n/a	n/a	n/a	n/a	n/a	n/a	red
138.5509	1.0167	ITI	n/a	n/a	n/a	n/a	n/a	n/a	n/a	n/a
139.5676	0.5167	FIXCROSS	n/a	n/a	n/a	n/a	n/a	n/a	n/a	n/a
140.0842	0.7	INK	4	Incongruent	niebieski	blue	zielony	green	hit	n/a
140.7652	n/a	RESPONSE	n/a	n/a	n/a	n/a	n/a	n/a	n/a	green
140.7842	1.0167	ITI	n/a	n/a	n/a	n/a	n/a	n/a	n/a	n/a
141.8009	0.5167	FIXCROSS	n/a	n/a	n/a	n/a	n/a	n/a	n/a	n/a
142.3176	0.5833	INK	5	Neutral	xxxxxxxx	xxxxxxxx	niebieski	blue	hit	n/a
142.8745	n/a	RESPONSE	n/a	n/a	n/a	n/a	n/a	n/a	n/a	blue
142.9009	1.0167	ITI	n/a	n/a	n/a	n/a	n/a	n/a	n/a	n/a
143.9176	0.5167	FIXCROSS	n/a	n/a	n/a	n/a	n/a	n/a	n/a	n/a
144.4343	0.6167	INK	6	Incongruent	czerwony	red	niebieski	blue	hit	n/a
145.0319	n/a	RESPONSE	n/a	n/a	n/a	n/a	n/a	n/a	n/a	blue
145.0509	1.0167	ITI	n/a	n/a	n/a	n/a	n/a	n/a	n/a	n/a
146.0676	0.5167	FIXCROSS	n/a	n/a	n/a	n/a	n/a	n/a	n/a	n/a
146.5843	0.8	INK	7	Neutral	xxxxxxxx	xxxxxxxx	zielony	green	hit	n/a
147.3649	n/a	RESPONSE	n/a	n/a	n/a	n/a	n/a	n/a	n/a	green
147.3843	1.0167	ITI	n/a	n/a	n/a	n/a	n/a	n/a	n/a	n/a
148.401	0.5167	FIXCROSS	n/a	n/a	n/a	n/a	n/a	n/a	n/a	n/a
148.9176	0.5333	INK	8	Neutral	xxxxxxxxx	xxxxxxxxx	żółty	yellow	hit	n/a
149.4264	n/a	RESPONSE	n/a	n/a	n/a	n/a	n/a	n/a	n/a	yellow
149.451	1.0167	ITI	n/a	n/a	n/a	n/a	n/a	n/a	n/a	n/a
150.4677	0.5167	FIXCROSS	n/a	n/a	n/a	n/a	n/a	n/a	n/a	n/a
150.9843	0.8167	INK	9	Incongruent	żółty	yellow	zielony	green	hit	n/a
151.7755	n/a	RESPONSE	n/a	n/a	n/a	n/a	n/a	n/a	n/a	green
151.801	1.0167	ITI	n/a	n/a	n/a	n/a	n/a	n/a	n/a	n/a
152.8177	0.5167	FIXCROSS	n/a	n/a	n/a	n/a	n/a	n/a	n/a	n/a
153.3344	0.6	INK	10	Incongruent	czerwony	red	niebieski	blue	hit	n/a
153.9169	n/a	RESPONSE	n/a	n/a	n/a	n/a	n/a	n/a	n/a	blue
153.9344	1.0167	ITI	n/a	n/a	n/a	n/a	n/a	n/a	n/a	n/a
154.951	0.5167	FIXCROSS	n/a	n/a	n/a	n/a	n/a	n/a	n/a	n/a
155.4677	0.4667	INK	11	Neutral	xxxxxxx	xxxxxxx	żółty	yellow	hit	n/a
155.9144	n/a	RESPONSE	n/a	n/a	n/a	n/a	n/a	n/a	n/a	yellow
155.9344	1.0167	ITI	n/a	n/a	n/a	n/a	n/a	n/a	n/a	n/a
156.9511	0.5167	FIXCROSS	n/a	n/a	n/a	n/a	n/a	n/a	n/a	n/a
157.4677	0.5	INK	12	Neutral	xxxxxxxxx	xxxxxxxxx	czerwony	red	incorrect	n/a
157.944	n/a	RESPONSE	n/a	n/a	n/a	n/a	n/a	n/a	n/a	green
157.9677	1.0167	ITI	n/a	n/a	n/a	n/a	n/a	n/a	n/a	n/a
158.9844	0.5167	FIXCROSS	n/a	n/a	n/a	n/a	n/a	n/a	n/a	n/a
159.5011	0.6	INK	13	Incongruent	zielony	green	czerwony	red	hit	n/a
160.0693	n/a	RESPONSE	n/a	n/a	n/a	n/a	n/a	n/a	n/a	red
160.1011	1.0167	ITI	n/a	n/a	n/a	n/a	n/a	n/a	n/a	n/a
161.1178	0.5167	FIXCROSS	n/a	n/a	n/a	n/a	n/a	n/a	n/a	n/a
161.6344	0.6333	INK	14	Incongruent	zielony	green	żółty	yellow	hit	n/a
162.2427	n/a	RESPONSE	n/a	n/a	n/a	n/a	n/a	n/a	n/a	yellow
162.2678	1.0167	ITI	n/a	n/a	n/a	n/a	n/a	n/a	n/a	n/a
163.2844	0.5167	FIXCROSS	n/a	n/a	n/a	n/a	n/a	n/a	n/a	n/a
163.8011	0.6167	INK	15	Neutral	xxxxx	xxxxx	czerwony	red	hit	n/a
164.3839	n/a	RESPONSE	n/a	n/a	n/a	n/a	n/a	n/a	n/a	red
164.4178	1.0167	ITI	n/a	n/a	n/a	n/a	n/a	n/a	n/a	n/a
165.4344	0.5167	FIXCROSS	n/a	n/a	n/a	n/a	n/a	n/a	n/a	n/a
165.9511	0.7	INK	16	Incongruent	czerwony	red	zielony	green	hit	n/a
166.6211	n/a	RESPONSE	n/a	n/a	n/a	n/a	n/a	n/a	n/a	green
166.6511	1.0167	ITI	n/a	n/a	n/a	n/a	n/a	n/a	n/a	n/a
167.6678	0.5167	FIXCROSS	n/a	n/a	n/a	n/a	n/a	n/a	n/a	n/a
168.1845	0.6167	INK	17	Neutral	xxxxx	xxxxx	czerwony	red	hit	n/a
168.7786	n/a	RESPONSE	n/a	n/a	n/a	n/a	n/a	n/a	n/a	red
168.8012	1.0167	ITI	n/a	n/a	n/a	n/a	n/a	n/a	n/a	n/a
169.8178	0.5167	FIXCROSS	n/a	n/a	n/a	n/a	n/a	n/a	n/a	n/a
170.3345	0.6833	INK	18	Incongruent	czerwony	red	niebieski	blue	hit	n/a
170.9997	n/a	RESPONSE	n/a	n/a	n/a	n/a	n/a	n/a	n/a	blue
171.0178	1.0167	ITI	n/a	n/a	n/a	n/a	n/a	n/a	n/a	n/a
172.0345	0.5167	FIXCROSS	n/a	n/a	n/a	n/a	n/a	n/a	n/a	n/a
172.5512	0.5833	INK	19	Neutral	xxxxxxxx	xxxxxxxx	zielony	green	hit	n/a
173.1092	n/a	RESPONSE	n/a	n/a	n/a	n/a	n/a	n/a	n/a	green
173.1345	1.0167	ITI	n/a	n/a	n/a	n/a	n/a	n/a	n/a	n/a
174.1512	0.5167	FIXCROSS	n/a	n/a	n/a	n/a	n/a	n/a	n/a	n/a
174.6679	0.6	INK	20	Incongruent	żółty	yellow	niebieski	blue	hit	n/a
175.2345	n/a	RESPONSE	n/a	n/a	n/a	n/a	n/a	n/a	n/a	blue
175.2679	1.0167	ITI	n/a	n/a	n/a	n/a	n/a	n/a	n/a	n/a
176.2845	0.5167	FIXCROSS	n/a	n/a	n/a	n/a	n/a	n/a	n/a	n/a
176.8012	0.5167	INK	21	Neutral	xxxxxxxx	xxxxxxxx	żółty	yellow	hit	n/a
177.296	n/a	RESPONSE	n/a	n/a	n/a	n/a	n/a	n/a	n/a	yellow
177.3179	1.0167	ITI	n/a	n/a	n/a	n/a	n/a	n/a	n/a	n/a
178.3345	0.5167	FIXCROSS	n/a	n/a	n/a	n/a	n/a	n/a	n/a	n/a
178.8512	0.5333	INK	22	Neutral	xxxxx	xxxxx	niebieski	blue	hit	n/a
179.3575	n/a	RESPONSE	n/a	n/a	n/a	n/a	n/a	n/a	n/a	blue
179.3846	1.0167	ITI	n/a	n/a	n/a	n/a	n/a	n/a	n/a	n/a
180.4012	0.5167	FIXCROSS	n/a	n/a	n/a	n/a	n/a	n/a	n/a	n/a
180.9179	0.5333	INK	23	Neutral	xxxxxxx	xxxxxxx	czerwony	red	hit	n/a
181.4188	n/a	RESPONSE	n/a	n/a	n/a	n/a	n/a	n/a	n/a	red
181.4512	1.0167	ITI	n/a	n/a	n/a	n/a	n/a	n/a	n/a	n/a
182.4679	0.5167	FIXCROSS	n/a	n/a	n/a	n/a	n/a	n/a	n/a	n/a
182.9846	0.75	INK	24	Neutral	xxxxxxx	xxxxxxx	niebieski	blue	hit	n/a
183.704	n/a	RESPONSE	n/a	n/a	n/a	n/a	n/a	n/a	n/a	blue
183.7346	1.0167	ITI	n/a	n/a	n/a	n/a	n/a	n/a	n/a	n/a
184.7513	0.5167	FIXCROSS	n/a	n/a	n/a	n/a	n/a	n/a	n/a	n/a
185.268	0.7167	INK	25	Incongruent	żółty	yellow	niebieski	blue	hit	n/a
185.9573	n/a	RESPONSE	n/a	n/a	n/a	n/a	n/a	n/a	n/a	blue
185.9846	1.0167	ITI	n/a	n/a	n/a	n/a	n/a	n/a	n/a	n/a
187.0013	0.5167	FIXCROSS	n/a	n/a	n/a	n/a	n/a	n/a	n/a	n/a
187.518	0.6	INK	26	Neutral	xxxxx	xxxxx	niebieski	blue	hit	n/a
188.0986	n/a	RESPONSE	n/a	n/a	n/a	n/a	n/a	n/a	n/a	blue
188.118	1.0167	ITI	n/a	n/a	n/a	n/a	n/a	n/a	n/a	n/a
189.1347	0.5167	FIXCROSS	n/a	n/a	n/a	n/a	n/a	n/a	n/a	n/a
189.6513	0.5667	INK	27	Incongruent	żółty	yellow	czerwony	red	hit	n/a
190.192	n/a	RESPONSE	n/a	n/a	n/a	n/a	n/a	n/a	n/a	red
190.218	1.0167	ITI	n/a	n/a	n/a	n/a	n/a	n/a	n/a	n/a
191.2347	0.5167	FIXCROSS	n/a	n/a	n/a	n/a	n/a	n/a	n/a	n/a
191.7513	0.5833	INK	28	Incongruent	zielony	green	niebieski	blue	hit	n/a
192.3173	n/a	RESPONSE	n/a	n/a	n/a	n/a	n/a	n/a	n/a	blue
192.3347	1.0167	ITI	n/a	n/a	n/a	n/a	n/a	n/a	n/a	n/a
193.3514	0.5167	FIXCROSS	n/a	n/a	n/a	n/a	n/a	n/a	n/a	n/a
193.868	0.9333	INK	29	Neutral	xxxxxxxx	xxxxxxxx	niebieski	blue	hit	n/a
194.7783	n/a	RESPONSE	n/a	n/a	n/a	n/a	n/a	n/a	n/a	blue
194.8014	1.0167	ITI	n/a	n/a	n/a	n/a	n/a	n/a	n/a	n/a
195.818	0.5167	FIXCROSS	n/a	n/a	n/a	n/a	n/a	n/a	n/a	n/a
196.3347	0.6833	INK	30	Incongruent	czerwony	red	zielony	green	hit	n/a
196.9995	n/a	RESPONSE	n/a	n/a	n/a	n/a	n/a	n/a	n/a	green
197.0181	1.0167	ITI	n/a	n/a	n/a	n/a	n/a	n/a	n/a	n/a
198.0347	0.5167	FIXCROSS	n/a	n/a	n/a	n/a	n/a	n/a	n/a	n/a
198.5514	0.8167	INK	31	Neutral	xxxxxxxxx	xxxxxxxxx	zielony	green	hit	n/a
199.3326	n/a	RESPONSE	n/a	n/a	n/a	n/a	n/a	n/a	n/a	green
199.3681	1.0167	ITI	n/a	n/a	n/a	n/a	n/a	n/a	n/a	n/a
200.3847	0.5167	FIXCROSS	n/a	n/a	n/a	n/a	n/a	n/a	n/a	n/a
200.9014	0.5	INK	32	Neutral	xxxxxxxxx	xxxxxxxxx	czerwony	red	hit	n/a
201.3782	n/a	RESPONSE	n/a	n/a	n/a	n/a	n/a	n/a	n/a	red
201.4014	1.0167	ITI	n/a	n/a	n/a	n/a	n/a	n/a	n/a	n/a
202.4181	0.5167	FIXCROSS	n/a	n/a	n/a	n/a	n/a	n/a	n/a	n/a
202.9348	0.5333	INK	33	Incongruent	czerwony	red	żółty	yellow	hit	n/a
203.4396	n/a	RESPONSE	n/a	n/a	n/a	n/a	n/a	n/a	n/a	yellow
203.4681	1.0167	ITI	n/a	n/a	n/a	n/a	n/a	n/a	n/a	n/a
204.4848	0.5167	FIXCROSS	n/a	n/a	n/a	n/a	n/a	n/a	n/a	n/a
205.0014	0.4833	INK	34	Incongruent	czerwony	red	żółty	yellow	hit	n/a
205.4531	n/a	RESPONSE	n/a	n/a	n/a	n/a	n/a	n/a	n/a	yellow
205.4848	1.0167	ITI	n/a	n/a	n/a	n/a	n/a	n/a	n/a	n/a
206.5015	0.5167	FIXCROSS	n/a	n/a	n/a	n/a	n/a	n/a	n/a	n/a
207.0181	0.5667	INK	35	Incongruent	zielony	green	czerwony	red	hit	n/a
207.5625	n/a	RESPONSE	n/a	n/a	n/a	n/a	n/a	n/a	n/a	red
207.5848	1.0167	ITI	n/a	n/a	n/a	n/a	n/a	n/a	n/a	n/a
208.6015	0.5167	FIXCROSS	n/a	n/a	n/a	n/a	n/a	n/a	n/a	n/a
209.1181	0.5833	INK	36	Neutral	xxxxx	xxxxx	niebieski	blue	hit	n/a
209.6719	n/a	RESPONSE	n/a	n/a	n/a	n/a	n/a	n/a	n/a	blue
209.7015	1.0167	ITI	n/a	n/a	n/a	n/a	n/a	n/a	n/a	n/a
210.7182	0.5167	FIXCROSS	n/a	n/a	n/a	n/a	n/a	n/a	n/a	n/a
211.2348	0.5167	INK	37	Neutral	xxxxxxx	xxxxxxx	niebieski	blue	hit	n/a
211.7333	n/a	RESPONSE	n/a	n/a	n/a	n/a	n/a	n/a	n/a	blue
211.7515	1.0167	ITI	n/a	n/a	n/a	n/a	n/a	n/a	n/a	n/a
212.7682	0.5167	FIXCROSS	n/a	n/a	n/a	n/a	n/a	n/a	n/a	n/a
213.2849	0.5667	INK	38	Incongruent	niebieski	blue	żółty	yellow	hit	n/a
213.8268	n/a	RESPONSE	n/a	n/a	n/a	n/a	n/a	n/a	n/a	yellow
213.8515	1.0167	ITI	n/a	n/a	n/a	n/a	n/a	n/a	n/a	n/a
214.8682	0.5166	FIXCROSS	n/a	n/a	n/a	n/a	n/a	n/a	n/a	n/a
215.3848	0.5167	INK	39	Incongruent	czerwony	red	żółty	yellow	hit	n/a
215.8723	n/a	RESPONSE	n/a	n/a	n/a	n/a	n/a	n/a	n/a	yellow
215.9015	1.0167	ITI	n/a	n/a	n/a	n/a	n/a	n/a	n/a	n/a
216.9182	0.5167	FIXCROSS	n/a	n/a	n/a	n/a	n/a	n/a	n/a	n/a
217.4349	0.6667	INK	40	Neutral	xxxxxxxxx	xxxxxxxxx	zielony	green	hit	n/a
218.0775	n/a	RESPONSE	n/a	n/a	n/a	n/a	n/a	n/a	n/a	green
218.1016	1.0167	ITI	n/a	n/a	n/a	n/a	n/a	n/a	n/a	n/a
219.1182	0.5167	FIXCROSS	n/a	n/a	n/a	n/a	n/a	n/a	n/a	n/a
219.6349	0.4	INK	41	Neutral	xxxxxxxx	xxxxxxxx	zielony	green	hit	n/a
220.0112	n/a	RESPONSE	n/a	n/a	n/a	n/a	n/a	n/a	n/a	green
220.0349	1.0167	ITI	n/a	n/a	n/a	n/a	n/a	n/a	n/a	n/a
221.0516	0.5167	FIXCROSS	n/a	n/a	n/a	n/a	n/a	n/a	n/a	n/a
221.5683	0.5	INK	42	Incongruent	czerwony	red	zielony	green	hit	n/a
222.0406	n/a	RESPONSE	n/a	n/a	n/a	n/a	n/a	n/a	n/a	green
222.0683	1.0167	ITI	n/a	n/a	n/a	n/a	n/a	n/a	n/a	n/a
223.0849	0.5167	FIXCROSS	n/a	n/a	n/a	n/a	n/a	n/a	n/a	n/a
223.6016	0.4333	INK	43	Incongruent	żółty	yellow	zielony	green	hit	n/a
224.0062	n/a	RESPONSE	n/a	n/a	n/a	n/a	n/a	n/a	n/a	green
224.0349	1.0167	ITI	n/a	n/a	n/a	n/a	n/a	n/a	n/a	n/a
225.0516	0.5167	FIXCROSS	n/a	n/a	n/a	n/a	n/a	n/a	n/a	n/a
225.5683	0.55	INK	44	Incongruent	zielony	green	niebieski	blue	hit	n/a
226.0997	n/a	RESPONSE	n/a	n/a	n/a	n/a	n/a	n/a	n/a	blue
226.1183	1.0167	ITI	n/a	n/a	n/a	n/a	n/a	n/a	n/a	n/a
227.135	0.5167	FIXCROSS	n/a	n/a	n/a	n/a	n/a	n/a	n/a	n/a
227.6516	0.5667	INK	45	Incongruent	niebieski	blue	zielony	green	hit	n/a
228.193	n/a	RESPONSE	n/a	n/a	n/a	n/a	n/a	n/a	n/a	green
228.2183	1.0167	ITI	n/a	n/a	n/a	n/a	n/a	n/a	n/a	n/a
229.235	0.5167	FIXCROSS	n/a	n/a	n/a	n/a	n/a	n/a	n/a	n/a
229.7517	0.4333	INK	46	Incongruent	niebieski	blue	czerwony	red	hit	n/a
230.1587	n/a	RESPONSE	n/a	n/a	n/a	n/a	n/a	n/a	n/a	red
230.185	1.0167	ITI	n/a	n/a	n/a	n/a	n/a	n/a	n/a	n/a
231.2017	0.5167	FIXCROSS	n/a	n/a	n/a	n/a	n/a	n/a	n/a	n/a
231.7183	0.5333	INK	47	Neutral	xxxxxxxxx	xxxxxxxxx	zielony	green	hit	n/a
232.22	n/a	RESPONSE	n/a	n/a	n/a	n/a	n/a	n/a	n/a	green
232.2517	1.0167	ITI	n/a	n/a	n/a	n/a	n/a	n/a	n/a	n/a
233.2684	0.5167	FIXCROSS	n/a	n/a	n/a	n/a	n/a	n/a	n/a	n/a
233.785	0.6167	INK	48	Incongruent	zielony	green	czerwony	red	hit	n/a
234.3774	n/a	RESPONSE	n/a	n/a	n/a	n/a	n/a	n/a	n/a	red
234.4017	1.0167	ITI	n/a	n/a	n/a	n/a	n/a	n/a	n/a	n/a
235.4184	0.5167	FIXCROSS	n/a	n/a	n/a	n/a	n/a	n/a	n/a	n/a
235.935	0.5167	INK	49	Neutral	xxxxxxx	xxxxxxx	żółty	yellow	hit	n/a
236.4228	n/a	RESPONSE	n/a	n/a	n/a	n/a	n/a	n/a	n/a	yellow
236.4517	1.0167	ITI	n/a	n/a	n/a	n/a	n/a	n/a	n/a	n/a
237.4684	0.5167	FIXCROSS	n/a	n/a	n/a	n/a	n/a	n/a	n/a	n/a
237.9851	0.5167	INK	50	Neutral	xxxxxxxxx	xxxxxxxxx	żółty	yellow	hit	n/a
238.4683	n/a	RESPONSE	n/a	n/a	n/a	n/a	n/a	n/a	n/a	yellow
238.5017	1.0167	ITI	n/a	n/a	n/a	n/a	n/a	n/a	n/a	n/a
239.5184	0.5167	FIXCROSS	n/a	n/a	n/a	n/a	n/a	n/a	n/a	n/a
240.0351	0.5833	INK	51	Incongruent	żółty	yellow	czerwony	red	hit	n/a
240.5938	n/a	RESPONSE	n/a	n/a	n/a	n/a	n/a	n/a	n/a	red
240.6184	1.0167	ITI	n/a	n/a	n/a	n/a	n/a	n/a	n/a	n/a
241.6351	0.5167	FIXCROSS	n/a	n/a	n/a	n/a	n/a	n/a	n/a	n/a
242.1518	0.6667	INK	52	Incongruent	żółty	yellow	niebieski	blue	hit	n/a
242.7991	n/a	RESPONSE	n/a	n/a	n/a	n/a	n/a	n/a	n/a	blue
242.8184	1.0167	ITI	n/a	n/a	n/a	n/a	n/a	n/a	n/a	n/a
243.8351	0.5167	FIXCROSS	n/a	n/a	n/a	n/a	n/a	n/a	n/a	n/a
244.3518	0.5667	INK	53	Neutral	xxxxx	xxxxx	zielony	green	hit	n/a
244.8924	n/a	RESPONSE	n/a	n/a	n/a	n/a	n/a	n/a	n/a	green
244.9185	1.0167	ITI	n/a	n/a	n/a	n/a	n/a	n/a	n/a	n/a
245.9351	0.5167	FIXCROSS	n/a	n/a	n/a	n/a	n/a	n/a	n/a	n/a
246.4518	0.5833	INK	54	Neutral	xxxxx	xxxxx	zielony	green	hit	n/a
247.0019	n/a	RESPONSE	n/a	n/a	n/a	n/a	n/a	n/a	n/a	green
247.0351	1.0167	ITI	n/a	n/a	n/a	n/a	n/a	n/a	n/a	n/a
248.0518	0.5167	FIXCROSS	n/a	n/a	n/a	n/a	n/a	n/a	n/a	n/a
248.5685	0.65	INK	55	Neutral	xxxxxxx	xxxxxxx	żółty	yellow	hit	n/a
249.1911	n/a	RESPONSE	n/a	n/a	n/a	n/a	n/a	n/a	n/a	yellow
249.2185	1.0167	ITI	n/a	n/a	n/a	n/a	n/a	n/a	n/a	n/a
250.2352	0.5167	FIXCROSS	n/a	n/a	n/a	n/a	n/a	n/a	n/a	n/a
250.7518	0.65	INK	56	Neutral	xxxxxxxx	xxxxxxxx	niebieski	blue	hit	n/a
251.3804	n/a	RESPONSE	n/a	n/a	n/a	n/a	n/a	n/a	n/a	blue
251.4018	1.0167	ITI	n/a	n/a	n/a	n/a	n/a	n/a	n/a	n/a
252.4185	0.5167	FIXCROSS	n/a	n/a	n/a	n/a	n/a	n/a	n/a	n/a
252.9352	0.5833	INK	57	Neutral	xxxxxxxx	xxxxxxxx	żółty	yellow	hit	n/a
253.4898	n/a	RESPONSE	n/a	n/a	n/a	n/a	n/a	n/a	n/a	yellow
253.5185	1.0167	ITI	n/a	n/a	n/a	n/a	n/a	n/a	n/a	n/a
254.5352	0.5167	FIXCROSS	n/a	n/a	n/a	n/a	n/a	n/a	n/a	n/a
255.0519	0.4167	INK	58	Incongruent	niebieski	blue	czerwony	red	hit	n/a
255.4394	n/a	RESPONSE	n/a	n/a	n/a	n/a	n/a	n/a	n/a	red
255.4685	1.0167	ITI	n/a	n/a	n/a	n/a	n/a	n/a	n/a	n/a
256.4852	0.5167	FIXCROSS	n/a	n/a	n/a	n/a	n/a	n/a	n/a	n/a
257.0019	0.6167	INK	59	Neutral	xxxxxxx	xxxxxxx	niebieski	blue	hit	n/a
257.5967	n/a	RESPONSE	n/a	n/a	n/a	n/a	n/a	n/a	n/a	blue
257.6186	1.0167	ITI	n/a	n/a	n/a	n/a	n/a	n/a	n/a	n/a
258.6352	0.5167	FIXCROSS	n/a	n/a	n/a	n/a	n/a	n/a	n/a	n/a
259.1519	0.65	INK	60	Incongruent	żółty	yellow	czerwony	red	hit	n/a
259.7701	n/a	RESPONSE	n/a	n/a	n/a	n/a	n/a	n/a	n/a	red
259.8019	1.0167	ITI	n/a	n/a	n/a	n/a	n/a	n/a	n/a	n/a
260.8186	0.5167	FIXCROSS	n/a	n/a	n/a	n/a	n/a	n/a	n/a	n/a
261.3352	0.8	INK	61	Neutral	xxxxx	xxxxx	zielony	green	hit	n/a
262.1032	n/a	RESPONSE	n/a	n/a	n/a	n/a	n/a	n/a	n/a	green
262.1353	1.0167	ITI	n/a	n/a	n/a	n/a	n/a	n/a	n/a	n/a
263.1519	0.5167	FIXCROSS	n/a	n/a	n/a	n/a	n/a	n/a	n/a	n/a
263.6686	0.7	INK	62	Incongruent	niebieski	blue	żółty	yellow	hit	n/a
264.3405	n/a	RESPONSE	n/a	n/a	n/a	n/a	n/a	n/a	n/a	yellow
264.3686	1.0167	ITI	n/a	n/a	n/a	n/a	n/a	n/a	n/a	n/a
265.3853	0.5167	FIXCROSS	n/a	n/a	n/a	n/a	n/a	n/a	n/a	n/a
265.902	0.5333	INK	63	Incongruent	zielony	green	żółty	yellow	hit	n/a
266.4179	n/a	RESPONSE	n/a	n/a	n/a	n/a	n/a	n/a	n/a	yellow
266.4353	1.0167	ITI	n/a	n/a	n/a	n/a	n/a	n/a	n/a	n/a
267.452	0.5167	FIXCROSS	n/a	n/a	n/a	n/a	n/a	n/a	n/a	n/a
267.9686	0.5167	INK	64	Incongruent	zielony	green	żółty	yellow	hit	n/a
268.4634	n/a	RESPONSE	n/a	n/a	n/a	n/a	n/a	n/a	n/a	yellow
268.4853	1.0167	ITI	n/a	n/a	n/a	n/a	n/a	n/a	n/a	n/a
269.502	0.5167	FIXCROSS	n/a	n/a	n/a	n/a	n/a	n/a	n/a	n/a
270.0187	0.65	INK	65	Incongruent	niebieski	blue	zielony	green	hit	n/a
270.6367	n/a	RESPONSE	n/a	n/a	n/a	n/a	n/a	n/a	n/a	green
270.6687	1.0167	ITI	n/a	n/a	n/a	n/a	n/a	n/a	n/a	n/a
271.6853	0.5167	FIXCROSS	n/a	n/a	n/a	n/a	n/a	n/a	n/a	n/a
272.202	0.5834	INK	66	Neutral	xxxxxxx	xxxxxxx	czerwony	red	hit	n/a
272.762	n/a	RESPONSE	n/a	n/a	n/a	n/a	n/a	n/a	n/a	red
272.7854	1.0167	ITI	n/a	n/a	n/a	n/a	n/a	n/a	n/a	n/a
273.802	0.5167	FIXCROSS	n/a	n/a	n/a	n/a	n/a	n/a	n/a	n/a
274.3187	0.65	INK	67	Neutral	xxxxxxxxx	xxxxxxxxx	żółty	yellow	hit	n/a
274.9354	n/a	RESPONSE	n/a	n/a	n/a	n/a	n/a	n/a	n/a	yellow
274.9687	1.0167	ITI	n/a	n/a	n/a	n/a	n/a	n/a	n/a	n/a
275.9854	0.5167	FIXCROSS	n/a	n/a	n/a	n/a	n/a	n/a	n/a	n/a
276.5021	0.6333	INK	68	Incongruent	niebieski	blue	czerwony	red	hit	n/a
277.1086	n/a	RESPONSE	n/a	n/a	n/a	n/a	n/a	n/a	n/a	red
277.1354	1.0167	ITI	n/a	n/a	n/a	n/a	n/a	n/a	n/a	n/a
278.1521	0.5167	FIXCROSS	n/a	n/a	n/a	n/a	n/a	n/a	n/a	n/a
278.6687	0.7667	INK	69	Incongruent	żółty	yellow	zielony	green	hit	n/a
279.4099	n/a	RESPONSE	n/a	n/a	n/a	n/a	n/a	n/a	n/a	green
279.4354	1.0167	ITI	n/a	n/a	n/a	n/a	n/a	n/a	n/a	n/a
280.4521	0.5167	FIXCROSS	n/a	n/a	n/a	n/a	n/a	n/a	n/a	n/a
280.9687	0.55	INK	70	Neutral	xxxxxxxxx	xxxxxxxxx	czerwony	red	hit	n/a
281.4874	n/a	RESPONSE	n/a	n/a	n/a	n/a	n/a	n/a	n/a	red
281.5188	1.0167	ITI	n/a	n/a	n/a	n/a	n/a	n/a	n/a	n/a
282.5354	0.5167	FIXCROSS	n/a	n/a	n/a	n/a	n/a	n/a	n/a	n/a
283.0521	0.5667	INK	71	Neutral	xxxxxxxx	xxxxxxxx	żółty	yellow	hit	n/a
283.5967	n/a	RESPONSE	n/a	n/a	n/a	n/a	n/a	n/a	n/a	yellow
283.6188	1.0167	ITI	n/a	n/a	n/a	n/a	n/a	n/a	n/a	n/a
284.6354	0.5167	FIXCROSS	n/a	n/a	n/a	n/a	n/a	n/a	n/a	n/a
285.1521	0.5167	INK	72	Incongruent	zielony	green	niebieski	blue	hit	n/a
285.6422	n/a	RESPONSE	n/a	n/a	n/a	n/a	n/a	n/a	n/a	blue
285.6688	1.0833	ITI	n/a	n/a	n/a	n/a	n/a	n/a	n/a	n/a
320.7509	n/a	RESPONSE	n/a	n/a	n/a	n/a	n/a	n/a	n/a	n/a
320.8191	1.0167	ITI	n/a	n/a	n/a	n/a	n/a	n/a	n/a	n/a
321.8357	0.5167	FIXCROSS	n/a	n/a	n/a	n/a	n/a	n/a	n/a	n/a
322.3524	0.9167	T_COLOR_NAME	1	Incongruent	zielony	green	żółty	yellow	hit	n/a
323.2439	n/a	RESPONSE	n/a	n/a	n/a	n/a	n/a	n/a	n/a	green
323.2691	0.5167	FEEDBACK	n/a	n/a	n/a	n/a	n/a	n/a	n/a	n/a
323.7858	1.0167	ITI	n/a	n/a	n/a	n/a	n/a	n/a	n/a	n/a
324.8024	0.5167	FIXCROSS	n/a	n/a	n/a	n/a	n/a	n/a	n/a	n/a
325.3191	0.65	T_COLOR_NAME	2	Neutral	żółty	yellow	Neutral	Neutral	hit	n/a
325.9445	n/a	RESPONSE	n/a	n/a	n/a	n/a	n/a	n/a	n/a	yellow
325.9691	0.5167	FEEDBACK	n/a	n/a	n/a	n/a	n/a	n/a	n/a	n/a
326.4858	1.0167	ITI	n/a	n/a	n/a	n/a	n/a	n/a	n/a	n/a
327.5025	0.5167	FIXCROSS	n/a	n/a	n/a	n/a	n/a	n/a	n/a	n/a
328.0191	1.2333	T_COLOR_NAME	3	Incongruent	żółty	yellow	niebieski	blue	incorrect	n/a
329.2204	n/a	RESPONSE	n/a	n/a	n/a	n/a	n/a	n/a	n/a	blue
329.2525	0.5167	FEEDBACK	n/a	n/a	n/a	n/a	n/a	n/a	n/a	n/a
329.7691	1.0167	ITI	n/a	n/a	n/a	n/a	n/a	n/a	n/a	n/a
330.7858	0.5167	FIXCROSS	n/a	n/a	n/a	n/a	n/a	n/a	n/a	n/a
331.3025	1.9	T_COLOR_NAME	4	Neutral	czerwony	red	Neutral	Neutral	hit	n/a
333.1835	n/a	RESPONSE	n/a	n/a	n/a	n/a	n/a	n/a	n/a	red
333.2025	0.5167	FEEDBACK	n/a	n/a	n/a	n/a	n/a	n/a	n/a	n/a
333.7192	1.0167	ITI	n/a	n/a	n/a	n/a	n/a	n/a	n/a	n/a
334.7359	0.5167	FIXCROSS	n/a	n/a	n/a	n/a	n/a	n/a	n/a	n/a
335.2525	0.95	T_COLOR_NAME	5	Neutral	zielony	green	Neutral	Neutral	hit	n/a
336.1717	n/a	RESPONSE	n/a	n/a	n/a	n/a	n/a	n/a	n/a	green
336.2025	0.5167	FEEDBACK	n/a	n/a	n/a	n/a	n/a	n/a	n/a	n/a
336.7192	1.0167	ITI	n/a	n/a	n/a	n/a	n/a	n/a	n/a	n/a
337.7359	0.5167	FIXCROSS	n/a	n/a	n/a	n/a	n/a	n/a	n/a	n/a
338.2525	0.85	T_COLOR_NAME	6	Incongruent	niebieski	blue	żółty	yellow	hit	n/a
339.0802	n/a	RESPONSE	n/a	n/a	n/a	n/a	n/a	n/a	n/a	blue
339.1025	0.5167	FEEDBACK	n/a	n/a	n/a	n/a	n/a	n/a	n/a	n/a
339.6192	1.0167	ITI	n/a	n/a	n/a	n/a	n/a	n/a	n/a	n/a
340.6359	0.5167	FIXCROSS	n/a	n/a	n/a	n/a	n/a	n/a	n/a	n/a
341.1526	1.1	T_COLOR_NAME	7	Incongruent	czerwony	red	niebieski	blue	hit	n/a
342.2283	n/a	RESPONSE	n/a	n/a	n/a	n/a	n/a	n/a	n/a	red
342.2526	0.5167	FEEDBACK	n/a	n/a	n/a	n/a	n/a	n/a	n/a	n/a
342.7692	1.0167	ITI	n/a	n/a	n/a	n/a	n/a	n/a	n/a	n/a
343.7859	0.5167	FIXCROSS	n/a	n/a	n/a	n/a	n/a	n/a	n/a	n/a
344.3026	0.9167	T_COLOR_NAME	8	Incongruent	żółty	yellow	czerwony	red	hit	n/a
345.1846	n/a	RESPONSE	n/a	n/a	n/a	n/a	n/a	n/a	n/a	yellow
345.2193	0.5167	FEEDBACK	n/a	n/a	n/a	n/a	n/a	n/a	n/a	n/a
345.7359	1.0167	ITI	n/a	n/a	n/a	n/a	n/a	n/a	n/a	n/a
346.7526	0.5167	FIXCROSS	n/a	n/a	n/a	n/a	n/a	n/a	n/a	n/a
347.2693	0.9667	T_COLOR_NAME	9	Incongruent	czerwony	red	żółty	yellow	hit	n/a
348.2048	n/a	RESPONSE	n/a	n/a	n/a	n/a	n/a	n/a	n/a	red
348.2359	0.5167	FEEDBACK	n/a	n/a	n/a	n/a	n/a	n/a	n/a	n/a
348.7526	1.0167	ITI	n/a	n/a	n/a	n/a	n/a	n/a	n/a	n/a
349.7693	0.5167	FIXCROSS	n/a	n/a	n/a	n/a	n/a	n/a	n/a	n/a
350.286	0.6667	T_COLOR_NAME	10	Neutral	zielony	green	Neutral	Neutral	hit	n/a
350.9216	n/a	RESPONSE	n/a	n/a	n/a	n/a	n/a	n/a	n/a	green
350.9526	0.5167	FEEDBACK	n/a	n/a	n/a	n/a	n/a	n/a	n/a	n/a
351.4693	1.0167	ITI	n/a	n/a	n/a	n/a	n/a	n/a	n/a	n/a
352.486	0.5167	FIXCROSS	n/a	n/a	n/a	n/a	n/a	n/a	n/a	n/a
353.0027	0.4167	T_COLOR_NAME	11	Neutral	niebieski	blue	Neutral	Neutral	hit	n/a
353.3985	n/a	RESPONSE	n/a	n/a	n/a	n/a	n/a	n/a	n/a	blue
353.4193	0.5167	FEEDBACK	n/a	n/a	n/a	n/a	n/a	n/a	n/a	n/a
353.936	1.0167	ITI	n/a	n/a	n/a	n/a	n/a	n/a	n/a	n/a
354.9527	0.5167	FIXCROSS	n/a	n/a	n/a	n/a	n/a	n/a	n/a	n/a
355.4694	0.6	T_COLOR_NAME	12	Incongruent	żółty	yellow	zielony	green	hit	n/a
356.0353	n/a	RESPONSE	n/a	n/a	n/a	n/a	n/a	n/a	n/a	yellow
356.0694	0.5167	FEEDBACK	n/a	n/a	n/a	n/a	n/a	n/a	n/a	n/a
356.586	1.0333	ITI	n/a	n/a	n/a	n/a	n/a	n/a	n/a	n/a
362.9867	n/a	RESPONSE	n/a	n/a	n/a	n/a	n/a	n/a	n/a	n/a
363.0527	1.0167	ITI	n/a	n/a	n/a	n/a	n/a	n/a	n/a	n/a
364.0694	0.5167	FIXCROSS	n/a	n/a	n/a	n/a	n/a	n/a	n/a	n/a
364.5861	0.8167	COLOR_NAME	1	Neutral	czerwony	red	Neutral	Neutral	hit	n/a
365.3837	n/a	RESPONSE	n/a	n/a	n/a	n/a	n/a	n/a	n/a	red
365.4028	1.0167	ITI	n/a	n/a	n/a	n/a	n/a	n/a	n/a	n/a
366.4194	0.5167	FIXCROSS	n/a	n/a	n/a	n/a	n/a	n/a	n/a	n/a
366.9361	0.7333	COLOR_NAME	2	Neutral	czerwony	red	Neutral	Neutral	hit	n/a
367.6369	n/a	RESPONSE	n/a	n/a	n/a	n/a	n/a	n/a	n/a	red
367.6694	1.0167	ITI	n/a	n/a	n/a	n/a	n/a	n/a	n/a	n/a
368.6861	0.5167	FIXCROSS	n/a	n/a	n/a	n/a	n/a	n/a	n/a	n/a
369.2028	0.75	COLOR_NAME	3	Incongruent	czerwony	red	niebieski	blue	hit	n/a
369.9221	n/a	RESPONSE	n/a	n/a	n/a	n/a	n/a	n/a	n/a	red
369.9528	1.0167	ITI	n/a	n/a	n/a	n/a	n/a	n/a	n/a	n/a
370.9695	0.5167	FIXCROSS	n/a	n/a	n/a	n/a	n/a	n/a	n/a	n/a
371.4861	0.7667	COLOR_NAME	4	Neutral	zielony	green	Neutral	Neutral	hit	n/a
372.2233	n/a	RESPONSE	n/a	n/a	n/a	n/a	n/a	n/a	n/a	green
372.2528	1.0167	ITI	n/a	n/a	n/a	n/a	n/a	n/a	n/a	n/a
373.2695	0.5167	FIXCROSS	n/a	n/a	n/a	n/a	n/a	n/a	n/a	n/a
373.7862	0.4667	COLOR_NAME	5	Neutral	zielony	green	Neutral	Neutral	hit	n/a
374.2208	n/a	RESPONSE	n/a	n/a	n/a	n/a	n/a	n/a	n/a	green
374.2528	1.0167	ITI	n/a	n/a	n/a	n/a	n/a	n/a	n/a	n/a
375.2695	0.5167	FIXCROSS	n/a	n/a	n/a	n/a	n/a	n/a	n/a	n/a
375.7862	0.9167	COLOR_NAME	6	Incongruent	niebieski	blue	czerwony	red	hit	n/a
376.6817	n/a	RESPONSE	n/a	n/a	n/a	n/a	n/a	n/a	n/a	blue
376.7028	1.0167	ITI	n/a	n/a	n/a	n/a	n/a	n/a	n/a	n/a
377.7195	0.5167	FIXCROSS	n/a	n/a	n/a	n/a	n/a	n/a	n/a	n/a
378.2362	0.45	COLOR_NAME	7	Neutral	niebieski	blue	Neutral	Neutral	hit	n/a
378.6632	n/a	RESPONSE	n/a	n/a	n/a	n/a	n/a	n/a	n/a	blue
378.6862	1.0167	ITI	n/a	n/a	n/a	n/a	n/a	n/a	n/a	n/a
379.7029	0.5167	FIXCROSS	n/a	n/a	n/a	n/a	n/a	n/a	n/a	n/a
380.2195	0.6333	COLOR_NAME	8	Neutral	żółty	yellow	Neutral	Neutral	hit	n/a
380.8206	n/a	RESPONSE	n/a	n/a	n/a	n/a	n/a	n/a	n/a	yellow
380.8529	1.0167	ITI	n/a	n/a	n/a	n/a	n/a	n/a	n/a	n/a
381.8695	0.5167	FIXCROSS	n/a	n/a	n/a	n/a	n/a	n/a	n/a	n/a
382.3862	0.9	COLOR_NAME	9	Incongruent	niebieski	blue	żółty	yellow	hit	n/a
383.2656	n/a	RESPONSE	n/a	n/a	n/a	n/a	n/a	n/a	n/a	blue
383.2862	1.0167	ITI	n/a	n/a	n/a	n/a	n/a	n/a	n/a	n/a
384.3029	0.5167	FIXCROSS	n/a	n/a	n/a	n/a	n/a	n/a	n/a	n/a
384.8196	0.6667	COLOR_NAME	10	Neutral	niebieski	blue	Neutral	Neutral	hit	n/a
385.4549	n/a	RESPONSE	n/a	n/a	n/a	n/a	n/a	n/a	n/a	blue
385.4862	1.0167	ITI	n/a	n/a	n/a	n/a	n/a	n/a	n/a	n/a
386.5029	0.5167	FIXCROSS	n/a	n/a	n/a	n/a	n/a	n/a	n/a	n/a
387.0196	0.7	COLOR_NAME	11	Neutral	żółty	yellow	Neutral	Neutral	hit	n/a
387.6921	n/a	RESPONSE	n/a	n/a	n/a	n/a	n/a	n/a	n/a	yellow
387.7196	1.0167	ITI	n/a	n/a	n/a	n/a	n/a	n/a	n/a	n/a
388.7363	0.5167	FIXCROSS	n/a	n/a	n/a	n/a	n/a	n/a	n/a	n/a
389.2529	0.5667	COLOR_NAME	12	Neutral	zielony	green	Neutral	Neutral	hit	n/a
389.8015	n/a	RESPONSE	n/a	n/a	n/a	n/a	n/a	n/a	n/a	green
389.8196	1.0167	ITI	n/a	n/a	n/a	n/a	n/a	n/a	n/a	n/a
390.8363	0.5167	FIXCROSS	n/a	n/a	n/a	n/a	n/a	n/a	n/a	n/a
391.353	0.6	COLOR_NAME	13	Incongruent	żółty	yellow	zielony	green	hit	n/a
391.927	n/a	RESPONSE	n/a	n/a	n/a	n/a	n/a	n/a	n/a	yellow
391.953	1.0167	ITI	n/a	n/a	n/a	n/a	n/a	n/a	n/a	n/a
392.9696	0.5167	FIXCROSS	n/a	n/a	n/a	n/a	n/a	n/a	n/a	n/a
393.4863	0.7833	COLOR_NAME	14	Neutral	czerwony	red	Neutral	Neutral	hit	n/a
394.2441	n/a	RESPONSE	n/a	n/a	n/a	n/a	n/a	n/a	n/a	red
394.2697	1.0167	ITI	n/a	n/a	n/a	n/a	n/a	n/a	n/a	n/a
395.2863	0.5167	FIXCROSS	n/a	n/a	n/a	n/a	n/a	n/a	n/a	n/a
395.803	0.5667	COLOR_NAME	15	Incongruent	czerwony	red	żółty	yellow	hit	n/a
396.3376	n/a	RESPONSE	n/a	n/a	n/a	n/a	n/a	n/a	n/a	red
396.3697	1.0167	ITI	n/a	n/a	n/a	n/a	n/a	n/a	n/a	n/a
397.3863	0.5167	FIXCROSS	n/a	n/a	n/a	n/a	n/a	n/a	n/a	n/a
397.903	0.9333	COLOR_NAME	16	Incongruent	zielony	green	żółty	yellow	hit	n/a
398.8145	n/a	RESPONSE	n/a	n/a	n/a	n/a	n/a	n/a	n/a	green
398.8364	1.0167	ITI	n/a	n/a	n/a	n/a	n/a	n/a	n/a	n/a
399.853	0.5167	FIXCROSS	n/a	n/a	n/a	n/a	n/a	n/a	n/a	n/a
400.3697	0.8167	COLOR_NAME	17	Incongruent	niebieski	blue	zielony	green	hit	n/a
401.1636	n/a	RESPONSE	n/a	n/a	n/a	n/a	n/a	n/a	n/a	blue
401.1864	1.0167	ITI	n/a	n/a	n/a	n/a	n/a	n/a	n/a	n/a
402.203	0.5167	FIXCROSS	n/a	n/a	n/a	n/a	n/a	n/a	n/a	n/a
402.7197	0.9334	COLOR_NAME	18	Incongruent	żółty	yellow	czerwony	red	hit	n/a
403.6246	n/a	RESPONSE	n/a	n/a	n/a	n/a	n/a	n/a	n/a	yellow
403.6531	1.0167	ITI	n/a	n/a	n/a	n/a	n/a	n/a	n/a	n/a
404.6697	0.5167	FIXCROSS	n/a	n/a	n/a	n/a	n/a	n/a	n/a	n/a
405.1864	0.9167	COLOR_NAME	19	Neutral	czerwony	red	Neutral	Neutral	hit	n/a
406.0696	n/a	RESPONSE	n/a	n/a	n/a	n/a	n/a	n/a	n/a	red
406.1031	1.0167	ITI	n/a	n/a	n/a	n/a	n/a	n/a	n/a	n/a
407.1198	0.5167	FIXCROSS	n/a	n/a	n/a	n/a	n/a	n/a	n/a	n/a
407.6364	0.4333	COLOR_NAME	20	Neutral	czerwony	red	Neutral	Neutral	hit	n/a
408.0512	n/a	RESPONSE	n/a	n/a	n/a	n/a	n/a	n/a	n/a	red
408.0698	1.0167	ITI	n/a	n/a	n/a	n/a	n/a	n/a	n/a	n/a
409.0864	0.5167	FIXCROSS	n/a	n/a	n/a	n/a	n/a	n/a	n/a	n/a
409.6031	0.75	COLOR_NAME	21	Incongruent	żółty	yellow	czerwony	red	hit	n/a
410.3203	n/a	RESPONSE	n/a	n/a	n/a	n/a	n/a	n/a	n/a	yellow
410.3531	1.0167	ITI	n/a	n/a	n/a	n/a	n/a	n/a	n/a	n/a
411.3698	0.5167	FIXCROSS	n/a	n/a	n/a	n/a	n/a	n/a	n/a	n/a
411.8865	0.85	COLOR_NAME	22	Incongruent	zielony	green	żółty	yellow	hit	n/a
412.7014	n/a	RESPONSE	n/a	n/a	n/a	n/a	n/a	n/a	n/a	green
412.7365	1.0167	ITI	n/a	n/a	n/a	n/a	n/a	n/a	n/a	n/a
413.7531	0.5167	FIXCROSS	n/a	n/a	n/a	n/a	n/a	n/a	n/a	n/a
414.2698	0.95	COLOR_NAME	23	Incongruent	czerwony	red	żółty	yellow	hit	n/a
415.1943	n/a	RESPONSE	n/a	n/a	n/a	n/a	n/a	n/a	n/a	red
415.2198	1.0167	ITI	n/a	n/a	n/a	n/a	n/a	n/a	n/a	n/a
416.2365	0.5167	FIXCROSS	n/a	n/a	n/a	n/a	n/a	n/a	n/a	n/a
416.7532	1.05	COLOR_NAME	24	Neutral	niebieski	blue	Neutral	Neutral	hit	n/a
417.7831	n/a	RESPONSE	n/a	n/a	n/a	n/a	n/a	n/a	n/a	blue
417.8032	1.0167	ITI	n/a	n/a	n/a	n/a	n/a	n/a	n/a	n/a
418.8198	0.5167	FIXCROSS	n/a	n/a	n/a	n/a	n/a	n/a	n/a	n/a
419.3365	0.6667	COLOR_NAME	25	Neutral	zielony	green	Neutral	Neutral	hit	n/a
419.9724	n/a	RESPONSE	n/a	n/a	n/a	n/a	n/a	n/a	n/a	green
420.0032	1.0167	ITI	n/a	n/a	n/a	n/a	n/a	n/a	n/a	n/a
421.0199	0.5167	FIXCROSS	n/a	n/a	n/a	n/a	n/a	n/a	n/a	n/a
421.5365	0.75	COLOR_NAME	26	Incongruent	zielony	green	niebieski	blue	hit	n/a
422.2575	n/a	RESPONSE	n/a	n/a	n/a	n/a	n/a	n/a	n/a	green
422.2865	1.0167	ITI	n/a	n/a	n/a	n/a	n/a	n/a	n/a	n/a
423.3032	0.5167	FIXCROSS	n/a	n/a	n/a	n/a	n/a	n/a	n/a	n/a
423.8199	0.4833	COLOR_NAME	27	Incongruent	niebieski	blue	zielony	green	hit	n/a
424.271	n/a	RESPONSE	n/a	n/a	n/a	n/a	n/a	n/a	n/a	blue
424.3032	1.0167	ITI	n/a	n/a	n/a	n/a	n/a	n/a	n/a	n/a
425.3199	0.5167	FIXCROSS	n/a	n/a	n/a	n/a	n/a	n/a	n/a	n/a
425.8366	0.6	COLOR_NAME	28	Incongruent	czerwony	red	żółty	yellow	hit	n/a
426.4125	n/a	RESPONSE	n/a	n/a	n/a	n/a	n/a	n/a	n/a	red
426.4366	1.0167	ITI	n/a	n/a	n/a	n/a	n/a	n/a	n/a	n/a
427.4532	0.5167	FIXCROSS	n/a	n/a	n/a	n/a	n/a	n/a	n/a	n/a
427.9699	0.8667	COLOR_NAME	29	Incongruent	niebieski	blue	żółty	yellow	hit	n/a
428.8096	n/a	RESPONSE	n/a	n/a	n/a	n/a	n/a	n/a	n/a	blue
428.8366	1.0167	ITI	n/a	n/a	n/a	n/a	n/a	n/a	n/a	n/a
429.8533	0.5167	FIXCROSS	n/a	n/a	n/a	n/a	n/a	n/a	n/a	n/a
430.3699	0.6667	COLOR_NAME	30	Incongruent	czerwony	red	niebieski	blue	incorrect	n/a
431.0148	n/a	RESPONSE	n/a	n/a	n/a	n/a	n/a	n/a	n/a	green
431.0366	1.0167	ITI	n/a	n/a	n/a	n/a	n/a	n/a	n/a	n/a
432.0533	0.5167	FIXCROSS	n/a	n/a	n/a	n/a	n/a	n/a	n/a	n/a
432.5699	0.9	COLOR_NAME	31	Neutral	żółty	yellow	Neutral	Neutral	hit	n/a
433.4438	n/a	RESPONSE	n/a	n/a	n/a	n/a	n/a	n/a	n/a	yellow
433.47	1.0167	ITI	n/a	n/a	n/a	n/a	n/a	n/a	n/a	n/a
434.4866	0.5167	FIXCROSS	n/a	n/a	n/a	n/a	n/a	n/a	n/a	n/a
435.0033	1.0667	COLOR_NAME	32	Neutral	zielony	green	Neutral	Neutral	hit	n/a
436.0486	n/a	RESPONSE	n/a	n/a	n/a	n/a	n/a	n/a	n/a	green
436.07	1.0167	ITI	n/a	n/a	n/a	n/a	n/a	n/a	n/a	n/a
437.0867	0.5167	FIXCROSS	n/a	n/a	n/a	n/a	n/a	n/a	n/a	n/a
437.6033	0.45	COLOR_NAME	33	Neutral	czerwony	red	Neutral	Neutral	hit	n/a
438.0301	n/a	RESPONSE	n/a	n/a	n/a	n/a	n/a	n/a	n/a	red
438.0533	1.0167	ITI	n/a	n/a	n/a	n/a	n/a	n/a	n/a	n/a
439.07	0.5167	FIXCROSS	n/a	n/a	n/a	n/a	n/a	n/a	n/a	n/a
439.5867	0.8667	COLOR_NAME	34	Incongruent	żółty	yellow	zielony	green	hit	n/a
440.4272	n/a	RESPONSE	n/a	n/a	n/a	n/a	n/a	n/a	n/a	yellow
440.4534	1.0167	ITI	n/a	n/a	n/a	n/a	n/a	n/a	n/a	n/a
441.47	0.5167	FIXCROSS	n/a	n/a	n/a	n/a	n/a	n/a	n/a	n/a
441.9867	0.5667	COLOR_NAME	35	Neutral	żółty	yellow	Neutral	Neutral	hit	n/a
442.5205	n/a	RESPONSE	n/a	n/a	n/a	n/a	n/a	n/a	n/a	yellow
442.5534	1.0167	ITI	n/a	n/a	n/a	n/a	n/a	n/a	n/a	n/a
443.57	0.5167	FIXCROSS	n/a	n/a	n/a	n/a	n/a	n/a	n/a	n/a
444.0867	1.2167	COLOR_NAME	36	Incongruent	niebieski	blue	czerwony	red	hit	n/a
445.2851	n/a	RESPONSE	n/a	n/a	n/a	n/a	n/a	n/a	n/a	blue
445.3034	1.0167	ITI	n/a	n/a	n/a	n/a	n/a	n/a	n/a	n/a
446.3201	0.5167	FIXCROSS	n/a	n/a	n/a	n/a	n/a	n/a	n/a	n/a
446.8367	0.6333	COLOR_NAME	37	Neutral	niebieski	blue	Neutral	Neutral	hit	n/a
447.4425	n/a	RESPONSE	n/a	n/a	n/a	n/a	n/a	n/a	n/a	blue
447.4701	1.0167	ITI	n/a	n/a	n/a	n/a	n/a	n/a	n/a	n/a
448.4867	0.5167	FIXCROSS	n/a	n/a	n/a	n/a	n/a	n/a	n/a	n/a
449.0034	0.9333	COLOR_NAME	38	Incongruent	czerwony	red	zielony	green	hit	n/a
449.9195	n/a	RESPONSE	n/a	n/a	n/a	n/a	n/a	n/a	n/a	red
449.9368	1.0167	ITI	n/a	n/a	n/a	n/a	n/a	n/a	n/a	n/a
450.9534	0.5166	FIXCROSS	n/a	n/a	n/a	n/a	n/a	n/a	n/a	n/a
451.4701	0.6834	COLOR_NAME	39	Neutral	żółty	yellow	Neutral	Neutral	hit	n/a
452.1247	n/a	RESPONSE	n/a	n/a	n/a	n/a	n/a	n/a	n/a	yellow
452.1534	1.0167	ITI	n/a	n/a	n/a	n/a	n/a	n/a	n/a	n/a
453.1701	0.5167	FIXCROSS	n/a	n/a	n/a	n/a	n/a	n/a	n/a	n/a
453.6868	0.9	COLOR_NAME	40	Neutral	niebieski	blue	Neutral	Neutral	hit	n/a
454.5537	n/a	RESPONSE	n/a	n/a	n/a	n/a	n/a	n/a	n/a	blue
454.5868	1.0167	ITI	n/a	n/a	n/a	n/a	n/a	n/a	n/a	n/a
455.6035	0.5167	FIXCROSS	n/a	n/a	n/a	n/a	n/a	n/a	n/a	n/a
456.1201	1.0333	COLOR_NAME	41	Neutral	żółty	yellow	Neutral	Neutral	hit	n/a
457.1265	n/a	RESPONSE	n/a	n/a	n/a	n/a	n/a	n/a	n/a	yellow
457.1535	1.0167	ITI	n/a	n/a	n/a	n/a	n/a	n/a	n/a	n/a
458.1702	0.5167	FIXCROSS	n/a	n/a	n/a	n/a	n/a	n/a	n/a	n/a
458.6868	1.0167	COLOR_NAME	42	Neutral	zielony	green	Neutral	Neutral	hit	n/a
459.6834	n/a	RESPONSE	n/a	n/a	n/a	n/a	n/a	n/a	n/a	green
459.7035	1.0167	ITI	n/a	n/a	n/a	n/a	n/a	n/a	n/a	n/a
460.7202	0.5167	FIXCROSS	n/a	n/a	n/a	n/a	n/a	n/a	n/a	n/a
461.2368	0.8333	COLOR_NAME	43	Incongruent	zielony	green	czerwony	red	hit	n/a
462.0484	n/a	RESPONSE	n/a	n/a	n/a	n/a	n/a	n/a	n/a	green
462.0702	1.0167	ITI	n/a	n/a	n/a	n/a	n/a	n/a	n/a	n/a
463.0869	0.5167	FIXCROSS	n/a	n/a	n/a	n/a	n/a	n/a	n/a	n/a
463.6035	0.55	COLOR_NAME	44	Neutral	zielony	green	Neutral	Neutral	hit	n/a
464.1258	n/a	RESPONSE	n/a	n/a	n/a	n/a	n/a	n/a	n/a	green
464.1535	1.0167	ITI	n/a	n/a	n/a	n/a	n/a	n/a	n/a	n/a
465.1702	0.5167	FIXCROSS	n/a	n/a	n/a	n/a	n/a	n/a	n/a	n/a
465.6869	0.4833	COLOR_NAME	45	Neutral	zielony	green	Neutral	Neutral	hit	n/a
466.1393	n/a	RESPONSE	n/a	n/a	n/a	n/a	n/a	n/a	n/a	green
466.1702	1.0167	ITI	n/a	n/a	n/a	n/a	n/a	n/a	n/a	n/a
467.1869	0.5167	FIXCROSS	n/a	n/a	n/a	n/a	n/a	n/a	n/a	n/a
467.7036	0.6667	COLOR_NAME	46	Neutral	niebieski	blue	Neutral	Neutral	hit	n/a
468.3446	n/a	RESPONSE	n/a	n/a	n/a	n/a	n/a	n/a	n/a	blue
468.3702	1.0167	ITI	n/a	n/a	n/a	n/a	n/a	n/a	n/a	n/a
469.3869	0.5167	FIXCROSS	n/a	n/a	n/a	n/a	n/a	n/a	n/a	n/a
469.9036	0.5333	COLOR_NAME	47	Neutral	niebieski	blue	Neutral	Neutral	hit	n/a
470.4061	n/a	RESPONSE	n/a	n/a	n/a	n/a	n/a	n/a	n/a	blue
470.4369	1.0167	ITI	n/a	n/a	n/a	n/a	n/a	n/a	n/a	n/a
471.4536	0.5167	FIXCROSS	n/a	n/a	n/a	n/a	n/a	n/a	n/a	n/a
471.9703	0.5833	COLOR_NAME	48	Incongruent	czerwony	red	zielony	green	hit	n/a
472.5315	n/a	RESPONSE	n/a	n/a	n/a	n/a	n/a	n/a	n/a	red
472.5536	1.0167	ITI	n/a	n/a	n/a	n/a	n/a	n/a	n/a	n/a
473.5703	0.5167	FIXCROSS	n/a	n/a	n/a	n/a	n/a	n/a	n/a	n/a
474.087	0.8167	COLOR_NAME	49	Neutral	niebieski	blue	Neutral	Neutral	hit	n/a
474.8806	n/a	RESPONSE	n/a	n/a	n/a	n/a	n/a	n/a	n/a	blue
474.9036	1.0167	ITI	n/a	n/a	n/a	n/a	n/a	n/a	n/a	n/a
475.9203	0.5167	FIXCROSS	n/a	n/a	n/a	n/a	n/a	n/a	n/a	n/a
476.437	1.0333	COLOR_NAME	50	Incongruent	żółty	yellow	niebieski	blue	hit	n/a
477.4374	n/a	RESPONSE	n/a	n/a	n/a	n/a	n/a	n/a	n/a	yellow
477.4703	1.0167	ITI	n/a	n/a	n/a	n/a	n/a	n/a	n/a	n/a
478.487	0.5167	FIXCROSS	n/a	n/a	n/a	n/a	n/a	n/a	n/a	n/a
479.0036	1.2	COLOR_NAME	51	Incongruent	zielony	green	czerwony	red	hit	n/a
480.1701	n/a	RESPONSE	n/a	n/a	n/a	n/a	n/a	n/a	n/a	green
480.2037	1.0167	ITI	n/a	n/a	n/a	n/a	n/a	n/a	n/a	n/a
481.2203	0.5167	FIXCROSS	n/a	n/a	n/a	n/a	n/a	n/a	n/a	n/a
481.737	0.6667	COLOR_NAME	52	Incongruent	niebieski	blue	żółty	yellow	hit	n/a
482.3754	n/a	RESPONSE	n/a	n/a	n/a	n/a	n/a	n/a	n/a	blue
482.4037	1.0167	ITI	n/a	n/a	n/a	n/a	n/a	n/a	n/a	n/a
483.4204	0.5167	FIXCROSS	n/a	n/a	n/a	n/a	n/a	n/a	n/a	n/a
483.4461	n/a	RESPONSE	n/a	n/a	n/a	n/a	n/a	n/a	n/a	yellow
483.937	0.6833	COLOR_NAME	53	Neutral	żółty	yellow	Neutral	Neutral	hit	n/a
484.5966	n/a	RESPONSE	n/a	n/a	n/a	n/a	n/a	n/a	n/a	yellow
484.6204	1.0167	ITI	n/a	n/a	n/a	n/a	n/a	n/a	n/a	n/a
485.637	0.5167	FIXCROSS	n/a	n/a	n/a	n/a	n/a	n/a	n/a	n/a
486.1537	1.15	COLOR_NAME	54	Neutral	zielony	green	Neutral	Neutral	hit	n/a
487.2813	n/a	RESPONSE	n/a	n/a	n/a	n/a	n/a	n/a	n/a	green
487.3037	1.0167	ITI	n/a	n/a	n/a	n/a	n/a	n/a	n/a	n/a
488.3204	0.5167	FIXCROSS	n/a	n/a	n/a	n/a	n/a	n/a	n/a	n/a
488.8371	0.7834	COLOR_NAME	55	Neutral	czerwony	red	Neutral	Neutral	hit	n/a
489.5984	n/a	RESPONSE	n/a	n/a	n/a	n/a	n/a	n/a	n/a	red
489.6204	1.0167	ITI	n/a	n/a	n/a	n/a	n/a	n/a	n/a	n/a
490.6371	0.5167	FIXCROSS	n/a	n/a	n/a	n/a	n/a	n/a	n/a	n/a
491.1537	0.75	COLOR_NAME	56	Incongruent	żółty	yellow	czerwony	red	hit	n/a
491.8836	n/a	RESPONSE	n/a	n/a	n/a	n/a	n/a	n/a	n/a	yellow
491.9037	1.0167	ITI	n/a	n/a	n/a	n/a	n/a	n/a	n/a	n/a
492.9204	0.5167	FIXCROSS	n/a	n/a	n/a	n/a	n/a	n/a	n/a	n/a
493.4371	0.6667	COLOR_NAME	57	Neutral	żółty	yellow	Neutral	Neutral	hit	n/a
494.073	n/a	RESPONSE	n/a	n/a	n/a	n/a	n/a	n/a	n/a	yellow
494.1038	1.0167	ITI	n/a	n/a	n/a	n/a	n/a	n/a	n/a	n/a
495.1205	0.5167	FIXCROSS	n/a	n/a	n/a	n/a	n/a	n/a	n/a	n/a
495.6371	0.8667	COLOR_NAME	58	Incongruent	żółty	yellow	zielony	green	incorrect	n/a
496.4859	n/a	RESPONSE	n/a	n/a	n/a	n/a	n/a	n/a	n/a	green
496.5038	1.0167	ITI	n/a	n/a	n/a	n/a	n/a	n/a	n/a	n/a
497.5205	0.5167	FIXCROSS	n/a	n/a	n/a	n/a	n/a	n/a	n/a	n/a
498.0371	1.0833	COLOR_NAME	59	Incongruent	czerwony	red	zielony	green	incorrect	n/a
499.0907	n/a	RESPONSE	n/a	n/a	n/a	n/a	n/a	n/a	n/a	yellow
499.1205	1.0167	ITI	n/a	n/a	n/a	n/a	n/a	n/a	n/a	n/a
500.1372	0.5167	FIXCROSS	n/a	n/a	n/a	n/a	n/a	n/a	n/a	n/a
500.6538	0.8333	COLOR_NAME	60	Incongruent	zielony	green	czerwony	red	hit	n/a
501.4559	n/a	RESPONSE	n/a	n/a	n/a	n/a	n/a	n/a	n/a	green
501.4872	1.0167	ITI	n/a	n/a	n/a	n/a	n/a	n/a	n/a	n/a
502.5038	0.5167	FIXCROSS	n/a	n/a	n/a	n/a	n/a	n/a	n/a	n/a
503.0205	1.05	COLOR_NAME	61	Incongruent	zielony	green	niebieski	blue	hit	n/a
504.0446	n/a	RESPONSE	n/a	n/a	n/a	n/a	n/a	n/a	n/a	green
504.0705	1.0167	ITI	n/a	n/a	n/a	n/a	n/a	n/a	n/a	n/a
505.0872	0.5167	FIXCROSS	n/a	n/a	n/a	n/a	n/a	n/a	n/a	n/a
505.6039	0.6833	COLOR_NAME	62	Incongruent	czerwony	red	niebieski	blue	hit	n/a
506.2658	n/a	RESPONSE	n/a	n/a	n/a	n/a	n/a	n/a	n/a	red
506.2872	1.0167	ITI	n/a	n/a	n/a	n/a	n/a	n/a	n/a	n/a
507.3039	0.5167	FIXCROSS	n/a	n/a	n/a	n/a	n/a	n/a	n/a	n/a
507.8205	0.7167	COLOR_NAME	63	Neutral	czerwony	red	Neutral	Neutral	hit	n/a
508.5191	n/a	RESPONSE	n/a	n/a	n/a	n/a	n/a	n/a	n/a	red
508.5372	1.0167	ITI	n/a	n/a	n/a	n/a	n/a	n/a	n/a	n/a
509.5539	0.5167	FIXCROSS	n/a	n/a	n/a	n/a	n/a	n/a	n/a	n/a
510.0706	0.8667	COLOR_NAME	64	Incongruent	niebieski	blue	zielony	green	hit	n/a
510.9162	n/a	RESPONSE	n/a	n/a	n/a	n/a	n/a	n/a	n/a	blue
510.9372	1.0167	ITI	n/a	n/a	n/a	n/a	n/a	n/a	n/a	n/a
511.9539	0.5167	FIXCROSS	n/a	n/a	n/a	n/a	n/a	n/a	n/a	n/a
512.4706	0.85	COLOR_NAME	65	Incongruent	zielony	green	żółty	yellow	hit	n/a
513.2973	n/a	RESPONSE	n/a	n/a	n/a	n/a	n/a	n/a	n/a	green
513.3206	1.0167	ITI	n/a	n/a	n/a	n/a	n/a	n/a	n/a	n/a
514.3373	0.5167	FIXCROSS	n/a	n/a	n/a	n/a	n/a	n/a	n/a	n/a
514.8539	0.7167	COLOR_NAME	66	Neutral	niebieski	blue	Neutral	Neutral	hit	n/a
515.5505	n/a	RESPONSE	n/a	n/a	n/a	n/a	n/a	n/a	n/a	blue
515.5706	1.0167	ITI	n/a	n/a	n/a	n/a	n/a	n/a	n/a	n/a
516.5873	0.5167	FIXCROSS	n/a	n/a	n/a	n/a	n/a	n/a	n/a	n/a
517.104	0.7333	COLOR_NAME	67	Incongruent	zielony	green	niebieski	blue	hit	n/a
517.8037	n/a	RESPONSE	n/a	n/a	n/a	n/a	n/a	n/a	n/a	green
517.8373	1.0167	ITI	n/a	n/a	n/a	n/a	n/a	n/a	n/a	n/a
518.854	0.5167	FIXCROSS	n/a	n/a	n/a	n/a	n/a	n/a	n/a	n/a
519.3706	0.65	COLOR_NAME	68	Incongruent	żółty	yellow	niebieski	blue	hit	n/a
519.9929	n/a	RESPONSE	n/a	n/a	n/a	n/a	n/a	n/a	n/a	yellow
520.0206	1.0167	ITI	n/a	n/a	n/a	n/a	n/a	n/a	n/a	n/a
521.0373	0.5167	FIXCROSS	n/a	n/a	n/a	n/a	n/a	n/a	n/a	n/a
521.554	0.7333	COLOR_NAME	69	Neutral	czerwony	red	Neutral	Neutral	hit	n/a
522.2621	n/a	RESPONSE	n/a	n/a	n/a	n/a	n/a	n/a	n/a	red
522.2873	1.0167	ITI	n/a	n/a	n/a	n/a	n/a	n/a	n/a	n/a
523.304	0.5167	FIXCROSS	n/a	n/a	n/a	n/a	n/a	n/a	n/a	n/a
523.8207	1.0167	COLOR_NAME	70	Incongruent	niebieski	blue	czerwony	red	hit	n/a
524.819	n/a	RESPONSE	n/a	n/a	n/a	n/a	n/a	n/a	n/a	blue
524.8373	1.0167	ITI	n/a	n/a	n/a	n/a	n/a	n/a	n/a	n/a
525.854	0.5167	FIXCROSS	n/a	n/a	n/a	n/a	n/a	n/a	n/a	n/a
526.3707	0.7167	COLOR_NAME	71	Incongruent	żółty	yellow	niebieski	blue	hit	n/a
527.0562	n/a	RESPONSE	n/a	n/a	n/a	n/a	n/a	n/a	n/a	yellow
527.0874	1.0167	ITI	n/a	n/a	n/a	n/a	n/a	n/a	n/a	n/a
528.104	0.5167	FIXCROSS	n/a	n/a	n/a	n/a	n/a	n/a	n/a	n/a
528.6207	0.6667	COLOR_NAME	72	Neutral	żółty	yellow	Neutral	Neutral	hit	n/a
529.2616	n/a	RESPONSE	n/a	n/a	n/a	n/a	n/a	n/a	n/a	yellow
529.2874	1.0333	ITI	n/a	n/a	n/a	n/a	n/a	n/a	n/a	n/a
536.2609	n/a	RESPONSE	n/a	n/a	n/a	n/a	n/a	n/a	n/a	n/a
