onset	duration	trial_type	trial_number	stroop_condition	stim_text(PL)	stim_text(eng)	stim_color(PL)	stim_color(eng)	response_type	response_color
0.0	n/a	RESPONSE	n/a	n/a	n/a	n/a	n/a	n/a	n/a	n/a
0.0667	1.0333	ITI	n/a	n/a	n/a	n/a	n/a	n/a	n/a	n/a
1.1	0.5167	FIXCROSS	n/a	n/a	n/a	n/a	n/a	n/a	n/a	n/a
1.6167	2.0333	T_INK	1	Incongruent	żółty	yellow	zielony	green	hit	n/a
3.6151	n/a	RESPONSE	n/a	n/a	n/a	n/a	n/a	n/a	n/a	green
3.65	0.5167	FEEDBACK	n/a	n/a	n/a	n/a	n/a	n/a	n/a	n/a
4.1667	1.0167	ITI	n/a	n/a	n/a	n/a	n/a	n/a	n/a	n/a
5.1834	0.5167	FIXCROSS	n/a	n/a	n/a	n/a	n/a	n/a	n/a	n/a
5.7001	1.2333	T_INK	2	Incongruent	niebieski	blue	żółty	yellow	hit	n/a
6.9103	n/a	RESPONSE	n/a	n/a	n/a	n/a	n/a	n/a	n/a	yellow
6.9334	0.5167	FEEDBACK	n/a	n/a	n/a	n/a	n/a	n/a	n/a	n/a
7.4501	1.0167	ITI	n/a	n/a	n/a	n/a	n/a	n/a	n/a	n/a
8.4668	0.5167	FIXCROSS	n/a	n/a	n/a	n/a	n/a	n/a	n/a	n/a
8.9834	0.45	T_INK	3	Neutral	xxxxx	xxxxx	niebieski	blue	hit	n/a
9.4057	n/a	RESPONSE	n/a	n/a	n/a	n/a	n/a	n/a	n/a	blue
9.4334	0.5167	FEEDBACK	n/a	n/a	n/a	n/a	n/a	n/a	n/a	n/a
9.9501	1.0167	ITI	n/a	n/a	n/a	n/a	n/a	n/a	n/a	n/a
10.9668	0.5167	FIXCROSS	n/a	n/a	n/a	n/a	n/a	n/a	n/a	n/a
11.4835	0.75	T_INK	4	Neutral	xxxxxxxxx	xxxxxxxxx	żółty	yellow	incorrect	n/a
12.205	n/a	RESPONSE	n/a	n/a	n/a	n/a	n/a	n/a	n/a	green
12.2335	0.5167	FEEDBACK	n/a	n/a	n/a	n/a	n/a	n/a	n/a	n/a
12.7501	1.0167	ITI	n/a	n/a	n/a	n/a	n/a	n/a	n/a	n/a
13.7668	0.5167	FIXCROSS	n/a	n/a	n/a	n/a	n/a	n/a	n/a	n/a
14.2835	0.7833	T_INK	5	Neutral	xxxxxxx	xxxxxxx	żółty	yellow	hit	n/a
15.0363	n/a	RESPONSE	n/a	n/a	n/a	n/a	n/a	n/a	n/a	yellow
15.0668	0.5167	FEEDBACK	n/a	n/a	n/a	n/a	n/a	n/a	n/a	n/a
15.5835	1.0167	ITI	n/a	n/a	n/a	n/a	n/a	n/a	n/a	n/a
16.6002	0.5167	FIXCROSS	n/a	n/a	n/a	n/a	n/a	n/a	n/a	n/a
17.1169	0.7667	T_INK	6	Neutral	xxxxxxxxx	xxxxxxxxx	zielony	green	hit	n/a
17.8516	n/a	RESPONSE	n/a	n/a	n/a	n/a	n/a	n/a	n/a	green
17.8835	0.5167	FEEDBACK	n/a	n/a	n/a	n/a	n/a	n/a	n/a	n/a
18.4002	1.0167	ITI	n/a	n/a	n/a	n/a	n/a	n/a	n/a	n/a
19.4169	0.5167	FIXCROSS	n/a	n/a	n/a	n/a	n/a	n/a	n/a	n/a
19.9336	1.0333	T_INK	7	Incongruent	czerwony	red	niebieski	blue	hit	n/a
20.9389	n/a	RESPONSE	n/a	n/a	n/a	n/a	n/a	n/a	n/a	blue
20.9669	0.5167	FEEDBACK	n/a	n/a	n/a	n/a	n/a	n/a	n/a	n/a
21.4836	1.0167	ITI	n/a	n/a	n/a	n/a	n/a	n/a	n/a	n/a
22.5003	0.5167	FIXCROSS	n/a	n/a	n/a	n/a	n/a	n/a	n/a	n/a
23.0169	1.0833	T_INK	8	Incongruent	żółty	yellow	niebieski	blue	hit	n/a
24.0741	n/a	RESPONSE	n/a	n/a	n/a	n/a	n/a	n/a	n/a	blue
24.1003	0.5167	FEEDBACK	n/a	n/a	n/a	n/a	n/a	n/a	n/a	n/a
24.617	1.0167	ITI	n/a	n/a	n/a	n/a	n/a	n/a	n/a	n/a
25.6336	0.5167	FIXCROSS	n/a	n/a	n/a	n/a	n/a	n/a	n/a	n/a
26.1503	0.9167	T_INK	9	Neutral	xxxxxxxx	xxxxxxxx	żółty	yellow	hit	n/a
27.0334	n/a	RESPONSE	n/a	n/a	n/a	n/a	n/a	n/a	n/a	yellow
27.067	0.5167	FEEDBACK	n/a	n/a	n/a	n/a	n/a	n/a	n/a	n/a
27.5837	1.0167	ITI	n/a	n/a	n/a	n/a	n/a	n/a	n/a	n/a
28.6003	0.5167	FIXCROSS	n/a	n/a	n/a	n/a	n/a	n/a	n/a	n/a
29.117	0.45	T_INK	10	Incongruent	zielony	green	niebieski	blue	hit	n/a
29.5448	n/a	RESPONSE	n/a	n/a	n/a	n/a	n/a	n/a	n/a	blue
29.567	0.5167	FEEDBACK	n/a	n/a	n/a	n/a	n/a	n/a	n/a	n/a
30.0837	1.0167	ITI	n/a	n/a	n/a	n/a	n/a	n/a	n/a	n/a
31.1004	0.5167	FIXCROSS	n/a	n/a	n/a	n/a	n/a	n/a	n/a	n/a
31.617	0.6167	T_INK	11	Neutral	xxxxxxxxx	xxxxxxxxx	czerwony	red	hit	n/a
32.2001	n/a	RESPONSE	n/a	n/a	n/a	n/a	n/a	n/a	n/a	red
32.2337	0.5167	FEEDBACK	n/a	n/a	n/a	n/a	n/a	n/a	n/a	n/a
32.7504	1.0167	ITI	n/a	n/a	n/a	n/a	n/a	n/a	n/a	n/a
33.7671	0.5167	FIXCROSS	n/a	n/a	n/a	n/a	n/a	n/a	n/a	n/a
34.2837	0.5667	T_INK	12	Incongruent	żółty	yellow	czerwony	red	hit	n/a
34.8235	n/a	RESPONSE	n/a	n/a	n/a	n/a	n/a	n/a	n/a	red
34.8504	0.5167	FEEDBACK	n/a	n/a	n/a	n/a	n/a	n/a	n/a	n/a
35.3671	1.0333	ITI	n/a	n/a	n/a	n/a	n/a	n/a	n/a	n/a
42.3897	n/a	RESPONSE	n/a	n/a	n/a	n/a	n/a	n/a	n/a	n/a
42.4505	1.0167	ITI	n/a	n/a	n/a	n/a	n/a	n/a	n/a	n/a
43.4672	0.5167	FIXCROSS	n/a	n/a	n/a	n/a	n/a	n/a	n/a	n/a
43.9838	0.6667	INK	1	Neutral	xxxxxxx	xxxxxxx	czerwony	red	hit	n/a
44.6291	n/a	RESPONSE	n/a	n/a	n/a	n/a	n/a	n/a	n/a	red
44.6505	1.0167	ITI	n/a	n/a	n/a	n/a	n/a	n/a	n/a	n/a
45.6672	0.5167	FIXCROSS	n/a	n/a	n/a	n/a	n/a	n/a	n/a	n/a
46.1839	0.5667	INK	2	Neutral	xxxxxxxxx	xxxxxxxxx	żółty	yellow	hit	n/a
46.7246	n/a	RESPONSE	n/a	n/a	n/a	n/a	n/a	n/a	n/a	yellow
46.7505	1.0167	ITI	n/a	n/a	n/a	n/a	n/a	n/a	n/a	n/a
47.7672	0.5167	FIXCROSS	n/a	n/a	n/a	n/a	n/a	n/a	n/a	n/a
48.2839	0.5333	INK	3	Incongruent	czerwony	red	żółty	yellow	hit	n/a
48.7721	n/a	RESPONSE	n/a	n/a	n/a	n/a	n/a	n/a	n/a	yellow
48.8172	1.0167	ITI	n/a	n/a	n/a	n/a	n/a	n/a	n/a	n/a
49.8339	0.5167	FIXCROSS	n/a	n/a	n/a	n/a	n/a	n/a	n/a	n/a
50.3506	0.85	INK	4	Incongruent	czerwony	red	zielony	green	hit	n/a
51.1715	n/a	RESPONSE	n/a	n/a	n/a	n/a	n/a	n/a	n/a	green
51.2006	1.0167	ITI	n/a	n/a	n/a	n/a	n/a	n/a	n/a	n/a
52.2173	0.5167	FIXCROSS	n/a	n/a	n/a	n/a	n/a	n/a	n/a	n/a
52.7339	1.0667	INK	5	Incongruent	zielony	green	żółty	yellow	hit	n/a
53.7789	n/a	RESPONSE	n/a	n/a	n/a	n/a	n/a	n/a	n/a	yellow
53.8006	1.0167	ITI	n/a	n/a	n/a	n/a	n/a	n/a	n/a	n/a
54.8173	0.5167	FIXCROSS	n/a	n/a	n/a	n/a	n/a	n/a	n/a	n/a
55.334	0.75	INK	6	Incongruent	niebieski	blue	zielony	green	hit	n/a
56.0503	n/a	RESPONSE	n/a	n/a	n/a	n/a	n/a	n/a	n/a	green
56.084	1.0167	ITI	n/a	n/a	n/a	n/a	n/a	n/a	n/a	n/a
57.1006	0.5167	FIXCROSS	n/a	n/a	n/a	n/a	n/a	n/a	n/a	n/a
57.6173	0.5	INK	7	Neutral	xxxxxxx	xxxxxxx	niebieski	blue	hit	n/a
58.0978	n/a	RESPONSE	n/a	n/a	n/a	n/a	n/a	n/a	n/a	blue
58.1173	1.0167	ITI	n/a	n/a	n/a	n/a	n/a	n/a	n/a	n/a
59.134	0.5167	FIXCROSS	n/a	n/a	n/a	n/a	n/a	n/a	n/a	n/a
59.6507	0.6333	INK	8	Neutral	xxxxxxxxx	xxxxxxxxx	zielony	green	hit	n/a
60.2573	n/a	RESPONSE	n/a	n/a	n/a	n/a	n/a	n/a	n/a	green
60.284	1.0167	ITI	n/a	n/a	n/a	n/a	n/a	n/a	n/a	n/a
61.3007	0.5167	FIXCROSS	n/a	n/a	n/a	n/a	n/a	n/a	n/a	n/a
61.8174	0.7167	INK	9	Neutral	xxxxxxxxx	xxxxxxxxx	żółty	yellow	hit	n/a
62.4968	n/a	RESPONSE	n/a	n/a	n/a	n/a	n/a	n/a	n/a	yellow
62.534	1.0167	ITI	n/a	n/a	n/a	n/a	n/a	n/a	n/a	n/a
63.5507	0.5167	FIXCROSS	n/a	n/a	n/a	n/a	n/a	n/a	n/a	n/a
64.0674	0.6	INK	10	Incongruent	czerwony	red	niebieski	blue	hit	n/a
64.6402	n/a	RESPONSE	n/a	n/a	n/a	n/a	n/a	n/a	n/a	blue
64.6674	1.0167	ITI	n/a	n/a	n/a	n/a	n/a	n/a	n/a	n/a
65.6841	0.5166	FIXCROSS	n/a	n/a	n/a	n/a	n/a	n/a	n/a	n/a
66.2007	0.5834	INK	11	Incongruent	żółty	yellow	niebieski	blue	hit	n/a
66.7517	n/a	RESPONSE	n/a	n/a	n/a	n/a	n/a	n/a	n/a	blue
66.7841	1.0167	ITI	n/a	n/a	n/a	n/a	n/a	n/a	n/a	n/a
67.8008	0.5167	FIXCROSS	n/a	n/a	n/a	n/a	n/a	n/a	n/a	n/a
68.3174	0.5167	INK	12	Neutral	xxxxxxx	xxxxxxx	żółty	yellow	hit	n/a
68.8152	n/a	RESPONSE	n/a	n/a	n/a	n/a	n/a	n/a	n/a	yellow
68.8341	1.0167	ITI	n/a	n/a	n/a	n/a	n/a	n/a	n/a	n/a
69.8508	0.5167	FIXCROSS	n/a	n/a	n/a	n/a	n/a	n/a	n/a	n/a
70.3675	0.4667	INK	13	Neutral	xxxxxxxxx	xxxxxxxxx	czerwony	red	hit	n/a
70.8147	n/a	RESPONSE	n/a	n/a	n/a	n/a	n/a	n/a	n/a	red
70.8341	1.0167	ITI	n/a	n/a	n/a	n/a	n/a	n/a	n/a	n/a
71.8508	0.5167	FIXCROSS	n/a	n/a	n/a	n/a	n/a	n/a	n/a	n/a
72.3675	0.7	INK	14	Incongruent	zielony	green	niebieski	blue	hit	n/a
73.0382	n/a	RESPONSE	n/a	n/a	n/a	n/a	n/a	n/a	n/a	blue
73.0675	1.0167	ITI	n/a	n/a	n/a	n/a	n/a	n/a	n/a	n/a
74.0842	0.5167	FIXCROSS	n/a	n/a	n/a	n/a	n/a	n/a	n/a	n/a
74.6008	0.6667	INK	15	Neutral	xxxxxxxxx	xxxxxxxxx	zielony	green	hit	n/a
75.2456	n/a	RESPONSE	n/a	n/a	n/a	n/a	n/a	n/a	n/a	green
75.2675	1.0167	ITI	n/a	n/a	n/a	n/a	n/a	n/a	n/a	n/a
76.2842	0.5167	FIXCROSS	n/a	n/a	n/a	n/a	n/a	n/a	n/a	n/a
76.8009	0.45	INK	16	Neutral	xxxxxxxx	xxxxxxxx	niebieski	blue	hit	n/a
77.2292	n/a	RESPONSE	n/a	n/a	n/a	n/a	n/a	n/a	n/a	blue
77.2509	1.0167	ITI	n/a	n/a	n/a	n/a	n/a	n/a	n/a	n/a
78.2676	0.5167	FIXCROSS	n/a	n/a	n/a	n/a	n/a	n/a	n/a	n/a
78.7842	0.4167	INK	17	Incongruent	zielony	green	niebieski	blue	hit	n/a
79.1807	n/a	RESPONSE	n/a	n/a	n/a	n/a	n/a	n/a	n/a	blue
79.2009	1.0167	ITI	n/a	n/a	n/a	n/a	n/a	n/a	n/a	n/a
80.2176	0.5167	FIXCROSS	n/a	n/a	n/a	n/a	n/a	n/a	n/a	n/a
80.7343	0.45	INK	18	Incongruent	czerwony	red	niebieski	blue	hit	n/a
81.1642	n/a	RESPONSE	n/a	n/a	n/a	n/a	n/a	n/a	n/a	blue
81.1843	1.0167	ITI	n/a	n/a	n/a	n/a	n/a	n/a	n/a	n/a
82.2009	0.5167	FIXCROSS	n/a	n/a	n/a	n/a	n/a	n/a	n/a	n/a
82.7176	0.6333	INK	19	Incongruent	żółty	yellow	czerwony	red	hit	n/a
83.3237	n/a	RESPONSE	n/a	n/a	n/a	n/a	n/a	n/a	n/a	red
83.351	1.0167	ITI	n/a	n/a	n/a	n/a	n/a	n/a	n/a	n/a
84.3676	0.5167	FIXCROSS	n/a	n/a	n/a	n/a	n/a	n/a	n/a	n/a
84.8843	0.5833	INK	20	Neutral	xxxxxxxx	xxxxxxxx	zielony	green	hit	n/a
85.4351	n/a	RESPONSE	n/a	n/a	n/a	n/a	n/a	n/a	n/a	green
85.4676	1.0167	ITI	n/a	n/a	n/a	n/a	n/a	n/a	n/a	n/a
86.4843	0.5167	FIXCROSS	n/a	n/a	n/a	n/a	n/a	n/a	n/a	n/a
87.001	0.5333	INK	21	Neutral	xxxxxxxx	xxxxxxxx	żółty	yellow	hit	n/a
87.5147	n/a	RESPONSE	n/a	n/a	n/a	n/a	n/a	n/a	n/a	yellow
87.5343	1.0167	ITI	n/a	n/a	n/a	n/a	n/a	n/a	n/a	n/a
88.551	0.5167	FIXCROSS	n/a	n/a	n/a	n/a	n/a	n/a	n/a	n/a
89.0677	0.4333	INK	22	Neutral	xxxxxxx	xxxxxxx	niebieski	blue	hit	n/a
89.4822	n/a	RESPONSE	n/a	n/a	n/a	n/a	n/a	n/a	n/a	blue
89.501	1.0167	ITI	n/a	n/a	n/a	n/a	n/a	n/a	n/a	n/a
90.5177	0.5167	FIXCROSS	n/a	n/a	n/a	n/a	n/a	n/a	n/a	n/a
91.0344	0.5	INK	23	Neutral	xxxxx	xxxxx	zielony	green	incorrect	n/a
91.5137	n/a	RESPONSE	n/a	n/a	n/a	n/a	n/a	n/a	n/a	red
91.5344	1.0167	ITI	n/a	n/a	n/a	n/a	n/a	n/a	n/a	n/a
92.5511	0.5167	FIXCROSS	n/a	n/a	n/a	n/a	n/a	n/a	n/a	n/a
93.0677	0.3833	INK	24	Neutral	xxxxxxx	xxxxxxx	niebieski	blue	hit	n/a
93.4332	n/a	RESPONSE	n/a	n/a	n/a	n/a	n/a	n/a	n/a	blue
93.4511	1.0167	ITI	n/a	n/a	n/a	n/a	n/a	n/a	n/a	n/a
94.4677	0.5167	FIXCROSS	n/a	n/a	n/a	n/a	n/a	n/a	n/a	n/a
94.9844	0.9333	INK	25	Incongruent	niebieski	blue	zielony	green	hit	n/a
95.8966	n/a	RESPONSE	n/a	n/a	n/a	n/a	n/a	n/a	n/a	green
95.9178	1.0167	ITI	n/a	n/a	n/a	n/a	n/a	n/a	n/a	n/a
96.9344	0.5167	FIXCROSS	n/a	n/a	n/a	n/a	n/a	n/a	n/a	n/a
97.4511	0.5833	INK	26	Incongruent	niebieski	blue	żółty	yellow	hit	n/a
98.0081	n/a	RESPONSE	n/a	n/a	n/a	n/a	n/a	n/a	n/a	yellow
98.0344	1.0167	ITI	n/a	n/a	n/a	n/a	n/a	n/a	n/a	n/a
99.0511	0.5167	FIXCROSS	n/a	n/a	n/a	n/a	n/a	n/a	n/a	n/a
99.5678	0.6167	INK	27	Incongruent	żółty	yellow	zielony	green	incorrect	n/a
100.1516	n/a	RESPONSE	n/a	n/a	n/a	n/a	n/a	n/a	n/a	red
100.1845	1.0167	ITI	n/a	n/a	n/a	n/a	n/a	n/a	n/a	n/a
101.2011	0.5167	FIXCROSS	n/a	n/a	n/a	n/a	n/a	n/a	n/a	n/a
101.7178	0.5	INK	28	Neutral	xxxxxxxxx	xxxxxxxxx	czerwony	red	hit	n/a
102.1992	n/a	RESPONSE	n/a	n/a	n/a	n/a	n/a	n/a	n/a	red
102.2178	1.0167	ITI	n/a	n/a	n/a	n/a	n/a	n/a	n/a	n/a
103.2345	0.5167	FIXCROSS	n/a	n/a	n/a	n/a	n/a	n/a	n/a	n/a
103.7512	0.6833	INK	29	Incongruent	niebieski	blue	czerwony	red	hit	n/a
104.4065	n/a	RESPONSE	n/a	n/a	n/a	n/a	n/a	n/a	n/a	red
104.4345	1.0167	ITI	n/a	n/a	n/a	n/a	n/a	n/a	n/a	n/a
105.4512	0.5167	FIXCROSS	n/a	n/a	n/a	n/a	n/a	n/a	n/a	n/a
105.9679	0.7334	INK	30	Neutral	xxxxxxxx	xxxxxxxx	zielony	green	hit	n/a
106.678	n/a	RESPONSE	n/a	n/a	n/a	n/a	n/a	n/a	n/a	green
106.7012	1.0167	ITI	n/a	n/a	n/a	n/a	n/a	n/a	n/a	n/a
107.7179	0.5167	FIXCROSS	n/a	n/a	n/a	n/a	n/a	n/a	n/a	n/a
108.2346	0.8334	INK	31	Incongruent	zielony	green	czerwony	red	hit	n/a
109.0454	n/a	RESPONSE	n/a	n/a	n/a	n/a	n/a	n/a	n/a	red
109.0679	1.0167	ITI	n/a	n/a	n/a	n/a	n/a	n/a	n/a	n/a
110.0846	0.5167	FIXCROSS	n/a	n/a	n/a	n/a	n/a	n/a	n/a	n/a
110.6013	0.6833	INK	32	Incongruent	żółty	yellow	zielony	green	hit	n/a
111.2529	n/a	RESPONSE	n/a	n/a	n/a	n/a	n/a	n/a	n/a	green
111.2846	1.0167	ITI	n/a	n/a	n/a	n/a	n/a	n/a	n/a	n/a
112.3013	0.5167	FIXCROSS	n/a	n/a	n/a	n/a	n/a	n/a	n/a	n/a
112.818	0.7167	INK	33	Neutral	xxxxxxx	xxxxxxx	czerwony	red	hit	n/a
113.5083	n/a	RESPONSE	n/a	n/a	n/a	n/a	n/a	n/a	n/a	red
113.5346	1.0167	ITI	n/a	n/a	n/a	n/a	n/a	n/a	n/a	n/a
114.5513	0.5167	FIXCROSS	n/a	n/a	n/a	n/a	n/a	n/a	n/a	n/a
115.068	0.6167	INK	34	Neutral	xxxxxxxxx	xxxxxxxxx	czerwony	red	hit	n/a
115.6518	n/a	RESPONSE	n/a	n/a	n/a	n/a	n/a	n/a	n/a	red
115.6846	1.0167	ITI	n/a	n/a	n/a	n/a	n/a	n/a	n/a	n/a
116.7013	0.5167	FIXCROSS	n/a	n/a	n/a	n/a	n/a	n/a	n/a	n/a
117.218	0.6167	INK	35	Neutral	xxxxx	xxxxx	zielony	green	hit	n/a
117.8112	n/a	RESPONSE	n/a	n/a	n/a	n/a	n/a	n/a	n/a	green
117.8347	1.0167	ITI	n/a	n/a	n/a	n/a	n/a	n/a	n/a	n/a
118.8513	0.5167	FIXCROSS	n/a	n/a	n/a	n/a	n/a	n/a	n/a	n/a
119.368	0.5667	INK	36	Neutral	xxxxx	xxxxx	czerwony	red	hit	n/a
119.9067	n/a	RESPONSE	n/a	n/a	n/a	n/a	n/a	n/a	n/a	red
119.9347	1.0167	ITI	n/a	n/a	n/a	n/a	n/a	n/a	n/a	n/a
120.9514	0.5167	FIXCROSS	n/a	n/a	n/a	n/a	n/a	n/a	n/a	n/a
121.468	0.45	INK	37	Neutral	xxxxxxxx	xxxxxxxx	niebieski	blue	hit	n/a
121.8903	n/a	RESPONSE	n/a	n/a	n/a	n/a	n/a	n/a	n/a	blue
121.9181	1.0167	ITI	n/a	n/a	n/a	n/a	n/a	n/a	n/a	n/a
122.9347	0.5167	FIXCROSS	n/a	n/a	n/a	n/a	n/a	n/a	n/a	n/a
123.4514	0.35	INK	38	Neutral	xxxxx	xxxxx	niebieski	blue	hit	n/a
123.7778	n/a	RESPONSE	n/a	n/a	n/a	n/a	n/a	n/a	n/a	blue
123.8014	1.0167	ITI	n/a	n/a	n/a	n/a	n/a	n/a	n/a	n/a
124.8181	0.5167	FIXCROSS	n/a	n/a	n/a	n/a	n/a	n/a	n/a	n/a
125.3348	0.5333	INK	39	Incongruent	niebieski	blue	żółty	yellow	hit	n/a
125.8413	n/a	RESPONSE	n/a	n/a	n/a	n/a	n/a	n/a	n/a	yellow
125.8681	1.0167	ITI	n/a	n/a	n/a	n/a	n/a	n/a	n/a	n/a
126.8848	0.5167	FIXCROSS	n/a	n/a	n/a	n/a	n/a	n/a	n/a	n/a
127.4014	0.5667	INK	40	Incongruent	żółty	yellow	zielony	green	hit	n/a
127.9368	n/a	RESPONSE	n/a	n/a	n/a	n/a	n/a	n/a	n/a	green
127.9681	1.0167	ITI	n/a	n/a	n/a	n/a	n/a	n/a	n/a	n/a
128.9848	0.5167	FIXCROSS	n/a	n/a	n/a	n/a	n/a	n/a	n/a	n/a
129.5015	0.8667	INK	41	Incongruent	czerwony	red	niebieski	blue	hit	n/a
130.3362	n/a	RESPONSE	n/a	n/a	n/a	n/a	n/a	n/a	n/a	blue
130.3681	1.0167	ITI	n/a	n/a	n/a	n/a	n/a	n/a	n/a	n/a
131.3848	0.5167	FIXCROSS	n/a	n/a	n/a	n/a	n/a	n/a	n/a	n/a
131.9015	0.6	INK	42	Neutral	xxxxxxx	xxxxxxx	żółty	yellow	hit	n/a
132.4797	n/a	RESPONSE	n/a	n/a	n/a	n/a	n/a	n/a	n/a	yellow
132.5015	1.0167	ITI	n/a	n/a	n/a	n/a	n/a	n/a	n/a	n/a
133.5182	0.5167	FIXCROSS	n/a	n/a	n/a	n/a	n/a	n/a	n/a	n/a
134.0349	0.4167	INK	43	Incongruent	czerwony	red	żółty	yellow	hit	n/a
134.4312	n/a	RESPONSE	n/a	n/a	n/a	n/a	n/a	n/a	n/a	yellow
134.4515	1.0167	ITI	n/a	n/a	n/a	n/a	n/a	n/a	n/a	n/a
135.4682	0.5167	FIXCROSS	n/a	n/a	n/a	n/a	n/a	n/a	n/a	n/a
135.9849	0.6333	INK	44	Incongruent	żółty	yellow	czerwony	red	hit	n/a
136.5907	n/a	RESPONSE	n/a	n/a	n/a	n/a	n/a	n/a	n/a	red
136.6182	1.0167	ITI	n/a	n/a	n/a	n/a	n/a	n/a	n/a	n/a
137.6349	0.5167	FIXCROSS	n/a	n/a	n/a	n/a	n/a	n/a	n/a	n/a
138.1516	0.6833	INK	45	Incongruent	niebieski	blue	zielony	green	hit	n/a
138.8142	n/a	RESPONSE	n/a	n/a	n/a	n/a	n/a	n/a	n/a	green
138.8349	1.0167	ITI	n/a	n/a	n/a	n/a	n/a	n/a	n/a	n/a
139.8516	0.5167	FIXCROSS	n/a	n/a	n/a	n/a	n/a	n/a	n/a	n/a
140.3683	0.85	INK	46	Incongruent	niebieski	blue	żółty	yellow	hit	n/a
141.1976	n/a	RESPONSE	n/a	n/a	n/a	n/a	n/a	n/a	n/a	yellow
141.2183	1.0167	ITI	n/a	n/a	n/a	n/a	n/a	n/a	n/a	n/a
142.2349	0.5167	FIXCROSS	n/a	n/a	n/a	n/a	n/a	n/a	n/a	n/a
142.7516	0.9833	INK	47	Incongruent	żółty	yellow	czerwony	red	hit	n/a
143.7089	n/a	RESPONSE	n/a	n/a	n/a	n/a	n/a	n/a	n/a	red
143.735	1.0167	ITI	n/a	n/a	n/a	n/a	n/a	n/a	n/a	n/a
144.7516	0.5167	FIXCROSS	n/a	n/a	n/a	n/a	n/a	n/a	n/a	n/a
145.2683	0.7334	INK	48	Neutral	xxxxxxxx	xxxxxxxx	żółty	yellow	hit	n/a
145.9804	n/a	RESPONSE	n/a	n/a	n/a	n/a	n/a	n/a	n/a	yellow
146.0017	1.0167	ITI	n/a	n/a	n/a	n/a	n/a	n/a	n/a	n/a
147.0183	0.5167	FIXCROSS	n/a	n/a	n/a	n/a	n/a	n/a	n/a	n/a
147.535	0.4667	INK	49	Incongruent	żółty	yellow	niebieski	blue	hit	n/a
147.9799	n/a	RESPONSE	n/a	n/a	n/a	n/a	n/a	n/a	n/a	blue
148.0017	1.0167	ITI	n/a	n/a	n/a	n/a	n/a	n/a	n/a	n/a
149.0184	0.5167	FIXCROSS	n/a	n/a	n/a	n/a	n/a	n/a	n/a	n/a
149.535	0.7	INK	50	Neutral	xxxxx	xxxxx	czerwony	red	hit	n/a
150.2034	n/a	RESPONSE	n/a	n/a	n/a	n/a	n/a	n/a	n/a	red
150.235	1.0167	ITI	n/a	n/a	n/a	n/a	n/a	n/a	n/a	n/a
151.2517	0.5167	FIXCROSS	n/a	n/a	n/a	n/a	n/a	n/a	n/a	n/a
151.7684	0.6667	INK	51	Neutral	xxxxxxxxx	xxxxxxxxx	zielony	green	hit	n/a
152.4108	n/a	RESPONSE	n/a	n/a	n/a	n/a	n/a	n/a	n/a	green
152.4351	1.0167	ITI	n/a	n/a	n/a	n/a	n/a	n/a	n/a	n/a
153.4517	0.5167	FIXCROSS	n/a	n/a	n/a	n/a	n/a	n/a	n/a	n/a
153.9684	0.55	INK	52	Neutral	xxxxxxxx	xxxxxxxx	zielony	green	hit	n/a
154.4903	n/a	RESPONSE	n/a	n/a	n/a	n/a	n/a	n/a	n/a	green
154.5184	1.0167	ITI	n/a	n/a	n/a	n/a	n/a	n/a	n/a	n/a
155.5351	0.5167	FIXCROSS	n/a	n/a	n/a	n/a	n/a	n/a	n/a	n/a
156.0518	0.65	INK	53	Neutral	xxxxx	xxxxx	czerwony	red	hit	n/a
156.6818	n/a	RESPONSE	n/a	n/a	n/a	n/a	n/a	n/a	n/a	red
156.7018	1.0167	ITI	n/a	n/a	n/a	n/a	n/a	n/a	n/a	n/a
157.7184	0.5167	FIXCROSS	n/a	n/a	n/a	n/a	n/a	n/a	n/a	n/a
158.2351	0.6333	INK	54	Neutral	xxxxxxxx	xxxxxxxx	niebieski	blue	hit	n/a
158.8413	n/a	RESPONSE	n/a	n/a	n/a	n/a	n/a	n/a	n/a	blue
158.8685	1.0167	ITI	n/a	n/a	n/a	n/a	n/a	n/a	n/a	n/a
159.8851	0.5167	FIXCROSS	n/a	n/a	n/a	n/a	n/a	n/a	n/a	n/a
160.4018	0.8333	INK	55	Incongruent	czerwony	red	zielony	green	hit	n/a
161.2087	n/a	RESPONSE	n/a	n/a	n/a	n/a	n/a	n/a	n/a	green
161.2352	1.0167	ITI	n/a	n/a	n/a	n/a	n/a	n/a	n/a	n/a
162.2518	0.5167	FIXCROSS	n/a	n/a	n/a	n/a	n/a	n/a	n/a	n/a
162.7685	0.6167	INK	56	Neutral	xxxxx	xxxxx	niebieski	blue	hit	n/a
163.3522	n/a	RESPONSE	n/a	n/a	n/a	n/a	n/a	n/a	n/a	blue
163.3852	1.0167	ITI	n/a	n/a	n/a	n/a	n/a	n/a	n/a	n/a
164.4019	0.5167	FIXCROSS	n/a	n/a	n/a	n/a	n/a	n/a	n/a	n/a
164.9185	0.55	INK	57	Incongruent	zielony	green	żółty	yellow	hit	n/a
165.4477	n/a	RESPONSE	n/a	n/a	n/a	n/a	n/a	n/a	n/a	yellow
165.4685	1.0167	ITI	n/a	n/a	n/a	n/a	n/a	n/a	n/a	n/a
166.4852	0.5167	FIXCROSS	n/a	n/a	n/a	n/a	n/a	n/a	n/a	n/a
167.0019	0.7667	INK	58	Incongruent	czerwony	red	zielony	green	hit	n/a
167.7511	n/a	RESPONSE	n/a	n/a	n/a	n/a	n/a	n/a	n/a	green
167.7686	1.0103	ITI	n/a	n/a	n/a	n/a	n/a	n/a	n/a	n/a
168.7789	0.5231	FIXCROSS	n/a	n/a	n/a	n/a	n/a	n/a	n/a	n/a
169.3019	0.5833	INK	59	Incongruent	zielony	green	niebieski	blue	hit	n/a
169.8626	n/a	RESPONSE	n/a	n/a	n/a	n/a	n/a	n/a	n/a	blue
169.8853	1.0167	ITI	n/a	n/a	n/a	n/a	n/a	n/a	n/a	n/a
170.9019	0.5167	FIXCROSS	n/a	n/a	n/a	n/a	n/a	n/a	n/a	n/a
171.4186	0.6333	INK	60	Incongruent	czerwony	red	żółty	yellow	hit	n/a
172.022	n/a	RESPONSE	n/a	n/a	n/a	n/a	n/a	n/a	n/a	yellow
172.0519	1.0167	ITI	n/a	n/a	n/a	n/a	n/a	n/a	n/a	n/a
173.0686	0.5167	FIXCROSS	n/a	n/a	n/a	n/a	n/a	n/a	n/a	n/a
173.5853	0.6167	INK	61	Incongruent	zielony	green	żółty	yellow	hit	n/a
174.1815	n/a	RESPONSE	n/a	n/a	n/a	n/a	n/a	n/a	n/a	yellow
174.202	1.0167	ITI	n/a	n/a	n/a	n/a	n/a	n/a	n/a	n/a
175.2186	0.5167	FIXCROSS	n/a	n/a	n/a	n/a	n/a	n/a	n/a	n/a
175.7353	0.4667	INK	62	Neutral	xxxxxxxxx	xxxxxxxxx	żółty	yellow	hit	n/a
176.181	n/a	RESPONSE	n/a	n/a	n/a	n/a	n/a	n/a	n/a	yellow
176.202	1.0167	ITI	n/a	n/a	n/a	n/a	n/a	n/a	n/a	n/a
177.2187	0.5167	FIXCROSS	n/a	n/a	n/a	n/a	n/a	n/a	n/a	n/a
177.7353	0.7667	INK	63	Incongruent	zielony	green	czerwony	red	hit	n/a
178.4685	n/a	RESPONSE	n/a	n/a	n/a	n/a	n/a	n/a	n/a	red
178.502	1.0167	ITI	n/a	n/a	n/a	n/a	n/a	n/a	n/a	n/a
179.5187	0.5167	FIXCROSS	n/a	n/a	n/a	n/a	n/a	n/a	n/a	n/a
180.0354	0.5667	INK	64	Incongruent	zielony	green	czerwony	red	hit	n/a
180.58	n/a	RESPONSE	n/a	n/a	n/a	n/a	n/a	n/a	n/a	red
180.602	1.0166	ITI	n/a	n/a	n/a	n/a	n/a	n/a	n/a	n/a
181.6187	0.5167	FIXCROSS	n/a	n/a	n/a	n/a	n/a	n/a	n/a	n/a
182.1354	0.5333	INK	65	Neutral	xxxxxxxx	xxxxxxxx	żółty	yellow	hit	n/a
182.6435	n/a	RESPONSE	n/a	n/a	n/a	n/a	n/a	n/a	n/a	yellow
182.6687	1.0167	ITI	n/a	n/a	n/a	n/a	n/a	n/a	n/a	n/a
183.6854	0.5167	FIXCROSS	n/a	n/a	n/a	n/a	n/a	n/a	n/a	n/a
184.2021	0.4667	INK	66	Neutral	xxxxxxx	xxxxxxx	żółty	yellow	hit	n/a
184.643	n/a	RESPONSE	n/a	n/a	n/a	n/a	n/a	n/a	n/a	yellow
184.6687	1.0167	ITI	n/a	n/a	n/a	n/a	n/a	n/a	n/a	n/a
185.6854	0.5167	FIXCROSS	n/a	n/a	n/a	n/a	n/a	n/a	n/a	n/a
186.2021	0.65	INK	67	Incongruent	niebieski	blue	czerwony	red	hit	n/a
186.8184	n/a	RESPONSE	n/a	n/a	n/a	n/a	n/a	n/a	n/a	red
186.8521	1.0167	ITI	n/a	n/a	n/a	n/a	n/a	n/a	n/a	n/a
187.8688	0.5167	FIXCROSS	n/a	n/a	n/a	n/a	n/a	n/a	n/a	n/a
188.3855	0.4	INK	68	Neutral	xxxxx	xxxxx	niebieski	blue	hit	n/a
188.754	n/a	RESPONSE	n/a	n/a	n/a	n/a	n/a	n/a	n/a	blue
188.7855	1.0167	ITI	n/a	n/a	n/a	n/a	n/a	n/a	n/a	n/a
189.8021	0.5167	FIXCROSS	n/a	n/a	n/a	n/a	n/a	n/a	n/a	n/a
190.3188	0.4333	INK	69	Incongruent	żółty	yellow	niebieski	blue	hit	n/a
190.7215	n/a	RESPONSE	n/a	n/a	n/a	n/a	n/a	n/a	n/a	blue
190.7522	1.0167	ITI	n/a	n/a	n/a	n/a	n/a	n/a	n/a	n/a
191.7688	0.5167	FIXCROSS	n/a	n/a	n/a	n/a	n/a	n/a	n/a	n/a
192.2855	0.5667	INK	70	Neutral	xxxxx	xxxxx	zielony	green	hit	n/a
192.8329	n/a	RESPONSE	n/a	n/a	n/a	n/a	n/a	n/a	n/a	green
192.8522	1.0167	ITI	n/a	n/a	n/a	n/a	n/a	n/a	n/a	n/a
193.8689	0.5167	FIXCROSS	n/a	n/a	n/a	n/a	n/a	n/a	n/a	n/a
194.3855	2.5334	INK	71	Neutral	xxxxxxx	xxxxxxx	czerwony	red	hit	n/a
196.896	n/a	RESPONSE	n/a	n/a	n/a	n/a	n/a	n/a	n/a	red
196.9189	1.0167	ITI	n/a	n/a	n/a	n/a	n/a	n/a	n/a	n/a
197.9356	0.5167	FIXCROSS	n/a	n/a	n/a	n/a	n/a	n/a	n/a	n/a
198.4522	0.5667	INK	72	Incongruent	niebieski	blue	czerwony	red	hit	n/a
198.9914	n/a	RESPONSE	n/a	n/a	n/a	n/a	n/a	n/a	n/a	red
199.0189	1.0833	ITI	n/a	n/a	n/a	n/a	n/a	n/a	n/a	n/a
211.4844	n/a	RESPONSE	n/a	n/a	n/a	n/a	n/a	n/a	n/a	n/a
211.5524	1.0167	ITI	n/a	n/a	n/a	n/a	n/a	n/a	n/a	n/a
212.5691	0.5167	FIXCROSS	n/a	n/a	n/a	n/a	n/a	n/a	n/a	n/a
213.0857	1.3	T_COLOR_NAME	1	Incongruent	czerwony	red	niebieski	blue	hit	n/a
214.3477	n/a	RESPONSE	n/a	n/a	n/a	n/a	n/a	n/a	n/a	red
214.3858	0.5167	FEEDBACK	n/a	n/a	n/a	n/a	n/a	n/a	n/a	n/a
214.9024	1.0167	ITI	n/a	n/a	n/a	n/a	n/a	n/a	n/a	n/a
215.9191	0.5167	FIXCROSS	n/a	n/a	n/a	n/a	n/a	n/a	n/a	n/a
216.4358	0.8	T_COLOR_NAME	2	Incongruent	żółty	yellow	czerwony	red	hit	n/a
217.211	n/a	RESPONSE	n/a	n/a	n/a	n/a	n/a	n/a	n/a	yellow
217.2358	0.5167	FEEDBACK	n/a	n/a	n/a	n/a	n/a	n/a	n/a	n/a
217.7524	1.0167	ITI	n/a	n/a	n/a	n/a	n/a	n/a	n/a	n/a
218.7691	0.5167	FIXCROSS	n/a	n/a	n/a	n/a	n/a	n/a	n/a	n/a
219.2858	0.55	T_COLOR_NAME	3	Neutral	niebieski	blue	Neutral	Neutral	hit	n/a
219.8024	n/a	RESPONSE	n/a	n/a	n/a	n/a	n/a	n/a	n/a	blue
219.8358	0.5167	FEEDBACK	n/a	n/a	n/a	n/a	n/a	n/a	n/a	n/a
220.3525	1.0167	ITI	n/a	n/a	n/a	n/a	n/a	n/a	n/a	n/a
221.3692	0.5167	FIXCROSS	n/a	n/a	n/a	n/a	n/a	n/a	n/a	n/a
221.8858	0.85	T_COLOR_NAME	4	Incongruent	żółty	yellow	niebieski	blue	hit	n/a
222.7137	n/a	RESPONSE	n/a	n/a	n/a	n/a	n/a	n/a	n/a	yellow
222.7358	0.5167	FEEDBACK	n/a	n/a	n/a	n/a	n/a	n/a	n/a	n/a
223.2525	1.0167	ITI	n/a	n/a	n/a	n/a	n/a	n/a	n/a	n/a
224.2692	0.5167	FIXCROSS	n/a	n/a	n/a	n/a	n/a	n/a	n/a	n/a
224.7859	0.9	T_COLOR_NAME	5	Incongruent	żółty	yellow	zielony	green	hit	n/a
225.657	n/a	RESPONSE	n/a	n/a	n/a	n/a	n/a	n/a	n/a	yellow
225.6859	0.5167	FEEDBACK	n/a	n/a	n/a	n/a	n/a	n/a	n/a	n/a
226.2025	1.0167	ITI	n/a	n/a	n/a	n/a	n/a	n/a	n/a	n/a
227.2192	0.5167	FIXCROSS	n/a	n/a	n/a	n/a	n/a	n/a	n/a	n/a
227.7359	0.7	T_COLOR_NAME	6	Incongruent	niebieski	blue	żółty	yellow	hit	n/a
228.4083	n/a	RESPONSE	n/a	n/a	n/a	n/a	n/a	n/a	n/a	blue
228.4359	0.5167	FEEDBACK	n/a	n/a	n/a	n/a	n/a	n/a	n/a	n/a
228.9526	1.0167	ITI	n/a	n/a	n/a	n/a	n/a	n/a	n/a	n/a
229.9693	0.5167	FIXCROSS	n/a	n/a	n/a	n/a	n/a	n/a	n/a	n/a
230.4859	0.75	T_COLOR_NAME	7	Neutral	zielony	green	Neutral	Neutral	hit	n/a
231.2076	n/a	RESPONSE	n/a	n/a	n/a	n/a	n/a	n/a	n/a	green
231.2359	0.5167	FEEDBACK	n/a	n/a	n/a	n/a	n/a	n/a	n/a	n/a
231.7526	1.0167	ITI	n/a	n/a	n/a	n/a	n/a	n/a	n/a	n/a
232.7693	0.5167	FIXCROSS	n/a	n/a	n/a	n/a	n/a	n/a	n/a	n/a
233.286	0.9167	T_COLOR_NAME	8	Neutral	niebieski	blue	Neutral	Neutral	hit	n/a
234.1829	n/a	RESPONSE	n/a	n/a	n/a	n/a	n/a	n/a	n/a	blue
234.2026	0.5167	FEEDBACK	n/a	n/a	n/a	n/a	n/a	n/a	n/a	n/a
234.7193	1.0167	ITI	n/a	n/a	n/a	n/a	n/a	n/a	n/a	n/a
235.736	0.5167	FIXCROSS	n/a	n/a	n/a	n/a	n/a	n/a	n/a	n/a
236.2527	0.6167	T_COLOR_NAME	9	Neutral	żółty	yellow	Neutral	Neutral	hit	n/a
236.8382	n/a	RESPONSE	n/a	n/a	n/a	n/a	n/a	n/a	n/a	yellow
236.8693	0.5167	FEEDBACK	n/a	n/a	n/a	n/a	n/a	n/a	n/a	n/a
237.386	1.0167	ITI	n/a	n/a	n/a	n/a	n/a	n/a	n/a	n/a
238.4027	0.5167	FIXCROSS	n/a	n/a	n/a	n/a	n/a	n/a	n/a	n/a
238.9194	0.6833	T_COLOR_NAME	10	Neutral	czerwony	red	Neutral	Neutral	hit	n/a
239.5736	n/a	RESPONSE	n/a	n/a	n/a	n/a	n/a	n/a	n/a	red
239.6027	0.5167	FEEDBACK	n/a	n/a	n/a	n/a	n/a	n/a	n/a	n/a
240.1194	1.0167	ITI	n/a	n/a	n/a	n/a	n/a	n/a	n/a	n/a
241.1361	0.5167	FIXCROSS	n/a	n/a	n/a	n/a	n/a	n/a	n/a	n/a
241.6527	0.5167	T_COLOR_NAME	11	Neutral	niebieski	blue	Neutral	Neutral	hit	n/a
242.149	n/a	RESPONSE	n/a	n/a	n/a	n/a	n/a	n/a	n/a	blue
242.1694	0.5167	FEEDBACK	n/a	n/a	n/a	n/a	n/a	n/a	n/a	n/a
242.6861	1.0167	ITI	n/a	n/a	n/a	n/a	n/a	n/a	n/a	n/a
243.7027	0.5167	FIXCROSS	n/a	n/a	n/a	n/a	n/a	n/a	n/a	n/a
244.2194	0.5833	T_COLOR_NAME	12	Incongruent	zielony	green	niebieski	blue	hit	n/a
244.7723	n/a	RESPONSE	n/a	n/a	n/a	n/a	n/a	n/a	n/a	green
244.8028	0.5167	FEEDBACK	n/a	n/a	n/a	n/a	n/a	n/a	n/a	n/a
245.3194	1.0333	ITI	n/a	n/a	n/a	n/a	n/a	n/a	n/a	n/a
248.0835	n/a	RESPONSE	n/a	n/a	n/a	n/a	n/a	n/a	n/a	n/a
248.1361	1.0167	ITI	n/a	n/a	n/a	n/a	n/a	n/a	n/a	n/a
249.1528	0.5167	FIXCROSS	n/a	n/a	n/a	n/a	n/a	n/a	n/a	n/a
249.6695	0.5667	COLOR_NAME	1	Incongruent	niebieski	blue	czerwony	red	hit	n/a
250.211	n/a	RESPONSE	n/a	n/a	n/a	n/a	n/a	n/a	n/a	blue
250.2361	1.0167	ITI	n/a	n/a	n/a	n/a	n/a	n/a	n/a	n/a
251.2528	0.5167	FIXCROSS	n/a	n/a	n/a	n/a	n/a	n/a	n/a	n/a
251.7695	0.5167	COLOR_NAME	2	Neutral	niebieski	blue	Neutral	Neutral	hit	n/a
252.2585	n/a	RESPONSE	n/a	n/a	n/a	n/a	n/a	n/a	n/a	blue
252.2862	1.0167	ITI	n/a	n/a	n/a	n/a	n/a	n/a	n/a	n/a
253.3028	0.5167	FIXCROSS	n/a	n/a	n/a	n/a	n/a	n/a	n/a	n/a
253.8195	0.6	COLOR_NAME	3	Neutral	zielony	green	Neutral	Neutral	hit	n/a
254.386	n/a	RESPONSE	n/a	n/a	n/a	n/a	n/a	n/a	n/a	green
254.4195	1.0167	ITI	n/a	n/a	n/a	n/a	n/a	n/a	n/a	n/a
255.4362	0.5167	FIXCROSS	n/a	n/a	n/a	n/a	n/a	n/a	n/a	n/a
255.9529	0.6833	COLOR_NAME	4	Neutral	czerwony	red	Neutral	Neutral	hit	n/a
256.6094	n/a	RESPONSE	n/a	n/a	n/a	n/a	n/a	n/a	n/a	red
256.6362	1.0167	ITI	n/a	n/a	n/a	n/a	n/a	n/a	n/a	n/a
257.6529	0.5167	FIXCROSS	n/a	n/a	n/a	n/a	n/a	n/a	n/a	n/a
258.1696	0.65	COLOR_NAME	5	Incongruent	zielony	green	czerwony	red	hit	n/a
258.8009	n/a	RESPONSE	n/a	n/a	n/a	n/a	n/a	n/a	n/a	green
258.8196	1.0167	ITI	n/a	n/a	n/a	n/a	n/a	n/a	n/a	n/a
259.8363	0.5167	FIXCROSS	n/a	n/a	n/a	n/a	n/a	n/a	n/a	n/a
260.3529	0.427	COLOR_NAME	6	Neutral	niebieski	blue	Neutral	Neutral	hit	n/a
260.7524	n/a	RESPONSE	n/a	n/a	n/a	n/a	n/a	n/a	n/a	blue
260.7799	1.023	ITI	n/a	n/a	n/a	n/a	n/a	n/a	n/a	n/a
261.8029	0.5167	FIXCROSS	n/a	n/a	n/a	n/a	n/a	n/a	n/a	n/a
262.3196	0.6833	COLOR_NAME	7	Neutral	czerwony	red	Neutral	Neutral	hit	n/a
262.9759	n/a	RESPONSE	n/a	n/a	n/a	n/a	n/a	n/a	n/a	red
263.003	1.0167	ITI	n/a	n/a	n/a	n/a	n/a	n/a	n/a	n/a
264.0196	0.5167	FIXCROSS	n/a	n/a	n/a	n/a	n/a	n/a	n/a	n/a
264.5363	0.65	COLOR_NAME	8	Incongruent	żółty	yellow	zielony	green	hit	n/a
265.1673	n/a	RESPONSE	n/a	n/a	n/a	n/a	n/a	n/a	n/a	yellow
265.1863	1.0167	ITI	n/a	n/a	n/a	n/a	n/a	n/a	n/a	n/a
266.203	0.5167	FIXCROSS	n/a	n/a	n/a	n/a	n/a	n/a	n/a	n/a
266.7197	0.5667	COLOR_NAME	9	Neutral	czerwony	red	Neutral	Neutral	hit	n/a
267.2629	n/a	RESPONSE	n/a	n/a	n/a	n/a	n/a	n/a	n/a	red
267.2863	1.0167	ITI	n/a	n/a	n/a	n/a	n/a	n/a	n/a	n/a
268.303	0.5167	FIXCROSS	n/a	n/a	n/a	n/a	n/a	n/a	n/a	n/a
268.8197	0.6	COLOR_NAME	10	Incongruent	żółty	yellow	zielony	green	hit	n/a
269.3903	n/a	RESPONSE	n/a	n/a	n/a	n/a	n/a	n/a	n/a	yellow
269.4197	1.0167	ITI	n/a	n/a	n/a	n/a	n/a	n/a	n/a	n/a
270.4364	0.5167	FIXCROSS	n/a	n/a	n/a	n/a	n/a	n/a	n/a	n/a
270.9531	0.5166	COLOR_NAME	11	Incongruent	niebieski	blue	zielony	green	hit	n/a
271.4379	n/a	RESPONSE	n/a	n/a	n/a	n/a	n/a	n/a	n/a	blue
271.4697	1.0167	ITI	n/a	n/a	n/a	n/a	n/a	n/a	n/a	n/a
272.4864	0.5167	FIXCROSS	n/a	n/a	n/a	n/a	n/a	n/a	n/a	n/a
273.0031	0.5333	COLOR_NAME	12	Neutral	zielony	green	Neutral	Neutral	hit	n/a
273.5173	n/a	RESPONSE	n/a	n/a	n/a	n/a	n/a	n/a	n/a	green
273.5364	1.0167	ITI	n/a	n/a	n/a	n/a	n/a	n/a	n/a	n/a
274.5531	0.5167	FIXCROSS	n/a	n/a	n/a	n/a	n/a	n/a	n/a	n/a
275.0698	0.65	COLOR_NAME	13	Incongruent	żółty	yellow	niebieski	blue	hit	n/a
275.6928	n/a	RESPONSE	n/a	n/a	n/a	n/a	n/a	n/a	n/a	yellow
275.7198	1.0167	ITI	n/a	n/a	n/a	n/a	n/a	n/a	n/a	n/a
276.7364	0.5167	FIXCROSS	n/a	n/a	n/a	n/a	n/a	n/a	n/a	n/a
277.2531	0.45	COLOR_NAME	14	Incongruent	czerwony	red	żółty	yellow	hit	n/a
277.6763	n/a	RESPONSE	n/a	n/a	n/a	n/a	n/a	n/a	n/a	red
277.7031	1.0167	ITI	n/a	n/a	n/a	n/a	n/a	n/a	n/a	n/a
278.7198	0.5167	FIXCROSS	n/a	n/a	n/a	n/a	n/a	n/a	n/a	n/a
279.2365	0.6	COLOR_NAME	15	Incongruent	żółty	yellow	czerwony	red	hit	n/a
279.8038	n/a	RESPONSE	n/a	n/a	n/a	n/a	n/a	n/a	n/a	yellow
279.8365	1.0167	ITI	n/a	n/a	n/a	n/a	n/a	n/a	n/a	n/a
280.8531	0.5167	FIXCROSS	n/a	n/a	n/a	n/a	n/a	n/a	n/a	n/a
281.3698	0.4833	COLOR_NAME	16	Incongruent	czerwony	red	żółty	yellow	hit	n/a
281.8353	n/a	RESPONSE	n/a	n/a	n/a	n/a	n/a	n/a	n/a	red
281.8532	1.0167	ITI	n/a	n/a	n/a	n/a	n/a	n/a	n/a	n/a
282.8698	0.5167	FIXCROSS	n/a	n/a	n/a	n/a	n/a	n/a	n/a	n/a
283.3865	0.7	COLOR_NAME	17	Neutral	niebieski	blue	Neutral	Neutral	hit	n/a
284.0587	n/a	RESPONSE	n/a	n/a	n/a	n/a	n/a	n/a	n/a	blue
284.0865	1.0167	ITI	n/a	n/a	n/a	n/a	n/a	n/a	n/a	n/a
285.1032	0.5167	FIXCROSS	n/a	n/a	n/a	n/a	n/a	n/a	n/a	n/a
285.6199	0.7333	COLOR_NAME	18	Neutral	żółty	yellow	Neutral	Neutral	hit	n/a
286.3302	n/a	RESPONSE	n/a	n/a	n/a	n/a	n/a	n/a	n/a	yellow
286.3532	1.0167	ITI	n/a	n/a	n/a	n/a	n/a	n/a	n/a	n/a
287.3699	0.5167	FIXCROSS	n/a	n/a	n/a	n/a	n/a	n/a	n/a	n/a
287.8866	0.55	COLOR_NAME	19	Incongruent	żółty	yellow	zielony	green	hit	n/a
288.4097	n/a	RESPONSE	n/a	n/a	n/a	n/a	n/a	n/a	n/a	yellow
288.4366	1.0167	ITI	n/a	n/a	n/a	n/a	n/a	n/a	n/a	n/a
289.4532	0.5167	FIXCROSS	n/a	n/a	n/a	n/a	n/a	n/a	n/a	n/a
289.9699	0.4833	COLOR_NAME	20	Incongruent	niebieski	blue	żółty	yellow	hit	n/a
290.4252	n/a	RESPONSE	n/a	n/a	n/a	n/a	n/a	n/a	n/a	blue
290.4533	1.0167	ITI	n/a	n/a	n/a	n/a	n/a	n/a	n/a	n/a
291.4699	0.5167	FIXCROSS	n/a	n/a	n/a	n/a	n/a	n/a	n/a	n/a
291.9866	0.65	COLOR_NAME	21	Incongruent	zielony	green	żółty	yellow	hit	n/a
292.6167	n/a	RESPONSE	n/a	n/a	n/a	n/a	n/a	n/a	n/a	green
292.6366	1.0167	ITI	n/a	n/a	n/a	n/a	n/a	n/a	n/a	n/a
293.6533	0.5167	FIXCROSS	n/a	n/a	n/a	n/a	n/a	n/a	n/a	n/a
294.17	0.55	COLOR_NAME	22	Neutral	żółty	yellow	Neutral	Neutral	hit	n/a
294.6962	n/a	RESPONSE	n/a	n/a	n/a	n/a	n/a	n/a	n/a	yellow
294.72	1.0167	ITI	n/a	n/a	n/a	n/a	n/a	n/a	n/a	n/a
295.7366	0.5167	FIXCROSS	n/a	n/a	n/a	n/a	n/a	n/a	n/a	n/a
296.2533	0.5667	COLOR_NAME	23	Neutral	zielony	green	Neutral	Neutral	hit	n/a
296.7871	n/a	RESPONSE	n/a	n/a	n/a	n/a	n/a	n/a	n/a	green
296.82	1.0167	ITI	n/a	n/a	n/a	n/a	n/a	n/a	n/a	n/a
297.8367	0.5167	FIXCROSS	n/a	n/a	n/a	n/a	n/a	n/a	n/a	n/a
298.3533	0.8667	COLOR_NAME	24	Neutral	zielony	green	Neutral	Neutral	hit	n/a
299.191	n/a	RESPONSE	n/a	n/a	n/a	n/a	n/a	n/a	n/a	green
299.22	1.0167	ITI	n/a	n/a	n/a	n/a	n/a	n/a	n/a	n/a
300.2367	0.5167	FIXCROSS	n/a	n/a	n/a	n/a	n/a	n/a	n/a	n/a
300.7534	0.4333	COLOR_NAME	25	Incongruent	zielony	green	żółty	yellow	hit	n/a
301.1586	n/a	RESPONSE	n/a	n/a	n/a	n/a	n/a	n/a	n/a	green
301.1867	1.0167	ITI	n/a	n/a	n/a	n/a	n/a	n/a	n/a	n/a
302.2034	0.5167	FIXCROSS	n/a	n/a	n/a	n/a	n/a	n/a	n/a	n/a
302.7201	0.4	COLOR_NAME	26	Incongruent	zielony	green	niebieski	blue	hit	n/a
303.0941	n/a	RESPONSE	n/a	n/a	n/a	n/a	n/a	n/a	n/a	green
303.1201	1.0167	ITI	n/a	n/a	n/a	n/a	n/a	n/a	n/a	n/a
304.1367	0.5167	FIXCROSS	n/a	n/a	n/a	n/a	n/a	n/a	n/a	n/a
304.6534	0.6834	COLOR_NAME	27	Neutral	czerwony	red	Neutral	Neutral	hit	n/a
305.3176	n/a	RESPONSE	n/a	n/a	n/a	n/a	n/a	n/a	n/a	red
305.3368	1.0167	ITI	n/a	n/a	n/a	n/a	n/a	n/a	n/a	n/a
306.3534	0.5167	FIXCROSS	n/a	n/a	n/a	n/a	n/a	n/a	n/a	n/a
306.8701	0.6	COLOR_NAME	28	Incongruent	niebieski	blue	czerwony	red	hit	n/a
307.445	n/a	RESPONSE	n/a	n/a	n/a	n/a	n/a	n/a	n/a	blue
307.4701	1.0167	ITI	n/a	n/a	n/a	n/a	n/a	n/a	n/a	n/a
308.4868	0.5167	FIXCROSS	n/a	n/a	n/a	n/a	n/a	n/a	n/a	n/a
309.0035	0.65	COLOR_NAME	29	Incongruent	żółty	yellow	czerwony	red	hit	n/a
309.6205	n/a	RESPONSE	n/a	n/a	n/a	n/a	n/a	n/a	n/a	yellow
309.6535	1.0167	ITI	n/a	n/a	n/a	n/a	n/a	n/a	n/a	n/a
310.6702	0.5167	FIXCROSS	n/a	n/a	n/a	n/a	n/a	n/a	n/a	n/a
311.1868	1.5944	COLOR_NAME	30	Incongruent	czerwony	red	niebieski	blue	hit	n/a
312.7557	n/a	RESPONSE	n/a	n/a	n/a	n/a	n/a	n/a	n/a	red
312.7813	1.0223	ITI	n/a	n/a	n/a	n/a	n/a	n/a	n/a	n/a
313.8035	0.5167	FIXCROSS	n/a	n/a	n/a	n/a	n/a	n/a	n/a	n/a
314.3202	1.1667	COLOR_NAME	31	Incongruent	żółty	yellow	niebieski	blue	hit	n/a
315.4591	n/a	RESPONSE	n/a	n/a	n/a	n/a	n/a	n/a	n/a	yellow
315.4869	1.0167	ITI	n/a	n/a	n/a	n/a	n/a	n/a	n/a	n/a
316.5035	0.5167	FIXCROSS	n/a	n/a	n/a	n/a	n/a	n/a	n/a	n/a
317.0202	0.4667	COLOR_NAME	32	Neutral	żółty	yellow	Neutral	Neutral	hit	n/a
317.4586	n/a	RESPONSE	n/a	n/a	n/a	n/a	n/a	n/a	n/a	yellow
317.4869	1.0167	ITI	n/a	n/a	n/a	n/a	n/a	n/a	n/a	n/a
318.5036	0.5167	FIXCROSS	n/a	n/a	n/a	n/a	n/a	n/a	n/a	n/a
319.0202	0.85	COLOR_NAME	33	Incongruent	czerwony	red	zielony	green	hit	n/a
319.842	n/a	RESPONSE	n/a	n/a	n/a	n/a	n/a	n/a	n/a	red
319.8703	1.0167	ITI	n/a	n/a	n/a	n/a	n/a	n/a	n/a	n/a
320.8869	0.5167	FIXCROSS	n/a	n/a	n/a	n/a	n/a	n/a	n/a	n/a
321.4036	0.4667	COLOR_NAME	34	Incongruent	czerwony	red	niebieski	blue	hit	n/a
321.8415	n/a	RESPONSE	n/a	n/a	n/a	n/a	n/a	n/a	n/a	red
321.8703	1.0167	ITI	n/a	n/a	n/a	n/a	n/a	n/a	n/a	n/a
322.887	0.5167	FIXCROSS	n/a	n/a	n/a	n/a	n/a	n/a	n/a	n/a
323.4036	0.6667	COLOR_NAME	35	Neutral	żółty	yellow	Neutral	Neutral	hit	n/a
324.049	n/a	RESPONSE	n/a	n/a	n/a	n/a	n/a	n/a	n/a	yellow
324.0703	1.0167	ITI	n/a	n/a	n/a	n/a	n/a	n/a	n/a	n/a
325.087	0.5167	FIXCROSS	n/a	n/a	n/a	n/a	n/a	n/a	n/a	n/a
325.6037	0.4333	COLOR_NAME	36	Incongruent	żółty	yellow	czerwony	red	hit	n/a
326.0165	n/a	RESPONSE	n/a	n/a	n/a	n/a	n/a	n/a	n/a	yellow
326.037	1.0167	ITI	n/a	n/a	n/a	n/a	n/a	n/a	n/a	n/a
327.0537	0.5167	FIXCROSS	n/a	n/a	n/a	n/a	n/a	n/a	n/a	n/a
327.5703	0.7	COLOR_NAME	37	Neutral	czerwony	red	Neutral	Neutral	hit	n/a
328.24	n/a	RESPONSE	n/a	n/a	n/a	n/a	n/a	n/a	n/a	red
328.2704	1.0167	ITI	n/a	n/a	n/a	n/a	n/a	n/a	n/a	n/a
329.287	0.5167	FIXCROSS	n/a	n/a	n/a	n/a	n/a	n/a	n/a	n/a
329.8037	0.7667	COLOR_NAME	38	Neutral	zielony	green	Neutral	Neutral	hit	n/a
330.5434	n/a	RESPONSE	n/a	n/a	n/a	n/a	n/a	n/a	n/a	green
330.5704	1.0167	ITI	n/a	n/a	n/a	n/a	n/a	n/a	n/a	n/a
331.587	0.5167	FIXCROSS	n/a	n/a	n/a	n/a	n/a	n/a	n/a	n/a
332.1037	0.6333	COLOR_NAME	39	Neutral	czerwony	red	Neutral	Neutral	hit	n/a
332.7189	n/a	RESPONSE	n/a	n/a	n/a	n/a	n/a	n/a	n/a	red
332.7371	1.0167	ITI	n/a	n/a	n/a	n/a	n/a	n/a	n/a	n/a
333.7537	0.5167	FIXCROSS	n/a	n/a	n/a	n/a	n/a	n/a	n/a	n/a
334.2704	0.5333	COLOR_NAME	40	Neutral	niebieski	blue	Neutral	Neutral	hit	n/a
334.7824	n/a	RESPONSE	n/a	n/a	n/a	n/a	n/a	n/a	n/a	blue
334.8038	1.0167	ITI	n/a	n/a	n/a	n/a	n/a	n/a	n/a	n/a
335.8204	0.5167	FIXCROSS	n/a	n/a	n/a	n/a	n/a	n/a	n/a	n/a
336.3371	0.5833	COLOR_NAME	41	Neutral	czerwony	red	Neutral	Neutral	hit	n/a
336.8938	n/a	RESPONSE	n/a	n/a	n/a	n/a	n/a	n/a	n/a	red
336.9204	1.0167	ITI	n/a	n/a	n/a	n/a	n/a	n/a	n/a	n/a
337.9371	0.5167	FIXCROSS	n/a	n/a	n/a	n/a	n/a	n/a	n/a	n/a
338.4538	0.5167	COLOR_NAME	42	Incongruent	niebieski	blue	żółty	yellow	hit	n/a
338.9413	n/a	RESPONSE	n/a	n/a	n/a	n/a	n/a	n/a	n/a	blue
338.9705	1.0167	ITI	n/a	n/a	n/a	n/a	n/a	n/a	n/a	n/a
339.9871	0.5167	FIXCROSS	n/a	n/a	n/a	n/a	n/a	n/a	n/a	n/a
340.5038	0.45	COLOR_NAME	43	Incongruent	zielony	green	niebieski	blue	hit	n/a
340.9249	n/a	RESPONSE	n/a	n/a	n/a	n/a	n/a	n/a	n/a	green
340.9538	1.0167	ITI	n/a	n/a	n/a	n/a	n/a	n/a	n/a	n/a
341.9705	0.5167	FIXCROSS	n/a	n/a	n/a	n/a	n/a	n/a	n/a	n/a
342.4872	0.6167	COLOR_NAME	44	Neutral	niebieski	blue	Neutral	Neutral	hit	n/a
343.0843	n/a	RESPONSE	n/a	n/a	n/a	n/a	n/a	n/a	n/a	blue
343.1038	1.0167	ITI	n/a	n/a	n/a	n/a	n/a	n/a	n/a	n/a
344.1205	0.5167	FIXCROSS	n/a	n/a	n/a	n/a	n/a	n/a	n/a	n/a
344.6372	0.6333	COLOR_NAME	45	Incongruent	żółty	yellow	niebieski	blue	hit	n/a
345.2438	n/a	RESPONSE	n/a	n/a	n/a	n/a	n/a	n/a	n/a	yellow
345.2705	1.0167	ITI	n/a	n/a	n/a	n/a	n/a	n/a	n/a	n/a
346.2872	0.5167	FIXCROSS	n/a	n/a	n/a	n/a	n/a	n/a	n/a	n/a
346.8039	0.4167	COLOR_NAME	46	Neutral	czerwony	red	Neutral	Neutral	hit	n/a
347.1953	n/a	RESPONSE	n/a	n/a	n/a	n/a	n/a	n/a	n/a	red
347.2206	1.0167	ITI	n/a	n/a	n/a	n/a	n/a	n/a	n/a	n/a
348.2372	0.5167	FIXCROSS	n/a	n/a	n/a	n/a	n/a	n/a	n/a	n/a
348.7539	0.65	COLOR_NAME	47	Neutral	zielony	green	Neutral	Neutral	hit	n/a
349.3708	n/a	RESPONSE	n/a	n/a	n/a	n/a	n/a	n/a	n/a	green
349.4039	1.0167	ITI	n/a	n/a	n/a	n/a	n/a	n/a	n/a	n/a
350.4206	0.5167	FIXCROSS	n/a	n/a	n/a	n/a	n/a	n/a	n/a	n/a
350.9373	0.65	COLOR_NAME	48	Neutral	niebieski	blue	Neutral	Neutral	hit	n/a
351.5623	n/a	RESPONSE	n/a	n/a	n/a	n/a	n/a	n/a	n/a	blue
351.5873	1.0167	ITI	n/a	n/a	n/a	n/a	n/a	n/a	n/a	n/a
352.604	0.5167	FIXCROSS	n/a	n/a	n/a	n/a	n/a	n/a	n/a	n/a
353.1206	0.6	COLOR_NAME	49	Incongruent	niebieski	blue	zielony	green	hit	n/a
353.6898	n/a	RESPONSE	n/a	n/a	n/a	n/a	n/a	n/a	n/a	blue
353.7206	1.0167	ITI	n/a	n/a	n/a	n/a	n/a	n/a	n/a	n/a
354.7373	0.5167	FIXCROSS	n/a	n/a	n/a	n/a	n/a	n/a	n/a	n/a
355.254	0.5833	COLOR_NAME	50	Incongruent	czerwony	red	zielony	green	hit	n/a
355.8172	n/a	RESPONSE	n/a	n/a	n/a	n/a	n/a	n/a	n/a	red
355.8373	1.0167	ITI	n/a	n/a	n/a	n/a	n/a	n/a	n/a	n/a
356.854	0.5167	FIXCROSS	n/a	n/a	n/a	n/a	n/a	n/a	n/a	n/a
357.3707	0.6333	COLOR_NAME	51	Incongruent	zielony	green	niebieski	blue	hit	n/a
357.9767	n/a	RESPONSE	n/a	n/a	n/a	n/a	n/a	n/a	n/a	green
358.004	1.0167	ITI	n/a	n/a	n/a	n/a	n/a	n/a	n/a	n/a
359.0207	0.5167	FIXCROSS	n/a	n/a	n/a	n/a	n/a	n/a	n/a	n/a
359.5374	0.6167	COLOR_NAME	52	Neutral	niebieski	blue	Neutral	Neutral	hit	n/a
360.1362	n/a	RESPONSE	n/a	n/a	n/a	n/a	n/a	n/a	n/a	blue
360.154	1.0167	ITI	n/a	n/a	n/a	n/a	n/a	n/a	n/a	n/a
361.1707	0.5167	FIXCROSS	n/a	n/a	n/a	n/a	n/a	n/a	n/a	n/a
361.6874	1.0	COLOR_NAME	53	Neutral	niebieski	blue	Neutral	Neutral	hit	n/a
362.6636	n/a	RESPONSE	n/a	n/a	n/a	n/a	n/a	n/a	n/a	blue
362.6874	1.0167	ITI	n/a	n/a	n/a	n/a	n/a	n/a	n/a	n/a
363.7041	0.5167	FIXCROSS	n/a	n/a	n/a	n/a	n/a	n/a	n/a	n/a
364.2207	0.5667	COLOR_NAME	54	Incongruent	zielony	green	czerwony	red	hit	n/a
364.759	n/a	RESPONSE	n/a	n/a	n/a	n/a	n/a	n/a	n/a	green
364.7874	1.0167	ITI	n/a	n/a	n/a	n/a	n/a	n/a	n/a	n/a
365.8041	0.5167	FIXCROSS	n/a	n/a	n/a	n/a	n/a	n/a	n/a	n/a
366.3208	0.4667	COLOR_NAME	55	Incongruent	zielony	green	czerwony	red	hit	n/a
366.7586	n/a	RESPONSE	n/a	n/a	n/a	n/a	n/a	n/a	n/a	green
366.7874	1.0167	ITI	n/a	n/a	n/a	n/a	n/a	n/a	n/a	n/a
367.8041	0.5167	FIXCROSS	n/a	n/a	n/a	n/a	n/a	n/a	n/a	n/a
368.3208	0.6333	COLOR_NAME	56	Incongruent	czerwony	red	niebieski	blue	hit	n/a
368.9341	n/a	RESPONSE	n/a	n/a	n/a	n/a	n/a	n/a	n/a	red
368.9541	1.0167	ITI	n/a	n/a	n/a	n/a	n/a	n/a	n/a	n/a
369.9708	0.5167	FIXCROSS	n/a	n/a	n/a	n/a	n/a	n/a	n/a	n/a
370.4875	0.6667	COLOR_NAME	57	Neutral	żółty	yellow	Neutral	Neutral	hit	n/a
371.1255	n/a	RESPONSE	n/a	n/a	n/a	n/a	n/a	n/a	n/a	yellow
371.1542	1.0167	ITI	n/a	n/a	n/a	n/a	n/a	n/a	n/a	n/a
372.1708	0.5167	FIXCROSS	n/a	n/a	n/a	n/a	n/a	n/a	n/a	n/a
372.6875	0.6167	COLOR_NAME	58	Incongruent	niebieski	blue	czerwony	red	hit	n/a
373.2851	n/a	RESPONSE	n/a	n/a	n/a	n/a	n/a	n/a	n/a	blue
373.3042	1.0167	ITI	n/a	n/a	n/a	n/a	n/a	n/a	n/a	n/a
374.3209	0.5167	FIXCROSS	n/a	n/a	n/a	n/a	n/a	n/a	n/a	n/a
374.8375	0.6667	COLOR_NAME	59	Neutral	żółty	yellow	Neutral	Neutral	hit	n/a
375.4764	n/a	RESPONSE	n/a	n/a	n/a	n/a	n/a	n/a	n/a	yellow
375.5042	1.0167	ITI	n/a	n/a	n/a	n/a	n/a	n/a	n/a	n/a
376.5209	0.5167	FIXCROSS	n/a	n/a	n/a	n/a	n/a	n/a	n/a	n/a
377.0376	0.6	COLOR_NAME	60	Neutral	zielony	green	Neutral	Neutral	hit	n/a
377.6039	n/a	RESPONSE	n/a	n/a	n/a	n/a	n/a	n/a	n/a	green
377.6376	1.0167	ITI	n/a	n/a	n/a	n/a	n/a	n/a	n/a	n/a
378.6542	0.5167	FIXCROSS	n/a	n/a	n/a	n/a	n/a	n/a	n/a	n/a
379.1709	0.6667	COLOR_NAME	61	Incongruent	czerwony	red	zielony	green	hit	n/a
379.8114	n/a	RESPONSE	n/a	n/a	n/a	n/a	n/a	n/a	n/a	red
379.8376	1.0167	ITI	n/a	n/a	n/a	n/a	n/a	n/a	n/a	n/a
380.8543	0.5167	FIXCROSS	n/a	n/a	n/a	n/a	n/a	n/a	n/a	n/a
381.3709	0.5667	COLOR_NAME	62	Incongruent	niebieski	blue	żółty	yellow	hit	n/a
381.9069	n/a	RESPONSE	n/a	n/a	n/a	n/a	n/a	n/a	n/a	blue
381.9376	1.0167	ITI	n/a	n/a	n/a	n/a	n/a	n/a	n/a	n/a
382.9543	0.5167	FIXCROSS	n/a	n/a	n/a	n/a	n/a	n/a	n/a	n/a
383.471	0.5333	COLOR_NAME	63	Neutral	żółty	yellow	Neutral	Neutral	hit	n/a
383.9864	n/a	RESPONSE	n/a	n/a	n/a	n/a	n/a	n/a	n/a	yellow
384.0043	1.0167	ITI	n/a	n/a	n/a	n/a	n/a	n/a	n/a	n/a
385.021	0.5167	FIXCROSS	n/a	n/a	n/a	n/a	n/a	n/a	n/a	n/a
385.5376	0.4333	COLOR_NAME	64	Incongruent	niebieski	blue	zielony	green	hit	n/a
385.938	n/a	RESPONSE	n/a	n/a	n/a	n/a	n/a	n/a	n/a	blue
385.971	1.0167	ITI	n/a	n/a	n/a	n/a	n/a	n/a	n/a	n/a
386.9877	0.5167	FIXCROSS	n/a	n/a	n/a	n/a	n/a	n/a	n/a	n/a
387.5043	0.9833	COLOR_NAME	65	Neutral	żółty	yellow	Neutral	Neutral	hit	n/a
388.4653	n/a	RESPONSE	n/a	n/a	n/a	n/a	n/a	n/a	n/a	yellow
388.4877	1.0167	ITI	n/a	n/a	n/a	n/a	n/a	n/a	n/a	n/a
389.5044	0.5167	FIXCROSS	n/a	n/a	n/a	n/a	n/a	n/a	n/a	n/a
390.021	0.6	COLOR_NAME	66	Neutral	czerwony	red	Neutral	Neutral	incorrect	n/a
390.5928	n/a	RESPONSE	n/a	n/a	n/a	n/a	n/a	n/a	n/a	blue
390.621	1.0167	ITI	n/a	n/a	n/a	n/a	n/a	n/a	n/a	n/a
391.6377	0.5167	FIXCROSS	n/a	n/a	n/a	n/a	n/a	n/a	n/a	n/a
392.1544	0.55	COLOR_NAME	67	Neutral	niebieski	blue	Neutral	Neutral	hit	n/a
392.6722	n/a	RESPONSE	n/a	n/a	n/a	n/a	n/a	n/a	n/a	blue
392.7044	1.0167	ITI	n/a	n/a	n/a	n/a	n/a	n/a	n/a	n/a
393.7211	0.5167	FIXCROSS	n/a	n/a	n/a	n/a	n/a	n/a	n/a	n/a
394.2378	0.5	COLOR_NAME	68	Neutral	zielony	green	Neutral	Neutral	hit	n/a
394.7198	n/a	RESPONSE	n/a	n/a	n/a	n/a	n/a	n/a	n/a	green
394.7377	1.0167	ITI	n/a	n/a	n/a	n/a	n/a	n/a	n/a	n/a
395.7544	0.5167	FIXCROSS	n/a	n/a	n/a	n/a	n/a	n/a	n/a	n/a
396.2711	0.5834	COLOR_NAME	69	Neutral	żółty	yellow	Neutral	Neutral	hit	n/a
396.8313	n/a	RESPONSE	n/a	n/a	n/a	n/a	n/a	n/a	n/a	yellow
396.8544	1.0167	ITI	n/a	n/a	n/a	n/a	n/a	n/a	n/a	n/a
397.8711	0.5167	FIXCROSS	n/a	n/a	n/a	n/a	n/a	n/a	n/a	n/a
398.3878	0.7833	COLOR_NAME	70	Incongruent	zielony	green	żółty	yellow	hit	n/a
399.1507	n/a	RESPONSE	n/a	n/a	n/a	n/a	n/a	n/a	n/a	green
399.1711	1.0167	ITI	n/a	n/a	n/a	n/a	n/a	n/a	n/a	n/a
400.1878	0.5167	FIXCROSS	n/a	n/a	n/a	n/a	n/a	n/a	n/a	n/a
400.7045	0.5667	COLOR_NAME	71	Neutral	zielony	green	Neutral	Neutral	hit	n/a
401.2462	n/a	RESPONSE	n/a	n/a	n/a	n/a	n/a	n/a	n/a	green
401.2712	1.0167	ITI	n/a	n/a	n/a	n/a	n/a	n/a	n/a	n/a
402.2878	0.5167	FIXCROSS	n/a	n/a	n/a	n/a	n/a	n/a	n/a	n/a
402.8045	0.6167	COLOR_NAME	72	Incongruent	czerwony	red	żółty	yellow	hit	n/a
403.3897	n/a	RESPONSE	n/a	n/a	n/a	n/a	n/a	n/a	n/a	red
403.4212	1.0333	ITI	n/a	n/a	n/a	n/a	n/a	n/a	n/a	n/a
407.2767	n/a	RESPONSE	n/a	n/a	n/a	n/a	n/a	n/a	n/a	n/a
