onset	duration	trial_type	braille_stimulus	targets	response_count
2.016	2.008	CUE_6_DOT	n/a	n/a	n/a
7.016	1.008	FIXCROSS	n/a	n/a	n/a
8.032	5.008	6_DOT_DETECTION	ETMMP	0	n/a
13.066	1.008	FIXCROSS	n/a	n/a	n/a
14.082	5.008	6_DOT_DETECTION	#MAM#	2	n/a
15.903	n/a	RESPONSE	n/a	n/a	1/2
18.439	n/a	RESPONSE	n/a	n/a	2/2
19.116	1.008	FIXCROSS	n/a	n/a	n/a
20.132	5.009	6_DOT_DETECTION	#MUEI	1	n/a
21.567	n/a	RESPONSE	n/a	n/a	1/1
25.166	1.008	FIXCROSS	n/a	n/a	n/a
26.182	5.008	6_DOT_DETECTION	#ODY#	2	n/a
27.658	n/a	RESPONSE	n/a	n/a	1/2
31.216	1.008	FIXCROSS	n/a	n/a	n/a
32.232	5.008	6_DOT_DETECTION	L#OPP	1	n/a
34.757	n/a	RESPONSE	n/a	n/a	1/1
37.266	1.008	FIXCROSS	n/a	n/a	n/a
38.282	5.008	6_DOT_DETECTION	EESLŁ	0	n/a
43.316	1.008	FIXCROSS	n/a	n/a	n/a
44.332	5.008	6_DOT_DETECTION	TLE#A	1	n/a
46.928	n/a	RESPONSE	n/a	n/a	1/1
49.366	1.008	FIXCROSS	n/a	n/a	n/a
50.382	5.008	6_DOT_DETECTION	MIT##	2	n/a
53.268	n/a	RESPONSE	n/a	n/a	1/2
54.754	n/a	RESPONSE	n/a	n/a	2/2
57.424	2.008	CUE_REST	n/a	n/a	n/a
62.424	1.008	FIXCROSS	n/a	n/a	n/a
68.474	1.008	FIXCROSS	n/a	n/a	n/a
75.532	2.008	CUE_6_DOT	n/a	n/a	n/a
80.532	1.008	FIXCROSS	n/a	n/a	n/a
81.549	5.008	6_DOT_DETECTION	O#CLC	1	n/a
83.404	n/a	RESPONSE	n/a	n/a	1/1
86.582	1.008	FIXCROSS	n/a	n/a	n/a
87.599	5.008	6_DOT_DETECTION	CPCPO	0	n/a
92.632	1.008	FIXCROSS	n/a	n/a	n/a
93.649	5.008	6_DOT_DETECTION	CDYCS	0	n/a
97.118	n/a	RESPONSE	n/a	n/a	1/0
98.682	1.008	FIXCROSS	n/a	n/a	n/a
99.699	5.008	6_DOT_DETECTION	#MAT#	2	n/a
101.258	n/a	RESPONSE	n/a	n/a	1/2
103.946	n/a	RESPONSE	n/a	n/a	2/2
104.733	1.008	FIXCROSS	n/a	n/a	n/a
105.749	5.008	6_DOT_DETECTION	ASA#S	1	n/a
108.724	n/a	RESPONSE	n/a	n/a	1/1
110.783	1.008	FIXCROSS	n/a	n/a	n/a
111.799	5.008	6_DOT_DETECTION	D#DOM	1	n/a
113.534	n/a	RESPONSE	n/a	n/a	1/1
116.833	1.008	FIXCROSS	n/a	n/a	n/a
117.849	5.009	6_DOT_DETECTION	#BYT#	2	n/a
118.806	n/a	RESPONSE	n/a	n/a	1/2
121.989	n/a	RESPONSE	n/a	n/a	2/2
122.883	1.008	FIXCROSS	n/a	n/a	n/a
123.899	5.008	6_DOT_DETECTION	B#KOS	1	n/a
125.378	n/a	RESPONSE	n/a	n/a	1/1
130.441	2.008	CUE_REST	n/a	n/a	n/a
136.941	1.008	FIXCROSS	n/a	n/a	n/a
142.991	1.008	FIXCROSS	n/a	n/a	n/a
150.549	2.008	CUE_6_DOT	n/a	n/a	n/a
157.049	1.008	FIXCROSS	n/a	n/a	n/a
158.065	5.009	6_DOT_DETECTION	KEBI#	1	n/a
161.483	n/a	RESPONSE	n/a	n/a	1/1
163.099	1.008	FIXCROSS	n/a	n/a	n/a
164.116	5.008	6_DOT_DETECTION	OSI##	2	n/a
167.188	n/a	RESPONSE	n/a	n/a	1/2
168.587	n/a	RESPONSE	n/a	n/a	2/2
169.149	1.008	FIXCROSS	n/a	n/a	n/a
170.166	5.008	6_DOT_DETECTION	ŁIOOI	0	n/a
175.199	1.008	FIXCROSS	n/a	n/a	n/a
176.216	5.008	6_DOT_DETECTION	YOIUC	0	n/a
181.249	1.008	FIXCROSS	n/a	n/a	n/a
182.266	5.009	6_DOT_DETECTION	YMEKP	0	n/a
184.164	n/a	RESPONSE	n/a	n/a	1/0
187.299	1.008	FIXCROSS	n/a	n/a	n/a
188.316	5.009	6_DOT_DETECTION	LOS#O	1	n/a
191.812	n/a	RESPONSE	n/a	n/a	1/1
193.349	1.008	FIXCROSS	n/a	n/a	n/a
194.366	5.008	6_DOT_DETECTION	##ILU	2	n/a
195.893	n/a	RESPONSE	n/a	n/a	1/2
199.399	1.008	FIXCROSS	n/a	n/a	n/a
200.416	5.008	6_DOT_DETECTION	PLLIU	0	n/a
206.958	2.008	CUE_REST	n/a	n/a	n/a
211.458	1.008	FIXCROSS	n/a	n/a	n/a
217.508	1.008	FIXCROSS	n/a	n/a	n/a
225.566	2.008	CUE_6_DOT	n/a	n/a	n/a
231.566	1.008	FIXCROSS	n/a	n/a	n/a
232.583	5.008	6_DOT_DETECTION	Ł#TYM	1	n/a
234.733	n/a	RESPONSE	n/a	n/a	1/1
237.616	1.008	FIXCROSS	n/a	n/a	n/a
238.633	5.008	6_DOT_DETECTION	KOŁ#Y	1	n/a
242.043	n/a	RESPONSE	n/a	n/a	1/1
243.666	1.008	FIXCROSS	n/a	n/a	n/a
243.752	n/a	RESPONSE	n/a	n/a	2/1
244.683	5.008	6_DOT_DETECTION	OYPTK	0	n/a
249.716	1.008	FIXCROSS	n/a	n/a	n/a
250.733	5.008	6_DOT_DETECTION	YSPIU	0	n/a
255.766	1.008	FIXCROSS	n/a	n/a	n/a
256.782	5.009	6_DOT_DETECTION	##CŁO	2	n/a
258.029	n/a	RESPONSE	n/a	n/a	1/2
259.458	n/a	RESPONSE	n/a	n/a	2/2
261.816	1.008	FIXCROSS	n/a	n/a	n/a
262.832	5.009	6_DOT_DETECTION	##ŁUT	2	n/a
263.864	n/a	RESPONSE	n/a	n/a	1/2
265.087	n/a	RESPONSE	n/a	n/a	2/2
267.866	1.008	FIXCROSS	n/a	n/a	n/a
268.882	5.009	6_DOT_DETECTION	#TŁO#	2	n/a
270.366	n/a	RESPONSE	n/a	n/a	1/2
273.141	n/a	RESPONSE	n/a	n/a	2/2
273.916	1.008	FIXCROSS	n/a	n/a	n/a
274.933	5.008	6_DOT_DETECTION	##ŁUP	2	n/a
276.294	n/a	RESPONSE	n/a	n/a	1/2
281.975	2.008	CUE_REST	n/a	n/a	n/a
285.975	1.008	FIXCROSS	n/a	n/a	n/a
292.025	1.008	FIXCROSS	n/a	n/a	n/a
299.583	2.008	CUE_6_DOT	n/a	n/a	n/a
305.083	1.008	FIXCROSS	n/a	n/a	n/a
306.1	5.008	6_DOT_DETECTION	TŁSDB	0	n/a
311.133	1.008	FIXCROSS	n/a	n/a	n/a
312.15	5.008	6_DOT_DETECTION	D#BYK	1	n/a
314.062	n/a	RESPONSE	n/a	n/a	1/1
317.183	1.008	FIXCROSS	n/a	n/a	n/a
318.2	5.008	6_DOT_DETECTION	AALC#	1	n/a
321.431	n/a	RESPONSE	n/a	n/a	1/1
323.233	1.008	FIXCROSS	n/a	n/a	n/a
324.25	5.008	6_DOT_DETECTION	LB#AA	1	n/a
326.491	n/a	RESPONSE	n/a	n/a	1/1
329.283	1.008	FIXCROSS	n/a	n/a	n/a
330.299	5.009	6_DOT_DETECTION	BUK##	2	n/a
333.006	n/a	RESPONSE	n/a	n/a	1/2
334.285	n/a	RESPONSE	n/a	n/a	2/2
335.333	1.008	FIXCROSS	n/a	n/a	n/a
336.35	5.008	6_DOT_DETECTION	##TIK	2	n/a
337.292	n/a	RESPONSE	n/a	n/a	1/2
341.383	1.008	FIXCROSS	n/a	n/a	n/a
342.4	5.008	6_DOT_DETECTION	CACLO	0	n/a
347.433	1.008	FIXCROSS	n/a	n/a	n/a
348.45	5.008	6_DOT_DETECTION	CACKD	0	n/a
354.491	2.008	CUE_REST	n/a	n/a	n/a
360.491	1.008	FIXCROSS	n/a	n/a	n/a
366.541	1.008	FIXCROSS	n/a	n/a	n/a
373.6	2.008	CUE_6_DOT	n/a	n/a	n/a
378.6	1.008	FIXCROSS	n/a	n/a	n/a
379.616	5.008	6_DOT_DETECTION	DYL#A	1	n/a
383.562	n/a	RESPONSE	n/a	n/a	1/1
384.65	1.008	FIXCROSS	n/a	n/a	n/a
385.666	5.008	6_DOT_DETECTION	KPDIA	0	n/a
390.7	1.008	FIXCROSS	n/a	n/a	n/a
391.716	5.008	6_DOT_DETECTION	EPEP#	1	n/a
395.212	n/a	RESPONSE	n/a	n/a	1/1
396.75	1.008	FIXCROSS	n/a	n/a	n/a
397.766	5.008	6_DOT_DETECTION	CUD##	2	n/a
401.986	n/a	RESPONSE	n/a	n/a	1/2
402.8	1.008	FIXCROSS	n/a	n/a	n/a
403.816	5.009	6_DOT_DETECTION	O#ŁKA	1	n/a
406.092	n/a	RESPONSE	n/a	n/a	1/1
408.85	1.008	FIXCROSS	n/a	n/a	n/a
409.866	5.009	6_DOT_DETECTION	MIL##	2	n/a
412.916	n/a	RESPONSE	n/a	n/a	1/2
414.178	n/a	RESPONSE	n/a	n/a	2/2
414.9	1.008	FIXCROSS	n/a	n/a	n/a
415.916	5.008	6_DOT_DETECTION	OMCKC	0	n/a
420.95	1.008	FIXCROSS	n/a	n/a	n/a
421.966	5.008	6_DOT_DETECTION	OOEET	0	n/a
428.008	2.008	CUE_REST	n/a	n/a	n/a
435.008	1.008	FIXCROSS	n/a	n/a	n/a
441.058	1.008	FIXCROSS	n/a	n/a	n/a
