onset	duration	trial_type	trial_number	stroop_condition	stim_text(PL)	stim_text(eng)	stim_color(PL)	stim_color(eng)	response_type	response_color
0.0	n/a	RESPONSE	n/a	n/a	n/a	n/a	n/a	n/a	n/a	n/a
0.0612	1.0333	ITI	n/a	n/a	n/a	n/a	n/a	n/a	n/a	n/a
1.0946	0.5167	FIXCROSS	n/a	n/a	n/a	n/a	n/a	n/a	n/a	n/a
1.6112	1.2	T_INK	1	Neutral	xxxxxxxxx	xxxxxxxxx	żółty	yellow	hit	n/a
2.7777	n/a	RESPONSE	n/a	n/a	n/a	n/a	n/a	n/a	n/a	yellow
2.8112	0.5167	FEEDBACK	n/a	n/a	n/a	n/a	n/a	n/a	n/a	n/a
3.3279	1.0167	ITI	n/a	n/a	n/a	n/a	n/a	n/a	n/a	n/a
4.3446	0.5167	FIXCROSS	n/a	n/a	n/a	n/a	n/a	n/a	n/a	n/a
4.8613	0.75	T_INK	2	Neutral	xxxxx	xxxxx	zielony	green	hit	n/a
5.5714	n/a	RESPONSE	n/a	n/a	n/a	n/a	n/a	n/a	n/a	green
5.6113	0.5167	FEEDBACK	n/a	n/a	n/a	n/a	n/a	n/a	n/a	n/a
6.1279	1.0167	ITI	n/a	n/a	n/a	n/a	n/a	n/a	n/a	n/a
7.1446	0.5167	FIXCROSS	n/a	n/a	n/a	n/a	n/a	n/a	n/a	n/a
7.6613	0.9	T_INK	3	Incongruent	żółty	yellow	niebieski	blue	hit	n/a
8.5246	n/a	RESPONSE	n/a	n/a	n/a	n/a	n/a	n/a	n/a	blue
8.5613	0.5167	FEEDBACK	n/a	n/a	n/a	n/a	n/a	n/a	n/a	n/a
9.078	1.0166	ITI	n/a	n/a	n/a	n/a	n/a	n/a	n/a	n/a
10.0946	0.5167	FIXCROSS	n/a	n/a	n/a	n/a	n/a	n/a	n/a	n/a
10.6113	0.7334	T_INK	4	Neutral	xxxxxxxx	xxxxxxxx	żółty	yellow	hit	n/a
11.3183	n/a	RESPONSE	n/a	n/a	n/a	n/a	n/a	n/a	n/a	yellow
11.3446	0.5167	FEEDBACK	n/a	n/a	n/a	n/a	n/a	n/a	n/a	n/a
11.8613	1.0167	ITI	n/a	n/a	n/a	n/a	n/a	n/a	n/a	n/a
12.878	0.5166	FIXCROSS	n/a	n/a	n/a	n/a	n/a	n/a	n/a	n/a
13.3946	0.5334	T_INK	5	Neutral	xxxxxxx	xxxxxxx	żółty	yellow	hit	n/a
13.9045	n/a	RESPONSE	n/a	n/a	n/a	n/a	n/a	n/a	n/a	yellow
13.928	0.5167	FEEDBACK	n/a	n/a	n/a	n/a	n/a	n/a	n/a	n/a
14.4447	1.0167	ITI	n/a	n/a	n/a	n/a	n/a	n/a	n/a	n/a
15.4613	0.5167	FIXCROSS	n/a	n/a	n/a	n/a	n/a	n/a	n/a	n/a
15.978	0.9667	T_INK	6	Incongruent	zielony	green	niebieski	blue	hit	n/a
16.9216	n/a	RESPONSE	n/a	n/a	n/a	n/a	n/a	n/a	n/a	blue
16.9447	0.5167	FEEDBACK	n/a	n/a	n/a	n/a	n/a	n/a	n/a	n/a
17.4614	1.0167	ITI	n/a	n/a	n/a	n/a	n/a	n/a	n/a	n/a
18.478	0.5167	FIXCROSS	n/a	n/a	n/a	n/a	n/a	n/a	n/a	n/a
18.9947	0.5	T_INK	7	Incongruent	niebieski	blue	czerwony	red	hit	n/a
19.4758	n/a	RESPONSE	n/a	n/a	n/a	n/a	n/a	n/a	n/a	red
19.4947	0.5167	FEEDBACK	n/a	n/a	n/a	n/a	n/a	n/a	n/a	n/a
20.0114	1.0167	ITI	n/a	n/a	n/a	n/a	n/a	n/a	n/a	n/a
21.0281	0.5167	FIXCROSS	n/a	n/a	n/a	n/a	n/a	n/a	n/a	n/a
21.5447	0.6	T_INK	8	Incongruent	zielony	green	żółty	yellow	hit	n/a
22.1258	n/a	RESPONSE	n/a	n/a	n/a	n/a	n/a	n/a	n/a	yellow
22.1447	0.5166	FEEDBACK	n/a	n/a	n/a	n/a	n/a	n/a	n/a	n/a
22.6614	1.0167	ITI	n/a	n/a	n/a	n/a	n/a	n/a	n/a	n/a
23.678	0.5167	FIXCROSS	n/a	n/a	n/a	n/a	n/a	n/a	n/a	n/a
24.1947	0.8333	T_INK	9	Incongruent	żółty	yellow	czerwony	red	hit	n/a
24.9993	n/a	RESPONSE	n/a	n/a	n/a	n/a	n/a	n/a	n/a	red
25.0281	0.5167	FEEDBACK	n/a	n/a	n/a	n/a	n/a	n/a	n/a	n/a
25.5448	1.0167	ITI	n/a	n/a	n/a	n/a	n/a	n/a	n/a	n/a
26.5614	0.5167	FIXCROSS	n/a	n/a	n/a	n/a	n/a	n/a	n/a	n/a
27.0781	0.5333	T_INK	10	Neutral	xxxxxxxxx	xxxxxxxxx	czerwony	red	hit	n/a
27.5855	n/a	RESPONSE	n/a	n/a	n/a	n/a	n/a	n/a	n/a	red
27.6114	0.5166	FEEDBACK	n/a	n/a	n/a	n/a	n/a	n/a	n/a	n/a
28.1281	1.0167	ITI	n/a	n/a	n/a	n/a	n/a	n/a	n/a	n/a
29.1448	0.5167	FIXCROSS	n/a	n/a	n/a	n/a	n/a	n/a	n/a	n/a
29.6614	0.5	T_INK	11	Incongruent	czerwony	red	żółty	yellow	hit	n/a
30.1397	n/a	RESPONSE	n/a	n/a	n/a	n/a	n/a	n/a	n/a	yellow
30.1615	0.5167	FEEDBACK	n/a	n/a	n/a	n/a	n/a	n/a	n/a	n/a
30.6781	1.0167	ITI	n/a	n/a	n/a	n/a	n/a	n/a	n/a	n/a
31.6948	0.5167	FIXCROSS	n/a	n/a	n/a	n/a	n/a	n/a	n/a	n/a
32.2115	0.8167	T_INK	12	Incongruent	żółty	yellow	zielony	green	hit	n/a
32.9972	n/a	RESPONSE	n/a	n/a	n/a	n/a	n/a	n/a	n/a	green
33.0281	0.5167	FEEDBACK	n/a	n/a	n/a	n/a	n/a	n/a	n/a	n/a
33.5448	1.0333	ITI	n/a	n/a	n/a	n/a	n/a	n/a	n/a	n/a
37.467	n/a	RESPONSE	n/a	n/a	n/a	n/a	n/a	n/a	n/a	n/a
37.5281	1.0167	ITI	n/a	n/a	n/a	n/a	n/a	n/a	n/a	n/a
38.5449	0.5166	FIXCROSS	n/a	n/a	n/a	n/a	n/a	n/a	n/a	n/a
39.0615	0.5834	INK	1	Incongruent	zielony	green	czerwony	red	hit	n/a
39.6222	n/a	RESPONSE	n/a	n/a	n/a	n/a	n/a	n/a	n/a	red
39.6449	1.0167	ITI	n/a	n/a	n/a	n/a	n/a	n/a	n/a	n/a
40.6615	0.5166	FIXCROSS	n/a	n/a	n/a	n/a	n/a	n/a	n/a	n/a
41.1782	0.6667	INK	2	Incongruent	żółty	yellow	zielony	green	hit	n/a
41.8252	n/a	RESPONSE	n/a	n/a	n/a	n/a	n/a	n/a	n/a	green
41.8449	1.0167	ITI	n/a	n/a	n/a	n/a	n/a	n/a	n/a	n/a
42.8616	0.5166	FIXCROSS	n/a	n/a	n/a	n/a	n/a	n/a	n/a	n/a
43.3782	0.4167	INK	3	Neutral	xxxxxxx	xxxxxxx	żółty	yellow	hit	n/a
43.7728	n/a	RESPONSE	n/a	n/a	n/a	n/a	n/a	n/a	n/a	yellow
43.7949	1.0166	ITI	n/a	n/a	n/a	n/a	n/a	n/a	n/a	n/a
44.8115	0.5167	FIXCROSS	n/a	n/a	n/a	n/a	n/a	n/a	n/a	n/a
45.3282	0.35	INK	4	Incongruent	zielony	green	niebieski	blue	hit	n/a
45.6565	n/a	RESPONSE	n/a	n/a	n/a	n/a	n/a	n/a	n/a	blue
45.6782	1.0167	ITI	n/a	n/a	n/a	n/a	n/a	n/a	n/a	n/a
46.6949	0.5166	FIXCROSS	n/a	n/a	n/a	n/a	n/a	n/a	n/a	n/a
47.2116	0.9334	INK	5	Neutral	xxxxx	xxxxx	zielony	green	hit	n/a
48.1148	n/a	RESPONSE	n/a	n/a	n/a	n/a	n/a	n/a	n/a	green
48.1449	1.0167	ITI	n/a	n/a	n/a	n/a	n/a	n/a	n/a	n/a
49.1616	0.5167	FIXCROSS	n/a	n/a	n/a	n/a	n/a	n/a	n/a	n/a
49.6783	0.5167	INK	6	Incongruent	niebieski	blue	zielony	green	hit	n/a
50.1742	n/a	RESPONSE	n/a	n/a	n/a	n/a	n/a	n/a	n/a	green
50.195	1.0167	ITI	n/a	n/a	n/a	n/a	n/a	n/a	n/a	n/a
51.2116	0.5167	FIXCROSS	n/a	n/a	n/a	n/a	n/a	n/a	n/a	n/a
51.7283	0.5333	INK	7	Neutral	xxxxx	xxxxx	czerwony	red	hit	n/a
52.2336	n/a	RESPONSE	n/a	n/a	n/a	n/a	n/a	n/a	n/a	red
52.2616	1.0167	ITI	n/a	n/a	n/a	n/a	n/a	n/a	n/a	n/a
53.2783	0.5167	FIXCROSS	n/a	n/a	n/a	n/a	n/a	n/a	n/a	n/a
53.795	0.5833	INK	8	Neutral	xxxxxxxx	xxxxxxxx	żółty	yellow	hit	n/a
54.3568	n/a	RESPONSE	n/a	n/a	n/a	n/a	n/a	n/a	n/a	yellow
54.3783	1.0166	ITI	n/a	n/a	n/a	n/a	n/a	n/a	n/a	n/a
55.3949	0.5167	FIXCROSS	n/a	n/a	n/a	n/a	n/a	n/a	n/a	n/a
55.9117	0.4667	INK	9	Incongruent	żółty	yellow	niebieski	blue	hit	n/a
56.3521	n/a	RESPONSE	n/a	n/a	n/a	n/a	n/a	n/a	n/a	blue
56.3783	1.0167	ITI	n/a	n/a	n/a	n/a	n/a	n/a	n/a	n/a
56.4959	n/a	RESPONSE	n/a	n/a	n/a	n/a	n/a	n/a	n/a	blue
57.395	0.5167	FIXCROSS	n/a	n/a	n/a	n/a	n/a	n/a	n/a	n/a
57.9117	0.5333	INK	10	Neutral	xxxxx	xxxxx	niebieski	blue	hit	n/a
58.4115	n/a	RESPONSE	n/a	n/a	n/a	n/a	n/a	n/a	n/a	blue
58.445	1.0167	ITI	n/a	n/a	n/a	n/a	n/a	n/a	n/a	n/a
59.4617	0.5166	FIXCROSS	n/a	n/a	n/a	n/a	n/a	n/a	n/a	n/a
59.9783	0.5167	INK	11	Incongruent	niebieski	blue	żółty	yellow	hit	n/a
60.4708	n/a	RESPONSE	n/a	n/a	n/a	n/a	n/a	n/a	n/a	yellow
60.495	1.0167	ITI	n/a	n/a	n/a	n/a	n/a	n/a	n/a	n/a
61.5117	0.5167	FIXCROSS	n/a	n/a	n/a	n/a	n/a	n/a	n/a	n/a
62.0284	0.4667	INK	12	Neutral	xxxxxxx	xxxxxxx	niebieski	blue	hit	n/a
62.4663	n/a	RESPONSE	n/a	n/a	n/a	n/a	n/a	n/a	n/a	blue
62.495	1.0167	ITI	n/a	n/a	n/a	n/a	n/a	n/a	n/a	n/a
63.5117	0.5166	FIXCROSS	n/a	n/a	n/a	n/a	n/a	n/a	n/a	n/a
64.0284	0.3667	INK	13	Neutral	xxxxx	xxxxx	czerwony	red	hit	n/a
64.366	n/a	RESPONSE	n/a	n/a	n/a	n/a	n/a	n/a	n/a	red
64.395	1.0167	ITI	n/a	n/a	n/a	n/a	n/a	n/a	n/a	n/a
65.4117	0.5167	FIXCROSS	n/a	n/a	n/a	n/a	n/a	n/a	n/a	n/a
65.9284	0.4667	INK	14	Incongruent	niebieski	blue	czerwony	red	hit	n/a
66.3774	n/a	RESPONSE	n/a	n/a	n/a	n/a	n/a	n/a	n/a	red
66.3951	1.0166	ITI	n/a	n/a	n/a	n/a	n/a	n/a	n/a	n/a
67.4117	0.5167	FIXCROSS	n/a	n/a	n/a	n/a	n/a	n/a	n/a	n/a
67.9284	0.7833	INK	15	Neutral	xxxxx	xxxxx	niebieski	blue	incorrect	n/a
68.6921	n/a	RESPONSE	n/a	n/a	n/a	n/a	n/a	n/a	n/a	green
68.7118	1.0166	ITI	n/a	n/a	n/a	n/a	n/a	n/a	n/a	n/a
69.7284	0.5167	FIXCROSS	n/a	n/a	n/a	n/a	n/a	n/a	n/a	n/a
70.2451	0.55	INK	16	Incongruent	zielony	green	czerwony	red	hit	n/a
70.7675	n/a	RESPONSE	n/a	n/a	n/a	n/a	n/a	n/a	n/a	red
70.7951	1.0167	ITI	n/a	n/a	n/a	n/a	n/a	n/a	n/a	n/a
71.8118	0.5167	FIXCROSS	n/a	n/a	n/a	n/a	n/a	n/a	n/a	n/a
72.3285	0.5833	INK	17	Incongruent	żółty	yellow	czerwony	red	hit	n/a
72.8907	n/a	RESPONSE	n/a	n/a	n/a	n/a	n/a	n/a	n/a	red
72.9118	1.0166	ITI	n/a	n/a	n/a	n/a	n/a	n/a	n/a	n/a
73.9284	0.5167	FIXCROSS	n/a	n/a	n/a	n/a	n/a	n/a	n/a	n/a
74.4451	0.5	INK	18	Neutral	xxxxxxxxx	xxxxxxxxx	żółty	yellow	hit	n/a
74.918	n/a	RESPONSE	n/a	n/a	n/a	n/a	n/a	n/a	n/a	yellow
74.9451	1.0166	ITI	n/a	n/a	n/a	n/a	n/a	n/a	n/a	n/a
75.9618	0.5167	FIXCROSS	n/a	n/a	n/a	n/a	n/a	n/a	n/a	n/a
76.4785	0.55	INK	19	Incongruent	czerwony	red	zielony	green	incorrect	n/a
77.0093	n/a	RESPONSE	n/a	n/a	n/a	n/a	n/a	n/a	n/a	red
77.0285	1.0167	ITI	n/a	n/a	n/a	n/a	n/a	n/a	n/a	n/a
78.0452	0.5167	FIXCROSS	n/a	n/a	n/a	n/a	n/a	n/a	n/a	n/a
78.5618	0.8833	INK	20	Incongruent	czerwony	red	niebieski	blue	hit	n/a
79.4197	n/a	RESPONSE	n/a	n/a	n/a	n/a	n/a	n/a	n/a	blue
79.4452	1.0333	ITI	n/a	n/a	n/a	n/a	n/a	n/a	n/a	n/a
80.4785	0.5167	FIXCROSS	n/a	n/a	n/a	n/a	n/a	n/a	n/a	n/a
80.9952	0.5833	INK	21	Incongruent	czerwony	red	żółty	yellow	hit	n/a
81.5429	n/a	RESPONSE	n/a	n/a	n/a	n/a	n/a	n/a	n/a	yellow
81.5785	1.0167	ITI	n/a	n/a	n/a	n/a	n/a	n/a	n/a	n/a
82.5952	0.5167	FIXCROSS	n/a	n/a	n/a	n/a	n/a	n/a	n/a	n/a
83.1119	0.5834	INK	22	Incongruent	niebieski	blue	żółty	yellow	hit	n/a
83.6662	n/a	RESPONSE	n/a	n/a	n/a	n/a	n/a	n/a	n/a	yellow
83.6952	1.0167	ITI	n/a	n/a	n/a	n/a	n/a	n/a	n/a	n/a
84.7119	0.5167	FIXCROSS	n/a	n/a	n/a	n/a	n/a	n/a	n/a	n/a
85.2286	0.7833	INK	23	Incongruent	żółty	yellow	zielony	green	hit	n/a
85.9809	n/a	RESPONSE	n/a	n/a	n/a	n/a	n/a	n/a	n/a	green
86.0119	1.0166	ITI	n/a	n/a	n/a	n/a	n/a	n/a	n/a	n/a
87.0285	0.5167	FIXCROSS	n/a	n/a	n/a	n/a	n/a	n/a	n/a	n/a
87.5452	0.7333	INK	24	Incongruent	czerwony	red	żółty	yellow	hit	n/a
88.2478	n/a	RESPONSE	n/a	n/a	n/a	n/a	n/a	n/a	n/a	yellow
88.2786	1.0167	ITI	n/a	n/a	n/a	n/a	n/a	n/a	n/a	n/a
89.2952	0.5167	FIXCROSS	n/a	n/a	n/a	n/a	n/a	n/a	n/a	n/a
89.8119	0.4667	INK	25	Incongruent	zielony	green	żółty	yellow	hit	n/a
90.2593	n/a	RESPONSE	n/a	n/a	n/a	n/a	n/a	n/a	n/a	yellow
90.2786	1.0167	ITI	n/a	n/a	n/a	n/a	n/a	n/a	n/a	n/a
91.2953	0.5166	FIXCROSS	n/a	n/a	n/a	n/a	n/a	n/a	n/a	n/a
91.8119	0.5667	INK	26	Incongruent	żółty	yellow	czerwony	red	hit	n/a
92.3505	n/a	RESPONSE	n/a	n/a	n/a	n/a	n/a	n/a	n/a	red
92.3786	1.0167	ITI	n/a	n/a	n/a	n/a	n/a	n/a	n/a	n/a
93.3953	0.5166	FIXCROSS	n/a	n/a	n/a	n/a	n/a	n/a	n/a	n/a
93.9119	0.5334	INK	27	Neutral	xxxxxxxxx	xxxxxxxxx	czerwony	red	hit	n/a
94.4257	n/a	RESPONSE	n/a	n/a	n/a	n/a	n/a	n/a	n/a	red
94.4453	1.0166	ITI	n/a	n/a	n/a	n/a	n/a	n/a	n/a	n/a
95.4619	0.5167	FIXCROSS	n/a	n/a	n/a	n/a	n/a	n/a	n/a	n/a
95.9786	0.4833	INK	28	Incongruent	żółty	yellow	czerwony	red	hit	n/a
96.4371	n/a	RESPONSE	n/a	n/a	n/a	n/a	n/a	n/a	n/a	red
96.4619	1.0167	ITI	n/a	n/a	n/a	n/a	n/a	n/a	n/a	n/a
97.4786	0.5167	FIXCROSS	n/a	n/a	n/a	n/a	n/a	n/a	n/a	n/a
97.9953	0.7333	INK	29	Incongruent	czerwony	red	zielony	green	hit	n/a
98.704	n/a	RESPONSE	n/a	n/a	n/a	n/a	n/a	n/a	n/a	green
98.7287	1.0167	ITI	n/a	n/a	n/a	n/a	n/a	n/a	n/a	n/a
99.7453	0.5166	FIXCROSS	n/a	n/a	n/a	n/a	n/a	n/a	n/a	n/a
100.262	0.5167	INK	30	Neutral	xxxxx	xxxxx	zielony	green	hit	n/a
100.7473	n/a	RESPONSE	n/a	n/a	n/a	n/a	n/a	n/a	n/a	green
100.7787	1.0166	ITI	n/a	n/a	n/a	n/a	n/a	n/a	n/a	n/a
101.7953	0.5167	FIXCROSS	n/a	n/a	n/a	n/a	n/a	n/a	n/a	n/a
102.312	0.45	INK	31	Neutral	xxxxxxx	xxxxxxx	żółty	yellow	hit	n/a
102.7428	n/a	RESPONSE	n/a	n/a	n/a	n/a	n/a	n/a	n/a	yellow
102.762	1.0167	ITI	n/a	n/a	n/a	n/a	n/a	n/a	n/a	n/a
103.7787	0.5167	FIXCROSS	n/a	n/a	n/a	n/a	n/a	n/a	n/a	n/a
104.2954	0.3833	INK	32	Incongruent	zielony	green	niebieski	blue	hit	n/a
104.6586	n/a	RESPONSE	n/a	n/a	n/a	n/a	n/a	n/a	n/a	blue
104.6787	1.0167	ITI	n/a	n/a	n/a	n/a	n/a	n/a	n/a	n/a
105.6954	0.5167	FIXCROSS	n/a	n/a	n/a	n/a	n/a	n/a	n/a	n/a
106.212	0.5	INK	33	Neutral	xxxxx	xxxxx	czerwony	red	hit	n/a
106.6859	n/a	RESPONSE	n/a	n/a	n/a	n/a	n/a	n/a	n/a	red
106.7121	1.0166	ITI	n/a	n/a	n/a	n/a	n/a	n/a	n/a	n/a
107.7287	0.5167	FIXCROSS	n/a	n/a	n/a	n/a	n/a	n/a	n/a	n/a
108.2454	0.6167	INK	34	Incongruent	żółty	yellow	niebieski	blue	hit	n/a
108.841	n/a	RESPONSE	n/a	n/a	n/a	n/a	n/a	n/a	n/a	blue
108.8621	1.0167	ITI	n/a	n/a	n/a	n/a	n/a	n/a	n/a	n/a
109.8787	0.5167	FIXCROSS	n/a	n/a	n/a	n/a	n/a	n/a	n/a	n/a
110.3954	0.5334	INK	35	Neutral	xxxxxxx	xxxxxxx	czerwony	red	hit	n/a
110.9004	n/a	RESPONSE	n/a	n/a	n/a	n/a	n/a	n/a	n/a	red
110.9288	1.0167	ITI	n/a	n/a	n/a	n/a	n/a	n/a	n/a	n/a
111.9454	0.5167	FIXCROSS	n/a	n/a	n/a	n/a	n/a	n/a	n/a	n/a
112.4621	0.5167	INK	36	Neutral	xxxxxxx	xxxxxxx	niebieski	blue	hit	n/a
112.9597	n/a	RESPONSE	n/a	n/a	n/a	n/a	n/a	n/a	n/a	blue
112.9788	1.0167	ITI	n/a	n/a	n/a	n/a	n/a	n/a	n/a	n/a
113.9955	0.5167	FIXCROSS	n/a	n/a	n/a	n/a	n/a	n/a	n/a	n/a
114.5121	0.85	INK	37	Neutral	xxxxxxxx	xxxxxxxx	zielony	green	hit	n/a
115.3383	n/a	RESPONSE	n/a	n/a	n/a	n/a	n/a	n/a	n/a	green
115.3621	1.0166	ITI	n/a	n/a	n/a	n/a	n/a	n/a	n/a	n/a
116.3788	0.5167	FIXCROSS	n/a	n/a	n/a	n/a	n/a	n/a	n/a	n/a
116.8955	0.4333	INK	38	Incongruent	zielony	green	żółty	yellow	hit	n/a
117.3019	n/a	RESPONSE	n/a	n/a	n/a	n/a	n/a	n/a	n/a	yellow
117.3288	1.0167	ITI	n/a	n/a	n/a	n/a	n/a	n/a	n/a	n/a
118.3455	0.5167	FIXCROSS	n/a	n/a	n/a	n/a	n/a	n/a	n/a	n/a
118.8621	0.55	INK	39	Incongruent	zielony	green	czerwony	red	hit	n/a
119.3931	n/a	RESPONSE	n/a	n/a	n/a	n/a	n/a	n/a	n/a	red
119.4122	1.0167	ITI	n/a	n/a	n/a	n/a	n/a	n/a	n/a	n/a
120.4288	0.5167	FIXCROSS	n/a	n/a	n/a	n/a	n/a	n/a	n/a	n/a
120.9455	0.3833	INK	40	Neutral	xxxxx	xxxxx	niebieski	blue	hit	n/a
121.3087	n/a	RESPONSE	n/a	n/a	n/a	n/a	n/a	n/a	n/a	blue
121.3288	1.0167	ITI	n/a	n/a	n/a	n/a	n/a	n/a	n/a	n/a
122.3455	0.5167	FIXCROSS	n/a	n/a	n/a	n/a	n/a	n/a	n/a	n/a
122.8622	0.5333	INK	41	Incongruent	żółty	yellow	niebieski	blue	hit	n/a
123.3681	n/a	RESPONSE	n/a	n/a	n/a	n/a	n/a	n/a	n/a	blue
123.3955	1.0167	ITI	n/a	n/a	n/a	n/a	n/a	n/a	n/a	n/a
124.4122	0.5166	FIXCROSS	n/a	n/a	n/a	n/a	n/a	n/a	n/a	n/a
124.9288	0.6833	INK	42	Neutral	xxxxxxxxx	xxxxxxxxx	żółty	yellow	hit	n/a
125.5871	n/a	RESPONSE	n/a	n/a	n/a	n/a	n/a	n/a	n/a	yellow
125.6122	1.0167	ITI	n/a	n/a	n/a	n/a	n/a	n/a	n/a	n/a
126.6289	0.5167	FIXCROSS	n/a	n/a	n/a	n/a	n/a	n/a	n/a	n/a
127.1455	0.5499	INK	43	Neutral	xxxxxxx	xxxxxxx	czerwony	red	hit	n/a
127.6624	n/a	RESPONSE	n/a	n/a	n/a	n/a	n/a	n/a	n/a	red
127.6955	1.0168	ITI	n/a	n/a	n/a	n/a	n/a	n/a	n/a	n/a
128.7122	0.5167	FIXCROSS	n/a	n/a	n/a	n/a	n/a	n/a	n/a	n/a
129.2289	0.8333	INK	44	Incongruent	żółty	yellow	zielony	green	hit	n/a
130.041	n/a	RESPONSE	n/a	n/a	n/a	n/a	n/a	n/a	n/a	green
130.0622	1.0167	ITI	n/a	n/a	n/a	n/a	n/a	n/a	n/a	n/a
131.0789	0.5167	FIXCROSS	n/a	n/a	n/a	n/a	n/a	n/a	n/a	n/a
131.5956	0.6	INK	45	Incongruent	niebieski	blue	żółty	yellow	hit	n/a
132.1641	n/a	RESPONSE	n/a	n/a	n/a	n/a	n/a	n/a	n/a	yellow
132.1956	1.0167	ITI	n/a	n/a	n/a	n/a	n/a	n/a	n/a	n/a
133.2123	0.5166	FIXCROSS	n/a	n/a	n/a	n/a	n/a	n/a	n/a	n/a
133.7289	0.5	INK	46	Neutral	xxxxxxxxx	xxxxxxxxx	czerwony	red	hit	n/a
134.2075	n/a	RESPONSE	n/a	n/a	n/a	n/a	n/a	n/a	n/a	red
134.2289	1.0167	ITI	n/a	n/a	n/a	n/a	n/a	n/a	n/a	n/a
135.2456	0.5167	FIXCROSS	n/a	n/a	n/a	n/a	n/a	n/a	n/a	n/a
135.7623	0.6	INK	47	Neutral	xxxxxxxx	xxxxxxxx	niebieski	blue	hit	n/a
136.3308	n/a	RESPONSE	n/a	n/a	n/a	n/a	n/a	n/a	n/a	blue
136.3622	1.0167	ITI	n/a	n/a	n/a	n/a	n/a	n/a	n/a	n/a
137.379	0.5167	FIXCROSS	n/a	n/a	n/a	n/a	n/a	n/a	n/a	n/a
137.8956	0.5833	INK	48	Neutral	xxxxxxxx	xxxxxxxx	żółty	yellow	hit	n/a
138.4539	n/a	RESPONSE	n/a	n/a	n/a	n/a	n/a	n/a	n/a	yellow
138.479	1.0167	ITI	n/a	n/a	n/a	n/a	n/a	n/a	n/a	n/a
139.4956	0.5167	FIXCROSS	n/a	n/a	n/a	n/a	n/a	n/a	n/a	n/a
140.0123	0.5	INK	49	Incongruent	niebieski	blue	czerwony	red	hit	n/a
140.4812	n/a	RESPONSE	n/a	n/a	n/a	n/a	n/a	n/a	n/a	red
140.5123	1.0167	ITI	n/a	n/a	n/a	n/a	n/a	n/a	n/a	n/a
141.529	0.5166	FIXCROSS	n/a	n/a	n/a	n/a	n/a	n/a	n/a	n/a
142.0456	0.7998	INK	50	Neutral	xxxxxxxxx	xxxxxxxxx	zielony	green	hit	n/a
142.812	n/a	RESPONSE	n/a	n/a	n/a	n/a	n/a	n/a	n/a	green
142.8455	1.0169	ITI	n/a	n/a	n/a	n/a	n/a	n/a	n/a	n/a
143.8623	0.5167	FIXCROSS	n/a	n/a	n/a	n/a	n/a	n/a	n/a	n/a
144.379	0.4	INK	51	Incongruent	czerwony	red	niebieski	blue	hit	n/a
144.7595	n/a	RESPONSE	n/a	n/a	n/a	n/a	n/a	n/a	n/a	blue
144.779	1.0166	ITI	n/a	n/a	n/a	n/a	n/a	n/a	n/a	n/a
145.7957	0.5167	FIXCROSS	n/a	n/a	n/a	n/a	n/a	n/a	n/a	n/a
146.3123	0.5833	INK	52	Neutral	xxxxxxxx	xxxxxxxx	zielony	green	hit	n/a
146.8668	n/a	RESPONSE	n/a	n/a	n/a	n/a	n/a	n/a	n/a	green
146.8957	1.0167	ITI	n/a	n/a	n/a	n/a	n/a	n/a	n/a	n/a
147.9124	0.5166	FIXCROSS	n/a	n/a	n/a	n/a	n/a	n/a	n/a	n/a
148.429	0.5167	INK	53	Neutral	xxxxxxxxx	xxxxxxxxx	czerwony	red	hit	n/a
148.9262	n/a	RESPONSE	n/a	n/a	n/a	n/a	n/a	n/a	n/a	red
148.9457	1.0167	ITI	n/a	n/a	n/a	n/a	n/a	n/a	n/a	n/a
149.9624	0.5167	FIXCROSS	n/a	n/a	n/a	n/a	n/a	n/a	n/a	n/a
150.4791	0.7	INK	54	Incongruent	czerwony	red	zielony	green	hit	n/a
151.161	n/a	RESPONSE	n/a	n/a	n/a	n/a	n/a	n/a	n/a	green
151.1791	1.0167	ITI	n/a	n/a	n/a	n/a	n/a	n/a	n/a	n/a
152.1957	0.5166	FIXCROSS	n/a	n/a	n/a	n/a	n/a	n/a	n/a	n/a
152.7124	0.5167	INK	55	Neutral	xxxxx	xxxxx	zielony	green	hit	n/a
153.2044	n/a	RESPONSE	n/a	n/a	n/a	n/a	n/a	n/a	n/a	green
153.2291	1.0166	ITI	n/a	n/a	n/a	n/a	n/a	n/a	n/a	n/a
154.2457	0.5167	FIXCROSS	n/a	n/a	n/a	n/a	n/a	n/a	n/a	n/a
154.7624	0.4333	INK	56	Neutral	xxxxxxxxx	xxxxxxxxx	zielony	green	hit	n/a
155.1679	n/a	RESPONSE	n/a	n/a	n/a	n/a	n/a	n/a	n/a	green
155.1957	1.0167	ITI	n/a	n/a	n/a	n/a	n/a	n/a	n/a	n/a
156.2124	0.5167	FIXCROSS	n/a	n/a	n/a	n/a	n/a	n/a	n/a	n/a
156.7291	0.5833	INK	57	Neutral	xxxxxxx	xxxxxxx	niebieski	blue	hit	n/a
157.2911	n/a	RESPONSE	n/a	n/a	n/a	n/a	n/a	n/a	n/a	blue
157.3124	1.0167	ITI	n/a	n/a	n/a	n/a	n/a	n/a	n/a	n/a
158.3291	0.5167	FIXCROSS	n/a	n/a	n/a	n/a	n/a	n/a	n/a	n/a
158.8458	0.5	INK	58	Incongruent	niebieski	blue	zielony	green	hit	n/a
159.3186	n/a	RESPONSE	n/a	n/a	n/a	n/a	n/a	n/a	n/a	green
159.3458	1.0167	ITI	n/a	n/a	n/a	n/a	n/a	n/a	n/a	n/a
160.3625	0.5167	FIXCROSS	n/a	n/a	n/a	n/a	n/a	n/a	n/a	n/a
160.8791	0.5167	INK	59	Neutral	xxxxxxx	xxxxxxx	czerwony	red	hit	n/a
161.3619	n/a	RESPONSE	n/a	n/a	n/a	n/a	n/a	n/a	n/a	red
161.3958	1.0167	ITI	n/a	n/a	n/a	n/a	n/a	n/a	n/a	n/a
162.4125	0.5167	FIXCROSS	n/a	n/a	n/a	n/a	n/a	n/a	n/a	n/a
162.9291	0.4	INK	60	Incongruent	niebieski	blue	czerwony	red	hit	n/a
163.3095	n/a	RESPONSE	n/a	n/a	n/a	n/a	n/a	n/a	n/a	red
163.3291	1.0167	ITI	n/a	n/a	n/a	n/a	n/a	n/a	n/a	n/a
164.3458	0.5167	FIXCROSS	n/a	n/a	n/a	n/a	n/a	n/a	n/a	n/a
164.8625	0.6667	INK	61	Neutral	xxxxxxxxx	xxxxxxxxx	zielony	green	incorrect	n/a
165.4965	n/a	RESPONSE	n/a	n/a	n/a	n/a	n/a	n/a	n/a	blue
165.5292	1.0167	ITI	n/a	n/a	n/a	n/a	n/a	n/a	n/a	n/a
166.5458	0.5167	FIXCROSS	n/a	n/a	n/a	n/a	n/a	n/a	n/a	n/a
167.0625	0.55	INK	62	Neutral	xxxxxxxx	xxxxxxxx	zielony	green	hit	n/a
167.5877	n/a	RESPONSE	n/a	n/a	n/a	n/a	n/a	n/a	n/a	green
167.6125	1.0166	ITI	n/a	n/a	n/a	n/a	n/a	n/a	n/a	n/a
168.6292	0.5167	FIXCROSS	n/a	n/a	n/a	n/a	n/a	n/a	n/a	n/a
169.1459	0.45	INK	63	Incongruent	niebieski	blue	zielony	green	hit	n/a
169.5673	n/a	RESPONSE	n/a	n/a	n/a	n/a	n/a	n/a	n/a	green
169.5959	1.0166	ITI	n/a	n/a	n/a	n/a	n/a	n/a	n/a	n/a
170.6125	0.5167	FIXCROSS	n/a	n/a	n/a	n/a	n/a	n/a	n/a	n/a
171.1292	0.6	INK	64	Neutral	xxxxxxx	xxxxxxx	żółty	yellow	hit	n/a
171.7064	n/a	RESPONSE	n/a	n/a	n/a	n/a	n/a	n/a	n/a	yellow
171.7292	1.0167	ITI	n/a	n/a	n/a	n/a	n/a	n/a	n/a	n/a
172.7459	0.5167	FIXCROSS	n/a	n/a	n/a	n/a	n/a	n/a	n/a	n/a
173.2626	0.4167	INK	65	Neutral	xxxxxxxxx	xxxxxxxxx	żółty	yellow	hit	n/a
173.654	n/a	RESPONSE	n/a	n/a	n/a	n/a	n/a	n/a	n/a	yellow
173.6792	1.0166	ITI	n/a	n/a	n/a	n/a	n/a	n/a	n/a	n/a
174.6959	0.5167	FIXCROSS	n/a	n/a	n/a	n/a	n/a	n/a	n/a	n/a
175.2125	0.6334	INK	66	Incongruent	zielony	green	żółty	yellow	hit	n/a
175.8251	n/a	RESPONSE	n/a	n/a	n/a	n/a	n/a	n/a	n/a	yellow
175.8459	1.0166	ITI	n/a	n/a	n/a	n/a	n/a	n/a	n/a	n/a
176.8626	0.5167	FIXCROSS	n/a	n/a	n/a	n/a	n/a	n/a	n/a	n/a
177.3793	0.8667	INK	67	Incongruent	zielony	green	niebieski	blue	hit	n/a
178.2196	n/a	RESPONSE	n/a	n/a	n/a	n/a	n/a	n/a	n/a	blue
178.2459	1.0167	ITI	n/a	n/a	n/a	n/a	n/a	n/a	n/a	n/a
179.2626	0.5167	FIXCROSS	n/a	n/a	n/a	n/a	n/a	n/a	n/a	n/a
179.7793	0.4833	INK	68	Incongruent	czerwony	red	niebieski	blue	hit	n/a
180.231	n/a	RESPONSE	n/a	n/a	n/a	n/a	n/a	n/a	n/a	blue
180.2626	1.0167	ITI	n/a	n/a	n/a	n/a	n/a	n/a	n/a	n/a
181.2793	0.5167	FIXCROSS	n/a	n/a	n/a	n/a	n/a	n/a	n/a	n/a
181.796	0.5833	INK	69	Neutral	xxxxxxxx	xxxxxxxx	żółty	yellow	hit	n/a
182.3542	n/a	RESPONSE	n/a	n/a	n/a	n/a	n/a	n/a	n/a	yellow
182.3793	1.0167	ITI	n/a	n/a	n/a	n/a	n/a	n/a	n/a	n/a
183.396	0.5167	FIXCROSS	n/a	n/a	n/a	n/a	n/a	n/a	n/a	n/a
183.9127	0.5333	INK	70	Neutral	xxxxxxxx	xxxxxxxx	niebieski	blue	hit	n/a
184.4135	n/a	RESPONSE	n/a	n/a	n/a	n/a	n/a	n/a	n/a	blue
184.446	1.0167	ITI	n/a	n/a	n/a	n/a	n/a	n/a	n/a	n/a
185.4627	0.5167	FIXCROSS	n/a	n/a	n/a	n/a	n/a	n/a	n/a	n/a
185.9793	0.45	INK	71	Neutral	xxxxxxxx	xxxxxxxx	niebieski	blue	hit	n/a
186.409	n/a	RESPONSE	n/a	n/a	n/a	n/a	n/a	n/a	n/a	blue
186.4293	1.0167	ITI	n/a	n/a	n/a	n/a	n/a	n/a	n/a	n/a
187.446	0.5167	FIXCROSS	n/a	n/a	n/a	n/a	n/a	n/a	n/a	n/a
187.9627	0.6167	INK	72	Incongruent	czerwony	red	żółty	yellow	hit	n/a
188.5482	n/a	RESPONSE	n/a	n/a	n/a	n/a	n/a	n/a	n/a	yellow
188.5794	1.0833	ITI	n/a	n/a	n/a	n/a	n/a	n/a	n/a	n/a
197.6954	n/a	RESPONSE	n/a	n/a	n/a	n/a	n/a	n/a	n/a	n/a
197.7627	1.0167	ITI	n/a	n/a	n/a	n/a	n/a	n/a	n/a	n/a
198.7794	0.5167	FIXCROSS	n/a	n/a	n/a	n/a	n/a	n/a	n/a	n/a
199.2961	1.0333	T_COLOR_NAME	1	Neutral	niebieski	blue	Neutral	Neutral	hit	n/a
200.2976	n/a	RESPONSE	n/a	n/a	n/a	n/a	n/a	n/a	n/a	blue
200.3294	0.5167	FEEDBACK	n/a	n/a	n/a	n/a	n/a	n/a	n/a	n/a
200.8461	1.0166	ITI	n/a	n/a	n/a	n/a	n/a	n/a	n/a	n/a
201.8628	0.5167	FIXCROSS	n/a	n/a	n/a	n/a	n/a	n/a	n/a	n/a
202.3795	0.7167	T_COLOR_NAME	2	Neutral	czerwony	red	Neutral	Neutral	hit	n/a
203.0754	n/a	RESPONSE	n/a	n/a	n/a	n/a	n/a	n/a	n/a	red
203.0961	0.5166	FEEDBACK	n/a	n/a	n/a	n/a	n/a	n/a	n/a	n/a
203.6128	1.0167	ITI	n/a	n/a	n/a	n/a	n/a	n/a	n/a	n/a
204.6295	0.5167	FIXCROSS	n/a	n/a	n/a	n/a	n/a	n/a	n/a	n/a
205.1461	0.9333	T_COLOR_NAME	3	Neutral	zielony	green	Neutral	Neutral	hit	n/a
206.0446	n/a	RESPONSE	n/a	n/a	n/a	n/a	n/a	n/a	n/a	green
206.0795	0.5167	FEEDBACK	n/a	n/a	n/a	n/a	n/a	n/a	n/a	n/a
206.5962	1.0167	ITI	n/a	n/a	n/a	n/a	n/a	n/a	n/a	n/a
207.6128	0.5166	FIXCROSS	n/a	n/a	n/a	n/a	n/a	n/a	n/a	n/a
208.1295	0.75	T_COLOR_NAME	4	Incongruent	żółty	yellow	zielony	green	hit	n/a
208.8542	n/a	RESPONSE	n/a	n/a	n/a	n/a	n/a	n/a	n/a	yellow
208.8795	0.5167	FEEDBACK	n/a	n/a	n/a	n/a	n/a	n/a	n/a	n/a
209.3962	1.0167	ITI	n/a	n/a	n/a	n/a	n/a	n/a	n/a	n/a
210.4129	0.5167	FIXCROSS	n/a	n/a	n/a	n/a	n/a	n/a	n/a	n/a
210.9295	0.8	T_COLOR_NAME	5	Neutral	żółty	yellow	Neutral	Neutral	hit	n/a
211.6958	n/a	RESPONSE	n/a	n/a	n/a	n/a	n/a	n/a	n/a	yellow
211.7295	0.5167	FEEDBACK	n/a	n/a	n/a	n/a	n/a	n/a	n/a	n/a
212.2462	1.0166	ITI	n/a	n/a	n/a	n/a	n/a	n/a	n/a	n/a
213.2628	0.5167	FIXCROSS	n/a	n/a	n/a	n/a	n/a	n/a	n/a	n/a
213.7795	0.65	T_COLOR_NAME	6	Incongruent	czerwony	red	żółty	yellow	hit	n/a
214.4096	n/a	RESPONSE	n/a	n/a	n/a	n/a	n/a	n/a	n/a	red
214.4296	0.5166	FEEDBACK	n/a	n/a	n/a	n/a	n/a	n/a	n/a	n/a
214.9462	1.0167	ITI	n/a	n/a	n/a	n/a	n/a	n/a	n/a	n/a
215.9629	0.5167	FIXCROSS	n/a	n/a	n/a	n/a	n/a	n/a	n/a	n/a
216.4796	0.8833	T_COLOR_NAME	7	Incongruent	zielony	green	żółty	yellow	hit	n/a
217.331	n/a	RESPONSE	n/a	n/a	n/a	n/a	n/a	n/a	n/a	green
217.3629	0.5167	FEEDBACK	n/a	n/a	n/a	n/a	n/a	n/a	n/a	n/a
217.8796	1.0167	ITI	n/a	n/a	n/a	n/a	n/a	n/a	n/a	n/a
218.8963	0.5167	FIXCROSS	n/a	n/a	n/a	n/a	n/a	n/a	n/a	n/a
219.4129	0.6333	T_COLOR_NAME	8	Incongruent	zielony	green	niebieski	blue	hit	n/a
220.0128	n/a	RESPONSE	n/a	n/a	n/a	n/a	n/a	n/a	n/a	green
220.0463	0.5167	FEEDBACK	n/a	n/a	n/a	n/a	n/a	n/a	n/a	n/a
220.5629	1.0166	ITI	n/a	n/a	n/a	n/a	n/a	n/a	n/a	n/a
221.5796	0.5167	FIXCROSS	n/a	n/a	n/a	n/a	n/a	n/a	n/a	n/a
222.0963	0.7	T_COLOR_NAME	9	Incongruent	żółty	yellow	niebieski	blue	hit	n/a
222.7746	n/a	RESPONSE	n/a	n/a	n/a	n/a	n/a	n/a	n/a	yellow
222.7963	0.5166	FEEDBACK	n/a	n/a	n/a	n/a	n/a	n/a	n/a	n/a
223.3129	1.0167	ITI	n/a	n/a	n/a	n/a	n/a	n/a	n/a	n/a
224.3296	0.5167	FIXCROSS	n/a	n/a	n/a	n/a	n/a	n/a	n/a	n/a
224.8463	0.8333	T_COLOR_NAME	10	Incongruent	niebieski	blue	czerwony	red	hit	n/a
225.6481	n/a	RESPONSE	n/a	n/a	n/a	n/a	n/a	n/a	n/a	blue
225.6796	0.5167	FEEDBACK	n/a	n/a	n/a	n/a	n/a	n/a	n/a	n/a
226.1963	1.0167	ITI	n/a	n/a	n/a	n/a	n/a	n/a	n/a	n/a
227.213	0.5167	FIXCROSS	n/a	n/a	n/a	n/a	n/a	n/a	n/a	n/a
227.7297	0.75	T_COLOR_NAME	11	Neutral	niebieski	blue	Neutral	Neutral	hit	n/a
228.4577	n/a	RESPONSE	n/a	n/a	n/a	n/a	n/a	n/a	n/a	blue
228.4796	0.5167	FEEDBACK	n/a	n/a	n/a	n/a	n/a	n/a	n/a	n/a
228.9963	1.0167	ITI	n/a	n/a	n/a	n/a	n/a	n/a	n/a	n/a
230.013	0.5167	FIXCROSS	n/a	n/a	n/a	n/a	n/a	n/a	n/a	n/a
230.5297	0.65	T_COLOR_NAME	12	Incongruent	żółty	yellow	czerwony	red	incorrect	n/a
231.1556	n/a	RESPONSE	n/a	n/a	n/a	n/a	n/a	n/a	n/a	red
231.1797	0.5166	FEEDBACK	n/a	n/a	n/a	n/a	n/a	n/a	n/a	n/a
231.6963	1.0334	ITI	n/a	n/a	n/a	n/a	n/a	n/a	n/a	n/a
234.5879	n/a	RESPONSE	n/a	n/a	n/a	n/a	n/a	n/a	n/a	n/a
234.6464	1.0167	ITI	n/a	n/a	n/a	n/a	n/a	n/a	n/a	n/a
235.663	0.5167	FIXCROSS	n/a	n/a	n/a	n/a	n/a	n/a	n/a	n/a
236.1797	1.1333	COLOR_NAME	1	Neutral	niebieski	blue	Neutral	Neutral	hit	n/a
237.2857	n/a	RESPONSE	n/a	n/a	n/a	n/a	n/a	n/a	n/a	blue
237.3131	1.0167	ITI	n/a	n/a	n/a	n/a	n/a	n/a	n/a	n/a
238.3297	0.5167	FIXCROSS	n/a	n/a	n/a	n/a	n/a	n/a	n/a	n/a
238.8464	0.6333	COLOR_NAME	2	Neutral	niebieski	blue	Neutral	Neutral	hit	n/a
239.4568	n/a	RESPONSE	n/a	n/a	n/a	n/a	n/a	n/a	n/a	blue
239.4797	1.0167	ITI	n/a	n/a	n/a	n/a	n/a	n/a	n/a	n/a
240.4964	0.5167	FIXCROSS	n/a	n/a	n/a	n/a	n/a	n/a	n/a	n/a
241.0131	0.6167	COLOR_NAME	3	Incongruent	niebieski	blue	zielony	green	hit	n/a
241.5959	n/a	RESPONSE	n/a	n/a	n/a	n/a	n/a	n/a	n/a	blue
241.6298	1.0167	ITI	n/a	n/a	n/a	n/a	n/a	n/a	n/a	n/a
242.6464	0.5167	FIXCROSS	n/a	n/a	n/a	n/a	n/a	n/a	n/a	n/a
243.1631	0.95	COLOR_NAME	4	Incongruent	zielony	green	żółty	yellow	hit	n/a
244.0864	n/a	RESPONSE	n/a	n/a	n/a	n/a	n/a	n/a	n/a	green
244.1131	1.0167	ITI	n/a	n/a	n/a	n/a	n/a	n/a	n/a	n/a
245.1298	0.5167	FIXCROSS	n/a	n/a	n/a	n/a	n/a	n/a	n/a	n/a
245.6465	0.7166	COLOR_NAME	5	Incongruent	żółty	yellow	zielony	green	hit	n/a
246.3372	n/a	RESPONSE	n/a	n/a	n/a	n/a	n/a	n/a	n/a	yellow
246.3631	1.0167	ITI	n/a	n/a	n/a	n/a	n/a	n/a	n/a	n/a
247.3798	0.5167	FIXCROSS	n/a	n/a	n/a	n/a	n/a	n/a	n/a	n/a
247.8964	0.5334	COLOR_NAME	6	Incongruent	czerwony	red	zielony	green	hit	n/a
248.3966	n/a	RESPONSE	n/a	n/a	n/a	n/a	n/a	n/a	n/a	red
248.4298	1.0167	ITI	n/a	n/a	n/a	n/a	n/a	n/a	n/a	n/a
249.4465	0.5167	FIXCROSS	n/a	n/a	n/a	n/a	n/a	n/a	n/a	n/a
249.9632	0.6167	COLOR_NAME	7	Incongruent	czerwony	red	żółty	yellow	hit	n/a
250.5517	n/a	RESPONSE	n/a	n/a	n/a	n/a	n/a	n/a	n/a	red
250.5798	1.0166	ITI	n/a	n/a	n/a	n/a	n/a	n/a	n/a	n/a
251.5965	0.5167	FIXCROSS	n/a	n/a	n/a	n/a	n/a	n/a	n/a	n/a
252.1132	0.75	COLOR_NAME	8	Incongruent	żółty	yellow	niebieski	blue	hit	n/a
252.8346	n/a	RESPONSE	n/a	n/a	n/a	n/a	n/a	n/a	n/a	yellow
252.8631	1.0167	ITI	n/a	n/a	n/a	n/a	n/a	n/a	n/a	n/a
253.8799	0.5167	FIXCROSS	n/a	n/a	n/a	n/a	n/a	n/a	n/a	n/a
254.3965	0.6333	COLOR_NAME	9	Neutral	niebieski	blue	Neutral	Neutral	hit	n/a
255.0056	n/a	RESPONSE	n/a	n/a	n/a	n/a	n/a	n/a	n/a	blue
255.0299	1.0166	ITI	n/a	n/a	n/a	n/a	n/a	n/a	n/a	n/a
256.0465	0.5167	FIXCROSS	n/a	n/a	n/a	n/a	n/a	n/a	n/a	n/a
256.5632	0.65	COLOR_NAME	10	Incongruent	zielony	green	żółty	yellow	hit	n/a
257.1927	n/a	RESPONSE	n/a	n/a	n/a	n/a	n/a	n/a	n/a	green
257.2132	1.0167	ITI	n/a	n/a	n/a	n/a	n/a	n/a	n/a	n/a
258.2299	0.5167	FIXCROSS	n/a	n/a	n/a	n/a	n/a	n/a	n/a	n/a
258.7466	0.7333	COLOR_NAME	11	Incongruent	zielony	green	niebieski	blue	hit	n/a
259.4596	n/a	RESPONSE	n/a	n/a	n/a	n/a	n/a	n/a	n/a	green
259.4799	1.0167	ITI	n/a	n/a	n/a	n/a	n/a	n/a	n/a	n/a
260.4966	0.5167	FIXCROSS	n/a	n/a	n/a	n/a	n/a	n/a	n/a	n/a
261.0132	0.6	COLOR_NAME	12	Neutral	czerwony	red	Neutral	Neutral	hit	n/a
261.5828	n/a	RESPONSE	n/a	n/a	n/a	n/a	n/a	n/a	n/a	red
261.6133	1.0167	ITI	n/a	n/a	n/a	n/a	n/a	n/a	n/a	n/a
262.6299	0.5166	FIXCROSS	n/a	n/a	n/a	n/a	n/a	n/a	n/a	n/a
263.1465	0.8667	COLOR_NAME	13	Neutral	żółty	yellow	Neutral	Neutral	hit	n/a
263.9933	n/a	RESPONSE	n/a	n/a	n/a	n/a	n/a	n/a	n/a	yellow
264.0133	1.0166	ITI	n/a	n/a	n/a	n/a	n/a	n/a	n/a	n/a
265.0299	0.5167	FIXCROSS	n/a	n/a	n/a	n/a	n/a	n/a	n/a	n/a
265.5466	0.6667	COLOR_NAME	14	Neutral	czerwony	red	Neutral	Neutral	hit	n/a
266.1804	n/a	RESPONSE	n/a	n/a	n/a	n/a	n/a	n/a	n/a	red
266.2133	1.0167	ITI	n/a	n/a	n/a	n/a	n/a	n/a	n/a	n/a
267.23	0.5166	FIXCROSS	n/a	n/a	n/a	n/a	n/a	n/a	n/a	n/a
267.7466	0.6167	COLOR_NAME	15	Incongruent	czerwony	red	żółty	yellow	hit	n/a
268.3354	n/a	RESPONSE	n/a	n/a	n/a	n/a	n/a	n/a	n/a	red
268.3633	1.0167	ITI	n/a	n/a	n/a	n/a	n/a	n/a	n/a	n/a
269.38	0.5167	FIXCROSS	n/a	n/a	n/a	n/a	n/a	n/a	n/a	n/a
269.8966	0.8667	COLOR_NAME	16	Neutral	niebieski	blue	Neutral	Neutral	hit	n/a
270.7461	n/a	RESPONSE	n/a	n/a	n/a	n/a	n/a	n/a	n/a	blue
270.7633	1.0166	ITI	n/a	n/a	n/a	n/a	n/a	n/a	n/a	n/a
271.78	0.5167	FIXCROSS	n/a	n/a	n/a	n/a	n/a	n/a	n/a	n/a
272.2967	0.6667	COLOR_NAME	17	Incongruent	żółty	yellow	niebieski	blue	hit	n/a
272.9332	n/a	RESPONSE	n/a	n/a	n/a	n/a	n/a	n/a	n/a	yellow
272.9633	1.0167	ITI	n/a	n/a	n/a	n/a	n/a	n/a	n/a	n/a
273.98	0.5167	FIXCROSS	n/a	n/a	n/a	n/a	n/a	n/a	n/a	n/a
274.4967	0.5	COLOR_NAME	18	Neutral	żółty	yellow	Neutral	Neutral	hit	n/a
274.9764	n/a	RESPONSE	n/a	n/a	n/a	n/a	n/a	n/a	n/a	yellow
274.9967	1.0167	ITI	n/a	n/a	n/a	n/a	n/a	n/a	n/a	n/a
276.0134	0.5167	FIXCROSS	n/a	n/a	n/a	n/a	n/a	n/a	n/a	n/a
276.53	0.6833	COLOR_NAME	19	Incongruent	czerwony	red	niebieski	blue	hit	n/a
277.1795	n/a	RESPONSE	n/a	n/a	n/a	n/a	n/a	n/a	n/a	red
277.2134	1.0166	ITI	n/a	n/a	n/a	n/a	n/a	n/a	n/a	n/a
278.23	0.5167	FIXCROSS	n/a	n/a	n/a	n/a	n/a	n/a	n/a	n/a
278.7467	0.8334	COLOR_NAME	20	Neutral	zielony	green	Neutral	Neutral	hit	n/a
279.5581	n/a	RESPONSE	n/a	n/a	n/a	n/a	n/a	n/a	n/a	green
279.5801	1.0167	ITI	n/a	n/a	n/a	n/a	n/a	n/a	n/a	n/a
280.5967	0.5167	FIXCROSS	n/a	n/a	n/a	n/a	n/a	n/a	n/a	n/a
281.1134	0.8167	COLOR_NAME	21	Incongruent	niebieski	blue	czerwony	red	hit	n/a
281.9048	n/a	RESPONSE	n/a	n/a	n/a	n/a	n/a	n/a	n/a	blue
281.9301	1.0167	ITI	n/a	n/a	n/a	n/a	n/a	n/a	n/a	n/a
282.9467	0.5167	FIXCROSS	n/a	n/a	n/a	n/a	n/a	n/a	n/a	n/a
283.4634	0.6333	COLOR_NAME	22	Incongruent	czerwony	red	niebieski	blue	hit	n/a
284.0758	n/a	RESPONSE	n/a	n/a	n/a	n/a	n/a	n/a	n/a	red
284.0967	1.0167	ITI	n/a	n/a	n/a	n/a	n/a	n/a	n/a	n/a
285.1134	0.5167	FIXCROSS	n/a	n/a	n/a	n/a	n/a	n/a	n/a	n/a
285.6301	0.55	COLOR_NAME	23	Neutral	czerwony	red	Neutral	Neutral	hit	n/a
286.1511	n/a	RESPONSE	n/a	n/a	n/a	n/a	n/a	n/a	n/a	red
286.1801	1.0167	ITI	n/a	n/a	n/a	n/a	n/a	n/a	n/a	n/a
287.1968	0.5167	FIXCROSS	n/a	n/a	n/a	n/a	n/a	n/a	n/a	n/a
287.7134	0.95	COLOR_NAME	24	Incongruent	zielony	green	żółty	yellow	hit	n/a
288.6415	n/a	RESPONSE	n/a	n/a	n/a	n/a	n/a	n/a	n/a	green
288.6634	1.0167	ITI	n/a	n/a	n/a	n/a	n/a	n/a	n/a	n/a
289.6801	0.5166	FIXCROSS	n/a	n/a	n/a	n/a	n/a	n/a	n/a	n/a
290.1968	1.4167	COLOR_NAME	25	Incongruent	niebieski	blue	zielony	green	hit	n/a
291.5788	n/a	RESPONSE	n/a	n/a	n/a	n/a	n/a	n/a	n/a	blue
291.6135	1.0166	ITI	n/a	n/a	n/a	n/a	n/a	n/a	n/a	n/a
292.6301	0.5167	FIXCROSS	n/a	n/a	n/a	n/a	n/a	n/a	n/a	n/a
293.1468	0.7667	COLOR_NAME	26	Neutral	zielony	green	Neutral	Neutral	hit	n/a
293.8935	n/a	RESPONSE	n/a	n/a	n/a	n/a	n/a	n/a	n/a	green
293.9135	1.0167	ITI	n/a	n/a	n/a	n/a	n/a	n/a	n/a	n/a
294.9302	0.5167	FIXCROSS	n/a	n/a	n/a	n/a	n/a	n/a	n/a	n/a
295.4468	0.8333	COLOR_NAME	27	Incongruent	zielony	green	niebieski	blue	hit	n/a
296.2563	n/a	RESPONSE	n/a	n/a	n/a	n/a	n/a	n/a	n/a	green
296.2801	1.0167	ITI	n/a	n/a	n/a	n/a	n/a	n/a	n/a	n/a
297.2968	0.5167	FIXCROSS	n/a	n/a	n/a	n/a	n/a	n/a	n/a	n/a
297.8135	0.4833	COLOR_NAME	28	Neutral	zielony	green	Neutral	Neutral	hit	n/a
298.2676	n/a	RESPONSE	n/a	n/a	n/a	n/a	n/a	n/a	n/a	green
298.2969	1.0167	ITI	n/a	n/a	n/a	n/a	n/a	n/a	n/a	n/a
299.3135	0.5167	FIXCROSS	n/a	n/a	n/a	n/a	n/a	n/a	n/a	n/a
299.8302	0.6	COLOR_NAME	29	Neutral	czerwony	red	Neutral	Neutral	hit	n/a
300.4069	n/a	RESPONSE	n/a	n/a	n/a	n/a	n/a	n/a	n/a	red
300.4302	1.0167	ITI	n/a	n/a	n/a	n/a	n/a	n/a	n/a	n/a
301.4469	0.5167	FIXCROSS	n/a	n/a	n/a	n/a	n/a	n/a	n/a	n/a
301.9635	0.6333	COLOR_NAME	30	Neutral	zielony	green	Neutral	Neutral	hit	n/a
302.578	n/a	RESPONSE	n/a	n/a	n/a	n/a	n/a	n/a	n/a	green
302.5969	1.0167	ITI	n/a	n/a	n/a	n/a	n/a	n/a	n/a	n/a
303.6135	0.5167	FIXCROSS	n/a	n/a	n/a	n/a	n/a	n/a	n/a	n/a
304.1302	0.6333	COLOR_NAME	31	Incongruent	niebieski	blue	żółty	yellow	hit	n/a
304.733	n/a	RESPONSE	n/a	n/a	n/a	n/a	n/a	n/a	n/a	blue
304.7635	1.0167	ITI	n/a	n/a	n/a	n/a	n/a	n/a	n/a	n/a
305.7802	0.5167	FIXCROSS	n/a	n/a	n/a	n/a	n/a	n/a	n/a	n/a
306.2969	0.55	COLOR_NAME	32	Incongruent	niebieski	blue	zielony	green	hit	n/a
306.8244	n/a	RESPONSE	n/a	n/a	n/a	n/a	n/a	n/a	n/a	blue
306.8469	1.0167	ITI	n/a	n/a	n/a	n/a	n/a	n/a	n/a	n/a
307.8636	0.5167	FIXCROSS	n/a	n/a	n/a	n/a	n/a	n/a	n/a	n/a
308.3803	0.6666	COLOR_NAME	33	Incongruent	żółty	yellow	czerwony	red	hit	n/a
309.0273	n/a	RESPONSE	n/a	n/a	n/a	n/a	n/a	n/a	n/a	yellow
309.0469	1.0167	ITI	n/a	n/a	n/a	n/a	n/a	n/a	n/a	n/a
310.0636	0.5166	FIXCROSS	n/a	n/a	n/a	n/a	n/a	n/a	n/a	n/a
310.5802	0.8	COLOR_NAME	34	Neutral	niebieski	blue	Neutral	Neutral	hit	n/a
311.3581	n/a	RESPONSE	n/a	n/a	n/a	n/a	n/a	n/a	n/a	blue
311.3803	1.0167	ITI	n/a	n/a	n/a	n/a	n/a	n/a	n/a	n/a
312.397	0.5167	FIXCROSS	n/a	n/a	n/a	n/a	n/a	n/a	n/a	n/a
312.9136	0.5833	COLOR_NAME	35	Incongruent	żółty	yellow	niebieski	blue	hit	n/a
313.4653	n/a	RESPONSE	n/a	n/a	n/a	n/a	n/a	n/a	n/a	yellow
313.497	1.0167	ITI	n/a	n/a	n/a	n/a	n/a	n/a	n/a	n/a
314.5136	0.5167	FIXCROSS	n/a	n/a	n/a	n/a	n/a	n/a	n/a	n/a
315.0303	0.6167	COLOR_NAME	36	Incongruent	zielony	green	niebieski	blue	incorrect	n/a
315.6204	n/a	RESPONSE	n/a	n/a	n/a	n/a	n/a	n/a	n/a	blue
315.647	1.0167	ITI	n/a	n/a	n/a	n/a	n/a	n/a	n/a	n/a
316.6637	0.5166	FIXCROSS	n/a	n/a	n/a	n/a	n/a	n/a	n/a	n/a
317.1803	1.2833	COLOR_NAME	37	Incongruent	żółty	yellow	czerwony	red	incorrect	n/a
318.446	n/a	RESPONSE	n/a	n/a	n/a	n/a	n/a	n/a	n/a	red
318.4636	1.0167	ITI	n/a	n/a	n/a	n/a	n/a	n/a	n/a	n/a
319.4804	0.5167	FIXCROSS	n/a	n/a	n/a	n/a	n/a	n/a	n/a	n/a
319.997	0.8833	COLOR_NAME	38	Neutral	zielony	green	Neutral	Neutral	hit	n/a
320.8566	n/a	RESPONSE	n/a	n/a	n/a	n/a	n/a	n/a	n/a	green
320.8804	1.0166	ITI	n/a	n/a	n/a	n/a	n/a	n/a	n/a	n/a
321.897	0.5167	FIXCROSS	n/a	n/a	n/a	n/a	n/a	n/a	n/a	n/a
322.4137	0.8	COLOR_NAME	39	Neutral	czerwony	red	Neutral	Neutral	hit	n/a
323.1873	n/a	RESPONSE	n/a	n/a	n/a	n/a	n/a	n/a	n/a	red
323.2137	1.0167	ITI	n/a	n/a	n/a	n/a	n/a	n/a	n/a	n/a
324.2304	0.5167	FIXCROSS	n/a	n/a	n/a	n/a	n/a	n/a	n/a	n/a
324.7471	0.6167	COLOR_NAME	40	Incongruent	czerwony	red	niebieski	blue	hit	n/a
325.3424	n/a	RESPONSE	n/a	n/a	n/a	n/a	n/a	n/a	n/a	red
325.3637	1.0167	ITI	n/a	n/a	n/a	n/a	n/a	n/a	n/a	n/a
326.3804	0.5167	FIXCROSS	n/a	n/a	n/a	n/a	n/a	n/a	n/a	n/a
326.8971	0.6833	COLOR_NAME	41	Neutral	żółty	yellow	Neutral	Neutral	hit	n/a
327.5614	n/a	RESPONSE	n/a	n/a	n/a	n/a	n/a	n/a	n/a	yellow
327.5804	1.0166	ITI	n/a	n/a	n/a	n/a	n/a	n/a	n/a	n/a
328.597	0.5167	FIXCROSS	n/a	n/a	n/a	n/a	n/a	n/a	n/a	n/a
329.1137	0.5834	COLOR_NAME	42	Incongruent	czerwony	red	zielony	green	hit	n/a
329.6686	n/a	RESPONSE	n/a	n/a	n/a	n/a	n/a	n/a	n/a	red
329.6971	1.0167	ITI	n/a	n/a	n/a	n/a	n/a	n/a	n/a	n/a
330.7138	0.5166	FIXCROSS	n/a	n/a	n/a	n/a	n/a	n/a	n/a	n/a
331.2304	0.7	COLOR_NAME	43	Neutral	niebieski	blue	Neutral	Neutral	hit	n/a
331.9036	n/a	RESPONSE	n/a	n/a	n/a	n/a	n/a	n/a	n/a	blue
331.9304	1.0167	ITI	n/a	n/a	n/a	n/a	n/a	n/a	n/a	n/a
332.9471	0.5167	FIXCROSS	n/a	n/a	n/a	n/a	n/a	n/a	n/a	n/a
333.4638	0.7667	COLOR_NAME	44	Incongruent	czerwony	red	żółty	yellow	hit	n/a
334.2024	n/a	RESPONSE	n/a	n/a	n/a	n/a	n/a	n/a	n/a	red
334.2304	1.0167	ITI	n/a	n/a	n/a	n/a	n/a	n/a	n/a	n/a
335.2471	0.5167	FIXCROSS	n/a	n/a	n/a	n/a	n/a	n/a	n/a	n/a
335.7638	0.5666	COLOR_NAME	45	Neutral	czerwony	red	Neutral	Neutral	hit	n/a
336.3095	n/a	RESPONSE	n/a	n/a	n/a	n/a	n/a	n/a	n/a	red
336.3304	1.0167	ITI	n/a	n/a	n/a	n/a	n/a	n/a	n/a	n/a
337.3471	0.5167	FIXCROSS	n/a	n/a	n/a	n/a	n/a	n/a	n/a	n/a
337.8638	0.7333	COLOR_NAME	46	Neutral	żółty	yellow	Neutral	Neutral	hit	n/a
338.5764	n/a	RESPONSE	n/a	n/a	n/a	n/a	n/a	n/a	n/a	yellow
338.5971	1.0167	ITI	n/a	n/a	n/a	n/a	n/a	n/a	n/a	n/a
339.6138	0.5167	FIXCROSS	n/a	n/a	n/a	n/a	n/a	n/a	n/a	n/a
340.1305	0.5333	COLOR_NAME	47	Neutral	czerwony	red	Neutral	Neutral	hit	n/a
340.6357	n/a	RESPONSE	n/a	n/a	n/a	n/a	n/a	n/a	n/a	red
340.6638	1.0167	ITI	n/a	n/a	n/a	n/a	n/a	n/a	n/a	n/a
341.6805	0.5166	FIXCROSS	n/a	n/a	n/a	n/a	n/a	n/a	n/a	n/a
342.1971	0.8168	COLOR_NAME	48	Neutral	zielony	green	Neutral	Neutral	hit	n/a
342.9825	n/a	RESPONSE	n/a	n/a	n/a	n/a	n/a	n/a	n/a	green
343.0139	1.0166	ITI	n/a	n/a	n/a	n/a	n/a	n/a	n/a	n/a
344.0305	0.5167	FIXCROSS	n/a	n/a	n/a	n/a	n/a	n/a	n/a	n/a
344.5472	0.6667	COLOR_NAME	49	Neutral	żółty	yellow	Neutral	Neutral	hit	n/a
345.1854	n/a	RESPONSE	n/a	n/a	n/a	n/a	n/a	n/a	n/a	yellow
345.2139	1.0166	ITI	n/a	n/a	n/a	n/a	n/a	n/a	n/a	n/a
346.2305	0.5167	FIXCROSS	n/a	n/a	n/a	n/a	n/a	n/a	n/a	n/a
346.7472	0.7833	COLOR_NAME	50	Incongruent	niebieski	blue	czerwony	red	hit	n/a
347.5003	n/a	RESPONSE	n/a	n/a	n/a	n/a	n/a	n/a	n/a	blue
347.5305	1.0167	ITI	n/a	n/a	n/a	n/a	n/a	n/a	n/a	n/a
348.5472	0.5167	FIXCROSS	n/a	n/a	n/a	n/a	n/a	n/a	n/a	n/a
349.0639	0.65	COLOR_NAME	51	Neutral	żółty	yellow	Neutral	Neutral	hit	n/a
349.6872	n/a	RESPONSE	n/a	n/a	n/a	n/a	n/a	n/a	n/a	yellow
349.7139	1.0167	ITI	n/a	n/a	n/a	n/a	n/a	n/a	n/a	n/a
350.7306	0.5166	FIXCROSS	n/a	n/a	n/a	n/a	n/a	n/a	n/a	n/a
351.2472	0.85	COLOR_NAME	52	Incongruent	niebieski	blue	żółty	yellow	hit	n/a
352.0659	n/a	RESPONSE	n/a	n/a	n/a	n/a	n/a	n/a	n/a	blue
352.0973	1.0167	ITI	n/a	n/a	n/a	n/a	n/a	n/a	n/a	n/a
352.3212	n/a	RESPONSE	n/a	n/a	n/a	n/a	n/a	n/a	n/a	blue
353.1139	0.5167	FIXCROSS	n/a	n/a	n/a	n/a	n/a	n/a	n/a	n/a
353.6306	0.4834	COLOR_NAME	53	Neutral	zielony	green	Neutral	Neutral	hit	n/a
354.0932	n/a	RESPONSE	n/a	n/a	n/a	n/a	n/a	n/a	n/a	green
354.1139	1.0167	ITI	n/a	n/a	n/a	n/a	n/a	n/a	n/a	n/a
355.1306	0.5166	FIXCROSS	n/a	n/a	n/a	n/a	n/a	n/a	n/a	n/a
355.6473	0.6	COLOR_NAME	54	Incongruent	czerwony	red	zielony	green	hit	n/a
356.2164	n/a	RESPONSE	n/a	n/a	n/a	n/a	n/a	n/a	n/a	red
356.2473	1.0167	ITI	n/a	n/a	n/a	n/a	n/a	n/a	n/a	n/a
357.2639	0.5167	FIXCROSS	n/a	n/a	n/a	n/a	n/a	n/a	n/a	n/a
357.7806	0.95	COLOR_NAME	55	Neutral	zielony	green	Neutral	Neutral	hit	n/a
358.7068	n/a	RESPONSE	n/a	n/a	n/a	n/a	n/a	n/a	n/a	green
358.7306	1.0167	ITI	n/a	n/a	n/a	n/a	n/a	n/a	n/a	n/a
359.7473	0.5167	FIXCROSS	n/a	n/a	n/a	n/a	n/a	n/a	n/a	n/a
360.264	0.5833	COLOR_NAME	56	Neutral	czerwony	red	Neutral	Neutral	hit	n/a
360.814	n/a	RESPONSE	n/a	n/a	n/a	n/a	n/a	n/a	n/a	red
360.8473	1.0167	ITI	n/a	n/a	n/a	n/a	n/a	n/a	n/a	n/a
361.864	0.5167	FIXCROSS	n/a	n/a	n/a	n/a	n/a	n/a	n/a	n/a
362.3807	0.65	COLOR_NAME	57	Neutral	niebieski	blue	Neutral	Neutral	hit	n/a
363.0011	n/a	RESPONSE	n/a	n/a	n/a	n/a	n/a	n/a	n/a	blue
363.0307	1.0167	ITI	n/a	n/a	n/a	n/a	n/a	n/a	n/a	n/a
363.2244	n/a	RESPONSE	n/a	n/a	n/a	n/a	n/a	n/a	n/a	blue
364.0473	0.5166	FIXCROSS	n/a	n/a	n/a	n/a	n/a	n/a	n/a	n/a
364.564	0.7167	COLOR_NAME	58	Neutral	niebieski	blue	Neutral	Neutral	hit	n/a
365.2519	n/a	RESPONSE	n/a	n/a	n/a	n/a	n/a	n/a	n/a	blue
365.2807	1.0167	ITI	n/a	n/a	n/a	n/a	n/a	n/a	n/a	n/a
366.2974	0.5167	FIXCROSS	n/a	n/a	n/a	n/a	n/a	n/a	n/a	n/a
366.814	0.5666	COLOR_NAME	59	Incongruent	żółty	yellow	zielony	green	hit	n/a
367.3591	n/a	RESPONSE	n/a	n/a	n/a	n/a	n/a	n/a	n/a	yellow
367.3807	1.0167	ITI	n/a	n/a	n/a	n/a	n/a	n/a	n/a	n/a
368.3974	0.5167	FIXCROSS	n/a	n/a	n/a	n/a	n/a	n/a	n/a	n/a
368.914	0.6	COLOR_NAME	60	Incongruent	niebieski	blue	żółty	yellow	hit	n/a
369.4822	n/a	RESPONSE	n/a	n/a	n/a	n/a	n/a	n/a	n/a	blue
369.514	1.0167	ITI	n/a	n/a	n/a	n/a	n/a	n/a	n/a	n/a
370.5307	0.5167	FIXCROSS	n/a	n/a	n/a	n/a	n/a	n/a	n/a	n/a
371.0474	0.8667	COLOR_NAME	61	Neutral	żółty	yellow	Neutral	Neutral	hit	n/a
371.8929	n/a	RESPONSE	n/a	n/a	n/a	n/a	n/a	n/a	n/a	yellow
371.9141	1.0167	ITI	n/a	n/a	n/a	n/a	n/a	n/a	n/a	n/a
372.9307	0.5167	FIXCROSS	n/a	n/a	n/a	n/a	n/a	n/a	n/a	n/a
373.4474	0.7333	COLOR_NAME	62	Incongruent	zielony	green	czerwony	red	incorrect	n/a
374.1597	n/a	RESPONSE	n/a	n/a	n/a	n/a	n/a	n/a	n/a	blue
374.1807	1.0167	ITI	n/a	n/a	n/a	n/a	n/a	n/a	n/a	n/a
375.1974	0.5167	FIXCROSS	n/a	n/a	n/a	n/a	n/a	n/a	n/a	n/a
375.7141	0.65	COLOR_NAME	63	Neutral	żółty	yellow	Neutral	Neutral	hit	n/a
376.3467	n/a	RESPONSE	n/a	n/a	n/a	n/a	n/a	n/a	n/a	yellow
376.3641	1.0167	ITI	n/a	n/a	n/a	n/a	n/a	n/a	n/a	n/a
377.3808	0.5167	FIXCROSS	n/a	n/a	n/a	n/a	n/a	n/a	n/a	n/a
377.8974	0.6666	COLOR_NAME	64	Neutral	czerwony	red	Neutral	Neutral	hit	n/a
378.5338	n/a	RESPONSE	n/a	n/a	n/a	n/a	n/a	n/a	n/a	red
378.5641	1.0167	ITI	n/a	n/a	n/a	n/a	n/a	n/a	n/a	n/a
379.5808	0.5166	FIXCROSS	n/a	n/a	n/a	n/a	n/a	n/a	n/a	n/a
380.0974	0.65	COLOR_NAME	65	Neutral	żółty	yellow	Neutral	Neutral	hit	n/a
380.7209	n/a	RESPONSE	n/a	n/a	n/a	n/a	n/a	n/a	n/a	yellow
380.7474	1.0167	ITI	n/a	n/a	n/a	n/a	n/a	n/a	n/a	n/a
381.7641	0.5167	FIXCROSS	n/a	n/a	n/a	n/a	n/a	n/a	n/a	n/a
382.2808	0.85	COLOR_NAME	66	Incongruent	niebieski	blue	czerwony	red	hit	n/a
383.0993	n/a	RESPONSE	n/a	n/a	n/a	n/a	n/a	n/a	n/a	blue
383.1308	1.0167	ITI	n/a	n/a	n/a	n/a	n/a	n/a	n/a	n/a
384.1475	0.5167	FIXCROSS	n/a	n/a	n/a	n/a	n/a	n/a	n/a	n/a
384.6642	0.9167	COLOR_NAME	67	Incongruent	zielony	green	czerwony	red	hit	n/a
385.5578	n/a	RESPONSE	n/a	n/a	n/a	n/a	n/a	n/a	n/a	green
385.5808	1.0167	ITI	n/a	n/a	n/a	n/a	n/a	n/a	n/a	n/a
386.5975	0.5166	FIXCROSS	n/a	n/a	n/a	n/a	n/a	n/a	n/a	n/a
387.1141	0.75	COLOR_NAME	68	Incongruent	żółty	yellow	czerwony	red	hit	n/a
387.8407	n/a	RESPONSE	n/a	n/a	n/a	n/a	n/a	n/a	n/a	yellow
387.8642	1.0167	ITI	n/a	n/a	n/a	n/a	n/a	n/a	n/a	n/a
388.8809	0.5167	FIXCROSS	n/a	n/a	n/a	n/a	n/a	n/a	n/a	n/a
389.3975	0.7333	COLOR_NAME	69	Neutral	zielony	green	Neutral	Neutral	hit	n/a
390.1075	n/a	RESPONSE	n/a	n/a	n/a	n/a	n/a	n/a	n/a	green
390.1309	1.0166	ITI	n/a	n/a	n/a	n/a	n/a	n/a	n/a	n/a
391.1475	0.5167	FIXCROSS	n/a	n/a	n/a	n/a	n/a	n/a	n/a	n/a
391.6642	0.85	COLOR_NAME	70	Incongruent	zielony	green	czerwony	red	hit	n/a
392.4861	n/a	RESPONSE	n/a	n/a	n/a	n/a	n/a	n/a	n/a	green
392.5142	1.0167	ITI	n/a	n/a	n/a	n/a	n/a	n/a	n/a	n/a
393.5309	0.5167	FIXCROSS	n/a	n/a	n/a	n/a	n/a	n/a	n/a	n/a
394.0476	0.7167	COLOR_NAME	71	Incongruent	żółty	yellow	zielony	green	hit	n/a
394.737	n/a	RESPONSE	n/a	n/a	n/a	n/a	n/a	n/a	n/a	yellow
394.7642	1.0167	ITI	n/a	n/a	n/a	n/a	n/a	n/a	n/a	n/a
395.7809	0.5167	FIXCROSS	n/a	n/a	n/a	n/a	n/a	n/a	n/a	n/a
396.2976	0.7	COLOR_NAME	72	Neutral	niebieski	blue	Neutral	Neutral	hit	n/a
396.9719	n/a	RESPONSE	n/a	n/a	n/a	n/a	n/a	n/a	n/a	blue
396.9976	1.0333	ITI	n/a	n/a	n/a	n/a	n/a	n/a	n/a	n/a
399.2069	n/a	RESPONSE	n/a	n/a	n/a	n/a	n/a	n/a	n/a	n/a
