onset	duration	trial_type	trial_number	stroop_condition	stim_text(PL)	stim_text(eng)	stim_color(PL)	stim_color(eng)	response_type	response_color
0.0	n/a	RESPONSE	n/a	n/a	n/a	n/a	n/a	n/a	n/a	n/a
58.2916	n/a	RESPONSE	n/a	n/a	n/a	n/a	n/a	n/a	n/a	yellow
58.3396	n/a	RESPONSE	n/a	n/a	n/a	n/a	n/a	n/a	n/a	yellow
59.2194	n/a	RESPONSE	n/a	n/a	n/a	n/a	n/a	n/a	n/a	yellow
68.0175	n/a	RESPONSE	n/a	n/a	n/a	n/a	n/a	n/a	n/a	n/a
68.0838	1.0334	ITI	n/a	n/a	n/a	n/a	n/a	n/a	n/a	n/a
69.1172	0.5167	FIXCROSS	n/a	n/a	n/a	n/a	n/a	n/a	n/a	n/a
69.6338	1.6	T_INK	1	Incongruent	zielony	green	żółty	yellow	hit	n/a
71.2008	n/a	RESPONSE	n/a	n/a	n/a	n/a	n/a	n/a	n/a	yellow
71.2339	0.5167	FEEDBACK	n/a	n/a	n/a	n/a	n/a	n/a	n/a	n/a
71.7505	1.0167	ITI	n/a	n/a	n/a	n/a	n/a	n/a	n/a	n/a
72.7672	0.5167	FIXCROSS	n/a	n/a	n/a	n/a	n/a	n/a	n/a	n/a
73.2839	1.0667	T_INK	2	Neutral	xxxxxxxxx	xxxxxxxxx	zielony	green	incorrect	n/a
74.3201	n/a	RESPONSE	n/a	n/a	n/a	n/a	n/a	n/a	n/a	yellow
74.3506	0.5167	FEEDBACK	n/a	n/a	n/a	n/a	n/a	n/a	n/a	n/a
74.8672	1.0167	ITI	n/a	n/a	n/a	n/a	n/a	n/a	n/a	n/a
75.8839	0.5167	FIXCROSS	n/a	n/a	n/a	n/a	n/a	n/a	n/a	n/a
76.4006	0.7667	T_INK	3	Incongruent	żółty	yellow	czerwony	red	hit	n/a
77.1355	n/a	RESPONSE	n/a	n/a	n/a	n/a	n/a	n/a	n/a	red
77.1673	0.5167	FEEDBACK	n/a	n/a	n/a	n/a	n/a	n/a	n/a	n/a
77.6839	1.0167	ITI	n/a	n/a	n/a	n/a	n/a	n/a	n/a	n/a
78.7006	0.5167	FIXCROSS	n/a	n/a	n/a	n/a	n/a	n/a	n/a	n/a
79.2173	0.7167	T_INK	4	Incongruent	żółty	yellow	zielony	green	hit	n/a
79.9029	n/a	RESPONSE	n/a	n/a	n/a	n/a	n/a	n/a	n/a	green
79.934	0.5167	FEEDBACK	n/a	n/a	n/a	n/a	n/a	n/a	n/a	n/a
80.4507	1.0167	ITI	n/a	n/a	n/a	n/a	n/a	n/a	n/a	n/a
81.4673	0.5167	FIXCROSS	n/a	n/a	n/a	n/a	n/a	n/a	n/a	n/a
81.984	0.6667	T_INK	5	Neutral	xxxxx	xxxxx	niebieski	blue	hit	n/a
82.6223	n/a	RESPONSE	n/a	n/a	n/a	n/a	n/a	n/a	n/a	blue
82.6507	0.5167	FEEDBACK	n/a	n/a	n/a	n/a	n/a	n/a	n/a	n/a
83.1673	1.0167	ITI	n/a	n/a	n/a	n/a	n/a	n/a	n/a	n/a
84.184	0.5167	FIXCROSS	n/a	n/a	n/a	n/a	n/a	n/a	n/a	n/a
84.7007	0.6333	T_INK	6	Neutral	xxxxxxxx	xxxxxxxx	niebieski	blue	hit	n/a
85.3097	n/a	RESPONSE	n/a	n/a	n/a	n/a	n/a	n/a	n/a	blue
85.334	0.5167	FEEDBACK	n/a	n/a	n/a	n/a	n/a	n/a	n/a	n/a
85.8507	1.0167	ITI	n/a	n/a	n/a	n/a	n/a	n/a	n/a	n/a
86.8674	0.5167	FIXCROSS	n/a	n/a	n/a	n/a	n/a	n/a	n/a	n/a
87.3841	0.7	T_INK	7	Neutral	xxxxxxx	xxxxxxx	czerwony	red	hit	n/a
88.0611	n/a	RESPONSE	n/a	n/a	n/a	n/a	n/a	n/a	n/a	red
88.0841	0.5167	FEEDBACK	n/a	n/a	n/a	n/a	n/a	n/a	n/a	n/a
88.6007	1.0167	ITI	n/a	n/a	n/a	n/a	n/a	n/a	n/a	n/a
89.6174	0.5167	FIXCROSS	n/a	n/a	n/a	n/a	n/a	n/a	n/a	n/a
90.1341	0.65	T_INK	8	Neutral	xxxxxxxx	xxxxxxxx	żółty	yellow	hit	n/a
90.7646	n/a	RESPONSE	n/a	n/a	n/a	n/a	n/a	n/a	n/a	yellow
90.7841	0.5167	FEEDBACK	n/a	n/a	n/a	n/a	n/a	n/a	n/a	n/a
91.3008	1.0167	ITI	n/a	n/a	n/a	n/a	n/a	n/a	n/a	n/a
92.3175	0.5167	FIXCROSS	n/a	n/a	n/a	n/a	n/a	n/a	n/a	n/a
92.8341	0.75	T_INK	9	Neutral	xxxxx	xxxxx	zielony	green	hit	n/a
93.5639	n/a	RESPONSE	n/a	n/a	n/a	n/a	n/a	n/a	n/a	green
93.5841	0.5167	FEEDBACK	n/a	n/a	n/a	n/a	n/a	n/a	n/a	n/a
94.1008	1.0167	ITI	n/a	n/a	n/a	n/a	n/a	n/a	n/a	n/a
95.1175	0.5167	FIXCROSS	n/a	n/a	n/a	n/a	n/a	n/a	n/a	n/a
95.6342	0.7167	T_INK	10	Incongruent	niebieski	blue	żółty	yellow	hit	n/a
96.3153	n/a	RESPONSE	n/a	n/a	n/a	n/a	n/a	n/a	n/a	yellow
96.3508	0.5167	FEEDBACK	n/a	n/a	n/a	n/a	n/a	n/a	n/a	n/a
96.8675	1.0167	ITI	n/a	n/a	n/a	n/a	n/a	n/a	n/a	n/a
97.8842	0.5167	FIXCROSS	n/a	n/a	n/a	n/a	n/a	n/a	n/a	n/a
98.4009	0.8333	T_INK	11	Neutral	xxxxx	xxxxx	czerwony	red	hit	n/a
99.2107	n/a	RESPONSE	n/a	n/a	n/a	n/a	n/a	n/a	n/a	red
99.2342	0.5167	FEEDBACK	n/a	n/a	n/a	n/a	n/a	n/a	n/a	n/a
99.7509	1.0167	ITI	n/a	n/a	n/a	n/a	n/a	n/a	n/a	n/a
100.7676	0.5167	FIXCROSS	n/a	n/a	n/a	n/a	n/a	n/a	n/a	n/a
101.2842	0.6833	T_INK	12	Neutral	xxxxxxx	xxxxxxx	żółty	yellow	hit	n/a
101.9461	n/a	RESPONSE	n/a	n/a	n/a	n/a	n/a	n/a	n/a	yellow
101.9676	0.5167	FEEDBACK	n/a	n/a	n/a	n/a	n/a	n/a	n/a	n/a
102.4842	1.0334	ITI	n/a	n/a	n/a	n/a	n/a	n/a	n/a	n/a
116.359	n/a	RESPONSE	n/a	n/a	n/a	n/a	n/a	n/a	n/a	n/a
116.4177	1.0167	ITI	n/a	n/a	n/a	n/a	n/a	n/a	n/a	n/a
117.4344	0.5167	FIXCROSS	n/a	n/a	n/a	n/a	n/a	n/a	n/a	n/a
117.9511	0.9167	INK	1	Neutral	xxxxxxx	xxxxxxx	czerwony	red	hit	n/a
118.8385	n/a	RESPONSE	n/a	n/a	n/a	n/a	n/a	n/a	n/a	red
118.8678	1.0167	ITI	n/a	n/a	n/a	n/a	n/a	n/a	n/a	n/a
119.8844	0.5167	FIXCROSS	n/a	n/a	n/a	n/a	n/a	n/a	n/a	n/a
120.4011	1.1	INK	2	Incongruent	czerwony	red	zielony	green	hit	n/a
121.4779	n/a	RESPONSE	n/a	n/a	n/a	n/a	n/a	n/a	n/a	green
121.5011	1.0167	ITI	n/a	n/a	n/a	n/a	n/a	n/a	n/a	n/a
122.5178	0.5167	FIXCROSS	n/a	n/a	n/a	n/a	n/a	n/a	n/a	n/a
123.0345	0.6	INK	3	Neutral	xxxxx	xxxxx	czerwony	red	hit	n/a
123.6054	n/a	RESPONSE	n/a	n/a	n/a	n/a	n/a	n/a	n/a	red
123.6345	1.0167	ITI	n/a	n/a	n/a	n/a	n/a	n/a	n/a	n/a
124.6512	0.5167	FIXCROSS	n/a	n/a	n/a	n/a	n/a	n/a	n/a	n/a
125.1678	0.7667	INK	4	Neutral	xxxxx	xxxxx	zielony	green	hit	n/a
125.9089	n/a	RESPONSE	n/a	n/a	n/a	n/a	n/a	n/a	n/a	green
125.9345	1.0167	ITI	n/a	n/a	n/a	n/a	n/a	n/a	n/a	n/a
126.9512	0.5167	FIXCROSS	n/a	n/a	n/a	n/a	n/a	n/a	n/a	n/a
127.4679	0.7333	INK	5	Neutral	xxxxxxxxx	xxxxxxxxx	czerwony	red	hit	n/a
128.1804	n/a	RESPONSE	n/a	n/a	n/a	n/a	n/a	n/a	n/a	red
128.2012	1.0167	ITI	n/a	n/a	n/a	n/a	n/a	n/a	n/a	n/a
129.2179	0.5167	FIXCROSS	n/a	n/a	n/a	n/a	n/a	n/a	n/a	n/a
129.7346	0.6667	INK	6	Neutral	xxxxxxxx	xxxxxxxx	niebieski	blue	hit	n/a
130.372	n/a	RESPONSE	n/a	n/a	n/a	n/a	n/a	n/a	n/a	blue
130.4012	1.0167	ITI	n/a	n/a	n/a	n/a	n/a	n/a	n/a	n/a
131.4179	0.5167	FIXCROSS	n/a	n/a	n/a	n/a	n/a	n/a	n/a	n/a
131.9346	0.6167	INK	7	Incongruent	zielony	green	niebieski	blue	hit	n/a
132.5315	n/a	RESPONSE	n/a	n/a	n/a	n/a	n/a	n/a	n/a	blue
132.5513	1.0167	ITI	n/a	n/a	n/a	n/a	n/a	n/a	n/a	n/a
133.5679	0.5167	FIXCROSS	n/a	n/a	n/a	n/a	n/a	n/a	n/a	n/a
134.0846	0.5834	INK	8	Neutral	xxxxxxxx	xxxxxxxx	żółty	yellow	hit	n/a
134.643	n/a	RESPONSE	n/a	n/a	n/a	n/a	n/a	n/a	n/a	yellow
134.668	1.0167	ITI	n/a	n/a	n/a	n/a	n/a	n/a	n/a	n/a
135.6846	0.5167	FIXCROSS	n/a	n/a	n/a	n/a	n/a	n/a	n/a	n/a
136.2013	0.6833	INK	9	Neutral	xxxxxxxx	xxxxxxxx	zielony	green	hit	n/a
136.8666	n/a	RESPONSE	n/a	n/a	n/a	n/a	n/a	n/a	n/a	green
136.8846	1.0167	ITI	n/a	n/a	n/a	n/a	n/a	n/a	n/a	n/a
137.9013	0.5167	FIXCROSS	n/a	n/a	n/a	n/a	n/a	n/a	n/a	n/a
138.418	0.5333	INK	10	Neutral	xxxxxxxxx	xxxxxxxxx	czerwony	red	hit	n/a
138.9301	n/a	RESPONSE	n/a	n/a	n/a	n/a	n/a	n/a	n/a	red
138.9513	1.0167	ITI	n/a	n/a	n/a	n/a	n/a	n/a	n/a	n/a
139.968	0.5167	FIXCROSS	n/a	n/a	n/a	n/a	n/a	n/a	n/a	n/a
140.4847	0.7833	INK	11	Incongruent	czerwony	red	żółty	yellow	hit	n/a
141.2496	n/a	RESPONSE	n/a	n/a	n/a	n/a	n/a	n/a	n/a	yellow
141.268	1.0167	ITI	n/a	n/a	n/a	n/a	n/a	n/a	n/a	n/a
142.2847	0.5167	FIXCROSS	n/a	n/a	n/a	n/a	n/a	n/a	n/a	n/a
142.8014	1.1333	INK	12	Neutral	xxxxxxxxx	xxxxxxxxx	zielony	green	hit	n/a
143.905	n/a	RESPONSE	n/a	n/a	n/a	n/a	n/a	n/a	n/a	green
143.9347	1.0167	ITI	n/a	n/a	n/a	n/a	n/a	n/a	n/a	n/a
144.9514	0.5167	FIXCROSS	n/a	n/a	n/a	n/a	n/a	n/a	n/a	n/a
145.4681	0.6334	INK	13	Incongruent	niebieski	blue	żółty	yellow	hit	n/a
146.0806	n/a	RESPONSE	n/a	n/a	n/a	n/a	n/a	n/a	n/a	yellow
146.1014	1.0167	ITI	n/a	n/a	n/a	n/a	n/a	n/a	n/a	n/a
147.1181	0.5167	FIXCROSS	n/a	n/a	n/a	n/a	n/a	n/a	n/a	n/a
147.6348	0.7667	INK	14	Incongruent	żółty	yellow	niebieski	blue	hit	n/a
148.3841	n/a	RESPONSE	n/a	n/a	n/a	n/a	n/a	n/a	n/a	blue
148.4014	1.0167	ITI	n/a	n/a	n/a	n/a	n/a	n/a	n/a	n/a
149.4181	0.5167	FIXCROSS	n/a	n/a	n/a	n/a	n/a	n/a	n/a	n/a
149.9348	0.8833	INK	15	Neutral	xxxxxxxx	xxxxxxxx	zielony	green	hit	n/a
150.7835	n/a	RESPONSE	n/a	n/a	n/a	n/a	n/a	n/a	n/a	green
150.8181	1.0167	ITI	n/a	n/a	n/a	n/a	n/a	n/a	n/a	n/a
151.8348	0.5167	FIXCROSS	n/a	n/a	n/a	n/a	n/a	n/a	n/a	n/a
152.3515	0.7667	INK	16	Incongruent	czerwony	red	niebieski	blue	hit	n/a
153.0871	n/a	RESPONSE	n/a	n/a	n/a	n/a	n/a	n/a	n/a	blue
153.1182	1.0167	ITI	n/a	n/a	n/a	n/a	n/a	n/a	n/a	n/a
154.1348	0.5167	FIXCROSS	n/a	n/a	n/a	n/a	n/a	n/a	n/a	n/a
154.6515	0.6333	INK	17	Incongruent	żółty	yellow	niebieski	blue	hit	n/a
155.2626	n/a	RESPONSE	n/a	n/a	n/a	n/a	n/a	n/a	n/a	blue
155.2849	1.0167	ITI	n/a	n/a	n/a	n/a	n/a	n/a	n/a	n/a
156.3015	0.5167	FIXCROSS	n/a	n/a	n/a	n/a	n/a	n/a	n/a	n/a
156.8182	0.7333	INK	18	Incongruent	niebieski	blue	żółty	yellow	hit	n/a
157.5181	n/a	RESPONSE	n/a	n/a	n/a	n/a	n/a	n/a	n/a	yellow
157.5515	1.0167	ITI	n/a	n/a	n/a	n/a	n/a	n/a	n/a	n/a
158.5682	0.5167	FIXCROSS	n/a	n/a	n/a	n/a	n/a	n/a	n/a	n/a
159.0849	0.6	INK	19	Neutral	xxxxx	xxxxx	czerwony	red	hit	n/a
159.6617	n/a	RESPONSE	n/a	n/a	n/a	n/a	n/a	n/a	n/a	red
159.6849	1.0167	ITI	n/a	n/a	n/a	n/a	n/a	n/a	n/a	n/a
160.7016	0.5167	FIXCROSS	n/a	n/a	n/a	n/a	n/a	n/a	n/a	n/a
161.2183	0.7167	INK	20	Neutral	xxxxxxxx	xxxxxxxx	niebieski	blue	hit	n/a
161.9172	n/a	RESPONSE	n/a	n/a	n/a	n/a	n/a	n/a	n/a	blue
161.9349	1.0167	ITI	n/a	n/a	n/a	n/a	n/a	n/a	n/a	n/a
162.9516	0.5167	FIXCROSS	n/a	n/a	n/a	n/a	n/a	n/a	n/a	n/a
163.4683	0.4667	INK	21	Neutral	xxxxxxxxx	xxxxxxxxx	żółty	yellow	hit	n/a
163.9167	n/a	RESPONSE	n/a	n/a	n/a	n/a	n/a	n/a	n/a	yellow
163.935	1.0167	ITI	n/a	n/a	n/a	n/a	n/a	n/a	n/a	n/a
164.9516	0.5167	FIXCROSS	n/a	n/a	n/a	n/a	n/a	n/a	n/a	n/a
165.4683	0.4833	INK	22	Neutral	xxxxx	xxxxx	niebieski	blue	hit	n/a
165.9323	n/a	RESPONSE	n/a	n/a	n/a	n/a	n/a	n/a	n/a	blue
165.9516	1.0167	ITI	n/a	n/a	n/a	n/a	n/a	n/a	n/a	n/a
166.9683	0.5167	FIXCROSS	n/a	n/a	n/a	n/a	n/a	n/a	n/a	n/a
167.485	0.4667	INK	23	Incongruent	niebieski	blue	żółty	yellow	hit	n/a
167.9318	n/a	RESPONSE	n/a	n/a	n/a	n/a	n/a	n/a	n/a	yellow
167.9517	1.0167	ITI	n/a	n/a	n/a	n/a	n/a	n/a	n/a	n/a
168.9683	0.5167	FIXCROSS	n/a	n/a	n/a	n/a	n/a	n/a	n/a	n/a
169.485	0.65	INK	24	Neutral	xxxxxxxx	xxxxxxxx	niebieski	blue	hit	n/a
170.1074	n/a	RESPONSE	n/a	n/a	n/a	n/a	n/a	n/a	n/a	blue
170.135	1.0167	ITI	n/a	n/a	n/a	n/a	n/a	n/a	n/a	n/a
171.1517	0.5167	FIXCROSS	n/a	n/a	n/a	n/a	n/a	n/a	n/a	n/a
171.6684	0.8834	INK	25	Incongruent	zielony	green	czerwony	red	hit	n/a
172.5228	n/a	RESPONSE	n/a	n/a	n/a	n/a	n/a	n/a	n/a	red
172.5517	1.0167	ITI	n/a	n/a	n/a	n/a	n/a	n/a	n/a	n/a
173.5684	0.5167	FIXCROSS	n/a	n/a	n/a	n/a	n/a	n/a	n/a	n/a
174.0851	0.5667	INK	26	Incongruent	żółty	yellow	czerwony	red	hit	n/a
174.6344	n/a	RESPONSE	n/a	n/a	n/a	n/a	n/a	n/a	n/a	red
174.6517	1.0167	ITI	n/a	n/a	n/a	n/a	n/a	n/a	n/a	n/a
175.6684	0.5167	FIXCROSS	n/a	n/a	n/a	n/a	n/a	n/a	n/a	n/a
176.1851	0.65	INK	27	Neutral	xxxxxxxx	xxxxxxxx	żółty	yellow	hit	n/a
176.81	n/a	RESPONSE	n/a	n/a	n/a	n/a	n/a	n/a	n/a	yellow
176.8351	1.0167	ITI	n/a	n/a	n/a	n/a	n/a	n/a	n/a	n/a
177.8518	0.5167	FIXCROSS	n/a	n/a	n/a	n/a	n/a	n/a	n/a	n/a
178.3685	0.7167	INK	28	Incongruent	niebieski	blue	zielony	green	hit	n/a
179.0654	n/a	RESPONSE	n/a	n/a	n/a	n/a	n/a	n/a	n/a	green
179.0851	1.0167	ITI	n/a	n/a	n/a	n/a	n/a	n/a	n/a	n/a
180.1018	0.5167	FIXCROSS	n/a	n/a	n/a	n/a	n/a	n/a	n/a	n/a
180.6185	0.7333	INK	29	Incongruent	zielony	green	żółty	yellow	hit	n/a
181.321	n/a	RESPONSE	n/a	n/a	n/a	n/a	n/a	n/a	n/a	yellow
181.3518	1.0167	ITI	n/a	n/a	n/a	n/a	n/a	n/a	n/a	n/a
182.3685	0.5167	FIXCROSS	n/a	n/a	n/a	n/a	n/a	n/a	n/a	n/a
182.8852	0.2833	INK	30	Incongruent	zielony	green	czerwony	red	incorrect	n/a
183.1445	n/a	RESPONSE	n/a	n/a	n/a	n/a	n/a	n/a	n/a	yellow
183.1685	1.0167	ITI	n/a	n/a	n/a	n/a	n/a	n/a	n/a	n/a
184.1852	0.5167	FIXCROSS	n/a	n/a	n/a	n/a	n/a	n/a	n/a	n/a
184.7019	0.6167	INK	31	Incongruent	zielony	green	żółty	yellow	hit	n/a
185.2881	n/a	RESPONSE	n/a	n/a	n/a	n/a	n/a	n/a	n/a	yellow
185.3185	1.0167	ITI	n/a	n/a	n/a	n/a	n/a	n/a	n/a	n/a
186.3352	0.5167	FIXCROSS	n/a	n/a	n/a	n/a	n/a	n/a	n/a	n/a
186.8519	0.9167	INK	32	Neutral	xxxxxxxx	xxxxxxxx	zielony	green	hit	n/a
187.7356	n/a	RESPONSE	n/a	n/a	n/a	n/a	n/a	n/a	n/a	green
187.7686	1.0167	ITI	n/a	n/a	n/a	n/a	n/a	n/a	n/a	n/a
188.7852	0.5167	FIXCROSS	n/a	n/a	n/a	n/a	n/a	n/a	n/a	n/a
189.3019	0.8833	INK	33	Incongruent	czerwony	red	zielony	green	hit	n/a
190.167	n/a	RESPONSE	n/a	n/a	n/a	n/a	n/a	n/a	n/a	green
190.1853	1.0167	ITI	n/a	n/a	n/a	n/a	n/a	n/a	n/a	n/a
191.2019	0.5167	FIXCROSS	n/a	n/a	n/a	n/a	n/a	n/a	n/a	n/a
191.7186	0.6833	INK	34	Incongruent	żółty	yellow	czerwony	red	hit	n/a
192.3746	n/a	RESPONSE	n/a	n/a	n/a	n/a	n/a	n/a	n/a	red
192.4019	1.0167	ITI	n/a	n/a	n/a	n/a	n/a	n/a	n/a	n/a
193.4186	0.5167	FIXCROSS	n/a	n/a	n/a	n/a	n/a	n/a	n/a	n/a
193.9353	0.7833	INK	35	Neutral	xxxxxxx	xxxxxxx	żółty	yellow	hit	n/a
194.6941	n/a	RESPONSE	n/a	n/a	n/a	n/a	n/a	n/a	n/a	yellow
194.7186	1.0167	ITI	n/a	n/a	n/a	n/a	n/a	n/a	n/a	n/a
195.7353	0.5167	FIXCROSS	n/a	n/a	n/a	n/a	n/a	n/a	n/a	n/a
196.252	0.7667	INK	36	Incongruent	niebieski	blue	zielony	green	hit	n/a
196.9975	n/a	RESPONSE	n/a	n/a	n/a	n/a	n/a	n/a	n/a	green
197.0187	1.0167	ITI	n/a	n/a	n/a	n/a	n/a	n/a	n/a	n/a
198.0353	0.5167	FIXCROSS	n/a	n/a	n/a	n/a	n/a	n/a	n/a	n/a
198.552	0.8833	INK	37	Incongruent	niebieski	blue	czerwony	red	incorrect	n/a
199.413	n/a	RESPONSE	n/a	n/a	n/a	n/a	n/a	n/a	n/a	blue
199.4354	1.0167	ITI	n/a	n/a	n/a	n/a	n/a	n/a	n/a	n/a
200.452	0.5167	FIXCROSS	n/a	n/a	n/a	n/a	n/a	n/a	n/a	n/a
200.9687	0.7167	INK	38	Incongruent	zielony	green	czerwony	red	hit	n/a
201.6526	n/a	RESPONSE	n/a	n/a	n/a	n/a	n/a	n/a	n/a	red
201.6854	1.0167	ITI	n/a	n/a	n/a	n/a	n/a	n/a	n/a	n/a
202.7021	0.5167	FIXCROSS	n/a	n/a	n/a	n/a	n/a	n/a	n/a	n/a
203.2187	0.6	INK	39	Incongruent	czerwony	red	niebieski	blue	hit	n/a
203.7961	n/a	RESPONSE	n/a	n/a	n/a	n/a	n/a	n/a	n/a	blue
203.8188	1.0167	ITI	n/a	n/a	n/a	n/a	n/a	n/a	n/a	n/a
204.8354	0.5167	FIXCROSS	n/a	n/a	n/a	n/a	n/a	n/a	n/a	n/a
205.3521	0.7667	INK	40	Neutral	xxxxxxxxx	xxxxxxxxx	żółty	yellow	hit	n/a
206.0996	n/a	RESPONSE	n/a	n/a	n/a	n/a	n/a	n/a	n/a	yellow
206.1188	1.0167	ITI	n/a	n/a	n/a	n/a	n/a	n/a	n/a	n/a
207.1355	0.5167	FIXCROSS	n/a	n/a	n/a	n/a	n/a	n/a	n/a	n/a
207.6521	0.6667	INK	41	Neutral	xxxxx	xxxxx	zielony	green	hit	n/a
208.2911	n/a	RESPONSE	n/a	n/a	n/a	n/a	n/a	n/a	n/a	green
208.3188	1.0167	ITI	n/a	n/a	n/a	n/a	n/a	n/a	n/a	n/a
209.3355	0.5167	FIXCROSS	n/a	n/a	n/a	n/a	n/a	n/a	n/a	n/a
209.8522	0.6833	INK	42	Incongruent	żółty	yellow	czerwony	red	hit	n/a
210.5147	n/a	RESPONSE	n/a	n/a	n/a	n/a	n/a	n/a	n/a	red
210.5355	1.0167	ITI	n/a	n/a	n/a	n/a	n/a	n/a	n/a	n/a
211.5522	0.5167	FIXCROSS	n/a	n/a	n/a	n/a	n/a	n/a	n/a	n/a
212.0688	0.7167	INK	43	Incongruent	żółty	yellow	zielony	green	incorrect	n/a
212.7542	n/a	RESPONSE	n/a	n/a	n/a	n/a	n/a	n/a	n/a	yellow
212.7855	1.0167	ITI	n/a	n/a	n/a	n/a	n/a	n/a	n/a	n/a
213.8022	0.5167	FIXCROSS	n/a	n/a	n/a	n/a	n/a	n/a	n/a	n/a
214.3189	0.7167	INK	44	Incongruent	niebieski	blue	czerwony	red	hit	n/a
215.0097	n/a	RESPONSE	n/a	n/a	n/a	n/a	n/a	n/a	n/a	red
215.0355	1.0167	ITI	n/a	n/a	n/a	n/a	n/a	n/a	n/a	n/a
216.0522	0.5167	FIXCROSS	n/a	n/a	n/a	n/a	n/a	n/a	n/a	n/a
216.5689	0.6	INK	45	Incongruent	czerwony	red	żółty	yellow	hit	n/a
217.1372	n/a	RESPONSE	n/a	n/a	n/a	n/a	n/a	n/a	n/a	yellow
217.1689	1.0167	ITI	n/a	n/a	n/a	n/a	n/a	n/a	n/a	n/a
218.1856	0.5167	FIXCROSS	n/a	n/a	n/a	n/a	n/a	n/a	n/a	n/a
218.7023	0.6167	INK	46	Neutral	xxxxxxx	xxxxxxx	niebieski	blue	hit	n/a
219.2967	n/a	RESPONSE	n/a	n/a	n/a	n/a	n/a	n/a	n/a	blue
219.3189	1.0167	ITI	n/a	n/a	n/a	n/a	n/a	n/a	n/a	n/a
220.3356	0.5167	FIXCROSS	n/a	n/a	n/a	n/a	n/a	n/a	n/a	n/a
220.8523	0.5	INK	47	Incongruent	czerwony	red	niebieski	blue	hit	n/a
221.3283	n/a	RESPONSE	n/a	n/a	n/a	n/a	n/a	n/a	n/a	blue
221.3523	1.0167	ITI	n/a	n/a	n/a	n/a	n/a	n/a	n/a	n/a
222.369	0.5167	FIXCROSS	n/a	n/a	n/a	n/a	n/a	n/a	n/a	n/a
222.8856	0.65	INK	48	Neutral	xxxxx	xxxxx	zielony	green	hit	n/a
223.5038	n/a	RESPONSE	n/a	n/a	n/a	n/a	n/a	n/a	n/a	green
223.5357	1.0167	ITI	n/a	n/a	n/a	n/a	n/a	n/a	n/a	n/a
224.5523	0.5167	FIXCROSS	n/a	n/a	n/a	n/a	n/a	n/a	n/a	n/a
225.069	0.7333	INK	49	Incongruent	żółty	yellow	zielony	green	hit	n/a
225.7753	n/a	RESPONSE	n/a	n/a	n/a	n/a	n/a	n/a	n/a	green
225.8023	1.0167	ITI	n/a	n/a	n/a	n/a	n/a	n/a	n/a	n/a
226.819	0.5167	FIXCROSS	n/a	n/a	n/a	n/a	n/a	n/a	n/a	n/a
227.3357	0.65	INK	50	Neutral	xxxxxxx	xxxxxxx	czerwony	red	hit	n/a
227.9669	n/a	RESPONSE	n/a	n/a	n/a	n/a	n/a	n/a	n/a	red
227.9857	1.0167	ITI	n/a	n/a	n/a	n/a	n/a	n/a	n/a	n/a
229.0024	0.5167	FIXCROSS	n/a	n/a	n/a	n/a	n/a	n/a	n/a	n/a
229.519	0.6333	INK	51	Neutral	xxxxxxx	xxxxxxx	czerwony	red	hit	n/a
230.1264	n/a	RESPONSE	n/a	n/a	n/a	n/a	n/a	n/a	n/a	red
230.1524	1.0167	ITI	n/a	n/a	n/a	n/a	n/a	n/a	n/a	n/a
231.1691	0.5167	FIXCROSS	n/a	n/a	n/a	n/a	n/a	n/a	n/a	n/a
231.6857	0.8167	INK	52	Incongruent	zielony	green	żółty	yellow	hit	n/a
232.4779	n/a	RESPONSE	n/a	n/a	n/a	n/a	n/a	n/a	n/a	yellow
232.5024	1.0167	ITI	n/a	n/a	n/a	n/a	n/a	n/a	n/a	n/a
233.5191	0.5167	FIXCROSS	n/a	n/a	n/a	n/a	n/a	n/a	n/a	n/a
234.0358	0.65	INK	53	Neutral	xxxxx	xxxxx	czerwony	red	hit	n/a
234.6534	n/a	RESPONSE	n/a	n/a	n/a	n/a	n/a	n/a	n/a	red
234.6858	1.0167	ITI	n/a	n/a	n/a	n/a	n/a	n/a	n/a	n/a
235.7025	0.5167	FIXCROSS	n/a	n/a	n/a	n/a	n/a	n/a	n/a	n/a
236.2191	0.75	INK	54	Incongruent	żółty	yellow	zielony	green	hit	n/a
236.9409	n/a	RESPONSE	n/a	n/a	n/a	n/a	n/a	n/a	n/a	green
236.9691	1.0167	ITI	n/a	n/a	n/a	n/a	n/a	n/a	n/a	n/a
237.9858	0.5167	FIXCROSS	n/a	n/a	n/a	n/a	n/a	n/a	n/a	n/a
238.5025	0.6333	INK	55	Neutral	xxxxx	xxxxx	niebieski	blue	hit	n/a
239.1165	n/a	RESPONSE	n/a	n/a	n/a	n/a	n/a	n/a	n/a	blue
239.1358	1.0167	ITI	n/a	n/a	n/a	n/a	n/a	n/a	n/a	n/a
240.1525	0.5167	FIXCROSS	n/a	n/a	n/a	n/a	n/a	n/a	n/a	n/a
240.6692	0.55	INK	56	Incongruent	czerwony	red	zielony	green	incorrect	n/a
241.196	n/a	RESPONSE	n/a	n/a	n/a	n/a	n/a	n/a	n/a	yellow
241.2192	1.0167	ITI	n/a	n/a	n/a	n/a	n/a	n/a	n/a	n/a
242.2359	0.5167	FIXCROSS	n/a	n/a	n/a	n/a	n/a	n/a	n/a	n/a
242.7525	0.5167	INK	57	Neutral	xxxxxxxx	xxxxxxxx	żółty	yellow	hit	n/a
243.2436	n/a	RESPONSE	n/a	n/a	n/a	n/a	n/a	n/a	n/a	yellow
243.2692	1.0167	ITI	n/a	n/a	n/a	n/a	n/a	n/a	n/a	n/a
244.2859	0.5167	FIXCROSS	n/a	n/a	n/a	n/a	n/a	n/a	n/a	n/a
244.8026	0.6	INK	58	Neutral	xxxxx	xxxxx	niebieski	blue	hit	n/a
245.3711	n/a	RESPONSE	n/a	n/a	n/a	n/a	n/a	n/a	n/a	blue
245.4026	1.0167	ITI	n/a	n/a	n/a	n/a	n/a	n/a	n/a	n/a
246.4192	0.5167	FIXCROSS	n/a	n/a	n/a	n/a	n/a	n/a	n/a	n/a
246.9359	0.6	INK	59	Incongruent	zielony	green	niebieski	blue	hit	n/a
247.5146	n/a	RESPONSE	n/a	n/a	n/a	n/a	n/a	n/a	n/a	blue
247.5359	1.0167	ITI	n/a	n/a	n/a	n/a	n/a	n/a	n/a	n/a
248.5526	0.5167	FIXCROSS	n/a	n/a	n/a	n/a	n/a	n/a	n/a	n/a
249.0693	0.6333	INK	60	Neutral	xxxxxxxxx	xxxxxxxxx	zielony	green	hit	n/a
249.6742	n/a	RESPONSE	n/a	n/a	n/a	n/a	n/a	n/a	n/a	green
249.7026	1.0167	ITI	n/a	n/a	n/a	n/a	n/a	n/a	n/a	n/a
250.7193	0.5167	FIXCROSS	n/a	n/a	n/a	n/a	n/a	n/a	n/a	n/a
251.236	0.6833	INK	61	Incongruent	żółty	yellow	niebieski	blue	hit	n/a
251.8977	n/a	RESPONSE	n/a	n/a	n/a	n/a	n/a	n/a	n/a	blue
251.9193	1.0167	ITI	n/a	n/a	n/a	n/a	n/a	n/a	n/a	n/a
252.936	0.5167	FIXCROSS	n/a	n/a	n/a	n/a	n/a	n/a	n/a	n/a
253.4527	0.5833	INK	62	Incongruent	zielony	green	niebieski	blue	hit	n/a
254.0092	n/a	RESPONSE	n/a	n/a	n/a	n/a	n/a	n/a	n/a	blue
254.036	1.0167	ITI	n/a	n/a	n/a	n/a	n/a	n/a	n/a	n/a
255.0527	0.5167	FIXCROSS	n/a	n/a	n/a	n/a	n/a	n/a	n/a	n/a
255.5694	0.6167	INK	63	Neutral	xxxxxxxxx	xxxxxxxxx	zielony	green	incorrect	n/a
256.1528	n/a	RESPONSE	n/a	n/a	n/a	n/a	n/a	n/a	n/a	yellow
256.186	1.0167	ITI	n/a	n/a	n/a	n/a	n/a	n/a	n/a	n/a
257.2027	0.5167	FIXCROSS	n/a	n/a	n/a	n/a	n/a	n/a	n/a	n/a
257.7194	0.7	INK	64	Neutral	xxxxxxx	xxxxxxx	żółty	yellow	hit	n/a
258.3923	n/a	RESPONSE	n/a	n/a	n/a	n/a	n/a	n/a	n/a	yellow
258.4194	1.0167	ITI	n/a	n/a	n/a	n/a	n/a	n/a	n/a	n/a
259.4361	0.5167	FIXCROSS	n/a	n/a	n/a	n/a	n/a	n/a	n/a	n/a
259.9527	0.6167	INK	65	Incongruent	czerwony	red	żółty	yellow	hit	n/a
260.5358	n/a	RESPONSE	n/a	n/a	n/a	n/a	n/a	n/a	n/a	yellow
260.5694	1.0167	ITI	n/a	n/a	n/a	n/a	n/a	n/a	n/a	n/a
261.5861	0.5167	FIXCROSS	n/a	n/a	n/a	n/a	n/a	n/a	n/a	n/a
262.1028	0.65	INK	66	Incongruent	niebieski	blue	czerwony	red	hit	n/a
262.7273	n/a	RESPONSE	n/a	n/a	n/a	n/a	n/a	n/a	n/a	red
262.7528	1.0167	ITI	n/a	n/a	n/a	n/a	n/a	n/a	n/a	n/a
263.7694	0.5167	FIXCROSS	n/a	n/a	n/a	n/a	n/a	n/a	n/a	n/a
264.2861	0.6333	INK	67	Neutral	xxxxxxx	xxxxxxx	niebieski	blue	hit	n/a
264.8869	n/a	RESPONSE	n/a	n/a	n/a	n/a	n/a	n/a	n/a	blue
264.9195	1.0167	ITI	n/a	n/a	n/a	n/a	n/a	n/a	n/a	n/a
265.9361	0.5167	FIXCROSS	n/a	n/a	n/a	n/a	n/a	n/a	n/a	n/a
266.4528	0.75	INK	68	Neutral	xxxxxxxxx	xxxxxxxxx	czerwony	red	hit	n/a
267.1744	n/a	RESPONSE	n/a	n/a	n/a	n/a	n/a	n/a	n/a	red
267.2028	1.0167	ITI	n/a	n/a	n/a	n/a	n/a	n/a	n/a	n/a
268.2195	0.5167	FIXCROSS	n/a	n/a	n/a	n/a	n/a	n/a	n/a	n/a
268.7362	0.5833	INK	69	Neutral	xxxxxxx	xxxxxxx	żółty	yellow	hit	n/a
269.3019	n/a	RESPONSE	n/a	n/a	n/a	n/a	n/a	n/a	n/a	yellow
269.3195	1.0167	ITI	n/a	n/a	n/a	n/a	n/a	n/a	n/a	n/a
270.3362	0.5167	FIXCROSS	n/a	n/a	n/a	n/a	n/a	n/a	n/a	n/a
270.8529	0.45	INK	70	Neutral	xxxxxxxxx	xxxxxxxxx	żółty	yellow	hit	n/a
271.2695	n/a	RESPONSE	n/a	n/a	n/a	n/a	n/a	n/a	n/a	yellow
271.3029	1.0167	ITI	n/a	n/a	n/a	n/a	n/a	n/a	n/a	n/a
272.3195	0.5167	FIXCROSS	n/a	n/a	n/a	n/a	n/a	n/a	n/a	n/a
272.8362	0.5167	INK	71	Neutral	xxxxxxx	xxxxxxx	niebieski	blue	hit	n/a
273.333	n/a	RESPONSE	n/a	n/a	n/a	n/a	n/a	n/a	n/a	blue
273.3529	1.0167	ITI	n/a	n/a	n/a	n/a	n/a	n/a	n/a	n/a
274.3696	0.5167	FIXCROSS	n/a	n/a	n/a	n/a	n/a	n/a	n/a	n/a
274.8862	0.6333	INK	72	Incongruent	niebieski	blue	zielony	green	hit	n/a
275.4925	n/a	RESPONSE	n/a	n/a	n/a	n/a	n/a	n/a	n/a	green
275.5196	1.0833	ITI	n/a	n/a	n/a	n/a	n/a	n/a	n/a	n/a
293.9686	n/a	RESPONSE	n/a	n/a	n/a	n/a	n/a	n/a	n/a	n/a
294.0365	1.0167	ITI	n/a	n/a	n/a	n/a	n/a	n/a	n/a	n/a
295.0531	0.5167	FIXCROSS	n/a	n/a	n/a	n/a	n/a	n/a	n/a	n/a
295.5698	1.0167	T_COLOR_NAME	1	Incongruent	żółty	yellow	czerwony	red	hit	n/a
296.5601	n/a	RESPONSE	n/a	n/a	n/a	n/a	n/a	n/a	n/a	yellow
296.5865	0.5167	FEEDBACK	n/a	n/a	n/a	n/a	n/a	n/a	n/a	n/a
297.1032	1.0167	ITI	n/a	n/a	n/a	n/a	n/a	n/a	n/a	n/a
298.1199	0.5167	FIXCROSS	n/a	n/a	n/a	n/a	n/a	n/a	n/a	n/a
298.6365	0.8667	T_COLOR_NAME	2	Neutral	czerwony	red	Neutral	Neutral	hit	n/a
299.4714	n/a	RESPONSE	n/a	n/a	n/a	n/a	n/a	n/a	n/a	red
299.5032	0.5167	FEEDBACK	n/a	n/a	n/a	n/a	n/a	n/a	n/a	n/a
300.0199	1.0167	ITI	n/a	n/a	n/a	n/a	n/a	n/a	n/a	n/a
301.0365	0.5167	FIXCROSS	n/a	n/a	n/a	n/a	n/a	n/a	n/a	n/a
301.5532	0.9833	T_COLOR_NAME	3	Incongruent	zielony	green	żółty	yellow	hit	n/a
302.5107	n/a	RESPONSE	n/a	n/a	n/a	n/a	n/a	n/a	n/a	green
302.5366	0.5167	FEEDBACK	n/a	n/a	n/a	n/a	n/a	n/a	n/a	n/a
303.0532	1.0167	ITI	n/a	n/a	n/a	n/a	n/a	n/a	n/a	n/a
304.0699	0.5167	FIXCROSS	n/a	n/a	n/a	n/a	n/a	n/a	n/a	n/a
304.5866	0.5833	T_COLOR_NAME	4	Neutral	zielony	green	Neutral	Neutral	hit	n/a
305.1501	n/a	RESPONSE	n/a	n/a	n/a	n/a	n/a	n/a	n/a	green
305.1699	0.5167	FEEDBACK	n/a	n/a	n/a	n/a	n/a	n/a	n/a	n/a
305.6866	1.0167	ITI	n/a	n/a	n/a	n/a	n/a	n/a	n/a	n/a
306.7033	0.5167	FIXCROSS	n/a	n/a	n/a	n/a	n/a	n/a	n/a	n/a
307.22	0.8667	T_COLOR_NAME	5	Neutral	niebieski	blue	Neutral	Neutral	hit	n/a
308.0615	n/a	RESPONSE	n/a	n/a	n/a	n/a	n/a	n/a	n/a	blue
308.0866	0.5167	FEEDBACK	n/a	n/a	n/a	n/a	n/a	n/a	n/a	n/a
308.6033	1.0167	ITI	n/a	n/a	n/a	n/a	n/a	n/a	n/a	n/a
309.62	0.5167	FIXCROSS	n/a	n/a	n/a	n/a	n/a	n/a	n/a	n/a
310.1367	0.7333	T_COLOR_NAME	6	Neutral	żółty	yellow	Neutral	Neutral	hit	n/a
310.845	n/a	RESPONSE	n/a	n/a	n/a	n/a	n/a	n/a	n/a	yellow
310.87	0.5167	FEEDBACK	n/a	n/a	n/a	n/a	n/a	n/a	n/a	n/a
311.3867	1.0167	ITI	n/a	n/a	n/a	n/a	n/a	n/a	n/a	n/a
312.4033	0.5167	FIXCROSS	n/a	n/a	n/a	n/a	n/a	n/a	n/a	n/a
312.92	0.8333	T_COLOR_NAME	7	Neutral	czerwony	red	Neutral	Neutral	hit	n/a
313.7243	n/a	RESPONSE	n/a	n/a	n/a	n/a	n/a	n/a	n/a	red
313.7534	0.5167	FEEDBACK	n/a	n/a	n/a	n/a	n/a	n/a	n/a	n/a
314.27	1.0167	ITI	n/a	n/a	n/a	n/a	n/a	n/a	n/a	n/a
315.2867	0.5167	FIXCROSS	n/a	n/a	n/a	n/a	n/a	n/a	n/a	n/a
315.8034	1.1667	T_COLOR_NAME	8	Incongruent	żółty	yellow	zielony	green	hit	n/a
316.9396	n/a	RESPONSE	n/a	n/a	n/a	n/a	n/a	n/a	n/a	yellow
316.9701	0.5167	FEEDBACK	n/a	n/a	n/a	n/a	n/a	n/a	n/a	n/a
317.4867	1.0167	ITI	n/a	n/a	n/a	n/a	n/a	n/a	n/a	n/a
318.5034	0.5167	FIXCROSS	n/a	n/a	n/a	n/a	n/a	n/a	n/a	n/a
319.0201	0.8167	T_COLOR_NAME	9	Incongruent	niebieski	blue	żółty	yellow	hit	n/a
319.803	n/a	RESPONSE	n/a	n/a	n/a	n/a	n/a	n/a	n/a	blue
319.8368	0.5167	FEEDBACK	n/a	n/a	n/a	n/a	n/a	n/a	n/a	n/a
320.3534	1.0167	ITI	n/a	n/a	n/a	n/a	n/a	n/a	n/a	n/a
321.3701	0.5167	FIXCROSS	n/a	n/a	n/a	n/a	n/a	n/a	n/a	n/a
321.8868	0.7333	T_COLOR_NAME	10	Neutral	żółty	yellow	Neutral	Neutral	hit	n/a
322.5864	n/a	RESPONSE	n/a	n/a	n/a	n/a	n/a	n/a	n/a	yellow
322.6201	0.5167	FEEDBACK	n/a	n/a	n/a	n/a	n/a	n/a	n/a	n/a
323.1368	1.0167	ITI	n/a	n/a	n/a	n/a	n/a	n/a	n/a	n/a
324.1535	0.5167	FIXCROSS	n/a	n/a	n/a	n/a	n/a	n/a	n/a	n/a
324.6702	0.7	T_COLOR_NAME	11	Neutral	zielony	green	Neutral	Neutral	hit	n/a
325.3378	n/a	RESPONSE	n/a	n/a	n/a	n/a	n/a	n/a	n/a	green
325.3702	0.5167	FEEDBACK	n/a	n/a	n/a	n/a	n/a	n/a	n/a	n/a
325.8868	1.0167	ITI	n/a	n/a	n/a	n/a	n/a	n/a	n/a	n/a
326.9035	0.5167	FIXCROSS	n/a	n/a	n/a	n/a	n/a	n/a	n/a	n/a
327.4202	0.5833	T_COLOR_NAME	12	Neutral	żółty	yellow	Neutral	Neutral	hit	n/a
327.9772	n/a	RESPONSE	n/a	n/a	n/a	n/a	n/a	n/a	n/a	yellow
328.0035	0.5167	FEEDBACK	n/a	n/a	n/a	n/a	n/a	n/a	n/a	n/a
328.5202	1.0333	ITI	n/a	n/a	n/a	n/a	n/a	n/a	n/a	n/a
331.0166	n/a	RESPONSE	n/a	n/a	n/a	n/a	n/a	n/a	n/a	n/a
331.0702	1.0167	ITI	n/a	n/a	n/a	n/a	n/a	n/a	n/a	n/a
332.0869	0.5167	FIXCROSS	n/a	n/a	n/a	n/a	n/a	n/a	n/a	n/a
332.6036	0.7833	COLOR_NAME	1	Neutral	zielony	green	Neutral	Neutral	hit	n/a
333.3681	n/a	RESPONSE	n/a	n/a	n/a	n/a	n/a	n/a	n/a	green
333.3869	1.0167	ITI	n/a	n/a	n/a	n/a	n/a	n/a	n/a	n/a
334.4036	0.5167	FIXCROSS	n/a	n/a	n/a	n/a	n/a	n/a	n/a	n/a
334.9203	0.7833	COLOR_NAME	2	Incongruent	zielony	green	żółty	yellow	hit	n/a
335.6716	n/a	RESPONSE	n/a	n/a	n/a	n/a	n/a	n/a	n/a	green
335.7036	1.0167	ITI	n/a	n/a	n/a	n/a	n/a	n/a	n/a	n/a
336.7203	0.5167	FIXCROSS	n/a	n/a	n/a	n/a	n/a	n/a	n/a	n/a
337.237	0.7	COLOR_NAME	3	Incongruent	zielony	green	niebieski	blue	hit	n/a
337.9111	n/a	RESPONSE	n/a	n/a	n/a	n/a	n/a	n/a	n/a	green
337.937	1.0167	ITI	n/a	n/a	n/a	n/a	n/a	n/a	n/a	n/a
338.9537	0.5167	FIXCROSS	n/a	n/a	n/a	n/a	n/a	n/a	n/a	n/a
339.4703	1.0334	COLOR_NAME	4	Incongruent	żółty	yellow	czerwony	red	hit	n/a
340.4705	n/a	RESPONSE	n/a	n/a	n/a	n/a	n/a	n/a	n/a	yellow
340.5037	1.0167	ITI	n/a	n/a	n/a	n/a	n/a	n/a	n/a	n/a
341.5203	0.5167	FIXCROSS	n/a	n/a	n/a	n/a	n/a	n/a	n/a	n/a
342.037	0.7167	COLOR_NAME	5	Incongruent	niebieski	blue	czerwony	red	hit	n/a
342.726	n/a	RESPONSE	n/a	n/a	n/a	n/a	n/a	n/a	n/a	blue
342.7537	1.0167	ITI	n/a	n/a	n/a	n/a	n/a	n/a	n/a	n/a
343.7704	0.5167	FIXCROSS	n/a	n/a	n/a	n/a	n/a	n/a	n/a	n/a
344.287	0.7167	COLOR_NAME	6	Incongruent	niebieski	blue	czerwony	red	hit	n/a
344.9815	n/a	RESPONSE	n/a	n/a	n/a	n/a	n/a	n/a	n/a	blue
345.0037	1.0167	ITI	n/a	n/a	n/a	n/a	n/a	n/a	n/a	n/a
346.0204	0.5167	FIXCROSS	n/a	n/a	n/a	n/a	n/a	n/a	n/a	n/a
346.5371	0.8833	COLOR_NAME	7	Neutral	czerwony	red	Neutral	Neutral	hit	n/a
347.397	n/a	RESPONSE	n/a	n/a	n/a	n/a	n/a	n/a	n/a	red
347.4204	1.0167	ITI	n/a	n/a	n/a	n/a	n/a	n/a	n/a	n/a
348.4371	0.5167	FIXCROSS	n/a	n/a	n/a	n/a	n/a	n/a	n/a	n/a
348.9538	0.7	COLOR_NAME	8	Incongruent	czerwony	red	żółty	yellow	hit	n/a
349.6205	n/a	RESPONSE	n/a	n/a	n/a	n/a	n/a	n/a	n/a	red
349.6538	1.0167	ITI	n/a	n/a	n/a	n/a	n/a	n/a	n/a	n/a
350.6704	0.5167	FIXCROSS	n/a	n/a	n/a	n/a	n/a	n/a	n/a	n/a
351.1871	0.75	COLOR_NAME	9	Incongruent	niebieski	blue	zielony	green	hit	n/a
351.908	n/a	RESPONSE	n/a	n/a	n/a	n/a	n/a	n/a	n/a	blue
351.9371	1.0167	ITI	n/a	n/a	n/a	n/a	n/a	n/a	n/a	n/a
352.9538	0.5167	FIXCROSS	n/a	n/a	n/a	n/a	n/a	n/a	n/a	n/a
353.4705	0.7833	COLOR_NAME	10	Incongruent	zielony	green	czerwony	red	hit	n/a
354.2275	n/a	RESPONSE	n/a	n/a	n/a	n/a	n/a	n/a	n/a	green
354.2538	1.0167	ITI	n/a	n/a	n/a	n/a	n/a	n/a	n/a	n/a
355.2705	0.5167	FIXCROSS	n/a	n/a	n/a	n/a	n/a	n/a	n/a	n/a
355.7872	0.7333	COLOR_NAME	11	Neutral	czerwony	red	Neutral	Neutral	hit	n/a
356.499	n/a	RESPONSE	n/a	n/a	n/a	n/a	n/a	n/a	n/a	red
356.5205	1.0167	ITI	n/a	n/a	n/a	n/a	n/a	n/a	n/a	n/a
357.5372	0.5167	FIXCROSS	n/a	n/a	n/a	n/a	n/a	n/a	n/a	n/a
358.0539	0.6333	COLOR_NAME	12	Neutral	żółty	yellow	Neutral	Neutral	hit	n/a
358.6586	n/a	RESPONSE	n/a	n/a	n/a	n/a	n/a	n/a	n/a	yellow
358.6872	1.0167	ITI	n/a	n/a	n/a	n/a	n/a	n/a	n/a	n/a
359.7039	0.5167	FIXCROSS	n/a	n/a	n/a	n/a	n/a	n/a	n/a	n/a
360.2206	0.8	COLOR_NAME	13	Incongruent	zielony	green	żółty	yellow	hit	n/a
360.9941	n/a	RESPONSE	n/a	n/a	n/a	n/a	n/a	n/a	n/a	green
361.0206	1.0167	ITI	n/a	n/a	n/a	n/a	n/a	n/a	n/a	n/a
362.0372	0.5167	FIXCROSS	n/a	n/a	n/a	n/a	n/a	n/a	n/a	n/a
362.5539	0.6	COLOR_NAME	14	Neutral	zielony	green	Neutral	Neutral	hit	n/a
363.1216	n/a	RESPONSE	n/a	n/a	n/a	n/a	n/a	n/a	n/a	green
363.1539	1.0167	ITI	n/a	n/a	n/a	n/a	n/a	n/a	n/a	n/a
364.1706	0.5167	FIXCROSS	n/a	n/a	n/a	n/a	n/a	n/a	n/a	n/a
364.6873	0.6667	COLOR_NAME	15	Incongruent	żółty	yellow	czerwony	red	hit	n/a
365.3291	n/a	RESPONSE	n/a	n/a	n/a	n/a	n/a	n/a	n/a	yellow
365.3539	1.0167	ITI	n/a	n/a	n/a	n/a	n/a	n/a	n/a	n/a
366.3706	0.5167	FIXCROSS	n/a	n/a	n/a	n/a	n/a	n/a	n/a	n/a
366.8873	0.8333	COLOR_NAME	16	Incongruent	zielony	green	żółty	yellow	hit	n/a
367.6966	n/a	RESPONSE	n/a	n/a	n/a	n/a	n/a	n/a	n/a	green
367.7206	1.0167	ITI	n/a	n/a	n/a	n/a	n/a	n/a	n/a	n/a
368.7373	0.5167	FIXCROSS	n/a	n/a	n/a	n/a	n/a	n/a	n/a	n/a
369.254	0.65	COLOR_NAME	17	Neutral	czerwony	red	Neutral	Neutral	hit	n/a
369.8721	n/a	RESPONSE	n/a	n/a	n/a	n/a	n/a	n/a	n/a	red
369.904	1.0167	ITI	n/a	n/a	n/a	n/a	n/a	n/a	n/a	n/a
370.9207	0.5167	FIXCROSS	n/a	n/a	n/a	n/a	n/a	n/a	n/a	n/a
371.4373	0.7167	COLOR_NAME	18	Incongruent	niebieski	blue	czerwony	red	hit	n/a
372.1276	n/a	RESPONSE	n/a	n/a	n/a	n/a	n/a	n/a	n/a	blue
372.154	1.0167	ITI	n/a	n/a	n/a	n/a	n/a	n/a	n/a	n/a
373.1707	0.5167	FIXCROSS	n/a	n/a	n/a	n/a	n/a	n/a	n/a	n/a
373.6874	0.5667	COLOR_NAME	19	Incongruent	niebieski	blue	zielony	green	hit	n/a
374.2232	n/a	RESPONSE	n/a	n/a	n/a	n/a	n/a	n/a	n/a	blue
374.254	1.0167	ITI	n/a	n/a	n/a	n/a	n/a	n/a	n/a	n/a
375.2707	0.5167	FIXCROSS	n/a	n/a	n/a	n/a	n/a	n/a	n/a	n/a
375.7874	0.9333	COLOR_NAME	20	Neutral	zielony	green	Neutral	Neutral	hit	n/a
376.6866	n/a	RESPONSE	n/a	n/a	n/a	n/a	n/a	n/a	n/a	green
376.7026	n/a	RESPONSE	n/a	n/a	n/a	n/a	n/a	n/a	n/a	red
376.7186	n/a	RESPONSE	n/a	n/a	n/a	n/a	n/a	n/a	n/a	green
376.7207	1.0167	ITI	n/a	n/a	n/a	n/a	n/a	n/a	n/a	n/a
377.7374	0.5167	FIXCROSS	n/a	n/a	n/a	n/a	n/a	n/a	n/a	n/a
378.2541	0.5833	COLOR_NAME	21	Neutral	żółty	yellow	Neutral	Neutral	hit	n/a
378.8142	n/a	RESPONSE	n/a	n/a	n/a	n/a	n/a	n/a	n/a	yellow
378.8374	1.0167	ITI	n/a	n/a	n/a	n/a	n/a	n/a	n/a	n/a
379.8541	0.5167	FIXCROSS	n/a	n/a	n/a	n/a	n/a	n/a	n/a	n/a
380.3708	0.5333	COLOR_NAME	22	Neutral	czerwony	red	Neutral	Neutral	hit	n/a
380.8777	n/a	RESPONSE	n/a	n/a	n/a	n/a	n/a	n/a	n/a	red
380.9041	1.0167	ITI	n/a	n/a	n/a	n/a	n/a	n/a	n/a	n/a
381.9208	0.5167	FIXCROSS	n/a	n/a	n/a	n/a	n/a	n/a	n/a	n/a
382.4375	0.6	COLOR_NAME	23	Neutral	niebieski	blue	Neutral	Neutral	hit	n/a
383.0053	n/a	RESPONSE	n/a	n/a	n/a	n/a	n/a	n/a	n/a	blue
383.0375	1.0167	ITI	n/a	n/a	n/a	n/a	n/a	n/a	n/a	n/a
384.0542	0.5167	FIXCROSS	n/a	n/a	n/a	n/a	n/a	n/a	n/a	n/a
384.5708	0.6333	COLOR_NAME	24	Neutral	żółty	yellow	Neutral	Neutral	hit	n/a
385.1808	n/a	RESPONSE	n/a	n/a	n/a	n/a	n/a	n/a	n/a	yellow
385.2042	1.0167	ITI	n/a	n/a	n/a	n/a	n/a	n/a	n/a	n/a
386.2209	0.5167	FIXCROSS	n/a	n/a	n/a	n/a	n/a	n/a	n/a	n/a
386.7375	0.5333	COLOR_NAME	25	Neutral	niebieski	blue	Neutral	Neutral	hit	n/a
387.2444	n/a	RESPONSE	n/a	n/a	n/a	n/a	n/a	n/a	n/a	blue
387.2709	1.0167	ITI	n/a	n/a	n/a	n/a	n/a	n/a	n/a	n/a
388.2875	0.5167	FIXCROSS	n/a	n/a	n/a	n/a	n/a	n/a	n/a	n/a
388.8042	0.45	COLOR_NAME	26	Neutral	niebieski	blue	Neutral	Neutral	hit	n/a
389.228	n/a	RESPONSE	n/a	n/a	n/a	n/a	n/a	n/a	n/a	blue
389.2542	1.0167	ITI	n/a	n/a	n/a	n/a	n/a	n/a	n/a	n/a
390.2709	0.5167	FIXCROSS	n/a	n/a	n/a	n/a	n/a	n/a	n/a	n/a
390.7876	0.8667	COLOR_NAME	27	Incongruent	zielony	green	niebieski	blue	hit	n/a
391.6274	n/a	RESPONSE	n/a	n/a	n/a	n/a	n/a	n/a	n/a	green
391.6542	1.0167	ITI	n/a	n/a	n/a	n/a	n/a	n/a	n/a	n/a
392.6709	0.5167	FIXCROSS	n/a	n/a	n/a	n/a	n/a	n/a	n/a	n/a
393.1876	0.5833	COLOR_NAME	28	Neutral	żółty	yellow	Neutral	Neutral	hit	n/a
393.739	n/a	RESPONSE	n/a	n/a	n/a	n/a	n/a	n/a	n/a	yellow
393.7709	1.0167	ITI	n/a	n/a	n/a	n/a	n/a	n/a	n/a	n/a
394.7876	0.5167	FIXCROSS	n/a	n/a	n/a	n/a	n/a	n/a	n/a	n/a
395.3043	0.8667	COLOR_NAME	29	Incongruent	niebieski	blue	żółty	yellow	hit	n/a
396.1384	n/a	RESPONSE	n/a	n/a	n/a	n/a	n/a	n/a	n/a	blue
396.171	1.0167	ITI	n/a	n/a	n/a	n/a	n/a	n/a	n/a	n/a
397.1876	0.5167	FIXCROSS	n/a	n/a	n/a	n/a	n/a	n/a	n/a	n/a
397.7043	0.7667	COLOR_NAME	30	Incongruent	żółty	yellow	niebieski	blue	hit	n/a
398.442	n/a	RESPONSE	n/a	n/a	n/a	n/a	n/a	n/a	n/a	yellow
398.471	1.0167	ITI	n/a	n/a	n/a	n/a	n/a	n/a	n/a	n/a
399.4877	0.5167	FIXCROSS	n/a	n/a	n/a	n/a	n/a	n/a	n/a	n/a
400.0043	0.6	COLOR_NAME	31	Incongruent	żółty	yellow	niebieski	blue	hit	n/a
400.5855	n/a	RESPONSE	n/a	n/a	n/a	n/a	n/a	n/a	n/a	yellow
400.6043	1.0167	ITI	n/a	n/a	n/a	n/a	n/a	n/a	n/a	n/a
401.621	0.5167	FIXCROSS	n/a	n/a	n/a	n/a	n/a	n/a	n/a	n/a
402.1377	0.6	COLOR_NAME	32	Neutral	czerwony	red	Neutral	Neutral	hit	n/a
402.713	n/a	RESPONSE	n/a	n/a	n/a	n/a	n/a	n/a	n/a	red
402.7377	1.0167	ITI	n/a	n/a	n/a	n/a	n/a	n/a	n/a	n/a
403.7544	0.5167	FIXCROSS	n/a	n/a	n/a	n/a	n/a	n/a	n/a	n/a
404.2711	0.5833	COLOR_NAME	33	Neutral	żółty	yellow	Neutral	Neutral	hit	n/a
404.8246	n/a	RESPONSE	n/a	n/a	n/a	n/a	n/a	n/a	n/a	yellow
404.8544	1.0167	ITI	n/a	n/a	n/a	n/a	n/a	n/a	n/a	n/a
405.8711	0.5167	FIXCROSS	n/a	n/a	n/a	n/a	n/a	n/a	n/a	n/a
406.3877	0.55	COLOR_NAME	34	Neutral	niebieski	blue	Neutral	Neutral	incorrect	n/a
406.9041	n/a	RESPONSE	n/a	n/a	n/a	n/a	n/a	n/a	n/a	red
406.9378	1.0167	ITI	n/a	n/a	n/a	n/a	n/a	n/a	n/a	n/a
407.9544	0.5167	FIXCROSS	n/a	n/a	n/a	n/a	n/a	n/a	n/a	n/a
408.4711	0.9	COLOR_NAME	35	Incongruent	żółty	yellow	zielony	green	hit	n/a
409.3516	n/a	RESPONSE	n/a	n/a	n/a	n/a	n/a	n/a	n/a	yellow
409.3711	1.0167	ITI	n/a	n/a	n/a	n/a	n/a	n/a	n/a	n/a
410.3878	0.5167	FIXCROSS	n/a	n/a	n/a	n/a	n/a	n/a	n/a	n/a
410.9045	0.5833	COLOR_NAME	36	Neutral	niebieski	blue	Neutral	Neutral	hit	n/a
411.4632	n/a	RESPONSE	n/a	n/a	n/a	n/a	n/a	n/a	n/a	blue
411.4878	1.0167	ITI	n/a	n/a	n/a	n/a	n/a	n/a	n/a	n/a
412.5045	0.5167	FIXCROSS	n/a	n/a	n/a	n/a	n/a	n/a	n/a	n/a
413.0212	0.6167	COLOR_NAME	37	Neutral	czerwony	red	Neutral	Neutral	hit	n/a
413.6067	n/a	RESPONSE	n/a	n/a	n/a	n/a	n/a	n/a	n/a	red
413.6378	1.0167	ITI	n/a	n/a	n/a	n/a	n/a	n/a	n/a	n/a
414.6545	0.5167	FIXCROSS	n/a	n/a	n/a	n/a	n/a	n/a	n/a	n/a
415.1712	0.5167	COLOR_NAME	38	Incongruent	żółty	yellow	zielony	green	hit	n/a
415.6702	n/a	RESPONSE	n/a	n/a	n/a	n/a	n/a	n/a	n/a	yellow
415.6878	1.0167	ITI	n/a	n/a	n/a	n/a	n/a	n/a	n/a	n/a
416.7045	0.5167	FIXCROSS	n/a	n/a	n/a	n/a	n/a	n/a	n/a	n/a
417.2212	0.6667	COLOR_NAME	39	Incongruent	niebieski	blue	zielony	green	hit	n/a
417.8617	n/a	RESPONSE	n/a	n/a	n/a	n/a	n/a	n/a	n/a	blue
417.8879	1.0167	ITI	n/a	n/a	n/a	n/a	n/a	n/a	n/a	n/a
418.9046	0.5167	FIXCROSS	n/a	n/a	n/a	n/a	n/a	n/a	n/a	n/a
419.4212	0.9833	COLOR_NAME	40	Incongruent	zielony	green	czerwony	red	hit	n/a
420.3732	n/a	RESPONSE	n/a	n/a	n/a	n/a	n/a	n/a	n/a	green
420.4046	1.0167	ITI	n/a	n/a	n/a	n/a	n/a	n/a	n/a	n/a
421.4213	0.5167	FIXCROSS	n/a	n/a	n/a	n/a	n/a	n/a	n/a	n/a
421.9379	0.7333	COLOR_NAME	41	Neutral	czerwony	red	Neutral	Neutral	hit	n/a
422.6447	n/a	RESPONSE	n/a	n/a	n/a	n/a	n/a	n/a	n/a	red
422.6713	1.0167	ITI	n/a	n/a	n/a	n/a	n/a	n/a	n/a	n/a
423.6879	0.5167	FIXCROSS	n/a	n/a	n/a	n/a	n/a	n/a	n/a	n/a
424.2046	0.8333	COLOR_NAME	42	Incongruent	zielony	green	czerwony	red	hit	n/a
425.0122	n/a	RESPONSE	n/a	n/a	n/a	n/a	n/a	n/a	n/a	green
425.038	1.0167	ITI	n/a	n/a	n/a	n/a	n/a	n/a	n/a	n/a
426.0546	0.5167	FIXCROSS	n/a	n/a	n/a	n/a	n/a	n/a	n/a	n/a
426.5713	0.85	COLOR_NAME	43	Neutral	zielony	green	Neutral	Neutral	hit	n/a
427.3957	n/a	RESPONSE	n/a	n/a	n/a	n/a	n/a	n/a	n/a	green
427.4213	1.0167	ITI	n/a	n/a	n/a	n/a	n/a	n/a	n/a	n/a
428.438	0.5167	FIXCROSS	n/a	n/a	n/a	n/a	n/a	n/a	n/a	n/a
428.9547	0.6167	COLOR_NAME	44	Neutral	zielony	green	Neutral	Neutral	hit	n/a
429.5392	n/a	RESPONSE	n/a	n/a	n/a	n/a	n/a	n/a	n/a	green
429.5714	1.0167	ITI	n/a	n/a	n/a	n/a	n/a	n/a	n/a	n/a
430.588	0.5167	FIXCROSS	n/a	n/a	n/a	n/a	n/a	n/a	n/a	n/a
431.1047	0.4833	COLOR_NAME	45	Neutral	zielony	green	Neutral	Neutral	hit	n/a
431.5548	n/a	RESPONSE	n/a	n/a	n/a	n/a	n/a	n/a	n/a	green
431.588	1.0167	ITI	n/a	n/a	n/a	n/a	n/a	n/a	n/a	n/a
432.6047	0.5167	FIXCROSS	n/a	n/a	n/a	n/a	n/a	n/a	n/a	n/a
433.1214	0.65	COLOR_NAME	46	Incongruent	żółty	yellow	niebieski	blue	hit	n/a
433.7463	n/a	RESPONSE	n/a	n/a	n/a	n/a	n/a	n/a	n/a	yellow
433.7714	1.0167	ITI	n/a	n/a	n/a	n/a	n/a	n/a	n/a	n/a
434.7881	0.5167	FIXCROSS	n/a	n/a	n/a	n/a	n/a	n/a	n/a	n/a
435.3047	0.7167	COLOR_NAME	47	Incongruent	żółty	yellow	zielony	green	hit	n/a
436.0018	n/a	RESPONSE	n/a	n/a	n/a	n/a	n/a	n/a	n/a	yellow
436.0214	1.0167	ITI	n/a	n/a	n/a	n/a	n/a	n/a	n/a	n/a
437.0381	0.5167	FIXCROSS	n/a	n/a	n/a	n/a	n/a	n/a	n/a	n/a
437.5548	0.5833	COLOR_NAME	48	Neutral	czerwony	red	Neutral	Neutral	hit	n/a
438.1133	n/a	RESPONSE	n/a	n/a	n/a	n/a	n/a	n/a	n/a	red
438.1381	1.0167	ITI	n/a	n/a	n/a	n/a	n/a	n/a	n/a	n/a
439.1548	0.5167	FIXCROSS	n/a	n/a	n/a	n/a	n/a	n/a	n/a	n/a
439.6715	0.6167	COLOR_NAME	49	Neutral	niebieski	blue	Neutral	Neutral	hit	n/a
440.2569	n/a	RESPONSE	n/a	n/a	n/a	n/a	n/a	n/a	n/a	blue
440.2881	1.0167	ITI	n/a	n/a	n/a	n/a	n/a	n/a	n/a	n/a
441.3048	0.5167	FIXCROSS	n/a	n/a	n/a	n/a	n/a	n/a	n/a	n/a
441.8215	0.65	COLOR_NAME	50	Neutral	zielony	green	Neutral	Neutral	hit	n/a
442.4484	n/a	RESPONSE	n/a	n/a	n/a	n/a	n/a	n/a	n/a	green
442.4715	1.0167	ITI	n/a	n/a	n/a	n/a	n/a	n/a	n/a	n/a
443.4882	0.5167	FIXCROSS	n/a	n/a	n/a	n/a	n/a	n/a	n/a	n/a
444.0048	0.6167	COLOR_NAME	51	Neutral	zielony	green	Neutral	Neutral	hit	n/a
444.5919	n/a	RESPONSE	n/a	n/a	n/a	n/a	n/a	n/a	n/a	green
444.6215	1.0167	ITI	n/a	n/a	n/a	n/a	n/a	n/a	n/a	n/a
445.6382	0.5167	FIXCROSS	n/a	n/a	n/a	n/a	n/a	n/a	n/a	n/a
446.1549	0.6667	COLOR_NAME	52	Neutral	żółty	yellow	Neutral	Neutral	hit	n/a
446.7995	n/a	RESPONSE	n/a	n/a	n/a	n/a	n/a	n/a	n/a	yellow
446.8215	1.0167	ITI	n/a	n/a	n/a	n/a	n/a	n/a	n/a	n/a
447.8382	0.5167	FIXCROSS	n/a	n/a	n/a	n/a	n/a	n/a	n/a	n/a
448.3549	1.0334	COLOR_NAME	53	Incongruent	czerwony	red	zielony	green	hit	n/a
449.3589	n/a	RESPONSE	n/a	n/a	n/a	n/a	n/a	n/a	n/a	red
449.3882	1.0167	ITI	n/a	n/a	n/a	n/a	n/a	n/a	n/a	n/a
450.4049	0.5167	FIXCROSS	n/a	n/a	n/a	n/a	n/a	n/a	n/a	n/a
450.9216	0.5333	COLOR_NAME	54	Incongruent	czerwony	red	zielony	green	hit	n/a
451.4225	n/a	RESPONSE	n/a	n/a	n/a	n/a	n/a	n/a	n/a	red
451.4549	1.0167	ITI	n/a	n/a	n/a	n/a	n/a	n/a	n/a	n/a
452.4716	0.5167	FIXCROSS	n/a	n/a	n/a	n/a	n/a	n/a	n/a	n/a
452.9883	0.5667	COLOR_NAME	55	Neutral	żółty	yellow	Neutral	Neutral	hit	n/a
453.534	n/a	RESPONSE	n/a	n/a	n/a	n/a	n/a	n/a	n/a	yellow
453.555	1.0167	ITI	n/a	n/a	n/a	n/a	n/a	n/a	n/a	n/a
454.5716	0.5167	FIXCROSS	n/a	n/a	n/a	n/a	n/a	n/a	n/a	n/a
455.0883	0.5833	COLOR_NAME	56	Neutral	żółty	yellow	Neutral	Neutral	hit	n/a
455.6456	n/a	RESPONSE	n/a	n/a	n/a	n/a	n/a	n/a	n/a	yellow
455.6716	1.0167	ITI	n/a	n/a	n/a	n/a	n/a	n/a	n/a	n/a
456.6883	0.5167	FIXCROSS	n/a	n/a	n/a	n/a	n/a	n/a	n/a	n/a
457.205	0.6834	COLOR_NAME	57	Incongruent	czerwony	red	niebieski	blue	hit	n/a
457.869	n/a	RESPONSE	n/a	n/a	n/a	n/a	n/a	n/a	n/a	red
457.8883	1.0167	ITI	n/a	n/a	n/a	n/a	n/a	n/a	n/a	n/a
458.905	0.5167	FIXCROSS	n/a	n/a	n/a	n/a	n/a	n/a	n/a	n/a
459.4217	0.8167	COLOR_NAME	58	Incongruent	czerwony	red	niebieski	blue	hit	n/a
460.2206	n/a	RESPONSE	n/a	n/a	n/a	n/a	n/a	n/a	n/a	red
460.2384	1.0167	ITI	n/a	n/a	n/a	n/a	n/a	n/a	n/a	n/a
461.255	0.5167	FIXCROSS	n/a	n/a	n/a	n/a	n/a	n/a	n/a	n/a
461.7717	0.7333	COLOR_NAME	59	Incongruent	zielony	green	niebieski	blue	hit	n/a
462.4761	n/a	RESPONSE	n/a	n/a	n/a	n/a	n/a	n/a	n/a	green
462.5051	1.0167	ITI	n/a	n/a	n/a	n/a	n/a	n/a	n/a	n/a
463.5217	0.5167	FIXCROSS	n/a	n/a	n/a	n/a	n/a	n/a	n/a	n/a
464.0384	0.5667	COLOR_NAME	60	Neutral	niebieski	blue	Neutral	Neutral	hit	n/a
464.5716	n/a	RESPONSE	n/a	n/a	n/a	n/a	n/a	n/a	n/a	blue
464.6051	1.0167	ITI	n/a	n/a	n/a	n/a	n/a	n/a	n/a	n/a
465.6218	0.5167	FIXCROSS	n/a	n/a	n/a	n/a	n/a	n/a	n/a	n/a
466.1384	0.4333	COLOR_NAME	61	Incongruent	czerwony	red	niebieski	blue	incorrect	n/a
466.5392	n/a	RESPONSE	n/a	n/a	n/a	n/a	n/a	n/a	n/a	blue
466.5718	1.0167	ITI	n/a	n/a	n/a	n/a	n/a	n/a	n/a	n/a
467.5884	0.5167	FIXCROSS	n/a	n/a	n/a	n/a	n/a	n/a	n/a	n/a
468.1051	0.6833	COLOR_NAME	62	Incongruent	czerwony	red	żółty	yellow	hit	n/a
468.7627	n/a	RESPONSE	n/a	n/a	n/a	n/a	n/a	n/a	n/a	red
468.7885	1.0167	ITI	n/a	n/a	n/a	n/a	n/a	n/a	n/a	n/a
469.8051	0.5167	FIXCROSS	n/a	n/a	n/a	n/a	n/a	n/a	n/a	n/a
470.3218	1.55	COLOR_NAME	63	Incongruent	czerwony	red	żółty	yellow	hit	n/a
471.85	n/a	RESPONSE	n/a	n/a	n/a	n/a	n/a	n/a	n/a	red
471.8718	1.0167	ITI	n/a	n/a	n/a	n/a	n/a	n/a	n/a	n/a
472.8885	0.5167	FIXCROSS	n/a	n/a	n/a	n/a	n/a	n/a	n/a	n/a
473.4052	0.5667	COLOR_NAME	64	Neutral	czerwony	red	Neutral	Neutral	hit	n/a
473.9456	n/a	RESPONSE	n/a	n/a	n/a	n/a	n/a	n/a	n/a	red
473.9718	1.0167	ITI	n/a	n/a	n/a	n/a	n/a	n/a	n/a	n/a
474.9885	0.5167	FIXCROSS	n/a	n/a	n/a	n/a	n/a	n/a	n/a	n/a
475.5052	0.6667	COLOR_NAME	65	Incongruent	żółty	yellow	czerwony	red	hit	n/a
476.1531	n/a	RESPONSE	n/a	n/a	n/a	n/a	n/a	n/a	n/a	yellow
476.1719	1.0167	ITI	n/a	n/a	n/a	n/a	n/a	n/a	n/a	n/a
477.1886	0.5167	FIXCROSS	n/a	n/a	n/a	n/a	n/a	n/a	n/a	n/a
477.7052	0.55	COLOR_NAME	66	Neutral	niebieski	blue	Neutral	Neutral	hit	n/a
478.2327	n/a	RESPONSE	n/a	n/a	n/a	n/a	n/a	n/a	n/a	blue
478.2552	1.0167	ITI	n/a	n/a	n/a	n/a	n/a	n/a	n/a	n/a
479.2719	0.5167	FIXCROSS	n/a	n/a	n/a	n/a	n/a	n/a	n/a	n/a
479.7886	0.6333	COLOR_NAME	67	Incongruent	czerwony	red	zielony	green	hit	n/a
480.3922	n/a	RESPONSE	n/a	n/a	n/a	n/a	n/a	n/a	n/a	red
480.4219	1.0167	ITI	n/a	n/a	n/a	n/a	n/a	n/a	n/a	n/a
481.4386	0.5167	FIXCROSS	n/a	n/a	n/a	n/a	n/a	n/a	n/a	n/a
481.9553	0.5667	COLOR_NAME	68	Neutral	żółty	yellow	Neutral	Neutral	hit	n/a
482.5037	n/a	RESPONSE	n/a	n/a	n/a	n/a	n/a	n/a	n/a	yellow
482.5219	1.0167	ITI	n/a	n/a	n/a	n/a	n/a	n/a	n/a	n/a
483.5386	0.5167	FIXCROSS	n/a	n/a	n/a	n/a	n/a	n/a	n/a	n/a
484.0553	0.6667	COLOR_NAME	69	Incongruent	niebieski	blue	żółty	yellow	hit	n/a
484.6953	n/a	RESPONSE	n/a	n/a	n/a	n/a	n/a	n/a	n/a	blue
484.722	1.0167	ITI	n/a	n/a	n/a	n/a	n/a	n/a	n/a	n/a
485.7387	0.5167	FIXCROSS	n/a	n/a	n/a	n/a	n/a	n/a	n/a	n/a
486.2553	0.55	COLOR_NAME	70	Incongruent	niebieski	blue	żółty	yellow	hit	n/a
486.7748	n/a	RESPONSE	n/a	n/a	n/a	n/a	n/a	n/a	n/a	blue
486.8053	1.0167	ITI	n/a	n/a	n/a	n/a	n/a	n/a	n/a	n/a
487.822	0.5167	FIXCROSS	n/a	n/a	n/a	n/a	n/a	n/a	n/a	n/a
488.3387	0.55	COLOR_NAME	71	Neutral	niebieski	blue	Neutral	Neutral	hit	n/a
488.8704	n/a	RESPONSE	n/a	n/a	n/a	n/a	n/a	n/a	n/a	blue
488.8887	1.0167	ITI	n/a	n/a	n/a	n/a	n/a	n/a	n/a	n/a
489.9054	0.5167	FIXCROSS	n/a	n/a	n/a	n/a	n/a	n/a	n/a	n/a
490.422	0.95	COLOR_NAME	72	Neutral	zielony	green	Neutral	Neutral	hit	n/a
491.3498	n/a	RESPONSE	n/a	n/a	n/a	n/a	n/a	n/a	n/a	green
491.372	1.0334	ITI	n/a	n/a	n/a	n/a	n/a	n/a	n/a	n/a
494.7731	n/a	RESPONSE	n/a	n/a	n/a	n/a	n/a	n/a	n/a	n/a
