onset	duration	trial_type	trial_number	stroop_condition	stim_text(PL)	stim_text(eng)	stim_color(PL)	stim_color(eng)	response_type	response_color
0.0	n/a	RESPONSE	n/a	n/a	n/a	n/a	n/a	n/a	n/a	n/a
0.0601	1.0333	ITI	n/a	n/a	n/a	n/a	n/a	n/a	n/a	n/a
1.0934	0.5167	FIXCROSS	n/a	n/a	n/a	n/a	n/a	n/a	n/a	n/a
1.6101	0.7666	T_INK	1	Incongruent	niebieski	blue	czerwony	red	hit	n/a
2.3467	n/a	RESPONSE	n/a	n/a	n/a	n/a	n/a	n/a	n/a	red
2.3767	0.5167	FEEDBACK	n/a	n/a	n/a	n/a	n/a	n/a	n/a	n/a
2.8934	1.0167	ITI	n/a	n/a	n/a	n/a	n/a	n/a	n/a	n/a
3.9101	0.5166	FIXCROSS	n/a	n/a	n/a	n/a	n/a	n/a	n/a	n/a
4.4267	0.6	T_INK	2	Neutral	xxxxxxx	xxxxxxx	czerwony	red	hit	n/a
4.9968	n/a	RESPONSE	n/a	n/a	n/a	n/a	n/a	n/a	n/a	red
5.0267	0.5167	FEEDBACK	n/a	n/a	n/a	n/a	n/a	n/a	n/a	n/a
5.5434	1.0167	ITI	n/a	n/a	n/a	n/a	n/a	n/a	n/a	n/a
6.5601	0.5166	FIXCROSS	n/a	n/a	n/a	n/a	n/a	n/a	n/a	n/a
7.0768	0.5167	T_INK	3	Neutral	xxxxxxxxx	xxxxxxxxx	czerwony	red	hit	n/a
7.5669	n/a	RESPONSE	n/a	n/a	n/a	n/a	n/a	n/a	n/a	red
7.5935	0.5167	FEEDBACK	n/a	n/a	n/a	n/a	n/a	n/a	n/a	n/a
8.1101	1.0167	ITI	n/a	n/a	n/a	n/a	n/a	n/a	n/a	n/a
9.1268	0.5167	FIXCROSS	n/a	n/a	n/a	n/a	n/a	n/a	n/a	n/a
9.6435	0.7666	T_INK	4	Neutral	xxxxxxxxx	xxxxxxxxx	zielony	green	hit	n/a
10.3766	n/a	RESPONSE	n/a	n/a	n/a	n/a	n/a	n/a	n/a	green
10.4101	0.5167	FEEDBACK	n/a	n/a	n/a	n/a	n/a	n/a	n/a	n/a
10.9268	1.0166	ITI	n/a	n/a	n/a	n/a	n/a	n/a	n/a	n/a
11.9435	0.5167	FIXCROSS	n/a	n/a	n/a	n/a	n/a	n/a	n/a	n/a
12.4601	0.6334	T_INK	5	Incongruent	czerwony	red	niebieski	blue	hit	n/a
13.0745	n/a	RESPONSE	n/a	n/a	n/a	n/a	n/a	n/a	n/a	blue
13.0935	0.5166	FEEDBACK	n/a	n/a	n/a	n/a	n/a	n/a	n/a	n/a
13.6102	1.0167	ITI	n/a	n/a	n/a	n/a	n/a	n/a	n/a	n/a
14.6268	0.5166	FIXCROSS	n/a	n/a	n/a	n/a	n/a	n/a	n/a	n/a
15.1435	0.45	T_INK	6	Neutral	xxxxx	xxxxx	czerwony	red	hit	n/a
15.5649	n/a	RESPONSE	n/a	n/a	n/a	n/a	n/a	n/a	n/a	red
15.5935	0.5167	FEEDBACK	n/a	n/a	n/a	n/a	n/a	n/a	n/a	n/a
16.1102	1.0167	ITI	n/a	n/a	n/a	n/a	n/a	n/a	n/a	n/a
17.1269	0.5166	FIXCROSS	n/a	n/a	n/a	n/a	n/a	n/a	n/a	n/a
17.6435	0.75	T_INK	7	Neutral	xxxxxxxx	xxxxxxxx	zielony	green	hit	n/a
18.3585	n/a	RESPONSE	n/a	n/a	n/a	n/a	n/a	n/a	n/a	green
18.3935	0.5167	FEEDBACK	n/a	n/a	n/a	n/a	n/a	n/a	n/a	n/a
18.9102	1.0166	ITI	n/a	n/a	n/a	n/a	n/a	n/a	n/a	n/a
19.9269	0.5167	FIXCROSS	n/a	n/a	n/a	n/a	n/a	n/a	n/a	n/a
20.4435	0.7	T_INK	8	Incongruent	żółty	yellow	niebieski	blue	hit	n/a
21.1203	n/a	RESPONSE	n/a	n/a	n/a	n/a	n/a	n/a	n/a	blue
21.1436	0.5167	FEEDBACK	n/a	n/a	n/a	n/a	n/a	n/a	n/a	n/a
21.6602	1.0167	ITI	n/a	n/a	n/a	n/a	n/a	n/a	n/a	n/a
22.6769	0.5166	FIXCROSS	n/a	n/a	n/a	n/a	n/a	n/a	n/a	n/a
23.1935	0.2834	T_INK	9	Incongruent	czerwony	red	żółty	yellow	hit	n/a
23.451	n/a	RESPONSE	n/a	n/a	n/a	n/a	n/a	n/a	n/a	yellow
23.4769	0.5166	FEEDBACK	n/a	n/a	n/a	n/a	n/a	n/a	n/a	n/a
23.9935	1.0167	ITI	n/a	n/a	n/a	n/a	n/a	n/a	n/a	n/a
25.0103	0.5167	FIXCROSS	n/a	n/a	n/a	n/a	n/a	n/a	n/a	n/a
25.5269	0.6666	T_INK	10	Neutral	xxxxxxx	xxxxxxx	niebieski	blue	hit	n/a
26.1649	n/a	RESPONSE	n/a	n/a	n/a	n/a	n/a	n/a	n/a	blue
26.1936	0.5167	FEEDBACK	n/a	n/a	n/a	n/a	n/a	n/a	n/a	n/a
26.7102	1.0167	ITI	n/a	n/a	n/a	n/a	n/a	n/a	n/a	n/a
27.7269	0.5167	FIXCROSS	n/a	n/a	n/a	n/a	n/a	n/a	n/a	n/a
28.2436	0.5	T_INK	11	Neutral	xxxxxxxx	xxxxxxxx	niebieski	blue	hit	n/a
28.7191	n/a	RESPONSE	n/a	n/a	n/a	n/a	n/a	n/a	n/a	blue
28.7436	0.5167	FEEDBACK	n/a	n/a	n/a	n/a	n/a	n/a	n/a	n/a
29.2603	1.0167	ITI	n/a	n/a	n/a	n/a	n/a	n/a	n/a	n/a
30.277	0.5166	FIXCROSS	n/a	n/a	n/a	n/a	n/a	n/a	n/a	n/a
30.7936	0.9	T_INK	12	Incongruent	czerwony	red	zielony	green	hit	n/a
31.6725	n/a	RESPONSE	n/a	n/a	n/a	n/a	n/a	n/a	n/a	green
31.6936	0.5166	FEEDBACK	n/a	n/a	n/a	n/a	n/a	n/a	n/a	n/a
32.2103	1.0334	ITI	n/a	n/a	n/a	n/a	n/a	n/a	n/a	n/a
58.2361	n/a	RESPONSE	n/a	n/a	n/a	n/a	n/a	n/a	n/a	n/a
58.2938	1.0167	ITI	n/a	n/a	n/a	n/a	n/a	n/a	n/a	n/a
59.3105	0.5167	FIXCROSS	n/a	n/a	n/a	n/a	n/a	n/a	n/a	n/a
59.8272	0.7	INK	1	Neutral	xxxxx	xxxxx	zielony	green	hit	n/a
60.503	n/a	RESPONSE	n/a	n/a	n/a	n/a	n/a	n/a	n/a	green
60.5271	1.0167	ITI	n/a	n/a	n/a	n/a	n/a	n/a	n/a	n/a
61.5438	0.5167	FIXCROSS	n/a	n/a	n/a	n/a	n/a	n/a	n/a	n/a
62.0605	0.6167	INK	2	Incongruent	zielony	green	niebieski	blue	hit	n/a
62.6581	n/a	RESPONSE	n/a	n/a	n/a	n/a	n/a	n/a	n/a	blue
62.6772	1.0167	ITI	n/a	n/a	n/a	n/a	n/a	n/a	n/a	n/a
63.6939	0.5166	FIXCROSS	n/a	n/a	n/a	n/a	n/a	n/a	n/a	n/a
64.2105	0.5834	INK	3	Incongruent	żółty	yellow	niebieski	blue	hit	n/a
64.7653	n/a	RESPONSE	n/a	n/a	n/a	n/a	n/a	n/a	n/a	blue
64.7939	1.0166	ITI	n/a	n/a	n/a	n/a	n/a	n/a	n/a	n/a
65.8105	0.5167	FIXCROSS	n/a	n/a	n/a	n/a	n/a	n/a	n/a	n/a
66.3272	0.85	INK	4	Neutral	xxxxx	xxxxx	zielony	green	hit	n/a
67.1599	n/a	RESPONSE	n/a	n/a	n/a	n/a	n/a	n/a	n/a	green
67.1772	1.0167	ITI	n/a	n/a	n/a	n/a	n/a	n/a	n/a	n/a
68.1939	0.5167	FIXCROSS	n/a	n/a	n/a	n/a	n/a	n/a	n/a	n/a
68.7105	0.4667	INK	5	Neutral	xxxxxxx	xxxxxxx	żółty	yellow	hit	n/a
69.1554	n/a	RESPONSE	n/a	n/a	n/a	n/a	n/a	n/a	n/a	yellow
69.1772	1.0167	ITI	n/a	n/a	n/a	n/a	n/a	n/a	n/a	n/a
70.1939	0.5167	FIXCROSS	n/a	n/a	n/a	n/a	n/a	n/a	n/a	n/a
70.7106	0.5333	INK	6	Incongruent	czerwony	red	zielony	green	hit	n/a
71.2147	n/a	RESPONSE	n/a	n/a	n/a	n/a	n/a	n/a	n/a	green
71.2439	1.0167	ITI	n/a	n/a	n/a	n/a	n/a	n/a	n/a	n/a
72.2606	0.5167	FIXCROSS	n/a	n/a	n/a	n/a	n/a	n/a	n/a	n/a
72.7773	0.5666	INK	7	Incongruent	czerwony	red	niebieski	blue	hit	n/a
73.322	n/a	RESPONSE	n/a	n/a	n/a	n/a	n/a	n/a	n/a	blue
73.3439	1.0167	ITI	n/a	n/a	n/a	n/a	n/a	n/a	n/a	n/a
74.3606	0.5166	FIXCROSS	n/a	n/a	n/a	n/a	n/a	n/a	n/a	n/a
74.8772	0.6667	INK	8	Neutral	xxxxxxxx	xxxxxxxx	zielony	green	incorrect	n/a
75.5249	n/a	RESPONSE	n/a	n/a	n/a	n/a	n/a	n/a	n/a	yellow
75.5439	1.0167	ITI	n/a	n/a	n/a	n/a	n/a	n/a	n/a	n/a
75.6367	n/a	RESPONSE	n/a	n/a	n/a	n/a	n/a	n/a	n/a	green
76.5606	0.5167	FIXCROSS	n/a	n/a	n/a	n/a	n/a	n/a	n/a	n/a
77.0773	0.6	INK	9	Incongruent	żółty	yellow	czerwony	red	hit	n/a
77.6481	n/a	RESPONSE	n/a	n/a	n/a	n/a	n/a	n/a	n/a	red
77.6773	1.0167	ITI	n/a	n/a	n/a	n/a	n/a	n/a	n/a	n/a
78.694	0.5167	FIXCROSS	n/a	n/a	n/a	n/a	n/a	n/a	n/a	n/a
79.2106	0.6167	INK	10	Neutral	xxxxxxxxx	xxxxxxxxx	zielony	green	incorrect	n/a
79.8033	n/a	RESPONSE	n/a	n/a	n/a	n/a	n/a	n/a	n/a	yellow
79.8273	1.0167	ITI	n/a	n/a	n/a	n/a	n/a	n/a	n/a	n/a
80.844	0.5167	FIXCROSS	n/a	n/a	n/a	n/a	n/a	n/a	n/a	n/a
81.3607	0.65	INK	11	Incongruent	zielony	green	czerwony	red	hit	n/a
81.9903	n/a	RESPONSE	n/a	n/a	n/a	n/a	n/a	n/a	n/a	red
82.0107	1.0166	ITI	n/a	n/a	n/a	n/a	n/a	n/a	n/a	n/a
83.0273	0.5167	FIXCROSS	n/a	n/a	n/a	n/a	n/a	n/a	n/a	n/a
83.544	0.6333	INK	12	Neutral	xxxxxxxxx	xxxxxxxxx	zielony	green	hit	n/a
84.1453	n/a	RESPONSE	n/a	n/a	n/a	n/a	n/a	n/a	n/a	green
84.1773	1.0167	ITI	n/a	n/a	n/a	n/a	n/a	n/a	n/a	n/a
85.194	0.5167	FIXCROSS	n/a	n/a	n/a	n/a	n/a	n/a	n/a	n/a
85.7107	0.4	INK	13	Neutral	xxxxxxxx	xxxxxxxx	zielony	green	hit	n/a
86.0769	n/a	RESPONSE	n/a	n/a	n/a	n/a	n/a	n/a	n/a	green
86.1107	1.0167	ITI	n/a	n/a	n/a	n/a	n/a	n/a	n/a	n/a
87.1274	0.5167	FIXCROSS	n/a	n/a	n/a	n/a	n/a	n/a	n/a	n/a
87.644	0.75	INK	14	Neutral	xxxxxxx	xxxxxxx	niebieski	blue	hit	n/a
88.3757	n/a	RESPONSE	n/a	n/a	n/a	n/a	n/a	n/a	n/a	blue
88.394	1.0167	ITI	n/a	n/a	n/a	n/a	n/a	n/a	n/a	n/a
89.4107	0.5167	FIXCROSS	n/a	n/a	n/a	n/a	n/a	n/a	n/a	n/a
89.9274	0.55	INK	15	Neutral	xxxxxxx	xxxxxxx	niebieski	blue	hit	n/a
90.4509	n/a	RESPONSE	n/a	n/a	n/a	n/a	n/a	n/a	n/a	blue
90.4774	1.0167	ITI	n/a	n/a	n/a	n/a	n/a	n/a	n/a	n/a
91.4941	0.5167	FIXCROSS	n/a	n/a	n/a	n/a	n/a	n/a	n/a	n/a
92.0107	0.6667	INK	16	Incongruent	żółty	yellow	zielony	green	hit	n/a
92.654	n/a	RESPONSE	n/a	n/a	n/a	n/a	n/a	n/a	n/a	green
92.6774	1.0167	ITI	n/a	n/a	n/a	n/a	n/a	n/a	n/a	n/a
93.6941	0.5166	FIXCROSS	n/a	n/a	n/a	n/a	n/a	n/a	n/a	n/a
94.2107	0.5834	INK	17	Neutral	xxxxxxxx	xxxxxxxx	żółty	yellow	hit	n/a
94.7611	n/a	RESPONSE	n/a	n/a	n/a	n/a	n/a	n/a	n/a	yellow
94.7941	1.0166	ITI	n/a	n/a	n/a	n/a	n/a	n/a	n/a	n/a
95.8107	0.5167	FIXCROSS	n/a	n/a	n/a	n/a	n/a	n/a	n/a	n/a
96.3274	0.3833	INK	18	Incongruent	żółty	yellow	czerwony	red	hit	n/a
96.6768	n/a	RESPONSE	n/a	n/a	n/a	n/a	n/a	n/a	n/a	red
96.7108	1.0167	ITI	n/a	n/a	n/a	n/a	n/a	n/a	n/a	n/a
97.7274	0.5167	FIXCROSS	n/a	n/a	n/a	n/a	n/a	n/a	n/a	n/a
98.2441	0.6333	INK	19	Incongruent	niebieski	blue	zielony	green	hit	n/a
98.8479	n/a	RESPONSE	n/a	n/a	n/a	n/a	n/a	n/a	n/a	green
98.8774	1.0167	ITI	n/a	n/a	n/a	n/a	n/a	n/a	n/a	n/a
99.8941	0.5167	FIXCROSS	n/a	n/a	n/a	n/a	n/a	n/a	n/a	n/a
100.4108	0.4667	INK	20	Incongruent	czerwony	red	zielony	green	hit	n/a
100.8593	n/a	RESPONSE	n/a	n/a	n/a	n/a	n/a	n/a	n/a	green
100.8775	1.0167	ITI	n/a	n/a	n/a	n/a	n/a	n/a	n/a	n/a
101.8941	0.5166	FIXCROSS	n/a	n/a	n/a	n/a	n/a	n/a	n/a	n/a
102.4108	0.3667	INK	21	Incongruent	niebieski	blue	żółty	yellow	hit	n/a
102.759	n/a	RESPONSE	n/a	n/a	n/a	n/a	n/a	n/a	n/a	yellow
102.7774	1.0167	ITI	n/a	n/a	n/a	n/a	n/a	n/a	n/a	n/a
103.7942	0.5166	FIXCROSS	n/a	n/a	n/a	n/a	n/a	n/a	n/a	n/a
104.3108	0.4167	INK	22	Incongruent	żółty	yellow	zielony	green	hit	n/a
104.7066	n/a	RESPONSE	n/a	n/a	n/a	n/a	n/a	n/a	n/a	green
104.7275	1.0167	ITI	n/a	n/a	n/a	n/a	n/a	n/a	n/a	n/a
105.7441	0.5167	FIXCROSS	n/a	n/a	n/a	n/a	n/a	n/a	n/a	n/a
106.2608	0.3333	INK	23	Incongruent	zielony	green	niebieski	blue	hit	n/a
106.5743	n/a	RESPONSE	n/a	n/a	n/a	n/a	n/a	n/a	n/a	blue
106.5941	1.0167	ITI	n/a	n/a	n/a	n/a	n/a	n/a	n/a	n/a
107.6108	0.5167	FIXCROSS	n/a	n/a	n/a	n/a	n/a	n/a	n/a	n/a
108.1275	0.5167	INK	24	Incongruent	czerwony	red	niebieski	blue	hit	n/a
108.6177	n/a	RESPONSE	n/a	n/a	n/a	n/a	n/a	n/a	n/a	blue
108.6442	1.0167	ITI	n/a	n/a	n/a	n/a	n/a	n/a	n/a	n/a
109.6609	0.5167	FIXCROSS	n/a	n/a	n/a	n/a	n/a	n/a	n/a	n/a
110.1775	0.3833	INK	25	Incongruent	żółty	yellow	czerwony	red	hit	n/a
110.5333	n/a	RESPONSE	n/a	n/a	n/a	n/a	n/a	n/a	n/a	red
110.5609	1.0167	ITI	n/a	n/a	n/a	n/a	n/a	n/a	n/a	n/a
111.5775	0.5167	FIXCROSS	n/a	n/a	n/a	n/a	n/a	n/a	n/a	n/a
112.0942	0.5	INK	26	Neutral	xxxxx	xxxxx	czerwony	red	hit	n/a
112.5608	n/a	RESPONSE	n/a	n/a	n/a	n/a	n/a	n/a	n/a	red
112.5942	1.0167	ITI	n/a	n/a	n/a	n/a	n/a	n/a	n/a	n/a
113.6109	0.5167	FIXCROSS	n/a	n/a	n/a	n/a	n/a	n/a	n/a	n/a
114.1276	0.55	INK	27	Incongruent	zielony	green	czerwony	red	hit	n/a
114.6519	n/a	RESPONSE	n/a	n/a	n/a	n/a	n/a	n/a	n/a	red
114.6776	1.0167	ITI	n/a	n/a	n/a	n/a	n/a	n/a	n/a	n/a
115.6942	0.5167	FIXCROSS	n/a	n/a	n/a	n/a	n/a	n/a	n/a	n/a
116.2109	0.5	INK	28	Neutral	xxxxxxxxx	xxxxxxxxx	zielony	green	hit	n/a
116.6794	n/a	RESPONSE	n/a	n/a	n/a	n/a	n/a	n/a	n/a	green
116.7109	1.0167	ITI	n/a	n/a	n/a	n/a	n/a	n/a	n/a	n/a
117.7276	0.5167	FIXCROSS	n/a	n/a	n/a	n/a	n/a	n/a	n/a	n/a
118.2443	0.7	INK	29	Incongruent	czerwony	red	żółty	yellow	hit	n/a
118.9142	n/a	RESPONSE	n/a	n/a	n/a	n/a	n/a	n/a	n/a	yellow
118.9443	1.0166	ITI	n/a	n/a	n/a	n/a	n/a	n/a	n/a	n/a
119.9609	0.5167	FIXCROSS	n/a	n/a	n/a	n/a	n/a	n/a	n/a	n/a
120.4776	0.5834	INK	30	Neutral	xxxxxxxx	xxxxxxxx	zielony	green	hit	n/a
121.0374	n/a	RESPONSE	n/a	n/a	n/a	n/a	n/a	n/a	n/a	green
121.0609	1.0167	ITI	n/a	n/a	n/a	n/a	n/a	n/a	n/a	n/a
122.0776	0.5166	FIXCROSS	n/a	n/a	n/a	n/a	n/a	n/a	n/a	n/a
122.5942	0.4834	INK	31	Incongruent	zielony	green	żółty	yellow	hit	n/a
123.0489	n/a	RESPONSE	n/a	n/a	n/a	n/a	n/a	n/a	n/a	yellow
123.0776	1.0166	ITI	n/a	n/a	n/a	n/a	n/a	n/a	n/a	n/a
124.0943	0.5167	FIXCROSS	n/a	n/a	n/a	n/a	n/a	n/a	n/a	n/a
124.6109	0.35	INK	32	Incongruent	czerwony	red	żółty	yellow	hit	n/a
124.9325	n/a	RESPONSE	n/a	n/a	n/a	n/a	n/a	n/a	n/a	yellow
124.961	1.0167	ITI	n/a	n/a	n/a	n/a	n/a	n/a	n/a	n/a
125.9776	0.5167	FIXCROSS	n/a	n/a	n/a	n/a	n/a	n/a	n/a	n/a
126.4943	0.4167	INK	33	Neutral	xxxxxxx	xxxxxxx	żółty	yellow	incorrect	n/a
126.8801	n/a	RESPONSE	n/a	n/a	n/a	n/a	n/a	n/a	n/a	green
126.911	1.0166	ITI	n/a	n/a	n/a	n/a	n/a	n/a	n/a	n/a
127.9276	0.5167	FIXCROSS	n/a	n/a	n/a	n/a	n/a	n/a	n/a	n/a
128.4443	0.5167	INK	34	Incongruent	zielony	green	żółty	yellow	hit	n/a
128.9394	n/a	RESPONSE	n/a	n/a	n/a	n/a	n/a	n/a	n/a	yellow
128.961	1.0167	ITI	n/a	n/a	n/a	n/a	n/a	n/a	n/a	n/a
129.9777	0.5167	FIXCROSS	n/a	n/a	n/a	n/a	n/a	n/a	n/a	n/a
130.4943	0.55	INK	35	Neutral	xxxxx	xxxxx	czerwony	red	hit	n/a
131.0148	n/a	RESPONSE	n/a	n/a	n/a	n/a	n/a	n/a	n/a	red
131.0443	1.0167	ITI	n/a	n/a	n/a	n/a	n/a	n/a	n/a	n/a
132.061	0.5167	FIXCROSS	n/a	n/a	n/a	n/a	n/a	n/a	n/a	n/a
132.5777	0.5167	INK	36	Incongruent	czerwony	red	zielony	green	hit	n/a
133.074	n/a	RESPONSE	n/a	n/a	n/a	n/a	n/a	n/a	n/a	green
133.0944	1.0167	ITI	n/a	n/a	n/a	n/a	n/a	n/a	n/a	n/a
134.111	0.5167	FIXCROSS	n/a	n/a	n/a	n/a	n/a	n/a	n/a	n/a
134.6277	0.6333	INK	37	Neutral	xxxxxxx	xxxxxxx	czerwony	red	hit	n/a
135.2291	n/a	RESPONSE	n/a	n/a	n/a	n/a	n/a	n/a	n/a	red
135.261	1.0167	ITI	n/a	n/a	n/a	n/a	n/a	n/a	n/a	n/a
136.2777	0.5167	FIXCROSS	n/a	n/a	n/a	n/a	n/a	n/a	n/a	n/a
136.7944	0.55	INK	38	Neutral	xxxxxxxx	xxxxxxxx	żółty	yellow	incorrect	n/a
137.3204	n/a	RESPONSE	n/a	n/a	n/a	n/a	n/a	n/a	n/a	green
137.3444	1.0167	ITI	n/a	n/a	n/a	n/a	n/a	n/a	n/a	n/a
138.3611	0.5167	FIXCROSS	n/a	n/a	n/a	n/a	n/a	n/a	n/a	n/a
138.8777	0.6333	INK	39	Incongruent	niebieski	blue	zielony	green	hit	n/a
139.4915	n/a	RESPONSE	n/a	n/a	n/a	n/a	n/a	n/a	n/a	green
139.511	1.0167	ITI	n/a	n/a	n/a	n/a	n/a	n/a	n/a	n/a
140.5277	0.5167	FIXCROSS	n/a	n/a	n/a	n/a	n/a	n/a	n/a	n/a
141.0444	0.35	INK	40	Incongruent	niebieski	blue	żółty	yellow	hit	n/a
141.3752	n/a	RESPONSE	n/a	n/a	n/a	n/a	n/a	n/a	n/a	yellow
141.3944	1.0166	ITI	n/a	n/a	n/a	n/a	n/a	n/a	n/a	n/a
142.4111	0.5167	FIXCROSS	n/a	n/a	n/a	n/a	n/a	n/a	n/a	n/a
142.9277	0.8833	INK	41	Incongruent	żółty	yellow	niebieski	blue	hit	n/a
143.7856	n/a	RESPONSE	n/a	n/a	n/a	n/a	n/a	n/a	n/a	blue
143.8111	1.0167	ITI	n/a	n/a	n/a	n/a	n/a	n/a	n/a	n/a
144.8278	0.5167	FIXCROSS	n/a	n/a	n/a	n/a	n/a	n/a	n/a	n/a
145.3444	0.6167	INK	42	Incongruent	niebieski	blue	żółty	yellow	hit	n/a
145.9408	n/a	RESPONSE	n/a	n/a	n/a	n/a	n/a	n/a	n/a	yellow
145.9611	1.0104	ITI	n/a	n/a	n/a	n/a	n/a	n/a	n/a	n/a
146.9715	0.523	FIXCROSS	n/a	n/a	n/a	n/a	n/a	n/a	n/a	n/a
147.4945	0.6	INK	43	Neutral	xxxxx	xxxxx	czerwony	red	hit	n/a
148.064	n/a	RESPONSE	n/a	n/a	n/a	n/a	n/a	n/a	n/a	red
148.0945	1.0167	ITI	n/a	n/a	n/a	n/a	n/a	n/a	n/a	n/a
149.1111	0.5166	FIXCROSS	n/a	n/a	n/a	n/a	n/a	n/a	n/a	n/a
149.6278	0.7667	INK	44	Incongruent	niebieski	blue	zielony	green	incorrect	n/a
150.3628	n/a	RESPONSE	n/a	n/a	n/a	n/a	n/a	n/a	n/a	yellow
150.3945	1.0167	ITI	n/a	n/a	n/a	n/a	n/a	n/a	n/a	n/a
150.5703	n/a	RESPONSE	n/a	n/a	n/a	n/a	n/a	n/a	n/a	green
151.4112	0.5167	FIXCROSS	n/a	n/a	n/a	n/a	n/a	n/a	n/a	n/a
151.9278	0.45	INK	45	Incongruent	żółty	yellow	zielony	green	hit	n/a
152.3581	n/a	RESPONSE	n/a	n/a	n/a	n/a	n/a	n/a	n/a	green
152.3778	1.0166	ITI	n/a	n/a	n/a	n/a	n/a	n/a	n/a	n/a
153.3945	0.5167	FIXCROSS	n/a	n/a	n/a	n/a	n/a	n/a	n/a	n/a
153.9111	0.6334	INK	46	Neutral	xxxxxxx	xxxxxxx	czerwony	red	hit	n/a
154.5134	n/a	RESPONSE	n/a	n/a	n/a	n/a	n/a	n/a	n/a	red
154.5445	1.0166	ITI	n/a	n/a	n/a	n/a	n/a	n/a	n/a	n/a
155.5612	0.5167	FIXCROSS	n/a	n/a	n/a	n/a	n/a	n/a	n/a	n/a
156.0779	0.6	INK	47	Incongruent	czerwony	red	żółty	yellow	hit	n/a
156.6524	n/a	RESPONSE	n/a	n/a	n/a	n/a	n/a	n/a	n/a	yellow
156.6778	1.0167	ITI	n/a	n/a	n/a	n/a	n/a	n/a	n/a	n/a
157.6945	0.5167	FIXCROSS	n/a	n/a	n/a	n/a	n/a	n/a	n/a	n/a
158.2112	0.65	INK	48	Incongruent	niebieski	blue	czerwony	red	hit	n/a
158.8395	n/a	RESPONSE	n/a	n/a	n/a	n/a	n/a	n/a	n/a	red
158.8612	1.0167	ITI	n/a	n/a	n/a	n/a	n/a	n/a	n/a	n/a
159.8779	0.5167	FIXCROSS	n/a	n/a	n/a	n/a	n/a	n/a	n/a	n/a
160.3946	0.6	INK	49	Neutral	xxxxxxxxx	xxxxxxxxx	żółty	yellow	hit	n/a
160.9625	n/a	RESPONSE	n/a	n/a	n/a	n/a	n/a	n/a	n/a	yellow
160.9946	1.0167	ITI	n/a	n/a	n/a	n/a	n/a	n/a	n/a	n/a
162.0112	0.5167	FIXCROSS	n/a	n/a	n/a	n/a	n/a	n/a	n/a	n/a
162.5279	0.4833	INK	50	Neutral	xxxxxxxxx	xxxxxxxxx	czerwony	red	hit	n/a
162.9719	n/a	RESPONSE	n/a	n/a	n/a	n/a	n/a	n/a	n/a	red
163.0112	1.0167	ITI	n/a	n/a	n/a	n/a	n/a	n/a	n/a	n/a
164.0279	0.5166	FIXCROSS	n/a	n/a	n/a	n/a	n/a	n/a	n/a	n/a
164.5446	0.6667	INK	51	Neutral	xxxxx	xxxxx	niebieski	blue	hit	n/a
165.193	n/a	RESPONSE	n/a	n/a	n/a	n/a	n/a	n/a	n/a	blue
165.2113	1.0166	ITI	n/a	n/a	n/a	n/a	n/a	n/a	n/a	n/a
166.2279	0.5167	FIXCROSS	n/a	n/a	n/a	n/a	n/a	n/a	n/a	n/a
166.7446	0.7501	INK	52	Incongruent	niebieski	blue	czerwony	red	hit	n/a
167.4758	n/a	RESPONSE	n/a	n/a	n/a	n/a	n/a	n/a	n/a	red
167.4946	1.0166	ITI	n/a	n/a	n/a	n/a	n/a	n/a	n/a	n/a
168.5113	0.5167	FIXCROSS	n/a	n/a	n/a	n/a	n/a	n/a	n/a	n/a
169.028	0.4667	INK	53	Neutral	xxxxxxxxx	xxxxxxxxx	żółty	yellow	hit	n/a
169.4713	n/a	RESPONSE	n/a	n/a	n/a	n/a	n/a	n/a	n/a	yellow
169.4946	1.0167	ITI	n/a	n/a	n/a	n/a	n/a	n/a	n/a	n/a
170.5113	0.5166	FIXCROSS	n/a	n/a	n/a	n/a	n/a	n/a	n/a	n/a
171.0279	0.55	INK	54	Neutral	xxxxxxxxx	xxxxxxxxx	żółty	yellow	hit	n/a
171.5465	n/a	RESPONSE	n/a	n/a	n/a	n/a	n/a	n/a	n/a	yellow
171.578	1.0166	ITI	n/a	n/a	n/a	n/a	n/a	n/a	n/a	n/a
172.5946	0.5167	FIXCROSS	n/a	n/a	n/a	n/a	n/a	n/a	n/a	n/a
173.1113	0.65	INK	55	Neutral	xxxxxxxx	xxxxxxxx	niebieski	blue	hit	n/a
173.7335	n/a	RESPONSE	n/a	n/a	n/a	n/a	n/a	n/a	n/a	blue
173.7613	1.0167	ITI	n/a	n/a	n/a	n/a	n/a	n/a	n/a	n/a
174.778	0.5167	FIXCROSS	n/a	n/a	n/a	n/a	n/a	n/a	n/a	n/a
175.2947	0.9	INK	56	Neutral	xxxxx	xxxxx	zielony	green	hit	n/a
176.1761	n/a	RESPONSE	n/a	n/a	n/a	n/a	n/a	n/a	n/a	green
176.1947	1.0167	ITI	n/a	n/a	n/a	n/a	n/a	n/a	n/a	n/a
177.2114	0.5166	FIXCROSS	n/a	n/a	n/a	n/a	n/a	n/a	n/a	n/a
177.728	0.6834	INK	57	Neutral	xxxxx	xxxxx	niebieski	blue	hit	n/a
178.379	n/a	RESPONSE	n/a	n/a	n/a	n/a	n/a	n/a	n/a	blue
178.4114	1.0166	ITI	n/a	n/a	n/a	n/a	n/a	n/a	n/a	n/a
179.428	0.5167	FIXCROSS	n/a	n/a	n/a	n/a	n/a	n/a	n/a	n/a
179.9447	0.55	INK	58	Neutral	xxxxxxx	xxxxxxx	czerwony	red	hit	n/a
180.4702	n/a	RESPONSE	n/a	n/a	n/a	n/a	n/a	n/a	n/a	red
180.4947	1.0167	ITI	n/a	n/a	n/a	n/a	n/a	n/a	n/a	n/a
181.5113	0.5167	FIXCROSS	n/a	n/a	n/a	n/a	n/a	n/a	n/a	n/a
182.028	0.5833	INK	59	Incongruent	zielony	green	niebieski	blue	hit	n/a
182.5934	n/a	RESPONSE	n/a	n/a	n/a	n/a	n/a	n/a	n/a	blue
182.6114	1.0167	ITI	n/a	n/a	n/a	n/a	n/a	n/a	n/a	n/a
183.6281	0.5167	FIXCROSS	n/a	n/a	n/a	n/a	n/a	n/a	n/a	n/a
184.1447	0.6167	INK	60	Incongruent	żółty	yellow	niebieski	blue	hit	n/a
184.7325	n/a	RESPONSE	n/a	n/a	n/a	n/a	n/a	n/a	n/a	blue
184.7614	1.0167	ITI	n/a	n/a	n/a	n/a	n/a	n/a	n/a	n/a
185.7781	0.5167	FIXCROSS	n/a	n/a	n/a	n/a	n/a	n/a	n/a	n/a
186.2947	0.5	INK	61	Neutral	xxxxxxx	xxxxxxx	niebieski	blue	hit	n/a
186.7759	n/a	RESPONSE	n/a	n/a	n/a	n/a	n/a	n/a	n/a	blue
186.7948	1.0167	ITI	n/a	n/a	n/a	n/a	n/a	n/a	n/a	n/a
187.8114	0.5167	FIXCROSS	n/a	n/a	n/a	n/a	n/a	n/a	n/a	n/a
188.3281	0.7	INK	62	Neutral	xxxxxxxx	xxxxxxxx	niebieski	blue	hit	n/a
188.9948	n/a	RESPONSE	n/a	n/a	n/a	n/a	n/a	n/a	n/a	blue
189.0281	1.0167	ITI	n/a	n/a	n/a	n/a	n/a	n/a	n/a	n/a
190.0448	0.5167	FIXCROSS	n/a	n/a	n/a	n/a	n/a	n/a	n/a	n/a
190.5614	0.6	INK	63	Neutral	xxxxxxxx	xxxxxxxx	niebieski	blue	hit	n/a
191.134	n/a	RESPONSE	n/a	n/a	n/a	n/a	n/a	n/a	n/a	blue
191.1614	1.0167	ITI	n/a	n/a	n/a	n/a	n/a	n/a	n/a	n/a
192.1781	0.5167	FIXCROSS	n/a	n/a	n/a	n/a	n/a	n/a	n/a	n/a
192.6948	0.7	INK	64	Neutral	xxxxx	xxxxx	niebieski	blue	hit	n/a
193.369	n/a	RESPONSE	n/a	n/a	n/a	n/a	n/a	n/a	n/a	blue
193.3948	1.0167	ITI	n/a	n/a	n/a	n/a	n/a	n/a	n/a	n/a
194.4115	0.5167	FIXCROSS	n/a	n/a	n/a	n/a	n/a	n/a	n/a	n/a
194.9281	0.6166	INK	65	Incongruent	zielony	green	żółty	yellow	hit	n/a
195.524	n/a	RESPONSE	n/a	n/a	n/a	n/a	n/a	n/a	n/a	yellow
195.5448	1.0167	ITI	n/a	n/a	n/a	n/a	n/a	n/a	n/a	n/a
196.5615	0.5167	FIXCROSS	n/a	n/a	n/a	n/a	n/a	n/a	n/a	n/a
197.0782	0.55	INK	66	Incongruent	zielony	green	czerwony	red	hit	n/a
197.5993	n/a	RESPONSE	n/a	n/a	n/a	n/a	n/a	n/a	n/a	red
197.6282	1.0167	ITI	n/a	n/a	n/a	n/a	n/a	n/a	n/a	n/a
198.6448	0.5167	FIXCROSS	n/a	n/a	n/a	n/a	n/a	n/a	n/a	n/a
199.1615	0.5833	INK	67	Neutral	xxxxxxxxx	xxxxxxxxx	czerwony	red	hit	n/a
199.7224	n/a	RESPONSE	n/a	n/a	n/a	n/a	n/a	n/a	n/a	red
199.7448	1.0166	ITI	n/a	n/a	n/a	n/a	n/a	n/a	n/a	n/a
200.7615	0.5167	FIXCROSS	n/a	n/a	n/a	n/a	n/a	n/a	n/a	n/a
201.2782	0.5667	INK	68	Incongruent	niebieski	blue	czerwony	red	hit	n/a
201.8138	n/a	RESPONSE	n/a	n/a	n/a	n/a	n/a	n/a	n/a	red
201.8449	1.0167	ITI	n/a	n/a	n/a	n/a	n/a	n/a	n/a	n/a
202.8615	0.5167	FIXCROSS	n/a	n/a	n/a	n/a	n/a	n/a	n/a	n/a
203.3782	0.4167	INK	69	Neutral	xxxxxxxxx	xxxxxxxxx	czerwony	red	hit	n/a
203.7773	n/a	RESPONSE	n/a	n/a	n/a	n/a	n/a	n/a	n/a	red
203.7949	1.0166	ITI	n/a	n/a	n/a	n/a	n/a	n/a	n/a	n/a
204.8115	0.5167	FIXCROSS	n/a	n/a	n/a	n/a	n/a	n/a	n/a	n/a
205.3282	0.6166	INK	70	Incongruent	czerwony	red	niebieski	blue	hit	n/a
205.9164	n/a	RESPONSE	n/a	n/a	n/a	n/a	n/a	n/a	n/a	blue
205.9449	1.0167	ITI	n/a	n/a	n/a	n/a	n/a	n/a	n/a	n/a
206.9615	0.5167	FIXCROSS	n/a	n/a	n/a	n/a	n/a	n/a	n/a	n/a
207.4782	0.5333	INK	71	Neutral	xxxxxxxx	xxxxxxxx	żółty	yellow	hit	n/a
207.9917	n/a	RESPONSE	n/a	n/a	n/a	n/a	n/a	n/a	n/a	yellow
208.0115	1.0167	ITI	n/a	n/a	n/a	n/a	n/a	n/a	n/a	n/a
209.0283	0.5167	FIXCROSS	n/a	n/a	n/a	n/a	n/a	n/a	n/a	n/a
209.5449	0.4333	INK	72	Neutral	xxxxxxx	xxxxxxx	żółty	yellow	hit	n/a
209.9552	n/a	RESPONSE	n/a	n/a	n/a	n/a	n/a	n/a	n/a	yellow
209.9782	1.1	ITI	n/a	n/a	n/a	n/a	n/a	n/a	n/a	n/a
239.3281	n/a	RESPONSE	n/a	n/a	n/a	n/a	n/a	n/a	n/a	n/a
239.3951	1.0167	ITI	n/a	n/a	n/a	n/a	n/a	n/a	n/a	n/a
240.4118	0.5166	FIXCROSS	n/a	n/a	n/a	n/a	n/a	n/a	n/a	n/a
240.9284	0.7667	T_COLOR_NAME	1	Neutral	czerwony	red	Neutral	Neutral	hit	n/a
241.6589	n/a	RESPONSE	n/a	n/a	n/a	n/a	n/a	n/a	n/a	red
241.6951	0.5166	FEEDBACK	n/a	n/a	n/a	n/a	n/a	n/a	n/a	n/a
242.2118	1.0167	ITI	n/a	n/a	n/a	n/a	n/a	n/a	n/a	n/a
243.2285	0.5167	FIXCROSS	n/a	n/a	n/a	n/a	n/a	n/a	n/a	n/a
243.7452	1.1	T_COLOR_NAME	2	Incongruent	niebieski	blue	czerwony	red	incorrect	n/a
244.8197	n/a	RESPONSE	n/a	n/a	n/a	n/a	n/a	n/a	n/a	red
244.8452	0.5167	FEEDBACK	n/a	n/a	n/a	n/a	n/a	n/a	n/a	n/a
245.3619	1.0167	ITI	n/a	n/a	n/a	n/a	n/a	n/a	n/a	n/a
246.3785	0.5166	FIXCROSS	n/a	n/a	n/a	n/a	n/a	n/a	n/a	n/a
246.8952	0.8667	T_COLOR_NAME	3	Neutral	zielony	green	Neutral	Neutral	hit	n/a
247.741	n/a	RESPONSE	n/a	n/a	n/a	n/a	n/a	n/a	n/a	green
247.7618	0.5167	FEEDBACK	n/a	n/a	n/a	n/a	n/a	n/a	n/a	n/a
248.2785	1.0167	ITI	n/a	n/a	n/a	n/a	n/a	n/a	n/a	n/a
249.2952	0.5167	FIXCROSS	n/a	n/a	n/a	n/a	n/a	n/a	n/a	n/a
249.8119	0.85	T_COLOR_NAME	4	Incongruent	żółty	yellow	niebieski	blue	hit	n/a
250.6305	n/a	RESPONSE	n/a	n/a	n/a	n/a	n/a	n/a	n/a	yellow
250.6618	0.5167	FEEDBACK	n/a	n/a	n/a	n/a	n/a	n/a	n/a	n/a
251.1786	1.0166	ITI	n/a	n/a	n/a	n/a	n/a	n/a	n/a	n/a
252.1952	0.5167	FIXCROSS	n/a	n/a	n/a	n/a	n/a	n/a	n/a	n/a
252.7119	0.9167	T_COLOR_NAME	5	Neutral	niebieski	blue	Neutral	Neutral	hit	n/a
253.5997	n/a	RESPONSE	n/a	n/a	n/a	n/a	n/a	n/a	n/a	blue
253.6286	0.5167	FEEDBACK	n/a	n/a	n/a	n/a	n/a	n/a	n/a	n/a
254.1452	1.0167	ITI	n/a	n/a	n/a	n/a	n/a	n/a	n/a	n/a
255.1619	0.5167	FIXCROSS	n/a	n/a	n/a	n/a	n/a	n/a	n/a	n/a
255.6786	0.6167	T_COLOR_NAME	6	Neutral	zielony	green	Neutral	Neutral	hit	n/a
256.2657	n/a	RESPONSE	n/a	n/a	n/a	n/a	n/a	n/a	n/a	green
256.2953	0.5167	FEEDBACK	n/a	n/a	n/a	n/a	n/a	n/a	n/a	n/a
256.8119	1.0167	ITI	n/a	n/a	n/a	n/a	n/a	n/a	n/a	n/a
257.8286	0.5167	FIXCROSS	n/a	n/a	n/a	n/a	n/a	n/a	n/a	n/a
258.3453	0.7333	T_COLOR_NAME	7	Incongruent	czerwony	red	żółty	yellow	hit	n/a
259.0592	n/a	RESPONSE	n/a	n/a	n/a	n/a	n/a	n/a	n/a	red
259.0786	0.5167	FEEDBACK	n/a	n/a	n/a	n/a	n/a	n/a	n/a	n/a
259.5953	1.0167	ITI	n/a	n/a	n/a	n/a	n/a	n/a	n/a	n/a
260.612	0.5166	FIXCROSS	n/a	n/a	n/a	n/a	n/a	n/a	n/a	n/a
261.1286	0.7	T_COLOR_NAME	8	Incongruent	czerwony	red	niebieski	blue	hit	n/a
261.8051	n/a	RESPONSE	n/a	n/a	n/a	n/a	n/a	n/a	n/a	red
261.8286	0.5167	FEEDBACK	n/a	n/a	n/a	n/a	n/a	n/a	n/a	n/a
262.3453	1.0166	ITI	n/a	n/a	n/a	n/a	n/a	n/a	n/a	n/a
263.362	0.5167	FIXCROSS	n/a	n/a	n/a	n/a	n/a	n/a	n/a	n/a
263.8786	0.6167	T_COLOR_NAME	9	Neutral	niebieski	blue	Neutral	Neutral	incorrect	n/a
264.471	n/a	RESPONSE	n/a	n/a	n/a	n/a	n/a	n/a	n/a	red
264.4953	0.5167	FEEDBACK	n/a	n/a	n/a	n/a	n/a	n/a	n/a	n/a
264.7744	n/a	RESPONSE	n/a	n/a	n/a	n/a	n/a	n/a	n/a	blue
265.012	1.0167	ITI	n/a	n/a	n/a	n/a	n/a	n/a	n/a	n/a
266.0287	0.5167	FIXCROSS	n/a	n/a	n/a	n/a	n/a	n/a	n/a	n/a
266.5453	0.8833	T_COLOR_NAME	10	Incongruent	czerwony	red	zielony	green	hit	n/a
267.4083	n/a	RESPONSE	n/a	n/a	n/a	n/a	n/a	n/a	n/a	red
267.4286	0.5167	FEEDBACK	n/a	n/a	n/a	n/a	n/a	n/a	n/a	n/a
267.9453	1.0167	ITI	n/a	n/a	n/a	n/a	n/a	n/a	n/a	n/a
268.962	0.5167	FIXCROSS	n/a	n/a	n/a	n/a	n/a	n/a	n/a	n/a
269.4787	0.8333	T_COLOR_NAME	11	Neutral	żółty	yellow	Neutral	Neutral	hit	n/a
270.2817	n/a	RESPONSE	n/a	n/a	n/a	n/a	n/a	n/a	n/a	yellow
270.312	0.5167	FEEDBACK	n/a	n/a	n/a	n/a	n/a	n/a	n/a	n/a
270.8287	1.0166	ITI	n/a	n/a	n/a	n/a	n/a	n/a	n/a	n/a
271.8453	0.5167	FIXCROSS	n/a	n/a	n/a	n/a	n/a	n/a	n/a	n/a
272.362	0.55	T_COLOR_NAME	12	Neutral	czerwony	red	Neutral	Neutral	hit	n/a
272.8838	n/a	RESPONSE	n/a	n/a	n/a	n/a	n/a	n/a	n/a	red
272.912	0.5166	FEEDBACK	n/a	n/a	n/a	n/a	n/a	n/a	n/a	n/a
273.4287	1.0333	ITI	n/a	n/a	n/a	n/a	n/a	n/a	n/a	n/a
282.3982	n/a	RESPONSE	n/a	n/a	n/a	n/a	n/a	n/a	n/a	n/a
282.4621	1.0167	ITI	n/a	n/a	n/a	n/a	n/a	n/a	n/a	n/a
283.4788	0.5167	FIXCROSS	n/a	n/a	n/a	n/a	n/a	n/a	n/a	n/a
283.9955	0.7667	COLOR_NAME	1	Neutral	żółty	yellow	Neutral	Neutral	hit	n/a
284.7289	n/a	RESPONSE	n/a	n/a	n/a	n/a	n/a	n/a	n/a	yellow
284.7621	1.0167	ITI	n/a	n/a	n/a	n/a	n/a	n/a	n/a	n/a
285.7788	0.5167	FIXCROSS	n/a	n/a	n/a	n/a	n/a	n/a	n/a	n/a
286.2955	0.5834	COLOR_NAME	2	Neutral	niebieski	blue	Neutral	Neutral	hit	n/a
286.8521	n/a	RESPONSE	n/a	n/a	n/a	n/a	n/a	n/a	n/a	blue
286.8788	1.0167	ITI	n/a	n/a	n/a	n/a	n/a	n/a	n/a	n/a
287.8955	0.5166	FIXCROSS	n/a	n/a	n/a	n/a	n/a	n/a	n/a	n/a
288.4121	0.6501	COLOR_NAME	3	Incongruent	żółty	yellow	zielony	green	hit	n/a
289.0392	n/a	RESPONSE	n/a	n/a	n/a	n/a	n/a	n/a	n/a	yellow
289.0622	1.0167	ITI	n/a	n/a	n/a	n/a	n/a	n/a	n/a	n/a
290.0788	0.5167	FIXCROSS	n/a	n/a	n/a	n/a	n/a	n/a	n/a	n/a
290.5955	0.8167	COLOR_NAME	4	Incongruent	niebieski	blue	zielony	green	hit	n/a
291.3857	n/a	RESPONSE	n/a	n/a	n/a	n/a	n/a	n/a	n/a	blue
291.4122	1.0166	ITI	n/a	n/a	n/a	n/a	n/a	n/a	n/a	n/a
292.4288	0.5167	FIXCROSS	n/a	n/a	n/a	n/a	n/a	n/a	n/a	n/a
292.9455	0.4667	COLOR_NAME	5	Neutral	czerwony	red	Neutral	Neutral	hit	n/a
293.3812	n/a	RESPONSE	n/a	n/a	n/a	n/a	n/a	n/a	n/a	red
293.4122	1.0167	ITI	n/a	n/a	n/a	n/a	n/a	n/a	n/a	n/a
294.4289	0.5166	FIXCROSS	n/a	n/a	n/a	n/a	n/a	n/a	n/a	n/a
294.9455	0.75	COLOR_NAME	6	Incongruent	czerwony	red	zielony	green	hit	n/a
295.6641	n/a	RESPONSE	n/a	n/a	n/a	n/a	n/a	n/a	n/a	red
295.6955	1.0167	ITI	n/a	n/a	n/a	n/a	n/a	n/a	n/a	n/a
296.7122	0.5167	FIXCROSS	n/a	n/a	n/a	n/a	n/a	n/a	n/a	n/a
297.2289	0.7	COLOR_NAME	7	Neutral	czerwony	red	Neutral	Neutral	hit	n/a
297.8989	n/a	RESPONSE	n/a	n/a	n/a	n/a	n/a	n/a	n/a	red
297.9289	1.0167	ITI	n/a	n/a	n/a	n/a	n/a	n/a	n/a	n/a
298.9456	0.5166	FIXCROSS	n/a	n/a	n/a	n/a	n/a	n/a	n/a	n/a
299.4622	0.6334	COLOR_NAME	8	Incongruent	żółty	yellow	niebieski	blue	hit	n/a
300.07	n/a	RESPONSE	n/a	n/a	n/a	n/a	n/a	n/a	n/a	yellow
300.0956	1.0167	ITI	n/a	n/a	n/a	n/a	n/a	n/a	n/a	n/a
301.1122	0.5167	FIXCROSS	n/a	n/a	n/a	n/a	n/a	n/a	n/a	n/a
301.6289	0.6	COLOR_NAME	9	Neutral	żółty	yellow	Neutral	Neutral	hit	n/a
302.2091	n/a	RESPONSE	n/a	n/a	n/a	n/a	n/a	n/a	n/a	yellow
302.2289	1.0166	ITI	n/a	n/a	n/a	n/a	n/a	n/a	n/a	n/a
303.2456	0.5167	FIXCROSS	n/a	n/a	n/a	n/a	n/a	n/a	n/a	n/a
303.7622	0.9167	COLOR_NAME	10	Incongruent	zielony	green	czerwony	red	hit	n/a
304.6516	n/a	RESPONSE	n/a	n/a	n/a	n/a	n/a	n/a	n/a	green
304.679	1.0167	ITI	n/a	n/a	n/a	n/a	n/a	n/a	n/a	n/a
305.6956	0.5166	FIXCROSS	n/a	n/a	n/a	n/a	n/a	n/a	n/a	n/a
306.2123	0.5834	COLOR_NAME	11	Neutral	zielony	green	Neutral	Neutral	hit	n/a
306.7748	n/a	RESPONSE	n/a	n/a	n/a	n/a	n/a	n/a	n/a	green
306.7956	1.0167	ITI	n/a	n/a	n/a	n/a	n/a	n/a	n/a	n/a
307.8123	0.5166	FIXCROSS	n/a	n/a	n/a	n/a	n/a	n/a	n/a	n/a
308.3289	0.8	COLOR_NAME	12	Incongruent	niebieski	blue	zielony	green	hit	n/a
309.1055	n/a	RESPONSE	n/a	n/a	n/a	n/a	n/a	n/a	n/a	blue
309.129	1.0166	ITI	n/a	n/a	n/a	n/a	n/a	n/a	n/a	n/a
310.1456	0.5167	FIXCROSS	n/a	n/a	n/a	n/a	n/a	n/a	n/a	n/a
310.6623	0.5833	COLOR_NAME	13	Incongruent	niebieski	blue	czerwony	red	hit	n/a
311.2128	n/a	RESPONSE	n/a	n/a	n/a	n/a	n/a	n/a	n/a	blue
311.2457	1.0167	ITI	n/a	n/a	n/a	n/a	n/a	n/a	n/a	n/a
312.2623	0.5167	FIXCROSS	n/a	n/a	n/a	n/a	n/a	n/a	n/a	n/a
312.779	0.75	COLOR_NAME	14	Incongruent	niebieski	blue	żółty	yellow	hit	n/a
313.5115	n/a	RESPONSE	n/a	n/a	n/a	n/a	n/a	n/a	n/a	blue
313.529	1.0167	ITI	n/a	n/a	n/a	n/a	n/a	n/a	n/a	n/a
314.5457	0.5167	FIXCROSS	n/a	n/a	n/a	n/a	n/a	n/a	n/a	n/a
315.0624	0.7	COLOR_NAME	15	Incongruent	zielony	green	niebieski	blue	hit	n/a
315.7305	n/a	RESPONSE	n/a	n/a	n/a	n/a	n/a	n/a	n/a	green
315.7623	1.0167	ITI	n/a	n/a	n/a	n/a	n/a	n/a	n/a	n/a
316.779	0.5167	FIXCROSS	n/a	n/a	n/a	n/a	n/a	n/a	n/a	n/a
317.2957	0.5167	COLOR_NAME	16	Neutral	czerwony	red	Neutral	Neutral	hit	n/a
317.7898	n/a	RESPONSE	n/a	n/a	n/a	n/a	n/a	n/a	n/a	red
317.8124	1.0166	ITI	n/a	n/a	n/a	n/a	n/a	n/a	n/a	n/a
318.829	0.5167	FIXCROSS	n/a	n/a	n/a	n/a	n/a	n/a	n/a	n/a
319.3457	0.7167	COLOR_NAME	17	Incongruent	niebieski	blue	zielony	green	hit	n/a
320.0406	n/a	RESPONSE	n/a	n/a	n/a	n/a	n/a	n/a	n/a	blue
320.0624	1.0167	ITI	n/a	n/a	n/a	n/a	n/a	n/a	n/a	n/a
321.0791	0.5166	FIXCROSS	n/a	n/a	n/a	n/a	n/a	n/a	n/a	n/a
321.5957	0.5334	COLOR_NAME	18	Incongruent	niebieski	blue	czerwony	red	hit	n/a
322.1	n/a	RESPONSE	n/a	n/a	n/a	n/a	n/a	n/a	n/a	blue
322.1291	1.0167	ITI	n/a	n/a	n/a	n/a	n/a	n/a	n/a	n/a
323.1458	0.5167	FIXCROSS	n/a	n/a	n/a	n/a	n/a	n/a	n/a	n/a
323.6624	0.4833	COLOR_NAME	19	Incongruent	żółty	yellow	niebieski	blue	hit	n/a
324.1274	n/a	RESPONSE	n/a	n/a	n/a	n/a	n/a	n/a	n/a	yellow
324.1457	1.0167	ITI	n/a	n/a	n/a	n/a	n/a	n/a	n/a	n/a
325.1624	0.5167	FIXCROSS	n/a	n/a	n/a	n/a	n/a	n/a	n/a	n/a
325.6791	0.8167	COLOR_NAME	20	Incongruent	zielony	green	czerwony	red	incorrect	n/a
326.474	n/a	RESPONSE	n/a	n/a	n/a	n/a	n/a	n/a	n/a	blue
326.4958	1.0166	ITI	n/a	n/a	n/a	n/a	n/a	n/a	n/a	n/a
327.5124	0.5167	FIXCROSS	n/a	n/a	n/a	n/a	n/a	n/a	n/a	n/a
328.0291	0.8833	COLOR_NAME	21	Neutral	niebieski	blue	Neutral	Neutral	hit	n/a
328.8845	n/a	RESPONSE	n/a	n/a	n/a	n/a	n/a	n/a	n/a	blue
328.9124	1.0167	ITI	n/a	n/a	n/a	n/a	n/a	n/a	n/a	n/a
329.9291	0.5167	FIXCROSS	n/a	n/a	n/a	n/a	n/a	n/a	n/a	n/a
330.4458	0.527	COLOR_NAME	22	Incongruent	czerwony	red	żółty	yellow	hit	n/a
330.9598	n/a	RESPONSE	n/a	n/a	n/a	n/a	n/a	n/a	n/a	red
330.9729	1.0229	ITI	n/a	n/a	n/a	n/a	n/a	n/a	n/a	n/a
331.9958	0.5167	FIXCROSS	n/a	n/a	n/a	n/a	n/a	n/a	n/a	n/a
332.5125	0.5833	COLOR_NAME	23	Neutral	zielony	green	Neutral	Neutral	hit	n/a
333.067	n/a	RESPONSE	n/a	n/a	n/a	n/a	n/a	n/a	n/a	green
333.0958	1.0166	ITI	n/a	n/a	n/a	n/a	n/a	n/a	n/a	n/a
334.1125	0.5167	FIXCROSS	n/a	n/a	n/a	n/a	n/a	n/a	n/a	n/a
334.6292	0.65	COLOR_NAME	24	Incongruent	zielony	green	żółty	yellow	incorrect	n/a
335.2541	n/a	RESPONSE	n/a	n/a	n/a	n/a	n/a	n/a	n/a	red
335.2792	1.0167	ITI	n/a	n/a	n/a	n/a	n/a	n/a	n/a	n/a
336.2959	0.5167	FIXCROSS	n/a	n/a	n/a	n/a	n/a	n/a	n/a	n/a
336.8125	0.6499	COLOR_NAME	25	Neutral	niebieski	blue	Neutral	Neutral	hit	n/a
337.4411	n/a	RESPONSE	n/a	n/a	n/a	n/a	n/a	n/a	n/a	blue
337.4624	1.0167	ITI	n/a	n/a	n/a	n/a	n/a	n/a	n/a	n/a
338.4792	0.5166	FIXCROSS	n/a	n/a	n/a	n/a	n/a	n/a	n/a	n/a
338.9958	0.5	COLOR_NAME	26	Neutral	niebieski	blue	Neutral	Neutral	hit	n/a
339.4684	n/a	RESPONSE	n/a	n/a	n/a	n/a	n/a	n/a	n/a	blue
339.4959	1.0166	ITI	n/a	n/a	n/a	n/a	n/a	n/a	n/a	n/a
340.5125	0.5167	FIXCROSS	n/a	n/a	n/a	n/a	n/a	n/a	n/a	n/a
341.0292	0.5834	COLOR_NAME	27	Incongruent	czerwony	red	zielony	green	hit	n/a
341.5916	n/a	RESPONSE	n/a	n/a	n/a	n/a	n/a	n/a	n/a	red
341.6126	1.0167	ITI	n/a	n/a	n/a	n/a	n/a	n/a	n/a	n/a
342.6292	0.5167	FIXCROSS	n/a	n/a	n/a	n/a	n/a	n/a	n/a	n/a
343.1459	0.5	COLOR_NAME	28	Neutral	zielony	green	Neutral	Neutral	hit	n/a
343.619	n/a	RESPONSE	n/a	n/a	n/a	n/a	n/a	n/a	n/a	green
343.6459	1.0167	ITI	n/a	n/a	n/a	n/a	n/a	n/a	n/a	n/a
344.6626	0.5167	FIXCROSS	n/a	n/a	n/a	n/a	n/a	n/a	n/a	n/a
345.1793	0.8333	COLOR_NAME	29	Incongruent	niebieski	blue	czerwony	red	hit	n/a
345.9816	n/a	RESPONSE	n/a	n/a	n/a	n/a	n/a	n/a	n/a	blue
346.0126	1.0167	ITI	n/a	n/a	n/a	n/a	n/a	n/a	n/a	n/a
347.0293	0.5167	FIXCROSS	n/a	n/a	n/a	n/a	n/a	n/a	n/a	n/a
347.5459	0.5667	COLOR_NAME	30	Incongruent	czerwony	red	niebieski	blue	hit	n/a
348.0888	n/a	RESPONSE	n/a	n/a	n/a	n/a	n/a	n/a	n/a	red
348.1126	1.0167	ITI	n/a	n/a	n/a	n/a	n/a	n/a	n/a	n/a
349.1293	0.5167	FIXCROSS	n/a	n/a	n/a	n/a	n/a	n/a	n/a	n/a
349.646	0.4167	COLOR_NAME	31	Neutral	zielony	green	Neutral	Neutral	hit	n/a
350.0364	n/a	RESPONSE	n/a	n/a	n/a	n/a	n/a	n/a	n/a	green
350.0626	1.0166	ITI	n/a	n/a	n/a	n/a	n/a	n/a	n/a	n/a
351.0793	0.5167	FIXCROSS	n/a	n/a	n/a	n/a	n/a	n/a	n/a	n/a
351.596	0.7	COLOR_NAME	32	Neutral	żółty	yellow	Neutral	Neutral	hit	n/a
352.2713	n/a	RESPONSE	n/a	n/a	n/a	n/a	n/a	n/a	n/a	yellow
352.296	1.0167	ITI	n/a	n/a	n/a	n/a	n/a	n/a	n/a	n/a
353.3126	0.5166	FIXCROSS	n/a	n/a	n/a	n/a	n/a	n/a	n/a	n/a
353.8293	0.5834	COLOR_NAME	33	Incongruent	żółty	yellow	czerwony	red	hit	n/a
354.3945	n/a	RESPONSE	n/a	n/a	n/a	n/a	n/a	n/a	n/a	yellow
354.4126	1.0166	ITI	n/a	n/a	n/a	n/a	n/a	n/a	n/a	n/a
355.4293	0.5167	FIXCROSS	n/a	n/a	n/a	n/a	n/a	n/a	n/a	n/a
355.946	0.4167	COLOR_NAME	34	Neutral	żółty	yellow	Neutral	Neutral	hit	n/a
356.3419	n/a	RESPONSE	n/a	n/a	n/a	n/a	n/a	n/a	n/a	yellow
356.3627	1.0167	ITI	n/a	n/a	n/a	n/a	n/a	n/a	n/a	n/a
357.3793	0.5167	FIXCROSS	n/a	n/a	n/a	n/a	n/a	n/a	n/a	n/a
357.896	0.6	COLOR_NAME	35	Incongruent	żółty	yellow	czerwony	red	hit	n/a
358.4652	n/a	RESPONSE	n/a	n/a	n/a	n/a	n/a	n/a	n/a	yellow
358.496	1.0167	ITI	n/a	n/a	n/a	n/a	n/a	n/a	n/a	n/a
359.5127	0.5166	FIXCROSS	n/a	n/a	n/a	n/a	n/a	n/a	n/a	n/a
360.0293	0.6	COLOR_NAME	36	Incongruent	czerwony	red	niebieski	blue	hit	n/a
360.6043	n/a	RESPONSE	n/a	n/a	n/a	n/a	n/a	n/a	n/a	red
360.6294	1.0167	ITI	n/a	n/a	n/a	n/a	n/a	n/a	n/a	n/a
361.646	0.5167	FIXCROSS	n/a	n/a	n/a	n/a	n/a	n/a	n/a	n/a
362.1627	0.6833	COLOR_NAME	37	Incongruent	niebieski	blue	żółty	yellow	hit	n/a
362.8231	n/a	RESPONSE	n/a	n/a	n/a	n/a	n/a	n/a	n/a	blue
362.846	1.0167	ITI	n/a	n/a	n/a	n/a	n/a	n/a	n/a	n/a
363.8627	0.5166	FIXCROSS	n/a	n/a	n/a	n/a	n/a	n/a	n/a	n/a
364.3794	0.6167	COLOR_NAME	38	Neutral	czerwony	red	Neutral	Neutral	hit	n/a
364.9623	n/a	RESPONSE	n/a	n/a	n/a	n/a	n/a	n/a	n/a	red
364.9961	1.0167	ITI	n/a	n/a	n/a	n/a	n/a	n/a	n/a	n/a
366.0127	0.5167	FIXCROSS	n/a	n/a	n/a	n/a	n/a	n/a	n/a	n/a
366.5294	0.6167	COLOR_NAME	39	Neutral	żółty	yellow	Neutral	Neutral	hit	n/a
367.1175	n/a	RESPONSE	n/a	n/a	n/a	n/a	n/a	n/a	n/a	yellow
367.1461	1.0167	ITI	n/a	n/a	n/a	n/a	n/a	n/a	n/a	n/a
368.1628	0.5166	FIXCROSS	n/a	n/a	n/a	n/a	n/a	n/a	n/a	n/a
368.6794	0.5167	COLOR_NAME	40	Neutral	żółty	yellow	Neutral	Neutral	hit	n/a
369.1768	n/a	RESPONSE	n/a	n/a	n/a	n/a	n/a	n/a	n/a	yellow
369.1961	1.0166	ITI	n/a	n/a	n/a	n/a	n/a	n/a	n/a	n/a
370.2127	0.5167	FIXCROSS	n/a	n/a	n/a	n/a	n/a	n/a	n/a	n/a
370.7294	0.5667	COLOR_NAME	41	Incongruent	czerwony	red	żółty	yellow	hit	n/a
371.268	n/a	RESPONSE	n/a	n/a	n/a	n/a	n/a	n/a	n/a	red
371.2961	1.0167	ITI	n/a	n/a	n/a	n/a	n/a	n/a	n/a	n/a
372.3128	0.5166	FIXCROSS	n/a	n/a	n/a	n/a	n/a	n/a	n/a	n/a
372.8294	0.5333	COLOR_NAME	42	Neutral	czerwony	red	Neutral	Neutral	hit	n/a
373.3433	n/a	RESPONSE	n/a	n/a	n/a	n/a	n/a	n/a	n/a	red
373.3628	1.0167	ITI	n/a	n/a	n/a	n/a	n/a	n/a	n/a	n/a
374.3794	0.5167	FIXCROSS	n/a	n/a	n/a	n/a	n/a	n/a	n/a	n/a
374.8961	0.5834	COLOR_NAME	43	Incongruent	zielony	green	żółty	yellow	incorrect	n/a
375.4505	n/a	RESPONSE	n/a	n/a	n/a	n/a	n/a	n/a	n/a	yellow
375.4795	1.0166	ITI	n/a	n/a	n/a	n/a	n/a	n/a	n/a	n/a
376.4961	0.5167	FIXCROSS	n/a	n/a	n/a	n/a	n/a	n/a	n/a	n/a
377.0128	0.5167	COLOR_NAME	44	Neutral	niebieski	blue	Neutral	Neutral	hit	n/a
377.5097	n/a	RESPONSE	n/a	n/a	n/a	n/a	n/a	n/a	n/a	blue
377.5295	1.0167	ITI	n/a	n/a	n/a	n/a	n/a	n/a	n/a	n/a
378.5462	0.5167	FIXCROSS	n/a	n/a	n/a	n/a	n/a	n/a	n/a	n/a
379.0628	0.75	COLOR_NAME	45	Incongruent	zielony	green	żółty	yellow	hit	n/a
379.7926	n/a	RESPONSE	n/a	n/a	n/a	n/a	n/a	n/a	n/a	green
379.8128	1.0167	ITI	n/a	n/a	n/a	n/a	n/a	n/a	n/a	n/a
380.8295	0.5166	FIXCROSS	n/a	n/a	n/a	n/a	n/a	n/a	n/a	n/a
381.3462	0.5833	COLOR_NAME	46	Neutral	czerwony	red	Neutral	Neutral	hit	n/a
381.8998	n/a	RESPONSE	n/a	n/a	n/a	n/a	n/a	n/a	n/a	red
381.9295	1.0167	ITI	n/a	n/a	n/a	n/a	n/a	n/a	n/a	n/a
382.9462	0.5167	FIXCROSS	n/a	n/a	n/a	n/a	n/a	n/a	n/a	n/a
383.4629	0.5	COLOR_NAME	47	Neutral	zielony	green	Neutral	Neutral	hit	n/a
383.9431	n/a	RESPONSE	n/a	n/a	n/a	n/a	n/a	n/a	n/a	green
383.9629	1.0167	ITI	n/a	n/a	n/a	n/a	n/a	n/a	n/a	n/a
384.9795	0.5167	FIXCROSS	n/a	n/a	n/a	n/a	n/a	n/a	n/a	n/a
385.4962	0.7166	COLOR_NAME	48	Incongruent	żółty	yellow	zielony	green	hit	n/a
386.194	n/a	RESPONSE	n/a	n/a	n/a	n/a	n/a	n/a	n/a	yellow
386.2128	1.0167	ITI	n/a	n/a	n/a	n/a	n/a	n/a	n/a	n/a
387.2296	0.5167	FIXCROSS	n/a	n/a	n/a	n/a	n/a	n/a	n/a	n/a
387.7462	0.7333	COLOR_NAME	49	Neutral	zielony	green	Neutral	Neutral	hit	n/a
388.4608	n/a	RESPONSE	n/a	n/a	n/a	n/a	n/a	n/a	n/a	green
388.4795	1.0167	ITI	n/a	n/a	n/a	n/a	n/a	n/a	n/a	n/a
389.4962	0.5166	FIXCROSS	n/a	n/a	n/a	n/a	n/a	n/a	n/a	n/a
390.0129	0.6	COLOR_NAME	50	Neutral	niebieski	blue	Neutral	Neutral	incorrect	n/a
390.5839	n/a	RESPONSE	n/a	n/a	n/a	n/a	n/a	n/a	n/a	red
390.6129	1.0167	ITI	n/a	n/a	n/a	n/a	n/a	n/a	n/a	n/a
391.6296	0.5167	FIXCROSS	n/a	n/a	n/a	n/a	n/a	n/a	n/a	n/a
392.1463	0.5833	COLOR_NAME	51	Neutral	czerwony	red	Neutral	Neutral	hit	n/a
392.7072	n/a	RESPONSE	n/a	n/a	n/a	n/a	n/a	n/a	n/a	red
392.7296	1.0166	ITI	n/a	n/a	n/a	n/a	n/a	n/a	n/a	n/a
393.7462	0.5167	FIXCROSS	n/a	n/a	n/a	n/a	n/a	n/a	n/a	n/a
394.2629	0.8166	COLOR_NAME	52	Incongruent	zielony	green	czerwony	red	hit	n/a
395.0539	n/a	RESPONSE	n/a	n/a	n/a	n/a	n/a	n/a	n/a	green
395.0796	1.0167	ITI	n/a	n/a	n/a	n/a	n/a	n/a	n/a	n/a
396.0963	0.5167	FIXCROSS	n/a	n/a	n/a	n/a	n/a	n/a	n/a	n/a
396.613	0.65	COLOR_NAME	53	Incongruent	zielony	green	niebieski	blue	hit	n/a
397.2409	n/a	RESPONSE	n/a	n/a	n/a	n/a	n/a	n/a	n/a	green
397.2629	1.0167	ITI	n/a	n/a	n/a	n/a	n/a	n/a	n/a	n/a
398.2796	0.5166	FIXCROSS	n/a	n/a	n/a	n/a	n/a	n/a	n/a	n/a
398.7963	0.65	COLOR_NAME	54	Incongruent	żółty	yellow	zielony	green	hit	n/a
399.4278	n/a	RESPONSE	n/a	n/a	n/a	n/a	n/a	n/a	n/a	yellow
399.4463	1.0167	ITI	n/a	n/a	n/a	n/a	n/a	n/a	n/a	n/a
400.463	0.5167	FIXCROSS	n/a	n/a	n/a	n/a	n/a	n/a	n/a	n/a
400.9797	0.8166	COLOR_NAME	55	Neutral	niebieski	blue	Neutral	Neutral	hit	n/a
401.7745	n/a	RESPONSE	n/a	n/a	n/a	n/a	n/a	n/a	n/a	blue
401.7963	1.0167	ITI	n/a	n/a	n/a	n/a	n/a	n/a	n/a	n/a
402.813	0.5167	FIXCROSS	n/a	n/a	n/a	n/a	n/a	n/a	n/a	n/a
403.3297	0.8	COLOR_NAME	56	Incongruent	żółty	yellow	niebieski	blue	hit	n/a
404.1052	n/a	RESPONSE	n/a	n/a	n/a	n/a	n/a	n/a	n/a	yellow
404.1296	1.0167	ITI	n/a	n/a	n/a	n/a	n/a	n/a	n/a	n/a
405.1463	0.5167	FIXCROSS	n/a	n/a	n/a	n/a	n/a	n/a	n/a	n/a
405.663	0.8334	COLOR_NAME	57	Neutral	czerwony	red	Neutral	Neutral	hit	n/a
406.4677	n/a	RESPONSE	n/a	n/a	n/a	n/a	n/a	n/a	n/a	red
406.4964	1.0167	ITI	n/a	n/a	n/a	n/a	n/a	n/a	n/a	n/a
407.513	0.5167	FIXCROSS	n/a	n/a	n/a	n/a	n/a	n/a	n/a	n/a
408.0297	0.7333	COLOR_NAME	58	Neutral	niebieski	blue	Neutral	Neutral	hit	n/a
408.7346	n/a	RESPONSE	n/a	n/a	n/a	n/a	n/a	n/a	n/a	blue
408.763	1.0167	ITI	n/a	n/a	n/a	n/a	n/a	n/a	n/a	n/a
409.7797	0.5167	FIXCROSS	n/a	n/a	n/a	n/a	n/a	n/a	n/a	n/a
410.2964	0.6333	COLOR_NAME	59	Incongruent	żółty	yellow	czerwony	red	hit	n/a
410.9056	n/a	RESPONSE	n/a	n/a	n/a	n/a	n/a	n/a	n/a	yellow
410.9297	1.0167	ITI	n/a	n/a	n/a	n/a	n/a	n/a	n/a	n/a
411.9464	0.5166	FIXCROSS	n/a	n/a	n/a	n/a	n/a	n/a	n/a	n/a
412.4631	0.5833	COLOR_NAME	60	Neutral	żółty	yellow	Neutral	Neutral	hit	n/a
413.0288	n/a	RESPONSE	n/a	n/a	n/a	n/a	n/a	n/a	n/a	yellow
413.0464	1.0167	ITI	n/a	n/a	n/a	n/a	n/a	n/a	n/a	n/a
414.0631	0.5167	FIXCROSS	n/a	n/a	n/a	n/a	n/a	n/a	n/a	n/a
414.5798	0.5333	COLOR_NAME	61	Neutral	żółty	yellow	Neutral	Neutral	hit	n/a
415.0882	n/a	RESPONSE	n/a	n/a	n/a	n/a	n/a	n/a	n/a	yellow
415.1131	1.0167	ITI	n/a	n/a	n/a	n/a	n/a	n/a	n/a	n/a
416.1298	0.5167	FIXCROSS	n/a	n/a	n/a	n/a	n/a	n/a	n/a	n/a
416.6464	0.4666	COLOR_NAME	62	Neutral	zielony	green	Neutral	Neutral	hit	n/a
417.0836	n/a	RESPONSE	n/a	n/a	n/a	n/a	n/a	n/a	n/a	green
417.1131	1.0167	ITI	n/a	n/a	n/a	n/a	n/a	n/a	n/a	n/a
418.1297	0.5167	FIXCROSS	n/a	n/a	n/a	n/a	n/a	n/a	n/a	n/a
418.6465	0.5333	COLOR_NAME	63	Neutral	żółty	yellow	Neutral	Neutral	hit	n/a
419.1588	n/a	RESPONSE	n/a	n/a	n/a	n/a	n/a	n/a	n/a	yellow
419.1798	1.0167	ITI	n/a	n/a	n/a	n/a	n/a	n/a	n/a	n/a
420.1965	0.5167	FIXCROSS	n/a	n/a	n/a	n/a	n/a	n/a	n/a	n/a
420.7131	0.7167	COLOR_NAME	64	Incongruent	niebieski	blue	żółty	yellow	hit	n/a
421.4097	n/a	RESPONSE	n/a	n/a	n/a	n/a	n/a	n/a	n/a	blue
421.4298	1.0166	ITI	n/a	n/a	n/a	n/a	n/a	n/a	n/a	n/a
422.4465	0.5167	FIXCROSS	n/a	n/a	n/a	n/a	n/a	n/a	n/a	n/a
422.9632	0.5167	COLOR_NAME	65	Incongruent	czerwony	red	zielony	green	hit	n/a
423.4532	n/a	RESPONSE	n/a	n/a	n/a	n/a	n/a	n/a	n/a	red
423.4798	1.0167	ITI	n/a	n/a	n/a	n/a	n/a	n/a	n/a	n/a
424.4965	0.5167	FIXCROSS	n/a	n/a	n/a	n/a	n/a	n/a	n/a	n/a
425.0132	0.5333	COLOR_NAME	66	Incongruent	czerwony	red	żółty	yellow	hit	n/a
425.5124	n/a	RESPONSE	n/a	n/a	n/a	n/a	n/a	n/a	n/a	red
425.5465	1.0167	ITI	n/a	n/a	n/a	n/a	n/a	n/a	n/a	n/a
426.5632	0.5167	FIXCROSS	n/a	n/a	n/a	n/a	n/a	n/a	n/a	n/a
427.0799	0.5167	COLOR_NAME	67	Incongruent	czerwony	red	niebieski	blue	hit	n/a
427.5717	n/a	RESPONSE	n/a	n/a	n/a	n/a	n/a	n/a	n/a	red
427.5965	1.0166	ITI	n/a	n/a	n/a	n/a	n/a	n/a	n/a	n/a
428.6132	0.5167	FIXCROSS	n/a	n/a	n/a	n/a	n/a	n/a	n/a	n/a
429.1299	0.45	COLOR_NAME	68	Neutral	zielony	green	Neutral	Neutral	hit	n/a
429.5512	n/a	RESPONSE	n/a	n/a	n/a	n/a	n/a	n/a	n/a	green
429.5799	1.0166	ITI	n/a	n/a	n/a	n/a	n/a	n/a	n/a	n/a
430.5965	0.5167	FIXCROSS	n/a	n/a	n/a	n/a	n/a	n/a	n/a	n/a
431.1132	0.6167	COLOR_NAME	69	Neutral	niebieski	blue	Neutral	Neutral	incorrect	n/a
431.7063	n/a	RESPONSE	n/a	n/a	n/a	n/a	n/a	n/a	n/a	red
431.7299	1.0167	ITI	n/a	n/a	n/a	n/a	n/a	n/a	n/a	n/a
432.7466	0.5166	FIXCROSS	n/a	n/a	n/a	n/a	n/a	n/a	n/a	n/a
433.2632	0.75	COLOR_NAME	70	Incongruent	zielony	green	niebieski	blue	hit	n/a
433.9892	n/a	RESPONSE	n/a	n/a	n/a	n/a	n/a	n/a	n/a	green
434.0132	1.0167	ITI	n/a	n/a	n/a	n/a	n/a	n/a	n/a	n/a
435.0299	0.5166	FIXCROSS	n/a	n/a	n/a	n/a	n/a	n/a	n/a	n/a
435.5465	0.5167	COLOR_NAME	71	Neutral	zielony	green	Neutral	Neutral	hit	n/a
436.0325	n/a	RESPONSE	n/a	n/a	n/a	n/a	n/a	n/a	n/a	green
436.0633	1.0166	ITI	n/a	n/a	n/a	n/a	n/a	n/a	n/a	n/a
437.0799	0.5167	FIXCROSS	n/a	n/a	n/a	n/a	n/a	n/a	n/a	n/a
437.5966	0.5	COLOR_NAME	72	Neutral	czerwony	red	Neutral	Neutral	hit	n/a
438.0759	n/a	RESPONSE	n/a	n/a	n/a	n/a	n/a	n/a	n/a	red
438.0966	1.0334	ITI	n/a	n/a	n/a	n/a	n/a	n/a	n/a	n/a
442.6096	n/a	RESPONSE	n/a	n/a	n/a	n/a	n/a	n/a	n/a	n/a
